onset	duration	sample	trial_type	response_time	stim_file	item_name	serialpos	list	test	answer	experiment	session	subject
0.0	0.0	9045	INSTRUCT_START	n/a	n/a	n/a	-999	-999	[0, 0, 0]	n/a	FR1	2	R1171M
0.0	11.172	9045	INSTRUCT_END	n/a	n/a	n/a	-999	-999	[0, 0, 0]	n/a	FR1	2	R1171M
11.172	0.0	20216	SESS_START	n/a	n/a	n/a	-999	-999	[0, 0, 0]	n/a	FR1	2	R1171M
11.172	55.5	20216	MIC_TEST	n/a	n/a	n/a	-999	-999	[0, 0, 0]	n/a	FR1	2	R1171M
66.672	1.907	75713	PRACTICE_TRIAL	n/a	n/a	n/a	-999	-1	[0, 0, 0]	n/a	FR1	2	R1171M
68.579	10.428	77620	COUNTDOWN_START	n/a	n/a	n/a	-999	-1	[0, 0, 0]	n/a	FR1	2	R1171M
79.007	0.008	88047	COUNTDOWN_END	n/a	n/a	n/a	-999	-1	[0, 0, 0]	n/a	FR1	2	R1171M
79.015	1.616	88055	PRACTICE_ORIENT	n/a	n/a	n/a	-999	-1	[0, 0, 0]	n/a	FR1	2	R1171M
80.631	1.884	89671	PRACTICE_ORIENT_OFF	n/a	n/a	n/a	-999	-1	[0, 0, 0]	n/a	FR1	2	R1171M
82.515	1.618	91555	PRACTICE_WORD	n/a	n/a	TONGUE	1	-1	[0, 0, 0]	n/a	FR1	2	R1171M
84.133	0.933	93173	PRACTICE_WORD_OFF	n/a	n/a	TONGUE	-999	-1	[0, 0, 0]	n/a	FR1	2	R1171M
85.066	1.616	94106	PRACTICE_WORD	n/a	n/a	CHEST	2	-1	[0, 0, 0]	n/a	FR1	2	R1171M
86.682	0.884	95722	PRACTICE_WORD_OFF	n/a	n/a	CHEST	-999	-1	[0, 0, 0]	n/a	FR1	2	R1171M
87.566	1.618	96606	PRACTICE_WORD	n/a	n/a	COTTON	3	-1	[0, 0, 0]	n/a	FR1	2	R1171M
89.184	0.816	98224	PRACTICE_WORD_OFF	n/a	n/a	COTTON	-999	-1	[0, 0, 0]	n/a	FR1	2	R1171M
90.0	1.616	99040	PRACTICE_WORD	n/a	n/a	FLOOD	4	-1	[0, 0, 0]	n/a	FR1	2	R1171M
91.616	0.85	100655	PRACTICE_WORD_OFF	n/a	n/a	FLOOD	-999	-1	[0, 0, 0]	n/a	FR1	2	R1171M
92.466	1.602	101505	PRACTICE_WORD	n/a	n/a	RHINO	5	-1	[0, 0, 0]	n/a	FR1	2	R1171M
94.068	0.95	103107	PRACTICE_WORD_OFF	n/a	n/a	RHINO	-999	-1	[0, 0, 0]	n/a	FR1	2	R1171M
95.018	1.616	104057	PRACTICE_WORD	n/a	n/a	IRON	6	-1	[0, 0, 0]	n/a	FR1	2	R1171M
96.634	0.834	105673	PRACTICE_WORD_OFF	n/a	n/a	IRON	-999	-1	[0, 0, 0]	n/a	FR1	2	R1171M
97.468	1.617	106507	PRACTICE_WORD	n/a	n/a	CAMEL	7	-1	[0, 0, 0]	n/a	FR1	2	R1171M
99.085	0.901	108124	PRACTICE_WORD_OFF	n/a	n/a	CAMEL	-999	-1	[0, 0, 0]	n/a	FR1	2	R1171M
99.986	1.616	109025	PRACTICE_WORD	n/a	n/a	BEAM	8	-1	[0, 0, 0]	n/a	FR1	2	R1171M
101.602	0.866	110641	PRACTICE_WORD_OFF	n/a	n/a	BEAM	-999	-1	[0, 0, 0]	n/a	FR1	2	R1171M
102.468	1.618	111507	PRACTICE_WORD	n/a	n/a	RING	9	-1	[0, 0, 0]	n/a	FR1	2	R1171M
104.086	0.867	113125	PRACTICE_WORD_OFF	n/a	n/a	RING	-999	-1	[0, 0, 0]	n/a	FR1	2	R1171M
104.953	1.616	113992	PRACTICE_WORD	n/a	n/a	ATTIC	10	-1	[0, 0, 0]	n/a	FR1	2	R1171M
106.569	0.9	115608	PRACTICE_WORD_OFF	n/a	n/a	ATTIC	-999	-1	[0, 0, 0]	n/a	FR1	2	R1171M
107.469	1.618	116508	PRACTICE_WORD	n/a	n/a	WAGON	11	-1	[0, 0, 0]	n/a	FR1	2	R1171M
109.087	0.967	118125	PRACTICE_WORD_OFF	n/a	n/a	WAGON	-999	-1	[0, 0, 0]	n/a	FR1	2	R1171M
110.054	1.616	119092	PRACTICE_WORD	n/a	n/a	WATCH	12	-1	[0, 0, 0]	n/a	FR1	2	R1171M
111.67	0.0	120708	PRACTICE_WORD_OFF	n/a	n/a	WATCH	-999	-1	[0, 0, 0]	n/a	FR1	2	R1171M
111.67	0.001	120708	DISTRACT_START	n/a	n/a	n/a	-999	-1	[0, 0, 0]	n/a	FR1	2	R1171M
111.671	0.016	120709	START	n/a	n/a	n/a	-999	-1	[-999, -999, -999]	n/a	FR1	2	R1171M
111.687	22.93	120725	PROB	22.93	n/a	n/a	-999	-1	[3, 8, 3]	11	FR1	2	R1171M
134.617	0.008	143654	STOP	n/a	n/a	n/a	-999	-1	[-999, -999, -999]	n/a	FR1	2	R1171M
134.625	0.668	143662	DISTRACT_END	n/a	n/a	n/a	-999	-1	[0, 0, 0]	n/a	FR1	2	R1171M
135.293	0.517	144330	RETRIEVAL_ORIENT	n/a	n/a	n/a	-999	-1	[0, 0, 0]	n/a	FR1	2	R1171M
135.81	30.01	144847	PRACTICE_REC_START	n/a	n/a	n/a	-999	-1	[0, 0, 0]	n/a	FR1	2	R1171M
165.82	10.813	174855	PRACTICE_REC_END	n/a	n/a	n/a	-999	-1	[0, 0, 0]	n/a	FR1	2	R1171M
176.633	0.5	185668	TRIAL	n/a	n/a	n/a	-999	1	[0, 0, 0]	n/a	FR1	2	R1171M
177.133	10.428	186168	COUNTDOWN_START	n/a	n/a	n/a	-999	1	[0, 0, 0]	n/a	FR1	2	R1171M
187.561	0.007	196595	COUNTDOWN_END	n/a	n/a	n/a	-999	1	[0, 0, 0]	n/a	FR1	2	R1171M
187.568	1.618	196602	ORIENT	n/a	n/a	n/a	-999	1	[0, 0, 0]	n/a	FR1	2	R1171M
189.186	2.25	198220	ORIENT_OFF	n/a	n/a	n/a	-999	1	[0, 0, 0]	n/a	FR1	2	R1171M
191.436	1.618	200470	WORD	n/a	wordpools/wordpool_EN.txt	BAT	1	1	[0, 0, 0]	n/a	FR1	2	R1171M
193.054	106.22	202088	WORD_OFF	n/a	n/a	BAT	1	1	[0, 0, 0]	n/a	FR1	2	R1171M
299.274	0.0	308302	INSTRUCT_START	n/a	n/a	n/a	-999	1	[0, 0, 0]	n/a	FR1	2	R1171M
299.274	10.915	308302	INSTRUCT_END	n/a	n/a	n/a	-999	1	[0, 0, 0]	n/a	FR1	2	R1171M
310.189	0.0	319216	SESS_START	n/a	n/a	n/a	-999	1	[0, 0, 0]	n/a	FR1	2	R1171M
310.189	15.0	319216	MIC_TEST	n/a	n/a	n/a	-999	1	[0, 0, 0]	n/a	FR1	2	R1171M
325.189	9.057	334215	PRACTICE_TRIAL	n/a	n/a	n/a	-999	-1	[0, 0, 0]	n/a	FR1	2	R1171M
334.246	10.428	343272	COUNTDOWN_START	n/a	n/a	n/a	-999	-1	[0, 0, 0]	n/a	FR1	2	R1171M
344.674	0.008	353699	COUNTDOWN_END	n/a	n/a	n/a	-999	-1	[0, 0, 0]	n/a	FR1	2	R1171M
344.682	1.618	353707	PRACTICE_ORIENT	n/a	n/a	n/a	-999	-1	[0, 0, 0]	n/a	FR1	2	R1171M
346.3	2.316	355325	PRACTICE_ORIENT_OFF	n/a	n/a	n/a	-999	-1	[0, 0, 0]	n/a	FR1	2	R1171M
348.616	1.618	357641	PRACTICE_WORD	n/a	n/a	TONGUE	1	-1	[0, 0, 0]	n/a	FR1	2	R1171M
350.234	0.833	359259	PRACTICE_WORD_OFF	n/a	n/a	TONGUE	-999	-1	[0, 0, 0]	n/a	FR1	2	R1171M
351.067	1.616	360092	PRACTICE_WORD	n/a	n/a	CHEST	2	-1	[0, 0, 0]	n/a	FR1	2	R1171M
352.683	0.984	361708	PRACTICE_WORD_OFF	n/a	n/a	CHEST	-999	-1	[0, 0, 0]	n/a	FR1	2	R1171M
353.667	1.618	362692	PRACTICE_WORD	n/a	n/a	COTTON	3	-1	[0, 0, 0]	n/a	FR1	2	R1171M
355.285	0.983	364310	PRACTICE_WORD_OFF	n/a	n/a	COTTON	-999	-1	[0, 0, 0]	n/a	FR1	2	R1171M
356.268	1.616	365293	PRACTICE_WORD	n/a	n/a	FLOOD	4	-1	[0, 0, 0]	n/a	FR1	2	R1171M
357.884	0.967	366908	PRACTICE_WORD_OFF	n/a	n/a	FLOOD	-999	-1	[0, 0, 0]	n/a	FR1	2	R1171M
358.851	1.617	367875	PRACTICE_WORD	n/a	n/a	RHINO	5	-1	[0, 0, 0]	n/a	FR1	2	R1171M
360.468	0.918	369492	PRACTICE_WORD_OFF	n/a	n/a	RHINO	-999	-1	[0, 0, 0]	n/a	FR1	2	R1171M
361.386	1.617	370410	PRACTICE_WORD	n/a	n/a	IRON	6	-1	[0, 0, 0]	n/a	FR1	2	R1171M
363.003	1.017	372027	PRACTICE_WORD_OFF	n/a	n/a	IRON	-999	-1	[0, 0, 0]	n/a	FR1	2	R1171M
364.02	1.616	373044	PRACTICE_WORD	n/a	n/a	CAMEL	7	-1	[0, 0, 0]	n/a	FR1	2	R1171M
365.636	0.933	374660	PRACTICE_WORD_OFF	n/a	n/a	CAMEL	-999	-1	[0, 0, 0]	n/a	FR1	2	R1171M
366.569	1.602	375593	PRACTICE_WORD	n/a	n/a	BEAM	8	-1	[0, 0, 0]	n/a	FR1	2	R1171M
368.171	0.9	377195	PRACTICE_WORD_OFF	n/a	n/a	BEAM	-999	-1	[0, 0, 0]	n/a	FR1	2	R1171M
369.071	1.616	378095	PRACTICE_WORD	n/a	n/a	RING	9	-1	[0, 0, 0]	n/a	FR1	2	R1171M
370.687	0.9	379711	PRACTICE_WORD_OFF	n/a	n/a	RING	-999	-1	[0, 0, 0]	n/a	FR1	2	R1171M
371.587	1.601	380611	PRACTICE_WORD	n/a	n/a	ATTIC	10	-1	[0, 0, 0]	n/a	FR1	2	R1171M
373.188	0.917	382212	PRACTICE_WORD_OFF	n/a	n/a	ATTIC	-999	-1	[0, 0, 0]	n/a	FR1	2	R1171M
374.105	1.616	383129	PRACTICE_WORD	n/a	n/a	WAGON	11	-1	[0, 0, 0]	n/a	FR1	2	R1171M
375.721	0.9	384744	PRACTICE_WORD_OFF	n/a	n/a	WAGON	-999	-1	[0, 0, 0]	n/a	FR1	2	R1171M
376.621	1.601	385644	PRACTICE_WORD	n/a	n/a	WATCH	12	-1	[0, 0, 0]	n/a	FR1	2	R1171M
378.222	0.0	387245	PRACTICE_WORD_OFF	n/a	n/a	WATCH	-999	-1	[0, 0, 0]	n/a	FR1	2	R1171M
378.222	0.001	387245	DISTRACT_START	n/a	n/a	n/a	-999	-1	[0, 0, 0]	n/a	FR1	2	R1171M
378.223	0.016	387246	START	n/a	n/a	n/a	-999	1	[-999, -999, -999]	n/a	FR1	2	R1171M
378.239	5.284	387262	PROB	5.284	n/a	n/a	-999	1	[3, 7, 1]	11	FR1	2	R1171M
383.523	8.185	392546	PROB	8.185	n/a	n/a	-999	1	[4, 8, 5]	17	FR1	2	R1171M
391.708	4.117	400731	PROB	4.117	n/a	n/a	-999	1	[3, 3, 2]	6	FR1	2	R1171M
395.825	5.616	404847	PROB	5.616	n/a	n/a	-999	1	[1, 1, 1]	3	FR1	2	R1171M
401.441	0.018	410463	STOP	n/a	n/a	n/a	-999	1	[-999, -999, -999]	n/a	FR1	2	R1171M
401.459	0.568	410481	DISTRACT_END	n/a	n/a	n/a	-999	-1	[0, 0, 0]	n/a	FR1	2	R1171M
402.027	0.517	411049	RETRIEVAL_ORIENT	n/a	n/a	n/a	-999	-1	[0, 0, 0]	n/a	FR1	2	R1171M
402.544	30.01	411566	PRACTICE_REC_START	n/a	n/a	n/a	-999	-1	[0, 0, 0]	n/a	FR1	2	R1171M
432.554	17.115	441574	PRACTICE_REC_END	n/a	n/a	n/a	-999	-1	[0, 0, 0]	n/a	FR1	2	R1171M
449.669	0.5	458688	TRIAL	n/a	n/a	n/a	-999	1	[0, 0, 0]	n/a	FR1	2	R1171M
450.169	10.428	459188	COUNTDOWN_START	n/a	n/a	n/a	-999	1	[0, 0, 0]	n/a	FR1	2	R1171M
460.597	0.007	469616	COUNTDOWN_END	n/a	n/a	n/a	-999	1	[0, 0, 0]	n/a	FR1	2	R1171M
460.604	1.618	469623	ORIENT	n/a	n/a	n/a	-999	1	[0, 0, 0]	n/a	FR1	2	R1171M
462.222	2.001	471241	ORIENT_OFF	n/a	n/a	n/a	-999	1	[0, 0, 0]	n/a	FR1	2	R1171M
464.223	1.616	473241	WORD	n/a	wordpools/wordpool_EN.txt	BAT	1	1	[0, 0, 0]	n/a	FR1	2	R1171M
465.839	0.95	474857	WORD_OFF	n/a	n/a	BAT	1	1	[0, 0, 0]	n/a	FR1	2	R1171M
466.789	1.618	475807	WORD	n/a	wordpools/wordpool_EN.txt	WHALE	2	1	[0, 0, 0]	n/a	FR1	2	R1171M
468.407	0.767	477425	WORD_OFF	n/a	n/a	WHALE	2	1	[0, 0, 0]	n/a	FR1	2	R1171M
469.174	1.616	478192	WORD	n/a	wordpools/wordpool_EN.txt	SINK	3	1	[0, 0, 0]	n/a	FR1	2	R1171M
470.79	0.85	479808	WORD_OFF	n/a	n/a	SINK	3	1	[0, 0, 0]	n/a	FR1	2	R1171M
471.64	1.618	480658	WORD	n/a	wordpools/wordpool_EN.txt	VINE	4	1	[0, 0, 0]	n/a	FR1	2	R1171M
473.258	0.767	482276	WORD_OFF	n/a	n/a	VINE	4	1	[0, 0, 0]	n/a	FR1	2	R1171M
474.025	1.615	483043	WORD	n/a	wordpools/wordpool_EN.txt	PIT	5	1	[0, 0, 0]	n/a	FR1	2	R1171M
475.64	0.951	484658	WORD_OFF	n/a	n/a	PIT	5	1	[0, 0, 0]	n/a	FR1	2	R1171M
476.591	1.618	485609	WORD	n/a	wordpools/wordpool_EN.txt	NET	6	1	[0, 0, 0]	n/a	FR1	2	R1171M
478.209	0.833	487227	WORD_OFF	n/a	n/a	NET	6	1	[0, 0, 0]	n/a	FR1	2	R1171M
479.042	1.616	488060	WORD	n/a	wordpools/wordpool_EN.txt	ROOF	7	1	[0, 0, 0]	n/a	FR1	2	R1171M
480.658	0.984	489675	WORD_OFF	n/a	n/a	ROOF	7	1	[0, 0, 0]	n/a	FR1	2	R1171M
481.642	1.618	490659	WORD	n/a	wordpools/wordpool_EN.txt	FACE	8	1	[0, 0, 0]	n/a	FR1	2	R1171M
483.26	0.917	492277	WORD_OFF	n/a	n/a	FACE	8	1	[0, 0, 0]	n/a	FR1	2	R1171M
484.177	1.615	493194	WORD	n/a	wordpools/wordpool_EN.txt	PLATE	9	1	[0, 0, 0]	n/a	FR1	2	R1171M
485.792	0.8	494809	WORD_OFF	n/a	n/a	PLATE	9	1	[0, 0, 0]	n/a	FR1	2	R1171M
486.592	1.602	495609	WORD	n/a	wordpools/wordpool_EN.txt	PALM	10	1	[0, 0, 0]	n/a	FR1	2	R1171M
488.194	1.0	497211	WORD_OFF	n/a	n/a	PALM	10	1	[0, 0, 0]	n/a	FR1	2	R1171M
489.194	1.616	498211	WORD	n/a	wordpools/wordpool_EN.txt	ARM	11	1	[0, 0, 0]	n/a	FR1	2	R1171M
490.81	0.933	499827	WORD_OFF	n/a	n/a	ARM	11	1	[0, 0, 0]	n/a	FR1	2	R1171M
491.743	1.602	500760	WORD	n/a	wordpools/wordpool_EN.txt	BOWL	12	1	[0, 0, 0]	n/a	FR1	2	R1171M
493.345	0.0	502362	WORD_OFF	n/a	n/a	BOWL	12	1	[0, 0, 0]	n/a	FR1	2	R1171M
493.345	0.001	502362	DISTRACT_START	n/a	n/a	n/a	-999	1	[0, 0, 0]	n/a	FR1	2	R1171M
493.346	0.016	502363	START	n/a	n/a	n/a	-999	2	[-999, -999, -999]	n/a	FR1	2	R1171M
493.362	10.735	502379	PROB	10.735	n/a	n/a	-999	2	[3, 2, 2]	7	FR1	2	R1171M
504.097	25.575	513113	PROB	25.575	n/a	n/a	-999	2	[6, 7, 8]	21	FR1	2	R1171M
529.672	0.012	538687	STOP	n/a	n/a	n/a	-999	2	[-999, -999, -999]	n/a	FR1	2	R1171M
529.684	0.701	538699	DISTRACT_END	n/a	n/a	n/a	-999	1	[0, 0, 0]	n/a	FR1	2	R1171M
530.385	0.517	539400	RETRIEVAL_ORIENT	n/a	n/a	n/a	-999	1	[0, 0, 0]	n/a	FR1	2	R1171M
530.902	2.444	539917	REC_START	n/a	n/a	n/a	-999	1	[0, 0, 0]	n/a	FR1	2	R1171M
533.346	1.089	542361	REC_WORD	1.089	n/a	BAT	1	1	[0, 0, 0]	n/a	FR1	2	R1171M
534.435	1.357	543449	REC_WORD	1.357	n/a	WHALE	2	1	[0, 0, 0]	n/a	FR1	2	R1171M
535.792	1.876	544806	REC_WORD	1.876	n/a	SINK	3	1	[0, 0, 0]	n/a	FR1	2	R1171M
537.668	5.258	546682	REC_WORD_VV	5.258	n/a	<>	-999	1	[0, 0, 0]	n/a	FR1	2	R1171M
542.926	0.997	551940	REC_WORD_VV	0.997	n/a	<>	-999	1	[0, 0, 0]	n/a	FR1	2	R1171M
543.923	1.906	552937	REC_WORD_VV	1.906	n/a	<>	-999	1	[0, 0, 0]	n/a	FR1	2	R1171M
545.829	2.356	554843	REC_WORD	2.356	n/a	ARM	11	1	[0, 0, 0]	n/a	FR1	2	R1171M
548.185	0.997	557199	REC_WORD_VV	0.997	n/a	<>	-999	1	[0, 0, 0]	n/a	FR1	2	R1171M
549.182	1.342	558196	REC_WORD_VV	1.342	n/a	<>	-999	1	[0, 0, 0]	n/a	FR1	2	R1171M
550.524	1.0	559538	REC_WORD_VV	1.0	n/a	<>	-999	1	[0, 0, 0]	n/a	FR1	2	R1171M
551.524	5.758	560537	REC_WORD_VV	5.758	n/a	<>	-999	1	[0, 0, 0]	n/a	FR1	2	R1171M
557.282	1.504	566295	REC_WORD_VV	1.504	n/a	<>	-999	1	[0, 0, 0]	n/a	FR1	2	R1171M
558.786	2.127	567799	REC_WORD_VV	2.127	n/a	<>	-999	1	[0, 0, 0]	n/a	FR1	2	R1171M
560.913	26.999	569926	REC_END	n/a	n/a	n/a	-999	1	[0, 0, 0]	n/a	FR1	2	R1171M
587.912	0.5	596923	TRIAL	n/a	n/a	n/a	-999	2	[0, 0, 0]	n/a	FR1	2	R1171M
588.412	10.428	597423	COUNTDOWN_START	n/a	n/a	n/a	-999	2	[0, 0, 0]	n/a	FR1	2	R1171M
598.84	0.008	607851	COUNTDOWN_END	n/a	n/a	n/a	-999	2	[0, 0, 0]	n/a	FR1	2	R1171M
598.848	1.617	607859	ORIENT	n/a	n/a	n/a	-999	2	[0, 0, 0]	n/a	FR1	2	R1171M
600.465	1.818	609476	ORIENT_OFF	n/a	n/a	n/a	-999	2	[0, 0, 0]	n/a	FR1	2	R1171M
602.283	1.615	611294	WORD	n/a	wordpools/wordpool_EN.txt	CAR	1	2	[0, 0, 0]	n/a	FR1	2	R1171M
603.898	0.851	612909	WORD_OFF	n/a	n/a	CAR	1	2	[0, 0, 0]	n/a	FR1	2	R1171M
604.749	1.618	613759	WORD	n/a	wordpools/wordpool_EN.txt	SPARK	2	2	[0, 0, 0]	n/a	FR1	2	R1171M
606.367	0.817	615377	WORD_OFF	n/a	n/a	SPARK	2	2	[0, 0, 0]	n/a	FR1	2	R1171M
607.184	1.616	616194	WORD	n/a	wordpools/wordpool_EN.txt	WORLD	3	2	[0, 0, 0]	n/a	FR1	2	R1171M
608.8	0.85	617810	WORD_OFF	n/a	n/a	WORLD	3	2	[0, 0, 0]	n/a	FR1	2	R1171M
609.65	1.618	618660	WORD	n/a	wordpools/wordpool_EN.txt	WHEEL	4	2	[0, 0, 0]	n/a	FR1	2	R1171M
611.268	0.8	620278	WORD_OFF	n/a	n/a	WHEEL	4	2	[0, 0, 0]	n/a	FR1	2	R1171M
612.068	1.616	621078	WORD	n/a	wordpools/wordpool_EN.txt	ICE	5	2	[0, 0, 0]	n/a	FR1	2	R1171M
613.684	0.933	622694	WORD_OFF	n/a	n/a	ICE	5	2	[0, 0, 0]	n/a	FR1	2	R1171M
614.617	1.618	623627	WORD	n/a	wordpools/wordpool_EN.txt	CLOUD	6	2	[0, 0, 0]	n/a	FR1	2	R1171M
616.235	0.901	625245	WORD_OFF	n/a	n/a	CLOUD	6	2	[0, 0, 0]	n/a	FR1	2	R1171M
617.136	1.616	626146	WORD	n/a	wordpools/wordpool_EN.txt	SMOKE	7	2	[0, 0, 0]	n/a	FR1	2	R1171M
618.752	0.866	627762	WORD_OFF	n/a	n/a	SMOKE	7	2	[0, 0, 0]	n/a	FR1	2	R1171M
619.618	1.618	628628	WORD	n/a	wordpools/wordpool_EN.txt	CONE	8	2	[0, 0, 0]	n/a	FR1	2	R1171M
621.236	0.967	630246	WORD_OFF	n/a	n/a	CONE	8	2	[0, 0, 0]	n/a	FR1	2	R1171M
622.203	1.616	631212	WORD	n/a	wordpools/wordpool_EN.txt	RAIN	9	2	[0, 0, 0]	n/a	FR1	2	R1171M
623.819	0.9	632828	WORD_OFF	n/a	n/a	RAIN	9	2	[0, 0, 0]	n/a	FR1	2	R1171M
624.719	1.618	633728	WORD	n/a	wordpools/wordpool_EN.txt	STEAM	10	2	[0, 0, 0]	n/a	FR1	2	R1171M
626.337	1.017	635346	WORD_OFF	n/a	n/a	STEAM	10	2	[0, 0, 0]	n/a	FR1	2	R1171M
627.354	1.617	636363	WORD	n/a	wordpools/wordpool_EN.txt	BOMB	11	2	[0, 0, 0]	n/a	FR1	2	R1171M
628.971	1.017	637980	WORD_OFF	n/a	n/a	BOMB	11	2	[0, 0, 0]	n/a	FR1	2	R1171M
629.988	1.616	638997	WORD	n/a	wordpools/wordpool_EN.txt	BRIDGE	12	2	[0, 0, 0]	n/a	FR1	2	R1171M
631.604	0.0	640613	WORD_OFF	n/a	n/a	BRIDGE	12	2	[0, 0, 0]	n/a	FR1	2	R1171M
631.604	0.001	640613	DISTRACT_START	n/a	n/a	n/a	-999	2	[0, 0, 0]	n/a	FR1	2	R1171M
631.605	0.016	640614	START	n/a	n/a	n/a	-999	3	[-999, -999, -999]	n/a	FR1	2	R1171M
631.621	10.018	640630	PROB	10.018	n/a	n/a	-999	3	[8, 4, 5]	17	FR1	2	R1171M
641.639	6.002	650647	PROB	6.002	n/a	n/a	-999	3	[1, 8, 3]	12	FR1	2	R1171M
647.641	4.433	656649	PROB	4.433	n/a	n/a	-999	3	[8, 2, 9]	19	FR1	2	R1171M
652.074	0.018	661082	STOP	n/a	n/a	n/a	-999	3	[-999, -999, -999]	n/a	FR1	2	R1171M
652.092	0.55	661100	DISTRACT_END	n/a	n/a	n/a	-999	2	[0, 0, 0]	n/a	FR1	2	R1171M
652.642	0.518	661650	RETRIEVAL_ORIENT	n/a	n/a	n/a	-999	2	[0, 0, 0]	n/a	FR1	2	R1171M
653.16	2.342	662168	REC_START	n/a	n/a	n/a	-999	2	[0, 0, 0]	n/a	FR1	2	R1171M
655.502	0.811	664510	REC_WORD	0.811	n/a	WHALE	-999	2	[0, 0, 0]	n/a	FR1	2	R1171M
656.313	1.17	665321	REC_WORD	1.17	n/a	SPARK	2	2	[0, 0, 0]	n/a	FR1	2	R1171M
657.483	2.459	666490	REC_WORD	2.459	n/a	BRIDGE	12	2	[0, 0, 0]	n/a	FR1	2	R1171M
659.942	14.546	668949	REC_WORD	14.546	n/a	CAR	1	2	[0, 0, 0]	n/a	FR1	2	R1171M
674.488	3.706	683495	REC_WORD_VV	3.706	n/a	<>	-999	2	[0, 0, 0]	n/a	FR1	2	R1171M
678.194	4.976	687200	REC_WORD_VV	4.976	n/a	<>	-999	2	[0, 0, 0]	n/a	FR1	2	R1171M
683.17	33.168	692176	REC_END	n/a	n/a	n/a	-999	2	[0, 0, 0]	n/a	FR1	2	R1171M
716.338	0.5	725342	TRIAL	n/a	n/a	n/a	-999	3	[0, 0, 0]	n/a	FR1	2	R1171M
716.838	10.428	725842	COUNTDOWN_START	n/a	n/a	n/a	-999	3	[0, 0, 0]	n/a	FR1	2	R1171M
727.266	0.008	736270	COUNTDOWN_END	n/a	n/a	n/a	-999	3	[0, 0, 0]	n/a	FR1	2	R1171M
727.274	1.616	736278	ORIENT	n/a	n/a	n/a	-999	3	[0, 0, 0]	n/a	FR1	2	R1171M
728.89	2.101	737893	ORIENT_OFF	n/a	n/a	n/a	-999	3	[0, 0, 0]	n/a	FR1	2	R1171M
730.991	1.616	739994	WORD	n/a	wordpools/wordpool_EN.txt	BUSH	1	3	[0, 0, 0]	n/a	FR1	2	R1171M
732.607	0.95	741610	WORD_OFF	n/a	n/a	BUSH	1	3	[0, 0, 0]	n/a	FR1	2	R1171M
733.557	1.618	742560	WORD	n/a	wordpools/wordpool_EN.txt	FRUIT	2	3	[0, 0, 0]	n/a	FR1	2	R1171M
735.175	0.934	744178	WORD_OFF	n/a	n/a	FRUIT	2	3	[0, 0, 0]	n/a	FR1	2	R1171M
736.109	1.616	745112	WORD	n/a	wordpools/wordpool_EN.txt	SPRING	3	3	[0, 0, 0]	n/a	FR1	2	R1171M
737.725	0.833	746728	WORD_OFF	n/a	n/a	SPRING	3	3	[0, 0, 0]	n/a	FR1	2	R1171M
738.558	1.618	747561	WORD	n/a	wordpools/wordpool_EN.txt	DEER	4	3	[0, 0, 0]	n/a	FR1	2	R1171M
740.176	1.0	749179	WORD_OFF	n/a	n/a	DEER	4	3	[0, 0, 0]	n/a	FR1	2	R1171M
741.176	1.616	750179	WORD	n/a	wordpools/wordpool_EN.txt	MOTH	5	3	[0, 0, 0]	n/a	FR1	2	R1171M
742.792	0.984	751795	WORD_OFF	n/a	n/a	MOTH	5	3	[0, 0, 0]	n/a	FR1	2	R1171M
743.776	1.618	752779	WORD	n/a	wordpools/wordpool_EN.txt	SWAMP	6	3	[0, 0, 0]	n/a	FR1	2	R1171M
745.394	0.817	754397	WORD_OFF	n/a	n/a	SWAMP	6	3	[0, 0, 0]	n/a	FR1	2	R1171M
746.211	1.616	755213	WORD	n/a	wordpools/wordpool_EN.txt	OAK	7	3	[0, 0, 0]	n/a	FR1	2	R1171M
747.827	0.85	756829	WORD_OFF	n/a	n/a	OAK	7	3	[0, 0, 0]	n/a	FR1	2	R1171M
748.677	1.618	757679	WORD	n/a	wordpools/wordpool_EN.txt	FOG	8	3	[0, 0, 0]	n/a	FR1	2	R1171M
750.295	0.967	759297	WORD_OFF	n/a	n/a	FOG	8	3	[0, 0, 0]	n/a	FR1	2	R1171M
751.262	1.616	760264	WORD	n/a	wordpools/wordpool_EN.txt	SNOW	9	3	[0, 0, 0]	n/a	FR1	2	R1171M
752.878	0.983	761880	WORD_OFF	n/a	n/a	SNOW	9	3	[0, 0, 0]	n/a	FR1	2	R1171M
753.861	1.617	762863	WORD	n/a	wordpools/wordpool_EN.txt	BOOT	10	3	[0, 0, 0]	n/a	FR1	2	R1171M
755.478	0.768	764480	WORD_OFF	n/a	n/a	BOOT	10	3	[0, 0, 0]	n/a	FR1	2	R1171M
756.246	1.616	765248	WORD	n/a	wordpools/wordpool_EN.txt	CUBE	11	3	[0, 0, 0]	n/a	FR1	2	R1171M
757.862	0.933	766864	WORD_OFF	n/a	n/a	CUBE	11	3	[0, 0, 0]	n/a	FR1	2	R1171M
758.795	1.618	767797	WORD	n/a	wordpools/wordpool_EN.txt	BLOOM	12	3	[0, 0, 0]	n/a	FR1	2	R1171M
760.413	0.0	769415	WORD_OFF	n/a	n/a	BLOOM	12	3	[0, 0, 0]	n/a	FR1	2	R1171M
760.413	0.001	769415	DISTRACT_START	n/a	n/a	n/a	-999	3	[0, 0, 0]	n/a	FR1	2	R1171M
760.414	0.015	769416	START	n/a	n/a	n/a	-999	4	[-999, -999, -999]	n/a	FR1	2	R1171M
760.429	4.569	769431	PROB	4.569	n/a	n/a	-999	4	[5, 2, 7]	14	FR1	2	R1171M
764.998	17.292	773999	PROB	17.292	n/a	n/a	-999	4	[1, 7, 9]	17	FR1	2	R1171M
782.29	0.011	791290	STOP	n/a	n/a	n/a	-999	4	[-999, -999, -999]	n/a	FR1	2	R1171M
782.301	0.566	791301	DISTRACT_END	n/a	n/a	n/a	-999	3	[0, 0, 0]	n/a	FR1	2	R1171M
782.867	0.518	791867	RETRIEVAL_ORIENT	n/a	n/a	n/a	-999	3	[0, 0, 0]	n/a	FR1	2	R1171M
783.385	0.351	792385	REC_START	n/a	n/a	n/a	-999	3	[0, 0, 0]	n/a	FR1	2	R1171M
783.736	3.211	792736	REC_WORD	3.211	n/a	BUSH	1	3	[0, 0, 0]	n/a	FR1	2	R1171M
786.947	1.0	795947	REC_WORD_VV	1.0	n/a	<>	-999	3	[0, 0, 0]	n/a	FR1	2	R1171M
787.947	1.932	796947	REC_WORD_VV	1.932	n/a	<>	-999	3	[0, 0, 0]	n/a	FR1	2	R1171M
789.879	1.266	798879	REC_WORD	1.266	n/a	FRUIT	2	3	[0, 0, 0]	n/a	FR1	2	R1171M
791.145	1.164	800145	REC_WORD	1.164	n/a	DEER	4	3	[0, 0, 0]	n/a	FR1	2	R1171M
792.309	9.592	801309	REC_WORD	9.592	n/a	BLOOM	12	3	[0, 0, 0]	n/a	FR1	2	R1171M
801.901	1.0	810900	REC_WORD_VV	1.0	n/a	<>	-999	3	[0, 0, 0]	n/a	FR1	2	R1171M
802.901	4.77	811900	REC_WORD_VV	4.77	n/a	<>	-999	3	[0, 0, 0]	n/a	FR1	2	R1171M
807.671	1.0	816670	REC_WORD_VV	1.0	n/a	<>	-999	3	[0, 0, 0]	n/a	FR1	2	R1171M
808.671	1.24	817670	REC_WORD_VV	1.24	n/a	<>	-999	3	[0, 0, 0]	n/a	FR1	2	R1171M
809.911	1.0	818910	REC_WORD_VV	1.0	n/a	<>	-999	3	[0, 0, 0]	n/a	FR1	2	R1171M
810.911	0.635	819910	REC_WORD_VV	0.635	n/a	<>	-999	3	[0, 0, 0]	n/a	FR1	2	R1171M
811.546	1.0	820545	REC_WORD_VV	1.0	n/a	<>	-999	3	[0, 0, 0]	n/a	FR1	2	R1171M
812.546	0.85	821545	REC_WORD_VV	0.85	n/a	<>	-999	3	[0, 0, 0]	n/a	FR1	2	R1171M
813.396	16.531	822395	REC_END	n/a	n/a	n/a	-999	3	[0, 0, 0]	n/a	FR1	2	R1171M
829.927	0.5	838925	TRIAL	n/a	n/a	n/a	-999	4	[0, 0, 0]	n/a	FR1	2	R1171M
830.427	10.428	839425	COUNTDOWN_START	n/a	n/a	n/a	-999	4	[0, 0, 0]	n/a	FR1	2	R1171M
840.855	0.006	849852	COUNTDOWN_END	n/a	n/a	n/a	-999	4	[0, 0, 0]	n/a	FR1	2	R1171M
840.861	1.617	849858	ORIENT	n/a	n/a	n/a	-999	4	[0, 0, 0]	n/a	FR1	2	R1171M
842.478	2.184	851475	ORIENT_OFF	n/a	n/a	n/a	-999	4	[0, 0, 0]	n/a	FR1	2	R1171M
844.662	1.618	853659	WORD	n/a	wordpools/wordpool_EN.txt	EEL	1	4	[0, 0, 0]	n/a	FR1	2	R1171M
846.28	0.95	855277	WORD_OFF	n/a	n/a	EEL	1	4	[0, 0, 0]	n/a	FR1	2	R1171M
847.23	1.616	856227	WORD	n/a	wordpools/wordpool_EN.txt	CALF	2	4	[0, 0, 0]	n/a	FR1	2	R1171M
848.846	0.767	857843	WORD_OFF	n/a	n/a	CALF	2	4	[0, 0, 0]	n/a	FR1	2	R1171M
849.613	1.618	858610	WORD	n/a	wordpools/wordpool_EN.txt	STEAK	3	4	[0, 0, 0]	n/a	FR1	2	R1171M
851.231	0.883	860228	WORD_OFF	n/a	n/a	STEAK	3	4	[0, 0, 0]	n/a	FR1	2	R1171M
852.114	1.616	861110	WORD	n/a	wordpools/wordpool_EN.txt	HORSE	4	4	[0, 0, 0]	n/a	FR1	2	R1171M
853.73	0.934	862726	WORD_OFF	n/a	n/a	HORSE	4	4	[0, 0, 0]	n/a	FR1	2	R1171M
854.664	1.618	863660	WORD	n/a	wordpools/wordpool_EN.txt	GEESE	5	4	[0, 0, 0]	n/a	FR1	2	R1171M
856.282	0.8	865278	WORD_OFF	n/a	n/a	GEESE	5	4	[0, 0, 0]	n/a	FR1	2	R1171M
857.082	1.616	866078	WORD	n/a	wordpools/wordpool_EN.txt	LAKE	6	4	[0, 0, 0]	n/a	FR1	2	R1171M
858.698	0.917	867694	WORD_OFF	n/a	n/a	LAKE	6	4	[0, 0, 0]	n/a	FR1	2	R1171M
859.615	1.618	868611	WORD	n/a	wordpools/wordpool_EN.txt	PRINCE	7	4	[0, 0, 0]	n/a	FR1	2	R1171M
861.233	0.933	870229	WORD_OFF	n/a	n/a	PRINCE	7	4	[0, 0, 0]	n/a	FR1	2	R1171M
862.166	1.616	871162	WORD	n/a	wordpools/wordpool_EN.txt	SEA	8	4	[0, 0, 0]	n/a	FR1	2	R1171M
863.782	0.834	872778	WORD_OFF	n/a	n/a	SEA	8	4	[0, 0, 0]	n/a	FR1	2	R1171M
864.616	1.601	873612	WORD	n/a	wordpools/wordpool_EN.txt	GOLD	9	4	[0, 0, 0]	n/a	FR1	2	R1171M
866.217	0.984	875213	WORD_OFF	n/a	n/a	GOLD	9	4	[0, 0, 0]	n/a	FR1	2	R1171M
867.201	1.616	876197	WORD	n/a	wordpools/wordpool_EN.txt	PIG	10	4	[0, 0, 0]	n/a	FR1	2	R1171M
868.817	0.983	877813	WORD_OFF	n/a	n/a	PIG	10	4	[0, 0, 0]	n/a	FR1	2	R1171M
869.8	1.601	878795	WORD	n/a	wordpools/wordpool_EN.txt	ROCK	11	4	[0, 0, 0]	n/a	FR1	2	R1171M
871.401	0.967	880396	WORD_OFF	n/a	n/a	ROCK	11	4	[0, 0, 0]	n/a	FR1	2	R1171M
872.368	1.617	881363	WORD	n/a	wordpools/wordpool_EN.txt	PARK	12	4	[0, 0, 0]	n/a	FR1	2	R1171M
873.985	0.0	882980	WORD_OFF	n/a	n/a	PARK	12	4	[0, 0, 0]	n/a	FR1	2	R1171M
873.985	0.001	882980	DISTRACT_START	n/a	n/a	n/a	-999	4	[0, 0, 0]	n/a	FR1	2	R1171M
873.986	0.016	882981	START	n/a	n/a	n/a	-999	5	[-999, -999, -999]	n/a	FR1	2	R1171M
874.002	17.303	882997	PROB	17.303	n/a	n/a	-999	5	[5, 9, 5]	19	FR1	2	R1171M
891.305	11.065	900299	PROB	11.065	n/a	n/a	-999	5	[8, 7, 4]	18	FR1	2	R1171M
902.37	0.021	911364	STOP	n/a	n/a	n/a	-999	5	[-999, -999, -999]	n/a	FR1	2	R1171M
902.391	0.7	911385	DISTRACT_END	n/a	n/a	n/a	-999	4	[0, 0, 0]	n/a	FR1	2	R1171M
903.091	0.516	912085	RETRIEVAL_ORIENT	n/a	n/a	n/a	-999	4	[0, 0, 0]	n/a	FR1	2	R1171M
903.607	1.179	912601	REC_START	n/a	n/a	n/a	-999	4	[0, 0, 0]	n/a	FR1	2	R1171M
904.786	0.998	913780	REC_WORD_VV	0.998	n/a	<>	-999	4	[0, 0, 0]	n/a	FR1	2	R1171M
905.784	8.338	914777	REC_WORD_VV	8.338	n/a	<>	-999	4	[0, 0, 0]	n/a	FR1	2	R1171M
914.122	1.125	923115	REC_WORD	1.125	n/a	EEL	1	4	[0, 0, 0]	n/a	FR1	2	R1171M
915.247	1.518	924240	REC_WORD_VV	1.518	n/a	<>	-999	4	[0, 0, 0]	n/a	FR1	2	R1171M
916.765	1.428	925758	REC_WORD	1.428	n/a	EEL	1	4	[0, 0, 0]	n/a	FR1	2	R1171M
918.193	1.574	927186	REC_WORD_VV	1.574	n/a	<>	-999	4	[0, 0, 0]	n/a	FR1	2	R1171M
919.767	1.0	928760	REC_WORD_VV	1.0	n/a	<>	-999	4	[0, 0, 0]	n/a	FR1	2	R1171M
920.767	1.658	929760	REC_WORD_VV	1.658	n/a	<>	-999	4	[0, 0, 0]	n/a	FR1	2	R1171M
922.425	0.925	931418	REC_WORD_VV	0.925	n/a	<>	-999	4	[0, 0, 0]	n/a	FR1	2	R1171M
923.35	0.998	932342	REC_WORD_VV	0.998	n/a	<>	-999	4	[0, 0, 0]	n/a	FR1	2	R1171M
924.348	9.272	933340	REC_WORD_VV	9.272	n/a	<>	-999	4	[0, 0, 0]	n/a	FR1	2	R1171M
933.62	18.179	942612	REC_END	n/a	n/a	n/a	-999	4	[0, 0, 0]	n/a	FR1	2	R1171M
951.799	0.5	960790	TRIAL	n/a	n/a	n/a	-999	5	[0, 0, 0]	n/a	FR1	2	R1171M
952.299	10.428	961290	COUNTDOWN_START	n/a	n/a	n/a	-999	5	[0, 0, 0]	n/a	FR1	2	R1171M
962.727	0.008	971717	COUNTDOWN_END	n/a	n/a	n/a	-999	5	[0, 0, 0]	n/a	FR1	2	R1171M
962.735	1.618	971725	ORIENT	n/a	n/a	n/a	-999	5	[0, 0, 0]	n/a	FR1	2	R1171M
964.353	2.067	973343	ORIENT_OFF	n/a	n/a	n/a	-999	5	[0, 0, 0]	n/a	FR1	2	R1171M
966.42	1.617	975410	WORD	n/a	wordpools/wordpool_EN.txt	CART	1	5	[0, 0, 0]	n/a	FR1	2	R1171M
968.037	0.933	977027	WORD_OFF	n/a	n/a	CART	1	5	[0, 0, 0]	n/a	FR1	2	R1171M
968.97	1.616	977960	WORD	n/a	wordpools/wordpool_EN.txt	GRAPE	2	5	[0, 0, 0]	n/a	FR1	2	R1171M
970.586	0.984	979576	WORD_OFF	n/a	n/a	GRAPE	2	5	[0, 0, 0]	n/a	FR1	2	R1171M
971.57	1.618	980560	WORD	n/a	wordpools/wordpool_EN.txt	CROW	3	5	[0, 0, 0]	n/a	FR1	2	R1171M
973.188	0.767	982178	WORD_OFF	n/a	n/a	CROW	3	5	[0, 0, 0]	n/a	FR1	2	R1171M
973.955	1.616	982945	WORD	n/a	wordpools/wordpool_EN.txt	ROAD	4	5	[0, 0, 0]	n/a	FR1	2	R1171M
975.571	0.933	984561	WORD_OFF	n/a	n/a	ROAD	4	5	[0, 0, 0]	n/a	FR1	2	R1171M
976.504	1.601	985493	WORD	n/a	wordpools/wordpool_EN.txt	CAGE	5	5	[0, 0, 0]	n/a	FR1	2	R1171M
978.105	0.967	987094	WORD_OFF	n/a	n/a	CAGE	5	5	[0, 0, 0]	n/a	FR1	2	R1171M
979.072	1.616	988061	WORD	n/a	wordpools/wordpool_EN.txt	FORT	6	5	[0, 0, 0]	n/a	FR1	2	R1171M
980.688	0.817	989677	WORD_OFF	n/a	n/a	FORT	6	5	[0, 0, 0]	n/a	FR1	2	R1171M
981.505	1.601	990494	WORD	n/a	wordpools/wordpool_EN.txt	OWL	7	5	[0, 0, 0]	n/a	FR1	2	R1171M
983.106	0.934	992095	WORD_OFF	n/a	n/a	OWL	7	5	[0, 0, 0]	n/a	FR1	2	R1171M
984.04	1.616	993029	WORD	n/a	wordpools/wordpool_EN.txt	SLIME	8	5	[0, 0, 0]	n/a	FR1	2	R1171M
985.656	0.967	994645	WORD_OFF	n/a	n/a	SLIME	8	5	[0, 0, 0]	n/a	FR1	2	R1171M
986.623	1.618	995612	WORD	n/a	wordpools/wordpool_EN.txt	DOCK	9	5	[0, 0, 0]	n/a	FR1	2	R1171M
988.241	0.983	997230	WORD_OFF	n/a	n/a	DOCK	9	5	[0, 0, 0]	n/a	FR1	2	R1171M
989.224	1.616	998213	WORD	n/a	wordpools/wordpool_EN.txt	LEG	10	5	[0, 0, 0]	n/a	FR1	2	R1171M
990.84	1.017	999829	WORD_OFF	n/a	n/a	LEG	10	5	[0, 0, 0]	n/a	FR1	2	R1171M
991.857	1.617	1000846	WORD	n/a	wordpools/wordpool_EN.txt	MAT	11	5	[0, 0, 0]	n/a	FR1	2	R1171M
993.474	0.884	1002463	WORD_OFF	n/a	n/a	MAT	11	5	[0, 0, 0]	n/a	FR1	2	R1171M
994.358	1.601	1003346	WORD	n/a	wordpools/wordpool_EN.txt	FARM	12	5	[0, 0, 0]	n/a	FR1	2	R1171M
995.959	0.0	1004947	WORD_OFF	n/a	n/a	FARM	12	5	[0, 0, 0]	n/a	FR1	2	R1171M
995.959	0.001	1004947	DISTRACT_START	n/a	n/a	n/a	-999	5	[0, 0, 0]	n/a	FR1	2	R1171M
995.96	0.016	1004948	START	n/a	n/a	n/a	-999	6	[-999, -999, -999]	n/a	FR1	2	R1171M
995.976	13.985	1004964	PROB	13.985	n/a	n/a	-999	6	[2, 2, 1]	5	FR1	2	R1171M
1009.961	4.817	1018949	PROB	4.817	n/a	n/a	-999	6	[1, 7, 6]	14	FR1	2	R1171M
1014.778	11.975	1023765	PROB	11.975	n/a	n/a	-999	6	[3, 7, 6]	16	FR1	2	R1171M
1026.753	0.011	1035740	STOP	n/a	n/a	n/a	-999	6	[-999, -999, -999]	n/a	FR1	2	R1171M
1026.764	0.635	1035751	DISTRACT_END	n/a	n/a	n/a	-999	5	[0, 0, 0]	n/a	FR1	2	R1171M
1027.399	0.516	1036386	RETRIEVAL_ORIENT	n/a	n/a	n/a	-999	5	[0, 0, 0]	n/a	FR1	2	R1171M
1027.915	0.123	1036902	REC_START	n/a	n/a	n/a	-999	5	[0, 0, 0]	n/a	FR1	2	R1171M
1028.038	1.058	1037025	REC_WORD	1.058	n/a	CROW	3	5	[0, 0, 0]	n/a	FR1	2	R1171M
1029.096	0.931	1038082	REC_WORD	0.931	n/a	ROAD	4	5	[0, 0, 0]	n/a	FR1	2	R1171M
1030.027	6.161	1039013	REC_WORD	6.161	n/a	CAGE	5	5	[0, 0, 0]	n/a	FR1	2	R1171M
1036.188	6.523	1045174	REC_WORD_VV	6.523	n/a	<>	-999	5	[0, 0, 0]	n/a	FR1	2	R1171M
1042.711	12.703	1051697	REC_WORD_VV	12.703	n/a	<>	-999	5	[0, 0, 0]	n/a	FR1	2	R1171M
1055.414	1.0	1064399	REC_WORD_VV	1.0	n/a	<>	-999	5	[0, 0, 0]	n/a	FR1	2	R1171M
1056.414	1.045	1065399	REC_WORD_VV	1.045	n/a	<>	-999	5	[0, 0, 0]	n/a	FR1	2	R1171M
1057.459	0.468	1066444	REC_WORD_VV	0.468	n/a	<>	-999	5	[0, 0, 0]	n/a	FR1	2	R1171M
1057.927	24.964	1066912	REC_END	n/a	n/a	n/a	-999	5	[0, 0, 0]	n/a	FR1	2	R1171M
1082.891	0.5	1091874	TRIAL	n/a	n/a	n/a	-999	6	[0, 0, 0]	n/a	FR1	2	R1171M
1083.391	10.428	1092374	COUNTDOWN_START	n/a	n/a	n/a	-999	6	[0, 0, 0]	n/a	FR1	2	R1171M
1093.819	0.008	1102802	COUNTDOWN_END	n/a	n/a	n/a	-999	6	[0, 0, 0]	n/a	FR1	2	R1171M
1093.827	1.617	1102810	ORIENT	n/a	n/a	n/a	-999	6	[0, 0, 0]	n/a	FR1	2	R1171M
1095.444	2.1	1104427	ORIENT_OFF	n/a	n/a	n/a	-999	6	[0, 0, 0]	n/a	FR1	2	R1171M
1097.544	1.602	1106527	WORD	n/a	wordpools/wordpool_EN.txt	GOAT	1	6	[0, 0, 0]	n/a	FR1	2	R1171M
1099.146	0.817	1108129	WORD_OFF	n/a	n/a	GOAT	1	6	[0, 0, 0]	n/a	FR1	2	R1171M
1099.963	1.615	1108945	WORD	n/a	wordpools/wordpool_EN.txt	SALT	2	6	[0, 0, 0]	n/a	FR1	2	R1171M
1101.578	1.001	1110560	WORD_OFF	n/a	n/a	SALT	2	6	[0, 0, 0]	n/a	FR1	2	R1171M
1102.579	1.601	1111561	WORD	n/a	wordpools/wordpool_EN.txt	CANE	3	6	[0, 0, 0]	n/a	FR1	2	R1171M
1104.18	0.917	1113162	WORD_OFF	n/a	n/a	CANE	3	6	[0, 0, 0]	n/a	FR1	2	R1171M
1105.097	1.616	1114079	WORD	n/a	wordpools/wordpool_EN.txt	PEACH	4	6	[0, 0, 0]	n/a	FR1	2	R1171M
1106.713	0.916	1115695	WORD_OFF	n/a	n/a	PEACH	4	6	[0, 0, 0]	n/a	FR1	2	R1171M
1107.629	1.619	1116611	WORD	n/a	wordpools/wordpool_EN.txt	MOOSE	5	6	[0, 0, 0]	n/a	FR1	2	R1171M
1109.248	0.95	1118230	WORD_OFF	n/a	n/a	MOOSE	5	6	[0, 0, 0]	n/a	FR1	2	R1171M
1110.198	1.616	1119180	WORD	n/a	wordpools/wordpool_EN.txt	STRAW	6	6	[0, 0, 0]	n/a	FR1	2	R1171M
1111.814	0.933	1120796	WORD_OFF	n/a	n/a	STRAW	6	6	[0, 0, 0]	n/a	FR1	2	R1171M
1112.747	1.601	1121729	WORD	n/a	wordpools/wordpool_EN.txt	SOUP	7	6	[0, 0, 0]	n/a	FR1	2	R1171M
1114.348	0.917	1123330	WORD_OFF	n/a	n/a	SOUP	7	6	[0, 0, 0]	n/a	FR1	2	R1171M
1115.265	1.616	1124247	WORD	n/a	wordpools/wordpool_EN.txt	CLAY	8	6	[0, 0, 0]	n/a	FR1	2	R1171M
1116.881	0.851	1125863	WORD_OFF	n/a	n/a	CLAY	8	6	[0, 0, 0]	n/a	FR1	2	R1171M
1117.732	1.618	1126713	WORD	n/a	wordpools/wordpool_EN.txt	CHIN	9	6	[0, 0, 0]	n/a	FR1	2	R1171M
1119.35	0.933	1128331	WORD_OFF	n/a	n/a	CHIN	9	6	[0, 0, 0]	n/a	FR1	2	R1171M
1120.283	1.616	1129264	WORD	n/a	wordpools/wordpool_EN.txt	STONE	10	6	[0, 0, 0]	n/a	FR1	2	R1171M
1121.899	0.834	1130880	WORD_OFF	n/a	n/a	STONE	10	6	[0, 0, 0]	n/a	FR1	2	R1171M
1122.733	1.618	1131714	WORD	n/a	wordpools/wordpool_EN.txt	SOAP	11	6	[0, 0, 0]	n/a	FR1	2	R1171M
1124.351	1.016	1133332	WORD_OFF	n/a	n/a	SOAP	11	6	[0, 0, 0]	n/a	FR1	2	R1171M
1125.367	1.617	1134348	WORD	n/a	wordpools/wordpool_EN.txt	CAKE	12	6	[0, 0, 0]	n/a	FR1	2	R1171M
1126.984	0.0	1135965	WORD_OFF	n/a	n/a	CAKE	12	6	[0, 0, 0]	n/a	FR1	2	R1171M
1126.984	0.001	1135965	DISTRACT_START	n/a	n/a	n/a	-999	6	[0, 0, 0]	n/a	FR1	2	R1171M
1126.985	0.016	1135966	START	n/a	n/a	n/a	-999	7	[-999, -999, -999]	n/a	FR1	2	R1171M
1127.001	7.018	1135982	PROB	7.018	n/a	n/a	-999	7	[2, 8, 4]	14	FR1	2	R1171M
1134.019	21.391	1143000	PROB	21.391	n/a	n/a	-999	7	[7, 8, 4]	19	FR1	2	R1171M
1155.41	0.013	1164389	STOP	n/a	n/a	n/a	-999	7	[-999, -999, -999]	n/a	FR1	2	R1171M
1155.423	0.6	1164402	DISTRACT_END	n/a	n/a	n/a	-999	6	[0, 0, 0]	n/a	FR1	2	R1171M
1156.023	0.517	1165002	RETRIEVAL_ORIENT	n/a	n/a	n/a	-999	6	[0, 0, 0]	n/a	FR1	2	R1171M
1156.54	2.956	1165519	REC_START	n/a	n/a	n/a	-999	6	[0, 0, 0]	n/a	FR1	2	R1171M
1159.496	0.847	1168475	REC_WORD	0.847	n/a	CAKE	12	6	[0, 0, 0]	n/a	FR1	2	R1171M
1160.343	1.053	1169322	REC_WORD	1.053	n/a	GOAT	1	6	[0, 0, 0]	n/a	FR1	2	R1171M
1161.396	1.0	1170375	REC_WORD_VV	1.0	n/a	<>	-999	6	[0, 0, 0]	n/a	FR1	2	R1171M
1162.396	0.95	1171375	REC_WORD_VV	0.95	n/a	<>	-999	6	[0, 0, 0]	n/a	FR1	2	R1171M
1163.346	0.79	1172325	REC_WORD_VV	0.79	n/a	<>	-999	6	[0, 0, 0]	n/a	FR1	2	R1171M
1164.136	2.828	1173115	REC_WORD_VV	2.828	n/a	<>	-999	6	[0, 0, 0]	n/a	FR1	2	R1171M
1166.964	1.0	1175943	REC_WORD_VV	1.0	n/a	<>	-999	6	[0, 0, 0]	n/a	FR1	2	R1171M
1167.964	2.441	1176943	REC_WORD_VV	2.441	n/a	<>	-999	6	[0, 0, 0]	n/a	FR1	2	R1171M
1170.405	16.145	1179384	REC_WORD_VV	16.145	n/a	<>	-999	6	[0, 0, 0]	n/a	FR1	2	R1171M
1186.55	14.164	1195528	REC_END	n/a	n/a	n/a	-999	6	[0, 0, 0]	n/a	FR1	2	R1171M
1200.714	0.5	1209691	TRIAL	n/a	n/a	n/a	-999	7	[0, 0, 0]	n/a	FR1	2	R1171M
1201.214	10.428	1210191	COUNTDOWN_START	n/a	n/a	n/a	-999	7	[0, 0, 0]	n/a	FR1	2	R1171M
1211.642	0.008	1220618	COUNTDOWN_END	n/a	n/a	n/a	-999	7	[0, 0, 0]	n/a	FR1	2	R1171M
1211.65	1.618	1220626	ORIENT	n/a	n/a	n/a	-999	7	[0, 0, 0]	n/a	FR1	2	R1171M
1213.268	2.0	1222244	ORIENT_OFF	n/a	n/a	n/a	-999	7	[0, 0, 0]	n/a	FR1	2	R1171M
1215.268	1.616	1224244	WORD	n/a	wordpools/wordpool_EN.txt	DESK	1	7	[0, 0, 0]	n/a	FR1	2	R1171M
1216.884	1.0	1225860	WORD_OFF	n/a	n/a	DESK	1	7	[0, 0, 0]	n/a	FR1	2	R1171M
1217.884	1.617	1226860	WORD	n/a	wordpools/wordpool_EN.txt	CLOWN	2	7	[0, 0, 0]	n/a	FR1	2	R1171M
1219.501	0.818	1228477	WORD_OFF	n/a	n/a	CLOWN	2	7	[0, 0, 0]	n/a	FR1	2	R1171M
1220.319	1.617	1229295	WORD	n/a	wordpools/wordpool_EN.txt	DUCK	3	7	[0, 0, 0]	n/a	FR1	2	R1171M
1221.936	0.949	1230912	WORD_OFF	n/a	n/a	DUCK	3	7	[0, 0, 0]	n/a	FR1	2	R1171M
1222.885	1.617	1231861	WORD	n/a	wordpools/wordpool_EN.txt	TOY	4	7	[0, 0, 0]	n/a	FR1	2	R1171M
1224.502	0.951	1233477	WORD_OFF	n/a	n/a	TOY	4	7	[0, 0, 0]	n/a	FR1	2	R1171M
1225.453	1.617	1234428	WORD	n/a	wordpools/wordpool_EN.txt	PASTE	5	7	[0, 0, 0]	n/a	FR1	2	R1171M
1227.07	0.816	1236045	WORD_OFF	n/a	n/a	PASTE	5	7	[0, 0, 0]	n/a	FR1	2	R1171M
1227.886	1.617	1236861	WORD	n/a	wordpools/wordpool_EN.txt	HAWK	6	7	[0, 0, 0]	n/a	FR1	2	R1171M
1229.503	0.967	1238478	WORD_OFF	n/a	n/a	HAWK	6	7	[0, 0, 0]	n/a	FR1	2	R1171M
1230.47	1.618	1239445	WORD	n/a	wordpools/wordpool_EN.txt	ROPE	7	7	[0, 0, 0]	n/a	FR1	2	R1171M
1232.088	0.934	1241063	WORD_OFF	n/a	n/a	ROPE	7	7	[0, 0, 0]	n/a	FR1	2	R1171M
1233.022	1.616	1241997	WORD	n/a	wordpools/wordpool_EN.txt	DOOR	8	7	[0, 0, 0]	n/a	FR1	2	R1171M
1234.638	0.85	1243613	WORD_OFF	n/a	n/a	DOOR	8	7	[0, 0, 0]	n/a	FR1	2	R1171M
1235.488	1.618	1244463	WORD	n/a	wordpools/wordpool_EN.txt	SMILE	9	7	[0, 0, 0]	n/a	FR1	2	R1171M
1237.106	0.85	1246081	WORD_OFF	n/a	n/a	SMILE	9	7	[0, 0, 0]	n/a	FR1	2	R1171M
1237.956	1.616	1246931	WORD	n/a	wordpools/wordpool_EN.txt	TOOTH	10	7	[0, 0, 0]	n/a	FR1	2	R1171M
1239.572	0.867	1248547	WORD_OFF	n/a	n/a	TOOTH	10	7	[0, 0, 0]	n/a	FR1	2	R1171M
1240.439	1.618	1249414	WORD	n/a	wordpools/wordpool_EN.txt	GLOVE	11	7	[0, 0, 0]	n/a	FR1	2	R1171M
1242.057	0.799	1251031	WORD_OFF	n/a	n/a	GLOVE	11	7	[0, 0, 0]	n/a	FR1	2	R1171M
1242.856	1.617	1251830	WORD	n/a	wordpools/wordpool_EN.txt	BADGE	12	7	[0, 0, 0]	n/a	FR1	2	R1171M
1244.473	0.0	1253447	WORD_OFF	n/a	n/a	BADGE	12	7	[0, 0, 0]	n/a	FR1	2	R1171M
1244.473	0.0	1253447	DISTRACT_START	n/a	n/a	n/a	-999	7	[0, 0, 0]	n/a	FR1	2	R1171M
1244.473	0.017	1253447	START	n/a	n/a	n/a	-999	8	[-999, -999, -999]	n/a	FR1	2	R1171M
1244.49	5.868	1253464	PROB	5.868	n/a	n/a	-999	8	[5, 3, 4]	12	FR1	2	R1171M
1250.358	37.116	1259332	PROB	37.116	n/a	n/a	-999	8	[5, 9, 8]	22	FR1	2	R1171M
1287.474	0.007	1296446	STOP	n/a	n/a	n/a	-999	8	[-999, -999, -999]	n/a	FR1	2	R1171M
1287.481	0.551	1296453	DISTRACT_END	n/a	n/a	n/a	-999	7	[0, 0, 0]	n/a	FR1	2	R1171M
1288.032	0.517	1297004	RETRIEVAL_ORIENT	n/a	n/a	n/a	-999	7	[0, 0, 0]	n/a	FR1	2	R1171M
1288.549	0.044	1297521	REC_START	n/a	n/a	n/a	-999	7	[0, 0, 0]	n/a	FR1	2	R1171M
1288.593	1.218	1297565	REC_WORD	1.218	n/a	ROPE	7	7	[0, 0, 0]	n/a	FR1	2	R1171M
1289.811	0.987	1298783	REC_WORD	0.987	n/a	DOOR	8	7	[0, 0, 0]	n/a	FR1	2	R1171M
1290.798	1.59	1299770	REC_WORD	1.59	n/a	SMILE	9	7	[0, 0, 0]	n/a	FR1	2	R1171M
1292.388	15.045	1301360	REC_WORD	15.045	n/a	TOOTH	10	7	[0, 0, 0]	n/a	FR1	2	R1171M
1307.433	1.0	1316404	REC_WORD_VV	1.0	n/a	<>	-999	7	[0, 0, 0]	n/a	FR1	2	R1171M
1308.433	10.126	1317404	REC_WORD_VV	10.126	n/a	<>	-999	7	[0, 0, 0]	n/a	FR1	2	R1171M
1318.559	9.247	1327529	REC_END	n/a	n/a	n/a	-999	7	[0, 0, 0]	n/a	FR1	2	R1171M
1327.806	0.5	1336776	TRIAL	n/a	n/a	n/a	-999	8	[0, 0, 0]	n/a	FR1	2	R1171M
1328.306	10.428	1337276	COUNTDOWN_START	n/a	n/a	n/a	-999	8	[0, 0, 0]	n/a	FR1	2	R1171M
1338.734	0.007	1347703	COUNTDOWN_END	n/a	n/a	n/a	-999	8	[0, 0, 0]	n/a	FR1	2	R1171M
1338.741	1.618	1347710	ORIENT	n/a	n/a	n/a	-999	8	[0, 0, 0]	n/a	FR1	2	R1171M
1340.359	2.166	1349328	ORIENT_OFF	n/a	n/a	n/a	-999	8	[0, 0, 0]	n/a	FR1	2	R1171M
1342.525	1.618	1351494	WORD	n/a	wordpools/wordpool_EN.txt	HOUSE	1	8	[0, 0, 0]	n/a	FR1	2	R1171M
1344.143	0.867	1353112	WORD_OFF	n/a	n/a	HOUSE	1	8	[0, 0, 0]	n/a	FR1	2	R1171M
1345.01	1.616	1353979	WORD	n/a	wordpools/wordpool_EN.txt	STORM	2	8	[0, 0, 0]	n/a	FR1	2	R1171M
1346.626	0.817	1355595	WORD_OFF	n/a	n/a	STORM	2	8	[0, 0, 0]	n/a	FR1	2	R1171M
1347.443	1.618	1356412	WORD	n/a	wordpools/wordpool_EN.txt	DITCH	3	8	[0, 0, 0]	n/a	FR1	2	R1171M
1349.061	0.816	1358029	WORD_OFF	n/a	n/a	DITCH	3	8	[0, 0, 0]	n/a	FR1	2	R1171M
1349.877	1.617	1358845	WORD	n/a	wordpools/wordpool_EN.txt	GRASS	4	8	[0, 0, 0]	n/a	FR1	2	R1171M
1351.494	0.851	1360462	WORD_OFF	n/a	n/a	GRASS	4	8	[0, 0, 0]	n/a	FR1	2	R1171M
1352.345	1.617	1361313	WORD	n/a	wordpools/wordpool_EN.txt	LAWN	5	8	[0, 0, 0]	n/a	FR1	2	R1171M
1353.962	1.0	1362930	WORD_OFF	n/a	n/a	LAWN	5	8	[0, 0, 0]	n/a	FR1	2	R1171M
1354.962	1.616	1363930	WORD	n/a	wordpools/wordpool_EN.txt	CRANE	6	8	[0, 0, 0]	n/a	FR1	2	R1171M
1356.578	0.9	1365546	WORD_OFF	n/a	n/a	CRANE	6	8	[0, 0, 0]	n/a	FR1	2	R1171M
1357.478	1.618	1366446	WORD	n/a	wordpools/wordpool_EN.txt	SHIP	7	8	[0, 0, 0]	n/a	FR1	2	R1171M
1359.096	0.95	1368064	WORD_OFF	n/a	n/a	SHIP	7	8	[0, 0, 0]	n/a	FR1	2	R1171M
1360.046	1.616	1369014	WORD	n/a	wordpools/wordpool_EN.txt	CAPE	8	8	[0, 0, 0]	n/a	FR1	2	R1171M
1361.662	0.9	1370630	WORD_OFF	n/a	n/a	CAPE	8	8	[0, 0, 0]	n/a	FR1	2	R1171M
1362.562	1.602	1371530	WORD	n/a	wordpools/wordpool_EN.txt	RAKE	9	8	[0, 0, 0]	n/a	FR1	2	R1171M
1364.164	0.9	1373132	WORD_OFF	n/a	n/a	RAKE	9	8	[0, 0, 0]	n/a	FR1	2	R1171M
1365.064	1.616	1374032	WORD	n/a	wordpools/wordpool_EN.txt	SHARK	10	8	[0, 0, 0]	n/a	FR1	2	R1171M
1366.68	0.9	1375647	WORD_OFF	n/a	n/a	SHARK	10	8	[0, 0, 0]	n/a	FR1	2	R1171M
1367.58	1.618	1376547	WORD	n/a	wordpools/wordpool_EN.txt	CLIFF	11	8	[0, 0, 0]	n/a	FR1	2	R1171M
1369.198	0.867	1378165	WORD_OFF	n/a	n/a	CLIFF	11	8	[0, 0, 0]	n/a	FR1	2	R1171M
1370.065	1.616	1379032	WORD	n/a	wordpools/wordpool_EN.txt	MULE	12	8	[0, 0, 0]	n/a	FR1	2	R1171M
1371.681	0.0	1380648	WORD_OFF	n/a	n/a	MULE	12	8	[0, 0, 0]	n/a	FR1	2	R1171M
1371.681	0.0	1380648	DISTRACT_START	n/a	n/a	n/a	-999	8	[0, 0, 0]	n/a	FR1	2	R1171M
1371.681	0.017	1380648	START	n/a	n/a	n/a	-999	9	[-999, -999, -999]	n/a	FR1	2	R1171M
1371.698	7.635	1380665	PROB	7.635	n/a	n/a	-999	9	[5, 1, 9]	15	FR1	2	R1171M
1379.333	6.052	1388300	PROB	6.052	n/a	n/a	-999	9	[5, 5, 8]	18	FR1	2	R1171M
1385.385	27.065	1394351	PROB	27.065	n/a	n/a	-999	9	[3, 6, 5]	14	FR1	2	R1171M
1412.45	0.022	1421415	STOP	n/a	n/a	n/a	-999	9	[-999, -999, -999]	n/a	FR1	2	R1171M
1412.472	0.685	1421437	DISTRACT_END	n/a	n/a	n/a	-999	8	[0, 0, 0]	n/a	FR1	2	R1171M
1413.157	0.516	1422122	RETRIEVAL_ORIENT	n/a	n/a	n/a	-999	8	[0, 0, 0]	n/a	FR1	2	R1171M
1413.673	2.245	1422638	REC_START	n/a	n/a	n/a	-999	8	[0, 0, 0]	n/a	FR1	2	R1171M
1415.918	1.101	1424883	REC_WORD	1.101	n/a	SHIP	7	8	[0, 0, 0]	n/a	FR1	2	R1171M
1417.019	1.482	1425984	REC_WORD	1.482	n/a	SMILE	-999	8	[0, 0, 0]	n/a	FR1	2	R1171M
1418.501	4.441	1427465	REC_WORD	4.441	n/a	DIP	-999	8	[0, 0, 0]	n/a	FR1	2	R1171M
1422.942	1.0	1431906	REC_WORD_VV	1.0	n/a	<>	-999	8	[0, 0, 0]	n/a	FR1	2	R1171M
1423.942	0.988	1432906	REC_WORD_VV	0.988	n/a	<>	-999	8	[0, 0, 0]	n/a	FR1	2	R1171M
1424.93	2.615	1433894	REC_WORD_VV	2.615	n/a	<>	-999	8	[0, 0, 0]	n/a	FR1	2	R1171M
1427.545	15.638	1436509	REC_WORD_VV	15.638	n/a	<>	-999	8	[0, 0, 0]	n/a	FR1	2	R1171M
1443.183	0.5	1452146	REC_WORD_VV	0.5	n/a	<>	-999	8	[0, 0, 0]	n/a	FR1	2	R1171M
1443.683	47.204	1452646	REC_END	n/a	n/a	n/a	-999	8	[0, 0, 0]	n/a	FR1	2	R1171M
1490.887	0.5	1499847	TRIAL	n/a	n/a	n/a	-999	9	[0, 0, 0]	n/a	FR1	2	R1171M
1491.387	10.428	1500347	COUNTDOWN_START	n/a	n/a	n/a	-999	9	[0, 0, 0]	n/a	FR1	2	R1171M
1501.815	0.008	1510775	COUNTDOWN_END	n/a	n/a	n/a	-999	9	[0, 0, 0]	n/a	FR1	2	R1171M
1501.823	1.617	1510783	ORIENT	n/a	n/a	n/a	-999	9	[0, 0, 0]	n/a	FR1	2	R1171M
1503.44	2.233	1512400	ORIENT_OFF	n/a	n/a	n/a	-999	9	[0, 0, 0]	n/a	FR1	2	R1171M
1505.673	1.602	1514633	WORD	n/a	wordpools/wordpool_EN.txt	SKUNK	1	9	[0, 0, 0]	n/a	FR1	2	R1171M
1507.275	0.783	1516234	WORD_OFF	n/a	n/a	SKUNK	1	9	[0, 0, 0]	n/a	FR1	2	R1171M
1508.058	1.616	1517017	WORD	n/a	wordpools/wordpool_EN.txt	MOUSE	2	9	[0, 0, 0]	n/a	FR1	2	R1171M
1509.674	0.984	1518633	WORD_OFF	n/a	n/a	MOUSE	2	9	[0, 0, 0]	n/a	FR1	2	R1171M
1510.658	1.618	1519617	WORD	n/a	wordpools/wordpool_EN.txt	FOX	3	9	[0, 0, 0]	n/a	FR1	2	R1171M
1512.276	0.8	1521235	WORD_OFF	n/a	n/a	FOX	3	9	[0, 0, 0]	n/a	FR1	2	R1171M
1513.076	1.616	1522035	WORD	n/a	wordpools/wordpool_EN.txt	TAIL	4	9	[0, 0, 0]	n/a	FR1	2	R1171M
1514.692	0.783	1523651	WORD_OFF	n/a	n/a	TAIL	4	9	[0, 0, 0]	n/a	FR1	2	R1171M
1515.475	1.602	1524434	WORD	n/a	wordpools/wordpool_EN.txt	HEN	5	9	[0, 0, 0]	n/a	FR1	2	R1171M
1517.077	0.866	1526036	WORD_OFF	n/a	n/a	HEN	5	9	[0, 0, 0]	n/a	FR1	2	R1171M
1517.943	1.617	1526902	WORD	n/a	wordpools/wordpool_EN.txt	BOY	6	9	[0, 0, 0]	n/a	FR1	2	R1171M
1519.56	0.834	1528519	WORD_OFF	n/a	n/a	BOY	6	9	[0, 0, 0]	n/a	FR1	2	R1171M
1520.394	1.617	1529353	WORD	n/a	wordpools/wordpool_EN.txt	WOLF	7	9	[0, 0, 0]	n/a	FR1	2	R1171M
1522.011	0.933	1530970	WORD_OFF	n/a	n/a	WOLF	7	9	[0, 0, 0]	n/a	FR1	2	R1171M
1522.944	1.617	1531903	WORD	n/a	wordpools/wordpool_EN.txt	LAMB	8	9	[0, 0, 0]	n/a	FR1	2	R1171M
1524.561	0.834	1533519	WORD_OFF	n/a	n/a	LAMB	8	9	[0, 0, 0]	n/a	FR1	2	R1171M
1525.395	1.617	1534353	WORD	n/a	wordpools/wordpool_EN.txt	KITE	9	9	[0, 0, 0]	n/a	FR1	2	R1171M
1527.012	0.766	1535970	WORD_OFF	n/a	n/a	KITE	9	9	[0, 0, 0]	n/a	FR1	2	R1171M
1527.778	1.618	1536736	WORD	n/a	wordpools/wordpool_EN.txt	BEAR	10	9	[0, 0, 0]	n/a	FR1	2	R1171M
1529.396	0.85	1538354	WORD_OFF	n/a	n/a	BEAR	10	9	[0, 0, 0]	n/a	FR1	2	R1171M
1530.246	1.616	1539204	WORD	n/a	wordpools/wordpool_EN.txt	BIRD	11	9	[0, 0, 0]	n/a	FR1	2	R1171M
1531.862	0.817	1540820	WORD_OFF	n/a	n/a	BIRD	11	9	[0, 0, 0]	n/a	FR1	2	R1171M
1532.679	1.618	1541637	WORD	n/a	wordpools/wordpool_EN.txt	BEAN	12	9	[0, 0, 0]	n/a	FR1	2	R1171M
1534.297	0.0	1543255	WORD_OFF	n/a	n/a	BEAN	12	9	[0, 0, 0]	n/a	FR1	2	R1171M
1534.297	0.0	1543255	DISTRACT_START	n/a	n/a	n/a	-999	9	[0, 0, 0]	n/a	FR1	2	R1171M
1534.297	0.016	1543255	START	n/a	n/a	n/a	-999	10	[-999, -999, -999]	n/a	FR1	2	R1171M
1534.313	5.051	1543271	PROB	5.051	n/a	n/a	-999	10	[1, 6, 5]	12	FR1	2	R1171M
1539.364	9.752	1548322	PROB	9.752	n/a	n/a	-999	10	[6, 8, 5]	19	FR1	2	R1171M
1549.116	7.279	1558073	PROB	7.279	n/a	n/a	-999	10	[8, 9, 2]	19	FR1	2	R1171M
1556.395	0.006	1565352	STOP	n/a	n/a	n/a	-999	10	[-999, -999, -999]	n/a	FR1	2	R1171M
1556.401	0.65	1565358	DISTRACT_END	n/a	n/a	n/a	-999	9	[0, 0, 0]	n/a	FR1	2	R1171M
1557.051	0.517	1566008	RETRIEVAL_ORIENT	n/a	n/a	n/a	-999	9	[0, 0, 0]	n/a	FR1	2	R1171M
1557.568	8.553	1566525	REC_START	n/a	n/a	n/a	-999	9	[0, 0, 0]	n/a	FR1	2	R1171M
1566.121	1.047	1575077	REC_WORD	1.047	n/a	MOUSE	2	9	[0, 0, 0]	n/a	FR1	2	R1171M
1567.168	3.341	1576124	REC_WORD	3.341	n/a	FOX	3	9	[0, 0, 0]	n/a	FR1	2	R1171M
1570.509	1.372	1579465	REC_WORD_VV	1.372	n/a	<>	-999	9	[0, 0, 0]	n/a	FR1	2	R1171M
1571.881	1.963	1580837	REC_WORD	1.963	n/a	HEN	5	9	[0, 0, 0]	n/a	FR1	2	R1171M
1573.844	3.742	1582800	REC_WORD	3.742	n/a	BOY	6	9	[0, 0, 0]	n/a	FR1	2	R1171M
1577.586	9.993	1586541	REC_WORD_VV	9.993	n/a	<>	-999	9	[0, 0, 0]	n/a	FR1	2	R1171M
1587.579	11.647	1596534	REC_END	n/a	n/a	n/a	-999	9	[0, 0, 0]	n/a	FR1	2	R1171M
1599.226	0.5	1608180	TRIAL	n/a	n/a	n/a	-999	10	[0, 0, 0]	n/a	FR1	2	R1171M
1599.726	10.428	1608680	COUNTDOWN_START	n/a	n/a	n/a	-999	10	[0, 0, 0]	n/a	FR1	2	R1171M
1610.154	0.007	1619108	COUNTDOWN_END	n/a	n/a	n/a	-999	10	[0, 0, 0]	n/a	FR1	2	R1171M
1610.161	1.616	1619115	ORIENT	n/a	n/a	n/a	-999	10	[0, 0, 0]	n/a	FR1	2	R1171M
1611.777	2.185	1620731	ORIENT_OFF	n/a	n/a	n/a	-999	10	[0, 0, 0]	n/a	FR1	2	R1171M
1613.962	1.616	1622915	WORD	n/a	wordpools/wordpool_EN.txt	FILM	1	10	[0, 0, 0]	n/a	FR1	2	R1171M
1615.578	1.0	1624531	WORD_OFF	n/a	n/a	FILM	1	10	[0, 0, 0]	n/a	FR1	2	R1171M
1616.578	1.618	1625531	WORD	n/a	wordpools/wordpool_EN.txt	PEARL	2	10	[0, 0, 0]	n/a	FR1	2	R1171M
1618.196	0.851	1627149	WORD_OFF	n/a	n/a	PEARL	2	10	[0, 0, 0]	n/a	FR1	2	R1171M
1619.047	1.616	1628000	WORD	n/a	wordpools/wordpool_EN.txt	BOOK	3	10	[0, 0, 0]	n/a	FR1	2	R1171M
1620.663	0.9	1629616	WORD_OFF	n/a	n/a	BOOK	3	10	[0, 0, 0]	n/a	FR1	2	R1171M
1621.563	1.618	1630516	WORD	n/a	wordpools/wordpool_EN.txt	PHONE	4	10	[0, 0, 0]	n/a	FR1	2	R1171M
1623.181	0.8	1632134	WORD_OFF	n/a	n/a	PHONE	4	10	[0, 0, 0]	n/a	FR1	2	R1171M
1623.981	1.616	1632934	WORD	n/a	wordpools/wordpool_EN.txt	MAIL	5	10	[0, 0, 0]	n/a	FR1	2	R1171M
1625.597	0.917	1634550	WORD_OFF	n/a	n/a	MAIL	5	10	[0, 0, 0]	n/a	FR1	2	R1171M
1626.514	1.618	1635467	WORD	n/a	wordpools/wordpool_EN.txt	BANK	6	10	[0, 0, 0]	n/a	FR1	2	R1171M
1628.132	0.85	1637085	WORD_OFF	n/a	n/a	BANK	6	10	[0, 0, 0]	n/a	FR1	2	R1171M
1628.982	1.616	1637935	WORD	n/a	wordpools/wordpool_EN.txt	KEY	7	10	[0, 0, 0]	n/a	FR1	2	R1171M
1630.598	0.9	1639551	WORD_OFF	n/a	n/a	KEY	7	10	[0, 0, 0]	n/a	FR1	2	R1171M
1631.498	1.601	1640450	WORD	n/a	wordpools/wordpool_EN.txt	WEED	8	10	[0, 0, 0]	n/a	FR1	2	R1171M
1633.099	1.0	1642051	WORD_OFF	n/a	n/a	WEED	8	10	[0, 0, 0]	n/a	FR1	2	R1171M
1634.099	1.616	1643051	WORD	n/a	wordpools/wordpool_EN.txt	CASH	9	10	[0, 0, 0]	n/a	FR1	2	R1171M
1635.715	0.834	1644667	WORD_OFF	n/a	n/a	CASH	9	10	[0, 0, 0]	n/a	FR1	2	R1171M
1636.549	1.618	1645501	WORD	n/a	wordpools/wordpool_EN.txt	SCHOOL	10	10	[0, 0, 0]	n/a	FR1	2	R1171M
1638.167	0.967	1647119	WORD_OFF	n/a	n/a	SCHOOL	10	10	[0, 0, 0]	n/a	FR1	2	R1171M
1639.134	1.616	1648086	WORD	n/a	wordpools/wordpool_EN.txt	JUDGE	11	10	[0, 0, 0]	n/a	FR1	2	R1171M
1640.75	0.933	1649702	WORD_OFF	n/a	n/a	JUDGE	11	10	[0, 0, 0]	n/a	FR1	2	R1171M
1641.683	1.618	1650635	WORD	n/a	wordpools/wordpool_EN.txt	INK	12	10	[0, 0, 0]	n/a	FR1	2	R1171M
1643.301	0.0	1652253	WORD_OFF	n/a	n/a	INK	12	10	[0, 0, 0]	n/a	FR1	2	R1171M
1643.301	0.001	1652253	DISTRACT_START	n/a	n/a	n/a	-999	10	[0, 0, 0]	n/a	FR1	2	R1171M
1643.302	0.016	1652254	START	n/a	n/a	n/a	-999	11	[-999, -999, -999]	n/a	FR1	2	R1171M
1643.318	4.851	1652270	PROB	4.851	n/a	n/a	-999	11	[4, 6, 4]	14	FR1	2	R1171M
1648.169	3.399	1657121	PROB	3.399	n/a	n/a	-999	11	[5, 2, 1]	8	FR1	2	R1171M
1651.568	7.803	1660519	PROB	7.803	n/a	n/a	-999	11	[5, 2, 9]	6	FR1	2	R1171M
1659.371	7.23	1668322	PROB	7.23	n/a	n/a	-999	11	[8, 3, 5]	16	FR1	2	R1171M
1666.601	0.02	1675551	STOP	n/a	n/a	n/a	-999	11	[-999, -999, -999]	n/a	FR1	2	R1171M
1666.621	0.518	1675571	DISTRACT_END	n/a	n/a	n/a	-999	10	[0, 0, 0]	n/a	FR1	2	R1171M
1667.139	0.517	1676089	RETRIEVAL_ORIENT	n/a	n/a	n/a	-999	10	[0, 0, 0]	n/a	FR1	2	R1171M
1667.656	6.652	1676606	REC_START	n/a	n/a	n/a	-999	10	[0, 0, 0]	n/a	FR1	2	R1171M
1674.308	10.678	1683258	REC_WORD	10.678	n/a	INK	12	10	[0, 0, 0]	n/a	FR1	2	R1171M
1684.986	1.744	1693935	REC_WORD	1.744	n/a	BIRD	-999	10	[0, 0, 0]	n/a	FR1	2	R1171M
1686.73	2.573	1695679	REC_WORD	2.573	n/a	MOOSE	-999	10	[0, 0, 0]	n/a	FR1	2	R1171M
1689.303	1.0	1698252	REC_WORD_VV	1.0	n/a	<>	-999	10	[0, 0, 0]	n/a	FR1	2	R1171M
1690.303	7.364	1699252	REC_WORD_VV	7.364	n/a	<>	-999	10	[0, 0, 0]	n/a	FR1	2	R1171M
1697.667	14.23	1706616	REC_END	n/a	n/a	n/a	-999	10	[0, 0, 0]	n/a	FR1	2	R1171M
1711.897	0.5	1720845	TRIAL	n/a	n/a	n/a	-999	11	[0, 0, 0]	n/a	FR1	2	R1171M
1712.397	10.428	1721345	COUNTDOWN_START	n/a	n/a	n/a	-999	11	[0, 0, 0]	n/a	FR1	2	R1171M
1722.825	0.007	1731772	COUNTDOWN_END	n/a	n/a	n/a	-999	11	[0, 0, 0]	n/a	FR1	2	R1171M
1722.832	1.617	1731779	ORIENT	n/a	n/a	n/a	-999	11	[0, 0, 0]	n/a	FR1	2	R1171M
1724.449	2.151	1733396	ORIENT_OFF	n/a	n/a	n/a	-999	11	[0, 0, 0]	n/a	FR1	2	R1171M
1726.6	1.618	1735547	WORD	n/a	wordpools/wordpool_EN.txt	FLEA	1	11	[0, 0, 0]	n/a	FR1	2	R1171M
1728.218	0.95	1737165	WORD_OFF	n/a	n/a	FLEA	1	11	[0, 0, 0]	n/a	FR1	2	R1171M
1729.168	1.616	1738115	WORD	n/a	wordpools/wordpool_EN.txt	SEED	2	11	[0, 0, 0]	n/a	FR1	2	R1171M
1730.784	0.967	1739731	WORD_OFF	n/a	n/a	SEED	2	11	[0, 0, 0]	n/a	FR1	2	R1171M
1731.751	1.618	1740698	WORD	n/a	wordpools/wordpool_EN.txt	JAR	3	11	[0, 0, 0]	n/a	FR1	2	R1171M
1733.369	0.883	1742316	WORD_OFF	n/a	n/a	JAR	3	11	[0, 0, 0]	n/a	FR1	2	R1171M
1734.252	1.616	1743199	WORD	n/a	wordpools/wordpool_EN.txt	GLASS	4	11	[0, 0, 0]	n/a	FR1	2	R1171M
1735.868	0.984	1744815	WORD_OFF	n/a	n/a	GLASS	4	11	[0, 0, 0]	n/a	FR1	2	R1171M
1736.852	1.617	1745798	WORD	n/a	wordpools/wordpool_EN.txt	SHIRT	5	11	[0, 0, 0]	n/a	FR1	2	R1171M
1738.469	0.818	1747415	WORD_OFF	n/a	n/a	SHIRT	5	11	[0, 0, 0]	n/a	FR1	2	R1171M
1739.287	1.615	1748233	WORD	n/a	wordpools/wordpool_EN.txt	STORE	6	11	[0, 0, 0]	n/a	FR1	2	R1171M
1740.902	1.017	1749848	WORD_OFF	n/a	n/a	STORE	6	11	[0, 0, 0]	n/a	FR1	2	R1171M
1741.919	1.617	1750865	WORD	n/a	wordpools/wordpool_EN.txt	PURSE	7	11	[0, 0, 0]	n/a	FR1	2	R1171M
1743.536	1.001	1752482	WORD_OFF	n/a	n/a	PURSE	7	11	[0, 0, 0]	n/a	FR1	2	R1171M
1744.537	1.617	1753483	WORD	n/a	wordpools/wordpool_EN.txt	BEAK	8	11	[0, 0, 0]	n/a	FR1	2	R1171M
1746.154	0.884	1755100	WORD_OFF	n/a	n/a	BEAK	8	11	[0, 0, 0]	n/a	FR1	2	R1171M
1747.038	1.616	1755984	WORD	n/a	wordpools/wordpool_EN.txt	STREET	9	11	[0, 0, 0]	n/a	FR1	2	R1171M
1748.654	0.933	1757600	WORD_OFF	n/a	n/a	STREET	9	11	[0, 0, 0]	n/a	FR1	2	R1171M
1749.587	1.619	1758533	WORD	n/a	wordpools/wordpool_EN.txt	THUMB	10	11	[0, 0, 0]	n/a	FR1	2	R1171M
1751.206	1.0	1760152	WORD_OFF	n/a	n/a	THUMB	10	11	[0, 0, 0]	n/a	FR1	2	R1171M
1752.206	1.616	1761152	WORD	n/a	wordpools/wordpool_EN.txt	COIN	11	11	[0, 0, 0]	n/a	FR1	2	R1171M
1753.822	0.85	1762768	WORD_OFF	n/a	n/a	COIN	11	11	[0, 0, 0]	n/a	FR1	2	R1171M
1754.672	1.618	1763617	WORD	n/a	wordpools/wordpool_EN.txt	STEM	12	11	[0, 0, 0]	n/a	FR1	2	R1171M
1756.29	0.0	1765235	WORD_OFF	n/a	n/a	STEM	12	11	[0, 0, 0]	n/a	FR1	2	R1171M
1756.29	0.0	1765235	DISTRACT_START	n/a	n/a	n/a	-999	11	[0, 0, 0]	n/a	FR1	2	R1171M
1756.29	0.016	1765235	START	n/a	n/a	n/a	-999	12	[-999, -999, -999]	n/a	FR1	2	R1171M
1756.306	9.019	1765251	PROB	9.019	n/a	n/a	-999	12	[1, 9, 4]	14	FR1	2	R1171M
1765.325	15.372	1774270	PROB	15.372	n/a	n/a	-999	12	[4, 9, 2]	15	FR1	2	R1171M
1780.697	0.013	1789641	STOP	n/a	n/a	n/a	-999	12	[-999, -999, -999]	n/a	FR1	2	R1171M
1780.71	0.618	1789654	DISTRACT_END	n/a	n/a	n/a	-999	11	[0, 0, 0]	n/a	FR1	2	R1171M
1781.328	0.517	1790272	RETRIEVAL_ORIENT	n/a	n/a	n/a	-999	11	[0, 0, 0]	n/a	FR1	2	R1171M
1781.845	0.125	1790789	REC_START	n/a	n/a	n/a	-999	11	[0, 0, 0]	n/a	FR1	2	R1171M
1781.97	1.614	1790914	REC_WORD	1.614	n/a	GLASS	4	11	[0, 0, 0]	n/a	FR1	2	R1171M
1783.584	1.447	1792528	REC_WORD	1.447	n/a	JAR	3	11	[0, 0, 0]	n/a	FR1	2	R1171M
1785.031	2.077	1793975	REC_WORD	2.077	n/a	SHIRT	5	11	[0, 0, 0]	n/a	FR1	2	R1171M
1787.108	2.652	1796052	REC_WORD	2.652	n/a	BEAK	8	11	[0, 0, 0]	n/a	FR1	2	R1171M
1789.76	2.328	1798704	REC_WORD_VV	2.328	n/a	<>	-999	11	[0, 0, 0]	n/a	FR1	2	R1171M
1792.088	0.998	1801031	REC_WORD_VV	0.998	n/a	<>	-999	11	[0, 0, 0]	n/a	FR1	2	R1171M
1793.086	1.001	1802029	REC_WORD_VV	1.001	n/a	<>	-999	11	[0, 0, 0]	n/a	FR1	2	R1171M
1794.087	2.743	1803030	REC_WORD_VV	2.743	n/a	<>	-999	11	[0, 0, 0]	n/a	FR1	2	R1171M
1796.83	1.002	1805773	REC_WORD_VV	1.002	n/a	<>	-999	11	[0, 0, 0]	n/a	FR1	2	R1171M
1797.832	1.0	1806775	REC_WORD_VV	1.0	n/a	<>	-999	11	[0, 0, 0]	n/a	FR1	2	R1171M
1798.832	5.25	1807775	REC_WORD_VV	5.25	n/a	<>	-999	11	[0, 0, 0]	n/a	FR1	2	R1171M
1804.082	1.178	1813025	REC_WORD_VV	1.178	n/a	<>	-999	11	[0, 0, 0]	n/a	FR1	2	R1171M
1805.26	1.403	1814203	REC_WORD_VV	1.403	n/a	<>	-999	11	[0, 0, 0]	n/a	FR1	2	R1171M
1806.663	5.193	1815606	REC_WORD_VV	5.193	n/a	<>	-999	11	[0, 0, 0]	n/a	FR1	2	R1171M
1811.856	11.612	1820798	REC_END	n/a	n/a	n/a	-999	11	[0, 0, 0]	n/a	FR1	2	R1171M
1823.468	0.5	1832410	TRIAL	n/a	n/a	n/a	-999	12	[0, 0, 0]	n/a	FR1	2	R1171M
1823.968	10.428	1832910	COUNTDOWN_START	n/a	n/a	n/a	-999	12	[0, 0, 0]	n/a	FR1	2	R1171M
1834.396	0.009	1843337	COUNTDOWN_END	n/a	n/a	n/a	-999	12	[0, 0, 0]	n/a	FR1	2	R1171M
1834.405	1.617	1843346	ORIENT	n/a	n/a	n/a	-999	12	[0, 0, 0]	n/a	FR1	2	R1171M
1836.022	1.917	1844963	ORIENT_OFF	n/a	n/a	n/a	-999	12	[0, 0, 0]	n/a	FR1	2	R1171M
1837.939	1.616	1846880	WORD	n/a	wordpools/wordpool_EN.txt	SNAIL	1	12	[0, 0, 0]	n/a	FR1	2	R1171M
1839.555	0.801	1848496	WORD_OFF	n/a	n/a	SNAIL	1	12	[0, 0, 0]	n/a	FR1	2	R1171M
1840.356	1.617	1849297	WORD	n/a	wordpools/wordpool_EN.txt	CLOCK	2	12	[0, 0, 0]	n/a	FR1	2	R1171M
1841.973	0.883	1850914	WORD_OFF	n/a	n/a	CLOCK	2	12	[0, 0, 0]	n/a	FR1	2	R1171M
1842.856	1.617	1851797	WORD	n/a	wordpools/wordpool_EN.txt	POLE	3	12	[0, 0, 0]	n/a	FR1	2	R1171M
1844.473	0.834	1853413	WORD_OFF	n/a	n/a	POLE	3	12	[0, 0, 0]	n/a	FR1	2	R1171M
1845.307	1.616	1854247	WORD	n/a	wordpools/wordpool_EN.txt	HOOF	4	12	[0, 0, 0]	n/a	FR1	2	R1171M
1846.923	0.8	1855863	WORD_OFF	n/a	n/a	HOOF	4	12	[0, 0, 0]	n/a	FR1	2	R1171M
1847.723	1.618	1856663	WORD	n/a	wordpools/wordpool_EN.txt	BEE	5	12	[0, 0, 0]	n/a	FR1	2	R1171M
1849.341	0.867	1858281	WORD_OFF	n/a	n/a	BEE	5	12	[0, 0, 0]	n/a	FR1	2	R1171M
1850.208	1.616	1859148	WORD	n/a	wordpools/wordpool_EN.txt	STAR	6	12	[0, 0, 0]	n/a	FR1	2	R1171M
1851.824	0.9	1860764	WORD_OFF	n/a	n/a	STAR	6	12	[0, 0, 0]	n/a	FR1	2	R1171M
1852.724	1.618	1861664	WORD	n/a	wordpools/wordpool_EN.txt	CORD	7	12	[0, 0, 0]	n/a	FR1	2	R1171M
1854.342	0.884	1863282	WORD_OFF	n/a	n/a	CORD	7	12	[0, 0, 0]	n/a	FR1	2	R1171M
1855.226	1.616	1864166	WORD	n/a	wordpools/wordpool_EN.txt	HEART	8	12	[0, 0, 0]	n/a	FR1	2	R1171M
1856.842	0.833	1865782	WORD_OFF	n/a	n/a	HEART	8	12	[0, 0, 0]	n/a	FR1	2	R1171M
1857.675	1.618	1866615	WORD	n/a	wordpools/wordpool_EN.txt	JUICE	9	12	[0, 0, 0]	n/a	FR1	2	R1171M
1859.293	0.967	1868233	WORD_OFF	n/a	n/a	JUICE	9	12	[0, 0, 0]	n/a	FR1	2	R1171M
1860.26	1.616	1869200	WORD	n/a	wordpools/wordpool_EN.txt	TOAD	10	12	[0, 0, 0]	n/a	FR1	2	R1171M
1861.876	0.883	1870815	WORD_OFF	n/a	n/a	TOAD	10	12	[0, 0, 0]	n/a	FR1	2	R1171M
1862.759	1.602	1871698	WORD	n/a	wordpools/wordpool_EN.txt	MOON	11	12	[0, 0, 0]	n/a	FR1	2	R1171M
1864.361	0.983	1873300	WORD_OFF	n/a	n/a	MOON	11	12	[0, 0, 0]	n/a	FR1	2	R1171M
1865.344	1.617	1874283	WORD	n/a	wordpools/wordpool_EN.txt	EGG	12	12	[0, 0, 0]	n/a	FR1	2	R1171M
1866.961	0.0	1875900	WORD_OFF	n/a	n/a	EGG	12	12	[0, 0, 0]	n/a	FR1	2	R1171M
1866.961	0.001	1875900	DISTRACT_START	n/a	n/a	n/a	-999	12	[0, 0, 0]	n/a	FR1	2	R1171M
1866.962	0.016	1875901	START	n/a	n/a	n/a	-999	13	[-999, -999, -999]	n/a	FR1	2	R1171M
1866.978	10.801	1875917	PROB	10.801	n/a	n/a	-999	13	[3, 8, 3]	14	FR1	2	R1171M
1877.779	15.095	1886718	PROB	15.095	n/a	n/a	-999	13	[9, 5, 9]	14	FR1	2	R1171M
1892.874	0.008	1901812	STOP	n/a	n/a	n/a	-999	13	[-999, -999, -999]	n/a	FR1	2	R1171M
1892.882	0.567	1901820	DISTRACT_END	n/a	n/a	n/a	-999	12	[0, 0, 0]	n/a	FR1	2	R1171M
1893.449	0.501	1902387	RETRIEVAL_ORIENT	n/a	n/a	n/a	-999	12	[0, 0, 0]	n/a	FR1	2	R1171M
1893.95	1.875	1902888	REC_START	n/a	n/a	n/a	-999	12	[0, 0, 0]	n/a	FR1	2	R1171M
1895.825	4.291	1904763	REC_WORD_VV	4.291	n/a	<>	-999	12	[0, 0, 0]	n/a	FR1	2	R1171M
1900.116	1.162	1909053	REC_WORD	1.162	n/a	EGG	12	12	[0, 0, 0]	n/a	FR1	2	R1171M
1901.278	1.309	1910215	REC_WORD	1.309	n/a	POLE	3	12	[0, 0, 0]	n/a	FR1	2	R1171M
1902.587	1.0	1911524	REC_WORD	1.0	n/a	SNAIL	1	12	[0, 0, 0]	n/a	FR1	2	R1171M
1903.587	1.237	1912524	REC_WORD_VV	1.237	n/a	<>	-999	12	[0, 0, 0]	n/a	FR1	2	R1171M
1904.824	2.257	1913761	REC_WORD	2.257	n/a	MOON	11	12	[0, 0, 0]	n/a	FR1	2	R1171M
1907.081	2.762	1916018	REC_WORD_VV	2.762	n/a	<>	-999	12	[0, 0, 0]	n/a	FR1	2	R1171M
1909.843	0.998	1918780	REC_WORD_VV	0.998	n/a	<>	-999	12	[0, 0, 0]	n/a	FR1	2	R1171M
1910.841	13.12	1919778	REC_WORD_VV	13.12	n/a	<>	-999	12	[0, 0, 0]	n/a	FR1	2	R1171M
1923.961	44.22	1932897	REC_END	n/a	n/a	n/a	-999	12	[0, 0, 0]	n/a	FR1	2	R1171M
1968.181	0.5	1977114	TRIAL	n/a	n/a	n/a	-999	13	[0, 0, 0]	n/a	FR1	2	R1171M
1968.681	10.428	1977614	COUNTDOWN_START	n/a	n/a	n/a	-999	13	[0, 0, 0]	n/a	FR1	2	R1171M
1979.109	0.007	1988042	COUNTDOWN_END	n/a	n/a	n/a	-999	13	[0, 0, 0]	n/a	FR1	2	R1171M
1979.116	1.616	1988049	ORIENT	n/a	n/a	n/a	-999	13	[0, 0, 0]	n/a	FR1	2	R1171M
1980.732	2.184	1989665	ORIENT_OFF	n/a	n/a	n/a	-999	13	[0, 0, 0]	n/a	FR1	2	R1171M
1982.916	1.617	1991849	WORD	n/a	wordpools/wordpool_EN.txt	ROSE	1	13	[0, 0, 0]	n/a	FR1	2	R1171M
1984.533	0.785	1993466	WORD_OFF	n/a	n/a	ROSE	1	13	[0, 0, 0]	n/a	FR1	2	R1171M
1985.318	1.617	1994250	WORD	n/a	wordpools/wordpool_EN.txt	PANTS	2	13	[0, 0, 0]	n/a	FR1	2	R1171M
1986.935	0.965	1995867	WORD_OFF	n/a	n/a	PANTS	2	13	[0, 0, 0]	n/a	FR1	2	R1171M
1987.9	1.617	1996832	WORD	n/a	wordpools/wordpool_EN.txt	HAT	3	13	[0, 0, 0]	n/a	FR1	2	R1171M
1989.517	0.835	1998449	WORD_OFF	n/a	n/a	HAT	3	13	[0, 0, 0]	n/a	FR1	2	R1171M
1990.352	1.617	1999284	WORD	n/a	wordpools/wordpool_EN.txt	BARN	4	13	[0, 0, 0]	n/a	FR1	2	R1171M
1991.969	0.832	2000901	WORD_OFF	n/a	n/a	BARN	4	13	[0, 0, 0]	n/a	FR1	2	R1171M
1992.801	1.602	2001733	WORD	n/a	wordpools/wordpool_EN.txt	FENCE	5	13	[0, 0, 0]	n/a	FR1	2	R1171M
1994.403	0.816	2003335	WORD_OFF	n/a	n/a	FENCE	5	13	[0, 0, 0]	n/a	FR1	2	R1171M
1995.219	1.616	2004151	WORD	n/a	wordpools/wordpool_EN.txt	STOOL	6	13	[0, 0, 0]	n/a	FR1	2	R1171M
1996.835	0.917	2005767	WORD_OFF	n/a	n/a	STOOL	6	13	[0, 0, 0]	n/a	FR1	2	R1171M
1997.752	1.618	2006684	WORD	n/a	wordpools/wordpool_EN.txt	RAT	7	13	[0, 0, 0]	n/a	FR1	2	R1171M
1999.37	0.917	2008302	WORD_OFF	n/a	n/a	RAT	7	13	[0, 0, 0]	n/a	FR1	2	R1171M
2000.287	1.616	2009219	WORD	n/a	wordpools/wordpool_EN.txt	ELF	8	13	[0, 0, 0]	n/a	FR1	2	R1171M
2001.903	0.8	2010835	WORD_OFF	n/a	n/a	ELF	8	13	[0, 0, 0]	n/a	FR1	2	R1171M
2002.703	1.618	2011634	WORD	n/a	wordpools/wordpool_EN.txt	HORN	9	13	[0, 0, 0]	n/a	FR1	2	R1171M
2004.321	0.851	2013252	WORD_OFF	n/a	n/a	HORN	9	13	[0, 0, 0]	n/a	FR1	2	R1171M
2005.172	1.616	2014103	WORD	n/a	wordpools/wordpool_EN.txt	PET	10	13	[0, 0, 0]	n/a	FR1	2	R1171M
2006.788	0.833	2015719	WORD_OFF	n/a	n/a	PET	10	13	[0, 0, 0]	n/a	FR1	2	R1171M
2007.621	1.618	2016552	WORD	n/a	wordpools/wordpool_EN.txt	EAR	11	13	[0, 0, 0]	n/a	FR1	2	R1171M
2009.239	0.833	2018170	WORD_OFF	n/a	n/a	EAR	11	13	[0, 0, 0]	n/a	FR1	2	R1171M
2010.072	1.616	2019003	WORD	n/a	wordpools/wordpool_EN.txt	FUR	12	13	[0, 0, 0]	n/a	FR1	2	R1171M
2011.688	0.0	2020619	WORD_OFF	n/a	n/a	FUR	12	13	[0, 0, 0]	n/a	FR1	2	R1171M
2011.688	0.001	2020619	DISTRACT_START	n/a	n/a	n/a	-999	13	[0, 0, 0]	n/a	FR1	2	R1171M
2011.689	0.016	2020620	START	n/a	n/a	n/a	-999	14	[-999, -999, -999]	n/a	FR1	2	R1171M
2011.705	8.486	2020636	PROB	8.486	n/a	n/a	-999	14	[7, 2, 9]	20	FR1	2	R1171M
2020.191	4.583	2029121	PROB	4.583	n/a	n/a	-999	14	[8, 5, 5]	18	FR1	2	R1171M
2024.774	7.659	2033704	PROB	7.659	n/a	n/a	-999	14	[7, 8, 6]	21	FR1	2	R1171M
2032.433	0.009	2041363	STOP	n/a	n/a	n/a	-999	14	[-999, -999, -999]	n/a	FR1	2	R1171M
2032.442	0.568	2041372	DISTRACT_END	n/a	n/a	n/a	-999	13	[0, 0, 0]	n/a	FR1	2	R1171M
2033.01	0.517	2041940	RETRIEVAL_ORIENT	n/a	n/a	n/a	-999	13	[0, 0, 0]	n/a	FR1	2	R1171M
2033.527	0.641	2042457	REC_START	n/a	n/a	n/a	-999	13	[0, 0, 0]	n/a	FR1	2	R1171M
2034.168	0.984	2043098	REC_WORD	0.984	n/a	ROSE	1	13	[0, 0, 0]	n/a	FR1	2	R1171M
2035.152	0.663	2044082	REC_WORD	0.663	n/a	PET	10	13	[0, 0, 0]	n/a	FR1	2	R1171M
2035.815	1.11	2044745	REC_WORD	1.11	n/a	PANTS	2	13	[0, 0, 0]	n/a	FR1	2	R1171M
2036.925	1.027	2045855	REC_WORD	1.027	n/a	HAT	3	13	[0, 0, 0]	n/a	FR1	2	R1171M
2037.952	2.392	2046881	REC_WORD	2.392	n/a	FUR	12	13	[0, 0, 0]	n/a	FR1	2	R1171M
2040.344	1.0	2049273	REC_WORD_VV	1.0	n/a	<>	-999	13	[0, 0, 0]	n/a	FR1	2	R1171M
2041.344	15.042	2050273	REC_WORD_VV	15.042	n/a	<>	-999	13	[0, 0, 0]	n/a	FR1	2	R1171M
2056.386	1.903	2065314	REC_WORD_VV	1.903	n/a	<>	-999	13	[0, 0, 0]	n/a	FR1	2	R1171M
2058.289	5.25	2067217	REC_WORD_VV	5.25	n/a	<>	-999	13	[0, 0, 0]	n/a	FR1	2	R1171M
2063.539	3.778	2072467	REC_END	n/a	n/a	n/a	-999	13	[0, 0, 0]	n/a	FR1	2	R1171M
2067.317	0.5	2076245	TRIAL	n/a	n/a	n/a	-999	14	[0, 0, 0]	n/a	FR1	2	R1171M
2067.817	10.428	2076745	COUNTDOWN_START	n/a	n/a	n/a	-999	14	[0, 0, 0]	n/a	FR1	2	R1171M
2078.245	0.007	2087172	COUNTDOWN_END	n/a	n/a	n/a	-999	14	[0, 0, 0]	n/a	FR1	2	R1171M
2078.252	1.616	2087179	ORIENT	n/a	n/a	n/a	-999	14	[0, 0, 0]	n/a	FR1	2	R1171M
2079.868	1.951	2088795	ORIENT_OFF	n/a	n/a	n/a	-999	14	[0, 0, 0]	n/a	FR1	2	R1171M
2081.819	1.617	2090746	WORD	n/a	wordpools/wordpool_EN.txt	BAND	1	14	[0, 0, 0]	n/a	FR1	2	R1171M
2083.436	0.951	2092363	WORD_OFF	n/a	n/a	BAND	1	14	[0, 0, 0]	n/a	FR1	2	R1171M
2084.387	1.617	2093314	WORD	n/a	wordpools/wordpool_EN.txt	PLANT	2	14	[0, 0, 0]	n/a	FR1	2	R1171M
2086.004	0.967	2094931	WORD_OFF	n/a	n/a	PLANT	2	14	[0, 0, 0]	n/a	FR1	2	R1171M
2086.971	1.616	2095898	WORD	n/a	wordpools/wordpool_EN.txt	SLUSH	3	14	[0, 0, 0]	n/a	FR1	2	R1171M
2088.587	0.801	2097514	WORD_OFF	n/a	n/a	SLUSH	3	14	[0, 0, 0]	n/a	FR1	2	R1171M
2089.388	1.617	2098315	WORD	n/a	wordpools/wordpool_EN.txt	JAIL	4	14	[0, 0, 0]	n/a	FR1	2	R1171M
2091.005	0.832	2099931	WORD_OFF	n/a	n/a	JAIL	4	14	[0, 0, 0]	n/a	FR1	2	R1171M
2091.837	1.617	2100763	WORD	n/a	wordpools/wordpool_EN.txt	BREAD	5	14	[0, 0, 0]	n/a	FR1	2	R1171M
2093.454	0.968	2102380	WORD_OFF	n/a	n/a	BREAD	5	14	[0, 0, 0]	n/a	FR1	2	R1171M
2094.422	1.617	2103348	WORD	n/a	wordpools/wordpool_EN.txt	CORN	6	14	[0, 0, 0]	n/a	FR1	2	R1171M
2096.039	0.967	2104965	WORD_OFF	n/a	n/a	CORN	6	14	[0, 0, 0]	n/a	FR1	2	R1171M
2097.006	1.616	2105932	WORD	n/a	wordpools/wordpool_EN.txt	TRASH	7	14	[0, 0, 0]	n/a	FR1	2	R1171M
2098.622	0.967	2107548	WORD_OFF	n/a	n/a	TRASH	7	14	[0, 0, 0]	n/a	FR1	2	R1171M
2099.589	1.618	2108515	WORD	n/a	wordpools/wordpool_EN.txt	CAT	8	14	[0, 0, 0]	n/a	FR1	2	R1171M
2101.207	0.867	2110133	WORD_OFF	n/a	n/a	CAT	8	14	[0, 0, 0]	n/a	FR1	2	R1171M
2102.074	1.616	2111000	WORD	n/a	wordpools/wordpool_EN.txt	DOG	9	14	[0, 0, 0]	n/a	FR1	2	R1171M
2103.69	0.916	2112616	WORD_OFF	n/a	n/a	DOG	9	14	[0, 0, 0]	n/a	FR1	2	R1171M
2104.606	1.618	2113532	WORD	n/a	wordpools/wordpool_EN.txt	MAP	10	14	[0, 0, 0]	n/a	FR1	2	R1171M
2106.224	0.834	2115150	WORD_OFF	n/a	n/a	MAP	10	14	[0, 0, 0]	n/a	FR1	2	R1171M
2107.058	1.616	2115984	WORD	n/a	wordpools/wordpool_EN.txt	LAND	11	14	[0, 0, 0]	n/a	FR1	2	R1171M
2108.674	0.8	2117599	WORD_OFF	n/a	n/a	LAND	11	14	[0, 0, 0]	n/a	FR1	2	R1171M
2109.474	1.618	2118399	WORD	n/a	wordpools/wordpool_EN.txt	SKI	12	14	[0, 0, 0]	n/a	FR1	2	R1171M
2111.092	0.0	2120017	WORD_OFF	n/a	n/a	SKI	12	14	[0, 0, 0]	n/a	FR1	2	R1171M
2111.092	0.001	2120017	DISTRACT_START	n/a	n/a	n/a	-999	14	[0, 0, 0]	n/a	FR1	2	R1171M
2111.093	0.016	2120018	START	n/a	n/a	n/a	-999	15	[-999, -999, -999]	n/a	FR1	2	R1171M
2111.109	15.936	2120034	PROB	15.936	n/a	n/a	-999	15	[3, 7, 1]	11	FR1	2	R1171M
2127.045	10.563	2135969	PROB	10.563	n/a	n/a	-999	15	[3, 3, 9]	15	FR1	2	R1171M
2137.608	0.022	2146532	STOP	n/a	n/a	n/a	-999	15	[-999, -999, -999]	n/a	FR1	2	R1171M
2137.63	0.651	2146554	DISTRACT_END	n/a	n/a	n/a	-999	14	[0, 0, 0]	n/a	FR1	2	R1171M
2138.281	0.516	2147205	RETRIEVAL_ORIENT	n/a	n/a	n/a	-999	14	[0, 0, 0]	n/a	FR1	2	R1171M
2138.797	0.933	2147721	REC_START	n/a	n/a	n/a	-999	14	[0, 0, 0]	n/a	FR1	2	R1171M
2139.73	0.735	2148654	REC_WORD	0.735	n/a	LAND	11	14	[0, 0, 0]	n/a	FR1	2	R1171M
2140.465	1.017	2149389	REC_WORD	1.017	n/a	SKI	12	14	[0, 0, 0]	n/a	FR1	2	R1171M
2141.482	1.421	2150406	REC_WORD	1.421	n/a	SLUSH	3	14	[0, 0, 0]	n/a	FR1	2	R1171M
2142.903	1.572	2151827	REC_WORD_VV	1.572	n/a	<>	-999	14	[0, 0, 0]	n/a	FR1	2	R1171M
2144.475	1.384	2153398	REC_WORD_VV	1.384	n/a	<>	-999	14	[0, 0, 0]	n/a	FR1	2	R1171M
2145.859	1.0	2154782	REC_WORD_VV	1.0	n/a	<>	-999	14	[0, 0, 0]	n/a	FR1	2	R1171M
2146.859	1.04	2155782	REC_WORD_VV	1.04	n/a	<>	-999	14	[0, 0, 0]	n/a	FR1	2	R1171M
2147.899	1.151	2156822	REC_WORD_VV	1.151	n/a	<>	-999	14	[0, 0, 0]	n/a	FR1	2	R1171M
2149.05	1.001	2157973	REC_WORD_VV	1.001	n/a	<>	-999	14	[0, 0, 0]	n/a	FR1	2	R1171M
2150.051	2.455	2158974	REC_WORD_VV	2.455	n/a	<>	-999	14	[0, 0, 0]	n/a	FR1	2	R1171M
2152.506	1.0	2161429	REC_WORD_VV	1.0	n/a	<>	-999	14	[0, 0, 0]	n/a	FR1	2	R1171M
2153.506	15.302	2162429	REC_WORD_VV	15.302	n/a	<>	-999	14	[0, 0, 0]	n/a	FR1	2	R1171M
2168.808	4.496	2177730	REC_END	n/a	n/a	n/a	-999	14	[0, 0, 0]	n/a	FR1	2	R1171M
2173.304	0.5	2182226	TRIAL	n/a	n/a	n/a	-999	15	[0, 0, 0]	n/a	FR1	2	R1171M
2173.804	10.428	2182726	COUNTDOWN_START	n/a	n/a	n/a	-999	15	[0, 0, 0]	n/a	FR1	2	R1171M
2184.232	0.008	2193153	COUNTDOWN_END	n/a	n/a	n/a	-999	15	[0, 0, 0]	n/a	FR1	2	R1171M
2184.24	1.616	2193161	ORIENT	n/a	n/a	n/a	-999	15	[0, 0, 0]	n/a	FR1	2	R1171M
2185.856	2.067	2194777	ORIENT_OFF	n/a	n/a	n/a	-999	15	[0, 0, 0]	n/a	FR1	2	R1171M
2187.923	1.617	2196844	WORD	n/a	wordpools/wordpool_EN.txt	FOAM	1	15	[0, 0, 0]	n/a	FR1	2	R1171M
2189.54	0.817	2198461	WORD_OFF	n/a	n/a	FOAM	1	15	[0, 0, 0]	n/a	FR1	2	R1171M
2190.357	1.617	2199278	WORD	n/a	wordpools/wordpool_EN.txt	FISH	2	15	[0, 0, 0]	n/a	FR1	2	R1171M
2191.974	0.883	2200895	WORD_OFF	n/a	n/a	FISH	2	15	[0, 0, 0]	n/a	FR1	2	R1171M
2192.857	1.617	2201778	WORD	n/a	wordpools/wordpool_EN.txt	FLAG	3	15	[0, 0, 0]	n/a	FR1	2	R1171M
2194.474	0.868	2203395	WORD_OFF	n/a	n/a	FLAG	3	15	[0, 0, 0]	n/a	FR1	2	R1171M
2195.342	1.617	2204263	WORD	n/a	wordpools/wordpool_EN.txt	WING	4	15	[0, 0, 0]	n/a	FR1	2	R1171M
2196.959	0.849	2205879	WORD_OFF	n/a	n/a	WING	4	15	[0, 0, 0]	n/a	FR1	2	R1171M
2197.808	1.618	2206728	WORD	n/a	wordpools/wordpool_EN.txt	SAIL	5	15	[0, 0, 0]	n/a	FR1	2	R1171M
2199.426	0.983	2208346	WORD_OFF	n/a	n/a	SAIL	5	15	[0, 0, 0]	n/a	FR1	2	R1171M
2200.409	1.617	2209329	WORD	n/a	wordpools/wordpool_EN.txt	SUN	6	15	[0, 0, 0]	n/a	FR1	2	R1171M
2202.026	0.901	2210946	WORD_OFF	n/a	n/a	SUN	6	15	[0, 0, 0]	n/a	FR1	2	R1171M
2202.927	1.616	2211847	WORD	n/a	wordpools/wordpool_EN.txt	SKY	7	15	[0, 0, 0]	n/a	FR1	2	R1171M
2204.543	0.966	2213463	WORD_OFF	n/a	n/a	SKY	7	15	[0, 0, 0]	n/a	FR1	2	R1171M
2205.509	1.618	2214429	WORD	n/a	wordpools/wordpool_EN.txt	TANK	8	15	[0, 0, 0]	n/a	FR1	2	R1171M
2207.127	0.766	2216047	WORD_OFF	n/a	n/a	TANK	8	15	[0, 0, 0]	n/a	FR1	2	R1171M
2207.893	1.617	2216813	WORD	n/a	wordpools/wordpool_EN.txt	DART	9	15	[0, 0, 0]	n/a	FR1	2	R1171M
2209.51	0.835	2218430	WORD_OFF	n/a	n/a	DART	9	15	[0, 0, 0]	n/a	FR1	2	R1171M
2210.345	1.617	2219265	WORD	n/a	wordpools/wordpool_EN.txt	SHRIMP	10	15	[0, 0, 0]	n/a	FR1	2	R1171M
2211.962	0.799	2220882	WORD_OFF	n/a	n/a	SHRIMP	10	15	[0, 0, 0]	n/a	FR1	2	R1171M
2212.761	1.618	2221681	WORD	n/a	wordpools/wordpool_EN.txt	BEACH	11	15	[0, 0, 0]	n/a	FR1	2	R1171M
2214.379	0.916	2223299	WORD_OFF	n/a	n/a	BEACH	11	15	[0, 0, 0]	n/a	FR1	2	R1171M
2215.295	1.617	2224214	WORD	n/a	wordpools/wordpool_EN.txt	BOAT	12	15	[0, 0, 0]	n/a	FR1	2	R1171M
2216.912	0.0	2225831	WORD_OFF	n/a	n/a	BOAT	12	15	[0, 0, 0]	n/a	FR1	2	R1171M
2216.912	0.0	2225831	DISTRACT_START	n/a	n/a	n/a	-999	15	[0, 0, 0]	n/a	FR1	2	R1171M
2216.912	0.017	2225831	START	n/a	n/a	n/a	-999	16	[-999, -999, -999]	n/a	FR1	2	R1171M
2216.929	5.118	2225848	PROB	5.118	n/a	n/a	-999	16	[8, 6, 2]	16	FR1	2	R1171M
2222.047	5.533	2230966	PROB	5.533	n/a	n/a	-999	16	[5, 8, 6]	19	FR1	2	R1171M
2227.58	4.569	2236499	PROB	4.569	n/a	n/a	-999	16	[4, 9, 3]	16	FR1	2	R1171M
2232.149	3.316	2241068	PROB	3.316	n/a	n/a	-999	16	[5, 1, 4]	29	FR1	2	R1171M
2235.465	4.873	2244383	PROB	4.873	n/a	n/a	-999	16	[4, 9, 1]	14	FR1	2	R1171M
2240.338	0.012	2249256	STOP	n/a	n/a	n/a	-999	16	[-999, -999, -999]	n/a	FR1	2	R1171M
2240.35	0.533	2249268	DISTRACT_END	n/a	n/a	n/a	-999	15	[0, 0, 0]	n/a	FR1	2	R1171M
2240.883	0.518	2249801	RETRIEVAL_ORIENT	n/a	n/a	n/a	-999	15	[0, 0, 0]	n/a	FR1	2	R1171M
2241.401	0.447	2250319	REC_START	n/a	n/a	n/a	-999	15	[0, 0, 0]	n/a	FR1	2	R1171M
2241.848	1.0	2250766	REC_WORD	1.0	n/a	SAIL	5	15	[0, 0, 0]	n/a	FR1	2	R1171M
2242.848	0.608	2251766	REC_WORD_VV	0.608	n/a	<>	-999	15	[0, 0, 0]	n/a	FR1	2	R1171M
2243.456	1.502	2252374	REC_WORD	1.502	n/a	BEACH	11	15	[0, 0, 0]	n/a	FR1	2	R1171M
2244.958	0.387	2253876	REC_WORD_VV	0.387	n/a	<>	-999	15	[0, 0, 0]	n/a	FR1	2	R1171M
2245.345	0.999	2254263	REC_WORD_VV	0.999	n/a	<>	-999	15	[0, 0, 0]	n/a	FR1	2	R1171M
2246.344	0.999	2255262	REC_WORD_VV	0.999	n/a	<>	-999	15	[0, 0, 0]	n/a	FR1	2	R1171M
2247.343	1.611	2256261	REC_WORD_VV	1.611	n/a	<>	-999	15	[0, 0, 0]	n/a	FR1	2	R1171M
2248.954	1.274	2257872	REC_WORD_VV	1.274	n/a	<>	-999	15	[0, 0, 0]	n/a	FR1	2	R1171M
2250.228	1.0	2259145	REC_WORD_VV	1.0	n/a	<>	-999	15	[0, 0, 0]	n/a	FR1	2	R1171M
2251.228	1.0	2260145	REC_WORD_VV	1.0	n/a	<>	-999	15	[0, 0, 0]	n/a	FR1	2	R1171M
2252.228	6.674	2261145	REC_WORD_VV	6.674	n/a	<>	-999	15	[0, 0, 0]	n/a	FR1	2	R1171M
2258.902	1.0	2267819	REC_WORD_VV	1.0	n/a	<>	-999	15	[0, 0, 0]	n/a	FR1	2	R1171M
2259.902	1.645	2268819	REC_WORD_VV	1.645	n/a	<>	-999	15	[0, 0, 0]	n/a	FR1	2	R1171M
2261.547	3.441	2270464	REC_WORD_VV	3.441	n/a	<>	-999	15	[0, 0, 0]	n/a	FR1	2	R1171M
2264.988	0.999	2273905	REC_WORD_VV	0.999	n/a	<>	-999	15	[0, 0, 0]	n/a	FR1	2	R1171M
2265.987	5.427	2274904	REC_WORD_VV	5.427	n/a	<>	-999	15	[0, 0, 0]	n/a	FR1	2	R1171M
2271.414	4.242	2280330	REC_END	n/a	n/a	n/a	-999	15	[0, 0, 0]	n/a	FR1	2	R1171M
2275.656	0.5	2284572	TRIAL	n/a	n/a	n/a	-999	16	[0, 0, 0]	n/a	FR1	2	R1171M
2276.156	10.428	2285072	COUNTDOWN_START	n/a	n/a	n/a	-999	16	[0, 0, 0]	n/a	FR1	2	R1171M
2286.584	0.008	2295499	COUNTDOWN_END	n/a	n/a	n/a	-999	16	[0, 0, 0]	n/a	FR1	2	R1171M
2286.592	1.618	2295507	ORIENT	n/a	n/a	n/a	-999	16	[0, 0, 0]	n/a	FR1	2	R1171M
2288.21	2.15	2297125	ORIENT_OFF	n/a	n/a	n/a	-999	16	[0, 0, 0]	n/a	FR1	2	R1171M
2290.36	1.617	2299275	WORD	n/a	wordpools/wordpool_EN.txt	COUCH	1	16	[0, 0, 0]	n/a	FR1	2	R1171M
2291.977	0.849	2300892	WORD_OFF	n/a	n/a	COUCH	1	16	[0, 0, 0]	n/a	FR1	2	R1171M
2292.826	1.617	2301741	WORD	n/a	wordpools/wordpool_EN.txt	PEA	2	16	[0, 0, 0]	n/a	FR1	2	R1171M
2294.443	1.017	2303358	WORD_OFF	n/a	n/a	PEA	2	16	[0, 0, 0]	n/a	FR1	2	R1171M
2295.46	1.618	2304375	WORD	n/a	wordpools/wordpool_EN.txt	LAMP	3	16	[0, 0, 0]	n/a	FR1	2	R1171M
2297.078	0.967	2305993	WORD_OFF	n/a	n/a	LAMP	3	16	[0, 0, 0]	n/a	FR1	2	R1171M
2298.045	1.616	2306960	WORD	n/a	wordpools/wordpool_EN.txt	RICE	4	16	[0, 0, 0]	n/a	FR1	2	R1171M
2299.661	0.917	2308576	WORD_OFF	n/a	n/a	RICE	4	16	[0, 0, 0]	n/a	FR1	2	R1171M
2300.578	1.601	2309493	WORD	n/a	wordpools/wordpool_EN.txt	TOE	5	16	[0, 0, 0]	n/a	FR1	2	R1171M
2302.179	0.934	2311094	WORD_OFF	n/a	n/a	TOE	5	16	[0, 0, 0]	n/a	FR1	2	R1171M
2303.113	1.616	2312027	WORD	n/a	wordpools/wordpool_EN.txt	TEA	6	16	[0, 0, 0]	n/a	FR1	2	R1171M
2304.729	0.983	2313643	WORD_OFF	n/a	n/a	TEA	6	16	[0, 0, 0]	n/a	FR1	2	R1171M
2305.712	1.601	2314626	WORD	n/a	wordpools/wordpool_EN.txt	DIME	7	16	[0, 0, 0]	n/a	FR1	2	R1171M
2307.313	0.867	2316227	WORD_OFF	n/a	n/a	DIME	7	16	[0, 0, 0]	n/a	FR1	2	R1171M
2308.18	1.616	2317094	WORD	n/a	wordpools/wordpool_EN.txt	TIE	8	16	[0, 0, 0]	n/a	FR1	2	R1171M
2309.796	0.801	2318710	WORD_OFF	n/a	n/a	TIE	8	16	[0, 0, 0]	n/a	FR1	2	R1171M
2310.597	1.617	2319511	WORD	n/a	wordpools/wordpool_EN.txt	WALL	9	16	[0, 0, 0]	n/a	FR1	2	R1171M
2312.214	0.984	2321128	WORD_OFF	n/a	n/a	WALL	9	16	[0, 0, 0]	n/a	FR1	2	R1171M
2313.198	1.616	2322112	WORD	n/a	wordpools/wordpool_EN.txt	LIP	10	16	[0, 0, 0]	n/a	FR1	2	R1171M
2314.814	0.817	2323728	WORD_OFF	n/a	n/a	LIP	10	16	[0, 0, 0]	n/a	FR1	2	R1171M
2315.631	1.618	2324545	WORD	n/a	wordpools/wordpool_EN.txt	MOUTH	11	16	[0, 0, 0]	n/a	FR1	2	R1171M
2317.249	0.967	2326163	WORD_OFF	n/a	n/a	MOUTH	11	16	[0, 0, 0]	n/a	FR1	2	R1171M
2318.216	1.616	2327130	WORD	n/a	wordpools/wordpool_EN.txt	FLOOR	12	16	[0, 0, 0]	n/a	FR1	2	R1171M
2319.832	0.0	2328746	WORD_OFF	n/a	n/a	FLOOR	12	16	[0, 0, 0]	n/a	FR1	2	R1171M
2319.832	0.0	2328746	DISTRACT_START	n/a	n/a	n/a	-999	16	[0, 0, 0]	n/a	FR1	2	R1171M
2319.832	0.016	2328746	START	n/a	n/a	n/a	-999	17	[-999, -999, -999]	n/a	FR1	2	R1171M
2319.848	23.857	2328762	PROB	23.857	n/a	n/a	-999	17	[7, 5, 6]	18	FR1	2	R1171M
2343.705	0.015	2352617	STOP	n/a	n/a	n/a	-999	17	[-999, -999, -999]	n/a	FR1	2	R1171M
2343.72	0.701	2352632	DISTRACT_END	n/a	n/a	n/a	-999	16	[0, 0, 0]	n/a	FR1	2	R1171M
2344.421	0.517	2353333	RETRIEVAL_ORIENT	n/a	n/a	n/a	-999	16	[0, 0, 0]	n/a	FR1	2	R1171M
2344.938	0.458	2353850	REC_START	n/a	n/a	n/a	-999	16	[0, 0, 0]	n/a	FR1	2	R1171M
2345.396	4.023	2354308	REC_WORD	4.023	n/a	COUCH	1	16	[0, 0, 0]	n/a	FR1	2	R1171M
2349.419	1.094	2358331	REC_WORD	1.094	n/a	COUCH	1	16	[0, 0, 0]	n/a	FR1	2	R1171M
2350.513	0.977	2359425	REC_WORD	0.977	n/a	PEA	2	16	[0, 0, 0]	n/a	FR1	2	R1171M
2351.49	2.292	2360402	REC_WORD	2.292	n/a	RICE	4	16	[0, 0, 0]	n/a	FR1	2	R1171M
2353.782	1.405	2362694	REC_WORD_VV	1.405	n/a	<>	-999	16	[0, 0, 0]	n/a	FR1	2	R1171M
2355.187	1.0	2364099	REC_WORD_VV	1.0	n/a	<>	-999	16	[0, 0, 0]	n/a	FR1	2	R1171M
2356.187	2.314	2365098	REC_WORD_VV	2.314	n/a	<>	-999	16	[0, 0, 0]	n/a	FR1	2	R1171M
2358.501	1.0	2367412	REC_WORD_VV	1.0	n/a	<>	-999	16	[0, 0, 0]	n/a	FR1	2	R1171M
2359.501	15.448	2368412	REC_WORD_VV	15.448	n/a	<>	-999	16	[0, 0, 0]	n/a	FR1	2	R1171M
2374.949	14.314	2383859	REC_END	n/a	n/a	n/a	-999	16	[0, 0, 0]	n/a	FR1	2	R1171M
2389.263	0.5	2398173	TRIAL	n/a	n/a	n/a	-999	17	[0, 0, 0]	n/a	FR1	2	R1171M
2389.763	10.428	2398673	COUNTDOWN_START	n/a	n/a	n/a	-999	17	[0, 0, 0]	n/a	FR1	2	R1171M
2400.191	0.007	2409100	COUNTDOWN_END	n/a	n/a	n/a	-999	17	[0, 0, 0]	n/a	FR1	2	R1171M
2400.198	1.616	2409107	ORIENT	n/a	n/a	n/a	-999	17	[0, 0, 0]	n/a	FR1	2	R1171M
2401.814	2.285	2410723	ORIENT_OFF	n/a	n/a	n/a	-999	17	[0, 0, 0]	n/a	FR1	2	R1171M
2404.099	1.616	2413008	WORD	n/a	wordpools/wordpool_EN.txt	SHEET	1	17	[0, 0, 0]	n/a	FR1	2	R1171M
2405.715	0.983	2414624	WORD_OFF	n/a	n/a	SHEET	1	17	[0, 0, 0]	n/a	FR1	2	R1171M
2406.698	1.618	2415607	WORD	n/a	wordpools/wordpool_EN.txt	CROWN	2	17	[0, 0, 0]	n/a	FR1	2	R1171M
2408.316	1.001	2417225	WORD_OFF	n/a	n/a	CROWN	2	17	[0, 0, 0]	n/a	FR1	2	R1171M
2409.317	1.617	2418225	WORD	n/a	wordpools/wordpool_EN.txt	TEETH	3	17	[0, 0, 0]	n/a	FR1	2	R1171M
2410.934	0.782	2419842	WORD_OFF	n/a	n/a	TEETH	3	17	[0, 0, 0]	n/a	FR1	2	R1171M
2411.716	1.618	2420624	WORD	n/a	wordpools/wordpool_EN.txt	FLAME	4	17	[0, 0, 0]	n/a	FR1	2	R1171M
2413.334	0.9	2422242	WORD_OFF	n/a	n/a	FLAME	4	17	[0, 0, 0]	n/a	FR1	2	R1171M
2414.234	1.616	2423142	WORD	n/a	wordpools/wordpool_EN.txt	STRING	5	17	[0, 0, 0]	n/a	FR1	2	R1171M
2415.85	1.0	2424758	WORD_OFF	n/a	n/a	STRING	5	17	[0, 0, 0]	n/a	FR1	2	R1171M
2416.85	1.617	2425758	WORD	n/a	wordpools/wordpool_EN.txt	WAVE	6	17	[0, 0, 0]	n/a	FR1	2	R1171M
2418.467	0.967	2427375	WORD_OFF	n/a	n/a	WAVE	6	17	[0, 0, 0]	n/a	FR1	2	R1171M
2419.434	1.618	2428342	WORD	n/a	wordpools/wordpool_EN.txt	FROG	7	17	[0, 0, 0]	n/a	FR1	2	R1171M
2421.052	0.783	2429960	WORD_OFF	n/a	n/a	FROG	7	17	[0, 0, 0]	n/a	FR1	2	R1171M
2421.835	1.617	2430743	WORD	n/a	wordpools/wordpool_EN.txt	PLANE	8	17	[0, 0, 0]	n/a	FR1	2	R1171M
2423.452	0.868	2432360	WORD_OFF	n/a	n/a	PLANE	8	17	[0, 0, 0]	n/a	FR1	2	R1171M
2424.32	1.616	2433228	WORD	n/a	wordpools/wordpool_EN.txt	MAZE	9	17	[0, 0, 0]	n/a	FR1	2	R1171M
2425.936	0.866	2434844	WORD_OFF	n/a	n/a	MAZE	9	17	[0, 0, 0]	n/a	FR1	2	R1171M
2426.802	1.601	2435710	WORD	n/a	wordpools/wordpool_EN.txt	SWORD	10	17	[0, 0, 0]	n/a	FR1	2	R1171M
2428.403	0.934	2437310	WORD_OFF	n/a	n/a	SWORD	10	17	[0, 0, 0]	n/a	FR1	2	R1171M
2429.337	1.617	2438244	WORD	n/a	wordpools/wordpool_EN.txt	TOOL	11	17	[0, 0, 0]	n/a	FR1	2	R1171M
2430.954	0.949	2439861	WORD_OFF	n/a	n/a	TOOL	11	17	[0, 0, 0]	n/a	FR1	2	R1171M
2431.903	1.617	2440810	WORD	n/a	wordpools/wordpool_EN.txt	CHEEK	12	17	[0, 0, 0]	n/a	FR1	2	R1171M
2433.52	0.0	2442427	WORD_OFF	n/a	n/a	CHEEK	12	17	[0, 0, 0]	n/a	FR1	2	R1171M
2433.52	0.001	2442427	DISTRACT_START	n/a	n/a	n/a	-999	17	[0, 0, 0]	n/a	FR1	2	R1171M
2433.521	0.016	2442428	START	n/a	n/a	n/a	-999	18	[-999, -999, -999]	n/a	FR1	2	R1171M
2433.537	9.836	2442444	PROB	9.836	n/a	n/a	-999	18	[4, 3, 5]	12	FR1	2	R1171M
2443.373	3.001	2452280	PROB	3.001	n/a	n/a	-999	18	[3, 1, 8]	12	FR1	2	R1171M
2446.374	3.734	2455280	PROB	3.734	n/a	n/a	-999	18	[3, 8, 1]	12	FR1	2	R1171M
2450.108	4.821	2459014	PROB	4.821	n/a	n/a	-999	18	[6, 9, 1]	16	FR1	2	R1171M
2454.929	0.013	2463835	STOP	n/a	n/a	n/a	-999	18	[-999, -999, -999]	n/a	FR1	2	R1171M
2454.942	0.683	2463848	DISTRACT_END	n/a	n/a	n/a	-999	17	[0, 0, 0]	n/a	FR1	2	R1171M
2455.625	0.518	2464531	RETRIEVAL_ORIENT	n/a	n/a	n/a	-999	17	[0, 0, 0]	n/a	FR1	2	R1171M
2456.143	3.882	2465049	REC_START	n/a	n/a	n/a	-999	17	[0, 0, 0]	n/a	FR1	2	R1171M
2460.025	1.481	2468931	REC_WORD	1.481	n/a	SHEET	1	17	[0, 0, 0]	n/a	FR1	2	R1171M
2461.506	2.79	2470412	REC_WORD	2.79	n/a	TEETH	3	17	[0, 0, 0]	n/a	FR1	2	R1171M
2464.296	3.905	2473201	REC_WORD_VV	3.905	n/a	<>	-999	17	[0, 0, 0]	n/a	FR1	2	R1171M
2468.201	2.463	2477106	REC_WORD	2.463	n/a	MAZE	9	17	[0, 0, 0]	n/a	FR1	2	R1171M
2470.664	5.091	2479569	REC_WORD_VV	5.091	n/a	<>	-999	17	[0, 0, 0]	n/a	FR1	2	R1171M
2475.755	3.165	2484660	REC_WORD_VV	3.165	n/a	<>	-999	17	[0, 0, 0]	n/a	FR1	2	R1171M
2478.92	7.236	2487825	REC_WORD_VV	7.236	n/a	<>	-999	17	[0, 0, 0]	n/a	FR1	2	R1171M
2486.156	16.779	2495060	REC_END	n/a	n/a	n/a	-999	17	[0, 0, 0]	n/a	FR1	2	R1171M
2502.935	0.5	2511838	TRIAL	n/a	n/a	n/a	-999	18	[0, 0, 0]	n/a	FR1	2	R1171M
2503.435	10.428	2512338	COUNTDOWN_START	n/a	n/a	n/a	-999	18	[0, 0, 0]	n/a	FR1	2	R1171M
2513.863	0.006	2522766	COUNTDOWN_END	n/a	n/a	n/a	-999	18	[0, 0, 0]	n/a	FR1	2	R1171M
2513.869	1.617	2522772	ORIENT	n/a	n/a	n/a	-999	18	[0, 0, 0]	n/a	FR1	2	R1171M
2515.486	2.367	2524388	ORIENT_OFF	n/a	n/a	n/a	-999	18	[0, 0, 0]	n/a	FR1	2	R1171M
2517.853	1.617	2526755	WORD	n/a	wordpools/wordpool_EN.txt	PEAR	1	18	[0, 0, 0]	n/a	FR1	2	R1171M
2519.47	0.967	2528372	WORD_OFF	n/a	n/a	PEAR	1	18	[0, 0, 0]	n/a	FR1	2	R1171M
2520.437	1.618	2529339	WORD	n/a	wordpools/wordpool_EN.txt	SOCK	2	18	[0, 0, 0]	n/a	FR1	2	R1171M
2522.055	0.816	2530957	WORD_OFF	n/a	n/a	SOCK	2	18	[0, 0, 0]	n/a	FR1	2	R1171M
2522.871	1.617	2531773	WORD	n/a	wordpools/wordpool_EN.txt	FORK	3	18	[0, 0, 0]	n/a	FR1	2	R1171M
2524.488	0.918	2533390	WORD_OFF	n/a	n/a	FORK	3	18	[0, 0, 0]	n/a	FR1	2	R1171M
2525.406	1.617	2534308	WORD	n/a	wordpools/wordpool_EN.txt	SUIT	4	18	[0, 0, 0]	n/a	FR1	2	R1171M
2527.023	0.882	2535925	WORD_OFF	n/a	n/a	SUIT	4	18	[0, 0, 0]	n/a	FR1	2	R1171M
2527.905	1.617	2536807	WORD	n/a	wordpools/wordpool_EN.txt	HOOK	5	18	[0, 0, 0]	n/a	FR1	2	R1171M
2529.522	1.001	2538424	WORD_OFF	n/a	n/a	HOOK	5	18	[0, 0, 0]	n/a	FR1	2	R1171M
2530.523	1.617	2539425	WORD	n/a	wordpools/wordpool_EN.txt	JET	6	18	[0, 0, 0]	n/a	FR1	2	R1171M
2532.14	0.884	2541042	WORD_OFF	n/a	n/a	JET	6	18	[0, 0, 0]	n/a	FR1	2	R1171M
2533.024	1.616	2541926	WORD	n/a	wordpools/wordpool_EN.txt	ARK	7	18	[0, 0, 0]	n/a	FR1	2	R1171M
2534.64	0.784	2543541	WORD_OFF	n/a	n/a	ARK	7	18	[0, 0, 0]	n/a	FR1	2	R1171M
2535.424	1.617	2544325	WORD	n/a	wordpools/wordpool_EN.txt	TOAST	8	18	[0, 0, 0]	n/a	FR1	2	R1171M
2537.041	0.783	2545942	WORD_OFF	n/a	n/a	TOAST	8	18	[0, 0, 0]	n/a	FR1	2	R1171M
2537.824	1.617	2546725	WORD	n/a	wordpools/wordpool_EN.txt	BOARD	9	18	[0, 0, 0]	n/a	FR1	2	R1171M
2539.441	0.901	2548342	WORD_OFF	n/a	n/a	BOARD	9	18	[0, 0, 0]	n/a	FR1	2	R1171M
2540.342	1.617	2549243	WORD	n/a	wordpools/wordpool_EN.txt	TRAIN	10	18	[0, 0, 0]	n/a	FR1	2	R1171M
2541.959	0.899	2550860	WORD_OFF	n/a	n/a	TRAIN	10	18	[0, 0, 0]	n/a	FR1	2	R1171M
2542.858	1.617	2551759	WORD	n/a	wordpools/wordpool_EN.txt	LOCK	11	18	[0, 0, 0]	n/a	FR1	2	R1171M
2544.475	0.901	2553376	WORD_OFF	n/a	n/a	LOCK	11	18	[0, 0, 0]	n/a	FR1	2	R1171M
2545.376	1.617	2554277	WORD	n/a	wordpools/wordpool_EN.txt	RUG	12	18	[0, 0, 0]	n/a	FR1	2	R1171M
2546.993	0.0	2555894	WORD_OFF	n/a	n/a	RUG	12	18	[0, 0, 0]	n/a	FR1	2	R1171M
2546.993	0.001	2555894	DISTRACT_START	n/a	n/a	n/a	-999	18	[0, 0, 0]	n/a	FR1	2	R1171M
2546.994	0.016	2555895	START	n/a	n/a	n/a	-999	19	[-999, -999, -999]	n/a	FR1	2	R1171M
2547.01	15.419	2555911	PROB	15.419	n/a	n/a	-999	19	[9, 1, 6]	16	FR1	2	R1171M
2562.429	8.837	2571329	PROB	8.837	n/a	n/a	-999	19	[9, 3, 8]	20	FR1	2	R1171M
2571.266	0.015	2580165	STOP	n/a	n/a	n/a	-999	19	[-999, -999, -999]	n/a	FR1	2	R1171M
2571.281	0.65	2580180	DISTRACT_END	n/a	n/a	n/a	-999	18	[0, 0, 0]	n/a	FR1	2	R1171M
2571.931	0.517	2580830	RETRIEVAL_ORIENT	n/a	n/a	n/a	-999	18	[0, 0, 0]	n/a	FR1	2	R1171M
2572.448	0.252	2581347	REC_START	n/a	n/a	n/a	-999	18	[0, 0, 0]	n/a	FR1	2	R1171M
2572.7	1.429	2581599	REC_WORD	1.429	n/a	PEAR	1	18	[0, 0, 0]	n/a	FR1	2	R1171M
2574.129	2.027	2583028	REC_WORD	2.027	n/a	FOOT	-999	18	[0, 0, 0]	n/a	FR1	2	R1171M
2576.156	1.454	2585055	REC_WORD	1.454	n/a	JET	6	18	[0, 0, 0]	n/a	FR1	2	R1171M
2577.61	4.481	2586509	REC_WORD	4.481	n/a	SOCK	2	18	[0, 0, 0]	n/a	FR1	2	R1171M
2582.091	0.413	2590990	REC_WORD	0.413	n/a	PEAR	1	18	[0, 0, 0]	n/a	FR1	2	R1171M
2582.504	0.624	2591403	REC_WORD	0.624	n/a	FOOT	-999	18	[0, 0, 0]	n/a	FR1	2	R1171M
2583.128	5.445	2592027	REC_WORD	5.445	n/a	SOCK	2	18	[0, 0, 0]	n/a	FR1	2	R1171M
2588.573	0.598	2597471	REC_WORD	0.598	n/a	PEAR	1	18	[0, 0, 0]	n/a	FR1	2	R1171M
2589.171	0.71	2598069	REC_WORD	0.71	n/a	FOOT	-999	18	[0, 0, 0]	n/a	FR1	2	R1171M
2589.881	3.897	2598779	REC_WORD	3.897	n/a	SOCK	2	18	[0, 0, 0]	n/a	FR1	2	R1171M
2593.778	1.632	2602676	REC_WORD_VV	1.632	n/a	<>	-999	18	[0, 0, 0]	n/a	FR1	2	R1171M
2595.41	4.319	2604308	REC_WORD_VV	4.319	n/a	<>	-999	18	[0, 0, 0]	n/a	FR1	2	R1171M
2599.729	1.0	2608627	REC_WORD_VV	1.0	n/a	<>	-999	18	[0, 0, 0]	n/a	FR1	2	R1171M
2600.729	1.731	2609627	REC_WORD_VV	1.731	n/a	<>	-999	18	[0, 0, 0]	n/a	FR1	2	R1171M
2602.46	53.97	2611358	REC_END	n/a	n/a	n/a	-999	18	[0, 0, 0]	n/a	FR1	2	R1171M
2656.43	0.0	2665325	TRIAL	n/a	n/a	n/a	-999	19	[0, 0, 0]	n/a	FR1	2	R1171M
