onset	duration	sample	trial_type	response_time	stim_file	item_name	serialpos	list	test	answer	experiment	session	subject
0.0	44.217	244293	SESS_START	n/a	n/a	n/a	-999	-999	[0, 0, 0]	n/a	FR1	0	R1057E
44.217	10.428	266401	COUNTDOWN_START	n/a	n/a	n/a	-999	-999	[0, 0, 0]	n/a	FR1	0	R1057E
54.645	3.591	271615	COUNTDOWN_END	n/a	n/a	n/a	-999	-999	[0, 0, 0]	n/a	FR1	0	R1057E
58.236	2.434	273410	PRACTICE_WORD	n/a	n/a	CHEST	1	-1	[0, 0, 0]	n/a	FR1	0	R1057E
60.67	2.483	274627	PRACTICE_WORD	n/a	n/a	COTTON	2	-1	[0, 0, 0]	n/a	FR1	0	R1057E
63.153	2.484	275869	PRACTICE_WORD	n/a	n/a	RHINO	3	-1	[0, 0, 0]	n/a	FR1	0	R1057E
65.637	2.551	277111	PRACTICE_WORD	n/a	n/a	WATCH	4	-1	[0, 0, 0]	n/a	FR1	0	R1057E
68.188	2.483	278386	PRACTICE_WORD	n/a	n/a	WAGON	5	-1	[0, 0, 0]	n/a	FR1	0	R1057E
70.671	2.518	279628	PRACTICE_WORD	n/a	n/a	TONGUE	6	-1	[0, 0, 0]	n/a	FR1	0	R1057E
73.189	2.583	280887	PRACTICE_WORD	n/a	n/a	IRON	7	-1	[0, 0, 0]	n/a	FR1	0	R1057E
75.772	2.484	282178	PRACTICE_WORD	n/a	n/a	CAMEL	8	-1	[0, 0, 0]	n/a	FR1	0	R1057E
78.256	2.4	283420	PRACTICE_WORD	n/a	n/a	BEAM	9	-1	[0, 0, 0]	n/a	FR1	0	R1057E
80.656	2.385	284620	PRACTICE_WORD	n/a	n/a	ATTIC	10	-1	[0, 0, 0]	n/a	FR1	0	R1057E
83.041	2.633	285813	PRACTICE_WORD	n/a	n/a	FLOOD	11	-1	[0, 0, 0]	n/a	FR1	0	R1057E
85.674	1.617	287129	PRACTICE_WORD	n/a	n/a	RING	12	-1	[0, 0, 0]	n/a	FR1	0	R1057E
87.291	0.0	287937	PRACTICE_DISTRACT_START	n/a	n/a	n/a	-999	-1	[0, 0, 0]	n/a	FR1	0	R1057E
87.291	0.017	287937	START	n/a	n/a	n/a	-999	-1	[-999, -999, -999]	n/a	FR1	0	R1057E
87.308	16.152	287946	PROB	16.152	n/a	n/a	-999	-1	[4, 4, 3]	11	FR1	0	R1057E
103.46	13.547	296022	PROB	13.547	n/a	n/a	-999	-1	[7, 4, 6]	16	FR1	0	R1057E
117.007	0.007	302795	STOP	n/a	n/a	n/a	-999	-1	[-999, -999, -999]	n/a	FR1	0	R1057E
117.014	0.7	302798	PRACTICE_DISTRACT_END	n/a	n/a	n/a	-999	-1	[0, 0, 0]	n/a	FR1	0	R1057E
117.714	30.516	303148	PRACTICE_REC_START	n/a	n/a	n/a	-999	-1	[0, 0, 0]	n/a	FR1	0	R1057E
148.23	50.48	318406	PRACTICE_REC_END	n/a	n/a	n/a	-999	-1	[0, 0, 0]	n/a	FR1	0	R1057E
198.71	0.001	343645	COUNTDOWN_START	n/a	n/a	n/a	-999	1	[0, 0, 0]	n/a	FR1	0	R1057E
198.711	10.427	343646	TRIAL	n/a	n/a	n/a	-999	1	[0, 0, 0]	n/a	FR1	0	R1057E
209.138	0.008	348859	COUNTDOWN_END	n/a	n/a	n/a	-999	1	[0, 0, 0]	n/a	FR1	0	R1057E
209.146	2.5	348863	ORIENT	n/a	n/a	n/a	-999	1	[0, 0, 0]	n/a	FR1	0	R1057E
211.646	2.417	350113	WORD	n/a	wordpools/wordpool_EN.txt	BRIDGE	1	1	[0, 0, 0]	n/a	FR1	0	R1057E
214.063	2.484	351322	WORD	n/a	wordpools/wordpool_EN.txt	CAGE	2	1	[0, 0, 0]	n/a	FR1	0	R1057E
216.547	2.617	352563	WORD	n/a	wordpools/wordpool_EN.txt	BOOT	3	1	[0, 0, 0]	n/a	FR1	0	R1057E
219.164	2.584	353872	WORD	n/a	wordpools/wordpool_EN.txt	GEESE	4	1	[0, 0, 0]	n/a	FR1	0	R1057E
221.748	2.434	355164	WORD	n/a	wordpools/wordpool_EN.txt	SKUNK	5	1	[0, 0, 0]	n/a	FR1	0	R1057E
224.182	2.483	356381	WORD	n/a	wordpools/wordpool_EN.txt	CLOCK	6	1	[0, 0, 0]	n/a	FR1	0	R1057E
226.665	2.567	357622	WORD	n/a	wordpools/wordpool_EN.txt	ICE	7	1	[0, 0, 0]	n/a	FR1	0	R1057E
229.232	2.384	358906	WORD	n/a	wordpools/wordpool_EN.txt	LAND	8	1	[0, 0, 0]	n/a	FR1	0	R1057E
231.616	2.534	360098	WORD	n/a	wordpools/wordpool_EN.txt	FARM	9	1	[0, 0, 0]	n/a	FR1	0	R1057E
234.15	2.4	361365	WORD	n/a	wordpools/wordpool_EN.txt	MAP	10	1	[0, 0, 0]	n/a	FR1	0	R1057E
236.55	2.568	362565	WORD	n/a	wordpools/wordpool_EN.txt	ARK	11	1	[0, 0, 0]	n/a	FR1	0	R1057E
239.118	1.617	363849	WORD	n/a	wordpools/wordpool_EN.txt	SKY	12	1	[0, 0, 0]	n/a	FR1	0	R1057E
240.735	0.0	364657	DISTRACT_START	n/a	n/a	n/a	-999	1	[0, 0, 0]	n/a	FR1	0	R1057E
240.735	0.016	364657	START	n/a	n/a	n/a	-999	1	[-999, -999, -999]	n/a	FR1	0	R1057E
240.751	7.685	364665	PROB	7.685	n/a	n/a	-999	1	[2, 6, 7]	15	FR1	0	R1057E
248.436	13.291	368507	PROB	13.291	n/a	n/a	-999	1	[6, 1, 7]	14	FR1	0	R1057E
261.727	0.011	375153	STOP	n/a	n/a	n/a	-999	1	[-999, -999, -999]	n/a	FR1	0	R1057E
261.738	1.106	375158	DISTRACT_END	n/a	n/a	n/a	-999	1	[0, 0, 0]	n/a	FR1	0	R1057E
262.844	1.214	375711	REC_START	n/a	n/a	n/a	-999	1	[0, 0, 0]	n/a	FR1	0	R1057E
264.058	0.761	376318	REC_WORD	0.761	n/a	BRIDGE	1	1	[0, 0, 0]	n/a	FR1	0	R1057E
264.819	0.777	376699	REC_WORD	0.777	n/a	CAGE	2	1	[0, 0, 0]	n/a	FR1	0	R1057E
265.596	2.998	377087	REC_WORD	2.998	n/a	SKUNK	5	1	[0, 0, 0]	n/a	FR1	0	R1057E
268.594	24.253	378586	REC_WORD	24.253	n/a	MAP	10	1	[0, 0, 0]	n/a	FR1	0	R1057E
292.847	4.182	390712	REC_END	n/a	n/a	n/a	-999	1	[0, 0, 0]	n/a	FR1	0	R1057E
297.029	0.0	392803	TRIAL	n/a	n/a	n/a	-999	2	[0, 0, 0]	n/a	FR1	0	R1057E
297.029	10.428	392803	COUNTDOWN_START	n/a	n/a	n/a	-999	2	[0, 0, 0]	n/a	FR1	0	R1057E
307.457	0.006	398017	COUNTDOWN_END	n/a	n/a	n/a	-999	2	[0, 0, 0]	n/a	FR1	0	R1057E
307.463	2.517	398020	ORIENT	n/a	n/a	n/a	-999	2	[0, 0, 0]	n/a	FR1	0	R1057E
309.98	2.434	399279	WORD	n/a	wordpools/wordpool_EN.txt	SHEET	1	2	[0, 0, 0]	n/a	FR1	0	R1057E
312.414	2.601	400496	WORD	n/a	wordpools/wordpool_EN.txt	NET	2	2	[0, 0, 0]	n/a	FR1	0	R1057E
315.015	2.416	401796	WORD	n/a	wordpools/wordpool_EN.txt	WORLD	3	2	[0, 0, 0]	n/a	FR1	0	R1057E
317.431	2.602	403004	WORD	n/a	wordpools/wordpool_EN.txt	LIP	4	2	[0, 0, 0]	n/a	FR1	0	R1057E
320.033	2.533	404305	WORD	n/a	wordpools/wordpool_EN.txt	SCHOOL	5	2	[0, 0, 0]	n/a	FR1	0	R1057E
322.566	2.583	405571	WORD	n/a	wordpools/wordpool_EN.txt	WING	6	2	[0, 0, 0]	n/a	FR1	0	R1057E
325.149	2.534	406863	WORD	n/a	wordpools/wordpool_EN.txt	SWAMP	7	2	[0, 0, 0]	n/a	FR1	0	R1057E
327.683	2.451	408130	WORD	n/a	wordpools/wordpool_EN.txt	BAT	8	2	[0, 0, 0]	n/a	FR1	0	R1057E
330.134	2.4	409355	WORD	n/a	wordpools/wordpool_EN.txt	MAZE	9	2	[0, 0, 0]	n/a	FR1	0	R1057E
332.534	2.6	410555	WORD	n/a	wordpools/wordpool_EN.txt	TANK	10	2	[0, 0, 0]	n/a	FR1	0	R1057E
335.134	2.517	411855	WORD	n/a	wordpools/wordpool_EN.txt	BADGE	11	2	[0, 0, 0]	n/a	FR1	0	R1057E
337.651	1.617	413114	WORD	n/a	wordpools/wordpool_EN.txt	JET	12	2	[0, 0, 0]	n/a	FR1	0	R1057E
339.268	0.001	413922	DISTRACT_START	n/a	n/a	n/a	-999	2	[0, 0, 0]	n/a	FR1	0	R1057E
339.269	0.016	413923	START	n/a	n/a	n/a	-999	2	[-999, -999, -999]	n/a	FR1	0	R1057E
339.285	7.285	413931	PROB	7.285	n/a	n/a	-999	2	[1, 3, 8]	12	FR1	0	R1057E
346.57	8.335	417573	PROB	8.335	n/a	n/a	-999	2	[8, 6, 4]	18	FR1	0	R1057E
354.905	6.674	421740	PROB	6.674	n/a	n/a	-999	2	[5, 4, 5]	20	FR1	0	R1057E
361.579	0.01	425077	STOP	n/a	n/a	n/a	-999	2	[-999, -999, -999]	n/a	FR1	0	R1057E
361.589	1.034	425082	DISTRACT_END	n/a	n/a	n/a	-999	2	[0, 0, 0]	n/a	FR1	0	R1057E
362.623	7.613	425599	REC_START	n/a	n/a	n/a	-999	2	[0, 0, 0]	n/a	FR1	0	R1057E
370.236	1.18	429406	REC_WORD	1.18	n/a	SHEET	1	2	[0, 0, 0]	n/a	FR1	0	R1057E
371.416	20.678	429996	REC_WORD	20.678	n/a	SCHOOL	5	2	[0, 0, 0]	n/a	FR1	0	R1057E
392.094	0.542	440334	REC_WORD	0.542	n/a	MAZE	9	2	[0, 0, 0]	n/a	FR1	0	R1057E
392.636	81.239	440605	REC_END	n/a	n/a	n/a	-999	2	[0, 0, 0]	n/a	FR1	0	R1057E
473.875	0.0	481224	TRIAL	n/a	n/a	n/a	-999	3	[0, 0, 0]	n/a	FR1	0	R1057E
473.875	10.428	481224	COUNTDOWN_START	n/a	n/a	n/a	-999	3	[0, 0, 0]	n/a	FR1	0	R1057E
484.303	0.007	486437	COUNTDOWN_END	n/a	n/a	n/a	-999	3	[0, 0, 0]	n/a	FR1	0	R1057E
484.31	2.618	486441	ORIENT	n/a	n/a	n/a	-999	3	[0, 0, 0]	n/a	FR1	0	R1057E
486.928	2.433	487750	WORD	n/a	wordpools/wordpool_EN.txt	SQUARE	1	3	[0, 0, 0]	n/a	FR1	0	R1057E
489.361	2.401	488966	WORD	n/a	wordpools/wordpool_EN.txt	BRICK	2	3	[0, 0, 0]	n/a	FR1	0	R1057E
491.762	2.483	490167	WORD	n/a	wordpools/wordpool_EN.txt	SMOKE	3	3	[0, 0, 0]	n/a	FR1	0	R1057E
494.245	2.418	491408	WORD	n/a	wordpools/wordpool_EN.txt	NAIL	4	3	[0, 0, 0]	n/a	FR1	0	R1057E
496.663	2.4	492617	WORD	n/a	wordpools/wordpool_EN.txt	PIN	5	3	[0, 0, 0]	n/a	FR1	0	R1057E
499.063	2.434	493817	WORD	n/a	wordpools/wordpool_EN.txt	VEST	6	3	[0, 0, 0]	n/a	FR1	0	R1057E
501.497	2.551	495034	WORD	n/a	wordpools/wordpool_EN.txt	WHALE	7	3	[0, 0, 0]	n/a	FR1	0	R1057E
504.048	2.433	496310	WORD	n/a	wordpools/wordpool_EN.txt	SNOW	8	3	[0, 0, 0]	n/a	FR1	0	R1057E
506.481	2.551	497526	WORD	n/a	wordpools/wordpool_EN.txt	FLAME	9	3	[0, 0, 0]	n/a	FR1	0	R1057E
509.032	2.55	498802	WORD	n/a	wordpools/wordpool_EN.txt	DOCK	10	3	[0, 0, 0]	n/a	FR1	0	R1057E
511.582	2.55	500076	WORD	n/a	wordpools/wordpool_EN.txt	STORM	11	3	[0, 0, 0]	n/a	FR1	0	R1057E
514.132	1.617	501351	WORD	n/a	wordpools/wordpool_EN.txt	LAKE	12	3	[0, 0, 0]	n/a	FR1	0	R1057E
515.749	0.001	502160	DISTRACT_START	n/a	n/a	n/a	-999	3	[0, 0, 0]	n/a	FR1	0	R1057E
515.75	0.016	502160	START	n/a	n/a	n/a	-999	3	[-999, -999, -999]	n/a	FR1	0	R1057E
515.766	6.801	502168	PROB	6.801	n/a	n/a	-999	3	[2, 6, 7]	15	FR1	0	R1057E
522.567	5.834	505569	PROB	5.834	n/a	n/a	-999	3	[1, 5, 1]	7	FR1	0	R1057E
528.401	6.352	508486	PROB	6.352	n/a	n/a	-999	3	[6, 7, 7]	20	FR1	0	R1057E
534.753	7.629	511662	PROB	7.629	n/a	n/a	-999	3	[6, 8, 1]	15	FR1	0	R1057E
542.382	0.005	515476	STOP	n/a	n/a	n/a	-999	3	[-999, -999, -999]	n/a	FR1	0	R1057E
542.387	1.201	515478	DISTRACT_END	n/a	n/a	n/a	-999	3	[0, 0, 0]	n/a	FR1	0	R1057E
543.588	3.407	516079	REC_START	n/a	n/a	n/a	-999	3	[0, 0, 0]	n/a	FR1	0	R1057E
546.995	1.794	517782	REC_WORD	1.794	n/a	SAND	-999	3	[0, 0, 0]	n/a	FR1	0	R1057E
548.789	15.572	518679	REC_WORD	15.572	n/a	BRICK	2	3	[0, 0, 0]	n/a	FR1	0	R1057E
564.361	0.521	526465	REC_WORD	0.521	n/a	MAZE	-999	3	[0, 0, 0]	n/a	FR1	0	R1057E
564.882	8.714	526726	REC_WORD	8.714	n/a	STOOL	-999	3	[0, 0, 0]	n/a	FR1	0	R1057E
573.596	70.792	531083	REC_END	n/a	n/a	n/a	-999	3	[0, 0, 0]	n/a	FR1	0	R1057E
644.388	0.001	566477	COUNTDOWN_START	n/a	n/a	n/a	-999	4	[0, 0, 0]	n/a	FR1	0	R1057E
644.389	10.427	566478	TRIAL	n/a	n/a	n/a	-999	4	[0, 0, 0]	n/a	FR1	0	R1057E
654.816	0.008	571691	COUNTDOWN_END	n/a	n/a	n/a	-999	4	[0, 0, 0]	n/a	FR1	0	R1057E
654.824	2.5	571695	ORIENT	n/a	n/a	n/a	-999	4	[0, 0, 0]	n/a	FR1	0	R1057E
657.324	2.467	572945	WORD	n/a	wordpools/wordpool_EN.txt	STAR	1	4	[0, 0, 0]	n/a	FR1	0	R1057E
659.791	2.517	574179	WORD	n/a	wordpools/wordpool_EN.txt	PIPE	2	4	[0, 0, 0]	n/a	FR1	0	R1057E
662.308	2.517	575437	WORD	n/a	wordpools/wordpool_EN.txt	OWL	3	4	[0, 0, 0]	n/a	FR1	0	R1057E
664.825	2.517	576696	WORD	n/a	wordpools/wordpool_EN.txt	WOOD	4	4	[0, 0, 0]	n/a	FR1	0	R1057E
667.342	2.601	577954	WORD	n/a	wordpools/wordpool_EN.txt	DUCK	5	4	[0, 0, 0]	n/a	FR1	0	R1057E
669.943	2.55	579255	WORD	n/a	wordpools/wordpool_EN.txt	POND	6	4	[0, 0, 0]	n/a	FR1	0	R1057E
672.493	2.552	580530	WORD	n/a	wordpools/wordpool_EN.txt	CLOUD	7	4	[0, 0, 0]	n/a	FR1	0	R1057E
675.045	2.599	581805	WORD	n/a	wordpools/wordpool_EN.txt	FLOOR	8	4	[0, 0, 0]	n/a	FR1	0	R1057E
677.644	2.517	583105	WORD	n/a	wordpools/wordpool_EN.txt	DEER	9	4	[0, 0, 0]	n/a	FR1	0	R1057E
680.161	2.584	584363	WORD	n/a	wordpools/wordpool_EN.txt	SKI	10	4	[0, 0, 0]	n/a	FR1	0	R1057E
682.745	2.584	585655	WORD	n/a	wordpools/wordpool_EN.txt	TOY	11	4	[0, 0, 0]	n/a	FR1	0	R1057E
685.329	1.617	586947	WORD	n/a	wordpools/wordpool_EN.txt	WOLF	12	4	[0, 0, 0]	n/a	FR1	0	R1057E
686.946	0.001	587756	DISTRACT_START	n/a	n/a	n/a	-999	4	[0, 0, 0]	n/a	FR1	0	R1057E
686.947	0.016	587756	START	n/a	n/a	n/a	-999	4	[-999, -999, -999]	n/a	FR1	0	R1057E
686.963	8.468	587764	PROB	8.468	n/a	n/a	-999	4	[2, 2, 9]	13	FR1	0	R1057E
695.431	7.901	591998	PROB	7.901	n/a	n/a	-999	4	[8, 7, 5]	20	FR1	0	R1057E
703.332	4.159	595949	PROB	4.159	n/a	n/a	-999	4	[1, 2, 6]	9	FR1	0	R1057E
707.491	0.008	598028	STOP	n/a	n/a	n/a	-999	4	[-999, -999, -999]	n/a	FR1	0	R1057E
707.499	1.201	598032	DISTRACT_END	n/a	n/a	n/a	-999	4	[0, 0, 0]	n/a	FR1	0	R1057E
708.7	1.906	598632	REC_START	n/a	n/a	n/a	-999	4	[0, 0, 0]	n/a	FR1	0	R1057E
710.606	3.059	599585	REC_WORD	3.059	n/a	STAIR	-999	4	[0, 0, 0]	n/a	FR1	0	R1057E
713.665	1.162	601115	REC_WORD	1.162	n/a	STOOL	-999	4	[0, 0, 0]	n/a	FR1	0	R1057E
714.827	0.674	601696	REC_WORD	0.674	n/a	PIPE	2	4	[0, 0, 0]	n/a	FR1	0	R1057E
715.501	7.362	602033	REC_WORD	7.362	n/a	SAND	-999	4	[0, 0, 0]	n/a	FR1	0	R1057E
722.863	6.354	605714	REC_WORD	6.354	n/a	FLOOD	-999	4	[0, 0, 0]	n/a	FR1	0	R1057E
729.217	9.495	608891	REC_WORD	9.495	n/a	STAR	1	4	[0, 0, 0]	n/a	FR1	0	R1057E
738.712	49.918	613638	REC_END	n/a	n/a	n/a	-999	4	[0, 0, 0]	n/a	FR1	0	R1057E
788.63	0.0	638596	TRIAL	n/a	n/a	n/a	-999	5	[0, 0, 0]	n/a	FR1	0	R1057E
788.63	10.428	638596	COUNTDOWN_START	n/a	n/a	n/a	-999	5	[0, 0, 0]	n/a	FR1	0	R1057E
799.058	0.007	643810	COUNTDOWN_END	n/a	n/a	n/a	-999	5	[0, 0, 0]	n/a	FR1	0	R1057E
799.065	2.384	643814	ORIENT	n/a	n/a	n/a	-999	5	[0, 0, 0]	n/a	FR1	0	R1057E
801.449	2.602	645006	WORD	n/a	wordpools/wordpool_EN.txt	KEY	1	5	[0, 0, 0]	n/a	FR1	0	R1057E
804.051	2.432	646307	WORD	n/a	wordpools/wordpool_EN.txt	GOLD	2	5	[0, 0, 0]	n/a	FR1	0	R1057E
806.483	2.569	647522	WORD	n/a	wordpools/wordpool_EN.txt	FILM	3	5	[0, 0, 0]	n/a	FR1	0	R1057E
809.052	2.399	648807	WORD	n/a	wordpools/wordpool_EN.txt	BOMB	4	5	[0, 0, 0]	n/a	FR1	0	R1057E
811.451	2.434	650006	WORD	n/a	wordpools/wordpool_EN.txt	PRINCE	5	5	[0, 0, 0]	n/a	FR1	0	R1057E
813.885	2.55	651223	WORD	n/a	wordpools/wordpool_EN.txt	EAR	6	5	[0, 0, 0]	n/a	FR1	0	R1057E
816.435	2.384	652498	WORD	n/a	wordpools/wordpool_EN.txt	DART	7	5	[0, 0, 0]	n/a	FR1	0	R1057E
818.819	2.45	653690	WORD	n/a	wordpools/wordpool_EN.txt	BALL	8	5	[0, 0, 0]	n/a	FR1	0	R1057E
821.269	2.501	654915	WORD	n/a	wordpools/wordpool_EN.txt	PLANE	9	5	[0, 0, 0]	n/a	FR1	0	R1057E
823.77	2.584	656166	WORD	n/a	wordpools/wordpool_EN.txt	SPARK	10	5	[0, 0, 0]	n/a	FR1	0	R1057E
826.354	2.533	657458	WORD	n/a	wordpools/wordpool_EN.txt	COIN	11	5	[0, 0, 0]	n/a	FR1	0	R1057E
828.887	1.617	658724	WORD	n/a	wordpools/wordpool_EN.txt	SPOON	12	5	[0, 0, 0]	n/a	FR1	0	R1057E
830.504	0.001	659533	DISTRACT_START	n/a	n/a	n/a	-999	5	[0, 0, 0]	n/a	FR1	0	R1057E
830.505	0.016	659533	START	n/a	n/a	n/a	-999	5	[-999, -999, -999]	n/a	FR1	0	R1057E
830.521	9.435	659541	PROB	9.435	n/a	n/a	-999	5	[2, 4, 8]	14	FR1	0	R1057E
839.956	8.018	664258	PROB	8.018	n/a	n/a	-999	5	[7, 4, 6]	27	FR1	0	R1057E
847.974	7.92	668267	PROB	7.92	n/a	n/a	-999	5	[3, 9, 3]	15	FR1	0	R1057E
855.894	0.015	672227	STOP	n/a	n/a	n/a	-999	5	[-999, -999, -999]	n/a	FR1	0	R1057E
855.909	1.085	672235	DISTRACT_END	n/a	n/a	n/a	-999	5	[0, 0, 0]	n/a	FR1	0	R1057E
856.994	2.464	672777	REC_START	n/a	n/a	n/a	-999	5	[0, 0, 0]	n/a	FR1	0	R1057E
859.458	0.565	674009	REC_WORD	0.565	n/a	PRINCE	5	5	[0, 0, 0]	n/a	FR1	0	R1057E
860.023	0.432	674292	REC_WORD	0.432	n/a	STAR	-999	5	[0, 0, 0]	n/a	FR1	0	R1057E
860.455	2.174	674508	REC_WORD	2.174	n/a	SPOON	12	5	[0, 0, 0]	n/a	FR1	0	R1057E
862.629	1.967	675595	REC_WORD	1.967	n/a	MAIL	-999	5	[0, 0, 0]	n/a	FR1	0	R1057E
864.596	12.902	676578	REC_WORD	12.902	n/a	GOLD	2	5	[0, 0, 0]	n/a	FR1	0	R1057E
877.498	9.504	683029	REC_WORD	9.504	n/a	SAND	-999	5	[0, 0, 0]	n/a	FR1	0	R1057E
887.002	15.882	687781	REC_END	n/a	n/a	n/a	-999	5	[0, 0, 0]	n/a	FR1	0	R1057E
902.884	0.0	695721	TRIAL	n/a	n/a	n/a	-999	6	[0, 0, 0]	n/a	FR1	0	R1057E
902.884	10.428	695721	COUNTDOWN_START	n/a	n/a	n/a	-999	6	[0, 0, 0]	n/a	FR1	0	R1057E
913.312	0.007	700935	COUNTDOWN_END	n/a	n/a	n/a	-999	6	[0, 0, 0]	n/a	FR1	0	R1057E
913.319	2.534	700939	ORIENT	n/a	n/a	n/a	-999	6	[0, 0, 0]	n/a	FR1	0	R1057E
915.853	2.483	702206	WORD	n/a	wordpools/wordpool_EN.txt	AXE	1	6	[0, 0, 0]	n/a	FR1	0	R1057E
918.336	2.584	703447	WORD	n/a	wordpools/wordpool_EN.txt	CLOTH	2	6	[0, 0, 0]	n/a	FR1	0	R1057E
920.92	2.434	704739	WORD	n/a	wordpools/wordpool_EN.txt	SPRING	3	6	[0, 0, 0]	n/a	FR1	0	R1057E
923.354	2.567	705956	WORD	n/a	wordpools/wordpool_EN.txt	CROWN	4	6	[0, 0, 0]	n/a	FR1	0	R1057E
925.921	2.467	707240	WORD	n/a	wordpools/wordpool_EN.txt	BED	5	6	[0, 0, 0]	n/a	FR1	0	R1057E
928.388	2.451	708473	WORD	n/a	wordpools/wordpool_EN.txt	HEART	6	6	[0, 0, 0]	n/a	FR1	0	R1057E
930.839	2.4	709699	WORD	n/a	wordpools/wordpool_EN.txt	BOARD	7	6	[0, 0, 0]	n/a	FR1	0	R1057E
933.239	2.434	710899	WORD	n/a	wordpools/wordpool_EN.txt	TOOTH	8	6	[0, 0, 0]	n/a	FR1	0	R1057E
935.673	2.467	712115	WORD	n/a	wordpools/wordpool_EN.txt	CUP	9	6	[0, 0, 0]	n/a	FR1	0	R1057E
938.14	2.617	713349	WORD	n/a	wordpools/wordpool_EN.txt	MUD	10	6	[0, 0, 0]	n/a	FR1	0	R1057E
940.757	2.584	714657	WORD	n/a	wordpools/wordpool_EN.txt	OAR	11	6	[0, 0, 0]	n/a	FR1	0	R1057E
943.341	1.617	715949	WORD	n/a	wordpools/wordpool_EN.txt	LAMB	12	6	[0, 0, 0]	n/a	FR1	0	R1057E
944.958	0.0	716758	DISTRACT_START	n/a	n/a	n/a	-999	6	[0, 0, 0]	n/a	FR1	0	R1057E
944.958	0.016	716758	START	n/a	n/a	n/a	-999	6	[-999, -999, -999]	n/a	FR1	0	R1057E
944.974	9.302	716766	PROB	9.302	n/a	n/a	-999	6	[9, 6, 4]	19	FR1	0	R1057E
954.276	10.068	721417	PROB	10.068	n/a	n/a	-999	6	[4, 6, 7]	17	FR1	0	R1057E
964.344	6.66	726451	PROB	6.66	n/a	n/a	-999	6	[4, 2, 9]	15	FR1	0	R1057E
971.004	0.009	729780	STOP	n/a	n/a	n/a	-999	6	[-999, -999, -999]	n/a	FR1	0	R1057E
971.013	1.067	729785	DISTRACT_END	n/a	n/a	n/a	-999	6	[0, 0, 0]	n/a	FR1	0	R1057E
972.08	2.606	730318	REC_START	n/a	n/a	n/a	-999	6	[0, 0, 0]	n/a	FR1	0	R1057E
974.686	0.714	731621	REC_WORD	0.714	n/a	AXE	1	6	[0, 0, 0]	n/a	FR1	0	R1057E
975.4	1.588	731978	REC_WORD	1.588	n/a	SAND	-999	6	[0, 0, 0]	n/a	FR1	0	R1057E
976.988	1.924	732772	REC_WORD	1.924	n/a	PIPE	-999	6	[0, 0, 0]	n/a	FR1	0	R1057E
978.912	0.841	733734	REC_WORD	0.841	n/a	EEL	-999	6	[0, 0, 0]	n/a	FR1	0	R1057E
979.753	1.676	734155	REC_WORD	1.676	n/a	ONE	-999	6	[0, 0, 0]	n/a	FR1	0	R1057E
981.429	2.484	734993	REC_WORD	2.484	n/a	TWO	-999	6	[0, 0, 0]	n/a	FR1	0	R1057E
983.913	3.533	736235	REC_WORD	3.533	n/a	THREE	-999	6	[0, 0, 0]	n/a	FR1	0	R1057E
987.446	1.507	738001	REC_WORD	1.507	n/a	AND	-999	6	[0, 0, 0]	n/a	FR1	0	R1057E
988.953	13.135	738755	REC_WORD	13.135	n/a	ONE	-999	6	[0, 0, 0]	n/a	FR1	0	R1057E
1002.088	50.288	745322	REC_END	n/a	n/a	n/a	-999	6	[0, 0, 0]	n/a	FR1	0	R1057E
1052.376	0.001	770465	COUNTDOWN_START	n/a	n/a	n/a	-999	7	[0, 0, 0]	n/a	FR1	0	R1057E
1052.377	10.427	770466	TRIAL	n/a	n/a	n/a	-999	7	[0, 0, 0]	n/a	FR1	0	R1057E
1062.804	0.008	775679	COUNTDOWN_END	n/a	n/a	n/a	-999	7	[0, 0, 0]	n/a	FR1	0	R1057E
1062.812	2.5	775683	ORIENT	n/a	n/a	n/a	-999	7	[0, 0, 0]	n/a	FR1	0	R1057E
1065.312	2.534	776933	WORD	n/a	wordpools/wordpool_EN.txt	JEEP	1	7	[0, 0, 0]	n/a	FR1	0	R1057E
1067.846	2.584	778200	WORD	n/a	wordpools/wordpool_EN.txt	MOUTH	2	7	[0, 0, 0]	n/a	FR1	0	R1057E
1070.43	2.433	779492	WORD	n/a	wordpools/wordpool_EN.txt	OAK	3	7	[0, 0, 0]	n/a	FR1	0	R1057E
1072.863	2.467	780708	WORD	n/a	wordpools/wordpool_EN.txt	CUBE	4	7	[0, 0, 0]	n/a	FR1	0	R1057E
1075.33	2.584	781942	WORD	n/a	wordpools/wordpool_EN.txt	RAKE	5	7	[0, 0, 0]	n/a	FR1	0	R1057E
1077.914	2.451	783234	WORD	n/a	wordpools/wordpool_EN.txt	TENT	6	7	[0, 0, 0]	n/a	FR1	0	R1057E
1080.365	2.417	784459	WORD	n/a	wordpools/wordpool_EN.txt	PET	7	7	[0, 0, 0]	n/a	FR1	0	R1057E
1082.782	2.417	785668	WORD	n/a	wordpools/wordpool_EN.txt	TRAIN	8	7	[0, 0, 0]	n/a	FR1	0	R1057E
1085.199	2.517	786876	WORD	n/a	wordpools/wordpool_EN.txt	HAT	9	7	[0, 0, 0]	n/a	FR1	0	R1057E
1087.716	2.534	788135	WORD	n/a	wordpools/wordpool_EN.txt	CAPE	10	7	[0, 0, 0]	n/a	FR1	0	R1057E
1090.25	2.6	789402	WORD	n/a	wordpools/wordpool_EN.txt	CAT	11	7	[0, 0, 0]	n/a	FR1	0	R1057E
1092.85	1.617	790702	WORD	n/a	wordpools/wordpool_EN.txt	COW	12	7	[0, 0, 0]	n/a	FR1	0	R1057E
1094.467	0.001	791510	DISTRACT_START	n/a	n/a	n/a	-999	7	[0, 0, 0]	n/a	FR1	0	R1057E
1094.468	0.016	791511	START	n/a	n/a	n/a	-999	7	[-999, -999, -999]	n/a	FR1	0	R1057E
1094.484	7.068	791519	PROB	7.068	n/a	n/a	-999	7	[8, 3, 4]	15	FR1	0	R1057E
1101.552	6.168	795052	PROB	6.168	n/a	n/a	-999	7	[2, 9, 9]	20	FR1	0	R1057E
1107.72	10.809	798136	PROB	10.809	n/a	n/a	-999	7	[6, 9, 6]	25	FR1	0	R1057E
1118.529	0.009	803541	STOP	n/a	n/a	n/a	-999	7	[-999, -999, -999]	n/a	FR1	0	R1057E
1118.538	1.151	803545	DISTRACT_END	n/a	n/a	n/a	-999	7	[0, 0, 0]	n/a	FR1	0	R1057E
1119.689	5.731	804121	REC_START	n/a	n/a	n/a	-999	7	[0, 0, 0]	n/a	FR1	0	R1057E
1125.42	1.017	806986	REC_WORD	1.017	n/a	CAT	11	7	[0, 0, 0]	n/a	FR1	0	R1057E
1126.437	2.671	807495	REC_WORD_VV	2.671	n/a	<>	-999	7	[0, 0, 0]	n/a	FR1	0	R1057E
1129.108	20.589	808830	REC_WORD	20.589	n/a	SAND	-999	7	[0, 0, 0]	n/a	FR1	0	R1057E
1149.697	10.299	819124	REC_END	n/a	n/a	n/a	-999	7	[0, 0, 0]	n/a	FR1	0	R1057E
1159.996	0.0	824274	TRIAL	n/a	n/a	n/a	-999	8	[0, 0, 0]	n/a	FR1	0	R1057E
1159.996	10.428	824274	COUNTDOWN_START	n/a	n/a	n/a	-999	8	[0, 0, 0]	n/a	FR1	0	R1057E
1170.424	0.006	829487	COUNTDOWN_END	n/a	n/a	n/a	-999	8	[0, 0, 0]	n/a	FR1	0	R1057E
1170.43	2.585	829490	ORIENT	n/a	n/a	n/a	-999	8	[0, 0, 0]	n/a	FR1	0	R1057E
1173.015	2.583	830783	WORD	n/a	wordpools/wordpool_EN.txt	ROAD	1	8	[0, 0, 0]	n/a	FR1	0	R1057E
1175.598	2.601	832074	WORD	n/a	wordpools/wordpool_EN.txt	ROOF	2	8	[0, 0, 0]	n/a	FR1	0	R1057E
1178.199	2.6	833375	WORD	n/a	wordpools/wordpool_EN.txt	PARK	3	8	[0, 0, 0]	n/a	FR1	0	R1057E
1180.799	2.45	834675	WORD	n/a	wordpools/wordpool_EN.txt	KITE	4	8	[0, 0, 0]	n/a	FR1	0	R1057E
1183.249	2.434	835900	WORD	n/a	wordpools/wordpool_EN.txt	BOX	5	8	[0, 0, 0]	n/a	FR1	0	R1057E
1185.683	2.601	837117	WORD	n/a	wordpools/wordpool_EN.txt	FOG	6	8	[0, 0, 0]	n/a	FR1	0	R1057E
1188.284	2.483	838417	WORD	n/a	wordpools/wordpool_EN.txt	SMILE	7	8	[0, 0, 0]	n/a	FR1	0	R1057E
1190.767	2.417	839659	WORD	n/a	wordpools/wordpool_EN.txt	VAN	8	8	[0, 0, 0]	n/a	FR1	0	R1057E
1193.184	2.451	840867	WORD	n/a	wordpools/wordpool_EN.txt	CAR	9	8	[0, 0, 0]	n/a	FR1	0	R1057E
1195.635	2.434	842093	WORD	n/a	wordpools/wordpool_EN.txt	RUG	10	8	[0, 0, 0]	n/a	FR1	0	R1057E
1198.069	2.45	843309	WORD	n/a	wordpools/wordpool_EN.txt	CLOWN	11	8	[0, 0, 0]	n/a	FR1	0	R1057E
1200.519	1.617	844534	WORD	n/a	wordpools/wordpool_EN.txt	LAMP	12	8	[0, 0, 0]	n/a	FR1	0	R1057E
1202.136	0.001	845343	DISTRACT_START	n/a	n/a	n/a	-999	8	[0, 0, 0]	n/a	FR1	0	R1057E
1202.137	0.016	845343	START	n/a	n/a	n/a	-999	8	[-999, -999, -999]	n/a	FR1	0	R1057E
1202.153	12.87	845351	PROB	12.87	n/a	n/a	-999	8	[3, 4, 2]	12	FR1	0	R1057E
1215.023	5.883	851786	PROB	5.883	n/a	n/a	-999	8	[2, 1, 6]	9	FR1	0	R1057E
1220.906	5.981	854728	PROB	5.981	n/a	n/a	-999	8	[4, 2, 4]	10	FR1	0	R1057E
1226.887	0.003	857718	STOP	n/a	n/a	n/a	-999	8	[-999, -999, -999]	n/a	FR1	0	R1057E
1226.89	1.119	857720	DISTRACT_END	n/a	n/a	n/a	-999	8	[0, 0, 0]	n/a	FR1	0	R1057E
1228.009	13.483	858279	REC_START	n/a	n/a	n/a	-999	8	[0, 0, 0]	n/a	FR1	0	R1057E
1241.492	1.273	865020	REC_WORD	1.273	n/a	ROAD	1	8	[0, 0, 0]	n/a	FR1	0	R1057E
1242.765	15.252	865657	REC_WORD	15.252	n/a	LAND	-999	8	[0, 0, 0]	n/a	FR1	0	R1057E
1258.017	73.625	873283	REC_END	n/a	n/a	n/a	-999	8	[0, 0, 0]	n/a	FR1	0	R1057E
1331.642	0.0	910094	COUNTDOWN_START	n/a	n/a	n/a	-999	9	[0, 0, 0]	n/a	FR1	0	R1057E
1331.642	10.428	910094	TRIAL	n/a	n/a	n/a	-999	9	[0, 0, 0]	n/a	FR1	0	R1057E
1342.07	0.007	915308	COUNTDOWN_END	n/a	n/a	n/a	-999	9	[0, 0, 0]	n/a	FR1	0	R1057E
1342.077	2.617	915311	ORIENT	n/a	n/a	n/a	-999	9	[0, 0, 0]	n/a	FR1	0	R1057E
1344.694	2.434	916620	WORD	n/a	wordpools/wordpool_EN.txt	CROW	1	9	[0, 0, 0]	n/a	FR1	0	R1057E
1347.128	2.384	917837	WORD	n/a	wordpools/wordpool_EN.txt	ROOT	2	9	[0, 0, 0]	n/a	FR1	0	R1057E
1349.512	2.434	919029	WORD	n/a	wordpools/wordpool_EN.txt	PLANT	3	9	[0, 0, 0]	n/a	FR1	0	R1057E
1351.946	2.5	920246	WORD	n/a	wordpools/wordpool_EN.txt	CHIEF	4	9	[0, 0, 0]	n/a	FR1	0	R1057E
1354.446	2.467	921496	WORD	n/a	wordpools/wordpool_EN.txt	TEETH	5	9	[0, 0, 0]	n/a	FR1	0	R1057E
1356.913	2.617	922729	WORD	n/a	wordpools/wordpool_EN.txt	SHIELD	6	9	[0, 0, 0]	n/a	FR1	0	R1057E
1359.53	2.417	924038	WORD	n/a	wordpools/wordpool_EN.txt	CAVE	7	9	[0, 0, 0]	n/a	FR1	0	R1057E
1361.947	2.584	925246	WORD	n/a	wordpools/wordpool_EN.txt	WEED	8	9	[0, 0, 0]	n/a	FR1	0	R1057E
1364.531	2.485	926538	WORD	n/a	wordpools/wordpool_EN.txt	BRUSH	9	9	[0, 0, 0]	n/a	FR1	0	R1057E
1367.016	2.399	927780	WORD	n/a	wordpools/wordpool_EN.txt	PASTE	10	9	[0, 0, 0]	n/a	FR1	0	R1057E
1369.415	2.602	928980	WORD	n/a	wordpools/wordpool_EN.txt	SEAL	11	9	[0, 0, 0]	n/a	FR1	0	R1057E
1372.017	1.616	930281	WORD	n/a	wordpools/wordpool_EN.txt	FOAM	12	9	[0, 0, 0]	n/a	FR1	0	R1057E
1373.633	0.0	931089	DISTRACT_START	n/a	n/a	n/a	-999	9	[0, 0, 0]	n/a	FR1	0	R1057E
1373.633	0.016	931089	START	n/a	n/a	n/a	-999	9	[-999, -999, -999]	n/a	FR1	0	R1057E
1373.649	17.303	931097	PROB	17.303	n/a	n/a	-999	9	[2, 5, 9]	16	FR1	0	R1057E
1390.952	16.714	939748	PROB	16.714	n/a	n/a	-999	9	[8, 5, 9]	18	FR1	0	R1057E
1407.666	0.006	948105	STOP	n/a	n/a	n/a	-999	9	[-999, -999, -999]	n/a	FR1	0	R1057E
1407.672	1.234	948108	DISTRACT_END	n/a	n/a	n/a	-999	9	[0, 0, 0]	n/a	FR1	0	R1057E
1408.906	2.694	948725	REC_START	n/a	n/a	n/a	-999	9	[0, 0, 0]	n/a	FR1	0	R1057E
1411.6	0.662	950072	REC_WORD	0.662	n/a	SHIELD	6	9	[0, 0, 0]	n/a	FR1	0	R1057E
1412.262	3.715	950403	REC_WORD	3.715	n/a	ROAD	-999	9	[0, 0, 0]	n/a	FR1	0	R1057E
1415.977	22.941	952260	REC_WORD	22.941	n/a	LAND	-999	9	[0, 0, 0]	n/a	FR1	0	R1057E
1438.918	25.281	963730	REC_END	n/a	n/a	n/a	-999	9	[0, 0, 0]	n/a	FR1	0	R1057E
1464.199	0.0	976370	TRIAL	n/a	n/a	n/a	-999	10	[0, 0, 0]	n/a	FR1	0	R1057E
1464.199	10.428	976370	COUNTDOWN_START	n/a	n/a	n/a	-999	10	[0, 0, 0]	n/a	FR1	0	R1057E
1474.627	0.007	981584	COUNTDOWN_END	n/a	n/a	n/a	-999	10	[0, 0, 0]	n/a	FR1	0	R1057E
1474.634	2.617	981588	ORIENT	n/a	n/a	n/a	-999	10	[0, 0, 0]	n/a	FR1	0	R1057E
1477.251	2.6	982896	WORD	n/a	wordpools/wordpool_EN.txt	THREAD	1	10	[0, 0, 0]	n/a	FR1	0	R1057E
1479.851	2.567	984196	WORD	n/a	wordpools/wordpool_EN.txt	PIE	2	10	[0, 0, 0]	n/a	FR1	0	R1057E
1482.418	2.534	985480	WORD	n/a	wordpools/wordpool_EN.txt	WALL	3	10	[0, 0, 0]	n/a	FR1	0	R1057E
1484.952	2.584	986747	WORD	n/a	wordpools/wordpool_EN.txt	SUIT	4	10	[0, 0, 0]	n/a	FR1	0	R1057E
1487.536	2.485	988039	WORD	n/a	wordpools/wordpool_EN.txt	STEAK	5	10	[0, 0, 0]	n/a	FR1	0	R1057E
1490.021	2.566	989281	WORD	n/a	wordpools/wordpool_EN.txt	VASE	6	10	[0, 0, 0]	n/a	FR1	0	R1057E
1492.587	2.6	990564	WORD	n/a	wordpools/wordpool_EN.txt	SLUSH	7	10	[0, 0, 0]	n/a	FR1	0	R1057E
1495.187	2.467	991864	WORD	n/a	wordpools/wordpool_EN.txt	TOAST	8	10	[0, 0, 0]	n/a	FR1	0	R1057E
1497.654	2.584	993097	WORD	n/a	wordpools/wordpool_EN.txt	PHONE	9	10	[0, 0, 0]	n/a	FR1	0	R1057E
1500.238	2.567	994389	WORD	n/a	wordpools/wordpool_EN.txt	BAND	10	10	[0, 0, 0]	n/a	FR1	0	R1057E
1502.805	2.467	995673	WORD	n/a	wordpools/wordpool_EN.txt	MAIL	11	10	[0, 0, 0]	n/a	FR1	0	R1057E
1505.272	1.617	996906	WORD	n/a	wordpools/wordpool_EN.txt	SHRIMP	12	10	[0, 0, 0]	n/a	FR1	0	R1057E
1506.889	0.001	997715	DISTRACT_START	n/a	n/a	n/a	-999	10	[0, 0, 0]	n/a	FR1	0	R1057E
1506.89	0.016	997715	START	n/a	n/a	n/a	-999	10	[-999, -999, -999]	n/a	FR1	0	R1057E
1506.906	8.835	997723	PROB	8.835	n/a	n/a	-999	10	[4, 9, 6]	19	FR1	0	R1057E
1515.741	6.484	1002141	PROB	6.484	n/a	n/a	-999	10	[1, 1, 9]	11	FR1	0	R1057E
1522.225	11.214	1005383	PROB	11.214	n/a	n/a	-999	10	[3, 3, 6]	12	FR1	0	R1057E
1533.439	0.005	1010989	STOP	n/a	n/a	n/a	-999	10	[-999, -999, -999]	n/a	FR1	0	R1057E
1533.444	1.151	1010992	DISTRACT_END	n/a	n/a	n/a	-999	10	[0, 0, 0]	n/a	FR1	0	R1057E
1534.595	2.97	1011567	REC_START	n/a	n/a	n/a	-999	10	[0, 0, 0]	n/a	FR1	0	R1057E
1537.565	0.635	1013052	REC_WORD	0.635	n/a	OWL	-999	10	[0, 0, 0]	n/a	FR1	0	R1057E
1538.2	4.024	1013370	REC_WORD	4.024	n/a	THREAD	1	10	[0, 0, 0]	n/a	FR1	0	R1057E
1542.224	22.381	1015382	REC_WORD	22.381	n/a	SAND	-999	10	[0, 0, 0]	n/a	FR1	0	R1057E
1564.605	38.985	1026572	REC_END	n/a	n/a	n/a	-999	10	[0, 0, 0]	n/a	FR1	0	R1057E
1603.59	0.0	1046064	TRIAL	n/a	n/a	n/a	-999	11	[0, 0, 0]	n/a	FR1	0	R1057E
1603.59	10.428	1046064	COUNTDOWN_START	n/a	n/a	n/a	-999	11	[0, 0, 0]	n/a	FR1	0	R1057E
1614.018	0.008	1051278	COUNTDOWN_END	n/a	n/a	n/a	-999	11	[0, 0, 0]	n/a	FR1	0	R1057E
1614.026	2.566	1051282	ORIENT	n/a	n/a	n/a	-999	11	[0, 0, 0]	n/a	FR1	0	R1057E
1616.592	2.484	1052565	WORD	n/a	wordpools/wordpool_EN.txt	STEM	1	11	[0, 0, 0]	n/a	FR1	0	R1057E
1619.076	2.6	1053807	WORD	n/a	wordpools/wordpool_EN.txt	MOON	2	11	[0, 0, 0]	n/a	FR1	0	R1057E
1621.676	2.551	1055107	WORD	n/a	wordpools/wordpool_EN.txt	EGG	3	11	[0, 0, 0]	n/a	FR1	0	R1057E
1624.227	2.517	1056382	WORD	n/a	wordpools/wordpool_EN.txt	TOAD	4	11	[0, 0, 0]	n/a	FR1	0	R1057E
1626.744	2.567	1057640	WORD	n/a	wordpools/wordpool_EN.txt	LEAF	5	11	[0, 0, 0]	n/a	FR1	0	R1057E
1629.311	2.434	1058924	WORD	n/a	wordpools/wordpool_EN.txt	HORSE	6	11	[0, 0, 0]	n/a	FR1	0	R1057E
1631.745	2.583	1060141	WORD	n/a	wordpools/wordpool_EN.txt	CASH	7	11	[0, 0, 0]	n/a	FR1	0	R1057E
1634.328	2.418	1061432	WORD	n/a	wordpools/wordpool_EN.txt	POLE	8	11	[0, 0, 0]	n/a	FR1	0	R1057E
1636.746	2.567	1062641	WORD	n/a	wordpools/wordpool_EN.txt	CORD	9	11	[0, 0, 0]	n/a	FR1	0	R1057E
1639.313	2.533	1063925	WORD	n/a	wordpools/wordpool_EN.txt	BOOK	10	11	[0, 0, 0]	n/a	FR1	0	R1057E
1641.846	2.484	1065191	WORD	n/a	wordpools/wordpool_EN.txt	FUDGE	11	11	[0, 0, 0]	n/a	FR1	0	R1057E
1644.33	1.617	1066433	WORD	n/a	wordpools/wordpool_EN.txt	SEED	12	11	[0, 0, 0]	n/a	FR1	0	R1057E
1645.947	0.001	1067242	DISTRACT_START	n/a	n/a	n/a	-999	11	[0, 0, 0]	n/a	FR1	0	R1057E
1645.948	0.016	1067242	START	n/a	n/a	n/a	-999	11	[-999, -999, -999]	n/a	FR1	0	R1057E
1645.964	5.517	1067250	PROB	5.517	n/a	n/a	-999	11	[5, 5, 9]	19	FR1	0	R1057E
1651.481	5.768	1070009	PROB	5.768	n/a	n/a	-999	11	[3, 2, 5]	10	FR1	0	R1057E
1657.249	12.702	1072892	PROB	12.702	n/a	n/a	-999	11	[2, 9, 2]	13	FR1	0	R1057E
1669.951	0.017	1079243	STOP	n/a	n/a	n/a	-999	11	[-999, -999, -999]	n/a	FR1	0	R1057E
1669.968	1.085	1079252	DISTRACT_END	n/a	n/a	n/a	-999	11	[0, 0, 0]	n/a	FR1	0	R1057E
1671.053	11.79	1079794	REC_START	n/a	n/a	n/a	-999	11	[0, 0, 0]	n/a	FR1	0	R1057E
1682.843	3.02	1085689	REC_WORD	3.02	n/a	STEM	1	11	[0, 0, 0]	n/a	FR1	0	R1057E
1685.863	1.569	1087199	REC_WORD	1.569	n/a	CASH	7	11	[0, 0, 0]	n/a	FR1	0	R1057E
1687.432	2.998	1087984	REC_WORD	2.998	n/a	POLE	8	11	[0, 0, 0]	n/a	FR1	0	R1057E
1690.43	10.632	1089482	REC_WORD	10.632	n/a	MAIL	-999	11	[0, 0, 0]	n/a	FR1	0	R1057E
1701.062	9.413	1094798	REC_END	n/a	n/a	n/a	-999	11	[0, 0, 0]	n/a	FR1	0	R1057E
1710.475	0.0	1099505	TRIAL	n/a	n/a	n/a	-999	12	[0, 0, 0]	n/a	FR1	0	R1057E
1710.475	10.428	1099505	COUNTDOWN_START	n/a	n/a	n/a	-999	12	[0, 0, 0]	n/a	FR1	0	R1057E
1720.903	0.007	1104719	COUNTDOWN_END	n/a	n/a	n/a	-999	12	[0, 0, 0]	n/a	FR1	0	R1057E
1720.91	2.384	1104722	ORIENT	n/a	n/a	n/a	-999	12	[0, 0, 0]	n/a	FR1	0	R1057E
1723.294	2.434	1105914	WORD	n/a	wordpools/wordpool_EN.txt	SHIRT	1	12	[0, 0, 0]	n/a	FR1	0	R1057E
1725.728	2.383	1107131	WORD	n/a	wordpools/wordpool_EN.txt	FUR	2	12	[0, 0, 0]	n/a	FR1	0	R1057E
1728.111	2.501	1108322	WORD	n/a	wordpools/wordpool_EN.txt	RIB	3	12	[0, 0, 0]	n/a	FR1	0	R1057E
1730.612	2.418	1109573	WORD	n/a	wordpools/wordpool_EN.txt	POOL	4	12	[0, 0, 0]	n/a	FR1	0	R1057E
1733.03	2.466	1110782	WORD	n/a	wordpools/wordpool_EN.txt	SWORD	5	12	[0, 0, 0]	n/a	FR1	0	R1057E
1735.496	2.417	1112015	WORD	n/a	wordpools/wordpool_EN.txt	ARM	6	12	[0, 0, 0]	n/a	FR1	0	R1057E
1737.913	2.484	1113223	WORD	n/a	wordpools/wordpool_EN.txt	FAN	7	12	[0, 0, 0]	n/a	FR1	0	R1057E
1740.397	2.601	1114465	WORD	n/a	wordpools/wordpool_EN.txt	BOY	8	12	[0, 0, 0]	n/a	FR1	0	R1057E
1742.998	2.583	1115766	WORD	n/a	wordpools/wordpool_EN.txt	PURSE	9	12	[0, 0, 0]	n/a	FR1	0	R1057E
1745.581	2.384	1117057	WORD	n/a	wordpools/wordpool_EN.txt	ROPE	10	12	[0, 0, 0]	n/a	FR1	0	R1057E
1747.965	2.384	1118249	WORD	n/a	wordpools/wordpool_EN.txt	BUSH	11	12	[0, 0, 0]	n/a	FR1	0	R1057E
1750.349	1.617	1119441	WORD	n/a	wordpools/wordpool_EN.txt	FOOT	12	12	[0, 0, 0]	n/a	FR1	0	R1057E
1751.966	0.0	1120250	DISTRACT_START	n/a	n/a	n/a	-999	12	[0, 0, 0]	n/a	FR1	0	R1057E
1751.966	0.016	1120250	START	n/a	n/a	n/a	-999	12	[-999, -999, -999]	n/a	FR1	0	R1057E
1751.982	8.485	1120258	PROB	8.485	n/a	n/a	-999	12	[7, 8, 4]	19	FR1	0	R1057E
1760.467	6.335	1124500	PROB	6.335	n/a	n/a	-999	12	[2, 7, 8]	17	FR1	0	R1057E
1766.802	7.554	1127667	PROB	7.554	n/a	n/a	-999	12	[3, 1, 6]	10	FR1	0	R1057E
1774.356	0.013	1131444	STOP	n/a	n/a	n/a	-999	12	[-999, -999, -999]	n/a	FR1	0	R1057E
1774.369	1.201	1131451	DISTRACT_END	n/a	n/a	n/a	-999	12	[0, 0, 0]	n/a	FR1	0	R1057E
1775.57	3.684	1132051	REC_START	n/a	n/a	n/a	-999	12	[0, 0, 0]	n/a	FR1	0	R1057E
1779.254	26.327	1133893	REC_WORD	26.327	n/a	STEM	-999	12	[0, 0, 0]	n/a	FR1	0	R1057E
1805.581	17.448	1147056	REC_END	n/a	n/a	n/a	-999	12	[0, 0, 0]	n/a	FR1	0	R1057E
1823.029	0.0	1155780	TRIAL	n/a	n/a	n/a	-999	13	[0, 0, 0]	n/a	FR1	0	R1057E
1823.029	10.428	1155780	COUNTDOWN_START	n/a	n/a	n/a	-999	13	[0, 0, 0]	n/a	FR1	0	R1057E
1833.457	0.006	1160994	COUNTDOWN_END	n/a	n/a	n/a	-999	13	[0, 0, 0]	n/a	FR1	0	R1057E
1833.463	2.617	1160997	ORIENT	n/a	n/a	n/a	-999	13	[0, 0, 0]	n/a	FR1	0	R1057E
1836.08	2.417	1162305	WORD	n/a	wordpools/wordpool_EN.txt	JAR	1	13	[0, 0, 0]	n/a	FR1	0	R1057E
1838.497	2.535	1163514	WORD	n/a	wordpools/wordpool_EN.txt	STRAW	2	13	[0, 0, 0]	n/a	FR1	0	R1057E
1841.032	2.45	1164781	WORD	n/a	wordpools/wordpool_EN.txt	CHIN	3	13	[0, 0, 0]	n/a	FR1	0	R1057E
1843.482	2.583	1166006	WORD	n/a	wordpools/wordpool_EN.txt	BEAK	4	13	[0, 0, 0]	n/a	FR1	0	R1057E
1846.065	2.484	1167298	WORD	n/a	wordpools/wordpool_EN.txt	FACE	5	13	[0, 0, 0]	n/a	FR1	0	R1057E
1848.549	2.502	1168540	WORD	n/a	wordpools/wordpool_EN.txt	DOLL	6	13	[0, 0, 0]	n/a	FR1	0	R1057E
1851.051	2.382	1169791	WORD	n/a	wordpools/wordpool_EN.txt	YARD	7	13	[0, 0, 0]	n/a	FR1	0	R1057E
1853.433	2.417	1170981	WORD	n/a	wordpools/wordpool_EN.txt	CHEEK	8	13	[0, 0, 0]	n/a	FR1	0	R1057E
1855.85	2.568	1172190	WORD	n/a	wordpools/wordpool_EN.txt	TEA	9	13	[0, 0, 0]	n/a	FR1	0	R1057E
1858.418	2.517	1173474	WORD	n/a	wordpools/wordpool_EN.txt	SINK	10	13	[0, 0, 0]	n/a	FR1	0	R1057E
1860.935	2.434	1174732	WORD	n/a	wordpools/wordpool_EN.txt	CHAIR	11	13	[0, 0, 0]	n/a	FR1	0	R1057E
1863.369	1.616	1175949	WORD	n/a	wordpools/wordpool_EN.txt	BAG	12	13	[0, 0, 0]	n/a	FR1	0	R1057E
1864.985	0.001	1176757	DISTRACT_START	n/a	n/a	n/a	-999	13	[0, 0, 0]	n/a	FR1	0	R1057E
1864.986	0.017	1176758	START	n/a	n/a	n/a	-999	13	[-999, -999, -999]	n/a	FR1	0	R1057E
1865.003	9.951	1176766	PROB	9.951	n/a	n/a	-999	13	[3, 8, 9]	19	FR1	0	R1057E
1874.954	10.751	1181742	PROB	10.751	n/a	n/a	-999	13	[5, 6, 6]	18	FR1	0	R1057E
1885.705	0.017	1187117	STOP	n/a	n/a	n/a	-999	13	[-999, -999, -999]	n/a	FR1	0	R1057E
1885.722	1.118	1187125	DISTRACT_END	n/a	n/a	n/a	-999	13	[0, 0, 0]	n/a	FR1	0	R1057E
1886.84	3.475	1187684	REC_START	n/a	n/a	n/a	-999	13	[0, 0, 0]	n/a	FR1	0	R1057E
1890.315	1.991	1189422	REC_WORD	1.991	n/a	JAR	1	13	[0, 0, 0]	n/a	FR1	0	R1057E
1892.306	0.578	1190417	REC_WORD_VV	0.578	n/a	<>	-999	13	[0, 0, 0]	n/a	FR1	0	R1057E
1892.884	23.966	1190706	REC_WORD	23.966	n/a	CHIN	3	13	[0, 0, 0]	n/a	FR1	0	R1057E
1916.85	10.046	1202689	REC_END	n/a	n/a	n/a	-999	13	[0, 0, 0]	n/a	FR1	0	R1057E
1926.896	0.0	1207712	COUNTDOWN_START	n/a	n/a	n/a	-999	14	[0, 0, 0]	n/a	FR1	0	R1057E
1926.896	10.428	1207712	TRIAL	n/a	n/a	n/a	-999	14	[0, 0, 0]	n/a	FR1	0	R1057E
1937.324	0.007	1212926	COUNTDOWN_END	n/a	n/a	n/a	-999	14	[0, 0, 0]	n/a	FR1	0	R1057E
1937.331	2.618	1212929	ORIENT	n/a	n/a	n/a	-999	14	[0, 0, 0]	n/a	FR1	0	R1057E
1939.949	2.533	1214238	WORD	n/a	wordpools/wordpool_EN.txt	INK	1	14	[0, 0, 0]	n/a	FR1	0	R1057E
1942.482	2.484	1215505	WORD	n/a	wordpools/wordpool_EN.txt	FENCE	2	14	[0, 0, 0]	n/a	FR1	0	R1057E
1944.966	2.501	1216747	WORD	n/a	wordpools/wordpool_EN.txt	TRAY	3	14	[0, 0, 0]	n/a	FR1	0	R1057E
1947.467	2.617	1217997	WORD	n/a	wordpools/wordpool_EN.txt	STICK	4	14	[0, 0, 0]	n/a	FR1	0	R1057E
1950.084	2.567	1219306	WORD	n/a	wordpools/wordpool_EN.txt	STAIR	5	14	[0, 0, 0]	n/a	FR1	0	R1057E
1952.651	2.467	1220589	WORD	n/a	wordpools/wordpool_EN.txt	SHEEP	6	14	[0, 0, 0]	n/a	FR1	0	R1057E
1955.118	2.617	1221822	WORD	n/a	wordpools/wordpool_EN.txt	MUG	7	14	[0, 0, 0]	n/a	FR1	0	R1057E
1957.735	2.4	1223131	WORD	n/a	wordpools/wordpool_EN.txt	SHARK	8	14	[0, 0, 0]	n/a	FR1	0	R1057E
1960.135	2.384	1224331	WORD	n/a	wordpools/wordpool_EN.txt	ROSE	9	14	[0, 0, 0]	n/a	FR1	0	R1057E
1962.519	2.518	1225523	WORD	n/a	wordpools/wordpool_EN.txt	CANE	10	14	[0, 0, 0]	n/a	FR1	0	R1057E
1965.037	2.416	1226782	WORD	n/a	wordpools/wordpool_EN.txt	BARN	11	14	[0, 0, 0]	n/a	FR1	0	R1057E
1967.453	1.601	1227990	WORD	n/a	wordpools/wordpool_EN.txt	PEN	12	14	[0, 0, 0]	n/a	FR1	0	R1057E
1969.054	0.001	1228790	DISTRACT_START	n/a	n/a	n/a	-999	14	[0, 0, 0]	n/a	FR1	0	R1057E
1969.055	0.015	1228791	START	n/a	n/a	n/a	-999	14	[-999, -999, -999]	n/a	FR1	0	R1057E
1969.07	8.619	1228798	PROB	8.619	n/a	n/a	-999	14	[5, 8, 3]	16	FR1	0	R1057E
1977.689	9.501	1233108	PROB	9.501	n/a	n/a	-999	14	[8, 5, 9]	22	FR1	0	R1057E
1987.19	20.219	1237858	PROB	20.219	n/a	n/a	-999	14	[5, 6, 1]	12	FR1	0	R1057E
2007.409	0.018	1247967	STOP	n/a	n/a	n/a	-999	14	[-999, -999, -999]	n/a	FR1	0	R1057E
2007.427	1.117	1247976	DISTRACT_END	n/a	n/a	n/a	-999	14	[0, 0, 0]	n/a	FR1	0	R1057E
2008.544	4.295	1248535	REC_START	n/a	n/a	n/a	-999	14	[0, 0, 0]	n/a	FR1	0	R1057E
2012.839	18.766	1250682	REC_WORD	18.766	n/a	INK	1	14	[0, 0, 0]	n/a	FR1	0	R1057E
2031.605	6.949	1260065	REC_WORD	6.949	n/a	SHARK	8	14	[0, 0, 0]	n/a	FR1	0	R1057E
2038.554	25.9	1263539	REC_END	n/a	n/a	n/a	-999	14	[0, 0, 0]	n/a	FR1	0	R1057E
2064.454	0.0	1276489	TRIAL	n/a	n/a	n/a	-999	15	[0, 0, 0]	n/a	FR1	0	R1057E
2064.454	10.428	1276489	COUNTDOWN_START	n/a	n/a	n/a	-999	15	[0, 0, 0]	n/a	FR1	0	R1057E
2074.882	0.007	1281703	COUNTDOWN_END	n/a	n/a	n/a	-999	15	[0, 0, 0]	n/a	FR1	0	R1057E
2074.889	2.617	1281706	ORIENT	n/a	n/a	n/a	-999	15	[0, 0, 0]	n/a	FR1	0	R1057E
2077.506	2.584	1283015	WORD	n/a	wordpools/wordpool_EN.txt	FORK	1	15	[0, 0, 0]	n/a	FR1	0	R1057E
2080.09	2.417	1284307	WORD	n/a	wordpools/wordpool_EN.txt	BANK	2	15	[0, 0, 0]	n/a	FR1	0	R1057E
2082.507	2.584	1285515	WORD	n/a	wordpools/wordpool_EN.txt	SLEEVE	3	15	[0, 0, 0]	n/a	FR1	0	R1057E
2085.091	2.617	1286807	WORD	n/a	wordpools/wordpool_EN.txt	WAND	4	15	[0, 0, 0]	n/a	FR1	0	R1057E
2087.708	2.467	1288115	WORD	n/a	wordpools/wordpool_EN.txt	TOE	5	15	[0, 0, 0]	n/a	FR1	0	R1057E
2090.175	2.417	1289349	WORD	n/a	wordpools/wordpool_EN.txt	COUCH	6	15	[0, 0, 0]	n/a	FR1	0	R1057E
2092.592	2.617	1290557	WORD	n/a	wordpools/wordpool_EN.txt	GATE	7	15	[0, 0, 0]	n/a	FR1	0	R1057E
2095.209	2.417	1291866	WORD	n/a	wordpools/wordpool_EN.txt	STRING	8	15	[0, 0, 0]	n/a	FR1	0	R1057E
2097.626	2.484	1293074	WORD	n/a	wordpools/wordpool_EN.txt	VINE	9	15	[0, 0, 0]	n/a	FR1	0	R1057E
2100.11	2.517	1294316	WORD	n/a	wordpools/wordpool_EN.txt	SPEAR	10	15	[0, 0, 0]	n/a	FR1	0	R1057E
2102.627	2.385	1295575	WORD	n/a	wordpools/wordpool_EN.txt	TIE	11	15	[0, 0, 0]	n/a	FR1	0	R1057E
2105.012	1.616	1296767	WORD	n/a	wordpools/wordpool_EN.txt	PALM	12	15	[0, 0, 0]	n/a	FR1	0	R1057E
2106.628	0.001	1297575	DISTRACT_START	n/a	n/a	n/a	-999	15	[0, 0, 0]	n/a	FR1	0	R1057E
2106.629	0.015	1297576	START	n/a	n/a	n/a	-999	15	[-999, -999, -999]	n/a	FR1	0	R1057E
2106.644	20.61	1297583	PROB	20.61	n/a	n/a	-999	15	[8, 3, 3]	15	FR1	0	R1057E
2127.254	0.011	1307888	STOP	n/a	n/a	n/a	-999	15	[-999, -999, -999]	n/a	FR1	0	R1057E
2127.265	1.2	1307893	DISTRACT_END	n/a	n/a	n/a	-999	15	[0, 0, 0]	n/a	FR1	0	R1057E
2128.465	30.005	1308493	REC_START	n/a	n/a	n/a	-999	15	[0, 0, 0]	n/a	FR1	0	R1057E
2158.47	0.011	1323495	REC_WORD_VV	0.011	n/a	<>	-999	15	[0, 0, 0]	n/a	FR1	0	R1057E
2158.481	87.338	1323501	REC_END	n/a	n/a	n/a	-999	15	[0, 0, 0]	n/a	FR1	0	R1057E
2245.819	0.0	1367168	TRIAL	n/a	n/a	n/a	-999	16	[0, 0, 0]	n/a	FR1	0	R1057E
2245.819	10.428	1367168	COUNTDOWN_START	n/a	n/a	n/a	-999	16	[0, 0, 0]	n/a	FR1	0	R1057E
2256.247	0.007	1372382	COUNTDOWN_END	n/a	n/a	n/a	-999	16	[0, 0, 0]	n/a	FR1	0	R1057E
2256.254	2.583	1372386	ORIENT	n/a	n/a	n/a	-999	16	[0, 0, 0]	n/a	FR1	0	R1057E
2258.837	2.468	1373677	WORD	n/a	wordpools/wordpool_EN.txt	SHELL	1	16	[0, 0, 0]	n/a	FR1	0	R1057E
2261.305	2.534	1374911	WORD	n/a	wordpools/wordpool_EN.txt	GLASS	2	16	[0, 0, 0]	n/a	FR1	0	R1057E
2263.839	2.533	1376178	WORD	n/a	wordpools/wordpool_EN.txt	HOOF	3	16	[0, 0, 0]	n/a	FR1	0	R1057E
2266.372	2.551	1377445	WORD	n/a	wordpools/wordpool_EN.txt	ZOO	4	16	[0, 0, 0]	n/a	FR1	0	R1057E
2268.923	2.6	1378720	WORD	n/a	wordpools/wordpool_EN.txt	FLEA	5	16	[0, 0, 0]	n/a	FR1	0	R1057E
2271.523	2.502	1380020	WORD	n/a	wordpools/wordpool_EN.txt	SEA	6	16	[0, 0, 0]	n/a	FR1	0	R1057E
2274.025	2.616	1381271	WORD	n/a	wordpools/wordpool_EN.txt	CONE	7	16	[0, 0, 0]	n/a	FR1	0	R1057E
2276.641	2.617	1382579	WORD	n/a	wordpools/wordpool_EN.txt	BEACH	8	16	[0, 0, 0]	n/a	FR1	0	R1057E
2279.258	2.534	1383887	WORD	n/a	wordpools/wordpool_EN.txt	SNAIL	9	16	[0, 0, 0]	n/a	FR1	0	R1057E
2281.792	2.5	1385154	WORD	n/a	wordpools/wordpool_EN.txt	CLAY	10	16	[0, 0, 0]	n/a	FR1	0	R1057E
2284.292	2.567	1386404	WORD	n/a	wordpools/wordpool_EN.txt	SPONGE	11	16	[0, 0, 0]	n/a	FR1	0	R1057E
2286.859	1.617	1387688	WORD	n/a	wordpools/wordpool_EN.txt	WAVE	12	16	[0, 0, 0]	n/a	FR1	0	R1057E
2288.476	0.001	1388496	DISTRACT_START	n/a	n/a	n/a	-999	16	[0, 0, 0]	n/a	FR1	0	R1057E
2288.477	0.016	1388497	START	n/a	n/a	n/a	-999	16	[-999, -999, -999]	n/a	FR1	0	R1057E
2288.493	8.085	1388505	PROB	8.085	n/a	n/a	-999	16	[2, 9, 2]	13	FR1	0	R1057E
2296.578	4.217	1392547	PROB	4.217	n/a	n/a	-999	16	[2, 2, 5]	9	FR1	0	R1057E
2300.795	5.801	1394656	PROB	5.801	n/a	n/a	-999	16	[8, 6, 2]	16	FR1	0	R1057E
2306.596	8.036	1397556	PROB	8.036	n/a	n/a	-999	16	[6, 8, 4]	16	FR1	0	R1057E
2314.632	0.016	1401574	STOP	n/a	n/a	n/a	-999	16	[-999, -999, -999]	n/a	FR1	0	R1057E
2314.648	1.184	1401582	DISTRACT_END	n/a	n/a	n/a	-999	16	[0, 0, 0]	n/a	FR1	0	R1057E
2315.832	30.0	1402174	REC_START	n/a	n/a	n/a	-999	16	[0, 0, 0]	n/a	FR1	0	R1057E
2345.832	0.01	1417173	REC_WORD_VV	0.01	n/a	<>	-999	16	[0, 0, 0]	n/a	FR1	0	R1057E
2345.842	25.682	1417178	REC_END	n/a	n/a	n/a	-999	16	[0, 0, 0]	n/a	FR1	0	R1057E
2371.524	0.0	1430019	TRIAL	n/a	n/a	n/a	-999	17	[0, 0, 0]	n/a	FR1	0	R1057E
2371.524	10.428	1430019	COUNTDOWN_START	n/a	n/a	n/a	-999	17	[0, 0, 0]	n/a	FR1	0	R1057E
2381.952	0.007	1435233	COUNTDOWN_END	n/a	n/a	n/a	-999	17	[0, 0, 0]	n/a	FR1	0	R1057E
2381.959	2.501	1435236	ORIENT	n/a	n/a	n/a	-999	17	[0, 0, 0]	n/a	FR1	0	R1057E
2384.46	2.535	1436487	WORD	n/a	wordpools/wordpool_EN.txt	BEE	1	17	[0, 0, 0]	n/a	FR1	0	R1057E
2386.995	2.616	1437754	WORD	n/a	wordpools/wordpool_EN.txt	STORE	2	17	[0, 0, 0]	n/a	FR1	0	R1057E
2389.611	2.434	1439062	WORD	n/a	wordpools/wordpool_EN.txt	MOLE	3	17	[0, 0, 0]	n/a	FR1	0	R1057E
2392.045	2.6	1440279	WORD	n/a	wordpools/wordpool_EN.txt	ROCK	4	17	[0, 0, 0]	n/a	FR1	0	R1057E
2394.645	2.517	1441579	WORD	n/a	wordpools/wordpool_EN.txt	BIRD	5	17	[0, 0, 0]	n/a	FR1	0	R1057E
2397.162	2.6	1442838	WORD	n/a	wordpools/wordpool_EN.txt	BEAR	6	17	[0, 0, 0]	n/a	FR1	0	R1057E
2399.762	2.601	1444138	WORD	n/a	wordpools/wordpool_EN.txt	RAIN	7	17	[0, 0, 0]	n/a	FR1	0	R1057E
2402.363	2.584	1445438	WORD	n/a	wordpools/wordpool_EN.txt	APE	8	17	[0, 0, 0]	n/a	FR1	0	R1057E
2404.947	2.55	1446730	WORD	n/a	wordpools/wordpool_EN.txt	ANT	9	17	[0, 0, 0]	n/a	FR1	0	R1057E
2407.497	2.401	1448005	WORD	n/a	wordpools/wordpool_EN.txt	NEST	10	17	[0, 0, 0]	n/a	FR1	0	R1057E
2409.898	2.533	1449205	WORD	n/a	wordpools/wordpool_EN.txt	JAIL	11	17	[0, 0, 0]	n/a	FR1	0	R1057E
2412.431	1.602	1450472	WORD	n/a	wordpools/wordpool_EN.txt	RAT	12	17	[0, 0, 0]	n/a	FR1	0	R1057E
2414.033	0.0	1451273	DISTRACT_START	n/a	n/a	n/a	-999	17	[0, 0, 0]	n/a	FR1	0	R1057E
2414.033	0.016	1451273	START	n/a	n/a	n/a	-999	17	[-999, -999, -999]	n/a	FR1	0	R1057E
2414.049	8.051	1451281	PROB	8.051	n/a	n/a	-999	17	[6, 9, 4]	20	FR1	0	R1057E
2422.1	5.834	1455306	PROB	5.834	n/a	n/a	-999	17	[1, 1, 8]	10	FR1	0	R1057E
2427.934	15.998	1458223	PROB	15.998	n/a	n/a	-999	17	[6, 9, 6]	21	FR1	0	R1057E
2443.932	0.005	1466222	STOP	n/a	n/a	n/a	-999	17	[-999, -999, -999]	n/a	FR1	0	R1057E
2443.937	1.201	1466224	DISTRACT_END	n/a	n/a	n/a	-999	17	[0, 0, 0]	n/a	FR1	0	R1057E
2445.138	2.33	1466825	REC_START	n/a	n/a	n/a	-999	17	[0, 0, 0]	n/a	FR1	0	R1057E
2447.468	0.325	1467990	REC_WORD	0.325	n/a	BEE	1	17	[0, 0, 0]	n/a	FR1	0	R1057E
2447.793	0.857	1468152	REC_WORD	0.857	n/a	STORE	2	17	[0, 0, 0]	n/a	FR1	0	R1057E
2448.65	0.699	1468581	REC_WORD	0.699	n/a	MOLE	3	17	[0, 0, 0]	n/a	FR1	0	R1057E
2449.349	25.799	1468930	REC_WORD	25.799	n/a	ROCK	4	17	[0, 0, 0]	n/a	FR1	0	R1057E
2475.148	9.979	1481829	REC_END	n/a	n/a	n/a	-999	17	[0, 0, 0]	n/a	FR1	0	R1057E
2485.127	0.001	1486819	COUNTDOWN_START	n/a	n/a	n/a	-999	18	[0, 0, 0]	n/a	FR1	0	R1057E
2485.128	10.427	1486819	TRIAL	n/a	n/a	n/a	-999	18	[0, 0, 0]	n/a	FR1	0	R1057E
2495.555	0.008	1492033	COUNTDOWN_END	n/a	n/a	n/a	-999	18	[0, 0, 0]	n/a	FR1	0	R1057E
2495.563	2.55	1492037	ORIENT	n/a	n/a	n/a	-999	18	[0, 0, 0]	n/a	FR1	0	R1057E
2498.113	2.601	1493312	WORD	n/a	wordpools/wordpool_EN.txt	PIT	1	18	[0, 0, 0]	n/a	FR1	0	R1057E
2500.714	2.55	1494612	WORD	n/a	wordpools/wordpool_EN.txt	PEACH	2	18	[0, 0, 0]	n/a	FR1	0	R1057E
2503.264	2.484	1495887	WORD	n/a	wordpools/wordpool_EN.txt	FLUTE	3	18	[0, 0, 0]	n/a	FR1	0	R1057E
2505.748	2.384	1497129	WORD	n/a	wordpools/wordpool_EN.txt	CORN	4	18	[0, 0, 0]	n/a	FR1	0	R1057E
2508.132	2.483	1498321	WORD	n/a	wordpools/wordpool_EN.txt	JUDGE	5	18	[0, 0, 0]	n/a	FR1	0	R1057E
2510.615	2.584	1499562	WORD	n/a	wordpools/wordpool_EN.txt	CART	6	18	[0, 0, 0]	n/a	FR1	0	R1057E
2513.199	2.45	1500854	WORD	n/a	wordpools/wordpool_EN.txt	TREE	7	18	[0, 0, 0]	n/a	FR1	0	R1057E
2515.649	2.484	1502079	WORD	n/a	wordpools/wordpool_EN.txt	ROOM	8	18	[0, 0, 0]	n/a	FR1	0	R1057E
2518.133	2.617	1503321	WORD	n/a	wordpools/wordpool_EN.txt	STREET	9	18	[0, 0, 0]	n/a	FR1	0	R1057E
2520.75	2.451	1504630	WORD	n/a	wordpools/wordpool_EN.txt	BENCH	10	18	[0, 0, 0]	n/a	FR1	0	R1057E
2523.201	2.517	1505855	WORD	n/a	wordpools/wordpool_EN.txt	BOWL	11	18	[0, 0, 0]	n/a	FR1	0	R1057E
2525.718	1.617	1507114	WORD	n/a	wordpools/wordpool_EN.txt	FRUIT	12	18	[0, 0, 0]	n/a	FR1	0	R1057E
2527.335	0.001	1507922	DISTRACT_START	n/a	n/a	n/a	-999	18	[0, 0, 0]	n/a	FR1	0	R1057E
2527.336	0.015	1507923	START	n/a	n/a	n/a	-999	18	[-999, -999, -999]	n/a	FR1	0	R1057E
2527.351	9.586	1507930	PROB	9.586	n/a	n/a	-999	18	[3, 6, 6]	15	FR1	0	R1057E
2536.937	5.317	1512723	PROB	5.317	n/a	n/a	-999	18	[8, 1, 6]	24	FR1	0	R1057E
2542.254	18.294	1515381	PROB	18.294	n/a	n/a	-999	18	[7, 5, 1]	14	FR1	0	R1057E
2560.548	0.009	1524528	STOP	n/a	n/a	n/a	-999	18	[-999, -999, -999]	n/a	FR1	0	R1057E
2560.557	1.101	1524533	DISTRACT_END	n/a	n/a	n/a	-999	18	[0, 0, 0]	n/a	FR1	0	R1057E
2561.658	3.903	1525083	REC_START	n/a	n/a	n/a	-999	18	[0, 0, 0]	n/a	FR1	0	R1057E
2565.561	0.632	1527035	REC_WORD	0.632	n/a	PEACH	2	18	[0, 0, 0]	n/a	FR1	0	R1057E
2566.193	0.978	1527351	REC_WORD	0.978	n/a	BENCH	10	18	[0, 0, 0]	n/a	FR1	0	R1057E
2567.171	6.791	1527840	REC_WORD	6.791	n/a	BIRD	-999	18	[0, 0, 0]	n/a	FR1	0	R1057E
2573.962	17.707	1531235	REC_WORD	17.707	n/a	PARK	-999	18	[0, 0, 0]	n/a	FR1	0	R1057E
2591.669	68.722	1540088	REC_END	n/a	n/a	n/a	-999	18	[0, 0, 0]	n/a	FR1	0	R1057E
2660.391	0.001	1574448	COUNTDOWN_START	n/a	n/a	n/a	-999	19	[0, 0, 0]	n/a	FR1	0	R1057E
2660.392	10.427	1574449	TRIAL	n/a	n/a	n/a	-999	19	[0, 0, 0]	n/a	FR1	0	R1057E
2670.819	0.008	1579662	COUNTDOWN_END	n/a	n/a	n/a	-999	19	[0, 0, 0]	n/a	FR1	0	R1057E
2670.827	2.433	1579666	ORIENT	n/a	n/a	n/a	-999	19	[0, 0, 0]	n/a	FR1	0	R1057E
2673.26	2.584	1580882	WORD	n/a	wordpools/wordpool_EN.txt	LEG	1	19	[0, 0, 0]	n/a	FR1	0	R1057E
2675.844	2.434	1582174	WORD	n/a	wordpools/wordpool_EN.txt	SNAKE	2	19	[0, 0, 0]	n/a	FR1	0	R1057E
2678.278	2.5	1583391	WORD	n/a	wordpools/wordpool_EN.txt	NOSE	3	19	[0, 0, 0]	n/a	FR1	0	R1057E
2680.778	2.534	1584641	WORD	n/a	wordpools/wordpool_EN.txt	MOOSE	4	19	[0, 0, 0]	n/a	FR1	0	R1057E
2683.312	2.634	1585908	WORD	n/a	wordpools/wordpool_EN.txt	GOAT	5	19	[0, 0, 0]	n/a	FR1	0	R1057E
2685.946	2.533	1587225	WORD	n/a	wordpools/wordpool_EN.txt	MILK	6	19	[0, 0, 0]	n/a	FR1	0	R1057E
2688.479	2.552	1588492	WORD	n/a	wordpools/wordpool_EN.txt	CLIFF	7	19	[0, 0, 0]	n/a	FR1	0	R1057E
2691.031	2.583	1589768	WORD	n/a	wordpools/wordpool_EN.txt	MOUSE	8	19	[0, 0, 0]	n/a	FR1	0	R1057E
2693.614	2.385	1591059	WORD	n/a	wordpools/wordpool_EN.txt	GRASS	9	19	[0, 0, 0]	n/a	FR1	0	R1057E
2695.999	2.399	1592252	WORD	n/a	wordpools/wordpool_EN.txt	STOOL	10	19	[0, 0, 0]	n/a	FR1	0	R1057E
2698.398	2.517	1593451	WORD	n/a	wordpools/wordpool_EN.txt	CALF	11	19	[0, 0, 0]	n/a	FR1	0	R1057E
2700.915	1.617	1594710	WORD	n/a	wordpools/wordpool_EN.txt	WEB	12	19	[0, 0, 0]	n/a	FR1	0	R1057E
2702.532	0.001	1595518	DISTRACT_START	n/a	n/a	n/a	-999	19	[0, 0, 0]	n/a	FR1	0	R1057E
2702.533	0.016	1595519	START	n/a	n/a	n/a	-999	19	[-999, -999, -999]	n/a	FR1	0	R1057E
2702.549	13.319	1595527	PROB	13.319	n/a	n/a	-999	19	[6, 8, 4]	18	FR1	0	R1057E
2715.868	36.381	1602186	PROB	36.381	n/a	n/a	-999	19	[5, 7, 9]	21	FR1	0	R1057E
2752.249	0.009	1620376	STOP	n/a	n/a	n/a	-999	19	[-999, -999, -999]	n/a	FR1	0	R1057E
2752.258	1.15	1620380	DISTRACT_END	n/a	n/a	n/a	-999	19	[0, 0, 0]	n/a	FR1	0	R1057E
2753.408	12.361	1620955	REC_START	n/a	n/a	n/a	-999	19	[0, 0, 0]	n/a	FR1	0	R1057E
2765.769	0.929	1627136	REC_WORD	0.929	n/a	BIRD	-999	19	[0, 0, 0]	n/a	FR1	0	R1057E
2766.698	3.269	1627600	REC_WORD	3.269	n/a	SNAKE	2	19	[0, 0, 0]	n/a	FR1	0	R1057E
2769.967	4.321	1629234	REC_WORD	4.321	n/a	BENCH	-999	19	[0, 0, 0]	n/a	FR1	0	R1057E
2774.288	9.136	1631395	REC_WORD	9.136	n/a	WEB	12	19	[0, 0, 0]	n/a	FR1	0	R1057E
2783.424	57.882	1635963	REC_END	n/a	n/a	n/a	-999	19	[0, 0, 0]	n/a	FR1	0	R1057E
2841.306	0.001	1664903	COUNTDOWN_START	n/a	n/a	n/a	-999	20	[0, 0, 0]	n/a	FR1	0	R1057E
2841.307	10.427	1664903	TRIAL	n/a	n/a	n/a	-999	20	[0, 0, 0]	n/a	FR1	0	R1057E
2851.734	0.008	1670117	COUNTDOWN_END	n/a	n/a	n/a	-999	20	[0, 0, 0]	n/a	FR1	0	R1057E
2851.742	2.433	1670121	ORIENT	n/a	n/a	n/a	-999	20	[0, 0, 0]	n/a	FR1	0	R1057E
2854.175	2.434	1671337	WORD	n/a	wordpools/wordpool_EN.txt	MULE	1	20	[0, 0, 0]	n/a	FR1	0	R1057E
2856.609	2.551	1672554	WORD	n/a	wordpools/wordpool_EN.txt	FORT	2	20	[0, 0, 0]	n/a	FR1	0	R1057E
2859.16	2.45	1673830	WORD	n/a	wordpools/wordpool_EN.txt	PEA	3	20	[0, 0, 0]	n/a	FR1	0	R1057E
2861.61	2.385	1675055	WORD	n/a	wordpools/wordpool_EN.txt	HILL	4	20	[0, 0, 0]	n/a	FR1	0	R1057E
2863.995	2.416	1676247	WORD	n/a	wordpools/wordpool_EN.txt	HEN	5	20	[0, 0, 0]	n/a	FR1	0	R1057E
2866.411	2.585	1677455	WORD	n/a	wordpools/wordpool_EN.txt	MAT	6	20	[0, 0, 0]	n/a	FR1	0	R1057E
2868.996	2.566	1678747	WORD	n/a	wordpools/wordpool_EN.txt	PANTS	7	20	[0, 0, 0]	n/a	FR1	0	R1057E
2871.562	2.55	1680030	WORD	n/a	wordpools/wordpool_EN.txt	FOX	8	20	[0, 0, 0]	n/a	FR1	0	R1057E
2874.112	2.617	1681305	WORD	n/a	wordpools/wordpool_EN.txt	FLAG	9	20	[0, 0, 0]	n/a	FR1	0	R1057E
2876.729	2.501	1682614	WORD	n/a	wordpools/wordpool_EN.txt	SIGN	10	20	[0, 0, 0]	n/a	FR1	0	R1057E
2879.23	2.55	1683864	WORD	n/a	wordpools/wordpool_EN.txt	GUARD	11	20	[0, 0, 0]	n/a	FR1	0	R1057E
2881.78	1.617	1685139	WORD	n/a	wordpools/wordpool_EN.txt	HAWK	12	20	[0, 0, 0]	n/a	FR1	0	R1057E
2883.397	0.001	1685948	DISTRACT_START	n/a	n/a	n/a	-999	20	[0, 0, 0]	n/a	FR1	0	R1057E
2883.398	0.016	1685948	START	n/a	n/a	n/a	-999	20	[-999, -999, -999]	n/a	FR1	0	R1057E
2883.414	6.668	1685956	PROB	6.668	n/a	n/a	-999	20	[9, 1, 9]	19	FR1	0	R1057E
2890.082	12.669	1689290	PROB	12.669	n/a	n/a	-999	20	[5, 2, 3]	10	FR1	0	R1057E
2902.751	7.943	1695624	PROB	7.943	n/a	n/a	-999	20	[3, 4, 7]	14	FR1	0	R1057E
2910.694	0.008	1699596	STOP	n/a	n/a	n/a	-999	20	[-999, -999, -999]	n/a	FR1	0	R1057E
2910.702	1.067	1699600	DISTRACT_END	n/a	n/a	n/a	-999	20	[0, 0, 0]	n/a	FR1	0	R1057E
2911.769	2.525	1700133	REC_START	n/a	n/a	n/a	-999	20	[0, 0, 0]	n/a	FR1	0	R1057E
2914.294	0.325	1701396	REC_WORD_VV	0.325	n/a	<>	-999	20	[0, 0, 0]	n/a	FR1	0	R1057E
2914.619	0.891	1701558	REC_WORD	0.891	n/a	MILL	-999	20	[0, 0, 0]	n/a	FR1	0	R1057E
2915.51	1.887	1702004	REC_WORD	1.887	n/a	BEE	-999	20	[0, 0, 0]	n/a	FR1	0	R1057E
2917.397	0.815	1702947	REC_WORD	0.815	n/a	HILL	4	20	[0, 0, 0]	n/a	FR1	0	R1057E
2918.212	23.568	1703355	REC_WORD	23.568	n/a	SHIRT	-999	20	[0, 0, 0]	n/a	FR1	0	R1057E
2941.78	21.965	1715138	REC_END	n/a	n/a	n/a	-999	20	[0, 0, 0]	n/a	FR1	0	R1057E
2963.745	0.0	1726121	COUNTDOWN_START	n/a	n/a	n/a	-999	21	[0, 0, 0]	n/a	FR1	0	R1057E
2963.745	10.428	1726121	TRIAL	n/a	n/a	n/a	-999	21	[0, 0, 0]	n/a	FR1	0	R1057E
2974.173	0.007	1731334	COUNTDOWN_END	n/a	n/a	n/a	-999	21	[0, 0, 0]	n/a	FR1	0	R1057E
2974.18	2.567	1731338	ORIENT	n/a	n/a	n/a	-999	21	[0, 0, 0]	n/a	FR1	0	R1057E
2976.747	2.567	1732621	WORD	n/a	wordpools/wordpool_EN.txt	SEAT	1	21	[0, 0, 0]	n/a	FR1	0	R1057E
2979.314	2.6	1733905	WORD	n/a	wordpools/wordpool_EN.txt	DOOR	2	21	[0, 0, 0]	n/a	FR1	0	R1057E
2981.914	2.551	1735205	WORD	n/a	wordpools/wordpool_EN.txt	THUMB	3	21	[0, 0, 0]	n/a	FR1	0	R1057E
2984.465	2.5	1736480	WORD	n/a	wordpools/wordpool_EN.txt	BROOM	4	21	[0, 0, 0]	n/a	FR1	0	R1057E
2986.965	2.551	1737730	WORD	n/a	wordpools/wordpool_EN.txt	HAND	5	21	[0, 0, 0]	n/a	FR1	0	R1057E
2989.516	2.485	1739006	WORD	n/a	wordpools/wordpool_EN.txt	CRANE	6	21	[0, 0, 0]	n/a	FR1	0	R1057E
2992.001	2.449	1740248	WORD	n/a	wordpools/wordpool_EN.txt	TOOL	7	21	[0, 0, 0]	n/a	FR1	0	R1057E
2994.45	2.384	1741473	WORD	n/a	wordpools/wordpool_EN.txt	HOUSE	8	21	[0, 0, 0]	n/a	FR1	0	R1057E
2996.834	2.6	1742665	WORD	n/a	wordpools/wordpool_EN.txt	SHOE	9	21	[0, 0, 0]	n/a	FR1	0	R1057E
2999.434	2.551	1743964	WORD	n/a	wordpools/wordpool_EN.txt	HORN	10	21	[0, 0, 0]	n/a	FR1	0	R1057E
3001.985	2.6	1745240	WORD	n/a	wordpools/wordpool_EN.txt	LOCK	11	21	[0, 0, 0]	n/a	FR1	0	R1057E
3004.585	1.617	1746540	WORD	n/a	wordpools/wordpool_EN.txt	FROG	12	21	[0, 0, 0]	n/a	FR1	0	R1057E
3006.202	0.001	1747348	DISTRACT_START	n/a	n/a	n/a	-999	21	[0, 0, 0]	n/a	FR1	0	R1057E
3006.203	0.016	1747349	START	n/a	n/a	n/a	-999	21	[-999, -999, -999]	n/a	FR1	0	R1057E
3006.219	14.236	1747357	PROB	14.236	n/a	n/a	-999	21	[6, 7, 9]	22	FR1	0	R1057E
3020.455	7.115	1754475	PROB	7.115	n/a	n/a	-999	21	[5, 5, 1]	11	FR1	0	R1057E
3027.57	0.019	1758032	STOP	n/a	n/a	n/a	-999	21	[-999, -999, -999]	n/a	FR1	0	R1057E
3027.589	1.134	1758042	DISTRACT_END	n/a	n/a	n/a	-999	21	[0, 0, 0]	n/a	FR1	0	R1057E
3028.723	30.011	1758609	REC_START	n/a	n/a	n/a	-999	21	[0, 0, 0]	n/a	FR1	0	R1057E
3058.734	0.006	1773614	REC_WORD_VV	0.006	n/a	<>	-999	21	[0, 0, 0]	n/a	FR1	0	R1057E
3058.74	27.442	1773617	REC_END	n/a	n/a	n/a	-999	21	[0, 0, 0]	n/a	FR1	0	R1057E
3086.182	0.001	1787337	COUNTDOWN_START	n/a	n/a	n/a	-999	22	[0, 0, 0]	n/a	FR1	0	R1057E
3086.183	10.427	1787338	TRIAL	n/a	n/a	n/a	-999	22	[0, 0, 0]	n/a	FR1	0	R1057E
3096.61	0.008	1792551	COUNTDOWN_END	n/a	n/a	n/a	-999	22	[0, 0, 0]	n/a	FR1	0	R1057E
3096.618	2.55	1792555	ORIENT	n/a	n/a	n/a	-999	22	[0, 0, 0]	n/a	FR1	0	R1057E
3099.168	2.451	1793830	WORD	n/a	wordpools/wordpool_EN.txt	SAIL	1	22	[0, 0, 0]	n/a	FR1	0	R1057E
3101.619	2.484	1795055	WORD	n/a	wordpools/wordpool_EN.txt	SHIP	2	22	[0, 0, 0]	n/a	FR1	0	R1057E
3104.103	2.617	1796297	WORD	n/a	wordpools/wordpool_EN.txt	WORM	3	22	[0, 0, 0]	n/a	FR1	0	R1057E
3106.72	2.434	1797606	WORD	n/a	wordpools/wordpool_EN.txt	SLIME	4	22	[0, 0, 0]	n/a	FR1	0	R1057E
3109.154	2.467	1798823	WORD	n/a	wordpools/wordpool_EN.txt	STEAM	5	22	[0, 0, 0]	n/a	FR1	0	R1057E
3111.621	2.434	1800056	WORD	n/a	wordpools/wordpool_EN.txt	BOAT	6	22	[0, 0, 0]	n/a	FR1	0	R1057E
3114.055	2.6	1801273	WORD	n/a	wordpools/wordpool_EN.txt	HOOK	7	22	[0, 0, 0]	n/a	FR1	0	R1057E
3116.655	2.385	1802573	WORD	n/a	wordpools/wordpool_EN.txt	DESK	8	22	[0, 0, 0]	n/a	FR1	0	R1057E
3119.04	2.549	1803766	WORD	n/a	wordpools/wordpool_EN.txt	PEARL	9	22	[0, 0, 0]	n/a	FR1	0	R1057E
3121.589	2.401	1805040	WORD	n/a	wordpools/wordpool_EN.txt	WHEEL	10	22	[0, 0, 0]	n/a	FR1	0	R1057E
3123.99	2.533	1806241	WORD	n/a	wordpools/wordpool_EN.txt	FISH	11	22	[0, 0, 0]	n/a	FR1	0	R1057E
3126.523	1.617	1807507	WORD	n/a	wordpools/wordpool_EN.txt	DRESS	12	22	[0, 0, 0]	n/a	FR1	0	R1057E
3128.14	0.001	1808316	DISTRACT_START	n/a	n/a	n/a	-999	22	[0, 0, 0]	n/a	FR1	0	R1057E
3128.141	0.016	1808316	START	n/a	n/a	n/a	-999	22	[-999, -999, -999]	n/a	FR1	0	R1057E
3128.157	9.068	1808324	PROB	9.068	n/a	n/a	-999	22	[3, 6, 4]	19	FR1	0	R1057E
3137.225	5.718	1812858	PROB	5.718	n/a	n/a	-999	22	[3, 7, 5]	20	FR1	0	R1057E
3142.943	9.919	1815717	PROB	9.919	n/a	n/a	-999	22	[8, 7, 1]	16	FR1	0	R1057E
3152.862	0.016	1820676	STOP	n/a	n/a	n/a	-999	22	[-999, -999, -999]	n/a	FR1	0	R1057E
3152.878	1.168	1820684	DISTRACT_END	n/a	n/a	n/a	-999	22	[0, 0, 0]	n/a	FR1	0	R1057E
3154.046	3.966	1821268	REC_START	n/a	n/a	n/a	-999	22	[0, 0, 0]	n/a	FR1	0	R1057E
3158.012	0.195	1823251	REC_WORD_VV	0.195	n/a	<>	-999	22	[0, 0, 0]	n/a	FR1	0	R1057E
3158.207	0.856	1823349	REC_WORD	0.856	n/a	SAIL	1	22	[0, 0, 0]	n/a	FR1	0	R1057E
3159.063	3.348	1823777	REC_WORD	3.348	n/a	SHIP	2	22	[0, 0, 0]	n/a	FR1	0	R1057E
3162.411	0.2	1825450	REC_WORD_VV	0.2	n/a	<>	-999	22	[0, 0, 0]	n/a	FR1	0	R1057E
3162.611	21.446	1825550	REC_WORD	21.446	n/a	SNAIL	-999	22	[0, 0, 0]	n/a	FR1	0	R1057E
3184.057	2.877	1836273	REC_END	n/a	n/a	n/a	-999	22	[0, 0, 0]	n/a	FR1	0	R1057E
3186.934	0.0	1837712	TRIAL	n/a	n/a	n/a	-999	23	[0, 0, 0]	n/a	FR1	0	R1057E
3186.934	10.428	1837712	COUNTDOWN_START	n/a	n/a	n/a	-999	23	[0, 0, 0]	n/a	FR1	0	R1057E
3197.362	0.007	1842925	COUNTDOWN_END	n/a	n/a	n/a	-999	23	[0, 0, 0]	n/a	FR1	0	R1057E
3197.369	2.434	1842929	ORIENT	n/a	n/a	n/a	-999	23	[0, 0, 0]	n/a	FR1	0	R1057E
3199.803	2.45	1844146	WORD	n/a	wordpools/wordpool_EN.txt	HOSE	1	23	[0, 0, 0]	n/a	FR1	0	R1057E
3202.253	2.451	1845371	WORD	n/a	wordpools/wordpool_EN.txt	TRASH	2	23	[0, 0, 0]	n/a	FR1	0	R1057E
3204.704	2.583	1846596	WORD	n/a	wordpools/wordpool_EN.txt	TRUCK	3	23	[0, 0, 0]	n/a	FR1	0	R1057E
3207.287	2.434	1847888	WORD	n/a	wordpools/wordpool_EN.txt	SOUP	4	23	[0, 0, 0]	n/a	FR1	0	R1057E
3209.721	2.417	1849105	WORD	n/a	wordpools/wordpool_EN.txt	DRUM	5	23	[0, 0, 0]	n/a	FR1	0	R1057E
3212.138	2.451	1850313	WORD	n/a	wordpools/wordpool_EN.txt	SUN	6	23	[0, 0, 0]	n/a	FR1	0	R1057E
3214.589	2.418	1851539	WORD	n/a	wordpools/wordpool_EN.txt	PLATE	7	23	[0, 0, 0]	n/a	FR1	0	R1057E
3217.007	2.582	1852748	WORD	n/a	wordpools/wordpool_EN.txt	PIG	8	23	[0, 0, 0]	n/a	FR1	0	R1057E
3219.589	2.402	1854039	WORD	n/a	wordpools/wordpool_EN.txt	SALT	9	23	[0, 0, 0]	n/a	FR1	0	R1057E
3221.991	2.516	1855240	WORD	n/a	wordpools/wordpool_EN.txt	STONE	10	23	[0, 0, 0]	n/a	FR1	0	R1057E
3224.507	2.501	1856498	WORD	n/a	wordpools/wordpool_EN.txt	GRAPE	11	23	[0, 0, 0]	n/a	FR1	0	R1057E
3227.008	1.616	1857748	WORD	n/a	wordpools/wordpool_EN.txt	ELF	12	23	[0, 0, 0]	n/a	FR1	0	R1057E
3228.624	0.001	1858556	DISTRACT_START	n/a	n/a	n/a	-999	23	[0, 0, 0]	n/a	FR1	0	R1057E
3228.625	0.016	1858556	START	n/a	n/a	n/a	-999	23	[-999, -999, -999]	n/a	FR1	0	R1057E
3228.641	9.635	1858564	PROB	9.635	n/a	n/a	-999	23	[8, 8, 3]	19	FR1	0	R1057E
3238.276	5.151	1863382	PROB	5.151	n/a	n/a	-999	23	[8, 1, 1]	10	FR1	0	R1057E
3243.427	5.201	1865957	PROB	5.201	n/a	n/a	-999	23	[8, 7, 3]	18	FR1	0	R1057E
3248.628	8.488	1868558	PROB	8.488	n/a	n/a	-999	23	[3, 1, 3]	9	FR1	0	R1057E
3257.116	0.013	1872802	STOP	n/a	n/a	n/a	-999	23	[-999, -999, -999]	n/a	FR1	0	R1057E
3257.129	1.035	1872808	DISTRACT_END	n/a	n/a	n/a	-999	23	[0, 0, 0]	n/a	FR1	0	R1057E
3258.164	1.785	1873326	REC_START	n/a	n/a	n/a	-999	23	[0, 0, 0]	n/a	FR1	0	R1057E
3259.949	0.78	1874218	REC_WORD	0.78	n/a	HOSE	1	23	[0, 0, 0]	n/a	FR1	0	R1057E
3260.729	0.86	1874608	REC_WORD	0.86	n/a	TRASH	2	23	[0, 0, 0]	n/a	FR1	0	R1057E
3261.589	26.585	1875038	REC_WORD	26.585	n/a	TRUCK	3	23	[0, 0, 0]	n/a	FR1	0	R1057E
3288.174	3.245	1888330	REC_END	n/a	n/a	n/a	-999	23	[0, 0, 0]	n/a	FR1	0	R1057E
3291.419	0.0	1889953	TRIAL	n/a	n/a	n/a	-999	24	[0, 0, 0]	n/a	FR1	0	R1057E
3291.419	10.428	1889953	COUNTDOWN_START	n/a	n/a	n/a	-999	24	[0, 0, 0]	n/a	FR1	0	R1057E
3301.847	0.007	1895166	COUNTDOWN_END	n/a	n/a	n/a	-999	24	[0, 0, 0]	n/a	FR1	0	R1057E
3301.854	2.567	1895170	ORIENT	n/a	n/a	n/a	-999	24	[0, 0, 0]	n/a	FR1	0	R1057E
3304.421	2.501	1896453	WORD	n/a	wordpools/wordpool_EN.txt	DOG	1	24	[0, 0, 0]	n/a	FR1	0	R1057E
3306.922	2.4	1897704	WORD	n/a	wordpools/wordpool_EN.txt	PEAR	2	24	[0, 0, 0]	n/a	FR1	0	R1057E
3309.322	2.517	1898904	WORD	n/a	wordpools/wordpool_EN.txt	BREAD	3	24	[0, 0, 0]	n/a	FR1	0	R1057E
3311.839	2.434	1900162	WORD	n/a	wordpools/wordpool_EN.txt	TAIL	4	24	[0, 0, 0]	n/a	FR1	0	R1057E
3314.273	2.567	1901379	WORD	n/a	wordpools/wordpool_EN.txt	BRANCH	5	24	[0, 0, 0]	n/a	FR1	0	R1057E
3316.84	2.384	1902663	WORD	n/a	wordpools/wordpool_EN.txt	BEAN	6	24	[0, 0, 0]	n/a	FR1	0	R1057E
3319.224	2.617	1903855	WORD	n/a	wordpools/wordpool_EN.txt	BLOOM	7	24	[0, 0, 0]	n/a	FR1	0	R1057E
3321.841	2.55	1905163	WORD	n/a	wordpools/wordpool_EN.txt	FOOD	8	24	[0, 0, 0]	n/a	FR1	0	R1057E
3324.391	2.384	1906438	WORD	n/a	wordpools/wordpool_EN.txt	LAWN	9	24	[0, 0, 0]	n/a	FR1	0	R1057E
3326.775	2.384	1907630	WORD	n/a	wordpools/wordpool_EN.txt	RICE	10	24	[0, 0, 0]	n/a	FR1	0	R1057E
3329.159	2.45	1908822	WORD	n/a	wordpools/wordpool_EN.txt	EEL	11	24	[0, 0, 0]	n/a	FR1	0	R1057E
3331.609	1.617	1910047	WORD	n/a	wordpools/wordpool_EN.txt	MOTH	12	24	[0, 0, 0]	n/a	FR1	0	R1057E
3333.226	0.001	1910855	DISTRACT_START	n/a	n/a	n/a	-999	24	[0, 0, 0]	n/a	FR1	0	R1057E
3333.227	0.016	1910856	START	n/a	n/a	n/a	-999	24	[-999, -999, -999]	n/a	FR1	0	R1057E
3333.243	8.184	1910864	PROB	8.184	n/a	n/a	-999	24	[8, 3, 1]	12	FR1	0	R1057E
3341.427	7.269	1914956	PROB	7.269	n/a	n/a	-999	24	[8, 8, 2]	18	FR1	0	R1057E
3348.696	5.883	1918590	PROB	5.883	n/a	n/a	-999	24	[6, 7, 9]	15	FR1	0	R1057E
3354.579	0.017	1921532	STOP	n/a	n/a	n/a	-999	24	[-999, -999, -999]	n/a	FR1	0	R1057E
3354.596	1.085	1921540	DISTRACT_END	n/a	n/a	n/a	-999	24	[0, 0, 0]	n/a	FR1	0	R1057E
3355.681	2.178	1922083	REC_START	n/a	n/a	n/a	-999	24	[0, 0, 0]	n/a	FR1	0	R1057E
3357.859	0.972	1923172	REC_WORD	0.972	n/a	DOG	1	24	[0, 0, 0]	n/a	FR1	0	R1057E
3358.831	1.53	1923657	REC_WORD	1.53	n/a	EEL	11	24	[0, 0, 0]	n/a	FR1	0	R1057E
3360.361	0.774	1924422	REC_WORD	0.774	n/a	TRASH	-999	24	[0, 0, 0]	n/a	FR1	0	R1057E
3361.135	24.556	1924809	REC_WORD	24.556	n/a	TRUCK	-999	24	[0, 0, 0]	n/a	FR1	0	R1057E
3385.691	4.528	1937087	REC_END	n/a	n/a	n/a	-999	24	[0, 0, 0]	n/a	FR1	0	R1057E
3390.219	0.001	1939351	COUNTDOWN_START	n/a	n/a	n/a	-999	25	[0, 0, 0]	n/a	FR1	0	R1057E
3390.22	10.427	1939352	TRIAL	n/a	n/a	n/a	-999	25	[0, 0, 0]	n/a	FR1	0	R1057E
3400.647	0.008	1944565	COUNTDOWN_END	n/a	n/a	n/a	-999	25	[0, 0, 0]	n/a	FR1	0	R1057E
3400.655	2.533	1944569	ORIENT	n/a	n/a	n/a	-999	25	[0, 0, 0]	n/a	FR1	0	R1057E
3403.188	2.618	1945835	WORD	n/a	wordpools/wordpool_EN.txt	JUICE	1	25	[0, 0, 0]	n/a	FR1	0	R1057E
3405.806	2.617	1947144	WORD	n/a	wordpools/wordpool_EN.txt	DIME	2	25	[0, 0, 0]	n/a	FR1	0	R1057E
3408.423	2.618	1948453	WORD	n/a	wordpools/wordpool_EN.txt	BLUSH	3	25	[0, 0, 0]	n/a	FR1	0	R1057E
3411.041	2.616	1949762	WORD	n/a	wordpools/wordpool_EN.txt	DITCH	4	25	[0, 0, 0]	n/a	FR1	0	R1057E
3413.657	2.617	1951070	WORD	n/a	wordpools/wordpool_EN.txt	HOLE	5	25	[0, 0, 0]	n/a	FR1	0	R1057E
3416.274	2.584	1952378	WORD	n/a	wordpools/wordpool_EN.txt	STOVE	6	25	[0, 0, 0]	n/a	FR1	0	R1057E
3418.858	2.517	1953670	WORD	n/a	wordpools/wordpool_EN.txt	CAKE	7	25	[0, 0, 0]	n/a	FR1	0	R1057E
3421.375	2.618	1954929	WORD	n/a	wordpools/wordpool_EN.txt	BATH	8	25	[0, 0, 0]	n/a	FR1	0	R1057E
3423.993	2.599	1956237	WORD	n/a	wordpools/wordpool_EN.txt	GLOVE	9	25	[0, 0, 0]	n/a	FR1	0	R1057E
3426.592	2.501	1957537	WORD	n/a	wordpools/wordpool_EN.txt	SOAP	10	25	[0, 0, 0]	n/a	FR1	0	R1057E
3429.093	2.484	1958787	WORD	n/a	wordpools/wordpool_EN.txt	SOCK	11	25	[0, 0, 0]	n/a	FR1	0	R1057E
3431.577	1.617	1960029	WORD	n/a	wordpools/wordpool_EN.txt	CHALK	12	25	[0, 0, 0]	n/a	FR1	0	R1057E
3433.194	0.0	1960838	DISTRACT_START	n/a	n/a	n/a	-999	25	[0, 0, 0]	n/a	FR1	0	R1057E
3433.194	0.016	1960838	START	n/a	n/a	n/a	-999	25	[-999, -999, -999]	n/a	FR1	0	R1057E
3433.21	31.989	1960846	PROB	31.989	n/a	n/a	-999	25	[5, 8, 4]	12	FR1	0	R1057E
3465.199	0.017	1976840	STOP	n/a	n/a	n/a	-999	25	[-999, -999, -999]	n/a	FR1	0	R1057E
3465.216	1.034	1976848	DISTRACT_END	n/a	n/a	n/a	-999	25	[0, 0, 0]	n/a	FR1	0	R1057E
3466.25	29.994	1977365	REC_START	n/a	n/a	n/a	-999	25	[0, 0, 0]	n/a	FR1	0	R1057E
3496.244	0.015	1992362	REC_WORD_VV	0.015	n/a	<>	-999	25	[0, 0, 0]	n/a	FR1	0	R1057E
3496.259	44.937	1992369	REC_END	n/a	n/a	n/a	-999	25	[0, 0, 0]	n/a	FR1	0	R1057E
3541.196	0.0	2014837	SESS_END	n/a	n/a	n/a	-999	25	[0, 0, 0]	n/a	FR1	0	R1057E
