onset	duration	sample	trial_type	response_time	stim_file	item_name	serialpos	list	test	answer	experiment	session	subject
0.0	211.509	1320	INSTRUCT_START	n/a	n/a	n/a	-999	-999	[0, 0, 0]	n/a	FR1	0	R1415T
211.509	22.537	213111	INSTRUCT_END	n/a	n/a	n/a	-999	-999	[0, 0, 0]	n/a	FR1	0	R1415T
234.046	10.429	235665	COUNTDOWN_START	n/a	n/a	n/a	-999	-999	[0, 0, 0]	n/a	FR1	0	R1415T
244.475	1.124	246062	COUNTDOWN_END	n/a	n/a	n/a	-999	-999	[0, 0, 0]	n/a	FR1	0	R1415T
245.599	1.052	247185	ENCODING_START	n/a	n/a	n/a	-999	-1	[0, 0, 0]	n/a	FR1	0	R1415T
246.651	1.631	248243	WORD	n/a	n/a	BEAM	1	-1	[0, 0, 0]	n/a	FR1	0	R1415T
248.282	1.023	249862	WORD_OFF	n/a	n/a	BEAM	1	-1	[0, 0, 0]	n/a	FR1	0	R1415T
249.305	1.627	250891	WORD	n/a	n/a	COTTON	2	-1	[0, 0, 0]	n/a	FR1	0	R1415T
250.932	1.041	252510	WORD_OFF	n/a	n/a	COTTON	2	-1	[0, 0, 0]	n/a	FR1	0	R1415T
251.973	1.627	253558	WORD	n/a	n/a	RHINO	3	-1	[0, 0, 0]	n/a	FR1	0	R1415T
253.6	0.965	255177	WORD_OFF	n/a	n/a	RHINO	3	-1	[0, 0, 0]	n/a	FR1	0	R1415T
254.565	1.635	256160	WORD	n/a	n/a	WAGON	4	-1	[0, 0, 0]	n/a	FR1	0	R1415T
256.2	0.835	257779	WORD_OFF	n/a	n/a	WAGON	4	-1	[0, 0, 0]	n/a	FR1	0	R1415T
257.035	1.632	258631	WORD	n/a	n/a	WATCH	5	-1	[0, 0, 0]	n/a	FR1	0	R1415T
258.667	0.978	260250	WORD_OFF	n/a	n/a	WATCH	5	-1	[0, 0, 0]	n/a	FR1	0	R1415T
259.645	1.623	261232	WORD	n/a	n/a	BABY	6	-1	[0, 0, 0]	n/a	FR1	0	R1415T
261.268	1.014	262851	WORD_OFF	n/a	n/a	BABY	6	-1	[0, 0, 0]	n/a	FR1	0	R1415T
262.282	1.635	263881	WORD	n/a	n/a	CHEST	7	-1	[0, 0, 0]	n/a	FR1	0	R1415T
263.917	0.965	265500	WORD_OFF	n/a	n/a	CHEST	7	-1	[0, 0, 0]	n/a	FR1	0	R1415T
264.882	1.637	266482	WORD	n/a	n/a	TONGUE	8	-1	[0, 0, 0]	n/a	FR1	0	R1415T
266.519	0.99	268101	WORD_OFF	n/a	n/a	TONGUE	8	-1	[0, 0, 0]	n/a	FR1	0	R1415T
267.509	1.627	269093	WORD	n/a	n/a	RING	9	-1	[0, 0, 0]	n/a	FR1	0	R1415T
269.136	0.824	270712	WORD_OFF	n/a	n/a	RING	9	-1	[0, 0, 0]	n/a	FR1	0	R1415T
269.96	1.609	271545	WORD	n/a	n/a	FLOOD	10	-1	[0, 0, 0]	n/a	FR1	0	R1415T
271.569	0.972	273146	WORD_OFF	n/a	n/a	FLOOD	10	-1	[0, 0, 0]	n/a	FR1	0	R1415T
272.541	1.629	274128	WORD	n/a	n/a	IMAGE	11	-1	[0, 0, 0]	n/a	FR1	0	R1415T
274.17	0.817	275747	WORD_OFF	n/a	n/a	IMAGE	11	-1	[0, 0, 0]	n/a	FR1	0	R1415T
274.987	1.617	276580	WORD	n/a	n/a	CAMEL	12	-1	[0, 0, 0]	n/a	FR1	0	R1415T
276.604	0.0	278199	WORD_OFF	n/a	n/a	CAMEL	12	-1	[0, 0, 0]	n/a	FR1	0	R1415T
276.604	0.001	278199	ENCODING_END	n/a	n/a	n/a	-999	-1	[0, 0, 0]	n/a	FR1	0	R1415T
276.605	0.0	278199	DISTRACT_START	n/a	n/a	n/a	-999	-1	[0, 0, 0]	n/a	FR1	0	R1415T
276.605	0.016	278204	START	n/a	n/a	n/a	-999	-1	[-999, -999, -999]	n/a	FR1	0	R1415T
276.621	14.334	278220	PROB	14.334	n/a	n/a	-999	-1	[6, 7, 9]	22	FR1	0	R1415T
290.955	10.354	292553	PROB	10.354	n/a	n/a	-999	-1	[8, 8, 5]	21	FR1	0	R1415T
301.309	0.0	302887	DISTRACT_END	n/a	n/a	n/a	-999	-1	[0, 0, 0]	n/a	FR1	0	R1415T
301.29	2.27	302888	STOP	n/a	n/a	n/a	-999	-1	[-999, -999, -999]	n/a	FR1	0	R1415T
303.56	5.206	305152	REC_START	n/a	n/a	n/a	-999	-1	[0, 0, 0]	n/a	FR1	0	R1415T
308.766	1.0	310363	REC_WORD_VV	1.0	n/a	<>	-999	-1	[0, 0, 0]	n/a	FR1	0	R1415T
309.766	18.389	311363	REC_WORD_VV	18.389	n/a	<>	-999	-1	[0, 0, 0]	n/a	FR1	0	R1415T
328.155	5.418	329751	REC_WORD_VV	5.418	n/a	<>	-999	-1	[0, 0, 0]	n/a	FR1	0	R1415T
333.573	57.485	336830	REC_END	n/a	n/a	n/a	-999	-1	[0, 0, 0]	n/a	FR1	0	R1415T
391.058	10.43	392663	COUNTDOWN_START	n/a	n/a	n/a	-999	1	[0, 0, 0]	n/a	FR1	0	R1415T
401.488	1.238	403069	COUNTDOWN_END	n/a	n/a	n/a	-999	1	[0, 0, 0]	n/a	FR1	0	R1415T
402.726	1.056	404305	ENCODING_START	n/a	n/a	n/a	-999	1	[0, 0, 0]	n/a	FR1	0	R1415T
403.782	1.629	405362	WORD	n/a	wordpools/wordpool_EN.txt	CONE	1	1	[0, 0, 0]	n/a	FR1	0	R1415T
405.411	0.972	406981	WORD_OFF	n/a	n/a	CONE	1	1	[0, 0, 0]	n/a	FR1	0	R1415T
406.383	1.627	407964	WORD	n/a	wordpools/wordpool_EN.txt	SHRIMP	2	1	[0, 0, 0]	n/a	FR1	0	R1415T
408.01	1.098	409583	WORD_OFF	n/a	n/a	SHRIMP	2	1	[0, 0, 0]	n/a	FR1	0	R1415T
409.108	1.636	410697	WORD	n/a	wordpools/wordpool_EN.txt	GRAPE	3	1	[0, 0, 0]	n/a	FR1	0	R1415T
410.744	0.786	412316	WORD_OFF	n/a	n/a	GRAPE	3	1	[0, 0, 0]	n/a	FR1	0	R1415T
411.53	1.632	413120	WORD	n/a	wordpools/wordpool_EN.txt	SPARK	4	1	[0, 0, 0]	n/a	FR1	0	R1415T
413.162	0.951	414730	WORD_OFF	n/a	n/a	SPARK	4	1	[0, 0, 0]	n/a	FR1	0	R1415T
414.113	1.632	415703	WORD	n/a	wordpools/wordpool_EN.txt	BOOT	5	1	[0, 0, 0]	n/a	FR1	0	R1415T
415.745	1.135	417322	WORD_OFF	n/a	n/a	BOOT	5	1	[0, 0, 0]	n/a	FR1	0	R1415T
416.88	1.616	418464	WORD	n/a	wordpools/wordpool_EN.txt	PIE	6	1	[0, 0, 0]	n/a	FR1	0	R1415T
418.496	0.769	420064	WORD_OFF	n/a	n/a	PIE	6	1	[0, 0, 0]	n/a	FR1	0	R1415T
419.265	1.631	420851	WORD	n/a	wordpools/wordpool_EN.txt	KITE	7	1	[0, 0, 0]	n/a	FR1	0	R1415T
420.896	1.047	422470	WORD_OFF	n/a	n/a	KITE	7	1	[0, 0, 0]	n/a	FR1	0	R1415T
421.943	1.638	423536	WORD	n/a	wordpools/wordpool_EN.txt	SHOE	8	1	[0, 0, 0]	n/a	FR1	0	R1415T
423.581	1.05	425155	WORD_OFF	n/a	n/a	SHOE	8	1	[0, 0, 0]	n/a	FR1	0	R1415T
424.631	1.633	426222	WORD	n/a	wordpools/wordpool_EN.txt	WHEEL	9	1	[0, 0, 0]	n/a	FR1	0	R1415T
426.264	0.769	427832	WORD_OFF	n/a	n/a	WHEEL	9	1	[0, 0, 0]	n/a	FR1	0	R1415T
427.033	1.632	428618	WORD	n/a	wordpools/wordpool_EN.txt	FISH	10	1	[0, 0, 0]	n/a	FR1	0	R1415T
428.665	0.863	430237	WORD_OFF	n/a	n/a	FISH	10	1	[0, 0, 0]	n/a	FR1	0	R1415T
429.528	1.637	431117	WORD	n/a	wordpools/wordpool_EN.txt	FOG	11	1	[0, 0, 0]	n/a	FR1	0	R1415T
431.165	1.018	432736	WORD_OFF	n/a	n/a	FOG	11	1	[0, 0, 0]	n/a	FR1	0	R1415T
432.183	1.632	433765	WORD	n/a	wordpools/wordpool_EN.txt	CAPE	12	1	[0, 0, 0]	n/a	FR1	0	R1415T
433.815	0.001	435403	WORD_OFF	n/a	n/a	CAPE	12	1	[0, 0, 0]	n/a	FR1	0	R1415T
433.816	0.0	435403	ENCODING_END	n/a	n/a	n/a	-999	1	[0, 0, 0]	n/a	FR1	0	R1415T
433.816	0.0	435403	DISTRACT_START	n/a	n/a	n/a	-999	1	[0, 0, 0]	n/a	FR1	0	R1415T
433.816	0.015	435406	START	n/a	n/a	n/a	-999	1	[-999, -999, -999]	n/a	FR1	0	R1415T
433.831	8.853	435421	PROB	8.853	n/a	n/a	-999	1	[2, 5, 3]	10	FR1	0	R1415T
442.684	5.1	444274	PROB	5.1	n/a	n/a	-999	1	[4, 8, 9]	21	FR1	0	R1415T
447.784	5.619	449373	PROB	5.619	n/a	n/a	-999	1	[3, 4, 4]	11	FR1	0	R1415T
453.403	5.433	454992	PROB	5.433	n/a	n/a	-999	1	[1, 2, 5]	8	FR1	0	R1415T
458.836	0.0	460409	DISTRACT_END	n/a	n/a	n/a	-999	1	[0, 0, 0]	n/a	FR1	0	R1415T
458.821	2.434	460410	STOP	n/a	n/a	n/a	-999	1	[-999, -999, -999]	n/a	FR1	0	R1415T
461.255	4.718	462833	REC_START	n/a	n/a	n/a	-999	1	[0, 0, 0]	n/a	FR1	0	R1415T
465.973	1.0	467561	REC_WORD_VV	1.0	n/a	<>	-999	1	[0, 0, 0]	n/a	FR1	0	R1415T
466.973	3.913	468561	REC_WORD_VV	3.913	n/a	<>	-999	1	[0, 0, 0]	n/a	FR1	0	R1415T
470.886	4.357	472474	REC_WORD	4.357	n/a	SHOE	8	1	[0, 0, 0]	n/a	FR1	0	R1415T
475.243	10.237	476831	REC_WORD	10.237	n/a	WHEEL	9	1	[0, 0, 0]	n/a	FR1	0	R1415T
485.48	5.787	487067	REC_WORD	5.787	n/a	KITE	7	1	[0, 0, 0]	n/a	FR1	0	R1415T
491.267	39.084	492855	REC_END	n/a	n/a	n/a	-999	1	[0, 0, 0]	n/a	FR1	0	R1415T
530.351	10.428	531945	COUNTDOWN_START	n/a	n/a	n/a	-999	2	[0, 0, 0]	n/a	FR1	0	R1415T
540.779	1.106	542352	COUNTDOWN_END	n/a	n/a	n/a	-999	2	[0, 0, 0]	n/a	FR1	0	R1415T
541.885	1.059	543456	ENCODING_START	n/a	n/a	n/a	-999	2	[0, 0, 0]	n/a	FR1	0	R1415T
542.944	1.609	544514	WORD	n/a	wordpools/wordpool_EN.txt	PET	1	2	[0, 0, 0]	n/a	FR1	0	R1415T
544.553	0.93	546114	WORD_OFF	n/a	n/a	PET	1	2	[0, 0, 0]	n/a	FR1	0	R1415T
545.483	1.637	547068	WORD	n/a	wordpools/wordpool_EN.txt	WING	2	2	[0, 0, 0]	n/a	FR1	0	R1415T
547.12	0.991	548687	WORD_OFF	n/a	n/a	WING	2	2	[0, 0, 0]	n/a	FR1	0	R1415T
548.111	1.625	549679	WORD	n/a	wordpools/wordpool_EN.txt	CORN	3	2	[0, 0, 0]	n/a	FR1	0	R1415T
549.736	1.048	551298	WORD_OFF	n/a	n/a	CORN	3	2	[0, 0, 0]	n/a	FR1	0	R1415T
550.784	1.637	552365	WORD	n/a	wordpools/wordpool_EN.txt	FARM	4	2	[0, 0, 0]	n/a	FR1	0	R1415T
552.421	0.979	553984	WORD_OFF	n/a	n/a	FARM	4	2	[0, 0, 0]	n/a	FR1	0	R1415T
553.4	1.62	554967	WORD	n/a	wordpools/wordpool_EN.txt	WOLF	5	2	[0, 0, 0]	n/a	FR1	0	R1415T
555.02	0.997	556586	WORD_OFF	n/a	n/a	WOLF	5	2	[0, 0, 0]	n/a	FR1	0	R1415T
556.017	1.638	557606	WORD	n/a	wordpools/wordpool_EN.txt	HORN	6	2	[0, 0, 0]	n/a	FR1	0	R1415T
557.655	1.0	559216	WORD_OFF	n/a	n/a	HORN	6	2	[0, 0, 0]	n/a	FR1	0	R1415T
558.655	1.634	560236	WORD	n/a	wordpools/wordpool_EN.txt	TOAD	7	2	[0, 0, 0]	n/a	FR1	0	R1415T
560.289	1.089	561855	WORD_OFF	n/a	n/a	TOAD	7	2	[0, 0, 0]	n/a	FR1	0	R1415T
561.378	1.627	562950	WORD	n/a	wordpools/wordpool_EN.txt	FOAM	8	2	[0, 0, 0]	n/a	FR1	0	R1415T
563.005	0.771	564569	WORD_OFF	n/a	n/a	FOAM	8	2	[0, 0, 0]	n/a	FR1	0	R1415T
563.776	1.63	565355	WORD	n/a	wordpools/wordpool_EN.txt	LAMP	9	2	[0, 0, 0]	n/a	FR1	0	R1415T
565.406	1.112	566974	WORD_OFF	n/a	n/a	LAMP	9	2	[0, 0, 0]	n/a	FR1	0	R1415T
566.518	1.622	568088	WORD	n/a	wordpools/wordpool_EN.txt	SWORD	10	2	[0, 0, 0]	n/a	FR1	0	R1415T
568.14	0.792	569707	WORD_OFF	n/a	n/a	SWORD	10	2	[0, 0, 0]	n/a	FR1	0	R1415T
568.932	1.608	570502	WORD	n/a	wordpools/wordpool_EN.txt	FUR	11	2	[0, 0, 0]	n/a	FR1	0	R1415T
570.54	1.014	572102	WORD_OFF	n/a	n/a	FUR	11	2	[0, 0, 0]	n/a	FR1	0	R1415T
571.554	1.637	573132	WORD	n/a	wordpools/wordpool_EN.txt	PANTS	12	2	[0, 0, 0]	n/a	FR1	0	R1415T
573.191	0.001	574770	WORD_OFF	n/a	n/a	PANTS	12	2	[0, 0, 0]	n/a	FR1	0	R1415T
573.192	0.0	574770	ENCODING_END	n/a	n/a	n/a	-999	2	[0, 0, 0]	n/a	FR1	0	R1415T
573.192	0.0	574770	DISTRACT_START	n/a	n/a	n/a	-999	2	[0, 0, 0]	n/a	FR1	0	R1415T
573.192	0.016	574774	START	n/a	n/a	n/a	-999	2	[-999, -999, -999]	n/a	FR1	0	R1415T
573.208	9.168	574790	PROB	9.168	n/a	n/a	-999	2	[1, 3, 4]	8	FR1	0	R1415T
582.376	6.051	583957	PROB	6.051	n/a	n/a	-999	2	[7, 2, 7]	16	FR1	0	R1415T
588.427	7.852	590008	PROB	7.852	n/a	n/a	-999	2	[9, 3, 1]	13	FR1	0	R1415T
596.279	0.0	597838	DISTRACT_END	n/a	n/a	n/a	-999	2	[0, 0, 0]	n/a	FR1	0	R1415T
596.264	2.266	597845	STOP	n/a	n/a	n/a	-999	2	[-999, -999, -999]	n/a	FR1	0	R1415T
598.53	8.767	600103	REC_START	n/a	n/a	n/a	-999	2	[0, 0, 0]	n/a	FR1	0	R1415T
607.297	4.946	608877	REC_WORD	4.946	n/a	PET	1	2	[0, 0, 0]	n/a	FR1	0	R1415T
612.243	16.299	613823	REC_WORD	16.299	n/a	RING	-999	2	[0, 0, 0]	n/a	FR1	0	R1415T
628.542	10.612	630125	REC_END	n/a	n/a	n/a	-999	2	[0, 0, 0]	n/a	FR1	0	R1415T
639.154	10.428	640747	COUNTDOWN_START	n/a	n/a	n/a	-999	3	[0, 0, 0]	n/a	FR1	0	R1415T
649.582	1.057	651144	COUNTDOWN_END	n/a	n/a	n/a	-999	3	[0, 0, 0]	n/a	FR1	0	R1415T
650.639	0.887	652202	ENCODING_START	n/a	n/a	n/a	-999	3	[0, 0, 0]	n/a	FR1	0	R1415T
651.526	1.63	653100	WORD	n/a	wordpools/wordpool_EN.txt	SINK	1	3	[0, 0, 0]	n/a	FR1	0	R1415T
653.156	0.945	654719	WORD_OFF	n/a	n/a	SINK	1	3	[0, 0, 0]	n/a	FR1	0	R1415T
654.101	1.621	655664	WORD	n/a	wordpools/wordpool_EN.txt	BED	2	3	[0, 0, 0]	n/a	FR1	0	R1415T
655.722	1.082	657283	WORD_OFF	n/a	n/a	BED	2	3	[0, 0, 0]	n/a	FR1	0	R1415T
656.804	1.636	658378	WORD	n/a	wordpools/wordpool_EN.txt	MOTH	3	3	[0, 0, 0]	n/a	FR1	0	R1415T
658.44	1.061	659997	WORD_OFF	n/a	n/a	MOTH	3	3	[0, 0, 0]	n/a	FR1	0	R1415T
659.501	1.623	661064	WORD	n/a	wordpools/wordpool_EN.txt	MOLE	4	3	[0, 0, 0]	n/a	FR1	0	R1415T
661.124	1.095	662683	WORD_OFF	n/a	n/a	MOLE	4	3	[0, 0, 0]	n/a	FR1	0	R1415T
662.219	1.621	663778	WORD	n/a	wordpools/wordpool_EN.txt	DRUM	5	3	[0, 0, 0]	n/a	FR1	0	R1415T
663.84	1.135	665397	WORD_OFF	n/a	n/a	DRUM	5	3	[0, 0, 0]	n/a	FR1	0	R1415T
664.975	1.633	666548	WORD	n/a	wordpools/wordpool_EN.txt	WAND	6	3	[0, 0, 0]	n/a	FR1	0	R1415T
666.608	0.87	668167	WORD_OFF	n/a	n/a	WAND	6	3	[0, 0, 0]	n/a	FR1	0	R1415T
667.478	1.631	669047	WORD	n/a	wordpools/wordpool_EN.txt	SUN	7	3	[0, 0, 0]	n/a	FR1	0	R1415T
669.109	0.966	670666	WORD_OFF	n/a	n/a	SUN	7	3	[0, 0, 0]	n/a	FR1	0	R1415T
670.075	1.634	671649	WORD	n/a	wordpools/wordpool_EN.txt	BOWL	8	3	[0, 0, 0]	n/a	FR1	0	R1415T
671.709	1.127	673268	WORD_OFF	n/a	n/a	BOWL	8	3	[0, 0, 0]	n/a	FR1	0	R1415T
672.836	1.623	674400	WORD	n/a	wordpools/wordpool_EN.txt	PEARL	9	3	[0, 0, 0]	n/a	FR1	0	R1415T
674.459	0.86	676019	WORD_OFF	n/a	n/a	PEARL	9	3	[0, 0, 0]	n/a	FR1	0	R1415T
675.319	1.623	676880	WORD	n/a	wordpools/wordpool_EN.txt	SCHOOL	10	3	[0, 0, 0]	n/a	FR1	0	R1415T
676.942	1.035	678499	WORD_OFF	n/a	n/a	SCHOOL	10	3	[0, 0, 0]	n/a	FR1	0	R1415T
677.977	1.633	679547	WORD	n/a	wordpools/wordpool_EN.txt	STEM	11	3	[0, 0, 0]	n/a	FR1	0	R1415T
679.61	1.024	681166	WORD_OFF	n/a	n/a	STEM	11	3	[0, 0, 0]	n/a	FR1	0	R1415T
680.634	1.627	682205	WORD	n/a	wordpools/wordpool_EN.txt	NEST	12	3	[0, 0, 0]	n/a	FR1	0	R1415T
682.261	0.0	683833	WORD_OFF	n/a	n/a	NEST	12	3	[0, 0, 0]	n/a	FR1	0	R1415T
682.261	0.001	683833	ENCODING_END	n/a	n/a	n/a	-999	3	[0, 0, 0]	n/a	FR1	0	R1415T
682.262	0.0	683838	START	n/a	n/a	n/a	-999	3	[-999, -999, -999]	n/a	FR1	0	R1415T
682.262	0.015	683843	DISTRACT_START	n/a	n/a	n/a	-999	3	[0, 0, 0]	n/a	FR1	0	R1415T
682.277	7.852	683853	PROB	7.852	n/a	n/a	-999	3	[9, 5, 8]	22	FR1	0	R1415T
690.129	5.251	691704	PROB	5.251	n/a	n/a	-999	3	[2, 9, 2]	13	FR1	0	R1415T
695.38	7.135	696955	PROB	7.135	n/a	n/a	-999	3	[6, 7, 5]	18	FR1	0	R1415T
702.515	0.0	704076	DISTRACT_END	n/a	n/a	n/a	-999	3	[0, 0, 0]	n/a	FR1	0	R1415T
702.503	2.213	704077	STOP	n/a	n/a	n/a	-999	3	[-999, -999, -999]	n/a	FR1	0	R1415T
704.716	9.547	706284	REC_START	n/a	n/a	n/a	-999	3	[0, 0, 0]	n/a	FR1	0	R1415T
714.263	16.206	715837	REC_WORD	16.206	n/a	SCHOOL	10	3	[0, 0, 0]	n/a	FR1	0	R1415T
730.469	3.241	732042	REC_WORD	3.241	n/a	RING	-999	3	[0, 0, 0]	n/a	FR1	0	R1415T
733.71	1.017	735283	REC_WORD_VV	1.017	n/a	<>	-999	3	[0, 0, 0]	n/a	FR1	0	R1415T
734.727	10.596	736306	REC_END	n/a	n/a	n/a	-999	3	[0, 0, 0]	n/a	FR1	0	R1415T
745.323	10.428	746910	COUNTDOWN_START	n/a	n/a	n/a	-999	4	[0, 0, 0]	n/a	FR1	0	R1415T
755.751	1.123	757307	COUNTDOWN_END	n/a	n/a	n/a	-999	4	[0, 0, 0]	n/a	FR1	0	R1415T
756.874	1.105	758430	ENCODING_START	n/a	n/a	n/a	-999	4	[0, 0, 0]	n/a	FR1	0	R1415T
757.979	1.613	759544	WORD	n/a	wordpools/wordpool_EN.txt	TRUCK	1	4	[0, 0, 0]	n/a	FR1	0	R1415T
759.592	1.109	761144	WORD_OFF	n/a	n/a	TRUCK	1	4	[0, 0, 0]	n/a	FR1	0	R1415T
760.701	1.624	762257	WORD	n/a	wordpools/wordpool_EN.txt	SNOW	2	4	[0, 0, 0]	n/a	FR1	0	R1415T
762.325	0.938	763876	WORD_OFF	n/a	n/a	SNOW	2	4	[0, 0, 0]	n/a	FR1	0	R1415T
763.263	1.629	764831	WORD	n/a	wordpools/wordpool_EN.txt	POOL	3	4	[0, 0, 0]	n/a	FR1	0	R1415T
764.892	1.133	766450	WORD_OFF	n/a	n/a	POOL	3	4	[0, 0, 0]	n/a	FR1	0	R1415T
766.025	1.635	767592	WORD	n/a	wordpools/wordpool_EN.txt	FLOOR	4	4	[0, 0, 0]	n/a	FR1	0	R1415T
767.66	0.87	769211	WORD_OFF	n/a	n/a	FLOOR	4	4	[0, 0, 0]	n/a	FR1	0	R1415T
768.53	1.63	770100	WORD	n/a	wordpools/wordpool_EN.txt	SWAMP	5	4	[0, 0, 0]	n/a	FR1	0	R1415T
770.16	1.029	771710	WORD_OFF	n/a	n/a	SWAMP	5	4	[0, 0, 0]	n/a	FR1	0	R1415T
771.189	1.621	772748	WORD	n/a	wordpools/wordpool_EN.txt	SEA	6	4	[0, 0, 0]	n/a	FR1	0	R1415T
772.81	1.059	774367	WORD_OFF	n/a	n/a	SEA	6	4	[0, 0, 0]	n/a	FR1	0	R1415T
773.869	1.626	775434	WORD	n/a	wordpools/wordpool_EN.txt	CHEEK	7	4	[0, 0, 0]	n/a	FR1	0	R1415T
775.495	1.132	777044	WORD_OFF	n/a	n/a	CHEEK	7	4	[0, 0, 0]	n/a	FR1	0	R1415T
776.627	1.635	778195	WORD	n/a	wordpools/wordpool_EN.txt	PARK	8	4	[0, 0, 0]	n/a	FR1	0	R1415T
778.262	0.778	779814	WORD_OFF	n/a	n/a	PARK	8	4	[0, 0, 0]	n/a	FR1	0	R1415T
779.04	1.639	780609	WORD	n/a	wordpools/wordpool_EN.txt	GRASS	9	4	[0, 0, 0]	n/a	FR1	0	R1415T
780.679	1.04	782228	WORD_OFF	n/a	n/a	GRASS	9	4	[0, 0, 0]	n/a	FR1	0	R1415T
781.719	1.61	783277	WORD	n/a	wordpools/wordpool_EN.txt	TEETH	10	4	[0, 0, 0]	n/a	FR1	0	R1415T
783.329	1.105	784886	WORD_OFF	n/a	n/a	TEETH	10	4	[0, 0, 0]	n/a	FR1	0	R1415T
784.434	1.628	786000	WORD	n/a	wordpools/wordpool_EN.txt	PASTE	11	4	[0, 0, 0]	n/a	FR1	0	R1415T
786.062	1.118	787619	WORD_OFF	n/a	n/a	PASTE	11	4	[0, 0, 0]	n/a	FR1	0	R1415T
787.18	1.633	788751	WORD	n/a	wordpools/wordpool_EN.txt	HOLE	12	4	[0, 0, 0]	n/a	FR1	0	R1415T
788.813	0.0	790380	WORD_OFF	n/a	n/a	HOLE	12	4	[0, 0, 0]	n/a	FR1	0	R1415T
788.813	0.001	790380	ENCODING_END	n/a	n/a	n/a	-999	4	[0, 0, 0]	n/a	FR1	0	R1415T
788.814	0.0	790383	START	n/a	n/a	n/a	-999	4	[-999, -999, -999]	n/a	FR1	0	R1415T
788.814	0.015	790389	DISTRACT_START	n/a	n/a	n/a	-999	4	[0, 0, 0]	n/a	FR1	0	R1415T
788.829	6.235	790398	PROB	6.235	n/a	n/a	-999	4	[3, 3, 4]	10	FR1	0	R1415T
795.064	4.667	796633	PROB	4.667	n/a	n/a	-999	4	[2, 6, 6]	14	FR1	0	R1415T
799.731	4.469	801300	PROB	4.469	n/a	n/a	-999	4	[3, 4, 5]	12	FR1	0	R1415T
804.2	4.034	805768	PROB	4.034	n/a	n/a	-999	4	[2, 5, 9]	16	FR1	0	R1415T
808.234	3.715	809802	PROB	3.715	n/a	n/a	-999	4	[5, 4, 3]	12	FR1	0	R1415T
811.949	0.018	813517	STOP	n/a	n/a	n/a	-999	4	[-999, -999, -999]	n/a	FR1	0	R1415T
811.967	2.302	813523	DISTRACT_END	n/a	n/a	n/a	-999	4	[0, 0, 0]	n/a	FR1	0	R1415T
814.269	3.158	815825	REC_START	n/a	n/a	n/a	-999	4	[0, 0, 0]	n/a	FR1	0	R1415T
817.427	6.063	818995	REC_WORD	6.063	n/a	TRUCK	1	4	[0, 0, 0]	n/a	FR1	0	R1415T
823.49	5.842	825057	REC_WORD	5.842	n/a	TEETH	10	4	[0, 0, 0]	n/a	FR1	0	R1415T
829.332	10.241	830899	REC_WORD	10.241	n/a	FLOOR	4	4	[0, 0, 0]	n/a	FR1	0	R1415T
839.573	4.707	841139	REC_WORD	4.707	n/a	HOLE	12	4	[0, 0, 0]	n/a	FR1	0	R1415T
844.28	5.644	845847	REC_END	n/a	n/a	n/a	-999	4	[0, 0, 0]	n/a	FR1	0	R1415T
849.924	10.428	851509	COUNTDOWN_START	n/a	n/a	n/a	-999	5	[0, 0, 0]	n/a	FR1	0	R1415T
860.352	1.109	861907	COUNTDOWN_END	n/a	n/a	n/a	-999	5	[0, 0, 0]	n/a	FR1	0	R1415T
861.461	1.147	863011	ENCODING_START	n/a	n/a	n/a	-999	5	[0, 0, 0]	n/a	FR1	0	R1415T
862.608	1.636	864171	WORD	n/a	wordpools/wordpool_EN.txt	NOSE	1	5	[0, 0, 0]	n/a	FR1	0	R1415T
864.244	0.838	865790	WORD_OFF	n/a	n/a	NOSE	1	5	[0, 0, 0]	n/a	FR1	0	R1415T
865.082	1.629	866642	WORD	n/a	wordpools/wordpool_EN.txt	SNAKE	2	5	[0, 0, 0]	n/a	FR1	0	R1415T
866.711	0.912	868261	WORD_OFF	n/a	n/a	SNAKE	2	5	[0, 0, 0]	n/a	FR1	0	R1415T
867.623	1.622	869178	WORD	n/a	wordpools/wordpool_EN.txt	RICE	3	5	[0, 0, 0]	n/a	FR1	0	R1415T
869.245	0.957	870797	WORD_OFF	n/a	n/a	RICE	3	5	[0, 0, 0]	n/a	FR1	0	R1415T
870.202	1.626	871761	WORD	n/a	wordpools/wordpool_EN.txt	TRASH	4	5	[0, 0, 0]	n/a	FR1	0	R1415T
871.828	0.841	873380	WORD_OFF	n/a	n/a	TRASH	4	5	[0, 0, 0]	n/a	FR1	0	R1415T
872.669	1.627	874222	WORD	n/a	wordpools/wordpool_EN.txt	BAND	5	5	[0, 0, 0]	n/a	FR1	0	R1415T
874.296	0.963	875841	WORD_OFF	n/a	n/a	BAND	5	5	[0, 0, 0]	n/a	FR1	0	R1415T
875.259	1.636	876824	WORD	n/a	wordpools/wordpool_EN.txt	SIGN	6	5	[0, 0, 0]	n/a	FR1	0	R1415T
876.895	1.116	878443	WORD_OFF	n/a	n/a	SIGN	6	5	[0, 0, 0]	n/a	FR1	0	R1415T
878.011	1.636	879575	WORD	n/a	wordpools/wordpool_EN.txt	LOCK	7	5	[0, 0, 0]	n/a	FR1	0	R1415T
879.647	0.823	881194	WORD_OFF	n/a	n/a	LOCK	7	5	[0, 0, 0]	n/a	FR1	0	R1415T
880.47	1.627	882027	WORD	n/a	wordpools/wordpool_EN.txt	RIB	8	5	[0, 0, 0]	n/a	FR1	0	R1415T
882.097	0.922	883646	WORD_OFF	n/a	n/a	RIB	8	5	[0, 0, 0]	n/a	FR1	0	R1415T
883.019	1.628	884573	WORD	n/a	wordpools/wordpool_EN.txt	DUCK	9	5	[0, 0, 0]	n/a	FR1	0	R1415T
884.647	1.119	886192	WORD_OFF	n/a	n/a	DUCK	9	5	[0, 0, 0]	n/a	FR1	0	R1415T
885.766	1.632	887324	WORD	n/a	wordpools/wordpool_EN.txt	SHIP	10	5	[0, 0, 0]	n/a	FR1	0	R1415T
887.398	0.905	888943	WORD_OFF	n/a	n/a	SHIP	10	5	[0, 0, 0]	n/a	FR1	0	R1415T
888.303	1.628	889860	WORD	n/a	wordpools/wordpool_EN.txt	DOG	11	5	[0, 0, 0]	n/a	FR1	0	R1415T
889.931	0.775	891479	WORD_OFF	n/a	n/a	DOG	11	5	[0, 0, 0]	n/a	FR1	0	R1415T
890.706	1.626	892266	WORD	n/a	wordpools/wordpool_EN.txt	FACE	12	5	[0, 0, 0]	n/a	FR1	0	R1415T
892.332	0.001	893894	WORD_OFF	n/a	n/a	FACE	12	5	[0, 0, 0]	n/a	FR1	0	R1415T
892.333	0.0	893894	ENCODING_END	n/a	n/a	n/a	-999	5	[0, 0, 0]	n/a	FR1	0	R1415T
892.333	0.0	893896	START	n/a	n/a	n/a	-999	5	[-999, -999, -999]	n/a	FR1	0	R1415T
892.333	0.016	893903	DISTRACT_START	n/a	n/a	n/a	-999	5	[0, 0, 0]	n/a	FR1	0	R1415T
892.349	8.4	893912	PROB	8.4	n/a	n/a	-999	5	[8, 1, 2]	11	FR1	0	R1415T
900.749	4.336	902312	PROB	4.336	n/a	n/a	-999	5	[4, 1, 4]	9	FR1	0	R1415T
905.085	3.799	906648	PROB	3.799	n/a	n/a	-999	5	[1, 9, 3]	13	FR1	0	R1415T
908.884	6.486	910446	PROB	6.486	n/a	n/a	-999	5	[7, 3, 9]	19	FR1	0	R1415T
915.37	0.0	916916	DISTRACT_END	n/a	n/a	n/a	-999	5	[0, 0, 0]	n/a	FR1	0	R1415T
915.358	2.213	916920	STOP	n/a	n/a	n/a	-999	5	[-999, -999, -999]	n/a	FR1	0	R1415T
917.571	21.902	919124	REC_START	n/a	n/a	n/a	-999	5	[0, 0, 0]	n/a	FR1	0	R1415T
939.473	8.109	941033	REC_WORD_VV	8.109	n/a	<>	-999	5	[0, 0, 0]	n/a	FR1	0	R1415T
947.582	8.113	949146	REC_END	n/a	n/a	n/a	-999	5	[0, 0, 0]	n/a	FR1	0	R1415T
955.695	10.428	957270	COUNTDOWN_START	n/a	n/a	n/a	-999	6	[0, 0, 0]	n/a	FR1	0	R1415T
966.123	1.124	967667	COUNTDOWN_END	n/a	n/a	n/a	-999	6	[0, 0, 0]	n/a	FR1	0	R1415T
967.247	0.779	968790	ENCODING_START	n/a	n/a	n/a	-999	6	[0, 0, 0]	n/a	FR1	0	R1415T
968.026	1.637	969585	WORD	n/a	wordpools/wordpool_EN.txt	NAIL	1	6	[0, 0, 0]	n/a	FR1	0	R1415T
969.663	0.85	971204	WORD_OFF	n/a	n/a	NAIL	1	6	[0, 0, 0]	n/a	FR1	0	R1415T
970.513	1.634	972075	WORD	n/a	wordpools/wordpool_EN.txt	RAT	2	6	[0, 0, 0]	n/a	FR1	0	R1415T
972.147	0.816	973694	WORD_OFF	n/a	n/a	RAT	2	6	[0, 0, 0]	n/a	FR1	0	R1415T
972.963	1.634	974527	WORD	n/a	wordpools/wordpool_EN.txt	HAWK	3	6	[0, 0, 0]	n/a	FR1	0	R1415T
974.597	1.003	976136	WORD_OFF	n/a	n/a	HAWK	3	6	[0, 0, 0]	n/a	FR1	0	R1415T
975.6	1.631	977156	WORD	n/a	wordpools/wordpool_EN.txt	CHAIR	4	6	[0, 0, 0]	n/a	FR1	0	R1415T
977.231	1.133	978775	WORD_OFF	n/a	n/a	CHAIR	4	6	[0, 0, 0]	n/a	FR1	0	R1415T
978.364	1.633	979926	WORD	n/a	wordpools/wordpool_EN.txt	ZOO	5	6	[0, 0, 0]	n/a	FR1	0	R1415T
979.997	0.895	981536	WORD_OFF	n/a	n/a	ZOO	5	6	[0, 0, 0]	n/a	FR1	0	R1415T
980.892	1.606	982444	WORD	n/a	wordpools/wordpool_EN.txt	COIN	6	6	[0, 0, 0]	n/a	FR1	0	R1415T
982.498	0.868	984044	WORD_OFF	n/a	n/a	COIN	6	6	[0, 0, 0]	n/a	FR1	0	R1415T
983.366	1.632	984924	WORD	n/a	wordpools/wordpool_EN.txt	CART	7	6	[0, 0, 0]	n/a	FR1	0	R1415T
984.998	1.088	986543	WORD_OFF	n/a	n/a	CART	7	6	[0, 0, 0]	n/a	FR1	0	R1415T
986.086	1.63	987638	WORD	n/a	wordpools/wordpool_EN.txt	MAZE	8	6	[0, 0, 0]	n/a	FR1	0	R1415T
987.716	1.034	989257	WORD_OFF	n/a	n/a	MAZE	8	6	[0, 0, 0]	n/a	FR1	0	R1415T
988.75	1.617	990305	WORD	n/a	wordpools/wordpool_EN.txt	SLUSH	9	6	[0, 0, 0]	n/a	FR1	0	R1415T
990.367	1.037	991905	WORD_OFF	n/a	n/a	SLUSH	9	6	[0, 0, 0]	n/a	FR1	0	R1415T
991.404	1.629	992953	WORD	n/a	wordpools/wordpool_EN.txt	FLEA	10	6	[0, 0, 0]	n/a	FR1	0	R1415T
993.033	1.123	994572	WORD_OFF	n/a	n/a	FLEA	10	6	[0, 0, 0]	n/a	FR1	0	R1415T
994.156	1.627	995705	WORD	n/a	wordpools/wordpool_EN.txt	STOOL	11	6	[0, 0, 0]	n/a	FR1	0	R1415T
995.783	0.876	997324	WORD_OFF	n/a	n/a	STOOL	11	6	[0, 0, 0]	n/a	FR1	0	R1415T
996.659	1.626	998213	WORD	n/a	wordpools/wordpool_EN.txt	CAR	12	6	[0, 0, 0]	n/a	FR1	0	R1415T
998.285	0.0	999841	WORD_OFF	n/a	n/a	CAR	12	6	[0, 0, 0]	n/a	FR1	0	R1415T
998.285	0.0	999841	ENCODING_END	n/a	n/a	n/a	-999	6	[0, 0, 0]	n/a	FR1	0	R1415T
998.285	0.001	999841	DISTRACT_START	n/a	n/a	n/a	-999	6	[0, 0, 0]	n/a	FR1	0	R1415T
998.286	0.015	999843	START	n/a	n/a	n/a	-999	6	[-999, -999, -999]	n/a	FR1	0	R1415T
998.301	5.885	999858	PROB	5.885	n/a	n/a	-999	6	[7, 6, 9]	22	FR1	0	R1415T
1004.186	4.084	1005743	PROB	4.084	n/a	n/a	-999	6	[3, 3, 2]	8	FR1	0	R1415T
1008.27	5.051	1009826	PROB	5.051	n/a	n/a	-999	6	[4, 6, 4]	14	FR1	0	R1415T
1013.321	4.334	1014877	PROB	4.334	n/a	n/a	-999	6	[6, 2, 1]	9	FR1	0	R1415T
1017.655	4.604	1019211	PROB	4.604	n/a	n/a	-999	6	[5, 7, 5]	17	FR1	0	R1415T
1022.259	0.014	1023815	STOP	n/a	n/a	n/a	-999	6	[-999, -999, -999]	n/a	FR1	0	R1415T
1022.273	2.117	1023818	DISTRACT_END	n/a	n/a	n/a	-999	6	[0, 0, 0]	n/a	FR1	0	R1415T
1024.39	2.365	1025942	REC_START	n/a	n/a	n/a	-999	6	[0, 0, 0]	n/a	FR1	0	R1415T
1026.755	3.673	1028310	REC_WORD	3.673	n/a	RAT	2	6	[0, 0, 0]	n/a	FR1	0	R1415T
1030.428	7.533	1031983	REC_WORD	7.533	n/a	NAIL	1	6	[0, 0, 0]	n/a	FR1	0	R1415T
1037.961	5.617	1039516	REC_WORD	5.617	n/a	ZOO	5	6	[0, 0, 0]	n/a	FR1	0	R1415T
1043.578	5.88	1045132	REC_WORD_VV	5.88	n/a	<>	-999	6	[0, 0, 0]	n/a	FR1	0	R1415T
1049.458	4.944	1051012	REC_WORD	4.944	n/a	PET	-999	6	[0, 0, 0]	n/a	FR1	0	R1415T
1054.402	6.411	1055955	REC_END	n/a	n/a	n/a	-999	6	[0, 0, 0]	n/a	FR1	0	R1415T
1060.813	10.429	1062384	COUNTDOWN_START	n/a	n/a	n/a	-999	7	[0, 0, 0]	n/a	FR1	0	R1415T
1071.242	1.107	1072781	COUNTDOWN_END	n/a	n/a	n/a	-999	7	[0, 0, 0]	n/a	FR1	0	R1415T
1072.349	1.148	1073886	ENCODING_START	n/a	n/a	n/a	-999	7	[0, 0, 0]	n/a	FR1	0	R1415T
1073.497	1.635	1075055	WORD	n/a	wordpools/wordpool_EN.txt	BIRD	1	7	[0, 0, 0]	n/a	FR1	0	R1415T
1075.132	0.951	1076665	WORD_OFF	n/a	n/a	BIRD	1	7	[0, 0, 0]	n/a	FR1	0	R1415T
1076.083	1.633	1077638	WORD	n/a	wordpools/wordpool_EN.txt	JAR	2	7	[0, 0, 0]	n/a	FR1	0	R1415T
1077.716	0.917	1079257	WORD_OFF	n/a	n/a	JAR	2	7	[0, 0, 0]	n/a	FR1	0	R1415T
1078.633	1.633	1080184	WORD	n/a	wordpools/wordpool_EN.txt	PIT	3	7	[0, 0, 0]	n/a	FR1	0	R1415T
1080.266	0.938	1081803	WORD_OFF	n/a	n/a	PIT	3	7	[0, 0, 0]	n/a	FR1	0	R1415T
1081.204	1.629	1082757	WORD	n/a	wordpools/wordpool_EN.txt	ELF	4	7	[0, 0, 0]	n/a	FR1	0	R1415T
1082.833	0.783	1084367	WORD_OFF	n/a	n/a	ELF	4	7	[0, 0, 0]	n/a	FR1	0	R1415T
1083.616	1.635	1085172	WORD	n/a	wordpools/wordpool_EN.txt	BEAK	5	7	[0, 0, 0]	n/a	FR1	0	R1415T
1085.251	0.872	1086791	WORD_OFF	n/a	n/a	BEAK	5	7	[0, 0, 0]	n/a	FR1	0	R1415T
1086.123	1.627	1087671	WORD	n/a	wordpools/wordpool_EN.txt	HEART	6	7	[0, 0, 0]	n/a	FR1	0	R1415T
1087.75	0.774	1089290	WORD_OFF	n/a	n/a	HEART	6	7	[0, 0, 0]	n/a	FR1	0	R1415T
1088.524	1.628	1090066	WORD	n/a	wordpools/wordpool_EN.txt	CHIEF	7	7	[0, 0, 0]	n/a	FR1	0	R1415T
1090.152	1.028	1091685	WORD_OFF	n/a	n/a	CHIEF	7	7	[0, 0, 0]	n/a	FR1	0	R1415T
1091.18	1.621	1092724	WORD	n/a	wordpools/wordpool_EN.txt	MAIL	8	7	[0, 0, 0]	n/a	FR1	0	R1415T
1092.801	0.85	1094334	WORD_OFF	n/a	n/a	MAIL	8	7	[0, 0, 0]	n/a	FR1	0	R1415T
1093.651	1.635	1095204	WORD	n/a	wordpools/wordpool_EN.txt	SAIL	9	7	[0, 0, 0]	n/a	FR1	0	R1415T
1095.286	1.13	1096823	WORD_OFF	n/a	n/a	SAIL	9	7	[0, 0, 0]	n/a	FR1	0	R1415T
1096.416	1.636	1097974	WORD	n/a	wordpools/wordpool_EN.txt	HAND	10	7	[0, 0, 0]	n/a	FR1	0	R1415T
1098.052	0.997	1099593	WORD_OFF	n/a	n/a	HAND	10	7	[0, 0, 0]	n/a	FR1	0	R1415T
1099.049	1.621	1100604	WORD	n/a	wordpools/wordpool_EN.txt	RUG	11	7	[0, 0, 0]	n/a	FR1	0	R1415T
1100.67	0.971	1102204	WORD_OFF	n/a	n/a	RUG	11	7	[0, 0, 0]	n/a	FR1	0	R1415T
1101.641	1.63	1103187	WORD	n/a	wordpools/wordpool_EN.txt	BOOK	12	7	[0, 0, 0]	n/a	FR1	0	R1415T
1103.271	0.0	1104822	START	n/a	n/a	n/a	-999	7	[-999, -999, -999]	n/a	FR1	0	R1415T
1103.271	0.0	1104825	WORD_OFF	n/a	n/a	BOOK	12	7	[0, 0, 0]	n/a	FR1	0	R1415T
1103.271	0.0	1104825	ENCODING_END	n/a	n/a	n/a	-999	7	[0, 0, 0]	n/a	FR1	0	R1415T
1103.271	0.016	1104825	DISTRACT_START	n/a	n/a	n/a	-999	7	[0, 0, 0]	n/a	FR1	0	R1415T
1103.287	5.084	1104838	PROB	5.084	n/a	n/a	-999	7	[2, 5, 2]	9	FR1	0	R1415T
1108.371	4.517	1109922	PROB	4.517	n/a	n/a	-999	7	[1, 7, 4]	12	FR1	0	R1415T
1112.888	5.034	1114438	PROB	5.034	n/a	n/a	-999	7	[2, 4, 7]	13	FR1	0	R1415T
1117.922	3.519	1119472	PROB	3.519	n/a	n/a	-999	7	[1, 6, 4]	11	FR1	0	R1415T
1121.441	4.667	1122991	PROB	4.667	n/a	n/a	-999	7	[5, 5, 7]	17	FR1	0	R1415T
1126.108	0.0	1127641	DISTRACT_END	n/a	n/a	n/a	-999	7	[0, 0, 0]	n/a	FR1	0	R1415T
1126.099	2.327	1127649	STOP	n/a	n/a	n/a	-999	7	[-999, -999, -999]	n/a	FR1	0	R1415T
1128.426	4.424	1129971	REC_START	n/a	n/a	n/a	-999	7	[0, 0, 0]	n/a	FR1	0	R1415T
1132.85	4.824	1134399	REC_WORD	4.824	n/a	BIRD	1	7	[0, 0, 0]	n/a	FR1	0	R1415T
1137.674	4.488	1139223	REC_WORD	4.488	n/a	MAIL	8	7	[0, 0, 0]	n/a	FR1	0	R1415T
1142.162	8.399	1143711	REC_WORD	8.399	n/a	SAIL	9	7	[0, 0, 0]	n/a	FR1	0	R1415T
1150.561	7.875	1152109	REC_WORD_VV	7.875	n/a	<>	-999	7	[0, 0, 0]	n/a	FR1	0	R1415T
1158.436	3.663	1159984	REC_END	n/a	n/a	n/a	-999	7	[0, 0, 0]	n/a	FR1	0	R1415T
1162.099	10.428	1163662	COUNTDOWN_START	n/a	n/a	n/a	-999	8	[0, 0, 0]	n/a	FR1	0	R1415T
1172.527	1.174	1174068	COUNTDOWN_END	n/a	n/a	n/a	-999	8	[0, 0, 0]	n/a	FR1	0	R1415T
1173.701	1.131	1175238	ENCODING_START	n/a	n/a	n/a	-999	8	[0, 0, 0]	n/a	FR1	0	R1415T
1174.832	1.618	1176380	WORD	n/a	wordpools/wordpool_EN.txt	ROPE	1	8	[0, 0, 0]	n/a	FR1	0	R1415T
1176.45	0.85	1177980	WORD_OFF	n/a	n/a	ROPE	1	8	[0, 0, 0]	n/a	FR1	0	R1415T
1177.3	1.633	1178850	WORD	n/a	wordpools/wordpool_EN.txt	PIN	2	8	[0, 0, 0]	n/a	FR1	0	R1415T
1178.933	1.057	1180469	WORD_OFF	n/a	n/a	PIN	2	8	[0, 0, 0]	n/a	FR1	0	R1415T
1179.99	1.611	1181536	WORD	n/a	wordpools/wordpool_EN.txt	BANK	3	8	[0, 0, 0]	n/a	FR1	0	R1415T
1181.601	0.931	1183137	WORD_OFF	n/a	n/a	BANK	3	8	[0, 0, 0]	n/a	FR1	0	R1415T
1182.532	1.637	1184082	WORD	n/a	wordpools/wordpool_EN.txt	ICE	4	8	[0, 0, 0]	n/a	FR1	0	R1415T
1184.169	0.976	1185701	WORD_OFF	n/a	n/a	ICE	4	8	[0, 0, 0]	n/a	FR1	0	R1415T
1185.145	1.623	1186683	WORD	n/a	wordpools/wordpool_EN.txt	TRAY	5	8	[0, 0, 0]	n/a	FR1	0	R1415T
1186.768	1.121	1188302	WORD_OFF	n/a	n/a	TRAY	5	8	[0, 0, 0]	n/a	FR1	0	R1415T
1187.889	1.631	1189435	WORD	n/a	wordpools/wordpool_EN.txt	CAGE	6	8	[0, 0, 0]	n/a	FR1	0	R1415T
1189.52	1.072	1191054	WORD_OFF	n/a	n/a	CAGE	6	8	[0, 0, 0]	n/a	FR1	0	R1415T
1190.592	1.628	1192130	WORD	n/a	wordpools/wordpool_EN.txt	PEACH	7	8	[0, 0, 0]	n/a	FR1	0	R1415T
1192.22	0.854	1193749	WORD_OFF	n/a	n/a	PEACH	7	8	[0, 0, 0]	n/a	FR1	0	R1415T
1193.074	1.63	1194619	WORD	n/a	wordpools/wordpool_EN.txt	BEAR	8	8	[0, 0, 0]	n/a	FR1	0	R1415T
1194.704	1.136	1196238	WORD_OFF	n/a	n/a	BEAR	8	8	[0, 0, 0]	n/a	FR1	0	R1415T
1195.84	1.631	1197380	WORD	n/a	wordpools/wordpool_EN.txt	SKY	9	8	[0, 0, 0]	n/a	FR1	0	R1415T
1197.471	0.863	1198999	WORD_OFF	n/a	n/a	SKY	9	8	[0, 0, 0]	n/a	FR1	0	R1415T
1198.334	1.62	1199870	WORD	n/a	wordpools/wordpool_EN.txt	MAT	10	8	[0, 0, 0]	n/a	FR1	0	R1415T
1199.954	0.936	1201489	WORD_OFF	n/a	n/a	MAT	10	8	[0, 0, 0]	n/a	FR1	0	R1415T
1200.89	1.632	1202434	WORD	n/a	wordpools/wordpool_EN.txt	CRANE	11	8	[0, 0, 0]	n/a	FR1	0	R1415T
1202.522	0.818	1204053	WORD_OFF	n/a	n/a	CRANE	11	8	[0, 0, 0]	n/a	FR1	0	R1415T
1203.34	1.632	1204886	WORD	n/a	wordpools/wordpool_EN.txt	TEA	12	8	[0, 0, 0]	n/a	FR1	0	R1415T
1204.972	0.0	1206517	START	n/a	n/a	n/a	-999	8	[-999, -999, -999]	n/a	FR1	0	R1415T
1204.971	0.001	1206523	WORD_OFF	n/a	n/a	TEA	12	8	[0, 0, 0]	n/a	FR1	0	R1415T
1204.972	0.0	1206523	ENCODING_END	n/a	n/a	n/a	-999	8	[0, 0, 0]	n/a	FR1	0	R1415T
1204.972	0.016	1206523	DISTRACT_START	n/a	n/a	n/a	-999	8	[0, 0, 0]	n/a	FR1	0	R1415T
1204.988	8.802	1206533	PROB	8.802	n/a	n/a	-999	8	[3, 9, 6]	18	FR1	0	R1415T
1213.79	5.785	1215334	PROB	5.785	n/a	n/a	-999	8	[4, 8, 7]	19	FR1	0	R1415T
1219.575	5.068	1221119	PROB	5.068	n/a	n/a	-999	8	[5, 3, 1]	9	FR1	0	R1415T
1224.643	6.017	1226187	PROB	6.017	n/a	n/a	-999	8	[3, 5, 1]	9	FR1	0	R1415T
1230.66	0.0	1232194	DISTRACT_END	n/a	n/a	n/a	-999	8	[0, 0, 0]	n/a	FR1	0	R1415T
1230.653	2.241	1232196	STOP	n/a	n/a	n/a	-999	8	[-999, -999, -999]	n/a	FR1	0	R1415T
1232.894	29.994	1234430	REC_START	n/a	n/a	n/a	-999	8	[0, 0, 0]	n/a	FR1	0	R1415T
1262.888	0.019	1264430	REC_WORD_VV	0.019	n/a	<>	-999	8	[0, 0, 0]	n/a	FR1	0	R1415T
1262.907	8.91	1264452	REC_END	n/a	n/a	n/a	-999	8	[0, 0, 0]	n/a	FR1	0	R1415T
1271.817	10.43	1273380	COUNTDOWN_START	n/a	n/a	n/a	-999	9	[0, 0, 0]	n/a	FR1	0	R1415T
1282.247	1.174	1283778	COUNTDOWN_END	n/a	n/a	n/a	-999	9	[0, 0, 0]	n/a	FR1	0	R1415T
1283.421	1.009	1284948	ENCODING_START	n/a	n/a	n/a	-999	9	[0, 0, 0]	n/a	FR1	0	R1415T
1284.43	1.623	1285958	WORD	n/a	wordpools/wordpool_EN.txt	SKI	1	9	[0, 0, 0]	n/a	FR1	0	R1415T
1286.053	1.05	1287577	WORD_OFF	n/a	n/a	SKI	1	9	[0, 0, 0]	n/a	FR1	0	R1415T
1287.103	1.634	1288644	WORD	n/a	wordpools/wordpool_EN.txt	BLUSH	2	9	[0, 0, 0]	n/a	FR1	0	R1415T
1288.737	0.825	1290263	WORD_OFF	n/a	n/a	BLUSH	2	9	[0, 0, 0]	n/a	FR1	0	R1415T
1289.562	1.626	1291096	WORD	n/a	wordpools/wordpool_EN.txt	CLOWN	3	9	[0, 0, 0]	n/a	FR1	0	R1415T
1291.188	1.132	1292715	WORD_OFF	n/a	n/a	CLOWN	3	9	[0, 0, 0]	n/a	FR1	0	R1415T
1292.32	1.634	1293866	WORD	n/a	wordpools/wordpool_EN.txt	LEAF	4	9	[0, 0, 0]	n/a	FR1	0	R1415T
1293.954	1.087	1295485	WORD_OFF	n/a	n/a	LEAF	4	9	[0, 0, 0]	n/a	FR1	0	R1415T
1295.041	1.615	1296580	WORD	n/a	wordpools/wordpool_EN.txt	TOOTH	5	9	[0, 0, 0]	n/a	FR1	0	R1415T
1296.656	0.961	1298180	WORD_OFF	n/a	n/a	TOOTH	5	9	[0, 0, 0]	n/a	FR1	0	R1415T
1297.617	1.623	1299144	WORD	n/a	wordpools/wordpool_EN.txt	HILL	6	9	[0, 0, 0]	n/a	FR1	0	R1415T
1299.24	1.061	1300763	WORD_OFF	n/a	n/a	HILL	6	9	[0, 0, 0]	n/a	FR1	0	R1415T
1300.301	1.621	1301830	WORD	n/a	wordpools/wordpool_EN.txt	BARN	7	9	[0, 0, 0]	n/a	FR1	0	R1415T
1301.922	0.952	1303449	WORD_OFF	n/a	n/a	BARN	7	9	[0, 0, 0]	n/a	FR1	0	R1415T
1302.874	1.633	1304413	WORD	n/a	wordpools/wordpool_EN.txt	WORM	8	9	[0, 0, 0]	n/a	FR1	0	R1415T
1304.507	0.866	1306032	WORD_OFF	n/a	n/a	WORM	8	9	[0, 0, 0]	n/a	FR1	0	R1415T
1305.373	1.634	1306912	WORD	n/a	wordpools/wordpool_EN.txt	TREE	9	9	[0, 0, 0]	n/a	FR1	0	R1415T
1307.007	0.881	1308531	WORD_OFF	n/a	n/a	TREE	9	9	[0, 0, 0]	n/a	FR1	0	R1415T
1307.888	1.637	1309429	WORD	n/a	wordpools/wordpool_EN.txt	KEY	10	9	[0, 0, 0]	n/a	FR1	0	R1415T
1309.525	0.931	1311048	WORD_OFF	n/a	n/a	KEY	10	9	[0, 0, 0]	n/a	FR1	0	R1415T
1310.456	1.636	1312003	WORD	n/a	wordpools/wordpool_EN.txt	WOOD	11	9	[0, 0, 0]	n/a	FR1	0	R1415T
1312.092	1.102	1313613	WORD_OFF	n/a	n/a	WOOD	11	9	[0, 0, 0]	n/a	FR1	0	R1415T
1313.194	1.631	1314736	WORD	n/a	wordpools/wordpool_EN.txt	VINE	12	9	[0, 0, 0]	n/a	FR1	0	R1415T
1314.825	0.0	1316364	WORD_OFF	n/a	n/a	VINE	12	9	[0, 0, 0]	n/a	FR1	0	R1415T
1314.825	0.001	1316364	ENCODING_END	n/a	n/a	n/a	-999	9	[0, 0, 0]	n/a	FR1	0	R1415T
1314.826	0.0	1316364	START	n/a	n/a	n/a	-999	9	[-999, -999, -999]	n/a	FR1	0	R1415T
1314.826	0.015	1316373	DISTRACT_START	n/a	n/a	n/a	-999	9	[0, 0, 0]	n/a	FR1	0	R1415T
1314.841	4.951	1316379	PROB	4.951	n/a	n/a	-999	9	[2, 2, 6]	10	FR1	0	R1415T
1319.792	4.469	1321330	PROB	4.469	n/a	n/a	-999	9	[1, 3, 9]	13	FR1	0	R1415T
1324.261	4.217	1325799	PROB	4.217	n/a	n/a	-999	9	[3, 2, 9]	14	FR1	0	R1415T
1328.478	4.734	1330016	PROB	4.734	n/a	n/a	-999	9	[2, 5, 4]	11	FR1	0	R1415T
1333.212	4.972	1334749	PROB	4.972	n/a	n/a	-999	9	[4, 8, 5]	17	FR1	0	R1415T
1338.184	0.013	1339721	STOP	n/a	n/a	n/a	-999	9	[-999, -999, -999]	n/a	FR1	0	R1415T
1338.197	2.034	1339723	DISTRACT_END	n/a	n/a	n/a	-999	9	[0, 0, 0]	n/a	FR1	0	R1415T
1340.231	2.535	1341763	REC_START	n/a	n/a	n/a	-999	9	[0, 0, 0]	n/a	FR1	0	R1415T
1342.766	4.969	1344303	REC_WORD	4.969	n/a	SKI	1	9	[0, 0, 0]	n/a	FR1	0	R1415T
1347.735	5.233	1349272	REC_WORD	5.233	n/a	BARN	7	9	[0, 0, 0]	n/a	FR1	0	R1415T
1352.968	7.428	1354504	REC_WORD	7.428	n/a	WORM	8	9	[0, 0, 0]	n/a	FR1	0	R1415T
1360.396	9.847	1361932	REC_WORD	9.847	n/a	TOOTH	5	9	[0, 0, 0]	n/a	FR1	0	R1415T
1370.243	6.428	1371785	REC_END	n/a	n/a	n/a	-999	9	[0, 0, 0]	n/a	FR1	0	R1415T
1376.671	10.428	1378224	COUNTDOWN_START	n/a	n/a	n/a	-999	10	[0, 0, 0]	n/a	FR1	0	R1415T
1387.099	1.241	1388630	COUNTDOWN_END	n/a	n/a	n/a	-999	10	[0, 0, 0]	n/a	FR1	0	R1415T
1388.34	1.139	1389866	ENCODING_START	n/a	n/a	n/a	-999	10	[0, 0, 0]	n/a	FR1	0	R1415T
1389.479	1.627	1391007	WORD	n/a	wordpools/wordpool_EN.txt	FORT	1	10	[0, 0, 0]	n/a	FR1	0	R1415T
1391.106	1.041	1392626	WORD_OFF	n/a	n/a	FORT	1	10	[0, 0, 0]	n/a	FR1	0	R1415T
1392.147	1.625	1393674	WORD	n/a	wordpools/wordpool_EN.txt	MAP	2	10	[0, 0, 0]	n/a	FR1	0	R1415T
1393.772	0.922	1395293	WORD_OFF	n/a	n/a	MAP	2	10	[0, 0, 0]	n/a	FR1	0	R1415T
1394.694	1.63	1396229	WORD	n/a	wordpools/wordpool_EN.txt	CUP	3	10	[0, 0, 0]	n/a	FR1	0	R1415T
1396.324	1.074	1397848	WORD_OFF	n/a	n/a	CUP	3	10	[0, 0, 0]	n/a	FR1	0	R1415T
1397.398	1.625	1398925	WORD	n/a	wordpools/wordpool_EN.txt	EAR	4	10	[0, 0, 0]	n/a	FR1	0	R1415T
1399.023	0.88	1400544	WORD_OFF	n/a	n/a	EAR	4	10	[0, 0, 0]	n/a	FR1	0	R1415T
1399.903	1.621	1401442	WORD	n/a	wordpools/wordpool_EN.txt	PLATE	5	10	[0, 0, 0]	n/a	FR1	0	R1415T
1401.524	0.807	1403042	WORD_OFF	n/a	n/a	PLATE	5	10	[0, 0, 0]	n/a	FR1	0	R1415T
1402.331	1.627	1403856	WORD	n/a	wordpools/wordpool_EN.txt	HOSE	6	10	[0, 0, 0]	n/a	FR1	0	R1415T
1403.958	1.067	1405475	WORD_OFF	n/a	n/a	HOSE	6	10	[0, 0, 0]	n/a	FR1	0	R1415T
1405.025	1.634	1406561	WORD	n/a	wordpools/wordpool_EN.txt	STORM	7	10	[0, 0, 0]	n/a	FR1	0	R1415T
1406.659	0.947	1408180	WORD_OFF	n/a	n/a	STORM	7	10	[0, 0, 0]	n/a	FR1	0	R1415T
1407.606	1.62	1409125	WORD	n/a	wordpools/wordpool_EN.txt	BOX	8	10	[0, 0, 0]	n/a	FR1	0	R1415T
1409.226	0.828	1410744	WORD_OFF	n/a	n/a	BOX	8	10	[0, 0, 0]	n/a	FR1	0	R1415T
1410.054	1.639	1411596	WORD	n/a	wordpools/wordpool_EN.txt	BEACH	9	10	[0, 0, 0]	n/a	FR1	0	R1415T
1411.693	0.859	1413215	WORD_OFF	n/a	n/a	BEACH	9	10	[0, 0, 0]	n/a	FR1	0	R1415T
1412.552	1.625	1414076	WORD	n/a	wordpools/wordpool_EN.txt	RAKE	10	10	[0, 0, 0]	n/a	FR1	0	R1415T
1414.177	1.049	1415695	WORD_OFF	n/a	n/a	RAKE	10	10	[0, 0, 0]	n/a	FR1	0	R1415T
1415.226	1.634	1416762	WORD	n/a	wordpools/wordpool_EN.txt	SPEAR	11	10	[0, 0, 0]	n/a	FR1	0	R1415T
1416.86	0.796	1418381	WORD_OFF	n/a	n/a	SPEAR	11	10	[0, 0, 0]	n/a	FR1	0	R1415T
1417.656	1.623	1419176	WORD	n/a	wordpools/wordpool_EN.txt	HAT	12	10	[0, 0, 0]	n/a	FR1	0	R1415T
1419.279	0.0	1420811	START	n/a	n/a	n/a	-999	10	[-999, -999, -999]	n/a	FR1	0	R1415T
1419.278	0.0	1420814	WORD_OFF	n/a	n/a	HAT	12	10	[0, 0, 0]	n/a	FR1	0	R1415T
1419.278	0.001	1420814	ENCODING_END	n/a	n/a	n/a	-999	10	[0, 0, 0]	n/a	FR1	0	R1415T
1419.279	0.015	1420814	DISTRACT_START	n/a	n/a	n/a	-999	10	[0, 0, 0]	n/a	FR1	0	R1415T
1419.294	9.501	1420826	PROB	9.501	n/a	n/a	-999	10	[4, 7, 6]	17	FR1	0	R1415T
1428.795	6.802	1430327	PROB	6.802	n/a	n/a	-999	10	[4, 1, 2]	7	FR1	0	R1415T
1435.597	11.201	1437128	PROB	11.201	n/a	n/a	-999	10	[1, 4, 2]	7	FR1	0	R1415T
1446.798	0.0	1448319	DISTRACT_END	n/a	n/a	n/a	-999	10	[0, 0, 0]	n/a	FR1	0	R1415T
1446.79	2.243	1448321	STOP	n/a	n/a	n/a	-999	10	[-999, -999, -999]	n/a	FR1	0	R1415T
1449.033	0.334	1450555	REC_START	n/a	n/a	n/a	-999	10	[0, 0, 0]	n/a	FR1	0	R1415T
1449.367	2.004	1450898	REC_WORD_VV	2.004	n/a	<>	-999	10	[0, 0, 0]	n/a	FR1	0	R1415T
1451.371	2.419	1452901	REC_WORD_VV	2.419	n/a	<>	-999	10	[0, 0, 0]	n/a	FR1	0	R1415T
1453.79	22.369	1455320	REC_WORD	22.369	n/a	FORK	-999	10	[0, 0, 0]	n/a	FR1	0	R1415T
1476.159	2.884	1477688	REC_WORD_VV	2.884	n/a	<>	-999	10	[0, 0, 0]	n/a	FR1	0	R1415T
1479.043	13.482	1480577	REC_END	n/a	n/a	n/a	-999	10	[0, 0, 0]	n/a	FR1	0	R1415T
1492.525	10.429	1494072	COUNTDOWN_START	n/a	n/a	n/a	-999	11	[0, 0, 0]	n/a	FR1	0	R1415T
1502.954	1.022	1504470	COUNTDOWN_END	n/a	n/a	n/a	-999	11	[0, 0, 0]	n/a	FR1	0	R1415T
1503.976	0.839	1505499	ENCODING_START	n/a	n/a	n/a	-999	11	[0, 0, 0]	n/a	FR1	0	R1415T
1504.815	1.612	1506341	WORD	n/a	wordpools/wordpool_EN.txt	SOUP	1	11	[0, 0, 0]	n/a	FR1	0	R1415T
1506.427	0.753	1507942	WORD_OFF	n/a	n/a	SOUP	1	11	[0, 0, 0]	n/a	FR1	0	R1415T
1507.18	1.63	1508709	WORD	n/a	wordpools/wordpool_EN.txt	STRING	2	11	[0, 0, 0]	n/a	FR1	0	R1415T
1508.81	1.017	1510328	WORD_OFF	n/a	n/a	STRING	2	11	[0, 0, 0]	n/a	FR1	0	R1415T
1509.827	1.634	1511357	WORD	n/a	wordpools/wordpool_EN.txt	FLAG	3	11	[0, 0, 0]	n/a	FR1	0	R1415T
1511.461	1.086	1512976	WORD_OFF	n/a	n/a	FLAG	3	11	[0, 0, 0]	n/a	FR1	0	R1415T
1512.547	1.631	1514071	WORD	n/a	wordpools/wordpool_EN.txt	ARM	4	11	[0, 0, 0]	n/a	FR1	0	R1415T
1514.178	1.032	1515690	WORD_OFF	n/a	n/a	ARM	4	11	[0, 0, 0]	n/a	FR1	0	R1415T
1515.21	1.635	1516738	WORD	n/a	wordpools/wordpool_EN.txt	BUSH	5	11	[0, 0, 0]	n/a	FR1	0	R1415T
1516.845	0.784	1518358	WORD_OFF	n/a	n/a	BUSH	5	11	[0, 0, 0]	n/a	FR1	0	R1415T
1517.629	1.634	1519162	WORD	n/a	wordpools/wordpool_EN.txt	APE	6	11	[0, 0, 0]	n/a	FR1	0	R1415T
1519.263	1.049	1520781	WORD_OFF	n/a	n/a	APE	6	11	[0, 0, 0]	n/a	FR1	0	R1415T
1520.312	1.634	1521839	WORD	n/a	wordpools/wordpool_EN.txt	PIG	7	11	[0, 0, 0]	n/a	FR1	0	R1415T
1521.946	0.75	1523458	WORD_OFF	n/a	n/a	PIG	7	11	[0, 0, 0]	n/a	FR1	0	R1415T
1522.696	1.634	1524225	WORD	n/a	wordpools/wordpool_EN.txt	DOOR	8	11	[0, 0, 0]	n/a	FR1	0	R1415T
1524.33	0.903	1525844	WORD_OFF	n/a	n/a	DOOR	8	11	[0, 0, 0]	n/a	FR1	0	R1415T
1525.233	1.63	1526761	WORD	n/a	wordpools/wordpool_EN.txt	OAR	9	11	[0, 0, 0]	n/a	FR1	0	R1415T
1526.863	0.76	1528380	WORD_OFF	n/a	n/a	OAR	9	11	[0, 0, 0]	n/a	FR1	0	R1415T
1527.623	1.625	1529148	WORD	n/a	wordpools/wordpool_EN.txt	ROOT	10	11	[0, 0, 0]	n/a	FR1	0	R1415T
1529.248	0.873	1530758	WORD_OFF	n/a	n/a	ROOT	10	11	[0, 0, 0]	n/a	FR1	0	R1415T
1530.121	1.626	1531647	WORD	n/a	wordpools/wordpool_EN.txt	STONE	11	11	[0, 0, 0]	n/a	FR1	0	R1415T
1531.747	0.934	1533266	WORD_OFF	n/a	n/a	STONE	11	11	[0, 0, 0]	n/a	FR1	0	R1415T
1532.681	1.635	1534211	WORD	n/a	wordpools/wordpool_EN.txt	VEST	12	11	[0, 0, 0]	n/a	FR1	0	R1415T
1534.316	0.0	1535842	START	n/a	n/a	n/a	-999	11	[-999, -999, -999]	n/a	FR1	0	R1415T
1534.315	0.001	1535849	WORD_OFF	n/a	n/a	VEST	12	11	[0, 0, 0]	n/a	FR1	0	R1415T
1534.316	0.0	1535849	ENCODING_END	n/a	n/a	n/a	-999	11	[0, 0, 0]	n/a	FR1	0	R1415T
1534.316	0.016	1535849	DISTRACT_START	n/a	n/a	n/a	-999	11	[0, 0, 0]	n/a	FR1	0	R1415T
1534.332	5.068	1535858	PROB	5.068	n/a	n/a	-999	11	[5, 5, 4]	14	FR1	0	R1415T
1539.4	5.017	1540925	PROB	5.017	n/a	n/a	-999	11	[9, 9, 6]	24	FR1	0	R1415T
1544.417	4.101	1545942	PROB	4.101	n/a	n/a	-999	11	[9, 5, 1]	15	FR1	0	R1415T
1548.518	3.483	1550043	PROB	3.483	n/a	n/a	-999	11	[7, 6, 9]	22	FR1	0	R1415T
1552.001	3.648	1553526	PROB	3.648	n/a	n/a	-999	11	[8, 4, 6]	18	FR1	0	R1415T
1555.649	0.02	1557173	STOP	n/a	n/a	n/a	-999	11	[-999, -999, -999]	n/a	FR1	0	R1415T
1555.669	2.117	1557186	DISTRACT_END	n/a	n/a	n/a	-999	11	[0, 0, 0]	n/a	FR1	0	R1415T
1557.786	2.64	1559310	REC_START	n/a	n/a	n/a	-999	11	[0, 0, 0]	n/a	FR1	0	R1415T
1560.426	4.702	1561950	REC_WORD	4.702	n/a	SOUP	1	11	[0, 0, 0]	n/a	FR1	0	R1415T
1565.128	5.992	1566652	REC_WORD	5.992	n/a	STRING	2	11	[0, 0, 0]	n/a	FR1	0	R1415T
1571.12	16.676	1572643	REC_WORD	16.676	n/a	FLAG	3	11	[0, 0, 0]	n/a	FR1	0	R1415T
1587.796	3.647	1589332	REC_END	n/a	n/a	n/a	-999	11	[0, 0, 0]	n/a	FR1	0	R1415T
1591.443	10.428	1592991	COUNTDOWN_START	n/a	n/a	n/a	-999	12	[0, 0, 0]	n/a	FR1	0	R1415T
1601.871	1.224	1603389	COUNTDOWN_END	n/a	n/a	n/a	-999	12	[0, 0, 0]	n/a	FR1	0	R1415T
1603.095	0.921	1604605	ENCODING_START	n/a	n/a	n/a	-999	12	[0, 0, 0]	n/a	FR1	0	R1415T
1604.016	1.629	1605541	WORD	n/a	wordpools/wordpool_EN.txt	SPONGE	1	12	[0, 0, 0]	n/a	FR1	0	R1415T
1605.645	0.977	1607151	WORD_OFF	n/a	n/a	SPONGE	1	12	[0, 0, 0]	n/a	FR1	0	R1415T
1606.622	1.623	1608133	WORD	n/a	wordpools/wordpool_EN.txt	FOOT	2	12	[0, 0, 0]	n/a	FR1	0	R1415T
1608.245	0.947	1609752	WORD_OFF	n/a	n/a	FOOT	2	12	[0, 0, 0]	n/a	FR1	0	R1415T
1609.192	1.636	1610716	WORD	n/a	wordpools/wordpool_EN.txt	CUBE	3	12	[0, 0, 0]	n/a	FR1	0	R1415T
1610.828	1.094	1612335	WORD_OFF	n/a	n/a	CUBE	3	12	[0, 0, 0]	n/a	FR1	0	R1415T
1611.922	1.608	1613440	WORD	n/a	wordpools/wordpool_EN.txt	WHALE	4	12	[0, 0, 0]	n/a	FR1	0	R1415T
1613.53	0.916	1615040	WORD_OFF	n/a	n/a	WHALE	4	12	[0, 0, 0]	n/a	FR1	0	R1415T
1614.446	1.634	1615976	WORD	n/a	wordpools/wordpool_EN.txt	SALT	5	12	[0, 0, 0]	n/a	FR1	0	R1415T
1616.08	0.758	1617586	WORD_OFF	n/a	n/a	SALT	5	12	[0, 0, 0]	n/a	FR1	0	R1415T
1616.838	1.626	1618353	WORD	n/a	wordpools/wordpool_EN.txt	BOY	6	12	[0, 0, 0]	n/a	FR1	0	R1415T
1618.464	0.852	1619972	WORD_OFF	n/a	n/a	BOY	6	12	[0, 0, 0]	n/a	FR1	0	R1415T
1619.316	1.631	1620842	WORD	n/a	wordpools/wordpool_EN.txt	VAN	7	12	[0, 0, 0]	n/a	FR1	0	R1415T
1620.947	0.852	1622452	WORD_OFF	n/a	n/a	VAN	7	12	[0, 0, 0]	n/a	FR1	0	R1415T
1621.799	1.633	1623322	WORD	n/a	wordpools/wordpool_EN.txt	TOOL	8	12	[0, 0, 0]	n/a	FR1	0	R1415T
1623.432	1.107	1624941	WORD_OFF	n/a	n/a	TOOL	8	12	[0, 0, 0]	n/a	FR1	0	R1415T
1624.539	1.626	1626055	WORD	n/a	wordpools/wordpool_EN.txt	JUICE	9	12	[0, 0, 0]	n/a	FR1	0	R1415T
1626.165	0.801	1627674	WORD_OFF	n/a	n/a	JUICE	9	12	[0, 0, 0]	n/a	FR1	0	R1415T
1626.966	1.616	1628488	WORD	n/a	wordpools/wordpool_EN.txt	SMILE	10	12	[0, 0, 0]	n/a	FR1	0	R1415T
1628.582	0.958	1630088	WORD_OFF	n/a	n/a	SMILE	10	12	[0, 0, 0]	n/a	FR1	0	R1415T
1629.54	1.626	1631052	WORD	n/a	wordpools/wordpool_EN.txt	SPOON	11	12	[0, 0, 0]	n/a	FR1	0	R1415T
1631.166	0.855	1632671	WORD_OFF	n/a	n/a	SPOON	11	12	[0, 0, 0]	n/a	FR1	0	R1415T
1632.021	1.613	1633542	WORD	n/a	wordpools/wordpool_EN.txt	GOLD	12	12	[0, 0, 0]	n/a	FR1	0	R1415T
1633.634	0.0	1635154	START	n/a	n/a	n/a	-999	12	[-999, -999, -999]	n/a	FR1	0	R1415T
1633.633	0.001	1635161	WORD_OFF	n/a	n/a	GOLD	12	12	[0, 0, 0]	n/a	FR1	0	R1415T
1633.634	0.0	1635161	ENCODING_END	n/a	n/a	n/a	-999	12	[0, 0, 0]	n/a	FR1	0	R1415T
1633.634	0.016	1635161	DISTRACT_START	n/a	n/a	n/a	-999	12	[0, 0, 0]	n/a	FR1	0	R1415T
1633.65	7.735	1635170	PROB	7.735	n/a	n/a	-999	12	[5, 1, 4]	10	FR1	0	R1415T
1641.385	4.483	1642904	PROB	4.483	n/a	n/a	-999	12	[5, 8, 6]	19	FR1	0	R1415T
1645.868	4.235	1647387	PROB	4.235	n/a	n/a	-999	12	[5, 2, 3]	10	FR1	0	R1415T
1650.103	4.929	1651622	PROB	4.929	n/a	n/a	-999	12	[3, 2, 2]	7	FR1	0	R1415T
1655.032	0.021	1656551	STOP	n/a	n/a	n/a	-999	12	[-999, -999, -999]	n/a	FR1	0	R1415T
1655.053	2.152	1656564	DISTRACT_END	n/a	n/a	n/a	-999	12	[0, 0, 0]	n/a	FR1	0	R1415T
1657.205	3.629	1658725	REC_START	n/a	n/a	n/a	-999	12	[0, 0, 0]	n/a	FR1	0	R1415T
1660.834	3.887	1662352	REC_WORD	3.887	n/a	SPOON	11	12	[0, 0, 0]	n/a	FR1	0	R1415T
1664.721	22.496	1666239	REC_WORD	22.496	n/a	WHALE	4	12	[0, 0, 0]	n/a	FR1	0	R1415T
1687.217	10.045	1688747	REC_END	n/a	n/a	n/a	-999	12	[0, 0, 0]	n/a	FR1	0	R1415T
1697.262	10.43	1698798	COUNTDOWN_START	n/a	n/a	n/a	-999	13	[0, 0, 0]	n/a	FR1	0	R1415T
1707.692	1.221	1709196	COUNTDOWN_END	n/a	n/a	n/a	-999	13	[0, 0, 0]	n/a	FR1	0	R1415T
1708.913	0.998	1710422	ENCODING_START	n/a	n/a	n/a	-999	13	[0, 0, 0]	n/a	FR1	0	R1415T
1709.911	1.636	1711432	WORD	n/a	wordpools/wordpool_EN.txt	BAG	1	13	[0, 0, 0]	n/a	FR1	0	R1415T
1711.547	1.082	1713051	WORD_OFF	n/a	n/a	BAG	1	13	[0, 0, 0]	n/a	FR1	0	R1415T
1712.629	1.636	1714146	WORD	n/a	wordpools/wordpool_EN.txt	GEESE	2	13	[0, 0, 0]	n/a	FR1	0	R1415T
1714.265	1.038	1715765	WORD_OFF	n/a	n/a	GEESE	2	13	[0, 0, 0]	n/a	FR1	0	R1415T
1715.303	1.628	1716814	WORD	n/a	wordpools/wordpool_EN.txt	MOUSE	3	13	[0, 0, 0]	n/a	FR1	0	R1415T
1716.931	0.904	1718433	WORD_OFF	n/a	n/a	MOUSE	3	13	[0, 0, 0]	n/a	FR1	0	R1415T
1717.835	1.614	1719350	WORD	n/a	wordpools/wordpool_EN.txt	BATH	4	13	[0, 0, 0]	n/a	FR1	0	R1415T
1719.449	0.771	1720950	WORD_OFF	n/a	n/a	BATH	4	13	[0, 0, 0]	n/a	FR1	0	R1415T
1720.22	1.628	1721736	WORD	n/a	wordpools/wordpool_EN.txt	PRINCE	5	13	[0, 0, 0]	n/a	FR1	0	R1415T
1721.848	0.89	1723355	WORD_OFF	n/a	n/a	PRINCE	5	13	[0, 0, 0]	n/a	FR1	0	R1415T
1722.738	1.612	1724254	WORD	n/a	wordpools/wordpool_EN.txt	FORK	6	13	[0, 0, 0]	n/a	FR1	0	R1415T
1724.35	0.845	1725854	WORD_OFF	n/a	n/a	FORK	6	13	[0, 0, 0]	n/a	FR1	0	R1415T
1725.195	1.621	1726705	WORD	n/a	wordpools/wordpool_EN.txt	BAT	7	13	[0, 0, 0]	n/a	FR1	0	R1415T
1726.816	0.817	1728324	WORD_OFF	n/a	n/a	BAT	7	13	[0, 0, 0]	n/a	FR1	0	R1415T
1727.633	1.634	1729157	WORD	n/a	wordpools/wordpool_EN.txt	VASE	8	13	[0, 0, 0]	n/a	FR1	0	R1415T
1729.267	0.922	1730767	WORD_OFF	n/a	n/a	VASE	8	13	[0, 0, 0]	n/a	FR1	0	R1415T
1730.189	1.628	1731703	WORD	n/a	wordpools/wordpool_EN.txt	BRICK	9	13	[0, 0, 0]	n/a	FR1	0	R1415T
1731.817	0.981	1733322	WORD_OFF	n/a	n/a	BRICK	9	13	[0, 0, 0]	n/a	FR1	0	R1415T
1732.798	1.62	1734323	WORD	n/a	wordpools/wordpool_EN.txt	STORE	10	13	[0, 0, 0]	n/a	FR1	0	R1415T
1734.418	0.803	1735924	WORD_OFF	n/a	n/a	STORE	10	13	[0, 0, 0]	n/a	FR1	0	R1415T
1735.221	1.63	1736738	WORD	n/a	wordpools/wordpool_EN.txt	CALF	11	13	[0, 0, 0]	n/a	FR1	0	R1415T
1736.851	0.943	1738357	WORD_OFF	n/a	n/a	CALF	11	13	[0, 0, 0]	n/a	FR1	0	R1415T
1737.794	1.609	1739302	WORD	n/a	wordpools/wordpool_EN.txt	BRIDGE	12	13	[0, 0, 0]	n/a	FR1	0	R1415T
1739.403	0.0	1740917	START	n/a	n/a	n/a	-999	13	[-999, -999, -999]	n/a	FR1	0	R1415T
1739.402	0.001	1740921	WORD_OFF	n/a	n/a	BRIDGE	12	13	[0, 0, 0]	n/a	FR1	0	R1415T
1739.403	0.0	1740921	ENCODING_END	n/a	n/a	n/a	-999	13	[0, 0, 0]	n/a	FR1	0	R1415T
1739.403	0.016	1740921	DISTRACT_START	n/a	n/a	n/a	-999	13	[0, 0, 0]	n/a	FR1	0	R1415T
1739.419	7.852	1740933	PROB	7.852	n/a	n/a	-999	13	[8, 2, 3]	13	FR1	0	R1415T
1747.271	6.317	1748784	PROB	6.317	n/a	n/a	-999	13	[4, 4, 8]	16	FR1	0	R1415T
1753.588	4.635	1755101	PROB	4.635	n/a	n/a	-999	13	[4, 5, 6]	15	FR1	0	R1415T
1758.223	3.664	1759736	PROB	3.664	n/a	n/a	-999	13	[5, 8, 6]	19	FR1	0	R1415T
1761.887	0.019	1763399	STOP	n/a	n/a	n/a	-999	13	[-999, -999, -999]	n/a	FR1	0	R1415T
1761.906	2.285	1763409	DISTRACT_END	n/a	n/a	n/a	-999	13	[0, 0, 0]	n/a	FR1	0	R1415T
1764.191	3.713	1765702	REC_START	n/a	n/a	n/a	-999	13	[0, 0, 0]	n/a	FR1	0	R1415T
1767.904	4.979	1769416	REC_WORD	4.979	n/a	BAG	1	13	[0, 0, 0]	n/a	FR1	0	R1415T
1772.883	3.905	1774395	REC_WORD	3.905	n/a	GEESE	2	13	[0, 0, 0]	n/a	FR1	0	R1415T
1776.788	6.964	1778299	REC_WORD	6.964	n/a	MOUSE	3	13	[0, 0, 0]	n/a	FR1	0	R1415T
1783.752	4.35	1785263	REC_WORD	4.35	n/a	PARK	-999	13	[0, 0, 0]	n/a	FR1	0	R1415T
1788.102	2.735	1789613	REC_WORD_VV	2.735	n/a	<>	-999	13	[0, 0, 0]	n/a	FR1	0	R1415T
1790.837	3.365	1792348	REC_WORD	3.365	n/a	STORE	10	13	[0, 0, 0]	n/a	FR1	0	R1415T
1794.202	27.083	1795724	REC_END	n/a	n/a	n/a	-999	13	[0, 0, 0]	n/a	FR1	0	R1415T
1821.285	10.429	1822817	COUNTDOWN_START	n/a	n/a	n/a	-999	14	[0, 0, 0]	n/a	FR1	0	R1415T
1831.714	1.255	1833214	COUNTDOWN_END	n/a	n/a	n/a	-999	14	[0, 0, 0]	n/a	FR1	0	R1415T
1832.969	0.947	1834468	ENCODING_START	n/a	n/a	n/a	-999	14	[0, 0, 0]	n/a	FR1	0	R1415T
1833.916	1.62	1835432	WORD	n/a	wordpools/wordpool_EN.txt	FOOD	1	14	[0, 0, 0]	n/a	FR1	0	R1415T
1835.536	0.99	1837033	WORD_OFF	n/a	n/a	FOOD	1	14	[0, 0, 0]	n/a	FR1	0	R1415T
1836.526	1.628	1838034	WORD	n/a	wordpools/wordpool_EN.txt	BOMB	2	14	[0, 0, 0]	n/a	FR1	0	R1415T
1838.154	0.765	1839653	WORD_OFF	n/a	n/a	BOMB	2	14	[0, 0, 0]	n/a	FR1	0	R1415T
1838.919	1.618	1840430	WORD	n/a	wordpools/wordpool_EN.txt	INK	3	14	[0, 0, 0]	n/a	FR1	0	R1415T
1840.537	1.04	1842039	WORD_OFF	n/a	n/a	INK	3	14	[0, 0, 0]	n/a	FR1	0	R1415T
1841.577	1.628	1843088	WORD	n/a	wordpools/wordpool_EN.txt	LEG	4	14	[0, 0, 0]	n/a	FR1	0	R1415T
1843.205	0.781	1844697	WORD_OFF	n/a	n/a	LEG	4	14	[0, 0, 0]	n/a	FR1	0	R1415T
1843.986	1.636	1845502	WORD	n/a	wordpools/wordpool_EN.txt	GUARD	5	14	[0, 0, 0]	n/a	FR1	0	R1415T
1845.622	0.838	1847121	WORD_OFF	n/a	n/a	GUARD	5	14	[0, 0, 0]	n/a	FR1	0	R1415T
1846.46	1.629	1847963	WORD	n/a	wordpools/wordpool_EN.txt	SOCK	6	14	[0, 0, 0]	n/a	FR1	0	R1415T
1848.089	0.915	1849582	WORD_OFF	n/a	n/a	SOCK	6	14	[0, 0, 0]	n/a	FR1	0	R1415T
1849.004	1.619	1850518	WORD	n/a	wordpools/wordpool_EN.txt	CLIFF	7	14	[0, 0, 0]	n/a	FR1	0	R1415T
1850.623	0.904	1852119	WORD_OFF	n/a	n/a	CLIFF	7	14	[0, 0, 0]	n/a	FR1	0	R1415T
1851.527	1.63	1853036	WORD	n/a	wordpools/wordpool_EN.txt	JAIL	8	14	[0, 0, 0]	n/a	FR1	0	R1415T
1853.157	0.877	1854655	WORD_OFF	n/a	n/a	JAIL	8	14	[0, 0, 0]	n/a	FR1	0	R1415T
1854.034	1.623	1855534	WORD	n/a	wordpools/wordpool_EN.txt	ROOM	9	14	[0, 0, 0]	n/a	FR1	0	R1415T
1855.657	0.937	1857153	WORD_OFF	n/a	n/a	ROOM	9	14	[0, 0, 0]	n/a	FR1	0	R1415T
1856.594	1.63	1858099	WORD	n/a	wordpools/wordpool_EN.txt	BRANCH	10	14	[0, 0, 0]	n/a	FR1	0	R1415T
1858.224	0.777	1859718	WORD_OFF	n/a	n/a	BRANCH	10	14	[0, 0, 0]	n/a	FR1	0	R1415T
1859.001	1.607	1860504	WORD	n/a	wordpools/wordpool_EN.txt	SHIELD	11	14	[0, 0, 0]	n/a	FR1	0	R1415T
1860.608	1.005	1862104	WORD_OFF	n/a	n/a	SHIELD	11	14	[0, 0, 0]	n/a	FR1	0	R1415T
1861.613	1.63	1863124	WORD	n/a	wordpools/wordpool_EN.txt	SHIRT	12	14	[0, 0, 0]	n/a	FR1	0	R1415T
1863.243	0.0	1864749	START	n/a	n/a	n/a	-999	14	[-999, -999, -999]	n/a	FR1	0	R1415T
1863.242	0.0	1864752	WORD_OFF	n/a	n/a	SHIRT	12	14	[0, 0, 0]	n/a	FR1	0	R1415T
1863.242	0.001	1864752	ENCODING_END	n/a	n/a	n/a	-999	14	[0, 0, 0]	n/a	FR1	0	R1415T
1863.243	0.015	1864762	DISTRACT_START	n/a	n/a	n/a	-999	14	[0, 0, 0]	n/a	FR1	0	R1415T
1863.258	3.868	1864764	PROB	3.868	n/a	n/a	-999	14	[1, 1, 1]	3	FR1	0	R1415T
1867.126	3.383	1868632	PROB	3.383	n/a	n/a	-999	14	[9, 2, 1]	12	FR1	0	R1415T
1870.509	3.968	1872015	PROB	3.968	n/a	n/a	-999	14	[5, 7, 6]	18	FR1	0	R1415T
1874.477	3.333	1875983	PROB	3.333	n/a	n/a	-999	14	[5, 2, 1]	8	FR1	0	R1415T
1877.81	5.996	1879316	PROB	5.996	n/a	n/a	-999	14	[5, 6, 9]	20	FR1	0	R1415T
1883.806	0.022	1885311	STOP	n/a	n/a	n/a	-999	14	[-999, -999, -999]	n/a	FR1	0	R1415T
1883.828	2.151	1885322	DISTRACT_END	n/a	n/a	n/a	-999	14	[0, 0, 0]	n/a	FR1	0	R1415T
1885.979	3.781	1887484	REC_START	n/a	n/a	n/a	-999	14	[0, 0, 0]	n/a	FR1	0	R1415T
1889.76	4.824	1891265	REC_WORD	4.824	n/a	LEG	4	14	[0, 0, 0]	n/a	FR1	0	R1415T
1894.584	6.533	1896089	REC_WORD	6.533	n/a	FOOD	1	14	[0, 0, 0]	n/a	FR1	0	R1415T
1901.117	14.874	1902621	REC_WORD	14.874	n/a	JAIL	8	14	[0, 0, 0]	n/a	FR1	0	R1415T
1915.991	5.695	1917506	REC_END	n/a	n/a	n/a	-999	14	[0, 0, 0]	n/a	FR1	0	R1415T
1921.686	10.429	1923215	COUNTDOWN_START	n/a	n/a	n/a	-999	15	[0, 0, 0]	n/a	FR1	0	R1415T
1932.115	1.14	1933612	COUNTDOWN_END	n/a	n/a	n/a	-999	15	[0, 0, 0]	n/a	FR1	0	R1415T
1933.255	1.09	1934754	ENCODING_START	n/a	n/a	n/a	-999	15	[0, 0, 0]	n/a	FR1	0	R1415T
1934.345	1.625	1935849	WORD	n/a	wordpools/wordpool_EN.txt	CAT	1	15	[0, 0, 0]	n/a	FR1	0	R1415T
1935.97	0.926	1937468	WORD_OFF	n/a	n/a	CAT	1	15	[0, 0, 0]	n/a	FR1	0	R1415T
1936.896	1.626	1938394	WORD	n/a	wordpools/wordpool_EN.txt	MOUTH	2	15	[0, 0, 0]	n/a	FR1	0	R1415T
1938.522	1.075	1940013	WORD_OFF	n/a	n/a	MOUTH	2	15	[0, 0, 0]	n/a	FR1	0	R1415T
1939.597	1.625	1941099	WORD	n/a	wordpools/wordpool_EN.txt	TANK	3	15	[0, 0, 0]	n/a	FR1	0	R1415T
1941.222	0.808	1942718	WORD_OFF	n/a	n/a	TANK	3	15	[0, 0, 0]	n/a	FR1	0	R1415T
1942.03	1.626	1943532	WORD	n/a	wordpools/wordpool_EN.txt	TIE	4	15	[0, 0, 0]	n/a	FR1	0	R1415T
1943.656	0.994	1945151	WORD_OFF	n/a	n/a	TIE	4	15	[0, 0, 0]	n/a	FR1	0	R1415T
1944.65	1.623	1946143	WORD	n/a	wordpools/wordpool_EN.txt	LAND	5	15	[0, 0, 0]	n/a	FR1	0	R1415T
1946.273	1.077	1947762	WORD_OFF	n/a	n/a	LAND	5	15	[0, 0, 0]	n/a	FR1	0	R1415T
1947.35	1.623	1948848	WORD	n/a	wordpools/wordpool_EN.txt	CLOTH	6	15	[0, 0, 0]	n/a	FR1	0	R1415T
1948.973	0.896	1950467	WORD_OFF	n/a	n/a	CLOTH	6	15	[0, 0, 0]	n/a	FR1	0	R1415T
1949.869	1.622	1951365	WORD	n/a	wordpools/wordpool_EN.txt	WALL	7	15	[0, 0, 0]	n/a	FR1	0	R1415T
1951.491	1.083	1952984	WORD_OFF	n/a	n/a	WALL	7	15	[0, 0, 0]	n/a	FR1	0	R1415T
1952.574	1.634	1954079	WORD	n/a	wordpools/wordpool_EN.txt	HOOK	8	15	[0, 0, 0]	n/a	FR1	0	R1415T
1954.208	0.97	1955698	WORD_OFF	n/a	n/a	HOOK	8	15	[0, 0, 0]	n/a	FR1	0	R1415T
1955.178	1.63	1956681	WORD	n/a	wordpools/wordpool_EN.txt	SEAL	9	15	[0, 0, 0]	n/a	FR1	0	R1415T
1956.808	1.021	1958300	WORD_OFF	n/a	n/a	SEAL	9	15	[0, 0, 0]	n/a	FR1	0	R1415T
1957.829	1.63	1959329	WORD	n/a	wordpools/wordpool_EN.txt	FILM	10	15	[0, 0, 0]	n/a	FR1	0	R1415T
1959.459	1.13	1960948	WORD_OFF	n/a	n/a	FILM	10	15	[0, 0, 0]	n/a	FR1	0	R1415T
1960.589	1.637	1962099	WORD	n/a	wordpools/wordpool_EN.txt	WORLD	11	15	[0, 0, 0]	n/a	FR1	0	R1415T
1962.226	1.132	1963718	WORD_OFF	n/a	n/a	WORLD	11	15	[0, 0, 0]	n/a	FR1	0	R1415T
1963.358	1.636	1964870	WORD	n/a	wordpools/wordpool_EN.txt	SNAIL	12	15	[0, 0, 0]	n/a	FR1	0	R1415T
1964.994	0.0	1966494	START	n/a	n/a	n/a	-999	15	[-999, -999, -999]	n/a	FR1	0	R1415T
1964.992	0.001	1966498	WORD_OFF	n/a	n/a	SNAIL	12	15	[0, 0, 0]	n/a	FR1	0	R1415T
1964.993	0.0	1966498	ENCODING_END	n/a	n/a	n/a	-999	15	[0, 0, 0]	n/a	FR1	0	R1415T
1964.993	0.016	1966507	DISTRACT_START	n/a	n/a	n/a	-999	15	[0, 0, 0]	n/a	FR1	0	R1415T
1965.009	6.851	1966509	PROB	6.851	n/a	n/a	-999	15	[3, 4, 5]	15	FR1	0	R1415T
1971.86	6.219	1973360	PROB	6.219	n/a	n/a	-999	15	[6, 7, 6]	19	FR1	0	R1415T
1978.079	6.284	1979579	PROB	6.284	n/a	n/a	-999	15	[3, 9, 7]	19	FR1	0	R1415T
1984.363	5.201	1985862	PROB	5.201	n/a	n/a	-999	15	[4, 2, 6]	12	FR1	0	R1415T
1989.564	0.0	1991055	DISTRACT_END	n/a	n/a	n/a	-999	15	[0, 0, 0]	n/a	FR1	0	R1415T
1989.557	2.308	1991056	STOP	n/a	n/a	n/a	-999	15	[-999, -999, -999]	n/a	FR1	0	R1415T
1991.865	22.323	1993366	REC_START	n/a	n/a	n/a	-999	15	[0, 0, 0]	n/a	FR1	0	R1415T
2014.188	7.689	2015686	REC_WORD	7.689	n/a	SNAIL	12	15	[0, 0, 0]	n/a	FR1	0	R1415T
2021.877	4.511	2023388	REC_END	n/a	n/a	n/a	-999	15	[0, 0, 0]	n/a	FR1	0	R1415T
2026.388	10.429	2027908	COUNTDOWN_START	n/a	n/a	n/a	-999	16	[0, 0, 0]	n/a	FR1	0	R1415T
2036.817	1.023	2038306	COUNTDOWN_END	n/a	n/a	n/a	-999	16	[0, 0, 0]	n/a	FR1	0	R1415T
2037.84	0.974	2039326	ENCODING_START	n/a	n/a	n/a	-999	16	[0, 0, 0]	n/a	FR1	0	R1415T
2038.814	1.626	2040308	WORD	n/a	wordpools/wordpool_EN.txt	SUIT	1	16	[0, 0, 0]	n/a	FR1	0	R1415T
2040.44	1.089	2041927	WORD_OFF	n/a	n/a	SUIT	1	16	[0, 0, 0]	n/a	FR1	0	R1415T
2041.529	1.629	2043022	WORD	n/a	wordpools/wordpool_EN.txt	BOAT	2	16	[0, 0, 0]	n/a	FR1	0	R1415T
2043.158	1.076	2044641	WORD_OFF	n/a	n/a	BOAT	2	16	[0, 0, 0]	n/a	FR1	0	R1415T
2044.234	1.623	2045727	WORD	n/a	wordpools/wordpool_EN.txt	TENT	3	16	[0, 0, 0]	n/a	FR1	0	R1415T
2045.857	1.15	2047346	WORD_OFF	n/a	n/a	TENT	3	16	[0, 0, 0]	n/a	FR1	0	R1415T
2047.007	1.635	2048506	WORD	n/a	wordpools/wordpool_EN.txt	BRUSH	4	16	[0, 0, 0]	n/a	FR1	0	R1415T
2048.642	0.895	2050125	WORD_OFF	n/a	n/a	BRUSH	4	16	[0, 0, 0]	n/a	FR1	0	R1415T
2049.537	1.622	2051024	WORD	n/a	wordpools/wordpool_EN.txt	SPRING	5	16	[0, 0, 0]	n/a	FR1	0	R1415T
2051.159	0.922	2052643	WORD_OFF	n/a	n/a	SPRING	5	16	[0, 0, 0]	n/a	FR1	0	R1415T
2052.081	1.628	2053579	WORD	n/a	wordpools/wordpool_EN.txt	FENCE	6	16	[0, 0, 0]	n/a	FR1	0	R1415T
2053.709	0.888	2055198	WORD_OFF	n/a	n/a	FENCE	6	16	[0, 0, 0]	n/a	FR1	0	R1415T
2054.597	1.63	2056096	WORD	n/a	wordpools/wordpool_EN.txt	OWL	7	16	[0, 0, 0]	n/a	FR1	0	R1415T
2056.227	0.839	2057715	WORD_OFF	n/a	n/a	OWL	7	16	[0, 0, 0]	n/a	FR1	0	R1415T
2057.066	1.628	2058557	WORD	n/a	wordpools/wordpool_EN.txt	POND	8	16	[0, 0, 0]	n/a	FR1	0	R1415T
2058.694	0.812	2060176	WORD_OFF	n/a	n/a	POND	8	16	[0, 0, 0]	n/a	FR1	0	R1415T
2059.506	1.621	2061000	WORD	n/a	wordpools/wordpool_EN.txt	FOX	9	16	[0, 0, 0]	n/a	FR1	0	R1415T
2061.127	1.107	2062610	WORD_OFF	n/a	n/a	FOX	9	16	[0, 0, 0]	n/a	FR1	0	R1415T
2062.234	1.626	2063733	WORD	n/a	wordpools/wordpool_EN.txt	CROWN	10	16	[0, 0, 0]	n/a	FR1	0	R1415T
2063.86	1.018	2065342	WORD_OFF	n/a	n/a	CROWN	10	16	[0, 0, 0]	n/a	FR1	0	R1415T
2064.878	1.617	2066381	WORD	n/a	wordpools/wordpool_EN.txt	CASH	11	16	[0, 0, 0]	n/a	FR1	0	R1415T
2066.495	0.84	2067981	WORD_OFF	n/a	n/a	CASH	11	16	[0, 0, 0]	n/a	FR1	0	R1415T
2067.335	1.627	2068833	WORD	n/a	wordpools/wordpool_EN.txt	TOE	12	16	[0, 0, 0]	n/a	FR1	0	R1415T
2068.962	0.0	2070456	START	n/a	n/a	n/a	-999	16	[-999, -999, -999]	n/a	FR1	0	R1415T
2068.961	0.001	2070461	WORD_OFF	n/a	n/a	TOE	12	16	[0, 0, 0]	n/a	FR1	0	R1415T
2068.962	0.0	2070461	ENCODING_END	n/a	n/a	n/a	-999	16	[0, 0, 0]	n/a	FR1	0	R1415T
2068.962	0.016	2070471	DISTRACT_START	n/a	n/a	n/a	-999	16	[0, 0, 0]	n/a	FR1	0	R1415T
2068.978	6.135	2070472	PROB	6.135	n/a	n/a	-999	16	[8, 6, 1]	15	FR1	0	R1415T
2075.113	4.301	2076607	PROB	4.301	n/a	n/a	-999	16	[9, 2, 3]	14	FR1	0	R1415T
2079.414	13.289	2080908	PROB	13.289	n/a	n/a	-999	16	[7, 1, 5]	13	FR1	0	R1415T
2092.703	0.013	2094196	STOP	n/a	n/a	n/a	-999	16	[-999, -999, -999]	n/a	FR1	0	R1415T
2092.716	2.401	2094204	DISTRACT_END	n/a	n/a	n/a	-999	16	[0, 0, 0]	n/a	FR1	0	R1415T
2095.117	4.717	2096609	REC_START	n/a	n/a	n/a	-999	16	[0, 0, 0]	n/a	FR1	0	R1415T
2099.834	25.295	2101326	REC_WORD	25.295	n/a	SUIT	1	16	[0, 0, 0]	n/a	FR1	0	R1415T
2125.129	3.694	2126631	REC_END	n/a	n/a	n/a	-999	16	[0, 0, 0]	n/a	FR1	0	R1415T
2128.823	10.428	2130337	COUNTDOWN_START	n/a	n/a	n/a	-999	17	[0, 0, 0]	n/a	FR1	0	R1415T
2139.251	1.125	2140744	COUNTDOWN_END	n/a	n/a	n/a	-999	17	[0, 0, 0]	n/a	FR1	0	R1415T
2140.376	0.845	2141857	ENCODING_START	n/a	n/a	n/a	-999	17	[0, 0, 0]	n/a	FR1	0	R1415T
2141.221	1.637	2142718	WORD	n/a	wordpools/wordpool_EN.txt	YARD	1	17	[0, 0, 0]	n/a	FR1	0	R1415T
2142.858	0.834	2144337	WORD_OFF	n/a	n/a	YARD	1	17	[0, 0, 0]	n/a	FR1	0	R1415T
2143.692	1.634	2145189	WORD	n/a	wordpools/wordpool_EN.txt	STRAW	2	17	[0, 0, 0]	n/a	FR1	0	R1415T
2145.326	1.134	2146808	WORD_OFF	n/a	n/a	STRAW	2	17	[0, 0, 0]	n/a	FR1	0	R1415T
2146.46	1.633	2147959	WORD	n/a	wordpools/wordpool_EN.txt	STICK	3	17	[0, 0, 0]	n/a	FR1	0	R1415T
2148.093	0.773	2149578	WORD_OFF	n/a	n/a	STICK	3	17	[0, 0, 0]	n/a	FR1	0	R1415T
2148.866	1.628	2150355	WORD	n/a	wordpools/wordpool_EN.txt	GOAT	4	17	[0, 0, 0]	n/a	FR1	0	R1415T
2150.494	1.061	2151974	WORD_OFF	n/a	n/a	GOAT	4	17	[0, 0, 0]	n/a	FR1	0	R1415T
2151.555	1.622	2153041	WORD	n/a	wordpools/wordpool_EN.txt	CANE	5	17	[0, 0, 0]	n/a	FR1	0	R1415T
2153.177	1.035	2154660	WORD_OFF	n/a	n/a	CANE	5	17	[0, 0, 0]	n/a	FR1	0	R1415T
2154.212	1.632	2155708	WORD	n/a	wordpools/wordpool_EN.txt	PHONE	6	17	[0, 0, 0]	n/a	FR1	0	R1415T
2155.844	1.047	2157327	WORD_OFF	n/a	n/a	PHONE	6	17	[0, 0, 0]	n/a	FR1	0	R1415T
2156.891	1.637	2158394	WORD	n/a	wordpools/wordpool_EN.txt	FAN	7	17	[0, 0, 0]	n/a	FR1	0	R1415T
2158.528	0.868	2160013	WORD_OFF	n/a	n/a	FAN	7	17	[0, 0, 0]	n/a	FR1	0	R1415T
2159.396	1.632	2160892	WORD	n/a	wordpools/wordpool_EN.txt	JUDGE	8	17	[0, 0, 0]	n/a	FR1	0	R1415T
2161.028	0.913	2162511	WORD_OFF	n/a	n/a	JUDGE	8	17	[0, 0, 0]	n/a	FR1	0	R1415T
2161.941	1.638	2163447	WORD	n/a	wordpools/wordpool_EN.txt	EGG	9	17	[0, 0, 0]	n/a	FR1	0	R1415T
2163.579	0.891	2165057	WORD_OFF	n/a	n/a	EGG	9	17	[0, 0, 0]	n/a	FR1	0	R1415T
2164.47	1.626	2165955	WORD	n/a	wordpools/wordpool_EN.txt	MOON	10	17	[0, 0, 0]	n/a	FR1	0	R1415T
2166.096	1.146	2167574	WORD_OFF	n/a	n/a	MOON	10	17	[0, 0, 0]	n/a	FR1	0	R1415T
2167.242	1.621	2168725	WORD	n/a	wordpools/wordpool_EN.txt	NET	11	17	[0, 0, 0]	n/a	FR1	0	R1415T
2168.863	1.111	2170344	WORD_OFF	n/a	n/a	NET	11	17	[0, 0, 0]	n/a	FR1	0	R1415T
2169.974	1.608	2171458	WORD	n/a	wordpools/wordpool_EN.txt	CLOCK	12	17	[0, 0, 0]	n/a	FR1	0	R1415T
2171.582	0.0	2173070	START	n/a	n/a	n/a	-999	17	[-999, -999, -999]	n/a	FR1	0	R1415T
2171.581	0.0	2173077	WORD_OFF	n/a	n/a	CLOCK	12	17	[0, 0, 0]	n/a	FR1	0	R1415T
2171.581	0.001	2173077	ENCODING_END	n/a	n/a	n/a	-999	17	[0, 0, 0]	n/a	FR1	0	R1415T
2171.582	0.015	2173077	DISTRACT_START	n/a	n/a	n/a	-999	17	[0, 0, 0]	n/a	FR1	0	R1415T
2171.597	6.902	2173085	PROB	6.902	n/a	n/a	-999	17	[9, 6, 6]	21	FR1	0	R1415T
2178.499	4.584	2179987	PROB	4.584	n/a	n/a	-999	17	[2, 4, 8]	14	FR1	0	R1415T
2183.083	4.601	2184571	PROB	4.601	n/a	n/a	-999	17	[1, 6, 2]	9	FR1	0	R1415T
2187.684	4.468	2189171	PROB	4.468	n/a	n/a	-999	17	[5, 4, 3]	12	FR1	0	R1415T
2192.152	0.016	2193639	STOP	n/a	n/a	n/a	-999	17	[-999, -999, -999]	n/a	FR1	0	R1415T
2192.168	2.134	2193647	DISTRACT_END	n/a	n/a	n/a	-999	17	[0, 0, 0]	n/a	FR1	0	R1415T
2194.302	29.593	2195790	REC_START	n/a	n/a	n/a	-999	17	[0, 0, 0]	n/a	FR1	0	R1415T
2223.895	0.417	2225380	REC_WORD_VV	0.417	n/a	<>	-999	17	[0, 0, 0]	n/a	FR1	0	R1415T
2224.312	7.33	2225803	REC_END	n/a	n/a	n/a	-999	17	[0, 0, 0]	n/a	FR1	0	R1415T
2231.642	10.429	2233149	COUNTDOWN_START	n/a	n/a	n/a	-999	18	[0, 0, 0]	n/a	FR1	0	R1415T
2242.071	1.123	2243556	COUNTDOWN_END	n/a	n/a	n/a	-999	18	[0, 0, 0]	n/a	FR1	0	R1415T
2243.194	0.948	2244670	ENCODING_START	n/a	n/a	n/a	-999	18	[0, 0, 0]	n/a	FR1	0	R1415T
2244.142	1.635	2245633	WORD	n/a	wordpools/wordpool_EN.txt	DESK	1	18	[0, 0, 0]	n/a	FR1	0	R1415T
2245.777	0.952	2247252	WORD_OFF	n/a	n/a	DESK	1	18	[0, 0, 0]	n/a	FR1	0	R1415T
2246.729	1.615	2248216	WORD	n/a	wordpools/wordpool_EN.txt	HOOF	2	18	[0, 0, 0]	n/a	FR1	0	R1415T
2248.344	0.763	2249817	WORD_OFF	n/a	n/a	HOOF	2	18	[0, 0, 0]	n/a	FR1	0	R1415T
2249.107	1.605	2250584	WORD	n/a	wordpools/wordpool_EN.txt	BEE	3	18	[0, 0, 0]	n/a	FR1	0	R1415T
2250.712	0.811	2252184	WORD_OFF	n/a	n/a	BEE	3	18	[0, 0, 0]	n/a	FR1	0	R1415T
2251.523	1.622	2253008	WORD	n/a	wordpools/wordpool_EN.txt	BROOM	4	18	[0, 0, 0]	n/a	FR1	0	R1415T
2253.145	0.803	2254618	WORD_OFF	n/a	n/a	BROOM	4	18	[0, 0, 0]	n/a	FR1	0	R1415T
2253.948	1.615	2255441	WORD	n/a	wordpools/wordpool_EN.txt	ROCK	5	18	[0, 0, 0]	n/a	FR1	0	R1415T
2255.563	0.994	2257041	WORD_OFF	n/a	n/a	ROCK	5	18	[0, 0, 0]	n/a	FR1	0	R1415T
2256.557	1.606	2258033	WORD	n/a	wordpools/wordpool_EN.txt	SLEEVE	6	18	[0, 0, 0]	n/a	FR1	0	R1415T
2258.163	0.947	2259634	WORD_OFF	n/a	n/a	SLEEVE	6	18	[0, 0, 0]	n/a	FR1	0	R1415T
2259.11	1.636	2260607	WORD	n/a	wordpools/wordpool_EN.txt	DEER	7	18	[0, 0, 0]	n/a	FR1	0	R1415T
2260.746	0.919	2262226	WORD_OFF	n/a	n/a	DEER	7	18	[0, 0, 0]	n/a	FR1	0	R1415T
2261.665	1.632	2263153	WORD	n/a	wordpools/wordpool_EN.txt	TAIL	8	18	[0, 0, 0]	n/a	FR1	0	R1415T
2263.297	0.817	2264772	WORD_OFF	n/a	n/a	TAIL	8	18	[0, 0, 0]	n/a	FR1	0	R1415T
2264.114	1.633	2265604	WORD	n/a	wordpools/wordpool_EN.txt	SMOKE	9	18	[0, 0, 0]	n/a	FR1	0	R1415T
2265.747	0.832	2267223	WORD_OFF	n/a	n/a	SMOKE	9	18	[0, 0, 0]	n/a	FR1	0	R1415T
2266.579	1.636	2268075	WORD	n/a	wordpools/wordpool_EN.txt	CAKE	10	18	[0, 0, 0]	n/a	FR1	0	R1415T
2268.215	0.852	2269694	WORD_OFF	n/a	n/a	CAKE	10	18	[0, 0, 0]	n/a	FR1	0	R1415T
2269.067	1.632	2270555	WORD	n/a	wordpools/wordpool_EN.txt	MULE	11	18	[0, 0, 0]	n/a	FR1	0	R1415T
2270.699	0.79	2272174	WORD_OFF	n/a	n/a	MULE	11	18	[0, 0, 0]	n/a	FR1	0	R1415T
2271.489	1.628	2272970	WORD	n/a	wordpools/wordpool_EN.txt	TOY	12	18	[0, 0, 0]	n/a	FR1	0	R1415T
2273.117	0.0	2274599	START	n/a	n/a	n/a	-999	18	[-999, -999, -999]	n/a	FR1	0	R1415T
2273.116	0.0	2274607	WORD_OFF	n/a	n/a	TOY	12	18	[0, 0, 0]	n/a	FR1	0	R1415T
2273.116	0.001	2274607	ENCODING_END	n/a	n/a	n/a	-999	18	[0, 0, 0]	n/a	FR1	0	R1415T
2273.117	0.015	2274607	DISTRACT_START	n/a	n/a	n/a	-999	18	[0, 0, 0]	n/a	FR1	0	R1415T
2273.132	8.402	2274614	PROB	8.402	n/a	n/a	-999	18	[5, 9, 5]	19	FR1	0	R1415T
2281.534	4.984	2283016	PROB	4.984	n/a	n/a	-999	18	[6, 2, 8]	16	FR1	0	R1415T
2286.518	5.068	2288000	PROB	5.068	n/a	n/a	-999	18	[2, 4, 2]	8	FR1	0	R1415T
2291.586	3.699	2293067	PROB	3.699	n/a	n/a	-999	18	[8, 7, 5]	20	FR1	0	R1415T
2295.285	0.018	2296766	STOP	n/a	n/a	n/a	-999	18	[-999, -999, -999]	n/a	FR1	0	R1415T
2295.303	2.151	2296778	DISTRACT_END	n/a	n/a	n/a	-999	18	[0, 0, 0]	n/a	FR1	0	R1415T
2297.454	7.772	2298939	REC_START	n/a	n/a	n/a	-999	18	[0, 0, 0]	n/a	FR1	0	R1415T
2305.226	22.24	2306706	REC_WORD	22.24	n/a	DESK	1	18	[0, 0, 0]	n/a	FR1	0	R1415T
2327.466	5.028	2328961	REC_END	n/a	n/a	n/a	-999	18	[0, 0, 0]	n/a	FR1	0	R1415T
2332.494	10.429	2333996	COUNTDOWN_START	n/a	n/a	n/a	-999	19	[0, 0, 0]	n/a	FR1	0	R1415T
2342.923	1.223	2344403	COUNTDOWN_END	n/a	n/a	n/a	-999	19	[0, 0, 0]	n/a	FR1	0	R1415T
2344.146	1.014	2345619	ENCODING_START	n/a	n/a	n/a	-999	19	[0, 0, 0]	n/a	FR1	0	R1415T
2345.16	1.635	2346649	WORD	n/a	wordpools/wordpool_EN.txt	BOARD	1	19	[0, 0, 0]	n/a	FR1	0	R1415T
2346.795	0.994	2348268	WORD_OFF	n/a	n/a	BOARD	1	19	[0, 0, 0]	n/a	FR1	0	R1415T
2347.789	1.624	2349269	WORD	n/a	wordpools/wordpool_EN.txt	FUDGE	2	19	[0, 0, 0]	n/a	FR1	0	R1415T
2349.413	1.034	2350888	WORD_OFF	n/a	n/a	FUDGE	2	19	[0, 0, 0]	n/a	FR1	0	R1415T
2350.447	1.633	2351936	WORD	n/a	wordpools/wordpool_EN.txt	STOVE	3	19	[0, 0, 0]	n/a	FR1	0	R1415T
2352.08	1.013	2353555	WORD_OFF	n/a	n/a	STOVE	3	19	[0, 0, 0]	n/a	FR1	0	R1415T
2353.093	1.621	2354566	WORD	n/a	wordpools/wordpool_EN.txt	DOLL	4	19	[0, 0, 0]	n/a	FR1	0	R1415T
2354.714	0.831	2356185	WORD_OFF	n/a	n/a	DOLL	4	19	[0, 0, 0]	n/a	FR1	0	R1415T
2355.545	1.636	2357037	WORD	n/a	wordpools/wordpool_EN.txt	POLE	5	19	[0, 0, 0]	n/a	FR1	0	R1415T
2357.181	0.819	2358656	WORD_OFF	n/a	n/a	POLE	5	19	[0, 0, 0]	n/a	FR1	0	R1415T
2358.0	1.631	2359479	WORD	n/a	wordpools/wordpool_EN.txt	HEN	6	19	[0, 0, 0]	n/a	FR1	0	R1415T
2359.631	0.809	2361098	WORD_OFF	n/a	n/a	HEN	6	19	[0, 0, 0]	n/a	FR1	0	R1415T
2360.44	1.624	2361922	WORD	n/a	wordpools/wordpool_EN.txt	GLOVE	7	19	[0, 0, 0]	n/a	FR1	0	R1415T
2362.064	1.124	2363532	WORD_OFF	n/a	n/a	GLOVE	7	19	[0, 0, 0]	n/a	FR1	0	R1415T
2363.188	1.627	2364664	WORD	n/a	wordpools/wordpool_EN.txt	TRAIN	8	19	[0, 0, 0]	n/a	FR1	0	R1415T
2364.815	0.898	2366283	WORD_OFF	n/a	n/a	TRAIN	8	19	[0, 0, 0]	n/a	FR1	0	R1415T
2365.713	1.636	2367200	WORD	n/a	wordpools/wordpool_EN.txt	FLUTE	9	19	[0, 0, 0]	n/a	FR1	0	R1415T
2367.349	0.934	2368819	WORD_OFF	n/a	n/a	FLUTE	9	19	[0, 0, 0]	n/a	FR1	0	R1415T
2368.283	1.633	2369764	WORD	n/a	wordpools/wordpool_EN.txt	STREET	10	19	[0, 0, 0]	n/a	FR1	0	R1415T
2369.916	0.893	2371383	WORD_OFF	n/a	n/a	STREET	10	19	[0, 0, 0]	n/a	FR1	0	R1415T
2370.809	1.625	2372282	WORD	n/a	wordpools/wordpool_EN.txt	ROSE	11	19	[0, 0, 0]	n/a	FR1	0	R1415T
2372.434	1.019	2373901	WORD_OFF	n/a	n/a	ROSE	11	19	[0, 0, 0]	n/a	FR1	0	R1415T
2373.453	1.632	2374940	WORD	n/a	wordpools/wordpool_EN.txt	BREAD	12	19	[0, 0, 0]	n/a	FR1	0	R1415T
2375.085	0.0	2376561	START	n/a	n/a	n/a	-999	19	[-999, -999, -999]	n/a	FR1	0	R1415T
2375.084	0.0	2376568	WORD_OFF	n/a	n/a	BREAD	12	19	[0, 0, 0]	n/a	FR1	0	R1415T
2375.084	0.001	2376568	ENCODING_END	n/a	n/a	n/a	-999	19	[0, 0, 0]	n/a	FR1	0	R1415T
2375.085	0.016	2376577	DISTRACT_START	n/a	n/a	n/a	-999	19	[0, 0, 0]	n/a	FR1	0	R1415T
2375.101	6.134	2376577	PROB	6.134	n/a	n/a	-999	19	[4, 3, 5]	12	FR1	0	R1415T
2381.235	5.151	2382711	PROB	5.151	n/a	n/a	-999	19	[2, 4, 2]	8	FR1	0	R1415T
2386.386	3.667	2387862	PROB	3.667	n/a	n/a	-999	19	[8, 1, 3]	12	FR1	0	R1415T
2390.053	4.101	2391528	PROB	4.101	n/a	n/a	-999	19	[9, 6, 6]	21	FR1	0	R1415T
2394.154	4.189	2395629	PROB	4.189	n/a	n/a	-999	19	[9, 4, 8]	21	FR1	0	R1415T
2398.343	0.012	2399818	STOP	n/a	n/a	n/a	-999	19	[-999, -999, -999]	n/a	FR1	0	R1415T
2398.355	2.084	2399824	DISTRACT_END	n/a	n/a	n/a	-999	19	[0, 0, 0]	n/a	FR1	0	R1415T
2400.439	3.114	2401920	REC_START	n/a	n/a	n/a	-999	19	[0, 0, 0]	n/a	FR1	0	R1415T
2403.553	26.898	2405028	REC_WORD	26.898	n/a	BOARD	1	19	[0, 0, 0]	n/a	FR1	0	R1415T
2430.451	4.527	2431942	REC_END	n/a	n/a	n/a	-999	19	[0, 0, 0]	n/a	FR1	0	R1415T
2434.978	10.428	2436481	COUNTDOWN_START	n/a	n/a	n/a	-999	20	[0, 0, 0]	n/a	FR1	0	R1415T
2445.406	1.175	2446878	COUNTDOWN_END	n/a	n/a	n/a	-999	20	[0, 0, 0]	n/a	FR1	0	R1415T
2446.581	1.099	2448048	ENCODING_START	n/a	n/a	n/a	-999	20	[0, 0, 0]	n/a	FR1	0	R1415T
2447.68	1.634	2449162	WORD	n/a	wordpools/wordpool_EN.txt	PLANT	1	20	[0, 0, 0]	n/a	FR1	0	R1415T
2449.314	0.894	2450781	WORD_OFF	n/a	n/a	PLANT	1	20	[0, 0, 0]	n/a	FR1	0	R1415T
2450.208	1.623	2451679	WORD	n/a	wordpools/wordpool_EN.txt	CROW	2	20	[0, 0, 0]	n/a	FR1	0	R1415T
2451.831	0.833	2453298	WORD_OFF	n/a	n/a	CROW	2	20	[0, 0, 0]	n/a	FR1	0	R1415T
2452.664	1.635	2454150	WORD	n/a	wordpools/wordpool_EN.txt	WEB	3	20	[0, 0, 0]	n/a	FR1	0	R1415T
2454.299	1.092	2455760	WORD_OFF	n/a	n/a	WEB	3	20	[0, 0, 0]	n/a	FR1	0	R1415T
2455.391	1.624	2456864	WORD	n/a	wordpools/wordpool_EN.txt	SEED	4	20	[0, 0, 0]	n/a	FR1	0	R1415T
2457.015	0.862	2458483	WORD_OFF	n/a	n/a	SEED	4	20	[0, 0, 0]	n/a	FR1	0	R1415T
2457.877	1.623	2459344	WORD	n/a	wordpools/wordpool_EN.txt	LAMB	5	20	[0, 0, 0]	n/a	FR1	0	R1415T
2459.5	1.128	2460963	WORD_OFF	n/a	n/a	LAMB	5	20	[0, 0, 0]	n/a	FR1	0	R1415T
2460.628	1.622	2462095	WORD	n/a	wordpools/wordpool_EN.txt	HORSE	6	20	[0, 0, 0]	n/a	FR1	0	R1415T
2462.25	1.144	2463714	WORD_OFF	n/a	n/a	HORSE	6	20	[0, 0, 0]	n/a	FR1	0	R1415T
2463.394	1.622	2464865	WORD	n/a	wordpools/wordpool_EN.txt	DART	7	20	[0, 0, 0]	n/a	FR1	0	R1415T
2465.016	1.1	2466484	WORD_OFF	n/a	n/a	DART	7	20	[0, 0, 0]	n/a	FR1	0	R1415T
2466.116	1.634	2467598	WORD	n/a	wordpools/wordpool_EN.txt	BADGE	8	20	[0, 0, 0]	n/a	FR1	0	R1415T
2467.75	1.064	2469217	WORD_OFF	n/a	n/a	BADGE	8	20	[0, 0, 0]	n/a	FR1	0	R1415T
2468.814	1.621	2470284	WORD	n/a	wordpools/wordpool_EN.txt	COW	9	20	[0, 0, 0]	n/a	FR1	0	R1415T
2470.435	0.841	2471903	WORD_OFF	n/a	n/a	COW	9	20	[0, 0, 0]	n/a	FR1	0	R1415T
2471.276	1.625	2472745	WORD	n/a	wordpools/wordpool_EN.txt	FLAME	10	20	[0, 0, 0]	n/a	FR1	0	R1415T
2472.901	0.868	2474364	WORD_OFF	n/a	n/a	FLAME	10	20	[0, 0, 0]	n/a	FR1	0	R1415T
2473.769	1.617	2475253	WORD	n/a	wordpools/wordpool_EN.txt	MOOSE	11	20	[0, 0, 0]	n/a	FR1	0	R1415T
2475.386	1.139	2476854	WORD_OFF	n/a	n/a	MOOSE	11	20	[0, 0, 0]	n/a	FR1	0	R1415T
2476.525	1.629	2477995	WORD	n/a	wordpools/wordpool_EN.txt	CORD	12	20	[0, 0, 0]	n/a	FR1	0	R1415T
2478.154	0.0	2479624	START	n/a	n/a	n/a	-999	20	[-999, -999, -999]	n/a	FR1	0	R1415T
2478.153	0.0	2479633	WORD_OFF	n/a	n/a	CORD	12	20	[0, 0, 0]	n/a	FR1	0	R1415T
2478.153	0.001	2479633	ENCODING_END	n/a	n/a	n/a	-999	20	[0, 0, 0]	n/a	FR1	0	R1415T
2478.154	0.015	2479633	DISTRACT_START	n/a	n/a	n/a	-999	20	[0, 0, 0]	n/a	FR1	0	R1415T
2478.169	9.718	2479639	PROB	9.718	n/a	n/a	-999	20	[5, 8, 4]	17	FR1	0	R1415T
2487.887	3.618	2489357	PROB	3.618	n/a	n/a	-999	20	[6, 6, 2]	14	FR1	0	R1415T
2491.505	3.651	2492975	PROB	3.651	n/a	n/a	-999	20	[5, 9, 7]	21	FR1	0	R1415T
2495.156	4.716	2496625	PROB	4.716	n/a	n/a	-999	20	[8, 9, 5]	22	FR1	0	R1415T
2499.872	0.017	2501341	STOP	n/a	n/a	n/a	-999	20	[-999, -999, -999]	n/a	FR1	0	R1415T
2499.889	2.352	2501354	DISTRACT_END	n/a	n/a	n/a	-999	20	[0, 0, 0]	n/a	FR1	0	R1415T
2502.241	2.426	2503712	REC_START	n/a	n/a	n/a	-999	20	[0, 0, 0]	n/a	FR1	0	R1415T
2504.667	6.255	2506136	REC_WORD	6.255	n/a	HORSE	6	20	[0, 0, 0]	n/a	FR1	0	R1415T
2510.922	5.435	2512390	REC_WORD	5.435	n/a	LAMB	5	20	[0, 0, 0]	n/a	FR1	0	R1415T
2516.357	5.171	2517825	REC_WORD	5.171	n/a	PLANT	1	20	[0, 0, 0]	n/a	FR1	0	R1415T
2521.528	4.992	2522996	REC_WORD	4.992	n/a	COW	9	20	[0, 0, 0]	n/a	FR1	0	R1415T
2526.52	5.732	2527987	REC_WORD	5.732	n/a	SEED	4	20	[0, 0, 0]	n/a	FR1	0	R1415T
2532.252	4.096	2533734	REC_END	n/a	n/a	n/a	-999	20	[0, 0, 0]	n/a	FR1	0	R1415T
2536.348	10.429	2537843	COUNTDOWN_START	n/a	n/a	n/a	-999	21	[0, 0, 0]	n/a	FR1	0	R1415T
2546.777	1.072	2548240	COUNTDOWN_END	n/a	n/a	n/a	-999	21	[0, 0, 0]	n/a	FR1	0	R1415T
2547.849	1.007	2549316	ENCODING_START	n/a	n/a	n/a	-999	21	[0, 0, 0]	n/a	FR1	0	R1415T
2548.856	1.627	2550327	WORD	n/a	wordpools/wordpool_EN.txt	FROG	1	21	[0, 0, 0]	n/a	FR1	0	R1415T
2550.483	0.88	2551946	WORD_OFF	n/a	n/a	FROG	1	21	[0, 0, 0]	n/a	FR1	0	R1415T
2551.363	1.636	2552844	WORD	n/a	wordpools/wordpool_EN.txt	FRUIT	2	21	[0, 0, 0]	n/a	FR1	0	R1415T
2552.999	0.762	2554463	WORD_OFF	n/a	n/a	FRUIT	2	21	[0, 0, 0]	n/a	FR1	0	R1415T
2553.761	1.606	2555221	WORD	n/a	wordpools/wordpool_EN.txt	MILK	3	21	[0, 0, 0]	n/a	FR1	0	R1415T
2555.367	0.901	2556831	WORD_OFF	n/a	n/a	MILK	3	21	[0, 0, 0]	n/a	FR1	0	R1415T
2556.268	1.632	2557739	WORD	n/a	wordpools/wordpool_EN.txt	PIPE	4	21	[0, 0, 0]	n/a	FR1	0	R1415T
2557.9	1.059	2559358	WORD_OFF	n/a	n/a	PIPE	4	21	[0, 0, 0]	n/a	FR1	0	R1415T
2558.959	1.626	2560425	WORD	n/a	wordpools/wordpool_EN.txt	SHARK	5	21	[0, 0, 0]	n/a	FR1	0	R1415T
2560.585	1.106	2562044	WORD_OFF	n/a	n/a	SHARK	5	21	[0, 0, 0]	n/a	FR1	0	R1415T
2561.691	1.627	2563157	WORD	n/a	wordpools/wordpool_EN.txt	ANT	6	21	[0, 0, 0]	n/a	FR1	0	R1415T
2563.318	0.868	2564776	WORD_OFF	n/a	n/a	ANT	6	21	[0, 0, 0]	n/a	FR1	0	R1415T
2564.186	1.632	2565656	WORD	n/a	wordpools/wordpool_EN.txt	BLOOM	7	21	[0, 0, 0]	n/a	FR1	0	R1415T
2565.818	0.846	2567275	WORD_OFF	n/a	n/a	BLOOM	7	21	[0, 0, 0]	n/a	FR1	0	R1415T
2566.664	1.622	2568127	WORD	n/a	wordpools/wordpool_EN.txt	SHEEP	8	21	[0, 0, 0]	n/a	FR1	0	R1415T
2568.286	0.773	2569746	WORD_OFF	n/a	n/a	SHEEP	8	21	[0, 0, 0]	n/a	FR1	0	R1415T
2569.059	1.627	2570532	WORD	n/a	wordpools/wordpool_EN.txt	SKUNK	9	21	[0, 0, 0]	n/a	FR1	0	R1415T
2570.686	0.802	2572142	WORD_OFF	n/a	n/a	SKUNK	9	21	[0, 0, 0]	n/a	FR1	0	R1415T
2571.488	1.632	2572965	WORD	n/a	wordpools/wordpool_EN.txt	DITCH	10	21	[0, 0, 0]	n/a	FR1	0	R1415T
2573.12	0.765	2574575	WORD_OFF	n/a	n/a	DITCH	10	21	[0, 0, 0]	n/a	FR1	0	R1415T
2573.885	1.636	2575361	WORD	n/a	wordpools/wordpool_EN.txt	CAVE	11	21	[0, 0, 0]	n/a	FR1	0	R1415T
2575.521	0.892	2576980	WORD_OFF	n/a	n/a	CAVE	11	21	[0, 0, 0]	n/a	FR1	0	R1415T
2576.413	1.625	2577878	WORD	n/a	wordpools/wordpool_EN.txt	DIME	12	21	[0, 0, 0]	n/a	FR1	0	R1415T
2578.038	0.0	2579502	START	n/a	n/a	n/a	-999	21	[-999, -999, -999]	n/a	FR1	0	R1415T
2578.037	0.0	2579516	WORD_OFF	n/a	n/a	DIME	12	21	[0, 0, 0]	n/a	FR1	0	R1415T
2578.037	0.001	2579516	ENCODING_END	n/a	n/a	n/a	-999	21	[0, 0, 0]	n/a	FR1	0	R1415T
2578.038	0.015	2579516	DISTRACT_START	n/a	n/a	n/a	-999	21	[0, 0, 0]	n/a	FR1	0	R1415T
2578.053	10.153	2579517	PROB	10.153	n/a	n/a	-999	21	[2, 1, 5]	8	FR1	0	R1415T
2588.206	5.583	2589670	PROB	5.583	n/a	n/a	-999	21	[7, 9, 3]	19	FR1	0	R1415T
2593.789	3.369	2595253	PROB	3.369	n/a	n/a	-999	21	[2, 4, 6]	12	FR1	0	R1415T
2597.158	3.87	2598621	PROB	3.87	n/a	n/a	-999	21	[9, 5, 3]	17	FR1	0	R1415T
2601.028	0.013	2602491	STOP	n/a	n/a	n/a	-999	21	[-999, -999, -999]	n/a	FR1	0	R1415T
2601.041	2.168	2602501	DISTRACT_END	n/a	n/a	n/a	-999	21	[0, 0, 0]	n/a	FR1	0	R1415T
2603.209	3.878	2604681	REC_START	n/a	n/a	n/a	-999	21	[0, 0, 0]	n/a	FR1	0	R1415T
2607.087	4.187	2608550	REC_WORD	4.187	n/a	FROG	1	21	[0, 0, 0]	n/a	FR1	0	R1415T
2611.274	6.534	2612737	REC_WORD	6.534	n/a	FRUIT	2	21	[0, 0, 0]	n/a	FR1	0	R1415T
2617.808	8.926	2619270	REC_WORD	8.926	n/a	SHEEP	8	21	[0, 0, 0]	n/a	FR1	0	R1415T
2626.734	6.488	2628196	REC_WORD	6.488	n/a	PEAR	-999	21	[0, 0, 0]	n/a	FR1	0	R1415T
2633.222	3.444	2634694	REC_END	n/a	n/a	n/a	-999	21	[0, 0, 0]	n/a	FR1	0	R1415T
2636.666	10.429	2638156	COUNTDOWN_START	n/a	n/a	n/a	-999	22	[0, 0, 0]	n/a	FR1	0	R1415T
2647.095	1.206	2648554	COUNTDOWN_END	n/a	n/a	n/a	-999	22	[0, 0, 0]	n/a	FR1	0	R1415T
2648.301	0.857	2649761	ENCODING_START	n/a	n/a	n/a	-999	22	[0, 0, 0]	n/a	FR1	0	R1415T
2649.158	1.625	2650622	WORD	n/a	wordpools/wordpool_EN.txt	COUCH	1	22	[0, 0, 0]	n/a	FR1	0	R1415T
2650.783	0.777	2652241	WORD_OFF	n/a	n/a	COUCH	1	22	[0, 0, 0]	n/a	FR1	0	R1415T
2651.56	1.625	2653027	WORD	n/a	wordpools/wordpool_EN.txt	GATE	2	22	[0, 0, 0]	n/a	FR1	0	R1415T
2653.185	0.88	2654637	WORD_OFF	n/a	n/a	GATE	2	22	[0, 0, 0]	n/a	FR1	0	R1415T
2654.065	1.637	2655535	WORD	n/a	wordpools/wordpool_EN.txt	CHALK	3	22	[0, 0, 0]	n/a	FR1	0	R1415T
2655.702	1.092	2657154	WORD_OFF	n/a	n/a	CHALK	3	22	[0, 0, 0]	n/a	FR1	0	R1415T
2656.794	1.625	2658258	WORD	n/a	wordpools/wordpool_EN.txt	SHELL	4	22	[0, 0, 0]	n/a	FR1	0	R1415T
2658.419	0.919	2659877	WORD_OFF	n/a	n/a	SHELL	4	22	[0, 0, 0]	n/a	FR1	0	R1415T
2659.338	1.63	2660804	WORD	n/a	wordpools/wordpool_EN.txt	LAWN	5	22	[0, 0, 0]	n/a	FR1	0	R1415T
2660.968	1.024	2662423	WORD_OFF	n/a	n/a	LAWN	5	22	[0, 0, 0]	n/a	FR1	0	R1415T
2661.992	1.628	2663452	WORD	n/a	wordpools/wordpool_EN.txt	MUG	6	22	[0, 0, 0]	n/a	FR1	0	R1415T
2663.62	1.022	2665071	WORD_OFF	n/a	n/a	MUG	6	22	[0, 0, 0]	n/a	FR1	0	R1415T
2664.642	1.628	2666110	WORD	n/a	wordpools/wordpool_EN.txt	SLIME	7	22	[0, 0, 0]	n/a	FR1	0	R1415T
2666.27	0.945	2667729	WORD_OFF	n/a	n/a	SLIME	7	22	[0, 0, 0]	n/a	FR1	0	R1415T
2667.215	1.621	2668674	WORD	n/a	wordpools/wordpool_EN.txt	GLASS	8	22	[0, 0, 0]	n/a	FR1	0	R1415T
2668.836	0.969	2670293	WORD_OFF	n/a	n/a	GLASS	8	22	[0, 0, 0]	n/a	FR1	0	R1415T
2669.805	1.633	2671276	WORD	n/a	wordpools/wordpool_EN.txt	BENCH	9	22	[0, 0, 0]	n/a	FR1	0	R1415T
2671.438	0.763	2672895	WORD_OFF	n/a	n/a	BENCH	9	22	[0, 0, 0]	n/a	FR1	0	R1415T
2672.201	1.636	2673672	WORD	n/a	wordpools/wordpool_EN.txt	ROAD	10	22	[0, 0, 0]	n/a	FR1	0	R1415T
2673.837	1.114	2675291	WORD_OFF	n/a	n/a	ROAD	10	22	[0, 0, 0]	n/a	FR1	0	R1415T
2674.951	1.638	2676423	WORD	n/a	wordpools/wordpool_EN.txt	CHIN	11	22	[0, 0, 0]	n/a	FR1	0	R1415T
2676.589	0.886	2678042	WORD_OFF	n/a	n/a	CHIN	11	22	[0, 0, 0]	n/a	FR1	0	R1415T
2677.475	1.632	2678941	WORD	n/a	wordpools/wordpool_EN.txt	THREAD	12	22	[0, 0, 0]	n/a	FR1	0	R1415T
2679.107	0.0	2680566	START	n/a	n/a	n/a	-999	22	[-999, -999, -999]	n/a	FR1	0	R1415T
2679.106	0.0	2680578	WORD_OFF	n/a	n/a	THREAD	12	22	[0, 0, 0]	n/a	FR1	0	R1415T
2679.106	0.001	2680578	ENCODING_END	n/a	n/a	n/a	-999	22	[0, 0, 0]	n/a	FR1	0	R1415T
2679.107	0.016	2680578	DISTRACT_START	n/a	n/a	n/a	-999	22	[0, 0, 0]	n/a	FR1	0	R1415T
2679.123	5.75	2680582	PROB	5.75	n/a	n/a	-999	22	[7, 4, 9]	20	FR1	0	R1415T
2684.873	4.668	2686331	PROB	4.668	n/a	n/a	-999	22	[6, 4, 4]	14	FR1	0	R1415T
2689.541	5.118	2690999	PROB	5.118	n/a	n/a	-999	22	[6, 6, 5]	17	FR1	0	R1415T
2694.659	3.249	2696117	PROB	3.249	n/a	n/a	-999	22	[7, 7, 6]	20	FR1	0	R1415T
2697.908	4.665	2699365	PROB	4.665	n/a	n/a	-999	22	[6, 6, 4]	16	FR1	0	R1415T
2702.573	0.021	2704030	STOP	n/a	n/a	n/a	-999	22	[-999, -999, -999]	n/a	FR1	0	R1415T
2702.594	2.166	2704049	DISTRACT_END	n/a	n/a	n/a	-999	22	[0, 0, 0]	n/a	FR1	0	R1415T
2704.76	3.259	2706221	REC_START	n/a	n/a	n/a	-999	22	[0, 0, 0]	n/a	FR1	0	R1415T
2708.019	13.459	2709476	REC_WORD	13.459	n/a	SLIME	7	22	[0, 0, 0]	n/a	FR1	0	R1415T
2721.478	4.183	2722934	REC_WORD_VV	4.183	n/a	<>	-999	22	[0, 0, 0]	n/a	FR1	0	R1415T
2725.661	9.11	2727117	REC_WORD	9.11	n/a	MILK	-999	22	[0, 0, 0]	n/a	FR1	0	R1415T
2734.771	4.714	2736243	REC_END	n/a	n/a	n/a	-999	22	[0, 0, 0]	n/a	FR1	0	R1415T
2739.485	10.429	2740969	COUNTDOWN_START	n/a	n/a	n/a	-999	23	[0, 0, 0]	n/a	FR1	0	R1415T
2749.914	1.172	2751366	COUNTDOWN_END	n/a	n/a	n/a	-999	23	[0, 0, 0]	n/a	FR1	0	R1415T
2751.086	1.097	2752536	ENCODING_START	n/a	n/a	n/a	-999	23	[0, 0, 0]	n/a	FR1	0	R1415T
2752.183	1.635	2753649	WORD	n/a	wordpools/wordpool_EN.txt	LAKE	1	23	[0, 0, 0]	n/a	FR1	0	R1415T
2753.818	1.137	2755268	WORD_OFF	n/a	n/a	LAKE	1	23	[0, 0, 0]	n/a	FR1	0	R1415T
2754.955	1.632	2756420	WORD	n/a	wordpools/wordpool_EN.txt	OAK	2	23	[0, 0, 0]	n/a	FR1	0	R1415T
2756.587	0.966	2758039	WORD_OFF	n/a	n/a	OAK	2	23	[0, 0, 0]	n/a	FR1	0	R1415T
2757.553	1.634	2759021	WORD	n/a	wordpools/wordpool_EN.txt	BALL	3	23	[0, 0, 0]	n/a	FR1	0	R1415T
2759.187	0.789	2760640	WORD_OFF	n/a	n/a	BALL	3	23	[0, 0, 0]	n/a	FR1	0	R1415T
2759.976	1.611	2761436	WORD	n/a	wordpools/wordpool_EN.txt	STAIR	4	23	[0, 0, 0]	n/a	FR1	0	R1415T
2761.587	0.894	2763036	WORD_OFF	n/a	n/a	STAIR	4	23	[0, 0, 0]	n/a	FR1	0	R1415T
2762.481	1.624	2763934	WORD	n/a	wordpools/wordpool_EN.txt	AXE	5	23	[0, 0, 0]	n/a	FR1	0	R1415T
2764.105	0.84	2765553	WORD_OFF	n/a	n/a	AXE	5	23	[0, 0, 0]	n/a	FR1	0	R1415T
2764.945	1.627	2766405	WORD	n/a	wordpools/wordpool_EN.txt	PLANE	6	23	[0, 0, 0]	n/a	FR1	0	R1415T
2766.572	0.901	2768024	WORD_OFF	n/a	n/a	PLANE	6	23	[0, 0, 0]	n/a	FR1	0	R1415T
2767.473	1.633	2768941	WORD	n/a	wordpools/wordpool_EN.txt	SEAT	7	23	[0, 0, 0]	n/a	FR1	0	R1415T
2769.106	0.952	2770551	WORD_OFF	n/a	n/a	SEAT	7	23	[0, 0, 0]	n/a	FR1	0	R1415T
2770.058	1.631	2771524	WORD	n/a	wordpools/wordpool_EN.txt	THUMB	8	23	[0, 0, 0]	n/a	FR1	0	R1415T
2771.689	0.878	2773134	WORD_OFF	n/a	n/a	THUMB	8	23	[0, 0, 0]	n/a	FR1	0	R1415T
2772.567	1.623	2774023	WORD	n/a	wordpools/wordpool_EN.txt	HOUSE	9	23	[0, 0, 0]	n/a	FR1	0	R1415T
2774.19	1.003	2775642	WORD_OFF	n/a	n/a	HOUSE	9	23	[0, 0, 0]	n/a	FR1	0	R1415T
2775.193	1.629	2776653	WORD	n/a	wordpools/wordpool_EN.txt	MUD	10	23	[0, 0, 0]	n/a	FR1	0	R1415T
2776.822	0.818	2778272	WORD_OFF	n/a	n/a	MUD	10	23	[0, 0, 0]	n/a	FR1	0	R1415T
2777.64	1.634	2779104	WORD	n/a	wordpools/wordpool_EN.txt	PEN	11	23	[0, 0, 0]	n/a	FR1	0	R1415T
2779.274	1.027	2780724	WORD_OFF	n/a	n/a	PEN	11	23	[0, 0, 0]	n/a	FR1	0	R1415T
2780.301	1.624	2781753	WORD	n/a	wordpools/wordpool_EN.txt	BEAN	12	23	[0, 0, 0]	n/a	FR1	0	R1415T
2781.925	0.0	2783378	START	n/a	n/a	n/a	-999	23	[-999, -999, -999]	n/a	FR1	0	R1415T
2781.924	0.0	2783391	WORD_OFF	n/a	n/a	BEAN	12	23	[0, 0, 0]	n/a	FR1	0	R1415T
2781.924	0.001	2783391	ENCODING_END	n/a	n/a	n/a	-999	23	[0, 0, 0]	n/a	FR1	0	R1415T
2781.925	0.015	2783391	DISTRACT_START	n/a	n/a	n/a	-999	23	[0, 0, 0]	n/a	FR1	0	R1415T
2781.94	6.702	2783393	PROB	6.702	n/a	n/a	-999	23	[7, 3, 3]	13	FR1	0	R1415T
2788.642	3.735	2790094	PROB	3.735	n/a	n/a	-999	23	[1, 9, 3]	13	FR1	0	R1415T
2792.377	5.399	2793829	PROB	5.399	n/a	n/a	-999	23	[9, 9, 3]	21	FR1	0	R1415T
2797.776	4.619	2799228	PROB	4.619	n/a	n/a	-999	23	[8, 6, 2]	16	FR1	0	R1415T
2802.395	0.0	2803839	DISTRACT_END	n/a	n/a	n/a	-999	23	[0, 0, 0]	n/a	FR1	0	R1415T
2802.389	2.207	2803840	STOP	n/a	n/a	n/a	-999	23	[-999, -999, -999]	n/a	FR1	0	R1415T
2804.596	29.988	2806057	REC_START	n/a	n/a	n/a	-999	23	[0, 0, 0]	n/a	FR1	0	R1415T
2834.584	0.022	2836033	REC_WORD_VV	0.022	n/a	<>	-999	23	[0, 0, 0]	n/a	FR1	0	R1415T
2834.606	4.013	2836070	REC_END	n/a	n/a	n/a	-999	23	[0, 0, 0]	n/a	FR1	0	R1415T
2838.619	10.428	2840103	COUNTDOWN_START	n/a	n/a	n/a	-999	24	[0, 0, 0]	n/a	FR1	0	R1415T
2849.047	1.041	2850500	COUNTDOWN_END	n/a	n/a	n/a	-999	24	[0, 0, 0]	n/a	FR1	0	R1415T
2850.088	0.919	2851530	ENCODING_START	n/a	n/a	n/a	-999	24	[0, 0, 0]	n/a	FR1	0	R1415T
2851.007	1.614	2852466	WORD	n/a	wordpools/wordpool_EN.txt	DRESS	1	24	[0, 0, 0]	n/a	FR1	0	R1415T
2852.621	0.779	2854066	WORD_OFF	n/a	n/a	DRESS	1	24	[0, 0, 0]	n/a	FR1	0	R1415T
2853.4	1.62	2854852	WORD	n/a	wordpools/wordpool_EN.txt	JET	2	24	[0, 0, 0]	n/a	FR1	0	R1415T
2855.02	0.831	2856462	WORD_OFF	n/a	n/a	JET	2	24	[0, 0, 0]	n/a	FR1	0	R1415T
2855.851	1.637	2857313	WORD	n/a	wordpools/wordpool_EN.txt	SQUARE	3	24	[0, 0, 0]	n/a	FR1	0	R1415T
2857.488	0.813	2858932	WORD_OFF	n/a	n/a	SQUARE	3	24	[0, 0, 0]	n/a	FR1	0	R1415T
2858.301	1.62	2859747	WORD	n/a	wordpools/wordpool_EN.txt	STEAK	4	24	[0, 0, 0]	n/a	FR1	0	R1415T
2859.921	0.874	2861366	WORD_OFF	n/a	n/a	STEAK	4	24	[0, 0, 0]	n/a	FR1	0	R1415T
2860.795	1.611	2862245	WORD	n/a	wordpools/wordpool_EN.txt	PEA	5	24	[0, 0, 0]	n/a	FR1	0	R1415T
2862.406	1.08	2863846	WORD_OFF	n/a	n/a	PEA	5	24	[0, 0, 0]	n/a	FR1	0	R1415T
2863.486	1.62	2864931	WORD	n/a	wordpools/wordpool_EN.txt	RAIN	6	24	[0, 0, 0]	n/a	FR1	0	R1415T
2865.106	0.836	2866550	WORD_OFF	n/a	n/a	RAIN	6	24	[0, 0, 0]	n/a	FR1	0	R1415T
2865.942	1.615	2867402	WORD	n/a	wordpools/wordpool_EN.txt	SHEET	7	24	[0, 0, 0]	n/a	FR1	0	R1415T
2867.557	1.039	2869002	WORD_OFF	n/a	n/a	SHEET	7	24	[0, 0, 0]	n/a	FR1	0	R1415T
2868.596	1.628	2870050	WORD	n/a	wordpools/wordpool_EN.txt	WEED	8	24	[0, 0, 0]	n/a	FR1	0	R1415T
2870.224	1.122	2871669	WORD_OFF	n/a	n/a	WEED	8	24	[0, 0, 0]	n/a	FR1	0	R1415T
2871.346	1.627	2872802	WORD	n/a	wordpools/wordpool_EN.txt	EEL	9	24	[0, 0, 0]	n/a	FR1	0	R1415T
2872.973	0.937	2874421	WORD_OFF	n/a	n/a	EEL	9	24	[0, 0, 0]	n/a	FR1	0	R1415T
2873.91	1.632	2875366	WORD	n/a	wordpools/wordpool_EN.txt	TOAST	10	24	[0, 0, 0]	n/a	FR1	0	R1415T
2875.542	0.846	2876985	WORD_OFF	n/a	n/a	TOAST	10	24	[0, 0, 0]	n/a	FR1	0	R1415T
2876.388	1.62	2877837	WORD	n/a	wordpools/wordpool_EN.txt	LIP	11	24	[0, 0, 0]	n/a	FR1	0	R1415T
2878.008	0.937	2879456	WORD_OFF	n/a	n/a	LIP	11	24	[0, 0, 0]	n/a	FR1	0	R1415T
2878.945	1.632	2880401	WORD	n/a	wordpools/wordpool_EN.txt	CLAY	12	24	[0, 0, 0]	n/a	FR1	0	R1415T
2880.577	0.0	2882024	START	n/a	n/a	n/a	-999	24	[-999, -999, -999]	n/a	FR1	0	R1415T
2880.576	0.0	2882038	WORD_OFF	n/a	n/a	CLAY	12	24	[0, 0, 0]	n/a	FR1	0	R1415T
2880.576	0.001	2882038	ENCODING_END	n/a	n/a	n/a	-999	24	[0, 0, 0]	n/a	FR1	0	R1415T
2880.577	0.015	2882038	DISTRACT_START	n/a	n/a	n/a	-999	24	[0, 0, 0]	n/a	FR1	0	R1415T
2880.592	5.284	2882039	PROB	5.284	n/a	n/a	-999	24	[9, 1, 1]	11	FR1	0	R1415T
2885.876	5.785	2887322	PROB	5.785	n/a	n/a	-999	24	[5, 4, 7]	16	FR1	0	R1415T
2891.661	6.234	2893107	PROB	6.234	n/a	n/a	-999	24	[5, 9, 2]	16	FR1	0	R1415T
2897.895	3.658	2899341	PROB	3.658	n/a	n/a	-999	24	[6, 4, 5]	15	FR1	0	R1415T
2901.553	0.01	2902999	STOP	n/a	n/a	n/a	-999	24	[-999, -999, -999]	n/a	FR1	0	R1415T
2901.563	2.084	2903001	DISTRACT_END	n/a	n/a	n/a	-999	24	[0, 0, 0]	n/a	FR1	0	R1415T
2903.647	3.668	2905107	REC_START	n/a	n/a	n/a	-999	24	[0, 0, 0]	n/a	FR1	0	R1415T
2907.315	2.702	2908760	REC_WORD	2.702	n/a	DRESS	1	24	[0, 0, 0]	n/a	FR1	0	R1415T
2910.017	4.78	2911462	REC_WORD	4.78	n/a	SHIP	-999	24	[0, 0, 0]	n/a	FR1	0	R1415T
2914.797	18.863	2916242	REC_WORD	18.863	n/a	EEL	9	24	[0, 0, 0]	n/a	FR1	0	R1415T
2933.66	3.259	2935120	REC_END	n/a	n/a	n/a	-999	24	[0, 0, 0]	n/a	FR1	0	R1415T
2936.919	10.429	2938395	COUNTDOWN_START	n/a	n/a	n/a	-999	25	[0, 0, 0]	n/a	FR1	0	R1415T
2947.348	1.224	2948793	COUNTDOWN_END	n/a	n/a	n/a	-999	25	[0, 0, 0]	n/a	FR1	0	R1415T
2948.572	0.826	2950009	ENCODING_START	n/a	n/a	n/a	-999	25	[0, 0, 0]	n/a	FR1	0	R1415T
2949.398	1.623	2950842	WORD	n/a	wordpools/wordpool_EN.txt	WAVE	1	25	[0, 0, 0]	n/a	FR1	0	R1415T
2951.021	1.075	2952461	WORD_OFF	n/a	n/a	WAVE	1	25	[0, 0, 0]	n/a	FR1	0	R1415T
2952.096	1.625	2953547	WORD	n/a	wordpools/wordpool_EN.txt	CLOUD	2	25	[0, 0, 0]	n/a	FR1	0	R1415T
2953.721	0.824	2955166	WORD_OFF	n/a	n/a	CLOUD	2	25	[0, 0, 0]	n/a	FR1	0	R1415T
2954.545	1.628	2955999	WORD	n/a	wordpools/wordpool_EN.txt	PURSE	3	25	[0, 0, 0]	n/a	FR1	0	R1415T
2956.173	1.11	2957608	WORD_OFF	n/a	n/a	PURSE	3	25	[0, 0, 0]	n/a	FR1	0	R1415T
2957.283	1.623	2958731	WORD	n/a	wordpools/wordpool_EN.txt	STEAM	4	25	[0, 0, 0]	n/a	FR1	0	R1415T
2958.906	0.979	2960350	WORD_OFF	n/a	n/a	STEAM	4	25	[0, 0, 0]	n/a	FR1	0	R1415T
2959.885	1.622	2961333	WORD	n/a	wordpools/wordpool_EN.txt	JEEP	5	25	[0, 0, 0]	n/a	FR1	0	R1415T
2961.507	0.977	2962943	WORD_OFF	n/a	n/a	JEEP	5	25	[0, 0, 0]	n/a	FR1	0	R1415T
2962.484	1.624	2963925	WORD	n/a	wordpools/wordpool_EN.txt	STAR	6	25	[0, 0, 0]	n/a	FR1	0	R1415T
2964.108	1.028	2965544	WORD_OFF	n/a	n/a	STAR	6	25	[0, 0, 0]	n/a	FR1	0	R1415T
2965.136	1.621	2966583	WORD	n/a	wordpools/wordpool_EN.txt	ROOF	7	25	[0, 0, 0]	n/a	FR1	0	R1415T
2966.757	0.84	2968193	WORD_OFF	n/a	n/a	ROOF	7	25	[0, 0, 0]	n/a	FR1	0	R1415T
2967.597	1.628	2969044	WORD	n/a	wordpools/wordpool_EN.txt	PALM	8	25	[0, 0, 0]	n/a	FR1	0	R1415T
2969.225	1.106	2970663	WORD_OFF	n/a	n/a	PALM	8	25	[0, 0, 0]	n/a	FR1	0	R1415T
2970.331	1.627	2971777	WORD	n/a	wordpools/wordpool_EN.txt	SOAP	9	25	[0, 0, 0]	n/a	FR1	0	R1415T
2971.958	0.799	2973396	WORD_OFF	n/a	n/a	SOAP	9	25	[0, 0, 0]	n/a	FR1	0	R1415T
2972.757	1.619	2974210	WORD	n/a	wordpools/wordpool_EN.txt	DOCK	10	25	[0, 0, 0]	n/a	FR1	0	R1415T
2974.376	0.797	2975820	WORD_OFF	n/a	n/a	DOCK	10	25	[0, 0, 0]	n/a	FR1	0	R1415T
2975.173	1.636	2976634	WORD	n/a	wordpools/wordpool_EN.txt	PEAR	11	25	[0, 0, 0]	n/a	FR1	0	R1415T
2976.809	1.111	2978244	WORD_OFF	n/a	n/a	PEAR	11	25	[0, 0, 0]	n/a	FR1	0	R1415T
2977.92	1.625	2979367	WORD	n/a	wordpools/wordpool_EN.txt	ARK	12	25	[0, 0, 0]	n/a	FR1	0	R1415T
2979.545	0.0	2980986	START	n/a	n/a	n/a	-999	25	[-999, -999, -999]	n/a	FR1	0	R1415T
2979.544	0.016	2980995	WORD_OFF	n/a	n/a	ARK	12	25	[0, 0, 0]	n/a	FR1	0	R1415T
2979.56	0.0	2981001	PROB	0.0	n/a	n/a	-999	25	[7, 1, 4]	12	FR1	0	R1415T
2979.544	0.001	2981004	ENCODING_END	n/a	n/a	n/a	-999	25	[0, 0, 0]	n/a	FR1	0	R1415T
2979.545	6.182	2981004	DISTRACT_START	n/a	n/a	n/a	-999	25	[0, 0, 0]	n/a	FR1	0	R1415T
2985.727	4.068	2987168	PROB	4.068	n/a	n/a	-999	25	[5, 7, 8]	20	FR1	0	R1415T
2989.795	4.851	2991235	PROB	4.851	n/a	n/a	-999	25	[3, 8, 5]	16	FR1	0	R1415T
2994.646	3.801	2996086	PROB	3.801	n/a	n/a	-999	25	[2, 7, 3]	12	FR1	0	R1415T
2998.447	8.777	2999887	PROB	8.777	n/a	n/a	-999	25	[6, 1, 8]	15	FR1	0	R1415T
3007.224	0.008	3008663	STOP	n/a	n/a	n/a	-999	25	[-999, -999, -999]	n/a	FR1	0	R1415T
3007.232	2.318	3008668	DISTRACT_END	n/a	n/a	n/a	-999	25	[0, 0, 0]	n/a	FR1	0	R1415T
3009.55	29.988	3010998	REC_START	n/a	n/a	n/a	-999	25	[0, 0, 0]	n/a	FR1	0	R1415T
3039.538	0.024	3040975	REC_WORD_VV	0.024	n/a	<>	-999	25	[0, 0, 0]	n/a	FR1	0	R1415T
3039.562	0.0	3041020	REC_END	n/a	n/a	n/a	-999	25	[0, 0, 0]	n/a	FR1	0	R1415T
