onset	duration	sample	trial_type	response_time	stim_file	item_name	serialpos	list	test	answer	experiment	session	subject
0.0	1.312	43276	INSTRUCT_START	n/a	n/a	n/a	-999	-999	[0, 0, 0]	n/a	FR1	3	R1398J
1.312	22.071	44582	INSTRUCT_END	n/a	n/a	n/a	-999	-999	[0, 0, 0]	n/a	FR1	3	R1398J
23.383	10.361	66654	COUNTDOWN_START	n/a	n/a	n/a	-999	-999	[0, 0, 0]	n/a	FR1	3	R1398J
33.744	0.0	77012	COUNTDOWN_END	n/a	n/a	n/a	-999	-999	[0, 0, 0]	n/a	FR1	3	R1398J
33.744	1.855	77020	ENCODING_START	n/a	n/a	n/a	-999	-1	[0, 0, 0]	n/a	FR1	3	R1398J
35.599	1.6	78872	WORD	n/a	n/a	BEAN	1	-1	[0, 0, 0]	n/a	FR1	3	R1398J
37.199	0.934	80475	WORD_OFF	n/a	n/a	BEAN	1	-1	[0, 0, 0]	n/a	FR1	3	R1398J
38.133	1.615	81401	WORD	n/a	n/a	OX	2	-1	[0, 0, 0]	n/a	FR1	3	R1398J
39.748	0.818	83022	WORD_OFF	n/a	n/a	OX	2	-1	[0, 0, 0]	n/a	FR1	3	R1398J
40.566	1.6	83832	WORD	n/a	n/a	PIT	3	-1	[0, 0, 0]	n/a	FR1	3	R1398J
42.166	0.917	85435	WORD_OFF	n/a	n/a	PIT	3	-1	[0, 0, 0]	n/a	FR1	3	R1398J
43.083	1.616	86353	WORD	n/a	n/a	OWL	4	-1	[0, 0, 0]	n/a	FR1	3	R1398J
44.699	0.917	87973	WORD_OFF	n/a	n/a	OWL	4	-1	[0, 0, 0]	n/a	FR1	3	R1398J
45.616	1.6	88883	WORD	n/a	n/a	ARK	5	-1	[0, 0, 0]	n/a	FR1	3	R1398J
47.216	0.833	90486	WORD_OFF	n/a	n/a	ARK	5	-1	[0, 0, 0]	n/a	FR1	3	R1398J
48.049	1.617	91321	WORD	n/a	n/a	SPRING	6	-1	[0, 0, 0]	n/a	FR1	3	R1398J
49.666	0.849	92933	WORD_OFF	n/a	n/a	SPRING	6	-1	[0, 0, 0]	n/a	FR1	3	R1398J
50.515	1.601	93785	WORD	n/a	n/a	BROOK	7	-1	[0, 0, 0]	n/a	FR1	3	R1398J
52.116	0.767	95389	WORD_OFF	n/a	n/a	BROOK	7	-1	[0, 0, 0]	n/a	FR1	3	R1398J
52.883	1.6	96149	WORD	n/a	n/a	HORN	8	-1	[0, 0, 0]	n/a	FR1	3	R1398J
54.483	0.849	97753	WORD_OFF	n/a	n/a	HORN	8	-1	[0, 0, 0]	n/a	FR1	3	R1398J
55.332	1.601	98604	WORD	n/a	n/a	LAMP	9	-1	[0, 0, 0]	n/a	FR1	3	R1398J
56.933	0.8	100200	WORD_OFF	n/a	n/a	LAMP	9	-1	[0, 0, 0]	n/a	FR1	3	R1398J
57.733	1.616	101002	WORD	n/a	n/a	SHIELD	10	-1	[0, 0, 0]	n/a	FR1	3	R1398J
59.349	0.85	102622	WORD_OFF	n/a	n/a	SHIELD	10	-1	[0, 0, 0]	n/a	FR1	3	R1398J
60.199	1.617	103465	WORD	n/a	n/a	TILE	11	-1	[0, 0, 0]	n/a	FR1	3	R1398J
61.816	0.966	105085	WORD_OFF	n/a	n/a	TILE	11	-1	[0, 0, 0]	n/a	FR1	3	R1398J
62.782	1.6	106053	WORD	n/a	n/a	CHALK	12	-1	[0, 0, 0]	n/a	FR1	3	R1398J
64.382	0.001	107648	WORD_OFF	n/a	n/a	CHALK	12	-1	[0, 0, 0]	n/a	FR1	3	R1398J
64.383	0.0	107651	START	n/a	n/a	n/a	-999	-1	[-999, -999, -999]	n/a	FR1	3	R1398J
64.383	0.0	107651	PROB	0.0	n/a	n/a	-999	-1	[7, 3, 5]	15	FR1	3	R1398J
64.383	0.0	107656	ENCODING_END	n/a	n/a	n/a	-999	-1	[0, 0, 0]	n/a	FR1	3	R1398J
64.383	3.1	107656	DISTRACT_START	n/a	n/a	n/a	-999	-1	[0, 0, 0]	n/a	FR1	3	R1398J
67.483	3.149	110751	PROB	3.149	n/a	n/a	-999	-1	[3, 8, 5]	16	FR1	3	R1398J
70.632	4.734	113900	PROB	4.734	n/a	n/a	-999	-1	[5, 1, 8]	14	FR1	3	R1398J
75.366	3.3	118633	PROB	3.3	n/a	n/a	-999	-1	[8, 6, 6]	20	FR1	3	R1398J
78.666	3.034	121933	PROB	3.034	n/a	n/a	-999	-1	[6, 8, 5]	19	FR1	3	R1398J
81.7	2.799	124967	PROB	2.799	n/a	n/a	-999	-1	[8, 3, 6]	17	FR1	3	R1398J
84.499	0.0	127766	STOP	n/a	n/a	n/a	-999	-1	[-999, -999, -999]	n/a	FR1	3	R1398J
84.499	2.183	127769	DISTRACT_END	n/a	n/a	n/a	-999	-1	[0, 0, 0]	n/a	FR1	3	R1398J
86.682	0.309	129951	REC_START	n/a	n/a	n/a	-999	-1	[0, 0, 0]	n/a	FR1	3	R1398J
86.991	0.76	130258	REC_WORD_VV	0.76	n/a	<>	-999	-1	[0, 0, 0]	n/a	FR1	3	R1398J
87.751	0.631	131018	REC_WORD	0.631	n/a	OX	2	-1	[0, 0, 0]	n/a	FR1	3	R1398J
88.382	0.81	131649	REC_WORD	0.81	n/a	BEAN	1	-1	[0, 0, 0]	n/a	FR1	3	R1398J
89.192	0.835	132459	REC_WORD	0.835	n/a	PIT	3	-1	[0, 0, 0]	n/a	FR1	3	R1398J
90.027	1.785	133294	REC_WORD	1.785	n/a	SHIELD	10	-1	[0, 0, 0]	n/a	FR1	3	R1398J
91.812	0.94	135079	REC_WORD_VV	0.94	n/a	<>	-999	-1	[0, 0, 0]	n/a	FR1	3	R1398J
92.752	1.759	136019	REC_WORD	1.759	n/a	CHALK	12	-1	[0, 0, 0]	n/a	FR1	3	R1398J
94.511	3.029	137778	REC_WORD_VV	3.029	n/a	<>	-999	-1	[0, 0, 0]	n/a	FR1	3	R1398J
97.54	1.525	140807	REC_WORD	1.525	n/a	BROOK	7	-1	[0, 0, 0]	n/a	FR1	3	R1398J
99.065	5.264	142331	REC_WORD_VV	5.264	n/a	<>	-999	-1	[0, 0, 0]	n/a	FR1	3	R1398J
104.329	3.621	147595	REC_WORD_VV	3.621	n/a	<>	-999	-1	[0, 0, 0]	n/a	FR1	3	R1398J
107.95	6.249	151216	REC_WORD_VV	6.249	n/a	<>	-999	-1	[0, 0, 0]	n/a	FR1	3	R1398J
114.199	2.728	157465	REC_WORD	2.728	n/a	OWL	4	-1	[0, 0, 0]	n/a	FR1	3	R1398J
116.927	17.423	160191	REC_END	n/a	n/a	n/a	-999	-1	[0, 0, 0]	n/a	FR1	3	R1398J
134.35	10.366	177617	COUNTDOWN_START	n/a	n/a	n/a	-999	1	[0, 0, 0]	n/a	FR1	3	R1398J
144.716	0.0	187983	COUNTDOWN_END	n/a	n/a	n/a	-999	1	[0, 0, 0]	n/a	FR1	3	R1398J
144.716	2.034	187983	ENCODING_START	n/a	n/a	n/a	-999	1	[0, 0, 0]	n/a	FR1	3	R1398J
146.75	1.616	190017	WORD	n/a	wordpools/wordpool_long_EN.txt	YOLK	1	1	[0, 0, 0]	n/a	FR1	3	R1398J
148.366	0.95	191629	WORD_OFF	n/a	n/a	YOLK	1	1	[0, 0, 0]	n/a	FR1	3	R1398J
149.316	1.6	192580	WORD	n/a	wordpools/wordpool_long_EN.txt	THRONE	2	1	[0, 0, 0]	n/a	FR1	3	R1398J
150.916	0.917	194183	WORD_OFF	n/a	n/a	THRONE	2	1	[0, 0, 0]	n/a	FR1	3	R1398J
151.833	1.6	195101	WORD	n/a	wordpools/wordpool_long_EN.txt	MOUTH	3	1	[0, 0, 0]	n/a	FR1	3	R1398J
153.433	1.0	196696	WORD_OFF	n/a	n/a	MOUTH	3	1	[0, 0, 0]	n/a	FR1	3	R1398J
154.433	1.617	197697	WORD	n/a	wordpools/wordpool_long_EN.txt	JUDGE	4	1	[0, 0, 0]	n/a	FR1	3	R1398J
156.05	0.799	199317	WORD_OFF	n/a	n/a	JUDGE	4	1	[0, 0, 0]	n/a	FR1	3	R1398J
156.849	1.601	200111	WORD	n/a	wordpools/wordpool_long_EN.txt	ROD	5	1	[0, 0, 0]	n/a	FR1	3	R1398J
158.45	1.0	201714	WORD_OFF	n/a	n/a	ROD	5	1	[0, 0, 0]	n/a	FR1	3	R1398J
159.45	1.616	202715	WORD	n/a	wordpools/wordpool_long_EN.txt	STAIR	6	1	[0, 0, 0]	n/a	FR1	3	R1398J
161.066	0.966	204335	WORD_OFF	n/a	n/a	STAIR	6	1	[0, 0, 0]	n/a	FR1	3	R1398J
162.032	1.601	205294	WORD	n/a	wordpools/wordpool_long_EN.txt	LACE	7	1	[0, 0, 0]	n/a	FR1	3	R1398J
163.633	0.8	206898	WORD_OFF	n/a	n/a	LACE	7	1	[0, 0, 0]	n/a	FR1	3	R1398J
164.433	1.6	207699	WORD	n/a	wordpools/wordpool_long_EN.txt	HOLE	8	1	[0, 0, 0]	n/a	FR1	3	R1398J
166.033	0.983	209295	WORD_OFF	n/a	n/a	HOLE	8	1	[0, 0, 0]	n/a	FR1	3	R1398J
167.016	1.6	210279	WORD	n/a	wordpools/wordpool_long_EN.txt	SOCK	9	1	[0, 0, 0]	n/a	FR1	3	R1398J
168.616	0.95	211882	WORD_OFF	n/a	n/a	SOCK	9	1	[0, 0, 0]	n/a	FR1	3	R1398J
169.566	1.6	212833	WORD	n/a	wordpools/wordpool_long_EN.txt	DIME	10	1	[0, 0, 0]	n/a	FR1	3	R1398J
171.166	0.784	214428	WORD_OFF	n/a	n/a	DIME	10	1	[0, 0, 0]	n/a	FR1	3	R1398J
171.95	1.616	215214	WORD	n/a	wordpools/wordpool_long_EN.txt	BROOM	11	1	[0, 0, 0]	n/a	FR1	3	R1398J
173.566	0.8	216834	WORD_OFF	n/a	n/a	BROOM	11	1	[0, 0, 0]	n/a	FR1	3	R1398J
174.366	1.601	217628	WORD	n/a	wordpools/wordpool_long_EN.txt	TOWN	12	1	[0, 0, 0]	n/a	FR1	3	R1398J
175.967	0.0	219230	START	n/a	n/a	n/a	-999	1	[-999, -999, -999]	n/a	FR1	3	R1398J
175.967	0.0	219230	PROB	0.0	n/a	n/a	-999	1	[8, 2, 8]	18	FR1	3	R1398J
175.966	0.001	219231	WORD_OFF	n/a	n/a	TOWN	12	1	[0, 0, 0]	n/a	FR1	3	R1398J
175.967	0.0	219231	ENCODING_END	n/a	n/a	n/a	-999	1	[0, 0, 0]	n/a	FR1	3	R1398J
175.967	3.133	219231	DISTRACT_START	n/a	n/a	n/a	-999	1	[0, 0, 0]	n/a	FR1	3	R1398J
179.1	2.183	222363	PROB	2.183	n/a	n/a	-999	1	[1, 2, 8]	11	FR1	3	R1398J
181.283	2.8	224546	PROB	2.8	n/a	n/a	-999	1	[6, 8, 2]	16	FR1	3	R1398J
184.083	2.583	227346	PROB	2.583	n/a	n/a	-999	1	[7, 8, 7]	22	FR1	3	R1398J
186.666	3.251	229929	PROB	3.251	n/a	n/a	-999	1	[5, 7, 5]	17	FR1	3	R1398J
189.917	3.317	233180	PROB	3.317	n/a	n/a	-999	1	[4, 1, 2]	7	FR1	3	R1398J
193.234	2.815	236496	PROB	2.815	n/a	n/a	-999	1	[6, 4, 7]	17	FR1	3	R1398J
196.049	0.0	239311	DISTRACT_END	n/a	n/a	n/a	-999	1	[0, 0, 0]	n/a	FR1	3	R1398J
196.049	2.317	239311	STOP	n/a	n/a	n/a	-999	1	[-999, -999, -999]	n/a	FR1	3	R1398J
198.366	0.297	241626	REC_START	n/a	n/a	n/a	-999	1	[0, 0, 0]	n/a	FR1	3	R1398J
198.663	0.955	241925	REC_WORD_VV	0.955	n/a	<>	-999	1	[0, 0, 0]	n/a	FR1	3	R1398J
199.618	1.458	242880	REC_WORD	1.458	n/a	THRONE	2	1	[0, 0, 0]	n/a	FR1	3	R1398J
201.076	3.666	244338	REC_WORD_VV	3.666	n/a	<>	-999	1	[0, 0, 0]	n/a	FR1	3	R1398J
204.742	1.262	248004	REC_WORD	1.262	n/a	OX	-999	1	[0, 0, 0]	n/a	FR1	3	R1398J
206.004	7.445	249266	REC_WORD_VV	7.445	n/a	<>	-999	1	[0, 0, 0]	n/a	FR1	3	R1398J
213.449	2.467	256711	REC_WORD	2.467	n/a	CROWN	-999	1	[0, 0, 0]	n/a	FR1	3	R1398J
215.916	4.514	259178	REC_WORD_VV	4.514	n/a	<>	-999	1	[0, 0, 0]	n/a	FR1	3	R1398J
220.43	1.62	263691	REC_WORD_VV	1.62	n/a	<>	-999	1	[0, 0, 0]	n/a	FR1	3	R1398J
222.05	6.559	265311	REC_WORD_VV	6.559	n/a	<>	-999	1	[0, 0, 0]	n/a	FR1	3	R1398J
228.609	1.923	271874	REC_END	n/a	n/a	n/a	-999	1	[0, 0, 0]	n/a	FR1	3	R1398J
230.532	10.367	273791	COUNTDOWN_START	n/a	n/a	n/a	-999	2	[0, 0, 0]	n/a	FR1	3	R1398J
240.899	0.0	284158	COUNTDOWN_END	n/a	n/a	n/a	-999	2	[0, 0, 0]	n/a	FR1	3	R1398J
240.899	1.984	284158	ENCODING_START	n/a	n/a	n/a	-999	2	[0, 0, 0]	n/a	FR1	3	R1398J
242.883	1.616	286142	WORD	n/a	wordpools/wordpool_long_EN.txt	CHEST	1	2	[0, 0, 0]	n/a	FR1	3	R1398J
244.499	1.001	287762	WORD_OFF	n/a	n/a	CHEST	1	2	[0, 0, 0]	n/a	FR1	3	R1398J
245.5	1.616	288762	WORD	n/a	wordpools/wordpool_long_EN.txt	BUG	2	2	[0, 0, 0]	n/a	FR1	3	R1398J
247.116	0.785	290374	WORD_OFF	n/a	n/a	BUG	2	2	[0, 0, 0]	n/a	FR1	3	R1398J
247.901	1.615	291160	WORD	n/a	wordpools/wordpool_long_EN.txt	SNAKE	3	2	[0, 0, 0]	n/a	FR1	3	R1398J
249.516	0.801	292780	WORD_OFF	n/a	n/a	SNAKE	3	2	[0, 0, 0]	n/a	FR1	3	R1398J
250.317	1.616	293574	WORD	n/a	wordpools/wordpool_long_EN.txt	MAT	4	2	[0, 0, 0]	n/a	FR1	3	R1398J
251.933	0.817	295194	WORD_OFF	n/a	n/a	MAT	4	2	[0, 0, 0]	n/a	FR1	3	R1398J
252.75	1.6	296012	WORD	n/a	wordpools/wordpool_long_EN.txt	BOOK	5	2	[0, 0, 0]	n/a	FR1	3	R1398J
254.35	1.0	297608	WORD_OFF	n/a	n/a	BOOK	5	2	[0, 0, 0]	n/a	FR1	3	R1398J
255.35	1.616	298608	WORD	n/a	wordpools/wordpool_long_EN.txt	CLOTH	6	2	[0, 0, 0]	n/a	FR1	3	R1398J
256.966	0.999	300228	WORD_OFF	n/a	n/a	CLOTH	6	2	[0, 0, 0]	n/a	FR1	3	R1398J
257.965	1.601	301228	WORD	n/a	wordpools/wordpool_long_EN.txt	FLAME	7	2	[0, 0, 0]	n/a	FR1	3	R1398J
259.566	0.95	302824	WORD_OFF	n/a	n/a	FLAME	7	2	[0, 0, 0]	n/a	FR1	3	R1398J
260.516	1.6	303775	WORD	n/a	wordpools/wordpool_long_EN.txt	EEL	8	2	[0, 0, 0]	n/a	FR1	3	R1398J
262.116	0.983	305378	WORD_OFF	n/a	n/a	EEL	8	2	[0, 0, 0]	n/a	FR1	3	R1398J
263.099	1.601	306362	WORD	n/a	wordpools/wordpool_long_EN.txt	STEAM	9	2	[0, 0, 0]	n/a	FR1	3	R1398J
264.7	0.833	307957	WORD_OFF	n/a	n/a	STEAM	9	2	[0, 0, 0]	n/a	FR1	3	R1398J
265.533	1.6	308792	WORD	n/a	wordpools/wordpool_long_EN.txt	TRENCH	10	2	[0, 0, 0]	n/a	FR1	3	R1398J
267.133	0.816	310396	WORD_OFF	n/a	n/a	TRENCH	10	2	[0, 0, 0]	n/a	FR1	3	R1398J
267.949	1.601	311206	WORD	n/a	wordpools/wordpool_long_EN.txt	BOY	11	2	[0, 0, 0]	n/a	FR1	3	R1398J
269.55	0.8	312810	WORD_OFF	n/a	n/a	BOY	11	2	[0, 0, 0]	n/a	FR1	3	R1398J
270.35	1.616	313612	WORD	n/a	wordpools/wordpool_long_EN.txt	SKY	12	2	[0, 0, 0]	n/a	FR1	3	R1398J
271.966	0.001	315224	WORD_OFF	n/a	n/a	SKY	12	2	[0, 0, 0]	n/a	FR1	3	R1398J
271.967	0.001	315226	PROB	0.001	n/a	n/a	-999	2	[7, 6, 5]	18	FR1	3	R1398J
271.968	0.0	315227	START	n/a	n/a	n/a	-999	2	[-999, -999, -999]	n/a	FR1	3	R1398J
271.968	0.0	315232	ENCODING_END	n/a	n/a	n/a	-999	2	[0, 0, 0]	n/a	FR1	3	R1398J
271.968	4.249	315232	DISTRACT_START	n/a	n/a	n/a	-999	2	[0, 0, 0]	n/a	FR1	3	R1398J
276.217	2.783	319476	PROB	2.783	n/a	n/a	-999	2	[2, 4, 5]	11	FR1	3	R1398J
279.0	2.851	322259	PROB	2.851	n/a	n/a	-999	2	[8, 3, 5]	16	FR1	3	R1398J
281.851	3.115	325110	PROB	3.115	n/a	n/a	-999	2	[8, 2, 3]	13	FR1	3	R1398J
284.966	7.867	328225	PROB	7.867	n/a	n/a	-999	2	[8, 1, 6]	15	FR1	3	R1398J
292.833	0.0	336089	DISTRACT_END	n/a	n/a	n/a	-999	2	[0, 0, 0]	n/a	FR1	3	R1398J
292.833	2.116	336091	STOP	n/a	n/a	n/a	-999	2	[-999, -999, -999]	n/a	FR1	3	R1398J
294.949	0.486	338205	REC_START	n/a	n/a	n/a	-999	2	[0, 0, 0]	n/a	FR1	3	R1398J
295.435	0.46	338693	REC_WORD_VV	0.46	n/a	<>	-999	2	[0, 0, 0]	n/a	FR1	3	R1398J
295.895	0.291	339153	REC_WORD	0.291	n/a	BOY	11	2	[0, 0, 0]	n/a	FR1	3	R1398J
296.186	1.817	339444	REC_WORD	1.817	n/a	SKY	12	2	[0, 0, 0]	n/a	FR1	3	R1398J
298.003	6.226	341261	REC_WORD_VV	6.226	n/a	<>	-999	2	[0, 0, 0]	n/a	FR1	3	R1398J
304.229	0.321	347487	REC_WORD	0.321	n/a	BUG	2	2	[0, 0, 0]	n/a	FR1	3	R1398J
304.55	1.74	347808	REC_WORD	1.74	n/a	CHEST	1	2	[0, 0, 0]	n/a	FR1	3	R1398J
306.29	1.89	349548	REC_WORD_VV	1.89	n/a	<>	-999	2	[0, 0, 0]	n/a	FR1	3	R1398J
308.18	2.11	351438	REC_WORD	2.11	n/a	SNAKE	3	2	[0, 0, 0]	n/a	FR1	3	R1398J
310.29	8.125	353548	REC_WORD_VV	8.125	n/a	<>	-999	2	[0, 0, 0]	n/a	FR1	3	R1398J
318.415	6.758	361672	REC_WORD_VV	6.758	n/a	<>	-999	2	[0, 0, 0]	n/a	FR1	3	R1398J
325.173	1.227	368428	REC_END	n/a	n/a	n/a	-999	2	[0, 0, 0]	n/a	FR1	3	R1398J
326.4	10.366	369660	COUNTDOWN_START	n/a	n/a	n/a	-999	3	[0, 0, 0]	n/a	FR1	3	R1398J
336.766	0.0	380026	COUNTDOWN_END	n/a	n/a	n/a	-999	3	[0, 0, 0]	n/a	FR1	3	R1398J
336.766	2.034	380026	ENCODING_START	n/a	n/a	n/a	-999	3	[0, 0, 0]	n/a	FR1	3	R1398J
338.8	1.616	382060	WORD	n/a	wordpools/wordpool_long_EN.txt	DEER	1	3	[0, 0, 0]	n/a	FR1	3	R1398J
340.416	0.884	383672	WORD_OFF	n/a	n/a	DEER	1	3	[0, 0, 0]	n/a	FR1	3	R1398J
341.3	1.6	384556	WORD	n/a	wordpools/wordpool_long_EN.txt	SNAIL	2	3	[0, 0, 0]	n/a	FR1	3	R1398J
342.9	0.833	386160	WORD_OFF	n/a	n/a	SNAIL	2	3	[0, 0, 0]	n/a	FR1	3	R1398J
343.733	1.6	386987	WORD	n/a	wordpools/wordpool_long_EN.txt	SHIP	3	3	[0, 0, 0]	n/a	FR1	3	R1398J
345.333	0.833	388591	WORD_OFF	n/a	n/a	SHIP	3	3	[0, 0, 0]	n/a	FR1	3	R1398J
346.166	1.617	389425	WORD	n/a	wordpools/wordpool_long_EN.txt	BATH	4	3	[0, 0, 0]	n/a	FR1	3	R1398J
347.783	0.834	391037	WORD_OFF	n/a	n/a	BATH	4	3	[0, 0, 0]	n/a	FR1	3	R1398J
348.617	1.616	391872	WORD	n/a	wordpools/wordpool_long_EN.txt	FRIEND	5	3	[0, 0, 0]	n/a	FR1	3	R1398J
350.233	0.867	393493	WORD_OFF	n/a	n/a	FRIEND	5	3	[0, 0, 0]	n/a	FR1	3	R1398J
351.1	1.6	394352	WORD	n/a	wordpools/wordpool_long_EN.txt	YARD	6	3	[0, 0, 0]	n/a	FR1	3	R1398J
352.7	1.0	395956	WORD_OFF	n/a	n/a	YARD	6	3	[0, 0, 0]	n/a	FR1	3	R1398J
353.7	1.615	396956	WORD	n/a	wordpools/wordpool_long_EN.txt	HOOK	7	3	[0, 0, 0]	n/a	FR1	3	R1398J
355.315	0.901	398568	WORD_OFF	n/a	n/a	HOOK	7	3	[0, 0, 0]	n/a	FR1	3	R1398J
356.216	1.6	399469	WORD	n/a	wordpools/wordpool_long_EN.txt	BRIDGE	8	3	[0, 0, 0]	n/a	FR1	3	R1398J
357.816	0.834	401073	WORD_OFF	n/a	n/a	BRIDGE	8	3	[0, 0, 0]	n/a	FR1	3	R1398J
358.65	1.616	401908	WORD	n/a	wordpools/wordpool_long_EN.txt	THUMB	9	3	[0, 0, 0]	n/a	FR1	3	R1398J
360.266	0.867	403520	WORD_OFF	n/a	n/a	THUMB	9	3	[0, 0, 0]	n/a	FR1	3	R1398J
361.133	1.617	404388	WORD	n/a	wordpools/wordpool_long_EN.txt	DOCK	10	3	[0, 0, 0]	n/a	FR1	3	R1398J
362.75	0.917	406008	WORD_OFF	n/a	n/a	DOCK	10	3	[0, 0, 0]	n/a	FR1	3	R1398J
363.667	1.616	406926	WORD	n/a	wordpools/wordpool_long_EN.txt	BAR	11	3	[0, 0, 0]	n/a	FR1	3	R1398J
365.283	0.867	408538	WORD_OFF	n/a	n/a	BAR	11	3	[0, 0, 0]	n/a	FR1	3	R1398J
366.15	1.616	409406	WORD	n/a	wordpools/wordpool_long_EN.txt	TOY	12	3	[0, 0, 0]	n/a	FR1	3	R1398J
367.766	0.001	411021	PROB	0.001	n/a	n/a	-999	3	[4, 2, 8]	14	FR1	3	R1398J
367.767	0.0	411022	START	n/a	n/a	n/a	-999	3	[-999, -999, -999]	n/a	FR1	3	R1398J
367.766	0.001	411026	WORD_OFF	n/a	n/a	TOY	12	3	[0, 0, 0]	n/a	FR1	3	R1398J
367.767	0.0	411026	ENCODING_END	n/a	n/a	n/a	-999	3	[0, 0, 0]	n/a	FR1	3	R1398J
367.767	3.384	411026	DISTRACT_START	n/a	n/a	n/a	-999	3	[0, 0, 0]	n/a	FR1	3	R1398J
371.151	2.516	414406	PROB	2.516	n/a	n/a	-999	3	[1, 5, 3]	9	FR1	3	R1398J
373.667	2.817	416922	PROB	2.817	n/a	n/a	-999	3	[3, 4, 5]	12	FR1	3	R1398J
376.484	3.049	419739	PROB	3.049	n/a	n/a	-999	3	[7, 5, 7]	19	FR1	3	R1398J
379.533	2.867	422788	PROB	2.867	n/a	n/a	-999	3	[3, 1, 7]	11	FR1	3	R1398J
382.4	2.867	425655	PROB	2.867	n/a	n/a	-999	3	[7, 3, 5]	15	FR1	3	R1398J
385.267	3.666	428521	PROB	3.666	n/a	n/a	-999	3	[2, 8, 6]	16	FR1	3	R1398J
388.933	0.0	432187	STOP	n/a	n/a	n/a	-999	3	[-999, -999, -999]	n/a	FR1	3	R1398J
388.933	2.383	432189	DISTRACT_END	n/a	n/a	n/a	-999	3	[0, 0, 0]	n/a	FR1	3	R1398J
391.316	0.179	434569	REC_START	n/a	n/a	n/a	-999	3	[0, 0, 0]	n/a	FR1	3	R1398J
391.495	1.726	434749	REC_WORD_VV	1.726	n/a	<>	-999	3	[0, 0, 0]	n/a	FR1	3	R1398J
393.221	3.045	436475	REC_WORD_VV	3.045	n/a	<>	-999	3	[0, 0, 0]	n/a	FR1	3	R1398J
396.266	7.577	439520	REC_WORD_VV	7.577	n/a	<>	-999	3	[0, 0, 0]	n/a	FR1	3	R1398J
403.843	1.309	447097	REC_WORD	1.309	n/a	HOOK	7	3	[0, 0, 0]	n/a	FR1	3	R1398J
405.152	0.895	448406	REC_WORD_VV	0.895	n/a	<>	-999	3	[0, 0, 0]	n/a	FR1	3	R1398J
406.047	1.561	449301	REC_WORD	1.561	n/a	SHIP	3	3	[0, 0, 0]	n/a	FR1	3	R1398J
407.608	0.385	450861	REC_WORD_VV	0.385	n/a	<>	-999	3	[0, 0, 0]	n/a	FR1	3	R1398J
407.993	1.758	451246	REC_WORD	1.758	n/a	BRIDGE	8	3	[0, 0, 0]	n/a	FR1	3	R1398J
409.751	3.415	453004	REC_WORD_VV	3.415	n/a	<>	-999	3	[0, 0, 0]	n/a	FR1	3	R1398J
413.166	1.763	456419	REC_WORD	1.763	n/a	BOAT	-999	3	[0, 0, 0]	n/a	FR1	3	R1398J
414.929	3.407	458182	REC_WORD_VV	3.407	n/a	<>	-999	3	[0, 0, 0]	n/a	FR1	3	R1398J
418.336	1.681	461589	REC_WORD	1.681	n/a	EEL	-999	3	[0, 0, 0]	n/a	FR1	3	R1398J
420.017	1.529	463270	REC_WORD_VV	1.529	n/a	<>	-999	3	[0, 0, 0]	n/a	FR1	3	R1398J
421.546	1.57	464801	REC_END	n/a	n/a	n/a	-999	3	[0, 0, 0]	n/a	FR1	3	R1398J
423.116	10.366	466372	COUNTDOWN_START	n/a	n/a	n/a	-999	4	[0, 0, 0]	n/a	FR1	3	R1398J
433.482	0.0	476738	COUNTDOWN_END	n/a	n/a	n/a	-999	4	[0, 0, 0]	n/a	FR1	3	R1398J
433.482	1.969	476738	ENCODING_START	n/a	n/a	n/a	-999	4	[0, 0, 0]	n/a	FR1	3	R1398J
435.451	1.614	478705	WORD	n/a	wordpools/wordpool_long_EN.txt	CONE	1	4	[0, 0, 0]	n/a	FR1	3	R1398J
437.065	0.9	480317	WORD_OFF	n/a	n/a	CONE	1	4	[0, 0, 0]	n/a	FR1	3	R1398J
437.965	1.601	481218	WORD	n/a	wordpools/wordpool_long_EN.txt	FARM	2	4	[0, 0, 0]	n/a	FR1	3	R1398J
439.566	0.967	482830	WORD_OFF	n/a	n/a	FARM	2	4	[0, 0, 0]	n/a	FR1	3	R1398J
440.533	1.6	483789	WORD	n/a	wordpools/wordpool_long_EN.txt	PALM	3	4	[0, 0, 0]	n/a	FR1	3	R1398J
442.133	0.867	485385	WORD_OFF	n/a	n/a	PALM	3	4	[0, 0, 0]	n/a	FR1	3	R1398J
443.0	1.616	486253	WORD	n/a	wordpools/wordpool_long_EN.txt	SLEEVE	4	4	[0, 0, 0]	n/a	FR1	3	R1398J
444.616	0.867	487873	WORD_OFF	n/a	n/a	SLEEVE	4	4	[0, 0, 0]	n/a	FR1	3	R1398J
445.483	1.617	488733	WORD	n/a	wordpools/wordpool_long_EN.txt	LAWN	5	4	[0, 0, 0]	n/a	FR1	3	R1398J
447.1	0.8	490353	WORD_OFF	n/a	n/a	LAWN	5	4	[0, 0, 0]	n/a	FR1	3	R1398J
447.9	1.6	491155	WORD	n/a	wordpools/wordpool_long_EN.txt	SHARK	6	4	[0, 0, 0]	n/a	FR1	3	R1398J
449.5	0.967	492750	WORD_OFF	n/a	n/a	SHARK	6	4	[0, 0, 0]	n/a	FR1	3	R1398J
450.467	1.615	493718	WORD	n/a	wordpools/wordpool_long_EN.txt	SPOUSE	7	4	[0, 0, 0]	n/a	FR1	3	R1398J
452.082	0.951	495338	WORD_OFF	n/a	n/a	SPOUSE	7	4	[0, 0, 0]	n/a	FR1	3	R1398J
453.033	1.617	496289	WORD	n/a	wordpools/wordpool_long_EN.txt	CRANE	8	4	[0, 0, 0]	n/a	FR1	3	R1398J
454.65	0.8	497901	WORD_OFF	n/a	n/a	CRANE	8	4	[0, 0, 0]	n/a	FR1	3	R1398J
455.45	1.616	498702	WORD	n/a	wordpools/wordpool_long_EN.txt	WASP	9	4	[0, 0, 0]	n/a	FR1	3	R1398J
457.066	0.767	500314	WORD_OFF	n/a	n/a	WASP	9	4	[0, 0, 0]	n/a	FR1	3	R1398J
457.833	1.6	501083	WORD	n/a	wordpools/wordpool_long_EN.txt	LEAF	10	4	[0, 0, 0]	n/a	FR1	3	R1398J
459.433	0.933	502687	WORD_OFF	n/a	n/a	LEAF	10	4	[0, 0, 0]	n/a	FR1	3	R1398J
460.366	1.601	503621	WORD	n/a	wordpools/wordpool_long_EN.txt	JAIL	11	4	[0, 0, 0]	n/a	FR1	3	R1398J
461.967	0.983	505217	WORD_OFF	n/a	n/a	JAIL	11	4	[0, 0, 0]	n/a	FR1	3	R1398J
462.95	1.6	506200	WORD	n/a	wordpools/wordpool_long_EN.txt	CLOWN	12	4	[0, 0, 0]	n/a	FR1	3	R1398J
464.55	0.001	507801	PROB	0.001	n/a	n/a	-999	4	[6, 1, 3]	10	FR1	3	R1398J
464.551	0.0	507802	START	n/a	n/a	n/a	-999	4	[-999, -999, -999]	n/a	FR1	3	R1398J
464.55	0.001	507804	WORD_OFF	n/a	n/a	CLOWN	12	4	[0, 0, 0]	n/a	FR1	3	R1398J
464.551	0.0	507804	ENCODING_END	n/a	n/a	n/a	-999	4	[0, 0, 0]	n/a	FR1	3	R1398J
464.551	3.099	507804	DISTRACT_START	n/a	n/a	n/a	-999	4	[0, 0, 0]	n/a	FR1	3	R1398J
467.65	2.449	510901	PROB	2.449	n/a	n/a	-999	4	[1, 7, 7]	15	FR1	3	R1398J
470.099	3.001	513350	PROB	3.001	n/a	n/a	-999	4	[1, 2, 5]	8	FR1	3	R1398J
473.1	2.617	516351	PROB	2.617	n/a	n/a	-999	4	[2, 4, 4]	10	FR1	3	R1398J
475.717	3.083	518968	PROB	3.083	n/a	n/a	-999	4	[4, 1, 2]	7	FR1	3	R1398J
478.8	5.0	522050	PROB	5.0	n/a	n/a	-999	4	[8, 8, 8]	24	FR1	3	R1398J
483.8	4.85	527050	PROB	4.85	n/a	n/a	-999	4	[2, 8, 1]	11	FR1	3	R1398J
488.65	0.0	531900	STOP	n/a	n/a	n/a	-999	4	[-999, -999, -999]	n/a	FR1	3	R1398J
488.65	2.05	531901	DISTRACT_END	n/a	n/a	n/a	-999	4	[0, 0, 0]	n/a	FR1	3	R1398J
490.7	0.579	533951	REC_START	n/a	n/a	n/a	-999	4	[0, 0, 0]	n/a	FR1	3	R1398J
491.279	0.355	534529	REC_WORD_VV	0.355	n/a	<>	-999	4	[0, 0, 0]	n/a	FR1	3	R1398J
491.634	1.31	534884	REC_WORD	1.31	n/a	JAIL	11	4	[0, 0, 0]	n/a	FR1	3	R1398J
492.944	1.766	536194	REC_WORD_VV	1.766	n/a	<>	-999	4	[0, 0, 0]	n/a	FR1	3	R1398J
494.71	1.672	537960	REC_WORD	1.672	n/a	CONE	1	4	[0, 0, 0]	n/a	FR1	3	R1398J
496.382	4.295	539632	REC_WORD_VV	4.295	n/a	<>	-999	4	[0, 0, 0]	n/a	FR1	3	R1398J
500.677	0.445	543927	REC_WORD	0.445	n/a	JAIL	11	4	[0, 0, 0]	n/a	FR1	3	R1398J
501.122	7.735	544372	REC_WORD	7.735	n/a	CONE	1	4	[0, 0, 0]	n/a	FR1	3	R1398J
508.857	2.185	552106	REC_WORD	2.185	n/a	YARD	-999	4	[0, 0, 0]	n/a	FR1	3	R1398J
511.042	1.66	554291	REC_WORD_VV	1.66	n/a	<>	-999	4	[0, 0, 0]	n/a	FR1	3	R1398J
512.702	1.966	555951	REC_WORD	1.966	n/a	FRIEND	-999	4	[0, 0, 0]	n/a	FR1	3	R1398J
514.668	6.274	557917	REC_WORD_VV	6.274	n/a	<>	-999	4	[0, 0, 0]	n/a	FR1	3	R1398J
520.942	1.541	564191	REC_END	n/a	n/a	n/a	-999	4	[0, 0, 0]	n/a	FR1	3	R1398J
522.483	10.367	565737	COUNTDOWN_START	n/a	n/a	n/a	-999	5	[0, 0, 0]	n/a	FR1	3	R1398J
532.85	0.0	576103	COUNTDOWN_END	n/a	n/a	n/a	-999	5	[0, 0, 0]	n/a	FR1	3	R1398J
532.85	2.1	576103	ENCODING_START	n/a	n/a	n/a	-999	5	[0, 0, 0]	n/a	FR1	3	R1398J
534.95	1.616	578203	WORD	n/a	wordpools/wordpool_long_EN.txt	WORM	1	5	[0, 0, 0]	n/a	FR1	3	R1398J
536.566	1.0	579815	WORD_OFF	n/a	n/a	WORM	1	5	[0, 0, 0]	n/a	FR1	3	R1398J
537.566	1.601	580815	WORD	n/a	wordpools/wordpool_long_EN.txt	RAFT	2	5	[0, 0, 0]	n/a	FR1	3	R1398J
539.167	0.783	582419	WORD_OFF	n/a	n/a	RAFT	2	5	[0, 0, 0]	n/a	FR1	3	R1398J
539.95	1.616	583196	WORD	n/a	wordpools/wordpool_long_EN.txt	POOL	3	5	[0, 0, 0]	n/a	FR1	3	R1398J
541.566	0.783	584816	WORD_OFF	n/a	n/a	POOL	3	5	[0, 0, 0]	n/a	FR1	3	R1398J
542.349	1.601	585593	WORD	n/a	wordpools/wordpool_long_EN.txt	MAP	4	5	[0, 0, 0]	n/a	FR1	3	R1398J
543.95	0.933	587197	WORD_OFF	n/a	n/a	MAP	4	5	[0, 0, 0]	n/a	FR1	3	R1398J
544.883	1.6	588131	WORD	n/a	wordpools/wordpool_long_EN.txt	GUARD	5	5	[0, 0, 0]	n/a	FR1	3	R1398J
546.483	0.8	589735	WORD_OFF	n/a	n/a	GUARD	5	5	[0, 0, 0]	n/a	FR1	3	R1398J
547.283	1.616	590529	WORD	n/a	wordpools/wordpool_long_EN.txt	GROUND	6	5	[0, 0, 0]	n/a	FR1	3	R1398J
548.899	0.95	592149	WORD_OFF	n/a	n/a	GROUND	6	5	[0, 0, 0]	n/a	FR1	3	R1398J
549.849	1.6	593099	WORD	n/a	wordpools/wordpool_long_EN.txt	FUR	7	5	[0, 0, 0]	n/a	FR1	3	R1398J
551.449	0.883	594695	WORD_OFF	n/a	n/a	FUR	7	5	[0, 0, 0]	n/a	FR1	3	R1398J
552.332	1.601	595579	WORD	n/a	wordpools/wordpool_long_EN.txt	STOOL	8	5	[0, 0, 0]	n/a	FR1	3	R1398J
553.933	0.783	597183	WORD_OFF	n/a	n/a	STOOL	8	5	[0, 0, 0]	n/a	FR1	3	R1398J
554.716	1.6	597960	WORD	n/a	wordpools/wordpool_long_EN.txt	HILL	9	5	[0, 0, 0]	n/a	FR1	3	R1398J
556.316	0.967	599564	WORD_OFF	n/a	n/a	HILL	9	5	[0, 0, 0]	n/a	FR1	3	R1398J
557.283	1.6	600531	WORD	n/a	wordpools/wordpool_long_EN.txt	STRING	10	5	[0, 0, 0]	n/a	FR1	3	R1398J
558.883	0.833	602135	WORD_OFF	n/a	n/a	STRING	10	5	[0, 0, 0]	n/a	FR1	3	R1398J
559.716	1.601	602962	WORD	n/a	wordpools/wordpool_long_EN.txt	MOUSE	11	5	[0, 0, 0]	n/a	FR1	3	R1398J
561.317	0.899	604565	WORD_OFF	n/a	n/a	MOUSE	11	5	[0, 0, 0]	n/a	FR1	3	R1398J
562.216	1.6	605466	WORD	n/a	wordpools/wordpool_long_EN.txt	YACHT	12	5	[0, 0, 0]	n/a	FR1	3	R1398J
563.816	0.001	607062	WORD_OFF	n/a	n/a	YACHT	12	5	[0, 0, 0]	n/a	FR1	3	R1398J
563.817	0.001	607064	PROB	0.001	n/a	n/a	-999	5	[6, 8, 3]	17	FR1	3	R1398J
563.818	0.0	607065	START	n/a	n/a	n/a	-999	5	[-999, -999, -999]	n/a	FR1	3	R1398J
563.818	0.0	607070	ENCODING_END	n/a	n/a	n/a	-999	5	[0, 0, 0]	n/a	FR1	3	R1398J
563.818	3.966	607070	DISTRACT_START	n/a	n/a	n/a	-999	5	[0, 0, 0]	n/a	FR1	3	R1398J
567.784	2.7	611031	PROB	2.7	n/a	n/a	-999	5	[7, 8, 7]	22	FR1	3	R1398J
570.484	3.083	613731	PROB	3.083	n/a	n/a	-999	5	[8, 8, 8]	24	FR1	3	R1398J
573.567	2.133	616813	PROB	2.133	n/a	n/a	-999	5	[2, 3, 6]	11	FR1	3	R1398J
575.7	3.434	618946	PROB	3.434	n/a	n/a	-999	5	[4, 1, 5]	10	FR1	3	R1398J
579.134	3.283	622380	PROB	3.283	n/a	n/a	-999	5	[1, 3, 2]	6	FR1	3	R1398J
582.417	4.199	625663	PROB	4.199	n/a	n/a	-999	5	[7, 3, 6]	16	FR1	3	R1398J
586.616	0.0	629861	DISTRACT_END	n/a	n/a	n/a	-999	5	[0, 0, 0]	n/a	FR1	3	R1398J
586.616	2.4	629862	STOP	n/a	n/a	n/a	-999	5	[-999, -999, -999]	n/a	FR1	3	R1398J
589.016	0.295	632267	REC_START	n/a	n/a	n/a	-999	5	[0, 0, 0]	n/a	FR1	3	R1398J
589.311	0.31	632557	REC_WORD_VV	0.31	n/a	<>	-999	5	[0, 0, 0]	n/a	FR1	3	R1398J
589.621	1.1	632867	REC_WORD	1.1	n/a	STRING	10	5	[0, 0, 0]	n/a	FR1	3	R1398J
590.721	1.627	633967	REC_WORD	1.627	n/a	YACHT	12	5	[0, 0, 0]	n/a	FR1	3	R1398J
592.348	7.793	635594	REC_WORD_VV	7.793	n/a	<>	-999	5	[0, 0, 0]	n/a	FR1	3	R1398J
600.141	0.721	643386	REC_WORD	0.721	n/a	STRING	10	5	[0, 0, 0]	n/a	FR1	3	R1398J
600.862	2.709	644107	REC_WORD	2.709	n/a	YACHT	12	5	[0, 0, 0]	n/a	FR1	3	R1398J
603.571	4.904	646816	REC_WORD_VV	4.904	n/a	<>	-999	5	[0, 0, 0]	n/a	FR1	3	R1398J
608.475	5.172	651720	REC_WORD_VV	5.172	n/a	<>	-999	5	[0, 0, 0]	n/a	FR1	3	R1398J
613.647	0.505	656892	REC_WORD_VV	0.505	n/a	<>	-999	5	[0, 0, 0]	n/a	FR1	3	R1398J
614.152	5.083	657397	REC_WORD	5.083	n/a	JAIL	-999	5	[0, 0, 0]	n/a	FR1	3	R1398J
619.235	1.465	662482	REC_END	n/a	n/a	n/a	-999	5	[0, 0, 0]	n/a	FR1	3	R1398J
620.7	10.359	663945	COUNTDOWN_START	n/a	n/a	n/a	-999	6	[0, 0, 0]	n/a	FR1	3	R1398J
631.059	0.001	674303	COUNTDOWN_END	n/a	n/a	n/a	-999	6	[0, 0, 0]	n/a	FR1	3	R1398J
631.06	2.155	674311	ENCODING_START	n/a	n/a	n/a	-999	6	[0, 0, 0]	n/a	FR1	3	R1398J
633.215	1.601	676460	WORD	n/a	wordpools/wordpool_long_EN.txt	SOAP	1	6	[0, 0, 0]	n/a	FR1	3	R1398J
634.816	0.934	678064	WORD_OFF	n/a	n/a	SOAP	1	6	[0, 0, 0]	n/a	FR1	3	R1398J
635.75	1.615	678990	WORD	n/a	wordpools/wordpool_long_EN.txt	BOMB	2	6	[0, 0, 0]	n/a	FR1	3	R1398J
637.365	0.817	680610	WORD_OFF	n/a	n/a	BOMB	2	6	[0, 0, 0]	n/a	FR1	3	R1398J
638.182	1.601	681429	WORD	n/a	wordpools/wordpool_long_EN.txt	SMOG	3	6	[0, 0, 0]	n/a	FR1	3	R1398J
639.783	0.85	683024	WORD_OFF	n/a	n/a	SMOG	3	6	[0, 0, 0]	n/a	FR1	3	R1398J
640.633	1.617	683876	WORD	n/a	wordpools/wordpool_long_EN.txt	SWORD	4	6	[0, 0, 0]	n/a	FR1	3	R1398J
642.25	0.85	685496	WORD_OFF	n/a	n/a	SWORD	4	6	[0, 0, 0]	n/a	FR1	3	R1398J
643.1	1.6	686347	WORD	n/a	wordpools/wordpool_long_EN.txt	RUST	5	6	[0, 0, 0]	n/a	FR1	3	R1398J
644.7	0.816	687943	WORD_OFF	n/a	n/a	RUST	5	6	[0, 0, 0]	n/a	FR1	3	R1398J
645.516	1.616	688761	WORD	n/a	wordpools/wordpool_long_EN.txt	SEA	6	6	[0, 0, 0]	n/a	FR1	3	R1398J
647.132	1.001	690373	WORD_OFF	n/a	n/a	SEA	6	6	[0, 0, 0]	n/a	FR1	3	R1398J
648.133	1.616	691374	WORD	n/a	wordpools/wordpool_long_EN.txt	SLIDE	7	6	[0, 0, 0]	n/a	FR1	3	R1398J
649.749	0.8	692994	WORD_OFF	n/a	n/a	SLIDE	7	6	[0, 0, 0]	n/a	FR1	3	R1398J
650.549	1.617	693796	WORD	n/a	wordpools/wordpool_long_EN.txt	CHILD	8	6	[0, 0, 0]	n/a	FR1	3	R1398J
652.166	0.983	695408	WORD_OFF	n/a	n/a	CHILD	8	6	[0, 0, 0]	n/a	FR1	3	R1398J
653.149	1.601	696391	WORD	n/a	wordpools/wordpool_long_EN.txt	RUG	9	6	[0, 0, 0]	n/a	FR1	3	R1398J
654.75	0.999	697995	WORD_OFF	n/a	n/a	RUG	9	6	[0, 0, 0]	n/a	FR1	3	R1398J
655.749	1.601	698995	WORD	n/a	wordpools/wordpool_long_EN.txt	SUN	10	6	[0, 0, 0]	n/a	FR1	3	R1398J
657.35	0.932	700591	WORD_OFF	n/a	n/a	SUN	10	6	[0, 0, 0]	n/a	FR1	3	R1398J
658.282	1.6	701525	WORD	n/a	wordpools/wordpool_long_EN.txt	BOWL	11	6	[0, 0, 0]	n/a	FR1	3	R1398J
659.882	0.883	703129	WORD_OFF	n/a	n/a	BOWL	11	6	[0, 0, 0]	n/a	FR1	3	R1398J
660.765	1.601	704005	WORD	n/a	wordpools/wordpool_long_EN.txt	GIRL	12	6	[0, 0, 0]	n/a	FR1	3	R1398J
662.366	0.001	705609	WORD_OFF	n/a	n/a	GIRL	12	6	[0, 0, 0]	n/a	FR1	3	R1398J
662.367	0.001	705609	ENCODING_END	n/a	n/a	n/a	-999	6	[0, 0, 0]	n/a	FR1	3	R1398J
662.368	0.0	705609	DISTRACT_START	n/a	n/a	n/a	-999	6	[0, 0, 0]	n/a	FR1	3	R1398J
662.366	0.002	705609	PROB	0.002	n/a	n/a	-999	6	[3, 6, 2]	11	FR1	3	R1398J
662.368	2.547	705611	START	n/a	n/a	n/a	-999	6	[-999, -999, -999]	n/a	FR1	3	R1398J
664.915	2.801	708158	PROB	2.801	n/a	n/a	-999	6	[5, 5, 3]	13	FR1	3	R1398J
667.716	3.584	710958	PROB	3.584	n/a	n/a	-999	6	[7, 3, 8]	18	FR1	3	R1398J
671.3	2.949	714542	PROB	2.949	n/a	n/a	-999	6	[2, 6, 4]	12	FR1	3	R1398J
674.249	2.451	717491	PROB	2.451	n/a	n/a	-999	6	[1, 1, 7]	9	FR1	3	R1398J
676.7	3.233	719942	PROB	3.233	n/a	n/a	-999	6	[5, 3, 5]	13	FR1	3	R1398J
679.933	2.966	723175	PROB	2.966	n/a	n/a	-999	6	[3, 2, 1]	6	FR1	3	R1398J
682.899	0.0	726141	STOP	n/a	n/a	n/a	-999	6	[-999, -999, -999]	n/a	FR1	3	R1398J
682.899	2.033	726143	DISTRACT_END	n/a	n/a	n/a	-999	6	[0, 0, 0]	n/a	FR1	3	R1398J
684.932	0.438	728176	REC_START	n/a	n/a	n/a	-999	6	[0, 0, 0]	n/a	FR1	3	R1398J
685.37	1.11	728612	REC_WORD_VV	1.11	n/a	<>	-999	6	[0, 0, 0]	n/a	FR1	3	R1398J
686.48	0.769	729722	REC_WORD	0.769	n/a	SUN	10	6	[0, 0, 0]	n/a	FR1	3	R1398J
687.249	1.252	730491	REC_WORD	1.252	n/a	SMOG	3	6	[0, 0, 0]	n/a	FR1	3	R1398J
688.501	1.784	731743	REC_WORD	1.784	n/a	SMOKE	-999	6	[0, 0, 0]	n/a	FR1	3	R1398J
690.285	3.64	733527	REC_WORD_VV	3.64	n/a	<>	-999	6	[0, 0, 0]	n/a	FR1	3	R1398J
693.925	2.029	737166	REC_WORD	2.029	n/a	GIRL	12	6	[0, 0, 0]	n/a	FR1	3	R1398J
695.954	0.605	739195	REC_WORD_VV	0.605	n/a	<>	-999	6	[0, 0, 0]	n/a	FR1	3	R1398J
696.559	1.875	739800	REC_WORD	1.875	n/a	BOY	-999	6	[0, 0, 0]	n/a	FR1	3	R1398J
698.434	3.01	741675	REC_WORD_VV	3.01	n/a	<>	-999	6	[0, 0, 0]	n/a	FR1	3	R1398J
701.444	1.18	744685	REC_WORD	1.18	n/a	STRING	-999	6	[0, 0, 0]	n/a	FR1	3	R1398J
702.624	8.946	745865	REC_WORD_VV	8.946	n/a	<>	-999	6	[0, 0, 0]	n/a	FR1	3	R1398J
711.57	0.2	754811	REC_WORD_VV	0.2	n/a	<>	-999	6	[0, 0, 0]	n/a	FR1	3	R1398J
711.77	3.387	755011	REC_WORD	3.387	n/a	SUN	10	6	[0, 0, 0]	n/a	FR1	3	R1398J
715.157	1.943	758400	REC_END	n/a	n/a	n/a	-999	6	[0, 0, 0]	n/a	FR1	3	R1398J
717.1	10.367	760342	COUNTDOWN_START	n/a	n/a	n/a	-999	7	[0, 0, 0]	n/a	FR1	3	R1398J
727.467	0.0	770709	COUNTDOWN_END	n/a	n/a	n/a	-999	7	[0, 0, 0]	n/a	FR1	3	R1398J
727.467	2.066	770709	ENCODING_START	n/a	n/a	n/a	-999	7	[0, 0, 0]	n/a	FR1	3	R1398J
729.533	1.617	772775	WORD	n/a	wordpools/wordpool_long_EN.txt	FRAME	1	7	[0, 0, 0]	n/a	FR1	3	R1398J
731.15	0.8	774387	WORD_OFF	n/a	n/a	FRAME	1	7	[0, 0, 0]	n/a	FR1	3	R1398J
731.95	1.6	775189	WORD	n/a	wordpools/wordpool_long_EN.txt	HEDGE	2	7	[0, 0, 0]	n/a	FR1	3	R1398J
733.55	0.866	776793	WORD_OFF	n/a	n/a	HEDGE	2	7	[0, 0, 0]	n/a	FR1	3	R1398J
734.416	1.6	777661	WORD	n/a	wordpools/wordpool_long_EN.txt	MAZE	3	7	[0, 0, 0]	n/a	FR1	3	R1398J
736.016	0.783	779256	WORD_OFF	n/a	n/a	MAZE	3	7	[0, 0, 0]	n/a	FR1	3	R1398J
736.799	1.6	780042	WORD	n/a	wordpools/wordpool_long_EN.txt	WEB	4	7	[0, 0, 0]	n/a	FR1	3	R1398J
738.399	0.768	781637	WORD_OFF	n/a	n/a	WEB	4	7	[0, 0, 0]	n/a	FR1	3	R1398J
739.167	1.599	782406	WORD	n/a	wordpools/wordpool_long_EN.txt	BLUSH	5	7	[0, 0, 0]	n/a	FR1	3	R1398J
740.766	0.817	784010	WORD_OFF	n/a	n/a	BLUSH	5	7	[0, 0, 0]	n/a	FR1	3	R1398J
741.583	1.616	784820	WORD	n/a	wordpools/wordpool_long_EN.txt	CARD	6	7	[0, 0, 0]	n/a	FR1	3	R1398J
743.199	0.816	786440	WORD_OFF	n/a	n/a	CARD	6	7	[0, 0, 0]	n/a	FR1	3	R1398J
744.015	1.601	787259	WORD	n/a	wordpools/wordpool_long_EN.txt	RAIL	7	7	[0, 0, 0]	n/a	FR1	3	R1398J
745.616	0.85	788854	WORD_OFF	n/a	n/a	RAIL	7	7	[0, 0, 0]	n/a	FR1	3	R1398J
746.466	1.6	789705	WORD	n/a	wordpools/wordpool_long_EN.txt	TRIBE	8	7	[0, 0, 0]	n/a	FR1	3	R1398J
748.066	0.967	791309	WORD_OFF	n/a	n/a	TRIBE	8	7	[0, 0, 0]	n/a	FR1	3	R1398J
749.033	1.616	792276	WORD	n/a	wordpools/wordpool_long_EN.txt	INN	9	7	[0, 0, 0]	n/a	FR1	3	R1398J
750.649	0.983	793888	WORD_OFF	n/a	n/a	INN	9	7	[0, 0, 0]	n/a	FR1	3	R1398J
751.632	1.601	794872	WORD	n/a	wordpools/wordpool_long_EN.txt	FOOD	10	7	[0, 0, 0]	n/a	FR1	3	R1398J
753.233	0.834	796476	WORD_OFF	n/a	n/a	FOOD	10	7	[0, 0, 0]	n/a	FR1	3	R1398J
754.067	1.615	797303	WORD	n/a	wordpools/wordpool_long_EN.txt	BAND	11	7	[0, 0, 0]	n/a	FR1	3	R1398J
755.682	0.834	798923	WORD_OFF	n/a	n/a	BAND	11	7	[0, 0, 0]	n/a	FR1	3	R1398J
756.516	1.601	799758	WORD	n/a	wordpools/wordpool_long_EN.txt	TROUT	12	7	[0, 0, 0]	n/a	FR1	3	R1398J
758.117	0.0	801353	WORD_OFF	n/a	n/a	TROUT	12	7	[0, 0, 0]	n/a	FR1	3	R1398J
758.117	0.001	801356	PROB	0.001	n/a	n/a	-999	7	[4, 1, 4]	9	FR1	3	R1398J
758.118	0.0	801357	START	n/a	n/a	n/a	-999	7	[-999, -999, -999]	n/a	FR1	3	R1398J
758.118	0.0	801361	ENCODING_END	n/a	n/a	n/a	-999	7	[0, 0, 0]	n/a	FR1	3	R1398J
758.118	3.583	801361	DISTRACT_START	n/a	n/a	n/a	-999	7	[0, 0, 0]	n/a	FR1	3	R1398J
761.701	2.316	804940	PROB	2.316	n/a	n/a	-999	7	[3, 7, 3]	13	FR1	3	R1398J
764.017	6.233	807255	PROB	6.233	n/a	n/a	-999	7	[5, 8, 8]	21	FR1	3	R1398J
770.25	3.467	813488	PROB	3.467	n/a	n/a	-999	7	[3, 5, 8]	16	FR1	3	R1398J
773.717	3.1	816955	PROB	3.1	n/a	n/a	-999	7	[5, 7, 1]	13	FR1	3	R1398J
776.817	1.85	820055	PROB	1.85	n/a	n/a	-999	7	[1, 6, 4]	11	FR1	3	R1398J
778.667	0.0	821904	DISTRACT_END	n/a	n/a	n/a	-999	7	[0, 0, 0]	n/a	FR1	3	R1398J
778.667	2.316	821905	STOP	n/a	n/a	n/a	-999	7	[-999, -999, -999]	n/a	FR1	3	R1398J
780.983	0.083	824219	REC_START	n/a	n/a	n/a	-999	7	[0, 0, 0]	n/a	FR1	3	R1398J
781.066	1.141	824304	REC_WORD_VV	1.141	n/a	<>	-999	7	[0, 0, 0]	n/a	FR1	3	R1398J
782.207	0.64	825445	REC_WORD	0.64	n/a	INN	9	7	[0, 0, 0]	n/a	FR1	3	R1398J
782.847	0.583	826085	REC_WORD	0.583	n/a	BAND	11	7	[0, 0, 0]	n/a	FR1	3	R1398J
783.43	1.192	826668	REC_WORD	1.192	n/a	TROUT	12	7	[0, 0, 0]	n/a	FR1	3	R1398J
784.622	1.975	827860	REC_WORD_VV	1.975	n/a	<>	-999	7	[0, 0, 0]	n/a	FR1	3	R1398J
786.597	1.835	829835	REC_WORD	1.835	n/a	MAZE	3	7	[0, 0, 0]	n/a	FR1	3	R1398J
788.432	2.135	831669	REC_WORD_VV	2.135	n/a	<>	-999	7	[0, 0, 0]	n/a	FR1	3	R1398J
790.567	2.911	833804	REC_WORD	2.911	n/a	FRAME	1	7	[0, 0, 0]	n/a	FR1	3	R1398J
793.478	1.76	836715	REC_WORD	1.76	n/a	HEDGE	2	7	[0, 0, 0]	n/a	FR1	3	R1398J
795.238	3.21	838475	REC_WORD_VV	3.21	n/a	<>	-999	7	[0, 0, 0]	n/a	FR1	3	R1398J
798.448	0.509	841685	REC_WORD	0.509	n/a	TRAIL	-999	7	[0, 0, 0]	n/a	FR1	3	R1398J
798.957	4.436	842194	REC_WORD_VV	4.436	n/a	<>	-999	7	[0, 0, 0]	n/a	FR1	3	R1398J
803.393	0.356	846630	REC_WORD_VV	0.356	n/a	<>	-999	7	[0, 0, 0]	n/a	FR1	3	R1398J
803.749	1.71	846986	REC_WORD	1.71	n/a	BAND	11	7	[0, 0, 0]	n/a	FR1	3	R1398J
805.459	2.708	848696	REC_WORD	2.708	n/a	TROUT	12	7	[0, 0, 0]	n/a	FR1	3	R1398J
808.167	2.575	851404	REC_WORD_VV	2.575	n/a	<>	-999	7	[0, 0, 0]	n/a	FR1	3	R1398J
810.742	0.474	853979	REC_WORD_VV	0.474	n/a	<>	-999	7	[0, 0, 0]	n/a	FR1	3	R1398J
811.216	1.401	854450	REC_END	n/a	n/a	n/a	-999	7	[0, 0, 0]	n/a	FR1	3	R1398J
812.617	10.357	855855	COUNTDOWN_START	n/a	n/a	n/a	-999	8	[0, 0, 0]	n/a	FR1	3	R1398J
822.974	0.0	866213	COUNTDOWN_END	n/a	n/a	n/a	-999	8	[0, 0, 0]	n/a	FR1	3	R1398J
822.974	2.059	866213	ENCODING_START	n/a	n/a	n/a	-999	8	[0, 0, 0]	n/a	FR1	3	R1398J
825.033	1.616	868272	WORD	n/a	wordpools/wordpool_long_EN.txt	SEAL	1	8	[0, 0, 0]	n/a	FR1	3	R1398J
826.649	0.901	869884	WORD_OFF	n/a	n/a	SEAL	1	8	[0, 0, 0]	n/a	FR1	3	R1398J
827.55	1.615	870785	WORD	n/a	wordpools/wordpool_long_EN.txt	FLEET	2	8	[0, 0, 0]	n/a	FR1	3	R1398J
829.165	0.768	872405	WORD_OFF	n/a	n/a	FLEET	2	8	[0, 0, 0]	n/a	FR1	3	R1398J
829.933	1.6	873166	WORD	n/a	wordpools/wordpool_long_EN.txt	FACE	3	8	[0, 0, 0]	n/a	FR1	3	R1398J
831.533	0.883	874769	WORD_OFF	n/a	n/a	FACE	3	8	[0, 0, 0]	n/a	FR1	3	R1398J
832.416	1.6	875654	WORD	n/a	wordpools/wordpool_long_EN.txt	LAND	4	8	[0, 0, 0]	n/a	FR1	3	R1398J
834.016	0.832	877249	WORD_OFF	n/a	n/a	LAND	4	8	[0, 0, 0]	n/a	FR1	3	R1398J
834.848	1.601	878084	WORD	n/a	wordpools/wordpool_long_EN.txt	SWAMP	5	8	[0, 0, 0]	n/a	FR1	3	R1398J
836.449	0.934	879688	WORD_OFF	n/a	n/a	SWAMP	5	8	[0, 0, 0]	n/a	FR1	3	R1398J
837.383	1.615	880622	WORD	n/a	wordpools/wordpool_long_EN.txt	MEAT	6	8	[0, 0, 0]	n/a	FR1	3	R1398J
838.998	0.985	882234	WORD_OFF	n/a	n/a	MEAT	6	8	[0, 0, 0]	n/a	FR1	3	R1398J
839.983	1.6	883218	WORD	n/a	wordpools/wordpool_long_EN.txt	STREET	7	8	[0, 0, 0]	n/a	FR1	3	R1398J
841.583	0.766	884822	WORD_OFF	n/a	n/a	STREET	7	8	[0, 0, 0]	n/a	FR1	3	R1398J
842.349	1.6	885582	WORD	n/a	wordpools/wordpool_long_EN.txt	INK	8	8	[0, 0, 0]	n/a	FR1	3	R1398J
843.949	0.817	887186	WORD_OFF	n/a	n/a	INK	8	8	[0, 0, 0]	n/a	FR1	3	R1398J
844.766	1.617	888004	WORD	n/a	wordpools/wordpool_long_EN.txt	BEEF	9	8	[0, 0, 0]	n/a	FR1	3	R1398J
846.383	0.933	889616	WORD_OFF	n/a	n/a	BEEF	9	8	[0, 0, 0]	n/a	FR1	3	R1398J
847.316	1.617	890551	WORD	n/a	wordpools/wordpool_long_EN.txt	DART	10	8	[0, 0, 0]	n/a	FR1	3	R1398J
848.933	1.0	892171	WORD_OFF	n/a	n/a	DART	10	8	[0, 0, 0]	n/a	FR1	3	R1398J
849.933	1.616	893171	WORD	n/a	wordpools/wordpool_long_EN.txt	VASE	11	8	[0, 0, 0]	n/a	FR1	3	R1398J
851.549	0.934	894783	WORD_OFF	n/a	n/a	VASE	11	8	[0, 0, 0]	n/a	FR1	3	R1398J
852.483	1.617	895717	WORD	n/a	wordpools/wordpool_long_EN.txt	VAULT	12	8	[0, 0, 0]	n/a	FR1	3	R1398J
854.1	0.0	897335	START	n/a	n/a	n/a	-999	8	[-999, -999, -999]	n/a	FR1	3	R1398J
854.1	0.0	897335	PROB	0.0	n/a	n/a	-999	8	[1, 7, 1]	9	FR1	3	R1398J
854.099	0.001	897337	WORD_OFF	n/a	n/a	VAULT	12	8	[0, 0, 0]	n/a	FR1	3	R1398J
854.1	0.0	897337	ENCODING_END	n/a	n/a	n/a	-999	8	[0, 0, 0]	n/a	FR1	3	R1398J
854.1	3.183	897337	DISTRACT_START	n/a	n/a	n/a	-999	8	[0, 0, 0]	n/a	FR1	3	R1398J
857.283	2.317	900518	PROB	2.317	n/a	n/a	-999	8	[6, 2, 3]	11	FR1	3	R1398J
859.6	3.849	902834	PROB	3.849	n/a	n/a	-999	8	[4, 8, 5]	17	FR1	3	R1398J
863.449	2.401	906683	PROB	2.401	n/a	n/a	-999	8	[1, 3, 8]	12	FR1	3	R1398J
865.85	2.233	909084	PROB	2.233	n/a	n/a	-999	8	[1, 6, 5]	12	FR1	3	R1398J
868.083	2.617	911317	PROB	2.617	n/a	n/a	-999	8	[4, 5, 5]	14	FR1	3	R1398J
870.7	2.999	913934	PROB	2.999	n/a	n/a	-999	8	[6, 5, 4]	15	FR1	3	R1398J
873.699	3.217	916933	PROB	3.217	n/a	n/a	-999	8	[2, 4, 1]	7	FR1	3	R1398J
876.916	0.0	920150	STOP	n/a	n/a	n/a	-999	8	[-999, -999, -999]	n/a	FR1	3	R1398J
876.916	2.199	920153	DISTRACT_END	n/a	n/a	n/a	-999	8	[0, 0, 0]	n/a	FR1	3	R1398J
879.115	0.815	922352	REC_START	n/a	n/a	n/a	-999	8	[0, 0, 0]	n/a	FR1	3	R1398J
879.93	0.455	923164	REC_WORD_VV	0.455	n/a	<>	-999	8	[0, 0, 0]	n/a	FR1	3	R1398J
880.385	1.793	923619	REC_WORD	1.793	n/a	SEAL	1	8	[0, 0, 0]	n/a	FR1	3	R1398J
882.178	3.04	925412	REC_WORD_VV	3.04	n/a	<>	-999	8	[0, 0, 0]	n/a	FR1	3	R1398J
885.218	1.333	928451	REC_WORD	1.333	n/a	STAMP	-999	8	[0, 0, 0]	n/a	FR1	3	R1398J
886.551	1.175	929784	REC_WORD_VV	1.175	n/a	<>	-999	8	[0, 0, 0]	n/a	FR1	3	R1398J
887.726	1.481	930959	REC_WORD	1.481	n/a	INK	8	8	[0, 0, 0]	n/a	FR1	3	R1398J
889.207	0.255	932440	REC_WORD_VV	0.255	n/a	<>	-999	8	[0, 0, 0]	n/a	FR1	3	R1398J
889.462	1.59	932695	REC_WORD	1.59	n/a	VASE	11	8	[0, 0, 0]	n/a	FR1	3	R1398J
891.052	3.35	934285	REC_WORD_VV	3.35	n/a	<>	-999	8	[0, 0, 0]	n/a	FR1	3	R1398J
894.402	1.24	937635	REC_WORD	1.24	n/a	MEAT	6	8	[0, 0, 0]	n/a	FR1	3	R1398J
895.642	1.595	938875	REC_WORD	1.595	n/a	BEEF	9	8	[0, 0, 0]	n/a	FR1	3	R1398J
897.237	5.74	940470	REC_WORD_VV	5.74	n/a	<>	-999	8	[0, 0, 0]	n/a	FR1	3	R1398J
902.977	1.77	946210	REC_WORD	1.77	n/a	SWAMP	5	8	[0, 0, 0]	n/a	FR1	3	R1398J
904.747	4.591	947980	REC_WORD_VV	4.591	n/a	<>	-999	8	[0, 0, 0]	n/a	FR1	3	R1398J
909.338	1.445	952575	REC_END	n/a	n/a	n/a	-999	8	[0, 0, 0]	n/a	FR1	3	R1398J
910.783	10.361	954014	COUNTDOWN_START	n/a	n/a	n/a	-999	9	[0, 0, 0]	n/a	FR1	3	R1398J
921.144	0.0	964380	COUNTDOWN_END	n/a	n/a	n/a	-999	9	[0, 0, 0]	n/a	FR1	3	R1398J
921.144	2.121	964380	ENCODING_START	n/a	n/a	n/a	-999	9	[0, 0, 0]	n/a	FR1	3	R1398J
923.265	1.6	966496	WORD	n/a	wordpools/wordpool_long_EN.txt	STORE	1	9	[0, 0, 0]	n/a	FR1	3	R1398J
924.865	0.784	968100	WORD_OFF	n/a	n/a	STORE	1	9	[0, 0, 0]	n/a	FR1	3	R1398J
925.649	1.616	968885	WORD	n/a	wordpools/wordpool_long_EN.txt	GREASE	2	9	[0, 0, 0]	n/a	FR1	3	R1398J
927.265	0.917	970497	WORD_OFF	n/a	n/a	GREASE	2	9	[0, 0, 0]	n/a	FR1	3	R1398J
928.182	1.6	971415	WORD	n/a	wordpools/wordpool_long_EN.txt	POND	3	9	[0, 0, 0]	n/a	FR1	3	R1398J
929.782	0.983	973010	WORD_OFF	n/a	n/a	POND	3	9	[0, 0, 0]	n/a	FR1	3	R1398J
930.765	1.6	973994	WORD	n/a	wordpools/wordpool_long_EN.txt	BLADE	4	9	[0, 0, 0]	n/a	FR1	3	R1398J
932.365	0.867	975598	WORD_OFF	n/a	n/a	BLADE	4	9	[0, 0, 0]	n/a	FR1	3	R1398J
933.232	1.617	976466	WORD	n/a	wordpools/wordpool_long_EN.txt	HOUSE	5	9	[0, 0, 0]	n/a	FR1	3	R1398J
934.849	0.866	978078	WORD_OFF	n/a	n/a	HOUSE	5	9	[0, 0, 0]	n/a	FR1	3	R1398J
935.715	1.617	978946	WORD	n/a	wordpools/wordpool_long_EN.txt	HUT	6	9	[0, 0, 0]	n/a	FR1	3	R1398J
937.332	0.833	980566	WORD_OFF	n/a	n/a	HUT	6	9	[0, 0, 0]	n/a	FR1	3	R1398J
938.165	1.6	981393	WORD	n/a	wordpools/wordpool_long_EN.txt	BOX	7	9	[0, 0, 0]	n/a	FR1	3	R1398J
939.765	0.867	982997	WORD_OFF	n/a	n/a	BOX	7	9	[0, 0, 0]	n/a	FR1	3	R1398J
940.632	1.6	983865	WORD	n/a	wordpools/wordpool_long_EN.txt	ARCH	8	9	[0, 0, 0]	n/a	FR1	3	R1398J
942.232	0.984	985468	WORD_OFF	n/a	n/a	ARCH	8	9	[0, 0, 0]	n/a	FR1	3	R1398J
943.216	1.6	986452	WORD	n/a	wordpools/wordpool_long_EN.txt	MOP	9	9	[0, 0, 0]	n/a	FR1	3	R1398J
944.816	0.95	988048	WORD_OFF	n/a	n/a	MOP	9	9	[0, 0, 0]	n/a	FR1	3	R1398J
945.766	1.617	988998	WORD	n/a	wordpools/wordpool_long_EN.txt	SLUG	10	9	[0, 0, 0]	n/a	FR1	3	R1398J
947.383	0.766	990618	WORD_OFF	n/a	n/a	SLUG	10	9	[0, 0, 0]	n/a	FR1	3	R1398J
948.149	1.6	991379	WORD	n/a	wordpools/wordpool_long_EN.txt	GATE	11	9	[0, 0, 0]	n/a	FR1	3	R1398J
949.749	0.799	992983	WORD_OFF	n/a	n/a	GATE	11	9	[0, 0, 0]	n/a	FR1	3	R1398J
950.548	1.618	993776	WORD	n/a	wordpools/wordpool_long_EN.txt	SPONGE	12	9	[0, 0, 0]	n/a	FR1	3	R1398J
952.166	0.001	995397	WORD_OFF	n/a	n/a	SPONGE	12	9	[0, 0, 0]	n/a	FR1	3	R1398J
952.167	0.0	995397	ENCODING_END	n/a	n/a	n/a	-999	9	[0, 0, 0]	n/a	FR1	3	R1398J
952.167	0.0	995397	DISTRACT_START	n/a	n/a	n/a	-999	9	[0, 0, 0]	n/a	FR1	3	R1398J
952.167	0.0	995398	START	n/a	n/a	n/a	-999	9	[-999, -999, -999]	n/a	FR1	3	R1398J
952.167	3.565	995398	PROB	3.565	n/a	n/a	-999	9	[3, 7, 6]	16	FR1	3	R1398J
955.732	2.518	998962	PROB	2.518	n/a	n/a	-999	9	[1, 3, 2]	6	FR1	3	R1398J
958.25	2.967	1001480	PROB	2.967	n/a	n/a	-999	9	[6, 7, 6]	19	FR1	3	R1398J
961.217	3.05	1004447	PROB	3.05	n/a	n/a	-999	9	[5, 8, 4]	17	FR1	3	R1398J
964.267	2.416	1007497	PROB	2.416	n/a	n/a	-999	9	[7, 4, 6]	17	FR1	3	R1398J
966.683	2.584	1009913	PROB	2.584	n/a	n/a	-999	9	[1, 8, 4]	13	FR1	3	R1398J
969.267	3.132	1012497	PROB	3.132	n/a	n/a	-999	9	[4, 1, 5]	10	FR1	3	R1398J
972.399	0.0	1015629	STOP	n/a	n/a	n/a	-999	9	[-999, -999, -999]	n/a	FR1	3	R1398J
972.399	2.067	1015633	DISTRACT_END	n/a	n/a	n/a	-999	9	[0, 0, 0]	n/a	FR1	3	R1398J
974.466	0.702	1017700	REC_START	n/a	n/a	n/a	-999	9	[0, 0, 0]	n/a	FR1	3	R1398J
975.168	0.353	1018398	REC_WORD_VV	0.353	n/a	<>	-999	9	[0, 0, 0]	n/a	FR1	3	R1398J
975.521	1.415	1018751	REC_WORD	1.415	n/a	SWAMP	-999	9	[0, 0, 0]	n/a	FR1	3	R1398J
976.936	6.646	1020166	REC_WORD_VV	6.646	n/a	<>	-999	9	[0, 0, 0]	n/a	FR1	3	R1398J
983.582	0.806	1026811	REC_WORD_VV	0.806	n/a	<>	-999	9	[0, 0, 0]	n/a	FR1	3	R1398J
984.388	1.16	1027617	REC_WORD	1.16	n/a	SPONGE	12	9	[0, 0, 0]	n/a	FR1	3	R1398J
985.548	10.302	1028777	REC_WORD_VV	10.302	n/a	<>	-999	9	[0, 0, 0]	n/a	FR1	3	R1398J
995.85	1.41	1039079	REC_WORD_VV	1.41	n/a	<>	-999	9	[0, 0, 0]	n/a	FR1	3	R1398J
997.26	1.474	1040489	REC_WORD	1.474	n/a	HUT	6	9	[0, 0, 0]	n/a	FR1	3	R1398J
998.734	1.505	1041963	REC_WORD	1.505	n/a	BOX	7	9	[0, 0, 0]	n/a	FR1	3	R1398J
1000.239	4.454	1043468	REC_WORD_VV	4.454	n/a	<>	-999	9	[0, 0, 0]	n/a	FR1	3	R1398J
1004.693	1.556	1047923	REC_END	n/a	n/a	n/a	-999	9	[0, 0, 0]	n/a	FR1	3	R1398J
1006.249	10.367	1049477	COUNTDOWN_START	n/a	n/a	n/a	-999	10	[0, 0, 0]	n/a	FR1	3	R1398J
1016.616	0.0	1059843	COUNTDOWN_END	n/a	n/a	n/a	-999	10	[0, 0, 0]	n/a	FR1	3	R1398J
1016.616	2.133	1059843	ENCODING_START	n/a	n/a	n/a	-999	10	[0, 0, 0]	n/a	FR1	3	R1398J
1018.749	1.601	1061976	WORD	n/a	wordpools/wordpool_long_EN.txt	SKUNK	1	10	[0, 0, 0]	n/a	FR1	3	R1398J
1020.35	0.9	1063580	WORD_OFF	n/a	n/a	SKUNK	1	10	[0, 0, 0]	n/a	FR1	3	R1398J
1021.25	1.6	1064481	WORD	n/a	wordpools/wordpool_long_EN.txt	WOLF	2	10	[0, 0, 0]	n/a	FR1	3	R1398J
1022.85	0.883	1066077	WORD_OFF	n/a	n/a	WOLF	2	10	[0, 0, 0]	n/a	FR1	3	R1398J
1023.733	1.6	1066961	WORD	n/a	wordpools/wordpool_long_EN.txt	BEAST	3	10	[0, 0, 0]	n/a	FR1	3	R1398J
1025.333	0.833	1068565	WORD_OFF	n/a	n/a	BEAST	3	10	[0, 0, 0]	n/a	FR1	3	R1398J
1026.166	1.6	1069391	WORD	n/a	wordpools/wordpool_long_EN.txt	CHEEK	4	10	[0, 0, 0]	n/a	FR1	3	R1398J
1027.766	0.901	1070995	WORD_OFF	n/a	n/a	CHEEK	4	10	[0, 0, 0]	n/a	FR1	3	R1398J
1028.667	1.599	1071896	WORD	n/a	wordpools/wordpool_long_EN.txt	BIRD	5	10	[0, 0, 0]	n/a	FR1	3	R1398J
1030.266	0.784	1073492	WORD_OFF	n/a	n/a	BIRD	5	10	[0, 0, 0]	n/a	FR1	3	R1398J
1031.05	1.6	1074277	WORD	n/a	wordpools/wordpool_long_EN.txt	CLAY	6	10	[0, 0, 0]	n/a	FR1	3	R1398J
1032.65	0.965	1075881	WORD_OFF	n/a	n/a	CLAY	6	10	[0, 0, 0]	n/a	FR1	3	R1398J
1033.615	1.601	1076840	WORD	n/a	wordpools/wordpool_long_EN.txt	FORT	7	10	[0, 0, 0]	n/a	FR1	3	R1398J
1035.216	0.916	1078443	WORD_OFF	n/a	n/a	FORT	7	10	[0, 0, 0]	n/a	FR1	3	R1398J
1036.132	1.601	1079361	WORD	n/a	wordpools/wordpool_long_EN.txt	SKATE	8	10	[0, 0, 0]	n/a	FR1	3	R1398J
1037.733	0.983	1080965	WORD_OFF	n/a	n/a	SKATE	8	10	[0, 0, 0]	n/a	FR1	3	R1398J
1038.716	1.6	1081949	WORD	n/a	wordpools/wordpool_long_EN.txt	PET	9	10	[0, 0, 0]	n/a	FR1	3	R1398J
1040.316	0.917	1083544	WORD_OFF	n/a	n/a	PET	9	10	[0, 0, 0]	n/a	FR1	3	R1398J
1041.233	1.6	1084462	WORD	n/a	wordpools/wordpool_long_EN.txt	SLIME	10	10	[0, 0, 0]	n/a	FR1	3	R1398J
1042.833	0.817	1086057	WORD_OFF	n/a	n/a	SLIME	10	10	[0, 0, 0]	n/a	FR1	3	R1398J
1043.65	1.616	1086875	WORD	n/a	wordpools/wordpool_long_EN.txt	THIEF	11	10	[0, 0, 0]	n/a	FR1	3	R1398J
1045.266	0.8	1088496	WORD_OFF	n/a	n/a	THIEF	11	10	[0, 0, 0]	n/a	FR1	3	R1398J
1046.066	1.6	1089298	WORD	n/a	wordpools/wordpool_long_EN.txt	PARK	12	10	[0, 0, 0]	n/a	FR1	3	R1398J
1047.666	0.002	1090893	WORD_OFF	n/a	n/a	PARK	12	10	[0, 0, 0]	n/a	FR1	3	R1398J
1047.668	0.0	1090893	ENCODING_END	n/a	n/a	n/a	-999	10	[0, 0, 0]	n/a	FR1	3	R1398J
1047.666	0.002	1090893	PROB	0.002	n/a	n/a	-999	10	[8, 7, 1]	16	FR1	3	R1398J
1047.668	0.0	1090895	START	n/a	n/a	n/a	-999	10	[-999, -999, -999]	n/a	FR1	3	R1398J
1047.668	3.049	1090901	DISTRACT_START	n/a	n/a	n/a	-999	10	[0, 0, 0]	n/a	FR1	3	R1398J
1050.717	2.517	1093943	PROB	2.517	n/a	n/a	-999	10	[8, 6, 4]	18	FR1	3	R1398J
1053.234	3.216	1096460	PROB	3.216	n/a	n/a	-999	10	[6, 1, 4]	11	FR1	3	R1398J
1056.45	2.567	1099676	PROB	2.567	n/a	n/a	-999	10	[4, 4, 1]	9	FR1	3	R1398J
1059.017	2.6	1102243	PROB	2.6	n/a	n/a	-999	10	[1, 8, 4]	13	FR1	3	R1398J
1061.617	2.333	1104843	PROB	2.333	n/a	n/a	-999	10	[3, 5, 5]	13	FR1	3	R1398J
1063.95	2.317	1107176	PROB	2.317	n/a	n/a	-999	10	[6, 6, 1]	13	FR1	3	R1398J
1066.267	2.999	1109493	PROB	2.999	n/a	n/a	-999	10	[6, 7, 4]	17	FR1	3	R1398J
1069.266	0.0	1112492	STOP	n/a	n/a	n/a	-999	10	[-999, -999, -999]	n/a	FR1	3	R1398J
1069.266	2.249	1112494	DISTRACT_END	n/a	n/a	n/a	-999	10	[0, 0, 0]	n/a	FR1	3	R1398J
1071.515	0.467	1114742	REC_START	n/a	n/a	n/a	-999	10	[0, 0, 0]	n/a	FR1	3	R1398J
1071.982	0.13	1115208	REC_WORD_VV	0.13	n/a	<>	-999	10	[0, 0, 0]	n/a	FR1	3	R1398J
1072.112	0.903	1115338	REC_WORD	0.903	n/a	SWAMP	-999	10	[0, 0, 0]	n/a	FR1	3	R1398J
1073.015	1.0	1116240	REC_WORD_VV	1.0	n/a	<>	-999	10	[0, 0, 0]	n/a	FR1	3	R1398J
1074.015	3.491	1117240	REC_WORD_VV	3.491	n/a	<>	-999	10	[0, 0, 0]	n/a	FR1	3	R1398J
1077.506	1.889	1120731	REC_WORD	1.889	n/a	BIRD	5	10	[0, 0, 0]	n/a	FR1	3	R1398J
1079.395	4.282	1122620	REC_WORD_VV	4.282	n/a	<>	-999	10	[0, 0, 0]	n/a	FR1	3	R1398J
1083.677	3.015	1126902	REC_WORD_VV	3.015	n/a	<>	-999	10	[0, 0, 0]	n/a	FR1	3	R1398J
1086.692	0.286	1129917	REC_WORD_VV	0.286	n/a	<>	-999	10	[0, 0, 0]	n/a	FR1	3	R1398J
1086.978	0.584	1130203	REC_WORD	0.584	n/a	WEREWOLF	-999	10	[0, 0, 0]	n/a	FR1	3	R1398J
1087.562	2.153	1130787	REC_WORD_VV	2.153	n/a	<>	-999	10	[0, 0, 0]	n/a	FR1	3	R1398J
1089.715	1.0	1132940	REC_WORD_VV	1.0	n/a	<>	-999	10	[0, 0, 0]	n/a	FR1	3	R1398J
1090.715	5.504	1133940	REC_WORD_VV	5.504	n/a	<>	-999	10	[0, 0, 0]	n/a	FR1	3	R1398J
1096.219	2.207	1139444	REC_WORD	2.207	n/a	ANIMALS	-999	10	[0, 0, 0]	n/a	FR1	3	R1398J
1098.426	2.638	1141650	REC_WORD	2.638	n/a	BIRD	5	10	[0, 0, 0]	n/a	FR1	3	R1398J
1101.064	0.683	1144288	REC_WORD_VV	0.683	n/a	<>	-999	10	[0, 0, 0]	n/a	FR1	3	R1398J
1101.747	3.052	1144974	REC_END	n/a	n/a	n/a	-999	10	[0, 0, 0]	n/a	FR1	3	R1398J
1104.799	10.366	1148024	COUNTDOWN_START	n/a	n/a	n/a	-999	11	[0, 0, 0]	n/a	FR1	3	R1398J
1115.165	0.001	1158390	COUNTDOWN_END	n/a	n/a	n/a	-999	11	[0, 0, 0]	n/a	FR1	3	R1398J
1115.166	2.167	1158390	ENCODING_START	n/a	n/a	n/a	-999	11	[0, 0, 0]	n/a	FR1	3	R1398J
1117.333	1.617	1160556	WORD	n/a	wordpools/wordpool_long_EN.txt	STRAW	1	11	[0, 0, 0]	n/a	FR1	3	R1398J
1118.95	0.8	1162176	WORD_OFF	n/a	n/a	STRAW	1	11	[0, 0, 0]	n/a	FR1	3	R1398J
1119.75	1.616	1162978	WORD	n/a	wordpools/wordpool_long_EN.txt	SPACE	2	11	[0, 0, 0]	n/a	FR1	3	R1398J
1121.366	0.851	1164590	WORD_OFF	n/a	n/a	SPACE	2	11	[0, 0, 0]	n/a	FR1	3	R1398J
1122.217	1.599	1165442	WORD	n/a	wordpools/wordpool_long_EN.txt	HAZE	3	11	[0, 0, 0]	n/a	FR1	3	R1398J
1123.816	0.8	1167037	WORD_OFF	n/a	n/a	HAZE	3	11	[0, 0, 0]	n/a	FR1	3	R1398J
1124.616	1.6	1167839	WORD	n/a	wordpools/wordpool_long_EN.txt	DUST	4	11	[0, 0, 0]	n/a	FR1	3	R1398J
1126.216	0.933	1169443	WORD_OFF	n/a	n/a	DUST	4	11	[0, 0, 0]	n/a	FR1	3	R1398J
1127.149	1.601	1170377	WORD	n/a	wordpools/wordpool_long_EN.txt	QUEEN	5	11	[0, 0, 0]	n/a	FR1	3	R1398J
1128.75	0.849	1171972	WORD_OFF	n/a	n/a	QUEEN	5	11	[0, 0, 0]	n/a	FR1	3	R1398J
1129.599	1.601	1172824	WORD	n/a	wordpools/wordpool_long_EN.txt	SHOE	6	11	[0, 0, 0]	n/a	FR1	3	R1398J
1131.2	0.899	1174428	WORD_OFF	n/a	n/a	SHOE	6	11	[0, 0, 0]	n/a	FR1	3	R1398J
1132.099	1.6	1175320	WORD	n/a	wordpools/wordpool_long_EN.txt	CROSS	7	11	[0, 0, 0]	n/a	FR1	3	R1398J
1133.699	0.784	1176924	WORD_OFF	n/a	n/a	CROSS	7	11	[0, 0, 0]	n/a	FR1	3	R1398J
1134.483	1.617	1177710	WORD	n/a	wordpools/wordpool_long_EN.txt	SPARK	8	11	[0, 0, 0]	n/a	FR1	3	R1398J
1136.1	0.833	1179322	WORD_OFF	n/a	n/a	SPARK	8	11	[0, 0, 0]	n/a	FR1	3	R1398J
1136.933	1.6	1180156	WORD	n/a	wordpools/wordpool_long_EN.txt	SKI	9	11	[0, 0, 0]	n/a	FR1	3	R1398J
1138.533	0.884	1181760	WORD_OFF	n/a	n/a	SKI	9	11	[0, 0, 0]	n/a	FR1	3	R1398J
1139.417	1.6	1182636	WORD	n/a	wordpools/wordpool_long_EN.txt	COIN	10	11	[0, 0, 0]	n/a	FR1	3	R1398J
1141.017	0.866	1184240	WORD_OFF	n/a	n/a	COIN	10	11	[0, 0, 0]	n/a	FR1	3	R1398J
1141.883	1.6	1185108	WORD	n/a	wordpools/wordpool_long_EN.txt	ROPE	11	11	[0, 0, 0]	n/a	FR1	3	R1398J
1143.483	0.966	1186704	WORD_OFF	n/a	n/a	ROPE	11	11	[0, 0, 0]	n/a	FR1	3	R1398J
1144.449	1.6	1187671	WORD	n/a	wordpools/wordpool_long_EN.txt	WOOD	12	11	[0, 0, 0]	n/a	FR1	3	R1398J
1146.049	0.001	1189271	PROB	0.001	n/a	n/a	-999	11	[5, 8, 6]	19	FR1	3	R1398J
1146.05	0.0	1189272	START	n/a	n/a	n/a	-999	11	[-999, -999, -999]	n/a	FR1	3	R1398J
1146.049	0.001	1189275	WORD_OFF	n/a	n/a	WOOD	12	11	[0, 0, 0]	n/a	FR1	3	R1398J
1146.05	0.0	1189275	ENCODING_END	n/a	n/a	n/a	-999	11	[0, 0, 0]	n/a	FR1	3	R1398J
1146.05	4.734	1189275	DISTRACT_START	n/a	n/a	n/a	-999	11	[0, 0, 0]	n/a	FR1	3	R1398J
1150.784	2.799	1194006	PROB	2.799	n/a	n/a	-999	11	[7, 2, 7]	16	FR1	3	R1398J
1153.583	2.518	1196805	PROB	2.518	n/a	n/a	-999	11	[7, 3, 2]	12	FR1	3	R1398J
1156.101	2.699	1199323	PROB	2.699	n/a	n/a	-999	11	[8, 2, 4]	14	FR1	3	R1398J
1158.8	2.684	1202022	PROB	2.684	n/a	n/a	-999	11	[5, 8, 5]	18	FR1	3	R1398J
1161.484	2.484	1204706	PROB	2.484	n/a	n/a	-999	11	[7, 7, 1]	15	FR1	3	R1398J
1163.968	3.081	1207190	PROB	3.081	n/a	n/a	-999	11	[3, 5, 2]	10	FR1	3	R1398J
1167.049	0.0	1210270	STOP	n/a	n/a	n/a	-999	11	[-999, -999, -999]	n/a	FR1	3	R1398J
1167.049	2.316	1210272	DISTRACT_END	n/a	n/a	n/a	-999	11	[0, 0, 0]	n/a	FR1	3	R1398J
1169.365	0.299	1212586	REC_START	n/a	n/a	n/a	-999	11	[0, 0, 0]	n/a	FR1	3	R1398J
1169.664	1.263	1212885	REC_WORD_VV	1.263	n/a	<>	-999	11	[0, 0, 0]	n/a	FR1	3	R1398J
1170.927	2.341	1214148	REC_WORD	2.341	n/a	SKY	-999	11	[0, 0, 0]	n/a	FR1	3	R1398J
1173.268	6.314	1216489	REC_WORD_VV	6.314	n/a	<>	-999	11	[0, 0, 0]	n/a	FR1	3	R1398J
1179.582	1.337	1222803	REC_WORD_VV	1.337	n/a	<>	-999	11	[0, 0, 0]	n/a	FR1	3	R1398J
1180.919	0.498	1224140	REC_WORD	0.498	n/a	SKY	-999	11	[0, 0, 0]	n/a	FR1	3	R1398J
1181.417	1.262	1224638	REC_WORD	1.262	n/a	SMOKE	-999	11	[0, 0, 0]	n/a	FR1	3	R1398J
1182.679	6.386	1225900	REC_WORD_VV	6.386	n/a	<>	-999	11	[0, 0, 0]	n/a	FR1	3	R1398J
1189.065	10.531	1232286	REC_WORD_VV	10.531	n/a	<>	-999	11	[0, 0, 0]	n/a	FR1	3	R1398J
1199.596	3.253	1242818	REC_END	n/a	n/a	n/a	-999	11	[0, 0, 0]	n/a	FR1	3	R1398J
1202.849	10.367	1246075	COUNTDOWN_START	n/a	n/a	n/a	-999	12	[0, 0, 0]	n/a	FR1	3	R1398J
1213.216	0.0	1256433	COUNTDOWN_END	n/a	n/a	n/a	-999	12	[0, 0, 0]	n/a	FR1	3	R1398J
1213.216	2.167	1256441	ENCODING_START	n/a	n/a	n/a	-999	12	[0, 0, 0]	n/a	FR1	3	R1398J
1215.383	1.6	1258607	WORD	n/a	wordpools/wordpool_long_EN.txt	VEST	1	12	[0, 0, 0]	n/a	FR1	3	R1398J
1216.983	0.866	1260203	WORD_OFF	n/a	n/a	VEST	1	12	[0, 0, 0]	n/a	FR1	3	R1398J
1217.849	1.6	1261071	WORD	n/a	wordpools/wordpool_long_EN.txt	PEARL	2	12	[0, 0, 0]	n/a	FR1	3	R1398J
1219.449	0.934	1262666	WORD_OFF	n/a	n/a	PEARL	2	12	[0, 0, 0]	n/a	FR1	3	R1398J
1220.383	1.6	1263600	WORD	n/a	wordpools/wordpool_long_EN.txt	SALT	3	12	[0, 0, 0]	n/a	FR1	3	R1398J
1221.983	0.917	1265204	WORD_OFF	n/a	n/a	SALT	3	12	[0, 0, 0]	n/a	FR1	3	R1398J
1222.9	1.6	1266121	WORD	n/a	wordpools/wordpool_long_EN.txt	LOCK	4	12	[0, 0, 0]	n/a	FR1	3	R1398J
1224.5	0.9	1267717	WORD_OFF	n/a	n/a	LOCK	4	12	[0, 0, 0]	n/a	FR1	3	R1398J
1225.4	1.615	1268618	WORD	n/a	wordpools/wordpool_long_EN.txt	MOLE	5	12	[0, 0, 0]	n/a	FR1	3	R1398J
1227.015	0.951	1270238	WORD_OFF	n/a	n/a	MOLE	5	12	[0, 0, 0]	n/a	FR1	3	R1398J
1227.966	1.616	1271189	WORD	n/a	wordpools/wordpool_long_EN.txt	BRANCH	6	12	[0, 0, 0]	n/a	FR1	3	R1398J
1229.582	0.983	1272801	WORD_OFF	n/a	n/a	BRANCH	6	12	[0, 0, 0]	n/a	FR1	3	R1398J
1230.565	1.601	1273785	WORD	n/a	wordpools/wordpool_long_EN.txt	CROWN	7	12	[0, 0, 0]	n/a	FR1	3	R1398J
1232.166	0.767	1275388	WORD_OFF	n/a	n/a	CROWN	7	12	[0, 0, 0]	n/a	FR1	3	R1398J
1232.933	1.6	1276157	WORD	n/a	wordpools/wordpool_long_EN.txt	CUBE	8	12	[0, 0, 0]	n/a	FR1	3	R1398J
1234.533	0.967	1277753	WORD_OFF	n/a	n/a	CUBE	8	12	[0, 0, 0]	n/a	FR1	3	R1398J
1235.5	1.6	1278720	WORD	n/a	wordpools/wordpool_long_EN.txt	BREAD	9	12	[0, 0, 0]	n/a	FR1	3	R1398J
1237.1	0.816	1280315	WORD_OFF	n/a	n/a	BREAD	9	12	[0, 0, 0]	n/a	FR1	3	R1398J
1237.916	1.617	1281134	WORD	n/a	wordpools/wordpool_long_EN.txt	HEART	10	12	[0, 0, 0]	n/a	FR1	3	R1398J
1239.533	0.783	1282754	WORD_OFF	n/a	n/a	HEART	10	12	[0, 0, 0]	n/a	FR1	3	R1398J
1240.316	1.601	1283539	WORD	n/a	wordpools/wordpool_long_EN.txt	PURSE	11	12	[0, 0, 0]	n/a	FR1	3	R1398J
1241.917	0.966	1285135	WORD_OFF	n/a	n/a	PURSE	11	12	[0, 0, 0]	n/a	FR1	3	R1398J
1242.883	1.601	1286102	WORD	n/a	wordpools/wordpool_long_EN.txt	COD	12	12	[0, 0, 0]	n/a	FR1	3	R1398J
1244.484	0.001	1287702	PROB	0.001	n/a	n/a	-999	12	[3, 5, 3]	11	FR1	3	R1398J
1244.485	0.0	1287703	START	n/a	n/a	n/a	-999	12	[-999, -999, -999]	n/a	FR1	3	R1398J
1244.483	0.001	1287706	WORD_OFF	n/a	n/a	COD	12	12	[0, 0, 0]	n/a	FR1	3	R1398J
1244.484	0.001	1287706	ENCODING_END	n/a	n/a	n/a	-999	12	[0, 0, 0]	n/a	FR1	3	R1398J
1244.485	2.449	1287706	DISTRACT_START	n/a	n/a	n/a	-999	12	[0, 0, 0]	n/a	FR1	3	R1398J
1246.934	2.083	1290152	PROB	2.083	n/a	n/a	-999	12	[3, 3, 7]	13	FR1	3	R1398J
1249.017	2.817	1292235	PROB	2.817	n/a	n/a	-999	12	[4, 2, 3]	9	FR1	3	R1398J
1251.834	2.467	1295052	PROB	2.467	n/a	n/a	-999	12	[8, 1, 1]	10	FR1	3	R1398J
1254.301	4.716	1297519	PROB	4.716	n/a	n/a	-999	12	[1, 3, 8]	12	FR1	3	R1398J
1259.017	2.317	1302235	PROB	2.317	n/a	n/a	-999	12	[1, 2, 7]	10	FR1	3	R1398J
1261.334	2.966	1304552	PROB	2.966	n/a	n/a	-999	12	[8, 6, 6]	20	FR1	3	R1398J
1264.3	2.7	1307517	PROB	2.7	n/a	n/a	-999	12	[6, 7, 8]	21	FR1	3	R1398J
1267.0	0.0	1310216	DISTRACT_END	n/a	n/a	n/a	-999	12	[0, 0, 0]	n/a	FR1	3	R1398J
1267.0	2.066	1310217	STOP	n/a	n/a	n/a	-999	12	[-999, -999, -999]	n/a	FR1	3	R1398J
1269.066	0.336	1312282	REC_START	n/a	n/a	n/a	-999	12	[0, 0, 0]	n/a	FR1	3	R1398J
1269.402	0.465	1312619	REC_WORD_VV	0.465	n/a	<>	-999	12	[0, 0, 0]	n/a	FR1	3	R1398J
1269.867	1.454	1313084	REC_WORD	1.454	n/a	COD	12	12	[0, 0, 0]	n/a	FR1	3	R1398J
1271.321	0.617	1314538	REC_WORD_VV	0.617	n/a	<>	-999	12	[0, 0, 0]	n/a	FR1	3	R1398J
1271.938	1.764	1315155	REC_WORD	1.764	n/a	CROWN	7	12	[0, 0, 0]	n/a	FR1	3	R1398J
1273.702	18.414	1316919	REC_WORD_VV	18.414	n/a	<>	-999	12	[0, 0, 0]	n/a	FR1	3	R1398J
1292.116	0.888	1335332	REC_WORD	0.888	n/a	BEAST	-999	12	[0, 0, 0]	n/a	FR1	3	R1398J
1293.004	1.371	1336220	REC_WORD_VV	1.371	n/a	<>	-999	12	[0, 0, 0]	n/a	FR1	3	R1398J
1294.375	4.929	1337591	REC_WORD_VV	4.929	n/a	<>	-999	12	[0, 0, 0]	n/a	FR1	3	R1398J
1299.304	0.0	1342522	REC_END	n/a	n/a	n/a	-999	12	[0, 0, 0]	n/a	FR1	3	R1398J
