onset	duration	sample	trial_type	response_time	stim_file	item_name	serialpos	list	test	answer	experiment	session	subject
0.0	16.365	3245801	SESS_START	n/a	n/a	n/a	-999	-999	[0, 0, 0]	n/a	FR1	0	R1138T
16.365	10.428	3262165	COUNTDOWN_START	n/a	n/a	n/a	-999	-999	[0, 0, 0]	n/a	FR1	0	R1138T
26.793	4.026	3272593	COUNTDOWN_END	n/a	n/a	n/a	-999	-999	[0, 0, 0]	n/a	FR1	0	R1138T
30.819	2.466	3276619	PRACTICE_WORD	n/a	n/a	FLOOD	1	-1	[0, 0, 0]	n/a	FR1	0	R1138T
33.285	2.535	3279085	PRACTICE_WORD	n/a	n/a	RHINO	2	-1	[0, 0, 0]	n/a	FR1	0	R1138T
35.82	2.417	3281620	PRACTICE_WORD	n/a	n/a	BEAM	3	-1	[0, 0, 0]	n/a	FR1	0	R1138T
38.237	2.517	3284036	PRACTICE_WORD	n/a	n/a	RING	4	-1	[0, 0, 0]	n/a	FR1	0	R1138T
40.754	2.55	3286553	PRACTICE_WORD	n/a	n/a	WATCH	5	-1	[0, 0, 0]	n/a	FR1	0	R1138T
43.304	2.601	3289103	PRACTICE_WORD	n/a	n/a	CAMEL	6	-1	[0, 0, 0]	n/a	FR1	0	R1138T
45.905	2.566	3291704	PRACTICE_WORD	n/a	n/a	WAGON	7	-1	[0, 0, 0]	n/a	FR1	0	R1138T
48.471	2.585	3294270	PRACTICE_WORD	n/a	n/a	COTTON	8	-1	[0, 0, 0]	n/a	FR1	0	R1138T
51.056	2.467	3296855	PRACTICE_WORD	n/a	n/a	CHEST	9	-1	[0, 0, 0]	n/a	FR1	0	R1138T
53.523	2.568	3299322	PRACTICE_WORD	n/a	n/a	TONGUE	10	-1	[0, 0, 0]	n/a	FR1	0	R1138T
56.091	2.55	3301890	PRACTICE_WORD	n/a	n/a	IRON	11	-1	[0, 0, 0]	n/a	FR1	0	R1138T
58.641	1.616	3304439	PRACTICE_WORD	n/a	n/a	ATTIC	12	-1	[0, 0, 0]	n/a	FR1	0	R1138T
60.257	0.0	3306055	PRACTICE_DISTRACT_START	n/a	n/a	n/a	-999	-1	[0, 0, 0]	n/a	FR1	0	R1138T
60.257	0.017	3306055	START	n/a	n/a	n/a	-999	-1	[-999, -999, -999]	n/a	FR1	0	R1138T
60.274	10.402	3306072	PROB	10.402	n/a	n/a	-999	-1	[9, 6, 9]	24	FR1	0	R1138T
70.676	5.7	3316474	PROB	5.7	n/a	n/a	-999	-1	[4, 3, 3]	10	FR1	0	R1138T
76.376	9.409	3322174	PROB	9.409	n/a	n/a	-999	-1	[4, 5, 7]	16	FR1	0	R1138T
85.785	0.011	3331582	STOP	n/a	n/a	n/a	-999	-1	[-999, -999, -999]	n/a	FR1	0	R1138T
85.796	0.585	3331593	PRACTICE_DISTRACT_END	n/a	n/a	n/a	-999	-1	[0, 0, 0]	n/a	FR1	0	R1138T
86.381	30.515	3332178	PRACTICE_REC_START	n/a	n/a	n/a	-999	-1	[0, 0, 0]	n/a	FR1	0	R1138T
116.896	45.48	3362692	PRACTICE_REC_END	n/a	n/a	n/a	-999	-1	[0, 0, 0]	n/a	FR1	0	R1138T
162.376	0.0	3408169	TRIAL	n/a	n/a	n/a	-999	1	[0, 0, 0]	n/a	FR1	0	R1138T
162.376	10.428	3408169	COUNTDOWN_START	n/a	n/a	n/a	-999	1	[0, 0, 0]	n/a	FR1	0	R1138T
172.804	0.008	3418597	COUNTDOWN_END	n/a	n/a	n/a	-999	1	[0, 0, 0]	n/a	FR1	0	R1138T
172.812	2.566	3418605	ORIENT	n/a	n/a	n/a	-999	1	[0, 0, 0]	n/a	FR1	0	R1138T
175.378	2.401	3421171	WORD	n/a	wordpools/wordpool_EN.txt	POLE	1	1	[0, 0, 0]	n/a	FR1	0	R1138T
177.779	2.583	3423572	WORD	n/a	wordpools/wordpool_EN.txt	CHEEK	2	1	[0, 0, 0]	n/a	FR1	0	R1138T
180.362	2.402	3426154	WORD	n/a	wordpools/wordpool_EN.txt	PHONE	3	1	[0, 0, 0]	n/a	FR1	0	R1138T
182.764	2.433	3428556	WORD	n/a	wordpools/wordpool_EN.txt	DIME	4	1	[0, 0, 0]	n/a	FR1	0	R1138T
185.197	2.584	3430989	WORD	n/a	wordpools/wordpool_EN.txt	COIN	5	1	[0, 0, 0]	n/a	FR1	0	R1138T
187.781	2.483	3433573	WORD	n/a	wordpools/wordpool_EN.txt	SPEAR	6	1	[0, 0, 0]	n/a	FR1	0	R1138T
190.264	2.385	3436056	WORD	n/a	wordpools/wordpool_EN.txt	CONE	7	1	[0, 0, 0]	n/a	FR1	0	R1138T
192.649	2.616	3438441	WORD	n/a	wordpools/wordpool_EN.txt	ARM	8	1	[0, 0, 0]	n/a	FR1	0	R1138T
195.265	2.551	3441057	WORD	n/a	wordpools/wordpool_EN.txt	DRUM	9	1	[0, 0, 0]	n/a	FR1	0	R1138T
197.816	2.483	3443608	WORD	n/a	wordpools/wordpool_EN.txt	GRAPE	10	1	[0, 0, 0]	n/a	FR1	0	R1138T
200.299	2.385	3446090	WORD	n/a	wordpools/wordpool_EN.txt	HOSE	11	1	[0, 0, 0]	n/a	FR1	0	R1138T
202.684	1.616	3448475	WORD	n/a	wordpools/wordpool_EN.txt	FROG	12	1	[0, 0, 0]	n/a	FR1	0	R1138T
204.3	0.001	3450091	DISTRACT_START	n/a	n/a	n/a	-999	1	[0, 0, 0]	n/a	FR1	0	R1138T
204.301	0.016	3450092	START	n/a	n/a	n/a	-999	1	[-999, -999, -999]	n/a	FR1	0	R1138T
204.317	6.385	3450108	PROB	6.385	n/a	n/a	-999	1	[6, 1, 4]	11	FR1	0	R1138T
210.702	4.451	3456493	PROB	4.451	n/a	n/a	-999	1	[5, 5, 8]	18	FR1	0	R1138T
215.153	5.651	3460944	PROB	5.651	n/a	n/a	-999	1	[2, 7, 5]	14	FR1	0	R1138T
220.804	4.277	3466594	PROB	4.277	n/a	n/a	-999	1	[2, 1, 2]	5	FR1	0	R1138T
225.081	0.007	3470871	STOP	n/a	n/a	n/a	-999	1	[-999, -999, -999]	n/a	FR1	0	R1138T
225.088	1.187	3470878	DISTRACT_END	n/a	n/a	n/a	-999	1	[0, 0, 0]	n/a	FR1	0	R1138T
226.275	1.22	3472065	REC_START	n/a	n/a	n/a	-999	1	[0, 0, 0]	n/a	FR1	0	R1138T
227.495	1.075	3473285	REC_WORD	1.075	n/a	HOLE	-999	1	[0, 0, 0]	n/a	FR1	0	R1138T
228.57	27.712	3474360	REC_WORD	27.712	n/a	CHEEK	2	1	[0, 0, 0]	n/a	FR1	0	R1138T
256.282	10.497	3502071	REC_END	n/a	n/a	n/a	-999	1	[0, 0, 0]	n/a	FR1	0	R1138T
266.779	0.0	3512567	TRIAL	n/a	n/a	n/a	-999	2	[0, 0, 0]	n/a	FR1	0	R1138T
266.779	10.428	3512567	COUNTDOWN_START	n/a	n/a	n/a	-999	2	[0, 0, 0]	n/a	FR1	0	R1138T
277.207	0.007	3522995	COUNTDOWN_END	n/a	n/a	n/a	-999	2	[0, 0, 0]	n/a	FR1	0	R1138T
277.214	2.567	3523002	ORIENT	n/a	n/a	n/a	-999	2	[0, 0, 0]	n/a	FR1	0	R1138T
279.781	2.533	3525569	WORD	n/a	wordpools/wordpool_EN.txt	TENT	1	2	[0, 0, 0]	n/a	FR1	0	R1138T
282.314	2.568	3528101	WORD	n/a	wordpools/wordpool_EN.txt	SEA	2	2	[0, 0, 0]	n/a	FR1	0	R1138T
284.882	2.416	3530669	WORD	n/a	wordpools/wordpool_EN.txt	TOY	3	2	[0, 0, 0]	n/a	FR1	0	R1138T
287.298	2.535	3533085	WORD	n/a	wordpools/wordpool_EN.txt	HORN	4	2	[0, 0, 0]	n/a	FR1	0	R1138T
289.833	2.433	3535620	WORD	n/a	wordpools/wordpool_EN.txt	OAK	5	2	[0, 0, 0]	n/a	FR1	0	R1138T
292.266	2.501	3538053	WORD	n/a	wordpools/wordpool_EN.txt	BEACH	6	2	[0, 0, 0]	n/a	FR1	0	R1138T
294.767	2.467	3540554	WORD	n/a	wordpools/wordpool_EN.txt	ROOF	7	2	[0, 0, 0]	n/a	FR1	0	R1138T
297.234	2.618	3543021	WORD	n/a	wordpools/wordpool_EN.txt	WAVE	8	2	[0, 0, 0]	n/a	FR1	0	R1138T
299.852	2.549	3545639	WORD	n/a	wordpools/wordpool_EN.txt	BOAT	9	2	[0, 0, 0]	n/a	FR1	0	R1138T
302.401	2.401	3548187	WORD	n/a	wordpools/wordpool_EN.txt	CAVE	10	2	[0, 0, 0]	n/a	FR1	0	R1138T
304.802	2.617	3550588	WORD	n/a	wordpools/wordpool_EN.txt	SKY	11	2	[0, 0, 0]	n/a	FR1	0	R1138T
307.419	1.618	3553205	WORD	n/a	wordpools/wordpool_EN.txt	BRUSH	12	2	[0, 0, 0]	n/a	FR1	0	R1138T
309.037	0.0	3554823	DISTRACT_START	n/a	n/a	n/a	-999	2	[0, 0, 0]	n/a	FR1	0	R1138T
309.037	0.016	3554823	START	n/a	n/a	n/a	-999	2	[-999, -999, -999]	n/a	FR1	0	R1138T
309.053	4.834	3554839	PROB	4.834	n/a	n/a	-999	2	[8, 8, 1]	17	FR1	0	R1138T
313.887	11.002	3559673	PROB	11.002	n/a	n/a	-999	2	[7, 9, 8]	24	FR1	0	R1138T
324.889	3.901	3570674	PROB	3.901	n/a	n/a	-999	2	[8, 1, 1]	10	FR1	0	R1138T
328.79	8.65	3574575	PROB	8.65	n/a	n/a	-999	2	[9, 5, 4]	18	FR1	0	R1138T
337.44	0.017	3583225	STOP	n/a	n/a	n/a	-999	2	[-999, -999, -999]	n/a	FR1	0	R1138T
337.457	1.203	3583242	DISTRACT_END	n/a	n/a	n/a	-999	2	[0, 0, 0]	n/a	FR1	0	R1138T
338.66	1.366	3584445	REC_START	n/a	n/a	n/a	-999	2	[0, 0, 0]	n/a	FR1	0	R1138T
340.026	2.995	3585811	REC_WORD	2.995	n/a	POLE	-999	2	[0, 0, 0]	n/a	FR1	0	R1138T
343.021	17.699	3588805	REC_WORD	17.699	n/a	TENT	1	2	[0, 0, 0]	n/a	FR1	0	R1138T
360.72	7.95	3606504	REC_WORD	7.95	n/a	BRUSH	12	2	[0, 0, 0]	n/a	FR1	0	R1138T
368.67	4.011	3614453	REC_END	n/a	n/a	n/a	-999	2	[0, 0, 0]	n/a	FR1	0	R1138T
372.681	0.001	3618464	COUNTDOWN_START	n/a	n/a	n/a	-999	3	[0, 0, 0]	n/a	FR1	0	R1138T
372.682	10.427	3618465	TRIAL	n/a	n/a	n/a	-999	3	[0, 0, 0]	n/a	FR1	0	R1138T
383.109	0.008	3628891	COUNTDOWN_END	n/a	n/a	n/a	-999	3	[0, 0, 0]	n/a	FR1	0	R1138T
383.117	2.517	3628899	ORIENT	n/a	n/a	n/a	-999	3	[0, 0, 0]	n/a	FR1	0	R1138T
385.634	2.6	3631416	WORD	n/a	wordpools/wordpool_EN.txt	SKI	1	3	[0, 0, 0]	n/a	FR1	0	R1138T
388.234	2.434	3634016	WORD	n/a	wordpools/wordpool_EN.txt	CRANE	2	3	[0, 0, 0]	n/a	FR1	0	R1138T
390.668	2.434	3636450	WORD	n/a	wordpools/wordpool_EN.txt	OWL	3	3	[0, 0, 0]	n/a	FR1	0	R1138T
393.102	2.45	3638884	WORD	n/a	wordpools/wordpool_EN.txt	WALL	4	3	[0, 0, 0]	n/a	FR1	0	R1138T
395.552	2.534	3641334	WORD	n/a	wordpools/wordpool_EN.txt	BOOT	5	3	[0, 0, 0]	n/a	FR1	0	R1138T
398.086	2.467	3643868	WORD	n/a	wordpools/wordpool_EN.txt	SNOW	6	3	[0, 0, 0]	n/a	FR1	0	R1138T
400.553	2.401	3646335	WORD	n/a	wordpools/wordpool_EN.txt	THREAD	7	3	[0, 0, 0]	n/a	FR1	0	R1138T
402.954	2.617	3648735	WORD	n/a	wordpools/wordpool_EN.txt	HOOF	8	3	[0, 0, 0]	n/a	FR1	0	R1138T
405.571	2.417	3651352	WORD	n/a	wordpools/wordpool_EN.txt	TOE	9	3	[0, 0, 0]	n/a	FR1	0	R1138T
407.988	2.383	3653769	WORD	n/a	wordpools/wordpool_EN.txt	DOOR	10	3	[0, 0, 0]	n/a	FR1	0	R1138T
410.371	2.418	3656152	WORD	n/a	wordpools/wordpool_EN.txt	RUG	11	3	[0, 0, 0]	n/a	FR1	0	R1138T
412.789	1.616	3658570	WORD	n/a	wordpools/wordpool_EN.txt	SPRING	12	3	[0, 0, 0]	n/a	FR1	0	R1138T
414.405	0.001	3660186	DISTRACT_START	n/a	n/a	n/a	-999	3	[0, 0, 0]	n/a	FR1	0	R1138T
414.406	0.016	3660187	START	n/a	n/a	n/a	-999	3	[-999, -999, -999]	n/a	FR1	0	R1138T
414.422	7.868	3660203	PROB	7.868	n/a	n/a	-999	3	[6, 8, 3]	17	FR1	0	R1138T
422.29	7.235	3668071	PROB	7.235	n/a	n/a	-999	3	[8, 5, 1]	14	FR1	0	R1138T
429.525	9.484	3675305	PROB	9.484	n/a	n/a	-999	3	[2, 8, 9]	19	FR1	0	R1138T
439.009	0.018	3684789	STOP	n/a	n/a	n/a	-999	3	[-999, -999, -999]	n/a	FR1	0	R1138T
439.027	1.151	3684807	DISTRACT_END	n/a	n/a	n/a	-999	3	[0, 0, 0]	n/a	FR1	0	R1138T
440.178	30.0	3685958	REC_START	n/a	n/a	n/a	-999	3	[0, 0, 0]	n/a	FR1	0	R1138T
470.178	0.01	3715956	REC_WORD_VV	0.01	n/a	<>	-999	3	[0, 0, 0]	n/a	FR1	0	R1138T
470.188	3.412	3715966	REC_END	n/a	n/a	n/a	-999	3	[0, 0, 0]	n/a	FR1	0	R1138T
473.6	0.0	3719378	TRIAL	n/a	n/a	n/a	-999	4	[0, 0, 0]	n/a	FR1	0	R1138T
473.6	10.428	3719378	COUNTDOWN_START	n/a	n/a	n/a	-999	4	[0, 0, 0]	n/a	FR1	0	R1138T
484.028	0.007	3729806	COUNTDOWN_END	n/a	n/a	n/a	-999	4	[0, 0, 0]	n/a	FR1	0	R1138T
484.035	2.551	3729813	ORIENT	n/a	n/a	n/a	-999	4	[0, 0, 0]	n/a	FR1	0	R1138T
486.586	2.533	3732363	WORD	n/a	wordpools/wordpool_EN.txt	RAKE	1	4	[0, 0, 0]	n/a	FR1	0	R1138T
489.119	2.534	3734896	WORD	n/a	wordpools/wordpool_EN.txt	EAR	2	4	[0, 0, 0]	n/a	FR1	0	R1138T
491.653	2.5	3737430	WORD	n/a	wordpools/wordpool_EN.txt	HOLE	3	4	[0, 0, 0]	n/a	FR1	0	R1138T
494.153	2.601	3739930	WORD	n/a	wordpools/wordpool_EN.txt	LEG	4	4	[0, 0, 0]	n/a	FR1	0	R1138T
496.754	2.384	3742531	WORD	n/a	wordpools/wordpool_EN.txt	CORD	5	4	[0, 0, 0]	n/a	FR1	0	R1138T
499.138	2.617	3744915	WORD	n/a	wordpools/wordpool_EN.txt	YARD	6	4	[0, 0, 0]	n/a	FR1	0	R1138T
501.755	2.451	3747532	WORD	n/a	wordpools/wordpool_EN.txt	COUCH	7	4	[0, 0, 0]	n/a	FR1	0	R1138T
504.206	2.417	3749983	WORD	n/a	wordpools/wordpool_EN.txt	ROPE	8	4	[0, 0, 0]	n/a	FR1	0	R1138T
506.623	2.533	3752399	WORD	n/a	wordpools/wordpool_EN.txt	TAIL	9	4	[0, 0, 0]	n/a	FR1	0	R1138T
509.156	2.518	3754932	WORD	n/a	wordpools/wordpool_EN.txt	LAWN	10	4	[0, 0, 0]	n/a	FR1	0	R1138T
511.674	2.433	3757450	WORD	n/a	wordpools/wordpool_EN.txt	BAND	11	4	[0, 0, 0]	n/a	FR1	0	R1138T
514.107	1.617	3759883	WORD	n/a	wordpools/wordpool_EN.txt	DART	12	4	[0, 0, 0]	n/a	FR1	0	R1138T
515.724	0.001	3761500	DISTRACT_START	n/a	n/a	n/a	-999	4	[0, 0, 0]	n/a	FR1	0	R1138T
515.725	0.016	3761501	START	n/a	n/a	n/a	-999	4	[-999, -999, -999]	n/a	FR1	0	R1138T
515.741	4.733	3761517	PROB	4.733	n/a	n/a	-999	4	[5, 4, 7]	16	FR1	0	R1138T
520.474	5.652	3766250	PROB	5.652	n/a	n/a	-999	4	[4, 7, 1]	12	FR1	0	R1138T
526.126	4.35	3771901	PROB	4.35	n/a	n/a	-999	4	[5, 9, 1]	15	FR1	0	R1138T
530.476	4.602	3776251	PROB	4.602	n/a	n/a	-999	4	[4, 2, 3]	9	FR1	0	R1138T
535.078	6.226	3780853	PROB	6.226	n/a	n/a	-999	4	[8, 5, 7]	20	FR1	0	R1138T
541.304	0.007	3787079	STOP	n/a	n/a	n/a	-999	4	[-999, -999, -999]	n/a	FR1	0	R1138T
541.311	1.151	3787086	DISTRACT_END	n/a	n/a	n/a	-999	4	[0, 0, 0]	n/a	FR1	0	R1138T
542.462	1.55	3788237	REC_START	n/a	n/a	n/a	-999	4	[0, 0, 0]	n/a	FR1	0	R1138T
544.012	0.415	3789787	REC_WORD	0.415	n/a	BAND	11	4	[0, 0, 0]	n/a	FR1	0	R1138T
544.427	11.671	3790202	REC_WORD	11.671	n/a	LAWN	10	4	[0, 0, 0]	n/a	FR1	0	R1138T
556.098	16.374	3801872	REC_WORD	16.374	n/a	POLE	-999	4	[0, 0, 0]	n/a	FR1	0	R1138T
572.472	2.63	3818245	REC_END	n/a	n/a	n/a	-999	4	[0, 0, 0]	n/a	FR1	0	R1138T
575.102	0.0	3820875	COUNTDOWN_START	n/a	n/a	n/a	-999	5	[0, 0, 0]	n/a	FR1	0	R1138T
575.102	10.428	3820875	TRIAL	n/a	n/a	n/a	-999	5	[0, 0, 0]	n/a	FR1	0	R1138T
585.53	0.007	3831303	COUNTDOWN_END	n/a	n/a	n/a	-999	5	[0, 0, 0]	n/a	FR1	0	R1138T
585.537	2.6	3831310	ORIENT	n/a	n/a	n/a	-999	5	[0, 0, 0]	n/a	FR1	0	R1138T
588.137	2.434	3833909	WORD	n/a	wordpools/wordpool_EN.txt	HOOK	1	5	[0, 0, 0]	n/a	FR1	0	R1138T
590.571	2.434	3836343	WORD	n/a	wordpools/wordpool_EN.txt	SEAL	2	5	[0, 0, 0]	n/a	FR1	0	R1138T
593.005	2.617	3838777	WORD	n/a	wordpools/wordpool_EN.txt	SHRIMP	3	5	[0, 0, 0]	n/a	FR1	0	R1138T
595.622	2.534	3841394	WORD	n/a	wordpools/wordpool_EN.txt	CHAIR	4	5	[0, 0, 0]	n/a	FR1	0	R1138T
598.156	2.6	3843928	WORD	n/a	wordpools/wordpool_EN.txt	GLOVE	5	5	[0, 0, 0]	n/a	FR1	0	R1138T
600.756	2.384	3846528	WORD	n/a	wordpools/wordpool_EN.txt	GATE	6	5	[0, 0, 0]	n/a	FR1	0	R1138T
603.14	2.617	3848912	WORD	n/a	wordpools/wordpool_EN.txt	PALM	7	5	[0, 0, 0]	n/a	FR1	0	R1138T
605.757	2.6	3851529	WORD	n/a	wordpools/wordpool_EN.txt	HAT	8	5	[0, 0, 0]	n/a	FR1	0	R1138T
608.357	2.635	3854128	WORD	n/a	wordpools/wordpool_EN.txt	MOUTH	9	5	[0, 0, 0]	n/a	FR1	0	R1138T
610.992	2.416	3856763	WORD	n/a	wordpools/wordpool_EN.txt	THUMB	10	5	[0, 0, 0]	n/a	FR1	0	R1138T
613.408	2.384	3859179	WORD	n/a	wordpools/wordpool_EN.txt	BATH	11	5	[0, 0, 0]	n/a	FR1	0	R1138T
615.792	1.616	3861563	WORD	n/a	wordpools/wordpool_EN.txt	WORLD	12	5	[0, 0, 0]	n/a	FR1	0	R1138T
617.408	0.001	3863179	DISTRACT_START	n/a	n/a	n/a	-999	5	[0, 0, 0]	n/a	FR1	0	R1138T
617.409	0.016	3863180	START	n/a	n/a	n/a	-999	5	[-999, -999, -999]	n/a	FR1	0	R1138T
617.425	4.369	3863196	PROB	4.369	n/a	n/a	-999	5	[3, 2, 2]	7	FR1	0	R1138T
621.794	5.15	3867565	PROB	5.15	n/a	n/a	-999	5	[6, 8, 6]	20	FR1	0	R1138T
626.944	4.051	3872714	PROB	4.051	n/a	n/a	-999	5	[4, 2, 2]	8	FR1	0	R1138T
630.995	7.71	3876765	PROB	7.71	n/a	n/a	-999	5	[3, 5, 6]	14	FR1	0	R1138T
638.705	0.008	3884475	STOP	n/a	n/a	n/a	-999	5	[-999, -999, -999]	n/a	FR1	0	R1138T
638.713	1.201	3884483	DISTRACT_END	n/a	n/a	n/a	-999	5	[0, 0, 0]	n/a	FR1	0	R1138T
639.914	3.891	3885684	REC_START	n/a	n/a	n/a	-999	5	[0, 0, 0]	n/a	FR1	0	R1138T
643.805	7.22	3889575	REC_WORD	7.22	n/a	SHRIMP	3	5	[0, 0, 0]	n/a	FR1	0	R1138T
651.025	18.9	3896794	REC_WORD	18.9	n/a	THUMB	10	5	[0, 0, 0]	n/a	FR1	0	R1138T
669.925	2.278	3915693	REC_END	n/a	n/a	n/a	-999	5	[0, 0, 0]	n/a	FR1	0	R1138T
672.203	0.0	3917971	TRIAL	n/a	n/a	n/a	-999	6	[0, 0, 0]	n/a	FR1	0	R1138T
672.203	10.428	3917971	COUNTDOWN_START	n/a	n/a	n/a	-999	6	[0, 0, 0]	n/a	FR1	0	R1138T
682.631	0.007	3928399	COUNTDOWN_END	n/a	n/a	n/a	-999	6	[0, 0, 0]	n/a	FR1	0	R1138T
682.638	2.567	3928406	ORIENT	n/a	n/a	n/a	-999	6	[0, 0, 0]	n/a	FR1	0	R1138T
685.205	2.501	3930973	WORD	n/a	wordpools/wordpool_EN.txt	CAR	1	6	[0, 0, 0]	n/a	FR1	0	R1138T
687.706	2.566	3933474	WORD	n/a	wordpools/wordpool_EN.txt	EGG	2	6	[0, 0, 0]	n/a	FR1	0	R1138T
690.272	2.401	3936039	WORD	n/a	wordpools/wordpool_EN.txt	TOAD	3	6	[0, 0, 0]	n/a	FR1	0	R1138T
692.673	2.384	3938440	WORD	n/a	wordpools/wordpool_EN.txt	HEART	4	6	[0, 0, 0]	n/a	FR1	0	R1138T
695.057	2.467	3940824	WORD	n/a	wordpools/wordpool_EN.txt	ICE	5	6	[0, 0, 0]	n/a	FR1	0	R1138T
697.524	2.517	3943291	WORD	n/a	wordpools/wordpool_EN.txt	PLANT	6	6	[0, 0, 0]	n/a	FR1	0	R1138T
700.041	2.501	3945808	WORD	n/a	wordpools/wordpool_EN.txt	SHARK	7	6	[0, 0, 0]	n/a	FR1	0	R1138T
702.542	2.383	3948309	WORD	n/a	wordpools/wordpool_EN.txt	BOMB	8	6	[0, 0, 0]	n/a	FR1	0	R1138T
704.925	2.517	3950692	WORD	n/a	wordpools/wordpool_EN.txt	ROOT	9	6	[0, 0, 0]	n/a	FR1	0	R1138T
707.442	2.401	3953209	WORD	n/a	wordpools/wordpool_EN.txt	SHIP	10	6	[0, 0, 0]	n/a	FR1	0	R1138T
709.843	2.384	3955609	WORD	n/a	wordpools/wordpool_EN.txt	FILM	11	6	[0, 0, 0]	n/a	FR1	0	R1138T
712.227	1.617	3957993	WORD	n/a	wordpools/wordpool_EN.txt	STAR	12	6	[0, 0, 0]	n/a	FR1	0	R1138T
713.844	0.001	3959610	DISTRACT_START	n/a	n/a	n/a	-999	6	[0, 0, 0]	n/a	FR1	0	R1138T
713.845	0.015	3959611	START	n/a	n/a	n/a	-999	6	[-999, -999, -999]	n/a	FR1	0	R1138T
713.86	6.135	3959626	PROB	6.135	n/a	n/a	-999	6	[4, 1, 7]	12	FR1	0	R1138T
719.995	6.184	3965761	PROB	6.184	n/a	n/a	-999	6	[8, 7, 8]	23	FR1	0	R1138T
726.179	5.451	3971945	PROB	5.451	n/a	n/a	-999	6	[4, 7, 9]	20	FR1	0	R1138T
731.63	4.259	3977395	PROB	4.259	n/a	n/a	-999	6	[3, 3, 4]	10	FR1	0	R1138T
735.889	0.009	3981654	STOP	n/a	n/a	n/a	-999	6	[-999, -999, -999]	n/a	FR1	0	R1138T
735.898	1.051	3981663	DISTRACT_END	n/a	n/a	n/a	-999	6	[0, 0, 0]	n/a	FR1	0	R1138T
736.949	1.089	3982714	REC_START	n/a	n/a	n/a	-999	6	[0, 0, 0]	n/a	FR1	0	R1138T
738.038	1.304	3983803	REC_WORD	1.304	n/a	CAR	1	6	[0, 0, 0]	n/a	FR1	0	R1138T
739.342	3.814	3985107	REC_WORD	3.814	n/a	TOAD	3	6	[0, 0, 0]	n/a	FR1	0	R1138T
743.156	11.334	3988921	REC_WORD	11.334	n/a	EGG	2	6	[0, 0, 0]	n/a	FR1	0	R1138T
754.49	12.469	4000254	REC_WORD	12.469	n/a	SHRIMP	-999	6	[0, 0, 0]	n/a	FR1	0	R1138T
766.959	2.494	4012723	REC_END	n/a	n/a	n/a	-999	6	[0, 0, 0]	n/a	FR1	0	R1138T
769.453	0.0	4015216	COUNTDOWN_START	n/a	n/a	n/a	-999	7	[0, 0, 0]	n/a	FR1	0	R1138T
769.453	10.428	4015216	TRIAL	n/a	n/a	n/a	-999	7	[0, 0, 0]	n/a	FR1	0	R1138T
779.881	0.008	4025644	COUNTDOWN_END	n/a	n/a	n/a	-999	7	[0, 0, 0]	n/a	FR1	0	R1138T
779.889	2.416	4025652	ORIENT	n/a	n/a	n/a	-999	7	[0, 0, 0]	n/a	FR1	0	R1138T
782.305	2.385	4028068	WORD	n/a	wordpools/wordpool_EN.txt	FISH	1	7	[0, 0, 0]	n/a	FR1	0	R1138T
784.69	2.616	4030453	WORD	n/a	wordpools/wordpool_EN.txt	FUR	2	7	[0, 0, 0]	n/a	FR1	0	R1138T
787.306	2.535	4033069	WORD	n/a	wordpools/wordpool_EN.txt	SINK	3	7	[0, 0, 0]	n/a	FR1	0	R1138T
789.841	2.416	4035603	WORD	n/a	wordpools/wordpool_EN.txt	MUD	4	7	[0, 0, 0]	n/a	FR1	0	R1138T
792.257	2.435	4038019	WORD	n/a	wordpools/wordpool_EN.txt	CROW	5	7	[0, 0, 0]	n/a	FR1	0	R1138T
794.692	2.55	4040454	WORD	n/a	wordpools/wordpool_EN.txt	STICK	6	7	[0, 0, 0]	n/a	FR1	0	R1138T
797.242	2.417	4043004	WORD	n/a	wordpools/wordpool_EN.txt	WAND	7	7	[0, 0, 0]	n/a	FR1	0	R1138T
799.659	2.567	4045421	WORD	n/a	wordpools/wordpool_EN.txt	GEESE	8	7	[0, 0, 0]	n/a	FR1	0	R1138T
802.226	2.384	4047988	WORD	n/a	wordpools/wordpool_EN.txt	SNAIL	9	7	[0, 0, 0]	n/a	FR1	0	R1138T
804.61	2.617	4050372	WORD	n/a	wordpools/wordpool_EN.txt	CAGE	10	7	[0, 0, 0]	n/a	FR1	0	R1138T
807.227	2.584	4052989	WORD	n/a	wordpools/wordpool_EN.txt	ZOO	11	7	[0, 0, 0]	n/a	FR1	0	R1138T
809.811	1.616	4055573	WORD	n/a	wordpools/wordpool_EN.txt	STOOL	12	7	[0, 0, 0]	n/a	FR1	0	R1138T
811.427	0.001	4057188	DISTRACT_START	n/a	n/a	n/a	-999	7	[0, 0, 0]	n/a	FR1	0	R1138T
811.428	0.016	4057189	START	n/a	n/a	n/a	-999	7	[-999, -999, -999]	n/a	FR1	0	R1138T
811.444	4.884	4057205	PROB	4.884	n/a	n/a	-999	7	[5, 6, 2]	13	FR1	0	R1138T
816.328	6.886	4062089	PROB	6.886	n/a	n/a	-999	7	[4, 3, 7]	14	FR1	0	R1138T
823.214	9.771	4068975	PROB	9.771	n/a	n/a	-999	7	[9, 5, 8]	22	FR1	0	R1138T
832.985	0.014	4078745	STOP	n/a	n/a	n/a	-999	7	[-999, -999, -999]	n/a	FR1	0	R1138T
832.999	1.101	4078759	DISTRACT_END	n/a	n/a	n/a	-999	7	[0, 0, 0]	n/a	FR1	0	R1138T
834.1	10.797	4079860	REC_START	n/a	n/a	n/a	-999	7	[0, 0, 0]	n/a	FR1	0	R1138T
844.897	19.213	4090657	REC_WORD	19.213	n/a	ZOO	11	7	[0, 0, 0]	n/a	FR1	0	R1138T
864.11	2.645	4109869	REC_END	n/a	n/a	n/a	-999	7	[0, 0, 0]	n/a	FR1	0	R1138T
866.755	0.0	4112514	TRIAL	n/a	n/a	n/a	-999	8	[0, 0, 0]	n/a	FR1	0	R1138T
866.755	10.428	4112514	COUNTDOWN_START	n/a	n/a	n/a	-999	8	[0, 0, 0]	n/a	FR1	0	R1138T
877.183	0.007	4122941	COUNTDOWN_END	n/a	n/a	n/a	-999	8	[0, 0, 0]	n/a	FR1	0	R1138T
877.19	2.451	4122948	ORIENT	n/a	n/a	n/a	-999	8	[0, 0, 0]	n/a	FR1	0	R1138T
879.641	2.533	4125399	WORD	n/a	wordpools/wordpool_EN.txt	MULE	1	8	[0, 0, 0]	n/a	FR1	0	R1138T
882.174	2.484	4127932	WORD	n/a	wordpools/wordpool_EN.txt	HORSE	2	8	[0, 0, 0]	n/a	FR1	0	R1138T
884.658	2.451	4130416	WORD	n/a	wordpools/wordpool_EN.txt	SLIME	3	8	[0, 0, 0]	n/a	FR1	0	R1138T
887.109	2.483	4132867	WORD	n/a	wordpools/wordpool_EN.txt	STAIR	4	8	[0, 0, 0]	n/a	FR1	0	R1138T
889.592	2.534	4135350	WORD	n/a	wordpools/wordpool_EN.txt	MILK	5	8	[0, 0, 0]	n/a	FR1	0	R1138T
892.126	2.601	4137883	WORD	n/a	wordpools/wordpool_EN.txt	CLOUD	6	8	[0, 0, 0]	n/a	FR1	0	R1138T
894.727	2.566	4140484	WORD	n/a	wordpools/wordpool_EN.txt	NAIL	7	8	[0, 0, 0]	n/a	FR1	0	R1138T
897.293	2.385	4143050	WORD	n/a	wordpools/wordpool_EN.txt	RAIN	8	8	[0, 0, 0]	n/a	FR1	0	R1138T
899.678	2.582	4145435	WORD	n/a	wordpools/wordpool_EN.txt	CUP	9	8	[0, 0, 0]	n/a	FR1	0	R1138T
902.26	2.452	4148017	WORD	n/a	wordpools/wordpool_EN.txt	RICE	10	8	[0, 0, 0]	n/a	FR1	0	R1138T
904.712	2.417	4150469	WORD	n/a	wordpools/wordpool_EN.txt	FOOT	11	8	[0, 0, 0]	n/a	FR1	0	R1138T
907.129	1.617	4152886	WORD	n/a	wordpools/wordpool_EN.txt	SALT	12	8	[0, 0, 0]	n/a	FR1	0	R1138T
908.746	0.001	4154503	DISTRACT_START	n/a	n/a	n/a	-999	8	[0, 0, 0]	n/a	FR1	0	R1138T
908.747	0.016	4154504	START	n/a	n/a	n/a	-999	8	[-999, -999, -999]	n/a	FR1	0	R1138T
908.763	5.516	4154520	PROB	5.516	n/a	n/a	-999	8	[5, 8, 8]	21	FR1	0	R1138T
914.279	4.702	4160035	PROB	4.702	n/a	n/a	-999	8	[7, 4, 9]	20	FR1	0	R1138T
918.981	5.618	4164737	PROB	5.618	n/a	n/a	-999	8	[1, 9, 7]	17	FR1	0	R1138T
924.599	8.138	4170355	PROB	8.138	n/a	n/a	-999	8	[1, 4, 3]	8	FR1	0	R1138T
932.737	0.013	4178492	STOP	n/a	n/a	n/a	-999	8	[-999, -999, -999]	n/a	FR1	0	R1138T
932.75	1.167	4178505	DISTRACT_END	n/a	n/a	n/a	-999	8	[0, 0, 0]	n/a	FR1	0	R1138T
933.917	1.038	4179672	REC_START	n/a	n/a	n/a	-999	8	[0, 0, 0]	n/a	FR1	0	R1138T
934.955	0.782	4180710	REC_WORD	0.782	n/a	CAR	-999	8	[0, 0, 0]	n/a	FR1	0	R1138T
935.737	1.525	4181492	REC_WORD	1.525	n/a	RAIN	8	8	[0, 0, 0]	n/a	FR1	0	R1138T
937.262	26.669	4183017	REC_WORD	26.669	n/a	CUP	9	8	[0, 0, 0]	n/a	FR1	0	R1138T
963.931	2.225	4209685	REC_END	n/a	n/a	n/a	-999	8	[0, 0, 0]	n/a	FR1	0	R1138T
966.156	0.001	4211910	COUNTDOWN_START	n/a	n/a	n/a	-999	9	[0, 0, 0]	n/a	FR1	0	R1138T
966.157	10.427	4211911	TRIAL	n/a	n/a	n/a	-999	9	[0, 0, 0]	n/a	FR1	0	R1138T
976.584	0.007	4222337	COUNTDOWN_END	n/a	n/a	n/a	-999	9	[0, 0, 0]	n/a	FR1	0	R1138T
976.591	2.584	4222344	ORIENT	n/a	n/a	n/a	-999	9	[0, 0, 0]	n/a	FR1	0	R1138T
979.175	2.384	4224928	WORD	n/a	wordpools/wordpool_EN.txt	FLAME	1	9	[0, 0, 0]	n/a	FR1	0	R1138T
981.559	2.55	4227312	WORD	n/a	wordpools/wordpool_EN.txt	STORM	2	9	[0, 0, 0]	n/a	FR1	0	R1138T
984.109	2.534	4229862	WORD	n/a	wordpools/wordpool_EN.txt	SPARK	3	9	[0, 0, 0]	n/a	FR1	0	R1138T
986.643	2.467	4232396	WORD	n/a	wordpools/wordpool_EN.txt	PASTE	4	9	[0, 0, 0]	n/a	FR1	0	R1138T
989.11	2.518	4234863	WORD	n/a	wordpools/wordpool_EN.txt	INK	5	9	[0, 0, 0]	n/a	FR1	0	R1138T
991.628	2.533	4237381	WORD	n/a	wordpools/wordpool_EN.txt	PEAR	6	9	[0, 0, 0]	n/a	FR1	0	R1138T
994.161	2.384	4239913	WORD	n/a	wordpools/wordpool_EN.txt	BEAK	7	9	[0, 0, 0]	n/a	FR1	0	R1138T
996.545	2.434	4242297	WORD	n/a	wordpools/wordpool_EN.txt	JUICE	8	9	[0, 0, 0]	n/a	FR1	0	R1138T
998.979	2.517	4244731	WORD	n/a	wordpools/wordpool_EN.txt	FLAG	9	9	[0, 0, 0]	n/a	FR1	0	R1138T
1001.496	2.384	4247248	WORD	n/a	wordpools/wordpool_EN.txt	CLOTH	10	9	[0, 0, 0]	n/a	FR1	0	R1138T
1003.88	2.566	4249632	WORD	n/a	wordpools/wordpool_EN.txt	TANK	11	9	[0, 0, 0]	n/a	FR1	0	R1138T
1006.446	1.618	4252198	WORD	n/a	wordpools/wordpool_EN.txt	BOARD	12	9	[0, 0, 0]	n/a	FR1	0	R1138T
1008.064	0.001	4253816	DISTRACT_START	n/a	n/a	n/a	-999	9	[0, 0, 0]	n/a	FR1	0	R1138T
1008.065	0.016	4253817	START	n/a	n/a	n/a	-999	9	[-999, -999, -999]	n/a	FR1	0	R1138T
1008.081	6.366	4253833	PROB	6.366	n/a	n/a	-999	9	[8, 3, 3]	14	FR1	0	R1138T
1014.447	7.902	4260198	PROB	7.902	n/a	n/a	-999	9	[7, 2, 3]	12	FR1	0	R1138T
1022.349	6.748	4268100	PROB	6.748	n/a	n/a	-999	9	[6, 9, 7]	22	FR1	0	R1138T
1029.097	0.004	4274848	STOP	n/a	n/a	n/a	-999	9	[-999, -999, -999]	n/a	FR1	0	R1138T
1029.101	1.167	4274852	DISTRACT_END	n/a	n/a	n/a	-999	9	[0, 0, 0]	n/a	FR1	0	R1138T
1030.268	1.209	4276019	REC_START	n/a	n/a	n/a	-999	9	[0, 0, 0]	n/a	FR1	0	R1138T
1031.477	6.465	4277228	REC_WORD	6.465	n/a	STORM	2	9	[0, 0, 0]	n/a	FR1	0	R1138T
1037.942	22.336	4283692	REC_WORD	22.336	n/a	BLANK	-999	9	[0, 0, 0]	n/a	FR1	0	R1138T
1060.278	2.246	4306027	REC_END	n/a	n/a	n/a	-999	9	[0, 0, 0]	n/a	FR1	0	R1138T
1062.524	0.0	4308273	TRIAL	n/a	n/a	n/a	-999	10	[0, 0, 0]	n/a	FR1	0	R1138T
1062.524	10.428	4308273	COUNTDOWN_START	n/a	n/a	n/a	-999	10	[0, 0, 0]	n/a	FR1	0	R1138T
1072.952	0.007	4318701	COUNTDOWN_END	n/a	n/a	n/a	-999	10	[0, 0, 0]	n/a	FR1	0	R1138T
1072.959	2.383	4318708	ORIENT	n/a	n/a	n/a	-999	10	[0, 0, 0]	n/a	FR1	0	R1138T
1075.342	2.418	4321090	WORD	n/a	wordpools/wordpool_EN.txt	BOOK	1	10	[0, 0, 0]	n/a	FR1	0	R1138T
1077.76	2.499	4323508	WORD	n/a	wordpools/wordpool_EN.txt	WHEEL	2	10	[0, 0, 0]	n/a	FR1	0	R1138T
1080.259	2.552	4326007	WORD	n/a	wordpools/wordpool_EN.txt	CLOCK	3	10	[0, 0, 0]	n/a	FR1	0	R1138T
1082.811	2.466	4328559	WORD	n/a	wordpools/wordpool_EN.txt	TOOL	4	10	[0, 0, 0]	n/a	FR1	0	R1138T
1085.277	2.601	4331025	WORD	n/a	wordpools/wordpool_EN.txt	MOLE	5	10	[0, 0, 0]	n/a	FR1	0	R1138T
1087.878	2.617	4333626	WORD	n/a	wordpools/wordpool_EN.txt	RAT	6	10	[0, 0, 0]	n/a	FR1	0	R1138T
1090.495	2.584	4336243	WORD	n/a	wordpools/wordpool_EN.txt	FUDGE	7	10	[0, 0, 0]	n/a	FR1	0	R1138T
1093.079	2.568	4338827	WORD	n/a	wordpools/wordpool_EN.txt	GLASS	8	10	[0, 0, 0]	n/a	FR1	0	R1138T
1095.647	2.417	4341394	WORD	n/a	wordpools/wordpool_EN.txt	CLOWN	9	10	[0, 0, 0]	n/a	FR1	0	R1138T
1098.064	2.467	4343811	WORD	n/a	wordpools/wordpool_EN.txt	LAMP	10	10	[0, 0, 0]	n/a	FR1	0	R1138T
1100.531	2.434	4346278	WORD	n/a	wordpools/wordpool_EN.txt	JEEP	11	10	[0, 0, 0]	n/a	FR1	0	R1138T
1102.965	1.616	4348712	WORD	n/a	wordpools/wordpool_EN.txt	TRAY	12	10	[0, 0, 0]	n/a	FR1	0	R1138T
1104.581	0.001	4350328	DISTRACT_START	n/a	n/a	n/a	-999	10	[0, 0, 0]	n/a	FR1	0	R1138T
1104.582	0.016	4350329	START	n/a	n/a	n/a	-999	10	[-999, -999, -999]	n/a	FR1	0	R1138T
1104.598	7.502	4350345	PROB	7.502	n/a	n/a	-999	10	[8, 6, 3]	17	FR1	0	R1138T
1112.1	5.05	4357847	PROB	5.05	n/a	n/a	-999	10	[2, 3, 5]	10	FR1	0	R1138T
1117.15	7.117	4362896	PROB	7.117	n/a	n/a	-999	10	[1, 8, 4]	13	FR1	0	R1138T
1124.267	5.221	4370013	PROB	5.221	n/a	n/a	-999	10	[4, 2, 2]	8	FR1	0	R1138T
1129.488	0.015	4375234	STOP	n/a	n/a	n/a	-999	10	[-999, -999, -999]	n/a	FR1	0	R1138T
1129.503	1.201	4375249	DISTRACT_END	n/a	n/a	n/a	-999	10	[0, 0, 0]	n/a	FR1	0	R1138T
1130.704	1.586	4376450	REC_START	n/a	n/a	n/a	-999	10	[0, 0, 0]	n/a	FR1	0	R1138T
1132.29	1.438	4378036	REC_WORD	1.438	n/a	RAT	6	10	[0, 0, 0]	n/a	FR1	0	R1138T
1133.728	0.98	4379474	REC_WORD	0.98	n/a	FUDGE	7	10	[0, 0, 0]	n/a	FR1	0	R1138T
1134.708	26.006	4380454	REC_WORD	26.006	n/a	JEEP	11	10	[0, 0, 0]	n/a	FR1	0	R1138T
1160.714	2.111	4406458	REC_END	n/a	n/a	n/a	-999	10	[0, 0, 0]	n/a	FR1	0	R1138T
1162.825	0.001	4408569	COUNTDOWN_START	n/a	n/a	n/a	-999	11	[0, 0, 0]	n/a	FR1	0	R1138T
1162.826	10.427	4408570	TRIAL	n/a	n/a	n/a	-999	11	[0, 0, 0]	n/a	FR1	0	R1138T
1173.253	0.007	4418997	COUNTDOWN_END	n/a	n/a	n/a	-999	11	[0, 0, 0]	n/a	FR1	0	R1138T
1173.26	2.468	4419004	ORIENT	n/a	n/a	n/a	-999	11	[0, 0, 0]	n/a	FR1	0	R1138T
1175.728	2.583	4421472	WORD	n/a	wordpools/wordpool_EN.txt	DUCK	1	11	[0, 0, 0]	n/a	FR1	0	R1138T
1178.311	2.534	4424054	WORD	n/a	wordpools/wordpool_EN.txt	MUG	2	11	[0, 0, 0]	n/a	FR1	0	R1138T
1180.845	2.566	4426588	WORD	n/a	wordpools/wordpool_EN.txt	PIPE	3	11	[0, 0, 0]	n/a	FR1	0	R1138T
1183.411	2.419	4429154	WORD	n/a	wordpools/wordpool_EN.txt	APE	4	11	[0, 0, 0]	n/a	FR1	0	R1138T
1185.83	2.449	4431573	WORD	n/a	wordpools/wordpool_EN.txt	WORM	5	11	[0, 0, 0]	n/a	FR1	0	R1138T
1188.279	2.502	4434022	WORD	n/a	wordpools/wordpool_EN.txt	PLATE	6	11	[0, 0, 0]	n/a	FR1	0	R1138T
1190.781	2.566	4436524	WORD	n/a	wordpools/wordpool_EN.txt	WEB	7	11	[0, 0, 0]	n/a	FR1	0	R1138T
1193.347	2.535	4439090	WORD	n/a	wordpools/wordpool_EN.txt	DEER	8	11	[0, 0, 0]	n/a	FR1	0	R1138T
1195.882	2.582	4441625	WORD	n/a	wordpools/wordpool_EN.txt	BEAN	9	11	[0, 0, 0]	n/a	FR1	0	R1138T
1198.464	2.518	4444206	WORD	n/a	wordpools/wordpool_EN.txt	MOTH	10	11	[0, 0, 0]	n/a	FR1	0	R1138T
1200.982	2.4	4446724	WORD	n/a	wordpools/wordpool_EN.txt	SEED	11	11	[0, 0, 0]	n/a	FR1	0	R1138T
1203.382	1.618	4449124	WORD	n/a	wordpools/wordpool_EN.txt	MAT	12	11	[0, 0, 0]	n/a	FR1	0	R1138T
1205.0	0.001	4450742	DISTRACT_START	n/a	n/a	n/a	-999	11	[0, 0, 0]	n/a	FR1	0	R1138T
1205.001	0.015	4450743	START	n/a	n/a	n/a	-999	11	[-999, -999, -999]	n/a	FR1	0	R1138T
1205.016	4.968	4450758	PROB	4.968	n/a	n/a	-999	11	[2, 3, 6]	11	FR1	0	R1138T
1209.984	8.284	4455726	PROB	8.284	n/a	n/a	-999	11	[3, 6, 8]	17	FR1	0	R1138T
1218.268	6.585	4464009	PROB	6.585	n/a	n/a	-999	11	[8, 7, 6]	21	FR1	0	R1138T
1224.853	4.956	4470594	PROB	4.956	n/a	n/a	-999	11	[3, 9, 4]	16	FR1	0	R1138T
1229.809	0.012	4475550	STOP	n/a	n/a	n/a	-999	11	[-999, -999, -999]	n/a	FR1	0	R1138T
1229.821	1.101	4475562	DISTRACT_END	n/a	n/a	n/a	-999	11	[0, 0, 0]	n/a	FR1	0	R1138T
1230.922	1.123	4476663	REC_START	n/a	n/a	n/a	-999	11	[0, 0, 0]	n/a	FR1	0	R1138T
1232.045	1.285	4477786	REC_WORD	1.285	n/a	DUCK	1	11	[0, 0, 0]	n/a	FR1	0	R1138T
1233.33	2.577	4479071	REC_WORD	2.577	n/a	RAT	-999	11	[0, 0, 0]	n/a	FR1	0	R1138T
1235.907	14.662	4481648	REC_WORD	14.662	n/a	MAT	12	11	[0, 0, 0]	n/a	FR1	0	R1138T
1250.569	10.363	4496309	REC_WORD	10.363	n/a	JEEP	-999	11	[0, 0, 0]	n/a	FR1	0	R1138T
1260.932	2.494	4506671	REC_END	n/a	n/a	n/a	-999	11	[0, 0, 0]	n/a	FR1	0	R1138T
1263.426	0.0	4509165	TRIAL	n/a	n/a	n/a	-999	12	[0, 0, 0]	n/a	FR1	0	R1138T
1263.426	10.428	4509165	COUNTDOWN_START	n/a	n/a	n/a	-999	12	[0, 0, 0]	n/a	FR1	0	R1138T
1273.854	0.008	4519593	COUNTDOWN_END	n/a	n/a	n/a	-999	12	[0, 0, 0]	n/a	FR1	0	R1138T
1273.862	2.416	4519601	ORIENT	n/a	n/a	n/a	-999	12	[0, 0, 0]	n/a	FR1	0	R1138T
1276.278	2.535	4522017	WORD	n/a	wordpools/wordpool_EN.txt	SUN	1	12	[0, 0, 0]	n/a	FR1	0	R1138T
1278.813	2.6	4524551	WORD	n/a	wordpools/wordpool_EN.txt	ROOM	2	12	[0, 0, 0]	n/a	FR1	0	R1138T
1281.413	2.384	4527151	WORD	n/a	wordpools/wordpool_EN.txt	BADGE	3	12	[0, 0, 0]	n/a	FR1	0	R1138T
1283.797	2.583	4529535	WORD	n/a	wordpools/wordpool_EN.txt	BOX	4	12	[0, 0, 0]	n/a	FR1	0	R1138T
1286.38	2.568	4532118	WORD	n/a	wordpools/wordpool_EN.txt	SOAP	5	12	[0, 0, 0]	n/a	FR1	0	R1138T
1288.948	2.517	4534686	WORD	n/a	wordpools/wordpool_EN.txt	FOAM	6	12	[0, 0, 0]	n/a	FR1	0	R1138T
1291.465	2.601	4537203	WORD	n/a	wordpools/wordpool_EN.txt	SHIRT	7	12	[0, 0, 0]	n/a	FR1	0	R1138T
1294.066	2.617	4539804	WORD	n/a	wordpools/wordpool_EN.txt	BAG	8	12	[0, 0, 0]	n/a	FR1	0	R1138T
1296.683	2.566	4542421	WORD	n/a	wordpools/wordpool_EN.txt	CROWN	9	12	[0, 0, 0]	n/a	FR1	0	R1138T
1299.249	2.385	4544986	WORD	n/a	wordpools/wordpool_EN.txt	STRING	10	12	[0, 0, 0]	n/a	FR1	0	R1138T
1301.634	2.467	4547371	WORD	n/a	wordpools/wordpool_EN.txt	FAN	11	12	[0, 0, 0]	n/a	FR1	0	R1138T
1304.101	1.617	4549838	WORD	n/a	wordpools/wordpool_EN.txt	WHALE	12	12	[0, 0, 0]	n/a	FR1	0	R1138T
1305.718	0.001	4551455	DISTRACT_START	n/a	n/a	n/a	-999	12	[0, 0, 0]	n/a	FR1	0	R1138T
1305.719	0.016	4551456	START	n/a	n/a	n/a	-999	12	[-999, -999, -999]	n/a	FR1	0	R1138T
1305.735	5.351	4551472	PROB	5.351	n/a	n/a	-999	12	[8, 5, 7]	20	FR1	0	R1138T
1311.086	4.834	4556823	PROB	4.834	n/a	n/a	-999	12	[3, 4, 5]	12	FR1	0	R1138T
1315.92	2.601	4561657	PROB	2.601	n/a	n/a	-999	12	[1, 5, 5]	11	FR1	0	R1138T
1318.521	4.717	4564258	PROB	4.717	n/a	n/a	-999	12	[6, 5, 8]	19	FR1	0	R1138T
1323.238	5.932	4568974	PROB	5.932	n/a	n/a	-999	12	[7, 1, 5]	13	FR1	0	R1138T
1329.17	0.019	4574906	STOP	n/a	n/a	n/a	-999	12	[-999, -999, -999]	n/a	FR1	0	R1138T
1329.189	1.2	4574925	DISTRACT_END	n/a	n/a	n/a	-999	12	[0, 0, 0]	n/a	FR1	0	R1138T
1330.389	1.34	4576125	REC_START	n/a	n/a	n/a	-999	12	[0, 0, 0]	n/a	FR1	0	R1138T
1331.729	1.718	4577465	REC_WORD	1.718	n/a	SUN	1	12	[0, 0, 0]	n/a	FR1	0	R1138T
1333.447	9.501	4579183	REC_WORD	9.501	n/a	ROOM	2	12	[0, 0, 0]	n/a	FR1	0	R1138T
1342.948	17.452	4588683	REC_WORD	17.452	n/a	MAT	-999	12	[0, 0, 0]	n/a	FR1	0	R1138T
1360.4	2.212	4606134	REC_END	n/a	n/a	n/a	-999	12	[0, 0, 0]	n/a	FR1	0	R1138T
1362.612	0.0	4608346	TRIAL	n/a	n/a	n/a	-999	13	[0, 0, 0]	n/a	FR1	0	R1138T
1362.612	10.428	4608346	COUNTDOWN_START	n/a	n/a	n/a	-999	13	[0, 0, 0]	n/a	FR1	0	R1138T
1373.04	0.007	4618774	COUNTDOWN_END	n/a	n/a	n/a	-999	13	[0, 0, 0]	n/a	FR1	0	R1138T
1373.047	2.517	4618781	ORIENT	n/a	n/a	n/a	-999	13	[0, 0, 0]	n/a	FR1	0	R1138T
1375.564	2.617	4621298	WORD	n/a	wordpools/wordpool_EN.txt	GOLD	1	13	[0, 0, 0]	n/a	FR1	0	R1138T
1378.181	2.568	4623915	WORD	n/a	wordpools/wordpool_EN.txt	SHEEP	2	13	[0, 0, 0]	n/a	FR1	0	R1138T
1380.749	2.532	4626482	WORD	n/a	wordpools/wordpool_EN.txt	CAPE	3	13	[0, 0, 0]	n/a	FR1	0	R1138T
1383.281	2.585	4629014	WORD	n/a	wordpools/wordpool_EN.txt	MOOSE	4	13	[0, 0, 0]	n/a	FR1	0	R1138T
1385.866	2.566	4631599	WORD	n/a	wordpools/wordpool_EN.txt	TOOTH	5	13	[0, 0, 0]	n/a	FR1	0	R1138T
1388.432	2.568	4634165	WORD	n/a	wordpools/wordpool_EN.txt	TEETH	6	13	[0, 0, 0]	n/a	FR1	0	R1138T
1391.0	2.383	4636733	WORD	n/a	wordpools/wordpool_EN.txt	SAIL	7	13	[0, 0, 0]	n/a	FR1	0	R1138T
1393.383	2.452	4639116	WORD	n/a	wordpools/wordpool_EN.txt	FOX	8	13	[0, 0, 0]	n/a	FR1	0	R1138T
1395.835	2.565	4641568	WORD	n/a	wordpools/wordpool_EN.txt	LEAF	9	13	[0, 0, 0]	n/a	FR1	0	R1138T
1398.4	2.385	4644133	WORD	n/a	wordpools/wordpool_EN.txt	ANT	10	13	[0, 0, 0]	n/a	FR1	0	R1138T
1400.785	2.633	4646517	WORD	n/a	wordpools/wordpool_EN.txt	STEM	11	13	[0, 0, 0]	n/a	FR1	0	R1138T
1403.418	1.618	4649150	WORD	n/a	wordpools/wordpool_EN.txt	MOUSE	12	13	[0, 0, 0]	n/a	FR1	0	R1138T
1405.036	0.001	4650768	DISTRACT_START	n/a	n/a	n/a	-999	13	[0, 0, 0]	n/a	FR1	0	R1138T
1405.037	0.016	4650769	START	n/a	n/a	n/a	-999	13	[-999, -999, -999]	n/a	FR1	0	R1138T
1405.053	6.868	4650785	PROB	6.868	n/a	n/a	-999	13	[9, 4, 7]	20	FR1	0	R1138T
1411.921	6.718	4657653	PROB	6.718	n/a	n/a	-999	13	[8, 8, 7]	23	FR1	0	R1138T
1418.639	9.914	4664371	PROB	9.914	n/a	n/a	-999	13	[4, 8, 9]	21	FR1	0	R1138T
1428.553	0.004	4674284	STOP	n/a	n/a	n/a	-999	13	[-999, -999, -999]	n/a	FR1	0	R1138T
1428.557	1.151	4674288	DISTRACT_END	n/a	n/a	n/a	-999	13	[0, 0, 0]	n/a	FR1	0	R1138T
1429.708	1.712	4675439	REC_START	n/a	n/a	n/a	-999	13	[0, 0, 0]	n/a	FR1	0	R1138T
1431.42	5.012	4677151	REC_WORD	5.012	n/a	ANT	10	13	[0, 0, 0]	n/a	FR1	0	R1138T
1436.432	23.286	4682163	REC_WORD	23.286	n/a	MOOSE	4	13	[0, 0, 0]	n/a	FR1	0	R1138T
1459.718	2.095	4705448	REC_END	n/a	n/a	n/a	-999	13	[0, 0, 0]	n/a	FR1	0	R1138T
1461.813	0.0	4707542	TRIAL	n/a	n/a	n/a	-999	14	[0, 0, 0]	n/a	FR1	0	R1138T
1461.813	10.428	4707542	COUNTDOWN_START	n/a	n/a	n/a	-999	14	[0, 0, 0]	n/a	FR1	0	R1138T
1472.241	0.007	4717970	COUNTDOWN_END	n/a	n/a	n/a	-999	14	[0, 0, 0]	n/a	FR1	0	R1138T
1472.248	2.418	4717977	ORIENT	n/a	n/a	n/a	-999	14	[0, 0, 0]	n/a	FR1	0	R1138T
1474.666	2.5	4720395	WORD	n/a	wordpools/wordpool_EN.txt	FLEA	1	14	[0, 0, 0]	n/a	FR1	0	R1138T
1477.166	2.567	4722895	WORD	n/a	wordpools/wordpool_EN.txt	SNAKE	2	14	[0, 0, 0]	n/a	FR1	0	R1138T
1479.733	2.55	4725462	WORD	n/a	wordpools/wordpool_EN.txt	HAWK	3	14	[0, 0, 0]	n/a	FR1	0	R1138T
1482.283	2.501	4728011	WORD	n/a	wordpools/wordpool_EN.txt	BEE	4	14	[0, 0, 0]	n/a	FR1	0	R1138T
1484.784	2.5	4730512	WORD	n/a	wordpools/wordpool_EN.txt	FORK	5	14	[0, 0, 0]	n/a	FR1	0	R1138T
1487.284	2.518	4733012	WORD	n/a	wordpools/wordpool_EN.txt	BRICK	6	14	[0, 0, 0]	n/a	FR1	0	R1138T
1489.802	2.449	4735530	WORD	n/a	wordpools/wordpool_EN.txt	SHELL	7	14	[0, 0, 0]	n/a	FR1	0	R1138T
1492.251	2.535	4737979	WORD	n/a	wordpools/wordpool_EN.txt	SPONGE	8	14	[0, 0, 0]	n/a	FR1	0	R1138T
1494.786	2.583	4740514	WORD	n/a	wordpools/wordpool_EN.txt	CLAY	9	14	[0, 0, 0]	n/a	FR1	0	R1138T
1497.369	2.484	4743097	WORD	n/a	wordpools/wordpool_EN.txt	STONE	10	14	[0, 0, 0]	n/a	FR1	0	R1138T
1499.853	2.517	4745581	WORD	n/a	wordpools/wordpool_EN.txt	CUBE	11	14	[0, 0, 0]	n/a	FR1	0	R1138T
1502.37	1.618	4748097	WORD	n/a	wordpools/wordpool_EN.txt	PEACH	12	14	[0, 0, 0]	n/a	FR1	0	R1138T
1503.988	0.001	4749715	DISTRACT_START	n/a	n/a	n/a	-999	14	[0, 0, 0]	n/a	FR1	0	R1138T
1503.989	0.015	4749716	START	n/a	n/a	n/a	-999	14	[-999, -999, -999]	n/a	FR1	0	R1138T
1504.004	4.651	4749731	PROB	4.651	n/a	n/a	-999	14	[6, 3, 4]	13	FR1	0	R1138T
1508.655	3.65	4754382	PROB	3.65	n/a	n/a	-999	14	[3, 1, 3]	7	FR1	0	R1138T
1512.305	5.802	4758032	PROB	5.802	n/a	n/a	-999	14	[3, 4, 3]	10	FR1	0	R1138T
1518.107	3.316	4763834	PROB	3.316	n/a	n/a	-999	14	[8, 8, 1]	17	FR1	0	R1138T
1521.423	6.45	4767150	PROB	6.45	n/a	n/a	-999	14	[6, 4, 5]	15	FR1	0	R1138T
1527.873	0.019	4773599	STOP	n/a	n/a	n/a	-999	14	[-999, -999, -999]	n/a	FR1	0	R1138T
1527.892	1.217	4773618	DISTRACT_END	n/a	n/a	n/a	-999	14	[0, 0, 0]	n/a	FR1	0	R1138T
1529.109	0.918	4774835	REC_START	n/a	n/a	n/a	-999	14	[0, 0, 0]	n/a	FR1	0	R1138T
1530.027	1.269	4775753	REC_WORD	1.269	n/a	FLEA	1	14	[0, 0, 0]	n/a	FR1	0	R1138T
1531.296	1.743	4777022	REC_WORD	1.743	n/a	SNAKE	2	14	[0, 0, 0]	n/a	FR1	0	R1138T
1533.039	26.084	4778765	REC_WORD	26.084	n/a	HAWK	3	14	[0, 0, 0]	n/a	FR1	0	R1138T
1559.123	2.392	4804848	REC_END	n/a	n/a	n/a	-999	14	[0, 0, 0]	n/a	FR1	0	R1138T
1561.515	0.0	4807240	TRIAL	n/a	n/a	n/a	-999	15	[0, 0, 0]	n/a	FR1	0	R1138T
1561.515	10.428	4807240	COUNTDOWN_START	n/a	n/a	n/a	-999	15	[0, 0, 0]	n/a	FR1	0	R1138T
1571.943	0.007	4817667	COUNTDOWN_END	n/a	n/a	n/a	-999	15	[0, 0, 0]	n/a	FR1	0	R1138T
1571.95	2.466	4817674	ORIENT	n/a	n/a	n/a	-999	15	[0, 0, 0]	n/a	FR1	0	R1138T
1574.416	2.418	4820140	WORD	n/a	wordpools/wordpool_EN.txt	BOWL	1	15	[0, 0, 0]	n/a	FR1	0	R1138T
1576.834	2.466	4822558	WORD	n/a	wordpools/wordpool_EN.txt	CART	2	15	[0, 0, 0]	n/a	FR1	0	R1138T
1579.3	2.385	4825024	WORD	n/a	wordpools/wordpool_EN.txt	LOCK	3	15	[0, 0, 0]	n/a	FR1	0	R1138T
1581.685	2.616	4827409	WORD	n/a	wordpools/wordpool_EN.txt	PEA	4	15	[0, 0, 0]	n/a	FR1	0	R1138T
1584.301	2.602	4830024	WORD	n/a	wordpools/wordpool_EN.txt	BROOM	5	15	[0, 0, 0]	n/a	FR1	0	R1138T
1586.903	2.582	4832626	WORD	n/a	wordpools/wordpool_EN.txt	FLOOR	6	15	[0, 0, 0]	n/a	FR1	0	R1138T
1589.485	2.485	4835208	WORD	n/a	wordpools/wordpool_EN.txt	BENCH	7	15	[0, 0, 0]	n/a	FR1	0	R1138T
1591.97	2.483	4837693	WORD	n/a	wordpools/wordpool_EN.txt	CHIN	8	15	[0, 0, 0]	n/a	FR1	0	R1138T
1594.453	2.435	4840176	WORD	n/a	wordpools/wordpool_EN.txt	TEA	9	15	[0, 0, 0]	n/a	FR1	0	R1138T
1596.888	2.433	4842611	WORD	n/a	wordpools/wordpool_EN.txt	SUIT	10	15	[0, 0, 0]	n/a	FR1	0	R1138T
1599.321	2.601	4845044	WORD	n/a	wordpools/wordpool_EN.txt	BED	11	15	[0, 0, 0]	n/a	FR1	0	R1138T
1601.922	1.617	4847645	WORD	n/a	wordpools/wordpool_EN.txt	POOL	12	15	[0, 0, 0]	n/a	FR1	0	R1138T
1603.539	0.001	4849262	DISTRACT_START	n/a	n/a	n/a	-999	15	[0, 0, 0]	n/a	FR1	0	R1138T
1603.54	0.016	4849263	START	n/a	n/a	n/a	-999	15	[-999, -999, -999]	n/a	FR1	0	R1138T
1603.556	4.617	4849279	PROB	4.617	n/a	n/a	-999	15	[9, 7, 2]	18	FR1	0	R1138T
1608.173	6.368	4853895	PROB	6.368	n/a	n/a	-999	15	[8, 9, 5]	22	FR1	0	R1138T
1614.541	3.9	4860263	PROB	3.9	n/a	n/a	-999	15	[4, 5, 3]	13	FR1	0	R1138T
1618.441	6.871	4864163	PROB	6.871	n/a	n/a	-999	15	[3, 7, 1]	11	FR1	0	R1138T
1625.312	0.013	4871033	STOP	n/a	n/a	n/a	-999	15	[-999, -999, -999]	n/a	FR1	0	R1138T
1625.325	1.169	4871046	DISTRACT_END	n/a	n/a	n/a	-999	15	[0, 0, 0]	n/a	FR1	0	R1138T
1626.494	1.025	4872215	REC_START	n/a	n/a	n/a	-999	15	[0, 0, 0]	n/a	FR1	0	R1138T
1627.519	0.735	4873240	REC_WORD	0.735	n/a	POOL	12	15	[0, 0, 0]	n/a	FR1	0	R1138T
1628.254	9.867	4873975	REC_WORD	9.867	n/a	SUIT	10	15	[0, 0, 0]	n/a	FR1	0	R1138T
1638.121	18.383	4883842	REC_WORD	18.383	n/a	BROOM	5	15	[0, 0, 0]	n/a	FR1	0	R1138T
1656.504	2.245	4902224	REC_END	n/a	n/a	n/a	-999	15	[0, 0, 0]	n/a	FR1	0	R1138T
1658.749	0.0	4904469	TRIAL	n/a	n/a	n/a	-999	16	[0, 0, 0]	n/a	FR1	0	R1138T
1658.749	10.428	4904469	COUNTDOWN_START	n/a	n/a	n/a	-999	16	[0, 0, 0]	n/a	FR1	0	R1138T
1669.177	0.007	4914896	COUNTDOWN_END	n/a	n/a	n/a	-999	16	[0, 0, 0]	n/a	FR1	0	R1138T
1669.184	2.434	4914903	ORIENT	n/a	n/a	n/a	-999	16	[0, 0, 0]	n/a	FR1	0	R1138T
1671.618	2.467	4917337	WORD	n/a	wordpools/wordpool_EN.txt	CORN	1	16	[0, 0, 0]	n/a	FR1	0	R1138T
1674.085	2.417	4919804	WORD	n/a	wordpools/wordpool_EN.txt	STRAW	2	16	[0, 0, 0]	n/a	FR1	0	R1138T
1676.502	2.551	4922221	WORD	n/a	wordpools/wordpool_EN.txt	STEAK	3	16	[0, 0, 0]	n/a	FR1	0	R1138T
1679.053	2.517	4924772	WORD	n/a	wordpools/wordpool_EN.txt	STOVE	4	16	[0, 0, 0]	n/a	FR1	0	R1138T
1681.57	2.534	4927289	WORD	n/a	wordpools/wordpool_EN.txt	COW	5	16	[0, 0, 0]	n/a	FR1	0	R1138T
1684.104	2.584	4929823	WORD	n/a	wordpools/wordpool_EN.txt	PANTS	6	16	[0, 0, 0]	n/a	FR1	0	R1138T
1686.688	2.55	4932406	WORD	n/a	wordpools/wordpool_EN.txt	BARN	7	16	[0, 0, 0]	n/a	FR1	0	R1138T
1689.238	2.551	4934956	WORD	n/a	wordpools/wordpool_EN.txt	PURSE	8	16	[0, 0, 0]	n/a	FR1	0	R1138T
1691.789	2.433	4937507	WORD	n/a	wordpools/wordpool_EN.txt	SEAT	9	16	[0, 0, 0]	n/a	FR1	0	R1138T
1694.222	2.467	4939940	WORD	n/a	wordpools/wordpool_EN.txt	GUARD	10	16	[0, 0, 0]	n/a	FR1	0	R1138T
1696.689	2.401	4942407	WORD	n/a	wordpools/wordpool_EN.txt	PEN	11	16	[0, 0, 0]	n/a	FR1	0	R1138T
1699.09	1.617	4944808	WORD	n/a	wordpools/wordpool_EN.txt	RIB	12	16	[0, 0, 0]	n/a	FR1	0	R1138T
1700.707	0.0	4946425	DISTRACT_START	n/a	n/a	n/a	-999	16	[0, 0, 0]	n/a	FR1	0	R1138T
1700.707	0.016	4946425	START	n/a	n/a	n/a	-999	16	[-999, -999, -999]	n/a	FR1	0	R1138T
1700.723	8.269	4946441	PROB	8.269	n/a	n/a	-999	16	[1, 6, 8]	15	FR1	0	R1138T
1708.992	7.768	4954709	PROB	7.768	n/a	n/a	-999	16	[9, 9, 8]	26	FR1	0	R1138T
1716.76	9.121	4962477	PROB	9.121	n/a	n/a	-999	16	[6, 7, 6]	17	FR1	0	R1138T
1725.881	0.014	4971598	STOP	n/a	n/a	n/a	-999	16	[-999, -999, -999]	n/a	FR1	0	R1138T
1725.895	1.117	4971612	DISTRACT_END	n/a	n/a	n/a	-999	16	[0, 0, 0]	n/a	FR1	0	R1138T
1727.012	3.651	4972728	REC_START	n/a	n/a	n/a	-999	16	[0, 0, 0]	n/a	FR1	0	R1138T
1730.663	6.006	4976379	REC_WORD	6.006	n/a	HAND	-999	16	[0, 0, 0]	n/a	FR1	0	R1138T
1736.669	20.357	4982385	REC_WORD	20.357	n/a	BENCH	-999	16	[0, 0, 0]	n/a	FR1	0	R1138T
1757.026	2.457	5002741	REC_END	n/a	n/a	n/a	-999	16	[0, 0, 0]	n/a	FR1	0	R1138T
1759.483	0.0	5005198	TRIAL	n/a	n/a	n/a	-999	17	[0, 0, 0]	n/a	FR1	0	R1138T
1759.483	10.428	5005198	COUNTDOWN_START	n/a	n/a	n/a	-999	17	[0, 0, 0]	n/a	FR1	0	R1138T
1769.911	0.008	5015625	COUNTDOWN_END	n/a	n/a	n/a	-999	17	[0, 0, 0]	n/a	FR1	0	R1138T
1769.919	2.533	5015633	ORIENT	n/a	n/a	n/a	-999	17	[0, 0, 0]	n/a	FR1	0	R1138T
1772.452	2.468	5018166	WORD	n/a	wordpools/wordpool_EN.txt	JET	1	17	[0, 0, 0]	n/a	FR1	0	R1138T
1774.92	2.617	5020634	WORD	n/a	wordpools/wordpool_EN.txt	PLANE	2	17	[0, 0, 0]	n/a	FR1	0	R1138T
1777.537	2.401	5023251	WORD	n/a	wordpools/wordpool_EN.txt	OAR	3	17	[0, 0, 0]	n/a	FR1	0	R1138T
1779.938	2.584	5025652	WORD	n/a	wordpools/wordpool_EN.txt	SHEET	4	17	[0, 0, 0]	n/a	FR1	0	R1138T
1782.522	2.55	5028236	WORD	n/a	wordpools/wordpool_EN.txt	TRAIN	5	17	[0, 0, 0]	n/a	FR1	0	R1138T
1785.072	2.4	5030786	WORD	n/a	wordpools/wordpool_EN.txt	PEARL	6	17	[0, 0, 0]	n/a	FR1	0	R1138T
1787.472	2.618	5033185	WORD	n/a	wordpools/wordpool_EN.txt	BANK	7	17	[0, 0, 0]	n/a	FR1	0	R1138T
1790.09	2.382	5035803	WORD	n/a	wordpools/wordpool_EN.txt	STEAM	8	17	[0, 0, 0]	n/a	FR1	0	R1138T
1792.472	2.485	5038185	WORD	n/a	wordpools/wordpool_EN.txt	STORE	9	17	[0, 0, 0]	n/a	FR1	0	R1138T
1794.957	2.466	5040670	WORD	n/a	wordpools/wordpool_EN.txt	MAIL	10	17	[0, 0, 0]	n/a	FR1	0	R1138T
1797.423	2.502	5043136	WORD	n/a	wordpools/wordpool_EN.txt	CASH	11	17	[0, 0, 0]	n/a	FR1	0	R1138T
1799.925	1.617	5045638	WORD	n/a	wordpools/wordpool_EN.txt	SCHOOL	12	17	[0, 0, 0]	n/a	FR1	0	R1138T
1801.542	0.001	5047255	DISTRACT_START	n/a	n/a	n/a	-999	17	[0, 0, 0]	n/a	FR1	0	R1138T
1801.543	0.015	5047256	START	n/a	n/a	n/a	-999	17	[-999, -999, -999]	n/a	FR1	0	R1138T
1801.558	4.101	5047271	PROB	4.101	n/a	n/a	-999	17	[8, 2, 2]	12	FR1	0	R1138T
1805.659	7.285	5051372	PROB	7.285	n/a	n/a	-999	17	[5, 7, 4]	16	FR1	0	R1138T
1812.944	6.151	5058656	PROB	6.151	n/a	n/a	-999	17	[7, 1, 4]	12	FR1	0	R1138T
1819.095	4.962	5064807	PROB	4.962	n/a	n/a	-999	17	[1, 4, 3]	8	FR1	0	R1138T
1824.057	0.006	5069769	STOP	n/a	n/a	n/a	-999	17	[-999, -999, -999]	n/a	FR1	0	R1138T
1824.063	1.167	5069775	DISTRACT_END	n/a	n/a	n/a	-999	17	[0, 0, 0]	n/a	FR1	0	R1138T
1825.23	1.078	5070942	REC_START	n/a	n/a	n/a	-999	17	[0, 0, 0]	n/a	FR1	0	R1138T
1826.308	0.903	5072020	REC_WORD	0.903	n/a	MONEY	-999	17	[0, 0, 0]	n/a	FR1	0	R1138T
1827.211	3.202	5072923	REC_WORD	3.202	n/a	MAIL	10	17	[0, 0, 0]	n/a	FR1	0	R1138T
1830.413	19.78	5076124	REC_WORD	19.78	n/a	STEAM	8	17	[0, 0, 0]	n/a	FR1	0	R1138T
1850.193	5.047	5095903	REC_WORD	5.047	n/a	BENCH	-999	17	[0, 0, 0]	n/a	FR1	0	R1138T
1855.24	2.211	5100950	REC_END	n/a	n/a	n/a	-999	17	[0, 0, 0]	n/a	FR1	0	R1138T
1857.451	0.0	5103161	TRIAL	n/a	n/a	n/a	-999	18	[0, 0, 0]	n/a	FR1	0	R1138T
1857.451	10.428	5103161	COUNTDOWN_START	n/a	n/a	n/a	-999	18	[0, 0, 0]	n/a	FR1	0	R1138T
1867.879	0.008	5113589	COUNTDOWN_END	n/a	n/a	n/a	-999	18	[0, 0, 0]	n/a	FR1	0	R1138T
1867.887	2.5	5113597	ORIENT	n/a	n/a	n/a	-999	18	[0, 0, 0]	n/a	FR1	0	R1138T
1870.387	2.468	5116096	WORD	n/a	wordpools/wordpool_EN.txt	WOLF	1	18	[0, 0, 0]	n/a	FR1	0	R1138T
1872.855	2.616	5118564	WORD	n/a	wordpools/wordpool_EN.txt	SPOON	2	18	[0, 0, 0]	n/a	FR1	0	R1138T
1875.471	2.568	5121180	WORD	n/a	wordpools/wordpool_EN.txt	FOOD	3	18	[0, 0, 0]	n/a	FR1	0	R1138T
1878.039	2.617	5123748	WORD	n/a	wordpools/wordpool_EN.txt	KITE	4	18	[0, 0, 0]	n/a	FR1	0	R1138T
1880.656	2.451	5126365	WORD	n/a	wordpools/wordpool_EN.txt	PIG	5	18	[0, 0, 0]	n/a	FR1	0	R1138T
1883.107	2.583	5128816	WORD	n/a	wordpools/wordpool_EN.txt	WOOD	6	18	[0, 0, 0]	n/a	FR1	0	R1138T
1885.69	2.567	5131399	WORD	n/a	wordpools/wordpool_EN.txt	PET	7	18	[0, 0, 0]	n/a	FR1	0	R1138T
1888.257	2.401	5133966	WORD	n/a	wordpools/wordpool_EN.txt	BRANCH	8	18	[0, 0, 0]	n/a	FR1	0	R1138T
1890.658	2.451	5136366	WORD	n/a	wordpools/wordpool_EN.txt	BEAR	9	18	[0, 0, 0]	n/a	FR1	0	R1138T
1893.109	2.467	5138817	WORD	n/a	wordpools/wordpool_EN.txt	FRUIT	10	18	[0, 0, 0]	n/a	FR1	0	R1138T
1895.576	2.583	5141284	WORD	n/a	wordpools/wordpool_EN.txt	TREE	11	18	[0, 0, 0]	n/a	FR1	0	R1138T
1898.159	1.617	5143867	WORD	n/a	wordpools/wordpool_EN.txt	CHIEF	12	18	[0, 0, 0]	n/a	FR1	0	R1138T
1899.776	0.001	5145484	DISTRACT_START	n/a	n/a	n/a	-999	18	[0, 0, 0]	n/a	FR1	0	R1138T
1899.777	0.016	5145485	START	n/a	n/a	n/a	-999	18	[-999, -999, -999]	n/a	FR1	0	R1138T
1899.793	4.067	5145501	PROB	4.067	n/a	n/a	-999	18	[9, 9, 1]	19	FR1	0	R1138T
1903.86	4.001	5149568	PROB	4.001	n/a	n/a	-999	18	[1, 5, 1]	7	FR1	0	R1138T
1907.861	6.835	5153569	PROB	6.835	n/a	n/a	-999	18	[6, 6, 5]	17	FR1	0	R1138T
1914.696	4.583	5160403	PROB	4.583	n/a	n/a	-999	18	[7, 7, 7]	21	FR1	0	R1138T
1919.279	4.354	5164986	PROB	4.354	n/a	n/a	-999	18	[6, 5, 5]	16	FR1	0	R1138T
1923.633	0.014	5169340	STOP	n/a	n/a	n/a	-999	18	[-999, -999, -999]	n/a	FR1	0	R1138T
1923.647	1.118	5169354	DISTRACT_END	n/a	n/a	n/a	-999	18	[0, 0, 0]	n/a	FR1	0	R1138T
1924.765	1.209	5170472	REC_START	n/a	n/a	n/a	-999	18	[0, 0, 0]	n/a	FR1	0	R1138T
1925.974	1.032	5171681	REC_WORD	1.032	n/a	BEAR	9	18	[0, 0, 0]	n/a	FR1	0	R1138T
1927.006	8.179	5172713	REC_WORD	8.179	n/a	FRUIT	10	18	[0, 0, 0]	n/a	FR1	0	R1138T
1935.185	19.59	5180891	REC_WORD	19.59	n/a	CHIEF	12	18	[0, 0, 0]	n/a	FR1	0	R1138T
1954.775	2.128	5200480	REC_END	n/a	n/a	n/a	-999	18	[0, 0, 0]	n/a	FR1	0	R1138T
1956.903	0.001	5202608	COUNTDOWN_START	n/a	n/a	n/a	-999	19	[0, 0, 0]	n/a	FR1	0	R1138T
1956.904	10.427	5202609	TRIAL	n/a	n/a	n/a	-999	19	[0, 0, 0]	n/a	FR1	0	R1138T
1967.331	0.007	5213036	COUNTDOWN_END	n/a	n/a	n/a	-999	19	[0, 0, 0]	n/a	FR1	0	R1138T
1967.338	2.501	5213043	ORIENT	n/a	n/a	n/a	-999	19	[0, 0, 0]	n/a	FR1	0	R1138T
1969.839	2.5	5215544	WORD	n/a	wordpools/wordpool_EN.txt	GRASS	1	19	[0, 0, 0]	n/a	FR1	0	R1138T
1972.339	2.568	5218043	WORD	n/a	wordpools/wordpool_EN.txt	MOON	2	19	[0, 0, 0]	n/a	FR1	0	R1138T
1974.907	2.532	5220611	WORD	n/a	wordpools/wordpool_EN.txt	SLUSH	3	19	[0, 0, 0]	n/a	FR1	0	R1138T
1977.439	2.435	5223143	WORD	n/a	wordpools/wordpool_EN.txt	NEST	4	19	[0, 0, 0]	n/a	FR1	0	R1138T
1979.874	2.483	5225578	WORD	n/a	wordpools/wordpool_EN.txt	BALL	5	19	[0, 0, 0]	n/a	FR1	0	R1138T
1982.357	2.402	5228061	WORD	n/a	wordpools/wordpool_EN.txt	GOAT	6	19	[0, 0, 0]	n/a	FR1	0	R1138T
1984.759	2.616	5230463	WORD	n/a	wordpools/wordpool_EN.txt	BIRD	7	19	[0, 0, 0]	n/a	FR1	0	R1138T
1987.375	2.534	5233079	WORD	n/a	wordpools/wordpool_EN.txt	VINE	8	19	[0, 0, 0]	n/a	FR1	0	R1138T
1989.909	2.517	5235613	WORD	n/a	wordpools/wordpool_EN.txt	PRINCE	9	19	[0, 0, 0]	n/a	FR1	0	R1138T
1992.426	2.584	5238129	WORD	n/a	wordpools/wordpool_EN.txt	BAT	10	19	[0, 0, 0]	n/a	FR1	0	R1138T
1995.01	2.466	5240713	WORD	n/a	wordpools/wordpool_EN.txt	CAT	11	19	[0, 0, 0]	n/a	FR1	0	R1138T
1997.476	1.602	5243179	WORD	n/a	wordpools/wordpool_EN.txt	NET	12	19	[0, 0, 0]	n/a	FR1	0	R1138T
1999.078	0.001	5244781	DISTRACT_START	n/a	n/a	n/a	-999	19	[0, 0, 0]	n/a	FR1	0	R1138T
1999.079	0.016	5244782	START	n/a	n/a	n/a	-999	19	[-999, -999, -999]	n/a	FR1	0	R1138T
1999.095	4.65	5244798	PROB	4.65	n/a	n/a	-999	19	[4, 3, 1]	8	FR1	0	R1138T
2003.745	3.55	5249448	PROB	3.55	n/a	n/a	-999	19	[7, 1, 6]	12	FR1	0	R1138T
2007.295	4.885	5252998	PROB	4.885	n/a	n/a	-999	19	[8, 2, 7]	17	FR1	0	R1138T
2012.18	4.751	5257882	PROB	4.751	n/a	n/a	-999	19	[9, 7, 4]	20	FR1	0	R1138T
2016.931	3.974	5262633	PROB	3.974	n/a	n/a	-999	19	[1, 5, 2]	8	FR1	0	R1138T
2020.905	0.01	5266607	STOP	n/a	n/a	n/a	-999	19	[-999, -999, -999]	n/a	FR1	0	R1138T
2020.915	1.185	5266617	DISTRACT_END	n/a	n/a	n/a	-999	19	[0, 0, 0]	n/a	FR1	0	R1138T
2022.1	2.136	5267802	REC_START	n/a	n/a	n/a	-999	19	[0, 0, 0]	n/a	FR1	0	R1138T
2024.236	20.873	5269938	REC_WORD	20.873	n/a	NET	12	19	[0, 0, 0]	n/a	FR1	0	R1138T
2045.109	7.001	5290810	REC_WORD	7.001	n/a	BEAR	-999	19	[0, 0, 0]	n/a	FR1	0	R1138T
2052.11	2.377	5297810	REC_END	n/a	n/a	n/a	-999	19	[0, 0, 0]	n/a	FR1	0	R1138T
2054.487	0.0	5300187	TRIAL	n/a	n/a	n/a	-999	20	[0, 0, 0]	n/a	FR1	0	R1138T
2054.487	10.428	5300187	COUNTDOWN_START	n/a	n/a	n/a	-999	20	[0, 0, 0]	n/a	FR1	0	R1138T
2064.915	0.008	5310615	COUNTDOWN_END	n/a	n/a	n/a	-999	20	[0, 0, 0]	n/a	FR1	0	R1138T
2064.923	2.466	5310623	ORIENT	n/a	n/a	n/a	-999	20	[0, 0, 0]	n/a	FR1	0	R1138T
2067.389	2.602	5313089	WORD	n/a	wordpools/wordpool_EN.txt	VEST	1	20	[0, 0, 0]	n/a	FR1	0	R1138T
2069.991	2.534	5315691	WORD	n/a	wordpools/wordpool_EN.txt	CANE	2	20	[0, 0, 0]	n/a	FR1	0	R1138T
2072.525	2.4	5318224	WORD	n/a	wordpools/wordpool_EN.txt	DRESS	3	20	[0, 0, 0]	n/a	FR1	0	R1138T
2074.925	2.6	5320624	WORD	n/a	wordpools/wordpool_EN.txt	BLUSH	4	20	[0, 0, 0]	n/a	FR1	0	R1138T
2077.525	2.584	5323224	WORD	n/a	wordpools/wordpool_EN.txt	BLOOM	5	20	[0, 0, 0]	n/a	FR1	0	R1138T
2080.109	2.551	5325808	WORD	n/a	wordpools/wordpool_EN.txt	LIP	6	20	[0, 0, 0]	n/a	FR1	0	R1138T
2082.66	2.434	5328359	WORD	n/a	wordpools/wordpool_EN.txt	AXE	7	20	[0, 0, 0]	n/a	FR1	0	R1138T
2085.094	2.583	5330793	WORD	n/a	wordpools/wordpool_EN.txt	TIE	8	20	[0, 0, 0]	n/a	FR1	0	R1138T
2087.677	2.467	5333376	WORD	n/a	wordpools/wordpool_EN.txt	SOCK	9	20	[0, 0, 0]	n/a	FR1	0	R1138T
2090.144	2.534	5335843	WORD	n/a	wordpools/wordpool_EN.txt	POND	10	20	[0, 0, 0]	n/a	FR1	0	R1138T
2092.678	2.451	5338377	WORD	n/a	wordpools/wordpool_EN.txt	HAND	11	20	[0, 0, 0]	n/a	FR1	0	R1138T
2095.129	1.617	5340827	WORD	n/a	wordpools/wordpool_EN.txt	VASE	12	20	[0, 0, 0]	n/a	FR1	0	R1138T
2096.746	0.001	5342444	DISTRACT_START	n/a	n/a	n/a	-999	20	[0, 0, 0]	n/a	FR1	0	R1138T
2096.747	0.015	5342445	START	n/a	n/a	n/a	-999	20	[-999, -999, -999]	n/a	FR1	0	R1138T
2096.762	4.617	5342460	PROB	4.617	n/a	n/a	-999	20	[8, 2, 5]	15	FR1	0	R1138T
2101.379	4.152	5347077	PROB	4.152	n/a	n/a	-999	20	[7, 7, 2]	16	FR1	0	R1138T
2105.531	10.035	5351229	PROB	10.035	n/a	n/a	-999	20	[4, 9, 8]	21	FR1	0	R1138T
2115.566	6.203	5361263	PROB	6.203	n/a	n/a	-999	20	[7, 8, 4]	19	FR1	0	R1138T
2121.769	0.015	5367466	STOP	n/a	n/a	n/a	-999	20	[-999, -999, -999]	n/a	FR1	0	R1138T
2121.784	1.05	5367481	DISTRACT_END	n/a	n/a	n/a	-999	20	[0, 0, 0]	n/a	FR1	0	R1138T
2122.834	0.886	5368531	REC_START	n/a	n/a	n/a	-999	20	[0, 0, 0]	n/a	FR1	0	R1138T
2123.72	0.603	5369417	REC_WORD	0.603	n/a	TIE	8	20	[0, 0, 0]	n/a	FR1	0	R1138T
2124.323	28.525	5370020	REC_WORD	28.525	n/a	SOCK	9	20	[0, 0, 0]	n/a	FR1	0	R1138T
2152.848	13.16	5398544	REC_END	n/a	n/a	n/a	-999	20	[0, 0, 0]	n/a	FR1	0	R1138T
2166.008	0.0	5411703	TRIAL	n/a	n/a	n/a	-999	21	[0, 0, 0]	n/a	FR1	0	R1138T
2166.008	10.428	5411703	COUNTDOWN_START	n/a	n/a	n/a	-999	21	[0, 0, 0]	n/a	FR1	0	R1138T
2176.436	0.007	5422130	COUNTDOWN_END	n/a	n/a	n/a	-999	21	[0, 0, 0]	n/a	FR1	0	R1138T
2176.443	2.584	5422137	ORIENT	n/a	n/a	n/a	-999	21	[0, 0, 0]	n/a	FR1	0	R1138T
2179.027	2.517	5424721	WORD	n/a	wordpools/wordpool_EN.txt	ROAD	1	21	[0, 0, 0]	n/a	FR1	0	R1138T
2181.544	2.551	5427238	WORD	n/a	wordpools/wordpool_EN.txt	DOG	2	21	[0, 0, 0]	n/a	FR1	0	R1138T
2184.095	2.517	5429789	WORD	n/a	wordpools/wordpool_EN.txt	SKUNK	3	21	[0, 0, 0]	n/a	FR1	0	R1138T
2186.612	2.517	5432306	WORD	n/a	wordpools/wordpool_EN.txt	FOG	4	21	[0, 0, 0]	n/a	FR1	0	R1138T
2189.129	2.534	5434823	WORD	n/a	wordpools/wordpool_EN.txt	HEN	5	21	[0, 0, 0]	n/a	FR1	0	R1138T
2191.663	2.55	5437357	WORD	n/a	wordpools/wordpool_EN.txt	LAMB	6	21	[0, 0, 0]	n/a	FR1	0	R1138T
2194.213	2.584	5439907	WORD	n/a	wordpools/wordpool_EN.txt	FARM	7	21	[0, 0, 0]	n/a	FR1	0	R1138T
2196.797	2.633	5442490	WORD	n/a	wordpools/wordpool_EN.txt	EEL	8	21	[0, 0, 0]	n/a	FR1	0	R1138T
2199.43	2.485	5445123	WORD	n/a	wordpools/wordpool_EN.txt	CALF	9	21	[0, 0, 0]	n/a	FR1	0	R1138T
2201.915	2.532	5447608	WORD	n/a	wordpools/wordpool_EN.txt	TRUCK	10	21	[0, 0, 0]	n/a	FR1	0	R1138T
2204.447	2.569	5450140	WORD	n/a	wordpools/wordpool_EN.txt	VAN	11	21	[0, 0, 0]	n/a	FR1	0	R1138T
2207.016	1.617	5452709	WORD	n/a	wordpools/wordpool_EN.txt	BRIDGE	12	21	[0, 0, 0]	n/a	FR1	0	R1138T
2208.633	0.001	5454326	DISTRACT_START	n/a	n/a	n/a	-999	21	[0, 0, 0]	n/a	FR1	0	R1138T
2208.634	0.015	5454327	START	n/a	n/a	n/a	-999	21	[-999, -999, -999]	n/a	FR1	0	R1138T
2208.649	5.817	5454342	PROB	5.817	n/a	n/a	-999	21	[5, 7, 8]	20	FR1	0	R1138T
2214.466	4.602	5460159	PROB	4.602	n/a	n/a	-999	21	[1, 9, 4]	14	FR1	0	R1138T
2219.068	4.934	5464760	PROB	4.934	n/a	n/a	-999	21	[7, 8, 6]	21	FR1	0	R1138T
2224.002	4.134	5469694	PROB	4.134	n/a	n/a	-999	21	[9, 9, 4]	22	FR1	0	R1138T
2228.136	6.625	5473828	PROB	6.625	n/a	n/a	-999	21	[3, 7, 6]	16	FR1	0	R1138T
2234.761	0.01	5480453	STOP	n/a	n/a	n/a	-999	21	[-999, -999, -999]	n/a	FR1	0	R1138T
2234.771	1.218	5480463	DISTRACT_END	n/a	n/a	n/a	-999	21	[0, 0, 0]	n/a	FR1	0	R1138T
2235.989	1.133	5481680	REC_START	n/a	n/a	n/a	-999	21	[0, 0, 0]	n/a	FR1	0	R1138T
2237.122	1.324	5482813	REC_WORD	1.324	n/a	ROAD	1	21	[0, 0, 0]	n/a	FR1	0	R1138T
2238.446	0.424	5484137	REC_WORD	0.424	n/a	DOG	2	21	[0, 0, 0]	n/a	FR1	0	R1138T
2238.87	4.972	5484561	REC_WORD	4.972	n/a	EEL	8	21	[0, 0, 0]	n/a	FR1	0	R1138T
2243.842	15.452	5489533	REC_WORD	15.452	n/a	TRUCK	10	21	[0, 0, 0]	n/a	FR1	0	R1138T
2259.294	6.705	5504984	REC_WORD	6.705	n/a	LAMB	6	21	[0, 0, 0]	n/a	FR1	0	R1138T
2265.999	2.094	5511689	REC_END	n/a	n/a	n/a	-999	21	[0, 0, 0]	n/a	FR1	0	R1138T
2268.093	0.001	5513783	COUNTDOWN_START	n/a	n/a	n/a	-999	22	[0, 0, 0]	n/a	FR1	0	R1138T
2268.094	10.427	5513784	TRIAL	n/a	n/a	n/a	-999	22	[0, 0, 0]	n/a	FR1	0	R1138T
2278.521	0.008	5524210	COUNTDOWN_END	n/a	n/a	n/a	-999	22	[0, 0, 0]	n/a	FR1	0	R1138T
2278.529	2.45	5524218	ORIENT	n/a	n/a	n/a	-999	22	[0, 0, 0]	n/a	FR1	0	R1138T
2280.979	2.483	5526668	WORD	n/a	wordpools/wordpool_EN.txt	NOSE	1	22	[0, 0, 0]	n/a	FR1	0	R1138T
2283.462	2.401	5529151	WORD	n/a	wordpools/wordpool_EN.txt	MAZE	2	22	[0, 0, 0]	n/a	FR1	0	R1138T
2285.863	2.45	5531552	WORD	n/a	wordpools/wordpool_EN.txt	BUSH	3	22	[0, 0, 0]	n/a	FR1	0	R1138T
2288.313	2.585	5534002	WORD	n/a	wordpools/wordpool_EN.txt	WEED	4	22	[0, 0, 0]	n/a	FR1	0	R1138T
2290.898	2.466	5536587	WORD	n/a	wordpools/wordpool_EN.txt	SWORD	5	22	[0, 0, 0]	n/a	FR1	0	R1138T
2293.364	2.418	5539053	WORD	n/a	wordpools/wordpool_EN.txt	SQUARE	6	22	[0, 0, 0]	n/a	FR1	0	R1138T
2295.782	2.466	5541471	WORD	n/a	wordpools/wordpool_EN.txt	LAND	7	22	[0, 0, 0]	n/a	FR1	0	R1138T
2298.248	2.368	5543936	WORD	n/a	wordpools/wordpool_EN.txt	HILL	8	22	[0, 0, 0]	n/a	FR1	0	R1138T
2300.616	2.517	5546304	WORD	n/a	wordpools/wordpool_EN.txt	CLIFF	9	22	[0, 0, 0]	n/a	FR1	0	R1138T
2303.133	2.567	5548821	WORD	n/a	wordpools/wordpool_EN.txt	BOY	10	22	[0, 0, 0]	n/a	FR1	0	R1138T
2305.7	2.434	5551388	WORD	n/a	wordpools/wordpool_EN.txt	LAKE	11	22	[0, 0, 0]	n/a	FR1	0	R1138T
2308.134	1.617	5553822	WORD	n/a	wordpools/wordpool_EN.txt	ROCK	12	22	[0, 0, 0]	n/a	FR1	0	R1138T
2309.751	0.001	5555439	DISTRACT_START	n/a	n/a	n/a	-999	22	[0, 0, 0]	n/a	FR1	0	R1138T
2309.752	0.016	5555440	START	n/a	n/a	n/a	-999	22	[-999, -999, -999]	n/a	FR1	0	R1138T
2309.768	5.134	5555456	PROB	5.134	n/a	n/a	-999	22	[7, 7, 9]	23	FR1	0	R1138T
2314.902	4.968	5560590	PROB	4.968	n/a	n/a	-999	22	[1, 5, 9]	15	FR1	0	R1138T
2319.87	3.817	5565557	PROB	3.817	n/a	n/a	-999	22	[9, 7, 3]	19	FR1	0	R1138T
2323.687	6.258	5569374	PROB	6.258	n/a	n/a	-999	22	[4, 3, 8]	15	FR1	0	R1138T
2329.945	0.01	5575632	STOP	n/a	n/a	n/a	-999	22	[-999, -999, -999]	n/a	FR1	0	R1138T
2329.955	1.134	5575642	DISTRACT_END	n/a	n/a	n/a	-999	22	[0, 0, 0]	n/a	FR1	0	R1138T
2331.089	1.008	5576776	REC_START	n/a	n/a	n/a	-999	22	[0, 0, 0]	n/a	FR1	0	R1138T
2332.097	0.989	5577784	REC_WORD	0.989	n/a	BOY	10	22	[0, 0, 0]	n/a	FR1	0	R1138T
2333.086	28.013	5578773	REC_WORD	28.013	n/a	CLIFF	9	22	[0, 0, 0]	n/a	FR1	0	R1138T
2361.099	2.261	5606784	REC_END	n/a	n/a	n/a	-999	22	[0, 0, 0]	n/a	FR1	0	R1138T
2363.36	0.0	5609045	TRIAL	n/a	n/a	n/a	-999	23	[0, 0, 0]	n/a	FR1	0	R1138T
2363.36	10.428	5609045	COUNTDOWN_START	n/a	n/a	n/a	-999	23	[0, 0, 0]	n/a	FR1	0	R1138T
2373.788	0.008	5619473	COUNTDOWN_END	n/a	n/a	n/a	-999	23	[0, 0, 0]	n/a	FR1	0	R1138T
2373.796	2.466	5619481	ORIENT	n/a	n/a	n/a	-999	23	[0, 0, 0]	n/a	FR1	0	R1138T
2376.262	2.518	5621947	WORD	n/a	wordpools/wordpool_EN.txt	KEY	1	23	[0, 0, 0]	n/a	FR1	0	R1138T
2378.78	2.5	5624464	WORD	n/a	wordpools/wordpool_EN.txt	SHIELD	2	23	[0, 0, 0]	n/a	FR1	0	R1138T
2381.28	2.585	5626964	WORD	n/a	wordpools/wordpool_EN.txt	HOUSE	3	23	[0, 0, 0]	n/a	FR1	0	R1138T
2383.865	2.532	5629549	WORD	n/a	wordpools/wordpool_EN.txt	CHALK	4	23	[0, 0, 0]	n/a	FR1	0	R1138T
2386.397	2.468	5632081	WORD	n/a	wordpools/wordpool_EN.txt	WING	5	23	[0, 0, 0]	n/a	FR1	0	R1138T
2388.865	2.6	5634549	WORD	n/a	wordpools/wordpool_EN.txt	STREET	6	23	[0, 0, 0]	n/a	FR1	0	R1138T
2391.465	2.618	5637149	WORD	n/a	wordpools/wordpool_EN.txt	FORT	7	23	[0, 0, 0]	n/a	FR1	0	R1138T
2394.083	2.601	5639767	WORD	n/a	wordpools/wordpool_EN.txt	DOLL	8	23	[0, 0, 0]	n/a	FR1	0	R1138T
2396.684	2.45	5642368	WORD	n/a	wordpools/wordpool_EN.txt	DOCK	9	23	[0, 0, 0]	n/a	FR1	0	R1138T
2399.134	2.551	5644817	WORD	n/a	wordpools/wordpool_EN.txt	MAP	10	23	[0, 0, 0]	n/a	FR1	0	R1138T
2401.685	2.467	5647368	WORD	n/a	wordpools/wordpool_EN.txt	ELF	11	23	[0, 0, 0]	n/a	FR1	0	R1138T
2404.152	1.617	5649835	WORD	n/a	wordpools/wordpool_EN.txt	SHOE	12	23	[0, 0, 0]	n/a	FR1	0	R1138T
2405.769	0.0	5651452	DISTRACT_START	n/a	n/a	n/a	-999	23	[0, 0, 0]	n/a	FR1	0	R1138T
2405.769	0.016	5651452	START	n/a	n/a	n/a	-999	23	[-999, -999, -999]	n/a	FR1	0	R1138T
2405.785	2.817	5651468	PROB	2.817	n/a	n/a	-999	23	[1, 4, 6]	11	FR1	0	R1138T
2408.602	5.667	5654285	PROB	5.667	n/a	n/a	-999	23	[8, 2, 4]	14	FR1	0	R1138T
2414.269	4.969	5659952	PROB	4.969	n/a	n/a	-999	23	[8, 9, 7]	24	FR1	0	R1138T
2419.238	6.368	5664920	PROB	6.368	n/a	n/a	-999	23	[6, 2, 9]	17	FR1	0	R1138T
2425.606	6.523	5671288	PROB	6.523	n/a	n/a	-999	23	[7, 8, 4]	19	FR1	0	R1138T
2432.129	0.011	5677811	STOP	n/a	n/a	n/a	-999	23	[-999, -999, -999]	n/a	FR1	0	R1138T
2432.14	1.084	5677822	DISTRACT_END	n/a	n/a	n/a	-999	23	[0, 0, 0]	n/a	FR1	0	R1138T
2433.224	1.026	5678906	REC_START	n/a	n/a	n/a	-999	23	[0, 0, 0]	n/a	FR1	0	R1138T
2434.25	1.102	5679932	REC_WORD	1.102	n/a	KEY	1	23	[0, 0, 0]	n/a	FR1	0	R1138T
2435.352	4.421	5681034	REC_WORD	4.421	n/a	SHIELD	2	23	[0, 0, 0]	n/a	FR1	0	R1138T
2439.773	23.465	5685454	REC_WORD	23.465	n/a	CLIFF	-999	23	[0, 0, 0]	n/a	FR1	0	R1138T
2463.238	2.458	5708918	REC_END	n/a	n/a	n/a	-999	23	[0, 0, 0]	n/a	FR1	0	R1138T
2465.696	0.0	5711376	TRIAL	n/a	n/a	n/a	-999	24	[0, 0, 0]	n/a	FR1	0	R1138T
2465.696	10.428	5711376	COUNTDOWN_START	n/a	n/a	n/a	-999	24	[0, 0, 0]	n/a	FR1	0	R1138T
2476.124	0.008	5721804	COUNTDOWN_END	n/a	n/a	n/a	-999	24	[0, 0, 0]	n/a	FR1	0	R1138T
2476.132	2.4	5721812	ORIENT	n/a	n/a	n/a	-999	24	[0, 0, 0]	n/a	FR1	0	R1138T
2478.532	2.484	5724212	WORD	n/a	wordpools/wordpool_EN.txt	SWAMP	1	24	[0, 0, 0]	n/a	FR1	0	R1138T
2481.016	2.415	5726695	WORD	n/a	wordpools/wordpool_EN.txt	TRASH	2	24	[0, 0, 0]	n/a	FR1	0	R1138T
2483.431	2.502	5729110	WORD	n/a	wordpools/wordpool_EN.txt	JAR	3	24	[0, 0, 0]	n/a	FR1	0	R1138T
2485.933	2.466	5731612	WORD	n/a	wordpools/wordpool_EN.txt	DITCH	4	24	[0, 0, 0]	n/a	FR1	0	R1138T
2488.399	2.585	5734078	WORD	n/a	wordpools/wordpool_EN.txt	ROSE	5	24	[0, 0, 0]	n/a	FR1	0	R1138T
2490.984	2.433	5736663	WORD	n/a	wordpools/wordpool_EN.txt	PIT	6	24	[0, 0, 0]	n/a	FR1	0	R1138T
2493.417	2.501	5739096	WORD	n/a	wordpools/wordpool_EN.txt	PARK	7	24	[0, 0, 0]	n/a	FR1	0	R1138T
2495.918	2.416	5741597	WORD	n/a	wordpools/wordpool_EN.txt	FLUTE	8	24	[0, 0, 0]	n/a	FR1	0	R1138T
2498.334	2.419	5744013	WORD	n/a	wordpools/wordpool_EN.txt	BREAD	9	24	[0, 0, 0]	n/a	FR1	0	R1138T
2500.753	2.616	5746431	WORD	n/a	wordpools/wordpool_EN.txt	PIE	10	24	[0, 0, 0]	n/a	FR1	0	R1138T
2503.369	2.551	5749047	WORD	n/a	wordpools/wordpool_EN.txt	CAKE	11	24	[0, 0, 0]	n/a	FR1	0	R1138T
2505.92	1.617	5751598	WORD	n/a	wordpools/wordpool_EN.txt	FENCE	12	24	[0, 0, 0]	n/a	FR1	0	R1138T
2507.537	0.001	5753215	DISTRACT_START	n/a	n/a	n/a	-999	24	[0, 0, 0]	n/a	FR1	0	R1138T
2507.538	0.016	5753216	START	n/a	n/a	n/a	-999	24	[-999, -999, -999]	n/a	FR1	0	R1138T
2507.554	8.917	5753232	PROB	8.917	n/a	n/a	-999	24	[4, 8, 9]	21	FR1	0	R1138T
2516.471	3.385	5762149	PROB	3.385	n/a	n/a	-999	24	[7, 2, 7]	16	FR1	0	R1138T
2519.856	3.466	5765534	PROB	3.466	n/a	n/a	-999	24	[3, 1, 7]	11	FR1	0	R1138T
2523.322	9.255	5768999	PROB	9.255	n/a	n/a	-999	24	[5, 4, 8]	17	FR1	0	R1138T
2532.577	0.015	5778254	STOP	n/a	n/a	n/a	-999	24	[-999, -999, -999]	n/a	FR1	0	R1138T
2532.592	1.167	5778269	DISTRACT_END	n/a	n/a	n/a	-999	24	[0, 0, 0]	n/a	FR1	0	R1138T
2533.759	0.922	5779436	REC_START	n/a	n/a	n/a	-999	24	[0, 0, 0]	n/a	FR1	0	R1138T
2534.681	2.513	5780358	REC_WORD	2.513	n/a	PIE	10	24	[0, 0, 0]	n/a	FR1	0	R1138T
2537.194	26.579	5782871	REC_WORD	26.579	n/a	FENCE	12	24	[0, 0, 0]	n/a	FR1	0	R1138T
2563.773	2.258	5809448	REC_END	n/a	n/a	n/a	-999	24	[0, 0, 0]	n/a	FR1	0	R1138T
2566.031	0.0	5811706	TRIAL	n/a	n/a	n/a	-999	25	[0, 0, 0]	n/a	FR1	0	R1138T
2566.031	10.428	5811706	COUNTDOWN_START	n/a	n/a	n/a	-999	25	[0, 0, 0]	n/a	FR1	0	R1138T
2576.459	0.006	5822134	COUNTDOWN_END	n/a	n/a	n/a	-999	25	[0, 0, 0]	n/a	FR1	0	R1138T
2576.465	2.452	5822140	ORIENT	n/a	n/a	n/a	-999	25	[0, 0, 0]	n/a	FR1	0	R1138T
2578.917	2.449	5824592	WORD	n/a	wordpools/wordpool_EN.txt	SMOKE	1	25	[0, 0, 0]	n/a	FR1	0	R1138T
2581.366	2.602	5827041	WORD	n/a	wordpools/wordpool_EN.txt	SIGN	2	25	[0, 0, 0]	n/a	FR1	0	R1138T
2583.968	2.433	5829642	WORD	n/a	wordpools/wordpool_EN.txt	JAIL	3	25	[0, 0, 0]	n/a	FR1	0	R1138T
2586.401	2.418	5832075	WORD	n/a	wordpools/wordpool_EN.txt	JUDGE	4	25	[0, 0, 0]	n/a	FR1	0	R1138T
2588.819	2.566	5834493	WORD	n/a	wordpools/wordpool_EN.txt	TOAST	5	25	[0, 0, 0]	n/a	FR1	0	R1138T
2591.385	2.451	5837059	WORD	n/a	wordpools/wordpool_EN.txt	SOUP	6	25	[0, 0, 0]	n/a	FR1	0	R1138T
2593.836	2.533	5839510	WORD	n/a	wordpools/wordpool_EN.txt	DESK	7	25	[0, 0, 0]	n/a	FR1	0	R1138T
2596.369	2.368	5842043	WORD	n/a	wordpools/wordpool_EN.txt	SLEEVE	8	25	[0, 0, 0]	n/a	FR1	0	R1138T
2598.737	2.467	5844411	WORD	n/a	wordpools/wordpool_EN.txt	FACE	9	25	[0, 0, 0]	n/a	FR1	0	R1138T
2601.204	2.601	5846878	WORD	n/a	wordpools/wordpool_EN.txt	PIN	10	25	[0, 0, 0]	n/a	FR1	0	R1138T
2603.805	2.499	5849478	WORD	n/a	wordpools/wordpool_EN.txt	SMILE	11	25	[0, 0, 0]	n/a	FR1	0	R1138T
2606.304	1.601	5851977	WORD	n/a	wordpools/wordpool_EN.txt	ARK	12	25	[0, 0, 0]	n/a	FR1	0	R1138T
2607.905	0.001	5853578	DISTRACT_START	n/a	n/a	n/a	-999	25	[0, 0, 0]	n/a	FR1	0	R1138T
2607.906	0.016	5853579	START	n/a	n/a	n/a	-999	25	[-999, -999, -999]	n/a	FR1	0	R1138T
2607.922	4.051	5853595	PROB	4.051	n/a	n/a	-999	25	[7, 7, 6]	20	FR1	0	R1138T
2611.973	4.151	5857646	PROB	4.151	n/a	n/a	-999	25	[9, 5, 4]	18	FR1	0	R1138T
2616.124	6.484	5861797	PROB	6.484	n/a	n/a	-999	25	[8, 9, 1]	18	FR1	0	R1138T
2622.608	4.634	5868280	PROB	4.634	n/a	n/a	-999	25	[1, 4, 7]	12	FR1	0	R1138T
2627.242	3.271	5872914	PROB	3.271	n/a	n/a	-999	25	[1, 3, 6]	10	FR1	0	R1138T
2630.513	0.013	5876185	STOP	n/a	n/a	n/a	-999	25	[-999, -999, -999]	n/a	FR1	0	R1138T
2630.526	1.168	5876198	DISTRACT_END	n/a	n/a	n/a	-999	25	[0, 0, 0]	n/a	FR1	0	R1138T
2631.694	1.153	5877366	REC_START	n/a	n/a	n/a	-999	25	[0, 0, 0]	n/a	FR1	0	R1138T
2632.847	0.871	5878519	REC_WORD	0.871	n/a	SMOKE	1	25	[0, 0, 0]	n/a	FR1	0	R1138T
2633.718	27.988	5879390	REC_WORD	27.988	n/a	PIN	10	25	[0, 0, 0]	n/a	FR1	0	R1138T
2661.706	154.788	5907377	REC_END	n/a	n/a	n/a	-999	25	[0, 0, 0]	n/a	FR1	0	R1138T
2816.494	0.0	-1	SESS_END	n/a	n/a	n/a	-999	25	[0, 0, 0]	n/a	FR1	0	R1138T
