onset	duration	sample	trial_type	response_time	stim_file	item_name	serialpos	list	test	answer	experiment	session	subject
0.0	119.741	1540	INSTRUCT_START	n/a	n/a	n/a	-999	-999	[0, 0, 0]	n/a	FR1	3	R1281E
119.741	10.936	121287	INSTRUCT_END	n/a	n/a	n/a	-999	-999	[0, 0, 0]	n/a	FR1	3	R1281E
130.677	21.156	132223	MIC TEST_START	n/a	n/a	n/a	-999	-999	[0, 0, 0]	n/a	FR1	3	R1281E
151.833	0.013	153380	MIC TEST_END	n/a	n/a	n/a	-999	-999	[0, 0, 0]	n/a	FR1	3	R1281E
151.846	0.0	153393	TRIAL_START	n/a	n/a	n/a	-999	-1	[0, 0, 0]	n/a	FR1	3	R1281E
151.846	0.001	153393	TRIAL	n/a	n/a	n/a	-999	-1	[0, 0, 0]	n/a	FR1	3	R1281E
151.847	11.668	153394	WAITING_START	n/a	n/a	n/a	-999	-1	[0, 0, 0]	n/a	FR1	3	R1281E
163.515	0.001	165063	WAITING_END	n/a	n/a	n/a	-999	-1	[0, 0, 0]	n/a	FR1	3	R1281E
163.516	10.429	165064	COUNTDOWN_START	n/a	n/a	n/a	-999	-1	[0, 0, 0]	n/a	FR1	3	R1281E
173.945	0.0	175493	COUNTDOWN_END	n/a	n/a	n/a	-999	-1	[0, 0, 0]	n/a	FR1	3	R1281E
173.945	1.106	175493	ORIENT_START	n/a	n/a	n/a	-999	-1	[0, 0, 0]	n/a	FR1	3	R1281E
175.051	0.0	176599	ORIENT_END	n/a	n/a	n/a	-999	-1	[0, 0, 0]	n/a	FR1	3	R1281E
175.051	1.148	176599	ENCODING_START	n/a	n/a	n/a	-999	-1	[0, 0, 0]	n/a	FR1	3	R1281E
176.199	1.635	177747	WORD	n/a	n/a	ATTIC	1	-1	[0, 0, 0]	n/a	FR1	3	R1281E
177.834	0.852	179382	WORD_OFF	n/a	n/a	ATTIC	1	-1	[0, 0, 0]	n/a	FR1	3	R1281E
178.686	1.617	180234	WORD	n/a	n/a	BEAM	2	-1	[0, 0, 0]	n/a	FR1	3	R1281E
180.303	0.943	181851	WORD_OFF	n/a	n/a	BEAM	2	-1	[0, 0, 0]	n/a	FR1	3	R1281E
181.246	1.623	182794	WORD	n/a	n/a	CAMEL	3	-1	[0, 0, 0]	n/a	FR1	3	R1281E
182.869	1.143	184418	WORD_OFF	n/a	n/a	CAMEL	3	-1	[0, 0, 0]	n/a	FR1	3	R1281E
184.012	1.624	185561	WORD	n/a	n/a	CHEST	4	-1	[0, 0, 0]	n/a	FR1	3	R1281E
185.636	0.969	187185	WORD_OFF	n/a	n/a	CHEST	4	-1	[0, 0, 0]	n/a	FR1	3	R1281E
186.605	1.632	188154	WORD	n/a	n/a	COTTON	5	-1	[0, 0, 0]	n/a	FR1	3	R1281E
188.237	0.76	189786	WORD_OFF	n/a	n/a	COTTON	5	-1	[0, 0, 0]	n/a	FR1	3	R1281E
188.997	1.623	190546	WORD	n/a	n/a	FLOOD	6	-1	[0, 0, 0]	n/a	FR1	3	R1281E
190.62	0.756	192169	WORD_OFF	n/a	n/a	FLOOD	6	-1	[0, 0, 0]	n/a	FR1	3	R1281E
191.376	1.628	192925	WORD	n/a	n/a	IRON	7	-1	[0, 0, 0]	n/a	FR1	3	R1281E
193.004	1.133	194553	WORD_OFF	n/a	n/a	IRON	7	-1	[0, 0, 0]	n/a	FR1	3	R1281E
194.137	1.634	195686	WORD	n/a	n/a	RHINO	8	-1	[0, 0, 0]	n/a	FR1	3	R1281E
195.771	1.005	197320	WORD_OFF	n/a	n/a	RHINO	8	-1	[0, 0, 0]	n/a	FR1	3	R1281E
196.776	1.63	198325	WORD	n/a	n/a	RING	9	-1	[0, 0, 0]	n/a	FR1	3	R1281E
198.406	1.029	199955	WORD_OFF	n/a	n/a	RING	9	-1	[0, 0, 0]	n/a	FR1	3	R1281E
199.435	1.62	200984	WORD	n/a	n/a	TONGUE	10	-1	[0, 0, 0]	n/a	FR1	3	R1281E
201.055	1.039	202604	WORD_OFF	n/a	n/a	TONGUE	10	-1	[0, 0, 0]	n/a	FR1	3	R1281E
202.094	1.628	203643	WORD	n/a	n/a	WAGON	11	-1	[0, 0, 0]	n/a	FR1	3	R1281E
203.722	1.063	205271	WORD_OFF	n/a	n/a	WAGON	11	-1	[0, 0, 0]	n/a	FR1	3	R1281E
204.785	1.605	206335	WORD	n/a	n/a	WATCH	12	-1	[0, 0, 0]	n/a	FR1	3	R1281E
206.39	0.001	207940	WORD_OFF	n/a	n/a	WATCH	12	-1	[0, 0, 0]	n/a	FR1	3	R1281E
206.391	0.0	207941	ENCODING_END	n/a	n/a	n/a	-999	-1	[0, 0, 0]	n/a	FR1	3	R1281E
206.391	0.0	207941	DISTRACT_START	n/a	n/a	n/a	-999	-1	[0, 0, 0]	n/a	FR1	3	R1281E
206.391	0.016	207941	START	n/a	n/a	n/a	-999	-1	[-999, -999, -999]	n/a	FR1	3	R1281E
206.407	4.266	207957	PROB	4.266	n/a	n/a	-999	-1	[4, 5, 7]	16	FR1	3	R1281E
210.673	3.134	212223	PROB	3.134	n/a	n/a	-999	-1	[7, 2, 8]	17	FR1	3	R1281E
213.807	3.684	215357	PROB	3.684	n/a	n/a	-999	-1	[8, 5, 3]	16	FR1	3	R1281E
217.491	3.752	219041	PROB	3.752	n/a	n/a	-999	-1	[2, 9, 2]	13	FR1	3	R1281E
221.243	3.716	222793	PROB	3.716	n/a	n/a	-999	-1	[9, 5, 2]	16	FR1	3	R1281E
224.959	5.192	226509	PROB	5.192	n/a	n/a	-999	-1	[1, 6, 6]	13	FR1	3	R1281E
230.151	0.01	231702	STOP	n/a	n/a	n/a	-999	-1	[-999, -999, -999]	n/a	FR1	3	R1281E
230.161	0.548	231712	DISTRACT_END	n/a	n/a	n/a	-999	-1	[0, 0, 0]	n/a	FR1	3	R1281E
230.709	1.553	232260	RETRIEVAL_ORIENT_START	n/a	n/a	n/a	-999	-1	[0, 0, 0]	n/a	FR1	3	R1281E
232.262	0.0	233813	RETRIEVAL_ORIENT_END	n/a	n/a	n/a	-999	-1	[0, 0, 0]	n/a	FR1	3	R1281E
232.262	0.644	233813	REC_START	n/a	n/a	n/a	-999	-1	[0, 0, 0]	n/a	FR1	3	R1281E
232.906	1.355	234457	REC_WORD	1.355	n/a	ATTIC	-999	-1	[0, 0, 0]	n/a	FR1	3	R1281E
234.261	2.065	235812	REC_WORD	2.065	n/a	BEAN	-999	-1	[0, 0, 0]	n/a	FR1	3	R1281E
236.326	6.208	237877	REC_WORD	6.208	n/a	CHEST	-999	-1	[0, 0, 0]	n/a	FR1	3	R1281E
242.534	1.288	244085	REC_WORD_VV	1.288	n/a	<>	-999	-1	[0, 0, 0]	n/a	FR1	3	R1281E
243.822	17.005	245373	REC_WORD	17.005	n/a	CORD	-999	-1	[0, 0, 0]	n/a	FR1	3	R1281E
260.827	1.447	262379	REC_WORD_VV	1.447	n/a	<>	-999	-1	[0, 0, 0]	n/a	FR1	3	R1281E
262.274	0.001	263826	REC_END	n/a	n/a	n/a	-999	-1	[0, 0, 0]	n/a	FR1	3	R1281E
262.275	7.259	263827	PRACTICE_POST_INSTRUCT_START	n/a	n/a	n/a	-999	-1	[0, 0, 0]	n/a	FR1	3	R1281E
269.534	0.001	271086	PRACTICE_POST_INSTRUCT_END	n/a	n/a	n/a	-999	-1	[0, 0, 0]	n/a	FR1	3	R1281E
269.535	0.011	271087	TRIAL_END	n/a	n/a	n/a	-999	-1	[0, 0, 0]	n/a	FR1	3	R1281E
269.546	0.0	271098	TRIAL	n/a	n/a	n/a	-999	1	[0, 0, 0]	n/a	FR1	3	R1281E
269.546	0.001	271098	TRIAL_START	n/a	n/a	n/a	-999	1	[0, 0, 0]	n/a	FR1	3	R1281E
269.547	5.004	271099	WAITING_START	n/a	n/a	n/a	-999	1	[0, 0, 0]	n/a	FR1	3	R1281E
274.551	0.001	276104	WAITING_END	n/a	n/a	n/a	-999	1	[0, 0, 0]	n/a	FR1	3	R1281E
274.552	10.429	276105	COUNTDOWN_START	n/a	n/a	n/a	-999	1	[0, 0, 0]	n/a	FR1	3	R1281E
284.981	0.001	286534	COUNTDOWN_END	n/a	n/a	n/a	-999	1	[0, 0, 0]	n/a	FR1	3	R1281E
284.982	1.239	286535	ORIENT_START	n/a	n/a	n/a	-999	1	[0, 0, 0]	n/a	FR1	3	R1281E
286.221	0.0	287774	ORIENT_END	n/a	n/a	n/a	-999	1	[0, 0, 0]	n/a	FR1	3	R1281E
286.221	0.755	287774	ENCODING_START	n/a	n/a	n/a	-999	1	[0, 0, 0]	n/a	FR1	3	R1281E
286.976	1.628	288529	WORD	n/a	n/a	MOON	1	1	[0, 0, 0]	n/a	FR1	3	R1281E
288.604	0.783	290157	WORD_OFF	n/a	n/a	MOON	1	1	[0, 0, 0]	n/a	FR1	3	R1281E
289.387	1.634	290940	WORD	n/a	n/a	PEACH	2	1	[0, 0, 0]	n/a	FR1	3	R1281E
291.021	0.782	292574	WORD_OFF	n/a	n/a	PEACH	2	1	[0, 0, 0]	n/a	FR1	3	R1281E
291.803	1.619	293356	WORD	n/a	n/a	SWAMP	3	1	[0, 0, 0]	n/a	FR1	3	R1281E
293.422	0.826	294976	WORD_OFF	n/a	n/a	SWAMP	3	1	[0, 0, 0]	n/a	FR1	3	R1281E
294.248	1.624	295802	WORD	n/a	n/a	THUMB	4	1	[0, 0, 0]	n/a	FR1	3	R1281E
295.872	0.795	297426	WORD_OFF	n/a	n/a	THUMB	4	1	[0, 0, 0]	n/a	FR1	3	R1281E
296.667	1.606	298221	WORD	n/a	n/a	HOUSE	5	1	[0, 0, 0]	n/a	FR1	3	R1281E
298.273	0.886	299827	WORD_OFF	n/a	n/a	HOUSE	5	1	[0, 0, 0]	n/a	FR1	3	R1281E
299.159	1.63	300713	WORD	n/a	n/a	OWL	6	1	[0, 0, 0]	n/a	FR1	3	R1281E
300.789	1.006	302343	WORD_OFF	n/a	n/a	OWL	6	1	[0, 0, 0]	n/a	FR1	3	R1281E
301.795	1.629	303349	WORD	n/a	n/a	LOCK	7	1	[0, 0, 0]	n/a	FR1	3	R1281E
303.424	0.824	304978	WORD_OFF	n/a	n/a	LOCK	7	1	[0, 0, 0]	n/a	FR1	3	R1281E
304.248	1.625	305802	WORD	n/a	n/a	DITCH	8	1	[0, 0, 0]	n/a	FR1	3	R1281E
305.873	1.081	307427	WORD_OFF	n/a	n/a	DITCH	8	1	[0, 0, 0]	n/a	FR1	3	R1281E
306.954	1.637	308508	WORD	n/a	n/a	RUG	9	1	[0, 0, 0]	n/a	FR1	3	R1281E
308.591	0.756	310145	WORD_OFF	n/a	n/a	RUG	9	1	[0, 0, 0]	n/a	FR1	3	R1281E
309.347	1.627	310901	WORD	n/a	n/a	DIME	10	1	[0, 0, 0]	n/a	FR1	3	R1281E
310.974	0.82	312528	WORD_OFF	n/a	n/a	DIME	10	1	[0, 0, 0]	n/a	FR1	3	R1281E
311.794	1.632	313348	WORD	n/a	n/a	CROWN	11	1	[0, 0, 0]	n/a	FR1	3	R1281E
313.426	1.055	314980	WORD_OFF	n/a	n/a	CROWN	11	1	[0, 0, 0]	n/a	FR1	3	R1281E
314.481	1.628	316035	WORD	n/a	n/a	STEAK	12	1	[0, 0, 0]	n/a	FR1	3	R1281E
316.109	0.001	317664	WORD_OFF	n/a	n/a	STEAK	12	1	[0, 0, 0]	n/a	FR1	3	R1281E
316.11	0.0	317665	ENCODING_END	n/a	n/a	n/a	-999	1	[0, 0, 0]	n/a	FR1	3	R1281E
316.11	0.0	317665	DISTRACT_START	n/a	n/a	n/a	-999	1	[0, 0, 0]	n/a	FR1	3	R1281E
316.11	0.016	317665	START	n/a	n/a	n/a	-999	1	[-999, -999, -999]	n/a	FR1	3	R1281E
316.126	4.65	317681	PROB	4.65	n/a	n/a	-999	1	[7, 4, 9]	20	FR1	3	R1281E
320.776	3.368	322331	PROB	3.368	n/a	n/a	-999	1	[1, 2, 6]	9	FR1	3	R1281E
324.144	3.683	325699	PROB	3.683	n/a	n/a	-999	1	[2, 9, 6]	17	FR1	3	R1281E
327.827	2.451	329382	PROB	2.451	n/a	n/a	-999	1	[2, 5, 4]	11	FR1	3	R1281E
330.278	3.068	331833	PROB	3.068	n/a	n/a	-999	1	[4, 3, 9]	16	FR1	3	R1281E
333.346	5.275	334901	PROB	5.275	n/a	n/a	-999	1	[7, 9, 3]	19	FR1	3	R1281E
338.621	0.008	340177	STOP	n/a	n/a	n/a	-999	1	[-999, -999, -999]	n/a	FR1	3	R1281E
338.629	0.636	340185	DISTRACT_END	n/a	n/a	n/a	-999	1	[0, 0, 0]	n/a	FR1	3	R1281E
339.265	1.548	340821	RETRIEVAL_ORIENT_START	n/a	n/a	n/a	-999	1	[0, 0, 0]	n/a	FR1	3	R1281E
340.813	0.0	342369	REC_START	n/a	n/a	n/a	-999	1	[0, 0, 0]	n/a	FR1	3	R1281E
340.813	1.51	342369	RETRIEVAL_ORIENT_END	n/a	n/a	n/a	-999	1	[0, 0, 0]	n/a	FR1	3	R1281E
342.323	1.475	343879	REC_WORD	1.475	n/a	CROWN	11	1	[0, 0, 0]	n/a	FR1	3	R1281E
343.798	5.112	345354	REC_WORD	5.112	n/a	MOON	1	1	[0, 0, 0]	n/a	FR1	3	R1281E
348.91	11.695	350466	REC_WORD_VV	11.695	n/a	<>	-999	1	[0, 0, 0]	n/a	FR1	3	R1281E
360.605	10.22	362162	REC_WORD_VV	10.22	n/a	<>	-999	1	[0, 0, 0]	n/a	FR1	3	R1281E
370.825	0.001	372382	REC_END	n/a	n/a	n/a	-999	1	[0, 0, 0]	n/a	FR1	3	R1281E
370.826	0.01	372383	TRIAL_END	n/a	n/a	n/a	-999	1	[0, 0, 0]	n/a	FR1	3	R1281E
370.836	0.0	372393	TRIAL_START	n/a	n/a	n/a	-999	2	[0, 0, 0]	n/a	FR1	3	R1281E
370.836	0.001	372393	TRIAL	n/a	n/a	n/a	-999	2	[0, 0, 0]	n/a	FR1	3	R1281E
370.837	7.467	372394	WAITING_START	n/a	n/a	n/a	-999	2	[0, 0, 0]	n/a	FR1	3	R1281E
378.304	0.0	379861	WAITING_END	n/a	n/a	n/a	-999	2	[0, 0, 0]	n/a	FR1	3	R1281E
378.304	10.429	379861	COUNTDOWN_START	n/a	n/a	n/a	-999	2	[0, 0, 0]	n/a	FR1	3	R1281E
388.733	0.0	390291	COUNTDOWN_END	n/a	n/a	n/a	-999	2	[0, 0, 0]	n/a	FR1	3	R1281E
388.733	1.022	390291	ORIENT_START	n/a	n/a	n/a	-999	2	[0, 0, 0]	n/a	FR1	3	R1281E
389.755	0.0	391313	ORIENT_END	n/a	n/a	n/a	-999	2	[0, 0, 0]	n/a	FR1	3	R1281E
389.755	1.146	391313	ENCODING_START	n/a	n/a	n/a	-999	2	[0, 0, 0]	n/a	FR1	3	R1281E
390.901	1.638	392459	WORD	n/a	n/a	CHAIR	1	2	[0, 0, 0]	n/a	FR1	3	R1281E
392.539	0.751	394097	WORD_OFF	n/a	n/a	CHAIR	1	2	[0, 0, 0]	n/a	FR1	3	R1281E
393.29	1.632	394848	WORD	n/a	n/a	GUARD	2	2	[0, 0, 0]	n/a	FR1	3	R1281E
394.922	0.857	396480	WORD_OFF	n/a	n/a	GUARD	2	2	[0, 0, 0]	n/a	FR1	3	R1281E
395.779	1.628	397337	WORD	n/a	n/a	SPRING	3	2	[0, 0, 0]	n/a	FR1	3	R1281E
397.407	1.041	398965	WORD_OFF	n/a	n/a	SPRING	3	2	[0, 0, 0]	n/a	FR1	3	R1281E
398.448	1.626	400006	WORD	n/a	n/a	TRUCK	4	2	[0, 0, 0]	n/a	FR1	3	R1281E
400.074	0.918	401632	WORD_OFF	n/a	n/a	TRUCK	4	2	[0, 0, 0]	n/a	FR1	3	R1281E
400.992	1.632	402550	WORD	n/a	n/a	HAT	5	2	[0, 0, 0]	n/a	FR1	3	R1281E
402.624	0.916	404182	WORD_OFF	n/a	n/a	HAT	5	2	[0, 0, 0]	n/a	FR1	3	R1281E
403.54	1.635	405099	WORD	n/a	n/a	BAND	6	2	[0, 0, 0]	n/a	FR1	3	R1281E
405.175	0.984	406734	WORD_OFF	n/a	n/a	BAND	6	2	[0, 0, 0]	n/a	FR1	3	R1281E
406.159	1.632	407718	WORD	n/a	n/a	DART	7	2	[0, 0, 0]	n/a	FR1	3	R1281E
407.791	0.913	409350	WORD_OFF	n/a	n/a	DART	7	2	[0, 0, 0]	n/a	FR1	3	R1281E
408.704	1.622	410263	WORD	n/a	n/a	SIGN	8	2	[0, 0, 0]	n/a	FR1	3	R1281E
410.326	1.068	411885	WORD_OFF	n/a	n/a	SIGN	8	2	[0, 0, 0]	n/a	FR1	3	R1281E
411.394	1.631	412953	WORD	n/a	n/a	JUDGE	9	2	[0, 0, 0]	n/a	FR1	3	R1281E
413.025	0.761	414584	WORD_OFF	n/a	n/a	JUDGE	9	2	[0, 0, 0]	n/a	FR1	3	R1281E
413.786	1.607	415345	WORD	n/a	n/a	FUDGE	10	2	[0, 0, 0]	n/a	FR1	3	R1281E
415.393	0.995	416952	WORD_OFF	n/a	n/a	FUDGE	10	2	[0, 0, 0]	n/a	FR1	3	R1281E
416.388	1.622	417947	WORD	n/a	n/a	SNAKE	11	2	[0, 0, 0]	n/a	FR1	3	R1281E
418.01	0.821	419569	WORD_OFF	n/a	n/a	SNAKE	11	2	[0, 0, 0]	n/a	FR1	3	R1281E
418.831	1.629	420390	WORD	n/a	n/a	BED	12	2	[0, 0, 0]	n/a	FR1	3	R1281E
420.46	0.0	422019	WORD_OFF	n/a	n/a	BED	12	2	[0, 0, 0]	n/a	FR1	3	R1281E
420.46	0.0	422019	ENCODING_END	n/a	n/a	n/a	-999	2	[0, 0, 0]	n/a	FR1	3	R1281E
420.46	0.0	422019	DISTRACT_START	n/a	n/a	n/a	-999	2	[0, 0, 0]	n/a	FR1	3	R1281E
420.46	0.016	422019	START	n/a	n/a	n/a	-999	2	[-999, -999, -999]	n/a	FR1	3	R1281E
420.476	5.936	422035	PROB	5.936	n/a	n/a	-999	2	[8, 4, 9]	21	FR1	3	R1281E
426.412	4.433	427972	PROB	4.433	n/a	n/a	-999	2	[1, 7, 5]	13	FR1	3	R1281E
430.845	4.368	432405	PROB	4.368	n/a	n/a	-999	2	[8, 5, 6]	19	FR1	3	R1281E
435.213	3.467	436773	PROB	3.467	n/a	n/a	-999	2	[1, 7, 9]	17	FR1	3	R1281E
438.68	5.229	440240	PROB	5.229	n/a	n/a	-999	2	[8, 3, 1]	12	FR1	3	R1281E
443.909	0.022	445469	STOP	n/a	n/a	n/a	-999	2	[-999, -999, -999]	n/a	FR1	3	R1281E
443.931	0.591	445491	DISTRACT_END	n/a	n/a	n/a	-999	2	[0, 0, 0]	n/a	FR1	3	R1281E
444.522	1.66	446082	RETRIEVAL_ORIENT_START	n/a	n/a	n/a	-999	2	[0, 0, 0]	n/a	FR1	3	R1281E
446.182	0.001	447742	RETRIEVAL_ORIENT_END	n/a	n/a	n/a	-999	2	[0, 0, 0]	n/a	FR1	3	R1281E
446.183	2.004	447743	REC_START	n/a	n/a	n/a	-999	2	[0, 0, 0]	n/a	FR1	3	R1281E
448.187	1.03	449748	REC_WORD	1.03	n/a	CHAIR	1	2	[0, 0, 0]	n/a	FR1	3	R1281E
449.217	1.0	450778	REC_WORD	1.0	n/a	FUDGE	10	2	[0, 0, 0]	n/a	FR1	3	R1281E
450.217	1.003	451778	REC_WORD_VV	1.003	n/a	<>	-999	2	[0, 0, 0]	n/a	FR1	3	R1281E
451.22	1.505	452781	REC_WORD	1.505	n/a	JUDGE	9	2	[0, 0, 0]	n/a	FR1	3	R1281E
452.725	7.694	454286	REC_WORD	7.694	n/a	TRUCK	4	2	[0, 0, 0]	n/a	FR1	3	R1281E
460.419	14.049	461980	REC_WORD	14.049	n/a	HAT	5	2	[0, 0, 0]	n/a	FR1	3	R1281E
474.468	1.727	476030	REC_WORD_VV	1.727	n/a	<>	-999	2	[0, 0, 0]	n/a	FR1	3	R1281E
476.195	0.0	477757	TRIAL_END	n/a	n/a	n/a	-999	2	[0, 0, 0]	n/a	FR1	3	R1281E
476.195	0.011	477757	REC_END	n/a	n/a	n/a	-999	2	[0, 0, 0]	n/a	FR1	3	R1281E
476.206	0.0	-1	TRIAL_START	n/a	n/a	n/a	-999	3	[0, 0, 0]	n/a	FR1	3	R1281E
476.206	0.0	-1	TRIAL	n/a	n/a	n/a	-999	3	[0, 0, 0]	n/a	FR1	3	R1281E
476.206	166.127	-1	WAITING_START	n/a	n/a	n/a	-999	3	[0, 0, 0]	n/a	FR1	3	R1281E
642.333	0.0	-1	WAITING_END	n/a	n/a	n/a	-999	3	[0, 0, 0]	n/a	FR1	3	R1281E
642.333	250.902	-1	COUNTDOWN_START	n/a	n/a	n/a	-999	3	[0, 0, 0]	n/a	FR1	3	R1281E
893.235	5.741	208	INSTRUCT_START	n/a	n/a	n/a	-999	3	[0, 0, 0]	n/a	FR1	3	R1281E
898.976	3.885	5948	INSTRUCT_END	n/a	n/a	n/a	-999	3	[0, 0, 0]	n/a	FR1	3	R1281E
902.861	7.701	9833	MIC TEST_START	n/a	n/a	n/a	-999	3	[0, 0, 0]	n/a	FR1	3	R1281E
910.562	0.006	17534	MIC TEST_END	n/a	n/a	n/a	-999	3	[0, 0, 0]	n/a	FR1	3	R1281E
910.568	0.001	17540	TRIAL_START	n/a	n/a	n/a	-999	3	[0, 0, 0]	n/a	FR1	3	R1281E
910.569	0.0	17541	TRIAL	n/a	n/a	n/a	-999	3	[0, 0, 0]	n/a	FR1	3	R1281E
910.569	46.602	17541	WAITING_START	n/a	n/a	n/a	-999	3	[0, 0, 0]	n/a	FR1	3	R1281E
957.171	0.0	64141	WAITING_END	n/a	n/a	n/a	-999	3	[0, 0, 0]	n/a	FR1	3	R1281E
957.171	10.43	64141	COUNTDOWN_START	n/a	n/a	n/a	-999	3	[0, 0, 0]	n/a	FR1	3	R1281E
967.601	0.0	74571	COUNTDOWN_END	n/a	n/a	n/a	-999	3	[0, 0, 0]	n/a	FR1	3	R1281E
967.601	1.021	74571	ORIENT_START	n/a	n/a	n/a	-999	3	[0, 0, 0]	n/a	FR1	3	R1281E
968.622	0.0	75592	ENCODING_START	n/a	n/a	n/a	-999	3	[0, 0, 0]	n/a	FR1	3	R1281E
968.622	1.046	75592	ORIENT_END	n/a	n/a	n/a	-999	3	[0, 0, 0]	n/a	FR1	3	R1281E
969.668	1.622	76638	WORD	n/a	n/a	AXE	1	3	[0, 0, 0]	n/a	FR1	3	R1281E
971.29	0.921	78260	WORD_OFF	n/a	n/a	AXE	1	3	[0, 0, 0]	n/a	FR1	3	R1281E
972.211	1.628	79181	WORD	n/a	n/a	DRUM	2	3	[0, 0, 0]	n/a	FR1	3	R1281E
973.839	0.766	80809	WORD_OFF	n/a	n/a	DRUM	2	3	[0, 0, 0]	n/a	FR1	3	R1281E
974.605	1.619	81575	WORD	n/a	n/a	COUCH	3	3	[0, 0, 0]	n/a	FR1	3	R1281E
976.224	0.925	83194	WORD_OFF	n/a	n/a	COUCH	3	3	[0, 0, 0]	n/a	FR1	3	R1281E
977.149	1.624	84119	WORD	n/a	n/a	RAIN	4	3	[0, 0, 0]	n/a	FR1	3	R1281E
978.773	0.845	85743	WORD_OFF	n/a	n/a	RAIN	4	3	[0, 0, 0]	n/a	FR1	3	R1281E
979.618	1.607	86588	WORD	n/a	n/a	SHOE	5	3	[0, 0, 0]	n/a	FR1	3	R1281E
981.225	0.842	88194	WORD_OFF	n/a	n/a	SHOE	5	3	[0, 0, 0]	n/a	FR1	3	R1281E
982.067	1.624	89036	WORD	n/a	n/a	CHIN	6	3	[0, 0, 0]	n/a	FR1	3	R1281E
983.691	0.943	90660	WORD_OFF	n/a	n/a	CHIN	6	3	[0, 0, 0]	n/a	FR1	3	R1281E
984.634	1.625	91603	WORD	n/a	n/a	FOAM	7	3	[0, 0, 0]	n/a	FR1	3	R1281E
986.259	0.878	93228	WORD_OFF	n/a	n/a	FOAM	7	3	[0, 0, 0]	n/a	FR1	3	R1281E
987.137	1.622	94106	WORD	n/a	n/a	PANTS	8	3	[0, 0, 0]	n/a	FR1	3	R1281E
988.759	0.767	95728	WORD_OFF	n/a	n/a	PANTS	8	3	[0, 0, 0]	n/a	FR1	3	R1281E
989.526	1.634	96495	WORD	n/a	n/a	CROW	9	3	[0, 0, 0]	n/a	FR1	3	R1281E
991.16	0.967	98129	WORD_OFF	n/a	n/a	CROW	9	3	[0, 0, 0]	n/a	FR1	3	R1281E
992.127	1.632	99096	WORD	n/a	n/a	WEB	10	3	[0, 0, 0]	n/a	FR1	3	R1281E
993.759	0.934	100728	WORD_OFF	n/a	n/a	WEB	10	3	[0, 0, 0]	n/a	FR1	3	R1281E
994.693	1.618	101662	WORD	n/a	n/a	STORM	11	3	[0, 0, 0]	n/a	FR1	3	R1281E
996.311	1.065	103280	WORD_OFF	n/a	n/a	STORM	11	3	[0, 0, 0]	n/a	FR1	3	R1281E
997.376	1.634	104345	WORD	n/a	n/a	MOON	12	3	[0, 0, 0]	n/a	FR1	3	R1281E
999.01	0.001	105979	WORD_OFF	n/a	n/a	MOON	12	3	[0, 0, 0]	n/a	FR1	3	R1281E
999.011	0.0	105980	ENCODING_END	n/a	n/a	n/a	-999	3	[0, 0, 0]	n/a	FR1	3	R1281E
999.011	0.0	105980	DISTRACT_START	n/a	n/a	n/a	-999	3	[0, 0, 0]	n/a	FR1	3	R1281E
999.011	0.016	105980	START	n/a	n/a	n/a	-999	3	[-999, -999, -999]	n/a	FR1	3	R1281E
999.027	3.884	105996	PROB	3.884	n/a	n/a	-999	3	[4, 9, 4]	17	FR1	3	R1281E
1002.911	3.15	109880	PROB	3.15	n/a	n/a	-999	3	[4, 2, 6]	12	FR1	3	R1281E
1006.061	3.651	113030	PROB	3.651	n/a	n/a	-999	3	[9, 2, 7]	18	FR1	3	R1281E
1009.712	3.067	116681	PROB	3.067	n/a	n/a	-999	3	[3, 9, 4]	16	FR1	3	R1281E
1012.779	2.817	119747	PROB	2.817	n/a	n/a	-999	3	[3, 5, 5]	13	FR1	3	R1281E
1015.596	3.068	122564	PROB	3.068	n/a	n/a	-999	3	[3, 8, 6]	17	FR1	3	R1281E
1018.664	3.079	125632	PROB	3.079	n/a	n/a	-999	3	[6, 4, 8]	18	FR1	3	R1281E
1021.743	0.021	128711	STOP	n/a	n/a	n/a	-999	3	[-999, -999, -999]	n/a	FR1	3	R1281E
1021.764	0.567	128732	DISTRACT_END	n/a	n/a	n/a	-999	3	[0, 0, 0]	n/a	FR1	3	R1281E
1022.331	1.684	129299	RETRIEVAL_ORIENT_START	n/a	n/a	n/a	-999	3	[0, 0, 0]	n/a	FR1	3	R1281E
1024.015	0.0	130983	RETRIEVAL_ORIENT_END	n/a	n/a	n/a	-999	3	[0, 0, 0]	n/a	FR1	3	R1281E
1024.015	0.549	130983	REC_START	n/a	n/a	n/a	-999	3	[0, 0, 0]	n/a	FR1	3	R1281E
1024.564	2.125	131532	REC_WORD	2.125	n/a	MOON	12	3	[0, 0, 0]	n/a	FR1	3	R1281E
1026.689	2.875	133657	REC_WORD	2.875	n/a	WEB	10	3	[0, 0, 0]	n/a	FR1	3	R1281E
1029.564	3.837	136532	REC_WORD	3.837	n/a	CHAIN	-999	3	[0, 0, 0]	n/a	FR1	3	R1281E
1033.401	9.792	140369	REC_WORD	9.792	n/a	CHAIR	-999	3	[0, 0, 0]	n/a	FR1	3	R1281E
1043.193	10.832	150160	REC_WORD	10.832	n/a	AXE	1	3	[0, 0, 0]	n/a	FR1	3	R1281E
1054.025	0.0	160992	TRIAL_END	n/a	n/a	n/a	-999	3	[0, 0, 0]	n/a	FR1	3	R1281E
1054.025	0.012	160992	REC_END	n/a	n/a	n/a	-999	3	[0, 0, 0]	n/a	FR1	3	R1281E
1054.037	0.0	161004	TRIAL_START	n/a	n/a	n/a	-999	4	[0, 0, 0]	n/a	FR1	3	R1281E
1054.037	0.0	161004	TRIAL	n/a	n/a	n/a	-999	4	[0, 0, 0]	n/a	FR1	3	R1281E
1054.037	26.105	161004	WAITING_START	n/a	n/a	n/a	-999	4	[0, 0, 0]	n/a	FR1	3	R1281E
1080.142	0.001	187108	WAITING_END	n/a	n/a	n/a	-999	4	[0, 0, 0]	n/a	FR1	3	R1281E
1080.143	10.428	187109	COUNTDOWN_START	n/a	n/a	n/a	-999	4	[0, 0, 0]	n/a	FR1	3	R1281E
1090.571	0.0	197537	COUNTDOWN_END	n/a	n/a	n/a	-999	4	[0, 0, 0]	n/a	FR1	3	R1281E
1090.571	1.239	197537	ORIENT_START	n/a	n/a	n/a	-999	4	[0, 0, 0]	n/a	FR1	3	R1281E
1091.81	0.0	198776	ORIENT_END	n/a	n/a	n/a	-999	4	[0, 0, 0]	n/a	FR1	3	R1281E
1091.81	1.075	198776	ENCODING_START	n/a	n/a	n/a	-999	4	[0, 0, 0]	n/a	FR1	3	R1281E
1092.885	1.609	199851	WORD	n/a	n/a	WAVE	1	4	[0, 0, 0]	n/a	FR1	3	R1281E
1094.494	0.997	201460	WORD_OFF	n/a	n/a	WAVE	1	4	[0, 0, 0]	n/a	FR1	3	R1281E
1095.491	1.638	202457	WORD	n/a	n/a	MILK	2	4	[0, 0, 0]	n/a	FR1	3	R1281E
1097.129	1.059	204094	WORD_OFF	n/a	n/a	MILK	2	4	[0, 0, 0]	n/a	FR1	3	R1281E
1098.188	1.623	205153	WORD	n/a	n/a	EAR	3	4	[0, 0, 0]	n/a	FR1	3	R1281E
1099.811	0.831	206776	WORD_OFF	n/a	n/a	EAR	3	4	[0, 0, 0]	n/a	FR1	3	R1281E
1100.642	1.637	207607	WORD	n/a	n/a	SWAMP	4	4	[0, 0, 0]	n/a	FR1	3	R1281E
1102.279	0.965	209244	WORD_OFF	n/a	n/a	SWAMP	4	4	[0, 0, 0]	n/a	FR1	3	R1281E
1103.244	1.635	210209	WORD	n/a	n/a	SEA	5	4	[0, 0, 0]	n/a	FR1	3	R1281E
1104.879	0.785	211844	WORD_OFF	n/a	n/a	SEA	5	4	[0, 0, 0]	n/a	FR1	3	R1281E
1105.664	1.633	212629	WORD	n/a	n/a	RUG	6	4	[0, 0, 0]	n/a	FR1	3	R1281E
1107.297	1.017	214262	WORD_OFF	n/a	n/a	RUG	6	4	[0, 0, 0]	n/a	FR1	3	R1281E
1108.314	1.632	215279	WORD	n/a	n/a	BOARD	7	4	[0, 0, 0]	n/a	FR1	3	R1281E
1109.946	0.897	216911	WORD_OFF	n/a	n/a	BOARD	7	4	[0, 0, 0]	n/a	FR1	3	R1281E
1110.843	1.605	217808	WORD	n/a	n/a	PEAR	8	4	[0, 0, 0]	n/a	FR1	3	R1281E
1112.448	1.0	219413	WORD_OFF	n/a	n/a	PEAR	8	4	[0, 0, 0]	n/a	FR1	3	R1281E
1113.448	1.634	220413	WORD	n/a	n/a	SKY	9	4	[0, 0, 0]	n/a	FR1	3	R1281E
1115.082	1.045	222047	WORD_OFF	n/a	n/a	SKY	9	4	[0, 0, 0]	n/a	FR1	3	R1281E
1116.127	1.621	223092	WORD	n/a	n/a	PHONE	10	4	[0, 0, 0]	n/a	FR1	3	R1281E
1117.748	1.097	224713	WORD_OFF	n/a	n/a	PHONE	10	4	[0, 0, 0]	n/a	FR1	3	R1281E
1118.845	1.621	225810	WORD	n/a	n/a	TREE	11	4	[0, 0, 0]	n/a	FR1	3	R1281E
1120.466	0.816	227431	WORD_OFF	n/a	n/a	TREE	11	4	[0, 0, 0]	n/a	FR1	3	R1281E
1121.282	1.633	228247	WORD	n/a	n/a	CANE	12	4	[0, 0, 0]	n/a	FR1	3	R1281E
1122.915	0.001	229880	WORD_OFF	n/a	n/a	CANE	12	4	[0, 0, 0]	n/a	FR1	3	R1281E
1122.916	0.0	229881	DISTRACT_START	n/a	n/a	n/a	-999	4	[0, 0, 0]	n/a	FR1	3	R1281E
1122.916	0.0	229881	ENCODING_END	n/a	n/a	n/a	-999	4	[0, 0, 0]	n/a	FR1	3	R1281E
1122.916	0.016	229881	START	n/a	n/a	n/a	-999	4	[-999, -999, -999]	n/a	FR1	3	R1281E
1122.932	4.117	229897	PROB	4.117	n/a	n/a	-999	4	[6, 9, 2]	17	FR1	3	R1281E
1127.049	3.817	234013	PROB	3.817	n/a	n/a	-999	4	[1, 4, 5]	10	FR1	3	R1281E
1130.866	2.834	237830	PROB	2.834	n/a	n/a	-999	4	[4, 9, 1]	14	FR1	3	R1281E
1133.7	4.051	240664	PROB	4.051	n/a	n/a	-999	4	[1, 6, 5]	12	FR1	3	R1281E
1137.751	3.435	244715	PROB	3.435	n/a	n/a	-999	4	[5, 8, 8]	21	FR1	3	R1281E
1141.186	3.147	248150	PROB	3.147	n/a	n/a	-999	4	[7, 5, 6]	18	FR1	3	R1281E
1144.333	0.02	251297	STOP	n/a	n/a	n/a	-999	4	[-999, -999, -999]	n/a	FR1	3	R1281E
1144.353	0.62	251317	DISTRACT_END	n/a	n/a	n/a	-999	4	[0, 0, 0]	n/a	FR1	3	R1281E
1144.973	1.581	251937	RETRIEVAL_ORIENT_START	n/a	n/a	n/a	-999	4	[0, 0, 0]	n/a	FR1	3	R1281E
1146.554	0.0	253518	RETRIEVAL_ORIENT_END	n/a	n/a	n/a	-999	4	[0, 0, 0]	n/a	FR1	3	R1281E
1146.554	2.69	253518	REC_START	n/a	n/a	n/a	-999	4	[0, 0, 0]	n/a	FR1	3	R1281E
1149.244	23.61	256208	REC_WORD	23.61	n/a	CANE	12	4	[0, 0, 0]	n/a	FR1	3	R1281E
1172.854	3.71	279817	REC_WORD_VV	3.71	n/a	<>	-999	4	[0, 0, 0]	n/a	FR1	3	R1281E
1176.564	0.001	283527	REC_END	n/a	n/a	n/a	-999	4	[0, 0, 0]	n/a	FR1	3	R1281E
1176.565	0.01	283528	TRIAL_END	n/a	n/a	n/a	-999	4	[0, 0, 0]	n/a	FR1	3	R1281E
1176.575	0.0	283538	TRIAL_START	n/a	n/a	n/a	-999	5	[0, 0, 0]	n/a	FR1	3	R1281E
1176.575	0.0	283538	TRIAL	n/a	n/a	n/a	-999	5	[0, 0, 0]	n/a	FR1	3	R1281E
1176.575	53.977	283538	WAITING_START	n/a	n/a	n/a	-999	5	[0, 0, 0]	n/a	FR1	3	R1281E
1230.552	0.0	337513	WAITING_END	n/a	n/a	n/a	-999	5	[0, 0, 0]	n/a	FR1	3	R1281E
1230.552	10.429	337513	COUNTDOWN_START	n/a	n/a	n/a	-999	5	[0, 0, 0]	n/a	FR1	3	R1281E
1240.981	0.0	347942	COUNTDOWN_END	n/a	n/a	n/a	-999	5	[0, 0, 0]	n/a	FR1	3	R1281E
1240.981	1.139	347942	ORIENT_START	n/a	n/a	n/a	-999	5	[0, 0, 0]	n/a	FR1	3	R1281E
1242.12	0.001	349081	ORIENT_END	n/a	n/a	n/a	-999	5	[0, 0, 0]	n/a	FR1	3	R1281E
1242.121	0.95	349082	ENCODING_START	n/a	n/a	n/a	-999	5	[0, 0, 0]	n/a	FR1	3	R1281E
1243.071	1.632	350031	WORD	n/a	n/a	ROSE	1	5	[0, 0, 0]	n/a	FR1	3	R1281E
1244.703	1.062	351663	WORD_OFF	n/a	n/a	ROSE	1	5	[0, 0, 0]	n/a	FR1	3	R1281E
1245.765	1.606	352725	WORD	n/a	n/a	WORLD	2	5	[0, 0, 0]	n/a	FR1	3	R1281E
1247.371	0.845	354331	WORD_OFF	n/a	n/a	WORLD	2	5	[0, 0, 0]	n/a	FR1	3	R1281E
1248.216	1.622	355176	WORD	n/a	n/a	CORD	3	5	[0, 0, 0]	n/a	FR1	3	R1281E
1249.838	0.978	356798	WORD_OFF	n/a	n/a	CORD	3	5	[0, 0, 0]	n/a	FR1	3	R1281E
1250.816	1.623	357776	WORD	n/a	n/a	HOUSE	4	5	[0, 0, 0]	n/a	FR1	3	R1281E
1252.439	1.132	359399	WORD_OFF	n/a	n/a	HOUSE	4	5	[0, 0, 0]	n/a	FR1	3	R1281E
1253.571	1.635	360531	WORD	n/a	n/a	WALL	5	5	[0, 0, 0]	n/a	FR1	3	R1281E
1255.206	1.121	362166	WORD_OFF	n/a	n/a	WALL	5	5	[0, 0, 0]	n/a	FR1	3	R1281E
1256.327	1.628	363287	WORD	n/a	n/a	FISH	6	5	[0, 0, 0]	n/a	FR1	3	R1281E
1257.955	0.834	364915	WORD_OFF	n/a	n/a	FISH	6	5	[0, 0, 0]	n/a	FR1	3	R1281E
1258.789	1.618	365749	WORD	n/a	n/a	SHRIMP	7	5	[0, 0, 0]	n/a	FR1	3	R1281E
1260.407	0.76	367367	WORD_OFF	n/a	n/a	SHRIMP	7	5	[0, 0, 0]	n/a	FR1	3	R1281E
1261.167	1.623	368127	WORD	n/a	n/a	JAIL	8	5	[0, 0, 0]	n/a	FR1	3	R1281E
1262.79	1.112	369750	WORD_OFF	n/a	n/a	JAIL	8	5	[0, 0, 0]	n/a	FR1	3	R1281E
1263.902	1.606	370862	WORD	n/a	n/a	SMILE	9	5	[0, 0, 0]	n/a	FR1	3	R1281E
1265.508	0.924	372468	WORD_OFF	n/a	n/a	SMILE	9	5	[0, 0, 0]	n/a	FR1	3	R1281E
1266.432	1.625	373392	WORD	n/a	n/a	NEST	10	5	[0, 0, 0]	n/a	FR1	3	R1281E
1268.057	1.041	375017	WORD_OFF	n/a	n/a	NEST	10	5	[0, 0, 0]	n/a	FR1	3	R1281E
1269.098	1.626	376058	WORD	n/a	n/a	SEAT	11	5	[0, 0, 0]	n/a	FR1	3	R1281E
1270.724	0.988	377684	WORD_OFF	n/a	n/a	SEAT	11	5	[0, 0, 0]	n/a	FR1	3	R1281E
1271.712	1.614	378671	WORD	n/a	n/a	TOAST	12	5	[0, 0, 0]	n/a	FR1	3	R1281E
1273.326	0.0	380285	WORD_OFF	n/a	n/a	TOAST	12	5	[0, 0, 0]	n/a	FR1	3	R1281E
1273.326	0.001	380285	ENCODING_END	n/a	n/a	n/a	-999	5	[0, 0, 0]	n/a	FR1	3	R1281E
1273.327	0.0	380286	DISTRACT_START	n/a	n/a	n/a	-999	5	[0, 0, 0]	n/a	FR1	3	R1281E
1273.327	0.015	380286	START	n/a	n/a	n/a	-999	5	[-999, -999, -999]	n/a	FR1	3	R1281E
1273.342	3.951	380301	PROB	3.951	n/a	n/a	-999	5	[4, 1, 1]	6	FR1	3	R1281E
1277.293	3.834	384252	PROB	3.834	n/a	n/a	-999	5	[6, 1, 7]	14	FR1	3	R1281E
1281.127	2.583	388086	PROB	2.583	n/a	n/a	-999	5	[9, 6, 3]	18	FR1	3	R1281E
1283.71	3.601	390669	PROB	3.601	n/a	n/a	-999	5	[9, 9, 3]	21	FR1	3	R1281E
1287.311	3.134	394270	PROB	3.134	n/a	n/a	-999	5	[8, 4, 8]	20	FR1	3	R1281E
1290.445	3.588	397404	PROB	3.588	n/a	n/a	-999	5	[2, 9, 8]	19	FR1	3	R1281E
1294.033	0.012	400992	STOP	n/a	n/a	n/a	-999	5	[-999, -999, -999]	n/a	FR1	3	R1281E
1294.045	0.569	401004	DISTRACT_END	n/a	n/a	n/a	-999	5	[0, 0, 0]	n/a	FR1	3	R1281E
1294.614	1.699	401573	RETRIEVAL_ORIENT_START	n/a	n/a	n/a	-999	5	[0, 0, 0]	n/a	FR1	3	R1281E
1296.313	0.0	403272	RETRIEVAL_ORIENT_END	n/a	n/a	n/a	-999	5	[0, 0, 0]	n/a	FR1	3	R1281E
1296.313	0.754	403272	REC_START	n/a	n/a	n/a	-999	5	[0, 0, 0]	n/a	FR1	3	R1281E
1297.067	1.805	404026	REC_WORD	1.805	n/a	FISH	6	5	[0, 0, 0]	n/a	FR1	3	R1281E
1298.872	2.777	405831	REC_WORD	2.777	n/a	SHRIMP	7	5	[0, 0, 0]	n/a	FR1	3	R1281E
1301.649	2.775	408607	REC_WORD	2.775	n/a	SMILE	9	5	[0, 0, 0]	n/a	FR1	3	R1281E
1304.424	5.415	411382	REC_WORD	5.415	n/a	JAIL	8	5	[0, 0, 0]	n/a	FR1	3	R1281E
1309.839	2.395	416797	REC_WORD	2.395	n/a	HOUSE	4	5	[0, 0, 0]	n/a	FR1	3	R1281E
1312.234	10.3	419192	REC_WORD	10.3	n/a	ROSE	1	5	[0, 0, 0]	n/a	FR1	3	R1281E
1322.534	3.793	429492	REC_WORD	3.793	n/a	TIME	-999	5	[0, 0, 0]	n/a	FR1	3	R1281E
1326.327	0.0	433285	TRIAL_END	n/a	n/a	n/a	-999	5	[0, 0, 0]	n/a	FR1	3	R1281E
1326.327	0.012	433285	REC_END	n/a	n/a	n/a	-999	5	[0, 0, 0]	n/a	FR1	3	R1281E
1326.339	0.0	433297	TRIAL_START	n/a	n/a	n/a	-999	6	[0, 0, 0]	n/a	FR1	3	R1281E
1326.339	0.0	433297	TRIAL	n/a	n/a	n/a	-999	6	[0, 0, 0]	n/a	FR1	3	R1281E
1326.339	14.331	433297	WAITING_START	n/a	n/a	n/a	-999	6	[0, 0, 0]	n/a	FR1	3	R1281E
1340.67	0.0	447627	WAITING_END	n/a	n/a	n/a	-999	6	[0, 0, 0]	n/a	FR1	3	R1281E
1340.67	10.428	447627	COUNTDOWN_START	n/a	n/a	n/a	-999	6	[0, 0, 0]	n/a	FR1	3	R1281E
1351.098	0.001	458055	COUNTDOWN_END	n/a	n/a	n/a	-999	6	[0, 0, 0]	n/a	FR1	3	R1281E
1351.099	1.041	458056	ORIENT_START	n/a	n/a	n/a	-999	6	[0, 0, 0]	n/a	FR1	3	R1281E
1352.14	0.0	459097	ORIENT_END	n/a	n/a	n/a	-999	6	[0, 0, 0]	n/a	FR1	3	R1281E
1352.14	0.831	459097	ENCODING_START	n/a	n/a	n/a	-999	6	[0, 0, 0]	n/a	FR1	3	R1281E
1352.971	1.635	459928	WORD	n/a	n/a	TOOL	1	6	[0, 0, 0]	n/a	FR1	3	R1281E
1354.606	1.126	461563	WORD_OFF	n/a	n/a	TOOL	1	6	[0, 0, 0]	n/a	FR1	3	R1281E
1355.732	1.625	462689	WORD	n/a	n/a	CROWN	2	6	[0, 0, 0]	n/a	FR1	3	R1281E
1357.357	0.789	464314	WORD_OFF	n/a	n/a	CROWN	2	6	[0, 0, 0]	n/a	FR1	3	R1281E
1358.146	1.627	465103	WORD	n/a	n/a	EEL	3	6	[0, 0, 0]	n/a	FR1	3	R1281E
1359.773	1.001	466729	WORD_OFF	n/a	n/a	EEL	3	6	[0, 0, 0]	n/a	FR1	3	R1281E
1360.774	1.634	467730	WORD	n/a	n/a	STEAM	4	6	[0, 0, 0]	n/a	FR1	3	R1281E
1362.408	1.034	469364	WORD_OFF	n/a	n/a	STEAM	4	6	[0, 0, 0]	n/a	FR1	3	R1281E
1363.442	1.633	470398	WORD	n/a	n/a	SHIRT	5	6	[0, 0, 0]	n/a	FR1	3	R1281E
1365.075	0.93	472031	WORD_OFF	n/a	n/a	SHIRT	5	6	[0, 0, 0]	n/a	FR1	3	R1281E
1366.005	1.636	472961	WORD	n/a	n/a	BAND	6	6	[0, 0, 0]	n/a	FR1	3	R1281E
1367.641	0.954	474597	WORD_OFF	n/a	n/a	BAND	6	6	[0, 0, 0]	n/a	FR1	3	R1281E
1368.595	1.631	475551	WORD	n/a	n/a	FORT	7	6	[0, 0, 0]	n/a	FR1	3	R1281E
1370.226	1.061	477182	WORD_OFF	n/a	n/a	FORT	7	6	[0, 0, 0]	n/a	FR1	3	R1281E
1371.287	1.622	478243	WORD	n/a	n/a	STEAK	8	6	[0, 0, 0]	n/a	FR1	3	R1281E
1372.909	0.921	479865	WORD_OFF	n/a	n/a	STEAK	8	6	[0, 0, 0]	n/a	FR1	3	R1281E
1373.83	1.63	480786	WORD	n/a	n/a	DEER	9	6	[0, 0, 0]	n/a	FR1	3	R1281E
1375.46	0.895	482416	WORD_OFF	n/a	n/a	DEER	9	6	[0, 0, 0]	n/a	FR1	3	R1281E
1376.355	1.622	483311	WORD	n/a	n/a	SOUP	10	6	[0, 0, 0]	n/a	FR1	3	R1281E
1377.977	1.003	484933	WORD_OFF	n/a	n/a	SOUP	10	6	[0, 0, 0]	n/a	FR1	3	R1281E
1378.98	1.63	485936	WORD	n/a	n/a	BEE	11	6	[0, 0, 0]	n/a	FR1	3	R1281E
1380.61	0.921	487566	WORD_OFF	n/a	n/a	BEE	11	6	[0, 0, 0]	n/a	FR1	3	R1281E
1381.531	1.631	488487	WORD	n/a	n/a	COIN	12	6	[0, 0, 0]	n/a	FR1	3	R1281E
1383.162	0.0	490118	ENCODING_END	n/a	n/a	n/a	-999	6	[0, 0, 0]	n/a	FR1	3	R1281E
1383.162	0.0	490118	DISTRACT_START	n/a	n/a	n/a	-999	6	[0, 0, 0]	n/a	FR1	3	R1281E
1383.162	0.0	490118	WORD_OFF	n/a	n/a	COIN	12	6	[0, 0, 0]	n/a	FR1	3	R1281E
1383.162	0.016	490118	START	n/a	n/a	n/a	-999	6	[-999, -999, -999]	n/a	FR1	3	R1281E
1383.178	3.55	490134	PROB	3.55	n/a	n/a	-999	6	[1, 6, 5]	12	FR1	3	R1281E
1386.728	2.283	493684	PROB	2.283	n/a	n/a	-999	6	[2, 5, 5]	12	FR1	3	R1281E
1389.011	3.801	495966	PROB	3.801	n/a	n/a	-999	6	[1, 9, 9]	19	FR1	3	R1281E
1392.812	4.168	499767	PROB	4.168	n/a	n/a	-999	6	[7, 4, 8]	19	FR1	3	R1281E
1396.98	3.8	503935	PROB	3.8	n/a	n/a	-999	6	[2, 5, 7]	14	FR1	3	R1281E
1400.78	3.403	507735	PROB	3.403	n/a	n/a	-999	6	[3, 4, 1]	8	FR1	3	R1281E
1404.183	0.016	511138	STOP	n/a	n/a	n/a	-999	6	[-999, -999, -999]	n/a	FR1	3	R1281E
1404.199	0.51	511154	DISTRACT_END	n/a	n/a	n/a	-999	6	[0, 0, 0]	n/a	FR1	3	R1281E
1404.709	1.557	511664	RETRIEVAL_ORIENT_START	n/a	n/a	n/a	-999	6	[0, 0, 0]	n/a	FR1	3	R1281E
1406.266	0.0	513221	RETRIEVAL_ORIENT_END	n/a	n/a	n/a	-999	6	[0, 0, 0]	n/a	FR1	3	R1281E
1406.266	1.669	513221	REC_START	n/a	n/a	n/a	-999	6	[0, 0, 0]	n/a	FR1	3	R1281E
1407.935	4.075	514890	REC_WORD	4.075	n/a	STEAM	4	6	[0, 0, 0]	n/a	FR1	3	R1281E
1412.01	9.48	518965	REC_WORD	9.48	n/a	CROWN	2	6	[0, 0, 0]	n/a	FR1	3	R1281E
1421.49	8.385	528444	REC_WORD	8.385	n/a	EEL	3	6	[0, 0, 0]	n/a	FR1	3	R1281E
1429.875	6.403	536829	REC_WORD	6.403	n/a	CAKE	-999	6	[0, 0, 0]	n/a	FR1	3	R1281E
1436.278	0.0	543232	REC_END	n/a	n/a	n/a	-999	6	[0, 0, 0]	n/a	FR1	3	R1281E
1436.278	0.012	543232	TRIAL_END	n/a	n/a	n/a	-999	6	[0, 0, 0]	n/a	FR1	3	R1281E
1436.29	0.0	543244	TRIAL_START	n/a	n/a	n/a	-999	7	[0, 0, 0]	n/a	FR1	3	R1281E
1436.29	0.0	543244	TRIAL	n/a	n/a	n/a	-999	7	[0, 0, 0]	n/a	FR1	3	R1281E
1436.29	11.883	543244	WAITING_START	n/a	n/a	n/a	-999	7	[0, 0, 0]	n/a	FR1	3	R1281E
1448.173	0.0	555126	WAITING_END	n/a	n/a	n/a	-999	7	[0, 0, 0]	n/a	FR1	3	R1281E
1448.173	10.43	555126	COUNTDOWN_START	n/a	n/a	n/a	-999	7	[0, 0, 0]	n/a	FR1	3	R1281E
1458.603	0.0	565556	COUNTDOWN_END	n/a	n/a	n/a	-999	7	[0, 0, 0]	n/a	FR1	3	R1281E
1458.603	1.054	565556	ORIENT_START	n/a	n/a	n/a	-999	7	[0, 0, 0]	n/a	FR1	3	R1281E
1459.657	0.001	566610	ORIENT_END	n/a	n/a	n/a	-999	7	[0, 0, 0]	n/a	FR1	3	R1281E
1459.658	1.053	566611	ENCODING_START	n/a	n/a	n/a	-999	7	[0, 0, 0]	n/a	FR1	3	R1281E
1460.711	1.631	567664	WORD	n/a	n/a	TANK	1	7	[0, 0, 0]	n/a	FR1	3	R1281E
1462.342	0.921	569295	WORD_OFF	n/a	n/a	TANK	1	7	[0, 0, 0]	n/a	FR1	3	R1281E
1463.263	1.629	570216	WORD	n/a	n/a	FOG	2	7	[0, 0, 0]	n/a	FR1	3	R1281E
1464.892	0.896	571845	WORD_OFF	n/a	n/a	FOG	2	7	[0, 0, 0]	n/a	FR1	3	R1281E
1465.788	1.638	572741	WORD	n/a	n/a	FLUTE	3	7	[0, 0, 0]	n/a	FR1	3	R1281E
1467.426	1.134	574379	WORD_OFF	n/a	n/a	FLUTE	3	7	[0, 0, 0]	n/a	FR1	3	R1281E
1468.56	1.617	575513	WORD	n/a	n/a	TRAY	4	7	[0, 0, 0]	n/a	FR1	3	R1281E
1470.177	1.02	577130	WORD_OFF	n/a	n/a	TRAY	4	7	[0, 0, 0]	n/a	FR1	3	R1281E
1471.197	1.629	578150	WORD	n/a	n/a	OAR	5	7	[0, 0, 0]	n/a	FR1	3	R1281E
1472.826	0.819	579779	WORD_OFF	n/a	n/a	OAR	5	7	[0, 0, 0]	n/a	FR1	3	R1281E
1473.645	1.633	580598	WORD	n/a	n/a	PET	6	7	[0, 0, 0]	n/a	FR1	3	R1281E
1475.278	1.124	582230	WORD_OFF	n/a	n/a	PET	6	7	[0, 0, 0]	n/a	FR1	3	R1281E
1476.402	1.625	583354	WORD	n/a	n/a	SPARK	7	7	[0, 0, 0]	n/a	FR1	3	R1281E
1478.027	0.755	584979	WORD_OFF	n/a	n/a	SPARK	7	7	[0, 0, 0]	n/a	FR1	3	R1281E
1478.782	1.63	585734	WORD	n/a	n/a	DART	8	7	[0, 0, 0]	n/a	FR1	3	R1281E
1480.412	0.759	587364	WORD_OFF	n/a	n/a	DART	8	7	[0, 0, 0]	n/a	FR1	3	R1281E
1481.171	1.624	588123	WORD	n/a	n/a	SOAP	9	7	[0, 0, 0]	n/a	FR1	3	R1281E
1482.795	0.929	589747	WORD_OFF	n/a	n/a	SOAP	9	7	[0, 0, 0]	n/a	FR1	3	R1281E
1483.724	1.606	590676	WORD	n/a	n/a	SALT	10	7	[0, 0, 0]	n/a	FR1	3	R1281E
1485.33	1.03	592282	WORD_OFF	n/a	n/a	SALT	10	7	[0, 0, 0]	n/a	FR1	3	R1281E
1486.36	1.636	593312	WORD	n/a	n/a	HEART	11	7	[0, 0, 0]	n/a	FR1	3	R1281E
1487.996	0.903	594948	WORD_OFF	n/a	n/a	HEART	11	7	[0, 0, 0]	n/a	FR1	3	R1281E
1488.899	1.631	595851	WORD	n/a	n/a	FLOOR	12	7	[0, 0, 0]	n/a	FR1	3	R1281E
1490.53	0.001	597482	WORD_OFF	n/a	n/a	FLOOR	12	7	[0, 0, 0]	n/a	FR1	3	R1281E
1490.531	0.0	597483	ENCODING_END	n/a	n/a	n/a	-999	7	[0, 0, 0]	n/a	FR1	3	R1281E
1490.531	0.0	597483	DISTRACT_START	n/a	n/a	n/a	-999	7	[0, 0, 0]	n/a	FR1	3	R1281E
1490.531	0.016	597483	START	n/a	n/a	n/a	-999	7	[-999, -999, -999]	n/a	FR1	3	R1281E
1490.547	5.868	597499	PROB	5.868	n/a	n/a	-999	7	[6, 8, 9]	23	FR1	3	R1281E
1496.415	4.633	603367	PROB	4.633	n/a	n/a	-999	7	[9, 8, 7]	24	FR1	3	R1281E
1501.048	3.235	608000	PROB	3.235	n/a	n/a	-999	7	[5, 2, 9]	16	FR1	3	R1281E
1504.283	3.934	611234	PROB	3.934	n/a	n/a	-999	7	[6, 3, 6]	15	FR1	3	R1281E
1508.217	3.987	615168	PROB	3.987	n/a	n/a	-999	7	[5, 3, 8]	16	FR1	3	R1281E
1512.204	0.014	619155	STOP	n/a	n/a	n/a	-999	7	[-999, -999, -999]	n/a	FR1	3	R1281E
1512.218	0.645	619169	DISTRACT_END	n/a	n/a	n/a	-999	7	[0, 0, 0]	n/a	FR1	3	R1281E
1512.863	1.538	619814	RETRIEVAL_ORIENT_START	n/a	n/a	n/a	-999	7	[0, 0, 0]	n/a	FR1	3	R1281E
1514.401	0.0	621352	RETRIEVAL_ORIENT_END	n/a	n/a	n/a	-999	7	[0, 0, 0]	n/a	FR1	3	R1281E
1514.401	29.994	621352	REC_START	n/a	n/a	n/a	-999	7	[0, 0, 0]	n/a	FR1	3	R1281E
1544.395	0.017	651345	REC_WORD_VV	0.017	n/a	<>	-999	7	[0, 0, 0]	n/a	FR1	3	R1281E
1544.412	0.0	651362	REC_END	n/a	n/a	n/a	-999	7	[0, 0, 0]	n/a	FR1	3	R1281E
1544.412	0.012	651362	TRIAL_END	n/a	n/a	n/a	-999	7	[0, 0, 0]	n/a	FR1	3	R1281E
1544.424	0.0	651374	TRIAL	n/a	n/a	n/a	-999	8	[0, 0, 0]	n/a	FR1	3	R1281E
1544.424	0.0	651374	WAITING_START	n/a	n/a	n/a	-999	8	[0, 0, 0]	n/a	FR1	3	R1281E
1544.424	51.491	651374	TRIAL_START	n/a	n/a	n/a	-999	8	[0, 0, 0]	n/a	FR1	3	R1281E
1595.915	0.0	702863	WAITING_END	n/a	n/a	n/a	-999	8	[0, 0, 0]	n/a	FR1	3	R1281E
1595.915	10.429	702863	COUNTDOWN_START	n/a	n/a	n/a	-999	8	[0, 0, 0]	n/a	FR1	3	R1281E
1606.344	0.0	713292	COUNTDOWN_END	n/a	n/a	n/a	-999	8	[0, 0, 0]	n/a	FR1	3	R1281E
1606.344	1.024	713292	ORIENT_START	n/a	n/a	n/a	-999	8	[0, 0, 0]	n/a	FR1	3	R1281E
1607.368	0.0	714316	ORIENT_END	n/a	n/a	n/a	-999	8	[0, 0, 0]	n/a	FR1	3	R1281E
1607.368	0.909	714316	ENCODING_START	n/a	n/a	n/a	-999	8	[0, 0, 0]	n/a	FR1	3	R1281E
1608.277	1.623	715225	WORD	n/a	n/a	BATH	1	8	[0, 0, 0]	n/a	FR1	3	R1281E
1609.9	1.148	716848	WORD_OFF	n/a	n/a	BATH	1	8	[0, 0, 0]	n/a	FR1	3	R1281E
1611.048	1.636	717996	WORD	n/a	n/a	TRUCK	2	8	[0, 0, 0]	n/a	FR1	3	R1281E
1612.684	0.842	719632	WORD_OFF	n/a	n/a	TRUCK	2	8	[0, 0, 0]	n/a	FR1	3	R1281E
1613.526	1.626	720474	WORD	n/a	n/a	WING	3	8	[0, 0, 0]	n/a	FR1	3	R1281E
1615.152	0.935	722100	WORD_OFF	n/a	n/a	WING	3	8	[0, 0, 0]	n/a	FR1	3	R1281E
1616.087	1.631	723035	WORD	n/a	n/a	ANT	4	8	[0, 0, 0]	n/a	FR1	3	R1281E
1617.718	1.007	724666	WORD_OFF	n/a	n/a	ANT	4	8	[0, 0, 0]	n/a	FR1	3	R1281E
1618.725	1.628	725673	WORD	n/a	n/a	ICE	5	8	[0, 0, 0]	n/a	FR1	3	R1281E
1620.353	1.114	727300	WORD_OFF	n/a	n/a	ICE	5	8	[0, 0, 0]	n/a	FR1	3	R1281E
1621.467	1.637	728414	WORD	n/a	n/a	LEG	6	8	[0, 0, 0]	n/a	FR1	3	R1281E
1623.104	1.015	730051	WORD_OFF	n/a	n/a	LEG	6	8	[0, 0, 0]	n/a	FR1	3	R1281E
1624.119	1.634	731066	WORD	n/a	n/a	DUCK	7	8	[0, 0, 0]	n/a	FR1	3	R1281E
1625.753	1.026	732700	WORD_OFF	n/a	n/a	DUCK	7	8	[0, 0, 0]	n/a	FR1	3	R1281E
1626.779	1.626	733726	WORD	n/a	n/a	GOLD	8	8	[0, 0, 0]	n/a	FR1	3	R1281E
1628.405	0.945	735352	WORD_OFF	n/a	n/a	GOLD	8	8	[0, 0, 0]	n/a	FR1	3	R1281E
1629.35	1.637	736297	WORD	n/a	n/a	GRASS	9	8	[0, 0, 0]	n/a	FR1	3	R1281E
1630.987	1.085	737934	WORD_OFF	n/a	n/a	GRASS	9	8	[0, 0, 0]	n/a	FR1	3	R1281E
1632.072	1.633	739019	WORD	n/a	n/a	SOCK	10	8	[0, 0, 0]	n/a	FR1	3	R1281E
1633.705	0.899	740652	WORD_OFF	n/a	n/a	SOCK	10	8	[0, 0, 0]	n/a	FR1	3	R1281E
1634.604	1.635	741551	WORD	n/a	n/a	HOOK	11	8	[0, 0, 0]	n/a	FR1	3	R1281E
1636.239	1.023	743186	WORD_OFF	n/a	n/a	HOOK	11	8	[0, 0, 0]	n/a	FR1	3	R1281E
1637.262	1.627	744209	WORD	n/a	n/a	BANK	12	8	[0, 0, 0]	n/a	FR1	3	R1281E
1638.889	0.0	745836	WORD_OFF	n/a	n/a	BANK	12	8	[0, 0, 0]	n/a	FR1	3	R1281E
1638.889	0.0	745836	ENCODING_END	n/a	n/a	n/a	-999	8	[0, 0, 0]	n/a	FR1	3	R1281E
1638.889	0.001	745836	DISTRACT_START	n/a	n/a	n/a	-999	8	[0, 0, 0]	n/a	FR1	3	R1281E
1638.89	0.015	745837	START	n/a	n/a	n/a	-999	8	[-999, -999, -999]	n/a	FR1	3	R1281E
1638.905	4.235	745852	PROB	4.235	n/a	n/a	-999	8	[9, 5, 1]	15	FR1	3	R1281E
1643.14	2.583	750087	PROB	2.583	n/a	n/a	-999	8	[4, 5, 5]	14	FR1	3	R1281E
1645.723	3.001	752670	PROB	3.001	n/a	n/a	-999	8	[2, 2, 6]	10	FR1	3	R1281E
1648.724	2.784	755671	PROB	2.784	n/a	n/a	-999	8	[1, 9, 2]	12	FR1	3	R1281E
1651.508	2.417	758454	PROB	2.417	n/a	n/a	-999	8	[2, 5, 4]	11	FR1	3	R1281E
1653.925	4.285	760871	PROB	4.285	n/a	n/a	-999	8	[7, 5, 1]	13	FR1	3	R1281E
1658.21	3.052	765156	PROB	3.052	n/a	n/a	-999	8	[5, 8, 5]	18	FR1	3	R1281E
1661.262	0.015	768208	STOP	n/a	n/a	n/a	-999	8	[-999, -999, -999]	n/a	FR1	3	R1281E
1661.277	0.636	768223	DISTRACT_END	n/a	n/a	n/a	-999	8	[0, 0, 0]	n/a	FR1	3	R1281E
1661.913	1.713	768859	RETRIEVAL_ORIENT_START	n/a	n/a	n/a	-999	8	[0, 0, 0]	n/a	FR1	3	R1281E
1663.626	0.001	770572	RETRIEVAL_ORIENT_END	n/a	n/a	n/a	-999	8	[0, 0, 0]	n/a	FR1	3	R1281E
1663.627	6.944	770573	REC_START	n/a	n/a	n/a	-999	8	[0, 0, 0]	n/a	FR1	3	R1281E
1670.571	12.024	777517	REC_WORD	12.024	n/a	TRAIL	-999	8	[0, 0, 0]	n/a	FR1	3	R1281E
1682.595	2.35	789540	REC_WORD	2.35	n/a	GRASS	9	8	[0, 0, 0]	n/a	FR1	3	R1281E
1684.945	8.692	791890	REC_WORD	8.692	n/a	GOLD	8	8	[0, 0, 0]	n/a	FR1	3	R1281E
1693.637	0.0	800582	REC_END	n/a	n/a	n/a	-999	8	[0, 0, 0]	n/a	FR1	3	R1281E
1693.637	0.012	800582	TRIAL_END	n/a	n/a	n/a	-999	8	[0, 0, 0]	n/a	FR1	3	R1281E
1693.649	0.0	800594	TRIAL_START	n/a	n/a	n/a	-999	9	[0, 0, 0]	n/a	FR1	3	R1281E
1693.649	0.0	800594	TRIAL	n/a	n/a	n/a	-999	9	[0, 0, 0]	n/a	FR1	3	R1281E
1693.649	74.012	800594	WAITING_START	n/a	n/a	n/a	-999	9	[0, 0, 0]	n/a	FR1	3	R1281E
1767.661	0.001	874603	WAITING_END	n/a	n/a	n/a	-999	9	[0, 0, 0]	n/a	FR1	3	R1281E
1767.662	10.429	874604	COUNTDOWN_START	n/a	n/a	n/a	-999	9	[0, 0, 0]	n/a	FR1	3	R1281E
1778.091	0.0	885033	COUNTDOWN_END	n/a	n/a	n/a	-999	9	[0, 0, 0]	n/a	FR1	3	R1281E
1778.091	1.257	885033	ORIENT_START	n/a	n/a	n/a	-999	9	[0, 0, 0]	n/a	FR1	3	R1281E
1779.348	0.0	886290	ORIENT_END	n/a	n/a	n/a	-999	9	[0, 0, 0]	n/a	FR1	3	R1281E
1779.348	1.117	886290	ENCODING_START	n/a	n/a	n/a	-999	9	[0, 0, 0]	n/a	FR1	3	R1281E
1780.465	1.633	887407	WORD	n/a	n/a	MAT	1	9	[0, 0, 0]	n/a	FR1	3	R1281E
1782.098	0.821	889040	WORD_OFF	n/a	n/a	MAT	1	9	[0, 0, 0]	n/a	FR1	3	R1281E
1782.919	1.613	889861	WORD	n/a	n/a	MAZE	2	9	[0, 0, 0]	n/a	FR1	3	R1281E
1784.532	1.053	891474	WORD_OFF	n/a	n/a	MAZE	2	9	[0, 0, 0]	n/a	FR1	3	R1281E
1785.585	1.614	892527	WORD	n/a	n/a	LAMP	3	9	[0, 0, 0]	n/a	FR1	3	R1281E
1787.199	0.832	894141	WORD_OFF	n/a	n/a	LAMP	3	9	[0, 0, 0]	n/a	FR1	3	R1281E
1788.031	1.634	894973	WORD	n/a	n/a	PIG	4	9	[0, 0, 0]	n/a	FR1	3	R1281E
1789.665	0.937	896607	WORD_OFF	n/a	n/a	PIG	4	9	[0, 0, 0]	n/a	FR1	3	R1281E
1790.602	1.614	897544	WORD	n/a	n/a	SLIME	5	9	[0, 0, 0]	n/a	FR1	3	R1281E
1792.216	1.008	899158	WORD_OFF	n/a	n/a	SLIME	5	9	[0, 0, 0]	n/a	FR1	3	R1281E
1793.224	1.625	900166	WORD	n/a	n/a	VAN	6	9	[0, 0, 0]	n/a	FR1	3	R1281E
1794.849	0.838	901790	WORD_OFF	n/a	n/a	VAN	6	9	[0, 0, 0]	n/a	FR1	3	R1281E
1795.687	1.63	902628	WORD	n/a	n/a	YARD	7	9	[0, 0, 0]	n/a	FR1	3	R1281E
1797.317	1.118	904258	WORD_OFF	n/a	n/a	YARD	7	9	[0, 0, 0]	n/a	FR1	3	R1281E
1798.435	1.632	905376	WORD	n/a	n/a	SHIELD	8	9	[0, 0, 0]	n/a	FR1	3	R1281E
1800.067	0.757	907008	WORD_OFF	n/a	n/a	SHIELD	8	9	[0, 0, 0]	n/a	FR1	3	R1281E
1800.824	1.628	907765	WORD	n/a	n/a	BOOT	9	9	[0, 0, 0]	n/a	FR1	3	R1281E
1802.452	1.025	909393	WORD_OFF	n/a	n/a	BOOT	9	9	[0, 0, 0]	n/a	FR1	3	R1281E
1803.477	1.625	910418	WORD	n/a	n/a	ROCK	10	9	[0, 0, 0]	n/a	FR1	3	R1281E
1805.102	0.846	912043	WORD_OFF	n/a	n/a	ROCK	10	9	[0, 0, 0]	n/a	FR1	3	R1281E
1805.948	1.621	912889	WORD	n/a	n/a	JUICE	11	9	[0, 0, 0]	n/a	FR1	3	R1281E
1807.569	1.084	914510	WORD_OFF	n/a	n/a	JUICE	11	9	[0, 0, 0]	n/a	FR1	3	R1281E
1808.653	1.633	915594	WORD	n/a	n/a	GUARD	12	9	[0, 0, 0]	n/a	FR1	3	R1281E
1810.286	0.001	917227	WORD_OFF	n/a	n/a	GUARD	12	9	[0, 0, 0]	n/a	FR1	3	R1281E
1810.287	0.0	917228	ENCODING_END	n/a	n/a	n/a	-999	9	[0, 0, 0]	n/a	FR1	3	R1281E
1810.287	0.0	917228	DISTRACT_START	n/a	n/a	n/a	-999	9	[0, 0, 0]	n/a	FR1	3	R1281E
1810.287	0.016	917228	START	n/a	n/a	n/a	-999	9	[-999, -999, -999]	n/a	FR1	3	R1281E
1810.303	4.7	917244	PROB	4.7	n/a	n/a	-999	9	[6, 7, 8]	21	FR1	3	R1281E
1815.003	8.668	921944	PROB	8.668	n/a	n/a	-999	9	[9, 7, 8]	23	FR1	3	R1281E
1823.671	9.475	930611	PROB	9.475	n/a	n/a	-999	9	[6, 7, 8]	21	FR1	3	R1281E
1833.146	0.011	940086	STOP	n/a	n/a	n/a	-999	9	[-999, -999, -999]	n/a	FR1	3	R1281E
1833.157	0.68	940097	DISTRACT_END	n/a	n/a	n/a	-999	9	[0, 0, 0]	n/a	FR1	3	R1281E
1833.837	1.637	940777	RETRIEVAL_ORIENT_START	n/a	n/a	n/a	-999	9	[0, 0, 0]	n/a	FR1	3	R1281E
1835.474	0.0	942414	RETRIEVAL_ORIENT_END	n/a	n/a	n/a	-999	9	[0, 0, 0]	n/a	FR1	3	R1281E
1835.474	2.689	942414	REC_START	n/a	n/a	n/a	-999	9	[0, 0, 0]	n/a	FR1	3	R1281E
1838.163	8.223	945103	REC_WORD_VV	8.223	n/a	<>	-999	9	[0, 0, 0]	n/a	FR1	3	R1281E
1846.386	7.2	953326	REC_WORD	7.2	n/a	POND	-999	9	[0, 0, 0]	n/a	FR1	3	R1281E
1853.586	1.827	960525	REC_WORD	1.827	n/a	SLIME	5	9	[0, 0, 0]	n/a	FR1	3	R1281E
1855.413	3.519	962352	REC_WORD	3.519	n/a	PIG	4	9	[0, 0, 0]	n/a	FR1	3	R1281E
1858.932	1.0	965871	REC_WORD	1.0	n/a	CAGE	-999	9	[0, 0, 0]	n/a	FR1	3	R1281E
1859.932	5.553	966871	REC_WORD_VV	5.553	n/a	<>	-999	9	[0, 0, 0]	n/a	FR1	3	R1281E
1865.485	0.0	972424	REC_END	n/a	n/a	n/a	-999	9	[0, 0, 0]	n/a	FR1	3	R1281E
1865.485	0.011	972424	TRIAL_END	n/a	n/a	n/a	-999	9	[0, 0, 0]	n/a	FR1	3	R1281E
1865.496	0.001	972435	TRIAL_START	n/a	n/a	n/a	-999	10	[0, 0, 0]	n/a	FR1	3	R1281E
1865.497	0.0	972436	TRIAL	n/a	n/a	n/a	-999	10	[0, 0, 0]	n/a	FR1	3	R1281E
1865.497	12.718	972436	WAITING_START	n/a	n/a	n/a	-999	10	[0, 0, 0]	n/a	FR1	3	R1281E
1878.215	0.0	985154	COUNTDOWN_START	n/a	n/a	n/a	-999	10	[0, 0, 0]	n/a	FR1	3	R1281E
1878.215	10.428	985154	WAITING_END	n/a	n/a	n/a	-999	10	[0, 0, 0]	n/a	FR1	3	R1281E
1888.643	0.0	995581	COUNTDOWN_END	n/a	n/a	n/a	-999	10	[0, 0, 0]	n/a	FR1	3	R1281E
1888.643	1.19	995581	ORIENT_START	n/a	n/a	n/a	-999	10	[0, 0, 0]	n/a	FR1	3	R1281E
1889.833	0.0	996771	ORIENT_END	n/a	n/a	n/a	-999	10	[0, 0, 0]	n/a	FR1	3	R1281E
1889.833	0.858	996771	ENCODING_START	n/a	n/a	n/a	-999	10	[0, 0, 0]	n/a	FR1	3	R1281E
1890.691	1.626	997629	WORD	n/a	n/a	MOTH	1	10	[0, 0, 0]	n/a	FR1	3	R1281E
1892.317	0.911	999255	WORD_OFF	n/a	n/a	MOTH	1	10	[0, 0, 0]	n/a	FR1	3	R1281E
1893.228	1.622	1000166	WORD	n/a	n/a	BARN	2	10	[0, 0, 0]	n/a	FR1	3	R1281E
1894.85	0.93	1001788	WORD_OFF	n/a	n/a	BARN	2	10	[0, 0, 0]	n/a	FR1	3	R1281E
1895.78	1.605	1002718	WORD	n/a	n/a	SHARK	3	10	[0, 0, 0]	n/a	FR1	3	R1281E
1897.385	0.82	1004323	WORD_OFF	n/a	n/a	SHARK	3	10	[0, 0, 0]	n/a	FR1	3	R1281E
1898.205	1.629	1005143	WORD	n/a	n/a	CASH	4	10	[0, 0, 0]	n/a	FR1	3	R1281E
1899.834	0.898	1006772	WORD_OFF	n/a	n/a	CASH	4	10	[0, 0, 0]	n/a	FR1	3	R1281E
1900.732	1.637	1007670	WORD	n/a	n/a	SHELL	5	10	[0, 0, 0]	n/a	FR1	3	R1281E
1902.369	1.109	1009307	WORD_OFF	n/a	n/a	SHELL	5	10	[0, 0, 0]	n/a	FR1	3	R1281E
1903.478	1.625	1010416	WORD	n/a	n/a	SLUSH	6	10	[0, 0, 0]	n/a	FR1	3	R1281E
1905.103	0.921	1012041	WORD_OFF	n/a	n/a	SLUSH	6	10	[0, 0, 0]	n/a	FR1	3	R1281E
1906.024	1.628	1012962	WORD	n/a	n/a	WHEEL	7	10	[0, 0, 0]	n/a	FR1	3	R1281E
1907.652	0.794	1014590	WORD_OFF	n/a	n/a	WHEEL	7	10	[0, 0, 0]	n/a	FR1	3	R1281E
1908.446	1.624	1015384	WORD	n/a	n/a	THREAD	8	10	[0, 0, 0]	n/a	FR1	3	R1281E
1910.07	1.089	1017008	WORD_OFF	n/a	n/a	THREAD	8	10	[0, 0, 0]	n/a	FR1	3	R1281E
1911.159	1.628	1018096	WORD	n/a	n/a	PIT	9	10	[0, 0, 0]	n/a	FR1	3	R1281E
1912.787	0.951	1019724	WORD_OFF	n/a	n/a	PIT	9	10	[0, 0, 0]	n/a	FR1	3	R1281E
1913.738	1.634	1020675	WORD	n/a	n/a	DOCK	10	10	[0, 0, 0]	n/a	FR1	3	R1281E
1915.372	1.062	1022309	WORD_OFF	n/a	n/a	DOCK	10	10	[0, 0, 0]	n/a	FR1	3	R1281E
1916.434	1.62	1023371	WORD	n/a	n/a	SHEET	11	10	[0, 0, 0]	n/a	FR1	3	R1281E
1918.054	1.007	1024991	WORD_OFF	n/a	n/a	SHEET	11	10	[0, 0, 0]	n/a	FR1	3	R1281E
1919.061	1.627	1025998	WORD	n/a	n/a	DESK	12	10	[0, 0, 0]	n/a	FR1	3	R1281E
1920.688	0.001	1027625	WORD_OFF	n/a	n/a	DESK	12	10	[0, 0, 0]	n/a	FR1	3	R1281E
1920.689	0.0	1027626	ENCODING_END	n/a	n/a	n/a	-999	10	[0, 0, 0]	n/a	FR1	3	R1281E
1920.689	0.0	1027626	DISTRACT_START	n/a	n/a	n/a	-999	10	[0, 0, 0]	n/a	FR1	3	R1281E
1920.689	0.015	1027626	START	n/a	n/a	n/a	-999	10	[-999, -999, -999]	n/a	FR1	3	R1281E
1920.704	3.868	1027641	PROB	3.868	n/a	n/a	-999	10	[6, 1, 9]	16	FR1	3	R1281E
1924.572	3.885	1031509	PROB	3.885	n/a	n/a	-999	10	[7, 2, 9]	18	FR1	3	R1281E
1928.457	2.399	1035394	PROB	2.399	n/a	n/a	-999	10	[1, 8, 3]	12	FR1	3	R1281E
1930.856	3.134	1037793	PROB	3.134	n/a	n/a	-999	10	[2, 9, 7]	18	FR1	3	R1281E
1933.99	4.034	1040927	PROB	4.034	n/a	n/a	-999	10	[7, 3, 4]	14	FR1	3	R1281E
1938.024	2.854	1044961	PROB	2.854	n/a	n/a	-999	10	[4, 5, 8]	17	FR1	3	R1281E
1940.878	0.013	1047814	STOP	n/a	n/a	n/a	-999	10	[-999, -999, -999]	n/a	FR1	3	R1281E
1940.891	0.666	1047827	DISTRACT_END	n/a	n/a	n/a	-999	10	[0, 0, 0]	n/a	FR1	3	R1281E
1941.557	1.603	1048493	RETRIEVAL_ORIENT_START	n/a	n/a	n/a	-999	10	[0, 0, 0]	n/a	FR1	3	R1281E
1943.16	0.0	1050096	RETRIEVAL_ORIENT_END	n/a	n/a	n/a	-999	10	[0, 0, 0]	n/a	FR1	3	R1281E
1943.16	0.988	1050096	REC_START	n/a	n/a	n/a	-999	10	[0, 0, 0]	n/a	FR1	3	R1281E
1944.148	29.022	1051084	REC_WORD	29.022	n/a	SHIELD	-999	10	[0, 0, 0]	n/a	FR1	3	R1281E
1973.17	0.0	1080105	REC_END	n/a	n/a	n/a	-999	10	[0, 0, 0]	n/a	FR1	3	R1281E
1973.17	0.011	1080105	TRIAL_END	n/a	n/a	n/a	-999	10	[0, 0, 0]	n/a	FR1	3	R1281E
1973.181	0.0	1080116	TRIAL_START	n/a	n/a	n/a	-999	11	[0, 0, 0]	n/a	FR1	3	R1281E
1973.181	0.001	1080116	TRIAL	n/a	n/a	n/a	-999	11	[0, 0, 0]	n/a	FR1	3	R1281E
1973.182	25.82	1080117	WAITING_START	n/a	n/a	n/a	-999	11	[0, 0, 0]	n/a	FR1	3	R1281E
1999.002	0.0	1105936	WAITING_END	n/a	n/a	n/a	-999	11	[0, 0, 0]	n/a	FR1	3	R1281E
1999.002	10.429	1105936	COUNTDOWN_START	n/a	n/a	n/a	-999	11	[0, 0, 0]	n/a	FR1	3	R1281E
2009.431	0.0	1116365	COUNTDOWN_END	n/a	n/a	n/a	-999	11	[0, 0, 0]	n/a	FR1	3	R1281E
2009.431	1.206	1116365	ORIENT_START	n/a	n/a	n/a	-999	11	[0, 0, 0]	n/a	FR1	3	R1281E
2010.637	0.001	1117571	ORIENT_END	n/a	n/a	n/a	-999	11	[0, 0, 0]	n/a	FR1	3	R1281E
2010.638	0.801	1117572	ENCODING_START	n/a	n/a	n/a	-999	11	[0, 0, 0]	n/a	FR1	3	R1281E
2011.439	1.633	1118373	WORD	n/a	n/a	ELF	1	11	[0, 0, 0]	n/a	FR1	3	R1281E
2013.072	0.939	1120006	WORD_OFF	n/a	n/a	ELF	1	11	[0, 0, 0]	n/a	FR1	3	R1281E
2014.011	1.627	1120945	WORD	n/a	n/a	FLAME	2	11	[0, 0, 0]	n/a	FR1	3	R1281E
2015.638	0.892	1122572	WORD_OFF	n/a	n/a	FLAME	2	11	[0, 0, 0]	n/a	FR1	3	R1281E
2016.53	1.626	1123464	WORD	n/a	n/a	STAR	3	11	[0, 0, 0]	n/a	FR1	3	R1281E
2018.156	0.983	1125090	WORD_OFF	n/a	n/a	STAR	3	11	[0, 0, 0]	n/a	FR1	3	R1281E
2019.139	1.633	1126073	WORD	n/a	n/a	SHIP	4	11	[0, 0, 0]	n/a	FR1	3	R1281E
2020.772	1.084	1127706	WORD_OFF	n/a	n/a	SHIP	4	11	[0, 0, 0]	n/a	FR1	3	R1281E
2021.856	1.617	1128790	WORD	n/a	n/a	BRUSH	5	11	[0, 0, 0]	n/a	FR1	3	R1281E
2023.473	0.983	1130407	WORD_OFF	n/a	n/a	BRUSH	5	11	[0, 0, 0]	n/a	FR1	3	R1281E
2024.456	1.635	1131390	WORD	n/a	n/a	TRASH	6	11	[0, 0, 0]	n/a	FR1	3	R1281E
2026.091	1.148	1133025	WORD_OFF	n/a	n/a	TRASH	6	11	[0, 0, 0]	n/a	FR1	3	R1281E
2027.239	1.635	1134172	WORD	n/a	n/a	CAKE	7	11	[0, 0, 0]	n/a	FR1	3	R1281E
2028.874	0.826	1135807	WORD_OFF	n/a	n/a	CAKE	7	11	[0, 0, 0]	n/a	FR1	3	R1281E
2029.7	1.608	1136633	WORD	n/a	n/a	STOVE	8	11	[0, 0, 0]	n/a	FR1	3	R1281E
2031.308	0.753	1138241	WORD_OFF	n/a	n/a	STOVE	8	11	[0, 0, 0]	n/a	FR1	3	R1281E
2032.061	1.63	1138994	WORD	n/a	n/a	BRIDGE	9	11	[0, 0, 0]	n/a	FR1	3	R1281E
2033.691	0.753	1140624	WORD_OFF	n/a	n/a	BRIDGE	9	11	[0, 0, 0]	n/a	FR1	3	R1281E
2034.444	1.632	1141377	WORD	n/a	n/a	STORE	10	11	[0, 0, 0]	n/a	FR1	3	R1281E
2036.076	0.791	1143009	WORD_OFF	n/a	n/a	STORE	10	11	[0, 0, 0]	n/a	FR1	3	R1281E
2036.867	1.626	1143800	WORD	n/a	n/a	NOSE	11	11	[0, 0, 0]	n/a	FR1	3	R1281E
2038.493	1.032	1145426	WORD_OFF	n/a	n/a	NOSE	11	11	[0, 0, 0]	n/a	FR1	3	R1281E
2039.525	1.635	1146458	WORD	n/a	n/a	LOCK	12	11	[0, 0, 0]	n/a	FR1	3	R1281E
2041.16	0.0	1148093	ENCODING_END	n/a	n/a	n/a	-999	11	[0, 0, 0]	n/a	FR1	3	R1281E
2041.16	0.001	1148093	WORD_OFF	n/a	n/a	LOCK	12	11	[0, 0, 0]	n/a	FR1	3	R1281E
2041.161	0.0	1148094	DISTRACT_START	n/a	n/a	n/a	-999	11	[0, 0, 0]	n/a	FR1	3	R1281E
2041.161	0.016	1148094	START	n/a	n/a	n/a	-999	11	[-999, -999, -999]	n/a	FR1	3	R1281E
2041.177	3.9	1148110	PROB	3.9	n/a	n/a	-999	11	[5, 8, 5]	18	FR1	3	R1281E
2045.077	3.583	1152010	PROB	3.583	n/a	n/a	-999	11	[4, 5, 3]	12	FR1	3	R1281E
2048.66	3.401	1155593	PROB	3.401	n/a	n/a	-999	11	[3, 8, 3]	14	FR1	3	R1281E
2052.061	2.9	1158994	PROB	2.9	n/a	n/a	-999	11	[7, 5, 6]	18	FR1	3	R1281E
2054.961	2.585	1161894	PROB	2.585	n/a	n/a	-999	11	[6, 4, 8]	18	FR1	3	R1281E
2057.546	2.617	1164478	PROB	2.617	n/a	n/a	-999	11	[1, 4, 9]	14	FR1	3	R1281E
2060.163	3.041	1167095	PROB	3.041	n/a	n/a	-999	11	[5, 7, 9]	21	FR1	3	R1281E
2063.204	0.01	1170136	STOP	n/a	n/a	n/a	-999	11	[-999, -999, -999]	n/a	FR1	3	R1281E
2063.214	0.55	1170146	DISTRACT_END	n/a	n/a	n/a	-999	11	[0, 0, 0]	n/a	FR1	3	R1281E
2063.764	1.7	1170696	RETRIEVAL_ORIENT_START	n/a	n/a	n/a	-999	11	[0, 0, 0]	n/a	FR1	3	R1281E
2065.464	0.001	1172396	RETRIEVAL_ORIENT_END	n/a	n/a	n/a	-999	11	[0, 0, 0]	n/a	FR1	3	R1281E
2065.465	0.624	1172397	REC_START	n/a	n/a	n/a	-999	11	[0, 0, 0]	n/a	FR1	3	R1281E
2066.089	12.246	1173021	REC_WORD	12.246	n/a	CAKE	7	11	[0, 0, 0]	n/a	FR1	3	R1281E
2078.335	8.006	1185267	REC_WORD_VV	8.006	n/a	<>	-999	11	[0, 0, 0]	n/a	FR1	3	R1281E
2086.341	3.505	1193272	REC_WORD_VV	3.505	n/a	<>	-999	11	[0, 0, 0]	n/a	FR1	3	R1281E
2089.846	5.63	1196777	REC_WORD	5.63	n/a	SHELL	-999	11	[0, 0, 0]	n/a	FR1	3	R1281E
2095.476	0.0	1202407	REC_END	n/a	n/a	n/a	-999	11	[0, 0, 0]	n/a	FR1	3	R1281E
2095.476	0.013	1202407	TRIAL_END	n/a	n/a	n/a	-999	11	[0, 0, 0]	n/a	FR1	3	R1281E
2095.489	0.0	1202420	TRIAL_START	n/a	n/a	n/a	-999	12	[0, 0, 0]	n/a	FR1	3	R1281E
2095.489	0.0	1202420	TRIAL	n/a	n/a	n/a	-999	12	[0, 0, 0]	n/a	FR1	3	R1281E
2095.489	17.532	1202420	WAITING_START	n/a	n/a	n/a	-999	12	[0, 0, 0]	n/a	FR1	3	R1281E
2113.021	0.001	1219952	WAITING_END	n/a	n/a	n/a	-999	12	[0, 0, 0]	n/a	FR1	3	R1281E
2113.022	10.428	1219953	COUNTDOWN_START	n/a	n/a	n/a	-999	12	[0, 0, 0]	n/a	FR1	3	R1281E
2123.45	0.001	1230380	COUNTDOWN_END	n/a	n/a	n/a	-999	12	[0, 0, 0]	n/a	FR1	3	R1281E
2123.451	1.107	1230381	ORIENT_START	n/a	n/a	n/a	-999	12	[0, 0, 0]	n/a	FR1	3	R1281E
2124.558	0.0	1231488	ORIENT_END	n/a	n/a	n/a	-999	12	[0, 0, 0]	n/a	FR1	3	R1281E
2124.558	0.813	1231488	ENCODING_START	n/a	n/a	n/a	-999	12	[0, 0, 0]	n/a	FR1	3	R1281E
2125.371	1.636	1232301	WORD	n/a	n/a	TRAIN	1	12	[0, 0, 0]	n/a	FR1	3	R1281E
2127.007	0.898	1233937	WORD_OFF	n/a	n/a	TRAIN	1	12	[0, 0, 0]	n/a	FR1	3	R1281E
2127.905	1.637	1234835	WORD	n/a	n/a	SMOKE	2	12	[0, 0, 0]	n/a	FR1	3	R1281E
2129.542	0.941	1236472	WORD_OFF	n/a	n/a	SMOKE	2	12	[0, 0, 0]	n/a	FR1	3	R1281E
2130.483	1.626	1237413	WORD	n/a	n/a	SUN	3	12	[0, 0, 0]	n/a	FR1	3	R1281E
2132.109	0.947	1239039	WORD_OFF	n/a	n/a	SUN	3	12	[0, 0, 0]	n/a	FR1	3	R1281E
2133.056	1.636	1239986	WORD	n/a	n/a	LAWN	4	12	[0, 0, 0]	n/a	FR1	3	R1281E
2134.692	1.011	1241622	WORD_OFF	n/a	n/a	LAWN	4	12	[0, 0, 0]	n/a	FR1	3	R1281E
2135.703	1.607	1242633	WORD	n/a	n/a	NET	5	12	[0, 0, 0]	n/a	FR1	3	R1281E
2137.31	0.942	1244240	WORD_OFF	n/a	n/a	NET	5	12	[0, 0, 0]	n/a	FR1	3	R1281E
2138.252	1.624	1245182	WORD	n/a	n/a	GATE	6	12	[0, 0, 0]	n/a	FR1	3	R1281E
2139.876	1.103	1246806	WORD_OFF	n/a	n/a	GATE	6	12	[0, 0, 0]	n/a	FR1	3	R1281E
2140.979	1.631	1247909	WORD	n/a	n/a	CONE	7	12	[0, 0, 0]	n/a	FR1	3	R1281E
2142.61	1.041	1249539	WORD_OFF	n/a	n/a	CONE	7	12	[0, 0, 0]	n/a	FR1	3	R1281E
2143.651	1.627	1250580	WORD	n/a	n/a	TOOTH	8	12	[0, 0, 0]	n/a	FR1	3	R1281E
2145.278	0.784	1252207	WORD_OFF	n/a	n/a	TOOTH	8	12	[0, 0, 0]	n/a	FR1	3	R1281E
2146.062	1.633	1252991	WORD	n/a	n/a	PALM	9	12	[0, 0, 0]	n/a	FR1	3	R1281E
2147.695	0.909	1254624	WORD_OFF	n/a	n/a	PALM	9	12	[0, 0, 0]	n/a	FR1	3	R1281E
2148.604	1.625	1255533	WORD	n/a	n/a	EGG	10	12	[0, 0, 0]	n/a	FR1	3	R1281E
2150.229	1.019	1257158	WORD_OFF	n/a	n/a	EGG	10	12	[0, 0, 0]	n/a	FR1	3	R1281E
2151.248	1.631	1258177	WORD	n/a	n/a	MOLE	11	12	[0, 0, 0]	n/a	FR1	3	R1281E
2152.879	0.988	1259808	WORD_OFF	n/a	n/a	MOLE	11	12	[0, 0, 0]	n/a	FR1	3	R1281E
2153.867	1.63	1260796	WORD	n/a	n/a	FLEA	12	12	[0, 0, 0]	n/a	FR1	3	R1281E
2155.497	0.0	1262426	WORD_OFF	n/a	n/a	FLEA	12	12	[0, 0, 0]	n/a	FR1	3	R1281E
2155.497	0.0	1262426	ENCODING_END	n/a	n/a	n/a	-999	12	[0, 0, 0]	n/a	FR1	3	R1281E
2155.497	0.001	1262426	DISTRACT_START	n/a	n/a	n/a	-999	12	[0, 0, 0]	n/a	FR1	3	R1281E
2155.498	0.015	1262427	START	n/a	n/a	n/a	-999	12	[-999, -999, -999]	n/a	FR1	3	R1281E
2155.513	6.051	1262442	PROB	6.051	n/a	n/a	-999	12	[8, 5, 6]	19	FR1	3	R1281E
2161.564	3.934	1268493	PROB	3.934	n/a	n/a	-999	12	[6, 1, 5]	12	FR1	3	R1281E
2165.498	3.768	1272427	PROB	3.768	n/a	n/a	-999	12	[9, 7, 5]	21	FR1	3	R1281E
2169.266	4.483	1276195	PROB	4.483	n/a	n/a	-999	12	[7, 5, 6]	18	FR1	3	R1281E
2173.749	3.723	1280677	PROB	3.723	n/a	n/a	-999	12	[4, 2, 4]	10	FR1	3	R1281E
2177.472	0.012	1284400	STOP	n/a	n/a	n/a	-999	12	[-999, -999, -999]	n/a	FR1	3	R1281E
2177.484	0.597	1284412	DISTRACT_END	n/a	n/a	n/a	-999	12	[0, 0, 0]	n/a	FR1	3	R1281E
2178.081	1.652	1285009	RETRIEVAL_ORIENT_START	n/a	n/a	n/a	-999	12	[0, 0, 0]	n/a	FR1	3	R1281E
2179.733	0.001	1286661	RETRIEVAL_ORIENT_END	n/a	n/a	n/a	-999	12	[0, 0, 0]	n/a	FR1	3	R1281E
2179.734	3.044	1286662	REC_START	n/a	n/a	n/a	-999	12	[0, 0, 0]	n/a	FR1	3	R1281E
2182.778	12.799	1289706	REC_WORD	12.799	n/a	TEETH	-999	12	[0, 0, 0]	n/a	FR1	3	R1281E
2195.577	12.452	1302505	REC_WORD	12.452	n/a	FIELD	-999	12	[0, 0, 0]	n/a	FR1	3	R1281E
2208.029	1.714	1314956	REC_WORD_VV	1.714	n/a	<>	-999	12	[0, 0, 0]	n/a	FR1	3	R1281E
2209.743	0.001	1316670	REC_END	n/a	n/a	n/a	-999	12	[0, 0, 0]	n/a	FR1	3	R1281E
2209.744	0.011	1316671	TRIAL_END	n/a	n/a	n/a	-999	12	[0, 0, 0]	n/a	FR1	3	R1281E
2209.755	0.0	1316682	WAITING_START	n/a	n/a	n/a	-999	13	[0, 0, 0]	n/a	FR1	3	R1281E
2209.755	0.0	1316682	TRIAL	n/a	n/a	n/a	-999	13	[0, 0, 0]	n/a	FR1	3	R1281E
2209.755	69.747	1316682	TRIAL_START	n/a	n/a	n/a	-999	13	[0, 0, 0]	n/a	FR1	3	R1281E
2279.502	0.0	1386427	WAITING_END	n/a	n/a	n/a	-999	13	[0, 0, 0]	n/a	FR1	3	R1281E
2279.502	10.428	1386427	COUNTDOWN_START	n/a	n/a	n/a	-999	13	[0, 0, 0]	n/a	FR1	3	R1281E
2289.93	0.001	1396854	COUNTDOWN_END	n/a	n/a	n/a	-999	13	[0, 0, 0]	n/a	FR1	3	R1281E
2289.931	1.055	1396855	ORIENT_START	n/a	n/a	n/a	-999	13	[0, 0, 0]	n/a	FR1	3	R1281E
2290.986	0.001	1397910	ORIENT_END	n/a	n/a	n/a	-999	13	[0, 0, 0]	n/a	FR1	3	R1281E
2290.987	0.988	1397911	ENCODING_START	n/a	n/a	n/a	-999	13	[0, 0, 0]	n/a	FR1	3	R1281E
2291.975	1.628	1398899	WORD	n/a	n/a	CART	1	13	[0, 0, 0]	n/a	FR1	3	R1281E
2293.603	0.759	1400527	WORD_OFF	n/a	n/a	CART	1	13	[0, 0, 0]	n/a	FR1	3	R1281E
2294.362	1.625	1401286	WORD	n/a	n/a	SAIL	2	13	[0, 0, 0]	n/a	FR1	3	R1281E
2295.987	1.091	1402911	WORD_OFF	n/a	n/a	SAIL	2	13	[0, 0, 0]	n/a	FR1	3	R1281E
2297.078	1.626	1404002	WORD	n/a	n/a	BAT	3	13	[0, 0, 0]	n/a	FR1	3	R1281E
2298.704	0.824	1405628	WORD_OFF	n/a	n/a	BAT	3	13	[0, 0, 0]	n/a	FR1	3	R1281E
2299.528	1.628	1406452	WORD	n/a	n/a	LAND	4	13	[0, 0, 0]	n/a	FR1	3	R1281E
2301.156	0.769	1408080	WORD_OFF	n/a	n/a	LAND	4	13	[0, 0, 0]	n/a	FR1	3	R1281E
2301.925	1.631	1408849	WORD	n/a	n/a	HOOF	5	13	[0, 0, 0]	n/a	FR1	3	R1281E
2303.556	0.849	1410480	WORD_OFF	n/a	n/a	HOOF	5	13	[0, 0, 0]	n/a	FR1	3	R1281E
2304.405	1.634	1411329	WORD	n/a	n/a	SQUARE	6	13	[0, 0, 0]	n/a	FR1	3	R1281E
2306.039	1.091	1412963	WORD_OFF	n/a	n/a	SQUARE	6	13	[0, 0, 0]	n/a	FR1	3	R1281E
2307.13	1.626	1414054	WORD	n/a	n/a	FUDGE	7	13	[0, 0, 0]	n/a	FR1	3	R1281E
2308.756	0.816	1415680	WORD_OFF	n/a	n/a	FUDGE	7	13	[0, 0, 0]	n/a	FR1	3	R1281E
2309.572	1.636	1416496	WORD	n/a	n/a	MOUTH	8	13	[0, 0, 0]	n/a	FR1	3	R1281E
2311.208	0.951	1418132	WORD_OFF	n/a	n/a	MOUTH	8	13	[0, 0, 0]	n/a	FR1	3	R1281E
2312.159	1.631	1419083	WORD	n/a	n/a	CLOUD	9	13	[0, 0, 0]	n/a	FR1	3	R1281E
2313.79	0.823	1420714	WORD_OFF	n/a	n/a	CLOUD	9	13	[0, 0, 0]	n/a	FR1	3	R1281E
2314.613	1.612	1421537	WORD	n/a	n/a	CLIFF	10	13	[0, 0, 0]	n/a	FR1	3	R1281E
2316.225	1.112	1423149	WORD_OFF	n/a	n/a	CLIFF	10	13	[0, 0, 0]	n/a	FR1	3	R1281E
2317.337	1.621	1424260	WORD	n/a	n/a	JUDGE	11	13	[0, 0, 0]	n/a	FR1	3	R1281E
2318.958	0.963	1425881	WORD_OFF	n/a	n/a	JUDGE	11	13	[0, 0, 0]	n/a	FR1	3	R1281E
2319.921	1.604	1426844	WORD	n/a	n/a	OAK	12	13	[0, 0, 0]	n/a	FR1	3	R1281E
2321.525	0.001	1428448	WORD_OFF	n/a	n/a	OAK	12	13	[0, 0, 0]	n/a	FR1	3	R1281E
2321.526	0.0	1428449	ENCODING_END	n/a	n/a	n/a	-999	13	[0, 0, 0]	n/a	FR1	3	R1281E
2321.526	0.0	1428449	DISTRACT_START	n/a	n/a	n/a	-999	13	[0, 0, 0]	n/a	FR1	3	R1281E
2321.526	0.016	1428449	START	n/a	n/a	n/a	-999	13	[-999, -999, -999]	n/a	FR1	3	R1281E
2321.542	4.684	1428465	PROB	4.684	n/a	n/a	-999	13	[8, 9, 9]	26	FR1	3	R1281E
2326.226	3.251	1433149	PROB	3.251	n/a	n/a	-999	13	[6, 9, 5]	20	FR1	3	R1281E
2329.477	2.684	1436400	PROB	2.684	n/a	n/a	-999	13	[9, 9, 2]	20	FR1	3	R1281E
2332.161	4.284	1439084	PROB	4.284	n/a	n/a	-999	13	[7, 1, 2]	10	FR1	3	R1281E
2336.445	3.416	1443368	PROB	3.416	n/a	n/a	-999	13	[9, 5, 6]	20	FR1	3	R1281E
2339.861	3.039	1446784	PROB	3.039	n/a	n/a	-999	13	[3, 4, 1]	8	FR1	3	R1281E
2342.9	0.012	1449823	STOP	n/a	n/a	n/a	-999	13	[-999, -999, -999]	n/a	FR1	3	R1281E
2342.912	0.559	1449835	DISTRACT_END	n/a	n/a	n/a	-999	13	[0, 0, 0]	n/a	FR1	3	R1281E
2343.471	1.541	1450394	RETRIEVAL_ORIENT_START	n/a	n/a	n/a	-999	13	[0, 0, 0]	n/a	FR1	3	R1281E
2345.012	0.001	1451935	RETRIEVAL_ORIENT_END	n/a	n/a	n/a	-999	13	[0, 0, 0]	n/a	FR1	3	R1281E
2345.013	0.53	1451936	REC_START	n/a	n/a	n/a	-999	13	[0, 0, 0]	n/a	FR1	3	R1281E
2345.543	1.6	1452466	REC_WORD	1.6	n/a	FUDGE	7	13	[0, 0, 0]	n/a	FR1	3	R1281E
2347.143	1.288	1454065	REC_WORD	1.288	n/a	JUDGE	11	13	[0, 0, 0]	n/a	FR1	3	R1281E
2348.431	1.631	1455353	REC_WORD	1.631	n/a	MOUTH	8	13	[0, 0, 0]	n/a	FR1	3	R1281E
2350.062	18.081	1456984	REC_WORD	18.081	n/a	CLIFF	10	13	[0, 0, 0]	n/a	FR1	3	R1281E
2368.143	6.88	1475065	REC_WORD	6.88	n/a	SUN	-999	13	[0, 0, 0]	n/a	FR1	3	R1281E
2375.023	0.001	1481944	REC_END	n/a	n/a	n/a	-999	13	[0, 0, 0]	n/a	FR1	3	R1281E
2375.024	0.011	1481945	TRIAL_END	n/a	n/a	n/a	-999	13	[0, 0, 0]	n/a	FR1	3	R1281E
2375.035	0.0	1481956	WAITING_START	n/a	n/a	n/a	-999	14	[0, 0, 0]	n/a	FR1	3	R1281E
2375.035	0.0	1481956	TRIAL_START	n/a	n/a	n/a	-999	14	[0, 0, 0]	n/a	FR1	3	R1281E
2375.035	9.751	1481956	TRIAL	n/a	n/a	n/a	-999	14	[0, 0, 0]	n/a	FR1	3	R1281E
2384.786	0.0	1491707	WAITING_END	n/a	n/a	n/a	-999	14	[0, 0, 0]	n/a	FR1	3	R1281E
2384.786	10.429	1491707	COUNTDOWN_START	n/a	n/a	n/a	-999	14	[0, 0, 0]	n/a	FR1	3	R1281E
2395.215	0.001	1502136	COUNTDOWN_END	n/a	n/a	n/a	-999	14	[0, 0, 0]	n/a	FR1	3	R1281E
2395.216	1.023	1502137	ORIENT_START	n/a	n/a	n/a	-999	14	[0, 0, 0]	n/a	FR1	3	R1281E
2396.239	0.0	1503160	ENCODING_START	n/a	n/a	n/a	-999	14	[0, 0, 0]	n/a	FR1	3	R1281E
2396.239	0.941	1503160	ORIENT_END	n/a	n/a	n/a	-999	14	[0, 0, 0]	n/a	FR1	3	R1281E
2397.18	1.625	1504101	WORD	n/a	n/a	DIME	1	14	[0, 0, 0]	n/a	FR1	3	R1281E
2398.805	1.068	1505726	WORD_OFF	n/a	n/a	DIME	1	14	[0, 0, 0]	n/a	FR1	3	R1281E
2399.873	1.634	1506794	WORD	n/a	n/a	CHEEK	2	14	[0, 0, 0]	n/a	FR1	3	R1281E
2401.507	0.994	1508428	WORD_OFF	n/a	n/a	CHEEK	2	14	[0, 0, 0]	n/a	FR1	3	R1281E
2402.501	1.623	1509422	WORD	n/a	n/a	STONE	3	14	[0, 0, 0]	n/a	FR1	3	R1281E
2404.124	0.897	1511044	WORD_OFF	n/a	n/a	STONE	3	14	[0, 0, 0]	n/a	FR1	3	R1281E
2405.021	1.635	1511941	WORD	n/a	n/a	ROAD	4	14	[0, 0, 0]	n/a	FR1	3	R1281E
2406.656	1.016	1513576	WORD_OFF	n/a	n/a	ROAD	4	14	[0, 0, 0]	n/a	FR1	3	R1281E
2407.672	1.619	1514592	WORD	n/a	n/a	BUSH	5	14	[0, 0, 0]	n/a	FR1	3	R1281E
2409.291	1.049	1516211	WORD_OFF	n/a	n/a	BUSH	5	14	[0, 0, 0]	n/a	FR1	3	R1281E
2410.34	1.634	1517260	WORD	n/a	n/a	HAT	6	14	[0, 0, 0]	n/a	FR1	3	R1281E
2411.974	1.022	1518894	WORD_OFF	n/a	n/a	HAT	6	14	[0, 0, 0]	n/a	FR1	3	R1281E
2412.996	1.629	1519916	WORD	n/a	n/a	BRICK	7	14	[0, 0, 0]	n/a	FR1	3	R1281E
2414.625	0.767	1521545	WORD_OFF	n/a	n/a	BRICK	7	14	[0, 0, 0]	n/a	FR1	3	R1281E
2415.392	1.633	1522312	WORD	n/a	n/a	CAGE	8	14	[0, 0, 0]	n/a	FR1	3	R1281E
2417.025	1.045	1523945	WORD_OFF	n/a	n/a	CAGE	8	14	[0, 0, 0]	n/a	FR1	3	R1281E
2418.07	1.622	1524990	WORD	n/a	n/a	FILM	9	14	[0, 0, 0]	n/a	FR1	3	R1281E
2419.692	1.113	1526612	WORD_OFF	n/a	n/a	FILM	9	14	[0, 0, 0]	n/a	FR1	3	R1281E
2420.805	1.622	1527725	WORD	n/a	n/a	GOAT	10	14	[0, 0, 0]	n/a	FR1	3	R1281E
2422.427	1.031	1529347	WORD_OFF	n/a	n/a	GOAT	10	14	[0, 0, 0]	n/a	FR1	3	R1281E
2423.458	1.636	1530378	WORD	n/a	n/a	MAP	11	14	[0, 0, 0]	n/a	FR1	3	R1281E
2425.094	0.824	1532014	WORD_OFF	n/a	n/a	MAP	11	14	[0, 0, 0]	n/a	FR1	3	R1281E
2425.918	1.61	1532838	WORD	n/a	n/a	BOY	12	14	[0, 0, 0]	n/a	FR1	3	R1281E
2427.528	0.0	1534448	WORD_OFF	n/a	n/a	BOY	12	14	[0, 0, 0]	n/a	FR1	3	R1281E
2427.528	0.0	1534448	ENCODING_END	n/a	n/a	n/a	-999	14	[0, 0, 0]	n/a	FR1	3	R1281E
2427.528	0.0	1534448	DISTRACT_START	n/a	n/a	n/a	-999	14	[0, 0, 0]	n/a	FR1	3	R1281E
2427.528	0.016	1534448	START	n/a	n/a	n/a	-999	14	[-999, -999, -999]	n/a	FR1	3	R1281E
2427.544	4.183	1534464	PROB	4.183	n/a	n/a	-999	14	[8, 2, 7]	17	FR1	3	R1281E
2431.727	2.502	1538647	PROB	2.502	n/a	n/a	-999	14	[5, 1, 1]	7	FR1	3	R1281E
2434.229	3.05	1541148	PROB	3.05	n/a	n/a	-999	14	[2, 4, 4]	10	FR1	3	R1281E
2437.279	2.934	1544198	PROB	2.934	n/a	n/a	-999	14	[2, 1, 3]	6	FR1	3	R1281E
2440.213	2.583	1547132	PROB	2.583	n/a	n/a	-999	14	[3, 2, 2]	7	FR1	3	R1281E
2442.796	2.601	1549715	PROB	2.601	n/a	n/a	-999	14	[8, 5, 3]	17	FR1	3	R1281E
2445.397	5.283	1552316	PROB	5.283	n/a	n/a	-999	14	[2, 5, 2]	9	FR1	3	R1281E
2450.68	0.017	1557599	STOP	n/a	n/a	n/a	-999	14	[-999, -999, -999]	n/a	FR1	3	R1281E
2450.697	0.662	1557616	DISTRACT_END	n/a	n/a	n/a	-999	14	[0, 0, 0]	n/a	FR1	3	R1281E
2451.359	1.639	1558278	RETRIEVAL_ORIENT_START	n/a	n/a	n/a	-999	14	[0, 0, 0]	n/a	FR1	3	R1281E
2452.998	0.0	1559917	RETRIEVAL_ORIENT_END	n/a	n/a	n/a	-999	14	[0, 0, 0]	n/a	FR1	3	R1281E
2452.998	1.109	1559917	REC_START	n/a	n/a	n/a	-999	14	[0, 0, 0]	n/a	FR1	3	R1281E
2454.107	4.123	1561026	REC_WORD	4.123	n/a	GOAT	10	14	[0, 0, 0]	n/a	FR1	3	R1281E
2458.23	16.998	1565149	REC_WORD	16.998	n/a	HILL	-999	14	[0, 0, 0]	n/a	FR1	3	R1281E
2475.228	7.781	1582146	REC_WORD_VV	7.781	n/a	<>	-999	14	[0, 0, 0]	n/a	FR1	3	R1281E
2483.009	0.001	1589927	REC_END	n/a	n/a	n/a	-999	14	[0, 0, 0]	n/a	FR1	3	R1281E
2483.01	0.011	1589928	TRIAL_END	n/a	n/a	n/a	-999	14	[0, 0, 0]	n/a	FR1	3	R1281E
2483.021	0.0	1589939	TRIAL	n/a	n/a	n/a	-999	15	[0, 0, 0]	n/a	FR1	3	R1281E
2483.021	0.0	1589939	WAITING_START	n/a	n/a	n/a	-999	15	[0, 0, 0]	n/a	FR1	3	R1281E
2483.021	17.153	1589939	TRIAL_START	n/a	n/a	n/a	-999	15	[0, 0, 0]	n/a	FR1	3	R1281E
2500.174	0.0	1607091	WAITING_END	n/a	n/a	n/a	-999	15	[0, 0, 0]	n/a	FR1	3	R1281E
2500.174	10.428	1607091	COUNTDOWN_START	n/a	n/a	n/a	-999	15	[0, 0, 0]	n/a	FR1	3	R1281E
2510.602	0.0	1617519	COUNTDOWN_END	n/a	n/a	n/a	-999	15	[0, 0, 0]	n/a	FR1	3	R1281E
2510.602	1.123	1617519	ORIENT_START	n/a	n/a	n/a	-999	15	[0, 0, 0]	n/a	FR1	3	R1281E
2511.725	0.0	1618642	ORIENT_END	n/a	n/a	n/a	-999	15	[0, 0, 0]	n/a	FR1	3	R1281E
2511.725	0.869	1618642	ENCODING_START	n/a	n/a	n/a	-999	15	[0, 0, 0]	n/a	FR1	3	R1281E
2512.594	1.615	1619511	WORD	n/a	n/a	ZOO	1	15	[0, 0, 0]	n/a	FR1	3	R1281E
2514.209	0.965	1621126	WORD_OFF	n/a	n/a	ZOO	1	15	[0, 0, 0]	n/a	FR1	3	R1281E
2515.174	1.635	1622091	WORD	n/a	n/a	ROOT	2	15	[0, 0, 0]	n/a	FR1	3	R1281E
2516.809	0.875	1623726	WORD_OFF	n/a	n/a	ROOT	2	15	[0, 0, 0]	n/a	FR1	3	R1281E
2517.684	1.626	1624601	WORD	n/a	n/a	DOLL	3	15	[0, 0, 0]	n/a	FR1	3	R1281E
2519.31	0.995	1626227	WORD_OFF	n/a	n/a	DOLL	3	15	[0, 0, 0]	n/a	FR1	3	R1281E
2520.305	1.622	1627221	WORD	n/a	n/a	STRAW	4	15	[0, 0, 0]	n/a	FR1	3	R1281E
2521.927	0.852	1628843	WORD_OFF	n/a	n/a	STRAW	4	15	[0, 0, 0]	n/a	FR1	3	R1281E
2522.779	1.632	1629695	WORD	n/a	n/a	BALL	5	15	[0, 0, 0]	n/a	FR1	3	R1281E
2524.411	1.148	1631327	WORD_OFF	n/a	n/a	BALL	5	15	[0, 0, 0]	n/a	FR1	3	R1281E
2525.559	1.62	1632475	WORD	n/a	n/a	SPEAR	6	15	[0, 0, 0]	n/a	FR1	3	R1281E
2527.179	1.02	1634095	WORD_OFF	n/a	n/a	SPEAR	6	15	[0, 0, 0]	n/a	FR1	3	R1281E
2528.199	1.629	1635115	WORD	n/a	n/a	BOMB	7	15	[0, 0, 0]	n/a	FR1	3	R1281E
2529.828	1.092	1636744	WORD_OFF	n/a	n/a	BOMB	7	15	[0, 0, 0]	n/a	FR1	3	R1281E
2530.92	1.626	1637836	WORD	n/a	n/a	FUR	8	15	[0, 0, 0]	n/a	FR1	3	R1281E
2532.546	0.83	1639462	WORD_OFF	n/a	n/a	FUR	8	15	[0, 0, 0]	n/a	FR1	3	R1281E
2533.376	1.636	1640292	WORD	n/a	n/a	WHALE	9	15	[0, 0, 0]	n/a	FR1	3	R1281E
2535.012	0.869	1641928	WORD_OFF	n/a	n/a	WHALE	9	15	[0, 0, 0]	n/a	FR1	3	R1281E
2535.881	1.633	1642797	WORD	n/a	n/a	CUBE	10	15	[0, 0, 0]	n/a	FR1	3	R1281E
2537.514	1.03	1644430	WORD_OFF	n/a	n/a	CUBE	10	15	[0, 0, 0]	n/a	FR1	3	R1281E
2538.544	1.637	1645460	WORD	n/a	n/a	HAND	11	15	[0, 0, 0]	n/a	FR1	3	R1281E
2540.181	0.825	1647097	WORD_OFF	n/a	n/a	HAND	11	15	[0, 0, 0]	n/a	FR1	3	R1281E
2541.006	1.624	1647922	WORD	n/a	n/a	WAND	12	15	[0, 0, 0]	n/a	FR1	3	R1281E
2542.63	0.001	1649546	WORD_OFF	n/a	n/a	WAND	12	15	[0, 0, 0]	n/a	FR1	3	R1281E
2542.631	0.0	1649547	ENCODING_END	n/a	n/a	n/a	-999	15	[0, 0, 0]	n/a	FR1	3	R1281E
2542.631	0.0	1649547	DISTRACT_START	n/a	n/a	n/a	-999	15	[0, 0, 0]	n/a	FR1	3	R1281E
2542.631	0.016	1649547	START	n/a	n/a	n/a	-999	15	[-999, -999, -999]	n/a	FR1	3	R1281E
2542.647	4.951	1649563	PROB	4.951	n/a	n/a	-999	15	[8, 7, 4]	19	FR1	3	R1281E
2547.598	2.417	1654514	PROB	2.417	n/a	n/a	-999	15	[1, 2, 5]	8	FR1	3	R1281E
2550.015	3.118	1656930	PROB	3.118	n/a	n/a	-999	15	[8, 3, 5]	16	FR1	3	R1281E
2553.133	3.417	1660048	PROB	3.417	n/a	n/a	-999	15	[2, 5, 9]	16	FR1	3	R1281E
2556.55	4.433	1663465	PROB	4.433	n/a	n/a	-999	15	[8, 9, 9]	26	FR1	3	R1281E
2560.983	3.092	1667898	PROB	3.092	n/a	n/a	-999	15	[3, 1, 1]	5	FR1	3	R1281E
2564.075	0.01	1670990	STOP	n/a	n/a	n/a	-999	15	[-999, -999, -999]	n/a	FR1	3	R1281E
2564.085	0.527	1671000	DISTRACT_END	n/a	n/a	n/a	-999	15	[0, 0, 0]	n/a	FR1	3	R1281E
2564.612	1.64	1671527	RETRIEVAL_ORIENT_START	n/a	n/a	n/a	-999	15	[0, 0, 0]	n/a	FR1	3	R1281E
2566.252	0.0	1673167	RETRIEVAL_ORIENT_END	n/a	n/a	n/a	-999	15	[0, 0, 0]	n/a	FR1	3	R1281E
2566.252	0.784	1673167	REC_START	n/a	n/a	n/a	-999	15	[0, 0, 0]	n/a	FR1	3	R1281E
2567.036	4.45	1673951	REC_WORD	4.45	n/a	HAND	11	15	[0, 0, 0]	n/a	FR1	3	R1281E
2571.486	24.779	1678401	REC_WORD	24.779	n/a	ROOT	2	15	[0, 0, 0]	n/a	FR1	3	R1281E
2596.265	0.001	1703179	REC_END	n/a	n/a	n/a	-999	15	[0, 0, 0]	n/a	FR1	3	R1281E
2596.266	0.012	1703180	TRIAL_END	n/a	n/a	n/a	-999	15	[0, 0, 0]	n/a	FR1	3	R1281E
2596.278	0.0	1703192	TRIAL_START	n/a	n/a	n/a	-999	16	[0, 0, 0]	n/a	FR1	3	R1281E
2596.278	0.0	1703192	TRIAL	n/a	n/a	n/a	-999	16	[0, 0, 0]	n/a	FR1	3	R1281E
2596.278	7.48	1703192	WAITING_START	n/a	n/a	n/a	-999	16	[0, 0, 0]	n/a	FR1	3	R1281E
2603.758	0.0	1710672	WAITING_END	n/a	n/a	n/a	-999	16	[0, 0, 0]	n/a	FR1	3	R1281E
2603.758	10.428	1710672	COUNTDOWN_START	n/a	n/a	n/a	-999	16	[0, 0, 0]	n/a	FR1	3	R1281E
2614.186	0.0	1721099	ORIENT_START	n/a	n/a	n/a	-999	16	[0, 0, 0]	n/a	FR1	3	R1281E
2614.186	1.141	1721099	COUNTDOWN_END	n/a	n/a	n/a	-999	16	[0, 0, 0]	n/a	FR1	3	R1281E
2615.327	0.001	1722240	ORIENT_END	n/a	n/a	n/a	-999	16	[0, 0, 0]	n/a	FR1	3	R1281E
2615.328	0.761	1722241	ENCODING_START	n/a	n/a	n/a	-999	16	[0, 0, 0]	n/a	FR1	3	R1281E
2616.089	1.621	1723002	WORD	n/a	n/a	STREET	1	16	[0, 0, 0]	n/a	FR1	3	R1281E
2617.71	1.151	1724623	WORD_OFF	n/a	n/a	STREET	1	16	[0, 0, 0]	n/a	FR1	3	R1281E
2618.861	1.617	1725774	WORD	n/a	n/a	ARK	2	16	[0, 0, 0]	n/a	FR1	3	R1281E
2620.478	0.883	1727391	WORD_OFF	n/a	n/a	ARK	2	16	[0, 0, 0]	n/a	FR1	3	R1281E
2621.361	1.633	1728274	WORD	n/a	n/a	SINK	3	16	[0, 0, 0]	n/a	FR1	3	R1281E
2622.994	1.037	1729907	WORD_OFF	n/a	n/a	SINK	3	16	[0, 0, 0]	n/a	FR1	3	R1281E
2624.031	1.63	1730944	WORD	n/a	n/a	STEM	4	16	[0, 0, 0]	n/a	FR1	3	R1281E
2625.661	0.795	1732574	WORD_OFF	n/a	n/a	STEM	4	16	[0, 0, 0]	n/a	FR1	3	R1281E
2626.456	1.624	1733369	WORD	n/a	n/a	CAVE	5	16	[0, 0, 0]	n/a	FR1	3	R1281E
2628.08	0.92	1734993	WORD_OFF	n/a	n/a	CAVE	5	16	[0, 0, 0]	n/a	FR1	3	R1281E
2629.0	1.629	1735913	WORD	n/a	n/a	FOOD	6	16	[0, 0, 0]	n/a	FR1	3	R1281E
2630.629	0.861	1737542	WORD_OFF	n/a	n/a	FOOD	6	16	[0, 0, 0]	n/a	FR1	3	R1281E
2631.49	1.624	1738403	WORD	n/a	n/a	DITCH	7	16	[0, 0, 0]	n/a	FR1	3	R1281E
2633.114	0.906	1740027	WORD_OFF	n/a	n/a	DITCH	7	16	[0, 0, 0]	n/a	FR1	3	R1281E
2634.02	1.627	1740933	WORD	n/a	n/a	KITE	8	16	[0, 0, 0]	n/a	FR1	3	R1281E
2635.647	0.881	1742560	WORD_OFF	n/a	n/a	KITE	8	16	[0, 0, 0]	n/a	FR1	3	R1281E
2636.528	1.637	1743440	WORD	n/a	n/a	HILL	9	16	[0, 0, 0]	n/a	FR1	3	R1281E
2638.165	0.898	1745077	WORD_OFF	n/a	n/a	HILL	9	16	[0, 0, 0]	n/a	FR1	3	R1281E
2639.063	1.634	1745975	WORD	n/a	n/a	COW	10	16	[0, 0, 0]	n/a	FR1	3	R1281E
2640.697	0.952	1747609	WORD_OFF	n/a	n/a	COW	10	16	[0, 0, 0]	n/a	FR1	3	R1281E
2641.649	1.633	1748561	WORD	n/a	n/a	MUG	11	16	[0, 0, 0]	n/a	FR1	3	R1281E
2643.282	0.923	1750194	WORD_OFF	n/a	n/a	MUG	11	16	[0, 0, 0]	n/a	FR1	3	R1281E
2644.205	1.627	1751117	WORD	n/a	n/a	FRUIT	12	16	[0, 0, 0]	n/a	FR1	3	R1281E
2645.832	0.0	1752744	DISTRACT_START	n/a	n/a	n/a	-999	16	[0, 0, 0]	n/a	FR1	3	R1281E
2645.832	0.0	1752744	WORD_OFF	n/a	n/a	FRUIT	12	16	[0, 0, 0]	n/a	FR1	3	R1281E
2645.832	0.001	1752744	ENCODING_END	n/a	n/a	n/a	-999	16	[0, 0, 0]	n/a	FR1	3	R1281E
2645.833	0.015	1752745	START	n/a	n/a	n/a	-999	16	[-999, -999, -999]	n/a	FR1	3	R1281E
2645.848	3.252	1752760	PROB	3.252	n/a	n/a	-999	16	[5, 2, 5]	12	FR1	3	R1281E
2649.1	3.167	1756012	PROB	3.167	n/a	n/a	-999	16	[7, 5, 7]	19	FR1	3	R1281E
2652.267	2.633	1759179	PROB	2.633	n/a	n/a	-999	16	[3, 2, 5]	10	FR1	3	R1281E
2654.9	3.235	1761812	PROB	3.235	n/a	n/a	-999	16	[7, 3, 7]	17	FR1	3	R1281E
2658.135	4.666	1765047	PROB	4.666	n/a	n/a	-999	16	[9, 3, 8]	20	FR1	3	R1281E
2662.801	6.053	1769713	PROB	6.053	n/a	n/a	-999	16	[1, 9, 6]	16	FR1	3	R1281E
2668.854	0.015	1775765	STOP	n/a	n/a	n/a	-999	16	[-999, -999, -999]	n/a	FR1	3	R1281E
2668.869	0.542	1775780	DISTRACT_END	n/a	n/a	n/a	-999	16	[0, 0, 0]	n/a	FR1	3	R1281E
2669.411	1.575	1776322	RETRIEVAL_ORIENT_START	n/a	n/a	n/a	-999	16	[0, 0, 0]	n/a	FR1	3	R1281E
2670.986	0.0	1777897	RETRIEVAL_ORIENT_END	n/a	n/a	n/a	-999	16	[0, 0, 0]	n/a	FR1	3	R1281E
2670.986	4.0	1777897	REC_START	n/a	n/a	n/a	-999	16	[0, 0, 0]	n/a	FR1	3	R1281E
2674.986	26.01	1781897	REC_WORD	26.01	n/a	FIELD	-999	16	[0, 0, 0]	n/a	FR1	3	R1281E
2700.996	0.0	1807906	REC_END	n/a	n/a	n/a	-999	16	[0, 0, 0]	n/a	FR1	3	R1281E
2700.996	0.012	1807906	TRIAL_END	n/a	n/a	n/a	-999	16	[0, 0, 0]	n/a	FR1	3	R1281E
2701.008	0.0	1807918	WAITING_START	n/a	n/a	n/a	-999	17	[0, 0, 0]	n/a	FR1	3	R1281E
2701.008	0.0	1807918	TRIAL_START	n/a	n/a	n/a	-999	17	[0, 0, 0]	n/a	FR1	3	R1281E
2701.008	6.568	1807918	TRIAL	n/a	n/a	n/a	-999	17	[0, 0, 0]	n/a	FR1	3	R1281E
2707.576	0.0	1814486	WAITING_END	n/a	n/a	n/a	-999	17	[0, 0, 0]	n/a	FR1	3	R1281E
2707.576	10.43	1814486	COUNTDOWN_START	n/a	n/a	n/a	-999	17	[0, 0, 0]	n/a	FR1	3	R1281E
2718.006	0.001	1824916	COUNTDOWN_END	n/a	n/a	n/a	-999	17	[0, 0, 0]	n/a	FR1	3	R1281E
2718.007	1.089	1824917	ORIENT_START	n/a	n/a	n/a	-999	17	[0, 0, 0]	n/a	FR1	3	R1281E
2719.096	0.0	1826006	ORIENT_END	n/a	n/a	n/a	-999	17	[0, 0, 0]	n/a	FR1	3	R1281E
2719.096	1.109	1826006	ENCODING_START	n/a	n/a	n/a	-999	17	[0, 0, 0]	n/a	FR1	3	R1281E
2720.205	1.623	1827115	WORD	n/a	n/a	PEA	1	17	[0, 0, 0]	n/a	FR1	3	R1281E
2721.828	1.064	1828738	WORD_OFF	n/a	n/a	PEA	1	17	[0, 0, 0]	n/a	FR1	3	R1281E
2722.892	1.638	1829802	WORD	n/a	n/a	POLE	2	17	[0, 0, 0]	n/a	FR1	3	R1281E
2724.53	0.89	1831439	WORD_OFF	n/a	n/a	POLE	2	17	[0, 0, 0]	n/a	FR1	3	R1281E
2725.42	1.626	1832329	WORD	n/a	n/a	PEACH	3	17	[0, 0, 0]	n/a	FR1	3	R1281E
2727.046	0.755	1833955	WORD_OFF	n/a	n/a	PEACH	3	17	[0, 0, 0]	n/a	FR1	3	R1281E
2727.801	1.63	1834710	WORD	n/a	n/a	FARM	4	17	[0, 0, 0]	n/a	FR1	3	R1281E
2729.431	0.916	1836340	WORD_OFF	n/a	n/a	FARM	4	17	[0, 0, 0]	n/a	FR1	3	R1281E
2730.347	1.633	1837256	WORD	n/a	n/a	BOAT	5	17	[0, 0, 0]	n/a	FR1	3	R1281E
2731.98	0.899	1838889	WORD_OFF	n/a	n/a	BOAT	5	17	[0, 0, 0]	n/a	FR1	3	R1281E
2732.879	1.636	1839788	WORD	n/a	n/a	DOG	6	17	[0, 0, 0]	n/a	FR1	3	R1281E
2734.515	0.759	1841424	WORD_OFF	n/a	n/a	DOG	6	17	[0, 0, 0]	n/a	FR1	3	R1281E
2735.274	1.624	1842183	WORD	n/a	n/a	PRINCE	7	17	[0, 0, 0]	n/a	FR1	3	R1281E
2736.898	0.986	1843807	WORD_OFF	n/a	n/a	PRINCE	7	17	[0, 0, 0]	n/a	FR1	3	R1281E
2737.884	1.632	1844793	WORD	n/a	n/a	SKI	8	17	[0, 0, 0]	n/a	FR1	3	R1281E
2739.516	0.871	1846425	WORD_OFF	n/a	n/a	SKI	8	17	[0, 0, 0]	n/a	FR1	3	R1281E
2740.387	1.628	1847296	WORD	n/a	n/a	PLANT	9	17	[0, 0, 0]	n/a	FR1	3	R1281E
2742.015	0.958	1848924	WORD_OFF	n/a	n/a	PLANT	9	17	[0, 0, 0]	n/a	FR1	3	R1281E
2742.973	1.626	1849882	WORD	n/a	n/a	TOY	10	17	[0, 0, 0]	n/a	FR1	3	R1281E
2744.599	0.85	1851508	WORD_OFF	n/a	n/a	TOY	10	17	[0, 0, 0]	n/a	FR1	3	R1281E
2745.449	1.635	1852358	WORD	n/a	n/a	BED	11	17	[0, 0, 0]	n/a	FR1	3	R1281E
2747.084	0.925	1853993	WORD_OFF	n/a	n/a	BED	11	17	[0, 0, 0]	n/a	FR1	3	R1281E
2748.009	1.624	1854918	WORD	n/a	n/a	TEA	12	17	[0, 0, 0]	n/a	FR1	3	R1281E
2749.633	0.001	1856542	WORD_OFF	n/a	n/a	TEA	12	17	[0, 0, 0]	n/a	FR1	3	R1281E
2749.634	0.0	1856543	ENCODING_END	n/a	n/a	n/a	-999	17	[0, 0, 0]	n/a	FR1	3	R1281E
2749.634	0.0	1856543	DISTRACT_START	n/a	n/a	n/a	-999	17	[0, 0, 0]	n/a	FR1	3	R1281E
2749.634	0.016	1856543	START	n/a	n/a	n/a	-999	17	[-999, -999, -999]	n/a	FR1	3	R1281E
2749.65	7.519	1856559	PROB	7.519	n/a	n/a	-999	17	[8, 9, 8]	25	FR1	3	R1281E
2757.169	3.134	1864077	PROB	3.134	n/a	n/a	-999	17	[1, 3, 2]	6	FR1	3	R1281E
2760.303	3.95	1867211	PROB	3.95	n/a	n/a	-999	17	[4, 9, 6]	19	FR1	3	R1281E
2764.253	3.416	1871161	PROB	3.416	n/a	n/a	-999	17	[3, 1, 5]	9	FR1	3	R1281E
2767.669	3.233	1874577	PROB	3.233	n/a	n/a	-999	17	[2, 2, 5]	9	FR1	3	R1281E
2770.902	0.018	1877810	STOP	n/a	n/a	n/a	-999	17	[-999, -999, -999]	n/a	FR1	3	R1281E
2770.92	0.664	1877828	DISTRACT_END	n/a	n/a	n/a	-999	17	[0, 0, 0]	n/a	FR1	3	R1281E
2771.584	1.704	1878492	RETRIEVAL_ORIENT_START	n/a	n/a	n/a	-999	17	[0, 0, 0]	n/a	FR1	3	R1281E
2773.288	0.001	1880196	RETRIEVAL_ORIENT_END	n/a	n/a	n/a	-999	17	[0, 0, 0]	n/a	FR1	3	R1281E
2773.289	0.569	1880197	REC_START	n/a	n/a	n/a	-999	17	[0, 0, 0]	n/a	FR1	3	R1281E
2773.858	2.049	1880766	REC_WORD	2.049	n/a	PEA	1	17	[0, 0, 0]	n/a	FR1	3	R1281E
2775.907	13.989	1882815	REC_WORD	13.989	n/a	TEA	12	17	[0, 0, 0]	n/a	FR1	3	R1281E
2789.896	13.403	1896803	REC_WORD	13.403	n/a	CROWN	-999	17	[0, 0, 0]	n/a	FR1	3	R1281E
2803.299	0.0	1910206	REC_END	n/a	n/a	n/a	-999	17	[0, 0, 0]	n/a	FR1	3	R1281E
2803.299	0.012	1910206	TRIAL_END	n/a	n/a	n/a	-999	17	[0, 0, 0]	n/a	FR1	3	R1281E
2803.311	0.001	1910218	TRIAL_START	n/a	n/a	n/a	-999	18	[0, 0, 0]	n/a	FR1	3	R1281E
2803.312	0.0	1910219	WAITING_START	n/a	n/a	n/a	-999	18	[0, 0, 0]	n/a	FR1	3	R1281E
2803.312	8.265	1910219	TRIAL	n/a	n/a	n/a	-999	18	[0, 0, 0]	n/a	FR1	3	R1281E
2811.577	0.001	1918483	WAITING_END	n/a	n/a	n/a	-999	18	[0, 0, 0]	n/a	FR1	3	R1281E
2811.578	10.428	1918484	COUNTDOWN_START	n/a	n/a	n/a	-999	18	[0, 0, 0]	n/a	FR1	3	R1281E
2822.006	0.001	1928912	COUNTDOWN_END	n/a	n/a	n/a	-999	18	[0, 0, 0]	n/a	FR1	3	R1281E
2822.007	1.107	1928913	ORIENT_START	n/a	n/a	n/a	-999	18	[0, 0, 0]	n/a	FR1	3	R1281E
2823.114	0.0	1930020	ORIENT_END	n/a	n/a	n/a	-999	18	[0, 0, 0]	n/a	FR1	3	R1281E
2823.114	0.774	1930020	ENCODING_START	n/a	n/a	n/a	-999	18	[0, 0, 0]	n/a	FR1	3	R1281E
2823.888	1.626	1930794	WORD	n/a	n/a	CLOTH	1	18	[0, 0, 0]	n/a	FR1	3	R1281E
2825.514	1.013	1932420	WORD_OFF	n/a	n/a	CLOTH	1	18	[0, 0, 0]	n/a	FR1	3	R1281E
2826.527	1.621	1933433	WORD	n/a	n/a	SEAL	2	18	[0, 0, 0]	n/a	FR1	3	R1281E
2828.148	1.01	1935054	WORD_OFF	n/a	n/a	SEAL	2	18	[0, 0, 0]	n/a	FR1	3	R1281E
2829.158	1.623	1936064	WORD	n/a	n/a	INK	3	18	[0, 0, 0]	n/a	FR1	3	R1281E
2830.781	1.064	1937687	WORD_OFF	n/a	n/a	INK	3	18	[0, 0, 0]	n/a	FR1	3	R1281E
2831.845	1.637	1938751	WORD	n/a	n/a	SNAIL	4	18	[0, 0, 0]	n/a	FR1	3	R1281E
2833.482	1.11	1940388	WORD_OFF	n/a	n/a	SNAIL	4	18	[0, 0, 0]	n/a	FR1	3	R1281E
2834.592	1.624	1941498	WORD	n/a	n/a	TEETH	5	18	[0, 0, 0]	n/a	FR1	3	R1281E
2836.216	1.132	1943122	WORD_OFF	n/a	n/a	TEETH	5	18	[0, 0, 0]	n/a	FR1	3	R1281E
2837.348	1.634	1944254	WORD	n/a	n/a	APE	6	18	[0, 0, 0]	n/a	FR1	3	R1281E
2838.982	1.051	1945888	WORD_OFF	n/a	n/a	APE	6	18	[0, 0, 0]	n/a	FR1	3	R1281E
2840.033	1.633	1946938	WORD	n/a	n/a	BAG	7	18	[0, 0, 0]	n/a	FR1	3	R1281E
2841.666	0.971	1948571	WORD_OFF	n/a	n/a	BAG	7	18	[0, 0, 0]	n/a	FR1	3	R1281E
2842.637	1.614	1949542	WORD	n/a	n/a	CHAIR	8	18	[0, 0, 0]	n/a	FR1	3	R1281E
2844.251	1.135	1951156	WORD_OFF	n/a	n/a	CHAIR	8	18	[0, 0, 0]	n/a	FR1	3	R1281E
2845.386	1.631	1952291	WORD	n/a	n/a	LAMB	9	18	[0, 0, 0]	n/a	FR1	3	R1281E
2847.017	0.978	1953922	WORD_OFF	n/a	n/a	LAMB	9	18	[0, 0, 0]	n/a	FR1	3	R1281E
2847.995	1.623	1954900	WORD	n/a	n/a	HAWK	10	18	[0, 0, 0]	n/a	FR1	3	R1281E
2849.618	0.776	1956523	WORD_OFF	n/a	n/a	HAWK	10	18	[0, 0, 0]	n/a	FR1	3	R1281E
2850.394	1.624	1957299	WORD	n/a	n/a	PLATE	11	18	[0, 0, 0]	n/a	FR1	3	R1281E
2852.018	1.15	1958923	WORD_OFF	n/a	n/a	PLATE	11	18	[0, 0, 0]	n/a	FR1	3	R1281E
2853.168	1.634	1960073	WORD	n/a	n/a	STAIR	12	18	[0, 0, 0]	n/a	FR1	3	R1281E
2854.802	0.0	1961707	WORD_OFF	n/a	n/a	STAIR	12	18	[0, 0, 0]	n/a	FR1	3	R1281E
2854.802	0.0	1961707	ENCODING_END	n/a	n/a	n/a	-999	18	[0, 0, 0]	n/a	FR1	3	R1281E
2854.802	0.001	1961707	DISTRACT_START	n/a	n/a	n/a	-999	18	[0, 0, 0]	n/a	FR1	3	R1281E
2854.803	0.015	1961708	START	n/a	n/a	n/a	-999	18	[-999, -999, -999]	n/a	FR1	3	R1281E
2854.818	3.635	1961723	PROB	3.635	n/a	n/a	-999	18	[6, 2, 3]	11	FR1	3	R1281E
2858.453	2.684	1965358	PROB	2.684	n/a	n/a	-999	18	[7, 6, 4]	17	FR1	3	R1281E
2861.137	2.816	1968042	PROB	2.816	n/a	n/a	-999	18	[4, 5, 8]	17	FR1	3	R1281E
2863.953	2.751	1970858	PROB	2.751	n/a	n/a	-999	18	[5, 9, 1]	15	FR1	3	R1281E
2866.704	3.25	1973609	PROB	3.25	n/a	n/a	-999	18	[3, 8, 8]	19	FR1	3	R1281E
2869.954	2.602	1976858	PROB	2.602	n/a	n/a	-999	18	[4, 1, 4]	9	FR1	3	R1281E
2872.556	3.182	1979460	PROB	3.182	n/a	n/a	-999	18	[8, 6, 8]	22	FR1	3	R1281E
2875.738	0.017	1982642	STOP	n/a	n/a	n/a	-999	18	[-999, -999, -999]	n/a	FR1	3	R1281E
2875.755	0.606	1982659	DISTRACT_END	n/a	n/a	n/a	-999	18	[0, 0, 0]	n/a	FR1	3	R1281E
2876.361	1.712	1983265	RETRIEVAL_ORIENT_START	n/a	n/a	n/a	-999	18	[0, 0, 0]	n/a	FR1	3	R1281E
2878.073	0.001	1984977	RETRIEVAL_ORIENT_END	n/a	n/a	n/a	-999	18	[0, 0, 0]	n/a	FR1	3	R1281E
2878.074	8.973	1984978	REC_START	n/a	n/a	n/a	-999	18	[0, 0, 0]	n/a	FR1	3	R1281E
2887.047	21.037	1993951	REC_WORD	21.037	n/a	SINK	-999	18	[0, 0, 0]	n/a	FR1	3	R1281E
2908.084	0.0	2014987	REC_END	n/a	n/a	n/a	-999	18	[0, 0, 0]	n/a	FR1	3	R1281E
2908.084	0.011	2014987	TRIAL_END	n/a	n/a	n/a	-999	18	[0, 0, 0]	n/a	FR1	3	R1281E
2908.095	0.0	2014998	TRIAL_START	n/a	n/a	n/a	-999	19	[0, 0, 0]	n/a	FR1	3	R1281E
2908.095	0.001	2014998	TRIAL	n/a	n/a	n/a	-999	19	[0, 0, 0]	n/a	FR1	3	R1281E
2908.096	6.583	2014999	WAITING_START	n/a	n/a	n/a	-999	19	[0, 0, 0]	n/a	FR1	3	R1281E
2914.679	0.0	2021582	COUNTDOWN_START	n/a	n/a	n/a	-999	19	[0, 0, 0]	n/a	FR1	3	R1281E
2914.679	10.428	2021582	WAITING_END	n/a	n/a	n/a	-999	19	[0, 0, 0]	n/a	FR1	3	R1281E
2925.107	0.0	2032010	COUNTDOWN_END	n/a	n/a	n/a	-999	19	[0, 0, 0]	n/a	FR1	3	R1281E
2925.107	1.125	2032010	ORIENT_START	n/a	n/a	n/a	-999	19	[0, 0, 0]	n/a	FR1	3	R1281E
2926.232	0.0	2033135	ORIENT_END	n/a	n/a	n/a	-999	19	[0, 0, 0]	n/a	FR1	3	R1281E
2926.232	0.793	2033135	ENCODING_START	n/a	n/a	n/a	-999	19	[0, 0, 0]	n/a	FR1	3	R1281E
2927.025	1.623	2033927	WORD	n/a	n/a	PIE	1	19	[0, 0, 0]	n/a	FR1	3	R1281E
2928.648	0.903	2035550	WORD_OFF	n/a	n/a	PIE	1	19	[0, 0, 0]	n/a	FR1	3	R1281E
2929.551	1.632	2036453	WORD	n/a	n/a	BRANCH	2	19	[0, 0, 0]	n/a	FR1	3	R1281E
2931.183	0.778	2038085	WORD_OFF	n/a	n/a	BRANCH	2	19	[0, 0, 0]	n/a	FR1	3	R1281E
2931.961	1.621	2038863	WORD	n/a	n/a	ROOF	3	19	[0, 0, 0]	n/a	FR1	3	R1281E
2933.582	0.785	2040484	WORD_OFF	n/a	n/a	ROOF	3	19	[0, 0, 0]	n/a	FR1	3	R1281E
2934.367	1.632	2041269	WORD	n/a	n/a	BEACH	4	19	[0, 0, 0]	n/a	FR1	3	R1281E
2935.999	1.04	2042901	WORD_OFF	n/a	n/a	BEACH	4	19	[0, 0, 0]	n/a	FR1	3	R1281E
2937.039	1.628	2043941	WORD	n/a	n/a	TOE	5	19	[0, 0, 0]	n/a	FR1	3	R1281E
2938.667	0.941	2045569	WORD_OFF	n/a	n/a	TOE	5	19	[0, 0, 0]	n/a	FR1	3	R1281E
2939.608	1.627	2046510	WORD	n/a	n/a	STRING	6	19	[0, 0, 0]	n/a	FR1	3	R1281E
2941.235	0.981	2048137	WORD_OFF	n/a	n/a	STRING	6	19	[0, 0, 0]	n/a	FR1	3	R1281E
2942.216	1.635	2049118	WORD	n/a	n/a	SWORD	7	19	[0, 0, 0]	n/a	FR1	3	R1281E
2943.851	0.968	2050753	WORD_OFF	n/a	n/a	SWORD	7	19	[0, 0, 0]	n/a	FR1	3	R1281E
2944.819	1.633	2051721	WORD	n/a	n/a	POND	8	19	[0, 0, 0]	n/a	FR1	3	R1281E
2946.452	1.079	2053354	WORD_OFF	n/a	n/a	POND	8	19	[0, 0, 0]	n/a	FR1	3	R1281E
2947.531	1.622	2054433	WORD	n/a	n/a	PURSE	9	19	[0, 0, 0]	n/a	FR1	3	R1281E
2949.153	0.84	2056055	WORD_OFF	n/a	n/a	PURSE	9	19	[0, 0, 0]	n/a	FR1	3	R1281E
2949.993	1.626	2056895	WORD	n/a	n/a	THUMB	10	19	[0, 0, 0]	n/a	FR1	3	R1281E
2951.619	0.903	2058521	WORD_OFF	n/a	n/a	THUMB	10	19	[0, 0, 0]	n/a	FR1	3	R1281E
2952.522	1.631	2059424	WORD	n/a	n/a	CALF	11	19	[0, 0, 0]	n/a	FR1	3	R1281E
2954.153	1.149	2061055	WORD_OFF	n/a	n/a	CALF	11	19	[0, 0, 0]	n/a	FR1	3	R1281E
2955.302	1.634	2062204	WORD	n/a	n/a	ROPE	12	19	[0, 0, 0]	n/a	FR1	3	R1281E
2956.936	0.001	2063837	WORD_OFF	n/a	n/a	ROPE	12	19	[0, 0, 0]	n/a	FR1	3	R1281E
2956.937	0.0	2063838	ENCODING_END	n/a	n/a	n/a	-999	19	[0, 0, 0]	n/a	FR1	3	R1281E
2956.937	0.0	2063838	DISTRACT_START	n/a	n/a	n/a	-999	19	[0, 0, 0]	n/a	FR1	3	R1281E
2956.937	0.016	2063838	START	n/a	n/a	n/a	-999	19	[-999, -999, -999]	n/a	FR1	3	R1281E
2956.953	4.734	2063854	PROB	4.734	n/a	n/a	-999	19	[4, 6, 1]	11	FR1	3	R1281E
2961.687	3.385	2068588	PROB	3.385	n/a	n/a	-999	19	[4, 2, 4]	10	FR1	3	R1281E
2965.072	3.05	2071973	PROB	3.05	n/a	n/a	-999	19	[9, 2, 1]	12	FR1	3	R1281E
2968.122	3.068	2075023	PROB	3.068	n/a	n/a	-999	19	[1, 1, 4]	6	FR1	3	R1281E
2971.19	3.749	2078091	PROB	3.749	n/a	n/a	-999	19	[5, 8, 4]	17	FR1	3	R1281E
2974.939	4.242	2081840	PROB	4.242	n/a	n/a	-999	19	[9, 5, 3]	17	FR1	3	R1281E
2979.181	0.01	2086082	STOP	n/a	n/a	n/a	-999	19	[-999, -999, -999]	n/a	FR1	3	R1281E
2979.191	0.647	2086092	DISTRACT_END	n/a	n/a	n/a	-999	19	[0, 0, 0]	n/a	FR1	3	R1281E
2979.838	1.654	2086739	RETRIEVAL_ORIENT_START	n/a	n/a	n/a	-999	19	[0, 0, 0]	n/a	FR1	3	R1281E
2981.492	0.0	2088393	RETRIEVAL_ORIENT_END	n/a	n/a	n/a	-999	19	[0, 0, 0]	n/a	FR1	3	R1281E
2981.492	0.394	2088393	REC_START	n/a	n/a	n/a	-999	19	[0, 0, 0]	n/a	FR1	3	R1281E
2981.886	1.7	2088787	REC_WORD	1.7	n/a	TOE	5	19	[0, 0, 0]	n/a	FR1	3	R1281E
2983.586	1.695	2090487	REC_WORD	1.695	n/a	BEACH	4	19	[0, 0, 0]	n/a	FR1	3	R1281E
2985.281	10.534	2092181	REC_WORD	10.534	n/a	POND	8	19	[0, 0, 0]	n/a	FR1	3	R1281E
2995.815	15.687	2102715	REC_WORD	15.687	n/a	CALF	11	19	[0, 0, 0]	n/a	FR1	3	R1281E
3011.502	0.0	2118402	REC_END	n/a	n/a	n/a	-999	19	[0, 0, 0]	n/a	FR1	3	R1281E
3011.502	0.012	2118402	TRIAL_END	n/a	n/a	n/a	-999	19	[0, 0, 0]	n/a	FR1	3	R1281E
3011.514	0.0	2118414	TRIAL_START	n/a	n/a	n/a	-999	20	[0, 0, 0]	n/a	FR1	3	R1281E
3011.514	0.0	2118414	TRIAL	n/a	n/a	n/a	-999	20	[0, 0, 0]	n/a	FR1	3	R1281E
3011.514	20.586	2118414	WAITING_START	n/a	n/a	n/a	-999	20	[0, 0, 0]	n/a	FR1	3	R1281E
3032.1	0.001	2138999	WAITING_END	n/a	n/a	n/a	-999	20	[0, 0, 0]	n/a	FR1	3	R1281E
3032.101	10.429	2139000	COUNTDOWN_START	n/a	n/a	n/a	-999	20	[0, 0, 0]	n/a	FR1	3	R1281E
3042.53	0.0	2149429	ORIENT_START	n/a	n/a	n/a	-999	20	[0, 0, 0]	n/a	FR1	3	R1281E
3042.53	1.138	2149429	COUNTDOWN_END	n/a	n/a	n/a	-999	20	[0, 0, 0]	n/a	FR1	3	R1281E
3043.668	0.001	2150566	ORIENT_END	n/a	n/a	n/a	-999	20	[0, 0, 0]	n/a	FR1	3	R1281E
3043.669	0.758	2150567	ENCODING_START	n/a	n/a	n/a	-999	20	[0, 0, 0]	n/a	FR1	3	R1281E
3044.427	1.625	2151325	WORD	n/a	n/a	CAT	1	20	[0, 0, 0]	n/a	FR1	3	R1281E
3046.052	1.03	2152950	WORD_OFF	n/a	n/a	CAT	1	20	[0, 0, 0]	n/a	FR1	3	R1281E
3047.082	1.62	2153980	WORD	n/a	n/a	SPOON	2	20	[0, 0, 0]	n/a	FR1	3	R1281E
3048.702	0.872	2155600	WORD_OFF	n/a	n/a	SPOON	2	20	[0, 0, 0]	n/a	FR1	3	R1281E
3049.574	1.613	2156472	WORD	n/a	n/a	CAPE	3	20	[0, 0, 0]	n/a	FR1	3	R1281E
3051.187	1.104	2158085	WORD_OFF	n/a	n/a	CAPE	3	20	[0, 0, 0]	n/a	FR1	3	R1281E
3052.291	1.629	2159189	WORD	n/a	n/a	CRANE	4	20	[0, 0, 0]	n/a	FR1	3	R1281E
3053.92	1.059	2160818	WORD_OFF	n/a	n/a	CRANE	4	20	[0, 0, 0]	n/a	FR1	3	R1281E
3054.979	1.625	2161877	WORD	n/a	n/a	STOOL	5	20	[0, 0, 0]	n/a	FR1	3	R1281E
3056.604	0.901	2163502	WORD_OFF	n/a	n/a	STOOL	5	20	[0, 0, 0]	n/a	FR1	3	R1281E
3057.505	1.633	2164403	WORD	n/a	n/a	RAKE	6	20	[0, 0, 0]	n/a	FR1	3	R1281E
3059.138	1.036	2166036	WORD_OFF	n/a	n/a	RAKE	6	20	[0, 0, 0]	n/a	FR1	3	R1281E
3060.174	1.631	2167072	WORD	n/a	n/a	CHIEF	7	20	[0, 0, 0]	n/a	FR1	3	R1281E
3061.805	0.874	2168703	WORD_OFF	n/a	n/a	CHIEF	7	20	[0, 0, 0]	n/a	FR1	3	R1281E
3062.679	1.627	2169577	WORD	n/a	n/a	FACE	8	20	[0, 0, 0]	n/a	FR1	3	R1281E
3064.306	0.886	2171204	WORD_OFF	n/a	n/a	FACE	8	20	[0, 0, 0]	n/a	FR1	3	R1281E
3065.192	1.63	2172090	WORD	n/a	n/a	MOUSE	9	20	[0, 0, 0]	n/a	FR1	3	R1281E
3066.822	0.789	2173720	WORD_OFF	n/a	n/a	MOUSE	9	20	[0, 0, 0]	n/a	FR1	3	R1281E
3067.611	1.629	2174509	WORD	n/a	n/a	VEST	10	20	[0, 0, 0]	n/a	FR1	3	R1281E
3069.24	1.136	2176138	WORD_OFF	n/a	n/a	VEST	10	20	[0, 0, 0]	n/a	FR1	3	R1281E
3070.376	1.631	2177274	WORD	n/a	n/a	FROG	11	20	[0, 0, 0]	n/a	FR1	3	R1281E
3072.007	0.852	2178904	WORD_OFF	n/a	n/a	FROG	11	20	[0, 0, 0]	n/a	FR1	3	R1281E
3072.859	1.615	2179756	WORD	n/a	n/a	CORN	12	20	[0, 0, 0]	n/a	FR1	3	R1281E
3074.474	0.001	2181371	WORD_OFF	n/a	n/a	CORN	12	20	[0, 0, 0]	n/a	FR1	3	R1281E
3074.475	0.0	2181372	DISTRACT_START	n/a	n/a	n/a	-999	20	[0, 0, 0]	n/a	FR1	3	R1281E
3074.475	0.0	2181372	ENCODING_END	n/a	n/a	n/a	-999	20	[0, 0, 0]	n/a	FR1	3	R1281E
3074.475	0.016	2181372	START	n/a	n/a	n/a	-999	20	[-999, -999, -999]	n/a	FR1	3	R1281E
3074.491	4.083	2181388	PROB	4.083	n/a	n/a	-999	20	[2, 7, 5]	14	FR1	3	R1281E
3078.574	3.417	2185471	PROB	3.417	n/a	n/a	-999	20	[4, 3, 7]	14	FR1	3	R1281E
3081.991	3.584	2188888	PROB	3.584	n/a	n/a	-999	20	[5, 7, 9]	21	FR1	3	R1281E
3085.575	3.167	2192472	PROB	3.167	n/a	n/a	-999	20	[4, 5, 3]	12	FR1	3	R1281E
3088.742	3.234	2195639	PROB	3.234	n/a	n/a	-999	20	[2, 1, 3]	6	FR1	3	R1281E
3091.976	6.329	2198873	PROB	6.329	n/a	n/a	-999	20	[7, 1, 7]	15	FR1	3	R1281E
3098.305	0.007	2205202	STOP	n/a	n/a	n/a	-999	20	[-999, -999, -999]	n/a	FR1	3	R1281E
3098.312	0.541	2205209	DISTRACT_END	n/a	n/a	n/a	-999	20	[0, 0, 0]	n/a	FR1	3	R1281E
3098.853	1.643	2205750	RETRIEVAL_ORIENT_START	n/a	n/a	n/a	-999	20	[0, 0, 0]	n/a	FR1	3	R1281E
3100.496	0.0	2207393	RETRIEVAL_ORIENT_END	n/a	n/a	n/a	-999	20	[0, 0, 0]	n/a	FR1	3	R1281E
3100.496	0.844	2207393	REC_START	n/a	n/a	n/a	-999	20	[0, 0, 0]	n/a	FR1	3	R1281E
3101.34	2.155	2208236	REC_WORD	2.155	n/a	CAT	1	20	[0, 0, 0]	n/a	FR1	3	R1281E
3103.495	24.492	2210391	REC_WORD	24.492	n/a	SPOON	2	20	[0, 0, 0]	n/a	FR1	3	R1281E
3127.987	2.521	2234883	REC_WORD	2.521	n/a	SMILE	-999	20	[0, 0, 0]	n/a	FR1	3	R1281E
3130.508	0.001	2237403	REC_END	n/a	n/a	n/a	-999	20	[0, 0, 0]	n/a	FR1	3	R1281E
3130.509	0.012	2237404	TRIAL_END	n/a	n/a	n/a	-999	20	[0, 0, 0]	n/a	FR1	3	R1281E
3130.521	0.0	2237416	TRIAL_START	n/a	n/a	n/a	-999	21	[0, 0, 0]	n/a	FR1	3	R1281E
3130.521	0.0	2237416	TRIAL	n/a	n/a	n/a	-999	21	[0, 0, 0]	n/a	FR1	3	R1281E
3130.521	27.217	2237416	WAITING_START	n/a	n/a	n/a	-999	21	[0, 0, 0]	n/a	FR1	3	R1281E
3157.738	0.001	2264633	WAITING_END	n/a	n/a	n/a	-999	21	[0, 0, 0]	n/a	FR1	3	R1281E
3157.739	10.428	2264634	COUNTDOWN_START	n/a	n/a	n/a	-999	21	[0, 0, 0]	n/a	FR1	3	R1281E
3168.167	0.001	2275061	COUNTDOWN_END	n/a	n/a	n/a	-999	21	[0, 0, 0]	n/a	FR1	3	R1281E
3168.168	1.24	2275062	ORIENT_START	n/a	n/a	n/a	-999	21	[0, 0, 0]	n/a	FR1	3	R1281E
3169.408	0.0	2276302	ORIENT_END	n/a	n/a	n/a	-999	21	[0, 0, 0]	n/a	FR1	3	R1281E
3169.408	1.149	2276302	ENCODING_START	n/a	n/a	n/a	-999	21	[0, 0, 0]	n/a	FR1	3	R1281E
3170.557	1.635	2277451	WORD	n/a	n/a	HOLE	1	21	[0, 0, 0]	n/a	FR1	3	R1281E
3172.192	1.141	2279086	WORD_OFF	n/a	n/a	HOLE	1	21	[0, 0, 0]	n/a	FR1	3	R1281E
3173.333	1.625	2280227	WORD	n/a	n/a	MAIL	2	21	[0, 0, 0]	n/a	FR1	3	R1281E
3174.958	1.124	2281852	WORD_OFF	n/a	n/a	MAIL	2	21	[0, 0, 0]	n/a	FR1	3	R1281E
3176.082	1.626	2282976	WORD	n/a	n/a	NAIL	3	21	[0, 0, 0]	n/a	FR1	3	R1281E
3177.708	0.992	2284602	WORD_OFF	n/a	n/a	NAIL	3	21	[0, 0, 0]	n/a	FR1	3	R1281E
3178.7	1.626	2285594	WORD	n/a	n/a	PARK	4	21	[0, 0, 0]	n/a	FR1	3	R1281E
3180.326	1.005	2287220	WORD_OFF	n/a	n/a	PARK	4	21	[0, 0, 0]	n/a	FR1	3	R1281E
3181.331	1.628	2288225	WORD	n/a	n/a	MUD	5	21	[0, 0, 0]	n/a	FR1	3	R1281E
3182.959	0.911	2289853	WORD_OFF	n/a	n/a	MUD	5	21	[0, 0, 0]	n/a	FR1	3	R1281E
3183.87	1.624	2290764	WORD	n/a	n/a	FOX	6	21	[0, 0, 0]	n/a	FR1	3	R1281E
3185.494	1.031	2292388	WORD_OFF	n/a	n/a	FOX	6	21	[0, 0, 0]	n/a	FR1	3	R1281E
3186.525	1.636	2293419	WORD	n/a	n/a	HOSE	7	21	[0, 0, 0]	n/a	FR1	3	R1281E
3188.161	0.838	2295054	WORD_OFF	n/a	n/a	HOSE	7	21	[0, 0, 0]	n/a	FR1	3	R1281E
3188.999	1.628	2295892	WORD	n/a	n/a	PIPE	8	21	[0, 0, 0]	n/a	FR1	3	R1281E
3190.627	1.062	2297520	WORD_OFF	n/a	n/a	PIPE	8	21	[0, 0, 0]	n/a	FR1	3	R1281E
3191.689	1.623	2298582	WORD	n/a	n/a	SNOW	9	21	[0, 0, 0]	n/a	FR1	3	R1281E
3193.312	0.755	2300205	WORD_OFF	n/a	n/a	SNOW	9	21	[0, 0, 0]	n/a	FR1	3	R1281E
3194.067	1.628	2300960	WORD	n/a	n/a	SUIT	10	21	[0, 0, 0]	n/a	FR1	3	R1281E
3195.695	0.95	2302588	WORD_OFF	n/a	n/a	SUIT	10	21	[0, 0, 0]	n/a	FR1	3	R1281E
3196.645	1.635	2303538	WORD	n/a	n/a	PIN	11	21	[0, 0, 0]	n/a	FR1	3	R1281E
3198.28	0.756	2305173	WORD_OFF	n/a	n/a	PIN	11	21	[0, 0, 0]	n/a	FR1	3	R1281E
3199.036	1.626	2305929	WORD	n/a	n/a	GLOVE	12	21	[0, 0, 0]	n/a	FR1	3	R1281E
3200.662	0.001	2307555	WORD_OFF	n/a	n/a	GLOVE	12	21	[0, 0, 0]	n/a	FR1	3	R1281E
3200.663	0.0	2307556	DISTRACT_START	n/a	n/a	n/a	-999	21	[0, 0, 0]	n/a	FR1	3	R1281E
3200.663	0.0	2307556	ENCODING_END	n/a	n/a	n/a	-999	21	[0, 0, 0]	n/a	FR1	3	R1281E
3200.663	0.016	2307556	START	n/a	n/a	n/a	-999	21	[-999, -999, -999]	n/a	FR1	3	R1281E
3200.679	3.184	2307572	PROB	3.184	n/a	n/a	-999	21	[1, 7, 3]	11	FR1	3	R1281E
3203.863	3.551	2310756	PROB	3.551	n/a	n/a	-999	21	[5, 4, 1]	10	FR1	3	R1281E
3207.414	3.734	2314307	PROB	3.734	n/a	n/a	-999	21	[8, 4, 7]	19	FR1	3	R1281E
3211.148	2.317	2318041	PROB	2.317	n/a	n/a	-999	21	[1, 1, 9]	11	FR1	3	R1281E
3213.465	4.533	2320358	PROB	4.533	n/a	n/a	-999	21	[3, 7, 6]	16	FR1	3	R1281E
3217.998	3.724	2324890	PROB	3.724	n/a	n/a	-999	21	[8, 2, 1]	11	FR1	3	R1281E
3221.722	0.011	2328614	STOP	n/a	n/a	n/a	-999	21	[-999, -999, -999]	n/a	FR1	3	R1281E
3221.733	0.623	2328625	DISTRACT_END	n/a	n/a	n/a	-999	21	[0, 0, 0]	n/a	FR1	3	R1281E
3222.356	1.694	2329248	RETRIEVAL_ORIENT_START	n/a	n/a	n/a	-999	21	[0, 0, 0]	n/a	FR1	3	R1281E
3224.05	0.0	2330942	RETRIEVAL_ORIENT_END	n/a	n/a	n/a	-999	21	[0, 0, 0]	n/a	FR1	3	R1281E
3224.05	29.994	2330942	REC_START	n/a	n/a	n/a	-999	21	[0, 0, 0]	n/a	FR1	3	R1281E
3254.044	0.017	2360935	REC_WORD_VV	0.017	n/a	<>	-999	21	[0, 0, 0]	n/a	FR1	3	R1281E
3254.061	0.0	2360952	REC_END	n/a	n/a	n/a	-999	21	[0, 0, 0]	n/a	FR1	3	R1281E
3254.061	0.013	2360952	TRIAL_END	n/a	n/a	n/a	-999	21	[0, 0, 0]	n/a	FR1	3	R1281E
3254.074	0.0	2360965	WAITING_START	n/a	n/a	n/a	-999	22	[0, 0, 0]	n/a	FR1	3	R1281E
3254.074	0.0	2360965	TRIAL_START	n/a	n/a	n/a	-999	22	[0, 0, 0]	n/a	FR1	3	R1281E
3254.074	12.75	2360965	TRIAL	n/a	n/a	n/a	-999	22	[0, 0, 0]	n/a	FR1	3	R1281E
3266.824	0.0	2373715	WAITING_END	n/a	n/a	n/a	-999	22	[0, 0, 0]	n/a	FR1	3	R1281E
3266.824	10.43	2373715	COUNTDOWN_START	n/a	n/a	n/a	-999	22	[0, 0, 0]	n/a	FR1	3	R1281E
3277.254	0.001	2384144	COUNTDOWN_END	n/a	n/a	n/a	-999	22	[0, 0, 0]	n/a	FR1	3	R1281E
3277.255	1.172	2384145	ORIENT_START	n/a	n/a	n/a	-999	22	[0, 0, 0]	n/a	FR1	3	R1281E
3278.427	0.0	2385317	ENCODING_START	n/a	n/a	n/a	-999	22	[0, 0, 0]	n/a	FR1	3	R1281E
3278.427	0.888	2385317	ORIENT_END	n/a	n/a	n/a	-999	22	[0, 0, 0]	n/a	FR1	3	R1281E
3279.315	1.628	2386205	WORD	n/a	n/a	POOL	1	22	[0, 0, 0]	n/a	FR1	3	R1281E
3280.943	0.877	2387833	WORD_OFF	n/a	n/a	POOL	1	22	[0, 0, 0]	n/a	FR1	3	R1281E
3281.82	1.625	2388710	WORD	n/a	n/a	HORSE	2	22	[0, 0, 0]	n/a	FR1	3	R1281E
3283.445	0.778	2390335	WORD_OFF	n/a	n/a	HORSE	2	22	[0, 0, 0]	n/a	FR1	3	R1281E
3284.223	1.621	2391113	WORD	n/a	n/a	PEN	3	22	[0, 0, 0]	n/a	FR1	3	R1281E
3285.844	0.913	2392734	WORD_OFF	n/a	n/a	PEN	3	22	[0, 0, 0]	n/a	FR1	3	R1281E
3286.757	1.621	2393647	WORD	n/a	n/a	RAT	4	22	[0, 0, 0]	n/a	FR1	3	R1281E
3288.378	0.942	2395268	WORD_OFF	n/a	n/a	RAT	4	22	[0, 0, 0]	n/a	FR1	3	R1281E
3289.32	1.625	2396210	WORD	n/a	n/a	BOWL	5	22	[0, 0, 0]	n/a	FR1	3	R1281E
3290.945	0.953	2397835	WORD_OFF	n/a	n/a	BOWL	5	22	[0, 0, 0]	n/a	FR1	3	R1281E
3291.898	1.615	2398788	WORD	n/a	n/a	KEY	6	22	[0, 0, 0]	n/a	FR1	3	R1281E
3293.513	1.108	2400403	WORD_OFF	n/a	n/a	KEY	6	22	[0, 0, 0]	n/a	FR1	3	R1281E
3294.621	1.626	2401511	WORD	n/a	n/a	FOOT	7	22	[0, 0, 0]	n/a	FR1	3	R1281E
3296.247	1.016	2403137	WORD_OFF	n/a	n/a	FOOT	7	22	[0, 0, 0]	n/a	FR1	3	R1281E
3297.263	1.633	2404153	WORD	n/a	n/a	GRAPE	8	22	[0, 0, 0]	n/a	FR1	3	R1281E
3298.896	0.948	2405786	WORD_OFF	n/a	n/a	GRAPE	8	22	[0, 0, 0]	n/a	FR1	3	R1281E
3299.844	1.637	2406734	WORD	n/a	n/a	OWL	9	22	[0, 0, 0]	n/a	FR1	3	R1281E
3301.481	0.862	2408371	WORD_OFF	n/a	n/a	OWL	9	22	[0, 0, 0]	n/a	FR1	3	R1281E
3302.343	1.621	2409233	WORD	n/a	n/a	SCHOOL	10	22	[0, 0, 0]	n/a	FR1	3	R1281E
3303.964	1.04	2410853	WORD_OFF	n/a	n/a	SCHOOL	10	22	[0, 0, 0]	n/a	FR1	3	R1281E
3305.004	1.627	2411893	WORD	n/a	n/a	LAKE	11	22	[0, 0, 0]	n/a	FR1	3	R1281E
3306.631	1.12	2413520	WORD_OFF	n/a	n/a	LAKE	11	22	[0, 0, 0]	n/a	FR1	3	R1281E
3307.751	1.614	2414640	WORD	n/a	n/a	LEAF	12	22	[0, 0, 0]	n/a	FR1	3	R1281E
3309.365	0.001	2416254	WORD_OFF	n/a	n/a	LEAF	12	22	[0, 0, 0]	n/a	FR1	3	R1281E
3309.366	0.0	2416255	ENCODING_END	n/a	n/a	n/a	-999	22	[0, 0, 0]	n/a	FR1	3	R1281E
3309.366	0.0	2416255	DISTRACT_START	n/a	n/a	n/a	-999	22	[0, 0, 0]	n/a	FR1	3	R1281E
3309.366	0.016	2416255	START	n/a	n/a	n/a	-999	22	[-999, -999, -999]	n/a	FR1	3	R1281E
3309.382	4.267	2416271	PROB	4.267	n/a	n/a	-999	22	[8, 5, 4]	17	FR1	3	R1281E
3313.649	4.167	2420538	PROB	4.167	n/a	n/a	-999	22	[7, 5, 1]	13	FR1	3	R1281E
3317.816	3.618	2424705	PROB	3.618	n/a	n/a	-999	22	[4, 5, 4]	13	FR1	3	R1281E
3321.434	3.117	2428323	PROB	3.117	n/a	n/a	-999	22	[9, 3, 3]	15	FR1	3	R1281E
3324.551	5.548	2431440	PROB	5.548	n/a	n/a	-999	22	[9, 8, 5]	22	FR1	3	R1281E
3330.099	0.02	2436988	STOP	n/a	n/a	n/a	-999	22	[-999, -999, -999]	n/a	FR1	3	R1281E
3330.119	0.628	2437008	DISTRACT_END	n/a	n/a	n/a	-999	22	[0, 0, 0]	n/a	FR1	3	R1281E
3330.747	1.656	2437636	RETRIEVAL_ORIENT_START	n/a	n/a	n/a	-999	22	[0, 0, 0]	n/a	FR1	3	R1281E
3332.403	0.0	2439292	REC_START	n/a	n/a	n/a	-999	22	[0, 0, 0]	n/a	FR1	3	R1281E
3332.403	0.615	2439292	RETRIEVAL_ORIENT_END	n/a	n/a	n/a	-999	22	[0, 0, 0]	n/a	FR1	3	R1281E
3333.018	4.39	2439906	REC_WORD	4.39	n/a	LAKE	11	22	[0, 0, 0]	n/a	FR1	3	R1281E
3337.408	4.053	2444296	REC_WORD	4.053	n/a	OWL	9	22	[0, 0, 0]	n/a	FR1	3	R1281E
3341.461	20.952	2448349	REC_WORD	20.952	n/a	SCHOOL	10	22	[0, 0, 0]	n/a	FR1	3	R1281E
3362.413	0.0	2469300	REC_END	n/a	n/a	n/a	-999	22	[0, 0, 0]	n/a	FR1	3	R1281E
3362.413	0.012	2469300	TRIAL_END	n/a	n/a	n/a	-999	22	[0, 0, 0]	n/a	FR1	3	R1281E
3362.425	0.0	2469312	WAITING_START	n/a	n/a	n/a	-999	23	[0, 0, 0]	n/a	FR1	3	R1281E
3362.425	0.0	2469312	TRIAL_START	n/a	n/a	n/a	-999	23	[0, 0, 0]	n/a	FR1	3	R1281E
3362.425	4.084	2469312	TRIAL	n/a	n/a	n/a	-999	23	[0, 0, 0]	n/a	FR1	3	R1281E
3366.509	0.0	2473396	COUNTDOWN_START	n/a	n/a	n/a	-999	23	[0, 0, 0]	n/a	FR1	3	R1281E
3366.509	10.429	2473396	WAITING_END	n/a	n/a	n/a	-999	23	[0, 0, 0]	n/a	FR1	3	R1281E
3376.938	0.0	2483825	COUNTDOWN_END	n/a	n/a	n/a	-999	23	[0, 0, 0]	n/a	FR1	3	R1281E
3376.938	1.055	2483825	ORIENT_START	n/a	n/a	n/a	-999	23	[0, 0, 0]	n/a	FR1	3	R1281E
3377.993	0.001	2484880	ORIENT_END	n/a	n/a	n/a	-999	23	[0, 0, 0]	n/a	FR1	3	R1281E
3377.994	0.87	2484881	ENCODING_START	n/a	n/a	n/a	-999	23	[0, 0, 0]	n/a	FR1	3	R1281E
3378.864	1.631	2485751	WORD	n/a	n/a	FENCE	1	23	[0, 0, 0]	n/a	FR1	3	R1281E
3380.495	0.888	2487382	WORD_OFF	n/a	n/a	FENCE	1	23	[0, 0, 0]	n/a	FR1	3	R1281E
3381.383	1.628	2488270	WORD	n/a	n/a	ROOM	2	23	[0, 0, 0]	n/a	FR1	3	R1281E
3383.011	0.893	2489898	WORD_OFF	n/a	n/a	ROOM	2	23	[0, 0, 0]	n/a	FR1	3	R1281E
3383.904	1.608	2490791	WORD	n/a	n/a	BIRD	3	23	[0, 0, 0]	n/a	FR1	3	R1281E
3385.512	0.991	2492399	WORD_OFF	n/a	n/a	BIRD	3	23	[0, 0, 0]	n/a	FR1	3	R1281E
3386.503	1.627	2493390	WORD	n/a	n/a	SEED	4	23	[0, 0, 0]	n/a	FR1	3	R1281E
3388.13	0.992	2495017	WORD_OFF	n/a	n/a	SEED	4	23	[0, 0, 0]	n/a	FR1	3	R1281E
3389.122	1.624	2496009	WORD	n/a	n/a	TOAD	5	23	[0, 0, 0]	n/a	FR1	3	R1281E
3390.746	0.795	2497633	WORD_OFF	n/a	n/a	TOAD	5	23	[0, 0, 0]	n/a	FR1	3	R1281E
3391.541	1.623	2498427	WORD	n/a	n/a	PLANE	6	23	[0, 0, 0]	n/a	FR1	3	R1281E
3393.164	1.135	2500050	WORD_OFF	n/a	n/a	PLANE	6	23	[0, 0, 0]	n/a	FR1	3	R1281E
3394.299	1.631	2501185	WORD	n/a	n/a	ARM	7	23	[0, 0, 0]	n/a	FR1	3	R1281E
3395.93	1.011	2502816	WORD_OFF	n/a	n/a	ARM	7	23	[0, 0, 0]	n/a	FR1	3	R1281E
3396.941	1.624	2503827	WORD	n/a	n/a	SLEEVE	8	23	[0, 0, 0]	n/a	FR1	3	R1281E
3398.565	0.947	2505451	WORD_OFF	n/a	n/a	SLEEVE	8	23	[0, 0, 0]	n/a	FR1	3	R1281E
3399.512	1.637	2506398	WORD	n/a	n/a	TENT	9	23	[0, 0, 0]	n/a	FR1	3	R1281E
3401.149	1.142	2508035	WORD_OFF	n/a	n/a	TENT	9	23	[0, 0, 0]	n/a	FR1	3	R1281E
3402.291	1.624	2509177	WORD	n/a	n/a	BOX	10	23	[0, 0, 0]	n/a	FR1	3	R1281E
3403.915	0.766	2510801	WORD_OFF	n/a	n/a	BOX	10	23	[0, 0, 0]	n/a	FR1	3	R1281E
3404.681	1.635	2511567	WORD	n/a	n/a	FAN	11	23	[0, 0, 0]	n/a	FR1	3	R1281E
3406.316	1.069	2513202	WORD_OFF	n/a	n/a	FAN	11	23	[0, 0, 0]	n/a	FR1	3	R1281E
3407.385	1.631	2514271	WORD	n/a	n/a	BEAK	12	23	[0, 0, 0]	n/a	FR1	3	R1281E
3409.016	0.0	2515902	WORD_OFF	n/a	n/a	BEAK	12	23	[0, 0, 0]	n/a	FR1	3	R1281E
3409.016	0.0	2515902	ENCODING_END	n/a	n/a	n/a	-999	23	[0, 0, 0]	n/a	FR1	3	R1281E
3409.016	0.0	2515902	DISTRACT_START	n/a	n/a	n/a	-999	23	[0, 0, 0]	n/a	FR1	3	R1281E
3409.016	0.016	2515902	START	n/a	n/a	n/a	-999	23	[-999, -999, -999]	n/a	FR1	3	R1281E
3409.032	3.701	2515918	PROB	3.701	n/a	n/a	-999	23	[1, 9, 8]	17	FR1	3	R1281E
3412.733	5.568	2519619	PROB	5.568	n/a	n/a	-999	23	[2, 2, 4]	8	FR1	3	R1281E
3418.301	3.383	2525187	PROB	3.383	n/a	n/a	-999	23	[5, 8, 6]	19	FR1	3	R1281E
3421.684	2.602	2528569	PROB	2.602	n/a	n/a	-999	23	[6, 3, 7]	17	FR1	3	R1281E
3424.286	4.979	2531171	PROB	4.979	n/a	n/a	-999	23	[2, 5, 6]	13	FR1	3	R1281E
3429.265	0.022	2536150	STOP	n/a	n/a	n/a	-999	23	[-999, -999, -999]	n/a	FR1	3	R1281E
3429.287	0.567	2536172	DISTRACT_END	n/a	n/a	n/a	-999	23	[0, 0, 0]	n/a	FR1	3	R1281E
3429.854	1.633	2536739	RETRIEVAL_ORIENT_START	n/a	n/a	n/a	-999	23	[0, 0, 0]	n/a	FR1	3	R1281E
3431.487	0.0	2538372	RETRIEVAL_ORIENT_END	n/a	n/a	n/a	-999	23	[0, 0, 0]	n/a	FR1	3	R1281E
3431.487	1.119	2538372	REC_START	n/a	n/a	n/a	-999	23	[0, 0, 0]	n/a	FR1	3	R1281E
3432.606	1.81	2539491	REC_WORD	1.81	n/a	BEAK	12	23	[0, 0, 0]	n/a	FR1	3	R1281E
3434.416	1.76	2541301	REC_WORD	1.76	n/a	BIRD	3	23	[0, 0, 0]	n/a	FR1	3	R1281E
3436.176	25.322	2543061	REC_WORD	25.322	n/a	SEED	4	23	[0, 0, 0]	n/a	FR1	3	R1281E
3461.498	0.0	2568382	REC_END	n/a	n/a	n/a	-999	23	[0, 0, 0]	n/a	FR1	3	R1281E
3461.498	0.012	2568382	TRIAL_END	n/a	n/a	n/a	-999	23	[0, 0, 0]	n/a	FR1	3	R1281E
3461.51	0.001	2568394	TRIAL_START	n/a	n/a	n/a	-999	24	[0, 0, 0]	n/a	FR1	3	R1281E
3461.511	0.0	2568395	TRIAL	n/a	n/a	n/a	-999	24	[0, 0, 0]	n/a	FR1	3	R1281E
3461.511	3.615	2568395	WAITING_START	n/a	n/a	n/a	-999	24	[0, 0, 0]	n/a	FR1	3	R1281E
3465.126	0.001	2572010	WAITING_END	n/a	n/a	n/a	-999	24	[0, 0, 0]	n/a	FR1	3	R1281E
3465.127	10.429	2572011	COUNTDOWN_START	n/a	n/a	n/a	-999	24	[0, 0, 0]	n/a	FR1	3	R1281E
3475.556	0.001	2582440	COUNTDOWN_END	n/a	n/a	n/a	-999	24	[0, 0, 0]	n/a	FR1	3	R1281E
3475.557	1.054	2582441	ORIENT_START	n/a	n/a	n/a	-999	24	[0, 0, 0]	n/a	FR1	3	R1281E
3476.611	0.0	2583495	ORIENT_END	n/a	n/a	n/a	-999	24	[0, 0, 0]	n/a	FR1	3	R1281E
3476.611	1.054	2583495	ENCODING_START	n/a	n/a	n/a	-999	24	[0, 0, 0]	n/a	FR1	3	R1281E
3477.665	1.614	2584549	WORD	n/a	n/a	VASE	1	24	[0, 0, 0]	n/a	FR1	3	R1281E
3479.279	0.876	2586162	WORD_OFF	n/a	n/a	VASE	1	24	[0, 0, 0]	n/a	FR1	3	R1281E
3480.155	1.623	2587038	WORD	n/a	n/a	GLASS	2	24	[0, 0, 0]	n/a	FR1	3	R1281E
3481.778	1.079	2588661	WORD_OFF	n/a	n/a	GLASS	2	24	[0, 0, 0]	n/a	FR1	3	R1281E
3482.857	1.623	2589740	WORD	n/a	n/a	SNAKE	3	24	[0, 0, 0]	n/a	FR1	3	R1281E
3484.48	1.111	2591363	WORD_OFF	n/a	n/a	SNAKE	3	24	[0, 0, 0]	n/a	FR1	3	R1281E
3485.591	1.623	2592474	WORD	n/a	n/a	BEAN	4	24	[0, 0, 0]	n/a	FR1	3	R1281E
3487.214	1.051	2594097	WORD_OFF	n/a	n/a	BEAN	4	24	[0, 0, 0]	n/a	FR1	3	R1281E
3488.265	1.631	2595148	WORD	n/a	n/a	GEESE	5	24	[0, 0, 0]	n/a	FR1	3	R1281E
3489.896	0.796	2596779	WORD_OFF	n/a	n/a	GEESE	5	24	[0, 0, 0]	n/a	FR1	3	R1281E
3490.692	1.606	2597575	WORD	n/a	n/a	TAIL	6	24	[0, 0, 0]	n/a	FR1	3	R1281E
3492.298	0.963	2599181	WORD_OFF	n/a	n/a	TAIL	6	24	[0, 0, 0]	n/a	FR1	3	R1281E
