onset	duration	sample	trial_type	response_time	stim_file	item_name	serialpos	list	test	answer	experiment	session	subject
0.0	3.866	920	INSTRUCT_START	n/a	n/a	n/a	-999	-999	[0, 0, 0]	n/a	FR1	5	R1443D
3.866	18.899	5304	INSTRUCT_END	n/a	n/a	n/a	-999	-999	[0, 0, 0]	n/a	FR1	5	R1443D
22.765	10.35	24204	COUNTDOWN_START	n/a	n/a	n/a	-999	-999	[0, 0, 0]	n/a	FR1	5	R1443D
33.115	0.0	34548	COUNTDOWN_END	n/a	n/a	n/a	-999	-999	[0, 0, 0]	n/a	FR1	5	R1443D
33.115	2.35	34548	ENCODING_START	n/a	n/a	n/a	-999	-1	[0, 0, 0]	n/a	FR1	5	R1443D
35.465	1.6	36902	WORD	n/a	n/a	THUMB	1	-1	[0, 0, 0]	n/a	FR1	5	R1443D
37.065	0.849	38502	WORD_OFF	n/a	n/a	THUMB	1	-1	[0, 0, 0]	n/a	FR1	5	R1443D
37.914	1.601	39349	WORD	n/a	n/a	ROCK	2	-1	[0, 0, 0]	n/a	FR1	5	R1443D
39.515	0.866	40949	WORD_OFF	n/a	n/a	ROCK	2	-1	[0, 0, 0]	n/a	FR1	5	R1443D
40.381	1.6	41809	WORD	n/a	n/a	NAIL	3	-1	[0, 0, 0]	n/a	FR1	5	R1443D
41.981	0.85	43410	WORD_OFF	n/a	n/a	NAIL	3	-1	[0, 0, 0]	n/a	FR1	5	R1443D
42.831	1.601	44256	WORD	n/a	n/a	MAIL	4	-1	[0, 0, 0]	n/a	FR1	5	R1443D
44.432	0.915	45857	WORD_OFF	n/a	n/a	MAIL	4	-1	[0, 0, 0]	n/a	FR1	5	R1443D
45.347	1.601	46782	WORD	n/a	n/a	SNAIL	5	-1	[0, 0, 0]	n/a	FR1	5	R1443D
46.948	0.8	48383	WORD_OFF	n/a	n/a	SNAIL	5	-1	[0, 0, 0]	n/a	FR1	5	R1443D
47.748	1.617	49176	WORD	n/a	n/a	VINE	6	-1	[0, 0, 0]	n/a	FR1	5	R1443D
49.365	0.833	50790	WORD_OFF	n/a	n/a	VINE	6	-1	[0, 0, 0]	n/a	FR1	5	R1443D
50.198	1.618	51623	WORD	n/a	n/a	TART	7	-1	[0, 0, 0]	n/a	FR1	5	R1443D
51.816	0.833	53250	WORD_OFF	n/a	n/a	TART	7	-1	[0, 0, 0]	n/a	FR1	5	R1443D
52.649	1.616	54084	WORD	n/a	n/a	RUG	8	-1	[0, 0, 0]	n/a	FR1	5	R1443D
54.265	1.016	55697	WORD_OFF	n/a	n/a	RUG	8	-1	[0, 0, 0]	n/a	FR1	5	R1443D
55.281	1.618	56716	WORD	n/a	n/a	FOAM	9	-1	[0, 0, 0]	n/a	FR1	5	R1443D
56.899	0.799	58329	WORD_OFF	n/a	n/a	FOAM	9	-1	[0, 0, 0]	n/a	FR1	5	R1443D
57.698	1.6	59123	WORD	n/a	n/a	SCOTCH	10	-1	[0, 0, 0]	n/a	FR1	5	R1443D
59.298	0.817	60723	WORD_OFF	n/a	n/a	SCOTCH	10	-1	[0, 0, 0]	n/a	FR1	5	R1443D
60.115	1.6	61543	WORD	n/a	n/a	ARCH	11	-1	[0, 0, 0]	n/a	FR1	5	R1443D
61.715	0.865	63144	WORD_OFF	n/a	n/a	ARCH	11	-1	[0, 0, 0]	n/a	FR1	5	R1443D
62.58	1.603	64003	WORD	n/a	n/a	SKUNK	12	-1	[0, 0, 0]	n/a	FR1	5	R1443D
64.183	0.0	65612	START	n/a	n/a	n/a	-999	-1	[-999, -999, -999]	n/a	FR1	5	R1443D
64.183	0.0	65612	PROB	0.0	n/a	n/a	-999	-1	[6, 8, 5]	19	FR1	5	R1443D
64.182	0.001	65617	WORD_OFF	n/a	n/a	SKUNK	12	-1	[0, 0, 0]	n/a	FR1	5	R1443D
64.183	0.0	65617	ENCODING_END	n/a	n/a	n/a	-999	-1	[0, 0, 0]	n/a	FR1	5	R1443D
64.183	7.05	65617	DISTRACT_START	n/a	n/a	n/a	-999	-1	[0, 0, 0]	n/a	FR1	5	R1443D
71.233	3.582	72662	PROB	3.582	n/a	n/a	-999	-1	[2, 1, 6]	9	FR1	5	R1443D
74.815	5.267	76243	PROB	5.267	n/a	n/a	-999	-1	[4, 8, 3]	15	FR1	5	R1443D
80.082	6.999	81510	PROB	6.999	n/a	n/a	-999	-1	[8, 5, 7]	20	FR1	5	R1443D
87.081	0.0	88509	STOP	n/a	n/a	n/a	-999	-1	[-999, -999, -999]	n/a	FR1	5	R1443D
87.081	1.217	88512	DISTRACT_END	n/a	n/a	n/a	-999	-1	[0, 0, 0]	n/a	FR1	5	R1443D
88.298	0.419	89729	REC_START	n/a	n/a	n/a	-999	-1	[0, 0, 0]	n/a	FR1	5	R1443D
88.717	1.0	90145	REC_WORD_VV	1.0	n/a	<>	-999	-1	[0, 0, 0]	n/a	FR1	5	R1443D
89.717	0.115	91145	REC_WORD_VV	0.115	n/a	<>	-999	-1	[0, 0, 0]	n/a	FR1	5	R1443D
89.832	0.584	91260	REC_WORD	0.584	n/a	THUMB	1	-1	[0, 0, 0]	n/a	FR1	5	R1443D
90.416	0.989	91844	REC_WORD	0.989	n/a	NAIL	3	-1	[0, 0, 0]	n/a	FR1	5	R1443D
91.405	2.849	92833	REC_WORD	2.849	n/a	SNAIL	5	-1	[0, 0, 0]	n/a	FR1	5	R1443D
94.254	2.392	95681	REC_WORD	2.392	n/a	SCOTCH	10	-1	[0, 0, 0]	n/a	FR1	5	R1443D
96.646	1.0	98073	REC_WORD_VV	1.0	n/a	<>	-999	-1	[0, 0, 0]	n/a	FR1	5	R1443D
97.646	1.0	99073	REC_WORD_VV	1.0	n/a	<>	-999	-1	[0, 0, 0]	n/a	FR1	5	R1443D
98.646	2.287	100073	REC_WORD_VV	2.287	n/a	<>	-999	-1	[0, 0, 0]	n/a	FR1	5	R1443D
100.933	3.719	102360	REC_WORD	3.719	n/a	HOMEWORK	-999	-1	[0, 0, 0]	n/a	FR1	5	R1443D
104.652	1.487	106079	REC_WORD	1.487	n/a	STUDY	-999	-1	[0, 0, 0]	n/a	FR1	5	R1443D
106.139	3.064	107566	REC_WORD	3.064	n/a	NOTEBOOK	-999	-1	[0, 0, 0]	n/a	FR1	5	R1443D
109.203	0.261	110630	REC_WORD	0.261	n/a	THUMB	1	-1	[0, 0, 0]	n/a	FR1	5	R1443D
109.464	0.292	110891	REC_WORD	0.292	n/a	NAIL	3	-1	[0, 0, 0]	n/a	FR1	5	R1443D
109.756	4.45	111183	REC_WORD	4.45	n/a	FOOT	-999	-1	[0, 0, 0]	n/a	FR1	5	R1443D
114.206	5.292	115632	REC_WORD_VV	5.292	n/a	<>	-999	-1	[0, 0, 0]	n/a	FR1	5	R1443D
119.498	5.601	120931	REC_END	n/a	n/a	n/a	-999	-1	[0, 0, 0]	n/a	FR1	5	R1443D
125.099	10.35	126526	COUNTDOWN_START	n/a	n/a	n/a	-999	1	[0, 0, 0]	n/a	FR1	5	R1443D
135.449	0.0	136869	COUNTDOWN_END	n/a	n/a	n/a	-999	1	[0, 0, 0]	n/a	FR1	5	R1443D
135.449	2.15	136882	ENCODING_START	n/a	n/a	n/a	-999	1	[0, 0, 0]	n/a	FR1	5	R1443D
137.599	1.616	139025	WORD	n/a	wordpools/wordpool_long_EN.txt	SHEET	1	1	[0, 0, 0]	n/a	FR1	5	R1443D
139.215	0.967	140639	WORD_OFF	n/a	n/a	SHEET	1	1	[0, 0, 0]	n/a	FR1	5	R1443D
140.182	1.616	141604	WORD	n/a	wordpools/wordpool_long_EN.txt	ROAD	2	1	[0, 0, 0]	n/a	FR1	5	R1443D
141.798	0.817	143218	WORD_OFF	n/a	n/a	ROAD	2	1	[0, 0, 0]	n/a	FR1	5	R1443D
142.615	1.617	144038	WORD	n/a	wordpools/wordpool_long_EN.txt	OWL	3	1	[0, 0, 0]	n/a	FR1	5	R1443D
144.232	0.766	145652	WORD_OFF	n/a	n/a	OWL	3	1	[0, 0, 0]	n/a	FR1	5	R1443D
144.998	1.616	146419	WORD	n/a	wordpools/wordpool_long_EN.txt	SKATE	4	1	[0, 0, 0]	n/a	FR1	5	R1443D
146.614	0.984	148046	WORD_OFF	n/a	n/a	SKATE	4	1	[0, 0, 0]	n/a	FR1	5	R1443D
147.598	1.6	149024	WORD	n/a	wordpools/wordpool_long_EN.txt	GATE	5	1	[0, 0, 0]	n/a	FR1	5	R1443D
149.198	0.816	150625	WORD_OFF	n/a	n/a	GATE	5	1	[0, 0, 0]	n/a	FR1	5	R1443D
150.014	1.601	151445	WORD	n/a	wordpools/wordpool_long_EN.txt	SUIT	6	1	[0, 0, 0]	n/a	FR1	5	R1443D
151.615	0.867	153045	WORD_OFF	n/a	n/a	SUIT	6	1	[0, 0, 0]	n/a	FR1	5	R1443D
152.482	1.6	153905	WORD	n/a	wordpools/wordpool_long_EN.txt	CONE	7	1	[0, 0, 0]	n/a	FR1	5	R1443D
154.082	0.867	155505	WORD_OFF	n/a	n/a	CONE	7	1	[0, 0, 0]	n/a	FR1	5	R1443D
154.949	1.6	156378	WORD	n/a	wordpools/wordpool_long_EN.txt	THIEF	8	1	[0, 0, 0]	n/a	FR1	5	R1443D
156.549	1.0	157979	WORD_OFF	n/a	n/a	THIEF	8	1	[0, 0, 0]	n/a	FR1	5	R1443D
157.549	1.6	158971	WORD	n/a	wordpools/wordpool_long_EN.txt	CANE	9	1	[0, 0, 0]	n/a	FR1	5	R1443D
159.149	0.866	160571	WORD_OFF	n/a	n/a	CANE	9	1	[0, 0, 0]	n/a	FR1	5	R1443D
160.015	1.616	161444	WORD	n/a	wordpools/wordpool_long_EN.txt	BOOT	10	1	[0, 0, 0]	n/a	FR1	5	R1443D
161.631	0.851	163058	WORD_OFF	n/a	n/a	BOOT	10	1	[0, 0, 0]	n/a	FR1	5	R1443D
162.482	1.6	163904	WORD	n/a	wordpools/wordpool_long_EN.txt	LAND	11	1	[0, 0, 0]	n/a	FR1	5	R1443D
164.082	0.8	165505	WORD_OFF	n/a	n/a	LAND	11	1	[0, 0, 0]	n/a	FR1	5	R1443D
164.882	1.6	166312	WORD	n/a	wordpools/wordpool_long_EN.txt	MOUSE	12	1	[0, 0, 0]	n/a	FR1	5	R1443D
166.482	0.001	167906	PROB	0.001	n/a	n/a	-999	1	[6, 1, 4]	11	FR1	5	R1443D
166.483	0.0	167907	START	n/a	n/a	n/a	-999	1	[-999, -999, -999]	n/a	FR1	5	R1443D
166.482	0.001	167912	WORD_OFF	n/a	n/a	MOUSE	12	1	[0, 0, 0]	n/a	FR1	5	R1443D
166.483	0.0	167912	ENCODING_END	n/a	n/a	n/a	-999	1	[0, 0, 0]	n/a	FR1	5	R1443D
166.483	5.499	167912	DISTRACT_START	n/a	n/a	n/a	-999	1	[0, 0, 0]	n/a	FR1	5	R1443D
171.982	3.567	173406	PROB	3.567	n/a	n/a	-999	1	[3, 1, 5]	9	FR1	5	R1443D
175.549	4.833	176972	PROB	4.833	n/a	n/a	-999	1	[2, 2, 6]	10	FR1	5	R1443D
180.382	5.501	181805	PROB	5.501	n/a	n/a	-999	1	[4, 6, 7]	17	FR1	5	R1443D
185.883	4.266	187306	PROB	4.266	n/a	n/a	-999	1	[7, 3, 8]	18	FR1	5	R1443D
190.149	0.0	191572	STOP	n/a	n/a	n/a	-999	1	[-999, -999, -999]	n/a	FR1	5	R1443D
190.149	1.349	191575	DISTRACT_END	n/a	n/a	n/a	-999	1	[0, 0, 0]	n/a	FR1	5	R1443D
191.498	2.103	192924	REC_START	n/a	n/a	n/a	-999	1	[0, 0, 0]	n/a	FR1	5	R1443D
193.601	1.974	195023	REC_WORD	1.974	n/a	MOUSE	12	1	[0, 0, 0]	n/a	FR1	5	R1443D
195.575	1.0	196997	REC_WORD_VV	1.0	n/a	<>	-999	1	[0, 0, 0]	n/a	FR1	5	R1443D
196.575	3.737	197997	REC_WORD_VV	3.737	n/a	<>	-999	1	[0, 0, 0]	n/a	FR1	5	R1443D
200.312	1.515	201734	REC_WORD	1.515	n/a	BOOT	10	1	[0, 0, 0]	n/a	FR1	5	R1443D
201.827	1.0	203249	REC_WORD_VV	1.0	n/a	<>	-999	1	[0, 0, 0]	n/a	FR1	5	R1443D
202.827	1.0	204249	REC_WORD_VV	1.0	n/a	<>	-999	1	[0, 0, 0]	n/a	FR1	5	R1443D
203.827	1.0	205249	REC_WORD_VV	1.0	n/a	<>	-999	1	[0, 0, 0]	n/a	FR1	5	R1443D
204.827	6.151	206249	REC_WORD_VV	6.151	n/a	<>	-999	1	[0, 0, 0]	n/a	FR1	5	R1443D
210.978	1.0	212400	REC_WORD_VV	1.0	n/a	<>	-999	1	[0, 0, 0]	n/a	FR1	5	R1443D
211.978	7.248	213400	REC_WORD_VV	7.248	n/a	<>	-999	1	[0, 0, 0]	n/a	FR1	5	R1443D
219.226	3.461	220647	REC_WORD_VV	3.461	n/a	<>	-999	1	[0, 0, 0]	n/a	FR1	5	R1443D
222.687	6.528	224112	REC_END	n/a	n/a	n/a	-999	1	[0, 0, 0]	n/a	FR1	5	R1443D
229.215	10.35	230633	COUNTDOWN_START	n/a	n/a	n/a	-999	1	[0, 0, 0]	n/a	FR1	5	R1443D
239.565	0.001	240989	COUNTDOWN_END	n/a	n/a	n/a	-999	1	[0, 0, 0]	n/a	FR1	5	R1443D
239.566	1.948	240989	ENCODING_START	n/a	n/a	n/a	-999	2	[0, 0, 0]	n/a	FR1	5	R1443D
241.514	1.601	242934	WORD	n/a	wordpools/wordpool_long_EN.txt	RAKE	1	2	[0, 0, 0]	n/a	FR1	5	R1443D
243.115	0.767	244534	WORD_OFF	n/a	n/a	RAKE	1	2	[0, 0, 0]	n/a	FR1	5	R1443D
243.882	1.6	245301	WORD	n/a	wordpools/wordpool_long_EN.txt	SEED	2	2	[0, 0, 0]	n/a	FR1	5	R1443D
245.482	1.0	246902	WORD_OFF	n/a	n/a	SEED	2	2	[0, 0, 0]	n/a	FR1	5	R1443D
246.482	1.617	247907	WORD	n/a	wordpools/wordpool_long_EN.txt	STAIR	3	2	[0, 0, 0]	n/a	FR1	5	R1443D
248.099	0.849	249521	WORD_OFF	n/a	n/a	STAIR	3	2	[0, 0, 0]	n/a	FR1	5	R1443D
248.948	1.616	250367	WORD	n/a	wordpools/wordpool_long_EN.txt	MOLE	4	2	[0, 0, 0]	n/a	FR1	5	R1443D
250.564	0.783	251981	WORD_OFF	n/a	n/a	MOLE	4	2	[0, 0, 0]	n/a	FR1	5	R1443D
251.347	1.601	252774	WORD	n/a	wordpools/wordpool_long_EN.txt	LODGE	5	2	[0, 0, 0]	n/a	FR1	5	R1443D
252.948	0.967	254361	WORD_OFF	n/a	n/a	LODGE	5	2	[0, 0, 0]	n/a	FR1	5	R1443D
253.915	1.6	255340	WORD	n/a	wordpools/wordpool_long_EN.txt	DUST	6	2	[0, 0, 0]	n/a	FR1	5	R1443D
255.515	0.8	256941	WORD_OFF	n/a	n/a	DUST	6	2	[0, 0, 0]	n/a	FR1	5	R1443D
256.315	1.616	257734	WORD	n/a	wordpools/wordpool_long_EN.txt	QUEEN	7	2	[0, 0, 0]	n/a	FR1	5	R1443D
257.931	0.817	259348	WORD_OFF	n/a	n/a	QUEEN	7	2	[0, 0, 0]	n/a	FR1	5	R1443D
258.748	1.617	260168	WORD	n/a	wordpools/wordpool_long_EN.txt	CAT	8	2	[0, 0, 0]	n/a	FR1	5	R1443D
260.365	0.883	261782	WORD_OFF	n/a	n/a	CAT	8	2	[0, 0, 0]	n/a	FR1	5	R1443D
261.248	1.617	262668	WORD	n/a	wordpools/wordpool_long_EN.txt	ROOT	9	2	[0, 0, 0]	n/a	FR1	5	R1443D
262.865	0.95	264281	WORD_OFF	n/a	n/a	ROOT	9	2	[0, 0, 0]	n/a	FR1	5	R1443D
263.815	1.616	265234	WORD	n/a	wordpools/wordpool_long_EN.txt	BEAN	10	2	[0, 0, 0]	n/a	FR1	5	R1443D
265.431	1.001	266847	WORD_OFF	n/a	n/a	BEAN	10	2	[0, 0, 0]	n/a	FR1	5	R1443D
266.432	1.617	267853	WORD	n/a	wordpools/wordpool_long_EN.txt	HOUND	11	2	[0, 0, 0]	n/a	FR1	5	R1443D
268.049	0.799	269466	WORD_OFF	n/a	n/a	HOUND	11	2	[0, 0, 0]	n/a	FR1	5	R1443D
268.848	1.618	270273	WORD	n/a	wordpools/wordpool_long_EN.txt	SOUP	12	2	[0, 0, 0]	n/a	FR1	5	R1443D
270.466	0.001	271885	PROB	0.001	n/a	n/a	-999	2	[3, 8, 8]	19	FR1	5	R1443D
270.467	0.0	271886	START	n/a	n/a	n/a	-999	2	[-999, -999, -999]	n/a	FR1	5	R1443D
270.465	0.002	271887	WORD_OFF	n/a	n/a	SOUP	12	2	[0, 0, 0]	n/a	FR1	5	R1443D
270.467	0.0	271887	ENCODING_END	n/a	n/a	n/a	-999	2	[0, 0, 0]	n/a	FR1	5	R1443D
270.467	7.365	271887	DISTRACT_START	n/a	n/a	n/a	-999	2	[0, 0, 0]	n/a	FR1	5	R1443D
277.832	4.401	279250	PROB	4.401	n/a	n/a	-999	2	[4, 2, 3]	9	FR1	5	R1443D
282.233	5.316	283651	PROB	5.316	n/a	n/a	-999	2	[1, 8, 7]	16	FR1	5	R1443D
287.549	4.634	288967	PROB	4.634	n/a	n/a	-999	2	[5, 4, 3]	12	FR1	5	R1443D
292.183	0.0	293601	STOP	n/a	n/a	n/a	-999	2	[-999, -999, -999]	n/a	FR1	5	R1443D
292.183	1.182	293605	DISTRACT_END	n/a	n/a	n/a	-999	2	[0, 0, 0]	n/a	FR1	5	R1443D
293.365	1.275	294782	REC_START	n/a	n/a	n/a	-999	2	[0, 0, 0]	n/a	FR1	5	R1443D
294.64	1.0	296057	REC_WORD_VV	1.0	n/a	<>	-999	2	[0, 0, 0]	n/a	FR1	5	R1443D
295.64	0.36	297057	REC_WORD_VV	0.36	n/a	<>	-999	2	[0, 0, 0]	n/a	FR1	5	R1443D
296.0	1.48	297417	REC_WORD	1.48	n/a	SEED	2	2	[0, 0, 0]	n/a	FR1	5	R1443D
297.48	1.885	298897	REC_WORD	1.885	n/a	RAKE	1	2	[0, 0, 0]	n/a	FR1	5	R1443D
299.365	1.922	300782	REC_WORD	1.922	n/a	DUST	6	2	[0, 0, 0]	n/a	FR1	5	R1443D
301.287	1.0	302704	REC_WORD_VV	1.0	n/a	<>	-999	2	[0, 0, 0]	n/a	FR1	5	R1443D
302.287	1.1	303704	REC_WORD_VV	1.1	n/a	<>	-999	2	[0, 0, 0]	n/a	FR1	5	R1443D
303.387	8.541	304804	REC_WORD	8.541	n/a	QUEEN	7	2	[0, 0, 0]	n/a	FR1	5	R1443D
311.928	12.627	313345	REC_WORD	12.627	n/a	PLANE	-999	2	[0, 0, 0]	n/a	FR1	5	R1443D
324.555	2.276	325971	REC_END	n/a	n/a	n/a	-999	2	[0, 0, 0]	n/a	FR1	5	R1443D
326.831	10.351	328246	COUNTDOWN_START	n/a	n/a	n/a	-999	2	[0, 0, 0]	n/a	FR1	5	R1443D
337.182	0.0	338602	COUNTDOWN_END	n/a	n/a	n/a	-999	2	[0, 0, 0]	n/a	FR1	5	R1443D
337.182	2.116	338602	ENCODING_START	n/a	n/a	n/a	-999	3	[0, 0, 0]	n/a	FR1	5	R1443D
339.298	1.6	340718	WORD	n/a	wordpools/wordpool_long_EN.txt	FENCE	1	3	[0, 0, 0]	n/a	FR1	5	R1443D
340.898	0.8	342319	WORD_OFF	n/a	n/a	FENCE	1	3	[0, 0, 0]	n/a	FR1	5	R1443D
341.698	1.6	343112	WORD	n/a	wordpools/wordpool_long_EN.txt	CLOCK	2	3	[0, 0, 0]	n/a	FR1	5	R1443D
343.298	0.801	344713	WORD_OFF	n/a	n/a	CLOCK	2	3	[0, 0, 0]	n/a	FR1	5	R1443D
344.099	1.616	345520	WORD	n/a	wordpools/wordpool_long_EN.txt	JAIL	3	3	[0, 0, 0]	n/a	FR1	5	R1443D
345.715	0.767	347133	WORD_OFF	n/a	n/a	JAIL	3	3	[0, 0, 0]	n/a	FR1	5	R1443D
346.482	1.617	347900	WORD	n/a	wordpools/wordpool_long_EN.txt	YOLK	4	3	[0, 0, 0]	n/a	FR1	5	R1443D
348.099	0.933	349514	WORD_OFF	n/a	n/a	YOLK	4	3	[0, 0, 0]	n/a	FR1	5	R1443D
349.032	1.616	350453	WORD	n/a	wordpools/wordpool_long_EN.txt	MEAT	5	3	[0, 0, 0]	n/a	FR1	5	R1443D
350.648	0.934	352067	WORD_OFF	n/a	n/a	MEAT	5	3	[0, 0, 0]	n/a	FR1	5	R1443D
351.582	1.616	352993	WORD	n/a	wordpools/wordpool_long_EN.txt	BUG	6	3	[0, 0, 0]	n/a	FR1	5	R1443D
353.198	0.817	354606	WORD_OFF	n/a	n/a	BUG	6	3	[0, 0, 0]	n/a	FR1	5	R1443D
354.015	1.6	355426	WORD	n/a	wordpools/wordpool_long_EN.txt	BEEF	7	3	[0, 0, 0]	n/a	FR1	5	R1443D
355.615	0.9	357027	WORD_OFF	n/a	n/a	BEEF	7	3	[0, 0, 0]	n/a	FR1	5	R1443D
356.515	1.617	357926	WORD	n/a	wordpools/wordpool_long_EN.txt	SQUARE	8	3	[0, 0, 0]	n/a	FR1	5	R1443D
358.132	0.9	359553	WORD_OFF	n/a	n/a	SQUARE	8	3	[0, 0, 0]	n/a	FR1	5	R1443D
359.032	1.6	360453	WORD	n/a	wordpools/wordpool_long_EN.txt	WAND	9	3	[0, 0, 0]	n/a	FR1	5	R1443D
360.632	0.85	362053	WORD_OFF	n/a	n/a	WAND	9	3	[0, 0, 0]	n/a	FR1	5	R1443D
361.482	1.616	362899	WORD	n/a	wordpools/wordpool_long_EN.txt	TOY	10	3	[0, 0, 0]	n/a	FR1	5	R1443D
363.098	0.866	364513	WORD_OFF	n/a	n/a	TOY	10	3	[0, 0, 0]	n/a	FR1	5	R1443D
363.964	1.601	365373	WORD	n/a	wordpools/wordpool_long_EN.txt	ELF	11	3	[0, 0, 0]	n/a	FR1	5	R1443D
365.565	0.917	366986	WORD_OFF	n/a	n/a	ELF	11	3	[0, 0, 0]	n/a	FR1	5	R1443D
366.482	1.616	367899	WORD	n/a	wordpools/wordpool_long_EN.txt	LOFT	12	3	[0, 0, 0]	n/a	FR1	5	R1443D
368.098	0.0	369512	PROB	0.0	n/a	n/a	-999	3	[4, 3, 2]	9	FR1	5	R1443D
368.097	0.001	369513	WORD_OFF	n/a	n/a	LOFT	12	3	[0, 0, 0]	n/a	FR1	5	R1443D
368.098	0.001	369513	ENCODING_END	n/a	n/a	n/a	-999	3	[0, 0, 0]	n/a	FR1	5	R1443D
368.099	0.0	369513	DISTRACT_START	n/a	n/a	n/a	-999	3	[0, 0, 0]	n/a	FR1	5	R1443D
368.099	5.335	369513	START	n/a	n/a	n/a	-999	3	[-999, -999, -999]	n/a	FR1	5	R1443D
373.434	4.431	374847	PROB	4.431	n/a	n/a	-999	3	[6, 4, 2]	12	FR1	5	R1443D
377.865	4.884	379278	PROB	4.884	n/a	n/a	-999	3	[6, 3, 5]	14	FR1	5	R1443D
382.749	3.449	384162	PROB	3.449	n/a	n/a	-999	3	[3, 5, 1]	9	FR1	5	R1443D
386.198	4.634	387611	PROB	4.634	n/a	n/a	-999	3	[2, 4, 8]	14	FR1	5	R1443D
390.832	0.0	392245	STOP	n/a	n/a	n/a	-999	3	[-999, -999, -999]	n/a	FR1	5	R1443D
390.832	1.05	392249	DISTRACT_END	n/a	n/a	n/a	-999	3	[0, 0, 0]	n/a	FR1	5	R1443D
391.882	1.464	393294	REC_START	n/a	n/a	n/a	-999	3	[0, 0, 0]	n/a	FR1	5	R1443D
393.346	1.299	394758	REC_WORD	1.299	n/a	LOFT	12	3	[0, 0, 0]	n/a	FR1	5	R1443D
394.645	1.879	396057	REC_WORD	1.879	n/a	ELF	11	3	[0, 0, 0]	n/a	FR1	5	R1443D
396.524	4.33	397936	REC_WORD_VV	4.33	n/a	<>	-999	3	[0, 0, 0]	n/a	FR1	5	R1443D
400.854	5.111	402266	REC_WORD_VV	5.111	n/a	<>	-999	3	[0, 0, 0]	n/a	FR1	5	R1443D
405.965	1.0	407377	REC_WORD_VV	1.0	n/a	<>	-999	3	[0, 0, 0]	n/a	FR1	5	R1443D
406.965	0.7	408377	REC_WORD_VV	0.7	n/a	<>	-999	3	[0, 0, 0]	n/a	FR1	5	R1443D
407.665	1.0	409077	REC_WORD	1.0	n/a	CUCUMBER	-999	3	[0, 0, 0]	n/a	FR1	5	R1443D
408.665	1.0	410077	REC_WORD_VV	1.0	n/a	<>	-999	3	[0, 0, 0]	n/a	FR1	5	R1443D
409.665	10.327	411077	REC_WORD_VV	10.327	n/a	<>	-999	3	[0, 0, 0]	n/a	FR1	5	R1443D
419.992	3.064	421403	REC_WORD	3.064	n/a	WATCH	-999	3	[0, 0, 0]	n/a	FR1	5	R1443D
423.056	3.759	424469	REC_END	n/a	n/a	n/a	-999	3	[0, 0, 0]	n/a	FR1	5	R1443D
426.815	10.35	428226	COUNTDOWN_START	n/a	n/a	n/a	-999	3	[0, 0, 0]	n/a	FR1	5	R1443D
437.165	0.0	438569	COUNTDOWN_END	n/a	n/a	n/a	-999	3	[0, 0, 0]	n/a	FR1	5	R1443D
437.165	2.117	438582	ENCODING_START	n/a	n/a	n/a	-999	4	[0, 0, 0]	n/a	FR1	5	R1443D
439.282	1.616	440685	WORD	n/a	wordpools/wordpool_long_EN.txt	DART	1	4	[0, 0, 0]	n/a	FR1	5	R1443D
440.898	0.899	442312	WORD_OFF	n/a	n/a	DART	1	4	[0, 0, 0]	n/a	FR1	5	R1443D
441.797	1.601	443212	WORD	n/a	wordpools/wordpool_long_EN.txt	SPOOL	2	4	[0, 0, 0]	n/a	FR1	5	R1443D
443.398	0.9	444812	WORD_OFF	n/a	n/a	SPOOL	2	4	[0, 0, 0]	n/a	FR1	5	R1443D
444.298	1.6	445712	WORD	n/a	wordpools/wordpool_long_EN.txt	DEER	3	4	[0, 0, 0]	n/a	FR1	5	R1443D
445.898	1.0	447312	WORD_OFF	n/a	n/a	DEER	3	4	[0, 0, 0]	n/a	FR1	5	R1443D
446.898	1.6	448304	WORD	n/a	wordpools/wordpool_long_EN.txt	VAULT	4	4	[0, 0, 0]	n/a	FR1	5	R1443D
448.498	0.784	449904	WORD_OFF	n/a	n/a	VAULT	4	4	[0, 0, 0]	n/a	FR1	5	R1443D
449.282	1.6	450698	WORD	n/a	wordpools/wordpool_long_EN.txt	FILM	5	4	[0, 0, 0]	n/a	FR1	5	R1443D
450.882	0.95	452285	WORD_OFF	n/a	n/a	FILM	5	4	[0, 0, 0]	n/a	FR1	5	R1443D
451.832	1.616	453237	WORD	n/a	wordpools/wordpool_long_EN.txt	PIN	6	4	[0, 0, 0]	n/a	FR1	5	R1443D
453.448	0.934	454864	WORD_OFF	n/a	n/a	PIN	6	4	[0, 0, 0]	n/a	FR1	5	R1443D
454.382	1.6	455790	WORD	n/a	wordpools/wordpool_long_EN.txt	STOOL	7	4	[0, 0, 0]	n/a	FR1	5	R1443D
455.982	0.816	457391	WORD_OFF	n/a	n/a	STOOL	7	4	[0, 0, 0]	n/a	FR1	5	R1443D
456.798	1.601	458211	WORD	n/a	wordpools/wordpool_long_EN.txt	CHILD	8	4	[0, 0, 0]	n/a	FR1	5	R1443D
458.399	0.8	459811	WORD_OFF	n/a	n/a	CHILD	8	4	[0, 0, 0]	n/a	FR1	5	R1443D
459.199	1.616	460605	WORD	n/a	wordpools/wordpool_long_EN.txt	RIB	9	4	[0, 0, 0]	n/a	FR1	5	R1443D
460.815	0.95	462218	WORD_OFF	n/a	n/a	RIB	9	4	[0, 0, 0]	n/a	FR1	5	R1443D
461.765	1.616	463171	WORD	n/a	wordpools/wordpool_long_EN.txt	BANK	10	4	[0, 0, 0]	n/a	FR1	5	R1443D
463.381	0.851	464784	WORD_OFF	n/a	n/a	BANK	10	4	[0, 0, 0]	n/a	FR1	5	R1443D
464.232	1.6	465644	WORD	n/a	wordpools/wordpool_long_EN.txt	BLOOM	11	4	[0, 0, 0]	n/a	FR1	5	R1443D
465.832	0.933	467245	WORD_OFF	n/a	n/a	BLOOM	11	4	[0, 0, 0]	n/a	FR1	5	R1443D
466.765	1.6	468170	WORD	n/a	wordpools/wordpool_long_EN.txt	BREAD	12	4	[0, 0, 0]	n/a	FR1	5	R1443D
468.365	0.001	469771	WORD_OFF	n/a	n/a	BREAD	12	4	[0, 0, 0]	n/a	FR1	5	R1443D
468.366	0.0	469771	ENCODING_END	n/a	n/a	n/a	-999	4	[0, 0, 0]	n/a	FR1	5	R1443D
468.365	0.001	469774	PROB	0.001	n/a	n/a	-999	4	[1, 4, 3]	8	FR1	5	R1443D
468.366	0.0	469775	START	n/a	n/a	n/a	-999	4	[-999, -999, -999]	n/a	FR1	5	R1443D
468.366	5.95	469784	DISTRACT_START	n/a	n/a	n/a	-999	4	[0, 0, 0]	n/a	FR1	5	R1443D
474.316	4.583	475724	PROB	4.583	n/a	n/a	-999	4	[3, 6, 5]	14	FR1	5	R1443D
478.899	4.999	480307	PROB	4.999	n/a	n/a	-999	4	[6, 4, 5]	15	FR1	5	R1443D
483.898	4.9	485306	PROB	4.9	n/a	n/a	-999	4	[2, 2, 6]	10	FR1	5	R1443D
488.798	0.0	490206	DISTRACT_END	n/a	n/a	n/a	-999	4	[0, 0, 0]	n/a	FR1	5	R1443D
488.798	1.083	490206	STOP	n/a	n/a	n/a	-999	4	[-999, -999, -999]	n/a	FR1	5	R1443D
489.881	1.401	491291	REC_START	n/a	n/a	n/a	-999	4	[0, 0, 0]	n/a	FR1	5	R1443D
491.282	1.065	492690	REC_WORD	1.065	n/a	DEER	3	4	[0, 0, 0]	n/a	FR1	5	R1443D
492.347	1.73	493754	REC_WORD	1.73	n/a	RIB	9	4	[0, 0, 0]	n/a	FR1	5	R1443D
494.077	1.0	495484	REC_WORD_VV	1.0	n/a	<>	-999	4	[0, 0, 0]	n/a	FR1	5	R1443D
495.077	0.7	496484	REC_WORD_VV	0.7	n/a	<>	-999	4	[0, 0, 0]	n/a	FR1	5	R1443D
495.777	3.983	497184	REC_WORD	3.983	n/a	GUT	-999	4	[0, 0, 0]	n/a	FR1	5	R1443D
499.76	3.962	501167	REC_WORD	3.962	n/a	MEAT	-999	4	[0, 0, 0]	n/a	FR1	5	R1443D
503.722	1.0	505129	REC_WORD_VV	1.0	n/a	<>	-999	4	[0, 0, 0]	n/a	FR1	5	R1443D
504.722	1.0	506129	REC_WORD_VV	1.0	n/a	<>	-999	4	[0, 0, 0]	n/a	FR1	5	R1443D
505.722	10.956	507129	REC_WORD_VV	10.956	n/a	<>	-999	4	[0, 0, 0]	n/a	FR1	5	R1443D
516.678	2.048	518084	REC_WORD_VV	2.048	n/a	<>	-999	4	[0, 0, 0]	n/a	FR1	5	R1443D
518.726	0.445	520132	REC_WORD	0.445	n/a	FOOT	-999	4	[0, 0, 0]	n/a	FR1	5	R1443D
519.171	1.927	520577	REC_WORD	1.927	n/a	THUMB	-999	4	[0, 0, 0]	n/a	FR1	5	R1443D
521.098	2.851	522505	REC_END	n/a	n/a	n/a	-999	4	[0, 0, 0]	n/a	FR1	5	R1443D
523.949	10.349	525362	COUNTDOWN_START	n/a	n/a	n/a	-999	4	[0, 0, 0]	n/a	FR1	5	R1443D
534.298	0.0	535706	COUNTDOWN_END	n/a	n/a	n/a	-999	4	[0, 0, 0]	n/a	FR1	5	R1443D
534.298	2.267	535706	ENCODING_START	n/a	n/a	n/a	-999	5	[0, 0, 0]	n/a	FR1	5	R1443D
536.565	1.617	537967	WORD	n/a	wordpools/wordpool_long_EN.txt	SPEAR	1	5	[0, 0, 0]	n/a	FR1	5	R1443D
538.182	0.917	539581	WORD_OFF	n/a	n/a	SPEAR	1	5	[0, 0, 0]	n/a	FR1	5	R1443D
539.099	1.615	540507	WORD	n/a	wordpools/wordpool_long_EN.txt	SMILE	2	5	[0, 0, 0]	n/a	FR1	5	R1443D
540.714	0.901	542121	WORD_OFF	n/a	n/a	SMILE	2	5	[0, 0, 0]	n/a	FR1	5	R1443D
541.615	1.617	543020	WORD	n/a	wordpools/wordpool_long_EN.txt	PET	3	5	[0, 0, 0]	n/a	FR1	5	R1443D
543.232	0.816	544634	WORD_OFF	n/a	n/a	PET	3	5	[0, 0, 0]	n/a	FR1	5	R1443D
544.048	1.6	545454	WORD	n/a	wordpools/wordpool_long_EN.txt	VASE	4	5	[0, 0, 0]	n/a	FR1	5	R1443D
545.648	0.834	547054	WORD_OFF	n/a	n/a	VASE	4	5	[0, 0, 0]	n/a	FR1	5	R1443D
546.482	1.616	547887	WORD	n/a	wordpools/wordpool_long_EN.txt	CAPE	5	5	[0, 0, 0]	n/a	FR1	5	R1443D
548.098	0.934	549501	WORD_OFF	n/a	n/a	CAPE	5	5	[0, 0, 0]	n/a	FR1	5	R1443D
549.032	1.6	550440	WORD	n/a	wordpools/wordpool_long_EN.txt	LEAF	6	5	[0, 0, 0]	n/a	FR1	5	R1443D
550.632	0.8	552041	WORD_OFF	n/a	n/a	LEAF	6	5	[0, 0, 0]	n/a	FR1	5	R1443D
551.432	1.6	552834	WORD	n/a	wordpools/wordpool_long_EN.txt	GLASS	7	5	[0, 0, 0]	n/a	FR1	5	R1443D
553.032	0.933	554435	WORD_OFF	n/a	n/a	GLASS	7	5	[0, 0, 0]	n/a	FR1	5	R1443D
553.965	1.617	555374	WORD	n/a	wordpools/wordpool_long_EN.txt	SOCK	8	5	[0, 0, 0]	n/a	FR1	5	R1443D
555.582	0.8	556987	WORD_OFF	n/a	n/a	SOCK	8	5	[0, 0, 0]	n/a	FR1	5	R1443D
556.382	1.6	557781	WORD	n/a	wordpools/wordpool_long_EN.txt	BRIDGE	9	5	[0, 0, 0]	n/a	FR1	5	R1443D
557.982	0.966	559381	WORD_OFF	n/a	n/a	BRIDGE	9	5	[0, 0, 0]	n/a	FR1	5	R1443D
558.948	1.6	560347	WORD	n/a	wordpools/wordpool_long_EN.txt	SPARK	10	5	[0, 0, 0]	n/a	FR1	5	R1443D
560.548	0.95	561947	WORD_OFF	n/a	n/a	SPARK	10	5	[0, 0, 0]	n/a	FR1	5	R1443D
561.498	1.617	562900	WORD	n/a	wordpools/wordpool_long_EN.txt	CUBE	11	5	[0, 0, 0]	n/a	FR1	5	R1443D
563.115	0.983	564513	WORD_OFF	n/a	n/a	CUBE	11	5	[0, 0, 0]	n/a	FR1	5	R1443D
564.098	1.617	565505	WORD	n/a	wordpools/wordpool_long_EN.txt	CHIEF	12	5	[0, 0, 0]	n/a	FR1	5	R1443D
565.715	0.002	567119	WORD_OFF	n/a	n/a	CHIEF	12	5	[0, 0, 0]	n/a	FR1	5	R1443D
565.717	0.0	567119	ENCODING_END	n/a	n/a	n/a	-999	5	[0, 0, 0]	n/a	FR1	5	R1443D
565.717	0.0	567119	DISTRACT_START	n/a	n/a	n/a	-999	5	[0, 0, 0]	n/a	FR1	5	R1443D
565.716	0.001	567120	PROB	0.001	n/a	n/a	-999	5	[3, 1, 1]	5	FR1	5	R1443D
565.717	4.832	567121	START	n/a	n/a	n/a	-999	5	[-999, -999, -999]	n/a	FR1	5	R1443D
570.549	4.749	571953	PROB	4.749	n/a	n/a	-999	5	[7, 2, 7]	16	FR1	5	R1443D
575.298	3.55	576701	PROB	3.55	n/a	n/a	-999	5	[4, 2, 2]	8	FR1	5	R1443D
578.848	5.317	580251	PROB	5.317	n/a	n/a	-999	5	[6, 2, 5]	13	FR1	5	R1443D
584.165	4.3	585568	PROB	4.3	n/a	n/a	-999	5	[3, 1, 7]	11	FR1	5	R1443D
588.465	0.0	589868	STOP	n/a	n/a	n/a	-999	5	[-999, -999, -999]	n/a	FR1	5	R1443D
588.465	1.4	589869	DISTRACT_END	n/a	n/a	n/a	-999	5	[0, 0, 0]	n/a	FR1	5	R1443D
589.865	1.021	591271	REC_START	n/a	n/a	n/a	-999	5	[0, 0, 0]	n/a	FR1	5	R1443D
590.886	1.168	592288	REC_WORD	1.168	n/a	QUEEN	-999	5	[0, 0, 0]	n/a	FR1	5	R1443D
592.054	2.309	593456	REC_WORD	2.309	n/a	SOCK	8	5	[0, 0, 0]	n/a	FR1	5	R1443D
594.363	1.0	595765	REC_WORD_VV	1.0	n/a	<>	-999	5	[0, 0, 0]	n/a	FR1	5	R1443D
595.363	8.235	596765	REC_WORD_VV	8.235	n/a	<>	-999	5	[0, 0, 0]	n/a	FR1	5	R1443D
603.598	7.804	605000	REC_WORD_VV	7.804	n/a	<>	-999	5	[0, 0, 0]	n/a	FR1	5	R1443D
611.402	9.692	612803	REC_WORD_VV	9.692	n/a	<>	-999	5	[0, 0, 0]	n/a	FR1	5	R1443D
621.094	3.738	622499	REC_END	n/a	n/a	n/a	-999	5	[0, 0, 0]	n/a	FR1	5	R1443D
624.832	10.349	626229	COUNTDOWN_START	n/a	n/a	n/a	-999	5	[0, 0, 0]	n/a	FR1	5	R1443D
635.181	0.0	636585	COUNTDOWN_END	n/a	n/a	n/a	-999	5	[0, 0, 0]	n/a	FR1	5	R1443D
635.181	2.2	636585	ENCODING_START	n/a	n/a	n/a	-999	6	[0, 0, 0]	n/a	FR1	5	R1443D
637.381	1.6	638781	WORD	n/a	wordpools/wordpool_long_EN.txt	FLAG	1	6	[0, 0, 0]	n/a	FR1	5	R1443D
638.981	0.85	640381	WORD_OFF	n/a	n/a	FLAG	1	6	[0, 0, 0]	n/a	FR1	5	R1443D
639.831	1.618	641228	WORD	n/a	wordpools/wordpool_long_EN.txt	PLANT	2	6	[0, 0, 0]	n/a	FR1	5	R1443D
641.449	0.899	642855	WORD_OFF	n/a	n/a	PLANT	2	6	[0, 0, 0]	n/a	FR1	5	R1443D
642.348	1.602	643754	WORD	n/a	wordpools/wordpool_long_EN.txt	HOUSE	3	6	[0, 0, 0]	n/a	FR1	5	R1443D
643.95	0.948	645355	WORD_OFF	n/a	n/a	HOUSE	3	6	[0, 0, 0]	n/a	FR1	5	R1443D
644.898	1.601	646294	WORD	n/a	wordpools/wordpool_long_EN.txt	BOOK	4	6	[0, 0, 0]	n/a	FR1	5	R1443D
646.499	0.933	647894	WORD_OFF	n/a	n/a	BOOK	4	6	[0, 0, 0]	n/a	FR1	5	R1443D
647.432	1.6	648833	WORD	n/a	wordpools/wordpool_long_EN.txt	BRUSH	5	6	[0, 0, 0]	n/a	FR1	5	R1443D
649.032	0.833	650434	WORD_OFF	n/a	n/a	BRUSH	5	6	[0, 0, 0]	n/a	FR1	5	R1443D
649.865	1.6	651267	WORD	n/a	wordpools/wordpool_long_EN.txt	RAIL	6	6	[0, 0, 0]	n/a	FR1	5	R1443D
651.465	0.833	652867	WORD_OFF	n/a	n/a	RAIL	6	6	[0, 0, 0]	n/a	FR1	5	R1443D
652.298	1.601	653701	WORD	n/a	wordpools/wordpool_long_EN.txt	HOLE	7	6	[0, 0, 0]	n/a	FR1	5	R1443D
653.899	0.816	655301	WORD_OFF	n/a	n/a	HOLE	7	6	[0, 0, 0]	n/a	FR1	5	R1443D
654.715	1.616	656121	WORD	n/a	wordpools/wordpool_long_EN.txt	MASK	8	6	[0, 0, 0]	n/a	FR1	5	R1443D
656.331	0.917	657735	WORD_OFF	n/a	n/a	MASK	8	6	[0, 0, 0]	n/a	FR1	5	R1443D
657.248	1.6	658647	WORD	n/a	wordpools/wordpool_long_EN.txt	BAND	9	6	[0, 0, 0]	n/a	FR1	5	R1443D
658.848	0.866	660248	WORD_OFF	n/a	n/a	BAND	9	6	[0, 0, 0]	n/a	FR1	5	R1443D
659.714	1.601	661108	WORD	n/a	wordpools/wordpool_long_EN.txt	PERCH	10	6	[0, 0, 0]	n/a	FR1	5	R1443D
661.315	0.767	662708	WORD_OFF	n/a	n/a	PERCH	10	6	[0, 0, 0]	n/a	FR1	5	R1443D
662.082	1.6	663475	WORD	n/a	wordpools/wordpool_long_EN.txt	BOMB	11	6	[0, 0, 0]	n/a	FR1	5	R1443D
663.682	0.833	665076	WORD_OFF	n/a	n/a	BOMB	11	6	[0, 0, 0]	n/a	FR1	5	R1443D
664.515	1.616	665909	WORD	n/a	wordpools/wordpool_long_EN.txt	SLEEVE	12	6	[0, 0, 0]	n/a	FR1	5	R1443D
666.131	0.001	667530	PROB	0.001	n/a	n/a	-999	6	[1, 5, 7]	13	FR1	5	R1443D
666.132	0.0	667531	START	n/a	n/a	n/a	-999	6	[-999, -999, -999]	n/a	FR1	5	R1443D
666.131	0.001	667536	WORD_OFF	n/a	n/a	SLEEVE	12	6	[0, 0, 0]	n/a	FR1	5	R1443D
666.132	0.0	667536	ENCODING_END	n/a	n/a	n/a	-999	6	[0, 0, 0]	n/a	FR1	5	R1443D
666.132	7.3	667536	DISTRACT_START	n/a	n/a	n/a	-999	6	[0, 0, 0]	n/a	FR1	5	R1443D
673.432	4.35	674830	PROB	4.35	n/a	n/a	-999	6	[8, 8, 4]	20	FR1	5	R1443D
677.782	6.316	679180	PROB	6.316	n/a	n/a	-999	6	[6, 3, 8]	17	FR1	5	R1443D
684.098	5.717	685496	PROB	5.717	n/a	n/a	-999	6	[8, 1, 1]	10	FR1	5	R1443D
689.815	0.0	691211	DISTRACT_END	n/a	n/a	n/a	-999	6	[0, 0, 0]	n/a	FR1	5	R1443D
689.815	1.1	691213	STOP	n/a	n/a	n/a	-999	6	[-999, -999, -999]	n/a	FR1	5	R1443D
690.915	2.495	692309	REC_START	n/a	n/a	n/a	-999	6	[0, 0, 0]	n/a	FR1	5	R1443D
693.41	1.009	694807	REC_WORD	1.009	n/a	BRUSH	5	6	[0, 0, 0]	n/a	FR1	5	R1443D
694.419	1.318	695816	REC_WORD_VV	1.318	n/a	<>	-999	6	[0, 0, 0]	n/a	FR1	5	R1443D
695.737	2.045	697134	REC_WORD	2.045	n/a	TREE	-999	6	[0, 0, 0]	n/a	FR1	5	R1443D
697.782	8.443	699179	REC_WORD	8.443	n/a	LIMB	-999	6	[0, 0, 0]	n/a	FR1	5	R1443D
706.225	7.227	707622	REC_WORD	7.227	n/a	JAIL	-999	6	[0, 0, 0]	n/a	FR1	5	R1443D
713.452	4.053	714848	REC_WORD	4.053	n/a	PAIL	-999	6	[0, 0, 0]	n/a	FR1	5	R1443D
717.505	0.464	718901	REC_WORD	0.464	n/a	LIMB	-999	6	[0, 0, 0]	n/a	FR1	5	R1443D
717.969	0.409	719365	REC_WORD	0.409	n/a	ARM	-999	6	[0, 0, 0]	n/a	FR1	5	R1443D
718.378	3.758	719774	REC_WORD	3.758	n/a	HAND	-999	6	[0, 0, 0]	n/a	FR1	5	R1443D
722.136	3.696	723537	REC_END	n/a	n/a	n/a	-999	6	[0, 0, 0]	n/a	FR1	5	R1443D
725.832	10.349	727228	COUNTDOWN_START	n/a	n/a	n/a	-999	6	[0, 0, 0]	n/a	FR1	5	R1443D
736.181	0.0	737571	COUNTDOWN_END	n/a	n/a	n/a	-999	6	[0, 0, 0]	n/a	FR1	5	R1443D
736.181	2.267	737584	ENCODING_START	n/a	n/a	n/a	-999	7	[0, 0, 0]	n/a	FR1	5	R1443D
738.448	1.6	739846	WORD	n/a	wordpools/wordpool_long_EN.txt	BRICK	1	7	[0, 0, 0]	n/a	FR1	5	R1443D
740.048	0.8	741446	WORD_OFF	n/a	n/a	BRICK	1	7	[0, 0, 0]	n/a	FR1	5	R1443D
740.848	1.617	742240	WORD	n/a	wordpools/wordpool_long_EN.txt	PASTE	2	7	[0, 0, 0]	n/a	FR1	5	R1443D
742.465	0.95	743854	WORD_OFF	n/a	n/a	PASTE	2	7	[0, 0, 0]	n/a	FR1	5	R1443D
743.415	1.6	744806	WORD	n/a	wordpools/wordpool_long_EN.txt	POOL	3	7	[0, 0, 0]	n/a	FR1	5	R1443D
745.015	0.783	746406	WORD_OFF	n/a	n/a	POOL	3	7	[0, 0, 0]	n/a	FR1	5	R1443D
745.798	1.617	747198	WORD	n/a	wordpools/wordpool_long_EN.txt	SCHOOL	4	7	[0, 0, 0]	n/a	FR1	5	R1443D
747.415	0.867	748814	WORD_OFF	n/a	n/a	SCHOOL	4	7	[0, 0, 0]	n/a	FR1	5	R1443D
748.282	1.616	749673	WORD	n/a	wordpools/wordpool_long_EN.txt	BAT	5	7	[0, 0, 0]	n/a	FR1	5	R1443D
749.898	0.817	751287	WORD_OFF	n/a	n/a	BAT	5	7	[0, 0, 0]	n/a	FR1	5	R1443D
750.715	1.617	752107	WORD	n/a	wordpools/wordpool_long_EN.txt	MAZE	6	7	[0, 0, 0]	n/a	FR1	5	R1443D
752.332	0.916	753721	WORD_OFF	n/a	n/a	MAZE	6	7	[0, 0, 0]	n/a	FR1	5	R1443D
753.248	1.6	754646	WORD	n/a	wordpools/wordpool_long_EN.txt	THRONE	7	7	[0, 0, 0]	n/a	FR1	5	R1443D
754.848	0.967	756247	WORD_OFF	n/a	n/a	THRONE	7	7	[0, 0, 0]	n/a	FR1	5	R1443D
755.815	1.616	757212	WORD	n/a	wordpools/wordpool_long_EN.txt	TENT	8	7	[0, 0, 0]	n/a	FR1	5	R1443D
757.431	0.817	758826	WORD_OFF	n/a	n/a	TENT	8	7	[0, 0, 0]	n/a	FR1	5	R1443D
758.248	1.6	759646	WORD	n/a	wordpools/wordpool_long_EN.txt	SIGN	9	7	[0, 0, 0]	n/a	FR1	5	R1443D
759.848	0.883	761247	WORD_OFF	n/a	n/a	SIGN	9	7	[0, 0, 0]	n/a	FR1	5	R1443D
760.731	1.601	762120	WORD	n/a	wordpools/wordpool_long_EN.txt	TOAD	10	7	[0, 0, 0]	n/a	FR1	5	R1443D
762.332	0.9	763720	WORD_OFF	n/a	n/a	TOAD	10	7	[0, 0, 0]	n/a	FR1	5	R1443D
763.232	1.6	764619	WORD	n/a	wordpools/wordpool_long_EN.txt	SHELL	11	7	[0, 0, 0]	n/a	FR1	5	R1443D
764.832	0.85	766220	WORD_OFF	n/a	n/a	SHELL	11	7	[0, 0, 0]	n/a	FR1	5	R1443D
765.682	1.601	767080	WORD	n/a	wordpools/wordpool_long_EN.txt	CHIN	12	7	[0, 0, 0]	n/a	FR1	5	R1443D
767.283	0.001	768677	START	n/a	n/a	n/a	-999	7	[-999, -999, -999]	n/a	FR1	5	R1443D
767.284	0.0	768678	PROB	0.0	n/a	n/a	-999	7	[1, 5, 8]	14	FR1	5	R1443D
767.282	0.001	768680	WORD_OFF	n/a	n/a	CHIN	12	7	[0, 0, 0]	n/a	FR1	5	R1443D
767.283	0.0	768680	ENCODING_END	n/a	n/a	n/a	-999	7	[0, 0, 0]	n/a	FR1	5	R1443D
767.283	7.383	768680	DISTRACT_START	n/a	n/a	n/a	-999	7	[0, 0, 0]	n/a	FR1	5	R1443D
774.666	5.199	776059	PROB	5.199	n/a	n/a	-999	7	[3, 8, 7]	18	FR1	5	R1443D
779.865	3.735	781258	PROB	3.735	n/a	n/a	-999	7	[4, 1, 1]	6	FR1	5	R1443D
783.6	4.415	784993	PROB	4.415	n/a	n/a	-999	7	[2, 5, 3]	10	FR1	5	R1443D
788.015	0.0	789406	DISTRACT_END	n/a	n/a	n/a	-999	7	[0, 0, 0]	n/a	FR1	5	R1443D
788.015	1.184	789408	STOP	n/a	n/a	n/a	-999	7	[-999, -999, -999]	n/a	FR1	5	R1443D
789.199	1.485	790597	REC_START	n/a	n/a	n/a	-999	7	[0, 0, 0]	n/a	FR1	5	R1443D
790.684	0.75	792076	REC_WORD_VV	0.75	n/a	<>	-999	7	[0, 0, 0]	n/a	FR1	5	R1443D
791.434	1.825	792826	REC_WORD	1.825	n/a	QUEEN	-999	7	[0, 0, 0]	n/a	FR1	5	R1443D
793.259	1.0	794651	REC_WORD_VV	1.0	n/a	<>	-999	7	[0, 0, 0]	n/a	FR1	5	R1443D
794.259	0.546	795651	REC_WORD_VV	0.546	n/a	<>	-999	7	[0, 0, 0]	n/a	FR1	5	R1443D
794.805	2.375	796197	REC_WORD	2.375	n/a	TOAD	10	7	[0, 0, 0]	n/a	FR1	5	R1443D
797.18	3.427	798572	REC_WORD_VV	3.427	n/a	<>	-999	7	[0, 0, 0]	n/a	FR1	5	R1443D
800.607	1.0	801999	REC_WORD	1.0	n/a	FIST	-999	7	[0, 0, 0]	n/a	FR1	5	R1443D
801.607	4.697	802999	REC_WORD_VV	4.697	n/a	<>	-999	7	[0, 0, 0]	n/a	FR1	5	R1443D
806.304	4.225	807696	REC_WORD	4.225	n/a	THRONE	7	7	[0, 0, 0]	n/a	FR1	5	R1443D
810.529	1.0	811920	REC_WORD_VV	1.0	n/a	<>	-999	7	[0, 0, 0]	n/a	FR1	5	R1443D
811.529	1.693	812920	REC_WORD	1.693	n/a	CROWN	-999	7	[0, 0, 0]	n/a	FR1	5	R1443D
813.222	0.664	814613	REC_WORD	0.664	n/a	QUEEN	-999	7	[0, 0, 0]	n/a	FR1	5	R1443D
813.886	2.373	815277	REC_WORD	2.373	n/a	KING	-999	7	[0, 0, 0]	n/a	FR1	5	R1443D
816.259	4.17	817650	REC_WORD	4.17	n/a	TENT	8	7	[0, 0, 0]	n/a	FR1	5	R1443D
820.429	2.919	821825	REC_END	n/a	n/a	n/a	-999	7	[0, 0, 0]	n/a	FR1	5	R1443D
823.348	10.351	824748	COUNTDOWN_START	n/a	n/a	n/a	-999	7	[0, 0, 0]	n/a	FR1	5	R1443D
833.699	0.0	835091	COUNTDOWN_END	n/a	n/a	n/a	-999	7	[0, 0, 0]	n/a	FR1	5	R1443D
833.699	2.032	835091	ENCODING_START	n/a	n/a	n/a	-999	8	[0, 0, 0]	n/a	FR1	5	R1443D
835.731	1.6	837128	WORD	n/a	wordpools/wordpool_long_EN.txt	LAMP	1	8	[0, 0, 0]	n/a	FR1	5	R1443D
837.331	0.867	838728	WORD_OFF	n/a	n/a	LAMP	1	8	[0, 0, 0]	n/a	FR1	5	R1443D
838.198	1.601	839588	WORD	n/a	wordpools/wordpool_long_EN.txt	DOG	2	8	[0, 0, 0]	n/a	FR1	5	R1443D
839.799	0.816	841188	WORD_OFF	n/a	n/a	DOG	2	8	[0, 0, 0]	n/a	FR1	5	R1443D
840.615	1.616	842009	WORD	n/a	wordpools/wordpool_long_EN.txt	QUAIL	3	8	[0, 0, 0]	n/a	FR1	5	R1443D
842.231	0.818	843622	WORD_OFF	n/a	n/a	QUAIL	3	8	[0, 0, 0]	n/a	FR1	5	R1443D
843.049	1.616	844442	WORD	n/a	wordpools/wordpool_long_EN.txt	DIME	4	8	[0, 0, 0]	n/a	FR1	5	R1443D
844.665	0.999	846056	WORD_OFF	n/a	n/a	DIME	4	8	[0, 0, 0]	n/a	FR1	5	R1443D
845.664	1.617	847048	WORD	n/a	wordpools/wordpool_long_EN.txt	LIP	5	8	[0, 0, 0]	n/a	FR1	5	R1443D
847.281	0.834	848675	WORD_OFF	n/a	n/a	LIP	5	8	[0, 0, 0]	n/a	FR1	5	R1443D
848.115	1.616	849508	WORD	n/a	wordpools/wordpool_long_EN.txt	CORD	6	8	[0, 0, 0]	n/a	FR1	5	R1443D
849.731	1.0	851122	WORD_OFF	n/a	n/a	CORD	6	8	[0, 0, 0]	n/a	FR1	5	R1443D
850.731	1.601	852127	WORD	n/a	wordpools/wordpool_long_EN.txt	SLOPE	7	8	[0, 0, 0]	n/a	FR1	5	R1443D
852.332	0.832	853727	WORD_OFF	n/a	n/a	SLOPE	7	8	[0, 0, 0]	n/a	FR1	5	R1443D
853.164	1.6	854547	WORD	n/a	wordpools/wordpool_long_EN.txt	HILL	8	8	[0, 0, 0]	n/a	FR1	5	R1443D
854.764	0.801	856148	WORD_OFF	n/a	n/a	HILL	8	8	[0, 0, 0]	n/a	FR1	5	R1443D
855.565	1.6	856955	WORD	n/a	wordpools/wordpool_long_EN.txt	BOARD	9	8	[0, 0, 0]	n/a	FR1	5	R1443D
857.165	0.999	858555	WORD_OFF	n/a	n/a	BOARD	9	8	[0, 0, 0]	n/a	FR1	5	R1443D
858.164	1.601	859560	WORD	n/a	wordpools/wordpool_long_EN.txt	ROPE	10	8	[0, 0, 0]	n/a	FR1	5	R1443D
859.765	0.917	861161	WORD_OFF	n/a	n/a	ROPE	10	8	[0, 0, 0]	n/a	FR1	5	R1443D
860.682	1.616	862073	WORD	n/a	wordpools/wordpool_long_EN.txt	FLEET	11	8	[0, 0, 0]	n/a	FR1	5	R1443D
862.298	0.884	863687	WORD_OFF	n/a	n/a	FLEET	11	8	[0, 0, 0]	n/a	FR1	5	R1443D
863.182	1.6	864573	WORD	n/a	wordpools/wordpool_long_EN.txt	BOY	12	8	[0, 0, 0]	n/a	FR1	5	R1443D
864.782	0.0	866171	PROB	0.0	n/a	n/a	-999	8	[2, 4, 3]	9	FR1	5	R1443D
864.782	0.003	866174	WORD_OFF	n/a	n/a	BOY	12	8	[0, 0, 0]	n/a	FR1	5	R1443D
864.785	0.0	866174	ENCODING_END	n/a	n/a	n/a	-999	8	[0, 0, 0]	n/a	FR1	5	R1443D
864.785	0.0	866174	DISTRACT_START	n/a	n/a	n/a	-999	8	[0, 0, 0]	n/a	FR1	5	R1443D
864.785	5.163	866174	START	n/a	n/a	n/a	-999	8	[-999, -999, -999]	n/a	FR1	5	R1443D
869.948	4.717	871336	PROB	4.717	n/a	n/a	-999	8	[3, 5, 2]	10	FR1	5	R1443D
874.665	4.801	876053	PROB	4.801	n/a	n/a	-999	8	[6, 3, 7]	16	FR1	5	R1443D
879.466	3.883	880854	PROB	3.883	n/a	n/a	-999	8	[3, 4, 2]	9	FR1	5	R1443D
883.349	4.6	884737	PROB	4.6	n/a	n/a	-999	8	[3, 6, 3]	12	FR1	5	R1443D
887.949	0.0	889334	DISTRACT_END	n/a	n/a	n/a	-999	8	[0, 0, 0]	n/a	FR1	5	R1443D
887.949	1.066	889337	STOP	n/a	n/a	n/a	-999	8	[-999, -999, -999]	n/a	FR1	5	R1443D
889.015	1.367	890405	REC_START	n/a	n/a	n/a	-999	8	[0, 0, 0]	n/a	FR1	5	R1443D
890.382	1.322	891769	REC_WORD	1.322	n/a	BOY	12	8	[0, 0, 0]	n/a	FR1	5	R1443D
891.704	1.14	893091	REC_WORD_VV	1.14	n/a	<>	-999	8	[0, 0, 0]	n/a	FR1	5	R1443D
892.844	1.555	894231	REC_WORD	1.555	n/a	FLEET	11	8	[0, 0, 0]	n/a	FR1	5	R1443D
894.399	1.0	895786	REC_WORD_VV	1.0	n/a	<>	-999	8	[0, 0, 0]	n/a	FR1	5	R1443D
895.399	2.611	896786	REC_WORD_VV	2.611	n/a	<>	-999	8	[0, 0, 0]	n/a	FR1	5	R1443D
898.01	3.356	899397	REC_WORD_VV	3.356	n/a	<>	-999	8	[0, 0, 0]	n/a	FR1	5	R1443D
901.366	10.41	902753	REC_WORD	10.41	n/a	ROW	-999	8	[0, 0, 0]	n/a	FR1	5	R1443D
911.776	8.482	913162	REC_WORD	8.482	n/a	TABLE	-999	8	[0, 0, 0]	n/a	FR1	5	R1443D
920.258	3.257	921646	REC_END	n/a	n/a	n/a	-999	8	[0, 0, 0]	n/a	FR1	5	R1443D
923.515	10.35	924900	COUNTDOWN_START	n/a	n/a	n/a	-999	8	[0, 0, 0]	n/a	FR1	5	R1443D
933.865	0.0	935256	COUNTDOWN_END	n/a	n/a	n/a	-999	8	[0, 0, 0]	n/a	FR1	5	R1443D
933.865	2.133	935256	ENCODING_START	n/a	n/a	n/a	-999	9	[0, 0, 0]	n/a	FR1	5	R1443D
935.998	1.616	937386	WORD	n/a	wordpools/wordpool_long_EN.txt	PAIL	1	9	[0, 0, 0]	n/a	FR1	5	R1443D
937.614	0.784	939000	WORD_OFF	n/a	n/a	PAIL	1	9	[0, 0, 0]	n/a	FR1	5	R1443D
938.398	1.6	939780	WORD	n/a	wordpools/wordpool_long_EN.txt	BEAST	2	9	[0, 0, 0]	n/a	FR1	5	R1443D
939.998	0.8	941380	WORD_OFF	n/a	n/a	BEAST	2	9	[0, 0, 0]	n/a	FR1	5	R1443D
940.798	1.6	942187	WORD	n/a	wordpools/wordpool_long_EN.txt	CAVE	3	9	[0, 0, 0]	n/a	FR1	5	R1443D
942.398	0.934	943788	WORD_OFF	n/a	n/a	CAVE	3	9	[0, 0, 0]	n/a	FR1	5	R1443D
943.332	1.6	944714	WORD	n/a	wordpools/wordpool_long_EN.txt	GIRL	4	9	[0, 0, 0]	n/a	FR1	5	R1443D
944.932	0.95	946314	WORD_OFF	n/a	n/a	GIRL	4	9	[0, 0, 0]	n/a	FR1	5	R1443D
945.882	1.616	947266	WORD	n/a	wordpools/wordpool_long_EN.txt	BLUSH	5	9	[0, 0, 0]	n/a	FR1	5	R1443D
947.498	0.917	948880	WORD_OFF	n/a	n/a	BLUSH	5	9	[0, 0, 0]	n/a	FR1	5	R1443D
948.415	1.6	949806	WORD	n/a	wordpools/wordpool_long_EN.txt	EGG	6	9	[0, 0, 0]	n/a	FR1	5	R1443D
950.015	0.799	951406	WORD_OFF	n/a	n/a	EGG	6	9	[0, 0, 0]	n/a	FR1	5	R1443D
950.814	1.601	952200	WORD	n/a	wordpools/wordpool_long_EN.txt	CLOWN	7	9	[0, 0, 0]	n/a	FR1	5	R1443D
952.415	0.967	953800	WORD_OFF	n/a	n/a	CLOWN	7	9	[0, 0, 0]	n/a	FR1	5	R1443D
953.382	1.599	954766	WORD	n/a	wordpools/wordpool_long_EN.txt	SOAP	8	9	[0, 0, 0]	n/a	FR1	5	R1443D
954.981	0.8	956366	WORD_OFF	n/a	n/a	SOAP	8	9	[0, 0, 0]	n/a	FR1	5	R1443D
955.781	1.6	957160	WORD	n/a	wordpools/wordpool_long_EN.txt	DITCH	9	9	[0, 0, 0]	n/a	FR1	5	R1443D
957.381	0.983	958760	WORD_OFF	n/a	n/a	DITCH	9	9	[0, 0, 0]	n/a	FR1	5	R1443D
958.364	1.6	959752	WORD	n/a	wordpools/wordpool_long_EN.txt	SKY	10	9	[0, 0, 0]	n/a	FR1	5	R1443D
959.964	0.868	961353	WORD_OFF	n/a	n/a	SKY	10	9	[0, 0, 0]	n/a	FR1	5	R1443D
960.832	1.6	962212	WORD	n/a	wordpools/wordpool_long_EN.txt	MUD	11	9	[0, 0, 0]	n/a	FR1	5	R1443D
962.432	0.767	963813	WORD_OFF	n/a	n/a	MUD	11	9	[0, 0, 0]	n/a	FR1	5	R1443D
963.199	1.6	964580	WORD	n/a	wordpools/wordpool_long_EN.txt	BATH	12	9	[0, 0, 0]	n/a	FR1	5	R1443D
964.799	0.003	966180	WORD_OFF	n/a	n/a	BATH	12	9	[0, 0, 0]	n/a	FR1	5	R1443D
964.802	0.0	966180	ENCODING_END	n/a	n/a	n/a	-999	9	[0, 0, 0]	n/a	FR1	5	R1443D
964.802	0.0	966180	DISTRACT_START	n/a	n/a	n/a	-999	9	[0, 0, 0]	n/a	FR1	5	R1443D
964.8	0.002	966184	PROB	0.002	n/a	n/a	-999	9	[7, 8, 1]	16	FR1	5	R1443D
964.802	7.163	966186	START	n/a	n/a	n/a	-999	9	[-999, -999, -999]	n/a	FR1	5	R1443D
971.965	4.518	973348	PROB	4.518	n/a	n/a	-999	9	[4, 4, 6]	14	FR1	5	R1443D
976.483	5.766	977866	PROB	5.766	n/a	n/a	-999	9	[8, 3, 5]	16	FR1	5	R1443D
982.249	4.316	983632	PROB	4.316	n/a	n/a	-999	9	[4, 3, 4]	11	FR1	5	R1443D
986.565	0.0	987948	STOP	n/a	n/a	n/a	-999	9	[-999, -999, -999]	n/a	FR1	5	R1443D
986.565	1.133	987951	DISTRACT_END	n/a	n/a	n/a	-999	9	[0, 0, 0]	n/a	FR1	5	R1443D
987.698	1.831	989076	REC_START	n/a	n/a	n/a	-999	9	[0, 0, 0]	n/a	FR1	5	R1443D
989.529	1.35	990911	REC_WORD_VV	1.35	n/a	<>	-999	9	[0, 0, 0]	n/a	FR1	5	R1443D
990.879	1.601	992261	REC_WORD	1.601	n/a	DITCH	9	9	[0, 0, 0]	n/a	FR1	5	R1443D
992.48	0.585	993862	REC_WORD	0.585	n/a	DOG	-999	9	[0, 0, 0]	n/a	FR1	5	R1443D
993.065	2.233	994447	REC_WORD	2.233	n/a	BOY	-999	9	[0, 0, 0]	n/a	FR1	5	R1443D
995.298	1.0	996680	REC_WORD_VV	1.0	n/a	<>	-999	9	[0, 0, 0]	n/a	FR1	5	R1443D
996.298	1.0	997680	REC_WORD_VV	1.0	n/a	<>	-999	9	[0, 0, 0]	n/a	FR1	5	R1443D
997.298	0.668	998680	REC_WORD_VV	0.668	n/a	<>	-999	9	[0, 0, 0]	n/a	FR1	5	R1443D
997.966	3.796	999348	REC_WORD	3.796	n/a	MUD	11	9	[0, 0, 0]	n/a	FR1	5	R1443D
1001.762	4.678	1003144	REC_WORD_VV	4.678	n/a	<>	-999	9	[0, 0, 0]	n/a	FR1	5	R1443D
1006.44	3.452	1007822	REC_WORD	3.452	n/a	DIRT	-999	9	[0, 0, 0]	n/a	FR1	5	R1443D
1009.892	4.046	1011273	REC_WORD	4.046	n/a	BATH	12	9	[0, 0, 0]	n/a	FR1	5	R1443D
1013.938	4.969	1015319	REC_WORD	4.969	n/a	RAKE	-999	9	[0, 0, 0]	n/a	FR1	5	R1443D
1018.907	2.575	1020291	REC_END	n/a	n/a	n/a	-999	9	[0, 0, 0]	n/a	FR1	5	R1443D
1021.482	10.349	1022870	COUNTDOWN_START	n/a	n/a	n/a	-999	9	[0, 0, 0]	n/a	FR1	5	R1443D
1031.831	0.0	1033213	COUNTDOWN_END	n/a	n/a	n/a	-999	9	[0, 0, 0]	n/a	FR1	5	R1443D
1031.831	2.167	1033213	ENCODING_START	n/a	n/a	n/a	-999	10	[0, 0, 0]	n/a	FR1	5	R1443D
1033.998	1.6	1035382	WORD	n/a	wordpools/wordpool_long_EN.txt	FRUIT	1	10	[0, 0, 0]	n/a	FR1	5	R1443D
1035.598	0.767	1036983	WORD_OFF	n/a	n/a	FRUIT	1	10	[0, 0, 0]	n/a	FR1	5	R1443D
1036.365	1.6	1037750	WORD	n/a	wordpools/wordpool_long_EN.txt	THREAD	2	10	[0, 0, 0]	n/a	FR1	5	R1443D
1037.965	0.834	1039350	WORD_OFF	n/a	n/a	THREAD	2	10	[0, 0, 0]	n/a	FR1	5	R1443D
1038.799	1.616	1040184	WORD	n/a	wordpools/wordpool_long_EN.txt	CROSS	3	10	[0, 0, 0]	n/a	FR1	5	R1443D
1040.415	0.984	1041797	WORD_OFF	n/a	n/a	CROSS	3	10	[0, 0, 0]	n/a	FR1	5	R1443D
1041.399	1.616	1042776	WORD	n/a	wordpools/wordpool_long_EN.txt	TANK	4	10	[0, 0, 0]	n/a	FR1	5	R1443D
1043.015	0.8	1044390	WORD_OFF	n/a	n/a	TANK	4	10	[0, 0, 0]	n/a	FR1	5	R1443D
1043.815	1.617	1045196	WORD	n/a	wordpools/wordpool_long_EN.txt	PLATE	5	10	[0, 0, 0]	n/a	FR1	5	R1443D
1045.432	0.9	1046810	WORD_OFF	n/a	n/a	PLATE	5	10	[0, 0, 0]	n/a	FR1	5	R1443D
1046.332	1.615	1047709	WORD	n/a	wordpools/wordpool_long_EN.txt	TOOL	6	10	[0, 0, 0]	n/a	FR1	5	R1443D
1047.947	0.868	1049323	WORD_OFF	n/a	n/a	TOOL	6	10	[0, 0, 0]	n/a	FR1	5	R1443D
1048.815	1.6	1050196	WORD	n/a	wordpools/wordpool_long_EN.txt	WING	7	10	[0, 0, 0]	n/a	FR1	5	R1443D
1050.415	0.883	1051797	WORD_OFF	n/a	n/a	WING	7	10	[0, 0, 0]	n/a	FR1	5	R1443D
1051.298	1.601	1052683	WORD	n/a	wordpools/wordpool_long_EN.txt	PIT	8	10	[0, 0, 0]	n/a	FR1	5	R1443D
1052.899	0.899	1054283	WORD_OFF	n/a	n/a	PIT	8	10	[0, 0, 0]	n/a	FR1	5	R1443D
1053.798	1.6	1055183	WORD	n/a	wordpools/wordpool_long_EN.txt	HOSE	9	10	[0, 0, 0]	n/a	FR1	5	R1443D
1055.398	1.0	1056783	WORD_OFF	n/a	n/a	HOSE	9	10	[0, 0, 0]	n/a	FR1	5	R1443D
1056.398	1.617	1057775	WORD	n/a	wordpools/wordpool_long_EN.txt	GRILL	10	10	[0, 0, 0]	n/a	FR1	5	R1443D
1058.015	0.966	1059389	WORD_OFF	n/a	n/a	GRILL	10	10	[0, 0, 0]	n/a	FR1	5	R1443D
1058.981	1.6	1060367	WORD	n/a	wordpools/wordpool_long_EN.txt	GOAL	11	10	[0, 0, 0]	n/a	FR1	5	R1443D
1060.581	0.8	1061955	WORD_OFF	n/a	n/a	GOAL	11	10	[0, 0, 0]	n/a	FR1	5	R1443D
1061.381	1.601	1062761	WORD	n/a	wordpools/wordpool_long_EN.txt	GUARD	12	10	[0, 0, 0]	n/a	FR1	5	R1443D
1062.982	0.0	1064361	PROB	0.0	n/a	n/a	-999	10	[3, 7, 8]	18	FR1	5	R1443D
1062.982	0.001	1064362	WORD_OFF	n/a	n/a	GUARD	12	10	[0, 0, 0]	n/a	FR1	5	R1443D
1062.983	0.0	1064362	ENCODING_END	n/a	n/a	n/a	-999	10	[0, 0, 0]	n/a	FR1	5	R1443D
1062.983	0.0	1064362	DISTRACT_START	n/a	n/a	n/a	-999	10	[0, 0, 0]	n/a	FR1	5	R1443D
1062.983	5.932	1064362	START	n/a	n/a	n/a	-999	10	[-999, -999, -999]	n/a	FR1	5	R1443D
1068.915	4.317	1070293	PROB	4.317	n/a	n/a	-999	10	[2, 8, 7]	17	FR1	5	R1443D
1073.232	5.717	1074610	PROB	5.717	n/a	n/a	-999	10	[3, 7, 6]	16	FR1	5	R1443D
1078.949	7.318	1080327	PROB	7.318	n/a	n/a	-999	10	[6, 1, 7]	14	FR1	5	R1443D
1086.267	0.0	1087641	DISTRACT_END	n/a	n/a	n/a	-999	10	[0, 0, 0]	n/a	FR1	5	R1443D
1086.267	1.298	1087645	STOP	n/a	n/a	n/a	-999	10	[-999, -999, -999]	n/a	FR1	5	R1443D
1087.565	1.291	1088937	REC_START	n/a	n/a	n/a	-999	10	[0, 0, 0]	n/a	FR1	5	R1443D
1088.856	1.0	1090233	REC_WORD_VV	1.0	n/a	<>	-999	10	[0, 0, 0]	n/a	FR1	5	R1443D
1089.856	1.784	1091233	REC_WORD_VV	1.784	n/a	<>	-999	10	[0, 0, 0]	n/a	FR1	5	R1443D
1091.64	1.0	1093017	REC_WORD_VV	1.0	n/a	<>	-999	10	[0, 0, 0]	n/a	FR1	5	R1443D
1092.64	1.288	1094017	REC_WORD_VV	1.288	n/a	<>	-999	10	[0, 0, 0]	n/a	FR1	5	R1443D
1093.928	0.522	1095305	REC_WORD	0.522	n/a	DITCH	-999	10	[0, 0, 0]	n/a	FR1	5	R1443D
1094.45	2.617	1095827	REC_WORD	2.617	n/a	HOSE	9	10	[0, 0, 0]	n/a	FR1	5	R1443D
1097.067	1.0	1098444	REC_WORD_VV	1.0	n/a	<>	-999	10	[0, 0, 0]	n/a	FR1	5	R1443D
1098.067	4.438	1099444	REC_WORD_VV	4.438	n/a	<>	-999	10	[0, 0, 0]	n/a	FR1	5	R1443D
1102.505	1.476	1103882	REC_WORD_VV	1.476	n/a	<>	-999	10	[0, 0, 0]	n/a	FR1	5	R1443D
1103.981	0.689	1105358	REC_WORD	0.689	n/a	JAIL	-999	10	[0, 0, 0]	n/a	FR1	5	R1443D
1104.67	1.0	1106047	REC_WORD	1.0	n/a	HOSE	9	10	[0, 0, 0]	n/a	FR1	5	R1443D
1105.67	0.751	1107047	REC_WORD_VV	0.751	n/a	<>	-999	10	[0, 0, 0]	n/a	FR1	5	R1443D
1106.421	0.554	1107798	REC_WORD	0.554	n/a	DITCH	-999	10	[0, 0, 0]	n/a	FR1	5	R1443D
1106.975	3.117	1108352	REC_WORD	3.117	n/a	TRENCH	-999	10	[0, 0, 0]	n/a	FR1	5	R1443D
1110.092	0.577	1111468	REC_WORD	0.577	n/a	RAKE	-999	10	[0, 0, 0]	n/a	FR1	5	R1443D
1110.669	0.369	1112045	REC_WORD	0.369	n/a	RAIN	-999	10	[0, 0, 0]	n/a	FR1	5	R1443D
1111.038	2.243	1112414	REC_WORD	2.243	n/a	HILL	-999	10	[0, 0, 0]	n/a	FR1	5	R1443D
1113.281	0.681	1114657	REC_WORD	0.681	n/a	SLOPE	-999	10	[0, 0, 0]	n/a	FR1	5	R1443D
1113.962	3.219	1115338	REC_WORD	3.219	n/a	HILL	-999	10	[0, 0, 0]	n/a	FR1	5	R1443D
1117.181	1.615	1118557	REC_WORD	1.615	n/a	DITCH	-999	10	[0, 0, 0]	n/a	FR1	5	R1443D
1118.796	2.818	1120178	REC_END	n/a	n/a	n/a	-999	10	[0, 0, 0]	n/a	FR1	5	R1443D
1121.614	10.351	1122996	COUNTDOWN_START	n/a	n/a	n/a	-999	10	[0, 0, 0]	n/a	FR1	5	R1443D
1131.965	0.0	1133339	COUNTDOWN_END	n/a	n/a	n/a	-999	10	[0, 0, 0]	n/a	FR1	5	R1443D
1131.965	2.217	1133339	ENCODING_START	n/a	n/a	n/a	-999	11	[0, 0, 0]	n/a	FR1	5	R1443D
1134.182	1.6	1135561	WORD	n/a	wordpools/wordpool_long_EN.txt	TEETH	1	11	[0, 0, 0]	n/a	FR1	5	R1443D
1135.782	0.932	1137161	WORD_OFF	n/a	n/a	TEETH	1	11	[0, 0, 0]	n/a	FR1	5	R1443D
1136.714	1.601	1138087	WORD	n/a	wordpools/wordpool_long_EN.txt	YARN	2	11	[0, 0, 0]	n/a	FR1	5	R1443D
1138.315	0.965	1139688	WORD_OFF	n/a	n/a	YARN	2	11	[0, 0, 0]	n/a	FR1	5	R1443D
1139.28	1.602	1140653	WORD	n/a	wordpools/wordpool_long_EN.txt	CHEST	3	11	[0, 0, 0]	n/a	FR1	5	R1443D
1140.882	0.8	1142254	WORD_OFF	n/a	n/a	CHEST	3	11	[0, 0, 0]	n/a	FR1	5	R1443D
1141.682	1.6	1143060	WORD	n/a	wordpools/wordpool_long_EN.txt	OAR	4	11	[0, 0, 0]	n/a	FR1	5	R1443D
1143.282	0.767	1144661	WORD_OFF	n/a	n/a	OAR	4	11	[0, 0, 0]	n/a	FR1	5	R1443D
1144.049	1.616	1145428	WORD	n/a	wordpools/wordpool_long_EN.txt	WRIST	5	11	[0, 0, 0]	n/a	FR1	5	R1443D
1145.665	0.784	1147042	WORD_OFF	n/a	n/a	WRIST	5	11	[0, 0, 0]	n/a	FR1	5	R1443D
1146.449	1.599	1147822	WORD	n/a	wordpools/wordpool_long_EN.txt	TWIG	6	11	[0, 0, 0]	n/a	FR1	5	R1443D
1148.048	0.983	1149422	WORD_OFF	n/a	n/a	TWIG	6	11	[0, 0, 0]	n/a	FR1	5	R1443D
1149.031	1.6	1150401	WORD	n/a	wordpools/wordpool_long_EN.txt	DOCK	7	11	[0, 0, 0]	n/a	FR1	5	R1443D
1150.631	0.901	1152002	WORD_OFF	n/a	n/a	DOCK	7	11	[0, 0, 0]	n/a	FR1	5	R1443D
1151.532	1.6	1152901	WORD	n/a	wordpools/wordpool_long_EN.txt	FOX	8	11	[0, 0, 0]	n/a	FR1	5	R1443D
1153.132	0.933	1154501	WORD_OFF	n/a	n/a	FOX	8	11	[0, 0, 0]	n/a	FR1	5	R1443D
1154.065	1.6	1155441	WORD	n/a	wordpools/wordpool_long_EN.txt	COIN	9	11	[0, 0, 0]	n/a	FR1	5	R1443D
1155.665	0.984	1157041	WORD_OFF	n/a	n/a	COIN	9	11	[0, 0, 0]	n/a	FR1	5	R1443D
1156.649	1.616	1158020	WORD	n/a	wordpools/wordpool_long_EN.txt	RAFT	10	11	[0, 0, 0]	n/a	FR1	5	R1443D
1158.265	0.917	1159633	WORD_OFF	n/a	n/a	RAFT	10	11	[0, 0, 0]	n/a	FR1	5	R1443D
1159.182	1.6	1160559	WORD	n/a	wordpools/wordpool_long_EN.txt	TRAY	11	11	[0, 0, 0]	n/a	FR1	5	R1443D
1160.782	0.767	1162160	WORD_OFF	n/a	n/a	TRAY	11	11	[0, 0, 0]	n/a	FR1	5	R1443D
1161.549	1.617	1162927	WORD	n/a	wordpools/wordpool_long_EN.txt	BIRD	12	11	[0, 0, 0]	n/a	FR1	5	R1443D
1163.166	0.0	1164540	PROB	0.0	n/a	n/a	-999	11	[1, 8, 8]	17	FR1	5	R1443D
1163.165	0.002	1164541	WORD_OFF	n/a	n/a	BIRD	12	11	[0, 0, 0]	n/a	FR1	5	R1443D
1163.167	0.0	1164541	ENCODING_END	n/a	n/a	n/a	-999	11	[0, 0, 0]	n/a	FR1	5	R1443D
1163.167	0.0	1164541	DISTRACT_START	n/a	n/a	n/a	-999	11	[0, 0, 0]	n/a	FR1	5	R1443D
1163.167	5.647	1164541	START	n/a	n/a	n/a	-999	11	[-999, -999, -999]	n/a	FR1	5	R1443D
1168.814	4.401	1170187	PROB	4.401	n/a	n/a	-999	11	[8, 5, 8]	21	FR1	5	R1443D
1173.215	4.051	1174588	PROB	4.051	n/a	n/a	-999	11	[2, 3, 4]	9	FR1	5	R1443D
1177.266	4.083	1178639	PROB	4.083	n/a	n/a	-999	11	[7, 2, 1]	10	FR1	5	R1443D
1181.349	3.399	1182722	PROB	3.399	n/a	n/a	-999	11	[1, 5, 5]	11	FR1	5	R1443D
1184.748	0.0	1186121	STOP	n/a	n/a	n/a	-999	11	[-999, -999, -999]	n/a	FR1	5	R1443D
1184.748	1.35	1186126	DISTRACT_END	n/a	n/a	n/a	-999	11	[0, 0, 0]	n/a	FR1	5	R1443D
1186.098	0.776	1187476	REC_START	n/a	n/a	n/a	-999	11	[0, 0, 0]	n/a	FR1	5	R1443D
1186.874	1.137	1188247	REC_WORD	1.137	n/a	RAFT	10	11	[0, 0, 0]	n/a	FR1	5	R1443D
1188.011	1.277	1189383	REC_WORD	1.277	n/a	DOCK	7	11	[0, 0, 0]	n/a	FR1	5	R1443D
1189.288	1.0	1190660	REC_WORD_VV	1.0	n/a	<>	-999	11	[0, 0, 0]	n/a	FR1	5	R1443D
1190.288	1.0	1191660	REC_WORD_VV	1.0	n/a	<>	-999	11	[0, 0, 0]	n/a	FR1	5	R1443D
1191.288	2.206	1192660	REC_WORD_VV	2.206	n/a	<>	-999	11	[0, 0, 0]	n/a	FR1	5	R1443D
1193.494	1.0	1194866	REC_WORD_VV	1.0	n/a	<>	-999	11	[0, 0, 0]	n/a	FR1	5	R1443D
1194.494	1.0	1195866	REC_WORD_VV	1.0	n/a	<>	-999	11	[0, 0, 0]	n/a	FR1	5	R1443D
1195.494	1.29	1196866	REC_WORD_VV	1.29	n/a	<>	-999	11	[0, 0, 0]	n/a	FR1	5	R1443D
1196.784	7.624	1198156	REC_WORD	7.624	n/a	WATER	-999	11	[0, 0, 0]	n/a	FR1	5	R1443D
1204.408	0.75	1205780	REC_WORD	0.75	n/a	RAFT	10	11	[0, 0, 0]	n/a	FR1	5	R1443D
1205.158	1.0	1206530	REC_WORD_VV	1.0	n/a	<>	-999	11	[0, 0, 0]	n/a	FR1	5	R1443D
1206.158	7.669	1207530	REC_WORD_VV	7.669	n/a	<>	-999	11	[0, 0, 0]	n/a	FR1	5	R1443D
1213.827	3.487	1215198	REC_WORD	3.487	n/a	ROSE	-999	11	[0, 0, 0]	n/a	FR1	5	R1443D
1217.314	3.135	1218690	REC_END	n/a	n/a	n/a	-999	11	[0, 0, 0]	n/a	FR1	5	R1443D
1220.449	10.349	1221825	COUNTDOWN_START	n/a	n/a	n/a	-999	11	[0, 0, 0]	n/a	FR1	5	R1443D
1230.798	0.0	1232168	COUNTDOWN_END	n/a	n/a	n/a	-999	11	[0, 0, 0]	n/a	FR1	5	R1443D
1230.798	2.284	1232168	ENCODING_START	n/a	n/a	n/a	-999	12	[0, 0, 0]	n/a	FR1	5	R1443D
1233.082	1.6	1234457	WORD	n/a	wordpools/wordpool_long_EN.txt	SPRING	1	12	[0, 0, 0]	n/a	FR1	5	R1443D
1234.682	0.783	1236057	WORD_OFF	n/a	n/a	SPRING	1	12	[0, 0, 0]	n/a	FR1	5	R1443D
1235.465	1.616	1236837	WORD	n/a	wordpools/wordpool_long_EN.txt	FLASK	2	12	[0, 0, 0]	n/a	FR1	5	R1443D
1237.081	0.818	1238451	WORD_OFF	n/a	n/a	FLASK	2	12	[0, 0, 0]	n/a	FR1	5	R1443D
1237.899	1.616	1239271	WORD	n/a	wordpools/wordpool_long_EN.txt	CROWN	3	12	[0, 0, 0]	n/a	FR1	5	R1443D
1239.515	0.884	1240885	WORD_OFF	n/a	n/a	CROWN	3	12	[0, 0, 0]	n/a	FR1	5	R1443D
1240.399	1.616	1241771	WORD	n/a	wordpools/wordpool_long_EN.txt	FLEA	4	12	[0, 0, 0]	n/a	FR1	5	R1443D
1242.015	0.95	1243398	WORD_OFF	n/a	n/a	FLEA	4	12	[0, 0, 0]	n/a	FR1	5	R1443D
1242.965	1.6	1244337	WORD	n/a	wordpools/wordpool_long_EN.txt	BEAK	5	12	[0, 0, 0]	n/a	FR1	5	R1443D
1244.565	0.766	1245937	WORD_OFF	n/a	n/a	BEAK	5	12	[0, 0, 0]	n/a	FR1	5	R1443D
1245.331	1.601	1246705	WORD	n/a	wordpools/wordpool_long_EN.txt	CHEEK	6	12	[0, 0, 0]	n/a	FR1	5	R1443D
1246.932	0.8	1248305	WORD_OFF	n/a	n/a	CHEEK	6	12	[0, 0, 0]	n/a	FR1	5	R1443D
1247.732	1.6	1249099	WORD	n/a	wordpools/wordpool_long_EN.txt	TIE	7	12	[0, 0, 0]	n/a	FR1	5	R1443D
1249.332	0.933	1250699	WORD_OFF	n/a	n/a	TIE	7	12	[0, 0, 0]	n/a	FR1	5	R1443D
1250.265	1.617	1251638	WORD	n/a	wordpools/wordpool_long_EN.txt	STEAK	8	12	[0, 0, 0]	n/a	FR1	5	R1443D
1251.882	0.783	1253252	WORD_OFF	n/a	n/a	STEAK	8	12	[0, 0, 0]	n/a	FR1	5	R1443D
1252.665	1.6	1254032	WORD	n/a	wordpools/wordpool_long_EN.txt	ICE	9	12	[0, 0, 0]	n/a	FR1	5	R1443D
1254.265	0.817	1255633	WORD_OFF	n/a	n/a	ICE	9	12	[0, 0, 0]	n/a	FR1	5	R1443D
1255.082	1.6	1256453	WORD	n/a	wordpools/wordpool_long_EN.txt	LOCK	10	12	[0, 0, 0]	n/a	FR1	5	R1443D
1256.682	0.766	1258053	WORD_OFF	n/a	n/a	LOCK	10	12	[0, 0, 0]	n/a	FR1	5	R1443D
1257.448	1.6	1258820	WORD	n/a	wordpools/wordpool_long_EN.txt	HAT	11	12	[0, 0, 0]	n/a	FR1	5	R1443D
1259.048	0.8	1260421	WORD_OFF	n/a	n/a	HAT	11	12	[0, 0, 0]	n/a	FR1	5	R1443D
1259.848	1.617	1261214	WORD	n/a	wordpools/wordpool_long_EN.txt	TILE	12	12	[0, 0, 0]	n/a	FR1	5	R1443D
1261.465	0.001	1262828	WORD_OFF	n/a	n/a	TILE	12	12	[0, 0, 0]	n/a	FR1	5	R1443D
1261.466	0.0	1262835	START	n/a	n/a	n/a	-999	12	[-999, -999, -999]	n/a	FR1	5	R1443D
1261.466	0.0	1262835	PROB	0.0	n/a	n/a	-999	12	[4, 7, 2]	11	FR1	5	R1443D
1261.466	0.0	1262841	ENCODING_END	n/a	n/a	n/a	-999	12	[0, 0, 0]	n/a	FR1	5	R1443D
1261.466	5.283	1262841	DISTRACT_START	n/a	n/a	n/a	-999	12	[0, 0, 0]	n/a	FR1	5	R1443D
1266.749	5.567	1268117	PROB	5.567	n/a	n/a	-999	12	[3, 2, 4]	9	FR1	5	R1443D
1272.316	6.2	1273684	PROB	6.2	n/a	n/a	-999	12	[4, 3, 6]	13	FR1	5	R1443D
1278.516	6.684	1279884	PROB	6.684	n/a	n/a	-999	12	[6, 4, 6]	14	FR1	5	R1443D
1285.2	0.0	1286568	STOP	n/a	n/a	n/a	-999	12	[-999, -999, -999]	n/a	FR1	5	R1443D
1285.2	1.131	1286570	DISTRACT_END	n/a	n/a	n/a	-999	12	[0, 0, 0]	n/a	FR1	5	R1443D
1286.331	1.105	1287694	REC_START	n/a	n/a	n/a	-999	12	[0, 0, 0]	n/a	FR1	5	R1443D
1287.436	1.0	1288803	REC_WORD_VV	1.0	n/a	<>	-999	12	[0, 0, 0]	n/a	FR1	5	R1443D
1288.436	1.0	1289803	REC_WORD_VV	1.0	n/a	<>	-999	12	[0, 0, 0]	n/a	FR1	5	R1443D
1289.436	1.0	1290803	REC_WORD_VV	1.0	n/a	<>	-999	12	[0, 0, 0]	n/a	FR1	5	R1443D
1290.436	1.0	1291803	REC_WORD_VV	1.0	n/a	<>	-999	12	[0, 0, 0]	n/a	FR1	5	R1443D
1291.436	1.0	1292803	REC_WORD_VV	1.0	n/a	<>	-999	12	[0, 0, 0]	n/a	FR1	5	R1443D
1292.436	0.445	1293803	REC_WORD_VV	0.445	n/a	<>	-999	12	[0, 0, 0]	n/a	FR1	5	R1443D
1292.881	2.883	1294248	REC_WORD	2.883	n/a	FLEA	4	12	[0, 0, 0]	n/a	FR1	5	R1443D
1295.764	1.099	1297131	REC_WORD	1.099	n/a	FLEA	4	12	[0, 0, 0]	n/a	FR1	5	R1443D
1296.863	1.0	1298230	REC_WORD_VV	1.0	n/a	<>	-999	12	[0, 0, 0]	n/a	FR1	5	R1443D
1297.863	1.758	1299230	REC_WORD_VV	1.758	n/a	<>	-999	12	[0, 0, 0]	n/a	FR1	5	R1443D
1299.621	0.664	1300988	REC_WORD	0.664	n/a	FLY	-999	12	[0, 0, 0]	n/a	FR1	5	R1443D
1300.285	1.641	1301652	REC_WORD	1.641	n/a	FLEA	4	12	[0, 0, 0]	n/a	FR1	5	R1443D
1301.926	3.387	1303293	REC_WORD	3.387	n/a	SKI	-999	12	[0, 0, 0]	n/a	FR1	5	R1443D
1305.313	1.473	1306680	REC_WORD_VV	1.473	n/a	<>	-999	12	[0, 0, 0]	n/a	FR1	5	R1443D
1306.786	7.64	1308152	REC_WORD	7.64	n/a	SOCK	-999	12	[0, 0, 0]	n/a	FR1	5	R1443D
1314.426	1.222	1315792	REC_WORD	1.222	n/a	FLEA	4	12	[0, 0, 0]	n/a	FR1	5	R1443D
1315.648	1.913	1317014	REC_WORD	1.913	n/a	FLY	-999	12	[0, 0, 0]	n/a	FR1	5	R1443D
1317.561	0.0	1318922	REC_END	n/a	n/a	n/a	-999	12	[0, 0, 0]	n/a	FR1	5	R1443D
