onset	duration	sample	trial_type	response_time	stim_file	item_name	serialpos	list	test	answer	experiment	session	subject
0.0	240.928	1531	INSTRUCT_START	n/a	n/a	n/a	-999	-999	[0, 0, 0]	n/a	FR1	0	R1323T
240.928	3.183	242448	INSTRUCT_END	n/a	n/a	n/a	-999	-999	[0, 0, 0]	n/a	FR1	0	R1323T
244.111	6.753	245631	MIC TEST_START	n/a	n/a	n/a	-999	-999	[0, 0, 0]	n/a	FR1	0	R1323T
250.864	0.009	252384	MIC TEST_END	n/a	n/a	n/a	-999	-999	[0, 0, 0]	n/a	FR1	0	R1323T
250.873	0.0	252393	TRIAL_START	n/a	n/a	n/a	-999	-1	[0, 0, 0]	n/a	FR1	0	R1323T
250.873	0.001	252393	TRIAL	n/a	n/a	n/a	-999	-1	[0, 0, 0]	n/a	FR1	0	R1323T
250.874	6.157	252394	WAITING_START	n/a	n/a	n/a	-999	-1	[0, 0, 0]	n/a	FR1	0	R1323T
257.031	0.0	258551	COUNTDOWN_START	n/a	n/a	n/a	-999	-1	[0, 0, 0]	n/a	FR1	0	R1323T
257.031	10.429	258551	WAITING_END	n/a	n/a	n/a	-999	-1	[0, 0, 0]	n/a	FR1	0	R1323T
267.46	0.0	268979	COUNTDOWN_END	n/a	n/a	n/a	-999	-1	[0, 0, 0]	n/a	FR1	0	R1323T
267.46	1.19	268979	ORIENT_START	n/a	n/a	n/a	-999	-1	[0, 0, 0]	n/a	FR1	0	R1323T
268.65	0.001	270169	ORIENT_END	n/a	n/a	n/a	-999	-1	[0, 0, 0]	n/a	FR1	0	R1323T
268.651	0.962	270170	ENCODING_START	n/a	n/a	n/a	-999	-1	[0, 0, 0]	n/a	FR1	0	R1323T
269.613	1.637	271132	WORD	n/a	n/a	COTTON	1	-1	[0, 0, 0]	n/a	FR1	0	R1323T
271.25	0.888	272769	WORD_OFF	n/a	n/a	COTTON	1	-1	[0, 0, 0]	n/a	FR1	0	R1323T
272.138	1.629	273657	WORD	n/a	n/a	CHEST	2	-1	[0, 0, 0]	n/a	FR1	0	R1323T
273.767	0.777	275286	WORD_OFF	n/a	n/a	CHEST	2	-1	[0, 0, 0]	n/a	FR1	0	R1323T
274.544	1.623	276063	WORD	n/a	n/a	WATCH	3	-1	[0, 0, 0]	n/a	FR1	0	R1323T
276.167	1.069	277686	WORD_OFF	n/a	n/a	WATCH	3	-1	[0, 0, 0]	n/a	FR1	0	R1323T
277.236	1.632	278755	WORD	n/a	n/a	CAMEL	4	-1	[0, 0, 0]	n/a	FR1	0	R1323T
278.868	0.861	280387	WORD_OFF	n/a	n/a	CAMEL	4	-1	[0, 0, 0]	n/a	FR1	0	R1323T
279.729	1.622	281248	WORD	n/a	n/a	FLOOD	5	-1	[0, 0, 0]	n/a	FR1	0	R1323T
281.351	1.136	282869	WORD_OFF	n/a	n/a	FLOOD	5	-1	[0, 0, 0]	n/a	FR1	0	R1323T
282.487	1.632	284005	WORD	n/a	n/a	BABY	6	-1	[0, 0, 0]	n/a	FR1	0	R1323T
284.119	0.803	285637	WORD_OFF	n/a	n/a	BABY	6	-1	[0, 0, 0]	n/a	FR1	0	R1323T
284.922	1.631	286440	WORD	n/a	n/a	BEAM	7	-1	[0, 0, 0]	n/a	FR1	0	R1323T
286.553	1.077	288071	WORD_OFF	n/a	n/a	BEAM	7	-1	[0, 0, 0]	n/a	FR1	0	R1323T
287.63	1.623	289148	WORD	n/a	n/a	IMAGE	8	-1	[0, 0, 0]	n/a	FR1	0	R1323T
289.253	0.976	290771	WORD_OFF	n/a	n/a	IMAGE	8	-1	[0, 0, 0]	n/a	FR1	0	R1323T
290.229	1.625	291747	WORD	n/a	n/a	WAGON	9	-1	[0, 0, 0]	n/a	FR1	0	R1323T
291.854	1.134	293372	WORD_OFF	n/a	n/a	WAGON	9	-1	[0, 0, 0]	n/a	FR1	0	R1323T
292.988	1.617	294506	WORD	n/a	n/a	RING	10	-1	[0, 0, 0]	n/a	FR1	0	R1323T
294.605	1.094	296123	WORD_OFF	n/a	n/a	RING	10	-1	[0, 0, 0]	n/a	FR1	0	R1323T
295.699	1.622	297217	WORD	n/a	n/a	RHINO	11	-1	[0, 0, 0]	n/a	FR1	0	R1323T
297.321	1.037	298839	WORD_OFF	n/a	n/a	RHINO	11	-1	[0, 0, 0]	n/a	FR1	0	R1323T
298.358	1.63	299876	WORD	n/a	n/a	TONGUE	12	-1	[0, 0, 0]	n/a	FR1	0	R1323T
299.988	0.001	301506	WORD_OFF	n/a	n/a	TONGUE	12	-1	[0, 0, 0]	n/a	FR1	0	R1323T
299.989	0.0	301507	ENCODING_END	n/a	n/a	n/a	-999	-1	[0, 0, 0]	n/a	FR1	0	R1323T
299.989	0.0	301507	DISTRACT_START	n/a	n/a	n/a	-999	-1	[0, 0, 0]	n/a	FR1	0	R1323T
299.989	0.016	301507	START	n/a	n/a	n/a	-999	-1	[-999, -999, -999]	n/a	FR1	0	R1323T
300.005	29.27	301523	PROB	29.27	n/a	n/a	-999	-1	[1, 4, 7]	12	FR1	0	R1323T
329.275	0.018	330791	STOP	n/a	n/a	n/a	-999	-1	[-999, -999, -999]	n/a	FR1	0	R1323T
329.293	0.652	330809	DISTRACT_END	n/a	n/a	n/a	-999	-1	[0, 0, 0]	n/a	FR1	0	R1323T
329.945	1.65	331461	RETRIEVAL_ORIENT_START	n/a	n/a	n/a	-999	-1	[0, 0, 0]	n/a	FR1	0	R1323T
331.595	0.0	333111	RETRIEVAL_ORIENT_END	n/a	n/a	n/a	-999	-1	[0, 0, 0]	n/a	FR1	0	R1323T
331.595	3.984	333111	REC_START	n/a	n/a	n/a	-999	-1	[0, 0, 0]	n/a	FR1	0	R1323T
335.579	0.735	337095	REC_WORD	0.735	n/a	WATCH	-999	-1	[0, 0, 0]	n/a	FR1	0	R1323T
336.314	3.323	337830	REC_WORD	3.323	n/a	COTTON	-999	-1	[0, 0, 0]	n/a	FR1	0	R1323T
339.637	1.0	341153	REC_WORD_VV	1.0	n/a	<>	-999	-1	[0, 0, 0]	n/a	FR1	0	R1323T
340.637	1.0	342153	REC_WORD_VV	1.0	n/a	<>	-999	-1	[0, 0, 0]	n/a	FR1	0	R1323T
341.637	1.002	343153	REC_WORD_VV	1.002	n/a	<>	-999	-1	[0, 0, 0]	n/a	FR1	0	R1323T
342.639	1.0	344155	REC_WORD_VV	1.0	n/a	<>	-999	-1	[0, 0, 0]	n/a	FR1	0	R1323T
343.639	1.0	345155	REC_WORD_VV	1.0	n/a	<>	-999	-1	[0, 0, 0]	n/a	FR1	0	R1323T
344.639	16.97	346155	REC_WORD_VV	16.97	n/a	<>	-999	-1	[0, 0, 0]	n/a	FR1	0	R1323T
361.609	0.0	363124	REC_END	n/a	n/a	n/a	-999	-1	[0, 0, 0]	n/a	FR1	0	R1323T
361.609	74.055	363124	PRACTICE_POST_INSTRUCT_START	n/a	n/a	n/a	-999	-1	[0, 0, 0]	n/a	FR1	0	R1323T
435.664	0.001	437176	PRACTICE_POST_INSTRUCT_END	n/a	n/a	n/a	-999	-1	[0, 0, 0]	n/a	FR1	0	R1323T
435.665	0.015	437177	TRIAL_END	n/a	n/a	n/a	-999	-1	[0, 0, 0]	n/a	FR1	0	R1323T
435.68	0.001	437192	TRIAL_START	n/a	n/a	n/a	-999	1	[0, 0, 0]	n/a	FR1	0	R1323T
435.681	0.0	437193	TRIAL	n/a	n/a	n/a	-999	1	[0, 0, 0]	n/a	FR1	0	R1323T
435.681	17.618	437193	WAITING_START	n/a	n/a	n/a	-999	1	[0, 0, 0]	n/a	FR1	0	R1323T
453.299	0.001	454810	WAITING_END	n/a	n/a	n/a	-999	1	[0, 0, 0]	n/a	FR1	0	R1323T
453.3	10.43	454811	COUNTDOWN_START	n/a	n/a	n/a	-999	1	[0, 0, 0]	n/a	FR1	0	R1323T
463.73	0.0	465240	COUNTDOWN_END	n/a	n/a	n/a	-999	1	[0, 0, 0]	n/a	FR1	0	R1323T
463.73	1.155	465240	ORIENT_START	n/a	n/a	n/a	-999	1	[0, 0, 0]	n/a	FR1	0	R1323T
464.885	0.0	466395	ORIENT_END	n/a	n/a	n/a	-999	1	[0, 0, 0]	n/a	FR1	0	R1323T
464.885	0.867	466395	ENCODING_START	n/a	n/a	n/a	-999	1	[0, 0, 0]	n/a	FR1	0	R1323T
465.752	1.633	467262	WORD	n/a	wordpools/wordpool_EN.txt	TOOTH	1	1	[0, 0, 0]	n/a	FR1	0	R1323T
467.385	0.915	468895	WORD_OFF	n/a	n/a	TOOTH	1	1	[0, 0, 0]	n/a	FR1	0	R1323T
468.3	1.636	469810	WORD	n/a	wordpools/wordpool_EN.txt	BRANCH	2	1	[0, 0, 0]	n/a	FR1	0	R1323T
469.936	0.955	471446	WORD_OFF	n/a	n/a	BRANCH	2	1	[0, 0, 0]	n/a	FR1	0	R1323T
470.891	1.613	472401	WORD	n/a	wordpools/wordpool_EN.txt	HOSE	3	1	[0, 0, 0]	n/a	FR1	0	R1323T
472.504	1.042	474014	WORD_OFF	n/a	n/a	HOSE	3	1	[0, 0, 0]	n/a	FR1	0	R1323T
473.546	1.624	475056	WORD	n/a	wordpools/wordpool_EN.txt	FOG	4	1	[0, 0, 0]	n/a	FR1	0	R1323T
475.17	1.138	476680	WORD_OFF	n/a	n/a	FOG	4	1	[0, 0, 0]	n/a	FR1	0	R1323T
476.308	1.629	477818	WORD	n/a	wordpools/wordpool_EN.txt	MOON	5	1	[0, 0, 0]	n/a	FR1	0	R1323T
477.937	0.851	479447	WORD_OFF	n/a	n/a	MOON	5	1	[0, 0, 0]	n/a	FR1	0	R1323T
478.788	1.634	480298	WORD	n/a	wordpools/wordpool_EN.txt	NET	6	1	[0, 0, 0]	n/a	FR1	0	R1323T
480.422	0.969	481932	WORD_OFF	n/a	n/a	NET	6	1	[0, 0, 0]	n/a	FR1	0	R1323T
481.391	1.63	482901	WORD	n/a	wordpools/wordpool_EN.txt	MUG	7	1	[0, 0, 0]	n/a	FR1	0	R1323T
483.021	0.92	484530	WORD_OFF	n/a	n/a	MUG	7	1	[0, 0, 0]	n/a	FR1	0	R1323T
483.941	1.632	485450	WORD	n/a	wordpools/wordpool_EN.txt	BRUSH	8	1	[0, 0, 0]	n/a	FR1	0	R1323T
485.573	1.065	487082	WORD_OFF	n/a	n/a	BRUSH	8	1	[0, 0, 0]	n/a	FR1	0	R1323T
486.638	1.634	488147	WORD	n/a	wordpools/wordpool_EN.txt	SOUP	9	1	[0, 0, 0]	n/a	FR1	0	R1323T
488.272	1.09	489781	WORD_OFF	n/a	n/a	SOUP	9	1	[0, 0, 0]	n/a	FR1	0	R1323T
489.362	1.628	490871	WORD	n/a	wordpools/wordpool_EN.txt	TRASH	10	1	[0, 0, 0]	n/a	FR1	0	R1323T
490.99	1.0	492499	WORD_OFF	n/a	n/a	TRASH	10	1	[0, 0, 0]	n/a	FR1	0	R1323T
491.99	1.617	493499	WORD	n/a	wordpools/wordpool_EN.txt	LAND	11	1	[0, 0, 0]	n/a	FR1	0	R1323T
493.607	0.905	495116	WORD_OFF	n/a	n/a	LAND	11	1	[0, 0, 0]	n/a	FR1	0	R1323T
494.512	1.628	496021	WORD	n/a	wordpools/wordpool_EN.txt	BOAT	12	1	[0, 0, 0]	n/a	FR1	0	R1323T
496.14	0.001	497649	WORD_OFF	n/a	n/a	BOAT	12	1	[0, 0, 0]	n/a	FR1	0	R1323T
496.141	0.0	497650	ENCODING_END	n/a	n/a	n/a	-999	1	[0, 0, 0]	n/a	FR1	0	R1323T
496.141	0.001	497650	DISTRACT_START	n/a	n/a	n/a	-999	1	[0, 0, 0]	n/a	FR1	0	R1323T
496.142	0.015	497651	START	n/a	n/a	n/a	-999	1	[-999, -999, -999]	n/a	FR1	0	R1323T
496.157	6.302	497666	PROB	6.302	n/a	n/a	-999	1	[1, 9, 1]	11	FR1	0	R1323T
502.459	9.717	503968	PROB	9.717	n/a	n/a	-999	1	[2, 8, 6]	16	FR1	0	R1323T
512.176	8.246	513684	PROB	8.246	n/a	n/a	-999	1	[7, 2, 4]	13	FR1	0	R1323T
520.422	0.007	521930	STOP	n/a	n/a	n/a	-999	1	[-999, -999, -999]	n/a	FR1	0	R1323T
520.429	0.511	521937	DISTRACT_END	n/a	n/a	n/a	-999	1	[0, 0, 0]	n/a	FR1	0	R1323T
520.94	1.723	522448	RETRIEVAL_ORIENT_START	n/a	n/a	n/a	-999	1	[0, 0, 0]	n/a	FR1	0	R1323T
522.663	0.0	524171	REC_START	n/a	n/a	n/a	-999	1	[0, 0, 0]	n/a	FR1	0	R1323T
522.663	0.407	524171	RETRIEVAL_ORIENT_END	n/a	n/a	n/a	-999	1	[0, 0, 0]	n/a	FR1	0	R1323T
523.07	1.748	524578	REC_WORD_VV	1.748	n/a	<>	-999	1	[0, 0, 0]	n/a	FR1	0	R1323T
524.818	0.76	526326	REC_WORD	0.76	n/a	TOOTH	1	1	[0, 0, 0]	n/a	FR1	0	R1323T
525.578	0.704	527086	REC_WORD	0.704	n/a	BRANCH	2	1	[0, 0, 0]	n/a	FR1	0	R1323T
526.282	0.933	527790	REC_WORD	0.933	n/a	MOON	5	1	[0, 0, 0]	n/a	FR1	0	R1323T
527.215	25.46	528723	REC_WORD	25.46	n/a	LAND	11	1	[0, 0, 0]	n/a	FR1	0	R1323T
552.675	0.0	554181	REC_END	n/a	n/a	n/a	-999	1	[0, 0, 0]	n/a	FR1	0	R1323T
552.675	0.014	554181	TRIAL_END	n/a	n/a	n/a	-999	1	[0, 0, 0]	n/a	FR1	0	R1323T
552.689	0.0	554195	TRIAL	n/a	n/a	n/a	-999	2	[0, 0, 0]	n/a	FR1	0	R1323T
552.689	0.001	554195	TRIAL_START	n/a	n/a	n/a	-999	2	[0, 0, 0]	n/a	FR1	0	R1323T
552.69	22.933	554196	WAITING_START	n/a	n/a	n/a	-999	2	[0, 0, 0]	n/a	FR1	0	R1323T
575.623	0.0	577128	WAITING_END	n/a	n/a	n/a	-999	2	[0, 0, 0]	n/a	FR1	0	R1323T
575.623	10.429	577128	COUNTDOWN_START	n/a	n/a	n/a	-999	2	[0, 0, 0]	n/a	FR1	0	R1323T
586.052	0.0	587557	COUNTDOWN_END	n/a	n/a	n/a	-999	2	[0, 0, 0]	n/a	FR1	0	R1323T
586.052	1.138	587557	ORIENT_START	n/a	n/a	n/a	-999	2	[0, 0, 0]	n/a	FR1	0	R1323T
587.19	0.001	588695	ORIENT_END	n/a	n/a	n/a	-999	2	[0, 0, 0]	n/a	FR1	0	R1323T
587.191	1.057	588696	ENCODING_START	n/a	n/a	n/a	-999	2	[0, 0, 0]	n/a	FR1	0	R1323T
588.248	1.626	589753	WORD	n/a	wordpools/wordpool_EN.txt	GOAT	1	2	[0, 0, 0]	n/a	FR1	0	R1323T
589.874	0.886	591379	WORD_OFF	n/a	n/a	GOAT	1	2	[0, 0, 0]	n/a	FR1	0	R1323T
590.76	1.631	592265	WORD	n/a	wordpools/wordpool_EN.txt	STORM	2	2	[0, 0, 0]	n/a	FR1	0	R1323T
592.391	0.789	593896	WORD_OFF	n/a	n/a	STORM	2	2	[0, 0, 0]	n/a	FR1	0	R1323T
593.18	1.628	594685	WORD	n/a	wordpools/wordpool_EN.txt	HORN	3	2	[0, 0, 0]	n/a	FR1	0	R1323T
594.808	1.122	596313	WORD_OFF	n/a	n/a	HORN	3	2	[0, 0, 0]	n/a	FR1	0	R1323T
595.93	1.613	597434	WORD	n/a	wordpools/wordpool_EN.txt	WORM	4	2	[0, 0, 0]	n/a	FR1	0	R1323T
597.543	0.946	599047	WORD_OFF	n/a	n/a	WORM	4	2	[0, 0, 0]	n/a	FR1	0	R1323T
598.489	1.62	599993	WORD	n/a	wordpools/wordpool_EN.txt	GLOVE	5	2	[0, 0, 0]	n/a	FR1	0	R1323T
600.109	0.774	601613	WORD_OFF	n/a	n/a	GLOVE	5	2	[0, 0, 0]	n/a	FR1	0	R1323T
600.883	1.628	602387	WORD	n/a	wordpools/wordpool_EN.txt	FORK	6	2	[0, 0, 0]	n/a	FR1	0	R1323T
602.511	1.013	604015	WORD_OFF	n/a	n/a	FORK	6	2	[0, 0, 0]	n/a	FR1	0	R1323T
603.524	1.636	605028	WORD	n/a	wordpools/wordpool_EN.txt	STAIR	7	2	[0, 0, 0]	n/a	FR1	0	R1323T
605.16	1.085	606664	WORD_OFF	n/a	n/a	STAIR	7	2	[0, 0, 0]	n/a	FR1	0	R1323T
606.245	1.632	607749	WORD	n/a	wordpools/wordpool_EN.txt	KITE	8	2	[0, 0, 0]	n/a	FR1	0	R1323T
607.877	0.962	609381	WORD_OFF	n/a	n/a	KITE	8	2	[0, 0, 0]	n/a	FR1	0	R1323T
608.839	1.64	610343	WORD	n/a	wordpools/wordpool_EN.txt	DRUM	9	2	[0, 0, 0]	n/a	FR1	0	R1323T
610.479	1.066	611983	WORD_OFF	n/a	n/a	DRUM	9	2	[0, 0, 0]	n/a	FR1	0	R1323T
611.545	1.633	613049	WORD	n/a	wordpools/wordpool_EN.txt	HOOF	10	2	[0, 0, 0]	n/a	FR1	0	R1323T
613.178	0.846	614682	WORD_OFF	n/a	n/a	HOOF	10	2	[0, 0, 0]	n/a	FR1	0	R1323T
614.024	1.639	615528	WORD	n/a	wordpools/wordpool_EN.txt	CORN	11	2	[0, 0, 0]	n/a	FR1	0	R1323T
615.663	0.951	617167	WORD_OFF	n/a	n/a	CORN	11	2	[0, 0, 0]	n/a	FR1	0	R1323T
616.614	1.632	618118	WORD	n/a	wordpools/wordpool_EN.txt	FORT	12	2	[0, 0, 0]	n/a	FR1	0	R1323T
618.246	0.0	619749	WORD_OFF	n/a	n/a	FORT	12	2	[0, 0, 0]	n/a	FR1	0	R1323T
618.246	0.0	619749	ENCODING_END	n/a	n/a	n/a	-999	2	[0, 0, 0]	n/a	FR1	0	R1323T
618.246	0.001	619749	DISTRACT_START	n/a	n/a	n/a	-999	2	[0, 0, 0]	n/a	FR1	0	R1323T
618.247	0.015	619750	START	n/a	n/a	n/a	-999	2	[-999, -999, -999]	n/a	FR1	0	R1323T
618.262	11.019	619765	PROB	11.019	n/a	n/a	-999	2	[5, 6, 2]	13	FR1	0	R1323T
629.281	8.768	630784	PROB	8.768	n/a	n/a	-999	2	[8, 3, 3]	14	FR1	0	R1323T
638.049	14.673	639552	PROB	14.673	n/a	n/a	-999	2	[5, 4, 7]	16	FR1	0	R1323T
652.722	0.015	654224	STOP	n/a	n/a	n/a	-999	2	[-999, -999, -999]	n/a	FR1	0	R1323T
652.737	0.57	654239	DISTRACT_END	n/a	n/a	n/a	-999	2	[0, 0, 0]	n/a	FR1	0	R1323T
653.307	1.612	654809	RETRIEVAL_ORIENT_START	n/a	n/a	n/a	-999	2	[0, 0, 0]	n/a	FR1	0	R1323T
654.919	0.0	656421	RETRIEVAL_ORIENT_END	n/a	n/a	n/a	-999	2	[0, 0, 0]	n/a	FR1	0	R1323T
654.919	0.741	656421	REC_START	n/a	n/a	n/a	-999	2	[0, 0, 0]	n/a	FR1	0	R1323T
655.66	0.876	657162	REC_WORD	0.876	n/a	GOAT	1	2	[0, 0, 0]	n/a	FR1	0	R1323T
656.536	1.027	658038	REC_WORD	1.027	n/a	WORM	4	2	[0, 0, 0]	n/a	FR1	0	R1323T
657.563	1.0	659065	REC_WORD	1.0	n/a	CHEESE	-999	2	[0, 0, 0]	n/a	FR1	0	R1323T
658.563	1.129	660065	REC_WORD_VV	1.129	n/a	<>	-999	2	[0, 0, 0]	n/a	FR1	0	R1323T
659.692	1.0	661194	REC_WORD_VV	1.0	n/a	<>	-999	2	[0, 0, 0]	n/a	FR1	0	R1323T
660.692	1.046	662194	REC_WORD_VV	1.046	n/a	<>	-999	2	[0, 0, 0]	n/a	FR1	0	R1323T
661.738	0.641	663240	REC_WORD	0.641	n/a	STORM	2	2	[0, 0, 0]	n/a	FR1	0	R1323T
662.379	2.186	663881	REC_WORD_VV	2.186	n/a	<>	-999	2	[0, 0, 0]	n/a	FR1	0	R1323T
664.565	5.256	666066	REC_WORD_VV	5.256	n/a	<>	-999	2	[0, 0, 0]	n/a	FR1	0	R1323T
669.821	0.541	671322	REC_WORD	0.541	n/a	WORM	4	2	[0, 0, 0]	n/a	FR1	0	R1323T
670.362	3.439	671863	REC_WORD_VV	3.439	n/a	<>	-999	2	[0, 0, 0]	n/a	FR1	0	R1323T
673.801	7.979	675302	REC_WORD_VV	7.979	n/a	<>	-999	2	[0, 0, 0]	n/a	FR1	0	R1323T
681.78	3.151	683281	REC_WORD_VV	3.151	n/a	<>	-999	2	[0, 0, 0]	n/a	FR1	0	R1323T
684.931	0.0	686432	REC_END	n/a	n/a	n/a	-999	2	[0, 0, 0]	n/a	FR1	0	R1323T
684.931	0.014	686432	TRIAL_END	n/a	n/a	n/a	-999	2	[0, 0, 0]	n/a	FR1	0	R1323T
684.945	0.001	686446	TRIAL_START	n/a	n/a	n/a	-999	3	[0, 0, 0]	n/a	FR1	0	R1323T
684.946	0.0	686447	TRIAL	n/a	n/a	n/a	-999	3	[0, 0, 0]	n/a	FR1	0	R1323T
684.946	13.398	686447	WAITING_START	n/a	n/a	n/a	-999	3	[0, 0, 0]	n/a	FR1	0	R1323T
698.344	0.0	699844	COUNTDOWN_START	n/a	n/a	n/a	-999	3	[0, 0, 0]	n/a	FR1	0	R1323T
698.344	10.43	699844	WAITING_END	n/a	n/a	n/a	-999	3	[0, 0, 0]	n/a	FR1	0	R1323T
708.774	0.0	710273	COUNTDOWN_END	n/a	n/a	n/a	-999	3	[0, 0, 0]	n/a	FR1	0	R1323T
708.774	1.039	710273	ORIENT_START	n/a	n/a	n/a	-999	3	[0, 0, 0]	n/a	FR1	0	R1323T
709.813	0.0	711312	ORIENT_END	n/a	n/a	n/a	-999	3	[0, 0, 0]	n/a	FR1	0	R1323T
709.813	0.952	711312	ENCODING_START	n/a	n/a	n/a	-999	3	[0, 0, 0]	n/a	FR1	0	R1323T
710.765	1.631	712264	WORD	n/a	wordpools/wordpool_EN.txt	FROG	1	3	[0, 0, 0]	n/a	FR1	0	R1323T
712.396	0.886	713895	WORD_OFF	n/a	n/a	FROG	1	3	[0, 0, 0]	n/a	FR1	0	R1323T
713.282	1.632	714781	WORD	n/a	wordpools/wordpool_EN.txt	SWORD	2	3	[0, 0, 0]	n/a	FR1	0	R1323T
714.914	0.805	716413	WORD_OFF	n/a	n/a	SWORD	2	3	[0, 0, 0]	n/a	FR1	0	R1323T
715.719	1.628	717218	WORD	n/a	wordpools/wordpool_EN.txt	CLOCK	3	3	[0, 0, 0]	n/a	FR1	0	R1323T
717.347	0.75	718846	WORD_OFF	n/a	n/a	CLOCK	3	3	[0, 0, 0]	n/a	FR1	0	R1323T
718.097	1.635	719596	WORD	n/a	wordpools/wordpool_EN.txt	CAPE	4	3	[0, 0, 0]	n/a	FR1	0	R1323T
719.732	1.015	721231	WORD_OFF	n/a	n/a	CAPE	4	3	[0, 0, 0]	n/a	FR1	0	R1323T
720.747	1.634	722246	WORD	n/a	wordpools/wordpool_EN.txt	BED	5	3	[0, 0, 0]	n/a	FR1	0	R1323T
722.381	1.043	723880	WORD_OFF	n/a	n/a	BED	5	3	[0, 0, 0]	n/a	FR1	0	R1323T
723.424	1.625	724923	WORD	n/a	wordpools/wordpool_EN.txt	TREE	6	3	[0, 0, 0]	n/a	FR1	0	R1323T
725.049	1.078	726548	WORD_OFF	n/a	n/a	TREE	6	3	[0, 0, 0]	n/a	FR1	0	R1323T
726.127	1.606	727626	WORD	n/a	wordpools/wordpool_EN.txt	GUARD	7	3	[0, 0, 0]	n/a	FR1	0	R1323T
727.733	0.917	729232	WORD_OFF	n/a	n/a	GUARD	7	3	[0, 0, 0]	n/a	FR1	0	R1323T
728.65	1.633	730149	WORD	n/a	wordpools/wordpool_EN.txt	CRANE	8	3	[0, 0, 0]	n/a	FR1	0	R1323T
730.283	0.911	731781	WORD_OFF	n/a	n/a	CRANE	8	3	[0, 0, 0]	n/a	FR1	0	R1323T
731.194	1.623	732692	WORD	n/a	wordpools/wordpool_EN.txt	INK	9	3	[0, 0, 0]	n/a	FR1	0	R1323T
732.817	0.938	734315	WORD_OFF	n/a	n/a	INK	9	3	[0, 0, 0]	n/a	FR1	0	R1323T
733.755	1.629	735253	WORD	n/a	wordpools/wordpool_EN.txt	PARK	10	3	[0, 0, 0]	n/a	FR1	0	R1323T
735.384	0.848	736882	WORD_OFF	n/a	n/a	PARK	10	3	[0, 0, 0]	n/a	FR1	0	R1323T
736.232	1.635	737730	WORD	n/a	wordpools/wordpool_EN.txt	WORLD	11	3	[0, 0, 0]	n/a	FR1	0	R1323T
737.867	1.149	739365	WORD_OFF	n/a	n/a	WORLD	11	3	[0, 0, 0]	n/a	FR1	0	R1323T
739.016	1.636	740514	WORD	n/a	wordpools/wordpool_EN.txt	FILM	12	3	[0, 0, 0]	n/a	FR1	0	R1323T
740.652	0.001	742150	WORD_OFF	n/a	n/a	FILM	12	3	[0, 0, 0]	n/a	FR1	0	R1323T
740.653	0.0	742151	DISTRACT_START	n/a	n/a	n/a	-999	3	[0, 0, 0]	n/a	FR1	0	R1323T
740.653	0.0	742151	ENCODING_END	n/a	n/a	n/a	-999	3	[0, 0, 0]	n/a	FR1	0	R1323T
740.653	0.016	742151	START	n/a	n/a	n/a	-999	3	[-999, -999, -999]	n/a	FR1	0	R1323T
740.669	10.234	742167	PROB	10.234	n/a	n/a	-999	3	[4, 9, 7]	20	FR1	0	R1323T
750.903	23.646	752401	PROB	23.646	n/a	n/a	-999	3	[7, 8, 7]	21	FR1	0	R1323T
774.549	0.01	776046	STOP	n/a	n/a	n/a	-999	3	[-999, -999, -999]	n/a	FR1	0	R1323T
774.559	0.614	776056	DISTRACT_END	n/a	n/a	n/a	-999	3	[0, 0, 0]	n/a	FR1	0	R1323T
775.173	1.569	776669	RETRIEVAL_ORIENT_START	n/a	n/a	n/a	-999	3	[0, 0, 0]	n/a	FR1	0	R1323T
776.742	0.001	778238	RETRIEVAL_ORIENT_END	n/a	n/a	n/a	-999	3	[0, 0, 0]	n/a	FR1	0	R1323T
776.743	2.369	778239	REC_START	n/a	n/a	n/a	-999	3	[0, 0, 0]	n/a	FR1	0	R1323T
779.112	3.026	780608	REC_WORD_VV	3.026	n/a	<>	-999	3	[0, 0, 0]	n/a	FR1	0	R1323T
782.138	10.425	783634	REC_WORD_VV	10.425	n/a	<>	-999	3	[0, 0, 0]	n/a	FR1	0	R1323T
792.563	3.579	794059	REC_WORD	3.579	n/a	FOG	-999	3	[0, 0, 0]	n/a	FR1	0	R1323T
796.142	4.383	797638	REC_WORD_VV	4.383	n/a	<>	-999	3	[0, 0, 0]	n/a	FR1	0	R1323T
800.525	6.229	802020	REC_WORD	6.229	n/a	TREE	6	3	[0, 0, 0]	n/a	FR1	0	R1323T
806.754	0.001	808249	REC_END	n/a	n/a	n/a	-999	3	[0, 0, 0]	n/a	FR1	0	R1323T
806.755	0.013	808250	TRIAL_END	n/a	n/a	n/a	-999	3	[0, 0, 0]	n/a	FR1	0	R1323T
806.768	0.0	808263	TRIAL_START	n/a	n/a	n/a	-999	4	[0, 0, 0]	n/a	FR1	0	R1323T
806.768	0.0	808263	TRIAL	n/a	n/a	n/a	-999	4	[0, 0, 0]	n/a	FR1	0	R1323T
806.768	29.652	808263	WAITING_START	n/a	n/a	n/a	-999	4	[0, 0, 0]	n/a	FR1	0	R1323T
836.42	0.0	837914	WAITING_END	n/a	n/a	n/a	-999	4	[0, 0, 0]	n/a	FR1	0	R1323T
836.42	10.429	837914	COUNTDOWN_START	n/a	n/a	n/a	-999	4	[0, 0, 0]	n/a	FR1	0	R1323T
846.849	0.0	848342	ORIENT_START	n/a	n/a	n/a	-999	4	[0, 0, 0]	n/a	FR1	0	R1323T
846.849	1.255	848342	COUNTDOWN_END	n/a	n/a	n/a	-999	4	[0, 0, 0]	n/a	FR1	0	R1323T
848.104	0.001	849597	ORIENT_END	n/a	n/a	n/a	-999	4	[0, 0, 0]	n/a	FR1	0	R1323T
848.105	1.066	849598	ENCODING_START	n/a	n/a	n/a	-999	4	[0, 0, 0]	n/a	FR1	0	R1323T
849.171	1.634	850664	WORD	n/a	wordpools/wordpool_EN.txt	SLIME	1	4	[0, 0, 0]	n/a	FR1	0	R1323T
850.805	1.07	852298	WORD_OFF	n/a	n/a	SLIME	1	4	[0, 0, 0]	n/a	FR1	0	R1323T
851.875	1.631	853368	WORD	n/a	wordpools/wordpool_EN.txt	BADGE	2	4	[0, 0, 0]	n/a	FR1	0	R1323T
853.506	1.117	854999	WORD_OFF	n/a	n/a	BADGE	2	4	[0, 0, 0]	n/a	FR1	0	R1323T
854.623	1.633	856116	WORD	n/a	wordpools/wordpool_EN.txt	FUDGE	3	4	[0, 0, 0]	n/a	FR1	0	R1323T
856.256	0.858	857749	WORD_OFF	n/a	n/a	FUDGE	3	4	[0, 0, 0]	n/a	FR1	0	R1323T
857.114	1.61	858607	WORD	n/a	wordpools/wordpool_EN.txt	PEARL	4	4	[0, 0, 0]	n/a	FR1	0	R1323T
858.724	1.013	860217	WORD_OFF	n/a	n/a	PEARL	4	4	[0, 0, 0]	n/a	FR1	0	R1323T
859.737	1.636	861230	WORD	n/a	wordpools/wordpool_EN.txt	BAT	5	4	[0, 0, 0]	n/a	FR1	0	R1323T
861.373	1.055	862866	WORD_OFF	n/a	n/a	BAT	5	4	[0, 0, 0]	n/a	FR1	0	R1323T
862.428	1.629	863921	WORD	n/a	wordpools/wordpool_EN.txt	FLAME	6	4	[0, 0, 0]	n/a	FR1	0	R1323T
864.057	1.03	865550	WORD_OFF	n/a	n/a	FLAME	6	4	[0, 0, 0]	n/a	FR1	0	R1323T
865.087	1.622	866579	WORD	n/a	wordpools/wordpool_EN.txt	ROCK	7	4	[0, 0, 0]	n/a	FR1	0	R1323T
866.709	0.753	868201	WORD_OFF	n/a	n/a	ROCK	7	4	[0, 0, 0]	n/a	FR1	0	R1323T
867.462	1.629	868954	WORD	n/a	wordpools/wordpool_EN.txt	MILK	8	4	[0, 0, 0]	n/a	FR1	0	R1323T
869.091	0.972	870583	WORD_OFF	n/a	n/a	MILK	8	4	[0, 0, 0]	n/a	FR1	0	R1323T
870.063	1.63	871555	WORD	n/a	wordpools/wordpool_EN.txt	COW	9	4	[0, 0, 0]	n/a	FR1	0	R1323T
871.693	1.148	873185	WORD_OFF	n/a	n/a	COW	9	4	[0, 0, 0]	n/a	FR1	0	R1323T
872.841	1.636	874333	WORD	n/a	wordpools/wordpool_EN.txt	TRAIN	10	4	[0, 0, 0]	n/a	FR1	0	R1323T
874.477	1.111	875969	WORD_OFF	n/a	n/a	TRAIN	10	4	[0, 0, 0]	n/a	FR1	0	R1323T
875.588	1.622	877080	WORD	n/a	wordpools/wordpool_EN.txt	POLE	11	4	[0, 0, 0]	n/a	FR1	0	R1323T
877.21	1.12	878702	WORD_OFF	n/a	n/a	POLE	11	4	[0, 0, 0]	n/a	FR1	0	R1323T
878.33	1.63	879822	WORD	n/a	wordpools/wordpool_EN.txt	CAGE	12	4	[0, 0, 0]	n/a	FR1	0	R1323T
879.96	0.001	881452	WORD_OFF	n/a	n/a	CAGE	12	4	[0, 0, 0]	n/a	FR1	0	R1323T
879.961	0.0	881453	DISTRACT_START	n/a	n/a	n/a	-999	4	[0, 0, 0]	n/a	FR1	0	R1323T
879.961	0.0	881453	ENCODING_END	n/a	n/a	n/a	-999	4	[0, 0, 0]	n/a	FR1	0	R1323T
879.961	0.015	881453	START	n/a	n/a	n/a	-999	4	[-999, -999, -999]	n/a	FR1	0	R1323T
879.976	9.002	881468	PROB	9.002	n/a	n/a	-999	4	[5, 8, 8]	21	FR1	0	R1323T
888.978	8.852	890469	PROB	8.852	n/a	n/a	-999	4	[2, 5, 6]	13	FR1	0	R1323T
897.83	4.964	899321	PROB	4.964	n/a	n/a	-999	4	[1, 6, 4]	11	FR1	0	R1323T
902.794	0.02	904285	STOP	n/a	n/a	n/a	-999	4	[-999, -999, -999]	n/a	FR1	0	R1323T
902.814	0.526	904305	DISTRACT_END	n/a	n/a	n/a	-999	4	[0, 0, 0]	n/a	FR1	0	R1323T
903.34	1.608	904831	RETRIEVAL_ORIENT_START	n/a	n/a	n/a	-999	4	[0, 0, 0]	n/a	FR1	0	R1323T
904.948	0.0	906439	RETRIEVAL_ORIENT_END	n/a	n/a	n/a	-999	4	[0, 0, 0]	n/a	FR1	0	R1323T
904.948	1.28	906439	REC_START	n/a	n/a	n/a	-999	4	[0, 0, 0]	n/a	FR1	0	R1323T
906.228	0.931	907719	REC_WORD	0.931	n/a	BADGE	2	4	[0, 0, 0]	n/a	FR1	0	R1323T
907.159	2.747	908650	REC_WORD	2.747	n/a	FUDGE	3	4	[0, 0, 0]	n/a	FR1	0	R1323T
909.906	4.008	911396	REC_WORD	4.008	n/a	PEARL	4	4	[0, 0, 0]	n/a	FR1	0	R1323T
913.914	2.056	915404	REC_WORD	2.056	n/a	COW	9	4	[0, 0, 0]	n/a	FR1	0	R1323T
915.97	9.162	917460	REC_WORD	9.162	n/a	MILK	8	4	[0, 0, 0]	n/a	FR1	0	R1323T
925.132	9.827	926622	REC_WORD_VV	9.827	n/a	<>	-999	4	[0, 0, 0]	n/a	FR1	0	R1323T
934.959	0.001	936448	REC_END	n/a	n/a	n/a	-999	4	[0, 0, 0]	n/a	FR1	0	R1323T
934.96	0.014	936449	TRIAL_END	n/a	n/a	n/a	-999	4	[0, 0, 0]	n/a	FR1	0	R1323T
934.974	0.0	936463	TRIAL_START	n/a	n/a	n/a	-999	5	[0, 0, 0]	n/a	FR1	0	R1323T
934.974	0.0	936463	TRIAL	n/a	n/a	n/a	-999	5	[0, 0, 0]	n/a	FR1	0	R1323T
934.974	4.063	936463	WAITING_START	n/a	n/a	n/a	-999	5	[0, 0, 0]	n/a	FR1	0	R1323T
939.037	0.001	940526	WAITING_END	n/a	n/a	n/a	-999	5	[0, 0, 0]	n/a	FR1	0	R1323T
939.038	10.429	940527	COUNTDOWN_START	n/a	n/a	n/a	-999	5	[0, 0, 0]	n/a	FR1	0	R1323T
949.467	0.0	950956	ORIENT_START	n/a	n/a	n/a	-999	5	[0, 0, 0]	n/a	FR1	0	R1323T
949.467	1.207	950956	COUNTDOWN_END	n/a	n/a	n/a	-999	5	[0, 0, 0]	n/a	FR1	0	R1323T
950.674	0.0	952163	ORIENT_END	n/a	n/a	n/a	-999	5	[0, 0, 0]	n/a	FR1	0	R1323T
950.674	1.088	952163	ENCODING_START	n/a	n/a	n/a	-999	5	[0, 0, 0]	n/a	FR1	0	R1323T
951.762	1.628	953251	WORD	n/a	wordpools/wordpool_EN.txt	SEA	1	5	[0, 0, 0]	n/a	FR1	0	R1323T
953.39	0.993	954879	WORD_OFF	n/a	n/a	SEA	1	5	[0, 0, 0]	n/a	FR1	0	R1323T
954.383	1.624	955872	WORD	n/a	wordpools/wordpool_EN.txt	EGG	2	5	[0, 0, 0]	n/a	FR1	0	R1323T
956.007	1.052	957495	WORD_OFF	n/a	n/a	EGG	2	5	[0, 0, 0]	n/a	FR1	0	R1323T
957.059	1.616	958547	WORD	n/a	wordpools/wordpool_EN.txt	MOUTH	3	5	[0, 0, 0]	n/a	FR1	0	R1323T
958.675	0.819	960163	WORD_OFF	n/a	n/a	MOUTH	3	5	[0, 0, 0]	n/a	FR1	0	R1323T
959.494	1.631	960982	WORD	n/a	wordpools/wordpool_EN.txt	JUDGE	4	5	[0, 0, 0]	n/a	FR1	0	R1323T
961.125	0.799	962613	WORD_OFF	n/a	n/a	JUDGE	4	5	[0, 0, 0]	n/a	FR1	0	R1323T
961.924	1.619	963412	WORD	n/a	wordpools/wordpool_EN.txt	MOTH	5	5	[0, 0, 0]	n/a	FR1	0	R1323T
963.543	0.868	965031	WORD_OFF	n/a	n/a	MOTH	5	5	[0, 0, 0]	n/a	FR1	0	R1323T
964.411	1.631	965899	WORD	n/a	wordpools/wordpool_EN.txt	STREET	6	5	[0, 0, 0]	n/a	FR1	0	R1323T
966.042	1.088	967530	WORD_OFF	n/a	n/a	STREET	6	5	[0, 0, 0]	n/a	FR1	0	R1323T
967.13	1.63	968618	WORD	n/a	wordpools/wordpool_EN.txt	OAK	7	5	[0, 0, 0]	n/a	FR1	0	R1323T
968.76	0.881	970248	WORD_OFF	n/a	n/a	OAK	7	5	[0, 0, 0]	n/a	FR1	0	R1323T
969.641	1.636	971129	WORD	n/a	wordpools/wordpool_EN.txt	MULE	8	5	[0, 0, 0]	n/a	FR1	0	R1323T
971.277	0.962	972765	WORD_OFF	n/a	n/a	MULE	8	5	[0, 0, 0]	n/a	FR1	0	R1323T
972.239	1.638	973727	WORD	n/a	wordpools/wordpool_EN.txt	JEEP	9	5	[0, 0, 0]	n/a	FR1	0	R1323T
973.877	1.012	975365	WORD_OFF	n/a	n/a	JEEP	9	5	[0, 0, 0]	n/a	FR1	0	R1323T
974.889	1.623	976377	WORD	n/a	wordpools/wordpool_EN.txt	EEL	10	5	[0, 0, 0]	n/a	FR1	0	R1323T
976.512	0.902	978000	WORD_OFF	n/a	n/a	EEL	10	5	[0, 0, 0]	n/a	FR1	0	R1323T
977.414	1.631	978901	WORD	n/a	wordpools/wordpool_EN.txt	SNOW	11	5	[0, 0, 0]	n/a	FR1	0	R1323T
979.045	0.802	980532	WORD_OFF	n/a	n/a	SNOW	11	5	[0, 0, 0]	n/a	FR1	0	R1323T
979.847	1.632	981334	WORD	n/a	wordpools/wordpool_EN.txt	FARM	12	5	[0, 0, 0]	n/a	FR1	0	R1323T
981.479	0.001	982966	WORD_OFF	n/a	n/a	FARM	12	5	[0, 0, 0]	n/a	FR1	0	R1323T
981.48	0.0	982967	ENCODING_END	n/a	n/a	n/a	-999	5	[0, 0, 0]	n/a	FR1	0	R1323T
981.48	0.001	982967	DISTRACT_START	n/a	n/a	n/a	-999	5	[0, 0, 0]	n/a	FR1	0	R1323T
981.481	0.015	982968	START	n/a	n/a	n/a	-999	5	[-999, -999, -999]	n/a	FR1	0	R1323T
981.496	8.4	982983	PROB	8.4	n/a	n/a	-999	5	[5, 2, 4]	11	FR1	0	R1323T
989.896	9.586	991383	PROB	9.586	n/a	n/a	-999	5	[4, 2, 5]	11	FR1	0	R1323T
999.482	9.165	1000969	PROB	9.165	n/a	n/a	-999	5	[6, 7, 3]	16	FR1	0	R1323T
1008.647	0.021	1010133	STOP	n/a	n/a	n/a	-999	5	[-999, -999, -999]	n/a	FR1	0	R1323T
1008.668	0.562	1010154	DISTRACT_END	n/a	n/a	n/a	-999	5	[0, 0, 0]	n/a	FR1	0	R1323T
1009.23	1.62	1010716	RETRIEVAL_ORIENT_START	n/a	n/a	n/a	-999	5	[0, 0, 0]	n/a	FR1	0	R1323T
1010.85	0.001	1012336	RETRIEVAL_ORIENT_END	n/a	n/a	n/a	-999	5	[0, 0, 0]	n/a	FR1	0	R1323T
1010.851	1.635	1012337	REC_START	n/a	n/a	n/a	-999	5	[0, 0, 0]	n/a	FR1	0	R1323T
1012.486	1.272	1013972	REC_WORD_VV	1.272	n/a	<>	-999	5	[0, 0, 0]	n/a	FR1	0	R1323T
1013.758	0.725	1015244	REC_WORD	0.725	n/a	MOUTH	3	5	[0, 0, 0]	n/a	FR1	0	R1323T
1014.483	0.796	1015969	REC_WORD	0.796	n/a	EGG	2	5	[0, 0, 0]	n/a	FR1	0	R1323T
1015.279	5.273	1016765	REC_WORD	5.273	n/a	MULE	8	5	[0, 0, 0]	n/a	FR1	0	R1323T
1020.552	3.668	1022038	REC_WORD	3.668	n/a	SEA	1	5	[0, 0, 0]	n/a	FR1	0	R1323T
1024.22	7.84	1025705	REC_WORD_VV	7.84	n/a	<>	-999	5	[0, 0, 0]	n/a	FR1	0	R1323T
1032.06	8.803	1033545	REC_WORD	8.803	n/a	WOLF	-999	5	[0, 0, 0]	n/a	FR1	0	R1323T
1040.863	0.0	1042348	REC_END	n/a	n/a	n/a	-999	5	[0, 0, 0]	n/a	FR1	0	R1323T
1040.863	0.016	1042348	TRIAL_END	n/a	n/a	n/a	-999	5	[0, 0, 0]	n/a	FR1	0	R1323T
1040.879	0.0	1042364	TRIAL_START	n/a	n/a	n/a	-999	6	[0, 0, 0]	n/a	FR1	0	R1323T
1040.879	0.0	1042364	TRIAL	n/a	n/a	n/a	-999	6	[0, 0, 0]	n/a	FR1	0	R1323T
1040.879	3.862	1042364	WAITING_START	n/a	n/a	n/a	-999	6	[0, 0, 0]	n/a	FR1	0	R1323T
1044.741	0.0	1046225	WAITING_END	n/a	n/a	n/a	-999	6	[0, 0, 0]	n/a	FR1	0	R1323T
1044.741	10.429	1046225	COUNTDOWN_START	n/a	n/a	n/a	-999	6	[0, 0, 0]	n/a	FR1	0	R1323T
1055.17	0.0	1056654	ORIENT_START	n/a	n/a	n/a	-999	6	[0, 0, 0]	n/a	FR1	0	R1323T
1055.17	1.072	1056654	COUNTDOWN_END	n/a	n/a	n/a	-999	6	[0, 0, 0]	n/a	FR1	0	R1323T
1056.242	0.0	1057726	ORIENT_END	n/a	n/a	n/a	-999	6	[0, 0, 0]	n/a	FR1	0	R1323T
1056.242	0.921	1057726	ENCODING_START	n/a	n/a	n/a	-999	6	[0, 0, 0]	n/a	FR1	0	R1323T
1057.163	1.629	1058647	WORD	n/a	wordpools/wordpool_EN.txt	CHAIR	1	6	[0, 0, 0]	n/a	FR1	0	R1323T
1058.792	0.897	1060276	WORD_OFF	n/a	n/a	CHAIR	1	6	[0, 0, 0]	n/a	FR1	0	R1323T
1059.689	1.621	1061173	WORD	n/a	wordpools/wordpool_EN.txt	FLEA	2	6	[0, 0, 0]	n/a	FR1	0	R1323T
1061.31	0.976	1062794	WORD_OFF	n/a	n/a	FLEA	2	6	[0, 0, 0]	n/a	FR1	0	R1323T
1062.286	1.624	1063770	WORD	n/a	wordpools/wordpool_EN.txt	TOY	3	6	[0, 0, 0]	n/a	FR1	0	R1323T
1063.91	0.769	1065394	WORD_OFF	n/a	n/a	TOY	3	6	[0, 0, 0]	n/a	FR1	0	R1323T
1064.679	1.631	1066163	WORD	n/a	wordpools/wordpool_EN.txt	BRICK	4	6	[0, 0, 0]	n/a	FR1	0	R1323T
1066.31	0.834	1067794	WORD_OFF	n/a	n/a	BRICK	4	6	[0, 0, 0]	n/a	FR1	0	R1323T
1067.144	1.618	1068627	WORD	n/a	wordpools/wordpool_EN.txt	MOUSE	5	6	[0, 0, 0]	n/a	FR1	0	R1323T
1068.762	1.019	1070245	WORD_OFF	n/a	n/a	MOUSE	5	6	[0, 0, 0]	n/a	FR1	0	R1323T
1069.781	1.631	1071264	WORD	n/a	wordpools/wordpool_EN.txt	WAND	6	6	[0, 0, 0]	n/a	FR1	0	R1323T
1071.412	0.787	1072895	WORD_OFF	n/a	n/a	WAND	6	6	[0, 0, 0]	n/a	FR1	0	R1323T
1072.199	1.629	1073682	WORD	n/a	wordpools/wordpool_EN.txt	WHALE	7	6	[0, 0, 0]	n/a	FR1	0	R1323T
1073.828	0.86	1075311	WORD_OFF	n/a	n/a	WHALE	7	6	[0, 0, 0]	n/a	FR1	0	R1323T
1074.688	1.624	1076171	WORD	n/a	wordpools/wordpool_EN.txt	SHOE	8	6	[0, 0, 0]	n/a	FR1	0	R1323T
1076.312	1.131	1077795	WORD_OFF	n/a	n/a	SHOE	8	6	[0, 0, 0]	n/a	FR1	0	R1323T
1077.443	1.637	1078926	WORD	n/a	wordpools/wordpool_EN.txt	PANTS	9	6	[0, 0, 0]	n/a	FR1	0	R1323T
1079.08	1.077	1080563	WORD_OFF	n/a	n/a	PANTS	9	6	[0, 0, 0]	n/a	FR1	0	R1323T
1080.157	1.623	1081640	WORD	n/a	wordpools/wordpool_EN.txt	SLUSH	10	6	[0, 0, 0]	n/a	FR1	0	R1323T
1081.78	0.873	1083263	WORD_OFF	n/a	n/a	SLUSH	10	6	[0, 0, 0]	n/a	FR1	0	R1323T
1082.653	1.627	1084136	WORD	n/a	wordpools/wordpool_EN.txt	BLOOM	11	6	[0, 0, 0]	n/a	FR1	0	R1323T
1084.28	0.786	1085763	WORD_OFF	n/a	n/a	BLOOM	11	6	[0, 0, 0]	n/a	FR1	0	R1323T
1085.066	1.616	1086549	WORD	n/a	wordpools/wordpool_EN.txt	MOLE	12	6	[0, 0, 0]	n/a	FR1	0	R1323T
1086.682	0.0	1088165	ENCODING_END	n/a	n/a	n/a	-999	6	[0, 0, 0]	n/a	FR1	0	R1323T
1086.682	0.001	1088165	WORD_OFF	n/a	n/a	MOLE	12	6	[0, 0, 0]	n/a	FR1	0	R1323T
1086.683	0.0	1088166	DISTRACT_START	n/a	n/a	n/a	-999	6	[0, 0, 0]	n/a	FR1	0	R1323T
1086.683	0.015	1088166	START	n/a	n/a	n/a	-999	6	[-999, -999, -999]	n/a	FR1	0	R1323T
1086.698	10.451	1088181	PROB	10.451	n/a	n/a	-999	6	[6, 2, 7]	15	FR1	0	R1323T
1097.149	13.991	1098631	PROB	13.991	n/a	n/a	-999	6	[3, 4, 5]	12	FR1	0	R1323T
1111.14	0.012	1112622	STOP	n/a	n/a	n/a	-999	6	[-999, -999, -999]	n/a	FR1	0	R1323T
1111.152	0.517	1112634	DISTRACT_END	n/a	n/a	n/a	-999	6	[0, 0, 0]	n/a	FR1	0	R1323T
1111.669	1.683	1113151	RETRIEVAL_ORIENT_START	n/a	n/a	n/a	-999	6	[0, 0, 0]	n/a	FR1	0	R1323T
1113.352	0.001	1114833	RETRIEVAL_ORIENT_END	n/a	n/a	n/a	-999	6	[0, 0, 0]	n/a	FR1	0	R1323T
1113.353	1.105	1114834	REC_START	n/a	n/a	n/a	-999	6	[0, 0, 0]	n/a	FR1	0	R1323T
1114.458	0.954	1115939	REC_WORD	0.954	n/a	CHAIR	1	6	[0, 0, 0]	n/a	FR1	0	R1323T
1115.412	1.68	1116893	REC_WORD	1.68	n/a	MOUSE	5	6	[0, 0, 0]	n/a	FR1	0	R1323T
1117.092	9.876	1118573	REC_WORD	9.876	n/a	PANTS	9	6	[0, 0, 0]	n/a	FR1	0	R1323T
1126.968	2.882	1128449	REC_WORD	2.882	n/a	SLUSH	10	6	[0, 0, 0]	n/a	FR1	0	R1323T
1129.85	9.938	1131331	REC_WORD_VV	9.938	n/a	<>	-999	6	[0, 0, 0]	n/a	FR1	0	R1323T
1139.788	3.577	1141268	REC_WORD_VV	3.577	n/a	<>	-999	6	[0, 0, 0]	n/a	FR1	0	R1323T
1143.365	0.0	1144845	REC_END	n/a	n/a	n/a	-999	6	[0, 0, 0]	n/a	FR1	0	R1323T
1143.365	0.016	1144845	TRIAL_END	n/a	n/a	n/a	-999	6	[0, 0, 0]	n/a	FR1	0	R1323T
1143.381	0.0	1144861	TRIAL_START	n/a	n/a	n/a	-999	7	[0, 0, 0]	n/a	FR1	0	R1323T
1143.381	0.0	1144861	TRIAL	n/a	n/a	n/a	-999	7	[0, 0, 0]	n/a	FR1	0	R1323T
1143.381	3.062	1144861	WAITING_START	n/a	n/a	n/a	-999	7	[0, 0, 0]	n/a	FR1	0	R1323T
1146.443	0.0	1147923	WAITING_END	n/a	n/a	n/a	-999	7	[0, 0, 0]	n/a	FR1	0	R1323T
1146.443	10.429	1147923	COUNTDOWN_START	n/a	n/a	n/a	-999	7	[0, 0, 0]	n/a	FR1	0	R1323T
1156.872	0.0	1158351	ORIENT_START	n/a	n/a	n/a	-999	7	[0, 0, 0]	n/a	FR1	0	R1323T
1156.872	1.155	1158351	COUNTDOWN_END	n/a	n/a	n/a	-999	7	[0, 0, 0]	n/a	FR1	0	R1323T
1158.027	0.001	1159506	ORIENT_END	n/a	n/a	n/a	-999	7	[0, 0, 0]	n/a	FR1	0	R1323T
1158.028	0.762	1159507	ENCODING_START	n/a	n/a	n/a	-999	7	[0, 0, 0]	n/a	FR1	0	R1323T
1158.79	1.638	1160269	WORD	n/a	wordpools/wordpool_EN.txt	HOLE	1	7	[0, 0, 0]	n/a	FR1	0	R1323T
1160.428	1.115	1161907	WORD_OFF	n/a	n/a	HOLE	1	7	[0, 0, 0]	n/a	FR1	0	R1323T
1161.543	1.635	1163022	WORD	n/a	wordpools/wordpool_EN.txt	SHEET	2	7	[0, 0, 0]	n/a	FR1	0	R1323T
1163.178	1.132	1164657	WORD_OFF	n/a	n/a	SHEET	2	7	[0, 0, 0]	n/a	FR1	0	R1323T
1164.31	1.635	1165789	WORD	n/a	wordpools/wordpool_EN.txt	ARK	3	7	[0, 0, 0]	n/a	FR1	0	R1323T
1165.945	0.83	1167424	WORD_OFF	n/a	n/a	ARK	3	7	[0, 0, 0]	n/a	FR1	0	R1323T
1166.775	1.638	1168254	WORD	n/a	wordpools/wordpool_EN.txt	ROAD	4	7	[0, 0, 0]	n/a	FR1	0	R1323T
1168.413	0.89	1169892	WORD_OFF	n/a	n/a	ROAD	4	7	[0, 0, 0]	n/a	FR1	0	R1323T
1169.303	1.626	1170782	WORD	n/a	wordpools/wordpool_EN.txt	MAT	5	7	[0, 0, 0]	n/a	FR1	0	R1323T
1170.929	1.125	1172408	WORD_OFF	n/a	n/a	MAT	5	7	[0, 0, 0]	n/a	FR1	0	R1323T
1172.054	1.627	1173533	WORD	n/a	wordpools/wordpool_EN.txt	SQUARE	6	7	[0, 0, 0]	n/a	FR1	0	R1323T
1173.681	1.021	1175160	WORD_OFF	n/a	n/a	SQUARE	6	7	[0, 0, 0]	n/a	FR1	0	R1323T
1174.702	1.628	1176181	WORD	n/a	wordpools/wordpool_EN.txt	TOOL	7	7	[0, 0, 0]	n/a	FR1	0	R1323T
1176.33	1.114	1177809	WORD_OFF	n/a	n/a	TOOL	7	7	[0, 0, 0]	n/a	FR1	0	R1323T
1177.444	1.637	1178923	WORD	n/a	wordpools/wordpool_EN.txt	STOVE	8	7	[0, 0, 0]	n/a	FR1	0	R1323T
1179.081	1.101	1180560	WORD_OFF	n/a	n/a	STOVE	8	7	[0, 0, 0]	n/a	FR1	0	R1323T
1180.182	1.633	1181660	WORD	n/a	wordpools/wordpool_EN.txt	PEACH	9	7	[0, 0, 0]	n/a	FR1	0	R1323T
1181.815	0.988	1183293	WORD_OFF	n/a	n/a	PEACH	9	7	[0, 0, 0]	n/a	FR1	0	R1323T
1182.803	1.63	1184281	WORD	n/a	wordpools/wordpool_EN.txt	MUD	10	7	[0, 0, 0]	n/a	FR1	0	R1323T
1184.433	0.934	1185911	WORD_OFF	n/a	n/a	MUD	10	7	[0, 0, 0]	n/a	FR1	0	R1323T
1185.367	1.632	1186845	WORD	n/a	wordpools/wordpool_EN.txt	SKI	11	7	[0, 0, 0]	n/a	FR1	0	R1323T
1186.999	0.976	1188477	WORD_OFF	n/a	n/a	SKI	11	7	[0, 0, 0]	n/a	FR1	0	R1323T
1187.975	1.609	1189453	WORD	n/a	wordpools/wordpool_EN.txt	SHIP	12	7	[0, 0, 0]	n/a	FR1	0	R1323T
1189.584	0.0	1191062	WORD_OFF	n/a	n/a	SHIP	12	7	[0, 0, 0]	n/a	FR1	0	R1323T
1189.584	0.001	1191062	ENCODING_END	n/a	n/a	n/a	-999	7	[0, 0, 0]	n/a	FR1	0	R1323T
1189.585	0.0	1191063	DISTRACT_START	n/a	n/a	n/a	-999	7	[0, 0, 0]	n/a	FR1	0	R1323T
1189.585	0.015	1191063	START	n/a	n/a	n/a	-999	7	[-999, -999, -999]	n/a	FR1	0	R1323T
1189.6	5.985	1191078	PROB	5.985	n/a	n/a	-999	7	[1, 7, 1]	8	FR1	0	R1323T
1195.585	32.406	1197063	PROB	32.406	n/a	n/a	-999	7	[9, 1, 5]	15	FR1	0	R1323T
1227.991	0.015	1229467	STOP	n/a	n/a	n/a	-999	7	[-999, -999, -999]	n/a	FR1	0	R1323T
1228.006	0.7	1229482	DISTRACT_END	n/a	n/a	n/a	-999	7	[0, 0, 0]	n/a	FR1	0	R1323T
1228.706	1.584	1230182	RETRIEVAL_ORIENT_START	n/a	n/a	n/a	-999	7	[0, 0, 0]	n/a	FR1	0	R1323T
1230.29	0.001	1231766	RETRIEVAL_ORIENT_END	n/a	n/a	n/a	-999	7	[0, 0, 0]	n/a	FR1	0	R1323T
1230.291	1.645	1231767	REC_START	n/a	n/a	n/a	-999	7	[0, 0, 0]	n/a	FR1	0	R1323T
1231.936	2.853	1233412	REC_WORD	2.853	n/a	SKI	11	7	[0, 0, 0]	n/a	FR1	0	R1323T
1234.789	1.877	1236265	REC_WORD_VV	1.877	n/a	<>	-999	7	[0, 0, 0]	n/a	FR1	0	R1323T
1236.666	3.179	1238142	REC_WORD_VV	3.179	n/a	<>	-999	7	[0, 0, 0]	n/a	FR1	0	R1323T
1239.845	6.166	1241321	REC_WORD_VV	6.166	n/a	<>	-999	7	[0, 0, 0]	n/a	FR1	0	R1323T
1246.011	14.293	1247487	REC_WORD	14.293	n/a	ARK	3	7	[0, 0, 0]	n/a	FR1	0	R1323T
1260.304	0.0	1261779	TRIAL_END	n/a	n/a	n/a	-999	7	[0, 0, 0]	n/a	FR1	0	R1323T
1260.304	0.016	1261779	REC_END	n/a	n/a	n/a	-999	7	[0, 0, 0]	n/a	FR1	0	R1323T
1260.32	0.0	1261795	TRIAL_START	n/a	n/a	n/a	-999	8	[0, 0, 0]	n/a	FR1	0	R1323T
1260.32	0.001	1261795	TRIAL	n/a	n/a	n/a	-999	8	[0, 0, 0]	n/a	FR1	0	R1323T
1260.321	66.637	1261796	WAITING_START	n/a	n/a	n/a	-999	8	[0, 0, 0]	n/a	FR1	0	R1323T
1326.958	0.0	1328430	WAITING_END	n/a	n/a	n/a	-999	8	[0, 0, 0]	n/a	FR1	0	R1323T
1326.958	10.43	1328430	COUNTDOWN_START	n/a	n/a	n/a	-999	8	[0, 0, 0]	n/a	FR1	0	R1323T
1337.388	0.0	1338859	COUNTDOWN_END	n/a	n/a	n/a	-999	8	[0, 0, 0]	n/a	FR1	0	R1323T
1337.388	1.022	1338859	ORIENT_START	n/a	n/a	n/a	-999	8	[0, 0, 0]	n/a	FR1	0	R1323T
1338.41	0.0	1339881	ENCODING_START	n/a	n/a	n/a	-999	8	[0, 0, 0]	n/a	FR1	0	R1323T
1338.41	0.796	1339881	ORIENT_END	n/a	n/a	n/a	-999	8	[0, 0, 0]	n/a	FR1	0	R1323T
1339.206	1.638	1340677	WORD	n/a	wordpools/wordpool_EN.txt	VEST	1	8	[0, 0, 0]	n/a	FR1	0	R1323T
1340.844	0.812	1342315	WORD_OFF	n/a	n/a	VEST	1	8	[0, 0, 0]	n/a	FR1	0	R1323T
1341.656	1.621	1343127	WORD	n/a	wordpools/wordpool_EN.txt	BOWL	2	8	[0, 0, 0]	n/a	FR1	0	R1323T
1343.277	0.96	1344748	WORD_OFF	n/a	n/a	BOWL	2	8	[0, 0, 0]	n/a	FR1	0	R1323T
1344.237	1.624	1345708	WORD	n/a	wordpools/wordpool_EN.txt	HEART	3	8	[0, 0, 0]	n/a	FR1	0	R1323T
1345.861	0.839	1347332	WORD_OFF	n/a	n/a	HEART	3	8	[0, 0, 0]	n/a	FR1	0	R1323T
1346.7	1.628	1348171	WORD	n/a	wordpools/wordpool_EN.txt	FISH	4	8	[0, 0, 0]	n/a	FR1	0	R1323T
1348.328	1.036	1349799	WORD_OFF	n/a	n/a	FISH	4	8	[0, 0, 0]	n/a	FR1	0	R1323T
1349.364	1.631	1350835	WORD	n/a	wordpools/wordpool_EN.txt	FOX	5	8	[0, 0, 0]	n/a	FR1	0	R1323T
1350.995	0.846	1352466	WORD_OFF	n/a	n/a	FOX	5	8	[0, 0, 0]	n/a	FR1	0	R1323T
1351.841	1.622	1353312	WORD	n/a	wordpools/wordpool_EN.txt	VASE	6	8	[0, 0, 0]	n/a	FR1	0	R1323T
1353.463	1.11	1354934	WORD_OFF	n/a	n/a	VASE	6	8	[0, 0, 0]	n/a	FR1	0	R1323T
1354.573	1.623	1356044	WORD	n/a	wordpools/wordpool_EN.txt	CHIEF	7	8	[0, 0, 0]	n/a	FR1	0	R1323T
1356.196	1.006	1357667	WORD_OFF	n/a	n/a	CHIEF	7	8	[0, 0, 0]	n/a	FR1	0	R1323T
1357.202	1.628	1358673	WORD	n/a	wordpools/wordpool_EN.txt	BENCH	8	8	[0, 0, 0]	n/a	FR1	0	R1323T
1358.83	0.987	1360301	WORD_OFF	n/a	n/a	BENCH	8	8	[0, 0, 0]	n/a	FR1	0	R1323T
1359.817	1.614	1361287	WORD	n/a	wordpools/wordpool_EN.txt	WAVE	9	8	[0, 0, 0]	n/a	FR1	0	R1323T
1361.431	1.14	1362901	WORD_OFF	n/a	n/a	WAVE	9	8	[0, 0, 0]	n/a	FR1	0	R1323T
1362.571	1.627	1364041	WORD	n/a	wordpools/wordpool_EN.txt	TOAST	10	8	[0, 0, 0]	n/a	FR1	0	R1323T
1364.198	0.846	1365668	WORD_OFF	n/a	n/a	TOAST	10	8	[0, 0, 0]	n/a	FR1	0	R1323T
1365.044	1.622	1366514	WORD	n/a	wordpools/wordpool_EN.txt	SHRIMP	11	8	[0, 0, 0]	n/a	FR1	0	R1323T
1366.666	0.769	1368136	WORD_OFF	n/a	n/a	SHRIMP	11	8	[0, 0, 0]	n/a	FR1	0	R1323T
1367.435	1.63	1368905	WORD	n/a	wordpools/wordpool_EN.txt	BOOK	12	8	[0, 0, 0]	n/a	FR1	0	R1323T
1369.065	0.001	1370535	WORD_OFF	n/a	n/a	BOOK	12	8	[0, 0, 0]	n/a	FR1	0	R1323T
1369.066	0.0	1370536	ENCODING_END	n/a	n/a	n/a	-999	8	[0, 0, 0]	n/a	FR1	0	R1323T
1369.066	0.001	1370536	DISTRACT_START	n/a	n/a	n/a	-999	8	[0, 0, 0]	n/a	FR1	0	R1323T
1369.067	0.015	1370537	START	n/a	n/a	n/a	-999	8	[-999, -999, -999]	n/a	FR1	0	R1323T
1369.082	10.068	1370552	PROB	10.068	n/a	n/a	-999	8	[8, 1, 9]	18	FR1	0	R1323T
1379.15	7.035	1380620	PROB	7.035	n/a	n/a	-999	8	[5, 7, 1]	13	FR1	0	R1323T
1386.185	8.47	1387654	PROB	8.47	n/a	n/a	-999	8	[5, 6, 5]	16	FR1	0	R1323T
1394.655	0.016	1396124	STOP	n/a	n/a	n/a	-999	8	[-999, -999, -999]	n/a	FR1	0	R1323T
1394.671	0.599	1396140	DISTRACT_END	n/a	n/a	n/a	-999	8	[0, 0, 0]	n/a	FR1	0	R1323T
1395.27	1.667	1396739	RETRIEVAL_ORIENT_START	n/a	n/a	n/a	-999	8	[0, 0, 0]	n/a	FR1	0	R1323T
1396.937	0.0	1398406	RETRIEVAL_ORIENT_END	n/a	n/a	n/a	-999	8	[0, 0, 0]	n/a	FR1	0	R1323T
1396.937	0.971	1398406	REC_START	n/a	n/a	n/a	-999	8	[0, 0, 0]	n/a	FR1	0	R1323T
1397.908	1.108	1399377	REC_WORD	1.108	n/a	VEST	1	8	[0, 0, 0]	n/a	FR1	0	R1323T
1399.016	1.417	1400485	REC_WORD	1.417	n/a	VASE	6	8	[0, 0, 0]	n/a	FR1	0	R1323T
1400.433	1.26	1401902	REC_WORD	1.26	n/a	HEART	3	8	[0, 0, 0]	n/a	FR1	0	R1323T
1401.693	4.327	1403162	REC_WORD	4.327	n/a	SHRIMP	11	8	[0, 0, 0]	n/a	FR1	0	R1323T
1406.02	13.953	1407488	REC_WORD_VV	13.953	n/a	<>	-999	8	[0, 0, 0]	n/a	FR1	0	R1323T
1419.973	6.975	1421441	REC_WORD	6.975	n/a	BOOK	12	8	[0, 0, 0]	n/a	FR1	0	R1323T
1426.948	0.001	1428415	REC_END	n/a	n/a	n/a	-999	8	[0, 0, 0]	n/a	FR1	0	R1323T
1426.949	0.015	1428416	TRIAL_END	n/a	n/a	n/a	-999	8	[0, 0, 0]	n/a	FR1	0	R1323T
1426.964	0.0	1428431	TRIAL_START	n/a	n/a	n/a	-999	9	[0, 0, 0]	n/a	FR1	0	R1323T
1426.964	0.0	1428431	TRIAL	n/a	n/a	n/a	-999	9	[0, 0, 0]	n/a	FR1	0	R1323T
1426.964	3.062	1428431	WAITING_START	n/a	n/a	n/a	-999	9	[0, 0, 0]	n/a	FR1	0	R1323T
1430.026	0.001	1431493	WAITING_END	n/a	n/a	n/a	-999	9	[0, 0, 0]	n/a	FR1	0	R1323T
1430.027	10.428	1431494	COUNTDOWN_START	n/a	n/a	n/a	-999	9	[0, 0, 0]	n/a	FR1	0	R1323T
1440.455	0.001	1441922	COUNTDOWN_END	n/a	n/a	n/a	-999	9	[0, 0, 0]	n/a	FR1	0	R1323T
1440.456	1.057	1441923	ORIENT_START	n/a	n/a	n/a	-999	9	[0, 0, 0]	n/a	FR1	0	R1323T
1441.513	0.0	1442980	ENCODING_START	n/a	n/a	n/a	-999	9	[0, 0, 0]	n/a	FR1	0	R1323T
1441.513	1.121	1442980	ORIENT_END	n/a	n/a	n/a	-999	9	[0, 0, 0]	n/a	FR1	0	R1323T
1442.634	1.628	1444101	WORD	n/a	wordpools/wordpool_EN.txt	SEED	1	9	[0, 0, 0]	n/a	FR1	0	R1323T
1444.262	0.804	1445729	WORD_OFF	n/a	n/a	SEED	1	9	[0, 0, 0]	n/a	FR1	0	R1323T
1445.066	1.614	1446533	WORD	n/a	wordpools/wordpool_EN.txt	CART	2	9	[0, 0, 0]	n/a	FR1	0	R1323T
1446.68	0.892	1448147	WORD_OFF	n/a	n/a	CART	2	9	[0, 0, 0]	n/a	FR1	0	R1323T
1447.572	1.625	1449039	WORD	n/a	wordpools/wordpool_EN.txt	CASH	3	9	[0, 0, 0]	n/a	FR1	0	R1323T
1449.197	0.809	1450663	WORD_OFF	n/a	n/a	CASH	3	9	[0, 0, 0]	n/a	FR1	0	R1323T
1450.006	1.625	1451472	WORD	n/a	wordpools/wordpool_EN.txt	BIRD	4	9	[0, 0, 0]	n/a	FR1	0	R1323T
1451.631	1.005	1453097	WORD_OFF	n/a	n/a	BIRD	4	9	[0, 0, 0]	n/a	FR1	0	R1323T
1452.636	1.628	1454102	WORD	n/a	wordpools/wordpool_EN.txt	LEG	5	9	[0, 0, 0]	n/a	FR1	0	R1323T
1454.264	0.956	1455730	WORD_OFF	n/a	n/a	LEG	5	9	[0, 0, 0]	n/a	FR1	0	R1323T
1455.22	1.628	1456686	WORD	n/a	wordpools/wordpool_EN.txt	BREAD	6	9	[0, 0, 0]	n/a	FR1	0	R1323T
1456.848	1.121	1458314	WORD_OFF	n/a	n/a	BREAD	6	9	[0, 0, 0]	n/a	FR1	0	R1323T
1457.969	1.614	1459435	WORD	n/a	wordpools/wordpool_EN.txt	STONE	7	9	[0, 0, 0]	n/a	FR1	0	R1323T
1459.583	1.092	1461049	WORD_OFF	n/a	n/a	STONE	7	9	[0, 0, 0]	n/a	FR1	0	R1323T
1460.675	1.624	1462141	WORD	n/a	wordpools/wordpool_EN.txt	FACE	8	9	[0, 0, 0]	n/a	FR1	0	R1323T
1462.299	0.955	1463765	WORD_OFF	n/a	n/a	FACE	8	9	[0, 0, 0]	n/a	FR1	0	R1323T
1463.254	1.629	1464720	WORD	n/a	wordpools/wordpool_EN.txt	RAKE	9	9	[0, 0, 0]	n/a	FR1	0	R1323T
1464.883	0.951	1466349	WORD_OFF	n/a	n/a	RAKE	9	9	[0, 0, 0]	n/a	FR1	0	R1323T
1465.834	1.617	1467300	WORD	n/a	wordpools/wordpool_EN.txt	DESK	10	9	[0, 0, 0]	n/a	FR1	0	R1323T
1467.451	0.926	1468917	WORD_OFF	n/a	n/a	DESK	10	9	[0, 0, 0]	n/a	FR1	0	R1323T
1468.377	1.623	1469843	WORD	n/a	wordpools/wordpool_EN.txt	SOCK	11	9	[0, 0, 0]	n/a	FR1	0	R1323T
1470.0	0.756	1471466	WORD_OFF	n/a	n/a	SOCK	11	9	[0, 0, 0]	n/a	FR1	0	R1323T
1470.756	1.628	1472222	WORD	n/a	wordpools/wordpool_EN.txt	STICK	12	9	[0, 0, 0]	n/a	FR1	0	R1323T
1472.384	0.001	1473849	WORD_OFF	n/a	n/a	STICK	12	9	[0, 0, 0]	n/a	FR1	0	R1323T
1472.385	0.0	1473850	ENCODING_END	n/a	n/a	n/a	-999	9	[0, 0, 0]	n/a	FR1	0	R1323T
1472.385	0.0	1473850	DISTRACT_START	n/a	n/a	n/a	-999	9	[0, 0, 0]	n/a	FR1	0	R1323T
1472.385	0.016	1473850	START	n/a	n/a	n/a	-999	9	[-999, -999, -999]	n/a	FR1	0	R1323T
1472.401	26.022	1473866	PROB	26.022	n/a	n/a	-999	9	[9, 8, 6]	23	FR1	0	R1323T
1498.423	0.017	1499887	STOP	n/a	n/a	n/a	-999	9	[-999, -999, -999]	n/a	FR1	0	R1323T
1498.44	0.53	1499904	DISTRACT_END	n/a	n/a	n/a	-999	9	[0, 0, 0]	n/a	FR1	0	R1323T
1498.97	1.654	1500434	RETRIEVAL_ORIENT_START	n/a	n/a	n/a	-999	9	[0, 0, 0]	n/a	FR1	0	R1323T
1500.624	0.0	1502088	RETRIEVAL_ORIENT_END	n/a	n/a	n/a	-999	9	[0, 0, 0]	n/a	FR1	0	R1323T
1500.624	3.144	1502088	REC_START	n/a	n/a	n/a	-999	9	[0, 0, 0]	n/a	FR1	0	R1323T
1503.768	10.636	1505232	REC_WORD_VV	10.636	n/a	<>	-999	9	[0, 0, 0]	n/a	FR1	0	R1323T
1514.404	1.856	1515868	REC_WORD_VV	1.856	n/a	<>	-999	9	[0, 0, 0]	n/a	FR1	0	R1323T
1516.26	1.0	1517723	REC_WORD	1.0	n/a	SOCK	11	9	[0, 0, 0]	n/a	FR1	0	R1323T
1517.26	7.306	1518723	REC_WORD_VV	7.306	n/a	<>	-999	9	[0, 0, 0]	n/a	FR1	0	R1323T
1524.566	1.134	1526029	REC_WORD	1.134	n/a	BREAD	6	9	[0, 0, 0]	n/a	FR1	0	R1323T
1525.7	4.935	1527163	REC_WORD	4.935	n/a	VASE	-999	9	[0, 0, 0]	n/a	FR1	0	R1323T
1530.635	0.0	1532098	TRIAL_END	n/a	n/a	n/a	-999	9	[0, 0, 0]	n/a	FR1	0	R1323T
1530.635	0.015	1532098	REC_END	n/a	n/a	n/a	-999	9	[0, 0, 0]	n/a	FR1	0	R1323T
1530.65	0.0	1532113	TRIAL_START	n/a	n/a	n/a	-999	10	[0, 0, 0]	n/a	FR1	0	R1323T
1530.65	0.0	1532113	TRIAL	n/a	n/a	n/a	-999	10	[0, 0, 0]	n/a	FR1	0	R1323T
1530.65	4.046	1532113	WAITING_START	n/a	n/a	n/a	-999	10	[0, 0, 0]	n/a	FR1	0	R1323T
1534.696	0.001	1536159	WAITING_END	n/a	n/a	n/a	-999	10	[0, 0, 0]	n/a	FR1	0	R1323T
1534.697	10.429	1536160	COUNTDOWN_START	n/a	n/a	n/a	-999	10	[0, 0, 0]	n/a	FR1	0	R1323T
1545.126	0.001	1546588	COUNTDOWN_END	n/a	n/a	n/a	-999	10	[0, 0, 0]	n/a	FR1	0	R1323T
1545.127	1.137	1546589	ORIENT_START	n/a	n/a	n/a	-999	10	[0, 0, 0]	n/a	FR1	0	R1323T
1546.264	0.001	1547726	ORIENT_END	n/a	n/a	n/a	-999	10	[0, 0, 0]	n/a	FR1	0	R1323T
1546.265	1.129	1547727	ENCODING_START	n/a	n/a	n/a	-999	10	[0, 0, 0]	n/a	FR1	0	R1323T
1547.394	1.637	1548856	WORD	n/a	wordpools/wordpool_EN.txt	BUSH	1	10	[0, 0, 0]	n/a	FR1	0	R1323T
1549.031	0.928	1550493	WORD_OFF	n/a	n/a	BUSH	1	10	[0, 0, 0]	n/a	FR1	0	R1323T
1549.959	1.624	1551421	WORD	n/a	wordpools/wordpool_EN.txt	DOG	2	10	[0, 0, 0]	n/a	FR1	0	R1323T
1551.583	1.037	1553045	WORD_OFF	n/a	n/a	DOG	2	10	[0, 0, 0]	n/a	FR1	0	R1323T
1552.62	1.629	1554082	WORD	n/a	wordpools/wordpool_EN.txt	BOOT	3	10	[0, 0, 0]	n/a	FR1	0	R1323T
1554.249	0.765	1555711	WORD_OFF	n/a	n/a	BOOT	3	10	[0, 0, 0]	n/a	FR1	0	R1323T
1555.014	1.62	1556476	WORD	n/a	wordpools/wordpool_EN.txt	WOLF	4	10	[0, 0, 0]	n/a	FR1	0	R1323T
1556.634	1.08	1558096	WORD_OFF	n/a	n/a	WOLF	4	10	[0, 0, 0]	n/a	FR1	0	R1323T
1557.714	1.636	1559176	WORD	n/a	wordpools/wordpool_EN.txt	PURSE	5	10	[0, 0, 0]	n/a	FR1	0	R1323T
1559.35	1.01	1560812	WORD_OFF	n/a	n/a	PURSE	5	10	[0, 0, 0]	n/a	FR1	0	R1323T
1560.36	1.624	1561822	WORD	n/a	wordpools/wordpool_EN.txt	STEAM	6	10	[0, 0, 0]	n/a	FR1	0	R1323T
1561.984	0.864	1563445	WORD_OFF	n/a	n/a	STEAM	6	10	[0, 0, 0]	n/a	FR1	0	R1323T
1562.848	1.637	1564309	WORD	n/a	wordpools/wordpool_EN.txt	LAWN	7	10	[0, 0, 0]	n/a	FR1	0	R1323T
1564.485	0.943	1565946	WORD_OFF	n/a	n/a	LAWN	7	10	[0, 0, 0]	n/a	FR1	0	R1323T
1565.428	1.623	1566889	WORD	n/a	wordpools/wordpool_EN.txt	CANE	8	10	[0, 0, 0]	n/a	FR1	0	R1323T
1567.051	1.036	1568512	WORD_OFF	n/a	n/a	CANE	8	10	[0, 0, 0]	n/a	FR1	0	R1323T
1568.087	1.616	1569548	WORD	n/a	wordpools/wordpool_EN.txt	PALM	9	10	[0, 0, 0]	n/a	FR1	0	R1323T
1569.703	0.954	1571164	WORD_OFF	n/a	n/a	PALM	9	10	[0, 0, 0]	n/a	FR1	0	R1323T
1570.657	1.629	1572118	WORD	n/a	wordpools/wordpool_EN.txt	SALT	10	10	[0, 0, 0]	n/a	FR1	0	R1323T
1572.286	0.769	1573747	WORD_OFF	n/a	n/a	SALT	10	10	[0, 0, 0]	n/a	FR1	0	R1323T
1573.055	1.632	1574516	WORD	n/a	wordpools/wordpool_EN.txt	STAR	11	10	[0, 0, 0]	n/a	FR1	0	R1323T
1574.687	1.145	1576148	WORD_OFF	n/a	n/a	STAR	11	10	[0, 0, 0]	n/a	FR1	0	R1323T
1575.832	1.622	1577293	WORD	n/a	wordpools/wordpool_EN.txt	GEESE	12	10	[0, 0, 0]	n/a	FR1	0	R1323T
1577.454	0.001	1578915	WORD_OFF	n/a	n/a	GEESE	12	10	[0, 0, 0]	n/a	FR1	0	R1323T
1577.455	0.0	1578916	ENCODING_END	n/a	n/a	n/a	-999	10	[0, 0, 0]	n/a	FR1	0	R1323T
1577.455	0.0	1578916	DISTRACT_START	n/a	n/a	n/a	-999	10	[0, 0, 0]	n/a	FR1	0	R1323T
1577.455	0.016	1578916	START	n/a	n/a	n/a	-999	10	[-999, -999, -999]	n/a	FR1	0	R1323T
1577.471	7.467	1578932	PROB	7.467	n/a	n/a	-999	10	[7, 5, 5]	17	FR1	0	R1323T
1584.938	7.018	1586398	PROB	7.018	n/a	n/a	-999	10	[2, 6, 8]	16	FR1	0	R1323T
1591.956	6.078	1593416	PROB	6.078	n/a	n/a	-999	10	[3, 1, 7]	11	FR1	0	R1323T
1598.034	0.006	1599494	STOP	n/a	n/a	n/a	-999	10	[-999, -999, -999]	n/a	FR1	0	R1323T
1598.04	0.636	1599500	DISTRACT_END	n/a	n/a	n/a	-999	10	[0, 0, 0]	n/a	FR1	0	R1323T
1598.676	1.681	1600136	RETRIEVAL_ORIENT_START	n/a	n/a	n/a	-999	10	[0, 0, 0]	n/a	FR1	0	R1323T
1600.357	0.001	1601817	RETRIEVAL_ORIENT_END	n/a	n/a	n/a	-999	10	[0, 0, 0]	n/a	FR1	0	R1323T
1600.358	0.881	1601818	REC_START	n/a	n/a	n/a	-999	10	[0, 0, 0]	n/a	FR1	0	R1323T
1601.239	0.678	1602699	REC_WORD_VV	0.678	n/a	<>	-999	10	[0, 0, 0]	n/a	FR1	0	R1323T
1601.917	0.603	1603377	REC_WORD	0.603	n/a	BUSH	1	10	[0, 0, 0]	n/a	FR1	0	R1323T
1602.52	4.461	1603980	REC_WORD	4.461	n/a	SALT	10	10	[0, 0, 0]	n/a	FR1	0	R1323T
1606.981	3.267	1608440	REC_WORD	3.267	n/a	VASE	-999	10	[0, 0, 0]	n/a	FR1	0	R1323T
1610.248	15.439	1611707	REC_WORD	15.439	n/a	STICK	-999	10	[0, 0, 0]	n/a	FR1	0	R1323T
1625.687	4.682	1627146	REC_WORD	4.682	n/a	BRUSH	-999	10	[0, 0, 0]	n/a	FR1	0	R1323T
1630.369	0.0	1631827	TRIAL_END	n/a	n/a	n/a	-999	10	[0, 0, 0]	n/a	FR1	0	R1323T
1630.369	0.017	1631827	REC_END	n/a	n/a	n/a	-999	10	[0, 0, 0]	n/a	FR1	0	R1323T
1630.386	0.0	1631844	TRIAL_START	n/a	n/a	n/a	-999	11	[0, 0, 0]	n/a	FR1	0	R1323T
1630.386	0.0	1631844	TRIAL	n/a	n/a	n/a	-999	11	[0, 0, 0]	n/a	FR1	0	R1323T
1630.386	5.029	1631844	WAITING_START	n/a	n/a	n/a	-999	11	[0, 0, 0]	n/a	FR1	0	R1323T
1635.415	0.0	1636873	WAITING_END	n/a	n/a	n/a	-999	11	[0, 0, 0]	n/a	FR1	0	R1323T
1635.415	10.429	1636873	COUNTDOWN_START	n/a	n/a	n/a	-999	11	[0, 0, 0]	n/a	FR1	0	R1323T
1645.844	0.0	1647302	COUNTDOWN_END	n/a	n/a	n/a	-999	11	[0, 0, 0]	n/a	FR1	0	R1323T
1645.844	1.089	1647302	ORIENT_START	n/a	n/a	n/a	-999	11	[0, 0, 0]	n/a	FR1	0	R1323T
1646.933	0.0	1648391	ENCODING_START	n/a	n/a	n/a	-999	11	[0, 0, 0]	n/a	FR1	0	R1323T
1646.933	0.75	1648391	ORIENT_END	n/a	n/a	n/a	-999	11	[0, 0, 0]	n/a	FR1	0	R1323T
1647.683	1.633	1649141	WORD	n/a	wordpools/wordpool_EN.txt	GRASS	1	11	[0, 0, 0]	n/a	FR1	0	R1323T
1649.316	0.943	1650774	WORD_OFF	n/a	n/a	GRASS	1	11	[0, 0, 0]	n/a	FR1	0	R1323T
1650.259	1.624	1651717	WORD	n/a	wordpools/wordpool_EN.txt	SWAMP	2	11	[0, 0, 0]	n/a	FR1	0	R1323T
1651.883	0.837	1653340	WORD_OFF	n/a	n/a	SWAMP	2	11	[0, 0, 0]	n/a	FR1	0	R1323T
1652.72	1.63	1654177	WORD	n/a	wordpools/wordpool_EN.txt	PIN	3	11	[0, 0, 0]	n/a	FR1	0	R1323T
1654.35	0.764	1655807	WORD_OFF	n/a	n/a	PIN	3	11	[0, 0, 0]	n/a	FR1	0	R1323T
1655.114	1.638	1656571	WORD	n/a	wordpools/wordpool_EN.txt	BEAK	4	11	[0, 0, 0]	n/a	FR1	0	R1323T
1656.752	0.937	1658209	WORD_OFF	n/a	n/a	BEAK	4	11	[0, 0, 0]	n/a	FR1	0	R1323T
1657.689	1.629	1659146	WORD	n/a	wordpools/wordpool_EN.txt	OAR	5	11	[0, 0, 0]	n/a	FR1	0	R1323T
1659.318	0.952	1660775	WORD_OFF	n/a	n/a	OAR	5	11	[0, 0, 0]	n/a	FR1	0	R1323T
1660.27	1.632	1661727	WORD	n/a	wordpools/wordpool_EN.txt	CAR	6	11	[0, 0, 0]	n/a	FR1	0	R1323T
1661.902	1.035	1663359	WORD_OFF	n/a	n/a	CAR	6	11	[0, 0, 0]	n/a	FR1	0	R1323T
1662.937	1.633	1664394	WORD	n/a	wordpools/wordpool_EN.txt	LEAF	7	11	[0, 0, 0]	n/a	FR1	0	R1323T
1664.57	0.764	1666027	WORD_OFF	n/a	n/a	LEAF	7	11	[0, 0, 0]	n/a	FR1	0	R1323T
1665.334	1.635	1666791	WORD	n/a	wordpools/wordpool_EN.txt	CORD	8	11	[0, 0, 0]	n/a	FR1	0	R1323T
1666.969	0.972	1668426	WORD_OFF	n/a	n/a	CORD	8	11	[0, 0, 0]	n/a	FR1	0	R1323T
1667.941	1.63	1669398	WORD	n/a	wordpools/wordpool_EN.txt	AXE	9	11	[0, 0, 0]	n/a	FR1	0	R1323T
1669.571	0.921	1671028	WORD_OFF	n/a	n/a	AXE	9	11	[0, 0, 0]	n/a	FR1	0	R1323T
1670.492	1.628	1671949	WORD	n/a	wordpools/wordpool_EN.txt	MAIL	10	11	[0, 0, 0]	n/a	FR1	0	R1323T
1672.12	0.813	1673577	WORD_OFF	n/a	n/a	MAIL	10	11	[0, 0, 0]	n/a	FR1	0	R1323T
1672.933	1.639	1674390	WORD	n/a	wordpools/wordpool_EN.txt	SPARK	11	11	[0, 0, 0]	n/a	FR1	0	R1323T
1674.572	1.045	1676028	WORD_OFF	n/a	n/a	SPARK	11	11	[0, 0, 0]	n/a	FR1	0	R1323T
1675.617	1.621	1677073	WORD	n/a	wordpools/wordpool_EN.txt	CONE	12	11	[0, 0, 0]	n/a	FR1	0	R1323T
1677.238	0.001	1678694	WORD_OFF	n/a	n/a	CONE	12	11	[0, 0, 0]	n/a	FR1	0	R1323T
1677.239	0.0	1678695	ENCODING_END	n/a	n/a	n/a	-999	11	[0, 0, 0]	n/a	FR1	0	R1323T
1677.239	0.0	1678695	DISTRACT_START	n/a	n/a	n/a	-999	11	[0, 0, 0]	n/a	FR1	0	R1323T
1677.239	0.015	1678695	START	n/a	n/a	n/a	-999	11	[-999, -999, -999]	n/a	FR1	0	R1323T
1677.254	10.17	1678710	PROB	10.17	n/a	n/a	-999	11	[4, 1, 8]	13	FR1	0	R1323T
1687.424	10.049	1688880	PROB	10.049	n/a	n/a	-999	11	[9, 5, 2]	16	FR1	0	R1323T
1697.473	0.02	1698928	STOP	n/a	n/a	n/a	-999	11	[-999, -999, -999]	n/a	FR1	0	R1323T
1697.493	0.686	1698948	DISTRACT_END	n/a	n/a	n/a	-999	11	[0, 0, 0]	n/a	FR1	0	R1323T
1698.179	1.613	1699634	RETRIEVAL_ORIENT_START	n/a	n/a	n/a	-999	11	[0, 0, 0]	n/a	FR1	0	R1323T
1699.792	0.0	1701247	RETRIEVAL_ORIENT_END	n/a	n/a	n/a	-999	11	[0, 0, 0]	n/a	FR1	0	R1323T
1699.792	1.114	1701247	REC_START	n/a	n/a	n/a	-999	11	[0, 0, 0]	n/a	FR1	0	R1323T
1700.906	1.216	1702361	REC_WORD	1.216	n/a	PIN	3	11	[0, 0, 0]	n/a	FR1	0	R1323T
1702.122	5.831	1703577	REC_WORD	5.831	n/a	CAR	6	11	[0, 0, 0]	n/a	FR1	0	R1323T
1707.953	0.41	1709408	REC_WORD_VV	0.41	n/a	<>	-999	11	[0, 0, 0]	n/a	FR1	0	R1323T
1708.363	9.42	1709818	REC_WORD	9.42	n/a	SWAMP	2	11	[0, 0, 0]	n/a	FR1	0	R1323T
1717.783	12.022	1719238	REC_WORD	12.022	n/a	STAR	-999	11	[0, 0, 0]	n/a	FR1	0	R1323T
1729.805	0.0	1731259	TRIAL_END	n/a	n/a	n/a	-999	11	[0, 0, 0]	n/a	FR1	0	R1323T
1729.805	0.016	1731259	REC_END	n/a	n/a	n/a	-999	11	[0, 0, 0]	n/a	FR1	0	R1323T
1729.821	0.0	1731275	TRIAL_START	n/a	n/a	n/a	-999	12	[0, 0, 0]	n/a	FR1	0	R1323T
1729.821	0.0	1731275	TRIAL	n/a	n/a	n/a	-999	12	[0, 0, 0]	n/a	FR1	0	R1323T
1729.821	3.845	1731275	WAITING_START	n/a	n/a	n/a	-999	12	[0, 0, 0]	n/a	FR1	0	R1323T
1733.666	0.0	1735120	WAITING_END	n/a	n/a	n/a	-999	12	[0, 0, 0]	n/a	FR1	0	R1323T
1733.666	10.429	1735120	COUNTDOWN_START	n/a	n/a	n/a	-999	12	[0, 0, 0]	n/a	FR1	0	R1323T
1744.095	0.0	1745548	COUNTDOWN_END	n/a	n/a	n/a	-999	12	[0, 0, 0]	n/a	FR1	0	R1323T
1744.095	1.022	1745548	ORIENT_START	n/a	n/a	n/a	-999	12	[0, 0, 0]	n/a	FR1	0	R1323T
1745.117	0.0	1746570	ORIENT_END	n/a	n/a	n/a	-999	12	[0, 0, 0]	n/a	FR1	0	R1323T
1745.117	1.09	1746570	ENCODING_START	n/a	n/a	n/a	-999	12	[0, 0, 0]	n/a	FR1	0	R1323T
1746.207	1.627	1747660	WORD	n/a	wordpools/wordpool_EN.txt	VINE	1	12	[0, 0, 0]	n/a	FR1	0	R1323T
1747.834	1.102	1749287	WORD_OFF	n/a	n/a	VINE	1	12	[0, 0, 0]	n/a	FR1	0	R1323T
1748.936	1.633	1750389	WORD	n/a	wordpools/wordpool_EN.txt	BROOM	2	12	[0, 0, 0]	n/a	FR1	0	R1323T
1750.569	0.832	1752022	WORD_OFF	n/a	n/a	BROOM	2	12	[0, 0, 0]	n/a	FR1	0	R1323T
1751.401	1.634	1752854	WORD	n/a	wordpools/wordpool_EN.txt	TENT	3	12	[0, 0, 0]	n/a	FR1	0	R1323T
1753.035	1.016	1754488	WORD_OFF	n/a	n/a	TENT	3	12	[0, 0, 0]	n/a	FR1	0	R1323T
1754.051	1.636	1755504	WORD	n/a	wordpools/wordpool_EN.txt	BEACH	4	12	[0, 0, 0]	n/a	FR1	0	R1323T
1755.687	0.941	1757140	WORD_OFF	n/a	n/a	BEACH	4	12	[0, 0, 0]	n/a	FR1	0	R1323T
1756.628	1.625	1758081	WORD	n/a	wordpools/wordpool_EN.txt	FOOD	5	12	[0, 0, 0]	n/a	FR1	0	R1323T
1758.253	0.792	1759706	WORD_OFF	n/a	n/a	FOOD	5	12	[0, 0, 0]	n/a	FR1	0	R1323T
1759.045	1.626	1760498	WORD	n/a	wordpools/wordpool_EN.txt	SPOON	6	12	[0, 0, 0]	n/a	FR1	0	R1323T
1760.671	1.083	1762124	WORD_OFF	n/a	n/a	SPOON	6	12	[0, 0, 0]	n/a	FR1	0	R1323T
1761.754	1.633	1763207	WORD	n/a	wordpools/wordpool_EN.txt	SHELL	7	12	[0, 0, 0]	n/a	FR1	0	R1323T
1763.387	0.832	1764839	WORD_OFF	n/a	n/a	SHELL	7	12	[0, 0, 0]	n/a	FR1	0	R1323T
1764.219	1.635	1765671	WORD	n/a	wordpools/wordpool_EN.txt	ROSE	8	12	[0, 0, 0]	n/a	FR1	0	R1323T
1765.854	0.887	1767306	WORD_OFF	n/a	n/a	ROSE	8	12	[0, 0, 0]	n/a	FR1	0	R1323T
1766.741	1.63	1768193	WORD	n/a	wordpools/wordpool_EN.txt	CHALK	9	12	[0, 0, 0]	n/a	FR1	0	R1323T
1768.371	0.892	1769823	WORD_OFF	n/a	n/a	CHALK	9	12	[0, 0, 0]	n/a	FR1	0	R1323T
1769.263	1.625	1770715	WORD	n/a	wordpools/wordpool_EN.txt	SEAT	10	12	[0, 0, 0]	n/a	FR1	0	R1323T
1770.888	1.031	1772340	WORD_OFF	n/a	n/a	SEAT	10	12	[0, 0, 0]	n/a	FR1	0	R1323T
1771.919	1.637	1773371	WORD	n/a	wordpools/wordpool_EN.txt	HILL	11	12	[0, 0, 0]	n/a	FR1	0	R1323T
1773.556	1.024	1775008	WORD_OFF	n/a	n/a	HILL	11	12	[0, 0, 0]	n/a	FR1	0	R1323T
1774.58	1.626	1776032	WORD	n/a	wordpools/wordpool_EN.txt	HORSE	12	12	[0, 0, 0]	n/a	FR1	0	R1323T
1776.206	0.0	1777658	WORD_OFF	n/a	n/a	HORSE	12	12	[0, 0, 0]	n/a	FR1	0	R1323T
1776.206	0.001	1777658	ENCODING_END	n/a	n/a	n/a	-999	12	[0, 0, 0]	n/a	FR1	0	R1323T
1776.207	0.0	1777659	DISTRACT_START	n/a	n/a	n/a	-999	12	[0, 0, 0]	n/a	FR1	0	R1323T
1776.207	0.015	1777659	START	n/a	n/a	n/a	-999	12	[-999, -999, -999]	n/a	FR1	0	R1323T
1776.222	8.22	1777674	PROB	8.22	n/a	n/a	-999	12	[4, 3, 8]	15	FR1	0	R1323T
1784.442	21.771	1785894	PROB	21.771	n/a	n/a	-999	12	[5, 7, 4]	16	FR1	0	R1323T
1806.213	0.015	1807664	STOP	n/a	n/a	n/a	-999	12	[-999, -999, -999]	n/a	FR1	0	R1323T
1806.228	0.632	1807679	DISTRACT_END	n/a	n/a	n/a	-999	12	[0, 0, 0]	n/a	FR1	0	R1323T
1806.86	1.586	1808311	RETRIEVAL_ORIENT_START	n/a	n/a	n/a	-999	12	[0, 0, 0]	n/a	FR1	0	R1323T
1808.446	0.0	1809896	RETRIEVAL_ORIENT_END	n/a	n/a	n/a	-999	12	[0, 0, 0]	n/a	FR1	0	R1323T
1808.446	7.333	1809896	REC_START	n/a	n/a	n/a	-999	12	[0, 0, 0]	n/a	FR1	0	R1323T
1815.779	3.547	1817229	REC_WORD	3.547	n/a	VINE	1	12	[0, 0, 0]	n/a	FR1	0	R1323T
1819.326	3.185	1820776	REC_WORD_VV	3.185	n/a	<>	-999	12	[0, 0, 0]	n/a	FR1	0	R1323T
1822.511	5.897	1823961	REC_WORD	5.897	n/a	FOOD	5	12	[0, 0, 0]	n/a	FR1	0	R1323T
1828.408	10.051	1829858	REC_WORD	10.051	n/a	WINE	-999	12	[0, 0, 0]	n/a	FR1	0	R1323T
1838.459	0.001	1839908	REC_END	n/a	n/a	n/a	-999	12	[0, 0, 0]	n/a	FR1	0	R1323T
1838.46	0.015	1839909	TRIAL_END	n/a	n/a	n/a	-999	12	[0, 0, 0]	n/a	FR1	0	R1323T
1838.475	0.0	1839924	TRIAL	n/a	n/a	n/a	-999	13	[0, 0, 0]	n/a	FR1	0	R1323T
1838.475	0.001	1839924	TRIAL_START	n/a	n/a	n/a	-999	13	[0, 0, 0]	n/a	FR1	0	R1323T
1838.476	315.565	1839925	WAITING_START	n/a	n/a	n/a	-999	13	[0, 0, 0]	n/a	FR1	0	R1323T
2154.041	0.0	2155476	WAITING_END	n/a	n/a	n/a	-999	13	[0, 0, 0]	n/a	FR1	0	R1323T
2154.041	10.429	2155476	COUNTDOWN_START	n/a	n/a	n/a	-999	13	[0, 0, 0]	n/a	FR1	0	R1323T
2164.47	0.001	2165905	COUNTDOWN_END	n/a	n/a	n/a	-999	13	[0, 0, 0]	n/a	FR1	0	R1323T
2164.471	1.156	2165906	ORIENT_START	n/a	n/a	n/a	-999	13	[0, 0, 0]	n/a	FR1	0	R1323T
2165.627	0.001	2167062	ORIENT_END	n/a	n/a	n/a	-999	13	[0, 0, 0]	n/a	FR1	0	R1323T
2165.628	0.921	2167063	ENCODING_START	n/a	n/a	n/a	-999	13	[0, 0, 0]	n/a	FR1	0	R1323T
2166.549	1.628	2167984	WORD	n/a	wordpools/wordpool_EN.txt	CUP	1	13	[0, 0, 0]	n/a	FR1	0	R1323T
2168.177	0.917	2169611	WORD_OFF	n/a	n/a	CUP	1	13	[0, 0, 0]	n/a	FR1	0	R1323T
2169.094	1.634	2170528	WORD	n/a	wordpools/wordpool_EN.txt	STEM	2	13	[0, 0, 0]	n/a	FR1	0	R1323T
2170.728	0.81	2172162	WORD_OFF	n/a	n/a	STEM	2	13	[0, 0, 0]	n/a	FR1	0	R1323T
2171.538	1.623	2172972	WORD	n/a	wordpools/wordpool_EN.txt	FOAM	3	13	[0, 0, 0]	n/a	FR1	0	R1323T
2173.161	0.951	2174595	WORD_OFF	n/a	n/a	FOAM	3	13	[0, 0, 0]	n/a	FR1	0	R1323T
2174.112	1.634	2175546	WORD	n/a	wordpools/wordpool_EN.txt	TOE	4	13	[0, 0, 0]	n/a	FR1	0	R1323T
2175.746	0.842	2177180	WORD_OFF	n/a	n/a	TOE	4	13	[0, 0, 0]	n/a	FR1	0	R1323T
2176.588	1.624	2178022	WORD	n/a	wordpools/wordpool_EN.txt	STEAK	5	13	[0, 0, 0]	n/a	FR1	0	R1323T
2178.212	1.146	2179646	WORD_OFF	n/a	n/a	STEAK	5	13	[0, 0, 0]	n/a	FR1	0	R1323T
2179.358	1.638	2180792	WORD	n/a	wordpools/wordpool_EN.txt	PLATE	6	13	[0, 0, 0]	n/a	FR1	0	R1323T
2180.996	0.898	2182430	WORD_OFF	n/a	n/a	PLATE	6	13	[0, 0, 0]	n/a	FR1	0	R1323T
2181.894	1.637	2183328	WORD	n/a	wordpools/wordpool_EN.txt	SNAKE	7	13	[0, 0, 0]	n/a	FR1	0	R1323T
2183.531	0.832	2184965	WORD_OFF	n/a	n/a	SNAKE	7	13	[0, 0, 0]	n/a	FR1	0	R1323T
2184.363	1.634	2185797	WORD	n/a	wordpools/wordpool_EN.txt	ANT	8	13	[0, 0, 0]	n/a	FR1	0	R1323T
2185.997	0.892	2187431	WORD_OFF	n/a	n/a	ANT	8	13	[0, 0, 0]	n/a	FR1	0	R1323T
2186.889	1.626	2188323	WORD	n/a	wordpools/wordpool_EN.txt	CLOWN	9	13	[0, 0, 0]	n/a	FR1	0	R1323T
2188.515	1.109	2189949	WORD_OFF	n/a	n/a	CLOWN	9	13	[0, 0, 0]	n/a	FR1	0	R1323T
2189.624	1.624	2191058	WORD	n/a	wordpools/wordpool_EN.txt	HOUSE	10	13	[0, 0, 0]	n/a	FR1	0	R1323T
2191.248	0.905	2192681	WORD_OFF	n/a	n/a	HOUSE	10	13	[0, 0, 0]	n/a	FR1	0	R1323T
2192.153	1.628	2193586	WORD	n/a	wordpools/wordpool_EN.txt	HAND	11	13	[0, 0, 0]	n/a	FR1	0	R1323T
2193.781	0.778	2195214	WORD_OFF	n/a	n/a	HAND	11	13	[0, 0, 0]	n/a	FR1	0	R1323T
2194.559	1.623	2195992	WORD	n/a	wordpools/wordpool_EN.txt	RAT	12	13	[0, 0, 0]	n/a	FR1	0	R1323T
2196.182	0.001	2197615	WORD_OFF	n/a	n/a	RAT	12	13	[0, 0, 0]	n/a	FR1	0	R1323T
2196.183	0.0	2197616	ENCODING_END	n/a	n/a	n/a	-999	13	[0, 0, 0]	n/a	FR1	0	R1323T
2196.183	0.0	2197616	DISTRACT_START	n/a	n/a	n/a	-999	13	[0, 0, 0]	n/a	FR1	0	R1323T
2196.183	0.016	2197616	START	n/a	n/a	n/a	-999	13	[-999, -999, -999]	n/a	FR1	0	R1323T
2196.199	9.386	2197632	PROB	9.386	n/a	n/a	-999	13	[5, 3, 4]	12	FR1	0	R1323T
2205.585	17.512	2207018	PROB	17.512	n/a	n/a	-999	13	[6, 8, 9]	23	FR1	0	R1323T
2223.097	0.007	2224529	STOP	n/a	n/a	n/a	-999	13	[-999, -999, -999]	n/a	FR1	0	R1323T
2223.104	0.557	2224536	DISTRACT_END	n/a	n/a	n/a	-999	13	[0, 0, 0]	n/a	FR1	0	R1323T
2223.661	1.693	2225093	RETRIEVAL_ORIENT_START	n/a	n/a	n/a	-999	13	[0, 0, 0]	n/a	FR1	0	R1323T
2225.354	0.0	2226786	RETRIEVAL_ORIENT_END	n/a	n/a	n/a	-999	13	[0, 0, 0]	n/a	FR1	0	R1323T
2225.354	2.425	2226786	REC_START	n/a	n/a	n/a	-999	13	[0, 0, 0]	n/a	FR1	0	R1323T
2227.779	1.684	2229211	REC_WORD	1.684	n/a	CUP	1	13	[0, 0, 0]	n/a	FR1	0	R1323T
2229.463	0.933	2230895	REC_WORD	0.933	n/a	STEAK	5	13	[0, 0, 0]	n/a	FR1	0	R1323T
2230.396	1.515	2231828	REC_WORD	1.515	n/a	SNAKE	7	13	[0, 0, 0]	n/a	FR1	0	R1323T
2231.911	2.833	2233343	REC_WORD	2.833	n/a	PLATE	6	13	[0, 0, 0]	n/a	FR1	0	R1323T
2234.744	3.663	2236176	REC_WORD	3.663	n/a	TOE	4	13	[0, 0, 0]	n/a	FR1	0	R1323T
2238.407	7.953	2239838	REC_WORD_VV	7.953	n/a	<>	-999	13	[0, 0, 0]	n/a	FR1	0	R1323T
2246.36	9.007	2247791	REC_WORD	9.007	n/a	PHONE	-999	13	[0, 0, 0]	n/a	FR1	0	R1323T
2255.367	0.001	2256798	REC_END	n/a	n/a	n/a	-999	13	[0, 0, 0]	n/a	FR1	0	R1323T
2255.368	0.015	2256799	TRIAL_END	n/a	n/a	n/a	-999	13	[0, 0, 0]	n/a	FR1	0	R1323T
2255.383	0.0	2256814	TRIAL	n/a	n/a	n/a	-999	14	[0, 0, 0]	n/a	FR1	0	R1323T
2255.383	0.001	2256814	TRIAL_START	n/a	n/a	n/a	-999	14	[0, 0, 0]	n/a	FR1	0	R1323T
2255.384	4.077	2256815	WAITING_START	n/a	n/a	n/a	-999	14	[0, 0, 0]	n/a	FR1	0	R1323T
2259.461	0.0	2260891	WAITING_END	n/a	n/a	n/a	-999	14	[0, 0, 0]	n/a	FR1	0	R1323T
2259.461	10.43	2260891	COUNTDOWN_START	n/a	n/a	n/a	-999	14	[0, 0, 0]	n/a	FR1	0	R1323T
2269.891	0.0	2271321	COUNTDOWN_END	n/a	n/a	n/a	-999	14	[0, 0, 0]	n/a	FR1	0	R1323T
2269.891	1.071	2271321	ORIENT_START	n/a	n/a	n/a	-999	14	[0, 0, 0]	n/a	FR1	0	R1323T
2270.962	0.001	2272392	ORIENT_END	n/a	n/a	n/a	-999	14	[0, 0, 0]	n/a	FR1	0	R1323T
2270.963	0.964	2272393	ENCODING_START	n/a	n/a	n/a	-999	14	[0, 0, 0]	n/a	FR1	0	R1323T
2271.927	1.637	2273357	WORD	n/a	wordpools/wordpool_EN.txt	DEER	1	14	[0, 0, 0]	n/a	FR1	0	R1323T
2273.564	0.975	2274994	WORD_OFF	n/a	n/a	DEER	1	14	[0, 0, 0]	n/a	FR1	0	R1323T
2274.539	1.624	2275969	WORD	n/a	wordpools/wordpool_EN.txt	SHARK	2	14	[0, 0, 0]	n/a	FR1	0	R1323T
2276.163	0.871	2277593	WORD_OFF	n/a	n/a	SHARK	2	14	[0, 0, 0]	n/a	FR1	0	R1323T
2277.034	1.631	2278464	WORD	n/a	wordpools/wordpool_EN.txt	WING	3	14	[0, 0, 0]	n/a	FR1	0	R1323T
2278.665	0.913	2280095	WORD_OFF	n/a	n/a	WING	3	14	[0, 0, 0]	n/a	FR1	0	R1323T
2279.578	1.619	2281008	WORD	n/a	wordpools/wordpool_EN.txt	CUBE	4	14	[0, 0, 0]	n/a	FR1	0	R1323T
2281.197	0.844	2282626	WORD_OFF	n/a	n/a	CUBE	4	14	[0, 0, 0]	n/a	FR1	0	R1323T
2282.041	1.608	2283470	WORD	n/a	wordpools/wordpool_EN.txt	LIP	5	14	[0, 0, 0]	n/a	FR1	0	R1323T
2283.649	1.119	2285078	WORD_OFF	n/a	n/a	LIP	5	14	[0, 0, 0]	n/a	FR1	0	R1323T
2284.768	1.63	2286197	WORD	n/a	wordpools/wordpool_EN.txt	TRAY	6	14	[0, 0, 0]	n/a	FR1	0	R1323T
2286.398	0.81	2287827	WORD_OFF	n/a	n/a	TRAY	6	14	[0, 0, 0]	n/a	FR1	0	R1323T
2287.208	1.624	2288637	WORD	n/a	wordpools/wordpool_EN.txt	SOAP	7	14	[0, 0, 0]	n/a	FR1	0	R1323T
2288.832	1.134	2290261	WORD_OFF	n/a	n/a	SOAP	7	14	[0, 0, 0]	n/a	FR1	0	R1323T
2289.966	1.634	2291395	WORD	n/a	wordpools/wordpool_EN.txt	THREAD	8	14	[0, 0, 0]	n/a	FR1	0	R1323T
2291.6	1.142	2293029	WORD_OFF	n/a	n/a	THREAD	8	14	[0, 0, 0]	n/a	FR1	0	R1323T
2292.742	1.624	2294171	WORD	n/a	wordpools/wordpool_EN.txt	EAR	9	14	[0, 0, 0]	n/a	FR1	0	R1323T
2294.366	1.087	2295795	WORD_OFF	n/a	n/a	EAR	9	14	[0, 0, 0]	n/a	FR1	0	R1323T
2295.453	1.631	2296882	WORD	n/a	wordpools/wordpool_EN.txt	CLIFF	10	14	[0, 0, 0]	n/a	FR1	0	R1323T
2297.084	0.882	2298513	WORD_OFF	n/a	n/a	CLIFF	10	14	[0, 0, 0]	n/a	FR1	0	R1323T
2297.966	1.636	2299395	WORD	n/a	wordpools/wordpool_EN.txt	SHEEP	11	14	[0, 0, 0]	n/a	FR1	0	R1323T
2299.602	1.025	2301031	WORD_OFF	n/a	n/a	SHEEP	11	14	[0, 0, 0]	n/a	FR1	0	R1323T
2300.627	1.624	2302056	WORD	n/a	wordpools/wordpool_EN.txt	WOOD	12	14	[0, 0, 0]	n/a	FR1	0	R1323T
2302.251	0.001	2303680	WORD_OFF	n/a	n/a	WOOD	12	14	[0, 0, 0]	n/a	FR1	0	R1323T
2302.252	0.0	2303681	ENCODING_END	n/a	n/a	n/a	-999	14	[0, 0, 0]	n/a	FR1	0	R1323T
2302.252	0.0	2303681	DISTRACT_START	n/a	n/a	n/a	-999	14	[0, 0, 0]	n/a	FR1	0	R1323T
2302.252	0.016	2303681	START	n/a	n/a	n/a	-999	14	[-999, -999, -999]	n/a	FR1	0	R1323T
2302.268	5.534	2303697	PROB	5.534	n/a	n/a	-999	14	[2, 7, 3]	12	FR1	0	R1323T
2307.802	7.101	2309230	PROB	7.101	n/a	n/a	-999	14	[3, 7, 4]	14	FR1	0	R1323T
2314.903	9.239	2316331	PROB	9.239	n/a	n/a	-999	14	[2, 6, 3]	11	FR1	0	R1323T
2324.142	0.013	2325570	STOP	n/a	n/a	n/a	-999	14	[-999, -999, -999]	n/a	FR1	0	R1323T
2324.155	0.52	2325583	DISTRACT_END	n/a	n/a	n/a	-999	14	[0, 0, 0]	n/a	FR1	0	R1323T
2324.675	1.697	2326103	RETRIEVAL_ORIENT_START	n/a	n/a	n/a	-999	14	[0, 0, 0]	n/a	FR1	0	R1323T
2326.372	0.001	2327799	RETRIEVAL_ORIENT_END	n/a	n/a	n/a	-999	14	[0, 0, 0]	n/a	FR1	0	R1323T
2326.373	1.86	2327800	REC_START	n/a	n/a	n/a	-999	14	[0, 0, 0]	n/a	FR1	0	R1323T
2328.233	0.989	2329660	REC_WORD	0.989	n/a	DEER	1	14	[0, 0, 0]	n/a	FR1	0	R1323T
2329.222	8.886	2330649	REC_WORD	8.886	n/a	SHEEP	11	14	[0, 0, 0]	n/a	FR1	0	R1323T
2338.108	18.277	2339535	REC_WORD	18.277	n/a	LIP	5	14	[0, 0, 0]	n/a	FR1	0	R1323T
2356.385	0.0	2357811	REC_END	n/a	n/a	n/a	-999	14	[0, 0, 0]	n/a	FR1	0	R1323T
2356.385	0.016	2357811	TRIAL_END	n/a	n/a	n/a	-999	14	[0, 0, 0]	n/a	FR1	0	R1323T
2356.401	0.001	2357827	TRIAL_START	n/a	n/a	n/a	-999	15	[0, 0, 0]	n/a	FR1	0	R1323T
2356.402	0.0	2357828	TRIAL	n/a	n/a	n/a	-999	15	[0, 0, 0]	n/a	FR1	0	R1323T
2356.402	3.294	2357828	WAITING_START	n/a	n/a	n/a	-999	15	[0, 0, 0]	n/a	FR1	0	R1323T
2359.696	0.0	2361122	COUNTDOWN_START	n/a	n/a	n/a	-999	15	[0, 0, 0]	n/a	FR1	0	R1323T
2359.696	10.429	2361122	WAITING_END	n/a	n/a	n/a	-999	15	[0, 0, 0]	n/a	FR1	0	R1323T
2370.125	0.0	2371550	COUNTDOWN_END	n/a	n/a	n/a	-999	15	[0, 0, 0]	n/a	FR1	0	R1323T
2370.125	1.205	2371550	ORIENT_START	n/a	n/a	n/a	-999	15	[0, 0, 0]	n/a	FR1	0	R1323T
2371.33	0.001	2372755	ORIENT_END	n/a	n/a	n/a	-999	15	[0, 0, 0]	n/a	FR1	0	R1323T
2371.331	0.963	2372756	ENCODING_START	n/a	n/a	n/a	-999	15	[0, 0, 0]	n/a	FR1	0	R1323T
2372.294	1.637	2373719	WORD	n/a	wordpools/wordpool_EN.txt	GLASS	1	15	[0, 0, 0]	n/a	FR1	0	R1323T
2373.931	0.894	2375356	WORD_OFF	n/a	n/a	GLASS	1	15	[0, 0, 0]	n/a	FR1	0	R1323T
2374.825	1.607	2376250	WORD	n/a	wordpools/wordpool_EN.txt	BOMB	2	15	[0, 0, 0]	n/a	FR1	0	R1323T
2376.432	0.978	2377857	WORD_OFF	n/a	n/a	BOMB	2	15	[0, 0, 0]	n/a	FR1	0	R1323T
2377.41	1.639	2378835	WORD	n/a	wordpools/wordpool_EN.txt	CLOTH	3	15	[0, 0, 0]	n/a	FR1	0	R1323T
2379.049	0.793	2380474	WORD_OFF	n/a	n/a	CLOTH	3	15	[0, 0, 0]	n/a	FR1	0	R1323T
2379.842	1.625	2381267	WORD	n/a	wordpools/wordpool_EN.txt	BAG	4	15	[0, 0, 0]	n/a	FR1	0	R1323T
2381.467	1.035	2382892	WORD_OFF	n/a	n/a	BAG	4	15	[0, 0, 0]	n/a	FR1	0	R1323T
2382.502	1.631	2383927	WORD	n/a	wordpools/wordpool_EN.txt	BALL	5	15	[0, 0, 0]	n/a	FR1	0	R1323T
2384.133	1.102	2385558	WORD_OFF	n/a	n/a	BALL	5	15	[0, 0, 0]	n/a	FR1	0	R1323T
2385.235	1.632	2386660	WORD	n/a	wordpools/wordpool_EN.txt	FLUTE	6	15	[0, 0, 0]	n/a	FR1	0	R1323T
2386.867	1.041	2388292	WORD_OFF	n/a	n/a	FLUTE	6	15	[0, 0, 0]	n/a	FR1	0	R1323T
2387.908	1.627	2389333	WORD	n/a	wordpools/wordpool_EN.txt	RICE	7	15	[0, 0, 0]	n/a	FR1	0	R1323T
2389.535	1.028	2390960	WORD_OFF	n/a	n/a	RICE	7	15	[0, 0, 0]	n/a	FR1	0	R1323T
2390.563	1.621	2391988	WORD	n/a	wordpools/wordpool_EN.txt	JUICE	8	15	[0, 0, 0]	n/a	FR1	0	R1323T
2392.184	0.842	2393609	WORD_OFF	n/a	n/a	JUICE	8	15	[0, 0, 0]	n/a	FR1	0	R1323T
2393.026	1.626	2394450	WORD	n/a	wordpools/wordpool_EN.txt	SKUNK	9	15	[0, 0, 0]	n/a	FR1	0	R1323T
2394.652	0.972	2396076	WORD_OFF	n/a	n/a	SKUNK	9	15	[0, 0, 0]	n/a	FR1	0	R1323T
2395.624	1.628	2397048	WORD	n/a	wordpools/wordpool_EN.txt	CHIN	10	15	[0, 0, 0]	n/a	FR1	0	R1323T
2397.252	0.912	2398676	WORD_OFF	n/a	n/a	CHIN	10	15	[0, 0, 0]	n/a	FR1	0	R1323T
2398.164	1.622	2399588	WORD	n/a	wordpools/wordpool_EN.txt	RAIN	11	15	[0, 0, 0]	n/a	FR1	0	R1323T
2399.786	0.939	2401210	WORD_OFF	n/a	n/a	RAIN	11	15	[0, 0, 0]	n/a	FR1	0	R1323T
2400.725	1.628	2402149	WORD	n/a	wordpools/wordpool_EN.txt	BRIDGE	12	15	[0, 0, 0]	n/a	FR1	0	R1323T
2402.353	0.0	2403777	WORD_OFF	n/a	n/a	BRIDGE	12	15	[0, 0, 0]	n/a	FR1	0	R1323T
2402.353	0.001	2403777	ENCODING_END	n/a	n/a	n/a	-999	15	[0, 0, 0]	n/a	FR1	0	R1323T
2402.354	0.0	2403778	DISTRACT_START	n/a	n/a	n/a	-999	15	[0, 0, 0]	n/a	FR1	0	R1323T
2402.354	0.015	2403778	START	n/a	n/a	n/a	-999	15	[-999, -999, -999]	n/a	FR1	0	R1323T
2402.369	11.436	2403793	PROB	11.436	n/a	n/a	-999	15	[8, 7, 7]	22	FR1	0	R1323T
2413.805	7.284	2415229	PROB	7.284	n/a	n/a	-999	15	[3, 1, 5]	9	FR1	0	R1323T
2421.089	9.25	2422512	PROB	9.25	n/a	n/a	-999	15	[3, 9, 3]	15	FR1	0	R1323T
2430.339	0.019	2431762	STOP	n/a	n/a	n/a	-999	15	[-999, -999, -999]	n/a	FR1	0	R1323T
2430.358	0.678	2431781	DISTRACT_END	n/a	n/a	n/a	-999	15	[0, 0, 0]	n/a	FR1	0	R1323T
2431.036	1.707	2432459	RETRIEVAL_ORIENT_START	n/a	n/a	n/a	-999	15	[0, 0, 0]	n/a	FR1	0	R1323T
2432.743	0.0	2434166	RETRIEVAL_ORIENT_END	n/a	n/a	n/a	-999	15	[0, 0, 0]	n/a	FR1	0	R1323T
2432.743	0.793	2434166	REC_START	n/a	n/a	n/a	-999	15	[0, 0, 0]	n/a	FR1	0	R1323T
2433.536	1.426	2434959	REC_WORD	1.426	n/a	SKUNK	9	15	[0, 0, 0]	n/a	FR1	0	R1323T
2434.962	1.232	2436385	REC_WORD	1.232	n/a	GLASS	1	15	[0, 0, 0]	n/a	FR1	0	R1323T
2436.194	8.064	2437617	REC_WORD	8.064	n/a	BOMB	2	15	[0, 0, 0]	n/a	FR1	0	R1323T
2444.258	18.497	2445680	REC_WORD	18.497	n/a	CHIN	10	15	[0, 0, 0]	n/a	FR1	0	R1323T
2462.755	0.001	2464176	REC_END	n/a	n/a	n/a	-999	15	[0, 0, 0]	n/a	FR1	0	R1323T
2462.756	0.015	2464177	TRIAL_END	n/a	n/a	n/a	-999	15	[0, 0, 0]	n/a	FR1	0	R1323T
2462.771	0.0	2464192	TRIAL_START	n/a	n/a	n/a	-999	16	[0, 0, 0]	n/a	FR1	0	R1323T
2462.771	0.0	2464192	TRIAL	n/a	n/a	n/a	-999	16	[0, 0, 0]	n/a	FR1	0	R1323T
2462.771	3.46	2464192	WAITING_START	n/a	n/a	n/a	-999	16	[0, 0, 0]	n/a	FR1	0	R1323T
2466.231	0.001	2467652	WAITING_END	n/a	n/a	n/a	-999	16	[0, 0, 0]	n/a	FR1	0	R1323T
2466.232	10.429	2467653	COUNTDOWN_START	n/a	n/a	n/a	-999	16	[0, 0, 0]	n/a	FR1	0	R1323T
2476.661	0.0	2478082	ORIENT_START	n/a	n/a	n/a	-999	16	[0, 0, 0]	n/a	FR1	0	R1323T
2476.661	1.222	2478082	COUNTDOWN_END	n/a	n/a	n/a	-999	16	[0, 0, 0]	n/a	FR1	0	R1323T
2477.883	0.001	2479304	ORIENT_END	n/a	n/a	n/a	-999	16	[0, 0, 0]	n/a	FR1	0	R1323T
2477.884	0.918	2479305	ENCODING_START	n/a	n/a	n/a	-999	16	[0, 0, 0]	n/a	FR1	0	R1323T
2478.802	1.616	2480223	WORD	n/a	wordpools/wordpool_EN.txt	DRESS	1	16	[0, 0, 0]	n/a	FR1	0	R1323T
2480.418	0.962	2481839	WORD_OFF	n/a	n/a	DRESS	1	16	[0, 0, 0]	n/a	FR1	0	R1323T
2481.38	1.637	2482801	WORD	n/a	wordpools/wordpool_EN.txt	BEAR	2	16	[0, 0, 0]	n/a	FR1	0	R1323T
2483.017	1.094	2484437	WORD_OFF	n/a	n/a	BEAR	2	16	[0, 0, 0]	n/a	FR1	0	R1323T
2484.111	1.625	2485531	WORD	n/a	wordpools/wordpool_EN.txt	CROWN	3	16	[0, 0, 0]	n/a	FR1	0	R1323T
2485.736	0.964	2487156	WORD_OFF	n/a	n/a	CROWN	3	16	[0, 0, 0]	n/a	FR1	0	R1323T
2486.7	1.635	2488120	WORD	n/a	wordpools/wordpool_EN.txt	BLUSH	4	16	[0, 0, 0]	n/a	FR1	0	R1323T
2488.335	0.973	2489755	WORD_OFF	n/a	n/a	BLUSH	4	16	[0, 0, 0]	n/a	FR1	0	R1323T
2489.308	1.628	2490728	WORD	n/a	wordpools/wordpool_EN.txt	FRUIT	5	16	[0, 0, 0]	n/a	FR1	0	R1323T
2490.936	0.821	2492356	WORD_OFF	n/a	n/a	FRUIT	5	16	[0, 0, 0]	n/a	FR1	0	R1323T
2491.757	1.629	2493177	WORD	n/a	wordpools/wordpool_EN.txt	JET	6	16	[0, 0, 0]	n/a	FR1	0	R1323T
2493.386	0.98	2494806	WORD_OFF	n/a	n/a	JET	6	16	[0, 0, 0]	n/a	FR1	0	R1323T
2494.366	1.62	2495786	WORD	n/a	wordpools/wordpool_EN.txt	JAR	7	16	[0, 0, 0]	n/a	FR1	0	R1323T
2495.986	0.992	2497406	WORD_OFF	n/a	n/a	JAR	7	16	[0, 0, 0]	n/a	FR1	0	R1323T
2496.978	1.626	2498398	WORD	n/a	wordpools/wordpool_EN.txt	GATE	8	16	[0, 0, 0]	n/a	FR1	0	R1323T
2498.604	1.15	2500024	WORD_OFF	n/a	n/a	GATE	8	16	[0, 0, 0]	n/a	FR1	0	R1323T
2499.754	1.633	2501174	WORD	n/a	wordpools/wordpool_EN.txt	SPEAR	9	16	[0, 0, 0]	n/a	FR1	0	R1323T
2501.387	0.935	2502807	WORD_OFF	n/a	n/a	SPEAR	9	16	[0, 0, 0]	n/a	FR1	0	R1323T
2502.322	1.632	2503742	WORD	n/a	wordpools/wordpool_EN.txt	STRING	10	16	[0, 0, 0]	n/a	FR1	0	R1323T
2503.954	1.119	2505374	WORD_OFF	n/a	n/a	STRING	10	16	[0, 0, 0]	n/a	FR1	0	R1323T
2505.073	1.616	2506492	WORD	n/a	wordpools/wordpool_EN.txt	WEB	11	16	[0, 0, 0]	n/a	FR1	0	R1323T
2506.689	0.809	2508108	WORD_OFF	n/a	n/a	WEB	11	16	[0, 0, 0]	n/a	FR1	0	R1323T
2507.498	1.624	2508917	WORD	n/a	wordpools/wordpool_EN.txt	APE	12	16	[0, 0, 0]	n/a	FR1	0	R1323T
2509.122	0.001	2510541	WORD_OFF	n/a	n/a	APE	12	16	[0, 0, 0]	n/a	FR1	0	R1323T
2509.123	0.0	2510542	DISTRACT_START	n/a	n/a	n/a	-999	16	[0, 0, 0]	n/a	FR1	0	R1323T
2509.123	0.0	2510542	ENCODING_END	n/a	n/a	n/a	-999	16	[0, 0, 0]	n/a	FR1	0	R1323T
2509.123	0.016	2510542	START	n/a	n/a	n/a	-999	16	[-999, -999, -999]	n/a	FR1	0	R1323T
2509.139	6.468	2510558	PROB	6.468	n/a	n/a	-999	16	[3, 2, 3]	8	FR1	0	R1323T
2515.607	6.152	2517026	PROB	6.152	n/a	n/a	-999	16	[3, 9, 1]	13	FR1	0	R1323T
2521.759	6.1	2523178	PROB	6.1	n/a	n/a	-999	16	[1, 2, 2]	5	FR1	0	R1323T
2527.859	7.432	2529277	PROB	7.432	n/a	n/a	-999	16	[7, 2, 5]	14	FR1	0	R1323T
2535.291	0.019	2536709	STOP	n/a	n/a	n/a	-999	16	[-999, -999, -999]	n/a	FR1	0	R1323T
2535.31	0.591	2536728	DISTRACT_END	n/a	n/a	n/a	-999	16	[0, 0, 0]	n/a	FR1	0	R1323T
2535.901	1.577	2537319	RETRIEVAL_ORIENT_START	n/a	n/a	n/a	-999	16	[0, 0, 0]	n/a	FR1	0	R1323T
2537.478	0.001	2538896	RETRIEVAL_ORIENT_END	n/a	n/a	n/a	-999	16	[0, 0, 0]	n/a	FR1	0	R1323T
2537.479	1.438	2538897	REC_START	n/a	n/a	n/a	-999	16	[0, 0, 0]	n/a	FR1	0	R1323T
2538.917	1.288	2540335	REC_WORD	1.288	n/a	APE	12	16	[0, 0, 0]	n/a	FR1	0	R1323T
2540.205	5.29	2541623	REC_WORD	5.29	n/a	GLASS	-999	16	[0, 0, 0]	n/a	FR1	0	R1323T
2545.495	21.996	2546913	REC_WORD	21.996	n/a	BEAR	2	16	[0, 0, 0]	n/a	FR1	0	R1323T
2567.491	0.0	2568908	TRIAL_END	n/a	n/a	n/a	-999	16	[0, 0, 0]	n/a	FR1	0	R1323T
2567.491	0.015	2568908	REC_END	n/a	n/a	n/a	-999	16	[0, 0, 0]	n/a	FR1	0	R1323T
2567.506	0.0	2568923	TRIAL_START	n/a	n/a	n/a	-999	17	[0, 0, 0]	n/a	FR1	0	R1323T
2567.506	0.0	2568923	TRIAL	n/a	n/a	n/a	-999	17	[0, 0, 0]	n/a	FR1	0	R1323T
2567.506	3.277	2568923	WAITING_START	n/a	n/a	n/a	-999	17	[0, 0, 0]	n/a	FR1	0	R1323T
2570.783	0.001	2572200	WAITING_END	n/a	n/a	n/a	-999	17	[0, 0, 0]	n/a	FR1	0	R1323T
2570.784	10.428	2572201	COUNTDOWN_START	n/a	n/a	n/a	-999	17	[0, 0, 0]	n/a	FR1	0	R1323T
2581.212	0.0	2582628	COUNTDOWN_END	n/a	n/a	n/a	-999	17	[0, 0, 0]	n/a	FR1	0	R1323T
2581.212	1.107	2582628	ORIENT_START	n/a	n/a	n/a	-999	17	[0, 0, 0]	n/a	FR1	0	R1323T
2582.319	0.0	2583735	ENCODING_START	n/a	n/a	n/a	-999	17	[0, 0, 0]	n/a	FR1	0	R1323T
2582.319	1.026	2583735	ORIENT_END	n/a	n/a	n/a	-999	17	[0, 0, 0]	n/a	FR1	0	R1323T
2583.345	1.624	2584761	WORD	n/a	wordpools/wordpool_EN.txt	MOOSE	1	17	[0, 0, 0]	n/a	FR1	0	R1323T
2584.969	0.775	2586385	WORD_OFF	n/a	n/a	MOOSE	1	17	[0, 0, 0]	n/a	FR1	0	R1323T
2585.744	1.626	2587160	WORD	n/a	wordpools/wordpool_EN.txt	SMOKE	2	17	[0, 0, 0]	n/a	FR1	0	R1323T
2587.37	0.816	2588786	WORD_OFF	n/a	n/a	SMOKE	2	17	[0, 0, 0]	n/a	FR1	0	R1323T
2588.186	1.634	2589602	WORD	n/a	wordpools/wordpool_EN.txt	RIB	3	17	[0, 0, 0]	n/a	FR1	0	R1323T
2589.82	1.067	2591236	WORD_OFF	n/a	n/a	RIB	3	17	[0, 0, 0]	n/a	FR1	0	R1323T
2590.887	1.618	2592303	WORD	n/a	wordpools/wordpool_EN.txt	PEAR	4	17	[0, 0, 0]	n/a	FR1	0	R1323T
2592.505	1.127	2593921	WORD_OFF	n/a	n/a	PEAR	4	17	[0, 0, 0]	n/a	FR1	0	R1323T
2593.632	1.622	2595048	WORD	n/a	wordpools/wordpool_EN.txt	CLAY	5	17	[0, 0, 0]	n/a	FR1	0	R1323T
2595.254	0.88	2596669	WORD_OFF	n/a	n/a	CLAY	5	17	[0, 0, 0]	n/a	FR1	0	R1323T
2596.134	1.622	2597549	WORD	n/a	wordpools/wordpool_EN.txt	CROW	6	17	[0, 0, 0]	n/a	FR1	0	R1323T
2597.756	0.926	2599171	WORD_OFF	n/a	n/a	CROW	6	17	[0, 0, 0]	n/a	FR1	0	R1323T
2598.682	1.623	2600097	WORD	n/a	wordpools/wordpool_EN.txt	HAWK	7	17	[0, 0, 0]	n/a	FR1	0	R1323T
2600.305	0.884	2601720	WORD_OFF	n/a	n/a	HAWK	7	17	[0, 0, 0]	n/a	FR1	0	R1323T
2601.189	1.633	2602604	WORD	n/a	wordpools/wordpool_EN.txt	FUR	8	17	[0, 0, 0]	n/a	FR1	0	R1323T
2602.822	0.946	2604237	WORD_OFF	n/a	n/a	FUR	8	17	[0, 0, 0]	n/a	FR1	0	R1323T
2603.768	1.622	2605183	WORD	n/a	wordpools/wordpool_EN.txt	HAT	9	17	[0, 0, 0]	n/a	FR1	0	R1323T
2605.39	1.084	2606805	WORD_OFF	n/a	n/a	HAT	9	17	[0, 0, 0]	n/a	FR1	0	R1323T
2606.474	1.633	2607889	WORD	n/a	wordpools/wordpool_EN.txt	RUG	10	17	[0, 0, 0]	n/a	FR1	0	R1323T
2608.107	1.121	2609522	WORD_OFF	n/a	n/a	RUG	10	17	[0, 0, 0]	n/a	FR1	0	R1323T
2609.228	1.629	2610643	WORD	n/a	wordpools/wordpool_EN.txt	ELF	11	17	[0, 0, 0]	n/a	FR1	0	R1323T
2610.857	1.08	2612272	WORD_OFF	n/a	n/a	ELF	11	17	[0, 0, 0]	n/a	FR1	0	R1323T
2611.937	1.639	2613352	WORD	n/a	wordpools/wordpool_EN.txt	TRUCK	12	17	[0, 0, 0]	n/a	FR1	0	R1323T
2613.576	0.0	2614991	WORD_OFF	n/a	n/a	TRUCK	12	17	[0, 0, 0]	n/a	FR1	0	R1323T
2613.576	0.0	2614991	ENCODING_END	n/a	n/a	n/a	-999	17	[0, 0, 0]	n/a	FR1	0	R1323T
2613.576	0.001	2614991	DISTRACT_START	n/a	n/a	n/a	-999	17	[0, 0, 0]	n/a	FR1	0	R1323T
2613.577	0.015	2614992	START	n/a	n/a	n/a	-999	17	[-999, -999, -999]	n/a	FR1	0	R1323T
2613.592	13.568	2615007	PROB	13.568	n/a	n/a	-999	17	[6, 2, 2]	10	FR1	0	R1323T
2627.16	5.918	2628574	PROB	5.918	n/a	n/a	-999	17	[5, 3, 1]	9	FR1	0	R1323T
2633.078	7.306	2634492	PROB	7.306	n/a	n/a	-999	17	[4, 1, 7]	12	FR1	0	R1323T
2640.384	0.012	2641797	STOP	n/a	n/a	n/a	-999	17	[-999, -999, -999]	n/a	FR1	0	R1323T
2640.396	0.585	2641809	DISTRACT_END	n/a	n/a	n/a	-999	17	[0, 0, 0]	n/a	FR1	0	R1323T
2640.981	1.65	2642394	RETRIEVAL_ORIENT_START	n/a	n/a	n/a	-999	17	[0, 0, 0]	n/a	FR1	0	R1323T
2642.631	0.0	2644044	REC_START	n/a	n/a	n/a	-999	17	[0, 0, 0]	n/a	FR1	0	R1323T
2642.631	1.255	2644044	RETRIEVAL_ORIENT_END	n/a	n/a	n/a	-999	17	[0, 0, 0]	n/a	FR1	0	R1323T
2643.886	1.0	2645299	REC_WORD	1.0	n/a	ELF	11	17	[0, 0, 0]	n/a	FR1	0	R1323T
2644.886	3.694	2646299	REC_WORD_VV	3.694	n/a	<>	-999	17	[0, 0, 0]	n/a	FR1	0	R1323T
2648.58	8.652	2649993	REC_WORD_VV	8.652	n/a	<>	-999	17	[0, 0, 0]	n/a	FR1	0	R1323T
2657.232	10.458	2658645	REC_WORD	10.458	n/a	HAWK	7	17	[0, 0, 0]	n/a	FR1	0	R1323T
2667.69	4.953	2669102	REC_WORD	4.953	n/a	FUR	8	17	[0, 0, 0]	n/a	FR1	0	R1323T
2672.643	0.0	2674055	REC_END	n/a	n/a	n/a	-999	17	[0, 0, 0]	n/a	FR1	0	R1323T
2672.643	0.02	2674055	TRIAL_END	n/a	n/a	n/a	-999	17	[0, 0, 0]	n/a	FR1	0	R1323T
2672.663	0.0	2674075	WAITING_START	n/a	n/a	n/a	-999	18	[0, 0, 0]	n/a	FR1	0	R1323T
2672.663	0.0	2674075	TRIAL	n/a	n/a	n/a	-999	18	[0, 0, 0]	n/a	FR1	0	R1323T
2672.663	3.173	2674075	TRIAL_START	n/a	n/a	n/a	-999	18	[0, 0, 0]	n/a	FR1	0	R1323T
2675.836	0.0	2677248	WAITING_END	n/a	n/a	n/a	-999	18	[0, 0, 0]	n/a	FR1	0	R1323T
2675.836	10.429	2677248	COUNTDOWN_START	n/a	n/a	n/a	-999	18	[0, 0, 0]	n/a	FR1	0	R1323T
2686.265	0.0	2687676	COUNTDOWN_END	n/a	n/a	n/a	-999	18	[0, 0, 0]	n/a	FR1	0	R1323T
2686.265	1.04	2687676	ORIENT_START	n/a	n/a	n/a	-999	18	[0, 0, 0]	n/a	FR1	0	R1323T
2687.305	0.0	2688716	ORIENT_END	n/a	n/a	n/a	-999	18	[0, 0, 0]	n/a	FR1	0	R1323T
2687.305	1.122	2688716	ENCODING_START	n/a	n/a	n/a	-999	18	[0, 0, 0]	n/a	FR1	0	R1323T
2688.427	1.628	2689838	WORD	n/a	wordpools/wordpool_EN.txt	BARN	1	18	[0, 0, 0]	n/a	FR1	0	R1323T
2690.055	0.994	2691466	WORD_OFF	n/a	n/a	BARN	1	18	[0, 0, 0]	n/a	FR1	0	R1323T
2691.049	1.624	2692460	WORD	n/a	wordpools/wordpool_EN.txt	SUN	2	18	[0, 0, 0]	n/a	FR1	0	R1323T
2692.673	0.759	2694084	WORD_OFF	n/a	n/a	SUN	2	18	[0, 0, 0]	n/a	FR1	0	R1323T
2693.432	1.624	2694843	WORD	n/a	wordpools/wordpool_EN.txt	TANK	3	18	[0, 0, 0]	n/a	FR1	0	R1323T
2695.056	0.967	2696467	WORD_OFF	n/a	n/a	TANK	3	18	[0, 0, 0]	n/a	FR1	0	R1323T
2696.023	1.617	2697434	WORD	n/a	wordpools/wordpool_EN.txt	BEE	4	18	[0, 0, 0]	n/a	FR1	0	R1323T
2697.64	0.911	2699051	WORD_OFF	n/a	n/a	BEE	4	18	[0, 0, 0]	n/a	FR1	0	R1323T
2698.551	1.623	2699962	WORD	n/a	wordpools/wordpool_EN.txt	OWL	5	18	[0, 0, 0]	n/a	FR1	0	R1323T
2700.174	1.017	2701585	WORD_OFF	n/a	n/a	OWL	5	18	[0, 0, 0]	n/a	FR1	0	R1323T
2701.191	1.633	2702602	WORD	n/a	wordpools/wordpool_EN.txt	DOOR	6	18	[0, 0, 0]	n/a	FR1	0	R1323T
2702.824	1.017	2704235	WORD_OFF	n/a	n/a	DOOR	6	18	[0, 0, 0]	n/a	FR1	0	R1323T
2703.841	1.635	2705252	WORD	n/a	wordpools/wordpool_EN.txt	NAIL	7	18	[0, 0, 0]	n/a	FR1	0	R1323T
2705.476	0.903	2706887	WORD_OFF	n/a	n/a	NAIL	7	18	[0, 0, 0]	n/a	FR1	0	R1323T
2706.379	1.629	2707790	WORD	n/a	wordpools/wordpool_EN.txt	FOOT	8	18	[0, 0, 0]	n/a	FR1	0	R1323T
2708.008	0.989	2709418	WORD_OFF	n/a	n/a	FOOT	8	18	[0, 0, 0]	n/a	FR1	0	R1323T
2708.997	1.613	2710407	WORD	n/a	wordpools/wordpool_EN.txt	PET	9	18	[0, 0, 0]	n/a	FR1	0	R1323T
2710.61	0.836	2712020	WORD_OFF	n/a	n/a	PET	9	18	[0, 0, 0]	n/a	FR1	0	R1323T
2711.446	1.63	2712856	WORD	n/a	wordpools/wordpool_EN.txt	STORE	10	18	[0, 0, 0]	n/a	FR1	0	R1323T
2713.076	1.031	2714486	WORD_OFF	n/a	n/a	STORE	10	18	[0, 0, 0]	n/a	FR1	0	R1323T
2714.107	1.637	2715517	WORD	n/a	wordpools/wordpool_EN.txt	COUCH	11	18	[0, 0, 0]	n/a	FR1	0	R1323T
2715.744	0.841	2717154	WORD_OFF	n/a	n/a	COUCH	11	18	[0, 0, 0]	n/a	FR1	0	R1323T
2716.585	1.625	2717995	WORD	n/a	wordpools/wordpool_EN.txt	NOSE	12	18	[0, 0, 0]	n/a	FR1	0	R1323T
2718.21	0.001	2719620	WORD_OFF	n/a	n/a	NOSE	12	18	[0, 0, 0]	n/a	FR1	0	R1323T
2718.211	0.0	2719621	ENCODING_END	n/a	n/a	n/a	-999	18	[0, 0, 0]	n/a	FR1	0	R1323T
2718.211	0.0	2719621	DISTRACT_START	n/a	n/a	n/a	-999	18	[0, 0, 0]	n/a	FR1	0	R1323T
2718.211	0.016	2719621	START	n/a	n/a	n/a	-999	18	[-999, -999, -999]	n/a	FR1	0	R1323T
2718.227	15.387	2719637	PROB	15.387	n/a	n/a	-999	18	[3, 5, 6]	14	FR1	0	R1323T
2733.614	7.027	2735023	PROB	7.027	n/a	n/a	-999	18	[3, 3, 4]	10	FR1	0	R1323T
2740.641	0.008	2742050	STOP	n/a	n/a	n/a	-999	18	[-999, -999, -999]	n/a	FR1	0	R1323T
2740.649	0.564	2742058	DISTRACT_END	n/a	n/a	n/a	-999	18	[0, 0, 0]	n/a	FR1	0	R1323T
2741.213	1.668	2742622	RETRIEVAL_ORIENT_START	n/a	n/a	n/a	-999	18	[0, 0, 0]	n/a	FR1	0	R1323T
2742.881	0.001	2744290	RETRIEVAL_ORIENT_END	n/a	n/a	n/a	-999	18	[0, 0, 0]	n/a	FR1	0	R1323T
2742.882	3.61	2744291	REC_START	n/a	n/a	n/a	-999	18	[0, 0, 0]	n/a	FR1	0	R1323T
2746.492	2.844	2747901	REC_WORD	2.844	n/a	BARN	1	18	[0, 0, 0]	n/a	FR1	0	R1323T
2749.336	5.731	2750745	REC_WORD	5.731	n/a	FOOT	8	18	[0, 0, 0]	n/a	FR1	0	R1323T
2755.067	2.09	2756475	REC_WORD_VV	2.09	n/a	<>	-999	18	[0, 0, 0]	n/a	FR1	0	R1323T
2757.157	7.828	2758565	REC_WORD	7.828	n/a	PRO	-999	18	[0, 0, 0]	n/a	FR1	0	R1323T
2764.985	7.908	2766393	REC_WORD	7.908	n/a	BIRD	-999	18	[0, 0, 0]	n/a	FR1	0	R1323T
2772.893	0.0	2774301	REC_END	n/a	n/a	n/a	-999	18	[0, 0, 0]	n/a	FR1	0	R1323T
2772.893	0.015	2774301	TRIAL_END	n/a	n/a	n/a	-999	18	[0, 0, 0]	n/a	FR1	0	R1323T
2772.908	0.0	2774316	TRIAL	n/a	n/a	n/a	-999	19	[0, 0, 0]	n/a	FR1	0	R1323T
2772.908	0.0	2774316	WAITING_START	n/a	n/a	n/a	-999	19	[0, 0, 0]	n/a	FR1	0	R1323T
2772.908	3.229	2774316	TRIAL_START	n/a	n/a	n/a	-999	19	[0, 0, 0]	n/a	FR1	0	R1323T
2776.137	0.001	2777544	WAITING_END	n/a	n/a	n/a	-999	19	[0, 0, 0]	n/a	FR1	0	R1323T
2776.138	10.429	2777545	COUNTDOWN_START	n/a	n/a	n/a	-999	19	[0, 0, 0]	n/a	FR1	0	R1323T
2786.567	0.001	2787974	COUNTDOWN_END	n/a	n/a	n/a	-999	19	[0, 0, 0]	n/a	FR1	0	R1323T
2786.568	1.122	2787975	ORIENT_START	n/a	n/a	n/a	-999	19	[0, 0, 0]	n/a	FR1	0	R1323T
2787.69	0.001	2789097	ORIENT_END	n/a	n/a	n/a	-999	19	[0, 0, 0]	n/a	FR1	0	R1323T
2787.691	0.812	2789098	ENCODING_START	n/a	n/a	n/a	-999	19	[0, 0, 0]	n/a	FR1	0	R1323T
2788.503	1.637	2789910	WORD	n/a	wordpools/wordpool_EN.txt	PEN	1	19	[0, 0, 0]	n/a	FR1	0	R1323T
2790.14	0.903	2791547	WORD_OFF	n/a	n/a	PEN	1	19	[0, 0, 0]	n/a	FR1	0	R1323T
2791.043	1.615	2792450	WORD	n/a	wordpools/wordpool_EN.txt	VAN	2	19	[0, 0, 0]	n/a	FR1	0	R1323T
2792.658	0.779	2794065	WORD_OFF	n/a	n/a	VAN	2	19	[0, 0, 0]	n/a	FR1	0	R1323T
2793.437	1.621	2794844	WORD	n/a	wordpools/wordpool_EN.txt	TEA	3	19	[0, 0, 0]	n/a	FR1	0	R1323T
2795.058	1.07	2796465	WORD_OFF	n/a	n/a	TEA	3	19	[0, 0, 0]	n/a	FR1	0	R1323T
2796.128	1.631	2797535	WORD	n/a	wordpools/wordpool_EN.txt	CAKE	4	19	[0, 0, 0]	n/a	FR1	0	R1323T
2797.759	0.862	2799165	WORD_OFF	n/a	n/a	CAKE	4	19	[0, 0, 0]	n/a	FR1	0	R1323T
2798.621	1.621	2800027	WORD	n/a	wordpools/wordpool_EN.txt	STOOL	5	19	[0, 0, 0]	n/a	FR1	0	R1323T
2800.242	1.119	2801648	WORD_OFF	n/a	n/a	STOOL	5	19	[0, 0, 0]	n/a	FR1	0	R1323T
2801.361	1.631	2802767	WORD	n/a	wordpools/wordpool_EN.txt	SPRING	6	19	[0, 0, 0]	n/a	FR1	0	R1323T
2802.992	0.791	2804398	WORD_OFF	n/a	n/a	SPRING	6	19	[0, 0, 0]	n/a	FR1	0	R1323T
2803.783	1.626	2805189	WORD	n/a	wordpools/wordpool_EN.txt	SNAIL	7	19	[0, 0, 0]	n/a	FR1	0	R1323T
2805.409	0.791	2806815	WORD_OFF	n/a	n/a	SNAIL	7	19	[0, 0, 0]	n/a	FR1	0	R1323T
2806.2	1.627	2807606	WORD	n/a	wordpools/wordpool_EN.txt	SIGN	8	19	[0, 0, 0]	n/a	FR1	0	R1323T
2807.827	0.774	2809233	WORD_OFF	n/a	n/a	SIGN	8	19	[0, 0, 0]	n/a	FR1	0	R1323T
2808.601	1.626	2810007	WORD	n/a	wordpools/wordpool_EN.txt	PIT	9	19	[0, 0, 0]	n/a	FR1	0	R1323T
2810.227	0.75	2811633	WORD_OFF	n/a	n/a	PIT	9	19	[0, 0, 0]	n/a	FR1	0	R1323T
2810.977	1.635	2812383	WORD	n/a	wordpools/wordpool_EN.txt	ROPE	10	19	[0, 0, 0]	n/a	FR1	0	R1323T
2812.612	0.944	2814018	WORD_OFF	n/a	n/a	ROPE	10	19	[0, 0, 0]	n/a	FR1	0	R1323T
2813.556	1.622	2814962	WORD	n/a	wordpools/wordpool_EN.txt	ZOO	11	19	[0, 0, 0]	n/a	FR1	0	R1323T
2815.178	1.062	2816584	WORD_OFF	n/a	n/a	ZOO	11	19	[0, 0, 0]	n/a	FR1	0	R1323T
2816.24	1.622	2817646	WORD	n/a	wordpools/wordpool_EN.txt	KEY	12	19	[0, 0, 0]	n/a	FR1	0	R1323T
2817.862	0.0	2819268	WORD_OFF	n/a	n/a	KEY	12	19	[0, 0, 0]	n/a	FR1	0	R1323T
2817.862	0.0	2819268	ENCODING_END	n/a	n/a	n/a	-999	19	[0, 0, 0]	n/a	FR1	0	R1323T
2817.862	0.001	2819268	DISTRACT_START	n/a	n/a	n/a	-999	19	[0, 0, 0]	n/a	FR1	0	R1323T
2817.863	0.015	2819269	START	n/a	n/a	n/a	-999	19	[-999, -999, -999]	n/a	FR1	0	R1323T
2817.878	8.268	2819284	PROB	8.268	n/a	n/a	-999	19	[1, 9, 4]	14	FR1	0	R1323T
2826.146	7.068	2827551	PROB	7.068	n/a	n/a	-999	19	[4, 4, 8]	16	FR1	0	R1323T
2833.214	10.128	2834619	PROB	10.128	n/a	n/a	-999	19	[3, 4, 2]	9	FR1	0	R1323T
2843.342	0.008	2844746	STOP	n/a	n/a	n/a	-999	19	[-999, -999, -999]	n/a	FR1	0	R1323T
2843.35	0.621	2844754	DISTRACT_END	n/a	n/a	n/a	-999	19	[0, 0, 0]	n/a	FR1	0	R1323T
2843.971	1.697	2845375	RETRIEVAL_ORIENT_START	n/a	n/a	n/a	-999	19	[0, 0, 0]	n/a	FR1	0	R1323T
2845.668	0.0	2847072	RETRIEVAL_ORIENT_END	n/a	n/a	n/a	-999	19	[0, 0, 0]	n/a	FR1	0	R1323T
2845.668	1.088	2847072	REC_START	n/a	n/a	n/a	-999	19	[0, 0, 0]	n/a	FR1	0	R1323T
2846.756	1.379	2848160	REC_WORD	1.379	n/a	ZOO	11	19	[0, 0, 0]	n/a	FR1	0	R1323T
2848.135	27.546	2849539	REC_WORD	27.546	n/a	KEY	12	19	[0, 0, 0]	n/a	FR1	0	R1323T
2875.681	0.0	2877084	REC_END	n/a	n/a	n/a	-999	19	[0, 0, 0]	n/a	FR1	0	R1323T
2875.681	0.014	2877084	TRIAL_END	n/a	n/a	n/a	-999	19	[0, 0, 0]	n/a	FR1	0	R1323T
2875.695	0.001	2877098	TRIAL_START	n/a	n/a	n/a	-999	20	[0, 0, 0]	n/a	FR1	0	R1323T
2875.696	0.0	2877099	TRIAL	n/a	n/a	n/a	-999	20	[0, 0, 0]	n/a	FR1	0	R1323T
2875.696	4.627	2877099	WAITING_START	n/a	n/a	n/a	-999	20	[0, 0, 0]	n/a	FR1	0	R1323T
2880.323	0.0	2881726	WAITING_END	n/a	n/a	n/a	-999	20	[0, 0, 0]	n/a	FR1	0	R1323T
2880.323	10.43	2881726	COUNTDOWN_START	n/a	n/a	n/a	-999	20	[0, 0, 0]	n/a	FR1	0	R1323T
2890.753	0.0	2892155	ORIENT_START	n/a	n/a	n/a	-999	20	[0, 0, 0]	n/a	FR1	0	R1323T
2890.753	1.255	2892155	COUNTDOWN_END	n/a	n/a	n/a	-999	20	[0, 0, 0]	n/a	FR1	0	R1323T
2892.008	0.001	2893410	ORIENT_END	n/a	n/a	n/a	-999	20	[0, 0, 0]	n/a	FR1	0	R1323T
2892.009	0.953	2893411	ENCODING_START	n/a	n/a	n/a	-999	20	[0, 0, 0]	n/a	FR1	0	R1323T
2892.962	1.631	2894364	WORD	n/a	wordpools/wordpool_EN.txt	CLOUD	1	20	[0, 0, 0]	n/a	FR1	0	R1323T
2894.593	1.148	2895995	WORD_OFF	n/a	n/a	CLOUD	1	20	[0, 0, 0]	n/a	FR1	0	R1323T
2895.741	1.635	2897143	WORD	n/a	wordpools/wordpool_EN.txt	PLANT	2	20	[0, 0, 0]	n/a	FR1	0	R1323T
2897.376	0.983	2898778	WORD_OFF	n/a	n/a	PLANT	2	20	[0, 0, 0]	n/a	FR1	0	R1323T
2898.359	1.634	2899761	WORD	n/a	wordpools/wordpool_EN.txt	DART	3	20	[0, 0, 0]	n/a	FR1	0	R1323T
2899.993	0.997	2901395	WORD_OFF	n/a	n/a	DART	3	20	[0, 0, 0]	n/a	FR1	0	R1323T
2900.99	1.638	2902392	WORD	n/a	wordpools/wordpool_EN.txt	BAND	4	20	[0, 0, 0]	n/a	FR1	0	R1323T
2902.628	0.798	2904030	WORD_OFF	n/a	n/a	BAND	4	20	[0, 0, 0]	n/a	FR1	0	R1323T
2903.426	1.635	2904828	WORD	n/a	wordpools/wordpool_EN.txt	PASTE	5	20	[0, 0, 0]	n/a	FR1	0	R1323T
2905.061	0.792	2906463	WORD_OFF	n/a	n/a	PASTE	5	20	[0, 0, 0]	n/a	FR1	0	R1323T
2905.853	1.626	2907255	WORD	n/a	wordpools/wordpool_EN.txt	SINK	6	20	[0, 0, 0]	n/a	FR1	0	R1323T
2907.479	1.087	2908881	WORD_OFF	n/a	n/a	SINK	6	20	[0, 0, 0]	n/a	FR1	0	R1323T
2908.566	1.629	2909968	WORD	n/a	wordpools/wordpool_EN.txt	SLEEVE	7	20	[0, 0, 0]	n/a	FR1	0	R1323T
2910.195	0.799	2911596	WORD_OFF	n/a	n/a	SLEEVE	7	20	[0, 0, 0]	n/a	FR1	0	R1323T
2910.994	1.636	2912395	WORD	n/a	wordpools/wordpool_EN.txt	POOL	8	20	[0, 0, 0]	n/a	FR1	0	R1323T
2912.63	1.124	2914031	WORD_OFF	n/a	n/a	POOL	8	20	[0, 0, 0]	n/a	FR1	0	R1323T
2913.754	1.625	2915155	WORD	n/a	wordpools/wordpool_EN.txt	ARM	9	20	[0, 0, 0]	n/a	FR1	0	R1323T
2915.379	1.151	2916780	WORD_OFF	n/a	n/a	ARM	9	20	[0, 0, 0]	n/a	FR1	0	R1323T
2916.53	1.633	2917931	WORD	n/a	wordpools/wordpool_EN.txt	FAN	10	20	[0, 0, 0]	n/a	FR1	0	R1323T
2918.163	0.994	2919564	WORD_OFF	n/a	n/a	FAN	10	20	[0, 0, 0]	n/a	FR1	0	R1323T
2919.157	1.623	2920558	WORD	n/a	wordpools/wordpool_EN.txt	CAT	11	20	[0, 0, 0]	n/a	FR1	0	R1323T
2920.78	0.999	2922181	WORD_OFF	n/a	n/a	CAT	11	20	[0, 0, 0]	n/a	FR1	0	R1323T
2921.779	1.636	2923180	WORD	n/a	wordpools/wordpool_EN.txt	GRAPE	12	20	[0, 0, 0]	n/a	FR1	0	R1323T
2923.415	0.001	2924816	WORD_OFF	n/a	n/a	GRAPE	12	20	[0, 0, 0]	n/a	FR1	0	R1323T
2923.416	0.0	2924817	ENCODING_END	n/a	n/a	n/a	-999	20	[0, 0, 0]	n/a	FR1	0	R1323T
2923.416	0.0	2924817	DISTRACT_START	n/a	n/a	n/a	-999	20	[0, 0, 0]	n/a	FR1	0	R1323T
2923.416	0.016	2924817	START	n/a	n/a	n/a	-999	20	[-999, -999, -999]	n/a	FR1	0	R1323T
2923.432	8.168	2924833	PROB	8.168	n/a	n/a	-999	20	[5, 8, 1]	14	FR1	0	R1323T
2931.6	8.085	2933000	PROB	8.085	n/a	n/a	-999	20	[2, 6, 1]	9	FR1	0	R1323T
2939.685	25.708	2941085	PROB	25.708	n/a	n/a	-999	20	[3, 7, 9]	19	FR1	0	R1323T
2965.393	0.012	2966792	STOP	n/a	n/a	n/a	-999	20	[-999, -999, -999]	n/a	FR1	0	R1323T
2965.405	0.661	2966804	DISTRACT_END	n/a	n/a	n/a	-999	20	[0, 0, 0]	n/a	FR1	0	R1323T
2966.066	1.706	2967465	RETRIEVAL_ORIENT_START	n/a	n/a	n/a	-999	20	[0, 0, 0]	n/a	FR1	0	R1323T
2967.772	0.001	2969171	RETRIEVAL_ORIENT_END	n/a	n/a	n/a	-999	20	[0, 0, 0]	n/a	FR1	0	R1323T
2967.773	7.949	2969172	REC_START	n/a	n/a	n/a	-999	20	[0, 0, 0]	n/a	FR1	0	R1323T
2975.722	4.382	2977121	REC_WORD	4.382	n/a	SINK	6	20	[0, 0, 0]	n/a	FR1	0	R1323T
2980.104	17.68	2981502	REC_WORD	17.68	n/a	SPOON	-999	20	[0, 0, 0]	n/a	FR1	0	R1323T
2997.784	0.0	2999182	TRIAL_END	n/a	n/a	n/a	-999	20	[0, 0, 0]	n/a	FR1	0	R1323T
2997.784	0.016	2999182	REC_END	n/a	n/a	n/a	-999	20	[0, 0, 0]	n/a	FR1	0	R1323T
2997.8	0.0	2999198	WAITING_START	n/a	n/a	n/a	-999	21	[0, 0, 0]	n/a	FR1	0	R1323T
2997.8	0.0	2999198	TRIAL	n/a	n/a	n/a	-999	21	[0, 0, 0]	n/a	FR1	0	R1323T
2997.8	3.813	2999198	TRIAL_START	n/a	n/a	n/a	-999	21	[0, 0, 0]	n/a	FR1	0	R1323T
3001.613	0.0	3003010	WAITING_END	n/a	n/a	n/a	-999	21	[0, 0, 0]	n/a	FR1	0	R1323T
3001.613	10.429	3003010	COUNTDOWN_START	n/a	n/a	n/a	-999	21	[0, 0, 0]	n/a	FR1	0	R1323T
3012.042	0.0	3013439	COUNTDOWN_END	n/a	n/a	n/a	-999	21	[0, 0, 0]	n/a	FR1	0	R1323T
3012.042	1.189	3013439	ORIENT_START	n/a	n/a	n/a	-999	21	[0, 0, 0]	n/a	FR1	0	R1323T
3013.231	0.0	3014628	ORIENT_END	n/a	n/a	n/a	-999	21	[0, 0, 0]	n/a	FR1	0	R1323T
3013.231	1.114	3014628	ENCODING_START	n/a	n/a	n/a	-999	21	[0, 0, 0]	n/a	FR1	0	R1323T
3014.345	1.636	3015742	WORD	n/a	wordpools/wordpool_EN.txt	PEA	1	21	[0, 0, 0]	n/a	FR1	0	R1323T
3015.981	0.856	3017378	WORD_OFF	n/a	n/a	PEA	1	21	[0, 0, 0]	n/a	FR1	0	R1323T
3016.837	1.629	3018234	WORD	n/a	wordpools/wordpool_EN.txt	MAZE	2	21	[0, 0, 0]	n/a	FR1	0	R1323T
3018.466	0.976	3019863	WORD_OFF	n/a	n/a	MAZE	2	21	[0, 0, 0]	n/a	FR1	0	R1323T
3019.442	1.623	3020839	WORD	n/a	wordpools/wordpool_EN.txt	ROOM	3	21	[0, 0, 0]	n/a	FR1	0	R1323T
3021.065	0.93	3022462	WORD_OFF	n/a	n/a	ROOM	3	21	[0, 0, 0]	n/a	FR1	0	R1323T
3021.995	1.605	3023391	WORD	n/a	wordpools/wordpool_EN.txt	LOCK	4	21	[0, 0, 0]	n/a	FR1	0	R1323T
3023.6	0.958	3024996	WORD_OFF	n/a	n/a	LOCK	4	21	[0, 0, 0]	n/a	FR1	0	R1323T
3024.558	1.625	3025954	WORD	n/a	wordpools/wordpool_EN.txt	FLOOR	5	21	[0, 0, 0]	n/a	FR1	0	R1323T
3026.183	0.977	3027579	WORD_OFF	n/a	n/a	FLOOR	5	21	[0, 0, 0]	n/a	FR1	0	R1323T
3027.16	1.623	3028556	WORD	n/a	wordpools/wordpool_EN.txt	BEAN	6	21	[0, 0, 0]	n/a	FR1	0	R1323T
3028.783	0.96	3030179	WORD_OFF	n/a	n/a	BEAN	6	21	[0, 0, 0]	n/a	FR1	0	R1323T
3029.743	1.624	3031139	WORD	n/a	wordpools/wordpool_EN.txt	LAMB	7	21	[0, 0, 0]	n/a	FR1	0	R1323T
3031.367	0.93	3032763	WORD_OFF	n/a	n/a	LAMB	7	21	[0, 0, 0]	n/a	FR1	0	R1323T
3032.297	1.637	3033693	WORD	n/a	wordpools/wordpool_EN.txt	DUCK	8	21	[0, 0, 0]	n/a	FR1	0	R1323T
3033.934	0.816	3035330	WORD_OFF	n/a	n/a	DUCK	8	21	[0, 0, 0]	n/a	FR1	0	R1323T
3034.75	1.635	3036146	WORD	n/a	wordpools/wordpool_EN.txt	PIPE	9	21	[0, 0, 0]	n/a	FR1	0	R1323T
3036.385	1.134	3037781	WORD_OFF	n/a	n/a	PIPE	9	21	[0, 0, 0]	n/a	FR1	0	R1323T
3037.519	1.633	3038915	WORD	n/a	wordpools/wordpool_EN.txt	PIG	10	21	[0, 0, 0]	n/a	FR1	0	R1323T
3039.152	0.915	3040548	WORD_OFF	n/a	n/a	PIG	10	21	[0, 0, 0]	n/a	FR1	0	R1323T
3040.067	1.619	3041463	WORD	n/a	wordpools/wordpool_EN.txt	BOX	11	21	[0, 0, 0]	n/a	FR1	0	R1323T
3041.686	1.147	3043082	WORD_OFF	n/a	n/a	BOX	11	21	[0, 0, 0]	n/a	FR1	0	R1323T
3042.833	1.62	3044229	WORD	n/a	wordpools/wordpool_EN.txt	LAMP	12	21	[0, 0, 0]	n/a	FR1	0	R1323T
3044.453	0.001	3045848	WORD_OFF	n/a	n/a	LAMP	12	21	[0, 0, 0]	n/a	FR1	0	R1323T
3044.454	0.0	3045849	ENCODING_END	n/a	n/a	n/a	-999	21	[0, 0, 0]	n/a	FR1	0	R1323T
3044.454	0.0	3045849	DISTRACT_START	n/a	n/a	n/a	-999	21	[0, 0, 0]	n/a	FR1	0	R1323T
3044.454	0.016	3045849	START	n/a	n/a	n/a	-999	21	[-999, -999, -999]	n/a	FR1	0	R1323T
3044.47	18.419	3045865	PROB	18.419	n/a	n/a	-999	21	[9, 5, 7]	21	FR1	0	R1323T
3062.889	6.246	3064284	PROB	6.246	n/a	n/a	-999	21	[3, 6, 2]	11	FR1	0	R1323T
3069.135	0.005	3070529	STOP	n/a	n/a	n/a	-999	21	[-999, -999, -999]	n/a	FR1	0	R1323T
3069.14	0.673	3070534	DISTRACT_END	n/a	n/a	n/a	-999	21	[0, 0, 0]	n/a	FR1	0	R1323T
3069.813	1.595	3071207	RETRIEVAL_ORIENT_START	n/a	n/a	n/a	-999	21	[0, 0, 0]	n/a	FR1	0	R1323T
3071.408	0.0	3072802	RETRIEVAL_ORIENT_END	n/a	n/a	n/a	-999	21	[0, 0, 0]	n/a	FR1	0	R1323T
3071.408	1.231	3072802	REC_START	n/a	n/a	n/a	-999	21	[0, 0, 0]	n/a	FR1	0	R1323T
3072.639	1.155	3074033	REC_WORD	1.155	n/a	PEA	1	21	[0, 0, 0]	n/a	FR1	0	R1323T
3073.794	2.774	3075188	REC_WORD	2.774	n/a	SOUP	-999	21	[0, 0, 0]	n/a	FR1	0	R1323T
3076.568	1.726	3077962	REC_WORD	1.726	n/a	LOCK	4	21	[0, 0, 0]	n/a	FR1	0	R1323T
3078.294	17.157	3079688	REC_WORD	17.157	n/a	KEY	-999	21	[0, 0, 0]	n/a	FR1	0	R1323T
3095.451	0.381	3096844	REC_WORD_VV	0.381	n/a	<>	-999	21	[0, 0, 0]	n/a	FR1	0	R1323T
3095.832	5.588	3097225	REC_WORD	5.588	n/a	PEA	1	21	[0, 0, 0]	n/a	FR1	0	R1323T
3101.42	0.0	3102813	REC_END	n/a	n/a	n/a	-999	21	[0, 0, 0]	n/a	FR1	0	R1323T
3101.42	0.015	3102813	TRIAL_END	n/a	n/a	n/a	-999	21	[0, 0, 0]	n/a	FR1	0	R1323T
3101.435	0.0	3102828	WAITING_START	n/a	n/a	n/a	-999	22	[0, 0, 0]	n/a	FR1	0	R1323T
3101.435	0.0	3102828	TRIAL	n/a	n/a	n/a	-999	22	[0, 0, 0]	n/a	FR1	0	R1323T
3101.435	2.629	3102828	TRIAL_START	n/a	n/a	n/a	-999	22	[0, 0, 0]	n/a	FR1	0	R1323T
3104.064	0.0	3105457	WAITING_END	n/a	n/a	n/a	-999	22	[0, 0, 0]	n/a	FR1	0	R1323T
3104.064	10.429	3105457	COUNTDOWN_START	n/a	n/a	n/a	-999	22	[0, 0, 0]	n/a	FR1	0	R1323T
3114.493	0.0	3115885	COUNTDOWN_END	n/a	n/a	n/a	-999	22	[0, 0, 0]	n/a	FR1	0	R1323T
3114.493	1.207	3115885	ORIENT_START	n/a	n/a	n/a	-999	22	[0, 0, 0]	n/a	FR1	0	R1323T
3115.7	0.0	3117092	ORIENT_END	n/a	n/a	n/a	-999	22	[0, 0, 0]	n/a	FR1	0	R1323T
3115.7	0.794	3117092	ENCODING_START	n/a	n/a	n/a	-999	22	[0, 0, 0]	n/a	FR1	0	R1323T
3116.494	1.622	3117886	WORD	n/a	wordpools/wordpool_EN.txt	PLANE	1	22	[0, 0, 0]	n/a	FR1	0	R1323T
3118.116	1.017	3119508	WORD_OFF	n/a	n/a	PLANE	1	22	[0, 0, 0]	n/a	FR1	0	R1323T
3119.133	1.618	3120525	WORD	n/a	wordpools/wordpool_EN.txt	SMILE	2	22	[0, 0, 0]	n/a	FR1	0	R1323T
3120.751	0.852	3122143	WORD_OFF	n/a	n/a	SMILE	2	22	[0, 0, 0]	n/a	FR1	0	R1323T
3121.603	1.631	3122995	WORD	n/a	wordpools/wordpool_EN.txt	MAP	3	22	[0, 0, 0]	n/a	FR1	0	R1323T
3123.234	0.833	3124626	WORD_OFF	n/a	n/a	MAP	3	22	[0, 0, 0]	n/a	FR1	0	R1323T
3124.067	1.635	3125459	WORD	n/a	wordpools/wordpool_EN.txt	NEST	4	22	[0, 0, 0]	n/a	FR1	0	R1323T
3125.702	1.017	3127094	WORD_OFF	n/a	n/a	NEST	4	22	[0, 0, 0]	n/a	FR1	0	R1323T
3126.719	1.632	3128111	WORD	n/a	wordpools/wordpool_EN.txt	GOLD	5	22	[0, 0, 0]	n/a	FR1	0	R1323T
3128.351	0.951	3129743	WORD_OFF	n/a	n/a	GOLD	5	22	[0, 0, 0]	n/a	FR1	0	R1323T
3129.302	1.633	3130694	WORD	n/a	wordpools/wordpool_EN.txt	SCHOOL	6	22	[0, 0, 0]	n/a	FR1	0	R1323T
3130.935	0.822	3132327	WORD_OFF	n/a	n/a	SCHOOL	6	22	[0, 0, 0]	n/a	FR1	0	R1323T
3131.757	1.629	3133149	WORD	n/a	wordpools/wordpool_EN.txt	DIME	7	22	[0, 0, 0]	n/a	FR1	0	R1323T
3133.386	0.88	3134778	WORD_OFF	n/a	n/a	DIME	7	22	[0, 0, 0]	n/a	FR1	0	R1323T
3134.266	1.637	3135657	WORD	n/a	wordpools/wordpool_EN.txt	STRAW	8	22	[0, 0, 0]	n/a	FR1	0	R1323T
3135.903	1.122	3137294	WORD_OFF	n/a	n/a	STRAW	8	22	[0, 0, 0]	n/a	FR1	0	R1323T
3137.025	1.629	3138416	WORD	n/a	wordpools/wordpool_EN.txt	SAIL	9	22	[0, 0, 0]	n/a	FR1	0	R1323T
3138.654	0.87	3140045	WORD_OFF	n/a	n/a	SAIL	9	22	[0, 0, 0]	n/a	FR1	0	R1323T
3139.524	1.63	3140915	WORD	n/a	wordpools/wordpool_EN.txt	LAKE	10	22	[0, 0, 0]	n/a	FR1	0	R1323T
3141.154	0.794	3142545	WORD_OFF	n/a	n/a	LAKE	10	22	[0, 0, 0]	n/a	FR1	0	R1323T
3141.948	1.624	3143339	WORD	n/a	wordpools/wordpool_EN.txt	DITCH	11	22	[0, 0, 0]	n/a	FR1	0	R1323T
3143.572	0.865	3144963	WORD_OFF	n/a	n/a	DITCH	11	22	[0, 0, 0]	n/a	FR1	0	R1323T
3144.437	1.634	3145828	WORD	n/a	wordpools/wordpool_EN.txt	HEN	12	22	[0, 0, 0]	n/a	FR1	0	R1323T
3146.071	0.001	3147462	WORD_OFF	n/a	n/a	HEN	12	22	[0, 0, 0]	n/a	FR1	0	R1323T
3146.072	0.0	3147463	ENCODING_END	n/a	n/a	n/a	-999	22	[0, 0, 0]	n/a	FR1	0	R1323T
3146.072	0.0	3147463	DISTRACT_START	n/a	n/a	n/a	-999	22	[0, 0, 0]	n/a	FR1	0	R1323T
3146.072	0.016	3147463	START	n/a	n/a	n/a	-999	22	[-999, -999, -999]	n/a	FR1	0	R1323T
3146.088	9.735	3147479	PROB	9.735	n/a	n/a	-999	22	[3, 9, 8]	20	FR1	0	R1323T
3155.823	4.935	3157214	PROB	4.935	n/a	n/a	-999	22	[1, 1, 1]	3	FR1	0	R1323T
3160.758	11.374	3162148	PROB	11.374	n/a	n/a	-999	22	[4, 4, 7]	15	FR1	0	R1323T
3172.132	0.011	3173522	STOP	n/a	n/a	n/a	-999	22	[-999, -999, -999]	n/a	FR1	0	R1323T
3172.143	0.553	3173533	DISTRACT_END	n/a	n/a	n/a	-999	22	[0, 0, 0]	n/a	FR1	0	R1323T
3172.696	1.697	3174086	RETRIEVAL_ORIENT_START	n/a	n/a	n/a	-999	22	[0, 0, 0]	n/a	FR1	0	R1323T
3174.393	0.0	3175783	RETRIEVAL_ORIENT_END	n/a	n/a	n/a	-999	22	[0, 0, 0]	n/a	FR1	0	R1323T
3174.393	0.932	3175783	REC_START	n/a	n/a	n/a	-999	22	[0, 0, 0]	n/a	FR1	0	R1323T
3175.325	1.068	3176715	REC_WORD_VV	1.068	n/a	<>	-999	22	[0, 0, 0]	n/a	FR1	0	R1323T
3176.393	2.242	3177783	REC_WORD	2.242	n/a	DITCH	11	22	[0, 0, 0]	n/a	FR1	0	R1323T
3178.635	2.149	3180024	REC_WORD	2.149	n/a	PLANE	1	22	[0, 0, 0]	n/a	FR1	0	R1323T
3180.784	3.954	3182173	REC_WORD	3.954	n/a	LOCK	-999	22	[0, 0, 0]	n/a	FR1	0	R1323T
3184.738	5.65	3186127	REC_WORD	5.65	n/a	NEST	4	22	[0, 0, 0]	n/a	FR1	0	R1323T
3190.388	14.018	3191777	REC_WORD_VV	14.018	n/a	<>	-999	22	[0, 0, 0]	n/a	FR1	0	R1323T
3204.406	0.0	3205794	REC_END	n/a	n/a	n/a	-999	22	[0, 0, 0]	n/a	FR1	0	R1323T
3204.406	0.017	3205794	TRIAL_END	n/a	n/a	n/a	-999	22	[0, 0, 0]	n/a	FR1	0	R1323T
3204.423	0.001	3205811	TRIAL_START	n/a	n/a	n/a	-999	23	[0, 0, 0]	n/a	FR1	0	R1323T
3204.424	0.0	3205812	WAITING_START	n/a	n/a	n/a	-999	23	[0, 0, 0]	n/a	FR1	0	R1323T
3204.424	4.559	3205812	TRIAL	n/a	n/a	n/a	-999	23	[0, 0, 0]	n/a	FR1	0	R1323T
3208.983	0.0	3210371	WAITING_END	n/a	n/a	n/a	-999	23	[0, 0, 0]	n/a	FR1	0	R1323T
3208.983	10.428	3210371	COUNTDOWN_START	n/a	n/a	n/a	-999	23	[0, 0, 0]	n/a	FR1	0	R1323T
3219.411	0.001	3220799	COUNTDOWN_END	n/a	n/a	n/a	-999	23	[0, 0, 0]	n/a	FR1	0	R1323T
3219.412	1.224	3220800	ORIENT_START	n/a	n/a	n/a	-999	23	[0, 0, 0]	n/a	FR1	0	R1323T
3220.636	0.0	3222024	ORIENT_END	n/a	n/a	n/a	-999	23	[0, 0, 0]	n/a	FR1	0	R1323T
3220.636	0.929	3222024	ENCODING_START	n/a	n/a	n/a	-999	23	[0, 0, 0]	n/a	FR1	0	R1323T
3221.565	1.637	3222953	WORD	n/a	wordpools/wordpool_EN.txt	SEAL	1	23	[0, 0, 0]	n/a	FR1	0	R1323T
3223.202	0.861	3224590	WORD_OFF	n/a	n/a	SEAL	1	23	[0, 0, 0]	n/a	FR1	0	R1323T
3224.063	1.607	3225450	WORD	n/a	wordpools/wordpool_EN.txt	SPONGE	2	23	[0, 0, 0]	n/a	FR1	0	R1323T
3225.67	0.908	3227057	WORD_OFF	n/a	n/a	SPONGE	2	23	[0, 0, 0]	n/a	FR1	0	R1323T
3226.578	1.625	3227965	WORD	n/a	wordpools/wordpool_EN.txt	TEETH	3	23	[0, 0, 0]	n/a	FR1	0	R1323T
3228.203	0.806	3229590	WORD_OFF	n/a	n/a	TEETH	3	23	[0, 0, 0]	n/a	FR1	0	R1323T
3229.009	1.612	3230396	WORD	n/a	wordpools/wordpool_EN.txt	HOOK	4	23	[0, 0, 0]	n/a	FR1	0	R1323T
3230.621	1.11	3232008	WORD_OFF	n/a	n/a	HOOK	4	23	[0, 0, 0]	n/a	FR1	0	R1323T
3231.731	1.623	3233118	WORD	n/a	wordpools/wordpool_EN.txt	ICE	5	23	[0, 0, 0]	n/a	FR1	0	R1323T
3233.354	1.087	3234741	WORD_OFF	n/a	n/a	ICE	5	23	[0, 0, 0]	n/a	FR1	0	R1323T
3234.441	1.63	3235828	WORD	n/a	wordpools/wordpool_EN.txt	SKY	6	23	[0, 0, 0]	n/a	FR1	0	R1323T
3236.071	1.124	3237458	WORD_OFF	n/a	n/a	SKY	6	23	[0, 0, 0]	n/a	FR1	0	R1323T
3237.195	1.626	3238582	WORD	n/a	wordpools/wordpool_EN.txt	BOARD	7	23	[0, 0, 0]	n/a	FR1	0	R1323T
3238.821	0.886	3240208	WORD_OFF	n/a	n/a	BOARD	7	23	[0, 0, 0]	n/a	FR1	0	R1323T
3239.707	1.631	3241094	WORD	n/a	wordpools/wordpool_EN.txt	TOAD	8	23	[0, 0, 0]	n/a	FR1	0	R1323T
3241.338	1.13	3242725	WORD_OFF	n/a	n/a	TOAD	8	23	[0, 0, 0]	n/a	FR1	0	R1323T
3242.468	1.621	3243855	WORD	n/a	wordpools/wordpool_EN.txt	CALF	9	23	[0, 0, 0]	n/a	FR1	0	R1323T
3244.089	0.828	3245476	WORD_OFF	n/a	n/a	CALF	9	23	[0, 0, 0]	n/a	FR1	0	R1323T
3244.917	1.623	3246304	WORD	n/a	wordpools/wordpool_EN.txt	DOCK	10	23	[0, 0, 0]	n/a	FR1	0	R1323T
3246.54	0.949	3247926	WORD_OFF	n/a	n/a	DOCK	10	23	[0, 0, 0]	n/a	FR1	0	R1323T
