onset	duration	sample	trial_type	response_time	stim_file	item_name	serialpos	list	test	answer	experiment	session	subject
0.0	353.845	503	INSTRUCT_START	n/a	n/a	n/a	-999	-999	[0, 0, 0]	n/a	FR1	1	R1331T
353.845	5.084	354332	INSTRUCT_END	n/a	n/a	n/a	-999	-999	[0, 0, 0]	n/a	FR1	1	R1331T
358.929	6.689	359416	MIC TEST_START	n/a	n/a	n/a	-999	-999	[0, 0, 0]	n/a	FR1	1	R1331T
365.618	0.01	366104	MIC TEST_END	n/a	n/a	n/a	-999	-999	[0, 0, 0]	n/a	FR1	1	R1331T
365.628	0.001	366114	TRIAL_START	n/a	n/a	n/a	-999	-1	[0, 0, 0]	n/a	FR1	1	R1331T
365.629	0.0	366115	TRIAL	n/a	n/a	n/a	-999	-1	[0, 0, 0]	n/a	FR1	1	R1331T
365.629	1.052	366115	WAITING_START	n/a	n/a	n/a	-999	-1	[0, 0, 0]	n/a	FR1	1	R1331T
366.681	0.0	367167	WAITING_END	n/a	n/a	n/a	-999	-1	[0, 0, 0]	n/a	FR1	1	R1331T
366.681	10.43	367167	COUNTDOWN_START	n/a	n/a	n/a	-999	-1	[0, 0, 0]	n/a	FR1	1	R1331T
377.111	0.0	377597	COUNTDOWN_END	n/a	n/a	n/a	-999	-1	[0, 0, 0]	n/a	FR1	1	R1331T
377.111	1.121	377597	ORIENT_START	n/a	n/a	n/a	-999	-1	[0, 0, 0]	n/a	FR1	1	R1331T
378.232	0.001	378718	ORIENT_END	n/a	n/a	n/a	-999	-1	[0, 0, 0]	n/a	FR1	1	R1331T
378.233	0.92	378719	ENCODING_START	n/a	n/a	n/a	-999	-1	[0, 0, 0]	n/a	FR1	1	R1331T
379.153	1.63	379639	WORD	n/a	n/a	RELOJ	1	-1	[0, 0, 0]	n/a	FR1	1	R1331T
380.783	1.15	381269	WORD_OFF	n/a	n/a	RELOJ	1	-1	[0, 0, 0]	n/a	FR1	1	R1331T
381.933	1.634	382419	WORD	n/a	n/a	ALGODON	2	-1	[0, 0, 0]	n/a	FR1	1	R1331T
383.567	1.128	384052	WORD_OFF	n/a	n/a	ALGODON	2	-1	[0, 0, 0]	n/a	FR1	1	R1331T
384.695	1.622	385180	WORD	n/a	n/a	ANILLO	3	-1	[0, 0, 0]	n/a	FR1	1	R1331T
386.317	1.053	386802	WORD_OFF	n/a	n/a	ANILLO	3	-1	[0, 0, 0]	n/a	FR1	1	R1331T
387.37	1.631	387855	WORD	n/a	n/a	INUNDACION	4	-1	[0, 0, 0]	n/a	FR1	1	R1331T
389.001	1.121	389486	WORD_OFF	n/a	n/a	INUNDACION	4	-1	[0, 0, 0]	n/a	FR1	1	R1331T
390.122	1.63	390607	WORD	n/a	n/a	CARRETA	5	-1	[0, 0, 0]	n/a	FR1	1	R1331T
391.752	0.885	392237	WORD_OFF	n/a	n/a	CARRETA	5	-1	[0, 0, 0]	n/a	FR1	1	R1331T
392.637	1.632	393122	WORD	n/a	n/a	VIGA	6	-1	[0, 0, 0]	n/a	FR1	1	R1331T
394.269	1.067	394754	WORD_OFF	n/a	n/a	VIGA	6	-1	[0, 0, 0]	n/a	FR1	1	R1331T
395.336	1.633	395821	WORD	n/a	n/a	LENGUA	7	-1	[0, 0, 0]	n/a	FR1	1	R1331T
396.969	0.921	397454	WORD_OFF	n/a	n/a	LENGUA	7	-1	[0, 0, 0]	n/a	FR1	1	R1331T
397.89	1.63	398375	WORD	n/a	n/a	CAMELLO	8	-1	[0, 0, 0]	n/a	FR1	1	R1331T
399.52	0.95	400005	WORD_OFF	n/a	n/a	CAMELLO	8	-1	[0, 0, 0]	n/a	FR1	1	R1331T
400.47	1.633	400955	WORD	n/a	n/a	PECHO	9	-1	[0, 0, 0]	n/a	FR1	1	R1331T
402.103	0.928	402588	WORD_OFF	n/a	n/a	PECHO	9	-1	[0, 0, 0]	n/a	FR1	1	R1331T
403.031	1.623	403516	WORD	n/a	n/a	IMAGEN	10	-1	[0, 0, 0]	n/a	FR1	1	R1331T
404.654	0.963	405138	WORD_OFF	n/a	n/a	IMAGEN	10	-1	[0, 0, 0]	n/a	FR1	1	R1331T
405.617	1.637	406101	WORD	n/a	n/a	BEBE	11	-1	[0, 0, 0]	n/a	FR1	1	R1331T
407.254	0.817	407738	WORD_OFF	n/a	n/a	BEBE	11	-1	[0, 0, 0]	n/a	FR1	1	R1331T
408.071	1.634	408555	WORD	n/a	n/a	RINOCERONTE	12	-1	[0, 0, 0]	n/a	FR1	1	R1331T
409.705	0.0	410189	WORD_OFF	n/a	n/a	RINOCERONTE	12	-1	[0, 0, 0]	n/a	FR1	1	R1331T
409.705	0.0	410189	ENCODING_END	n/a	n/a	n/a	-999	-1	[0, 0, 0]	n/a	FR1	1	R1331T
409.705	0.001	410189	DISTRACT_START	n/a	n/a	n/a	-999	-1	[0, 0, 0]	n/a	FR1	1	R1331T
409.706	0.015	410190	START	n/a	n/a	n/a	-999	-1	[-999, -999, -999]	n/a	FR1	1	R1331T
409.721	30.192	410205	PROB	30.192	n/a	n/a	-999	-1	[1, 2, 3]	6	FR1	1	R1331T
439.913	0.014	440396	STOP	n/a	n/a	n/a	-999	-1	[-999, -999, -999]	n/a	FR1	1	R1331T
439.927	0.641	440410	DISTRACT_END	n/a	n/a	n/a	-999	-1	[0, 0, 0]	n/a	FR1	1	R1331T
440.568	1.693	441051	RETRIEVAL_ORIENT_START	n/a	n/a	n/a	-999	-1	[0, 0, 0]	n/a	FR1	1	R1331T
442.261	0.0	442744	RETRIEVAL_ORIENT_END	n/a	n/a	n/a	-999	-1	[0, 0, 0]	n/a	FR1	1	R1331T
442.261	29.994	442744	REC_START	n/a	n/a	n/a	-999	-1	[0, 0, 0]	n/a	FR1	1	R1331T
472.255	0.019	472736	REC_WORD_VV	0.019	n/a	<>	-999	-1	[0, 0, 0]	n/a	FR1	1	R1331T
472.274	0.0	472755	REC_END	n/a	n/a	n/a	-999	-1	[0, 0, 0]	n/a	FR1	1	R1331T
472.274	43.218	472755	PRACTICE_POST_INSTRUCT_START	n/a	n/a	n/a	-999	-1	[0, 0, 0]	n/a	FR1	1	R1331T
515.492	0.0	515971	PRACTICE_POST_INSTRUCT_END	n/a	n/a	n/a	-999	-1	[0, 0, 0]	n/a	FR1	1	R1331T
515.492	0.018	515971	TRIAL_END	n/a	n/a	n/a	-999	-1	[0, 0, 0]	n/a	FR1	1	R1331T
515.51	0.0	515989	TRIAL	n/a	n/a	n/a	-999	1	[0, 0, 0]	n/a	FR1	1	R1331T
515.51	0.0	515989	WAITING_START	n/a	n/a	n/a	-999	1	[0, 0, 0]	n/a	FR1	1	R1331T
515.51	123.553	515989	TRIAL_START	n/a	n/a	n/a	-999	1	[0, 0, 0]	n/a	FR1	1	R1331T
639.063	0.0	639537	WAITING_END	n/a	n/a	n/a	-999	1	[0, 0, 0]	n/a	FR1	1	R1331T
639.063	10.431	639537	COUNTDOWN_START	n/a	n/a	n/a	-999	1	[0, 0, 0]	n/a	FR1	1	R1331T
649.494	0.0	649967	COUNTDOWN_END	n/a	n/a	n/a	-999	1	[0, 0, 0]	n/a	FR1	1	R1331T
649.494	1.038	649967	ORIENT_START	n/a	n/a	n/a	-999	1	[0, 0, 0]	n/a	FR1	1	R1331T
650.532	0.0	651005	ORIENT_END	n/a	n/a	n/a	-999	1	[0, 0, 0]	n/a	FR1	1	R1331T
650.532	1.021	651005	ENCODING_START	n/a	n/a	n/a	-999	1	[0, 0, 0]	n/a	FR1	1	R1331T
651.553	1.629	652026	WORD	n/a	wordpools/wordpool_long_SP.txt	PEZ	1	1	[0, 0, 0]	n/a	FR1	1	R1331T
653.182	0.904	653655	WORD_OFF	n/a	n/a	PEZ	1	1	[0, 0, 0]	n/a	FR1	1	R1331T
654.086	1.631	654559	WORD	n/a	wordpools/wordpool_long_SP.txt	COSTILLA	2	1	[0, 0, 0]	n/a	FR1	1	R1331T
655.717	0.782	656190	WORD_OFF	n/a	n/a	COSTILLA	2	1	[0, 0, 0]	n/a	FR1	1	R1331T
656.499	1.634	656972	WORD	n/a	wordpools/wordpool_long_SP.txt	SELLO	3	1	[0, 0, 0]	n/a	FR1	1	R1331T
658.133	0.956	658606	WORD_OFF	n/a	n/a	SELLO	3	1	[0, 0, 0]	n/a	FR1	1	R1331T
659.089	1.628	659562	WORD	n/a	wordpools/wordpool_long_SP.txt	CARNET	4	1	[0, 0, 0]	n/a	FR1	1	R1331T
660.717	1.076	661190	WORD_OFF	n/a	n/a	CARNET	4	1	[0, 0, 0]	n/a	FR1	1	R1331T
661.793	1.625	662266	WORD	n/a	wordpools/wordpool_long_SP.txt	VID	5	1	[0, 0, 0]	n/a	FR1	1	R1331T
663.418	0.754	663891	WORD_OFF	n/a	n/a	VID	5	1	[0, 0, 0]	n/a	FR1	1	R1331T
664.172	1.629	664645	WORD	n/a	wordpools/wordpool_long_SP.txt	PERRO	6	1	[0, 0, 0]	n/a	FR1	1	R1331T
665.801	1.131	666274	WORD_OFF	n/a	n/a	PERRO	6	1	[0, 0, 0]	n/a	FR1	1	R1331T
666.932	1.636	667405	WORD	n/a	wordpools/wordpool_long_SP.txt	ESCALERA	7	1	[0, 0, 0]	n/a	FR1	1	R1331T
668.568	1.01	669040	WORD_OFF	n/a	n/a	ESCALERA	7	1	[0, 0, 0]	n/a	FR1	1	R1331T
669.578	1.624	670050	WORD	n/a	wordpools/wordpool_long_SP.txt	CERDO	8	1	[0, 0, 0]	n/a	FR1	1	R1331T
671.202	1.139	671674	WORD_OFF	n/a	n/a	CERDO	8	1	[0, 0, 0]	n/a	FR1	1	R1331T
672.341	1.628	672813	WORD	n/a	wordpools/wordpool_long_SP.txt	REMO	9	1	[0, 0, 0]	n/a	FR1	1	R1331T
673.969	0.905	674441	WORD_OFF	n/a	n/a	REMO	9	1	[0, 0, 0]	n/a	FR1	1	R1331T
674.874	1.629	675346	WORD	n/a	wordpools/wordpool_long_SP.txt	MEJILLA	10	1	[0, 0, 0]	n/a	FR1	1	R1331T
676.503	0.777	676975	WORD_OFF	n/a	n/a	MEJILLA	10	1	[0, 0, 0]	n/a	FR1	1	R1331T
677.28	1.624	677752	WORD	n/a	wordpools/wordpool_long_SP.txt	AVE	11	1	[0, 0, 0]	n/a	FR1	1	R1331T
678.904	1.145	679376	WORD_OFF	n/a	n/a	AVE	11	1	[0, 0, 0]	n/a	FR1	1	R1331T
680.049	1.639	680521	WORD	n/a	wordpools/wordpool_long_SP.txt	BANCA	12	1	[0, 0, 0]	n/a	FR1	1	R1331T
681.688	0.0	682160	WORD_OFF	n/a	n/a	BANCA	12	1	[0, 0, 0]	n/a	FR1	1	R1331T
681.688	0.0	682160	ENCODING_END	n/a	n/a	n/a	-999	1	[0, 0, 0]	n/a	FR1	1	R1331T
681.688	0.001	682160	DISTRACT_START	n/a	n/a	n/a	-999	1	[0, 0, 0]	n/a	FR1	1	R1331T
681.689	0.015	682161	START	n/a	n/a	n/a	-999	1	[-999, -999, -999]	n/a	FR1	1	R1331T
681.704	13.419	682176	PROB	13.419	n/a	n/a	-999	1	[7, 1, 5]	13	FR1	1	R1331T
695.123	9.817	695594	PROB	9.817	n/a	n/a	-999	1	[7, 2, 6]	15	FR1	1	R1331T
704.94	0.018	705411	STOP	n/a	n/a	n/a	-999	1	[-999, -999, -999]	n/a	FR1	1	R1331T
704.958	0.658	705429	DISTRACT_END	n/a	n/a	n/a	-999	1	[0, 0, 0]	n/a	FR1	1	R1331T
705.616	1.693	706087	RETRIEVAL_ORIENT_START	n/a	n/a	n/a	-999	1	[0, 0, 0]	n/a	FR1	1	R1331T
707.309	0.0	707780	RETRIEVAL_ORIENT_END	n/a	n/a	n/a	-999	1	[0, 0, 0]	n/a	FR1	1	R1331T
707.309	7.047	707780	REC_START	n/a	n/a	n/a	-999	1	[0, 0, 0]	n/a	FR1	1	R1331T
714.356	1.782	714826	REC_WORD_VV	1.782	n/a	<>	-999	1	[0, 0, 0]	n/a	FR1	1	R1331T
716.138	0.933	716608	REC_WORD	0.933	n/a	PEZ	1	1	[0, 0, 0]	n/a	FR1	1	R1331T
717.071	2.484	717541	REC_WORD	2.484	n/a	CARNERO	-999	1	[0, 0, 0]	n/a	FR1	1	R1331T
719.555	0.895	720025	REC_WORD_VV	0.895	n/a	<>	-999	1	[0, 0, 0]	n/a	FR1	1	R1331T
720.45	2.935	720920	REC_WORD	2.935	n/a	MEJILLA	10	1	[0, 0, 0]	n/a	FR1	1	R1331T
723.385	1.0	723855	REC_WORD_VV	1.0	n/a	<>	-999	1	[0, 0, 0]	n/a	FR1	1	R1331T
724.385	1.657	724855	REC_WORD_VV	1.657	n/a	<>	-999	1	[0, 0, 0]	n/a	FR1	1	R1331T
726.042	2.016	726512	REC_WORD_VV	2.016	n/a	<>	-999	1	[0, 0, 0]	n/a	FR1	1	R1331T
728.058	4.126	728528	REC_WORD	4.126	n/a	CARNET	4	1	[0, 0, 0]	n/a	FR1	1	R1331T
732.184	5.138	732654	REC_WORD	5.138	n/a	AVE	11	1	[0, 0, 0]	n/a	FR1	1	R1331T
737.322	0.0	737791	REC_END	n/a	n/a	n/a	-999	1	[0, 0, 0]	n/a	FR1	1	R1331T
737.322	0.015	737791	TRIAL_END	n/a	n/a	n/a	-999	1	[0, 0, 0]	n/a	FR1	1	R1331T
737.337	0.0	737806	TRIAL	n/a	n/a	n/a	-999	2	[0, 0, 0]	n/a	FR1	1	R1331T
737.337	0.0	737806	WAITING_START	n/a	n/a	n/a	-999	2	[0, 0, 0]	n/a	FR1	1	R1331T
737.337	3.011	737806	TRIAL_START	n/a	n/a	n/a	-999	2	[0, 0, 0]	n/a	FR1	1	R1331T
740.348	0.0	740817	WAITING_END	n/a	n/a	n/a	-999	2	[0, 0, 0]	n/a	FR1	1	R1331T
740.348	10.43	740817	COUNTDOWN_START	n/a	n/a	n/a	-999	2	[0, 0, 0]	n/a	FR1	1	R1331T
750.778	0.0	751247	COUNTDOWN_END	n/a	n/a	n/a	-999	2	[0, 0, 0]	n/a	FR1	1	R1331T
750.778	1.056	751247	ORIENT_START	n/a	n/a	n/a	-999	2	[0, 0, 0]	n/a	FR1	1	R1331T
751.834	0.0	752303	ORIENT_END	n/a	n/a	n/a	-999	2	[0, 0, 0]	n/a	FR1	1	R1331T
751.834	0.852	752303	ENCODING_START	n/a	n/a	n/a	-999	2	[0, 0, 0]	n/a	FR1	1	R1331T
752.686	1.631	753155	WORD	n/a	wordpools/wordpool_long_SP.txt	CAMARON	1	2	[0, 0, 0]	n/a	FR1	1	R1331T
754.317	0.9	754786	WORD_OFF	n/a	n/a	CAMARON	1	2	[0, 0, 0]	n/a	FR1	1	R1331T
755.217	1.634	755685	WORD	n/a	wordpools/wordpool_long_SP.txt	PIPA	2	2	[0, 0, 0]	n/a	FR1	1	R1331T
756.851	0.771	757319	WORD_OFF	n/a	n/a	PIPA	2	2	[0, 0, 0]	n/a	FR1	1	R1331T
757.622	1.63	758090	WORD	n/a	wordpools/wordpool_long_SP.txt	ARBUSTO	3	2	[0, 0, 0]	n/a	FR1	1	R1331T
759.252	0.809	759720	WORD_OFF	n/a	n/a	ARBUSTO	3	2	[0, 0, 0]	n/a	FR1	1	R1331T
760.061	1.624	760529	WORD	n/a	wordpools/wordpool_long_SP.txt	ESTUFA	4	2	[0, 0, 0]	n/a	FR1	1	R1331T
761.685	0.78	762153	WORD_OFF	n/a	n/a	ESTUFA	4	2	[0, 0, 0]	n/a	FR1	1	R1331T
762.465	1.637	762933	WORD	n/a	wordpools/wordpool_long_SP.txt	MULA	5	2	[0, 0, 0]	n/a	FR1	1	R1331T
764.102	0.889	764570	WORD_OFF	n/a	n/a	MULA	5	2	[0, 0, 0]	n/a	FR1	1	R1331T
764.991	1.629	765459	WORD	n/a	wordpools/wordpool_long_SP.txt	LLAVE	6	2	[0, 0, 0]	n/a	FR1	1	R1331T
766.62	1.088	767088	WORD_OFF	n/a	n/a	LLAVE	6	2	[0, 0, 0]	n/a	FR1	1	R1331T
767.708	1.629	768176	WORD	n/a	wordpools/wordpool_long_SP.txt	HIELO	7	2	[0, 0, 0]	n/a	FR1	1	R1331T
769.337	0.877	769805	WORD_OFF	n/a	n/a	HIELO	7	2	[0, 0, 0]	n/a	FR1	1	R1331T
770.214	1.623	770682	WORD	n/a	wordpools/wordpool_long_SP.txt	MALEZA	8	2	[0, 0, 0]	n/a	FR1	1	R1331T
771.837	1.109	772305	WORD_OFF	n/a	n/a	MALEZA	8	2	[0, 0, 0]	n/a	FR1	1	R1331T
772.946	1.625	773414	WORD	n/a	wordpools/wordpool_long_SP.txt	CAMISA	9	2	[0, 0, 0]	n/a	FR1	1	R1331T
774.571	1.113	775039	WORD_OFF	n/a	n/a	CAMISA	9	2	[0, 0, 0]	n/a	FR1	1	R1331T
775.684	1.638	776152	WORD	n/a	wordpools/wordpool_long_SP.txt	PANTALONES	10	2	[0, 0, 0]	n/a	FR1	1	R1331T
777.322	1.136	777789	WORD_OFF	n/a	n/a	PANTALONES	10	2	[0, 0, 0]	n/a	FR1	1	R1331T
778.458	1.631	778925	WORD	n/a	wordpools/wordpool_long_SP.txt	PUERTA	11	2	[0, 0, 0]	n/a	FR1	1	R1331T
780.089	1.052	780556	WORD_OFF	n/a	n/a	PUERTA	11	2	[0, 0, 0]	n/a	FR1	1	R1331T
781.141	1.631	781608	WORD	n/a	wordpools/wordpool_long_SP.txt	ARBOL	12	2	[0, 0, 0]	n/a	FR1	1	R1331T
782.772	0.001	783239	WORD_OFF	n/a	n/a	ARBOL	12	2	[0, 0, 0]	n/a	FR1	1	R1331T
782.773	0.0	783240	DISTRACT_START	n/a	n/a	n/a	-999	2	[0, 0, 0]	n/a	FR1	1	R1331T
782.773	0.0	783240	ENCODING_END	n/a	n/a	n/a	-999	2	[0, 0, 0]	n/a	FR1	1	R1331T
782.773	0.016	783240	START	n/a	n/a	n/a	-999	2	[-999, -999, -999]	n/a	FR1	1	R1331T
782.789	11.585	783256	PROB	11.585	n/a	n/a	-999	2	[4, 9, 3]	16	FR1	1	R1331T
794.374	7.335	794841	PROB	7.335	n/a	n/a	-999	2	[9, 4, 9]	22	FR1	1	R1331T
801.709	6.474	802175	PROB	6.474	n/a	n/a	-999	2	[7, 2, 6]	15	FR1	1	R1331T
808.183	0.011	808649	STOP	n/a	n/a	n/a	-999	2	[-999, -999, -999]	n/a	FR1	1	R1331T
808.194	0.537	808660	DISTRACT_END	n/a	n/a	n/a	-999	2	[0, 0, 0]	n/a	FR1	1	R1331T
808.731	1.68	809197	RETRIEVAL_ORIENT_START	n/a	n/a	n/a	-999	2	[0, 0, 0]	n/a	FR1	1	R1331T
810.411	0.0	810877	RETRIEVAL_ORIENT_END	n/a	n/a	n/a	-999	2	[0, 0, 0]	n/a	FR1	1	R1331T
810.411	2.732	810877	REC_START	n/a	n/a	n/a	-999	2	[0, 0, 0]	n/a	FR1	1	R1331T
813.143	0.957	813609	REC_WORD	0.957	n/a	CAMARON	-999	2	[0, 0, 0]	n/a	FR1	1	R1331T
814.1	1.947	814566	REC_WORD	1.947	n/a	COSTILLA	-999	2	[0, 0, 0]	n/a	FR1	1	R1331T
816.047	1.0	816513	REC_WORD	1.0	n/a	CARNET	-999	2	[0, 0, 0]	n/a	FR1	1	R1331T
817.047	1.27	817513	REC_WORD_VV	1.27	n/a	<>	-999	2	[0, 0, 0]	n/a	FR1	1	R1331T
818.317	1.675	818783	REC_WORD	1.675	n/a	PANTALONES	10	2	[0, 0, 0]	n/a	FR1	1	R1331T
819.992	3.646	820458	REC_WORD	3.646	n/a	BLUSA	-999	2	[0, 0, 0]	n/a	FR1	1	R1331T
823.638	2.899	824103	REC_WORD	2.899	n/a	LIBRO	-999	2	[0, 0, 0]	n/a	FR1	1	R1331T
826.537	0.642	827002	REC_WORD	0.642	n/a	AVE	-999	2	[0, 0, 0]	n/a	FR1	1	R1331T
827.179	4.116	827644	REC_WORD	4.116	n/a	CIELO	-999	2	[0, 0, 0]	n/a	FR1	1	R1331T
831.295	2.005	831760	REC_WORD_VV	2.005	n/a	<>	-999	2	[0, 0, 0]	n/a	FR1	1	R1331T
833.3	7.122	833765	REC_WORD	7.122	n/a	CALCETA	-999	2	[0, 0, 0]	n/a	FR1	1	R1331T
840.422	0.0	840887	REC_END	n/a	n/a	n/a	-999	2	[0, 0, 0]	n/a	FR1	1	R1331T
840.422	0.014	840887	TRIAL_END	n/a	n/a	n/a	-999	2	[0, 0, 0]	n/a	FR1	1	R1331T
840.436	0.001	840901	TRIAL_START	n/a	n/a	n/a	-999	3	[0, 0, 0]	n/a	FR1	1	R1331T
840.437	0.0	840902	WAITING_START	n/a	n/a	n/a	-999	3	[0, 0, 0]	n/a	FR1	1	R1331T
840.437	3.547	840902	TRIAL	n/a	n/a	n/a	-999	3	[0, 0, 0]	n/a	FR1	1	R1331T
843.984	0.0	844448	WAITING_END	n/a	n/a	n/a	-999	3	[0, 0, 0]	n/a	FR1	1	R1331T
843.984	10.429	844448	COUNTDOWN_START	n/a	n/a	n/a	-999	3	[0, 0, 0]	n/a	FR1	1	R1331T
854.413	0.0	854877	COUNTDOWN_END	n/a	n/a	n/a	-999	3	[0, 0, 0]	n/a	FR1	1	R1331T
854.413	1.156	854877	ORIENT_START	n/a	n/a	n/a	-999	3	[0, 0, 0]	n/a	FR1	1	R1331T
855.569	0.001	856033	ORIENT_END	n/a	n/a	n/a	-999	3	[0, 0, 0]	n/a	FR1	1	R1331T
855.57	1.141	856034	ENCODING_START	n/a	n/a	n/a	-999	3	[0, 0, 0]	n/a	FR1	1	R1331T
856.711	1.625	857175	WORD	n/a	wordpools/wordpool_long_SP.txt	JARRON	1	3	[0, 0, 0]	n/a	FR1	1	R1331T
858.336	0.878	858800	WORD_OFF	n/a	n/a	JARRON	1	3	[0, 0, 0]	n/a	FR1	1	R1331T
859.214	1.623	859678	WORD	n/a	wordpools/wordpool_long_SP.txt	ROBLE	2	3	[0, 0, 0]	n/a	FR1	1	R1331T
860.837	0.77	861301	WORD_OFF	n/a	n/a	ROBLE	2	3	[0, 0, 0]	n/a	FR1	1	R1331T
861.607	1.63	862071	WORD	n/a	wordpools/wordpool_long_SP.txt	CERCA	3	3	[0, 0, 0]	n/a	FR1	1	R1331T
863.237	0.772	863701	WORD_OFF	n/a	n/a	CERCA	3	3	[0, 0, 0]	n/a	FR1	1	R1331T
864.009	1.629	864473	WORD	n/a	wordpools/wordpool_long_SP.txt	SOMBRERO	4	3	[0, 0, 0]	n/a	FR1	1	R1331T
865.638	1.108	866101	WORD_OFF	n/a	n/a	SOMBRERO	4	3	[0, 0, 0]	n/a	FR1	1	R1331T
866.746	1.625	867209	WORD	n/a	wordpools/wordpool_long_SP.txt	CANDADO	5	3	[0, 0, 0]	n/a	FR1	1	R1331T
868.371	0.861	868834	WORD_OFF	n/a	n/a	CANDADO	5	3	[0, 0, 0]	n/a	FR1	1	R1331T
869.232	1.623	869695	WORD	n/a	wordpools/wordpool_long_SP.txt	RUBOR	6	3	[0, 0, 0]	n/a	FR1	1	R1331T
870.855	0.97	871318	WORD_OFF	n/a	n/a	RUBOR	6	3	[0, 0, 0]	n/a	FR1	1	R1331T
871.825	1.631	872288	WORD	n/a	wordpools/wordpool_long_SP.txt	RANA	7	3	[0, 0, 0]	n/a	FR1	1	R1331T
873.456	1.08	873919	WORD_OFF	n/a	n/a	RANA	7	3	[0, 0, 0]	n/a	FR1	1	R1331T
874.536	1.637	874999	WORD	n/a	wordpools/wordpool_long_SP.txt	PISO	8	3	[0, 0, 0]	n/a	FR1	1	R1331T
876.173	1.102	876636	WORD_OFF	n/a	n/a	PISO	8	3	[0, 0, 0]	n/a	FR1	1	R1331T
877.275	1.632	877738	WORD	n/a	wordpools/wordpool_long_SP.txt	FRIJOL	9	3	[0, 0, 0]	n/a	FR1	1	R1331T
878.907	0.813	879370	WORD_OFF	n/a	n/a	FRIJOL	9	3	[0, 0, 0]	n/a	FR1	1	R1331T
879.72	1.637	880183	WORD	n/a	wordpools/wordpool_long_SP.txt	CUADRADO	10	3	[0, 0, 0]	n/a	FR1	1	R1331T
881.357	1.025	881820	WORD_OFF	n/a	n/a	CUADRADO	10	3	[0, 0, 0]	n/a	FR1	1	R1331T
882.382	1.626	882845	WORD	n/a	wordpools/wordpool_long_SP.txt	ZORRO	11	3	[0, 0, 0]	n/a	FR1	1	R1331T
884.008	0.859	884471	WORD_OFF	n/a	n/a	ZORRO	11	3	[0, 0, 0]	n/a	FR1	1	R1331T
884.867	1.624	885330	WORD	n/a	wordpools/wordpool_long_SP.txt	BOTA	12	3	[0, 0, 0]	n/a	FR1	1	R1331T
886.491	0.001	886953	WORD_OFF	n/a	n/a	BOTA	12	3	[0, 0, 0]	n/a	FR1	1	R1331T
886.492	0.0	886954	ENCODING_END	n/a	n/a	n/a	-999	3	[0, 0, 0]	n/a	FR1	1	R1331T
886.492	0.001	886954	DISTRACT_START	n/a	n/a	n/a	-999	3	[0, 0, 0]	n/a	FR1	1	R1331T
886.493	0.015	886955	START	n/a	n/a	n/a	-999	3	[-999, -999, -999]	n/a	FR1	1	R1331T
886.508	13.702	886970	PROB	13.702	n/a	n/a	-999	3	[8, 5, 3]	16	FR1	1	R1331T
900.21	3.734	900672	PROB	3.734	n/a	n/a	-999	3	[6, 2, 1]	9	FR1	1	R1331T
903.944	6.924	904406	PROB	6.924	n/a	n/a	-999	3	[2, 9, 4]	15	FR1	1	R1331T
910.868	0.011	911329	STOP	n/a	n/a	n/a	-999	3	[-999, -999, -999]	n/a	FR1	1	R1331T
910.879	0.538	911340	DISTRACT_END	n/a	n/a	n/a	-999	3	[0, 0, 0]	n/a	FR1	1	R1331T
911.417	1.662	911878	RETRIEVAL_ORIENT_START	n/a	n/a	n/a	-999	3	[0, 0, 0]	n/a	FR1	1	R1331T
913.079	0.001	913540	RETRIEVAL_ORIENT_END	n/a	n/a	n/a	-999	3	[0, 0, 0]	n/a	FR1	1	R1331T
913.08	3.491	913541	REC_START	n/a	n/a	n/a	-999	3	[0, 0, 0]	n/a	FR1	1	R1331T
916.571	1.184	917032	REC_WORD	1.184	n/a	CAMARON	-999	3	[0, 0, 0]	n/a	FR1	1	R1331T
917.755	2.006	918216	REC_WORD	2.006	n/a	COSTILLA	-999	3	[0, 0, 0]	n/a	FR1	1	R1331T
919.761	2.142	920222	REC_WORD	2.142	n/a	AVE	-999	3	[0, 0, 0]	n/a	FR1	1	R1331T
921.903	2.523	922364	REC_WORD	2.523	n/a	CEJO	-999	3	[0, 0, 0]	n/a	FR1	1	R1331T
924.426	3.301	924887	REC_WORD	3.301	n/a	HUERTA	-999	3	[0, 0, 0]	n/a	FR1	1	R1331T
927.727	5.446	928188	REC_WORD	5.446	n/a	CAMISA	-999	3	[0, 0, 0]	n/a	FR1	1	R1331T
933.173	1.174	933633	REC_WORD	1.174	n/a	CALCETA	-999	3	[0, 0, 0]	n/a	FR1	1	R1331T
934.347	2.2	934807	REC_WORD	2.2	n/a	ALGODON	-999	3	[0, 0, 0]	n/a	FR1	1	R1331T
936.547	3.554	937007	REC_WORD	3.554	n/a	CAMISA	-999	3	[0, 0, 0]	n/a	FR1	1	R1331T
940.101	0.191	940561	REC_WORD_VV	0.191	n/a	<>	-999	3	[0, 0, 0]	n/a	FR1	1	R1331T
940.292	2.799	940752	REC_WORD	2.799	n/a	PORTA	-999	3	[0, 0, 0]	n/a	FR1	1	R1331T
943.091	0.0	943551	REC_END	n/a	n/a	n/a	-999	3	[0, 0, 0]	n/a	FR1	1	R1331T
943.091	0.014	943551	TRIAL_END	n/a	n/a	n/a	-999	3	[0, 0, 0]	n/a	FR1	1	R1331T
943.105	0.0	943565	TRIAL	n/a	n/a	n/a	-999	4	[0, 0, 0]	n/a	FR1	1	R1331T
943.105	0.001	943565	TRIAL_START	n/a	n/a	n/a	-999	4	[0, 0, 0]	n/a	FR1	1	R1331T
943.106	2.78	943566	WAITING_START	n/a	n/a	n/a	-999	4	[0, 0, 0]	n/a	FR1	1	R1331T
945.886	0.0	946346	WAITING_END	n/a	n/a	n/a	-999	4	[0, 0, 0]	n/a	FR1	1	R1331T
945.886	10.428	946346	COUNTDOWN_START	n/a	n/a	n/a	-999	4	[0, 0, 0]	n/a	FR1	1	R1331T
956.314	0.001	956773	COUNTDOWN_END	n/a	n/a	n/a	-999	4	[0, 0, 0]	n/a	FR1	1	R1331T
956.315	1.173	956774	ORIENT_START	n/a	n/a	n/a	-999	4	[0, 0, 0]	n/a	FR1	1	R1331T
957.488	0.0	957947	ORIENT_END	n/a	n/a	n/a	-999	4	[0, 0, 0]	n/a	FR1	1	R1331T
957.488	0.857	957947	ENCODING_START	n/a	n/a	n/a	-999	4	[0, 0, 0]	n/a	FR1	1	R1331T
958.345	1.626	958804	WORD	n/a	wordpools/wordpool_long_SP.txt	TARTA	1	4	[0, 0, 0]	n/a	FR1	1	R1331T
959.971	0.865	960430	WORD_OFF	n/a	n/a	TARTA	1	4	[0, 0, 0]	n/a	FR1	1	R1331T
960.836	1.636	961295	WORD	n/a	wordpools/wordpool_long_SP.txt	MADERA	2	4	[0, 0, 0]	n/a	FR1	1	R1331T
962.472	1.048	962931	WORD_OFF	n/a	n/a	MADERA	2	4	[0, 0, 0]	n/a	FR1	1	R1331T
963.52	1.636	963979	WORD	n/a	wordpools/wordpool_long_SP.txt	FREGADERO	3	4	[0, 0, 0]	n/a	FR1	1	R1331T
965.156	0.866	965615	WORD_OFF	n/a	n/a	FREGADERO	3	4	[0, 0, 0]	n/a	FR1	1	R1331T
966.022	1.634	966481	WORD	n/a	wordpools/wordpool_long_SP.txt	PRIMAVERA	4	4	[0, 0, 0]	n/a	FR1	1	R1331T
967.656	1.099	968115	WORD_OFF	n/a	n/a	PRIMAVERA	4	4	[0, 0, 0]	n/a	FR1	1	R1331T
968.755	1.635	969214	WORD	n/a	wordpools/wordpool_long_SP.txt	GRUA	5	4	[0, 0, 0]	n/a	FR1	1	R1331T
970.39	0.783	970849	WORD_OFF	n/a	n/a	GRUA	5	4	[0, 0, 0]	n/a	FR1	1	R1331T
971.173	1.634	971632	WORD	n/a	wordpools/wordpool_long_SP.txt	MAR	6	4	[0, 0, 0]	n/a	FR1	1	R1331T
972.807	1.04	973266	WORD_OFF	n/a	n/a	MAR	6	4	[0, 0, 0]	n/a	FR1	1	R1331T
973.847	1.627	974305	WORD	n/a	wordpools/wordpool_long_SP.txt	CARACOL	7	4	[0, 0, 0]	n/a	FR1	1	R1331T
975.474	0.821	975932	WORD_OFF	n/a	n/a	CARACOL	7	4	[0, 0, 0]	n/a	FR1	1	R1331T
976.295	1.63	976753	WORD	n/a	wordpools/wordpool_long_SP.txt	MURCIELAGO	8	4	[0, 0, 0]	n/a	FR1	1	R1331T
977.925	0.778	978383	WORD_OFF	n/a	n/a	MURCIELAGO	8	4	[0, 0, 0]	n/a	FR1	1	R1331T
978.703	1.639	979161	WORD	n/a	wordpools/wordpool_long_SP.txt	SONRISA	9	4	[0, 0, 0]	n/a	FR1	1	R1331T
980.342	1.037	980800	WORD_OFF	n/a	n/a	SONRISA	9	4	[0, 0, 0]	n/a	FR1	1	R1331T
981.379	1.63	981837	WORD	n/a	wordpools/wordpool_long_SP.txt	PATO	10	4	[0, 0, 0]	n/a	FR1	1	R1331T
983.009	0.848	983467	WORD_OFF	n/a	n/a	PATO	10	4	[0, 0, 0]	n/a	FR1	1	R1331T
983.857	1.636	984315	WORD	n/a	wordpools/wordpool_long_SP.txt	HALCON	11	4	[0, 0, 0]	n/a	FR1	1	R1331T
985.493	0.793	985951	WORD_OFF	n/a	n/a	HALCON	11	4	[0, 0, 0]	n/a	FR1	1	R1331T
986.286	1.624	986744	WORD	n/a	wordpools/wordpool_long_SP.txt	CORONA	12	4	[0, 0, 0]	n/a	FR1	1	R1331T
987.91	0.0	988368	ENCODING_END	n/a	n/a	n/a	-999	4	[0, 0, 0]	n/a	FR1	1	R1331T
987.91	0.0	988368	DISTRACT_START	n/a	n/a	n/a	-999	4	[0, 0, 0]	n/a	FR1	1	R1331T
987.91	0.001	988368	WORD_OFF	n/a	n/a	CORONA	12	4	[0, 0, 0]	n/a	FR1	1	R1331T
987.911	0.015	988369	START	n/a	n/a	n/a	-999	4	[-999, -999, -999]	n/a	FR1	1	R1331T
987.926	74.427	988384	PROB	74.427	n/a	n/a	-999	4	[9, 8, 9]	26	FR1	1	R1331T
1062.353	0.02	1062807	STOP	n/a	n/a	n/a	-999	4	[-999, -999, -999]	n/a	FR1	1	R1331T
1062.373	0.526	1062827	DISTRACT_END	n/a	n/a	n/a	-999	4	[0, 0, 0]	n/a	FR1	1	R1331T
1062.899	1.592	1063353	RETRIEVAL_ORIENT_START	n/a	n/a	n/a	-999	4	[0, 0, 0]	n/a	FR1	1	R1331T
1064.491	0.0	1064945	RETRIEVAL_ORIENT_END	n/a	n/a	n/a	-999	4	[0, 0, 0]	n/a	FR1	1	R1331T
1064.491	29.994	1064945	REC_START	n/a	n/a	n/a	-999	4	[0, 0, 0]	n/a	FR1	1	R1331T
1094.485	0.017	1094938	REC_WORD_VV	0.017	n/a	<>	-999	4	[0, 0, 0]	n/a	FR1	1	R1331T
1094.502	0.001	1094955	REC_END	n/a	n/a	n/a	-999	4	[0, 0, 0]	n/a	FR1	1	R1331T
1094.503	0.014	1094956	TRIAL_END	n/a	n/a	n/a	-999	4	[0, 0, 0]	n/a	FR1	1	R1331T
1094.517	0.0	1094970	TRIAL_START	n/a	n/a	n/a	-999	5	[0, 0, 0]	n/a	FR1	1	R1331T
1094.517	0.0	1094970	TRIAL	n/a	n/a	n/a	-999	5	[0, 0, 0]	n/a	FR1	1	R1331T
1094.517	3.646	1094970	WAITING_START	n/a	n/a	n/a	-999	5	[0, 0, 0]	n/a	FR1	1	R1331T
1098.163	0.001	1098616	WAITING_END	n/a	n/a	n/a	-999	5	[0, 0, 0]	n/a	FR1	1	R1331T
1098.164	10.429	1098617	COUNTDOWN_START	n/a	n/a	n/a	-999	5	[0, 0, 0]	n/a	FR1	1	R1331T
1108.593	0.0	1109045	COUNTDOWN_END	n/a	n/a	n/a	-999	5	[0, 0, 0]	n/a	FR1	1	R1331T
1108.593	1.172	1109045	ORIENT_START	n/a	n/a	n/a	-999	5	[0, 0, 0]	n/a	FR1	1	R1331T
1109.765	0.001	1110217	ORIENT_END	n/a	n/a	n/a	-999	5	[0, 0, 0]	n/a	FR1	1	R1331T
1109.766	1.099	1110218	ENCODING_START	n/a	n/a	n/a	-999	5	[0, 0, 0]	n/a	FR1	1	R1331T
1110.865	1.634	1111317	WORD	n/a	wordpools/wordpool_long_SP.txt	MANO	1	5	[0, 0, 0]	n/a	FR1	1	R1331T
1112.499	0.921	1112951	WORD_OFF	n/a	n/a	MANO	1	5	[0, 0, 0]	n/a	FR1	1	R1331T
1113.42	1.63	1113872	WORD	n/a	wordpools/wordpool_long_SP.txt	PLANTA	2	5	[0, 0, 0]	n/a	FR1	1	R1331T
1115.05	0.945	1115502	WORD_OFF	n/a	n/a	PLANTA	2	5	[0, 0, 0]	n/a	FR1	1	R1331T
1115.995	1.622	1116447	WORD	n/a	wordpools/wordpool_long_SP.txt	LIMO	3	5	[0, 0, 0]	n/a	FR1	1	R1331T
1117.617	0.901	1118069	WORD_OFF	n/a	n/a	LIMO	3	5	[0, 0, 0]	n/a	FR1	1	R1331T
1118.518	1.633	1118970	WORD	n/a	wordpools/wordpool_long_SP.txt	VARITA	4	5	[0, 0, 0]	n/a	FR1	1	R1331T
1120.151	0.884	1120603	WORD_OFF	n/a	n/a	VARITA	4	5	[0, 0, 0]	n/a	FR1	1	R1331T
1121.035	1.633	1121487	WORD	n/a	wordpools/wordpool_long_SP.txt	UVA	5	5	[0, 0, 0]	n/a	FR1	1	R1331T
1122.668	1.127	1123120	WORD_OFF	n/a	n/a	UVA	5	5	[0, 0, 0]	n/a	FR1	1	R1331T
1123.795	1.623	1124247	WORD	n/a	wordpools/wordpool_long_SP.txt	BALLENA	6	5	[0, 0, 0]	n/a	FR1	1	R1331T
1125.418	0.766	1125870	WORD_OFF	n/a	n/a	BALLENA	6	5	[0, 0, 0]	n/a	FR1	1	R1331T
1126.184	1.635	1126636	WORD	n/a	wordpools/wordpool_long_SP.txt	CHALECO	7	5	[0, 0, 0]	n/a	FR1	1	R1331T
1127.819	0.846	1128270	WORD_OFF	n/a	n/a	CHALECO	7	5	[0, 0, 0]	n/a	FR1	1	R1331T
1128.665	1.621	1129116	WORD	n/a	wordpools/wordpool_long_SP.txt	JEFE	8	5	[0, 0, 0]	n/a	FR1	1	R1331T
1130.286	0.852	1130737	WORD_OFF	n/a	n/a	JEFE	8	5	[0, 0, 0]	n/a	FR1	1	R1331T
1131.138	1.632	1131589	WORD	n/a	wordpools/wordpool_long_SP.txt	BANDEJA	9	5	[0, 0, 0]	n/a	FR1	1	R1331T
1132.77	0.853	1133221	WORD_OFF	n/a	n/a	BANDEJA	9	5	[0, 0, 0]	n/a	FR1	1	R1331T
1133.623	1.63	1134074	WORD	n/a	wordpools/wordpool_long_SP.txt	CABALLO	10	5	[0, 0, 0]	n/a	FR1	1	R1331T
1135.253	1.029	1135704	WORD_OFF	n/a	n/a	CABALLO	10	5	[0, 0, 0]	n/a	FR1	1	R1331T
1136.282	1.622	1136733	WORD	n/a	wordpools/wordpool_long_SP.txt	NIDO	11	5	[0, 0, 0]	n/a	FR1	1	R1331T
1137.904	0.865	1138355	WORD_OFF	n/a	n/a	NIDO	11	5	[0, 0, 0]	n/a	FR1	1	R1331T
1138.769	1.635	1139220	WORD	n/a	wordpools/wordpool_long_SP.txt	TIZA	12	5	[0, 0, 0]	n/a	FR1	1	R1331T
1140.404	0.001	1140855	WORD_OFF	n/a	n/a	TIZA	12	5	[0, 0, 0]	n/a	FR1	1	R1331T
1140.405	0.0	1140856	ENCODING_END	n/a	n/a	n/a	-999	5	[0, 0, 0]	n/a	FR1	1	R1331T
1140.405	0.0	1140856	DISTRACT_START	n/a	n/a	n/a	-999	5	[0, 0, 0]	n/a	FR1	1	R1331T
1140.405	0.016	1140856	START	n/a	n/a	n/a	-999	5	[-999, -999, -999]	n/a	FR1	1	R1331T
1140.421	6.251	1140872	PROB	6.251	n/a	n/a	-999	5	[4, 3, 6]	13	FR1	1	R1331T
1146.672	9.602	1147123	PROB	9.602	n/a	n/a	-999	5	[4, 7, 5]	16	FR1	1	R1331T
1156.274	10.78	1156724	PROB	10.78	n/a	n/a	-999	5	[5, 4, 5]	14	FR1	1	R1331T
1167.054	0.022	1167504	STOP	n/a	n/a	n/a	-999	5	[-999, -999, -999]	n/a	FR1	1	R1331T
1167.076	0.642	1167526	DISTRACT_END	n/a	n/a	n/a	-999	5	[0, 0, 0]	n/a	FR1	1	R1331T
1167.718	1.675	1168168	RETRIEVAL_ORIENT_START	n/a	n/a	n/a	-999	5	[0, 0, 0]	n/a	FR1	1	R1331T
1169.393	0.0	1169843	RETRIEVAL_ORIENT_END	n/a	n/a	n/a	-999	5	[0, 0, 0]	n/a	FR1	1	R1331T
1169.393	4.402	1169843	REC_START	n/a	n/a	n/a	-999	5	[0, 0, 0]	n/a	FR1	1	R1331T
1173.795	0.245	1174244	REC_WORD_VV	0.245	n/a	<>	-999	5	[0, 0, 0]	n/a	FR1	1	R1331T
1174.04	0.882	1174489	REC_WORD	0.882	n/a	MANO	1	5	[0, 0, 0]	n/a	FR1	1	R1331T
1174.922	1.463	1175371	REC_WORD	1.463	n/a	JEFE	8	5	[0, 0, 0]	n/a	FR1	1	R1331T
1176.385	1.65	1176834	REC_WORD	1.65	n/a	SONRISA	-999	5	[0, 0, 0]	n/a	FR1	1	R1331T
1178.035	1.583	1178484	REC_WORD	1.583	n/a	PAPEL	-999	5	[0, 0, 0]	n/a	FR1	1	R1331T
1179.618	2.56	1180067	REC_WORD	2.56	n/a	CEJO	-999	5	[0, 0, 0]	n/a	FR1	1	R1331T
1182.178	2.655	1182627	REC_WORD	2.655	n/a	BARRA	-999	5	[0, 0, 0]	n/a	FR1	1	R1331T
1184.833	2.407	1185282	REC_WORD	2.407	n/a	LIMON	-999	5	[0, 0, 0]	n/a	FR1	1	R1331T
1187.24	2.172	1187689	REC_WORD	2.172	n/a	LIMO	3	5	[0, 0, 0]	n/a	FR1	1	R1331T
1189.412	1.412	1189861	REC_WORD	1.412	n/a	CARRO	-999	5	[0, 0, 0]	n/a	FR1	1	R1331T
1190.824	3.944	1191273	REC_WORD	3.944	n/a	PAPEL	-999	5	[0, 0, 0]	n/a	FR1	1	R1331T
1194.768	4.504	1195216	REC_WORD	4.504	n/a	FUERA	-999	5	[0, 0, 0]	n/a	FR1	1	R1331T
1199.272	0.132	1199720	REC_WORD_VV	0.132	n/a	<>	-999	5	[0, 0, 0]	n/a	FR1	1	R1331T
1199.404	0.001	1199852	REC_END	n/a	n/a	n/a	-999	5	[0, 0, 0]	n/a	FR1	1	R1331T
1199.405	0.015	1199853	TRIAL_END	n/a	n/a	n/a	-999	5	[0, 0, 0]	n/a	FR1	1	R1331T
1199.42	0.0	1199868	TRIAL_START	n/a	n/a	n/a	-999	6	[0, 0, 0]	n/a	FR1	1	R1331T
1199.42	0.001	1199868	TRIAL	n/a	n/a	n/a	-999	6	[0, 0, 0]	n/a	FR1	1	R1331T
1199.421	3.345	1199869	WAITING_START	n/a	n/a	n/a	-999	6	[0, 0, 0]	n/a	FR1	1	R1331T
1202.766	0.0	1203214	WAITING_END	n/a	n/a	n/a	-999	6	[0, 0, 0]	n/a	FR1	1	R1331T
1202.766	10.429	1203214	COUNTDOWN_START	n/a	n/a	n/a	-999	6	[0, 0, 0]	n/a	FR1	1	R1331T
1213.195	0.001	1213643	COUNTDOWN_END	n/a	n/a	n/a	-999	6	[0, 0, 0]	n/a	FR1	1	R1331T
1213.196	1.038	1213644	ORIENT_START	n/a	n/a	n/a	-999	6	[0, 0, 0]	n/a	FR1	1	R1331T
1214.234	0.001	1214682	ORIENT_END	n/a	n/a	n/a	-999	6	[0, 0, 0]	n/a	FR1	1	R1331T
1214.235	1.068	1214683	ENCODING_START	n/a	n/a	n/a	-999	6	[0, 0, 0]	n/a	FR1	1	R1331T
1215.303	1.632	1215750	WORD	n/a	wordpools/wordpool_long_SP.txt	RELOJ	1	6	[0, 0, 0]	n/a	FR1	1	R1331T
1216.935	0.97	1217382	WORD_OFF	n/a	n/a	RELOJ	1	6	[0, 0, 0]	n/a	FR1	1	R1331T
1217.905	1.63	1218352	WORD	n/a	wordpools/wordpool_long_SP.txt	RAMA	2	6	[0, 0, 0]	n/a	FR1	1	R1331T
1219.535	1.143	1219982	WORD_OFF	n/a	n/a	RAMA	2	6	[0, 0, 0]	n/a	FR1	1	R1331T
1220.678	1.624	1221125	WORD	n/a	wordpools/wordpool_long_SP.txt	PAPALOTE	3	6	[0, 0, 0]	n/a	FR1	1	R1331T
1222.302	1.138	1222749	WORD_OFF	n/a	n/a	PAPALOTE	3	6	[0, 0, 0]	n/a	FR1	1	R1331T
1223.44	1.63	1223887	WORD	n/a	wordpools/wordpool_long_SP.txt	BOLSA	4	6	[0, 0, 0]	n/a	FR1	1	R1331T
1225.07	1.082	1225517	WORD_OFF	n/a	n/a	BOLSA	4	6	[0, 0, 0]	n/a	FR1	1	R1331T
1226.152	1.635	1226599	WORD	n/a	wordpools/wordpool_long_SP.txt	PATIO	5	6	[0, 0, 0]	n/a	FR1	1	R1331T
1227.787	0.769	1228234	WORD_OFF	n/a	n/a	PATIO	5	6	[0, 0, 0]	n/a	FR1	1	R1331T
1228.556	1.631	1229003	WORD	n/a	wordpools/wordpool_long_SP.txt	OREJA	6	6	[0, 0, 0]	n/a	FR1	1	R1331T
1230.187	1.136	1230634	WORD_OFF	n/a	n/a	OREJA	6	6	[0, 0, 0]	n/a	FR1	1	R1331T
1231.323	1.631	1231770	WORD	n/a	wordpools/wordpool_long_SP.txt	GATO	7	6	[0, 0, 0]	n/a	FR1	1	R1331T
1232.954	0.868	1233401	WORD_OFF	n/a	n/a	GATO	7	6	[0, 0, 0]	n/a	FR1	1	R1331T
1233.822	1.633	1234269	WORD	n/a	wordpools/wordpool_long_SP.txt	MONO	8	6	[0, 0, 0]	n/a	FR1	1	R1331T
1235.455	0.78	1235902	WORD_OFF	n/a	n/a	MONO	8	6	[0, 0, 0]	n/a	FR1	1	R1331T
1236.235	1.637	1236681	WORD	n/a	wordpools/wordpool_long_SP.txt	GUANTE	9	6	[0, 0, 0]	n/a	FR1	1	R1331T
1237.872	0.759	1238318	WORD_OFF	n/a	n/a	GUANTE	9	6	[0, 0, 0]	n/a	FR1	1	R1331T
1238.631	1.625	1239077	WORD	n/a	wordpools/wordpool_long_SP.txt	TRAPO	10	6	[0, 0, 0]	n/a	FR1	1	R1331T
1240.256	0.949	1240702	WORD_OFF	n/a	n/a	TRAPO	10	6	[0, 0, 0]	n/a	FR1	1	R1331T
1241.205	1.635	1241651	WORD	n/a	wordpools/wordpool_long_SP.txt	CONCHA	11	6	[0, 0, 0]	n/a	FR1	1	R1331T
1242.84	0.888	1243286	WORD_OFF	n/a	n/a	CONCHA	11	6	[0, 0, 0]	n/a	FR1	1	R1331T
1243.728	1.629	1244174	WORD	n/a	wordpools/wordpool_long_SP.txt	PANTANO	12	6	[0, 0, 0]	n/a	FR1	1	R1331T
1245.357	0.0	1245803	WORD_OFF	n/a	n/a	PANTANO	12	6	[0, 0, 0]	n/a	FR1	1	R1331T
1245.357	0.0	1245803	ENCODING_END	n/a	n/a	n/a	-999	6	[0, 0, 0]	n/a	FR1	1	R1331T
1245.357	0.001	1245803	DISTRACT_START	n/a	n/a	n/a	-999	6	[0, 0, 0]	n/a	FR1	1	R1331T
1245.358	0.015	1245804	START	n/a	n/a	n/a	-999	6	[-999, -999, -999]	n/a	FR1	1	R1331T
1245.373	5.301	1245819	PROB	5.301	n/a	n/a	-999	6	[5, 1, 1]	7	FR1	1	R1331T
1250.674	8.035	1251120	PROB	8.035	n/a	n/a	-999	6	[8, 5, 1]	14	FR1	1	R1331T
1258.709	9.168	1259154	PROB	9.168	n/a	n/a	-999	6	[9, 7, 1]	17	FR1	1	R1331T
1267.877	0.017	1268322	STOP	n/a	n/a	n/a	-999	6	[-999, -999, -999]	n/a	FR1	1	R1331T
1267.894	0.662	1268339	DISTRACT_END	n/a	n/a	n/a	-999	6	[0, 0, 0]	n/a	FR1	1	R1331T
1268.556	1.705	1269001	RETRIEVAL_ORIENT_START	n/a	n/a	n/a	-999	6	[0, 0, 0]	n/a	FR1	1	R1331T
1270.261	0.001	1270706	RETRIEVAL_ORIENT_END	n/a	n/a	n/a	-999	6	[0, 0, 0]	n/a	FR1	1	R1331T
1270.262	1.828	1270707	REC_START	n/a	n/a	n/a	-999	6	[0, 0, 0]	n/a	FR1	1	R1331T
1272.09	1.396	1272535	REC_WORD	1.396	n/a	MANO	-999	6	[0, 0, 0]	n/a	FR1	1	R1331T
1273.486	1.931	1273931	REC_WORD	1.931	n/a	PAPEL	-999	6	[0, 0, 0]	n/a	FR1	1	R1331T
1275.417	2.08	1275862	REC_WORD	2.08	n/a	RELOJ	1	6	[0, 0, 0]	n/a	FR1	1	R1331T
1277.497	2.397	1277942	REC_WORD	2.397	n/a	CHALECO	-999	6	[0, 0, 0]	n/a	FR1	1	R1331T
1279.894	2.077	1280339	REC_WORD	2.077	n/a	PANTANO	12	6	[0, 0, 0]	n/a	FR1	1	R1331T
1281.971	1.666	1282415	REC_WORD	1.666	n/a	CARNET	-999	6	[0, 0, 0]	n/a	FR1	1	R1331T
1283.637	2.357	1284081	REC_WORD	2.357	n/a	UVA	-999	6	[0, 0, 0]	n/a	FR1	1	R1331T
1285.994	1.6	1286438	REC_WORD	1.6	n/a	BARRA	-999	6	[0, 0, 0]	n/a	FR1	1	R1331T
1287.594	3.11	1288038	REC_WORD	3.11	n/a	PALO	-999	6	[0, 0, 0]	n/a	FR1	1	R1331T
1290.704	2.254	1291148	REC_WORD_VV	2.254	n/a	<>	-999	6	[0, 0, 0]	n/a	FR1	1	R1331T
1292.958	7.314	1293402	REC_WORD	7.314	n/a	BIKE	-999	6	[0, 0, 0]	n/a	FR1	1	R1331T
1300.272	0.0	1300716	REC_END	n/a	n/a	n/a	-999	6	[0, 0, 0]	n/a	FR1	1	R1331T
1300.272	0.015	1300716	TRIAL_END	n/a	n/a	n/a	-999	6	[0, 0, 0]	n/a	FR1	1	R1331T
1300.287	0.001	1300731	TRIAL_START	n/a	n/a	n/a	-999	7	[0, 0, 0]	n/a	FR1	1	R1331T
1300.288	0.0	1300732	TRIAL	n/a	n/a	n/a	-999	7	[0, 0, 0]	n/a	FR1	1	R1331T
1300.288	4.079	1300732	WAITING_START	n/a	n/a	n/a	-999	7	[0, 0, 0]	n/a	FR1	1	R1331T
1304.367	0.001	1304810	WAITING_END	n/a	n/a	n/a	-999	7	[0, 0, 0]	n/a	FR1	1	R1331T
1304.368	10.428	1304811	COUNTDOWN_START	n/a	n/a	n/a	-999	7	[0, 0, 0]	n/a	FR1	1	R1331T
1314.796	0.001	1315239	COUNTDOWN_END	n/a	n/a	n/a	-999	7	[0, 0, 0]	n/a	FR1	1	R1331T
1314.797	1.022	1315240	ORIENT_START	n/a	n/a	n/a	-999	7	[0, 0, 0]	n/a	FR1	1	R1331T
1315.819	0.001	1316262	ORIENT_END	n/a	n/a	n/a	-999	7	[0, 0, 0]	n/a	FR1	1	R1331T
1315.82	0.889	1316263	ENCODING_START	n/a	n/a	n/a	-999	7	[0, 0, 0]	n/a	FR1	1	R1331T
1316.709	1.628	1317152	WORD	n/a	wordpools/wordpool_long_SP.txt	CUBO	1	7	[0, 0, 0]	n/a	FR1	1	R1331T
1318.337	1.109	1318780	WORD_OFF	n/a	n/a	CUBO	1	7	[0, 0, 0]	n/a	FR1	1	R1331T
1319.446	1.624	1319889	WORD	n/a	wordpools/wordpool_long_SP.txt	TABLERO	2	7	[0, 0, 0]	n/a	FR1	1	R1331T
1321.07	1.013	1321513	WORD_OFF	n/a	n/a	TABLERO	2	7	[0, 0, 0]	n/a	FR1	1	R1331T
1322.083	1.638	1322526	WORD	n/a	wordpools/wordpool_long_SP.txt	CRIA	3	7	[0, 0, 0]	n/a	FR1	1	R1331T
1323.721	1.141	1324163	WORD_OFF	n/a	n/a	CRIA	3	7	[0, 0, 0]	n/a	FR1	1	R1331T
1324.862	1.626	1325304	WORD	n/a	wordpools/wordpool_long_SP.txt	PULGA	4	7	[0, 0, 0]	n/a	FR1	1	R1331T
1326.488	0.776	1326930	WORD_OFF	n/a	n/a	PULGA	4	7	[0, 0, 0]	n/a	FR1	1	R1331T
1327.264	1.625	1327706	WORD	n/a	wordpools/wordpool_long_SP.txt	HERRAMIENTA	5	7	[0, 0, 0]	n/a	FR1	1	R1331T
1328.889	1.044	1329331	WORD_OFF	n/a	n/a	HERRAMIENTA	5	7	[0, 0, 0]	n/a	FR1	1	R1331T
1329.933	1.623	1330375	WORD	n/a	wordpools/wordpool_long_SP.txt	MUELLE	6	7	[0, 0, 0]	n/a	FR1	1	R1331T
1331.556	0.816	1331998	WORD_OFF	n/a	n/a	MUELLE	6	7	[0, 0, 0]	n/a	FR1	1	R1331T
1332.372	1.634	1332814	WORD	n/a	wordpools/wordpool_long_SP.txt	LAGO	7	7	[0, 0, 0]	n/a	FR1	1	R1331T
1334.006	1.033	1334448	WORD_OFF	n/a	n/a	LAGO	7	7	[0, 0, 0]	n/a	FR1	1	R1331T
1335.039	1.634	1335481	WORD	n/a	wordpools/wordpool_long_SP.txt	BANDERA	8	7	[0, 0, 0]	n/a	FR1	1	R1331T
1336.673	0.826	1337115	WORD_OFF	n/a	n/a	BANDERA	8	7	[0, 0, 0]	n/a	FR1	1	R1331T
1337.499	1.625	1337941	WORD	n/a	wordpools/wordpool_long_SP.txt	ZANJA	9	7	[0, 0, 0]	n/a	FR1	1	R1331T
1339.124	1.082	1339566	WORD_OFF	n/a	n/a	ZANJA	9	7	[0, 0, 0]	n/a	FR1	1	R1331T
1340.206	1.635	1340648	WORD	n/a	wordpools/wordpool_long_SP.txt	TAMBOR	10	7	[0, 0, 0]	n/a	FR1	1	R1331T
1341.841	1.038	1342283	WORD_OFF	n/a	n/a	TAMBOR	10	7	[0, 0, 0]	n/a	FR1	1	R1331T
1342.879	1.629	1343321	WORD	n/a	wordpools/wordpool_long_SP.txt	FRUTA	11	7	[0, 0, 0]	n/a	FR1	1	R1331T
1344.508	1.041	1344950	WORD_OFF	n/a	n/a	FRUTA	11	7	[0, 0, 0]	n/a	FR1	1	R1331T
1345.549	1.626	1345991	WORD	n/a	wordpools/wordpool_long_SP.txt	AGUANIEVE	12	7	[0, 0, 0]	n/a	FR1	1	R1331T
1347.175	0.001	1347616	WORD_OFF	n/a	n/a	AGUANIEVE	12	7	[0, 0, 0]	n/a	FR1	1	R1331T
1347.176	0.0	1347617	ENCODING_END	n/a	n/a	n/a	-999	7	[0, 0, 0]	n/a	FR1	1	R1331T
1347.176	0.0	1347617	DISTRACT_START	n/a	n/a	n/a	-999	7	[0, 0, 0]	n/a	FR1	1	R1331T
1347.176	0.016	1347617	START	n/a	n/a	n/a	-999	7	[-999, -999, -999]	n/a	FR1	1	R1331T
1347.192	7.601	1347633	PROB	7.601	n/a	n/a	-999	7	[5, 6, 5]	16	FR1	1	R1331T
1354.793	5.051	1355234	PROB	5.051	n/a	n/a	-999	7	[9, 1, 3]	13	FR1	1	R1331T
1359.844	8.436	1360285	PROB	8.436	n/a	n/a	-999	7	[6, 8, 1]	15	FR1	1	R1331T
1368.28	0.016	1368720	STOP	n/a	n/a	n/a	-999	7	[-999, -999, -999]	n/a	FR1	1	R1331T
1368.296	0.593	1368736	DISTRACT_END	n/a	n/a	n/a	-999	7	[0, 0, 0]	n/a	FR1	1	R1331T
1368.889	1.59	1369329	RETRIEVAL_ORIENT_START	n/a	n/a	n/a	-999	7	[0, 0, 0]	n/a	FR1	1	R1331T
1370.479	0.001	1370919	RETRIEVAL_ORIENT_END	n/a	n/a	n/a	-999	7	[0, 0, 0]	n/a	FR1	1	R1331T
1370.48	2.542	1370920	REC_START	n/a	n/a	n/a	-999	7	[0, 0, 0]	n/a	FR1	1	R1331T
1373.022	1.001	1373462	REC_WORD	1.001	n/a	MANO	-999	7	[0, 0, 0]	n/a	FR1	1	R1331T
1374.023	1.18	1374463	REC_WORD	1.18	n/a	PAPEL	-999	7	[0, 0, 0]	n/a	FR1	1	R1331T
1375.203	0.934	1375643	REC_WORD	0.934	n/a	CRIA	-999	7	[0, 0, 0]	n/a	FR1	1	R1331T
1376.137	0.961	1376577	REC_WORD	0.961	n/a	PULGA	4	7	[0, 0, 0]	n/a	FR1	1	R1331T
1377.098	2.299	1377538	REC_WORD	2.299	n/a	OSO	-999	7	[0, 0, 0]	n/a	FR1	1	R1331T
1379.397	1.001	1379837	REC_WORD_VV	1.001	n/a	<>	-999	7	[0, 0, 0]	n/a	FR1	1	R1331T
1380.398	1.0	1380838	REC_WORD	1.0	n/a	SOKETE	-999	7	[0, 0, 0]	n/a	FR1	1	R1331T
1381.398	1.757	1381838	REC_WORD_VV	1.757	n/a	<>	-999	7	[0, 0, 0]	n/a	FR1	1	R1331T
1383.155	3.735	1383595	REC_WORD	3.735	n/a	EMBRA	-999	7	[0, 0, 0]	n/a	FR1	1	R1331T
1386.89	1.715	1387330	REC_WORD_VV	1.715	n/a	<>	-999	7	[0, 0, 0]	n/a	FR1	1	R1331T
1388.605	4.045	1389045	REC_WORD	4.045	n/a	CRIA	-999	7	[0, 0, 0]	n/a	FR1	1	R1331T
1392.65	4.952	1393089	REC_WORD_VV	4.952	n/a	<>	-999	7	[0, 0, 0]	n/a	FR1	1	R1331T
1397.602	1.707	1398041	REC_WORD	1.707	n/a	EMBRIA	-999	7	[0, 0, 0]	n/a	FR1	1	R1331T
1399.309	1.181	1399748	REC_WORD	1.181	n/a	CARNET	-999	7	[0, 0, 0]	n/a	FR1	1	R1331T
1400.49	0.0	1400929	REC_END	n/a	n/a	n/a	-999	7	[0, 0, 0]	n/a	FR1	1	R1331T
1400.49	0.015	1400929	TRIAL_END	n/a	n/a	n/a	-999	7	[0, 0, 0]	n/a	FR1	1	R1331T
1400.505	0.0	1400944	WAITING_START	n/a	n/a	n/a	-999	8	[0, 0, 0]	n/a	FR1	1	R1331T
1400.505	0.0	1400944	TRIAL	n/a	n/a	n/a	-999	8	[0, 0, 0]	n/a	FR1	1	R1331T
1400.505	2.997	1400944	TRIAL_START	n/a	n/a	n/a	-999	8	[0, 0, 0]	n/a	FR1	1	R1331T
1403.502	0.0	1403941	WAITING_END	n/a	n/a	n/a	-999	8	[0, 0, 0]	n/a	FR1	1	R1331T
1403.502	10.43	1403941	COUNTDOWN_START	n/a	n/a	n/a	-999	8	[0, 0, 0]	n/a	FR1	1	R1331T
1413.932	0.0	1414370	COUNTDOWN_END	n/a	n/a	n/a	-999	8	[0, 0, 0]	n/a	FR1	1	R1331T
1413.932	1.222	1414370	ORIENT_START	n/a	n/a	n/a	-999	8	[0, 0, 0]	n/a	FR1	1	R1331T
1415.154	0.001	1415592	ORIENT_END	n/a	n/a	n/a	-999	8	[0, 0, 0]	n/a	FR1	1	R1331T
1415.155	0.992	1415593	ENCODING_START	n/a	n/a	n/a	-999	8	[0, 0, 0]	n/a	FR1	1	R1331T
1416.147	1.624	1416585	WORD	n/a	wordpools/wordpool_long_SP.txt	CESPED	1	8	[0, 0, 0]	n/a	FR1	1	R1331T
1417.771	0.766	1418209	WORD_OFF	n/a	n/a	CESPED	1	8	[0, 0, 0]	n/a	FR1	1	R1331T
1418.537	1.635	1418975	WORD	n/a	wordpools/wordpool_long_SP.txt	CONO	2	8	[0, 0, 0]	n/a	FR1	1	R1331T
1420.172	0.92	1420610	WORD_OFF	n/a	n/a	CONO	2	8	[0, 0, 0]	n/a	FR1	1	R1331T
1421.092	1.63	1421530	WORD	n/a	wordpools/wordpool_long_SP.txt	PICO	3	8	[0, 0, 0]	n/a	FR1	1	R1331T
1422.722	1.102	1423160	WORD_OFF	n/a	n/a	PICO	3	8	[0, 0, 0]	n/a	FR1	1	R1331T
1423.824	1.632	1424262	WORD	n/a	wordpools/wordpool_long_SP.txt	HUEVO	4	8	[0, 0, 0]	n/a	FR1	1	R1331T
1425.456	0.985	1425894	WORD_OFF	n/a	n/a	HUEVO	4	8	[0, 0, 0]	n/a	FR1	1	R1331T
1426.441	1.632	1426879	WORD	n/a	wordpools/wordpool_long_SP.txt	VELA	5	8	[0, 0, 0]	n/a	FR1	1	R1331T
1428.073	0.996	1428511	WORD_OFF	n/a	n/a	VELA	5	8	[0, 0, 0]	n/a	FR1	1	R1331T
1429.069	1.621	1429507	WORD	n/a	wordpools/wordpool_long_SP.txt	SOPA	6	8	[0, 0, 0]	n/a	FR1	1	R1331T
1430.69	0.928	1431128	WORD_OFF	n/a	n/a	SOPA	6	8	[0, 0, 0]	n/a	FR1	1	R1331T
1431.618	1.623	1432056	WORD	n/a	wordpools/wordpool_long_SP.txt	MONEDA	7	8	[0, 0, 0]	n/a	FR1	1	R1331T
1433.241	0.771	1433678	WORD_OFF	n/a	n/a	MONEDA	7	8	[0, 0, 0]	n/a	FR1	1	R1331T
1434.012	1.629	1434449	WORD	n/a	wordpools/wordpool_long_SP.txt	CARCEL	8	8	[0, 0, 0]	n/a	FR1	1	R1331T
1435.641	1.0	1436078	WORD_OFF	n/a	n/a	CARCEL	8	8	[0, 0, 0]	n/a	FR1	1	R1331T
1436.641	1.634	1437078	WORD	n/a	wordpools/wordpool_long_SP.txt	TORMENTA	9	8	[0, 0, 0]	n/a	FR1	1	R1331T
1438.275	0.898	1438712	WORD_OFF	n/a	n/a	TORMENTA	9	8	[0, 0, 0]	n/a	FR1	1	R1331T
1439.173	1.636	1439610	WORD	n/a	wordpools/wordpool_long_SP.txt	CORDEL	10	8	[0, 0, 0]	n/a	FR1	1	R1331T
1440.809	1.002	1441246	WORD_OFF	n/a	n/a	CORDEL	10	8	[0, 0, 0]	n/a	FR1	1	R1331T
1441.811	1.632	1442248	WORD	n/a	wordpools/wordpool_long_SP.txt	ESCUDO	11	8	[0, 0, 0]	n/a	FR1	1	R1331T
1443.443	0.96	1443880	WORD_OFF	n/a	n/a	ESCUDO	11	8	[0, 0, 0]	n/a	FR1	1	R1331T
1444.403	1.624	1444840	WORD	n/a	wordpools/wordpool_long_SP.txt	ROCA	12	8	[0, 0, 0]	n/a	FR1	1	R1331T
1446.027	0.0	1446464	WORD_OFF	n/a	n/a	ROCA	12	8	[0, 0, 0]	n/a	FR1	1	R1331T
1446.027	0.0	1446464	ENCODING_END	n/a	n/a	n/a	-999	8	[0, 0, 0]	n/a	FR1	1	R1331T
1446.027	0.001	1446464	DISTRACT_START	n/a	n/a	n/a	-999	8	[0, 0, 0]	n/a	FR1	1	R1331T
1446.028	0.015	1446465	START	n/a	n/a	n/a	-999	8	[-999, -999, -999]	n/a	FR1	1	R1331T
1446.043	14.669	1446480	PROB	14.669	n/a	n/a	-999	8	[5, 6, 7]	18	FR1	1	R1331T
1460.712	4.068	1461148	PROB	4.068	n/a	n/a	-999	8	[3, 1, 3]	7	FR1	1	R1331T
1464.78	9.571	1465216	PROB	9.571	n/a	n/a	-999	8	[4, 7, 3]	14	FR1	1	R1331T
1474.351	0.014	1474787	STOP	n/a	n/a	n/a	-999	8	[-999, -999, -999]	n/a	FR1	1	R1331T
1474.365	0.634	1474801	DISTRACT_END	n/a	n/a	n/a	-999	8	[0, 0, 0]	n/a	FR1	1	R1331T
1474.999	1.533	1475435	RETRIEVAL_ORIENT_START	n/a	n/a	n/a	-999	8	[0, 0, 0]	n/a	FR1	1	R1331T
1476.532	0.0	1476968	RETRIEVAL_ORIENT_END	n/a	n/a	n/a	-999	8	[0, 0, 0]	n/a	FR1	1	R1331T
1476.532	2.096	1476968	REC_START	n/a	n/a	n/a	-999	8	[0, 0, 0]	n/a	FR1	1	R1331T
1478.628	0.712	1479063	REC_WORD_VV	0.712	n/a	<>	-999	8	[0, 0, 0]	n/a	FR1	1	R1331T
1479.34	1.28	1479775	REC_WORD	1.28	n/a	TORMENTA	9	8	[0, 0, 0]	n/a	FR1	1	R1331T
1480.62	1.252	1481055	REC_WORD	1.252	n/a	JUVIA	-999	8	[0, 0, 0]	n/a	FR1	1	R1331T
1481.872	1.824	1482307	REC_WORD	1.824	n/a	CESPED	-999	8	[0, 0, 0]	n/a	FR1	1	R1331T
1483.696	2.766	1484131	REC_WORD_VV	2.766	n/a	<>	-999	8	[0, 0, 0]	n/a	FR1	1	R1331T
1486.462	2.738	1486897	REC_WORD	2.738	n/a	PAPEL	-999	8	[0, 0, 0]	n/a	FR1	1	R1331T
1489.2	1.967	1489635	REC_WORD	1.967	n/a	CARNET	-999	8	[0, 0, 0]	n/a	FR1	1	R1331T
1491.167	2.021	1491602	REC_WORD	2.021	n/a	ARBOL	-999	8	[0, 0, 0]	n/a	FR1	1	R1331T
1493.188	4.619	1493623	REC_WORD_VV	4.619	n/a	<>	-999	8	[0, 0, 0]	n/a	FR1	1	R1331T
1497.807	2.575	1498242	REC_WORD	2.575	n/a	TIERRA	-999	8	[0, 0, 0]	n/a	FR1	1	R1331T
1500.382	5.344	1500816	REC_WORD	5.344	n/a	RAMA	-999	8	[0, 0, 0]	n/a	FR1	1	R1331T
1505.726	0.817	1506160	REC_WORD	0.817	n/a	HUEVO	4	8	[0, 0, 0]	n/a	FR1	1	R1331T
1506.543	0.0	1506977	TRIAL_END	n/a	n/a	n/a	-999	8	[0, 0, 0]	n/a	FR1	1	R1331T
1506.543	0.017	1506977	REC_END	n/a	n/a	n/a	-999	8	[0, 0, 0]	n/a	FR1	1	R1331T
1506.56	0.0	1506994	TRIAL_START	n/a	n/a	n/a	-999	9	[0, 0, 0]	n/a	FR1	1	R1331T
1506.56	0.0	1506994	TRIAL	n/a	n/a	n/a	-999	9	[0, 0, 0]	n/a	FR1	1	R1331T
1506.56	3.078	1506994	WAITING_START	n/a	n/a	n/a	-999	9	[0, 0, 0]	n/a	FR1	1	R1331T
1509.638	0.0	1510072	WAITING_END	n/a	n/a	n/a	-999	9	[0, 0, 0]	n/a	FR1	1	R1331T
1509.638	10.429	1510072	COUNTDOWN_START	n/a	n/a	n/a	-999	9	[0, 0, 0]	n/a	FR1	1	R1331T
1520.067	0.001	1520501	COUNTDOWN_END	n/a	n/a	n/a	-999	9	[0, 0, 0]	n/a	FR1	1	R1331T
1520.068	1.122	1520502	ORIENT_START	n/a	n/a	n/a	-999	9	[0, 0, 0]	n/a	FR1	1	R1331T
1521.19	0.0	1521623	ORIENT_END	n/a	n/a	n/a	-999	9	[0, 0, 0]	n/a	FR1	1	R1331T
1521.19	0.865	1521623	ENCODING_START	n/a	n/a	n/a	-999	9	[0, 0, 0]	n/a	FR1	1	R1331T
1522.055	1.636	1522488	WORD	n/a	wordpools/wordpool_long_SP.txt	ABEJA	1	9	[0, 0, 0]	n/a	FR1	1	R1331T
1523.691	0.935	1524124	WORD_OFF	n/a	n/a	ABEJA	1	9	[0, 0, 0]	n/a	FR1	1	R1331T
1524.626	1.632	1525059	WORD	n/a	wordpools/wordpool_long_SP.txt	CARA	2	9	[0, 0, 0]	n/a	FR1	1	R1331T
1526.258	0.862	1526691	WORD_OFF	n/a	n/a	CARA	2	9	[0, 0, 0]	n/a	FR1	1	R1331T
1527.12	1.621	1527553	WORD	n/a	wordpools/wordpool_long_SP.txt	SILLA	3	9	[0, 0, 0]	n/a	FR1	1	R1331T
1528.741	1.058	1529174	WORD_OFF	n/a	n/a	SILLA	3	9	[0, 0, 0]	n/a	FR1	1	R1331T
1529.799	1.626	1530232	WORD	n/a	wordpools/wordpool_long_SP.txt	TALLO	4	9	[0, 0, 0]	n/a	FR1	1	R1331T
1531.425	1.085	1531858	WORD_OFF	n/a	n/a	TALLO	4	9	[0, 0, 0]	n/a	FR1	1	R1331T
1532.51	1.633	1532943	WORD	n/a	wordpools/wordpool_long_SP.txt	CATRE	5	9	[0, 0, 0]	n/a	FR1	1	R1331T
1534.143	0.85	1534576	WORD_OFF	n/a	n/a	CATRE	5	9	[0, 0, 0]	n/a	FR1	1	R1331T
1534.993	1.633	1535426	WORD	n/a	wordpools/wordpool_long_SP.txt	TELARANA	6	9	[0, 0, 0]	n/a	FR1	1	R1331T
1536.626	0.925	1537059	WORD_OFF	n/a	n/a	TELARANA	6	9	[0, 0, 0]	n/a	FR1	1	R1331T
1537.551	1.626	1537984	WORD	n/a	wordpools/wordpool_long_SP.txt	CEPILLO	7	9	[0, 0, 0]	n/a	FR1	1	R1331T
1539.177	1.027	1539610	WORD_OFF	n/a	n/a	CEPILLO	7	9	[0, 0, 0]	n/a	FR1	1	R1331T
1540.204	1.623	1540637	WORD	n/a	wordpools/wordpool_long_SP.txt	EFECTIVO	8	9	[0, 0, 0]	n/a	FR1	1	R1331T
1541.827	0.986	1542260	WORD_OFF	n/a	n/a	EFECTIVO	8	9	[0, 0, 0]	n/a	FR1	1	R1331T
1542.813	1.631	1543245	WORD	n/a	wordpools/wordpool_long_SP.txt	ESPONJA	9	9	[0, 0, 0]	n/a	FR1	1	R1331T
1544.444	1.038	1544876	WORD_OFF	n/a	n/a	ESPONJA	9	9	[0, 0, 0]	n/a	FR1	1	R1331T
1545.482	1.629	1545914	WORD	n/a	wordpools/wordpool_long_SP.txt	BOMBA	10	9	[0, 0, 0]	n/a	FR1	1	R1331T
1547.111	0.894	1547543	WORD_OFF	n/a	n/a	BOMBA	10	9	[0, 0, 0]	n/a	FR1	1	R1331T
1548.005	1.624	1548437	WORD	n/a	wordpools/wordpool_long_SP.txt	RATA	11	9	[0, 0, 0]	n/a	FR1	1	R1331T
1549.629	0.989	1550061	WORD_OFF	n/a	n/a	RATA	11	9	[0, 0, 0]	n/a	FR1	1	R1331T
1550.618	1.628	1551050	WORD	n/a	wordpools/wordpool_long_SP.txt	FUERTE	12	9	[0, 0, 0]	n/a	FR1	1	R1331T
1552.246	0.0	1552678	DISTRACT_START	n/a	n/a	n/a	-999	9	[0, 0, 0]	n/a	FR1	1	R1331T
1552.246	0.0	1552678	ENCODING_END	n/a	n/a	n/a	-999	9	[0, 0, 0]	n/a	FR1	1	R1331T
1552.246	0.0	1552678	WORD_OFF	n/a	n/a	FUERTE	12	9	[0, 0, 0]	n/a	FR1	1	R1331T
1552.246	0.016	1552678	START	n/a	n/a	n/a	-999	9	[-999, -999, -999]	n/a	FR1	1	R1331T
1552.262	5.068	1552694	PROB	5.068	n/a	n/a	-999	9	[6, 1, 6]	13	FR1	1	R1331T
1557.33	5.801	1557762	PROB	5.801	n/a	n/a	-999	9	[7, 8, 2]	17	FR1	1	R1331T
1563.131	6.984	1563563	PROB	6.984	n/a	n/a	-999	9	[2, 2, 9]	13	FR1	1	R1331T
1570.115	8.682	1570546	PROB	8.682	n/a	n/a	-999	9	[7, 6, 5]	20	FR1	1	R1331T
1578.797	0.02	1579228	STOP	n/a	n/a	n/a	-999	9	[-999, -999, -999]	n/a	FR1	1	R1331T
1578.817	0.66	1579248	DISTRACT_END	n/a	n/a	n/a	-999	9	[0, 0, 0]	n/a	FR1	1	R1331T
1579.477	1.691	1579908	RETRIEVAL_ORIENT_START	n/a	n/a	n/a	-999	9	[0, 0, 0]	n/a	FR1	1	R1331T
1581.168	0.0	1581599	RETRIEVAL_ORIENT_END	n/a	n/a	n/a	-999	9	[0, 0, 0]	n/a	FR1	1	R1331T
1581.168	0.442	1581599	REC_START	n/a	n/a	n/a	-999	9	[0, 0, 0]	n/a	FR1	1	R1331T
1581.61	2.1	1582041	REC_WORD_VV	2.1	n/a	<>	-999	9	[0, 0, 0]	n/a	FR1	1	R1331T
1583.71	3.974	1584141	REC_WORD_VV	3.974	n/a	<>	-999	9	[0, 0, 0]	n/a	FR1	1	R1331T
1587.684	5.816	1588114	REC_WORD_VV	5.816	n/a	<>	-999	9	[0, 0, 0]	n/a	FR1	1	R1331T
1593.5	1.0	1593930	REC_WORD_VV	1.0	n/a	<>	-999	9	[0, 0, 0]	n/a	FR1	1	R1331T
1594.5	1.0	1594930	REC_WORD_VV	1.0	n/a	<>	-999	9	[0, 0, 0]	n/a	FR1	1	R1331T
1595.5	1.0	1595930	REC_WORD_VV	1.0	n/a	<>	-999	9	[0, 0, 0]	n/a	FR1	1	R1331T
1596.5	1.71	1596930	REC_WORD_VV	1.71	n/a	<>	-999	9	[0, 0, 0]	n/a	FR1	1	R1331T
1598.21	2.221	1598640	REC_WORD	2.221	n/a	HUEVO	-999	9	[0, 0, 0]	n/a	FR1	1	R1331T
1600.431	2.133	1600861	REC_WORD	2.133	n/a	CARNE	-999	9	[0, 0, 0]	n/a	FR1	1	R1331T
1602.564	2.726	1602994	REC_WORD_VV	2.726	n/a	<>	-999	9	[0, 0, 0]	n/a	FR1	1	R1331T
1605.29	1.0	1605720	REC_WORD	1.0	n/a	BAJARO	-999	9	[0, 0, 0]	n/a	FR1	1	R1331T
1606.29	1.0	1606720	REC_WORD_VV	1.0	n/a	<>	-999	9	[0, 0, 0]	n/a	FR1	1	R1331T
1607.29	1.247	1607720	REC_WORD_VV	1.247	n/a	<>	-999	9	[0, 0, 0]	n/a	FR1	1	R1331T
1608.537	0.674	1608966	REC_WORD_VV	0.674	n/a	<>	-999	9	[0, 0, 0]	n/a	FR1	1	R1331T
1609.211	1.967	1609640	REC_WORD	1.967	n/a	CESPED	-999	9	[0, 0, 0]	n/a	FR1	1	R1331T
1611.178	0.0	1611607	REC_END	n/a	n/a	n/a	-999	9	[0, 0, 0]	n/a	FR1	1	R1331T
1611.178	0.015	1611607	TRIAL_END	n/a	n/a	n/a	-999	9	[0, 0, 0]	n/a	FR1	1	R1331T
1611.193	0.001	1611622	TRIAL_START	n/a	n/a	n/a	-999	10	[0, 0, 0]	n/a	FR1	1	R1331T
1611.194	0.0	1611623	TRIAL	n/a	n/a	n/a	-999	10	[0, 0, 0]	n/a	FR1	1	R1331T
1611.194	18.282	1611623	WAITING_START	n/a	n/a	n/a	-999	10	[0, 0, 0]	n/a	FR1	1	R1331T
1629.476	0.001	1629905	WAITING_END	n/a	n/a	n/a	-999	10	[0, 0, 0]	n/a	FR1	1	R1331T
1629.477	10.429	1629906	COUNTDOWN_START	n/a	n/a	n/a	-999	10	[0, 0, 0]	n/a	FR1	1	R1331T
1639.906	0.0	1640334	COUNTDOWN_END	n/a	n/a	n/a	-999	10	[0, 0, 0]	n/a	FR1	1	R1331T
1639.906	1.122	1640334	ORIENT_START	n/a	n/a	n/a	-999	10	[0, 0, 0]	n/a	FR1	1	R1331T
1641.028	0.001	1641456	ORIENT_END	n/a	n/a	n/a	-999	10	[0, 0, 0]	n/a	FR1	1	R1331T
1641.029	1.068	1641457	ENCODING_START	n/a	n/a	n/a	-999	10	[0, 0, 0]	n/a	FR1	1	R1331T
1642.097	1.632	1642525	WORD	n/a	wordpools/wordpool_long_SP.txt	PIERNA	1	10	[0, 0, 0]	n/a	FR1	1	R1331T
1643.729	0.844	1644157	WORD_OFF	n/a	n/a	PIERNA	1	10	[0, 0, 0]	n/a	FR1	1	R1331T
1644.573	1.623	1645001	WORD	n/a	wordpools/wordpool_long_SP.txt	PARQUE	2	10	[0, 0, 0]	n/a	FR1	1	R1331T
1646.196	1.05	1646624	WORD_OFF	n/a	n/a	PARQUE	2	10	[0, 0, 0]	n/a	FR1	1	R1331T
1647.246	1.634	1647674	WORD	n/a	wordpools/wordpool_long_SP.txt	SAL	3	10	[0, 0, 0]	n/a	FR1	1	R1331T
1648.88	0.823	1649308	WORD_OFF	n/a	n/a	SAL	3	10	[0, 0, 0]	n/a	FR1	1	R1331T
1649.703	1.627	1650131	WORD	n/a	wordpools/wordpool_long_SP.txt	VACA	4	10	[0, 0, 0]	n/a	FR1	1	R1331T
1651.33	0.953	1651758	WORD_OFF	n/a	n/a	VACA	4	10	[0, 0, 0]	n/a	FR1	1	R1331T
1652.283	1.631	1652710	WORD	n/a	wordpools/wordpool_long_SP.txt	LLAMA	5	10	[0, 0, 0]	n/a	FR1	1	R1331T
1653.914	0.836	1654341	WORD_OFF	n/a	n/a	LLAMA	5	10	[0, 0, 0]	n/a	FR1	1	R1331T
1654.75	1.631	1655177	WORD	n/a	wordpools/wordpool_long_SP.txt	DEDO	6	10	[0, 0, 0]	n/a	FR1	1	R1331T
1656.381	0.975	1656808	WORD_OFF	n/a	n/a	DEDO	6	10	[0, 0, 0]	n/a	FR1	1	R1331T
1657.356	1.626	1657783	WORD	n/a	wordpools/wordpool_long_SP.txt	CHISPA	7	10	[0, 0, 0]	n/a	FR1	1	R1331T
1658.982	0.813	1659409	WORD_OFF	n/a	n/a	CHISPA	7	10	[0, 0, 0]	n/a	FR1	1	R1331T
1659.795	1.637	1660222	WORD	n/a	wordpools/wordpool_long_SP.txt	TREN	8	10	[0, 0, 0]	n/a	FR1	1	R1331T
1661.432	0.796	1661859	WORD_OFF	n/a	n/a	TREN	8	10	[0, 0, 0]	n/a	FR1	1	R1331T
1662.228	1.621	1662655	WORD	n/a	wordpools/wordpool_long_SP.txt	HOJA	9	10	[0, 0, 0]	n/a	FR1	1	R1331T
1663.849	0.876	1664276	WORD_OFF	n/a	n/a	HOJA	9	10	[0, 0, 0]	n/a	FR1	1	R1331T
1664.725	1.625	1665152	WORD	n/a	wordpools/wordpool_long_SP.txt	MEDIA	10	10	[0, 0, 0]	n/a	FR1	1	R1331T
1666.35	1.112	1666777	WORD_OFF	n/a	n/a	MEDIA	10	10	[0, 0, 0]	n/a	FR1	1	R1331T
1667.462	1.638	1667889	WORD	n/a	wordpools/wordpool_long_SP.txt	SORBETE	11	10	[0, 0, 0]	n/a	FR1	1	R1331T
1669.1	0.879	1669527	WORD_OFF	n/a	n/a	SORBETE	11	10	[0, 0, 0]	n/a	FR1	1	R1331T
1669.979	1.622	1670406	WORD	n/a	wordpools/wordpool_long_SP.txt	ESTERA	12	10	[0, 0, 0]	n/a	FR1	1	R1331T
1671.601	0.0	1672028	WORD_OFF	n/a	n/a	ESTERA	12	10	[0, 0, 0]	n/a	FR1	1	R1331T
1671.601	0.0	1672028	ENCODING_END	n/a	n/a	n/a	-999	10	[0, 0, 0]	n/a	FR1	1	R1331T
1671.601	0.0	1672028	DISTRACT_START	n/a	n/a	n/a	-999	10	[0, 0, 0]	n/a	FR1	1	R1331T
1671.601	0.016	1672028	START	n/a	n/a	n/a	-999	10	[-999, -999, -999]	n/a	FR1	1	R1331T
1671.617	8.402	1672044	PROB	8.402	n/a	n/a	-999	10	[9, 8, 3]	20	FR1	1	R1331T
1680.019	5.417	1680445	PROB	5.417	n/a	n/a	-999	10	[1, 6, 4]	11	FR1	1	R1331T
1685.436	6.719	1685862	PROB	6.719	n/a	n/a	-999	10	[3, 2, 9]	14	FR1	1	R1331T
1692.155	0.016	1692581	STOP	n/a	n/a	n/a	-999	10	[-999, -999, -999]	n/a	FR1	1	R1331T
1692.171	0.6	1692597	DISTRACT_END	n/a	n/a	n/a	-999	10	[0, 0, 0]	n/a	FR1	1	R1331T
1692.771	1.567	1693197	RETRIEVAL_ORIENT_START	n/a	n/a	n/a	-999	10	[0, 0, 0]	n/a	FR1	1	R1331T
1694.338	0.001	1694764	RETRIEVAL_ORIENT_END	n/a	n/a	n/a	-999	10	[0, 0, 0]	n/a	FR1	1	R1331T
1694.339	1.223	1694765	REC_START	n/a	n/a	n/a	-999	10	[0, 0, 0]	n/a	FR1	1	R1331T
1695.562	1.922	1695988	REC_WORD_VV	1.922	n/a	<>	-999	10	[0, 0, 0]	n/a	FR1	1	R1331T
1697.484	1.0	1697909	REC_WORD_VV	1.0	n/a	<>	-999	10	[0, 0, 0]	n/a	FR1	1	R1331T
1698.484	2.369	1698909	REC_WORD_VV	2.369	n/a	<>	-999	10	[0, 0, 0]	n/a	FR1	1	R1331T
1700.853	1.0	1701278	REC_WORD_VV	1.0	n/a	<>	-999	10	[0, 0, 0]	n/a	FR1	1	R1331T
1701.853	9.383	1702278	REC_WORD_VV	9.383	n/a	<>	-999	10	[0, 0, 0]	n/a	FR1	1	R1331T
1711.236	1.742	1711661	REC_WORD_VV	1.742	n/a	<>	-999	10	[0, 0, 0]	n/a	FR1	1	R1331T
1712.978	1.332	1713403	REC_WORD	1.332	n/a	ANILLO	-999	10	[0, 0, 0]	n/a	FR1	1	R1331T
1714.31	0.956	1714735	REC_WORD	0.956	n/a	HOJA	9	10	[0, 0, 0]	n/a	FR1	1	R1331T
1715.266	2.817	1715691	REC_WORD	2.817	n/a	ARBOL	-999	10	[0, 0, 0]	n/a	FR1	1	R1331T
1718.083	6.265	1718507	REC_WORD_VV	6.265	n/a	<>	-999	10	[0, 0, 0]	n/a	FR1	1	R1331T
1724.348	0.0	1724772	REC_END	n/a	n/a	n/a	-999	10	[0, 0, 0]	n/a	FR1	1	R1331T
1724.348	0.016	1724772	TRIAL_END	n/a	n/a	n/a	-999	10	[0, 0, 0]	n/a	FR1	1	R1331T
1724.364	0.001	1724788	TRIAL_START	n/a	n/a	n/a	-999	11	[0, 0, 0]	n/a	FR1	1	R1331T
1724.365	0.0	1724789	TRIAL	n/a	n/a	n/a	-999	11	[0, 0, 0]	n/a	FR1	1	R1331T
1724.365	328.305	1724789	WAITING_START	n/a	n/a	n/a	-999	11	[0, 0, 0]	n/a	FR1	1	R1331T
2052.67	0.0	2053079	WAITING_END	n/a	n/a	n/a	-999	11	[0, 0, 0]	n/a	FR1	1	R1331T
2052.67	10.428	2053079	COUNTDOWN_START	n/a	n/a	n/a	-999	11	[0, 0, 0]	n/a	FR1	1	R1331T
2063.098	0.0	2063507	COUNTDOWN_END	n/a	n/a	n/a	-999	11	[0, 0, 0]	n/a	FR1	1	R1331T
2063.098	1.224	2063507	ORIENT_START	n/a	n/a	n/a	-999	11	[0, 0, 0]	n/a	FR1	1	R1331T
2064.322	0.0	2064731	ORIENT_END	n/a	n/a	n/a	-999	11	[0, 0, 0]	n/a	FR1	1	R1331T
2064.322	0.923	2064731	ENCODING_START	n/a	n/a	n/a	-999	11	[0, 0, 0]	n/a	FR1	1	R1331T
2065.245	1.627	2065654	WORD	n/a	wordpools/wordpool_long_SP.txt	BRAZO	1	11	[0, 0, 0]	n/a	FR1	1	R1331T
2066.872	0.842	2067281	WORD_OFF	n/a	n/a	BRAZO	1	11	[0, 0, 0]	n/a	FR1	1	R1331T
2067.714	1.626	2068123	WORD	n/a	wordpools/wordpool_long_SP.txt	FICHA	2	11	[0, 0, 0]	n/a	FR1	1	R1331T
2069.34	0.845	2069748	WORD_OFF	n/a	n/a	FICHA	2	11	[0, 0, 0]	n/a	FR1	1	R1331T
2070.185	1.638	2070593	WORD	n/a	wordpools/wordpool_long_SP.txt	PUENTE	3	11	[0, 0, 0]	n/a	FR1	1	R1331T
2071.823	0.759	2072231	WORD_OFF	n/a	n/a	PUENTE	3	11	[0, 0, 0]	n/a	FR1	1	R1331T
2072.582	1.625	2072990	WORD	n/a	wordpools/wordpool_long_SP.txt	CUERNO	4	11	[0, 0, 0]	n/a	FR1	1	R1331T
2074.207	0.963	2074615	WORD_OFF	n/a	n/a	CUERNO	4	11	[0, 0, 0]	n/a	FR1	1	R1331T
2075.17	1.638	2075578	WORD	n/a	wordpools/wordpool_long_SP.txt	LAMPARA	5	11	[0, 0, 0]	n/a	FR1	1	R1331T
2076.808	1.004	2077216	WORD_OFF	n/a	n/a	LAMPARA	5	11	[0, 0, 0]	n/a	FR1	1	R1331T
2077.812	1.629	2078220	WORD	n/a	wordpools/wordpool_long_SP.txt	PLAYA	6	11	[0, 0, 0]	n/a	FR1	1	R1331T
2079.441	0.833	2079849	WORD_OFF	n/a	n/a	PLAYA	6	11	[0, 0, 0]	n/a	FR1	1	R1331T
2080.274	1.634	2080682	WORD	n/a	wordpools/wordpool_long_SP.txt	BOLSO	7	11	[0, 0, 0]	n/a	FR1	1	R1331T
2081.908	0.93	2082316	WORD_OFF	n/a	n/a	BOLSO	7	11	[0, 0, 0]	n/a	FR1	1	R1331T
2082.838	1.637	2083246	WORD	n/a	wordpools/wordpool_long_SP.txt	GRANERO	8	11	[0, 0, 0]	n/a	FR1	1	R1331T
2084.475	1.019	2084883	WORD_OFF	n/a	n/a	GRANERO	8	11	[0, 0, 0]	n/a	FR1	1	R1331T
2085.494	1.632	2085902	WORD	n/a	wordpools/wordpool_long_SP.txt	TRAJE	9	11	[0, 0, 0]	n/a	FR1	1	R1331T
2087.126	1.146	2087534	WORD_OFF	n/a	n/a	TRAJE	9	11	[0, 0, 0]	n/a	FR1	1	R1331T
2088.272	1.638	2088680	WORD	n/a	wordpools/wordpool_long_SP.txt	PEZUNA	10	11	[0, 0, 0]	n/a	FR1	1	R1331T
2089.91	0.793	2090317	WORD_OFF	n/a	n/a	PEZUNA	10	11	[0, 0, 0]	n/a	FR1	1	R1331T
2090.703	1.624	2091110	WORD	n/a	wordpools/wordpool_long_SP.txt	ASIENTO	11	11	[0, 0, 0]	n/a	FR1	1	R1331T
2092.327	0.756	2092734	WORD_OFF	n/a	n/a	ASIENTO	11	11	[0, 0, 0]	n/a	FR1	1	R1331T
2093.083	1.628	2093490	WORD	n/a	wordpools/wordpool_long_SP.txt	CALLE	12	11	[0, 0, 0]	n/a	FR1	1	R1331T
2094.711	0.0	2095118	WORD_OFF	n/a	n/a	CALLE	12	11	[0, 0, 0]	n/a	FR1	1	R1331T
2094.711	0.001	2095118	ENCODING_END	n/a	n/a	n/a	-999	11	[0, 0, 0]	n/a	FR1	1	R1331T
2094.712	0.0	2095119	DISTRACT_START	n/a	n/a	n/a	-999	11	[0, 0, 0]	n/a	FR1	1	R1331T
2094.712	0.015	2095119	START	n/a	n/a	n/a	-999	11	[-999, -999, -999]	n/a	FR1	1	R1331T
2094.727	6.935	2095134	PROB	6.935	n/a	n/a	-999	11	[9, 5, 5]	19	FR1	1	R1331T
2101.662	14.788	2102069	PROB	14.788	n/a	n/a	-999	11	[8, 7, 6]	21	FR1	1	R1331T
2116.45	0.015	2116856	STOP	n/a	n/a	n/a	-999	11	[-999, -999, -999]	n/a	FR1	1	R1331T
2116.465	0.535	2116871	DISTRACT_END	n/a	n/a	n/a	-999	11	[0, 0, 0]	n/a	FR1	1	R1331T
2117.0	1.632	2117406	RETRIEVAL_ORIENT_START	n/a	n/a	n/a	-999	11	[0, 0, 0]	n/a	FR1	1	R1331T
2118.632	0.0	2119038	RETRIEVAL_ORIENT_END	n/a	n/a	n/a	-999	11	[0, 0, 0]	n/a	FR1	1	R1331T
2118.632	1.557	2119038	REC_START	n/a	n/a	n/a	-999	11	[0, 0, 0]	n/a	FR1	1	R1331T
2120.189	1.062	2120595	REC_WORD	1.062	n/a	BRAZO	1	11	[0, 0, 0]	n/a	FR1	1	R1331T
2121.251	1.0	2121657	REC_WORD	1.0	n/a	FICHA	2	11	[0, 0, 0]	n/a	FR1	1	R1331T
2122.251	0.317	2122657	REC_WORD_VV	0.317	n/a	<>	-999	11	[0, 0, 0]	n/a	FR1	1	R1331T
2122.568	1.0	2122974	REC_WORD	1.0	n/a	BOLSO	7	11	[0, 0, 0]	n/a	FR1	1	R1331T
2123.568	1.098	2123974	REC_WORD_VV	1.098	n/a	<>	-999	11	[0, 0, 0]	n/a	FR1	1	R1331T
2124.666	2.623	2125072	REC_WORD	2.623	n/a	GRANERO	8	11	[0, 0, 0]	n/a	FR1	1	R1331T
2127.289	1.0	2127695	REC_WORD_VV	1.0	n/a	<>	-999	11	[0, 0, 0]	n/a	FR1	1	R1331T
2128.289	6.651	2128695	REC_WORD_VV	6.651	n/a	<>	-999	11	[0, 0, 0]	n/a	FR1	1	R1331T
2134.94	1.0	2135345	REC_WORD	1.0	n/a	MANGA	-999	11	[0, 0, 0]	n/a	FR1	1	R1331T
2135.94	3.115	2136345	REC_WORD_VV	3.115	n/a	<>	-999	11	[0, 0, 0]	n/a	FR1	1	R1331T
2139.055	3.146	2139460	REC_WORD_VV	3.146	n/a	<>	-999	11	[0, 0, 0]	n/a	FR1	1	R1331T
2142.201	3.165	2142606	REC_WORD	3.165	n/a	LUNA	-999	11	[0, 0, 0]	n/a	FR1	1	R1331T
2145.366	3.277	2145771	REC_WORD_VV	3.277	n/a	<>	-999	11	[0, 0, 0]	n/a	FR1	1	R1331T
2148.643	0.0	2149048	REC_END	n/a	n/a	n/a	-999	11	[0, 0, 0]	n/a	FR1	1	R1331T
2148.643	0.016	2149048	TRIAL_END	n/a	n/a	n/a	-999	11	[0, 0, 0]	n/a	FR1	1	R1331T
2148.659	0.0	2149064	TRIAL_START	n/a	n/a	n/a	-999	12	[0, 0, 0]	n/a	FR1	1	R1331T
2148.659	0.0	2149064	TRIAL	n/a	n/a	n/a	-999	12	[0, 0, 0]	n/a	FR1	1	R1331T
2148.659	3.179	2149064	WAITING_START	n/a	n/a	n/a	-999	12	[0, 0, 0]	n/a	FR1	1	R1331T
2151.838	0.0	2152243	WAITING_END	n/a	n/a	n/a	-999	12	[0, 0, 0]	n/a	FR1	1	R1331T
2151.838	10.429	2152243	COUNTDOWN_START	n/a	n/a	n/a	-999	12	[0, 0, 0]	n/a	FR1	1	R1331T
2162.267	0.001	2162671	COUNTDOWN_END	n/a	n/a	n/a	-999	12	[0, 0, 0]	n/a	FR1	1	R1331T
2162.268	1.089	2162672	ORIENT_START	n/a	n/a	n/a	-999	12	[0, 0, 0]	n/a	FR1	1	R1331T
2163.357	0.0	2163761	ENCODING_START	n/a	n/a	n/a	-999	12	[0, 0, 0]	n/a	FR1	1	R1331T
2163.357	1.134	2163761	ORIENT_END	n/a	n/a	n/a	-999	12	[0, 0, 0]	n/a	FR1	1	R1331T
2164.491	1.633	2164895	WORD	n/a	wordpools/wordpool_long_SP.txt	MANGUERA	1	12	[0, 0, 0]	n/a	FR1	1	R1331T
2166.124	1.059	2166528	WORD_OFF	n/a	n/a	MANGUERA	1	12	[0, 0, 0]	n/a	FR1	1	R1331T
2167.183	1.625	2167587	WORD	n/a	wordpools/wordpool_long_SP.txt	TINTA	2	12	[0, 0, 0]	n/a	FR1	1	R1331T
2168.808	0.951	2169212	WORD_OFF	n/a	n/a	TINTA	2	12	[0, 0, 0]	n/a	FR1	1	R1331T
2169.759	1.632	2170163	WORD	n/a	wordpools/wordpool_long_SP.txt	MOFETA	3	12	[0, 0, 0]	n/a	FR1	1	R1331T
2171.391	0.849	2171795	WORD_OFF	n/a	n/a	MOFETA	3	12	[0, 0, 0]	n/a	FR1	1	R1331T
2172.24	1.635	2172644	WORD	n/a	wordpools/wordpool_long_SP.txt	SAPO	4	12	[0, 0, 0]	n/a	FR1	1	R1331T
2173.875	0.877	2174279	WORD_OFF	n/a	n/a	SAPO	4	12	[0, 0, 0]	n/a	FR1	1	R1331T
2174.752	1.624	2175156	WORD	n/a	wordpools/wordpool_long_SP.txt	LUNA	5	12	[0, 0, 0]	n/a	FR1	1	R1331T
2176.376	0.764	2176780	WORD_OFF	n/a	n/a	LUNA	5	12	[0, 0, 0]	n/a	FR1	1	R1331T
2177.14	1.636	2177544	WORD	n/a	wordpools/wordpool_long_SP.txt	VENTILADOR	6	12	[0, 0, 0]	n/a	FR1	1	R1331T
2178.776	1.124	2179179	WORD_OFF	n/a	n/a	VENTILADOR	6	12	[0, 0, 0]	n/a	FR1	1	R1331T
2179.9	1.626	2180303	WORD	n/a	wordpools/wordpool_long_SP.txt	VESTIDO	7	12	[0, 0, 0]	n/a	FR1	1	R1331T
2181.526	1.004	2181929	WORD_OFF	n/a	n/a	VESTIDO	7	12	[0, 0, 0]	n/a	FR1	1	R1331T
2182.53	1.63	2182933	WORD	n/a	wordpools/wordpool_long_SP.txt	COLINA	8	12	[0, 0, 0]	n/a	FR1	1	R1331T
2184.16	1.12	2184563	WORD_OFF	n/a	n/a	COLINA	8	12	[0, 0, 0]	n/a	FR1	1	R1331T
2185.28	1.631	2185683	WORD	n/a	wordpools/wordpool_long_SP.txt	CAMION	9	12	[0, 0, 0]	n/a	FR1	1	R1331T
2186.911	0.976	2187314	WORD_OFF	n/a	n/a	CAMION	9	12	[0, 0, 0]	n/a	FR1	1	R1331T
2187.887	1.624	2188290	WORD	n/a	wordpools/wordpool_long_SP.txt	BASTON	10	12	[0, 0, 0]	n/a	FR1	1	R1331T
2189.511	0.852	2189914	WORD_OFF	n/a	n/a	BASTON	10	12	[0, 0, 0]	n/a	FR1	1	R1331T
2190.363	1.632	2190766	WORD	n/a	wordpools/wordpool_long_SP.txt	CIELO	11	12	[0, 0, 0]	n/a	FR1	1	R1331T
2191.995	1.019	2192398	WORD_OFF	n/a	n/a	CIELO	11	12	[0, 0, 0]	n/a	FR1	1	R1331T
2193.014	1.632	2193417	WORD	n/a	wordpools/wordpool_long_SP.txt	GUISANTE	12	12	[0, 0, 0]	n/a	FR1	1	R1331T
2194.646	0.0	2195049	WORD_OFF	n/a	n/a	GUISANTE	12	12	[0, 0, 0]	n/a	FR1	1	R1331T
2194.646	0.0	2195049	ENCODING_END	n/a	n/a	n/a	-999	12	[0, 0, 0]	n/a	FR1	1	R1331T
2194.646	0.001	2195049	DISTRACT_START	n/a	n/a	n/a	-999	12	[0, 0, 0]	n/a	FR1	1	R1331T
2194.647	0.015	2195050	START	n/a	n/a	n/a	-999	12	[-999, -999, -999]	n/a	FR1	1	R1331T
2194.662	5.734	2195065	PROB	5.734	n/a	n/a	-999	12	[8, 2, 4]	14	FR1	1	R1331T
2200.396	11.453	2200798	PROB	11.453	n/a	n/a	-999	12	[3, 3, 7]	13	FR1	1	R1331T
2211.849	5.288	2212251	PROB	5.288	n/a	n/a	-999	12	[4, 4, 8]	16	FR1	1	R1331T
2217.137	0.013	2217539	STOP	n/a	n/a	n/a	-999	12	[-999, -999, -999]	n/a	FR1	1	R1331T
2217.15	0.662	2217552	DISTRACT_END	n/a	n/a	n/a	-999	12	[0, 0, 0]	n/a	FR1	1	R1331T
2217.812	1.655	2218214	RETRIEVAL_ORIENT_START	n/a	n/a	n/a	-999	12	[0, 0, 0]	n/a	FR1	1	R1331T
2219.467	0.0	2219869	RETRIEVAL_ORIENT_END	n/a	n/a	n/a	-999	12	[0, 0, 0]	n/a	FR1	1	R1331T
2219.467	1.657	2219869	REC_START	n/a	n/a	n/a	-999	12	[0, 0, 0]	n/a	FR1	1	R1331T
2221.124	1.0	2221525	REC_WORD	1.0	n/a	MANGUERA	1	12	[0, 0, 0]	n/a	FR1	1	R1331T
2222.124	1.16	2222525	REC_WORD_VV	1.16	n/a	<>	-999	12	[0, 0, 0]	n/a	FR1	1	R1331T
2223.284	3.373	2223685	REC_WORD_VV	3.373	n/a	<>	-999	12	[0, 0, 0]	n/a	FR1	1	R1331T
2226.657	3.104	2227058	REC_WORD	3.104	n/a	VALIENTE	-999	12	[0, 0, 0]	n/a	FR1	1	R1331T
2229.761	1.0	2230162	REC_WORD_VV	1.0	n/a	<>	-999	12	[0, 0, 0]	n/a	FR1	1	R1331T
2230.761	3.46	2231162	REC_WORD_VV	3.46	n/a	<>	-999	12	[0, 0, 0]	n/a	FR1	1	R1331T
2234.221	3.019	2234622	REC_WORD_VV	3.019	n/a	<>	-999	12	[0, 0, 0]	n/a	FR1	1	R1331T
2237.24	12.239	2237641	REC_WORD	12.239	n/a	SOKETE	-999	12	[0, 0, 0]	n/a	FR1	1	R1331T
2249.479	0.0	2249879	REC_END	n/a	n/a	n/a	-999	12	[0, 0, 0]	n/a	FR1	1	R1331T
2249.479	0.015	2249879	TRIAL_END	n/a	n/a	n/a	-999	12	[0, 0, 0]	n/a	FR1	1	R1331T
2249.494	0.0	2249894	TRIAL_START	n/a	n/a	n/a	-999	13	[0, 0, 0]	n/a	FR1	1	R1331T
2249.494	0.0	2249894	TRIAL	n/a	n/a	n/a	-999	13	[0, 0, 0]	n/a	FR1	1	R1331T
2249.494	3.779	2249894	WAITING_START	n/a	n/a	n/a	-999	13	[0, 0, 0]	n/a	FR1	1	R1331T
2253.273	0.0	2253673	WAITING_END	n/a	n/a	n/a	-999	13	[0, 0, 0]	n/a	FR1	1	R1331T
2253.273	10.43	2253673	COUNTDOWN_START	n/a	n/a	n/a	-999	13	[0, 0, 0]	n/a	FR1	1	R1331T
2263.703	0.0	2264103	COUNTDOWN_END	n/a	n/a	n/a	-999	13	[0, 0, 0]	n/a	FR1	1	R1331T
2263.703	1.139	2264103	ORIENT_START	n/a	n/a	n/a	-999	13	[0, 0, 0]	n/a	FR1	1	R1331T
2264.842	0.0	2265242	ORIENT_END	n/a	n/a	n/a	-999	13	[0, 0, 0]	n/a	FR1	1	R1331T
2264.842	0.941	2265242	ENCODING_START	n/a	n/a	n/a	-999	13	[0, 0, 0]	n/a	FR1	1	R1331T
2265.783	1.626	2266182	WORD	n/a	wordpools/wordpool_long_SP.txt	TOSTADA	1	13	[0, 0, 0]	n/a	FR1	1	R1331T
2267.409	0.988	2267808	WORD_OFF	n/a	n/a	TOSTADA	1	13	[0, 0, 0]	n/a	FR1	1	R1331T
2268.397	1.629	2268796	WORD	n/a	wordpools/wordpool_long_SP.txt	CARRO	2	13	[0, 0, 0]	n/a	FR1	1	R1331T
2270.026	0.962	2270425	WORD_OFF	n/a	n/a	CARRO	2	13	[0, 0, 0]	n/a	FR1	1	R1331T
2270.988	1.605	2271387	WORD	n/a	wordpools/wordpool_long_SP.txt	HOYO	3	13	[0, 0, 0]	n/a	FR1	1	R1331T
2272.593	0.908	2272992	WORD_OFF	n/a	n/a	HOYO	3	13	[0, 0, 0]	n/a	FR1	1	R1331T
2273.501	1.626	2273900	WORD	n/a	wordpools/wordpool_long_SP.txt	HILO	4	13	[0, 0, 0]	n/a	FR1	1	R1331T
2275.127	1.054	2275526	WORD_OFF	n/a	n/a	HILO	4	13	[0, 0, 0]	n/a	FR1	1	R1331T
2276.181	1.63	2276580	WORD	n/a	wordpools/wordpool_long_SP.txt	HACHA	5	13	[0, 0, 0]	n/a	FR1	1	R1331T
2277.811	0.998	2278210	WORD_OFF	n/a	n/a	HACHA	5	13	[0, 0, 0]	n/a	FR1	1	R1331T
2278.809	1.636	2279208	WORD	n/a	wordpools/wordpool_long_SP.txt	PRINCIPE	6	13	[0, 0, 0]	n/a	FR1	1	R1331T
2280.445	0.9	2280844	WORD_OFF	n/a	n/a	PRINCIPE	6	13	[0, 0, 0]	n/a	FR1	1	R1331T
2281.345	1.633	2281744	WORD	n/a	wordpools/wordpool_long_SP.txt	PRECIPICIO	7	13	[0, 0, 0]	n/a	FR1	1	R1331T
2282.978	0.969	2283377	WORD_OFF	n/a	n/a	PRECIPICIO	7	13	[0, 0, 0]	n/a	FR1	1	R1331T
2283.947	1.632	2284346	WORD	n/a	wordpools/wordpool_long_SP.txt	GALLINA	8	13	[0, 0, 0]	n/a	FR1	1	R1331T
2285.579	0.755	2285978	WORD_OFF	n/a	n/a	GALLINA	8	13	[0, 0, 0]	n/a	FR1	1	R1331T
2286.334	1.629	2286733	WORD	n/a	wordpools/wordpool_long_SP.txt	PASTEL	9	13	[0, 0, 0]	n/a	FR1	1	R1331T
2287.963	0.765	2288361	WORD_OFF	n/a	n/a	PASTEL	9	13	[0, 0, 0]	n/a	FR1	1	R1331T
2288.728	1.635	2289126	WORD	n/a	wordpools/wordpool_long_SP.txt	ESTANQUE	10	13	[0, 0, 0]	n/a	FR1	1	R1331T
2290.363	0.937	2290761	WORD_OFF	n/a	n/a	ESTANQUE	10	13	[0, 0, 0]	n/a	FR1	1	R1331T
2291.3	1.63	2291698	WORD	n/a	wordpools/wordpool_long_SP.txt	DIENTES	11	13	[0, 0, 0]	n/a	FR1	1	R1331T
2292.93	1.114	2293328	WORD_OFF	n/a	n/a	DIENTES	11	13	[0, 0, 0]	n/a	FR1	1	R1331T
2294.044	1.636	2294442	WORD	n/a	wordpools/wordpool_long_SP.txt	SEMILLA	12	13	[0, 0, 0]	n/a	FR1	1	R1331T
2295.68	0.001	2296078	WORD_OFF	n/a	n/a	SEMILLA	12	13	[0, 0, 0]	n/a	FR1	1	R1331T
2295.681	0.0	2296079	ENCODING_END	n/a	n/a	n/a	-999	13	[0, 0, 0]	n/a	FR1	1	R1331T
2295.681	0.0	2296079	DISTRACT_START	n/a	n/a	n/a	-999	13	[0, 0, 0]	n/a	FR1	1	R1331T
2295.681	0.016	2296079	START	n/a	n/a	n/a	-999	13	[-999, -999, -999]	n/a	FR1	1	R1331T
2295.697	16.92	2296095	PROB	16.92	n/a	n/a	-999	13	[6, 7, 8]	21	FR1	1	R1331T
2312.617	9.675	2313014	PROB	9.675	n/a	n/a	-999	13	[5, 7, 9]	21	FR1	1	R1331T
2322.292	0.01	2322689	STOP	n/a	n/a	n/a	-999	13	[-999, -999, -999]	n/a	FR1	1	R1331T
2322.302	0.591	2322699	DISTRACT_END	n/a	n/a	n/a	-999	13	[0, 0, 0]	n/a	FR1	1	R1331T
2322.893	1.576	2323290	RETRIEVAL_ORIENT_START	n/a	n/a	n/a	-999	13	[0, 0, 0]	n/a	FR1	1	R1331T
2324.469	0.001	2324866	RETRIEVAL_ORIENT_END	n/a	n/a	n/a	-999	13	[0, 0, 0]	n/a	FR1	1	R1331T
2324.47	3.243	2324867	REC_START	n/a	n/a	n/a	-999	13	[0, 0, 0]	n/a	FR1	1	R1331T
2327.713	1.0	2328110	REC_WORD_VV	1.0	n/a	<>	-999	13	[0, 0, 0]	n/a	FR1	1	R1331T
2328.713	2.558	2329110	REC_WORD_VV	2.558	n/a	<>	-999	13	[0, 0, 0]	n/a	FR1	1	R1331T
2331.271	1.0	2331667	REC_WORD	1.0	n/a	MANGA	-999	13	[0, 0, 0]	n/a	FR1	1	R1331T
2332.271	0.948	2332667	REC_WORD_VV	0.948	n/a	<>	-999	13	[0, 0, 0]	n/a	FR1	1	R1331T
2333.219	2.791	2333615	REC_WORD	2.791	n/a	RELOJ	-999	13	[0, 0, 0]	n/a	FR1	1	R1331T
2336.01	1.0	2336406	REC_WORD_VV	1.0	n/a	<>	-999	13	[0, 0, 0]	n/a	FR1	1	R1331T
2337.01	2.111	2337406	REC_WORD_VV	2.111	n/a	<>	-999	13	[0, 0, 0]	n/a	FR1	1	R1331T
2339.121	3.051	2339517	REC_WORD	3.051	n/a	VENTILADOR	-999	13	[0, 0, 0]	n/a	FR1	1	R1331T
2342.172	5.318	2342568	REC_WORD	5.318	n/a	LUNA	-999	13	[0, 0, 0]	n/a	FR1	1	R1331T
2347.49	2.569	2347886	REC_WORD_VV	2.569	n/a	<>	-999	13	[0, 0, 0]	n/a	FR1	1	R1331T
2350.059	4.421	2350455	REC_WORD_VV	4.421	n/a	<>	-999	13	[0, 0, 0]	n/a	FR1	1	R1331T
2354.48	0.001	2354875	REC_END	n/a	n/a	n/a	-999	13	[0, 0, 0]	n/a	FR1	1	R1331T
2354.481	0.016	2354876	TRIAL_END	n/a	n/a	n/a	-999	13	[0, 0, 0]	n/a	FR1	1	R1331T
2354.497	0.0	2354892	TRIAL_START	n/a	n/a	n/a	-999	14	[0, 0, 0]	n/a	FR1	1	R1331T
2354.497	0.0	2354892	TRIAL	n/a	n/a	n/a	-999	14	[0, 0, 0]	n/a	FR1	1	R1331T
2354.497	3.328	2354892	WAITING_START	n/a	n/a	n/a	-999	14	[0, 0, 0]	n/a	FR1	1	R1331T
2357.825	0.001	2358220	WAITING_END	n/a	n/a	n/a	-999	14	[0, 0, 0]	n/a	FR1	1	R1331T
2357.826	10.429	2358221	COUNTDOWN_START	n/a	n/a	n/a	-999	14	[0, 0, 0]	n/a	FR1	1	R1331T
2368.255	0.0	2368650	COUNTDOWN_END	n/a	n/a	n/a	-999	14	[0, 0, 0]	n/a	FR1	1	R1331T
2368.255	1.189	2368650	ORIENT_START	n/a	n/a	n/a	-999	14	[0, 0, 0]	n/a	FR1	1	R1331T
2369.444	0.0	2369839	ORIENT_END	n/a	n/a	n/a	-999	14	[0, 0, 0]	n/a	FR1	1	R1331T
2369.444	0.945	2369839	ENCODING_START	n/a	n/a	n/a	-999	14	[0, 0, 0]	n/a	FR1	1	R1331T
2370.389	1.622	2370784	WORD	n/a	wordpools/wordpool_long_SP.txt	COPA	1	14	[0, 0, 0]	n/a	FR1	1	R1331T
2372.011	0.755	2372406	WORD_OFF	n/a	n/a	COPA	1	14	[0, 0, 0]	n/a	FR1	1	R1331T
2372.766	1.629	2373161	WORD	n/a	wordpools/wordpool_long_SP.txt	NARIZ	2	14	[0, 0, 0]	n/a	FR1	1	R1331T
2374.395	1.039	2374789	WORD_OFF	n/a	n/a	NARIZ	2	14	[0, 0, 0]	n/a	FR1	1	R1331T
2375.434	1.628	2375828	WORD	n/a	wordpools/wordpool_long_SP.txt	CAMA	3	14	[0, 0, 0]	n/a	FR1	1	R1331T
2377.062	0.759	2377456	WORD_OFF	n/a	n/a	CAMA	3	14	[0, 0, 0]	n/a	FR1	1	R1331T
2377.821	1.625	2378215	WORD	n/a	wordpools/wordpool_long_SP.txt	LANZA	4	14	[0, 0, 0]	n/a	FR1	1	R1331T
2379.446	0.76	2379840	WORD_OFF	n/a	n/a	LANZA	4	14	[0, 0, 0]	n/a	FR1	1	R1331T
2380.206	1.624	2380600	WORD	n/a	wordpools/wordpool_long_SP.txt	SIGNO	5	14	[0, 0, 0]	n/a	FR1	1	R1331T
2381.83	0.8	2382224	WORD_OFF	n/a	n/a	SIGNO	5	14	[0, 0, 0]	n/a	FR1	1	R1331T
2382.63	1.633	2383024	WORD	n/a	wordpools/wordpool_long_SP.txt	JET	6	14	[0, 0, 0]	n/a	FR1	1	R1331T
2384.263	1.039	2384657	WORD_OFF	n/a	n/a	JET	6	14	[0, 0, 0]	n/a	FR1	1	R1331T
2385.302	1.629	2385696	WORD	n/a	wordpools/wordpool_long_SP.txt	RASTRILLO	7	14	[0, 0, 0]	n/a	FR1	1	R1331T
2386.931	0.84	2387325	WORD_OFF	n/a	n/a	RASTRILLO	7	14	[0, 0, 0]	n/a	FR1	1	R1331T
2387.771	1.627	2388165	WORD	n/a	wordpools/wordpool_long_SP.txt	BANO	8	14	[0, 0, 0]	n/a	FR1	1	R1331T
2389.398	0.951	2389792	WORD_OFF	n/a	n/a	BANO	8	14	[0, 0, 0]	n/a	FR1	1	R1331T
2390.349	1.632	2390743	WORD	n/a	wordpools/wordpool_long_SP.txt	JUEZ	9	14	[0, 0, 0]	n/a	FR1	1	R1331T
2391.981	0.913	2392375	WORD_OFF	n/a	n/a	JUEZ	9	14	[0, 0, 0]	n/a	FR1	1	R1331T
2392.894	1.638	2393288	WORD	n/a	wordpools/wordpool_long_SP.txt	BUHO	10	14	[0, 0, 0]	n/a	FR1	1	R1331T
2394.532	0.969	2394926	WORD_OFF	n/a	n/a	BUHO	10	14	[0, 0, 0]	n/a	FR1	1	R1331T
2395.501	1.631	2395895	WORD	n/a	wordpools/wordpool_long_SP.txt	HABITACION	11	14	[0, 0, 0]	n/a	FR1	1	R1331T
2397.132	0.915	2397525	WORD_OFF	n/a	n/a	HABITACION	11	14	[0, 0, 0]	n/a	FR1	1	R1331T
2398.047	1.636	2398440	WORD	n/a	wordpools/wordpool_long_SP.txt	MAIZ	12	14	[0, 0, 0]	n/a	FR1	1	R1331T
2399.683	0.0	2400076	WORD_OFF	n/a	n/a	MAIZ	12	14	[0, 0, 0]	n/a	FR1	1	R1331T
2399.683	0.001	2400076	ENCODING_END	n/a	n/a	n/a	-999	14	[0, 0, 0]	n/a	FR1	1	R1331T
2399.684	0.0	2400077	DISTRACT_START	n/a	n/a	n/a	-999	14	[0, 0, 0]	n/a	FR1	1	R1331T
2399.684	0.015	2400077	START	n/a	n/a	n/a	-999	14	[-999, -999, -999]	n/a	FR1	1	R1331T
2399.699	6.468	2400092	PROB	6.468	n/a	n/a	-999	14	[2, 2, 6]	10	FR1	1	R1331T
2406.167	4.268	2406560	PROB	4.268	n/a	n/a	-999	14	[2, 8, 3]	13	FR1	1	R1331T
2410.435	5.617	2410828	PROB	5.617	n/a	n/a	-999	14	[4, 5, 4]	14	FR1	1	R1331T
2416.052	8.879	2416445	PROB	8.879	n/a	n/a	-999	14	[9, 2, 5]	16	FR1	1	R1331T
2424.931	0.023	2425323	STOP	n/a	n/a	n/a	-999	14	[-999, -999, -999]	n/a	FR1	1	R1331T
2424.954	0.676	2425346	DISTRACT_END	n/a	n/a	n/a	-999	14	[0, 0, 0]	n/a	FR1	1	R1331T
2425.63	1.558	2426022	RETRIEVAL_ORIENT_START	n/a	n/a	n/a	-999	14	[0, 0, 0]	n/a	FR1	1	R1331T
2427.188	0.0	2427580	RETRIEVAL_ORIENT_END	n/a	n/a	n/a	-999	14	[0, 0, 0]	n/a	FR1	1	R1331T
2427.188	1.154	2427580	REC_START	n/a	n/a	n/a	-999	14	[0, 0, 0]	n/a	FR1	1	R1331T
2428.342	0.894	2428734	REC_WORD	0.894	n/a	TORTILLA	-999	14	[0, 0, 0]	n/a	FR1	1	R1331T
2429.236	2.598	2429628	REC_WORD	2.598	n/a	MAIZ	-999	14	[0, 0, 0]	n/a	FR1	1	R1331T
2431.834	1.123	2432226	REC_WORD_VV	1.123	n/a	<>	-999	14	[0, 0, 0]	n/a	FR1	1	R1331T
2432.957	3.049	2433349	REC_WORD	3.049	n/a	JUEZ	9	14	[0, 0, 0]	n/a	FR1	1	R1331T
2436.006	2.475	2436398	REC_WORD	2.475	n/a	JULSIO	-999	14	[0, 0, 0]	n/a	FR1	1	R1331T
2438.481	3.916	2438873	REC_WORD	3.916	n/a	CARRO	-999	14	[0, 0, 0]	n/a	FR1	1	R1331T
2442.397	1.0	2442788	REC_WORD_VV	1.0	n/a	<>	-999	14	[0, 0, 0]	n/a	FR1	1	R1331T
2443.397	5.074	2443788	REC_WORD_VV	5.074	n/a	<>	-999	14	[0, 0, 0]	n/a	FR1	1	R1331T
2448.471	6.136	2448862	REC_WORD	6.136	n/a	LUNA	-999	14	[0, 0, 0]	n/a	FR1	1	R1331T
2454.607	2.593	2454998	REC_WORD	2.593	n/a	PRECIPICIO	-999	14	[0, 0, 0]	n/a	FR1	1	R1331T
2457.2	0.0	2457591	REC_END	n/a	n/a	n/a	-999	14	[0, 0, 0]	n/a	FR1	1	R1331T
2457.2	0.015	2457591	TRIAL_END	n/a	n/a	n/a	-999	14	[0, 0, 0]	n/a	FR1	1	R1331T
2457.215	0.0	2457606	TRIAL_START	n/a	n/a	n/a	-999	15	[0, 0, 0]	n/a	FR1	1	R1331T
2457.215	0.0	2457606	TRIAL	n/a	n/a	n/a	-999	15	[0, 0, 0]	n/a	FR1	1	R1331T
2457.215	2.479	2457606	WAITING_START	n/a	n/a	n/a	-999	15	[0, 0, 0]	n/a	FR1	1	R1331T
2459.694	0.0	2460085	WAITING_END	n/a	n/a	n/a	-999	15	[0, 0, 0]	n/a	FR1	1	R1331T
2459.694	10.429	2460085	COUNTDOWN_START	n/a	n/a	n/a	-999	15	[0, 0, 0]	n/a	FR1	1	R1331T
2470.123	0.0	2470513	COUNTDOWN_END	n/a	n/a	n/a	-999	15	[0, 0, 0]	n/a	FR1	1	R1331T
2470.123	1.106	2470513	ORIENT_START	n/a	n/a	n/a	-999	15	[0, 0, 0]	n/a	FR1	1	R1331T
2471.229	0.001	2471619	ORIENT_END	n/a	n/a	n/a	-999	15	[0, 0, 0]	n/a	FR1	1	R1331T
2471.23	1.053	2471620	ENCODING_START	n/a	n/a	n/a	-999	15	[0, 0, 0]	n/a	FR1	1	R1331T
2472.283	1.63	2472673	WORD	n/a	wordpools/wordpool_long_SP.txt	ANGUILA	1	15	[0, 0, 0]	n/a	FR1	1	R1331T
2473.913	0.903	2474303	WORD_OFF	n/a	n/a	ANGUILA	1	15	[0, 0, 0]	n/a	FR1	1	R1331T
2474.816	1.631	2475206	WORD	n/a	wordpools/wordpool_long_SP.txt	ESTRELLA	2	15	[0, 0, 0]	n/a	FR1	1	R1331T
2476.447	0.903	2476837	WORD_OFF	n/a	n/a	ESTRELLA	2	15	[0, 0, 0]	n/a	FR1	1	R1331T
2477.35	1.631	2477740	WORD	n/a	wordpools/wordpool_long_SP.txt	PALO	3	15	[0, 0, 0]	n/a	FR1	1	R1331T
2478.981	0.984	2479371	WORD_OFF	n/a	n/a	PALO	3	15	[0, 0, 0]	n/a	FR1	1	R1331T
2479.965	1.633	2480355	WORD	n/a	wordpools/wordpool_long_SP.txt	MANGA	4	15	[0, 0, 0]	n/a	FR1	1	R1331T
2481.598	1.039	2481988	WORD_OFF	n/a	n/a	MANGA	4	15	[0, 0, 0]	n/a	FR1	1	R1331T
2482.637	1.628	2483027	WORD	n/a	wordpools/wordpool_long_SP.txt	UNA	5	15	[0, 0, 0]	n/a	FR1	1	R1331T
2484.265	1.069	2484654	WORD_OFF	n/a	n/a	UNA	5	15	[0, 0, 0]	n/a	FR1	1	R1331T
2485.334	1.631	2485723	WORD	n/a	wordpools/wordpool_long_SP.txt	HORMIGA	6	15	[0, 0, 0]	n/a	FR1	1	R1331T
2486.965	1.093	2487354	WORD_OFF	n/a	n/a	HORMIGA	6	15	[0, 0, 0]	n/a	FR1	1	R1331T
2488.058	1.624	2488447	WORD	n/a	wordpools/wordpool_long_SP.txt	LLUVIA	7	15	[0, 0, 0]	n/a	FR1	1	R1331T
2489.682	0.854	2490071	WORD_OFF	n/a	n/a	LLUVIA	7	15	[0, 0, 0]	n/a	FR1	1	R1331T
2490.536	1.63	2490925	WORD	n/a	wordpools/wordpool_long_SP.txt	ESPUMA	8	15	[0, 0, 0]	n/a	FR1	1	R1331T
2492.166	0.934	2492555	WORD_OFF	n/a	n/a	ESPUMA	8	15	[0, 0, 0]	n/a	FR1	1	R1331T
2493.1	1.633	2493489	WORD	n/a	wordpools/wordpool_long_SP.txt	DIENTE	9	15	[0, 0, 0]	n/a	FR1	1	R1331T
2494.733	0.814	2495122	WORD_OFF	n/a	n/a	DIENTE	9	15	[0, 0, 0]	n/a	FR1	1	R1331T
2495.547	1.637	2495936	WORD	n/a	wordpools/wordpool_long_SP.txt	JUGUETE	10	15	[0, 0, 0]	n/a	FR1	1	R1331T
2497.184	1.075	2497573	WORD_OFF	n/a	n/a	JUGUETE	10	15	[0, 0, 0]	n/a	FR1	1	R1331T
2498.259	1.625	2498648	WORD	n/a	wordpools/wordpool_long_SP.txt	TERRENO	11	15	[0, 0, 0]	n/a	FR1	1	R1331T
2499.884	0.797	2500273	WORD_OFF	n/a	n/a	TERRENO	11	15	[0, 0, 0]	n/a	FR1	1	R1331T
2500.681	1.637	2501070	WORD	n/a	wordpools/wordpool_long_SP.txt	HUMO	12	15	[0, 0, 0]	n/a	FR1	1	R1331T
2502.318	0.001	2502707	WORD_OFF	n/a	n/a	HUMO	12	15	[0, 0, 0]	n/a	FR1	1	R1331T
2502.319	0.0	2502708	ENCODING_END	n/a	n/a	n/a	-999	15	[0, 0, 0]	n/a	FR1	1	R1331T
2502.319	0.0	2502708	DISTRACT_START	n/a	n/a	n/a	-999	15	[0, 0, 0]	n/a	FR1	1	R1331T
2502.319	0.016	2502708	START	n/a	n/a	n/a	-999	15	[-999, -999, -999]	n/a	FR1	1	R1331T
2502.335	20.294	2502724	PROB	20.294	n/a	n/a	-999	15	[8, 6, 9]	23	FR1	1	R1331T
2522.629	0.009	2523017	STOP	n/a	n/a	n/a	-999	15	[-999, -999, -999]	n/a	FR1	1	R1331T
2522.638	0.663	2523026	DISTRACT_END	n/a	n/a	n/a	-999	15	[0, 0, 0]	n/a	FR1	1	R1331T
2523.301	1.621	2523689	RETRIEVAL_ORIENT_START	n/a	n/a	n/a	-999	15	[0, 0, 0]	n/a	FR1	1	R1331T
2524.922	0.001	2525310	RETRIEVAL_ORIENT_END	n/a	n/a	n/a	-999	15	[0, 0, 0]	n/a	FR1	1	R1331T
2524.923	2.119	2525311	REC_START	n/a	n/a	n/a	-999	15	[0, 0, 0]	n/a	FR1	1	R1331T
2527.042	3.955	2527430	REC_WORD_VV	3.955	n/a	<>	-999	15	[0, 0, 0]	n/a	FR1	1	R1331T
2530.997	3.483	2531384	REC_WORD	3.483	n/a	ANGUILA	1	15	[0, 0, 0]	n/a	FR1	1	R1331T
2534.48	1.0	2534867	REC_WORD_VV	1.0	n/a	<>	-999	15	[0, 0, 0]	n/a	FR1	1	R1331T
2535.48	1.051	2535867	REC_WORD_VV	1.051	n/a	<>	-999	15	[0, 0, 0]	n/a	FR1	1	R1331T
2536.531	4.253	2536918	REC_WORD	4.253	n/a	CALLE	-999	15	[0, 0, 0]	n/a	FR1	1	R1331T
2540.784	1.0	2541171	REC_WORD	1.0	n/a	PRECIPICIO	-999	15	[0, 0, 0]	n/a	FR1	1	R1331T
2541.784	3.612	2542171	REC_WORD_VV	3.612	n/a	<>	-999	15	[0, 0, 0]	n/a	FR1	1	R1331T
2545.396	2.995	2545783	REC_WORD_VV	2.995	n/a	<>	-999	15	[0, 0, 0]	n/a	FR1	1	R1331T
2548.391	4.107	2548778	REC_WORD	4.107	n/a	VESTIDO	-999	15	[0, 0, 0]	n/a	FR1	1	R1331T
2552.498	2.436	2552884	REC_WORD	2.436	n/a	CALLE	-999	15	[0, 0, 0]	n/a	FR1	1	R1331T
2554.934	0.0	2555320	REC_END	n/a	n/a	n/a	-999	15	[0, 0, 0]	n/a	FR1	1	R1331T
2554.934	0.015	2555320	TRIAL_END	n/a	n/a	n/a	-999	15	[0, 0, 0]	n/a	FR1	1	R1331T
2554.949	0.001	2555335	TRIAL_START	n/a	n/a	n/a	-999	16	[0, 0, 0]	n/a	FR1	1	R1331T
2554.95	0.0	2555336	TRIAL	n/a	n/a	n/a	-999	16	[0, 0, 0]	n/a	FR1	1	R1331T
2554.95	3.445	2555336	WAITING_START	n/a	n/a	n/a	-999	16	[0, 0, 0]	n/a	FR1	1	R1331T
2558.395	0.0	2558781	WAITING_END	n/a	n/a	n/a	-999	16	[0, 0, 0]	n/a	FR1	1	R1331T
2558.395	10.429	2558781	COUNTDOWN_START	n/a	n/a	n/a	-999	16	[0, 0, 0]	n/a	FR1	1	R1331T
2568.824	0.0	2569210	COUNTDOWN_END	n/a	n/a	n/a	-999	16	[0, 0, 0]	n/a	FR1	1	R1331T
2568.824	1.023	2569210	ORIENT_START	n/a	n/a	n/a	-999	16	[0, 0, 0]	n/a	FR1	1	R1331T
2569.847	0.001	2570233	ORIENT_END	n/a	n/a	n/a	-999	16	[0, 0, 0]	n/a	FR1	1	R1331T
2569.848	0.999	2570234	ENCODING_START	n/a	n/a	n/a	-999	16	[0, 0, 0]	n/a	FR1	1	R1331T
2570.847	1.634	2571233	WORD	n/a	wordpools/wordpool_long_SP.txt	CUEVA	1	16	[0, 0, 0]	n/a	FR1	1	R1331T
2572.481	0.8	2572866	WORD_OFF	n/a	n/a	CUEVA	1	16	[0, 0, 0]	n/a	FR1	1	R1331T
2573.281	1.634	2573666	WORD	n/a	wordpools/wordpool_long_SP.txt	LODO	2	16	[0, 0, 0]	n/a	FR1	1	R1331T
2574.915	0.918	2575300	WORD_OFF	n/a	n/a	LODO	2	16	[0, 0, 0]	n/a	FR1	1	R1331T
2575.833	1.632	2576218	WORD	n/a	wordpools/wordpool_long_SP.txt	ALFILER	3	16	[0, 0, 0]	n/a	FR1	1	R1331T
2577.465	1.14	2577850	WORD_OFF	n/a	n/a	ALFILER	3	16	[0, 0, 0]	n/a	FR1	1	R1331T
2578.605	1.627	2578990	WORD	n/a	wordpools/wordpool_long_SP.txt	CUCHARA	4	16	[0, 0, 0]	n/a	FR1	1	R1331T
2580.232	0.763	2580617	WORD_OFF	n/a	n/a	CUCHARA	4	16	[0, 0, 0]	n/a	FR1	1	R1331T
2580.995	1.638	2581380	WORD	n/a	wordpools/wordpool_long_SP.txt	MAPA	5	16	[0, 0, 0]	n/a	FR1	1	R1331T
2582.633	0.931	2583018	WORD_OFF	n/a	n/a	MAPA	5	16	[0, 0, 0]	n/a	FR1	1	R1331T
2583.564	1.636	2583949	WORD	n/a	wordpools/wordpool_long_SP.txt	PAN	6	16	[0, 0, 0]	n/a	FR1	1	R1331T
2585.2	0.997	2585585	WORD_OFF	n/a	n/a	PAN	6	16	[0, 0, 0]	n/a	FR1	1	R1331T
2586.197	1.637	2586582	WORD	n/a	wordpools/wordpool_long_SP.txt	TELEFONO	7	16	[0, 0, 0]	n/a	FR1	1	R1331T
2587.834	0.849	2588219	WORD_OFF	n/a	n/a	TELEFONO	7	16	[0, 0, 0]	n/a	FR1	1	R1331T
2588.683	1.634	2589068	WORD	n/a	wordpools/wordpool_long_SP.txt	BOCA	8	16	[0, 0, 0]	n/a	FR1	1	R1331T
2590.317	0.759	2590702	WORD_OFF	n/a	n/a	BOCA	8	16	[0, 0, 0]	n/a	FR1	1	R1331T
2591.076	1.625	2591461	WORD	n/a	wordpools/wordpool_long_SP.txt	POZO	9	16	[0, 0, 0]	n/a	FR1	1	R1331T
2592.701	1.034	2593086	WORD_OFF	n/a	n/a	POZO	9	16	[0, 0, 0]	n/a	FR1	1	R1331T
2593.735	1.633	2594119	WORD	n/a	wordpools/wordpool_long_SP.txt	GANSOS	10	16	[0, 0, 0]	n/a	FR1	1	R1331T
2595.368	0.996	2595752	WORD_OFF	n/a	n/a	GANSOS	10	16	[0, 0, 0]	n/a	FR1	1	R1331T
2596.364	1.621	2596748	WORD	n/a	wordpools/wordpool_long_SP.txt	DULCE	11	16	[0, 0, 0]	n/a	FR1	1	R1331T
2597.985	0.866	2598369	WORD_OFF	n/a	n/a	DULCE	11	16	[0, 0, 0]	n/a	FR1	1	R1331T
2598.851	1.635	2599235	WORD	n/a	wordpools/wordpool_long_SP.txt	MUNDO	12	16	[0, 0, 0]	n/a	FR1	1	R1331T
2600.486	0.0	2600870	WORD_OFF	n/a	n/a	MUNDO	12	16	[0, 0, 0]	n/a	FR1	1	R1331T
2600.486	0.001	2600870	ENCODING_END	n/a	n/a	n/a	-999	16	[0, 0, 0]	n/a	FR1	1	R1331T
2600.487	0.0	2600871	DISTRACT_START	n/a	n/a	n/a	-999	16	[0, 0, 0]	n/a	FR1	1	R1331T
2600.487	0.015	2600871	START	n/a	n/a	n/a	-999	16	[-999, -999, -999]	n/a	FR1	1	R1331T
2600.502	9.269	2600886	PROB	9.269	n/a	n/a	-999	16	[9, 4, 9]	22	FR1	1	R1331T
2609.771	8.668	2610155	PROB	8.668	n/a	n/a	-999	16	[8, 6, 7]	21	FR1	1	R1331T
2618.439	5.501	2618822	PROB	5.501	n/a	n/a	-999	16	[4, 2, 8]	14	FR1	1	R1331T
2623.94	0.017	2624323	STOP	n/a	n/a	n/a	-999	16	[-999, -999, -999]	n/a	FR1	1	R1331T
2623.957	0.651	2624340	DISTRACT_END	n/a	n/a	n/a	-999	16	[0, 0, 0]	n/a	FR1	1	R1331T
2624.608	1.534	2624991	RETRIEVAL_ORIENT_START	n/a	n/a	n/a	-999	16	[0, 0, 0]	n/a	FR1	1	R1331T
2626.142	0.0	2626525	RETRIEVAL_ORIENT_END	n/a	n/a	n/a	-999	16	[0, 0, 0]	n/a	FR1	1	R1331T
2626.142	1.965	2626525	REC_START	n/a	n/a	n/a	-999	16	[0, 0, 0]	n/a	FR1	1	R1331T
2628.107	0.757	2628490	REC_WORD_VV	0.757	n/a	<>	-999	16	[0, 0, 0]	n/a	FR1	1	R1331T
2628.864	0.554	2629247	REC_WORD	0.554	n/a	CUEVA	1	16	[0, 0, 0]	n/a	FR1	1	R1331T
2629.418	0.382	2629801	REC_WORD	0.382	n/a	LODO	2	16	[0, 0, 0]	n/a	FR1	1	R1331T
2629.8	1.827	2630183	REC_WORD	1.827	n/a	ALFILER	3	16	[0, 0, 0]	n/a	FR1	1	R1331T
2631.627	2.726	2632010	REC_WORD	2.726	n/a	GANSOS	10	16	[0, 0, 0]	n/a	FR1	1	R1331T
2634.353	0.867	2634736	REC_WORD_VV	0.867	n/a	<>	-999	16	[0, 0, 0]	n/a	FR1	1	R1331T
2635.22	6.249	2635603	REC_WORD	6.249	n/a	SOKETE	-999	16	[0, 0, 0]	n/a	FR1	1	R1331T
2641.469	2.884	2641851	REC_WORD_VV	2.884	n/a	<>	-999	16	[0, 0, 0]	n/a	FR1	1	R1331T
2644.353	5.281	2644735	REC_WORD	5.281	n/a	CAEHULLA	-999	16	[0, 0, 0]	n/a	FR1	1	R1331T
2649.634	6.516	2650016	REC_WORD	6.516	n/a	BRINKOS	-999	16	[0, 0, 0]	n/a	FR1	1	R1331T
2656.15	0.001	2656532	REC_END	n/a	n/a	n/a	-999	16	[0, 0, 0]	n/a	FR1	1	R1331T
2656.151	0.016	2656533	TRIAL_END	n/a	n/a	n/a	-999	16	[0, 0, 0]	n/a	FR1	1	R1331T
2656.167	0.001	2656549	TRIAL_START	n/a	n/a	n/a	-999	17	[0, 0, 0]	n/a	FR1	1	R1331T
2656.168	0.0	2656550	TRIAL	n/a	n/a	n/a	-999	17	[0, 0, 0]	n/a	FR1	1	R1331T
2656.168	3.029	2656550	WAITING_START	n/a	n/a	n/a	-999	17	[0, 0, 0]	n/a	FR1	1	R1331T
2659.197	0.0	2659578	WAITING_END	n/a	n/a	n/a	-999	17	[0, 0, 0]	n/a	FR1	1	R1331T
2659.197	10.429	2659578	COUNTDOWN_START	n/a	n/a	n/a	-999	17	[0, 0, 0]	n/a	FR1	1	R1331T
2669.626	0.0	2670007	COUNTDOWN_END	n/a	n/a	n/a	-999	17	[0, 0, 0]	n/a	FR1	1	R1331T
2669.626	1.223	2670007	ORIENT_START	n/a	n/a	n/a	-999	17	[0, 0, 0]	n/a	FR1	1	R1331T
2670.849	0.0	2671230	ORIENT_END	n/a	n/a	n/a	-999	17	[0, 0, 0]	n/a	FR1	1	R1331T
2670.849	0.877	2671230	ENCODING_START	n/a	n/a	n/a	-999	17	[0, 0, 0]	n/a	FR1	1	R1331T
2671.726	1.623	2672107	WORD	n/a	wordpools/wordpool_long_SP.txt	TAPETE	1	17	[0, 0, 0]	n/a	FR1	1	R1331T
2673.349	1.017	2673730	WORD_OFF	n/a	n/a	TAPETE	1	17	[0, 0, 0]	n/a	FR1	1	R1331T
2674.366	1.634	2674747	WORD	n/a	wordpools/wordpool_long_SP.txt	JABON	2	17	[0, 0, 0]	n/a	FR1	1	R1331T
2676.0	0.915	2676381	WORD_OFF	n/a	n/a	JABON	2	17	[0, 0, 0]	n/a	FR1	1	R1331T
2676.915	1.635	2677296	WORD	n/a	wordpools/wordpool_long_SP.txt	LABIO	3	17	[0, 0, 0]	n/a	FR1	1	R1331T
2678.55	0.975	2678931	WORD_OFF	n/a	n/a	LABIO	3	17	[0, 0, 0]	n/a	FR1	1	R1331T
2679.525	1.626	2679906	WORD	n/a	wordpools/wordpool_long_SP.txt	TAZA	4	17	[0, 0, 0]	n/a	FR1	1	R1331T
2681.151	0.907	2681531	WORD_OFF	n/a	n/a	TAZA	4	17	[0, 0, 0]	n/a	FR1	1	R1331T
2682.058	1.626	2682438	WORD	n/a	wordpools/wordpool_long_SP.txt	CAPA	5	17	[0, 0, 0]	n/a	FR1	1	R1331T
2683.684	1.01	2684064	WORD_OFF	n/a	n/a	CAPA	5	17	[0, 0, 0]	n/a	FR1	1	R1331T
2684.694	1.624	2685074	WORD	n/a	wordpools/wordpool_long_SP.txt	PERA	6	17	[0, 0, 0]	n/a	FR1	1	R1331T
2686.318	1.118	2686698	WORD_OFF	n/a	n/a	PERA	6	17	[0, 0, 0]	n/a	FR1	1	R1331T
2687.436	1.633	2687816	WORD	n/a	wordpools/wordpool_long_SP.txt	ZAPATO	7	17	[0, 0, 0]	n/a	FR1	1	R1331T
2689.069	1.072	2689449	WORD_OFF	n/a	n/a	ZAPATO	7	17	[0, 0, 0]	n/a	FR1	1	R1331T
2690.141	1.628	2690521	WORD	n/a	wordpools/wordpool_long_SP.txt	PLATO	8	17	[0, 0, 0]	n/a	FR1	1	R1331T
2691.769	1.124	2692149	WORD_OFF	n/a	n/a	PLATO	8	17	[0, 0, 0]	n/a	FR1	1	R1331T
2692.893	1.627	2693273	WORD	n/a	wordpools/wordpool_long_SP.txt	PERLA	9	17	[0, 0, 0]	n/a	FR1	1	R1331T
2694.52	1.143	2694900	WORD_OFF	n/a	n/a	PERLA	9	17	[0, 0, 0]	n/a	FR1	1	R1331T
2695.663	1.624	2696043	WORD	n/a	wordpools/wordpool_long_SP.txt	NUBE	10	17	[0, 0, 0]	n/a	FR1	1	R1331T
2697.287	1.127	2697667	WORD_OFF	n/a	n/a	NUBE	10	17	[0, 0, 0]	n/a	FR1	1	R1331T
2698.414	1.623	2698794	WORD	n/a	wordpools/wordpool_long_SP.txt	LIBRO	11	17	[0, 0, 0]	n/a	FR1	1	R1331T
2700.037	0.879	2700417	WORD_OFF	n/a	n/a	LIBRO	11	17	[0, 0, 0]	n/a	FR1	1	R1331T
2700.916	1.622	2701296	WORD	n/a	wordpools/wordpool_long_SP.txt	PARED	12	17	[0, 0, 0]	n/a	FR1	1	R1331T
2702.538	0.0	2702918	WORD_OFF	n/a	n/a	PARED	12	17	[0, 0, 0]	n/a	FR1	1	R1331T
2702.538	0.0	2702918	ENCODING_END	n/a	n/a	n/a	-999	17	[0, 0, 0]	n/a	FR1	1	R1331T
2702.538	0.001	2702918	DISTRACT_START	n/a	n/a	n/a	-999	17	[0, 0, 0]	n/a	FR1	1	R1331T
2702.539	0.015	2702919	START	n/a	n/a	n/a	-999	17	[-999, -999, -999]	n/a	FR1	1	R1331T
2702.554	5.551	2702934	PROB	5.551	n/a	n/a	-999	17	[7, 3, 4]	14	FR1	1	R1331T
2708.105	4.434	2708484	PROB	4.434	n/a	n/a	-999	17	[1, 9, 3]	13	FR1	1	R1331T
2712.539	5.718	2712918	PROB	5.718	n/a	n/a	-999	17	[4, 1, 5]	10	FR1	1	R1331T
2718.257	5.086	2718636	PROB	5.086	n/a	n/a	-999	17	[3, 3, 6]	12	FR1	1	R1331T
2723.343	0.015	2723722	STOP	n/a	n/a	n/a	-999	17	[-999, -999, -999]	n/a	FR1	1	R1331T
2723.358	0.545	2723737	DISTRACT_END	n/a	n/a	n/a	-999	17	[0, 0, 0]	n/a	FR1	1	R1331T
2723.903	1.706	2724282	RETRIEVAL_ORIENT_START	n/a	n/a	n/a	-999	17	[0, 0, 0]	n/a	FR1	1	R1331T
2725.609	0.0	2725987	RETRIEVAL_ORIENT_END	n/a	n/a	n/a	-999	17	[0, 0, 0]	n/a	FR1	1	R1331T
2725.609	1.204	2725987	REC_START	n/a	n/a	n/a	-999	17	[0, 0, 0]	n/a	FR1	1	R1331T
2726.813	1.135	2727191	REC_WORD	1.135	n/a	PERA	6	17	[0, 0, 0]	n/a	FR1	1	R1331T
2727.948	2.188	2728326	REC_WORD	2.188	n/a	ALFILER	-999	17	[0, 0, 0]	n/a	FR1	1	R1331T
2730.136	0.315	2730514	REC_WORD_VV	0.315	n/a	<>	-999	17	[0, 0, 0]	n/a	FR1	1	R1331T
2730.451	1.259	2730829	REC_WORD	1.259	n/a	PERLA	9	17	[0, 0, 0]	n/a	FR1	1	R1331T
2731.71	6.403	2732088	REC_WORD	6.403	n/a	ANILLO	-999	17	[0, 0, 0]	n/a	FR1	1	R1331T
2738.113	8.652	2738491	REC_WORD	8.652	n/a	VESTIDO	-999	17	[0, 0, 0]	n/a	FR1	1	R1331T
2746.765	2.861	2747142	REC_WORD	2.861	n/a	CONPROMISO	-999	17	[0, 0, 0]	n/a	FR1	1	R1331T
2749.626	1.109	2750003	REC_WORD	1.109	n/a	ZAPATO	7	17	[0, 0, 0]	n/a	FR1	1	R1331T
2750.735	4.883	2751112	REC_WORD	4.883	n/a	MEDIA	-999	17	[0, 0, 0]	n/a	FR1	1	R1331T
2755.618	0.001	2755995	REC_END	n/a	n/a	n/a	-999	17	[0, 0, 0]	n/a	FR1	1	R1331T
2755.619	0.014	2755996	TRIAL_END	n/a	n/a	n/a	-999	17	[0, 0, 0]	n/a	FR1	1	R1331T
2755.633	0.0	2756010	TRIAL_START	n/a	n/a	n/a	-999	18	[0, 0, 0]	n/a	FR1	1	R1331T
2755.633	0.0	2756010	TRIAL	n/a	n/a	n/a	-999	18	[0, 0, 0]	n/a	FR1	1	R1331T
2755.633	2.598	2756010	WAITING_START	n/a	n/a	n/a	-999	18	[0, 0, 0]	n/a	FR1	1	R1331T
2758.231	0.001	2758608	WAITING_END	n/a	n/a	n/a	-999	18	[0, 0, 0]	n/a	FR1	1	R1331T
2758.232	10.428	2758609	COUNTDOWN_START	n/a	n/a	n/a	-999	18	[0, 0, 0]	n/a	FR1	1	R1331T
2768.66	0.001	2769036	COUNTDOWN_END	n/a	n/a	n/a	-999	18	[0, 0, 0]	n/a	FR1	1	R1331T
2768.661	1.172	2769037	ORIENT_START	n/a	n/a	n/a	-999	18	[0, 0, 0]	n/a	FR1	1	R1331T
2769.833	0.001	2770209	ORIENT_END	n/a	n/a	n/a	-999	18	[0, 0, 0]	n/a	FR1	1	R1331T
2769.834	0.961	2770210	ENCODING_START	n/a	n/a	n/a	-999	18	[0, 0, 0]	n/a	FR1	1	R1331T
2770.795	1.639	2771171	WORD	n/a	wordpools/wordpool_long_SP.txt	AVION	1	18	[0, 0, 0]	n/a	FR1	1	R1331T
2772.434	0.852	2772810	WORD_OFF	n/a	n/a	AVION	1	18	[0, 0, 0]	n/a	FR1	1	R1331T
2773.286	1.632	2773662	WORD	n/a	wordpools/wordpool_long_SP.txt	CARPA	2	18	[0, 0, 0]	n/a	FR1	1	R1331T
2774.918	0.986	2775294	WORD_OFF	n/a	n/a	CARPA	2	18	[0, 0, 0]	n/a	FR1	1	R1331T
2775.904	1.631	2776280	WORD	n/a	wordpools/wordpool_long_SP.txt	PIE	3	18	[0, 0, 0]	n/a	FR1	1	R1331T
2777.535	0.818	2777911	WORD_OFF	n/a	n/a	PIE	3	18	[0, 0, 0]	n/a	FR1	1	R1331T
2778.353	1.632	2778729	WORD	n/a	wordpools/wordpool_long_SP.txt	TARRO	4	18	[0, 0, 0]	n/a	FR1	1	R1331T
2779.985	0.972	2780361	WORD_OFF	n/a	n/a	TARRO	4	18	[0, 0, 0]	n/a	FR1	1	R1331T
2780.957	1.629	2781333	WORD	n/a	wordpools/wordpool_long_SP.txt	OSO	5	18	[0, 0, 0]	n/a	FR1	1	R1331T
2782.586	0.913	2782962	WORD_OFF	n/a	n/a	OSO	5	18	[0, 0, 0]	n/a	FR1	1	R1331T
2783.499	1.637	2783875	WORD	n/a	wordpools/wordpool_long_SP.txt	LUNAR	6	18	[0, 0, 0]	n/a	FR1	1	R1331T
2785.136	0.91	2785512	WORD_OFF	n/a	n/a	LUNAR	6	18	[0, 0, 0]	n/a	FR1	1	R1331T
2786.046	1.624	2786422	WORD	n/a	wordpools/wordpool_long_SP.txt	MENTON	7	18	[0, 0, 0]	n/a	FR1	1	R1331T
2787.67	0.816	2788046	WORD_OFF	n/a	n/a	MENTON	7	18	[0, 0, 0]	n/a	FR1	1	R1331T
2788.486	1.634	2788862	WORD	n/a	wordpools/wordpool_long_SP.txt	FLORECER	8	18	[0, 0, 0]	n/a	FR1	1	R1331T
2790.12	0.821	2790496	WORD_OFF	n/a	n/a	FLORECER	8	18	[0, 0, 0]	n/a	FR1	1	R1331T
2790.941	1.63	2791316	WORD	n/a	wordpools/wordpool_long_SP.txt	GRANJA	9	18	[0, 0, 0]	n/a	FR1	1	R1331T
2792.571	0.788	2792946	WORD_OFF	n/a	n/a	GRANJA	9	18	[0, 0, 0]	n/a	FR1	1	R1331T
2793.359	1.629	2793734	WORD	n/a	wordpools/wordpool_long_SP.txt	ARROZ	10	18	[0, 0, 0]	n/a	FR1	1	R1331T
2794.988	1.104	2795363	WORD_OFF	n/a	n/a	ARROZ	10	18	[0, 0, 0]	n/a	FR1	1	R1331T
2796.092	1.63	2796467	WORD	n/a	wordpools/wordpool_long_SP.txt	SERPIENTE	11	18	[0, 0, 0]	n/a	FR1	1	R1331T
2797.722	1.136	2798097	WORD_OFF	n/a	n/a	SERPIENTE	11	18	[0, 0, 0]	n/a	FR1	1	R1331T
2798.858	1.631	2799233	WORD	n/a	wordpools/wordpool_long_SP.txt	CARRETERA	12	18	[0, 0, 0]	n/a	FR1	1	R1331T
2800.489	0.0	2800864	WORD_OFF	n/a	n/a	CARRETERA	12	18	[0, 0, 0]	n/a	FR1	1	R1331T
2800.489	0.001	2800864	ENCODING_END	n/a	n/a	n/a	-999	18	[0, 0, 0]	n/a	FR1	1	R1331T
2800.49	0.0	2800865	DISTRACT_START	n/a	n/a	n/a	-999	18	[0, 0, 0]	n/a	FR1	1	R1331T
2800.49	0.015	2800865	START	n/a	n/a	n/a	-999	18	[-999, -999, -999]	n/a	FR1	1	R1331T
2800.505	7.502	2800880	PROB	7.502	n/a	n/a	-999	18	[6, 3, 2]	11	FR1	1	R1331T
2808.007	4.734	2808382	PROB	4.734	n/a	n/a	-999	18	[1, 7, 1]	9	FR1	1	R1331T
2812.741	4.617	2813115	PROB	4.617	n/a	n/a	-999	18	[2, 5, 2]	9	FR1	1	R1331T
2817.358	4.418	2817732	PROB	4.418	n/a	n/a	-999	18	[7, 7, 1]	15	FR1	1	R1331T
2821.776	0.017	2822150	STOP	n/a	n/a	n/a	-999	18	[-999, -999, -999]	n/a	FR1	1	R1331T
2821.793	0.577	2822167	DISTRACT_END	n/a	n/a	n/a	-999	18	[0, 0, 0]	n/a	FR1	1	R1331T
2822.37	1.673	2822744	RETRIEVAL_ORIENT_START	n/a	n/a	n/a	-999	18	[0, 0, 0]	n/a	FR1	1	R1331T
2824.043	0.001	2824417	RETRIEVAL_ORIENT_END	n/a	n/a	n/a	-999	18	[0, 0, 0]	n/a	FR1	1	R1331T
2824.044	2.983	2824418	REC_START	n/a	n/a	n/a	-999	18	[0, 0, 0]	n/a	FR1	1	R1331T
2827.027	0.999	2827401	REC_WORD_VV	0.999	n/a	<>	-999	18	[0, 0, 0]	n/a	FR1	1	R1331T
2828.026	2.45	2828400	REC_WORD	2.45	n/a	OSO	5	18	[0, 0, 0]	n/a	FR1	1	R1331T
2830.476	1.0	2830850	REC_WORD_VV	1.0	n/a	<>	-999	18	[0, 0, 0]	n/a	FR1	1	R1331T
2831.476	1.062	2831850	REC_WORD_VV	1.062	n/a	<>	-999	18	[0, 0, 0]	n/a	FR1	1	R1331T
2832.538	1.662	2832912	REC_WORD	1.662	n/a	AGUA	-999	18	[0, 0, 0]	n/a	FR1	1	R1331T
2834.2	2.143	2834573	REC_WORD	2.143	n/a	TARRO	4	18	[0, 0, 0]	n/a	FR1	1	R1331T
2836.343	2.417	2836716	REC_WORD_VV	2.417	n/a	<>	-999	18	[0, 0, 0]	n/a	FR1	1	R1331T
2838.76	1.0	2839133	REC_WORD	1.0	n/a	FLORECIENTE	-999	18	[0, 0, 0]	n/a	FR1	1	R1331T
2839.76	2.797	2840133	REC_WORD_VV	2.797	n/a	<>	-999	18	[0, 0, 0]	n/a	FR1	1	R1331T
2842.557	1.0	2842930	REC_WORD_VV	1.0	n/a	<>	-999	18	[0, 0, 0]	n/a	FR1	1	R1331T
2843.557	7.393	2843930	REC_WORD_VV	7.393	n/a	<>	-999	18	[0, 0, 0]	n/a	FR1	1	R1331T
2850.95	1.361	2851323	REC_WORD	1.361	n/a	CALCETA	-999	18	[0, 0, 0]	n/a	FR1	1	R1331T
2852.311	1.743	2852684	REC_WORD	1.743	n/a	ZAPATO	-999	18	[0, 0, 0]	n/a	FR1	1	R1331T
2854.054	0.001	2854427	REC_END	n/a	n/a	n/a	-999	18	[0, 0, 0]	n/a	FR1	1	R1331T
2854.055	0.014	2854428	TRIAL_END	n/a	n/a	n/a	-999	18	[0, 0, 0]	n/a	FR1	1	R1331T
2854.069	0.0	2854442	TRIAL_START	n/a	n/a	n/a	-999	19	[0, 0, 0]	n/a	FR1	1	R1331T
2854.069	0.0	2854442	TRIAL	n/a	n/a	n/a	-999	19	[0, 0, 0]	n/a	FR1	1	R1331T
2854.069	3.214	2854442	WAITING_START	n/a	n/a	n/a	-999	19	[0, 0, 0]	n/a	FR1	1	R1331T
2857.283	0.0	2857655	WAITING_END	n/a	n/a	n/a	-999	19	[0, 0, 0]	n/a	FR1	1	R1331T
2857.283	10.428	2857655	COUNTDOWN_START	n/a	n/a	n/a	-999	19	[0, 0, 0]	n/a	FR1	1	R1331T
2867.711	0.001	2868083	COUNTDOWN_END	n/a	n/a	n/a	-999	19	[0, 0, 0]	n/a	FR1	1	R1331T
2867.712	1.123	2868084	ORIENT_START	n/a	n/a	n/a	-999	19	[0, 0, 0]	n/a	FR1	1	R1331T
2868.835	0.0	2869207	ENCODING_START	n/a	n/a	n/a	-999	19	[0, 0, 0]	n/a	FR1	1	R1331T
2868.835	0.819	2869207	ORIENT_END	n/a	n/a	n/a	-999	19	[0, 0, 0]	n/a	FR1	1	R1331T
2869.654	1.631	2870026	WORD	n/a	wordpools/wordpool_long_SP.txt	DURAZNO	1	19	[0, 0, 0]	n/a	FR1	1	R1331T
2871.285	1.126	2871657	WORD_OFF	n/a	n/a	DURAZNO	1	19	[0, 0, 0]	n/a	FR1	1	R1331T
2872.411	1.625	2872783	WORD	n/a	wordpools/wordpool_long_SP.txt	CORBATA	2	19	[0, 0, 0]	n/a	FR1	1	R1331T
2874.036	0.776	2874408	WORD_OFF	n/a	n/a	CORBATA	2	19	[0, 0, 0]	n/a	FR1	1	R1331T
2874.812	1.624	2875184	WORD	n/a	wordpools/wordpool_long_SP.txt	HIERBA	3	19	[0, 0, 0]	n/a	FR1	1	R1331T
2876.436	0.914	2876808	WORD_OFF	n/a	n/a	HIERBA	3	19	[0, 0, 0]	n/a	FR1	1	R1331T
2877.35	1.637	2877722	WORD	n/a	wordpools/wordpool_long_SP.txt	CAJA	4	19	[0, 0, 0]	n/a	FR1	1	R1331T
2878.987	0.992	2879358	WORD_OFF	n/a	n/a	CAJA	4	19	[0, 0, 0]	n/a	FR1	1	R1331T
2879.979	1.625	2880350	WORD	n/a	wordpools/wordpool_long_SP.txt	LOBO	5	19	[0, 0, 0]	n/a	FR1	1	R1331T
2881.604	0.983	2881975	WORD_OFF	n/a	n/a	LOBO	5	19	[0, 0, 0]	n/a	FR1	1	R1331T
2882.587	1.634	2882958	WORD	n/a	wordpools/wordpool_long_SP.txt	POLO	6	19	[0, 0, 0]	n/a	FR1	1	R1331T
2884.221	1.037	2884592	WORD_OFF	n/a	n/a	POLO	6	19	[0, 0, 0]	n/a	FR1	1	R1331T
2885.258	1.63	2885629	WORD	n/a	wordpools/wordpool_long_SP.txt	BARCO	7	19	[0, 0, 0]	n/a	FR1	1	R1331T
2886.888	0.916	2887259	WORD_OFF	n/a	n/a	BARCO	7	19	[0, 0, 0]	n/a	FR1	1	R1331T
2887.804	1.634	2888175	WORD	n/a	wordpools/wordpool_long_SP.txt	TENEDOR	8	19	[0, 0, 0]	n/a	FR1	1	R1331T
2889.438	1.04	2889809	WORD_OFF	n/a	n/a	TENEDOR	8	19	[0, 0, 0]	n/a	FR1	1	R1331T
2890.478	1.628	2890849	WORD	n/a	wordpools/wordpool_long_SP.txt	CORAZON	9	19	[0, 0, 0]	n/a	FR1	1	R1331T
2892.106	0.949	2892477	WORD_OFF	n/a	n/a	CORAZON	9	19	[0, 0, 0]	n/a	FR1	1	R1331T
2893.055	1.634	2893426	WORD	n/a	wordpools/wordpool_long_SP.txt	BANCO	10	19	[0, 0, 0]	n/a	FR1	1	R1331T
2894.689	0.848	2895060	WORD_OFF	n/a	n/a	BANCO	10	19	[0, 0, 0]	n/a	FR1	1	R1331T
2895.537	1.636	2895908	WORD	n/a	wordpools/wordpool_long_SP.txt	ARCA	11	19	[0, 0, 0]	n/a	FR1	1	R1331T
2897.173	0.98	2897544	WORD_OFF	n/a	n/a	ARCA	11	19	[0, 0, 0]	n/a	FR1	1	R1331T
2898.153	1.637	2898524	WORD	n/a	wordpools/wordpool_long_SP.txt	GUARDIA	12	19	[0, 0, 0]	n/a	FR1	1	R1331T
2899.79	0.001	2900160	WORD_OFF	n/a	n/a	GUARDIA	12	19	[0, 0, 0]	n/a	FR1	1	R1331T
2899.791	0.0	2900161	ENCODING_END	n/a	n/a	n/a	-999	19	[0, 0, 0]	n/a	FR1	1	R1331T
2899.791	0.0	2900161	DISTRACT_START	n/a	n/a	n/a	-999	19	[0, 0, 0]	n/a	FR1	1	R1331T
2899.791	0.016	2900161	START	n/a	n/a	n/a	-999	19	[-999, -999, -999]	n/a	FR1	1	R1331T
2899.807	6.151	2900177	PROB	6.151	n/a	n/a	-999	19	[2, 5, 3]	10	FR1	1	R1331T
2905.958	8.001	2906328	PROB	8.001	n/a	n/a	-999	19	[8, 6, 8]	22	FR1	1	R1331T
2913.959	3.301	2914329	PROB	3.301	n/a	n/a	-999	19	[5, 1, 1]	7	FR1	1	R1331T
2917.26	4.011	2917630	PROB	4.011	n/a	n/a	-999	19	[4, 4, 4]	12	FR1	1	R1331T
2921.271	0.007	2921641	STOP	n/a	n/a	n/a	-999	19	[-999, -999, -999]	n/a	FR1	1	R1331T
2921.278	0.697	2921648	DISTRACT_END	n/a	n/a	n/a	-999	19	[0, 0, 0]	n/a	FR1	1	R1331T
2921.975	1.536	2922344	RETRIEVAL_ORIENT_START	n/a	n/a	n/a	-999	19	[0, 0, 0]	n/a	FR1	1	R1331T
2923.511	0.001	2923880	RETRIEVAL_ORIENT_END	n/a	n/a	n/a	-999	19	[0, 0, 0]	n/a	FR1	1	R1331T
2923.512	1.615	2923881	REC_START	n/a	n/a	n/a	-999	19	[0, 0, 0]	n/a	FR1	1	R1331T
2925.127	1.001	2925496	REC_WORD	1.001	n/a	DURAZNO	1	19	[0, 0, 0]	n/a	FR1	1	R1331T
2926.128	1.969	2926497	REC_WORD	1.969	n/a	TENEDOR	8	19	[0, 0, 0]	n/a	FR1	1	R1331T
2928.097	1.221	2928466	REC_WORD	1.221	n/a	CORBATA	2	19	[0, 0, 0]	n/a	FR1	1	R1331T
2929.318	1.881	2929687	REC_WORD	1.881	n/a	GUERVAS	-999	19	[0, 0, 0]	n/a	FR1	1	R1331T
2931.199	0.375	2931568	REC_WORD_VV	0.375	n/a	<>	-999	19	[0, 0, 0]	n/a	FR1	1	R1331T
2931.574	2.391	2931943	REC_WORD	2.391	n/a	LUNA	-999	19	[0, 0, 0]	n/a	FR1	1	R1331T
2933.965	1.718	2934334	REC_WORD_VV	1.718	n/a	<>	-999	19	[0, 0, 0]	n/a	FR1	1	R1331T
2935.683	3.043	2936052	REC_WORD	3.043	n/a	PLANTA	-999	19	[0, 0, 0]	n/a	FR1	1	R1331T
2938.726	1.915	2939095	REC_WORD_VV	1.915	n/a	<>	-999	19	[0, 0, 0]	n/a	FR1	1	R1331T
2940.641	12.19	2941010	REC_WORD	12.19	n/a	CESPED	-999	19	[0, 0, 0]	n/a	FR1	1	R1331T
2952.831	0.692	2953199	REC_WORD	0.692	n/a	CAMPO	-999	19	[0, 0, 0]	n/a	FR1	1	R1331T
2953.523	0.001	2953891	REC_END	n/a	n/a	n/a	-999	19	[0, 0, 0]	n/a	FR1	1	R1331T
2953.524	0.016	2953892	TRIAL_END	n/a	n/a	n/a	-999	19	[0, 0, 0]	n/a	FR1	1	R1331T
2953.54	0.0	2953908	TRIAL_START	n/a	n/a	n/a	-999	20	[0, 0, 0]	n/a	FR1	1	R1331T
2953.54	0.0	2953908	TRIAL	n/a	n/a	n/a	-999	20	[0, 0, 0]	n/a	FR1	1	R1331T
2953.54	8.562	2953908	WAITING_START	n/a	n/a	n/a	-999	20	[0, 0, 0]	n/a	FR1	1	R1331T
2962.102	0.0	2962470	WAITING_END	n/a	n/a	n/a	-999	20	[0, 0, 0]	n/a	FR1	1	R1331T
2962.102	10.428	2962470	COUNTDOWN_START	n/a	n/a	n/a	-999	20	[0, 0, 0]	n/a	FR1	1	R1331T
2972.53	0.001	2972897	COUNTDOWN_END	n/a	n/a	n/a	-999	20	[0, 0, 0]	n/a	FR1	1	R1331T
2972.531	1.023	2972898	ORIENT_START	n/a	n/a	n/a	-999	20	[0, 0, 0]	n/a	FR1	1	R1331T
2973.554	0.0	2973921	ORIENT_END	n/a	n/a	n/a	-999	20	[0, 0, 0]	n/a	FR1	1	R1331T
2973.554	1.1	2973921	ENCODING_START	n/a	n/a	n/a	-999	20	[0, 0, 0]	n/a	FR1	1	R1331T
2974.654	1.634	2975021	WORD	n/a	wordpools/wordpool_long_SP.txt	OVEJA	1	20	[0, 0, 0]	n/a	FR1	1	R1331T
2976.288	1.058	2976655	WORD_OFF	n/a	n/a	OVEJA	1	20	[0, 0, 0]	n/a	FR1	1	R1331T
2977.346	1.625	2977713	WORD	n/a	wordpools/wordpool_long_SP.txt	CASA	2	20	[0, 0, 0]	n/a	FR1	1	R1331T
2978.971	0.806	2979338	WORD_OFF	n/a	n/a	CASA	2	20	[0, 0, 0]	n/a	FR1	1	R1331T
2979.777	1.628	2980144	WORD	n/a	wordpools/wordpool_long_SP.txt	PELICULA	3	20	[0, 0, 0]	n/a	FR1	1	R1331T
2981.405	1.097	2981772	WORD_OFF	n/a	n/a	PELICULA	3	20	[0, 0, 0]	n/a	FR1	1	R1331T
2982.502	1.638	2982869	WORD	n/a	wordpools/wordpool_long_SP.txt	ROSA	4	20	[0, 0, 0]	n/a	FR1	1	R1331T
2984.14	1.019	2984507	WORD_OFF	n/a	n/a	ROSA	4	20	[0, 0, 0]	n/a	FR1	1	R1331T
2985.159	1.63	2985526	WORD	n/a	wordpools/wordpool_long_SP.txt	FLAUTA	5	20	[0, 0, 0]	n/a	FR1	1	R1331T
2986.789	0.768	2987156	WORD_OFF	n/a	n/a	FLAUTA	5	20	[0, 0, 0]	n/a	FR1	1	R1331T
2987.557	1.633	2987923	WORD	n/a	wordpools/wordpool_long_SP.txt	LECHE	6	20	[0, 0, 0]	n/a	FR1	1	R1331T
2989.19	0.9	2989556	WORD_OFF	n/a	n/a	LECHE	6	20	[0, 0, 0]	n/a	FR1	1	R1331T
2990.09	1.634	2990456	WORD	n/a	wordpools/wordpool_long_SP.txt	DARDO	7	20	[0, 0, 0]	n/a	FR1	1	R1331T
2991.724	0.896	2992090	WORD_OFF	n/a	n/a	DARDO	7	20	[0, 0, 0]	n/a	FR1	1	R1331T
2992.62	1.637	2992986	WORD	n/a	wordpools/wordpool_long_SP.txt	GUSANO	8	20	[0, 0, 0]	n/a	FR1	1	R1331T
2994.257	1.03	2994623	WORD_OFF	n/a	n/a	GUSANO	8	20	[0, 0, 0]	n/a	FR1	1	R1331T
2995.287	1.638	2995653	WORD	n/a	wordpools/wordpool_long_SP.txt	ESCUELA	9	20	[0, 0, 0]	n/a	FR1	1	R1331T
2996.925	0.775	2997291	WORD_OFF	n/a	n/a	ESCUELA	9	20	[0, 0, 0]	n/a	FR1	1	R1331T
2997.7	1.625	2998066	WORD	n/a	wordpools/wordpool_long_SP.txt	PULGAR	10	20	[0, 0, 0]	n/a	FR1	1	R1331T
2999.325	0.957	2999691	WORD_OFF	n/a	n/a	PULGAR	10	20	[0, 0, 0]	n/a	FR1	1	R1331T
3000.282	1.627	3000648	WORD	n/a	wordpools/wordpool_long_SP.txt	POLILLA	11	20	[0, 0, 0]	n/a	FR1	1	R1331T
3001.909	0.951	3002275	WORD_OFF	n/a	n/a	POLILLA	11	20	[0, 0, 0]	n/a	FR1	1	R1331T
3002.86	1.633	3003226	WORD	n/a	wordpools/wordpool_long_SP.txt	PAGINA	12	20	[0, 0, 0]	n/a	FR1	1	R1331T
3004.493	0.0	3004859	WORD_OFF	n/a	n/a	PAGINA	12	20	[0, 0, 0]	n/a	FR1	1	R1331T
3004.493	0.0	3004859	ENCODING_END	n/a	n/a	n/a	-999	20	[0, 0, 0]	n/a	FR1	1	R1331T
3004.493	0.001	3004859	DISTRACT_START	n/a	n/a	n/a	-999	20	[0, 0, 0]	n/a	FR1	1	R1331T
3004.494	0.015	3004860	START	n/a	n/a	n/a	-999	20	[-999, -999, -999]	n/a	FR1	1	R1331T
3004.509	7.451	3004875	PROB	7.451	n/a	n/a	-999	20	[6, 2, 3]	11	FR1	1	R1331T
3011.96	4.335	3012325	PROB	4.335	n/a	n/a	-999	20	[9, 2, 1]	12	FR1	1	R1331T
3016.295	5.484	3016660	PROB	5.484	n/a	n/a	-999	20	[4, 6, 9]	19	FR1	1	R1331T
3021.779	7.739	3022144	PROB	7.739	n/a	n/a	-999	20	[1, 4, 3]	8	FR1	1	R1331T
3029.518	0.013	3029883	STOP	n/a	n/a	n/a	-999	20	[-999, -999, -999]	n/a	FR1	1	R1331T
3029.531	0.593	3029896	DISTRACT_END	n/a	n/a	n/a	-999	20	[0, 0, 0]	n/a	FR1	1	R1331T
3030.124	1.607	3030489	RETRIEVAL_ORIENT_START	n/a	n/a	n/a	-999	20	[0, 0, 0]	n/a	FR1	1	R1331T
3031.731	0.0	3032095	RETRIEVAL_ORIENT_END	n/a	n/a	n/a	-999	20	[0, 0, 0]	n/a	FR1	1	R1331T
3031.731	3.248	3032095	REC_START	n/a	n/a	n/a	-999	20	[0, 0, 0]	n/a	FR1	1	R1331T
3034.979	1.528	3035343	REC_WORD	1.528	n/a	PERA	-999	20	[0, 0, 0]	n/a	FR1	1	R1331T
3036.507	2.39	3036871	REC_WORD	2.39	n/a	ESFERA	-999	20	[0, 0, 0]	n/a	FR1	1	R1331T
3038.897	0.355	3039261	REC_WORD_VV	0.355	n/a	<>	-999	20	[0, 0, 0]	n/a	FR1	1	R1331T
3039.252	1.951	3039616	REC_WORD	1.951	n/a	PLANTA	-999	20	[0, 0, 0]	n/a	FR1	1	R1331T
3041.203	2.689	3041567	REC_WORD	2.689	n/a	DURAZNO	-999	20	[0, 0, 0]	n/a	FR1	1	R1331T
3043.892	0.586	3044256	REC_WORD_VV	0.586	n/a	<>	-999	20	[0, 0, 0]	n/a	FR1	1	R1331T
3044.478	1.89	3044842	REC_WORD	1.89	n/a	LUNA	-999	20	[0, 0, 0]	n/a	FR1	1	R1331T
3046.368	3.073	3046732	REC_WORD	3.073	n/a	ESTRELLA	-999	20	[0, 0, 0]	n/a	FR1	1	R1331T
3049.441	1.0	3049805	REC_WORD_VV	1.0	n/a	<>	-999	20	[0, 0, 0]	n/a	FR1	1	R1331T
3050.441	5.188	3050805	REC_WORD_VV	5.188	n/a	<>	-999	20	[0, 0, 0]	n/a	FR1	1	R1331T
3055.629	2.9	3055992	REC_WORD	2.9	n/a	GUERVAS	-999	20	[0, 0, 0]	n/a	FR1	1	R1331T
3058.529	0.415	3058892	REC_WORD_VV	0.415	n/a	<>	-999	20	[0, 0, 0]	n/a	FR1	1	R1331T
3058.944	0.753	3059307	REC_WORD	0.753	n/a	ESTRELLA	-999	20	[0, 0, 0]	n/a	FR1	1	R1331T
