onset	duration	sample	trial_type	response_time	stim_file	item_name	serialpos	list	test	answer	experiment	session	subject
0.0	11.735	256617	SESS_START	n/a	n/a	n/a	-999	-999	[0, 0, 0]	n/a	FR1	0	R1422T
11.735	10.428	268351	COUNTDOWN_START	n/a	n/a	n/a	-999	-999	[0, 0, 0]	n/a	FR1	0	R1422T
22.163	3.758	278778	COUNTDOWN_END	n/a	n/a	n/a	-999	-999	[0, 0, 0]	n/a	FR1	0	R1422T
25.921	2.433	282536	PRACTICE_WORD	n/a	n/a	RING	1	-1	[0, 0, 0]	n/a	FR1	0	R1422T
28.354	2.483	284969	PRACTICE_WORD	n/a	n/a	CHEST	2	-1	[0, 0, 0]	n/a	FR1	0	R1422T
30.837	2.585	287452	PRACTICE_WORD	n/a	n/a	WAGON	3	-1	[0, 0, 0]	n/a	FR1	0	R1422T
33.422	2.5	290037	PRACTICE_WORD	n/a	n/a	CAMEL	4	-1	[0, 0, 0]	n/a	FR1	0	R1422T
35.922	2.518	292536	PRACTICE_WORD	n/a	n/a	WATCH	5	-1	[0, 0, 0]	n/a	FR1	0	R1422T
38.44	2.483	295054	PRACTICE_WORD	n/a	n/a	COTTON	6	-1	[0, 0, 0]	n/a	FR1	0	R1422T
40.923	2.568	297537	PRACTICE_WORD	n/a	n/a	BEAM	7	-1	[0, 0, 0]	n/a	FR1	0	R1422T
43.491	2.583	300105	PRACTICE_WORD	n/a	n/a	RHINO	8	-1	[0, 0, 0]	n/a	FR1	0	R1422T
46.074	2.618	302688	PRACTICE_WORD	n/a	n/a	IRON	9	-1	[0, 0, 0]	n/a	FR1	0	R1422T
48.692	2.45	305306	PRACTICE_WORD	n/a	n/a	TONGUE	10	-1	[0, 0, 0]	n/a	FR1	0	R1422T
51.142	2.383	307756	PRACTICE_WORD	n/a	n/a	FLOOD	11	-1	[0, 0, 0]	n/a	FR1	0	R1422T
53.525	1.618	310138	PRACTICE_WORD	n/a	n/a	ATTIC	12	-1	[0, 0, 0]	n/a	FR1	0	R1422T
55.143	0.0	311756	PRACTICE_DISTRACT_START	n/a	n/a	n/a	-999	-1	[0, 0, 0]	n/a	FR1	0	R1422T
55.143	0.016	311756	START	n/a	n/a	n/a	-999	-1	[-999, -999, -999]	n/a	FR1	0	R1422T
55.159	15.136	311772	PROB	15.136	n/a	n/a	-999	-1	[8, 5, 5]	18	FR1	0	R1422T
70.295	6.666	326907	PROB	6.666	n/a	n/a	-999	-1	[2, 9, 3]	14	FR1	0	R1422T
76.961	0.019	333573	STOP	n/a	n/a	n/a	-999	-1	[-999, -999, -999]	n/a	FR1	0	R1422T
76.98	0.652	333592	PRACTICE_DISTRACT_END	n/a	n/a	n/a	-999	-1	[0, 0, 0]	n/a	FR1	0	R1422T
77.632	30.515	334244	PRACTICE_REC_START	n/a	n/a	n/a	-999	-1	[0, 0, 0]	n/a	FR1	0	R1422T
108.147	32.094	364757	PRACTICE_REC_END	n/a	n/a	n/a	-999	-1	[0, 0, 0]	n/a	FR1	0	R1422T
140.241	0.001	396849	COUNTDOWN_START	n/a	n/a	n/a	-999	1	[0, 0, 0]	n/a	FR1	0	R1422T
140.242	10.427	396850	TRIAL	n/a	n/a	n/a	-999	1	[0, 0, 0]	n/a	FR1	0	R1422T
150.669	0.008	407277	COUNTDOWN_END	n/a	n/a	n/a	-999	1	[0, 0, 0]	n/a	FR1	0	R1422T
150.677	2.517	407285	ORIENT	n/a	n/a	n/a	-999	1	[0, 0, 0]	n/a	FR1	0	R1422T
153.194	2.383	409802	WORD	n/a	wordpools/wordpool_EN.txt	STEAK	1	1	[0, 0, 0]	n/a	FR1	0	R1422T
155.577	2.551	412185	WORD	n/a	wordpools/wordpool_EN.txt	GOLD	2	1	[0, 0, 0]	n/a	FR1	0	R1422T
158.128	2.417	414735	WORD	n/a	wordpools/wordpool_EN.txt	PRINCE	3	1	[0, 0, 0]	n/a	FR1	0	R1422T
160.545	2.617	417152	WORD	n/a	wordpools/wordpool_EN.txt	BOAT	4	1	[0, 0, 0]	n/a	FR1	0	R1422T
163.162	2.517	419769	WORD	n/a	wordpools/wordpool_EN.txt	TRAIN	5	1	[0, 0, 0]	n/a	FR1	0	R1422T
165.679	2.484	422286	WORD	n/a	wordpools/wordpool_EN.txt	JET	6	1	[0, 0, 0]	n/a	FR1	0	R1422T
168.163	2.517	424770	WORD	n/a	wordpools/wordpool_EN.txt	PEARL	7	1	[0, 0, 0]	n/a	FR1	0	R1422T
170.68	2.551	427287	WORD	n/a	wordpools/wordpool_EN.txt	TOOTH	8	1	[0, 0, 0]	n/a	FR1	0	R1422T
173.231	2.583	429838	WORD	n/a	wordpools/wordpool_EN.txt	SHRIMP	9	1	[0, 0, 0]	n/a	FR1	0	R1422T
175.814	2.568	432420	WORD	n/a	wordpools/wordpool_EN.txt	CROWN	10	1	[0, 0, 0]	n/a	FR1	0	R1422T
178.382	2.532	434988	WORD	n/a	wordpools/wordpool_EN.txt	FISH	11	1	[0, 0, 0]	n/a	FR1	0	R1422T
180.914	1.601	437520	WORD	n/a	wordpools/wordpool_EN.txt	SLIME	12	1	[0, 0, 0]	n/a	FR1	0	R1422T
182.515	0.001	439121	DISTRACT_START	n/a	n/a	n/a	-999	1	[0, 0, 0]	n/a	FR1	0	R1422T
182.516	0.016	439122	START	n/a	n/a	n/a	-999	1	[-999, -999, -999]	n/a	FR1	0	R1422T
182.532	6.768	439138	PROB	6.768	n/a	n/a	-999	1	[3, 3, 8]	14	FR1	0	R1422T
189.3	7.802	445906	PROB	7.802	n/a	n/a	-999	1	[9, 2, 8]	19	FR1	0	R1422T
197.102	6.403	453707	PROB	6.403	n/a	n/a	-999	1	[8, 4, 4]	16	FR1	0	R1422T
203.505	0.015	460110	STOP	n/a	n/a	n/a	-999	1	[-999, -999, -999]	n/a	FR1	0	R1422T
203.52	1.187	460125	DISTRACT_END	n/a	n/a	n/a	-999	1	[0, 0, 0]	n/a	FR1	0	R1422T
204.707	5.586	461312	REC_START	n/a	n/a	n/a	-999	1	[0, 0, 0]	n/a	FR1	0	R1422T
210.293	0.5	466897	REC_WORD_VV	0.5	n/a	<>	-999	1	[0, 0, 0]	n/a	FR1	0	R1422T
210.793	0.5	467397	REC_WORD_VV	0.5	n/a	<>	-999	1	[0, 0, 0]	n/a	FR1	0	R1422T
211.293	0.293	467897	REC_WORD_VV	0.293	n/a	<>	-999	1	[0, 0, 0]	n/a	FR1	0	R1422T
211.586	0.97	468190	REC_WORD	0.97	n/a	STEAK	1	1	[0, 0, 0]	n/a	FR1	0	R1422T
212.556	1.071	469160	REC_WORD	1.071	n/a	GOLD	2	1	[0, 0, 0]	n/a	FR1	0	R1422T
213.627	0.935	470231	REC_WORD	0.935	n/a	RHINO	-999	1	[0, 0, 0]	n/a	FR1	0	R1422T
214.562	1.87	471166	REC_WORD	1.87	n/a	PEARL	7	1	[0, 0, 0]	n/a	FR1	0	R1422T
216.432	2.686	473036	REC_WORD	2.686	n/a	SHED	-999	1	[0, 0, 0]	n/a	FR1	0	R1422T
219.118	2.39	475722	REC_WORD	2.39	n/a	BOAT	4	1	[0, 0, 0]	n/a	FR1	0	R1422T
221.508	13.208	478112	REC_WORD	13.208	n/a	SLIME	12	1	[0, 0, 0]	n/a	FR1	0	R1422T
234.716	3.827	491319	REC_END	n/a	n/a	n/a	-999	1	[0, 0, 0]	n/a	FR1	0	R1422T
238.543	0.0	495146	COUNTDOWN_START	n/a	n/a	n/a	-999	2	[0, 0, 0]	n/a	FR1	0	R1422T
238.543	10.428	495146	TRIAL	n/a	n/a	n/a	-999	2	[0, 0, 0]	n/a	FR1	0	R1422T
248.971	0.007	505573	COUNTDOWN_END	n/a	n/a	n/a	-999	2	[0, 0, 0]	n/a	FR1	0	R1422T
248.978	2.4	505580	ORIENT	n/a	n/a	n/a	-999	2	[0, 0, 0]	n/a	FR1	0	R1422T
251.378	2.617	507980	WORD	n/a	wordpools/wordpool_EN.txt	GRAPE	1	2	[0, 0, 0]	n/a	FR1	0	R1422T
253.995	2.434	510597	WORD	n/a	wordpools/wordpool_EN.txt	STORE	2	2	[0, 0, 0]	n/a	FR1	0	R1422T
256.429	2.534	513031	WORD	n/a	wordpools/wordpool_EN.txt	PHONE	3	2	[0, 0, 0]	n/a	FR1	0	R1422T
258.963	2.384	515565	WORD	n/a	wordpools/wordpool_EN.txt	PEN	4	2	[0, 0, 0]	n/a	FR1	0	R1422T
261.347	2.532	517948	WORD	n/a	wordpools/wordpool_EN.txt	BADGE	5	2	[0, 0, 0]	n/a	FR1	0	R1422T
263.879	2.435	520480	WORD	n/a	wordpools/wordpool_EN.txt	MUG	6	2	[0, 0, 0]	n/a	FR1	0	R1422T
266.314	2.451	522915	WORD	n/a	wordpools/wordpool_EN.txt	FENCE	7	2	[0, 0, 0]	n/a	FR1	0	R1422T
268.765	2.417	525366	WORD	n/a	wordpools/wordpool_EN.txt	VAN	8	2	[0, 0, 0]	n/a	FR1	0	R1422T
271.182	2.467	527783	WORD	n/a	wordpools/wordpool_EN.txt	BOOK	9	2	[0, 0, 0]	n/a	FR1	0	R1422T
273.649	2.584	530250	WORD	n/a	wordpools/wordpool_EN.txt	DOG	10	2	[0, 0, 0]	n/a	FR1	0	R1422T
276.233	2.582	532834	WORD	n/a	wordpools/wordpool_EN.txt	JAIL	11	2	[0, 0, 0]	n/a	FR1	0	R1422T
278.815	1.602	535415	WORD	n/a	wordpools/wordpool_EN.txt	APE	12	2	[0, 0, 0]	n/a	FR1	0	R1422T
280.417	0.001	537017	DISTRACT_START	n/a	n/a	n/a	-999	2	[0, 0, 0]	n/a	FR1	0	R1422T
280.418	0.016	537018	START	n/a	n/a	n/a	-999	2	[-999, -999, -999]	n/a	FR1	0	R1422T
280.434	5.483	537034	PROB	5.483	n/a	n/a	-999	2	[6, 3, 5]	14	FR1	0	R1422T
285.917	7.085	542517	PROB	7.085	n/a	n/a	-999	2	[7, 9, 3]	19	FR1	0	R1422T
293.002	2.651	549602	PROB	2.651	n/a	n/a	-999	2	[2, 5, 5]	12	FR1	0	R1422T
295.653	17.084	552253	PROB	17.084	n/a	n/a	-999	2	[9, 6, 9]	24	FR1	0	R1422T
312.737	0.019	569336	STOP	n/a	n/a	n/a	-999	2	[-999, -999, -999]	n/a	FR1	0	R1422T
312.756	1.184	569355	DISTRACT_END	n/a	n/a	n/a	-999	2	[0, 0, 0]	n/a	FR1	0	R1422T
313.94	4.875	570538	REC_START	n/a	n/a	n/a	-999	2	[0, 0, 0]	n/a	FR1	0	R1422T
318.815	2.008	575413	REC_WORD	2.008	n/a	GRAPE	1	2	[0, 0, 0]	n/a	FR1	0	R1422T
320.823	2.866	577421	REC_WORD	2.866	n/a	FENCE	7	2	[0, 0, 0]	n/a	FR1	0	R1422T
323.689	8.093	580287	REC_WORD	8.093	n/a	PHONE	3	2	[0, 0, 0]	n/a	FR1	0	R1422T
331.782	2.26	588379	REC_WORD_VV	2.26	n/a	<>	-999	2	[0, 0, 0]	n/a	FR1	0	R1422T
334.042	9.912	590639	REC_WORD	9.912	n/a	WAGON	-999	2	[0, 0, 0]	n/a	FR1	0	R1422T
343.954	3.874	600551	REC_END	n/a	n/a	n/a	-999	2	[0, 0, 0]	n/a	FR1	0	R1422T
347.828	0.0	604425	TRIAL	n/a	n/a	n/a	-999	3	[0, 0, 0]	n/a	FR1	0	R1422T
347.828	10.428	604425	COUNTDOWN_START	n/a	n/a	n/a	-999	3	[0, 0, 0]	n/a	FR1	0	R1422T
358.256	0.008	614852	COUNTDOWN_END	n/a	n/a	n/a	-999	3	[0, 0, 0]	n/a	FR1	0	R1422T
358.264	2.501	614860	ORIENT	n/a	n/a	n/a	-999	3	[0, 0, 0]	n/a	FR1	0	R1422T
360.765	2.534	617361	WORD	n/a	wordpools/wordpool_EN.txt	TREE	1	3	[0, 0, 0]	n/a	FR1	0	R1422T
363.299	2.599	619895	WORD	n/a	wordpools/wordpool_EN.txt	VINE	2	3	[0, 0, 0]	n/a	FR1	0	R1422T
365.898	2.485	622493	WORD	n/a	wordpools/wordpool_EN.txt	MILK	3	3	[0, 0, 0]	n/a	FR1	0	R1422T
368.383	2.399	624978	WORD	n/a	wordpools/wordpool_EN.txt	WHEEL	4	3	[0, 0, 0]	n/a	FR1	0	R1422T
370.782	2.618	627377	WORD	n/a	wordpools/wordpool_EN.txt	STEM	5	3	[0, 0, 0]	n/a	FR1	0	R1422T
373.4	2.5	629995	WORD	n/a	wordpools/wordpool_EN.txt	CONE	6	3	[0, 0, 0]	n/a	FR1	0	R1422T
375.9	2.501	632495	WORD	n/a	wordpools/wordpool_EN.txt	ELF	7	3	[0, 0, 0]	n/a	FR1	0	R1422T
378.401	2.617	634996	WORD	n/a	wordpools/wordpool_EN.txt	SEED	8	3	[0, 0, 0]	n/a	FR1	0	R1422T
381.018	2.551	637613	WORD	n/a	wordpools/wordpool_EN.txt	THUMB	9	3	[0, 0, 0]	n/a	FR1	0	R1422T
383.569	2.467	640163	WORD	n/a	wordpools/wordpool_EN.txt	BOOT	10	3	[0, 0, 0]	n/a	FR1	0	R1422T
386.036	2.55	642630	WORD	n/a	wordpools/wordpool_EN.txt	WORM	11	3	[0, 0, 0]	n/a	FR1	0	R1422T
388.586	1.617	645180	WORD	n/a	wordpools/wordpool_EN.txt	COW	12	3	[0, 0, 0]	n/a	FR1	0	R1422T
390.203	0.001	646797	DISTRACT_START	n/a	n/a	n/a	-999	3	[0, 0, 0]	n/a	FR1	0	R1422T
390.204	0.016	646798	START	n/a	n/a	n/a	-999	3	[-999, -999, -999]	n/a	FR1	0	R1422T
390.22	11.185	646814	PROB	11.185	n/a	n/a	-999	3	[4, 5, 8]	17	FR1	0	R1422T
401.405	5.434	657998	PROB	5.434	n/a	n/a	-999	3	[4, 6, 6]	16	FR1	0	R1422T
406.839	5.346	663432	PROB	5.346	n/a	n/a	-999	3	[8, 3, 6]	17	FR1	0	R1422T
412.185	0.006	668778	STOP	n/a	n/a	n/a	-999	3	[-999, -999, -999]	n/a	FR1	0	R1422T
412.191	1.051	668784	DISTRACT_END	n/a	n/a	n/a	-999	3	[0, 0, 0]	n/a	FR1	0	R1422T
413.242	6.906	669835	REC_START	n/a	n/a	n/a	-999	3	[0, 0, 0]	n/a	FR1	0	R1422T
420.148	0.475	676740	REC_WORD_VV	0.475	n/a	<>	-999	3	[0, 0, 0]	n/a	FR1	0	R1422T
420.623	0.738	677215	REC_WORD	0.738	n/a	TRUNK	-999	3	[0, 0, 0]	n/a	FR1	0	R1422T
421.361	2.033	677953	REC_WORD	2.033	n/a	SEED	8	3	[0, 0, 0]	n/a	FR1	0	R1422T
423.394	13.75	679986	REC_WORD	13.75	n/a	TREE	1	3	[0, 0, 0]	n/a	FR1	0	R1422T
437.144	0.5	693735	REC_WORD_VV	0.5	n/a	<>	-999	3	[0, 0, 0]	n/a	FR1	0	R1422T
437.644	0.5	694235	REC_WORD_VV	0.5	n/a	<>	-999	3	[0, 0, 0]	n/a	FR1	0	R1422T
438.144	1.975	694735	REC_WORD_VV	1.975	n/a	<>	-999	3	[0, 0, 0]	n/a	FR1	0	R1422T
440.119	3.132	696710	REC_WORD	3.132	n/a	MILK	3	3	[0, 0, 0]	n/a	FR1	0	R1422T
443.251	307.401	699842	REC_END	n/a	n/a	n/a	-999	3	[0, 0, 0]	n/a	FR1	0	R1422T
750.652	0.0	1007225	COUNTDOWN_START	n/a	n/a	n/a	-999	4	[0, 0, 0]	n/a	FR1	0	R1422T
750.652	10.428	1007225	TRIAL	n/a	n/a	n/a	-999	4	[0, 0, 0]	n/a	FR1	0	R1422T
761.08	0.007	1017653	COUNTDOWN_END	n/a	n/a	n/a	-999	4	[0, 0, 0]	n/a	FR1	0	R1422T
761.087	2.617	1017660	ORIENT	n/a	n/a	n/a	-999	4	[0, 0, 0]	n/a	FR1	0	R1422T
763.704	2.617	1020277	WORD	n/a	wordpools/wordpool_EN.txt	POND	1	4	[0, 0, 0]	n/a	FR1	0	R1422T
766.321	2.617	1022893	WORD	n/a	wordpools/wordpool_EN.txt	HAND	2	4	[0, 0, 0]	n/a	FR1	0	R1422T
768.938	2.601	1025510	WORD	n/a	wordpools/wordpool_EN.txt	SPONGE	3	4	[0, 0, 0]	n/a	FR1	0	R1422T
771.539	2.534	1028111	WORD	n/a	wordpools/wordpool_EN.txt	WAVE	4	4	[0, 0, 0]	n/a	FR1	0	R1422T
774.073	2.4	1030645	WORD	n/a	wordpools/wordpool_EN.txt	SHELL	5	4	[0, 0, 0]	n/a	FR1	0	R1422T
776.473	2.617	1033045	WORD	n/a	wordpools/wordpool_EN.txt	EAR	6	4	[0, 0, 0]	n/a	FR1	0	R1422T
779.09	2.534	1035662	WORD	n/a	wordpools/wordpool_EN.txt	BEACH	7	4	[0, 0, 0]	n/a	FR1	0	R1422T
781.624	2.501	1038196	WORD	n/a	wordpools/wordpool_EN.txt	CAGE	8	4	[0, 0, 0]	n/a	FR1	0	R1422T
784.125	2.433	1040696	WORD	n/a	wordpools/wordpool_EN.txt	SNAIL	9	4	[0, 0, 0]	n/a	FR1	0	R1422T
786.558	2.534	1043129	WORD	n/a	wordpools/wordpool_EN.txt	NEST	10	4	[0, 0, 0]	n/a	FR1	0	R1422T
789.092	2.5	1045663	WORD	n/a	wordpools/wordpool_EN.txt	BEAK	11	4	[0, 0, 0]	n/a	FR1	0	R1422T
791.592	1.618	1048163	WORD	n/a	wordpools/wordpool_EN.txt	THREAD	12	4	[0, 0, 0]	n/a	FR1	0	R1422T
793.21	0.0	1049781	DISTRACT_START	n/a	n/a	n/a	-999	4	[0, 0, 0]	n/a	FR1	0	R1422T
793.21	0.016	1049781	START	n/a	n/a	n/a	-999	4	[-999, -999, -999]	n/a	FR1	0	R1422T
793.226	10.584	1049797	PROB	10.584	n/a	n/a	-999	4	[8, 2, 9]	19	FR1	0	R1422T
803.81	3.769	1060380	PROB	3.769	n/a	n/a	-999	4	[5, 1, 5]	11	FR1	0	R1422T
807.579	4.767	1064149	PROB	4.767	n/a	n/a	-999	4	[5, 5, 6]	16	FR1	0	R1422T
812.346	12.335	1068916	PROB	12.335	n/a	n/a	-999	4	[6, 7, 9]	22	FR1	0	R1422T
824.681	0.018	1081250	STOP	n/a	n/a	n/a	-999	4	[-999, -999, -999]	n/a	FR1	0	R1422T
824.699	1.083	1081268	DISTRACT_END	n/a	n/a	n/a	-999	4	[0, 0, 0]	n/a	FR1	0	R1422T
825.782	5.221	1082351	REC_START	n/a	n/a	n/a	-999	4	[0, 0, 0]	n/a	FR1	0	R1422T
831.003	0.972	1087572	REC_WORD	0.972	n/a	SPONGE	3	4	[0, 0, 0]	n/a	FR1	0	R1422T
831.975	1.141	1088544	REC_WORD	1.141	n/a	WAVE	4	4	[0, 0, 0]	n/a	FR1	0	R1422T
833.116	1.297	1089685	REC_WORD	1.297	n/a	SNAIL	9	4	[0, 0, 0]	n/a	FR1	0	R1422T
834.413	0.725	1090982	REC_WORD	0.725	n/a	SHELL	5	4	[0, 0, 0]	n/a	FR1	0	R1422T
835.138	15.487	1091707	REC_WORD_VV	15.487	n/a	<>	-999	4	[0, 0, 0]	n/a	FR1	0	R1422T
850.625	0.5	1107193	REC_WORD_VV	0.5	n/a	<>	-999	4	[0, 0, 0]	n/a	FR1	0	R1422T
851.125	0.5	1107693	REC_WORD_VV	0.5	n/a	<>	-999	4	[0, 0, 0]	n/a	FR1	0	R1422T
851.625	0.5	1108193	REC_WORD_VV	0.5	n/a	<>	-999	4	[0, 0, 0]	n/a	FR1	0	R1422T
852.125	3.667	1108693	REC_WORD_VV	3.667	n/a	<>	-999	4	[0, 0, 0]	n/a	FR1	0	R1422T
855.792	3.313	1112359	REC_END	n/a	n/a	n/a	-999	4	[0, 0, 0]	n/a	FR1	0	R1422T
859.105	0.0	1115672	TRIAL	n/a	n/a	n/a	-999	5	[0, 0, 0]	n/a	FR1	0	R1422T
859.105	10.428	1115672	COUNTDOWN_START	n/a	n/a	n/a	-999	5	[0, 0, 0]	n/a	FR1	0	R1422T
869.533	0.007	1126100	COUNTDOWN_END	n/a	n/a	n/a	-999	5	[0, 0, 0]	n/a	FR1	0	R1422T
869.54	2.5	1126107	ORIENT	n/a	n/a	n/a	-999	5	[0, 0, 0]	n/a	FR1	0	R1422T
872.04	2.551	1128606	WORD	n/a	wordpools/wordpool_EN.txt	TRUCK	1	5	[0, 0, 0]	n/a	FR1	0	R1422T
874.591	2.534	1131157	WORD	n/a	wordpools/wordpool_EN.txt	TIE	2	5	[0, 0, 0]	n/a	FR1	0	R1422T
877.125	2.4	1133691	WORD	n/a	wordpools/wordpool_EN.txt	WEED	3	5	[0, 0, 0]	n/a	FR1	0	R1422T
879.525	2.501	1136091	WORD	n/a	wordpools/wordpool_EN.txt	HOUSE	4	5	[0, 0, 0]	n/a	FR1	0	R1422T
882.026	2.467	1138592	WORD	n/a	wordpools/wordpool_EN.txt	CHEEK	5	5	[0, 0, 0]	n/a	FR1	0	R1422T
884.493	2.467	1141059	WORD	n/a	wordpools/wordpool_EN.txt	CLOCK	6	5	[0, 0, 0]	n/a	FR1	0	R1422T
886.96	2.534	1143526	WORD	n/a	wordpools/wordpool_EN.txt	DOCK	7	5	[0, 0, 0]	n/a	FR1	0	R1422T
889.494	2.399	1146059	WORD	n/a	wordpools/wordpool_EN.txt	BENCH	8	5	[0, 0, 0]	n/a	FR1	0	R1422T
891.893	2.485	1148458	WORD	n/a	wordpools/wordpool_EN.txt	LAWN	9	5	[0, 0, 0]	n/a	FR1	0	R1422T
894.378	2.416	1150943	WORD	n/a	wordpools/wordpool_EN.txt	BOX	10	5	[0, 0, 0]	n/a	FR1	0	R1422T
896.794	2.551	1153359	WORD	n/a	wordpools/wordpool_EN.txt	ROAD	11	5	[0, 0, 0]	n/a	FR1	0	R1422T
899.345	1.617	1155910	WORD	n/a	wordpools/wordpool_EN.txt	PANTS	12	5	[0, 0, 0]	n/a	FR1	0	R1422T
900.962	0.001	1157527	DISTRACT_START	n/a	n/a	n/a	-999	5	[0, 0, 0]	n/a	FR1	0	R1422T
900.963	0.016	1157528	START	n/a	n/a	n/a	-999	5	[-999, -999, -999]	n/a	FR1	0	R1422T
900.979	5.734	1157544	PROB	5.734	n/a	n/a	-999	5	[9, 6, 4]	19	FR1	0	R1422T
906.713	3.183	1163277	PROB	3.183	n/a	n/a	-999	5	[7, 2, 2]	11	FR1	0	R1422T
909.896	8.069	1166460	PROB	8.069	n/a	n/a	-999	5	[5, 6, 9]	19	FR1	0	R1422T
917.965	6.563	1174529	PROB	6.563	n/a	n/a	-999	5	[1, 7, 5]	13	FR1	0	R1422T
924.528	0.005	1181091	STOP	n/a	n/a	n/a	-999	5	[-999, -999, -999]	n/a	FR1	0	R1422T
924.533	1.051	1181096	DISTRACT_END	n/a	n/a	n/a	-999	5	[0, 0, 0]	n/a	FR1	0	R1422T
925.584	3.349	1182147	REC_START	n/a	n/a	n/a	-999	5	[0, 0, 0]	n/a	FR1	0	R1422T
928.933	4.296	1185496	REC_WORD	4.296	n/a	CHALK	-999	5	[0, 0, 0]	n/a	FR1	0	R1422T
933.229	1.621	1189792	REC_WORD	1.621	n/a	TAIL	-999	5	[0, 0, 0]	n/a	FR1	0	R1422T
934.85	10.778	1191413	REC_WORD	10.778	n/a	WEED	3	5	[0, 0, 0]	n/a	FR1	0	R1422T
945.628	0.5	1202190	REC_WORD_VV	0.5	n/a	<>	-999	5	[0, 0, 0]	n/a	FR1	0	R1422T
946.128	0.5	1202690	REC_WORD_VV	0.5	n/a	<>	-999	5	[0, 0, 0]	n/a	FR1	0	R1422T
946.628	8.972	1203190	REC_WORD_VV	8.972	n/a	<>	-999	5	[0, 0, 0]	n/a	FR1	0	R1422T
955.6	7.239	1212162	REC_END	n/a	n/a	n/a	-999	5	[0, 0, 0]	n/a	FR1	0	R1422T
962.839	0.0	1219400	TRIAL	n/a	n/a	n/a	-999	6	[0, 0, 0]	n/a	FR1	0	R1422T
962.839	10.428	1219400	COUNTDOWN_START	n/a	n/a	n/a	-999	6	[0, 0, 0]	n/a	FR1	0	R1422T
973.267	0.008	1229828	COUNTDOWN_END	n/a	n/a	n/a	-999	6	[0, 0, 0]	n/a	FR1	0	R1422T
973.275	2.583	1229836	ORIENT	n/a	n/a	n/a	-999	6	[0, 0, 0]	n/a	FR1	0	R1422T
975.858	2.501	1232418	WORD	n/a	wordpools/wordpool_EN.txt	FORT	1	6	[0, 0, 0]	n/a	FR1	0	R1422T
978.359	2.517	1234919	WORD	n/a	wordpools/wordpool_EN.txt	MOON	2	6	[0, 0, 0]	n/a	FR1	0	R1422T
980.876	2.385	1237436	WORD	n/a	wordpools/wordpool_EN.txt	FILM	3	6	[0, 0, 0]	n/a	FR1	0	R1422T
983.261	2.566	1239821	WORD	n/a	wordpools/wordpool_EN.txt	INK	4	6	[0, 0, 0]	n/a	FR1	0	R1422T
985.827	2.601	1242387	WORD	n/a	wordpools/wordpool_EN.txt	POLE	5	6	[0, 0, 0]	n/a	FR1	0	R1422T
988.428	2.383	1244988	WORD	n/a	wordpools/wordpool_EN.txt	JUDGE	6	6	[0, 0, 0]	n/a	FR1	0	R1422T
990.811	2.551	1247371	WORD	n/a	wordpools/wordpool_EN.txt	CASH	7	6	[0, 0, 0]	n/a	FR1	0	R1422T
993.362	2.384	1249921	WORD	n/a	wordpools/wordpool_EN.txt	SHEET	8	6	[0, 0, 0]	n/a	FR1	0	R1422T
995.746	2.384	1252305	WORD	n/a	wordpools/wordpool_EN.txt	MAIL	9	6	[0, 0, 0]	n/a	FR1	0	R1422T
998.13	2.517	1254689	WORD	n/a	wordpools/wordpool_EN.txt	NET	10	6	[0, 0, 0]	n/a	FR1	0	R1422T
1000.647	2.417	1257206	WORD	n/a	wordpools/wordpool_EN.txt	TOAD	11	6	[0, 0, 0]	n/a	FR1	0	R1422T
1003.064	1.617	1259623	WORD	n/a	wordpools/wordpool_EN.txt	PEA	12	6	[0, 0, 0]	n/a	FR1	0	R1422T
1004.681	0.001	1261240	DISTRACT_START	n/a	n/a	n/a	-999	6	[0, 0, 0]	n/a	FR1	0	R1422T
1004.682	0.016	1261241	START	n/a	n/a	n/a	-999	6	[-999, -999, -999]	n/a	FR1	0	R1422T
1004.698	4.567	1261257	PROB	4.567	n/a	n/a	-999	6	[5, 5, 3]	13	FR1	0	R1422T
1009.265	5.951	1265823	PROB	5.951	n/a	n/a	-999	6	[7, 6, 1]	14	FR1	0	R1422T
1015.216	4.468	1271774	PROB	4.468	n/a	n/a	-999	6	[8, 9, 1]	18	FR1	0	R1422T
1019.684	4.417	1276242	PROB	4.417	n/a	n/a	-999	6	[6, 2, 6]	14	FR1	0	R1422T
1024.101	5.292	1280659	PROB	5.292	n/a	n/a	-999	6	[4, 3, 8]	15	FR1	0	R1422T
1029.393	0.009	1285950	STOP	n/a	n/a	n/a	-999	6	[-999, -999, -999]	n/a	FR1	0	R1422T
1029.402	1.084	1285959	DISTRACT_END	n/a	n/a	n/a	-999	6	[0, 0, 0]	n/a	FR1	0	R1422T
1030.486	4.648	1287043	REC_START	n/a	n/a	n/a	-999	6	[0, 0, 0]	n/a	FR1	0	R1422T
1035.134	2.931	1291691	REC_WORD	2.931	n/a	FILM	3	6	[0, 0, 0]	n/a	FR1	0	R1422T
1038.065	7.521	1294622	REC_WORD	7.521	n/a	SHEET	8	6	[0, 0, 0]	n/a	FR1	0	R1422T
1045.586	3.281	1302142	REC_WORD	3.281	n/a	MOVIE	-999	6	[0, 0, 0]	n/a	FR1	0	R1422T
1048.867	10.863	1305423	REC_WORD_VV	10.863	n/a	<>	-999	6	[0, 0, 0]	n/a	FR1	0	R1422T
1059.73	0.77	1316286	REC_WORD	0.77	n/a	MOON	2	6	[0, 0, 0]	n/a	FR1	0	R1422T
1060.5	2.692	1317056	REC_END	n/a	n/a	n/a	-999	6	[0, 0, 0]	n/a	FR1	0	R1422T
1063.192	0.0	1319747	TRIAL	n/a	n/a	n/a	-999	7	[0, 0, 0]	n/a	FR1	0	R1422T
1063.192	10.428	1319747	COUNTDOWN_START	n/a	n/a	n/a	-999	7	[0, 0, 0]	n/a	FR1	0	R1422T
1073.62	0.007	1330175	COUNTDOWN_END	n/a	n/a	n/a	-999	7	[0, 0, 0]	n/a	FR1	0	R1422T
1073.627	2.617	1330182	ORIENT	n/a	n/a	n/a	-999	7	[0, 0, 0]	n/a	FR1	0	R1422T
1076.244	2.566	1332799	WORD	n/a	wordpools/wordpool_EN.txt	BRICK	1	7	[0, 0, 0]	n/a	FR1	0	R1422T
1078.81	2.452	1335364	WORD	n/a	wordpools/wordpool_EN.txt	WEB	2	7	[0, 0, 0]	n/a	FR1	0	R1422T
1081.262	2.599	1337816	WORD	n/a	wordpools/wordpool_EN.txt	TANK	3	7	[0, 0, 0]	n/a	FR1	0	R1422T
1083.861	2.585	1340415	WORD	n/a	wordpools/wordpool_EN.txt	SCHOOL	4	7	[0, 0, 0]	n/a	FR1	0	R1422T
1086.446	2.399	1343000	WORD	n/a	wordpools/wordpool_EN.txt	MAP	5	7	[0, 0, 0]	n/a	FR1	0	R1422T
1088.845	2.502	1345399	WORD	n/a	wordpools/wordpool_EN.txt	KEY	6	7	[0, 0, 0]	n/a	FR1	0	R1422T
1091.347	2.433	1347901	WORD	n/a	wordpools/wordpool_EN.txt	BALL	7	7	[0, 0, 0]	n/a	FR1	0	R1422T
1093.78	2.501	1350334	WORD	n/a	wordpools/wordpool_EN.txt	SHARK	8	7	[0, 0, 0]	n/a	FR1	0	R1422T
1096.281	2.583	1352834	WORD	n/a	wordpools/wordpool_EN.txt	COIN	9	7	[0, 0, 0]	n/a	FR1	0	R1422T
1098.864	2.518	1355417	WORD	n/a	wordpools/wordpool_EN.txt	FLOOR	10	7	[0, 0, 0]	n/a	FR1	0	R1422T
1101.382	2.466	1357935	WORD	n/a	wordpools/wordpool_EN.txt	TOE	11	7	[0, 0, 0]	n/a	FR1	0	R1422T
1103.848	1.601	1360401	WORD	n/a	wordpools/wordpool_EN.txt	FAN	12	7	[0, 0, 0]	n/a	FR1	0	R1422T
1105.449	0.001	1362002	DISTRACT_START	n/a	n/a	n/a	-999	7	[0, 0, 0]	n/a	FR1	0	R1422T
1105.45	0.016	1362003	START	n/a	n/a	n/a	-999	7	[-999, -999, -999]	n/a	FR1	0	R1422T
1105.466	11.985	1362019	PROB	11.985	n/a	n/a	-999	7	[2, 8, 9]	19	FR1	0	R1422T
1117.451	5.935	1374003	PROB	5.935	n/a	n/a	-999	7	[8, 4, 6]	18	FR1	0	R1422T
1123.386	4.615	1379938	PROB	4.615	n/a	n/a	-999	7	[7, 2, 1]	20	FR1	0	R1422T
1128.001	0.019	1384553	STOP	n/a	n/a	n/a	-999	7	[-999, -999, -999]	n/a	FR1	0	R1422T
1128.02	1.151	1384572	DISTRACT_END	n/a	n/a	n/a	-999	7	[0, 0, 0]	n/a	FR1	0	R1422T
1129.171	4.848	1385723	REC_START	n/a	n/a	n/a	-999	7	[0, 0, 0]	n/a	FR1	0	R1422T
1134.019	2.541	1390570	REC_WORD	2.541	n/a	BRICK	1	7	[0, 0, 0]	n/a	FR1	0	R1422T
1136.56	4.372	1393111	REC_WORD	4.372	n/a	TOE	11	7	[0, 0, 0]	n/a	FR1	0	R1422T
1140.932	1.808	1397483	REC_WORD	1.808	n/a	SCHOOL	4	7	[0, 0, 0]	n/a	FR1	0	R1422T
1142.74	16.441	1399291	REC_WORD_VV	16.441	n/a	<>	-999	7	[0, 0, 0]	n/a	FR1	0	R1422T
1159.181	2.595	1415731	REC_END	n/a	n/a	n/a	-999	7	[0, 0, 0]	n/a	FR1	0	R1422T
1161.776	0.0	1418326	COUNTDOWN_START	n/a	n/a	n/a	-999	8	[0, 0, 0]	n/a	FR1	0	R1422T
1161.776	10.428	1418326	TRIAL	n/a	n/a	n/a	-999	8	[0, 0, 0]	n/a	FR1	0	R1422T
1172.204	0.007	1428753	COUNTDOWN_END	n/a	n/a	n/a	-999	8	[0, 0, 0]	n/a	FR1	0	R1422T
1172.211	2.484	1428760	ORIENT	n/a	n/a	n/a	-999	8	[0, 0, 0]	n/a	FR1	0	R1422T
1174.695	2.601	1431244	WORD	n/a	wordpools/wordpool_EN.txt	FUR	1	8	[0, 0, 0]	n/a	FR1	0	R1422T
1177.296	2.616	1433845	WORD	n/a	wordpools/wordpool_EN.txt	BANK	2	8	[0, 0, 0]	n/a	FR1	0	R1422T
1179.912	2.368	1436461	WORD	n/a	wordpools/wordpool_EN.txt	COUCH	3	8	[0, 0, 0]	n/a	FR1	0	R1422T
1182.28	2.549	1438829	WORD	n/a	wordpools/wordpool_EN.txt	CROW	4	8	[0, 0, 0]	n/a	FR1	0	R1422T
1184.829	2.368	1441377	WORD	n/a	wordpools/wordpool_EN.txt	CART	5	8	[0, 0, 0]	n/a	FR1	0	R1422T
1187.197	2.6	1443745	WORD	n/a	wordpools/wordpool_EN.txt	SNAKE	6	8	[0, 0, 0]	n/a	FR1	0	R1422T
1189.797	2.501	1446345	WORD	n/a	wordpools/wordpool_EN.txt	SKUNK	7	8	[0, 0, 0]	n/a	FR1	0	R1422T
1192.298	2.583	1448846	WORD	n/a	wordpools/wordpool_EN.txt	WAND	8	8	[0, 0, 0]	n/a	FR1	0	R1422T
1194.881	2.602	1451429	WORD	n/a	wordpools/wordpool_EN.txt	SHIRT	9	8	[0, 0, 0]	n/a	FR1	0	R1422T
1197.483	2.467	1454031	WORD	n/a	wordpools/wordpool_EN.txt	RAT	10	8	[0, 0, 0]	n/a	FR1	0	R1422T
1199.95	2.5	1456498	WORD	n/a	wordpools/wordpool_EN.txt	DOLL	11	8	[0, 0, 0]	n/a	FR1	0	R1422T
1202.45	1.617	1458997	WORD	n/a	wordpools/wordpool_EN.txt	BED	12	8	[0, 0, 0]	n/a	FR1	0	R1422T
1204.067	0.001	1460614	DISTRACT_START	n/a	n/a	n/a	-999	8	[0, 0, 0]	n/a	FR1	0	R1422T
1204.068	0.016	1460615	START	n/a	n/a	n/a	-999	8	[-999, -999, -999]	n/a	FR1	0	R1422T
1204.084	4.634	1460631	PROB	4.634	n/a	n/a	-999	8	[4, 1, 9]	14	FR1	0	R1422T
1208.718	8.852	1465265	PROB	8.852	n/a	n/a	-999	8	[7, 7, 8]	22	FR1	0	R1422T
1217.57	22.582	1474117	PROB	22.582	n/a	n/a	-999	8	[6, 8, 2]	16	FR1	0	R1422T
1240.152	0.005	1496697	STOP	n/a	n/a	n/a	-999	8	[-999, -999, -999]	n/a	FR1	0	R1422T
1240.157	1.034	1496702	DISTRACT_END	n/a	n/a	n/a	-999	8	[0, 0, 0]	n/a	FR1	0	R1422T
1241.191	6.348	1497736	REC_START	n/a	n/a	n/a	-999	8	[0, 0, 0]	n/a	FR1	0	R1422T
1247.539	0.904	1504084	REC_WORD	0.904	n/a	RAT	10	8	[0, 0, 0]	n/a	FR1	0	R1422T
1248.443	1.516	1504988	REC_WORD	1.516	n/a	FUR	1	8	[0, 0, 0]	n/a	FR1	0	R1422T
1249.959	3.383	1506504	REC_WORD	3.383	n/a	COUCH	3	8	[0, 0, 0]	n/a	FR1	0	R1422T
1253.342	17.861	1509886	REC_WORD	17.861	n/a	SNAKE	6	8	[0, 0, 0]	n/a	FR1	0	R1422T
1271.203	4.311	1527746	REC_END	n/a	n/a	n/a	-999	8	[0, 0, 0]	n/a	FR1	0	R1422T
1275.514	0.0	1532057	TRIAL	n/a	n/a	n/a	-999	9	[0, 0, 0]	n/a	FR1	0	R1422T
1275.514	10.428	1532057	COUNTDOWN_START	n/a	n/a	n/a	-999	9	[0, 0, 0]	n/a	FR1	0	R1422T
1285.942	0.007	1542485	COUNTDOWN_END	n/a	n/a	n/a	-999	9	[0, 0, 0]	n/a	FR1	0	R1422T
1285.949	2.45	1542492	ORIENT	n/a	n/a	n/a	-999	9	[0, 0, 0]	n/a	FR1	0	R1422T
1288.399	2.483	1544941	WORD	n/a	wordpools/wordpool_EN.txt	SEAL	1	9	[0, 0, 0]	n/a	FR1	0	R1422T
1290.882	2.418	1547424	WORD	n/a	wordpools/wordpool_EN.txt	BAND	2	9	[0, 0, 0]	n/a	FR1	0	R1422T
1293.3	2.434	1549842	WORD	n/a	wordpools/wordpool_EN.txt	WORLD	3	9	[0, 0, 0]	n/a	FR1	0	R1422T
1295.734	2.584	1552276	WORD	n/a	wordpools/wordpool_EN.txt	FRUIT	4	9	[0, 0, 0]	n/a	FR1	0	R1422T
1298.318	2.466	1554860	WORD	n/a	wordpools/wordpool_EN.txt	SWORD	5	9	[0, 0, 0]	n/a	FR1	0	R1422T
1300.784	2.401	1557326	WORD	n/a	wordpools/wordpool_EN.txt	JAR	6	9	[0, 0, 0]	n/a	FR1	0	R1422T
1303.185	2.501	1559727	WORD	n/a	wordpools/wordpool_EN.txt	BREAD	7	9	[0, 0, 0]	n/a	FR1	0	R1422T
1305.686	2.567	1562227	WORD	n/a	wordpools/wordpool_EN.txt	CUP	8	9	[0, 0, 0]	n/a	FR1	0	R1422T
1308.253	2.45	1564794	WORD	n/a	wordpools/wordpool_EN.txt	WALL	9	9	[0, 0, 0]	n/a	FR1	0	R1422T
1310.703	2.551	1567244	WORD	n/a	wordpools/wordpool_EN.txt	STICK	10	9	[0, 0, 0]	n/a	FR1	0	R1422T
1313.254	2.566	1569795	WORD	n/a	wordpools/wordpool_EN.txt	ROSE	11	9	[0, 0, 0]	n/a	FR1	0	R1422T
1315.82	1.601	1572361	WORD	n/a	wordpools/wordpool_EN.txt	LAMP	12	9	[0, 0, 0]	n/a	FR1	0	R1422T
1317.421	0.001	1573962	DISTRACT_START	n/a	n/a	n/a	-999	9	[0, 0, 0]	n/a	FR1	0	R1422T
1317.422	0.016	1573963	START	n/a	n/a	n/a	-999	9	[-999, -999, -999]	n/a	FR1	0	R1422T
1317.438	12.552	1573979	PROB	12.552	n/a	n/a	-999	9	[8, 7, 9]	24	FR1	0	R1422T
1329.99	6.001	1586530	PROB	6.001	n/a	n/a	-999	9	[7, 5, 8]	20	FR1	0	R1422T
1335.991	6.273	1592531	PROB	6.273	n/a	n/a	-999	9	[9, 7, 4]	20	FR1	0	R1422T
1342.264	0.012	1598803	STOP	n/a	n/a	n/a	-999	9	[-999, -999, -999]	n/a	FR1	0	R1422T
1342.276	1.05	1598815	DISTRACT_END	n/a	n/a	n/a	-999	9	[0, 0, 0]	n/a	FR1	0	R1422T
1343.326	3.274	1599865	REC_START	n/a	n/a	n/a	-999	9	[0, 0, 0]	n/a	FR1	0	R1422T
1346.6	0.932	1603139	REC_WORD	0.932	n/a	SEA	-999	9	[0, 0, 0]	n/a	FR1	0	R1422T
1347.532	2.425	1604071	REC_WORD	2.425	n/a	WORLD	3	9	[0, 0, 0]	n/a	FR1	0	R1422T
1349.957	2.823	1606496	REC_WORD	2.823	n/a	STICK	10	9	[0, 0, 0]	n/a	FR1	0	R1422T
1352.78	20.561	1609319	REC_WORD	20.561	n/a	ROSE	11	9	[0, 0, 0]	n/a	FR1	0	R1422T
1373.341	2.44	1629879	REC_END	n/a	n/a	n/a	-999	9	[0, 0, 0]	n/a	FR1	0	R1422T
1375.781	0.0	1632318	TRIAL	n/a	n/a	n/a	-999	10	[0, 0, 0]	n/a	FR1	0	R1422T
1375.781	10.428	1632318	COUNTDOWN_START	n/a	n/a	n/a	-999	10	[0, 0, 0]	n/a	FR1	0	R1422T
1386.209	0.008	1642746	COUNTDOWN_END	n/a	n/a	n/a	-999	10	[0, 0, 0]	n/a	FR1	0	R1422T
1386.217	2.55	1642754	ORIENT	n/a	n/a	n/a	-999	10	[0, 0, 0]	n/a	FR1	0	R1422T
1388.767	2.401	1645304	WORD	n/a	wordpools/wordpool_EN.txt	PIPE	1	10	[0, 0, 0]	n/a	FR1	0	R1422T
1391.168	2.6	1647705	WORD	n/a	wordpools/wordpool_EN.txt	OWL	2	10	[0, 0, 0]	n/a	FR1	0	R1422T
1393.768	2.417	1650304	WORD	n/a	wordpools/wordpool_EN.txt	PIE	3	10	[0, 0, 0]	n/a	FR1	0	R1422T
1396.185	2.616	1652721	WORD	n/a	wordpools/wordpool_EN.txt	DEER	4	10	[0, 0, 0]	n/a	FR1	0	R1422T
1398.801	2.452	1655337	WORD	n/a	wordpools/wordpool_EN.txt	SPRING	5	10	[0, 0, 0]	n/a	FR1	0	R1422T
1401.253	2.533	1657789	WORD	n/a	wordpools/wordpool_EN.txt	MULE	6	10	[0, 0, 0]	n/a	FR1	0	R1422T
1403.786	2.451	1660322	WORD	n/a	wordpools/wordpool_EN.txt	SLUSH	7	10	[0, 0, 0]	n/a	FR1	0	R1422T
1406.237	2.55	1662773	WORD	n/a	wordpools/wordpool_EN.txt	PIG	8	10	[0, 0, 0]	n/a	FR1	0	R1422T
1408.787	2.601	1665323	WORD	n/a	wordpools/wordpool_EN.txt	STOOL	9	10	[0, 0, 0]	n/a	FR1	0	R1422T
1411.388	2.416	1667923	WORD	n/a	wordpools/wordpool_EN.txt	POOL	10	10	[0, 0, 0]	n/a	FR1	0	R1422T
1413.804	2.468	1670339	WORD	n/a	wordpools/wordpool_EN.txt	WOLF	11	10	[0, 0, 0]	n/a	FR1	0	R1422T
1416.272	1.616	1672807	WORD	n/a	wordpools/wordpool_EN.txt	SWAMP	12	10	[0, 0, 0]	n/a	FR1	0	R1422T
1417.888	0.001	1674423	DISTRACT_START	n/a	n/a	n/a	-999	10	[0, 0, 0]	n/a	FR1	0	R1422T
1417.889	0.016	1674424	START	n/a	n/a	n/a	-999	10	[-999, -999, -999]	n/a	FR1	0	R1422T
1417.905	9.103	1674440	PROB	9.103	n/a	n/a	-999	10	[5, 3, 2]	10	FR1	0	R1422T
1427.008	7.034	1683542	PROB	7.034	n/a	n/a	-999	10	[3, 8, 6]	18	FR1	0	R1422T
1434.042	4.566	1690576	PROB	4.566	n/a	n/a	-999	10	[5, 4, 4]	13	FR1	0	R1422T
1438.608	0.018	1695142	STOP	n/a	n/a	n/a	-999	10	[-999, -999, -999]	n/a	FR1	0	R1422T
1438.626	1.183	1695160	DISTRACT_END	n/a	n/a	n/a	-999	10	[0, 0, 0]	n/a	FR1	0	R1422T
1439.809	3.888	1696343	REC_START	n/a	n/a	n/a	-999	10	[0, 0, 0]	n/a	FR1	0	R1422T
1443.697	1.533	1700231	REC_WORD	1.533	n/a	PIPE	1	10	[0, 0, 0]	n/a	FR1	0	R1422T
1445.23	8.437	1701763	REC_WORD	8.437	n/a	PIE	3	10	[0, 0, 0]	n/a	FR1	0	R1422T
1453.667	3.544	1710200	REC_WORD	3.544	n/a	TURTLE	-999	10	[0, 0, 0]	n/a	FR1	0	R1422T
1457.211	12.61	1713744	REC_WORD	12.61	n/a	SWAMP	12	10	[0, 0, 0]	n/a	FR1	0	R1422T
1469.821	2.678	1726353	REC_END	n/a	n/a	n/a	-999	10	[0, 0, 0]	n/a	FR1	0	R1422T
1472.499	0.0	1729031	TRIAL	n/a	n/a	n/a	-999	11	[0, 0, 0]	n/a	FR1	0	R1422T
1472.499	10.428	1729031	COUNTDOWN_START	n/a	n/a	n/a	-999	11	[0, 0, 0]	n/a	FR1	0	R1422T
1482.927	0.007	1739458	COUNTDOWN_END	n/a	n/a	n/a	-999	11	[0, 0, 0]	n/a	FR1	0	R1422T
1482.934	2.584	1739465	ORIENT	n/a	n/a	n/a	-999	11	[0, 0, 0]	n/a	FR1	0	R1422T
1485.518	2.617	1742049	WORD	n/a	wordpools/wordpool_EN.txt	BARN	1	11	[0, 0, 0]	n/a	FR1	0	R1422T
1488.135	2.601	1744666	WORD	n/a	wordpools/wordpool_EN.txt	LAKE	2	11	[0, 0, 0]	n/a	FR1	0	R1422T
1490.736	2.484	1747267	WORD	n/a	wordpools/wordpool_EN.txt	CRANE	3	11	[0, 0, 0]	n/a	FR1	0	R1422T
1493.22	2.483	1749751	WORD	n/a	wordpools/wordpool_EN.txt	CANE	4	11	[0, 0, 0]	n/a	FR1	0	R1422T
1495.703	2.568	1752234	WORD	n/a	wordpools/wordpool_EN.txt	HEN	5	11	[0, 0, 0]	n/a	FR1	0	R1422T
1498.271	2.383	1754801	WORD	n/a	wordpools/wordpool_EN.txt	GRASS	6	11	[0, 0, 0]	n/a	FR1	0	R1422T
1500.654	2.617	1757184	WORD	n/a	wordpools/wordpool_EN.txt	JEEP	7	11	[0, 0, 0]	n/a	FR1	0	R1422T
1503.271	2.401	1759801	WORD	n/a	wordpools/wordpool_EN.txt	CORN	8	11	[0, 0, 0]	n/a	FR1	0	R1422T
1505.672	2.617	1762202	WORD	n/a	wordpools/wordpool_EN.txt	HILL	9	11	[0, 0, 0]	n/a	FR1	0	R1422T
1508.289	2.549	1764819	WORD	n/a	wordpools/wordpool_EN.txt	SLEEVE	10	11	[0, 0, 0]	n/a	FR1	0	R1422T
1510.838	2.452	1767368	WORD	n/a	wordpools/wordpool_EN.txt	OAR	11	11	[0, 0, 0]	n/a	FR1	0	R1422T
1513.29	1.616	1769820	WORD	n/a	wordpools/wordpool_EN.txt	TENT	12	11	[0, 0, 0]	n/a	FR1	0	R1422T
1514.906	0.001	1771435	DISTRACT_START	n/a	n/a	n/a	-999	11	[0, 0, 0]	n/a	FR1	0	R1422T
1514.907	0.017	1771436	START	n/a	n/a	n/a	-999	11	[-999, -999, -999]	n/a	FR1	0	R1422T
1514.924	7.801	1771453	PROB	7.801	n/a	n/a	-999	11	[8, 9, 9]	26	FR1	0	R1422T
1522.725	3.951	1779254	PROB	3.951	n/a	n/a	-999	11	[6, 3, 6]	15	FR1	0	R1422T
1526.676	8.869	1783205	PROB	8.869	n/a	n/a	-999	11	[2, 1, 6]	16	FR1	0	R1422T
1535.545	0.016	1792073	STOP	n/a	n/a	n/a	-999	11	[-999, -999, -999]	n/a	FR1	0	R1422T
1535.561	1.2	1792089	DISTRACT_END	n/a	n/a	n/a	-999	11	[0, 0, 0]	n/a	FR1	0	R1422T
1536.761	4.324	1793289	REC_START	n/a	n/a	n/a	-999	11	[0, 0, 0]	n/a	FR1	0	R1422T
1541.085	3.263	1797613	REC_WORD	3.263	n/a	OAR	11	11	[0, 0, 0]	n/a	FR1	0	R1422T
1544.348	5.496	1800876	REC_WORD	5.496	n/a	CREEK	-999	11	[0, 0, 0]	n/a	FR1	0	R1422T
1549.844	9.234	1806371	REC_WORD	9.234	n/a	TENT	12	11	[0, 0, 0]	n/a	FR1	0	R1422T
1559.078	7.221	1815605	REC_WORD	7.221	n/a	PIG	-999	11	[0, 0, 0]	n/a	FR1	0	R1422T
1566.299	0.478	1822825	REC_WORD	0.478	n/a	ROW	-999	11	[0, 0, 0]	n/a	FR1	0	R1422T
1566.777	2.84	1823303	REC_END	n/a	n/a	n/a	-999	11	[0, 0, 0]	n/a	FR1	0	R1422T
1569.617	0.0	1826143	TRIAL	n/a	n/a	n/a	-999	12	[0, 0, 0]	n/a	FR1	0	R1422T
1569.617	10.428	1826143	COUNTDOWN_START	n/a	n/a	n/a	-999	12	[0, 0, 0]	n/a	FR1	0	R1422T
1580.045	0.007	1836571	COUNTDOWN_END	n/a	n/a	n/a	-999	12	[0, 0, 0]	n/a	FR1	0	R1422T
1580.052	2.55	1836578	ORIENT	n/a	n/a	n/a	-999	12	[0, 0, 0]	n/a	FR1	0	R1422T
1582.602	2.418	1839128	WORD	n/a	wordpools/wordpool_EN.txt	FLAME	1	12	[0, 0, 0]	n/a	FR1	0	R1422T
1585.02	2.517	1841545	WORD	n/a	wordpools/wordpool_EN.txt	SPARK	2	12	[0, 0, 0]	n/a	FR1	0	R1422T
1587.537	2.5	1844062	WORD	n/a	wordpools/wordpool_EN.txt	LEG	3	12	[0, 0, 0]	n/a	FR1	0	R1422T
1590.037	2.584	1846562	WORD	n/a	wordpools/wordpool_EN.txt	BOWL	4	12	[0, 0, 0]	n/a	FR1	0	R1422T
1592.621	2.484	1849146	WORD	n/a	wordpools/wordpool_EN.txt	PURSE	5	12	[0, 0, 0]	n/a	FR1	0	R1422T
1595.105	2.567	1851630	WORD	n/a	wordpools/wordpool_EN.txt	NOSE	6	12	[0, 0, 0]	n/a	FR1	0	R1422T
1597.672	2.4	1854197	WORD	n/a	wordpools/wordpool_EN.txt	FACE	7	12	[0, 0, 0]	n/a	FR1	0	R1422T
1600.072	2.534	1856597	WORD	n/a	wordpools/wordpool_EN.txt	EEL	8	12	[0, 0, 0]	n/a	FR1	0	R1422T
1602.606	2.617	1859130	WORD	n/a	wordpools/wordpool_EN.txt	HOSE	9	12	[0, 0, 0]	n/a	FR1	0	R1422T
1605.223	2.551	1861747	WORD	n/a	wordpools/wordpool_EN.txt	CHAIR	10	12	[0, 0, 0]	n/a	FR1	0	R1422T
1607.774	2.6	1864298	WORD	n/a	wordpools/wordpool_EN.txt	SEAT	11	12	[0, 0, 0]	n/a	FR1	0	R1422T
1610.374	1.617	1866898	WORD	n/a	wordpools/wordpool_EN.txt	SUIT	12	12	[0, 0, 0]	n/a	FR1	0	R1422T
1611.991	0.001	1868515	DISTRACT_START	n/a	n/a	n/a	-999	12	[0, 0, 0]	n/a	FR1	0	R1422T
1611.992	0.016	1868516	START	n/a	n/a	n/a	-999	12	[-999, -999, -999]	n/a	FR1	0	R1422T
1612.008	9.867	1868532	PROB	9.867	n/a	n/a	-999	12	[3, 9, 4]	16	FR1	0	R1422T
1621.875	3.602	1878398	PROB	3.602	n/a	n/a	-999	12	[5, 7, 3]	15	FR1	0	R1422T
1625.477	4.251	1882000	PROB	4.251	n/a	n/a	-999	12	[9, 9, 9]	27	FR1	0	R1422T
1629.728	7.28	1886251	PROB	7.28	n/a	n/a	-999	12	[5, 4, 7]	16	FR1	0	R1422T
1637.008	0.004	1893530	STOP	n/a	n/a	n/a	-999	12	[-999, -999, -999]	n/a	FR1	0	R1422T
1637.012	1.084	1893534	DISTRACT_END	n/a	n/a	n/a	-999	12	[0, 0, 0]	n/a	FR1	0	R1422T
1638.096	3.144	1894618	REC_START	n/a	n/a	n/a	-999	12	[0, 0, 0]	n/a	FR1	0	R1422T
1641.24	3.634	1897762	REC_WORD	3.634	n/a	FLAME	1	12	[0, 0, 0]	n/a	FR1	0	R1422T
1644.874	2.207	1901396	REC_WORD	2.207	n/a	FIRE	-999	12	[0, 0, 0]	n/a	FR1	0	R1422T
1647.081	0.949	1903603	REC_WORD	0.949	n/a	LEG	3	12	[0, 0, 0]	n/a	FR1	0	R1422T
1648.03	10.524	1904552	REC_WORD	10.524	n/a	BOWL	4	12	[0, 0, 0]	n/a	FR1	0	R1422T
1658.554	9.556	1915075	REC_WORD	9.556	n/a	SPARK	2	12	[0, 0, 0]	n/a	FR1	0	R1422T
1668.11	22.012	1924631	REC_END	n/a	n/a	n/a	-999	12	[0, 0, 0]	n/a	FR1	0	R1422T
1690.122	0.0	1946641	TRIAL	n/a	n/a	n/a	-999	13	[0, 0, 0]	n/a	FR1	0	R1422T
1690.122	88434.924	1946641	COUNTDOWN_START	n/a	n/a	n/a	-999	13	[0, 0, 0]	n/a	FR1	0	R1422T
90125.046	28.504	-1	SESS_START	n/a	n/a	n/a	-999	13	[0, 0, 0]	n/a	FR1	0	R1422T
90153.55	0.001	-1	COUNTDOWN_START	n/a	n/a	n/a	-999	13	[0, 0, 0]	n/a	FR1	0	R1422T
90153.551	0.0	-1	TRIAL	n/a	n/a	n/a	-999	13	[0, 0, 0]	n/a	FR1	0	R1422T
