onset	duration	sample	trial_type	response_time	stim_file	item_name	serialpos	list	test	answer	experiment	session	subject
0.0	670.69	1220	INSTRUCT_START	n/a	n/a	n/a	-999	-999	[0, 0, 0]	n/a	FR1	0	R1334T
670.69	2.951	671881	INSTRUCT_END	n/a	n/a	n/a	-999	-999	[0, 0, 0]	n/a	FR1	0	R1334T
673.641	19.005	674832	MIC TEST_START	n/a	n/a	n/a	-999	-999	[0, 0, 0]	n/a	FR1	0	R1334T
692.646	0.011	693836	MIC TEST_END	n/a	n/a	n/a	-999	-999	[0, 0, 0]	n/a	FR1	0	R1334T
692.657	0.0	693847	TRIAL_START	n/a	n/a	n/a	-999	-1	[0, 0, 0]	n/a	FR1	0	R1334T
692.657	0.0	693847	TRIAL	n/a	n/a	n/a	-999	-1	[0, 0, 0]	n/a	FR1	0	R1334T
692.657	13.023	693847	WAITING_START	n/a	n/a	n/a	-999	-1	[0, 0, 0]	n/a	FR1	0	R1334T
705.68	0.001	706869	WAITING_END	n/a	n/a	n/a	-999	-1	[0, 0, 0]	n/a	FR1	0	R1334T
705.681	10.429	706870	COUNTDOWN_START	n/a	n/a	n/a	-999	-1	[0, 0, 0]	n/a	FR1	0	R1334T
716.11	0.0	717299	COUNTDOWN_END	n/a	n/a	n/a	-999	-1	[0, 0, 0]	n/a	FR1	0	R1334T
716.11	1.071	717299	ORIENT_START	n/a	n/a	n/a	-999	-1	[0, 0, 0]	n/a	FR1	0	R1334T
717.181	0.0	718370	ORIENT_END	n/a	n/a	n/a	-999	-1	[0, 0, 0]	n/a	FR1	0	R1334T
717.181	1.143	718370	ENCODING_START	n/a	n/a	n/a	-999	-1	[0, 0, 0]	n/a	FR1	0	R1334T
718.324	1.624	719513	WORD	n/a	n/a	COTTON	1	-1	[0, 0, 0]	n/a	FR1	0	R1334T
719.948	1.058	721137	WORD_OFF	n/a	n/a	COTTON	1	-1	[0, 0, 0]	n/a	FR1	0	R1334T
721.006	1.627	722195	WORD	n/a	n/a	CAMEL	2	-1	[0, 0, 0]	n/a	FR1	0	R1334T
722.633	1.136	723822	WORD_OFF	n/a	n/a	CAMEL	2	-1	[0, 0, 0]	n/a	FR1	0	R1334T
723.769	1.63	724958	WORD	n/a	n/a	TONGUE	3	-1	[0, 0, 0]	n/a	FR1	0	R1334T
725.399	0.94	726588	WORD_OFF	n/a	n/a	TONGUE	3	-1	[0, 0, 0]	n/a	FR1	0	R1334T
726.339	1.627	727528	WORD	n/a	n/a	WAGON	4	-1	[0, 0, 0]	n/a	FR1	0	R1334T
727.966	0.843	729155	WORD_OFF	n/a	n/a	WAGON	4	-1	[0, 0, 0]	n/a	FR1	0	R1334T
728.809	1.624	729997	WORD	n/a	n/a	BEAM	5	-1	[0, 0, 0]	n/a	FR1	0	R1334T
730.433	0.924	731621	WORD_OFF	n/a	n/a	BEAM	5	-1	[0, 0, 0]	n/a	FR1	0	R1334T
731.357	1.627	732545	WORD	n/a	n/a	IMAGE	6	-1	[0, 0, 0]	n/a	FR1	0	R1334T
732.984	1.08	734172	WORD_OFF	n/a	n/a	IMAGE	6	-1	[0, 0, 0]	n/a	FR1	0	R1334T
734.064	1.621	735252	WORD	n/a	n/a	BABY	7	-1	[0, 0, 0]	n/a	FR1	0	R1334T
735.685	1.111	736873	WORD_OFF	n/a	n/a	BABY	7	-1	[0, 0, 0]	n/a	FR1	0	R1334T
736.796	1.622	737984	WORD	n/a	n/a	WATCH	8	-1	[0, 0, 0]	n/a	FR1	0	R1334T
738.418	1.008	739606	WORD_OFF	n/a	n/a	WATCH	8	-1	[0, 0, 0]	n/a	FR1	0	R1334T
739.426	1.626	740614	WORD	n/a	n/a	RHINO	9	-1	[0, 0, 0]	n/a	FR1	0	R1334T
741.052	1.032	742240	WORD_OFF	n/a	n/a	RHINO	9	-1	[0, 0, 0]	n/a	FR1	0	R1334T
742.084	1.636	743272	WORD	n/a	n/a	FLOOD	10	-1	[0, 0, 0]	n/a	FR1	0	R1334T
743.72	0.892	744908	WORD_OFF	n/a	n/a	FLOOD	10	-1	[0, 0, 0]	n/a	FR1	0	R1334T
744.612	1.624	745800	WORD	n/a	n/a	CHEST	11	-1	[0, 0, 0]	n/a	FR1	0	R1334T
746.236	1.03	747424	WORD_OFF	n/a	n/a	CHEST	11	-1	[0, 0, 0]	n/a	FR1	0	R1334T
747.266	1.638	748454	WORD	n/a	n/a	RING	12	-1	[0, 0, 0]	n/a	FR1	0	R1334T
748.904	0.0	750092	DISTRACT_START	n/a	n/a	n/a	-999	-1	[0, 0, 0]	n/a	FR1	0	R1334T
748.904	0.0	750092	WORD_OFF	n/a	n/a	RING	12	-1	[0, 0, 0]	n/a	FR1	0	R1334T
748.904	0.001	750092	ENCODING_END	n/a	n/a	n/a	-999	-1	[0, 0, 0]	n/a	FR1	0	R1334T
748.905	0.015	750093	START	n/a	n/a	n/a	-999	-1	[-999, -999, -999]	n/a	FR1	0	R1334T
748.92	12.737	750108	PROB	12.737	n/a	n/a	-999	-1	[6, 3, 8]	17	FR1	0	R1334T
761.657	5.967	762844	PROB	5.967	n/a	n/a	-999	-1	[6, 3, 1]	10	FR1	0	R1334T
767.624	23.548	768811	PROB	23.548	n/a	n/a	-999	-1	[9, 8, 5]	23	FR1	0	R1334T
791.172	0.006	792358	STOP	n/a	n/a	n/a	-999	-1	[-999, -999, -999]	n/a	FR1	0	R1334T
791.178	0.694	792364	DISTRACT_END	n/a	n/a	n/a	-999	-1	[0, 0, 0]	n/a	FR1	0	R1334T
791.872	1.573	793058	RETRIEVAL_ORIENT_START	n/a	n/a	n/a	-999	-1	[0, 0, 0]	n/a	FR1	0	R1334T
793.445	0.0	794631	RETRIEVAL_ORIENT_END	n/a	n/a	n/a	-999	-1	[0, 0, 0]	n/a	FR1	0	R1334T
793.445	3.976	794631	REC_START	n/a	n/a	n/a	-999	-1	[0, 0, 0]	n/a	FR1	0	R1334T
797.421	1.225	798607	REC_WORD	1.225	n/a	COTTON	-999	-1	[0, 0, 0]	n/a	FR1	0	R1334T
798.646	3.552	799832	REC_WORD	3.552	n/a	CAMEL	-999	-1	[0, 0, 0]	n/a	FR1	0	R1334T
802.198	1.422	803383	REC_WORD	1.422	n/a	BEAM	-999	-1	[0, 0, 0]	n/a	FR1	0	R1334T
803.62	4.653	804805	REC_WORD	4.653	n/a	FLOOD	-999	-1	[0, 0, 0]	n/a	FR1	0	R1334T
808.273	2.837	809458	REC_WORD_VV	2.837	n/a	<>	-999	-1	[0, 0, 0]	n/a	FR1	0	R1334T
811.11	0.404	812295	REC_WORD	0.404	n/a	COTTON	-999	-1	[0, 0, 0]	n/a	FR1	0	R1334T
811.514	2.06	812699	REC_WORD	2.06	n/a	CAMEL	-999	-1	[0, 0, 0]	n/a	FR1	0	R1334T
813.574	0.52	814759	REC_WORD	0.52	n/a	BEAM	-999	-1	[0, 0, 0]	n/a	FR1	0	R1334T
814.094	3.524	815279	REC_WORD	3.524	n/a	FLOOD	-999	-1	[0, 0, 0]	n/a	FR1	0	R1334T
817.618	5.84	818803	REC_WORD	5.84	n/a	BABY	-999	-1	[0, 0, 0]	n/a	FR1	0	R1334T
823.458	0.0	824642	REC_END	n/a	n/a	n/a	-999	-1	[0, 0, 0]	n/a	FR1	0	R1334T
823.458	90.21	824642	PRACTICE_POST_INSTRUCT_START	n/a	n/a	n/a	-999	-1	[0, 0, 0]	n/a	FR1	0	R1334T
913.668	0.001	914849	PRACTICE_POST_INSTRUCT_END	n/a	n/a	n/a	-999	-1	[0, 0, 0]	n/a	FR1	0	R1334T
913.669	0.017	914850	TRIAL_END	n/a	n/a	n/a	-999	-1	[0, 0, 0]	n/a	FR1	0	R1334T
913.686	0.0	914867	TRIAL_START	n/a	n/a	n/a	-999	1	[0, 0, 0]	n/a	FR1	0	R1334T
913.686	0.0	914867	TRIAL	n/a	n/a	n/a	-999	1	[0, 0, 0]	n/a	FR1	0	R1334T
913.686	3.448	914867	WAITING_START	n/a	n/a	n/a	-999	1	[0, 0, 0]	n/a	FR1	0	R1334T
917.134	0.001	918314	WAITING_END	n/a	n/a	n/a	-999	1	[0, 0, 0]	n/a	FR1	0	R1334T
917.135	10.43	918315	COUNTDOWN_START	n/a	n/a	n/a	-999	1	[0, 0, 0]	n/a	FR1	0	R1334T
927.565	0.0	928745	COUNTDOWN_END	n/a	n/a	n/a	-999	1	[0, 0, 0]	n/a	FR1	0	R1334T
927.565	1.055	928745	ORIENT_START	n/a	n/a	n/a	-999	1	[0, 0, 0]	n/a	FR1	0	R1334T
928.62	0.001	929800	ORIENT_END	n/a	n/a	n/a	-999	1	[0, 0, 0]	n/a	FR1	0	R1334T
928.621	0.994	929801	ENCODING_START	n/a	n/a	n/a	-999	1	[0, 0, 0]	n/a	FR1	0	R1334T
929.615	1.638	930795	WORD	n/a	n/a	SHARK	1	1	[0, 0, 0]	n/a	FR1	0	R1334T
931.253	0.94	932433	WORD_OFF	n/a	n/a	SHARK	1	1	[0, 0, 0]	n/a	FR1	0	R1334T
932.193	1.612	933373	WORD	n/a	n/a	GRASS	2	1	[0, 0, 0]	n/a	FR1	0	R1334T
933.805	0.912	934985	WORD_OFF	n/a	n/a	GRASS	2	1	[0, 0, 0]	n/a	FR1	0	R1334T
934.717	1.621	935897	WORD	n/a	n/a	CLAY	3	1	[0, 0, 0]	n/a	FR1	0	R1334T
936.338	1.028	937518	WORD_OFF	n/a	n/a	CLAY	3	1	[0, 0, 0]	n/a	FR1	0	R1334T
937.366	1.622	938546	WORD	n/a	n/a	CART	4	1	[0, 0, 0]	n/a	FR1	0	R1334T
938.988	0.818	940168	WORD_OFF	n/a	n/a	CART	4	1	[0, 0, 0]	n/a	FR1	0	R1334T
939.806	1.632	940985	WORD	n/a	n/a	STONE	5	1	[0, 0, 0]	n/a	FR1	0	R1334T
941.438	1.108	942617	WORD_OFF	n/a	n/a	STONE	5	1	[0, 0, 0]	n/a	FR1	0	R1334T
942.546	1.626	943725	WORD	n/a	n/a	ROCK	6	1	[0, 0, 0]	n/a	FR1	0	R1334T
944.172	0.774	945351	WORD_OFF	n/a	n/a	ROCK	6	1	[0, 0, 0]	n/a	FR1	0	R1334T
944.946	1.628	946125	WORD	n/a	n/a	BOWL	7	1	[0, 0, 0]	n/a	FR1	0	R1334T
946.574	1.088	947753	WORD_OFF	n/a	n/a	BOWL	7	1	[0, 0, 0]	n/a	FR1	0	R1334T
947.662	1.628	948841	WORD	n/a	n/a	BEACH	8	1	[0, 0, 0]	n/a	FR1	0	R1334T
949.29	0.877	950469	WORD_OFF	n/a	n/a	BEACH	8	1	[0, 0, 0]	n/a	FR1	0	R1334T
950.167	1.624	951346	WORD	n/a	n/a	POOL	9	1	[0, 0, 0]	n/a	FR1	0	R1334T
951.791	0.8	952970	WORD_OFF	n/a	n/a	POOL	9	1	[0, 0, 0]	n/a	FR1	0	R1334T
952.591	1.633	953770	WORD	n/a	n/a	CALF	10	1	[0, 0, 0]	n/a	FR1	0	R1334T
954.224	1.103	955403	WORD_OFF	n/a	n/a	CALF	10	1	[0, 0, 0]	n/a	FR1	0	R1334T
955.327	1.631	956506	WORD	n/a	n/a	SPOON	11	1	[0, 0, 0]	n/a	FR1	0	R1334T
956.958	0.947	958137	WORD_OFF	n/a	n/a	SPOON	11	1	[0, 0, 0]	n/a	FR1	0	R1334T
957.905	1.638	959084	WORD	n/a	n/a	WEED	12	1	[0, 0, 0]	n/a	FR1	0	R1334T
959.543	0.0	960722	ENCODING_END	n/a	n/a	n/a	-999	1	[0, 0, 0]	n/a	FR1	0	R1334T
959.543	0.0	960722	DISTRACT_START	n/a	n/a	n/a	-999	1	[0, 0, 0]	n/a	FR1	0	R1334T
959.543	0.001	960722	WORD_OFF	n/a	n/a	WEED	12	1	[0, 0, 0]	n/a	FR1	0	R1334T
959.544	0.015	960723	START	n/a	n/a	n/a	-999	1	[-999, -999, -999]	n/a	FR1	0	R1334T
959.559	6.884	960738	PROB	6.884	n/a	n/a	-999	1	[2, 8, 4]	14	FR1	0	R1334T
966.443	5.918	967621	PROB	5.918	n/a	n/a	-999	1	[8, 8, 3]	19	FR1	0	R1334T
972.361	5.067	973539	PROB	5.067	n/a	n/a	-999	1	[4, 4, 6]	14	FR1	0	R1334T
977.428	3.976	978606	PROB	3.976	n/a	n/a	-999	1	[8, 5, 5]	18	FR1	0	R1334T
981.404	0.008	982582	STOP	n/a	n/a	n/a	-999	1	[-999, -999, -999]	n/a	FR1	0	R1334T
981.412	0.638	982590	DISTRACT_END	n/a	n/a	n/a	-999	1	[0, 0, 0]	n/a	FR1	0	R1334T
982.05	1.68	983228	RETRIEVAL_ORIENT_START	n/a	n/a	n/a	-999	1	[0, 0, 0]	n/a	FR1	0	R1334T
983.73	0.001	984908	RETRIEVAL_ORIENT_END	n/a	n/a	n/a	-999	1	[0, 0, 0]	n/a	FR1	0	R1334T
983.731	0.582	984909	REC_START	n/a	n/a	n/a	-999	1	[0, 0, 0]	n/a	FR1	0	R1334T
984.313	1.357	985491	REC_WORD	1.357	n/a	SHARK	1	1	[0, 0, 0]	n/a	FR1	0	R1334T
985.67	1.696	986848	REC_WORD	1.696	n/a	CLAY	3	1	[0, 0, 0]	n/a	FR1	0	R1334T
987.366	1.611	988543	REC_WORD	1.611	n/a	ROCK	6	1	[0, 0, 0]	n/a	FR1	0	R1334T
988.977	24.766	990154	REC_WORD	24.766	n/a	STONE	5	1	[0, 0, 0]	n/a	FR1	0	R1334T
1013.743	0.0	1014919	REC_END	n/a	n/a	n/a	-999	1	[0, 0, 0]	n/a	FR1	0	R1334T
1013.743	0.015	1014919	TRIAL_END	n/a	n/a	n/a	-999	1	[0, 0, 0]	n/a	FR1	0	R1334T
1013.758	0.001	1014934	TRIAL_START	n/a	n/a	n/a	-999	2	[0, 0, 0]	n/a	FR1	0	R1334T
1013.759	0.0	1014935	TRIAL	n/a	n/a	n/a	-999	2	[0, 0, 0]	n/a	FR1	0	R1334T
1013.759	8.261	1014935	WAITING_START	n/a	n/a	n/a	-999	2	[0, 0, 0]	n/a	FR1	0	R1334T
1022.02	0.0	1023196	WAITING_END	n/a	n/a	n/a	-999	2	[0, 0, 0]	n/a	FR1	0	R1334T
1022.02	10.428	1023196	COUNTDOWN_START	n/a	n/a	n/a	-999	2	[0, 0, 0]	n/a	FR1	0	R1334T
1032.448	0.001	1033624	COUNTDOWN_END	n/a	n/a	n/a	-999	2	[0, 0, 0]	n/a	FR1	0	R1334T
1032.449	1.091	1033625	ORIENT_START	n/a	n/a	n/a	-999	2	[0, 0, 0]	n/a	FR1	0	R1334T
1033.54	0.0	1034715	ENCODING_START	n/a	n/a	n/a	-999	2	[0, 0, 0]	n/a	FR1	0	R1334T
1033.54	0.804	1034715	ORIENT_END	n/a	n/a	n/a	-999	2	[0, 0, 0]	n/a	FR1	0	R1334T
1034.344	1.628	1035519	WORD	n/a	n/a	SNAIL	1	2	[0, 0, 0]	n/a	FR1	0	R1334T
1035.972	1.118	1037147	WORD_OFF	n/a	n/a	SNAIL	1	2	[0, 0, 0]	n/a	FR1	0	R1334T
1037.09	1.634	1038265	WORD	n/a	n/a	SLIME	2	2	[0, 0, 0]	n/a	FR1	0	R1334T
1038.724	0.933	1039899	WORD_OFF	n/a	n/a	SLIME	2	2	[0, 0, 0]	n/a	FR1	0	R1334T
1039.657	1.633	1040832	WORD	n/a	n/a	SPARK	3	2	[0, 0, 0]	n/a	FR1	0	R1334T
1041.29	0.898	1042465	WORD_OFF	n/a	n/a	SPARK	3	2	[0, 0, 0]	n/a	FR1	0	R1334T
1042.188	1.637	1043363	WORD	n/a	n/a	TRUCK	4	2	[0, 0, 0]	n/a	FR1	0	R1334T
1043.825	1.029	1045000	WORD_OFF	n/a	n/a	TRUCK	4	2	[0, 0, 0]	n/a	FR1	0	R1334T
1044.854	1.637	1046029	WORD	n/a	n/a	CRANE	5	2	[0, 0, 0]	n/a	FR1	0	R1334T
1046.491	1.01	1047666	WORD_OFF	n/a	n/a	CRANE	5	2	[0, 0, 0]	n/a	FR1	0	R1334T
1047.501	1.624	1048676	WORD	n/a	n/a	PHONE	6	2	[0, 0, 0]	n/a	FR1	0	R1334T
1049.125	0.966	1050300	WORD_OFF	n/a	n/a	PHONE	6	2	[0, 0, 0]	n/a	FR1	0	R1334T
1050.091	1.635	1051266	WORD	n/a	n/a	PANTS	7	2	[0, 0, 0]	n/a	FR1	0	R1334T
1051.726	0.982	1052901	WORD_OFF	n/a	n/a	PANTS	7	2	[0, 0, 0]	n/a	FR1	0	R1334T
1052.708	1.634	1053883	WORD	n/a	n/a	SUN	8	2	[0, 0, 0]	n/a	FR1	0	R1334T
1054.342	0.947	1055517	WORD_OFF	n/a	n/a	SUN	8	2	[0, 0, 0]	n/a	FR1	0	R1334T
1055.289	1.637	1056464	WORD	n/a	n/a	WHEEL	9	2	[0, 0, 0]	n/a	FR1	0	R1334T
1056.926	0.926	1058100	WORD_OFF	n/a	n/a	WHEEL	9	2	[0, 0, 0]	n/a	FR1	0	R1334T
1057.852	1.625	1059026	WORD	n/a	n/a	DOG	10	2	[0, 0, 0]	n/a	FR1	0	R1334T
1059.477	0.983	1060651	WORD_OFF	n/a	n/a	DOG	10	2	[0, 0, 0]	n/a	FR1	0	R1334T
1060.46	1.634	1061634	WORD	n/a	n/a	STAR	11	2	[0, 0, 0]	n/a	FR1	0	R1334T
1062.094	0.875	1063268	WORD_OFF	n/a	n/a	STAR	11	2	[0, 0, 0]	n/a	FR1	0	R1334T
1062.969	1.626	1064143	WORD	n/a	n/a	GEESE	12	2	[0, 0, 0]	n/a	FR1	0	R1334T
1064.595	0.001	1065769	WORD_OFF	n/a	n/a	GEESE	12	2	[0, 0, 0]	n/a	FR1	0	R1334T
1064.596	0.0	1065770	ENCODING_END	n/a	n/a	n/a	-999	2	[0, 0, 0]	n/a	FR1	0	R1334T
1064.596	0.0	1065770	DISTRACT_START	n/a	n/a	n/a	-999	2	[0, 0, 0]	n/a	FR1	0	R1334T
1064.596	0.016	1065770	START	n/a	n/a	n/a	-999	2	[-999, -999, -999]	n/a	FR1	0	R1334T
1064.612	8.65	1065786	PROB	8.65	n/a	n/a	-999	2	[3, 8, 5]	16	FR1	0	R1334T
1073.262	4.435	1074436	PROB	4.435	n/a	n/a	-999	2	[3, 7, 4]	14	FR1	0	R1334T
1077.697	5.101	1078871	PROB	5.101	n/a	n/a	-999	2	[8, 1, 7]	16	FR1	0	R1334T
1082.798	5.35	1083971	PROB	5.35	n/a	n/a	-999	2	[9, 3, 4]	16	FR1	0	R1334T
1088.148	0.017	1089321	STOP	n/a	n/a	n/a	-999	2	[-999, -999, -999]	n/a	FR1	0	R1334T
1088.165	0.597	1089338	DISTRACT_END	n/a	n/a	n/a	-999	2	[0, 0, 0]	n/a	FR1	0	R1334T
1088.762	1.653	1089935	RETRIEVAL_ORIENT_START	n/a	n/a	n/a	-999	2	[0, 0, 0]	n/a	FR1	0	R1334T
1090.415	0.001	1091588	RETRIEVAL_ORIENT_END	n/a	n/a	n/a	-999	2	[0, 0, 0]	n/a	FR1	0	R1334T
1090.416	0.507	1091589	REC_START	n/a	n/a	n/a	-999	2	[0, 0, 0]	n/a	FR1	0	R1334T
1090.923	1.631	1092096	REC_WORD	1.631	n/a	SNAIL	1	2	[0, 0, 0]	n/a	FR1	0	R1334T
1092.554	1.778	1093727	REC_WORD	1.778	n/a	SLIME	2	2	[0, 0, 0]	n/a	FR1	0	R1334T
1094.332	2.649	1095505	REC_WORD	2.649	n/a	CRANE	5	2	[0, 0, 0]	n/a	FR1	0	R1334T
1096.981	23.446	1098154	REC_WORD	23.446	n/a	GEESE	12	2	[0, 0, 0]	n/a	FR1	0	R1334T
1120.427	0.0	1121599	TRIAL_END	n/a	n/a	n/a	-999	2	[0, 0, 0]	n/a	FR1	0	R1334T
1120.427	0.015	1121599	REC_END	n/a	n/a	n/a	-999	2	[0, 0, 0]	n/a	FR1	0	R1334T
1120.442	0.0	1121614	WAITING_START	n/a	n/a	n/a	-999	3	[0, 0, 0]	n/a	FR1	0	R1334T
1120.442	0.0	1121614	TRIAL_START	n/a	n/a	n/a	-999	3	[0, 0, 0]	n/a	FR1	0	R1334T
1120.442	12.665	1121614	TRIAL	n/a	n/a	n/a	-999	3	[0, 0, 0]	n/a	FR1	0	R1334T
1133.107	0.0	1134278	WAITING_END	n/a	n/a	n/a	-999	3	[0, 0, 0]	n/a	FR1	0	R1334T
1133.107	10.428	1134278	COUNTDOWN_START	n/a	n/a	n/a	-999	3	[0, 0, 0]	n/a	FR1	0	R1334T
1143.535	0.001	1144706	COUNTDOWN_END	n/a	n/a	n/a	-999	3	[0, 0, 0]	n/a	FR1	0	R1334T
1143.536	1.124	1144707	ORIENT_START	n/a	n/a	n/a	-999	3	[0, 0, 0]	n/a	FR1	0	R1334T
1144.66	0.0	1145831	ORIENT_END	n/a	n/a	n/a	-999	3	[0, 0, 0]	n/a	FR1	0	R1334T
1144.66	1.147	1145831	ENCODING_START	n/a	n/a	n/a	-999	3	[0, 0, 0]	n/a	FR1	0	R1334T
1145.807	1.636	1146978	WORD	n/a	n/a	NEST	1	3	[0, 0, 0]	n/a	FR1	0	R1334T
1147.443	0.774	1148614	WORD_OFF	n/a	n/a	NEST	1	3	[0, 0, 0]	n/a	FR1	0	R1334T
1148.217	1.61	1149388	WORD	n/a	n/a	COW	2	3	[0, 0, 0]	n/a	FR1	0	R1334T
1149.827	0.964	1150998	WORD_OFF	n/a	n/a	COW	2	3	[0, 0, 0]	n/a	FR1	0	R1334T
1150.791	1.636	1151961	WORD	n/a	n/a	FILM	3	3	[0, 0, 0]	n/a	FR1	0	R1334T
1152.427	1.023	1153597	WORD_OFF	n/a	n/a	FILM	3	3	[0, 0, 0]	n/a	FR1	0	R1334T
1153.45	1.627	1154620	WORD	n/a	n/a	STICK	4	3	[0, 0, 0]	n/a	FR1	0	R1334T
1155.077	0.983	1156247	WORD_OFF	n/a	n/a	STICK	4	3	[0, 0, 0]	n/a	FR1	0	R1334T
1156.06	1.635	1157230	WORD	n/a	n/a	SMILE	5	3	[0, 0, 0]	n/a	FR1	0	R1334T
1157.695	1.03	1158865	WORD_OFF	n/a	n/a	SMILE	5	3	[0, 0, 0]	n/a	FR1	0	R1334T
1158.725	1.637	1159895	WORD	n/a	n/a	BRUSH	6	3	[0, 0, 0]	n/a	FR1	0	R1334T
1160.362	1.049	1161532	WORD_OFF	n/a	n/a	BRUSH	6	3	[0, 0, 0]	n/a	FR1	0	R1334T
1161.411	1.634	1162581	WORD	n/a	n/a	CORD	7	3	[0, 0, 0]	n/a	FR1	0	R1334T
1163.045	1.102	1164215	WORD_OFF	n/a	n/a	CORD	7	3	[0, 0, 0]	n/a	FR1	0	R1334T
1164.147	1.616	1165317	WORD	n/a	n/a	FLAG	8	3	[0, 0, 0]	n/a	FR1	0	R1334T
1165.763	0.781	1166933	WORD_OFF	n/a	n/a	FLAG	8	3	[0, 0, 0]	n/a	FR1	0	R1334T
1166.544	1.636	1167714	WORD	n/a	n/a	SOUP	9	3	[0, 0, 0]	n/a	FR1	0	R1334T
1168.18	1.083	1169350	WORD_OFF	n/a	n/a	SOUP	9	3	[0, 0, 0]	n/a	FR1	0	R1334T
1169.263	1.634	1170433	WORD	n/a	n/a	SLEEVE	10	3	[0, 0, 0]	n/a	FR1	0	R1334T
1170.897	0.953	1172067	WORD_OFF	n/a	n/a	SLEEVE	10	3	[0, 0, 0]	n/a	FR1	0	R1334T
1171.85	1.631	1173020	WORD	n/a	n/a	PLANT	11	3	[0, 0, 0]	n/a	FR1	0	R1334T
1173.481	0.907	1174650	WORD_OFF	n/a	n/a	PLANT	11	3	[0, 0, 0]	n/a	FR1	0	R1334T
1174.388	1.626	1175557	WORD	n/a	n/a	SPONGE	12	3	[0, 0, 0]	n/a	FR1	0	R1334T
1176.014	0.001	1177183	WORD_OFF	n/a	n/a	SPONGE	12	3	[0, 0, 0]	n/a	FR1	0	R1334T
1176.015	0.0	1177184	ENCODING_END	n/a	n/a	n/a	-999	3	[0, 0, 0]	n/a	FR1	0	R1334T
1176.015	0.0	1177184	DISTRACT_START	n/a	n/a	n/a	-999	3	[0, 0, 0]	n/a	FR1	0	R1334T
1176.015	0.016	1177184	START	n/a	n/a	n/a	-999	3	[-999, -999, -999]	n/a	FR1	0	R1334T
1176.031	11.235	1177200	PROB	11.235	n/a	n/a	-999	3	[3, 9, 9]	21	FR1	0	R1334T
1187.266	4.335	1188435	PROB	4.335	n/a	n/a	-999	3	[2, 7, 5]	14	FR1	0	R1334T
1191.601	5.123	1192770	PROB	5.123	n/a	n/a	-999	3	[5, 7, 9]	21	FR1	0	R1334T
1196.724	0.012	1197893	STOP	n/a	n/a	n/a	-999	3	[-999, -999, -999]	n/a	FR1	0	R1334T
1196.736	0.631	1197904	DISTRACT_END	n/a	n/a	n/a	-999	3	[0, 0, 0]	n/a	FR1	0	R1334T
1197.367	1.535	1198535	RETRIEVAL_ORIENT_START	n/a	n/a	n/a	-999	3	[0, 0, 0]	n/a	FR1	0	R1334T
1198.902	0.0	1200070	REC_START	n/a	n/a	n/a	-999	3	[0, 0, 0]	n/a	FR1	0	R1334T
1198.902	6.745	1200070	RETRIEVAL_ORIENT_END	n/a	n/a	n/a	-999	3	[0, 0, 0]	n/a	FR1	0	R1334T
1205.647	10.999	1206815	REC_WORD	10.999	n/a	SOUP	9	3	[0, 0, 0]	n/a	FR1	0	R1334T
1216.646	12.267	1217814	REC_WORD	12.267	n/a	SAIL	-999	3	[0, 0, 0]	n/a	FR1	0	R1334T
1228.913	0.0	1230080	REC_END	n/a	n/a	n/a	-999	3	[0, 0, 0]	n/a	FR1	0	R1334T
1228.913	0.016	1230080	TRIAL_END	n/a	n/a	n/a	-999	3	[0, 0, 0]	n/a	FR1	0	R1334T
1228.929	0.0	1230096	TRIAL_START	n/a	n/a	n/a	-999	4	[0, 0, 0]	n/a	FR1	0	R1334T
1228.929	0.001	1230096	TRIAL	n/a	n/a	n/a	-999	4	[0, 0, 0]	n/a	FR1	0	R1334T
1228.93	4.562	1230097	WAITING_START	n/a	n/a	n/a	-999	4	[0, 0, 0]	n/a	FR1	0	R1334T
1233.492	0.0	1234659	COUNTDOWN_START	n/a	n/a	n/a	-999	4	[0, 0, 0]	n/a	FR1	0	R1334T
1233.492	10.428	1234659	WAITING_END	n/a	n/a	n/a	-999	4	[0, 0, 0]	n/a	FR1	0	R1334T
1243.92	0.001	1245086	COUNTDOWN_END	n/a	n/a	n/a	-999	4	[0, 0, 0]	n/a	FR1	0	R1334T
1243.921	1.173	1245087	ORIENT_START	n/a	n/a	n/a	-999	4	[0, 0, 0]	n/a	FR1	0	R1334T
1245.094	0.0	1246260	ORIENT_END	n/a	n/a	n/a	-999	4	[0, 0, 0]	n/a	FR1	0	R1334T
1245.094	1.114	1246260	ENCODING_START	n/a	n/a	n/a	-999	4	[0, 0, 0]	n/a	FR1	0	R1334T
1246.208	1.62	1247374	WORD	n/a	n/a	OAK	1	4	[0, 0, 0]	n/a	FR1	0	R1334T
1247.828	0.894	1248994	WORD_OFF	n/a	n/a	OAK	1	4	[0, 0, 0]	n/a	FR1	0	R1334T
1248.722	1.622	1249888	WORD	n/a	n/a	HILL	2	4	[0, 0, 0]	n/a	FR1	0	R1334T
1250.344	0.786	1251510	WORD_OFF	n/a	n/a	HILL	2	4	[0, 0, 0]	n/a	FR1	0	R1334T
1251.13	1.633	1252296	WORD	n/a	n/a	PURSE	3	4	[0, 0, 0]	n/a	FR1	0	R1334T
1252.763	0.874	1253929	WORD_OFF	n/a	n/a	PURSE	3	4	[0, 0, 0]	n/a	FR1	0	R1334T
1253.637	1.625	1254803	WORD	n/a	n/a	SLUSH	4	4	[0, 0, 0]	n/a	FR1	0	R1334T
1255.262	1.004	1256428	WORD_OFF	n/a	n/a	SLUSH	4	4	[0, 0, 0]	n/a	FR1	0	R1334T
1256.266	1.63	1257432	WORD	n/a	n/a	TRAIN	5	4	[0, 0, 0]	n/a	FR1	0	R1334T
1257.896	0.844	1259062	WORD_OFF	n/a	n/a	TRAIN	5	4	[0, 0, 0]	n/a	FR1	0	R1334T
1258.74	1.623	1259906	WORD	n/a	n/a	RICE	6	4	[0, 0, 0]	n/a	FR1	0	R1334T
1260.363	1.077	1261529	WORD_OFF	n/a	n/a	RICE	6	4	[0, 0, 0]	n/a	FR1	0	R1334T
1261.44	1.624	1262606	WORD	n/a	n/a	PARK	7	4	[0, 0, 0]	n/a	FR1	0	R1334T
1263.064	0.838	1264230	WORD_OFF	n/a	n/a	PARK	7	4	[0, 0, 0]	n/a	FR1	0	R1334T
1263.902	1.629	1265068	WORD	n/a	n/a	STRAW	8	4	[0, 0, 0]	n/a	FR1	0	R1334T
1265.531	0.856	1266697	WORD_OFF	n/a	n/a	STRAW	8	4	[0, 0, 0]	n/a	FR1	0	R1334T
1266.387	1.627	1267553	WORD	n/a	n/a	ROOM	9	4	[0, 0, 0]	n/a	FR1	0	R1334T
1268.014	1.057	1269179	WORD_OFF	n/a	n/a	ROOM	9	4	[0, 0, 0]	n/a	FR1	0	R1334T
1269.071	1.611	1270236	WORD	n/a	n/a	CAR	10	4	[0, 0, 0]	n/a	FR1	0	R1334T
1270.682	1.036	1271847	WORD_OFF	n/a	n/a	CAR	10	4	[0, 0, 0]	n/a	FR1	0	R1334T
1271.718	1.631	1272883	WORD	n/a	n/a	MOTH	11	4	[0, 0, 0]	n/a	FR1	0	R1334T
1273.349	1.092	1274514	WORD_OFF	n/a	n/a	MOTH	11	4	[0, 0, 0]	n/a	FR1	0	R1334T
1274.441	1.625	1275606	WORD	n/a	n/a	YARD	12	4	[0, 0, 0]	n/a	FR1	0	R1334T
1276.066	0.001	1277231	WORD_OFF	n/a	n/a	YARD	12	4	[0, 0, 0]	n/a	FR1	0	R1334T
1276.067	0.0	1277232	ENCODING_END	n/a	n/a	n/a	-999	4	[0, 0, 0]	n/a	FR1	0	R1334T
1276.067	0.0	1277232	DISTRACT_START	n/a	n/a	n/a	-999	4	[0, 0, 0]	n/a	FR1	0	R1334T
1276.067	0.015	1277232	START	n/a	n/a	n/a	-999	4	[-999, -999, -999]	n/a	FR1	0	R1334T
1276.082	4.935	1277247	PROB	4.935	n/a	n/a	-999	4	[3, 5, 8]	16	FR1	0	R1334T
1281.017	4.334	1282182	PROB	4.334	n/a	n/a	-999	4	[5, 8, 1]	14	FR1	0	R1334T
1285.351	4.034	1286516	PROB	4.034	n/a	n/a	-999	4	[4, 1, 3]	8	FR1	0	R1334T
1289.385	4.368	1290550	PROB	4.368	n/a	n/a	-999	4	[5, 4, 8]	17	FR1	0	R1334T
1293.753	6.109	1294917	PROB	6.109	n/a	n/a	-999	4	[9, 8, 1]	18	FR1	0	R1334T
1299.862	0.008	1301026	STOP	n/a	n/a	n/a	-999	4	[-999, -999, -999]	n/a	FR1	0	R1334T
1299.87	0.568	1301034	DISTRACT_END	n/a	n/a	n/a	-999	4	[0, 0, 0]	n/a	FR1	0	R1334T
1300.438	1.649	1301602	RETRIEVAL_ORIENT_START	n/a	n/a	n/a	-999	4	[0, 0, 0]	n/a	FR1	0	R1334T
1302.087	0.001	1303251	RETRIEVAL_ORIENT_END	n/a	n/a	n/a	-999	4	[0, 0, 0]	n/a	FR1	0	R1334T
1302.088	0.763	1303252	REC_START	n/a	n/a	n/a	-999	4	[0, 0, 0]	n/a	FR1	0	R1334T
1302.851	0.781	1304015	REC_WORD	0.781	n/a	OAK	1	4	[0, 0, 0]	n/a	FR1	0	R1334T
1303.632	1.934	1304796	REC_WORD	1.934	n/a	HILL	2	4	[0, 0, 0]	n/a	FR1	0	R1334T
1305.566	2.112	1306730	REC_WORD	2.112	n/a	TRAIN	5	4	[0, 0, 0]	n/a	FR1	0	R1334T
1307.678	3.046	1308842	REC_WORD	3.046	n/a	CAR	10	4	[0, 0, 0]	n/a	FR1	0	R1334T
1310.724	7.094	1311888	REC_WORD	7.094	n/a	PURSE	3	4	[0, 0, 0]	n/a	FR1	0	R1334T
1317.818	14.28	1318981	REC_WORD	14.28	n/a	MOTH	11	4	[0, 0, 0]	n/a	FR1	0	R1334T
1332.098	0.0	1333261	REC_END	n/a	n/a	n/a	-999	4	[0, 0, 0]	n/a	FR1	0	R1334T
1332.098	0.017	1333261	TRIAL_END	n/a	n/a	n/a	-999	4	[0, 0, 0]	n/a	FR1	0	R1334T
1332.115	0.0	1333278	TRIAL_START	n/a	n/a	n/a	-999	5	[0, 0, 0]	n/a	FR1	0	R1334T
1332.115	0.0	1333278	TRIAL	n/a	n/a	n/a	-999	5	[0, 0, 0]	n/a	FR1	0	R1334T
1332.115	5.497	1333278	WAITING_START	n/a	n/a	n/a	-999	5	[0, 0, 0]	n/a	FR1	0	R1334T
1337.612	0.0	1338774	COUNTDOWN_START	n/a	n/a	n/a	-999	5	[0, 0, 0]	n/a	FR1	0	R1334T
1337.612	10.43	1338774	WAITING_END	n/a	n/a	n/a	-999	5	[0, 0, 0]	n/a	FR1	0	R1334T
1348.042	0.0	1349204	COUNTDOWN_END	n/a	n/a	n/a	-999	5	[0, 0, 0]	n/a	FR1	0	R1334T
1348.042	1.087	1349204	ORIENT_START	n/a	n/a	n/a	-999	5	[0, 0, 0]	n/a	FR1	0	R1334T
1349.129	0.001	1350291	ORIENT_END	n/a	n/a	n/a	-999	5	[0, 0, 0]	n/a	FR1	0	R1334T
1349.13	0.954	1350292	ENCODING_START	n/a	n/a	n/a	-999	5	[0, 0, 0]	n/a	FR1	0	R1334T
1350.084	1.63	1351246	WORD	n/a	n/a	HEN	1	5	[0, 0, 0]	n/a	FR1	0	R1334T
1351.714	0.871	1352876	WORD_OFF	n/a	n/a	HEN	1	5	[0, 0, 0]	n/a	FR1	0	R1334T
1352.585	1.628	1353747	WORD	n/a	n/a	COIN	2	5	[0, 0, 0]	n/a	FR1	0	R1334T
1354.213	0.981	1355375	WORD_OFF	n/a	n/a	COIN	2	5	[0, 0, 0]	n/a	FR1	0	R1334T
1355.194	1.621	1356356	WORD	n/a	n/a	WAND	3	5	[0, 0, 0]	n/a	FR1	0	R1334T
1356.815	0.969	1357977	WORD_OFF	n/a	n/a	WAND	3	5	[0, 0, 0]	n/a	FR1	0	R1334T
1357.784	1.63	1358946	WORD	n/a	n/a	VEST	4	5	[0, 0, 0]	n/a	FR1	0	R1334T
1359.414	1.045	1360576	WORD_OFF	n/a	n/a	VEST	4	5	[0, 0, 0]	n/a	FR1	0	R1334T
1360.459	1.623	1361621	WORD	n/a	n/a	DESK	5	5	[0, 0, 0]	n/a	FR1	0	R1334T
1362.082	0.818	1363243	WORD_OFF	n/a	n/a	DESK	5	5	[0, 0, 0]	n/a	FR1	0	R1334T
1362.9	1.632	1364061	WORD	n/a	n/a	HEART	6	5	[0, 0, 0]	n/a	FR1	0	R1334T
1364.532	0.978	1365693	WORD_OFF	n/a	n/a	HEART	6	5	[0, 0, 0]	n/a	FR1	0	R1334T
1365.51	1.622	1366671	WORD	n/a	n/a	WOLF	7	5	[0, 0, 0]	n/a	FR1	0	R1334T
1367.132	0.849	1368293	WORD_OFF	n/a	n/a	WOLF	7	5	[0, 0, 0]	n/a	FR1	0	R1334T
1367.981	1.636	1369142	WORD	n/a	n/a	BED	8	5	[0, 0, 0]	n/a	FR1	0	R1334T
1369.617	0.908	1370778	WORD_OFF	n/a	n/a	BED	8	5	[0, 0, 0]	n/a	FR1	0	R1334T
1370.525	1.625	1371686	WORD	n/a	n/a	SNAKE	9	5	[0, 0, 0]	n/a	FR1	0	R1334T
1372.15	0.899	1373311	WORD_OFF	n/a	n/a	SNAKE	9	5	[0, 0, 0]	n/a	FR1	0	R1334T
1373.049	1.619	1374210	WORD	n/a	n/a	BOARD	10	5	[0, 0, 0]	n/a	FR1	0	R1334T
1374.668	0.753	1375829	WORD_OFF	n/a	n/a	BOARD	10	5	[0, 0, 0]	n/a	FR1	0	R1334T
1375.421	1.63	1376582	WORD	n/a	n/a	PIG	11	5	[0, 0, 0]	n/a	FR1	0	R1334T
1377.051	1.094	1378212	WORD_OFF	n/a	n/a	PIG	11	5	[0, 0, 0]	n/a	FR1	0	R1334T
1378.145	1.624	1379306	WORD	n/a	n/a	AXE	12	5	[0, 0, 0]	n/a	FR1	0	R1334T
1379.769	0.001	1380930	WORD_OFF	n/a	n/a	AXE	12	5	[0, 0, 0]	n/a	FR1	0	R1334T
1379.77	0.0	1380931	ENCODING_END	n/a	n/a	n/a	-999	5	[0, 0, 0]	n/a	FR1	0	R1334T
1379.77	0.0	1380931	DISTRACT_START	n/a	n/a	n/a	-999	5	[0, 0, 0]	n/a	FR1	0	R1334T
1379.77	0.015	1380931	START	n/a	n/a	n/a	-999	5	[-999, -999, -999]	n/a	FR1	0	R1334T
1379.785	6.184	1380946	PROB	6.184	n/a	n/a	-999	5	[4, 2, 9]	17	FR1	0	R1334T
1385.969	13.386	1387129	PROB	13.386	n/a	n/a	-999	5	[9, 8, 5]	23	FR1	0	R1334T
1399.355	4.64	1400515	PROB	4.64	n/a	n/a	-999	5	[6, 5, 8]	19	FR1	0	R1334T
1403.995	0.011	1405155	STOP	n/a	n/a	n/a	-999	5	[-999, -999, -999]	n/a	FR1	0	R1334T
1404.006	0.506	1405166	DISTRACT_END	n/a	n/a	n/a	-999	5	[0, 0, 0]	n/a	FR1	0	R1334T
1404.512	1.678	1405672	RETRIEVAL_ORIENT_START	n/a	n/a	n/a	-999	5	[0, 0, 0]	n/a	FR1	0	R1334T
1406.19	0.0	1407350	RETRIEVAL_ORIENT_END	n/a	n/a	n/a	-999	5	[0, 0, 0]	n/a	FR1	0	R1334T
1406.19	1.585	1407350	REC_START	n/a	n/a	n/a	-999	5	[0, 0, 0]	n/a	FR1	0	R1334T
1407.775	1.147	1408934	REC_WORD	1.147	n/a	HEN	1	5	[0, 0, 0]	n/a	FR1	0	R1334T
1408.922	1.877	1410081	REC_WORD	1.877	n/a	COIN	2	5	[0, 0, 0]	n/a	FR1	0	R1334T
1410.799	10.037	1411958	REC_WORD	10.037	n/a	PIG	11	5	[0, 0, 0]	n/a	FR1	0	R1334T
1420.836	7.558	1421995	REC_WORD	7.558	n/a	SNAKE	9	5	[0, 0, 0]	n/a	FR1	0	R1334T
1428.394	7.808	1429553	REC_WORD	7.808	n/a	BED	8	5	[0, 0, 0]	n/a	FR1	0	R1334T
1436.202	0.0	1437360	REC_END	n/a	n/a	n/a	-999	5	[0, 0, 0]	n/a	FR1	0	R1334T
1436.202	0.016	1437360	TRIAL_END	n/a	n/a	n/a	-999	5	[0, 0, 0]	n/a	FR1	0	R1334T
1436.218	0.0	1437376	TRIAL	n/a	n/a	n/a	-999	6	[0, 0, 0]	n/a	FR1	0	R1334T
1436.218	0.0	1437376	WAITING_START	n/a	n/a	n/a	-999	6	[0, 0, 0]	n/a	FR1	0	R1334T
1436.218	3.311	1437376	TRIAL_START	n/a	n/a	n/a	-999	6	[0, 0, 0]	n/a	FR1	0	R1334T
1439.529	0.0	1440687	WAITING_END	n/a	n/a	n/a	-999	6	[0, 0, 0]	n/a	FR1	0	R1334T
1439.529	10.43	1440687	COUNTDOWN_START	n/a	n/a	n/a	-999	6	[0, 0, 0]	n/a	FR1	0	R1334T
1449.959	0.0	1451117	COUNTDOWN_END	n/a	n/a	n/a	-999	6	[0, 0, 0]	n/a	FR1	0	R1334T
1449.959	1.122	1451117	ORIENT_START	n/a	n/a	n/a	-999	6	[0, 0, 0]	n/a	FR1	0	R1334T
1451.081	0.001	1452239	ORIENT_END	n/a	n/a	n/a	-999	6	[0, 0, 0]	n/a	FR1	0	R1334T
1451.082	0.836	1452240	ENCODING_START	n/a	n/a	n/a	-999	6	[0, 0, 0]	n/a	FR1	0	R1334T
1451.918	1.631	1453076	WORD	n/a	n/a	EEL	1	6	[0, 0, 0]	n/a	FR1	0	R1334T
1453.549	1.104	1454707	WORD_OFF	n/a	n/a	EEL	1	6	[0, 0, 0]	n/a	FR1	0	R1334T
1454.653	1.629	1455810	WORD	n/a	n/a	CROW	2	6	[0, 0, 0]	n/a	FR1	0	R1334T
1456.282	1.083	1457439	WORD_OFF	n/a	n/a	CROW	2	6	[0, 0, 0]	n/a	FR1	0	R1334T
1457.365	1.634	1458522	WORD	n/a	n/a	BUSH	3	6	[0, 0, 0]	n/a	FR1	0	R1334T
1458.999	0.932	1460156	WORD_OFF	n/a	n/a	BUSH	3	6	[0, 0, 0]	n/a	FR1	0	R1334T
1459.931	1.619	1461088	WORD	n/a	n/a	STREET	4	6	[0, 0, 0]	n/a	FR1	0	R1334T
1461.55	0.843	1462707	WORD_OFF	n/a	n/a	STREET	4	6	[0, 0, 0]	n/a	FR1	0	R1334T
1462.393	1.624	1463550	WORD	n/a	n/a	SOCK	5	6	[0, 0, 0]	n/a	FR1	0	R1334T
1464.017	0.818	1465174	WORD_OFF	n/a	n/a	SOCK	5	6	[0, 0, 0]	n/a	FR1	0	R1334T
1464.835	1.632	1465992	WORD	n/a	n/a	STEAK	6	6	[0, 0, 0]	n/a	FR1	0	R1334T
1466.467	0.901	1467624	WORD_OFF	n/a	n/a	STEAK	6	6	[0, 0, 0]	n/a	FR1	0	R1334T
1467.368	1.633	1468525	WORD	n/a	n/a	FENCE	7	6	[0, 0, 0]	n/a	FR1	0	R1334T
1469.001	0.864	1470158	WORD_OFF	n/a	n/a	FENCE	7	6	[0, 0, 0]	n/a	FR1	0	R1334T
1469.865	1.636	1471022	WORD	n/a	n/a	ZOO	8	6	[0, 0, 0]	n/a	FR1	0	R1334T
1471.501	0.912	1472658	WORD_OFF	n/a	n/a	ZOO	8	6	[0, 0, 0]	n/a	FR1	0	R1334T
1472.413	1.622	1473570	WORD	n/a	n/a	DITCH	9	6	[0, 0, 0]	n/a	FR1	0	R1334T
1474.035	0.853	1475192	WORD_OFF	n/a	n/a	DITCH	9	6	[0, 0, 0]	n/a	FR1	0	R1334T
1474.888	1.631	1476045	WORD	n/a	n/a	PLANE	10	6	[0, 0, 0]	n/a	FR1	0	R1334T
1476.519	0.897	1477676	WORD_OFF	n/a	n/a	PLANE	10	6	[0, 0, 0]	n/a	FR1	0	R1334T
1477.416	1.637	1478573	WORD	n/a	n/a	FOX	11	6	[0, 0, 0]	n/a	FR1	0	R1334T
1479.053	0.844	1480209	WORD_OFF	n/a	n/a	FOX	11	6	[0, 0, 0]	n/a	FR1	0	R1334T
1479.897	1.623	1481053	WORD	n/a	n/a	MILK	12	6	[0, 0, 0]	n/a	FR1	0	R1334T
1481.52	0.0	1482676	ENCODING_END	n/a	n/a	n/a	-999	6	[0, 0, 0]	n/a	FR1	0	R1334T
1481.52	0.001	1482676	WORD_OFF	n/a	n/a	MILK	12	6	[0, 0, 0]	n/a	FR1	0	R1334T
1481.521	0.0	1482677	DISTRACT_START	n/a	n/a	n/a	-999	6	[0, 0, 0]	n/a	FR1	0	R1334T
1481.521	0.016	1482677	START	n/a	n/a	n/a	-999	6	[-999, -999, -999]	n/a	FR1	0	R1334T
1481.537	4.517	1482693	PROB	4.517	n/a	n/a	-999	6	[8, 5, 2]	15	FR1	0	R1334T
1486.054	5.884	1487210	PROB	5.884	n/a	n/a	-999	6	[1, 3, 9]	13	FR1	0	R1334T
1491.938	3.417	1493094	PROB	3.417	n/a	n/a	-999	6	[1, 2, 9]	12	FR1	0	R1334T
1495.355	3.784	1496511	PROB	3.784	n/a	n/a	-999	6	[5, 1, 6]	12	FR1	0	R1334T
1499.139	3.223	1500295	PROB	3.223	n/a	n/a	-999	6	[3, 2, 7]	12	FR1	0	R1334T
1502.362	0.011	1503517	STOP	n/a	n/a	n/a	-999	6	[-999, -999, -999]	n/a	FR1	0	R1334T
1502.373	0.578	1503528	DISTRACT_END	n/a	n/a	n/a	-999	6	[0, 0, 0]	n/a	FR1	0	R1334T
1502.951	1.691	1504106	RETRIEVAL_ORIENT_START	n/a	n/a	n/a	-999	6	[0, 0, 0]	n/a	FR1	0	R1334T
1504.642	0.0	1505797	RETRIEVAL_ORIENT_END	n/a	n/a	n/a	-999	6	[0, 0, 0]	n/a	FR1	0	R1334T
1504.642	0.344	1505797	REC_START	n/a	n/a	n/a	-999	6	[0, 0, 0]	n/a	FR1	0	R1334T
1504.986	1.387	1506141	REC_WORD	1.387	n/a	EEL	1	6	[0, 0, 0]	n/a	FR1	0	R1334T
1506.373	1.672	1507528	REC_WORD	1.672	n/a	CROW	2	6	[0, 0, 0]	n/a	FR1	0	R1334T
1508.045	2.098	1509200	REC_WORD	2.098	n/a	STEAK	6	6	[0, 0, 0]	n/a	FR1	0	R1334T
1510.143	2.259	1511298	REC_WORD	2.259	n/a	PLANE	10	6	[0, 0, 0]	n/a	FR1	0	R1334T
1512.402	18.704	1513557	REC_WORD	18.704	n/a	ZOO	8	6	[0, 0, 0]	n/a	FR1	0	R1334T
1531.106	3.545	1532260	REC_WORD	3.545	n/a	HEN	-999	6	[0, 0, 0]	n/a	FR1	0	R1334T
1534.651	0.001	1535805	REC_END	n/a	n/a	n/a	-999	6	[0, 0, 0]	n/a	FR1	0	R1334T
1534.652	0.014	1535806	TRIAL_END	n/a	n/a	n/a	-999	6	[0, 0, 0]	n/a	FR1	0	R1334T
1534.666	0.001	1535820	TRIAL_START	n/a	n/a	n/a	-999	7	[0, 0, 0]	n/a	FR1	0	R1334T
1534.667	0.0	1535821	TRIAL	n/a	n/a	n/a	-999	7	[0, 0, 0]	n/a	FR1	0	R1334T
1534.667	3.447	1535821	WAITING_START	n/a	n/a	n/a	-999	7	[0, 0, 0]	n/a	FR1	0	R1334T
1538.114	0.0	1539268	COUNTDOWN_START	n/a	n/a	n/a	-999	7	[0, 0, 0]	n/a	FR1	0	R1334T
1538.114	10.429	1539268	WAITING_END	n/a	n/a	n/a	-999	7	[0, 0, 0]	n/a	FR1	0	R1334T
1548.543	0.0	1549696	COUNTDOWN_END	n/a	n/a	n/a	-999	7	[0, 0, 0]	n/a	FR1	0	R1334T
1548.543	1.124	1549696	ORIENT_START	n/a	n/a	n/a	-999	7	[0, 0, 0]	n/a	FR1	0	R1334T
1549.667	0.0	1550820	ORIENT_END	n/a	n/a	n/a	-999	7	[0, 0, 0]	n/a	FR1	0	R1334T
1549.667	0.8	1550820	ENCODING_START	n/a	n/a	n/a	-999	7	[0, 0, 0]	n/a	FR1	0	R1334T
1550.467	1.632	1551620	WORD	n/a	n/a	INK	1	7	[0, 0, 0]	n/a	FR1	0	R1334T
1552.099	1.019	1553252	WORD_OFF	n/a	n/a	INK	1	7	[0, 0, 0]	n/a	FR1	0	R1334T
1553.118	1.633	1554271	WORD	n/a	n/a	STOVE	2	7	[0, 0, 0]	n/a	FR1	0	R1334T
1554.751	0.916	1555904	WORD_OFF	n/a	n/a	STOVE	2	7	[0, 0, 0]	n/a	FR1	0	R1334T
1555.667	1.633	1556820	WORD	n/a	n/a	BIRD	3	7	[0, 0, 0]	n/a	FR1	0	R1334T
1557.3	1.117	1558453	WORD_OFF	n/a	n/a	BIRD	3	7	[0, 0, 0]	n/a	FR1	0	R1334T
1558.417	1.634	1559570	WORD	n/a	n/a	WALL	4	7	[0, 0, 0]	n/a	FR1	0	R1334T
1560.051	0.837	1561204	WORD_OFF	n/a	n/a	WALL	4	7	[0, 0, 0]	n/a	FR1	0	R1334T
1560.888	1.63	1562041	WORD	n/a	n/a	TOOL	5	7	[0, 0, 0]	n/a	FR1	0	R1334T
1562.518	0.909	1563671	WORD_OFF	n/a	n/a	TOOL	5	7	[0, 0, 0]	n/a	FR1	0	R1334T
1563.427	1.625	1564580	WORD	n/a	n/a	PASTE	6	7	[0, 0, 0]	n/a	FR1	0	R1334T
1565.052	0.883	1566205	WORD_OFF	n/a	n/a	PASTE	6	7	[0, 0, 0]	n/a	FR1	0	R1334T
1565.935	1.635	1567088	WORD	n/a	n/a	FOOT	7	7	[0, 0, 0]	n/a	FR1	0	R1334T
1567.57	0.829	1568723	WORD_OFF	n/a	n/a	FOOT	7	7	[0, 0, 0]	n/a	FR1	0	R1334T
1568.399	1.637	1569552	WORD	n/a	n/a	PIN	8	7	[0, 0, 0]	n/a	FR1	0	R1334T
1570.036	1.001	1571189	WORD_OFF	n/a	n/a	PIN	8	7	[0, 0, 0]	n/a	FR1	0	R1334T
1571.037	1.634	1572190	WORD	n/a	n/a	SEA	9	7	[0, 0, 0]	n/a	FR1	0	R1334T
1572.671	0.824	1573823	WORD_OFF	n/a	n/a	SEA	9	7	[0, 0, 0]	n/a	FR1	0	R1334T
1573.495	1.625	1574647	WORD	n/a	n/a	LAND	10	7	[0, 0, 0]	n/a	FR1	0	R1334T
1575.12	1.148	1576272	WORD_OFF	n/a	n/a	LAND	10	7	[0, 0, 0]	n/a	FR1	0	R1334T
1576.268	1.636	1577420	WORD	n/a	n/a	MAP	11	7	[0, 0, 0]	n/a	FR1	0	R1334T
1577.904	0.918	1579056	WORD_OFF	n/a	n/a	MAP	11	7	[0, 0, 0]	n/a	FR1	0	R1334T
1578.822	1.633	1579974	WORD	n/a	n/a	SOAP	12	7	[0, 0, 0]	n/a	FR1	0	R1334T
1580.455	0.0	1581607	WORD_OFF	n/a	n/a	SOAP	12	7	[0, 0, 0]	n/a	FR1	0	R1334T
1580.455	0.0	1581607	ENCODING_END	n/a	n/a	n/a	-999	7	[0, 0, 0]	n/a	FR1	0	R1334T
1580.455	0.001	1581607	DISTRACT_START	n/a	n/a	n/a	-999	7	[0, 0, 0]	n/a	FR1	0	R1334T
1580.456	0.015	1581608	START	n/a	n/a	n/a	-999	7	[-999, -999, -999]	n/a	FR1	0	R1334T
1580.471	5.818	1581623	PROB	5.818	n/a	n/a	-999	7	[9, 4, 6]	19	FR1	0	R1334T
1586.289	6.551	1587441	PROB	6.551	n/a	n/a	-999	7	[6, 4, 9]	19	FR1	0	R1334T
1592.84	5.651	1593992	PROB	5.651	n/a	n/a	-999	7	[2, 3, 6]	11	FR1	0	R1334T
1598.491	9.892	1599642	PROB	9.892	n/a	n/a	-999	7	[6, 9, 9]	14	FR1	0	R1334T
1608.383	0.01	1609534	STOP	n/a	n/a	n/a	-999	7	[-999, -999, -999]	n/a	FR1	0	R1334T
1608.393	0.631	1609544	DISTRACT_END	n/a	n/a	n/a	-999	7	[0, 0, 0]	n/a	FR1	0	R1334T
1609.024	1.687	1610175	RETRIEVAL_ORIENT_START	n/a	n/a	n/a	-999	7	[0, 0, 0]	n/a	FR1	0	R1334T
1610.711	0.0	1611862	RETRIEVAL_ORIENT_END	n/a	n/a	n/a	-999	7	[0, 0, 0]	n/a	FR1	0	R1334T
1610.711	2.93	1611862	REC_START	n/a	n/a	n/a	-999	7	[0, 0, 0]	n/a	FR1	0	R1334T
1613.641	1.0	1614792	REC_WORD	1.0	n/a	STAND	-999	7	[0, 0, 0]	n/a	FR1	0	R1334T
1614.641	6.032	1615792	REC_WORD_VV	6.032	n/a	<>	-999	7	[0, 0, 0]	n/a	FR1	0	R1334T
1620.673	1.0	1621823	REC_WORD	1.0	n/a	FAN	-999	7	[0, 0, 0]	n/a	FR1	0	R1334T
1621.673	13.524	1622823	REC_WORD_VV	13.524	n/a	<>	-999	7	[0, 0, 0]	n/a	FR1	0	R1334T
1635.197	5.526	1636347	REC_WORD	5.526	n/a	NEST	-999	7	[0, 0, 0]	n/a	FR1	0	R1334T
1640.723	0.0	1641873	REC_END	n/a	n/a	n/a	-999	7	[0, 0, 0]	n/a	FR1	0	R1334T
1640.723	0.015	1641873	TRIAL_END	n/a	n/a	n/a	-999	7	[0, 0, 0]	n/a	FR1	0	R1334T
1640.738	0.0	1641888	TRIAL_START	n/a	n/a	n/a	-999	8	[0, 0, 0]	n/a	FR1	0	R1334T
1640.738	0.0	1641888	TRIAL	n/a	n/a	n/a	-999	8	[0, 0, 0]	n/a	FR1	0	R1334T
1640.738	5.579	1641888	WAITING_START	n/a	n/a	n/a	-999	8	[0, 0, 0]	n/a	FR1	0	R1334T
1646.317	0.0	1647466	COUNTDOWN_START	n/a	n/a	n/a	-999	8	[0, 0, 0]	n/a	FR1	0	R1334T
1646.317	10.429	1647466	WAITING_END	n/a	n/a	n/a	-999	8	[0, 0, 0]	n/a	FR1	0	R1334T
1656.746	0.001	1657895	COUNTDOWN_END	n/a	n/a	n/a	-999	8	[0, 0, 0]	n/a	FR1	0	R1334T
1656.747	1.222	1657896	ORIENT_START	n/a	n/a	n/a	-999	8	[0, 0, 0]	n/a	FR1	0	R1334T
1657.969	0.0	1659118	ORIENT_END	n/a	n/a	n/a	-999	8	[0, 0, 0]	n/a	FR1	0	R1334T
1657.969	0.889	1659118	ENCODING_START	n/a	n/a	n/a	-999	8	[0, 0, 0]	n/a	FR1	0	R1334T
1658.858	1.628	1660007	WORD	n/a	n/a	BOOT	1	8	[0, 0, 0]	n/a	FR1	0	R1334T
1660.486	1.022	1661635	WORD_OFF	n/a	n/a	BOOT	1	8	[0, 0, 0]	n/a	FR1	0	R1334T
1661.508	1.628	1662657	WORD	n/a	n/a	VASE	2	8	[0, 0, 0]	n/a	FR1	0	R1334T
1663.136	0.977	1664285	WORD_OFF	n/a	n/a	VASE	2	8	[0, 0, 0]	n/a	FR1	0	R1334T
1664.113	1.625	1665262	WORD	n/a	n/a	OWL	3	8	[0, 0, 0]	n/a	FR1	0	R1334T
1665.738	1.07	1666886	WORD_OFF	n/a	n/a	OWL	3	8	[0, 0, 0]	n/a	FR1	0	R1334T
1666.808	1.629	1667956	WORD	n/a	n/a	TRASH	4	8	[0, 0, 0]	n/a	FR1	0	R1334T
1668.437	0.936	1669585	WORD_OFF	n/a	n/a	TRASH	4	8	[0, 0, 0]	n/a	FR1	0	R1334T
1669.373	1.631	1670521	WORD	n/a	n/a	HOUSE	5	8	[0, 0, 0]	n/a	FR1	0	R1334T
1671.004	0.926	1672152	WORD_OFF	n/a	n/a	HOUSE	5	8	[0, 0, 0]	n/a	FR1	0	R1334T
1671.93	1.626	1673078	WORD	n/a	n/a	TIE	6	8	[0, 0, 0]	n/a	FR1	0	R1334T
1673.556	0.925	1674704	WORD_OFF	n/a	n/a	TIE	6	8	[0, 0, 0]	n/a	FR1	0	R1334T
1674.481	1.624	1675629	WORD	n/a	n/a	ROAD	7	8	[0, 0, 0]	n/a	FR1	0	R1334T
1676.105	0.852	1677253	WORD_OFF	n/a	n/a	ROAD	7	8	[0, 0, 0]	n/a	FR1	0	R1334T
1676.957	1.633	1678105	WORD	n/a	n/a	FOG	8	8	[0, 0, 0]	n/a	FR1	0	R1334T
1678.59	0.922	1679738	WORD_OFF	n/a	n/a	FOG	8	8	[0, 0, 0]	n/a	FR1	0	R1334T
1679.512	1.628	1680660	WORD	n/a	n/a	CROWN	9	8	[0, 0, 0]	n/a	FR1	0	R1334T
1681.14	0.793	1682288	WORD_OFF	n/a	n/a	CROWN	9	8	[0, 0, 0]	n/a	FR1	0	R1334T
1681.933	1.608	1683081	WORD	n/a	n/a	SEED	10	8	[0, 0, 0]	n/a	FR1	0	R1334T
1683.541	0.93	1684689	WORD_OFF	n/a	n/a	SEED	10	8	[0, 0, 0]	n/a	FR1	0	R1334T
1684.471	1.636	1685619	WORD	n/a	n/a	CUBE	11	8	[0, 0, 0]	n/a	FR1	0	R1334T
1686.107	0.833	1687255	WORD_OFF	n/a	n/a	CUBE	11	8	[0, 0, 0]	n/a	FR1	0	R1334T
1686.94	1.619	1688088	WORD	n/a	n/a	WORLD	12	8	[0, 0, 0]	n/a	FR1	0	R1334T
1688.559	0.0	1689706	WORD_OFF	n/a	n/a	WORLD	12	8	[0, 0, 0]	n/a	FR1	0	R1334T
1688.559	0.0	1689706	ENCODING_END	n/a	n/a	n/a	-999	8	[0, 0, 0]	n/a	FR1	0	R1334T
1688.559	0.001	1689706	DISTRACT_START	n/a	n/a	n/a	-999	8	[0, 0, 0]	n/a	FR1	0	R1334T
1688.56	0.015	1689707	START	n/a	n/a	n/a	-999	8	[-999, -999, -999]	n/a	FR1	0	R1334T
1688.575	4.65	1689722	PROB	4.65	n/a	n/a	-999	8	[6, 1, 6]	13	FR1	0	R1334T
1693.225	6.168	1694372	PROB	6.168	n/a	n/a	-999	8	[8, 6, 6]	20	FR1	0	R1334T
1699.393	3.6	1700540	PROB	3.6	n/a	n/a	-999	8	[7, 3, 5]	15	FR1	0	R1334T
1702.993	5.501	1704140	PROB	5.501	n/a	n/a	-999	8	[7, 4, 7]	18	FR1	0	R1334T
1708.494	3.763	1709641	PROB	3.763	n/a	n/a	-999	8	[7, 1, 1]	9	FR1	0	R1334T
1712.257	0.021	1713403	STOP	n/a	n/a	n/a	-999	8	[-999, -999, -999]	n/a	FR1	0	R1334T
1712.278	0.694	1713424	DISTRACT_END	n/a	n/a	n/a	-999	8	[0, 0, 0]	n/a	FR1	0	R1334T
1712.972	1.608	1714118	RETRIEVAL_ORIENT_START	n/a	n/a	n/a	-999	8	[0, 0, 0]	n/a	FR1	0	R1334T
1714.58	0.0	1715726	RETRIEVAL_ORIENT_END	n/a	n/a	n/a	-999	8	[0, 0, 0]	n/a	FR1	0	R1334T
1714.58	0.813	1715726	REC_START	n/a	n/a	n/a	-999	8	[0, 0, 0]	n/a	FR1	0	R1334T
1715.393	1.769	1716539	REC_WORD	1.769	n/a	CUBE	11	8	[0, 0, 0]	n/a	FR1	0	R1334T
1717.162	5.683	1718308	REC_WORD	5.683	n/a	WORLD	12	8	[0, 0, 0]	n/a	FR1	0	R1334T
1722.845	21.745	1723991	REC_WORD	21.745	n/a	HOUSE	5	8	[0, 0, 0]	n/a	FR1	0	R1334T
1744.59	0.0	1745735	REC_END	n/a	n/a	n/a	-999	8	[0, 0, 0]	n/a	FR1	0	R1334T
1744.59	0.016	1745735	TRIAL_END	n/a	n/a	n/a	-999	8	[0, 0, 0]	n/a	FR1	0	R1334T
1744.606	0.0	1745751	TRIAL_START	n/a	n/a	n/a	-999	9	[0, 0, 0]	n/a	FR1	0	R1334T
1744.606	0.0	1745751	TRIAL	n/a	n/a	n/a	-999	9	[0, 0, 0]	n/a	FR1	0	R1334T
1744.606	3.879	1745751	WAITING_START	n/a	n/a	n/a	-999	9	[0, 0, 0]	n/a	FR1	0	R1334T
1748.485	0.0	1749630	WAITING_END	n/a	n/a	n/a	-999	9	[0, 0, 0]	n/a	FR1	0	R1334T
1748.485	10.43	1749630	COUNTDOWN_START	n/a	n/a	n/a	-999	9	[0, 0, 0]	n/a	FR1	0	R1334T
1758.915	0.001	1760059	COUNTDOWN_END	n/a	n/a	n/a	-999	9	[0, 0, 0]	n/a	FR1	0	R1334T
1758.916	1.204	1760060	ORIENT_START	n/a	n/a	n/a	-999	9	[0, 0, 0]	n/a	FR1	0	R1334T
1760.12	0.001	1761264	ORIENT_END	n/a	n/a	n/a	-999	9	[0, 0, 0]	n/a	FR1	0	R1334T
1760.121	0.994	1761265	ENCODING_START	n/a	n/a	n/a	-999	9	[0, 0, 0]	n/a	FR1	0	R1334T
1761.115	1.624	1762259	WORD	n/a	n/a	BOAT	1	9	[0, 0, 0]	n/a	FR1	0	R1334T
1762.739	0.883	1763883	WORD_OFF	n/a	n/a	BOAT	1	9	[0, 0, 0]	n/a	FR1	0	R1334T
1763.622	1.633	1764766	WORD	n/a	n/a	FUDGE	2	9	[0, 0, 0]	n/a	FR1	0	R1334T
1765.255	1.043	1766399	WORD_OFF	n/a	n/a	FUDGE	2	9	[0, 0, 0]	n/a	FR1	0	R1334T
1766.298	1.624	1767442	WORD	n/a	n/a	SHOE	3	9	[0, 0, 0]	n/a	FR1	0	R1334T
1767.922	0.95	1769066	WORD_OFF	n/a	n/a	SHOE	3	9	[0, 0, 0]	n/a	FR1	0	R1334T
1768.872	1.634	1770016	WORD	n/a	n/a	KEY	4	9	[0, 0, 0]	n/a	FR1	0	R1334T
1770.506	0.84	1771650	WORD_OFF	n/a	n/a	KEY	4	9	[0, 0, 0]	n/a	FR1	0	R1334T
1771.346	1.627	1772490	WORD	n/a	n/a	SALT	5	9	[0, 0, 0]	n/a	FR1	0	R1334T
1772.973	1.068	1774117	WORD_OFF	n/a	n/a	SALT	5	9	[0, 0, 0]	n/a	FR1	0	R1334T
1774.041	1.617	1775185	WORD	n/a	n/a	DUCK	6	9	[0, 0, 0]	n/a	FR1	0	R1334T
1775.658	0.891	1776802	WORD_OFF	n/a	n/a	DUCK	6	9	[0, 0, 0]	n/a	FR1	0	R1334T
1776.549	1.625	1777693	WORD	n/a	n/a	LEG	7	9	[0, 0, 0]	n/a	FR1	0	R1334T
1778.174	0.996	1779318	WORD_OFF	n/a	n/a	LEG	7	9	[0, 0, 0]	n/a	FR1	0	R1334T
1779.17	1.623	1780314	WORD	n/a	n/a	LIP	8	9	[0, 0, 0]	n/a	FR1	0	R1334T
1780.793	1.13	1781937	WORD_OFF	n/a	n/a	LIP	8	9	[0, 0, 0]	n/a	FR1	0	R1334T
1781.923	1.619	1783067	WORD	n/a	n/a	MAIL	9	9	[0, 0, 0]	n/a	FR1	0	R1334T
1783.542	1.09	1784685	WORD_OFF	n/a	n/a	MAIL	9	9	[0, 0, 0]	n/a	FR1	0	R1334T
1784.632	1.627	1785775	WORD	n/a	n/a	RAKE	10	9	[0, 0, 0]	n/a	FR1	0	R1334T
1786.259	1.079	1787402	WORD_OFF	n/a	n/a	RAKE	10	9	[0, 0, 0]	n/a	FR1	0	R1334T
1787.338	1.638	1788481	WORD	n/a	n/a	DOCK	11	9	[0, 0, 0]	n/a	FR1	0	R1334T
1788.976	0.76	1790119	WORD_OFF	n/a	n/a	DOCK	11	9	[0, 0, 0]	n/a	FR1	0	R1334T
1789.736	1.624	1790879	WORD	n/a	n/a	STORE	12	9	[0, 0, 0]	n/a	FR1	0	R1334T
1791.36	0.0	1792503	DISTRACT_START	n/a	n/a	n/a	-999	9	[0, 0, 0]	n/a	FR1	0	R1334T
1791.36	0.0	1792503	ENCODING_END	n/a	n/a	n/a	-999	9	[0, 0, 0]	n/a	FR1	0	R1334T
1791.36	0.001	1792503	WORD_OFF	n/a	n/a	STORE	12	9	[0, 0, 0]	n/a	FR1	0	R1334T
1791.361	0.015	1792504	START	n/a	n/a	n/a	-999	9	[-999, -999, -999]	n/a	FR1	0	R1334T
1791.376	8.868	1792519	PROB	8.868	n/a	n/a	-999	9	[5, 7, 7]	19	FR1	0	R1334T
1800.244	4.569	1801387	PROB	4.569	n/a	n/a	-999	9	[2, 3, 1]	6	FR1	0	R1334T
1804.813	13.183	1805956	PROB	13.183	n/a	n/a	-999	9	[8, 5, 9]	21	FR1	0	R1334T
1817.996	0.018	1819138	STOP	n/a	n/a	n/a	-999	9	[-999, -999, -999]	n/a	FR1	0	R1334T
1818.014	0.502	1819156	DISTRACT_END	n/a	n/a	n/a	-999	9	[0, 0, 0]	n/a	FR1	0	R1334T
1818.516	1.582	1819658	RETRIEVAL_ORIENT_START	n/a	n/a	n/a	-999	9	[0, 0, 0]	n/a	FR1	0	R1334T
1820.098	0.0	1821240	RETRIEVAL_ORIENT_END	n/a	n/a	n/a	-999	9	[0, 0, 0]	n/a	FR1	0	R1334T
1820.098	0.842	1821240	REC_START	n/a	n/a	n/a	-999	9	[0, 0, 0]	n/a	FR1	0	R1334T
1820.94	1.081	1822082	REC_WORD	1.081	n/a	BOAT	1	9	[0, 0, 0]	n/a	FR1	0	R1334T
1822.021	1.868	1823163	REC_WORD	1.868	n/a	LEG	7	9	[0, 0, 0]	n/a	FR1	0	R1334T
1823.889	26.221	1825031	REC_WORD	26.221	n/a	LIP	8	9	[0, 0, 0]	n/a	FR1	0	R1334T
1850.11	0.0	1851251	TRIAL_END	n/a	n/a	n/a	-999	9	[0, 0, 0]	n/a	FR1	0	R1334T
1850.11	0.014	1851251	REC_END	n/a	n/a	n/a	-999	9	[0, 0, 0]	n/a	FR1	0	R1334T
1850.124	0.0	1851265	TRIAL_START	n/a	n/a	n/a	-999	10	[0, 0, 0]	n/a	FR1	0	R1334T
1850.124	0.001	1851265	TRIAL	n/a	n/a	n/a	-999	10	[0, 0, 0]	n/a	FR1	0	R1334T
1850.125	2.146	1851266	WAITING_START	n/a	n/a	n/a	-999	10	[0, 0, 0]	n/a	FR1	0	R1334T
1852.271	0.0	1853411	WAITING_END	n/a	n/a	n/a	-999	10	[0, 0, 0]	n/a	FR1	0	R1334T
1852.271	10.429	1853411	COUNTDOWN_START	n/a	n/a	n/a	-999	10	[0, 0, 0]	n/a	FR1	0	R1334T
1862.7	0.001	1863840	COUNTDOWN_END	n/a	n/a	n/a	-999	10	[0, 0, 0]	n/a	FR1	0	R1334T
1862.701	1.089	1863841	ORIENT_START	n/a	n/a	n/a	-999	10	[0, 0, 0]	n/a	FR1	0	R1334T
1863.79	0.001	1864930	ORIENT_END	n/a	n/a	n/a	-999	10	[0, 0, 0]	n/a	FR1	0	R1334T
1863.791	0.753	1864931	ENCODING_START	n/a	n/a	n/a	-999	10	[0, 0, 0]	n/a	FR1	0	R1334T
1864.544	1.629	1865684	WORD	n/a	n/a	NAIL	1	10	[0, 0, 0]	n/a	FR1	0	R1334T
1866.173	0.961	1867313	WORD_OFF	n/a	n/a	NAIL	1	10	[0, 0, 0]	n/a	FR1	0	R1334T
1867.134	1.607	1868274	WORD	n/a	n/a	SPRING	2	10	[0, 0, 0]	n/a	FR1	0	R1334T
1868.741	0.959	1869881	WORD_OFF	n/a	n/a	SPRING	2	10	[0, 0, 0]	n/a	FR1	0	R1334T
1869.7	1.624	1870840	WORD	n/a	n/a	SKY	3	10	[0, 0, 0]	n/a	FR1	0	R1334T
1871.324	0.975	1872464	WORD_OFF	n/a	n/a	SKY	3	10	[0, 0, 0]	n/a	FR1	0	R1334T
1872.299	1.625	1873439	WORD	n/a	n/a	LEAF	4	10	[0, 0, 0]	n/a	FR1	0	R1334T
1873.924	0.933	1875064	WORD_OFF	n/a	n/a	LEAF	4	10	[0, 0, 0]	n/a	FR1	0	R1334T
1874.857	1.634	1875997	WORD	n/a	n/a	EGG	5	10	[0, 0, 0]	n/a	FR1	0	R1334T
1876.491	0.982	1877630	WORD_OFF	n/a	n/a	EGG	5	10	[0, 0, 0]	n/a	FR1	0	R1334T
1877.473	1.636	1878612	WORD	n/a	n/a	FLUTE	6	10	[0, 0, 0]	n/a	FR1	0	R1334T
1879.109	1.07	1880248	WORD_OFF	n/a	n/a	FLUTE	6	10	[0, 0, 0]	n/a	FR1	0	R1334T
1880.179	1.631	1881318	WORD	n/a	n/a	GUARD	7	10	[0, 0, 0]	n/a	FR1	0	R1334T
1881.81	0.85	1882949	WORD_OFF	n/a	n/a	GUARD	7	10	[0, 0, 0]	n/a	FR1	0	R1334T
1882.66	1.633	1883799	WORD	n/a	n/a	TEETH	8	10	[0, 0, 0]	n/a	FR1	0	R1334T
1884.293	0.932	1885432	WORD_OFF	n/a	n/a	TEETH	8	10	[0, 0, 0]	n/a	FR1	0	R1334T
1885.225	1.635	1886364	WORD	n/a	n/a	FORK	9	10	[0, 0, 0]	n/a	FR1	0	R1334T
1886.86	0.935	1887999	WORD_OFF	n/a	n/a	FORK	9	10	[0, 0, 0]	n/a	FR1	0	R1334T
1887.795	1.632	1888934	WORD	n/a	n/a	CAPE	10	10	[0, 0, 0]	n/a	FR1	0	R1334T
1889.427	0.98	1890566	WORD_OFF	n/a	n/a	CAPE	10	10	[0, 0, 0]	n/a	FR1	0	R1334T
1890.407	1.638	1891546	WORD	n/a	n/a	STEAM	11	10	[0, 0, 0]	n/a	FR1	0	R1334T
1892.045	1.035	1893184	WORD_OFF	n/a	n/a	STEAM	11	10	[0, 0, 0]	n/a	FR1	0	R1334T
1893.08	1.633	1894219	WORD	n/a	n/a	PIT	12	10	[0, 0, 0]	n/a	FR1	0	R1334T
1894.713	0.0	1895852	WORD_OFF	n/a	n/a	PIT	12	10	[0, 0, 0]	n/a	FR1	0	R1334T
1894.713	0.0	1895852	ENCODING_END	n/a	n/a	n/a	-999	10	[0, 0, 0]	n/a	FR1	0	R1334T
1894.713	0.001	1895852	DISTRACT_START	n/a	n/a	n/a	-999	10	[0, 0, 0]	n/a	FR1	0	R1334T
1894.714	0.015	1895853	START	n/a	n/a	n/a	-999	10	[-999, -999, -999]	n/a	FR1	0	R1334T
1894.729	5.001	1895868	PROB	5.001	n/a	n/a	-999	10	[3, 6, 3]	12	FR1	0	R1334T
1899.73	14.468	1900868	PROB	14.468	n/a	n/a	-999	10	[9, 6, 6]	21	FR1	0	R1334T
1914.198	4.3	1915336	PROB	4.3	n/a	n/a	-999	10	[3, 7, 1]	11	FR1	0	R1334T
1918.498	0.018	1919636	STOP	n/a	n/a	n/a	-999	10	[-999, -999, -999]	n/a	FR1	0	R1334T
1918.516	0.697	1919654	DISTRACT_END	n/a	n/a	n/a	-999	10	[0, 0, 0]	n/a	FR1	0	R1334T
1919.213	1.653	1920351	RETRIEVAL_ORIENT_START	n/a	n/a	n/a	-999	10	[0, 0, 0]	n/a	FR1	0	R1334T
1920.866	0.001	1922004	RETRIEVAL_ORIENT_END	n/a	n/a	n/a	-999	10	[0, 0, 0]	n/a	FR1	0	R1334T
1920.867	1.713	1922005	REC_START	n/a	n/a	n/a	-999	10	[0, 0, 0]	n/a	FR1	0	R1334T
1922.58	1.2	1923717	REC_WORD	1.2	n/a	CAPE	10	10	[0, 0, 0]	n/a	FR1	0	R1334T
1923.78	1.0	1924917	REC_WORD	1.0	n/a	STEAM	11	10	[0, 0, 0]	n/a	FR1	0	R1334T
1924.78	3.806	1925917	REC_WORD_VV	3.806	n/a	<>	-999	10	[0, 0, 0]	n/a	FR1	0	R1334T
1928.586	21.928	1929723	REC_WORD	21.928	n/a	SKY	3	10	[0, 0, 0]	n/a	FR1	0	R1334T
1950.514	0.363	1951650	REC_WORD	0.363	n/a	ROAD	-999	10	[0, 0, 0]	n/a	FR1	0	R1334T
1950.877	0.0	1952013	TRIAL_END	n/a	n/a	n/a	-999	10	[0, 0, 0]	n/a	FR1	0	R1334T
1950.877	0.014	1952013	REC_END	n/a	n/a	n/a	-999	10	[0, 0, 0]	n/a	FR1	0	R1334T
1950.891	0.0	1952027	TRIAL_START	n/a	n/a	n/a	-999	11	[0, 0, 0]	n/a	FR1	0	R1334T
1950.891	0.001	1952027	TRIAL	n/a	n/a	n/a	-999	11	[0, 0, 0]	n/a	FR1	0	R1334T
1950.892	3.131	1952028	WAITING_START	n/a	n/a	n/a	-999	11	[0, 0, 0]	n/a	FR1	0	R1334T
1954.023	0.0	1955159	WAITING_END	n/a	n/a	n/a	-999	11	[0, 0, 0]	n/a	FR1	0	R1334T
1954.023	10.428	1955159	COUNTDOWN_START	n/a	n/a	n/a	-999	11	[0, 0, 0]	n/a	FR1	0	R1334T
1964.451	0.001	1965587	COUNTDOWN_END	n/a	n/a	n/a	-999	11	[0, 0, 0]	n/a	FR1	0	R1334T
1964.452	1.24	1965588	ORIENT_START	n/a	n/a	n/a	-999	11	[0, 0, 0]	n/a	FR1	0	R1334T
1965.692	0.001	1966828	ORIENT_END	n/a	n/a	n/a	-999	11	[0, 0, 0]	n/a	FR1	0	R1334T
1965.693	1.06	1966829	ENCODING_START	n/a	n/a	n/a	-999	11	[0, 0, 0]	n/a	FR1	0	R1334T
1966.753	1.622	1967889	WORD	n/a	n/a	FOOD	1	11	[0, 0, 0]	n/a	FR1	0	R1334T
1968.375	0.898	1969511	WORD_OFF	n/a	n/a	FOOD	1	11	[0, 0, 0]	n/a	FR1	0	R1334T
1969.273	1.636	1970409	WORD	n/a	n/a	GRAPE	2	11	[0, 0, 0]	n/a	FR1	0	R1334T
1970.909	0.762	1972044	WORD_OFF	n/a	n/a	GRAPE	2	11	[0, 0, 0]	n/a	FR1	0	R1334T
1971.671	1.622	1972806	WORD	n/a	n/a	HOOK	3	11	[0, 0, 0]	n/a	FR1	0	R1334T
1973.293	0.968	1974428	WORD_OFF	n/a	n/a	HOOK	3	11	[0, 0, 0]	n/a	FR1	0	R1334T
1974.261	1.632	1975396	WORD	n/a	n/a	THREAD	4	11	[0, 0, 0]	n/a	FR1	0	R1334T
1975.893	0.828	1977028	WORD_OFF	n/a	n/a	THREAD	4	11	[0, 0, 0]	n/a	FR1	0	R1334T
1976.721	1.622	1977856	WORD	n/a	n/a	BEE	5	11	[0, 0, 0]	n/a	FR1	0	R1334T
1978.343	1.138	1979478	WORD_OFF	n/a	n/a	BEE	5	11	[0, 0, 0]	n/a	FR1	0	R1334T
1979.481	1.63	1980616	WORD	n/a	n/a	LAWN	6	11	[0, 0, 0]	n/a	FR1	0	R1334T
1981.111	1.12	1982246	WORD_OFF	n/a	n/a	LAWN	6	11	[0, 0, 0]	n/a	FR1	0	R1334T
1982.231	1.63	1983366	WORD	n/a	n/a	CHAIR	7	11	[0, 0, 0]	n/a	FR1	0	R1334T
1983.861	1.111	1984996	WORD_OFF	n/a	n/a	CHAIR	7	11	[0, 0, 0]	n/a	FR1	0	R1334T
1984.972	1.607	1986107	WORD	n/a	n/a	ICE	8	11	[0, 0, 0]	n/a	FR1	0	R1334T
1986.579	1.1	1987714	WORD_OFF	n/a	n/a	ICE	8	11	[0, 0, 0]	n/a	FR1	0	R1334T
1987.679	1.633	1988814	WORD	n/a	n/a	CLIFF	9	11	[0, 0, 0]	n/a	FR1	0	R1334T
1989.312	0.817	1990447	WORD_OFF	n/a	n/a	CLIFF	9	11	[0, 0, 0]	n/a	FR1	0	R1334T
1990.129	1.618	1991264	WORD	n/a	n/a	WING	10	11	[0, 0, 0]	n/a	FR1	0	R1334T
1991.747	0.762	1992882	WORD_OFF	n/a	n/a	WING	10	11	[0, 0, 0]	n/a	FR1	0	R1334T
1992.509	1.637	1993644	WORD	n/a	n/a	TENT	11	11	[0, 0, 0]	n/a	FR1	0	R1334T
1994.146	0.962	1995280	WORD_OFF	n/a	n/a	TENT	11	11	[0, 0, 0]	n/a	FR1	0	R1334T
1995.108	1.606	1996242	WORD	n/a	n/a	PIE	12	11	[0, 0, 0]	n/a	FR1	0	R1334T
1996.714	0.001	1997848	WORD_OFF	n/a	n/a	PIE	12	11	[0, 0, 0]	n/a	FR1	0	R1334T
1996.715	0.0	1997849	ENCODING_END	n/a	n/a	n/a	-999	11	[0, 0, 0]	n/a	FR1	0	R1334T
1996.715	0.0	1997849	DISTRACT_START	n/a	n/a	n/a	-999	11	[0, 0, 0]	n/a	FR1	0	R1334T
1996.715	0.016	1997849	START	n/a	n/a	n/a	-999	11	[-999, -999, -999]	n/a	FR1	0	R1334T
1996.731	10.684	1997865	PROB	10.684	n/a	n/a	-999	11	[6, 9, 7]	22	FR1	0	R1334T
2007.415	4.252	2008549	PROB	4.252	n/a	n/a	-999	11	[4, 3, 7]	14	FR1	0	R1334T
2011.667	4.85	2012801	PROB	4.85	n/a	n/a	-999	11	[9, 5, 6]	20	FR1	0	R1334T
2016.517	5.543	2017650	PROB	5.543	n/a	n/a	-999	11	[5, 9, 4]	18	FR1	0	R1334T
2022.06	0.008	2023193	STOP	n/a	n/a	n/a	-999	11	[-999, -999, -999]	n/a	FR1	0	R1334T
2022.068	0.569	2023201	DISTRACT_END	n/a	n/a	n/a	-999	11	[0, 0, 0]	n/a	FR1	0	R1334T
2022.637	1.532	2023770	RETRIEVAL_ORIENT_START	n/a	n/a	n/a	-999	11	[0, 0, 0]	n/a	FR1	0	R1334T
2024.169	0.0	2025302	RETRIEVAL_ORIENT_END	n/a	n/a	n/a	-999	11	[0, 0, 0]	n/a	FR1	0	R1334T
2024.169	0.92	2025302	REC_START	n/a	n/a	n/a	-999	11	[0, 0, 0]	n/a	FR1	0	R1334T
2025.089	0.987	2026222	REC_WORD	0.987	n/a	FOOD	1	11	[0, 0, 0]	n/a	FR1	0	R1334T
2026.076	1.705	2027209	REC_WORD	1.705	n/a	GRAPE	2	11	[0, 0, 0]	n/a	FR1	0	R1334T
2027.781	2.015	2028914	REC_WORD	2.015	n/a	ICE	8	11	[0, 0, 0]	n/a	FR1	0	R1334T
2029.796	2.055	2030929	REC_WORD	2.055	n/a	CHAIR	7	11	[0, 0, 0]	n/a	FR1	0	R1334T
2031.851	22.328	2032984	REC_WORD	22.328	n/a	LAWN	6	11	[0, 0, 0]	n/a	FR1	0	R1334T
2054.179	0.001	2055311	REC_END	n/a	n/a	n/a	-999	11	[0, 0, 0]	n/a	FR1	0	R1334T
2054.18	0.015	2055312	TRIAL_END	n/a	n/a	n/a	-999	11	[0, 0, 0]	n/a	FR1	0	R1334T
2054.195	0.0	2055327	TRIAL_START	n/a	n/a	n/a	-999	12	[0, 0, 0]	n/a	FR1	0	R1334T
2054.195	0.001	2055327	TRIAL	n/a	n/a	n/a	-999	12	[0, 0, 0]	n/a	FR1	0	R1334T
2054.196	2.363	2055328	WAITING_START	n/a	n/a	n/a	-999	12	[0, 0, 0]	n/a	FR1	0	R1334T
2056.559	0.0	2057691	WAITING_END	n/a	n/a	n/a	-999	12	[0, 0, 0]	n/a	FR1	0	R1334T
2056.559	10.429	2057691	COUNTDOWN_START	n/a	n/a	n/a	-999	12	[0, 0, 0]	n/a	FR1	0	R1334T
2066.988	0.001	2068119	COUNTDOWN_END	n/a	n/a	n/a	-999	12	[0, 0, 0]	n/a	FR1	0	R1334T
2066.989	1.138	2068120	ORIENT_START	n/a	n/a	n/a	-999	12	[0, 0, 0]	n/a	FR1	0	R1334T
2068.127	0.0	2069258	ENCODING_START	n/a	n/a	n/a	-999	12	[0, 0, 0]	n/a	FR1	0	R1334T
2068.127	1.049	2069258	ORIENT_END	n/a	n/a	n/a	-999	12	[0, 0, 0]	n/a	FR1	0	R1334T
2069.176	1.636	2070307	WORD	n/a	n/a	CAT	1	12	[0, 0, 0]	n/a	FR1	0	R1334T
2070.812	1.077	2071943	WORD_OFF	n/a	n/a	CAT	1	12	[0, 0, 0]	n/a	FR1	0	R1334T
2071.889	1.622	2073020	WORD	n/a	n/a	DEER	2	12	[0, 0, 0]	n/a	FR1	0	R1334T
2073.511	0.988	2074642	WORD_OFF	n/a	n/a	DEER	2	12	[0, 0, 0]	n/a	FR1	0	R1334T
2074.499	1.629	2075630	WORD	n/a	n/a	BANK	3	12	[0, 0, 0]	n/a	FR1	0	R1334T
2076.128	0.991	2077259	WORD_OFF	n/a	n/a	BANK	3	12	[0, 0, 0]	n/a	FR1	0	R1334T
2077.119	1.627	2078250	WORD	n/a	n/a	BLOOM	4	12	[0, 0, 0]	n/a	FR1	0	R1334T
2078.746	1.094	2079877	WORD_OFF	n/a	n/a	BLOOM	4	12	[0, 0, 0]	n/a	FR1	0	R1334T
2079.84	1.622	2080971	WORD	n/a	n/a	MOUSE	5	12	[0, 0, 0]	n/a	FR1	0	R1334T
2081.462	0.995	2082593	WORD_OFF	n/a	n/a	MOUSE	5	12	[0, 0, 0]	n/a	FR1	0	R1334T
2082.457	1.622	2083588	WORD	n/a	n/a	SHIRT	6	12	[0, 0, 0]	n/a	FR1	0	R1334T
2084.079	1.028	2085210	WORD_OFF	n/a	n/a	SHIRT	6	12	[0, 0, 0]	n/a	FR1	0	R1334T
2085.107	1.607	2086238	WORD	n/a	n/a	MAZE	7	12	[0, 0, 0]	n/a	FR1	0	R1334T
2086.714	1.027	2087844	WORD_OFF	n/a	n/a	MAZE	7	12	[0, 0, 0]	n/a	FR1	0	R1334T
2087.741	1.623	2088871	WORD	n/a	n/a	STAIR	8	12	[0, 0, 0]	n/a	FR1	0	R1334T
2089.364	0.755	2090494	WORD_OFF	n/a	n/a	STAIR	8	12	[0, 0, 0]	n/a	FR1	0	R1334T
2090.119	1.63	2091249	WORD	n/a	n/a	TREE	9	12	[0, 0, 0]	n/a	FR1	0	R1334T
2091.749	1.102	2092879	WORD_OFF	n/a	n/a	TREE	9	12	[0, 0, 0]	n/a	FR1	0	R1334T
2092.851	1.63	2093981	WORD	n/a	n/a	TOOTH	10	12	[0, 0, 0]	n/a	FR1	0	R1334T
2094.481	0.766	2095611	WORD_OFF	n/a	n/a	TOOTH	10	12	[0, 0, 0]	n/a	FR1	0	R1334T
2095.247	1.635	2096377	WORD	n/a	n/a	WORM	11	12	[0, 0, 0]	n/a	FR1	0	R1334T
2096.882	0.941	2098012	WORD_OFF	n/a	n/a	WORM	11	12	[0, 0, 0]	n/a	FR1	0	R1334T
2097.823	1.626	2098953	WORD	n/a	n/a	PEA	12	12	[0, 0, 0]	n/a	FR1	0	R1334T
2099.449	0.0	2100579	WORD_OFF	n/a	n/a	PEA	12	12	[0, 0, 0]	n/a	FR1	0	R1334T
2099.449	0.001	2100579	ENCODING_END	n/a	n/a	n/a	-999	12	[0, 0, 0]	n/a	FR1	0	R1334T
2099.45	0.0	2100580	DISTRACT_START	n/a	n/a	n/a	-999	12	[0, 0, 0]	n/a	FR1	0	R1334T
2099.45	0.015	2100580	START	n/a	n/a	n/a	-999	12	[-999, -999, -999]	n/a	FR1	0	R1334T
2099.465	4.751	2100595	PROB	4.751	n/a	n/a	-999	12	[2, 8, 1]	11	FR1	0	R1334T
2104.216	10.32	2105346	PROB	10.32	n/a	n/a	-999	12	[8, 9, 4]	21	FR1	0	R1334T
2114.536	4.0	2115665	PROB	4.0	n/a	n/a	-999	12	[7, 8, 2]	17	FR1	0	R1334T
2118.536	3.138	2119665	PROB	3.138	n/a	n/a	-999	12	[3, 5, 5]	13	FR1	0	R1334T
2121.674	0.013	2122803	STOP	n/a	n/a	n/a	-999	12	[-999, -999, -999]	n/a	FR1	0	R1334T
2121.687	0.653	2122816	DISTRACT_END	n/a	n/a	n/a	-999	12	[0, 0, 0]	n/a	FR1	0	R1334T
2122.34	1.53	2123469	RETRIEVAL_ORIENT_START	n/a	n/a	n/a	-999	12	[0, 0, 0]	n/a	FR1	0	R1334T
2123.87	0.0	2124999	REC_START	n/a	n/a	n/a	-999	12	[0, 0, 0]	n/a	FR1	0	R1334T
2123.87	2.186	2124999	RETRIEVAL_ORIENT_END	n/a	n/a	n/a	-999	12	[0, 0, 0]	n/a	FR1	0	R1334T
2126.056	0.603	2127185	REC_WORD	0.603	n/a	CAT	1	12	[0, 0, 0]	n/a	FR1	0	R1334T
2126.659	1.211	2127788	REC_WORD	1.211	n/a	DEER	2	12	[0, 0, 0]	n/a	FR1	0	R1334T
2127.87	2.579	2128999	REC_WORD	2.579	n/a	MOUSE	5	12	[0, 0, 0]	n/a	FR1	0	R1334T
2130.449	3.76	2131578	REC_WORD	3.76	n/a	BLOOM	4	12	[0, 0, 0]	n/a	FR1	0	R1334T
2134.209	2.824	2135337	REC_WORD	2.824	n/a	CHAIR	-999	12	[0, 0, 0]	n/a	FR1	0	R1334T
2137.033	16.849	2138161	REC_WORD	16.849	n/a	STAIR	8	12	[0, 0, 0]	n/a	FR1	0	R1334T
2153.882	0.0	2155010	TRIAL_END	n/a	n/a	n/a	-999	12	[0, 0, 0]	n/a	FR1	0	R1334T
2153.882	0.014	2155010	REC_END	n/a	n/a	n/a	-999	12	[0, 0, 0]	n/a	FR1	0	R1334T
2153.896	0.0	2155024	TRIAL_START	n/a	n/a	n/a	-999	13	[0, 0, 0]	n/a	FR1	0	R1334T
2153.896	0.0	2155024	TRIAL	n/a	n/a	n/a	-999	13	[0, 0, 0]	n/a	FR1	0	R1334T
2153.896	2.063	2155024	WAITING_START	n/a	n/a	n/a	-999	13	[0, 0, 0]	n/a	FR1	0	R1334T
2155.959	0.001	2157087	WAITING_END	n/a	n/a	n/a	-999	13	[0, 0, 0]	n/a	FR1	0	R1334T
2155.96	10.428	2157088	COUNTDOWN_START	n/a	n/a	n/a	-999	13	[0, 0, 0]	n/a	FR1	0	R1334T
2166.388	0.001	2167515	COUNTDOWN_END	n/a	n/a	n/a	-999	13	[0, 0, 0]	n/a	FR1	0	R1334T
2166.389	1.19	2167516	ORIENT_START	n/a	n/a	n/a	-999	13	[0, 0, 0]	n/a	FR1	0	R1334T
2167.579	0.001	2168706	ORIENT_END	n/a	n/a	n/a	-999	13	[0, 0, 0]	n/a	FR1	0	R1334T
2167.58	0.877	2168707	ENCODING_START	n/a	n/a	n/a	-999	13	[0, 0, 0]	n/a	FR1	0	R1334T
2168.457	1.638	2169584	WORD	n/a	n/a	SCHOOL	1	13	[0, 0, 0]	n/a	FR1	0	R1334T
2170.095	0.819	2171222	WORD_OFF	n/a	n/a	SCHOOL	1	13	[0, 0, 0]	n/a	FR1	0	R1334T
2170.914	1.632	2172041	WORD	n/a	n/a	HOOF	2	13	[0, 0, 0]	n/a	FR1	0	R1334T
2172.546	1.079	2173673	WORD_OFF	n/a	n/a	HOOF	2	13	[0, 0, 0]	n/a	FR1	0	R1334T
2173.625	1.621	2174752	WORD	n/a	n/a	WOOD	3	13	[0, 0, 0]	n/a	FR1	0	R1334T
2175.246	0.909	2176373	WORD_OFF	n/a	n/a	WOOD	3	13	[0, 0, 0]	n/a	FR1	0	R1334T
2176.155	1.626	2177282	WORD	n/a	n/a	FAN	4	13	[0, 0, 0]	n/a	FR1	0	R1334T
2177.781	1.13	2178908	WORD_OFF	n/a	n/a	FAN	4	13	[0, 0, 0]	n/a	FR1	0	R1334T
2178.911	1.637	2180038	WORD	n/a	n/a	APE	5	13	[0, 0, 0]	n/a	FR1	0	R1334T
2180.548	1.038	2181674	WORD_OFF	n/a	n/a	APE	5	13	[0, 0, 0]	n/a	FR1	0	R1334T
2181.586	1.628	2182712	WORD	n/a	n/a	SIGN	6	13	[0, 0, 0]	n/a	FR1	0	R1334T
2183.214	1.073	2184340	WORD_OFF	n/a	n/a	SIGN	6	13	[0, 0, 0]	n/a	FR1	0	R1334T
2184.287	1.628	2185413	WORD	n/a	n/a	BARN	7	13	[0, 0, 0]	n/a	FR1	0	R1334T
2185.915	1.061	2187041	WORD_OFF	n/a	n/a	BARN	7	13	[0, 0, 0]	n/a	FR1	0	R1334T
2186.976	1.607	2188102	WORD	n/a	n/a	VAN	8	13	[0, 0, 0]	n/a	FR1	0	R1334T
2188.583	0.858	2189709	WORD_OFF	n/a	n/a	VAN	8	13	[0, 0, 0]	n/a	FR1	0	R1334T
2189.441	1.625	2190567	WORD	n/a	n/a	GOAT	9	13	[0, 0, 0]	n/a	FR1	0	R1334T
2191.066	1.124	2192192	WORD_OFF	n/a	n/a	GOAT	9	13	[0, 0, 0]	n/a	FR1	0	R1334T
2192.19	1.627	2193316	WORD	n/a	n/a	SPEAR	10	13	[0, 0, 0]	n/a	FR1	0	R1334T
2193.817	1.002	2194943	WORD_OFF	n/a	n/a	SPEAR	10	13	[0, 0, 0]	n/a	FR1	0	R1334T
2194.819	1.631	2195945	WORD	n/a	n/a	TOE	11	13	[0, 0, 0]	n/a	FR1	0	R1334T
2196.45	0.934	2197576	WORD_OFF	n/a	n/a	TOE	11	13	[0, 0, 0]	n/a	FR1	0	R1334T
2197.384	1.633	2198510	WORD	n/a	n/a	MULE	12	13	[0, 0, 0]	n/a	FR1	0	R1334T
2199.017	0.001	2200143	WORD_OFF	n/a	n/a	MULE	12	13	[0, 0, 0]	n/a	FR1	0	R1334T
2199.018	0.0	2200144	ENCODING_END	n/a	n/a	n/a	-999	13	[0, 0, 0]	n/a	FR1	0	R1334T
2199.018	0.0	2200144	DISTRACT_START	n/a	n/a	n/a	-999	13	[0, 0, 0]	n/a	FR1	0	R1334T
2199.018	0.016	2200144	START	n/a	n/a	n/a	-999	13	[-999, -999, -999]	n/a	FR1	0	R1334T
2199.034	4.267	2200160	PROB	4.267	n/a	n/a	-999	13	[7, 7, 7]	21	FR1	0	R1334T
2203.301	9.353	2204427	PROB	9.353	n/a	n/a	-999	13	[8, 7, 7]	22	FR1	0	R1334T
2212.654	7.193	2213779	PROB	7.193	n/a	n/a	-999	13	[6, 6, 9]	21	FR1	0	R1334T
2219.847	0.007	2220972	STOP	n/a	n/a	n/a	-999	13	[-999, -999, -999]	n/a	FR1	0	R1334T
2219.854	0.568	2220979	DISTRACT_END	n/a	n/a	n/a	-999	13	[0, 0, 0]	n/a	FR1	0	R1334T
2220.422	1.633	2221547	RETRIEVAL_ORIENT_START	n/a	n/a	n/a	-999	13	[0, 0, 0]	n/a	FR1	0	R1334T
2222.055	0.0	2223180	RETRIEVAL_ORIENT_END	n/a	n/a	n/a	-999	13	[0, 0, 0]	n/a	FR1	0	R1334T
2222.055	0.832	2223180	REC_START	n/a	n/a	n/a	-999	13	[0, 0, 0]	n/a	FR1	0	R1334T
2222.887	1.578	2224012	REC_WORD	1.578	n/a	SCHOOL	1	13	[0, 0, 0]	n/a	FR1	0	R1334T
2224.465	2.773	2225590	REC_WORD	2.773	n/a	BARN	7	13	[0, 0, 0]	n/a	FR1	0	R1334T
2227.238	8.11	2228362	REC_WORD	8.11	n/a	HOOF	2	13	[0, 0, 0]	n/a	FR1	0	R1334T
2235.348	16.716	2236472	REC_WORD	16.716	n/a	WOOD	3	13	[0, 0, 0]	n/a	FR1	0	R1334T
2252.064	0.0	2253187	REC_END	n/a	n/a	n/a	-999	13	[0, 0, 0]	n/a	FR1	0	R1334T
2252.064	0.015	2253187	TRIAL_END	n/a	n/a	n/a	-999	13	[0, 0, 0]	n/a	FR1	0	R1334T
2252.079	0.0	2253202	WAITING_START	n/a	n/a	n/a	-999	14	[0, 0, 0]	n/a	FR1	0	R1334T
2252.079	0.0	2253202	TRIAL_START	n/a	n/a	n/a	-999	14	[0, 0, 0]	n/a	FR1	0	R1334T
2252.079	2.148	2253202	TRIAL	n/a	n/a	n/a	-999	14	[0, 0, 0]	n/a	FR1	0	R1334T
2254.227	0.001	2255350	WAITING_END	n/a	n/a	n/a	-999	14	[0, 0, 0]	n/a	FR1	0	R1334T
2254.228	10.428	2255351	COUNTDOWN_START	n/a	n/a	n/a	-999	14	[0, 0, 0]	n/a	FR1	0	R1334T
2264.656	0.001	2265779	COUNTDOWN_END	n/a	n/a	n/a	-999	14	[0, 0, 0]	n/a	FR1	0	R1334T
2264.657	1.239	2265780	ORIENT_START	n/a	n/a	n/a	-999	14	[0, 0, 0]	n/a	FR1	0	R1334T
2265.896	0.0	2267019	ORIENT_END	n/a	n/a	n/a	-999	14	[0, 0, 0]	n/a	FR1	0	R1334T
2265.896	1.051	2267019	ENCODING_START	n/a	n/a	n/a	-999	14	[0, 0, 0]	n/a	FR1	0	R1334T
2266.947	1.617	2268070	WORD	n/a	n/a	SMOKE	1	14	[0, 0, 0]	n/a	FR1	0	R1334T
2268.564	0.769	2269687	WORD_OFF	n/a	n/a	SMOKE	1	14	[0, 0, 0]	n/a	FR1	0	R1334T
2269.333	1.631	2270456	WORD	n/a	n/a	CASH	2	14	[0, 0, 0]	n/a	FR1	0	R1334T
2270.964	0.789	2272087	WORD_OFF	n/a	n/a	CASH	2	14	[0, 0, 0]	n/a	FR1	0	R1334T
2271.753	1.628	2272876	WORD	n/a	n/a	SUIT	3	14	[0, 0, 0]	n/a	FR1	0	R1334T
2273.381	0.995	2274504	WORD_OFF	n/a	n/a	SUIT	3	14	[0, 0, 0]	n/a	FR1	0	R1334T
2274.376	1.622	2275498	WORD	n/a	n/a	CLOTH	4	14	[0, 0, 0]	n/a	FR1	0	R1334T
2275.998	1.034	2277120	WORD_OFF	n/a	n/a	CLOTH	4	14	[0, 0, 0]	n/a	FR1	0	R1334T
2277.032	1.617	2278154	WORD	n/a	n/a	ANT	5	14	[0, 0, 0]	n/a	FR1	0	R1334T
2278.649	0.937	2279771	WORD_OFF	n/a	n/a	ANT	5	14	[0, 0, 0]	n/a	FR1	0	R1334T
2279.586	1.629	2280708	WORD	n/a	n/a	CAKE	6	14	[0, 0, 0]	n/a	FR1	0	R1334T
2281.215	0.83	2282337	WORD_OFF	n/a	n/a	CAKE	6	14	[0, 0, 0]	n/a	FR1	0	R1334T
2282.045	1.622	2283167	WORD	n/a	n/a	BRANCH	7	14	[0, 0, 0]	n/a	FR1	0	R1334T
2283.667	1.099	2284789	WORD_OFF	n/a	n/a	BRANCH	7	14	[0, 0, 0]	n/a	FR1	0	R1334T
2284.766	1.634	2285888	WORD	n/a	n/a	RIB	8	14	[0, 0, 0]	n/a	FR1	0	R1334T
2286.4	1.143	2287522	WORD_OFF	n/a	n/a	RIB	8	14	[0, 0, 0]	n/a	FR1	0	R1334T
2287.543	1.624	2288665	WORD	n/a	n/a	BLUSH	9	14	[0, 0, 0]	n/a	FR1	0	R1334T
2289.167	0.876	2290289	WORD_OFF	n/a	n/a	BLUSH	9	14	[0, 0, 0]	n/a	FR1	0	R1334T
2290.043	1.609	2291165	WORD	n/a	n/a	MUD	10	14	[0, 0, 0]	n/a	FR1	0	R1334T
2291.652	0.858	2292774	WORD_OFF	n/a	n/a	MUD	10	14	[0, 0, 0]	n/a	FR1	0	R1334T
2292.51	1.624	2293632	WORD	n/a	n/a	JAR	11	14	[0, 0, 0]	n/a	FR1	0	R1334T
2294.134	0.985	2295256	WORD_OFF	n/a	n/a	JAR	11	14	[0, 0, 0]	n/a	FR1	0	R1334T
2295.119	1.617	2296241	WORD	n/a	n/a	CONE	12	14	[0, 0, 0]	n/a	FR1	0	R1334T
2296.736	0.0	2297858	WORD_OFF	n/a	n/a	CONE	12	14	[0, 0, 0]	n/a	FR1	0	R1334T
2296.736	0.001	2297858	ENCODING_END	n/a	n/a	n/a	-999	14	[0, 0, 0]	n/a	FR1	0	R1334T
2296.737	0.0	2297859	DISTRACT_START	n/a	n/a	n/a	-999	14	[0, 0, 0]	n/a	FR1	0	R1334T
2296.737	0.015	2297859	START	n/a	n/a	n/a	-999	14	[-999, -999, -999]	n/a	FR1	0	R1334T
2296.752	3.984	2297874	PROB	3.984	n/a	n/a	-999	14	[4, 2, 8]	14	FR1	0	R1334T
2300.736	4.533	2301857	PROB	4.533	n/a	n/a	-999	14	[1, 6, 8]	15	FR1	0	R1334T
2305.269	3.436	2306390	PROB	3.436	n/a	n/a	-999	14	[3, 7, 9]	19	FR1	0	R1334T
2308.705	4.449	2309826	PROB	4.449	n/a	n/a	-999	14	[7, 5, 3]	15	FR1	0	R1334T
2313.154	4.528	2314275	PROB	4.528	n/a	n/a	-999	14	[3, 5, 9]	17	FR1	0	R1334T
2317.682	0.008	2318803	STOP	n/a	n/a	n/a	-999	14	[-999, -999, -999]	n/a	FR1	0	R1334T
2317.69	0.661	2318811	DISTRACT_END	n/a	n/a	n/a	-999	14	[0, 0, 0]	n/a	FR1	0	R1334T
2318.351	1.655	2319472	RETRIEVAL_ORIENT_START	n/a	n/a	n/a	-999	14	[0, 0, 0]	n/a	FR1	0	R1334T
2320.006	0.0	2321127	REC_START	n/a	n/a	n/a	-999	14	[0, 0, 0]	n/a	FR1	0	R1334T
2320.006	0.585	2321127	RETRIEVAL_ORIENT_END	n/a	n/a	n/a	-999	14	[0, 0, 0]	n/a	FR1	0	R1334T
2320.591	1.0	2321711	REC_WORD	1.0	n/a	SMOKE	1	14	[0, 0, 0]	n/a	FR1	0	R1334T
2321.591	0.471	2322711	REC_WORD_VV	0.471	n/a	<>	-999	14	[0, 0, 0]	n/a	FR1	0	R1334T
2322.062	13.396	2323182	REC_WORD	13.396	n/a	MONEY	-999	14	[0, 0, 0]	n/a	FR1	0	R1334T
2335.458	5.951	2336578	REC_WORD	5.951	n/a	SKY	-999	14	[0, 0, 0]	n/a	FR1	0	R1334T
2341.409	5.493	2342529	REC_WORD	5.493	n/a	ANT	5	14	[0, 0, 0]	n/a	FR1	0	R1334T
2346.902	3.114	2348021	REC_WORD	3.114	n/a	BLOOM	-999	14	[0, 0, 0]	n/a	FR1	0	R1334T
2350.016	0.0	2351135	REC_END	n/a	n/a	n/a	-999	14	[0, 0, 0]	n/a	FR1	0	R1334T
2350.016	0.014	2351135	TRIAL_END	n/a	n/a	n/a	-999	14	[0, 0, 0]	n/a	FR1	0	R1334T
2350.03	0.0	2351149	WAITING_START	n/a	n/a	n/a	-999	15	[0, 0, 0]	n/a	FR1	0	R1334T
2350.03	0.0	2351149	TRIAL_START	n/a	n/a	n/a	-999	15	[0, 0, 0]	n/a	FR1	0	R1334T
2350.03	2.799	2351149	TRIAL	n/a	n/a	n/a	-999	15	[0, 0, 0]	n/a	FR1	0	R1334T
2352.829	0.001	2353948	WAITING_END	n/a	n/a	n/a	-999	15	[0, 0, 0]	n/a	FR1	0	R1334T
2352.83	10.429	2353949	COUNTDOWN_START	n/a	n/a	n/a	-999	15	[0, 0, 0]	n/a	FR1	0	R1334T
2363.259	0.0	2364378	COUNTDOWN_END	n/a	n/a	n/a	-999	15	[0, 0, 0]	n/a	FR1	0	R1334T
2363.259	1.155	2364378	ORIENT_START	n/a	n/a	n/a	-999	15	[0, 0, 0]	n/a	FR1	0	R1334T
2364.414	0.0	2365533	ORIENT_END	n/a	n/a	n/a	-999	15	[0, 0, 0]	n/a	FR1	0	R1334T
2364.414	0.863	2365533	ENCODING_START	n/a	n/a	n/a	-999	15	[0, 0, 0]	n/a	FR1	0	R1334T
2365.277	1.637	2366396	WORD	n/a	n/a	BAG	1	15	[0, 0, 0]	n/a	FR1	0	R1334T
2366.914	0.975	2368033	WORD_OFF	n/a	n/a	BAG	1	15	[0, 0, 0]	n/a	FR1	0	R1334T
2367.889	1.626	2369007	WORD	n/a	n/a	FUR	2	15	[0, 0, 0]	n/a	FR1	0	R1334T
2369.515	1.011	2370633	WORD_OFF	n/a	n/a	FUR	2	15	[0, 0, 0]	n/a	FR1	0	R1334T
2370.526	1.622	2371644	WORD	n/a	n/a	ARK	3	15	[0, 0, 0]	n/a	FR1	0	R1334T
2372.148	0.963	2373266	WORD_OFF	n/a	n/a	ARK	3	15	[0, 0, 0]	n/a	FR1	0	R1334T
2373.111	1.639	2374229	WORD	n/a	n/a	CLOCK	4	15	[0, 0, 0]	n/a	FR1	0	R1334T
2374.75	1.046	2375868	WORD_OFF	n/a	n/a	CLOCK	4	15	[0, 0, 0]	n/a	FR1	0	R1334T
2375.796	1.637	2376914	WORD	n/a	n/a	LAMP	5	15	[0, 0, 0]	n/a	FR1	0	R1334T
2377.433	1.023	2378551	WORD_OFF	n/a	n/a	LAMP	5	15	[0, 0, 0]	n/a	FR1	0	R1334T
2378.456	1.627	2379574	WORD	n/a	n/a	TANK	6	15	[0, 0, 0]	n/a	FR1	0	R1334T
2380.083	1.027	2381201	WORD_OFF	n/a	n/a	TANK	6	15	[0, 0, 0]	n/a	FR1	0	R1334T
2381.11	1.625	2382228	WORD	n/a	n/a	BENCH	7	15	[0, 0, 0]	n/a	FR1	0	R1334T
2382.735	0.869	2383853	WORD_OFF	n/a	n/a	BENCH	7	15	[0, 0, 0]	n/a	FR1	0	R1334T
2383.604	1.63	2384722	WORD	n/a	n/a	POLE	8	15	[0, 0, 0]	n/a	FR1	0	R1334T
2385.234	0.817	2386352	WORD_OFF	n/a	n/a	POLE	8	15	[0, 0, 0]	n/a	FR1	0	R1334T
2386.051	1.635	2387169	WORD	n/a	n/a	STOOL	9	15	[0, 0, 0]	n/a	FR1	0	R1334T
2387.686	0.76	2388804	WORD_OFF	n/a	n/a	STOOL	9	15	[0, 0, 0]	n/a	FR1	0	R1334T
2388.446	1.622	2389564	WORD	n/a	n/a	PALM	10	15	[0, 0, 0]	n/a	FR1	0	R1334T
2390.068	0.798	2391186	WORD_OFF	n/a	n/a	PALM	10	15	[0, 0, 0]	n/a	FR1	0	R1334T
2390.866	1.636	2391983	WORD	n/a	n/a	KITE	11	15	[0, 0, 0]	n/a	FR1	0	R1334T
2392.502	1.116	2393619	WORD_OFF	n/a	n/a	KITE	11	15	[0, 0, 0]	n/a	FR1	0	R1334T
2393.618	1.635	2394735	WORD	n/a	n/a	CHIEF	12	15	[0, 0, 0]	n/a	FR1	0	R1334T
2395.253	0.0	2396370	WORD_OFF	n/a	n/a	CHIEF	12	15	[0, 0, 0]	n/a	FR1	0	R1334T
2395.253	0.001	2396370	ENCODING_END	n/a	n/a	n/a	-999	15	[0, 0, 0]	n/a	FR1	0	R1334T
2395.254	0.0	2396371	DISTRACT_START	n/a	n/a	n/a	-999	15	[0, 0, 0]	n/a	FR1	0	R1334T
2395.254	0.015	2396371	START	n/a	n/a	n/a	-999	15	[-999, -999, -999]	n/a	FR1	0	R1334T
2395.269	7.685	2396386	PROB	7.685	n/a	n/a	-999	15	[9, 6, 8]	22	FR1	0	R1334T
2402.954	5.534	2404071	PROB	5.534	n/a	n/a	-999	15	[7, 8, 9]	21	FR1	0	R1334T
2408.488	6.76	2409605	PROB	6.76	n/a	n/a	-999	15	[8, 3, 4]	15	FR1	0	R1334T
2415.248	0.008	2416364	STOP	n/a	n/a	n/a	-999	15	[-999, -999, -999]	n/a	FR1	0	R1334T
2415.256	0.539	2416372	DISTRACT_END	n/a	n/a	n/a	-999	15	[0, 0, 0]	n/a	FR1	0	R1334T
2415.795	1.578	2416911	RETRIEVAL_ORIENT_START	n/a	n/a	n/a	-999	15	[0, 0, 0]	n/a	FR1	0	R1334T
2417.373	0.001	2418489	RETRIEVAL_ORIENT_END	n/a	n/a	n/a	-999	15	[0, 0, 0]	n/a	FR1	0	R1334T
2417.374	0.757	2418490	REC_START	n/a	n/a	n/a	-999	15	[0, 0, 0]	n/a	FR1	0	R1334T
2418.131	1.181	2419247	REC_WORD	1.181	n/a	POLE	8	15	[0, 0, 0]	n/a	FR1	0	R1334T
2419.312	6.357	2420428	REC_WORD	6.357	n/a	STOOL	9	15	[0, 0, 0]	n/a	FR1	0	R1334T
2425.669	11.507	2426785	REC_WORD	11.507	n/a	BENCH	7	15	[0, 0, 0]	n/a	FR1	0	R1334T
2437.176	10.208	2438292	REC_WORD	10.208	n/a	ARK	3	15	[0, 0, 0]	n/a	FR1	0	R1334T
2447.384	0.0	2448499	REC_END	n/a	n/a	n/a	-999	15	[0, 0, 0]	n/a	FR1	0	R1334T
2447.384	0.014	2448499	TRIAL_END	n/a	n/a	n/a	-999	15	[0, 0, 0]	n/a	FR1	0	R1334T
2447.398	0.001	2448513	TRIAL_START	n/a	n/a	n/a	-999	16	[0, 0, 0]	n/a	FR1	0	R1334T
2447.399	0.0	2448514	WAITING_START	n/a	n/a	n/a	-999	16	[0, 0, 0]	n/a	FR1	0	R1334T
2447.399	2.298	2448514	TRIAL	n/a	n/a	n/a	-999	16	[0, 0, 0]	n/a	FR1	0	R1334T
2449.697	0.0	2450812	WAITING_END	n/a	n/a	n/a	-999	16	[0, 0, 0]	n/a	FR1	0	R1334T
2449.697	10.43	2450812	COUNTDOWN_START	n/a	n/a	n/a	-999	16	[0, 0, 0]	n/a	FR1	0	R1334T
2460.127	0.0	2461242	COUNTDOWN_END	n/a	n/a	n/a	-999	16	[0, 0, 0]	n/a	FR1	0	R1334T
2460.127	1.171	2461242	ORIENT_START	n/a	n/a	n/a	-999	16	[0, 0, 0]	n/a	FR1	0	R1334T
2461.298	0.0	2462412	ORIENT_END	n/a	n/a	n/a	-999	16	[0, 0, 0]	n/a	FR1	0	R1334T
2461.298	0.87	2462412	ENCODING_START	n/a	n/a	n/a	-999	16	[0, 0, 0]	n/a	FR1	0	R1334T
2462.168	1.615	2463282	WORD	n/a	n/a	TEA	1	16	[0, 0, 0]	n/a	FR1	0	R1334T
2463.783	0.848	2464897	WORD_OFF	n/a	n/a	TEA	1	16	[0, 0, 0]	n/a	FR1	0	R1334T
2464.631	1.635	2465745	WORD	n/a	n/a	CLOUD	2	16	[0, 0, 0]	n/a	FR1	0	R1334T
2466.266	1.105	2467380	WORD_OFF	n/a	n/a	CLOUD	2	16	[0, 0, 0]	n/a	FR1	0	R1334T
2467.371	1.628	2468485	WORD	n/a	n/a	FLOOR	3	16	[0, 0, 0]	n/a	FR1	0	R1334T
2468.999	1.095	2470113	WORD_OFF	n/a	n/a	FLOOR	3	16	[0, 0, 0]	n/a	FR1	0	R1334T
2470.094	1.607	2471208	WORD	n/a	n/a	HORSE	4	16	[0, 0, 0]	n/a	FR1	0	R1334T
2471.701	0.852	2472815	WORD_OFF	n/a	n/a	HORSE	4	16	[0, 0, 0]	n/a	FR1	0	R1334T
2472.553	1.631	2473667	WORD	n/a	n/a	ARM	5	16	[0, 0, 0]	n/a	FR1	0	R1334T
2474.184	0.874	2475298	WORD_OFF	n/a	n/a	ARM	5	16	[0, 0, 0]	n/a	FR1	0	R1334T
2475.058	1.627	2476172	WORD	n/a	n/a	LOCK	6	16	[0, 0, 0]	n/a	FR1	0	R1334T
2476.685	0.886	2477799	WORD_OFF	n/a	n/a	LOCK	6	16	[0, 0, 0]	n/a	FR1	0	R1334T
2477.571	1.63	2478685	WORD	n/a	n/a	BAND	7	16	[0, 0, 0]	n/a	FR1	0	R1334T
2479.201	0.822	2480315	WORD_OFF	n/a	n/a	BAND	7	16	[0, 0, 0]	n/a	FR1	0	R1334T
2480.023	1.63	2481137	WORD	n/a	n/a	SKUNK	8	16	[0, 0, 0]	n/a	FR1	0	R1334T
2481.653	1.016	2482767	WORD_OFF	n/a	n/a	SKUNK	8	16	[0, 0, 0]	n/a	FR1	0	R1334T
2482.669	1.633	2483783	WORD	n/a	n/a	BROOM	9	16	[0, 0, 0]	n/a	FR1	0	R1334T
2484.302	0.997	2485416	WORD_OFF	n/a	n/a	BROOM	9	16	[0, 0, 0]	n/a	FR1	0	R1334T
2485.299	1.637	2486412	WORD	n/a	n/a	GLASS	10	16	[0, 0, 0]	n/a	FR1	0	R1334T
2486.936	1.133	2488049	WORD_OFF	n/a	n/a	GLASS	10	16	[0, 0, 0]	n/a	FR1	0	R1334T
2488.069	1.635	2489182	WORD	n/a	n/a	BREAD	11	16	[0, 0, 0]	n/a	FR1	0	R1334T
2489.704	1.097	2490817	WORD_OFF	n/a	n/a	BREAD	11	16	[0, 0, 0]	n/a	FR1	0	R1334T
2490.801	1.636	2491914	WORD	n/a	n/a	PLATE	12	16	[0, 0, 0]	n/a	FR1	0	R1334T
2492.437	0.001	2493550	WORD_OFF	n/a	n/a	PLATE	12	16	[0, 0, 0]	n/a	FR1	0	R1334T
2492.438	0.0	2493551	ENCODING_END	n/a	n/a	n/a	-999	16	[0, 0, 0]	n/a	FR1	0	R1334T
2492.438	0.0	2493551	DISTRACT_START	n/a	n/a	n/a	-999	16	[0, 0, 0]	n/a	FR1	0	R1334T
2492.438	0.016	2493551	START	n/a	n/a	n/a	-999	16	[-999, -999, -999]	n/a	FR1	0	R1334T
2492.454	3.684	2493567	PROB	3.684	n/a	n/a	-999	16	[9, 1, 2]	12	FR1	0	R1334T
2496.138	8.234	2497251	PROB	8.234	n/a	n/a	-999	16	[6, 7, 8]	21	FR1	0	R1334T
2504.372	4.352	2505485	PROB	4.352	n/a	n/a	-999	16	[4, 1, 8]	13	FR1	0	R1334T
2508.724	3.266	2509836	PROB	3.266	n/a	n/a	-999	16	[3, 2, 8]	13	FR1	0	R1334T
2511.99	3.146	2513102	PROB	3.146	n/a	n/a	-999	16	[4, 9, 1]	14	FR1	0	R1334T
2515.136	0.022	2516248	STOP	n/a	n/a	n/a	-999	16	[-999, -999, -999]	n/a	FR1	0	R1334T
2515.158	0.563	2516270	DISTRACT_END	n/a	n/a	n/a	-999	16	[0, 0, 0]	n/a	FR1	0	R1334T
2515.721	1.537	2516833	RETRIEVAL_ORIENT_START	n/a	n/a	n/a	-999	16	[0, 0, 0]	n/a	FR1	0	R1334T
2517.258	0.001	2518370	RETRIEVAL_ORIENT_END	n/a	n/a	n/a	-999	16	[0, 0, 0]	n/a	FR1	0	R1334T
2517.259	0.937	2518371	REC_START	n/a	n/a	n/a	-999	16	[0, 0, 0]	n/a	FR1	0	R1334T
2518.196	1.726	2519308	REC_WORD	1.726	n/a	TEA	1	16	[0, 0, 0]	n/a	FR1	0	R1334T
2519.922	2.29	2521034	REC_WORD	2.29	n/a	CLOUD	2	16	[0, 0, 0]	n/a	FR1	0	R1334T
2522.212	3.172	2523324	REC_WORD	3.172	n/a	SKUNK	8	16	[0, 0, 0]	n/a	FR1	0	R1334T
2525.384	9.945	2526496	REC_WORD	9.945	n/a	BREAD	11	16	[0, 0, 0]	n/a	FR1	0	R1334T
2535.329	11.941	2536440	REC_WORD	11.941	n/a	HORSE	4	16	[0, 0, 0]	n/a	FR1	0	R1334T
2547.27	0.0	2548381	REC_END	n/a	n/a	n/a	-999	16	[0, 0, 0]	n/a	FR1	0	R1334T
2547.27	0.014	2548381	TRIAL_END	n/a	n/a	n/a	-999	16	[0, 0, 0]	n/a	FR1	0	R1334T
2547.284	0.0	2548395	WAITING_START	n/a	n/a	n/a	-999	17	[0, 0, 0]	n/a	FR1	0	R1334T
2547.284	0.0	2548395	TRIAL	n/a	n/a	n/a	-999	17	[0, 0, 0]	n/a	FR1	0	R1334T
2547.284	5.681	2548395	TRIAL_START	n/a	n/a	n/a	-999	17	[0, 0, 0]	n/a	FR1	0	R1334T
2552.965	0.0	2554076	WAITING_END	n/a	n/a	n/a	-999	17	[0, 0, 0]	n/a	FR1	0	R1334T
2552.965	10.43	2554076	COUNTDOWN_START	n/a	n/a	n/a	-999	17	[0, 0, 0]	n/a	FR1	0	R1334T
2563.395	0.0	2564505	COUNTDOWN_END	n/a	n/a	n/a	-999	17	[0, 0, 0]	n/a	FR1	0	R1334T
2563.395	1.122	2564505	ORIENT_START	n/a	n/a	n/a	-999	17	[0, 0, 0]	n/a	FR1	0	R1334T
2564.517	0.0	2565627	ORIENT_END	n/a	n/a	n/a	-999	17	[0, 0, 0]	n/a	FR1	0	R1334T
2564.517	0.972	2565627	ENCODING_START	n/a	n/a	n/a	-999	17	[0, 0, 0]	n/a	FR1	0	R1334T
2565.489	1.628	2566599	WORD	n/a	n/a	LAKE	1	17	[0, 0, 0]	n/a	FR1	0	R1334T
2567.117	1.045	2568227	WORD_OFF	n/a	n/a	LAKE	1	17	[0, 0, 0]	n/a	FR1	0	R1334T
2568.162	1.624	2569272	WORD	n/a	n/a	HOSE	2	17	[0, 0, 0]	n/a	FR1	0	R1334T
2569.786	0.811	2570896	WORD_OFF	n/a	n/a	HOSE	2	17	[0, 0, 0]	n/a	FR1	0	R1334T
2570.597	1.621	2571707	WORD	n/a	n/a	RUG	3	17	[0, 0, 0]	n/a	FR1	0	R1334T
2572.218	1.046	2573328	WORD_OFF	n/a	n/a	RUG	3	17	[0, 0, 0]	n/a	FR1	0	R1334T
2573.264	1.621	2574374	WORD	n/a	n/a	CORN	4	17	[0, 0, 0]	n/a	FR1	0	R1334T
2574.885	1.146	2575995	WORD_OFF	n/a	n/a	CORN	4	17	[0, 0, 0]	n/a	FR1	0	R1334T
2576.031	1.606	2577141	WORD	n/a	n/a	JAIL	5	17	[0, 0, 0]	n/a	FR1	0	R1334T
2577.637	1.093	2578747	WORD_OFF	n/a	n/a	JAIL	5	17	[0, 0, 0]	n/a	FR1	0	R1334T
2578.73	1.623	2579839	WORD	n/a	n/a	BRICK	6	17	[0, 0, 0]	n/a	FR1	0	R1334T
2580.353	1.095	2581462	WORD_OFF	n/a	n/a	BRICK	6	17	[0, 0, 0]	n/a	FR1	0	R1334T
2581.448	1.622	2582557	WORD	n/a	n/a	TOAST	7	17	[0, 0, 0]	n/a	FR1	0	R1334T
2583.07	0.788	2584179	WORD_OFF	n/a	n/a	TOAST	7	17	[0, 0, 0]	n/a	FR1	0	R1334T
2583.858	1.629	2584967	WORD	n/a	n/a	PRINCE	8	17	[0, 0, 0]	n/a	FR1	0	R1334T
2585.487	0.976	2586596	WORD_OFF	n/a	n/a	PRINCE	8	17	[0, 0, 0]	n/a	FR1	0	R1334T
2586.463	1.625	2587572	WORD	n/a	n/a	MOLE	9	17	[0, 0, 0]	n/a	FR1	0	R1334T
2588.088	0.886	2589197	WORD_OFF	n/a	n/a	MOLE	9	17	[0, 0, 0]	n/a	FR1	0	R1334T
2588.974	1.632	2590083	WORD	n/a	n/a	BRIDGE	10	17	[0, 0, 0]	n/a	FR1	0	R1334T
2590.606	0.869	2591715	WORD_OFF	n/a	n/a	BRIDGE	10	17	[0, 0, 0]	n/a	FR1	0	R1334T
2591.475	1.63	2592584	WORD	n/a	n/a	PEARL	11	17	[0, 0, 0]	n/a	FR1	0	R1334T
2593.105	0.883	2594214	WORD_OFF	n/a	n/a	PEARL	11	17	[0, 0, 0]	n/a	FR1	0	R1334T
2593.988	1.635	2595097	WORD	n/a	n/a	DRUM	12	17	[0, 0, 0]	n/a	FR1	0	R1334T
2595.623	0.001	2596732	WORD_OFF	n/a	n/a	DRUM	12	17	[0, 0, 0]	n/a	FR1	0	R1334T
2595.624	0.0	2596733	ENCODING_END	n/a	n/a	n/a	-999	17	[0, 0, 0]	n/a	FR1	0	R1334T
2595.624	0.0	2596733	DISTRACT_START	n/a	n/a	n/a	-999	17	[0, 0, 0]	n/a	FR1	0	R1334T
2595.624	0.016	2596733	START	n/a	n/a	n/a	-999	17	[-999, -999, -999]	n/a	FR1	0	R1334T
2595.64	5.583	2596749	PROB	5.583	n/a	n/a	-999	17	[5, 4, 2]	11	FR1	0	R1334T
2601.223	7.302	2602332	PROB	7.302	n/a	n/a	-999	17	[5, 3, 2]	11	FR1	0	R1334T
2608.525	6.834	2609633	PROB	6.834	n/a	n/a	-999	17	[6, 6, 9]	21	FR1	0	R1334T
2615.359	4.923	2616467	PROB	4.923	n/a	n/a	-999	17	[9, 9, 2]	20	FR1	0	R1334T
2620.282	0.012	2621390	STOP	n/a	n/a	n/a	-999	17	[-999, -999, -999]	n/a	FR1	0	R1334T
2620.294	0.672	2621402	DISTRACT_END	n/a	n/a	n/a	-999	17	[0, 0, 0]	n/a	FR1	0	R1334T
2620.966	1.679	2622074	RETRIEVAL_ORIENT_START	n/a	n/a	n/a	-999	17	[0, 0, 0]	n/a	FR1	0	R1334T
2622.645	0.0	2623753	RETRIEVAL_ORIENT_END	n/a	n/a	n/a	-999	17	[0, 0, 0]	n/a	FR1	0	R1334T
2622.645	1.223	2623753	REC_START	n/a	n/a	n/a	-999	17	[0, 0, 0]	n/a	FR1	0	R1334T
2623.868	0.963	2624976	REC_WORD	0.963	n/a	LAKE	1	17	[0, 0, 0]	n/a	FR1	0	R1334T
2624.831	14.364	2625938	REC_WORD	14.364	n/a	HOLE	-999	17	[0, 0, 0]	n/a	FR1	0	R1334T
2639.195	13.462	2640302	REC_WORD	13.462	n/a	BRIDGE	10	17	[0, 0, 0]	n/a	FR1	0	R1334T
2652.657	0.0	2653763	REC_END	n/a	n/a	n/a	-999	17	[0, 0, 0]	n/a	FR1	0	R1334T
2652.657	0.016	2653763	TRIAL_END	n/a	n/a	n/a	-999	17	[0, 0, 0]	n/a	FR1	0	R1334T
2652.673	0.0	2653779	TRIAL_START	n/a	n/a	n/a	-999	18	[0, 0, 0]	n/a	FR1	0	R1334T
2652.673	0.0	2653779	TRIAL	n/a	n/a	n/a	-999	18	[0, 0, 0]	n/a	FR1	0	R1334T
2652.673	3.611	2653779	WAITING_START	n/a	n/a	n/a	-999	18	[0, 0, 0]	n/a	FR1	0	R1334T
2656.284	0.0	2657390	COUNTDOWN_START	n/a	n/a	n/a	-999	18	[0, 0, 0]	n/a	FR1	0	R1334T
2656.284	10.429	2657390	WAITING_END	n/a	n/a	n/a	-999	18	[0, 0, 0]	n/a	FR1	0	R1334T
2666.713	0.0	2667819	COUNTDOWN_END	n/a	n/a	n/a	-999	18	[0, 0, 0]	n/a	FR1	0	R1334T
2666.713	1.256	2667819	ORIENT_START	n/a	n/a	n/a	-999	18	[0, 0, 0]	n/a	FR1	0	R1334T
2667.969	0.0	2669075	ORIENT_END	n/a	n/a	n/a	-999	18	[0, 0, 0]	n/a	FR1	0	R1334T
2667.969	0.955	2669075	ENCODING_START	n/a	n/a	n/a	-999	18	[0, 0, 0]	n/a	FR1	0	R1334T
2668.924	1.63	2670030	WORD	n/a	n/a	THUMB	1	18	[0, 0, 0]	n/a	FR1	0	R1334T
2670.554	0.909	2671660	WORD_OFF	n/a	n/a	THUMB	1	18	[0, 0, 0]	n/a	FR1	0	R1334T
2671.463	1.624	2672569	WORD	n/a	n/a	BEAK	2	18	[0, 0, 0]	n/a	FR1	0	R1334T
2673.087	0.89	2674192	WORD_OFF	n/a	n/a	BEAK	2	18	[0, 0, 0]	n/a	FR1	0	R1334T
2673.977	1.628	2675082	WORD	n/a	n/a	GOLD	3	18	[0, 0, 0]	n/a	FR1	0	R1334T
2675.605	1.127	2676710	WORD_OFF	n/a	n/a	GOLD	3	18	[0, 0, 0]	n/a	FR1	0	R1334T
2676.732	1.622	2677837	WORD	n/a	n/a	FRUIT	4	18	[0, 0, 0]	n/a	FR1	0	R1334T
2678.354	0.769	2679459	WORD_OFF	n/a	n/a	FRUIT	4	18	[0, 0, 0]	n/a	FR1	0	R1334T
2679.123	1.633	2680228	WORD	n/a	n/a	BATH	5	18	[0, 0, 0]	n/a	FR1	0	R1334T
2680.756	1.019	2681861	WORD_OFF	n/a	n/a	BATH	5	18	[0, 0, 0]	n/a	FR1	0	R1334T
2681.775	1.63	2682880	WORD	n/a	n/a	SHIP	6	18	[0, 0, 0]	n/a	FR1	0	R1334T
2683.405	0.768	2684510	WORD_OFF	n/a	n/a	SHIP	6	18	[0, 0, 0]	n/a	FR1	0	R1334T
2684.173	1.617	2685278	WORD	n/a	n/a	SAIL	7	18	[0, 0, 0]	n/a	FR1	0	R1334T
2685.79	0.86	2686895	WORD_OFF	n/a	n/a	SAIL	7	18	[0, 0, 0]	n/a	FR1	0	R1334T
2686.65	1.623	2687755	WORD	n/a	n/a	PET	8	18	[0, 0, 0]	n/a	FR1	0	R1334T
2688.273	1.065	2689378	WORD_OFF	n/a	n/a	PET	8	18	[0, 0, 0]	n/a	FR1	0	R1334T
2689.338	1.635	2690443	WORD	n/a	n/a	DOLL	9	18	[0, 0, 0]	n/a	FR1	0	R1334T
2690.973	0.912	2692078	WORD_OFF	n/a	n/a	DOLL	9	18	[0, 0, 0]	n/a	FR1	0	R1334T
2691.885	1.622	2692990	WORD	n/a	n/a	CAVE	10	18	[0, 0, 0]	n/a	FR1	0	R1334T
2693.507	0.852	2694612	WORD_OFF	n/a	n/a	CAVE	10	18	[0, 0, 0]	n/a	FR1	0	R1334T
2694.359	1.632	2695464	WORD	n/a	n/a	CHIN	11	18	[0, 0, 0]	n/a	FR1	0	R1334T
2695.991	0.837	2697095	WORD_OFF	n/a	n/a	CHIN	11	18	[0, 0, 0]	n/a	FR1	0	R1334T
2696.828	1.63	2697932	WORD	n/a	n/a	FARM	12	18	[0, 0, 0]	n/a	FR1	0	R1334T
2698.458	0.001	2699562	WORD_OFF	n/a	n/a	FARM	12	18	[0, 0, 0]	n/a	FR1	0	R1334T
2698.459	0.0	2699563	ENCODING_END	n/a	n/a	n/a	-999	18	[0, 0, 0]	n/a	FR1	0	R1334T
2698.459	0.0	2699563	DISTRACT_START	n/a	n/a	n/a	-999	18	[0, 0, 0]	n/a	FR1	0	R1334T
2698.459	0.015	2699563	START	n/a	n/a	n/a	-999	18	[-999, -999, -999]	n/a	FR1	0	R1334T
2698.474	7.435	2699578	PROB	7.435	n/a	n/a	-999	18	[4, 7, 6]	17	FR1	0	R1334T
2705.909	5.769	2707013	PROB	5.769	n/a	n/a	-999	18	[3, 3, 7]	13	FR1	0	R1334T
2711.678	3.017	2712782	PROB	3.017	n/a	n/a	-999	18	[5, 5, 2]	12	FR1	0	R1334T
2714.695	2.951	2715799	PROB	2.951	n/a	n/a	-999	18	[5, 9, 1]	15	FR1	0	R1334T
2717.646	4.151	2718750	PROB	4.151	n/a	n/a	-999	18	[9, 2, 2]	13	FR1	0	R1334T
2721.797	0.016	2722900	STOP	n/a	n/a	n/a	-999	18	[-999, -999, -999]	n/a	FR1	0	R1334T
2721.813	0.581	2722916	DISTRACT_END	n/a	n/a	n/a	-999	18	[0, 0, 0]	n/a	FR1	0	R1334T
2722.394	1.652	2723497	RETRIEVAL_ORIENT_START	n/a	n/a	n/a	-999	18	[0, 0, 0]	n/a	FR1	0	R1334T
2724.046	0.0	2725149	RETRIEVAL_ORIENT_END	n/a	n/a	n/a	-999	18	[0, 0, 0]	n/a	FR1	0	R1334T
2724.046	0.675	2725149	REC_START	n/a	n/a	n/a	-999	18	[0, 0, 0]	n/a	FR1	0	R1334T
2724.721	1.309	2725824	REC_WORD	1.309	n/a	CAVE	10	18	[0, 0, 0]	n/a	FR1	0	R1334T
2726.03	6.346	2727133	REC_WORD	6.346	n/a	CHEEK	-999	18	[0, 0, 0]	n/a	FR1	0	R1334T
2732.376	21.681	2733479	REC_WORD	21.681	n/a	BATHROOM	-999	18	[0, 0, 0]	n/a	FR1	0	R1334T
2754.057	0.0	2755159	REC_END	n/a	n/a	n/a	-999	18	[0, 0, 0]	n/a	FR1	0	R1334T
2754.057	0.016	2755159	TRIAL_END	n/a	n/a	n/a	-999	18	[0, 0, 0]	n/a	FR1	0	R1334T
2754.073	0.0	2755175	TRIAL_START	n/a	n/a	n/a	-999	19	[0, 0, 0]	n/a	FR1	0	R1334T
2754.073	0.0	2755175	TRIAL	n/a	n/a	n/a	-999	19	[0, 0, 0]	n/a	FR1	0	R1334T
2754.073	3.913	2755175	WAITING_START	n/a	n/a	n/a	-999	19	[0, 0, 0]	n/a	FR1	0	R1334T
2757.986	0.0	2759088	WAITING_END	n/a	n/a	n/a	-999	19	[0, 0, 0]	n/a	FR1	0	R1334T
2757.986	10.428	2759088	COUNTDOWN_START	n/a	n/a	n/a	-999	19	[0, 0, 0]	n/a	FR1	0	R1334T
2768.414	0.001	2769515	COUNTDOWN_END	n/a	n/a	n/a	-999	19	[0, 0, 0]	n/a	FR1	0	R1334T
2768.415	1.224	2769516	ORIENT_START	n/a	n/a	n/a	-999	19	[0, 0, 0]	n/a	FR1	0	R1334T
2769.639	0.0	2770740	ORIENT_END	n/a	n/a	n/a	-999	19	[0, 0, 0]	n/a	FR1	0	R1334T
2769.639	1.097	2770740	ENCODING_START	n/a	n/a	n/a	-999	19	[0, 0, 0]	n/a	FR1	0	R1334T
2770.736	1.635	2771837	WORD	n/a	n/a	FISH	1	19	[0, 0, 0]	n/a	FR1	0	R1334T
2772.371	1.072	2773472	WORD_OFF	n/a	n/a	FISH	1	19	[0, 0, 0]	n/a	FR1	0	R1334T
2773.443	1.629	2774544	WORD	n/a	n/a	ELF	2	19	[0, 0, 0]	n/a	FR1	0	R1334T
2775.072	1.113	2776173	WORD_OFF	n/a	n/a	ELF	2	19	[0, 0, 0]	n/a	FR1	0	R1334T
2776.185	1.638	2777286	WORD	n/a	n/a	MOUTH	3	19	[0, 0, 0]	n/a	FR1	0	R1334T
2777.823	0.914	2778924	WORD_OFF	n/a	n/a	MOUTH	3	19	[0, 0, 0]	n/a	FR1	0	R1334T
2778.737	1.636	2779838	WORD	n/a	n/a	PEAR	4	19	[0, 0, 0]	n/a	FR1	0	R1334T
2780.373	0.816	2781474	WORD_OFF	n/a	n/a	PEAR	4	19	[0, 0, 0]	n/a	FR1	0	R1334T
2781.189	1.635	2782290	WORD	n/a	n/a	BALL	5	19	[0, 0, 0]	n/a	FR1	0	R1334T
2782.824	0.886	2783925	WORD_OFF	n/a	n/a	BALL	5	19	[0, 0, 0]	n/a	FR1	0	R1334T
2783.71	1.63	2784811	WORD	n/a	n/a	SHRIMP	6	19	[0, 0, 0]	n/a	FR1	0	R1334T
2785.34	0.851	2786441	WORD_OFF	n/a	n/a	SHRIMP	6	19	[0, 0, 0]	n/a	FR1	0	R1334T
2786.191	1.634	2787292	WORD	n/a	n/a	TOY	7	19	[0, 0, 0]	n/a	FR1	0	R1334T
2787.825	0.776	2788926	WORD_OFF	n/a	n/a	TOY	7	19	[0, 0, 0]	n/a	FR1	0	R1334T
2788.601	1.624	2789702	WORD	n/a	n/a	TRAY	8	19	[0, 0, 0]	n/a	FR1	0	R1334T
2790.225	1.058	2791325	WORD_OFF	n/a	n/a	TRAY	8	19	[0, 0, 0]	n/a	FR1	0	R1334T
2791.283	1.625	2792383	WORD	n/a	n/a	HAWK	9	19	[0, 0, 0]	n/a	FR1	0	R1334T
2792.908	0.986	2794008	WORD_OFF	n/a	n/a	HAWK	9	19	[0, 0, 0]	n/a	FR1	0	R1334T
2793.894	1.632	2794994	WORD	n/a	n/a	ROPE	10	19	[0, 0, 0]	n/a	FR1	0	R1334T
2795.526	0.978	2796626	WORD_OFF	n/a	n/a	ROPE	10	19	[0, 0, 0]	n/a	FR1	0	R1334T
2796.504	1.622	2797604	WORD	n/a	n/a	ROOT	11	19	[0, 0, 0]	n/a	FR1	0	R1334T
2798.126	1.056	2799226	WORD_OFF	n/a	n/a	ROOT	11	19	[0, 0, 0]	n/a	FR1	0	R1334T
2799.182	1.629	2800282	WORD	n/a	n/a	BOX	12	19	[0, 0, 0]	n/a	FR1	0	R1334T
2800.811	0.0	2801911	WORD_OFF	n/a	n/a	BOX	12	19	[0, 0, 0]	n/a	FR1	0	R1334T
2800.811	0.001	2801911	ENCODING_END	n/a	n/a	n/a	-999	19	[0, 0, 0]	n/a	FR1	0	R1334T
2800.812	0.0	2801912	DISTRACT_START	n/a	n/a	n/a	-999	19	[0, 0, 0]	n/a	FR1	0	R1334T
2800.812	0.015	2801912	START	n/a	n/a	n/a	-999	19	[-999, -999, -999]	n/a	FR1	0	R1334T
2800.827	7.467	2801927	PROB	7.467	n/a	n/a	-999	19	[3, 1, 6]	10	FR1	0	R1334T
2808.294	3.319	2809394	PROB	3.319	n/a	n/a	-999	19	[8, 2, 4]	14	FR1	0	R1334T
2811.613	4.117	2812713	PROB	4.117	n/a	n/a	-999	19	[9, 3, 2]	14	FR1	0	R1334T
2815.73	3.15	2816829	PROB	3.15	n/a	n/a	-999	19	[1, 1, 5]	7	FR1	0	R1334T
2818.88	3.217	2819979	PROB	3.217	n/a	n/a	-999	19	[6, 7, 3]	16	FR1	0	R1334T
2822.097	0.017	2823196	STOP	n/a	n/a	n/a	-999	19	[-999, -999, -999]	n/a	FR1	0	R1334T
2822.114	0.677	2823213	DISTRACT_END	n/a	n/a	n/a	-999	19	[0, 0, 0]	n/a	FR1	0	R1334T
2822.791	1.656	2823890	RETRIEVAL_ORIENT_START	n/a	n/a	n/a	-999	19	[0, 0, 0]	n/a	FR1	0	R1334T
2824.447	0.001	2825546	RETRIEVAL_ORIENT_END	n/a	n/a	n/a	-999	19	[0, 0, 0]	n/a	FR1	0	R1334T
2824.448	0.982	2825547	REC_START	n/a	n/a	n/a	-999	19	[0, 0, 0]	n/a	FR1	0	R1334T
2825.43	1.275	2826529	REC_WORD	1.275	n/a	FISH	1	19	[0, 0, 0]	n/a	FR1	0	R1334T
2826.705	3.524	2827804	REC_WORD	3.524	n/a	ELF	2	19	[0, 0, 0]	n/a	FR1	0	R1334T
2830.229	4.73	2831328	REC_WORD	4.73	n/a	MOUTH	3	19	[0, 0, 0]	n/a	FR1	0	R1334T
2834.959	19.5	2836058	REC_WORD	19.5	n/a	LEAK	-999	19	[0, 0, 0]	n/a	FR1	0	R1334T
2854.459	0.0	2855557	TRIAL_END	n/a	n/a	n/a	-999	19	[0, 0, 0]	n/a	FR1	0	R1334T
2854.459	0.014	2855557	REC_END	n/a	n/a	n/a	-999	19	[0, 0, 0]	n/a	FR1	0	R1334T
2854.473	0.001	2855571	TRIAL_START	n/a	n/a	n/a	-999	20	[0, 0, 0]	n/a	FR1	0	R1334T
2854.474	0.0	2855572	TRIAL	n/a	n/a	n/a	-999	20	[0, 0, 0]	n/a	FR1	0	R1334T
2854.474	4.38	2855572	WAITING_START	n/a	n/a	n/a	-999	20	[0, 0, 0]	n/a	FR1	0	R1334T
2858.854	0.0	2859952	WAITING_END	n/a	n/a	n/a	-999	20	[0, 0, 0]	n/a	FR1	0	R1334T
2858.854	10.429	2859952	COUNTDOWN_START	n/a	n/a	n/a	-999	20	[0, 0, 0]	n/a	FR1	0	R1334T
2869.283	0.0	2870380	COUNTDOWN_END	n/a	n/a	n/a	-999	20	[0, 0, 0]	n/a	FR1	0	R1334T
2869.283	1.223	2870380	ORIENT_START	n/a	n/a	n/a	-999	20	[0, 0, 0]	n/a	FR1	0	R1334T
2870.506	0.001	2871603	ORIENT_END	n/a	n/a	n/a	-999	20	[0, 0, 0]	n/a	FR1	0	R1334T
2870.507	1.046	2871604	ENCODING_START	n/a	n/a	n/a	-999	20	[0, 0, 0]	n/a	FR1	0	R1334T
2871.553	1.637	2872650	WORD	n/a	n/a	MAT	1	20	[0, 0, 0]	n/a	FR1	0	R1334T
2873.19	0.875	2874287	WORD_OFF	n/a	n/a	MAT	1	20	[0, 0, 0]	n/a	FR1	0	R1334T
2874.065	1.609	2875162	WORD	n/a	n/a	SWORD	2	20	[0, 0, 0]	n/a	FR1	0	R1334T
2875.674	0.827	2876771	WORD_OFF	n/a	n/a	SWORD	2	20	[0, 0, 0]	n/a	FR1	0	R1334T
2876.501	1.623	2877598	WORD	n/a	n/a	DRESS	3	20	[0, 0, 0]	n/a	FR1	0	R1334T
2878.124	0.93	2879221	WORD_OFF	n/a	n/a	DRESS	3	20	[0, 0, 0]	n/a	FR1	0	R1334T
2879.054	1.638	2880151	WORD	n/a	n/a	LAMB	4	20	[0, 0, 0]	n/a	FR1	0	R1334T
2880.692	1.103	2881789	WORD_OFF	n/a	n/a	LAMB	4	20	[0, 0, 0]	n/a	FR1	0	R1334T
2881.795	1.63	2882892	WORD	n/a	n/a	STRING	5	20	[0, 0, 0]	n/a	FR1	0	R1334T
2883.425	0.813	2884521	WORD_OFF	n/a	n/a	STRING	5	20	[0, 0, 0]	n/a	FR1	0	R1334T
2884.238	1.637	2885334	WORD	n/a	n/a	HOLE	6	20	[0, 0, 0]	n/a	FR1	0	R1334T
2885.875	0.793	2886971	WORD_OFF	n/a	n/a	HOLE	6	20	[0, 0, 0]	n/a	FR1	0	R1334T
2886.668	1.625	2887764	WORD	n/a	n/a	MOOSE	7	20	[0, 0, 0]	n/a	FR1	0	R1334T
2888.293	0.873	2889389	WORD_OFF	n/a	n/a	MOOSE	7	20	[0, 0, 0]	n/a	FR1	0	R1334T
2889.166	1.628	2890262	WORD	n/a	n/a	WEB	8	20	[0, 0, 0]	n/a	FR1	0	R1334T
2890.794	0.899	2891890	WORD_OFF	n/a	n/a	WEB	8	20	[0, 0, 0]	n/a	FR1	0	R1334T
2891.693	1.634	2892789	WORD	n/a	n/a	FACE	9	20	[0, 0, 0]	n/a	FR1	0	R1334T
2893.327	0.81	2894423	WORD_OFF	n/a	n/a	FACE	9	20	[0, 0, 0]	n/a	FR1	0	R1334T
2894.137	1.608	2895233	WORD	n/a	n/a	BOOK	10	20	[0, 0, 0]	n/a	FR1	0	R1334T
2895.745	1.018	2896841	WORD_OFF	n/a	n/a	BOOK	10	20	[0, 0, 0]	n/a	FR1	0	R1334T
2896.763	1.631	2897859	WORD	n/a	n/a	BOY	11	20	[0, 0, 0]	n/a	FR1	0	R1334T
2898.394	0.983	2899490	WORD_OFF	n/a	n/a	BOY	11	20	[0, 0, 0]	n/a	FR1	0	R1334T
2899.377	1.635	2900473	WORD	n/a	n/a	HORN	12	20	[0, 0, 0]	n/a	FR1	0	R1334T
2901.012	0.0	2902108	WORD_OFF	n/a	n/a	HORN	12	20	[0, 0, 0]	n/a	FR1	0	R1334T
2901.012	0.0	2902108	ENCODING_END	n/a	n/a	n/a	-999	20	[0, 0, 0]	n/a	FR1	0	R1334T
2901.012	0.001	2902108	DISTRACT_START	n/a	n/a	n/a	-999	20	[0, 0, 0]	n/a	FR1	0	R1334T
2901.013	0.015	2902109	START	n/a	n/a	n/a	-999	20	[-999, -999, -999]	n/a	FR1	0	R1334T
2901.028	4.451	2902124	PROB	4.451	n/a	n/a	-999	20	[1, 8, 7]	16	FR1	0	R1334T
2905.479	6.169	2906575	PROB	6.169	n/a	n/a	-999	20	[9, 9, 5]	23	FR1	0	R1334T
2911.648	4.266	2912743	PROB	4.266	n/a	n/a	-999	20	[1, 8, 6]	15	FR1	0	R1334T
2915.914	2.735	2917009	PROB	2.735	n/a	n/a	-999	20	[1, 7, 3]	11	FR1	0	R1334T
2918.649	5.447	2919744	PROB	5.447	n/a	n/a	-999	20	[9, 4, 9]	22	FR1	0	R1334T
2924.096	0.02	2925191	STOP	n/a	n/a	n/a	-999	20	[-999, -999, -999]	n/a	FR1	0	R1334T
2924.116	0.581	2925211	DISTRACT_END	n/a	n/a	n/a	-999	20	[0, 0, 0]	n/a	FR1	0	R1334T
2924.697	1.719	2925792	RETRIEVAL_ORIENT_START	n/a	n/a	n/a	-999	20	[0, 0, 0]	n/a	FR1	0	R1334T
2926.416	0.001	2927511	RETRIEVAL_ORIENT_END	n/a	n/a	n/a	-999	20	[0, 0, 0]	n/a	FR1	0	R1334T
2926.417	0.507	2927512	REC_START	n/a	n/a	n/a	-999	20	[0, 0, 0]	n/a	FR1	0	R1334T
2926.924	1.023	2928019	REC_WORD	1.023	n/a	MOOSE	7	20	[0, 0, 0]	n/a	FR1	0	R1334T
2927.947	3.136	2929042	REC_WORD	3.136	n/a	BOY	11	20	[0, 0, 0]	n/a	FR1	0	R1334T
2931.083	3.125	2932177	REC_WORD	3.125	n/a	STRING	5	20	[0, 0, 0]	n/a	FR1	0	R1334T
2934.208	22.218	2935302	REC_WORD	22.218	n/a	HOLE	6	20	[0, 0, 0]	n/a	FR1	0	R1334T
2956.426	0.0	2957519	REC_END	n/a	n/a	n/a	-999	20	[0, 0, 0]	n/a	FR1	0	R1334T
2956.426	0.016	2957519	TRIAL_END	n/a	n/a	n/a	-999	20	[0, 0, 0]	n/a	FR1	0	R1334T
2956.442	0.001	2957535	TRIAL_START	n/a	n/a	n/a	-999	21	[0, 0, 0]	n/a	FR1	0	R1334T
2956.443	0.0	2957536	WAITING_START	n/a	n/a	n/a	-999	21	[0, 0, 0]	n/a	FR1	0	R1334T
2956.443	2.213	2957536	TRIAL	n/a	n/a	n/a	-999	21	[0, 0, 0]	n/a	FR1	0	R1334T
2958.656	0.001	2959749	WAITING_END	n/a	n/a	n/a	-999	21	[0, 0, 0]	n/a	FR1	0	R1334T
2958.657	10.428	2959750	COUNTDOWN_START	n/a	n/a	n/a	-999	21	[0, 0, 0]	n/a	FR1	0	R1334T
2969.085	0.001	2970178	COUNTDOWN_END	n/a	n/a	n/a	-999	21	[0, 0, 0]	n/a	FR1	0	R1334T
2969.086	1.121	2970179	ORIENT_START	n/a	n/a	n/a	-999	21	[0, 0, 0]	n/a	FR1	0	R1334T
2970.207	0.001	2971300	ORIENT_END	n/a	n/a	n/a	-999	21	[0, 0, 0]	n/a	FR1	0	R1334T
2970.208	0.912	2971301	ENCODING_START	n/a	n/a	n/a	-999	21	[0, 0, 0]	n/a	FR1	0	R1334T
2971.12	1.622	2972213	WORD	n/a	n/a	PIPE	1	21	[0, 0, 0]	n/a	FR1	0	R1334T
2972.742	0.915	2973835	WORD_OFF	n/a	n/a	PIPE	1	21	[0, 0, 0]	n/a	FR1	0	R1334T
2973.657	1.635	2974750	WORD	n/a	n/a	MOON	2	21	[0, 0, 0]	n/a	FR1	0	R1334T
2975.292	0.943	2976385	WORD_OFF	n/a	n/a	MOON	2	21	[0, 0, 0]	n/a	FR1	0	R1334T
2976.235	1.624	2977327	WORD	n/a	n/a	BEAN	3	21	[0, 0, 0]	n/a	FR1	0	R1334T
2977.859	0.988	2978951	WORD_OFF	n/a	n/a	BEAN	3	21	[0, 0, 0]	n/a	FR1	0	R1334T
2978.847	1.629	2979939	WORD	n/a	n/a	FOAM	4	21	[0, 0, 0]	n/a	FR1	0	R1334T
2980.476	1.07	2981568	WORD_OFF	n/a	n/a	FOAM	4	21	[0, 0, 0]	n/a	FR1	0	R1334T
2981.546	1.63	2982638	WORD	n/a	n/a	NET	5	21	[0, 0, 0]	n/a	FR1	0	R1334T
2983.176	0.981	2984268	WORD_OFF	n/a	n/a	NET	5	21	[0, 0, 0]	n/a	FR1	0	R1334T
2984.157	1.621	2985249	WORD	n/a	n/a	HAT	6	21	[0, 0, 0]	n/a	FR1	0	R1334T
2985.778	0.912	2986870	WORD_OFF	n/a	n/a	HAT	6	21	[0, 0, 0]	n/a	FR1	0	R1334T
2986.69	1.621	2987782	WORD	n/a	n/a	EAR	7	21	[0, 0, 0]	n/a	FR1	0	R1334T
2988.311	0.973	2989403	WORD_OFF	n/a	n/a	EAR	7	21	[0, 0, 0]	n/a	FR1	0	R1334T
2989.284	1.627	2990376	WORD	n/a	n/a	FROG	8	21	[0, 0, 0]	n/a	FR1	0	R1334T
2990.911	1.057	2992003	WORD_OFF	n/a	n/a	FROG	8	21	[0, 0, 0]	n/a	FR1	0	R1334T
2991.968	1.628	2993060	WORD	n/a	n/a	JEEP	9	21	[0, 0, 0]	n/a	FR1	0	R1334T
2993.596	1.102	2994688	WORD_OFF	n/a	n/a	JEEP	9	21	[0, 0, 0]	n/a	FR1	0	R1334T
2994.698	1.631	2995790	WORD	n/a	n/a	OAR	10	21	[0, 0, 0]	n/a	FR1	0	R1334T
2996.329	0.943	2997421	WORD_OFF	n/a	n/a	OAR	10	21	[0, 0, 0]	n/a	FR1	0	R1334T
2997.272	1.624	2998364	WORD	n/a	n/a	ROOF	11	21	[0, 0, 0]	n/a	FR1	0	R1334T
2998.896	1.05	2999988	WORD_OFF	n/a	n/a	ROOF	11	21	[0, 0, 0]	n/a	FR1	0	R1334T
2999.946	1.635	3001037	WORD	n/a	n/a	GATE	12	21	[0, 0, 0]	n/a	FR1	0	R1334T
3001.581	0.0	3002672	WORD_OFF	n/a	n/a	GATE	12	21	[0, 0, 0]	n/a	FR1	0	R1334T
3001.581	0.0	3002672	ENCODING_END	n/a	n/a	n/a	-999	21	[0, 0, 0]	n/a	FR1	0	R1334T
3001.581	0.001	3002672	DISTRACT_START	n/a	n/a	n/a	-999	21	[0, 0, 0]	n/a	FR1	0	R1334T
3001.582	0.015	3002673	START	n/a	n/a	n/a	-999	21	[-999, -999, -999]	n/a	FR1	0	R1334T
3001.597	4.833	3002688	PROB	4.833	n/a	n/a	-999	21	[5, 5, 8]	18	FR1	0	R1334T
3006.43	4.435	3007521	PROB	4.435	n/a	n/a	-999	21	[6, 5, 8]	19	FR1	0	R1334T
3010.865	3.4	3011956	PROB	3.4	n/a	n/a	-999	21	[4, 7, 3]	14	FR1	0	R1334T
3014.265	3.634	3015356	PROB	3.634	n/a	n/a	-999	21	[9, 5, 1]	15	FR1	0	R1334T
3017.899	7.19	3018990	PROB	7.19	n/a	n/a	-999	21	[9, 6, 7]	23	FR1	0	R1334T
3025.089	0.012	3026179	STOP	n/a	n/a	n/a	-999	21	[-999, -999, -999]	n/a	FR1	0	R1334T
3025.101	0.512	3026191	DISTRACT_END	n/a	n/a	n/a	-999	21	[0, 0, 0]	n/a	FR1	0	R1334T
3025.613	1.605	3026703	RETRIEVAL_ORIENT_START	n/a	n/a	n/a	-999	21	[0, 0, 0]	n/a	FR1	0	R1334T
3027.218	0.0	3028308	REC_START	n/a	n/a	n/a	-999	21	[0, 0, 0]	n/a	FR1	0	R1334T
3027.218	0.587	3028308	RETRIEVAL_ORIENT_END	n/a	n/a	n/a	-999	21	[0, 0, 0]	n/a	FR1	0	R1334T
3027.805	1.717	3028895	REC_WORD	1.717	n/a	PIPE	1	21	[0, 0, 0]	n/a	FR1	0	R1334T
3029.522	10.92	3030612	REC_WORD	10.92	n/a	EAR	7	21	[0, 0, 0]	n/a	FR1	0	R1334T
3040.442	6.534	3041532	REC_WORD	6.534	n/a	POOL	-999	21	[0, 0, 0]	n/a	FR1	0	R1334T
3046.976	7.334	3048065	REC_WORD	7.334	n/a	LOOP	-999	21	[0, 0, 0]	n/a	FR1	0	R1334T
3054.31	2.92	3055399	REC_WORD	2.92	n/a	BOY	-999	21	[0, 0, 0]	n/a	FR1	0	R1334T
3057.23	0.0	3058319	REC_END	n/a	n/a	n/a	-999	21	[0, 0, 0]	n/a	FR1	0	R1334T
3057.23	0.014	3058319	TRIAL_END	n/a	n/a	n/a	-999	21	[0, 0, 0]	n/a	FR1	0	R1334T
3057.244	0.0	3058333	WAITING_START	n/a	n/a	n/a	-999	22	[0, 0, 0]	n/a	FR1	0	R1334T
3057.244	0.0	3058333	TRIAL_START	n/a	n/a	n/a	-999	22	[0, 0, 0]	n/a	FR1	0	R1334T
3057.244	2.947	3058333	TRIAL	n/a	n/a	n/a	-999	22	[0, 0, 0]	n/a	FR1	0	R1334T
3060.191	0.0	3061280	WAITING_END	n/a	n/a	n/a	-999	22	[0, 0, 0]	n/a	FR1	0	R1334T
3060.191	10.429	3061280	COUNTDOWN_START	n/a	n/a	n/a	-999	22	[0, 0, 0]	n/a	FR1	0	R1334T
3070.62	0.001	3071708	COUNTDOWN_END	n/a	n/a	n/a	-999	22	[0, 0, 0]	n/a	FR1	0	R1334T
3070.621	1.189	3071709	ORIENT_START	n/a	n/a	n/a	-999	22	[0, 0, 0]	n/a	FR1	0	R1334T
3071.81	0.001	3072898	ORIENT_END	n/a	n/a	n/a	-999	22	[0, 0, 0]	n/a	FR1	0	R1334T
3071.811	0.799	3072899	ENCODING_START	n/a	n/a	n/a	-999	22	[0, 0, 0]	n/a	FR1	0	R1334T
3072.61	1.633	3073698	WORD	n/a	n/a	SEAL	1	22	[0, 0, 0]	n/a	FR1	0	R1334T
3074.243	1.129	3075331	WORD_OFF	n/a	n/a	SEAL	1	22	[0, 0, 0]	n/a	FR1	0	R1334T
3075.372	1.622	3076460	WORD	n/a	n/a	BAT	2	22	[0, 0, 0]	n/a	FR1	0	R1334T
3076.994	1.119	3078082	WORD_OFF	n/a	n/a	BAT	2	22	[0, 0, 0]	n/a	FR1	0	R1334T
3078.113	1.632	3079201	WORD	n/a	n/a	CUP	3	22	[0, 0, 0]	n/a	FR1	0	R1334T
3079.745	0.811	3080833	WORD_OFF	n/a	n/a	CUP	3	22	[0, 0, 0]	n/a	FR1	0	R1334T
3080.556	1.622	3081644	WORD	n/a	n/a	TOAD	4	22	[0, 0, 0]	n/a	FR1	0	R1334T
3082.178	0.812	3083266	WORD_OFF	n/a	n/a	TOAD	4	22	[0, 0, 0]	n/a	FR1	0	R1334T
3082.99	1.639	3084078	WORD	n/a	n/a	SNOW	5	22	[0, 0, 0]	n/a	FR1	0	R1334T
3084.629	1.0	3085717	WORD_OFF	n/a	n/a	SNOW	5	22	[0, 0, 0]	n/a	FR1	0	R1334T
3085.629	1.633	3086717	WORD	n/a	n/a	DART	6	22	[0, 0, 0]	n/a	FR1	0	R1334T
3087.262	1.081	3088350	WORD_OFF	n/a	n/a	DART	6	22	[0, 0, 0]	n/a	FR1	0	R1334T
3088.343	1.636	3089431	WORD	n/a	n/a	DIME	7	22	[0, 0, 0]	n/a	FR1	0	R1334T
3089.979	1.116	3091067	WORD_OFF	n/a	n/a	DIME	7	22	[0, 0, 0]	n/a	FR1	0	R1334T
3091.095	1.636	3092183	WORD	n/a	n/a	BOMB	8	22	[0, 0, 0]	n/a	FR1	0	R1334T
3092.731	1.044	3093819	WORD_OFF	n/a	n/a	BOMB	8	22	[0, 0, 0]	n/a	FR1	0	R1334T
3093.775	1.622	3094862	WORD	n/a	n/a	SHIELD	9	22	[0, 0, 0]	n/a	FR1	0	R1334T
3095.397	0.828	3096484	WORD_OFF	n/a	n/a	SHIELD	9	22	[0, 0, 0]	n/a	FR1	0	R1334T
3096.225	1.607	3097312	WORD	n/a	n/a	SKI	10	22	[0, 0, 0]	n/a	FR1	0	R1334T
3097.832	1.036	3098919	WORD_OFF	n/a	n/a	SKI	10	22	[0, 0, 0]	n/a	FR1	0	R1334T
3098.868	1.63	3099955	WORD	n/a	n/a	SWAMP	11	22	[0, 0, 0]	n/a	FR1	0	R1334T
3100.498	0.8	3101585	WORD_OFF	n/a	n/a	SWAMP	11	22	[0, 0, 0]	n/a	FR1	0	R1334T
3101.298	1.634	3102385	WORD	n/a	n/a	WAVE	12	22	[0, 0, 0]	n/a	FR1	0	R1334T
3102.932	0.0	3104019	WORD_OFF	n/a	n/a	WAVE	12	22	[0, 0, 0]	n/a	FR1	0	R1334T
3102.932	0.0	3104019	ENCODING_END	n/a	n/a	n/a	-999	22	[0, 0, 0]	n/a	FR1	0	R1334T
3102.932	0.001	3104019	DISTRACT_START	n/a	n/a	n/a	-999	22	[0, 0, 0]	n/a	FR1	0	R1334T
3102.933	0.015	3104020	START	n/a	n/a	n/a	-999	22	[-999, -999, -999]	n/a	FR1	0	R1334T
3102.948	6.468	3104035	PROB	6.468	n/a	n/a	-999	22	[9, 9, 3]	21	FR1	0	R1334T
3109.416	5.418	3110503	PROB	5.418	n/a	n/a	-999	22	[9, 8, 5]	23	FR1	0	R1334T
3114.834	5.702	3115921	PROB	5.702	n/a	n/a	-999	22	[4, 9, 2]	15	FR1	0	R1334T
3120.536	3.797	3121622	PROB	3.797	n/a	n/a	-999	22	[6, 2, 8]	16	FR1	0	R1334T
3124.333	0.019	3125419	STOP	n/a	n/a	n/a	-999	22	[-999, -999, -999]	n/a	FR1	0	R1334T
3124.352	0.699	3125438	DISTRACT_END	n/a	n/a	n/a	-999	22	[0, 0, 0]	n/a	FR1	0	R1334T
3125.051	1.586	3126137	RETRIEVAL_ORIENT_START	n/a	n/a	n/a	-999	22	[0, 0, 0]	n/a	FR1	0	R1334T
3126.637	0.0	3127723	REC_START	n/a	n/a	n/a	-999	22	[0, 0, 0]	n/a	FR1	0	R1334T
3126.637	0.619	3127723	RETRIEVAL_ORIENT_END	n/a	n/a	n/a	-999	22	[0, 0, 0]	n/a	FR1	0	R1334T
3127.256	1.495	3128342	REC_WORD	1.495	n/a	SEAL	1	22	[0, 0, 0]	n/a	FR1	0	R1334T
3128.751	27.896	3129837	REC_WORD	27.896	n/a	SKY	-999	22	[0, 0, 0]	n/a	FR1	0	R1334T
3156.647	0.0	3157732	REC_END	n/a	n/a	n/a	-999	22	[0, 0, 0]	n/a	FR1	0	R1334T
3156.647	0.014	3157732	TRIAL_END	n/a	n/a	n/a	-999	22	[0, 0, 0]	n/a	FR1	0	R1334T
3156.661	0.001	3157746	TRIAL_START	n/a	n/a	n/a	-999	23	[0, 0, 0]	n/a	FR1	0	R1334T
3156.662	0.0	3157747	WAITING_START	n/a	n/a	n/a	-999	23	[0, 0, 0]	n/a	FR1	0	R1334T
3156.662	2.914	3157747	TRIAL	n/a	n/a	n/a	-999	23	[0, 0, 0]	n/a	FR1	0	R1334T
3159.576	0.001	3160661	WAITING_END	n/a	n/a	n/a	-999	23	[0, 0, 0]	n/a	FR1	0	R1334T
3159.577	10.429	3160662	COUNTDOWN_START	n/a	n/a	n/a	-999	23	[0, 0, 0]	n/a	FR1	0	R1334T
3170.006	0.0	3171090	COUNTDOWN_END	n/a	n/a	n/a	-999	23	[0, 0, 0]	n/a	FR1	0	R1334T
3170.006	1.088	3171090	ORIENT_START	n/a	n/a	n/a	-999	23	[0, 0, 0]	n/a	FR1	0	R1334T
3171.094	0.001	3172178	ORIENT_END	n/a	n/a	n/a	-999	23	[0, 0, 0]	n/a	FR1	0	R1334T
3171.095	0.794	3172179	ENCODING_START	n/a	n/a	n/a	-999	23	[0, 0, 0]	n/a	FR1	0	R1334T
3171.889	1.639	3172973	WORD	n/a	n/a	SHEET	1	23	[0, 0, 0]	n/a	FR1	0	R1334T
3173.528	0.93	3174612	WORD_OFF	n/a	n/a	SHEET	1	23	[0, 0, 0]	n/a	FR1	0	R1334T
3174.458	1.637	3175542	WORD	n/a	n/a	JUDGE	2	23	[0, 0, 0]	n/a	FR1	0	R1334T
3176.095	1.001	3177179	WORD_OFF	n/a	n/a	JUDGE	2	23	[0, 0, 0]	n/a	FR1	0	R1334T
3177.096	1.634	3178180	WORD	n/a	n/a	STORM	3	23	[0, 0, 0]	n/a	FR1	0	R1334T
3178.73	0.985	3179814	WORD_OFF	n/a	n/a	STORM	3	23	[0, 0, 0]	n/a	FR1	0	R1334T
3179.715	1.631	3180799	WORD	n/a	n/a	JET	4	23	[0, 0, 0]	n/a	FR1	0	R1334T
3181.346	0.778	3182430	WORD_OFF	n/a	n/a	JET	4	23	[0, 0, 0]	n/a	FR1	0	R1334T
3182.124	1.64	3183208	WORD	n/a	n/a	PEACH	5	23	[0, 0, 0]	n/a	FR1	0	R1334T
3183.764	0.893	3184848	WORD_OFF	n/a	n/a	PEACH	5	23	[0, 0, 0]	n/a	FR1	0	R1334T
3184.657	1.623	3185741	WORD	n/a	n/a	FLEA	6	23	[0, 0, 0]	n/a	FR1	0	R1334T
3186.28	0.832	3187364	WORD_OFF	n/a	n/a	FLEA	6	23	[0, 0, 0]	n/a	FR1	0	R1334T
3187.112	1.636	3188195	WORD	n/a	n/a	STEM	7	23	[0, 0, 0]	n/a	FR1	0	R1334T
3188.748	0.764	3189831	WORD_OFF	n/a	n/a	STEM	7	23	[0, 0, 0]	n/a	FR1	0	R1334T
3189.512	1.636	3190595	WORD	n/a	n/a	GLOVE	8	23	[0, 0, 0]	n/a	FR1	0	R1334T
3191.148	1.068	3192231	WORD_OFF	n/a	n/a	GLOVE	8	23	[0, 0, 0]	n/a	FR1	0	R1334T
3192.216	1.632	3193299	WORD	n/a	n/a	WHALE	9	23	[0, 0, 0]	n/a	FR1	0	R1334T
3193.848	0.92	3194931	WORD_OFF	n/a	n/a	WHALE	9	23	[0, 0, 0]	n/a	FR1	0	R1334T
3194.768	1.631	3195851	WORD	n/a	n/a	CAGE	10	23	[0, 0, 0]	n/a	FR1	0	R1334T
3196.399	0.979	3197482	WORD_OFF	n/a	n/a	CAGE	10	23	[0, 0, 0]	n/a	FR1	0	R1334T
3197.378	1.621	3198461	WORD	n/a	n/a	PEN	11	23	[0, 0, 0]	n/a	FR1	0	R1334T
3198.999	0.938	3200082	WORD_OFF	n/a	n/a	PEN	11	23	[0, 0, 0]	n/a	FR1	0	R1334T
3199.937	1.613	3201020	WORD	n/a	n/a	SHELL	12	23	[0, 0, 0]	n/a	FR1	0	R1334T
3201.55	0.001	3202633	WORD_OFF	n/a	n/a	SHELL	12	23	[0, 0, 0]	n/a	FR1	0	R1334T
3201.551	0.0	3202634	ENCODING_END	n/a	n/a	n/a	-999	23	[0, 0, 0]	n/a	FR1	0	R1334T
3201.551	0.0	3202634	DISTRACT_START	n/a	n/a	n/a	-999	23	[0, 0, 0]	n/a	FR1	0	R1334T
3201.551	0.016	3202634	START	n/a	n/a	n/a	-999	23	[-999, -999, -999]	n/a	FR1	0	R1334T
3201.567	6.151	3202650	PROB	6.151	n/a	n/a	-999	23	[4, 4, 4]	12	FR1	0	R1334T
3207.718	8.184	3208801	PROB	8.184	n/a	n/a	-999	23	[4, 2, 7]	13	FR1	0	R1334T
3215.902	3.635	3216984	PROB	3.635	n/a	n/a	-999	23	[1, 1, 6]	8	FR1	0	R1334T
3219.537	3.825	3220619	PROB	3.825	n/a	n/a	-999	23	[4, 9, 1]	14	FR1	0	R1334T
3223.362	0.008	3224444	STOP	n/a	n/a	n/a	-999	23	[-999, -999, -999]	n/a	FR1	0	R1334T
3223.37	0.51	3224452	DISTRACT_END	n/a	n/a	n/a	-999	23	[0, 0, 0]	n/a	FR1	0	R1334T
3223.88	1.557	3224962	RETRIEVAL_ORIENT_START	n/a	n/a	n/a	-999	23	[0, 0, 0]	n/a	FR1	0	R1334T
3225.437	0.001	3226519	RETRIEVAL_ORIENT_END	n/a	n/a	n/a	-999	23	[0, 0, 0]	n/a	FR1	0	R1334T
3225.438	1.1	3226520	REC_START	n/a	n/a	n/a	-999	23	[0, 0, 0]	n/a	FR1	0	R1334T
3226.538	1.927	3227620	REC_WORD	1.927	n/a	SHELL	12	23	[0, 0, 0]	n/a	FR1	0	R1334T
3228.465	2.969	3229547	REC_WORD	2.969	n/a	CAGE	10	23	[0, 0, 0]	n/a	FR1	0	R1334T
3231.434	24.015	3232516	REC_WORD	24.015	n/a	JUDGE	2	23	[0, 0, 0]	n/a	FR1	0	R1334T
3255.449	0.0	3256530	REC_END	n/a	n/a	n/a	-999	23	[0, 0, 0]	n/a	FR1	0	R1334T
3255.449	0.014	3256530	TRIAL_END	n/a	n/a	n/a	-999	23	[0, 0, 0]	n/a	FR1	0	R1334T
3255.463	0.0	3256544	TRIAL_START	n/a	n/a	n/a	-999	24	[0, 0, 0]	n/a	FR1	0	R1334T
3255.463	0.0	3256544	TRIAL	n/a	n/a	n/a	-999	24	[0, 0, 0]	n/a	FR1	0	R1334T
3255.463	2.414	3256544	WAITING_START	n/a	n/a	n/a	-999	24	[0, 0, 0]	n/a	FR1	0	R1334T
3257.877	0.0	3258957	WAITING_END	n/a	n/a	n/a	-999	24	[0, 0, 0]	n/a	FR1	0	R1334T
3257.877	10.428	3258957	COUNTDOWN_START	n/a	n/a	n/a	-999	24	[0, 0, 0]	n/a	FR1	0	R1334T
3268.305	0.001	3269385	COUNTDOWN_END	n/a	n/a	n/a	-999	24	[0, 0, 0]	n/a	FR1	0	R1334T
3268.306	1.223	3269386	ORIENT_START	n/a	n/a	n/a	-999	24	[0, 0, 0]	n/a	FR1	0	R1334T
3269.529	0.0	3270609	ORIENT_END	n/a	n/a	n/a	-999	24	[0, 0, 0]	n/a	FR1	0	R1334T
3269.529	0.823	3270609	ENCODING_START	n/a	n/a	n/a	-999	24	[0, 0, 0]	n/a	FR1	0	R1334T
3270.352	1.627	3271432	WORD	n/a	n/a	CHALK	1	24	[0, 0, 0]	n/a	FR1	0	R1334T
3271.979	1.042	3273059	WORD_OFF	n/a	n/a	CHALK	1	24	[0, 0, 0]	n/a	FR1	0	R1334T
3273.021	1.609	3274101	WORD	n/a	n/a	FORT	2	24	[0, 0, 0]	n/a	FR1	0	R1334T
3274.63	0.919	3275710	WORD_OFF	n/a	n/a	FORT	2	24	[0, 0, 0]	n/a	FR1	0	R1334T
3275.549	1.631	3276629	WORD	n/a	n/a	VINE	3	24	[0, 0, 0]	n/a	FR1	0	R1334T
3277.18	1.115	3278260	WORD_OFF	n/a	n/a	VINE	3	24	[0, 0, 0]	n/a	FR1	0	R1334T
3278.295	1.636	3279375	WORD	n/a	n/a	SEAT	4	24	[0, 0, 0]	n/a	FR1	0	R1334T
3279.931	0.92	3281011	WORD_OFF	n/a	n/a	SEAT	4	24	[0, 0, 0]	n/a	FR1	0	R1334T
3280.851	1.63	3281930	WORD	n/a	n/a	POND	5	24	[0, 0, 0]	n/a	FR1	0	R1334T
3282.481	1.125	3283560	WORD_OFF	n/a	n/a	POND	5	24	[0, 0, 0]	n/a	FR1	0	R1334T
3283.606	1.625	3284685	WORD	n/a	n/a	COUCH	6	24	[0, 0, 0]	n/a	FR1	0	R1334T
3285.231	1.021	3286310	WORD_OFF	n/a	n/a	COUCH	6	24	[0, 0, 0]	n/a	FR1	0	R1334T
3286.252	1.63	3287331	WORD	n/a	n/a	HAND	7	24	[0, 0, 0]	n/a	FR1	0	R1334T
3287.882	0.986	3288961	WORD_OFF	n/a	n/a	HAND	7	24	[0, 0, 0]	n/a	FR1	0	R1334T
3288.868	1.631	3289947	WORD	n/a	n/a	JUICE	8	24	[0, 0, 0]	n/a	FR1	0	R1334T
3290.499	0.951	3291578	WORD_OFF	n/a	n/a	JUICE	8	24	[0, 0, 0]	n/a	FR1	0	R1334T
3291.45	1.633	3292529	WORD	n/a	n/a	BEAR	9	24	[0, 0, 0]	n/a	FR1	0	R1334T
3293.083	0.796	3294162	WORD_OFF	n/a	n/a	BEAR	9	24	[0, 0, 0]	n/a	FR1	0	R1334T
3293.879	1.638	3294958	WORD	n/a	n/a	SHEEP	10	24	[0, 0, 0]	n/a	FR1	0	R1334T
3295.517	1.04	3296596	WORD_OFF	n/a	n/a	SHEEP	10	24	[0, 0, 0]	n/a	FR1	0	R1334T
3296.557	1.627	3297636	WORD	n/a	n/a	DOOR	11	24	[0, 0, 0]	n/a	FR1	0	R1334T
3298.184	1.146	3299263	WORD_OFF	n/a	n/a	DOOR	11	24	[0, 0, 0]	n/a	FR1	0	R1334T
3299.33	1.621	3300409	WORD	n/a	n/a	ROSE	12	24	[0, 0, 0]	n/a	FR1	0	R1334T
3300.951	0.001	3302030	WORD_OFF	n/a	n/a	ROSE	12	24	[0, 0, 0]	n/a	FR1	0	R1334T
3300.952	0.0	3302031	ENCODING_END	n/a	n/a	n/a	-999	24	[0, 0, 0]	n/a	FR1	0	R1334T
3300.952	0.0	3302031	DISTRACT_START	n/a	n/a	n/a	-999	24	[0, 0, 0]	n/a	FR1	0	R1334T
3300.952	0.015	3302031	START	n/a	n/a	n/a	-999	24	[-999, -999, -999]	n/a	FR1	0	R1334T
3300.967	5.885	3302046	PROB	5.885	n/a	n/a	-999	24	[7, 6, 4]	17	FR1	0	R1334T
3306.852	2.785	3307930	PROB	2.785	n/a	n/a	-999	24	[1, 1, 3]	5	FR1	0	R1334T
