onset	duration	sample	trial_type	response_time	stim_file	item_name	serialpos	list	test	answer	experiment	session	subject
0.0	133.22	657	INSTRUCT_START	n/a	n/a	n/a	-999	-999	[0, 0, 0]	n/a	FR1	1	R1316T
133.22	4.467	133871	INSTRUCT_END	n/a	n/a	n/a	-999	-999	[0, 0, 0]	n/a	FR1	1	R1316T
137.687	11.111	138338	MIC TEST_START	n/a	n/a	n/a	-999	-999	[0, 0, 0]	n/a	FR1	1	R1316T
148.798	0.009	149449	MIC TEST_END	n/a	n/a	n/a	-999	-999	[0, 0, 0]	n/a	FR1	1	R1316T
148.807	0.0	149458	TRIAL_START	n/a	n/a	n/a	-999	-1	[0, 0, 0]	n/a	FR1	1	R1316T
148.807	0.0	149458	TRIAL	n/a	n/a	n/a	-999	-1	[0, 0, 0]	n/a	FR1	1	R1316T
148.807	14.618	149458	WAITING_START	n/a	n/a	n/a	-999	-1	[0, 0, 0]	n/a	FR1	1	R1316T
163.425	0.001	164075	WAITING_END	n/a	n/a	n/a	-999	-1	[0, 0, 0]	n/a	FR1	1	R1316T
163.426	10.429	164076	COUNTDOWN_START	n/a	n/a	n/a	-999	-1	[0, 0, 0]	n/a	FR1	1	R1316T
173.855	0.0	174505	COUNTDOWN_END	n/a	n/a	n/a	-999	-1	[0, 0, 0]	n/a	FR1	1	R1316T
173.855	1.138	174505	ORIENT_START	n/a	n/a	n/a	-999	-1	[0, 0, 0]	n/a	FR1	1	R1316T
174.993	0.0	175642	ENCODING_START	n/a	n/a	n/a	-999	-1	[0, 0, 0]	n/a	FR1	1	R1316T
174.993	0.922	175642	ORIENT_END	n/a	n/a	n/a	-999	-1	[0, 0, 0]	n/a	FR1	1	R1316T
175.915	1.613	176564	WORD	n/a	n/a	COTTON	1	-1	[0, 0, 0]	n/a	FR1	1	R1316T
177.528	1.049	178177	WORD_OFF	n/a	n/a	COTTON	1	-1	[0, 0, 0]	n/a	FR1	1	R1316T
178.577	1.635	179226	WORD	n/a	n/a	WAGON	2	-1	[0, 0, 0]	n/a	FR1	1	R1316T
180.212	1.039	180861	WORD_OFF	n/a	n/a	WAGON	2	-1	[0, 0, 0]	n/a	FR1	1	R1316T
181.251	1.627	181900	WORD	n/a	n/a	CAMEL	3	-1	[0, 0, 0]	n/a	FR1	1	R1316T
182.878	0.794	183527	WORD_OFF	n/a	n/a	CAMEL	3	-1	[0, 0, 0]	n/a	FR1	1	R1316T
183.672	1.624	184321	WORD	n/a	n/a	WATCH	4	-1	[0, 0, 0]	n/a	FR1	1	R1316T
185.296	1.043	185945	WORD_OFF	n/a	n/a	WATCH	4	-1	[0, 0, 0]	n/a	FR1	1	R1316T
186.339	1.623	186988	WORD	n/a	n/a	RHINO	5	-1	[0, 0, 0]	n/a	FR1	1	R1316T
187.962	0.934	188611	WORD_OFF	n/a	n/a	RHINO	5	-1	[0, 0, 0]	n/a	FR1	1	R1316T
188.896	1.634	189545	WORD	n/a	n/a	FLOOD	6	-1	[0, 0, 0]	n/a	FR1	1	R1316T
190.53	1.131	191179	WORD_OFF	n/a	n/a	FLOOD	6	-1	[0, 0, 0]	n/a	FR1	1	R1316T
191.661	1.637	192310	WORD	n/a	n/a	BEAM	7	-1	[0, 0, 0]	n/a	FR1	1	R1316T
193.298	0.809	193947	WORD_OFF	n/a	n/a	BEAM	7	-1	[0, 0, 0]	n/a	FR1	1	R1316T
194.107	1.623	194756	WORD	n/a	n/a	TONGUE	8	-1	[0, 0, 0]	n/a	FR1	1	R1316T
195.73	0.996	196379	WORD_OFF	n/a	n/a	TONGUE	8	-1	[0, 0, 0]	n/a	FR1	1	R1316T
196.726	1.639	197375	WORD	n/a	n/a	CHEST	9	-1	[0, 0, 0]	n/a	FR1	1	R1316T
198.365	1.043	199014	WORD_OFF	n/a	n/a	CHEST	9	-1	[0, 0, 0]	n/a	FR1	1	R1316T
199.408	1.624	200056	WORD	n/a	n/a	IMAGE	10	-1	[0, 0, 0]	n/a	FR1	1	R1316T
201.032	0.884	201680	WORD_OFF	n/a	n/a	IMAGE	10	-1	[0, 0, 0]	n/a	FR1	1	R1316T
201.916	1.633	202564	WORD	n/a	n/a	BABY	11	-1	[0, 0, 0]	n/a	FR1	1	R1316T
203.549	1.098	204197	WORD_OFF	n/a	n/a	BABY	11	-1	[0, 0, 0]	n/a	FR1	1	R1316T
204.647	1.619	205295	WORD	n/a	n/a	RING	12	-1	[0, 0, 0]	n/a	FR1	1	R1316T
206.266	0.001	206914	WORD_OFF	n/a	n/a	RING	12	-1	[0, 0, 0]	n/a	FR1	1	R1316T
206.267	0.0	206915	ENCODING_END	n/a	n/a	n/a	-999	-1	[0, 0, 0]	n/a	FR1	1	R1316T
206.267	0.0	206915	DISTRACT_START	n/a	n/a	n/a	-999	-1	[0, 0, 0]	n/a	FR1	1	R1316T
206.267	0.016	206915	START	n/a	n/a	n/a	-999	-1	[-999, -999, -999]	n/a	FR1	1	R1316T
206.283	4.717	206931	PROB	4.717	n/a	n/a	-999	-1	[3, 6, 1]	10	FR1	1	R1316T
211.0	4.001	211648	PROB	4.001	n/a	n/a	-999	-1	[5, 2, 8]	15	FR1	1	R1316T
215.001	3.467	215649	PROB	3.467	n/a	n/a	-999	-1	[3, 3, 1]	7	FR1	1	R1316T
218.468	4.384	219116	PROB	4.384	n/a	n/a	-999	-1	[6, 7, 8]	21	FR1	1	R1316T
222.852	3.351	223499	PROB	3.351	n/a	n/a	-999	-1	[2, 1, 8]	11	FR1	1	R1316T
226.203	3.296	226850	PROB	3.296	n/a	n/a	-999	-1	[1, 9, 5]	15	FR1	1	R1316T
229.499	0.022	230146	STOP	n/a	n/a	n/a	-999	-1	[-999, -999, -999]	n/a	FR1	1	R1316T
229.521	0.661	230168	DISTRACT_END	n/a	n/a	n/a	-999	-1	[0, 0, 0]	n/a	FR1	1	R1316T
230.182	1.588	230829	RETRIEVAL_ORIENT_START	n/a	n/a	n/a	-999	-1	[0, 0, 0]	n/a	FR1	1	R1316T
231.77	0.0	232417	RETRIEVAL_ORIENT_END	n/a	n/a	n/a	-999	-1	[0, 0, 0]	n/a	FR1	1	R1316T
231.77	2.069	232417	REC_START	n/a	n/a	n/a	-999	-1	[0, 0, 0]	n/a	FR1	1	R1316T
233.839	0.953	234486	REC_WORD	0.953	n/a	COTTON	-999	-1	[0, 0, 0]	n/a	FR1	1	R1316T
234.792	0.924	235439	REC_WORD	0.924	n/a	WAGON	-999	-1	[0, 0, 0]	n/a	FR1	1	R1316T
235.716	1.194	236363	REC_WORD	1.194	n/a	CAMEL	-999	-1	[0, 0, 0]	n/a	FR1	1	R1316T
236.91	1.073	237557	REC_WORD	1.073	n/a	IMAGE	-999	-1	[0, 0, 0]	n/a	FR1	1	R1316T
237.983	1.327	238630	REC_WORD	1.327	n/a	RHINO	-999	-1	[0, 0, 0]	n/a	FR1	1	R1316T
239.31	1.1	239957	REC_WORD	1.1	n/a	BABY	-999	-1	[0, 0, 0]	n/a	FR1	1	R1316T
240.41	4.619	241057	REC_WORD	4.619	n/a	RING	-999	-1	[0, 0, 0]	n/a	FR1	1	R1316T
245.029	1.863	245676	REC_WORD	1.863	n/a	TONGUE	-999	-1	[0, 0, 0]	n/a	FR1	1	R1316T
246.892	9.0	247539	REC_WORD	9.0	n/a	CHEST	-999	-1	[0, 0, 0]	n/a	FR1	1	R1316T
255.892	5.89	256538	REC_WORD_VV	5.89	n/a	<>	-999	-1	[0, 0, 0]	n/a	FR1	1	R1316T
261.782	0.001	262428	REC_END	n/a	n/a	n/a	-999	-1	[0, 0, 0]	n/a	FR1	1	R1316T
261.783	39.818	262429	PRACTICE_POST_INSTRUCT_START	n/a	n/a	n/a	-999	-1	[0, 0, 0]	n/a	FR1	1	R1316T
301.601	0.0	302245	PRACTICE_POST_INSTRUCT_END	n/a	n/a	n/a	-999	-1	[0, 0, 0]	n/a	FR1	1	R1316T
301.601	0.017	302245	TRIAL_END	n/a	n/a	n/a	-999	-1	[0, 0, 0]	n/a	FR1	1	R1316T
301.618	0.0	302262	TRIAL	n/a	n/a	n/a	-999	1	[0, 0, 0]	n/a	FR1	1	R1316T
301.618	0.0	302262	WAITING_START	n/a	n/a	n/a	-999	1	[0, 0, 0]	n/a	FR1	1	R1316T
301.618	5.567	302262	TRIAL_START	n/a	n/a	n/a	-999	1	[0, 0, 0]	n/a	FR1	1	R1316T
307.185	0.0	307829	WAITING_END	n/a	n/a	n/a	-999	1	[0, 0, 0]	n/a	FR1	1	R1316T
307.185	10.43	307829	COUNTDOWN_START	n/a	n/a	n/a	-999	1	[0, 0, 0]	n/a	FR1	1	R1316T
317.615	0.0	318259	COUNTDOWN_END	n/a	n/a	n/a	-999	1	[0, 0, 0]	n/a	FR1	1	R1316T
317.615	1.188	318259	ORIENT_START	n/a	n/a	n/a	-999	1	[0, 0, 0]	n/a	FR1	1	R1316T
318.803	0.0	319447	ORIENT_END	n/a	n/a	n/a	-999	1	[0, 0, 0]	n/a	FR1	1	R1316T
318.803	0.76	319447	ENCODING_START	n/a	n/a	n/a	-999	1	[0, 0, 0]	n/a	FR1	1	R1316T
319.563	1.624	320207	WORD	n/a	n/a	FLUTE	1	1	[0, 0, 0]	n/a	FR1	1	R1316T
321.187	0.925	321830	WORD_OFF	n/a	n/a	FLUTE	1	1	[0, 0, 0]	n/a	FR1	1	R1316T
322.112	1.625	322755	WORD	n/a	n/a	FOG	2	1	[0, 0, 0]	n/a	FR1	1	R1316T
323.737	0.941	324380	WORD_OFF	n/a	n/a	FOG	2	1	[0, 0, 0]	n/a	FR1	1	R1316T
324.678	1.627	325321	WORD	n/a	n/a	COW	3	1	[0, 0, 0]	n/a	FR1	1	R1316T
326.305	0.872	326948	WORD_OFF	n/a	n/a	COW	3	1	[0, 0, 0]	n/a	FR1	1	R1316T
327.177	1.627	327820	WORD	n/a	n/a	PEACH	4	1	[0, 0, 0]	n/a	FR1	1	R1316T
328.804	1.141	329447	WORD_OFF	n/a	n/a	PEACH	4	1	[0, 0, 0]	n/a	FR1	1	R1316T
329.945	1.627	330588	WORD	n/a	n/a	CAR	5	1	[0, 0, 0]	n/a	FR1	1	R1316T
331.572	0.939	332215	WORD_OFF	n/a	n/a	CAR	5	1	[0, 0, 0]	n/a	FR1	1	R1316T
332.511	1.629	333154	WORD	n/a	n/a	CART	6	1	[0, 0, 0]	n/a	FR1	1	R1316T
334.14	0.861	334783	WORD_OFF	n/a	n/a	CART	6	1	[0, 0, 0]	n/a	FR1	1	R1316T
335.001	1.622	335644	WORD	n/a	n/a	TRUCK	7	1	[0, 0, 0]	n/a	FR1	1	R1316T
336.623	1.12	337266	WORD_OFF	n/a	n/a	TRUCK	7	1	[0, 0, 0]	n/a	FR1	1	R1316T
337.743	1.631	338386	WORD	n/a	n/a	WAND	8	1	[0, 0, 0]	n/a	FR1	1	R1316T
339.374	0.829	340017	WORD_OFF	n/a	n/a	WAND	8	1	[0, 0, 0]	n/a	FR1	1	R1316T
340.203	1.62	340846	WORD	n/a	n/a	CALF	9	1	[0, 0, 0]	n/a	FR1	1	R1316T
341.823	0.933	342466	WORD_OFF	n/a	n/a	CALF	9	1	[0, 0, 0]	n/a	FR1	1	R1316T
342.756	1.636	343399	WORD	n/a	n/a	STEM	10	1	[0, 0, 0]	n/a	FR1	1	R1316T
344.392	1.079	345034	WORD_OFF	n/a	n/a	STEM	10	1	[0, 0, 0]	n/a	FR1	1	R1316T
345.471	1.638	346113	WORD	n/a	n/a	SWORD	11	1	[0, 0, 0]	n/a	FR1	1	R1316T
347.109	0.878	347751	WORD_OFF	n/a	n/a	SWORD	11	1	[0, 0, 0]	n/a	FR1	1	R1316T
347.987	1.622	348629	WORD	n/a	n/a	TOOL	12	1	[0, 0, 0]	n/a	FR1	1	R1316T
349.609	0.0	350251	WORD_OFF	n/a	n/a	TOOL	12	1	[0, 0, 0]	n/a	FR1	1	R1316T
349.609	0.001	350251	ENCODING_END	n/a	n/a	n/a	-999	1	[0, 0, 0]	n/a	FR1	1	R1316T
349.61	0.0	350252	DISTRACT_START	n/a	n/a	n/a	-999	1	[0, 0, 0]	n/a	FR1	1	R1316T
349.61	0.016	350252	START	n/a	n/a	n/a	-999	1	[-999, -999, -999]	n/a	FR1	1	R1316T
349.626	4.484	350268	PROB	4.484	n/a	n/a	-999	1	[9, 5, 4]	18	FR1	1	R1316T
354.11	3.649	354752	PROB	3.649	n/a	n/a	-999	1	[6, 7, 1]	14	FR1	1	R1316T
357.759	4.686	358401	PROB	4.686	n/a	n/a	-999	1	[8, 4, 1]	13	FR1	1	R1316T
362.445	5.167	363087	PROB	5.167	n/a	n/a	-999	1	[7, 3, 6]	16	FR1	1	R1316T
367.612	3.335	368254	PROB	3.335	n/a	n/a	-999	1	[4, 1, 9]	14	FR1	1	R1316T
370.947	0.015	371588	STOP	n/a	n/a	n/a	-999	1	[-999, -999, -999]	n/a	FR1	1	R1316T
370.962	0.677	371603	DISTRACT_END	n/a	n/a	n/a	-999	1	[0, 0, 0]	n/a	FR1	1	R1316T
371.639	1.558	372280	RETRIEVAL_ORIENT_START	n/a	n/a	n/a	-999	1	[0, 0, 0]	n/a	FR1	1	R1316T
373.197	0.0	373838	REC_START	n/a	n/a	n/a	-999	1	[0, 0, 0]	n/a	FR1	1	R1316T
373.197	0.95	373838	RETRIEVAL_ORIENT_END	n/a	n/a	n/a	-999	1	[0, 0, 0]	n/a	FR1	1	R1316T
374.147	0.744	374788	REC_WORD	0.744	n/a	WAND	8	1	[0, 0, 0]	n/a	FR1	1	R1316T
374.891	1.004	375532	REC_WORD_VV	1.004	n/a	<>	-999	1	[0, 0, 0]	n/a	FR1	1	R1316T
375.895	2.425	376536	REC_WORD	2.425	n/a	SWORD	11	1	[0, 0, 0]	n/a	FR1	1	R1316T
378.32	0.475	378961	REC_WORD_VV	0.475	n/a	<>	-999	1	[0, 0, 0]	n/a	FR1	1	R1316T
378.795	2.03	379436	REC_WORD	2.03	n/a	TOOL	12	1	[0, 0, 0]	n/a	FR1	1	R1316T
380.825	2.206	381466	REC_WORD_VV	2.206	n/a	<>	-999	1	[0, 0, 0]	n/a	FR1	1	R1316T
383.031	1.108	383672	REC_WORD	1.108	n/a	COW	3	1	[0, 0, 0]	n/a	FR1	1	R1316T
384.139	1.193	384780	REC_WORD	1.193	n/a	FLUTE	1	1	[0, 0, 0]	n/a	FR1	1	R1316T
385.332	1.128	385973	REC_WORD	1.128	n/a	FOG	2	1	[0, 0, 0]	n/a	FR1	1	R1316T
386.46	10.37	387101	REC_WORD	10.37	n/a	CAR	5	1	[0, 0, 0]	n/a	FR1	1	R1316T
396.83	1.629	397470	REC_WORD_VV	1.629	n/a	<>	-999	1	[0, 0, 0]	n/a	FR1	1	R1316T
398.459	4.749	399099	REC_WORD_VV	4.749	n/a	<>	-999	1	[0, 0, 0]	n/a	FR1	1	R1316T
403.208	0.0	403848	REC_END	n/a	n/a	n/a	-999	1	[0, 0, 0]	n/a	FR1	1	R1316T
403.208	0.014	403848	TRIAL_END	n/a	n/a	n/a	-999	1	[0, 0, 0]	n/a	FR1	1	R1316T
403.222	0.001	403862	TRIAL_START	n/a	n/a	n/a	-999	2	[0, 0, 0]	n/a	FR1	1	R1316T
403.223	0.0	403863	TRIAL	n/a	n/a	n/a	-999	2	[0, 0, 0]	n/a	FR1	1	R1316T
403.223	23.2	403863	WAITING_START	n/a	n/a	n/a	-999	2	[0, 0, 0]	n/a	FR1	1	R1316T
426.423	0.0	427062	WAITING_END	n/a	n/a	n/a	-999	2	[0, 0, 0]	n/a	FR1	1	R1316T
426.423	10.43	427062	COUNTDOWN_START	n/a	n/a	n/a	-999	2	[0, 0, 0]	n/a	FR1	1	R1316T
436.853	0.0	437492	COUNTDOWN_END	n/a	n/a	n/a	-999	2	[0, 0, 0]	n/a	FR1	1	R1316T
436.853	1.189	437492	ORIENT_START	n/a	n/a	n/a	-999	2	[0, 0, 0]	n/a	FR1	1	R1316T
438.042	0.0	438681	ENCODING_START	n/a	n/a	n/a	-999	2	[0, 0, 0]	n/a	FR1	1	R1316T
438.042	0.949	438681	ORIENT_END	n/a	n/a	n/a	-999	2	[0, 0, 0]	n/a	FR1	1	R1316T
438.991	1.635	439630	WORD	n/a	n/a	EAR	1	2	[0, 0, 0]	n/a	FR1	1	R1316T
440.626	0.902	441265	WORD_OFF	n/a	n/a	EAR	1	2	[0, 0, 0]	n/a	FR1	1	R1316T
441.528	1.631	442166	WORD	n/a	n/a	MUG	2	2	[0, 0, 0]	n/a	FR1	1	R1316T
443.159	1.065	443797	WORD_OFF	n/a	n/a	MUG	2	2	[0, 0, 0]	n/a	FR1	1	R1316T
444.224	1.635	444862	WORD	n/a	n/a	STEAM	3	2	[0, 0, 0]	n/a	FR1	1	R1316T
445.859	0.968	446497	WORD_OFF	n/a	n/a	STEAM	3	2	[0, 0, 0]	n/a	FR1	1	R1316T
446.827	1.617	447465	WORD	n/a	n/a	JEEP	4	2	[0, 0, 0]	n/a	FR1	1	R1316T
448.444	1.092	449082	WORD_OFF	n/a	n/a	JEEP	4	2	[0, 0, 0]	n/a	FR1	1	R1316T
449.536	1.625	450174	WORD	n/a	n/a	BREAD	5	2	[0, 0, 0]	n/a	FR1	1	R1316T
451.161	0.948	451799	WORD_OFF	n/a	n/a	BREAD	5	2	[0, 0, 0]	n/a	FR1	1	R1316T
452.109	1.635	452747	WORD	n/a	n/a	TANK	6	2	[0, 0, 0]	n/a	FR1	1	R1316T
453.744	1.014	454382	WORD_OFF	n/a	n/a	TANK	6	2	[0, 0, 0]	n/a	FR1	1	R1316T
454.758	1.637	455396	WORD	n/a	n/a	HOLE	7	2	[0, 0, 0]	n/a	FR1	1	R1316T
456.395	1.138	457033	WORD_OFF	n/a	n/a	HOLE	7	2	[0, 0, 0]	n/a	FR1	1	R1316T
457.533	1.629	458171	WORD	n/a	n/a	BUSH	8	2	[0, 0, 0]	n/a	FR1	1	R1316T
459.162	0.915	459800	WORD_OFF	n/a	n/a	BUSH	8	2	[0, 0, 0]	n/a	FR1	1	R1316T
460.077	1.635	460715	WORD	n/a	n/a	SHIELD	9	2	[0, 0, 0]	n/a	FR1	1	R1316T
461.712	0.952	462350	WORD_OFF	n/a	n/a	SHIELD	9	2	[0, 0, 0]	n/a	FR1	1	R1316T
462.664	1.616	463302	WORD	n/a	n/a	BOX	10	2	[0, 0, 0]	n/a	FR1	1	R1316T
464.28	0.915	464918	WORD_OFF	n/a	n/a	BOX	10	2	[0, 0, 0]	n/a	FR1	1	R1316T
465.195	1.634	465832	WORD	n/a	n/a	MAZE	11	2	[0, 0, 0]	n/a	FR1	1	R1316T
466.829	1.053	467466	WORD_OFF	n/a	n/a	MAZE	11	2	[0, 0, 0]	n/a	FR1	1	R1316T
467.882	1.632	468519	WORD	n/a	n/a	PIE	12	2	[0, 0, 0]	n/a	FR1	1	R1316T
469.514	0.001	470151	WORD_OFF	n/a	n/a	PIE	12	2	[0, 0, 0]	n/a	FR1	1	R1316T
469.515	0.0	470152	ENCODING_END	n/a	n/a	n/a	-999	2	[0, 0, 0]	n/a	FR1	1	R1316T
469.515	0.0	470152	DISTRACT_START	n/a	n/a	n/a	-999	2	[0, 0, 0]	n/a	FR1	1	R1316T
469.515	0.016	470152	START	n/a	n/a	n/a	-999	2	[-999, -999, -999]	n/a	FR1	1	R1316T
469.531	7.951	470168	PROB	7.951	n/a	n/a	-999	2	[7, 5, 1]	13	FR1	1	R1316T
477.482	4.518	478119	PROB	4.518	n/a	n/a	-999	2	[7, 6, 2]	15	FR1	1	R1316T
482.0	5.7	482637	PROB	5.7	n/a	n/a	-999	2	[1, 7, 5]	13	FR1	1	R1316T
487.7	3.957	488337	PROB	3.957	n/a	n/a	-999	2	[2, 6, 2]	10	FR1	1	R1316T
491.657	0.01	492293	STOP	n/a	n/a	n/a	-999	2	[-999, -999, -999]	n/a	FR1	1	R1316T
491.667	0.534	492303	DISTRACT_END	n/a	n/a	n/a	-999	2	[0, 0, 0]	n/a	FR1	1	R1316T
492.201	1.55	492837	RETRIEVAL_ORIENT_START	n/a	n/a	n/a	-999	2	[0, 0, 0]	n/a	FR1	1	R1316T
493.751	0.0	494387	RETRIEVAL_ORIENT_END	n/a	n/a	n/a	-999	2	[0, 0, 0]	n/a	FR1	1	R1316T
493.751	1.307	494387	REC_START	n/a	n/a	n/a	-999	2	[0, 0, 0]	n/a	FR1	1	R1316T
495.058	1.159	495694	REC_WORD	1.159	n/a	EAR	1	2	[0, 0, 0]	n/a	FR1	1	R1316T
496.217	1.394	496853	REC_WORD	1.394	n/a	MUG	2	2	[0, 0, 0]	n/a	FR1	1	R1316T
497.611	1.307	498247	REC_WORD	1.307	n/a	STEAM	3	2	[0, 0, 0]	n/a	FR1	1	R1316T
498.918	2.386	499554	REC_WORD_VV	2.386	n/a	<>	-999	2	[0, 0, 0]	n/a	FR1	1	R1316T
501.304	6.255	501940	REC_WORD	6.255	n/a	JEEP	4	2	[0, 0, 0]	n/a	FR1	1	R1316T
507.559	9.306	508195	REC_WORD_VV	9.306	n/a	<>	-999	2	[0, 0, 0]	n/a	FR1	1	R1316T
516.865	6.9	517500	REC_WORD	6.9	n/a	BREAD	5	2	[0, 0, 0]	n/a	FR1	1	R1316T
523.765	0.0	524400	REC_END	n/a	n/a	n/a	-999	2	[0, 0, 0]	n/a	FR1	1	R1316T
523.765	0.014	524400	TRIAL_END	n/a	n/a	n/a	-999	2	[0, 0, 0]	n/a	FR1	1	R1316T
523.779	0.0	524414	TRIAL_START	n/a	n/a	n/a	-999	3	[0, 0, 0]	n/a	FR1	1	R1316T
523.779	0.001	524414	TRIAL	n/a	n/a	n/a	-999	3	[0, 0, 0]	n/a	FR1	1	R1316T
523.78	5.161	524415	WAITING_START	n/a	n/a	n/a	-999	3	[0, 0, 0]	n/a	FR1	1	R1316T
528.941	0.0	529576	WAITING_END	n/a	n/a	n/a	-999	3	[0, 0, 0]	n/a	FR1	1	R1316T
528.941	10.428	529576	COUNTDOWN_START	n/a	n/a	n/a	-999	3	[0, 0, 0]	n/a	FR1	1	R1316T
539.369	0.0	540003	COUNTDOWN_END	n/a	n/a	n/a	-999	3	[0, 0, 0]	n/a	FR1	1	R1316T
539.369	1.258	540003	ORIENT_START	n/a	n/a	n/a	-999	3	[0, 0, 0]	n/a	FR1	1	R1316T
540.627	0.0	541261	ENCODING_START	n/a	n/a	n/a	-999	3	[0, 0, 0]	n/a	FR1	1	R1316T
540.627	1.15	541261	ORIENT_END	n/a	n/a	n/a	-999	3	[0, 0, 0]	n/a	FR1	1	R1316T
541.777	1.634	542411	WORD	n/a	n/a	PURSE	1	3	[0, 0, 0]	n/a	FR1	1	R1316T
543.411	0.829	544045	WORD_OFF	n/a	n/a	PURSE	1	3	[0, 0, 0]	n/a	FR1	1	R1316T
544.24	1.637	544874	WORD	n/a	n/a	BRANCH	2	3	[0, 0, 0]	n/a	FR1	1	R1316T
545.877	0.944	546511	WORD_OFF	n/a	n/a	BRANCH	2	3	[0, 0, 0]	n/a	FR1	1	R1316T
546.821	1.624	547455	WORD	n/a	n/a	SPOON	3	3	[0, 0, 0]	n/a	FR1	1	R1316T
548.445	1.112	549079	WORD_OFF	n/a	n/a	SPOON	3	3	[0, 0, 0]	n/a	FR1	1	R1316T
549.557	1.622	550191	WORD	n/a	n/a	DOLL	4	3	[0, 0, 0]	n/a	FR1	1	R1316T
551.179	1.127	551813	WORD_OFF	n/a	n/a	DOLL	4	3	[0, 0, 0]	n/a	FR1	1	R1316T
552.306	1.623	552940	WORD	n/a	n/a	TEA	5	3	[0, 0, 0]	n/a	FR1	1	R1316T
553.929	1.075	554563	WORD_OFF	n/a	n/a	TEA	5	3	[0, 0, 0]	n/a	FR1	1	R1316T
555.004	1.625	555638	WORD	n/a	n/a	TRASH	6	3	[0, 0, 0]	n/a	FR1	1	R1316T
556.629	0.881	557263	WORD_OFF	n/a	n/a	TRASH	6	3	[0, 0, 0]	n/a	FR1	1	R1316T
557.51	1.62	558144	WORD	n/a	n/a	PIG	7	3	[0, 0, 0]	n/a	FR1	1	R1316T
559.13	0.796	559764	WORD_OFF	n/a	n/a	PIG	7	3	[0, 0, 0]	n/a	FR1	1	R1316T
559.926	1.638	560560	WORD	n/a	n/a	STONE	8	3	[0, 0, 0]	n/a	FR1	1	R1316T
561.564	1.013	562198	WORD_OFF	n/a	n/a	STONE	8	3	[0, 0, 0]	n/a	FR1	1	R1316T
562.577	1.638	563210	WORD	n/a	n/a	DIME	9	3	[0, 0, 0]	n/a	FR1	1	R1316T
564.215	1.103	564848	WORD_OFF	n/a	n/a	DIME	9	3	[0, 0, 0]	n/a	FR1	1	R1316T
565.318	1.63	565951	WORD	n/a	n/a	RAT	10	3	[0, 0, 0]	n/a	FR1	1	R1316T
566.948	0.846	567581	WORD_OFF	n/a	n/a	RAT	10	3	[0, 0, 0]	n/a	FR1	1	R1316T
567.794	1.605	568427	WORD	n/a	n/a	FUR	11	3	[0, 0, 0]	n/a	FR1	1	R1316T
569.399	1.143	570032	WORD_OFF	n/a	n/a	FUR	11	3	[0, 0, 0]	n/a	FR1	1	R1316T
570.542	1.624	571175	WORD	n/a	n/a	CAKE	12	3	[0, 0, 0]	n/a	FR1	1	R1316T
572.166	0.001	572799	WORD_OFF	n/a	n/a	CAKE	12	3	[0, 0, 0]	n/a	FR1	1	R1316T
572.167	0.0	572800	ENCODING_END	n/a	n/a	n/a	-999	3	[0, 0, 0]	n/a	FR1	1	R1316T
572.167	0.0	572800	DISTRACT_START	n/a	n/a	n/a	-999	3	[0, 0, 0]	n/a	FR1	1	R1316T
572.167	0.016	572800	START	n/a	n/a	n/a	-999	3	[-999, -999, -999]	n/a	FR1	1	R1316T
572.183	4.067	572816	PROB	4.067	n/a	n/a	-999	3	[2, 4, 7]	13	FR1	1	R1316T
576.25	7.268	576883	PROB	7.268	n/a	n/a	-999	3	[4, 9, 8]	21	FR1	1	R1316T
583.518	3.584	584151	PROB	3.584	n/a	n/a	-999	3	[9, 4, 1]	14	FR1	1	R1316T
587.102	4.616	587734	PROB	4.616	n/a	n/a	-999	3	[7, 3, 8]	18	FR1	1	R1316T
591.718	3.828	592350	PROB	3.828	n/a	n/a	-999	3	[9, 2, 9]	20	FR1	1	R1316T
595.546	0.008	596178	STOP	n/a	n/a	n/a	-999	3	[-999, -999, -999]	n/a	FR1	1	R1316T
595.554	0.637	596186	DISTRACT_END	n/a	n/a	n/a	-999	3	[0, 0, 0]	n/a	FR1	1	R1316T
596.191	1.529	596823	RETRIEVAL_ORIENT_START	n/a	n/a	n/a	-999	3	[0, 0, 0]	n/a	FR1	1	R1316T
597.72	0.0	598352	RETRIEVAL_ORIENT_END	n/a	n/a	n/a	-999	3	[0, 0, 0]	n/a	FR1	1	R1316T
597.72	1.734	598352	REC_START	n/a	n/a	n/a	-999	3	[0, 0, 0]	n/a	FR1	1	R1316T
599.454	1.235	600086	REC_WORD	1.235	n/a	DIME	9	3	[0, 0, 0]	n/a	FR1	1	R1316T
600.689	1.187	601321	REC_WORD	1.187	n/a	RAT	10	3	[0, 0, 0]	n/a	FR1	1	R1316T
601.876	1.092	602508	REC_WORD	1.092	n/a	PIG	7	3	[0, 0, 0]	n/a	FR1	1	R1316T
602.968	3.078	603600	REC_WORD	3.078	n/a	FUR	11	3	[0, 0, 0]	n/a	FR1	1	R1316T
606.046	1.996	606678	REC_WORD	1.996	n/a	STORE	-999	3	[0, 0, 0]	n/a	FR1	1	R1316T
608.042	0.28	608674	REC_WORD_VV	0.28	n/a	<>	-999	3	[0, 0, 0]	n/a	FR1	1	R1316T
608.322	7.602	608954	REC_WORD	7.602	n/a	STONE	8	3	[0, 0, 0]	n/a	FR1	1	R1316T
615.924	11.81	616555	REC_WORD_VV	11.81	n/a	<>	-999	3	[0, 0, 0]	n/a	FR1	1	R1316T
627.734	0.0	628365	REC_END	n/a	n/a	n/a	-999	3	[0, 0, 0]	n/a	FR1	1	R1316T
627.734	0.015	628365	TRIAL_END	n/a	n/a	n/a	-999	3	[0, 0, 0]	n/a	FR1	1	R1316T
627.749	0.0	628380	TRIAL_START	n/a	n/a	n/a	-999	4	[0, 0, 0]	n/a	FR1	1	R1316T
627.749	0.0	628380	TRIAL	n/a	n/a	n/a	-999	4	[0, 0, 0]	n/a	FR1	1	R1316T
627.749	4.278	628380	WAITING_START	n/a	n/a	n/a	-999	4	[0, 0, 0]	n/a	FR1	1	R1316T
632.027	0.001	632658	WAITING_END	n/a	n/a	n/a	-999	4	[0, 0, 0]	n/a	FR1	1	R1316T
632.028	10.428	632659	COUNTDOWN_START	n/a	n/a	n/a	-999	4	[0, 0, 0]	n/a	FR1	1	R1316T
642.456	0.001	643086	COUNTDOWN_END	n/a	n/a	n/a	-999	4	[0, 0, 0]	n/a	FR1	1	R1316T
642.457	1.204	643087	ORIENT_START	n/a	n/a	n/a	-999	4	[0, 0, 0]	n/a	FR1	1	R1316T
643.661	0.001	644291	ORIENT_END	n/a	n/a	n/a	-999	4	[0, 0, 0]	n/a	FR1	1	R1316T
643.662	0.949	644292	ENCODING_START	n/a	n/a	n/a	-999	4	[0, 0, 0]	n/a	FR1	1	R1316T
644.611	1.635	645241	WORD	n/a	n/a	VINE	1	4	[0, 0, 0]	n/a	FR1	1	R1316T
646.246	0.832	646876	WORD_OFF	n/a	n/a	VINE	1	4	[0, 0, 0]	n/a	FR1	1	R1316T
647.078	1.634	647708	WORD	n/a	n/a	FOAM	2	4	[0, 0, 0]	n/a	FR1	1	R1316T
648.712	0.871	649342	WORD_OFF	n/a	n/a	FOAM	2	4	[0, 0, 0]	n/a	FR1	1	R1316T
649.583	1.631	650213	WORD	n/a	n/a	SINK	3	4	[0, 0, 0]	n/a	FR1	1	R1316T
651.214	0.785	651844	WORD_OFF	n/a	n/a	SINK	3	4	[0, 0, 0]	n/a	FR1	1	R1316T
651.999	1.631	652629	WORD	n/a	n/a	SMILE	4	4	[0, 0, 0]	n/a	FR1	1	R1316T
653.63	1.106	654260	WORD_OFF	n/a	n/a	SMILE	4	4	[0, 0, 0]	n/a	FR1	1	R1316T
654.736	1.629	655366	WORD	n/a	n/a	PET	5	4	[0, 0, 0]	n/a	FR1	1	R1316T
656.365	0.94	656995	WORD_OFF	n/a	n/a	PET	5	4	[0, 0, 0]	n/a	FR1	1	R1316T
657.305	1.626	657935	WORD	n/a	n/a	BEAN	6	4	[0, 0, 0]	n/a	FR1	1	R1316T
658.931	0.894	659560	WORD_OFF	n/a	n/a	BEAN	6	4	[0, 0, 0]	n/a	FR1	1	R1316T
659.825	1.624	660454	WORD	n/a	n/a	WING	7	4	[0, 0, 0]	n/a	FR1	1	R1316T
661.449	1.117	662078	WORD_OFF	n/a	n/a	WING	7	4	[0, 0, 0]	n/a	FR1	1	R1316T
662.566	1.633	663195	WORD	n/a	n/a	CHAIR	8	4	[0, 0, 0]	n/a	FR1	1	R1316T
664.199	1.139	664828	WORD_OFF	n/a	n/a	CHAIR	8	4	[0, 0, 0]	n/a	FR1	1	R1316T
665.338	1.628	665967	WORD	n/a	n/a	STOOL	9	4	[0, 0, 0]	n/a	FR1	1	R1316T
666.966	0.812	667595	WORD_OFF	n/a	n/a	STOOL	9	4	[0, 0, 0]	n/a	FR1	1	R1316T
667.778	1.606	668407	WORD	n/a	n/a	ZOO	10	4	[0, 0, 0]	n/a	FR1	1	R1316T
669.384	1.007	670013	WORD_OFF	n/a	n/a	ZOO	10	4	[0, 0, 0]	n/a	FR1	1	R1316T
670.391	1.627	671020	WORD	n/a	n/a	PASTE	11	4	[0, 0, 0]	n/a	FR1	1	R1316T
672.018	1.098	672647	WORD_OFF	n/a	n/a	PASTE	11	4	[0, 0, 0]	n/a	FR1	1	R1316T
673.116	1.634	673745	WORD	n/a	n/a	PLATE	12	4	[0, 0, 0]	n/a	FR1	1	R1316T
674.75	0.001	675379	WORD_OFF	n/a	n/a	PLATE	12	4	[0, 0, 0]	n/a	FR1	1	R1316T
674.751	0.0	675380	ENCODING_END	n/a	n/a	n/a	-999	4	[0, 0, 0]	n/a	FR1	1	R1316T
674.751	0.0	675380	DISTRACT_START	n/a	n/a	n/a	-999	4	[0, 0, 0]	n/a	FR1	1	R1316T
674.751	0.016	675380	START	n/a	n/a	n/a	-999	4	[-999, -999, -999]	n/a	FR1	1	R1316T
674.767	4.652	675396	PROB	4.652	n/a	n/a	-999	4	[9, 5, 4]	18	FR1	1	R1316T
679.419	3.483	680048	PROB	3.483	n/a	n/a	-999	4	[4, 5, 9]	18	FR1	1	R1316T
682.902	4.0	683530	PROB	4.0	n/a	n/a	-999	4	[1, 4, 5]	10	FR1	1	R1316T
686.902	4.419	687530	PROB	4.419	n/a	n/a	-999	4	[5, 6, 6]	17	FR1	1	R1316T
691.321	3.683	691949	PROB	3.683	n/a	n/a	-999	4	[4, 1, 3]	8	FR1	1	R1316T
695.004	0.018	695632	STOP	n/a	n/a	n/a	-999	4	[-999, -999, -999]	n/a	FR1	1	R1316T
695.022	0.661	695650	DISTRACT_END	n/a	n/a	n/a	-999	4	[0, 0, 0]	n/a	FR1	1	R1316T
695.683	1.706	696311	RETRIEVAL_ORIENT_START	n/a	n/a	n/a	-999	4	[0, 0, 0]	n/a	FR1	1	R1316T
697.389	0.0	698017	RETRIEVAL_ORIENT_END	n/a	n/a	n/a	-999	4	[0, 0, 0]	n/a	FR1	1	R1316T
697.389	1.418	698017	REC_START	n/a	n/a	n/a	-999	4	[0, 0, 0]	n/a	FR1	1	R1316T
698.807	2.417	699435	REC_WORD	2.417	n/a	WINE	-999	4	[0, 0, 0]	n/a	FR1	1	R1316T
701.224	6.409	701852	REC_WORD	6.409	n/a	PET	5	4	[0, 0, 0]	n/a	FR1	1	R1316T
707.633	19.768	708260	REC_WORD	19.768	n/a	ZOO	10	4	[0, 0, 0]	n/a	FR1	1	R1316T
727.401	0.0	728028	TRIAL_END	n/a	n/a	n/a	-999	4	[0, 0, 0]	n/a	FR1	1	R1316T
727.401	0.014	728028	REC_END	n/a	n/a	n/a	-999	4	[0, 0, 0]	n/a	FR1	1	R1316T
727.415	0.001	728042	TRIAL_START	n/a	n/a	n/a	-999	5	[0, 0, 0]	n/a	FR1	1	R1316T
727.416	0.0	728043	TRIAL	n/a	n/a	n/a	-999	5	[0, 0, 0]	n/a	FR1	1	R1316T
727.416	2.045	728043	WAITING_START	n/a	n/a	n/a	-999	5	[0, 0, 0]	n/a	FR1	1	R1316T
729.461	0.001	730088	WAITING_END	n/a	n/a	n/a	-999	5	[0, 0, 0]	n/a	FR1	1	R1316T
729.462	10.428	730089	COUNTDOWN_START	n/a	n/a	n/a	-999	5	[0, 0, 0]	n/a	FR1	1	R1316T
739.89	0.001	740516	COUNTDOWN_END	n/a	n/a	n/a	-999	5	[0, 0, 0]	n/a	FR1	1	R1316T
739.891	1.222	740517	ORIENT_START	n/a	n/a	n/a	-999	5	[0, 0, 0]	n/a	FR1	1	R1316T
741.113	0.001	741739	ORIENT_END	n/a	n/a	n/a	-999	5	[0, 0, 0]	n/a	FR1	1	R1316T
741.114	0.928	741740	ENCODING_START	n/a	n/a	n/a	-999	5	[0, 0, 0]	n/a	FR1	1	R1316T
742.042	1.621	742668	WORD	n/a	n/a	SOAP	1	5	[0, 0, 0]	n/a	FR1	1	R1316T
743.663	0.926	744289	WORD_OFF	n/a	n/a	SOAP	1	5	[0, 0, 0]	n/a	FR1	1	R1316T
744.589	1.625	745215	WORD	n/a	n/a	FISH	2	5	[0, 0, 0]	n/a	FR1	1	R1316T
746.214	1.051	746840	WORD_OFF	n/a	n/a	FISH	2	5	[0, 0, 0]	n/a	FR1	1	R1316T
747.265	1.632	747891	WORD	n/a	n/a	OAK	3	5	[0, 0, 0]	n/a	FR1	1	R1316T
748.897	0.947	749523	WORD_OFF	n/a	n/a	OAK	3	5	[0, 0, 0]	n/a	FR1	1	R1316T
749.844	1.638	750470	WORD	n/a	n/a	GOLD	4	5	[0, 0, 0]	n/a	FR1	1	R1316T
751.482	0.932	752108	WORD_OFF	n/a	n/a	GOLD	4	5	[0, 0, 0]	n/a	FR1	1	R1316T
752.414	1.635	753040	WORD	n/a	n/a	THREAD	5	5	[0, 0, 0]	n/a	FR1	1	R1316T
754.049	1.07	754675	WORD_OFF	n/a	n/a	THREAD	5	5	[0, 0, 0]	n/a	FR1	1	R1316T
755.119	1.63	755745	WORD	n/a	n/a	BOOK	6	5	[0, 0, 0]	n/a	FR1	1	R1316T
756.749	0.943	757374	WORD_OFF	n/a	n/a	BOOK	6	5	[0, 0, 0]	n/a	FR1	1	R1316T
757.692	1.625	758317	WORD	n/a	n/a	HILL	7	5	[0, 0, 0]	n/a	FR1	1	R1316T
759.317	0.79	759942	WORD_OFF	n/a	n/a	HILL	7	5	[0, 0, 0]	n/a	FR1	1	R1316T
760.107	1.626	760732	WORD	n/a	n/a	SUIT	8	5	[0, 0, 0]	n/a	FR1	1	R1316T
761.733	0.994	762358	WORD_OFF	n/a	n/a	SUIT	8	5	[0, 0, 0]	n/a	FR1	1	R1316T
762.727	1.607	763352	WORD	n/a	n/a	FAN	9	5	[0, 0, 0]	n/a	FR1	1	R1316T
764.334	1.118	764959	WORD_OFF	n/a	n/a	FAN	9	5	[0, 0, 0]	n/a	FR1	1	R1316T
765.452	1.633	766077	WORD	n/a	n/a	TENT	10	5	[0, 0, 0]	n/a	FR1	1	R1316T
767.085	1.002	767710	WORD_OFF	n/a	n/a	TENT	10	5	[0, 0, 0]	n/a	FR1	1	R1316T
768.087	1.631	768712	WORD	n/a	n/a	MOLE	11	5	[0, 0, 0]	n/a	FR1	1	R1316T
769.718	1.083	770343	WORD_OFF	n/a	n/a	MOLE	11	5	[0, 0, 0]	n/a	FR1	1	R1316T
770.801	1.635	771426	WORD	n/a	n/a	FLAME	12	5	[0, 0, 0]	n/a	FR1	1	R1316T
772.436	0.0	773061	WORD_OFF	n/a	n/a	FLAME	12	5	[0, 0, 0]	n/a	FR1	1	R1316T
772.436	0.001	773061	ENCODING_END	n/a	n/a	n/a	-999	5	[0, 0, 0]	n/a	FR1	1	R1316T
772.437	0.0	773062	DISTRACT_START	n/a	n/a	n/a	-999	5	[0, 0, 0]	n/a	FR1	1	R1316T
772.437	0.015	773062	START	n/a	n/a	n/a	-999	5	[-999, -999, -999]	n/a	FR1	1	R1316T
772.452	5.217	773077	PROB	5.217	n/a	n/a	-999	5	[2, 5, 9]	16	FR1	1	R1316T
777.669	4.935	778294	PROB	4.935	n/a	n/a	-999	5	[9, 9, 5]	23	FR1	1	R1316T
782.604	3.316	783228	PROB	3.316	n/a	n/a	-999	5	[3, 3, 2]	8	FR1	1	R1316T
785.92	3.435	786544	PROB	3.435	n/a	n/a	-999	5	[2, 4, 1]	7	FR1	1	R1316T
789.355	4.436	789979	PROB	4.436	n/a	n/a	-999	5	[1, 7, 3]	11	FR1	1	R1316T
793.791	0.014	794415	STOP	n/a	n/a	n/a	-999	5	[-999, -999, -999]	n/a	FR1	1	R1316T
793.805	0.579	794429	DISTRACT_END	n/a	n/a	n/a	-999	5	[0, 0, 0]	n/a	FR1	1	R1316T
794.384	1.706	795008	RETRIEVAL_ORIENT_START	n/a	n/a	n/a	-999	5	[0, 0, 0]	n/a	FR1	1	R1316T
796.09	0.001	796714	RETRIEVAL_ORIENT_END	n/a	n/a	n/a	-999	5	[0, 0, 0]	n/a	FR1	1	R1316T
796.091	3.389	796715	REC_START	n/a	n/a	n/a	-999	5	[0, 0, 0]	n/a	FR1	1	R1316T
799.48	14.011	800104	REC_WORD	14.011	n/a	MOLE	11	5	[0, 0, 0]	n/a	FR1	1	R1316T
813.491	12.61	814114	REC_WORD_VV	12.61	n/a	<>	-999	5	[0, 0, 0]	n/a	FR1	1	R1316T
826.101	0.001	826724	REC_END	n/a	n/a	n/a	-999	5	[0, 0, 0]	n/a	FR1	1	R1316T
826.102	0.014	826725	TRIAL_END	n/a	n/a	n/a	-999	5	[0, 0, 0]	n/a	FR1	1	R1316T
826.116	0.0	826739	TRIAL_START	n/a	n/a	n/a	-999	6	[0, 0, 0]	n/a	FR1	1	R1316T
826.116	0.001	826739	TRIAL	n/a	n/a	n/a	-999	6	[0, 0, 0]	n/a	FR1	1	R1316T
826.117	18.232	826740	WAITING_START	n/a	n/a	n/a	-999	6	[0, 0, 0]	n/a	FR1	1	R1316T
844.349	0.0	844971	COUNTDOWN_START	n/a	n/a	n/a	-999	6	[0, 0, 0]	n/a	FR1	1	R1316T
844.349	10.428	844971	WAITING_END	n/a	n/a	n/a	-999	6	[0, 0, 0]	n/a	FR1	1	R1316T
854.777	0.001	855398	COUNTDOWN_END	n/a	n/a	n/a	-999	6	[0, 0, 0]	n/a	FR1	1	R1316T
854.778	1.273	855399	ORIENT_START	n/a	n/a	n/a	-999	6	[0, 0, 0]	n/a	FR1	1	R1316T
856.051	0.001	856672	ORIENT_END	n/a	n/a	n/a	-999	6	[0, 0, 0]	n/a	FR1	1	R1316T
856.052	1.123	856673	ENCODING_START	n/a	n/a	n/a	-999	6	[0, 0, 0]	n/a	FR1	1	R1316T
857.175	1.626	857796	WORD	n/a	n/a	ROAD	1	6	[0, 0, 0]	n/a	FR1	1	R1316T
858.801	0.899	859422	WORD_OFF	n/a	n/a	ROAD	1	6	[0, 0, 0]	n/a	FR1	1	R1316T
859.7	1.618	860321	WORD	n/a	n/a	SMOKE	2	6	[0, 0, 0]	n/a	FR1	1	R1316T
861.318	0.946	861939	WORD_OFF	n/a	n/a	SMOKE	2	6	[0, 0, 0]	n/a	FR1	1	R1316T
862.264	1.621	862885	WORD	n/a	n/a	SHARK	3	6	[0, 0, 0]	n/a	FR1	1	R1316T
863.885	0.899	864506	WORD_OFF	n/a	n/a	SHARK	3	6	[0, 0, 0]	n/a	FR1	1	R1316T
864.784	1.636	865405	WORD	n/a	n/a	RAKE	4	6	[0, 0, 0]	n/a	FR1	1	R1316T
866.42	0.893	867041	WORD_OFF	n/a	n/a	RAKE	4	6	[0, 0, 0]	n/a	FR1	1	R1316T
867.313	1.623	867934	WORD	n/a	n/a	MAIL	5	6	[0, 0, 0]	n/a	FR1	1	R1316T
868.936	0.917	869557	WORD_OFF	n/a	n/a	MAIL	5	6	[0, 0, 0]	n/a	FR1	1	R1316T
869.853	1.634	870474	WORD	n/a	n/a	GLOVE	6	6	[0, 0, 0]	n/a	FR1	1	R1316T
871.487	1.15	872108	WORD_OFF	n/a	n/a	GLOVE	6	6	[0, 0, 0]	n/a	FR1	1	R1316T
872.637	1.634	873258	WORD	n/a	n/a	CROW	7	6	[0, 0, 0]	n/a	FR1	1	R1316T
874.271	1.075	874892	WORD_OFF	n/a	n/a	CROW	7	6	[0, 0, 0]	n/a	FR1	1	R1316T
875.346	1.624	875967	WORD	n/a	n/a	RAIN	8	6	[0, 0, 0]	n/a	FR1	1	R1316T
876.97	0.885	877590	WORD_OFF	n/a	n/a	RAIN	8	6	[0, 0, 0]	n/a	FR1	1	R1316T
877.855	1.634	878475	WORD	n/a	n/a	YARD	9	6	[0, 0, 0]	n/a	FR1	1	R1316T
879.489	0.991	880109	WORD_OFF	n/a	n/a	YARD	9	6	[0, 0, 0]	n/a	FR1	1	R1316T
880.48	1.626	881100	WORD	n/a	n/a	SKI	10	6	[0, 0, 0]	n/a	FR1	1	R1316T
882.106	0.906	882726	WORD_OFF	n/a	n/a	SKI	10	6	[0, 0, 0]	n/a	FR1	1	R1316T
883.012	1.627	883632	WORD	n/a	n/a	SHIP	11	6	[0, 0, 0]	n/a	FR1	1	R1316T
884.639	1.093	885259	WORD_OFF	n/a	n/a	SHIP	11	6	[0, 0, 0]	n/a	FR1	1	R1316T
885.732	1.625	886352	WORD	n/a	n/a	BED	12	6	[0, 0, 0]	n/a	FR1	1	R1316T
887.357	0.0	887977	WORD_OFF	n/a	n/a	BED	12	6	[0, 0, 0]	n/a	FR1	1	R1316T
887.357	0.0	887977	ENCODING_END	n/a	n/a	n/a	-999	6	[0, 0, 0]	n/a	FR1	1	R1316T
887.357	0.0	887977	DISTRACT_START	n/a	n/a	n/a	-999	6	[0, 0, 0]	n/a	FR1	1	R1316T
887.357	0.016	887977	START	n/a	n/a	n/a	-999	6	[-999, -999, -999]	n/a	FR1	1	R1316T
887.373	3.201	887993	PROB	3.201	n/a	n/a	-999	6	[4, 6, 5]	15	FR1	1	R1316T
890.574	3.817	891194	PROB	3.817	n/a	n/a	-999	6	[5, 4, 9]	18	FR1	1	R1316T
894.391	4.184	895011	PROB	4.184	n/a	n/a	-999	6	[3, 9, 2]	14	FR1	1	R1316T
898.575	5.468	899195	PROB	5.468	n/a	n/a	-999	6	[7, 9, 4]	20	FR1	1	R1316T
904.043	10.632	904662	PROB	10.632	n/a	n/a	-999	6	[8, 5, 9]	22	FR1	1	R1316T
914.675	0.019	915294	STOP	n/a	n/a	n/a	-999	6	[-999, -999, -999]	n/a	FR1	1	R1316T
914.694	0.502	915313	DISTRACT_END	n/a	n/a	n/a	-999	6	[0, 0, 0]	n/a	FR1	1	R1316T
915.196	1.615	915815	RETRIEVAL_ORIENT_START	n/a	n/a	n/a	-999	6	[0, 0, 0]	n/a	FR1	1	R1316T
916.811	0.0	917430	RETRIEVAL_ORIENT_END	n/a	n/a	n/a	-999	6	[0, 0, 0]	n/a	FR1	1	R1316T
916.811	1.72	917430	REC_START	n/a	n/a	n/a	-999	6	[0, 0, 0]	n/a	FR1	1	R1316T
918.531	1.599	919150	REC_WORD	1.599	n/a	SKI	10	6	[0, 0, 0]	n/a	FR1	1	R1316T
920.13	2.322	920749	REC_WORD	2.322	n/a	MAIL	5	6	[0, 0, 0]	n/a	FR1	1	R1316T
922.452	2.604	923071	REC_WORD	2.604	n/a	SHARK	3	6	[0, 0, 0]	n/a	FR1	1	R1316T
925.056	2.64	925675	REC_WORD	2.64	n/a	ROAD	1	6	[0, 0, 0]	n/a	FR1	1	R1316T
927.696	1.272	928314	REC_WORD	1.272	n/a	BED	12	6	[0, 0, 0]	n/a	FR1	1	R1316T
928.968	11.647	929586	REC_WORD	11.647	n/a	SHIP	11	6	[0, 0, 0]	n/a	FR1	1	R1316T
940.615	2.818	941233	REC_WORD	2.818	n/a	SMOKE	2	6	[0, 0, 0]	n/a	FR1	1	R1316T
943.433	3.39	944051	REC_WORD_VV	3.39	n/a	<>	-999	6	[0, 0, 0]	n/a	FR1	1	R1316T
946.823	0.0	947441	REC_END	n/a	n/a	n/a	-999	6	[0, 0, 0]	n/a	FR1	1	R1316T
946.823	0.015	947441	TRIAL_END	n/a	n/a	n/a	-999	6	[0, 0, 0]	n/a	FR1	1	R1316T
946.838	0.0	947456	TRIAL_START	n/a	n/a	n/a	-999	7	[0, 0, 0]	n/a	FR1	1	R1316T
946.838	0.0	947456	TRIAL	n/a	n/a	n/a	-999	7	[0, 0, 0]	n/a	FR1	1	R1316T
946.838	17.915	947456	WAITING_START	n/a	n/a	n/a	-999	7	[0, 0, 0]	n/a	FR1	1	R1316T
964.753	0.001	965370	WAITING_END	n/a	n/a	n/a	-999	7	[0, 0, 0]	n/a	FR1	1	R1316T
964.754	10.429	965371	COUNTDOWN_START	n/a	n/a	n/a	-999	7	[0, 0, 0]	n/a	FR1	1	R1316T
975.183	0.0	975799	COUNTDOWN_END	n/a	n/a	n/a	-999	7	[0, 0, 0]	n/a	FR1	1	R1316T
975.183	1.223	975799	ORIENT_START	n/a	n/a	n/a	-999	7	[0, 0, 0]	n/a	FR1	1	R1316T
976.406	0.001	977022	ORIENT_END	n/a	n/a	n/a	-999	7	[0, 0, 0]	n/a	FR1	1	R1316T
976.407	1.061	977023	ENCODING_START	n/a	n/a	n/a	-999	7	[0, 0, 0]	n/a	FR1	1	R1316T
977.468	1.622	978084	WORD	n/a	n/a	STAR	1	7	[0, 0, 0]	n/a	FR1	1	R1316T
979.09	0.825	979706	WORD_OFF	n/a	n/a	STAR	1	7	[0, 0, 0]	n/a	FR1	1	R1316T
979.915	1.626	980531	WORD	n/a	n/a	CAVE	2	7	[0, 0, 0]	n/a	FR1	1	R1316T
981.541	1.128	982157	WORD_OFF	n/a	n/a	CAVE	2	7	[0, 0, 0]	n/a	FR1	1	R1316T
982.669	1.605	983285	WORD	n/a	n/a	MAT	3	7	[0, 0, 0]	n/a	FR1	1	R1316T
984.274	0.867	984890	WORD_OFF	n/a	n/a	MAT	3	7	[0, 0, 0]	n/a	FR1	1	R1316T
985.141	1.633	985757	WORD	n/a	n/a	BANK	4	7	[0, 0, 0]	n/a	FR1	1	R1316T
986.774	0.755	987390	WORD_OFF	n/a	n/a	BANK	4	7	[0, 0, 0]	n/a	FR1	1	R1316T
987.529	1.629	988145	WORD	n/a	n/a	MUD	5	7	[0, 0, 0]	n/a	FR1	1	R1316T
989.158	0.911	989774	WORD_OFF	n/a	n/a	MUD	5	7	[0, 0, 0]	n/a	FR1	1	R1316T
990.069	1.622	990685	WORD	n/a	n/a	FORK	6	7	[0, 0, 0]	n/a	FR1	1	R1316T
991.691	0.969	992307	WORD_OFF	n/a	n/a	FORK	6	7	[0, 0, 0]	n/a	FR1	1	R1316T
992.66	1.633	993276	WORD	n/a	n/a	PARK	7	7	[0, 0, 0]	n/a	FR1	1	R1316T
994.293	0.803	994909	WORD_OFF	n/a	n/a	PARK	7	7	[0, 0, 0]	n/a	FR1	1	R1316T
995.096	1.63	995712	WORD	n/a	n/a	PHONE	8	7	[0, 0, 0]	n/a	FR1	1	R1316T
996.726	0.897	997342	WORD_OFF	n/a	n/a	PHONE	8	7	[0, 0, 0]	n/a	FR1	1	R1316T
997.623	1.637	998239	WORD	n/a	n/a	CHIN	9	7	[0, 0, 0]	n/a	FR1	1	R1316T
999.26	0.965	999875	WORD_OFF	n/a	n/a	CHIN	9	7	[0, 0, 0]	n/a	FR1	1	R1316T
1000.225	1.635	1000840	WORD	n/a	n/a	DUCK	10	7	[0, 0, 0]	n/a	FR1	1	R1316T
1001.86	0.846	1002475	WORD_OFF	n/a	n/a	DUCK	10	7	[0, 0, 0]	n/a	FR1	1	R1316T
1002.706	1.605	1003321	WORD	n/a	n/a	CUP	11	7	[0, 0, 0]	n/a	FR1	1	R1316T
1004.311	0.858	1004926	WORD_OFF	n/a	n/a	CUP	11	7	[0, 0, 0]	n/a	FR1	1	R1316T
1005.169	1.625	1005784	WORD	n/a	n/a	STAIR	12	7	[0, 0, 0]	n/a	FR1	1	R1316T
1006.794	0.001	1007409	WORD_OFF	n/a	n/a	STAIR	12	7	[0, 0, 0]	n/a	FR1	1	R1316T
1006.795	0.0	1007410	ENCODING_END	n/a	n/a	n/a	-999	7	[0, 0, 0]	n/a	FR1	1	R1316T
1006.795	0.0	1007410	DISTRACT_START	n/a	n/a	n/a	-999	7	[0, 0, 0]	n/a	FR1	1	R1316T
1006.795	0.016	1007410	START	n/a	n/a	n/a	-999	7	[-999, -999, -999]	n/a	FR1	1	R1316T
1006.811	2.418	1007426	PROB	2.418	n/a	n/a	-999	7	[1, 1, 1]	3	FR1	1	R1316T
1009.229	3.4	1009844	PROB	3.4	n/a	n/a	-999	7	[1, 8, 6]	15	FR1	1	R1316T
1012.629	3.283	1013244	PROB	3.283	n/a	n/a	-999	7	[4, 8, 1]	13	FR1	1	R1316T
1015.912	3.485	1016527	PROB	3.485	n/a	n/a	-999	7	[2, 9, 8]	19	FR1	1	R1316T
1019.397	3.951	1020012	PROB	3.951	n/a	n/a	-999	7	[6, 8, 5]	19	FR1	1	R1316T
1023.348	28.36	1023962	PROB	28.36	n/a	n/a	-999	7	[8, 8, 9]	25	FR1	1	R1316T
1051.708	0.011	1052321	STOP	n/a	n/a	n/a	-999	7	[-999, -999, -999]	n/a	FR1	1	R1316T
1051.719	0.645	1052332	DISTRACT_END	n/a	n/a	n/a	-999	7	[0, 0, 0]	n/a	FR1	1	R1316T
1052.364	1.622	1052977	RETRIEVAL_ORIENT_START	n/a	n/a	n/a	-999	7	[0, 0, 0]	n/a	FR1	1	R1316T
1053.986	0.0	1054599	RETRIEVAL_ORIENT_END	n/a	n/a	n/a	-999	7	[0, 0, 0]	n/a	FR1	1	R1316T
1053.986	1.909	1054599	REC_START	n/a	n/a	n/a	-999	7	[0, 0, 0]	n/a	FR1	1	R1316T
1055.895	0.744	1056508	REC_WORD	0.744	n/a	DUCK	10	7	[0, 0, 0]	n/a	FR1	1	R1316T
1056.639	0.811	1057252	REC_WORD	0.811	n/a	CHIN	9	7	[0, 0, 0]	n/a	FR1	1	R1316T
1057.45	0.924	1058063	REC_WORD	0.924	n/a	MUD	5	7	[0, 0, 0]	n/a	FR1	1	R1316T
1058.374	5.665	1058987	REC_WORD	5.665	n/a	MAT	3	7	[0, 0, 0]	n/a	FR1	1	R1316T
1064.039	2.83	1064652	REC_WORD	2.83	n/a	PARK	7	7	[0, 0, 0]	n/a	FR1	1	R1316T
1066.869	10.163	1067482	REC_WORD	10.163	n/a	BANK	4	7	[0, 0, 0]	n/a	FR1	1	R1316T
1077.032	6.968	1077644	REC_WORD	6.968	n/a	CAVE	2	7	[0, 0, 0]	n/a	FR1	1	R1316T
1084.0	0.0	1084612	REC_END	n/a	n/a	n/a	-999	7	[0, 0, 0]	n/a	FR1	1	R1316T
1084.0	0.014	1084612	TRIAL_END	n/a	n/a	n/a	-999	7	[0, 0, 0]	n/a	FR1	1	R1316T
1084.014	0.0	1084626	TRIAL_START	n/a	n/a	n/a	-999	8	[0, 0, 0]	n/a	FR1	1	R1316T
1084.014	0.0	1084626	TRIAL	n/a	n/a	n/a	-999	8	[0, 0, 0]	n/a	FR1	1	R1316T
1084.014	16.615	1084626	WAITING_START	n/a	n/a	n/a	-999	8	[0, 0, 0]	n/a	FR1	1	R1316T
1100.629	0.0	1101240	COUNTDOWN_START	n/a	n/a	n/a	-999	8	[0, 0, 0]	n/a	FR1	1	R1316T
1100.629	10.429	1101240	WAITING_END	n/a	n/a	n/a	-999	8	[0, 0, 0]	n/a	FR1	1	R1316T
1111.058	0.0	1111669	COUNTDOWN_END	n/a	n/a	n/a	-999	8	[0, 0, 0]	n/a	FR1	1	R1316T
1111.058	1.123	1111669	ORIENT_START	n/a	n/a	n/a	-999	8	[0, 0, 0]	n/a	FR1	1	R1316T
1112.181	0.0	1112792	ORIENT_END	n/a	n/a	n/a	-999	8	[0, 0, 0]	n/a	FR1	1	R1316T
1112.181	0.88	1112792	ENCODING_START	n/a	n/a	n/a	-999	8	[0, 0, 0]	n/a	FR1	1	R1316T
1113.061	1.636	1113672	WORD	n/a	n/a	HOSE	1	8	[0, 0, 0]	n/a	FR1	1	R1316T
1114.697	1.096	1115308	WORD_OFF	n/a	n/a	HOSE	1	8	[0, 0, 0]	n/a	FR1	1	R1316T
1115.793	1.605	1116404	WORD	n/a	n/a	BOARD	2	8	[0, 0, 0]	n/a	FR1	1	R1316T
1117.398	0.789	1118009	WORD_OFF	n/a	n/a	BOARD	2	8	[0, 0, 0]	n/a	FR1	1	R1316T
1118.187	1.628	1118798	WORD	n/a	n/a	STICK	3	8	[0, 0, 0]	n/a	FR1	1	R1316T
1119.815	0.878	1120425	WORD_OFF	n/a	n/a	STICK	3	8	[0, 0, 0]	n/a	FR1	1	R1316T
1120.693	1.623	1121303	WORD	n/a	n/a	CAT	4	8	[0, 0, 0]	n/a	FR1	1	R1316T
1122.316	0.962	1122926	WORD_OFF	n/a	n/a	CAT	4	8	[0, 0, 0]	n/a	FR1	1	R1316T
1123.278	1.621	1123888	WORD	n/a	n/a	PEA	5	8	[0, 0, 0]	n/a	FR1	1	R1316T
1124.899	0.784	1125509	WORD_OFF	n/a	n/a	PEA	5	8	[0, 0, 0]	n/a	FR1	1	R1316T
1125.683	1.634	1126293	WORD	n/a	n/a	JUICE	6	8	[0, 0, 0]	n/a	FR1	1	R1316T
1127.317	0.926	1127927	WORD_OFF	n/a	n/a	JUICE	6	8	[0, 0, 0]	n/a	FR1	1	R1316T
1128.243	1.623	1128853	WORD	n/a	n/a	NEST	7	8	[0, 0, 0]	n/a	FR1	1	R1316T
1129.866	0.781	1130476	WORD_OFF	n/a	n/a	NEST	7	8	[0, 0, 0]	n/a	FR1	1	R1316T
1130.647	1.638	1131257	WORD	n/a	n/a	STRAW	8	8	[0, 0, 0]	n/a	FR1	1	R1316T
1132.285	0.827	1132895	WORD_OFF	n/a	n/a	STRAW	8	8	[0, 0, 0]	n/a	FR1	1	R1316T
1133.112	1.622	1133722	WORD	n/a	n/a	WOOD	9	8	[0, 0, 0]	n/a	FR1	1	R1316T
1134.734	1.147	1135344	WORD_OFF	n/a	n/a	WOOD	9	8	[0, 0, 0]	n/a	FR1	1	R1316T
1135.881	1.638	1136491	WORD	n/a	n/a	BEAK	10	8	[0, 0, 0]	n/a	FR1	1	R1316T
1137.519	0.765	1138129	WORD_OFF	n/a	n/a	BEAK	10	8	[0, 0, 0]	n/a	FR1	1	R1316T
1138.284	1.634	1138894	WORD	n/a	n/a	BATH	11	8	[0, 0, 0]	n/a	FR1	1	R1316T
1139.918	0.758	1140528	WORD_OFF	n/a	n/a	BATH	11	8	[0, 0, 0]	n/a	FR1	1	R1316T
1140.676	1.61	1141286	WORD	n/a	n/a	FOOT	12	8	[0, 0, 0]	n/a	FR1	1	R1316T
1142.286	0.001	1142896	WORD_OFF	n/a	n/a	FOOT	12	8	[0, 0, 0]	n/a	FR1	1	R1316T
1142.287	0.0	1142897	ENCODING_END	n/a	n/a	n/a	-999	8	[0, 0, 0]	n/a	FR1	1	R1316T
1142.287	0.0	1142897	DISTRACT_START	n/a	n/a	n/a	-999	8	[0, 0, 0]	n/a	FR1	1	R1316T
1142.287	0.016	1142897	START	n/a	n/a	n/a	-999	8	[-999, -999, -999]	n/a	FR1	1	R1316T
1142.303	4.516	1142913	PROB	4.516	n/a	n/a	-999	8	[4, 6, 8]	18	FR1	1	R1316T
1146.819	4.951	1147428	PROB	4.951	n/a	n/a	-999	8	[4, 5, 7]	16	FR1	1	R1316T
1151.77	3.468	1152379	PROB	3.468	n/a	n/a	-999	8	[2, 6, 4]	12	FR1	1	R1316T
1155.238	5.335	1155847	PROB	5.335	n/a	n/a	-999	8	[5, 9, 9]	23	FR1	1	R1316T
1160.573	3.579	1161182	PROB	3.579	n/a	n/a	-999	8	[8, 8, 5]	21	FR1	1	R1316T
1164.152	0.022	1164761	STOP	n/a	n/a	n/a	-999	8	[-999, -999, -999]	n/a	FR1	1	R1316T
1164.174	0.516	1164783	DISTRACT_END	n/a	n/a	n/a	-999	8	[0, 0, 0]	n/a	FR1	1	R1316T
1164.69	1.634	1165299	RETRIEVAL_ORIENT_START	n/a	n/a	n/a	-999	8	[0, 0, 0]	n/a	FR1	1	R1316T
1166.324	0.0	1166933	RETRIEVAL_ORIENT_END	n/a	n/a	n/a	-999	8	[0, 0, 0]	n/a	FR1	1	R1316T
1166.324	2.527	1166933	REC_START	n/a	n/a	n/a	-999	8	[0, 0, 0]	n/a	FR1	1	R1316T
1168.851	0.899	1169459	REC_WORD	0.899	n/a	BEAK	10	8	[0, 0, 0]	n/a	FR1	1	R1316T
1169.75	14.884	1170358	REC_WORD	14.884	n/a	BATH	11	8	[0, 0, 0]	n/a	FR1	1	R1316T
1184.634	1.0	1185242	REC_WORD_VV	1.0	n/a	<>	-999	8	[0, 0, 0]	n/a	FR1	1	R1316T
1185.634	1.0	1186242	REC_WORD_VV	1.0	n/a	<>	-999	8	[0, 0, 0]	n/a	FR1	1	R1316T
1186.634	9.702	1187242	REC_WORD_VV	9.702	n/a	<>	-999	8	[0, 0, 0]	n/a	FR1	1	R1316T
1196.336	0.0	1196943	REC_END	n/a	n/a	n/a	-999	8	[0, 0, 0]	n/a	FR1	1	R1316T
1196.336	0.017	1196943	TRIAL_END	n/a	n/a	n/a	-999	8	[0, 0, 0]	n/a	FR1	1	R1316T
1196.353	0.0	1196960	TRIAL_START	n/a	n/a	n/a	-999	9	[0, 0, 0]	n/a	FR1	1	R1316T
1196.353	0.0	1196960	TRIAL	n/a	n/a	n/a	-999	9	[0, 0, 0]	n/a	FR1	1	R1316T
1196.353	7.928	1196960	WAITING_START	n/a	n/a	n/a	-999	9	[0, 0, 0]	n/a	FR1	1	R1316T
1204.281	0.0	1204888	WAITING_END	n/a	n/a	n/a	-999	9	[0, 0, 0]	n/a	FR1	1	R1316T
1204.281	10.429	1204888	COUNTDOWN_START	n/a	n/a	n/a	-999	9	[0, 0, 0]	n/a	FR1	1	R1316T
1214.71	0.001	1215317	COUNTDOWN_END	n/a	n/a	n/a	-999	9	[0, 0, 0]	n/a	FR1	1	R1316T
1214.711	1.071	1215318	ORIENT_START	n/a	n/a	n/a	-999	9	[0, 0, 0]	n/a	FR1	1	R1316T
1215.782	0.0	1216388	ORIENT_END	n/a	n/a	n/a	-999	9	[0, 0, 0]	n/a	FR1	1	R1316T
1215.782	0.818	1216388	ENCODING_START	n/a	n/a	n/a	-999	9	[0, 0, 0]	n/a	FR1	1	R1316T
1216.6	1.633	1217206	WORD	n/a	n/a	WHALE	1	9	[0, 0, 0]	n/a	FR1	1	R1316T
1218.233	0.997	1218839	WORD_OFF	n/a	n/a	WHALE	1	9	[0, 0, 0]	n/a	FR1	1	R1316T
1219.23	1.636	1219836	WORD	n/a	n/a	SPRING	2	9	[0, 0, 0]	n/a	FR1	1	R1316T
1220.866	1.098	1221472	WORD_OFF	n/a	n/a	SPRING	2	9	[0, 0, 0]	n/a	FR1	1	R1316T
1221.964	1.637	1222570	WORD	n/a	n/a	BROOM	3	9	[0, 0, 0]	n/a	FR1	1	R1316T
1223.601	0.815	1224207	WORD_OFF	n/a	n/a	BROOM	3	9	[0, 0, 0]	n/a	FR1	1	R1316T
1224.416	1.636	1225022	WORD	n/a	n/a	NET	4	9	[0, 0, 0]	n/a	FR1	1	R1316T
1226.052	0.848	1226658	WORD_OFF	n/a	n/a	NET	4	9	[0, 0, 0]	n/a	FR1	1	R1316T
1226.9	1.635	1227506	WORD	n/a	n/a	SHELL	5	9	[0, 0, 0]	n/a	FR1	1	R1316T
1228.535	0.984	1229141	WORD_OFF	n/a	n/a	SHELL	5	9	[0, 0, 0]	n/a	FR1	1	R1316T
1229.519	1.634	1230125	WORD	n/a	n/a	DOCK	6	9	[0, 0, 0]	n/a	FR1	1	R1316T
1231.153	1.1	1231759	WORD_OFF	n/a	n/a	DOCK	6	9	[0, 0, 0]	n/a	FR1	1	R1316T
1232.253	1.632	1232859	WORD	n/a	n/a	GRAPE	7	9	[0, 0, 0]	n/a	FR1	1	R1316T
1233.885	0.799	1234491	WORD_OFF	n/a	n/a	GRAPE	7	9	[0, 0, 0]	n/a	FR1	1	R1316T
1234.684	1.619	1235290	WORD	n/a	n/a	DRESS	8	9	[0, 0, 0]	n/a	FR1	1	R1316T
1236.303	0.776	1236909	WORD_OFF	n/a	n/a	DRESS	8	9	[0, 0, 0]	n/a	FR1	1	R1316T
1237.079	1.624	1237685	WORD	n/a	n/a	ARM	9	9	[0, 0, 0]	n/a	FR1	1	R1316T
1238.703	0.763	1239309	WORD_OFF	n/a	n/a	ARM	9	9	[0, 0, 0]	n/a	FR1	1	R1316T
1239.466	1.605	1240072	WORD	n/a	n/a	CUBE	10	9	[0, 0, 0]	n/a	FR1	1	R1316T
1241.071	0.895	1241676	WORD_OFF	n/a	n/a	CUBE	10	9	[0, 0, 0]	n/a	FR1	1	R1316T
1241.966	1.639	1242571	WORD	n/a	n/a	BRUSH	11	9	[0, 0, 0]	n/a	FR1	1	R1316T
1243.605	0.869	1244210	WORD_OFF	n/a	n/a	BRUSH	11	9	[0, 0, 0]	n/a	FR1	1	R1316T
1244.474	1.631	1245079	WORD	n/a	n/a	GLASS	12	9	[0, 0, 0]	n/a	FR1	1	R1316T
1246.105	0.001	1246710	WORD_OFF	n/a	n/a	GLASS	12	9	[0, 0, 0]	n/a	FR1	1	R1316T
1246.106	0.0	1246711	ENCODING_END	n/a	n/a	n/a	-999	9	[0, 0, 0]	n/a	FR1	1	R1316T
1246.106	0.0	1246711	DISTRACT_START	n/a	n/a	n/a	-999	9	[0, 0, 0]	n/a	FR1	1	R1316T
1246.106	0.016	1246711	START	n/a	n/a	n/a	-999	9	[-999, -999, -999]	n/a	FR1	1	R1316T
1246.122	6.65	1246727	PROB	6.65	n/a	n/a	-999	9	[9, 5, 8]	22	FR1	1	R1316T
1252.772	3.468	1253377	PROB	3.468	n/a	n/a	-999	9	[4, 9, 9]	22	FR1	1	R1316T
1256.24	4.6	1256845	PROB	4.6	n/a	n/a	-999	9	[5, 7, 2]	14	FR1	1	R1316T
1260.84	3.352	1261445	PROB	3.352	n/a	n/a	-999	9	[1, 5, 4]	10	FR1	1	R1316T
1264.192	2.905	1264796	PROB	2.905	n/a	n/a	-999	9	[8, 8, 6]	22	FR1	1	R1316T
1267.097	0.012	1267701	STOP	n/a	n/a	n/a	-999	9	[-999, -999, -999]	n/a	FR1	1	R1316T
1267.109	0.69	1267713	DISTRACT_END	n/a	n/a	n/a	-999	9	[0, 0, 0]	n/a	FR1	1	R1316T
1267.799	1.694	1268403	RETRIEVAL_ORIENT_START	n/a	n/a	n/a	-999	9	[0, 0, 0]	n/a	FR1	1	R1316T
1269.493	0.0	1270097	RETRIEVAL_ORIENT_END	n/a	n/a	n/a	-999	9	[0, 0, 0]	n/a	FR1	1	R1316T
1269.493	0.436	1270097	REC_START	n/a	n/a	n/a	-999	9	[0, 0, 0]	n/a	FR1	1	R1316T
1269.929	1.026	1270533	REC_WORD	1.026	n/a	WHALE	1	9	[0, 0, 0]	n/a	FR1	1	R1316T
1270.955	1.281	1271559	REC_WORD	1.281	n/a	SHELL	5	9	[0, 0, 0]	n/a	FR1	1	R1316T
1272.236	2.158	1272840	REC_WORD	2.158	n/a	DOCK	6	9	[0, 0, 0]	n/a	FR1	1	R1316T
1274.394	1.317	1274998	REC_WORD	1.317	n/a	DRESS	8	9	[0, 0, 0]	n/a	FR1	1	R1316T
1275.711	5.487	1276315	REC_WORD	5.487	n/a	BRUSH	11	9	[0, 0, 0]	n/a	FR1	1	R1316T
1281.198	8.223	1281802	REC_WORD	8.223	n/a	CUBE	10	9	[0, 0, 0]	n/a	FR1	1	R1316T
1289.421	10.085	1290024	REC_WORD	10.085	n/a	NET	4	9	[0, 0, 0]	n/a	FR1	1	R1316T
1299.506	0.0	1300109	REC_END	n/a	n/a	n/a	-999	9	[0, 0, 0]	n/a	FR1	1	R1316T
1299.506	0.015	1300109	TRIAL_END	n/a	n/a	n/a	-999	9	[0, 0, 0]	n/a	FR1	1	R1316T
1299.521	0.0	1300124	TRIAL_START	n/a	n/a	n/a	-999	10	[0, 0, 0]	n/a	FR1	1	R1316T
1299.521	0.0	1300124	TRIAL	n/a	n/a	n/a	-999	10	[0, 0, 0]	n/a	FR1	1	R1316T
1299.521	3.045	1300124	WAITING_START	n/a	n/a	n/a	-999	10	[0, 0, 0]	n/a	FR1	1	R1316T
1302.566	0.0	1303169	WAITING_END	n/a	n/a	n/a	-999	10	[0, 0, 0]	n/a	FR1	1	R1316T
1302.566	10.429	1303169	COUNTDOWN_START	n/a	n/a	n/a	-999	10	[0, 0, 0]	n/a	FR1	1	R1316T
1312.995	0.001	1313597	COUNTDOWN_END	n/a	n/a	n/a	-999	10	[0, 0, 0]	n/a	FR1	1	R1316T
1312.996	1.171	1313598	ORIENT_START	n/a	n/a	n/a	-999	10	[0, 0, 0]	n/a	FR1	1	R1316T
1314.167	0.001	1314769	ORIENT_END	n/a	n/a	n/a	-999	10	[0, 0, 0]	n/a	FR1	1	R1316T
1314.168	0.878	1314770	ENCODING_START	n/a	n/a	n/a	-999	10	[0, 0, 0]	n/a	FR1	1	R1316T
1315.046	1.621	1315648	WORD	n/a	n/a	HORN	1	10	[0, 0, 0]	n/a	FR1	1	R1316T
1316.667	0.8	1317269	WORD_OFF	n/a	n/a	HORN	1	10	[0, 0, 0]	n/a	FR1	1	R1316T
1317.467	1.635	1318069	WORD	n/a	n/a	SKUNK	2	10	[0, 0, 0]	n/a	FR1	1	R1316T
1319.102	1.038	1319704	WORD_OFF	n/a	n/a	SKUNK	2	10	[0, 0, 0]	n/a	FR1	1	R1316T
1320.14	1.628	1320742	WORD	n/a	n/a	HOUSE	3	10	[0, 0, 0]	n/a	FR1	1	R1316T
1321.768	0.928	1322370	WORD_OFF	n/a	n/a	HOUSE	3	10	[0, 0, 0]	n/a	FR1	1	R1316T
1322.696	1.607	1323298	WORD	n/a	n/a	COUCH	4	10	[0, 0, 0]	n/a	FR1	1	R1316T
1324.303	0.849	1324905	WORD_OFF	n/a	n/a	COUCH	4	10	[0, 0, 0]	n/a	FR1	1	R1316T
1325.152	1.634	1325754	WORD	n/a	n/a	TEETH	5	10	[0, 0, 0]	n/a	FR1	1	R1316T
1326.786	0.894	1327388	WORD_OFF	n/a	n/a	TEETH	5	10	[0, 0, 0]	n/a	FR1	1	R1316T
1327.68	1.624	1328282	WORD	n/a	n/a	FORT	6	10	[0, 0, 0]	n/a	FR1	1	R1316T
1329.304	0.955	1329906	WORD_OFF	n/a	n/a	FORT	6	10	[0, 0, 0]	n/a	FR1	1	R1316T
1330.259	1.627	1330861	WORD	n/a	n/a	PLANT	7	10	[0, 0, 0]	n/a	FR1	1	R1316T
1331.886	0.963	1332488	WORD_OFF	n/a	n/a	PLANT	7	10	[0, 0, 0]	n/a	FR1	1	R1316T
1332.849	1.622	1333451	WORD	n/a	n/a	BEACH	8	10	[0, 0, 0]	n/a	FR1	1	R1316T
1334.471	1.143	1335073	WORD_OFF	n/a	n/a	BEACH	8	10	[0, 0, 0]	n/a	FR1	1	R1316T
1335.614	1.624	1336216	WORD	n/a	n/a	WORLD	9	10	[0, 0, 0]	n/a	FR1	1	R1316T
1337.238	0.906	1337839	WORD_OFF	n/a	n/a	WORLD	9	10	[0, 0, 0]	n/a	FR1	1	R1316T
1338.144	1.627	1338745	WORD	n/a	n/a	TOOTH	10	10	[0, 0, 0]	n/a	FR1	1	R1316T
1339.771	0.842	1340372	WORD_OFF	n/a	n/a	TOOTH	10	10	[0, 0, 0]	n/a	FR1	1	R1316T
1340.613	1.626	1341214	WORD	n/a	n/a	NOSE	11	10	[0, 0, 0]	n/a	FR1	1	R1316T
1342.239	1.056	1342840	WORD_OFF	n/a	n/a	NOSE	11	10	[0, 0, 0]	n/a	FR1	1	R1316T
1343.295	1.627	1343896	WORD	n/a	n/a	CROWN	12	10	[0, 0, 0]	n/a	FR1	1	R1316T
1344.922	0.001	1345523	WORD_OFF	n/a	n/a	CROWN	12	10	[0, 0, 0]	n/a	FR1	1	R1316T
1344.923	0.0	1345524	ENCODING_END	n/a	n/a	n/a	-999	10	[0, 0, 0]	n/a	FR1	1	R1316T
1344.923	0.0	1345524	DISTRACT_START	n/a	n/a	n/a	-999	10	[0, 0, 0]	n/a	FR1	1	R1316T
1344.923	0.016	1345524	START	n/a	n/a	n/a	-999	10	[-999, -999, -999]	n/a	FR1	1	R1316T
1344.939	3.967	1345540	PROB	3.967	n/a	n/a	-999	10	[8, 2, 5]	15	FR1	1	R1316T
1348.906	3.034	1349507	PROB	3.034	n/a	n/a	-999	10	[3, 7, 9]	19	FR1	1	R1316T
1351.94	3.285	1352541	PROB	3.285	n/a	n/a	-999	10	[3, 9, 4]	16	FR1	1	R1316T
1355.225	5.65	1355826	PROB	5.65	n/a	n/a	-999	10	[2, 3, 8]	13	FR1	1	R1316T
1360.875	5.412	1361476	PROB	5.412	n/a	n/a	-999	10	[7, 1, 7]	15	FR1	1	R1316T
1366.287	0.023	1366887	STOP	n/a	n/a	n/a	-999	10	[-999, -999, -999]	n/a	FR1	1	R1316T
1366.31	0.556	1366910	DISTRACT_END	n/a	n/a	n/a	-999	10	[0, 0, 0]	n/a	FR1	1	R1316T
1366.866	1.545	1367466	RETRIEVAL_ORIENT_START	n/a	n/a	n/a	-999	10	[0, 0, 0]	n/a	FR1	1	R1316T
1368.411	0.0	1369011	RETRIEVAL_ORIENT_END	n/a	n/a	n/a	-999	10	[0, 0, 0]	n/a	FR1	1	R1316T
1368.411	0.85	1369011	REC_START	n/a	n/a	n/a	-999	10	[0, 0, 0]	n/a	FR1	1	R1316T
1369.261	1.719	1369861	REC_WORD	1.719	n/a	SKUNK	2	10	[0, 0, 0]	n/a	FR1	1	R1316T
1370.98	3.531	1371580	REC_WORD	3.531	n/a	HOSE	-999	10	[0, 0, 0]	n/a	FR1	1	R1316T
1374.511	1.103	1375111	REC_WORD	1.103	n/a	HOUSE	3	10	[0, 0, 0]	n/a	FR1	1	R1316T
1375.614	6.361	1376214	REC_WORD	6.361	n/a	PORCH	-999	10	[0, 0, 0]	n/a	FR1	1	R1316T
1381.975	2.692	1382575	REC_WORD	2.692	n/a	TEETH	5	10	[0, 0, 0]	n/a	FR1	1	R1316T
1384.667	1.281	1385267	REC_WORD	1.281	n/a	TOOTH	10	10	[0, 0, 0]	n/a	FR1	1	R1316T
1385.948	12.477	1386547	REC_WORD	12.477	n/a	NOSE	11	10	[0, 0, 0]	n/a	FR1	1	R1316T
1398.425	0.0	1399024	REC_END	n/a	n/a	n/a	-999	10	[0, 0, 0]	n/a	FR1	1	R1316T
1398.425	0.014	1399024	TRIAL_END	n/a	n/a	n/a	-999	10	[0, 0, 0]	n/a	FR1	1	R1316T
1398.439	0.001	1399038	TRIAL_START	n/a	n/a	n/a	-999	11	[0, 0, 0]	n/a	FR1	1	R1316T
1398.44	0.0	1399039	TRIAL	n/a	n/a	n/a	-999	11	[0, 0, 0]	n/a	FR1	1	R1316T
1398.44	11.929	1399039	WAITING_START	n/a	n/a	n/a	-999	11	[0, 0, 0]	n/a	FR1	1	R1316T
1410.369	0.0	1410967	WAITING_END	n/a	n/a	n/a	-999	11	[0, 0, 0]	n/a	FR1	1	R1316T
1410.369	10.429	1410967	COUNTDOWN_START	n/a	n/a	n/a	-999	11	[0, 0, 0]	n/a	FR1	1	R1316T
1420.798	0.0	1421396	ORIENT_START	n/a	n/a	n/a	-999	11	[0, 0, 0]	n/a	FR1	1	R1316T
1420.798	1.055	1421396	COUNTDOWN_END	n/a	n/a	n/a	-999	11	[0, 0, 0]	n/a	FR1	1	R1316T
1421.853	0.0	1422451	ORIENT_END	n/a	n/a	n/a	-999	11	[0, 0, 0]	n/a	FR1	1	R1316T
1421.853	1.047	1422451	ENCODING_START	n/a	n/a	n/a	-999	11	[0, 0, 0]	n/a	FR1	1	R1316T
1422.9	1.638	1423498	WORD	n/a	n/a	LAKE	1	11	[0, 0, 0]	n/a	FR1	1	R1316T
1424.538	0.914	1425136	WORD_OFF	n/a	n/a	LAKE	1	11	[0, 0, 0]	n/a	FR1	1	R1316T
1425.452	1.636	1426050	WORD	n/a	n/a	SLEEVE	2	11	[0, 0, 0]	n/a	FR1	1	R1316T
1427.088	0.938	1427686	WORD_OFF	n/a	n/a	SLEEVE	2	11	[0, 0, 0]	n/a	FR1	1	R1316T
1428.026	1.628	1428624	WORD	n/a	n/a	TOE	3	11	[0, 0, 0]	n/a	FR1	1	R1316T
1429.654	0.92	1430252	WORD_OFF	n/a	n/a	TOE	3	11	[0, 0, 0]	n/a	FR1	1	R1316T
1430.574	1.632	1431172	WORD	n/a	n/a	STREET	4	11	[0, 0, 0]	n/a	FR1	1	R1316T
1432.206	0.92	1432804	WORD_OFF	n/a	n/a	STREET	4	11	[0, 0, 0]	n/a	FR1	1	R1316T
1433.126	1.629	1433724	WORD	n/a	n/a	TREE	5	11	[0, 0, 0]	n/a	FR1	1	R1316T
1434.755	1.091	1435352	WORD_OFF	n/a	n/a	TREE	5	11	[0, 0, 0]	n/a	FR1	1	R1316T
1435.846	1.61	1436443	WORD	n/a	n/a	JUDGE	6	11	[0, 0, 0]	n/a	FR1	1	R1316T
1437.456	0.815	1438053	WORD_OFF	n/a	n/a	JUDGE	6	11	[0, 0, 0]	n/a	FR1	1	R1316T
1438.271	1.635	1438868	WORD	n/a	n/a	OWL	7	11	[0, 0, 0]	n/a	FR1	1	R1316T
1439.906	1.056	1440503	WORD_OFF	n/a	n/a	OWL	7	11	[0, 0, 0]	n/a	FR1	1	R1316T
1440.962	1.629	1441559	WORD	n/a	n/a	GEESE	8	11	[0, 0, 0]	n/a	FR1	1	R1316T
1442.591	0.939	1443188	WORD_OFF	n/a	n/a	GEESE	8	11	[0, 0, 0]	n/a	FR1	1	R1316T
1443.53	1.628	1444127	WORD	n/a	n/a	BRIDGE	9	11	[0, 0, 0]	n/a	FR1	1	R1316T
1445.158	0.838	1445755	WORD_OFF	n/a	n/a	BRIDGE	9	11	[0, 0, 0]	n/a	FR1	1	R1316T
1445.996	1.629	1446593	WORD	n/a	n/a	SIGN	10	11	[0, 0, 0]	n/a	FR1	1	R1316T
1447.625	1.117	1448222	WORD_OFF	n/a	n/a	SIGN	10	11	[0, 0, 0]	n/a	FR1	1	R1316T
1448.742	1.634	1449339	WORD	n/a	n/a	MOOSE	11	11	[0, 0, 0]	n/a	FR1	1	R1316T
1450.376	0.802	1450973	WORD_OFF	n/a	n/a	MOOSE	11	11	[0, 0, 0]	n/a	FR1	1	R1316T
1451.178	1.631	1451775	WORD	n/a	n/a	FOOD	12	11	[0, 0, 0]	n/a	FR1	1	R1316T
1452.809	0.0	1453406	WORD_OFF	n/a	n/a	FOOD	12	11	[0, 0, 0]	n/a	FR1	1	R1316T
1452.809	0.0	1453406	ENCODING_END	n/a	n/a	n/a	-999	11	[0, 0, 0]	n/a	FR1	1	R1316T
1452.809	0.001	1453406	DISTRACT_START	n/a	n/a	n/a	-999	11	[0, 0, 0]	n/a	FR1	1	R1316T
1452.81	0.015	1453407	START	n/a	n/a	n/a	-999	11	[-999, -999, -999]	n/a	FR1	1	R1316T
1452.825	3.618	1453422	PROB	3.618	n/a	n/a	-999	11	[1, 5, 8]	14	FR1	1	R1316T
1456.443	5.134	1457040	PROB	5.134	n/a	n/a	-999	11	[2, 5, 4]	11	FR1	1	R1316T
1461.577	3.1	1462173	PROB	3.1	n/a	n/a	-999	11	[4, 8, 2]	14	FR1	1	R1316T
1464.677	3.818	1465273	PROB	3.818	n/a	n/a	-999	11	[2, 6, 8]	16	FR1	1	R1316T
1468.495	3.001	1469091	PROB	3.001	n/a	n/a	-999	11	[1, 6, 7]	14	FR1	1	R1316T
1471.496	3.871	1472092	PROB	3.871	n/a	n/a	-999	11	[9, 3, 6]	18	FR1	1	R1316T
1475.367	0.013	1475963	STOP	n/a	n/a	n/a	-999	11	[-999, -999, -999]	n/a	FR1	1	R1316T
1475.38	0.636	1475976	DISTRACT_END	n/a	n/a	n/a	-999	11	[0, 0, 0]	n/a	FR1	1	R1316T
1476.016	1.68	1476612	RETRIEVAL_ORIENT_START	n/a	n/a	n/a	-999	11	[0, 0, 0]	n/a	FR1	1	R1316T
1477.696	0.001	1478292	RETRIEVAL_ORIENT_END	n/a	n/a	n/a	-999	11	[0, 0, 0]	n/a	FR1	1	R1316T
1477.697	0.63	1478293	REC_START	n/a	n/a	n/a	-999	11	[0, 0, 0]	n/a	FR1	1	R1316T
1478.327	0.973	1478923	REC_WORD	0.973	n/a	LAKE	1	11	[0, 0, 0]	n/a	FR1	1	R1316T
1479.3	0.989	1479896	REC_WORD	0.989	n/a	GEESE	8	11	[0, 0, 0]	n/a	FR1	1	R1316T
1480.289	1.5	1480885	REC_WORD	1.5	n/a	TOE	3	11	[0, 0, 0]	n/a	FR1	1	R1316T
1481.789	2.049	1482385	REC_WORD	2.049	n/a	MOOSE	11	11	[0, 0, 0]	n/a	FR1	1	R1316T
1483.838	23.87	1484433	REC_WORD	23.87	n/a	BRIDGE	9	11	[0, 0, 0]	n/a	FR1	1	R1316T
1507.708	0.0	1508302	REC_END	n/a	n/a	n/a	-999	11	[0, 0, 0]	n/a	FR1	1	R1316T
1507.708	0.046	1508302	TRIAL_END	n/a	n/a	n/a	-999	11	[0, 0, 0]	n/a	FR1	1	R1316T
1507.754	0.0	1508348	TRIAL_START	n/a	n/a	n/a	-999	12	[0, 0, 0]	n/a	FR1	1	R1316T
1507.754	0.0	1508348	TRIAL	n/a	n/a	n/a	-999	12	[0, 0, 0]	n/a	FR1	1	R1316T
1507.754	2.283	1508348	WAITING_START	n/a	n/a	n/a	-999	12	[0, 0, 0]	n/a	FR1	1	R1316T
1510.037	0.0	1510631	WAITING_END	n/a	n/a	n/a	-999	12	[0, 0, 0]	n/a	FR1	1	R1316T
1510.037	10.428	1510631	COUNTDOWN_START	n/a	n/a	n/a	-999	12	[0, 0, 0]	n/a	FR1	1	R1316T
1520.465	0.0	1521059	ORIENT_START	n/a	n/a	n/a	-999	12	[0, 0, 0]	n/a	FR1	1	R1316T
1520.465	1.107	1521059	COUNTDOWN_END	n/a	n/a	n/a	-999	12	[0, 0, 0]	n/a	FR1	1	R1316T
1521.572	0.0	1522166	ORIENT_END	n/a	n/a	n/a	-999	12	[0, 0, 0]	n/a	FR1	1	R1316T
1521.572	0.773	1522166	ENCODING_START	n/a	n/a	n/a	-999	12	[0, 0, 0]	n/a	FR1	1	R1316T
1522.345	1.626	1522939	WORD	n/a	n/a	HOOK	1	12	[0, 0, 0]	n/a	FR1	1	R1316T
1523.971	1.147	1524565	WORD_OFF	n/a	n/a	HOOK	1	12	[0, 0, 0]	n/a	FR1	1	R1316T
1525.118	1.621	1525712	WORD	n/a	n/a	HAT	2	12	[0, 0, 0]	n/a	FR1	1	R1316T
1526.739	1.05	1527333	WORD_OFF	n/a	n/a	HAT	2	12	[0, 0, 0]	n/a	FR1	1	R1316T
1527.789	1.618	1528383	WORD	n/a	n/a	ROOF	3	12	[0, 0, 0]	n/a	FR1	1	R1316T
1529.407	0.89	1530001	WORD_OFF	n/a	n/a	ROOF	3	12	[0, 0, 0]	n/a	FR1	1	R1316T
1530.297	1.626	1530891	WORD	n/a	n/a	FRUIT	4	12	[0, 0, 0]	n/a	FR1	1	R1316T
1531.923	0.863	1532516	WORD_OFF	n/a	n/a	FRUIT	4	12	[0, 0, 0]	n/a	FR1	1	R1316T
1532.786	1.622	1533379	WORD	n/a	n/a	WHEEL	5	12	[0, 0, 0]	n/a	FR1	1	R1316T
1534.408	0.954	1535001	WORD_OFF	n/a	n/a	WHEEL	5	12	[0, 0, 0]	n/a	FR1	1	R1316T
1535.362	1.629	1535955	WORD	n/a	n/a	LEG	6	12	[0, 0, 0]	n/a	FR1	1	R1316T
1536.991	0.878	1537584	WORD_OFF	n/a	n/a	LEG	6	12	[0, 0, 0]	n/a	FR1	1	R1316T
1537.869	1.606	1538462	WORD	n/a	n/a	SEAT	7	12	[0, 0, 0]	n/a	FR1	1	R1316T
1539.475	1.054	1540068	WORD_OFF	n/a	n/a	SEAT	7	12	[0, 0, 0]	n/a	FR1	1	R1316T
1540.529	1.63	1541122	WORD	n/a	n/a	PEARL	8	12	[0, 0, 0]	n/a	FR1	1	R1316T
1542.159	1.106	1542752	WORD_OFF	n/a	n/a	PEARL	8	12	[0, 0, 0]	n/a	FR1	1	R1316T
1543.265	1.627	1543858	WORD	n/a	n/a	GUARD	9	12	[0, 0, 0]	n/a	FR1	1	R1316T
1544.892	0.917	1545485	WORD_OFF	n/a	n/a	GUARD	9	12	[0, 0, 0]	n/a	FR1	1	R1316T
1545.809	1.618	1546402	WORD	n/a	n/a	GRASS	10	12	[0, 0, 0]	n/a	FR1	1	R1316T
1547.427	1.098	1548020	WORD_OFF	n/a	n/a	GRASS	10	12	[0, 0, 0]	n/a	FR1	1	R1316T
1548.525	1.636	1549118	WORD	n/a	n/a	ROOM	11	12	[0, 0, 0]	n/a	FR1	1	R1316T
1550.161	0.963	1550754	WORD_OFF	n/a	n/a	ROOM	11	12	[0, 0, 0]	n/a	FR1	1	R1316T
1551.124	1.636	1551717	WORD	n/a	n/a	CHALK	12	12	[0, 0, 0]	n/a	FR1	1	R1316T
1552.76	0.0	1553353	WORD_OFF	n/a	n/a	CHALK	12	12	[0, 0, 0]	n/a	FR1	1	R1316T
1552.76	0.001	1553353	ENCODING_END	n/a	n/a	n/a	-999	12	[0, 0, 0]	n/a	FR1	1	R1316T
1552.761	0.0	1553354	DISTRACT_START	n/a	n/a	n/a	-999	12	[0, 0, 0]	n/a	FR1	1	R1316T
1552.761	0.015	1553354	START	n/a	n/a	n/a	-999	12	[-999, -999, -999]	n/a	FR1	1	R1316T
1552.776	6.736	1553369	PROB	6.736	n/a	n/a	-999	12	[1, 5, 8]	14	FR1	1	R1316T
1559.512	8.502	1560104	PROB	8.502	n/a	n/a	-999	12	[9, 9, 5]	23	FR1	1	R1316T
1568.014	3.733	1568606	PROB	3.733	n/a	n/a	-999	12	[2, 1, 2]	5	FR1	1	R1316T
1571.747	3.548	1572339	PROB	3.548	n/a	n/a	-999	12	[1, 1, 2]	4	FR1	1	R1316T
1575.295	0.02	1575887	STOP	n/a	n/a	n/a	-999	12	[-999, -999, -999]	n/a	FR1	1	R1316T
1575.315	0.615	1575907	DISTRACT_END	n/a	n/a	n/a	-999	12	[0, 0, 0]	n/a	FR1	1	R1316T
1575.93	1.701	1576522	RETRIEVAL_ORIENT_START	n/a	n/a	n/a	-999	12	[0, 0, 0]	n/a	FR1	1	R1316T
1577.631	0.001	1578223	RETRIEVAL_ORIENT_END	n/a	n/a	n/a	-999	12	[0, 0, 0]	n/a	FR1	1	R1316T
1577.632	17.186	1578224	REC_START	n/a	n/a	n/a	-999	12	[0, 0, 0]	n/a	FR1	1	R1316T
1594.818	12.827	1595409	REC_WORD	12.827	n/a	HOOK	1	12	[0, 0, 0]	n/a	FR1	1	R1316T
1607.645	0.0	1608235	REC_END	n/a	n/a	n/a	-999	12	[0, 0, 0]	n/a	FR1	1	R1316T
1607.645	0.016	1608235	TRIAL_END	n/a	n/a	n/a	-999	12	[0, 0, 0]	n/a	FR1	1	R1316T
1607.661	0.001	1608251	TRIAL_START	n/a	n/a	n/a	-999	13	[0, 0, 0]	n/a	FR1	1	R1316T
1607.662	0.0	1608252	TRIAL	n/a	n/a	n/a	-999	13	[0, 0, 0]	n/a	FR1	1	R1316T
1607.662	30.431	1608252	WAITING_START	n/a	n/a	n/a	-999	13	[0, 0, 0]	n/a	FR1	1	R1316T
1638.093	0.001	1638682	WAITING_END	n/a	n/a	n/a	-999	13	[0, 0, 0]	n/a	FR1	1	R1316T
1638.094	10.428	1638683	COUNTDOWN_START	n/a	n/a	n/a	-999	13	[0, 0, 0]	n/a	FR1	1	R1316T
1648.522	0.001	1649111	COUNTDOWN_END	n/a	n/a	n/a	-999	13	[0, 0, 0]	n/a	FR1	1	R1316T
1648.523	1.039	1649112	ORIENT_START	n/a	n/a	n/a	-999	13	[0, 0, 0]	n/a	FR1	1	R1316T
1649.562	0.0	1650151	ORIENT_END	n/a	n/a	n/a	-999	13	[0, 0, 0]	n/a	FR1	1	R1316T
1649.562	0.906	1650151	ENCODING_START	n/a	n/a	n/a	-999	13	[0, 0, 0]	n/a	FR1	1	R1316T
1650.468	1.628	1651057	WORD	n/a	n/a	OAR	1	13	[0, 0, 0]	n/a	FR1	1	R1316T
1652.096	0.999	1652684	WORD_OFF	n/a	n/a	OAR	1	13	[0, 0, 0]	n/a	FR1	1	R1316T
1653.095	1.633	1653683	WORD	n/a	n/a	LAWN	2	13	[0, 0, 0]	n/a	FR1	1	R1316T
1654.728	1.04	1655316	WORD_OFF	n/a	n/a	LAWN	2	13	[0, 0, 0]	n/a	FR1	1	R1316T
1655.768	1.612	1656356	WORD	n/a	n/a	GATE	3	13	[0, 0, 0]	n/a	FR1	1	R1316T
1657.38	0.943	1657968	WORD_OFF	n/a	n/a	GATE	3	13	[0, 0, 0]	n/a	FR1	1	R1316T
1658.323	1.623	1658911	WORD	n/a	n/a	SHEET	4	13	[0, 0, 0]	n/a	FR1	1	R1316T
1659.946	0.756	1660534	WORD_OFF	n/a	n/a	SHEET	4	13	[0, 0, 0]	n/a	FR1	1	R1316T
1660.702	1.629	1661290	WORD	n/a	n/a	PALM	5	13	[0, 0, 0]	n/a	FR1	1	R1316T
1662.331	0.976	1662919	WORD_OFF	n/a	n/a	PALM	5	13	[0, 0, 0]	n/a	FR1	1	R1316T
1663.307	1.623	1663895	WORD	n/a	n/a	CAPE	6	13	[0, 0, 0]	n/a	FR1	1	R1316T
1664.93	0.926	1665518	WORD_OFF	n/a	n/a	CAPE	6	13	[0, 0, 0]	n/a	FR1	1	R1316T
1665.856	1.626	1666444	WORD	n/a	n/a	DESK	7	13	[0, 0, 0]	n/a	FR1	1	R1316T
1667.482	1.076	1668070	WORD_OFF	n/a	n/a	DESK	7	13	[0, 0, 0]	n/a	FR1	1	R1316T
1668.558	1.624	1669146	WORD	n/a	n/a	WORM	8	13	[0, 0, 0]	n/a	FR1	1	R1316T
1670.182	0.832	1670770	WORD_OFF	n/a	n/a	WORM	8	13	[0, 0, 0]	n/a	FR1	1	R1316T
1671.014	1.635	1671602	WORD	n/a	n/a	CHEEK	9	13	[0, 0, 0]	n/a	FR1	1	R1316T
1672.649	0.771	1673237	WORD_OFF	n/a	n/a	CHEEK	9	13	[0, 0, 0]	n/a	FR1	1	R1316T
1673.42	1.63	1674008	WORD	n/a	n/a	ROOT	10	13	[0, 0, 0]	n/a	FR1	1	R1316T
1675.05	0.899	1675638	WORD_OFF	n/a	n/a	ROOT	10	13	[0, 0, 0]	n/a	FR1	1	R1316T
1675.949	1.635	1676536	WORD	n/a	n/a	STRING	11	13	[0, 0, 0]	n/a	FR1	1	R1316T
1677.584	0.998	1678171	WORD_OFF	n/a	n/a	STRING	11	13	[0, 0, 0]	n/a	FR1	1	R1316T
1678.582	1.635	1679169	WORD	n/a	n/a	MAP	12	13	[0, 0, 0]	n/a	FR1	1	R1316T
1680.217	0.001	1680804	WORD_OFF	n/a	n/a	MAP	12	13	[0, 0, 0]	n/a	FR1	1	R1316T
1680.218	0.0	1680805	ENCODING_END	n/a	n/a	n/a	-999	13	[0, 0, 0]	n/a	FR1	1	R1316T
1680.218	0.0	1680805	DISTRACT_START	n/a	n/a	n/a	-999	13	[0, 0, 0]	n/a	FR1	1	R1316T
1680.218	0.016	1680805	START	n/a	n/a	n/a	-999	13	[-999, -999, -999]	n/a	FR1	1	R1316T
1680.234	3.884	1680821	PROB	3.884	n/a	n/a	-999	13	[3, 6, 9]	18	FR1	1	R1316T
1684.118	5.134	1684705	PROB	5.134	n/a	n/a	-999	13	[9, 7, 9]	25	FR1	1	R1316T
1689.252	2.851	1689839	PROB	2.851	n/a	n/a	-999	13	[2, 2, 3]	7	FR1	1	R1316T
1692.103	3.733	1692690	PROB	3.733	n/a	n/a	-999	13	[6, 6, 8]	20	FR1	1	R1316T
1695.836	5.008	1696423	PROB	5.008	n/a	n/a	-999	13	[7, 9, 6]	24	FR1	1	R1316T
1700.844	0.01	1701430	STOP	n/a	n/a	n/a	-999	13	[-999, -999, -999]	n/a	FR1	1	R1316T
1700.854	0.666	1701440	DISTRACT_END	n/a	n/a	n/a	-999	13	[0, 0, 0]	n/a	FR1	1	R1316T
1701.52	1.685	1702106	RETRIEVAL_ORIENT_START	n/a	n/a	n/a	-999	13	[0, 0, 0]	n/a	FR1	1	R1316T
1703.205	0.0	1703791	RETRIEVAL_ORIENT_END	n/a	n/a	n/a	-999	13	[0, 0, 0]	n/a	FR1	1	R1316T
1703.205	2.281	1703791	REC_START	n/a	n/a	n/a	-999	13	[0, 0, 0]	n/a	FR1	1	R1316T
1705.486	1.0	1706072	REC_WORD_VV	1.0	n/a	<>	-999	13	[0, 0, 0]	n/a	FR1	1	R1316T
1706.486	1.645	1707072	REC_WORD_VV	1.645	n/a	<>	-999	13	[0, 0, 0]	n/a	FR1	1	R1316T
1708.131	2.583	1708717	REC_WORD_VV	2.583	n/a	<>	-999	13	[0, 0, 0]	n/a	FR1	1	R1316T
1710.714	0.998	1711300	REC_WORD	0.998	n/a	OAR	1	13	[0, 0, 0]	n/a	FR1	1	R1316T
1711.712	1.121	1712298	REC_WORD	1.121	n/a	PALM	5	13	[0, 0, 0]	n/a	FR1	1	R1316T
1712.833	20.384	1713419	REC_WORD	20.384	n/a	WORM	8	13	[0, 0, 0]	n/a	FR1	1	R1316T
1733.217	0.0	1733802	REC_END	n/a	n/a	n/a	-999	13	[0, 0, 0]	n/a	FR1	1	R1316T
1733.217	0.016	1733802	TRIAL_END	n/a	n/a	n/a	-999	13	[0, 0, 0]	n/a	FR1	1	R1316T
1733.233	0.0	1733818	TRIAL	n/a	n/a	n/a	-999	14	[0, 0, 0]	n/a	FR1	1	R1316T
1733.233	0.0	1733818	WAITING_START	n/a	n/a	n/a	-999	14	[0, 0, 0]	n/a	FR1	1	R1316T
1733.233	4.278	1733818	TRIAL_START	n/a	n/a	n/a	-999	14	[0, 0, 0]	n/a	FR1	1	R1316T
1737.511	0.001	1738096	WAITING_END	n/a	n/a	n/a	-999	14	[0, 0, 0]	n/a	FR1	1	R1316T
1737.512	10.429	1738097	COUNTDOWN_START	n/a	n/a	n/a	-999	14	[0, 0, 0]	n/a	FR1	1	R1316T
1747.941	0.0	1748526	COUNTDOWN_END	n/a	n/a	n/a	-999	14	[0, 0, 0]	n/a	FR1	1	R1316T
1747.941	1.139	1748526	ORIENT_START	n/a	n/a	n/a	-999	14	[0, 0, 0]	n/a	FR1	1	R1316T
1749.08	0.0	1749664	ORIENT_END	n/a	n/a	n/a	-999	14	[0, 0, 0]	n/a	FR1	1	R1316T
1749.08	0.972	1749664	ENCODING_START	n/a	n/a	n/a	-999	14	[0, 0, 0]	n/a	FR1	1	R1316T
1750.052	1.628	1750636	WORD	n/a	n/a	TOAST	1	14	[0, 0, 0]	n/a	FR1	1	R1316T
1751.68	1.081	1752264	WORD_OFF	n/a	n/a	TOAST	1	14	[0, 0, 0]	n/a	FR1	1	R1316T
1752.761	1.637	1753345	WORD	n/a	n/a	HEN	2	14	[0, 0, 0]	n/a	FR1	1	R1316T
1754.398	0.906	1754982	WORD_OFF	n/a	n/a	HEN	2	14	[0, 0, 0]	n/a	FR1	1	R1316T
1755.304	1.626	1755888	WORD	n/a	n/a	STEAK	3	14	[0, 0, 0]	n/a	FR1	1	R1316T
1756.93	0.964	1757514	WORD_OFF	n/a	n/a	STEAK	3	14	[0, 0, 0]	n/a	FR1	1	R1316T
1757.894	1.638	1758478	WORD	n/a	n/a	CORD	4	14	[0, 0, 0]	n/a	FR1	1	R1316T
1759.532	0.928	1760116	WORD_OFF	n/a	n/a	CORD	4	14	[0, 0, 0]	n/a	FR1	1	R1316T
1760.46	1.622	1761044	WORD	n/a	n/a	STORM	5	14	[0, 0, 0]	n/a	FR1	1	R1316T
1762.082	0.94	1762666	WORD_OFF	n/a	n/a	STORM	5	14	[0, 0, 0]	n/a	FR1	1	R1316T
1763.022	1.627	1763606	WORD	n/a	n/a	ANT	6	14	[0, 0, 0]	n/a	FR1	1	R1316T
1764.649	0.968	1765233	WORD_OFF	n/a	n/a	ANT	6	14	[0, 0, 0]	n/a	FR1	1	R1316T
1765.617	1.633	1766201	WORD	n/a	n/a	BIRD	7	14	[0, 0, 0]	n/a	FR1	1	R1316T
1767.25	0.977	1767834	WORD_OFF	n/a	n/a	BIRD	7	14	[0, 0, 0]	n/a	FR1	1	R1316T
1768.227	1.623	1768811	WORD	n/a	n/a	SEA	8	14	[0, 0, 0]	n/a	FR1	1	R1316T
1769.85	0.929	1770434	WORD_OFF	n/a	n/a	SEA	8	14	[0, 0, 0]	n/a	FR1	1	R1316T
1770.779	1.622	1771363	WORD	n/a	n/a	MOON	9	14	[0, 0, 0]	n/a	FR1	1	R1316T
1772.401	0.98	1772985	WORD_OFF	n/a	n/a	MOON	9	14	[0, 0, 0]	n/a	FR1	1	R1316T
1773.381	1.637	1773964	WORD	n/a	n/a	SCHOOL	10	14	[0, 0, 0]	n/a	FR1	1	R1316T
1775.018	0.982	1775601	WORD_OFF	n/a	n/a	SCHOOL	10	14	[0, 0, 0]	n/a	FR1	1	R1316T
1776.0	1.634	1776583	WORD	n/a	n/a	SLIME	11	14	[0, 0, 0]	n/a	FR1	1	R1316T
1777.634	0.881	1778217	WORD_OFF	n/a	n/a	SLIME	11	14	[0, 0, 0]	n/a	FR1	1	R1316T
1778.515	1.621	1779098	WORD	n/a	n/a	BOY	12	14	[0, 0, 0]	n/a	FR1	1	R1316T
1780.136	0.0	1780719	WORD_OFF	n/a	n/a	BOY	12	14	[0, 0, 0]	n/a	FR1	1	R1316T
1780.136	0.0	1780719	ENCODING_END	n/a	n/a	n/a	-999	14	[0, 0, 0]	n/a	FR1	1	R1316T
1780.136	0.0	1780719	DISTRACT_START	n/a	n/a	n/a	-999	14	[0, 0, 0]	n/a	FR1	1	R1316T
1780.136	0.016	1780719	START	n/a	n/a	n/a	-999	14	[-999, -999, -999]	n/a	FR1	1	R1316T
1780.152	4.5	1780735	PROB	4.5	n/a	n/a	-999	14	[3, 6, 9]	18	FR1	1	R1316T
1784.652	4.552	1785235	PROB	4.552	n/a	n/a	-999	14	[7, 6, 6]	19	FR1	1	R1316T
1789.204	7.268	1789787	PROB	7.268	n/a	n/a	-999	14	[8, 9, 4]	21	FR1	1	R1316T
1796.472	4.408	1797055	PROB	4.408	n/a	n/a	-999	14	[5, 8, 6]	19	FR1	1	R1316T
1800.88	0.009	1801462	STOP	n/a	n/a	n/a	-999	14	[-999, -999, -999]	n/a	FR1	1	R1316T
1800.889	0.673	1801471	DISTRACT_END	n/a	n/a	n/a	-999	14	[0, 0, 0]	n/a	FR1	1	R1316T
1801.562	1.611	1802144	RETRIEVAL_ORIENT_START	n/a	n/a	n/a	-999	14	[0, 0, 0]	n/a	FR1	1	R1316T
1803.173	0.001	1803755	RETRIEVAL_ORIENT_END	n/a	n/a	n/a	-999	14	[0, 0, 0]	n/a	FR1	1	R1316T
1803.174	0.945	1803756	REC_START	n/a	n/a	n/a	-999	14	[0, 0, 0]	n/a	FR1	1	R1316T
1804.119	0.763	1804701	REC_WORD	0.763	n/a	TOAST	1	14	[0, 0, 0]	n/a	FR1	1	R1316T
1804.882	2.483	1805464	REC_WORD	2.483	n/a	STEAK	3	14	[0, 0, 0]	n/a	FR1	1	R1316T
1807.365	0.884	1807947	REC_WORD	0.884	n/a	HEN	2	14	[0, 0, 0]	n/a	FR1	1	R1316T
1808.249	1.141	1808831	REC_WORD	1.141	n/a	SLIME	11	14	[0, 0, 0]	n/a	FR1	1	R1316T
1809.39	1.255	1809972	REC_WORD	1.255	n/a	SEA	8	14	[0, 0, 0]	n/a	FR1	1	R1316T
1810.645	1.427	1811227	REC_WORD	1.427	n/a	MOON	9	14	[0, 0, 0]	n/a	FR1	1	R1316T
1812.072	0.884	1812654	REC_WORD	0.884	n/a	BOY	12	14	[0, 0, 0]	n/a	FR1	1	R1316T
1812.956	20.23	1813538	REC_WORD	20.23	n/a	SCHOOL	10	14	[0, 0, 0]	n/a	FR1	1	R1316T
1833.186	0.0	1833767	REC_END	n/a	n/a	n/a	-999	14	[0, 0, 0]	n/a	FR1	1	R1316T
1833.186	0.016	1833767	TRIAL_END	n/a	n/a	n/a	-999	14	[0, 0, 0]	n/a	FR1	1	R1316T
1833.202	0.0	1833783	WAITING_START	n/a	n/a	n/a	-999	15	[0, 0, 0]	n/a	FR1	1	R1316T
1833.202	0.0	1833783	TRIAL_START	n/a	n/a	n/a	-999	15	[0, 0, 0]	n/a	FR1	1	R1316T
1833.202	2.394	1833783	TRIAL	n/a	n/a	n/a	-999	15	[0, 0, 0]	n/a	FR1	1	R1316T
1835.596	0.0	1836177	WAITING_END	n/a	n/a	n/a	-999	15	[0, 0, 0]	n/a	FR1	1	R1316T
1835.596	10.429	1836177	COUNTDOWN_START	n/a	n/a	n/a	-999	15	[0, 0, 0]	n/a	FR1	1	R1316T
1846.025	0.0	1846605	COUNTDOWN_END	n/a	n/a	n/a	-999	15	[0, 0, 0]	n/a	FR1	1	R1316T
1846.025	1.24	1846605	ORIENT_START	n/a	n/a	n/a	-999	15	[0, 0, 0]	n/a	FR1	1	R1316T
1847.265	0.0	1847845	ORIENT_END	n/a	n/a	n/a	-999	15	[0, 0, 0]	n/a	FR1	1	R1316T
1847.265	0.964	1847845	ENCODING_START	n/a	n/a	n/a	-999	15	[0, 0, 0]	n/a	FR1	1	R1316T
1848.229	1.635	1848809	WORD	n/a	n/a	PEN	1	15	[0, 0, 0]	n/a	FR1	1	R1316T
1849.864	0.9	1850444	WORD_OFF	n/a	n/a	PEN	1	15	[0, 0, 0]	n/a	FR1	1	R1316T
1850.764	1.635	1851344	WORD	n/a	n/a	DART	2	15	[0, 0, 0]	n/a	FR1	1	R1316T
1852.399	0.789	1852979	WORD_OFF	n/a	n/a	DART	2	15	[0, 0, 0]	n/a	FR1	1	R1316T
1853.188	1.627	1853768	WORD	n/a	n/a	TAIL	3	15	[0, 0, 0]	n/a	FR1	1	R1316T
1854.815	0.836	1855395	WORD_OFF	n/a	n/a	TAIL	3	15	[0, 0, 0]	n/a	FR1	1	R1316T
1855.651	1.632	1856231	WORD	n/a	n/a	RIB	4	15	[0, 0, 0]	n/a	FR1	1	R1316T
1857.283	0.9	1857863	WORD_OFF	n/a	n/a	RIB	4	15	[0, 0, 0]	n/a	FR1	1	R1316T
1858.183	1.633	1858763	WORD	n/a	n/a	DOOR	5	15	[0, 0, 0]	n/a	FR1	1	R1316T
1859.816	1.102	1860396	WORD_OFF	n/a	n/a	DOOR	5	15	[0, 0, 0]	n/a	FR1	1	R1316T
1860.918	1.633	1861498	WORD	n/a	n/a	BAND	6	15	[0, 0, 0]	n/a	FR1	1	R1316T
1862.551	0.97	1863131	WORD_OFF	n/a	n/a	BAND	6	15	[0, 0, 0]	n/a	FR1	1	R1316T
1863.521	1.63	1864101	WORD	n/a	n/a	SHOE	7	15	[0, 0, 0]	n/a	FR1	1	R1316T
1865.151	0.815	1865731	WORD_OFF	n/a	n/a	SHOE	7	15	[0, 0, 0]	n/a	FR1	1	R1316T
1865.966	1.619	1866546	WORD	n/a	n/a	SHRIMP	8	15	[0, 0, 0]	n/a	FR1	1	R1316T
1867.585	0.835	1868165	WORD_OFF	n/a	n/a	SHRIMP	8	15	[0, 0, 0]	n/a	FR1	1	R1316T
1868.42	1.632	1869000	WORD	n/a	n/a	DITCH	9	15	[0, 0, 0]	n/a	FR1	1	R1316T
1870.052	0.884	1870631	WORD_OFF	n/a	n/a	DITCH	9	15	[0, 0, 0]	n/a	FR1	1	R1316T
1870.936	1.633	1871515	WORD	n/a	n/a	CANE	10	15	[0, 0, 0]	n/a	FR1	1	R1316T
1872.569	0.912	1873148	WORD_OFF	n/a	n/a	CANE	10	15	[0, 0, 0]	n/a	FR1	1	R1316T
1873.481	1.622	1874060	WORD	n/a	n/a	PIN	11	15	[0, 0, 0]	n/a	FR1	1	R1316T
1875.103	1.017	1875682	WORD_OFF	n/a	n/a	PIN	11	15	[0, 0, 0]	n/a	FR1	1	R1316T
1876.12	1.632	1876699	WORD	n/a	n/a	FARM	12	15	[0, 0, 0]	n/a	FR1	1	R1316T
1877.752	0.001	1878331	WORD_OFF	n/a	n/a	FARM	12	15	[0, 0, 0]	n/a	FR1	1	R1316T
1877.753	0.0	1878332	DISTRACT_START	n/a	n/a	n/a	-999	15	[0, 0, 0]	n/a	FR1	1	R1316T
1877.753	0.0	1878332	ENCODING_END	n/a	n/a	n/a	-999	15	[0, 0, 0]	n/a	FR1	1	R1316T
1877.753	0.016	1878332	START	n/a	n/a	n/a	-999	15	[-999, -999, -999]	n/a	FR1	1	R1316T
1877.769	5.167	1878348	PROB	5.167	n/a	n/a	-999	15	[6, 8, 6]	20	FR1	1	R1316T
1882.936	4.768	1883515	PROB	4.768	n/a	n/a	-999	15	[3, 9, 8]	20	FR1	1	R1316T
1887.704	3.652	1888283	PROB	3.652	n/a	n/a	-999	15	[8, 9, 1]	18	FR1	1	R1316T
1891.356	2.684	1891935	PROB	2.684	n/a	n/a	-999	15	[1, 1, 4]	6	FR1	1	R1316T
1894.04	3.666	1894618	PROB	3.666	n/a	n/a	-999	15	[9, 7, 2]	18	FR1	1	R1316T
1897.706	3.627	1898284	PROB	3.627	n/a	n/a	-999	15	[3, 1, 3]	7	FR1	1	R1316T
1901.333	0.008	1901911	STOP	n/a	n/a	n/a	-999	15	[-999, -999, -999]	n/a	FR1	1	R1316T
1901.341	0.552	1901919	DISTRACT_END	n/a	n/a	n/a	-999	15	[0, 0, 0]	n/a	FR1	1	R1316T
1901.893	1.632	1902471	RETRIEVAL_ORIENT_START	n/a	n/a	n/a	-999	15	[0, 0, 0]	n/a	FR1	1	R1316T
1903.525	0.0	1904103	RETRIEVAL_ORIENT_END	n/a	n/a	n/a	-999	15	[0, 0, 0]	n/a	FR1	1	R1316T
1903.525	4.639	1904103	REC_START	n/a	n/a	n/a	-999	15	[0, 0, 0]	n/a	FR1	1	R1316T
1908.164	1.992	1908742	REC_WORD	1.992	n/a	FARM	12	15	[0, 0, 0]	n/a	FR1	1	R1316T
1910.156	11.292	1910734	REC_WORD	11.292	n/a	CANE	10	15	[0, 0, 0]	n/a	FR1	1	R1316T
1921.448	12.091	1922025	REC_WORD	12.091	n/a	DITCH	9	15	[0, 0, 0]	n/a	FR1	1	R1316T
1933.539	0.0	1934116	REC_END	n/a	n/a	n/a	-999	15	[0, 0, 0]	n/a	FR1	1	R1316T
1933.539	0.015	1934116	TRIAL_END	n/a	n/a	n/a	-999	15	[0, 0, 0]	n/a	FR1	1	R1316T
1933.554	0.0	1934131	TRIAL	n/a	n/a	n/a	-999	16	[0, 0, 0]	n/a	FR1	1	R1316T
1933.554	0.0	1934131	TRIAL_START	n/a	n/a	n/a	-999	16	[0, 0, 0]	n/a	FR1	1	R1316T
1933.554	41.05	1934131	WAITING_START	n/a	n/a	n/a	-999	16	[0, 0, 0]	n/a	FR1	1	R1316T
1974.604	0.001	1975179	WAITING_END	n/a	n/a	n/a	-999	16	[0, 0, 0]	n/a	FR1	1	R1316T
1974.605	0.0	1975180	COUNTDOWN_START	n/a	n/a	n/a	-999	16	[0, 0, 0]	n/a	FR1	1	R1316T
