onset	duration	sample	trial_type	response_time	stim_file	item_name	serialpos	list	test	answer	experiment	session	subject
0.0	1.351	28680	INSTRUCT_START	n/a	n/a	n/a	-999	-999	[0, 0, 0]	n/a	FR1	1	R1404E
1.351	28.115	30037	INSTRUCT_END	n/a	n/a	n/a	-999	-999	[0, 0, 0]	n/a	FR1	1	R1404E
29.466	10.417	58148	COUNTDOWN_START	n/a	n/a	n/a	-999	-999	[0, 0, 0]	n/a	FR1	1	R1404E
39.883	0.0	68564	COUNTDOWN_END	n/a	n/a	n/a	-999	-999	[0, 0, 0]	n/a	FR1	1	R1404E
39.883	1.966	68564	ENCODING_START	n/a	n/a	n/a	-999	-1	[0, 0, 0]	n/a	FR1	1	R1404E
41.849	1.617	70534	WORD	n/a	n/a	WAND	1	-1	[0, 0, 0]	n/a	FR1	1	R1404E
43.466	0.799	72153	WORD_OFF	n/a	n/a	WAND	1	-1	[0, 0, 0]	n/a	FR1	1	R1404E
44.265	1.6	72955	WORD	n/a	n/a	CASH	2	-1	[0, 0, 0]	n/a	FR1	1	R1404E
45.865	1.0	74545	WORD_OFF	n/a	n/a	CASH	2	-1	[0, 0, 0]	n/a	FR1	1	R1404E
46.865	1.6	75552	WORD	n/a	n/a	BAT	3	-1	[0, 0, 0]	n/a	FR1	1	R1404E
48.465	0.983	77157	WORD_OFF	n/a	n/a	BAT	3	-1	[0, 0, 0]	n/a	FR1	1	R1404E
49.448	1.6	78134	WORD	n/a	n/a	MOLE	4	-1	[0, 0, 0]	n/a	FR1	1	R1404E
51.048	0.867	79739	WORD_OFF	n/a	n/a	MOLE	4	-1	[0, 0, 0]	n/a	FR1	1	R1404E
51.915	1.617	80600	WORD	n/a	n/a	BRANCH	5	-1	[0, 0, 0]	n/a	FR1	1	R1404E
53.532	0.8	82219	WORD_OFF	n/a	n/a	BRANCH	5	-1	[0, 0, 0]	n/a	FR1	1	R1404E
54.332	1.616	83021	WORD	n/a	n/a	GIRL	6	-1	[0, 0, 0]	n/a	FR1	1	R1404E
55.948	0.933	84640	WORD_OFF	n/a	n/a	GIRL	6	-1	[0, 0, 0]	n/a	FR1	1	R1404E
56.881	1.6	85560	WORD	n/a	n/a	WRIST	7	-1	[0, 0, 0]	n/a	FR1	1	R1404E
58.481	0.867	87164	WORD_OFF	n/a	n/a	WRIST	7	-1	[0, 0, 0]	n/a	FR1	1	R1404E
59.348	1.616	88040	WORD	n/a	n/a	KEY	8	-1	[0, 0, 0]	n/a	FR1	1	R1404E
60.964	0.901	89644	WORD_OFF	n/a	n/a	KEY	8	-1	[0, 0, 0]	n/a	FR1	1	R1404E
61.865	1.616	90549	WORD	n/a	n/a	SHARK	9	-1	[0, 0, 0]	n/a	FR1	1	R1404E
63.481	1.0	92168	WORD_OFF	n/a	n/a	SHARK	9	-1	[0, 0, 0]	n/a	FR1	1	R1404E
64.481	1.6	93160	WORD	n/a	n/a	HOUND	10	-1	[0, 0, 0]	n/a	FR1	1	R1404E
66.081	1.0	94765	WORD_OFF	n/a	n/a	HOUND	10	-1	[0, 0, 0]	n/a	FR1	1	R1404E
67.081	1.619	95771	WORD	n/a	n/a	TOOTH	11	-1	[0, 0, 0]	n/a	FR1	1	R1404E
68.7	0.947	97391	WORD_OFF	n/a	n/a	TOOTH	11	-1	[0, 0, 0]	n/a	FR1	1	R1404E
69.647	1.617	98339	WORD	n/a	n/a	RAT	12	-1	[0, 0, 0]	n/a	FR1	1	R1404E
71.264	0.001	99944	WORD_OFF	n/a	n/a	RAT	12	-1	[0, 0, 0]	n/a	FR1	1	R1404E
71.265	0.0	99944	ENCODING_END	n/a	n/a	n/a	-999	-1	[0, 0, 0]	n/a	FR1	1	R1404E
71.265	0.0	99949	START	n/a	n/a	n/a	-999	-1	[-999, -999, -999]	n/a	FR1	1	R1404E
71.265	0.0	99949	PROB	0.0	n/a	n/a	-999	-1	[2, 2, 2]	6	FR1	1	R1404E
71.265	3.566	99958	DISTRACT_START	n/a	n/a	n/a	-999	-1	[0, 0, 0]	n/a	FR1	1	R1404E
74.831	5.5	103515	PROB	5.5	n/a	n/a	-999	-1	[5, 8, 4]	17	FR1	1	R1404E
80.331	2.65	109015	PROB	2.65	n/a	n/a	-999	-1	[7, 1, 3]	11	FR1	1	R1404E
82.981	2.85	111665	PROB	2.85	n/a	n/a	-999	-1	[3, 2, 4]	9	FR1	1	R1404E
85.831	3.333	114515	PROB	3.333	n/a	n/a	-999	-1	[3, 1, 1]	5	FR1	1	R1404E
89.164	6.382	117848	PROB	6.382	n/a	n/a	-999	-1	[5, 6, 4]	15	FR1	1	R1404E
95.546	0.0	124230	STOP	n/a	n/a	n/a	-999	-1	[-999, -999, -999]	n/a	FR1	1	R1404E
95.546	2.4	124233	DISTRACT_END	n/a	n/a	n/a	-999	-1	[0, 0, 0]	n/a	FR1	1	R1404E
97.946	1.197	126633	REC_START	n/a	n/a	n/a	-999	-1	[0, 0, 0]	n/a	FR1	1	R1404E
99.143	0.877	127827	REC_WORD	0.877	n/a	WAND	1	-1	[0, 0, 0]	n/a	FR1	1	R1404E
100.02	1.0	128704	REC_WORD	1.0	n/a	CASH	2	-1	[0, 0, 0]	n/a	FR1	1	R1404E
101.02	2.402	129704	REC_WORD_VV	2.402	n/a	<>	-999	-1	[0, 0, 0]	n/a	FR1	1	R1404E
103.422	17.494	132106	REC_WORD	17.494	n/a	BAT	3	-1	[0, 0, 0]	n/a	FR1	1	R1404E
120.916	7.293	149600	REC_WORD	7.293	n/a	SHARK	9	-1	[0, 0, 0]	n/a	FR1	1	R1404E
128.209	13.52	156896	REC_END	n/a	n/a	n/a	-999	-1	[0, 0, 0]	n/a	FR1	1	R1404E
141.729	10.349	170419	COUNTDOWN_START	n/a	n/a	n/a	-999	1	[0, 0, 0]	n/a	FR1	1	R1404E
152.078	0.0	180762	COUNTDOWN_END	n/a	n/a	n/a	-999	1	[0, 0, 0]	n/a	FR1	1	R1404E
152.078	1.8	180762	ENCODING_START	n/a	n/a	n/a	-999	1	[0, 0, 0]	n/a	FR1	1	R1404E
153.878	1.616	182557	WORD	n/a	wordpools/wordpool_long_EN.txt	PLATE	1	1	[0, 0, 0]	n/a	FR1	1	R1404E
155.494	0.817	184176	WORD_OFF	n/a	n/a	PLATE	1	1	[0, 0, 0]	n/a	FR1	1	R1404E
156.311	1.618	184993	WORD	n/a	wordpools/wordpool_long_EN.txt	KITE	2	1	[0, 0, 0]	n/a	FR1	1	R1404E
157.929	0.915	186612	WORD_OFF	n/a	n/a	KITE	2	1	[0, 0, 0]	n/a	FR1	1	R1404E
158.844	1.617	187531	WORD	n/a	wordpools/wordpool_long_EN.txt	DRINK	3	1	[0, 0, 0]	n/a	FR1	1	R1404E
160.461	0.983	189150	WORD_OFF	n/a	n/a	DRINK	3	1	[0, 0, 0]	n/a	FR1	1	R1404E
161.444	1.6	190128	WORD	n/a	wordpools/wordpool_long_EN.txt	CHEEK	4	1	[0, 0, 0]	n/a	FR1	1	R1404E
163.044	1.0	191733	WORD_OFF	n/a	n/a	CHEEK	4	1	[0, 0, 0]	n/a	FR1	1	R1404E
164.044	1.617	192725	WORD	n/a	wordpools/wordpool_long_EN.txt	BROOM	5	1	[0, 0, 0]	n/a	FR1	1	R1404E
165.661	0.833	194344	WORD_OFF	n/a	n/a	BROOM	5	1	[0, 0, 0]	n/a	FR1	1	R1404E
166.494	1.616	195175	WORD	n/a	wordpools/wordpool_long_EN.txt	PASTE	6	1	[0, 0, 0]	n/a	FR1	1	R1404E
168.11	0.884	196795	WORD_OFF	n/a	n/a	PASTE	6	1	[0, 0, 0]	n/a	FR1	1	R1404E
168.994	1.6	197685	WORD	n/a	wordpools/wordpool_long_EN.txt	GUARD	7	1	[0, 0, 0]	n/a	FR1	1	R1404E
170.594	0.95	199275	WORD_OFF	n/a	n/a	GUARD	7	1	[0, 0, 0]	n/a	FR1	1	R1404E
171.544	1.6	200223	WORD	n/a	wordpools/wordpool_long_EN.txt	BOOT	8	1	[0, 0, 0]	n/a	FR1	1	R1404E
173.144	0.767	201828	WORD_OFF	n/a	n/a	BOOT	8	1	[0, 0, 0]	n/a	FR1	1	R1404E
173.911	1.617	202601	WORD	n/a	wordpools/wordpool_long_EN.txt	CLIFF	9	1	[0, 0, 0]	n/a	FR1	1	R1404E
175.528	0.999	204206	WORD_OFF	n/a	n/a	CLIFF	9	1	[0, 0, 0]	n/a	FR1	1	R1404E
176.527	1.6	205212	WORD	n/a	wordpools/wordpool_long_EN.txt	WEED	10	1	[0, 0, 0]	n/a	FR1	1	R1404E
178.127	0.967	206817	WORD_OFF	n/a	n/a	WEED	10	1	[0, 0, 0]	n/a	FR1	1	R1404E
179.094	1.617	207780	WORD	n/a	wordpools/wordpool_long_EN.txt	CAGE	11	1	[0, 0, 0]	n/a	FR1	1	R1404E
180.711	0.8	209399	WORD_OFF	n/a	n/a	CAGE	11	1	[0, 0, 0]	n/a	FR1	1	R1404E
181.511	1.616	210201	WORD	n/a	wordpools/wordpool_long_EN.txt	BLADE	12	1	[0, 0, 0]	n/a	FR1	1	R1404E
183.127	0.001	211806	WORD_OFF	n/a	n/a	BLADE	12	1	[0, 0, 0]	n/a	FR1	1	R1404E
183.128	0.0	211806	ENCODING_END	n/a	n/a	n/a	-999	1	[0, 0, 0]	n/a	FR1	1	R1404E
183.127	0.002	211811	PROB	0.002	n/a	n/a	-999	1	[6, 7, 2]	15	FR1	1	R1404E
183.129	0.0	211813	START	n/a	n/a	n/a	-999	1	[-999, -999, -999]	n/a	FR1	1	R1404E
183.129	8.582	211821	DISTRACT_START	n/a	n/a	n/a	-999	1	[0, 0, 0]	n/a	FR1	1	R1404E
191.711	3.017	220395	PROB	3.017	n/a	n/a	-999	1	[3, 1, 4]	8	FR1	1	R1404E
194.728	4.116	223412	PROB	4.116	n/a	n/a	-999	1	[3, 3, 5]	11	FR1	1	R1404E
198.844	3.25	227528	PROB	3.25	n/a	n/a	-999	1	[4, 6, 6]	16	FR1	1	R1404E
202.094	4.132	230778	PROB	4.132	n/a	n/a	-999	1	[5, 2, 3]	10	FR1	1	R1404E
206.226	0.0	234910	STOP	n/a	n/a	n/a	-999	1	[-999, -999, -999]	n/a	FR1	1	R1404E
206.226	2.217	234914	DISTRACT_END	n/a	n/a	n/a	-999	1	[0, 0, 0]	n/a	FR1	1	R1404E
208.443	5.63	237125	REC_START	n/a	n/a	n/a	-999	1	[0, 0, 0]	n/a	FR1	1	R1404E
214.073	24.619	242757	REC_WORD	24.619	n/a	GUARD	7	1	[0, 0, 0]	n/a	FR1	1	R1404E
238.692	2.717	267373	REC_END	n/a	n/a	n/a	-999	1	[0, 0, 0]	n/a	FR1	1	R1404E
241.409	10.349	270101	COUNTDOWN_START	n/a	n/a	n/a	-999	2	[0, 0, 0]	n/a	FR1	1	R1404E
251.758	0.0	280444	COUNTDOWN_END	n/a	n/a	n/a	-999	2	[0, 0, 0]	n/a	FR1	1	R1404E
251.758	2.016	280444	ENCODING_START	n/a	n/a	n/a	-999	2	[0, 0, 0]	n/a	FR1	1	R1404E
253.774	1.6	282457	WORD	n/a	wordpools/wordpool_long_EN.txt	CHIN	1	2	[0, 0, 0]	n/a	FR1	1	R1404E
255.374	0.983	284061	WORD_OFF	n/a	n/a	CHIN	1	2	[0, 0, 0]	n/a	FR1	1	R1404E
256.357	1.617	285039	WORD	n/a	wordpools/wordpool_long_EN.txt	GRILL	2	2	[0, 0, 0]	n/a	FR1	1	R1404E
257.974	1.0	286658	WORD_OFF	n/a	n/a	GRILL	2	2	[0, 0, 0]	n/a	FR1	1	R1404E
258.974	1.617	287665	WORD	n/a	wordpools/wordpool_long_EN.txt	CUP	3	2	[0, 0, 0]	n/a	FR1	1	R1404E
260.591	0.883	289269	WORD_OFF	n/a	n/a	CUP	3	2	[0, 0, 0]	n/a	FR1	1	R1404E
261.474	1.6	290159	WORD	n/a	wordpools/wordpool_long_EN.txt	CHIEF	4	2	[0, 0, 0]	n/a	FR1	1	R1404E
263.074	0.95	291764	WORD_OFF	n/a	n/a	CHIEF	4	2	[0, 0, 0]	n/a	FR1	1	R1404E
264.024	1.616	292712	WORD	n/a	wordpools/wordpool_long_EN.txt	THREAD	5	2	[0, 0, 0]	n/a	FR1	1	R1404E
265.64	0.917	294332	WORD_OFF	n/a	n/a	THREAD	5	2	[0, 0, 0]	n/a	FR1	1	R1404E
266.557	1.617	295236	WORD	n/a	wordpools/wordpool_long_EN.txt	GREASE	6	2	[0, 0, 0]	n/a	FR1	1	R1404E
268.174	0.767	296855	WORD_OFF	n/a	n/a	GREASE	6	2	[0, 0, 0]	n/a	FR1	1	R1404E
268.941	1.616	297629	WORD	n/a	wordpools/wordpool_long_EN.txt	LAWN	7	2	[0, 0, 0]	n/a	FR1	1	R1404E
270.557	0.967	299248	WORD_OFF	n/a	n/a	LAWN	7	2	[0, 0, 0]	n/a	FR1	1	R1404E
271.524	1.616	300211	WORD	n/a	wordpools/wordpool_long_EN.txt	SKY	8	2	[0, 0, 0]	n/a	FR1	1	R1404E
273.14	0.867	301830	WORD_OFF	n/a	n/a	SKY	8	2	[0, 0, 0]	n/a	FR1	1	R1404E
274.007	1.616	302691	WORD	n/a	wordpools/wordpool_long_EN.txt	HOUSE	9	2	[0, 0, 0]	n/a	FR1	1	R1404E
275.623	0.767	304310	WORD_OFF	n/a	n/a	HOUSE	9	2	[0, 0, 0]	n/a	FR1	1	R1404E
276.39	1.6	305068	WORD	n/a	wordpools/wordpool_long_EN.txt	MOUSE	10	2	[0, 0, 0]	n/a	FR1	1	R1404E
277.99	0.866	306673	WORD_OFF	n/a	n/a	MOUSE	10	2	[0, 0, 0]	n/a	FR1	1	R1404E
278.856	1.6	307548	WORD	n/a	wordpools/wordpool_long_EN.txt	DEER	11	2	[0, 0, 0]	n/a	FR1	1	R1404E
280.456	0.934	309139	WORD_OFF	n/a	n/a	DEER	11	2	[0, 0, 0]	n/a	FR1	1	R1404E
281.39	1.616	310072	WORD	n/a	wordpools/wordpool_long_EN.txt	PEARL	12	2	[0, 0, 0]	n/a	FR1	1	R1404E
283.006	0.001	311690	PROB	0.001	n/a	n/a	-999	2	[1, 4, 2]	7	FR1	1	R1404E
283.007	0.0	311691	START	n/a	n/a	n/a	-999	2	[-999, -999, -999]	n/a	FR1	1	R1404E
283.006	0.001	311692	WORD_OFF	n/a	n/a	PEARL	12	2	[0, 0, 0]	n/a	FR1	1	R1404E
283.007	0.0	311692	ENCODING_END	n/a	n/a	n/a	-999	2	[0, 0, 0]	n/a	FR1	1	R1404E
283.007	4.567	311692	DISTRACT_START	n/a	n/a	n/a	-999	2	[0, 0, 0]	n/a	FR1	1	R1404E
287.574	3.817	316258	PROB	3.817	n/a	n/a	-999	2	[2, 5, 7]	14	FR1	1	R1404E
291.391	5.083	320075	PROB	5.083	n/a	n/a	-999	2	[8, 1, 7]	16	FR1	1	R1404E
296.474	4.083	325158	PROB	4.083	n/a	n/a	-999	2	[1, 4, 7]	12	FR1	1	R1404E
300.557	3.749	329241	PROB	3.749	n/a	n/a	-999	2	[3, 2, 2]	7	FR1	1	R1404E
304.306	0.0	332990	DISTRACT_END	n/a	n/a	n/a	-999	2	[0, 0, 0]	n/a	FR1	1	R1404E
304.306	2.117	332990	STOP	n/a	n/a	n/a	-999	2	[-999, -999, -999]	n/a	FR1	1	R1404E
306.423	1.299	335114	REC_START	n/a	n/a	n/a	-999	2	[0, 0, 0]	n/a	FR1	1	R1404E
307.722	0.919	336406	REC_WORD	0.919	n/a	HOUSE	9	2	[0, 0, 0]	n/a	FR1	1	R1404E
308.641	7.031	337325	REC_WORD	7.031	n/a	MOUSE	10	2	[0, 0, 0]	n/a	FR1	1	R1404E
315.672	7.487	344356	REC_WORD	7.487	n/a	CUP	3	2	[0, 0, 0]	n/a	FR1	1	R1404E
323.159	13.523	351843	REC_WORD	13.523	n/a	GRILL	2	2	[0, 0, 0]	n/a	FR1	1	R1404E
336.682	5.24	365362	REC_END	n/a	n/a	n/a	-999	2	[0, 0, 0]	n/a	FR1	1	R1404E
341.922	10.35	370613	COUNTDOWN_START	n/a	n/a	n/a	-999	3	[0, 0, 0]	n/a	FR1	1	R1404E
352.272	0.0	380956	COUNTDOWN_END	n/a	n/a	n/a	-999	3	[0, 0, 0]	n/a	FR1	1	R1404E
352.272	1.998	380956	ENCODING_START	n/a	n/a	n/a	-999	3	[0, 0, 0]	n/a	FR1	1	R1404E
354.27	1.601	382955	WORD	n/a	wordpools/wordpool_long_EN.txt	BEAN	1	3	[0, 0, 0]	n/a	FR1	1	R1404E
355.871	0.866	384560	WORD_OFF	n/a	n/a	BEAN	1	3	[0, 0, 0]	n/a	FR1	1	R1404E
356.737	1.601	385420	WORD	n/a	wordpools/wordpool_long_EN.txt	BEAK	2	3	[0, 0, 0]	n/a	FR1	1	R1404E
358.338	0.933	387025	WORD_OFF	n/a	n/a	BEAK	2	3	[0, 0, 0]	n/a	FR1	1	R1404E
359.271	1.616	387959	WORD	n/a	wordpools/wordpool_long_EN.txt	PALM	3	3	[0, 0, 0]	n/a	FR1	1	R1404E
360.887	0.967	389578	WORD_OFF	n/a	n/a	PALM	3	3	[0, 0, 0]	n/a	FR1	1	R1404E
361.854	1.617	390541	WORD	n/a	wordpools/wordpool_long_EN.txt	FENCE	4	3	[0, 0, 0]	n/a	FR1	1	R1404E
363.471	0.816	392160	WORD_OFF	n/a	n/a	FENCE	4	3	[0, 0, 0]	n/a	FR1	1	R1404E
364.287	1.6	392977	WORD	n/a	wordpools/wordpool_long_EN.txt	FUR	5	3	[0, 0, 0]	n/a	FR1	1	R1404E
365.887	0.784	394567	WORD_OFF	n/a	n/a	FUR	5	3	[0, 0, 0]	n/a	FR1	1	R1404E
366.671	1.616	395355	WORD	n/a	wordpools/wordpool_long_EN.txt	JAR	6	3	[0, 0, 0]	n/a	FR1	1	R1404E
368.287	0.9	396974	WORD_OFF	n/a	n/a	JAR	6	3	[0, 0, 0]	n/a	FR1	1	R1404E
369.187	1.617	397864	WORD	n/a	wordpools/wordpool_long_EN.txt	HOOF	7	3	[0, 0, 0]	n/a	FR1	1	R1404E
370.804	0.866	399483	WORD_OFF	n/a	n/a	HOOF	7	3	[0, 0, 0]	n/a	FR1	1	R1404E
371.67	1.6	400359	WORD	n/a	wordpools/wordpool_long_EN.txt	TRASH	8	3	[0, 0, 0]	n/a	FR1	1	R1404E
373.27	0.884	401949	WORD_OFF	n/a	n/a	TRASH	8	3	[0, 0, 0]	n/a	FR1	1	R1404E
374.154	1.616	402839	WORD	n/a	wordpools/wordpool_long_EN.txt	BOARD	9	3	[0, 0, 0]	n/a	FR1	1	R1404E
375.77	0.933	404458	WORD_OFF	n/a	n/a	BOARD	9	3	[0, 0, 0]	n/a	FR1	1	R1404E
376.703	1.6	405392	WORD	n/a	wordpools/wordpool_long_EN.txt	SPOOL	10	3	[0, 0, 0]	n/a	FR1	1	R1404E
378.303	0.834	406982	WORD_OFF	n/a	n/a	SPOOL	10	3	[0, 0, 0]	n/a	FR1	1	R1404E
379.137	1.6	407828	WORD	n/a	wordpools/wordpool_long_EN.txt	FAN	11	3	[0, 0, 0]	n/a	FR1	1	R1404E
380.737	0.817	409418	WORD_OFF	n/a	n/a	FAN	11	3	[0, 0, 0]	n/a	FR1	1	R1404E
381.554	1.616	410235	WORD	n/a	wordpools/wordpool_long_EN.txt	CRIB	12	3	[0, 0, 0]	n/a	FR1	1	R1404E
383.17	0.002	411854	WORD_OFF	n/a	n/a	CRIB	12	3	[0, 0, 0]	n/a	FR1	1	R1404E
383.172	0.0	411854	ENCODING_END	n/a	n/a	n/a	-999	3	[0, 0, 0]	n/a	FR1	1	R1404E
383.172	0.0	411854	DISTRACT_START	n/a	n/a	n/a	-999	3	[0, 0, 0]	n/a	FR1	1	R1404E
383.171	0.001	411855	PROB	0.001	n/a	n/a	-999	3	[1, 2, 7]	10	FR1	1	R1404E
383.172	4.582	411856	START	n/a	n/a	n/a	-999	3	[-999, -999, -999]	n/a	FR1	1	R1404E
387.754	5.549	416438	PROB	5.549	n/a	n/a	-999	3	[4, 8, 7]	19	FR1	1	R1404E
393.303	3.133	421987	PROB	3.133	n/a	n/a	-999	3	[4, 3, 4]	11	FR1	1	R1404E
396.436	6.334	425120	PROB	6.334	n/a	n/a	-999	3	[1, 8, 7]	16	FR1	1	R1404E
402.77	3.066	431454	PROB	3.066	n/a	n/a	-999	3	[1, 2, 8]	11	FR1	1	R1404E
405.836	0.0	434520	STOP	n/a	n/a	n/a	-999	3	[-999, -999, -999]	n/a	FR1	1	R1404E
405.836	2.067	434524	DISTRACT_END	n/a	n/a	n/a	-999	3	[0, 0, 0]	n/a	FR1	1	R1404E
407.903	1.803	436589	REC_START	n/a	n/a	n/a	-999	3	[0, 0, 0]	n/a	FR1	1	R1404E
409.706	15.21	438390	REC_WORD	15.21	n/a	SPOOL	10	3	[0, 0, 0]	n/a	FR1	1	R1404E
424.916	8.265	453600	REC_WORD	8.265	n/a	BEAK	2	3	[0, 0, 0]	n/a	FR1	1	R1404E
433.181	4.987	461865	REC_WORD	4.987	n/a	TRASH	8	3	[0, 0, 0]	n/a	FR1	1	R1404E
438.168	3.284	466852	REC_END	n/a	n/a	n/a	-999	3	[0, 0, 0]	n/a	FR1	1	R1404E
441.452	10.35	470134	COUNTDOWN_START	n/a	n/a	n/a	-999	4	[0, 0, 0]	n/a	FR1	1	R1404E
451.802	0.0	480492	COUNTDOWN_END	n/a	n/a	n/a	-999	4	[0, 0, 0]	n/a	FR1	1	R1404E
451.802	2.099	480492	ENCODING_START	n/a	n/a	n/a	-999	4	[0, 0, 0]	n/a	FR1	1	R1404E
453.901	1.615	482578	WORD	n/a	wordpools/wordpool_long_EN.txt	ZOO	1	4	[0, 0, 0]	n/a	FR1	1	R1404E
455.516	0.934	484197	WORD_OFF	n/a	n/a	ZOO	1	4	[0, 0, 0]	n/a	FR1	1	R1404E
456.45	1.601	485131	WORD	n/a	wordpools/wordpool_long_EN.txt	PEA	2	4	[0, 0, 0]	n/a	FR1	1	R1404E
458.051	0.866	486736	WORD_OFF	n/a	n/a	PEA	2	4	[0, 0, 0]	n/a	FR1	1	R1404E
458.917	1.617	487596	WORD	n/a	wordpools/wordpool_long_EN.txt	MAP	3	4	[0, 0, 0]	n/a	FR1	1	R1404E
460.534	0.933	489216	WORD_OFF	n/a	n/a	MAP	3	4	[0, 0, 0]	n/a	FR1	1	R1404E
461.467	1.616	490149	WORD	n/a	wordpools/wordpool_long_EN.txt	SMOKE	4	4	[0, 0, 0]	n/a	FR1	1	R1404E
463.083	0.883	491769	WORD_OFF	n/a	n/a	SMOKE	4	4	[0, 0, 0]	n/a	FR1	1	R1404E
463.966	1.601	492658	WORD	n/a	wordpools/wordpool_long_EN.txt	PAIL	5	4	[0, 0, 0]	n/a	FR1	1	R1404E
465.567	0.833	494249	WORD_OFF	n/a	n/a	PAIL	5	4	[0, 0, 0]	n/a	FR1	1	R1404E
466.4	1.6	495080	WORD	n/a	wordpools/wordpool_long_EN.txt	FILM	6	4	[0, 0, 0]	n/a	FR1	1	R1404E
468.0	0.9	496685	WORD_OFF	n/a	n/a	FILM	6	4	[0, 0, 0]	n/a	FR1	1	R1404E
468.9	1.616	497589	WORD	n/a	wordpools/wordpool_long_EN.txt	STAIR	7	4	[0, 0, 0]	n/a	FR1	1	R1404E
470.516	0.984	499194	WORD_OFF	n/a	n/a	STAIR	7	4	[0, 0, 0]	n/a	FR1	1	R1404E
471.5	1.617	500186	WORD	n/a	wordpools/wordpool_long_EN.txt	COIN	8	4	[0, 0, 0]	n/a	FR1	1	R1404E
473.117	0.817	501805	WORD_OFF	n/a	n/a	COIN	8	4	[0, 0, 0]	n/a	FR1	1	R1404E
473.934	1.616	502622	WORD	n/a	wordpools/wordpool_long_EN.txt	TROUT	9	4	[0, 0, 0]	n/a	FR1	1	R1404E
475.55	0.817	504241	WORD_OFF	n/a	n/a	TROUT	9	4	[0, 0, 0]	n/a	FR1	1	R1404E
476.367	1.6	505058	WORD	n/a	wordpools/wordpool_long_EN.txt	STRING	10	4	[0, 0, 0]	n/a	FR1	1	R1404E
477.967	0.983	506649	WORD_OFF	n/a	n/a	STRING	10	4	[0, 0, 0]	n/a	FR1	1	R1404E
478.95	1.617	507641	WORD	n/a	wordpools/wordpool_long_EN.txt	FLEA	11	4	[0, 0, 0]	n/a	FR1	1	R1404E
480.567	0.866	509245	WORD_OFF	n/a	n/a	FLEA	11	4	[0, 0, 0]	n/a	FR1	1	R1404E
481.433	1.601	510121	WORD	n/a	wordpools/wordpool_long_EN.txt	TREE	12	4	[0, 0, 0]	n/a	FR1	1	R1404E
483.034	0.001	511718	PROB	0.001	n/a	n/a	-999	4	[5, 6, 1]	12	FR1	1	R1404E
483.035	0.0	511719	START	n/a	n/a	n/a	-999	4	[-999, -999, -999]	n/a	FR1	1	R1404E
483.034	0.001	511725	WORD_OFF	n/a	n/a	TREE	12	4	[0, 0, 0]	n/a	FR1	1	R1404E
483.035	0.0	511725	ENCODING_END	n/a	n/a	n/a	-999	4	[0, 0, 0]	n/a	FR1	1	R1404E
483.035	4.666	511725	DISTRACT_START	n/a	n/a	n/a	-999	4	[0, 0, 0]	n/a	FR1	1	R1404E
487.701	3.482	516385	PROB	3.482	n/a	n/a	-999	4	[6, 3, 6]	15	FR1	1	R1404E
491.183	4.984	519867	PROB	4.984	n/a	n/a	-999	4	[7, 5, 4]	16	FR1	1	R1404E
496.167	4.282	524851	PROB	4.282	n/a	n/a	-999	4	[6, 7, 1]	14	FR1	1	R1404E
500.449	7.766	529133	PROB	7.766	n/a	n/a	-999	4	[5, 7, 2]	14	FR1	1	R1404E
508.215	0.0	536899	STOP	n/a	n/a	n/a	-999	4	[-999, -999, -999]	n/a	FR1	1	R1404E
508.215	2.084	536905	DISTRACT_END	n/a	n/a	n/a	-999	4	[0, 0, 0]	n/a	FR1	1	R1404E
510.299	11.911	538984	REC_START	n/a	n/a	n/a	-999	4	[0, 0, 0]	n/a	FR1	1	R1404E
522.21	18.332	550894	REC_WORD	18.332	n/a	BEAK	-999	4	[0, 0, 0]	n/a	FR1	1	R1404E
540.542	1.939	569232	REC_END	n/a	n/a	n/a	-999	4	[0, 0, 0]	n/a	FR1	1	R1404E
542.481	10.349	571172	COUNTDOWN_START	n/a	n/a	n/a	-999	5	[0, 0, 0]	n/a	FR1	1	R1404E
552.83	0.001	581515	COUNTDOWN_END	n/a	n/a	n/a	-999	5	[0, 0, 0]	n/a	FR1	1	R1404E
552.831	2.133	581515	ENCODING_START	n/a	n/a	n/a	-999	5	[0, 0, 0]	n/a	FR1	1	R1404E
554.964	1.6	583645	WORD	n/a	wordpools/wordpool_long_EN.txt	ARK	1	5	[0, 0, 0]	n/a	FR1	1	R1404E
556.564	0.9	585250	WORD_OFF	n/a	n/a	ARK	1	5	[0, 0, 0]	n/a	FR1	1	R1404E
557.464	1.616	586154	WORD	n/a	wordpools/wordpool_long_EN.txt	CHILD	2	5	[0, 0, 0]	n/a	FR1	1	R1404E
559.08	0.933	587759	WORD_OFF	n/a	n/a	CHILD	2	5	[0, 0, 0]	n/a	FR1	1	R1404E
560.013	1.601	588693	WORD	n/a	wordpools/wordpool_long_EN.txt	GEESE	3	5	[0, 0, 0]	n/a	FR1	1	R1404E
561.614	0.817	590297	WORD_OFF	n/a	n/a	GEESE	3	5	[0, 0, 0]	n/a	FR1	1	R1404E
562.431	1.616	591114	WORD	n/a	wordpools/wordpool_long_EN.txt	HEDGE	4	5	[0, 0, 0]	n/a	FR1	1	R1404E
564.047	0.817	592734	WORD_OFF	n/a	n/a	HEDGE	4	5	[0, 0, 0]	n/a	FR1	1	R1404E
564.864	1.616	593551	WORD	n/a	wordpools/wordpool_long_EN.txt	FRIEND	5	5	[0, 0, 0]	n/a	FR1	1	R1404E
566.48	0.916	595170	WORD_OFF	n/a	n/a	FRIEND	5	5	[0, 0, 0]	n/a	FR1	1	R1404E
567.396	1.6	596074	WORD	n/a	wordpools/wordpool_long_EN.txt	BROOK	6	5	[0, 0, 0]	n/a	FR1	1	R1404E
568.996	0.851	597679	WORD_OFF	n/a	n/a	BROOK	6	5	[0, 0, 0]	n/a	FR1	1	R1404E
569.847	1.6	598525	WORD	n/a	wordpools/wordpool_long_EN.txt	SCARF	7	5	[0, 0, 0]	n/a	FR1	1	R1404E
571.447	1.0	600130	WORD_OFF	n/a	n/a	SCARF	7	5	[0, 0, 0]	n/a	FR1	1	R1404E
572.447	1.6	601136	WORD	n/a	wordpools/wordpool_long_EN.txt	MOOSE	8	5	[0, 0, 0]	n/a	FR1	1	R1404E
574.047	0.932	602727	WORD_OFF	n/a	n/a	MOOSE	8	5	[0, 0, 0]	n/a	FR1	1	R1404E
574.979	1.601	603660	WORD	n/a	wordpools/wordpool_long_EN.txt	HOSE	9	5	[0, 0, 0]	n/a	FR1	1	R1404E
576.58	0.817	605265	WORD_OFF	n/a	n/a	HOSE	9	5	[0, 0, 0]	n/a	FR1	1	R1404E
577.397	1.616	606082	WORD	n/a	wordpools/wordpool_long_EN.txt	FOAM	10	5	[0, 0, 0]	n/a	FR1	1	R1404E
579.013	0.9	607701	WORD_OFF	n/a	n/a	FOAM	10	5	[0, 0, 0]	n/a	FR1	1	R1404E
579.913	1.6	608591	WORD	n/a	wordpools/wordpool_long_EN.txt	WING	11	5	[0, 0, 0]	n/a	FR1	1	R1404E
581.513	1.0	610196	WORD_OFF	n/a	n/a	WING	11	5	[0, 0, 0]	n/a	FR1	1	R1404E
582.513	1.6	611202	WORD	n/a	wordpools/wordpool_long_EN.txt	LOCK	12	5	[0, 0, 0]	n/a	FR1	1	R1404E
584.113	0.001	612792	WORD_OFF	n/a	n/a	LOCK	12	5	[0, 0, 0]	n/a	FR1	1	R1404E
584.114	0.0	612792	ENCODING_END	n/a	n/a	n/a	-999	5	[0, 0, 0]	n/a	FR1	1	R1404E
584.113	0.002	612797	PROB	0.002	n/a	n/a	-999	5	[8, 4, 1]	13	FR1	1	R1404E
584.115	0.0	612799	START	n/a	n/a	n/a	-999	5	[-999, -999, -999]	n/a	FR1	1	R1404E
584.115	3.132	612807	DISTRACT_START	n/a	n/a	n/a	-999	5	[0, 0, 0]	n/a	FR1	1	R1404E
587.247	6.383	615931	PROB	6.383	n/a	n/a	-999	5	[2, 6, 7]	16	FR1	1	R1404E
593.63	5.216	622314	PROB	5.216	n/a	n/a	-999	5	[7, 4, 8]	19	FR1	1	R1404E
598.846	4.149	627530	PROB	4.149	n/a	n/a	-999	5	[8, 2, 7]	17	FR1	1	R1404E
602.995	5.784	631679	PROB	5.784	n/a	n/a	-999	5	[6, 8, 5]	19	FR1	1	R1404E
608.779	0.0	637461	DISTRACT_END	n/a	n/a	n/a	-999	5	[0, 0, 0]	n/a	FR1	1	R1404E
608.779	2.267	637463	STOP	n/a	n/a	n/a	-999	5	[-999, -999, -999]	n/a	FR1	1	R1404E
611.046	2.112	639730	REC_START	n/a	n/a	n/a	-999	5	[0, 0, 0]	n/a	FR1	1	R1404E
613.158	28.115	641842	REC_WORD	28.115	n/a	ARK	1	5	[0, 0, 0]	n/a	FR1	1	R1404E
641.273	3.088	669964	REC_END	n/a	n/a	n/a	-999	5	[0, 0, 0]	n/a	FR1	1	R1404E
644.361	10.349	673042	COUNTDOWN_START	n/a	n/a	n/a	-999	6	[0, 0, 0]	n/a	FR1	1	R1404E
654.71	0.001	683399	COUNTDOWN_END	n/a	n/a	n/a	-999	6	[0, 0, 0]	n/a	FR1	1	R1404E
654.711	2.383	683399	ENCODING_START	n/a	n/a	n/a	-999	6	[0, 0, 0]	n/a	FR1	1	R1404E
657.094	1.6	685777	WORD	n/a	wordpools/wordpool_long_EN.txt	THRONE	1	6	[0, 0, 0]	n/a	FR1	1	R1404E
658.694	0.999	687382	WORD_OFF	n/a	n/a	THRONE	1	6	[0, 0, 0]	n/a	FR1	1	R1404E
659.693	1.601	688374	WORD	n/a	wordpools/wordpool_long_EN.txt	ROOT	2	6	[0, 0, 0]	n/a	FR1	1	R1404E
661.294	1.0	689979	WORD_OFF	n/a	n/a	ROOT	2	6	[0, 0, 0]	n/a	FR1	1	R1404E
662.294	1.616	690985	WORD	n/a	wordpools/wordpool_long_EN.txt	FOX	3	6	[0, 0, 0]	n/a	FR1	1	R1404E
663.91	0.934	692590	WORD_OFF	n/a	n/a	FOX	3	6	[0, 0, 0]	n/a	FR1	1	R1404E
664.844	1.616	693524	WORD	n/a	wordpools/wordpool_long_EN.txt	TRAY	4	6	[0, 0, 0]	n/a	FR1	1	R1404E
666.46	1.0	695143	WORD_OFF	n/a	n/a	TRAY	4	6	[0, 0, 0]	n/a	FR1	1	R1404E
667.46	1.6	696150	WORD	n/a	wordpools/wordpool_long_EN.txt	FLEET	5	6	[0, 0, 0]	n/a	FR1	1	R1404E
669.06	0.85	697740	WORD_OFF	n/a	n/a	FLEET	5	6	[0, 0, 0]	n/a	FR1	1	R1404E
669.91	1.6	698600	WORD	n/a	wordpools/wordpool_long_EN.txt	NEST	6	6	[0, 0, 0]	n/a	FR1	1	R1404E
671.51	0.934	700190	WORD_OFF	n/a	n/a	NEST	6	6	[0, 0, 0]	n/a	FR1	1	R1404E
672.444	1.616	701124	WORD	n/a	wordpools/wordpool_long_EN.txt	PIN	7	6	[0, 0, 0]	n/a	FR1	1	R1404E
674.06	0.983	702743	WORD_OFF	n/a	n/a	PIN	7	6	[0, 0, 0]	n/a	FR1	1	R1404E
675.043	1.6	703721	WORD	n/a	wordpools/wordpool_long_EN.txt	SIGN	8	6	[0, 0, 0]	n/a	FR1	1	R1404E
676.643	0.966	705326	WORD_OFF	n/a	n/a	SIGN	8	6	[0, 0, 0]	n/a	FR1	1	R1404E
677.609	1.601	706288	WORD	n/a	wordpools/wordpool_long_EN.txt	WORLD	9	6	[0, 0, 0]	n/a	FR1	1	R1404E
679.21	0.866	707893	WORD_OFF	n/a	n/a	WORLD	9	6	[0, 0, 0]	n/a	FR1	1	R1404E
680.076	1.6	708754	WORD	n/a	wordpools/wordpool_long_EN.txt	WORM	10	6	[0, 0, 0]	n/a	FR1	1	R1404E
681.676	0.9	710358	WORD_OFF	n/a	n/a	WORM	10	6	[0, 0, 0]	n/a	FR1	1	R1404E
682.576	1.616	711263	WORD	n/a	wordpools/wordpool_long_EN.txt	ROCK	11	6	[0, 0, 0]	n/a	FR1	1	R1404E
684.192	0.851	712882	WORD_OFF	n/a	n/a	ROCK	11	6	[0, 0, 0]	n/a	FR1	1	R1404E
685.043	1.617	713728	WORD	n/a	wordpools/wordpool_long_EN.txt	HOLE	12	6	[0, 0, 0]	n/a	FR1	1	R1404E
686.66	0.0	715344	PROB	0.0	n/a	n/a	-999	6	[2, 2, 2]	6	FR1	1	R1404E
686.66	0.008	715348	WORD_OFF	n/a	n/a	HOLE	12	6	[0, 0, 0]	n/a	FR1	1	R1404E
686.668	0.0	715348	ENCODING_END	n/a	n/a	n/a	-999	6	[0, 0, 0]	n/a	FR1	1	R1404E
686.668	0.0	715348	DISTRACT_START	n/a	n/a	n/a	-999	6	[0, 0, 0]	n/a	FR1	1	R1404E
686.668	3.875	715352	START	n/a	n/a	n/a	-999	6	[-999, -999, -999]	n/a	FR1	1	R1404E
690.543	9.533	719227	PROB	9.533	n/a	n/a	-999	6	[8, 6, 1]	15	FR1	1	R1404E
700.076	3.083	728760	PROB	3.083	n/a	n/a	-999	6	[2, 3, 3]	8	FR1	1	R1404E
703.159	4.633	731843	PROB	4.633	n/a	n/a	-999	6	[2, 7, 2]	11	FR1	1	R1404E
707.792	0.0	736471	DISTRACT_END	n/a	n/a	n/a	-999	6	[0, 0, 0]	n/a	FR1	1	R1404E
707.792	2.317	736476	STOP	n/a	n/a	n/a	-999	6	[-999, -999, -999]	n/a	FR1	1	R1404E
710.109	29.999	738799	REC_START	n/a	n/a	n/a	-999	6	[0, 0, 0]	n/a	FR1	1	R1404E
740.108	0.226	768792	REC_WORD_VV	0.226	n/a	<>	-999	6	[0, 0, 0]	n/a	FR1	1	R1404E
740.334	5.173	769018	REC_END	n/a	n/a	n/a	-999	6	[0, 0, 0]	n/a	FR1	1	R1404E
745.507	10.351	774197	COUNTDOWN_START	n/a	n/a	n/a	-999	7	[0, 0, 0]	n/a	FR1	1	R1404E
755.858	0.0	784540	COUNTDOWN_END	n/a	n/a	n/a	-999	7	[0, 0, 0]	n/a	FR1	1	R1404E
755.858	2.016	784540	ENCODING_START	n/a	n/a	n/a	-999	7	[0, 0, 0]	n/a	FR1	1	R1404E
757.874	1.618	786553	WORD	n/a	wordpools/wordpool_long_EN.txt	RAIL	1	7	[0, 0, 0]	n/a	FR1	1	R1404E
759.492	0.798	788172	WORD_OFF	n/a	n/a	RAIL	1	7	[0, 0, 0]	n/a	FR1	1	R1404E
760.29	1.617	788974	WORD	n/a	wordpools/wordpool_long_EN.txt	HOOK	2	7	[0, 0, 0]	n/a	FR1	1	R1404E
761.907	0.916	790594	WORD_OFF	n/a	n/a	HOOK	2	7	[0, 0, 0]	n/a	FR1	1	R1404E
762.823	1.601	791513	WORD	n/a	wordpools/wordpool_long_EN.txt	SLIDE	3	7	[0, 0, 0]	n/a	FR1	1	R1404E
764.424	0.866	793103	WORD_OFF	n/a	n/a	SLIDE	3	7	[0, 0, 0]	n/a	FR1	1	R1404E
765.29	1.617	793978	WORD	n/a	wordpools/wordpool_long_EN.txt	PLANT	4	7	[0, 0, 0]	n/a	FR1	1	R1404E
766.907	1.0	795597	WORD_OFF	n/a	n/a	PLANT	4	7	[0, 0, 0]	n/a	FR1	1	R1404E
767.907	1.616	796589	WORD	n/a	wordpools/wordpool_long_EN.txt	CROSS	5	7	[0, 0, 0]	n/a	FR1	1	R1404E
769.523	0.969	798209	WORD_OFF	n/a	n/a	CROSS	5	7	[0, 0, 0]	n/a	FR1	1	R1404E
770.492	1.615	799172	WORD	n/a	wordpools/wordpool_long_EN.txt	JUDGE	6	7	[0, 0, 0]	n/a	FR1	1	R1404E
772.107	0.782	800791	WORD_OFF	n/a	n/a	JUDGE	6	7	[0, 0, 0]	n/a	FR1	1	R1404E
772.889	1.602	801579	WORD	n/a	wordpools/wordpool_long_EN.txt	VEST	7	7	[0, 0, 0]	n/a	FR1	1	R1404E
774.491	0.881	803183	WORD_OFF	n/a	n/a	VEST	7	7	[0, 0, 0]	n/a	FR1	1	R1404E
775.372	1.601	804059	WORD	n/a	wordpools/wordpool_long_EN.txt	RUST	8	7	[0, 0, 0]	n/a	FR1	1	R1404E
776.973	1.0	805663	WORD_OFF	n/a	n/a	RUST	8	7	[0, 0, 0]	n/a	FR1	1	R1404E
777.973	1.6	806655	WORD	n/a	wordpools/wordpool_long_EN.txt	POLE	9	7	[0, 0, 0]	n/a	FR1	1	R1404E
779.573	0.999	808260	WORD_OFF	n/a	n/a	POLE	9	7	[0, 0, 0]	n/a	FR1	1	R1404E
780.572	1.601	809252	WORD	n/a	wordpools/wordpool_long_EN.txt	TOAD	10	7	[0, 0, 0]	n/a	FR1	1	R1404E
782.173	0.9	810857	WORD_OFF	n/a	n/a	TOAD	10	7	[0, 0, 0]	n/a	FR1	1	R1404E
783.073	1.616	811761	WORD	n/a	wordpools/wordpool_long_EN.txt	GLOBE	11	7	[0, 0, 0]	n/a	FR1	1	R1404E
784.689	0.85	813380	WORD_OFF	n/a	n/a	GLOBE	11	7	[0, 0, 0]	n/a	FR1	1	R1404E
785.539	1.601	814227	WORD	n/a	wordpools/wordpool_long_EN.txt	FLAG	12	7	[0, 0, 0]	n/a	FR1	1	R1404E
787.14	0.001	815824	PROB	0.001	n/a	n/a	-999	7	[2, 1, 4]	7	FR1	1	R1404E
787.141	0.0	815825	START	n/a	n/a	n/a	-999	7	[-999, -999, -999]	n/a	FR1	1	R1404E
787.139	0.002	815831	WORD_OFF	n/a	n/a	FLAG	12	7	[0, 0, 0]	n/a	FR1	1	R1404E
787.141	0.0	815831	ENCODING_END	n/a	n/a	n/a	-999	7	[0, 0, 0]	n/a	FR1	1	R1404E
787.141	4.449	815831	DISTRACT_START	n/a	n/a	n/a	-999	7	[0, 0, 0]	n/a	FR1	1	R1404E
791.59	4.0	820274	PROB	4.0	n/a	n/a	-999	7	[7, 8, 3]	18	FR1	1	R1404E
795.59	3.433	824274	PROB	3.433	n/a	n/a	-999	7	[6, 3, 4]	13	FR1	1	R1404E
799.023	7.799	827707	PROB	7.799	n/a	n/a	-999	7	[5, 1, 7]	13	FR1	1	R1404E
806.822	3.366	835506	PROB	3.366	n/a	n/a	-999	7	[3, 7, 7]	17	FR1	1	R1404E
810.188	0.0	838866	DISTRACT_END	n/a	n/a	n/a	-999	7	[0, 0, 0]	n/a	FR1	1	R1404E
810.188	2.083	838872	STOP	n/a	n/a	n/a	-999	7	[-999, -999, -999]	n/a	FR1	1	R1404E
812.271	1.84	840960	REC_START	n/a	n/a	n/a	-999	7	[0, 0, 0]	n/a	FR1	1	R1404E
814.111	7.056	842795	REC_WORD	7.056	n/a	CROSS	5	7	[0, 0, 0]	n/a	FR1	1	R1404E
821.167	3.156	849851	REC_WORD	3.156	n/a	GLOBE	11	7	[0, 0, 0]	n/a	FR1	1	R1404E
824.323	18.18	853007	REC_WORD	18.18	n/a	SPIN	-999	7	[0, 0, 0]	n/a	FR1	1	R1404E
842.503	1.734	871194	REC_END	n/a	n/a	n/a	-999	7	[0, 0, 0]	n/a	FR1	1	R1404E
844.237	10.351	872930	COUNTDOWN_START	n/a	n/a	n/a	-999	8	[0, 0, 0]	n/a	FR1	1	R1404E
854.588	0.0	883273	COUNTDOWN_END	n/a	n/a	n/a	-999	8	[0, 0, 0]	n/a	FR1	1	R1404E
854.588	2.182	883273	ENCODING_START	n/a	n/a	n/a	-999	8	[0, 0, 0]	n/a	FR1	1	R1404E
856.77	1.6	885461	WORD	n/a	wordpools/wordpool_long_EN.txt	GLOVE	1	8	[0, 0, 0]	n/a	FR1	1	R1404E
858.37	0.884	887051	WORD_OFF	n/a	n/a	GLOVE	1	8	[0, 0, 0]	n/a	FR1	1	R1404E
859.254	1.599	887941	WORD	n/a	wordpools/wordpool_long_EN.txt	GIFT	2	8	[0, 0, 0]	n/a	FR1	1	R1404E
860.853	0.95	889531	WORD_OFF	n/a	n/a	GIFT	2	8	[0, 0, 0]	n/a	FR1	1	R1404E
861.803	1.6	890494	WORD	n/a	wordpools/wordpool_long_EN.txt	LAND	3	8	[0, 0, 0]	n/a	FR1	1	R1404E
863.403	0.817	892084	WORD_OFF	n/a	n/a	LAND	3	8	[0, 0, 0]	n/a	FR1	1	R1404E
864.22	1.6	892901	WORD	n/a	wordpools/wordpool_long_EN.txt	CAPE	4	8	[0, 0, 0]	n/a	FR1	1	R1404E
865.82	0.9	894506	WORD_OFF	n/a	n/a	CAPE	4	8	[0, 0, 0]	n/a	FR1	1	R1404E
866.72	1.6	895410	WORD	n/a	wordpools/wordpool_long_EN.txt	DOG	5	8	[0, 0, 0]	n/a	FR1	1	R1404E
868.32	0.933	897000	WORD_OFF	n/a	n/a	DOG	5	8	[0, 0, 0]	n/a	FR1	1	R1404E
869.253	1.6	897934	WORD	n/a	wordpools/wordpool_long_EN.txt	PERCH	6	8	[0, 0, 0]	n/a	FR1	1	R1404E
870.853	0.833	899539	WORD_OFF	n/a	n/a	PERCH	6	8	[0, 0, 0]	n/a	FR1	1	R1404E
871.686	1.617	900370	WORD	n/a	wordpools/wordpool_long_EN.txt	CLOCK	7	8	[0, 0, 0]	n/a	FR1	1	R1404E
873.303	0.799	901989	WORD_OFF	n/a	n/a	CLOCK	7	8	[0, 0, 0]	n/a	FR1	1	R1404E
874.102	1.618	902792	WORD	n/a	wordpools/wordpool_long_EN.txt	LODGE	8	8	[0, 0, 0]	n/a	FR1	1	R1404E
875.72	0.982	904396	WORD_OFF	n/a	n/a	LODGE	8	8	[0, 0, 0]	n/a	FR1	1	R1404E
876.702	1.6	905388	WORD	n/a	wordpools/wordpool_long_EN.txt	DART	9	8	[0, 0, 0]	n/a	FR1	1	R1404E
878.302	0.767	906993	WORD_OFF	n/a	n/a	DART	9	8	[0, 0, 0]	n/a	FR1	1	R1404E
879.069	1.6	907752	WORD	n/a	wordpools/wordpool_long_EN.txt	BAG	10	8	[0, 0, 0]	n/a	FR1	1	R1404E
880.669	0.917	909356	WORD_OFF	n/a	n/a	BAG	10	8	[0, 0, 0]	n/a	FR1	1	R1404E
881.586	1.616	910275	WORD	n/a	wordpools/wordpool_long_EN.txt	SPEAR	11	8	[0, 0, 0]	n/a	FR1	1	R1404E
883.202	0.934	911880	WORD_OFF	n/a	n/a	SPEAR	11	8	[0, 0, 0]	n/a	FR1	1	R1404E
884.136	1.6	912814	WORD	n/a	wordpools/wordpool_long_EN.txt	BIRD	12	8	[0, 0, 0]	n/a	FR1	1	R1404E
885.736	0.001	914418	WORD_OFF	n/a	n/a	BIRD	12	8	[0, 0, 0]	n/a	FR1	1	R1404E
885.737	0.0	914418	ENCODING_END	n/a	n/a	n/a	-999	8	[0, 0, 0]	n/a	FR1	1	R1404E
885.737	0.0	914418	DISTRACT_START	n/a	n/a	n/a	-999	8	[0, 0, 0]	n/a	FR1	1	R1404E
885.736	0.001	914420	PROB	0.001	n/a	n/a	-999	8	[1, 6, 5]	12	FR1	1	R1404E
885.737	3.532	914421	START	n/a	n/a	n/a	-999	8	[-999, -999, -999]	n/a	FR1	1	R1404E
889.269	3.466	917953	PROB	3.466	n/a	n/a	-999	8	[3, 7, 7]	17	FR1	1	R1404E
892.735	2.368	921419	PROB	2.368	n/a	n/a	-999	8	[1, 1, 1]	3	FR1	1	R1404E
895.103	4.116	923787	PROB	4.116	n/a	n/a	-999	8	[6, 5, 3]	14	FR1	1	R1404E
899.219	5.5	927903	PROB	5.5	n/a	n/a	-999	8	[8, 7, 8]	23	FR1	1	R1404E
904.719	4.118	933403	PROB	4.118	n/a	n/a	-999	8	[4, 7, 2]	13	FR1	1	R1404E
908.837	0.0	937521	STOP	n/a	n/a	n/a	-999	8	[-999, -999, -999]	n/a	FR1	1	R1404E
908.837	2.048	937526	DISTRACT_END	n/a	n/a	n/a	-999	8	[0, 0, 0]	n/a	FR1	1	R1404E
910.885	29.999	939562	REC_START	n/a	n/a	n/a	-999	8	[0, 0, 0]	n/a	FR1	1	R1404E
940.884	0.251	969568	REC_WORD_VV	0.251	n/a	<>	-999	8	[0, 0, 0]	n/a	FR1	1	R1404E
941.135	4.349	969825	REC_END	n/a	n/a	n/a	-999	8	[0, 0, 0]	n/a	FR1	1	R1404E
945.484	10.35	974172	COUNTDOWN_START	n/a	n/a	n/a	-999	9	[0, 0, 0]	n/a	FR1	1	R1404E
955.834	0.0	984515	COUNTDOWN_END	n/a	n/a	n/a	-999	9	[0, 0, 0]	n/a	FR1	1	R1404E
955.834	1.983	984515	ENCODING_START	n/a	n/a	n/a	-999	9	[0, 0, 0]	n/a	FR1	1	R1404E
957.817	1.615	986499	WORD	n/a	wordpools/wordpool_long_EN.txt	BARN	1	9	[0, 0, 0]	n/a	FR1	1	R1404E
959.432	0.851	988118	WORD_OFF	n/a	n/a	BARN	1	9	[0, 0, 0]	n/a	FR1	1	R1404E
960.283	1.617	988964	WORD	n/a	wordpools/wordpool_long_EN.txt	HEART	2	9	[0, 0, 0]	n/a	FR1	1	R1404E
961.9	0.983	990584	WORD_OFF	n/a	n/a	HEART	2	9	[0, 0, 0]	n/a	FR1	1	R1404E
962.883	1.6	991561	WORD	n/a	wordpools/wordpool_long_EN.txt	HOOD	3	9	[0, 0, 0]	n/a	FR1	1	R1404E
964.483	0.85	993166	WORD_OFF	n/a	n/a	HOOD	3	9	[0, 0, 0]	n/a	FR1	1	R1404E
965.333	1.616	994012	WORD	n/a	wordpools/wordpool_long_EN.txt	DUST	4	9	[0, 0, 0]	n/a	FR1	1	R1404E
966.949	0.784	995631	WORD_OFF	n/a	n/a	DUST	4	9	[0, 0, 0]	n/a	FR1	1	R1404E
967.733	1.6	996419	WORD	n/a	wordpools/wordpool_long_EN.txt	RICE	5	9	[0, 0, 0]	n/a	FR1	1	R1404E
969.333	0.866	998024	WORD_OFF	n/a	n/a	RICE	5	9	[0, 0, 0]	n/a	FR1	1	R1404E
970.199	1.601	998884	WORD	n/a	wordpools/wordpool_long_EN.txt	SEED	6	9	[0, 0, 0]	n/a	FR1	1	R1404E
971.8	0.816	1000489	WORD_OFF	n/a	n/a	SEED	6	9	[0, 0, 0]	n/a	FR1	1	R1404E
972.616	1.6	1001306	WORD	n/a	wordpools/wordpool_long_EN.txt	STEAK	7	9	[0, 0, 0]	n/a	FR1	1	R1404E
974.216	0.967	1002896	WORD_OFF	n/a	n/a	STEAK	7	9	[0, 0, 0]	n/a	FR1	1	R1404E
975.183	1.617	1003873	WORD	n/a	wordpools/wordpool_long_EN.txt	SCOTCH	8	9	[0, 0, 0]	n/a	FR1	1	R1404E
976.8	0.949	1005478	WORD_OFF	n/a	n/a	SCOTCH	8	9	[0, 0, 0]	n/a	FR1	1	R1404E
977.749	1.6	1006426	WORD	n/a	wordpools/wordpool_long_EN.txt	YARD	9	9	[0, 0, 0]	n/a	FR1	1	R1404E
979.349	0.783	1008031	WORD_OFF	n/a	n/a	YARD	9	9	[0, 0, 0]	n/a	FR1	1	R1404E
980.132	1.601	1008819	WORD	n/a	wordpools/wordpool_long_EN.txt	FACE	10	9	[0, 0, 0]	n/a	FR1	1	R1404E
981.733	0.783	1010409	WORD_OFF	n/a	n/a	FACE	10	9	[0, 0, 0]	n/a	FR1	1	R1404E
982.516	1.616	1011197	WORD	n/a	wordpools/wordpool_long_EN.txt	SNACK	11	9	[0, 0, 0]	n/a	FR1	1	R1404E
984.132	0.8	1012816	WORD_OFF	n/a	n/a	SNACK	11	9	[0, 0, 0]	n/a	FR1	1	R1404E
984.932	1.618	1013618	WORD	n/a	wordpools/wordpool_long_EN.txt	CANE	12	9	[0, 0, 0]	n/a	FR1	1	R1404E
986.55	0.0	1015234	START	n/a	n/a	n/a	-999	9	[-999, -999, -999]	n/a	FR1	1	R1404E
986.55	0.0	1015234	PROB	0.0	n/a	n/a	-999	9	[2, 8, 5]	15	FR1	1	R1404E
986.549	0.001	1015238	WORD_OFF	n/a	n/a	CANE	12	9	[0, 0, 0]	n/a	FR1	1	R1404E
986.55	0.0	1015238	ENCODING_END	n/a	n/a	n/a	-999	9	[0, 0, 0]	n/a	FR1	1	R1404E
986.55	6.266	1015238	DISTRACT_START	n/a	n/a	n/a	-999	9	[0, 0, 0]	n/a	FR1	1	R1404E
992.816	2.866	1021500	PROB	2.866	n/a	n/a	-999	9	[1, 4, 2]	7	FR1	1	R1404E
995.682	10.483	1024366	PROB	10.483	n/a	n/a	-999	9	[8, 7, 6]	21	FR1	1	R1404E
1006.165	4.266	1034849	PROB	4.266	n/a	n/a	-999	9	[3, 8, 4]	15	FR1	1	R1404E
1010.431	0.0	1039115	STOP	n/a	n/a	n/a	-999	9	[-999, -999, -999]	n/a	FR1	1	R1404E
1010.431	2.335	1039119	DISTRACT_END	n/a	n/a	n/a	-999	9	[0, 0, 0]	n/a	FR1	1	R1404E
1012.766	1.87	1041446	REC_START	n/a	n/a	n/a	-999	9	[0, 0, 0]	n/a	FR1	1	R1404E
1014.636	1.257	1043320	REC_WORD	1.257	n/a	HEART	2	9	[0, 0, 0]	n/a	FR1	1	R1404E
1015.893	27.111	1044577	REC_WORD	27.111	n/a	BARN	1	9	[0, 0, 0]	n/a	FR1	1	R1404E
1043.004	3.793	1071694	REC_END	n/a	n/a	n/a	-999	9	[0, 0, 0]	n/a	FR1	1	R1404E
1046.797	10.35	1075487	COUNTDOWN_START	n/a	n/a	n/a	-999	10	[0, 0, 0]	n/a	FR1	1	R1404E
1057.147	0.0	1085830	COUNTDOWN_END	n/a	n/a	n/a	-999	10	[0, 0, 0]	n/a	FR1	1	R1404E
1057.147	2.3	1085830	ENCODING_START	n/a	n/a	n/a	-999	10	[0, 0, 0]	n/a	FR1	1	R1404E
1059.447	1.615	1088135	WORD	n/a	wordpools/wordpool_long_EN.txt	DIME	1	10	[0, 0, 0]	n/a	FR1	1	R1404E
1061.062	0.984	1089740	WORD_OFF	n/a	n/a	DIME	1	10	[0, 0, 0]	n/a	FR1	1	R1404E
1062.046	1.6	1090732	WORD	n/a	wordpools/wordpool_long_EN.txt	STORE	2	10	[0, 0, 0]	n/a	FR1	1	R1404E
1063.646	0.966	1092336	WORD_OFF	n/a	n/a	STORE	2	10	[0, 0, 0]	n/a	FR1	1	R1404E
1064.612	1.601	1093299	WORD	n/a	wordpools/wordpool_long_EN.txt	PURSE	3	10	[0, 0, 0]	n/a	FR1	1	R1404E
1066.213	0.817	1094904	WORD_OFF	n/a	n/a	PURSE	3	10	[0, 0, 0]	n/a	FR1	1	R1404E
1067.03	1.616	1095706	WORD	n/a	wordpools/wordpool_long_EN.txt	PIT	4	10	[0, 0, 0]	n/a	FR1	1	R1404E
1068.646	0.967	1097326	WORD_OFF	n/a	n/a	PIT	4	10	[0, 0, 0]	n/a	FR1	1	R1404E
1069.613	1.6	1098303	WORD	n/a	wordpools/wordpool_long_EN.txt	SPRING	5	10	[0, 0, 0]	n/a	FR1	1	R1404E
1071.213	0.866	1099893	WORD_OFF	n/a	n/a	SPRING	5	10	[0, 0, 0]	n/a	FR1	1	R1404E
1072.079	1.617	1100768	WORD	n/a	wordpools/wordpool_long_EN.txt	GOAL	6	10	[0, 0, 0]	n/a	FR1	1	R1404E
1073.696	0.833	1102373	WORD_OFF	n/a	n/a	GOAL	6	10	[0, 0, 0]	n/a	FR1	1	R1404E
1074.529	1.617	1103219	WORD	n/a	wordpools/wordpool_long_EN.txt	CAT	7	10	[0, 0, 0]	n/a	FR1	1	R1404E
1076.146	0.8	1104824	WORD_OFF	n/a	n/a	CAT	7	10	[0, 0, 0]	n/a	FR1	1	R1404E
1076.946	1.6	1105626	WORD	n/a	wordpools/wordpool_long_EN.txt	THUMB	8	10	[0, 0, 0]	n/a	FR1	1	R1404E
1078.546	0.866	1107231	WORD_OFF	n/a	n/a	THUMB	8	10	[0, 0, 0]	n/a	FR1	1	R1404E
1079.412	1.617	1108092	WORD	n/a	wordpools/wordpool_long_EN.txt	SEAT	9	10	[0, 0, 0]	n/a	FR1	1	R1404E
1081.029	0.983	1109711	WORD_OFF	n/a	n/a	SEAT	9	10	[0, 0, 0]	n/a	FR1	1	R1404E
1082.012	1.617	1110703	WORD	n/a	wordpools/wordpool_long_EN.txt	BADGE	10	10	[0, 0, 0]	n/a	FR1	1	R1404E
1083.629	1.0	1112308	WORD_OFF	n/a	n/a	BADGE	10	10	[0, 0, 0]	n/a	FR1	1	R1404E
1084.629	1.6	1113314	WORD	n/a	wordpools/wordpool_long_EN.txt	GATE	11	10	[0, 0, 0]	n/a	FR1	1	R1404E
1086.229	0.933	1114919	WORD_OFF	n/a	n/a	GATE	11	10	[0, 0, 0]	n/a	FR1	1	R1404E
1087.162	1.6	1115853	WORD	n/a	wordpools/wordpool_long_EN.txt	BLOOM	12	10	[0, 0, 0]	n/a	FR1	1	R1404E
1088.762	0.001	1117443	WORD_OFF	n/a	n/a	BLOOM	12	10	[0, 0, 0]	n/a	FR1	1	R1404E
1088.763	0.0	1117443	ENCODING_END	n/a	n/a	n/a	-999	10	[0, 0, 0]	n/a	FR1	1	R1404E
1088.763	0.0	1117443	DISTRACT_START	n/a	n/a	n/a	-999	10	[0, 0, 0]	n/a	FR1	1	R1404E
1088.763	0.0	1117447	START	n/a	n/a	n/a	-999	10	[-999, -999, -999]	n/a	FR1	1	R1404E
1088.763	15.016	1117447	PROB	15.016	n/a	n/a	-999	10	[6, 7, 8]	21	FR1	1	R1404E
1103.779	2.917	1132463	PROB	2.917	n/a	n/a	-999	10	[7, 1, 3]	11	FR1	1	R1404E
1106.696	3.932	1135380	PROB	3.932	n/a	n/a	-999	10	[6, 2, 3]	11	FR1	1	R1404E
1110.628	0.0	1139311	DISTRACT_END	n/a	n/a	n/a	-999	10	[0, 0, 0]	n/a	FR1	1	R1404E
1110.628	2.366	1139312	STOP	n/a	n/a	n/a	-999	10	[-999, -999, -999]	n/a	FR1	1	R1404E
1112.994	29.999	1141682	REC_START	n/a	n/a	n/a	-999	10	[0, 0, 0]	n/a	FR1	1	R1404E
1142.993	0.237	1171677	REC_WORD_VV	0.237	n/a	<>	-999	10	[0, 0, 0]	n/a	FR1	1	R1404E
1143.23	6.48	1171915	REC_END	n/a	n/a	n/a	-999	10	[0, 0, 0]	n/a	FR1	1	R1404E
1149.71	10.35	1178392	COUNTDOWN_START	n/a	n/a	n/a	-999	11	[0, 0, 0]	n/a	FR1	1	R1404E
1160.06	0.0	1188750	COUNTDOWN_END	n/a	n/a	n/a	-999	11	[0, 0, 0]	n/a	FR1	1	R1404E
1160.06	1.916	1188750	ENCODING_START	n/a	n/a	n/a	-999	11	[0, 0, 0]	n/a	FR1	1	R1404E
1161.976	1.6	1190661	WORD	n/a	wordpools/wordpool_long_EN.txt	TOWN	1	11	[0, 0, 0]	n/a	FR1	1	R1404E
1163.576	0.986	1192266	WORD_OFF	n/a	n/a	TOWN	1	11	[0, 0, 0]	n/a	FR1	1	R1404E
1164.562	1.597	1193243	WORD	n/a	wordpools/wordpool_long_EN.txt	QUAIL	2	11	[0, 0, 0]	n/a	FR1	1	R1404E
1166.159	0.8	1194848	WORD_OFF	n/a	n/a	QUAIL	2	11	[0, 0, 0]	n/a	FR1	1	R1404E
1166.959	1.617	1195650	WORD	n/a	wordpools/wordpool_long_EN.txt	SNAIL	3	11	[0, 0, 0]	n/a	FR1	1	R1404E
1168.576	0.933	1197255	WORD_OFF	n/a	n/a	SNAIL	3	11	[0, 0, 0]	n/a	FR1	1	R1404E
1169.509	1.617	1198189	WORD	n/a	wordpools/wordpool_long_EN.txt	SQUARE	4	11	[0, 0, 0]	n/a	FR1	1	R1404E
1171.126	0.883	1199808	WORD_OFF	n/a	n/a	SQUARE	4	11	[0, 0, 0]	n/a	FR1	1	R1404E
1172.009	1.6	1200698	WORD	n/a	wordpools/wordpool_long_EN.txt	TANK	5	11	[0, 0, 0]	n/a	FR1	1	R1404E
1173.609	0.833	1202288	WORD_OFF	n/a	n/a	TANK	5	11	[0, 0, 0]	n/a	FR1	1	R1404E
1174.442	1.6	1203119	WORD	n/a	wordpools/wordpool_long_EN.txt	SLUSH	6	11	[0, 0, 0]	n/a	FR1	1	R1404E
1176.042	0.85	1204724	WORD_OFF	n/a	n/a	SLUSH	6	11	[0, 0, 0]	n/a	FR1	1	R1404E
1176.892	1.617	1205570	WORD	n/a	wordpools/wordpool_long_EN.txt	VINE	7	11	[0, 0, 0]	n/a	FR1	1	R1404E
1178.509	0.766	1207189	WORD_OFF	n/a	n/a	VINE	7	11	[0, 0, 0]	n/a	FR1	1	R1404E
1179.275	1.617	1207963	WORD	n/a	wordpools/wordpool_long_EN.txt	TOAST	8	11	[0, 0, 0]	n/a	FR1	1	R1404E
1180.892	0.95	1209582	WORD_OFF	n/a	n/a	TOAST	8	11	[0, 0, 0]	n/a	FR1	1	R1404E
1181.842	1.6	1210530	WORD	n/a	wordpools/wordpool_long_EN.txt	TRIBE	9	11	[0, 0, 0]	n/a	FR1	1	R1404E
1183.442	0.816	1212120	WORD_OFF	n/a	n/a	TRIBE	9	11	[0, 0, 0]	n/a	FR1	1	R1404E
1184.258	1.617	1212937	WORD	n/a	wordpools/wordpool_long_EN.txt	JAIL	10	11	[0, 0, 0]	n/a	FR1	1	R1404E
1185.875	0.783	1214557	WORD_OFF	n/a	n/a	JAIL	10	11	[0, 0, 0]	n/a	FR1	1	R1404E
1186.658	1.617	1215344	WORD	n/a	wordpools/wordpool_long_EN.txt	SCHOOL	11	11	[0, 0, 0]	n/a	FR1	1	R1404E
1188.275	0.9	1216964	WORD_OFF	n/a	n/a	SCHOOL	11	11	[0, 0, 0]	n/a	FR1	1	R1404E
1189.175	1.616	1217853	WORD	n/a	wordpools/wordpool_long_EN.txt	SWAMP	12	11	[0, 0, 0]	n/a	FR1	1	R1404E
1190.791	0.002	1219473	WORD_OFF	n/a	n/a	SWAMP	12	11	[0, 0, 0]	n/a	FR1	1	R1404E
1190.793	0.0	1219473	ENCODING_END	n/a	n/a	n/a	-999	11	[0, 0, 0]	n/a	FR1	1	R1404E
1190.793	0.0	1219473	DISTRACT_START	n/a	n/a	n/a	-999	11	[0, 0, 0]	n/a	FR1	1	R1404E
1190.792	0.001	1219476	PROB	0.001	n/a	n/a	-999	11	[4, 6, 8]	18	FR1	1	R1404E
1190.793	7.548	1219477	START	n/a	n/a	n/a	-999	11	[-999, -999, -999]	n/a	FR1	1	R1404E
1198.341	3.318	1227025	PROB	3.318	n/a	n/a	-999	11	[3, 6, 2]	11	FR1	1	R1404E
1201.659	2.799	1230343	PROB	2.799	n/a	n/a	-999	11	[7, 2, 7]	16	FR1	1	R1404E
1204.458	4.95	1233142	PROB	4.95	n/a	n/a	-999	11	[3, 6, 7]	16	FR1	1	R1404E
1209.408	6.783	1238092	PROB	6.783	n/a	n/a	-999	11	[6, 8, 7]	20	FR1	1	R1404E
1216.191	0.0	1244871	DISTRACT_END	n/a	n/a	n/a	-999	11	[0, 0, 0]	n/a	FR1	1	R1404E
1216.191	2.35	1244875	STOP	n/a	n/a	n/a	-999	11	[-999, -999, -999]	n/a	FR1	1	R1404E
1218.541	1.588	1247228	REC_START	n/a	n/a	n/a	-999	11	[0, 0, 0]	n/a	FR1	1	R1404E
1220.129	0.929	1248813	REC_WORD	0.929	n/a	QUAIL	2	11	[0, 0, 0]	n/a	FR1	1	R1404E
1221.058	1.257	1249742	REC_WORD	1.257	n/a	SNAIL	3	11	[0, 0, 0]	n/a	FR1	1	R1404E
1222.315	6.004	1250999	REC_WORD	6.004	n/a	JAIL	10	11	[0, 0, 0]	n/a	FR1	1	R1404E
1228.319	20.461	1257003	REC_WORD	20.461	n/a	SCHOOL	11	11	[0, 0, 0]	n/a	FR1	1	R1404E
1248.78	3.427	1277461	REC_END	n/a	n/a	n/a	-999	11	[0, 0, 0]	n/a	FR1	1	R1404E
1252.207	10.349	1280889	COUNTDOWN_START	n/a	n/a	n/a	-999	12	[0, 0, 0]	n/a	FR1	1	R1404E
1262.556	0.0	1291247	COUNTDOWN_END	n/a	n/a	n/a	-999	12	[0, 0, 0]	n/a	FR1	1	R1404E
1262.556	2.066	1291247	ENCODING_START	n/a	n/a	n/a	-999	12	[0, 0, 0]	n/a	FR1	1	R1404E
1264.622	1.6	1293304	WORD	n/a	wordpools/wordpool_long_EN.txt	WOOD	1	12	[0, 0, 0]	n/a	FR1	1	R1404E
1266.222	0.767	1294908	WORD_OFF	n/a	n/a	WOOD	1	12	[0, 0, 0]	n/a	FR1	1	R1404E
1266.989	1.6	1295667	WORD	n/a	wordpools/wordpool_long_EN.txt	SHEET	2	12	[0, 0, 0]	n/a	FR1	1	R1404E
1268.589	0.983	1297272	WORD_OFF	n/a	n/a	SHEET	2	12	[0, 0, 0]	n/a	FR1	1	R1404E
1269.572	1.617	1298249	WORD	n/a	wordpools/wordpool_long_EN.txt	SMOG	3	12	[0, 0, 0]	n/a	FR1	1	R1404E
1271.189	0.967	1299868	WORD_OFF	n/a	n/a	SMOG	3	12	[0, 0, 0]	n/a	FR1	1	R1404E
1272.156	1.599	1300846	WORD	n/a	wordpools/wordpool_long_EN.txt	STAR	4	12	[0, 0, 0]	n/a	FR1	1	R1404E
1273.755	0.984	1302436	WORD_OFF	n/a	n/a	STAR	4	12	[0, 0, 0]	n/a	FR1	1	R1404E
1274.739	1.616	1303428	WORD	n/a	wordpools/wordpool_long_EN.txt	CLOTH	5	12	[0, 0, 0]	n/a	FR1	1	R1404E
1276.355	0.85	1305033	WORD_OFF	n/a	n/a	CLOTH	5	12	[0, 0, 0]	n/a	FR1	1	R1404E
1277.205	1.617	1305893	WORD	n/a	wordpools/wordpool_long_EN.txt	MULE	6	12	[0, 0, 0]	n/a	FR1	1	R1404E
1278.822	0.95	1307513	WORD_OFF	n/a	n/a	MULE	6	12	[0, 0, 0]	n/a	FR1	1	R1404E
1279.772	1.6	1308461	WORD	n/a	wordpools/wordpool_long_EN.txt	SUIT	7	12	[0, 0, 0]	n/a	FR1	1	R1404E
1281.372	0.916	1310051	WORD_OFF	n/a	n/a	SUIT	7	12	[0, 0, 0]	n/a	FR1	1	R1404E
1282.288	1.6	1310970	WORD	n/a	wordpools/wordpool_long_EN.txt	CLOWN	8	12	[0, 0, 0]	n/a	FR1	1	R1404E
1283.888	0.9	1312575	WORD_OFF	n/a	n/a	CLOWN	8	12	[0, 0, 0]	n/a	FR1	1	R1404E
1284.788	1.6	1313479	WORD	n/a	wordpools/wordpool_long_EN.txt	GROUND	9	12	[0, 0, 0]	n/a	FR1	1	R1404E
1286.388	0.766	1315069	WORD_OFF	n/a	n/a	GROUND	9	12	[0, 0, 0]	n/a	FR1	1	R1404E
1287.154	1.617	1315843	WORD	n/a	wordpools/wordpool_long_EN.txt	MOUTH	10	12	[0, 0, 0]	n/a	FR1	1	R1404E
1288.771	0.917	1317447	WORD_OFF	n/a	n/a	MOUTH	10	12	[0, 0, 0]	n/a	FR1	1	R1404E
1289.688	1.6	1318366	WORD	n/a	wordpools/wordpool_long_EN.txt	FRUIT	11	12	[0, 0, 0]	n/a	FR1	1	R1404E
1291.288	0.767	1319971	WORD_OFF	n/a	n/a	FRUIT	11	12	[0, 0, 0]	n/a	FR1	1	R1404E
1292.055	1.616	1320744	WORD	n/a	wordpools/wordpool_long_EN.txt	PARK	12	12	[0, 0, 0]	n/a	FR1	1	R1404E
1293.671	0.001	1322349	WORD_OFF	n/a	n/a	PARK	12	12	[0, 0, 0]	n/a	FR1	1	R1404E
1293.672	0.0	1322356	START	n/a	n/a	n/a	-999	12	[-999, -999, -999]	n/a	FR1	1	R1404E
1293.672	0.0	1322356	PROB	0.0	n/a	n/a	-999	12	[2, 8, 3]	13	FR1	1	R1404E
1293.672	0.0	1322363	ENCODING_END	n/a	n/a	n/a	-999	12	[0, 0, 0]	n/a	FR1	1	R1404E
1293.672	8.215	1322363	DISTRACT_START	n/a	n/a	n/a	-999	12	[0, 0, 0]	n/a	FR1	1	R1404E
1301.887	4.902	1330571	PROB	4.902	n/a	n/a	-999	12	[8, 2, 5]	17	FR1	1	R1404E
1306.789	5.616	1335473	PROB	5.616	n/a	n/a	-999	12	[8, 8, 5]	21	FR1	1	R1404E
1312.405	4.483	1341089	PROB	4.483	n/a	n/a	-999	12	[6, 2, 8]	16	FR1	1	R1404E
1316.888	0.0	1345572	STOP	n/a	n/a	n/a	-999	12	[-999, -999, -999]	n/a	FR1	1	R1404E
1316.888	2.216	1345573	DISTRACT_END	n/a	n/a	n/a	-999	12	[0, 0, 0]	n/a	FR1	1	R1404E
1319.104	19.107	1347784	REC_START	n/a	n/a	n/a	-999	12	[0, 0, 0]	n/a	FR1	1	R1404E
1338.211	11.135	1366895	REC_WORD	11.135	n/a	CLOWN	8	12	[0, 0, 0]	n/a	FR1	1	R1404E
1349.346	0.0	1378032	REC_END	n/a	n/a	n/a	-999	12	[0, 0, 0]	n/a	FR1	1	R1404E
