onset	duration	sample	trial_type	response_time	stim_file	item_name	serialpos	list	test	answer	experiment	session	subject
0.0	254.55	1996	INSTRUCT_START	n/a	n/a	n/a	-999	-999	[0, 0, 0]	n/a	FR1	2	R1374T
254.55	11.701	256529	INSTRUCT_END	n/a	n/a	n/a	-999	-999	[0, 0, 0]	n/a	FR1	2	R1374T
266.251	7.802	268230	MIC TEST_START	n/a	n/a	n/a	-999	-999	[0, 0, 0]	n/a	FR1	2	R1374T
274.053	0.012	276031	MIC TEST_END	n/a	n/a	n/a	-999	-999	[0, 0, 0]	n/a	FR1	2	R1374T
274.065	0.0	276043	TRIAL_START	n/a	n/a	n/a	-999	-1	[0, 0, 0]	n/a	FR1	2	R1374T
274.065	0.0	276043	TRIAL	n/a	n/a	n/a	-999	-1	[0, 0, 0]	n/a	FR1	2	R1374T
274.065	4.723	276043	WAITING_START	n/a	n/a	n/a	-999	-1	[0, 0, 0]	n/a	FR1	2	R1374T
278.788	0.0	280766	COUNTDOWN_START	n/a	n/a	n/a	-999	-1	[0, 0, 0]	n/a	FR1	2	R1374T
278.788	10.43	280766	WAITING_END	n/a	n/a	n/a	-999	-1	[0, 0, 0]	n/a	FR1	2	R1374T
289.218	0.0	291195	COUNTDOWN_END	n/a	n/a	n/a	-999	-1	[0, 0, 0]	n/a	FR1	2	R1374T
289.218	1.137	291195	ORIENT_START	n/a	n/a	n/a	-999	-1	[0, 0, 0]	n/a	FR1	2	R1374T
290.355	0.001	292332	ORIENT_END	n/a	n/a	n/a	-999	-1	[0, 0, 0]	n/a	FR1	2	R1374T
290.356	0.912	292333	ENCODING_START	n/a	n/a	n/a	-999	-1	[0, 0, 0]	n/a	FR1	2	R1374T
291.268	1.638	293245	WORD	n/a	n/a	COTTON	1	-1	[0, 0, 0]	n/a	FR1	2	R1374T
292.906	0.957	294883	WORD_OFF	n/a	n/a	COTTON	1	-1	[0, 0, 0]	n/a	FR1	2	R1374T
293.863	1.628	295840	WORD	n/a	n/a	BABY	2	-1	[0, 0, 0]	n/a	FR1	2	R1374T
295.491	1.08	297468	WORD_OFF	n/a	n/a	BABY	2	-1	[0, 0, 0]	n/a	FR1	2	R1374T
296.571	1.636	298548	WORD	n/a	n/a	FLOOD	3	-1	[0, 0, 0]	n/a	FR1	2	R1374T
298.207	0.969	300184	WORD_OFF	n/a	n/a	FLOOD	3	-1	[0, 0, 0]	n/a	FR1	2	R1374T
299.176	1.632	301153	WORD	n/a	n/a	RHINO	4	-1	[0, 0, 0]	n/a	FR1	2	R1374T
300.808	1.07	302784	WORD_OFF	n/a	n/a	RHINO	4	-1	[0, 0, 0]	n/a	FR1	2	R1374T
301.878	1.631	303854	WORD	n/a	n/a	CHEST	5	-1	[0, 0, 0]	n/a	FR1	2	R1374T
303.509	0.769	305485	WORD_OFF	n/a	n/a	CHEST	5	-1	[0, 0, 0]	n/a	FR1	2	R1374T
304.278	1.63	306254	WORD	n/a	n/a	WATCH	6	-1	[0, 0, 0]	n/a	FR1	2	R1374T
305.908	1.085	307884	WORD_OFF	n/a	n/a	WATCH	6	-1	[0, 0, 0]	n/a	FR1	2	R1374T
306.993	1.633	308969	WORD	n/a	n/a	BEAM	7	-1	[0, 0, 0]	n/a	FR1	2	R1374T
308.626	0.796	310602	WORD_OFF	n/a	n/a	BEAM	7	-1	[0, 0, 0]	n/a	FR1	2	R1374T
309.422	1.637	311398	WORD	n/a	n/a	TONGUE	8	-1	[0, 0, 0]	n/a	FR1	2	R1374T
311.059	0.892	313035	WORD_OFF	n/a	n/a	TONGUE	8	-1	[0, 0, 0]	n/a	FR1	2	R1374T
311.951	1.626	313927	WORD	n/a	n/a	IMAGE	9	-1	[0, 0, 0]	n/a	FR1	2	R1374T
313.577	0.931	315553	WORD_OFF	n/a	n/a	IMAGE	9	-1	[0, 0, 0]	n/a	FR1	2	R1374T
314.508	1.635	316484	WORD	n/a	n/a	RING	10	-1	[0, 0, 0]	n/a	FR1	2	R1374T
316.143	1.024	318118	WORD_OFF	n/a	n/a	RING	10	-1	[0, 0, 0]	n/a	FR1	2	R1374T
317.167	1.628	319142	WORD	n/a	n/a	WAGON	11	-1	[0, 0, 0]	n/a	FR1	2	R1374T
318.795	0.768	320770	WORD_OFF	n/a	n/a	WAGON	11	-1	[0, 0, 0]	n/a	FR1	2	R1374T
319.563	1.631	321538	WORD	n/a	n/a	CAMEL	12	-1	[0, 0, 0]	n/a	FR1	2	R1374T
321.194	0.0	323169	WORD_OFF	n/a	n/a	CAMEL	12	-1	[0, 0, 0]	n/a	FR1	2	R1374T
321.194	0.001	323169	ENCODING_END	n/a	n/a	n/a	-999	-1	[0, 0, 0]	n/a	FR1	2	R1374T
321.195	0.0	323170	DISTRACT_START	n/a	n/a	n/a	-999	-1	[0, 0, 0]	n/a	FR1	2	R1374T
321.195	0.016	323170	START	n/a	n/a	n/a	-999	-1	[-999, -999, -999]	n/a	FR1	2	R1374T
321.211	8.369	323186	PROB	8.369	n/a	n/a	-999	-1	[5, 7, 4]	16	FR1	2	R1374T
329.58	5.616	331555	PROB	5.616	n/a	n/a	-999	-1	[4, 4, 3]	11	FR1	2	R1374T
335.196	8.912	337170	PROB	8.912	n/a	n/a	-999	-1	[6, 6, 1]	13	FR1	2	R1374T
344.108	0.007	346082	STOP	n/a	n/a	n/a	-999	-1	[-999, -999, -999]	n/a	FR1	2	R1374T
344.115	0.578	346089	DISTRACT_END	n/a	n/a	n/a	-999	-1	[0, 0, 0]	n/a	FR1	2	R1374T
344.693	1.707	346667	RETRIEVAL_ORIENT_START	n/a	n/a	n/a	-999	-1	[0, 0, 0]	n/a	FR1	2	R1374T
346.4	0.0	348373	RETRIEVAL_ORIENT_END	n/a	n/a	n/a	-999	-1	[0, 0, 0]	n/a	FR1	2	R1374T
346.4	0.771	348373	REC_START	n/a	n/a	n/a	-999	-1	[0, 0, 0]	n/a	FR1	2	R1374T
347.171	0.676	349144	REC_WORD	0.676	n/a	COTTON	1	-1	[0, 0, 0]	n/a	FR1	2	R1374T
347.847	1.048	349820	REC_WORD	1.048	n/a	BABY	2	-1	[0, 0, 0]	n/a	FR1	2	R1374T
348.895	0.97	350868	REC_WORD	0.97	n/a	FLOOD	3	-1	[0, 0, 0]	n/a	FR1	2	R1374T
349.865	2.144	351838	REC_WORD	2.144	n/a	RHINO	4	-1	[0, 0, 0]	n/a	FR1	2	R1374T
352.009	10.203	353982	REC_WORD	10.203	n/a	WING	-999	-1	[0, 0, 0]	n/a	FR1	2	R1374T
362.212	0.692	364184	REC_WORD	0.692	n/a	RIVER	-999	-1	[0, 0, 0]	n/a	FR1	2	R1374T
362.904	1.526	364876	REC_WORD_VV	1.526	n/a	<>	-999	-1	[0, 0, 0]	n/a	FR1	2	R1374T
364.43	3.734	366402	REC_WORD_VV	3.734	n/a	<>	-999	-1	[0, 0, 0]	n/a	FR1	2	R1374T
368.164	1.0	370136	REC_WORD_VV	1.0	n/a	<>	-999	-1	[0, 0, 0]	n/a	FR1	2	R1374T
369.164	1.0	371136	REC_WORD_VV	1.0	n/a	<>	-999	-1	[0, 0, 0]	n/a	FR1	2	R1374T
370.164	1.0	372136	REC_WORD_VV	1.0	n/a	<>	-999	-1	[0, 0, 0]	n/a	FR1	2	R1374T
371.164	1.0	373136	REC_WORD_VV	1.0	n/a	<>	-999	-1	[0, 0, 0]	n/a	FR1	2	R1374T
372.164	1.0	374136	REC_WORD_VV	1.0	n/a	<>	-999	-1	[0, 0, 0]	n/a	FR1	2	R1374T
373.164	1.0	375136	REC_WORD_VV	1.0	n/a	<>	-999	-1	[0, 0, 0]	n/a	FR1	2	R1374T
374.164	2.249	376136	REC_WORD_VV	2.249	n/a	<>	-999	-1	[0, 0, 0]	n/a	FR1	2	R1374T
376.413	0.0	378384	REC_END	n/a	n/a	n/a	-999	-1	[0, 0, 0]	n/a	FR1	2	R1374T
376.413	8.71	378384	PRACTICE_POST_INSTRUCT_START	n/a	n/a	n/a	-999	-1	[0, 0, 0]	n/a	FR1	2	R1374T
385.123	0.0	387094	PRACTICE_POST_INSTRUCT_END	n/a	n/a	n/a	-999	-1	[0, 0, 0]	n/a	FR1	2	R1374T
385.123	0.017	387094	TRIAL_END	n/a	n/a	n/a	-999	-1	[0, 0, 0]	n/a	FR1	2	R1374T
385.14	0.0	387111	TRIAL_START	n/a	n/a	n/a	-999	1	[0, 0, 0]	n/a	FR1	2	R1374T
385.14	0.0	387111	TRIAL	n/a	n/a	n/a	-999	1	[0, 0, 0]	n/a	FR1	2	R1374T
385.14	8.368	387111	WAITING_START	n/a	n/a	n/a	-999	1	[0, 0, 0]	n/a	FR1	2	R1374T
393.508	0.001	395478	WAITING_END	n/a	n/a	n/a	-999	1	[0, 0, 0]	n/a	FR1	2	R1374T
393.509	10.43	395479	COUNTDOWN_START	n/a	n/a	n/a	-999	1	[0, 0, 0]	n/a	FR1	2	R1374T
403.939	0.0	405909	ORIENT_START	n/a	n/a	n/a	-999	1	[0, 0, 0]	n/a	FR1	2	R1374T
403.939	1.237	405909	COUNTDOWN_END	n/a	n/a	n/a	-999	1	[0, 0, 0]	n/a	FR1	2	R1374T
405.176	0.0	407146	ORIENT_END	n/a	n/a	n/a	-999	1	[0, 0, 0]	n/a	FR1	2	R1374T
405.176	0.761	407146	ENCODING_START	n/a	n/a	n/a	-999	1	[0, 0, 0]	n/a	FR1	2	R1374T
405.937	1.624	407907	WORD	n/a	wordpools/wordpool_EN.txt	BOOK	1	1	[0, 0, 0]	n/a	FR1	2	R1374T
407.561	0.886	409530	WORD_OFF	n/a	n/a	BOOK	1	1	[0, 0, 0]	n/a	FR1	2	R1374T
408.447	1.63	410416	WORD	n/a	wordpools/wordpool_EN.txt	JUICE	2	1	[0, 0, 0]	n/a	FR1	2	R1374T
410.077	1.096	412046	WORD_OFF	n/a	n/a	JUICE	2	1	[0, 0, 0]	n/a	FR1	2	R1374T
411.173	1.638	413142	WORD	n/a	wordpools/wordpool_EN.txt	WHEEL	3	1	[0, 0, 0]	n/a	FR1	2	R1374T
412.811	0.86	414780	WORD_OFF	n/a	n/a	WHEEL	3	1	[0, 0, 0]	n/a	FR1	2	R1374T
413.671	1.624	415640	WORD	n/a	wordpools/wordpool_EN.txt	CUP	4	1	[0, 0, 0]	n/a	FR1	2	R1374T
415.295	0.833	417264	WORD_OFF	n/a	n/a	CUP	4	1	[0, 0, 0]	n/a	FR1	2	R1374T
416.128	1.635	418097	WORD	n/a	wordpools/wordpool_EN.txt	BIRD	5	1	[0, 0, 0]	n/a	FR1	2	R1374T
417.763	0.884	419732	WORD_OFF	n/a	n/a	BIRD	5	1	[0, 0, 0]	n/a	FR1	2	R1374T
418.647	1.632	420616	WORD	n/a	wordpools/wordpool_EN.txt	DART	6	1	[0, 0, 0]	n/a	FR1	2	R1374T
420.279	0.996	422248	WORD_OFF	n/a	n/a	DART	6	1	[0, 0, 0]	n/a	FR1	2	R1374T
421.275	1.638	423244	WORD	n/a	wordpools/wordpool_EN.txt	SEA	7	1	[0, 0, 0]	n/a	FR1	2	R1374T
422.913	0.904	424881	WORD_OFF	n/a	n/a	SEA	7	1	[0, 0, 0]	n/a	FR1	2	R1374T
423.817	1.63	425785	WORD	n/a	wordpools/wordpool_EN.txt	CUBE	8	1	[0, 0, 0]	n/a	FR1	2	R1374T
425.447	0.762	427415	WORD_OFF	n/a	n/a	CUBE	8	1	[0, 0, 0]	n/a	FR1	2	R1374T
426.209	1.621	428177	WORD	n/a	wordpools/wordpool_EN.txt	CANE	9	1	[0, 0, 0]	n/a	FR1	2	R1374T
427.83	0.976	429798	WORD_OFF	n/a	n/a	CANE	9	1	[0, 0, 0]	n/a	FR1	2	R1374T
428.806	1.609	430774	WORD	n/a	wordpools/wordpool_EN.txt	DOOR	10	1	[0, 0, 0]	n/a	FR1	2	R1374T
430.415	1.126	432383	WORD_OFF	n/a	n/a	DOOR	10	1	[0, 0, 0]	n/a	FR1	2	R1374T
431.541	1.623	433509	WORD	n/a	wordpools/wordpool_EN.txt	PIT	11	1	[0, 0, 0]	n/a	FR1	2	R1374T
433.164	0.933	435132	WORD_OFF	n/a	n/a	PIT	11	1	[0, 0, 0]	n/a	FR1	2	R1374T
434.097	1.636	436065	WORD	n/a	wordpools/wordpool_EN.txt	BLOOM	12	1	[0, 0, 0]	n/a	FR1	2	R1374T
435.733	0.0	437701	WORD_OFF	n/a	n/a	BLOOM	12	1	[0, 0, 0]	n/a	FR1	2	R1374T
435.733	0.0	437701	ENCODING_END	n/a	n/a	n/a	-999	1	[0, 0, 0]	n/a	FR1	2	R1374T
435.733	0.0	437701	DISTRACT_START	n/a	n/a	n/a	-999	1	[0, 0, 0]	n/a	FR1	2	R1374T
435.733	0.016	437701	START	n/a	n/a	n/a	-999	1	[-999, -999, -999]	n/a	FR1	2	R1374T
435.749	6.567	437717	PROB	6.567	n/a	n/a	-999	1	[8, 4, 8]	20	FR1	2	R1374T
442.316	6.668	444283	PROB	6.668	n/a	n/a	-999	1	[4, 8, 1]	13	FR1	2	R1374T
448.984	7.247	450951	PROB	7.247	n/a	n/a	-999	1	[3, 2, 5]	10	FR1	2	R1374T
456.231	0.021	458197	STOP	n/a	n/a	n/a	-999	1	[-999, -999, -999]	n/a	FR1	2	R1374T
456.252	0.515	458218	DISTRACT_END	n/a	n/a	n/a	-999	1	[0, 0, 0]	n/a	FR1	2	R1374T
456.767	1.585	458733	RETRIEVAL_ORIENT_START	n/a	n/a	n/a	-999	1	[0, 0, 0]	n/a	FR1	2	R1374T
458.352	0.001	460318	RETRIEVAL_ORIENT_END	n/a	n/a	n/a	-999	1	[0, 0, 0]	n/a	FR1	2	R1374T
458.353	2.994	460319	REC_START	n/a	n/a	n/a	-999	1	[0, 0, 0]	n/a	FR1	2	R1374T
461.347	2.655	463313	REC_WORD_VV	2.655	n/a	<>	-999	1	[0, 0, 0]	n/a	FR1	2	R1374T
464.002	3.776	465968	REC_WORD_VV	3.776	n/a	<>	-999	1	[0, 0, 0]	n/a	FR1	2	R1374T
467.778	0.431	469743	REC_WORD	0.431	n/a	COTTON	-999	1	[0, 0, 0]	n/a	FR1	2	R1374T
468.209	1.884	470174	REC_WORD	1.884	n/a	BLOOD	-999	1	[0, 0, 0]	n/a	FR1	2	R1374T
470.093	1.581	472058	REC_WORD	1.581	n/a	BABY	-999	1	[0, 0, 0]	n/a	FR1	2	R1374T
471.674	2.074	473639	REC_WORD	2.074	n/a	FLOOD	-999	1	[0, 0, 0]	n/a	FR1	2	R1374T
473.748	1.203	475713	REC_WORD	1.203	n/a	RHINO	-999	1	[0, 0, 0]	n/a	FR1	2	R1374T
474.951	13.413	476916	REC_WORD	13.413	n/a	WHEEL	3	1	[0, 0, 0]	n/a	FR1	2	R1374T
488.364	0.001	490328	REC_END	n/a	n/a	n/a	-999	1	[0, 0, 0]	n/a	FR1	2	R1374T
488.365	0.014	490329	TRIAL_END	n/a	n/a	n/a	-999	1	[0, 0, 0]	n/a	FR1	2	R1374T
488.379	0.0	490343	TRIAL_START	n/a	n/a	n/a	-999	2	[0, 0, 0]	n/a	FR1	2	R1374T
488.379	0.0	490343	TRIAL	n/a	n/a	n/a	-999	2	[0, 0, 0]	n/a	FR1	2	R1374T
488.379	3.596	490343	WAITING_START	n/a	n/a	n/a	-999	2	[0, 0, 0]	n/a	FR1	2	R1374T
491.975	0.0	493939	WAITING_END	n/a	n/a	n/a	-999	2	[0, 0, 0]	n/a	FR1	2	R1374T
491.975	10.43	493939	COUNTDOWN_START	n/a	n/a	n/a	-999	2	[0, 0, 0]	n/a	FR1	2	R1374T
502.405	0.0	504368	ORIENT_START	n/a	n/a	n/a	-999	2	[0, 0, 0]	n/a	FR1	2	R1374T
502.405	1.057	504368	COUNTDOWN_END	n/a	n/a	n/a	-999	2	[0, 0, 0]	n/a	FR1	2	R1374T
503.462	0.0	505425	ORIENT_END	n/a	n/a	n/a	-999	2	[0, 0, 0]	n/a	FR1	2	R1374T
503.462	1.063	505425	ENCODING_START	n/a	n/a	n/a	-999	2	[0, 0, 0]	n/a	FR1	2	R1374T
504.525	1.636	506488	WORD	n/a	wordpools/wordpool_EN.txt	SHOE	1	2	[0, 0, 0]	n/a	FR1	2	R1374T
506.161	0.829	508124	WORD_OFF	n/a	n/a	SHOE	1	2	[0, 0, 0]	n/a	FR1	2	R1374T
506.99	1.622	508953	WORD	n/a	wordpools/wordpool_EN.txt	POOL	2	2	[0, 0, 0]	n/a	FR1	2	R1374T
508.612	0.873	510575	WORD_OFF	n/a	n/a	POOL	2	2	[0, 0, 0]	n/a	FR1	2	R1374T
509.485	1.627	511448	WORD	n/a	wordpools/wordpool_EN.txt	BOOT	3	2	[0, 0, 0]	n/a	FR1	2	R1374T
511.112	0.756	513075	WORD_OFF	n/a	n/a	BOOT	3	2	[0, 0, 0]	n/a	FR1	2	R1374T
511.868	1.612	513831	WORD	n/a	wordpools/wordpool_EN.txt	WEB	4	2	[0, 0, 0]	n/a	FR1	2	R1374T
513.48	0.842	515442	WORD_OFF	n/a	n/a	WEB	4	2	[0, 0, 0]	n/a	FR1	2	R1374T
514.322	1.624	516284	WORD	n/a	wordpools/wordpool_EN.txt	BATH	5	2	[0, 0, 0]	n/a	FR1	2	R1374T
515.946	0.784	517908	WORD_OFF	n/a	n/a	BATH	5	2	[0, 0, 0]	n/a	FR1	2	R1374T
516.73	1.633	518692	WORD	n/a	wordpools/wordpool_EN.txt	GLOVE	6	2	[0, 0, 0]	n/a	FR1	2	R1374T
518.363	0.932	520325	WORD_OFF	n/a	n/a	GLOVE	6	2	[0, 0, 0]	n/a	FR1	2	R1374T
519.295	1.635	521257	WORD	n/a	wordpools/wordpool_EN.txt	LAND	7	2	[0, 0, 0]	n/a	FR1	2	R1374T
520.93	1.069	522892	WORD_OFF	n/a	n/a	LAND	7	2	[0, 0, 0]	n/a	FR1	2	R1374T
521.999	1.633	523961	WORD	n/a	wordpools/wordpool_EN.txt	ROOF	8	2	[0, 0, 0]	n/a	FR1	2	R1374T
523.632	0.773	525594	WORD_OFF	n/a	n/a	ROOF	8	2	[0, 0, 0]	n/a	FR1	2	R1374T
524.405	1.626	526367	WORD	n/a	wordpools/wordpool_EN.txt	PEA	9	2	[0, 0, 0]	n/a	FR1	2	R1374T
526.031	0.978	527993	WORD_OFF	n/a	n/a	PEA	9	2	[0, 0, 0]	n/a	FR1	2	R1374T
527.009	1.624	528971	WORD	n/a	wordpools/wordpool_EN.txt	SUN	10	2	[0, 0, 0]	n/a	FR1	2	R1374T
528.633	0.916	530594	WORD_OFF	n/a	n/a	SUN	10	2	[0, 0, 0]	n/a	FR1	2	R1374T
529.549	1.633	531510	WORD	n/a	wordpools/wordpool_EN.txt	DEER	11	2	[0, 0, 0]	n/a	FR1	2	R1374T
531.182	1.029	533143	WORD_OFF	n/a	n/a	DEER	11	2	[0, 0, 0]	n/a	FR1	2	R1374T
532.211	1.622	534172	WORD	n/a	wordpools/wordpool_EN.txt	SALT	12	2	[0, 0, 0]	n/a	FR1	2	R1374T
533.833	0.0	535794	ENCODING_END	n/a	n/a	n/a	-999	2	[0, 0, 0]	n/a	FR1	2	R1374T
533.833	0.0	535794	DISTRACT_START	n/a	n/a	n/a	-999	2	[0, 0, 0]	n/a	FR1	2	R1374T
533.833	0.001	535794	WORD_OFF	n/a	n/a	SALT	12	2	[0, 0, 0]	n/a	FR1	2	R1374T
533.834	0.015	535795	START	n/a	n/a	n/a	-999	2	[-999, -999, -999]	n/a	FR1	2	R1374T
533.849	12.469	535810	PROB	12.469	n/a	n/a	-999	2	[2, 3, 5]	10	FR1	2	R1374T
546.318	9.656	548278	PROB	9.656	n/a	n/a	-999	2	[3, 7, 8]	18	FR1	2	R1374T
555.974	0.013	557934	STOP	n/a	n/a	n/a	-999	2	[-999, -999, -999]	n/a	FR1	2	R1374T
555.987	0.591	557947	DISTRACT_END	n/a	n/a	n/a	-999	2	[0, 0, 0]	n/a	FR1	2	R1374T
556.578	1.542	558538	RETRIEVAL_ORIENT_START	n/a	n/a	n/a	-999	2	[0, 0, 0]	n/a	FR1	2	R1374T
558.12	0.001	560080	RETRIEVAL_ORIENT_END	n/a	n/a	n/a	-999	2	[0, 0, 0]	n/a	FR1	2	R1374T
558.121	1.396	560081	REC_START	n/a	n/a	n/a	-999	2	[0, 0, 0]	n/a	FR1	2	R1374T
559.517	3.223	561476	REC_WORD_VV	3.223	n/a	<>	-999	2	[0, 0, 0]	n/a	FR1	2	R1374T
562.74	3.05	564699	REC_WORD	3.05	n/a	COTTON	-999	2	[0, 0, 0]	n/a	FR1	2	R1374T
565.79	0.914	567749	REC_WORD	0.914	n/a	BABY	-999	2	[0, 0, 0]	n/a	FR1	2	R1374T
566.704	1.526	568663	REC_WORD	1.526	n/a	WHEEL	-999	2	[0, 0, 0]	n/a	FR1	2	R1374T
568.23	18.914	570189	REC_WORD	18.914	n/a	BLOOD	-999	2	[0, 0, 0]	n/a	FR1	2	R1374T
587.144	0.989	589102	REC_WORD	0.989	n/a	RIVER	-999	2	[0, 0, 0]	n/a	FR1	2	R1374T
588.133	0.0	590091	REC_END	n/a	n/a	n/a	-999	2	[0, 0, 0]	n/a	FR1	2	R1374T
588.133	0.017	590091	TRIAL_END	n/a	n/a	n/a	-999	2	[0, 0, 0]	n/a	FR1	2	R1374T
588.15	0.0	590108	TRIAL_START	n/a	n/a	n/a	-999	3	[0, 0, 0]	n/a	FR1	2	R1374T
588.15	0.0	590108	TRIAL	n/a	n/a	n/a	-999	3	[0, 0, 0]	n/a	FR1	2	R1374T
588.15	6.077	590108	WAITING_START	n/a	n/a	n/a	-999	3	[0, 0, 0]	n/a	FR1	2	R1374T
594.227	0.0	596184	WAITING_END	n/a	n/a	n/a	-999	3	[0, 0, 0]	n/a	FR1	2	R1374T
594.227	10.429	596184	COUNTDOWN_START	n/a	n/a	n/a	-999	3	[0, 0, 0]	n/a	FR1	2	R1374T
604.656	0.001	606612	COUNTDOWN_END	n/a	n/a	n/a	-999	3	[0, 0, 0]	n/a	FR1	2	R1374T
604.657	1.206	606613	ORIENT_START	n/a	n/a	n/a	-999	3	[0, 0, 0]	n/a	FR1	2	R1374T
605.863	0.0	607819	ORIENT_END	n/a	n/a	n/a	-999	3	[0, 0, 0]	n/a	FR1	2	R1374T
605.863	1.104	607819	ENCODING_START	n/a	n/a	n/a	-999	3	[0, 0, 0]	n/a	FR1	2	R1374T
606.967	1.614	608923	WORD	n/a	wordpools/wordpool_EN.txt	TOOTH	1	3	[0, 0, 0]	n/a	FR1	2	R1374T
608.581	1.072	610537	WORD_OFF	n/a	n/a	TOOTH	1	3	[0, 0, 0]	n/a	FR1	2	R1374T
609.653	1.627	611609	WORD	n/a	wordpools/wordpool_EN.txt	WORLD	2	3	[0, 0, 0]	n/a	FR1	2	R1374T
611.28	0.797	613236	WORD_OFF	n/a	n/a	WORLD	2	3	[0, 0, 0]	n/a	FR1	2	R1374T
612.077	1.638	614033	WORD	n/a	wordpools/wordpool_EN.txt	VAN	3	3	[0, 0, 0]	n/a	FR1	2	R1374T
613.715	1.076	615671	WORD_OFF	n/a	n/a	VAN	3	3	[0, 0, 0]	n/a	FR1	2	R1374T
614.791	1.624	616747	WORD	n/a	wordpools/wordpool_EN.txt	CAGE	4	3	[0, 0, 0]	n/a	FR1	2	R1374T
616.415	0.94	618371	WORD_OFF	n/a	n/a	CAGE	4	3	[0, 0, 0]	n/a	FR1	2	R1374T
617.355	1.627	619311	WORD	n/a	wordpools/wordpool_EN.txt	ROOT	5	3	[0, 0, 0]	n/a	FR1	2	R1374T
618.982	0.869	620938	WORD_OFF	n/a	n/a	ROOT	5	3	[0, 0, 0]	n/a	FR1	2	R1374T
619.851	1.632	621806	WORD	n/a	wordpools/wordpool_EN.txt	CORD	6	3	[0, 0, 0]	n/a	FR1	2	R1374T
621.483	1.093	623438	WORD_OFF	n/a	n/a	CORD	6	3	[0, 0, 0]	n/a	FR1	2	R1374T
622.576	1.623	624531	WORD	n/a	wordpools/wordpool_EN.txt	WALL	7	3	[0, 0, 0]	n/a	FR1	2	R1374T
624.199	0.885	626154	WORD_OFF	n/a	n/a	WALL	7	3	[0, 0, 0]	n/a	FR1	2	R1374T
625.084	1.616	627039	WORD	n/a	wordpools/wordpool_EN.txt	CROWN	8	3	[0, 0, 0]	n/a	FR1	2	R1374T
626.7	0.922	628655	WORD_OFF	n/a	n/a	CROWN	8	3	[0, 0, 0]	n/a	FR1	2	R1374T
627.622	1.628	629577	WORD	n/a	wordpools/wordpool_EN.txt	TRASH	9	3	[0, 0, 0]	n/a	FR1	2	R1374T
629.25	1.029	631205	WORD_OFF	n/a	n/a	TRASH	9	3	[0, 0, 0]	n/a	FR1	2	R1374T
630.279	1.638	632234	WORD	n/a	wordpools/wordpool_EN.txt	HOLE	10	3	[0, 0, 0]	n/a	FR1	2	R1374T
631.917	0.972	633872	WORD_OFF	n/a	n/a	HOLE	10	3	[0, 0, 0]	n/a	FR1	2	R1374T
632.889	1.613	634844	WORD	n/a	wordpools/wordpool_EN.txt	FISH	11	3	[0, 0, 0]	n/a	FR1	2	R1374T
634.502	0.779	636457	WORD_OFF	n/a	n/a	FISH	11	3	[0, 0, 0]	n/a	FR1	2	R1374T
635.281	1.637	637235	WORD	n/a	wordpools/wordpool_EN.txt	CORN	12	3	[0, 0, 0]	n/a	FR1	2	R1374T
636.918	0.0	638872	WORD_OFF	n/a	n/a	CORN	12	3	[0, 0, 0]	n/a	FR1	2	R1374T
636.918	0.001	638872	ENCODING_END	n/a	n/a	n/a	-999	3	[0, 0, 0]	n/a	FR1	2	R1374T
636.919	0.0	638873	DISTRACT_START	n/a	n/a	n/a	-999	3	[0, 0, 0]	n/a	FR1	2	R1374T
636.919	0.016	638873	START	n/a	n/a	n/a	-999	3	[-999, -999, -999]	n/a	FR1	2	R1374T
636.935	11.502	638889	PROB	11.502	n/a	n/a	-999	3	[3, 6, 4]	13	FR1	2	R1374T
648.437	6.901	650391	PROB	6.901	n/a	n/a	-999	3	[3, 7, 4]	14	FR1	2	R1374T
655.338	8.515	657291	PROB	8.515	n/a	n/a	-999	3	[6, 7, 3]	16	FR1	2	R1374T
663.853	0.02	665806	STOP	n/a	n/a	n/a	-999	3	[-999, -999, -999]	n/a	FR1	2	R1374T
663.873	0.623	665826	DISTRACT_END	n/a	n/a	n/a	-999	3	[0, 0, 0]	n/a	FR1	2	R1374T
664.496	1.694	666449	RETRIEVAL_ORIENT_START	n/a	n/a	n/a	-999	3	[0, 0, 0]	n/a	FR1	2	R1374T
666.19	0.0	668142	RETRIEVAL_ORIENT_END	n/a	n/a	n/a	-999	3	[0, 0, 0]	n/a	FR1	2	R1374T
666.19	1.179	668142	REC_START	n/a	n/a	n/a	-999	3	[0, 0, 0]	n/a	FR1	2	R1374T
667.369	1.283	669321	REC_WORD	1.283	n/a	TOOTH	1	3	[0, 0, 0]	n/a	FR1	2	R1374T
668.652	2.031	670604	REC_WORD_VV	2.031	n/a	<>	-999	3	[0, 0, 0]	n/a	FR1	2	R1374T
670.683	9.49	672635	REC_WORD	9.49	n/a	WORLD	2	3	[0, 0, 0]	n/a	FR1	2	R1374T
680.173	11.844	682125	REC_WORD	11.844	n/a	VAN	3	3	[0, 0, 0]	n/a	FR1	2	R1374T
692.017	4.187	693968	REC_WORD_VV	4.187	n/a	<>	-999	3	[0, 0, 0]	n/a	FR1	2	R1374T
696.204	0.0	698154	TRIAL_END	n/a	n/a	n/a	-999	3	[0, 0, 0]	n/a	FR1	2	R1374T
696.204	0.014	698154	REC_END	n/a	n/a	n/a	-999	3	[0, 0, 0]	n/a	FR1	2	R1374T
696.218	0.0	698168	TRIAL_START	n/a	n/a	n/a	-999	4	[0, 0, 0]	n/a	FR1	2	R1374T
696.218	0.0	698168	TRIAL	n/a	n/a	n/a	-999	4	[0, 0, 0]	n/a	FR1	2	R1374T
696.218	4.645	698168	WAITING_START	n/a	n/a	n/a	-999	4	[0, 0, 0]	n/a	FR1	2	R1374T
700.863	0.0	702813	WAITING_END	n/a	n/a	n/a	-999	4	[0, 0, 0]	n/a	FR1	2	R1374T
700.863	10.429	702813	COUNTDOWN_START	n/a	n/a	n/a	-999	4	[0, 0, 0]	n/a	FR1	2	R1374T
711.292	0.001	713241	COUNTDOWN_END	n/a	n/a	n/a	-999	4	[0, 0, 0]	n/a	FR1	2	R1374T
711.293	1.039	713242	ORIENT_START	n/a	n/a	n/a	-999	4	[0, 0, 0]	n/a	FR1	2	R1374T
712.332	0.0	714281	ORIENT_END	n/a	n/a	n/a	-999	4	[0, 0, 0]	n/a	FR1	2	R1374T
712.332	0.766	714281	ENCODING_START	n/a	n/a	n/a	-999	4	[0, 0, 0]	n/a	FR1	2	R1374T
713.098	1.619	715047	WORD	n/a	wordpools/wordpool_EN.txt	NAIL	1	4	[0, 0, 0]	n/a	FR1	2	R1374T
714.717	1.067	716666	WORD_OFF	n/a	n/a	NAIL	1	4	[0, 0, 0]	n/a	FR1	2	R1374T
715.784	1.633	717733	WORD	n/a	wordpools/wordpool_EN.txt	SEED	2	4	[0, 0, 0]	n/a	FR1	2	R1374T
717.417	1.037	719366	WORD_OFF	n/a	n/a	SEED	2	4	[0, 0, 0]	n/a	FR1	2	R1374T
718.454	1.629	720403	WORD	n/a	wordpools/wordpool_EN.txt	JET	3	4	[0, 0, 0]	n/a	FR1	2	R1374T
720.083	0.891	722032	WORD_OFF	n/a	n/a	JET	3	4	[0, 0, 0]	n/a	FR1	2	R1374T
720.974	1.611	722923	WORD	n/a	wordpools/wordpool_EN.txt	ROPE	4	4	[0, 0, 0]	n/a	FR1	2	R1374T
722.585	1.109	724534	WORD_OFF	n/a	n/a	ROPE	4	4	[0, 0, 0]	n/a	FR1	2	R1374T
723.694	1.624	725643	WORD	n/a	wordpools/wordpool_EN.txt	SHARK	5	4	[0, 0, 0]	n/a	FR1	2	R1374T
725.318	0.941	727267	WORD_OFF	n/a	n/a	SHARK	5	4	[0, 0, 0]	n/a	FR1	2	R1374T
726.259	1.626	728207	WORD	n/a	wordpools/wordpool_EN.txt	CHAIR	6	4	[0, 0, 0]	n/a	FR1	2	R1374T
727.885	0.786	729833	WORD_OFF	n/a	n/a	CHAIR	6	4	[0, 0, 0]	n/a	FR1	2	R1374T
728.671	1.631	730619	WORD	n/a	wordpools/wordpool_EN.txt	PIE	7	4	[0, 0, 0]	n/a	FR1	2	R1374T
730.302	0.812	732250	WORD_OFF	n/a	n/a	PIE	7	4	[0, 0, 0]	n/a	FR1	2	R1374T
731.114	1.623	733062	WORD	n/a	wordpools/wordpool_EN.txt	CLOUD	8	4	[0, 0, 0]	n/a	FR1	2	R1374T
732.737	0.913	734685	WORD_OFF	n/a	n/a	CLOUD	8	4	[0, 0, 0]	n/a	FR1	2	R1374T
733.65	1.636	735598	WORD	n/a	wordpools/wordpool_EN.txt	ANT	9	4	[0, 0, 0]	n/a	FR1	2	R1374T
735.286	0.993	737234	WORD_OFF	n/a	n/a	ANT	9	4	[0, 0, 0]	n/a	FR1	2	R1374T
736.279	1.624	738227	WORD	n/a	wordpools/wordpool_EN.txt	STRING	10	4	[0, 0, 0]	n/a	FR1	2	R1374T
737.903	0.755	739851	WORD_OFF	n/a	n/a	STRING	10	4	[0, 0, 0]	n/a	FR1	2	R1374T
738.658	1.629	740606	WORD	n/a	wordpools/wordpool_EN.txt	HAT	11	4	[0, 0, 0]	n/a	FR1	2	R1374T
740.287	1.089	742235	WORD_OFF	n/a	n/a	HAT	11	4	[0, 0, 0]	n/a	FR1	2	R1374T
741.376	1.628	743323	WORD	n/a	wordpools/wordpool_EN.txt	CALF	12	4	[0, 0, 0]	n/a	FR1	2	R1374T
743.004	0.001	744951	WORD_OFF	n/a	n/a	CALF	12	4	[0, 0, 0]	n/a	FR1	2	R1374T
743.005	0.0	744952	ENCODING_END	n/a	n/a	n/a	-999	4	[0, 0, 0]	n/a	FR1	2	R1374T
743.005	0.0	744952	DISTRACT_START	n/a	n/a	n/a	-999	4	[0, 0, 0]	n/a	FR1	2	R1374T
743.005	0.016	744952	START	n/a	n/a	n/a	-999	4	[-999, -999, -999]	n/a	FR1	2	R1374T
743.021	15.687	744968	PROB	15.687	n/a	n/a	-999	4	[6, 7, 4]	17	FR1	2	R1374T
758.708	6.52	760654	PROB	6.52	n/a	n/a	-999	4	[4, 2, 8]	14	FR1	2	R1374T
765.228	0.014	767174	STOP	n/a	n/a	n/a	-999	4	[-999, -999, -999]	n/a	FR1	2	R1374T
765.242	0.517	767188	DISTRACT_END	n/a	n/a	n/a	-999	4	[0, 0, 0]	n/a	FR1	2	R1374T
765.759	1.701	767705	RETRIEVAL_ORIENT_START	n/a	n/a	n/a	-999	4	[0, 0, 0]	n/a	FR1	2	R1374T
767.46	0.0	769406	REC_START	n/a	n/a	n/a	-999	4	[0, 0, 0]	n/a	FR1	2	R1374T
767.46	1.803	769406	RETRIEVAL_ORIENT_END	n/a	n/a	n/a	-999	4	[0, 0, 0]	n/a	FR1	2	R1374T
769.263	3.657	771209	REC_WORD_VV	3.657	n/a	<>	-999	4	[0, 0, 0]	n/a	FR1	2	R1374T
772.92	1.351	774865	REC_WORD	1.351	n/a	JET	3	4	[0, 0, 0]	n/a	FR1	2	R1374T
774.271	2.611	776216	REC_WORD_VV	2.611	n/a	<>	-999	4	[0, 0, 0]	n/a	FR1	2	R1374T
776.882	0.606	778827	REC_WORD_VV	0.606	n/a	<>	-999	4	[0, 0, 0]	n/a	FR1	2	R1374T
777.488	3.289	779433	REC_WORD	3.289	n/a	WORLD	-999	4	[0, 0, 0]	n/a	FR1	2	R1374T
780.777	16.694	782722	REC_WORD	16.694	n/a	SHARK	5	4	[0, 0, 0]	n/a	FR1	2	R1374T
797.471	0.001	799415	REC_END	n/a	n/a	n/a	-999	4	[0, 0, 0]	n/a	FR1	2	R1374T
797.472	0.015	799416	TRIAL_END	n/a	n/a	n/a	-999	4	[0, 0, 0]	n/a	FR1	2	R1374T
797.487	0.0	799431	WAITING_START	n/a	n/a	n/a	-999	5	[0, 0, 0]	n/a	FR1	2	R1374T
797.487	0.0	799431	TRIAL	n/a	n/a	n/a	-999	5	[0, 0, 0]	n/a	FR1	2	R1374T
797.487	4.661	799431	TRIAL_START	n/a	n/a	n/a	-999	5	[0, 0, 0]	n/a	FR1	2	R1374T
802.148	0.001	804091	WAITING_END	n/a	n/a	n/a	-999	5	[0, 0, 0]	n/a	FR1	2	R1374T
802.149	10.429	804092	COUNTDOWN_START	n/a	n/a	n/a	-999	5	[0, 0, 0]	n/a	FR1	2	R1374T
812.578	0.0	814521	COUNTDOWN_END	n/a	n/a	n/a	-999	5	[0, 0, 0]	n/a	FR1	2	R1374T
812.578	1.107	814521	ORIENT_START	n/a	n/a	n/a	-999	5	[0, 0, 0]	n/a	FR1	2	R1374T
813.685	0.0	815628	ORIENT_END	n/a	n/a	n/a	-999	5	[0, 0, 0]	n/a	FR1	2	R1374T
813.685	0.803	815628	ENCODING_START	n/a	n/a	n/a	-999	5	[0, 0, 0]	n/a	FR1	2	R1374T
814.488	1.629	816431	WORD	n/a	wordpools/wordpool_EN.txt	FOX	1	5	[0, 0, 0]	n/a	FR1	2	R1374T
816.117	0.755	818060	WORD_OFF	n/a	n/a	FOX	1	5	[0, 0, 0]	n/a	FR1	2	R1374T
816.872	1.63	818815	WORD	n/a	wordpools/wordpool_EN.txt	CHIN	2	5	[0, 0, 0]	n/a	FR1	2	R1374T
818.502	0.762	820444	WORD_OFF	n/a	n/a	CHIN	2	5	[0, 0, 0]	n/a	FR1	2	R1374T
819.264	1.621	821206	WORD	n/a	wordpools/wordpool_EN.txt	TRAIN	3	5	[0, 0, 0]	n/a	FR1	2	R1374T
820.885	0.958	822827	WORD_OFF	n/a	n/a	TRAIN	3	5	[0, 0, 0]	n/a	FR1	2	R1374T
821.843	1.627	823785	WORD	n/a	wordpools/wordpool_EN.txt	SHIRT	4	5	[0, 0, 0]	n/a	FR1	2	R1374T
823.47	0.872	825412	WORD_OFF	n/a	n/a	SHIRT	4	5	[0, 0, 0]	n/a	FR1	2	R1374T
824.342	1.627	826284	WORD	n/a	wordpools/wordpool_EN.txt	GRAPE	5	5	[0, 0, 0]	n/a	FR1	2	R1374T
825.969	1.077	827911	WORD_OFF	n/a	n/a	GRAPE	5	5	[0, 0, 0]	n/a	FR1	2	R1374T
827.046	1.608	828988	WORD	n/a	wordpools/wordpool_EN.txt	PIN	6	5	[0, 0, 0]	n/a	FR1	2	R1374T
828.654	0.97	830596	WORD_OFF	n/a	n/a	PIN	6	5	[0, 0, 0]	n/a	FR1	2	R1374T
829.624	1.63	831566	WORD	n/a	wordpools/wordpool_EN.txt	POLE	7	5	[0, 0, 0]	n/a	FR1	2	R1374T
831.254	0.791	833196	WORD_OFF	n/a	n/a	POLE	7	5	[0, 0, 0]	n/a	FR1	2	R1374T
832.045	1.627	833987	WORD	n/a	wordpools/wordpool_EN.txt	MOUTH	8	5	[0, 0, 0]	n/a	FR1	2	R1374T
833.672	0.9	835613	WORD_OFF	n/a	n/a	MOUTH	8	5	[0, 0, 0]	n/a	FR1	2	R1374T
834.572	1.632	836513	WORD	n/a	wordpools/wordpool_EN.txt	CAKE	9	5	[0, 0, 0]	n/a	FR1	2	R1374T
836.204	0.941	838145	WORD_OFF	n/a	n/a	CAKE	9	5	[0, 0, 0]	n/a	FR1	2	R1374T
837.145	1.628	839086	WORD	n/a	wordpools/wordpool_EN.txt	CLAY	10	5	[0, 0, 0]	n/a	FR1	2	R1374T
838.773	1.1	840714	WORD_OFF	n/a	n/a	CLAY	10	5	[0, 0, 0]	n/a	FR1	2	R1374T
839.873	1.633	841814	WORD	n/a	wordpools/wordpool_EN.txt	BREAD	11	5	[0, 0, 0]	n/a	FR1	2	R1374T
841.506	0.99	843447	WORD_OFF	n/a	n/a	BREAD	11	5	[0, 0, 0]	n/a	FR1	2	R1374T
842.496	1.627	844437	WORD	n/a	wordpools/wordpool_EN.txt	ZOO	12	5	[0, 0, 0]	n/a	FR1	2	R1374T
844.123	0.0	846064	WORD_OFF	n/a	n/a	ZOO	12	5	[0, 0, 0]	n/a	FR1	2	R1374T
844.123	0.0	846064	ENCODING_END	n/a	n/a	n/a	-999	5	[0, 0, 0]	n/a	FR1	2	R1374T
844.123	0.001	846064	DISTRACT_START	n/a	n/a	n/a	-999	5	[0, 0, 0]	n/a	FR1	2	R1374T
844.124	0.015	846065	START	n/a	n/a	n/a	-999	5	[-999, -999, -999]	n/a	FR1	2	R1374T
844.139	18.354	846080	PROB	18.354	n/a	n/a	-999	5	[6, 9, 9]	24	FR1	2	R1374T
862.493	8.229	864433	PROB	8.229	n/a	n/a	-999	5	[6, 1, 9]	16	FR1	2	R1374T
870.722	0.006	872661	STOP	n/a	n/a	n/a	-999	5	[-999, -999, -999]	n/a	FR1	2	R1374T
870.728	0.636	872667	DISTRACT_END	n/a	n/a	n/a	-999	5	[0, 0, 0]	n/a	FR1	2	R1374T
871.364	1.53	873303	RETRIEVAL_ORIENT_START	n/a	n/a	n/a	-999	5	[0, 0, 0]	n/a	FR1	2	R1374T
872.894	0.001	874833	RETRIEVAL_ORIENT_END	n/a	n/a	n/a	-999	5	[0, 0, 0]	n/a	FR1	2	R1374T
872.895	25.757	874834	REC_START	n/a	n/a	n/a	-999	5	[0, 0, 0]	n/a	FR1	2	R1374T
898.652	2.586	900589	REC_WORD	2.586	n/a	SHARK	-999	5	[0, 0, 0]	n/a	FR1	2	R1374T
901.238	1.668	903175	REC_WORD	1.668	n/a	JET	-999	5	[0, 0, 0]	n/a	FR1	2	R1374T
902.906	0.001	904843	REC_END	n/a	n/a	n/a	-999	5	[0, 0, 0]	n/a	FR1	2	R1374T
902.907	0.016	904844	TRIAL_END	n/a	n/a	n/a	-999	5	[0, 0, 0]	n/a	FR1	2	R1374T
902.923	0.0	904860	TRIAL_START	n/a	n/a	n/a	-999	6	[0, 0, 0]	n/a	FR1	2	R1374T
902.923	0.001	904860	TRIAL	n/a	n/a	n/a	-999	6	[0, 0, 0]	n/a	FR1	2	R1374T
902.924	10.144	904861	WAITING_START	n/a	n/a	n/a	-999	6	[0, 0, 0]	n/a	FR1	2	R1374T
913.068	0.001	915004	WAITING_END	n/a	n/a	n/a	-999	6	[0, 0, 0]	n/a	FR1	2	R1374T
913.069	10.428	915005	COUNTDOWN_START	n/a	n/a	n/a	-999	6	[0, 0, 0]	n/a	FR1	2	R1374T
923.497	0.001	925433	COUNTDOWN_END	n/a	n/a	n/a	-999	6	[0, 0, 0]	n/a	FR1	2	R1374T
923.498	1.257	925434	ORIENT_START	n/a	n/a	n/a	-999	6	[0, 0, 0]	n/a	FR1	2	R1374T
924.755	0.0	926690	ENCODING_START	n/a	n/a	n/a	-999	6	[0, 0, 0]	n/a	FR1	2	R1374T
924.755	0.818	926690	ORIENT_END	n/a	n/a	n/a	-999	6	[0, 0, 0]	n/a	FR1	2	R1374T
925.573	1.631	927508	WORD	n/a	wordpools/wordpool_EN.txt	DRUM	1	6	[0, 0, 0]	n/a	FR1	2	R1374T
927.204	1.128	929139	WORD_OFF	n/a	n/a	DRUM	1	6	[0, 0, 0]	n/a	FR1	2	R1374T
928.332	1.623	930267	WORD	n/a	wordpools/wordpool_EN.txt	MAT	2	6	[0, 0, 0]	n/a	FR1	2	R1374T
929.955	1.093	931890	WORD_OFF	n/a	n/a	MAT	2	6	[0, 0, 0]	n/a	FR1	2	R1374T
931.048	1.608	932983	WORD	n/a	wordpools/wordpool_EN.txt	SLIME	3	6	[0, 0, 0]	n/a	FR1	2	R1374T
932.656	1.041	934591	WORD_OFF	n/a	n/a	SLIME	3	6	[0, 0, 0]	n/a	FR1	2	R1374T
933.697	1.626	935632	WORD	n/a	wordpools/wordpool_EN.txt	STEAK	4	6	[0, 0, 0]	n/a	FR1	2	R1374T
935.323	1.108	937258	WORD_OFF	n/a	n/a	STEAK	4	6	[0, 0, 0]	n/a	FR1	2	R1374T
936.431	1.625	938366	WORD	n/a	wordpools/wordpool_EN.txt	JAR	5	6	[0, 0, 0]	n/a	FR1	2	R1374T
938.056	0.844	939991	WORD_OFF	n/a	n/a	JAR	5	6	[0, 0, 0]	n/a	FR1	2	R1374T
938.9	1.624	940835	WORD	n/a	wordpools/wordpool_EN.txt	SOCK	6	6	[0, 0, 0]	n/a	FR1	2	R1374T
940.524	0.911	942458	WORD_OFF	n/a	n/a	SOCK	6	6	[0, 0, 0]	n/a	FR1	2	R1374T
941.435	1.622	943369	WORD	n/a	wordpools/wordpool_EN.txt	SHIP	7	6	[0, 0, 0]	n/a	FR1	2	R1374T
943.057	0.76	944991	WORD_OFF	n/a	n/a	SHIP	7	6	[0, 0, 0]	n/a	FR1	2	R1374T
943.817	1.608	945751	WORD	n/a	wordpools/wordpool_EN.txt	JEEP	8	6	[0, 0, 0]	n/a	FR1	2	R1374T
945.425	0.928	947359	WORD_OFF	n/a	n/a	JEEP	8	6	[0, 0, 0]	n/a	FR1	2	R1374T
946.353	1.622	948287	WORD	n/a	wordpools/wordpool_EN.txt	FRUIT	9	6	[0, 0, 0]	n/a	FR1	2	R1374T
947.975	1.045	949909	WORD_OFF	n/a	n/a	FRUIT	9	6	[0, 0, 0]	n/a	FR1	2	R1374T
949.02	1.623	950954	WORD	n/a	wordpools/wordpool_EN.txt	SPOON	10	6	[0, 0, 0]	n/a	FR1	2	R1374T
950.643	0.865	952577	WORD_OFF	n/a	n/a	SPOON	10	6	[0, 0, 0]	n/a	FR1	2	R1374T
951.508	1.634	953442	WORD	n/a	wordpools/wordpool_EN.txt	STRAW	11	6	[0, 0, 0]	n/a	FR1	2	R1374T
953.142	1.044	955076	WORD_OFF	n/a	n/a	STRAW	11	6	[0, 0, 0]	n/a	FR1	2	R1374T
954.186	1.608	956120	WORD	n/a	wordpools/wordpool_EN.txt	WAND	12	6	[0, 0, 0]	n/a	FR1	2	R1374T
955.794	0.0	957727	WORD_OFF	n/a	n/a	WAND	12	6	[0, 0, 0]	n/a	FR1	2	R1374T
955.794	0.0	957727	ENCODING_END	n/a	n/a	n/a	-999	6	[0, 0, 0]	n/a	FR1	2	R1374T
955.794	0.0	957727	DISTRACT_START	n/a	n/a	n/a	-999	6	[0, 0, 0]	n/a	FR1	2	R1374T
955.794	0.015	957727	START	n/a	n/a	n/a	-999	6	[-999, -999, -999]	n/a	FR1	2	R1374T
955.809	7.936	957742	PROB	7.936	n/a	n/a	-999	6	[8, 5, 1]	14	FR1	2	R1374T
963.745	8.201	965678	PROB	8.201	n/a	n/a	-999	6	[9, 3, 7]	19	FR1	2	R1374T
971.946	10.74	973878	PROB	10.74	n/a	n/a	-999	6	[9, 6, 8]	23	FR1	2	R1374T
982.686	0.013	984618	STOP	n/a	n/a	n/a	-999	6	[-999, -999, -999]	n/a	FR1	2	R1374T
982.699	0.688	984631	DISTRACT_END	n/a	n/a	n/a	-999	6	[0, 0, 0]	n/a	FR1	2	R1374T
983.387	1.611	985319	RETRIEVAL_ORIENT_START	n/a	n/a	n/a	-999	6	[0, 0, 0]	n/a	FR1	2	R1374T
984.998	0.001	986929	RETRIEVAL_ORIENT_END	n/a	n/a	n/a	-999	6	[0, 0, 0]	n/a	FR1	2	R1374T
984.999	10.467	986930	REC_START	n/a	n/a	n/a	-999	6	[0, 0, 0]	n/a	FR1	2	R1374T
995.466	12.308	997397	REC_WORD_VV	12.308	n/a	<>	-999	6	[0, 0, 0]	n/a	FR1	2	R1374T
1007.774	0.591	1009704	REC_WORD	0.591	n/a	SHIN	-999	6	[0, 0, 0]	n/a	FR1	2	R1374T
1008.365	1.424	1010295	REC_WORD	1.424	n/a	JARK	-999	6	[0, 0, 0]	n/a	FR1	2	R1374T
1009.789	4.764	1011719	REC_WORD	4.764	n/a	JAR	5	6	[0, 0, 0]	n/a	FR1	2	R1374T
1014.553	0.457	1016483	REC_WORD	0.457	n/a	CLAY	-999	6	[0, 0, 0]	n/a	FR1	2	R1374T
1015.01	0.0	1016940	REC_END	n/a	n/a	n/a	-999	6	[0, 0, 0]	n/a	FR1	2	R1374T
1015.01	0.014	1016940	TRIAL_END	n/a	n/a	n/a	-999	6	[0, 0, 0]	n/a	FR1	2	R1374T
1015.024	0.0	1016954	WAITING_START	n/a	n/a	n/a	-999	7	[0, 0, 0]	n/a	FR1	2	R1374T
1015.024	0.0	1016954	TRIAL_START	n/a	n/a	n/a	-999	7	[0, 0, 0]	n/a	FR1	2	R1374T
1015.024	5.748	1016954	TRIAL	n/a	n/a	n/a	-999	7	[0, 0, 0]	n/a	FR1	2	R1374T
1020.772	0.001	1022701	WAITING_END	n/a	n/a	n/a	-999	7	[0, 0, 0]	n/a	FR1	2	R1374T
1020.773	10.428	1022702	COUNTDOWN_START	n/a	n/a	n/a	-999	7	[0, 0, 0]	n/a	FR1	2	R1374T
1031.201	0.0	1033129	COUNTDOWN_END	n/a	n/a	n/a	-999	7	[0, 0, 0]	n/a	FR1	2	R1374T
1031.201	1.139	1033129	ORIENT_START	n/a	n/a	n/a	-999	7	[0, 0, 0]	n/a	FR1	2	R1374T
1032.34	0.0	1034268	ENCODING_START	n/a	n/a	n/a	-999	7	[0, 0, 0]	n/a	FR1	2	R1374T
1032.34	0.969	1034268	ORIENT_END	n/a	n/a	n/a	-999	7	[0, 0, 0]	n/a	FR1	2	R1374T
1033.309	1.632	1035237	WORD	n/a	wordpools/wordpool_EN.txt	DITCH	1	7	[0, 0, 0]	n/a	FR1	2	R1374T
1034.941	1.041	1036869	WORD_OFF	n/a	n/a	DITCH	1	7	[0, 0, 0]	n/a	FR1	2	R1374T
1035.982	1.627	1037910	WORD	n/a	wordpools/wordpool_EN.txt	FOAM	2	7	[0, 0, 0]	n/a	FR1	2	R1374T
1037.609	1.081	1039537	WORD_OFF	n/a	n/a	FOAM	2	7	[0, 0, 0]	n/a	FR1	2	R1374T
1038.69	1.635	1040618	WORD	n/a	wordpools/wordpool_EN.txt	ROSE	3	7	[0, 0, 0]	n/a	FR1	2	R1374T
1040.325	0.95	1042253	WORD_OFF	n/a	n/a	ROSE	3	7	[0, 0, 0]	n/a	FR1	2	R1374T
1041.275	1.633	1043203	WORD	n/a	wordpools/wordpool_EN.txt	POND	4	7	[0, 0, 0]	n/a	FR1	2	R1374T
1042.908	0.927	1044836	WORD_OFF	n/a	n/a	POND	4	7	[0, 0, 0]	n/a	FR1	2	R1374T
1043.835	1.625	1045763	WORD	n/a	wordpools/wordpool_EN.txt	TEETH	5	7	[0, 0, 0]	n/a	FR1	2	R1374T
1045.46	1.104	1047388	WORD_OFF	n/a	n/a	TEETH	5	7	[0, 0, 0]	n/a	FR1	2	R1374T
1046.564	1.629	1048491	WORD	n/a	wordpools/wordpool_EN.txt	STORM	6	7	[0, 0, 0]	n/a	FR1	2	R1374T
1048.193	0.987	1050120	WORD_OFF	n/a	n/a	STORM	6	7	[0, 0, 0]	n/a	FR1	2	R1374T
1049.18	1.614	1051107	WORD	n/a	wordpools/wordpool_EN.txt	SLEEVE	7	7	[0, 0, 0]	n/a	FR1	2	R1374T
1050.794	0.812	1052721	WORD_OFF	n/a	n/a	SLEEVE	7	7	[0, 0, 0]	n/a	FR1	2	R1374T
1051.606	1.621	1053533	WORD	n/a	wordpools/wordpool_EN.txt	SUIT	8	7	[0, 0, 0]	n/a	FR1	2	R1374T
1053.227	1.089	1055154	WORD_OFF	n/a	n/a	SUIT	8	7	[0, 0, 0]	n/a	FR1	2	R1374T
1054.316	1.629	1056243	WORD	n/a	wordpools/wordpool_EN.txt	STORE	9	7	[0, 0, 0]	n/a	FR1	2	R1374T
1055.945	0.875	1057872	WORD_OFF	n/a	n/a	STORE	9	7	[0, 0, 0]	n/a	FR1	2	R1374T
1056.82	1.609	1058747	WORD	n/a	wordpools/wordpool_EN.txt	DIME	10	7	[0, 0, 0]	n/a	FR1	2	R1374T
1058.429	0.762	1060356	WORD_OFF	n/a	n/a	DIME	10	7	[0, 0, 0]	n/a	FR1	2	R1374T
1059.191	1.621	1061118	WORD	n/a	wordpools/wordpool_EN.txt	DOLL	11	7	[0, 0, 0]	n/a	FR1	2	R1374T
1060.812	0.834	1062739	WORD_OFF	n/a	n/a	DOLL	11	7	[0, 0, 0]	n/a	FR1	2	R1374T
1061.646	1.633	1063572	WORD	n/a	wordpools/wordpool_EN.txt	EGG	12	7	[0, 0, 0]	n/a	FR1	2	R1374T
1063.279	0.0	1065205	WORD_OFF	n/a	n/a	EGG	12	7	[0, 0, 0]	n/a	FR1	2	R1374T
1063.279	0.001	1065205	ENCODING_END	n/a	n/a	n/a	-999	7	[0, 0, 0]	n/a	FR1	2	R1374T
1063.28	0.0	1065206	DISTRACT_START	n/a	n/a	n/a	-999	7	[0, 0, 0]	n/a	FR1	2	R1374T
1063.28	0.015	1065206	START	n/a	n/a	n/a	-999	7	[-999, -999, -999]	n/a	FR1	2	R1374T
1063.295	15.72	1065221	PROB	15.72	n/a	n/a	-999	7	[4, 7, 7]	18	FR1	2	R1374T
1079.015	8.782	1080940	PROB	8.782	n/a	n/a	-999	7	[5, 5, 8]	18	FR1	2	R1374T
1087.797	0.02	1089722	STOP	n/a	n/a	n/a	-999	7	[-999, -999, -999]	n/a	FR1	2	R1374T
1087.817	0.567	1089742	DISTRACT_END	n/a	n/a	n/a	-999	7	[0, 0, 0]	n/a	FR1	2	R1374T
1088.384	1.617	1090309	RETRIEVAL_ORIENT_START	n/a	n/a	n/a	-999	7	[0, 0, 0]	n/a	FR1	2	R1374T
1090.001	0.0	1091926	RETRIEVAL_ORIENT_END	n/a	n/a	n/a	-999	7	[0, 0, 0]	n/a	FR1	2	R1374T
1090.001	1.153	1091926	REC_START	n/a	n/a	n/a	-999	7	[0, 0, 0]	n/a	FR1	2	R1374T
1091.154	0.658	1093079	REC_WORD	0.658	n/a	DITCH	1	7	[0, 0, 0]	n/a	FR1	2	R1374T
1091.812	0.558	1093736	REC_WORD	0.558	n/a	POND	4	7	[0, 0, 0]	n/a	FR1	2	R1374T
1092.37	0.72	1094294	REC_WORD	0.72	n/a	SLEEVE	7	7	[0, 0, 0]	n/a	FR1	2	R1374T
1093.09	0.809	1095014	REC_WORD	0.809	n/a	STORE	9	7	[0, 0, 0]	n/a	FR1	2	R1374T
1093.899	8.068	1095823	REC_WORD	8.068	n/a	EGG	12	7	[0, 0, 0]	n/a	FR1	2	R1374T
1101.967	7.174	1103891	REC_WORD	7.174	n/a	CAR	-999	7	[0, 0, 0]	n/a	FR1	2	R1374T
1109.141	10.872	1111064	REC_WORD_VV	10.872	n/a	<>	-999	7	[0, 0, 0]	n/a	FR1	2	R1374T
1120.013	0.001	1121936	REC_END	n/a	n/a	n/a	-999	7	[0, 0, 0]	n/a	FR1	2	R1374T
1120.014	0.016	1121937	TRIAL_END	n/a	n/a	n/a	-999	7	[0, 0, 0]	n/a	FR1	2	R1374T
1120.03	0.0	1121953	WAITING_START	n/a	n/a	n/a	-999	8	[0, 0, 0]	n/a	FR1	2	R1374T
1120.03	0.0	1121953	TRIAL	n/a	n/a	n/a	-999	8	[0, 0, 0]	n/a	FR1	2	R1374T
1120.03	5.578	1121953	TRIAL_START	n/a	n/a	n/a	-999	8	[0, 0, 0]	n/a	FR1	2	R1374T
1125.608	0.001	1127530	WAITING_END	n/a	n/a	n/a	-999	8	[0, 0, 0]	n/a	FR1	2	R1374T
1125.609	10.428	1127531	COUNTDOWN_START	n/a	n/a	n/a	-999	8	[0, 0, 0]	n/a	FR1	2	R1374T
1136.037	0.0	1137959	COUNTDOWN_END	n/a	n/a	n/a	-999	8	[0, 0, 0]	n/a	FR1	2	R1374T
1136.037	1.172	1137959	ORIENT_START	n/a	n/a	n/a	-999	8	[0, 0, 0]	n/a	FR1	2	R1374T
1137.209	0.001	1139130	ORIENT_END	n/a	n/a	n/a	-999	8	[0, 0, 0]	n/a	FR1	2	R1374T
1137.21	0.818	1139131	ENCODING_START	n/a	n/a	n/a	-999	8	[0, 0, 0]	n/a	FR1	2	R1374T
1138.028	1.616	1139949	WORD	n/a	wordpools/wordpool_EN.txt	BOMB	1	8	[0, 0, 0]	n/a	FR1	2	R1374T
1139.644	0.926	1141565	WORD_OFF	n/a	n/a	BOMB	1	8	[0, 0, 0]	n/a	FR1	2	R1374T
1140.57	1.623	1142491	WORD	n/a	wordpools/wordpool_EN.txt	CAT	2	8	[0, 0, 0]	n/a	FR1	2	R1374T
1142.193	0.838	1144114	WORD_OFF	n/a	n/a	CAT	2	8	[0, 0, 0]	n/a	FR1	2	R1374T
1143.031	1.614	1144952	WORD	n/a	wordpools/wordpool_EN.txt	RIB	3	8	[0, 0, 0]	n/a	FR1	2	R1374T
1144.645	1.114	1146566	WORD_OFF	n/a	n/a	RIB	3	8	[0, 0, 0]	n/a	FR1	2	R1374T
1145.759	1.636	1147680	WORD	n/a	wordpools/wordpool_EN.txt	PASTE	4	8	[0, 0, 0]	n/a	FR1	2	R1374T
1147.395	0.945	1149316	WORD_OFF	n/a	n/a	PASTE	4	8	[0, 0, 0]	n/a	FR1	2	R1374T
1148.34	1.622	1150261	WORD	n/a	wordpools/wordpool_EN.txt	BAT	5	8	[0, 0, 0]	n/a	FR1	2	R1374T
1149.962	0.901	1151883	WORD_OFF	n/a	n/a	BAT	5	8	[0, 0, 0]	n/a	FR1	2	R1374T
1150.863	1.616	1152784	WORD	n/a	wordpools/wordpool_EN.txt	TAIL	6	8	[0, 0, 0]	n/a	FR1	2	R1374T
1152.479	0.92	1154399	WORD_OFF	n/a	n/a	TAIL	6	8	[0, 0, 0]	n/a	FR1	2	R1374T
1153.399	1.63	1155319	WORD	n/a	wordpools/wordpool_EN.txt	SHRIMP	7	8	[0, 0, 0]	n/a	FR1	2	R1374T
1155.029	0.825	1156949	WORD_OFF	n/a	n/a	SHRIMP	7	8	[0, 0, 0]	n/a	FR1	2	R1374T
1155.854	1.61	1157774	WORD	n/a	wordpools/wordpool_EN.txt	SKY	8	8	[0, 0, 0]	n/a	FR1	2	R1374T
1157.464	1.138	1159384	WORD_OFF	n/a	n/a	SKY	8	8	[0, 0, 0]	n/a	FR1	2	R1374T
1158.602	1.628	1160522	WORD	n/a	wordpools/wordpool_EN.txt	WOOD	9	8	[0, 0, 0]	n/a	FR1	2	R1374T
1160.23	0.764	1162150	WORD_OFF	n/a	n/a	WOOD	9	8	[0, 0, 0]	n/a	FR1	2	R1374T
1160.994	1.621	1162914	WORD	n/a	wordpools/wordpool_EN.txt	MAIL	10	8	[0, 0, 0]	n/a	FR1	2	R1374T
1162.615	0.918	1164535	WORD_OFF	n/a	n/a	MAIL	10	8	[0, 0, 0]	n/a	FR1	2	R1374T
1163.533	1.631	1165453	WORD	n/a	wordpools/wordpool_EN.txt	COUCH	11	8	[0, 0, 0]	n/a	FR1	2	R1374T
1165.164	0.815	1167084	WORD_OFF	n/a	n/a	COUCH	11	8	[0, 0, 0]	n/a	FR1	2	R1374T
1165.979	1.637	1167899	WORD	n/a	wordpools/wordpool_EN.txt	PEACH	12	8	[0, 0, 0]	n/a	FR1	2	R1374T
1167.616	0.0	1169535	WORD_OFF	n/a	n/a	PEACH	12	8	[0, 0, 0]	n/a	FR1	2	R1374T
1167.616	0.0	1169535	ENCODING_END	n/a	n/a	n/a	-999	8	[0, 0, 0]	n/a	FR1	2	R1374T
1167.616	0.001	1169535	DISTRACT_START	n/a	n/a	n/a	-999	8	[0, 0, 0]	n/a	FR1	2	R1374T
1167.617	0.015	1169536	START	n/a	n/a	n/a	-999	8	[-999, -999, -999]	n/a	FR1	2	R1374T
1167.632	9.802	1169551	PROB	9.802	n/a	n/a	-999	8	[7, 4, 4]	15	FR1	2	R1374T
1177.434	4.234	1179353	PROB	4.234	n/a	n/a	-999	8	[5, 3, 5]	13	FR1	2	R1374T
1181.668	6.654	1183587	PROB	6.654	n/a	n/a	-999	8	[3, 6, 4]	13	FR1	2	R1374T
1188.322	0.013	1190240	STOP	n/a	n/a	n/a	-999	8	[-999, -999, -999]	n/a	FR1	2	R1374T
1188.335	0.643	1190253	DISTRACT_END	n/a	n/a	n/a	-999	8	[0, 0, 0]	n/a	FR1	2	R1374T
1188.978	1.642	1190896	RETRIEVAL_ORIENT_START	n/a	n/a	n/a	-999	8	[0, 0, 0]	n/a	FR1	2	R1374T
1190.62	0.0	1192538	RETRIEVAL_ORIENT_END	n/a	n/a	n/a	-999	8	[0, 0, 0]	n/a	FR1	2	R1374T
1190.62	7.379	1192538	REC_START	n/a	n/a	n/a	-999	8	[0, 0, 0]	n/a	FR1	2	R1374T
1197.999	0.464	1199916	REC_WORD	0.464	n/a	DITCH	-999	8	[0, 0, 0]	n/a	FR1	2	R1374T
1198.463	0.512	1200380	REC_WORD	0.512	n/a	CAR	-999	8	[0, 0, 0]	n/a	FR1	2	R1374T
1198.975	0.737	1200892	REC_WORD	0.737	n/a	BOMB	1	8	[0, 0, 0]	n/a	FR1	2	R1374T
1199.712	2.335	1201629	REC_WORD	2.335	n/a	SLATE	-999	8	[0, 0, 0]	n/a	FR1	2	R1374T
1202.047	2.799	1203964	REC_WORD	2.799	n/a	CLAY	-999	8	[0, 0, 0]	n/a	FR1	2	R1374T
1204.846	8.477	1206763	REC_WORD	8.477	n/a	WOOD	9	8	[0, 0, 0]	n/a	FR1	2	R1374T
1213.323	7.311	1215239	REC_WORD	7.311	n/a	CLAY	-999	8	[0, 0, 0]	n/a	FR1	2	R1374T
1220.634	0.0	1222550	REC_END	n/a	n/a	n/a	-999	8	[0, 0, 0]	n/a	FR1	2	R1374T
1220.634	0.016	1222550	TRIAL_END	n/a	n/a	n/a	-999	8	[0, 0, 0]	n/a	FR1	2	R1374T
1220.65	0.0	1222566	TRIAL	n/a	n/a	n/a	-999	9	[0, 0, 0]	n/a	FR1	2	R1374T
1220.65	0.001	1222566	TRIAL_START	n/a	n/a	n/a	-999	9	[0, 0, 0]	n/a	FR1	2	R1374T
1220.651	7.675	1222567	WAITING_START	n/a	n/a	n/a	-999	9	[0, 0, 0]	n/a	FR1	2	R1374T
1228.326	0.0	1230242	WAITING_END	n/a	n/a	n/a	-999	9	[0, 0, 0]	n/a	FR1	2	R1374T
1228.326	10.429	1230242	COUNTDOWN_START	n/a	n/a	n/a	-999	9	[0, 0, 0]	n/a	FR1	2	R1374T
1238.755	0.0	1240670	COUNTDOWN_END	n/a	n/a	n/a	-999	9	[0, 0, 0]	n/a	FR1	2	R1374T
1238.755	1.239	1240670	ORIENT_START	n/a	n/a	n/a	-999	9	[0, 0, 0]	n/a	FR1	2	R1374T
1239.994	0.001	1241909	ORIENT_END	n/a	n/a	n/a	-999	9	[0, 0, 0]	n/a	FR1	2	R1374T
1239.995	0.76	1241910	ENCODING_START	n/a	n/a	n/a	-999	9	[0, 0, 0]	n/a	FR1	2	R1374T
1240.755	1.623	1242670	WORD	n/a	wordpools/wordpool_EN.txt	TRUCK	1	9	[0, 0, 0]	n/a	FR1	2	R1374T
1242.378	0.955	1244293	WORD_OFF	n/a	n/a	TRUCK	1	9	[0, 0, 0]	n/a	FR1	2	R1374T
1243.333	1.629	1245248	WORD	n/a	wordpools/wordpool_EN.txt	VASE	2	9	[0, 0, 0]	n/a	FR1	2	R1374T
1244.962	0.806	1246876	WORD_OFF	n/a	n/a	VASE	2	9	[0, 0, 0]	n/a	FR1	2	R1374T
1245.768	1.629	1247682	WORD	n/a	wordpools/wordpool_EN.txt	FOOD	3	9	[0, 0, 0]	n/a	FR1	2	R1374T
1247.397	1.104	1249311	WORD_OFF	n/a	n/a	FOOD	3	9	[0, 0, 0]	n/a	FR1	2	R1374T
1248.501	1.629	1250415	WORD	n/a	wordpools/wordpool_EN.txt	EAR	4	9	[0, 0, 0]	n/a	FR1	2	R1374T
1250.13	0.945	1252044	WORD_OFF	n/a	n/a	EAR	4	9	[0, 0, 0]	n/a	FR1	2	R1374T
1251.075	1.623	1252989	WORD	n/a	wordpools/wordpool_EN.txt	JUDGE	5	9	[0, 0, 0]	n/a	FR1	2	R1374T
1252.698	0.936	1254612	WORD_OFF	n/a	n/a	JUDGE	5	9	[0, 0, 0]	n/a	FR1	2	R1374T
1253.634	1.63	1255548	WORD	n/a	wordpools/wordpool_EN.txt	PEARL	6	9	[0, 0, 0]	n/a	FR1	2	R1374T
1255.264	0.847	1257178	WORD_OFF	n/a	n/a	PEARL	6	9	[0, 0, 0]	n/a	FR1	2	R1374T
1256.111	1.621	1258025	WORD	n/a	wordpools/wordpool_EN.txt	TRAY	7	9	[0, 0, 0]	n/a	FR1	2	R1374T
1257.732	1.049	1259646	WORD_OFF	n/a	n/a	TRAY	7	9	[0, 0, 0]	n/a	FR1	2	R1374T
1258.781	1.635	1260695	WORD	n/a	wordpools/wordpool_EN.txt	BEAR	8	9	[0, 0, 0]	n/a	FR1	2	R1374T
1260.416	1.006	1262329	WORD_OFF	n/a	n/a	BEAR	8	9	[0, 0, 0]	n/a	FR1	2	R1374T
1261.422	1.627	1263335	WORD	n/a	wordpools/wordpool_EN.txt	RICE	9	9	[0, 0, 0]	n/a	FR1	2	R1374T
1263.049	0.901	1264962	WORD_OFF	n/a	n/a	RICE	9	9	[0, 0, 0]	n/a	FR1	2	R1374T
1263.95	1.633	1265863	WORD	n/a	wordpools/wordpool_EN.txt	ARM	10	9	[0, 0, 0]	n/a	FR1	2	R1374T
1265.583	0.81	1267496	WORD_OFF	n/a	n/a	ARM	10	9	[0, 0, 0]	n/a	FR1	2	R1374T
1266.393	1.623	1268306	WORD	n/a	wordpools/wordpool_EN.txt	CAVE	11	9	[0, 0, 0]	n/a	FR1	2	R1374T
1268.016	1.038	1269929	WORD_OFF	n/a	n/a	CAVE	11	9	[0, 0, 0]	n/a	FR1	2	R1374T
1269.054	1.63	1270967	WORD	n/a	wordpools/wordpool_EN.txt	BRANCH	12	9	[0, 0, 0]	n/a	FR1	2	R1374T
1270.684	0.001	1272597	WORD_OFF	n/a	n/a	BRANCH	12	9	[0, 0, 0]	n/a	FR1	2	R1374T
1270.685	0.0	1272598	ENCODING_END	n/a	n/a	n/a	-999	9	[0, 0, 0]	n/a	FR1	2	R1374T
1270.685	0.0	1272598	DISTRACT_START	n/a	n/a	n/a	-999	9	[0, 0, 0]	n/a	FR1	2	R1374T
1270.685	0.016	1272598	START	n/a	n/a	n/a	-999	9	[-999, -999, -999]	n/a	FR1	2	R1374T
1270.701	13.635	1272614	PROB	13.635	n/a	n/a	-999	9	[6, 4, 8]	18	FR1	2	R1374T
1284.336	5.951	1286248	PROB	5.951	n/a	n/a	-999	9	[1, 4, 5]	10	FR1	2	R1374T
1290.287	9.088	1292198	PROB	9.088	n/a	n/a	-999	9	[6, 2, 6]	14	FR1	2	R1374T
1299.375	0.015	1301286	STOP	n/a	n/a	n/a	-999	9	[-999, -999, -999]	n/a	FR1	2	R1374T
1299.39	0.662	1301301	DISTRACT_END	n/a	n/a	n/a	-999	9	[0, 0, 0]	n/a	FR1	2	R1374T
1300.052	1.588	1301963	RETRIEVAL_ORIENT_START	n/a	n/a	n/a	-999	9	[0, 0, 0]	n/a	FR1	2	R1374T
1301.64	0.0	1303551	RETRIEVAL_ORIENT_END	n/a	n/a	n/a	-999	9	[0, 0, 0]	n/a	FR1	2	R1374T
1301.64	3.419	1303551	REC_START	n/a	n/a	n/a	-999	9	[0, 0, 0]	n/a	FR1	2	R1374T
1305.059	2.348	1306969	REC_WORD	2.348	n/a	MAZE	-999	9	[0, 0, 0]	n/a	FR1	2	R1374T
1307.407	0.685	1309317	REC_WORD	0.685	n/a	CAR	-999	9	[0, 0, 0]	n/a	FR1	2	R1374T
1308.092	23.56	1310002	REC_WORD	23.56	n/a	VAN	-999	9	[0, 0, 0]	n/a	FR1	2	R1374T
1331.652	0.0	1333561	REC_END	n/a	n/a	n/a	-999	9	[0, 0, 0]	n/a	FR1	2	R1374T
1331.652	0.017	1333561	TRIAL_END	n/a	n/a	n/a	-999	9	[0, 0, 0]	n/a	FR1	2	R1374T
1331.669	0.0	1333578	TRIAL_START	n/a	n/a	n/a	-999	10	[0, 0, 0]	n/a	FR1	2	R1374T
1331.669	0.0	1333578	TRIAL	n/a	n/a	n/a	-999	10	[0, 0, 0]	n/a	FR1	2	R1374T
1331.669	7.095	1333578	WAITING_START	n/a	n/a	n/a	-999	10	[0, 0, 0]	n/a	FR1	2	R1374T
1338.764	0.0	1340672	WAITING_END	n/a	n/a	n/a	-999	10	[0, 0, 0]	n/a	FR1	2	R1374T
1338.764	10.428	1340672	COUNTDOWN_START	n/a	n/a	n/a	-999	10	[0, 0, 0]	n/a	FR1	2	R1374T
1349.192	0.0	1351100	ORIENT_START	n/a	n/a	n/a	-999	10	[0, 0, 0]	n/a	FR1	2	R1374T
1349.192	1.173	1351100	COUNTDOWN_END	n/a	n/a	n/a	-999	10	[0, 0, 0]	n/a	FR1	2	R1374T
1350.365	0.0	1352272	ORIENT_END	n/a	n/a	n/a	-999	10	[0, 0, 0]	n/a	FR1	2	R1374T
1350.365	0.853	1352272	ENCODING_START	n/a	n/a	n/a	-999	10	[0, 0, 0]	n/a	FR1	2	R1374T
1351.218	1.63	1353125	WORD	n/a	wordpools/wordpool_EN.txt	TOAD	1	10	[0, 0, 0]	n/a	FR1	2	R1374T
1352.848	1.098	1354755	WORD_OFF	n/a	n/a	TOAD	1	10	[0, 0, 0]	n/a	FR1	2	R1374T
1353.946	1.621	1355853	WORD	n/a	wordpools/wordpool_EN.txt	HOSE	2	10	[0, 0, 0]	n/a	FR1	2	R1374T
1355.567	1.094	1357474	WORD_OFF	n/a	n/a	HOSE	2	10	[0, 0, 0]	n/a	FR1	2	R1374T
1356.661	1.622	1358568	WORD	n/a	wordpools/wordpool_EN.txt	MUD	3	10	[0, 0, 0]	n/a	FR1	2	R1374T
1358.283	1.089	1360190	WORD_OFF	n/a	n/a	MUD	3	10	[0, 0, 0]	n/a	FR1	2	R1374T
1359.372	1.628	1361279	WORD	n/a	wordpools/wordpool_EN.txt	SNAIL	4	10	[0, 0, 0]	n/a	FR1	2	R1374T
1361.0	0.816	1362907	WORD_OFF	n/a	n/a	SNAIL	4	10	[0, 0, 0]	n/a	FR1	2	R1374T
1361.816	1.618	1363723	WORD	n/a	wordpools/wordpool_EN.txt	BAG	5	10	[0, 0, 0]	n/a	FR1	2	R1374T
1363.434	0.768	1365341	WORD_OFF	n/a	n/a	BAG	5	10	[0, 0, 0]	n/a	FR1	2	R1374T
1364.202	1.632	1366109	WORD	n/a	wordpools/wordpool_EN.txt	PRINCE	6	10	[0, 0, 0]	n/a	FR1	2	R1374T
1365.834	0.93	1367740	WORD_OFF	n/a	n/a	PRINCE	6	10	[0, 0, 0]	n/a	FR1	2	R1374T
1366.764	1.62	1368670	WORD	n/a	wordpools/wordpool_EN.txt	BANK	7	10	[0, 0, 0]	n/a	FR1	2	R1374T
1368.384	0.982	1370290	WORD_OFF	n/a	n/a	BANK	7	10	[0, 0, 0]	n/a	FR1	2	R1374T
1369.366	1.635	1371272	WORD	n/a	wordpools/wordpool_EN.txt	BRICK	8	10	[0, 0, 0]	n/a	FR1	2	R1374T
1371.001	1.085	1372907	WORD_OFF	n/a	n/a	BRICK	8	10	[0, 0, 0]	n/a	FR1	2	R1374T
1372.086	1.634	1373992	WORD	n/a	wordpools/wordpool_EN.txt	SHELL	9	10	[0, 0, 0]	n/a	FR1	2	R1374T
1373.72	0.956	1375626	WORD_OFF	n/a	n/a	SHELL	9	10	[0, 0, 0]	n/a	FR1	2	R1374T
1374.676	1.627	1376582	WORD	n/a	wordpools/wordpool_EN.txt	BOY	10	10	[0, 0, 0]	n/a	FR1	2	R1374T
1376.303	0.937	1378209	WORD_OFF	n/a	n/a	BOY	10	10	[0, 0, 0]	n/a	FR1	2	R1374T
1377.24	1.63	1379146	WORD	n/a	wordpools/wordpool_EN.txt	EEL	11	10	[0, 0, 0]	n/a	FR1	2	R1374T
1378.87	0.933	1380776	WORD_OFF	n/a	n/a	EEL	11	10	[0, 0, 0]	n/a	FR1	2	R1374T
1379.803	1.635	1381709	WORD	n/a	wordpools/wordpool_EN.txt	NOSE	12	10	[0, 0, 0]	n/a	FR1	2	R1374T
1381.438	0.0	1383343	WORD_OFF	n/a	n/a	NOSE	12	10	[0, 0, 0]	n/a	FR1	2	R1374T
1381.438	0.001	1383343	ENCODING_END	n/a	n/a	n/a	-999	10	[0, 0, 0]	n/a	FR1	2	R1374T
1381.439	0.0	1383344	DISTRACT_START	n/a	n/a	n/a	-999	10	[0, 0, 0]	n/a	FR1	2	R1374T
1381.439	0.015	1383344	START	n/a	n/a	n/a	-999	10	[-999, -999, -999]	n/a	FR1	2	R1374T
1381.454	10.135	1383359	PROB	10.135	n/a	n/a	-999	10	[4, 9, 5]	18	FR1	2	R1374T
1391.589	10.221	1393494	PROB	10.221	n/a	n/a	-999	10	[6, 9, 5]	20	FR1	2	R1374T
1401.81	0.014	1403714	STOP	n/a	n/a	n/a	-999	10	[-999, -999, -999]	n/a	FR1	2	R1374T
1401.824	0.646	1403728	DISTRACT_END	n/a	n/a	n/a	-999	10	[0, 0, 0]	n/a	FR1	2	R1374T
1402.47	1.538	1404374	RETRIEVAL_ORIENT_START	n/a	n/a	n/a	-999	10	[0, 0, 0]	n/a	FR1	2	R1374T
1404.008	0.0	1405912	RETRIEVAL_ORIENT_END	n/a	n/a	n/a	-999	10	[0, 0, 0]	n/a	FR1	2	R1374T
1404.008	6.691	1405912	REC_START	n/a	n/a	n/a	-999	10	[0, 0, 0]	n/a	FR1	2	R1374T
1410.699	0.794	1412603	REC_WORD	0.794	n/a	VASE	-999	10	[0, 0, 0]	n/a	FR1	2	R1374T
1411.493	1.595	1413396	REC_WORD	1.595	n/a	CAR	-999	10	[0, 0, 0]	n/a	FR1	2	R1374T
1413.088	7.045	1414991	REC_WORD	7.045	n/a	VAN	-999	10	[0, 0, 0]	n/a	FR1	2	R1374T
1420.133	2.112	1422036	REC_WORD	2.112	n/a	EEL	11	10	[0, 0, 0]	n/a	FR1	2	R1374T
1422.245	6.651	1424148	REC_WORD	6.651	n/a	SHARK	-999	10	[0, 0, 0]	n/a	FR1	2	R1374T
1428.896	3.691	1430798	REC_WORD_VV	3.691	n/a	<>	-999	10	[0, 0, 0]	n/a	FR1	2	R1374T
1432.587	1.434	1434489	REC_WORD	1.434	n/a	MOUTH	-999	10	[0, 0, 0]	n/a	FR1	2	R1374T
1434.021	0.0	1435923	REC_END	n/a	n/a	n/a	-999	10	[0, 0, 0]	n/a	FR1	2	R1374T
1434.021	0.016	1435923	TRIAL_END	n/a	n/a	n/a	-999	10	[0, 0, 0]	n/a	FR1	2	R1374T
1434.037	0.001	1435939	TRIAL_START	n/a	n/a	n/a	-999	11	[0, 0, 0]	n/a	FR1	2	R1374T
1434.038	0.0	1435940	TRIAL	n/a	n/a	n/a	-999	11	[0, 0, 0]	n/a	FR1	2	R1374T
1434.038	6.744	1435940	WAITING_START	n/a	n/a	n/a	-999	11	[0, 0, 0]	n/a	FR1	2	R1374T
1440.782	0.0	1442684	WAITING_END	n/a	n/a	n/a	-999	11	[0, 0, 0]	n/a	FR1	2	R1374T
1440.782	10.43	1442684	COUNTDOWN_START	n/a	n/a	n/a	-999	11	[0, 0, 0]	n/a	FR1	2	R1374T
1451.212	0.0	1453113	COUNTDOWN_END	n/a	n/a	n/a	-999	11	[0, 0, 0]	n/a	FR1	2	R1374T
1451.212	1.171	1453113	ORIENT_START	n/a	n/a	n/a	-999	11	[0, 0, 0]	n/a	FR1	2	R1374T
1452.383	0.001	1454284	ORIENT_END	n/a	n/a	n/a	-999	11	[0, 0, 0]	n/a	FR1	2	R1374T
1452.384	0.77	1454285	ENCODING_START	n/a	n/a	n/a	-999	11	[0, 0, 0]	n/a	FR1	2	R1374T
1453.154	1.614	1455055	WORD	n/a	wordpools/wordpool_EN.txt	ROAD	1	11	[0, 0, 0]	n/a	FR1	2	R1374T
1454.768	0.917	1456669	WORD_OFF	n/a	n/a	ROAD	1	11	[0, 0, 0]	n/a	FR1	2	R1374T
1455.685	1.632	1457586	WORD	n/a	wordpools/wordpool_EN.txt	ROOM	2	11	[0, 0, 0]	n/a	FR1	2	R1374T
1457.317	1.032	1459217	WORD_OFF	n/a	n/a	ROOM	2	11	[0, 0, 0]	n/a	FR1	2	R1374T
1458.349	1.635	1460249	WORD	n/a	wordpools/wordpool_EN.txt	LOCK	3	11	[0, 0, 0]	n/a	FR1	2	R1374T
1459.984	0.808	1461884	WORD_OFF	n/a	n/a	LOCK	3	11	[0, 0, 0]	n/a	FR1	2	R1374T
1460.792	1.627	1462692	WORD	n/a	wordpools/wordpool_EN.txt	TEA	4	11	[0, 0, 0]	n/a	FR1	2	R1374T
1462.419	0.938	1464319	WORD_OFF	n/a	n/a	TEA	4	11	[0, 0, 0]	n/a	FR1	2	R1374T
1463.357	1.628	1465257	WORD	n/a	wordpools/wordpool_EN.txt	MOON	5	11	[0, 0, 0]	n/a	FR1	2	R1374T
1464.985	0.783	1466885	WORD_OFF	n/a	n/a	MOON	5	11	[0, 0, 0]	n/a	FR1	2	R1374T
1465.768	1.635	1467668	WORD	n/a	wordpools/wordpool_EN.txt	MAZE	6	11	[0, 0, 0]	n/a	FR1	2	R1374T
1467.403	0.803	1469303	WORD_OFF	n/a	n/a	MAZE	6	11	[0, 0, 0]	n/a	FR1	2	R1374T
1468.206	1.63	1470106	WORD	n/a	wordpools/wordpool_EN.txt	GLASS	7	11	[0, 0, 0]	n/a	FR1	2	R1374T
1469.836	0.976	1471736	WORD_OFF	n/a	n/a	GLASS	7	11	[0, 0, 0]	n/a	FR1	2	R1374T
1470.812	1.626	1472712	WORD	n/a	wordpools/wordpool_EN.txt	MAP	8	11	[0, 0, 0]	n/a	FR1	2	R1374T
1472.438	0.925	1474337	WORD_OFF	n/a	n/a	MAP	8	11	[0, 0, 0]	n/a	FR1	2	R1374T
1473.363	1.624	1475262	WORD	n/a	wordpools/wordpool_EN.txt	CONE	9	11	[0, 0, 0]	n/a	FR1	2	R1374T
1474.987	0.918	1476886	WORD_OFF	n/a	n/a	CONE	9	11	[0, 0, 0]	n/a	FR1	2	R1374T
1475.905	1.634	1477804	WORD	n/a	wordpools/wordpool_EN.txt	KEY	10	11	[0, 0, 0]	n/a	FR1	2	R1374T
1477.539	0.843	1479438	WORD_OFF	n/a	n/a	KEY	10	11	[0, 0, 0]	n/a	FR1	2	R1374T
1478.382	1.623	1480281	WORD	n/a	wordpools/wordpool_EN.txt	SNAKE	11	11	[0, 0, 0]	n/a	FR1	2	R1374T
1480.005	0.813	1481904	WORD_OFF	n/a	n/a	SNAKE	11	11	[0, 0, 0]	n/a	FR1	2	R1374T
1480.818	1.638	1482717	WORD	n/a	wordpools/wordpool_EN.txt	DUCK	12	11	[0, 0, 0]	n/a	FR1	2	R1374T
1482.456	0.001	1484355	WORD_OFF	n/a	n/a	DUCK	12	11	[0, 0, 0]	n/a	FR1	2	R1374T
1482.457	0.0	1484356	ENCODING_END	n/a	n/a	n/a	-999	11	[0, 0, 0]	n/a	FR1	2	R1374T
1482.457	0.0	1484356	DISTRACT_START	n/a	n/a	n/a	-999	11	[0, 0, 0]	n/a	FR1	2	R1374T
1482.457	0.016	1484356	START	n/a	n/a	n/a	-999	11	[-999, -999, -999]	n/a	FR1	2	R1374T
1482.473	16.086	1484372	PROB	16.086	n/a	n/a	-999	11	[5, 2, 6]	13	FR1	2	R1374T
1498.559	7.351	1500457	PROB	7.351	n/a	n/a	-999	11	[6, 3, 2]	11	FR1	2	R1374T
1505.91	0.016	1507807	STOP	n/a	n/a	n/a	-999	11	[-999, -999, -999]	n/a	FR1	2	R1374T
1505.926	0.679	1507823	DISTRACT_END	n/a	n/a	n/a	-999	11	[0, 0, 0]	n/a	FR1	2	R1374T
1506.605	1.588	1508502	RETRIEVAL_ORIENT_START	n/a	n/a	n/a	-999	11	[0, 0, 0]	n/a	FR1	2	R1374T
1508.193	0.001	1510090	RETRIEVAL_ORIENT_END	n/a	n/a	n/a	-999	11	[0, 0, 0]	n/a	FR1	2	R1374T
1508.194	1.473	1510091	REC_START	n/a	n/a	n/a	-999	11	[0, 0, 0]	n/a	FR1	2	R1374T
1509.667	0.648	1511564	REC_WORD	0.648	n/a	ROAD	1	11	[0, 0, 0]	n/a	FR1	2	R1374T
1510.315	0.925	1512212	REC_WORD	0.925	n/a	GLASS	7	11	[0, 0, 0]	n/a	FR1	2	R1374T
1511.24	0.866	1513137	REC_WORD	0.866	n/a	MOON	5	11	[0, 0, 0]	n/a	FR1	2	R1374T
1512.106	9.552	1514003	REC_WORD	9.552	n/a	ROCK	-999	11	[0, 0, 0]	n/a	FR1	2	R1374T
1521.658	16.548	1523554	REC_WORD	16.548	n/a	WOOD	-999	11	[0, 0, 0]	n/a	FR1	2	R1374T
1538.206	0.0	1540101	REC_END	n/a	n/a	n/a	-999	11	[0, 0, 0]	n/a	FR1	2	R1374T
1538.206	0.014	1540101	TRIAL_END	n/a	n/a	n/a	-999	11	[0, 0, 0]	n/a	FR1	2	R1374T
1538.22	0.0	1540115	WAITING_START	n/a	n/a	n/a	-999	12	[0, 0, 0]	n/a	FR1	2	R1374T
1538.22	0.0	1540115	TRIAL_START	n/a	n/a	n/a	-999	12	[0, 0, 0]	n/a	FR1	2	R1374T
1538.22	7.78	1540115	TRIAL	n/a	n/a	n/a	-999	12	[0, 0, 0]	n/a	FR1	2	R1374T
1546.0	0.0	1547895	WAITING_END	n/a	n/a	n/a	-999	12	[0, 0, 0]	n/a	FR1	2	R1374T
1546.0	10.429	1547895	COUNTDOWN_START	n/a	n/a	n/a	-999	12	[0, 0, 0]	n/a	FR1	2	R1374T
1556.429	0.001	1558323	COUNTDOWN_END	n/a	n/a	n/a	-999	12	[0, 0, 0]	n/a	FR1	2	R1374T
1556.43	1.14	1558324	ORIENT_START	n/a	n/a	n/a	-999	12	[0, 0, 0]	n/a	FR1	2	R1374T
1557.57	0.0	1559464	ENCODING_START	n/a	n/a	n/a	-999	12	[0, 0, 0]	n/a	FR1	2	R1374T
1557.57	0.799	1559464	ORIENT_END	n/a	n/a	n/a	-999	12	[0, 0, 0]	n/a	FR1	2	R1374T
1558.369	1.634	1560263	WORD	n/a	wordpools/wordpool_EN.txt	SPRING	1	12	[0, 0, 0]	n/a	FR1	2	R1374T
1560.003	0.809	1561897	WORD_OFF	n/a	n/a	SPRING	1	12	[0, 0, 0]	n/a	FR1	2	R1374T
1560.812	1.625	1562706	WORD	n/a	wordpools/wordpool_EN.txt	BEAK	2	12	[0, 0, 0]	n/a	FR1	2	R1374T
1562.437	0.989	1564331	WORD_OFF	n/a	n/a	BEAK	2	12	[0, 0, 0]	n/a	FR1	2	R1374T
1563.426	1.628	1565319	WORD	n/a	wordpools/wordpool_EN.txt	SLUSH	3	12	[0, 0, 0]	n/a	FR1	2	R1374T
1565.054	0.817	1566947	WORD_OFF	n/a	n/a	SLUSH	3	12	[0, 0, 0]	n/a	FR1	2	R1374T
1565.871	1.634	1567764	WORD	n/a	wordpools/wordpool_EN.txt	BED	4	12	[0, 0, 0]	n/a	FR1	2	R1374T
1567.505	0.819	1569398	WORD_OFF	n/a	n/a	BED	4	12	[0, 0, 0]	n/a	FR1	2	R1374T
1568.324	1.63	1570217	WORD	n/a	wordpools/wordpool_EN.txt	CAR	5	12	[0, 0, 0]	n/a	FR1	2	R1374T
1569.954	0.912	1571847	WORD_OFF	n/a	n/a	CAR	5	12	[0, 0, 0]	n/a	FR1	2	R1374T
1570.866	1.606	1572759	WORD	n/a	wordpools/wordpool_EN.txt	LAWN	6	12	[0, 0, 0]	n/a	FR1	2	R1374T
1572.472	1.093	1574365	WORD_OFF	n/a	n/a	LAWN	6	12	[0, 0, 0]	n/a	FR1	2	R1374T
1573.565	1.624	1575458	WORD	n/a	wordpools/wordpool_EN.txt	GOAT	7	12	[0, 0, 0]	n/a	FR1	2	R1374T
1575.189	1.095	1577082	WORD_OFF	n/a	n/a	GOAT	7	12	[0, 0, 0]	n/a	FR1	2	R1374T
1576.284	1.622	1578177	WORD	n/a	wordpools/wordpool_EN.txt	DESK	8	12	[0, 0, 0]	n/a	FR1	2	R1374T
1577.906	1.038	1579799	WORD_OFF	n/a	n/a	DESK	8	12	[0, 0, 0]	n/a	FR1	2	R1374T
1578.944	1.613	1580836	WORD	n/a	wordpools/wordpool_EN.txt	SHIELD	9	12	[0, 0, 0]	n/a	FR1	2	R1374T
1580.557	0.9	1582449	WORD_OFF	n/a	n/a	SHIELD	9	12	[0, 0, 0]	n/a	FR1	2	R1374T
1581.457	1.633	1583349	WORD	n/a	wordpools/wordpool_EN.txt	LEAF	10	12	[0, 0, 0]	n/a	FR1	2	R1374T
1583.09	0.88	1584982	WORD_OFF	n/a	n/a	LEAF	10	12	[0, 0, 0]	n/a	FR1	2	R1374T
1583.97	1.638	1585862	WORD	n/a	wordpools/wordpool_EN.txt	CASH	11	12	[0, 0, 0]	n/a	FR1	2	R1374T
1585.608	0.945	1587500	WORD_OFF	n/a	n/a	CASH	11	12	[0, 0, 0]	n/a	FR1	2	R1374T
1586.553	1.621	1588445	WORD	n/a	wordpools/wordpool_EN.txt	BRIDGE	12	12	[0, 0, 0]	n/a	FR1	2	R1374T
1588.174	0.001	1590066	WORD_OFF	n/a	n/a	BRIDGE	12	12	[0, 0, 0]	n/a	FR1	2	R1374T
1588.175	0.0	1590067	ENCODING_END	n/a	n/a	n/a	-999	12	[0, 0, 0]	n/a	FR1	2	R1374T
1588.175	0.0	1590067	DISTRACT_START	n/a	n/a	n/a	-999	12	[0, 0, 0]	n/a	FR1	2	R1374T
1588.175	0.016	1590067	START	n/a	n/a	n/a	-999	12	[-999, -999, -999]	n/a	FR1	2	R1374T
1588.191	10.852	1590083	PROB	10.852	n/a	n/a	-999	12	[1, 1, 9]	11	FR1	2	R1374T
1599.043	10.031	1600934	PROB	10.031	n/a	n/a	-999	12	[4, 2, 2]	8	FR1	2	R1374T
1609.074	0.021	1610964	STOP	n/a	n/a	n/a	-999	12	[-999, -999, -999]	n/a	FR1	2	R1374T
1609.095	0.587	1610985	DISTRACT_END	n/a	n/a	n/a	-999	12	[0, 0, 0]	n/a	FR1	2	R1374T
1609.682	1.547	1611572	RETRIEVAL_ORIENT_START	n/a	n/a	n/a	-999	12	[0, 0, 0]	n/a	FR1	2	R1374T
1611.229	0.0	1613119	RETRIEVAL_ORIENT_END	n/a	n/a	n/a	-999	12	[0, 0, 0]	n/a	FR1	2	R1374T
1611.229	5.988	1613119	REC_START	n/a	n/a	n/a	-999	12	[0, 0, 0]	n/a	FR1	2	R1374T
1617.217	0.689	1619107	REC_WORD	0.689	n/a	SPRING	1	12	[0, 0, 0]	n/a	FR1	2	R1374T
1617.906	1.041	1619796	REC_WORD	1.041	n/a	GLASS	-999	12	[0, 0, 0]	n/a	FR1	2	R1374T
1618.947	1.275	1620837	REC_WORD	1.275	n/a	WOOD	-999	12	[0, 0, 0]	n/a	FR1	2	R1374T
1620.222	2.718	1622112	REC_WORD	2.718	n/a	JAR	-999	12	[0, 0, 0]	n/a	FR1	2	R1374T
1622.94	15.56	1624830	REC_WORD	15.56	n/a	ROAD	-999	12	[0, 0, 0]	n/a	FR1	2	R1374T
1638.5	2.74	1640389	REC_WORD	2.74	n/a	TOAD	-999	12	[0, 0, 0]	n/a	FR1	2	R1374T
1641.24	0.0	1643128	REC_END	n/a	n/a	n/a	-999	12	[0, 0, 0]	n/a	FR1	2	R1374T
1641.24	0.016	1643128	TRIAL_END	n/a	n/a	n/a	-999	12	[0, 0, 0]	n/a	FR1	2	R1374T
1641.256	0.0	1643144	TRIAL_START	n/a	n/a	n/a	-999	13	[0, 0, 0]	n/a	FR1	2	R1374T
1641.256	0.0	1643144	TRIAL	n/a	n/a	n/a	-999	13	[0, 0, 0]	n/a	FR1	2	R1374T
1641.256	0.0	1643144	WAITING_START	n/a	n/a	n/a	-999	13	[0, 0, 0]	n/a	FR1	2	R1374T
