onset	duration	sample	trial_type	response_time	stim_file	item_name	serialpos	list	test	answer	experiment	session	subject
0.0	60.345	9528	SESS_START	n/a	n/a	n/a	-999	-999	[0, 0, 0]	n/a	FR1	0	R1112M
60.345	10.428	39699	COUNTDOWN_START	n/a	n/a	n/a	-999	-999	[0, 0, 0]	n/a	FR1	0	R1112M
70.773	3.843	44913	COUNTDOWN_END	n/a	n/a	n/a	-999	-999	[0, 0, 0]	n/a	FR1	0	R1112M
74.616	2.549	46834	PRACTICE_WORD	n/a	n/a	FLOOD	1	-1	[0, 0, 0]	n/a	FR1	0	R1112M
77.165	2.402	48108	PRACTICE_WORD	n/a	n/a	CHEST	2	-1	[0, 0, 0]	n/a	FR1	0	R1112M
79.567	2.599	49309	PRACTICE_WORD	n/a	n/a	TONGUE	3	-1	[0, 0, 0]	n/a	FR1	0	R1112M
82.166	2.601	50609	PRACTICE_WORD	n/a	n/a	RING	4	-1	[0, 0, 0]	n/a	FR1	0	R1112M
84.767	2.517	51909	PRACTICE_WORD	n/a	n/a	COTTON	5	-1	[0, 0, 0]	n/a	FR1	0	R1112M
87.284	2.417	53168	PRACTICE_WORD	n/a	n/a	RHINO	6	-1	[0, 0, 0]	n/a	FR1	0	R1112M
89.701	2.484	54376	PRACTICE_WORD	n/a	n/a	BEAM	7	-1	[0, 0, 0]	n/a	FR1	0	R1112M
92.185	2.468	55618	PRACTICE_WORD	n/a	n/a	CAMEL	8	-1	[0, 0, 0]	n/a	FR1	0	R1112M
94.653	2.483	56852	PRACTICE_WORD	n/a	n/a	WATCH	9	-1	[0, 0, 0]	n/a	FR1	0	R1112M
97.136	2.584	58093	PRACTICE_WORD	n/a	n/a	IRON	10	-1	[0, 0, 0]	n/a	FR1	0	R1112M
99.72	2.467	59385	PRACTICE_WORD	n/a	n/a	ATTIC	11	-1	[0, 0, 0]	n/a	FR1	0	R1112M
102.187	1.617	60619	PRACTICE_WORD	n/a	n/a	WAGON	12	-1	[0, 0, 0]	n/a	FR1	0	R1112M
103.804	0.0	61427	PRACTICE_DISTRACT_START	n/a	n/a	n/a	-999	-1	[0, 0, 0]	n/a	FR1	0	R1112M
103.804	0.017	61427	START	n/a	n/a	n/a	-999	-1	[-999, -999, -999]	n/a	FR1	0	R1112M
103.821	23.643	61436	PROB	23.643	n/a	n/a	-999	-1	[8, 7, 9]	24	FR1	0	R1112M
127.464	0.012	73256	STOP	n/a	n/a	n/a	-999	-1	[-999, -999, -999]	n/a	FR1	0	R1112M
127.476	0.669	73262	PRACTICE_DISTRACT_END	n/a	n/a	n/a	-999	-1	[0, 0, 0]	n/a	FR1	0	R1112M
128.145	30.515	73597	PRACTICE_REC_START	n/a	n/a	n/a	-999	-1	[0, 0, 0]	n/a	FR1	0	R1112M
158.66	16.424	88854	PRACTICE_REC_END	n/a	n/a	n/a	-999	-1	[0, 0, 0]	n/a	FR1	0	R1112M
175.084	0.001	97065	COUNTDOWN_START	n/a	n/a	n/a	-999	1	[0, 0, 0]	n/a	FR1	0	R1112M
175.085	10.427	97066	TRIAL	n/a	n/a	n/a	-999	1	[0, 0, 0]	n/a	FR1	0	R1112M
185.512	0.009	102279	COUNTDOWN_END	n/a	n/a	n/a	-999	1	[0, 0, 0]	n/a	FR1	0	R1112M
185.521	2.433	102283	ORIENT	n/a	n/a	n/a	-999	1	[0, 0, 0]	n/a	FR1	0	R1112M
187.954	2.4	103500	WORD	n/a	wordpools/wordpool_EN.txt	MOUTH	1	1	[0, 0, 0]	n/a	FR1	0	R1112M
190.354	2.484	104700	WORD	n/a	wordpools/wordpool_EN.txt	ROSE	2	1	[0, 0, 0]	n/a	FR1	0	R1112M
192.838	2.417	105942	WORD	n/a	wordpools/wordpool_EN.txt	FLOOR	3	1	[0, 0, 0]	n/a	FR1	0	R1112M
195.255	2.567	107150	WORD	n/a	wordpools/wordpool_EN.txt	PARK	4	1	[0, 0, 0]	n/a	FR1	0	R1112M
197.822	2.534	108433	WORD	n/a	wordpools/wordpool_EN.txt	SHOE	5	1	[0, 0, 0]	n/a	FR1	0	R1112M
200.356	2.584	109700	WORD	n/a	wordpools/wordpool_EN.txt	BOOT	6	1	[0, 0, 0]	n/a	FR1	0	R1112M
202.94	2.384	110992	WORD	n/a	wordpools/wordpool_EN.txt	CLOWN	7	1	[0, 0, 0]	n/a	FR1	0	R1112M
205.324	2.5	112184	WORD	n/a	wordpools/wordpool_EN.txt	SUIT	8	1	[0, 0, 0]	n/a	FR1	0	R1112M
207.824	2.384	113434	WORD	n/a	wordpools/wordpool_EN.txt	CAPE	9	1	[0, 0, 0]	n/a	FR1	0	R1112M
210.208	2.617	114626	WORD	n/a	wordpools/wordpool_EN.txt	JUICE	10	1	[0, 0, 0]	n/a	FR1	0	R1112M
212.825	2.401	115935	WORD	n/a	wordpools/wordpool_EN.txt	WORLD	11	1	[0, 0, 0]	n/a	FR1	0	R1112M
215.226	1.617	117135	WORD	n/a	wordpools/wordpool_EN.txt	BAG	12	1	[0, 0, 0]	n/a	FR1	0	R1112M
216.843	0.001	117943	DISTRACT_START	n/a	n/a	n/a	-999	1	[0, 0, 0]	n/a	FR1	0	R1112M
216.844	0.015	117944	START	n/a	n/a	n/a	-999	1	[-999, -999, -999]	n/a	FR1	0	R1112M
216.859	12.903	117951	PROB	12.903	n/a	n/a	-999	1	[3, 9, 1]	13	FR1	0	R1112M
229.762	14.445	124403	PROB	14.445	n/a	n/a	-999	1	[7, 5, 4]	16	FR1	0	R1112M
244.207	0.007	131625	STOP	n/a	n/a	n/a	-999	1	[-999, -999, -999]	n/a	FR1	0	R1112M
244.214	1.101	131628	DISTRACT_END	n/a	n/a	n/a	-999	1	[0, 0, 0]	n/a	FR1	0	R1112M
245.315	5.798	132179	REC_START	n/a	n/a	n/a	-999	1	[0, 0, 0]	n/a	FR1	0	R1112M
251.113	2.373	135077	REC_WORD	2.373	n/a	CLOWN	7	1	[0, 0, 0]	n/a	FR1	0	R1112M
253.486	6.906	136264	REC_WORD	6.906	n/a	MOUTH	1	1	[0, 0, 0]	n/a	FR1	0	R1112M
260.392	0.971	139717	REC_WORD_VV	0.971	n/a	<>	-999	1	[0, 0, 0]	n/a	FR1	0	R1112M
261.363	13.966	140202	REC_WORD	13.966	n/a	BEAM	-999	1	[0, 0, 0]	n/a	FR1	0	R1112M
275.329	22.896	147185	REC_END	n/a	n/a	n/a	-999	1	[0, 0, 0]	n/a	FR1	0	R1112M
298.225	0.0	158632	TRIAL	n/a	n/a	n/a	-999	2	[0, 0, 0]	n/a	FR1	0	R1112M
298.225	10.428	158632	COUNTDOWN_START	n/a	n/a	n/a	-999	2	[0, 0, 0]	n/a	FR1	0	R1112M
308.653	0.008	163846	COUNTDOWN_END	n/a	n/a	n/a	-999	2	[0, 0, 0]	n/a	FR1	0	R1112M
308.661	2.566	163850	ORIENT	n/a	n/a	n/a	-999	2	[0, 0, 0]	n/a	FR1	0	R1112M
311.227	2.501	165133	WORD	n/a	wordpools/wordpool_EN.txt	ROPE	1	2	[0, 0, 0]	n/a	FR1	0	R1112M
313.728	2.55	166383	WORD	n/a	wordpools/wordpool_EN.txt	DUCK	2	2	[0, 0, 0]	n/a	FR1	0	R1112M
316.278	2.419	167658	WORD	n/a	wordpools/wordpool_EN.txt	SNAKE	3	2	[0, 0, 0]	n/a	FR1	0	R1112M
318.697	2.533	168868	WORD	n/a	wordpools/wordpool_EN.txt	TENT	4	2	[0, 0, 0]	n/a	FR1	0	R1112M
321.23	2.6	170134	WORD	n/a	wordpools/wordpool_EN.txt	MAZE	5	2	[0, 0, 0]	n/a	FR1	0	R1112M
323.83	2.417	171434	WORD	n/a	wordpools/wordpool_EN.txt	HAWK	6	2	[0, 0, 0]	n/a	FR1	0	R1112M
326.247	2.501	172642	WORD	n/a	wordpools/wordpool_EN.txt	WEED	7	2	[0, 0, 0]	n/a	FR1	0	R1112M
328.748	2.583	173893	WORD	n/a	wordpools/wordpool_EN.txt	OWL	8	2	[0, 0, 0]	n/a	FR1	0	R1112M
331.331	2.568	175184	WORD	n/a	wordpools/wordpool_EN.txt	DEER	9	2	[0, 0, 0]	n/a	FR1	0	R1112M
333.899	2.55	176468	WORD	n/a	wordpools/wordpool_EN.txt	BROOM	10	2	[0, 0, 0]	n/a	FR1	0	R1112M
336.449	2.417	177743	WORD	n/a	wordpools/wordpool_EN.txt	ROAD	11	2	[0, 0, 0]	n/a	FR1	0	R1112M
338.866	1.618	178951	WORD	n/a	wordpools/wordpool_EN.txt	DOCK	12	2	[0, 0, 0]	n/a	FR1	0	R1112M
340.484	0.001	179760	DISTRACT_START	n/a	n/a	n/a	-999	2	[0, 0, 0]	n/a	FR1	0	R1112M
340.485	0.016	179761	START	n/a	n/a	n/a	-999	2	[-999, -999, -999]	n/a	FR1	0	R1112M
340.501	17.469	179769	PROB	17.469	n/a	n/a	-999	2	[3, 1, 6]	10	FR1	0	R1112M
357.97	8.877	188503	PROB	8.877	n/a	n/a	-999	2	[8, 3, 5]	16	FR1	0	R1112M
366.847	0.008	192941	STOP	n/a	n/a	n/a	-999	2	[-999, -999, -999]	n/a	FR1	0	R1112M
366.855	1.051	192945	DISTRACT_END	n/a	n/a	n/a	-999	2	[0, 0, 0]	n/a	FR1	0	R1112M
367.906	11.87	193471	REC_START	n/a	n/a	n/a	-999	2	[0, 0, 0]	n/a	FR1	0	R1112M
379.776	3.503	199405	REC_WORD	3.503	n/a	DUCK	2	2	[0, 0, 0]	n/a	FR1	0	R1112M
383.279	9.856	201157	REC_WORD	9.856	n/a	FLOOR	-999	2	[0, 0, 0]	n/a	FR1	0	R1112M
393.135	4.781	206084	REC_WORD	4.781	n/a	ROSE	-999	2	[0, 0, 0]	n/a	FR1	0	R1112M
397.916	44.037	208475	REC_END	n/a	n/a	n/a	-999	2	[0, 0, 0]	n/a	FR1	0	R1112M
441.953	0.0	230492	TRIAL	n/a	n/a	n/a	-999	3	[0, 0, 0]	n/a	FR1	0	R1112M
441.953	10.428	230492	COUNTDOWN_START	n/a	n/a	n/a	-999	3	[0, 0, 0]	n/a	FR1	0	R1112M
452.381	0.007	235706	COUNTDOWN_END	n/a	n/a	n/a	-999	3	[0, 0, 0]	n/a	FR1	0	R1112M
452.388	2.434	235709	ORIENT	n/a	n/a	n/a	-999	3	[0, 0, 0]	n/a	FR1	0	R1112M
454.822	2.6	236926	WORD	n/a	wordpools/wordpool_EN.txt	POLE	1	3	[0, 0, 0]	n/a	FR1	0	R1112M
457.422	2.584	238226	WORD	n/a	wordpools/wordpool_EN.txt	HORSE	2	3	[0, 0, 0]	n/a	FR1	0	R1112M
460.006	2.552	239518	WORD	n/a	wordpools/wordpool_EN.txt	BALL	3	3	[0, 0, 0]	n/a	FR1	0	R1112M
462.558	2.432	240794	WORD	n/a	wordpools/wordpool_EN.txt	APE	4	3	[0, 0, 0]	n/a	FR1	0	R1112M
464.99	2.568	242010	WORD	n/a	wordpools/wordpool_EN.txt	CORD	5	3	[0, 0, 0]	n/a	FR1	0	R1112M
467.558	2.55	243294	WORD	n/a	wordpools/wordpool_EN.txt	MAP	6	3	[0, 0, 0]	n/a	FR1	0	R1112M
470.108	2.452	244569	WORD	n/a	wordpools/wordpool_EN.txt	MAIL	7	3	[0, 0, 0]	n/a	FR1	0	R1112M
472.56	2.599	245795	WORD	n/a	wordpools/wordpool_EN.txt	TOAD	8	3	[0, 0, 0]	n/a	FR1	0	R1112M
475.159	2.617	247094	WORD	n/a	wordpools/wordpool_EN.txt	TEETH	9	3	[0, 0, 0]	n/a	FR1	0	R1112M
477.776	2.384	248403	WORD	n/a	wordpools/wordpool_EN.txt	BEAR	10	3	[0, 0, 0]	n/a	FR1	0	R1112M
480.16	2.418	249594	WORD	n/a	wordpools/wordpool_EN.txt	CAT	11	3	[0, 0, 0]	n/a	FR1	0	R1112M
482.578	1.616	250803	WORD	n/a	wordpools/wordpool_EN.txt	JUDGE	12	3	[0, 0, 0]	n/a	FR1	0	R1112M
484.194	0.001	251611	DISTRACT_START	n/a	n/a	n/a	-999	3	[0, 0, 0]	n/a	FR1	0	R1112M
484.195	0.016	251612	START	n/a	n/a	n/a	-999	3	[-999, -999, -999]	n/a	FR1	0	R1112M
484.211	12.152	251620	PROB	12.152	n/a	n/a	-999	3	[2, 2, 3]	7	FR1	0	R1112M
496.363	8.916	257696	PROB	8.916	n/a	n/a	-999	3	[4, 5, 3]	12	FR1	0	R1112M
505.279	0.019	262153	STOP	n/a	n/a	n/a	-999	3	[-999, -999, -999]	n/a	FR1	0	R1112M
505.298	1.035	262163	DISTRACT_END	n/a	n/a	n/a	-999	3	[0, 0, 0]	n/a	FR1	0	R1112M
506.333	4.374	262680	REC_START	n/a	n/a	n/a	-999	3	[0, 0, 0]	n/a	FR1	0	R1112M
510.707	1.783	264867	REC_WORD	1.783	n/a	HORSE	2	3	[0, 0, 0]	n/a	FR1	0	R1112M
512.49	4.337	265759	REC_WORD	4.337	n/a	POLE	1	3	[0, 0, 0]	n/a	FR1	0	R1112M
516.827	2.44	267927	REC_WORD	2.44	n/a	ROPE	-999	3	[0, 0, 0]	n/a	FR1	0	R1112M
519.267	8.238	269147	REC_WORD	8.238	n/a	TEETH	9	3	[0, 0, 0]	n/a	FR1	0	R1112M
527.505	8.838	273266	REC_WORD_VV	8.838	n/a	<>	-999	3	[0, 0, 0]	n/a	FR1	0	R1112M
536.343	13.248	277684	REC_END	n/a	n/a	n/a	-999	3	[0, 0, 0]	n/a	FR1	0	R1112M
549.591	0.0	284308	COUNTDOWN_START	n/a	n/a	n/a	-999	4	[0, 0, 0]	n/a	FR1	0	R1112M
549.591	10.428	284308	TRIAL	n/a	n/a	n/a	-999	4	[0, 0, 0]	n/a	FR1	0	R1112M
560.019	0.007	289522	COUNTDOWN_END	n/a	n/a	n/a	-999	4	[0, 0, 0]	n/a	FR1	0	R1112M
560.026	2.4	289525	ORIENT	n/a	n/a	n/a	-999	4	[0, 0, 0]	n/a	FR1	0	R1112M
562.426	2.484	290725	WORD	n/a	wordpools/wordpool_EN.txt	POND	1	4	[0, 0, 0]	n/a	FR1	0	R1112M
564.91	2.484	291967	WORD	n/a	wordpools/wordpool_EN.txt	STRAW	2	4	[0, 0, 0]	n/a	FR1	0	R1112M
567.394	2.55	293209	WORD	n/a	wordpools/wordpool_EN.txt	SLUSH	3	4	[0, 0, 0]	n/a	FR1	0	R1112M
569.944	2.451	294484	WORD	n/a	wordpools/wordpool_EN.txt	CAGE	4	4	[0, 0, 0]	n/a	FR1	0	R1112M
572.395	2.533	295709	WORD	n/a	wordpools/wordpool_EN.txt	VASE	5	4	[0, 0, 0]	n/a	FR1	0	R1112M
574.928	2.602	296976	WORD	n/a	wordpools/wordpool_EN.txt	SINK	6	4	[0, 0, 0]	n/a	FR1	0	R1112M
577.53	2.383	298277	WORD	n/a	wordpools/wordpool_EN.txt	JAR	7	4	[0, 0, 0]	n/a	FR1	0	R1112M
579.913	2.45	299468	WORD	n/a	wordpools/wordpool_EN.txt	SEAL	8	4	[0, 0, 0]	n/a	FR1	0	R1112M
582.363	2.517	300693	WORD	n/a	wordpools/wordpool_EN.txt	GEESE	9	4	[0, 0, 0]	n/a	FR1	0	R1112M
584.88	2.367	301952	WORD	n/a	wordpools/wordpool_EN.txt	HAT	10	4	[0, 0, 0]	n/a	FR1	0	R1112M
587.247	2.451	303135	WORD	n/a	wordpools/wordpool_EN.txt	BOX	11	4	[0, 0, 0]	n/a	FR1	0	R1112M
589.698	1.617	304360	WORD	n/a	wordpools/wordpool_EN.txt	PET	12	4	[0, 0, 0]	n/a	FR1	0	R1112M
591.315	0.001	305169	DISTRACT_START	n/a	n/a	n/a	-999	4	[0, 0, 0]	n/a	FR1	0	R1112M
591.316	0.016	305169	START	n/a	n/a	n/a	-999	4	[-999, -999, -999]	n/a	FR1	0	R1112M
591.332	19.803	305177	PROB	19.803	n/a	n/a	-999	4	[7, 6, 9]	23	FR1	0	R1112M
611.135	12.568	315078	PROB	12.568	n/a	n/a	-999	4	[6, 5, 1]	12	FR1	0	R1112M
623.703	0.018	321362	STOP	n/a	n/a	n/a	-999	4	[-999, -999, -999]	n/a	FR1	0	R1112M
623.721	1.201	321371	DISTRACT_END	n/a	n/a	n/a	-999	4	[0, 0, 0]	n/a	FR1	0	R1112M
624.922	2.067	321971	REC_START	n/a	n/a	n/a	-999	4	[0, 0, 0]	n/a	FR1	0	R1112M
626.989	3.638	323005	REC_WORD	3.638	n/a	VASE	5	4	[0, 0, 0]	n/a	FR1	0	R1112M
630.627	21.235	324824	REC_WORD	21.235	n/a	PET	12	4	[0, 0, 0]	n/a	FR1	0	R1112M
651.862	3.07	335441	REC_WORD_VV	3.07	n/a	<>	-999	4	[0, 0, 0]	n/a	FR1	0	R1112M
654.932	27.201	336976	REC_END	n/a	n/a	n/a	-999	4	[0, 0, 0]	n/a	FR1	0	R1112M
682.133	0.0	350575	TRIAL	n/a	n/a	n/a	-999	5	[0, 0, 0]	n/a	FR1	0	R1112M
682.133	10.428	350575	COUNTDOWN_START	n/a	n/a	n/a	-999	5	[0, 0, 0]	n/a	FR1	0	R1112M
692.561	0.008	355789	COUNTDOWN_END	n/a	n/a	n/a	-999	5	[0, 0, 0]	n/a	FR1	0	R1112M
692.569	2.483	355793	ORIENT	n/a	n/a	n/a	-999	5	[0, 0, 0]	n/a	FR1	0	R1112M
695.052	2.418	357034	WORD	n/a	wordpools/wordpool_EN.txt	SEAT	1	5	[0, 0, 0]	n/a	FR1	0	R1112M
697.47	2.533	358243	WORD	n/a	wordpools/wordpool_EN.txt	ROOF	2	5	[0, 0, 0]	n/a	FR1	0	R1112M
700.003	2.601	359510	WORD	n/a	wordpools/wordpool_EN.txt	HAND	3	5	[0, 0, 0]	n/a	FR1	0	R1112M
702.604	2.616	360810	WORD	n/a	wordpools/wordpool_EN.txt	BADGE	4	5	[0, 0, 0]	n/a	FR1	0	R1112M
705.22	2.385	362118	WORD	n/a	wordpools/wordpool_EN.txt	DIME	5	5	[0, 0, 0]	n/a	FR1	0	R1112M
707.605	2.6	363311	WORD	n/a	wordpools/wordpool_EN.txt	MAT	6	5	[0, 0, 0]	n/a	FR1	0	R1112M
710.205	2.617	364611	WORD	n/a	wordpools/wordpool_EN.txt	STICK	7	5	[0, 0, 0]	n/a	FR1	0	R1112M
712.822	2.384	365919	WORD	n/a	wordpools/wordpool_EN.txt	KITE	8	5	[0, 0, 0]	n/a	FR1	0	R1112M
715.206	2.384	367111	WORD	n/a	wordpools/wordpool_EN.txt	SMILE	9	5	[0, 0, 0]	n/a	FR1	0	R1112M
717.59	2.416	368303	WORD	n/a	wordpools/wordpool_EN.txt	SCHOOL	10	5	[0, 0, 0]	n/a	FR1	0	R1112M
720.006	2.485	369511	WORD	n/a	wordpools/wordpool_EN.txt	CANE	11	5	[0, 0, 0]	n/a	FR1	0	R1112M
722.491	1.616	370753	WORD	n/a	wordpools/wordpool_EN.txt	COUCH	12	5	[0, 0, 0]	n/a	FR1	0	R1112M
724.107	0.001	371561	DISTRACT_START	n/a	n/a	n/a	-999	5	[0, 0, 0]	n/a	FR1	0	R1112M
724.108	0.016	371562	START	n/a	n/a	n/a	-999	5	[-999, -999, -999]	n/a	FR1	0	R1112M
724.124	24.171	371570	PROB	24.171	n/a	n/a	-999	5	[8, 5, 3]	16	FR1	0	R1112M
748.295	0.017	383654	STOP	n/a	n/a	n/a	-999	5	[-999, -999, -999]	n/a	FR1	0	R1112M
748.312	1.101	383663	DISTRACT_END	n/a	n/a	n/a	-999	5	[0, 0, 0]	n/a	FR1	0	R1112M
749.413	1.268	384213	REC_START	n/a	n/a	n/a	-999	5	[0, 0, 0]	n/a	FR1	0	R1112M
750.681	16.763	384847	REC_WORD_VV	16.763	n/a	<>	-999	5	[0, 0, 0]	n/a	FR1	0	R1112M
767.444	2.229	393228	REC_WORD	2.229	n/a	KITE	8	5	[0, 0, 0]	n/a	FR1	0	R1112M
769.673	2.193	394343	REC_WORD_VV	2.193	n/a	<>	-999	5	[0, 0, 0]	n/a	FR1	0	R1112M
771.866	3.41	395439	REC_WORD_VV	3.41	n/a	<>	-999	5	[0, 0, 0]	n/a	FR1	0	R1112M
775.276	4.147	397144	REC_WORD_VV	4.147	n/a	<>	-999	5	[0, 0, 0]	n/a	FR1	0	R1112M
779.423	16.315	399218	REC_END	n/a	n/a	n/a	-999	5	[0, 0, 0]	n/a	FR1	0	R1112M
795.738	0.0	407375	TRIAL	n/a	n/a	n/a	-999	6	[0, 0, 0]	n/a	FR1	0	R1112M
795.738	10.428	407375	COUNTDOWN_START	n/a	n/a	n/a	-999	6	[0, 0, 0]	n/a	FR1	0	R1112M
806.166	0.007	412588	COUNTDOWN_END	n/a	n/a	n/a	-999	6	[0, 0, 0]	n/a	FR1	0	R1112M
806.173	2.402	412592	ORIENT	n/a	n/a	n/a	-999	6	[0, 0, 0]	n/a	FR1	0	R1112M
808.575	2.382	413793	WORD	n/a	wordpools/wordpool_EN.txt	LIP	1	6	[0, 0, 0]	n/a	FR1	0	R1112M
810.957	2.535	414984	WORD	n/a	wordpools/wordpool_EN.txt	STORE	2	6	[0, 0, 0]	n/a	FR1	0	R1112M
813.492	2.516	416251	WORD	n/a	wordpools/wordpool_EN.txt	SHIRT	3	6	[0, 0, 0]	n/a	FR1	0	R1112M
816.008	2.552	417509	WORD	n/a	wordpools/wordpool_EN.txt	RIB	4	6	[0, 0, 0]	n/a	FR1	0	R1112M
818.56	2.383	418785	WORD	n/a	wordpools/wordpool_EN.txt	MULE	5	6	[0, 0, 0]	n/a	FR1	0	R1112M
820.943	2.434	419976	WORD	n/a	wordpools/wordpool_EN.txt	BOWL	6	6	[0, 0, 0]	n/a	FR1	0	R1112M
823.377	2.55	421193	WORD	n/a	wordpools/wordpool_EN.txt	BREAD	7	6	[0, 0, 0]	n/a	FR1	0	R1112M
825.927	2.618	422468	WORD	n/a	wordpools/wordpool_EN.txt	CHAIR	8	6	[0, 0, 0]	n/a	FR1	0	R1112M
828.545	2.449	423777	WORD	n/a	wordpools/wordpool_EN.txt	BEAN	9	6	[0, 0, 0]	n/a	FR1	0	R1112M
830.994	2.485	425002	WORD	n/a	wordpools/wordpool_EN.txt	PANTS	10	6	[0, 0, 0]	n/a	FR1	0	R1112M
833.479	2.433	426244	WORD	n/a	wordpools/wordpool_EN.txt	BARN	11	6	[0, 0, 0]	n/a	FR1	0	R1112M
835.912	1.601	427460	WORD	n/a	wordpools/wordpool_EN.txt	STOVE	12	6	[0, 0, 0]	n/a	FR1	0	R1112M
837.513	0.001	428261	DISTRACT_START	n/a	n/a	n/a	-999	6	[0, 0, 0]	n/a	FR1	0	R1112M
837.514	0.016	428261	START	n/a	n/a	n/a	-999	6	[-999, -999, -999]	n/a	FR1	0	R1112M
837.53	12.718	428269	PROB	12.718	n/a	n/a	-999	6	[1, 8, 6]	15	FR1	0	R1112M
850.248	19.703	434628	PROB	19.703	n/a	n/a	-999	6	[9, 2, 7]	18	FR1	0	R1112M
869.951	0.018	444479	STOP	n/a	n/a	n/a	-999	6	[-999, -999, -999]	n/a	FR1	0	R1112M
869.969	1.184	444488	DISTRACT_END	n/a	n/a	n/a	-999	6	[0, 0, 0]	n/a	FR1	0	R1112M
871.153	1.078	445080	REC_START	n/a	n/a	n/a	-999	6	[0, 0, 0]	n/a	FR1	0	R1112M
872.231	2.408	445619	REC_WORD_VV	2.408	n/a	<>	-999	6	[0, 0, 0]	n/a	FR1	0	R1112M
874.639	17.019	446823	REC_WORD	17.019	n/a	MULE	5	6	[0, 0, 0]	n/a	FR1	0	R1112M
891.658	9.505	455332	REC_WORD_VV	9.505	n/a	<>	-999	6	[0, 0, 0]	n/a	FR1	0	R1112M
901.163	4.33	460084	REC_END	n/a	n/a	n/a	-999	6	[0, 0, 0]	n/a	FR1	0	R1112M
905.493	0.001	462249	COUNTDOWN_START	n/a	n/a	n/a	-999	7	[0, 0, 0]	n/a	FR1	0	R1112M
905.494	10.427	462250	TRIAL	n/a	n/a	n/a	-999	7	[0, 0, 0]	n/a	FR1	0	R1112M
915.921	0.007	467463	COUNTDOWN_END	n/a	n/a	n/a	-999	7	[0, 0, 0]	n/a	FR1	0	R1112M
915.928	2.4	467466	ORIENT	n/a	n/a	n/a	-999	7	[0, 0, 0]	n/a	FR1	0	R1112M
918.328	2.567	468666	WORD	n/a	wordpools/wordpool_EN.txt	SLEEVE	1	7	[0, 0, 0]	n/a	FR1	0	R1112M
920.895	2.569	469950	WORD	n/a	wordpools/wordpool_EN.txt	DITCH	2	7	[0, 0, 0]	n/a	FR1	0	R1112M
923.464	2.532	471234	WORD	n/a	wordpools/wordpool_EN.txt	VINE	3	7	[0, 0, 0]	n/a	FR1	0	R1112M
925.996	2.434	472500	WORD	n/a	wordpools/wordpool_EN.txt	BUSH	4	7	[0, 0, 0]	n/a	FR1	0	R1112M
928.43	2.617	473717	WORD	n/a	wordpools/wordpool_EN.txt	SNAIL	5	7	[0, 0, 0]	n/a	FR1	0	R1112M
931.047	2.418	475025	WORD	n/a	wordpools/wordpool_EN.txt	WHEEL	6	7	[0, 0, 0]	n/a	FR1	0	R1112M
933.465	2.567	476234	WORD	n/a	wordpools/wordpool_EN.txt	BIRD	7	7	[0, 0, 0]	n/a	FR1	0	R1112M
936.032	2.451	477518	WORD	n/a	wordpools/wordpool_EN.txt	EAR	8	7	[0, 0, 0]	n/a	FR1	0	R1112M
938.483	2.466	478743	WORD	n/a	wordpools/wordpool_EN.txt	SWAMP	9	7	[0, 0, 0]	n/a	FR1	0	R1112M
940.949	2.568	479976	WORD	n/a	wordpools/wordpool_EN.txt	HOLE	10	7	[0, 0, 0]	n/a	FR1	0	R1112M
943.517	2.5	481260	WORD	n/a	wordpools/wordpool_EN.txt	EEL	11	7	[0, 0, 0]	n/a	FR1	0	R1112M
946.017	1.601	482510	WORD	n/a	wordpools/wordpool_EN.txt	CRANE	12	7	[0, 0, 0]	n/a	FR1	0	R1112M
947.618	0.001	483310	DISTRACT_START	n/a	n/a	n/a	-999	7	[0, 0, 0]	n/a	FR1	0	R1112M
947.619	0.016	483311	START	n/a	n/a	n/a	-999	7	[-999, -999, -999]	n/a	FR1	0	R1112M
947.635	8.651	483319	PROB	8.651	n/a	n/a	-999	7	[5, 2, 2]	9	FR1	0	R1112M
956.286	9.151	487644	PROB	9.151	n/a	n/a	-999	7	[3, 6, 2]	11	FR1	0	R1112M
965.437	8.418	492219	PROB	8.418	n/a	n/a	-999	7	[1, 9, 9]	19	FR1	0	R1112M
973.855	0.017	496428	STOP	n/a	n/a	n/a	-999	7	[-999, -999, -999]	n/a	FR1	0	R1112M
973.872	1.134	496437	DISTRACT_END	n/a	n/a	n/a	-999	7	[0, 0, 0]	n/a	FR1	0	R1112M
975.006	3.295	497004	REC_START	n/a	n/a	n/a	-999	7	[0, 0, 0]	n/a	FR1	0	R1112M
978.301	21.543	498651	REC_WORD	21.543	n/a	EEL	11	7	[0, 0, 0]	n/a	FR1	0	R1112M
999.844	5.173	509422	REC_WORD	5.173	n/a	SWAMP	9	7	[0, 0, 0]	n/a	FR1	0	R1112M
1005.017	8.013	512008	REC_END	n/a	n/a	n/a	-999	7	[0, 0, 0]	n/a	FR1	0	R1112M
1013.03	0.0	516014	COUNTDOWN_START	n/a	n/a	n/a	-999	8	[0, 0, 0]	n/a	FR1	0	R1112M
1013.03	10.428	516014	TRIAL	n/a	n/a	n/a	-999	8	[0, 0, 0]	n/a	FR1	0	R1112M
1023.458	0.008	521228	COUNTDOWN_END	n/a	n/a	n/a	-999	8	[0, 0, 0]	n/a	FR1	0	R1112M
1023.466	2.566	521232	ORIENT	n/a	n/a	n/a	-999	8	[0, 0, 0]	n/a	FR1	0	R1112M
1026.032	2.452	522515	WORD	n/a	wordpools/wordpool_EN.txt	CLAY	1	8	[0, 0, 0]	n/a	FR1	0	R1112M
1028.484	2.449	523741	WORD	n/a	wordpools/wordpool_EN.txt	INK	2	8	[0, 0, 0]	n/a	FR1	0	R1112M
1030.933	2.552	524965	WORD	n/a	wordpools/wordpool_EN.txt	CHIN	3	8	[0, 0, 0]	n/a	FR1	0	R1112M
1033.485	2.499	526241	WORD	n/a	wordpools/wordpool_EN.txt	BANK	4	8	[0, 0, 0]	n/a	FR1	0	R1112M
1035.984	2.384	527491	WORD	n/a	wordpools/wordpool_EN.txt	PEACH	5	8	[0, 0, 0]	n/a	FR1	0	R1112M
1038.368	2.551	528683	WORD	n/a	wordpools/wordpool_EN.txt	STOOL	6	8	[0, 0, 0]	n/a	FR1	0	R1112M
1040.919	2.533	529958	WORD	n/a	wordpools/wordpool_EN.txt	BENCH	7	8	[0, 0, 0]	n/a	FR1	0	R1112M
1043.452	2.451	531225	WORD	n/a	wordpools/wordpool_EN.txt	THREAD	8	8	[0, 0, 0]	n/a	FR1	0	R1112M
1045.903	2.484	532450	WORD	n/a	wordpools/wordpool_EN.txt	LAMP	9	8	[0, 0, 0]	n/a	FR1	0	R1112M
1048.387	2.633	533692	WORD	n/a	wordpools/wordpool_EN.txt	SOAP	10	8	[0, 0, 0]	n/a	FR1	0	R1112M
1051.02	2.502	535008	WORD	n/a	wordpools/wordpool_EN.txt	FLUTE	11	8	[0, 0, 0]	n/a	FR1	0	R1112M
1053.522	1.616	536259	WORD	n/a	wordpools/wordpool_EN.txt	PASTE	12	8	[0, 0, 0]	n/a	FR1	0	R1112M
1055.138	0.001	537067	DISTRACT_START	n/a	n/a	n/a	-999	8	[0, 0, 0]	n/a	FR1	0	R1112M
1055.139	0.016	537068	START	n/a	n/a	n/a	-999	8	[-999, -999, -999]	n/a	FR1	0	R1112M
1055.155	14.986	537076	PROB	14.986	n/a	n/a	-999	8	[4, 4, 4]	12	FR1	0	R1112M
1070.141	10.314	544568	PROB	10.314	n/a	n/a	-999	8	[4, 1, 5]	10	FR1	0	R1112M
1080.455	0.005	549725	STOP	n/a	n/a	n/a	-999	8	[-999, -999, -999]	n/a	FR1	0	R1112M
1080.46	1.118	549728	DISTRACT_END	n/a	n/a	n/a	-999	8	[0, 0, 0]	n/a	FR1	0	R1112M
1081.578	3.6	550287	REC_START	n/a	n/a	n/a	-999	8	[0, 0, 0]	n/a	FR1	0	R1112M
1085.178	3.003	552086	REC_WORD	3.003	n/a	LAMP	9	8	[0, 0, 0]	n/a	FR1	0	R1112M
1088.181	10.619	553588	REC_WORD	10.619	n/a	FLOOR	-999	8	[0, 0, 0]	n/a	FR1	0	R1112M
1098.8	12.789	558897	REC_WORD	12.789	n/a	FLUTE	11	8	[0, 0, 0]	n/a	FR1	0	R1112M
1111.589	22.731	565291	REC_END	n/a	n/a	n/a	-999	8	[0, 0, 0]	n/a	FR1	0	R1112M
1134.32	0.0	576656	TRIAL	n/a	n/a	n/a	-999	9	[0, 0, 0]	n/a	FR1	0	R1112M
1134.32	10.428	576656	COUNTDOWN_START	n/a	n/a	n/a	-999	9	[0, 0, 0]	n/a	FR1	0	R1112M
1144.748	0.007	581870	COUNTDOWN_END	n/a	n/a	n/a	-999	9	[0, 0, 0]	n/a	FR1	0	R1112M
1144.755	2.584	581873	ORIENT	n/a	n/a	n/a	-999	9	[0, 0, 0]	n/a	FR1	0	R1112M
1147.339	2.55	583165	WORD	n/a	wordpools/wordpool_EN.txt	NOSE	1	9	[0, 0, 0]	n/a	FR1	0	R1112M
1149.889	2.484	584440	WORD	n/a	wordpools/wordpool_EN.txt	TAIL	2	9	[0, 0, 0]	n/a	FR1	0	R1112M
1152.373	2.401	585682	WORD	n/a	wordpools/wordpool_EN.txt	PIT	3	9	[0, 0, 0]	n/a	FR1	0	R1112M
1154.774	2.517	586882	WORD	n/a	wordpools/wordpool_EN.txt	PRINCE	4	9	[0, 0, 0]	n/a	FR1	0	R1112M
1157.291	2.401	588141	WORD	n/a	wordpools/wordpool_EN.txt	MOUSE	5	9	[0, 0, 0]	n/a	FR1	0	R1112M
1159.692	2.417	589341	WORD	n/a	wordpools/wordpool_EN.txt	SHIELD	6	9	[0, 0, 0]	n/a	FR1	0	R1112M
1162.109	2.434	590550	WORD	n/a	wordpools/wordpool_EN.txt	ARM	7	9	[0, 0, 0]	n/a	FR1	0	R1112M
1164.543	2.567	591767	WORD	n/a	wordpools/wordpool_EN.txt	TOE	8	9	[0, 0, 0]	n/a	FR1	0	R1112M
1167.11	2.584	593050	WORD	n/a	wordpools/wordpool_EN.txt	WALL	9	9	[0, 0, 0]	n/a	FR1	0	R1112M
1169.694	2.516	594342	WORD	n/a	wordpools/wordpool_EN.txt	SPEAR	10	9	[0, 0, 0]	n/a	FR1	0	R1112M
1172.21	2.568	595600	WORD	n/a	wordpools/wordpool_EN.txt	HOOF	11	9	[0, 0, 0]	n/a	FR1	0	R1112M
1174.778	1.616	596884	WORD	n/a	wordpools/wordpool_EN.txt	LAWN	12	9	[0, 0, 0]	n/a	FR1	0	R1112M
1176.394	0.001	597692	DISTRACT_START	n/a	n/a	n/a	-999	9	[0, 0, 0]	n/a	FR1	0	R1112M
1176.395	0.016	597692	START	n/a	n/a	n/a	-999	9	[-999, -999, -999]	n/a	FR1	0	R1112M
1176.411	12.786	597700	PROB	12.786	n/a	n/a	-999	9	[1, 1, 3]	5	FR1	0	R1112M
1189.197	8.674	604093	PROB	8.674	n/a	n/a	-999	9	[5, 7, 7]	19	FR1	0	R1112M
1197.871	0.011	608430	STOP	n/a	n/a	n/a	-999	9	[-999, -999, -999]	n/a	FR1	0	R1112M
1197.882	1.201	608435	DISTRACT_END	n/a	n/a	n/a	-999	9	[0, 0, 0]	n/a	FR1	0	R1112M
1199.083	13.954	609036	REC_START	n/a	n/a	n/a	-999	9	[0, 0, 0]	n/a	FR1	0	R1112M
1213.037	16.057	616012	REC_WORD	16.057	n/a	NOSE	1	9	[0, 0, 0]	n/a	FR1	0	R1112M
1229.094	10.029	624040	REC_END	n/a	n/a	n/a	-999	9	[0, 0, 0]	n/a	FR1	0	R1112M
1239.123	0.001	629055	COUNTDOWN_START	n/a	n/a	n/a	-999	10	[0, 0, 0]	n/a	FR1	0	R1112M
1239.124	10.427	629055	TRIAL	n/a	n/a	n/a	-999	10	[0, 0, 0]	n/a	FR1	0	R1112M
1249.551	0.009	634268	COUNTDOWN_END	n/a	n/a	n/a	-999	10	[0, 0, 0]	n/a	FR1	0	R1112M
1249.56	2.549	634273	ORIENT	n/a	n/a	n/a	-999	10	[0, 0, 0]	n/a	FR1	0	R1112M
1252.109	2.435	635547	WORD	n/a	wordpools/wordpool_EN.txt	GLOVE	1	10	[0, 0, 0]	n/a	FR1	0	R1112M
1254.544	2.583	636765	WORD	n/a	wordpools/wordpool_EN.txt	PIPE	2	10	[0, 0, 0]	n/a	FR1	0	R1112M
1257.127	2.485	638056	WORD	n/a	wordpools/wordpool_EN.txt	FAN	3	10	[0, 0, 0]	n/a	FR1	0	R1112M
1259.612	2.466	639299	WORD	n/a	wordpools/wordpool_EN.txt	PURSE	4	10	[0, 0, 0]	n/a	FR1	0	R1112M
1262.078	2.485	640531	WORD	n/a	wordpools/wordpool_EN.txt	BAND	5	10	[0, 0, 0]	n/a	FR1	0	R1112M
1264.563	2.566	641774	WORD	n/a	wordpools/wordpool_EN.txt	PIN	6	10	[0, 0, 0]	n/a	FR1	0	R1112M
1267.129	2.568	643057	WORD	n/a	wordpools/wordpool_EN.txt	WAND	7	10	[0, 0, 0]	n/a	FR1	0	R1112M
1269.697	2.433	644341	WORD	n/a	wordpools/wordpool_EN.txt	TOOL	8	10	[0, 0, 0]	n/a	FR1	0	R1112M
1272.13	2.617	645557	WORD	n/a	wordpools/wordpool_EN.txt	THUMB	9	10	[0, 0, 0]	n/a	FR1	0	R1112M
1274.747	2.617	646866	WORD	n/a	wordpools/wordpool_EN.txt	YARD	10	10	[0, 0, 0]	n/a	FR1	0	R1112M
1277.364	2.384	648174	WORD	n/a	wordpools/wordpool_EN.txt	VEST	11	10	[0, 0, 0]	n/a	FR1	0	R1112M
1279.748	1.617	649366	WORD	n/a	wordpools/wordpool_EN.txt	DESK	12	10	[0, 0, 0]	n/a	FR1	0	R1112M
1281.365	0.001	650174	DISTRACT_START	n/a	n/a	n/a	-999	10	[0, 0, 0]	n/a	FR1	0	R1112M
1281.366	0.016	650175	START	n/a	n/a	n/a	-999	10	[-999, -999, -999]	n/a	FR1	0	R1112M
1281.382	26.569	650183	PROB	26.569	n/a	n/a	-999	10	[4, 6, 8]	18	FR1	0	R1112M
1307.951	0.019	663467	STOP	n/a	n/a	n/a	-999	10	[-999, -999, -999]	n/a	FR1	0	R1112M
1307.97	1.035	663476	DISTRACT_END	n/a	n/a	n/a	-999	10	[0, 0, 0]	n/a	FR1	0	R1112M
1309.005	1.628	663994	REC_START	n/a	n/a	n/a	-999	10	[0, 0, 0]	n/a	FR1	0	R1112M
1310.633	9.955	664808	REC_WORD	9.955	n/a	PURSE	4	10	[0, 0, 0]	n/a	FR1	0	R1112M
1320.588	18.428	669785	REC_WORD_VV	18.428	n/a	<>	-999	10	[0, 0, 0]	n/a	FR1	0	R1112M
1339.016	2.877	678998	REC_END	n/a	n/a	n/a	-999	10	[0, 0, 0]	n/a	FR1	0	R1112M
1341.893	0.001	680437	COUNTDOWN_START	n/a	n/a	n/a	-999	11	[0, 0, 0]	n/a	FR1	0	R1112M
1341.894	10.427	680437	TRIAL	n/a	n/a	n/a	-999	11	[0, 0, 0]	n/a	FR1	0	R1112M
1352.321	0.008	685650	COUNTDOWN_END	n/a	n/a	n/a	-999	11	[0, 0, 0]	n/a	FR1	0	R1112M
1352.329	2.567	685654	ORIENT	n/a	n/a	n/a	-999	11	[0, 0, 0]	n/a	FR1	0	R1112M
1354.896	2.417	686938	WORD	n/a	wordpools/wordpool_EN.txt	COW	1	11	[0, 0, 0]	n/a	FR1	0	R1112M
1357.313	2.484	688146	WORD	n/a	wordpools/wordpool_EN.txt	STAR	2	11	[0, 0, 0]	n/a	FR1	0	R1112M
1359.797	2.4	689388	WORD	n/a	wordpools/wordpool_EN.txt	HOUSE	3	11	[0, 0, 0]	n/a	FR1	0	R1112M
1362.197	2.485	690588	WORD	n/a	wordpools/wordpool_EN.txt	DRESS	4	11	[0, 0, 0]	n/a	FR1	0	R1112M
1364.682	2.616	691831	WORD	n/a	wordpools/wordpool_EN.txt	BRIDGE	5	11	[0, 0, 0]	n/a	FR1	0	R1112M
1367.298	2.385	693138	WORD	n/a	wordpools/wordpool_EN.txt	GATE	6	11	[0, 0, 0]	n/a	FR1	0	R1112M
1369.683	2.533	694331	WORD	n/a	wordpools/wordpool_EN.txt	STONE	7	11	[0, 0, 0]	n/a	FR1	0	R1112M
1372.216	2.483	695597	WORD	n/a	wordpools/wordpool_EN.txt	FOX	8	11	[0, 0, 0]	n/a	FR1	0	R1112M
1374.699	2.618	696839	WORD	n/a	wordpools/wordpool_EN.txt	TIE	9	11	[0, 0, 0]	n/a	FR1	0	R1112M
1377.317	2.617	698148	WORD	n/a	wordpools/wordpool_EN.txt	SKY	10	11	[0, 0, 0]	n/a	FR1	0	R1112M
1379.934	2.568	699456	WORD	n/a	wordpools/wordpool_EN.txt	PEA	11	11	[0, 0, 0]	n/a	FR1	0	R1112M
1382.502	1.616	700740	WORD	n/a	wordpools/wordpool_EN.txt	HILL	12	11	[0, 0, 0]	n/a	FR1	0	R1112M
1384.118	0.001	701548	DISTRACT_START	n/a	n/a	n/a	-999	11	[0, 0, 0]	n/a	FR1	0	R1112M
1384.119	0.016	701549	START	n/a	n/a	n/a	-999	11	[-999, -999, -999]	n/a	FR1	0	R1112M
1384.135	9.486	701557	PROB	9.486	n/a	n/a	-999	11	[2, 1, 6]	9	FR1	0	R1112M
1393.621	22.81	706299	PROB	22.81	n/a	n/a	-999	11	[4, 3, 9]	13	FR1	0	R1112M
1416.431	0.01	717704	STOP	n/a	n/a	n/a	-999	11	[-999, -999, -999]	n/a	FR1	0	R1112M
1416.441	1.202	717709	DISTRACT_END	n/a	n/a	n/a	-999	11	[0, 0, 0]	n/a	FR1	0	R1112M
1417.643	5.996	718310	REC_START	n/a	n/a	n/a	-999	11	[0, 0, 0]	n/a	FR1	0	R1112M
1423.639	16.965	721307	REC_WORD_VV	16.965	n/a	<>	-999	11	[0, 0, 0]	n/a	FR1	0	R1112M
1440.604	7.05	729789	REC_WORD_VV	7.05	n/a	<>	-999	11	[0, 0, 0]	n/a	FR1	0	R1112M
1447.654	149.923	733314	REC_END	n/a	n/a	n/a	-999	11	[0, 0, 0]	n/a	FR1	0	R1112M
1597.577	0.0	808271	TRIAL	n/a	n/a	n/a	-999	12	[0, 0, 0]	n/a	FR1	0	R1112M
1597.577	10.428	808271	COUNTDOWN_START	n/a	n/a	n/a	-999	12	[0, 0, 0]	n/a	FR1	0	R1112M
1608.005	0.006	813485	COUNTDOWN_END	n/a	n/a	n/a	-999	12	[0, 0, 0]	n/a	FR1	0	R1112M
1608.011	2.452	813488	ORIENT	n/a	n/a	n/a	-999	12	[0, 0, 0]	n/a	FR1	0	R1112M
1610.463	2.449	814714	WORD	n/a	wordpools/wordpool_EN.txt	WOLF	1	12	[0, 0, 0]	n/a	FR1	0	R1112M
1612.912	2.434	815939	WORD	n/a	wordpools/wordpool_EN.txt	SHEEP	2	12	[0, 0, 0]	n/a	FR1	0	R1112M
1615.346	2.501	817155	WORD	n/a	wordpools/wordpool_EN.txt	RUG	3	12	[0, 0, 0]	n/a	FR1	0	R1112M
1617.847	2.467	818406	WORD	n/a	wordpools/wordpool_EN.txt	SPARK	4	12	[0, 0, 0]	n/a	FR1	0	R1112M
1620.314	2.584	819639	WORD	n/a	wordpools/wordpool_EN.txt	SUN	5	12	[0, 0, 0]	n/a	FR1	0	R1112M
1622.898	2.4	820931	WORD	n/a	wordpools/wordpool_EN.txt	CONE	6	12	[0, 0, 0]	n/a	FR1	0	R1112M
1625.298	2.467	822131	WORD	n/a	wordpools/wordpool_EN.txt	ICE	7	12	[0, 0, 0]	n/a	FR1	0	R1112M
1627.765	2.467	823365	WORD	n/a	wordpools/wordpool_EN.txt	WHALE	8	12	[0, 0, 0]	n/a	FR1	0	R1112M
1630.232	2.584	824598	WORD	n/a	wordpools/wordpool_EN.txt	NAIL	9	12	[0, 0, 0]	n/a	FR1	0	R1112M
1632.816	2.617	825890	WORD	n/a	wordpools/wordpool_EN.txt	CLIFF	10	12	[0, 0, 0]	n/a	FR1	0	R1112M
1635.433	2.601	827198	WORD	n/a	wordpools/wordpool_EN.txt	JEEP	11	12	[0, 0, 0]	n/a	FR1	0	R1112M
1638.034	1.618	828499	WORD	n/a	wordpools/wordpool_EN.txt	CROW	12	12	[0, 0, 0]	n/a	FR1	0	R1112M
1639.652	0.001	829308	DISTRACT_START	n/a	n/a	n/a	-999	12	[0, 0, 0]	n/a	FR1	0	R1112M
1639.653	0.015	829308	START	n/a	n/a	n/a	-999	12	[-999, -999, -999]	n/a	FR1	0	R1112M
1639.668	19.988	829316	PROB	19.988	n/a	n/a	-999	12	[4, 3, 2]	9	FR1	0	R1112M
1659.656	0.016	839309	STOP	n/a	n/a	n/a	-999	12	[-999, -999, -999]	n/a	FR1	0	R1112M
1659.672	1.083	839317	DISTRACT_END	n/a	n/a	n/a	-999	12	[0, 0, 0]	n/a	FR1	0	R1112M
1660.755	3.442	839859	REC_START	n/a	n/a	n/a	-999	12	[0, 0, 0]	n/a	FR1	0	R1112M
1664.197	3.008	841580	REC_WORD	3.008	n/a	JEEP	11	12	[0, 0, 0]	n/a	FR1	0	R1112M
1667.205	1.168	843084	REC_WORD	1.168	n/a	SHEEP	2	12	[0, 0, 0]	n/a	FR1	0	R1112M
1668.373	4.72	843668	REC_WORD	4.72	n/a	COW	-999	12	[0, 0, 0]	n/a	FR1	0	R1112M
1673.093	17.675	846027	REC_WORD	17.675	n/a	CROW	12	12	[0, 0, 0]	n/a	FR1	0	R1112M
1690.768	55.738	854864	REC_END	n/a	n/a	n/a	-999	12	[0, 0, 0]	n/a	FR1	0	R1112M
1746.506	0.0	882732	TRIAL	n/a	n/a	n/a	-999	13	[0, 0, 0]	n/a	FR1	0	R1112M
1746.506	10.428	882732	COUNTDOWN_START	n/a	n/a	n/a	-999	13	[0, 0, 0]	n/a	FR1	0	R1112M
1756.934	0.006	887946	COUNTDOWN_END	n/a	n/a	n/a	-999	13	[0, 0, 0]	n/a	FR1	0	R1112M
1756.94	2.535	887949	ORIENT	n/a	n/a	n/a	-999	13	[0, 0, 0]	n/a	FR1	0	R1112M
1759.475	2.466	889216	WORD	n/a	wordpools/wordpool_EN.txt	WORM	1	13	[0, 0, 0]	n/a	FR1	0	R1112M
1761.941	2.551	890449	WORD	n/a	wordpools/wordpool_EN.txt	EGG	2	13	[0, 0, 0]	n/a	FR1	0	R1112M
1764.492	2.633	891724	WORD	n/a	wordpools/wordpool_EN.txt	HOOK	3	13	[0, 0, 0]	n/a	FR1	0	R1112M
1767.125	2.552	893041	WORD	n/a	wordpools/wordpool_EN.txt	WING	4	13	[0, 0, 0]	n/a	FR1	0	R1112M
1769.677	2.566	894317	WORD	n/a	wordpools/wordpool_EN.txt	FISH	5	13	[0, 0, 0]	n/a	FR1	0	R1112M
1772.243	2.401	895600	WORD	n/a	wordpools/wordpool_EN.txt	STORM	6	13	[0, 0, 0]	n/a	FR1	0	R1112M
1774.644	2.45	896800	WORD	n/a	wordpools/wordpool_EN.txt	SEA	7	13	[0, 0, 0]	n/a	FR1	0	R1112M
1777.094	2.634	898025	WORD	n/a	wordpools/wordpool_EN.txt	WEB	8	13	[0, 0, 0]	n/a	FR1	0	R1112M
1779.728	2.617	899342	WORD	n/a	wordpools/wordpool_EN.txt	SHRIMP	9	13	[0, 0, 0]	n/a	FR1	0	R1112M
1782.345	2.567	900650	WORD	n/a	wordpools/wordpool_EN.txt	SHELL	10	13	[0, 0, 0]	n/a	FR1	0	R1112M
1784.912	2.585	901934	WORD	n/a	wordpools/wordpool_EN.txt	CUBE	11	13	[0, 0, 0]	n/a	FR1	0	R1112M
1787.497	1.616	903226	WORD	n/a	wordpools/wordpool_EN.txt	BOAT	12	13	[0, 0, 0]	n/a	FR1	0	R1112M
1789.113	0.001	904034	DISTRACT_START	n/a	n/a	n/a	-999	13	[0, 0, 0]	n/a	FR1	0	R1112M
1789.114	0.016	904035	START	n/a	n/a	n/a	-999	13	[-999, -999, -999]	n/a	FR1	0	R1112M
1789.13	22.317	904043	PROB	22.317	n/a	n/a	-999	13	[6, 9, 6]	21	FR1	0	R1112M
1811.447	0.003	915200	STOP	n/a	n/a	n/a	-999	13	[-999, -999, -999]	n/a	FR1	0	R1112M
1811.45	1.152	915202	DISTRACT_END	n/a	n/a	n/a	-999	13	[0, 0, 0]	n/a	FR1	0	R1112M
1812.602	30.0	915778	REC_START	n/a	n/a	n/a	-999	13	[0, 0, 0]	n/a	FR1	0	R1112M
1842.602	0.011	930777	REC_WORD_VV	0.011	n/a	<>	-999	13	[0, 0, 0]	n/a	FR1	0	R1112M
1842.613	8.629	930783	REC_END	n/a	n/a	n/a	-999	13	[0, 0, 0]	n/a	FR1	0	R1112M
1851.242	0.0	935097	TRIAL	n/a	n/a	n/a	-999	14	[0, 0, 0]	n/a	FR1	0	R1112M
1851.242	10.428	935097	COUNTDOWN_START	n/a	n/a	n/a	-999	14	[0, 0, 0]	n/a	FR1	0	R1112M
1861.67	0.008	940311	COUNTDOWN_END	n/a	n/a	n/a	-999	14	[0, 0, 0]	n/a	FR1	0	R1112M
1861.678	2.549	940315	ORIENT	n/a	n/a	n/a	-999	14	[0, 0, 0]	n/a	FR1	0	R1112M
1864.227	2.584	941589	WORD	n/a	wordpools/wordpool_EN.txt	GLASS	1	14	[0, 0, 0]	n/a	FR1	0	R1112M
1866.811	2.384	942881	WORD	n/a	wordpools/wordpool_EN.txt	FOG	2	14	[0, 0, 0]	n/a	FR1	0	R1112M
1869.195	2.435	944073	WORD	n/a	wordpools/wordpool_EN.txt	TRAY	3	14	[0, 0, 0]	n/a	FR1	0	R1112M
1871.63	2.399	945290	WORD	n/a	wordpools/wordpool_EN.txt	FUDGE	4	14	[0, 0, 0]	n/a	FR1	0	R1112M
1874.029	2.585	946490	WORD	n/a	wordpools/wordpool_EN.txt	STEAM	5	14	[0, 0, 0]	n/a	FR1	0	R1112M
1876.614	2.55	947782	WORD	n/a	wordpools/wordpool_EN.txt	JET	6	14	[0, 0, 0]	n/a	FR1	0	R1112M
1879.164	2.418	949057	WORD	n/a	wordpools/wordpool_EN.txt	LAND	7	14	[0, 0, 0]	n/a	FR1	0	R1112M
1881.582	2.516	950266	WORD	n/a	wordpools/wordpool_EN.txt	SALT	8	14	[0, 0, 0]	n/a	FR1	0	R1112M
1884.098	2.501	951524	WORD	n/a	wordpools/wordpool_EN.txt	FLAME	9	14	[0, 0, 0]	n/a	FR1	0	R1112M
1886.599	2.533	952774	WORD	n/a	wordpools/wordpool_EN.txt	CLOUD	10	14	[0, 0, 0]	n/a	FR1	0	R1112M
1889.132	2.601	954041	WORD	n/a	wordpools/wordpool_EN.txt	SHIP	11	14	[0, 0, 0]	n/a	FR1	0	R1112M
1891.733	1.617	955341	WORD	n/a	wordpools/wordpool_EN.txt	SPONGE	12	14	[0, 0, 0]	n/a	FR1	0	R1112M
1893.35	0.001	956150	DISTRACT_START	n/a	n/a	n/a	-999	14	[0, 0, 0]	n/a	FR1	0	R1112M
1893.351	0.015	956150	START	n/a	n/a	n/a	-999	14	[-999, -999, -999]	n/a	FR1	0	R1112M
1893.366	12.154	956158	PROB	12.154	n/a	n/a	-999	14	[3, 4, 2]	9	FR1	0	R1112M
1905.52	12.551	962234	PROB	12.551	n/a	n/a	-999	14	[1, 5, 7]	13	FR1	0	R1112M
1918.071	0.017	968509	STOP	n/a	n/a	n/a	-999	14	[-999, -999, -999]	n/a	FR1	0	R1112M
1918.088	1.134	968518	DISTRACT_END	n/a	n/a	n/a	-999	14	[0, 0, 0]	n/a	FR1	0	R1112M
1919.222	3.706	969085	REC_START	n/a	n/a	n/a	-999	14	[0, 0, 0]	n/a	FR1	0	R1112M
1922.928	2.194	970938	REC_WORD	2.194	n/a	FOG	2	14	[0, 0, 0]	n/a	FR1	0	R1112M
1925.122	4.187	972035	REC_WORD	4.187	n/a	SHIP	11	14	[0, 0, 0]	n/a	FR1	0	R1112M
1929.309	19.925	974128	REC_WORD_VV	19.925	n/a	<>	-999	14	[0, 0, 0]	n/a	FR1	0	R1112M
1949.234	8.611	984090	REC_END	n/a	n/a	n/a	-999	14	[0, 0, 0]	n/a	FR1	0	R1112M
1957.845	0.001	988395	COUNTDOWN_START	n/a	n/a	n/a	-999	15	[0, 0, 0]	n/a	FR1	0	R1112M
1957.846	10.427	988396	TRIAL	n/a	n/a	n/a	-999	15	[0, 0, 0]	n/a	FR1	0	R1112M
1968.273	0.008	993609	COUNTDOWN_END	n/a	n/a	n/a	-999	15	[0, 0, 0]	n/a	FR1	0	R1112M
1968.281	2.55	993613	ORIENT	n/a	n/a	n/a	-999	15	[0, 0, 0]	n/a	FR1	0	R1112M
1970.831	2.551	994888	WORD	n/a	wordpools/wordpool_EN.txt	NET	1	15	[0, 0, 0]	n/a	FR1	0	R1112M
1973.382	2.5	996163	WORD	n/a	wordpools/wordpool_EN.txt	MILK	2	15	[0, 0, 0]	n/a	FR1	0	R1112M
1975.882	2.434	997413	WORD	n/a	wordpools/wordpool_EN.txt	CASH	3	15	[0, 0, 0]	n/a	FR1	0	R1112M
1978.316	2.567	998630	WORD	n/a	wordpools/wordpool_EN.txt	GOLD	4	15	[0, 0, 0]	n/a	FR1	0	R1112M
1980.883	2.551	999914	WORD	n/a	wordpools/wordpool_EN.txt	STEAK	5	15	[0, 0, 0]	n/a	FR1	0	R1112M
1983.434	2.567	1001189	WORD	n/a	wordpools/wordpool_EN.txt	GRAPE	6	15	[0, 0, 0]	n/a	FR1	0	R1112M
1986.001	2.468	1002473	WORD	n/a	wordpools/wordpool_EN.txt	CORN	7	15	[0, 0, 0]	n/a	FR1	0	R1112M
1988.469	2.383	1003706	WORD	n/a	wordpools/wordpool_EN.txt	CLOTH	8	15	[0, 0, 0]	n/a	FR1	0	R1112M
1990.852	2.384	1004898	WORD	n/a	wordpools/wordpool_EN.txt	FILM	9	15	[0, 0, 0]	n/a	FR1	0	R1112M
1993.236	2.617	1006090	WORD	n/a	wordpools/wordpool_EN.txt	PIG	10	15	[0, 0, 0]	n/a	FR1	0	R1112M
1995.853	2.4	1007398	WORD	n/a	wordpools/wordpool_EN.txt	BEAK	11	15	[0, 0, 0]	n/a	FR1	0	R1112M
1998.253	1.617	1008598	WORD	n/a	wordpools/wordpool_EN.txt	PEARL	12	15	[0, 0, 0]	n/a	FR1	0	R1112M
1999.87	0.001	1009407	DISTRACT_START	n/a	n/a	n/a	-999	15	[0, 0, 0]	n/a	FR1	0	R1112M
1999.871	0.016	1009407	START	n/a	n/a	n/a	-999	15	[-999, -999, -999]	n/a	FR1	0	R1112M
1999.887	13.386	1009415	PROB	13.386	n/a	n/a	-999	15	[8, 5, 2]	15	FR1	0	R1112M
2013.273	8.91	1016108	PROB	8.91	n/a	n/a	-999	15	[3, 6, 3]	12	FR1	0	R1112M
2022.183	0.008	1020563	STOP	n/a	n/a	n/a	-999	15	[-999, -999, -999]	n/a	FR1	0	R1112M
2022.191	1.101	1020567	DISTRACT_END	n/a	n/a	n/a	-999	15	[0, 0, 0]	n/a	FR1	0	R1112M
2023.292	0.78	1021117	REC_START	n/a	n/a	n/a	-999	15	[0, 0, 0]	n/a	FR1	0	R1112M
2024.072	25.246	1021507	REC_WORD_VV	25.246	n/a	<>	-999	15	[0, 0, 0]	n/a	FR1	0	R1112M
2049.318	3.992	1034129	REC_WORD_VV	3.992	n/a	<>	-999	15	[0, 0, 0]	n/a	FR1	0	R1112M
2053.31	4.538	1036125	REC_END	n/a	n/a	n/a	-999	15	[0, 0, 0]	n/a	FR1	0	R1112M
2057.848	0.0	1038394	TRIAL	n/a	n/a	n/a	-999	16	[0, 0, 0]	n/a	FR1	0	R1112M
2057.848	10.428	1038394	COUNTDOWN_START	n/a	n/a	n/a	-999	16	[0, 0, 0]	n/a	FR1	0	R1112M
2068.276	0.008	1043608	COUNTDOWN_END	n/a	n/a	n/a	-999	16	[0, 0, 0]	n/a	FR1	0	R1112M
2068.284	2.567	1043612	ORIENT	n/a	n/a	n/a	-999	16	[0, 0, 0]	n/a	FR1	0	R1112M
2070.851	2.517	1044895	WORD	n/a	wordpools/wordpool_EN.txt	FARM	1	16	[0, 0, 0]	n/a	FR1	0	R1112M
2073.368	2.467	1046154	WORD	n/a	wordpools/wordpool_EN.txt	LAKE	2	16	[0, 0, 0]	n/a	FR1	0	R1112M
2075.835	2.434	1047387	WORD	n/a	wordpools/wordpool_EN.txt	SNOW	3	16	[0, 0, 0]	n/a	FR1	0	R1112M
2078.269	2.534	1048604	WORD	n/a	wordpools/wordpool_EN.txt	RAKE	4	16	[0, 0, 0]	n/a	FR1	0	R1112M
2080.803	2.533	1049871	WORD	n/a	wordpools/wordpool_EN.txt	CALF	5	16	[0, 0, 0]	n/a	FR1	0	R1112M
2083.336	2.501	1051137	WORD	n/a	wordpools/wordpool_EN.txt	SPRING	6	16	[0, 0, 0]	n/a	FR1	0	R1112M
2085.837	2.467	1052388	WORD	n/a	wordpools/wordpool_EN.txt	GRASS	7	16	[0, 0, 0]	n/a	FR1	0	R1112M
2088.304	2.451	1053621	WORD	n/a	wordpools/wordpool_EN.txt	SKUNK	8	16	[0, 0, 0]	n/a	FR1	0	R1112M
2090.755	2.417	1054847	WORD	n/a	wordpools/wordpool_EN.txt	WOOD	9	16	[0, 0, 0]	n/a	FR1	0	R1112M
2093.172	2.418	1056055	WORD	n/a	wordpools/wordpool_EN.txt	SIGN	10	16	[0, 0, 0]	n/a	FR1	0	R1112M
2095.59	2.383	1057264	WORD	n/a	wordpools/wordpool_EN.txt	ELF	11	16	[0, 0, 0]	n/a	FR1	0	R1112M
2097.973	1.618	1058455	WORD	n/a	wordpools/wordpool_EN.txt	MOTH	12	16	[0, 0, 0]	n/a	FR1	0	R1112M
2099.591	0.0	1059264	DISTRACT_START	n/a	n/a	n/a	-999	16	[0, 0, 0]	n/a	FR1	0	R1112M
2099.591	0.016	1059264	START	n/a	n/a	n/a	-999	16	[-999, -999, -999]	n/a	FR1	0	R1112M
2099.607	19.004	1059272	PROB	19.004	n/a	n/a	-999	16	[4, 7, 4]	15	FR1	0	R1112M
2118.611	26.628	1068774	PROB	26.628	n/a	n/a	-999	16	[7, 6, 5]	18	FR1	0	R1112M
2145.239	0.009	1082087	STOP	n/a	n/a	n/a	-999	16	[-999, -999, -999]	n/a	FR1	0	R1112M
2145.248	1.068	1082092	DISTRACT_END	n/a	n/a	n/a	-999	16	[0, 0, 0]	n/a	FR1	0	R1112M
2146.316	1.416	1082626	REC_START	n/a	n/a	n/a	-999	16	[0, 0, 0]	n/a	FR1	0	R1112M
2147.732	28.596	1083333	REC_WORD_VV	28.596	n/a	<>	-999	16	[0, 0, 0]	n/a	FR1	0	R1112M
2176.328	436.212	1097631	REC_END	n/a	n/a	n/a	-999	16	[0, 0, 0]	n/a	FR1	0	R1112M
2612.54	0.0	1315724	TRIAL	n/a	n/a	n/a	-999	17	[0, 0, 0]	n/a	FR1	0	R1112M
2612.54	10.428	1315724	COUNTDOWN_START	n/a	n/a	n/a	-999	17	[0, 0, 0]	n/a	FR1	0	R1112M
2622.968	0.006	1320938	COUNTDOWN_END	n/a	n/a	n/a	-999	17	[0, 0, 0]	n/a	FR1	0	R1112M
2622.974	2.45	1320941	ORIENT	n/a	n/a	n/a	-999	17	[0, 0, 0]	n/a	FR1	0	R1112M
2625.424	2.534	1322166	WORD	n/a	wordpools/wordpool_EN.txt	RAIN	1	17	[0, 0, 0]	n/a	FR1	0	R1112M
2627.958	2.451	1323433	WORD	n/a	wordpools/wordpool_EN.txt	SKI	2	17	[0, 0, 0]	n/a	FR1	0	R1112M
2630.409	2.517	1324658	WORD	n/a	wordpools/wordpool_EN.txt	DRUM	3	17	[0, 0, 0]	n/a	FR1	0	R1112M
2632.926	2.434	1325917	WORD	n/a	wordpools/wordpool_EN.txt	CAR	4	17	[0, 0, 0]	n/a	FR1	0	R1112M
2635.36	2.383	1327134	WORD	n/a	wordpools/wordpool_EN.txt	CROWN	5	17	[0, 0, 0]	n/a	FR1	0	R1112M
2637.743	2.384	1328325	WORD	n/a	wordpools/wordpool_EN.txt	STAIR	6	17	[0, 0, 0]	n/a	FR1	0	R1112M
2640.127	2.502	1329517	WORD	n/a	wordpools/wordpool_EN.txt	KEY	7	17	[0, 0, 0]	n/a	FR1	0	R1112M
2642.629	2.616	1330768	WORD	n/a	wordpools/wordpool_EN.txt	DOOR	8	17	[0, 0, 0]	n/a	FR1	0	R1112M
2645.245	2.401	1332076	WORD	n/a	wordpools/wordpool_EN.txt	CHIEF	9	17	[0, 0, 0]	n/a	FR1	0	R1112M
2647.646	2.416	1333276	WORD	n/a	wordpools/wordpool_EN.txt	WAVE	10	17	[0, 0, 0]	n/a	FR1	0	R1112M
2650.062	2.602	1334484	WORD	n/a	wordpools/wordpool_EN.txt	TOY	11	17	[0, 0, 0]	n/a	FR1	0	R1112M
2652.664	1.616	1335785	WORD	n/a	wordpools/wordpool_EN.txt	BLOOM	12	17	[0, 0, 0]	n/a	FR1	0	R1112M
2654.28	0.001	1336593	DISTRACT_START	n/a	n/a	n/a	-999	17	[0, 0, 0]	n/a	FR1	0	R1112M
2654.281	0.016	1336594	START	n/a	n/a	n/a	-999	17	[-999, -999, -999]	n/a	FR1	0	R1112M
2654.297	17.936	1336602	PROB	17.936	n/a	n/a	-999	17	[8, 2, 7]	17	FR1	0	R1112M
2672.233	16.774	1345569	PROB	16.774	n/a	n/a	-999	17	[1, 8, 5]	15	FR1	0	R1112M
2689.007	0.013	1353956	STOP	n/a	n/a	n/a	-999	17	[-999, -999, -999]	n/a	FR1	0	R1112M
2689.02	1.035	1353962	DISTRACT_END	n/a	n/a	n/a	-999	17	[0, 0, 0]	n/a	FR1	0	R1112M
2690.055	6.23	1354480	REC_START	n/a	n/a	n/a	-999	17	[0, 0, 0]	n/a	FR1	0	R1112M
2696.285	1.832	1357595	REC_WORD	1.832	n/a	CAR	4	17	[0, 0, 0]	n/a	FR1	0	R1112M
2698.117	8.077	1358510	REC_WORD	8.077	n/a	SKI	2	17	[0, 0, 0]	n/a	FR1	0	R1112M
2706.194	11.837	1362549	REC_WORD	11.837	n/a	CHIEF	9	17	[0, 0, 0]	n/a	FR1	0	R1112M
2718.031	2.035	1368467	REC_WORD_VV	2.035	n/a	<>	-999	17	[0, 0, 0]	n/a	FR1	0	R1112M
2720.066	61.755	1369484	REC_END	n/a	n/a	n/a	-999	17	[0, 0, 0]	n/a	FR1	0	R1112M
2781.821	0.001	1400360	COUNTDOWN_START	n/a	n/a	n/a	-999	18	[0, 0, 0]	n/a	FR1	0	R1112M
2781.822	10.427	1400361	TRIAL	n/a	n/a	n/a	-999	18	[0, 0, 0]	n/a	FR1	0	R1112M
2792.249	0.008	1405574	COUNTDOWN_END	n/a	n/a	n/a	-999	18	[0, 0, 0]	n/a	FR1	0	R1112M
2792.257	2.617	1405578	ORIENT	n/a	n/a	n/a	-999	18	[0, 0, 0]	n/a	FR1	0	R1112M
2794.874	2.585	1406886	WORD	n/a	wordpools/wordpool_EN.txt	BRUSH	1	18	[0, 0, 0]	n/a	FR1	0	R1112M
2797.459	2.549	1408179	WORD	n/a	wordpools/wordpool_EN.txt	MUD	2	18	[0, 0, 0]	n/a	FR1	0	R1112M
2800.008	2.468	1409453	WORD	n/a	wordpools/wordpool_EN.txt	PHONE	3	18	[0, 0, 0]	n/a	FR1	0	R1112M
2802.476	2.433	1410687	WORD	n/a	wordpools/wordpool_EN.txt	CHALK	4	18	[0, 0, 0]	n/a	FR1	0	R1112M
2804.909	2.534	1411903	WORD	n/a	wordpools/wordpool_EN.txt	SMOKE	5	18	[0, 0, 0]	n/a	FR1	0	R1112M
2807.443	2.6	1413170	WORD	n/a	wordpools/wordpool_EN.txt	BATH	6	18	[0, 0, 0]	n/a	FR1	0	R1112M
2810.043	2.519	1414470	WORD	n/a	wordpools/wordpool_EN.txt	FOAM	7	18	[0, 0, 0]	n/a	FR1	0	R1112M
2812.562	2.566	1415730	WORD	n/a	wordpools/wordpool_EN.txt	FROG	8	18	[0, 0, 0]	n/a	FR1	0	R1112M
2815.128	2.6	1417013	WORD	n/a	wordpools/wordpool_EN.txt	STRING	9	18	[0, 0, 0]	n/a	FR1	0	R1112M
2817.728	2.484	1418313	WORD	n/a	wordpools/wordpool_EN.txt	BOARD	10	18	[0, 0, 0]	n/a	FR1	0	R1112M
2820.212	2.418	1419555	WORD	n/a	wordpools/wordpool_EN.txt	PIE	11	18	[0, 0, 0]	n/a	FR1	0	R1112M
2822.63	1.616	1420763	WORD	n/a	wordpools/wordpool_EN.txt	TOOTH	12	18	[0, 0, 0]	n/a	FR1	0	R1112M
2824.246	0.001	1421571	DISTRACT_START	n/a	n/a	n/a	-999	18	[0, 0, 0]	n/a	FR1	0	R1112M
2824.247	0.016	1421572	START	n/a	n/a	n/a	-999	18	[-999, -999, -999]	n/a	FR1	0	R1112M
2824.263	19.92	1421580	PROB	19.92	n/a	n/a	-999	18	[4, 1, 6]	11	FR1	0	R1112M
2844.183	6.792	1431539	PROB	6.792	n/a	n/a	-999	18	[1, 4, 9]	14	FR1	0	R1112M
2850.975	0.01	1434935	STOP	n/a	n/a	n/a	-999	18	[-999, -999, -999]	n/a	FR1	0	R1112M
2850.985	1.051	1434940	DISTRACT_END	n/a	n/a	n/a	-999	18	[0, 0, 0]	n/a	FR1	0	R1112M
2852.036	3.285	1435466	REC_START	n/a	n/a	n/a	-999	18	[0, 0, 0]	n/a	FR1	0	R1112M
2855.321	26.728	1437108	REC_WORD_VV	26.728	n/a	<>	-999	18	[0, 0, 0]	n/a	FR1	0	R1112M
2882.049	6.461	1450471	REC_END	n/a	n/a	n/a	-999	18	[0, 0, 0]	n/a	FR1	0	R1112M
2888.51	0.0	1453702	TRIAL	n/a	n/a	n/a	-999	19	[0, 0, 0]	n/a	FR1	0	R1112M
2888.51	10.428	1453702	COUNTDOWN_START	n/a	n/a	n/a	-999	19	[0, 0, 0]	n/a	FR1	0	R1112M
2898.938	0.006	1458915	COUNTDOWN_END	n/a	n/a	n/a	-999	19	[0, 0, 0]	n/a	FR1	0	R1112M
2898.944	2.417	1458918	ORIENT	n/a	n/a	n/a	-999	19	[0, 0, 0]	n/a	FR1	0	R1112M
2901.361	2.567	1460127	WORD	n/a	wordpools/wordpool_EN.txt	ROOT	1	19	[0, 0, 0]	n/a	FR1	0	R1112M
2903.928	2.367	1461410	WORD	n/a	wordpools/wordpool_EN.txt	TREE	2	19	[0, 0, 0]	n/a	FR1	0	R1112M
2906.295	2.551	1462594	WORD	n/a	wordpools/wordpool_EN.txt	POOL	3	19	[0, 0, 0]	n/a	FR1	0	R1112M
2908.846	2.45	1463869	WORD	n/a	wordpools/wordpool_EN.txt	DART	4	19	[0, 0, 0]	n/a	FR1	0	R1112M
2911.296	2.451	1465094	WORD	n/a	wordpools/wordpool_EN.txt	RICE	5	19	[0, 0, 0]	n/a	FR1	0	R1112M
2913.747	2.5	1466319	WORD	n/a	wordpools/wordpool_EN.txt	LEAF	6	19	[0, 0, 0]	n/a	FR1	0	R1112M
2916.247	2.402	1467569	WORD	n/a	wordpools/wordpool_EN.txt	OAK	7	19	[0, 0, 0]	n/a	FR1	0	R1112M
2918.649	2.382	1468770	WORD	n/a	wordpools/wordpool_EN.txt	STEM	8	19	[0, 0, 0]	n/a	FR1	0	R1112M
2921.031	2.435	1469961	WORD	n/a	wordpools/wordpool_EN.txt	SEED	9	19	[0, 0, 0]	n/a	FR1	0	R1112M
2923.466	2.5	1471179	WORD	n/a	wordpools/wordpool_EN.txt	LAMB	10	19	[0, 0, 0]	n/a	FR1	0	R1112M
2925.966	2.618	1472429	WORD	n/a	wordpools/wordpool_EN.txt	MUG	11	19	[0, 0, 0]	n/a	FR1	0	R1112M
2928.584	1.616	1473737	WORD	n/a	wordpools/wordpool_EN.txt	TEA	12	19	[0, 0, 0]	n/a	FR1	0	R1112M
2930.2	0.001	1474545	DISTRACT_START	n/a	n/a	n/a	-999	19	[0, 0, 0]	n/a	FR1	0	R1112M
2930.201	0.016	1474546	START	n/a	n/a	n/a	-999	19	[-999, -999, -999]	n/a	FR1	0	R1112M
2930.217	18.603	1474554	PROB	18.603	n/a	n/a	-999	19	[7, 4, 2]	13	FR1	0	R1112M
2948.82	6.955	1483855	PROB	6.955	n/a	n/a	-999	19	[1, 9, 6]	16	FR1	0	R1112M
2955.775	0.013	1487332	STOP	n/a	n/a	n/a	-999	19	[-999, -999, -999]	n/a	FR1	0	R1112M
2955.788	1.201	1487339	DISTRACT_END	n/a	n/a	n/a	-999	19	[0, 0, 0]	n/a	FR1	0	R1112M
2956.989	6.795	1487939	REC_START	n/a	n/a	n/a	-999	19	[0, 0, 0]	n/a	FR1	0	R1112M
2963.784	1.305	1491336	REC_WORD	1.305	n/a	TREE	2	19	[0, 0, 0]	n/a	FR1	0	R1112M
2965.089	1.848	1491989	REC_WORD	1.848	n/a	ROOT	1	19	[0, 0, 0]	n/a	FR1	0	R1112M
2966.937	8.159	1492913	REC_WORD	8.159	n/a	POOL	3	19	[0, 0, 0]	n/a	FR1	0	R1112M
2975.096	11.905	1496992	REC_WORD	11.905	n/a	OAK	7	19	[0, 0, 0]	n/a	FR1	0	R1112M
2987.001	5.545	1502944	REC_END	n/a	n/a	n/a	-999	19	[0, 0, 0]	n/a	FR1	0	R1112M
2992.546	0.001	1505717	COUNTDOWN_START	n/a	n/a	n/a	-999	20	[0, 0, 0]	n/a	FR1	0	R1112M
2992.547	10.427	1505717	TRIAL	n/a	n/a	n/a	-999	20	[0, 0, 0]	n/a	FR1	0	R1112M
3002.974	0.007	1510930	COUNTDOWN_END	n/a	n/a	n/a	-999	20	[0, 0, 0]	n/a	FR1	0	R1112M
3002.981	2.417	1510934	ORIENT	n/a	n/a	n/a	-999	20	[0, 0, 0]	n/a	FR1	0	R1112M
3005.398	2.45	1512142	WORD	n/a	wordpools/wordpool_EN.txt	GUARD	1	20	[0, 0, 0]	n/a	FR1	0	R1112M
3007.848	2.551	1513367	WORD	n/a	wordpools/wordpool_EN.txt	FENCE	2	20	[0, 0, 0]	n/a	FR1	0	R1112M
3010.399	2.484	1514643	WORD	n/a	wordpools/wordpool_EN.txt	DOLL	3	20	[0, 0, 0]	n/a	FR1	0	R1112M
3012.883	2.467	1515885	WORD	n/a	wordpools/wordpool_EN.txt	BAT	4	20	[0, 0, 0]	n/a	FR1	0	R1112M
3015.35	2.384	1517118	WORD	n/a	wordpools/wordpool_EN.txt	LEG	5	20	[0, 0, 0]	n/a	FR1	0	R1112M
3017.734	2.45	1518310	WORD	n/a	wordpools/wordpool_EN.txt	HORN	6	20	[0, 0, 0]	n/a	FR1	0	R1112M
3020.184	2.401	1519535	WORD	n/a	wordpools/wordpool_EN.txt	OAR	7	20	[0, 0, 0]	n/a	FR1	0	R1112M
3022.585	2.383	1520735	WORD	n/a	wordpools/wordpool_EN.txt	FOOT	8	20	[0, 0, 0]	n/a	FR1	0	R1112M
3024.968	2.552	1521927	WORD	n/a	wordpools/wordpool_EN.txt	BOY	9	20	[0, 0, 0]	n/a	FR1	0	R1112M
3027.52	2.516	1523203	WORD	n/a	wordpools/wordpool_EN.txt	SOCK	10	20	[0, 0, 0]	n/a	FR1	0	R1112M
3030.036	2.585	1524461	WORD	n/a	wordpools/wordpool_EN.txt	LOCK	11	20	[0, 0, 0]	n/a	FR1	0	R1112M
3032.621	1.616	1525753	WORD	n/a	wordpools/wordpool_EN.txt	PEN	12	20	[0, 0, 0]	n/a	FR1	0	R1112M
3034.237	0.001	1526561	DISTRACT_START	n/a	n/a	n/a	-999	20	[0, 0, 0]	n/a	FR1	0	R1112M
3034.238	0.015	1526561	START	n/a	n/a	n/a	-999	20	[-999, -999, -999]	n/a	FR1	0	R1112M
3034.253	15.103	1526569	PROB	15.103	n/a	n/a	-999	20	[2, 4, 1]	7	FR1	0	R1112M
3049.356	11.651	1534120	PROB	11.651	n/a	n/a	-999	20	[2, 7, 6]	15	FR1	0	R1112M
3061.007	0.018	1539945	STOP	n/a	n/a	n/a	-999	20	[-999, -999, -999]	n/a	FR1	0	R1112M
3061.025	1.151	1539954	DISTRACT_END	n/a	n/a	n/a	-999	20	[0, 0, 0]	n/a	FR1	0	R1112M
3062.176	30.0	1540530	REC_START	n/a	n/a	n/a	-999	20	[0, 0, 0]	n/a	FR1	0	R1112M
3092.176	0.012	1555529	REC_WORD_VV	0.012	n/a	<>	-999	20	[0, 0, 0]	n/a	FR1	0	R1112M
3092.188	8.812	1555535	REC_END	n/a	n/a	n/a	-999	20	[0, 0, 0]	n/a	FR1	0	R1112M
3101.0	0.0	1559941	TRIAL	n/a	n/a	n/a	-999	21	[0, 0, 0]	n/a	FR1	0	R1112M
3101.0	10.428	1559941	COUNTDOWN_START	n/a	n/a	n/a	-999	21	[0, 0, 0]	n/a	FR1	0	R1112M
3111.428	0.007	1565154	COUNTDOWN_END	n/a	n/a	n/a	-999	21	[0, 0, 0]	n/a	FR1	0	R1112M
3111.435	2.551	1565158	ORIENT	n/a	n/a	n/a	-999	21	[0, 0, 0]	n/a	FR1	0	R1112M
3113.986	2.518	1566433	WORD	n/a	wordpools/wordpool_EN.txt	NEST	1	21	[0, 0, 0]	n/a	FR1	0	R1112M
3116.504	2.399	1567692	WORD	n/a	wordpools/wordpool_EN.txt	CAKE	2	21	[0, 0, 0]	n/a	FR1	0	R1112M
3118.903	2.384	1568892	WORD	n/a	wordpools/wordpool_EN.txt	CHEEK	3	21	[0, 0, 0]	n/a	FR1	0	R1112M
3121.287	2.45	1570084	WORD	n/a	wordpools/wordpool_EN.txt	FACE	4	21	[0, 0, 0]	n/a	FR1	0	R1112M
3123.737	2.517	1571308	WORD	n/a	wordpools/wordpool_EN.txt	FORK	5	21	[0, 0, 0]	n/a	FR1	0	R1112M
3126.254	2.618	1572567	WORD	n/a	wordpools/wordpool_EN.txt	CUP	6	21	[0, 0, 0]	n/a	FR1	0	R1112M
3128.872	2.5	1573876	WORD	n/a	wordpools/wordpool_EN.txt	MOOSE	7	21	[0, 0, 0]	n/a	FR1	0	R1112M
3131.372	2.484	1575126	WORD	n/a	wordpools/wordpool_EN.txt	AXE	8	21	[0, 0, 0]	n/a	FR1	0	R1112M
3133.856	2.584	1576368	WORD	n/a	wordpools/wordpool_EN.txt	TOAST	9	21	[0, 0, 0]	n/a	FR1	0	R1112M
3136.44	2.467	1577660	WORD	n/a	wordpools/wordpool_EN.txt	HEN	10	21	[0, 0, 0]	n/a	FR1	0	R1112M
3138.907	2.484	1578893	WORD	n/a	wordpools/wordpool_EN.txt	FRUIT	11	21	[0, 0, 0]	n/a	FR1	0	R1112M
3141.391	1.617	1580135	WORD	n/a	wordpools/wordpool_EN.txt	PALM	12	21	[0, 0, 0]	n/a	FR1	0	R1112M
3143.008	0.001	1580943	DISTRACT_START	n/a	n/a	n/a	-999	21	[0, 0, 0]	n/a	FR1	0	R1112M
3143.009	0.015	1580944	START	n/a	n/a	n/a	-999	21	[-999, -999, -999]	n/a	FR1	0	R1112M
3143.024	9.102	1580951	PROB	9.102	n/a	n/a	-999	21	[1, 3, 3]	7	FR1	0	R1112M
3152.126	17.458	1585502	PROB	17.458	n/a	n/a	-999	21	[5, 2, 9]	16	FR1	0	R1112M
3169.584	0.013	1594231	STOP	n/a	n/a	n/a	-999	21	[-999, -999, -999]	n/a	FR1	0	R1112M
3169.597	1.117	1594237	DISTRACT_END	n/a	n/a	n/a	-999	21	[0, 0, 0]	n/a	FR1	0	R1112M
3170.714	2.851	1594796	REC_START	n/a	n/a	n/a	-999	21	[0, 0, 0]	n/a	FR1	0	R1112M
3173.565	2.769	1596221	REC_WORD	2.769	n/a	PALM	12	21	[0, 0, 0]	n/a	FR1	0	R1112M
3176.334	11.67	1597605	REC_WORD	11.67	n/a	HEN	10	21	[0, 0, 0]	n/a	FR1	0	R1112M
3188.004	12.722	1603440	REC_WORD	12.722	n/a	CAKE	2	21	[0, 0, 0]	n/a	FR1	0	R1112M
3200.726	51.67	1609801	REC_END	n/a	n/a	n/a	-999	21	[0, 0, 0]	n/a	FR1	0	R1112M
3252.396	0.0	1635634	TRIAL	n/a	n/a	n/a	-999	22	[0, 0, 0]	n/a	FR1	0	R1112M
3252.396	0.0	1635634	COUNTDOWN_START	n/a	n/a	n/a	-999	22	[0, 0, 0]	n/a	FR1	0	R1112M
