onset	duration	sample	trial_type	response_time	stim_file	item_name	serialpos	list	test	answer	experiment	session	subject
0.0	0.0	67274	INSTRUCT_START	n/a	n/a	n/a	-999	-999	[0, 0, 0]	n/a	FR1	2	R1216E
0.0	10.865	67274	INSTRUCT_END	n/a	n/a	n/a	-999	-999	[0, 0, 0]	n/a	FR1	2	R1216E
10.865	0.0	78139	SESS_START	n/a	n/a	n/a	-999	-999	[0, 0, 0]	n/a	FR1	2	R1216E
10.865	20.5	78139	MIC_TEST	n/a	n/a	n/a	-999	-999	[0, 0, 0]	n/a	FR1	2	R1216E
31.365	14.711	98638	PRACTICE_TRIAL	n/a	n/a	n/a	-999	-1	[0, 0, 0]	n/a	FR1	2	R1216E
46.076	10.428	113349	COUNTDOWN_START	n/a	n/a	n/a	-999	-1	[0, 0, 0]	n/a	FR1	2	R1216E
56.504	0.007	123776	COUNTDOWN_END	n/a	n/a	n/a	-999	-1	[0, 0, 0]	n/a	FR1	2	R1216E
56.511	1.617	123783	PRACTICE_ORIENT	n/a	n/a	n/a	-999	-1	[0, 0, 0]	n/a	FR1	2	R1216E
58.128	2.184	125400	PRACTICE_ORIENT_OFF	n/a	n/a	n/a	-999	-1	[0, 0, 0]	n/a	FR1	2	R1216E
60.312	1.616	127584	PRACTICE_WORD	n/a	n/a	FLOOD	1	-1	[0, 0, 0]	n/a	FR1	2	R1216E
61.928	1.017	129200	PRACTICE_WORD_OFF	n/a	n/a	FLOOD	-999	-1	[0, 0, 0]	n/a	FR1	2	R1216E
62.945	1.617	130217	PRACTICE_WORD	n/a	n/a	TONGUE	2	-1	[0, 0, 0]	n/a	FR1	2	R1216E
64.562	0.801	131834	PRACTICE_WORD_OFF	n/a	n/a	TONGUE	-999	-1	[0, 0, 0]	n/a	FR1	2	R1216E
65.363	1.616	132635	PRACTICE_WORD	n/a	n/a	COTTON	3	-1	[0, 0, 0]	n/a	FR1	2	R1216E
66.979	0.85	134251	PRACTICE_WORD_OFF	n/a	n/a	COTTON	-999	-1	[0, 0, 0]	n/a	FR1	2	R1216E
67.829	1.618	135101	PRACTICE_WORD	n/a	n/a	RING	4	-1	[0, 0, 0]	n/a	FR1	2	R1216E
69.447	0.85	136719	PRACTICE_WORD_OFF	n/a	n/a	RING	-999	-1	[0, 0, 0]	n/a	FR1	2	R1216E
70.297	1.616	137569	PRACTICE_WORD	n/a	n/a	ATTIC	5	-1	[0, 0, 0]	n/a	FR1	2	R1216E
71.913	0.933	139185	PRACTICE_WORD_OFF	n/a	n/a	ATTIC	-999	-1	[0, 0, 0]	n/a	FR1	2	R1216E
72.846	1.618	140118	PRACTICE_WORD	n/a	n/a	WAGON	6	-1	[0, 0, 0]	n/a	FR1	2	R1216E
74.464	0.967	141736	PRACTICE_WORD_OFF	n/a	n/a	WAGON	-999	-1	[0, 0, 0]	n/a	FR1	2	R1216E
75.431	1.616	142703	PRACTICE_WORD	n/a	n/a	IRON	7	-1	[0, 0, 0]	n/a	FR1	2	R1216E
77.047	0.833	144319	PRACTICE_WORD_OFF	n/a	n/a	IRON	-999	-1	[0, 0, 0]	n/a	FR1	2	R1216E
77.88	1.618	145151	PRACTICE_WORD	n/a	n/a	BEAM	8	-1	[0, 0, 0]	n/a	FR1	2	R1216E
79.498	0.867	146769	PRACTICE_WORD_OFF	n/a	n/a	BEAM	-999	-1	[0, 0, 0]	n/a	FR1	2	R1216E
80.365	1.616	147636	PRACTICE_WORD	n/a	n/a	CAMEL	9	-1	[0, 0, 0]	n/a	FR1	2	R1216E
81.981	1.0	149252	PRACTICE_WORD_OFF	n/a	n/a	CAMEL	-999	-1	[0, 0, 0]	n/a	FR1	2	R1216E
82.981	1.601	150252	PRACTICE_WORD	n/a	n/a	RHINO	10	-1	[0, 0, 0]	n/a	FR1	2	R1216E
84.582	0.984	151853	PRACTICE_WORD_OFF	n/a	n/a	RHINO	-999	-1	[0, 0, 0]	n/a	FR1	2	R1216E
85.566	1.617	152837	PRACTICE_WORD	n/a	n/a	CHEST	11	-1	[0, 0, 0]	n/a	FR1	2	R1216E
87.183	1.017	154454	PRACTICE_WORD_OFF	n/a	n/a	CHEST	-999	-1	[0, 0, 0]	n/a	FR1	2	R1216E
88.2	1.616	155471	PRACTICE_WORD	n/a	n/a	WATCH	12	-1	[0, 0, 0]	n/a	FR1	2	R1216E
89.816	0.0	157087	PRACTICE_WORD_OFF	n/a	n/a	WATCH	-999	-1	[0, 0, 0]	n/a	FR1	2	R1216E
89.816	0.0	157087	DISTRACT_START	n/a	n/a	n/a	-999	-1	[0, 0, 0]	n/a	FR1	2	R1216E
89.816	0.017	157087	START	n/a	n/a	n/a	-999	-1	[-999, -999, -999]	n/a	FR1	2	R1216E
89.833	5.435	157104	PROB	5.435	n/a	n/a	-999	-1	[6, 9, 1]	16	FR1	2	R1216E
95.268	8.351	162539	PROB	8.351	n/a	n/a	-999	-1	[5, 8, 9]	22	FR1	2	R1216E
103.619	8.639	170889	PROB	8.639	n/a	n/a	-999	-1	[8, 9, 6]	23	FR1	2	R1216E
112.258	0.013	179528	STOP	n/a	n/a	n/a	-999	-1	[-999, -999, -999]	n/a	FR1	2	R1216E
112.271	0.599	179541	DISTRACT_END	n/a	n/a	n/a	-999	-1	[0, 0, 0]	n/a	FR1	2	R1216E
112.87	0.518	180140	RETRIEVAL_ORIENT	n/a	n/a	n/a	-999	-1	[0, 0, 0]	n/a	FR1	2	R1216E
113.388	30.011	180658	PRACTICE_REC_START	n/a	n/a	n/a	-999	-1	[0, 0, 0]	n/a	FR1	2	R1216E
143.399	27.015	210668	PRACTICE_REC_END	n/a	n/a	n/a	-999	-1	[0, 0, 0]	n/a	FR1	2	R1216E
170.414	0.5	237682	TRIAL	n/a	n/a	n/a	-999	1	[0, 0, 0]	n/a	FR1	2	R1216E
170.914	10.428	238182	COUNTDOWN_START	n/a	n/a	n/a	-999	1	[0, 0, 0]	n/a	FR1	2	R1216E
181.342	0.007	248609	COUNTDOWN_END	n/a	n/a	n/a	-999	1	[0, 0, 0]	n/a	FR1	2	R1216E
181.349	1.617	248616	ORIENT	n/a	n/a	n/a	-999	1	[0, 0, 0]	n/a	FR1	2	R1216E
182.966	2.267	250233	ORIENT_OFF	n/a	n/a	n/a	-999	1	[0, 0, 0]	n/a	FR1	2	R1216E
185.233	1.616	252500	WORD	n/a	wordpools/wordpool_EN.txt	MAIL	1	1	[0, 0, 0]	n/a	FR1	2	R1216E
186.849	0.984	254116	WORD_OFF	n/a	n/a	MAIL	1	1	[0, 0, 0]	n/a	FR1	2	R1216E
187.833	1.618	255100	WORD	n/a	wordpools/wordpool_EN.txt	SHIP	2	1	[0, 0, 0]	n/a	FR1	2	R1216E
189.451	1.017	256718	WORD_OFF	n/a	n/a	SHIP	2	1	[0, 0, 0]	n/a	FR1	2	R1216E
190.468	1.616	257735	WORD	n/a	wordpools/wordpool_EN.txt	SKUNK	3	1	[0, 0, 0]	n/a	FR1	2	R1216E
192.084	0.917	259351	WORD_OFF	n/a	n/a	SKUNK	3	1	[0, 0, 0]	n/a	FR1	2	R1216E
193.001	1.617	260268	WORD	n/a	wordpools/wordpool_EN.txt	CHEEK	4	1	[0, 0, 0]	n/a	FR1	2	R1216E
194.618	0.834	261885	WORD_OFF	n/a	n/a	CHEEK	4	1	[0, 0, 0]	n/a	FR1	2	R1216E
195.452	1.616	262719	WORD	n/a	wordpools/wordpool_EN.txt	CHIEF	5	1	[0, 0, 0]	n/a	FR1	2	R1216E
197.068	0.9	264335	WORD_OFF	n/a	n/a	CHIEF	5	1	[0, 0, 0]	n/a	FR1	2	R1216E
197.968	1.601	265235	WORD	n/a	wordpools/wordpool_EN.txt	CASH	6	1	[0, 0, 0]	n/a	FR1	2	R1216E
199.569	0.817	266836	WORD_OFF	n/a	n/a	CASH	6	1	[0, 0, 0]	n/a	FR1	2	R1216E
200.386	1.616	267653	WORD	n/a	wordpools/wordpool_EN.txt	TENT	7	1	[0, 0, 0]	n/a	FR1	2	R1216E
202.002	0.85	269269	WORD_OFF	n/a	n/a	TENT	7	1	[0, 0, 0]	n/a	FR1	2	R1216E
202.852	1.601	270119	WORD	n/a	wordpools/wordpool_EN.txt	FISH	8	1	[0, 0, 0]	n/a	FR1	2	R1216E
204.453	0.967	271720	WORD_OFF	n/a	n/a	FISH	8	1	[0, 0, 0]	n/a	FR1	2	R1216E
205.42	1.616	272687	WORD	n/a	wordpools/wordpool_EN.txt	WORLD	9	1	[0, 0, 0]	n/a	FR1	2	R1216E
207.036	0.784	274303	WORD_OFF	n/a	n/a	WORLD	9	1	[0, 0, 0]	n/a	FR1	2	R1216E
207.82	1.618	275086	WORD	n/a	wordpools/wordpool_EN.txt	PARK	10	1	[0, 0, 0]	n/a	FR1	2	R1216E
209.438	1.0	276704	WORD_OFF	n/a	n/a	PARK	10	1	[0, 0, 0]	n/a	FR1	2	R1216E
210.438	1.616	277704	WORD	n/a	wordpools/wordpool_EN.txt	RAIN	11	1	[0, 0, 0]	n/a	FR1	2	R1216E
212.054	0.817	279320	WORD_OFF	n/a	n/a	RAIN	11	1	[0, 0, 0]	n/a	FR1	2	R1216E
212.871	1.618	280137	WORD	n/a	wordpools/wordpool_EN.txt	KEY	12	1	[0, 0, 0]	n/a	FR1	2	R1216E
214.489	0.0	281755	WORD_OFF	n/a	n/a	KEY	12	1	[0, 0, 0]	n/a	FR1	2	R1216E
214.489	0.0	281755	DISTRACT_START	n/a	n/a	n/a	-999	1	[0, 0, 0]	n/a	FR1	2	R1216E
214.489	0.016	281755	START	n/a	n/a	n/a	-999	1	[-999, -999, -999]	n/a	FR1	2	R1216E
214.505	6.051	281771	PROB	6.051	n/a	n/a	-999	1	[5, 3, 8]	16	FR1	2	R1216E
220.556	5.467	287822	PROB	5.467	n/a	n/a	-999	1	[3, 8, 4]	15	FR1	2	R1216E
226.023	4.418	293289	PROB	4.418	n/a	n/a	-999	1	[3, 8, 4]	15	FR1	2	R1216E
230.441	11.641	297707	PROB	11.641	n/a	n/a	-999	1	[7, 4, 3]	14	FR1	2	R1216E
242.082	0.011	309347	STOP	n/a	n/a	n/a	-999	1	[-999, -999, -999]	n/a	FR1	2	R1216E
242.093	0.617	309358	DISTRACT_END	n/a	n/a	n/a	-999	1	[0, 0, 0]	n/a	FR1	2	R1216E
242.71	0.518	309975	RETRIEVAL_ORIENT	n/a	n/a	n/a	-999	1	[0, 0, 0]	n/a	FR1	2	R1216E
243.228	3.494	310493	REC_START	n/a	n/a	n/a	-999	1	[0, 0, 0]	n/a	FR1	2	R1216E
246.722	0.997	313987	REC_WORD	0.997	n/a	SHIP	-999	1	[0, 0, 0]	n/a	FR1	2	R1216E
247.719	1.283	314984	REC_WORD_VV	1.283	n/a	<>	-999	1	[0, 0, 0]	n/a	FR1	2	R1216E
249.002	0.996	316267	REC_WORD	0.996	n/a	CHEEK	-999	1	[0, 0, 0]	n/a	FR1	2	R1216E
249.998	2.558	317263	REC_WORD_VV	2.558	n/a	<>	-999	1	[0, 0, 0]	n/a	FR1	2	R1216E
252.556	20.682	319821	REC_WORD	20.682	n/a	MAIL	-999	1	[0, 0, 0]	n/a	FR1	2	R1216E
273.238	6.079	340502	REC_END	n/a	n/a	n/a	-999	1	[0, 0, 0]	n/a	FR1	2	R1216E
279.317	0.5	346581	TRIAL	n/a	n/a	n/a	-999	2	[0, 0, 0]	n/a	FR1	2	R1216E
279.817	10.428	347081	COUNTDOWN_START	n/a	n/a	n/a	-999	2	[0, 0, 0]	n/a	FR1	2	R1216E
290.245	0.007	357508	COUNTDOWN_END	n/a	n/a	n/a	-999	2	[0, 0, 0]	n/a	FR1	2	R1216E
290.252	1.616	357515	ORIENT	n/a	n/a	n/a	-999	2	[0, 0, 0]	n/a	FR1	2	R1216E
291.868	1.801	359131	ORIENT_OFF	n/a	n/a	n/a	-999	2	[0, 0, 0]	n/a	FR1	2	R1216E
293.669	1.617	360932	WORD	n/a	wordpools/wordpool_EN.txt	DRESS	1	2	[0, 0, 0]	n/a	FR1	2	R1216E
295.286	0.799	362549	WORD_OFF	n/a	n/a	DRESS	1	2	[0, 0, 0]	n/a	FR1	2	R1216E
296.085	1.601	363348	WORD	n/a	wordpools/wordpool_EN.txt	JET	2	2	[0, 0, 0]	n/a	FR1	2	R1216E
297.686	0.834	364949	WORD_OFF	n/a	n/a	JET	2	2	[0, 0, 0]	n/a	FR1	2	R1216E
298.52	1.617	365783	WORD	n/a	wordpools/wordpool_EN.txt	BEAK	3	2	[0, 0, 0]	n/a	FR1	2	R1216E
300.137	1.0	367400	WORD_OFF	n/a	n/a	BEAK	3	2	[0, 0, 0]	n/a	FR1	2	R1216E
301.137	1.617	368400	WORD	n/a	wordpools/wordpool_EN.txt	SMOKE	4	2	[0, 0, 0]	n/a	FR1	2	R1216E
302.754	0.784	370017	WORD_OFF	n/a	n/a	SMOKE	4	2	[0, 0, 0]	n/a	FR1	2	R1216E
303.538	1.616	370801	WORD	n/a	wordpools/wordpool_EN.txt	RICE	5	2	[0, 0, 0]	n/a	FR1	2	R1216E
305.154	0.883	372417	WORD_OFF	n/a	n/a	RICE	5	2	[0, 0, 0]	n/a	FR1	2	R1216E
306.037	1.618	373300	WORD	n/a	wordpools/wordpool_EN.txt	BATH	6	2	[0, 0, 0]	n/a	FR1	2	R1216E
307.655	0.867	374918	WORD_OFF	n/a	n/a	BATH	6	2	[0, 0, 0]	n/a	FR1	2	R1216E
308.522	1.617	375785	WORD	n/a	wordpools/wordpool_EN.txt	FOG	7	2	[0, 0, 0]	n/a	FR1	2	R1216E
310.139	1.0	377402	WORD_OFF	n/a	n/a	FOG	7	2	[0, 0, 0]	n/a	FR1	2	R1216E
311.139	1.617	378402	WORD	n/a	wordpools/wordpool_EN.txt	BOMB	8	2	[0, 0, 0]	n/a	FR1	2	R1216E
312.756	0.866	380018	WORD_OFF	n/a	n/a	BOMB	8	2	[0, 0, 0]	n/a	FR1	2	R1216E
313.622	1.618	380884	WORD	n/a	wordpools/wordpool_EN.txt	GRASS	9	2	[0, 0, 0]	n/a	FR1	2	R1216E
315.24	0.799	382502	WORD_OFF	n/a	n/a	GRASS	9	2	[0, 0, 0]	n/a	FR1	2	R1216E
316.039	1.618	383301	WORD	n/a	wordpools/wordpool_EN.txt	BOX	10	2	[0, 0, 0]	n/a	FR1	2	R1216E
317.657	0.916	384919	WORD_OFF	n/a	n/a	BOX	10	2	[0, 0, 0]	n/a	FR1	2	R1216E
318.573	1.617	385835	WORD	n/a	wordpools/wordpool_EN.txt	WAVE	11	2	[0, 0, 0]	n/a	FR1	2	R1216E
320.19	0.8	387452	WORD_OFF	n/a	n/a	WAVE	11	2	[0, 0, 0]	n/a	FR1	2	R1216E
320.99	1.617	388252	WORD	n/a	wordpools/wordpool_EN.txt	TEA	12	2	[0, 0, 0]	n/a	FR1	2	R1216E
322.607	0.0	389869	DISTRACT_START	n/a	n/a	n/a	-999	2	[0, 0, 0]	n/a	FR1	2	R1216E
322.607	0.001	389869	WORD_OFF	n/a	n/a	TEA	12	2	[0, 0, 0]	n/a	FR1	2	R1216E
322.608	0.016	389870	START	n/a	n/a	n/a	-999	2	[-999, -999, -999]	n/a	FR1	2	R1216E
322.624	5.618	389886	PROB	5.618	n/a	n/a	-999	2	[1, 5, 1]	7	FR1	2	R1216E
328.242	4.467	395504	PROB	4.467	n/a	n/a	-999	2	[5, 8, 7]	20	FR1	2	R1216E
332.709	3.751	399971	PROB	3.751	n/a	n/a	-999	2	[6, 4, 3]	13	FR1	2	R1216E
336.46	5.201	403722	PROB	5.201	n/a	n/a	-999	2	[3, 9, 8]	20	FR1	2	R1216E
341.661	8.741	408922	PROB	8.741	n/a	n/a	-999	2	[4, 5, 6]	15	FR1	2	R1216E
350.402	0.01	417663	STOP	n/a	n/a	n/a	-999	2	[-999, -999, -999]	n/a	FR1	2	R1216E
350.412	0.583	417673	DISTRACT_END	n/a	n/a	n/a	-999	2	[0, 0, 0]	n/a	FR1	2	R1216E
350.995	0.518	418256	RETRIEVAL_ORIENT	n/a	n/a	n/a	-999	2	[0, 0, 0]	n/a	FR1	2	R1216E
351.513	1.902	418774	REC_START	n/a	n/a	n/a	-999	2	[0, 0, 0]	n/a	FR1	2	R1216E
353.415	1.0	420676	REC_WORD	1.0	n/a	WAVE	-999	2	[0, 0, 0]	n/a	FR1	2	R1216E
354.415	5.315	421676	REC_WORD_VV	5.315	n/a	<>	-999	2	[0, 0, 0]	n/a	FR1	2	R1216E
359.73	1.0	426991	REC_WORD	1.0	n/a	DRESS	-999	2	[0, 0, 0]	n/a	FR1	2	R1216E
360.73	20.793	427991	REC_WORD_VV	20.793	n/a	<>	-999	2	[0, 0, 0]	n/a	FR1	2	R1216E
381.523	5.696	448783	REC_END	n/a	n/a	n/a	-999	2	[0, 0, 0]	n/a	FR1	2	R1216E
387.219	0.5	454479	TRIAL	n/a	n/a	n/a	-999	3	[0, 0, 0]	n/a	FR1	2	R1216E
387.719	10.428	454979	COUNTDOWN_START	n/a	n/a	n/a	-999	3	[0, 0, 0]	n/a	FR1	2	R1216E
398.147	0.007	465406	COUNTDOWN_END	n/a	n/a	n/a	-999	3	[0, 0, 0]	n/a	FR1	2	R1216E
398.154	1.617	465413	ORIENT	n/a	n/a	n/a	-999	3	[0, 0, 0]	n/a	FR1	2	R1216E
399.771	2.016	467030	ORIENT_OFF	n/a	n/a	n/a	-999	3	[0, 0, 0]	n/a	FR1	2	R1216E
401.787	1.618	469046	WORD	n/a	wordpools/wordpool_EN.txt	TEETH	1	3	[0, 0, 0]	n/a	FR1	2	R1216E
403.405	0.783	470664	WORD_OFF	n/a	n/a	TEETH	1	3	[0, 0, 0]	n/a	FR1	2	R1216E
404.188	1.616	471447	WORD	n/a	wordpools/wordpool_EN.txt	HAWK	2	3	[0, 0, 0]	n/a	FR1	2	R1216E
405.804	0.884	473063	WORD_OFF	n/a	n/a	HAWK	2	3	[0, 0, 0]	n/a	FR1	2	R1216E
406.688	1.601	473947	WORD	n/a	wordpools/wordpool_EN.txt	CLIFF	3	3	[0, 0, 0]	n/a	FR1	2	R1216E
408.289	0.934	475548	WORD_OFF	n/a	n/a	CLIFF	3	3	[0, 0, 0]	n/a	FR1	2	R1216E
409.223	1.616	476482	WORD	n/a	wordpools/wordpool_EN.txt	ANT	4	3	[0, 0, 0]	n/a	FR1	2	R1216E
410.839	0.884	478098	WORD_OFF	n/a	n/a	ANT	4	3	[0, 0, 0]	n/a	FR1	2	R1216E
411.723	1.617	478982	WORD	n/a	wordpools/wordpool_EN.txt	HOOF	5	3	[0, 0, 0]	n/a	FR1	2	R1216E
413.34	0.883	480599	WORD_OFF	n/a	n/a	HOOF	5	3	[0, 0, 0]	n/a	FR1	2	R1216E
414.223	1.616	481482	WORD	n/a	wordpools/wordpool_EN.txt	HOLE	6	3	[0, 0, 0]	n/a	FR1	2	R1216E
415.839	0.835	483097	WORD_OFF	n/a	n/a	HOLE	6	3	[0, 0, 0]	n/a	FR1	2	R1216E
416.674	1.617	483932	WORD	n/a	wordpools/wordpool_EN.txt	BRICK	7	3	[0, 0, 0]	n/a	FR1	2	R1216E
418.291	0.816	485549	WORD_OFF	n/a	n/a	BRICK	7	3	[0, 0, 0]	n/a	FR1	2	R1216E
419.107	1.618	486365	WORD	n/a	wordpools/wordpool_EN.txt	MOON	8	3	[0, 0, 0]	n/a	FR1	2	R1216E
420.725	0.983	487983	WORD_OFF	n/a	n/a	MOON	8	3	[0, 0, 0]	n/a	FR1	2	R1216E
421.708	1.617	488966	WORD	n/a	wordpools/wordpool_EN.txt	GATE	9	3	[0, 0, 0]	n/a	FR1	2	R1216E
423.325	0.983	490583	WORD_OFF	n/a	n/a	GATE	9	3	[0, 0, 0]	n/a	FR1	2	R1216E
424.308	1.617	491566	WORD	n/a	wordpools/wordpool_EN.txt	SOUP	10	3	[0, 0, 0]	n/a	FR1	2	R1216E
425.925	0.883	493183	WORD_OFF	n/a	n/a	SOUP	10	3	[0, 0, 0]	n/a	FR1	2	R1216E
426.808	1.618	494066	WORD	n/a	wordpools/wordpool_EN.txt	SPARK	11	3	[0, 0, 0]	n/a	FR1	2	R1216E
428.426	0.817	495684	WORD_OFF	n/a	n/a	SPARK	11	3	[0, 0, 0]	n/a	FR1	2	R1216E
429.243	1.616	496501	WORD	n/a	wordpools/wordpool_EN.txt	RAT	12	3	[0, 0, 0]	n/a	FR1	2	R1216E
430.859	0.0	498117	WORD_OFF	n/a	n/a	RAT	12	3	[0, 0, 0]	n/a	FR1	2	R1216E
430.859	0.0	498117	DISTRACT_START	n/a	n/a	n/a	-999	3	[0, 0, 0]	n/a	FR1	2	R1216E
430.859	0.016	498117	START	n/a	n/a	n/a	-999	3	[-999, -999, -999]	n/a	FR1	2	R1216E
430.875	6.035	498133	PROB	6.035	n/a	n/a	-999	3	[3, 2, 5]	10	FR1	2	R1216E
436.91	7.285	504168	PROB	7.285	n/a	n/a	-999	3	[7, 7, 4]	18	FR1	2	R1216E
444.195	4.018	511452	PROB	4.018	n/a	n/a	-999	3	[6, 4, 9]	19	FR1	2	R1216E
448.213	7.285	515470	PROB	7.285	n/a	n/a	-999	3	[9, 2, 5]	16	FR1	2	R1216E
455.498	0.016	522755	STOP	n/a	n/a	n/a	-999	3	[-999, -999, -999]	n/a	FR1	2	R1216E
455.514	0.667	522771	DISTRACT_END	n/a	n/a	n/a	-999	3	[0, 0, 0]	n/a	FR1	2	R1216E
456.181	0.517	523438	RETRIEVAL_ORIENT	n/a	n/a	n/a	-999	3	[0, 0, 0]	n/a	FR1	2	R1216E
456.698	0.94	523955	REC_START	n/a	n/a	n/a	-999	3	[0, 0, 0]	n/a	FR1	2	R1216E
457.638	1.0	524895	REC_WORD	1.0	n/a	TEETH	-999	3	[0, 0, 0]	n/a	FR1	2	R1216E
458.638	1.285	525895	REC_WORD_VV	1.285	n/a	<>	-999	3	[0, 0, 0]	n/a	FR1	2	R1216E
459.923	1.0	527180	REC_WORD	1.0	n/a	RAT	-999	3	[0, 0, 0]	n/a	FR1	2	R1216E
460.923	5.145	528180	REC_WORD_VV	5.145	n/a	<>	-999	3	[0, 0, 0]	n/a	FR1	2	R1216E
466.068	2.487	533325	REC_WORD	2.487	n/a	HAWK	-999	3	[0, 0, 0]	n/a	FR1	2	R1216E
468.555	2.139	535811	REC_WORD	2.139	n/a	HOLE	-999	3	[0, 0, 0]	n/a	FR1	2	R1216E
470.694	16.014	537950	REC_WORD	16.014	n/a	BRICK	-999	3	[0, 0, 0]	n/a	FR1	2	R1216E
486.708	8.262	553964	REC_END	n/a	n/a	n/a	-999	3	[0, 0, 0]	n/a	FR1	2	R1216E
494.97	0.5	562225	TRIAL	n/a	n/a	n/a	-999	4	[0, 0, 0]	n/a	FR1	2	R1216E
495.47	10.428	562725	COUNTDOWN_START	n/a	n/a	n/a	-999	4	[0, 0, 0]	n/a	FR1	2	R1216E
505.898	0.007	573153	COUNTDOWN_END	n/a	n/a	n/a	-999	4	[0, 0, 0]	n/a	FR1	2	R1216E
505.905	1.601	573160	ORIENT	n/a	n/a	n/a	-999	4	[0, 0, 0]	n/a	FR1	2	R1216E
507.506	2.101	574761	ORIENT_OFF	n/a	n/a	n/a	-999	4	[0, 0, 0]	n/a	FR1	2	R1216E
509.607	1.617	576862	WORD	n/a	wordpools/wordpool_EN.txt	SHELL	1	4	[0, 0, 0]	n/a	FR1	2	R1216E
511.224	1.017	578479	WORD_OFF	n/a	n/a	SHELL	1	4	[0, 0, 0]	n/a	FR1	2	R1216E
512.241	1.616	579496	WORD	n/a	wordpools/wordpool_EN.txt	BREAD	2	4	[0, 0, 0]	n/a	FR1	2	R1216E
513.857	0.834	581112	WORD_OFF	n/a	n/a	BREAD	2	4	[0, 0, 0]	n/a	FR1	2	R1216E
514.691	1.617	581946	WORD	n/a	wordpools/wordpool_EN.txt	MOUTH	3	4	[0, 0, 0]	n/a	FR1	2	R1216E
516.308	0.9	583563	WORD_OFF	n/a	n/a	MOUTH	3	4	[0, 0, 0]	n/a	FR1	2	R1216E
517.208	1.616	584463	WORD	n/a	wordpools/wordpool_EN.txt	PIG	4	4	[0, 0, 0]	n/a	FR1	2	R1216E
518.824	0.951	586079	WORD_OFF	n/a	n/a	PIG	4	4	[0, 0, 0]	n/a	FR1	2	R1216E
519.775	1.617	587029	WORD	n/a	wordpools/wordpool_EN.txt	BEACH	5	4	[0, 0, 0]	n/a	FR1	2	R1216E
521.392	0.85	588646	WORD_OFF	n/a	n/a	BEACH	5	4	[0, 0, 0]	n/a	FR1	2	R1216E
522.242	1.616	589496	WORD	n/a	wordpools/wordpool_EN.txt	SNAIL	6	4	[0, 0, 0]	n/a	FR1	2	R1216E
523.858	0.95	591112	WORD_OFF	n/a	n/a	SNAIL	6	4	[0, 0, 0]	n/a	FR1	2	R1216E
524.808	1.602	592062	WORD	n/a	wordpools/wordpool_EN.txt	CAR	7	4	[0, 0, 0]	n/a	FR1	2	R1216E
526.41	0.9	593664	WORD_OFF	n/a	n/a	CAR	7	4	[0, 0, 0]	n/a	FR1	2	R1216E
527.31	1.616	594564	WORD	n/a	wordpools/wordpool_EN.txt	FROG	8	4	[0, 0, 0]	n/a	FR1	2	R1216E
528.926	0.917	596180	WORD_OFF	n/a	n/a	FROG	8	4	[0, 0, 0]	n/a	FR1	2	R1216E
529.843	1.618	597097	WORD	n/a	wordpools/wordpool_EN.txt	STAR	9	4	[0, 0, 0]	n/a	FR1	2	R1216E
531.461	0.967	598715	WORD_OFF	n/a	n/a	STAR	9	4	[0, 0, 0]	n/a	FR1	2	R1216E
532.428	1.615	599682	WORD	n/a	wordpools/wordpool_EN.txt	MAP	10	4	[0, 0, 0]	n/a	FR1	2	R1216E
534.043	0.817	601297	WORD_OFF	n/a	n/a	MAP	10	4	[0, 0, 0]	n/a	FR1	2	R1216E
534.86	1.618	602114	WORD	n/a	wordpools/wordpool_EN.txt	COIN	11	4	[0, 0, 0]	n/a	FR1	2	R1216E
536.478	0.9	603732	WORD_OFF	n/a	n/a	COIN	11	4	[0, 0, 0]	n/a	FR1	2	R1216E
537.378	1.616	604632	WORD	n/a	wordpools/wordpool_EN.txt	HAND	12	4	[0, 0, 0]	n/a	FR1	2	R1216E
538.994	0.0	606248	WORD_OFF	n/a	n/a	HAND	12	4	[0, 0, 0]	n/a	FR1	2	R1216E
538.994	0.001	606248	DISTRACT_START	n/a	n/a	n/a	-999	4	[0, 0, 0]	n/a	FR1	2	R1216E
538.995	0.016	606249	START	n/a	n/a	n/a	-999	4	[-999, -999, -999]	n/a	FR1	2	R1216E
539.011	4.934	606265	PROB	4.934	n/a	n/a	-999	4	[9, 8, 2]	19	FR1	2	R1216E
543.945	5.452	611199	PROB	5.452	n/a	n/a	-999	4	[7, 4, 2]	13	FR1	2	R1216E
549.397	8.534	616650	PROB	8.534	n/a	n/a	-999	4	[9, 9, 9]	27	FR1	2	R1216E
557.931	11.911	625184	PROB	11.911	n/a	n/a	-999	4	[4, 7, 5]	16	FR1	2	R1216E
569.842	0.008	637095	STOP	n/a	n/a	n/a	-999	4	[-999, -999, -999]	n/a	FR1	2	R1216E
569.85	0.601	637103	DISTRACT_END	n/a	n/a	n/a	-999	4	[0, 0, 0]	n/a	FR1	2	R1216E
570.451	0.517	637704	RETRIEVAL_ORIENT	n/a	n/a	n/a	-999	4	[0, 0, 0]	n/a	FR1	2	R1216E
570.968	2.361	638221	REC_START	n/a	n/a	n/a	-999	4	[0, 0, 0]	n/a	FR1	2	R1216E
573.329	1.0	640581	REC_WORD	1.0	n/a	MOUTH	-999	4	[0, 0, 0]	n/a	FR1	2	R1216E
574.329	2.533	641581	REC_WORD_VV	2.533	n/a	<>	-999	4	[0, 0, 0]	n/a	FR1	2	R1216E
576.862	1.0	644114	REC_WORD	1.0	n/a	BEACH	-999	4	[0, 0, 0]	n/a	FR1	2	R1216E
577.862	4.349	645114	REC_WORD_VV	4.349	n/a	<>	-999	4	[0, 0, 0]	n/a	FR1	2	R1216E
582.211	18.767	649463	REC_WORD	18.767	n/a	SHELL	-999	4	[0, 0, 0]	n/a	FR1	2	R1216E
600.978	5.463	668229	REC_END	n/a	n/a	n/a	-999	4	[0, 0, 0]	n/a	FR1	2	R1216E
606.441	0.5	673692	TRIAL	n/a	n/a	n/a	-999	5	[0, 0, 0]	n/a	FR1	2	R1216E
606.941	10.428	674192	COUNTDOWN_START	n/a	n/a	n/a	-999	5	[0, 0, 0]	n/a	FR1	2	R1216E
617.369	0.007	684620	COUNTDOWN_END	n/a	n/a	n/a	-999	5	[0, 0, 0]	n/a	FR1	2	R1216E
617.376	1.616	684627	ORIENT	n/a	n/a	n/a	-999	5	[0, 0, 0]	n/a	FR1	2	R1216E
618.992	2.083	686243	ORIENT_OFF	n/a	n/a	n/a	-999	5	[0, 0, 0]	n/a	FR1	2	R1216E
621.075	1.618	688326	WORD	n/a	wordpools/wordpool_EN.txt	CROW	1	5	[0, 0, 0]	n/a	FR1	2	R1216E
622.693	0.884	689944	WORD_OFF	n/a	n/a	CROW	1	5	[0, 0, 0]	n/a	FR1	2	R1216E
623.577	1.617	690828	WORD	n/a	wordpools/wordpool_EN.txt	DOLL	2	5	[0, 0, 0]	n/a	FR1	2	R1216E
625.194	0.882	692444	WORD_OFF	n/a	n/a	DOLL	2	5	[0, 0, 0]	n/a	FR1	2	R1216E
626.076	1.618	693326	WORD	n/a	wordpools/wordpool_EN.txt	BOOT	3	5	[0, 0, 0]	n/a	FR1	2	R1216E
627.694	0.934	694944	WORD_OFF	n/a	n/a	BOOT	3	5	[0, 0, 0]	n/a	FR1	2	R1216E
628.628	1.617	695878	WORD	n/a	wordpools/wordpool_EN.txt	GOAT	4	5	[0, 0, 0]	n/a	FR1	2	R1216E
630.245	0.782	697495	WORD_OFF	n/a	n/a	GOAT	4	5	[0, 0, 0]	n/a	FR1	2	R1216E
631.027	1.618	698277	WORD	n/a	wordpools/wordpool_EN.txt	FAN	5	5	[0, 0, 0]	n/a	FR1	2	R1216E
632.645	0.817	699895	WORD_OFF	n/a	n/a	FAN	5	5	[0, 0, 0]	n/a	FR1	2	R1216E
633.462	1.616	700712	WORD	n/a	wordpools/wordpool_EN.txt	LIP	6	5	[0, 0, 0]	n/a	FR1	2	R1216E
635.078	0.95	702328	WORD_OFF	n/a	n/a	LIP	6	5	[0, 0, 0]	n/a	FR1	2	R1216E
636.028	1.601	703278	WORD	n/a	wordpools/wordpool_EN.txt	SPEAR	7	5	[0, 0, 0]	n/a	FR1	2	R1216E
637.629	0.834	704879	WORD_OFF	n/a	n/a	SPEAR	7	5	[0, 0, 0]	n/a	FR1	2	R1216E
638.463	1.616	705713	WORD	n/a	wordpools/wordpool_EN.txt	FLUTE	8	5	[0, 0, 0]	n/a	FR1	2	R1216E
640.079	0.816	707329	WORD_OFF	n/a	n/a	FLUTE	8	5	[0, 0, 0]	n/a	FR1	2	R1216E
640.895	1.601	708145	WORD	n/a	wordpools/wordpool_EN.txt	BAT	9	5	[0, 0, 0]	n/a	FR1	2	R1216E
642.496	0.784	709746	WORD_OFF	n/a	n/a	BAT	9	5	[0, 0, 0]	n/a	FR1	2	R1216E
643.28	1.616	710530	WORD	n/a	wordpools/wordpool_EN.txt	TOAD	10	5	[0, 0, 0]	n/a	FR1	2	R1216E
644.896	0.868	712146	WORD_OFF	n/a	n/a	TOAD	10	5	[0, 0, 0]	n/a	FR1	2	R1216E
645.764	1.617	713014	WORD	n/a	wordpools/wordpool_EN.txt	FORK	11	5	[0, 0, 0]	n/a	FR1	2	R1216E
647.381	0.867	714631	WORD_OFF	n/a	n/a	FORK	11	5	[0, 0, 0]	n/a	FR1	2	R1216E
648.248	1.616	715498	WORD	n/a	wordpools/wordpool_EN.txt	LAMB	12	5	[0, 0, 0]	n/a	FR1	2	R1216E
649.864	0.0	717113	WORD_OFF	n/a	n/a	LAMB	12	5	[0, 0, 0]	n/a	FR1	2	R1216E
649.864	0.0	717113	DISTRACT_START	n/a	n/a	n/a	-999	5	[0, 0, 0]	n/a	FR1	2	R1216E
649.864	0.016	717113	START	n/a	n/a	n/a	-999	5	[-999, -999, -999]	n/a	FR1	2	R1216E
649.88	6.603	717129	PROB	6.603	n/a	n/a	-999	5	[2, 8, 7]	17	FR1	2	R1216E
656.483	7.034	723732	PROB	7.034	n/a	n/a	-999	5	[4, 4, 1]	9	FR1	2	R1216E
663.517	4.951	730766	PROB	4.951	n/a	n/a	-999	5	[3, 6, 7]	16	FR1	2	R1216E
668.468	8.505	735717	PROB	8.505	n/a	n/a	-999	5	[8, 5, 8]	21	FR1	2	R1216E
676.973	0.012	744221	STOP	n/a	n/a	n/a	-999	5	[-999, -999, -999]	n/a	FR1	2	R1216E
676.985	0.685	744233	DISTRACT_END	n/a	n/a	n/a	-999	5	[0, 0, 0]	n/a	FR1	2	R1216E
677.67	0.517	744918	RETRIEVAL_ORIENT	n/a	n/a	n/a	-999	5	[0, 0, 0]	n/a	FR1	2	R1216E
678.187	1.683	745435	REC_START	n/a	n/a	n/a	-999	5	[0, 0, 0]	n/a	FR1	2	R1216E
679.87	1.0	747118	REC_WORD	1.0	n/a	LAMB	-999	5	[0, 0, 0]	n/a	FR1	2	R1216E
680.87	0.465	748118	REC_WORD_VV	0.465	n/a	<>	-999	5	[0, 0, 0]	n/a	FR1	2	R1216E
681.335	1.0	748583	REC_WORD	1.0	n/a	GOAT	-999	5	[0, 0, 0]	n/a	FR1	2	R1216E
682.335	1.73	749583	REC_WORD_VV	1.73	n/a	<>	-999	5	[0, 0, 0]	n/a	FR1	2	R1216E
684.065	5.075	751313	REC_WORD	5.075	n/a	LIP	-999	5	[0, 0, 0]	n/a	FR1	2	R1216E
689.14	19.058	756388	REC_WORD	19.058	n/a	TOAD	-999	5	[0, 0, 0]	n/a	FR1	2	R1216E
708.198	5.428	775445	REC_END	n/a	n/a	n/a	-999	5	[0, 0, 0]	n/a	FR1	2	R1216E
713.626	0.5	780873	TRIAL	n/a	n/a	n/a	-999	6	[0, 0, 0]	n/a	FR1	2	R1216E
714.126	10.428	781373	COUNTDOWN_START	n/a	n/a	n/a	-999	6	[0, 0, 0]	n/a	FR1	2	R1216E
724.554	0.007	791801	COUNTDOWN_END	n/a	n/a	n/a	-999	6	[0, 0, 0]	n/a	FR1	2	R1216E
724.561	1.617	791808	ORIENT	n/a	n/a	n/a	-999	6	[0, 0, 0]	n/a	FR1	2	R1216E
726.178	2.184	793425	ORIENT_OFF	n/a	n/a	n/a	-999	6	[0, 0, 0]	n/a	FR1	2	R1216E
728.362	1.616	795608	WORD	n/a	wordpools/wordpool_EN.txt	FLAG	1	6	[0, 0, 0]	n/a	FR1	2	R1216E
729.978	0.784	797224	WORD_OFF	n/a	n/a	FLAG	1	6	[0, 0, 0]	n/a	FR1	2	R1216E
730.762	1.617	798008	WORD	n/a	wordpools/wordpool_EN.txt	SQUARE	2	6	[0, 0, 0]	n/a	FR1	2	R1216E
732.379	0.917	799625	WORD_OFF	n/a	n/a	SQUARE	2	6	[0, 0, 0]	n/a	FR1	2	R1216E
733.296	1.616	800542	WORD	n/a	wordpools/wordpool_EN.txt	TAIL	3	6	[0, 0, 0]	n/a	FR1	2	R1216E
734.912	0.983	802158	WORD_OFF	n/a	n/a	TAIL	3	6	[0, 0, 0]	n/a	FR1	2	R1216E
735.895	1.601	803141	WORD	n/a	wordpools/wordpool_EN.txt	FLOOR	4	6	[0, 0, 0]	n/a	FR1	2	R1216E
737.496	0.968	804742	WORD_OFF	n/a	n/a	FLOOR	4	6	[0, 0, 0]	n/a	FR1	2	R1216E
738.464	1.616	805710	WORD	n/a	wordpools/wordpool_EN.txt	JUDGE	5	6	[0, 0, 0]	n/a	FR1	2	R1216E
740.08	0.933	807326	WORD_OFF	n/a	n/a	JUDGE	5	6	[0, 0, 0]	n/a	FR1	2	R1216E
741.013	1.618	808259	WORD	n/a	wordpools/wordpool_EN.txt	CLAY	6	6	[0, 0, 0]	n/a	FR1	2	R1216E
742.631	0.866	809877	WORD_OFF	n/a	n/a	CLAY	6	6	[0, 0, 0]	n/a	FR1	2	R1216E
743.497	1.618	810743	WORD	n/a	wordpools/wordpool_EN.txt	TRUCK	7	6	[0, 0, 0]	n/a	FR1	2	R1216E
745.115	0.949	812361	WORD_OFF	n/a	n/a	TRUCK	7	6	[0, 0, 0]	n/a	FR1	2	R1216E
746.064	1.618	813310	WORD	n/a	wordpools/wordpool_EN.txt	DITCH	8	6	[0, 0, 0]	n/a	FR1	2	R1216E
747.682	0.983	814928	WORD_OFF	n/a	n/a	DITCH	8	6	[0, 0, 0]	n/a	FR1	2	R1216E
748.665	1.617	815911	WORD	n/a	wordpools/wordpool_EN.txt	PLANE	9	6	[0, 0, 0]	n/a	FR1	2	R1216E
750.282	0.967	817528	WORD_OFF	n/a	n/a	PLANE	9	6	[0, 0, 0]	n/a	FR1	2	R1216E
751.249	1.616	818495	WORD	n/a	wordpools/wordpool_EN.txt	ELF	10	6	[0, 0, 0]	n/a	FR1	2	R1216E
752.865	0.785	820111	WORD_OFF	n/a	n/a	ELF	10	6	[0, 0, 0]	n/a	FR1	2	R1216E
753.65	1.617	820896	WORD	n/a	wordpools/wordpool_EN.txt	TREE	11	6	[0, 0, 0]	n/a	FR1	2	R1216E
755.267	0.983	822512	WORD_OFF	n/a	n/a	TREE	11	6	[0, 0, 0]	n/a	FR1	2	R1216E
756.25	1.616	823495	WORD	n/a	wordpools/wordpool_EN.txt	FOX	12	6	[0, 0, 0]	n/a	FR1	2	R1216E
757.866	0.0	825111	WORD_OFF	n/a	n/a	FOX	12	6	[0, 0, 0]	n/a	FR1	2	R1216E
757.866	0.001	825111	DISTRACT_START	n/a	n/a	n/a	-999	6	[0, 0, 0]	n/a	FR1	2	R1216E
757.867	0.016	825112	START	n/a	n/a	n/a	-999	6	[-999, -999, -999]	n/a	FR1	2	R1216E
757.883	5.268	825128	PROB	5.268	n/a	n/a	-999	6	[3, 2, 1]	6	FR1	2	R1216E
763.151	11.335	830396	PROB	11.335	n/a	n/a	-999	6	[6, 9, 9]	24	FR1	2	R1216E
774.486	4.421	841731	PROB	4.421	n/a	n/a	-999	6	[1, 2, 1]	4	FR1	2	R1216E
778.907	0.013	846152	STOP	n/a	n/a	n/a	-999	6	[-999, -999, -999]	n/a	FR1	2	R1216E
778.92	0.601	846165	DISTRACT_END	n/a	n/a	n/a	-999	6	[0, 0, 0]	n/a	FR1	2	R1216E
779.521	0.516	846766	RETRIEVAL_ORIENT	n/a	n/a	n/a	-999	6	[0, 0, 0]	n/a	FR1	2	R1216E
780.037	30.0	847281	REC_START	n/a	n/a	n/a	-999	6	[0, 0, 0]	n/a	FR1	2	R1216E
810.037	0.011	877280	REC_WORD_VV	0.011	n/a	<>	-999	6	[0, 0, 0]	n/a	FR1	2	R1216E
810.048	6.012	877291	REC_END	n/a	n/a	n/a	-999	6	[0, 0, 0]	n/a	FR1	2	R1216E
816.06	0.5	883303	TRIAL	n/a	n/a	n/a	-999	7	[0, 0, 0]	n/a	FR1	2	R1216E
816.56	10.428	883803	COUNTDOWN_START	n/a	n/a	n/a	-999	7	[0, 0, 0]	n/a	FR1	2	R1216E
826.988	0.007	894231	COUNTDOWN_END	n/a	n/a	n/a	-999	7	[0, 0, 0]	n/a	FR1	2	R1216E
826.995	1.601	894238	ORIENT	n/a	n/a	n/a	-999	7	[0, 0, 0]	n/a	FR1	2	R1216E
828.596	2.084	895839	ORIENT_OFF	n/a	n/a	n/a	-999	7	[0, 0, 0]	n/a	FR1	2	R1216E
830.68	1.617	897923	WORD	n/a	wordpools/wordpool_EN.txt	SHEEP	1	7	[0, 0, 0]	n/a	FR1	2	R1216E
832.297	0.782	899539	WORD_OFF	n/a	n/a	SHEEP	1	7	[0, 0, 0]	n/a	FR1	2	R1216E
833.079	1.601	900321	WORD	n/a	wordpools/wordpool_EN.txt	GEESE	2	7	[0, 0, 0]	n/a	FR1	2	R1216E
834.68	0.951	901922	WORD_OFF	n/a	n/a	GEESE	2	7	[0, 0, 0]	n/a	FR1	2	R1216E
835.631	1.616	902873	WORD	n/a	wordpools/wordpool_EN.txt	WHALE	3	7	[0, 0, 0]	n/a	FR1	2	R1216E
837.247	0.884	904489	WORD_OFF	n/a	n/a	WHALE	3	7	[0, 0, 0]	n/a	FR1	2	R1216E
838.131	1.617	905373	WORD	n/a	wordpools/wordpool_EN.txt	BALL	4	7	[0, 0, 0]	n/a	FR1	2	R1216E
839.748	0.767	906990	WORD_OFF	n/a	n/a	BALL	4	7	[0, 0, 0]	n/a	FR1	2	R1216E
840.515	1.617	907757	WORD	n/a	wordpools/wordpool_EN.txt	PEAR	5	7	[0, 0, 0]	n/a	FR1	2	R1216E
842.132	0.899	909374	WORD_OFF	n/a	n/a	PEAR	5	7	[0, 0, 0]	n/a	FR1	2	R1216E
843.031	1.618	910273	WORD	n/a	wordpools/wordpool_EN.txt	SUN	6	7	[0, 0, 0]	n/a	FR1	2	R1216E
844.649	0.867	911891	WORD_OFF	n/a	n/a	SUN	6	7	[0, 0, 0]	n/a	FR1	2	R1216E
845.516	1.617	912758	WORD	n/a	wordpools/wordpool_EN.txt	NEST	7	7	[0, 0, 0]	n/a	FR1	2	R1216E
847.133	0.899	914375	WORD_OFF	n/a	n/a	NEST	7	7	[0, 0, 0]	n/a	FR1	2	R1216E
848.032	1.618	915274	WORD	n/a	wordpools/wordpool_EN.txt	SNAKE	8	7	[0, 0, 0]	n/a	FR1	2	R1216E
849.65	0.966	916892	WORD_OFF	n/a	n/a	SNAKE	8	7	[0, 0, 0]	n/a	FR1	2	R1216E
850.616	1.618	917858	WORD	n/a	wordpools/wordpool_EN.txt	LAWN	9	7	[0, 0, 0]	n/a	FR1	2	R1216E
852.234	0.983	919476	WORD_OFF	n/a	n/a	LAWN	9	7	[0, 0, 0]	n/a	FR1	2	R1216E
853.217	1.616	920459	WORD	n/a	wordpools/wordpool_EN.txt	BLOOM	10	7	[0, 0, 0]	n/a	FR1	2	R1216E
854.833	0.884	922075	WORD_OFF	n/a	n/a	BLOOM	10	7	[0, 0, 0]	n/a	FR1	2	R1216E
855.717	1.617	922959	WORD	n/a	wordpools/wordpool_EN.txt	WING	11	7	[0, 0, 0]	n/a	FR1	2	R1216E
857.334	0.766	924576	WORD_OFF	n/a	n/a	WING	11	7	[0, 0, 0]	n/a	FR1	2	R1216E
858.1	1.618	925341	WORD	n/a	wordpools/wordpool_EN.txt	FRUIT	12	7	[0, 0, 0]	n/a	FR1	2	R1216E
859.718	0.0	926959	WORD_OFF	n/a	n/a	FRUIT	12	7	[0, 0, 0]	n/a	FR1	2	R1216E
859.718	0.001	926959	DISTRACT_START	n/a	n/a	n/a	-999	7	[0, 0, 0]	n/a	FR1	2	R1216E
859.719	0.016	926960	START	n/a	n/a	n/a	-999	7	[-999, -999, -999]	n/a	FR1	2	R1216E
859.735	9.785	926976	PROB	9.785	n/a	n/a	-999	7	[6, 3, 5]	14	FR1	2	R1216E
869.52	6.201	936761	PROB	6.201	n/a	n/a	-999	7	[4, 4, 8]	16	FR1	2	R1216E
875.721	5.179	942962	PROB	5.179	n/a	n/a	-999	7	[3, 1, 2]	6	FR1	2	R1216E
880.9	0.021	948141	STOP	n/a	n/a	n/a	-999	7	[-999, -999, -999]	n/a	FR1	2	R1216E
880.921	0.684	948162	DISTRACT_END	n/a	n/a	n/a	-999	7	[0, 0, 0]	n/a	FR1	2	R1216E
881.605	0.518	948846	RETRIEVAL_ORIENT	n/a	n/a	n/a	-999	7	[0, 0, 0]	n/a	FR1	2	R1216E
882.123	1.717	949364	REC_START	n/a	n/a	n/a	-999	7	[0, 0, 0]	n/a	FR1	2	R1216E
883.84	1.0	951080	REC_WORD	1.0	n/a	SHEEP	-999	7	[0, 0, 0]	n/a	FR1	2	R1216E
884.84	0.293	952080	REC_WORD_VV	0.293	n/a	<>	-999	7	[0, 0, 0]	n/a	FR1	2	R1216E
885.133	1.0	952373	REC_WORD	1.0	n/a	SNAKE	-999	7	[0, 0, 0]	n/a	FR1	2	R1216E
886.133	1.017	953373	REC_WORD_VV	1.017	n/a	<>	-999	7	[0, 0, 0]	n/a	FR1	2	R1216E
887.15	7.015	954390	REC_WORD	7.015	n/a	LAWN	-999	7	[0, 0, 0]	n/a	FR1	2	R1216E
894.165	1.0	961405	REC_WORD	1.0	n/a	GEESE	-999	7	[0, 0, 0]	n/a	FR1	2	R1216E
895.165	14.083	962405	REC_WORD_VV	14.083	n/a	<>	-999	7	[0, 0, 0]	n/a	FR1	2	R1216E
909.248	2.885	976488	REC_WORD	2.885	n/a	BLOOM	-999	7	[0, 0, 0]	n/a	FR1	2	R1216E
912.133	6.345	979372	REC_END	n/a	n/a	n/a	-999	7	[0, 0, 0]	n/a	FR1	2	R1216E
918.478	0.5	985717	TRIAL	n/a	n/a	n/a	-999	8	[0, 0, 0]	n/a	FR1	2	R1216E
918.978	10.428	986217	COUNTDOWN_START	n/a	n/a	n/a	-999	8	[0, 0, 0]	n/a	FR1	2	R1216E
929.406	0.008	996645	COUNTDOWN_END	n/a	n/a	n/a	-999	8	[0, 0, 0]	n/a	FR1	2	R1216E
929.414	1.616	996653	ORIENT	n/a	n/a	n/a	-999	8	[0, 0, 0]	n/a	FR1	2	R1216E
931.03	2.101	998269	ORIENT_OFF	n/a	n/a	n/a	-999	8	[0, 0, 0]	n/a	FR1	2	R1216E
933.131	1.617	1000370	WORD	n/a	wordpools/wordpool_EN.txt	BOOK	1	8	[0, 0, 0]	n/a	FR1	2	R1216E
934.748	0.867	1001987	WORD_OFF	n/a	n/a	BOOK	1	8	[0, 0, 0]	n/a	FR1	2	R1216E
935.615	1.617	1002854	WORD	n/a	wordpools/wordpool_EN.txt	APE	2	8	[0, 0, 0]	n/a	FR1	2	R1216E
937.232	0.933	1004470	WORD_OFF	n/a	n/a	APE	2	8	[0, 0, 0]	n/a	FR1	2	R1216E
938.165	1.616	1005403	WORD	n/a	wordpools/wordpool_EN.txt	PET	3	8	[0, 0, 0]	n/a	FR1	2	R1216E
939.781	0.851	1007019	WORD_OFF	n/a	n/a	PET	3	8	[0, 0, 0]	n/a	FR1	2	R1216E
940.632	1.617	1007870	WORD	n/a	wordpools/wordpool_EN.txt	ARM	4	8	[0, 0, 0]	n/a	FR1	2	R1216E
942.249	0.884	1009487	WORD_OFF	n/a	n/a	ARM	4	8	[0, 0, 0]	n/a	FR1	2	R1216E
943.133	1.617	1010371	WORD	n/a	wordpools/wordpool_EN.txt	BRIDGE	5	8	[0, 0, 0]	n/a	FR1	2	R1216E
944.75	0.95	1011988	WORD_OFF	n/a	n/a	BRIDGE	5	8	[0, 0, 0]	n/a	FR1	2	R1216E
945.7	1.617	1012938	WORD	n/a	wordpools/wordpool_EN.txt	EGG	6	8	[0, 0, 0]	n/a	FR1	2	R1216E
947.317	0.782	1014555	WORD_OFF	n/a	n/a	EGG	6	8	[0, 0, 0]	n/a	FR1	2	R1216E
948.099	1.601	1015337	WORD	n/a	wordpools/wordpool_EN.txt	ROCK	7	8	[0, 0, 0]	n/a	FR1	2	R1216E
949.7	0.801	1016938	WORD_OFF	n/a	n/a	ROCK	7	8	[0, 0, 0]	n/a	FR1	2	R1216E
950.501	1.617	1017739	WORD	n/a	wordpools/wordpool_EN.txt	SKI	8	8	[0, 0, 0]	n/a	FR1	2	R1216E
952.118	0.949	1019356	WORD_OFF	n/a	n/a	SKI	8	8	[0, 0, 0]	n/a	FR1	2	R1216E
953.067	1.618	1020305	WORD	n/a	wordpools/wordpool_EN.txt	PURSE	9	8	[0, 0, 0]	n/a	FR1	2	R1216E
954.685	0.966	1021923	WORD_OFF	n/a	n/a	PURSE	9	8	[0, 0, 0]	n/a	FR1	2	R1216E
955.651	1.618	1022889	WORD	n/a	wordpools/wordpool_EN.txt	SPONGE	10	8	[0, 0, 0]	n/a	FR1	2	R1216E
957.269	0.916	1024507	WORD_OFF	n/a	n/a	SPONGE	10	8	[0, 0, 0]	n/a	FR1	2	R1216E
958.185	1.616	1025423	WORD	n/a	wordpools/wordpool_EN.txt	SWAMP	11	8	[0, 0, 0]	n/a	FR1	2	R1216E
959.801	0.785	1027039	WORD_OFF	n/a	n/a	SWAMP	11	8	[0, 0, 0]	n/a	FR1	2	R1216E
960.586	1.617	1027824	WORD	n/a	wordpools/wordpool_EN.txt	HEN	12	8	[0, 0, 0]	n/a	FR1	2	R1216E
962.203	0.0	1029440	WORD_OFF	n/a	n/a	HEN	12	8	[0, 0, 0]	n/a	FR1	2	R1216E
962.203	0.0	1029440	DISTRACT_START	n/a	n/a	n/a	-999	8	[0, 0, 0]	n/a	FR1	2	R1216E
962.203	0.016	1029440	START	n/a	n/a	n/a	-999	8	[-999, -999, -999]	n/a	FR1	2	R1216E
962.219	3.75	1029456	PROB	3.75	n/a	n/a	-999	8	[5, 4, 3]	12	FR1	2	R1216E
965.969	12.819	1033206	PROB	12.819	n/a	n/a	-999	8	[5, 7, 9]	21	FR1	2	R1216E
978.788	5.469	1046025	PROB	5.469	n/a	n/a	-999	8	[6, 1, 6]	13	FR1	2	R1216E
984.257	0.016	1051494	STOP	n/a	n/a	n/a	-999	8	[-999, -999, -999]	n/a	FR1	2	R1216E
984.273	0.549	1051510	DISTRACT_END	n/a	n/a	n/a	-999	8	[0, 0, 0]	n/a	FR1	2	R1216E
984.822	0.519	1052059	RETRIEVAL_ORIENT	n/a	n/a	n/a	-999	8	[0, 0, 0]	n/a	FR1	2	R1216E
985.341	29.994	1052578	REC_START	n/a	n/a	n/a	-999	8	[0, 0, 0]	n/a	FR1	2	R1216E
1015.335	0.015	1082570	REC_WORD_VV	0.015	n/a	<>	-999	8	[0, 0, 0]	n/a	FR1	2	R1216E
1015.35	5.963	1082585	REC_END	n/a	n/a	n/a	-999	8	[0, 0, 0]	n/a	FR1	2	R1216E
1021.313	0.5	1088548	TRIAL	n/a	n/a	n/a	-999	9	[0, 0, 0]	n/a	FR1	2	R1216E
1021.813	10.428	1089048	COUNTDOWN_START	n/a	n/a	n/a	-999	9	[0, 0, 0]	n/a	FR1	2	R1216E
1032.241	0.007	1099476	COUNTDOWN_END	n/a	n/a	n/a	-999	9	[0, 0, 0]	n/a	FR1	2	R1216E
1032.248	1.616	1099483	ORIENT	n/a	n/a	n/a	-999	9	[0, 0, 0]	n/a	FR1	2	R1216E
1033.864	2.285	1101099	ORIENT_OFF	n/a	n/a	n/a	-999	9	[0, 0, 0]	n/a	FR1	2	R1216E
1036.149	1.617	1103384	WORD	n/a	wordpools/wordpool_EN.txt	BRUSH	1	9	[0, 0, 0]	n/a	FR1	2	R1216E
1037.766	0.8	1105001	WORD_OFF	n/a	n/a	BRUSH	1	9	[0, 0, 0]	n/a	FR1	2	R1216E
1038.566	1.617	1105801	WORD	n/a	wordpools/wordpool_EN.txt	CUP	2	9	[0, 0, 0]	n/a	FR1	2	R1216E
1040.183	0.782	1107417	WORD_OFF	n/a	n/a	CUP	2	9	[0, 0, 0]	n/a	FR1	2	R1216E
1040.965	1.618	1108199	WORD	n/a	wordpools/wordpool_EN.txt	DUCK	3	9	[0, 0, 0]	n/a	FR1	2	R1216E
1042.583	0.984	1109817	WORD_OFF	n/a	n/a	DUCK	3	9	[0, 0, 0]	n/a	FR1	2	R1216E
1043.567	1.617	1110801	WORD	n/a	wordpools/wordpool_EN.txt	CAGE	4	9	[0, 0, 0]	n/a	FR1	2	R1216E
1045.184	0.866	1112418	WORD_OFF	n/a	n/a	CAGE	4	9	[0, 0, 0]	n/a	FR1	2	R1216E
1046.05	1.618	1113284	WORD	n/a	wordpools/wordpool_EN.txt	SINK	5	9	[0, 0, 0]	n/a	FR1	2	R1216E
1047.668	0.916	1114902	WORD_OFF	n/a	n/a	SINK	5	9	[0, 0, 0]	n/a	FR1	2	R1216E
1048.584	1.618	1115818	WORD	n/a	wordpools/wordpool_EN.txt	CHAIR	6	9	[0, 0, 0]	n/a	FR1	2	R1216E
1050.202	0.916	1117436	WORD_OFF	n/a	n/a	CHAIR	6	9	[0, 0, 0]	n/a	FR1	2	R1216E
1051.118	1.617	1118352	WORD	n/a	wordpools/wordpool_EN.txt	PIN	7	9	[0, 0, 0]	n/a	FR1	2	R1216E
1052.735	0.834	1119969	WORD_OFF	n/a	n/a	PIN	7	9	[0, 0, 0]	n/a	FR1	2	R1216E
1053.569	1.617	1120803	WORD	n/a	wordpools/wordpool_EN.txt	SMILE	8	9	[0, 0, 0]	n/a	FR1	2	R1216E
1055.186	0.815	1122420	WORD_OFF	n/a	n/a	SMILE	8	9	[0, 0, 0]	n/a	FR1	2	R1216E
1056.001	1.601	1123235	WORD	n/a	wordpools/wordpool_EN.txt	RIB	9	9	[0, 0, 0]	n/a	FR1	2	R1216E
1057.602	0.868	1124836	WORD_OFF	n/a	n/a	RIB	9	9	[0, 0, 0]	n/a	FR1	2	R1216E
1058.47	1.616	1125704	WORD	n/a	wordpools/wordpool_EN.txt	PALM	10	9	[0, 0, 0]	n/a	FR1	2	R1216E
1060.086	0.95	1127320	WORD_OFF	n/a	n/a	PALM	10	9	[0, 0, 0]	n/a	FR1	2	R1216E
1061.036	1.618	1128270	WORD	n/a	wordpools/wordpool_EN.txt	BAND	11	9	[0, 0, 0]	n/a	FR1	2	R1216E
1062.654	0.9	1129888	WORD_OFF	n/a	n/a	BAND	11	9	[0, 0, 0]	n/a	FR1	2	R1216E
1063.554	1.617	1130788	WORD	n/a	wordpools/wordpool_EN.txt	TRAY	12	9	[0, 0, 0]	n/a	FR1	2	R1216E
1065.171	0.0	1132405	WORD_OFF	n/a	n/a	TRAY	12	9	[0, 0, 0]	n/a	FR1	2	R1216E
1065.171	0.0	1132405	DISTRACT_START	n/a	n/a	n/a	-999	9	[0, 0, 0]	n/a	FR1	2	R1216E
1065.171	0.016	1132405	START	n/a	n/a	n/a	-999	9	[-999, -999, -999]	n/a	FR1	2	R1216E
1065.187	7.235	1132421	PROB	7.235	n/a	n/a	-999	9	[8, 3, 4]	15	FR1	2	R1216E
1072.422	4.134	1139655	PROB	4.134	n/a	n/a	-999	9	[7, 1, 9]	17	FR1	2	R1216E
1076.556	5.851	1143789	PROB	5.851	n/a	n/a	-999	9	[4, 1, 2]	7	FR1	2	R1216E
1082.407	4.448	1149640	PROB	4.448	n/a	n/a	-999	9	[3, 2, 1]	6	FR1	2	R1216E
1086.855	0.019	1154088	STOP	n/a	n/a	n/a	-999	9	[-999, -999, -999]	n/a	FR1	2	R1216E
1086.874	0.567	1154107	DISTRACT_END	n/a	n/a	n/a	-999	9	[0, 0, 0]	n/a	FR1	2	R1216E
1087.441	0.517	1154674	RETRIEVAL_ORIENT	n/a	n/a	n/a	-999	9	[0, 0, 0]	n/a	FR1	2	R1216E
1087.958	24.194	1155191	REC_START	n/a	n/a	n/a	-999	9	[0, 0, 0]	n/a	FR1	2	R1216E
1112.152	1.0	1179384	REC_WORD	1.0	n/a	SWAMP	-999	9	[0, 0, 0]	n/a	FR1	2	R1216E
1113.152	2.501	1180384	REC_WORD_VV	2.501	n/a	<>	-999	9	[0, 0, 0]	n/a	FR1	2	R1216E
1115.653	2.314	1182885	REC_WORD_VV	2.314	n/a	<>	-999	9	[0, 0, 0]	n/a	FR1	2	R1216E
1117.967	39.27	1185199	REC_END	n/a	n/a	n/a	-999	9	[0, 0, 0]	n/a	FR1	2	R1216E
1157.237	0.5	1224467	TRIAL	n/a	n/a	n/a	-999	10	[0, 0, 0]	n/a	FR1	2	R1216E
1157.737	10.428	1224967	COUNTDOWN_START	n/a	n/a	n/a	-999	10	[0, 0, 0]	n/a	FR1	2	R1216E
1168.165	0.007	1235395	COUNTDOWN_END	n/a	n/a	n/a	-999	10	[0, 0, 0]	n/a	FR1	2	R1216E
1168.172	1.616	1235402	ORIENT	n/a	n/a	n/a	-999	10	[0, 0, 0]	n/a	FR1	2	R1216E
1169.788	2.15	1237018	ORIENT_OFF	n/a	n/a	n/a	-999	10	[0, 0, 0]	n/a	FR1	2	R1216E
1171.938	1.618	1239167	WORD	n/a	wordpools/wordpool_EN.txt	GUARD	1	10	[0, 0, 0]	n/a	FR1	2	R1216E
1173.556	0.851	1240785	WORD_OFF	n/a	n/a	GUARD	1	10	[0, 0, 0]	n/a	FR1	2	R1216E
1174.407	1.616	1241636	WORD	n/a	wordpools/wordpool_EN.txt	SCHOOL	2	10	[0, 0, 0]	n/a	FR1	2	R1216E
1176.023	0.833	1243252	WORD_OFF	n/a	n/a	SCHOOL	2	10	[0, 0, 0]	n/a	FR1	2	R1216E
1176.856	1.618	1244085	WORD	n/a	wordpools/wordpool_EN.txt	CALF	3	10	[0, 0, 0]	n/a	FR1	2	R1216E
1178.474	0.917	1245703	WORD_OFF	n/a	n/a	CALF	3	10	[0, 0, 0]	n/a	FR1	2	R1216E
1179.391	1.616	1246620	WORD	n/a	wordpools/wordpool_EN.txt	STRING	4	10	[0, 0, 0]	n/a	FR1	2	R1216E
1181.007	0.9	1248236	WORD_OFF	n/a	n/a	STRING	4	10	[0, 0, 0]	n/a	FR1	2	R1216E
1181.907	1.618	1249136	WORD	n/a	wordpools/wordpool_EN.txt	SOCK	5	10	[0, 0, 0]	n/a	FR1	2	R1216E
1183.525	0.933	1250754	WORD_OFF	n/a	n/a	SOCK	5	10	[0, 0, 0]	n/a	FR1	2	R1216E
1184.458	1.616	1251687	WORD	n/a	wordpools/wordpool_EN.txt	PIE	6	10	[0, 0, 0]	n/a	FR1	2	R1216E
1186.074	0.834	1253303	WORD_OFF	n/a	n/a	PIE	6	10	[0, 0, 0]	n/a	FR1	2	R1216E
1186.908	1.618	1254137	WORD	n/a	wordpools/wordpool_EN.txt	STREET	7	10	[0, 0, 0]	n/a	FR1	2	R1216E
1188.526	0.967	1255755	WORD_OFF	n/a	n/a	STREET	7	10	[0, 0, 0]	n/a	FR1	2	R1216E
1189.493	1.616	1256722	WORD	n/a	wordpools/wordpool_EN.txt	SLUSH	8	10	[0, 0, 0]	n/a	FR1	2	R1216E
1191.109	0.816	1258338	WORD_OFF	n/a	n/a	SLUSH	8	10	[0, 0, 0]	n/a	FR1	2	R1216E
1191.925	1.618	1259154	WORD	n/a	wordpools/wordpool_EN.txt	BEE	9	10	[0, 0, 0]	n/a	FR1	2	R1216E
1193.543	0.867	1260772	WORD_OFF	n/a	n/a	BEE	9	10	[0, 0, 0]	n/a	FR1	2	R1216E
1194.41	1.616	1261639	WORD	n/a	wordpools/wordpool_EN.txt	FOAM	10	10	[0, 0, 0]	n/a	FR1	2	R1216E
1196.026	0.833	1263255	WORD_OFF	n/a	n/a	FOAM	10	10	[0, 0, 0]	n/a	FR1	2	R1216E
1196.859	1.619	1264087	WORD	n/a	wordpools/wordpool_EN.txt	SWORD	11	10	[0, 0, 0]	n/a	FR1	2	R1216E
1198.478	0.916	1265706	WORD_OFF	n/a	n/a	SWORD	11	10	[0, 0, 0]	n/a	FR1	2	R1216E
1199.394	1.616	1266622	WORD	n/a	wordpools/wordpool_EN.txt	BOARD	12	10	[0, 0, 0]	n/a	FR1	2	R1216E
1201.01	0.0	1268238	WORD_OFF	n/a	n/a	BOARD	12	10	[0, 0, 0]	n/a	FR1	2	R1216E
1201.01	0.001	1268238	DISTRACT_START	n/a	n/a	n/a	-999	10	[0, 0, 0]	n/a	FR1	2	R1216E
1201.011	0.016	1268239	START	n/a	n/a	n/a	-999	10	[-999, -999, -999]	n/a	FR1	2	R1216E
1201.027	7.269	1268255	PROB	7.269	n/a	n/a	-999	10	[2, 1, 9]	12	FR1	2	R1216E
1208.296	16.208	1275524	PROB	16.208	n/a	n/a	-999	10	[7, 6, 8]	21	FR1	2	R1216E
1224.504	0.011	1291731	STOP	n/a	n/a	n/a	-999	10	[-999, -999, -999]	n/a	FR1	2	R1216E
1224.515	0.634	1291742	DISTRACT_END	n/a	n/a	n/a	-999	10	[0, 0, 0]	n/a	FR1	2	R1216E
1225.149	0.517	1292376	RETRIEVAL_ORIENT	n/a	n/a	n/a	-999	10	[0, 0, 0]	n/a	FR1	2	R1216E
1225.666	5.037	1292893	REC_START	n/a	n/a	n/a	-999	10	[0, 0, 0]	n/a	FR1	2	R1216E
1230.703	1.0	1297930	REC_WORD	1.0	n/a	SWORD	-999	10	[0, 0, 0]	n/a	FR1	2	R1216E
1231.703	23.974	1298930	REC_WORD_VV	23.974	n/a	<>	-999	10	[0, 0, 0]	n/a	FR1	2	R1216E
1255.677	7.695	1322903	REC_END	n/a	n/a	n/a	-999	10	[0, 0, 0]	n/a	FR1	2	R1216E
1263.372	0.5	1330598	TRIAL	n/a	n/a	n/a	-999	11	[0, 0, 0]	n/a	FR1	2	R1216E
1263.872	10.428	1331098	COUNTDOWN_START	n/a	n/a	n/a	-999	11	[0, 0, 0]	n/a	FR1	2	R1216E
1274.3	0.007	1341525	COUNTDOWN_END	n/a	n/a	n/a	-999	11	[0, 0, 0]	n/a	FR1	2	R1216E
1274.307	1.616	1341532	ORIENT	n/a	n/a	n/a	-999	11	[0, 0, 0]	n/a	FR1	2	R1216E
1275.923	2.285	1343148	ORIENT_OFF	n/a	n/a	n/a	-999	11	[0, 0, 0]	n/a	FR1	2	R1216E
1278.208	1.616	1345433	WORD	n/a	wordpools/wordpool_EN.txt	PANTS	1	11	[0, 0, 0]	n/a	FR1	2	R1216E
1279.824	1.0	1347049	WORD_OFF	n/a	n/a	PANTS	1	11	[0, 0, 0]	n/a	FR1	2	R1216E
1280.824	1.601	1348049	WORD	n/a	wordpools/wordpool_EN.txt	WALL	2	11	[0, 0, 0]	n/a	FR1	2	R1216E
1282.425	0.884	1349650	WORD_OFF	n/a	n/a	WALL	2	11	[0, 0, 0]	n/a	FR1	2	R1216E
1283.309	1.616	1350534	WORD	n/a	wordpools/wordpool_EN.txt	PHONE	3	11	[0, 0, 0]	n/a	FR1	2	R1216E
1284.925	0.967	1352150	WORD_OFF	n/a	n/a	PHONE	3	11	[0, 0, 0]	n/a	FR1	2	R1216E
1285.892	1.618	1353117	WORD	n/a	wordpools/wordpool_EN.txt	BOY	4	11	[0, 0, 0]	n/a	FR1	2	R1216E
1287.51	0.9	1354735	WORD_OFF	n/a	n/a	BOY	4	11	[0, 0, 0]	n/a	FR1	2	R1216E
1288.41	1.616	1355635	WORD	n/a	wordpools/wordpool_EN.txt	TRASH	5	11	[0, 0, 0]	n/a	FR1	2	R1216E
1290.026	0.8	1357251	WORD_OFF	n/a	n/a	TRASH	5	11	[0, 0, 0]	n/a	FR1	2	R1216E
1290.826	1.618	1358051	WORD	n/a	wordpools/wordpool_EN.txt	POLE	6	11	[0, 0, 0]	n/a	FR1	2	R1216E
1292.444	0.833	1359669	WORD_OFF	n/a	n/a	POLE	6	11	[0, 0, 0]	n/a	FR1	2	R1216E
1293.277	1.616	1360502	WORD	n/a	wordpools/wordpool_EN.txt	PEARL	7	11	[0, 0, 0]	n/a	FR1	2	R1216E
1294.893	0.967	1362118	WORD_OFF	n/a	n/a	PEARL	7	11	[0, 0, 0]	n/a	FR1	2	R1216E
1295.86	1.601	1363085	WORD	n/a	wordpools/wordpool_EN.txt	OWL	8	11	[0, 0, 0]	n/a	FR1	2	R1216E
1297.461	1.001	1364686	WORD_OFF	n/a	n/a	OWL	8	11	[0, 0, 0]	n/a	FR1	2	R1216E
1298.462	1.616	1365687	WORD	n/a	wordpools/wordpool_EN.txt	STORE	9	11	[0, 0, 0]	n/a	FR1	2	R1216E
1300.078	0.899	1367303	WORD_OFF	n/a	n/a	STORE	9	11	[0, 0, 0]	n/a	FR1	2	R1216E
1300.977	1.602	1368201	WORD	n/a	wordpools/wordpool_EN.txt	SHIELD	10	11	[0, 0, 0]	n/a	FR1	2	R1216E
1302.579	0.85	1369803	WORD_OFF	n/a	n/a	SHIELD	10	11	[0, 0, 0]	n/a	FR1	2	R1216E
1303.429	1.616	1370653	WORD	n/a	wordpools/wordpool_EN.txt	PLANT	11	11	[0, 0, 0]	n/a	FR1	2	R1216E
1305.045	0.984	1372269	WORD_OFF	n/a	n/a	PLANT	11	11	[0, 0, 0]	n/a	FR1	2	R1216E
1306.029	1.618	1373253	WORD	n/a	wordpools/wordpool_EN.txt	WEED	12	11	[0, 0, 0]	n/a	FR1	2	R1216E
1307.647	0.0	1374871	WORD_OFF	n/a	n/a	WEED	12	11	[0, 0, 0]	n/a	FR1	2	R1216E
1307.647	0.0	1374871	DISTRACT_START	n/a	n/a	n/a	-999	11	[0, 0, 0]	n/a	FR1	2	R1216E
1307.647	0.016	1374871	START	n/a	n/a	n/a	-999	11	[-999, -999, -999]	n/a	FR1	2	R1216E
1307.663	7.251	1374887	PROB	7.251	n/a	n/a	-999	11	[1, 5, 3]	9	FR1	2	R1216E
1314.914	4.418	1382138	PROB	4.418	n/a	n/a	-999	11	[3, 8, 9]	20	FR1	2	R1216E
1319.332	5.683	1386556	PROB	5.683	n/a	n/a	-999	11	[4, 7, 7]	18	FR1	2	R1216E
1325.015	6.416	1392239	PROB	6.416	n/a	n/a	-999	11	[9, 1, 1]	11	FR1	2	R1216E
1331.431	0.02	1398654	STOP	n/a	n/a	n/a	-999	11	[-999, -999, -999]	n/a	FR1	2	R1216E
1331.451	0.616	1398674	DISTRACT_END	n/a	n/a	n/a	-999	11	[0, 0, 0]	n/a	FR1	2	R1216E
1332.067	0.518	1399290	RETRIEVAL_ORIENT	n/a	n/a	n/a	-999	11	[0, 0, 0]	n/a	FR1	2	R1216E
1332.585	1.205	1399808	REC_START	n/a	n/a	n/a	-999	11	[0, 0, 0]	n/a	FR1	2	R1216E
1333.79	1.372	1401013	REC_WORD	1.372	n/a	WEED	-999	11	[0, 0, 0]	n/a	FR1	2	R1216E
1335.162	1.904	1402385	REC_WORD	1.904	n/a	WALL	-999	11	[0, 0, 0]	n/a	FR1	2	R1216E
1337.066	24.979	1404289	REC_WORD	24.979	n/a	PHONE	-999	11	[0, 0, 0]	n/a	FR1	2	R1216E
1362.045	0.55	1429267	REC_WORD	0.55	n/a	OWL	-999	11	[0, 0, 0]	n/a	FR1	2	R1216E
1362.595	6.295	1429817	REC_END	n/a	n/a	n/a	-999	11	[0, 0, 0]	n/a	FR1	2	R1216E
1368.89	0.5	1436112	TRIAL	n/a	n/a	n/a	-999	12	[0, 0, 0]	n/a	FR1	2	R1216E
1369.39	10.428	1436612	COUNTDOWN_START	n/a	n/a	n/a	-999	12	[0, 0, 0]	n/a	FR1	2	R1216E
1379.818	0.007	1447039	COUNTDOWN_END	n/a	n/a	n/a	-999	12	[0, 0, 0]	n/a	FR1	2	R1216E
1379.825	1.618	1447046	ORIENT	n/a	n/a	n/a	-999	12	[0, 0, 0]	n/a	FR1	2	R1216E
1381.443	1.95	1448664	ORIENT_OFF	n/a	n/a	n/a	-999	12	[0, 0, 0]	n/a	FR1	2	R1216E
1383.393	1.616	1450614	WORD	n/a	wordpools/wordpool_EN.txt	BRANCH	1	12	[0, 0, 0]	n/a	FR1	2	R1216E
1385.009	0.9	1452230	WORD_OFF	n/a	n/a	BRANCH	1	12	[0, 0, 0]	n/a	FR1	2	R1216E
1385.909	1.601	1453130	WORD	n/a	wordpools/wordpool_EN.txt	RAKE	2	12	[0, 0, 0]	n/a	FR1	2	R1216E
1387.51	0.884	1454731	WORD_OFF	n/a	n/a	RAKE	2	12	[0, 0, 0]	n/a	FR1	2	R1216E
1388.394	1.616	1455615	WORD	n/a	wordpools/wordpool_EN.txt	SHEET	3	12	[0, 0, 0]	n/a	FR1	2	R1216E
1390.01	0.85	1457231	WORD_OFF	n/a	n/a	SHEET	3	12	[0, 0, 0]	n/a	FR1	2	R1216E
1390.86	1.601	1458081	WORD	n/a	wordpools/wordpool_EN.txt	DRUM	4	12	[0, 0, 0]	n/a	FR1	2	R1216E
1392.461	0.884	1459682	WORD_OFF	n/a	n/a	DRUM	4	12	[0, 0, 0]	n/a	FR1	2	R1216E
1393.345	1.616	1460566	WORD	n/a	wordpools/wordpool_EN.txt	SOAP	5	12	[0, 0, 0]	n/a	FR1	2	R1216E
1394.961	0.818	1462182	WORD_OFF	n/a	n/a	SOAP	5	12	[0, 0, 0]	n/a	FR1	2	R1216E
1395.779	1.617	1463000	WORD	n/a	wordpools/wordpool_EN.txt	BAG	6	12	[0, 0, 0]	n/a	FR1	2	R1216E
1397.396	0.9	1464617	WORD_OFF	n/a	n/a	BAG	6	12	[0, 0, 0]	n/a	FR1	2	R1216E
1398.296	1.616	1465517	WORD	n/a	wordpools/wordpool_EN.txt	SLIME	7	12	[0, 0, 0]	n/a	FR1	2	R1216E
1399.912	0.967	1467133	WORD_OFF	n/a	n/a	SLIME	7	12	[0, 0, 0]	n/a	FR1	2	R1216E
1400.879	1.618	1468100	WORD	n/a	wordpools/wordpool_EN.txt	JEEP	8	12	[0, 0, 0]	n/a	FR1	2	R1216E
1402.497	0.8	1469718	WORD_OFF	n/a	n/a	JEEP	8	12	[0, 0, 0]	n/a	FR1	2	R1216E
1403.297	1.616	1470518	WORD	n/a	wordpools/wordpool_EN.txt	OAK	9	12	[0, 0, 0]	n/a	FR1	2	R1216E
1404.913	0.866	1472133	WORD_OFF	n/a	n/a	OAK	9	12	[0, 0, 0]	n/a	FR1	2	R1216E
1405.779	1.618	1472999	WORD	n/a	wordpools/wordpool_EN.txt	GOLD	10	12	[0, 0, 0]	n/a	FR1	2	R1216E
1407.397	0.951	1474617	WORD_OFF	n/a	n/a	GOLD	10	12	[0, 0, 0]	n/a	FR1	2	R1216E
1408.348	1.616	1475568	WORD	n/a	wordpools/wordpool_EN.txt	STEAM	11	12	[0, 0, 0]	n/a	FR1	2	R1216E
1409.964	0.85	1477184	WORD_OFF	n/a	n/a	STEAM	11	12	[0, 0, 0]	n/a	FR1	2	R1216E
1410.814	1.618	1478034	WORD	n/a	wordpools/wordpool_EN.txt	SHIRT	12	12	[0, 0, 0]	n/a	FR1	2	R1216E
1412.432	0.0	1479652	DISTRACT_START	n/a	n/a	n/a	-999	12	[0, 0, 0]	n/a	FR1	2	R1216E
1412.432	0.0	1479652	WORD_OFF	n/a	n/a	SHIRT	12	12	[0, 0, 0]	n/a	FR1	2	R1216E
1412.432	0.016	1479652	START	n/a	n/a	n/a	-999	12	[-999, -999, -999]	n/a	FR1	2	R1216E
1412.448	8.068	1479668	PROB	8.068	n/a	n/a	-999	12	[1, 8, 5]	14	FR1	2	R1216E
1420.516	4.601	1487736	PROB	4.601	n/a	n/a	-999	12	[7, 3, 1]	11	FR1	2	R1216E
1425.117	4.401	1492337	PROB	4.401	n/a	n/a	-999	12	[2, 4, 6]	12	FR1	2	R1216E
1429.518	5.634	1496738	PROB	5.634	n/a	n/a	-999	12	[9, 3, 9]	21	FR1	2	R1216E
1435.152	0.017	1502371	STOP	n/a	n/a	n/a	-999	12	[-999, -999, -999]	n/a	FR1	2	R1216E
1435.169	0.55	1502388	DISTRACT_END	n/a	n/a	n/a	-999	12	[0, 0, 0]	n/a	FR1	2	R1216E
1435.719	0.517	1502938	RETRIEVAL_ORIENT	n/a	n/a	n/a	-999	12	[0, 0, 0]	n/a	FR1	2	R1216E
1436.236	2.505	1503455	REC_START	n/a	n/a	n/a	-999	12	[0, 0, 0]	n/a	FR1	2	R1216E
1438.741	1.0	1505960	REC_WORD	1.0	n/a	SHIRT	-999	12	[0, 0, 0]	n/a	FR1	2	R1216E
1439.741	26.506	1506960	REC_WORD_VV	26.506	n/a	<>	-999	12	[0, 0, 0]	n/a	FR1	2	R1216E
1466.247	5.362	1533465	REC_END	n/a	n/a	n/a	-999	12	[0, 0, 0]	n/a	FR1	2	R1216E
1471.609	0.5	1538827	TRIAL	n/a	n/a	n/a	-999	13	[0, 0, 0]	n/a	FR1	2	R1216E
1472.109	10.428	1539327	COUNTDOWN_START	n/a	n/a	n/a	-999	13	[0, 0, 0]	n/a	FR1	2	R1216E
1482.537	0.007	1549754	COUNTDOWN_END	n/a	n/a	n/a	-999	13	[0, 0, 0]	n/a	FR1	2	R1216E
1482.544	1.617	1549761	ORIENT	n/a	n/a	n/a	-999	13	[0, 0, 0]	n/a	FR1	2	R1216E
1484.161	2.334	1551378	ORIENT_OFF	n/a	n/a	n/a	-999	13	[0, 0, 0]	n/a	FR1	2	R1216E
1486.495	1.616	1553712	WORD	n/a	wordpools/wordpool_EN.txt	LEG	1	13	[0, 0, 0]	n/a	FR1	2	R1216E
1488.111	0.966	1555328	WORD_OFF	n/a	n/a	LEG	1	13	[0, 0, 0]	n/a	FR1	2	R1216E
1489.077	1.618	1556294	WORD	n/a	wordpools/wordpool_EN.txt	FACE	2	13	[0, 0, 0]	n/a	FR1	2	R1216E
1490.695	0.85	1557912	WORD_OFF	n/a	n/a	FACE	2	13	[0, 0, 0]	n/a	FR1	2	R1216E
1491.545	1.618	1558762	WORD	n/a	wordpools/wordpool_EN.txt	NOSE	3	13	[0, 0, 0]	n/a	FR1	2	R1216E
1493.163	0.799	1560380	WORD_OFF	n/a	n/a	NOSE	3	13	[0, 0, 0]	n/a	FR1	2	R1216E
1493.962	1.618	1561179	WORD	n/a	wordpools/wordpool_EN.txt	BOWL	4	13	[0, 0, 0]	n/a	FR1	2	R1216E
1495.58	0.916	1562797	WORD_OFF	n/a	n/a	BOWL	4	13	[0, 0, 0]	n/a	FR1	2	R1216E
1496.496	1.616	1563713	WORD	n/a	wordpools/wordpool_EN.txt	HILL	5	13	[0, 0, 0]	n/a	FR1	2	R1216E
1498.112	0.884	1565329	WORD_OFF	n/a	n/a	HILL	5	13	[0, 0, 0]	n/a	FR1	2	R1216E
1498.996	1.618	1566213	WORD	n/a	wordpools/wordpool_EN.txt	GLASS	6	13	[0, 0, 0]	n/a	FR1	2	R1216E
1500.614	0.783	1567831	WORD_OFF	n/a	n/a	GLASS	6	13	[0, 0, 0]	n/a	FR1	2	R1216E
1501.397	1.616	1568614	WORD	n/a	wordpools/wordpool_EN.txt	SHARK	7	13	[0, 0, 0]	n/a	FR1	2	R1216E
1503.013	0.817	1570230	WORD_OFF	n/a	n/a	SHARK	7	13	[0, 0, 0]	n/a	FR1	2	R1216E
1503.83	1.618	1571047	WORD	n/a	wordpools/wordpool_EN.txt	BENCH	8	13	[0, 0, 0]	n/a	FR1	2	R1216E
1505.448	0.8	1572665	WORD_OFF	n/a	n/a	BENCH	8	13	[0, 0, 0]	n/a	FR1	2	R1216E
1506.248	1.616	1573465	WORD	n/a	wordpools/wordpool_EN.txt	WORM	9	13	[0, 0, 0]	n/a	FR1	2	R1216E
1507.864	0.784	1575081	WORD_OFF	n/a	n/a	WORM	9	13	[0, 0, 0]	n/a	FR1	2	R1216E
1508.648	1.617	1575864	WORD	n/a	wordpools/wordpool_EN.txt	BED	10	13	[0, 0, 0]	n/a	FR1	2	R1216E
1510.265	0.884	1577481	WORD_OFF	n/a	n/a	BED	10	13	[0, 0, 0]	n/a	FR1	2	R1216E
1511.149	1.617	1578365	WORD	n/a	wordpools/wordpool_EN.txt	MUD	11	13	[0, 0, 0]	n/a	FR1	2	R1216E
1512.766	0.8	1579982	WORD_OFF	n/a	n/a	MUD	11	13	[0, 0, 0]	n/a	FR1	2	R1216E
1513.566	1.617	1580782	WORD	n/a	wordpools/wordpool_EN.txt	FOOD	12	13	[0, 0, 0]	n/a	FR1	2	R1216E
1515.183	0.0	1582399	WORD_OFF	n/a	n/a	FOOD	12	13	[0, 0, 0]	n/a	FR1	2	R1216E
1515.183	0.001	1582399	DISTRACT_START	n/a	n/a	n/a	-999	13	[0, 0, 0]	n/a	FR1	2	R1216E
1515.184	0.016	1582400	START	n/a	n/a	n/a	-999	13	[-999, -999, -999]	n/a	FR1	2	R1216E
1515.2	5.633	1582416	PROB	5.633	n/a	n/a	-999	13	[4, 5, 3]	12	FR1	2	R1216E
1520.833	2.585	1588049	PROB	2.585	n/a	n/a	-999	13	[5, 1, 5]	11	FR1	2	R1216E
1523.418	4.867	1590634	PROB	4.867	n/a	n/a	-999	13	[1, 4, 7]	12	FR1	2	R1216E
1528.285	12.869	1595501	PROB	12.869	n/a	n/a	-999	13	[6, 7, 4]	17	FR1	2	R1216E
1541.154	0.017	1608369	STOP	n/a	n/a	n/a	-999	13	[-999, -999, -999]	n/a	FR1	2	R1216E
1541.171	0.6	1608386	DISTRACT_END	n/a	n/a	n/a	-999	13	[0, 0, 0]	n/a	FR1	2	R1216E
1541.771	0.517	1608986	RETRIEVAL_ORIENT	n/a	n/a	n/a	-999	13	[0, 0, 0]	n/a	FR1	2	R1216E
1542.288	1.519	1609503	REC_START	n/a	n/a	n/a	-999	13	[0, 0, 0]	n/a	FR1	2	R1216E
1543.807	1.0	1611022	REC_WORD	1.0	n/a	LEG	-999	13	[0, 0, 0]	n/a	FR1	2	R1216E
1544.807	1.888	1612022	REC_WORD_VV	1.888	n/a	<>	-999	13	[0, 0, 0]	n/a	FR1	2	R1216E
1546.695	2.288	1613910	REC_WORD	2.288	n/a	FACE	-999	13	[0, 0, 0]	n/a	FR1	2	R1216E
1548.983	1.0	1616198	REC_WORD	1.0	n/a	NOSE	-999	13	[0, 0, 0]	n/a	FR1	2	R1216E
1549.983	2.81	1617198	REC_WORD_VV	2.81	n/a	<>	-999	13	[0, 0, 0]	n/a	FR1	2	R1216E
1552.793	1.0	1620008	REC_WORD	1.0	n/a	GLASS	-999	13	[0, 0, 0]	n/a	FR1	2	R1216E
1553.793	10.817	1621008	REC_WORD_VV	10.817	n/a	<>	-999	13	[0, 0, 0]	n/a	FR1	2	R1216E
1564.61	1.0	1631824	REC_WORD	1.0	n/a	SHARK	-999	13	[0, 0, 0]	n/a	FR1	2	R1216E
1565.61	1.0	1632824	REC_WORD_VV	1.0	n/a	<>	-999	13	[0, 0, 0]	n/a	FR1	2	R1216E
1566.61	1.029	1633824	REC_WORD_VV	1.029	n/a	<>	-999	13	[0, 0, 0]	n/a	FR1	2	R1216E
1567.639	4.661	1634853	REC_WORD	4.661	n/a	SHARK	-999	13	[0, 0, 0]	n/a	FR1	2	R1216E
1572.3	8.644	1639514	REC_END	n/a	n/a	n/a	-999	13	[0, 0, 0]	n/a	FR1	2	R1216E
1580.944	0.5	1648158	TRIAL	n/a	n/a	n/a	-999	14	[0, 0, 0]	n/a	FR1	2	R1216E
1581.444	10.428	1648658	COUNTDOWN_START	n/a	n/a	n/a	-999	14	[0, 0, 0]	n/a	FR1	2	R1216E
1591.872	0.007	1659085	COUNTDOWN_END	n/a	n/a	n/a	-999	14	[0, 0, 0]	n/a	FR1	2	R1216E
1591.879	1.601	1659092	ORIENT	n/a	n/a	n/a	-999	14	[0, 0, 0]	n/a	FR1	2	R1216E
1593.48	2.117	1660693	ORIENT_OFF	n/a	n/a	n/a	-999	14	[0, 0, 0]	n/a	FR1	2	R1216E
1595.597	1.617	1662810	WORD	n/a	wordpools/wordpool_EN.txt	BADGE	1	14	[0, 0, 0]	n/a	FR1	2	R1216E
1597.214	0.849	1664427	WORD_OFF	n/a	n/a	BADGE	1	14	[0, 0, 0]	n/a	FR1	2	R1216E
1598.063	1.601	1665276	WORD	n/a	wordpools/wordpool_EN.txt	DESK	2	14	[0, 0, 0]	n/a	FR1	2	R1216E
1599.664	0.851	1666877	WORD_OFF	n/a	n/a	DESK	2	14	[0, 0, 0]	n/a	FR1	2	R1216E
1600.515	1.617	1667728	WORD	n/a	wordpools/wordpool_EN.txt	SHRIMP	3	14	[0, 0, 0]	n/a	FR1	2	R1216E
1602.132	0.915	1669345	WORD_OFF	n/a	n/a	SHRIMP	3	14	[0, 0, 0]	n/a	FR1	2	R1216E
1603.047	1.618	1670260	WORD	n/a	wordpools/wordpool_EN.txt	FLEA	4	14	[0, 0, 0]	n/a	FR1	2	R1216E
1604.665	0.85	1671878	WORD_OFF	n/a	n/a	FLEA	4	14	[0, 0, 0]	n/a	FR1	2	R1216E
1605.515	1.617	1672728	WORD	n/a	wordpools/wordpool_EN.txt	HAT	5	14	[0, 0, 0]	n/a	FR1	2	R1216E
1607.132	0.866	1674345	WORD_OFF	n/a	n/a	HAT	5	14	[0, 0, 0]	n/a	FR1	2	R1216E
1607.998	1.601	1675211	WORD	n/a	wordpools/wordpool_EN.txt	HOOK	6	14	[0, 0, 0]	n/a	FR1	2	R1216E
1609.599	0.951	1676812	WORD_OFF	n/a	n/a	HOOK	6	14	[0, 0, 0]	n/a	FR1	2	R1216E
1610.55	1.617	1677763	WORD	n/a	wordpools/wordpool_EN.txt	MOTH	7	14	[0, 0, 0]	n/a	FR1	2	R1216E
1612.167	0.95	1679380	WORD_OFF	n/a	n/a	MOTH	7	14	[0, 0, 0]	n/a	FR1	2	R1216E
1613.117	1.617	1680329	WORD	n/a	wordpools/wordpool_EN.txt	POOL	8	14	[0, 0, 0]	n/a	FR1	2	R1216E
1614.734	0.883	1681946	WORD_OFF	n/a	n/a	POOL	8	14	[0, 0, 0]	n/a	FR1	2	R1216E
1615.617	1.617	1682829	WORD	n/a	wordpools/wordpool_EN.txt	ARK	9	14	[0, 0, 0]	n/a	FR1	2	R1216E
1617.234	0.766	1684446	WORD_OFF	n/a	n/a	ARK	9	14	[0, 0, 0]	n/a	FR1	2	R1216E
1618.0	1.601	1685212	WORD	n/a	wordpools/wordpool_EN.txt	CHALK	10	14	[0, 0, 0]	n/a	FR1	2	R1216E
1619.601	0.834	1686813	WORD_OFF	n/a	n/a	CHALK	10	14	[0, 0, 0]	n/a	FR1	2	R1216E
1620.435	1.616	1687647	WORD	n/a	wordpools/wordpool_EN.txt	DIME	11	14	[0, 0, 0]	n/a	FR1	2	R1216E
1622.051	0.8	1689263	WORD_OFF	n/a	n/a	DIME	11	14	[0, 0, 0]	n/a	FR1	2	R1216E
1622.851	1.618	1690063	WORD	n/a	wordpools/wordpool_EN.txt	FUR	12	14	[0, 0, 0]	n/a	FR1	2	R1216E
1624.469	0.0	1691681	WORD_OFF	n/a	n/a	FUR	12	14	[0, 0, 0]	n/a	FR1	2	R1216E
1624.469	0.0	1691681	DISTRACT_START	n/a	n/a	n/a	-999	14	[0, 0, 0]	n/a	FR1	2	R1216E
1624.469	0.017	1691681	START	n/a	n/a	n/a	-999	14	[-999, -999, -999]	n/a	FR1	2	R1216E
1624.486	13.484	1691698	PROB	13.484	n/a	n/a	-999	14	[2, 4, 9]	15	FR1	2	R1216E
1637.97	6.286	1705182	PROB	6.286	n/a	n/a	-999	14	[2, 5, 1]	8	FR1	2	R1216E
1644.256	5.464	1711467	PROB	5.464	n/a	n/a	-999	14	[7, 3, 6]	16	FR1	2	R1216E
1649.72	0.02	1716931	STOP	n/a	n/a	n/a	-999	14	[-999, -999, -999]	n/a	FR1	2	R1216E
1649.74	0.65	1716951	DISTRACT_END	n/a	n/a	n/a	-999	14	[0, 0, 0]	n/a	FR1	2	R1216E
1650.39	0.517	1717601	RETRIEVAL_ORIENT	n/a	n/a	n/a	-999	14	[0, 0, 0]	n/a	FR1	2	R1216E
1650.907	1.336	1718118	REC_START	n/a	n/a	n/a	-999	14	[0, 0, 0]	n/a	FR1	2	R1216E
1652.243	1.0	1719454	REC_WORD	1.0	n/a	ARK	-999	14	[0, 0, 0]	n/a	FR1	2	R1216E
1653.243	0.24	1720454	REC_WORD_VV	0.24	n/a	<>	-999	14	[0, 0, 0]	n/a	FR1	2	R1216E
1653.483	27.434	1720694	REC_WORD	27.434	n/a	POOL	-999	14	[0, 0, 0]	n/a	FR1	2	R1216E
1680.917	5.596	1748127	REC_END	n/a	n/a	n/a	-999	14	[0, 0, 0]	n/a	FR1	2	R1216E
1686.513	0.5	1753723	TRIAL	n/a	n/a	n/a	-999	15	[0, 0, 0]	n/a	FR1	2	R1216E
1687.013	10.428	1754223	COUNTDOWN_START	n/a	n/a	n/a	-999	15	[0, 0, 0]	n/a	FR1	2	R1216E
1697.441	0.007	1764650	COUNTDOWN_END	n/a	n/a	n/a	-999	15	[0, 0, 0]	n/a	FR1	2	R1216E
1697.448	1.616	1764657	ORIENT	n/a	n/a	n/a	-999	15	[0, 0, 0]	n/a	FR1	2	R1216E
1699.064	2.185	1766273	ORIENT_OFF	n/a	n/a	n/a	-999	15	[0, 0, 0]	n/a	FR1	2	R1216E
1701.249	1.616	1768458	WORD	n/a	wordpools/wordpool_EN.txt	BEAR	1	15	[0, 0, 0]	n/a	FR1	2	R1216E
1702.865	0.967	1770074	WORD_OFF	n/a	n/a	BEAR	1	15	[0, 0, 0]	n/a	FR1	2	R1216E
1703.832	1.618	1771041	WORD	n/a	wordpools/wordpool_EN.txt	HEART	2	15	[0, 0, 0]	n/a	FR1	2	R1216E
1705.45	0.766	1772659	WORD_OFF	n/a	n/a	HEART	2	15	[0, 0, 0]	n/a	FR1	2	R1216E
1706.216	1.617	1773425	WORD	n/a	wordpools/wordpool_EN.txt	WOOD	3	15	[0, 0, 0]	n/a	FR1	2	R1216E
1707.833	0.949	1775042	WORD_OFF	n/a	n/a	WOOD	3	15	[0, 0, 0]	n/a	FR1	2	R1216E
1708.782	1.602	1775991	WORD	n/a	wordpools/wordpool_EN.txt	SNOW	4	15	[0, 0, 0]	n/a	FR1	2	R1216E
1710.384	0.95	1777593	WORD_OFF	n/a	n/a	SNOW	4	15	[0, 0, 0]	n/a	FR1	2	R1216E
1711.334	1.616	1778543	WORD	n/a	wordpools/wordpool_EN.txt	COW	5	15	[0, 0, 0]	n/a	FR1	2	R1216E
1712.95	0.834	1780159	WORD_OFF	n/a	n/a	COW	5	15	[0, 0, 0]	n/a	FR1	2	R1216E
1713.784	1.618	1780993	WORD	n/a	wordpools/wordpool_EN.txt	STEM	6	15	[0, 0, 0]	n/a	FR1	2	R1216E
1715.402	0.983	1782611	WORD_OFF	n/a	n/a	STEM	6	15	[0, 0, 0]	n/a	FR1	2	R1216E
1716.385	1.616	1783594	WORD	n/a	wordpools/wordpool_EN.txt	MAZE	7	15	[0, 0, 0]	n/a	FR1	2	R1216E
1718.001	0.9	1785209	WORD_OFF	n/a	n/a	MAZE	7	15	[0, 0, 0]	n/a	FR1	2	R1216E
1718.901	1.601	1786109	WORD	n/a	wordpools/wordpool_EN.txt	SEED	8	15	[0, 0, 0]	n/a	FR1	2	R1216E
1720.502	0.817	1787710	WORD_OFF	n/a	n/a	SEED	8	15	[0, 0, 0]	n/a	FR1	2	R1216E
1721.319	1.616	1788527	WORD	n/a	wordpools/wordpool_EN.txt	LAKE	9	15	[0, 0, 0]	n/a	FR1	2	R1216E
1722.935	0.867	1790143	WORD_OFF	n/a	n/a	LAKE	9	15	[0, 0, 0]	n/a	FR1	2	R1216E
1723.802	1.618	1791010	WORD	n/a	wordpools/wordpool_EN.txt	MOOSE	10	15	[0, 0, 0]	n/a	FR1	2	R1216E
1725.42	0.817	1792628	WORD_OFF	n/a	n/a	MOOSE	10	15	[0, 0, 0]	n/a	FR1	2	R1216E
1726.237	1.616	1793445	WORD	n/a	wordpools/wordpool_EN.txt	ROPE	11	15	[0, 0, 0]	n/a	FR1	2	R1216E
1727.853	0.868	1795061	WORD_OFF	n/a	n/a	ROPE	11	15	[0, 0, 0]	n/a	FR1	2	R1216E
1728.721	1.616	1795929	WORD	n/a	wordpools/wordpool_EN.txt	HOUSE	12	15	[0, 0, 0]	n/a	FR1	2	R1216E
1730.337	0.0	1797545	WORD_OFF	n/a	n/a	HOUSE	12	15	[0, 0, 0]	n/a	FR1	2	R1216E
1730.337	0.001	1797545	DISTRACT_START	n/a	n/a	n/a	-999	15	[0, 0, 0]	n/a	FR1	2	R1216E
1730.338	0.016	1797546	START	n/a	n/a	n/a	-999	15	[-999, -999, -999]	n/a	FR1	2	R1216E
1730.354	6.617	1797562	PROB	6.617	n/a	n/a	-999	15	[8, 7, 6]	21	FR1	2	R1216E
1736.971	15.424	1804179	PROB	15.424	n/a	n/a	-999	15	[9, 4, 6]	19	FR1	2	R1216E
1752.395	0.013	1819602	STOP	n/a	n/a	n/a	-999	15	[-999, -999, -999]	n/a	FR1	2	R1216E
1752.408	0.699	1819615	DISTRACT_END	n/a	n/a	n/a	-999	15	[0, 0, 0]	n/a	FR1	2	R1216E
1753.107	0.518	1820314	RETRIEVAL_ORIENT	n/a	n/a	n/a	-999	15	[0, 0, 0]	n/a	FR1	2	R1216E
1753.625	7.091	1820832	REC_START	n/a	n/a	n/a	-999	15	[0, 0, 0]	n/a	FR1	2	R1216E
1760.716	7.368	1827923	REC_WORD	7.368	n/a	BEAR	-999	15	[0, 0, 0]	n/a	FR1	2	R1216E
1768.084	15.552	1835291	REC_WORD	15.552	n/a	HEART	-999	15	[0, 0, 0]	n/a	FR1	2	R1216E
1783.636	4.478	1850842	REC_END	n/a	n/a	n/a	-999	15	[0, 0, 0]	n/a	FR1	2	R1216E
1788.114	0.5	1855320	TRIAL	n/a	n/a	n/a	-999	16	[0, 0, 0]	n/a	FR1	2	R1216E
1788.614	10.428	1855820	COUNTDOWN_START	n/a	n/a	n/a	-999	16	[0, 0, 0]	n/a	FR1	2	R1216E
1799.042	0.006	1866247	COUNTDOWN_END	n/a	n/a	n/a	-999	16	[0, 0, 0]	n/a	FR1	2	R1216E
1799.048	1.602	1866253	ORIENT	n/a	n/a	n/a	-999	16	[0, 0, 0]	n/a	FR1	2	R1216E
1800.65	1.817	1867855	ORIENT_OFF	n/a	n/a	n/a	-999	16	[0, 0, 0]	n/a	FR1	2	R1216E
1802.467	1.616	1869672	WORD	n/a	wordpools/wordpool_EN.txt	FUDGE	1	16	[0, 0, 0]	n/a	FR1	2	R1216E
1804.083	0.817	1871288	WORD_OFF	n/a	n/a	FUDGE	1	16	[0, 0, 0]	n/a	FR1	2	R1216E
1804.9	1.618	1872105	WORD	n/a	wordpools/wordpool_EN.txt	FILM	2	16	[0, 0, 0]	n/a	FR1	2	R1216E
1806.518	0.833	1873723	WORD_OFF	n/a	n/a	FILM	2	16	[0, 0, 0]	n/a	FR1	2	R1216E
1807.351	1.616	1874556	WORD	n/a	wordpools/wordpool_EN.txt	BOAT	3	16	[0, 0, 0]	n/a	FR1	2	R1216E
1808.967	0.85	1876172	WORD_OFF	n/a	n/a	BOAT	3	16	[0, 0, 0]	n/a	FR1	2	R1216E
1809.817	1.618	1877022	WORD	n/a	wordpools/wordpool_EN.txt	PEN	4	16	[0, 0, 0]	n/a	FR1	2	R1216E
1811.435	0.9	1878640	WORD_OFF	n/a	n/a	PEN	4	16	[0, 0, 0]	n/a	FR1	2	R1216E
1812.335	1.616	1879540	WORD	n/a	wordpools/wordpool_EN.txt	PRINCE	5	16	[0, 0, 0]	n/a	FR1	2	R1216E
1813.951	1.0	1881156	WORD_OFF	n/a	n/a	PRINCE	5	16	[0, 0, 0]	n/a	FR1	2	R1216E
1814.951	1.601	1882156	WORD	n/a	wordpools/wordpool_EN.txt	LAMP	6	16	[0, 0, 0]	n/a	FR1	2	R1216E
1816.552	0.817	1883757	WORD_OFF	n/a	n/a	LAMP	6	16	[0, 0, 0]	n/a	FR1	2	R1216E
1817.369	1.616	1884574	WORD	n/a	wordpools/wordpool_EN.txt	CLOUD	7	16	[0, 0, 0]	n/a	FR1	2	R1216E
1818.985	0.8	1886190	WORD_OFF	n/a	n/a	CLOUD	7	16	[0, 0, 0]	n/a	FR1	2	R1216E
1819.785	1.602	1886990	WORD	n/a	wordpools/wordpool_EN.txt	ZOO	8	16	[0, 0, 0]	n/a	FR1	2	R1216E
1821.387	0.95	1888591	WORD_OFF	n/a	n/a	ZOO	8	16	[0, 0, 0]	n/a	FR1	2	R1216E
1822.337	1.616	1889541	WORD	n/a	wordpools/wordpool_EN.txt	MULE	9	16	[0, 0, 0]	n/a	FR1	2	R1216E
1823.953	0.818	1891157	WORD_OFF	n/a	n/a	MULE	9	16	[0, 0, 0]	n/a	FR1	2	R1216E
1824.771	1.617	1891975	WORD	n/a	wordpools/wordpool_EN.txt	ROSE	10	16	[0, 0, 0]	n/a	FR1	2	R1216E
1826.388	0.8	1893592	WORD_OFF	n/a	n/a	ROSE	10	16	[0, 0, 0]	n/a	FR1	2	R1216E
1827.188	1.616	1894392	WORD	n/a	wordpools/wordpool_EN.txt	TOE	11	16	[0, 0, 0]	n/a	FR1	2	R1216E
1828.804	0.983	1896008	WORD_OFF	n/a	n/a	TOE	11	16	[0, 0, 0]	n/a	FR1	2	R1216E
1829.787	1.618	1896991	WORD	n/a	wordpools/wordpool_EN.txt	CORD	12	16	[0, 0, 0]	n/a	FR1	2	R1216E
1831.405	0.0	1898609	WORD_OFF	n/a	n/a	CORD	12	16	[0, 0, 0]	n/a	FR1	2	R1216E
1831.405	0.001	1898609	DISTRACT_START	n/a	n/a	n/a	-999	16	[0, 0, 0]	n/a	FR1	2	R1216E
1831.406	0.016	1898610	START	n/a	n/a	n/a	-999	16	[-999, -999, -999]	n/a	FR1	2	R1216E
1831.422	3.35	1898626	PROB	3.35	n/a	n/a	-999	16	[5, 1, 5]	11	FR1	2	R1216E
1834.772	3.835	1901976	PROB	3.835	n/a	n/a	-999	16	[5, 2, 1]	8	FR1	2	R1216E
1838.607	5.984	1905811	PROB	5.984	n/a	n/a	-999	16	[6, 8, 4]	18	FR1	2	R1216E
1844.591	4.45	1911795	PROB	4.45	n/a	n/a	-999	16	[2, 2, 8]	12	FR1	2	R1216E
1849.041	12.37	1916244	PROB	12.37	n/a	n/a	-999	16	[7, 8, 8]	23	FR1	2	R1216E
1861.411	0.016	1928614	STOP	n/a	n/a	n/a	-999	16	[-999, -999, -999]	n/a	FR1	2	R1216E
1861.427	0.549	1928630	DISTRACT_END	n/a	n/a	n/a	-999	16	[0, 0, 0]	n/a	FR1	2	R1216E
1861.976	0.519	1929179	RETRIEVAL_ORIENT	n/a	n/a	n/a	-999	16	[0, 0, 0]	n/a	FR1	2	R1216E
1862.495	1.602	1929698	REC_START	n/a	n/a	n/a	-999	16	[0, 0, 0]	n/a	FR1	2	R1216E
1864.097	28.407	1931300	REC_WORD	28.407	n/a	ZOO	-999	16	[0, 0, 0]	n/a	FR1	2	R1216E
1892.504	6.063	1959706	REC_END	n/a	n/a	n/a	-999	16	[0, 0, 0]	n/a	FR1	2	R1216E
1898.567	0.5	1965769	TRIAL	n/a	n/a	n/a	-999	17	[0, 0, 0]	n/a	FR1	2	R1216E
1899.067	10.428	1966268	COUNTDOWN_START	n/a	n/a	n/a	-999	17	[0, 0, 0]	n/a	FR1	2	R1216E
1909.495	0.007	1976696	COUNTDOWN_END	n/a	n/a	n/a	-999	17	[0, 0, 0]	n/a	FR1	2	R1216E
1909.502	1.617	1976703	ORIENT	n/a	n/a	n/a	-999	17	[0, 0, 0]	n/a	FR1	2	R1216E
1911.119	2.001	1978320	ORIENT_OFF	n/a	n/a	n/a	-999	17	[0, 0, 0]	n/a	FR1	2	R1216E
1913.12	1.616	1980321	WORD	n/a	wordpools/wordpool_EN.txt	MOLE	1	17	[0, 0, 0]	n/a	FR1	2	R1216E
1914.736	0.95	1981937	WORD_OFF	n/a	n/a	MOLE	1	17	[0, 0, 0]	n/a	FR1	2	R1216E
1915.686	1.618	1982887	WORD	n/a	wordpools/wordpool_EN.txt	ROOT	2	17	[0, 0, 0]	n/a	FR1	2	R1216E
1917.304	0.883	1984505	WORD_OFF	n/a	n/a	ROOT	2	17	[0, 0, 0]	n/a	FR1	2	R1216E
1918.187	1.616	1985388	WORD	n/a	wordpools/wordpool_EN.txt	CLOTH	3	17	[0, 0, 0]	n/a	FR1	2	R1216E
1919.803	0.951	1987004	WORD_OFF	n/a	n/a	CLOTH	3	17	[0, 0, 0]	n/a	FR1	2	R1216E
1920.754	1.617	1987955	WORD	n/a	wordpools/wordpool_EN.txt	HORSE	4	17	[0, 0, 0]	n/a	FR1	2	R1216E
1922.371	0.934	1989572	WORD_OFF	n/a	n/a	HORSE	4	17	[0, 0, 0]	n/a	FR1	2	R1216E
1923.305	1.616	1990506	WORD	n/a	wordpools/wordpool_EN.txt	THUMB	5	17	[0, 0, 0]	n/a	FR1	2	R1216E
1924.921	1.017	1992121	WORD_OFF	n/a	n/a	THUMB	5	17	[0, 0, 0]	n/a	FR1	2	R1216E
1925.938	1.617	1993138	WORD	n/a	wordpools/wordpool_EN.txt	WOLF	6	17	[0, 0, 0]	n/a	FR1	2	R1216E
1927.555	0.867	1994755	WORD_OFF	n/a	n/a	WOLF	6	17	[0, 0, 0]	n/a	FR1	2	R1216E
1928.422	1.616	1995622	WORD	n/a	wordpools/wordpool_EN.txt	SAIL	7	17	[0, 0, 0]	n/a	FR1	2	R1216E
1930.038	0.834	1997238	WORD_OFF	n/a	n/a	SAIL	7	17	[0, 0, 0]	n/a	FR1	2	R1216E
1930.872	1.618	1998072	WORD	n/a	wordpools/wordpool_EN.txt	FORT	8	17	[0, 0, 0]	n/a	FR1	2	R1216E
1932.49	0.833	1999690	WORD_OFF	n/a	n/a	FORT	8	17	[0, 0, 0]	n/a	FR1	2	R1216E
1933.323	1.616	2000523	WORD	n/a	wordpools/wordpool_EN.txt	STONE	9	17	[0, 0, 0]	n/a	FR1	2	R1216E
1934.939	0.835	2002139	WORD_OFF	n/a	n/a	STONE	9	17	[0, 0, 0]	n/a	FR1	2	R1216E
1935.774	1.616	2002974	WORD	n/a	wordpools/wordpool_EN.txt	CLOWN	10	17	[0, 0, 0]	n/a	FR1	2	R1216E
1937.39	0.967	2004590	WORD_OFF	n/a	n/a	CLOWN	10	17	[0, 0, 0]	n/a	FR1	2	R1216E
1938.357	1.616	2005557	WORD	n/a	wordpools/wordpool_EN.txt	WHEEL	11	17	[0, 0, 0]	n/a	FR1	2	R1216E
1939.973	0.768	2007173	WORD_OFF	n/a	n/a	WHEEL	11	17	[0, 0, 0]	n/a	FR1	2	R1216E
1940.741	1.617	2007941	WORD	n/a	wordpools/wordpool_EN.txt	PEA	12	17	[0, 0, 0]	n/a	FR1	2	R1216E
1942.358	0.0	2009558	WORD_OFF	n/a	n/a	PEA	12	17	[0, 0, 0]	n/a	FR1	2	R1216E
1942.358	0.001	2009558	DISTRACT_START	n/a	n/a	n/a	-999	17	[0, 0, 0]	n/a	FR1	2	R1216E
1942.359	0.016	2009559	START	n/a	n/a	n/a	-999	17	[-999, -999, -999]	n/a	FR1	2	R1216E
1942.375	8.684	2009575	PROB	8.684	n/a	n/a	-999	17	[3, 2, 9]	14	FR1	2	R1216E
1951.059	3.251	2018258	PROB	3.251	n/a	n/a	-999	17	[1, 9, 1]	11	FR1	2	R1216E
1954.31	5.784	2021509	PROB	5.784	n/a	n/a	-999	17	[5, 7, 8]	20	FR1	2	R1216E
1960.094	4.939	2027293	PROB	4.939	n/a	n/a	-999	17	[2, 1, 5]	8	FR1	2	R1216E
1965.033	0.011	2032232	STOP	n/a	n/a	n/a	-999	17	[-999, -999, -999]	n/a	FR1	2	R1216E
1965.044	0.635	2032243	DISTRACT_END	n/a	n/a	n/a	-999	17	[0, 0, 0]	n/a	FR1	2	R1216E
1965.679	0.517	2032878	RETRIEVAL_ORIENT	n/a	n/a	n/a	-999	17	[0, 0, 0]	n/a	FR1	2	R1216E
1966.196	0.69	2033395	REC_START	n/a	n/a	n/a	-999	17	[0, 0, 0]	n/a	FR1	2	R1216E
1966.886	1.57	2034085	REC_WORD	1.57	n/a	MOLE	-999	17	[0, 0, 0]	n/a	FR1	2	R1216E
1968.456	1.0	2035655	REC_WORD	1.0	n/a	ROOT	-999	17	[0, 0, 0]	n/a	FR1	2	R1216E
1969.456	26.751	2036655	REC_WORD_VV	26.751	n/a	<>	-999	17	[0, 0, 0]	n/a	FR1	2	R1216E
1996.207	6.312	2063405	REC_END	n/a	n/a	n/a	-999	17	[0, 0, 0]	n/a	FR1	2	R1216E
2002.519	0.5	2069717	TRIAL	n/a	n/a	n/a	-999	18	[0, 0, 0]	n/a	FR1	2	R1216E
2003.019	10.428	2070216	COUNTDOWN_START	n/a	n/a	n/a	-999	18	[0, 0, 0]	n/a	FR1	2	R1216E
2013.447	0.007	2080644	COUNTDOWN_END	n/a	n/a	n/a	-999	18	[0, 0, 0]	n/a	FR1	2	R1216E
2013.454	1.616	2080651	ORIENT	n/a	n/a	n/a	-999	18	[0, 0, 0]	n/a	FR1	2	R1216E
2015.07	2.033	2082267	ORIENT_OFF	n/a	n/a	n/a	-999	18	[0, 0, 0]	n/a	FR1	2	R1216E
2017.103	1.618	2084300	WORD	n/a	wordpools/wordpool_EN.txt	SALT	1	18	[0, 0, 0]	n/a	FR1	2	R1216E
2018.721	0.784	2085918	WORD_OFF	n/a	n/a	SALT	1	18	[0, 0, 0]	n/a	FR1	2	R1216E
2019.505	1.617	2086702	WORD	n/a	wordpools/wordpool_EN.txt	CUBE	2	18	[0, 0, 0]	n/a	FR1	2	R1216E
2021.122	0.849	2088319	WORD_OFF	n/a	n/a	CUBE	2	18	[0, 0, 0]	n/a	FR1	2	R1216E
2021.971	1.618	2089168	WORD	n/a	wordpools/wordpool_EN.txt	VEST	3	18	[0, 0, 0]	n/a	FR1	2	R1216E
2023.589	0.9	2090786	WORD_OFF	n/a	n/a	VEST	3	18	[0, 0, 0]	n/a	FR1	2	R1216E
2024.489	1.616	2091686	WORD	n/a	wordpools/wordpool_EN.txt	ROOM	4	18	[0, 0, 0]	n/a	FR1	2	R1216E
2026.105	0.884	2093302	WORD_OFF	n/a	n/a	ROOM	4	18	[0, 0, 0]	n/a	FR1	2	R1216E
2026.989	1.617	2094186	WORD	n/a	wordpools/wordpool_EN.txt	DEER	5	18	[0, 0, 0]	n/a	FR1	2	R1216E
2028.606	0.951	2095803	WORD_OFF	n/a	n/a	DEER	5	18	[0, 0, 0]	n/a	FR1	2	R1216E
2029.557	1.617	2096753	WORD	n/a	wordpools/wordpool_EN.txt	TOOL	6	18	[0, 0, 0]	n/a	FR1	2	R1216E
2031.174	0.915	2098370	WORD_OFF	n/a	n/a	TOOL	6	18	[0, 0, 0]	n/a	FR1	2	R1216E
2032.089	1.618	2099285	WORD	n/a	wordpools/wordpool_EN.txt	PIPE	7	18	[0, 0, 0]	n/a	FR1	2	R1216E
2033.707	0.851	2100903	WORD_OFF	n/a	n/a	PIPE	7	18	[0, 0, 0]	n/a	FR1	2	R1216E
2034.558	1.616	2101754	WORD	n/a	wordpools/wordpool_EN.txt	JAIL	8	18	[0, 0, 0]	n/a	FR1	2	R1216E
2036.174	0.9	2103370	WORD_OFF	n/a	n/a	JAIL	8	18	[0, 0, 0]	n/a	FR1	2	R1216E
2037.074	1.618	2104270	WORD	n/a	wordpools/wordpool_EN.txt	SEAL	9	18	[0, 0, 0]	n/a	FR1	2	R1216E
2038.692	0.8	2105888	WORD_OFF	n/a	n/a	SEAL	9	18	[0, 0, 0]	n/a	FR1	2	R1216E
2039.492	1.616	2106688	WORD	n/a	wordpools/wordpool_EN.txt	CHIN	10	18	[0, 0, 0]	n/a	FR1	2	R1216E
2041.108	0.833	2108304	WORD_OFF	n/a	n/a	CHIN	10	18	[0, 0, 0]	n/a	FR1	2	R1216E
2041.941	1.618	2109137	WORD	n/a	wordpools/wordpool_EN.txt	BUSH	11	18	[0, 0, 0]	n/a	FR1	2	R1216E
2043.559	0.867	2110755	WORD_OFF	n/a	n/a	BUSH	11	18	[0, 0, 0]	n/a	FR1	2	R1216E
2044.426	1.616	2111622	WORD	n/a	wordpools/wordpool_EN.txt	STRAW	12	18	[0, 0, 0]	n/a	FR1	2	R1216E
2046.042	0.0	2113238	WORD_OFF	n/a	n/a	STRAW	12	18	[0, 0, 0]	n/a	FR1	2	R1216E
2046.042	0.001	2113238	DISTRACT_START	n/a	n/a	n/a	-999	18	[0, 0, 0]	n/a	FR1	2	R1216E
2046.043	0.016	2113239	START	n/a	n/a	n/a	-999	18	[-999, -999, -999]	n/a	FR1	2	R1216E
2046.059	10.818	2113255	PROB	10.818	n/a	n/a	-999	18	[8, 8, 6]	22	FR1	2	R1216E
2056.877	15.993	2124072	PROB	15.993	n/a	n/a	-999	18	[2, 9, 4]	15	FR1	2	R1216E
2072.87	0.01	2140065	STOP	n/a	n/a	n/a	-999	18	[-999, -999, -999]	n/a	FR1	2	R1216E
2072.88	0.568	2140075	DISTRACT_END	n/a	n/a	n/a	-999	18	[0, 0, 0]	n/a	FR1	2	R1216E
2073.448	0.516	2140643	RETRIEVAL_ORIENT	n/a	n/a	n/a	-999	18	[0, 0, 0]	n/a	FR1	2	R1216E
2073.964	2.092	2141159	REC_START	n/a	n/a	n/a	-999	18	[0, 0, 0]	n/a	FR1	2	R1216E
2076.056	27.918	2143251	REC_WORD	27.918	n/a	ROOM	-999	18	[0, 0, 0]	n/a	FR1	2	R1216E
2103.974	6.197	2171168	REC_END	n/a	n/a	n/a	-999	18	[0, 0, 0]	n/a	FR1	2	R1216E
2110.171	0.5	2177364	TRIAL	n/a	n/a	n/a	-999	19	[0, 0, 0]	n/a	FR1	2	R1216E
2110.671	10.428	2177864	COUNTDOWN_START	n/a	n/a	n/a	-999	19	[0, 0, 0]	n/a	FR1	2	R1216E
2121.099	0.006	2188292	COUNTDOWN_END	n/a	n/a	n/a	-999	19	[0, 0, 0]	n/a	FR1	2	R1216E
2121.105	1.601	2188298	ORIENT	n/a	n/a	n/a	-999	19	[0, 0, 0]	n/a	FR1	2	R1216E
2122.706	2.333	2189899	ORIENT_OFF	n/a	n/a	n/a	-999	19	[0, 0, 0]	n/a	FR1	2	R1216E
2125.039	1.618	2192232	WORD	n/a	wordpools/wordpool_EN.txt	AXE	1	19	[0, 0, 0]	n/a	FR1	2	R1216E
2126.657	0.884	2193850	WORD_OFF	n/a	n/a	AXE	1	19	[0, 0, 0]	n/a	FR1	2	R1216E
2127.541	1.617	2194734	WORD	n/a	wordpools/wordpool_EN.txt	ROOF	2	19	[0, 0, 0]	n/a	FR1	2	R1216E
2129.158	1.0	2196351	WORD_OFF	n/a	n/a	ROOF	2	19	[0, 0, 0]	n/a	FR1	2	R1216E
2130.158	1.617	2197351	WORD	n/a	wordpools/wordpool_EN.txt	MOUSE	3	19	[0, 0, 0]	n/a	FR1	2	R1216E
2131.775	0.916	2198968	WORD_OFF	n/a	n/a	MOUSE	3	19	[0, 0, 0]	n/a	FR1	2	R1216E
2132.691	1.617	2199884	WORD	n/a	wordpools/wordpool_EN.txt	FENCE	4	19	[0, 0, 0]	n/a	FR1	2	R1216E
2134.308	0.783	2201500	WORD_OFF	n/a	n/a	FENCE	4	19	[0, 0, 0]	n/a	FR1	2	R1216E
2135.091	1.618	2202283	WORD	n/a	wordpools/wordpool_EN.txt	PIT	5	19	[0, 0, 0]	n/a	FR1	2	R1216E
2136.709	0.917	2203901	WORD_OFF	n/a	n/a	PIT	5	19	[0, 0, 0]	n/a	FR1	2	R1216E
2137.626	1.617	2204818	WORD	n/a	wordpools/wordpool_EN.txt	MILK	6	19	[0, 0, 0]	n/a	FR1	2	R1216E
2139.243	0.883	2206435	WORD_OFF	n/a	n/a	MILK	6	19	[0, 0, 0]	n/a	FR1	2	R1216E
2140.126	1.617	2207318	WORD	n/a	wordpools/wordpool_EN.txt	SHOE	7	19	[0, 0, 0]	n/a	FR1	2	R1216E
2141.743	0.95	2208935	WORD_OFF	n/a	n/a	SHOE	7	19	[0, 0, 0]	n/a	FR1	2	R1216E
2142.693	1.617	2209885	WORD	n/a	wordpools/wordpool_EN.txt	CART	8	19	[0, 0, 0]	n/a	FR1	2	R1216E
2144.31	1.017	2211502	WORD_OFF	n/a	n/a	CART	8	19	[0, 0, 0]	n/a	FR1	2	R1216E
2145.327	1.616	2212519	WORD	n/a	wordpools/wordpool_EN.txt	VASE	9	19	[0, 0, 0]	n/a	FR1	2	R1216E
2146.943	0.95	2214135	WORD_OFF	n/a	n/a	VASE	9	19	[0, 0, 0]	n/a	FR1	2	R1216E
2147.893	1.601	2215085	WORD	n/a	wordpools/wordpool_EN.txt	SIGN	10	19	[0, 0, 0]	n/a	FR1	2	R1216E
2149.494	0.867	2216686	WORD_OFF	n/a	n/a	SIGN	10	19	[0, 0, 0]	n/a	FR1	2	R1216E
2150.361	1.616	2217553	WORD	n/a	wordpools/wordpool_EN.txt	FLAME	11	19	[0, 0, 0]	n/a	FR1	2	R1216E
2151.977	0.867	2219169	WORD_OFF	n/a	n/a	FLAME	11	19	[0, 0, 0]	n/a	FR1	2	R1216E
2152.844	1.618	2220036	WORD	n/a	wordpools/wordpool_EN.txt	BLUSH	12	19	[0, 0, 0]	n/a	FR1	2	R1216E
2154.462	0.0	2221654	WORD_OFF	n/a	n/a	BLUSH	12	19	[0, 0, 0]	n/a	FR1	2	R1216E
2154.462	0.001	2221654	DISTRACT_START	n/a	n/a	n/a	-999	19	[0, 0, 0]	n/a	FR1	2	R1216E
2154.463	0.016	2221655	START	n/a	n/a	n/a	-999	19	[-999, -999, -999]	n/a	FR1	2	R1216E
2154.479	5.151	2221671	PROB	5.151	n/a	n/a	-999	19	[2, 5, 1]	8	FR1	2	R1216E
2159.63	4.416	2226821	PROB	4.416	n/a	n/a	-999	19	[7, 1, 6]	14	FR1	2	R1216E
2164.046	6.635	2231237	PROB	6.635	n/a	n/a	-999	19	[8, 1, 6]	15	FR1	2	R1216E
2170.681	11.075	2237872	PROB	11.075	n/a	n/a	-999	19	[4, 7, 3]	14	FR1	2	R1216E
2181.756	0.011	2248947	STOP	n/a	n/a	n/a	-999	19	[-999, -999, -999]	n/a	FR1	2	R1216E
2181.767	0.6	2248958	DISTRACT_END	n/a	n/a	n/a	-999	19	[0, 0, 0]	n/a	FR1	2	R1216E
2182.367	0.516	2249558	RETRIEVAL_ORIENT	n/a	n/a	n/a	-999	19	[0, 0, 0]	n/a	FR1	2	R1216E
2182.883	1.502	2250074	REC_START	n/a	n/a	n/a	-999	19	[0, 0, 0]	n/a	FR1	2	R1216E
2184.385	1.0	2251576	REC_WORD	1.0	n/a	BLUSH	-999	19	[0, 0, 0]	n/a	FR1	2	R1216E
2185.385	27.51	2252575	REC_WORD_VV	27.51	n/a	<>	-999	19	[0, 0, 0]	n/a	FR1	2	R1216E
2212.895	7.545	2280084	REC_END	n/a	n/a	n/a	-999	19	[0, 0, 0]	n/a	FR1	2	R1216E
2220.44	0.5	2287629	TRIAL	n/a	n/a	n/a	-999	20	[0, 0, 0]	n/a	FR1	2	R1216E
2220.94	10.428	2288129	COUNTDOWN_START	n/a	n/a	n/a	-999	20	[0, 0, 0]	n/a	FR1	2	R1216E
2231.368	0.007	2298557	COUNTDOWN_END	n/a	n/a	n/a	-999	20	[0, 0, 0]	n/a	FR1	2	R1216E
2231.375	1.616	2298564	ORIENT	n/a	n/a	n/a	-999	20	[0, 0, 0]	n/a	FR1	2	R1216E
2232.991	2.285	2300180	ORIENT_OFF	n/a	n/a	n/a	-999	20	[0, 0, 0]	n/a	FR1	2	R1216E
2235.276	1.616	2302465	WORD	n/a	wordpools/wordpool_EN.txt	POND	1	20	[0, 0, 0]	n/a	FR1	2	R1216E
2236.892	0.9	2304080	WORD_OFF	n/a	n/a	POND	1	20	[0, 0, 0]	n/a	FR1	2	R1216E
2237.792	1.618	2304980	WORD	n/a	wordpools/wordpool_EN.txt	BANK	2	20	[0, 0, 0]	n/a	FR1	2	R1216E
2239.41	0.817	2306598	WORD_OFF	n/a	n/a	BANK	2	20	[0, 0, 0]	n/a	FR1	2	R1216E
2240.227	1.616	2307415	WORD	n/a	wordpools/wordpool_EN.txt	STAIR	3	20	[0, 0, 0]	n/a	FR1	2	R1216E
2241.843	0.884	2309031	WORD_OFF	n/a	n/a	STAIR	3	20	[0, 0, 0]	n/a	FR1	2	R1216E
2242.727	1.617	2309915	WORD	n/a	wordpools/wordpool_EN.txt	MUG	4	20	[0, 0, 0]	n/a	FR1	2	R1216E
2244.344	1.0	2311532	WORD_OFF	n/a	n/a	MUG	4	20	[0, 0, 0]	n/a	FR1	2	R1216E
2245.344	1.617	2312532	WORD	n/a	wordpools/wordpool_EN.txt	CONE	5	20	[0, 0, 0]	n/a	FR1	2	R1216E
2246.961	0.9	2314149	WORD_OFF	n/a	n/a	CONE	5	20	[0, 0, 0]	n/a	FR1	2	R1216E
2247.861	1.618	2315049	WORD	n/a	wordpools/wordpool_EN.txt	VAN	6	20	[0, 0, 0]	n/a	FR1	2	R1216E
2249.479	0.983	2316667	WORD_OFF	n/a	n/a	VAN	6	20	[0, 0, 0]	n/a	FR1	2	R1216E
2250.462	1.616	2317650	WORD	n/a	wordpools/wordpool_EN.txt	ROAD	7	20	[0, 0, 0]	n/a	FR1	2	R1216E
2252.078	0.867	2319266	WORD_OFF	n/a	n/a	ROAD	7	20	[0, 0, 0]	n/a	FR1	2	R1216E
2252.945	1.618	2320133	WORD	n/a	wordpools/wordpool_EN.txt	SUIT	8	20	[0, 0, 0]	n/a	FR1	2	R1216E
2254.563	0.783	2321751	WORD_OFF	n/a	n/a	SUIT	8	20	[0, 0, 0]	n/a	FR1	2	R1216E
2255.346	1.616	2322534	WORD	n/a	wordpools/wordpool_EN.txt	YARD	9	20	[0, 0, 0]	n/a	FR1	2	R1216E
2256.962	0.817	2324150	WORD_OFF	n/a	n/a	YARD	9	20	[0, 0, 0]	n/a	FR1	2	R1216E
2257.779	1.618	2324967	WORD	n/a	wordpools/wordpool_EN.txt	TOY	10	20	[0, 0, 0]	n/a	FR1	2	R1216E
2259.397	0.834	2326585	WORD_OFF	n/a	n/a	TOY	10	20	[0, 0, 0]	n/a	FR1	2	R1216E
2260.231	1.615	2327419	WORD	n/a	wordpools/wordpool_EN.txt	WEB	11	20	[0, 0, 0]	n/a	FR1	2	R1216E
2261.846	0.918	2329034	WORD_OFF	n/a	n/a	WEB	11	20	[0, 0, 0]	n/a	FR1	2	R1216E
2262.764	1.617	2329952	WORD	n/a	wordpools/wordpool_EN.txt	JAR	12	20	[0, 0, 0]	n/a	FR1	2	R1216E
2264.381	0.0	2331568	WORD_OFF	n/a	n/a	JAR	12	20	[0, 0, 0]	n/a	FR1	2	R1216E
2264.381	0.001	2331568	DISTRACT_START	n/a	n/a	n/a	-999	20	[0, 0, 0]	n/a	FR1	2	R1216E
2264.382	0.016	2331569	START	n/a	n/a	n/a	-999	20	[-999, -999, -999]	n/a	FR1	2	R1216E
2264.398	12.352	2331585	PROB	12.352	n/a	n/a	-999	20	[9, 9, 5]	23	FR1	2	R1216E
2276.75	11.138	2343937	PROB	11.138	n/a	n/a	-999	20	[8, 6, 3]	17	FR1	2	R1216E
2287.888	0.013	2355075	STOP	n/a	n/a	n/a	-999	20	[-999, -999, -999]	n/a	FR1	2	R1216E
2287.901	0.568	2355088	DISTRACT_END	n/a	n/a	n/a	-999	20	[0, 0, 0]	n/a	FR1	2	R1216E
2288.469	0.516	2355656	RETRIEVAL_ORIENT	n/a	n/a	n/a	-999	20	[0, 0, 0]	n/a	FR1	2	R1216E
2288.985	30.0	2356171	REC_START	n/a	n/a	n/a	-999	20	[0, 0, 0]	n/a	FR1	2	R1216E
2318.985	0.011	2386170	REC_WORD_VV	0.011	n/a	<>	-999	20	[0, 0, 0]	n/a	FR1	2	R1216E
2318.996	5.828	2386181	REC_END	n/a	n/a	n/a	-999	20	[0, 0, 0]	n/a	FR1	2	R1216E
2324.824	0.5	2392009	TRIAL	n/a	n/a	n/a	-999	21	[0, 0, 0]	n/a	FR1	2	R1216E
2325.324	10.428	2392509	COUNTDOWN_START	n/a	n/a	n/a	-999	21	[0, 0, 0]	n/a	FR1	2	R1216E
2335.752	0.008	2402937	COUNTDOWN_END	n/a	n/a	n/a	-999	21	[0, 0, 0]	n/a	FR1	2	R1216E
2335.76	1.617	2402945	ORIENT	n/a	n/a	n/a	-999	21	[0, 0, 0]	n/a	FR1	2	R1216E
2337.377	1.901	2404562	ORIENT_OFF	n/a	n/a	n/a	-999	21	[0, 0, 0]	n/a	FR1	2	R1216E
2339.278	1.616	2406463	WORD	n/a	wordpools/wordpool_EN.txt	SPOON	1	21	[0, 0, 0]	n/a	FR1	2	R1216E
2340.894	0.767	2408079	WORD_OFF	n/a	n/a	SPOON	1	21	[0, 0, 0]	n/a	FR1	2	R1216E
2341.661	1.617	2408845	WORD	n/a	wordpools/wordpool_EN.txt	DART	2	21	[0, 0, 0]	n/a	FR1	2	R1216E
2343.278	0.884	2410462	WORD_OFF	n/a	n/a	DART	2	21	[0, 0, 0]	n/a	FR1	2	R1216E
2344.162	1.617	2411346	WORD	n/a	wordpools/wordpool_EN.txt	BARN	3	21	[0, 0, 0]	n/a	FR1	2	R1216E
2345.779	0.766	2412963	WORD_OFF	n/a	n/a	BARN	3	21	[0, 0, 0]	n/a	FR1	2	R1216E
2346.545	1.601	2413729	WORD	n/a	wordpools/wordpool_EN.txt	THREAD	4	21	[0, 0, 0]	n/a	FR1	2	R1216E
2348.146	0.782	2415330	WORD_OFF	n/a	n/a	THREAD	4	21	[0, 0, 0]	n/a	FR1	2	R1216E
2348.928	1.618	2416112	WORD	n/a	wordpools/wordpool_EN.txt	TIE	5	21	[0, 0, 0]	n/a	FR1	2	R1216E
2350.546	0.917	2417730	WORD_OFF	n/a	n/a	TIE	5	21	[0, 0, 0]	n/a	FR1	2	R1216E
2351.463	1.616	2418647	WORD	n/a	wordpools/wordpool_EN.txt	MAT	6	21	[0, 0, 0]	n/a	FR1	2	R1216E
2353.079	1.0	2420263	WORD_OFF	n/a	n/a	MAT	6	21	[0, 0, 0]	n/a	FR1	2	R1216E
2354.079	1.618	2421263	WORD	n/a	wordpools/wordpool_EN.txt	CAKE	7	21	[0, 0, 0]	n/a	FR1	2	R1216E
2355.697	0.784	2422881	WORD_OFF	n/a	n/a	CAKE	7	21	[0, 0, 0]	n/a	FR1	2	R1216E
2356.481	1.616	2423665	WORD	n/a	wordpools/wordpool_EN.txt	STICK	8	21	[0, 0, 0]	n/a	FR1	2	R1216E
2358.097	0.95	2425281	WORD_OFF	n/a	n/a	STICK	8	21	[0, 0, 0]	n/a	FR1	2	R1216E
2359.047	1.618	2426231	WORD	n/a	wordpools/wordpool_EN.txt	BEAN	9	21	[0, 0, 0]	n/a	FR1	2	R1216E
2360.665	0.933	2427849	WORD_OFF	n/a	n/a	BEAN	9	21	[0, 0, 0]	n/a	FR1	2	R1216E
2361.598	1.617	2428782	WORD	n/a	wordpools/wordpool_EN.txt	NAIL	10	21	[0, 0, 0]	n/a	FR1	2	R1216E
2363.215	0.833	2430399	WORD_OFF	n/a	n/a	NAIL	10	21	[0, 0, 0]	n/a	FR1	2	R1216E
2364.048	1.618	2431232	WORD	n/a	wordpools/wordpool_EN.txt	SPRING	11	21	[0, 0, 0]	n/a	FR1	2	R1216E
2365.666	0.85	2432850	WORD_OFF	n/a	n/a	SPRING	11	21	[0, 0, 0]	n/a	FR1	2	R1216E
2366.516	1.617	2433700	WORD	n/a	wordpools/wordpool_EN.txt	CANE	12	21	[0, 0, 0]	n/a	FR1	2	R1216E
2368.133	0.0	2435316	WORD_OFF	n/a	n/a	CANE	12	21	[0, 0, 0]	n/a	FR1	2	R1216E
2368.133	0.001	2435316	DISTRACT_START	n/a	n/a	n/a	-999	21	[0, 0, 0]	n/a	FR1	2	R1216E
2368.134	0.016	2435317	START	n/a	n/a	n/a	-999	21	[-999, -999, -999]	n/a	FR1	2	R1216E
2368.15	18.718	2435333	PROB	18.718	n/a	n/a	-999	21	[6, 3, 7]	16	FR1	2	R1216E
2386.868	18.373	2454051	PROB	18.373	n/a	n/a	-999	21	[8, 9, 7]	24	FR1	2	R1216E
2405.241	0.015	2472423	STOP	n/a	n/a	n/a	-999	21	[-999, -999, -999]	n/a	FR1	2	R1216E
2405.256	0.549	2472438	DISTRACT_END	n/a	n/a	n/a	-999	21	[0, 0, 0]	n/a	FR1	2	R1216E
2405.805	0.519	2472987	RETRIEVAL_ORIENT	n/a	n/a	n/a	-999	21	[0, 0, 0]	n/a	FR1	2	R1216E
2406.324	17.312	2473506	REC_START	n/a	n/a	n/a	-999	21	[0, 0, 0]	n/a	FR1	2	R1216E
2423.636	12.697	2490817	REC_WORD	12.697	n/a	CANE	-999	21	[0, 0, 0]	n/a	FR1	2	R1216E
2436.333	6.28	2503514	REC_END	n/a	n/a	n/a	-999	21	[0, 0, 0]	n/a	FR1	2	R1216E
2442.613	0.5	2509794	TRIAL	n/a	n/a	n/a	-999	22	[0, 0, 0]	n/a	FR1	2	R1216E
2443.113	10.428	2510294	COUNTDOWN_START	n/a	n/a	n/a	-999	22	[0, 0, 0]	n/a	FR1	2	R1216E
2453.541	0.007	2520721	COUNTDOWN_END	n/a	n/a	n/a	-999	22	[0, 0, 0]	n/a	FR1	2	R1216E
2453.548	1.617	2520728	ORIENT	n/a	n/a	n/a	-999	22	[0, 0, 0]	n/a	FR1	2	R1216E
2455.165	1.882	2522345	ORIENT_OFF	n/a	n/a	n/a	-999	22	[0, 0, 0]	n/a	FR1	2	R1216E
2457.047	1.601	2524227	WORD	n/a	wordpools/wordpool_EN.txt	SLEEVE	1	22	[0, 0, 0]	n/a	FR1	2	R1216E
2458.648	0.884	2525828	WORD_OFF	n/a	n/a	SLEEVE	1	22	[0, 0, 0]	n/a	FR1	2	R1216E
2459.532	1.617	2526712	WORD	n/a	wordpools/wordpool_EN.txt	FARM	2	22	[0, 0, 0]	n/a	FR1	2	R1216E
2461.149	0.783	2528329	WORD_OFF	n/a	n/a	FARM	2	22	[0, 0, 0]	n/a	FR1	2	R1216E
2461.932	1.618	2529112	WORD	n/a	wordpools/wordpool_EN.txt	LOCK	3	22	[0, 0, 0]	n/a	FR1	2	R1216E
2463.55	0.916	2530730	WORD_OFF	n/a	n/a	LOCK	3	22	[0, 0, 0]	n/a	FR1	2	R1216E
2464.466	1.616	2531646	WORD	n/a	wordpools/wordpool_EN.txt	EAR	4	22	[0, 0, 0]	n/a	FR1	2	R1216E
2466.082	0.884	2533262	WORD_OFF	n/a	n/a	EAR	4	22	[0, 0, 0]	n/a	FR1	2	R1216E
2466.966	1.618	2534146	WORD	n/a	wordpools/wordpool_EN.txt	SEAT	5	22	[0, 0, 0]	n/a	FR1	2	R1216E
2468.584	0.783	2535764	WORD_OFF	n/a	n/a	SEAT	5	22	[0, 0, 0]	n/a	FR1	2	R1216E
2469.367	1.616	2536547	WORD	n/a	wordpools/wordpool_EN.txt	CRANE	6	22	[0, 0, 0]	n/a	FR1	2	R1216E
2470.983	0.934	2538163	WORD_OFF	n/a	n/a	CRANE	6	22	[0, 0, 0]	n/a	FR1	2	R1216E
2471.917	1.618	2539096	WORD	n/a	wordpools/wordpool_EN.txt	JUICE	7	22	[0, 0, 0]	n/a	FR1	2	R1216E
2473.535	0.883	2540714	WORD_OFF	n/a	n/a	JUICE	7	22	[0, 0, 0]	n/a	FR1	2	R1216E
2474.418	1.616	2541597	WORD	n/a	wordpools/wordpool_EN.txt	CORN	8	22	[0, 0, 0]	n/a	FR1	2	R1216E
2476.034	0.934	2543213	WORD_OFF	n/a	n/a	CORN	8	22	[0, 0, 0]	n/a	FR1	2	R1216E
2476.968	1.618	2544147	WORD	n/a	wordpools/wordpool_EN.txt	GRAPE	9	22	[0, 0, 0]	n/a	FR1	2	R1216E
2478.586	0.833	2545765	WORD_OFF	n/a	n/a	GRAPE	9	22	[0, 0, 0]	n/a	FR1	2	R1216E
2479.419	1.616	2546598	WORD	n/a	wordpools/wordpool_EN.txt	CAVE	10	22	[0, 0, 0]	n/a	FR1	2	R1216E
2481.035	0.85	2548214	WORD_OFF	n/a	n/a	CAVE	10	22	[0, 0, 0]	n/a	FR1	2	R1216E
2481.885	1.618	2549064	WORD	n/a	wordpools/wordpool_EN.txt	WAND	11	22	[0, 0, 0]	n/a	FR1	2	R1216E
2483.503	0.784	2550682	WORD_OFF	n/a	n/a	WAND	11	22	[0, 0, 0]	n/a	FR1	2	R1216E
2484.287	1.615	2551466	WORD	n/a	wordpools/wordpool_EN.txt	COUCH	12	22	[0, 0, 0]	n/a	FR1	2	R1216E
2485.902	0.0	2553081	WORD_OFF	n/a	n/a	COUCH	12	22	[0, 0, 0]	n/a	FR1	2	R1216E
2485.902	0.001	2553081	DISTRACT_START	n/a	n/a	n/a	-999	22	[0, 0, 0]	n/a	FR1	2	R1216E
2485.903	0.016	2553082	START	n/a	n/a	n/a	-999	22	[-999, -999, -999]	n/a	FR1	2	R1216E
2485.919	7.636	2553098	PROB	7.636	n/a	n/a	-999	22	[4, 9, 4]	17	FR1	2	R1216E
2493.555	9.467	2560734	PROB	9.467	n/a	n/a	-999	22	[7, 2, 4]	13	FR1	2	R1216E
2503.022	10.744	2570200	PROB	10.744	n/a	n/a	-999	22	[5, 3, 8]	16	FR1	2	R1216E
2513.766	0.009	2580944	STOP	n/a	n/a	n/a	-999	22	[-999, -999, -999]	n/a	FR1	2	R1216E
2513.775	0.534	2580953	DISTRACT_END	n/a	n/a	n/a	-999	22	[0, 0, 0]	n/a	FR1	2	R1216E
2514.309	0.516	2581487	RETRIEVAL_ORIENT	n/a	n/a	n/a	-999	22	[0, 0, 0]	n/a	FR1	2	R1216E
2514.825	1.524	2582003	REC_START	n/a	n/a	n/a	-999	22	[0, 0, 0]	n/a	FR1	2	R1216E
2516.349	1.0	2583527	REC_WORD	1.0	n/a	COUCH	-999	22	[0, 0, 0]	n/a	FR1	2	R1216E
2517.349	6.018	2584527	REC_WORD_VV	6.018	n/a	<>	-999	22	[0, 0, 0]	n/a	FR1	2	R1216E
2523.367	21.468	2590544	REC_WORD	21.468	n/a	CRANE	-999	22	[0, 0, 0]	n/a	FR1	2	R1216E
2544.835	5.93	2612012	REC_END	n/a	n/a	n/a	-999	22	[0, 0, 0]	n/a	FR1	2	R1216E
2550.765	0.5	2617941	TRIAL	n/a	n/a	n/a	-999	23	[0, 0, 0]	n/a	FR1	2	R1216E
2551.265	10.428	2618441	COUNTDOWN_START	n/a	n/a	n/a	-999	23	[0, 0, 0]	n/a	FR1	2	R1216E
2561.693	0.007	2628869	COUNTDOWN_END	n/a	n/a	n/a	-999	23	[0, 0, 0]	n/a	FR1	2	R1216E
2561.7	1.617	2628876	ORIENT	n/a	n/a	n/a	-999	23	[0, 0, 0]	n/a	FR1	2	R1216E
2563.317	1.95	2630493	ORIENT_OFF	n/a	n/a	n/a	-999	23	[0, 0, 0]	n/a	FR1	2	R1216E
2565.267	1.616	2632443	WORD	n/a	wordpools/wordpool_EN.txt	KITE	1	23	[0, 0, 0]	n/a	FR1	2	R1216E
2566.883	0.885	2634059	WORD_OFF	n/a	n/a	KITE	1	23	[0, 0, 0]	n/a	FR1	2	R1216E
2567.768	1.617	2634944	WORD	n/a	wordpools/wordpool_EN.txt	HORN	2	23	[0, 0, 0]	n/a	FR1	2	R1216E
2569.385	0.983	2636561	WORD_OFF	n/a	n/a	HORN	2	23	[0, 0, 0]	n/a	FR1	2	R1216E
2570.368	1.616	2637544	WORD	n/a	wordpools/wordpool_EN.txt	PLATE	3	23	[0, 0, 0]	n/a	FR1	2	R1216E
2571.984	0.934	2639160	WORD_OFF	n/a	n/a	PLATE	3	23	[0, 0, 0]	n/a	FR1	2	R1216E
2572.918	1.618	2640094	WORD	n/a	wordpools/wordpool_EN.txt	STOOL	4	23	[0, 0, 0]	n/a	FR1	2	R1216E
2574.536	0.9	2641712	WORD_OFF	n/a	n/a	STOOL	4	23	[0, 0, 0]	n/a	FR1	2	R1216E
2575.436	1.616	2642611	WORD	n/a	wordpools/wordpool_EN.txt	GLOVE	5	23	[0, 0, 0]	n/a	FR1	2	R1216E
2577.052	0.783	2644227	WORD_OFF	n/a	n/a	GLOVE	5	23	[0, 0, 0]	n/a	FR1	2	R1216E
2577.835	1.618	2645010	WORD	n/a	wordpools/wordpool_EN.txt	PEACH	6	23	[0, 0, 0]	n/a	FR1	2	R1216E
2579.453	0.867	2646628	WORD_OFF	n/a	n/a	PEACH	6	23	[0, 0, 0]	n/a	FR1	2	R1216E
2580.32	1.616	2647495	WORD	n/a	wordpools/wordpool_EN.txt	CAPE	7	23	[0, 0, 0]	n/a	FR1	2	R1216E
2581.936	0.818	2649111	WORD_OFF	n/a	n/a	CAPE	7	23	[0, 0, 0]	n/a	FR1	2	R1216E
2582.754	1.617	2649929	WORD	n/a	wordpools/wordpool_EN.txt	VINE	8	23	[0, 0, 0]	n/a	FR1	2	R1216E
2584.371	0.883	2651546	WORD_OFF	n/a	n/a	VINE	8	23	[0, 0, 0]	n/a	FR1	2	R1216E
2585.254	1.616	2652429	WORD	n/a	wordpools/wordpool_EN.txt	HOSE	9	23	[0, 0, 0]	n/a	FR1	2	R1216E
2586.87	0.801	2654045	WORD_OFF	n/a	n/a	HOSE	9	23	[0, 0, 0]	n/a	FR1	2	R1216E
2587.671	1.617	2654846	WORD	n/a	wordpools/wordpool_EN.txt	BROOM	10	23	[0, 0, 0]	n/a	FR1	2	R1216E
2589.288	0.884	2656463	WORD_OFF	n/a	n/a	BROOM	10	23	[0, 0, 0]	n/a	FR1	2	R1216E
2590.172	1.616	2657347	WORD	n/a	wordpools/wordpool_EN.txt	FOOT	11	23	[0, 0, 0]	n/a	FR1	2	R1216E
2591.788	0.901	2658963	WORD_OFF	n/a	n/a	FOOT	11	23	[0, 0, 0]	n/a	FR1	2	R1216E
2592.689	1.617	2659864	WORD	n/a	wordpools/wordpool_EN.txt	STOVE	12	23	[0, 0, 0]	n/a	FR1	2	R1216E
2594.306	0.0	2661481	WORD_OFF	n/a	n/a	STOVE	12	23	[0, 0, 0]	n/a	FR1	2	R1216E
2594.306	0.0	2661481	DISTRACT_START	n/a	n/a	n/a	-999	23	[0, 0, 0]	n/a	FR1	2	R1216E
2594.306	0.017	2661481	START	n/a	n/a	n/a	-999	23	[-999, -999, -999]	n/a	FR1	2	R1216E
2594.323	13.701	2661498	PROB	13.701	n/a	n/a	-999	23	[9, 4, 7]	20	FR1	2	R1216E
2608.024	12.779	2675198	PROB	12.779	n/a	n/a	-999	23	[6, 9, 7]	22	FR1	2	R1216E
2620.803	0.006	2687977	STOP	n/a	n/a	n/a	-999	23	[-999, -999, -999]	n/a	FR1	2	R1216E
2620.809	0.618	2687983	DISTRACT_END	n/a	n/a	n/a	-999	23	[0, 0, 0]	n/a	FR1	2	R1216E
2621.427	0.517	2688601	RETRIEVAL_ORIENT	n/a	n/a	n/a	-999	23	[0, 0, 0]	n/a	FR1	2	R1216E
2621.944	3.248	2689118	REC_START	n/a	n/a	n/a	-999	23	[0, 0, 0]	n/a	FR1	2	R1216E
2625.192	13.857	2692366	REC_WORD	13.857	n/a	PLATE	-999	23	[0, 0, 0]	n/a	FR1	2	R1216E
2639.049	9.374	2706222	REC_WORD	9.374	n/a	HORN	-999	23	[0, 0, 0]	n/a	FR1	2	R1216E
2648.423	3.53	2715596	REC_WORD	3.53	n/a	VINE	-999	23	[0, 0, 0]	n/a	FR1	2	R1216E
2651.953	6.681	2719126	REC_END	n/a	n/a	n/a	-999	23	[0, 0, 0]	n/a	FR1	2	R1216E
2658.634	0.5	2725806	TRIAL	n/a	n/a	n/a	-999	24	[0, 0, 0]	n/a	FR1	2	R1216E
2659.134	10.428	2726306	COUNTDOWN_START	n/a	n/a	n/a	-999	24	[0, 0, 0]	n/a	FR1	2	R1216E
2669.562	0.007	2736734	COUNTDOWN_END	n/a	n/a	n/a	-999	24	[0, 0, 0]	n/a	FR1	2	R1216E
2669.569	1.617	2736741	ORIENT	n/a	n/a	n/a	-999	24	[0, 0, 0]	n/a	FR1	2	R1216E
2671.186	1.934	2738358	ORIENT_OFF	n/a	n/a	n/a	-999	24	[0, 0, 0]	n/a	FR1	2	R1216E
2673.12	1.617	2740292	WORD	n/a	wordpools/wordpool_EN.txt	EEL	1	24	[0, 0, 0]	n/a	FR1	2	R1216E
2674.737	0.983	2741909	WORD_OFF	n/a	n/a	EEL	1	24	[0, 0, 0]	n/a	FR1	2	R1216E
2675.72	1.617	2742892	WORD	n/a	wordpools/wordpool_EN.txt	RUG	2	24	[0, 0, 0]	n/a	FR1	2	R1216E
2677.337	0.834	2744509	WORD_OFF	n/a	n/a	RUG	2	24	[0, 0, 0]	n/a	FR1	2	R1216E
2678.171	1.616	2745343	WORD	n/a	wordpools/wordpool_EN.txt	TOOTH	3	24	[0, 0, 0]	n/a	FR1	2	R1216E
2679.787	0.851	2746958	WORD_OFF	n/a	n/a	TOOTH	3	24	[0, 0, 0]	n/a	FR1	2	R1216E
2680.638	1.617	2747809	WORD	n/a	wordpools/wordpool_EN.txt	NET	4	24	[0, 0, 0]	n/a	FR1	2	R1216E
2682.255	0.883	2749426	WORD_OFF	n/a	n/a	NET	4	24	[0, 0, 0]	n/a	FR1	2	R1216E
2683.138	1.617	2750309	WORD	n/a	wordpools/wordpool_EN.txt	LAND	5	24	[0, 0, 0]	n/a	FR1	2	R1216E
2684.755	0.934	2751926	WORD_OFF	n/a	n/a	LAND	5	24	[0, 0, 0]	n/a	FR1	2	R1216E
2685.689	1.617	2752860	WORD	n/a	wordpools/wordpool_EN.txt	STORM	6	24	[0, 0, 0]	n/a	FR1	2	R1216E
2687.306	0.765	2754477	WORD_OFF	n/a	n/a	STORM	6	24	[0, 0, 0]	n/a	FR1	2	R1216E
2688.071	1.601	2755242	WORD	n/a	wordpools/wordpool_EN.txt	INK	7	24	[0, 0, 0]	n/a	FR1	2	R1216E
2689.672	0.884	2756843	WORD_OFF	n/a	n/a	INK	7	24	[0, 0, 0]	n/a	FR1	2	R1216E
2690.556	1.617	2757727	WORD	n/a	wordpools/wordpool_EN.txt	DOG	8	24	[0, 0, 0]	n/a	FR1	2	R1216E
2692.173	0.932	2759344	WORD_OFF	n/a	n/a	DOG	8	24	[0, 0, 0]	n/a	FR1	2	R1216E
2693.105	1.602	2760276	WORD	n/a	wordpools/wordpool_EN.txt	BIRD	9	24	[0, 0, 0]	n/a	FR1	2	R1216E
2694.707	0.833	2761878	WORD_OFF	n/a	n/a	BIRD	9	24	[0, 0, 0]	n/a	FR1	2	R1216E
2695.54	1.617	2762711	WORD	n/a	wordpools/wordpool_EN.txt	SKY	10	24	[0, 0, 0]	n/a	FR1	2	R1216E
2697.157	0.816	2764328	WORD_OFF	n/a	n/a	SKY	10	24	[0, 0, 0]	n/a	FR1	2	R1216E
2697.973	1.618	2765144	WORD	n/a	wordpools/wordpool_EN.txt	CLOCK	11	24	[0, 0, 0]	n/a	FR1	2	R1216E
2699.591	0.95	2766762	WORD_OFF	n/a	n/a	CLOCK	11	24	[0, 0, 0]	n/a	FR1	2	R1216E
2700.541	1.617	2767712	WORD	n/a	wordpools/wordpool_EN.txt	ICE	12	24	[0, 0, 0]	n/a	FR1	2	R1216E
2702.158	0.0	2769329	DISTRACT_START	n/a	n/a	n/a	-999	24	[0, 0, 0]	n/a	FR1	2	R1216E
2702.158	0.001	2769329	WORD_OFF	n/a	n/a	ICE	12	24	[0, 0, 0]	n/a	FR1	2	R1216E
2702.159	0.016	2769330	START	n/a	n/a	n/a	-999	24	[-999, -999, -999]	n/a	FR1	2	R1216E
2702.175	9.717	2769346	PROB	9.717	n/a	n/a	-999	24	[3, 3, 8]	14	FR1	2	R1216E
2711.892	3.934	2779062	PROB	3.934	n/a	n/a	-999	24	[2, 8, 2]	12	FR1	2	R1216E
2715.826	5.586	2782996	PROB	5.586	n/a	n/a	-999	24	[9, 1, 5]	15	FR1	2	R1216E
2721.412	10.804	2788582	PROB	10.804	n/a	n/a	-999	24	[9, 2, 4]	15	FR1	2	R1216E
2732.216	0.014	2799385	STOP	n/a	n/a	n/a	-999	24	[-999, -999, -999]	n/a	FR1	2	R1216E
2732.23	0.517	2799399	DISTRACT_END	n/a	n/a	n/a	-999	24	[0, 0, 0]	n/a	FR1	2	R1216E
2732.747	0.517	2799916	RETRIEVAL_ORIENT	n/a	n/a	n/a	-999	24	[0, 0, 0]	n/a	FR1	2	R1216E
2733.264	1.531	2800433	REC_START	n/a	n/a	n/a	-999	24	[0, 0, 0]	n/a	FR1	2	R1216E
2734.795	1.424	2801964	REC_WORD	1.424	n/a	EEL	-999	24	[0, 0, 0]	n/a	FR1	2	R1216E
2736.219	1.0	2803388	REC_WORD	1.0	n/a	SKY	-999	24	[0, 0, 0]	n/a	FR1	2	R1216E
2737.219	14.193	2804388	REC_WORD_VV	14.193	n/a	<>	-999	24	[0, 0, 0]	n/a	FR1	2	R1216E
2751.412	11.862	2818581	REC_WORD	11.862	n/a	LAND	-999	24	[0, 0, 0]	n/a	FR1	2	R1216E
2763.274	5.129	2830442	REC_END	n/a	n/a	n/a	-999	24	[0, 0, 0]	n/a	FR1	2	R1216E
2768.403	0.5	2835571	TRIAL	n/a	n/a	n/a	-999	25	[0, 0, 0]	n/a	FR1	2	R1216E
2768.903	10.428	2836071	COUNTDOWN_START	n/a	n/a	n/a	-999	25	[0, 0, 0]	n/a	FR1	2	R1216E
2779.331	0.007	2846499	COUNTDOWN_END	n/a	n/a	n/a	-999	25	[0, 0, 0]	n/a	FR1	2	R1216E
2779.338	1.616	2846506	ORIENT	n/a	n/a	n/a	-999	25	[0, 0, 0]	n/a	FR1	2	R1216E
2780.954	2.285	2848122	ORIENT_OFF	n/a	n/a	n/a	-999	25	[0, 0, 0]	n/a	FR1	2	R1216E
2783.239	1.616	2850407	WORD	n/a	wordpools/wordpool_EN.txt	TRAIN	1	25	[0, 0, 0]	n/a	FR1	2	R1216E
2784.855	0.835	2852022	WORD_OFF	n/a	n/a	TRAIN	1	25	[0, 0, 0]	n/a	FR1	2	R1216E
2785.69	1.616	2852857	WORD	n/a	wordpools/wordpool_EN.txt	CROWN	2	25	[0, 0, 0]	n/a	FR1	2	R1216E
2787.306	0.817	2854473	WORD_OFF	n/a	n/a	CROWN	2	25	[0, 0, 0]	n/a	FR1	2	R1216E
2788.123	1.617	2855290	WORD	n/a	wordpools/wordpool_EN.txt	PASTE	3	25	[0, 0, 0]	n/a	FR1	2	R1216E
2789.74	0.817	2856907	WORD_OFF	n/a	n/a	PASTE	3	25	[0, 0, 0]	n/a	FR1	2	R1216E
2790.557	1.617	2857724	WORD	n/a	wordpools/wordpool_EN.txt	TANK	4	25	[0, 0, 0]	n/a	FR1	2	R1216E
2792.174	0.882	2859341	WORD_OFF	n/a	n/a	TANK	4	25	[0, 0, 0]	n/a	FR1	2	R1216E
2793.056	1.618	2860223	WORD	n/a	wordpools/wordpool_EN.txt	SEA	5	25	[0, 0, 0]	n/a	FR1	2	R1216E
2794.674	0.901	2861841	WORD_OFF	n/a	n/a	SEA	5	25	[0, 0, 0]	n/a	FR1	2	R1216E
2795.575	1.617	2862742	WORD	n/a	wordpools/wordpool_EN.txt	LEAF	6	25	[0, 0, 0]	n/a	FR1	2	R1216E
2797.192	0.849	2864359	WORD_OFF	n/a	n/a	LEAF	6	25	[0, 0, 0]	n/a	FR1	2	R1216E
2798.041	1.618	2865208	WORD	n/a	wordpools/wordpool_EN.txt	TOAST	7	25	[0, 0, 0]	n/a	FR1	2	R1216E
2799.659	0.866	2866826	WORD_OFF	n/a	n/a	TOAST	7	25	[0, 0, 0]	n/a	FR1	2	R1216E
2800.525	1.617	2867692	WORD	n/a	wordpools/wordpool_EN.txt	DOOR	8	25	[0, 0, 0]	n/a	FR1	2	R1216E
2802.142	0.883	2869309	WORD_OFF	n/a	n/a	DOOR	8	25	[0, 0, 0]	n/a	FR1	2	R1216E
2803.025	1.618	2870192	WORD	n/a	wordpools/wordpool_EN.txt	CAT	9	25	[0, 0, 0]	n/a	FR1	2	R1216E
2804.643	0.883	2871810	WORD_OFF	n/a	n/a	CAT	9	25	[0, 0, 0]	n/a	FR1	2	R1216E
2805.526	1.617	2872693	WORD	n/a	wordpools/wordpool_EN.txt	DOCK	10	25	[0, 0, 0]	n/a	FR1	2	R1216E
2807.143	0.866	2874310	WORD_OFF	n/a	n/a	DOCK	10	25	[0, 0, 0]	n/a	FR1	2	R1216E
2808.009	1.618	2875176	WORD	n/a	wordpools/wordpool_EN.txt	STEAK	11	25	[0, 0, 0]	n/a	FR1	2	R1216E
2809.627	0.8	2876793	WORD_OFF	n/a	n/a	STEAK	11	25	[0, 0, 0]	n/a	FR1	2	R1216E
2810.427	1.616	2877593	WORD	n/a	wordpools/wordpool_EN.txt	OAR	12	25	[0, 0, 0]	n/a	FR1	2	R1216E
2812.043	0.0	2879209	WORD_OFF	n/a	n/a	OAR	12	25	[0, 0, 0]	n/a	FR1	2	R1216E
2812.043	0.001	2879209	DISTRACT_START	n/a	n/a	n/a	-999	25	[0, 0, 0]	n/a	FR1	2	R1216E
2812.044	0.016	2879210	START	n/a	n/a	n/a	-999	25	[-999, -999, -999]	n/a	FR1	2	R1216E
2812.06	5.918	2879226	PROB	5.918	n/a	n/a	-999	25	[3, 7, 2]	12	FR1	2	R1216E
2817.978	7.402	2885144	PROB	7.402	n/a	n/a	-999	25	[5, 4, 6]	15	FR1	2	R1216E
2825.38	3.449	2892546	PROB	3.449	n/a	n/a	-999	25	[6, 4, 1]	11	FR1	2	R1216E
2828.829	9.127	2895995	PROB	9.127	n/a	n/a	-999	25	[4, 7, 6]	17	FR1	2	R1216E
2837.956	0.008	2905121	STOP	n/a	n/a	n/a	-999	25	[-999, -999, -999]	n/a	FR1	2	R1216E
2837.964	0.702	2905129	DISTRACT_END	n/a	n/a	n/a	-999	25	[0, 0, 0]	n/a	FR1	2	R1216E
2838.666	0.517	2905831	RETRIEVAL_ORIENT	n/a	n/a	n/a	-999	25	[0, 0, 0]	n/a	FR1	2	R1216E
2839.183	1.565	2906348	REC_START	n/a	n/a	n/a	-999	25	[0, 0, 0]	n/a	FR1	2	R1216E
2840.748	1.563	2907913	REC_WORD	1.563	n/a	OAR	-999	25	[0, 0, 0]	n/a	FR1	2	R1216E
2842.311	26.882	2909476	REC_WORD	26.882	n/a	CROWN	-999	25	[0, 0, 0]	n/a	FR1	2	R1216E
2869.193	0.0	2936357	REC_END	n/a	n/a	n/a	-999	25	[0, 0, 0]	n/a	FR1	2	R1216E
