onset	duration	sample	trial_type	response_time	stim_file	item_name	serialpos	list	test	answer	experiment	session	subject
0.0	13.983	86203	SESS_START	n/a	n/a	n/a	-999	-999	[0, 0, 0]	n/a	FR1	2	R1077T
13.983	10.428	100185	COUNTDOWN_START	n/a	n/a	n/a	-999	-999	[0, 0, 0]	n/a	FR1	2	R1077T
24.411	3.641	110612	COUNTDOWN_END	n/a	n/a	n/a	-999	-999	[0, 0, 0]	n/a	FR1	2	R1077T
28.052	2.602	114253	PRACTICE_WORD	n/a	n/a	CHEST	1	-1	[0, 0, 0]	n/a	FR1	2	R1077T
30.654	2.433	116855	PRACTICE_WORD	n/a	n/a	FLOOD	2	-1	[0, 0, 0]	n/a	FR1	2	R1077T
33.087	2.485	119288	PRACTICE_WORD	n/a	n/a	TONGUE	3	-1	[0, 0, 0]	n/a	FR1	2	R1077T
35.572	2.499	121773	PRACTICE_WORD	n/a	n/a	WAGON	4	-1	[0, 0, 0]	n/a	FR1	2	R1077T
38.071	2.568	124272	PRACTICE_WORD	n/a	n/a	COTTON	5	-1	[0, 0, 0]	n/a	FR1	2	R1077T
40.639	2.483	126840	PRACTICE_WORD	n/a	n/a	WATCH	6	-1	[0, 0, 0]	n/a	FR1	2	R1077T
43.122	2.535	129323	PRACTICE_WORD	n/a	n/a	RHINO	7	-1	[0, 0, 0]	n/a	FR1	2	R1077T
45.657	2.599	131857	PRACTICE_WORD	n/a	n/a	ATTIC	8	-1	[0, 0, 0]	n/a	FR1	2	R1077T
48.256	2.601	134456	PRACTICE_WORD	n/a	n/a	IRON	9	-1	[0, 0, 0]	n/a	FR1	2	R1077T
50.857	2.583	137057	PRACTICE_WORD	n/a	n/a	RING	10	-1	[0, 0, 0]	n/a	FR1	2	R1077T
53.44	2.568	139640	PRACTICE_WORD	n/a	n/a	BEAM	11	-1	[0, 0, 0]	n/a	FR1	2	R1077T
56.008	1.617	142208	PRACTICE_WORD	n/a	n/a	CAMEL	12	-1	[0, 0, 0]	n/a	FR1	2	R1077T
57.625	0.001	143825	PRACTICE_DISTRACT_START	n/a	n/a	n/a	-999	-1	[0, 0, 0]	n/a	FR1	2	R1077T
57.626	0.016	143826	START	n/a	n/a	n/a	-999	-1	[-999, -999, -999]	n/a	FR1	2	R1077T
57.642	4.667	143842	PROB	4.667	n/a	n/a	-999	-1	[9, 6, 2]	1	FR1	2	R1077T
62.309	3.417	148509	PROB	3.417	n/a	n/a	-999	-1	[6, 3, 8]	19	FR1	2	R1077T
65.726	2.75	151925	PROB	2.75	n/a	n/a	-999	-1	[7, 3, 3]	14	FR1	2	R1077T
68.476	6.502	154675	PROB	6.502	n/a	n/a	-999	-1	[1, 7, 2]	10	FR1	2	R1077T
74.978	2.994	161177	PROB	2.994	n/a	n/a	-999	-1	[7, 3, 5]	15	FR1	2	R1077T
77.972	0.006	164171	STOP	n/a	n/a	n/a	-999	-1	[-999, -999, -999]	n/a	FR1	2	R1077T
77.978	0.637	164177	PRACTICE_DISTRACT_END	n/a	n/a	n/a	-999	-1	[0, 0, 0]	n/a	FR1	2	R1077T
78.615	30.513	164814	PRACTICE_REC_START	n/a	n/a	n/a	-999	-1	[0, 0, 0]	n/a	FR1	2	R1077T
109.128	9.509	195325	PRACTICE_REC_END	n/a	n/a	n/a	-999	-1	[0, 0, 0]	n/a	FR1	2	R1077T
118.637	0.0	204834	TRIAL	n/a	n/a	n/a	-999	1	[0, 0, 0]	n/a	FR1	2	R1077T
118.637	10.428	204834	COUNTDOWN_START	n/a	n/a	n/a	-999	1	[0, 0, 0]	n/a	FR1	2	R1077T
129.065	0.006	215261	COUNTDOWN_END	n/a	n/a	n/a	-999	1	[0, 0, 0]	n/a	FR1	2	R1077T
129.071	2.6	215267	ORIENT	n/a	n/a	n/a	-999	1	[0, 0, 0]	n/a	FR1	2	R1077T
131.671	2.551	217867	WORD	n/a	wordpools/wordpool_EN.txt	GLOVE	1	1	[0, 0, 0]	n/a	FR1	2	R1077T
134.222	2.385	220418	WORD	n/a	wordpools/wordpool_EN.txt	PIPE	2	1	[0, 0, 0]	n/a	FR1	2	R1077T
136.607	2.599	222803	WORD	n/a	wordpools/wordpool_EN.txt	FAN	3	1	[0, 0, 0]	n/a	FR1	2	R1077T
139.206	2.467	225402	WORD	n/a	wordpools/wordpool_EN.txt	PURSE	4	1	[0, 0, 0]	n/a	FR1	2	R1077T
141.673	2.451	227869	WORD	n/a	wordpools/wordpool_EN.txt	BAND	5	1	[0, 0, 0]	n/a	FR1	2	R1077T
144.124	2.401	230320	WORD	n/a	wordpools/wordpool_EN.txt	PIN	6	1	[0, 0, 0]	n/a	FR1	2	R1077T
146.525	2.466	232720	WORD	n/a	wordpools/wordpool_EN.txt	WAND	7	1	[0, 0, 0]	n/a	FR1	2	R1077T
148.991	2.4	235186	WORD	n/a	wordpools/wordpool_EN.txt	TOOL	8	1	[0, 0, 0]	n/a	FR1	2	R1077T
151.391	2.401	237586	WORD	n/a	wordpools/wordpool_EN.txt	THUMB	9	1	[0, 0, 0]	n/a	FR1	2	R1077T
153.792	2.55	239987	WORD	n/a	wordpools/wordpool_EN.txt	YARD	10	1	[0, 0, 0]	n/a	FR1	2	R1077T
156.342	2.568	242537	WORD	n/a	wordpools/wordpool_EN.txt	VEST	11	1	[0, 0, 0]	n/a	FR1	2	R1077T
158.91	1.618	245105	WORD	n/a	wordpools/wordpool_EN.txt	DESK	12	1	[0, 0, 0]	n/a	FR1	2	R1077T
160.528	0.0	246723	DISTRACT_START	n/a	n/a	n/a	-999	1	[0, 0, 0]	n/a	FR1	2	R1077T
160.528	0.016	246723	START	n/a	n/a	n/a	-999	1	[-999, -999, -999]	n/a	FR1	2	R1077T
160.544	3.45	246739	PROB	3.45	n/a	n/a	-999	1	[7, 6, 6]	23	FR1	2	R1077T
163.994	3.367	250189	PROB	3.367	n/a	n/a	-999	1	[2, 9, 5]	17	FR1	2	R1077T
167.361	4.501	253555	PROB	4.501	n/a	n/a	-999	1	[1, 7, 5]	13	FR1	2	R1077T
171.862	2.184	258056	PROB	2.184	n/a	n/a	-999	1	[9, 1, 8]	18	FR1	2	R1077T
174.046	4.684	260240	PROB	4.684	n/a	n/a	-999	1	[5, 6, 9]	24	FR1	2	R1077T
178.73	2.098	264924	PROB	2.098	n/a	n/a	-999	1	[5, 6, 4]	15	FR1	2	R1077T
180.828	0.019	267022	STOP	n/a	n/a	n/a	-999	1	[-999, -999, -999]	n/a	FR1	2	R1077T
180.847	1.067	267041	DISTRACT_END	n/a	n/a	n/a	-999	1	[0, 0, 0]	n/a	FR1	2	R1077T
181.914	2.951	268108	REC_START	n/a	n/a	n/a	-999	1	[0, 0, 0]	n/a	FR1	2	R1077T
184.865	0.545	271059	REC_WORD	0.545	n/a	GLOVE	-999	1	[0, 0, 0]	n/a	FR1	2	R1077T
185.41	2.486	271603	REC_WORD	2.486	n/a	DESK	-999	1	[0, 0, 0]	n/a	FR1	2	R1077T
187.896	5.071	274089	REC_WORD	5.071	n/a	THUMB	-999	1	[0, 0, 0]	n/a	FR1	2	R1077T
192.967	5.446	279160	REC_WORD_VV	5.446	n/a	<>	-999	1	[0, 0, 0]	n/a	FR1	2	R1077T
198.413	6.794	284606	REC_WORD	6.794	n/a	YARD	-999	1	[0, 0, 0]	n/a	FR1	2	R1077T
205.207	6.721	291400	REC_WORD	6.721	n/a	PIPE	-999	1	[0, 0, 0]	n/a	FR1	2	R1077T
211.928	2.358	298120	REC_END	n/a	n/a	n/a	-999	1	[0, 0, 0]	n/a	FR1	2	R1077T
214.286	0.001	300478	COUNTDOWN_START	n/a	n/a	n/a	-999	2	[0, 0, 0]	n/a	FR1	2	R1077T
214.287	10.427	300479	TRIAL	n/a	n/a	n/a	-999	2	[0, 0, 0]	n/a	FR1	2	R1077T
224.714	0.008	310906	COUNTDOWN_END	n/a	n/a	n/a	-999	2	[0, 0, 0]	n/a	FR1	2	R1077T
224.722	2.467	310914	ORIENT	n/a	n/a	n/a	-999	2	[0, 0, 0]	n/a	FR1	2	R1077T
227.189	2.418	313380	WORD	n/a	wordpools/wordpool_EN.txt	LIP	1	2	[0, 0, 0]	n/a	FR1	2	R1077T
229.607	2.566	315798	WORD	n/a	wordpools/wordpool_EN.txt	STORE	2	2	[0, 0, 0]	n/a	FR1	2	R1077T
232.173	2.485	318364	WORD	n/a	wordpools/wordpool_EN.txt	SHIRT	3	2	[0, 0, 0]	n/a	FR1	2	R1077T
234.658	2.432	320849	WORD	n/a	wordpools/wordpool_EN.txt	RIB	4	2	[0, 0, 0]	n/a	FR1	2	R1077T
237.09	2.401	323281	WORD	n/a	wordpools/wordpool_EN.txt	MULE	5	2	[0, 0, 0]	n/a	FR1	2	R1077T
239.491	2.45	325682	WORD	n/a	wordpools/wordpool_EN.txt	BOWL	6	2	[0, 0, 0]	n/a	FR1	2	R1077T
241.941	2.534	328132	WORD	n/a	wordpools/wordpool_EN.txt	BREAD	7	2	[0, 0, 0]	n/a	FR1	2	R1077T
244.475	2.434	330666	WORD	n/a	wordpools/wordpool_EN.txt	CHAIR	8	2	[0, 0, 0]	n/a	FR1	2	R1077T
246.909	2.618	333099	WORD	n/a	wordpools/wordpool_EN.txt	BEAN	9	2	[0, 0, 0]	n/a	FR1	2	R1077T
249.527	2.416	335717	WORD	n/a	wordpools/wordpool_EN.txt	PANTS	10	2	[0, 0, 0]	n/a	FR1	2	R1077T
251.943	2.602	338133	WORD	n/a	wordpools/wordpool_EN.txt	BARN	11	2	[0, 0, 0]	n/a	FR1	2	R1077T
254.545	1.616	340735	WORD	n/a	wordpools/wordpool_EN.txt	STOVE	12	2	[0, 0, 0]	n/a	FR1	2	R1077T
256.161	0.001	342351	DISTRACT_START	n/a	n/a	n/a	-999	2	[0, 0, 0]	n/a	FR1	2	R1077T
256.162	0.015	342352	START	n/a	n/a	n/a	-999	2	[-999, -999, -999]	n/a	FR1	2	R1077T
256.177	3.234	342367	PROB	3.234	n/a	n/a	-999	2	[2, 4, 3]	7	FR1	2	R1077T
259.411	2.135	345601	PROB	2.135	n/a	n/a	-999	2	[1, 6, 7]	14	FR1	2	R1077T
261.546	3.067	347736	PROB	3.067	n/a	n/a	-999	2	[6, 3, 7]	16	FR1	2	R1077T
264.613	2.866	350803	PROB	2.866	n/a	n/a	-999	2	[3, 3, 7]	13	FR1	2	R1077T
267.479	3.234	353668	PROB	3.234	n/a	n/a	-999	2	[9, 2, 6]	17	FR1	2	R1077T
270.713	4.184	356902	PROB	4.184	n/a	n/a	-999	2	[4, 2, 4]	10	FR1	2	R1077T
274.897	6.363	361086	PROB	6.363	n/a	n/a	-999	2	[9, 4, 7]	20	FR1	2	R1077T
281.26	0.005	367449	STOP	n/a	n/a	n/a	-999	2	[-999, -999, -999]	n/a	FR1	2	R1077T
281.265	1.101	367454	DISTRACT_END	n/a	n/a	n/a	-999	2	[0, 0, 0]	n/a	FR1	2	R1077T
282.366	3.544	368555	REC_START	n/a	n/a	n/a	-999	2	[0, 0, 0]	n/a	FR1	2	R1077T
285.91	3.072	372099	REC_WORD	3.072	n/a	BEAN	-999	2	[0, 0, 0]	n/a	FR1	2	R1077T
288.982	2.021	375170	REC_WORD_VV	2.021	n/a	<>	-999	2	[0, 0, 0]	n/a	FR1	2	R1077T
291.003	1.36	377191	REC_WORD_VV	1.36	n/a	<>	-999	2	[0, 0, 0]	n/a	FR1	2	R1077T
292.363	0.812	378551	REC_WORD	0.812	n/a	BEAN	-999	2	[0, 0, 0]	n/a	FR1	2	R1077T
293.175	4.275	379363	REC_WORD_VV	4.275	n/a	<>	-999	2	[0, 0, 0]	n/a	FR1	2	R1077T
297.45	1.764	383638	REC_WORD	1.764	n/a	PANTS	-999	2	[0, 0, 0]	n/a	FR1	2	R1077T
299.214	4.24	385402	REC_WORD_VV	4.24	n/a	<>	-999	2	[0, 0, 0]	n/a	FR1	2	R1077T
303.454	7.967	389642	REC_WORD	7.967	n/a	LIP	-999	2	[0, 0, 0]	n/a	FR1	2	R1077T
311.421	0.956	397608	REC_WORD	0.956	n/a	CHAIR	-999	2	[0, 0, 0]	n/a	FR1	2	R1077T
312.377	2.478	398564	REC_END	n/a	n/a	n/a	-999	2	[0, 0, 0]	n/a	FR1	2	R1077T
314.855	0.0	401042	TRIAL	n/a	n/a	n/a	-999	3	[0, 0, 0]	n/a	FR1	2	R1077T
314.855	10.428	401042	COUNTDOWN_START	n/a	n/a	n/a	-999	3	[0, 0, 0]	n/a	FR1	2	R1077T
325.283	0.007	411470	COUNTDOWN_END	n/a	n/a	n/a	-999	3	[0, 0, 0]	n/a	FR1	2	R1077T
325.29	2.484	411477	ORIENT	n/a	n/a	n/a	-999	3	[0, 0, 0]	n/a	FR1	2	R1077T
327.774	2.5	413960	WORD	n/a	wordpools/wordpool_EN.txt	POND	1	3	[0, 0, 0]	n/a	FR1	2	R1077T
330.274	2.584	416460	WORD	n/a	wordpools/wordpool_EN.txt	STRAW	2	3	[0, 0, 0]	n/a	FR1	2	R1077T
332.858	2.384	419044	WORD	n/a	wordpools/wordpool_EN.txt	SLUSH	3	3	[0, 0, 0]	n/a	FR1	2	R1077T
335.242	2.467	421428	WORD	n/a	wordpools/wordpool_EN.txt	CAGE	4	3	[0, 0, 0]	n/a	FR1	2	R1077T
337.709	2.534	423895	WORD	n/a	wordpools/wordpool_EN.txt	VASE	5	3	[0, 0, 0]	n/a	FR1	2	R1077T
340.243	2.483	426429	WORD	n/a	wordpools/wordpool_EN.txt	SINK	6	3	[0, 0, 0]	n/a	FR1	2	R1077T
342.726	2.467	428912	WORD	n/a	wordpools/wordpool_EN.txt	JAR	7	3	[0, 0, 0]	n/a	FR1	2	R1077T
345.193	2.385	431379	WORD	n/a	wordpools/wordpool_EN.txt	SEAL	8	3	[0, 0, 0]	n/a	FR1	2	R1077T
347.578	2.616	433763	WORD	n/a	wordpools/wordpool_EN.txt	GEESE	9	3	[0, 0, 0]	n/a	FR1	2	R1077T
350.194	2.551	436379	WORD	n/a	wordpools/wordpool_EN.txt	HAT	10	3	[0, 0, 0]	n/a	FR1	2	R1077T
352.745	2.417	438930	WORD	n/a	wordpools/wordpool_EN.txt	BOX	11	3	[0, 0, 0]	n/a	FR1	2	R1077T
355.162	1.617	441347	WORD	n/a	wordpools/wordpool_EN.txt	PET	12	3	[0, 0, 0]	n/a	FR1	2	R1077T
356.779	0.001	442964	DISTRACT_START	n/a	n/a	n/a	-999	3	[0, 0, 0]	n/a	FR1	2	R1077T
356.78	0.016	442965	START	n/a	n/a	n/a	-999	3	[-999, -999, -999]	n/a	FR1	2	R1077T
356.796	6.752	442981	PROB	6.752	n/a	n/a	-999	3	[5, 8, 9]	26	FR1	2	R1077T
363.548	3.616	449733	PROB	3.616	n/a	n/a	-999	3	[3, 7, 7]	19	FR1	2	R1077T
367.164	2.485	453348	PROB	2.485	n/a	n/a	-999	3	[1, 2, 8]	12	FR1	2	R1077T
369.649	2.699	455833	PROB	2.699	n/a	n/a	-999	3	[4, 5, 1]	10	FR1	2	R1077T
372.348	4.084	458532	PROB	4.084	n/a	n/a	-999	3	[7, 8, 7]	20	FR1	2	R1077T
376.432	2.101	462616	PROB	2.101	n/a	n/a	-999	3	[1, 6, 7]	14	FR1	2	R1077T
378.533	0.017	464717	STOP	n/a	n/a	n/a	-999	3	[-999, -999, -999]	n/a	FR1	2	R1077T
378.55	1.085	464734	DISTRACT_END	n/a	n/a	n/a	-999	3	[0, 0, 0]	n/a	FR1	2	R1077T
379.635	11.245	465819	REC_START	n/a	n/a	n/a	-999	3	[0, 0, 0]	n/a	FR1	2	R1077T
390.88	1.602	477063	REC_WORD	1.602	n/a	GEESE	-999	3	[0, 0, 0]	n/a	FR1	2	R1077T
392.482	8.72	478665	REC_WORD_VV	8.72	n/a	<>	-999	3	[0, 0, 0]	n/a	FR1	2	R1077T
401.202	8.443	487385	REC_WORD_VV	8.443	n/a	<>	-999	3	[0, 0, 0]	n/a	FR1	2	R1077T
409.645	1.995	495827	REC_END	n/a	n/a	n/a	-999	3	[0, 0, 0]	n/a	FR1	2	R1077T
411.64	0.0	497822	COUNTDOWN_START	n/a	n/a	n/a	-999	4	[0, 0, 0]	n/a	FR1	2	R1077T
411.64	10.428	497822	TRIAL	n/a	n/a	n/a	-999	4	[0, 0, 0]	n/a	FR1	2	R1077T
422.068	0.006	508250	COUNTDOWN_END	n/a	n/a	n/a	-999	4	[0, 0, 0]	n/a	FR1	2	R1077T
422.074	2.384	508256	ORIENT	n/a	n/a	n/a	-999	4	[0, 0, 0]	n/a	FR1	2	R1077T
424.458	2.417	510640	WORD	n/a	wordpools/wordpool_EN.txt	WOLF	1	4	[0, 0, 0]	n/a	FR1	2	R1077T
426.875	2.534	513057	WORD	n/a	wordpools/wordpool_EN.txt	SHEEP	2	4	[0, 0, 0]	n/a	FR1	2	R1077T
429.409	2.434	515590	WORD	n/a	wordpools/wordpool_EN.txt	RUG	3	4	[0, 0, 0]	n/a	FR1	2	R1077T
431.843	2.617	518024	WORD	n/a	wordpools/wordpool_EN.txt	SPARK	4	4	[0, 0, 0]	n/a	FR1	2	R1077T
434.46	2.417	520641	WORD	n/a	wordpools/wordpool_EN.txt	SUN	5	4	[0, 0, 0]	n/a	FR1	2	R1077T
436.877	2.5	523058	WORD	n/a	wordpools/wordpool_EN.txt	CONE	6	4	[0, 0, 0]	n/a	FR1	2	R1077T
439.377	2.6	525558	WORD	n/a	wordpools/wordpool_EN.txt	ICE	7	4	[0, 0, 0]	n/a	FR1	2	R1077T
441.977	2.468	528158	WORD	n/a	wordpools/wordpool_EN.txt	WHALE	8	4	[0, 0, 0]	n/a	FR1	2	R1077T
444.445	2.584	530626	WORD	n/a	wordpools/wordpool_EN.txt	NAIL	9	4	[0, 0, 0]	n/a	FR1	2	R1077T
447.029	2.584	533210	WORD	n/a	wordpools/wordpool_EN.txt	CLIFF	10	4	[0, 0, 0]	n/a	FR1	2	R1077T
449.613	2.383	535793	WORD	n/a	wordpools/wordpool_EN.txt	JEEP	11	4	[0, 0, 0]	n/a	FR1	2	R1077T
451.996	1.618	538176	WORD	n/a	wordpools/wordpool_EN.txt	CROW	12	4	[0, 0, 0]	n/a	FR1	2	R1077T
453.614	0.001	539794	DISTRACT_START	n/a	n/a	n/a	-999	4	[0, 0, 0]	n/a	FR1	2	R1077T
453.615	0.016	539795	START	n/a	n/a	n/a	-999	4	[-999, -999, -999]	n/a	FR1	2	R1077T
453.631	3.116	539811	PROB	3.116	n/a	n/a	-999	4	[6, 7, 4]	17	FR1	2	R1077T
456.747	2.117	542927	PROB	2.117	n/a	n/a	-999	4	[1, 8, 3]	12	FR1	2	R1077T
458.864	2.702	545044	PROB	2.702	n/a	n/a	-999	4	[2, 1, 6]	9	FR1	2	R1077T
461.566	2.599	547746	PROB	2.599	n/a	n/a	-999	4	[1, 2, 5]	8	FR1	2	R1077T
464.165	5.034	550345	PROB	5.034	n/a	n/a	-999	4	[4, 9, 7]	18	FR1	2	R1077T
469.199	2.335	555378	PROB	2.335	n/a	n/a	-999	4	[7, 1, 8]	15	FR1	2	R1077T
471.534	3.095	557713	PROB	3.095	n/a	n/a	-999	4	[3, 6, 5]	14	FR1	2	R1077T
474.629	0.006	560808	STOP	n/a	n/a	n/a	-999	4	[-999, -999, -999]	n/a	FR1	2	R1077T
474.635	1.116	560814	DISTRACT_END	n/a	n/a	n/a	-999	4	[0, 0, 0]	n/a	FR1	2	R1077T
475.751	15.691	561930	REC_START	n/a	n/a	n/a	-999	4	[0, 0, 0]	n/a	FR1	2	R1077T
491.442	2.081	577620	REC_WORD	2.081	n/a	WHALE	-999	4	[0, 0, 0]	n/a	FR1	2	R1077T
493.523	9.261	579701	REC_WORD	9.261	n/a	WOLF	-999	4	[0, 0, 0]	n/a	FR1	2	R1077T
502.784	1.0	588962	REC_WORD_VV	1.0	n/a	<>	-999	4	[0, 0, 0]	n/a	FR1	2	R1077T
503.784	0.5	589962	REC_WORD_VV	0.5	n/a	<>	-999	4	[0, 0, 0]	n/a	FR1	2	R1077T
504.284	0.433	590462	REC_WORD	0.433	n/a	DUCK	-999	4	[0, 0, 0]	n/a	FR1	2	R1077T
504.717	1.044	590895	REC_WORD_VV	1.044	n/a	<>	-999	4	[0, 0, 0]	n/a	FR1	2	R1077T
505.761	1.945	591939	REC_END	n/a	n/a	n/a	-999	4	[0, 0, 0]	n/a	FR1	2	R1077T
507.706	0.001	593884	COUNTDOWN_START	n/a	n/a	n/a	-999	5	[0, 0, 0]	n/a	FR1	2	R1077T
507.707	10.427	593885	TRIAL	n/a	n/a	n/a	-999	5	[0, 0, 0]	n/a	FR1	2	R1077T
518.134	0.008	604311	COUNTDOWN_END	n/a	n/a	n/a	-999	5	[0, 0, 0]	n/a	FR1	2	R1077T
518.142	2.418	604319	ORIENT	n/a	n/a	n/a	-999	5	[0, 0, 0]	n/a	FR1	2	R1077T
520.56	2.449	606737	WORD	n/a	wordpools/wordpool_EN.txt	NET	1	5	[0, 0, 0]	n/a	FR1	2	R1077T
523.009	2.451	609186	WORD	n/a	wordpools/wordpool_EN.txt	MILK	2	5	[0, 0, 0]	n/a	FR1	2	R1077T
525.46	2.5	611637	WORD	n/a	wordpools/wordpool_EN.txt	CASH	3	5	[0, 0, 0]	n/a	FR1	2	R1077T
527.96	2.484	614137	WORD	n/a	wordpools/wordpool_EN.txt	GOLD	4	5	[0, 0, 0]	n/a	FR1	2	R1077T
530.444	2.383	616620	WORD	n/a	wordpools/wordpool_EN.txt	STEAK	5	5	[0, 0, 0]	n/a	FR1	2	R1077T
532.827	2.384	619003	WORD	n/a	wordpools/wordpool_EN.txt	GRAPE	6	5	[0, 0, 0]	n/a	FR1	2	R1077T
535.211	2.584	621387	WORD	n/a	wordpools/wordpool_EN.txt	CORN	7	5	[0, 0, 0]	n/a	FR1	2	R1077T
537.795	2.534	623971	WORD	n/a	wordpools/wordpool_EN.txt	CLOTH	8	5	[0, 0, 0]	n/a	FR1	2	R1077T
540.329	2.45	626505	WORD	n/a	wordpools/wordpool_EN.txt	FILM	9	5	[0, 0, 0]	n/a	FR1	2	R1077T
542.779	2.584	628955	WORD	n/a	wordpools/wordpool_EN.txt	PIG	10	5	[0, 0, 0]	n/a	FR1	2	R1077T
545.363	2.467	631539	WORD	n/a	wordpools/wordpool_EN.txt	BEAK	11	5	[0, 0, 0]	n/a	FR1	2	R1077T
547.83	1.617	634006	WORD	n/a	wordpools/wordpool_EN.txt	PEARL	12	5	[0, 0, 0]	n/a	FR1	2	R1077T
549.447	0.001	635622	DISTRACT_START	n/a	n/a	n/a	-999	5	[0, 0, 0]	n/a	FR1	2	R1077T
549.448	0.016	635623	START	n/a	n/a	n/a	-999	5	[-999, -999, -999]	n/a	FR1	2	R1077T
549.464	3.317	635639	PROB	3.317	n/a	n/a	-999	5	[9, 1, 2]	12	FR1	2	R1077T
552.781	6.018	638956	PROB	6.018	n/a	n/a	-999	5	[8, 3, 7]	19	FR1	2	R1077T
558.799	4.601	644974	PROB	4.601	n/a	n/a	-999	5	[4, 4, 2]	10	FR1	2	R1077T
563.4	1.983	649575	PROB	1.983	n/a	n/a	-999	5	[4, 4, 1]	9	FR1	2	R1077T
565.383	3.301	651558	PROB	3.301	n/a	n/a	-999	5	[4, 1, 3]	8	FR1	2	R1077T
568.684	3.144	654859	PROB	3.144	n/a	n/a	-999	5	[5, 6, 1]	12	FR1	2	R1077T
571.828	0.007	658002	STOP	n/a	n/a	n/a	-999	5	[-999, -999, -999]	n/a	FR1	2	R1077T
571.835	1.1	658009	DISTRACT_END	n/a	n/a	n/a	-999	5	[0, 0, 0]	n/a	FR1	2	R1077T
572.935	10.64	659109	REC_START	n/a	n/a	n/a	-999	5	[0, 0, 0]	n/a	FR1	2	R1077T
583.575	0.556	669749	REC_WORD	0.556	n/a	BEAK	-999	5	[0, 0, 0]	n/a	FR1	2	R1077T
584.131	4.479	670305	REC_WORD	4.479	n/a	STEAK	-999	5	[0, 0, 0]	n/a	FR1	2	R1077T
588.61	14.339	674784	REC_WORD	14.339	n/a	GOLD	-999	5	[0, 0, 0]	n/a	FR1	2	R1077T
602.949	2.175	689122	REC_END	n/a	n/a	n/a	-999	5	[0, 0, 0]	n/a	FR1	2	R1077T
605.124	0.0	691297	TRIAL	n/a	n/a	n/a	-999	6	[0, 0, 0]	n/a	FR1	2	R1077T
605.124	10.428	691297	COUNTDOWN_START	n/a	n/a	n/a	-999	6	[0, 0, 0]	n/a	FR1	2	R1077T
615.552	0.008	701724	COUNTDOWN_END	n/a	n/a	n/a	-999	6	[0, 0, 0]	n/a	FR1	2	R1077T
615.56	2.533	701732	ORIENT	n/a	n/a	n/a	-999	6	[0, 0, 0]	n/a	FR1	2	R1077T
618.093	2.518	704265	WORD	n/a	wordpools/wordpool_EN.txt	FORT	1	6	[0, 0, 0]	n/a	FR1	2	R1077T
620.611	2.566	706783	WORD	n/a	wordpools/wordpool_EN.txt	ZOO	2	6	[0, 0, 0]	n/a	FR1	2	R1077T
623.177	2.468	709349	WORD	n/a	wordpools/wordpool_EN.txt	SHARK	3	6	[0, 0, 0]	n/a	FR1	2	R1077T
625.645	2.383	711817	WORD	n/a	wordpools/wordpool_EN.txt	ROCK	4	6	[0, 0, 0]	n/a	FR1	2	R1077T
628.028	2.401	714200	WORD	n/a	wordpools/wordpool_EN.txt	SAIL	5	6	[0, 0, 0]	n/a	FR1	2	R1077T
630.429	2.633	716600	WORD	n/a	wordpools/wordpool_EN.txt	BEACH	6	6	[0, 0, 0]	n/a	FR1	2	R1077T
633.062	2.518	719233	WORD	n/a	wordpools/wordpool_EN.txt	FLAG	7	6	[0, 0, 0]	n/a	FR1	2	R1077T
635.58	2.55	721751	WORD	n/a	wordpools/wordpool_EN.txt	FUR	8	6	[0, 0, 0]	n/a	FR1	2	R1077T
638.13	2.485	724301	WORD	n/a	wordpools/wordpool_EN.txt	DOG	9	6	[0, 0, 0]	n/a	FR1	2	R1077T
640.615	2.566	726786	WORD	n/a	wordpools/wordpool_EN.txt	FLEA	10	6	[0, 0, 0]	n/a	FR1	2	R1077T
643.181	2.584	729352	WORD	n/a	wordpools/wordpool_EN.txt	JAIL	11	6	[0, 0, 0]	n/a	FR1	2	R1077T
645.765	1.617	731936	WORD	n/a	wordpools/wordpool_EN.txt	TRASH	12	6	[0, 0, 0]	n/a	FR1	2	R1077T
647.382	0.001	733553	DISTRACT_START	n/a	n/a	n/a	-999	6	[0, 0, 0]	n/a	FR1	2	R1077T
647.383	0.015	733554	START	n/a	n/a	n/a	-999	6	[-999, -999, -999]	n/a	FR1	2	R1077T
647.398	4.484	733569	PROB	4.484	n/a	n/a	-999	6	[5, 3, 9]	18	FR1	2	R1077T
651.882	4.401	738052	PROB	4.401	n/a	n/a	-999	6	[5, 8, 4]	17	FR1	2	R1077T
656.283	3.551	742453	PROB	3.551	n/a	n/a	-999	6	[9, 6, 3]	18	FR1	2	R1077T
659.834	3.434	746004	PROB	3.434	n/a	n/a	-999	6	[2, 8, 3]	13	FR1	2	R1077T
663.268	5.68	749438	PROB	5.68	n/a	n/a	-999	6	[7, 4, 7]	18	FR1	2	R1077T
668.948	0.004	755118	STOP	n/a	n/a	n/a	-999	6	[-999, -999, -999]	n/a	FR1	2	R1077T
668.952	1.052	755122	DISTRACT_END	n/a	n/a	n/a	-999	6	[0, 0, 0]	n/a	FR1	2	R1077T
670.004	2.795	756174	REC_START	n/a	n/a	n/a	-999	6	[0, 0, 0]	n/a	FR1	2	R1077T
672.799	0.61	758968	REC_WORD	0.61	n/a	ZOO	-999	6	[0, 0, 0]	n/a	FR1	2	R1077T
673.409	1.421	759578	REC_WORD	1.421	n/a	CLIFF	-999	6	[0, 0, 0]	n/a	FR1	2	R1077T
674.83	1.758	760999	REC_WORD	1.758	n/a	JAIL	-999	6	[0, 0, 0]	n/a	FR1	2	R1077T
676.588	1.704	762757	REC_WORD	1.704	n/a	TRASH	-999	6	[0, 0, 0]	n/a	FR1	2	R1077T
678.292	0.662	764461	REC_WORD	0.662	n/a	DOG	-999	6	[0, 0, 0]	n/a	FR1	2	R1077T
678.954	21.059	765123	REC_WORD	21.059	n/a	FLEA	-999	6	[0, 0, 0]	n/a	FR1	2	R1077T
700.013	1.895	786181	REC_END	n/a	n/a	n/a	-999	6	[0, 0, 0]	n/a	FR1	2	R1077T
701.908	0.0	788076	TRIAL	n/a	n/a	n/a	-999	7	[0, 0, 0]	n/a	FR1	2	R1077T
701.908	10.428	788076	COUNTDOWN_START	n/a	n/a	n/a	-999	7	[0, 0, 0]	n/a	FR1	2	R1077T
712.336	0.008	798503	COUNTDOWN_END	n/a	n/a	n/a	-999	7	[0, 0, 0]	n/a	FR1	2	R1077T
712.344	2.533	798511	ORIENT	n/a	n/a	n/a	-999	7	[0, 0, 0]	n/a	FR1	2	R1077T
714.877	2.567	801044	WORD	n/a	wordpools/wordpool_EN.txt	FARM	1	7	[0, 0, 0]	n/a	FR1	2	R1077T
717.444	2.501	803611	WORD	n/a	wordpools/wordpool_EN.txt	LAKE	2	7	[0, 0, 0]	n/a	FR1	2	R1077T
719.945	2.601	806112	WORD	n/a	wordpools/wordpool_EN.txt	SNOW	3	7	[0, 0, 0]	n/a	FR1	2	R1077T
722.546	2.533	808713	WORD	n/a	wordpools/wordpool_EN.txt	RAKE	4	7	[0, 0, 0]	n/a	FR1	2	R1077T
725.079	2.417	811246	WORD	n/a	wordpools/wordpool_EN.txt	CALF	5	7	[0, 0, 0]	n/a	FR1	2	R1077T
727.496	2.617	813663	WORD	n/a	wordpools/wordpool_EN.txt	SPRING	6	7	[0, 0, 0]	n/a	FR1	2	R1077T
730.113	2.518	816280	WORD	n/a	wordpools/wordpool_EN.txt	GRASS	7	7	[0, 0, 0]	n/a	FR1	2	R1077T
732.631	2.45	818797	WORD	n/a	wordpools/wordpool_EN.txt	SKUNK	8	7	[0, 0, 0]	n/a	FR1	2	R1077T
735.081	2.584	821247	WORD	n/a	wordpools/wordpool_EN.txt	WOOD	9	7	[0, 0, 0]	n/a	FR1	2	R1077T
737.665	2.417	823831	WORD	n/a	wordpools/wordpool_EN.txt	SIGN	10	7	[0, 0, 0]	n/a	FR1	2	R1077T
740.082	2.518	826248	WORD	n/a	wordpools/wordpool_EN.txt	ELF	11	7	[0, 0, 0]	n/a	FR1	2	R1077T
742.6	1.616	828766	WORD	n/a	wordpools/wordpool_EN.txt	MOTH	12	7	[0, 0, 0]	n/a	FR1	2	R1077T
744.216	0.001	830382	DISTRACT_START	n/a	n/a	n/a	-999	7	[0, 0, 0]	n/a	FR1	2	R1077T
744.217	0.016	830383	START	n/a	n/a	n/a	-999	7	[-999, -999, -999]	n/a	FR1	2	R1077T
744.233	3.95	830399	PROB	3.95	n/a	n/a	-999	7	[9, 4, 9]	22	FR1	2	R1077T
748.183	2.284	834349	PROB	2.284	n/a	n/a	-999	7	[2, 3, 7]	12	FR1	2	R1077T
750.467	5.102	836633	PROB	5.102	n/a	n/a	-999	7	[8, 4, 2]	14	FR1	2	R1077T
755.569	3.017	841734	PROB	3.017	n/a	n/a	-999	7	[3, 2, 1]	6	FR1	2	R1077T
758.586	3.001	844751	PROB	3.001	n/a	n/a	-999	7	[2, 4, 2]	8	FR1	2	R1077T
761.587	2.649	847752	PROB	2.649	n/a	n/a	-999	7	[8, 6, 4]	18	FR1	2	R1077T
764.236	0.017	850401	STOP	n/a	n/a	n/a	-999	7	[-999, -999, -999]	n/a	FR1	2	R1077T
764.253	1.117	850418	DISTRACT_END	n/a	n/a	n/a	-999	7	[0, 0, 0]	n/a	FR1	2	R1077T
765.37	2.486	851535	REC_START	n/a	n/a	n/a	-999	7	[0, 0, 0]	n/a	FR1	2	R1077T
767.856	0.639	854021	REC_WORD	0.639	n/a	FARM	-999	7	[0, 0, 0]	n/a	FR1	2	R1077T
768.495	1.033	854660	REC_WORD	1.033	n/a	SNOW	-999	7	[0, 0, 0]	n/a	FR1	2	R1077T
769.528	8.481	855693	REC_WORD	8.481	n/a	RAKE	-999	7	[0, 0, 0]	n/a	FR1	2	R1077T
778.009	15.153	864173	REC_WORD	15.153	n/a	GRASS	-999	7	[0, 0, 0]	n/a	FR1	2	R1077T
793.162	2.221	879325	REC_WORD	2.221	n/a	COW	-999	7	[0, 0, 0]	n/a	FR1	2	R1077T
795.383	1.476	881546	REC_END	n/a	n/a	n/a	-999	7	[0, 0, 0]	n/a	FR1	2	R1077T
796.859	0.0	883022	COUNTDOWN_START	n/a	n/a	n/a	-999	8	[0, 0, 0]	n/a	FR1	2	R1077T
796.859	10.428	883022	TRIAL	n/a	n/a	n/a	-999	8	[0, 0, 0]	n/a	FR1	2	R1077T
807.287	0.007	893450	COUNTDOWN_END	n/a	n/a	n/a	-999	8	[0, 0, 0]	n/a	FR1	2	R1077T
807.294	2.417	893457	ORIENT	n/a	n/a	n/a	-999	8	[0, 0, 0]	n/a	FR1	2	R1077T
809.711	2.451	895874	WORD	n/a	wordpools/wordpool_EN.txt	BRUSH	1	8	[0, 0, 0]	n/a	FR1	2	R1077T
812.162	2.55	898324	WORD	n/a	wordpools/wordpool_EN.txt	MUD	2	8	[0, 0, 0]	n/a	FR1	2	R1077T
814.712	2.501	900874	WORD	n/a	wordpools/wordpool_EN.txt	PHONE	3	8	[0, 0, 0]	n/a	FR1	2	R1077T
817.213	2.617	903375	WORD	n/a	wordpools/wordpool_EN.txt	CHALK	4	8	[0, 0, 0]	n/a	FR1	2	R1077T
819.83	2.483	905992	WORD	n/a	wordpools/wordpool_EN.txt	SMOKE	5	8	[0, 0, 0]	n/a	FR1	2	R1077T
822.313	2.451	908475	WORD	n/a	wordpools/wordpool_EN.txt	BATH	6	8	[0, 0, 0]	n/a	FR1	2	R1077T
824.764	2.534	910926	WORD	n/a	wordpools/wordpool_EN.txt	FOAM	7	8	[0, 0, 0]	n/a	FR1	2	R1077T
827.298	2.434	913460	WORD	n/a	wordpools/wordpool_EN.txt	FROG	8	8	[0, 0, 0]	n/a	FR1	2	R1077T
829.732	2.633	915894	WORD	n/a	wordpools/wordpool_EN.txt	STRING	9	8	[0, 0, 0]	n/a	FR1	2	R1077T
832.365	2.401	918526	WORD	n/a	wordpools/wordpool_EN.txt	BOARD	10	8	[0, 0, 0]	n/a	FR1	2	R1077T
834.766	2.617	920927	WORD	n/a	wordpools/wordpool_EN.txt	PIE	11	8	[0, 0, 0]	n/a	FR1	2	R1077T
837.383	1.617	923544	WORD	n/a	wordpools/wordpool_EN.txt	TOOTH	12	8	[0, 0, 0]	n/a	FR1	2	R1077T
839.0	0.001	925161	DISTRACT_START	n/a	n/a	n/a	-999	8	[0, 0, 0]	n/a	FR1	2	R1077T
839.001	0.015	925162	START	n/a	n/a	n/a	-999	8	[-999, -999, -999]	n/a	FR1	2	R1077T
839.016	3.268	925177	PROB	3.268	n/a	n/a	-999	8	[6, 3, 3]	15	FR1	2	R1077T
842.284	6.501	928445	PROB	6.501	n/a	n/a	-999	8	[6, 3, 5]	15	FR1	2	R1077T
848.785	2.735	934946	PROB	2.735	n/a	n/a	-999	8	[3, 5, 4]	12	FR1	2	R1077T
851.52	5.833	937681	PROB	5.833	n/a	n/a	-999	8	[5, 6, 5]	26	FR1	2	R1077T
857.353	5.155	943513	PROB	5.155	n/a	n/a	-999	8	[2, 1, 7]	9	FR1	2	R1077T
862.508	0.014	948668	STOP	n/a	n/a	n/a	-999	8	[-999, -999, -999]	n/a	FR1	2	R1077T
862.522	1.134	948682	DISTRACT_END	n/a	n/a	n/a	-999	8	[0, 0, 0]	n/a	FR1	2	R1077T
863.656	2.916	949816	REC_START	n/a	n/a	n/a	-999	8	[0, 0, 0]	n/a	FR1	2	R1077T
866.572	10.401	952732	REC_WORD	10.401	n/a	TOOTH	-999	8	[0, 0, 0]	n/a	FR1	2	R1077T
876.973	1.34	963132	REC_WORD	1.34	n/a	BRUSH	-999	8	[0, 0, 0]	n/a	FR1	2	R1077T
878.313	0.328	964472	REC_WORD_VV	0.328	n/a	<>	-999	8	[0, 0, 0]	n/a	FR1	2	R1077T
878.641	15.024	964800	REC_WORD	15.024	n/a	BRUSH	-999	8	[0, 0, 0]	n/a	FR1	2	R1077T
893.665	3.812	979823	REC_END	n/a	n/a	n/a	-999	8	[0, 0, 0]	n/a	FR1	2	R1077T
897.477	0.0	983635	TRIAL	n/a	n/a	n/a	-999	9	[0, 0, 0]	n/a	FR1	2	R1077T
897.477	10.428	983635	COUNTDOWN_START	n/a	n/a	n/a	-999	9	[0, 0, 0]	n/a	FR1	2	R1077T
907.905	0.007	994063	COUNTDOWN_END	n/a	n/a	n/a	-999	9	[0, 0, 0]	n/a	FR1	2	R1077T
907.912	2.484	994070	ORIENT	n/a	n/a	n/a	-999	9	[0, 0, 0]	n/a	FR1	2	R1077T
910.396	2.401	996554	WORD	n/a	wordpools/wordpool_EN.txt	ANT	1	9	[0, 0, 0]	n/a	FR1	2	R1077T
912.797	2.533	998954	WORD	n/a	wordpools/wordpool_EN.txt	RAT	2	9	[0, 0, 0]	n/a	FR1	2	R1077T
915.33	2.584	1001487	WORD	n/a	wordpools/wordpool_EN.txt	PEAR	3	9	[0, 0, 0]	n/a	FR1	2	R1077T
917.914	2.501	1004071	WORD	n/a	wordpools/wordpool_EN.txt	BRANCH	4	9	[0, 0, 0]	n/a	FR1	2	R1077T
920.415	2.45	1006572	WORD	n/a	wordpools/wordpool_EN.txt	CAVE	5	9	[0, 0, 0]	n/a	FR1	2	R1077T
922.865	2.384	1009022	WORD	n/a	wordpools/wordpool_EN.txt	MOLE	6	9	[0, 0, 0]	n/a	FR1	2	R1077T
925.249	2.55	1011406	WORD	n/a	wordpools/wordpool_EN.txt	HEART	7	9	[0, 0, 0]	n/a	FR1	2	R1077T
927.799	2.501	1013956	WORD	n/a	wordpools/wordpool_EN.txt	SLIME	8	9	[0, 0, 0]	n/a	FR1	2	R1077T
930.3	2.433	1016457	WORD	n/a	wordpools/wordpool_EN.txt	FOOD	9	9	[0, 0, 0]	n/a	FR1	2	R1077T
932.733	2.601	1018890	WORD	n/a	wordpools/wordpool_EN.txt	BEE	10	9	[0, 0, 0]	n/a	FR1	2	R1077T
935.334	2.451	1021490	WORD	n/a	wordpools/wordpool_EN.txt	BED	11	9	[0, 0, 0]	n/a	FR1	2	R1077T
937.785	1.616	1023941	WORD	n/a	wordpools/wordpool_EN.txt	PLANT	12	9	[0, 0, 0]	n/a	FR1	2	R1077T
939.401	0.001	1025557	DISTRACT_START	n/a	n/a	n/a	-999	9	[0, 0, 0]	n/a	FR1	2	R1077T
939.402	0.016	1025558	START	n/a	n/a	n/a	-999	9	[-999, -999, -999]	n/a	FR1	2	R1077T
939.418	2.984	1025574	PROB	2.984	n/a	n/a	-999	9	[6, 8, 2]	16	FR1	2	R1077T
942.402	5.202	1028558	PROB	5.202	n/a	n/a	-999	9	[8, 4, 8]	20	FR1	2	R1077T
947.604	3.5	1033760	PROB	3.5	n/a	n/a	-999	9	[4, 1, 3]	8	FR1	2	R1077T
951.104	7.084	1037260	PROB	7.084	n/a	n/a	-999	9	[7, 6, 9]	22	FR1	2	R1077T
958.188	5.056	1044343	PROB	5.056	n/a	n/a	-999	9	[6, 9, 3]	18	FR1	2	R1077T
963.244	0.012	1049399	STOP	n/a	n/a	n/a	-999	9	[-999, -999, -999]	n/a	FR1	2	R1077T
963.256	1.084	1049411	DISTRACT_END	n/a	n/a	n/a	-999	9	[0, 0, 0]	n/a	FR1	2	R1077T
964.34	3.087	1050495	REC_START	n/a	n/a	n/a	-999	9	[0, 0, 0]	n/a	FR1	2	R1077T
967.427	6.373	1053582	REC_WORD	6.373	n/a	CAVE	-999	9	[0, 0, 0]	n/a	FR1	2	R1077T
973.8	1.358	1059954	REC_WORD_VV	1.358	n/a	<>	-999	9	[0, 0, 0]	n/a	FR1	2	R1077T
975.158	1.081	1061312	REC_WORD	1.081	n/a	BEE	-999	9	[0, 0, 0]	n/a	FR1	2	R1077T
976.239	1.274	1062393	REC_WORD_VV	1.274	n/a	<>	-999	9	[0, 0, 0]	n/a	FR1	2	R1077T
977.513	1.893	1063667	REC_WORD_VV	1.893	n/a	<>	-999	9	[0, 0, 0]	n/a	FR1	2	R1077T
979.406	0.733	1065560	REC_WORD_VV	0.733	n/a	<>	-999	9	[0, 0, 0]	n/a	FR1	2	R1077T
980.139	3.237	1066293	REC_WORD	3.237	n/a	ANT	-999	9	[0, 0, 0]	n/a	FR1	2	R1077T
983.376	0.511	1069530	REC_WORD_VV	0.511	n/a	<>	-999	9	[0, 0, 0]	n/a	FR1	2	R1077T
983.887	1.142	1070041	REC_WORD_VV	1.142	n/a	<>	-999	9	[0, 0, 0]	n/a	FR1	2	R1077T
985.029	1.75	1071183	REC_WORD	1.75	n/a	HEART	-999	9	[0, 0, 0]	n/a	FR1	2	R1077T
986.779	0.85	1072933	REC_WORD	0.85	n/a	SLIME	-999	9	[0, 0, 0]	n/a	FR1	2	R1077T
987.629	6.721	1073783	REC_WORD	6.721	n/a	FOOD	-999	9	[0, 0, 0]	n/a	FR1	2	R1077T
994.35	1.628	1080503	REC_END	n/a	n/a	n/a	-999	9	[0, 0, 0]	n/a	FR1	2	R1077T
995.978	0.001	1082131	COUNTDOWN_START	n/a	n/a	n/a	-999	10	[0, 0, 0]	n/a	FR1	2	R1077T
995.979	10.427	1082132	TRIAL	n/a	n/a	n/a	-999	10	[0, 0, 0]	n/a	FR1	2	R1077T
1006.406	0.008	1092559	COUNTDOWN_END	n/a	n/a	n/a	-999	10	[0, 0, 0]	n/a	FR1	2	R1077T
1006.414	2.6	1092567	ORIENT	n/a	n/a	n/a	-999	10	[0, 0, 0]	n/a	FR1	2	R1077T
1009.014	2.467	1095167	WORD	n/a	wordpools/wordpool_EN.txt	CLAY	1	10	[0, 0, 0]	n/a	FR1	2	R1077T
1011.481	2.567	1097634	WORD	n/a	wordpools/wordpool_EN.txt	INK	2	10	[0, 0, 0]	n/a	FR1	2	R1077T
1014.048	2.451	1100200	WORD	n/a	wordpools/wordpool_EN.txt	CHIN	3	10	[0, 0, 0]	n/a	FR1	2	R1077T
1016.499	2.534	1102651	WORD	n/a	wordpools/wordpool_EN.txt	BANK	4	10	[0, 0, 0]	n/a	FR1	2	R1077T
1019.033	2.467	1105185	WORD	n/a	wordpools/wordpool_EN.txt	PEACH	5	10	[0, 0, 0]	n/a	FR1	2	R1077T
1021.5	2.584	1107652	WORD	n/a	wordpools/wordpool_EN.txt	STOOL	6	10	[0, 0, 0]	n/a	FR1	2	R1077T
1024.084	2.4	1110236	WORD	n/a	wordpools/wordpool_EN.txt	BENCH	7	10	[0, 0, 0]	n/a	FR1	2	R1077T
1026.484	2.417	1112636	WORD	n/a	wordpools/wordpool_EN.txt	THREAD	8	10	[0, 0, 0]	n/a	FR1	2	R1077T
1028.901	2.417	1115053	WORD	n/a	wordpools/wordpool_EN.txt	LAMP	9	10	[0, 0, 0]	n/a	FR1	2	R1077T
1031.318	2.55	1117470	WORD	n/a	wordpools/wordpool_EN.txt	SOAP	10	10	[0, 0, 0]	n/a	FR1	2	R1077T
1033.868	2.618	1120019	WORD	n/a	wordpools/wordpool_EN.txt	FLUTE	11	10	[0, 0, 0]	n/a	FR1	2	R1077T
1036.486	1.617	1122637	WORD	n/a	wordpools/wordpool_EN.txt	PASTE	12	10	[0, 0, 0]	n/a	FR1	2	R1077T
1038.103	0.001	1124254	DISTRACT_START	n/a	n/a	n/a	-999	10	[0, 0, 0]	n/a	FR1	2	R1077T
1038.104	0.015	1124255	START	n/a	n/a	n/a	-999	10	[-999, -999, -999]	n/a	FR1	2	R1077T
1038.119	3.384	1124270	PROB	3.384	n/a	n/a	-999	10	[1, 4, 2]	7	FR1	2	R1077T
1041.503	3.934	1127654	PROB	3.934	n/a	n/a	-999	10	[2, 9, 6]	17	FR1	2	R1077T
1045.437	4.234	1131588	PROB	4.234	n/a	n/a	-999	10	[9, 5, 6]	20	FR1	2	R1077T
1049.671	3.268	1135822	PROB	3.268	n/a	n/a	-999	10	[8, 6, 3]	17	FR1	2	R1077T
1052.939	6.169	1139090	PROB	6.169	n/a	n/a	-999	10	[8, 7, 9]	24	FR1	2	R1077T
1059.108	0.015	1145258	STOP	n/a	n/a	n/a	-999	10	[-999, -999, -999]	n/a	FR1	2	R1077T
1059.123	1.152	1145273	DISTRACT_END	n/a	n/a	n/a	-999	10	[0, 0, 0]	n/a	FR1	2	R1077T
1060.275	5.808	1146425	REC_START	n/a	n/a	n/a	-999	10	[0, 0, 0]	n/a	FR1	2	R1077T
1066.083	1.3	1152233	REC_WORD	1.3	n/a	CLAY	-999	10	[0, 0, 0]	n/a	FR1	2	R1077T
1067.383	0.383	1153533	REC_WORD_VV	0.383	n/a	<>	-999	10	[0, 0, 0]	n/a	FR1	2	R1077T
1067.766	22.519	1153916	REC_WORD	22.519	n/a	CLAY	-999	10	[0, 0, 0]	n/a	FR1	2	R1077T
1090.285	4.611	1176434	REC_END	n/a	n/a	n/a	-999	10	[0, 0, 0]	n/a	FR1	2	R1077T
1094.896	0.001	1181044	COUNTDOWN_START	n/a	n/a	n/a	-999	11	[0, 0, 0]	n/a	FR1	2	R1077T
1094.897	10.427	1181045	TRIAL	n/a	n/a	n/a	-999	11	[0, 0, 0]	n/a	FR1	2	R1077T
1105.324	0.008	1191472	COUNTDOWN_END	n/a	n/a	n/a	-999	11	[0, 0, 0]	n/a	FR1	2	R1077T
1105.332	2.417	1191480	ORIENT	n/a	n/a	n/a	-999	11	[0, 0, 0]	n/a	FR1	2	R1077T
1107.749	2.4	1193897	WORD	n/a	wordpools/wordpool_EN.txt	WORM	1	11	[0, 0, 0]	n/a	FR1	2	R1077T
1110.149	2.55	1196297	WORD	n/a	wordpools/wordpool_EN.txt	EGG	2	11	[0, 0, 0]	n/a	FR1	2	R1077T
1112.699	2.601	1198847	WORD	n/a	wordpools/wordpool_EN.txt	HOOK	3	11	[0, 0, 0]	n/a	FR1	2	R1077T
1115.3	2.534	1201447	WORD	n/a	wordpools/wordpool_EN.txt	WING	4	11	[0, 0, 0]	n/a	FR1	2	R1077T
1117.834	2.467	1203981	WORD	n/a	wordpools/wordpool_EN.txt	FISH	5	11	[0, 0, 0]	n/a	FR1	2	R1077T
1120.301	2.467	1206448	WORD	n/a	wordpools/wordpool_EN.txt	STORM	6	11	[0, 0, 0]	n/a	FR1	2	R1077T
1122.768	2.517	1208915	WORD	n/a	wordpools/wordpool_EN.txt	SEA	7	11	[0, 0, 0]	n/a	FR1	2	R1077T
1125.285	2.501	1211432	WORD	n/a	wordpools/wordpool_EN.txt	WEB	8	11	[0, 0, 0]	n/a	FR1	2	R1077T
1127.786	2.467	1213933	WORD	n/a	wordpools/wordpool_EN.txt	SHRIMP	9	11	[0, 0, 0]	n/a	FR1	2	R1077T
1130.253	2.517	1216400	WORD	n/a	wordpools/wordpool_EN.txt	SHELL	10	11	[0, 0, 0]	n/a	FR1	2	R1077T
1132.77	2.6	1218917	WORD	n/a	wordpools/wordpool_EN.txt	CUBE	11	11	[0, 0, 0]	n/a	FR1	2	R1077T
1135.37	1.617	1221516	WORD	n/a	wordpools/wordpool_EN.txt	BOAT	12	11	[0, 0, 0]	n/a	FR1	2	R1077T
1136.987	0.001	1223133	DISTRACT_START	n/a	n/a	n/a	-999	11	[0, 0, 0]	n/a	FR1	2	R1077T
1136.988	0.016	1223134	START	n/a	n/a	n/a	-999	11	[-999, -999, -999]	n/a	FR1	2	R1077T
1137.004	3.684	1223150	PROB	3.684	n/a	n/a	-999	11	[3, 7, 3]	14	FR1	2	R1077T
1140.688	4.768	1226834	PROB	4.768	n/a	n/a	-999	11	[6, 8, 7]	21	FR1	2	R1077T
1145.456	4.185	1231602	PROB	4.185	n/a	n/a	-999	11	[3, 3, 6]	15	FR1	2	R1077T
1149.641	5.2	1235787	PROB	5.2	n/a	n/a	-999	11	[6, 8, 4]	18	FR1	2	R1077T
1154.841	3.443	1240987	PROB	3.443	n/a	n/a	-999	11	[9, 4, 7]	19	FR1	2	R1077T
1158.284	0.007	1244429	STOP	n/a	n/a	n/a	-999	11	[-999, -999, -999]	n/a	FR1	2	R1077T
1158.291	1.051	1244436	DISTRACT_END	n/a	n/a	n/a	-999	11	[0, 0, 0]	n/a	FR1	2	R1077T
1159.342	2.911	1245487	REC_START	n/a	n/a	n/a	-999	11	[0, 0, 0]	n/a	FR1	2	R1077T
1162.253	2.432	1248398	REC_WORD	2.432	n/a	SEA	-999	11	[0, 0, 0]	n/a	FR1	2	R1077T
1164.685	0.861	1250830	REC_WORD	0.861	n/a	BOAT	-999	11	[0, 0, 0]	n/a	FR1	2	R1077T
1165.546	3.851	1251691	REC_WORD	3.851	n/a	SHRIMP	-999	11	[0, 0, 0]	n/a	FR1	2	R1077T
1169.397	3.955	1255542	REC_WORD	3.955	n/a	SHELL	-999	11	[0, 0, 0]	n/a	FR1	2	R1077T
1173.352	0.829	1259497	REC_WORD	0.829	n/a	HOOK	-999	11	[0, 0, 0]	n/a	FR1	2	R1077T
1174.181	3.476	1260326	REC_WORD	3.476	n/a	FISH	-999	11	[0, 0, 0]	n/a	FR1	2	R1077T
1177.657	11.695	1263801	REC_WORD	11.695	n/a	WING	-999	11	[0, 0, 0]	n/a	FR1	2	R1077T
1189.352	1.362	1275496	REC_END	n/a	n/a	n/a	-999	11	[0, 0, 0]	n/a	FR1	2	R1077T
1190.714	0.0	1276858	TRIAL	n/a	n/a	n/a	-999	12	[0, 0, 0]	n/a	FR1	2	R1077T
1190.714	10.428	1276858	COUNTDOWN_START	n/a	n/a	n/a	-999	12	[0, 0, 0]	n/a	FR1	2	R1077T
1201.142	0.007	1287285	COUNTDOWN_END	n/a	n/a	n/a	-999	12	[0, 0, 0]	n/a	FR1	2	R1077T
1201.149	2.418	1287292	ORIENT	n/a	n/a	n/a	-999	12	[0, 0, 0]	n/a	FR1	2	R1077T
1203.567	2.483	1289710	WORD	n/a	wordpools/wordpool_EN.txt	GLASS	1	12	[0, 0, 0]	n/a	FR1	2	R1077T
1206.05	2.45	1292193	WORD	n/a	wordpools/wordpool_EN.txt	FOG	2	12	[0, 0, 0]	n/a	FR1	2	R1077T
1208.5	2.484	1294643	WORD	n/a	wordpools/wordpool_EN.txt	TRAY	3	12	[0, 0, 0]	n/a	FR1	2	R1077T
1210.984	2.602	1297127	WORD	n/a	wordpools/wordpool_EN.txt	FUDGE	4	12	[0, 0, 0]	n/a	FR1	2	R1077T
1213.586	2.382	1299729	WORD	n/a	wordpools/wordpool_EN.txt	STEAM	5	12	[0, 0, 0]	n/a	FR1	2	R1077T
1215.968	2.569	1302110	WORD	n/a	wordpools/wordpool_EN.txt	JET	6	12	[0, 0, 0]	n/a	FR1	2	R1077T
1218.537	2.382	1304679	WORD	n/a	wordpools/wordpool_EN.txt	LAND	7	12	[0, 0, 0]	n/a	FR1	2	R1077T
1220.919	2.501	1307061	WORD	n/a	wordpools/wordpool_EN.txt	SALT	8	12	[0, 0, 0]	n/a	FR1	2	R1077T
1223.42	2.5	1309562	WORD	n/a	wordpools/wordpool_EN.txt	FLAME	9	12	[0, 0, 0]	n/a	FR1	2	R1077T
1225.92	2.584	1312062	WORD	n/a	wordpools/wordpool_EN.txt	CLOUD	10	12	[0, 0, 0]	n/a	FR1	2	R1077T
1228.504	2.5	1314646	WORD	n/a	wordpools/wordpool_EN.txt	SHIP	11	12	[0, 0, 0]	n/a	FR1	2	R1077T
1231.004	1.602	1317146	WORD	n/a	wordpools/wordpool_EN.txt	SPONGE	12	12	[0, 0, 0]	n/a	FR1	2	R1077T
1232.606	0.0	1318748	DISTRACT_START	n/a	n/a	n/a	-999	12	[0, 0, 0]	n/a	FR1	2	R1077T
1232.606	0.016	1318748	START	n/a	n/a	n/a	-999	12	[-999, -999, -999]	n/a	FR1	2	R1077T
1232.622	2.633	1318764	PROB	2.633	n/a	n/a	-999	12	[5, 1, 1]	7	FR1	2	R1077T
1235.255	2.217	1321397	PROB	2.217	n/a	n/a	-999	12	[8, 4, 6]	18	FR1	2	R1077T
1237.472	6.052	1323613	PROB	6.052	n/a	n/a	-999	12	[3, 5, 4]	12	FR1	2	R1077T
1243.524	3.267	1329665	PROB	3.267	n/a	n/a	-999	12	[7, 4, 3]	14	FR1	2	R1077T
1246.791	4.6	1332932	PROB	4.6	n/a	n/a	-999	12	[2, 8, 1]	10	FR1	2	R1077T
1251.391	4.661	1337532	PROB	4.661	n/a	n/a	-999	12	[4, 2, 1]	7	FR1	2	R1077T
1256.052	0.007	1342192	STOP	n/a	n/a	n/a	-999	12	[-999, -999, -999]	n/a	FR1	2	R1077T
1256.059	1.118	1342199	DISTRACT_END	n/a	n/a	n/a	-999	12	[0, 0, 0]	n/a	FR1	2	R1077T
1257.177	12.168	1343317	REC_START	n/a	n/a	n/a	-999	12	[0, 0, 0]	n/a	FR1	2	R1077T
1269.345	1.811	1355485	REC_WORD	1.811	n/a	FLAME	-999	12	[0, 0, 0]	n/a	FR1	2	R1077T
1271.156	16.033	1357296	REC_WORD_VV	16.033	n/a	<>	-999	12	[0, 0, 0]	n/a	FR1	2	R1077T
1287.189	1.626	1373328	REC_END	n/a	n/a	n/a	-999	12	[0, 0, 0]	n/a	FR1	2	R1077T
1288.815	0.0	1374954	TRIAL	n/a	n/a	n/a	-999	13	[0, 0, 0]	n/a	FR1	2	R1077T
1288.815	10.428	1374954	COUNTDOWN_START	n/a	n/a	n/a	-999	13	[0, 0, 0]	n/a	FR1	2	R1077T
1299.243	0.007	1385381	COUNTDOWN_END	n/a	n/a	n/a	-999	13	[0, 0, 0]	n/a	FR1	2	R1077T
1299.25	2.501	1385388	ORIENT	n/a	n/a	n/a	-999	13	[0, 0, 0]	n/a	FR1	2	R1077T
1301.751	2.433	1387889	WORD	n/a	wordpools/wordpool_EN.txt	ROOT	1	13	[0, 0, 0]	n/a	FR1	2	R1077T
1304.184	2.484	1390322	WORD	n/a	wordpools/wordpool_EN.txt	TREE	2	13	[0, 0, 0]	n/a	FR1	2	R1077T
1306.668	2.451	1392806	WORD	n/a	wordpools/wordpool_EN.txt	POOL	3	13	[0, 0, 0]	n/a	FR1	2	R1077T
1309.119	2.567	1395257	WORD	n/a	wordpools/wordpool_EN.txt	DART	4	13	[0, 0, 0]	n/a	FR1	2	R1077T
1311.686	2.417	1397824	WORD	n/a	wordpools/wordpool_EN.txt	RICE	5	13	[0, 0, 0]	n/a	FR1	2	R1077T
1314.103	2.567	1400241	WORD	n/a	wordpools/wordpool_EN.txt	LEAF	6	13	[0, 0, 0]	n/a	FR1	2	R1077T
1316.67	2.517	1402807	WORD	n/a	wordpools/wordpool_EN.txt	OAK	7	13	[0, 0, 0]	n/a	FR1	2	R1077T
1319.187	2.501	1405324	WORD	n/a	wordpools/wordpool_EN.txt	STEM	8	13	[0, 0, 0]	n/a	FR1	2	R1077T
1321.688	2.617	1407825	WORD	n/a	wordpools/wordpool_EN.txt	SEED	9	13	[0, 0, 0]	n/a	FR1	2	R1077T
1324.305	2.517	1410442	WORD	n/a	wordpools/wordpool_EN.txt	LAMB	10	13	[0, 0, 0]	n/a	FR1	2	R1077T
1326.822	2.6	1412959	WORD	n/a	wordpools/wordpool_EN.txt	MUG	11	13	[0, 0, 0]	n/a	FR1	2	R1077T
1329.422	1.617	1415559	WORD	n/a	wordpools/wordpool_EN.txt	TEA	12	13	[0, 0, 0]	n/a	FR1	2	R1077T
1331.039	0.001	1417176	DISTRACT_START	n/a	n/a	n/a	-999	13	[0, 0, 0]	n/a	FR1	2	R1077T
1331.04	0.016	1417177	START	n/a	n/a	n/a	-999	13	[-999, -999, -999]	n/a	FR1	2	R1077T
1331.056	5.284	1417193	PROB	5.284	n/a	n/a	-999	13	[8, 8, 6]	24	FR1	2	R1077T
1336.34	3.484	1422477	PROB	3.484	n/a	n/a	-999	13	[2, 2, 8]	12	FR1	2	R1077T
1339.824	2.851	1425960	PROB	2.851	n/a	n/a	-999	13	[5, 9, 3]	18	FR1	2	R1077T
1342.675	3.45	1428811	PROB	3.45	n/a	n/a	-999	13	[9, 2, 6]	17	FR1	2	R1077T
1346.125	2.151	1432261	PROB	2.151	n/a	n/a	-999	13	[6, 2, 4]	12	FR1	2	R1077T
1348.276	4.768	1434412	PROB	4.768	n/a	n/a	-999	13	[2, 3, 7]	11	FR1	2	R1077T
1353.044	0.016	1439180	STOP	n/a	n/a	n/a	-999	13	[-999, -999, -999]	n/a	FR1	2	R1077T
1353.06	1.151	1439196	DISTRACT_END	n/a	n/a	n/a	-999	13	[0, 0, 0]	n/a	FR1	2	R1077T
1354.211	13.332	1440347	REC_START	n/a	n/a	n/a	-999	13	[0, 0, 0]	n/a	FR1	2	R1077T
1367.543	0.753	1453678	REC_WORD	0.753	n/a	OAK	-999	13	[0, 0, 0]	n/a	FR1	2	R1077T
1368.296	2.035	1454431	REC_WORD	2.035	n/a	TREE	-999	13	[0, 0, 0]	n/a	FR1	2	R1077T
1370.331	2.261	1456466	REC_WORD	2.261	n/a	BRANCH	-999	13	[0, 0, 0]	n/a	FR1	2	R1077T
1372.592	1.653	1458727	REC_WORD	1.653	n/a	STREAM	-999	13	[0, 0, 0]	n/a	FR1	2	R1077T
1374.245	4.198	1460380	REC_WORD	4.198	n/a	PLATE	-999	13	[0, 0, 0]	n/a	FR1	2	R1077T
1378.443	2.942	1464577	REC_WORD	2.942	n/a	MUG	-999	13	[0, 0, 0]	n/a	FR1	2	R1077T
1381.385	2.838	1467519	REC_WORD	2.838	n/a	TEA	-999	13	[0, 0, 0]	n/a	FR1	2	R1077T
1384.223	1.293	1470357	REC_END	n/a	n/a	n/a	-999	13	[0, 0, 0]	n/a	FR1	2	R1077T
1385.516	0.0	1471650	TRIAL	n/a	n/a	n/a	-999	14	[0, 0, 0]	n/a	FR1	2	R1077T
1385.516	10.428	1471650	COUNTDOWN_START	n/a	n/a	n/a	-999	14	[0, 0, 0]	n/a	FR1	2	R1077T
1395.944	0.007	1482078	COUNTDOWN_END	n/a	n/a	n/a	-999	14	[0, 0, 0]	n/a	FR1	2	R1077T
1395.951	2.484	1482085	ORIENT	n/a	n/a	n/a	-999	14	[0, 0, 0]	n/a	FR1	2	R1077T
1398.435	2.484	1484568	WORD	n/a	wordpools/wordpool_EN.txt	POLE	1	14	[0, 0, 0]	n/a	FR1	2	R1077T
1400.919	2.55	1487052	WORD	n/a	wordpools/wordpool_EN.txt	HORSE	2	14	[0, 0, 0]	n/a	FR1	2	R1077T
1403.469	2.417	1489602	WORD	n/a	wordpools/wordpool_EN.txt	BALL	3	14	[0, 0, 0]	n/a	FR1	2	R1077T
1405.886	2.584	1492019	WORD	n/a	wordpools/wordpool_EN.txt	APE	4	14	[0, 0, 0]	n/a	FR1	2	R1077T
1408.47	2.584	1494603	WORD	n/a	wordpools/wordpool_EN.txt	CORD	5	14	[0, 0, 0]	n/a	FR1	2	R1077T
1411.054	2.585	1497187	WORD	n/a	wordpools/wordpool_EN.txt	MAP	6	14	[0, 0, 0]	n/a	FR1	2	R1077T
1413.639	2.516	1499772	WORD	n/a	wordpools/wordpool_EN.txt	MAIL	7	14	[0, 0, 0]	n/a	FR1	2	R1077T
1416.155	2.517	1502288	WORD	n/a	wordpools/wordpool_EN.txt	TOAD	8	14	[0, 0, 0]	n/a	FR1	2	R1077T
1418.672	2.567	1504804	WORD	n/a	wordpools/wordpool_EN.txt	TEETH	9	14	[0, 0, 0]	n/a	FR1	2	R1077T
1421.239	2.534	1507371	WORD	n/a	wordpools/wordpool_EN.txt	BEAR	10	14	[0, 0, 0]	n/a	FR1	2	R1077T
1423.773	2.517	1509905	WORD	n/a	wordpools/wordpool_EN.txt	CAT	11	14	[0, 0, 0]	n/a	FR1	2	R1077T
1426.29	1.617	1512422	WORD	n/a	wordpools/wordpool_EN.txt	JUDGE	12	14	[0, 0, 0]	n/a	FR1	2	R1077T
1427.907	0.001	1514039	DISTRACT_START	n/a	n/a	n/a	-999	14	[0, 0, 0]	n/a	FR1	2	R1077T
1427.908	0.016	1514040	START	n/a	n/a	n/a	-999	14	[-999, -999, -999]	n/a	FR1	2	R1077T
1427.924	3.651	1514056	PROB	3.651	n/a	n/a	-999	14	[7, 9, 3]	19	FR1	2	R1077T
1431.575	3.034	1517707	PROB	3.034	n/a	n/a	-999	14	[9, 6, 3]	18	FR1	2	R1077T
1434.609	3.75	1520741	PROB	3.75	n/a	n/a	-999	14	[6, 9, 4]	19	FR1	2	R1077T
1438.359	2.235	1524490	PROB	2.235	n/a	n/a	-999	14	[7, 1, 1]	9	FR1	2	R1077T
1440.594	2.649	1526725	PROB	2.649	n/a	n/a	-999	14	[8, 2, 6]	16	FR1	2	R1077T
1443.243	2.467	1529374	PROB	2.467	n/a	n/a	-999	14	[1, 2, 1]	3	FR1	2	R1077T
1445.71	4.054	1531841	PROB	4.054	n/a	n/a	-999	14	[3, 2, 5]	10	FR1	2	R1077T
1449.764	0.014	1535895	STOP	n/a	n/a	n/a	-999	14	[-999, -999, -999]	n/a	FR1	2	R1077T
1449.778	1.184	1535909	DISTRACT_END	n/a	n/a	n/a	-999	14	[0, 0, 0]	n/a	FR1	2	R1077T
1450.962	13.791	1537093	REC_START	n/a	n/a	n/a	-999	14	[0, 0, 0]	n/a	FR1	2	R1077T
1464.753	3.414	1550883	REC_WORD	3.414	n/a	TEETH	-999	14	[0, 0, 0]	n/a	FR1	2	R1077T
1468.167	2.926	1554297	REC_WORD_VV	2.926	n/a	<>	-999	14	[0, 0, 0]	n/a	FR1	2	R1077T
1471.093	2.654	1557223	REC_WORD_VV	2.654	n/a	<>	-999	14	[0, 0, 0]	n/a	FR1	2	R1077T
1473.747	0.299	1559877	REC_WORD	0.299	n/a	BALL	-999	14	[0, 0, 0]	n/a	FR1	2	R1077T
1474.046	6.928	1560176	REC_WORD_VV	6.928	n/a	<>	-999	14	[0, 0, 0]	n/a	FR1	2	R1077T
1480.974	7.127	1567103	REC_END	n/a	n/a	n/a	-999	14	[0, 0, 0]	n/a	FR1	2	R1077T
1488.101	0.0	1574230	COUNTDOWN_START	n/a	n/a	n/a	-999	15	[0, 0, 0]	n/a	FR1	2	R1077T
1488.101	10.428	1574230	TRIAL	n/a	n/a	n/a	-999	15	[0, 0, 0]	n/a	FR1	2	R1077T
1498.529	0.008	1584657	COUNTDOWN_END	n/a	n/a	n/a	-999	15	[0, 0, 0]	n/a	FR1	2	R1077T
1498.537	2.467	1584665	ORIENT	n/a	n/a	n/a	-999	15	[0, 0, 0]	n/a	FR1	2	R1077T
1501.004	2.417	1587132	WORD	n/a	wordpools/wordpool_EN.txt	CLOCK	1	15	[0, 0, 0]	n/a	FR1	2	R1077T
1503.421	2.583	1589549	WORD	n/a	wordpools/wordpool_EN.txt	SPOON	2	15	[0, 0, 0]	n/a	FR1	2	R1077T
1506.004	2.384	1592132	WORD	n/a	wordpools/wordpool_EN.txt	SWORD	3	15	[0, 0, 0]	n/a	FR1	2	R1077T
1508.388	2.467	1594516	WORD	n/a	wordpools/wordpool_EN.txt	VAN	4	15	[0, 0, 0]	n/a	FR1	2	R1077T
1510.855	2.434	1596983	WORD	n/a	wordpools/wordpool_EN.txt	BOOK	5	15	[0, 0, 0]	n/a	FR1	2	R1077T
1513.289	2.551	1599417	WORD	n/a	wordpools/wordpool_EN.txt	ROOM	6	15	[0, 0, 0]	n/a	FR1	2	R1077T
1515.84	2.567	1601968	WORD	n/a	wordpools/wordpool_EN.txt	STREET	7	15	[0, 0, 0]	n/a	FR1	2	R1077T
1518.407	2.384	1604535	WORD	n/a	wordpools/wordpool_EN.txt	BLUSH	8	15	[0, 0, 0]	n/a	FR1	2	R1077T
1520.791	2.617	1606918	WORD	n/a	wordpools/wordpool_EN.txt	SOUP	9	15	[0, 0, 0]	n/a	FR1	2	R1077T
1523.408	2.4	1609535	WORD	n/a	wordpools/wordpool_EN.txt	TRUCK	10	15	[0, 0, 0]	n/a	FR1	2	R1077T
1525.808	2.451	1611935	WORD	n/a	wordpools/wordpool_EN.txt	GOAT	11	15	[0, 0, 0]	n/a	FR1	2	R1077T
1528.259	1.617	1614386	WORD	n/a	wordpools/wordpool_EN.txt	CART	12	15	[0, 0, 0]	n/a	FR1	2	R1077T
1529.876	0.0	1616003	DISTRACT_START	n/a	n/a	n/a	-999	15	[0, 0, 0]	n/a	FR1	2	R1077T
1529.876	0.016	1616003	START	n/a	n/a	n/a	-999	15	[-999, -999, -999]	n/a	FR1	2	R1077T
1529.892	2.851	1616019	PROB	2.851	n/a	n/a	-999	15	[5, 7, 2]	14	FR1	2	R1077T
1532.743	3.184	1618870	PROB	3.184	n/a	n/a	-999	15	[3, 7, 5]	16	FR1	2	R1077T
1535.927	4.334	1622054	PROB	4.334	n/a	n/a	-999	15	[3, 9, 5]	17	FR1	2	R1077T
1540.261	5.934	1626387	PROB	5.934	n/a	n/a	-999	15	[4, 8, 8]	22	FR1	2	R1077T
1546.195	3.267	1632321	PROB	3.267	n/a	n/a	-999	15	[4, 8, 6]	18	FR1	2	R1077T
1549.462	3.438	1635588	PROB	3.438	n/a	n/a	-999	15	[2, 1, 7]	10	FR1	2	R1077T
1552.9	0.013	1639026	STOP	n/a	n/a	n/a	-999	15	[-999, -999, -999]	n/a	FR1	2	R1077T
1552.913	1.068	1639039	DISTRACT_END	n/a	n/a	n/a	-999	15	[0, 0, 0]	n/a	FR1	2	R1077T
1553.981	9.828	1640107	REC_START	n/a	n/a	n/a	-999	15	[0, 0, 0]	n/a	FR1	2	R1077T
1563.809	0.488	1649934	REC_WORD	0.488	n/a	TRUCK	-999	15	[0, 0, 0]	n/a	FR1	2	R1077T
1564.297	1.904	1650422	REC_WORD_VV	1.904	n/a	<>	-999	15	[0, 0, 0]	n/a	FR1	2	R1077T
1566.201	17.792	1652326	REC_WORD_VV	17.792	n/a	<>	-999	15	[0, 0, 0]	n/a	FR1	2	R1077T
1583.993	18.946	1670117	REC_END	n/a	n/a	n/a	-999	15	[0, 0, 0]	n/a	FR1	2	R1077T
1602.939	0.0	1689062	TRIAL	n/a	n/a	n/a	-999	16	[0, 0, 0]	n/a	FR1	2	R1077T
1602.939	10.428	1689062	COUNTDOWN_START	n/a	n/a	n/a	-999	16	[0, 0, 0]	n/a	FR1	2	R1077T
1613.367	0.007	1699490	COUNTDOWN_END	n/a	n/a	n/a	-999	16	[0, 0, 0]	n/a	FR1	2	R1077T
1613.374	2.617	1699497	ORIENT	n/a	n/a	n/a	-999	16	[0, 0, 0]	n/a	FR1	2	R1077T
1615.991	2.568	1702114	WORD	n/a	wordpools/wordpool_EN.txt	RAIN	1	16	[0, 0, 0]	n/a	FR1	2	R1077T
1618.559	2.383	1704682	WORD	n/a	wordpools/wordpool_EN.txt	SKI	2	16	[0, 0, 0]	n/a	FR1	2	R1077T
1620.942	2.517	1707064	WORD	n/a	wordpools/wordpool_EN.txt	DRUM	3	16	[0, 0, 0]	n/a	FR1	2	R1077T
1623.459	2.401	1709581	WORD	n/a	wordpools/wordpool_EN.txt	CAR	4	16	[0, 0, 0]	n/a	FR1	2	R1077T
1625.86	2.433	1711982	WORD	n/a	wordpools/wordpool_EN.txt	CROWN	5	16	[0, 0, 0]	n/a	FR1	2	R1077T
1628.293	2.468	1714415	WORD	n/a	wordpools/wordpool_EN.txt	STAIR	6	16	[0, 0, 0]	n/a	FR1	2	R1077T
1630.761	2.45	1716883	WORD	n/a	wordpools/wordpool_EN.txt	KEY	7	16	[0, 0, 0]	n/a	FR1	2	R1077T
1633.211	2.584	1719333	WORD	n/a	wordpools/wordpool_EN.txt	DOOR	8	16	[0, 0, 0]	n/a	FR1	2	R1077T
1635.795	2.567	1721917	WORD	n/a	wordpools/wordpool_EN.txt	CHIEF	9	16	[0, 0, 0]	n/a	FR1	2	R1077T
1638.362	2.384	1724484	WORD	n/a	wordpools/wordpool_EN.txt	WAVE	10	16	[0, 0, 0]	n/a	FR1	2	R1077T
1640.746	2.4	1726867	WORD	n/a	wordpools/wordpool_EN.txt	TOY	11	16	[0, 0, 0]	n/a	FR1	2	R1077T
1643.146	1.617	1729267	WORD	n/a	wordpools/wordpool_EN.txt	BLOOM	12	16	[0, 0, 0]	n/a	FR1	2	R1077T
1644.763	0.001	1730884	DISTRACT_START	n/a	n/a	n/a	-999	16	[0, 0, 0]	n/a	FR1	2	R1077T
1644.764	0.016	1730885	START	n/a	n/a	n/a	-999	16	[-999, -999, -999]	n/a	FR1	2	R1077T
1644.78	2.967	1730901	PROB	2.967	n/a	n/a	-999	16	[9, 5, 4]	18	FR1	2	R1077T
1647.747	4.084	1733868	PROB	4.084	n/a	n/a	-999	16	[3, 2, 2]	7	FR1	2	R1077T
1651.831	3.417	1737952	PROB	3.417	n/a	n/a	-999	16	[5, 8, 2]	15	FR1	2	R1077T
1655.248	5.369	1741369	PROB	5.369	n/a	n/a	-999	16	[2, 4, 9]	15	FR1	2	R1077T
1660.617	8.611	1746737	PROB	8.611	n/a	n/a	-999	16	[7, 8, 4]	20	FR1	2	R1077T
1669.228	0.006	1755348	STOP	n/a	n/a	n/a	-999	16	[-999, -999, -999]	n/a	FR1	2	R1077T
1669.234	1.068	1755354	DISTRACT_END	n/a	n/a	n/a	-999	16	[0, 0, 0]	n/a	FR1	2	R1077T
1670.302	7.981	1756422	REC_START	n/a	n/a	n/a	-999	16	[0, 0, 0]	n/a	FR1	2	R1077T
1678.283	5.817	1764403	REC_WORD	5.817	n/a	CROWN	-999	16	[0, 0, 0]	n/a	FR1	2	R1077T
1684.1	1.045	1770219	REC_WORD	1.045	n/a	RAIN	-999	16	[0, 0, 0]	n/a	FR1	2	R1077T
1685.145	15.169	1771264	REC_WORD_VV	15.169	n/a	<>	-999	16	[0, 0, 0]	n/a	FR1	2	R1077T
1700.314	3.51	1786433	REC_END	n/a	n/a	n/a	-999	16	[0, 0, 0]	n/a	FR1	2	R1077T
1703.824	0.0	1789942	TRIAL	n/a	n/a	n/a	-999	17	[0, 0, 0]	n/a	FR1	2	R1077T
1703.824	10.428	1789942	COUNTDOWN_START	n/a	n/a	n/a	-999	17	[0, 0, 0]	n/a	FR1	2	R1077T
1714.252	0.007	1800370	COUNTDOWN_END	n/a	n/a	n/a	-999	17	[0, 0, 0]	n/a	FR1	2	R1077T
1714.259	2.55	1800377	ORIENT	n/a	n/a	n/a	-999	17	[0, 0, 0]	n/a	FR1	2	R1077T
1716.809	2.518	1802927	WORD	n/a	wordpools/wordpool_EN.txt	ROPE	1	17	[0, 0, 0]	n/a	FR1	2	R1077T
1719.327	2.417	1805445	WORD	n/a	wordpools/wordpool_EN.txt	DUCK	2	17	[0, 0, 0]	n/a	FR1	2	R1077T
1721.744	2.417	1807861	WORD	n/a	wordpools/wordpool_EN.txt	SNAKE	3	17	[0, 0, 0]	n/a	FR1	2	R1077T
1724.161	2.451	1810278	WORD	n/a	wordpools/wordpool_EN.txt	TENT	4	17	[0, 0, 0]	n/a	FR1	2	R1077T
1726.612	2.466	1812729	WORD	n/a	wordpools/wordpool_EN.txt	MAZE	5	17	[0, 0, 0]	n/a	FR1	2	R1077T
1729.078	2.401	1815195	WORD	n/a	wordpools/wordpool_EN.txt	HAWK	6	17	[0, 0, 0]	n/a	FR1	2	R1077T
1731.479	2.467	1817596	WORD	n/a	wordpools/wordpool_EN.txt	WEED	7	17	[0, 0, 0]	n/a	FR1	2	R1077T
1733.946	2.433	1820063	WORD	n/a	wordpools/wordpool_EN.txt	OWL	8	17	[0, 0, 0]	n/a	FR1	2	R1077T
1736.379	2.601	1822496	WORD	n/a	wordpools/wordpool_EN.txt	DEER	9	17	[0, 0, 0]	n/a	FR1	2	R1077T
1738.98	2.517	1825097	WORD	n/a	wordpools/wordpool_EN.txt	BROOM	10	17	[0, 0, 0]	n/a	FR1	2	R1077T
1741.497	2.501	1827613	WORD	n/a	wordpools/wordpool_EN.txt	ROAD	11	17	[0, 0, 0]	n/a	FR1	2	R1077T
1743.998	1.618	1830114	WORD	n/a	wordpools/wordpool_EN.txt	DOCK	12	17	[0, 0, 0]	n/a	FR1	2	R1077T
1745.616	0.001	1831732	DISTRACT_START	n/a	n/a	n/a	-999	17	[0, 0, 0]	n/a	FR1	2	R1077T
1745.617	0.015	1831733	START	n/a	n/a	n/a	-999	17	[-999, -999, -999]	n/a	FR1	2	R1077T
1745.632	3.167	1831748	PROB	3.167	n/a	n/a	-999	17	[3, 7, 3]	13	FR1	2	R1077T
1748.799	4.802	1834915	PROB	4.802	n/a	n/a	-999	17	[6, 8, 3]	17	FR1	2	R1077T
1753.601	3.783	1839717	PROB	3.783	n/a	n/a	-999	17	[9, 5, 3]	17	FR1	2	R1077T
1757.384	2.55	1843500	PROB	2.55	n/a	n/a	-999	17	[6, 1, 5]	12	FR1	2	R1077T
1759.934	3.217	1846050	PROB	3.217	n/a	n/a	-999	17	[2, 7, 4]	12	FR1	2	R1077T
1763.151	3.645	1849266	PROB	3.645	n/a	n/a	-999	17	[3, 5, 8]	17	FR1	2	R1077T
1766.796	0.006	1852911	STOP	n/a	n/a	n/a	-999	17	[-999, -999, -999]	n/a	FR1	2	R1077T
1766.802	1.084	1852917	DISTRACT_END	n/a	n/a	n/a	-999	17	[0, 0, 0]	n/a	FR1	2	R1077T
1767.886	4.325	1854001	REC_START	n/a	n/a	n/a	-999	17	[0, 0, 0]	n/a	FR1	2	R1077T
1772.211	7.28	1858326	REC_WORD	7.28	n/a	SNAKE	-999	17	[0, 0, 0]	n/a	FR1	2	R1077T
1779.491	7.899	1865606	REC_WORD_VV	7.899	n/a	<>	-999	17	[0, 0, 0]	n/a	FR1	2	R1077T
1787.39	0.92	1873504	REC_WORD	0.92	n/a	HILL	-999	17	[0, 0, 0]	n/a	FR1	2	R1077T
1788.31	1.23	1874424	REC_WORD	1.23	n/a	MAZE	-999	17	[0, 0, 0]	n/a	FR1	2	R1077T
1789.54	1.164	1875654	REC_WORD	1.164	n/a	TENT	-999	17	[0, 0, 0]	n/a	FR1	2	R1077T
1790.704	7.194	1876818	REC_WORD	7.194	n/a	ROPE	-999	17	[0, 0, 0]	n/a	FR1	2	R1077T
1797.898	1.426	1884012	REC_END	n/a	n/a	n/a	-999	17	[0, 0, 0]	n/a	FR1	2	R1077T
1799.324	0.001	1885438	COUNTDOWN_START	n/a	n/a	n/a	-999	18	[0, 0, 0]	n/a	FR1	2	R1077T
1799.325	10.427	1885439	TRIAL	n/a	n/a	n/a	-999	18	[0, 0, 0]	n/a	FR1	2	R1077T
1809.752	0.008	1895865	COUNTDOWN_END	n/a	n/a	n/a	-999	18	[0, 0, 0]	n/a	FR1	2	R1077T
1809.76	2.567	1895873	ORIENT	n/a	n/a	n/a	-999	18	[0, 0, 0]	n/a	FR1	2	R1077T
1812.327	2.434	1898440	WORD	n/a	wordpools/wordpool_EN.txt	NEST	1	18	[0, 0, 0]	n/a	FR1	2	R1077T
1814.761	2.567	1900874	WORD	n/a	wordpools/wordpool_EN.txt	CAKE	2	18	[0, 0, 0]	n/a	FR1	2	R1077T
1817.328	2.55	1903441	WORD	n/a	wordpools/wordpool_EN.txt	CHEEK	3	18	[0, 0, 0]	n/a	FR1	2	R1077T
1819.878	2.434	1905991	WORD	n/a	wordpools/wordpool_EN.txt	FACE	4	18	[0, 0, 0]	n/a	FR1	2	R1077T
1822.312	2.567	1908424	WORD	n/a	wordpools/wordpool_EN.txt	FORK	5	18	[0, 0, 0]	n/a	FR1	2	R1077T
1824.879	2.567	1910991	WORD	n/a	wordpools/wordpool_EN.txt	CUP	6	18	[0, 0, 0]	n/a	FR1	2	R1077T
1827.446	2.401	1913558	WORD	n/a	wordpools/wordpool_EN.txt	MOOSE	7	18	[0, 0, 0]	n/a	FR1	2	R1077T
1829.847	2.4	1915959	WORD	n/a	wordpools/wordpool_EN.txt	AXE	8	18	[0, 0, 0]	n/a	FR1	2	R1077T
1832.247	2.467	1918359	WORD	n/a	wordpools/wordpool_EN.txt	TOAST	9	18	[0, 0, 0]	n/a	FR1	2	R1077T
1834.714	2.484	1920826	WORD	n/a	wordpools/wordpool_EN.txt	HEN	10	18	[0, 0, 0]	n/a	FR1	2	R1077T
1837.198	2.402	1923310	WORD	n/a	wordpools/wordpool_EN.txt	FRUIT	11	18	[0, 0, 0]	n/a	FR1	2	R1077T
1839.6	1.615	1925712	WORD	n/a	wordpools/wordpool_EN.txt	PALM	12	18	[0, 0, 0]	n/a	FR1	2	R1077T
1841.215	0.001	1927327	DISTRACT_START	n/a	n/a	n/a	-999	18	[0, 0, 0]	n/a	FR1	2	R1077T
1841.216	0.016	1927328	START	n/a	n/a	n/a	-999	18	[-999, -999, -999]	n/a	FR1	2	R1077T
1841.232	3.684	1927344	PROB	3.684	n/a	n/a	-999	18	[7, 7, 6]	20	FR1	2	R1077T
1844.916	4.968	1931027	PROB	4.968	n/a	n/a	-999	18	[6, 4, 4]	14	FR1	2	R1077T
1849.884	1.8	1935995	PROB	1.8	n/a	n/a	-999	18	[5, 5, 3]	13	FR1	2	R1077T
1851.684	2.067	1937795	PROB	2.067	n/a	n/a	-999	18	[6, 2, 1]	9	FR1	2	R1077T
1853.751	3.134	1939862	PROB	3.134	n/a	n/a	-999	18	[3, 9, 7]	19	FR1	2	R1077T
1856.885	2.284	1942996	PROB	2.284	n/a	n/a	-999	18	[8, 6, 2]	16	FR1	2	R1077T
1859.169	2.404	1945280	PROB	2.404	n/a	n/a	-999	18	[9, 6, 4]	19	FR1	2	R1077T
1861.573	0.014	1947684	STOP	n/a	n/a	n/a	-999	18	[-999, -999, -999]	n/a	FR1	2	R1077T
1861.587	1.1	1947698	DISTRACT_END	n/a	n/a	n/a	-999	18	[0, 0, 0]	n/a	FR1	2	R1077T
1862.687	2.512	1948797	REC_START	n/a	n/a	n/a	-999	18	[0, 0, 0]	n/a	FR1	2	R1077T
1865.199	0.942	1951309	REC_WORD	0.942	n/a	FACE	-999	18	[0, 0, 0]	n/a	FR1	2	R1077T
1866.141	26.558	1952251	REC_WORD	26.558	n/a	CHEEK	-999	18	[0, 0, 0]	n/a	FR1	2	R1077T
1892.699	1.692	1978808	REC_END	n/a	n/a	n/a	-999	18	[0, 0, 0]	n/a	FR1	2	R1077T
1894.391	0.001	1980500	COUNTDOWN_START	n/a	n/a	n/a	-999	19	[0, 0, 0]	n/a	FR1	2	R1077T
1894.392	10.427	1980501	TRIAL	n/a	n/a	n/a	-999	19	[0, 0, 0]	n/a	FR1	2	R1077T
1904.819	0.008	1990927	COUNTDOWN_END	n/a	n/a	n/a	-999	19	[0, 0, 0]	n/a	FR1	2	R1077T
1904.827	2.551	1990935	ORIENT	n/a	n/a	n/a	-999	19	[0, 0, 0]	n/a	FR1	2	R1077T
1907.378	2.6	1993486	WORD	n/a	wordpools/wordpool_EN.txt	COW	1	19	[0, 0, 0]	n/a	FR1	2	R1077T
1909.978	2.417	1996086	WORD	n/a	wordpools/wordpool_EN.txt	STAR	2	19	[0, 0, 0]	n/a	FR1	2	R1077T
1912.395	2.601	1998503	WORD	n/a	wordpools/wordpool_EN.txt	HOUSE	3	19	[0, 0, 0]	n/a	FR1	2	R1077T
1914.996	2.584	2001104	WORD	n/a	wordpools/wordpool_EN.txt	DRESS	4	19	[0, 0, 0]	n/a	FR1	2	R1077T
1917.58	2.633	2003688	WORD	n/a	wordpools/wordpool_EN.txt	BRIDGE	5	19	[0, 0, 0]	n/a	FR1	2	R1077T
1920.213	2.534	2006321	WORD	n/a	wordpools/wordpool_EN.txt	GATE	6	19	[0, 0, 0]	n/a	FR1	2	R1077T
1922.747	2.6	2008854	WORD	n/a	wordpools/wordpool_EN.txt	STONE	7	19	[0, 0, 0]	n/a	FR1	2	R1077T
1925.347	2.401	2011454	WORD	n/a	wordpools/wordpool_EN.txt	FOX	8	19	[0, 0, 0]	n/a	FR1	2	R1077T
1927.748	2.55	2013855	WORD	n/a	wordpools/wordpool_EN.txt	TIE	9	19	[0, 0, 0]	n/a	FR1	2	R1077T
1930.298	2.434	2016405	WORD	n/a	wordpools/wordpool_EN.txt	SKY	10	19	[0, 0, 0]	n/a	FR1	2	R1077T
1932.732	2.434	2018839	WORD	n/a	wordpools/wordpool_EN.txt	PEA	11	19	[0, 0, 0]	n/a	FR1	2	R1077T
1935.166	1.617	2021273	WORD	n/a	wordpools/wordpool_EN.txt	HILL	12	19	[0, 0, 0]	n/a	FR1	2	R1077T
1936.783	0.001	2022890	DISTRACT_START	n/a	n/a	n/a	-999	19	[0, 0, 0]	n/a	FR1	2	R1077T
1936.784	0.016	2022891	START	n/a	n/a	n/a	-999	19	[-999, -999, -999]	n/a	FR1	2	R1077T
1936.8	2.95	2022907	PROB	2.95	n/a	n/a	-999	19	[9, 4, 6]	19	FR1	2	R1077T
1939.75	4.518	2025857	PROB	4.518	n/a	n/a	-999	19	[2, 3, 2]	7	FR1	2	R1077T
1944.268	3.834	2030374	PROB	3.834	n/a	n/a	-999	19	[3, 2, 7]	12	FR1	2	R1077T
1948.102	2.317	2034208	PROB	2.317	n/a	n/a	-999	19	[2, 6, 2]	10	FR1	2	R1077T
1950.419	1.667	2036525	PROB	1.667	n/a	n/a	-999	19	[9, 2, 1]	12	FR1	2	R1077T
1952.086	2.917	2038192	PROB	2.917	n/a	n/a	-999	19	[4, 4, 8]	16	FR1	2	R1077T
1955.003	2.873	2041109	PROB	2.873	n/a	n/a	-999	19	[5, 9, 4]	18	FR1	2	R1077T
1957.876	0.011	2043982	STOP	n/a	n/a	n/a	-999	19	[-999, -999, -999]	n/a	FR1	2	R1077T
1957.887	1.151	2043993	DISTRACT_END	n/a	n/a	n/a	-999	19	[0, 0, 0]	n/a	FR1	2	R1077T
1959.038	30.0	2045144	REC_START	n/a	n/a	n/a	-999	19	[0, 0, 0]	n/a	FR1	2	R1077T
1989.038	0.012	2075142	REC_WORD_VV	0.012	n/a	<>	-999	19	[0, 0, 0]	n/a	FR1	2	R1077T
1989.05	7.96	2075154	REC_END	n/a	n/a	n/a	-999	19	[0, 0, 0]	n/a	FR1	2	R1077T
1997.01	0.001	2083114	COUNTDOWN_START	n/a	n/a	n/a	-999	20	[0, 0, 0]	n/a	FR1	2	R1077T
1997.011	10.427	2083115	TRIAL	n/a	n/a	n/a	-999	20	[0, 0, 0]	n/a	FR1	2	R1077T
2007.438	0.008	2093541	COUNTDOWN_END	n/a	n/a	n/a	-999	20	[0, 0, 0]	n/a	FR1	2	R1077T
2007.446	2.55	2093549	ORIENT	n/a	n/a	n/a	-999	20	[0, 0, 0]	n/a	FR1	2	R1077T
2009.996	2.484	2096099	WORD	n/a	wordpools/wordpool_EN.txt	SLEEVE	1	20	[0, 0, 0]	n/a	FR1	2	R1077T
2012.48	2.517	2098583	WORD	n/a	wordpools/wordpool_EN.txt	DITCH	2	20	[0, 0, 0]	n/a	FR1	2	R1077T
2014.997	2.451	2101100	WORD	n/a	wordpools/wordpool_EN.txt	VINE	3	20	[0, 0, 0]	n/a	FR1	2	R1077T
2017.448	2.583	2103551	WORD	n/a	wordpools/wordpool_EN.txt	BUSH	4	20	[0, 0, 0]	n/a	FR1	2	R1077T
2020.031	2.367	2106134	WORD	n/a	wordpools/wordpool_EN.txt	SNAIL	5	20	[0, 0, 0]	n/a	FR1	2	R1077T
2022.398	2.451	2108501	WORD	n/a	wordpools/wordpool_EN.txt	WHEEL	6	20	[0, 0, 0]	n/a	FR1	2	R1077T
2024.849	2.4	2110951	WORD	n/a	wordpools/wordpool_EN.txt	BIRD	7	20	[0, 0, 0]	n/a	FR1	2	R1077T
2027.249	2.434	2113351	WORD	n/a	wordpools/wordpool_EN.txt	EAR	8	20	[0, 0, 0]	n/a	FR1	2	R1077T
2029.683	2.4	2115785	WORD	n/a	wordpools/wordpool_EN.txt	SWAMP	9	20	[0, 0, 0]	n/a	FR1	2	R1077T
2032.083	2.601	2118185	WORD	n/a	wordpools/wordpool_EN.txt	HOLE	10	20	[0, 0, 0]	n/a	FR1	2	R1077T
2034.684	2.551	2120786	WORD	n/a	wordpools/wordpool_EN.txt	EEL	11	20	[0, 0, 0]	n/a	FR1	2	R1077T
2037.235	1.616	2123337	WORD	n/a	wordpools/wordpool_EN.txt	CRANE	12	20	[0, 0, 0]	n/a	FR1	2	R1077T
2038.851	0.001	2124953	DISTRACT_START	n/a	n/a	n/a	-999	20	[0, 0, 0]	n/a	FR1	2	R1077T
2038.852	0.016	2124954	START	n/a	n/a	n/a	-999	20	[-999, -999, -999]	n/a	FR1	2	R1077T
2038.868	3.351	2124970	PROB	3.351	n/a	n/a	-999	20	[6, 8, 4]	18	FR1	2	R1077T
2042.219	3.385	2128321	PROB	3.385	n/a	n/a	-999	20	[2, 1, 8]	11	FR1	2	R1077T
2045.604	1.917	2131705	PROB	1.917	n/a	n/a	-999	20	[8, 3, 3]	14	FR1	2	R1077T
2047.521	2.333	2133622	PROB	2.333	n/a	n/a	-999	20	[7, 4, 6]	17	FR1	2	R1077T
2049.854	2.768	2135955	PROB	2.768	n/a	n/a	-999	20	[3, 7, 8]	18	FR1	2	R1077T
2052.622	2.099	2138723	PROB	2.099	n/a	n/a	-999	20	[5, 5, 6]	16	FR1	2	R1077T
2054.721	2.384	2140822	PROB	2.384	n/a	n/a	-999	20	[9, 8, 8]	21	FR1	2	R1077T
2057.105	2.899	2143206	PROB	2.899	n/a	n/a	-999	20	[4, 1, 8]	13	FR1	2	R1077T
2060.004	0.018	2146105	STOP	n/a	n/a	n/a	-999	20	[-999, -999, -999]	n/a	FR1	2	R1077T
2060.022	1.117	2146123	DISTRACT_END	n/a	n/a	n/a	-999	20	[0, 0, 0]	n/a	FR1	2	R1077T
2061.139	6.346	2147240	REC_START	n/a	n/a	n/a	-999	20	[0, 0, 0]	n/a	FR1	2	R1077T
2067.485	3.135	2153585	REC_WORD	3.135	n/a	SLEEVE	-999	20	[0, 0, 0]	n/a	FR1	2	R1077T
2070.62	4.69	2156720	REC_WORD_VV	4.69	n/a	<>	-999	20	[0, 0, 0]	n/a	FR1	2	R1077T
2075.31	15.846	2161410	REC_WORD_VV	15.846	n/a	<>	-999	20	[0, 0, 0]	n/a	FR1	2	R1077T
2091.156	10.34	2177255	REC_END	n/a	n/a	n/a	-999	20	[0, 0, 0]	n/a	FR1	2	R1077T
2101.496	0.0	2187595	TRIAL	n/a	n/a	n/a	-999	21	[0, 0, 0]	n/a	FR1	2	R1077T
2101.496	10.428	2187595	COUNTDOWN_START	n/a	n/a	n/a	-999	21	[0, 0, 0]	n/a	FR1	2	R1077T
2111.924	0.007	2198022	COUNTDOWN_END	n/a	n/a	n/a	-999	21	[0, 0, 0]	n/a	FR1	2	R1077T
2111.931	2.501	2198029	ORIENT	n/a	n/a	n/a	-999	21	[0, 0, 0]	n/a	FR1	2	R1077T
2114.432	2.55	2200530	WORD	n/a	wordpools/wordpool_EN.txt	GUARD	1	21	[0, 0, 0]	n/a	FR1	2	R1077T
2116.982	2.384	2203080	WORD	n/a	wordpools/wordpool_EN.txt	FENCE	2	21	[0, 0, 0]	n/a	FR1	2	R1077T
2119.366	2.601	2205464	WORD	n/a	wordpools/wordpool_EN.txt	DOLL	3	21	[0, 0, 0]	n/a	FR1	2	R1077T
2121.967	2.584	2208065	WORD	n/a	wordpools/wordpool_EN.txt	BAT	4	21	[0, 0, 0]	n/a	FR1	2	R1077T
2124.551	2.616	2210649	WORD	n/a	wordpools/wordpool_EN.txt	LEG	5	21	[0, 0, 0]	n/a	FR1	2	R1077T
2127.167	2.551	2213264	WORD	n/a	wordpools/wordpool_EN.txt	HORN	6	21	[0, 0, 0]	n/a	FR1	2	R1077T
2129.718	2.383	2215815	WORD	n/a	wordpools/wordpool_EN.txt	OAR	7	21	[0, 0, 0]	n/a	FR1	2	R1077T
2132.101	2.601	2218198	WORD	n/a	wordpools/wordpool_EN.txt	FOOT	8	21	[0, 0, 0]	n/a	FR1	2	R1077T
2134.702	2.484	2220799	WORD	n/a	wordpools/wordpool_EN.txt	BOY	9	21	[0, 0, 0]	n/a	FR1	2	R1077T
2137.186	2.5	2223283	WORD	n/a	wordpools/wordpool_EN.txt	SOCK	10	21	[0, 0, 0]	n/a	FR1	2	R1077T
2139.686	2.418	2225783	WORD	n/a	wordpools/wordpool_EN.txt	LOCK	11	21	[0, 0, 0]	n/a	FR1	2	R1077T
2142.104	1.617	2228201	WORD	n/a	wordpools/wordpool_EN.txt	PEN	12	21	[0, 0, 0]	n/a	FR1	2	R1077T
2143.721	0.001	2229818	DISTRACT_START	n/a	n/a	n/a	-999	21	[0, 0, 0]	n/a	FR1	2	R1077T
2143.722	0.015	2229819	START	n/a	n/a	n/a	-999	21	[-999, -999, -999]	n/a	FR1	2	R1077T
2143.737	3.852	2229834	PROB	3.852	n/a	n/a	-999	21	[2, 9, 9]	20	FR1	2	R1077T
2147.589	2.934	2233685	PROB	2.934	n/a	n/a	-999	21	[4, 8, 2]	14	FR1	2	R1077T
2150.523	2.666	2236619	PROB	2.666	n/a	n/a	-999	21	[6, 3, 8]	17	FR1	2	R1077T
2153.189	5.301	2239285	PROB	5.301	n/a	n/a	-999	21	[5, 7, 3]	15	FR1	2	R1077T
2158.49	4.217	2244586	PROB	4.217	n/a	n/a	-999	21	[9, 8, 9]	23	FR1	2	R1077T
2162.707	4.081	2248803	PROB	4.081	n/a	n/a	-999	21	[6, 1, 3]	10	FR1	2	R1077T
2166.788	0.003	2252883	STOP	n/a	n/a	n/a	-999	21	[-999, -999, -999]	n/a	FR1	2	R1077T
2166.791	1.168	2252886	DISTRACT_END	n/a	n/a	n/a	-999	21	[0, 0, 0]	n/a	FR1	2	R1077T
2167.959	4.548	2254054	REC_START	n/a	n/a	n/a	-999	21	[0, 0, 0]	n/a	FR1	2	R1077T
2172.507	1.38	2258602	REC_WORD	1.38	n/a	LOCK	-999	21	[0, 0, 0]	n/a	FR1	2	R1077T
2173.887	10.952	2259982	REC_WORD	10.952	n/a	GATE	-999	21	[0, 0, 0]	n/a	FR1	2	R1077T
2184.839	2.274	2270934	REC_WORD	2.274	n/a	DOLL	-999	21	[0, 0, 0]	n/a	FR1	2	R1077T
2187.113	1.612	2273207	REC_WORD	1.612	n/a	GUARD	-999	21	[0, 0, 0]	n/a	FR1	2	R1077T
2188.725	2.884	2274819	REC_WORD	2.884	n/a	BAT	-999	21	[0, 0, 0]	n/a	FR1	2	R1077T
2191.609	0.996	2277703	REC_WORD	0.996	n/a	CLUB	-999	21	[0, 0, 0]	n/a	FR1	2	R1077T
2192.605	1.293	2278699	REC_WORD	1.293	n/a	FOOT	-999	21	[0, 0, 0]	n/a	FR1	2	R1077T
2193.898	4.073	2279992	REC_WORD	4.073	n/a	LEG	-999	21	[0, 0, 0]	n/a	FR1	2	R1077T
2197.971	3.727	2284065	REC_END	n/a	n/a	n/a	-999	21	[0, 0, 0]	n/a	FR1	2	R1077T
2201.698	0.0	2287792	TRIAL	n/a	n/a	n/a	-999	22	[0, 0, 0]	n/a	FR1	2	R1077T
2201.698	10.428	2287792	COUNTDOWN_START	n/a	n/a	n/a	-999	22	[0, 0, 0]	n/a	FR1	2	R1077T
2212.126	0.007	2298219	COUNTDOWN_END	n/a	n/a	n/a	-999	22	[0, 0, 0]	n/a	FR1	2	R1077T
2212.133	2.418	2298226	ORIENT	n/a	n/a	n/a	-999	22	[0, 0, 0]	n/a	FR1	2	R1077T
2214.551	2.583	2300644	WORD	n/a	wordpools/wordpool_EN.txt	NOSE	1	22	[0, 0, 0]	n/a	FR1	2	R1077T
2217.134	2.617	2303227	WORD	n/a	wordpools/wordpool_EN.txt	TAIL	2	22	[0, 0, 0]	n/a	FR1	2	R1077T
2219.751	2.501	2305844	WORD	n/a	wordpools/wordpool_EN.txt	PIT	3	22	[0, 0, 0]	n/a	FR1	2	R1077T
2222.252	2.517	2308345	WORD	n/a	wordpools/wordpool_EN.txt	PRINCE	4	22	[0, 0, 0]	n/a	FR1	2	R1077T
2224.769	2.45	2310862	WORD	n/a	wordpools/wordpool_EN.txt	MOUSE	5	22	[0, 0, 0]	n/a	FR1	2	R1077T
2227.219	2.567	2313311	WORD	n/a	wordpools/wordpool_EN.txt	SHIELD	6	22	[0, 0, 0]	n/a	FR1	2	R1077T
2229.786	2.567	2315878	WORD	n/a	wordpools/wordpool_EN.txt	ARM	7	22	[0, 0, 0]	n/a	FR1	2	R1077T
2232.353	2.551	2318445	WORD	n/a	wordpools/wordpool_EN.txt	TOE	8	22	[0, 0, 0]	n/a	FR1	2	R1077T
2234.904	2.434	2320996	WORD	n/a	wordpools/wordpool_EN.txt	WALL	9	22	[0, 0, 0]	n/a	FR1	2	R1077T
2237.338	2.517	2323430	WORD	n/a	wordpools/wordpool_EN.txt	SPEAR	10	22	[0, 0, 0]	n/a	FR1	2	R1077T
2239.855	2.4	2325947	WORD	n/a	wordpools/wordpool_EN.txt	HOOF	11	22	[0, 0, 0]	n/a	FR1	2	R1077T
2242.255	1.617	2328347	WORD	n/a	wordpools/wordpool_EN.txt	LAWN	12	22	[0, 0, 0]	n/a	FR1	2	R1077T
2243.872	0.001	2329964	DISTRACT_START	n/a	n/a	n/a	-999	22	[0, 0, 0]	n/a	FR1	2	R1077T
2243.873	0.016	2329965	START	n/a	n/a	n/a	-999	22	[-999, -999, -999]	n/a	FR1	2	R1077T
2243.889	3.534	2329981	PROB	3.534	n/a	n/a	-999	22	[3, 2, 3]	8	FR1	2	R1077T
2247.423	3.151	2333514	PROB	3.151	n/a	n/a	-999	22	[4, 9, 4]	18	FR1	2	R1077T
2250.574	4.217	2336665	PROB	4.217	n/a	n/a	-999	22	[7, 7, 8]	20	FR1	2	R1077T
2254.791	2.05	2340882	PROB	2.05	n/a	n/a	-999	22	[4, 4, 4]	12	FR1	2	R1077T
2256.841	2.584	2342932	PROB	2.584	n/a	n/a	-999	22	[9, 2, 2]	13	FR1	2	R1077T
2259.425	3.401	2345516	PROB	3.401	n/a	n/a	-999	22	[8, 6, 7]	25	FR1	2	R1077T
2262.826	4.434	2348917	PROB	4.434	n/a	n/a	-999	22	[8, 8, 2]	18	FR1	2	R1077T
2267.26	0.016	2353350	STOP	n/a	n/a	n/a	-999	22	[-999, -999, -999]	n/a	FR1	2	R1077T
2267.276	1.101	2353366	DISTRACT_END	n/a	n/a	n/a	-999	22	[0, 0, 0]	n/a	FR1	2	R1077T
2268.377	30.0	2354467	REC_START	n/a	n/a	n/a	-999	22	[0, 0, 0]	n/a	FR1	2	R1077T
2298.377	0.011	2384466	REC_WORD_VV	0.011	n/a	<>	-999	22	[0, 0, 0]	n/a	FR1	2	R1077T
2298.388	9.046	2384477	REC_END	n/a	n/a	n/a	-999	22	[0, 0, 0]	n/a	FR1	2	R1077T
2307.434	0.0	2393522	TRIAL	n/a	n/a	n/a	-999	23	[0, 0, 0]	n/a	FR1	2	R1077T
2307.434	10.428	2393522	COUNTDOWN_START	n/a	n/a	n/a	-999	23	[0, 0, 0]	n/a	FR1	2	R1077T
2317.862	0.007	2403950	COUNTDOWN_END	n/a	n/a	n/a	-999	23	[0, 0, 0]	n/a	FR1	2	R1077T
2317.869	2.6	2403957	ORIENT	n/a	n/a	n/a	-999	23	[0, 0, 0]	n/a	FR1	2	R1077T
2320.469	2.501	2406557	WORD	n/a	wordpools/wordpool_EN.txt	TANK	1	23	[0, 0, 0]	n/a	FR1	2	R1077T
2322.97	2.551	2409058	WORD	n/a	wordpools/wordpool_EN.txt	HOSE	2	23	[0, 0, 0]	n/a	FR1	2	R1077T
2325.521	2.467	2411609	WORD	n/a	wordpools/wordpool_EN.txt	BOMB	3	23	[0, 0, 0]	n/a	FR1	2	R1077T
2327.988	2.551	2414075	WORD	n/a	wordpools/wordpool_EN.txt	COIN	4	23	[0, 0, 0]	n/a	FR1	2	R1077T
2330.539	2.533	2416626	WORD	n/a	wordpools/wordpool_EN.txt	PLANE	5	23	[0, 0, 0]	n/a	FR1	2	R1077T
2333.072	2.417	2419159	WORD	n/a	wordpools/wordpool_EN.txt	BRICK	6	23	[0, 0, 0]	n/a	FR1	2	R1077T
2335.489	2.617	2421576	WORD	n/a	wordpools/wordpool_EN.txt	PLATE	7	23	[0, 0, 0]	n/a	FR1	2	R1077T
2338.106	2.535	2424193	WORD	n/a	wordpools/wordpool_EN.txt	SQUARE	8	23	[0, 0, 0]	n/a	FR1	2	R1077T
2340.641	2.549	2426728	WORD	n/a	wordpools/wordpool_EN.txt	MOON	9	23	[0, 0, 0]	n/a	FR1	2	R1077T
2343.19	2.468	2429277	WORD	n/a	wordpools/wordpool_EN.txt	SHEET	10	23	[0, 0, 0]	n/a	FR1	2	R1077T
2345.658	2.516	2431745	WORD	n/a	wordpools/wordpool_EN.txt	ARK	11	23	[0, 0, 0]	n/a	FR1	2	R1077T
2348.174	1.617	2434260	WORD	n/a	wordpools/wordpool_EN.txt	TRAIN	12	23	[0, 0, 0]	n/a	FR1	2	R1077T
2349.791	0.001	2435877	DISTRACT_START	n/a	n/a	n/a	-999	23	[0, 0, 0]	n/a	FR1	2	R1077T
2349.792	0.016	2435878	START	n/a	n/a	n/a	-999	23	[-999, -999, -999]	n/a	FR1	2	R1077T
2349.808	3.417	2435894	PROB	3.417	n/a	n/a	-999	23	[9, 7, 3]	19	FR1	2	R1077T
2353.225	1.967	2439311	PROB	1.967	n/a	n/a	-999	23	[1, 1, 6]	8	FR1	2	R1077T
2355.192	2.651	2441278	PROB	2.651	n/a	n/a	-999	23	[9, 6, 3]	18	FR1	2	R1077T
2357.843	3.017	2443929	PROB	3.017	n/a	n/a	-999	23	[3, 6, 9]	18	FR1	2	R1077T
2360.86	2.584	2446946	PROB	2.584	n/a	n/a	-999	23	[3, 1, 2]	6	FR1	2	R1077T
2363.444	2.584	2449530	PROB	2.584	n/a	n/a	-999	23	[4, 9, 6]	19	FR1	2	R1077T
2366.028	4.416	2452114	PROB	4.416	n/a	n/a	-999	23	[5, 3, 9]	18	FR1	2	R1077T
2370.444	0.018	2456529	STOP	n/a	n/a	n/a	-999	23	[-999, -999, -999]	n/a	FR1	2	R1077T
2370.462	1.102	2456547	DISTRACT_END	n/a	n/a	n/a	-999	23	[0, 0, 0]	n/a	FR1	2	R1077T
2371.564	4.684	2457649	REC_START	n/a	n/a	n/a	-999	23	[0, 0, 0]	n/a	FR1	2	R1077T
2376.248	2.857	2462333	REC_WORD	2.857	n/a	ARK	-999	23	[0, 0, 0]	n/a	FR1	2	R1077T
2379.105	1.619	2465190	REC_WORD	1.619	n/a	SHEET	-999	23	[0, 0, 0]	n/a	FR1	2	R1077T
2380.724	3.236	2466809	REC_WORD	3.236	n/a	MOON	-999	23	[0, 0, 0]	n/a	FR1	2	R1077T
2383.96	0.81	2470045	REC_WORD	0.81	n/a	PLATE	-999	23	[0, 0, 0]	n/a	FR1	2	R1077T
2384.77	16.806	2470855	REC_WORD	16.806	n/a	SQUARE	-999	23	[0, 0, 0]	n/a	FR1	2	R1077T
2401.576	1.458	2487660	REC_END	n/a	n/a	n/a	-999	23	[0, 0, 0]	n/a	FR1	2	R1077T
2403.034	0.001	2489118	COUNTDOWN_START	n/a	n/a	n/a	-999	24	[0, 0, 0]	n/a	FR1	2	R1077T
2403.035	10.427	2489119	TRIAL	n/a	n/a	n/a	-999	24	[0, 0, 0]	n/a	FR1	2	R1077T
2413.462	0.008	2499545	COUNTDOWN_END	n/a	n/a	n/a	-999	24	[0, 0, 0]	n/a	FR1	2	R1077T
2413.47	2.483	2499553	ORIENT	n/a	n/a	n/a	-999	24	[0, 0, 0]	n/a	FR1	2	R1077T
2415.953	2.418	2502036	WORD	n/a	wordpools/wordpool_EN.txt	MOUTH	1	24	[0, 0, 0]	n/a	FR1	2	R1077T
2418.371	2.433	2504454	WORD	n/a	wordpools/wordpool_EN.txt	ROSE	2	24	[0, 0, 0]	n/a	FR1	2	R1077T
2420.804	2.567	2506887	WORD	n/a	wordpools/wordpool_EN.txt	FLOOR	3	24	[0, 0, 0]	n/a	FR1	2	R1077T
2423.371	2.551	2509454	WORD	n/a	wordpools/wordpool_EN.txt	PARK	4	24	[0, 0, 0]	n/a	FR1	2	R1077T
2425.922	2.434	2512005	WORD	n/a	wordpools/wordpool_EN.txt	SHOE	5	24	[0, 0, 0]	n/a	FR1	2	R1077T
2428.356	2.5	2514438	WORD	n/a	wordpools/wordpool_EN.txt	BOOT	6	24	[0, 0, 0]	n/a	FR1	2	R1077T
2430.856	2.501	2516938	WORD	n/a	wordpools/wordpool_EN.txt	CLOWN	7	24	[0, 0, 0]	n/a	FR1	2	R1077T
2433.357	2.583	2519439	WORD	n/a	wordpools/wordpool_EN.txt	SUIT	8	24	[0, 0, 0]	n/a	FR1	2	R1077T
2435.94	2.384	2522022	WORD	n/a	wordpools/wordpool_EN.txt	CAPE	9	24	[0, 0, 0]	n/a	FR1	2	R1077T
2438.324	2.484	2524406	WORD	n/a	wordpools/wordpool_EN.txt	JUICE	10	24	[0, 0, 0]	n/a	FR1	2	R1077T
2440.808	2.601	2526890	WORD	n/a	wordpools/wordpool_EN.txt	WORLD	11	24	[0, 0, 0]	n/a	FR1	2	R1077T
2443.409	1.616	2529491	WORD	n/a	wordpools/wordpool_EN.txt	BAG	12	24	[0, 0, 0]	n/a	FR1	2	R1077T
2445.025	0.001	2531107	DISTRACT_START	n/a	n/a	n/a	-999	24	[0, 0, 0]	n/a	FR1	2	R1077T
2445.026	0.016	2531108	START	n/a	n/a	n/a	-999	24	[-999, -999, -999]	n/a	FR1	2	R1077T
2445.042	6.385	2531124	PROB	6.385	n/a	n/a	-999	24	[8, 6, 6]	20	FR1	2	R1077T
2451.427	2.417	2537508	PROB	2.417	n/a	n/a	-999	24	[1, 9, 6]	16	FR1	2	R1077T
2453.844	9.085	2539925	PROB	9.085	n/a	n/a	-999	24	[8, 9, 8]	25	FR1	2	R1077T
2462.929	5.347	2549010	PROB	5.347	n/a	n/a	-999	24	[7, 2, 8]	17	FR1	2	R1077T
2468.276	0.02	2554356	STOP	n/a	n/a	n/a	-999	24	[-999, -999, -999]	n/a	FR1	2	R1077T
2468.296	1.168	2554376	DISTRACT_END	n/a	n/a	n/a	-999	24	[0, 0, 0]	n/a	FR1	2	R1077T
2469.464	7.861	2555544	REC_START	n/a	n/a	n/a	-999	24	[0, 0, 0]	n/a	FR1	2	R1077T
2477.325	0.995	2563405	REC_WORD	0.995	n/a	CLOWN	-999	24	[0, 0, 0]	n/a	FR1	2	R1077T
2478.32	0.922	2564400	REC_WORD	0.922	n/a	SHOE	-999	24	[0, 0, 0]	n/a	FR1	2	R1077T
2479.242	1.182	2565322	REC_WORD	1.182	n/a	BOOT	-999	24	[0, 0, 0]	n/a	FR1	2	R1077T
2480.424	19.052	2566504	REC_WORD	19.052	n/a	CAPE	-999	24	[0, 0, 0]	n/a	FR1	2	R1077T
2499.476	2.243	2585555	REC_END	n/a	n/a	n/a	-999	24	[0, 0, 0]	n/a	FR1	2	R1077T
2501.719	0.001	2587798	COUNTDOWN_START	n/a	n/a	n/a	-999	25	[0, 0, 0]	n/a	FR1	2	R1077T
2501.72	10.427	2587799	TRIAL	n/a	n/a	n/a	-999	25	[0, 0, 0]	n/a	FR1	2	R1077T
2512.147	0.007	2598225	COUNTDOWN_END	n/a	n/a	n/a	-999	25	[0, 0, 0]	n/a	FR1	2	R1077T
2512.154	2.402	2598232	ORIENT	n/a	n/a	n/a	-999	25	[0, 0, 0]	n/a	FR1	2	R1077T
2514.556	2.633	2600634	WORD	n/a	wordpools/wordpool_EN.txt	SEAT	1	25	[0, 0, 0]	n/a	FR1	2	R1077T
2517.189	2.583	2603267	WORD	n/a	wordpools/wordpool_EN.txt	ROOF	2	25	[0, 0, 0]	n/a	FR1	2	R1077T
2519.772	2.484	2605850	WORD	n/a	wordpools/wordpool_EN.txt	HAND	3	25	[0, 0, 0]	n/a	FR1	2	R1077T
2522.256	2.584	2608334	WORD	n/a	wordpools/wordpool_EN.txt	BADGE	4	25	[0, 0, 0]	n/a	FR1	2	R1077T
2524.84	2.517	2610918	WORD	n/a	wordpools/wordpool_EN.txt	DIME	5	25	[0, 0, 0]	n/a	FR1	2	R1077T
2527.357	2.584	2613435	WORD	n/a	wordpools/wordpool_EN.txt	MAT	6	25	[0, 0, 0]	n/a	FR1	2	R1077T
2529.941	2.601	2616018	WORD	n/a	wordpools/wordpool_EN.txt	STICK	7	25	[0, 0, 0]	n/a	FR1	2	R1077T
2532.542	2.433	2618619	WORD	n/a	wordpools/wordpool_EN.txt	KITE	8	25	[0, 0, 0]	n/a	FR1	2	R1077T
2534.975	2.534	2621052	WORD	n/a	wordpools/wordpool_EN.txt	SMILE	9	25	[0, 0, 0]	n/a	FR1	2	R1077T
2537.509	2.584	2623586	WORD	n/a	wordpools/wordpool_EN.txt	SCHOOL	10	25	[0, 0, 0]	n/a	FR1	2	R1077T
2540.093	2.501	2626170	WORD	n/a	wordpools/wordpool_EN.txt	CANE	11	25	[0, 0, 0]	n/a	FR1	2	R1077T
2542.594	1.616	2628671	WORD	n/a	wordpools/wordpool_EN.txt	COUCH	12	25	[0, 0, 0]	n/a	FR1	2	R1077T
2544.21	0.001	2630287	DISTRACT_START	n/a	n/a	n/a	-999	25	[0, 0, 0]	n/a	FR1	2	R1077T
2544.211	0.016	2630288	START	n/a	n/a	n/a	-999	25	[-999, -999, -999]	n/a	FR1	2	R1077T
2544.227	3.734	2630304	PROB	3.734	n/a	n/a	-999	25	[5, 7, 2]	14	FR1	2	R1077T
2547.961	3.534	2634038	PROB	3.534	n/a	n/a	-999	25	[1, 2, 4]	7	FR1	2	R1077T
2551.495	4.102	2637571	PROB	4.102	n/a	n/a	-999	25	[6, 5, 7]	18	FR1	2	R1077T
2555.597	8.2	2641673	PROB	8.2	n/a	n/a	-999	25	[9, 5, 7]	23	FR1	2	R1077T
2563.797	5.519	2649873	PROB	5.519	n/a	n/a	-999	25	[9, 6, 8]	23	FR1	2	R1077T
2569.316	0.015	2655391	STOP	n/a	n/a	n/a	-999	25	[-999, -999, -999]	n/a	FR1	2	R1077T
2569.331	1.202	2655406	DISTRACT_END	n/a	n/a	n/a	-999	25	[0, 0, 0]	n/a	FR1	2	R1077T
2570.533	6.277	2656608	REC_START	n/a	n/a	n/a	-999	25	[0, 0, 0]	n/a	FR1	2	R1077T
2576.81	4.704	2662885	REC_WORD_VV	4.704	n/a	<>	-999	25	[0, 0, 0]	n/a	FR1	2	R1077T
2581.514	4.491	2667589	REC_WORD	4.491	n/a	ROOF	-999	25	[0, 0, 0]	n/a	FR1	2	R1077T
2586.005	14.545	2672080	REC_WORD_VV	14.545	n/a	<>	-999	25	[0, 0, 0]	n/a	FR1	2	R1077T
2600.55	80.202	2686624	REC_END	n/a	n/a	n/a	-999	25	[0, 0, 0]	n/a	FR1	2	R1077T
2680.752	0.0	-1	SESS_END	n/a	n/a	n/a	-999	25	[0, 0, 0]	n/a	FR1	2	R1077T
