onset	duration	sample	trial_type	response_time	stim_file	item_name	serialpos	list	test	answer	experiment	session	subject
0.0	61.051	1798	INSTRUCT_START	n/a	n/a	n/a	-999	-999	[0, 0, 0]	n/a	FR1	2	R1304N
61.051	10.035	62847	INSTRUCT_END	n/a	n/a	n/a	-999	-999	[0, 0, 0]	n/a	FR1	2	R1304N
71.086	32.117	72881	MIC TEST_START	n/a	n/a	n/a	-999	-999	[0, 0, 0]	n/a	FR1	2	R1304N
103.203	0.011	104997	MIC TEST_END	n/a	n/a	n/a	-999	-999	[0, 0, 0]	n/a	FR1	2	R1304N
103.214	0.0	105008	TRIAL_START	n/a	n/a	n/a	-999	-1	[0, 0, 0]	n/a	FR1	2	R1304N
103.214	0.0	105008	TRIAL	n/a	n/a	n/a	-999	-1	[0, 0, 0]	n/a	FR1	2	R1304N
103.214	2.328	105008	WAITING_START	n/a	n/a	n/a	-999	-1	[0, 0, 0]	n/a	FR1	2	R1304N
105.542	0.001	107336	WAITING_END	n/a	n/a	n/a	-999	-1	[0, 0, 0]	n/a	FR1	2	R1304N
105.543	10.429	107337	COUNTDOWN_START	n/a	n/a	n/a	-999	-1	[0, 0, 0]	n/a	FR1	2	R1304N
115.972	0.0	117765	COUNTDOWN_END	n/a	n/a	n/a	-999	-1	[0, 0, 0]	n/a	FR1	2	R1304N
115.972	1.255	117765	ORIENT_START	n/a	n/a	n/a	-999	-1	[0, 0, 0]	n/a	FR1	2	R1304N
117.227	0.0	119020	ORIENT_END	n/a	n/a	n/a	-999	-1	[0, 0, 0]	n/a	FR1	2	R1304N
117.227	0.995	119020	ENCODING_START	n/a	n/a	n/a	-999	-1	[0, 0, 0]	n/a	FR1	2	R1304N
118.222	1.622	120015	WORD	n/a	n/a	RHINO	1	-1	[0, 0, 0]	n/a	FR1	2	R1304N
119.844	0.75	121637	WORD_OFF	n/a	n/a	RHINO	1	-1	[0, 0, 0]	n/a	FR1	2	R1304N
120.594	1.633	122387	WORD	n/a	n/a	ATTIC	2	-1	[0, 0, 0]	n/a	FR1	2	R1304N
122.227	1.004	124020	WORD_OFF	n/a	n/a	ATTIC	2	-1	[0, 0, 0]	n/a	FR1	2	R1304N
123.231	1.63	125024	WORD	n/a	n/a	TONGUE	3	-1	[0, 0, 0]	n/a	FR1	2	R1304N
124.861	0.915	126654	WORD_OFF	n/a	n/a	TONGUE	3	-1	[0, 0, 0]	n/a	FR1	2	R1304N
125.776	1.62	127569	WORD	n/a	n/a	FLOOD	4	-1	[0, 0, 0]	n/a	FR1	2	R1304N
127.396	0.888	129189	WORD_OFF	n/a	n/a	FLOOD	4	-1	[0, 0, 0]	n/a	FR1	2	R1304N
128.284	1.628	130077	WORD	n/a	n/a	CHEST	5	-1	[0, 0, 0]	n/a	FR1	2	R1304N
129.912	0.899	131705	WORD_OFF	n/a	n/a	CHEST	5	-1	[0, 0, 0]	n/a	FR1	2	R1304N
130.811	1.636	132604	WORD	n/a	n/a	COTTON	6	-1	[0, 0, 0]	n/a	FR1	2	R1304N
132.447	0.93	134240	WORD_OFF	n/a	n/a	COTTON	6	-1	[0, 0, 0]	n/a	FR1	2	R1304N
133.377	1.636	135170	WORD	n/a	n/a	CAMEL	7	-1	[0, 0, 0]	n/a	FR1	2	R1304N
135.013	1.036	136806	WORD_OFF	n/a	n/a	CAMEL	7	-1	[0, 0, 0]	n/a	FR1	2	R1304N
136.049	1.631	137841	WORD	n/a	n/a	RING	8	-1	[0, 0, 0]	n/a	FR1	2	R1304N
137.68	1.054	139472	WORD_OFF	n/a	n/a	RING	8	-1	[0, 0, 0]	n/a	FR1	2	R1304N
138.734	1.63	140526	WORD	n/a	n/a	WAGON	9	-1	[0, 0, 0]	n/a	FR1	2	R1304N
140.364	0.805	142156	WORD_OFF	n/a	n/a	WAGON	9	-1	[0, 0, 0]	n/a	FR1	2	R1304N
141.169	1.628	142961	WORD	n/a	n/a	BEAM	10	-1	[0, 0, 0]	n/a	FR1	2	R1304N
142.797	1.05	144589	WORD_OFF	n/a	n/a	BEAM	10	-1	[0, 0, 0]	n/a	FR1	2	R1304N
143.847	1.635	145639	WORD	n/a	n/a	IRON	11	-1	[0, 0, 0]	n/a	FR1	2	R1304N
145.482	0.992	147274	WORD_OFF	n/a	n/a	IRON	11	-1	[0, 0, 0]	n/a	FR1	2	R1304N
146.474	1.624	148266	WORD	n/a	n/a	WATCH	12	-1	[0, 0, 0]	n/a	FR1	2	R1304N
148.098	0.001	149890	WORD_OFF	n/a	n/a	WATCH	12	-1	[0, 0, 0]	n/a	FR1	2	R1304N
148.099	0.0	149891	ENCODING_END	n/a	n/a	n/a	-999	-1	[0, 0, 0]	n/a	FR1	2	R1304N
148.099	0.0	149891	DISTRACT_START	n/a	n/a	n/a	-999	-1	[0, 0, 0]	n/a	FR1	2	R1304N
148.099	0.016	149891	START	n/a	n/a	n/a	-999	-1	[-999, -999, -999]	n/a	FR1	2	R1304N
148.115	11.718	149907	PROB	11.718	n/a	n/a	-999	-1	[2, 1, 9]	8	FR1	2	R1304N
159.833	2.652	161624	PROB	2.652	n/a	n/a	-999	-1	[9, 8, 6]	5	FR1	2	R1304N
162.485	4.35	164276	PROB	4.35	n/a	n/a	-999	-1	[3, 2, 8]	9	FR1	2	R1304N
166.835	26.837	168626	PROB	26.837	n/a	n/a	-999	-1	[6, 6, 2]	3	FR1	2	R1304N
193.672	0.017	195462	STOP	n/a	n/a	n/a	-999	-1	[-999, -999, -999]	n/a	FR1	2	R1304N
193.689	0.622	195479	DISTRACT_END	n/a	n/a	n/a	-999	-1	[0, 0, 0]	n/a	FR1	2	R1304N
194.311	1.579	196101	RETRIEVAL_ORIENT_START	n/a	n/a	n/a	-999	-1	[0, 0, 0]	n/a	FR1	2	R1304N
195.89	0.0	197680	RETRIEVAL_ORIENT_END	n/a	n/a	n/a	-999	-1	[0, 0, 0]	n/a	FR1	2	R1304N
195.89	0.918	197680	REC_START	n/a	n/a	n/a	-999	-1	[0, 0, 0]	n/a	FR1	2	R1304N
196.808	1.0	198598	REC_WORD_VV	1.0	n/a	<>	-999	-1	[0, 0, 0]	n/a	FR1	2	R1304N
197.808	0.612	199598	REC_WORD_VV	0.612	n/a	<>	-999	-1	[0, 0, 0]	n/a	FR1	2	R1304N
198.42	2.188	200210	REC_WORD_VV	2.188	n/a	<>	-999	-1	[0, 0, 0]	n/a	FR1	2	R1304N
200.608	1.995	202398	REC_WORD_VV	1.995	n/a	<>	-999	-1	[0, 0, 0]	n/a	FR1	2	R1304N
202.603	23.295	204393	REC_WORD_VV	23.295	n/a	<>	-999	-1	[0, 0, 0]	n/a	FR1	2	R1304N
225.898	0.0	227687	REC_END	n/a	n/a	n/a	-999	-1	[0, 0, 0]	n/a	FR1	2	R1304N
225.898	9.365	227687	PRACTICE_POST_INSTRUCT_START	n/a	n/a	n/a	-999	-1	[0, 0, 0]	n/a	FR1	2	R1304N
235.263	0.0	237051	PRACTICE_POST_INSTRUCT_END	n/a	n/a	n/a	-999	-1	[0, 0, 0]	n/a	FR1	2	R1304N
235.263	0.016	237051	TRIAL_END	n/a	n/a	n/a	-999	-1	[0, 0, 0]	n/a	FR1	2	R1304N
235.279	0.0	237067	WAITING_START	n/a	n/a	n/a	-999	1	[0, 0, 0]	n/a	FR1	2	R1304N
235.279	0.0	237067	TRIAL	n/a	n/a	n/a	-999	1	[0, 0, 0]	n/a	FR1	2	R1304N
235.279	6.835	237067	TRIAL_START	n/a	n/a	n/a	-999	1	[0, 0, 0]	n/a	FR1	2	R1304N
242.114	0.0	243902	WAITING_END	n/a	n/a	n/a	-999	1	[0, 0, 0]	n/a	FR1	2	R1304N
242.114	10.429	243902	COUNTDOWN_START	n/a	n/a	n/a	-999	1	[0, 0, 0]	n/a	FR1	2	R1304N
252.543	0.0	254331	COUNTDOWN_END	n/a	n/a	n/a	-999	1	[0, 0, 0]	n/a	FR1	2	R1304N
252.543	1.057	254331	ORIENT_START	n/a	n/a	n/a	-999	1	[0, 0, 0]	n/a	FR1	2	R1304N
253.6	0.001	255388	ORIENT_END	n/a	n/a	n/a	-999	1	[0, 0, 0]	n/a	FR1	2	R1304N
253.601	1.035	255389	ENCODING_START	n/a	n/a	n/a	-999	1	[0, 0, 0]	n/a	FR1	2	R1304N
254.636	1.63	256424	WORD	n/a	n/a	SNAKE	1	1	[0, 0, 0]	n/a	FR1	2	R1304N
256.266	0.866	258053	WORD_OFF	n/a	n/a	SNAKE	1	1	[0, 0, 0]	n/a	FR1	2	R1304N
257.132	1.635	258919	WORD	n/a	n/a	TOOL	2	1	[0, 0, 0]	n/a	FR1	2	R1304N
258.767	0.848	260554	WORD_OFF	n/a	n/a	TOOL	2	1	[0, 0, 0]	n/a	FR1	2	R1304N
259.615	1.635	261402	WORD	n/a	n/a	HOSE	3	1	[0, 0, 0]	n/a	FR1	2	R1304N
261.25	0.949	263037	WORD_OFF	n/a	n/a	HOSE	3	1	[0, 0, 0]	n/a	FR1	2	R1304N
262.199	1.635	263986	WORD	n/a	n/a	PIN	4	1	[0, 0, 0]	n/a	FR1	2	R1304N
263.834	0.965	265621	WORD_OFF	n/a	n/a	PIN	4	1	[0, 0, 0]	n/a	FR1	2	R1304N
264.799	1.637	266586	WORD	n/a	n/a	TEA	5	1	[0, 0, 0]	n/a	FR1	2	R1304N
266.436	1.027	268223	WORD_OFF	n/a	n/a	TEA	5	1	[0, 0, 0]	n/a	FR1	2	R1304N
267.463	1.622	269250	WORD	n/a	n/a	LAND	6	1	[0, 0, 0]	n/a	FR1	2	R1304N
269.085	0.818	270872	WORD_OFF	n/a	n/a	LAND	6	1	[0, 0, 0]	n/a	FR1	2	R1304N
269.903	1.617	271690	WORD	n/a	n/a	WAND	7	1	[0, 0, 0]	n/a	FR1	2	R1304N
271.52	0.984	273307	WORD_OFF	n/a	n/a	WAND	7	1	[0, 0, 0]	n/a	FR1	2	R1304N
272.504	1.632	274291	WORD	n/a	n/a	PEN	8	1	[0, 0, 0]	n/a	FR1	2	R1304N
274.136	0.775	275923	WORD_OFF	n/a	n/a	PEN	8	1	[0, 0, 0]	n/a	FR1	2	R1304N
274.911	1.626	276698	WORD	n/a	n/a	STEM	9	1	[0, 0, 0]	n/a	FR1	2	R1304N
276.537	0.813	278324	WORD_OFF	n/a	n/a	STEM	9	1	[0, 0, 0]	n/a	FR1	2	R1304N
277.35	1.637	279137	WORD	n/a	n/a	TOOTH	10	1	[0, 0, 0]	n/a	FR1	2	R1304N
278.987	0.89	280774	WORD_OFF	n/a	n/a	TOOTH	10	1	[0, 0, 0]	n/a	FR1	2	R1304N
279.877	1.628	281663	WORD	n/a	n/a	GRAPE	11	1	[0, 0, 0]	n/a	FR1	2	R1304N
281.505	0.838	283291	WORD_OFF	n/a	n/a	GRAPE	11	1	[0, 0, 0]	n/a	FR1	2	R1304N
282.343	1.628	284129	WORD	n/a	n/a	NET	12	1	[0, 0, 0]	n/a	FR1	2	R1304N
283.971	0.0	285757	WORD_OFF	n/a	n/a	NET	12	1	[0, 0, 0]	n/a	FR1	2	R1304N
283.971	0.0	285757	ENCODING_END	n/a	n/a	n/a	-999	1	[0, 0, 0]	n/a	FR1	2	R1304N
283.971	0.001	285757	DISTRACT_START	n/a	n/a	n/a	-999	1	[0, 0, 0]	n/a	FR1	2	R1304N
283.972	0.015	285758	START	n/a	n/a	n/a	-999	1	[-999, -999, -999]	n/a	FR1	2	R1304N
283.987	26.004	285773	PROB	26.004	n/a	n/a	-999	1	[4, 9, 4]	6	FR1	2	R1304N
309.991	0.018	311776	STOP	n/a	n/a	n/a	-999	1	[-999, -999, -999]	n/a	FR1	2	R1304N
310.009	0.566	311794	DISTRACT_END	n/a	n/a	n/a	-999	1	[0, 0, 0]	n/a	FR1	2	R1304N
310.575	1.717	312360	RETRIEVAL_ORIENT_START	n/a	n/a	n/a	-999	1	[0, 0, 0]	n/a	FR1	2	R1304N
312.292	0.0	314077	REC_START	n/a	n/a	n/a	-999	1	[0, 0, 0]	n/a	FR1	2	R1304N
312.292	17.496	314077	RETRIEVAL_ORIENT_END	n/a	n/a	n/a	-999	1	[0, 0, 0]	n/a	FR1	2	R1304N
329.788	9.392	331572	REC_WORD_VV	9.392	n/a	<>	-999	1	[0, 0, 0]	n/a	FR1	2	R1304N
339.18	0.327	340964	REC_WORD_VV	0.327	n/a	<>	-999	1	[0, 0, 0]	n/a	FR1	2	R1304N
339.507	2.794	341291	REC_WORD	2.794	n/a	PEN	8	1	[0, 0, 0]	n/a	FR1	2	R1304N
342.301	0.0	344085	REC_END	n/a	n/a	n/a	-999	1	[0, 0, 0]	n/a	FR1	2	R1304N
342.301	0.014	344085	TRIAL_END	n/a	n/a	n/a	-999	1	[0, 0, 0]	n/a	FR1	2	R1304N
342.315	0.001	344099	TRIAL_START	n/a	n/a	n/a	-999	2	[0, 0, 0]	n/a	FR1	2	R1304N
342.316	0.0	344100	TRIAL	n/a	n/a	n/a	-999	2	[0, 0, 0]	n/a	FR1	2	R1304N
342.316	6.183	344100	WAITING_START	n/a	n/a	n/a	-999	2	[0, 0, 0]	n/a	FR1	2	R1304N
348.499	0.001	350283	WAITING_END	n/a	n/a	n/a	-999	2	[0, 0, 0]	n/a	FR1	2	R1304N
348.5	10.428	350284	COUNTDOWN_START	n/a	n/a	n/a	-999	2	[0, 0, 0]	n/a	FR1	2	R1304N
358.928	0.001	360711	COUNTDOWN_END	n/a	n/a	n/a	-999	2	[0, 0, 0]	n/a	FR1	2	R1304N
358.929	1.021	360712	ORIENT_START	n/a	n/a	n/a	-999	2	[0, 0, 0]	n/a	FR1	2	R1304N
359.95	0.001	361733	ORIENT_END	n/a	n/a	n/a	-999	2	[0, 0, 0]	n/a	FR1	2	R1304N
359.951	0.799	361734	ENCODING_START	n/a	n/a	n/a	-999	2	[0, 0, 0]	n/a	FR1	2	R1304N
360.75	1.634	362533	WORD	n/a	n/a	CAT	1	2	[0, 0, 0]	n/a	FR1	2	R1304N
362.384	0.895	364167	WORD_OFF	n/a	n/a	CAT	1	2	[0, 0, 0]	n/a	FR1	2	R1304N
363.279	1.622	365062	WORD	n/a	n/a	ROPE	2	2	[0, 0, 0]	n/a	FR1	2	R1304N
364.901	0.986	366684	WORD_OFF	n/a	n/a	ROPE	2	2	[0, 0, 0]	n/a	FR1	2	R1304N
365.887	1.615	367670	WORD	n/a	n/a	LOCK	3	2	[0, 0, 0]	n/a	FR1	2	R1304N
367.502	0.758	369285	WORD_OFF	n/a	n/a	LOCK	3	2	[0, 0, 0]	n/a	FR1	2	R1304N
368.26	1.625	370043	WORD	n/a	n/a	WOLF	4	2	[0, 0, 0]	n/a	FR1	2	R1304N
369.885	0.83	371668	WORD_OFF	n/a	n/a	WOLF	4	2	[0, 0, 0]	n/a	FR1	2	R1304N
370.715	1.637	372498	WORD	n/a	n/a	BRICK	5	2	[0, 0, 0]	n/a	FR1	2	R1304N
372.352	1.011	374135	WORD_OFF	n/a	n/a	BRICK	5	2	[0, 0, 0]	n/a	FR1	2	R1304N
373.363	1.623	375146	WORD	n/a	n/a	RUG	6	2	[0, 0, 0]	n/a	FR1	2	R1304N
374.986	0.962	376769	WORD_OFF	n/a	n/a	RUG	6	2	[0, 0, 0]	n/a	FR1	2	R1304N
375.948	1.623	377730	WORD	n/a	n/a	BRANCH	7	2	[0, 0, 0]	n/a	FR1	2	R1304N
377.571	0.81	379353	WORD_OFF	n/a	n/a	BRANCH	7	2	[0, 0, 0]	n/a	FR1	2	R1304N
378.381	1.623	380163	WORD	n/a	n/a	STEAK	8	2	[0, 0, 0]	n/a	FR1	2	R1304N
380.004	0.97	381786	WORD_OFF	n/a	n/a	STEAK	8	2	[0, 0, 0]	n/a	FR1	2	R1304N
380.974	1.631	382756	WORD	n/a	n/a	MOLE	9	2	[0, 0, 0]	n/a	FR1	2	R1304N
382.605	0.927	384387	WORD_OFF	n/a	n/a	MOLE	9	2	[0, 0, 0]	n/a	FR1	2	R1304N
383.532	1.622	385314	WORD	n/a	n/a	SHIRT	10	2	[0, 0, 0]	n/a	FR1	2	R1304N
385.154	0.993	386936	WORD_OFF	n/a	n/a	SHIRT	10	2	[0, 0, 0]	n/a	FR1	2	R1304N
386.147	1.624	387929	WORD	n/a	n/a	SPONGE	11	2	[0, 0, 0]	n/a	FR1	2	R1304N
387.771	1.048	389553	WORD_OFF	n/a	n/a	SPONGE	11	2	[0, 0, 0]	n/a	FR1	2	R1304N
388.819	1.621	390601	WORD	n/a	n/a	TRAIN	12	2	[0, 0, 0]	n/a	FR1	2	R1304N
390.44	0.0	392222	WORD_OFF	n/a	n/a	TRAIN	12	2	[0, 0, 0]	n/a	FR1	2	R1304N
390.44	0.0	392222	ENCODING_END	n/a	n/a	n/a	-999	2	[0, 0, 0]	n/a	FR1	2	R1304N
390.44	0.0	392222	DISTRACT_START	n/a	n/a	n/a	-999	2	[0, 0, 0]	n/a	FR1	2	R1304N
390.44	0.016	392222	START	n/a	n/a	n/a	-999	2	[-999, -999, -999]	n/a	FR1	2	R1304N
390.456	34.72	392238	PROB	34.72	n/a	n/a	-999	2	[2, 3, 4]	7	FR1	2	R1304N
425.176	0.018	426956	STOP	n/a	n/a	n/a	-999	2	[-999, -999, -999]	n/a	FR1	2	R1304N
425.194	0.662	426974	DISTRACT_END	n/a	n/a	n/a	-999	2	[0, 0, 0]	n/a	FR1	2	R1304N
425.856	1.706	427636	RETRIEVAL_ORIENT_START	n/a	n/a	n/a	-999	2	[0, 0, 0]	n/a	FR1	2	R1304N
427.562	0.001	429342	RETRIEVAL_ORIENT_END	n/a	n/a	n/a	-999	2	[0, 0, 0]	n/a	FR1	2	R1304N
427.563	4.36	429343	REC_START	n/a	n/a	n/a	-999	2	[0, 0, 0]	n/a	FR1	2	R1304N
431.923	5.189	433703	REC_WORD	5.189	n/a	WOLF	4	2	[0, 0, 0]	n/a	FR1	2	R1304N
437.112	2.125	438892	REC_WORD	2.125	n/a	FARM	-999	2	[0, 0, 0]	n/a	FR1	2	R1304N
439.237	2.216	441017	REC_WORD	2.216	n/a	HOSE	-999	2	[0, 0, 0]	n/a	FR1	2	R1304N
441.453	0.27	443233	REC_WORD_VV	0.27	n/a	<>	-999	2	[0, 0, 0]	n/a	FR1	2	R1304N
441.723	15.848	443503	REC_WORD	15.848	n/a	BRANCH	7	2	[0, 0, 0]	n/a	FR1	2	R1304N
457.571	0.0	459350	REC_END	n/a	n/a	n/a	-999	2	[0, 0, 0]	n/a	FR1	2	R1304N
457.571	0.015	459350	TRIAL_END	n/a	n/a	n/a	-999	2	[0, 0, 0]	n/a	FR1	2	R1304N
457.586	0.0	459365	WAITING_START	n/a	n/a	n/a	-999	3	[0, 0, 0]	n/a	FR1	2	R1304N
457.586	0.0	459365	TRIAL_START	n/a	n/a	n/a	-999	3	[0, 0, 0]	n/a	FR1	2	R1304N
457.586	10.299	459365	TRIAL	n/a	n/a	n/a	-999	3	[0, 0, 0]	n/a	FR1	2	R1304N
467.885	0.0	469664	WAITING_END	n/a	n/a	n/a	-999	3	[0, 0, 0]	n/a	FR1	2	R1304N
467.885	10.428	469664	COUNTDOWN_START	n/a	n/a	n/a	-999	3	[0, 0, 0]	n/a	FR1	2	R1304N
478.313	0.0	480091	COUNTDOWN_END	n/a	n/a	n/a	-999	3	[0, 0, 0]	n/a	FR1	2	R1304N
478.313	1.191	480091	ORIENT_START	n/a	n/a	n/a	-999	3	[0, 0, 0]	n/a	FR1	2	R1304N
479.504	0.001	481282	ORIENT_END	n/a	n/a	n/a	-999	3	[0, 0, 0]	n/a	FR1	2	R1304N
479.505	0.826	481283	ENCODING_START	n/a	n/a	n/a	-999	3	[0, 0, 0]	n/a	FR1	2	R1304N
480.331	1.623	482109	WORD	n/a	n/a	HAND	1	3	[0, 0, 0]	n/a	FR1	2	R1304N
481.954	0.784	483732	WORD_OFF	n/a	n/a	HAND	1	3	[0, 0, 0]	n/a	FR1	2	R1304N
482.738	1.633	484516	WORD	n/a	n/a	BAND	2	3	[0, 0, 0]	n/a	FR1	2	R1304N
484.371	0.764	486149	WORD_OFF	n/a	n/a	BAND	2	3	[0, 0, 0]	n/a	FR1	2	R1304N
485.135	1.636	486913	WORD	n/a	n/a	SAIL	3	3	[0, 0, 0]	n/a	FR1	2	R1304N
486.771	0.868	488549	WORD_OFF	n/a	n/a	SAIL	3	3	[0, 0, 0]	n/a	FR1	2	R1304N
487.639	1.632	489417	WORD	n/a	n/a	CLOTH	4	3	[0, 0, 0]	n/a	FR1	2	R1304N
489.271	1.045	491049	WORD_OFF	n/a	n/a	CLOTH	4	3	[0, 0, 0]	n/a	FR1	2	R1304N
490.316	1.623	492094	WORD	n/a	n/a	CALF	5	3	[0, 0, 0]	n/a	FR1	2	R1304N
491.939	1.023	493717	WORD_OFF	n/a	n/a	CALF	5	3	[0, 0, 0]	n/a	FR1	2	R1304N
492.962	1.611	494740	WORD	n/a	n/a	TREE	6	3	[0, 0, 0]	n/a	FR1	2	R1304N
494.573	0.884	496351	WORD_OFF	n/a	n/a	TREE	6	3	[0, 0, 0]	n/a	FR1	2	R1304N
495.457	1.633	497235	WORD	n/a	n/a	STONE	7	3	[0, 0, 0]	n/a	FR1	2	R1304N
497.09	0.943	498867	WORD_OFF	n/a	n/a	STONE	7	3	[0, 0, 0]	n/a	FR1	2	R1304N
498.033	1.624	499810	WORD	n/a	n/a	CROWN	8	3	[0, 0, 0]	n/a	FR1	2	R1304N
499.657	0.897	501434	WORD_OFF	n/a	n/a	CROWN	8	3	[0, 0, 0]	n/a	FR1	2	R1304N
500.554	1.62	502331	WORD	n/a	n/a	ARK	9	3	[0, 0, 0]	n/a	FR1	2	R1304N
502.174	0.917	503951	WORD_OFF	n/a	n/a	ARK	9	3	[0, 0, 0]	n/a	FR1	2	R1304N
503.091	1.633	504868	WORD	n/a	n/a	FOOD	10	3	[0, 0, 0]	n/a	FR1	2	R1304N
504.724	1.117	506501	WORD_OFF	n/a	n/a	FOOD	10	3	[0, 0, 0]	n/a	FR1	2	R1304N
505.841	1.635	507618	WORD	n/a	n/a	GOAT	11	3	[0, 0, 0]	n/a	FR1	2	R1304N
507.476	1.068	509253	WORD_OFF	n/a	n/a	GOAT	11	3	[0, 0, 0]	n/a	FR1	2	R1304N
508.544	1.631	510321	WORD	n/a	n/a	GRASS	12	3	[0, 0, 0]	n/a	FR1	2	R1304N
510.175	0.001	511952	WORD_OFF	n/a	n/a	GRASS	12	3	[0, 0, 0]	n/a	FR1	2	R1304N
510.176	0.0	511953	ENCODING_END	n/a	n/a	n/a	-999	3	[0, 0, 0]	n/a	FR1	2	R1304N
510.176	0.0	511953	DISTRACT_START	n/a	n/a	n/a	-999	3	[0, 0, 0]	n/a	FR1	2	R1304N
510.176	0.016	511953	START	n/a	n/a	n/a	-999	3	[-999, -999, -999]	n/a	FR1	2	R1304N
510.192	23.711	511969	PROB	23.711	n/a	n/a	-999	3	[3, 3, 2]	5	FR1	2	R1304N
533.903	0.009	535679	STOP	n/a	n/a	n/a	-999	3	[-999, -999, -999]	n/a	FR1	2	R1304N
533.912	0.572	535688	DISTRACT_END	n/a	n/a	n/a	-999	3	[0, 0, 0]	n/a	FR1	2	R1304N
534.484	1.612	536260	RETRIEVAL_ORIENT_START	n/a	n/a	n/a	-999	3	[0, 0, 0]	n/a	FR1	2	R1304N
536.096	0.0	537872	RETRIEVAL_ORIENT_END	n/a	n/a	n/a	-999	3	[0, 0, 0]	n/a	FR1	2	R1304N
536.096	1.707	537872	REC_START	n/a	n/a	n/a	-999	3	[0, 0, 0]	n/a	FR1	2	R1304N
537.803	3.199	539579	REC_WORD	3.199	n/a	MOLE	-999	3	[0, 0, 0]	n/a	FR1	2	R1304N
541.002	25.103	542778	REC_WORD_VV	25.103	n/a	<>	-999	3	[0, 0, 0]	n/a	FR1	2	R1304N
566.105	0.0	567880	REC_END	n/a	n/a	n/a	-999	3	[0, 0, 0]	n/a	FR1	2	R1304N
566.105	0.013	567880	TRIAL_END	n/a	n/a	n/a	-999	3	[0, 0, 0]	n/a	FR1	2	R1304N
566.118	0.001	567893	TRIAL_START	n/a	n/a	n/a	-999	4	[0, 0, 0]	n/a	FR1	2	R1304N
566.119	0.0	567894	WAITING_START	n/a	n/a	n/a	-999	4	[0, 0, 0]	n/a	FR1	2	R1304N
566.119	5.833	567894	TRIAL	n/a	n/a	n/a	-999	4	[0, 0, 0]	n/a	FR1	2	R1304N
571.952	0.0	573726	WAITING_END	n/a	n/a	n/a	-999	4	[0, 0, 0]	n/a	FR1	2	R1304N
571.952	10.43	573726	COUNTDOWN_START	n/a	n/a	n/a	-999	4	[0, 0, 0]	n/a	FR1	2	R1304N
582.382	0.0	584156	COUNTDOWN_END	n/a	n/a	n/a	-999	4	[0, 0, 0]	n/a	FR1	2	R1304N
582.382	1.09	584156	ORIENT_START	n/a	n/a	n/a	-999	4	[0, 0, 0]	n/a	FR1	2	R1304N
583.472	0.0	585246	ORIENT_END	n/a	n/a	n/a	-999	4	[0, 0, 0]	n/a	FR1	2	R1304N
583.472	0.956	585246	ENCODING_START	n/a	n/a	n/a	-999	4	[0, 0, 0]	n/a	FR1	2	R1304N
584.428	1.626	586202	WORD	n/a	n/a	FARM	1	4	[0, 0, 0]	n/a	FR1	2	R1304N
586.054	0.97	587828	WORD_OFF	n/a	n/a	FARM	1	4	[0, 0, 0]	n/a	FR1	2	R1304N
587.024	1.631	588798	WORD	n/a	n/a	OAK	2	4	[0, 0, 0]	n/a	FR1	2	R1304N
588.655	0.83	590429	WORD_OFF	n/a	n/a	OAK	2	4	[0, 0, 0]	n/a	FR1	2	R1304N
589.485	1.62	591259	WORD	n/a	n/a	PALM	3	4	[0, 0, 0]	n/a	FR1	2	R1304N
591.105	1.1	592879	WORD_OFF	n/a	n/a	PALM	3	4	[0, 0, 0]	n/a	FR1	2	R1304N
592.205	1.634	593978	WORD	n/a	n/a	STICK	4	4	[0, 0, 0]	n/a	FR1	2	R1304N
593.839	0.796	595612	WORD_OFF	n/a	n/a	STICK	4	4	[0, 0, 0]	n/a	FR1	2	R1304N
594.635	1.621	596408	WORD	n/a	n/a	TEETH	5	4	[0, 0, 0]	n/a	FR1	2	R1304N
596.256	1.111	598029	WORD_OFF	n/a	n/a	TEETH	5	4	[0, 0, 0]	n/a	FR1	2	R1304N
597.367	1.623	599140	WORD	n/a	n/a	DESK	6	4	[0, 0, 0]	n/a	FR1	2	R1304N
598.99	0.885	600763	WORD_OFF	n/a	n/a	DESK	6	4	[0, 0, 0]	n/a	FR1	2	R1304N
599.875	1.616	601648	WORD	n/a	n/a	STRAW	7	4	[0, 0, 0]	n/a	FR1	2	R1304N
601.491	0.942	603264	WORD_OFF	n/a	n/a	STRAW	7	4	[0, 0, 0]	n/a	FR1	2	R1304N
602.433	1.624	604206	WORD	n/a	n/a	HILL	8	4	[0, 0, 0]	n/a	FR1	2	R1304N
604.057	0.872	605830	WORD_OFF	n/a	n/a	HILL	8	4	[0, 0, 0]	n/a	FR1	2	R1304N
604.929	1.63	606702	WORD	n/a	n/a	SOAP	9	4	[0, 0, 0]	n/a	FR1	2	R1304N
606.559	1.121	608332	WORD_OFF	n/a	n/a	SOAP	9	4	[0, 0, 0]	n/a	FR1	2	R1304N
607.68	1.628	609453	WORD	n/a	n/a	LEAF	10	4	[0, 0, 0]	n/a	FR1	2	R1304N
609.308	0.766	611081	WORD_OFF	n/a	n/a	LEAF	10	4	[0, 0, 0]	n/a	FR1	2	R1304N
610.074	1.635	611847	WORD	n/a	n/a	JUICE	11	4	[0, 0, 0]	n/a	FR1	2	R1304N
611.709	1.138	613482	WORD_OFF	n/a	n/a	JUICE	11	4	[0, 0, 0]	n/a	FR1	2	R1304N
612.847	1.63	614620	WORD	n/a	n/a	PEARL	12	4	[0, 0, 0]	n/a	FR1	2	R1304N
614.477	0.0	616250	WORD_OFF	n/a	n/a	PEARL	12	4	[0, 0, 0]	n/a	FR1	2	R1304N
614.477	0.0	616250	ENCODING_END	n/a	n/a	n/a	-999	4	[0, 0, 0]	n/a	FR1	2	R1304N
614.477	0.0	616250	DISTRACT_START	n/a	n/a	n/a	-999	4	[0, 0, 0]	n/a	FR1	2	R1304N
614.477	0.016	616250	START	n/a	n/a	n/a	-999	4	[-999, -999, -999]	n/a	FR1	2	R1304N
614.493	9.401	616266	PROB	9.401	n/a	n/a	-999	4	[9, 8, 4]	7	FR1	2	R1304N
623.894	3.552	625666	PROB	3.552	n/a	n/a	-999	4	[7, 9, 5]	6	FR1	2	R1304N
627.446	3.266	629218	PROB	3.266	n/a	n/a	-999	4	[5, 7, 6]	9	FR1	2	R1304N
630.712	10.712	632484	PROB	10.712	n/a	n/a	-999	4	[2, 8, 8]	9	FR1	2	R1304N
641.424	0.007	643195	STOP	n/a	n/a	n/a	-999	4	[-999, -999, -999]	n/a	FR1	2	R1304N
641.431	0.621	643202	DISTRACT_END	n/a	n/a	n/a	-999	4	[0, 0, 0]	n/a	FR1	2	R1304N
642.052	1.729	643823	RETRIEVAL_ORIENT_START	n/a	n/a	n/a	-999	4	[0, 0, 0]	n/a	FR1	2	R1304N
643.781	0.0	645552	RETRIEVAL_ORIENT_END	n/a	n/a	n/a	-999	4	[0, 0, 0]	n/a	FR1	2	R1304N
643.781	5.609	645552	REC_START	n/a	n/a	n/a	-999	4	[0, 0, 0]	n/a	FR1	2	R1304N
649.39	2.955	651161	REC_WORD	2.955	n/a	JUICE	11	4	[0, 0, 0]	n/a	FR1	2	R1304N
652.345	11.852	654116	REC_WORD	11.852	n/a	FOOD	-999	4	[0, 0, 0]	n/a	FR1	2	R1304N
664.197	7.682	665968	REC_WORD	7.682	n/a	DESK	6	4	[0, 0, 0]	n/a	FR1	2	R1304N
671.879	1.911	673649	REC_WORD_VV	1.911	n/a	<>	-999	4	[0, 0, 0]	n/a	FR1	2	R1304N
673.79	0.0	675560	REC_END	n/a	n/a	n/a	-999	4	[0, 0, 0]	n/a	FR1	2	R1304N
673.79	0.014	675560	TRIAL_END	n/a	n/a	n/a	-999	4	[0, 0, 0]	n/a	FR1	2	R1304N
673.804	0.0	675574	WAITING_START	n/a	n/a	n/a	-999	5	[0, 0, 0]	n/a	FR1	2	R1304N
673.804	0.0	675574	TRIAL	n/a	n/a	n/a	-999	5	[0, 0, 0]	n/a	FR1	2	R1304N
673.804	3.882	675574	TRIAL_START	n/a	n/a	n/a	-999	5	[0, 0, 0]	n/a	FR1	2	R1304N
677.686	0.001	679456	WAITING_END	n/a	n/a	n/a	-999	5	[0, 0, 0]	n/a	FR1	2	R1304N
677.687	10.428	679457	COUNTDOWN_START	n/a	n/a	n/a	-999	5	[0, 0, 0]	n/a	FR1	2	R1304N
688.115	0.0	689885	COUNTDOWN_END	n/a	n/a	n/a	-999	5	[0, 0, 0]	n/a	FR1	2	R1304N
688.115	1.223	689885	ORIENT_START	n/a	n/a	n/a	-999	5	[0, 0, 0]	n/a	FR1	2	R1304N
689.338	0.001	691107	ORIENT_END	n/a	n/a	n/a	-999	5	[0, 0, 0]	n/a	FR1	2	R1304N
689.339	0.972	691108	ENCODING_START	n/a	n/a	n/a	-999	5	[0, 0, 0]	n/a	FR1	2	R1304N
690.311	1.628	692080	WORD	n/a	n/a	CUP	1	5	[0, 0, 0]	n/a	FR1	2	R1304N
691.939	0.785	693708	WORD_OFF	n/a	n/a	CUP	1	5	[0, 0, 0]	n/a	FR1	2	R1304N
692.724	1.632	694493	WORD	n/a	n/a	EEL	2	5	[0, 0, 0]	n/a	FR1	2	R1304N
694.356	1.036	696125	WORD_OFF	n/a	n/a	EEL	2	5	[0, 0, 0]	n/a	FR1	2	R1304N
695.392	1.631	697161	WORD	n/a	n/a	BOMB	3	5	[0, 0, 0]	n/a	FR1	2	R1304N
697.023	0.767	698792	WORD_OFF	n/a	n/a	BOMB	3	5	[0, 0, 0]	n/a	FR1	2	R1304N
697.79	1.618	699559	WORD	n/a	n/a	SLIME	4	5	[0, 0, 0]	n/a	FR1	2	R1304N
699.408	1.04	701177	WORD_OFF	n/a	n/a	SLIME	4	5	[0, 0, 0]	n/a	FR1	2	R1304N
700.448	1.626	702217	WORD	n/a	n/a	SHRIMP	5	5	[0, 0, 0]	n/a	FR1	2	R1304N
702.074	0.987	703843	WORD_OFF	n/a	n/a	SHRIMP	5	5	[0, 0, 0]	n/a	FR1	2	R1304N
703.061	1.63	704830	WORD	n/a	n/a	PANTS	6	5	[0, 0, 0]	n/a	FR1	2	R1304N
704.691	0.831	706460	WORD_OFF	n/a	n/a	PANTS	6	5	[0, 0, 0]	n/a	FR1	2	R1304N
705.522	1.619	707291	WORD	n/a	n/a	JET	7	5	[0, 0, 0]	n/a	FR1	2	R1304N
707.141	0.804	708910	WORD_OFF	n/a	n/a	JET	7	5	[0, 0, 0]	n/a	FR1	2	R1304N
707.945	1.614	709714	WORD	n/a	n/a	TRAY	8	5	[0, 0, 0]	n/a	FR1	2	R1304N
709.559	1.036	711328	WORD_OFF	n/a	n/a	TRAY	8	5	[0, 0, 0]	n/a	FR1	2	R1304N
710.595	1.63	712364	WORD	n/a	n/a	TIE	9	5	[0, 0, 0]	n/a	FR1	2	R1304N
712.225	1.114	713994	WORD_OFF	n/a	n/a	TIE	9	5	[0, 0, 0]	n/a	FR1	2	R1304N
713.339	1.637	715107	WORD	n/a	n/a	BLOOM	10	5	[0, 0, 0]	n/a	FR1	2	R1304N
714.976	0.841	716744	WORD_OFF	n/a	n/a	BLOOM	10	5	[0, 0, 0]	n/a	FR1	2	R1304N
715.817	1.627	717585	WORD	n/a	n/a	GEESE	11	5	[0, 0, 0]	n/a	FR1	2	R1304N
717.444	1.143	719212	WORD_OFF	n/a	n/a	GEESE	11	5	[0, 0, 0]	n/a	FR1	2	R1304N
718.587	1.623	720355	WORD	n/a	n/a	ROOM	12	5	[0, 0, 0]	n/a	FR1	2	R1304N
720.21	0.0	721978	WORD_OFF	n/a	n/a	ROOM	12	5	[0, 0, 0]	n/a	FR1	2	R1304N
720.21	0.001	721978	ENCODING_END	n/a	n/a	n/a	-999	5	[0, 0, 0]	n/a	FR1	2	R1304N
720.211	0.0	721979	DISTRACT_START	n/a	n/a	n/a	-999	5	[0, 0, 0]	n/a	FR1	2	R1304N
720.211	0.016	721979	START	n/a	n/a	n/a	-999	5	[-999, -999, -999]	n/a	FR1	2	R1304N
720.227	4.634	721995	PROB	4.634	n/a	n/a	-999	5	[8, 4, 1]	5	FR1	2	R1304N
724.861	11.502	726629	PROB	11.502	n/a	n/a	-999	5	[3, 4, 3]	7	FR1	2	R1304N
736.363	5.476	738131	PROB	5.476	n/a	n/a	-999	5	[2, 1, 2]	3	FR1	2	R1304N
741.839	0.008	743606	STOP	n/a	n/a	n/a	-999	5	[-999, -999, -999]	n/a	FR1	2	R1304N
741.847	0.515	743614	DISTRACT_END	n/a	n/a	n/a	-999	5	[0, 0, 0]	n/a	FR1	2	R1304N
742.362	1.619	744129	RETRIEVAL_ORIENT_START	n/a	n/a	n/a	-999	5	[0, 0, 0]	n/a	FR1	2	R1304N
743.981	0.0	745748	RETRIEVAL_ORIENT_END	n/a	n/a	n/a	-999	5	[0, 0, 0]	n/a	FR1	2	R1304N
743.981	3.29	745748	REC_START	n/a	n/a	n/a	-999	5	[0, 0, 0]	n/a	FR1	2	R1304N
747.271	4.625	749038	REC_WORD	4.625	n/a	JUICE	-999	5	[0, 0, 0]	n/a	FR1	2	R1304N
751.896	19.855	753663	REC_WORD	19.855	n/a	GRASS	-999	5	[0, 0, 0]	n/a	FR1	2	R1304N
771.751	2.239	773517	REC_WORD	2.239	n/a	BLOOM	10	5	[0, 0, 0]	n/a	FR1	2	R1304N
773.99	0.0	775756	REC_END	n/a	n/a	n/a	-999	5	[0, 0, 0]	n/a	FR1	2	R1304N
773.99	0.014	775756	TRIAL_END	n/a	n/a	n/a	-999	5	[0, 0, 0]	n/a	FR1	2	R1304N
774.004	0.0	775770	WAITING_START	n/a	n/a	n/a	-999	6	[0, 0, 0]	n/a	FR1	2	R1304N
774.004	0.0	775770	TRIAL_START	n/a	n/a	n/a	-999	6	[0, 0, 0]	n/a	FR1	2	R1304N
774.004	13.834	775770	TRIAL	n/a	n/a	n/a	-999	6	[0, 0, 0]	n/a	FR1	2	R1304N
787.838	0.0	789603	WAITING_END	n/a	n/a	n/a	-999	6	[0, 0, 0]	n/a	FR1	2	R1304N
787.838	10.43	789603	COUNTDOWN_START	n/a	n/a	n/a	-999	6	[0, 0, 0]	n/a	FR1	2	R1304N
798.268	0.0	800033	COUNTDOWN_END	n/a	n/a	n/a	-999	6	[0, 0, 0]	n/a	FR1	2	R1304N
798.268	1.072	800033	ORIENT_START	n/a	n/a	n/a	-999	6	[0, 0, 0]	n/a	FR1	2	R1304N
799.34	0.0	801105	ORIENT_END	n/a	n/a	n/a	-999	6	[0, 0, 0]	n/a	FR1	2	R1304N
799.34	0.961	801105	ENCODING_START	n/a	n/a	n/a	-999	6	[0, 0, 0]	n/a	FR1	2	R1304N
800.301	1.623	802066	WORD	n/a	n/a	CHAIR	1	6	[0, 0, 0]	n/a	FR1	2	R1304N
801.924	0.78	803689	WORD_OFF	n/a	n/a	CHAIR	1	6	[0, 0, 0]	n/a	FR1	2	R1304N
802.704	1.62	804469	WORD	n/a	n/a	RICE	2	6	[0, 0, 0]	n/a	FR1	2	R1304N
804.324	0.959	806089	WORD_OFF	n/a	n/a	RICE	2	6	[0, 0, 0]	n/a	FR1	2	R1304N
805.283	1.625	807048	WORD	n/a	n/a	TOAD	3	6	[0, 0, 0]	n/a	FR1	2	R1304N
806.908	1.126	808673	WORD_OFF	n/a	n/a	TOAD	3	6	[0, 0, 0]	n/a	FR1	2	R1304N
808.034	1.624	809799	WORD	n/a	n/a	HEN	4	6	[0, 0, 0]	n/a	FR1	2	R1304N
809.658	1.027	811422	WORD_OFF	n/a	n/a	HEN	4	6	[0, 0, 0]	n/a	FR1	2	R1304N
810.685	1.624	812449	WORD	n/a	n/a	POLE	5	6	[0, 0, 0]	n/a	FR1	2	R1304N
812.309	0.819	814073	WORD_OFF	n/a	n/a	POLE	5	6	[0, 0, 0]	n/a	FR1	2	R1304N
813.128	1.631	814892	WORD	n/a	n/a	PASTE	6	6	[0, 0, 0]	n/a	FR1	2	R1304N
814.759	0.909	816523	WORD_OFF	n/a	n/a	PASTE	6	6	[0, 0, 0]	n/a	FR1	2	R1304N
815.668	1.625	817432	WORD	n/a	n/a	LAKE	7	6	[0, 0, 0]	n/a	FR1	2	R1304N
817.293	0.966	819057	WORD_OFF	n/a	n/a	LAKE	7	6	[0, 0, 0]	n/a	FR1	2	R1304N
818.259	1.634	820023	WORD	n/a	n/a	BALL	8	6	[0, 0, 0]	n/a	FR1	2	R1304N
819.893	0.777	821657	WORD_OFF	n/a	n/a	BALL	8	6	[0, 0, 0]	n/a	FR1	2	R1304N
820.67	1.624	822434	WORD	n/a	n/a	SWAMP	9	6	[0, 0, 0]	n/a	FR1	2	R1304N
822.294	1.119	824058	WORD_OFF	n/a	n/a	SWAMP	9	6	[0, 0, 0]	n/a	FR1	2	R1304N
823.413	1.631	825177	WORD	n/a	n/a	NOSE	10	6	[0, 0, 0]	n/a	FR1	2	R1304N
825.044	0.959	826808	WORD_OFF	n/a	n/a	NOSE	10	6	[0, 0, 0]	n/a	FR1	2	R1304N
826.003	1.626	827767	WORD	n/a	n/a	HOOF	11	6	[0, 0, 0]	n/a	FR1	2	R1304N
827.629	0.79	829393	WORD_OFF	n/a	n/a	HOOF	11	6	[0, 0, 0]	n/a	FR1	2	R1304N
828.419	1.626	830183	WORD	n/a	n/a	MUG	12	6	[0, 0, 0]	n/a	FR1	2	R1304N
830.045	0.0	831809	WORD_OFF	n/a	n/a	MUG	12	6	[0, 0, 0]	n/a	FR1	2	R1304N
830.045	0.001	831809	ENCODING_END	n/a	n/a	n/a	-999	6	[0, 0, 0]	n/a	FR1	2	R1304N
830.046	0.0	831810	DISTRACT_START	n/a	n/a	n/a	-999	6	[0, 0, 0]	n/a	FR1	2	R1304N
830.046	0.016	831810	START	n/a	n/a	n/a	-999	6	[-999, -999, -999]	n/a	FR1	2	R1304N
830.062	10.201	831826	PROB	10.201	n/a	n/a	-999	6	[1, 9, 8]	7	FR1	2	R1304N
840.263	5.501	842026	PROB	5.501	n/a	n/a	-999	6	[6, 4, 9]	8	FR1	2	R1304N
845.764	11.091	847527	PROB	11.091	n/a	n/a	-999	6	[1, 1, 3]	4	FR1	2	R1304N
856.855	0.011	858617	STOP	n/a	n/a	n/a	-999	6	[-999, -999, -999]	n/a	FR1	2	R1304N
856.866	0.609	858628	DISTRACT_END	n/a	n/a	n/a	-999	6	[0, 0, 0]	n/a	FR1	2	R1304N
857.475	1.725	859237	RETRIEVAL_ORIENT_START	n/a	n/a	n/a	-999	6	[0, 0, 0]	n/a	FR1	2	R1304N
859.2	0.0	860962	REC_START	n/a	n/a	n/a	-999	6	[0, 0, 0]	n/a	FR1	2	R1304N
859.2	2.262	860962	RETRIEVAL_ORIENT_END	n/a	n/a	n/a	-999	6	[0, 0, 0]	n/a	FR1	2	R1304N
861.462	20.471	863224	REC_WORD	20.471	n/a	CHAIR	1	6	[0, 0, 0]	n/a	FR1	2	R1304N
881.933	7.276	883694	REC_WORD	7.276	n/a	BED	-999	6	[0, 0, 0]	n/a	FR1	2	R1304N
889.209	0.001	890970	REC_END	n/a	n/a	n/a	-999	6	[0, 0, 0]	n/a	FR1	2	R1304N
889.21	0.014	890971	TRIAL_END	n/a	n/a	n/a	-999	6	[0, 0, 0]	n/a	FR1	2	R1304N
889.224	0.001	890985	TRIAL_START	n/a	n/a	n/a	-999	7	[0, 0, 0]	n/a	FR1	2	R1304N
889.225	0.0	890986	TRIAL	n/a	n/a	n/a	-999	7	[0, 0, 0]	n/a	FR1	2	R1304N
889.225	4.747	890986	WAITING_START	n/a	n/a	n/a	-999	7	[0, 0, 0]	n/a	FR1	2	R1304N
893.972	0.001	895733	WAITING_END	n/a	n/a	n/a	-999	7	[0, 0, 0]	n/a	FR1	2	R1304N
893.973	10.428	895734	COUNTDOWN_START	n/a	n/a	n/a	-999	7	[0, 0, 0]	n/a	FR1	2	R1304N
904.401	0.0	906162	COUNTDOWN_END	n/a	n/a	n/a	-999	7	[0, 0, 0]	n/a	FR1	2	R1304N
904.401	1.208	906162	ORIENT_START	n/a	n/a	n/a	-999	7	[0, 0, 0]	n/a	FR1	2	R1304N
905.609	0.0	907369	ORIENT_END	n/a	n/a	n/a	-999	7	[0, 0, 0]	n/a	FR1	2	R1304N
905.609	0.776	907369	ENCODING_START	n/a	n/a	n/a	-999	7	[0, 0, 0]	n/a	FR1	2	R1304N
906.385	1.623	908145	WORD	n/a	n/a	SNAIL	1	7	[0, 0, 0]	n/a	FR1	2	R1304N
908.008	1.09	909768	WORD_OFF	n/a	n/a	SNAIL	1	7	[0, 0, 0]	n/a	FR1	2	R1304N
909.098	1.627	910858	WORD	n/a	n/a	DIME	2	7	[0, 0, 0]	n/a	FR1	2	R1304N
910.725	1.082	912485	WORD_OFF	n/a	n/a	DIME	2	7	[0, 0, 0]	n/a	FR1	2	R1304N
911.807	1.636	913567	WORD	n/a	n/a	SOCK	3	7	[0, 0, 0]	n/a	FR1	2	R1304N
913.443	0.791	915203	WORD_OFF	n/a	n/a	SOCK	3	7	[0, 0, 0]	n/a	FR1	2	R1304N
914.234	1.625	915994	WORD	n/a	n/a	RAKE	4	7	[0, 0, 0]	n/a	FR1	2	R1304N
915.859	0.756	917619	WORD_OFF	n/a	n/a	RAKE	4	7	[0, 0, 0]	n/a	FR1	2	R1304N
916.615	1.628	918375	WORD	n/a	n/a	CRANE	5	7	[0, 0, 0]	n/a	FR1	2	R1304N
918.243	1.065	920003	WORD_OFF	n/a	n/a	CRANE	5	7	[0, 0, 0]	n/a	FR1	2	R1304N
919.308	1.636	921068	WORD	n/a	n/a	CUBE	6	7	[0, 0, 0]	n/a	FR1	2	R1304N
920.944	1.092	922704	WORD_OFF	n/a	n/a	CUBE	6	7	[0, 0, 0]	n/a	FR1	2	R1304N
922.036	1.625	923796	WORD	n/a	n/a	PLANT	7	7	[0, 0, 0]	n/a	FR1	2	R1304N
923.661	0.765	925421	WORD_OFF	n/a	n/a	PLANT	7	7	[0, 0, 0]	n/a	FR1	2	R1304N
924.426	1.635	926186	WORD	n/a	n/a	INK	8	7	[0, 0, 0]	n/a	FR1	2	R1304N
926.061	0.772	927821	WORD_OFF	n/a	n/a	INK	8	7	[0, 0, 0]	n/a	FR1	2	R1304N
926.833	1.613	928593	WORD	n/a	n/a	LAWN	9	7	[0, 0, 0]	n/a	FR1	2	R1304N
928.446	0.831	930206	WORD_OFF	n/a	n/a	LAWN	9	7	[0, 0, 0]	n/a	FR1	2	R1304N
929.277	1.635	931036	WORD	n/a	n/a	GUARD	10	7	[0, 0, 0]	n/a	FR1	2	R1304N
930.912	0.831	932671	WORD_OFF	n/a	n/a	GUARD	10	7	[0, 0, 0]	n/a	FR1	2	R1304N
931.743	1.636	933502	WORD	n/a	n/a	VASE	11	7	[0, 0, 0]	n/a	FR1	2	R1304N
933.379	1.071	935138	WORD_OFF	n/a	n/a	VASE	11	7	[0, 0, 0]	n/a	FR1	2	R1304N
934.45	1.629	936209	WORD	n/a	n/a	MAT	12	7	[0, 0, 0]	n/a	FR1	2	R1304N
936.079	0.001	937838	WORD_OFF	n/a	n/a	MAT	12	7	[0, 0, 0]	n/a	FR1	2	R1304N
936.08	0.0	937839	ENCODING_END	n/a	n/a	n/a	-999	7	[0, 0, 0]	n/a	FR1	2	R1304N
936.08	0.0	937839	DISTRACT_START	n/a	n/a	n/a	-999	7	[0, 0, 0]	n/a	FR1	2	R1304N
936.08	0.016	937839	START	n/a	n/a	n/a	-999	7	[-999, -999, -999]	n/a	FR1	2	R1304N
936.096	12.769	937855	PROB	12.769	n/a	n/a	-999	7	[2, 4, 7]	6	FR1	2	R1304N
948.865	4.702	950624	PROB	4.702	n/a	n/a	-999	7	[1, 2, 6]	7	FR1	2	R1304N
953.567	12.265	955325	PROB	12.265	n/a	n/a	-999	7	[8, 1, 8]	9	FR1	2	R1304N
965.832	0.019	967590	STOP	n/a	n/a	n/a	-999	7	[-999, -999, -999]	n/a	FR1	2	R1304N
965.851	0.611	967609	DISTRACT_END	n/a	n/a	n/a	-999	7	[0, 0, 0]	n/a	FR1	2	R1304N
966.462	1.706	968220	RETRIEVAL_ORIENT_START	n/a	n/a	n/a	-999	7	[0, 0, 0]	n/a	FR1	2	R1304N
968.168	0.0	969926	RETRIEVAL_ORIENT_END	n/a	n/a	n/a	-999	7	[0, 0, 0]	n/a	FR1	2	R1304N
968.168	14.039	969926	REC_START	n/a	n/a	n/a	-999	7	[0, 0, 0]	n/a	FR1	2	R1304N
982.207	15.97	983964	REC_WORD	15.97	n/a	JUICE	-999	7	[0, 0, 0]	n/a	FR1	2	R1304N
998.177	0.001	999934	REC_END	n/a	n/a	n/a	-999	7	[0, 0, 0]	n/a	FR1	2	R1304N
998.178	0.014	999935	TRIAL_END	n/a	n/a	n/a	-999	7	[0, 0, 0]	n/a	FR1	2	R1304N
998.192	0.0	999949	TRIAL_START	n/a	n/a	n/a	-999	8	[0, 0, 0]	n/a	FR1	2	R1304N
998.192	0.001	999949	TRIAL	n/a	n/a	n/a	-999	8	[0, 0, 0]	n/a	FR1	2	R1304N
998.193	2.797	999950	WAITING_START	n/a	n/a	n/a	-999	8	[0, 0, 0]	n/a	FR1	2	R1304N
1000.99	0.001	1002746	WAITING_END	n/a	n/a	n/a	-999	8	[0, 0, 0]	n/a	FR1	2	R1304N
1000.991	10.428	1002747	COUNTDOWN_START	n/a	n/a	n/a	-999	8	[0, 0, 0]	n/a	FR1	2	R1304N
1011.419	0.001	1013175	COUNTDOWN_END	n/a	n/a	n/a	-999	8	[0, 0, 0]	n/a	FR1	2	R1304N
1011.42	1.206	1013176	ORIENT_START	n/a	n/a	n/a	-999	8	[0, 0, 0]	n/a	FR1	2	R1304N
1012.626	0.001	1014382	ORIENT_END	n/a	n/a	n/a	-999	8	[0, 0, 0]	n/a	FR1	2	R1304N
1012.627	0.841	1014383	ENCODING_START	n/a	n/a	n/a	-999	8	[0, 0, 0]	n/a	FR1	2	R1304N
1013.468	1.625	1015224	WORD	n/a	n/a	FISH	1	8	[0, 0, 0]	n/a	FR1	2	R1304N
1015.093	0.749	1016849	WORD_OFF	n/a	n/a	FISH	1	8	[0, 0, 0]	n/a	FR1	2	R1304N
1015.842	1.618	1017598	WORD	n/a	n/a	CAGE	2	8	[0, 0, 0]	n/a	FR1	2	R1304N
1017.46	0.951	1019216	WORD_OFF	n/a	n/a	CAGE	2	8	[0, 0, 0]	n/a	FR1	2	R1304N
1018.411	1.632	1020167	WORD	n/a	n/a	SWORD	3	8	[0, 0, 0]	n/a	FR1	2	R1304N
1020.043	0.777	1021799	WORD_OFF	n/a	n/a	SWORD	3	8	[0, 0, 0]	n/a	FR1	2	R1304N
1020.82	1.625	1022576	WORD	n/a	n/a	PRINCE	4	8	[0, 0, 0]	n/a	FR1	2	R1304N
1022.445	1.07	1024201	WORD_OFF	n/a	n/a	PRINCE	4	8	[0, 0, 0]	n/a	FR1	2	R1304N
1023.515	1.629	1025271	WORD	n/a	n/a	STRING	5	8	[0, 0, 0]	n/a	FR1	2	R1304N
1025.144	0.948	1026899	WORD_OFF	n/a	n/a	STRING	5	8	[0, 0, 0]	n/a	FR1	2	R1304N
1026.092	1.636	1027847	WORD	n/a	n/a	STAIR	6	8	[0, 0, 0]	n/a	FR1	2	R1304N
1027.728	0.806	1029483	WORD_OFF	n/a	n/a	STAIR	6	8	[0, 0, 0]	n/a	FR1	2	R1304N
1028.534	1.628	1030289	WORD	n/a	n/a	FOX	7	8	[0, 0, 0]	n/a	FR1	2	R1304N
1030.162	1.025	1031917	WORD_OFF	n/a	n/a	FOX	7	8	[0, 0, 0]	n/a	FR1	2	R1304N
1031.187	1.625	1032942	WORD	n/a	n/a	PET	8	8	[0, 0, 0]	n/a	FR1	2	R1304N
1032.812	0.765	1034567	WORD_OFF	n/a	n/a	PET	8	8	[0, 0, 0]	n/a	FR1	2	R1304N
1033.577	1.636	1035332	WORD	n/a	n/a	SPOON	9	8	[0, 0, 0]	n/a	FR1	2	R1304N
1035.213	0.998	1036968	WORD_OFF	n/a	n/a	SPOON	9	8	[0, 0, 0]	n/a	FR1	2	R1304N
1036.211	1.635	1037966	WORD	n/a	n/a	FORK	10	8	[0, 0, 0]	n/a	FR1	2	R1304N
1037.846	0.774	1039601	WORD_OFF	n/a	n/a	FORK	10	8	[0, 0, 0]	n/a	FR1	2	R1304N
1038.62	1.627	1040375	WORD	n/a	n/a	SHARK	11	8	[0, 0, 0]	n/a	FR1	2	R1304N
1040.247	1.022	1042002	WORD_OFF	n/a	n/a	SHARK	11	8	[0, 0, 0]	n/a	FR1	2	R1304N
1041.269	1.628	1043024	WORD	n/a	n/a	STREET	12	8	[0, 0, 0]	n/a	FR1	2	R1304N
1042.897	0.001	1044652	WORD_OFF	n/a	n/a	STREET	12	8	[0, 0, 0]	n/a	FR1	2	R1304N
1042.898	0.0	1044653	DISTRACT_START	n/a	n/a	n/a	-999	8	[0, 0, 0]	n/a	FR1	2	R1304N
1042.898	0.0	1044653	ENCODING_END	n/a	n/a	n/a	-999	8	[0, 0, 0]	n/a	FR1	2	R1304N
1042.898	0.016	1044653	START	n/a	n/a	n/a	-999	8	[-999, -999, -999]	n/a	FR1	2	R1304N
1042.914	18.953	1044669	PROB	18.953	n/a	n/a	-999	8	[7, 4, 2]	6	FR1	2	R1304N
1061.867	12.997	1063621	PROB	12.997	n/a	n/a	-999	8	[5, 8, 5]	6	FR1	2	R1304N
1074.864	0.005	1076617	STOP	n/a	n/a	n/a	-999	8	[-999, -999, -999]	n/a	FR1	2	R1304N
1074.869	0.663	1076622	DISTRACT_END	n/a	n/a	n/a	-999	8	[0, 0, 0]	n/a	FR1	2	R1304N
1075.532	1.704	1077285	RETRIEVAL_ORIENT_START	n/a	n/a	n/a	-999	8	[0, 0, 0]	n/a	FR1	2	R1304N
1077.236	0.0	1078989	RETRIEVAL_ORIENT_END	n/a	n/a	n/a	-999	8	[0, 0, 0]	n/a	FR1	2	R1304N
1077.236	1.563	1078989	REC_START	n/a	n/a	n/a	-999	8	[0, 0, 0]	n/a	FR1	2	R1304N
1078.799	2.045	1080552	REC_WORD	2.045	n/a	FISH	1	8	[0, 0, 0]	n/a	FR1	2	R1304N
1080.844	3.359	1082597	REC_WORD	3.359	n/a	SWORD	3	8	[0, 0, 0]	n/a	FR1	2	R1304N
1084.203	10.052	1085956	REC_WORD	10.052	n/a	SWAMP	-999	8	[0, 0, 0]	n/a	FR1	2	R1304N
1094.255	1.794	1096008	REC_WORD_VV	1.794	n/a	<>	-999	8	[0, 0, 0]	n/a	FR1	2	R1304N
1096.049	0.907	1097802	REC_WORD	0.907	n/a	SWORD	3	8	[0, 0, 0]	n/a	FR1	2	R1304N
1096.956	3.194	1098709	REC_WORD	3.194	n/a	SWAMP	-999	8	[0, 0, 0]	n/a	FR1	2	R1304N
1100.15	0.529	1101902	REC_WORD_VV	0.529	n/a	<>	-999	8	[0, 0, 0]	n/a	FR1	2	R1304N
1100.679	6.565	1102431	REC_WORD	6.565	n/a	LAKE	-999	8	[0, 0, 0]	n/a	FR1	2	R1304N
1107.244	0.0	1108996	REC_END	n/a	n/a	n/a	-999	8	[0, 0, 0]	n/a	FR1	2	R1304N
1107.244	0.016	1108996	TRIAL_END	n/a	n/a	n/a	-999	8	[0, 0, 0]	n/a	FR1	2	R1304N
1107.26	0.0	1109012	TRIAL	n/a	n/a	n/a	-999	9	[0, 0, 0]	n/a	FR1	2	R1304N
1107.26	0.0	1109012	WAITING_START	n/a	n/a	n/a	-999	9	[0, 0, 0]	n/a	FR1	2	R1304N
1107.26	4.999	1109012	TRIAL_START	n/a	n/a	n/a	-999	9	[0, 0, 0]	n/a	FR1	2	R1304N
1112.259	0.0	1114011	WAITING_END	n/a	n/a	n/a	-999	9	[0, 0, 0]	n/a	FR1	2	R1304N
1112.259	10.428	1114011	COUNTDOWN_START	n/a	n/a	n/a	-999	9	[0, 0, 0]	n/a	FR1	2	R1304N
1122.687	0.0	1124438	COUNTDOWN_END	n/a	n/a	n/a	-999	9	[0, 0, 0]	n/a	FR1	2	R1304N
1122.687	1.024	1124438	ORIENT_START	n/a	n/a	n/a	-999	9	[0, 0, 0]	n/a	FR1	2	R1304N
1123.711	0.0	1125462	ORIENT_END	n/a	n/a	n/a	-999	9	[0, 0, 0]	n/a	FR1	2	R1304N
1123.711	0.947	1125462	ENCODING_START	n/a	n/a	n/a	-999	9	[0, 0, 0]	n/a	FR1	2	R1304N
1124.658	1.636	1126409	WORD	n/a	n/a	WEED	1	9	[0, 0, 0]	n/a	FR1	2	R1304N
1126.294	0.955	1128045	WORD_OFF	n/a	n/a	WEED	1	9	[0, 0, 0]	n/a	FR1	2	R1304N
1127.249	1.629	1129000	WORD	n/a	n/a	HOUSE	2	9	[0, 0, 0]	n/a	FR1	2	R1304N
1128.878	0.964	1130629	WORD_OFF	n/a	n/a	HOUSE	2	9	[0, 0, 0]	n/a	FR1	2	R1304N
1129.842	1.638	1131593	WORD	n/a	n/a	POOL	3	9	[0, 0, 0]	n/a	FR1	2	R1304N
1131.48	0.928	1133231	WORD_OFF	n/a	n/a	POOL	3	9	[0, 0, 0]	n/a	FR1	2	R1304N
1132.408	1.621	1134159	WORD	n/a	n/a	TOY	4	9	[0, 0, 0]	n/a	FR1	2	R1304N
1134.029	0.756	1135780	WORD_OFF	n/a	n/a	TOY	4	9	[0, 0, 0]	n/a	FR1	2	R1304N
1134.785	1.629	1136536	WORD	n/a	n/a	GLOVE	5	9	[0, 0, 0]	n/a	FR1	2	R1304N
1136.414	0.754	1138165	WORD_OFF	n/a	n/a	GLOVE	5	9	[0, 0, 0]	n/a	FR1	2	R1304N
1137.168	1.628	1138919	WORD	n/a	n/a	POND	6	9	[0, 0, 0]	n/a	FR1	2	R1304N
1138.796	0.814	1140547	WORD_OFF	n/a	n/a	POND	6	9	[0, 0, 0]	n/a	FR1	2	R1304N
1139.61	1.62	1141361	WORD	n/a	n/a	PEACH	7	9	[0, 0, 0]	n/a	FR1	2	R1304N
1141.23	0.823	1142981	WORD_OFF	n/a	n/a	PEACH	7	9	[0, 0, 0]	n/a	FR1	2	R1304N
1142.053	1.628	1143804	WORD	n/a	n/a	DOOR	8	9	[0, 0, 0]	n/a	FR1	2	R1304N
1143.681	0.752	1145432	WORD_OFF	n/a	n/a	DOOR	8	9	[0, 0, 0]	n/a	FR1	2	R1304N
1144.433	1.631	1146184	WORD	n/a	n/a	SHIELD	9	9	[0, 0, 0]	n/a	FR1	2	R1304N
1146.064	0.806	1147814	WORD_OFF	n/a	n/a	SHIELD	9	9	[0, 0, 0]	n/a	FR1	2	R1304N
1146.87	1.612	1148620	WORD	n/a	n/a	CORN	10	9	[0, 0, 0]	n/a	FR1	2	R1304N
1148.482	1.133	1150232	WORD_OFF	n/a	n/a	CORN	10	9	[0, 0, 0]	n/a	FR1	2	R1304N
1149.615	1.634	1151365	WORD	n/a	n/a	FENCE	11	9	[0, 0, 0]	n/a	FR1	2	R1304N
1151.249	0.996	1152999	WORD_OFF	n/a	n/a	FENCE	11	9	[0, 0, 0]	n/a	FR1	2	R1304N
1152.245	1.621	1153995	WORD	n/a	n/a	FOOT	12	9	[0, 0, 0]	n/a	FR1	2	R1304N
1153.866	0.0	1155616	WORD_OFF	n/a	n/a	FOOT	12	9	[0, 0, 0]	n/a	FR1	2	R1304N
1153.866	0.0	1155616	ENCODING_END	n/a	n/a	n/a	-999	9	[0, 0, 0]	n/a	FR1	2	R1304N
1153.866	0.0	1155616	DISTRACT_START	n/a	n/a	n/a	-999	9	[0, 0, 0]	n/a	FR1	2	R1304N
1153.866	0.016	1155616	START	n/a	n/a	n/a	-999	9	[-999, -999, -999]	n/a	FR1	2	R1304N
1153.882	17.721	1155632	PROB	17.721	n/a	n/a	-999	9	[9, 3, 6]	7	FR1	2	R1304N
1171.603	17.756	1173352	PROB	17.756	n/a	n/a	-999	9	[6, 9, 1]	8	FR1	2	R1304N
1189.359	0.013	1191108	STOP	n/a	n/a	n/a	-999	9	[-999, -999, -999]	n/a	FR1	2	R1304N
1189.372	0.608	1191121	DISTRACT_END	n/a	n/a	n/a	-999	9	[0, 0, 0]	n/a	FR1	2	R1304N
1189.98	1.725	1191729	RETRIEVAL_ORIENT_START	n/a	n/a	n/a	-999	9	[0, 0, 0]	n/a	FR1	2	R1304N
1191.705	0.001	1193454	RETRIEVAL_ORIENT_END	n/a	n/a	n/a	-999	9	[0, 0, 0]	n/a	FR1	2	R1304N
1191.706	11.408	1193455	REC_START	n/a	n/a	n/a	-999	9	[0, 0, 0]	n/a	FR1	2	R1304N
1203.114	3.036	1204862	REC_WORD_VV	3.036	n/a	<>	-999	9	[0, 0, 0]	n/a	FR1	2	R1304N
1206.15	1.0	1207898	REC_WORD	1.0	n/a	SWAMP	-999	9	[0, 0, 0]	n/a	FR1	2	R1304N
1207.15	4.536	1208898	REC_WORD_VV	4.536	n/a	<>	-999	9	[0, 0, 0]	n/a	FR1	2	R1304N
1211.686	10.028	1213434	REC_WORD	10.028	n/a	CORN	10	9	[0, 0, 0]	n/a	FR1	2	R1304N
1221.714	0.0	1223461	REC_END	n/a	n/a	n/a	-999	9	[0, 0, 0]	n/a	FR1	2	R1304N
1221.714	0.014	1223461	TRIAL_END	n/a	n/a	n/a	-999	9	[0, 0, 0]	n/a	FR1	2	R1304N
1221.728	0.0	1223475	WAITING_START	n/a	n/a	n/a	-999	10	[0, 0, 0]	n/a	FR1	2	R1304N
1221.728	0.0	1223475	TRIAL	n/a	n/a	n/a	-999	10	[0, 0, 0]	n/a	FR1	2	R1304N
1221.728	5.483	1223475	TRIAL_START	n/a	n/a	n/a	-999	10	[0, 0, 0]	n/a	FR1	2	R1304N
1227.211	0.001	1228958	WAITING_END	n/a	n/a	n/a	-999	10	[0, 0, 0]	n/a	FR1	2	R1304N
1227.212	10.428	1228959	COUNTDOWN_START	n/a	n/a	n/a	-999	10	[0, 0, 0]	n/a	FR1	2	R1304N
1237.64	0.0	1239387	COUNTDOWN_END	n/a	n/a	n/a	-999	10	[0, 0, 0]	n/a	FR1	2	R1304N
1237.64	1.057	1239387	ORIENT_START	n/a	n/a	n/a	-999	10	[0, 0, 0]	n/a	FR1	2	R1304N
1238.697	0.0	1240444	ORIENT_END	n/a	n/a	n/a	-999	10	[0, 0, 0]	n/a	FR1	2	R1304N
1238.697	0.883	1240444	ENCODING_START	n/a	n/a	n/a	-999	10	[0, 0, 0]	n/a	FR1	2	R1304N
1239.58	1.634	1241327	WORD	n/a	n/a	RAIN	1	10	[0, 0, 0]	n/a	FR1	2	R1304N
1241.214	0.806	1242961	WORD_OFF	n/a	n/a	RAIN	1	10	[0, 0, 0]	n/a	FR1	2	R1304N
1242.02	1.612	1243766	WORD	n/a	n/a	NAIL	2	10	[0, 0, 0]	n/a	FR1	2	R1304N
1243.632	0.944	1245378	WORD_OFF	n/a	n/a	NAIL	2	10	[0, 0, 0]	n/a	FR1	2	R1304N
1244.576	1.622	1246322	WORD	n/a	n/a	FROG	3	10	[0, 0, 0]	n/a	FR1	2	R1304N
1246.198	1.046	1247944	WORD_OFF	n/a	n/a	FROG	3	10	[0, 0, 0]	n/a	FR1	2	R1304N
1247.244	1.621	1248990	WORD	n/a	n/a	DITCH	4	10	[0, 0, 0]	n/a	FR1	2	R1304N
1248.865	1.061	1250611	WORD_OFF	n/a	n/a	DITCH	4	10	[0, 0, 0]	n/a	FR1	2	R1304N
1249.926	1.624	1251672	WORD	n/a	n/a	BLUSH	5	10	[0, 0, 0]	n/a	FR1	2	R1304N
1251.55	1.044	1253296	WORD_OFF	n/a	n/a	BLUSH	5	10	[0, 0, 0]	n/a	FR1	2	R1304N
1252.594	1.622	1254340	WORD	n/a	n/a	HEART	6	10	[0, 0, 0]	n/a	FR1	2	R1304N
1254.216	1.15	1255962	WORD_OFF	n/a	n/a	HEART	6	10	[0, 0, 0]	n/a	FR1	2	R1304N
1255.366	1.634	1257112	WORD	n/a	n/a	CAR	7	10	[0, 0, 0]	n/a	FR1	2	R1304N
1257.0	0.943	1258746	WORD_OFF	n/a	n/a	CAR	7	10	[0, 0, 0]	n/a	FR1	2	R1304N
1257.943	1.608	1259689	WORD	n/a	n/a	BAG	8	10	[0, 0, 0]	n/a	FR1	2	R1304N
1259.551	1.018	1261297	WORD_OFF	n/a	n/a	BAG	8	10	[0, 0, 0]	n/a	FR1	2	R1304N
1260.569	1.631	1262315	WORD	n/a	n/a	SLEEVE	9	10	[0, 0, 0]	n/a	FR1	2	R1304N
1262.2	1.086	1263946	WORD_OFF	n/a	n/a	SLEEVE	9	10	[0, 0, 0]	n/a	FR1	2	R1304N
1263.286	1.632	1265032	WORD	n/a	n/a	BEAN	10	10	[0, 0, 0]	n/a	FR1	2	R1304N
1264.918	0.988	1266664	WORD_OFF	n/a	n/a	BEAN	10	10	[0, 0, 0]	n/a	FR1	2	R1304N
1265.906	1.613	1267651	WORD	n/a	n/a	BRIDGE	11	10	[0, 0, 0]	n/a	FR1	2	R1304N
1267.519	0.849	1269264	WORD_OFF	n/a	n/a	BRIDGE	11	10	[0, 0, 0]	n/a	FR1	2	R1304N
1268.368	1.634	1270113	WORD	n/a	n/a	WHALE	12	10	[0, 0, 0]	n/a	FR1	2	R1304N
1270.002	0.0	1271747	WORD_OFF	n/a	n/a	WHALE	12	10	[0, 0, 0]	n/a	FR1	2	R1304N
1270.002	0.0	1271747	ENCODING_END	n/a	n/a	n/a	-999	10	[0, 0, 0]	n/a	FR1	2	R1304N
1270.002	0.0	1271747	DISTRACT_START	n/a	n/a	n/a	-999	10	[0, 0, 0]	n/a	FR1	2	R1304N
1270.002	0.016	1271747	START	n/a	n/a	n/a	-999	10	[-999, -999, -999]	n/a	FR1	2	R1304N
1270.018	14.869	1271763	PROB	14.869	n/a	n/a	-999	10	[1, 4, 8]	9	FR1	2	R1304N
1284.887	2.851	1286632	PROB	2.851	n/a	n/a	-999	10	[1, 5, 7]	6	FR1	2	R1304N
1287.738	18.325	1289483	PROB	18.325	n/a	n/a	-999	10	[1, 4, 5]	9	FR1	2	R1304N
1306.063	0.011	1307807	STOP	n/a	n/a	n/a	-999	10	[-999, -999, -999]	n/a	FR1	2	R1304N
1306.074	0.587	1307818	DISTRACT_END	n/a	n/a	n/a	-999	10	[0, 0, 0]	n/a	FR1	2	R1304N
1306.661	1.614	1308405	RETRIEVAL_ORIENT_START	n/a	n/a	n/a	-999	10	[0, 0, 0]	n/a	FR1	2	R1304N
1308.275	0.0	1310019	REC_START	n/a	n/a	n/a	-999	10	[0, 0, 0]	n/a	FR1	2	R1304N
1308.275	6.759	1310019	RETRIEVAL_ORIENT_END	n/a	n/a	n/a	-999	10	[0, 0, 0]	n/a	FR1	2	R1304N
1315.034	6.617	1316777	REC_WORD	6.617	n/a	RAIN	1	10	[0, 0, 0]	n/a	FR1	2	R1304N
1321.651	5.752	1323394	REC_WORD_VV	5.752	n/a	<>	-999	10	[0, 0, 0]	n/a	FR1	2	R1304N
1327.403	7.95	1329146	REC_WORD	7.95	n/a	FROG	3	10	[0, 0, 0]	n/a	FR1	2	R1304N
1335.353	2.931	1337096	REC_WORD	2.931	n/a	FISH	-999	10	[0, 0, 0]	n/a	FR1	2	R1304N
1338.284	0.0	1340026	REC_END	n/a	n/a	n/a	-999	10	[0, 0, 0]	n/a	FR1	2	R1304N
1338.284	0.014	1340026	TRIAL_END	n/a	n/a	n/a	-999	10	[0, 0, 0]	n/a	FR1	2	R1304N
1338.298	0.0	1340040	TRIAL	n/a	n/a	n/a	-999	11	[0, 0, 0]	n/a	FR1	2	R1304N
1338.298	0.0	1340040	WAITING_START	n/a	n/a	n/a	-999	11	[0, 0, 0]	n/a	FR1	2	R1304N
1338.298	22.936	1340040	TRIAL_START	n/a	n/a	n/a	-999	11	[0, 0, 0]	n/a	FR1	2	R1304N
1361.234	0.0	1362976	WAITING_END	n/a	n/a	n/a	-999	11	[0, 0, 0]	n/a	FR1	2	R1304N
1361.234	10.428	1362976	COUNTDOWN_START	n/a	n/a	n/a	-999	11	[0, 0, 0]	n/a	FR1	2	R1304N
1371.662	0.0	1373403	COUNTDOWN_END	n/a	n/a	n/a	-999	11	[0, 0, 0]	n/a	FR1	2	R1304N
1371.662	1.023	1373403	ORIENT_START	n/a	n/a	n/a	-999	11	[0, 0, 0]	n/a	FR1	2	R1304N
1372.685	0.001	1374426	ORIENT_END	n/a	n/a	n/a	-999	11	[0, 0, 0]	n/a	FR1	2	R1304N
1372.686	0.779	1374427	ENCODING_START	n/a	n/a	n/a	-999	11	[0, 0, 0]	n/a	FR1	2	R1304N
1373.465	1.621	1375206	WORD	n/a	n/a	BROOM	1	11	[0, 0, 0]	n/a	FR1	2	R1304N
1375.086	0.837	1376827	WORD_OFF	n/a	n/a	BROOM	1	11	[0, 0, 0]	n/a	FR1	2	R1304N
1375.923	1.631	1377664	WORD	n/a	n/a	SPARK	2	11	[0, 0, 0]	n/a	FR1	2	R1304N
1377.554	0.752	1379295	WORD_OFF	n/a	n/a	SPARK	2	11	[0, 0, 0]	n/a	FR1	2	R1304N
1378.306	1.631	1380047	WORD	n/a	n/a	PIG	3	11	[0, 0, 0]	n/a	FR1	2	R1304N
1379.937	1.133	1381678	WORD_OFF	n/a	n/a	PIG	3	11	[0, 0, 0]	n/a	FR1	2	R1304N
1381.07	1.634	1382811	WORD	n/a	n/a	SCHOOL	4	11	[0, 0, 0]	n/a	FR1	2	R1304N
1382.704	0.924	1384445	WORD_OFF	n/a	n/a	SCHOOL	4	11	[0, 0, 0]	n/a	FR1	2	R1304N
1383.628	1.626	1385369	WORD	n/a	n/a	SEAT	5	11	[0, 0, 0]	n/a	FR1	2	R1304N
1385.254	0.886	1386995	WORD_OFF	n/a	n/a	SEAT	5	11	[0, 0, 0]	n/a	FR1	2	R1304N
1386.14	1.631	1387880	WORD	n/a	n/a	CONE	6	11	[0, 0, 0]	n/a	FR1	2	R1304N
1387.771	0.841	1389511	WORD_OFF	n/a	n/a	CONE	6	11	[0, 0, 0]	n/a	FR1	2	R1304N
1388.612	1.626	1390352	WORD	n/a	n/a	WALL	7	11	[0, 0, 0]	n/a	FR1	2	R1304N
1390.238	1.009	1391978	WORD_OFF	n/a	n/a	WALL	7	11	[0, 0, 0]	n/a	FR1	2	R1304N
1391.247	1.625	1392987	WORD	n/a	n/a	CHIEF	8	11	[0, 0, 0]	n/a	FR1	2	R1304N
1392.872	1.087	1394612	WORD_OFF	n/a	n/a	CHIEF	8	11	[0, 0, 0]	n/a	FR1	2	R1304N
1393.959	1.631	1395699	WORD	n/a	n/a	NEST	9	11	[0, 0, 0]	n/a	FR1	2	R1304N
1395.59	1.062	1397330	WORD_OFF	n/a	n/a	NEST	9	11	[0, 0, 0]	n/a	FR1	2	R1304N
1396.652	1.621	1398392	WORD	n/a	n/a	WAVE	10	11	[0, 0, 0]	n/a	FR1	2	R1304N
1398.273	1.069	1400013	WORD_OFF	n/a	n/a	WAVE	10	11	[0, 0, 0]	n/a	FR1	2	R1304N
1399.342	1.632	1401082	WORD	n/a	n/a	CHALK	11	11	[0, 0, 0]	n/a	FR1	2	R1304N
1400.974	1.139	1402714	WORD_OFF	n/a	n/a	CHALK	11	11	[0, 0, 0]	n/a	FR1	2	R1304N
1402.113	1.628	1403853	WORD	n/a	n/a	WOOD	12	11	[0, 0, 0]	n/a	FR1	2	R1304N
1403.741	0.0	1405481	WORD_OFF	n/a	n/a	WOOD	12	11	[0, 0, 0]	n/a	FR1	2	R1304N
1403.741	0.0	1405481	ENCODING_END	n/a	n/a	n/a	-999	11	[0, 0, 0]	n/a	FR1	2	R1304N
1403.741	0.0	1405481	DISTRACT_START	n/a	n/a	n/a	-999	11	[0, 0, 0]	n/a	FR1	2	R1304N
1403.741	0.016	1405481	START	n/a	n/a	n/a	-999	11	[-999, -999, -999]	n/a	FR1	2	R1304N
1403.757	23.796	1405497	PROB	23.796	n/a	n/a	-999	11	[8, 3, 9]	6	FR1	2	R1304N
1427.553	0.009	1429292	STOP	n/a	n/a	n/a	-999	11	[-999, -999, -999]	n/a	FR1	2	R1304N
1427.562	0.501	1429301	DISTRACT_END	n/a	n/a	n/a	-999	11	[0, 0, 0]	n/a	FR1	2	R1304N
1428.063	1.632	1429802	RETRIEVAL_ORIENT_START	n/a	n/a	n/a	-999	11	[0, 0, 0]	n/a	FR1	2	R1304N
1429.695	0.0	1431434	REC_START	n/a	n/a	n/a	-999	11	[0, 0, 0]	n/a	FR1	2	R1304N
1429.695	7.964	1431434	RETRIEVAL_ORIENT_END	n/a	n/a	n/a	-999	11	[0, 0, 0]	n/a	FR1	2	R1304N
1437.659	1.728	1439397	REC_WORD	1.728	n/a	FOG	-999	11	[0, 0, 0]	n/a	FR1	2	R1304N
1439.387	6.805	1441125	REC_WORD	6.805	n/a	CHALK	11	11	[0, 0, 0]	n/a	FR1	2	R1304N
1446.192	0.38	1447930	REC_WORD_VV	0.38	n/a	<>	-999	11	[0, 0, 0]	n/a	FR1	2	R1304N
1446.572	7.953	1448310	REC_WORD	7.953	n/a	WALL	7	11	[0, 0, 0]	n/a	FR1	2	R1304N
1454.525	5.18	1456263	REC_WORD	5.18	n/a	CHALK	11	11	[0, 0, 0]	n/a	FR1	2	R1304N
1459.705	0.0	1461442	REC_END	n/a	n/a	n/a	-999	11	[0, 0, 0]	n/a	FR1	2	R1304N
1459.705	0.014	1461442	TRIAL_END	n/a	n/a	n/a	-999	11	[0, 0, 0]	n/a	FR1	2	R1304N
1459.719	0.0	1461456	TRIAL_START	n/a	n/a	n/a	-999	12	[0, 0, 0]	n/a	FR1	2	R1304N
1459.719	0.0	1461456	TRIAL	n/a	n/a	n/a	-999	12	[0, 0, 0]	n/a	FR1	2	R1304N
1459.719	5.182	1461456	WAITING_START	n/a	n/a	n/a	-999	12	[0, 0, 0]	n/a	FR1	2	R1304N
1464.901	0.0	1466638	WAITING_END	n/a	n/a	n/a	-999	12	[0, 0, 0]	n/a	FR1	2	R1304N
1464.901	10.429	1466638	COUNTDOWN_START	n/a	n/a	n/a	-999	12	[0, 0, 0]	n/a	FR1	2	R1304N
1475.33	0.001	1477067	COUNTDOWN_END	n/a	n/a	n/a	-999	12	[0, 0, 0]	n/a	FR1	2	R1304N
1475.331	1.206	1477068	ORIENT_START	n/a	n/a	n/a	-999	12	[0, 0, 0]	n/a	FR1	2	R1304N
1476.537	0.0	1478274	ORIENT_END	n/a	n/a	n/a	-999	12	[0, 0, 0]	n/a	FR1	2	R1304N
1476.537	1.064	1478274	ENCODING_START	n/a	n/a	n/a	-999	12	[0, 0, 0]	n/a	FR1	2	R1304N
1477.601	1.636	1479338	WORD	n/a	n/a	CASH	1	12	[0, 0, 0]	n/a	FR1	2	R1304N
1479.237	0.977	1480974	WORD_OFF	n/a	n/a	CASH	1	12	[0, 0, 0]	n/a	FR1	2	R1304N
1480.214	1.623	1481951	WORD	n/a	n/a	PEAR	2	12	[0, 0, 0]	n/a	FR1	2	R1304N
1481.837	0.895	1483574	WORD_OFF	n/a	n/a	PEAR	2	12	[0, 0, 0]	n/a	FR1	2	R1304N
1482.732	1.622	1484468	WORD	n/a	n/a	BIRD	3	12	[0, 0, 0]	n/a	FR1	2	R1304N
1484.354	1.055	1486090	WORD_OFF	n/a	n/a	BIRD	3	12	[0, 0, 0]	n/a	FR1	2	R1304N
1485.409	1.629	1487145	WORD	n/a	n/a	FAN	4	12	[0, 0, 0]	n/a	FR1	2	R1304N
1487.038	0.939	1488774	WORD_OFF	n/a	n/a	FAN	4	12	[0, 0, 0]	n/a	FR1	2	R1304N
1487.977	1.629	1489713	WORD	n/a	n/a	LAMP	5	12	[0, 0, 0]	n/a	FR1	2	R1304N
1489.606	0.838	1491342	WORD_OFF	n/a	n/a	LAMP	5	12	[0, 0, 0]	n/a	FR1	2	R1304N
1490.444	1.628	1492180	WORD	n/a	n/a	SPEAR	6	12	[0, 0, 0]	n/a	FR1	2	R1304N
1492.072	0.928	1493808	WORD_OFF	n/a	n/a	SPEAR	6	12	[0, 0, 0]	n/a	FR1	2	R1304N
1493.0	1.607	1494736	WORD	n/a	n/a	MOOSE	7	12	[0, 0, 0]	n/a	FR1	2	R1304N
1494.607	0.843	1496343	WORD_OFF	n/a	n/a	MOOSE	7	12	[0, 0, 0]	n/a	FR1	2	R1304N
1495.45	1.623	1497186	WORD	n/a	n/a	SEA	8	12	[0, 0, 0]	n/a	FR1	2	R1304N
1497.073	1.044	1498809	WORD_OFF	n/a	n/a	SEA	8	12	[0, 0, 0]	n/a	FR1	2	R1304N
1498.117	1.623	1499853	WORD	n/a	n/a	BANK	9	12	[0, 0, 0]	n/a	FR1	2	R1304N
1499.74	0.832	1501476	WORD_OFF	n/a	n/a	BANK	9	12	[0, 0, 0]	n/a	FR1	2	R1304N
1500.572	1.635	1502308	WORD	n/a	n/a	FLEA	10	12	[0, 0, 0]	n/a	FR1	2	R1304N
1502.207	1.026	1503943	WORD_OFF	n/a	n/a	FLEA	10	12	[0, 0, 0]	n/a	FR1	2	R1304N
1503.233	1.608	1504969	WORD	n/a	n/a	DRESS	11	12	[0, 0, 0]	n/a	FR1	2	R1304N
1504.841	1.052	1506577	WORD_OFF	n/a	n/a	DRESS	11	12	[0, 0, 0]	n/a	FR1	2	R1304N
1505.893	1.633	1507629	WORD	n/a	n/a	STEAM	12	12	[0, 0, 0]	n/a	FR1	2	R1304N
1507.526	0.0	1509261	WORD_OFF	n/a	n/a	STEAM	12	12	[0, 0, 0]	n/a	FR1	2	R1304N
1507.526	0.0	1509261	ENCODING_END	n/a	n/a	n/a	-999	12	[0, 0, 0]	n/a	FR1	2	R1304N
1507.526	0.0	1509261	DISTRACT_START	n/a	n/a	n/a	-999	12	[0, 0, 0]	n/a	FR1	2	R1304N
1507.526	0.016	1509261	START	n/a	n/a	n/a	-999	12	[-999, -999, -999]	n/a	FR1	2	R1304N
1507.542	14.936	1509277	PROB	14.936	n/a	n/a	-999	12	[7, 7, 2]	6	FR1	2	R1304N
1522.478	20.417	1524213	PROB	20.417	n/a	n/a	-999	12	[3, 5, 6]	7	FR1	2	R1304N
1542.895	0.019	1544629	STOP	n/a	n/a	n/a	-999	12	[-999, -999, -999]	n/a	FR1	2	R1304N
1542.914	0.625	1544648	DISTRACT_END	n/a	n/a	n/a	-999	12	[0, 0, 0]	n/a	FR1	2	R1304N
1543.539	1.675	1545273	RETRIEVAL_ORIENT_START	n/a	n/a	n/a	-999	12	[0, 0, 0]	n/a	FR1	2	R1304N
1545.214	0.0	1546948	RETRIEVAL_ORIENT_END	n/a	n/a	n/a	-999	12	[0, 0, 0]	n/a	FR1	2	R1304N
1545.214	12.618	1546948	REC_START	n/a	n/a	n/a	-999	12	[0, 0, 0]	n/a	FR1	2	R1304N
1557.832	13.242	1559565	REC_WORD	13.242	n/a	SPEAR	6	12	[0, 0, 0]	n/a	FR1	2	R1304N
1571.074	2.478	1572807	REC_WORD_VV	2.478	n/a	<>	-999	12	[0, 0, 0]	n/a	FR1	2	R1304N
1573.552	1.67	1575285	REC_WORD_VV	1.67	n/a	<>	-999	12	[0, 0, 0]	n/a	FR1	2	R1304N
1575.222	0.001	1576955	REC_END	n/a	n/a	n/a	-999	12	[0, 0, 0]	n/a	FR1	2	R1304N
1575.223	0.013	1576956	TRIAL_END	n/a	n/a	n/a	-999	12	[0, 0, 0]	n/a	FR1	2	R1304N
1575.236	0.001	1576969	TRIAL_START	n/a	n/a	n/a	-999	13	[0, 0, 0]	n/a	FR1	2	R1304N
1575.237	0.0	1576970	WAITING_START	n/a	n/a	n/a	-999	13	[0, 0, 0]	n/a	FR1	2	R1304N
1575.237	6.0	1576970	TRIAL	n/a	n/a	n/a	-999	13	[0, 0, 0]	n/a	FR1	2	R1304N
1581.237	0.0	1582969	WAITING_END	n/a	n/a	n/a	-999	13	[0, 0, 0]	n/a	FR1	2	R1304N
1581.237	10.429	1582969	COUNTDOWN_START	n/a	n/a	n/a	-999	13	[0, 0, 0]	n/a	FR1	2	R1304N
1591.666	0.0	1593398	COUNTDOWN_END	n/a	n/a	n/a	-999	13	[0, 0, 0]	n/a	FR1	2	R1304N
1591.666	1.256	1593398	ORIENT_START	n/a	n/a	n/a	-999	13	[0, 0, 0]	n/a	FR1	2	R1304N
1592.922	0.001	1594654	ORIENT_END	n/a	n/a	n/a	-999	13	[0, 0, 0]	n/a	FR1	2	R1304N
1592.923	0.768	1594655	ENCODING_START	n/a	n/a	n/a	-999	13	[0, 0, 0]	n/a	FR1	2	R1304N
1593.691	1.632	1595423	WORD	n/a	n/a	MOUTH	1	13	[0, 0, 0]	n/a	FR1	2	R1304N
1595.323	1.006	1597055	WORD_OFF	n/a	n/a	MOUTH	1	13	[0, 0, 0]	n/a	FR1	2	R1304N
1596.329	1.627	1598061	WORD	n/a	n/a	TENT	2	13	[0, 0, 0]	n/a	FR1	2	R1304N
1597.956	0.896	1599688	WORD_OFF	n/a	n/a	TENT	2	13	[0, 0, 0]	n/a	FR1	2	R1304N
1598.852	1.606	1600584	WORD	n/a	n/a	SIGN	3	13	[0, 0, 0]	n/a	FR1	2	R1304N
1600.458	0.825	1602190	WORD_OFF	n/a	n/a	SIGN	3	13	[0, 0, 0]	n/a	FR1	2	R1304N
1601.283	1.624	1603015	WORD	n/a	n/a	COW	4	13	[0, 0, 0]	n/a	FR1	2	R1304N
1602.907	1.122	1604638	WORD_OFF	n/a	n/a	COW	4	13	[0, 0, 0]	n/a	FR1	2	R1304N
1604.029	1.629	1605760	WORD	n/a	n/a	LEG	5	13	[0, 0, 0]	n/a	FR1	2	R1304N
1605.658	1.135	1607389	WORD_OFF	n/a	n/a	LEG	5	13	[0, 0, 0]	n/a	FR1	2	R1304N
1606.793	1.633	1608524	WORD	n/a	n/a	ROSE	6	13	[0, 0, 0]	n/a	FR1	2	R1304N
1608.426	1.051	1610157	WORD_OFF	n/a	n/a	ROSE	6	13	[0, 0, 0]	n/a	FR1	2	R1304N
1609.477	1.632	1611208	WORD	n/a	n/a	BOOK	7	13	[0, 0, 0]	n/a	FR1	2	R1304N
1611.109	0.849	1612840	WORD_OFF	n/a	n/a	BOOK	7	13	[0, 0, 0]	n/a	FR1	2	R1304N
1611.958	1.619	1613689	WORD	n/a	n/a	ROCK	8	13	[0, 0, 0]	n/a	FR1	2	R1304N
1613.577	0.773	1615308	WORD_OFF	n/a	n/a	ROCK	8	13	[0, 0, 0]	n/a	FR1	2	R1304N
1614.35	1.626	1616081	WORD	n/a	n/a	HORSE	9	13	[0, 0, 0]	n/a	FR1	2	R1304N
1615.976	0.863	1617707	WORD_OFF	n/a	n/a	HORSE	9	13	[0, 0, 0]	n/a	FR1	2	R1304N
1616.839	1.622	1618570	WORD	n/a	n/a	SEED	10	13	[0, 0, 0]	n/a	FR1	2	R1304N
1618.461	0.993	1620192	WORD_OFF	n/a	n/a	SEED	10	13	[0, 0, 0]	n/a	FR1	2	R1304N
1619.454	1.623	1621185	WORD	n/a	n/a	BATH	11	13	[0, 0, 0]	n/a	FR1	2	R1304N
1621.077	0.832	1622808	WORD_OFF	n/a	n/a	BATH	11	13	[0, 0, 0]	n/a	FR1	2	R1304N
1621.909	1.636	1623640	WORD	n/a	n/a	DEER	12	13	[0, 0, 0]	n/a	FR1	2	R1304N
1623.545	0.0	1625276	WORD_OFF	n/a	n/a	DEER	12	13	[0, 0, 0]	n/a	FR1	2	R1304N
1623.545	0.001	1625276	ENCODING_END	n/a	n/a	n/a	-999	13	[0, 0, 0]	n/a	FR1	2	R1304N
1623.546	0.0	1625277	DISTRACT_START	n/a	n/a	n/a	-999	13	[0, 0, 0]	n/a	FR1	2	R1304N
1623.546	0.016	1625277	START	n/a	n/a	n/a	-999	13	[-999, -999, -999]	n/a	FR1	2	R1304N
1623.562	11.417	1625293	PROB	11.417	n/a	n/a	-999	13	[5, 5, 1]	6	FR1	2	R1304N
1634.979	8.251	1636709	PROB	8.251	n/a	n/a	-999	13	[8, 2, 2]	4	FR1	2	R1304N
1643.23	5.379	1644960	PROB	5.379	n/a	n/a	-999	13	[3, 2, 1]	3	FR1	2	R1304N
1648.609	0.007	1650339	STOP	n/a	n/a	n/a	-999	13	[-999, -999, -999]	n/a	FR1	2	R1304N
1648.616	0.572	1650346	DISTRACT_END	n/a	n/a	n/a	-999	13	[0, 0, 0]	n/a	FR1	2	R1304N
1649.188	1.577	1650918	RETRIEVAL_ORIENT_START	n/a	n/a	n/a	-999	13	[0, 0, 0]	n/a	FR1	2	R1304N
1650.765	0.0	1652494	REC_START	n/a	n/a	n/a	-999	13	[0, 0, 0]	n/a	FR1	2	R1304N
1650.765	1.886	1652494	RETRIEVAL_ORIENT_END	n/a	n/a	n/a	-999	13	[0, 0, 0]	n/a	FR1	2	R1304N
1652.651	28.108	1654380	REC_WORD	28.108	n/a	BATH	11	13	[0, 0, 0]	n/a	FR1	2	R1304N
1680.759	0.015	1682487	REC_WORD_VV	0.015	n/a	<>	-999	13	[0, 0, 0]	n/a	FR1	2	R1304N
1680.774	0.0	1682502	REC_END	n/a	n/a	n/a	-999	13	[0, 0, 0]	n/a	FR1	2	R1304N
1680.774	0.014	1682502	TRIAL_END	n/a	n/a	n/a	-999	13	[0, 0, 0]	n/a	FR1	2	R1304N
1680.788	0.0	1682516	TRIAL_START	n/a	n/a	n/a	-999	14	[0, 0, 0]	n/a	FR1	2	R1304N
1680.788	0.0	1682516	TRIAL	n/a	n/a	n/a	-999	14	[0, 0, 0]	n/a	FR1	2	R1304N
1680.788	7.3	1682516	WAITING_START	n/a	n/a	n/a	-999	14	[0, 0, 0]	n/a	FR1	2	R1304N
1688.088	0.0	1689816	WAITING_END	n/a	n/a	n/a	-999	14	[0, 0, 0]	n/a	FR1	2	R1304N
1688.088	10.429	1689816	COUNTDOWN_START	n/a	n/a	n/a	-999	14	[0, 0, 0]	n/a	FR1	2	R1304N
1698.517	0.0	1700244	COUNTDOWN_END	n/a	n/a	n/a	-999	14	[0, 0, 0]	n/a	FR1	2	R1304N
1698.517	1.074	1700244	ORIENT_START	n/a	n/a	n/a	-999	14	[0, 0, 0]	n/a	FR1	2	R1304N
1699.591	0.0	1701318	ORIENT_END	n/a	n/a	n/a	-999	14	[0, 0, 0]	n/a	FR1	2	R1304N
1699.591	0.955	1701318	ENCODING_START	n/a	n/a	n/a	-999	14	[0, 0, 0]	n/a	FR1	2	R1304N
1700.546	1.628	1702273	WORD	n/a	n/a	DUCK	1	14	[0, 0, 0]	n/a	FR1	2	R1304N
1702.174	0.816	1703901	WORD_OFF	n/a	n/a	DUCK	1	14	[0, 0, 0]	n/a	FR1	2	R1304N
1702.99	1.618	1704717	WORD	n/a	n/a	EAR	2	14	[0, 0, 0]	n/a	FR1	2	R1304N
1704.608	1.129	1706335	WORD_OFF	n/a	n/a	EAR	2	14	[0, 0, 0]	n/a	FR1	2	R1304N
1705.737	1.638	1707464	WORD	n/a	n/a	SHEEP	3	14	[0, 0, 0]	n/a	FR1	2	R1304N
1707.375	1.124	1709102	WORD_OFF	n/a	n/a	SHEEP	3	14	[0, 0, 0]	n/a	FR1	2	R1304N
1708.499	1.626	1710226	WORD	n/a	n/a	STOVE	4	14	[0, 0, 0]	n/a	FR1	2	R1304N
1710.125	0.754	1711852	WORD_OFF	n/a	n/a	STOVE	4	14	[0, 0, 0]	n/a	FR1	2	R1304N
1710.879	1.63	1712606	WORD	n/a	n/a	BOARD	5	14	[0, 0, 0]	n/a	FR1	2	R1304N
1712.509	1.0	1714236	WORD_OFF	n/a	n/a	BOARD	5	14	[0, 0, 0]	n/a	FR1	2	R1304N
1713.509	1.634	1715236	WORD	n/a	n/a	HOLE	6	14	[0, 0, 0]	n/a	FR1	2	R1304N
1715.143	0.849	1716870	WORD_OFF	n/a	n/a	HOLE	6	14	[0, 0, 0]	n/a	FR1	2	R1304N
1715.992	1.635	1717719	WORD	n/a	n/a	RAT	7	14	[0, 0, 0]	n/a	FR1	2	R1304N
1717.627	1.101	1719354	WORD_OFF	n/a	n/a	RAT	7	14	[0, 0, 0]	n/a	FR1	2	R1304N
1718.728	1.632	1720455	WORD	n/a	n/a	FILM	8	14	[0, 0, 0]	n/a	FR1	2	R1304N
1720.36	1.053	1722087	WORD_OFF	n/a	n/a	FILM	8	14	[0, 0, 0]	n/a	FR1	2	R1304N
1721.413	1.631	1723140	WORD	n/a	n/a	VAN	9	14	[0, 0, 0]	n/a	FR1	2	R1304N
1723.044	1.049	1724770	WORD_OFF	n/a	n/a	VAN	9	14	[0, 0, 0]	n/a	FR1	2	R1304N
1724.093	1.635	1725819	WORD	n/a	n/a	BOWL	10	14	[0, 0, 0]	n/a	FR1	2	R1304N
1725.728	0.82	1727454	WORD_OFF	n/a	n/a	BOWL	10	14	[0, 0, 0]	n/a	FR1	2	R1304N
1726.548	1.63	1728274	WORD	n/a	n/a	CROW	11	14	[0, 0, 0]	n/a	FR1	2	R1304N
1728.178	0.963	1729904	WORD_OFF	n/a	n/a	CROW	11	14	[0, 0, 0]	n/a	FR1	2	R1304N
1729.141	1.621	1730867	WORD	n/a	n/a	PURSE	12	14	[0, 0, 0]	n/a	FR1	2	R1304N
1730.762	0.0	1732488	WORD_OFF	n/a	n/a	PURSE	12	14	[0, 0, 0]	n/a	FR1	2	R1304N
1730.762	0.0	1732488	ENCODING_END	n/a	n/a	n/a	-999	14	[0, 0, 0]	n/a	FR1	2	R1304N
1730.762	0.001	1732488	DISTRACT_START	n/a	n/a	n/a	-999	14	[0, 0, 0]	n/a	FR1	2	R1304N
1730.763	0.015	1732489	START	n/a	n/a	n/a	-999	14	[-999, -999, -999]	n/a	FR1	2	R1304N
1730.778	32.502	1732504	PROB	32.502	n/a	n/a	-999	14	[6, 3, 4]	7	FR1	2	R1304N
1763.28	0.021	1765005	STOP	n/a	n/a	n/a	-999	14	[-999, -999, -999]	n/a	FR1	2	R1304N
1763.301	0.512	1765026	DISTRACT_END	n/a	n/a	n/a	-999	14	[0, 0, 0]	n/a	FR1	2	R1304N
1763.813	1.689	1765538	RETRIEVAL_ORIENT_START	n/a	n/a	n/a	-999	14	[0, 0, 0]	n/a	FR1	2	R1304N
1765.502	0.0	1767227	RETRIEVAL_ORIENT_END	n/a	n/a	n/a	-999	14	[0, 0, 0]	n/a	FR1	2	R1304N
1765.502	10.914	1767227	REC_START	n/a	n/a	n/a	-999	14	[0, 0, 0]	n/a	FR1	2	R1304N
1776.416	19.095	1778140	REC_WORD	19.095	n/a	FOOT	-999	14	[0, 0, 0]	n/a	FR1	2	R1304N
1795.511	0.0	1797234	TRIAL_END	n/a	n/a	n/a	-999	14	[0, 0, 0]	n/a	FR1	2	R1304N
1795.511	0.014	1797234	REC_END	n/a	n/a	n/a	-999	14	[0, 0, 0]	n/a	FR1	2	R1304N
1795.525	0.0	1797248	TRIAL_START	n/a	n/a	n/a	-999	15	[0, 0, 0]	n/a	FR1	2	R1304N
1795.525	0.0	1797248	TRIAL	n/a	n/a	n/a	-999	15	[0, 0, 0]	n/a	FR1	2	R1304N
1795.525	6.682	1797248	WAITING_START	n/a	n/a	n/a	-999	15	[0, 0, 0]	n/a	FR1	2	R1304N
1802.207	0.0	1803930	WAITING_END	n/a	n/a	n/a	-999	15	[0, 0, 0]	n/a	FR1	2	R1304N
1802.207	10.429	1803930	COUNTDOWN_START	n/a	n/a	n/a	-999	15	[0, 0, 0]	n/a	FR1	2	R1304N
1812.636	0.001	1814359	COUNTDOWN_END	n/a	n/a	n/a	-999	15	[0, 0, 0]	n/a	FR1	2	R1304N
1812.637	1.122	1814360	ORIENT_START	n/a	n/a	n/a	-999	15	[0, 0, 0]	n/a	FR1	2	R1304N
1813.759	0.0	1815482	ENCODING_START	n/a	n/a	n/a	-999	15	[0, 0, 0]	n/a	FR1	2	R1304N
1813.759	0.824	1815482	ORIENT_END	n/a	n/a	n/a	-999	15	[0, 0, 0]	n/a	FR1	2	R1304N
1814.583	1.626	1816306	WORD	n/a	n/a	OWL	1	15	[0, 0, 0]	n/a	FR1	2	R1304N
1816.209	0.92	1817932	WORD_OFF	n/a	n/a	OWL	1	15	[0, 0, 0]	n/a	FR1	2	R1304N
1817.129	1.631	1818852	WORD	n/a	n/a	COIN	2	15	[0, 0, 0]	n/a	FR1	2	R1304N
1818.76	1.056	1820482	WORD_OFF	n/a	n/a	COIN	2	15	[0, 0, 0]	n/a	FR1	2	R1304N
1819.816	1.629	1821538	WORD	n/a	n/a	YARD	3	15	[0, 0, 0]	n/a	FR1	2	R1304N
1821.445	0.956	1823167	WORD_OFF	n/a	n/a	YARD	3	15	[0, 0, 0]	n/a	FR1	2	R1304N
1822.401	1.626	1824123	WORD	n/a	n/a	CAKE	4	15	[0, 0, 0]	n/a	FR1	2	R1304N
1824.027	1.075	1825749	WORD_OFF	n/a	n/a	CAKE	4	15	[0, 0, 0]	n/a	FR1	2	R1304N
1825.102	1.626	1826824	WORD	n/a	n/a	SQUARE	5	15	[0, 0, 0]	n/a	FR1	2	R1304N
1826.728	1.013	1828450	WORD_OFF	n/a	n/a	SQUARE	5	15	[0, 0, 0]	n/a	FR1	2	R1304N
1827.741	1.621	1829463	WORD	n/a	n/a	ROOT	6	15	[0, 0, 0]	n/a	FR1	2	R1304N
1829.362	1.021	1831084	WORD_OFF	n/a	n/a	ROOT	6	15	[0, 0, 0]	n/a	FR1	2	R1304N
1830.383	1.629	1832105	WORD	n/a	n/a	TOE	7	15	[0, 0, 0]	n/a	FR1	2	R1304N
1832.012	0.789	1833734	WORD_OFF	n/a	n/a	TOE	7	15	[0, 0, 0]	n/a	FR1	2	R1304N
1832.801	1.629	1834523	WORD	n/a	n/a	TOAST	8	15	[0, 0, 0]	n/a	FR1	2	R1304N
1834.43	1.056	1836152	WORD_OFF	n/a	n/a	TOAST	8	15	[0, 0, 0]	n/a	FR1	2	R1304N
1835.486	1.627	1837208	WORD	n/a	n/a	BEAR	9	15	[0, 0, 0]	n/a	FR1	2	R1304N
1837.113	0.901	1838835	WORD_OFF	n/a	n/a	BEAR	9	15	[0, 0, 0]	n/a	FR1	2	R1304N
1838.014	1.633	1839736	WORD	n/a	n/a	BOAT	10	15	[0, 0, 0]	n/a	FR1	2	R1304N
1839.647	0.75	1841369	WORD_OFF	n/a	n/a	BOAT	10	15	[0, 0, 0]	n/a	FR1	2	R1304N
1840.397	1.633	1842119	WORD	n/a	n/a	DOG	11	15	[0, 0, 0]	n/a	FR1	2	R1304N
1842.03	1.107	1843752	WORD_OFF	n/a	n/a	DOG	11	15	[0, 0, 0]	n/a	FR1	2	R1304N
1843.137	1.627	1844858	WORD	n/a	n/a	PEA	12	15	[0, 0, 0]	n/a	FR1	2	R1304N
1844.764	0.0	1846485	WORD_OFF	n/a	n/a	PEA	12	15	[0, 0, 0]	n/a	FR1	2	R1304N
1844.764	0.001	1846485	ENCODING_END	n/a	n/a	n/a	-999	15	[0, 0, 0]	n/a	FR1	2	R1304N
1844.765	0.0	1846486	DISTRACT_START	n/a	n/a	n/a	-999	15	[0, 0, 0]	n/a	FR1	2	R1304N
1844.765	0.016	1846486	START	n/a	n/a	n/a	-999	15	[-999, -999, -999]	n/a	FR1	2	R1304N
1844.781	15.72	1846502	PROB	15.72	n/a	n/a	-999	15	[2, 5, 7]	8	FR1	2	R1304N
1860.501	3.866	1862222	PROB	3.866	n/a	n/a	-999	15	[4, 7, 2]	6	FR1	2	R1304N
1864.367	19.497	1866088	PROB	19.497	n/a	n/a	-999	15	[2, 6, 9]	7	FR1	2	R1304N
1883.864	0.007	1885584	STOP	n/a	n/a	n/a	-999	15	[-999, -999, -999]	n/a	FR1	2	R1304N
1883.871	0.611	1885591	DISTRACT_END	n/a	n/a	n/a	-999	15	[0, 0, 0]	n/a	FR1	2	R1304N
1884.482	1.539	1886202	RETRIEVAL_ORIENT_START	n/a	n/a	n/a	-999	15	[0, 0, 0]	n/a	FR1	2	R1304N
1886.021	0.0	1887741	RETRIEVAL_ORIENT_END	n/a	n/a	n/a	-999	15	[0, 0, 0]	n/a	FR1	2	R1304N
1886.021	9.617	1887741	REC_START	n/a	n/a	n/a	-999	15	[0, 0, 0]	n/a	FR1	2	R1304N
1895.638	15.386	1897357	REC_WORD	15.386	n/a	DUCK	-999	15	[0, 0, 0]	n/a	FR1	2	R1304N
1911.024	0.28	1912743	REC_WORD_VV	0.28	n/a	<>	-999	15	[0, 0, 0]	n/a	FR1	2	R1304N
1911.304	4.726	1913023	REC_WORD	4.726	n/a	BEAR	9	15	[0, 0, 0]	n/a	FR1	2	R1304N
1916.03	0.0	1917748	TRIAL_END	n/a	n/a	n/a	-999	15	[0, 0, 0]	n/a	FR1	2	R1304N
1916.03	0.014	1917748	REC_END	n/a	n/a	n/a	-999	15	[0, 0, 0]	n/a	FR1	2	R1304N
1916.044	0.0	1917762	TRIAL_START	n/a	n/a	n/a	-999	16	[0, 0, 0]	n/a	FR1	2	R1304N
1916.044	0.0	1917762	TRIAL	n/a	n/a	n/a	-999	16	[0, 0, 0]	n/a	FR1	2	R1304N
1916.044	1.949	1917762	WAITING_START	n/a	n/a	n/a	-999	16	[0, 0, 0]	n/a	FR1	2	R1304N
1917.993	0.0	1919711	WAITING_END	n/a	n/a	n/a	-999	16	[0, 0, 0]	n/a	FR1	2	R1304N
1917.993	10.429	1919711	COUNTDOWN_START	n/a	n/a	n/a	-999	16	[0, 0, 0]	n/a	FR1	2	R1304N
1928.422	0.001	1930140	COUNTDOWN_END	n/a	n/a	n/a	-999	16	[0, 0, 0]	n/a	FR1	2	R1304N
1928.423	1.023	1930141	ORIENT_START	n/a	n/a	n/a	-999	16	[0, 0, 0]	n/a	FR1	2	R1304N
1929.446	0.0	1931164	ORIENT_END	n/a	n/a	n/a	-999	16	[0, 0, 0]	n/a	FR1	2	R1304N
1929.446	1.069	1931164	ENCODING_START	n/a	n/a	n/a	-999	16	[0, 0, 0]	n/a	FR1	2	R1304N
1930.515	1.63	1932233	WORD	n/a	n/a	FLAME	1	16	[0, 0, 0]	n/a	FR1	2	R1304N
1932.145	1.069	1933863	WORD_OFF	n/a	n/a	FLAME	1	16	[0, 0, 0]	n/a	FR1	2	R1304N
1933.214	1.632	1934932	WORD	n/a	n/a	VINE	2	16	[0, 0, 0]	n/a	FR1	2	R1304N
1934.846	0.836	1936564	WORD_OFF	n/a	n/a	VINE	2	16	[0, 0, 0]	n/a	FR1	2	R1304N
1935.682	1.631	1937400	WORD	n/a	n/a	PIPE	3	16	[0, 0, 0]	n/a	FR1	2	R1304N
1937.313	0.8	1939031	WORD_OFF	n/a	n/a	PIPE	3	16	[0, 0, 0]	n/a	FR1	2	R1304N
1938.113	1.634	1939831	WORD	n/a	n/a	THUMB	4	16	[0, 0, 0]	n/a	FR1	2	R1304N
1939.747	1.073	1941464	WORD_OFF	n/a	n/a	THUMB	4	16	[0, 0, 0]	n/a	FR1	2	R1304N
1940.82	1.628	1942537	WORD	n/a	n/a	ROOF	5	16	[0, 0, 0]	n/a	FR1	2	R1304N
1942.448	0.757	1944165	WORD_OFF	n/a	n/a	ROOF	5	16	[0, 0, 0]	n/a	FR1	2	R1304N
1943.205	1.626	1944922	WORD	n/a	n/a	MOTH	6	16	[0, 0, 0]	n/a	FR1	2	R1304N
1944.831	0.877	1946548	WORD_OFF	n/a	n/a	MOTH	6	16	[0, 0, 0]	n/a	FR1	2	R1304N
1945.708	1.623	1947425	WORD	n/a	n/a	MAZE	7	16	[0, 0, 0]	n/a	FR1	2	R1304N
1947.331	0.792	1949048	WORD_OFF	n/a	n/a	MAZE	7	16	[0, 0, 0]	n/a	FR1	2	R1304N
1948.123	1.625	1949840	WORD	n/a	n/a	SKY	8	16	[0, 0, 0]	n/a	FR1	2	R1304N
1949.748	0.928	1951465	WORD_OFF	n/a	n/a	SKY	8	16	[0, 0, 0]	n/a	FR1	2	R1304N
1950.676	1.623	1952393	WORD	n/a	n/a	PLANE	9	16	[0, 0, 0]	n/a	FR1	2	R1304N
1952.299	0.978	1954016	WORD_OFF	n/a	n/a	PLANE	9	16	[0, 0, 0]	n/a	FR1	2	R1304N
1953.277	1.622	1954994	WORD	n/a	n/a	SMILE	10	16	[0, 0, 0]	n/a	FR1	2	R1304N
1954.899	1.119	1956616	WORD_OFF	n/a	n/a	SMILE	10	16	[0, 0, 0]	n/a	FR1	2	R1304N
1956.018	1.632	1957735	WORD	n/a	n/a	PIE	11	16	[0, 0, 0]	n/a	FR1	2	R1304N
1957.65	0.752	1959367	WORD_OFF	n/a	n/a	PIE	11	16	[0, 0, 0]	n/a	FR1	2	R1304N
1958.402	1.631	1960119	WORD	n/a	n/a	CAVE	12	16	[0, 0, 0]	n/a	FR1	2	R1304N
1960.033	0.001	1961750	WORD_OFF	n/a	n/a	CAVE	12	16	[0, 0, 0]	n/a	FR1	2	R1304N
1960.034	0.0	1961751	DISTRACT_START	n/a	n/a	n/a	-999	16	[0, 0, 0]	n/a	FR1	2	R1304N
1960.034	0.0	1961751	ENCODING_END	n/a	n/a	n/a	-999	16	[0, 0, 0]	n/a	FR1	2	R1304N
1960.034	0.016	1961751	START	n/a	n/a	n/a	-999	16	[-999, -999, -999]	n/a	FR1	2	R1304N
1960.05	10.102	1961767	PROB	10.102	n/a	n/a	-999	16	[8, 6, 1]	7	FR1	2	R1304N
1970.152	5.368	1971868	PROB	5.368	n/a	n/a	-999	16	[9, 6, 1]	7	FR1	2	R1304N
1975.52	7.105	1977236	PROB	7.105	n/a	n/a	-999	16	[3, 8, 2]	3	FR1	2	R1304N
1982.625	0.012	1984341	STOP	n/a	n/a	n/a	-999	16	[-999, -999, -999]	n/a	FR1	2	R1304N
1982.637	0.524	1984353	DISTRACT_END	n/a	n/a	n/a	-999	16	[0, 0, 0]	n/a	FR1	2	R1304N
1983.161	1.643	1984877	RETRIEVAL_ORIENT_START	n/a	n/a	n/a	-999	16	[0, 0, 0]	n/a	FR1	2	R1304N
1984.804	0.0	1986520	RETRIEVAL_ORIENT_END	n/a	n/a	n/a	-999	16	[0, 0, 0]	n/a	FR1	2	R1304N
1984.804	27.272	1986520	REC_START	n/a	n/a	n/a	-999	16	[0, 0, 0]	n/a	FR1	2	R1304N
2012.076	2.737	2013790	REC_WORD	2.737	n/a	FOOT	-999	16	[0, 0, 0]	n/a	FR1	2	R1304N
2014.813	0.0	2016527	REC_END	n/a	n/a	n/a	-999	16	[0, 0, 0]	n/a	FR1	2	R1304N
2014.813	0.014	2016527	TRIAL_END	n/a	n/a	n/a	-999	16	[0, 0, 0]	n/a	FR1	2	R1304N
2014.827	0.0	2016541	TRIAL	n/a	n/a	n/a	-999	17	[0, 0, 0]	n/a	FR1	2	R1304N
2014.827	0.001	2016541	TRIAL_START	n/a	n/a	n/a	-999	17	[0, 0, 0]	n/a	FR1	2	R1304N
2014.828	23.869	2016542	WAITING_START	n/a	n/a	n/a	-999	17	[0, 0, 0]	n/a	FR1	2	R1304N
2038.697	0.0	2040410	WAITING_END	n/a	n/a	n/a	-999	17	[0, 0, 0]	n/a	FR1	2	R1304N
2038.697	10.428	2040410	COUNTDOWN_START	n/a	n/a	n/a	-999	17	[0, 0, 0]	n/a	FR1	2	R1304N
2049.125	0.0	2050838	COUNTDOWN_END	n/a	n/a	n/a	-999	17	[0, 0, 0]	n/a	FR1	2	R1304N
2049.125	1.073	2050838	ORIENT_START	n/a	n/a	n/a	-999	17	[0, 0, 0]	n/a	FR1	2	R1304N
2050.198	0.001	2051911	ORIENT_END	n/a	n/a	n/a	-999	17	[0, 0, 0]	n/a	FR1	2	R1304N
2050.199	0.846	2051912	ENCODING_START	n/a	n/a	n/a	-999	17	[0, 0, 0]	n/a	FR1	2	R1304N
2051.045	1.637	2052758	WORD	n/a	n/a	WORM	1	17	[0, 0, 0]	n/a	FR1	2	R1304N
2052.682	0.938	2054395	WORD_OFF	n/a	n/a	WORM	1	17	[0, 0, 0]	n/a	FR1	2	R1304N
2053.62	1.629	2055333	WORD	n/a	n/a	CANE	2	17	[0, 0, 0]	n/a	FR1	2	R1304N
2055.249	1.138	2056962	WORD_OFF	n/a	n/a	CANE	2	17	[0, 0, 0]	n/a	FR1	2	R1304N
2056.387	1.629	2058100	WORD	n/a	n/a	BADGE	3	17	[0, 0, 0]	n/a	FR1	2	R1304N
2058.016	0.987	2059729	WORD_OFF	n/a	n/a	BADGE	3	17	[0, 0, 0]	n/a	FR1	2	R1304N
2059.003	1.615	2060716	WORD	n/a	n/a	MILK	4	17	[0, 0, 0]	n/a	FR1	2	R1304N
2060.618	0.939	2062330	WORD_OFF	n/a	n/a	MILK	4	17	[0, 0, 0]	n/a	FR1	2	R1304N
2061.557	1.627	2063269	WORD	n/a	n/a	TAIL	5	17	[0, 0, 0]	n/a	FR1	2	R1304N
2063.184	0.99	2064896	WORD_OFF	n/a	n/a	TAIL	5	17	[0, 0, 0]	n/a	FR1	2	R1304N
2064.174	1.627	2065886	WORD	n/a	n/a	DRUM	6	17	[0, 0, 0]	n/a	FR1	2	R1304N
2065.801	0.841	2067513	WORD_OFF	n/a	n/a	DRUM	6	17	[0, 0, 0]	n/a	FR1	2	R1304N
2066.642	1.626	2068354	WORD	n/a	n/a	WEB	7	17	[0, 0, 0]	n/a	FR1	2	R1304N
2068.268	0.874	2069980	WORD_OFF	n/a	n/a	WEB	7	17	[0, 0, 0]	n/a	FR1	2	R1304N
2069.142	1.627	2070854	WORD	n/a	n/a	SKUNK	8	17	[0, 0, 0]	n/a	FR1	2	R1304N
2070.769	0.935	2072481	WORD_OFF	n/a	n/a	SKUNK	8	17	[0, 0, 0]	n/a	FR1	2	R1304N
2071.704	1.632	2073416	WORD	n/a	n/a	BEACH	9	17	[0, 0, 0]	n/a	FR1	2	R1304N
2073.336	0.825	2075048	WORD_OFF	n/a	n/a	BEACH	9	17	[0, 0, 0]	n/a	FR1	2	R1304N
2074.161	1.625	2075873	WORD	n/a	n/a	HOOK	10	17	[0, 0, 0]	n/a	FR1	2	R1304N
2075.786	1.033	2077498	WORD_OFF	n/a	n/a	HOOK	10	17	[0, 0, 0]	n/a	FR1	2	R1304N
2076.819	1.618	2078531	WORD	n/a	n/a	FLAG	11	17	[0, 0, 0]	n/a	FR1	2	R1304N
2078.437	1.014	2080149	WORD_OFF	n/a	n/a	FLAG	11	17	[0, 0, 0]	n/a	FR1	2	R1304N
2079.451	1.636	2081163	WORD	n/a	n/a	CART	12	17	[0, 0, 0]	n/a	FR1	2	R1304N
2081.087	0.0	2082799	WORD_OFF	n/a	n/a	CART	12	17	[0, 0, 0]	n/a	FR1	2	R1304N
2081.087	0.0	2082799	ENCODING_END	n/a	n/a	n/a	-999	17	[0, 0, 0]	n/a	FR1	2	R1304N
2081.087	0.001	2082799	DISTRACT_START	n/a	n/a	n/a	-999	17	[0, 0, 0]	n/a	FR1	2	R1304N
2081.088	0.015	2082800	START	n/a	n/a	n/a	-999	17	[-999, -999, -999]	n/a	FR1	2	R1304N
2081.103	16.22	2082815	PROB	16.22	n/a	n/a	-999	17	[5, 9, 3]	6	FR1	2	R1304N
2097.323	36.812	2099034	PROB	36.812	n/a	n/a	-999	17	[4, 3, 5]	8	FR1	2	R1304N
2134.135	0.011	2135844	STOP	n/a	n/a	n/a	-999	17	[-999, -999, -999]	n/a	FR1	2	R1304N
2134.146	0.607	2135855	DISTRACT_END	n/a	n/a	n/a	-999	17	[0, 0, 0]	n/a	FR1	2	R1304N
2134.753	1.677	2136462	RETRIEVAL_ORIENT_START	n/a	n/a	n/a	-999	17	[0, 0, 0]	n/a	FR1	2	R1304N
2136.43	0.001	2138139	RETRIEVAL_ORIENT_END	n/a	n/a	n/a	-999	17	[0, 0, 0]	n/a	FR1	2	R1304N
2136.431	12.005	2138140	REC_START	n/a	n/a	n/a	-999	17	[0, 0, 0]	n/a	FR1	2	R1304N
2148.436	18.004	2150145	REC_WORD	18.004	n/a	SUN	-999	17	[0, 0, 0]	n/a	FR1	2	R1304N
2166.44	0.0	2168148	REC_END	n/a	n/a	n/a	-999	17	[0, 0, 0]	n/a	FR1	2	R1304N
2166.44	0.014	2168148	TRIAL_END	n/a	n/a	n/a	-999	17	[0, 0, 0]	n/a	FR1	2	R1304N
2166.454	0.0	2168162	TRIAL_START	n/a	n/a	n/a	-999	18	[0, 0, 0]	n/a	FR1	2	R1304N
2166.454	0.0	2168162	TRIAL	n/a	n/a	n/a	-999	18	[0, 0, 0]	n/a	FR1	2	R1304N
2166.454	10.749	2168162	WAITING_START	n/a	n/a	n/a	-999	18	[0, 0, 0]	n/a	FR1	2	R1304N
2177.203	0.0	2178911	COUNTDOWN_START	n/a	n/a	n/a	-999	18	[0, 0, 0]	n/a	FR1	2	R1304N
2177.203	10.428	2178911	WAITING_END	n/a	n/a	n/a	-999	18	[0, 0, 0]	n/a	FR1	2	R1304N
2187.631	0.0	2189338	COUNTDOWN_END	n/a	n/a	n/a	-999	18	[0, 0, 0]	n/a	FR1	2	R1304N
2187.631	1.157	2189338	ORIENT_START	n/a	n/a	n/a	-999	18	[0, 0, 0]	n/a	FR1	2	R1304N
2188.788	0.0	2190495	ORIENT_END	n/a	n/a	n/a	-999	18	[0, 0, 0]	n/a	FR1	2	R1304N
2188.788	1.135	2190495	ENCODING_START	n/a	n/a	n/a	-999	18	[0, 0, 0]	n/a	FR1	2	R1304N
2189.923	1.617	2191630	WORD	n/a	n/a	JEEP	1	18	[0, 0, 0]	n/a	FR1	2	R1304N
2191.54	0.997	2193247	WORD_OFF	n/a	n/a	JEEP	1	18	[0, 0, 0]	n/a	FR1	2	R1304N
2192.537	1.619	2194244	WORD	n/a	n/a	OAR	2	18	[0, 0, 0]	n/a	FR1	2	R1304N
2194.156	0.761	2195863	WORD_OFF	n/a	n/a	OAR	2	18	[0, 0, 0]	n/a	FR1	2	R1304N
2194.917	1.607	2196624	WORD	n/a	n/a	BRUSH	3	18	[0, 0, 0]	n/a	FR1	2	R1304N
2196.524	1.077	2198231	WORD_OFF	n/a	n/a	BRUSH	3	18	[0, 0, 0]	n/a	FR1	2	R1304N
2197.601	1.622	2199308	WORD	n/a	n/a	PLATE	4	18	[0, 0, 0]	n/a	FR1	2	R1304N
2199.223	0.944	2200930	WORD_OFF	n/a	n/a	PLATE	4	18	[0, 0, 0]	n/a	FR1	2	R1304N
2200.167	1.623	2201874	WORD	n/a	n/a	EGG	5	18	[0, 0, 0]	n/a	FR1	2	R1304N
2201.79	1.101	2203497	WORD_OFF	n/a	n/a	EGG	5	18	[0, 0, 0]	n/a	FR1	2	R1304N
2202.891	1.634	2204598	WORD	n/a	n/a	SHEET	6	18	[0, 0, 0]	n/a	FR1	2	R1304N
2204.525	0.99	2206231	WORD_OFF	n/a	n/a	SHEET	6	18	[0, 0, 0]	n/a	FR1	2	R1304N
2205.515	1.626	2207221	WORD	n/a	n/a	CLOUD	7	18	[0, 0, 0]	n/a	FR1	2	R1304N
2207.141	1.002	2208847	WORD_OFF	n/a	n/a	CLOUD	7	18	[0, 0, 0]	n/a	FR1	2	R1304N
2208.143	1.632	2209849	WORD	n/a	n/a	FRUIT	8	18	[0, 0, 0]	n/a	FR1	2	R1304N
2209.775	1.116	2211481	WORD_OFF	n/a	n/a	FRUIT	8	18	[0, 0, 0]	n/a	FR1	2	R1304N
2210.891	1.619	2212597	WORD	n/a	n/a	APE	9	18	[0, 0, 0]	n/a	FR1	2	R1304N
2212.51	1.093	2214216	WORD_OFF	n/a	n/a	APE	9	18	[0, 0, 0]	n/a	FR1	2	R1304N
2213.603	1.623	2215309	WORD	n/a	n/a	AXE	10	18	[0, 0, 0]	n/a	FR1	2	R1304N
2215.226	0.981	2216932	WORD_OFF	n/a	n/a	AXE	10	18	[0, 0, 0]	n/a	FR1	2	R1304N
2216.207	1.636	2217913	WORD	n/a	n/a	STAR	11	18	[0, 0, 0]	n/a	FR1	2	R1304N
2217.843	0.834	2219549	WORD_OFF	n/a	n/a	STAR	11	18	[0, 0, 0]	n/a	FR1	2	R1304N
2218.677	1.633	2220383	WORD	n/a	n/a	BED	12	18	[0, 0, 0]	n/a	FR1	2	R1304N
2220.31	0.0	2222016	WORD_OFF	n/a	n/a	BED	12	18	[0, 0, 0]	n/a	FR1	2	R1304N
2220.31	0.001	2222016	ENCODING_END	n/a	n/a	n/a	-999	18	[0, 0, 0]	n/a	FR1	2	R1304N
2220.311	0.0	2222017	DISTRACT_START	n/a	n/a	n/a	-999	18	[0, 0, 0]	n/a	FR1	2	R1304N
2220.311	0.016	2222017	START	n/a	n/a	n/a	-999	18	[-999, -999, -999]	n/a	FR1	2	R1304N
2220.327	41.17	2222033	PROB	41.17	n/a	n/a	-999	18	[3, 8, 7]	9	FR1	2	R1304N
2261.497	0.021	2263201	STOP	n/a	n/a	n/a	-999	18	[-999, -999, -999]	n/a	FR1	2	R1304N
2261.518	0.669	2263222	DISTRACT_END	n/a	n/a	n/a	-999	18	[0, 0, 0]	n/a	FR1	2	R1304N
2262.187	1.63	2263891	RETRIEVAL_ORIENT_START	n/a	n/a	n/a	-999	18	[0, 0, 0]	n/a	FR1	2	R1304N
2263.817	0.001	2265521	RETRIEVAL_ORIENT_END	n/a	n/a	n/a	-999	18	[0, 0, 0]	n/a	FR1	2	R1304N
2263.818	29.994	2265522	REC_START	n/a	n/a	n/a	-999	18	[0, 0, 0]	n/a	FR1	2	R1304N
2293.812	0.014	2295515	REC_WORD_VV	0.014	n/a	<>	-999	18	[0, 0, 0]	n/a	FR1	2	R1304N
2293.826	0.001	2295529	REC_END	n/a	n/a	n/a	-999	18	[0, 0, 0]	n/a	FR1	2	R1304N
2293.827	0.014	2295530	TRIAL_END	n/a	n/a	n/a	-999	18	[0, 0, 0]	n/a	FR1	2	R1304N
2293.841	0.0	2295544	TRIAL_START	n/a	n/a	n/a	-999	19	[0, 0, 0]	n/a	FR1	2	R1304N
2293.841	0.0	2295544	TRIAL	n/a	n/a	n/a	-999	19	[0, 0, 0]	n/a	FR1	2	R1304N
2293.841	21.452	2295544	WAITING_START	n/a	n/a	n/a	-999	19	[0, 0, 0]	n/a	FR1	2	R1304N
2315.293	0.0	2316995	WAITING_END	n/a	n/a	n/a	-999	19	[0, 0, 0]	n/a	FR1	2	R1304N
2315.293	10.429	2316995	COUNTDOWN_START	n/a	n/a	n/a	-999	19	[0, 0, 0]	n/a	FR1	2	R1304N
2325.722	0.0	2327423	COUNTDOWN_END	n/a	n/a	n/a	-999	19	[0, 0, 0]	n/a	FR1	2	R1304N
2325.722	1.173	2327423	ORIENT_START	n/a	n/a	n/a	-999	19	[0, 0, 0]	n/a	FR1	2	R1304N
2326.895	0.0	2328596	ENCODING_START	n/a	n/a	n/a	-999	19	[0, 0, 0]	n/a	FR1	2	R1304N
2326.895	0.97	2328596	ORIENT_END	n/a	n/a	n/a	-999	19	[0, 0, 0]	n/a	FR1	2	R1304N
2327.865	1.631	2329566	WORD	n/a	n/a	FLOOR	1	19	[0, 0, 0]	n/a	FR1	2	R1304N
2329.496	0.976	2331197	WORD_OFF	n/a	n/a	FLOOR	1	19	[0, 0, 0]	n/a	FR1	2	R1304N
2330.472	1.623	2332173	WORD	n/a	n/a	ROAD	2	19	[0, 0, 0]	n/a	FR1	2	R1304N
2332.095	0.969	2333796	WORD_OFF	n/a	n/a	ROAD	2	19	[0, 0, 0]	n/a	FR1	2	R1304N
2333.064	1.632	2334765	WORD	n/a	n/a	BOX	3	19	[0, 0, 0]	n/a	FR1	2	R1304N
2334.696	1.106	2336397	WORD_OFF	n/a	n/a	BOX	3	19	[0, 0, 0]	n/a	FR1	2	R1304N
2335.802	1.612	2337503	WORD	n/a	n/a	COUCH	4	19	[0, 0, 0]	n/a	FR1	2	R1304N
2337.414	0.924	2339115	WORD_OFF	n/a	n/a	COUCH	4	19	[0, 0, 0]	n/a	FR1	2	R1304N
2338.338	1.625	2340039	WORD	n/a	n/a	SOUP	5	19	[0, 0, 0]	n/a	FR1	2	R1304N
2339.963	0.899	2341664	WORD_OFF	n/a	n/a	SOUP	5	19	[0, 0, 0]	n/a	FR1	2	R1304N
2340.862	1.619	2342563	WORD	n/a	n/a	SALT	6	19	[0, 0, 0]	n/a	FR1	2	R1304N
2342.481	1.017	2344182	WORD_OFF	n/a	n/a	SALT	6	19	[0, 0, 0]	n/a	FR1	2	R1304N
2343.498	1.633	2345199	WORD	n/a	n/a	STOOL	7	19	[0, 0, 0]	n/a	FR1	2	R1304N
2345.131	1.081	2346832	WORD_OFF	n/a	n/a	STOOL	7	19	[0, 0, 0]	n/a	FR1	2	R1304N
2346.212	1.636	2347913	WORD	n/a	n/a	SEAL	8	19	[0, 0, 0]	n/a	FR1	2	R1304N
2347.848	1.07	2349549	WORD_OFF	n/a	n/a	SEAL	8	19	[0, 0, 0]	n/a	FR1	2	R1304N
2348.918	1.632	2350618	WORD	n/a	n/a	CLIFF	9	19	[0, 0, 0]	n/a	FR1	2	R1304N
2350.55	0.849	2352250	WORD_OFF	n/a	n/a	CLIFF	9	19	[0, 0, 0]	n/a	FR1	2	R1304N
2351.399	1.633	2353099	WORD	n/a	n/a	SPRING	10	19	[0, 0, 0]	n/a	FR1	2	R1304N
2353.032	0.815	2354732	WORD_OFF	n/a	n/a	SPRING	10	19	[0, 0, 0]	n/a	FR1	2	R1304N
2353.847	1.637	2355547	WORD	n/a	n/a	CHEEK	11	19	[0, 0, 0]	n/a	FR1	2	R1304N
2355.484	1.071	2357184	WORD_OFF	n/a	n/a	CHEEK	11	19	[0, 0, 0]	n/a	FR1	2	R1304N
2356.555	1.628	2358255	WORD	n/a	n/a	SHOE	12	19	[0, 0, 0]	n/a	FR1	2	R1304N
2358.183	0.0	2359883	WORD_OFF	n/a	n/a	SHOE	12	19	[0, 0, 0]	n/a	FR1	2	R1304N
2358.183	0.001	2359883	ENCODING_END	n/a	n/a	n/a	-999	19	[0, 0, 0]	n/a	FR1	2	R1304N
2358.184	0.0	2359884	DISTRACT_START	n/a	n/a	n/a	-999	19	[0, 0, 0]	n/a	FR1	2	R1304N
2358.184	0.016	2359884	START	n/a	n/a	n/a	-999	19	[-999, -999, -999]	n/a	FR1	2	R1304N
2358.2	27.903	2359900	PROB	27.903	n/a	n/a	-999	19	[3, 8, 6]	7	FR1	2	R1304N
2386.103	0.018	2387802	STOP	n/a	n/a	n/a	-999	19	[-999, -999, -999]	n/a	FR1	2	R1304N
2386.121	0.521	2387820	DISTRACT_END	n/a	n/a	n/a	-999	19	[0, 0, 0]	n/a	FR1	2	R1304N
2386.642	1.713	2388341	RETRIEVAL_ORIENT_START	n/a	n/a	n/a	-999	19	[0, 0, 0]	n/a	FR1	2	R1304N
2388.355	0.0	2390054	RETRIEVAL_ORIENT_END	n/a	n/a	n/a	-999	19	[0, 0, 0]	n/a	FR1	2	R1304N
2388.355	6.761	2390054	REC_START	n/a	n/a	n/a	-999	19	[0, 0, 0]	n/a	FR1	2	R1304N
2395.116	23.248	2396815	REC_WORD	23.248	n/a	SPRING	10	19	[0, 0, 0]	n/a	FR1	2	R1304N
2418.364	0.0	2420062	REC_END	n/a	n/a	n/a	-999	19	[0, 0, 0]	n/a	FR1	2	R1304N
2418.364	0.014	2420062	TRIAL_END	n/a	n/a	n/a	-999	19	[0, 0, 0]	n/a	FR1	2	R1304N
2418.378	0.0	2420076	WAITING_START	n/a	n/a	n/a	-999	20	[0, 0, 0]	n/a	FR1	2	R1304N
2418.378	0.0	2420076	TRIAL	n/a	n/a	n/a	-999	20	[0, 0, 0]	n/a	FR1	2	R1304N
2418.378	6.65	2420076	TRIAL_START	n/a	n/a	n/a	-999	20	[0, 0, 0]	n/a	FR1	2	R1304N
2425.028	0.0	2426725	WAITING_END	n/a	n/a	n/a	-999	20	[0, 0, 0]	n/a	FR1	2	R1304N
2425.028	10.435	2426725	COUNTDOWN_START	n/a	n/a	n/a	-999	20	[0, 0, 0]	n/a	FR1	2	R1304N
2435.463	0.001	2437160	COUNTDOWN_END	n/a	n/a	n/a	-999	20	[0, 0, 0]	n/a	FR1	2	R1304N
2435.464	1.066	2437161	ORIENT_START	n/a	n/a	n/a	-999	20	[0, 0, 0]	n/a	FR1	2	R1304N
2436.53	0.001	2438227	ORIENT_END	n/a	n/a	n/a	-999	20	[0, 0, 0]	n/a	FR1	2	R1304N
2436.531	1.128	2438228	ENCODING_START	n/a	n/a	n/a	-999	20	[0, 0, 0]	n/a	FR1	2	R1304N
2437.659	1.621	2439356	WORD	n/a	n/a	PARK	1	20	[0, 0, 0]	n/a	FR1	2	R1304N
2439.28	0.951	2440977	WORD_OFF	n/a	n/a	PARK	1	20	[0, 0, 0]	n/a	FR1	2	R1304N
2440.231	1.633	2441928	WORD	n/a	n/a	FUDGE	2	20	[0, 0, 0]	n/a	FR1	2	R1304N
2441.864	0.845	2443561	WORD_OFF	n/a	n/a	FUDGE	2	20	[0, 0, 0]	n/a	FR1	2	R1304N
2442.709	1.622	2444406	WORD	n/a	n/a	LIP	3	20	[0, 0, 0]	n/a	FR1	2	R1304N
2444.331	1.097	2446027	WORD_OFF	n/a	n/a	LIP	3	20	[0, 0, 0]	n/a	FR1	2	R1304N
2445.428	1.62	2447124	WORD	n/a	n/a	SHIP	4	20	[0, 0, 0]	n/a	FR1	2	R1304N
2447.048	0.927	2448744	WORD_OFF	n/a	n/a	SHIP	4	20	[0, 0, 0]	n/a	FR1	2	R1304N
2447.975	1.624	2449671	WORD	n/a	n/a	BENCH	5	20	[0, 0, 0]	n/a	FR1	2	R1304N
2449.599	0.78	2451295	WORD_OFF	n/a	n/a	BENCH	5	20	[0, 0, 0]	n/a	FR1	2	R1304N
2450.379	1.636	2452075	WORD	n/a	n/a	MOON	6	20	[0, 0, 0]	n/a	FR1	2	R1304N
2452.015	0.773	2453711	WORD_OFF	n/a	n/a	MOON	6	20	[0, 0, 0]	n/a	FR1	2	R1304N
2452.788	1.612	2454484	WORD	n/a	n/a	PHONE	7	20	[0, 0, 0]	n/a	FR1	2	R1304N
2454.4	0.909	2456096	WORD_OFF	n/a	n/a	PHONE	7	20	[0, 0, 0]	n/a	FR1	2	R1304N
2455.309	1.624	2457005	WORD	n/a	n/a	DOCK	8	20	[0, 0, 0]	n/a	FR1	2	R1304N
2456.933	1.077	2458629	WORD_OFF	n/a	n/a	DOCK	8	20	[0, 0, 0]	n/a	FR1	2	R1304N
2458.01	1.623	2459706	WORD	n/a	n/a	CLAY	9	20	[0, 0, 0]	n/a	FR1	2	R1304N
2459.633	1.023	2461329	WORD_OFF	n/a	n/a	CLAY	9	20	[0, 0, 0]	n/a	FR1	2	R1304N
2460.656	1.628	2462352	WORD	n/a	n/a	FOG	10	20	[0, 0, 0]	n/a	FR1	2	R1304N
2462.284	0.867	2463980	WORD_OFF	n/a	n/a	FOG	10	20	[0, 0, 0]	n/a	FR1	2	R1304N
2463.151	1.633	2464847	WORD	n/a	n/a	MUD	11	20	[0, 0, 0]	n/a	FR1	2	R1304N
2464.784	1.031	2466480	WORD_OFF	n/a	n/a	MUD	11	20	[0, 0, 0]	n/a	FR1	2	R1304N
2465.815	1.621	2467511	WORD	n/a	n/a	SUN	12	20	[0, 0, 0]	n/a	FR1	2	R1304N
2467.436	0.0	2469132	WORD_OFF	n/a	n/a	SUN	12	20	[0, 0, 0]	n/a	FR1	2	R1304N
2467.436	0.0	2469132	ENCODING_END	n/a	n/a	n/a	-999	20	[0, 0, 0]	n/a	FR1	2	R1304N
2467.436	0.0	2469132	DISTRACT_START	n/a	n/a	n/a	-999	20	[0, 0, 0]	n/a	FR1	2	R1304N
2467.436	0.016	2469132	START	n/a	n/a	n/a	-999	20	[-999, -999, -999]	n/a	FR1	2	R1304N
2467.452	33.652	2469148	PROB	33.652	n/a	n/a	-999	20	[5, 3, 5]	6	FR1	2	R1304N
2501.104	0.02	2502798	STOP	n/a	n/a	n/a	-999	20	[-999, -999, -999]	n/a	FR1	2	R1304N
2501.124	0.507	2502818	DISTRACT_END	n/a	n/a	n/a	-999	20	[0, 0, 0]	n/a	FR1	2	R1304N
2501.631	1.643	2503325	RETRIEVAL_ORIENT_START	n/a	n/a	n/a	-999	20	[0, 0, 0]	n/a	FR1	2	R1304N
2503.274	0.0	2504968	REC_START	n/a	n/a	n/a	-999	20	[0, 0, 0]	n/a	FR1	2	R1304N
2503.274	15.561	2504968	RETRIEVAL_ORIENT_END	n/a	n/a	n/a	-999	20	[0, 0, 0]	n/a	FR1	2	R1304N
2518.835	14.448	2520528	REC_WORD	14.448	n/a	SUN	12	20	[0, 0, 0]	n/a	FR1	2	R1304N
2533.283	0.0	2534976	REC_END	n/a	n/a	n/a	-999	20	[0, 0, 0]	n/a	FR1	2	R1304N
2533.283	0.014	2534976	TRIAL_END	n/a	n/a	n/a	-999	20	[0, 0, 0]	n/a	FR1	2	R1304N
2533.297	0.0	2534990	TRIAL_START	n/a	n/a	n/a	-999	21	[0, 0, 0]	n/a	FR1	2	R1304N
2533.297	0.001	2534990	TRIAL	n/a	n/a	n/a	-999	21	[0, 0, 0]	n/a	FR1	2	R1304N
2533.298	8.532	2534991	WAITING_START	n/a	n/a	n/a	-999	21	[0, 0, 0]	n/a	FR1	2	R1304N
2541.83	0.001	2543522	WAITING_END	n/a	n/a	n/a	-999	21	[0, 0, 0]	n/a	FR1	2	R1304N
2541.831	10.429	2543523	COUNTDOWN_START	n/a	n/a	n/a	-999	21	[0, 0, 0]	n/a	FR1	2	R1304N
2552.26	0.0	2553952	COUNTDOWN_END	n/a	n/a	n/a	-999	21	[0, 0, 0]	n/a	FR1	2	R1304N
2552.26	1.122	2553952	ORIENT_START	n/a	n/a	n/a	-999	21	[0, 0, 0]	n/a	FR1	2	R1304N
2553.382	0.001	2555074	ORIENT_END	n/a	n/a	n/a	-999	21	[0, 0, 0]	n/a	FR1	2	R1304N
2553.383	0.964	2555075	ENCODING_START	n/a	n/a	n/a	-999	21	[0, 0, 0]	n/a	FR1	2	R1304N
2554.347	1.636	2556039	WORD	n/a	n/a	SKI	1	21	[0, 0, 0]	n/a	FR1	2	R1304N
2555.983	0.805	2557675	WORD_OFF	n/a	n/a	SKI	1	21	[0, 0, 0]	n/a	FR1	2	R1304N
2556.788	1.613	2558480	WORD	n/a	n/a	SLUSH	2	21	[0, 0, 0]	n/a	FR1	2	R1304N
2558.401	0.893	2560093	WORD_OFF	n/a	n/a	SLUSH	2	21	[0, 0, 0]	n/a	FR1	2	R1304N
2559.294	1.623	2560986	WORD	n/a	n/a	ANT	3	21	[0, 0, 0]	n/a	FR1	2	R1304N
2560.917	0.91	2562609	WORD_OFF	n/a	n/a	ANT	3	21	[0, 0, 0]	n/a	FR1	2	R1304N
2561.827	1.625	2563519	WORD	n/a	n/a	BEAK	4	21	[0, 0, 0]	n/a	FR1	2	R1304N
2563.452	1.07	2565144	WORD_OFF	n/a	n/a	BEAK	4	21	[0, 0, 0]	n/a	FR1	2	R1304N
2564.522	1.629	2566213	WORD	n/a	n/a	KEY	5	21	[0, 0, 0]	n/a	FR1	2	R1304N
2566.151	1.132	2567842	WORD_OFF	n/a	n/a	KEY	5	21	[0, 0, 0]	n/a	FR1	2	R1304N
2567.283	1.635	2568974	WORD	n/a	n/a	FOAM	6	21	[0, 0, 0]	n/a	FR1	2	R1304N
2568.918	1.005	2570609	WORD_OFF	n/a	n/a	FOAM	6	21	[0, 0, 0]	n/a	FR1	2	R1304N
2569.923	1.613	2571614	WORD	n/a	n/a	HORN	7	21	[0, 0, 0]	n/a	FR1	2	R1304N
2571.536	1.135	2573227	WORD_OFF	n/a	n/a	HORN	7	21	[0, 0, 0]	n/a	FR1	2	R1304N
2572.671	1.631	2574362	WORD	n/a	n/a	CAPE	8	21	[0, 0, 0]	n/a	FR1	2	R1304N
2574.302	1.141	2575993	WORD_OFF	n/a	n/a	CAPE	8	21	[0, 0, 0]	n/a	FR1	2	R1304N
2575.443	1.626	2577134	WORD	n/a	n/a	BOY	9	21	[0, 0, 0]	n/a	FR1	2	R1304N
2577.069	0.769	2578760	WORD_OFF	n/a	n/a	BOY	9	21	[0, 0, 0]	n/a	FR1	2	R1304N
2577.838	1.616	2579529	WORD	n/a	n/a	BARN	10	21	[0, 0, 0]	n/a	FR1	2	R1304N
2579.454	0.963	2581145	WORD_OFF	n/a	n/a	BARN	10	21	[0, 0, 0]	n/a	FR1	2	R1304N
2580.417	1.62	2582108	WORD	n/a	n/a	MOUSE	11	21	[0, 0, 0]	n/a	FR1	2	R1304N
2582.037	0.848	2583728	WORD_OFF	n/a	n/a	MOUSE	11	21	[0, 0, 0]	n/a	FR1	2	R1304N
2582.885	1.637	2584576	WORD	n/a	n/a	BREAD	12	21	[0, 0, 0]	n/a	FR1	2	R1304N
2584.522	0.0	2586213	WORD_OFF	n/a	n/a	BREAD	12	21	[0, 0, 0]	n/a	FR1	2	R1304N
2584.522	0.0	2586213	ENCODING_END	n/a	n/a	n/a	-999	21	[0, 0, 0]	n/a	FR1	2	R1304N
2584.522	0.001	2586213	DISTRACT_START	n/a	n/a	n/a	-999	21	[0, 0, 0]	n/a	FR1	2	R1304N
2584.523	0.015	2586214	START	n/a	n/a	n/a	-999	21	[-999, -999, -999]	n/a	FR1	2	R1304N
2584.538	30.437	2586229	PROB	30.437	n/a	n/a	-999	21	[4, 5, 3]	8	FR1	2	R1304N
2614.975	0.018	2616664	STOP	n/a	n/a	n/a	-999	21	[-999, -999, -999]	n/a	FR1	2	R1304N
2614.993	0.615	2616682	DISTRACT_END	n/a	n/a	n/a	-999	21	[0, 0, 0]	n/a	FR1	2	R1304N
2615.608	1.651	2617297	RETRIEVAL_ORIENT_START	n/a	n/a	n/a	-999	21	[0, 0, 0]	n/a	FR1	2	R1304N
2617.259	0.001	2618948	RETRIEVAL_ORIENT_END	n/a	n/a	n/a	-999	21	[0, 0, 0]	n/a	FR1	2	R1304N
2617.26	12.021	2618949	REC_START	n/a	n/a	n/a	-999	21	[0, 0, 0]	n/a	FR1	2	R1304N
2629.281	17.987	2630970	REC_WORD	17.987	n/a	SKI	1	21	[0, 0, 0]	n/a	FR1	2	R1304N
2647.268	0.001	2648956	REC_END	n/a	n/a	n/a	-999	21	[0, 0, 0]	n/a	FR1	2	R1304N
2647.269	0.013	2648957	TRIAL_END	n/a	n/a	n/a	-999	21	[0, 0, 0]	n/a	FR1	2	R1304N
2647.282	0.001	2648970	TRIAL_START	n/a	n/a	n/a	-999	22	[0, 0, 0]	n/a	FR1	2	R1304N
2647.283	0.0	2648971	TRIAL	n/a	n/a	n/a	-999	22	[0, 0, 0]	n/a	FR1	2	R1304N
2647.283	6.799	2648971	WAITING_START	n/a	n/a	n/a	-999	22	[0, 0, 0]	n/a	FR1	2	R1304N
2654.082	0.001	2655770	WAITING_END	n/a	n/a	n/a	-999	22	[0, 0, 0]	n/a	FR1	2	R1304N
2654.083	10.428	2655771	COUNTDOWN_START	n/a	n/a	n/a	-999	22	[0, 0, 0]	n/a	FR1	2	R1304N
2664.511	0.0	2666198	COUNTDOWN_END	n/a	n/a	n/a	-999	22	[0, 0, 0]	n/a	FR1	2	R1304N
2664.511	1.24	2666198	ORIENT_START	n/a	n/a	n/a	-999	22	[0, 0, 0]	n/a	FR1	2	R1304N
2665.751	0.0	2667438	ENCODING_START	n/a	n/a	n/a	-999	22	[0, 0, 0]	n/a	FR1	2	R1304N
2665.751	1.014	2667438	ORIENT_END	n/a	n/a	n/a	-999	22	[0, 0, 0]	n/a	FR1	2	R1304N
2666.765	1.637	2668452	WORD	n/a	n/a	CHIN	1	22	[0, 0, 0]	n/a	FR1	2	R1304N
2668.402	0.81	2670089	WORD_OFF	n/a	n/a	CHIN	1	22	[0, 0, 0]	n/a	FR1	2	R1304N
2669.212	1.623	2670899	WORD	n/a	n/a	TRASH	2	22	[0, 0, 0]	n/a	FR1	2	R1304N
2670.835	1.006	2672522	WORD_OFF	n/a	n/a	TRASH	2	22	[0, 0, 0]	n/a	FR1	2	R1304N
2671.841	1.612	2673528	WORD	n/a	n/a	CLOWN	3	22	[0, 0, 0]	n/a	FR1	2	R1304N
2673.453	0.957	2675140	WORD_OFF	n/a	n/a	CLOWN	3	22	[0, 0, 0]	n/a	FR1	2	R1304N
2674.41	1.626	2676097	WORD	n/a	n/a	BOOT	4	22	[0, 0, 0]	n/a	FR1	2	R1304N
2676.036	0.953	2677723	WORD_OFF	n/a	n/a	BOOT	4	22	[0, 0, 0]	n/a	FR1	2	R1304N
2676.989	1.632	2678676	WORD	n/a	n/a	FACE	5	22	[0, 0, 0]	n/a	FR1	2	R1304N
2678.621	0.964	2680308	WORD_OFF	n/a	n/a	FACE	5	22	[0, 0, 0]	n/a	FR1	2	R1304N
2679.585	1.635	2681272	WORD	n/a	n/a	ICE	6	22	[0, 0, 0]	n/a	FR1	2	R1304N
2681.22	1.019	2682907	WORD_OFF	n/a	n/a	ICE	6	22	[0, 0, 0]	n/a	FR1	2	R1304N
2682.239	1.632	2683926	WORD	n/a	n/a	STORM	7	22	[0, 0, 0]	n/a	FR1	2	R1304N
2683.871	0.848	2685558	WORD_OFF	n/a	n/a	STORM	7	22	[0, 0, 0]	n/a	FR1	2	R1304N
2684.719	1.635	2686405	WORD	n/a	n/a	BUSH	8	22	[0, 0, 0]	n/a	FR1	2	R1304N
2686.354	1.027	2688040	WORD_OFF	n/a	n/a	BUSH	8	22	[0, 0, 0]	n/a	FR1	2	R1304N
2687.381	1.624	2689067	WORD	n/a	n/a	WING	9	22	[0, 0, 0]	n/a	FR1	2	R1304N
2689.005	1.06	2690691	WORD_OFF	n/a	n/a	WING	9	22	[0, 0, 0]	n/a	FR1	2	R1304N
2690.065	1.624	2691751	WORD	n/a	n/a	MULE	10	22	[0, 0, 0]	n/a	FR1	2	R1304N
2691.689	0.897	2693375	WORD_OFF	n/a	n/a	MULE	10	22	[0, 0, 0]	n/a	FR1	2	R1304N
2692.586	1.62	2694272	WORD	n/a	n/a	CORD	11	22	[0, 0, 0]	n/a	FR1	2	R1304N
2694.206	0.925	2695892	WORD_OFF	n/a	n/a	CORD	11	22	[0, 0, 0]	n/a	FR1	2	R1304N
2695.131	1.625	2696817	WORD	n/a	n/a	ELF	12	22	[0, 0, 0]	n/a	FR1	2	R1304N
2696.756	0.001	2698442	WORD_OFF	n/a	n/a	ELF	12	22	[0, 0, 0]	n/a	FR1	2	R1304N
2696.757	0.0	2698443	DISTRACT_START	n/a	n/a	n/a	-999	22	[0, 0, 0]	n/a	FR1	2	R1304N
2696.757	0.0	2698443	ENCODING_END	n/a	n/a	n/a	-999	22	[0, 0, 0]	n/a	FR1	2	R1304N
2696.757	0.016	2698443	START	n/a	n/a	n/a	-999	22	[-999, -999, -999]	n/a	FR1	2	R1304N
2696.773	26.652	2698459	PROB	26.652	n/a	n/a	-999	22	[5, 2, 7]	8	FR1	2	R1304N
2723.425	0.02	2725110	STOP	n/a	n/a	n/a	-999	22	[-999, -999, -999]	n/a	FR1	2	R1304N
2723.445	0.557	2725130	DISTRACT_END	n/a	n/a	n/a	-999	22	[0, 0, 0]	n/a	FR1	2	R1304N
2724.002	1.709	2725687	RETRIEVAL_ORIENT_START	n/a	n/a	n/a	-999	22	[0, 0, 0]	n/a	FR1	2	R1304N
2725.711	0.0	2727396	RETRIEVAL_ORIENT_END	n/a	n/a	n/a	-999	22	[0, 0, 0]	n/a	FR1	2	R1304N
2725.711	29.994	2727396	REC_START	n/a	n/a	n/a	-999	22	[0, 0, 0]	n/a	FR1	2	R1304N
2755.705	0.015	2757389	REC_WORD_VV	0.015	n/a	<>	-999	22	[0, 0, 0]	n/a	FR1	2	R1304N
2755.72	0.0	2757404	REC_END	n/a	n/a	n/a	-999	22	[0, 0, 0]	n/a	FR1	2	R1304N
2755.72	0.014	2757404	TRIAL_END	n/a	n/a	n/a	-999	22	[0, 0, 0]	n/a	FR1	2	R1304N
2755.734	0.0	2757418	TRIAL_START	n/a	n/a	n/a	-999	23	[0, 0, 0]	n/a	FR1	2	R1304N
2755.734	0.0	2757418	TRIAL	n/a	n/a	n/a	-999	23	[0, 0, 0]	n/a	FR1	2	R1304N
2755.734	9.4	2757418	WAITING_START	n/a	n/a	n/a	-999	23	[0, 0, 0]	n/a	FR1	2	R1304N
2765.134	0.001	2766817	WAITING_END	n/a	n/a	n/a	-999	23	[0, 0, 0]	n/a	FR1	2	R1304N
2765.135	10.429	2766818	COUNTDOWN_START	n/a	n/a	n/a	-999	23	[0, 0, 0]	n/a	FR1	2	R1304N
2775.564	0.0	2777247	COUNTDOWN_END	n/a	n/a	n/a	-999	23	[0, 0, 0]	n/a	FR1	2	R1304N
2775.564	1.155	2777247	ORIENT_START	n/a	n/a	n/a	-999	23	[0, 0, 0]	n/a	FR1	2	R1304N
2776.719	0.001	2778402	ORIENT_END	n/a	n/a	n/a	-999	23	[0, 0, 0]	n/a	FR1	2	R1304N
2776.72	0.849	2778403	ENCODING_START	n/a	n/a	n/a	-999	23	[0, 0, 0]	n/a	FR1	2	R1304N
2777.569	1.634	2779252	WORD	n/a	n/a	SINK	1	23	[0, 0, 0]	n/a	FR1	2	R1304N
2779.203	0.987	2780886	WORD_OFF	n/a	n/a	SINK	1	23	[0, 0, 0]	n/a	FR1	2	R1304N
2780.19	1.63	2781873	WORD	n/a	n/a	KITE	2	23	[0, 0, 0]	n/a	FR1	2	R1304N
2781.82	1.044	2783502	WORD_OFF	n/a	n/a	KITE	2	23	[0, 0, 0]	n/a	FR1	2	R1304N
2782.864	1.608	2784546	WORD	n/a	n/a	ZOO	3	23	[0, 0, 0]	n/a	FR1	2	R1304N
2784.472	1.032	2786154	WORD_OFF	n/a	n/a	ZOO	3	23	[0, 0, 0]	n/a	FR1	2	R1304N
2785.504	1.634	2787186	WORD	n/a	n/a	PIT	4	23	[0, 0, 0]	n/a	FR1	2	R1304N
2787.138	0.92	2788820	WORD_OFF	n/a	n/a	PIT	4	23	[0, 0, 0]	n/a	FR1	2	R1304N
2788.058	1.63	2789740	WORD	n/a	n/a	FUR	5	23	[0, 0, 0]	n/a	FR1	2	R1304N
2789.688	0.872	2791370	WORD_OFF	n/a	n/a	FUR	5	23	[0, 0, 0]	n/a	FR1	2	R1304N
2790.56	1.629	2792242	WORD	n/a	n/a	MAP	6	23	[0, 0, 0]	n/a	FR1	2	R1304N
2792.189	0.944	2793871	WORD_OFF	n/a	n/a	MAP	6	23	[0, 0, 0]	n/a	FR1	2	R1304N
2793.133	1.623	2794815	WORD	n/a	n/a	JAR	7	23	[0, 0, 0]	n/a	FR1	2	R1304N
2794.756	0.78	2796438	WORD_OFF	n/a	n/a	JAR	7	23	[0, 0, 0]	n/a	FR1	2	R1304N
2795.536	1.62	2797218	WORD	n/a	n/a	BEE	8	23	[0, 0, 0]	n/a	FR1	2	R1304N
2797.156	1.041	2798838	WORD_OFF	n/a	n/a	BEE	8	23	[0, 0, 0]	n/a	FR1	2	R1304N
2798.197	1.626	2799879	WORD	n/a	n/a	GATE	9	23	[0, 0, 0]	n/a	FR1	2	R1304N
2799.823	0.966	2801505	WORD_OFF	n/a	n/a	GATE	9	23	[0, 0, 0]	n/a	FR1	2	R1304N
2800.789	1.619	2802471	WORD	n/a	n/a	THREAD	10	23	[0, 0, 0]	n/a	FR1	2	R1304N
2802.408	0.83	2804090	WORD_OFF	n/a	n/a	THREAD	10	23	[0, 0, 0]	n/a	FR1	2	R1304N
2803.238	1.636	2804920	WORD	n/a	n/a	MAIL	11	23	[0, 0, 0]	n/a	FR1	2	R1304N
2804.874	0.833	2806555	WORD_OFF	n/a	n/a	MAIL	11	23	[0, 0, 0]	n/a	FR1	2	R1304N
2805.707	1.634	2807388	WORD	n/a	n/a	SUIT	12	23	[0, 0, 0]	n/a	FR1	2	R1304N
2807.341	0.001	2809022	WORD_OFF	n/a	n/a	SUIT	12	23	[0, 0, 0]	n/a	FR1	2	R1304N
2807.342	0.0	2809023	ENCODING_END	n/a	n/a	n/a	-999	23	[0, 0, 0]	n/a	FR1	2	R1304N
2807.342	0.0	2809023	DISTRACT_START	n/a	n/a	n/a	-999	23	[0, 0, 0]	n/a	FR1	2	R1304N
2807.342	0.016	2809023	START	n/a	n/a	n/a	-999	23	[-999, -999, -999]	n/a	FR1	2	R1304N
2807.358	8.835	2809039	PROB	8.835	n/a	n/a	-999	23	[8, 4, 4]	5	FR1	2	R1304N
2816.193	2.667	2817874	PROB	2.667	n/a	n/a	-999	23	[4, 9, 6]	5	FR1	2	R1304N
2818.86	6.334	2820541	PROB	6.334	n/a	n/a	-999	23	[5, 1, 8]	9	FR1	2	R1304N
2825.194	8.79	2826875	PROB	8.79	n/a	n/a	-999	23	[7, 8, 7]	6	FR1	2	R1304N
2833.984	0.012	2835664	STOP	n/a	n/a	n/a	-999	23	[-999, -999, -999]	n/a	FR1	2	R1304N
2833.996	0.647	2835676	DISTRACT_END	n/a	n/a	n/a	-999	23	[0, 0, 0]	n/a	FR1	2	R1304N
2834.643	1.72	2836323	RETRIEVAL_ORIENT_START	n/a	n/a	n/a	-999	23	[0, 0, 0]	n/a	FR1	2	R1304N
2836.363	0.0	2838043	RETRIEVAL_ORIENT_END	n/a	n/a	n/a	-999	23	[0, 0, 0]	n/a	FR1	2	R1304N
2836.363	12.832	2838043	REC_START	n/a	n/a	n/a	-999	23	[0, 0, 0]	n/a	FR1	2	R1304N
2849.195	11.17	2850875	REC_WORD_VV	11.17	n/a	<>	-999	23	[0, 0, 0]	n/a	FR1	2	R1304N
2860.365	6.007	2862044	REC_WORD	6.007	n/a	THREAD	10	23	[0, 0, 0]	n/a	FR1	2	R1304N
2866.372	0.001	2868051	REC_END	n/a	n/a	n/a	-999	23	[0, 0, 0]	n/a	FR1	2	R1304N
2866.373	0.014	2868052	TRIAL_END	n/a	n/a	n/a	-999	23	[0, 0, 0]	n/a	FR1	2	R1304N
2866.387	0.001	2868066	TRIAL_START	n/a	n/a	n/a	-999	24	[0, 0, 0]	n/a	FR1	2	R1304N
2866.388	0.0	2868067	WAITING_START	n/a	n/a	n/a	-999	24	[0, 0, 0]	n/a	FR1	2	R1304N
2866.388	9.381	2868067	TRIAL	n/a	n/a	n/a	-999	24	[0, 0, 0]	n/a	FR1	2	R1304N
2875.769	0.001	2877448	WAITING_END	n/a	n/a	n/a	-999	24	[0, 0, 0]	n/a	FR1	2	R1304N
2875.77	10.428	2877449	COUNTDOWN_START	n/a	n/a	n/a	-999	24	[0, 0, 0]	n/a	FR1	2	R1304N
2886.198	0.001	2887876	COUNTDOWN_END	n/a	n/a	n/a	-999	24	[0, 0, 0]	n/a	FR1	2	R1304N
2886.199	1.207	2887877	ORIENT_START	n/a	n/a	n/a	-999	24	[0, 0, 0]	n/a	FR1	2	R1304N
2887.406	0.0	2889084	ORIENT_END	n/a	n/a	n/a	-999	24	[0, 0, 0]	n/a	FR1	2	R1304N
2887.406	1.0	2889084	ENCODING_START	n/a	n/a	n/a	-999	24	[0, 0, 0]	n/a	FR1	2	R1304N
2888.406	1.632	2890084	WORD	n/a	n/a	HAT	1	24	[0, 0, 0]	n/a	FR1	2	R1304N
2890.038	0.948	2891716	WORD_OFF	n/a	n/a	HAT	1	24	[0, 0, 0]	n/a	FR1	2	R1304N
2890.986	1.637	2892664	WORD	n/a	n/a	WHEEL	2	24	[0, 0, 0]	n/a	FR1	2	R1304N
2892.623	0.874	2894301	WORD_OFF	n/a	n/a	WHEEL	2	24	[0, 0, 0]	n/a	FR1	2	R1304N
2893.497	1.626	2895175	WORD	n/a	n/a	JAIL	3	24	[0, 0, 0]	n/a	FR1	2	R1304N
2895.123	1.073	2896801	WORD_OFF	n/a	n/a	JAIL	3	24	[0, 0, 0]	n/a	FR1	2	R1304N
2896.196	1.627	2897874	WORD	n/a	n/a	JUDGE	4	24	[0, 0, 0]	n/a	FR1	2	R1304N
2897.823	0.93	2899501	WORD_OFF	n/a	n/a	JUDGE	4	24	[0, 0, 0]	n/a	FR1	2	R1304N
2898.753	1.621	2900431	WORD	n/a	n/a	HAWK	5	24	[0, 0, 0]	n/a	FR1	2	R1304N
2900.374	0.797	2902052	WORD_OFF	n/a	n/a	HAWK	5	24	[0, 0, 0]	n/a	FR1	2	R1304N
2901.171	1.636	2902848	WORD	n/a	n/a	FORT	6	24	[0, 0, 0]	n/a	FR1	2	R1304N
2902.807	0.846	2904484	WORD_OFF	n/a	n/a	FORT	6	24	[0, 0, 0]	n/a	FR1	2	R1304N
2903.653	1.621	2905330	WORD	n/a	n/a	CLOCK	7	24	[0, 0, 0]	n/a	FR1	2	R1304N
2905.274	1.132	2906951	WORD_OFF	n/a	n/a	CLOCK	7	24	[0, 0, 0]	n/a	FR1	2	R1304N
2906.406	1.619	2908083	WORD	n/a	n/a	TANK	8	24	[0, 0, 0]	n/a	FR1	2	R1304N
2908.025	0.954	2909702	WORD_OFF	n/a	n/a	TANK	8	24	[0, 0, 0]	n/a	FR1	2	R1304N
2908.979	1.614	2910656	WORD	n/a	n/a	DOLL	9	24	[0, 0, 0]	n/a	FR1	2	R1304N
2910.593	1.072	2912270	WORD_OFF	n/a	n/a	DOLL	9	24	[0, 0, 0]	n/a	FR1	2	R1304N
2911.665	1.627	2913342	WORD	n/a	n/a	VEST	10	24	[0, 0, 0]	n/a	FR1	2	R1304N
2913.292	0.911	2914969	WORD_OFF	n/a	n/a	VEST	10	24	[0, 0, 0]	n/a	FR1	2	R1304N
2914.203	1.623	2915880	WORD	n/a	n/a	WORLD	11	24	[0, 0, 0]	n/a	FR1	2	R1304N
2915.826	0.929	2917503	WORD_OFF	n/a	n/a	WORLD	11	24	[0, 0, 0]	n/a	FR1	2	R1304N
2916.755	1.621	2918432	WORD	n/a	n/a	GLASS	12	24	[0, 0, 0]	n/a	FR1	2	R1304N
2918.376	0.001	2920053	WORD_OFF	n/a	n/a	GLASS	12	24	[0, 0, 0]	n/a	FR1	2	R1304N
2918.377	0.0	2920054	ENCODING_END	n/a	n/a	n/a	-999	24	[0, 0, 0]	n/a	FR1	2	R1304N
2918.377	0.0	2920054	DISTRACT_START	n/a	n/a	n/a	-999	24	[0, 0, 0]	n/a	FR1	2	R1304N
2918.377	0.017	2920054	START	n/a	n/a	n/a	-999	24	[-999, -999, -999]	n/a	FR1	2	R1304N
2918.394	13.518	2920071	PROB	13.518	n/a	n/a	-999	24	[5, 1, 9]	8	FR1	2	R1304N
2931.912	4.901	2933588	PROB	4.901	n/a	n/a	-999	24	[1, 4, 7]	6	FR1	2	R1304N
2936.813	5.676	2938489	PROB	5.676	n/a	n/a	-999	24	[1, 6, 6]	7	FR1	2	R1304N
2942.489	0.009	2944165	STOP	n/a	n/a	n/a	-999	24	[-999, -999, -999]	n/a	FR1	2	R1304N
2942.498	0.504	2944174	DISTRACT_END	n/a	n/a	n/a	-999	24	[0, 0, 0]	n/a	FR1	2	R1304N
2943.002	1.645	2944678	RETRIEVAL_ORIENT_START	n/a	n/a	n/a	-999	24	[0, 0, 0]	n/a	FR1	2	R1304N
2944.647	0.001	2946323	RETRIEVAL_ORIENT_END	n/a	n/a	n/a	-999	24	[0, 0, 0]	n/a	FR1	2	R1304N
2944.648	3.942	2946324	REC_START	n/a	n/a	n/a	-999	24	[0, 0, 0]	n/a	FR1	2	R1304N
2948.59	6.13	2950266	REC_WORD	6.13	n/a	FACE	-999	24	[0, 0, 0]	n/a	FR1	2	R1304N
2954.72	2.23	2956395	REC_WORD	2.23	n/a	SHIP	-999	24	[0, 0, 0]	n/a	FR1	2	R1304N
2956.95	17.707	2958625	REC_WORD	17.707	n/a	BEAR	-999	24	[0, 0, 0]	n/a	FR1	2	R1304N
2974.657	0.0	2976331	REC_END	n/a	n/a	n/a	-999	24	[0, 0, 0]	n/a	FR1	2	R1304N
2974.657	0.013	2976331	TRIAL_END	n/a	n/a	n/a	-999	24	[0, 0, 0]	n/a	FR1	2	R1304N
2974.67	0.001	2976344	TRIAL_START	n/a	n/a	n/a	-999	25	[0, 0, 0]	n/a	FR1	2	R1304N
2974.671	0.0	2976345	TRIAL	n/a	n/a	n/a	-999	25	[0, 0, 0]	n/a	FR1	2	R1304N
2974.671	12.751	2976345	WAITING_START	n/a	n/a	n/a	-999	25	[0, 0, 0]	n/a	FR1	2	R1304N
2987.422	0.001	2989096	WAITING_END	n/a	n/a	n/a	-999	25	[0, 0, 0]	n/a	FR1	2	R1304N
2987.423	10.429	2989097	COUNTDOWN_START	n/a	n/a	n/a	-999	25	[0, 0, 0]	n/a	FR1	2	R1304N
2997.852	0.0	2999525	COUNTDOWN_END	n/a	n/a	n/a	-999	25	[0, 0, 0]	n/a	FR1	2	R1304N
2997.852	1.088	2999525	ORIENT_START	n/a	n/a	n/a	-999	25	[0, 0, 0]	n/a	FR1	2	R1304N
2998.94	0.0	3000613	ORIENT_END	n/a	n/a	n/a	-999	25	[0, 0, 0]	n/a	FR1	2	R1304N
2998.94	0.792	3000613	ENCODING_START	n/a	n/a	n/a	-999	25	[0, 0, 0]	n/a	FR1	2	R1304N
2999.732	1.625	3001405	WORD	n/a	n/a	RIB	1	25	[0, 0, 0]	n/a	FR1	2	R1304N
3001.357	1.114	3003030	WORD_OFF	n/a	n/a	RIB	1	25	[0, 0, 0]	n/a	FR1	2	R1304N
3002.471	1.636	3004144	WORD	n/a	n/a	DART	2	25	[0, 0, 0]	n/a	FR1	2	R1304N
3004.107	0.987	3005780	WORD_OFF	n/a	n/a	DART	2	25	[0, 0, 0]	n/a	FR1	2	R1304N
3005.094	1.631	3006767	WORD	n/a	n/a	GOLD	3	25	[0, 0, 0]	n/a	FR1	2	R1304N
3006.725	0.822	3008398	WORD_OFF	n/a	n/a	GOLD	3	25	[0, 0, 0]	n/a	FR1	2	R1304N
3007.547	1.628	3009220	WORD	n/a	n/a	BAT	4	25	[0, 0, 0]	n/a	FR1	2	R1304N
3009.175	0.813	3010848	WORD_OFF	n/a	n/a	BAT	4	25	[0, 0, 0]	n/a	FR1	2	R1304N
3009.988	1.605	3011661	WORD	n/a	n/a	SHELL	5	25	[0, 0, 0]	n/a	FR1	2	R1304N
3011.593	1.108	3013266	WORD_OFF	n/a	n/a	SHELL	5	25	[0, 0, 0]	n/a	FR1	2	R1304N
3012.701	1.625	3014374	WORD	n/a	n/a	ARM	6	25	[0, 0, 0]	n/a	FR1	2	R1304N
3014.326	0.838	3015999	WORD_OFF	n/a	n/a	ARM	6	25	[0, 0, 0]	n/a	FR1	2	R1304N
3015.164	1.629	3016837	WORD	n/a	n/a	FLUTE	7	25	[0, 0, 0]	n/a	FR1	2	R1304N
3016.793	0.899	3018466	WORD_OFF	n/a	n/a	FLUTE	7	25	[0, 0, 0]	n/a	FR1	2	R1304N
3017.692	1.635	3019365	WORD	n/a	n/a	TRUCK	8	25	[0, 0, 0]	n/a	FR1	2	R1304N
3019.327	1.044	3021000	WORD_OFF	n/a	n/a	TRUCK	8	25	[0, 0, 0]	n/a	FR1	2	R1304N
3020.371	1.623	3022044	WORD	n/a	n/a	SNOW	9	25	[0, 0, 0]	n/a	FR1	2	R1304N
3021.994	1.097	3023666	WORD_OFF	n/a	n/a	SNOW	9	25	[0, 0, 0]	n/a	FR1	2	R1304N
3023.091	1.637	3024763	WORD	n/a	n/a	SMOKE	10	25	[0, 0, 0]	n/a	FR1	2	R1304N
3024.728	1.021	3026400	WORD_OFF	n/a	n/a	SMOKE	10	25	[0, 0, 0]	n/a	FR1	2	R1304N
3025.749	1.629	3027421	WORD	n/a	n/a	STORE	11	25	[0, 0, 0]	n/a	FR1	2	R1304N
3027.378	0.911	3029050	WORD_OFF	n/a	n/a	STORE	11	25	[0, 0, 0]	n/a	FR1	2	R1304N
3028.289	1.623	3029961	WORD	n/a	n/a	LAMB	12	25	[0, 0, 0]	n/a	FR1	2	R1304N
3029.912	0.0	3031584	WORD_OFF	n/a	n/a	LAMB	12	25	[0, 0, 0]	n/a	FR1	2	R1304N
3029.912	0.0	3031584	ENCODING_END	n/a	n/a	n/a	-999	25	[0, 0, 0]	n/a	FR1	2	R1304N
3029.912	0.0	3031584	DISTRACT_START	n/a	n/a	n/a	-999	25	[0, 0, 0]	n/a	FR1	2	R1304N
3029.912	0.016	3031584	START	n/a	n/a	n/a	-999	25	[-999, -999, -999]	n/a	FR1	2	R1304N
3029.928	10.869	3031600	PROB	10.869	n/a	n/a	-999	25	[9, 9, 2]	3	FR1	2	R1304N
3040.797	11.194	3042469	PROB	11.194	n/a	n/a	-999	25	[7, 7, 5]	6	FR1	2	R1304N
3051.991	0.008	3053662	STOP	n/a	n/a	n/a	-999	25	[-999, -999, -999]	n/a	FR1	2	R1304N
3051.999	0.643	3053670	DISTRACT_END	n/a	n/a	n/a	-999	25	[0, 0, 0]	n/a	FR1	2	R1304N
3052.642	1.707	3054313	RETRIEVAL_ORIENT_START	n/a	n/a	n/a	-999	25	[0, 0, 0]	n/a	FR1	2	R1304N
3054.349	0.0	3056020	RETRIEVAL_ORIENT_END	n/a	n/a	n/a	-999	25	[0, 0, 0]	n/a	FR1	2	R1304N
3054.349	10.175	3056020	REC_START	n/a	n/a	n/a	-999	25	[0, 0, 0]	n/a	FR1	2	R1304N
3064.524	2.397	3066195	REC_WORD_VV	2.397	n/a	<>	-999	25	[0, 0, 0]	n/a	FR1	2	R1304N
3066.921	6.75	3068592	REC_WORD_VV	6.75	n/a	<>	-999	25	[0, 0, 0]	n/a	FR1	2	R1304N
3073.671	5.237	3075341	REC_WORD_VV	5.237	n/a	<>	-999	25	[0, 0, 0]	n/a	FR1	2	R1304N
3078.908	3.298	3080578	REC_WORD	3.298	n/a	BEAR	-999	25	[0, 0, 0]	n/a	FR1	2	R1304N
3082.206	2.152	3083876	REC_WORD	2.152	n/a	FACE	-999	25	[0, 0, 0]	n/a	FR1	2	R1304N
3084.358	0.0	3086028	REC_END	n/a	n/a	n/a	-999	25	[0, 0, 0]	n/a	FR1	2	R1304N
3084.358	0.013	3086028	TRIAL_END	n/a	n/a	n/a	-999	25	[0, 0, 0]	n/a	FR1	2	R1304N
3084.371	22.27	3086041	WAITING_START	n/a	n/a	n/a	-999	25	[0, 0, 0]	n/a	FR1	2	R1304N
3106.641	0.0	3108310	WAITING_END	n/a	n/a	n/a	-999	25	[0, 0, 0]	n/a	FR1	2	R1304N
