onset	duration	sample	trial_type	response_time	stim_file	item_name	serialpos	list	test	answer	experiment	session	subject
0.0	16.812	224754	SESS_START	n/a	n/a	n/a	-999	-999	[0, 0, 0]	n/a	FR1	1	R1003P
16.812	10.428	233160	COUNTDOWN_START	n/a	n/a	n/a	-999	-999	[0, 0, 0]	n/a	FR1	1	R1003P
27.24	3.758	238373	COUNTDOWN_END	n/a	n/a	n/a	-999	-999	[0, 0, 0]	n/a	FR1	1	R1003P
30.998	2.417	240252	PRACTICE_WORD	n/a	n/a	BEAM	1	-1	[0, 0, 0]	n/a	FR1	1	R1003P
33.415	2.584	241461	PRACTICE_WORD	n/a	n/a	RING	2	-1	[0, 0, 0]	n/a	FR1	1	R1003P
35.999	2.568	242753	PRACTICE_WORD	n/a	n/a	WAGON	3	-1	[0, 0, 0]	n/a	FR1	1	R1003P
38.567	2.4	244037	PRACTICE_WORD	n/a	n/a	COTTON	4	-1	[0, 0, 0]	n/a	FR1	1	R1003P
40.967	2.467	245236	PRACTICE_WORD	n/a	n/a	RHINO	5	-1	[0, 0, 0]	n/a	FR1	1	R1003P
43.434	2.501	246470	PRACTICE_WORD	n/a	n/a	WATCH	6	-1	[0, 0, 0]	n/a	FR1	1	R1003P
45.935	2.467	247720	PRACTICE_WORD	n/a	n/a	FLOOD	7	-1	[0, 0, 0]	n/a	FR1	1	R1003P
48.402	2.6	248954	PRACTICE_WORD	n/a	n/a	CAMEL	8	-1	[0, 0, 0]	n/a	FR1	1	R1003P
51.002	2.517	250254	PRACTICE_WORD	n/a	n/a	ATTIC	9	-1	[0, 0, 0]	n/a	FR1	1	R1003P
53.519	2.601	251512	PRACTICE_WORD	n/a	n/a	TONGUE	10	-1	[0, 0, 0]	n/a	FR1	1	R1003P
56.12	2.434	252813	PRACTICE_WORD	n/a	n/a	CHEST	11	-1	[0, 0, 0]	n/a	FR1	1	R1003P
58.554	1.617	254029	PRACTICE_WORD	n/a	n/a	IRON	12	-1	[0, 0, 0]	n/a	FR1	1	R1003P
60.171	0.0	254838	PRACTICE_DISTRACT_START	n/a	n/a	n/a	-999	-1	[0, 0, 0]	n/a	FR1	1	R1003P
60.171	0.016	254838	START	n/a	n/a	n/a	-999	-1	[-999, -999, -999]	n/a	FR1	1	R1003P
60.187	2.717	254846	PROB	2.717	n/a	n/a	-999	-1	[4, 4, 3]	11	FR1	1	R1003P
62.904	3.818	256204	PROB	3.818	n/a	n/a	-999	-1	[7, 6, 7]	20	FR1	1	R1003P
66.722	2.984	258113	PROB	2.984	n/a	n/a	-999	-1	[7, 3, 4]	14	FR1	1	R1003P
69.706	2.05	259605	PROB	2.05	n/a	n/a	-999	-1	[3, 7, 3]	13	FR1	1	R1003P
71.756	2.617	260630	PROB	2.617	n/a	n/a	-999	-1	[6, 3, 6]	15	FR1	1	R1003P
74.373	2.767	261939	PROB	2.767	n/a	n/a	-999	-1	[8, 3, 7]	18	FR1	1	R1003P
77.14	4.046	263322	PROB	4.046	n/a	n/a	-999	-1	[8, 7, 7]	22	FR1	1	R1003P
81.186	0.005	265345	STOP	n/a	n/a	n/a	-999	-1	[-999, -999, -999]	n/a	FR1	1	R1003P
81.191	0.636	265347	PRACTICE_DISTRACT_END	n/a	n/a	n/a	-999	-1	[0, 0, 0]	n/a	FR1	1	R1003P
81.827	30.515	265665	PRACTICE_REC_START	n/a	n/a	n/a	-999	-1	[0, 0, 0]	n/a	FR1	1	R1003P
112.342	5.24	280922	PRACTICE_REC_END	n/a	n/a	n/a	-999	-1	[0, 0, 0]	n/a	FR1	1	R1003P
117.582	0.0	283542	TRIAL	n/a	n/a	n/a	-999	1	[0, 0, 0]	n/a	FR1	1	R1003P
117.582	10.428	283542	COUNTDOWN_START	n/a	n/a	n/a	-999	1	[0, 0, 0]	n/a	FR1	1	R1003P
128.01	0.007	288756	COUNTDOWN_END	n/a	n/a	n/a	-999	1	[0, 0, 0]	n/a	FR1	1	R1003P
128.017	2.417	288759	ORIENT	n/a	n/a	n/a	-999	1	[0, 0, 0]	n/a	FR1	1	R1003P
130.434	2.517	289968	WORD	n/a	wordpools/wordpool_EN.txt	HOUSE	1	1	[0, 0, 0]	n/a	FR1	1	R1003P
132.951	2.401	291226	WORD	n/a	wordpools/wordpool_EN.txt	TRUCK	2	1	[0, 0, 0]	n/a	FR1	1	R1003P
135.352	2.467	292426	WORD	n/a	wordpools/wordpool_EN.txt	FARM	3	1	[0, 0, 0]	n/a	FR1	1	R1003P
137.819	2.416	293660	WORD	n/a	wordpools/wordpool_EN.txt	BLUSH	4	1	[0, 0, 0]	n/a	FR1	1	R1003P
140.235	2.485	294868	WORD	n/a	wordpools/wordpool_EN.txt	SMILE	5	1	[0, 0, 0]	n/a	FR1	1	R1003P
142.72	2.383	296110	WORD	n/a	wordpools/wordpool_EN.txt	SPRING	6	1	[0, 0, 0]	n/a	FR1	1	R1003P
145.103	2.468	297302	WORD	n/a	wordpools/wordpool_EN.txt	VINE	7	1	[0, 0, 0]	n/a	FR1	1	R1003P
147.571	2.483	298536	WORD	n/a	wordpools/wordpool_EN.txt	LIP	8	1	[0, 0, 0]	n/a	FR1	1	R1003P
150.054	2.583	299777	WORD	n/a	wordpools/wordpool_EN.txt	LAWN	9	1	[0, 0, 0]	n/a	FR1	1	R1003P
152.637	2.535	301068	WORD	n/a	wordpools/wordpool_EN.txt	STICK	10	1	[0, 0, 0]	n/a	FR1	1	R1003P
155.172	2.534	302336	WORD	n/a	wordpools/wordpool_EN.txt	TREE	11	1	[0, 0, 0]	n/a	FR1	1	R1003P
157.706	1.617	303603	WORD	n/a	wordpools/wordpool_EN.txt	TENT	12	1	[0, 0, 0]	n/a	FR1	1	R1003P
159.323	0.0	304411	DISTRACT_START	n/a	n/a	n/a	-999	1	[0, 0, 0]	n/a	FR1	1	R1003P
159.323	0.016	304411	START	n/a	n/a	n/a	-999	1	[-999, -999, -999]	n/a	FR1	1	R1003P
159.339	2.517	304419	PROB	2.517	n/a	n/a	-999	1	[9, 4, 1]	14	FR1	1	R1003P
161.856	2.951	305678	PROB	2.951	n/a	n/a	-999	1	[2, 3, 5]	10	FR1	1	R1003P
164.807	2.067	307153	PROB	2.067	n/a	n/a	-999	1	[1, 4, 4]	9	FR1	1	R1003P
166.874	3.067	308187	PROB	3.067	n/a	n/a	-999	1	[3, 8, 3]	14	FR1	1	R1003P
169.941	3.751	309720	PROB	3.751	n/a	n/a	-999	1	[4, 8, 3]	15	FR1	1	R1003P
173.692	4.134	311595	PROB	4.134	n/a	n/a	-999	1	[6, 8, 6]	20	FR1	1	R1003P
177.826	1.647	313662	PROB	1.647	n/a	n/a	-999	1	[9, 1, 1]	11	FR1	1	R1003P
179.473	0.003	314486	STOP	n/a	n/a	n/a	-999	1	[-999, -999, -999]	n/a	FR1	1	R1003P
179.476	1.219	314487	DISTRACT_END	n/a	n/a	n/a	-999	1	[0, 0, 0]	n/a	FR1	1	R1003P
180.695	0.77	315097	REC_START	n/a	n/a	n/a	-999	1	[0, 0, 0]	n/a	FR1	1	R1003P
181.465	0.899	315482	REC_WORD	0.899	n/a	HOUSE	1	1	[0, 0, 0]	n/a	FR1	1	R1003P
182.364	0.865	315931	REC_WORD	0.865	n/a	TRUCK	2	1	[0, 0, 0]	n/a	FR1	1	R1003P
183.229	1.175	316364	REC_WORD	1.175	n/a	FARM	3	1	[0, 0, 0]	n/a	FR1	1	R1003P
184.404	1.596	316951	REC_WORD	1.596	n/a	TREE	11	1	[0, 0, 0]	n/a	FR1	1	R1003P
186.0	2.827	317749	REC_WORD	2.827	n/a	LIP	8	1	[0, 0, 0]	n/a	FR1	1	R1003P
188.827	10.113	319163	REC_WORD_VV	10.113	n/a	<>	-999	1	[0, 0, 0]	n/a	FR1	1	R1003P
198.94	11.765	324219	REC_WORD	11.765	n/a	WAGON	-999	1	[0, 0, 0]	n/a	FR1	1	R1003P
210.705	1.678	330101	REC_END	n/a	n/a	n/a	-999	1	[0, 0, 0]	n/a	FR1	1	R1003P
212.383	0.0	330940	TRIAL	n/a	n/a	n/a	-999	2	[0, 0, 0]	n/a	FR1	1	R1003P
212.383	10.428	330940	COUNTDOWN_START	n/a	n/a	n/a	-999	2	[0, 0, 0]	n/a	FR1	1	R1003P
222.811	0.007	336154	COUNTDOWN_END	n/a	n/a	n/a	-999	2	[0, 0, 0]	n/a	FR1	1	R1003P
222.818	2.551	336157	ORIENT	n/a	n/a	n/a	-999	2	[0, 0, 0]	n/a	FR1	1	R1003P
225.369	2.433	337433	WORD	n/a	wordpools/wordpool_EN.txt	PEARL	1	2	[0, 0, 0]	n/a	FR1	1	R1003P
227.802	2.451	338649	WORD	n/a	wordpools/wordpool_EN.txt	STEAM	2	2	[0, 0, 0]	n/a	FR1	1	R1003P
230.253	2.467	339874	WORD	n/a	wordpools/wordpool_EN.txt	JET	3	2	[0, 0, 0]	n/a	FR1	1	R1003P
232.72	2.567	341108	WORD	n/a	wordpools/wordpool_EN.txt	ICE	4	2	[0, 0, 0]	n/a	FR1	1	R1003P
235.287	2.6	342391	WORD	n/a	wordpools/wordpool_EN.txt	SEA	5	2	[0, 0, 0]	n/a	FR1	1	R1003P
237.887	2.468	343691	WORD	n/a	wordpools/wordpool_EN.txt	SPARK	6	2	[0, 0, 0]	n/a	FR1	1	R1003P
240.355	2.567	344925	WORD	n/a	wordpools/wordpool_EN.txt	SUN	7	2	[0, 0, 0]	n/a	FR1	1	R1003P
242.922	2.533	346209	WORD	n/a	wordpools/wordpool_EN.txt	SHARK	8	2	[0, 0, 0]	n/a	FR1	1	R1003P
245.455	2.534	347475	WORD	n/a	wordpools/wordpool_EN.txt	PIT	9	2	[0, 0, 0]	n/a	FR1	1	R1003P
247.989	2.534	348742	WORD	n/a	wordpools/wordpool_EN.txt	MAP	10	2	[0, 0, 0]	n/a	FR1	1	R1003P
250.523	2.601	350009	WORD	n/a	wordpools/wordpool_EN.txt	PLANE	11	2	[0, 0, 0]	n/a	FR1	1	R1003P
253.124	1.617	351309	WORD	n/a	wordpools/wordpool_EN.txt	SAIL	12	2	[0, 0, 0]	n/a	FR1	1	R1003P
254.741	0.001	352118	DISTRACT_START	n/a	n/a	n/a	-999	2	[0, 0, 0]	n/a	FR1	1	R1003P
254.742	0.015	352118	START	n/a	n/a	n/a	-999	2	[-999, -999, -999]	n/a	FR1	1	R1003P
254.757	3.101	352126	PROB	3.101	n/a	n/a	-999	2	[1, 7, 4]	12	FR1	1	R1003P
257.858	4.167	353676	PROB	4.167	n/a	n/a	-999	2	[6, 2, 7]	15	FR1	1	R1003P
262.025	2.601	355760	PROB	2.601	n/a	n/a	-999	2	[7, 6, 4]	17	FR1	1	R1003P
264.626	2.567	357060	PROB	2.567	n/a	n/a	-999	2	[3, 4, 4]	11	FR1	1	R1003P
267.193	2.734	358343	PROB	2.734	n/a	n/a	-999	2	[2, 6, 9]	17	FR1	1	R1003P
269.927	3.484	359710	PROB	3.484	n/a	n/a	-999	2	[6, 5, 2]	13	FR1	1	R1003P
273.411	2.007	361452	PROB	2.007	n/a	n/a	-999	2	[4, 2, 6]	12	FR1	1	R1003P
275.418	0.01	362456	STOP	n/a	n/a	n/a	-999	2	[-999, -999, -999]	n/a	FR1	1	R1003P
275.428	1.084	362461	DISTRACT_END	n/a	n/a	n/a	-999	2	[0, 0, 0]	n/a	FR1	1	R1003P
276.512	1.07	363003	REC_START	n/a	n/a	n/a	-999	2	[0, 0, 0]	n/a	FR1	1	R1003P
277.582	0.93	363538	REC_WORD	0.93	n/a	SPARK	6	2	[0, 0, 0]	n/a	FR1	1	R1003P
278.512	1.138	364003	REC_WORD	1.138	n/a	SHARK	8	2	[0, 0, 0]	n/a	FR1	1	R1003P
279.65	1.035	364572	REC_WORD	1.035	n/a	PIT	9	2	[0, 0, 0]	n/a	FR1	1	R1003P
280.685	1.645	365089	REC_WORD	1.645	n/a	SAIL	12	2	[0, 0, 0]	n/a	FR1	1	R1003P
282.33	3.682	365912	REC_WORD	3.682	n/a	STREAM	-999	2	[0, 0, 0]	n/a	FR1	1	R1003P
286.012	7.388	367752	REC_WORD	7.388	n/a	HOUSE	-999	2	[0, 0, 0]	n/a	FR1	1	R1003P
293.4	5.676	371446	REC_WORD	5.676	n/a	SHIRT	-999	2	[0, 0, 0]	n/a	FR1	1	R1003P
299.076	7.446	374284	REC_WORD	7.446	n/a	TAIL	-999	2	[0, 0, 0]	n/a	FR1	1	R1003P
306.522	1.562	378007	REC_END	n/a	n/a	n/a	-999	2	[0, 0, 0]	n/a	FR1	1	R1003P
308.084	0.0	378788	TRIAL	n/a	n/a	n/a	-999	3	[0, 0, 0]	n/a	FR1	1	R1003P
308.084	10.428	378788	COUNTDOWN_START	n/a	n/a	n/a	-999	3	[0, 0, 0]	n/a	FR1	1	R1003P
318.512	0.007	384002	COUNTDOWN_END	n/a	n/a	n/a	-999	3	[0, 0, 0]	n/a	FR1	1	R1003P
318.519	2.501	384005	ORIENT	n/a	n/a	n/a	-999	3	[0, 0, 0]	n/a	FR1	1	R1003P
321.02	2.5	385256	WORD	n/a	wordpools/wordpool_EN.txt	BOY	1	3	[0, 0, 0]	n/a	FR1	1	R1003P
323.52	2.617	386505	WORD	n/a	wordpools/wordpool_EN.txt	MOUSE	2	3	[0, 0, 0]	n/a	FR1	1	R1003P
326.137	2.568	387814	WORD	n/a	wordpools/wordpool_EN.txt	HOOK	3	3	[0, 0, 0]	n/a	FR1	1	R1003P
328.705	2.383	389098	WORD	n/a	wordpools/wordpool_EN.txt	WAND	4	3	[0, 0, 0]	n/a	FR1	1	R1003P
331.088	2.567	390289	WORD	n/a	wordpools/wordpool_EN.txt	RAIN	5	3	[0, 0, 0]	n/a	FR1	1	R1003P
333.655	2.418	391573	WORD	n/a	wordpools/wordpool_EN.txt	FAN	6	3	[0, 0, 0]	n/a	FR1	1	R1003P
336.073	2.4	392782	WORD	n/a	wordpools/wordpool_EN.txt	SKY	7	3	[0, 0, 0]	n/a	FR1	1	R1003P
338.473	2.517	393982	WORD	n/a	wordpools/wordpool_EN.txt	NAIL	8	3	[0, 0, 0]	n/a	FR1	1	R1003P
340.99	2.567	395240	WORD	n/a	wordpools/wordpool_EN.txt	BAT	9	3	[0, 0, 0]	n/a	FR1	1	R1003P
343.557	2.451	396523	WORD	n/a	wordpools/wordpool_EN.txt	GRASS	10	3	[0, 0, 0]	n/a	FR1	1	R1003P
346.008	2.55	397749	WORD	n/a	wordpools/wordpool_EN.txt	ANT	11	3	[0, 0, 0]	n/a	FR1	1	R1003P
348.558	1.617	399024	WORD	n/a	wordpools/wordpool_EN.txt	CHALK	12	3	[0, 0, 0]	n/a	FR1	1	R1003P
350.175	0.001	399832	DISTRACT_START	n/a	n/a	n/a	-999	3	[0, 0, 0]	n/a	FR1	1	R1003P
350.176	0.016	399833	START	n/a	n/a	n/a	-999	3	[-999, -999, -999]	n/a	FR1	1	R1003P
350.192	3.984	399841	PROB	3.984	n/a	n/a	-999	3	[5, 2, 9]	16	FR1	1	R1003P
354.176	3.767	401833	PROB	3.767	n/a	n/a	-999	3	[9, 8, 6]	23	FR1	1	R1003P
357.943	2.918	403716	PROB	2.918	n/a	n/a	-999	3	[8, 6, 6]	20	FR1	1	R1003P
360.861	2.083	405175	PROB	2.083	n/a	n/a	-999	3	[9, 5, 1]	15	FR1	1	R1003P
362.944	2.334	406216	PROB	2.334	n/a	n/a	-999	3	[7, 1, 2]	10	FR1	1	R1003P
365.278	3.101	407383	PROB	3.101	n/a	n/a	-999	3	[9, 9, 4]	22	FR1	1	R1003P
368.379	3.167	408934	PROB	3.167	n/a	n/a	-999	3	[5, 3, 8]	16	FR1	1	R1003P
371.546	0.017	410517	STOP	n/a	n/a	n/a	-999	3	[-999, -999, -999]	n/a	FR1	1	R1003P
371.563	1.067	410526	DISTRACT_END	n/a	n/a	n/a	-999	3	[0, 0, 0]	n/a	FR1	1	R1003P
372.63	0.871	411059	REC_START	n/a	n/a	n/a	-999	3	[0, 0, 0]	n/a	FR1	1	R1003P
373.501	0.585	411495	REC_WORD	0.585	n/a	BOY	1	3	[0, 0, 0]	n/a	FR1	1	R1003P
374.086	0.824	411787	REC_WORD	0.824	n/a	MOUSE	2	3	[0, 0, 0]	n/a	FR1	1	R1003P
374.91	0.896	412199	REC_WORD	0.896	n/a	HOOK	3	3	[0, 0, 0]	n/a	FR1	1	R1003P
375.806	0.832	412647	REC_WORD	0.832	n/a	WAND	4	3	[0, 0, 0]	n/a	FR1	1	R1003P
376.638	1.499	413063	REC_WORD	1.499	n/a	PAIL	-999	3	[0, 0, 0]	n/a	FR1	1	R1003P
378.137	6.628	413813	REC_WORD	6.628	n/a	ANT	11	3	[0, 0, 0]	n/a	FR1	1	R1003P
384.765	4.838	417126	REC_WORD	4.838	n/a	TOOL	-999	3	[0, 0, 0]	n/a	FR1	1	R1003P
389.603	13.04	419545	REC_WORD	13.04	n/a	EEL	-999	3	[0, 0, 0]	n/a	FR1	1	R1003P
402.643	1.509	426065	REC_END	n/a	n/a	n/a	-999	3	[0, 0, 0]	n/a	FR1	1	R1003P
404.152	0.0	426819	TRIAL	n/a	n/a	n/a	-999	4	[0, 0, 0]	n/a	FR1	1	R1003P
404.152	10.428	426819	COUNTDOWN_START	n/a	n/a	n/a	-999	4	[0, 0, 0]	n/a	FR1	1	R1003P
414.58	0.007	432033	COUNTDOWN_END	n/a	n/a	n/a	-999	4	[0, 0, 0]	n/a	FR1	1	R1003P
414.587	2.618	432037	ORIENT	n/a	n/a	n/a	-999	4	[0, 0, 0]	n/a	FR1	1	R1003P
417.205	2.383	433345	WORD	n/a	wordpools/wordpool_EN.txt	SHEEP	1	4	[0, 0, 0]	n/a	FR1	1	R1003P
419.588	2.417	434537	WORD	n/a	wordpools/wordpool_EN.txt	GOAT	2	4	[0, 0, 0]	n/a	FR1	1	R1003P
422.005	2.418	435745	WORD	n/a	wordpools/wordpool_EN.txt	MOOSE	3	4	[0, 0, 0]	n/a	FR1	1	R1003P
424.423	2.5	436954	WORD	n/a	wordpools/wordpool_EN.txt	MAIL	4	4	[0, 0, 0]	n/a	FR1	1	R1003P
426.923	2.467	438204	WORD	n/a	wordpools/wordpool_EN.txt	SKI	5	4	[0, 0, 0]	n/a	FR1	1	R1003P
429.39	2.401	439438	WORD	n/a	wordpools/wordpool_EN.txt	BREAD	6	4	[0, 0, 0]	n/a	FR1	1	R1003P
431.791	2.517	440638	WORD	n/a	wordpools/wordpool_EN.txt	HAT	7	4	[0, 0, 0]	n/a	FR1	1	R1003P
434.308	2.584	441897	WORD	n/a	wordpools/wordpool_EN.txt	BADGE	8	4	[0, 0, 0]	n/a	FR1	1	R1003P
436.892	2.633	443188	WORD	n/a	wordpools/wordpool_EN.txt	RICE	9	4	[0, 0, 0]	n/a	FR1	1	R1003P
439.525	2.434	444505	WORD	n/a	wordpools/wordpool_EN.txt	SNOW	10	4	[0, 0, 0]	n/a	FR1	1	R1003P
441.959	2.501	445722	WORD	n/a	wordpools/wordpool_EN.txt	FOG	11	4	[0, 0, 0]	n/a	FR1	1	R1003P
444.46	1.617	446972	WORD	n/a	wordpools/wordpool_EN.txt	STORE	12	4	[0, 0, 0]	n/a	FR1	1	R1003P
446.077	0.001	447781	DISTRACT_START	n/a	n/a	n/a	-999	4	[0, 0, 0]	n/a	FR1	1	R1003P
446.078	0.015	447781	START	n/a	n/a	n/a	-999	4	[-999, -999, -999]	n/a	FR1	1	R1003P
446.093	4.318	447789	PROB	4.318	n/a	n/a	-999	4	[4, 9, 5]	8	FR1	1	R1003P
450.411	5.501	449948	PROB	5.501	n/a	n/a	-999	4	[3, 1, 2]	6	FR1	1	R1003P
455.912	5.418	452698	PROB	5.418	n/a	n/a	-999	4	[7, 4, 8]	19	FR1	1	R1003P
461.33	4.034	455407	PROB	4.034	n/a	n/a	-999	4	[8, 3, 1]	12	FR1	1	R1003P
465.364	4.502	457424	PROB	4.502	n/a	n/a	-999	4	[9, 8, 6]	23	FR1	1	R1003P
469.866	0.015	459675	STOP	n/a	n/a	n/a	-999	4	[-999, -999, -999]	n/a	FR1	1	R1003P
469.881	1.151	459682	DISTRACT_END	n/a	n/a	n/a	-999	4	[0, 0, 0]	n/a	FR1	1	R1003P
471.032	1.46	460258	REC_START	n/a	n/a	n/a	-999	4	[0, 0, 0]	n/a	FR1	1	R1003P
472.492	0.885	460988	REC_WORD	0.885	n/a	SHEEP	1	4	[0, 0, 0]	n/a	FR1	1	R1003P
473.377	0.725	461430	REC_WORD	0.725	n/a	GOAT	2	4	[0, 0, 0]	n/a	FR1	1	R1003P
474.102	0.764	461792	REC_WORD	0.764	n/a	MOOSE	3	4	[0, 0, 0]	n/a	FR1	1	R1003P
474.866	2.059	462174	REC_WORD	2.059	n/a	SAIL	-999	4	[0, 0, 0]	n/a	FR1	1	R1003P
476.925	4.977	463204	REC_WORD	4.977	n/a	BADGE	8	4	[0, 0, 0]	n/a	FR1	1	R1003P
481.902	8.464	465692	REC_WORD	8.464	n/a	SHIP	-999	4	[0, 0, 0]	n/a	FR1	1	R1003P
490.366	2.263	469924	REC_WORD	2.263	n/a	FENCE	-999	4	[0, 0, 0]	n/a	FR1	1	R1003P
492.629	5.318	471055	REC_WORD	5.318	n/a	ART	-999	4	[0, 0, 0]	n/a	FR1	1	R1003P
497.947	3.095	473714	REC_WORD	3.095	n/a	BOY	-999	4	[0, 0, 0]	n/a	FR1	1	R1003P
501.042	1.645	475262	REC_END	n/a	n/a	n/a	-999	4	[0, 0, 0]	n/a	FR1	1	R1003P
502.687	0.001	476084	COUNTDOWN_START	n/a	n/a	n/a	-999	5	[0, 0, 0]	n/a	FR1	1	R1003P
502.688	10.427	476085	TRIAL	n/a	n/a	n/a	-999	5	[0, 0, 0]	n/a	FR1	1	R1003P
513.115	0.008	481298	COUNTDOWN_END	n/a	n/a	n/a	-999	5	[0, 0, 0]	n/a	FR1	1	R1003P
513.123	2.4	481302	ORIENT	n/a	n/a	n/a	-999	5	[0, 0, 0]	n/a	FR1	1	R1003P
515.523	2.534	482502	WORD	n/a	wordpools/wordpool_EN.txt	ROOF	1	5	[0, 0, 0]	n/a	FR1	1	R1003P
518.057	2.583	483769	WORD	n/a	wordpools/wordpool_EN.txt	GATE	2	5	[0, 0, 0]	n/a	FR1	1	R1003P
520.64	2.468	485060	WORD	n/a	wordpools/wordpool_EN.txt	ROCK	3	5	[0, 0, 0]	n/a	FR1	1	R1003P
523.108	2.533	486294	WORD	n/a	wordpools/wordpool_EN.txt	FLAME	4	5	[0, 0, 0]	n/a	FR1	1	R1003P
525.641	2.518	487561	WORD	n/a	wordpools/wordpool_EN.txt	CLAY	5	5	[0, 0, 0]	n/a	FR1	1	R1003P
528.159	2.45	488820	WORD	n/a	wordpools/wordpool_EN.txt	BOX	6	5	[0, 0, 0]	n/a	FR1	1	R1003P
530.609	2.451	490044	WORD	n/a	wordpools/wordpool_EN.txt	HOLE	7	5	[0, 0, 0]	n/a	FR1	1	R1003P
533.06	2.5	491270	WORD	n/a	wordpools/wordpool_EN.txt	WHALE	8	5	[0, 0, 0]	n/a	FR1	1	R1003P
535.56	2.434	492520	WORD	n/a	wordpools/wordpool_EN.txt	BEAN	9	5	[0, 0, 0]	n/a	FR1	1	R1003P
537.994	2.484	493737	WORD	n/a	wordpools/wordpool_EN.txt	THREAD	10	5	[0, 0, 0]	n/a	FR1	1	R1003P
540.478	2.467	494979	WORD	n/a	wordpools/wordpool_EN.txt	FOAM	11	5	[0, 0, 0]	n/a	FR1	1	R1003P
542.945	1.617	496212	WORD	n/a	wordpools/wordpool_EN.txt	SMOKE	12	5	[0, 0, 0]	n/a	FR1	1	R1003P
544.562	0.001	497021	DISTRACT_START	n/a	n/a	n/a	-999	5	[0, 0, 0]	n/a	FR1	1	R1003P
544.563	0.016	497021	START	n/a	n/a	n/a	-999	5	[-999, -999, -999]	n/a	FR1	1	R1003P
544.579	4.234	497029	PROB	4.234	n/a	n/a	-999	5	[4, 8, 7]	19	FR1	1	R1003P
548.813	2.634	499146	PROB	2.634	n/a	n/a	-999	5	[6, 6, 2]	14	FR1	1	R1003P
551.447	5.017	500463	PROB	5.017	n/a	n/a	-999	5	[8, 6, 9]	23	FR1	1	R1003P
556.464	2.734	502971	PROB	2.734	n/a	n/a	-999	5	[3, 6, 7]	16	FR1	1	R1003P
559.198	4.701	504338	PROB	4.701	n/a	n/a	-999	5	[9, 5, 7]	21	FR1	1	R1003P
563.899	2.535	506689	PROB	2.535	n/a	n/a	-999	5	[1, 4, 9]	14	FR1	1	R1003P
566.434	0.015	507956	STOP	n/a	n/a	n/a	-999	5	[-999, -999, -999]	n/a	FR1	1	R1003P
566.449	1.084	507964	DISTRACT_END	n/a	n/a	n/a	-999	5	[0, 0, 0]	n/a	FR1	1	R1003P
567.533	0.798	508506	REC_START	n/a	n/a	n/a	-999	5	[0, 0, 0]	n/a	FR1	1	R1003P
568.331	0.956	508904	REC_WORD	0.956	n/a	ROOF	1	5	[0, 0, 0]	n/a	FR1	1	R1003P
569.287	0.963	509382	REC_WORD	0.963	n/a	GATE	2	5	[0, 0, 0]	n/a	FR1	1	R1003P
570.25	1.392	509864	REC_WORD	1.392	n/a	FLAME	4	5	[0, 0, 0]	n/a	FR1	1	R1003P
571.642	6.43	510560	REC_WORD	6.43	n/a	WHALE	8	5	[0, 0, 0]	n/a	FR1	1	R1003P
578.072	19.475	513775	REC_WORD	19.475	n/a	STORM	-999	5	[0, 0, 0]	n/a	FR1	1	R1003P
597.547	1.375	523512	REC_END	n/a	n/a	n/a	-999	5	[0, 0, 0]	n/a	FR1	1	R1003P
598.922	0.0	524199	TRIAL	n/a	n/a	n/a	-999	6	[0, 0, 0]	n/a	FR1	1	R1003P
598.922	10.428	524199	COUNTDOWN_START	n/a	n/a	n/a	-999	6	[0, 0, 0]	n/a	FR1	1	R1003P
609.35	0.008	529413	COUNTDOWN_END	n/a	n/a	n/a	-999	6	[0, 0, 0]	n/a	FR1	1	R1003P
609.358	2.5	529417	ORIENT	n/a	n/a	n/a	-999	6	[0, 0, 0]	n/a	FR1	1	R1003P
611.858	2.434	530667	WORD	n/a	wordpools/wordpool_EN.txt	LEG	1	6	[0, 0, 0]	n/a	FR1	1	R1003P
614.292	2.433	531884	WORD	n/a	wordpools/wordpool_EN.txt	PIG	2	6	[0, 0, 0]	n/a	FR1	1	R1003P
616.725	2.584	533100	WORD	n/a	wordpools/wordpool_EN.txt	RAT	3	6	[0, 0, 0]	n/a	FR1	1	R1003P
619.309	2.467	534392	WORD	n/a	wordpools/wordpool_EN.txt	CUBE	4	6	[0, 0, 0]	n/a	FR1	1	R1003P
621.776	2.501	535626	WORD	n/a	wordpools/wordpool_EN.txt	HILL	5	6	[0, 0, 0]	n/a	FR1	1	R1003P
624.277	2.55	536876	WORD	n/a	wordpools/wordpool_EN.txt	LAMB	6	6	[0, 0, 0]	n/a	FR1	1	R1003P
626.827	2.584	538151	WORD	n/a	wordpools/wordpool_EN.txt	ROAD	7	6	[0, 0, 0]	n/a	FR1	1	R1003P
629.411	2.401	539443	WORD	n/a	wordpools/wordpool_EN.txt	FENCE	8	6	[0, 0, 0]	n/a	FR1	1	R1003P
631.812	2.517	540643	WORD	n/a	wordpools/wordpool_EN.txt	COW	9	6	[0, 0, 0]	n/a	FR1	1	R1003P
634.329	2.6	541902	WORD	n/a	wordpools/wordpool_EN.txt	PET	10	6	[0, 0, 0]	n/a	FR1	1	R1003P
636.929	2.434	543202	WORD	n/a	wordpools/wordpool_EN.txt	CAT	11	6	[0, 0, 0]	n/a	FR1	1	R1003P
639.363	1.617	544419	WORD	n/a	wordpools/wordpool_EN.txt	CALF	12	6	[0, 0, 0]	n/a	FR1	1	R1003P
640.98	0.001	545227	DISTRACT_START	n/a	n/a	n/a	-999	6	[0, 0, 0]	n/a	FR1	1	R1003P
640.981	0.016	545228	START	n/a	n/a	n/a	-999	6	[-999, -999, -999]	n/a	FR1	1	R1003P
640.997	3.917	545236	PROB	3.917	n/a	n/a	-999	6	[3, 4, 1]	8	FR1	1	R1003P
644.914	2.317	547194	PROB	2.317	n/a	n/a	-999	6	[4, 4, 1]	9	FR1	1	R1003P
647.231	5.551	548352	PROB	5.551	n/a	n/a	-999	6	[5, 6, 9]	20	FR1	1	R1003P
652.782	3.017	551128	PROB	3.017	n/a	n/a	-999	6	[3, 5, 1]	9	FR1	1	R1003P
655.799	3.584	552636	PROB	3.584	n/a	n/a	-999	6	[5, 9, 8]	22	FR1	1	R1003P
659.383	2.218	554428	PROB	2.218	n/a	n/a	-999	6	[9, 2, 1]	12	FR1	1	R1003P
661.601	0.016	555537	STOP	n/a	n/a	n/a	-999	6	[-999, -999, -999]	n/a	FR1	1	R1003P
661.617	1.118	555545	DISTRACT_END	n/a	n/a	n/a	-999	6	[0, 0, 0]	n/a	FR1	1	R1003P
662.735	0.9	556104	REC_START	n/a	n/a	n/a	-999	6	[0, 0, 0]	n/a	FR1	1	R1003P
663.635	1.091	556554	REC_WORD	1.091	n/a	LEG	1	6	[0, 0, 0]	n/a	FR1	1	R1003P
664.726	1.178	557099	REC_WORD	1.178	n/a	COW	9	6	[0, 0, 0]	n/a	FR1	1	R1003P
665.904	1.974	557688	REC_WORD	1.974	n/a	PIG	2	6	[0, 0, 0]	n/a	FR1	1	R1003P
667.878	1.139	558675	REC_WORD	1.139	n/a	PET	10	6	[0, 0, 0]	n/a	FR1	1	R1003P
669.017	1.653	559245	REC_WORD	1.653	n/a	CAT	11	6	[0, 0, 0]	n/a	FR1	1	R1003P
670.67	2.206	560071	REC_WORD	2.206	n/a	FENCE	8	6	[0, 0, 0]	n/a	FR1	1	R1003P
672.876	3.291	561174	REC_WORD	3.291	n/a	GATE	-999	6	[0, 0, 0]	n/a	FR1	1	R1003P
676.167	4.047	562820	REC_WORD	4.047	n/a	ROAD	7	6	[0, 0, 0]	n/a	FR1	1	R1003P
680.214	6.642	564843	REC_WORD	6.642	n/a	PORCH	-999	6	[0, 0, 0]	n/a	FR1	1	R1003P
686.856	5.889	568164	REC_WORD	5.889	n/a	FENCE	8	6	[0, 0, 0]	n/a	FR1	1	R1003P
692.745	1.512	571108	REC_END	n/a	n/a	n/a	-999	6	[0, 0, 0]	n/a	FR1	1	R1003P
694.257	0.0	571864	COUNTDOWN_START	n/a	n/a	n/a	-999	7	[0, 0, 0]	n/a	FR1	1	R1003P
694.257	10.428	571864	TRIAL	n/a	n/a	n/a	-999	7	[0, 0, 0]	n/a	FR1	1	R1003P
704.685	0.007	577078	COUNTDOWN_END	n/a	n/a	n/a	-999	7	[0, 0, 0]	n/a	FR1	1	R1003P
704.692	2.484	577081	ORIENT	n/a	n/a	n/a	-999	7	[0, 0, 0]	n/a	FR1	1	R1003P
707.176	2.384	578323	WORD	n/a	wordpools/wordpool_EN.txt	CAVE	1	7	[0, 0, 0]	n/a	FR1	1	R1003P
709.56	2.6	579515	WORD	n/a	wordpools/wordpool_EN.txt	STAIR	2	7	[0, 0, 0]	n/a	FR1	1	R1003P
712.16	2.617	580815	WORD	n/a	wordpools/wordpool_EN.txt	COUCH	3	7	[0, 0, 0]	n/a	FR1	1	R1003P
714.777	2.567	582124	WORD	n/a	wordpools/wordpool_EN.txt	DART	4	7	[0, 0, 0]	n/a	FR1	1	R1003P
717.344	2.484	583407	WORD	n/a	wordpools/wordpool_EN.txt	BED	5	7	[0, 0, 0]	n/a	FR1	1	R1003P
719.828	2.384	584649	WORD	n/a	wordpools/wordpool_EN.txt	MAZE	6	7	[0, 0, 0]	n/a	FR1	1	R1003P
722.212	2.417	585841	WORD	n/a	wordpools/wordpool_EN.txt	SNAKE	7	7	[0, 0, 0]	n/a	FR1	1	R1003P
724.629	2.534	587049	WORD	n/a	wordpools/wordpool_EN.txt	CLIFF	8	7	[0, 0, 0]	n/a	FR1	1	R1003P
727.163	2.4	588316	WORD	n/a	wordpools/wordpool_EN.txt	TOE	9	7	[0, 0, 0]	n/a	FR1	1	R1003P
729.563	2.568	589516	WORD	n/a	wordpools/wordpool_EN.txt	CHAIR	10	7	[0, 0, 0]	n/a	FR1	1	R1003P
732.131	2.55	590800	WORD	n/a	wordpools/wordpool_EN.txt	MUD	11	7	[0, 0, 0]	n/a	FR1	1	R1003P
734.681	1.617	592075	WORD	n/a	wordpools/wordpool_EN.txt	BROOM	12	7	[0, 0, 0]	n/a	FR1	1	R1003P
736.298	0.001	592884	DISTRACT_START	n/a	n/a	n/a	-999	7	[0, 0, 0]	n/a	FR1	1	R1003P
736.299	0.016	592884	START	n/a	n/a	n/a	-999	7	[-999, -999, -999]	n/a	FR1	1	R1003P
736.315	2.534	592892	PROB	2.534	n/a	n/a	-999	7	[7, 4, 1]	12	FR1	1	R1003P
738.849	2.35	594159	PROB	2.35	n/a	n/a	-999	7	[8, 5, 1]	14	FR1	1	R1003P
741.199	2.617	595334	PROB	2.617	n/a	n/a	-999	7	[8, 7, 2]	17	FR1	1	R1003P
743.816	4.784	596642	PROB	4.784	n/a	n/a	-999	7	[8, 7, 9]	24	FR1	1	R1003P
748.6	2.884	599034	PROB	2.884	n/a	n/a	-999	7	[2, 4, 9]	15	FR1	1	R1003P
751.484	2.867	600476	PROB	2.867	n/a	n/a	-999	7	[5, 8, 1]	14	FR1	1	R1003P
754.351	2.763	601910	PROB	2.763	n/a	n/a	-999	7	[2, 4, 3]	9	FR1	1	R1003P
757.114	0.005	603291	STOP	n/a	n/a	n/a	-999	7	[-999, -999, -999]	n/a	FR1	1	R1003P
757.119	1.051	603293	DISTRACT_END	n/a	n/a	n/a	-999	7	[0, 0, 0]	n/a	FR1	1	R1003P
758.17	1.193	603819	REC_START	n/a	n/a	n/a	-999	7	[0, 0, 0]	n/a	FR1	1	R1003P
759.363	1.072	604415	REC_WORD	1.072	n/a	CHAIR	10	7	[0, 0, 0]	n/a	FR1	1	R1003P
760.435	1.733	604951	REC_WORD	1.733	n/a	BENCH	-999	7	[0, 0, 0]	n/a	FR1	1	R1003P
762.168	6.919	605818	REC_WORD	6.919	n/a	STAIR	2	7	[0, 0, 0]	n/a	FR1	1	R1003P
769.087	3.087	609277	REC_WORD	3.087	n/a	STORM	-999	7	[0, 0, 0]	n/a	FR1	1	R1003P
772.174	6.542	610821	REC_WORD	6.542	n/a	GATE	-999	7	[0, 0, 0]	n/a	FR1	1	R1003P
778.716	9.464	614091	REC_WORD	9.464	n/a	FENCE	-999	7	[0, 0, 0]	n/a	FR1	1	R1003P
788.18	1.528	618823	REC_END	n/a	n/a	n/a	-999	7	[0, 0, 0]	n/a	FR1	1	R1003P
789.708	0.0	619587	TRIAL	n/a	n/a	n/a	-999	8	[0, 0, 0]	n/a	FR1	1	R1003P
789.708	10.428	619587	COUNTDOWN_START	n/a	n/a	n/a	-999	8	[0, 0, 0]	n/a	FR1	1	R1003P
800.136	0.007	624801	COUNTDOWN_END	n/a	n/a	n/a	-999	8	[0, 0, 0]	n/a	FR1	1	R1003P
800.143	2.434	624804	ORIENT	n/a	n/a	n/a	-999	8	[0, 0, 0]	n/a	FR1	1	R1003P
802.577	2.534	626021	WORD	n/a	wordpools/wordpool_EN.txt	LAKE	1	8	[0, 0, 0]	n/a	FR1	1	R1003P
805.111	2.567	627288	WORD	n/a	wordpools/wordpool_EN.txt	MOUTH	2	8	[0, 0, 0]	n/a	FR1	1	R1003P
807.678	2.401	628572	WORD	n/a	wordpools/wordpool_EN.txt	PEACH	3	8	[0, 0, 0]	n/a	FR1	1	R1003P
810.079	2.45	629772	WORD	n/a	wordpools/wordpool_EN.txt	SQUARE	4	8	[0, 0, 0]	n/a	FR1	1	R1003P
812.529	2.45	630997	WORD	n/a	wordpools/wordpool_EN.txt	BLOOM	5	8	[0, 0, 0]	n/a	FR1	1	R1003P
814.979	2.401	632222	WORD	n/a	wordpools/wordpool_EN.txt	BIRD	6	8	[0, 0, 0]	n/a	FR1	1	R1003P
817.38	2.384	633422	WORD	n/a	wordpools/wordpool_EN.txt	TAIL	7	8	[0, 0, 0]	n/a	FR1	1	R1003P
819.764	2.483	634614	WORD	n/a	wordpools/wordpool_EN.txt	LAND	8	8	[0, 0, 0]	n/a	FR1	1	R1003P
822.247	2.618	635856	WORD	n/a	wordpools/wordpool_EN.txt	FACE	9	8	[0, 0, 0]	n/a	FR1	1	R1003P
824.865	2.383	637165	WORD	n/a	wordpools/wordpool_EN.txt	HAWK	10	8	[0, 0, 0]	n/a	FR1	1	R1003P
827.248	2.501	638356	WORD	n/a	wordpools/wordpool_EN.txt	EEL	11	8	[0, 0, 0]	n/a	FR1	1	R1003P
829.749	1.617	639607	WORD	n/a	wordpools/wordpool_EN.txt	SIGN	12	8	[0, 0, 0]	n/a	FR1	1	R1003P
831.366	0.001	640415	DISTRACT_START	n/a	n/a	n/a	-999	8	[0, 0, 0]	n/a	FR1	1	R1003P
831.367	0.016	640416	START	n/a	n/a	n/a	-999	8	[-999, -999, -999]	n/a	FR1	1	R1003P
831.383	2.733	640424	PROB	2.733	n/a	n/a	-999	8	[5, 7, 3]	15	FR1	1	R1003P
834.116	2.284	641790	PROB	2.284	n/a	n/a	-999	8	[6, 1, 1]	8	FR1	1	R1003P
836.4	2.284	642932	PROB	2.284	n/a	n/a	-999	8	[1, 2, 5]	8	FR1	1	R1003P
838.684	2.184	644074	PROB	2.184	n/a	n/a	-999	8	[3, 1, 9]	13	FR1	1	R1003P
840.868	2.15	645166	PROB	2.15	n/a	n/a	-999	8	[9, 5, 1]	15	FR1	1	R1003P
843.018	2.384	646241	PROB	2.384	n/a	n/a	-999	8	[9, 9, 9]	27	FR1	1	R1003P
845.402	3.684	647433	PROB	3.684	n/a	n/a	-999	8	[8, 9, 9]	26	FR1	1	R1003P
849.086	3.203	649275	PROB	3.203	n/a	n/a	-999	8	[6, 6, 8]	20	FR1	1	R1003P
852.289	0.014	650876	STOP	n/a	n/a	n/a	-999	8	[-999, -999, -999]	n/a	FR1	1	R1003P
852.303	1.151	650883	DISTRACT_END	n/a	n/a	n/a	-999	8	[0, 0, 0]	n/a	FR1	1	R1003P
853.454	1.177	651458	REC_START	n/a	n/a	n/a	-999	8	[0, 0, 0]	n/a	FR1	1	R1003P
854.631	2.366	652047	REC_WORD	2.366	n/a	TRIAL	-999	8	[0, 0, 0]	n/a	FR1	1	R1003P
856.997	2.6	653230	REC_WORD	2.6	n/a	LAKE	1	8	[0, 0, 0]	n/a	FR1	1	R1003P
859.597	1.635	654530	REC_WORD	1.635	n/a	MOUTH	2	8	[0, 0, 0]	n/a	FR1	1	R1003P
861.232	2.43	655347	REC_WORD	2.43	n/a	STEAM	-999	8	[0, 0, 0]	n/a	FR1	1	R1003P
863.662	3.038	656562	REC_WORD	3.038	n/a	TRIP	-999	8	[0, 0, 0]	n/a	FR1	1	R1003P
866.7	2.546	658081	REC_WORD	2.546	n/a	EEL	11	8	[0, 0, 0]	n/a	FR1	1	R1003P
869.246	6.603	659354	REC_WORD	6.603	n/a	LAMB	-999	8	[0, 0, 0]	n/a	FR1	1	R1003P
875.849	7.614	662655	REC_WORD	7.614	n/a	ROCK	-999	8	[0, 0, 0]	n/a	FR1	1	R1003P
883.463	1.43	666462	REC_END	n/a	n/a	n/a	-999	8	[0, 0, 0]	n/a	FR1	1	R1003P
884.893	0.0	667177	TRIAL	n/a	n/a	n/a	-999	9	[0, 0, 0]	n/a	FR1	1	R1003P
884.893	10.428	667177	COUNTDOWN_START	n/a	n/a	n/a	-999	9	[0, 0, 0]	n/a	FR1	1	R1003P
895.321	0.007	672391	COUNTDOWN_END	n/a	n/a	n/a	-999	9	[0, 0, 0]	n/a	FR1	1	R1003P
895.328	2.534	672394	ORIENT	n/a	n/a	n/a	-999	9	[0, 0, 0]	n/a	FR1	1	R1003P
897.862	2.383	673661	WORD	n/a	wordpools/wordpool_EN.txt	CHIN	1	9	[0, 0, 0]	n/a	FR1	1	R1003P
900.245	2.384	674853	WORD	n/a	wordpools/wordpool_EN.txt	STRAW	2	9	[0, 0, 0]	n/a	FR1	1	R1003P
902.629	2.501	676045	WORD	n/a	wordpools/wordpool_EN.txt	APE	3	9	[0, 0, 0]	n/a	FR1	1	R1003P
905.13	2.384	677295	WORD	n/a	wordpools/wordpool_EN.txt	CART	4	9	[0, 0, 0]	n/a	FR1	1	R1003P
907.514	2.617	678487	WORD	n/a	wordpools/wordpool_EN.txt	STEAK	5	9	[0, 0, 0]	n/a	FR1	1	R1003P
910.131	2.45	679795	WORD	n/a	wordpools/wordpool_EN.txt	VEST	6	9	[0, 0, 0]	n/a	FR1	1	R1003P
912.581	2.584	681020	WORD	n/a	wordpools/wordpool_EN.txt	DRESS	7	9	[0, 0, 0]	n/a	FR1	1	R1003P
915.165	2.499	682312	WORD	n/a	wordpools/wordpool_EN.txt	BOWL	8	9	[0, 0, 0]	n/a	FR1	1	R1003P
917.664	2.385	683562	WORD	n/a	wordpools/wordpool_EN.txt	BENCH	9	9	[0, 0, 0]	n/a	FR1	1	R1003P
920.049	2.616	684754	WORD	n/a	wordpools/wordpool_EN.txt	SWORD	10	9	[0, 0, 0]	n/a	FR1	1	R1003P
922.665	2.535	686062	WORD	n/a	wordpools/wordpool_EN.txt	GLOVE	11	9	[0, 0, 0]	n/a	FR1	1	R1003P
925.2	1.617	687330	WORD	n/a	wordpools/wordpool_EN.txt	GUARD	12	9	[0, 0, 0]	n/a	FR1	1	R1003P
926.817	0.001	688138	DISTRACT_START	n/a	n/a	n/a	-999	9	[0, 0, 0]	n/a	FR1	1	R1003P
926.818	0.016	688139	START	n/a	n/a	n/a	-999	9	[-999, -999, -999]	n/a	FR1	1	R1003P
926.834	4.8	688147	PROB	4.8	n/a	n/a	-999	9	[8, 6, 9]	23	FR1	1	R1003P
931.634	2.585	690546	PROB	2.585	n/a	n/a	-999	9	[4, 3, 4]	11	FR1	1	R1003P
934.219	2.4	691839	PROB	2.4	n/a	n/a	-999	9	[9, 9, 2]	20	FR1	1	R1003P
936.619	2.334	693039	PROB	2.334	n/a	n/a	-999	9	[3, 7, 2]	12	FR1	1	R1003P
938.953	1.967	694206	PROB	1.967	n/a	n/a	-999	9	[3, 1, 1]	5	FR1	1	R1003P
940.92	3.601	695189	PROB	3.601	n/a	n/a	-999	9	[7, 9, 7]	23	FR1	1	R1003P
944.521	3.313	696990	PROB	3.313	n/a	n/a	-999	9	[9, 7, 3]	19	FR1	1	R1003P
947.834	0.004	698646	STOP	n/a	n/a	n/a	-999	9	[-999, -999, -999]	n/a	FR1	1	R1003P
947.838	1.201	698648	DISTRACT_END	n/a	n/a	n/a	-999	9	[0, 0, 0]	n/a	FR1	1	R1003P
949.039	1.205	699248	REC_START	n/a	n/a	n/a	-999	9	[0, 0, 0]	n/a	FR1	1	R1003P
950.244	0.727	699851	REC_WORD	0.727	n/a	CHIN	1	9	[0, 0, 0]	n/a	FR1	1	R1003P
950.971	1.103	700214	REC_WORD	1.103	n/a	STRAW	2	9	[0, 0, 0]	n/a	FR1	1	R1003P
952.074	0.786	700766	REC_WORD	0.786	n/a	APE	3	9	[0, 0, 0]	n/a	FR1	1	R1003P
952.86	1.309	701159	REC_WORD	1.309	n/a	VEST	6	9	[0, 0, 0]	n/a	FR1	1	R1003P
954.169	5.014	701813	REC_WORD	5.014	n/a	DRESS	7	9	[0, 0, 0]	n/a	FR1	1	R1003P
959.183	1.891	704320	REC_WORD	1.891	n/a	SHIRT	-999	9	[0, 0, 0]	n/a	FR1	1	R1003P
961.074	17.975	705266	REC_WORD	17.975	n/a	HOUSE	-999	9	[0, 0, 0]	n/a	FR1	1	R1003P
979.049	1.594	714253	REC_END	n/a	n/a	n/a	-999	9	[0, 0, 0]	n/a	FR1	1	R1003P
980.643	0.0	715050	TRIAL	n/a	n/a	n/a	-999	10	[0, 0, 0]	n/a	FR1	1	R1003P
980.643	10.428	715050	COUNTDOWN_START	n/a	n/a	n/a	-999	10	[0, 0, 0]	n/a	FR1	1	R1003P
991.071	0.008	720263	COUNTDOWN_END	n/a	n/a	n/a	-999	10	[0, 0, 0]	n/a	FR1	1	R1003P
991.079	2.617	720267	ORIENT	n/a	n/a	n/a	-999	10	[0, 0, 0]	n/a	FR1	1	R1003P
993.696	2.567	721576	WORD	n/a	wordpools/wordpool_EN.txt	SEAT	1	10	[0, 0, 0]	n/a	FR1	1	R1003P
996.263	2.534	722859	WORD	n/a	wordpools/wordpool_EN.txt	MULE	2	10	[0, 0, 0]	n/a	FR1	1	R1003P
998.797	2.467	724126	WORD	n/a	wordpools/wordpool_EN.txt	TOOTH	3	10	[0, 0, 0]	n/a	FR1	1	R1003P
1001.264	2.568	725360	WORD	n/a	wordpools/wordpool_EN.txt	PASTE	4	10	[0, 0, 0]	n/a	FR1	1	R1003P
1003.832	2.55	726643	WORD	n/a	wordpools/wordpool_EN.txt	TRAY	5	10	[0, 0, 0]	n/a	FR1	1	R1003P
1006.382	2.467	727918	WORD	n/a	wordpools/wordpool_EN.txt	TEETH	6	10	[0, 0, 0]	n/a	FR1	1	R1003P
1008.849	2.384	729152	WORD	n/a	wordpools/wordpool_EN.txt	BEAK	7	10	[0, 0, 0]	n/a	FR1	1	R1003P
1011.233	2.517	730344	WORD	n/a	wordpools/wordpool_EN.txt	BRIDGE	8	10	[0, 0, 0]	n/a	FR1	1	R1003P
1013.75	2.484	731602	WORD	n/a	wordpools/wordpool_EN.txt	SALT	9	10	[0, 0, 0]	n/a	FR1	1	R1003P
1016.234	2.584	732844	WORD	n/a	wordpools/wordpool_EN.txt	PIPE	10	10	[0, 0, 0]	n/a	FR1	1	R1003P
1018.818	2.6	734136	WORD	n/a	wordpools/wordpool_EN.txt	SOAP	11	10	[0, 0, 0]	n/a	FR1	1	R1003P
1021.418	1.617	735436	WORD	n/a	wordpools/wordpool_EN.txt	TOAST	12	10	[0, 0, 0]	n/a	FR1	1	R1003P
1023.035	0.001	736244	DISTRACT_START	n/a	n/a	n/a	-999	10	[0, 0, 0]	n/a	FR1	1	R1003P
1023.036	0.016	736245	START	n/a	n/a	n/a	-999	10	[-999, -999, -999]	n/a	FR1	1	R1003P
1023.052	5.6	736253	PROB	5.6	n/a	n/a	-999	10	[6, 8, 8]	22	FR1	1	R1003P
1028.652	2.601	739053	PROB	2.601	n/a	n/a	-999	10	[1, 4, 5]	10	FR1	1	R1003P
1031.253	3.018	740353	PROB	3.018	n/a	n/a	-999	10	[5, 7, 2]	14	FR1	1	R1003P
1034.271	3.35	741862	PROB	3.35	n/a	n/a	-999	10	[5, 6, 2]	13	FR1	1	R1003P
1037.621	2.334	743537	PROB	2.334	n/a	n/a	-999	10	[4, 1, 4]	9	FR1	1	R1003P
1039.955	3.759	744704	PROB	3.759	n/a	n/a	-999	10	[7, 8, 7]	22	FR1	1	R1003P
1043.714	0.008	746583	STOP	n/a	n/a	n/a	-999	10	[-999, -999, -999]	n/a	FR1	1	R1003P
1043.722	1.068	746587	DISTRACT_END	n/a	n/a	n/a	-999	10	[0, 0, 0]	n/a	FR1	1	R1003P
1044.79	0.812	747121	REC_START	n/a	n/a	n/a	-999	10	[0, 0, 0]	n/a	FR1	1	R1003P
1045.602	0.968	747527	REC_WORD	0.968	n/a	SEAT	1	10	[0, 0, 0]	n/a	FR1	1	R1003P
1046.57	0.888	748011	REC_WORD	0.888	n/a	MULE	2	10	[0, 0, 0]	n/a	FR1	1	R1003P
1047.458	0.867	748455	REC_WORD	0.867	n/a	TOOTH	3	10	[0, 0, 0]	n/a	FR1	1	R1003P
1048.325	1.103	748889	REC_WORD	1.103	n/a	PASTE	4	10	[0, 0, 0]	n/a	FR1	1	R1003P
1049.428	6.578	749440	REC_WORD	6.578	n/a	TEETH	6	10	[0, 0, 0]	n/a	FR1	1	R1003P
1056.006	3.08	752729	REC_WORD	3.08	n/a	BRIDGE	8	10	[0, 0, 0]	n/a	FR1	1	R1003P
1059.086	15.714	754269	REC_WORD	15.714	n/a	CHIN	-999	10	[0, 0, 0]	n/a	FR1	1	R1003P
1074.8	1.479	762126	REC_END	n/a	n/a	n/a	-999	10	[0, 0, 0]	n/a	FR1	1	R1003P
1076.279	0.0	762865	TRIAL	n/a	n/a	n/a	-999	11	[0, 0, 0]	n/a	FR1	1	R1003P
1076.279	10.428	762865	COUNTDOWN_START	n/a	n/a	n/a	-999	11	[0, 0, 0]	n/a	FR1	1	R1003P
1086.707	0.007	768079	COUNTDOWN_END	n/a	n/a	n/a	-999	11	[0, 0, 0]	n/a	FR1	1	R1003P
1086.714	2.533	768082	ORIENT	n/a	n/a	n/a	-999	11	[0, 0, 0]	n/a	FR1	1	R1003P
1089.247	2.417	769349	WORD	n/a	wordpools/wordpool_EN.txt	CAPE	1	11	[0, 0, 0]	n/a	FR1	1	R1003P
1091.664	2.468	770557	WORD	n/a	wordpools/wordpool_EN.txt	BAG	2	11	[0, 0, 0]	n/a	FR1	1	R1003P
1094.132	2.6	771791	WORD	n/a	wordpools/wordpool_EN.txt	MAT	3	11	[0, 0, 0]	n/a	FR1	1	R1003P
1096.732	2.534	773091	WORD	n/a	wordpools/wordpool_EN.txt	DOOR	4	11	[0, 0, 0]	n/a	FR1	1	R1003P
1099.266	2.417	774358	WORD	n/a	wordpools/wordpool_EN.txt	STOVE	5	11	[0, 0, 0]	n/a	FR1	1	R1003P
1101.683	2.434	775566	WORD	n/a	wordpools/wordpool_EN.txt	PURSE	6	11	[0, 0, 0]	n/a	FR1	1	R1003P
1104.117	2.5	776783	WORD	n/a	wordpools/wordpool_EN.txt	SHIRT	7	11	[0, 0, 0]	n/a	FR1	1	R1003P
1106.617	2.468	778033	WORD	n/a	wordpools/wordpool_EN.txt	BOOT	8	11	[0, 0, 0]	n/a	FR1	1	R1003P
1109.085	2.6	779267	WORD	n/a	wordpools/wordpool_EN.txt	BATH	9	11	[0, 0, 0]	n/a	FR1	1	R1003P
1111.685	2.501	780567	WORD	n/a	wordpools/wordpool_EN.txt	TEA	10	11	[0, 0, 0]	n/a	FR1	1	R1003P
1114.186	2.5	781818	WORD	n/a	wordpools/wordpool_EN.txt	PEA	11	11	[0, 0, 0]	n/a	FR1	1	R1003P
1116.686	1.617	783067	WORD	n/a	wordpools/wordpool_EN.txt	CLOTH	12	11	[0, 0, 0]	n/a	FR1	1	R1003P
1118.303	0.001	783876	DISTRACT_START	n/a	n/a	n/a	-999	11	[0, 0, 0]	n/a	FR1	1	R1003P
1118.304	0.016	783876	START	n/a	n/a	n/a	-999	11	[-999, -999, -999]	n/a	FR1	1	R1003P
1118.32	3.217	783884	PROB	3.217	n/a	n/a	-999	11	[5, 6, 1]	12	FR1	1	R1003P
1121.537	2.484	785493	PROB	2.484	n/a	n/a	-999	11	[7, 7, 5]	19	FR1	1	R1003P
1124.021	2.584	786735	PROB	2.584	n/a	n/a	-999	11	[5, 1, 4]	10	FR1	1	R1003P
1126.605	3.434	788027	PROB	3.434	n/a	n/a	-999	11	[2, 5, 9]	16	FR1	1	R1003P
1130.039	3.217	789744	PROB	3.217	n/a	n/a	-999	11	[3, 9, 3]	15	FR1	1	R1003P
1133.256	2.617	791352	PROB	2.617	n/a	n/a	-999	11	[7, 8, 3]	18	FR1	1	R1003P
1135.873	2.284	792660	PROB	2.284	n/a	n/a	-999	11	[1, 4, 2]	7	FR1	1	R1003P
1138.157	3.293	793802	PROB	3.293	n/a	n/a	-999	11	[4, 9, 6]	19	FR1	1	R1003P
1141.45	0.008	795449	STOP	n/a	n/a	n/a	-999	11	[-999, -999, -999]	n/a	FR1	1	R1003P
1141.458	1.068	795453	DISTRACT_END	n/a	n/a	n/a	-999	11	[0, 0, 0]	n/a	FR1	1	R1003P
1142.526	1.09	795987	REC_START	n/a	n/a	n/a	-999	11	[0, 0, 0]	n/a	FR1	1	R1003P
1143.616	2.086	796532	REC_WORD	2.086	n/a	CAPE	1	11	[0, 0, 0]	n/a	FR1	1	R1003P
1145.702	1.126	797575	REC_WORD	1.126	n/a	MOTH	-999	11	[0, 0, 0]	n/a	FR1	1	R1003P
1146.828	1.91	798138	REC_WORD	1.91	n/a	BATH	9	11	[0, 0, 0]	n/a	FR1	1	R1003P
1148.738	1.2	799093	REC_WORD	1.2	n/a	PEA	11	11	[0, 0, 0]	n/a	FR1	1	R1003P
1149.938	4.338	799693	REC_WORD	4.338	n/a	ANT	-999	11	[0, 0, 0]	n/a	FR1	1	R1003P
1154.276	2.673	801861	REC_WORD	2.673	n/a	BRIDGE	-999	11	[0, 0, 0]	n/a	FR1	1	R1003P
1156.949	3.847	803198	REC_WORD	3.847	n/a	CLOTH	12	11	[0, 0, 0]	n/a	FR1	1	R1003P
1160.796	2.861	805121	REC_WORD	2.861	n/a	BOOT	8	11	[0, 0, 0]	n/a	FR1	1	R1003P
1163.657	8.878	806552	REC_WORD	8.878	n/a	PEA	11	11	[0, 0, 0]	n/a	FR1	1	R1003P
1172.535	1.379	810991	REC_END	n/a	n/a	n/a	-999	11	[0, 0, 0]	n/a	FR1	1	R1003P
1173.914	0.0	811680	TRIAL	n/a	n/a	n/a	-999	12	[0, 0, 0]	n/a	FR1	1	R1003P
1173.914	10.428	811680	COUNTDOWN_START	n/a	n/a	n/a	-999	12	[0, 0, 0]	n/a	FR1	1	R1003P
1184.342	0.007	816894	COUNTDOWN_END	n/a	n/a	n/a	-999	12	[0, 0, 0]	n/a	FR1	1	R1003P
1184.349	2.634	816897	ORIENT	n/a	n/a	n/a	-999	12	[0, 0, 0]	n/a	FR1	1	R1003P
1186.983	2.417	818214	WORD	n/a	wordpools/wordpool_EN.txt	FOOT	1	12	[0, 0, 0]	n/a	FR1	1	R1003P
1189.4	2.467	819423	WORD	n/a	wordpools/wordpool_EN.txt	MOON	2	12	[0, 0, 0]	n/a	FR1	1	R1003P
1191.867	2.501	820656	WORD	n/a	wordpools/wordpool_EN.txt	PALM	3	12	[0, 0, 0]	n/a	FR1	1	R1003P
1194.368	2.483	821906	WORD	n/a	wordpools/wordpool_EN.txt	STORM	4	12	[0, 0, 0]	n/a	FR1	1	R1003P
1196.851	2.601	823148	WORD	n/a	wordpools/wordpool_EN.txt	FORK	5	12	[0, 0, 0]	n/a	FR1	1	R1003P
1199.452	2.583	824448	WORD	n/a	wordpools/wordpool_EN.txt	SNAIL	6	12	[0, 0, 0]	n/a	FR1	1	R1003P
1202.035	2.401	825740	WORD	n/a	wordpools/wordpool_EN.txt	OAR	7	12	[0, 0, 0]	n/a	FR1	1	R1003P
1204.436	2.484	826940	WORD	n/a	wordpools/wordpool_EN.txt	CLOUD	8	12	[0, 0, 0]	n/a	FR1	1	R1003P
1206.92	2.434	828182	WORD	n/a	wordpools/wordpool_EN.txt	BOAT	9	12	[0, 0, 0]	n/a	FR1	1	R1003P
1209.354	2.517	829399	WORD	n/a	wordpools/wordpool_EN.txt	OAK	10	12	[0, 0, 0]	n/a	FR1	1	R1003P
1211.871	2.55	830657	WORD	n/a	wordpools/wordpool_EN.txt	STOOL	11	12	[0, 0, 0]	n/a	FR1	1	R1003P
1214.421	1.617	831932	WORD	n/a	wordpools/wordpool_EN.txt	BEACH	12	12	[0, 0, 0]	n/a	FR1	1	R1003P
1216.038	0.001	832741	DISTRACT_START	n/a	n/a	n/a	-999	12	[0, 0, 0]	n/a	FR1	1	R1003P
1216.039	0.016	832741	START	n/a	n/a	n/a	-999	12	[-999, -999, -999]	n/a	FR1	1	R1003P
1216.055	2.134	832749	PROB	2.134	n/a	n/a	-999	12	[3, 1, 3]	7	FR1	1	R1003P
1218.189	2.734	833816	PROB	2.734	n/a	n/a	-999	12	[3, 7, 1]	11	FR1	1	R1003P
1220.923	3.767	835183	PROB	3.767	n/a	n/a	-999	12	[8, 8, 2]	18	FR1	1	R1003P
1224.69	1.767	837067	PROB	1.767	n/a	n/a	-999	12	[2, 2, 2]	6	FR1	1	R1003P
1226.457	1.75	837950	PROB	1.75	n/a	n/a	-999	12	[7, 3, 2]	12	FR1	1	R1003P
1228.207	2.951	838825	PROB	2.951	n/a	n/a	-999	12	[4, 4, 4]	12	FR1	1	R1003P
1231.158	2.717	840300	PROB	2.717	n/a	n/a	-999	12	[4, 5, 6]	15	FR1	1	R1003P
1233.875	3.15	841659	PROB	3.15	n/a	n/a	-999	12	[9, 5, 9]	23	FR1	1	R1003P
1237.025	0.017	843234	STOP	n/a	n/a	n/a	-999	12	[-999, -999, -999]	n/a	FR1	1	R1003P
1237.042	1.102	843242	DISTRACT_END	n/a	n/a	n/a	-999	12	[0, 0, 0]	n/a	FR1	1	R1003P
1238.144	0.798	843793	REC_START	n/a	n/a	n/a	-999	12	[0, 0, 0]	n/a	FR1	1	R1003P
1238.942	0.803	844192	REC_WORD	0.803	n/a	FOOT	1	12	[0, 0, 0]	n/a	FR1	1	R1003P
1239.745	0.642	844594	REC_WORD	0.642	n/a	MOON	2	12	[0, 0, 0]	n/a	FR1	1	R1003P
1240.387	1.062	844915	REC_WORD	1.062	n/a	STORM	4	12	[0, 0, 0]	n/a	FR1	1	R1003P
1241.449	0.947	845446	REC_WORD	0.947	n/a	BATH	-999	12	[0, 0, 0]	n/a	FR1	1	R1003P
1242.396	0.888	845919	REC_WORD	0.888	n/a	OAK	10	12	[0, 0, 0]	n/a	FR1	1	R1003P
1243.284	4.709	846363	REC_WORD	4.709	n/a	WOOD	-999	12	[0, 0, 0]	n/a	FR1	1	R1003P
1247.993	2.018	848718	REC_WORD	2.018	n/a	BADGE	-999	12	[0, 0, 0]	n/a	FR1	1	R1003P
1250.011	4.269	849726	REC_WORD	4.269	n/a	TREE	-999	12	[0, 0, 0]	n/a	FR1	1	R1003P
1254.28	13.873	851861	REC_WORD	13.873	n/a	POOL	-999	12	[0, 0, 0]	n/a	FR1	1	R1003P
1268.153	1.529	858797	REC_END	n/a	n/a	n/a	-999	12	[0, 0, 0]	n/a	FR1	1	R1003P
1269.682	0.0	859561	COUNTDOWN_START	n/a	n/a	n/a	-999	13	[0, 0, 0]	n/a	FR1	1	R1003P
1269.682	10.428	859561	TRIAL	n/a	n/a	n/a	-999	13	[0, 0, 0]	n/a	FR1	1	R1003P
1280.11	0.007	864775	COUNTDOWN_END	n/a	n/a	n/a	-999	13	[0, 0, 0]	n/a	FR1	1	R1003P
1280.117	2.516	864779	ORIENT	n/a	n/a	n/a	-999	13	[0, 0, 0]	n/a	FR1	1	R1003P
1282.633	2.535	866037	WORD	n/a	wordpools/wordpool_EN.txt	CLOCK	1	13	[0, 0, 0]	n/a	FR1	1	R1003P
1285.168	2.466	867304	WORD	n/a	wordpools/wordpool_EN.txt	FORT	2	13	[0, 0, 0]	n/a	FR1	1	R1003P
1287.634	2.568	868537	WORD	n/a	wordpools/wordpool_EN.txt	PIE	3	13	[0, 0, 0]	n/a	FR1	1	R1003P
1290.202	2.601	869821	WORD	n/a	wordpools/wordpool_EN.txt	VAN	4	13	[0, 0, 0]	n/a	FR1	1	R1003P
1292.803	2.517	871121	WORD	n/a	wordpools/wordpool_EN.txt	FLEA	5	13	[0, 0, 0]	n/a	FR1	1	R1003P
1295.32	2.517	872380	WORD	n/a	wordpools/wordpool_EN.txt	SHIELD	6	13	[0, 0, 0]	n/a	FR1	1	R1003P
1297.837	2.534	873638	WORD	n/a	wordpools/wordpool_EN.txt	WEED	7	13	[0, 0, 0]	n/a	FR1	1	R1003P
1300.371	2.517	874905	WORD	n/a	wordpools/wordpool_EN.txt	CAR	8	13	[0, 0, 0]	n/a	FR1	1	R1003P
1302.888	2.417	876164	WORD	n/a	wordpools/wordpool_EN.txt	CONE	9	13	[0, 0, 0]	n/a	FR1	1	R1003P
1305.305	2.467	877372	WORD	n/a	wordpools/wordpool_EN.txt	JAIL	10	13	[0, 0, 0]	n/a	FR1	1	R1003P
1307.772	2.401	878605	WORD	n/a	wordpools/wordpool_EN.txt	PHONE	11	13	[0, 0, 0]	n/a	FR1	1	R1003P
1310.173	1.617	879806	WORD	n/a	wordpools/wordpool_EN.txt	BAND	12	13	[0, 0, 0]	n/a	FR1	1	R1003P
1311.79	0.0	880614	DISTRACT_START	n/a	n/a	n/a	-999	13	[0, 0, 0]	n/a	FR1	1	R1003P
1311.79	0.016	880614	START	n/a	n/a	n/a	-999	13	[-999, -999, -999]	n/a	FR1	1	R1003P
1311.806	2.267	880622	PROB	2.267	n/a	n/a	-999	13	[1, 7, 1]	9	FR1	1	R1003P
1314.073	2.734	881756	PROB	2.734	n/a	n/a	-999	13	[1, 4, 3]	8	FR1	1	R1003P
1316.807	4.301	883123	PROB	4.301	n/a	n/a	-999	13	[5, 6, 8]	19	FR1	1	R1003P
1321.108	1.9	885273	PROB	1.9	n/a	n/a	-999	13	[5, 1, 1]	7	FR1	1	R1003P
1323.008	2.017	886223	PROB	2.017	n/a	n/a	-999	13	[2, 2, 7]	11	FR1	1	R1003P
1325.025	2.651	887231	PROB	2.651	n/a	n/a	-999	13	[2, 4, 5]	11	FR1	1	R1003P
1327.676	3.551	888557	PROB	3.551	n/a	n/a	-999	13	[9, 6, 2]	17	FR1	1	R1003P
1331.227	2.405	890332	PROB	2.405	n/a	n/a	-999	13	[4, 6, 2]	12	FR1	1	R1003P
1333.632	0.011	891535	STOP	n/a	n/a	n/a	-999	13	[-999, -999, -999]	n/a	FR1	1	R1003P
1333.643	1.137	891540	DISTRACT_END	n/a	n/a	n/a	-999	13	[0, 0, 0]	n/a	FR1	1	R1003P
1334.78	1.007	892109	REC_START	n/a	n/a	n/a	-999	13	[0, 0, 0]	n/a	FR1	1	R1003P
1335.787	0.761	892612	REC_WORD	0.761	n/a	CLOCK	1	13	[0, 0, 0]	n/a	FR1	1	R1003P
1336.548	3.383	892993	REC_WORD	3.383	n/a	PIE	3	13	[0, 0, 0]	n/a	FR1	1	R1003P
1339.931	1.067	894684	REC_WORD	1.067	n/a	FLOOR	-999	13	[0, 0, 0]	n/a	FR1	1	R1003P
1340.998	1.216	895218	REC_WORD	1.216	n/a	VAN	4	13	[0, 0, 0]	n/a	FR1	1	R1003P
1342.214	2.773	895826	REC_WORD	2.773	n/a	SHIELD	6	13	[0, 0, 0]	n/a	FR1	1	R1003P
1344.987	2.661	897212	REC_WORD	2.661	n/a	OAK	-999	13	[0, 0, 0]	n/a	FR1	1	R1003P
1347.648	5.676	898542	REC_WORD	5.676	n/a	VAN	4	13	[0, 0, 0]	n/a	FR1	1	R1003P
1353.324	11.464	901380	REC_WORD	11.464	n/a	BRIDGE	-999	13	[0, 0, 0]	n/a	FR1	1	R1003P
1364.788	1.162	907112	REC_END	n/a	n/a	n/a	-999	13	[0, 0, 0]	n/a	FR1	1	R1003P
1365.95	0.0	907693	TRIAL	n/a	n/a	n/a	-999	14	[0, 0, 0]	n/a	FR1	1	R1003P
1365.95	10.428	907693	COUNTDOWN_START	n/a	n/a	n/a	-999	14	[0, 0, 0]	n/a	FR1	1	R1003P
1376.378	0.007	912907	COUNTDOWN_END	n/a	n/a	n/a	-999	14	[0, 0, 0]	n/a	FR1	1	R1003P
1376.385	2.484	912910	ORIENT	n/a	n/a	n/a	-999	14	[0, 0, 0]	n/a	FR1	1	R1003P
1378.869	2.617	914152	WORD	n/a	wordpools/wordpool_EN.txt	JUDGE	1	14	[0, 0, 0]	n/a	FR1	1	R1003P
1381.486	2.517	915460	WORD	n/a	wordpools/wordpool_EN.txt	BOMB	2	14	[0, 0, 0]	n/a	FR1	1	R1003P
1384.003	2.534	916719	WORD	n/a	wordpools/wordpool_EN.txt	EAR	3	14	[0, 0, 0]	n/a	FR1	1	R1003P
1386.537	2.484	917986	WORD	n/a	wordpools/wordpool_EN.txt	TRASH	4	14	[0, 0, 0]	n/a	FR1	1	R1003P
1389.021	2.567	919228	WORD	n/a	wordpools/wordpool_EN.txt	MILK	5	14	[0, 0, 0]	n/a	FR1	1	R1003P
1391.588	2.401	920511	WORD	n/a	wordpools/wordpool_EN.txt	STAR	6	14	[0, 0, 0]	n/a	FR1	1	R1003P
1393.989	2.45	921712	WORD	n/a	wordpools/wordpool_EN.txt	DOG	7	14	[0, 0, 0]	n/a	FR1	1	R1003P
1396.439	2.484	922937	WORD	n/a	wordpools/wordpool_EN.txt	FILM	8	14	[0, 0, 0]	n/a	FR1	1	R1003P
1398.923	2.417	924179	WORD	n/a	wordpools/wordpool_EN.txt	WAVE	9	14	[0, 0, 0]	n/a	FR1	1	R1003P
1401.34	2.584	925387	WORD	n/a	wordpools/wordpool_EN.txt	ZOO	10	14	[0, 0, 0]	n/a	FR1	1	R1003P
1403.924	2.517	926679	WORD	n/a	wordpools/wordpool_EN.txt	POLE	11	14	[0, 0, 0]	n/a	FR1	1	R1003P
1406.441	1.617	927937	WORD	n/a	wordpools/wordpool_EN.txt	ARK	12	14	[0, 0, 0]	n/a	FR1	1	R1003P
1408.058	0.001	928746	DISTRACT_START	n/a	n/a	n/a	-999	14	[0, 0, 0]	n/a	FR1	1	R1003P
1408.059	0.015	928746	START	n/a	n/a	n/a	-999	14	[-999, -999, -999]	n/a	FR1	1	R1003P
1408.074	2.934	928754	PROB	2.934	n/a	n/a	-999	14	[7, 3, 7]	17	FR1	1	R1003P
1411.008	2.884	930221	PROB	2.884	n/a	n/a	-999	14	[5, 3, 2]	10	FR1	1	R1003P
1413.892	1.817	931663	PROB	1.817	n/a	n/a	-999	14	[3, 5, 5]	13	FR1	1	R1003P
1415.709	2.551	932571	PROB	2.551	n/a	n/a	-999	14	[3, 7, 9]	19	FR1	1	R1003P
1418.26	3.0	933847	PROB	3.0	n/a	n/a	-999	14	[7, 1, 8]	16	FR1	1	R1003P
1421.26	4.301	935346	PROB	4.301	n/a	n/a	-999	14	[5, 3, 8]	16	FR1	1	R1003P
1425.561	1.917	937497	PROB	1.917	n/a	n/a	-999	14	[3, 1, 7]	11	FR1	1	R1003P
1427.478	2.019	938455	PROB	2.019	n/a	n/a	-999	14	[6, 6, 2]	14	FR1	1	R1003P
1429.497	0.015	939465	STOP	n/a	n/a	n/a	-999	14	[-999, -999, -999]	n/a	FR1	1	R1003P
1429.512	1.051	939472	DISTRACT_END	n/a	n/a	n/a	-999	14	[0, 0, 0]	n/a	FR1	1	R1003P
1430.563	0.812	939998	REC_START	n/a	n/a	n/a	-999	14	[0, 0, 0]	n/a	FR1	1	R1003P
1431.375	0.735	940404	REC_WORD	0.735	n/a	JUDGE	1	14	[0, 0, 0]	n/a	FR1	1	R1003P
1432.11	0.738	940771	REC_WORD	0.738	n/a	BOMB	2	14	[0, 0, 0]	n/a	FR1	1	R1003P
1432.848	0.81	941140	REC_WORD	0.81	n/a	EAR	3	14	[0, 0, 0]	n/a	FR1	1	R1003P
1433.658	0.758	941545	REC_WORD	0.758	n/a	DOG	7	14	[0, 0, 0]	n/a	FR1	1	R1003P
1434.416	3.969	941924	REC_WORD	3.969	n/a	TRASH	4	14	[0, 0, 0]	n/a	FR1	1	R1003P
1438.385	3.301	943908	REC_WORD	3.301	n/a	SHIELD	-999	14	[0, 0, 0]	n/a	FR1	1	R1003P
1441.686	3.099	945559	REC_WORD	3.099	n/a	BRIDGE	-999	14	[0, 0, 0]	n/a	FR1	1	R1003P
1444.785	15.788	947108	REC_WORD	15.788	n/a	OAR	-999	14	[0, 0, 0]	n/a	FR1	1	R1003P
1460.573	1.395	955002	REC_END	n/a	n/a	n/a	-999	14	[0, 0, 0]	n/a	FR1	1	R1003P
1461.968	0.0	955699	COUNTDOWN_START	n/a	n/a	n/a	-999	15	[0, 0, 0]	n/a	FR1	1	R1003P
1461.968	10.428	955699	TRIAL	n/a	n/a	n/a	-999	15	[0, 0, 0]	n/a	FR1	1	R1003P
1472.396	0.007	960913	COUNTDOWN_END	n/a	n/a	n/a	-999	15	[0, 0, 0]	n/a	FR1	1	R1003P
1472.403	2.634	960917	ORIENT	n/a	n/a	n/a	-999	15	[0, 0, 0]	n/a	FR1	1	R1003P
1475.037	2.434	962234	WORD	n/a	wordpools/wordpool_EN.txt	DUCK	1	15	[0, 0, 0]	n/a	FR1	1	R1003P
1477.471	2.567	963450	WORD	n/a	wordpools/wordpool_EN.txt	CASH	2	15	[0, 0, 0]	n/a	FR1	1	R1003P
1480.038	2.599	964734	WORD	n/a	wordpools/wordpool_EN.txt	BARN	3	15	[0, 0, 0]	n/a	FR1	1	R1003P
1482.637	2.502	966033	WORD	n/a	wordpools/wordpool_EN.txt	FROG	4	15	[0, 0, 0]	n/a	FR1	1	R1003P
1485.139	2.6	967284	WORD	n/a	wordpools/wordpool_EN.txt	POND	5	15	[0, 0, 0]	n/a	FR1	1	R1003P
1487.739	2.484	968584	WORD	n/a	wordpools/wordpool_EN.txt	ARM	6	15	[0, 0, 0]	n/a	FR1	1	R1003P
1490.223	2.551	969826	WORD	n/a	wordpools/wordpool_EN.txt	DEER	7	15	[0, 0, 0]	n/a	FR1	1	R1003P
1492.774	2.5	971102	WORD	n/a	wordpools/wordpool_EN.txt	RAKE	8	15	[0, 0, 0]	n/a	FR1	1	R1003P
1495.274	2.4	972351	WORD	n/a	wordpools/wordpool_EN.txt	JEEP	9	15	[0, 0, 0]	n/a	FR1	1	R1003P
1497.674	2.618	973551	WORD	n/a	wordpools/wordpool_EN.txt	PARK	10	15	[0, 0, 0]	n/a	FR1	1	R1003P
1500.292	2.467	974860	WORD	n/a	wordpools/wordpool_EN.txt	WOLF	11	15	[0, 0, 0]	n/a	FR1	1	R1003P
1502.759	1.617	976094	WORD	n/a	wordpools/wordpool_EN.txt	ROPE	12	15	[0, 0, 0]	n/a	FR1	1	R1003P
1504.376	0.001	976902	DISTRACT_START	n/a	n/a	n/a	-999	15	[0, 0, 0]	n/a	FR1	1	R1003P
1504.377	0.016	976903	START	n/a	n/a	n/a	-999	15	[-999, -999, -999]	n/a	FR1	1	R1003P
1504.393	2.35	976911	PROB	2.35	n/a	n/a	-999	15	[1, 7, 7]	15	FR1	1	R1003P
1506.743	2.751	978086	PROB	2.751	n/a	n/a	-999	15	[9, 4, 4]	17	FR1	1	R1003P
1509.494	4.967	979461	PROB	4.967	n/a	n/a	-999	15	[4, 4, 9]	17	FR1	1	R1003P
1514.461	2.351	981944	PROB	2.351	n/a	n/a	-999	15	[4, 8, 6]	18	FR1	1	R1003P
1516.812	4.184	983120	PROB	4.184	n/a	n/a	-999	15	[6, 8, 9]	23	FR1	1	R1003P
1520.996	2.934	985212	PROB	2.934	n/a	n/a	-999	15	[8, 2, 4]	14	FR1	1	R1003P
1523.93	2.063	986679	PROB	2.063	n/a	n/a	-999	15	[6, 9, 1]	16	FR1	1	R1003P
1525.993	0.003	987710	STOP	n/a	n/a	n/a	-999	15	[-999, -999, -999]	n/a	FR1	1	R1003P
1525.996	1.135	987712	DISTRACT_END	n/a	n/a	n/a	-999	15	[0, 0, 0]	n/a	FR1	1	R1003P
1527.131	0.889	988279	REC_START	n/a	n/a	n/a	-999	15	[0, 0, 0]	n/a	FR1	1	R1003P
1528.02	0.69	988724	REC_WORD	0.69	n/a	DUCK	1	15	[0, 0, 0]	n/a	FR1	1	R1003P
1528.71	1.278	989069	REC_WORD	1.278	n/a	CASH	2	15	[0, 0, 0]	n/a	FR1	1	R1003P
1529.988	0.765	989708	REC_WORD	0.765	n/a	BARN	3	15	[0, 0, 0]	n/a	FR1	1	R1003P
1530.753	1.306	990090	REC_WORD	1.306	n/a	POND	5	15	[0, 0, 0]	n/a	FR1	1	R1003P
1532.059	2.271	990743	REC_WORD	2.271	n/a	DEER	7	15	[0, 0, 0]	n/a	FR1	1	R1003P
1534.33	7.286	991878	REC_WORD	7.286	n/a	FROG	4	15	[0, 0, 0]	n/a	FR1	1	R1003P
1541.616	15.525	995521	REC_WORD	15.525	n/a	MARSH	-999	15	[0, 0, 0]	n/a	FR1	1	R1003P
1557.141	1.295	1003283	REC_END	n/a	n/a	n/a	-999	15	[0, 0, 0]	n/a	FR1	1	R1003P
1558.436	0.0	1003931	TRIAL	n/a	n/a	n/a	-999	16	[0, 0, 0]	n/a	FR1	1	R1003P
1558.436	10.428	1003931	COUNTDOWN_START	n/a	n/a	n/a	-999	16	[0, 0, 0]	n/a	FR1	1	R1003P
1568.864	0.007	1009145	COUNTDOWN_END	n/a	n/a	n/a	-999	16	[0, 0, 0]	n/a	FR1	1	R1003P
1568.871	2.484	1009148	ORIENT	n/a	n/a	n/a	-999	16	[0, 0, 0]	n/a	FR1	1	R1003P
1571.355	2.501	1010390	WORD	n/a	wordpools/wordpool_EN.txt	CRANE	1	16	[0, 0, 0]	n/a	FR1	1	R1003P
1573.856	2.567	1011640	WORD	n/a	wordpools/wordpool_EN.txt	SEAL	2	16	[0, 0, 0]	n/a	FR1	1	R1003P
1576.423	2.6	1012924	WORD	n/a	wordpools/wordpool_EN.txt	FUDGE	3	16	[0, 0, 0]	n/a	FR1	1	R1003P
1579.023	2.551	1014224	WORD	n/a	wordpools/wordpool_EN.txt	PEN	4	16	[0, 0, 0]	n/a	FR1	1	R1003P
1581.574	2.5	1015499	WORD	n/a	wordpools/wordpool_EN.txt	INK	5	16	[0, 0, 0]	n/a	FR1	1	R1003P
1584.074	2.534	1016749	WORD	n/a	wordpools/wordpool_EN.txt	BANK	6	16	[0, 0, 0]	n/a	FR1	1	R1003P
1586.608	2.401	1018016	WORD	n/a	wordpools/wordpool_EN.txt	SHEET	7	16	[0, 0, 0]	n/a	FR1	1	R1003P
1589.009	2.533	1019216	WORD	n/a	wordpools/wordpool_EN.txt	BOOK	8	16	[0, 0, 0]	n/a	FR1	1	R1003P
1591.542	2.601	1020483	WORD	n/a	wordpools/wordpool_EN.txt	DESK	9	16	[0, 0, 0]	n/a	FR1	1	R1003P
1594.143	2.484	1021783	WORD	n/a	wordpools/wordpool_EN.txt	WALL	10	16	[0, 0, 0]	n/a	FR1	1	R1003P
1596.627	2.45	1023025	WORD	n/a	wordpools/wordpool_EN.txt	DITCH	11	16	[0, 0, 0]	n/a	FR1	1	R1003P
1599.077	1.617	1024250	WORD	n/a	wordpools/wordpool_EN.txt	COIN	12	16	[0, 0, 0]	n/a	FR1	1	R1003P
1600.694	0.001	1025059	DISTRACT_START	n/a	n/a	n/a	-999	16	[0, 0, 0]	n/a	FR1	1	R1003P
1600.695	0.016	1025059	START	n/a	n/a	n/a	-999	16	[-999, -999, -999]	n/a	FR1	1	R1003P
1600.711	2.334	1025067	PROB	2.334	n/a	n/a	-999	16	[1, 8, 1]	10	FR1	1	R1003P
1603.045	2.017	1026234	PROB	2.017	n/a	n/a	-999	16	[7, 2, 2]	11	FR1	1	R1003P
1605.062	1.967	1027243	PROB	1.967	n/a	n/a	-999	16	[5, 1, 1]	7	FR1	1	R1003P
1607.029	1.567	1028226	PROB	1.567	n/a	n/a	-999	16	[4, 4, 4]	12	FR1	1	R1003P
1608.596	3.45	1029009	PROB	3.45	n/a	n/a	-999	16	[7, 5, 4]	16	FR1	1	R1003P
1612.046	2.151	1030734	PROB	2.151	n/a	n/a	-999	16	[3, 7, 8]	18	FR1	1	R1003P
1614.197	2.784	1031810	PROB	2.784	n/a	n/a	-999	16	[1, 6, 6]	13	FR1	1	R1003P
1616.981	5.675	1033202	PROB	5.675	n/a	n/a	-999	16	[8, 7, 9]	24	FR1	1	R1003P
1622.656	0.008	1036039	STOP	n/a	n/a	n/a	-999	16	[-999, -999, -999]	n/a	FR1	1	R1003P
1622.664	1.152	1036043	DISTRACT_END	n/a	n/a	n/a	-999	16	[0, 0, 0]	n/a	FR1	1	R1003P
1623.816	0.942	1036619	REC_START	n/a	n/a	n/a	-999	16	[0, 0, 0]	n/a	FR1	1	R1003P
1624.758	0.756	1037090	REC_WORD	0.756	n/a	CRANE	1	16	[0, 0, 0]	n/a	FR1	1	R1003P
1625.514	0.751	1037468	REC_WORD	0.751	n/a	SEAL	2	16	[0, 0, 0]	n/a	FR1	1	R1003P
1626.265	0.946	1037844	REC_WORD	0.946	n/a	FUDGE	3	16	[0, 0, 0]	n/a	FR1	1	R1003P
1627.211	0.904	1038316	REC_WORD	0.904	n/a	PEN	4	16	[0, 0, 0]	n/a	FR1	1	R1003P
1628.115	1.792	1038768	REC_WORD	1.792	n/a	INK	5	16	[0, 0, 0]	n/a	FR1	1	R1003P
1629.907	2.964	1039664	REC_WORD	2.964	n/a	BRIDGE	-999	16	[0, 0, 0]	n/a	FR1	1	R1003P
1632.871	6.096	1041146	REC_WORD	6.096	n/a	COST	-999	16	[0, 0, 0]	n/a	FR1	1	R1003P
1638.967	7.421	1044194	REC_WORD	7.421	n/a	FENCE	-999	16	[0, 0, 0]	n/a	FR1	1	R1003P
1646.388	6.545	1047904	REC_WORD	6.545	n/a	POND	-999	16	[0, 0, 0]	n/a	FR1	1	R1003P
1652.933	0.892	1051177	REC_WORD	0.892	n/a	WHALE	-999	16	[0, 0, 0]	n/a	FR1	1	R1003P
1653.825	1.313	1051623	REC_END	n/a	n/a	n/a	-999	16	[0, 0, 0]	n/a	FR1	1	R1003P
1655.138	0.0	1052279	TRIAL	n/a	n/a	n/a	-999	17	[0, 0, 0]	n/a	FR1	1	R1003P
1655.138	10.428	1052279	COUNTDOWN_START	n/a	n/a	n/a	-999	17	[0, 0, 0]	n/a	FR1	1	R1003P
1665.566	0.007	1057493	COUNTDOWN_END	n/a	n/a	n/a	-999	17	[0, 0, 0]	n/a	FR1	1	R1003P
1665.573	2.467	1057496	ORIENT	n/a	n/a	n/a	-999	17	[0, 0, 0]	n/a	FR1	1	R1003P
1668.04	2.417	1058730	WORD	n/a	wordpools/wordpool_EN.txt	GOLD	1	17	[0, 0, 0]	n/a	FR1	1	R1003P
1670.457	2.567	1059938	WORD	n/a	wordpools/wordpool_EN.txt	LAMP	2	17	[0, 0, 0]	n/a	FR1	1	R1003P
1673.024	2.616	1061222	WORD	n/a	wordpools/wordpool_EN.txt	MOLE	3	17	[0, 0, 0]	n/a	FR1	1	R1003P
1675.64	2.569	1062530	WORD	n/a	wordpools/wordpool_EN.txt	CROWN	4	17	[0, 0, 0]	n/a	FR1	1	R1003P
1678.209	2.5	1063814	WORD	n/a	wordpools/wordpool_EN.txt	SHIP	5	17	[0, 0, 0]	n/a	FR1	1	R1003P
1680.709	2.534	1065064	WORD	n/a	wordpools/wordpool_EN.txt	MOTH	6	17	[0, 0, 0]	n/a	FR1	1	R1003P
1683.243	2.617	1066331	WORD	n/a	wordpools/wordpool_EN.txt	NEST	7	17	[0, 0, 0]	n/a	FR1	1	R1003P
1685.86	2.551	1067639	WORD	n/a	wordpools/wordpool_EN.txt	BEE	8	17	[0, 0, 0]	n/a	FR1	1	R1003P
1688.411	2.4	1068915	WORD	n/a	wordpools/wordpool_EN.txt	EGG	9	17	[0, 0, 0]	n/a	FR1	1	R1003P
1690.811	2.417	1070115	WORD	n/a	wordpools/wordpool_EN.txt	TOAD	10	17	[0, 0, 0]	n/a	FR1	1	R1003P
1693.228	2.567	1071323	WORD	n/a	wordpools/wordpool_EN.txt	SHELL	11	17	[0, 0, 0]	n/a	FR1	1	R1003P
1695.795	1.617	1072607	WORD	n/a	wordpools/wordpool_EN.txt	HOOF	12	17	[0, 0, 0]	n/a	FR1	1	R1003P
1697.412	0.001	1073415	DISTRACT_START	n/a	n/a	n/a	-999	17	[0, 0, 0]	n/a	FR1	1	R1003P
1697.413	0.016	1073416	START	n/a	n/a	n/a	-999	17	[-999, -999, -999]	n/a	FR1	1	R1003P
1697.429	4.467	1073424	PROB	4.467	n/a	n/a	-999	17	[3, 5, 9]	17	FR1	1	R1003P
1701.896	5.418	1075657	PROB	5.418	n/a	n/a	-999	17	[5, 8, 3]	16	FR1	1	R1003P
1707.314	3.884	1078366	PROB	3.884	n/a	n/a	-999	17	[8, 4, 9]	21	FR1	1	R1003P
1711.198	3.634	1080308	PROB	3.634	n/a	n/a	-999	17	[5, 9, 8]	22	FR1	1	R1003P
1714.832	2.517	1082125	PROB	2.517	n/a	n/a	-999	17	[2, 2, 4]	8	FR1	1	R1003P
1717.349	2.748	1083383	PROB	2.748	n/a	n/a	-999	17	[2, 9, 6]	17	FR1	1	R1003P
1720.097	0.02	1084757	STOP	n/a	n/a	n/a	-999	17	[-999, -999, -999]	n/a	FR1	1	R1003P
1720.117	1.217	1084767	DISTRACT_END	n/a	n/a	n/a	-999	17	[0, 0, 0]	n/a	FR1	1	R1003P
1721.334	0.833	1085375	REC_START	n/a	n/a	n/a	-999	17	[0, 0, 0]	n/a	FR1	1	R1003P
1722.167	0.642	1085792	REC_WORD	0.642	n/a	GOLD	1	17	[0, 0, 0]	n/a	FR1	1	R1003P
1722.809	0.725	1086113	REC_WORD	0.725	n/a	CROWN	4	17	[0, 0, 0]	n/a	FR1	1	R1003P
1723.534	0.926	1086475	REC_WORD	0.926	n/a	SHIP	5	17	[0, 0, 0]	n/a	FR1	1	R1003P
1724.46	3.05	1086938	REC_WORD	3.05	n/a	NEST	7	17	[0, 0, 0]	n/a	FR1	1	R1003P
1727.51	0.877	1088463	REC_WORD	0.877	n/a	WHALE	-999	17	[0, 0, 0]	n/a	FR1	1	R1003P
1728.387	3.748	1088902	REC_WORD	3.748	n/a	CAMP	-999	17	[0, 0, 0]	n/a	FR1	1	R1003P
1732.135	4.879	1090776	REC_WORD	4.879	n/a	OIL	-999	17	[0, 0, 0]	n/a	FR1	1	R1003P
1737.014	14.33	1093215	REC_WORD	14.33	n/a	NEST	7	17	[0, 0, 0]	n/a	FR1	1	R1003P
1751.344	1.145	1100380	REC_END	n/a	n/a	n/a	-999	17	[0, 0, 0]	n/a	FR1	1	R1003P
1752.489	0.001	1100952	COUNTDOWN_START	n/a	n/a	n/a	-999	18	[0, 0, 0]	n/a	FR1	1	R1003P
1752.49	10.427	1100953	TRIAL	n/a	n/a	n/a	-999	18	[0, 0, 0]	n/a	FR1	1	R1003P
1762.917	0.008	1106166	COUNTDOWN_END	n/a	n/a	n/a	-999	18	[0, 0, 0]	n/a	FR1	1	R1003P
1762.925	2.417	1106170	ORIENT	n/a	n/a	n/a	-999	18	[0, 0, 0]	n/a	FR1	1	R1003P
1765.342	2.6	1107378	WORD	n/a	wordpools/wordpool_EN.txt	BRICK	1	18	[0, 0, 0]	n/a	FR1	1	R1003P
1767.942	2.401	1108678	WORD	n/a	wordpools/wordpool_EN.txt	SEED	2	18	[0, 0, 0]	n/a	FR1	1	R1003P
1770.343	2.6	1109879	WORD	n/a	wordpools/wordpool_EN.txt	CORN	3	18	[0, 0, 0]	n/a	FR1	1	R1003P
1772.943	2.501	1111179	WORD	n/a	wordpools/wordpool_EN.txt	NET	4	18	[0, 0, 0]	n/a	FR1	1	R1003P
1775.444	2.383	1112429	WORD	n/a	wordpools/wordpool_EN.txt	STEM	5	18	[0, 0, 0]	n/a	FR1	1	R1003P
1777.827	2.468	1113620	WORD	n/a	wordpools/wordpool_EN.txt	HEART	6	18	[0, 0, 0]	n/a	FR1	1	R1003P
1780.295	2.4	1114854	WORD	n/a	wordpools/wordpool_EN.txt	TOY	7	18	[0, 0, 0]	n/a	FR1	1	R1003P
1782.695	2.534	1116054	WORD	n/a	wordpools/wordpool_EN.txt	CORD	8	18	[0, 0, 0]	n/a	FR1	1	R1003P
1785.229	2.584	1117321	WORD	n/a	wordpools/wordpool_EN.txt	SHRIMP	9	18	[0, 0, 0]	n/a	FR1	1	R1003P
1787.813	2.417	1118613	WORD	n/a	wordpools/wordpool_EN.txt	WOOD	10	18	[0, 0, 0]	n/a	FR1	1	R1003P
1790.23	2.384	1119822	WORD	n/a	wordpools/wordpool_EN.txt	BALL	11	18	[0, 0, 0]	n/a	FR1	1	R1003P
1792.614	1.617	1121014	WORD	n/a	wordpools/wordpool_EN.txt	ROOT	12	18	[0, 0, 0]	n/a	FR1	1	R1003P
1794.231	0.0	1121822	DISTRACT_START	n/a	n/a	n/a	-999	18	[0, 0, 0]	n/a	FR1	1	R1003P
1794.231	0.016	1121822	START	n/a	n/a	n/a	-999	18	[-999, -999, -999]	n/a	FR1	1	R1003P
1794.247	4.551	1121830	PROB	4.551	n/a	n/a	-999	18	[8, 7, 9]	24	FR1	1	R1003P
1798.798	2.984	1124105	PROB	2.984	n/a	n/a	-999	18	[3, 3, 5]	11	FR1	1	R1003P
1801.782	1.9	1125597	PROB	1.9	n/a	n/a	-999	18	[7, 1, 4]	12	FR1	1	R1003P
1803.682	4.635	1126547	PROB	4.635	n/a	n/a	-999	18	[4, 3, 8]	15	FR1	1	R1003P
1808.317	3.0	1128865	PROB	3.0	n/a	n/a	-999	18	[8, 4, 8]	20	FR1	1	R1003P
1811.317	1.85	1130365	PROB	1.85	n/a	n/a	-999	18	[4, 4, 1]	9	FR1	1	R1003P
1813.167	2.434	1131290	PROB	2.434	n/a	n/a	-999	18	[1, 5, 8]	14	FR1	1	R1003P
1815.601	0.017	1132506	STOP	n/a	n/a	n/a	-999	18	[-999, -999, -999]	n/a	FR1	1	R1003P
1815.618	1.234	1132515	DISTRACT_END	n/a	n/a	n/a	-999	18	[0, 0, 0]	n/a	FR1	1	R1003P
1816.852	0.807	1133132	REC_START	n/a	n/a	n/a	-999	18	[0, 0, 0]	n/a	FR1	1	R1003P
1817.659	0.371	1133535	REC_WORD	0.371	n/a	BRICK	1	18	[0, 0, 0]	n/a	FR1	1	R1003P
1818.03	0.899	1133721	REC_WORD	0.899	n/a	SEED	2	18	[0, 0, 0]	n/a	FR1	1	R1003P
1818.929	0.684	1134170	REC_WORD	0.684	n/a	CORD	8	18	[0, 0, 0]	n/a	FR1	1	R1003P
1819.613	1.069	1134512	REC_WORD	1.069	n/a	STEM	5	18	[0, 0, 0]	n/a	FR1	1	R1003P
1820.682	2.451	1135047	REC_WORD	2.451	n/a	NET	4	18	[0, 0, 0]	n/a	FR1	1	R1003P
1823.133	3.84	1136272	REC_WORD	3.84	n/a	STAIR	-999	18	[0, 0, 0]	n/a	FR1	1	R1003P
1826.973	2.126	1138192	REC_WORD	2.126	n/a	NEST	-999	18	[0, 0, 0]	n/a	FR1	1	R1003P
1829.099	17.763	1139255	REC_WORD	17.763	n/a	BRIDGE	-999	18	[0, 0, 0]	n/a	FR1	1	R1003P
1846.862	1.328	1148136	REC_END	n/a	n/a	n/a	-999	18	[0, 0, 0]	n/a	FR1	1	R1003P
1848.19	0.001	1148800	COUNTDOWN_START	n/a	n/a	n/a	-999	19	[0, 0, 0]	n/a	FR1	1	R1003P
1848.191	10.427	1148801	TRIAL	n/a	n/a	n/a	-999	19	[0, 0, 0]	n/a	FR1	1	R1003P
1858.618	0.008	1154014	COUNTDOWN_END	n/a	n/a	n/a	-999	19	[0, 0, 0]	n/a	FR1	1	R1003P
1858.626	2.5	1154018	ORIENT	n/a	n/a	n/a	-999	19	[0, 0, 0]	n/a	FR1	1	R1003P
1861.126	2.418	1155268	WORD	n/a	wordpools/wordpool_EN.txt	GEESE	1	19	[0, 0, 0]	n/a	FR1	1	R1003P
1863.544	2.483	1156477	WORD	n/a	wordpools/wordpool_EN.txt	SKUNK	2	19	[0, 0, 0]	n/a	FR1	1	R1003P
1866.027	2.568	1157718	WORD	n/a	wordpools/wordpool_EN.txt	RIB	3	19	[0, 0, 0]	n/a	FR1	1	R1003P
1868.595	2.5	1159002	WORD	n/a	wordpools/wordpool_EN.txt	WORM	4	19	[0, 0, 0]	n/a	FR1	1	R1003P
1871.095	2.549	1160252	WORD	n/a	wordpools/wordpool_EN.txt	LOCK	5	19	[0, 0, 0]	n/a	FR1	1	R1003P
1873.644	2.402	1161526	WORD	n/a	wordpools/wordpool_EN.txt	SPONGE	6	19	[0, 0, 0]	n/a	FR1	1	R1003P
1876.046	2.534	1162727	WORD	n/a	wordpools/wordpool_EN.txt	OWL	7	19	[0, 0, 0]	n/a	FR1	1	R1003P
1878.58	2.434	1163994	WORD	n/a	wordpools/wordpool_EN.txt	HEN	8	19	[0, 0, 0]	n/a	FR1	1	R1003P
1881.014	2.583	1165211	WORD	n/a	wordpools/wordpool_EN.txt	PIN	9	19	[0, 0, 0]	n/a	FR1	1	R1003P
1883.597	2.484	1166503	WORD	n/a	wordpools/wordpool_EN.txt	FOOD	10	19	[0, 0, 0]	n/a	FR1	1	R1003P
1886.081	2.566	1167745	WORD	n/a	wordpools/wordpool_EN.txt	FISH	11	19	[0, 0, 0]	n/a	FR1	1	R1003P
1888.647	1.601	1169028	WORD	n/a	wordpools/wordpool_EN.txt	WEB	12	19	[0, 0, 0]	n/a	FR1	1	R1003P
1890.248	0.001	1169828	DISTRACT_START	n/a	n/a	n/a	-999	19	[0, 0, 0]	n/a	FR1	1	R1003P
1890.249	0.016	1169829	START	n/a	n/a	n/a	-999	19	[-999, -999, -999]	n/a	FR1	1	R1003P
1890.265	2.351	1169837	PROB	2.351	n/a	n/a	-999	19	[6, 9, 1]	16	FR1	1	R1003P
1892.616	2.534	1171012	PROB	2.534	n/a	n/a	-999	19	[4, 6, 9]	19	FR1	1	R1003P
1895.15	4.834	1172279	PROB	4.834	n/a	n/a	-999	19	[4, 5, 4]	13	FR1	1	R1003P
1899.984	5.551	1174696	PROB	5.551	n/a	n/a	-999	19	[3, 5, 9]	17	FR1	1	R1003P
1905.535	1.817	1177471	PROB	1.817	n/a	n/a	-999	19	[3, 3, 3]	9	FR1	1	R1003P
1907.352	2.906	1178380	PROB	2.906	n/a	n/a	-999	19	[9, 3, 3]	15	FR1	1	R1003P
1910.258	0.011	1179832	STOP	n/a	n/a	n/a	-999	19	[-999, -999, -999]	n/a	FR1	1	R1003P
1910.269	1.084	1179838	DISTRACT_END	n/a	n/a	n/a	-999	19	[0, 0, 0]	n/a	FR1	1	R1003P
1911.353	0.731	1180380	REC_START	n/a	n/a	n/a	-999	19	[0, 0, 0]	n/a	FR1	1	R1003P
1912.084	0.54	1180745	REC_WORD	0.54	n/a	GEESE	1	19	[0, 0, 0]	n/a	FR1	1	R1003P
1912.624	0.888	1181015	REC_WORD	0.888	n/a	SKUNK	2	19	[0, 0, 0]	n/a	FR1	1	R1003P
1913.512	0.896	1181459	REC_WORD	0.896	n/a	RIB	3	19	[0, 0, 0]	n/a	FR1	1	R1003P
1914.408	0.985	1181907	REC_WORD	0.985	n/a	WORM	4	19	[0, 0, 0]	n/a	FR1	1	R1003P
1915.393	8.324	1182400	REC_WORD	8.324	n/a	NEST	-999	19	[0, 0, 0]	n/a	FR1	1	R1003P
1923.717	17.65	1186562	REC_WORD	17.65	n/a	WEDGE	-999	19	[0, 0, 0]	n/a	FR1	1	R1003P
1941.367	1.158	1195386	REC_END	n/a	n/a	n/a	-999	19	[0, 0, 0]	n/a	FR1	1	R1003P
1942.525	0.0	1195965	TRIAL	n/a	n/a	n/a	-999	20	[0, 0, 0]	n/a	FR1	1	R1003P
1942.525	10.428	1195965	COUNTDOWN_START	n/a	n/a	n/a	-999	20	[0, 0, 0]	n/a	FR1	1	R1003P
1952.953	0.007	1201179	COUNTDOWN_END	n/a	n/a	n/a	-999	20	[0, 0, 0]	n/a	FR1	1	R1003P
1952.96	2.451	1201182	ORIENT	n/a	n/a	n/a	-999	20	[0, 0, 0]	n/a	FR1	1	R1003P
1955.411	2.5	1202408	WORD	n/a	wordpools/wordpool_EN.txt	STREET	1	20	[0, 0, 0]	n/a	FR1	1	R1003P
1957.911	2.551	1203658	WORD	n/a	wordpools/wordpool_EN.txt	CAGE	2	20	[0, 0, 0]	n/a	FR1	1	R1003P
1960.462	2.584	1204933	WORD	n/a	wordpools/wordpool_EN.txt	DIME	3	20	[0, 0, 0]	n/a	FR1	1	R1003P
1963.046	2.55	1206225	WORD	n/a	wordpools/wordpool_EN.txt	SLIME	4	20	[0, 0, 0]	n/a	FR1	1	R1003P
1965.596	2.601	1207500	WORD	n/a	wordpools/wordpool_EN.txt	PANTS	5	20	[0, 0, 0]	n/a	FR1	1	R1003P
1968.197	2.417	1208800	WORD	n/a	wordpools/wordpool_EN.txt	SINK	6	20	[0, 0, 0]	n/a	FR1	1	R1003P
1970.614	2.484	1210009	WORD	n/a	wordpools/wordpool_EN.txt	FUR	7	20	[0, 0, 0]	n/a	FR1	1	R1003P
1973.098	2.4	1211251	WORD	n/a	wordpools/wordpool_EN.txt	AXE	8	20	[0, 0, 0]	n/a	FR1	1	R1003P
1975.498	2.484	1212451	WORD	n/a	wordpools/wordpool_EN.txt	TRAIN	9	20	[0, 0, 0]	n/a	FR1	1	R1003P
1977.982	2.6	1213693	WORD	n/a	wordpools/wordpool_EN.txt	SLEEVE	10	20	[0, 0, 0]	n/a	FR1	1	R1003P
1980.582	2.534	1214993	WORD	n/a	wordpools/wordpool_EN.txt	TIE	11	20	[0, 0, 0]	n/a	FR1	1	R1003P
1983.116	1.617	1216260	WORD	n/a	wordpools/wordpool_EN.txt	HAND	12	20	[0, 0, 0]	n/a	FR1	1	R1003P
1984.733	0.001	1217068	DISTRACT_START	n/a	n/a	n/a	-999	20	[0, 0, 0]	n/a	FR1	1	R1003P
1984.734	0.016	1217069	START	n/a	n/a	n/a	-999	20	[-999, -999, -999]	n/a	FR1	1	R1003P
1984.75	3.501	1217077	PROB	3.501	n/a	n/a	-999	20	[8, 8, 7]	23	FR1	1	R1003P
1988.251	2.233	1218827	PROB	2.233	n/a	n/a	-999	20	[6, 2, 8]	16	FR1	1	R1003P
1990.484	2.584	1219943	PROB	2.584	n/a	n/a	-999	20	[3, 4, 1]	8	FR1	1	R1003P
1993.068	2.15	1221235	PROB	2.15	n/a	n/a	-999	20	[1, 1, 8]	10	FR1	1	R1003P
1995.218	5.718	1222310	PROB	5.718	n/a	n/a	-999	20	[6, 8, 7]	21	FR1	1	R1003P
2000.936	2.017	1225169	PROB	2.017	n/a	n/a	-999	20	[7, 2, 1]	10	FR1	1	R1003P
2002.953	2.36	1226178	PROB	2.36	n/a	n/a	-999	20	[6, 8, 1]	15	FR1	1	R1003P
2005.313	0.007	1227357	STOP	n/a	n/a	n/a	-999	20	[-999, -999, -999]	n/a	FR1	1	R1003P
2005.32	1.051	1227361	DISTRACT_END	n/a	n/a	n/a	-999	20	[0, 0, 0]	n/a	FR1	1	R1003P
2006.371	0.766	1227886	REC_START	n/a	n/a	n/a	-999	20	[0, 0, 0]	n/a	FR1	1	R1003P
2007.137	0.973	1228269	REC_WORD	0.973	n/a	STREET	1	20	[0, 0, 0]	n/a	FR1	1	R1003P
2008.11	1.794	1228756	REC_WORD	1.794	n/a	CAGE	2	20	[0, 0, 0]	n/a	FR1	1	R1003P
2009.904	1.019	1229653	REC_WORD	1.019	n/a	SLIME	4	20	[0, 0, 0]	n/a	FR1	1	R1003P
2010.923	0.898	1230162	REC_WORD	0.898	n/a	PANTS	5	20	[0, 0, 0]	n/a	FR1	1	R1003P
2011.821	3.172	1230611	REC_WORD	3.172	n/a	DIME	3	20	[0, 0, 0]	n/a	FR1	1	R1003P
2014.993	21.391	1232197	REC_WORD	21.391	n/a	BRIDGE	-999	20	[0, 0, 0]	n/a	FR1	1	R1003P
2036.384	1.275	1242892	REC_END	n/a	n/a	n/a	-999	20	[0, 0, 0]	n/a	FR1	1	R1003P
2037.659	0.0	1243530	COUNTDOWN_START	n/a	n/a	n/a	-999	21	[0, 0, 0]	n/a	FR1	1	R1003P
2037.659	10.428	1243530	TRIAL	n/a	n/a	n/a	-999	21	[0, 0, 0]	n/a	FR1	1	R1003P
2048.087	0.008	1248743	COUNTDOWN_END	n/a	n/a	n/a	-999	21	[0, 0, 0]	n/a	FR1	1	R1003P
2048.095	2.517	1248747	ORIENT	n/a	n/a	n/a	-999	21	[0, 0, 0]	n/a	FR1	1	R1003P
2050.612	2.617	1250006	WORD	n/a	wordpools/wordpool_EN.txt	ROSE	1	21	[0, 0, 0]	n/a	FR1	1	R1003P
2053.229	2.416	1251314	WORD	n/a	wordpools/wordpool_EN.txt	FLAG	2	21	[0, 0, 0]	n/a	FR1	1	R1003P
2055.645	2.385	1252522	WORD	n/a	wordpools/wordpool_EN.txt	WHEEL	3	21	[0, 0, 0]	n/a	FR1	1	R1003P
2058.03	2.384	1253715	WORD	n/a	wordpools/wordpool_EN.txt	WORLD	4	21	[0, 0, 0]	n/a	FR1	1	R1003P
2060.414	2.4	1254907	WORD	n/a	wordpools/wordpool_EN.txt	SPOON	5	21	[0, 0, 0]	n/a	FR1	1	R1003P
2062.814	2.601	1256106	WORD	n/a	wordpools/wordpool_EN.txt	CAKE	6	21	[0, 0, 0]	n/a	FR1	1	R1003P
2065.415	2.484	1257407	WORD	n/a	wordpools/wordpool_EN.txt	YARD	7	21	[0, 0, 0]	n/a	FR1	1	R1003P
2067.899	2.45	1258649	WORD	n/a	wordpools/wordpool_EN.txt	DOCK	8	21	[0, 0, 0]	n/a	FR1	1	R1003P
2070.349	2.384	1259874	WORD	n/a	wordpools/wordpool_EN.txt	KEY	9	21	[0, 0, 0]	n/a	FR1	1	R1003P
2072.733	2.417	1261066	WORD	n/a	wordpools/wordpool_EN.txt	TOOL	10	21	[0, 0, 0]	n/a	FR1	1	R1003P
2075.15	2.534	1262274	WORD	n/a	wordpools/wordpool_EN.txt	STRING	11	21	[0, 0, 0]	n/a	FR1	1	R1003P
2077.684	1.617	1263541	WORD	n/a	wordpools/wordpool_EN.txt	HOSE	12	21	[0, 0, 0]	n/a	FR1	1	R1003P
2079.301	0.001	1264350	DISTRACT_START	n/a	n/a	n/a	-999	21	[0, 0, 0]	n/a	FR1	1	R1003P
2079.302	0.016	1264350	START	n/a	n/a	n/a	-999	21	[-999, -999, -999]	n/a	FR1	1	R1003P
2079.318	2.3	1264358	PROB	2.3	n/a	n/a	-999	21	[1, 8, 8]	17	FR1	1	R1003P
2081.618	3.267	1265508	PROB	3.267	n/a	n/a	-999	21	[5, 8, 3]	16	FR1	1	R1003P
2084.885	5.801	1267141	PROB	5.801	n/a	n/a	-999	21	[8, 9, 5]	22	FR1	1	R1003P
2090.686	1.634	1270042	PROB	1.634	n/a	n/a	-999	21	[5, 4, 3]	12	FR1	1	R1003P
2092.32	3.234	1270859	PROB	3.234	n/a	n/a	-999	21	[6, 2, 5]	13	FR1	1	R1003P
2095.554	2.45	1272476	PROB	2.45	n/a	n/a	-999	21	[2, 4, 3]	9	FR1	1	R1003P
2098.004	1.749	1273701	PROB	1.749	n/a	n/a	-999	21	[5, 5, 1]	11	FR1	1	R1003P
2099.753	0.018	1274575	STOP	n/a	n/a	n/a	-999	21	[-999, -999, -999]	n/a	FR1	1	R1003P
2099.771	1.134	1274584	DISTRACT_END	n/a	n/a	n/a	-999	21	[0, 0, 0]	n/a	FR1	1	R1003P
2100.905	0.815	1275151	REC_START	n/a	n/a	n/a	-999	21	[0, 0, 0]	n/a	FR1	1	R1003P
2101.72	0.79	1275558	REC_WORD	0.79	n/a	ROSE	1	21	[0, 0, 0]	n/a	FR1	1	R1003P
2102.51	1.058	1275953	REC_WORD	1.058	n/a	FLAG	2	21	[0, 0, 0]	n/a	FR1	1	R1003P
2103.568	11.353	1276482	REC_WORD	11.353	n/a	WHEEL	3	21	[0, 0, 0]	n/a	FR1	1	R1003P
2114.921	1.647	1282159	REC_WORD	1.647	n/a	HOUSE	-999	21	[0, 0, 0]	n/a	FR1	1	R1003P
2116.568	14.348	1282982	REC_WORD	14.348	n/a	GUARD	-999	21	[0, 0, 0]	n/a	FR1	1	R1003P
2130.916	1.245	1290156	REC_END	n/a	n/a	n/a	-999	21	[0, 0, 0]	n/a	FR1	1	R1003P
2132.161	0.0	1290778	TRIAL	n/a	n/a	n/a	-999	22	[0, 0, 0]	n/a	FR1	1	R1003P
2132.161	10.428	1290778	COUNTDOWN_START	n/a	n/a	n/a	-999	22	[0, 0, 0]	n/a	FR1	1	R1003P
2142.589	0.007	1295992	COUNTDOWN_END	n/a	n/a	n/a	-999	22	[0, 0, 0]	n/a	FR1	1	R1003P
2142.596	2.534	1295995	ORIENT	n/a	n/a	n/a	-999	22	[0, 0, 0]	n/a	FR1	1	R1003P
2145.13	2.384	1297262	WORD	n/a	wordpools/wordpool_EN.txt	GLASS	1	22	[0, 0, 0]	n/a	FR1	1	R1003P
2147.514	2.384	1298454	WORD	n/a	wordpools/wordpool_EN.txt	MUG	2	22	[0, 0, 0]	n/a	FR1	1	R1003P
2149.898	2.467	1299646	WORD	n/a	wordpools/wordpool_EN.txt	SOCK	3	22	[0, 0, 0]	n/a	FR1	1	R1003P
2152.365	2.55	1300880	WORD	n/a	wordpools/wordpool_EN.txt	FLOOR	4	22	[0, 0, 0]	n/a	FR1	1	R1003P
2154.915	2.551	1302155	WORD	n/a	wordpools/wordpool_EN.txt	SHOE	5	22	[0, 0, 0]	n/a	FR1	1	R1003P
2157.466	2.567	1303430	WORD	n/a	wordpools/wordpool_EN.txt	JAR	6	22	[0, 0, 0]	n/a	FR1	1	R1003P
2160.033	2.599	1304713	WORD	n/a	wordpools/wordpool_EN.txt	ELF	7	22	[0, 0, 0]	n/a	FR1	1	R1003P
2162.632	2.385	1306013	WORD	n/a	wordpools/wordpool_EN.txt	TANK	8	22	[0, 0, 0]	n/a	FR1	1	R1003P
2165.017	2.384	1307205	WORD	n/a	wordpools/wordpool_EN.txt	POOL	9	22	[0, 0, 0]	n/a	FR1	1	R1003P
2167.401	2.417	1308397	WORD	n/a	wordpools/wordpool_EN.txt	ROOM	10	22	[0, 0, 0]	n/a	FR1	1	R1003P
2169.818	2.534	1309606	WORD	n/a	wordpools/wordpool_EN.txt	CANE	11	22	[0, 0, 0]	n/a	FR1	1	R1003P
2172.352	1.617	1310873	WORD	n/a	wordpools/wordpool_EN.txt	RUG	12	22	[0, 0, 0]	n/a	FR1	1	R1003P
2173.969	0.0	1311681	DISTRACT_START	n/a	n/a	n/a	-999	22	[0, 0, 0]	n/a	FR1	1	R1003P
2173.969	0.016	1311681	START	n/a	n/a	n/a	-999	22	[-999, -999, -999]	n/a	FR1	1	R1003P
2173.985	2.734	1311689	PROB	2.734	n/a	n/a	-999	22	[2, 9, 5]	16	FR1	1	R1003P
2176.719	2.584	1313056	PROB	2.584	n/a	n/a	-999	22	[3, 1, 7]	11	FR1	1	R1003P
2179.303	2.901	1314348	PROB	2.901	n/a	n/a	-999	22	[6, 9, 2]	17	FR1	1	R1003P
2182.204	1.9	1315798	PROB	1.9	n/a	n/a	-999	22	[4, 1, 6]	11	FR1	1	R1003P
2184.104	2.45	1316748	PROB	2.45	n/a	n/a	-999	22	[1, 6, 3]	10	FR1	1	R1003P
2186.554	2.518	1317973	PROB	2.518	n/a	n/a	-999	22	[9, 4, 1]	14	FR1	1	R1003P
2189.072	5.898	1319232	PROB	5.898	n/a	n/a	-999	22	[8, 7, 6]	20	FR1	1	R1003P
2194.97	0.019	1322181	STOP	n/a	n/a	n/a	-999	22	[-999, -999, -999]	n/a	FR1	1	R1003P
2194.989	1.218	1322190	DISTRACT_END	n/a	n/a	n/a	-999	22	[0, 0, 0]	n/a	FR1	1	R1003P
2196.207	1.084	1322799	REC_START	n/a	n/a	n/a	-999	22	[0, 0, 0]	n/a	FR1	1	R1003P
2197.291	0.885	1323341	REC_WORD	0.885	n/a	GLASS	1	22	[0, 0, 0]	n/a	FR1	1	R1003P
2198.176	0.965	1323784	REC_WORD	0.965	n/a	ROSE	-999	22	[0, 0, 0]	n/a	FR1	1	R1003P
2199.141	1.141	1324266	REC_WORD	1.141	n/a	MUG	2	22	[0, 0, 0]	n/a	FR1	1	R1003P
2200.282	2.234	1324837	REC_WORD	2.234	n/a	FLOOR	4	22	[0, 0, 0]	n/a	FR1	1	R1003P
2202.516	3.047	1325954	REC_WORD	3.047	n/a	CHAIR	-999	22	[0, 0, 0]	n/a	FR1	1	R1003P
2205.563	11.663	1327477	REC_WORD	11.663	n/a	WHEEL	-999	22	[0, 0, 0]	n/a	FR1	1	R1003P
2217.226	8.989	1333308	REC_WORD	8.989	n/a	BOAT	-999	22	[0, 0, 0]	n/a	FR1	1	R1003P
2226.215	1.446	1337803	REC_END	n/a	n/a	n/a	-999	22	[0, 0, 0]	n/a	FR1	1	R1003P
2227.661	0.0	1338526	TRIAL	n/a	n/a	n/a	-999	23	[0, 0, 0]	n/a	FR1	1	R1003P
2227.661	10.428	1338526	COUNTDOWN_START	n/a	n/a	n/a	-999	23	[0, 0, 0]	n/a	FR1	1	R1003P
2238.089	0.008	1343739	COUNTDOWN_END	n/a	n/a	n/a	-999	23	[0, 0, 0]	n/a	FR1	1	R1003P
2238.097	2.518	1343743	ORIENT	n/a	n/a	n/a	-999	23	[0, 0, 0]	n/a	FR1	1	R1003P
2240.615	2.433	1345002	WORD	n/a	wordpools/wordpool_EN.txt	CUP	1	23	[0, 0, 0]	n/a	FR1	1	R1003P
2243.048	2.501	1346219	WORD	n/a	wordpools/wordpool_EN.txt	SOUP	2	23	[0, 0, 0]	n/a	FR1	1	R1003P
2245.549	2.467	1347469	WORD	n/a	wordpools/wordpool_EN.txt	SLUSH	3	23	[0, 0, 0]	n/a	FR1	1	R1003P
2248.016	2.584	1348703	WORD	n/a	wordpools/wordpool_EN.txt	BRUSH	4	23	[0, 0, 0]	n/a	FR1	1	R1003P
2250.6	2.434	1349994	WORD	n/a	wordpools/wordpool_EN.txt	FRUIT	5	23	[0, 0, 0]	n/a	FR1	1	R1003P
2253.034	2.599	1351211	WORD	n/a	wordpools/wordpool_EN.txt	THUMB	6	23	[0, 0, 0]	n/a	FR1	1	R1003P
2255.633	2.485	1352511	WORD	n/a	wordpools/wordpool_EN.txt	SUIT	7	23	[0, 0, 0]	n/a	FR1	1	R1003P
2258.118	2.467	1353753	WORD	n/a	wordpools/wordpool_EN.txt	PLATE	8	23	[0, 0, 0]	n/a	FR1	1	R1003P
2260.585	2.417	1354987	WORD	n/a	wordpools/wordpool_EN.txt	GRAPE	9	23	[0, 0, 0]	n/a	FR1	1	R1003P
2263.002	2.384	1356195	WORD	n/a	wordpools/wordpool_EN.txt	CHEEK	10	23	[0, 0, 0]	n/a	FR1	1	R1003P
2265.386	2.584	1357387	WORD	n/a	wordpools/wordpool_EN.txt	VASE	11	23	[0, 0, 0]	n/a	FR1	1	R1003P
2267.97	1.617	1358679	WORD	n/a	wordpools/wordpool_EN.txt	NOSE	12	23	[0, 0, 0]	n/a	FR1	1	R1003P
2269.587	0.001	1359487	DISTRACT_START	n/a	n/a	n/a	-999	23	[0, 0, 0]	n/a	FR1	1	R1003P
2269.588	0.015	1359488	START	n/a	n/a	n/a	-999	23	[-999, -999, -999]	n/a	FR1	1	R1003P
2269.603	1.984	1359495	PROB	1.984	n/a	n/a	-999	23	[2, 5, 5]	12	FR1	1	R1003P
2271.587	2.584	1360487	PROB	2.584	n/a	n/a	-999	23	[2, 5, 7]	14	FR1	1	R1003P
2274.171	2.717	1361779	PROB	2.717	n/a	n/a	-999	23	[1, 4, 8]	13	FR1	1	R1003P
2276.888	3.084	1363138	PROB	3.084	n/a	n/a	-999	23	[7, 7, 4]	18	FR1	1	R1003P
2279.972	4.101	1364680	PROB	4.101	n/a	n/a	-999	23	[8, 9, 8]	24	FR1	1	R1003P
2284.073	7.817	1366730	PROB	7.817	n/a	n/a	-999	23	[9, 5, 6]	21	FR1	1	R1003P
2291.89	0.018	1370638	STOP	n/a	n/a	n/a	-999	23	[-999, -999, -999]	n/a	FR1	1	R1003P
2291.908	1.117	1370647	DISTRACT_END	n/a	n/a	n/a	-999	23	[0, 0, 0]	n/a	FR1	1	R1003P
2293.025	1.103	1371206	REC_START	n/a	n/a	n/a	-999	23	[0, 0, 0]	n/a	FR1	1	R1003P
2294.128	0.496	1371757	REC_WORD	0.496	n/a	CUP	1	23	[0, 0, 0]	n/a	FR1	1	R1003P
2294.624	0.902	1372005	REC_WORD	0.902	n/a	SUIT	7	23	[0, 0, 0]	n/a	FR1	1	R1003P
2295.526	1.14	1372456	REC_WORD	1.14	n/a	SLUSH	3	23	[0, 0, 0]	n/a	FR1	1	R1003P
2296.666	2.501	1373026	REC_WORD	2.501	n/a	BRUSH	4	23	[0, 0, 0]	n/a	FR1	1	R1003P
2299.167	2.019	1374277	REC_WORD	2.019	n/a	CHEEK	10	23	[0, 0, 0]	n/a	FR1	1	R1003P
2301.186	6.541	1375286	REC_WORD	6.541	n/a	CHAIR	-999	23	[0, 0, 0]	n/a	FR1	1	R1003P
2307.727	15.311	1378556	REC_WORD	15.311	n/a	JAR	-999	23	[0, 0, 0]	n/a	FR1	1	R1003P
2323.038	1.459	1386212	REC_END	n/a	n/a	n/a	-999	23	[0, 0, 0]	n/a	FR1	1	R1003P
2324.497	0.0	1386941	TRIAL	n/a	n/a	n/a	-999	24	[0, 0, 0]	n/a	FR1	1	R1003P
2324.497	10.428	1386941	COUNTDOWN_START	n/a	n/a	n/a	-999	24	[0, 0, 0]	n/a	FR1	1	R1003P
2334.925	0.007	1392155	COUNTDOWN_END	n/a	n/a	n/a	-999	24	[0, 0, 0]	n/a	FR1	1	R1003P
2334.932	2.601	1392158	ORIENT	n/a	n/a	n/a	-999	24	[0, 0, 0]	n/a	FR1	1	R1003P
2337.533	2.6	1393459	WORD	n/a	wordpools/wordpool_EN.txt	CROW	1	24	[0, 0, 0]	n/a	FR1	1	R1003P
2340.133	2.401	1394759	WORD	n/a	wordpools/wordpool_EN.txt	CLOWN	2	24	[0, 0, 0]	n/a	FR1	1	R1003P
2342.534	2.584	1395959	WORD	n/a	wordpools/wordpool_EN.txt	SCHOOL	3	24	[0, 0, 0]	n/a	FR1	1	R1003P
2345.118	2.5	1397251	WORD	n/a	wordpools/wordpool_EN.txt	PRINCE	4	24	[0, 0, 0]	n/a	FR1	1	R1003P
2347.618	2.501	1398501	WORD	n/a	wordpools/wordpool_EN.txt	JUICE	5	24	[0, 0, 0]	n/a	FR1	1	R1003P
2350.119	2.549	1399751	WORD	n/a	wordpools/wordpool_EN.txt	BOARD	6	24	[0, 0, 0]	n/a	FR1	1	R1003P
2352.668	2.568	1401026	WORD	n/a	wordpools/wordpool_EN.txt	WING	7	24	[0, 0, 0]	n/a	FR1	1	R1003P
2355.236	2.584	1402310	WORD	n/a	wordpools/wordpool_EN.txt	DOLL	8	24	[0, 0, 0]	n/a	FR1	1	R1003P
2357.82	2.467	1403602	WORD	n/a	wordpools/wordpool_EN.txt	BRANCH	9	24	[0, 0, 0]	n/a	FR1	1	R1003P
2360.287	2.517	1404835	WORD	n/a	wordpools/wordpool_EN.txt	HORSE	10	24	[0, 0, 0]	n/a	FR1	1	R1003P
2362.804	2.384	1406094	WORD	n/a	wordpools/wordpool_EN.txt	BEAR	11	24	[0, 0, 0]	n/a	FR1	1	R1003P
2365.188	1.617	1407285	WORD	n/a	wordpools/wordpool_EN.txt	KITE	12	24	[0, 0, 0]	n/a	FR1	1	R1003P
2366.805	0.001	1408094	DISTRACT_START	n/a	n/a	n/a	-999	24	[0, 0, 0]	n/a	FR1	1	R1003P
2366.806	0.016	1408094	START	n/a	n/a	n/a	-999	24	[-999, -999, -999]	n/a	FR1	1	R1003P
2366.822	2.684	1408102	PROB	2.684	n/a	n/a	-999	24	[7, 9, 3]	19	FR1	1	R1003P
2369.506	2.467	1409444	PROB	2.467	n/a	n/a	-999	24	[2, 5, 2]	9	FR1	1	R1003P
2371.973	2.384	1410678	PROB	2.384	n/a	n/a	-999	24	[8, 9, 1]	18	FR1	1	R1003P
2374.357	2.4	1411870	PROB	2.4	n/a	n/a	-999	24	[2, 6, 6]	14	FR1	1	R1003P
2376.757	3.184	1413070	PROB	3.184	n/a	n/a	-999	24	[6, 8, 3]	17	FR1	1	R1003P
2379.941	1.684	1414662	PROB	1.684	n/a	n/a	-999	24	[1, 5, 5]	11	FR1	1	R1003P
2381.625	2.7	1415504	PROB	2.7	n/a	n/a	-999	24	[1, 5, 3]	9	FR1	1	R1003P
2384.325	3.932	1416853	PROB	3.932	n/a	n/a	-999	24	[8, 6, 1]	15	FR1	1	R1003P
2388.257	0.019	1418819	STOP	n/a	n/a	n/a	-999	24	[-999, -999, -999]	n/a	FR1	1	R1003P
2388.276	1.117	1418829	DISTRACT_END	n/a	n/a	n/a	-999	24	[0, 0, 0]	n/a	FR1	1	R1003P
2389.393	1.876	1419387	REC_START	n/a	n/a	n/a	-999	24	[0, 0, 0]	n/a	FR1	1	R1003P
2391.269	1.349	1420325	REC_WORD	1.349	n/a	CROWN	-999	24	[0, 0, 0]	n/a	FR1	1	R1003P
2392.618	2.721	1421000	REC_WORD	2.721	n/a	BOY	-999	24	[0, 0, 0]	n/a	FR1	1	R1003P
2395.339	1.182	1422360	REC_WORD	1.182	n/a	BOARD	6	24	[0, 0, 0]	n/a	FR1	1	R1003P
2396.521	3.34	1422951	REC_WORD	3.34	n/a	FRUIT	-999	24	[0, 0, 0]	n/a	FR1	1	R1003P
2399.861	19.546	1424621	REC_WORD	19.546	n/a	JUICE	5	24	[0, 0, 0]	n/a	FR1	1	R1003P
2419.407	1.425	1434394	REC_END	n/a	n/a	n/a	-999	24	[0, 0, 0]	n/a	FR1	1	R1003P
2420.832	0.0	1435106	TRIAL	n/a	n/a	n/a	-999	25	[0, 0, 0]	n/a	FR1	1	R1003P
2420.832	10.428	1435106	COUNTDOWN_START	n/a	n/a	n/a	-999	25	[0, 0, 0]	n/a	FR1	1	R1003P
2431.26	0.007	1440320	COUNTDOWN_END	n/a	n/a	n/a	-999	25	[0, 0, 0]	n/a	FR1	1	R1003P
2431.267	2.584	1440323	ORIENT	n/a	n/a	n/a	-999	25	[0, 0, 0]	n/a	FR1	1	R1003P
2433.851	2.6	1441615	WORD	n/a	wordpools/wordpool_EN.txt	STONE	1	25	[0, 0, 0]	n/a	FR1	1	R1003P
2436.451	2.601	1442915	WORD	n/a	wordpools/wordpool_EN.txt	HORN	2	25	[0, 0, 0]	n/a	FR1	1	R1003P
2439.052	2.616	1444216	WORD	n/a	wordpools/wordpool_EN.txt	SPEAR	3	25	[0, 0, 0]	n/a	FR1	1	R1003P
2441.668	2.418	1445523	WORD	n/a	wordpools/wordpool_EN.txt	BUSH	4	25	[0, 0, 0]	n/a	FR1	1	R1003P
2444.086	2.617	1446732	WORD	n/a	wordpools/wordpool_EN.txt	DRUM	5	25	[0, 0, 0]	n/a	FR1	1	R1003P
2446.703	2.534	1448041	WORD	n/a	wordpools/wordpool_EN.txt	PEAR	6	25	[0, 0, 0]	n/a	FR1	1	R1003P
2449.237	2.467	1449308	WORD	n/a	wordpools/wordpool_EN.txt	SWAMP	7	25	[0, 0, 0]	n/a	FR1	1	R1003P
2451.704	2.484	1450541	WORD	n/a	wordpools/wordpool_EN.txt	FOX	8	25	[0, 0, 0]	n/a	FR1	1	R1003P
2454.188	2.466	1451783	WORD	n/a	wordpools/wordpool_EN.txt	LEAF	9	25	[0, 0, 0]	n/a	FR1	1	R1003P
2456.654	2.602	1453016	WORD	n/a	wordpools/wordpool_EN.txt	CHIEF	10	25	[0, 0, 0]	n/a	FR1	1	R1003P
2459.256	2.534	1454317	WORD	n/a	wordpools/wordpool_EN.txt	FLUTE	11	25	[0, 0, 0]	n/a	FR1	1	R1003P
2461.79	1.617	1455584	WORD	n/a	wordpools/wordpool_EN.txt	PLANT	12	25	[0, 0, 0]	n/a	FR1	1	R1003P
2463.407	0.0	1456392	DISTRACT_START	n/a	n/a	n/a	-999	25	[0, 0, 0]	n/a	FR1	1	R1003P
2463.407	0.016	1456392	START	n/a	n/a	n/a	-999	25	[-999, -999, -999]	n/a	FR1	1	R1003P
2463.423	2.634	1456400	PROB	2.634	n/a	n/a	-999	25	[4, 6, 9]	19	FR1	1	R1003P
2466.057	2.251	1457717	PROB	2.251	n/a	n/a	-999	25	[1, 1, 2]	4	FR1	1	R1003P
2468.308	3.117	1458843	PROB	3.117	n/a	n/a	-999	25	[5, 4, 4]	13	FR1	1	R1003P
2471.425	2.5	1460401	PROB	2.5	n/a	n/a	-999	25	[4, 1, 2]	7	FR1	1	R1003P
2473.925	5.818	1461651	PROB	5.818	n/a	n/a	-999	25	[6, 7, 9]	22	FR1	1	R1003P
2479.743	3.794	1464560	PROB	3.794	n/a	n/a	-999	25	[7, 7, 4]	18	FR1	1	R1003P
2483.537	0.007	1466457	STOP	n/a	n/a	n/a	-999	25	[-999, -999, -999]	n/a	FR1	1	R1003P
2483.544	1.067	1466460	DISTRACT_END	n/a	n/a	n/a	-999	25	[0, 0, 0]	n/a	FR1	1	R1003P
2484.611	0.668	1466994	REC_START	n/a	n/a	n/a	-999	25	[0, 0, 0]	n/a	FR1	1	R1003P
2485.279	1.16	1467328	REC_WORD	1.16	n/a	STONE	1	25	[0, 0, 0]	n/a	FR1	1	R1003P
2486.439	2.607	1467908	REC_WORD	2.607	n/a	BARN	-999	25	[0, 0, 0]	n/a	FR1	1	R1003P
2489.046	1.186	1469211	REC_WORD	1.186	n/a	SPEAR	3	25	[0, 0, 0]	n/a	FR1	1	R1003P
2490.232	2.507	1469804	REC_WORD	2.507	n/a	SHIELD	-999	25	[0, 0, 0]	n/a	FR1	1	R1003P
2492.739	3.064	1471058	REC_WORD	3.064	n/a	NOSE	-999	25	[0, 0, 0]	n/a	FR1	1	R1003P
2495.803	2.538	1472590	REC_WORD	2.538	n/a	PRINCE	-999	25	[0, 0, 0]	n/a	FR1	1	R1003P
2498.341	1.665	1473858	REC_WORD	1.665	n/a	KING	-999	25	[0, 0, 0]	n/a	FR1	1	R1003P
2500.006	14.615	1474691	REC_WORD	14.615	n/a	BOY	-999	25	[0, 0, 0]	n/a	FR1	1	R1003P
2514.621	15.882	1481998	REC_END	n/a	n/a	n/a	-999	25	[0, 0, 0]	n/a	FR1	1	R1003P
2530.503	0.0	1489939	SESS_END	n/a	n/a	n/a	-999	25	[0, 0, 0]	n/a	FR1	1	R1003P
