onset	duration	sample	trial_type	response_time	stim_file	item_name	serialpos	list	test	answer	experiment	session	subject
0.0	46.311	66959	INSTRUCT_START	n/a	n/a	n/a	-999	-999	[0, 0, 0]	n/a	FR1	0	R1462M
46.311	49.465	113267	INSTRUCT_END	n/a	n/a	n/a	-999	-999	[0, 0, 0]	n/a	FR1	0	R1462M
95.776	147.249	162729	INSTRUCT_START	n/a	n/a	n/a	-999	-999	[0, 0, 0]	n/a	FR1	0	R1462M
243.025	86.099	309972	INSTRUCT_END	n/a	n/a	n/a	-999	-999	[0, 0, 0]	n/a	FR1	0	R1462M
329.124	10.401	396069	COUNTDOWN_START	n/a	n/a	n/a	-999	-999	[0, 0, 0]	n/a	FR1	0	R1462M
339.525	0.0	406471	COUNTDOWN_END	n/a	n/a	n/a	-999	-999	[0, 0, 0]	n/a	FR1	0	R1462M
339.525	1.934	406471	ENCODING_START	n/a	n/a	n/a	-999	-1	[0, 0, 0]	n/a	FR1	0	R1462M
341.459	1.616	408400	WORD	n/a	n/a	RAFT	1	-1	[0, 0, 0]	n/a	FR1	0	R1462M
343.075	1.0	410012	WORD_OFF	n/a	n/a	RAFT	1	-1	[0, 0, 0]	n/a	FR1	0	R1462M
344.075	1.6	411018	WORD	n/a	n/a	TOAD	2	-1	[0, 0, 0]	n/a	FR1	0	R1462M
345.675	0.916	412616	WORD_OFF	n/a	n/a	TOAD	2	-1	[0, 0, 0]	n/a	FR1	0	R1462M
346.591	1.6	413539	WORD	n/a	n/a	CARD	3	-1	[0, 0, 0]	n/a	FR1	0	R1462M
348.191	0.95	415137	WORD_OFF	n/a	n/a	CARD	3	-1	[0, 0, 0]	n/a	FR1	0	R1462M
349.141	1.617	416088	WORD	n/a	n/a	BADGE	4	-1	[0, 0, 0]	n/a	FR1	0	R1462M
350.758	0.95	417700	WORD_OFF	n/a	n/a	BADGE	4	-1	[0, 0, 0]	n/a	FR1	0	R1462M
351.708	1.617	418651	WORD	n/a	n/a	SNACK	5	-1	[0, 0, 0]	n/a	FR1	0	R1462M
353.325	0.95	420263	WORD_OFF	n/a	n/a	SNACK	5	-1	[0, 0, 0]	n/a	FR1	0	R1462M
354.275	1.6	421213	WORD	n/a	n/a	TENT	6	-1	[0, 0, 0]	n/a	FR1	0	R1462M
355.875	0.783	422812	WORD_OFF	n/a	n/a	TENT	6	-1	[0, 0, 0]	n/a	FR1	0	R1462M
356.658	1.617	423597	WORD	n/a	n/a	CHALK	7	-1	[0, 0, 0]	n/a	FR1	0	R1462M
358.275	0.9	425209	WORD_OFF	n/a	n/a	CHALK	7	-1	[0, 0, 0]	n/a	FR1	0	R1462M
359.175	1.616	426118	WORD	n/a	n/a	MOP	8	-1	[0, 0, 0]	n/a	FR1	0	R1462M
360.791	0.834	427730	WORD_OFF	n/a	n/a	MOP	8	-1	[0, 0, 0]	n/a	FR1	0	R1462M
361.625	1.6	428571	WORD	n/a	n/a	BENCH	9	-1	[0, 0, 0]	n/a	FR1	0	R1462M
363.225	0.816	430169	WORD_OFF	n/a	n/a	BENCH	9	-1	[0, 0, 0]	n/a	FR1	0	R1462M
364.041	1.6	430982	WORD	n/a	n/a	CUP	10	-1	[0, 0, 0]	n/a	FR1	0	R1462M
365.641	0.949	432580	WORD_OFF	n/a	n/a	CUP	10	-1	[0, 0, 0]	n/a	FR1	0	R1462M
366.59	1.601	433531	WORD	n/a	n/a	PIPE	11	-1	[0, 0, 0]	n/a	FR1	0	R1462M
368.191	0.9	435129	WORD_OFF	n/a	n/a	PIPE	11	-1	[0, 0, 0]	n/a	FR1	0	R1462M
369.091	1.601	436024	WORD	n/a	n/a	SMOG	12	-1	[0, 0, 0]	n/a	FR1	0	R1462M
370.692	0.001	437630	PROB	0.001	n/a	n/a	-999	-1	[3, 6, 2]	11	FR1	0	R1462M
370.693	0.0	437631	START	n/a	n/a	n/a	-999	-1	[-999, -999, -999]	n/a	FR1	0	R1462M
370.691	0.002	437636	WORD_OFF	n/a	n/a	SMOG	12	-1	[0, 0, 0]	n/a	FR1	0	R1462M
370.693	0.0	437636	ENCODING_END	n/a	n/a	n/a	-999	-1	[0, 0, 0]	n/a	FR1	0	R1462M
370.693	7.665	437636	DISTRACT_START	n/a	n/a	n/a	-999	-1	[0, 0, 0]	n/a	FR1	0	R1462M
378.358	6.617	445296	PROB	6.617	n/a	n/a	-999	-1	[1, 6, 3]	10	FR1	0	R1462M
384.975	10.916	451913	PROB	10.916	n/a	n/a	-999	-1	[5, 7, 1]	11	FR1	0	R1462M
395.891	0.0	462828	STOP	n/a	n/a	n/a	-999	-1	[-999, -999, -999]	n/a	FR1	0	R1462M
395.891	2.033	462836	DISTRACT_END	n/a	n/a	n/a	-999	-1	[0, 0, 0]	n/a	FR1	0	R1462M
397.924	2.493	464869	REC_START	n/a	n/a	n/a	-999	-1	[0, 0, 0]	n/a	FR1	0	R1462M
400.417	1.001	467354	REC_WORD_VV	1.001	n/a	<>	-999	-1	[0, 0, 0]	n/a	FR1	0	R1462M
401.418	2.037	468355	REC_WORD_VV	2.037	n/a	<>	-999	-1	[0, 0, 0]	n/a	FR1	0	R1462M
403.455	0.661	470392	REC_WORD_VV	0.661	n/a	<>	-999	-1	[0, 0, 0]	n/a	FR1	0	R1462M
404.116	1.073	471053	REC_WORD	1.073	n/a	CHALK	7	-1	[0, 0, 0]	n/a	FR1	0	R1462M
405.189	2.914	472126	REC_WORD	2.914	n/a	BENCH	9	-1	[0, 0, 0]	n/a	FR1	0	R1462M
408.103	2.035	475040	REC_WORD	2.035	n/a	TENT	6	-1	[0, 0, 0]	n/a	FR1	0	R1462M
410.138	1.456	477075	REC_WORD	1.456	n/a	PIPE	11	-1	[0, 0, 0]	n/a	FR1	0	R1462M
411.594	16.564	478531	REC_WORD	16.564	n/a	SMOG	12	-1	[0, 0, 0]	n/a	FR1	0	R1462M
428.158	43.2	495090	REC_END	n/a	n/a	n/a	-999	-1	[0, 0, 0]	n/a	FR1	0	R1462M
471.358	10.35	538297	COUNTDOWN_START	n/a	n/a	n/a	-999	1	[0, 0, 0]	n/a	FR1	0	R1462M
481.708	0.0	548644	COUNTDOWN_END	n/a	n/a	n/a	-999	1	[0, 0, 0]	n/a	FR1	0	R1462M
481.708	2.066	548644	ENCODING_START	n/a	n/a	n/a	-999	1	[0, 0, 0]	n/a	FR1	0	R1462M
483.774	1.6	550711	WORD	n/a	wordpools/wordpool_long_EN.txt	GUARD	1	1	[0, 0, 0]	n/a	FR1	0	R1462M
485.374	0.95	552309	WORD_OFF	n/a	n/a	GUARD	1	1	[0, 0, 0]	n/a	FR1	0	R1462M
486.324	1.6	553259	WORD	n/a	wordpools/wordpool_long_EN.txt	WORLD	2	1	[0, 0, 0]	n/a	FR1	0	R1462M
487.924	0.767	554858	WORD_OFF	n/a	n/a	WORLD	2	1	[0, 0, 0]	n/a	FR1	0	R1462M
488.691	1.616	555629	WORD	n/a	wordpools/wordpool_long_EN.txt	THIEF	3	1	[0, 0, 0]	n/a	FR1	0	R1462M
490.307	0.95	557241	WORD_OFF	n/a	n/a	THIEF	3	1	[0, 0, 0]	n/a	FR1	0	R1462M
491.257	1.617	558192	WORD	n/a	wordpools/wordpool_long_EN.txt	LINT	4	1	[0, 0, 0]	n/a	FR1	0	R1462M
492.874	0.783	559804	WORD_OFF	n/a	n/a	LINT	4	1	[0, 0, 0]	n/a	FR1	0	R1462M
493.657	1.617	560589	WORD	n/a	wordpools/wordpool_long_EN.txt	EEL	5	1	[0, 0, 0]	n/a	FR1	0	R1462M
495.274	0.783	562215	WORD_OFF	n/a	n/a	EEL	5	1	[0, 0, 0]	n/a	FR1	0	R1462M
496.057	1.6	562987	WORD	n/a	wordpools/wordpool_long_EN.txt	MOON	6	1	[0, 0, 0]	n/a	FR1	0	R1462M
497.657	0.95	564599	WORD_OFF	n/a	n/a	MOON	6	1	[0, 0, 0]	n/a	FR1	0	R1462M
498.607	1.6	565535	WORD	n/a	wordpools/wordpool_long_EN.txt	QUEEN	7	1	[0, 0, 0]	n/a	FR1	0	R1462M
500.207	0.934	567147	WORD_OFF	n/a	n/a	QUEEN	7	1	[0, 0, 0]	n/a	FR1	0	R1462M
501.141	1.6	568071	WORD	n/a	wordpools/wordpool_long_EN.txt	FRAME	8	1	[0, 0, 0]	n/a	FR1	0	R1462M
502.741	0.916	569669	WORD_OFF	n/a	n/a	FRAME	8	1	[0, 0, 0]	n/a	FR1	0	R1462M
503.657	1.601	570592	WORD	n/a	wordpools/wordpool_long_EN.txt	SPEAR	9	1	[0, 0, 0]	n/a	FR1	0	R1462M
505.258	0.8	572190	WORD_OFF	n/a	n/a	SPEAR	9	1	[0, 0, 0]	n/a	FR1	0	R1462M
506.058	1.601	572989	WORD	n/a	wordpools/wordpool_long_EN.txt	MUG	10	1	[0, 0, 0]	n/a	FR1	0	R1462M
507.659	0.966	574587	WORD_OFF	n/a	n/a	MUG	10	1	[0, 0, 0]	n/a	FR1	0	R1462M
508.625	1.617	575566	WORD	n/a	wordpools/wordpool_long_EN.txt	SLUG	11	1	[0, 0, 0]	n/a	FR1	0	R1462M
510.242	0.865	577178	WORD_OFF	n/a	n/a	SLUG	11	1	[0, 0, 0]	n/a	FR1	0	R1462M
511.107	1.602	578046	WORD	n/a	wordpools/wordpool_long_EN.txt	GIFT	12	1	[0, 0, 0]	n/a	FR1	0	R1462M
512.709	0.001	579641	PROB	0.001	n/a	n/a	-999	1	[5, 4, 6]	15	FR1	0	R1462M
512.71	0.0	579642	START	n/a	n/a	n/a	-999	1	[-999, -999, -999]	n/a	FR1	0	R1462M
512.708	0.001	579644	WORD_OFF	n/a	n/a	GIFT	12	1	[0, 0, 0]	n/a	FR1	0	R1462M
512.709	0.001	579644	ENCODING_END	n/a	n/a	n/a	-999	1	[0, 0, 0]	n/a	FR1	0	R1462M
512.71	8.365	579644	DISTRACT_START	n/a	n/a	n/a	-999	1	[0, 0, 0]	n/a	FR1	0	R1462M
521.075	14.599	588007	PROB	14.599	n/a	n/a	-999	1	[8, 6, 5]	19	FR1	0	R1462M
535.674	0.0	602605	STOP	n/a	n/a	n/a	-999	1	[-999, -999, -999]	n/a	FR1	0	R1462M
535.674	2.033	602611	DISTRACT_END	n/a	n/a	n/a	-999	1	[0, 0, 0]	n/a	FR1	0	R1462M
537.707	1.181	604645	REC_START	n/a	n/a	n/a	-999	1	[0, 0, 0]	n/a	FR1	0	R1462M
538.888	1.478	605819	REC_WORD	1.478	n/a	MUG	10	1	[0, 0, 0]	n/a	FR1	0	R1462M
540.366	1.0	607297	REC_WORD	1.0	n/a	SMUG	-999	1	[0, 0, 0]	n/a	FR1	0	R1462M
541.366	1.26	608297	REC_WORD_VV	1.26	n/a	<>	-999	1	[0, 0, 0]	n/a	FR1	0	R1462M
542.626	2.208	609557	REC_WORD	2.208	n/a	QUEEN	7	1	[0, 0, 0]	n/a	FR1	0	R1462M
544.834	2.018	611765	REC_WORD	2.018	n/a	BEEF	-999	1	[0, 0, 0]	n/a	FR1	0	R1462M
546.852	2.469	613782	REC_WORD	2.469	n/a	WORLD	2	1	[0, 0, 0]	n/a	FR1	0	R1462M
549.321	4.884	616251	REC_WORD	4.884	n/a	GUARD	1	1	[0, 0, 0]	n/a	FR1	0	R1462M
554.205	0.857	621135	REC_WORD	0.857	n/a	TRAVEL	-999	1	[0, 0, 0]	n/a	FR1	0	R1462M
555.062	0.401	621992	REC_WORD_VV	0.401	n/a	<>	-999	1	[0, 0, 0]	n/a	FR1	0	R1462M
555.463	4.013	622393	REC_WORD	4.013	n/a	WORLD	2	1	[0, 0, 0]	n/a	FR1	0	R1462M
559.476	8.484	626406	REC_WORD	8.484	n/a	SPEAR	9	1	[0, 0, 0]	n/a	FR1	0	R1462M
567.96	2.248	634893	REC_END	n/a	n/a	n/a	-999	1	[0, 0, 0]	n/a	FR1	0	R1462M
570.208	10.35	637139	COUNTDOWN_START	n/a	n/a	n/a	-999	2	[0, 0, 0]	n/a	FR1	0	R1462M
580.558	0.001	647486	COUNTDOWN_END	n/a	n/a	n/a	-999	2	[0, 0, 0]	n/a	FR1	0	R1462M
580.559	2.315	647486	ENCODING_START	n/a	n/a	n/a	-999	2	[0, 0, 0]	n/a	FR1	0	R1462M
582.874	1.6	649800	WORD	n/a	wordpools/wordpool_long_EN.txt	DRINK	1	2	[0, 0, 0]	n/a	FR1	0	R1462M
584.474	0.8	651399	WORD_OFF	n/a	n/a	DRINK	1	2	[0, 0, 0]	n/a	FR1	0	R1462M
585.274	1.6	652211	WORD	n/a	wordpools/wordpool_long_EN.txt	DUST	2	2	[0, 0, 0]	n/a	FR1	0	R1462M
586.874	1.0	653810	WORD_OFF	n/a	n/a	DUST	2	2	[0, 0, 0]	n/a	FR1	0	R1462M
587.874	1.6	654802	WORD	n/a	wordpools/wordpool_long_EN.txt	SKUNK	3	2	[0, 0, 0]	n/a	FR1	0	R1462M
589.474	0.783	656400	WORD_OFF	n/a	n/a	SKUNK	3	2	[0, 0, 0]	n/a	FR1	0	R1462M
590.257	1.6	657185	WORD	n/a	wordpools/wordpool_long_EN.txt	EGG	4	2	[0, 0, 0]	n/a	FR1	0	R1462M
591.857	0.967	658783	WORD_OFF	n/a	n/a	EGG	4	2	[0, 0, 0]	n/a	FR1	0	R1462M
592.824	1.617	659748	WORD	n/a	wordpools/wordpool_long_EN.txt	BLOOM	5	2	[0, 0, 0]	n/a	FR1	0	R1462M
594.441	0.766	661374	WORD_OFF	n/a	n/a	BLOOM	5	2	[0, 0, 0]	n/a	FR1	0	R1462M
595.207	1.601	662131	WORD	n/a	wordpools/wordpool_long_EN.txt	GATE	6	2	[0, 0, 0]	n/a	FR1	0	R1462M
596.808	0.917	663743	WORD_OFF	n/a	n/a	GATE	6	2	[0, 0, 0]	n/a	FR1	0	R1462M
597.725	1.6	664653	WORD	n/a	wordpools/wordpool_long_EN.txt	FLEET	7	2	[0, 0, 0]	n/a	FR1	0	R1462M
599.325	0.915	666251	WORD_OFF	n/a	n/a	FLEET	7	2	[0, 0, 0]	n/a	FR1	0	R1462M
600.24	1.601	667174	WORD	n/a	wordpools/wordpool_long_EN.txt	WING	8	2	[0, 0, 0]	n/a	FR1	0	R1462M
601.841	1.0	668772	WORD_OFF	n/a	n/a	WING	8	2	[0, 0, 0]	n/a	FR1	0	R1462M
602.841	1.617	669764	WORD	n/a	wordpools/wordpool_long_EN.txt	STRING	9	2	[0, 0, 0]	n/a	FR1	0	R1462M
604.458	0.917	671390	WORD_OFF	n/a	n/a	STRING	9	2	[0, 0, 0]	n/a	FR1	0	R1462M
605.375	1.616	672299	WORD	n/a	wordpools/wordpool_long_EN.txt	PIN	10	2	[0, 0, 0]	n/a	FR1	0	R1462M
606.991	0.883	673925	WORD_OFF	n/a	n/a	PIN	10	2	[0, 0, 0]	n/a	FR1	0	R1462M
607.874	1.617	674807	WORD	n/a	wordpools/wordpool_long_EN.txt	CHIEF	11	2	[0, 0, 0]	n/a	FR1	0	R1462M
609.491	0.817	676419	WORD_OFF	n/a	n/a	CHIEF	11	2	[0, 0, 0]	n/a	FR1	0	R1462M
610.308	1.617	677232	WORD	n/a	wordpools/wordpool_long_EN.txt	PERCH	12	2	[0, 0, 0]	n/a	FR1	0	R1462M
611.925	0.001	678852	PROB	0.001	n/a	n/a	-999	2	[5, 6, 2]	13	FR1	0	R1462M
611.926	0.0	678853	START	n/a	n/a	n/a	-999	2	[-999, -999, -999]	n/a	FR1	0	R1462M
611.925	0.001	678858	WORD_OFF	n/a	n/a	PERCH	12	2	[0, 0, 0]	n/a	FR1	0	R1462M
611.926	0.0	678858	ENCODING_END	n/a	n/a	n/a	-999	2	[0, 0, 0]	n/a	FR1	0	R1462M
611.926	6.799	678858	DISTRACT_START	n/a	n/a	n/a	-999	2	[0, 0, 0]	n/a	FR1	0	R1462M
618.725	3.451	685652	PROB	3.451	n/a	n/a	-999	2	[2, 8, 1]	11	FR1	0	R1462M
622.176	5.749	689103	PROB	5.749	n/a	n/a	-999	2	[6, 1, 2]	9	FR1	0	R1462M
627.925	5.433	694852	PROB	5.433	n/a	n/a	-999	2	[2, 8, 7]	17	FR1	0	R1462M
633.358	0.0	700282	DISTRACT_END	n/a	n/a	n/a	-999	2	[0, 0, 0]	n/a	FR1	0	R1462M
633.358	2.217	700284	STOP	n/a	n/a	n/a	-999	2	[-999, -999, -999]	n/a	FR1	0	R1462M
635.575	2.317	702508	REC_START	n/a	n/a	n/a	-999	2	[0, 0, 0]	n/a	FR1	0	R1462M
637.892	0.425	704818	REC_WORD	0.425	n/a	BLOOM	5	2	[0, 0, 0]	n/a	FR1	0	R1462M
638.317	0.732	705243	REC_WORD	0.732	n/a	SPRING	-999	2	[0, 0, 0]	n/a	FR1	0	R1462M
639.049	4.879	705975	REC_WORD	4.879	n/a	CHIEF	11	2	[0, 0, 0]	n/a	FR1	0	R1462M
643.928	2.112	710854	REC_WORD	2.112	n/a	PERCH	12	2	[0, 0, 0]	n/a	FR1	0	R1462M
646.04	11.188	712966	REC_WORD	11.188	n/a	WING	8	2	[0, 0, 0]	n/a	FR1	0	R1462M
657.228	8.645	724153	REC_WORD	8.645	n/a	BENCH	-999	2	[0, 0, 0]	n/a	FR1	0	R1462M
665.873	2.351	732798	REC_END	n/a	n/a	n/a	-999	2	[0, 0, 0]	n/a	FR1	0	R1462M
668.224	10.351	735154	COUNTDOWN_START	n/a	n/a	n/a	-999	3	[0, 0, 0]	n/a	FR1	0	R1462M
678.575	0.0	745501	COUNTDOWN_END	n/a	n/a	n/a	-999	3	[0, 0, 0]	n/a	FR1	0	R1462M
678.575	2.116	745501	ENCODING_START	n/a	n/a	n/a	-999	3	[0, 0, 0]	n/a	FR1	0	R1462M
680.691	1.6	747622	WORD	n/a	wordpools/wordpool_long_EN.txt	TRENCH	1	3	[0, 0, 0]	n/a	FR1	0	R1462M
682.291	0.933	749221	WORD_OFF	n/a	n/a	TRENCH	1	3	[0, 0, 0]	n/a	FR1	0	R1462M
683.224	1.601	750144	WORD	n/a	wordpools/wordpool_long_EN.txt	BEAST	2	3	[0, 0, 0]	n/a	FR1	0	R1462M
684.825	0.866	751756	WORD_OFF	n/a	n/a	BEAST	2	3	[0, 0, 0]	n/a	FR1	0	R1462M
685.691	1.617	752624	WORD	n/a	wordpools/wordpool_long_EN.txt	FENCE	3	3	[0, 0, 0]	n/a	FR1	0	R1462M
687.308	0.817	754236	WORD_OFF	n/a	n/a	FENCE	3	3	[0, 0, 0]	n/a	FR1	0	R1462M
688.125	1.6	755049	WORD	n/a	wordpools/wordpool_long_EN.txt	JET	4	3	[0, 0, 0]	n/a	FR1	0	R1462M
689.725	0.883	756647	WORD_OFF	n/a	n/a	JET	4	3	[0, 0, 0]	n/a	FR1	0	R1462M
690.608	1.6	757529	WORD	n/a	wordpools/wordpool_long_EN.txt	BAND	5	3	[0, 0, 0]	n/a	FR1	0	R1462M
692.208	0.8	759141	WORD_OFF	n/a	n/a	BAND	5	3	[0, 0, 0]	n/a	FR1	0	R1462M
693.008	1.617	759940	WORD	n/a	wordpools/wordpool_long_EN.txt	QUAIL	6	3	[0, 0, 0]	n/a	FR1	0	R1462M
694.625	0.9	761552	WORD_OFF	n/a	n/a	QUAIL	6	3	[0, 0, 0]	n/a	FR1	0	R1462M
695.525	1.616	762447	WORD	n/a	wordpools/wordpool_long_EN.txt	CANE	7	3	[0, 0, 0]	n/a	FR1	0	R1462M
697.141	1.0	764073	WORD_OFF	n/a	n/a	CANE	7	3	[0, 0, 0]	n/a	FR1	0	R1462M
698.141	1.6	765065	WORD	n/a	wordpools/wordpool_long_EN.txt	SWAMP	8	3	[0, 0, 0]	n/a	FR1	0	R1462M
699.741	0.933	766663	WORD_OFF	n/a	n/a	SWAMP	8	3	[0, 0, 0]	n/a	FR1	0	R1462M
700.674	1.601	767600	WORD	n/a	wordpools/wordpool_long_EN.txt	CAPE	9	3	[0, 0, 0]	n/a	FR1	0	R1462M
702.275	0.849	769198	WORD_OFF	n/a	n/a	CAPE	9	3	[0, 0, 0]	n/a	FR1	0	R1462M
703.124	1.601	770053	WORD	n/a	wordpools/wordpool_long_EN.txt	WAVE	10	3	[0, 0, 0]	n/a	FR1	0	R1462M
704.725	0.9	771651	WORD_OFF	n/a	n/a	WAVE	10	3	[0, 0, 0]	n/a	FR1	0	R1462M
705.625	1.616	772546	WORD	n/a	wordpools/wordpool_long_EN.txt	SINK	11	3	[0, 0, 0]	n/a	FR1	0	R1462M
707.241	0.783	774172	WORD_OFF	n/a	n/a	SINK	11	3	[0, 0, 0]	n/a	FR1	0	R1462M
708.024	1.601	774944	WORD	n/a	wordpools/wordpool_long_EN.txt	CONE	12	3	[0, 0, 0]	n/a	FR1	0	R1462M
709.625	0.001	776548	PROB	0.001	n/a	n/a	-999	3	[1, 2, 3]	6	FR1	0	R1462M
709.626	0.0	776549	START	n/a	n/a	n/a	-999	3	[-999, -999, -999]	n/a	FR1	0	R1462M
709.625	0.001	776556	WORD_OFF	n/a	n/a	CONE	12	3	[0, 0, 0]	n/a	FR1	0	R1462M
709.626	0.0	776556	ENCODING_END	n/a	n/a	n/a	-999	3	[0, 0, 0]	n/a	FR1	0	R1462M
709.626	3.466	776556	DISTRACT_START	n/a	n/a	n/a	-999	3	[0, 0, 0]	n/a	FR1	0	R1462M
713.092	3.566	780015	PROB	3.566	n/a	n/a	-999	3	[1, 1, 4]	6	FR1	0	R1462M
716.658	8.418	783581	PROB	8.418	n/a	n/a	-999	3	[4, 8, 7]	19	FR1	0	R1462M
725.076	10.348	791998	PROB	10.348	n/a	n/a	-999	3	[7, 3, 5]	14	FR1	0	R1462M
735.424	0.0	802346	STOP	n/a	n/a	n/a	-999	3	[-999, -999, -999]	n/a	FR1	0	R1462M
735.424	2.133	802348	DISTRACT_END	n/a	n/a	n/a	-999	3	[0, 0, 0]	n/a	FR1	0	R1462M
737.557	1.88	804477	REC_START	n/a	n/a	n/a	-999	3	[0, 0, 0]	n/a	FR1	0	R1462M
739.437	2.57	806359	REC_WORD	2.57	n/a	TRENCH	1	3	[0, 0, 0]	n/a	FR1	0	R1462M
742.007	0.697	808929	REC_WORD	0.697	n/a	BEAST	2	3	[0, 0, 0]	n/a	FR1	0	R1462M
742.704	11.341	809626	REC_WORD	11.341	n/a	CASTLE	-999	3	[0, 0, 0]	n/a	FR1	0	R1462M
754.045	13.78	820966	REC_WORD	13.78	n/a	POOL	-999	3	[0, 0, 0]	n/a	FR1	0	R1462M
767.825	2.85	834753	REC_END	n/a	n/a	n/a	-999	3	[0, 0, 0]	n/a	FR1	0	R1462M
770.675	10.35	837605	COUNTDOWN_START	n/a	n/a	n/a	-999	4	[0, 0, 0]	n/a	FR1	0	R1462M
781.025	0.0	847952	COUNTDOWN_END	n/a	n/a	n/a	-999	4	[0, 0, 0]	n/a	FR1	0	R1462M
781.025	2.05	847952	ENCODING_START	n/a	n/a	n/a	-999	4	[0, 0, 0]	n/a	FR1	0	R1462M
783.075	1.616	849991	WORD	n/a	wordpools/wordpool_long_EN.txt	SPRING	1	4	[0, 0, 0]	n/a	FR1	0	R1462M
784.691	0.85	851617	WORD_OFF	n/a	n/a	SPRING	1	4	[0, 0, 0]	n/a	FR1	0	R1462M
785.541	1.6	852457	WORD	n/a	wordpools/wordpool_long_EN.txt	VINE	2	4	[0, 0, 0]	n/a	FR1	0	R1462M
787.141	0.816	854069	WORD_OFF	n/a	n/a	VINE	2	4	[0, 0, 0]	n/a	FR1	0	R1462M
787.957	1.601	854882	WORD	n/a	wordpools/wordpool_long_EN.txt	CORD	3	4	[0, 0, 0]	n/a	FR1	0	R1462M
789.558	0.883	856481	WORD_OFF	n/a	n/a	CORD	3	4	[0, 0, 0]	n/a	FR1	0	R1462M
790.441	1.6	857362	WORD	n/a	wordpools/wordpool_long_EN.txt	CLIFF	4	4	[0, 0, 0]	n/a	FR1	0	R1462M
792.041	0.95	858961	WORD_OFF	n/a	n/a	CLIFF	4	4	[0, 0, 0]	n/a	FR1	0	R1462M
792.991	1.6	859911	WORD	n/a	wordpools/wordpool_long_EN.txt	LUNCH	5	4	[0, 0, 0]	n/a	FR1	0	R1462M
794.591	0.85	861509	WORD_OFF	n/a	n/a	LUNCH	5	4	[0, 0, 0]	n/a	FR1	0	R1462M
795.441	1.6	862364	WORD	n/a	wordpools/wordpool_long_EN.txt	CASH	6	4	[0, 0, 0]	n/a	FR1	0	R1462M
797.041	0.967	863962	WORD_OFF	n/a	n/a	CASH	6	4	[0, 0, 0]	n/a	FR1	0	R1462M
798.008	1.6	864926	WORD	n/a	wordpools/wordpool_long_EN.txt	WOOD	7	4	[0, 0, 0]	n/a	FR1	0	R1462M
799.608	0.783	866525	WORD_OFF	n/a	n/a	WOOD	7	4	[0, 0, 0]	n/a	FR1	0	R1462M
800.391	1.617	867310	WORD	n/a	wordpools/wordpool_long_EN.txt	TEETH	8	4	[0, 0, 0]	n/a	FR1	0	R1462M
802.008	0.866	868922	WORD_OFF	n/a	n/a	TEETH	8	4	[0, 0, 0]	n/a	FR1	0	R1462M
802.874	1.601	869790	WORD	n/a	wordpools/wordpool_long_EN.txt	SOAP	9	4	[0, 0, 0]	n/a	FR1	0	R1462M
804.475	0.951	871402	WORD_OFF	n/a	n/a	SOAP	9	4	[0, 0, 0]	n/a	FR1	0	R1462M
805.426	1.615	872353	WORD	n/a	wordpools/wordpool_long_EN.txt	PAIL	10	4	[0, 0, 0]	n/a	FR1	0	R1462M
807.041	0.8	873965	WORD_OFF	n/a	n/a	PAIL	10	4	[0, 0, 0]	n/a	FR1	0	R1462M
807.841	1.617	874764	WORD	n/a	wordpools/wordpool_long_EN.txt	HUT	11	4	[0, 0, 0]	n/a	FR1	0	R1462M
809.458	0.933	876376	WORD_OFF	n/a	n/a	HUT	11	4	[0, 0, 0]	n/a	FR1	0	R1462M
810.391	1.617	877313	WORD	n/a	wordpools/wordpool_long_EN.txt	MAP	12	4	[0, 0, 0]	n/a	FR1	0	R1462M
812.008	0.001	878925	WORD_OFF	n/a	n/a	MAP	12	4	[0, 0, 0]	n/a	FR1	0	R1462M
812.009	0.0	878925	ENCODING_END	n/a	n/a	n/a	-999	4	[0, 0, 0]	n/a	FR1	0	R1462M
812.009	0.0	878925	DISTRACT_START	n/a	n/a	n/a	-999	4	[0, 0, 0]	n/a	FR1	0	R1462M
812.008	0.001	878926	PROB	0.001	n/a	n/a	-999	4	[5, 2, 8]	15	FR1	0	R1462M
812.009	5.066	878927	START	n/a	n/a	n/a	-999	4	[-999, -999, -999]	n/a	FR1	0	R1462M
817.075	5.25	883993	PROB	5.25	n/a	n/a	-999	4	[8, 2, 8]	21	FR1	0	R1462M
822.325	6.033	889243	PROB	6.033	n/a	n/a	-999	4	[2, 7, 8]	17	FR1	0	R1462M
828.358	6.666	895276	PROB	6.666	n/a	n/a	-999	4	[6, 4, 6]	16	FR1	0	R1462M
835.024	0.0	901941	STOP	n/a	n/a	n/a	-999	4	[-999, -999, -999]	n/a	FR1	0	R1462M
835.024	2.183	901947	DISTRACT_END	n/a	n/a	n/a	-999	4	[0, 0, 0]	n/a	FR1	0	R1462M
837.207	1.57	904132	REC_START	n/a	n/a	n/a	-999	4	[0, 0, 0]	n/a	FR1	0	R1462M
838.777	1.082	905694	REC_WORD	1.082	n/a	PAIL	10	4	[0, 0, 0]	n/a	FR1	0	R1462M
839.859	3.043	906776	REC_WORD	3.043	n/a	SPRING	1	4	[0, 0, 0]	n/a	FR1	0	R1462M
842.902	1.0	909819	REC_WORD	1.0	n/a	BRANCH	-999	4	[0, 0, 0]	n/a	FR1	0	R1462M
843.902	0.904	910819	REC_WORD_VV	0.904	n/a	<>	-999	4	[0, 0, 0]	n/a	FR1	0	R1462M
844.806	3.611	911723	REC_WORD	3.611	n/a	CORD	3	4	[0, 0, 0]	n/a	FR1	0	R1462M
848.417	5.615	915334	REC_WORD	5.615	n/a	MAP	12	4	[0, 0, 0]	n/a	FR1	0	R1462M
854.032	13.449	920949	REC_WORD	13.449	n/a	CLIFF	4	4	[0, 0, 0]	n/a	FR1	0	R1462M
867.481	2.26	934394	REC_END	n/a	n/a	n/a	-999	4	[0, 0, 0]	n/a	FR1	0	R1462M
869.741	10.351	936667	COUNTDOWN_START	n/a	n/a	n/a	-999	5	[0, 0, 0]	n/a	FR1	0	R1462M
880.092	0.0	947014	COUNTDOWN_END	n/a	n/a	n/a	-999	5	[0, 0, 0]	n/a	FR1	0	R1462M
880.092	2.101	947014	ENCODING_START	n/a	n/a	n/a	-999	5	[0, 0, 0]	n/a	FR1	0	R1462M
882.193	1.598	949108	WORD	n/a	wordpools/wordpool_long_EN.txt	MASK	1	5	[0, 0, 0]	n/a	FR1	0	R1462M
883.791	0.967	950707	WORD_OFF	n/a	n/a	MASK	1	5	[0, 0, 0]	n/a	FR1	0	R1462M
884.758	1.6	951671	WORD	n/a	wordpools/wordpool_long_EN.txt	BREAD	2	5	[0, 0, 0]	n/a	FR1	0	R1462M
886.358	0.834	953269	WORD_OFF	n/a	n/a	BREAD	2	5	[0, 0, 0]	n/a	FR1	0	R1462M
887.192	1.599	954110	WORD	n/a	wordpools/wordpool_long_EN.txt	STREET	3	5	[0, 0, 0]	n/a	FR1	0	R1462M
888.791	0.901	955708	WORD_OFF	n/a	n/a	STREET	3	5	[0, 0, 0]	n/a	FR1	0	R1462M
889.692	1.616	956604	WORD	n/a	wordpools/wordpool_long_EN.txt	PLANT	4	5	[0, 0, 0]	n/a	FR1	0	R1462M
891.308	0.916	958229	WORD_OFF	n/a	n/a	PLANT	4	5	[0, 0, 0]	n/a	FR1	0	R1462M
892.224	1.617	959139	WORD	n/a	wordpools/wordpool_long_EN.txt	KEY	5	5	[0, 0, 0]	n/a	FR1	0	R1462M
893.841	0.816	960764	WORD_OFF	n/a	n/a	KEY	5	5	[0, 0, 0]	n/a	FR1	0	R1462M
894.657	1.601	961577	WORD	n/a	wordpools/wordpool_long_EN.txt	TWIG	6	5	[0, 0, 0]	n/a	FR1	0	R1462M
896.258	0.8	963176	WORD_OFF	n/a	n/a	TWIG	6	5	[0, 0, 0]	n/a	FR1	0	R1462M
897.058	1.6	963975	WORD	n/a	wordpools/wordpool_long_EN.txt	SMOKE	7	5	[0, 0, 0]	n/a	FR1	0	R1462M
898.658	0.866	965573	WORD_OFF	n/a	n/a	SMOKE	7	5	[0, 0, 0]	n/a	FR1	0	R1462M
899.524	1.617	966441	WORD	n/a	wordpools/wordpool_long_EN.txt	SKI	8	5	[0, 0, 0]	n/a	FR1	0	R1462M
901.141	0.899	968053	WORD_OFF	n/a	n/a	SKI	8	5	[0, 0, 0]	n/a	FR1	0	R1462M
902.04	1.6	968962	WORD	n/a	wordpools/wordpool_long_EN.txt	SALT	9	5	[0, 0, 0]	n/a	FR1	0	R1462M
903.64	0.901	970560	WORD_OFF	n/a	n/a	SALT	9	5	[0, 0, 0]	n/a	FR1	0	R1462M
904.541	1.6	971456	WORD	n/a	wordpools/wordpool_long_EN.txt	ELF	10	5	[0, 0, 0]	n/a	FR1	0	R1462M
906.141	0.966	973054	WORD_OFF	n/a	n/a	ELF	10	5	[0, 0, 0]	n/a	FR1	0	R1462M
907.107	1.6	974019	WORD	n/a	wordpools/wordpool_long_EN.txt	SWORD	11	5	[0, 0, 0]	n/a	FR1	0	R1462M
908.707	0.817	975617	WORD_OFF	n/a	n/a	SWORD	11	5	[0, 0, 0]	n/a	FR1	0	R1462M
909.524	1.601	976444	WORD	n/a	wordpools/wordpool_long_EN.txt	DIME	12	5	[0, 0, 0]	n/a	FR1	0	R1462M
911.125	0.0	978039	START	n/a	n/a	n/a	-999	5	[-999, -999, -999]	n/a	FR1	0	R1462M
911.125	0.0	978039	PROB	0.0	n/a	n/a	-999	5	[1, 2, 6]	9	FR1	0	R1462M
911.124	0.001	978042	WORD_OFF	n/a	n/a	DIME	12	5	[0, 0, 0]	n/a	FR1	0	R1462M
911.125	0.0	978042	ENCODING_END	n/a	n/a	n/a	-999	5	[0, 0, 0]	n/a	FR1	0	R1462M
911.125	4.966	978042	DISTRACT_START	n/a	n/a	n/a	-999	5	[0, 0, 0]	n/a	FR1	0	R1462M
916.091	4.45	983005	PROB	4.45	n/a	n/a	-999	5	[7, 3, 7]	17	FR1	0	R1462M
920.541	2.933	987455	PROB	2.933	n/a	n/a	-999	5	[6, 2, 6]	14	FR1	0	R1462M
923.474	4.435	990387	PROB	4.435	n/a	n/a	-999	5	[5, 3, 7]	13	FR1	0	R1462M
927.909	4.116	994822	PROB	4.116	n/a	n/a	-999	5	[7, 7, 7]	21	FR1	0	R1462M
932.025	0.0	998938	STOP	n/a	n/a	n/a	-999	5	[-999, -999, -999]	n/a	FR1	0	R1462M
932.025	2.199	998943	DISTRACT_END	n/a	n/a	n/a	-999	5	[0, 0, 0]	n/a	FR1	0	R1462M
934.224	3.443	1001141	REC_START	n/a	n/a	n/a	-999	5	[0, 0, 0]	n/a	FR1	0	R1462M
937.667	2.801	1004580	REC_WORD	2.801	n/a	TREE	-999	5	[0, 0, 0]	n/a	FR1	0	R1462M
940.468	2.018	1007381	REC_WORD	2.018	n/a	TWIG	6	5	[0, 0, 0]	n/a	FR1	0	R1462M
942.486	16.192	1009399	REC_WORD	16.192	n/a	DIME	12	5	[0, 0, 0]	n/a	FR1	0	R1462M
958.678	5.779	1025590	REC_WORD	5.779	n/a	STREET	3	5	[0, 0, 0]	n/a	FR1	0	R1462M
964.457	2.768	1031375	REC_END	n/a	n/a	n/a	-999	5	[0, 0, 0]	n/a	FR1	0	R1462M
967.225	10.35	1034145	COUNTDOWN_START	n/a	n/a	n/a	-999	6	[0, 0, 0]	n/a	FR1	0	R1462M
977.575	0.0	1044492	COUNTDOWN_END	n/a	n/a	n/a	-999	6	[0, 0, 0]	n/a	FR1	0	R1462M
977.575	1.915	1044492	ENCODING_START	n/a	n/a	n/a	-999	6	[0, 0, 0]	n/a	FR1	0	R1462M
979.49	1.601	1046407	WORD	n/a	wordpools/wordpool_long_EN.txt	KITE	1	6	[0, 0, 0]	n/a	FR1	0	R1462M
981.091	0.984	1048005	WORD_OFF	n/a	n/a	KITE	1	6	[0, 0, 0]	n/a	FR1	0	R1462M
982.075	1.6	1048983	WORD	n/a	wordpools/wordpool_long_EN.txt	OX	2	6	[0, 0, 0]	n/a	FR1	0	R1462M
983.675	0.966	1050582	WORD_OFF	n/a	n/a	OX	2	6	[0, 0, 0]	n/a	FR1	0	R1462M
984.641	1.617	1051560	WORD	n/a	wordpools/wordpool_long_EN.txt	SEAL	3	6	[0, 0, 0]	n/a	FR1	0	R1462M
986.258	0.8	1053172	WORD_OFF	n/a	n/a	SEAL	3	6	[0, 0, 0]	n/a	FR1	0	R1462M
987.058	1.6	1053971	WORD	n/a	wordpools/wordpool_long_EN.txt	WRIST	4	6	[0, 0, 0]	n/a	FR1	0	R1462M
988.658	0.933	1055569	WORD_OFF	n/a	n/a	WRIST	4	6	[0, 0, 0]	n/a	FR1	0	R1462M
989.591	1.6	1056506	WORD	n/a	wordpools/wordpool_long_EN.txt	FLEA	5	6	[0, 0, 0]	n/a	FR1	0	R1462M
991.191	0.867	1058104	WORD_OFF	n/a	n/a	FLEA	5	6	[0, 0, 0]	n/a	FR1	0	R1462M
992.058	1.617	1058972	WORD	n/a	wordpools/wordpool_long_EN.txt	SPACE	6	6	[0, 0, 0]	n/a	FR1	0	R1462M
993.675	0.866	1060584	WORD_OFF	n/a	n/a	SPACE	6	6	[0, 0, 0]	n/a	FR1	0	R1462M
994.541	1.6	1061452	WORD	n/a	wordpools/wordpool_long_EN.txt	PET	7	6	[0, 0, 0]	n/a	FR1	0	R1462M
996.141	0.934	1063051	WORD_OFF	n/a	n/a	PET	7	6	[0, 0, 0]	n/a	FR1	0	R1462M
997.075	1.6	1063987	WORD	n/a	wordpools/wordpool_long_EN.txt	SCHOOL	8	6	[0, 0, 0]	n/a	FR1	0	R1462M
998.675	1.0	1065586	WORD_OFF	n/a	n/a	SCHOOL	8	6	[0, 0, 0]	n/a	FR1	0	R1462M
999.675	1.616	1066591	WORD	n/a	wordpools/wordpool_long_EN.txt	PEA	9	6	[0, 0, 0]	n/a	FR1	0	R1462M
1001.291	0.967	1068203	WORD_OFF	n/a	n/a	PEA	9	6	[0, 0, 0]	n/a	FR1	0	R1462M
1002.258	1.615	1069168	WORD	n/a	wordpools/wordpool_long_EN.txt	BOOT	10	6	[0, 0, 0]	n/a	FR1	0	R1462M
1003.873	1.001	1070780	WORD_OFF	n/a	n/a	BOOT	10	6	[0, 0, 0]	n/a	FR1	0	R1462M
1004.874	1.616	1071786	WORD	n/a	wordpools/wordpool_long_EN.txt	BUSH	11	6	[0, 0, 0]	n/a	FR1	0	R1462M
1006.49	0.767	1073398	WORD_OFF	n/a	n/a	BUSH	11	6	[0, 0, 0]	n/a	FR1	0	R1462M
1007.257	1.6	1074169	WORD	n/a	wordpools/wordpool_long_EN.txt	CLAY	12	6	[0, 0, 0]	n/a	FR1	0	R1462M
1008.857	0.002	1075767	WORD_OFF	n/a	n/a	CLAY	12	6	[0, 0, 0]	n/a	FR1	0	R1462M
1008.859	0.0	1075767	ENCODING_END	n/a	n/a	n/a	-999	6	[0, 0, 0]	n/a	FR1	0	R1462M
1008.859	0.0	1075767	DISTRACT_START	n/a	n/a	n/a	-999	6	[0, 0, 0]	n/a	FR1	0	R1462M
1008.858	0.001	1075768	PROB	0.001	n/a	n/a	-999	6	[3, 1, 3]	7	FR1	0	R1462M
1008.859	3.198	1075769	START	n/a	n/a	n/a	-999	6	[-999, -999, -999]	n/a	FR1	0	R1462M
1012.057	2.734	1078966	PROB	2.734	n/a	n/a	-999	6	[1, 2, 6]	9	FR1	0	R1462M
1014.791	5.017	1081700	PROB	5.017	n/a	n/a	-999	6	[3, 7, 3]	13	FR1	0	R1462M
1019.808	3.401	1086717	PROB	3.401	n/a	n/a	-999	6	[4, 3, 4]	11	FR1	0	R1462M
1023.209	2.25	1090118	PROB	2.25	n/a	n/a	-999	6	[1, 5, 5]	11	FR1	0	R1462M
1025.459	5.049	1092368	PROB	5.049	n/a	n/a	-999	6	[3, 6, 7]	16	FR1	0	R1462M
1030.508	0.0	1097412	DISTRACT_END	n/a	n/a	n/a	-999	6	[0, 0, 0]	n/a	FR1	0	R1462M
1030.508	2.35	1097417	STOP	n/a	n/a	n/a	-999	6	[-999, -999, -999]	n/a	FR1	0	R1462M
1032.858	5.9	1099763	REC_START	n/a	n/a	n/a	-999	6	[0, 0, 0]	n/a	FR1	0	R1462M
1038.758	1.0	1105666	REC_WORD	1.0	n/a	SEA	-999	6	[0, 0, 0]	n/a	FR1	0	R1462M
1039.758	5.783	1106666	REC_WORD_VV	5.783	n/a	<>	-999	6	[0, 0, 0]	n/a	FR1	0	R1462M
1045.541	5.673	1112449	REC_WORD	5.673	n/a	PEA	9	6	[0, 0, 0]	n/a	FR1	0	R1462M
1051.214	11.887	1118122	REC_WORD	11.887	n/a	STREET	-999	6	[0, 0, 0]	n/a	FR1	0	R1462M
1063.101	15.806	1130011	REC_END	n/a	n/a	n/a	-999	6	[0, 0, 0]	n/a	FR1	0	R1462M
1078.907	10.351	1145814	COUNTDOWN_START	n/a	n/a	n/a	-999	7	[0, 0, 0]	n/a	FR1	0	R1462M
1089.258	0.0	1156161	COUNTDOWN_END	n/a	n/a	n/a	-999	7	[0, 0, 0]	n/a	FR1	0	R1462M
1089.258	2.066	1156174	ENCODING_START	n/a	n/a	n/a	-999	7	[0, 0, 0]	n/a	FR1	0	R1462M
1091.324	1.6	1158227	WORD	n/a	wordpools/wordpool_long_EN.txt	COOK	1	7	[0, 0, 0]	n/a	FR1	0	R1462M
1092.924	1.001	1159839	WORD_OFF	n/a	n/a	COOK	1	7	[0, 0, 0]	n/a	FR1	0	R1462M
1093.925	1.6	1160831	WORD	n/a	wordpools/wordpool_long_EN.txt	SAIL	2	7	[0, 0, 0]	n/a	FR1	0	R1462M
1095.525	0.817	1162430	WORD_OFF	n/a	n/a	SAIL	2	7	[0, 0, 0]	n/a	FR1	0	R1462M
1096.342	1.6	1163256	WORD	n/a	wordpools/wordpool_long_EN.txt	WIFE	3	7	[0, 0, 0]	n/a	FR1	0	R1462M
1097.942	0.8	1164854	WORD_OFF	n/a	n/a	WIFE	3	7	[0, 0, 0]	n/a	FR1	0	R1462M
1098.742	1.616	1165654	WORD	n/a	wordpools/wordpool_long_EN.txt	BRIDGE	4	7	[0, 0, 0]	n/a	FR1	0	R1462M
1100.358	0.817	1167266	WORD_OFF	n/a	n/a	BRIDGE	4	7	[0, 0, 0]	n/a	FR1	0	R1462M
1101.175	1.616	1168078	WORD	n/a	wordpools/wordpool_long_EN.txt	CUBE	5	7	[0, 0, 0]	n/a	FR1	0	R1462M
1102.791	0.767	1169704	WORD_OFF	n/a	n/a	CUBE	5	7	[0, 0, 0]	n/a	FR1	0	R1462M
1103.558	1.617	1170462	WORD	n/a	wordpools/wordpool_long_EN.txt	GEESE	6	7	[0, 0, 0]	n/a	FR1	0	R1462M
1105.175	0.965	1172088	WORD_OFF	n/a	n/a	GEESE	6	7	[0, 0, 0]	n/a	FR1	0	R1462M
1106.14	1.601	1173052	WORD	n/a	wordpools/wordpool_long_EN.txt	DOG	7	7	[0, 0, 0]	n/a	FR1	0	R1462M
1107.741	0.85	1174650	WORD_OFF	n/a	n/a	DOG	7	7	[0, 0, 0]	n/a	FR1	0	R1462M
1108.591	1.617	1175505	WORD	n/a	wordpools/wordpool_long_EN.txt	RAT	8	7	[0, 0, 0]	n/a	FR1	0	R1462M
1110.208	0.767	1177117	WORD_OFF	n/a	n/a	RAT	8	7	[0, 0, 0]	n/a	FR1	0	R1462M
1110.975	1.6	1177888	WORD	n/a	wordpools/wordpool_long_EN.txt	LEAF	9	7	[0, 0, 0]	n/a	FR1	0	R1462M
1112.575	0.833	1179486	WORD_OFF	n/a	n/a	LEAF	9	7	[0, 0, 0]	n/a	FR1	0	R1462M
1113.408	1.616	1180313	WORD	n/a	wordpools/wordpool_long_EN.txt	DEER	10	7	[0, 0, 0]	n/a	FR1	0	R1462M
1115.024	0.884	1181925	WORD_OFF	n/a	n/a	DEER	10	7	[0, 0, 0]	n/a	FR1	0	R1462M
1115.908	1.6	1182821	WORD	n/a	wordpools/wordpool_long_EN.txt	JAR	11	7	[0, 0, 0]	n/a	FR1	0	R1462M
1117.508	0.9	1184419	WORD_OFF	n/a	n/a	JAR	11	7	[0, 0, 0]	n/a	FR1	0	R1462M
1118.408	1.617	1185314	WORD	n/a	wordpools/wordpool_long_EN.txt	SMILE	12	7	[0, 0, 0]	n/a	FR1	0	R1462M
1120.025	0.0	1186926	WORD_OFF	n/a	n/a	SMILE	12	7	[0, 0, 0]	n/a	FR1	0	R1462M
1120.025	0.009	1186930	PROB	0.009	n/a	n/a	-999	7	[8, 8, 5]	24	FR1	0	R1462M
1120.034	0.0	1186939	START	n/a	n/a	n/a	-999	7	[-999, -999, -999]	n/a	FR1	0	R1462M
1120.034	0.0	1186940	ENCODING_END	n/a	n/a	n/a	-999	7	[0, 0, 0]	n/a	FR1	0	R1462M
1120.034	12.408	1186940	DISTRACT_START	n/a	n/a	n/a	-999	7	[0, 0, 0]	n/a	FR1	0	R1462M
1132.442	3.366	1199346	PROB	3.366	n/a	n/a	-999	7	[7, 5, 3]	15	FR1	0	R1462M
1135.808	6.067	1202712	PROB	6.067	n/a	n/a	-999	7	[6, 3, 6]	15	FR1	0	R1462M
1141.875	0.0	1208778	DISTRACT_END	n/a	n/a	n/a	-999	7	[0, 0, 0]	n/a	FR1	0	R1462M
1141.875	2.233	1208779	STOP	n/a	n/a	n/a	-999	7	[-999, -999, -999]	n/a	FR1	0	R1462M
1144.108	2.251	1211018	REC_START	n/a	n/a	n/a	-999	7	[0, 0, 0]	n/a	FR1	0	R1462M
1146.359	0.862	1213262	REC_WORD	0.862	n/a	DEER	10	7	[0, 0, 0]	n/a	FR1	0	R1462M
1147.221	13.078	1214124	REC_WORD	13.078	n/a	RAT	8	7	[0, 0, 0]	n/a	FR1	0	R1462M
1160.299	3.87	1227202	REC_WORD	3.87	n/a	BRIDGE	4	7	[0, 0, 0]	n/a	FR1	0	R1462M
1164.169	0.796	1231072	REC_WORD	0.796	n/a	WIFE	3	7	[0, 0, 0]	n/a	FR1	0	R1462M
1164.965	2.109	1231868	REC_WORD	2.109	n/a	COOK	1	7	[0, 0, 0]	n/a	FR1	0	R1462M
1167.074	7.329	1233977	REC_WORD	7.329	n/a	SAIL	2	7	[0, 0, 0]	n/a	FR1	0	R1462M
1174.403	2.671	1241307	REC_END	n/a	n/a	n/a	-999	7	[0, 0, 0]	n/a	FR1	0	R1462M
1177.074	10.351	1243980	COUNTDOWN_START	n/a	n/a	n/a	-999	8	[0, 0, 0]	n/a	FR1	0	R1462M
1187.425	0.0	1254327	COUNTDOWN_END	n/a	n/a	n/a	-999	8	[0, 0, 0]	n/a	FR1	0	R1462M
1187.425	1.933	1254327	ENCODING_START	n/a	n/a	n/a	-999	8	[0, 0, 0]	n/a	FR1	0	R1462M
1189.358	1.617	1256256	WORD	n/a	wordpools/wordpool_long_EN.txt	TART	1	8	[0, 0, 0]	n/a	FR1	0	R1462M
1190.975	0.833	1257882	WORD_OFF	n/a	n/a	TART	1	8	[0, 0, 0]	n/a	FR1	0	R1462M
1191.808	1.616	1258709	WORD	n/a	wordpools/wordpool_long_EN.txt	PURSE	2	8	[0, 0, 0]	n/a	FR1	0	R1462M
1193.424	0.85	1260334	WORD_OFF	n/a	n/a	PURSE	2	8	[0, 0, 0]	n/a	FR1	0	R1462M
1194.274	1.601	1261175	WORD	n/a	wordpools/wordpool_long_EN.txt	CLAM	3	8	[0, 0, 0]	n/a	FR1	0	R1462M
1195.875	0.866	1262773	WORD_OFF	n/a	n/a	CLAM	3	8	[0, 0, 0]	n/a	FR1	0	R1462M
1196.741	1.6	1263641	WORD	n/a	wordpools/wordpool_long_EN.txt	HOOK	4	8	[0, 0, 0]	n/a	FR1	0	R1462M
1198.341	1.0	1265239	WORD_OFF	n/a	n/a	HOOK	4	8	[0, 0, 0]	n/a	FR1	0	R1462M
1199.341	1.6	1266245	WORD	n/a	wordpools/wordpool_long_EN.txt	LOFT	5	8	[0, 0, 0]	n/a	FR1	0	R1462M
1200.941	0.833	1267843	WORD_OFF	n/a	n/a	LOFT	5	8	[0, 0, 0]	n/a	FR1	0	R1462M
1201.774	1.602	1268684	WORD	n/a	wordpools/wordpool_long_EN.txt	INN	6	8	[0, 0, 0]	n/a	FR1	0	R1462M
1203.376	0.815	1270282	WORD_OFF	n/a	n/a	INN	6	8	[0, 0, 0]	n/a	FR1	0	R1462M
1204.191	1.616	1271095	WORD	n/a	wordpools/wordpool_long_EN.txt	STORM	7	8	[0, 0, 0]	n/a	FR1	0	R1462M
1205.807	0.834	1272707	WORD_OFF	n/a	n/a	STORM	7	8	[0, 0, 0]	n/a	FR1	0	R1462M
1206.641	1.6	1273547	WORD	n/a	wordpools/wordpool_long_EN.txt	BRANCH	8	8	[0, 0, 0]	n/a	FR1	0	R1462M
1208.241	0.817	1275145	WORD_OFF	n/a	n/a	BRANCH	8	8	[0, 0, 0]	n/a	FR1	0	R1462M
1209.058	1.6	1275958	WORD	n/a	wordpools/wordpool_long_EN.txt	BLADE	9	8	[0, 0, 0]	n/a	FR1	0	R1462M
1210.658	0.817	1277557	WORD_OFF	n/a	n/a	BLADE	9	8	[0, 0, 0]	n/a	FR1	0	R1462M
1211.475	1.6	1278383	WORD	n/a	wordpools/wordpool_long_EN.txt	STONE	10	8	[0, 0, 0]	n/a	FR1	0	R1462M
1213.075	0.865	1279981	WORD_OFF	n/a	n/a	STONE	10	8	[0, 0, 0]	n/a	FR1	0	R1462M
1213.94	1.601	1280849	WORD	n/a	wordpools/wordpool_long_EN.txt	SKY	11	8	[0, 0, 0]	n/a	FR1	0	R1462M
1215.541	0.867	1282448	WORD_OFF	n/a	n/a	SKY	11	8	[0, 0, 0]	n/a	FR1	0	R1462M
1216.408	1.617	1283316	WORD	n/a	wordpools/wordpool_long_EN.txt	BRUSH	12	8	[0, 0, 0]	n/a	FR1	0	R1462M
1218.025	0.001	1284925	PROB	0.001	n/a	n/a	-999	8	[1, 1, 5]	7	FR1	0	R1462M
1218.026	0.0	1284926	START	n/a	n/a	n/a	-999	8	[-999, -999, -999]	n/a	FR1	0	R1462M
1218.025	0.001	1284928	WORD_OFF	n/a	n/a	BRUSH	12	8	[0, 0, 0]	n/a	FR1	0	R1462M
1218.026	0.0	1284928	ENCODING_END	n/a	n/a	n/a	-999	8	[0, 0, 0]	n/a	FR1	0	R1462M
1218.026	4.883	1284928	DISTRACT_START	n/a	n/a	n/a	-999	8	[0, 0, 0]	n/a	FR1	0	R1462M
1222.909	5.016	1289809	PROB	5.016	n/a	n/a	-999	8	[8, 5, 2]	15	FR1	0	R1462M
1227.925	3.067	1294825	PROB	3.067	n/a	n/a	-999	8	[3, 4, 1]	8	FR1	0	R1462M
1230.992	3.833	1297892	PROB	3.833	n/a	n/a	-999	8	[3, 7, 1]	11	FR1	0	R1462M
1234.825	4.533	1301724	PROB	4.533	n/a	n/a	-999	8	[8, 2, 7]	17	FR1	0	R1462M
1239.358	0.0	1306256	DISTRACT_END	n/a	n/a	n/a	-999	8	[0, 0, 0]	n/a	FR1	0	R1462M
1239.358	2.332	1306257	STOP	n/a	n/a	n/a	-999	8	[-999, -999, -999]	n/a	FR1	0	R1462M
1241.69	1.105	1308592	REC_START	n/a	n/a	n/a	-999	8	[0, 0, 0]	n/a	FR1	0	R1462M
1242.795	1.043	1309694	REC_WORD	1.043	n/a	BRANCH	8	8	[0, 0, 0]	n/a	FR1	0	R1462M
1243.838	0.346	1310737	REC_WORD	0.346	n/a	TREE	-999	8	[0, 0, 0]	n/a	FR1	0	R1462M
1244.184	12.825	1311083	REC_WORD	12.825	n/a	SKY	11	8	[0, 0, 0]	n/a	FR1	0	R1462M
1257.009	14.954	1323908	REC_WORD	14.954	n/a	BRUSH	12	8	[0, 0, 0]	n/a	FR1	0	R1462M
1271.963	3.011	1338868	REC_END	n/a	n/a	n/a	-999	8	[0, 0, 0]	n/a	FR1	0	R1462M
1274.974	10.351	1341871	COUNTDOWN_START	n/a	n/a	n/a	-999	9	[0, 0, 0]	n/a	FR1	0	R1462M
1285.325	0.0	1352218	COUNTDOWN_END	n/a	n/a	n/a	-999	9	[0, 0, 0]	n/a	FR1	0	R1462M
1285.325	1.983	1352232	ENCODING_START	n/a	n/a	n/a	-999	9	[0, 0, 0]	n/a	FR1	0	R1462M
1287.308	1.6	1354202	WORD	n/a	wordpools/wordpool_long_EN.txt	VAULT	1	9	[0, 0, 0]	n/a	FR1	0	R1462M
1288.908	0.783	1355801	WORD_OFF	n/a	n/a	VAULT	1	9	[0, 0, 0]	n/a	FR1	0	R1462M
1289.691	1.6	1356586	WORD	n/a	wordpools/wordpool_long_EN.txt	BOOK	2	9	[0, 0, 0]	n/a	FR1	0	R1462M
1291.291	0.867	1358184	WORD_OFF	n/a	n/a	BOOK	2	9	[0, 0, 0]	n/a	FR1	0	R1462M
1292.158	1.616	1359052	WORD	n/a	wordpools/wordpool_long_EN.txt	OAR	3	9	[0, 0, 0]	n/a	FR1	0	R1462M
1293.774	0.9	1360678	WORD_OFF	n/a	n/a	OAR	3	9	[0, 0, 0]	n/a	FR1	0	R1462M
1294.674	1.601	1361573	WORD	n/a	wordpools/wordpool_long_EN.txt	SUN	4	9	[0, 0, 0]	n/a	FR1	0	R1462M
1296.275	0.868	1363172	WORD_OFF	n/a	n/a	SUN	4	9	[0, 0, 0]	n/a	FR1	0	R1462M
1297.143	1.615	1364040	WORD	n/a	wordpools/wordpool_long_EN.txt	PEARL	5	9	[0, 0, 0]	n/a	FR1	0	R1462M
1298.758	0.999	1365652	WORD_OFF	n/a	n/a	PEARL	5	9	[0, 0, 0]	n/a	FR1	0	R1462M
1299.757	1.601	1366657	WORD	n/a	wordpools/wordpool_long_EN.txt	BOMB	6	9	[0, 0, 0]	n/a	FR1	0	R1462M
1301.358	0.917	1368256	WORD_OFF	n/a	n/a	BOMB	6	9	[0, 0, 0]	n/a	FR1	0	R1462M
1302.275	1.6	1369179	WORD	n/a	wordpools/wordpool_long_EN.txt	NEST	7	9	[0, 0, 0]	n/a	FR1	0	R1462M
1303.875	0.8	1370777	WORD_OFF	n/a	n/a	NEST	7	9	[0, 0, 0]	n/a	FR1	0	R1462M
1304.675	1.616	1371576	WORD	n/a	wordpools/wordpool_long_EN.txt	BOX	8	9	[0, 0, 0]	n/a	FR1	0	R1462M
1306.291	0.967	1373188	WORD_OFF	n/a	n/a	BOX	8	9	[0, 0, 0]	n/a	FR1	0	R1462M
1307.258	1.6	1374153	WORD	n/a	wordpools/wordpool_long_EN.txt	LAND	9	9	[0, 0, 0]	n/a	FR1	0	R1462M
1308.858	0.833	1375751	WORD_OFF	n/a	n/a	LAND	9	9	[0, 0, 0]	n/a	FR1	0	R1462M
1309.691	1.6	1376591	WORD	n/a	wordpools/wordpool_long_EN.txt	STAR	10	9	[0, 0, 0]	n/a	FR1	0	R1462M
1311.291	0.834	1378189	WORD_OFF	n/a	n/a	STAR	10	9	[0, 0, 0]	n/a	FR1	0	R1462M
1312.125	1.616	1379016	WORD	n/a	wordpools/wordpool_long_EN.txt	YARN	11	9	[0, 0, 0]	n/a	FR1	0	R1462M
1313.741	0.834	1380642	WORD_OFF	n/a	n/a	YARN	11	9	[0, 0, 0]	n/a	FR1	0	R1462M
1314.575	1.617	1381468	WORD	n/a	wordpools/wordpool_long_EN.txt	BOWL	12	9	[0, 0, 0]	n/a	FR1	0	R1462M
1316.192	0.0	1383088	START	n/a	n/a	n/a	-999	9	[-999, -999, -999]	n/a	FR1	0	R1462M
1316.192	0.0	1383088	PROB	0.0	n/a	n/a	-999	9	[7, 7, 5]	19	FR1	0	R1462M
1316.191	0.001	1383094	WORD_OFF	n/a	n/a	BOWL	12	9	[0, 0, 0]	n/a	FR1	0	R1462M
1316.192	0.0	1383094	ENCODING_END	n/a	n/a	n/a	-999	9	[0, 0, 0]	n/a	FR1	0	R1462M
1316.192	8.133	1383094	DISTRACT_START	n/a	n/a	n/a	-999	9	[0, 0, 0]	n/a	FR1	0	R1462M
1324.325	4.016	1391220	PROB	4.016	n/a	n/a	-999	9	[1, 4, 5]	10	FR1	0	R1462M
1328.341	11.302	1395236	PROB	11.302	n/a	n/a	-999	9	[8, 7, 6]	21	FR1	0	R1462M
1339.643	0.0	1406538	STOP	n/a	n/a	n/a	-999	9	[-999, -999, -999]	n/a	FR1	0	R1462M
1339.643	2.131	1406544	DISTRACT_END	n/a	n/a	n/a	-999	9	[0, 0, 0]	n/a	FR1	0	R1462M
1341.774	0.882	1408674	REC_START	n/a	n/a	n/a	-999	9	[0, 0, 0]	n/a	FR1	0	R1462M
1342.656	0.657	1409551	REC_WORD	0.657	n/a	YARN	11	9	[0, 0, 0]	n/a	FR1	0	R1462M
1343.313	0.521	1410208	REC_WORD	0.521	n/a	VAULT	1	9	[0, 0, 0]	n/a	FR1	0	R1462M
1343.834	0.44	1410729	REC_WORD	0.44	n/a	BOOK	2	9	[0, 0, 0]	n/a	FR1	0	R1462M
1344.274	0.296	1411169	REC_WORD	0.296	n/a	BOX	8	9	[0, 0, 0]	n/a	FR1	0	R1462M
1344.57	1.676	1411465	REC_WORD	1.676	n/a	SAND	-999	9	[0, 0, 0]	n/a	FR1	0	R1462M
1346.246	11.701	1413141	REC_WORD	11.701	n/a	YARN	11	9	[0, 0, 0]	n/a	FR1	0	R1462M
1357.947	5.309	1424841	REC_WORD	5.309	n/a	TREE	-999	9	[0, 0, 0]	n/a	FR1	0	R1462M
1363.256	7.229	1430150	REC_WORD	7.229	n/a	SEA	-999	9	[0, 0, 0]	n/a	FR1	0	R1462M
1370.485	1.56	1437378	REC_WORD	1.56	n/a	LAND	9	9	[0, 0, 0]	n/a	FR1	0	R1462M
1372.045	2.28	1438936	REC_END	n/a	n/a	n/a	-999	9	[0, 0, 0]	n/a	FR1	0	R1462M
1374.325	10.35	1441223	COUNTDOWN_START	n/a	n/a	n/a	-999	10	[0, 0, 0]	n/a	FR1	0	R1462M
1384.675	0.0	1451570	COUNTDOWN_END	n/a	n/a	n/a	-999	10	[0, 0, 0]	n/a	FR1	0	R1462M
1384.675	1.999	1451570	ENCODING_START	n/a	n/a	n/a	-999	10	[0, 0, 0]	n/a	FR1	0	R1462M
1386.674	1.601	1453568	WORD	n/a	wordpools/wordpool_long_EN.txt	SLIME	1	10	[0, 0, 0]	n/a	FR1	0	R1462M
1388.275	0.833	1455166	WORD_OFF	n/a	n/a	SLIME	1	10	[0, 0, 0]	n/a	FR1	0	R1462M
1389.108	1.6	1456006	WORD	n/a	wordpools/wordpool_long_EN.txt	GOLD	2	10	[0, 0, 0]	n/a	FR1	0	R1462M
1390.708	0.8	1457604	WORD_OFF	n/a	n/a	GOLD	2	10	[0, 0, 0]	n/a	FR1	0	R1462M
1391.508	1.617	1458404	WORD	n/a	wordpools/wordpool_long_EN.txt	ROAD	3	10	[0, 0, 0]	n/a	FR1	0	R1462M
1393.125	0.8	1460016	WORD_OFF	n/a	n/a	ROAD	3	10	[0, 0, 0]	n/a	FR1	0	R1462M
1393.925	1.616	1460815	WORD	n/a	wordpools/wordpool_long_EN.txt	SLUSH	4	10	[0, 0, 0]	n/a	FR1	0	R1462M
1395.541	0.816	1462440	WORD_OFF	n/a	n/a	SLUSH	4	10	[0, 0, 0]	n/a	FR1	0	R1462M
1396.357	1.601	1463253	WORD	n/a	wordpools/wordpool_long_EN.txt	MAZE	5	10	[0, 0, 0]	n/a	FR1	0	R1462M
1397.958	0.867	1464852	WORD_OFF	n/a	n/a	MAZE	5	10	[0, 0, 0]	n/a	FR1	0	R1462M
1398.825	1.6	1465720	WORD	n/a	wordpools/wordpool_long_EN.txt	BOY	6	10	[0, 0, 0]	n/a	FR1	0	R1462M
1400.425	0.984	1467318	WORD_OFF	n/a	n/a	BOY	6	10	[0, 0, 0]	n/a	FR1	0	R1462M
1401.409	1.599	1468296	WORD	n/a	wordpools/wordpool_long_EN.txt	RUST	7	10	[0, 0, 0]	n/a	FR1	0	R1462M
1403.008	0.966	1469908	WORD_OFF	n/a	n/a	RUST	7	10	[0, 0, 0]	n/a	FR1	0	R1462M
1403.974	1.6	1470872	WORD	n/a	wordpools/wordpool_long_EN.txt	SIGN	8	10	[0, 0, 0]	n/a	FR1	0	R1462M
1405.574	0.917	1472471	WORD_OFF	n/a	n/a	SIGN	8	10	[0, 0, 0]	n/a	FR1	0	R1462M
1406.491	1.6	1473380	WORD	n/a	wordpools/wordpool_long_EN.txt	ROD	9	10	[0, 0, 0]	n/a	FR1	0	R1462M
1408.091	1.0	1474978	WORD_OFF	n/a	n/a	ROD	9	10	[0, 0, 0]	n/a	FR1	0	R1462M
1409.091	1.6	1475984	WORD	n/a	wordpools/wordpool_long_EN.txt	MARSH	10	10	[0, 0, 0]	n/a	FR1	0	R1462M
1410.691	0.766	1477582	WORD_OFF	n/a	n/a	MARSH	10	10	[0, 0, 0]	n/a	FR1	0	R1462M
1411.457	1.6	1478354	WORD	n/a	wordpools/wordpool_long_EN.txt	MOOSE	11	10	[0, 0, 0]	n/a	FR1	0	R1462M
1413.057	0.852	1479952	WORD_OFF	n/a	n/a	MOOSE	11	10	[0, 0, 0]	n/a	FR1	0	R1462M
1413.909	1.615	1480806	WORD	n/a	wordpools/wordpool_long_EN.txt	GLOBE	12	10	[0, 0, 0]	n/a	FR1	0	R1462M
1415.524	0.001	1482415	PROB	0.001	n/a	n/a	-999	10	[1, 2, 6]	9	FR1	0	R1462M
1415.525	0.0	1482416	START	n/a	n/a	n/a	-999	10	[-999, -999, -999]	n/a	FR1	0	R1462M
1415.524	0.001	1482418	WORD_OFF	n/a	n/a	GLOBE	12	10	[0, 0, 0]	n/a	FR1	0	R1462M
1415.525	0.0	1482418	ENCODING_END	n/a	n/a	n/a	-999	10	[0, 0, 0]	n/a	FR1	0	R1462M
1415.525	5.999	1482418	DISTRACT_START	n/a	n/a	n/a	-999	10	[0, 0, 0]	n/a	FR1	0	R1462M
1421.524	3.55	1488415	PROB	3.55	n/a	n/a	-999	10	[1, 8, 1]	10	FR1	0	R1462M
1425.074	4.317	1491965	PROB	4.317	n/a	n/a	-999	10	[7, 1, 1]	9	FR1	0	R1462M
1429.391	3.518	1496282	PROB	3.518	n/a	n/a	-999	10	[5, 8, 2]	15	FR1	0	R1462M
1432.909	3.815	1499800	PROB	3.815	n/a	n/a	-999	10	[5, 3, 2]	10	FR1	0	R1462M
1436.724	0.0	1503614	STOP	n/a	n/a	n/a	-999	10	[-999, -999, -999]	n/a	FR1	0	R1462M
1436.724	2.184	1503622	DISTRACT_END	n/a	n/a	n/a	-999	10	[0, 0, 0]	n/a	FR1	0	R1462M
1438.908	0.843	1505807	REC_START	n/a	n/a	n/a	-999	10	[0, 0, 0]	n/a	FR1	0	R1462M
1439.751	0.581	1506641	REC_WORD	0.581	n/a	BOY	6	10	[0, 0, 0]	n/a	FR1	0	R1462M
1440.332	1.492	1507222	REC_WORD	1.492	n/a	BARN	-999	10	[0, 0, 0]	n/a	FR1	0	R1462M
1441.824	0.464	1508714	REC_WORD	0.464	n/a	ROAD	3	10	[0, 0, 0]	n/a	FR1	0	R1462M
1442.288	2.299	1509178	REC_WORD	2.299	n/a	SLUSH	4	10	[0, 0, 0]	n/a	FR1	0	R1462M
1444.587	6.72	1511477	REC_WORD	6.72	n/a	SIGN	8	10	[0, 0, 0]	n/a	FR1	0	R1462M
1451.307	6.656	1518197	REC_WORD	6.656	n/a	TOAD	-999	10	[0, 0, 0]	n/a	FR1	0	R1462M
1457.963	5.245	1524852	REC_WORD	5.245	n/a	KITE	-999	10	[0, 0, 0]	n/a	FR1	0	R1462M
1463.208	5.94	1530097	REC_WORD	5.94	n/a	MOOSE	11	10	[0, 0, 0]	n/a	FR1	0	R1462M
1469.148	2.326	1536041	REC_END	n/a	n/a	n/a	-999	10	[0, 0, 0]	n/a	FR1	0	R1462M
1471.474	10.351	1538370	COUNTDOWN_START	n/a	n/a	n/a	-999	11	[0, 0, 0]	n/a	FR1	0	R1462M
1481.825	0.0	1548717	COUNTDOWN_END	n/a	n/a	n/a	-999	11	[0, 0, 0]	n/a	FR1	0	R1462M
1481.825	2.315	1548717	ENCODING_START	n/a	n/a	n/a	-999	11	[0, 0, 0]	n/a	FR1	0	R1462M
1484.14	1.6	1551031	WORD	n/a	wordpools/wordpool_long_EN.txt	STEM	1	11	[0, 0, 0]	n/a	FR1	0	R1462M
1485.74	0.984	1552630	WORD_OFF	n/a	n/a	STEM	1	11	[0, 0, 0]	n/a	FR1	0	R1462M
1486.724	1.617	1553614	WORD	n/a	wordpools/wordpool_long_EN.txt	CLOWN	2	11	[0, 0, 0]	n/a	FR1	0	R1462M
1488.341	0.967	1555234	WORD_OFF	n/a	n/a	CLOWN	2	11	[0, 0, 0]	n/a	FR1	0	R1462M
1489.308	1.6	1556198	WORD	n/a	wordpools/wordpool_long_EN.txt	CHEST	3	11	[0, 0, 0]	n/a	FR1	0	R1462M
1490.908	0.983	1557796	WORD_OFF	n/a	n/a	CHEST	3	11	[0, 0, 0]	n/a	FR1	0	R1462M
1491.891	1.6	1558775	WORD	n/a	wordpools/wordpool_long_EN.txt	ARK	4	11	[0, 0, 0]	n/a	FR1	0	R1462M
1493.491	0.783	1560387	WORD_OFF	n/a	n/a	ARK	4	11	[0, 0, 0]	n/a	FR1	0	R1462M
1494.274	1.601	1561158	WORD	n/a	wordpools/wordpool_long_EN.txt	GREASE	5	11	[0, 0, 0]	n/a	FR1	0	R1462M
1495.875	0.95	1562770	WORD_OFF	n/a	n/a	GREASE	5	11	[0, 0, 0]	n/a	FR1	0	R1462M
1496.825	1.6	1563721	WORD	n/a	wordpools/wordpool_long_EN.txt	TRASH	6	11	[0, 0, 0]	n/a	FR1	0	R1462M
1498.425	0.783	1565319	WORD_OFF	n/a	n/a	TRASH	6	11	[0, 0, 0]	n/a	FR1	0	R1462M
1499.208	1.6	1566104	WORD	n/a	wordpools/wordpool_long_EN.txt	MULE	7	11	[0, 0, 0]	n/a	FR1	0	R1462M
1500.808	0.816	1567703	WORD_OFF	n/a	n/a	MULE	7	11	[0, 0, 0]	n/a	FR1	0	R1462M
1501.624	1.6	1568515	WORD	n/a	wordpools/wordpool_long_EN.txt	ZOO	8	11	[0, 0, 0]	n/a	FR1	0	R1462M
1503.224	0.903	1570114	WORD_OFF	n/a	n/a	ZOO	8	11	[0, 0, 0]	n/a	FR1	0	R1462M
1504.127	1.598	1571023	WORD	n/a	wordpools/wordpool_long_EN.txt	TOAST	9	11	[0, 0, 0]	n/a	FR1	0	R1462M
1505.725	0.833	1572607	WORD_OFF	n/a	n/a	TOAST	9	11	[0, 0, 0]	n/a	FR1	0	R1462M
1506.558	1.616	1573448	WORD	n/a	wordpools/wordpool_long_EN.txt	RICE	10	11	[0, 0, 0]	n/a	FR1	0	R1462M
1508.174	0.816	1575060	WORD_OFF	n/a	n/a	RICE	10	11	[0, 0, 0]	n/a	FR1	0	R1462M
1508.99	1.601	1575887	WORD	n/a	wordpools/wordpool_long_EN.txt	BRICK	11	11	[0, 0, 0]	n/a	FR1	0	R1462M
1510.591	0.983	1577485	WORD_OFF	n/a	n/a	BRICK	11	11	[0, 0, 0]	n/a	FR1	0	R1462M
1511.574	1.6	1578463	WORD	n/a	wordpools/wordpool_long_EN.txt	SNAIL	12	11	[0, 0, 0]	n/a	FR1	0	R1462M
1513.174	0.001	1580061	WORD_OFF	n/a	n/a	SNAIL	12	11	[0, 0, 0]	n/a	FR1	0	R1462M
1513.175	0.001	1580061	ENCODING_END	n/a	n/a	n/a	-999	11	[0, 0, 0]	n/a	FR1	0	R1462M
1513.176	0.0	1580061	DISTRACT_START	n/a	n/a	n/a	-999	11	[0, 0, 0]	n/a	FR1	0	R1462M
1513.175	0.001	1580062	PROB	0.001	n/a	n/a	-999	11	[8, 4, 6]	20	FR1	0	R1462M
1513.176	8.716	1580063	START	n/a	n/a	n/a	-999	11	[-999, -999, -999]	n/a	FR1	0	R1462M
1521.892	4.149	1588779	PROB	4.149	n/a	n/a	-999	11	[6, 5, 3]	14	FR1	0	R1462M
1526.041	4.451	1592927	PROB	4.451	n/a	n/a	-999	11	[7, 5, 2]	14	FR1	0	R1462M
1530.492	5.533	1597378	PROB	5.533	n/a	n/a	-999	11	[8, 8, 4]	23	FR1	0	R1462M
1536.025	0.0	1602911	STOP	n/a	n/a	n/a	-999	11	[-999, -999, -999]	n/a	FR1	0	R1462M
1536.025	2.366	1602919	DISTRACT_END	n/a	n/a	n/a	-999	11	[0, 0, 0]	n/a	FR1	0	R1462M
1538.391	2.961	1605283	REC_START	n/a	n/a	n/a	-999	11	[0, 0, 0]	n/a	FR1	0	R1462M
1541.352	10.135	1608238	REC_WORD	10.135	n/a	BRICK	11	11	[0, 0, 0]	n/a	FR1	0	R1462M
1551.487	8.589	1618372	REC_WORD	8.589	n/a	SNAIL	12	11	[0, 0, 0]	n/a	FR1	0	R1462M
1560.076	1.0	1626961	REC_WORD	1.0	n/a	BRANCH	-999	11	[0, 0, 0]	n/a	FR1	0	R1462M
1561.076	0.38	1627961	REC_WORD_VV	0.38	n/a	<>	-999	11	[0, 0, 0]	n/a	FR1	0	R1462M
1561.456	0.224	1628341	REC_WORD_VV	0.224	n/a	<>	-999	11	[0, 0, 0]	n/a	FR1	0	R1462M
1561.68	2.743	1628565	REC_WORD	2.743	n/a	TWIG	-999	11	[0, 0, 0]	n/a	FR1	0	R1462M
1564.423	4.212	1631308	REC_WORD	4.212	n/a	STEM	1	11	[0, 0, 0]	n/a	FR1	0	R1462M
1568.635	3.673	1635517	REC_END	n/a	n/a	n/a	-999	11	[0, 0, 0]	n/a	FR1	0	R1462M
1572.308	10.35	1639195	COUNTDOWN_START	n/a	n/a	n/a	-999	12	[0, 0, 0]	n/a	FR1	0	R1462M
1582.658	0.0	1649542	COUNTDOWN_END	n/a	n/a	n/a	-999	12	[0, 0, 0]	n/a	FR1	0	R1462M
1582.658	2.016	1649542	ENCODING_START	n/a	n/a	n/a	-999	12	[0, 0, 0]	n/a	FR1	0	R1462M
1584.674	1.6	1651554	WORD	n/a	wordpools/wordpool_long_EN.txt	PIT	1	12	[0, 0, 0]	n/a	FR1	0	R1462M
1586.274	0.833	1653166	WORD_OFF	n/a	n/a	PIT	1	12	[0, 0, 0]	n/a	FR1	0	R1462M
1587.107	1.6	1653993	WORD	n/a	wordpools/wordpool_long_EN.txt	SOUP	2	12	[0, 0, 0]	n/a	FR1	0	R1462M
1588.707	0.766	1655591	WORD_OFF	n/a	n/a	SOUP	2	12	[0, 0, 0]	n/a	FR1	0	R1462M
1589.473	1.601	1656362	WORD	n/a	wordpools/wordpool_long_EN.txt	WOLF	3	12	[0, 0, 0]	n/a	FR1	0	R1462M
1591.074	0.9	1657961	WORD_OFF	n/a	n/a	WOLF	3	12	[0, 0, 0]	n/a	FR1	0	R1462M
1591.974	1.6	1658856	WORD	n/a	wordpools/wordpool_long_EN.txt	TOY	4	12	[0, 0, 0]	n/a	FR1	0	R1462M
1593.574	0.833	1660454	WORD_OFF	n/a	n/a	TOY	4	12	[0, 0, 0]	n/a	FR1	0	R1462M
1594.407	1.601	1661295	WORD	n/a	wordpools/wordpool_long_EN.txt	YOLK	5	12	[0, 0, 0]	n/a	FR1	0	R1462M
1596.008	0.983	1662893	WORD_OFF	n/a	n/a	YOLK	5	12	[0, 0, 0]	n/a	FR1	0	R1462M
1596.991	1.616	1663871	WORD	n/a	wordpools/wordpool_long_EN.txt	BEAK	6	12	[0, 0, 0]	n/a	FR1	0	R1462M
1598.607	0.884	1665497	WORD_OFF	n/a	n/a	BEAK	6	12	[0, 0, 0]	n/a	FR1	0	R1462M
1599.491	1.601	1666379	WORD	n/a	wordpools/wordpool_long_EN.txt	WAND	7	12	[0, 0, 0]	n/a	FR1	0	R1462M
1601.092	0.9	1667977	WORD_OFF	n/a	n/a	WAND	7	12	[0, 0, 0]	n/a	FR1	0	R1462M
1601.992	1.601	1668873	WORD	n/a	wordpools/wordpool_long_EN.txt	FROG	8	12	[0, 0, 0]	n/a	FR1	0	R1462M
1603.593	0.998	1670471	WORD_OFF	n/a	n/a	FROG	8	12	[0, 0, 0]	n/a	FR1	0	R1462M
1604.591	1.6	1671477	WORD	n/a	wordpools/wordpool_long_EN.txt	STEAM	9	12	[0, 0, 0]	n/a	FR1	0	R1462M
1606.191	0.95	1673075	WORD_OFF	n/a	n/a	STEAM	9	12	[0, 0, 0]	n/a	FR1	0	R1462M
1607.141	1.6	1674026	WORD	n/a	wordpools/wordpool_long_EN.txt	HILL	10	12	[0, 0, 0]	n/a	FR1	0	R1462M
1608.741	0.967	1675624	WORD_OFF	n/a	n/a	HILL	10	12	[0, 0, 0]	n/a	FR1	0	R1462M
1609.708	1.618	1676588	WORD	n/a	wordpools/wordpool_long_EN.txt	SPHINX	11	12	[0, 0, 0]	n/a	FR1	0	R1462M
1611.326	0.882	1678214	WORD_OFF	n/a	n/a	SPHINX	11	12	[0, 0, 0]	n/a	FR1	0	R1462M
1612.208	1.6	1679096	WORD	n/a	wordpools/wordpool_long_EN.txt	HOOF	12	12	[0, 0, 0]	n/a	FR1	0	R1462M
1613.808	0.001	1680690	PROB	0.001	n/a	n/a	-999	12	[2, 3, 4]	9	FR1	0	R1462M
1613.809	0.0	1680691	START	n/a	n/a	n/a	-999	12	[-999, -999, -999]	n/a	FR1	0	R1462M
1613.808	0.001	1680694	WORD_OFF	n/a	n/a	HOOF	12	12	[0, 0, 0]	n/a	FR1	0	R1462M
1613.809	0.0	1680694	ENCODING_END	n/a	n/a	n/a	-999	12	[0, 0, 0]	n/a	FR1	0	R1462M
1613.809	3.998	1680694	DISTRACT_START	n/a	n/a	n/a	-999	12	[0, 0, 0]	n/a	FR1	0	R1462M
1617.807	2.618	1684689	PROB	2.618	n/a	n/a	-999	12	[1, 4, 1]	6	FR1	0	R1462M
1620.425	4.55	1687307	PROB	4.55	n/a	n/a	-999	12	[4, 6, 8]	18	FR1	0	R1462M
1624.975	5.733	1691857	PROB	5.733	n/a	n/a	-999	12	[7, 5, 6]	18	FR1	0	R1462M
1630.708	3.083	1697590	PROB	3.083	n/a	n/a	-999	12	[2, 8, 2]	12	FR1	0	R1462M
1633.791	8.767	1700673	PROB	8.767	n/a	n/a	-999	12	[7, 8, 1]	16	FR1	0	R1462M
1642.558	0.0	1709439	STOP	n/a	n/a	n/a	-999	12	[-999, -999, -999]	n/a	FR1	0	R1462M
1642.558	2.383	1709448	DISTRACT_END	n/a	n/a	n/a	-999	12	[0, 0, 0]	n/a	FR1	0	R1462M
1644.941	0.243	1711826	REC_START	n/a	n/a	n/a	-999	12	[0, 0, 0]	n/a	FR1	0	R1462M
1645.184	1.888	1712065	REC_WORD	1.888	n/a	SPHINX	11	12	[0, 0, 0]	n/a	FR1	0	R1462M
1647.072	2.946	1713953	REC_WORD	2.946	n/a	SPHINX	11	12	[0, 0, 0]	n/a	FR1	0	R1462M
1650.018	5.338	1716899	REC_WORD	5.338	n/a	TREE	-999	12	[0, 0, 0]	n/a	FR1	0	R1462M
1655.356	4.804	1722237	REC_WORD	4.804	n/a	LAND	-999	12	[0, 0, 0]	n/a	FR1	0	R1462M
1660.16	3.872	1727040	REC_WORD	3.872	n/a	OAR	-999	12	[0, 0, 0]	n/a	FR1	0	R1462M
1664.032	6.809	1730912	REC_WORD	6.809	n/a	ARC	-999	12	[0, 0, 0]	n/a	FR1	0	R1462M
1670.841	4.317	1737721	REC_WORD	4.317	n/a	HOOK	-999	12	[0, 0, 0]	n/a	FR1	0	R1462M
1675.158	0.0	1742046	REC_END	n/a	n/a	n/a	-999	12	[0, 0, 0]	n/a	FR1	0	R1462M
