onset	duration	sample	trial_type	response_time	stim_file	item_name	serialpos	list	test	answer	experiment	session	subject
0.0	0.0	12210	INSTRUCT_START	n/a	n/a	n/a	-999	-999	[0, 0, 0]	n/a	FR1	2	R1166D
0.0	10.952	12210	INSTRUCT_END	n/a	n/a	n/a	-999	-999	[0, 0, 0]	n/a	FR1	2	R1166D
10.952	0.0	23161	SESS_START	n/a	n/a	n/a	-999	-999	[0, 0, 0]	n/a	FR1	2	R1166D
10.952	25.5	23161	MIC_TEST	n/a	n/a	n/a	-999	-999	[0, 0, 0]	n/a	FR1	2	R1166D
36.452	31.461	48660	PRACTICE_TRIAL	n/a	n/a	n/a	-999	-1	[0, 0, 0]	n/a	FR1	2	R1166D
67.913	10.428	80119	COUNTDOWN_START	n/a	n/a	n/a	-999	-1	[0, 0, 0]	n/a	FR1	2	R1166D
78.341	0.007	90546	COUNTDOWN_END	n/a	n/a	n/a	-999	-1	[0, 0, 0]	n/a	FR1	2	R1166D
78.348	1.617	90553	PRACTICE_ORIENT	n/a	n/a	n/a	-999	-1	[0, 0, 0]	n/a	FR1	2	R1166D
79.965	2.25	92170	PRACTICE_ORIENT_OFF	n/a	n/a	n/a	-999	-1	[0, 0, 0]	n/a	FR1	2	R1166D
82.215	1.616	94420	PRACTICE_WORD	n/a	n/a	RING	1	-1	[0, 0, 0]	n/a	FR1	2	R1166D
83.831	1.017	96036	PRACTICE_WORD_OFF	n/a	n/a	RING	-999	-1	[0, 0, 0]	n/a	FR1	2	R1166D
84.848	1.601	97053	PRACTICE_WORD	n/a	n/a	COTTON	2	-1	[0, 0, 0]	n/a	FR1	2	R1166D
86.449	1.017	98654	PRACTICE_WORD_OFF	n/a	n/a	COTTON	-999	-1	[0, 0, 0]	n/a	FR1	2	R1166D
87.466	1.617	99671	PRACTICE_WORD	n/a	n/a	FLOOD	3	-1	[0, 0, 0]	n/a	FR1	2	R1166D
89.083	0.817	101288	PRACTICE_WORD_OFF	n/a	n/a	FLOOD	-999	-1	[0, 0, 0]	n/a	FR1	2	R1166D
89.9	1.617	102105	PRACTICE_WORD	n/a	n/a	BEAM	4	-1	[0, 0, 0]	n/a	FR1	2	R1166D
91.517	0.817	103722	PRACTICE_WORD_OFF	n/a	n/a	BEAM	-999	-1	[0, 0, 0]	n/a	FR1	2	R1166D
92.334	1.617	104539	PRACTICE_WORD	n/a	n/a	WATCH	5	-1	[0, 0, 0]	n/a	FR1	2	R1166D
93.951	0.866	106156	PRACTICE_WORD_OFF	n/a	n/a	WATCH	-999	-1	[0, 0, 0]	n/a	FR1	2	R1166D
94.817	1.618	107022	PRACTICE_WORD	n/a	n/a	ATTIC	6	-1	[0, 0, 0]	n/a	FR1	2	R1166D
96.435	0.983	108639	PRACTICE_WORD_OFF	n/a	n/a	ATTIC	-999	-1	[0, 0, 0]	n/a	FR1	2	R1166D
97.418	1.617	109622	PRACTICE_WORD	n/a	n/a	IRON	7	-1	[0, 0, 0]	n/a	FR1	2	R1166D
99.035	0.867	111239	PRACTICE_WORD_OFF	n/a	n/a	IRON	-999	-1	[0, 0, 0]	n/a	FR1	2	R1166D
99.902	1.617	112106	PRACTICE_WORD	n/a	n/a	WAGON	8	-1	[0, 0, 0]	n/a	FR1	2	R1166D
101.519	0.783	113723	PRACTICE_WORD_OFF	n/a	n/a	WAGON	-999	-1	[0, 0, 0]	n/a	FR1	2	R1166D
102.302	1.617	114506	PRACTICE_WORD	n/a	n/a	TONGUE	9	-1	[0, 0, 0]	n/a	FR1	2	R1166D
103.919	0.9	116123	PRACTICE_WORD_OFF	n/a	n/a	TONGUE	-999	-1	[0, 0, 0]	n/a	FR1	2	R1166D
104.819	1.618	117023	PRACTICE_WORD	n/a	n/a	CAMEL	10	-1	[0, 0, 0]	n/a	FR1	2	R1166D
106.437	0.966	118641	PRACTICE_WORD_OFF	n/a	n/a	CAMEL	-999	-1	[0, 0, 0]	n/a	FR1	2	R1166D
107.403	1.617	119607	PRACTICE_WORD	n/a	n/a	RHINO	11	-1	[0, 0, 0]	n/a	FR1	2	R1166D
109.02	0.85	121224	PRACTICE_WORD_OFF	n/a	n/a	RHINO	-999	-1	[0, 0, 0]	n/a	FR1	2	R1166D
109.87	1.618	122074	PRACTICE_WORD	n/a	n/a	CHEST	12	-1	[0, 0, 0]	n/a	FR1	2	R1166D
111.488	0.0	123692	PRACTICE_WORD_OFF	n/a	n/a	CHEST	-999	-1	[0, 0, 0]	n/a	FR1	2	R1166D
111.488	0.0	123692	DISTRACT_START	n/a	n/a	n/a	-999	-1	[0, 0, 0]	n/a	FR1	2	R1166D
111.488	0.016	123692	START	n/a	n/a	n/a	-999	-1	[-999, -999, -999]	n/a	FR1	2	R1166D
111.504	5.935	123708	PROB	5.935	n/a	n/a	-999	-1	[7, 1, 2]	10	FR1	2	R1166D
117.439	2.917	129642	PROB	2.917	n/a	n/a	-999	-1	[7, 2, 3]	12	FR1	2	R1166D
120.356	7.5	132559	PROB	7.5	n/a	n/a	-999	-1	[9, 4, 7]	20	FR1	2	R1166D
127.856	2.801	140059	PROB	2.801	n/a	n/a	-999	-1	[5, 1, 8]	14	FR1	2	R1166D
130.657	5.349	142860	PROB	5.349	n/a	n/a	-999	-1	[6, 3, 8]	17	FR1	2	R1166D
136.006	0.019	148208	STOP	n/a	n/a	n/a	-999	-1	[-999, -999, -999]	n/a	FR1	2	R1166D
136.025	0.55	148227	DISTRACT_END	n/a	n/a	n/a	-999	-1	[0, 0, 0]	n/a	FR1	2	R1166D
136.575	0.518	148777	RETRIEVAL_ORIENT	n/a	n/a	n/a	-999	-1	[0, 0, 0]	n/a	FR1	2	R1166D
137.093	30.011	149295	PRACTICE_REC_START	n/a	n/a	n/a	-999	-1	[0, 0, 0]	n/a	FR1	2	R1166D
167.104	14.729	179305	PRACTICE_REC_END	n/a	n/a	n/a	-999	-1	[0, 0, 0]	n/a	FR1	2	R1166D
181.833	0.5	194033	TRIAL	n/a	n/a	n/a	-999	1	[0, 0, 0]	n/a	FR1	2	R1166D
182.333	10.428	194533	COUNTDOWN_START	n/a	n/a	n/a	-999	1	[0, 0, 0]	n/a	FR1	2	R1166D
192.761	0.007	204960	COUNTDOWN_END	n/a	n/a	n/a	-999	1	[0, 0, 0]	n/a	FR1	2	R1166D
192.768	1.601	204967	ORIENT	n/a	n/a	n/a	-999	1	[0, 0, 0]	n/a	FR1	2	R1166D
194.369	2.1	206568	ORIENT_OFF	n/a	n/a	n/a	-999	1	[0, 0, 0]	n/a	FR1	2	R1166D
196.469	1.618	208668	WORD	n/a	wordpools/wordpool_EN.txt	CUP	1	1	[0, 0, 0]	n/a	FR1	2	R1166D
198.087	0.9	210286	WORD_OFF	n/a	n/a	CUP	1	1	[0, 0, 0]	n/a	FR1	2	R1166D
198.987	1.617	211186	WORD	n/a	wordpools/wordpool_EN.txt	STICK	2	1	[0, 0, 0]	n/a	FR1	2	R1166D
200.604	0.85	212803	WORD_OFF	n/a	n/a	STICK	2	1	[0, 0, 0]	n/a	FR1	2	R1166D
201.454	1.617	213653	WORD	n/a	wordpools/wordpool_EN.txt	POOL	3	1	[0, 0, 0]	n/a	FR1	2	R1166D
203.071	0.833	215270	WORD_OFF	n/a	n/a	POOL	3	1	[0, 0, 0]	n/a	FR1	2	R1166D
203.904	1.617	216103	WORD	n/a	wordpools/wordpool_EN.txt	LEG	4	1	[0, 0, 0]	n/a	FR1	2	R1166D
205.521	0.834	217720	WORD_OFF	n/a	n/a	LEG	4	1	[0, 0, 0]	n/a	FR1	2	R1166D
206.355	1.617	218554	WORD	n/a	wordpools/wordpool_EN.txt	GATE	5	1	[0, 0, 0]	n/a	FR1	2	R1166D
207.972	0.917	220170	WORD_OFF	n/a	n/a	GATE	5	1	[0, 0, 0]	n/a	FR1	2	R1166D
208.889	1.617	221087	WORD	n/a	wordpools/wordpool_EN.txt	TRAY	6	1	[0, 0, 0]	n/a	FR1	2	R1166D
210.506	0.933	222704	WORD_OFF	n/a	n/a	TRAY	6	1	[0, 0, 0]	n/a	FR1	2	R1166D
211.439	1.617	223637	WORD	n/a	wordpools/wordpool_EN.txt	PIPE	7	1	[0, 0, 0]	n/a	FR1	2	R1166D
213.056	0.833	225254	WORD_OFF	n/a	n/a	PIPE	7	1	[0, 0, 0]	n/a	FR1	2	R1166D
213.889	1.617	226087	WORD	n/a	wordpools/wordpool_EN.txt	YARD	8	1	[0, 0, 0]	n/a	FR1	2	R1166D
215.506	0.867	227704	WORD_OFF	n/a	n/a	YARD	8	1	[0, 0, 0]	n/a	FR1	2	R1166D
216.373	1.617	228571	WORD	n/a	wordpools/wordpool_EN.txt	TOY	9	1	[0, 0, 0]	n/a	FR1	2	R1166D
217.99	0.917	230188	WORD_OFF	n/a	n/a	TOY	9	1	[0, 0, 0]	n/a	FR1	2	R1166D
218.907	1.617	231105	WORD	n/a	wordpools/wordpool_EN.txt	ROSE	10	1	[0, 0, 0]	n/a	FR1	2	R1166D
220.524	0.983	232722	WORD_OFF	n/a	n/a	ROSE	10	1	[0, 0, 0]	n/a	FR1	2	R1166D
221.507	1.617	233705	WORD	n/a	wordpools/wordpool_EN.txt	DOOR	11	1	[0, 0, 0]	n/a	FR1	2	R1166D
223.124	0.867	235322	WORD_OFF	n/a	n/a	DOOR	11	1	[0, 0, 0]	n/a	FR1	2	R1166D
223.991	1.617	236189	WORD	n/a	wordpools/wordpool_EN.txt	CHEEK	12	1	[0, 0, 0]	n/a	FR1	2	R1166D
225.608	0.0	237805	WORD_OFF	n/a	n/a	CHEEK	12	1	[0, 0, 0]	n/a	FR1	2	R1166D
225.608	0.001	237805	DISTRACT_START	n/a	n/a	n/a	-999	1	[0, 0, 0]	n/a	FR1	2	R1166D
225.609	0.016	237806	START	n/a	n/a	n/a	-999	1	[-999, -999, -999]	n/a	FR1	2	R1166D
225.625	2.55	237822	PROB	2.55	n/a	n/a	-999	1	[5, 2, 4]	9	FR1	2	R1166D
228.175	3.001	240372	PROB	3.001	n/a	n/a	-999	1	[6, 8, 1]	15	FR1	2	R1166D
231.176	11.969	243373	PROB	11.969	n/a	n/a	-999	1	[1, 9, 5]	16	FR1	2	R1166D
243.145	3.524	255342	PROB	3.524	n/a	n/a	-999	1	[9, 4, 1]	14	FR1	2	R1166D
246.669	0.009	258865	STOP	n/a	n/a	n/a	-999	1	[-999, -999, -999]	n/a	FR1	2	R1166D
246.678	0.684	258874	DISTRACT_END	n/a	n/a	n/a	-999	1	[0, 0, 0]	n/a	FR1	2	R1166D
247.362	0.517	259558	RETRIEVAL_ORIENT	n/a	n/a	n/a	-999	1	[0, 0, 0]	n/a	FR1	2	R1166D
247.879	2.247	260075	REC_START	n/a	n/a	n/a	-999	1	[0, 0, 0]	n/a	FR1	2	R1166D
250.126	4.182	262322	REC_WORD	4.182	n/a	GATE	5	1	[0, 0, 0]	n/a	FR1	2	R1166D
254.308	10.329	266504	REC_WORD	10.329	n/a	TRAY	6	1	[0, 0, 0]	n/a	FR1	2	R1166D
264.637	13.254	276832	REC_WORD	13.254	n/a	CUP	1	1	[0, 0, 0]	n/a	FR1	2	R1166D
277.891	4.877	290086	REC_END	n/a	n/a	n/a	-999	1	[0, 0, 0]	n/a	FR1	2	R1166D
282.768	0.5	294962	TRIAL	n/a	n/a	n/a	-999	2	[0, 0, 0]	n/a	FR1	2	R1166D
283.268	10.428	295462	COUNTDOWN_START	n/a	n/a	n/a	-999	2	[0, 0, 0]	n/a	FR1	2	R1166D
293.696	0.007	305890	COUNTDOWN_END	n/a	n/a	n/a	-999	2	[0, 0, 0]	n/a	FR1	2	R1166D
293.703	1.618	305897	ORIENT	n/a	n/a	n/a	-999	2	[0, 0, 0]	n/a	FR1	2	R1166D
295.321	2.167	307515	ORIENT_OFF	n/a	n/a	n/a	-999	2	[0, 0, 0]	n/a	FR1	2	R1166D
297.488	1.617	309682	WORD	n/a	wordpools/wordpool_EN.txt	BIRD	1	2	[0, 0, 0]	n/a	FR1	2	R1166D
299.105	0.9	311299	WORD_OFF	n/a	n/a	BIRD	1	2	[0, 0, 0]	n/a	FR1	2	R1166D
300.005	1.617	312198	WORD	n/a	wordpools/wordpool_EN.txt	WORLD	2	2	[0, 0, 0]	n/a	FR1	2	R1166D
301.622	0.884	313815	WORD_OFF	n/a	n/a	WORLD	2	2	[0, 0, 0]	n/a	FR1	2	R1166D
302.506	1.617	314699	WORD	n/a	wordpools/wordpool_EN.txt	PIT	3	2	[0, 0, 0]	n/a	FR1	2	R1166D
304.123	0.866	316316	WORD_OFF	n/a	n/a	PIT	3	2	[0, 0, 0]	n/a	FR1	2	R1166D
304.989	1.617	317182	WORD	n/a	wordpools/wordpool_EN.txt	FISH	4	2	[0, 0, 0]	n/a	FR1	2	R1166D
306.606	0.784	318799	WORD_OFF	n/a	n/a	FISH	4	2	[0, 0, 0]	n/a	FR1	2	R1166D
307.39	1.617	319583	WORD	n/a	wordpools/wordpool_EN.txt	CANE	5	2	[0, 0, 0]	n/a	FR1	2	R1166D
309.007	0.983	321200	WORD_OFF	n/a	n/a	CANE	5	2	[0, 0, 0]	n/a	FR1	2	R1166D
309.99	1.617	322183	WORD	n/a	wordpools/wordpool_EN.txt	RICE	6	2	[0, 0, 0]	n/a	FR1	2	R1166D
311.607	0.85	323800	WORD_OFF	n/a	n/a	RICE	6	2	[0, 0, 0]	n/a	FR1	2	R1166D
312.457	1.617	324650	WORD	n/a	wordpools/wordpool_EN.txt	SNAKE	7	2	[0, 0, 0]	n/a	FR1	2	R1166D
314.074	0.8	326267	WORD_OFF	n/a	n/a	SNAKE	7	2	[0, 0, 0]	n/a	FR1	2	R1166D
314.874	1.617	327067	WORD	n/a	wordpools/wordpool_EN.txt	TREE	8	2	[0, 0, 0]	n/a	FR1	2	R1166D
316.491	1.001	328684	WORD_OFF	n/a	n/a	TREE	8	2	[0, 0, 0]	n/a	FR1	2	R1166D
317.492	1.617	329685	WORD	n/a	wordpools/wordpool_EN.txt	BEAN	9	2	[0, 0, 0]	n/a	FR1	2	R1166D
319.109	0.783	331301	WORD_OFF	n/a	n/a	BEAN	9	2	[0, 0, 0]	n/a	FR1	2	R1166D
319.892	1.617	332084	WORD	n/a	wordpools/wordpool_EN.txt	GRASS	10	2	[0, 0, 0]	n/a	FR1	2	R1166D
321.509	0.95	333701	WORD_OFF	n/a	n/a	GRASS	10	2	[0, 0, 0]	n/a	FR1	2	R1166D
322.459	1.617	334651	WORD	n/a	wordpools/wordpool_EN.txt	LEAF	11	2	[0, 0, 0]	n/a	FR1	2	R1166D
324.076	0.95	336268	WORD_OFF	n/a	n/a	LEAF	11	2	[0, 0, 0]	n/a	FR1	2	R1166D
325.026	1.616	337218	WORD	n/a	wordpools/wordpool_EN.txt	FRUIT	12	2	[0, 0, 0]	n/a	FR1	2	R1166D
326.642	0.0	338834	WORD_OFF	n/a	n/a	FRUIT	12	2	[0, 0, 0]	n/a	FR1	2	R1166D
326.642	0.001	338834	DISTRACT_START	n/a	n/a	n/a	-999	2	[0, 0, 0]	n/a	FR1	2	R1166D
326.643	0.016	338835	START	n/a	n/a	n/a	-999	2	[-999, -999, -999]	n/a	FR1	2	R1166D
326.659	3.151	338851	PROB	3.151	n/a	n/a	-999	2	[1, 4, 1]	6	FR1	2	R1166D
329.81	7.535	342002	PROB	7.535	n/a	n/a	-999	2	[9, 9, 7]	25	FR1	2	R1166D
337.345	4.834	349536	PROB	4.834	n/a	n/a	-999	2	[6, 9, 1]	16	FR1	2	R1166D
342.179	2.968	354370	PROB	2.968	n/a	n/a	-999	2	[7, 4, 2]	13	FR1	2	R1166D
345.147	7.779	357338	PROB	7.779	n/a	n/a	-999	2	[9, 8, 7]	24	FR1	2	R1166D
352.926	0.022	365117	STOP	n/a	n/a	n/a	-999	2	[-999, -999, -999]	n/a	FR1	2	R1166D
352.948	0.567	365139	DISTRACT_END	n/a	n/a	n/a	-999	2	[0, 0, 0]	n/a	FR1	2	R1166D
353.515	0.517	365706	RETRIEVAL_ORIENT	n/a	n/a	n/a	-999	2	[0, 0, 0]	n/a	FR1	2	R1166D
354.032	2.564	366223	REC_START	n/a	n/a	n/a	-999	2	[0, 0, 0]	n/a	FR1	2	R1166D
356.596	5.866	368786	REC_WORD	5.866	n/a	GRASS	10	2	[0, 0, 0]	n/a	FR1	2	R1166D
362.462	21.581	374652	REC_WORD	21.581	n/a	BEEF	-999	2	[0, 0, 0]	n/a	FR1	2	R1166D
384.043	5.178	396232	REC_END	n/a	n/a	n/a	-999	2	[0, 0, 0]	n/a	FR1	2	R1166D
389.221	0.5	401410	TRIAL	n/a	n/a	n/a	-999	3	[0, 0, 0]	n/a	FR1	2	R1166D
389.721	10.428	401910	COUNTDOWN_START	n/a	n/a	n/a	-999	3	[0, 0, 0]	n/a	FR1	2	R1166D
400.149	0.008	412337	COUNTDOWN_END	n/a	n/a	n/a	-999	3	[0, 0, 0]	n/a	FR1	2	R1166D
400.157	1.616	412345	ORIENT	n/a	n/a	n/a	-999	3	[0, 0, 0]	n/a	FR1	2	R1166D
401.773	2.151	413961	ORIENT_OFF	n/a	n/a	n/a	-999	3	[0, 0, 0]	n/a	FR1	2	R1166D
403.924	1.617	416112	WORD	n/a	wordpools/wordpool_EN.txt	DOCK	1	3	[0, 0, 0]	n/a	FR1	2	R1166D
405.541	0.967	417729	WORD_OFF	n/a	n/a	DOCK	1	3	[0, 0, 0]	n/a	FR1	2	R1166D
406.508	1.617	418696	WORD	n/a	wordpools/wordpool_EN.txt	EEL	2	3	[0, 0, 0]	n/a	FR1	2	R1166D
408.125	0.783	420313	WORD_OFF	n/a	n/a	EEL	2	3	[0, 0, 0]	n/a	FR1	2	R1166D
408.908	1.617	421096	WORD	n/a	wordpools/wordpool_EN.txt	MOUSE	3	3	[0, 0, 0]	n/a	FR1	2	R1166D
410.525	0.784	422713	WORD_OFF	n/a	n/a	MOUSE	3	3	[0, 0, 0]	n/a	FR1	2	R1166D
411.309	1.617	423496	WORD	n/a	wordpools/wordpool_EN.txt	NET	4	3	[0, 0, 0]	n/a	FR1	2	R1166D
412.926	0.915	425113	WORD_OFF	n/a	n/a	NET	4	3	[0, 0, 0]	n/a	FR1	2	R1166D
413.841	1.618	426028	WORD	n/a	wordpools/wordpool_EN.txt	MAZE	5	3	[0, 0, 0]	n/a	FR1	2	R1166D
415.459	0.95	427646	WORD_OFF	n/a	n/a	MAZE	5	3	[0, 0, 0]	n/a	FR1	2	R1166D
416.409	1.618	428596	WORD	n/a	wordpools/wordpool_EN.txt	SWORD	6	3	[0, 0, 0]	n/a	FR1	2	R1166D
418.027	0.966	430214	WORD_OFF	n/a	n/a	SWORD	6	3	[0, 0, 0]	n/a	FR1	2	R1166D
418.993	1.617	431180	WORD	n/a	wordpools/wordpool_EN.txt	RAT	7	3	[0, 0, 0]	n/a	FR1	2	R1166D
420.61	0.901	432797	WORD_OFF	n/a	n/a	RAT	7	3	[0, 0, 0]	n/a	FR1	2	R1166D
421.511	1.617	433698	WORD	n/a	wordpools/wordpool_EN.txt	PET	8	3	[0, 0, 0]	n/a	FR1	2	R1166D
423.128	0.983	435315	WORD_OFF	n/a	n/a	PET	8	3	[0, 0, 0]	n/a	FR1	2	R1166D
424.111	1.616	436298	WORD	n/a	wordpools/wordpool_EN.txt	WALL	9	3	[0, 0, 0]	n/a	FR1	2	R1166D
425.727	0.818	437914	WORD_OFF	n/a	n/a	WALL	9	3	[0, 0, 0]	n/a	FR1	2	R1166D
426.545	1.617	438732	WORD	n/a	wordpools/wordpool_EN.txt	SHIP	10	3	[0, 0, 0]	n/a	FR1	2	R1166D
428.162	0.8	440349	WORD_OFF	n/a	n/a	SHIP	10	3	[0, 0, 0]	n/a	FR1	2	R1166D
428.962	1.617	441149	WORD	n/a	wordpools/wordpool_EN.txt	BAT	11	3	[0, 0, 0]	n/a	FR1	2	R1166D
430.579	0.917	442765	WORD_OFF	n/a	n/a	BAT	11	3	[0, 0, 0]	n/a	FR1	2	R1166D
431.496	1.617	443682	WORD	n/a	wordpools/wordpool_EN.txt	BALL	12	3	[0, 0, 0]	n/a	FR1	2	R1166D
433.113	0.0	445299	WORD_OFF	n/a	n/a	BALL	12	3	[0, 0, 0]	n/a	FR1	2	R1166D
433.113	0.0	445299	DISTRACT_START	n/a	n/a	n/a	-999	3	[0, 0, 0]	n/a	FR1	2	R1166D
433.113	0.016	445299	START	n/a	n/a	n/a	-999	3	[-999, -999, -999]	n/a	FR1	2	R1166D
433.129	4.401	445315	PROB	4.401	n/a	n/a	-999	3	[3, 4, 2]	9	FR1	2	R1166D
437.53	4.283	449716	PROB	4.283	n/a	n/a	-999	3	[2, 8, 8]	18	FR1	2	R1166D
441.813	2.652	453999	PROB	2.652	n/a	n/a	-999	3	[9, 1, 3]	13	FR1	2	R1166D
444.465	2.784	456651	PROB	2.784	n/a	n/a	-999	3	[4, 1, 9]	14	FR1	2	R1166D
447.249	6.717	459435	PROB	6.717	n/a	n/a	-999	3	[3, 5, 8]	15	FR1	2	R1166D
453.966	0.017	466151	STOP	n/a	n/a	n/a	-999	3	[-999, -999, -999]	n/a	FR1	2	R1166D
453.983	0.567	466168	DISTRACT_END	n/a	n/a	n/a	-999	3	[0, 0, 0]	n/a	FR1	2	R1166D
454.55	0.518	466735	RETRIEVAL_ORIENT	n/a	n/a	n/a	-999	3	[0, 0, 0]	n/a	FR1	2	R1166D
455.068	2.161	467253	REC_START	n/a	n/a	n/a	-999	3	[0, 0, 0]	n/a	FR1	2	R1166D
457.229	1.591	469414	REC_WORD	1.591	n/a	BAT	11	3	[0, 0, 0]	n/a	FR1	2	R1166D
458.82	26.259	471005	REC_WORD	26.259	n/a	RAT	7	3	[0, 0, 0]	n/a	FR1	2	R1166D
485.079	137.151	497262	REC_END	n/a	n/a	n/a	-999	3	[0, 0, 0]	n/a	FR1	2	R1166D
622.23	0.5	634406	TRIAL	n/a	n/a	n/a	-999	4	[0, 0, 0]	n/a	FR1	2	R1166D
622.73	10.428	634906	COUNTDOWN_START	n/a	n/a	n/a	-999	4	[0, 0, 0]	n/a	FR1	2	R1166D
633.158	0.008	645334	COUNTDOWN_END	n/a	n/a	n/a	-999	4	[0, 0, 0]	n/a	FR1	2	R1166D
633.166	1.616	645342	ORIENT	n/a	n/a	n/a	-999	4	[0, 0, 0]	n/a	FR1	2	R1166D
634.782	2.067	646957	ORIENT_OFF	n/a	n/a	n/a	-999	4	[0, 0, 0]	n/a	FR1	2	R1166D
636.849	1.618	649024	WORD	n/a	wordpools/wordpool_EN.txt	SHIRT	1	4	[0, 0, 0]	n/a	FR1	2	R1166D
638.467	0.783	650642	WORD_OFF	n/a	n/a	SHIRT	1	4	[0, 0, 0]	n/a	FR1	2	R1166D
639.25	1.616	651425	WORD	n/a	wordpools/wordpool_EN.txt	RIB	2	4	[0, 0, 0]	n/a	FR1	2	R1166D
640.866	0.934	653041	WORD_OFF	n/a	n/a	RIB	2	4	[0, 0, 0]	n/a	FR1	2	R1166D
641.8	1.617	653975	WORD	n/a	wordpools/wordpool_EN.txt	MULE	3	4	[0, 0, 0]	n/a	FR1	2	R1166D
643.417	0.951	655592	WORD_OFF	n/a	n/a	MULE	3	4	[0, 0, 0]	n/a	FR1	2	R1166D
644.368	1.617	656543	WORD	n/a	wordpools/wordpool_EN.txt	CART	4	4	[0, 0, 0]	n/a	FR1	2	R1166D
645.985	0.866	658160	WORD_OFF	n/a	n/a	CART	4	4	[0, 0, 0]	n/a	FR1	2	R1166D
646.851	1.617	659026	WORD	n/a	wordpools/wordpool_EN.txt	FOG	5	4	[0, 0, 0]	n/a	FR1	2	R1166D
648.468	0.917	660643	WORD_OFF	n/a	n/a	FOG	5	4	[0, 0, 0]	n/a	FR1	2	R1166D
649.385	1.617	661560	WORD	n/a	wordpools/wordpool_EN.txt	SNOW	6	4	[0, 0, 0]	n/a	FR1	2	R1166D
651.002	0.884	663177	WORD_OFF	n/a	n/a	SNOW	6	4	[0, 0, 0]	n/a	FR1	2	R1166D
651.886	1.617	664060	WORD	n/a	wordpools/wordpool_EN.txt	JEEP	7	4	[0, 0, 0]	n/a	FR1	2	R1166D
653.503	0.817	665677	WORD_OFF	n/a	n/a	JEEP	7	4	[0, 0, 0]	n/a	FR1	2	R1166D
654.32	1.617	666494	WORD	n/a	wordpools/wordpool_EN.txt	BOOT	8	4	[0, 0, 0]	n/a	FR1	2	R1166D
655.937	1.0	668111	WORD_OFF	n/a	n/a	BOOT	8	4	[0, 0, 0]	n/a	FR1	2	R1166D
656.937	1.617	669111	WORD	n/a	wordpools/wordpool_EN.txt	BARN	9	4	[0, 0, 0]	n/a	FR1	2	R1166D
658.554	1.0	670728	WORD_OFF	n/a	n/a	BARN	9	4	[0, 0, 0]	n/a	FR1	2	R1166D
659.554	1.617	671728	WORD	n/a	wordpools/wordpool_EN.txt	BOY	10	4	[0, 0, 0]	n/a	FR1	2	R1166D
661.171	0.967	673345	WORD_OFF	n/a	n/a	BOY	10	4	[0, 0, 0]	n/a	FR1	2	R1166D
662.138	1.616	674312	WORD	n/a	wordpools/wordpool_EN.txt	SKY	11	4	[0, 0, 0]	n/a	FR1	2	R1166D
663.754	0.867	675928	WORD_OFF	n/a	n/a	SKY	11	4	[0, 0, 0]	n/a	FR1	2	R1166D
664.621	1.617	676795	WORD	n/a	wordpools/wordpool_EN.txt	CHIN	12	4	[0, 0, 0]	n/a	FR1	2	R1166D
666.238	0.0	678412	DISTRACT_START	n/a	n/a	n/a	-999	4	[0, 0, 0]	n/a	FR1	2	R1166D
666.238	0.001	678412	WORD_OFF	n/a	n/a	CHIN	12	4	[0, 0, 0]	n/a	FR1	2	R1166D
666.239	0.016	678413	START	n/a	n/a	n/a	-999	4	[-999, -999, -999]	n/a	FR1	2	R1166D
666.255	3.416	678429	PROB	3.416	n/a	n/a	-999	4	[8, 5, 1]	14	FR1	2	R1166D
669.671	9.636	681845	PROB	9.636	n/a	n/a	-999	4	[7, 7, 6]	20	FR1	2	R1166D
679.307	2.618	691480	PROB	2.618	n/a	n/a	-999	4	[2, 1, 3]	6	FR1	2	R1166D
681.925	5.056	694098	PROB	5.056	n/a	n/a	-999	4	[4, 1, 3]	8	FR1	2	R1166D
686.981	0.011	699154	STOP	n/a	n/a	n/a	-999	4	[-999, -999, -999]	n/a	FR1	2	R1166D
686.992	0.55	699165	DISTRACT_END	n/a	n/a	n/a	-999	4	[0, 0, 0]	n/a	FR1	2	R1166D
687.542	0.518	699715	RETRIEVAL_ORIENT	n/a	n/a	n/a	-999	4	[0, 0, 0]	n/a	FR1	2	R1166D
688.06	3.071	700233	REC_START	n/a	n/a	n/a	-999	4	[0, 0, 0]	n/a	FR1	2	R1166D
691.131	3.684	703303	REC_WORD	3.684	n/a	SKY	11	4	[0, 0, 0]	n/a	FR1	2	R1166D
694.815	8.529	706987	REC_WORD	8.529	n/a	ARM	-999	4	[0, 0, 0]	n/a	FR1	2	R1166D
703.344	14.725	715516	REC_WORD	14.725	n/a	SHIRT	1	4	[0, 0, 0]	n/a	FR1	2	R1166D
718.069	4.645	730240	REC_END	n/a	n/a	n/a	-999	4	[0, 0, 0]	n/a	FR1	2	R1166D
722.714	0.5	734885	TRIAL	n/a	n/a	n/a	-999	5	[0, 0, 0]	n/a	FR1	2	R1166D
723.214	10.428	735385	COUNTDOWN_START	n/a	n/a	n/a	-999	5	[0, 0, 0]	n/a	FR1	2	R1166D
733.642	0.008	745812	COUNTDOWN_END	n/a	n/a	n/a	-999	5	[0, 0, 0]	n/a	FR1	2	R1166D
733.65	1.618	745820	ORIENT	n/a	n/a	n/a	-999	5	[0, 0, 0]	n/a	FR1	2	R1166D
735.268	2.25	747438	ORIENT_OFF	n/a	n/a	n/a	-999	5	[0, 0, 0]	n/a	FR1	2	R1166D
737.518	1.617	749688	WORD	n/a	wordpools/wordpool_EN.txt	BENCH	1	5	[0, 0, 0]	n/a	FR1	2	R1166D
739.135	0.933	751305	WORD_OFF	n/a	n/a	BENCH	1	5	[0, 0, 0]	n/a	FR1	2	R1166D
740.068	1.616	752238	WORD	n/a	wordpools/wordpool_EN.txt	DOLL	2	5	[0, 0, 0]	n/a	FR1	2	R1166D
741.684	0.902	753854	WORD_OFF	n/a	n/a	DOLL	2	5	[0, 0, 0]	n/a	FR1	2	R1166D
742.586	1.617	754756	WORD	n/a	wordpools/wordpool_EN.txt	GOLD	3	5	[0, 0, 0]	n/a	FR1	2	R1166D
744.203	0.766	756373	WORD_OFF	n/a	n/a	GOLD	3	5	[0, 0, 0]	n/a	FR1	2	R1166D
744.969	1.617	757138	WORD	n/a	wordpools/wordpool_EN.txt	SLIME	4	5	[0, 0, 0]	n/a	FR1	2	R1166D
746.586	0.817	758755	WORD_OFF	n/a	n/a	SLIME	4	5	[0, 0, 0]	n/a	FR1	2	R1166D
747.403	1.617	759572	WORD	n/a	wordpools/wordpool_EN.txt	THREAD	5	5	[0, 0, 0]	n/a	FR1	2	R1166D
749.02	0.984	761189	WORD_OFF	n/a	n/a	THREAD	5	5	[0, 0, 0]	n/a	FR1	2	R1166D
750.004	1.617	762173	WORD	n/a	wordpools/wordpool_EN.txt	GEESE	6	5	[0, 0, 0]	n/a	FR1	2	R1166D
751.621	0.866	763790	WORD_OFF	n/a	n/a	GEESE	6	5	[0, 0, 0]	n/a	FR1	2	R1166D
752.487	1.617	764656	WORD	n/a	wordpools/wordpool_EN.txt	DESK	7	5	[0, 0, 0]	n/a	FR1	2	R1166D
754.104	0.967	766273	WORD_OFF	n/a	n/a	DESK	7	5	[0, 0, 0]	n/a	FR1	2	R1166D
755.071	1.616	767240	WORD	n/a	wordpools/wordpool_EN.txt	SEAT	8	5	[0, 0, 0]	n/a	FR1	2	R1166D
756.687	0.801	768856	WORD_OFF	n/a	n/a	SEAT	8	5	[0, 0, 0]	n/a	FR1	2	R1166D
757.488	1.617	769657	WORD	n/a	wordpools/wordpool_EN.txt	STREET	9	5	[0, 0, 0]	n/a	FR1	2	R1166D
759.105	0.917	771274	WORD_OFF	n/a	n/a	STREET	9	5	[0, 0, 0]	n/a	FR1	2	R1166D
760.022	1.617	772191	WORD	n/a	wordpools/wordpool_EN.txt	HAT	10	5	[0, 0, 0]	n/a	FR1	2	R1166D
761.639	0.934	773808	WORD_OFF	n/a	n/a	HAT	10	5	[0, 0, 0]	n/a	FR1	2	R1166D
762.573	1.616	774742	WORD	n/a	wordpools/wordpool_EN.txt	STOOL	11	5	[0, 0, 0]	n/a	FR1	2	R1166D
764.189	0.901	776357	WORD_OFF	n/a	n/a	STOOL	11	5	[0, 0, 0]	n/a	FR1	2	R1166D
765.09	1.616	777258	WORD	n/a	wordpools/wordpool_EN.txt	SHOE	12	5	[0, 0, 0]	n/a	FR1	2	R1166D
766.706	0.0	778874	WORD_OFF	n/a	n/a	SHOE	12	5	[0, 0, 0]	n/a	FR1	2	R1166D
766.706	0.0	778874	DISTRACT_START	n/a	n/a	n/a	-999	5	[0, 0, 0]	n/a	FR1	2	R1166D
766.706	0.016	778874	START	n/a	n/a	n/a	-999	5	[-999, -999, -999]	n/a	FR1	2	R1166D
766.722	4.535	778890	PROB	4.535	n/a	n/a	-999	5	[4, 5, 7]	16	FR1	2	R1166D
771.257	2.968	783425	PROB	2.968	n/a	n/a	-999	5	[7, 5, 1]	13	FR1	2	R1166D
774.225	17.389	786393	PROB	17.389	n/a	n/a	-999	5	[7, 6, 6]	21	FR1	2	R1166D
791.614	0.014	803781	STOP	n/a	n/a	n/a	-999	5	[-999, -999, -999]	n/a	FR1	2	R1166D
791.628	0.667	803795	DISTRACT_END	n/a	n/a	n/a	-999	5	[0, 0, 0]	n/a	FR1	2	R1166D
792.295	0.516	804462	RETRIEVAL_ORIENT	n/a	n/a	n/a	-999	5	[0, 0, 0]	n/a	FR1	2	R1166D
792.811	30.0	804978	REC_START	n/a	n/a	n/a	-999	5	[0, 0, 0]	n/a	FR1	2	R1166D
822.811	0.011	834976	REC_WORD_VV	0.011	n/a	<>	-999	5	[0, 0, 0]	n/a	FR1	2	R1166D
822.822	5.346	834987	REC_END	n/a	n/a	n/a	-999	5	[0, 0, 0]	n/a	FR1	2	R1166D
828.168	0.5	840333	TRIAL	n/a	n/a	n/a	-999	6	[0, 0, 0]	n/a	FR1	2	R1166D
828.668	10.428	840833	COUNTDOWN_START	n/a	n/a	n/a	-999	6	[0, 0, 0]	n/a	FR1	2	R1166D
839.096	0.007	851260	COUNTDOWN_END	n/a	n/a	n/a	-999	6	[0, 0, 0]	n/a	FR1	2	R1166D
839.103	1.616	851267	ORIENT	n/a	n/a	n/a	-999	6	[0, 0, 0]	n/a	FR1	2	R1166D
840.719	1.95	852883	ORIENT_OFF	n/a	n/a	n/a	-999	6	[0, 0, 0]	n/a	FR1	2	R1166D
842.669	1.618	854833	WORD	n/a	wordpools/wordpool_EN.txt	HOLE	1	6	[0, 0, 0]	n/a	FR1	2	R1166D
844.287	0.951	856451	WORD_OFF	n/a	n/a	HOLE	1	6	[0, 0, 0]	n/a	FR1	2	R1166D
845.238	1.616	857402	WORD	n/a	wordpools/wordpool_EN.txt	HOOK	2	6	[0, 0, 0]	n/a	FR1	2	R1166D
846.854	0.767	859018	WORD_OFF	n/a	n/a	HOOK	2	6	[0, 0, 0]	n/a	FR1	2	R1166D
847.621	1.617	859785	WORD	n/a	wordpools/wordpool_EN.txt	HILL	3	6	[0, 0, 0]	n/a	FR1	2	R1166D
849.238	0.951	861402	WORD_OFF	n/a	n/a	HILL	3	6	[0, 0, 0]	n/a	FR1	2	R1166D
850.189	1.615	862353	WORD	n/a	wordpools/wordpool_EN.txt	BRUSH	4	6	[0, 0, 0]	n/a	FR1	2	R1166D
851.804	0.802	863968	WORD_OFF	n/a	n/a	BRUSH	4	6	[0, 0, 0]	n/a	FR1	2	R1166D
852.606	1.616	864770	WORD	n/a	wordpools/wordpool_EN.txt	PIN	5	6	[0, 0, 0]	n/a	FR1	2	R1166D
854.222	0.867	866386	WORD_OFF	n/a	n/a	PIN	5	6	[0, 0, 0]	n/a	FR1	2	R1166D
855.089	1.616	867253	WORD	n/a	wordpools/wordpool_EN.txt	PEA	6	6	[0, 0, 0]	n/a	FR1	2	R1166D
856.705	0.768	868868	WORD_OFF	n/a	n/a	PEA	6	6	[0, 0, 0]	n/a	FR1	2	R1166D
857.473	1.617	869636	WORD	n/a	wordpools/wordpool_EN.txt	VINE	7	6	[0, 0, 0]	n/a	FR1	2	R1166D
859.09	0.783	871253	WORD_OFF	n/a	n/a	VINE	7	6	[0, 0, 0]	n/a	FR1	2	R1166D
859.873	1.617	872036	WORD	n/a	wordpools/wordpool_EN.txt	DITCH	8	6	[0, 0, 0]	n/a	FR1	2	R1166D
861.49	0.767	873653	WORD_OFF	n/a	n/a	DITCH	8	6	[0, 0, 0]	n/a	FR1	2	R1166D
862.257	1.616	874420	WORD	n/a	wordpools/wordpool_EN.txt	PALM	9	6	[0, 0, 0]	n/a	FR1	2	R1166D
863.873	0.784	876036	WORD_OFF	n/a	n/a	PALM	9	6	[0, 0, 0]	n/a	FR1	2	R1166D
864.657	1.618	876820	WORD	n/a	wordpools/wordpool_EN.txt	FOX	10	6	[0, 0, 0]	n/a	FR1	2	R1166D
866.275	1.0	878438	WORD_OFF	n/a	n/a	FOX	10	6	[0, 0, 0]	n/a	FR1	2	R1166D
867.275	1.617	879438	WORD	n/a	wordpools/wordpool_EN.txt	SUN	11	6	[0, 0, 0]	n/a	FR1	2	R1166D
868.892	0.849	881055	WORD_OFF	n/a	n/a	SUN	11	6	[0, 0, 0]	n/a	FR1	2	R1166D
869.741	1.601	881904	WORD	n/a	wordpools/wordpool_EN.txt	CALF	12	6	[0, 0, 0]	n/a	FR1	2	R1166D
871.342	0.0	883505	WORD_OFF	n/a	n/a	CALF	12	6	[0, 0, 0]	n/a	FR1	2	R1166D
871.342	0.001	883505	DISTRACT_START	n/a	n/a	n/a	-999	6	[0, 0, 0]	n/a	FR1	2	R1166D
871.343	0.016	883506	START	n/a	n/a	n/a	-999	6	[-999, -999, -999]	n/a	FR1	2	R1166D
871.359	3.601	883522	PROB	3.601	n/a	n/a	-999	6	[6, 7, 2]	15	FR1	2	R1166D
874.96	2.766	887122	PROB	2.766	n/a	n/a	-999	6	[2, 5, 4]	11	FR1	2	R1166D
877.726	4.885	889888	PROB	4.885	n/a	n/a	-999	6	[3, 9, 6]	18	FR1	2	R1166D
882.611	3.801	894773	PROB	3.801	n/a	n/a	-999	6	[7, 8, 4]	19	FR1	2	R1166D
886.412	7.352	898574	PROB	7.352	n/a	n/a	-999	6	[9, 7, 8]	24	FR1	2	R1166D
893.764	0.015	905925	STOP	n/a	n/a	n/a	-999	6	[-999, -999, -999]	n/a	FR1	2	R1166D
893.779	0.617	905940	DISTRACT_END	n/a	n/a	n/a	-999	6	[0, 0, 0]	n/a	FR1	2	R1166D
894.396	0.518	906557	RETRIEVAL_ORIENT	n/a	n/a	n/a	-999	6	[0, 0, 0]	n/a	FR1	2	R1166D
894.914	9.016	907075	REC_START	n/a	n/a	n/a	-999	6	[0, 0, 0]	n/a	FR1	2	R1166D
903.93	6.057	916091	REC_WORD	6.057	n/a	PEA	6	6	[0, 0, 0]	n/a	FR1	2	R1166D
909.987	14.938	922148	REC_WORD	14.938	n/a	VINE	7	6	[0, 0, 0]	n/a	FR1	2	R1166D
924.925	4.86	937085	REC_END	n/a	n/a	n/a	-999	6	[0, 0, 0]	n/a	FR1	2	R1166D
929.785	0.5	941945	TRIAL	n/a	n/a	n/a	-999	7	[0, 0, 0]	n/a	FR1	2	R1166D
930.285	10.428	942444	COUNTDOWN_START	n/a	n/a	n/a	-999	7	[0, 0, 0]	n/a	FR1	2	R1166D
940.713	0.008	952872	COUNTDOWN_END	n/a	n/a	n/a	-999	7	[0, 0, 0]	n/a	FR1	2	R1166D
940.721	1.618	952880	ORIENT	n/a	n/a	n/a	-999	7	[0, 0, 0]	n/a	FR1	2	R1166D
942.339	2.033	954498	ORIENT_OFF	n/a	n/a	n/a	-999	7	[0, 0, 0]	n/a	FR1	2	R1166D
944.372	1.617	956531	WORD	n/a	wordpools/wordpool_EN.txt	BOMB	1	7	[0, 0, 0]	n/a	FR1	2	R1166D
945.989	0.766	958148	WORD_OFF	n/a	n/a	BOMB	1	7	[0, 0, 0]	n/a	FR1	2	R1166D
946.755	1.618	958914	WORD	n/a	wordpools/wordpool_EN.txt	SWAMP	2	7	[0, 0, 0]	n/a	FR1	2	R1166D
948.373	0.783	960532	WORD_OFF	n/a	n/a	SWAMP	2	7	[0, 0, 0]	n/a	FR1	2	R1166D
949.156	1.616	961314	WORD	n/a	wordpools/wordpool_EN.txt	PEARL	3	7	[0, 0, 0]	n/a	FR1	2	R1166D
950.772	0.835	962930	WORD_OFF	n/a	n/a	PEARL	3	7	[0, 0, 0]	n/a	FR1	2	R1166D
951.607	1.617	963765	WORD	n/a	wordpools/wordpool_EN.txt	SPONGE	4	7	[0, 0, 0]	n/a	FR1	2	R1166D
953.224	0.767	965382	WORD_OFF	n/a	n/a	SPONGE	4	7	[0, 0, 0]	n/a	FR1	2	R1166D
953.991	1.617	966149	WORD	n/a	wordpools/wordpool_EN.txt	KITE	5	7	[0, 0, 0]	n/a	FR1	2	R1166D
955.608	0.966	967766	WORD_OFF	n/a	n/a	KITE	5	7	[0, 0, 0]	n/a	FR1	2	R1166D
956.574	1.617	968732	WORD	n/a	wordpools/wordpool_EN.txt	BOARD	6	7	[0, 0, 0]	n/a	FR1	2	R1166D
958.191	0.817	970349	WORD_OFF	n/a	n/a	BOARD	6	7	[0, 0, 0]	n/a	FR1	2	R1166D
959.008	1.617	971166	WORD	n/a	wordpools/wordpool_EN.txt	SOUP	7	7	[0, 0, 0]	n/a	FR1	2	R1166D
960.625	0.867	972783	WORD_OFF	n/a	n/a	SOUP	7	7	[0, 0, 0]	n/a	FR1	2	R1166D
961.492	1.617	973650	WORD	n/a	wordpools/wordpool_EN.txt	STAR	8	7	[0, 0, 0]	n/a	FR1	2	R1166D
963.109	0.783	975267	WORD_OFF	n/a	n/a	STAR	8	7	[0, 0, 0]	n/a	FR1	2	R1166D
963.892	1.617	976050	WORD	n/a	wordpools/wordpool_EN.txt	LAKE	9	7	[0, 0, 0]	n/a	FR1	2	R1166D
965.509	0.884	977667	WORD_OFF	n/a	n/a	LAKE	9	7	[0, 0, 0]	n/a	FR1	2	R1166D
966.393	1.617	978551	WORD	n/a	wordpools/wordpool_EN.txt	CLOUD	10	7	[0, 0, 0]	n/a	FR1	2	R1166D
968.01	0.799	980167	WORD_OFF	n/a	n/a	CLOUD	10	7	[0, 0, 0]	n/a	FR1	2	R1166D
968.809	1.601	980966	WORD	n/a	wordpools/wordpool_EN.txt	SHRIMP	11	7	[0, 0, 0]	n/a	FR1	2	R1166D
970.41	0.767	982567	WORD_OFF	n/a	n/a	SHRIMP	11	7	[0, 0, 0]	n/a	FR1	2	R1166D
971.177	1.616	983334	WORD	n/a	wordpools/wordpool_EN.txt	BOAT	12	7	[0, 0, 0]	n/a	FR1	2	R1166D
972.793	0.0	984950	WORD_OFF	n/a	n/a	BOAT	12	7	[0, 0, 0]	n/a	FR1	2	R1166D
972.793	0.001	984950	DISTRACT_START	n/a	n/a	n/a	-999	7	[0, 0, 0]	n/a	FR1	2	R1166D
972.794	0.016	984951	START	n/a	n/a	n/a	-999	7	[-999, -999, -999]	n/a	FR1	2	R1166D
972.81	3.785	984967	PROB	3.785	n/a	n/a	-999	7	[4, 6, 6]	16	FR1	2	R1166D
976.595	4.1	988752	PROB	4.1	n/a	n/a	-999	7	[9, 9, 7]	25	FR1	2	R1166D
980.695	5.117	992852	PROB	5.117	n/a	n/a	-999	7	[9, 9, 4]	22	FR1	2	R1166D
985.812	3.618	997968	PROB	3.618	n/a	n/a	-999	7	[3, 4, 7]	14	FR1	2	R1166D
989.43	2.684	1001586	PROB	2.684	n/a	n/a	-999	7	[5, 1, 7]	13	FR1	2	R1166D
992.114	3.012	1004270	PROB	3.012	n/a	n/a	-999	7	[7, 8, 1]	16	FR1	2	R1166D
995.126	0.022	1007282	STOP	n/a	n/a	n/a	-999	7	[-999, -999, -999]	n/a	FR1	2	R1166D
995.148	0.616	1007304	DISTRACT_END	n/a	n/a	n/a	-999	7	[0, 0, 0]	n/a	FR1	2	R1166D
995.764	0.518	1007920	RETRIEVAL_ORIENT	n/a	n/a	n/a	-999	7	[0, 0, 0]	n/a	FR1	2	R1166D
996.282	6.788	1008438	REC_START	n/a	n/a	n/a	-999	7	[0, 0, 0]	n/a	FR1	2	R1166D
1003.07	5.02	1015226	REC_WORD	5.02	n/a	SWAMP	2	7	[0, 0, 0]	n/a	FR1	2	R1166D
1008.09	18.203	1020245	REC_WORD	18.203	n/a	BOMB	1	7	[0, 0, 0]	n/a	FR1	2	R1166D
1026.293	4.544	1038447	REC_END	n/a	n/a	n/a	-999	7	[0, 0, 0]	n/a	FR1	2	R1166D
1030.837	0.5	1042991	TRIAL	n/a	n/a	n/a	-999	8	[0, 0, 0]	n/a	FR1	2	R1166D
1031.337	10.428	1043491	COUNTDOWN_START	n/a	n/a	n/a	-999	8	[0, 0, 0]	n/a	FR1	2	R1166D
1041.765	0.007	1053918	COUNTDOWN_END	n/a	n/a	n/a	-999	8	[0, 0, 0]	n/a	FR1	2	R1166D
1041.772	1.618	1053925	ORIENT	n/a	n/a	n/a	-999	8	[0, 0, 0]	n/a	FR1	2	R1166D
1043.39	1.934	1055543	ORIENT_OFF	n/a	n/a	n/a	-999	8	[0, 0, 0]	n/a	FR1	2	R1166D
1045.324	1.617	1057477	WORD	n/a	wordpools/wordpool_EN.txt	TAIL	1	8	[0, 0, 0]	n/a	FR1	2	R1166D
1046.941	0.916	1059094	WORD_OFF	n/a	n/a	TAIL	1	8	[0, 0, 0]	n/a	FR1	2	R1166D
1047.857	1.618	1060010	WORD	n/a	wordpools/wordpool_EN.txt	COW	2	8	[0, 0, 0]	n/a	FR1	2	R1166D
1049.475	0.933	1061628	WORD_OFF	n/a	n/a	COW	2	8	[0, 0, 0]	n/a	FR1	2	R1166D
1050.408	1.617	1062561	WORD	n/a	wordpools/wordpool_EN.txt	FUR	3	8	[0, 0, 0]	n/a	FR1	2	R1166D
1052.025	1.0	1064178	WORD_OFF	n/a	n/a	FUR	3	8	[0, 0, 0]	n/a	FR1	2	R1166D
1053.025	1.616	1065178	WORD	n/a	wordpools/wordpool_EN.txt	DOG	4	8	[0, 0, 0]	n/a	FR1	2	R1166D
1054.641	0.835	1066794	WORD_OFF	n/a	n/a	DOG	4	8	[0, 0, 0]	n/a	FR1	2	R1166D
1055.476	1.617	1067629	WORD	n/a	wordpools/wordpool_EN.txt	STRAW	5	8	[0, 0, 0]	n/a	FR1	2	R1166D
1057.093	0.817	1069246	WORD_OFF	n/a	n/a	STRAW	5	8	[0, 0, 0]	n/a	FR1	2	R1166D
1057.91	1.616	1070063	WORD	n/a	wordpools/wordpool_EN.txt	CORN	6	8	[0, 0, 0]	n/a	FR1	2	R1166D
1059.526	0.784	1071679	WORD_OFF	n/a	n/a	CORN	6	8	[0, 0, 0]	n/a	FR1	2	R1166D
1060.31	1.617	1072462	WORD	n/a	wordpools/wordpool_EN.txt	WEED	7	8	[0, 0, 0]	n/a	FR1	2	R1166D
1061.927	0.949	1074079	WORD_OFF	n/a	n/a	WEED	7	8	[0, 0, 0]	n/a	FR1	2	R1166D
1062.876	1.618	1075028	WORD	n/a	wordpools/wordpool_EN.txt	MUD	8	8	[0, 0, 0]	n/a	FR1	2	R1166D
1064.494	1.0	1076646	WORD_OFF	n/a	n/a	MUD	8	8	[0, 0, 0]	n/a	FR1	2	R1166D
1065.494	1.617	1077646	WORD	n/a	wordpools/wordpool_EN.txt	GOAT	9	8	[0, 0, 0]	n/a	FR1	2	R1166D
1067.111	0.934	1079263	WORD_OFF	n/a	n/a	GOAT	9	8	[0, 0, 0]	n/a	FR1	2	R1166D
1068.045	1.616	1080197	WORD	n/a	wordpools/wordpool_EN.txt	CLIFF	10	8	[0, 0, 0]	n/a	FR1	2	R1166D
1069.661	0.851	1081813	WORD_OFF	n/a	n/a	CLIFF	10	8	[0, 0, 0]	n/a	FR1	2	R1166D
1070.512	1.617	1082664	WORD	n/a	wordpools/wordpool_EN.txt	CAVE	11	8	[0, 0, 0]	n/a	FR1	2	R1166D
1072.129	0.983	1084281	WORD_OFF	n/a	n/a	CAVE	11	8	[0, 0, 0]	n/a	FR1	2	R1166D
1073.112	1.616	1085264	WORD	n/a	wordpools/wordpool_EN.txt	LAMB	12	8	[0, 0, 0]	n/a	FR1	2	R1166D
1074.728	0.0	1086880	WORD_OFF	n/a	n/a	LAMB	12	8	[0, 0, 0]	n/a	FR1	2	R1166D
1074.728	0.001	1086880	DISTRACT_START	n/a	n/a	n/a	-999	8	[0, 0, 0]	n/a	FR1	2	R1166D
1074.729	0.016	1086881	START	n/a	n/a	n/a	-999	8	[-999, -999, -999]	n/a	FR1	2	R1166D
1074.745	3.001	1086897	PROB	3.001	n/a	n/a	-999	8	[6, 2, 1]	9	FR1	2	R1166D
1077.746	3.435	1089898	PROB	3.435	n/a	n/a	-999	8	[8, 1, 6]	15	FR1	2	R1166D
1081.181	4.033	1093332	PROB	4.033	n/a	n/a	-999	8	[5, 6, 8]	19	FR1	2	R1166D
1085.214	3.168	1097365	PROB	3.168	n/a	n/a	-999	8	[7, 3, 7]	17	FR1	2	R1166D
1088.382	5.167	1100533	PROB	5.167	n/a	n/a	-999	8	[8, 7, 3]	18	FR1	2	R1166D
1093.549	2.848	1105700	PROB	2.848	n/a	n/a	-999	8	[4, 1, 7]	12	FR1	2	R1166D
1096.397	0.019	1108548	STOP	n/a	n/a	n/a	-999	8	[-999, -999, -999]	n/a	FR1	2	R1166D
1096.416	0.534	1108567	DISTRACT_END	n/a	n/a	n/a	-999	8	[0, 0, 0]	n/a	FR1	2	R1166D
1096.95	0.517	1109100	RETRIEVAL_ORIENT	n/a	n/a	n/a	-999	8	[0, 0, 0]	n/a	FR1	2	R1166D
1097.467	2.494	1109617	REC_START	n/a	n/a	n/a	-999	8	[0, 0, 0]	n/a	FR1	2	R1166D
1099.961	6.274	1112111	REC_WORD	6.274	n/a	LEAF	-999	8	[0, 0, 0]	n/a	FR1	2	R1166D
1106.235	15.878	1118385	REC_WORD_VV	15.878	n/a	<>	-999	8	[0, 0, 0]	n/a	FR1	2	R1166D
1122.113	5.366	1134262	REC_WORD	5.366	n/a	MUD	8	8	[0, 0, 0]	n/a	FR1	2	R1166D
1127.479	5.161	1139628	REC_END	n/a	n/a	n/a	-999	8	[0, 0, 0]	n/a	FR1	2	R1166D
1132.64	0.5	1144789	TRIAL	n/a	n/a	n/a	-999	9	[0, 0, 0]	n/a	FR1	2	R1166D
1133.14	10.428	1145289	COUNTDOWN_START	n/a	n/a	n/a	-999	9	[0, 0, 0]	n/a	FR1	2	R1166D
1143.568	0.007	1155716	COUNTDOWN_END	n/a	n/a	n/a	-999	9	[0, 0, 0]	n/a	FR1	2	R1166D
1143.575	1.617	1155723	ORIENT	n/a	n/a	n/a	-999	9	[0, 0, 0]	n/a	FR1	2	R1166D
1145.192	2.117	1157340	ORIENT_OFF	n/a	n/a	n/a	-999	9	[0, 0, 0]	n/a	FR1	2	R1166D
1147.309	1.617	1159457	WORD	n/a	wordpools/wordpool_EN.txt	SHIELD	1	9	[0, 0, 0]	n/a	FR1	2	R1166D
1148.926	0.916	1161074	WORD_OFF	n/a	n/a	SHIELD	1	9	[0, 0, 0]	n/a	FR1	2	R1166D
1149.842	1.618	1161990	WORD	n/a	wordpools/wordpool_EN.txt	STORM	2	9	[0, 0, 0]	n/a	FR1	2	R1166D
1151.46	0.817	1163608	WORD_OFF	n/a	n/a	STORM	2	9	[0, 0, 0]	n/a	FR1	2	R1166D
1152.277	1.617	1164425	WORD	n/a	wordpools/wordpool_EN.txt	POLE	3	9	[0, 0, 0]	n/a	FR1	2	R1166D
1153.894	0.849	1166041	WORD_OFF	n/a	n/a	POLE	3	9	[0, 0, 0]	n/a	FR1	2	R1166D
1154.743	1.601	1166890	WORD	n/a	wordpools/wordpool_EN.txt	MOON	4	9	[0, 0, 0]	n/a	FR1	2	R1166D
1156.344	0.917	1168491	WORD_OFF	n/a	n/a	MOON	4	9	[0, 0, 0]	n/a	FR1	2	R1166D
1157.261	1.616	1169408	WORD	n/a	wordpools/wordpool_EN.txt	OAK	5	9	[0, 0, 0]	n/a	FR1	2	R1166D
1158.877	0.95	1171024	WORD_OFF	n/a	n/a	OAK	5	9	[0, 0, 0]	n/a	FR1	2	R1166D
1159.827	1.618	1171974	WORD	n/a	wordpools/wordpool_EN.txt	LAND	6	9	[0, 0, 0]	n/a	FR1	2	R1166D
1161.445	0.833	1173592	WORD_OFF	n/a	n/a	LAND	6	9	[0, 0, 0]	n/a	FR1	2	R1166D
1162.278	1.618	1174425	WORD	n/a	wordpools/wordpool_EN.txt	FLAG	7	9	[0, 0, 0]	n/a	FR1	2	R1166D
1163.896	0.815	1176043	WORD_OFF	n/a	n/a	FLAG	7	9	[0, 0, 0]	n/a	FR1	2	R1166D
1164.711	1.618	1176858	WORD	n/a	wordpools/wordpool_EN.txt	RAIN	8	9	[0, 0, 0]	n/a	FR1	2	R1166D
1166.329	0.817	1178476	WORD_OFF	n/a	n/a	RAIN	8	9	[0, 0, 0]	n/a	FR1	2	R1166D
1167.146	1.616	1179293	WORD	n/a	wordpools/wordpool_EN.txt	SAIL	9	9	[0, 0, 0]	n/a	FR1	2	R1166D
1168.762	0.851	1180909	WORD_OFF	n/a	n/a	SAIL	9	9	[0, 0, 0]	n/a	FR1	2	R1166D
1169.613	1.617	1181760	WORD	n/a	wordpools/wordpool_EN.txt	CROWN	10	9	[0, 0, 0]	n/a	FR1	2	R1166D
1171.23	1.0	1183376	WORD_OFF	n/a	n/a	CROWN	10	9	[0, 0, 0]	n/a	FR1	2	R1166D
1172.23	1.616	1184376	WORD	n/a	wordpools/wordpool_EN.txt	CAPE	11	9	[0, 0, 0]	n/a	FR1	2	R1166D
1173.846	0.934	1185992	WORD_OFF	n/a	n/a	CAPE	11	9	[0, 0, 0]	n/a	FR1	2	R1166D
1174.78	1.601	1186926	WORD	n/a	wordpools/wordpool_EN.txt	CUBE	12	9	[0, 0, 0]	n/a	FR1	2	R1166D
1176.381	0.0	1188527	WORD_OFF	n/a	n/a	CUBE	12	9	[0, 0, 0]	n/a	FR1	2	R1166D
1176.381	0.001	1188527	DISTRACT_START	n/a	n/a	n/a	-999	9	[0, 0, 0]	n/a	FR1	2	R1166D
1176.382	0.016	1188528	START	n/a	n/a	n/a	-999	9	[-999, -999, -999]	n/a	FR1	2	R1166D
1176.398	5.934	1188544	PROB	5.934	n/a	n/a	-999	9	[9, 4, 9]	22	FR1	2	R1166D
1182.332	3.201	1194478	PROB	3.201	n/a	n/a	-999	9	[2, 4, 9]	15	FR1	2	R1166D
1185.533	3.85	1197679	PROB	3.85	n/a	n/a	-999	9	[3, 9, 2]	14	FR1	2	R1166D
1189.383	5.068	1201529	PROB	5.068	n/a	n/a	-999	9	[6, 5, 7]	18	FR1	2	R1166D
1194.451	3.564	1206596	PROB	3.564	n/a	n/a	-999	9	[7, 7, 5]	19	FR1	2	R1166D
1198.015	0.02	1210160	STOP	n/a	n/a	n/a	-999	9	[-999, -999, -999]	n/a	FR1	2	R1166D
1198.035	0.533	1210180	DISTRACT_END	n/a	n/a	n/a	-999	9	[0, 0, 0]	n/a	FR1	2	R1166D
1198.568	0.518	1210713	RETRIEVAL_ORIENT	n/a	n/a	n/a	-999	9	[0, 0, 0]	n/a	FR1	2	R1166D
1199.086	30.0	1211231	REC_START	n/a	n/a	n/a	-999	9	[0, 0, 0]	n/a	FR1	2	R1166D
1229.086	0.011	1241229	REC_WORD_VV	0.011	n/a	<>	-999	9	[0, 0, 0]	n/a	FR1	2	R1166D
1229.097	5.078	1241240	REC_END	n/a	n/a	n/a	-999	9	[0, 0, 0]	n/a	FR1	2	R1166D
1234.175	0.5	1246318	TRIAL	n/a	n/a	n/a	-999	10	[0, 0, 0]	n/a	FR1	2	R1166D
1234.675	10.428	1246818	COUNTDOWN_START	n/a	n/a	n/a	-999	10	[0, 0, 0]	n/a	FR1	2	R1166D
1245.103	0.007	1257245	COUNTDOWN_END	n/a	n/a	n/a	-999	10	[0, 0, 0]	n/a	FR1	2	R1166D
1245.11	1.616	1257252	ORIENT	n/a	n/a	n/a	-999	10	[0, 0, 0]	n/a	FR1	2	R1166D
1246.726	2.101	1258868	ORIENT_OFF	n/a	n/a	n/a	-999	10	[0, 0, 0]	n/a	FR1	2	R1166D
1248.827	1.618	1260969	WORD	n/a	wordpools/wordpool_EN.txt	MOTH	1	10	[0, 0, 0]	n/a	FR1	2	R1166D
1250.445	0.833	1262587	WORD_OFF	n/a	n/a	MOTH	1	10	[0, 0, 0]	n/a	FR1	2	R1166D
1251.278	1.617	1263420	WORD	n/a	wordpools/wordpool_EN.txt	SEED	2	10	[0, 0, 0]	n/a	FR1	2	R1166D
1252.895	1.0	1265037	WORD_OFF	n/a	n/a	SEED	2	10	[0, 0, 0]	n/a	FR1	2	R1166D
1253.895	1.617	1266037	WORD	n/a	wordpools/wordpool_EN.txt	FLUTE	3	10	[0, 0, 0]	n/a	FR1	2	R1166D
1255.512	0.9	1267654	WORD_OFF	n/a	n/a	FLUTE	3	10	[0, 0, 0]	n/a	FR1	2	R1166D
1256.412	1.617	1268554	WORD	n/a	wordpools/wordpool_EN.txt	WEB	4	10	[0, 0, 0]	n/a	FR1	2	R1166D
1258.029	1.001	1270171	WORD_OFF	n/a	n/a	WEB	4	10	[0, 0, 0]	n/a	FR1	2	R1166D
1259.03	1.615	1271172	WORD	n/a	wordpools/wordpool_EN.txt	TOOL	5	10	[0, 0, 0]	n/a	FR1	2	R1166D
1260.645	1.001	1272787	WORD_OFF	n/a	n/a	TOOL	5	10	[0, 0, 0]	n/a	FR1	2	R1166D
1261.646	1.618	1273788	WORD	n/a	wordpools/wordpool_EN.txt	BEE	6	10	[0, 0, 0]	n/a	FR1	2	R1166D
1263.264	0.883	1275406	WORD_OFF	n/a	n/a	BEE	6	10	[0, 0, 0]	n/a	FR1	2	R1166D
1264.147	1.616	1276288	WORD	n/a	wordpools/wordpool_EN.txt	TRASH	7	10	[0, 0, 0]	n/a	FR1	2	R1166D
1265.763	0.834	1277904	WORD_OFF	n/a	n/a	TRASH	7	10	[0, 0, 0]	n/a	FR1	2	R1166D
1266.597	1.617	1278738	WORD	n/a	wordpools/wordpool_EN.txt	EGG	8	10	[0, 0, 0]	n/a	FR1	2	R1166D
1268.214	0.801	1280355	WORD_OFF	n/a	n/a	EGG	8	10	[0, 0, 0]	n/a	FR1	2	R1166D
1269.015	1.617	1281156	WORD	n/a	wordpools/wordpool_EN.txt	CAT	9	10	[0, 0, 0]	n/a	FR1	2	R1166D
1270.632	0.783	1282773	WORD_OFF	n/a	n/a	CAT	9	10	[0, 0, 0]	n/a	FR1	2	R1166D
1271.415	1.617	1283556	WORD	n/a	wordpools/wordpool_EN.txt	GLOVE	10	10	[0, 0, 0]	n/a	FR1	2	R1166D
1273.032	0.867	1285173	WORD_OFF	n/a	n/a	GLOVE	10	10	[0, 0, 0]	n/a	FR1	2	R1166D
1273.899	1.617	1286040	WORD	n/a	wordpools/wordpool_EN.txt	CORD	11	10	[0, 0, 0]	n/a	FR1	2	R1166D
1275.516	0.967	1287657	WORD_OFF	n/a	n/a	CORD	11	10	[0, 0, 0]	n/a	FR1	2	R1166D
1276.483	1.617	1288624	WORD	n/a	wordpools/wordpool_EN.txt	WORM	12	10	[0, 0, 0]	n/a	FR1	2	R1166D
1278.1	0.0	1290241	WORD_OFF	n/a	n/a	WORM	12	10	[0, 0, 0]	n/a	FR1	2	R1166D
1278.1	0.0	1290241	DISTRACT_START	n/a	n/a	n/a	-999	10	[0, 0, 0]	n/a	FR1	2	R1166D
1278.1	0.016	1290241	START	n/a	n/a	n/a	-999	10	[-999, -999, -999]	n/a	FR1	2	R1166D
1278.116	6.168	1290257	PROB	6.168	n/a	n/a	-999	10	[9, 5, 4]	18	FR1	2	R1166D
1284.284	4.583	1296424	PROB	4.583	n/a	n/a	-999	10	[9, 7, 2]	18	FR1	2	R1166D
1288.867	7.236	1301007	PROB	7.236	n/a	n/a	-999	10	[9, 9, 4]	22	FR1	2	R1166D
1296.103	4.799	1308243	PROB	4.799	n/a	n/a	-999	10	[5, 6, 9]	20	FR1	2	R1166D
1300.902	0.018	1313041	STOP	n/a	n/a	n/a	-999	10	[-999, -999, -999]	n/a	FR1	2	R1166D
1300.92	0.634	1313059	DISTRACT_END	n/a	n/a	n/a	-999	10	[0, 0, 0]	n/a	FR1	2	R1166D
1301.554	0.518	1313693	RETRIEVAL_ORIENT	n/a	n/a	n/a	-999	10	[0, 0, 0]	n/a	FR1	2	R1166D
1302.072	25.692	1314211	REC_START	n/a	n/a	n/a	-999	10	[0, 0, 0]	n/a	FR1	2	R1166D
1327.764	4.318	1339902	REC_WORD	4.318	n/a	MOTH	1	10	[0, 0, 0]	n/a	FR1	2	R1166D
1332.082	88.41	1344220	REC_END	n/a	n/a	n/a	-999	10	[0, 0, 0]	n/a	FR1	2	R1166D
1420.492	0.5	1432625	TRIAL	n/a	n/a	n/a	-999	11	[0, 0, 0]	n/a	FR1	2	R1166D
1420.992	10.428	1433125	COUNTDOWN_START	n/a	n/a	n/a	-999	11	[0, 0, 0]	n/a	FR1	2	R1166D
1431.42	0.008	1443552	COUNTDOWN_END	n/a	n/a	n/a	-999	11	[0, 0, 0]	n/a	FR1	2	R1166D
1431.428	1.616	1443560	ORIENT	n/a	n/a	n/a	-999	11	[0, 0, 0]	n/a	FR1	2	R1166D
1433.044	2.05	1445176	ORIENT_OFF	n/a	n/a	n/a	-999	11	[0, 0, 0]	n/a	FR1	2	R1166D
1435.094	1.617	1447226	WORD	n/a	wordpools/wordpool_EN.txt	COIN	1	11	[0, 0, 0]	n/a	FR1	2	R1166D
1436.711	0.768	1448843	WORD_OFF	n/a	n/a	COIN	1	11	[0, 0, 0]	n/a	FR1	2	R1166D
1437.479	1.616	1449611	WORD	n/a	wordpools/wordpool_EN.txt	JAIL	2	11	[0, 0, 0]	n/a	FR1	2	R1166D
1439.095	0.834	1451227	WORD_OFF	n/a	n/a	JAIL	2	11	[0, 0, 0]	n/a	FR1	2	R1166D
1439.929	1.617	1452061	WORD	n/a	wordpools/wordpool_EN.txt	BOOK	3	11	[0, 0, 0]	n/a	FR1	2	R1166D
1441.546	0.767	1453678	WORD_OFF	n/a	n/a	BOOK	3	11	[0, 0, 0]	n/a	FR1	2	R1166D
1442.313	1.617	1454445	WORD	n/a	wordpools/wordpool_EN.txt	ELF	4	11	[0, 0, 0]	n/a	FR1	2	R1166D
1443.93	0.949	1456062	WORD_OFF	n/a	n/a	ELF	4	11	[0, 0, 0]	n/a	FR1	2	R1166D
1444.879	1.618	1457011	WORD	n/a	wordpools/wordpool_EN.txt	MAIL	5	11	[0, 0, 0]	n/a	FR1	2	R1166D
1446.497	0.967	1458629	WORD_OFF	n/a	n/a	MAIL	5	11	[0, 0, 0]	n/a	FR1	2	R1166D
1447.464	1.617	1459596	WORD	n/a	wordpools/wordpool_EN.txt	JUDGE	6	11	[0, 0, 0]	n/a	FR1	2	R1166D
1449.081	0.816	1461212	WORD_OFF	n/a	n/a	JUDGE	6	11	[0, 0, 0]	n/a	FR1	2	R1166D
1449.897	1.617	1462028	WORD	n/a	wordpools/wordpool_EN.txt	RAKE	7	11	[0, 0, 0]	n/a	FR1	2	R1166D
1451.514	1.001	1463645	WORD_OFF	n/a	n/a	RAKE	7	11	[0, 0, 0]	n/a	FR1	2	R1166D
1452.515	1.617	1464646	WORD	n/a	wordpools/wordpool_EN.txt	SHEET	8	11	[0, 0, 0]	n/a	FR1	2	R1166D
1454.132	0.899	1466263	WORD_OFF	n/a	n/a	SHEET	8	11	[0, 0, 0]	n/a	FR1	2	R1166D
1455.031	1.601	1467162	WORD	n/a	wordpools/wordpool_EN.txt	STORE	9	11	[0, 0, 0]	n/a	FR1	2	R1166D
1456.632	0.85	1468763	WORD_OFF	n/a	n/a	STORE	9	11	[0, 0, 0]	n/a	FR1	2	R1166D
1457.482	1.617	1469613	WORD	n/a	wordpools/wordpool_EN.txt	INK	10	11	[0, 0, 0]	n/a	FR1	2	R1166D
1459.099	0.867	1471230	WORD_OFF	n/a	n/a	INK	10	11	[0, 0, 0]	n/a	FR1	2	R1166D
1459.966	1.617	1472097	WORD	n/a	wordpools/wordpool_EN.txt	BANK	11	11	[0, 0, 0]	n/a	FR1	2	R1166D
1461.583	0.817	1473714	WORD_OFF	n/a	n/a	BANK	11	11	[0, 0, 0]	n/a	FR1	2	R1166D
1462.4	1.617	1474531	WORD	n/a	wordpools/wordpool_EN.txt	HORSE	12	11	[0, 0, 0]	n/a	FR1	2	R1166D
1464.017	0.0	1476148	WORD_OFF	n/a	n/a	HORSE	12	11	[0, 0, 0]	n/a	FR1	2	R1166D
1464.017	0.0	1476148	DISTRACT_START	n/a	n/a	n/a	-999	11	[0, 0, 0]	n/a	FR1	2	R1166D
1464.017	0.016	1476148	START	n/a	n/a	n/a	-999	11	[-999, -999, -999]	n/a	FR1	2	R1166D
1464.033	4.118	1476164	PROB	4.118	n/a	n/a	-999	11	[4, 6, 8]	18	FR1	2	R1166D
1468.151	2.317	1480281	PROB	2.317	n/a	n/a	-999	11	[1, 1, 9]	11	FR1	2	R1166D
1470.468	2.5	1482598	PROB	2.5	n/a	n/a	-999	11	[4, 2, 1]	7	FR1	2	R1166D
1472.968	3.168	1485098	PROB	3.168	n/a	n/a	-999	11	[8, 9, 1]	18	FR1	2	R1166D
1476.136	3.334	1488266	PROB	3.334	n/a	n/a	-999	11	[3, 2, 1]	6	FR1	2	R1166D
1479.47	2.833	1491600	PROB	2.833	n/a	n/a	-999	11	[3, 6, 2]	11	FR1	2	R1166D
1482.303	5.334	1494433	PROB	5.334	n/a	n/a	-999	11	[4, 8, 9]	21	FR1	2	R1166D
1487.637	0.016	1499766	STOP	n/a	n/a	n/a	-999	11	[-999, -999, -999]	n/a	FR1	2	R1166D
1487.653	0.551	1499782	DISTRACT_END	n/a	n/a	n/a	-999	11	[0, 0, 0]	n/a	FR1	2	R1166D
1488.204	0.517	1500333	RETRIEVAL_ORIENT	n/a	n/a	n/a	-999	11	[0, 0, 0]	n/a	FR1	2	R1166D
1488.721	11.425	1500850	REC_START	n/a	n/a	n/a	-999	11	[0, 0, 0]	n/a	FR1	2	R1166D
1500.146	2.107	1512275	REC_WORD	2.107	n/a	SHEET	8	11	[0, 0, 0]	n/a	FR1	2	R1166D
1502.253	13.651	1514382	REC_WORD	13.651	n/a	STORE	9	11	[0, 0, 0]	n/a	FR1	2	R1166D
1515.904	2.829	1528032	REC_WORD	2.829	n/a	JAIL	2	11	[0, 0, 0]	n/a	FR1	2	R1166D
1518.733	5.511	1530861	REC_END	n/a	n/a	n/a	-999	11	[0, 0, 0]	n/a	FR1	2	R1166D
1524.244	0.5	1536371	TRIAL	n/a	n/a	n/a	-999	12	[0, 0, 0]	n/a	FR1	2	R1166D
1524.744	10.428	1536871	COUNTDOWN_START	n/a	n/a	n/a	-999	12	[0, 0, 0]	n/a	FR1	2	R1166D
1535.172	0.008	1547299	COUNTDOWN_END	n/a	n/a	n/a	-999	12	[0, 0, 0]	n/a	FR1	2	R1166D
1535.18	1.616	1547307	ORIENT	n/a	n/a	n/a	-999	12	[0, 0, 0]	n/a	FR1	2	R1166D
1536.796	2.033	1548923	ORIENT_OFF	n/a	n/a	n/a	-999	12	[0, 0, 0]	n/a	FR1	2	R1166D
1538.829	1.618	1550956	WORD	n/a	wordpools/wordpool_EN.txt	TENT	1	12	[0, 0, 0]	n/a	FR1	2	R1166D
1540.447	0.817	1552574	WORD_OFF	n/a	n/a	TENT	1	12	[0, 0, 0]	n/a	FR1	2	R1166D
1541.264	1.616	1553391	WORD	n/a	wordpools/wordpool_EN.txt	FACE	2	12	[0, 0, 0]	n/a	FR1	2	R1166D
1542.88	0.884	1555006	WORD_OFF	n/a	n/a	FACE	2	12	[0, 0, 0]	n/a	FR1	2	R1166D
1543.764	1.618	1555890	WORD	n/a	wordpools/wordpool_EN.txt	SPRING	3	12	[0, 0, 0]	n/a	FR1	2	R1166D
1545.382	0.933	1557508	WORD_OFF	n/a	n/a	SPRING	3	12	[0, 0, 0]	n/a	FR1	2	R1166D
1546.315	1.617	1558441	WORD	n/a	wordpools/wordpool_EN.txt	GUARD	4	12	[0, 0, 0]	n/a	FR1	2	R1166D
1547.932	0.866	1560058	WORD_OFF	n/a	n/a	GUARD	4	12	[0, 0, 0]	n/a	FR1	2	R1166D
1548.798	1.618	1560924	WORD	n/a	wordpools/wordpool_EN.txt	SHEEP	5	12	[0, 0, 0]	n/a	FR1	2	R1166D
1550.416	0.817	1562542	WORD_OFF	n/a	n/a	SHEEP	5	12	[0, 0, 0]	n/a	FR1	2	R1166D
1551.233	1.616	1563359	WORD	n/a	wordpools/wordpool_EN.txt	TRUCK	6	12	[0, 0, 0]	n/a	FR1	2	R1166D
1552.849	0.933	1564975	WORD_OFF	n/a	n/a	TRUCK	6	12	[0, 0, 0]	n/a	FR1	2	R1166D
1553.782	1.618	1565908	WORD	n/a	wordpools/wordpool_EN.txt	MOOSE	7	12	[0, 0, 0]	n/a	FR1	2	R1166D
1555.4	0.9	1567526	WORD_OFF	n/a	n/a	MOOSE	7	12	[0, 0, 0]	n/a	FR1	2	R1166D
1556.3	1.617	1568426	WORD	n/a	wordpools/wordpool_EN.txt	PLANT	8	12	[0, 0, 0]	n/a	FR1	2	R1166D
1557.917	0.799	1570043	WORD_OFF	n/a	n/a	PLANT	8	12	[0, 0, 0]	n/a	FR1	2	R1166D
1558.716	1.618	1570842	WORD	n/a	wordpools/wordpool_EN.txt	SPEAR	9	12	[0, 0, 0]	n/a	FR1	2	R1166D
1560.334	1.0	1572459	WORD_OFF	n/a	n/a	SPEAR	9	12	[0, 0, 0]	n/a	FR1	2	R1166D
1561.334	1.617	1573459	WORD	n/a	wordpools/wordpool_EN.txt	TRAIN	10	12	[0, 0, 0]	n/a	FR1	2	R1166D
1562.951	0.967	1575076	WORD_OFF	n/a	n/a	TRAIN	10	12	[0, 0, 0]	n/a	FR1	2	R1166D
1563.918	1.617	1576043	WORD	n/a	wordpools/wordpool_EN.txt	FARM	11	12	[0, 0, 0]	n/a	FR1	2	R1166D
1565.535	0.817	1577660	WORD_OFF	n/a	n/a	FARM	11	12	[0, 0, 0]	n/a	FR1	2	R1166D
1566.352	1.617	1578477	WORD	n/a	wordpools/wordpool_EN.txt	FOOT	12	12	[0, 0, 0]	n/a	FR1	2	R1166D
1567.969	0.0	1580094	WORD_OFF	n/a	n/a	FOOT	12	12	[0, 0, 0]	n/a	FR1	2	R1166D
1567.969	0.001	1580094	DISTRACT_START	n/a	n/a	n/a	-999	12	[0, 0, 0]	n/a	FR1	2	R1166D
1567.97	0.016	1580095	START	n/a	n/a	n/a	-999	12	[-999, -999, -999]	n/a	FR1	2	R1166D
1567.986	4.5	1580111	PROB	4.5	n/a	n/a	-999	12	[6, 9, 7]	22	FR1	2	R1166D
1572.486	2.367	1584611	PROB	2.367	n/a	n/a	-999	12	[1, 7, 3]	11	FR1	2	R1166D
1574.853	2.817	1586978	PROB	2.817	n/a	n/a	-999	12	[4, 3, 6]	13	FR1	2	R1166D
1577.67	3.268	1589795	PROB	3.268	n/a	n/a	-999	12	[6, 6, 5]	17	FR1	2	R1166D
1580.938	3.567	1593062	PROB	3.567	n/a	n/a	-999	12	[3, 5, 4]	12	FR1	2	R1166D
1584.505	3.814	1596629	PROB	3.814	n/a	n/a	-999	12	[7, 7, 2]	16	FR1	2	R1166D
1588.319	0.02	1600443	STOP	n/a	n/a	n/a	-999	12	[-999, -999, -999]	n/a	FR1	2	R1166D
1588.339	0.634	1600463	DISTRACT_END	n/a	n/a	n/a	-999	12	[0, 0, 0]	n/a	FR1	2	R1166D
1588.973	0.517	1601097	RETRIEVAL_ORIENT	n/a	n/a	n/a	-999	12	[0, 0, 0]	n/a	FR1	2	R1166D
1589.49	29.994	1601614	REC_START	n/a	n/a	n/a	-999	12	[0, 0, 0]	n/a	FR1	2	R1166D
1619.484	0.016	1631606	REC_WORD_VV	0.016	n/a	<>	-999	12	[0, 0, 0]	n/a	FR1	2	R1166D
1619.5	4.913	1631622	REC_END	n/a	n/a	n/a	-999	12	[0, 0, 0]	n/a	FR1	2	R1166D
1624.413	0.5	1636535	TRIAL	n/a	n/a	n/a	-999	13	[0, 0, 0]	n/a	FR1	2	R1166D
1624.913	10.428	1637035	COUNTDOWN_START	n/a	n/a	n/a	-999	13	[0, 0, 0]	n/a	FR1	2	R1166D
1635.341	0.007	1647462	COUNTDOWN_END	n/a	n/a	n/a	-999	13	[0, 0, 0]	n/a	FR1	2	R1166D
1635.348	1.617	1647469	ORIENT	n/a	n/a	n/a	-999	13	[0, 0, 0]	n/a	FR1	2	R1166D
1636.965	1.899	1649086	ORIENT_OFF	n/a	n/a	n/a	-999	13	[0, 0, 0]	n/a	FR1	2	R1166D
1638.864	1.618	1650985	WORD	n/a	wordpools/wordpool_EN.txt	CLOWN	1	13	[0, 0, 0]	n/a	FR1	2	R1166D
1640.482	0.884	1652603	WORD_OFF	n/a	n/a	CLOWN	1	13	[0, 0, 0]	n/a	FR1	2	R1166D
1641.366	1.617	1653487	WORD	n/a	wordpools/wordpool_EN.txt	JUICE	2	13	[0, 0, 0]	n/a	FR1	2	R1166D
1642.983	0.916	1655104	WORD_OFF	n/a	n/a	JUICE	2	13	[0, 0, 0]	n/a	FR1	2	R1166D
1643.899	1.617	1656020	WORD	n/a	wordpools/wordpool_EN.txt	JAR	3	13	[0, 0, 0]	n/a	FR1	2	R1166D
1645.516	0.884	1657637	WORD_OFF	n/a	n/a	JAR	3	13	[0, 0, 0]	n/a	FR1	2	R1166D
1646.4	1.617	1658521	WORD	n/a	wordpools/wordpool_EN.txt	SOCK	4	13	[0, 0, 0]	n/a	FR1	2	R1166D
1648.017	0.849	1660138	WORD_OFF	n/a	n/a	SOCK	4	13	[0, 0, 0]	n/a	FR1	2	R1166D
1648.866	1.618	1660987	WORD	n/a	wordpools/wordpool_EN.txt	GRAPE	5	13	[0, 0, 0]	n/a	FR1	2	R1166D
1650.484	0.967	1662605	WORD_OFF	n/a	n/a	GRAPE	5	13	[0, 0, 0]	n/a	FR1	2	R1166D
1651.451	1.617	1663572	WORD	n/a	wordpools/wordpool_EN.txt	THUMB	6	13	[0, 0, 0]	n/a	FR1	2	R1166D
1653.068	1.0	1665188	WORD_OFF	n/a	n/a	THUMB	6	13	[0, 0, 0]	n/a	FR1	2	R1166D
1654.068	1.616	1666188	WORD	n/a	wordpools/wordpool_EN.txt	BEAK	7	13	[0, 0, 0]	n/a	FR1	2	R1166D
1655.684	0.818	1667804	WORD_OFF	n/a	n/a	BEAK	7	13	[0, 0, 0]	n/a	FR1	2	R1166D
1656.502	1.617	1668622	WORD	n/a	wordpools/wordpool_EN.txt	NAIL	8	13	[0, 0, 0]	n/a	FR1	2	R1166D
1658.119	0.85	1670239	WORD_OFF	n/a	n/a	NAIL	8	13	[0, 0, 0]	n/a	FR1	2	R1166D
1658.969	1.617	1671089	WORD	n/a	wordpools/wordpool_EN.txt	VASE	9	13	[0, 0, 0]	n/a	FR1	2	R1166D
1660.586	0.85	1672706	WORD_OFF	n/a	n/a	VASE	9	13	[0, 0, 0]	n/a	FR1	2	R1166D
1661.436	1.617	1673556	WORD	n/a	wordpools/wordpool_EN.txt	AXE	10	13	[0, 0, 0]	n/a	FR1	2	R1166D
1663.053	0.766	1675173	WORD_OFF	n/a	n/a	AXE	10	13	[0, 0, 0]	n/a	FR1	2	R1166D
1663.819	1.618	1675939	WORD	n/a	wordpools/wordpool_EN.txt	SPOON	11	13	[0, 0, 0]	n/a	FR1	2	R1166D
1665.437	0.95	1677557	WORD_OFF	n/a	n/a	SPOON	11	13	[0, 0, 0]	n/a	FR1	2	R1166D
1666.387	1.617	1678507	WORD	n/a	wordpools/wordpool_EN.txt	RUG	12	13	[0, 0, 0]	n/a	FR1	2	R1166D
1668.004	0.0	1680124	WORD_OFF	n/a	n/a	RUG	12	13	[0, 0, 0]	n/a	FR1	2	R1166D
1668.004	0.001	1680124	DISTRACT_START	n/a	n/a	n/a	-999	13	[0, 0, 0]	n/a	FR1	2	R1166D
1668.005	0.015	1680125	START	n/a	n/a	n/a	-999	13	[-999, -999, -999]	n/a	FR1	2	R1166D
1668.02	3.168	1680140	PROB	3.168	n/a	n/a	-999	13	[2, 7, 3]	12	FR1	2	R1166D
1671.188	5.884	1683308	PROB	5.884	n/a	n/a	-999	13	[9, 3, 9]	21	FR1	2	R1166D
1677.072	2.484	1689191	PROB	2.484	n/a	n/a	-999	13	[4, 4, 4]	12	FR1	2	R1166D
1679.556	3.35	1691675	PROB	3.35	n/a	n/a	-999	13	[4, 7, 9]	20	FR1	2	R1166D
1682.906	3.201	1695025	PROB	3.201	n/a	n/a	-999	13	[5, 6, 5]	16	FR1	2	R1166D
1686.107	4.194	1698226	PROB	4.194	n/a	n/a	-999	13	[9, 7, 2]	18	FR1	2	R1166D
1690.301	0.007	1702419	STOP	n/a	n/a	n/a	-999	13	[-999, -999, -999]	n/a	FR1	2	R1166D
1690.308	0.7	1702426	DISTRACT_END	n/a	n/a	n/a	-999	13	[0, 0, 0]	n/a	FR1	2	R1166D
1691.008	0.517	1703126	RETRIEVAL_ORIENT	n/a	n/a	n/a	-999	13	[0, 0, 0]	n/a	FR1	2	R1166D
1691.525	1.561	1703643	REC_START	n/a	n/a	n/a	-999	13	[0, 0, 0]	n/a	FR1	2	R1166D
1693.086	2.343	1705204	REC_WORD	2.343	n/a	CLOWN	1	13	[0, 0, 0]	n/a	FR1	2	R1166D
1695.429	8.249	1707547	REC_WORD	8.249	n/a	JUICE	2	13	[0, 0, 0]	n/a	FR1	2	R1166D
1703.678	17.859	1715796	REC_WORD	17.859	n/a	BAR	-999	13	[0, 0, 0]	n/a	FR1	2	R1166D
1721.537	27.948	1733654	REC_END	n/a	n/a	n/a	-999	13	[0, 0, 0]	n/a	FR1	2	R1166D
1749.485	0.5	1761600	TRIAL	n/a	n/a	n/a	-999	14	[0, 0, 0]	n/a	FR1	2	R1166D
1749.985	10.428	1762100	COUNTDOWN_START	n/a	n/a	n/a	-999	14	[0, 0, 0]	n/a	FR1	2	R1166D
1760.413	0.008	1772528	COUNTDOWN_END	n/a	n/a	n/a	-999	14	[0, 0, 0]	n/a	FR1	2	R1166D
1760.421	1.617	1772536	ORIENT	n/a	n/a	n/a	-999	14	[0, 0, 0]	n/a	FR1	2	R1166D
1762.038	1.867	1774153	ORIENT_OFF	n/a	n/a	n/a	-999	14	[0, 0, 0]	n/a	FR1	2	R1166D
1763.905	1.617	1776020	WORD	n/a	wordpools/wordpool_EN.txt	MAT	1	14	[0, 0, 0]	n/a	FR1	2	R1166D
1765.522	0.8	1777636	WORD_OFF	n/a	n/a	MAT	1	14	[0, 0, 0]	n/a	FR1	2	R1166D
1766.322	1.617	1778436	WORD	n/a	wordpools/wordpool_EN.txt	HOOF	2	14	[0, 0, 0]	n/a	FR1	2	R1166D
1767.939	0.832	1780053	WORD_OFF	n/a	n/a	HOOF	2	14	[0, 0, 0]	n/a	FR1	2	R1166D
1768.771	1.618	1780885	WORD	n/a	wordpools/wordpool_EN.txt	SKUNK	3	14	[0, 0, 0]	n/a	FR1	2	R1166D
1770.389	0.8	1782503	WORD_OFF	n/a	n/a	SKUNK	3	14	[0, 0, 0]	n/a	FR1	2	R1166D
1771.189	1.616	1783303	WORD	n/a	wordpools/wordpool_EN.txt	PLATE	4	14	[0, 0, 0]	n/a	FR1	2	R1166D
1772.805	0.967	1784919	WORD_OFF	n/a	n/a	PLATE	4	14	[0, 0, 0]	n/a	FR1	2	R1166D
1773.772	1.618	1785886	WORD	n/a	wordpools/wordpool_EN.txt	VAN	5	14	[0, 0, 0]	n/a	FR1	2	R1166D
1775.39	0.967	1787504	WORD_OFF	n/a	n/a	VAN	5	14	[0, 0, 0]	n/a	FR1	2	R1166D
1776.357	1.617	1788471	WORD	n/a	wordpools/wordpool_EN.txt	PASTE	6	14	[0, 0, 0]	n/a	FR1	2	R1166D
1777.974	0.933	1790088	WORD_OFF	n/a	n/a	PASTE	6	14	[0, 0, 0]	n/a	FR1	2	R1166D
1778.907	1.617	1791021	WORD	n/a	wordpools/wordpool_EN.txt	PEN	7	14	[0, 0, 0]	n/a	FR1	2	R1166D
1780.524	0.834	1792638	WORD_OFF	n/a	n/a	PEN	7	14	[0, 0, 0]	n/a	FR1	2	R1166D
1781.358	1.617	1793472	WORD	n/a	wordpools/wordpool_EN.txt	BOX	8	14	[0, 0, 0]	n/a	FR1	2	R1166D
1782.975	0.882	1795088	WORD_OFF	n/a	n/a	BOX	8	14	[0, 0, 0]	n/a	FR1	2	R1166D
1783.857	1.618	1795970	WORD	n/a	wordpools/wordpool_EN.txt	WOOD	9	14	[0, 0, 0]	n/a	FR1	2	R1166D
1785.475	0.884	1797588	WORD_OFF	n/a	n/a	WOOD	9	14	[0, 0, 0]	n/a	FR1	2	R1166D
1786.359	1.617	1798472	WORD	n/a	wordpools/wordpool_EN.txt	STEAK	10	14	[0, 0, 0]	n/a	FR1	2	R1166D
1787.976	0.765	1800089	WORD_OFF	n/a	n/a	STEAK	10	14	[0, 0, 0]	n/a	FR1	2	R1166D
1788.741	1.618	1800854	WORD	n/a	wordpools/wordpool_EN.txt	PEACH	11	14	[0, 0, 0]	n/a	FR1	2	R1166D
1790.359	0.901	1802472	WORD_OFF	n/a	n/a	PEACH	11	14	[0, 0, 0]	n/a	FR1	2	R1166D
1791.26	1.615	1803373	WORD	n/a	wordpools/wordpool_EN.txt	PEAR	12	14	[0, 0, 0]	n/a	FR1	2	R1166D
1792.875	0.0	1804988	WORD_OFF	n/a	n/a	PEAR	12	14	[0, 0, 0]	n/a	FR1	2	R1166D
1792.875	0.001	1804988	DISTRACT_START	n/a	n/a	n/a	-999	14	[0, 0, 0]	n/a	FR1	2	R1166D
1792.876	0.017	1804989	START	n/a	n/a	n/a	-999	14	[-999, -999, -999]	n/a	FR1	2	R1166D
1792.893	5.068	1805006	PROB	5.068	n/a	n/a	-999	14	[5, 3, 3]	11	FR1	2	R1166D
1797.961	2.916	1810074	PROB	2.916	n/a	n/a	-999	14	[8, 7, 2]	17	FR1	2	R1166D
1800.877	3.917	1812990	PROB	3.917	n/a	n/a	-999	14	[3, 6, 5]	14	FR1	2	R1166D
1804.794	3.685	1816906	PROB	3.685	n/a	n/a	-999	14	[3, 3, 2]	8	FR1	2	R1166D
1808.479	2.501	1820591	PROB	2.501	n/a	n/a	-999	14	[5, 6, 5]	16	FR1	2	R1166D
1810.98	4.665	1823092	PROB	4.665	n/a	n/a	-999	14	[7, 5, 8]	20	FR1	2	R1166D
1815.645	0.018	1827757	STOP	n/a	n/a	n/a	-999	14	[-999, -999, -999]	n/a	FR1	2	R1166D
1815.663	0.701	1827775	DISTRACT_END	n/a	n/a	n/a	-999	14	[0, 0, 0]	n/a	FR1	2	R1166D
1816.364	0.517	1828476	RETRIEVAL_ORIENT	n/a	n/a	n/a	-999	14	[0, 0, 0]	n/a	FR1	2	R1166D
1816.881	3.068	1828993	REC_START	n/a	n/a	n/a	-999	14	[0, 0, 0]	n/a	FR1	2	R1166D
1819.949	2.609	1832060	REC_WORD	2.609	n/a	SKUNK	3	14	[0, 0, 0]	n/a	FR1	2	R1166D
1822.558	3.048	1834669	REC_WORD	3.048	n/a	HOOF	2	14	[0, 0, 0]	n/a	FR1	2	R1166D
1825.606	3.024	1837717	REC_WORD	3.024	n/a	STEAK	10	14	[0, 0, 0]	n/a	FR1	2	R1166D
1828.63	18.263	1840741	REC_WORD	18.263	n/a	BOX	8	14	[0, 0, 0]	n/a	FR1	2	R1166D
1846.893	6.128	1859003	REC_END	n/a	n/a	n/a	-999	14	[0, 0, 0]	n/a	FR1	2	R1166D
1853.021	0.5	1865131	TRIAL	n/a	n/a	n/a	-999	15	[0, 0, 0]	n/a	FR1	2	R1166D
1853.521	10.428	1865631	COUNTDOWN_START	n/a	n/a	n/a	-999	15	[0, 0, 0]	n/a	FR1	2	R1166D
1863.949	0.007	1876058	COUNTDOWN_END	n/a	n/a	n/a	-999	15	[0, 0, 0]	n/a	FR1	2	R1166D
1863.956	1.617	1876065	ORIENT	n/a	n/a	n/a	-999	15	[0, 0, 0]	n/a	FR1	2	R1166D
1865.573	2.249	1877682	ORIENT_OFF	n/a	n/a	n/a	-999	15	[0, 0, 0]	n/a	FR1	2	R1166D
1867.822	1.618	1879931	WORD	n/a	wordpools/wordpool_EN.txt	CROW	1	15	[0, 0, 0]	n/a	FR1	2	R1166D
1869.44	0.851	1881549	WORD_OFF	n/a	n/a	CROW	1	15	[0, 0, 0]	n/a	FR1	2	R1166D
1870.291	1.617	1882400	WORD	n/a	wordpools/wordpool_EN.txt	NEST	2	15	[0, 0, 0]	n/a	FR1	2	R1166D
1871.908	0.815	1884017	WORD_OFF	n/a	n/a	NEST	2	15	[0, 0, 0]	n/a	FR1	2	R1166D
1872.723	1.601	1884832	WORD	n/a	wordpools/wordpool_EN.txt	BATH	3	15	[0, 0, 0]	n/a	FR1	2	R1166D
1874.324	0.851	1886433	WORD_OFF	n/a	n/a	BATH	3	15	[0, 0, 0]	n/a	FR1	2	R1166D
1875.175	1.616	1887284	WORD	n/a	wordpools/wordpool_EN.txt	ROOF	4	15	[0, 0, 0]	n/a	FR1	2	R1166D
1876.791	0.967	1888899	WORD_OFF	n/a	n/a	ROOF	4	15	[0, 0, 0]	n/a	FR1	2	R1166D
1877.758	1.618	1889866	WORD	n/a	wordpools/wordpool_EN.txt	ROOM	5	15	[0, 0, 0]	n/a	FR1	2	R1166D
1879.376	0.95	1891484	WORD_OFF	n/a	n/a	ROOM	5	15	[0, 0, 0]	n/a	FR1	2	R1166D
1880.326	1.617	1892434	WORD	n/a	wordpools/wordpool_EN.txt	LAWN	6	15	[0, 0, 0]	n/a	FR1	2	R1166D
1881.943	0.866	1894051	WORD_OFF	n/a	n/a	LAWN	6	15	[0, 0, 0]	n/a	FR1	2	R1166D
1882.809	1.617	1894917	WORD	n/a	wordpools/wordpool_EN.txt	TEA	7	15	[0, 0, 0]	n/a	FR1	2	R1166D
1884.426	0.884	1896534	WORD_OFF	n/a	n/a	TEA	7	15	[0, 0, 0]	n/a	FR1	2	R1166D
1885.31	1.617	1897418	WORD	n/a	wordpools/wordpool_EN.txt	HEN	8	15	[0, 0, 0]	n/a	FR1	2	R1166D
1886.927	0.916	1899035	WORD_OFF	n/a	n/a	HEN	8	15	[0, 0, 0]	n/a	FR1	2	R1166D
1887.843	1.618	1899951	WORD	n/a	wordpools/wordpool_EN.txt	TOAST	9	15	[0, 0, 0]	n/a	FR1	2	R1166D
1889.461	0.783	1901569	WORD_OFF	n/a	n/a	TOAST	9	15	[0, 0, 0]	n/a	FR1	2	R1166D
1890.244	1.616	1902352	WORD	n/a	wordpools/wordpool_EN.txt	ANT	10	15	[0, 0, 0]	n/a	FR1	2	R1166D
1891.86	0.867	1903968	WORD_OFF	n/a	n/a	ANT	10	15	[0, 0, 0]	n/a	FR1	2	R1166D
1892.727	1.618	1904835	WORD	n/a	wordpools/wordpool_EN.txt	DART	11	15	[0, 0, 0]	n/a	FR1	2	R1166D
1894.345	0.917	1906452	WORD_OFF	n/a	n/a	DART	11	15	[0, 0, 0]	n/a	FR1	2	R1166D
1895.262	1.616	1907369	WORD	n/a	wordpools/wordpool_EN.txt	CRANE	12	15	[0, 0, 0]	n/a	FR1	2	R1166D
1896.878	0.0	1908985	WORD_OFF	n/a	n/a	CRANE	12	15	[0, 0, 0]	n/a	FR1	2	R1166D
1896.878	0.0	1908985	DISTRACT_START	n/a	n/a	n/a	-999	15	[0, 0, 0]	n/a	FR1	2	R1166D
1896.878	0.017	1908985	START	n/a	n/a	n/a	-999	15	[-999, -999, -999]	n/a	FR1	2	R1166D
1896.895	3.833	1909002	PROB	3.833	n/a	n/a	-999	15	[2, 1, 4]	7	FR1	2	R1166D
1900.728	2.385	1912835	PROB	2.385	n/a	n/a	-999	15	[2, 8, 2]	12	FR1	2	R1166D
1903.113	2.666	1915220	PROB	2.666	n/a	n/a	-999	15	[6, 1, 1]	8	FR1	2	R1166D
1905.779	3.335	1917886	PROB	3.335	n/a	n/a	-999	15	[4, 5, 2]	11	FR1	2	R1166D
1909.114	5.151	1921221	PROB	5.151	n/a	n/a	-999	15	[8, 5, 7]	22	FR1	2	R1166D
1914.265	3.484	1926371	PROB	3.484	n/a	n/a	-999	15	[1, 3, 8]	12	FR1	2	R1166D
1917.749	0.016	1929855	STOP	n/a	n/a	n/a	-999	15	[-999, -999, -999]	n/a	FR1	2	R1166D
1917.765	0.701	1929871	DISTRACT_END	n/a	n/a	n/a	-999	15	[0, 0, 0]	n/a	FR1	2	R1166D
1918.466	0.517	1930572	RETRIEVAL_ORIENT	n/a	n/a	n/a	-999	15	[0, 0, 0]	n/a	FR1	2	R1166D
1918.983	1.473	1931089	REC_START	n/a	n/a	n/a	-999	15	[0, 0, 0]	n/a	FR1	2	R1166D
1920.456	3.403	1932562	REC_WORD	3.403	n/a	CROW	1	15	[0, 0, 0]	n/a	FR1	2	R1166D
1923.859	9.834	1935965	REC_WORD	9.834	n/a	NEST	2	15	[0, 0, 0]	n/a	FR1	2	R1166D
1933.693	13.033	1945798	REC_WORD	13.033	n/a	BATH	3	15	[0, 0, 0]	n/a	FR1	2	R1166D
1946.726	2.269	1958831	REC_WORD	2.269	n/a	HEN	8	15	[0, 0, 0]	n/a	FR1	2	R1166D
1948.995	4.726	1961100	REC_END	n/a	n/a	n/a	-999	15	[0, 0, 0]	n/a	FR1	2	R1166D
1953.721	0.5	1965825	TRIAL	n/a	n/a	n/a	-999	16	[0, 0, 0]	n/a	FR1	2	R1166D
1954.221	10.428	1966325	COUNTDOWN_START	n/a	n/a	n/a	-999	16	[0, 0, 0]	n/a	FR1	2	R1166D
1964.649	0.008	1976753	COUNTDOWN_END	n/a	n/a	n/a	-999	16	[0, 0, 0]	n/a	FR1	2	R1166D
1964.657	1.618	1976761	ORIENT	n/a	n/a	n/a	-999	16	[0, 0, 0]	n/a	FR1	2	R1166D
1966.275	2.083	1978379	ORIENT_OFF	n/a	n/a	n/a	-999	16	[0, 0, 0]	n/a	FR1	2	R1166D
1968.358	1.617	1980461	WORD	n/a	wordpools/wordpool_EN.txt	SOAP	1	16	[0, 0, 0]	n/a	FR1	2	R1166D
1969.975	0.816	1982078	WORD_OFF	n/a	n/a	SOAP	1	16	[0, 0, 0]	n/a	FR1	2	R1166D
1970.791	1.601	1982894	WORD	n/a	wordpools/wordpool_EN.txt	STAIR	2	16	[0, 0, 0]	n/a	FR1	2	R1166D
1972.392	0.834	1984495	WORD_OFF	n/a	n/a	STAIR	2	16	[0, 0, 0]	n/a	FR1	2	R1166D
1973.226	1.616	1985329	WORD	n/a	wordpools/wordpool_EN.txt	SINK	3	16	[0, 0, 0]	n/a	FR1	2	R1166D
1974.842	0.867	1986945	WORD_OFF	n/a	n/a	SINK	3	16	[0, 0, 0]	n/a	FR1	2	R1166D
1975.709	1.618	1987812	WORD	n/a	wordpools/wordpool_EN.txt	ROPE	4	16	[0, 0, 0]	n/a	FR1	2	R1166D
1977.327	1.017	1989430	WORD_OFF	n/a	n/a	ROPE	4	16	[0, 0, 0]	n/a	FR1	2	R1166D
1978.344	1.617	1990447	WORD	n/a	wordpools/wordpool_EN.txt	LAMP	5	16	[0, 0, 0]	n/a	FR1	2	R1166D
1979.961	0.95	1992064	WORD_OFF	n/a	n/a	LAMP	5	16	[0, 0, 0]	n/a	FR1	2	R1166D
1980.911	1.617	1993014	WORD	n/a	wordpools/wordpool_EN.txt	CHAIR	6	16	[0, 0, 0]	n/a	FR1	2	R1166D
1982.528	0.783	1994631	WORD_OFF	n/a	n/a	CHAIR	6	16	[0, 0, 0]	n/a	FR1	2	R1166D
1983.311	1.617	1995414	WORD	n/a	wordpools/wordpool_EN.txt	SLUSH	7	16	[0, 0, 0]	n/a	FR1	2	R1166D
1984.928	0.949	1997031	WORD_OFF	n/a	n/a	SLUSH	7	16	[0, 0, 0]	n/a	FR1	2	R1166D
1985.877	1.618	1997980	WORD	n/a	wordpools/wordpool_EN.txt	VEST	8	16	[0, 0, 0]	n/a	FR1	2	R1166D
1987.495	0.767	1999597	WORD_OFF	n/a	n/a	VEST	8	16	[0, 0, 0]	n/a	FR1	2	R1166D
1988.262	1.616	2000364	WORD	n/a	wordpools/wordpool_EN.txt	CLOTH	9	16	[0, 0, 0]	n/a	FR1	2	R1166D
1989.878	0.784	2001980	WORD_OFF	n/a	n/a	CLOTH	9	16	[0, 0, 0]	n/a	FR1	2	R1166D
1990.662	1.617	2002764	WORD	n/a	wordpools/wordpool_EN.txt	STOVE	10	16	[0, 0, 0]	n/a	FR1	2	R1166D
1992.279	0.884	2004381	WORD_OFF	n/a	n/a	STOVE	10	16	[0, 0, 0]	n/a	FR1	2	R1166D
1993.163	1.616	2005265	WORD	n/a	wordpools/wordpool_EN.txt	HOSE	11	16	[0, 0, 0]	n/a	FR1	2	R1166D
1994.779	0.768	2006881	WORD_OFF	n/a	n/a	HOSE	11	16	[0, 0, 0]	n/a	FR1	2	R1166D
1995.547	1.617	2007649	WORD	n/a	wordpools/wordpool_EN.txt	FLAME	12	16	[0, 0, 0]	n/a	FR1	2	R1166D
1997.164	0.0	2009266	WORD_OFF	n/a	n/a	FLAME	12	16	[0, 0, 0]	n/a	FR1	2	R1166D
1997.164	0.0	2009266	DISTRACT_START	n/a	n/a	n/a	-999	16	[0, 0, 0]	n/a	FR1	2	R1166D
1997.164	0.016	2009266	START	n/a	n/a	n/a	-999	16	[-999, -999, -999]	n/a	FR1	2	R1166D
1997.18	3.251	2009282	PROB	3.251	n/a	n/a	-999	16	[8, 1, 5]	14	FR1	2	R1166D
2000.431	2.266	2012533	PROB	2.266	n/a	n/a	-999	16	[1, 5, 3]	9	FR1	2	R1166D
2002.697	2.768	2014799	PROB	2.768	n/a	n/a	-999	16	[4, 2, 8]	14	FR1	2	R1166D
2005.465	3.451	2017566	PROB	3.451	n/a	n/a	-999	16	[2, 9, 6]	17	FR1	2	R1166D
2008.916	1.783	2021017	PROB	1.783	n/a	n/a	-999	16	[8, 2, 3]	13	FR1	2	R1166D
2010.699	2.0	2022800	PROB	2.0	n/a	n/a	-999	16	[1, 7, 1]	9	FR1	2	R1166D
2012.699	1.768	2024800	PROB	1.768	n/a	n/a	-999	16	[3, 3, 1]	7	FR1	2	R1166D
2014.467	1.767	2026568	PROB	1.767	n/a	n/a	-999	16	[1, 3, 4]	8	FR1	2	R1166D
2016.234	3.723	2028335	PROB	3.723	n/a	n/a	-999	16	[5, 4, 8]	17	FR1	2	R1166D
2019.957	0.011	2032058	STOP	n/a	n/a	n/a	-999	16	[-999, -999, -999]	n/a	FR1	2	R1166D
2019.968	0.533	2032069	DISTRACT_END	n/a	n/a	n/a	-999	16	[0, 0, 0]	n/a	FR1	2	R1166D
2020.501	0.518	2032602	RETRIEVAL_ORIENT	n/a	n/a	n/a	-999	16	[0, 0, 0]	n/a	FR1	2	R1166D
2021.019	3.948	2033120	REC_START	n/a	n/a	n/a	-999	16	[0, 0, 0]	n/a	FR1	2	R1166D
2024.967	3.097	2037067	REC_WORD	3.097	n/a	STAIR	2	16	[0, 0, 0]	n/a	FR1	2	R1166D
2028.064	4.841	2040164	REC_WORD	4.841	n/a	SINK	3	16	[0, 0, 0]	n/a	FR1	2	R1166D
2032.905	5.06	2045005	REC_WORD	5.06	n/a	ROPE	4	16	[0, 0, 0]	n/a	FR1	2	R1166D
2037.965	13.063	2050065	REC_WORD	13.063	n/a	SOAP	1	16	[0, 0, 0]	n/a	FR1	2	R1166D
2051.028	16.598	2063127	REC_END	n/a	n/a	n/a	-999	16	[0, 0, 0]	n/a	FR1	2	R1166D
2067.626	0.5	2079724	TRIAL	n/a	n/a	n/a	-999	17	[0, 0, 0]	n/a	FR1	2	R1166D
2068.126	10.428	2080224	COUNTDOWN_START	n/a	n/a	n/a	-999	17	[0, 0, 0]	n/a	FR1	2	R1166D
2078.554	0.008	2090652	COUNTDOWN_END	n/a	n/a	n/a	-999	17	[0, 0, 0]	n/a	FR1	2	R1166D
2078.562	1.617	2090660	ORIENT	n/a	n/a	n/a	-999	17	[0, 0, 0]	n/a	FR1	2	R1166D
2080.179	1.817	2092276	ORIENT_OFF	n/a	n/a	n/a	-999	17	[0, 0, 0]	n/a	FR1	2	R1166D
2081.996	1.617	2094093	WORD	n/a	wordpools/wordpool_EN.txt	HOUSE	1	17	[0, 0, 0]	n/a	FR1	2	R1166D
2083.613	0.783	2095710	WORD_OFF	n/a	n/a	HOUSE	1	17	[0, 0, 0]	n/a	FR1	2	R1166D
2084.396	1.617	2096493	WORD	n/a	wordpools/wordpool_EN.txt	EAR	2	17	[0, 0, 0]	n/a	FR1	2	R1166D
2086.013	0.849	2098110	WORD_OFF	n/a	n/a	EAR	2	17	[0, 0, 0]	n/a	FR1	2	R1166D
2086.862	1.618	2098959	WORD	n/a	wordpools/wordpool_EN.txt	HAWK	3	17	[0, 0, 0]	n/a	FR1	2	R1166D
2088.48	0.85	2100577	WORD_OFF	n/a	n/a	HAWK	3	17	[0, 0, 0]	n/a	FR1	2	R1166D
2089.33	1.617	2101427	WORD	n/a	wordpools/wordpool_EN.txt	MOLE	4	17	[0, 0, 0]	n/a	FR1	2	R1166D
2090.947	1.001	2103044	WORD_OFF	n/a	n/a	MOLE	4	17	[0, 0, 0]	n/a	FR1	2	R1166D
2091.948	1.617	2104045	WORD	n/a	wordpools/wordpool_EN.txt	PIG	5	17	[0, 0, 0]	n/a	FR1	2	R1166D
2093.565	1.0	2105662	WORD_OFF	n/a	n/a	PIG	5	17	[0, 0, 0]	n/a	FR1	2	R1166D
2094.565	1.617	2106662	WORD	n/a	wordpools/wordpool_EN.txt	BUSH	6	17	[0, 0, 0]	n/a	FR1	2	R1166D
2096.182	0.917	2108279	WORD_OFF	n/a	n/a	BUSH	6	17	[0, 0, 0]	n/a	FR1	2	R1166D
2097.099	1.616	2109196	WORD	n/a	wordpools/wordpool_EN.txt	TOAD	7	17	[0, 0, 0]	n/a	FR1	2	R1166D
2098.715	0.884	2110811	WORD_OFF	n/a	n/a	TOAD	7	17	[0, 0, 0]	n/a	FR1	2	R1166D
2099.599	1.617	2111695	WORD	n/a	wordpools/wordpool_EN.txt	DRUM	8	17	[0, 0, 0]	n/a	FR1	2	R1166D
2101.216	0.817	2113312	WORD_OFF	n/a	n/a	DRUM	8	17	[0, 0, 0]	n/a	FR1	2	R1166D
2102.033	1.616	2114129	WORD	n/a	wordpools/wordpool_EN.txt	STRING	9	17	[0, 0, 0]	n/a	FR1	2	R1166D
2103.649	0.918	2115745	WORD_OFF	n/a	n/a	STRING	9	17	[0, 0, 0]	n/a	FR1	2	R1166D
2104.567	1.617	2116663	WORD	n/a	wordpools/wordpool_EN.txt	WAND	10	17	[0, 0, 0]	n/a	FR1	2	R1166D
2106.184	0.9	2118280	WORD_OFF	n/a	n/a	WAND	10	17	[0, 0, 0]	n/a	FR1	2	R1166D
2107.084	1.616	2119180	WORD	n/a	wordpools/wordpool_EN.txt	SMILE	11	17	[0, 0, 0]	n/a	FR1	2	R1166D
2108.7	0.983	2120796	WORD_OFF	n/a	n/a	SMILE	11	17	[0, 0, 0]	n/a	FR1	2	R1166D
2109.683	1.618	2121779	WORD	n/a	wordpools/wordpool_EN.txt	MUG	12	17	[0, 0, 0]	n/a	FR1	2	R1166D
2111.301	0.0	2123397	WORD_OFF	n/a	n/a	MUG	12	17	[0, 0, 0]	n/a	FR1	2	R1166D
2111.301	0.001	2123397	DISTRACT_START	n/a	n/a	n/a	-999	17	[0, 0, 0]	n/a	FR1	2	R1166D
2111.302	0.016	2123398	START	n/a	n/a	n/a	-999	17	[-999, -999, -999]	n/a	FR1	2	R1166D
2111.318	4.951	2123414	PROB	4.951	n/a	n/a	-999	17	[4, 2, 7]	13	FR1	2	R1166D
2116.269	4.05	2128365	PROB	4.05	n/a	n/a	-999	17	[5, 3, 7]	15	FR1	2	R1166D
2120.319	3.201	2132414	PROB	3.201	n/a	n/a	-999	17	[4, 7, 3]	14	FR1	2	R1166D
2123.52	3.717	2135615	PROB	3.717	n/a	n/a	-999	17	[8, 3, 8]	19	FR1	2	R1166D
2127.237	4.097	2139332	PROB	4.097	n/a	n/a	-999	17	[2, 3, 4]	9	FR1	2	R1166D
2131.334	0.021	2143429	STOP	n/a	n/a	n/a	-999	17	[-999, -999, -999]	n/a	FR1	2	R1166D
2131.355	0.55	2143450	DISTRACT_END	n/a	n/a	n/a	-999	17	[0, 0, 0]	n/a	FR1	2	R1166D
2131.905	0.517	2144000	RETRIEVAL_ORIENT	n/a	n/a	n/a	-999	17	[0, 0, 0]	n/a	FR1	2	R1166D
2132.422	1.581	2144517	REC_START	n/a	n/a	n/a	-999	17	[0, 0, 0]	n/a	FR1	2	R1166D
2134.003	28.43	2146098	REC_WORD	28.43	n/a	TOAD	7	17	[0, 0, 0]	n/a	FR1	2	R1166D
2162.433	5.912	2174526	REC_END	n/a	n/a	n/a	-999	17	[0, 0, 0]	n/a	FR1	2	R1166D
2168.345	0.5	2180438	TRIAL	n/a	n/a	n/a	-999	18	[0, 0, 0]	n/a	FR1	2	R1166D
2168.845	10.428	2180938	COUNTDOWN_START	n/a	n/a	n/a	-999	18	[0, 0, 0]	n/a	FR1	2	R1166D
2179.273	0.007	2191365	COUNTDOWN_END	n/a	n/a	n/a	-999	18	[0, 0, 0]	n/a	FR1	2	R1166D
2179.28	1.617	2191372	ORIENT	n/a	n/a	n/a	-999	18	[0, 0, 0]	n/a	FR1	2	R1166D
2180.897	2.151	2192989	ORIENT_OFF	n/a	n/a	n/a	-999	18	[0, 0, 0]	n/a	FR1	2	R1166D
2183.048	1.616	2195140	WORD	n/a	wordpools/wordpool_EN.txt	SEAL	1	18	[0, 0, 0]	n/a	FR1	2	R1166D
2184.664	0.834	2196756	WORD_OFF	n/a	n/a	SEAL	1	18	[0, 0, 0]	n/a	FR1	2	R1166D
2185.498	1.617	2197590	WORD	n/a	wordpools/wordpool_EN.txt	CLOCK	2	18	[0, 0, 0]	n/a	FR1	2	R1166D
2187.115	0.833	2199207	WORD_OFF	n/a	n/a	CLOCK	2	18	[0, 0, 0]	n/a	FR1	2	R1166D
2187.948	1.617	2200040	WORD	n/a	wordpools/wordpool_EN.txt	SIGN	3	18	[0, 0, 0]	n/a	FR1	2	R1166D
2189.565	0.834	2201657	WORD_OFF	n/a	n/a	SIGN	3	18	[0, 0, 0]	n/a	FR1	2	R1166D
2190.399	1.617	2202491	WORD	n/a	wordpools/wordpool_EN.txt	SHARK	4	18	[0, 0, 0]	n/a	FR1	2	R1166D
2192.016	0.849	2204107	WORD_OFF	n/a	n/a	SHARK	4	18	[0, 0, 0]	n/a	FR1	2	R1166D
2192.865	1.601	2204956	WORD	n/a	wordpools/wordpool_EN.txt	PANTS	5	18	[0, 0, 0]	n/a	FR1	2	R1166D
2194.466	0.9	2206557	WORD_OFF	n/a	n/a	PANTS	5	18	[0, 0, 0]	n/a	FR1	2	R1166D
2195.366	1.617	2207457	WORD	n/a	wordpools/wordpool_EN.txt	DRESS	6	18	[0, 0, 0]	n/a	FR1	2	R1166D
2196.983	0.934	2209074	WORD_OFF	n/a	n/a	DRESS	6	18	[0, 0, 0]	n/a	FR1	2	R1166D
2197.917	1.617	2210008	WORD	n/a	wordpools/wordpool_EN.txt	BEACH	7	18	[0, 0, 0]	n/a	FR1	2	R1166D
2199.534	0.783	2211625	WORD_OFF	n/a	n/a	BEACH	7	18	[0, 0, 0]	n/a	FR1	2	R1166D
2200.317	1.617	2212408	WORD	n/a	wordpools/wordpool_EN.txt	GLASS	8	18	[0, 0, 0]	n/a	FR1	2	R1166D
2201.934	0.883	2214025	WORD_OFF	n/a	n/a	GLASS	8	18	[0, 0, 0]	n/a	FR1	2	R1166D
2202.817	1.618	2214908	WORD	n/a	wordpools/wordpool_EN.txt	FORK	9	18	[0, 0, 0]	n/a	FR1	2	R1166D
2204.435	0.85	2216526	WORD_OFF	n/a	n/a	FORK	9	18	[0, 0, 0]	n/a	FR1	2	R1166D
2205.285	1.617	2217376	WORD	n/a	wordpools/wordpool_EN.txt	WAVE	10	18	[0, 0, 0]	n/a	FR1	2	R1166D
2206.902	0.899	2218993	WORD_OFF	n/a	n/a	WAVE	10	18	[0, 0, 0]	n/a	FR1	2	R1166D
2207.801	1.618	2219892	WORD	n/a	wordpools/wordpool_EN.txt	ROCK	11	18	[0, 0, 0]	n/a	FR1	2	R1166D
2209.419	1.017	2221509	WORD_OFF	n/a	n/a	ROCK	11	18	[0, 0, 0]	n/a	FR1	2	R1166D
2210.436	1.617	2222526	WORD	n/a	wordpools/wordpool_EN.txt	SNAIL	12	18	[0, 0, 0]	n/a	FR1	2	R1166D
2212.053	0.0	2224143	WORD_OFF	n/a	n/a	SNAIL	12	18	[0, 0, 0]	n/a	FR1	2	R1166D
2212.053	0.0	2224143	DISTRACT_START	n/a	n/a	n/a	-999	18	[0, 0, 0]	n/a	FR1	2	R1166D
2212.053	0.016	2224143	START	n/a	n/a	n/a	-999	18	[-999, -999, -999]	n/a	FR1	2	R1166D
2212.069	4.835	2224159	PROB	4.835	n/a	n/a	-999	18	[8, 2, 4]	14	FR1	2	R1166D
2216.904	7.001	2228994	PROB	7.001	n/a	n/a	-999	18	[6, 4, 7]	17	FR1	2	R1166D
2223.905	3.734	2235995	PROB	3.734	n/a	n/a	-999	18	[3, 4, 8]	15	FR1	2	R1166D
2227.639	2.634	2239728	PROB	2.634	n/a	n/a	-999	18	[5, 3, 8]	16	FR1	2	R1166D
2230.273	3.926	2242362	PROB	3.926	n/a	n/a	-999	18	[7, 8, 4]	18	FR1	2	R1166D
2234.199	0.007	2246288	STOP	n/a	n/a	n/a	-999	18	[-999, -999, -999]	n/a	FR1	2	R1166D
2234.206	0.701	2246295	DISTRACT_END	n/a	n/a	n/a	-999	18	[0, 0, 0]	n/a	FR1	2	R1166D
2234.907	0.517	2246996	RETRIEVAL_ORIENT	n/a	n/a	n/a	-999	18	[0, 0, 0]	n/a	FR1	2	R1166D
2235.424	14.187	2247513	REC_START	n/a	n/a	n/a	-999	18	[0, 0, 0]	n/a	FR1	2	R1166D
2249.611	15.825	2261699	REC_WORD	15.825	n/a	DRESS	6	18	[0, 0, 0]	n/a	FR1	2	R1166D
2265.436	5.343	2277523	REC_END	n/a	n/a	n/a	-999	18	[0, 0, 0]	n/a	FR1	2	R1166D
2270.779	0.5	2282866	TRIAL	n/a	n/a	n/a	-999	19	[0, 0, 0]	n/a	FR1	2	R1166D
2271.279	10.428	2283366	COUNTDOWN_START	n/a	n/a	n/a	-999	19	[0, 0, 0]	n/a	FR1	2	R1166D
2281.707	0.007	2293794	COUNTDOWN_END	n/a	n/a	n/a	-999	19	[0, 0, 0]	n/a	FR1	2	R1166D
2281.714	1.618	2293801	ORIENT	n/a	n/a	n/a	-999	19	[0, 0, 0]	n/a	FR1	2	R1166D
2283.332	1.967	2295418	ORIENT_OFF	n/a	n/a	n/a	-999	19	[0, 0, 0]	n/a	FR1	2	R1166D
2285.299	1.617	2297385	WORD	n/a	wordpools/wordpool_EN.txt	BOWL	1	19	[0, 0, 0]	n/a	FR1	2	R1166D
2286.916	0.833	2299002	WORD_OFF	n/a	n/a	BOWL	1	19	[0, 0, 0]	n/a	FR1	2	R1166D
2287.749	1.601	2299835	WORD	n/a	wordpools/wordpool_EN.txt	FOOD	2	19	[0, 0, 0]	n/a	FR1	2	R1166D
2289.35	0.817	2301436	WORD_OFF	n/a	n/a	FOOD	2	19	[0, 0, 0]	n/a	FR1	2	R1166D
2290.167	1.616	2302253	WORD	n/a	wordpools/wordpool_EN.txt	WHEEL	3	19	[0, 0, 0]	n/a	FR1	2	R1166D
2291.783	0.967	2303869	WORD_OFF	n/a	n/a	WHEEL	3	19	[0, 0, 0]	n/a	FR1	2	R1166D
2292.75	1.618	2304836	WORD	n/a	wordpools/wordpool_EN.txt	ROAD	4	19	[0, 0, 0]	n/a	FR1	2	R1166D
2294.368	1.017	2306454	WORD_OFF	n/a	n/a	ROAD	4	19	[0, 0, 0]	n/a	FR1	2	R1166D
2295.385	1.617	2307471	WORD	n/a	wordpools/wordpool_EN.txt	CLAY	5	19	[0, 0, 0]	n/a	FR1	2	R1166D
2297.002	0.95	2309088	WORD_OFF	n/a	n/a	CLAY	5	19	[0, 0, 0]	n/a	FR1	2	R1166D
2297.952	1.617	2310038	WORD	n/a	wordpools/wordpool_EN.txt	SQUARE	6	19	[0, 0, 0]	n/a	FR1	2	R1166D
2299.569	0.766	2311655	WORD_OFF	n/a	n/a	SQUARE	6	19	[0, 0, 0]	n/a	FR1	2	R1166D
2300.335	1.617	2312421	WORD	n/a	wordpools/wordpool_EN.txt	KEY	7	19	[0, 0, 0]	n/a	FR1	2	R1166D
2301.952	0.866	2314037	WORD_OFF	n/a	n/a	KEY	7	19	[0, 0, 0]	n/a	FR1	2	R1166D
2302.818	1.618	2314903	WORD	n/a	wordpools/wordpool_EN.txt	PHONE	8	19	[0, 0, 0]	n/a	FR1	2	R1166D
2304.436	0.984	2316521	WORD_OFF	n/a	n/a	PHONE	8	19	[0, 0, 0]	n/a	FR1	2	R1166D
2305.42	1.617	2317505	WORD	n/a	wordpools/wordpool_EN.txt	FUDGE	9	19	[0, 0, 0]	n/a	FR1	2	R1166D
2307.037	0.782	2319122	WORD_OFF	n/a	n/a	FUDGE	9	19	[0, 0, 0]	n/a	FR1	2	R1166D
2307.819	1.601	2319904	WORD	n/a	wordpools/wordpool_EN.txt	FLEA	10	19	[0, 0, 0]	n/a	FR1	2	R1166D
2309.42	1.001	2321505	WORD_OFF	n/a	n/a	FLEA	10	19	[0, 0, 0]	n/a	FR1	2	R1166D
2310.421	1.617	2322506	WORD	n/a	wordpools/wordpool_EN.txt	CAR	11	19	[0, 0, 0]	n/a	FR1	2	R1166D
2312.038	0.883	2324123	WORD_OFF	n/a	n/a	CAR	11	19	[0, 0, 0]	n/a	FR1	2	R1166D
2312.921	1.617	2325006	WORD	n/a	wordpools/wordpool_EN.txt	BREAD	12	19	[0, 0, 0]	n/a	FR1	2	R1166D
2314.538	0.0	2326623	WORD_OFF	n/a	n/a	BREAD	12	19	[0, 0, 0]	n/a	FR1	2	R1166D
2314.538	0.001	2326623	DISTRACT_START	n/a	n/a	n/a	-999	19	[0, 0, 0]	n/a	FR1	2	R1166D
2314.539	0.016	2326624	START	n/a	n/a	n/a	-999	19	[-999, -999, -999]	n/a	FR1	2	R1166D
2314.555	2.8	2326640	PROB	2.8	n/a	n/a	-999	19	[2, 6, 6]	14	FR1	2	R1166D
2317.355	5.285	2329440	PROB	5.285	n/a	n/a	-999	19	[7, 7, 8]	22	FR1	2	R1166D
2322.64	2.049	2334724	PROB	2.049	n/a	n/a	-999	19	[9, 3, 1]	13	FR1	2	R1166D
2324.689	4.368	2336773	PROB	4.368	n/a	n/a	-999	19	[5, 9, 7]	21	FR1	2	R1166D
2329.057	4.318	2341141	PROB	4.318	n/a	n/a	-999	19	[8, 6, 5]	18	FR1	2	R1166D
2333.375	4.862	2345459	PROB	4.862	n/a	n/a	-999	19	[4, 9, 1]	14	FR1	2	R1166D
2338.237	0.022	2350321	STOP	n/a	n/a	n/a	-999	19	[-999, -999, -999]	n/a	FR1	2	R1166D
2338.259	0.634	2350343	DISTRACT_END	n/a	n/a	n/a	-999	19	[0, 0, 0]	n/a	FR1	2	R1166D
2338.893	0.517	2350976	RETRIEVAL_ORIENT	n/a	n/a	n/a	-999	19	[0, 0, 0]	n/a	FR1	2	R1166D
2339.41	2.571	2351493	REC_START	n/a	n/a	n/a	-999	19	[0, 0, 0]	n/a	FR1	2	R1166D
2341.981	27.441	2354064	REC_WORD_VV	27.441	n/a	<>	-999	19	[0, 0, 0]	n/a	FR1	2	R1166D
2369.422	22.997	2381504	REC_END	n/a	n/a	n/a	-999	19	[0, 0, 0]	n/a	FR1	2	R1166D
2392.419	0.5	2404500	TRIAL	n/a	n/a	n/a	-999	20	[0, 0, 0]	n/a	FR1	2	R1166D
2392.919	10.428	2405000	COUNTDOWN_START	n/a	n/a	n/a	-999	20	[0, 0, 0]	n/a	FR1	2	R1166D
2403.347	0.007	2415427	COUNTDOWN_END	n/a	n/a	n/a	-999	20	[0, 0, 0]	n/a	FR1	2	R1166D
2403.354	1.617	2415434	ORIENT	n/a	n/a	n/a	-999	20	[0, 0, 0]	n/a	FR1	2	R1166D
2404.971	2.034	2417051	ORIENT_OFF	n/a	n/a	n/a	-999	20	[0, 0, 0]	n/a	FR1	2	R1166D
2407.005	1.617	2419085	WORD	n/a	wordpools/wordpool_EN.txt	MILK	1	20	[0, 0, 0]	n/a	FR1	2	R1166D
2408.622	0.783	2420702	WORD_OFF	n/a	n/a	MILK	1	20	[0, 0, 0]	n/a	FR1	2	R1166D
2409.405	1.617	2421485	WORD	n/a	wordpools/wordpool_EN.txt	TOOTH	2	20	[0, 0, 0]	n/a	FR1	2	R1166D
2411.022	0.884	2423102	WORD_OFF	n/a	n/a	TOOTH	2	20	[0, 0, 0]	n/a	FR1	2	R1166D
2411.906	1.617	2423986	WORD	n/a	wordpools/wordpool_EN.txt	BRANCH	3	20	[0, 0, 0]	n/a	FR1	2	R1166D
2413.523	0.767	2425602	WORD_OFF	n/a	n/a	BRANCH	3	20	[0, 0, 0]	n/a	FR1	2	R1166D
2414.29	1.617	2426369	WORD	n/a	wordpools/wordpool_EN.txt	BLOOM	4	20	[0, 0, 0]	n/a	FR1	2	R1166D
2415.907	0.898	2427986	WORD_OFF	n/a	n/a	BLOOM	4	20	[0, 0, 0]	n/a	FR1	2	R1166D
2416.805	1.602	2428884	WORD	n/a	wordpools/wordpool_EN.txt	WING	5	20	[0, 0, 0]	n/a	FR1	2	R1166D
2418.407	0.917	2430486	WORD_OFF	n/a	n/a	WING	5	20	[0, 0, 0]	n/a	FR1	2	R1166D
2419.324	1.617	2431403	WORD	n/a	wordpools/wordpool_EN.txt	STEM	6	20	[0, 0, 0]	n/a	FR1	2	R1166D
2420.941	0.782	2433020	WORD_OFF	n/a	n/a	STEM	6	20	[0, 0, 0]	n/a	FR1	2	R1166D
2421.723	1.618	2433802	WORD	n/a	wordpools/wordpool_EN.txt	MOUTH	7	20	[0, 0, 0]	n/a	FR1	2	R1166D
2423.341	0.967	2435420	WORD_OFF	n/a	n/a	MOUTH	7	20	[0, 0, 0]	n/a	FR1	2	R1166D
2424.308	1.617	2436387	WORD	n/a	wordpools/wordpool_EN.txt	TANK	8	20	[0, 0, 0]	n/a	FR1	2	R1166D
2425.925	0.883	2438004	WORD_OFF	n/a	n/a	TANK	8	20	[0, 0, 0]	n/a	FR1	2	R1166D
2426.808	1.617	2438887	WORD	n/a	wordpools/wordpool_EN.txt	TEETH	9	20	[0, 0, 0]	n/a	FR1	2	R1166D
2428.425	0.784	2440504	WORD_OFF	n/a	n/a	TEETH	9	20	[0, 0, 0]	n/a	FR1	2	R1166D
2429.209	1.616	2441288	WORD	n/a	wordpools/wordpool_EN.txt	ROOT	10	20	[0, 0, 0]	n/a	FR1	2	R1166D
2430.825	0.817	2442904	WORD_OFF	n/a	n/a	ROOT	10	20	[0, 0, 0]	n/a	FR1	2	R1166D
2431.642	1.601	2443720	WORD	n/a	wordpools/wordpool_EN.txt	APE	11	20	[0, 0, 0]	n/a	FR1	2	R1166D
2433.243	0.95	2445321	WORD_OFF	n/a	n/a	APE	11	20	[0, 0, 0]	n/a	FR1	2	R1166D
2434.193	1.616	2446271	WORD	n/a	wordpools/wordpool_EN.txt	SEA	12	20	[0, 0, 0]	n/a	FR1	2	R1166D
2435.809	0.0	2447887	WORD_OFF	n/a	n/a	SEA	12	20	[0, 0, 0]	n/a	FR1	2	R1166D
2435.809	0.001	2447887	DISTRACT_START	n/a	n/a	n/a	-999	20	[0, 0, 0]	n/a	FR1	2	R1166D
2435.81	0.016	2447888	START	n/a	n/a	n/a	-999	20	[-999, -999, -999]	n/a	FR1	2	R1166D
2435.826	2.85	2447904	PROB	2.85	n/a	n/a	-999	20	[6, 5, 1]	12	FR1	2	R1166D
2438.676	2.268	2450754	PROB	2.268	n/a	n/a	-999	20	[8, 1, 8]	19	FR1	2	R1166D
2440.944	3.767	2453022	PROB	3.767	n/a	n/a	-999	20	[5, 7, 7]	19	FR1	2	R1166D
2444.711	3.802	2456789	PROB	3.802	n/a	n/a	-999	20	[8, 3, 3]	14	FR1	2	R1166D
2448.513	4.166	2460591	PROB	4.166	n/a	n/a	-999	20	[9, 8, 3]	20	FR1	2	R1166D
2452.679	1.751	2464756	PROB	1.751	n/a	n/a	-999	20	[1, 9, 1]	11	FR1	2	R1166D
2454.43	2.287	2466507	PROB	2.287	n/a	n/a	-999	20	[4, 4, 2]	10	FR1	2	R1166D
2456.717	0.013	2468794	STOP	n/a	n/a	n/a	-999	20	[-999, -999, -999]	n/a	FR1	2	R1166D
2456.73	0.651	2468807	DISTRACT_END	n/a	n/a	n/a	-999	20	[0, 0, 0]	n/a	FR1	2	R1166D
2457.381	0.517	2469458	RETRIEVAL_ORIENT	n/a	n/a	n/a	-999	20	[0, 0, 0]	n/a	FR1	2	R1166D
2457.898	5.5	2469975	REC_START	n/a	n/a	n/a	-999	20	[0, 0, 0]	n/a	FR1	2	R1166D
2463.398	1.181	2475475	REC_WORD	1.181	n/a	TOOTH	2	20	[0, 0, 0]	n/a	FR1	2	R1166D
2464.579	1.599	2476656	REC_WORD	1.599	n/a	TEETH	9	20	[0, 0, 0]	n/a	FR1	2	R1166D
2466.178	1.964	2478255	REC_WORD	1.964	n/a	MOUTH	7	20	[0, 0, 0]	n/a	FR1	2	R1166D
2468.142	19.767	2480219	REC_WORD	19.767	n/a	MILK	1	20	[0, 0, 0]	n/a	FR1	2	R1166D
2487.909	32.35	2499984	REC_END	n/a	n/a	n/a	-999	20	[0, 0, 0]	n/a	FR1	2	R1166D
2520.259	0.5	2532333	TRIAL	n/a	n/a	n/a	-999	21	[0, 0, 0]	n/a	FR1	2	R1166D
2520.759	10.428	2532833	COUNTDOWN_START	n/a	n/a	n/a	-999	21	[0, 0, 0]	n/a	FR1	2	R1166D
2531.187	0.007	2543260	COUNTDOWN_END	n/a	n/a	n/a	-999	21	[0, 0, 0]	n/a	FR1	2	R1166D
2531.194	1.616	2543267	ORIENT	n/a	n/a	n/a	-999	21	[0, 0, 0]	n/a	FR1	2	R1166D
2532.81	1.951	2544883	ORIENT_OFF	n/a	n/a	n/a	-999	21	[0, 0, 0]	n/a	FR1	2	R1166D
2534.761	1.617	2546834	WORD	n/a	wordpools/wordpool_EN.txt	SMOKE	1	21	[0, 0, 0]	n/a	FR1	2	R1166D
2536.378	0.934	2548451	WORD_OFF	n/a	n/a	SMOKE	1	21	[0, 0, 0]	n/a	FR1	2	R1166D
2537.312	1.617	2549385	WORD	n/a	wordpools/wordpool_EN.txt	CASH	2	21	[0, 0, 0]	n/a	FR1	2	R1166D
2538.929	0.899	2551002	WORD_OFF	n/a	n/a	CASH	2	21	[0, 0, 0]	n/a	FR1	2	R1166D
2539.828	1.618	2551901	WORD	n/a	wordpools/wordpool_EN.txt	JET	3	21	[0, 0, 0]	n/a	FR1	2	R1166D
2541.446	0.917	2553519	WORD_OFF	n/a	n/a	JET	3	21	[0, 0, 0]	n/a	FR1	2	R1166D
2542.363	1.617	2554436	WORD	n/a	wordpools/wordpool_EN.txt	PRINCE	4	21	[0, 0, 0]	n/a	FR1	2	R1166D
2543.98	0.782	2556052	WORD_OFF	n/a	n/a	PRINCE	4	21	[0, 0, 0]	n/a	FR1	2	R1166D
2544.762	1.601	2556834	WORD	n/a	wordpools/wordpool_EN.txt	BLUSH	5	21	[0, 0, 0]	n/a	FR1	2	R1166D
2546.363	0.917	2558435	WORD_OFF	n/a	n/a	BLUSH	5	21	[0, 0, 0]	n/a	FR1	2	R1166D
2547.28	1.617	2559352	WORD	n/a	wordpools/wordpool_EN.txt	SCHOOL	6	21	[0, 0, 0]	n/a	FR1	2	R1166D
2548.897	0.783	2560969	WORD_OFF	n/a	n/a	SCHOOL	6	21	[0, 0, 0]	n/a	FR1	2	R1166D
2549.68	1.618	2561752	WORD	n/a	wordpools/wordpool_EN.txt	PLANE	7	21	[0, 0, 0]	n/a	FR1	2	R1166D
2551.298	0.833	2563370	WORD_OFF	n/a	n/a	PLANE	7	21	[0, 0, 0]	n/a	FR1	2	R1166D
2552.131	1.616	2564203	WORD	n/a	wordpools/wordpool_EN.txt	BRIDGE	8	21	[0, 0, 0]	n/a	FR1	2	R1166D
2553.747	0.967	2565819	WORD_OFF	n/a	n/a	BRIDGE	8	21	[0, 0, 0]	n/a	FR1	2	R1166D
2554.714	1.618	2566786	WORD	n/a	wordpools/wordpool_EN.txt	MAP	9	21	[0, 0, 0]	n/a	FR1	2	R1166D
2556.332	0.984	2568404	WORD_OFF	n/a	n/a	MAP	9	21	[0, 0, 0]	n/a	FR1	2	R1166D
2557.316	1.617	2569388	WORD	n/a	wordpools/wordpool_EN.txt	HEART	10	21	[0, 0, 0]	n/a	FR1	2	R1166D
2558.933	0.899	2571005	WORD_OFF	n/a	n/a	HEART	10	21	[0, 0, 0]	n/a	FR1	2	R1166D
2559.832	1.618	2571904	WORD	n/a	wordpools/wordpool_EN.txt	BEAR	11	21	[0, 0, 0]	n/a	FR1	2	R1166D
2561.45	0.833	2573521	WORD_OFF	n/a	n/a	BEAR	11	21	[0, 0, 0]	n/a	FR1	2	R1166D
2562.283	1.617	2574354	WORD	n/a	wordpools/wordpool_EN.txt	FILM	12	21	[0, 0, 0]	n/a	FR1	2	R1166D
2563.9	0.0	2575971	WORD_OFF	n/a	n/a	FILM	12	21	[0, 0, 0]	n/a	FR1	2	R1166D
2563.9	0.001	2575971	DISTRACT_START	n/a	n/a	n/a	-999	21	[0, 0, 0]	n/a	FR1	2	R1166D
2563.901	0.016	2575972	START	n/a	n/a	n/a	-999	21	[-999, -999, -999]	n/a	FR1	2	R1166D
2563.917	3.467	2575988	PROB	3.467	n/a	n/a	-999	21	[3, 3, 2]	8	FR1	2	R1166D
2567.384	3.117	2579455	PROB	3.117	n/a	n/a	-999	21	[2, 7, 6]	15	FR1	2	R1166D
2570.501	4.668	2582572	PROB	4.668	n/a	n/a	-999	21	[2, 3, 9]	14	FR1	2	R1166D
2575.169	3.784	2587240	PROB	3.784	n/a	n/a	-999	21	[8, 5, 3]	16	FR1	2	R1166D
2578.953	3.217	2591024	PROB	3.217	n/a	n/a	-999	21	[1, 8, 9]	18	FR1	2	R1166D
2582.17	7.115	2594240	PROB	7.115	n/a	n/a	-999	21	[9, 6, 9]	24	FR1	2	R1166D
2589.285	0.02	2601355	STOP	n/a	n/a	n/a	-999	21	[-999, -999, -999]	n/a	FR1	2	R1166D
2589.305	0.667	2601375	DISTRACT_END	n/a	n/a	n/a	-999	21	[0, 0, 0]	n/a	FR1	2	R1166D
2589.972	0.518	2602042	RETRIEVAL_ORIENT	n/a	n/a	n/a	-999	21	[0, 0, 0]	n/a	FR1	2	R1166D
2590.49	1.257	2602560	REC_START	n/a	n/a	n/a	-999	21	[0, 0, 0]	n/a	FR1	2	R1166D
2591.747	7.862	2603817	REC_WORD	7.862	n/a	SMOKE	1	21	[0, 0, 0]	n/a	FR1	2	R1166D
2599.609	2.233	2611678	REC_WORD	2.233	n/a	PLANE	7	21	[0, 0, 0]	n/a	FR1	2	R1166D
2601.842	17.322	2613911	REC_WORD	17.322	n/a	BRIDGE	8	21	[0, 0, 0]	n/a	FR1	2	R1166D
2619.164	1.336	2631232	REC_WORD	1.336	n/a	ROAD	-999	21	[0, 0, 0]	n/a	FR1	2	R1166D
2620.5	53.02	2632568	REC_END	n/a	n/a	n/a	-999	21	[0, 0, 0]	n/a	FR1	2	R1166D
2673.52	0.5	2685585	TRIAL	n/a	n/a	n/a	-999	22	[0, 0, 0]	n/a	FR1	2	R1166D
2674.02	10.428	2686085	COUNTDOWN_START	n/a	n/a	n/a	-999	22	[0, 0, 0]	n/a	FR1	2	R1166D
2684.448	0.007	2696513	COUNTDOWN_END	n/a	n/a	n/a	-999	22	[0, 0, 0]	n/a	FR1	2	R1166D
2684.455	1.617	2696520	ORIENT	n/a	n/a	n/a	-999	22	[0, 0, 0]	n/a	FR1	2	R1166D
2686.072	2.001	2698137	ORIENT_OFF	n/a	n/a	n/a	-999	22	[0, 0, 0]	n/a	FR1	2	R1166D
2688.073	1.616	2700138	WORD	n/a	wordpools/wordpool_EN.txt	BED	1	22	[0, 0, 0]	n/a	FR1	2	R1166D
2689.689	0.983	2701754	WORD_OFF	n/a	n/a	BED	1	22	[0, 0, 0]	n/a	FR1	2	R1166D
2690.672	1.618	2702737	WORD	n/a	wordpools/wordpool_EN.txt	HAND	2	22	[0, 0, 0]	n/a	FR1	2	R1166D
2692.29	0.867	2704354	WORD_OFF	n/a	n/a	HAND	2	22	[0, 0, 0]	n/a	FR1	2	R1166D
2693.157	1.616	2705221	WORD	n/a	wordpools/wordpool_EN.txt	COUCH	3	22	[0, 0, 0]	n/a	FR1	2	R1166D
2694.773	0.818	2706837	WORD_OFF	n/a	n/a	COUCH	3	22	[0, 0, 0]	n/a	FR1	2	R1166D
2695.591	1.617	2707655	WORD	n/a	wordpools/wordpool_EN.txt	BAG	4	22	[0, 0, 0]	n/a	FR1	2	R1166D
2697.208	0.917	2709272	WORD_OFF	n/a	n/a	BAG	4	22	[0, 0, 0]	n/a	FR1	2	R1166D
2698.125	1.615	2710189	WORD	n/a	wordpools/wordpool_EN.txt	FLOOR	5	22	[0, 0, 0]	n/a	FR1	2	R1166D
2699.74	0.835	2711804	WORD_OFF	n/a	n/a	FLOOR	5	22	[0, 0, 0]	n/a	FR1	2	R1166D
2700.575	1.617	2712639	WORD	n/a	wordpools/wordpool_EN.txt	CAGE	6	22	[0, 0, 0]	n/a	FR1	2	R1166D
2702.192	0.784	2714256	WORD_OFF	n/a	n/a	CAGE	6	22	[0, 0, 0]	n/a	FR1	2	R1166D
2702.976	1.616	2715040	WORD	n/a	wordpools/wordpool_EN.txt	BROOM	7	22	[0, 0, 0]	n/a	FR1	2	R1166D
2704.592	0.784	2716656	WORD_OFF	n/a	n/a	BROOM	7	22	[0, 0, 0]	n/a	FR1	2	R1166D
2705.376	1.617	2717440	WORD	n/a	wordpools/wordpool_EN.txt	ARK	8	22	[0, 0, 0]	n/a	FR1	2	R1166D
2706.993	0.917	2719057	WORD_OFF	n/a	n/a	ARK	8	22	[0, 0, 0]	n/a	FR1	2	R1166D
2707.91	1.617	2719974	WORD	n/a	wordpools/wordpool_EN.txt	FAN	9	22	[0, 0, 0]	n/a	FR1	2	R1166D
2709.527	0.8	2721591	WORD_OFF	n/a	n/a	FAN	9	22	[0, 0, 0]	n/a	FR1	2	R1166D
2710.327	1.617	2722390	WORD	n/a	wordpools/wordpool_EN.txt	LOCK	10	22	[0, 0, 0]	n/a	FR1	2	R1166D
2711.944	0.832	2724007	WORD_OFF	n/a	n/a	LOCK	10	22	[0, 0, 0]	n/a	FR1	2	R1166D
2712.776	1.618	2724839	WORD	n/a	wordpools/wordpool_EN.txt	CAKE	11	22	[0, 0, 0]	n/a	FR1	2	R1166D
2714.394	0.884	2726457	WORD_OFF	n/a	n/a	CAKE	11	22	[0, 0, 0]	n/a	FR1	2	R1166D
2715.278	1.617	2727341	WORD	n/a	wordpools/wordpool_EN.txt	PIE	12	22	[0, 0, 0]	n/a	FR1	2	R1166D
2716.895	0.0	2728958	DISTRACT_START	n/a	n/a	n/a	-999	22	[0, 0, 0]	n/a	FR1	2	R1166D
2716.895	0.0	2728958	WORD_OFF	n/a	n/a	PIE	12	22	[0, 0, 0]	n/a	FR1	2	R1166D
2716.895	0.016	2728958	START	n/a	n/a	n/a	-999	22	[-999, -999, -999]	n/a	FR1	2	R1166D
2716.911	5.301	2728974	PROB	5.301	n/a	n/a	-999	22	[3, 9, 2]	14	FR1	2	R1166D
2722.212	5.835	2734275	PROB	5.835	n/a	n/a	-999	22	[2, 6, 8]	16	FR1	2	R1166D
2728.047	4.35	2740110	PROB	4.35	n/a	n/a	-999	22	[7, 4, 8]	19	FR1	2	R1166D
2732.397	1.967	2744459	PROB	1.967	n/a	n/a	-999	22	[1, 3, 9]	13	FR1	2	R1166D
2734.364	5.434	2746426	PROB	5.434	n/a	n/a	-999	22	[9, 5, 1]	16	FR1	2	R1166D
2739.798	0.016	2751860	STOP	n/a	n/a	n/a	-999	22	[-999, -999, -999]	n/a	FR1	2	R1166D
2739.814	0.602	2751876	DISTRACT_END	n/a	n/a	n/a	-999	22	[0, 0, 0]	n/a	FR1	2	R1166D
2740.416	0.517	2752478	RETRIEVAL_ORIENT	n/a	n/a	n/a	-999	22	[0, 0, 0]	n/a	FR1	2	R1166D
2740.933	5.477	2752995	REC_START	n/a	n/a	n/a	-999	22	[0, 0, 0]	n/a	FR1	2	R1166D
2746.41	1.628	2758472	REC_WORD	1.628	n/a	HEN	-999	22	[0, 0, 0]	n/a	FR1	2	R1166D
2748.038	4.615	2760099	REC_WORD	4.615	n/a	BAG	4	22	[0, 0, 0]	n/a	FR1	2	R1166D
2752.653	4.358	2764714	REC_WORD_VV	4.358	n/a	<>	-999	22	[0, 0, 0]	n/a	FR1	2	R1166D
2757.011	0.648	2769072	REC_WORD	0.648	n/a	CAKE	11	22	[0, 0, 0]	n/a	FR1	2	R1166D
2757.659	13.283	2769720	REC_WORD	13.283	n/a	PIE	12	22	[0, 0, 0]	n/a	FR1	2	R1166D
2770.942	5.263	2783002	REC_END	n/a	n/a	n/a	-999	22	[0, 0, 0]	n/a	FR1	2	R1166D
2776.205	0.5	2788265	TRIAL	n/a	n/a	n/a	-999	23	[0, 0, 0]	n/a	FR1	2	R1166D
2776.705	10.428	2788765	COUNTDOWN_START	n/a	n/a	n/a	-999	23	[0, 0, 0]	n/a	FR1	2	R1166D
2787.133	0.008	2799192	COUNTDOWN_END	n/a	n/a	n/a	-999	23	[0, 0, 0]	n/a	FR1	2	R1166D
2787.141	1.615	2799200	ORIENT	n/a	n/a	n/a	-999	23	[0, 0, 0]	n/a	FR1	2	R1166D
2788.756	2.034	2800815	ORIENT_OFF	n/a	n/a	n/a	-999	23	[0, 0, 0]	n/a	FR1	2	R1166D
2790.79	1.601	2802849	WORD	n/a	wordpools/wordpool_EN.txt	NOSE	1	23	[0, 0, 0]	n/a	FR1	2	R1166D
2792.391	0.767	2804450	WORD_OFF	n/a	n/a	NOSE	1	23	[0, 0, 0]	n/a	FR1	2	R1166D
2793.158	1.616	2805217	WORD	n/a	wordpools/wordpool_EN.txt	LIP	2	23	[0, 0, 0]	n/a	FR1	2	R1166D
2794.774	0.967	2806833	WORD_OFF	n/a	n/a	LIP	2	23	[0, 0, 0]	n/a	FR1	2	R1166D
2795.741	1.618	2807800	WORD	n/a	wordpools/wordpool_EN.txt	OAR	3	23	[0, 0, 0]	n/a	FR1	2	R1166D
2797.359	0.817	2809418	WORD_OFF	n/a	n/a	OAR	3	23	[0, 0, 0]	n/a	FR1	2	R1166D
2798.176	1.616	2810235	WORD	n/a	wordpools/wordpool_EN.txt	SUIT	4	23	[0, 0, 0]	n/a	FR1	2	R1166D
2799.792	0.867	2811851	WORD_OFF	n/a	n/a	SUIT	4	23	[0, 0, 0]	n/a	FR1	2	R1166D
2800.659	1.618	2812718	WORD	n/a	wordpools/wordpool_EN.txt	SLEEVE	5	23	[0, 0, 0]	n/a	FR1	2	R1166D
2802.277	0.85	2814335	WORD_OFF	n/a	n/a	SLEEVE	5	23	[0, 0, 0]	n/a	FR1	2	R1166D
2803.127	1.616	2815185	WORD	n/a	wordpools/wordpool_EN.txt	BAND	6	23	[0, 0, 0]	n/a	FR1	2	R1166D
2804.743	0.917	2816801	WORD_OFF	n/a	n/a	BAND	6	23	[0, 0, 0]	n/a	FR1	2	R1166D
2805.66	1.618	2817718	WORD	n/a	wordpools/wordpool_EN.txt	ARM	7	23	[0, 0, 0]	n/a	FR1	2	R1166D
2807.278	0.967	2819336	WORD_OFF	n/a	n/a	ARM	7	23	[0, 0, 0]	n/a	FR1	2	R1166D
2808.245	1.616	2820303	WORD	n/a	wordpools/wordpool_EN.txt	PURSE	8	23	[0, 0, 0]	n/a	FR1	2	R1166D
2809.861	0.783	2821919	WORD_OFF	n/a	n/a	PURSE	8	23	[0, 0, 0]	n/a	FR1	2	R1166D
2810.644	1.618	2822702	WORD	n/a	wordpools/wordpool_EN.txt	FOAM	9	23	[0, 0, 0]	n/a	FR1	2	R1166D
2812.262	0.817	2824320	WORD_OFF	n/a	n/a	FOAM	9	23	[0, 0, 0]	n/a	FR1	2	R1166D
2813.079	1.616	2825137	WORD	n/a	wordpools/wordpool_EN.txt	TIE	10	23	[0, 0, 0]	n/a	FR1	2	R1166D
2814.695	0.934	2826753	WORD_OFF	n/a	n/a	TIE	10	23	[0, 0, 0]	n/a	FR1	2	R1166D
2815.629	1.617	2827687	WORD	n/a	wordpools/wordpool_EN.txt	TOE	11	23	[0, 0, 0]	n/a	FR1	2	R1166D
2817.246	0.917	2829304	WORD_OFF	n/a	n/a	TOE	11	23	[0, 0, 0]	n/a	FR1	2	R1166D
2818.163	1.616	2830221	WORD	n/a	wordpools/wordpool_EN.txt	FENCE	12	23	[0, 0, 0]	n/a	FR1	2	R1166D
2819.779	0.0	2831837	WORD_OFF	n/a	n/a	FENCE	12	23	[0, 0, 0]	n/a	FR1	2	R1166D
2819.779	0.001	2831837	DISTRACT_START	n/a	n/a	n/a	-999	23	[0, 0, 0]	n/a	FR1	2	R1166D
2819.78	0.016	2831838	START	n/a	n/a	n/a	-999	23	[-999, -999, -999]	n/a	FR1	2	R1166D
2819.796	3.435	2831854	PROB	3.435	n/a	n/a	-999	23	[6, 4, 6]	16	FR1	2	R1166D
2823.231	3.317	2835288	PROB	3.317	n/a	n/a	-999	23	[8, 2, 9]	19	FR1	2	R1166D
2826.548	2.55	2838605	PROB	2.55	n/a	n/a	-999	23	[1, 8, 6]	15	FR1	2	R1166D
2829.098	2.717	2841155	PROB	2.717	n/a	n/a	-999	23	[4, 6, 6]	16	FR1	2	R1166D
2831.815	3.568	2843872	PROB	3.568	n/a	n/a	-999	23	[8, 2, 9]	19	FR1	2	R1166D
2835.383	5.151	2847440	PROB	5.151	n/a	n/a	-999	23	[8, 7, 6]	21	FR1	2	R1166D
2840.534	0.016	2852590	STOP	n/a	n/a	n/a	-999	23	[-999, -999, -999]	n/a	FR1	2	R1166D
2840.55	0.684	2852606	DISTRACT_END	n/a	n/a	n/a	-999	23	[0, 0, 0]	n/a	FR1	2	R1166D
2841.234	0.517	2853290	RETRIEVAL_ORIENT	n/a	n/a	n/a	-999	23	[0, 0, 0]	n/a	FR1	2	R1166D
2841.751	2.074	2853807	REC_START	n/a	n/a	n/a	-999	23	[0, 0, 0]	n/a	FR1	2	R1166D
2843.825	1.252	2855881	REC_WORD	1.252	n/a	TIE	10	23	[0, 0, 0]	n/a	FR1	2	R1166D
2845.077	4.815	2857133	REC_WORD	4.815	n/a	TOE	11	23	[0, 0, 0]	n/a	FR1	2	R1166D
2849.892	21.87	2861948	REC_WORD	21.87	n/a	OAR	3	23	[0, 0, 0]	n/a	FR1	2	R1166D
2871.762	9.562	2883817	REC_END	n/a	n/a	n/a	-999	23	[0, 0, 0]	n/a	FR1	2	R1166D
2881.324	0.5	2893378	TRIAL	n/a	n/a	n/a	-999	24	[0, 0, 0]	n/a	FR1	2	R1166D
2881.824	10.428	2893878	COUNTDOWN_START	n/a	n/a	n/a	-999	24	[0, 0, 0]	n/a	FR1	2	R1166D
2892.252	0.008	2904306	COUNTDOWN_END	n/a	n/a	n/a	-999	24	[0, 0, 0]	n/a	FR1	2	R1166D
2892.26	1.616	2904314	ORIENT	n/a	n/a	n/a	-999	24	[0, 0, 0]	n/a	FR1	2	R1166D
2893.876	2.201	2905930	ORIENT_OFF	n/a	n/a	n/a	-999	24	[0, 0, 0]	n/a	FR1	2	R1166D
2896.077	1.616	2908130	WORD	n/a	wordpools/wordpool_EN.txt	OWL	1	24	[0, 0, 0]	n/a	FR1	2	R1166D
2897.693	0.984	2909746	WORD_OFF	n/a	n/a	OWL	1	24	[0, 0, 0]	n/a	FR1	2	R1166D
2898.677	1.618	2910730	WORD	n/a	wordpools/wordpool_EN.txt	ZOO	2	24	[0, 0, 0]	n/a	FR1	2	R1166D
2900.295	0.8	2912348	WORD_OFF	n/a	n/a	ZOO	2	24	[0, 0, 0]	n/a	FR1	2	R1166D
2901.095	1.616	2913148	WORD	n/a	wordpools/wordpool_EN.txt	HORN	3	24	[0, 0, 0]	n/a	FR1	2	R1166D
2902.711	0.801	2914764	WORD_OFF	n/a	n/a	HORN	3	24	[0, 0, 0]	n/a	FR1	2	R1166D
2903.512	1.617	2915565	WORD	n/a	wordpools/wordpool_EN.txt	WHALE	4	24	[0, 0, 0]	n/a	FR1	2	R1166D
2905.129	0.867	2917182	WORD_OFF	n/a	n/a	WHALE	4	24	[0, 0, 0]	n/a	FR1	2	R1166D
2905.996	1.617	2918049	WORD	n/a	wordpools/wordpool_EN.txt	DEER	5	24	[0, 0, 0]	n/a	FR1	2	R1166D
2907.613	0.766	2919666	WORD_OFF	n/a	n/a	DEER	5	24	[0, 0, 0]	n/a	FR1	2	R1166D
2908.379	1.617	2920432	WORD	n/a	wordpools/wordpool_EN.txt	BADGE	6	24	[0, 0, 0]	n/a	FR1	2	R1166D
2909.996	0.816	2922049	WORD_OFF	n/a	n/a	BADGE	6	24	[0, 0, 0]	n/a	FR1	2	R1166D
2910.812	1.601	2922865	WORD	n/a	wordpools/wordpool_EN.txt	DUCK	7	24	[0, 0, 0]	n/a	FR1	2	R1166D
2912.413	0.801	2924466	WORD_OFF	n/a	n/a	DUCK	7	24	[0, 0, 0]	n/a	FR1	2	R1166D
2913.214	1.616	2925267	WORD	n/a	wordpools/wordpool_EN.txt	WOLF	8	24	[0, 0, 0]	n/a	FR1	2	R1166D
2914.83	0.9	2926882	WORD_OFF	n/a	n/a	WOLF	8	24	[0, 0, 0]	n/a	FR1	2	R1166D
2915.73	1.618	2927782	WORD	n/a	wordpools/wordpool_EN.txt	POND	9	24	[0, 0, 0]	n/a	FR1	2	R1166D
2917.348	0.9	2929400	WORD_OFF	n/a	n/a	POND	9	24	[0, 0, 0]	n/a	FR1	2	R1166D
2918.248	1.616	2930300	WORD	n/a	wordpools/wordpool_EN.txt	PARK	10	24	[0, 0, 0]	n/a	FR1	2	R1166D
2919.864	1.0	2931916	WORD_OFF	n/a	n/a	PARK	10	24	[0, 0, 0]	n/a	FR1	2	R1166D
2920.864	1.618	2932916	WORD	n/a	wordpools/wordpool_EN.txt	CHALK	11	24	[0, 0, 0]	n/a	FR1	2	R1166D
2922.482	0.817	2934534	WORD_OFF	n/a	n/a	CHALK	11	24	[0, 0, 0]	n/a	FR1	2	R1166D
2923.299	1.617	2935351	WORD	n/a	wordpools/wordpool_EN.txt	SKI	12	24	[0, 0, 0]	n/a	FR1	2	R1166D
2924.916	0.0	2936968	WORD_OFF	n/a	n/a	SKI	12	24	[0, 0, 0]	n/a	FR1	2	R1166D
2924.916	0.0	2936968	DISTRACT_START	n/a	n/a	n/a	-999	24	[0, 0, 0]	n/a	FR1	2	R1166D
2924.916	0.017	2936968	START	n/a	n/a	n/a	-999	24	[-999, -999, -999]	n/a	FR1	2	R1166D
2924.933	2.916	2936985	PROB	2.916	n/a	n/a	-999	24	[1, 3, 4]	8	FR1	2	R1166D
2927.849	7.069	2939901	PROB	7.069	n/a	n/a	-999	24	[5, 7, 9]	22	FR1	2	R1166D
2934.918	3.899	2946969	PROB	3.899	n/a	n/a	-999	24	[2, 3, 6]	11	FR1	2	R1166D
2938.817	6.758	2950868	PROB	6.758	n/a	n/a	-999	24	[6, 9, 7]	12	FR1	2	R1166D
2945.575	0.011	2957626	STOP	n/a	n/a	n/a	-999	24	[-999, -999, -999]	n/a	FR1	2	R1166D
2945.586	0.517	2957637	DISTRACT_END	n/a	n/a	n/a	-999	24	[0, 0, 0]	n/a	FR1	2	R1166D
2946.103	0.518	2958154	RETRIEVAL_ORIENT	n/a	n/a	n/a	-999	24	[0, 0, 0]	n/a	FR1	2	R1166D
2946.621	1.44	2958672	REC_START	n/a	n/a	n/a	-999	24	[0, 0, 0]	n/a	FR1	2	R1166D
2948.061	8.572	2960112	REC_WORD_VV	8.572	n/a	<>	-999	24	[0, 0, 0]	n/a	FR1	2	R1166D
2956.633	0.743	2968683	REC_WORD	0.743	n/a	WOLF	8	24	[0, 0, 0]	n/a	FR1	2	R1166D
2957.376	1.044	2969426	REC_WORD	1.044	n/a	OWL	1	24	[0, 0, 0]	n/a	FR1	2	R1166D
2958.42	6.17	2970470	REC_WORD	6.17	n/a	ZOO	2	24	[0, 0, 0]	n/a	FR1	2	R1166D
2964.59	12.041	2976640	REC_WORD	12.041	n/a	HORN	3	24	[0, 0, 0]	n/a	FR1	2	R1166D
2976.631	5.945	2988680	REC_END	n/a	n/a	n/a	-999	24	[0, 0, 0]	n/a	FR1	2	R1166D
2982.576	0.5	2994625	TRIAL	n/a	n/a	n/a	-999	25	[0, 0, 0]	n/a	FR1	2	R1166D
2983.076	10.428	2995125	COUNTDOWN_START	n/a	n/a	n/a	-999	25	[0, 0, 0]	n/a	FR1	2	R1166D
2993.504	0.008	3005552	COUNTDOWN_END	n/a	n/a	n/a	-999	25	[0, 0, 0]	n/a	FR1	2	R1166D
2993.512	1.617	3005560	ORIENT	n/a	n/a	n/a	-999	25	[0, 0, 0]	n/a	FR1	2	R1166D
2995.129	2.033	3007177	ORIENT_OFF	n/a	n/a	n/a	-999	25	[0, 0, 0]	n/a	FR1	2	R1166D
2997.162	1.616	3009210	WORD	n/a	wordpools/wordpool_EN.txt	CONE	1	25	[0, 0, 0]	n/a	FR1	2	R1166D
2998.778	0.768	3010826	WORD_OFF	n/a	n/a	CONE	1	25	[0, 0, 0]	n/a	FR1	2	R1166D
2999.546	1.617	3011594	WORD	n/a	wordpools/wordpool_EN.txt	FROG	2	25	[0, 0, 0]	n/a	FR1	2	R1166D
3001.163	0.867	3013211	WORD_OFF	n/a	n/a	FROG	2	25	[0, 0, 0]	n/a	FR1	2	R1166D
3002.03	1.616	3014078	WORD	n/a	wordpools/wordpool_EN.txt	ICE	3	25	[0, 0, 0]	n/a	FR1	2	R1166D
3003.646	0.834	3015694	WORD_OFF	n/a	n/a	ICE	3	25	[0, 0, 0]	n/a	FR1	2	R1166D
3004.48	1.617	3016528	WORD	n/a	wordpools/wordpool_EN.txt	DIME	4	25	[0, 0, 0]	n/a	FR1	2	R1166D
3006.097	0.917	3018145	WORD_OFF	n/a	n/a	DIME	4	25	[0, 0, 0]	n/a	FR1	2	R1166D
3007.014	1.617	3019061	WORD	n/a	wordpools/wordpool_EN.txt	FORT	5	25	[0, 0, 0]	n/a	FR1	2	R1166D
3008.631	0.967	3020678	WORD_OFF	n/a	n/a	FORT	5	25	[0, 0, 0]	n/a	FR1	2	R1166D
3009.598	1.617	3021645	WORD	n/a	wordpools/wordpool_EN.txt	STONE	6	25	[0, 0, 0]	n/a	FR1	2	R1166D
3011.215	0.883	3023262	WORD_OFF	n/a	n/a	STONE	6	25	[0, 0, 0]	n/a	FR1	2	R1166D
3012.098	1.616	3024145	WORD	n/a	wordpools/wordpool_EN.txt	BRICK	7	25	[0, 0, 0]	n/a	FR1	2	R1166D
3013.714	0.818	3025761	WORD_OFF	n/a	n/a	BRICK	7	25	[0, 0, 0]	n/a	FR1	2	R1166D
3014.532	1.617	3026579	WORD	n/a	wordpools/wordpool_EN.txt	SHELL	8	25	[0, 0, 0]	n/a	FR1	2	R1166D
3016.149	1.0	3028196	WORD_OFF	n/a	n/a	SHELL	8	25	[0, 0, 0]	n/a	FR1	2	R1166D
3017.149	1.616	3029196	WORD	n/a	wordpools/wordpool_EN.txt	STEAM	9	25	[0, 0, 0]	n/a	FR1	2	R1166D
3018.765	0.785	3030812	WORD_OFF	n/a	n/a	STEAM	9	25	[0, 0, 0]	n/a	FR1	2	R1166D
3019.55	1.617	3031597	WORD	n/a	wordpools/wordpool_EN.txt	SALT	10	25	[0, 0, 0]	n/a	FR1	2	R1166D
3021.167	0.966	3033214	WORD_OFF	n/a	n/a	SALT	10	25	[0, 0, 0]	n/a	FR1	2	R1166D
3022.133	1.617	3034180	WORD	n/a	wordpools/wordpool_EN.txt	SPARK	11	25	[0, 0, 0]	n/a	FR1	2	R1166D
3023.75	0.966	3035797	WORD_OFF	n/a	n/a	SPARK	11	25	[0, 0, 0]	n/a	FR1	2	R1166D
3024.716	1.602	3036762	WORD	n/a	wordpools/wordpool_EN.txt	CHIEF	12	25	[0, 0, 0]	n/a	FR1	2	R1166D
3026.318	0.0	3038364	WORD_OFF	n/a	n/a	CHIEF	12	25	[0, 0, 0]	n/a	FR1	2	R1166D
3026.318	0.0	3038364	DISTRACT_START	n/a	n/a	n/a	-999	25	[0, 0, 0]	n/a	FR1	2	R1166D
3026.318	0.016	3038364	START	n/a	n/a	n/a	-999	25	[-999, -999, -999]	n/a	FR1	2	R1166D
3026.334	5.151	3038380	PROB	5.151	n/a	n/a	-999	25	[2, 8, 1]	11	FR1	2	R1166D
3031.485	2.567	3043531	PROB	2.567	n/a	n/a	-999	25	[2, 4, 1]	7	FR1	2	R1166D
3034.052	3.334	3046098	PROB	3.334	n/a	n/a	-999	25	[5, 4, 3]	12	FR1	2	R1166D
3037.386	3.317	3049432	PROB	3.317	n/a	n/a	-999	25	[4, 6, 6]	16	FR1	2	R1166D
3040.703	2.0	3052749	PROB	2.0	n/a	n/a	-999	25	[5, 3, 5]	13	FR1	2	R1166D
3042.703	2.117	3054749	PROB	2.117	n/a	n/a	-999	25	[2, 4, 8]	14	FR1	2	R1166D
3044.82	2.186	3056865	PROB	2.186	n/a	n/a	-999	25	[8, 1, 4]	13	FR1	2	R1166D
3047.006	0.015	3059051	STOP	n/a	n/a	n/a	-999	25	[-999, -999, -999]	n/a	FR1	2	R1166D
3047.021	0.517	3059066	DISTRACT_END	n/a	n/a	n/a	-999	25	[0, 0, 0]	n/a	FR1	2	R1166D
3047.538	0.0	3059583	RETRIEVAL_ORIENT	n/a	n/a	n/a	-999	25	[0, 0, 0]	n/a	FR1	2	R1166D
