onset	duration	sample	trial_type	response_time	stim_file	item_name	serialpos	list	test	answer	experiment	session	subject
0.0	20.144	33437	SESS_START	n/a	n/a	n/a	-999	-999	[0, 0, 0]	n/a	FR1	1	R1113T
20.144	10.428	53580	COUNTDOWN_START	n/a	n/a	n/a	-999	-999	[0, 0, 0]	n/a	FR1	1	R1113T
30.572	3.642	64008	COUNTDOWN_END	n/a	n/a	n/a	-999	-999	[0, 0, 0]	n/a	FR1	1	R1113T
34.214	2.467	67650	PRACTICE_WORD	n/a	n/a	TONGUE	1	-1	[0, 0, 0]	n/a	FR1	1	R1113T
36.681	2.483	70116	PRACTICE_WORD	n/a	n/a	COTTON	2	-1	[0, 0, 0]	n/a	FR1	1	R1113T
39.164	2.468	72599	PRACTICE_WORD	n/a	n/a	ATTIC	3	-1	[0, 0, 0]	n/a	FR1	1	R1113T
41.632	2.467	75067	PRACTICE_WORD	n/a	n/a	RING	4	-1	[0, 0, 0]	n/a	FR1	1	R1113T
44.099	2.485	77534	PRACTICE_WORD	n/a	n/a	IRON	5	-1	[0, 0, 0]	n/a	FR1	1	R1113T
46.584	2.566	80019	PRACTICE_WORD	n/a	n/a	WAGON	6	-1	[0, 0, 0]	n/a	FR1	1	R1113T
49.15	2.468	82585	PRACTICE_WORD	n/a	n/a	FLOOD	7	-1	[0, 0, 0]	n/a	FR1	1	R1113T
51.618	2.566	85053	PRACTICE_WORD	n/a	n/a	RHINO	8	-1	[0, 0, 0]	n/a	FR1	1	R1113T
54.184	2.5	87619	PRACTICE_WORD	n/a	n/a	WATCH	9	-1	[0, 0, 0]	n/a	FR1	1	R1113T
56.684	2.551	90118	PRACTICE_WORD	n/a	n/a	BEAM	10	-1	[0, 0, 0]	n/a	FR1	1	R1113T
59.235	2.617	92669	PRACTICE_WORD	n/a	n/a	CAMEL	11	-1	[0, 0, 0]	n/a	FR1	1	R1113T
61.852	1.618	95286	PRACTICE_WORD	n/a	n/a	CHEST	12	-1	[0, 0, 0]	n/a	FR1	1	R1113T
63.47	0.0	96904	PRACTICE_DISTRACT_START	n/a	n/a	n/a	-999	-1	[0, 0, 0]	n/a	FR1	1	R1113T
63.47	0.017	96904	START	n/a	n/a	n/a	-999	-1	[-999, -999, -999]	n/a	FR1	1	R1113T
63.487	23.632	96921	PROB	23.632	n/a	n/a	-999	-1	[6, 2, 8]	16	FR1	1	R1113T
87.119	0.004	120552	STOP	n/a	n/a	n/a	-999	-1	[-999, -999, -999]	n/a	FR1	1	R1113T
87.123	0.619	120556	PRACTICE_DISTRACT_END	n/a	n/a	n/a	-999	-1	[0, 0, 0]	n/a	FR1	1	R1113T
87.742	30.515	121175	PRACTICE_REC_START	n/a	n/a	n/a	-999	-1	[0, 0, 0]	n/a	FR1	1	R1113T
118.257	11.957	151688	PRACTICE_REC_END	n/a	n/a	n/a	-999	-1	[0, 0, 0]	n/a	FR1	1	R1113T
130.214	0.0	163645	COUNTDOWN_START	n/a	n/a	n/a	-999	1	[0, 0, 0]	n/a	FR1	1	R1113T
130.214	10.428	163645	TRIAL	n/a	n/a	n/a	-999	1	[0, 0, 0]	n/a	FR1	1	R1113T
140.642	0.008	174072	COUNTDOWN_END	n/a	n/a	n/a	-999	1	[0, 0, 0]	n/a	FR1	1	R1113T
140.65	2.566	174080	ORIENT	n/a	n/a	n/a	-999	1	[0, 0, 0]	n/a	FR1	1	R1113T
143.216	2.518	176646	WORD	n/a	wordpools/wordpool_EN.txt	SCHOOL	1	1	[0, 0, 0]	n/a	FR1	1	R1113T
145.734	2.45	179164	WORD	n/a	wordpools/wordpool_EN.txt	RAT	2	1	[0, 0, 0]	n/a	FR1	1	R1113T
148.184	2.418	181614	WORD	n/a	wordpools/wordpool_EN.txt	VAN	3	1	[0, 0, 0]	n/a	FR1	1	R1113T
150.602	2.483	184032	WORD	n/a	wordpools/wordpool_EN.txt	PET	4	1	[0, 0, 0]	n/a	FR1	1	R1113T
153.085	2.601	186515	WORD	n/a	wordpools/wordpool_EN.txt	HAWK	5	1	[0, 0, 0]	n/a	FR1	1	R1113T
155.686	2.55	189116	WORD	n/a	wordpools/wordpool_EN.txt	SKUNK	6	1	[0, 0, 0]	n/a	FR1	1	R1113T
158.236	2.601	191665	WORD	n/a	wordpools/wordpool_EN.txt	POND	7	1	[0, 0, 0]	n/a	FR1	1	R1113T
160.837	2.483	194266	WORD	n/a	wordpools/wordpool_EN.txt	DUCK	8	1	[0, 0, 0]	n/a	FR1	1	R1113T
163.32	2.401	196749	WORD	n/a	wordpools/wordpool_EN.txt	BOARD	9	1	[0, 0, 0]	n/a	FR1	1	R1113T
165.721	2.517	199150	WORD	n/a	wordpools/wordpool_EN.txt	DOCK	10	1	[0, 0, 0]	n/a	FR1	1	R1113T
168.238	2.567	201667	WORD	n/a	wordpools/wordpool_EN.txt	STORE	11	1	[0, 0, 0]	n/a	FR1	1	R1113T
170.805	1.617	204234	WORD	n/a	wordpools/wordpool_EN.txt	APE	12	1	[0, 0, 0]	n/a	FR1	1	R1113T
172.422	0.001	205851	DISTRACT_START	n/a	n/a	n/a	-999	1	[0, 0, 0]	n/a	FR1	1	R1113T
172.423	0.016	205852	START	n/a	n/a	n/a	-999	1	[-999, -999, -999]	n/a	FR1	1	R1113T
172.439	13.935	205868	PROB	13.935	n/a	n/a	-999	1	[6, 8, 2]	16	FR1	1	R1113T
186.374	13.536	219802	PROB	13.536	n/a	n/a	-999	1	[8, 3, 1]	12	FR1	1	R1113T
199.91	0.017	233337	STOP	n/a	n/a	n/a	-999	1	[-999, -999, -999]	n/a	FR1	1	R1113T
199.927	1.105	233354	DISTRACT_END	n/a	n/a	n/a	-999	1	[0, 0, 0]	n/a	FR1	1	R1113T
201.032	2.298	234459	REC_START	n/a	n/a	n/a	-999	1	[0, 0, 0]	n/a	FR1	1	R1113T
203.33	2.03	236757	REC_WORD	2.03	n/a	SCHOOL	-999	1	[0, 0, 0]	n/a	FR1	1	R1113T
205.36	1.687	238787	REC_WORD	1.687	n/a	RAT	-999	1	[0, 0, 0]	n/a	FR1	1	R1113T
207.047	2.094	240474	REC_WORD	2.094	n/a	PET	-999	1	[0, 0, 0]	n/a	FR1	1	R1113T
209.141	21.897	242568	REC_WORD	21.897	n/a	POND	-999	1	[0, 0, 0]	n/a	FR1	1	R1113T
231.038	2.546	264464	REC_END	n/a	n/a	n/a	-999	1	[0, 0, 0]	n/a	FR1	1	R1113T
233.584	0.0	267010	TRIAL	n/a	n/a	n/a	-999	2	[0, 0, 0]	n/a	FR1	1	R1113T
233.584	10.428	267010	COUNTDOWN_START	n/a	n/a	n/a	-999	2	[0, 0, 0]	n/a	FR1	1	R1113T
244.012	0.006	277437	COUNTDOWN_END	n/a	n/a	n/a	-999	2	[0, 0, 0]	n/a	FR1	1	R1113T
244.018	2.568	277443	ORIENT	n/a	n/a	n/a	-999	2	[0, 0, 0]	n/a	FR1	1	R1113T
246.586	2.567	280011	WORD	n/a	wordpools/wordpool_EN.txt	TOE	1	2	[0, 0, 0]	n/a	FR1	1	R1113T
249.153	2.418	282578	WORD	n/a	wordpools/wordpool_EN.txt	CHIN	2	2	[0, 0, 0]	n/a	FR1	1	R1113T
251.571	2.499	284996	WORD	n/a	wordpools/wordpool_EN.txt	WING	3	2	[0, 0, 0]	n/a	FR1	1	R1113T
254.07	2.468	287495	WORD	n/a	wordpools/wordpool_EN.txt	GLOVE	4	2	[0, 0, 0]	n/a	FR1	1	R1113T
256.538	2.466	289963	WORD	n/a	wordpools/wordpool_EN.txt	NOSE	5	2	[0, 0, 0]	n/a	FR1	1	R1113T
259.004	2.384	292428	WORD	n/a	wordpools/wordpool_EN.txt	CAT	6	2	[0, 0, 0]	n/a	FR1	1	R1113T
261.388	2.484	294812	WORD	n/a	wordpools/wordpool_EN.txt	FUR	7	2	[0, 0, 0]	n/a	FR1	1	R1113T
263.872	2.534	297296	WORD	n/a	wordpools/wordpool_EN.txt	OAR	8	2	[0, 0, 0]	n/a	FR1	1	R1113T
266.406	2.533	299830	WORD	n/a	wordpools/wordpool_EN.txt	TREE	9	2	[0, 0, 0]	n/a	FR1	1	R1113T
268.939	2.451	302363	WORD	n/a	wordpools/wordpool_EN.txt	SHIELD	10	2	[0, 0, 0]	n/a	FR1	1	R1113T
271.39	2.517	304814	WORD	n/a	wordpools/wordpool_EN.txt	ROPE	11	2	[0, 0, 0]	n/a	FR1	1	R1113T
273.907	1.601	307331	WORD	n/a	wordpools/wordpool_EN.txt	BLOOM	12	2	[0, 0, 0]	n/a	FR1	1	R1113T
275.508	0.001	308932	DISTRACT_START	n/a	n/a	n/a	-999	2	[0, 0, 0]	n/a	FR1	1	R1113T
275.509	0.016	308933	START	n/a	n/a	n/a	-999	2	[-999, -999, -999]	n/a	FR1	1	R1113T
275.525	35.971	308949	PROB	35.971	n/a	n/a	-999	2	[5, 9, 4]	18	FR1	1	R1113T
311.496	0.019	344918	STOP	n/a	n/a	n/a	-999	2	[-999, -999, -999]	n/a	FR1	1	R1113T
311.515	1.217	344937	DISTRACT_END	n/a	n/a	n/a	-999	2	[0, 0, 0]	n/a	FR1	1	R1113T
312.732	2.919	346154	REC_START	n/a	n/a	n/a	-999	2	[0, 0, 0]	n/a	FR1	1	R1113T
315.651	1.526	349073	REC_WORD	1.526	n/a	TOE	-999	2	[0, 0, 0]	n/a	FR1	1	R1113T
317.177	2.209	350599	REC_WORD	2.209	n/a	CHIN	-999	2	[0, 0, 0]	n/a	FR1	1	R1113T
319.386	2.524	352807	REC_WORD	2.524	n/a	NOSE	-999	2	[0, 0, 0]	n/a	FR1	1	R1113T
321.91	2.279	355331	REC_WORD	2.279	n/a	FUR	-999	2	[0, 0, 0]	n/a	FR1	1	R1113T
324.189	3.461	357610	REC_WORD	3.461	n/a	TREE	-999	2	[0, 0, 0]	n/a	FR1	1	R1113T
327.65	15.092	361071	REC_WORD	15.092	n/a	CAT	-999	2	[0, 0, 0]	n/a	FR1	1	R1113T
342.742	2.295	376162	REC_END	n/a	n/a	n/a	-999	2	[0, 0, 0]	n/a	FR1	1	R1113T
345.037	0.0	378457	COUNTDOWN_START	n/a	n/a	n/a	-999	3	[0, 0, 0]	n/a	FR1	1	R1113T
345.037	10.428	378457	TRIAL	n/a	n/a	n/a	-999	3	[0, 0, 0]	n/a	FR1	1	R1113T
355.465	0.008	388885	COUNTDOWN_END	n/a	n/a	n/a	-999	3	[0, 0, 0]	n/a	FR1	1	R1113T
355.473	2.383	388893	ORIENT	n/a	n/a	n/a	-999	3	[0, 0, 0]	n/a	FR1	1	R1113T
357.856	2.567	391276	WORD	n/a	wordpools/wordpool_EN.txt	VINE	1	3	[0, 0, 0]	n/a	FR1	1	R1113T
360.423	2.567	393842	WORD	n/a	wordpools/wordpool_EN.txt	EAR	2	3	[0, 0, 0]	n/a	FR1	1	R1113T
362.99	2.417	396409	WORD	n/a	wordpools/wordpool_EN.txt	FOOD	3	3	[0, 0, 0]	n/a	FR1	1	R1113T
365.407	2.6	398826	WORD	n/a	wordpools/wordpool_EN.txt	HEART	4	3	[0, 0, 0]	n/a	FR1	1	R1113T
368.007	2.585	401426	WORD	n/a	wordpools/wordpool_EN.txt	BED	5	3	[0, 0, 0]	n/a	FR1	1	R1113T
370.592	2.583	404011	WORD	n/a	wordpools/wordpool_EN.txt	HOSE	6	3	[0, 0, 0]	n/a	FR1	1	R1113T
373.175	2.601	406594	WORD	n/a	wordpools/wordpool_EN.txt	TRAIN	7	3	[0, 0, 0]	n/a	FR1	1	R1113T
375.776	2.4	409195	WORD	n/a	wordpools/wordpool_EN.txt	MOUSE	8	3	[0, 0, 0]	n/a	FR1	1	R1113T
378.176	2.6	411595	WORD	n/a	wordpools/wordpool_EN.txt	SMOKE	9	3	[0, 0, 0]	n/a	FR1	1	R1113T
380.776	2.551	414194	WORD	n/a	wordpools/wordpool_EN.txt	ROOM	10	3	[0, 0, 0]	n/a	FR1	1	R1113T
383.327	2.434	416745	WORD	n/a	wordpools/wordpool_EN.txt	MOOSE	11	3	[0, 0, 0]	n/a	FR1	1	R1113T
385.761	1.617	419179	WORD	n/a	wordpools/wordpool_EN.txt	CAKE	12	3	[0, 0, 0]	n/a	FR1	1	R1113T
387.378	0.001	420796	DISTRACT_START	n/a	n/a	n/a	-999	3	[0, 0, 0]	n/a	FR1	1	R1113T
387.379	0.015	420797	START	n/a	n/a	n/a	-999	3	[-999, -999, -999]	n/a	FR1	1	R1113T
387.394	13.569	420812	PROB	13.569	n/a	n/a	-999	3	[7, 2, 2]	11	FR1	1	R1113T
400.963	10.732	434380	PROB	10.732	n/a	n/a	-999	3	[6, 1, 2]	9	FR1	1	R1113T
411.695	0.003	445112	STOP	n/a	n/a	n/a	-999	3	[-999, -999, -999]	n/a	FR1	1	R1113T
411.698	1.101	445115	DISTRACT_END	n/a	n/a	n/a	-999	3	[0, 0, 0]	n/a	FR1	1	R1113T
412.799	1.654	446216	REC_START	n/a	n/a	n/a	-999	3	[0, 0, 0]	n/a	FR1	1	R1113T
414.453	1.881	447870	REC_WORD	1.881	n/a	VINE	-999	3	[0, 0, 0]	n/a	FR1	1	R1113T
416.334	2.571	449751	REC_WORD	2.571	n/a	EAR	-999	3	[0, 0, 0]	n/a	FR1	1	R1113T
418.905	1.086	452322	REC_WORD	1.086	n/a	MOOSE	-999	3	[0, 0, 0]	n/a	FR1	1	R1113T
419.991	3.042	453407	REC_WORD	3.042	n/a	SMOKE	-999	3	[0, 0, 0]	n/a	FR1	1	R1113T
423.033	19.777	456449	REC_WORD	19.777	n/a	FOOD	-999	3	[0, 0, 0]	n/a	FR1	1	R1113T
442.81	2.311	476225	REC_END	n/a	n/a	n/a	-999	3	[0, 0, 0]	n/a	FR1	1	R1113T
445.121	0.001	478536	COUNTDOWN_START	n/a	n/a	n/a	-999	4	[0, 0, 0]	n/a	FR1	1	R1113T
445.122	10.427	478537	TRIAL	n/a	n/a	n/a	-999	4	[0, 0, 0]	n/a	FR1	1	R1113T
455.549	0.009	488964	COUNTDOWN_END	n/a	n/a	n/a	-999	4	[0, 0, 0]	n/a	FR1	1	R1113T
455.558	2.416	488973	ORIENT	n/a	n/a	n/a	-999	4	[0, 0, 0]	n/a	FR1	1	R1113T
457.974	2.535	491389	WORD	n/a	wordpools/wordpool_EN.txt	MOON	1	4	[0, 0, 0]	n/a	FR1	1	R1113T
460.509	2.399	493923	WORD	n/a	wordpools/wordpool_EN.txt	GRAPE	2	4	[0, 0, 0]	n/a	FR1	1	R1113T
462.908	2.451	496322	WORD	n/a	wordpools/wordpool_EN.txt	ICE	3	4	[0, 0, 0]	n/a	FR1	1	R1113T
465.359	2.5	498773	WORD	n/a	wordpools/wordpool_EN.txt	PLANE	4	4	[0, 0, 0]	n/a	FR1	1	R1113T
467.859	2.434	501273	WORD	n/a	wordpools/wordpool_EN.txt	JET	5	4	[0, 0, 0]	n/a	FR1	1	R1113T
470.293	2.4	503707	WORD	n/a	wordpools/wordpool_EN.txt	CAPE	6	4	[0, 0, 0]	n/a	FR1	1	R1113T
472.693	2.601	506107	WORD	n/a	wordpools/wordpool_EN.txt	SLUSH	7	4	[0, 0, 0]	n/a	FR1	1	R1113T
475.294	2.617	508708	WORD	n/a	wordpools/wordpool_EN.txt	ROCK	8	4	[0, 0, 0]	n/a	FR1	1	R1113T
477.911	2.534	511325	WORD	n/a	wordpools/wordpool_EN.txt	DOG	9	4	[0, 0, 0]	n/a	FR1	1	R1113T
480.445	2.617	513858	WORD	n/a	wordpools/wordpool_EN.txt	STAR	10	4	[0, 0, 0]	n/a	FR1	1	R1113T
483.062	2.501	516475	WORD	n/a	wordpools/wordpool_EN.txt	PRINCE	11	4	[0, 0, 0]	n/a	FR1	1	R1113T
485.563	1.616	518976	WORD	n/a	wordpools/wordpool_EN.txt	FISH	12	4	[0, 0, 0]	n/a	FR1	1	R1113T
487.179	0.001	520592	DISTRACT_START	n/a	n/a	n/a	-999	4	[0, 0, 0]	n/a	FR1	1	R1113T
487.18	0.016	520593	START	n/a	n/a	n/a	-999	4	[-999, -999, -999]	n/a	FR1	1	R1113T
487.196	12.353	520609	PROB	12.353	n/a	n/a	-999	4	[2, 7, 7]	16	FR1	1	R1113T
499.549	20.754	532962	PROB	20.754	n/a	n/a	-999	4	[9, 2, 4]	15	FR1	1	R1113T
520.303	0.015	553715	STOP	n/a	n/a	n/a	-999	4	[-999, -999, -999]	n/a	FR1	1	R1113T
520.318	1.035	553730	DISTRACT_END	n/a	n/a	n/a	-999	4	[0, 0, 0]	n/a	FR1	1	R1113T
521.353	1.784	554764	REC_START	n/a	n/a	n/a	-999	4	[0, 0, 0]	n/a	FR1	1	R1113T
523.137	1.636	556548	REC_WORD	1.636	n/a	MOON	-999	4	[0, 0, 0]	n/a	FR1	1	R1113T
524.773	2.162	558184	REC_WORD	2.162	n/a	GRAPE	-999	4	[0, 0, 0]	n/a	FR1	1	R1113T
526.935	2.306	560346	REC_WORD	2.306	n/a	SLUSH	-999	4	[0, 0, 0]	n/a	FR1	1	R1113T
529.241	2.006	562652	REC_WORD	2.006	n/a	JET	-999	4	[0, 0, 0]	n/a	FR1	1	R1113T
531.247	20.116	564658	REC_WORD	20.116	n/a	DOG	-999	4	[0, 0, 0]	n/a	FR1	1	R1113T
551.363	2.695	584773	REC_END	n/a	n/a	n/a	-999	4	[0, 0, 0]	n/a	FR1	1	R1113T
554.058	0.0	587468	COUNTDOWN_START	n/a	n/a	n/a	-999	5	[0, 0, 0]	n/a	FR1	1	R1113T
554.058	10.428	587468	TRIAL	n/a	n/a	n/a	-999	5	[0, 0, 0]	n/a	FR1	1	R1113T
564.486	0.008	597895	COUNTDOWN_END	n/a	n/a	n/a	-999	5	[0, 0, 0]	n/a	FR1	1	R1113T
564.494	2.516	597903	ORIENT	n/a	n/a	n/a	-999	5	[0, 0, 0]	n/a	FR1	1	R1113T
567.01	2.485	600419	WORD	n/a	wordpools/wordpool_EN.txt	LAMP	1	5	[0, 0, 0]	n/a	FR1	1	R1113T
569.495	2.5	602904	WORD	n/a	wordpools/wordpool_EN.txt	BOX	2	5	[0, 0, 0]	n/a	FR1	1	R1113T
571.995	2.45	605404	WORD	n/a	wordpools/wordpool_EN.txt	CHAIR	3	5	[0, 0, 0]	n/a	FR1	1	R1113T
574.445	2.417	607854	WORD	n/a	wordpools/wordpool_EN.txt	PHONE	4	5	[0, 0, 0]	n/a	FR1	1	R1113T
576.862	2.384	610271	WORD	n/a	wordpools/wordpool_EN.txt	GATE	5	5	[0, 0, 0]	n/a	FR1	1	R1113T
579.246	2.6	612655	WORD	n/a	wordpools/wordpool_EN.txt	OAK	6	5	[0, 0, 0]	n/a	FR1	1	R1113T
581.846	2.434	615254	WORD	n/a	wordpools/wordpool_EN.txt	SHARK	7	5	[0, 0, 0]	n/a	FR1	1	R1113T
584.28	2.501	617688	WORD	n/a	wordpools/wordpool_EN.txt	LOCK	8	5	[0, 0, 0]	n/a	FR1	1	R1113T
586.781	2.6	620189	WORD	n/a	wordpools/wordpool_EN.txt	STREET	9	5	[0, 0, 0]	n/a	FR1	1	R1113T
589.381	2.601	622789	WORD	n/a	wordpools/wordpool_EN.txt	MAZE	10	5	[0, 0, 0]	n/a	FR1	1	R1113T
591.982	2.568	625390	WORD	n/a	wordpools/wordpool_EN.txt	CLOCK	11	5	[0, 0, 0]	n/a	FR1	1	R1113T
594.55	1.616	627958	WORD	n/a	wordpools/wordpool_EN.txt	LAWN	12	5	[0, 0, 0]	n/a	FR1	1	R1113T
596.166	0.0	629574	DISTRACT_START	n/a	n/a	n/a	-999	5	[0, 0, 0]	n/a	FR1	1	R1113T
596.166	0.016	629574	START	n/a	n/a	n/a	-999	5	[-999, -999, -999]	n/a	FR1	1	R1113T
596.182	14.853	629590	PROB	14.853	n/a	n/a	-999	5	[6, 5, 2]	13	FR1	1	R1113T
611.035	28.444	644442	PROB	28.444	n/a	n/a	-999	5	[9, 9, 8]	26	FR1	1	R1113T
639.479	0.012	672885	STOP	n/a	n/a	n/a	-999	5	[-999, -999, -999]	n/a	FR1	1	R1113T
639.491	1.183	672897	DISTRACT_END	n/a	n/a	n/a	-999	5	[0, 0, 0]	n/a	FR1	1	R1113T
640.674	3.245	674080	REC_START	n/a	n/a	n/a	-999	5	[0, 0, 0]	n/a	FR1	1	R1113T
643.919	2.776	677324	REC_WORD	2.776	n/a	LAMP	-999	5	[0, 0, 0]	n/a	FR1	1	R1113T
646.695	1.036	680100	REC_WORD	1.036	n/a	OAK	-999	5	[0, 0, 0]	n/a	FR1	1	R1113T
647.731	1.59	681136	REC_WORD	1.59	n/a	STREET	-999	5	[0, 0, 0]	n/a	FR1	1	R1113T
649.321	1.623	682726	REC_WORD	1.623	n/a	BOX	-999	5	[0, 0, 0]	n/a	FR1	1	R1113T
650.944	19.745	684349	REC_WORD	19.745	n/a	SHARK	-999	5	[0, 0, 0]	n/a	FR1	1	R1113T
670.689	2.307	704093	REC_END	n/a	n/a	n/a	-999	5	[0, 0, 0]	n/a	FR1	1	R1113T
672.996	0.0	706400	TRIAL	n/a	n/a	n/a	-999	6	[0, 0, 0]	n/a	FR1	1	R1113T
672.996	10.428	706400	COUNTDOWN_START	n/a	n/a	n/a	-999	6	[0, 0, 0]	n/a	FR1	1	R1113T
683.424	0.007	716827	COUNTDOWN_END	n/a	n/a	n/a	-999	6	[0, 0, 0]	n/a	FR1	1	R1113T
683.431	2.568	716834	ORIENT	n/a	n/a	n/a	-999	6	[0, 0, 0]	n/a	FR1	1	R1113T
685.999	2.568	719402	WORD	n/a	wordpools/wordpool_EN.txt	MAP	1	6	[0, 0, 0]	n/a	FR1	1	R1113T
688.567	2.466	721970	WORD	n/a	wordpools/wordpool_EN.txt	SEED	2	6	[0, 0, 0]	n/a	FR1	1	R1113T
691.033	2.435	724436	WORD	n/a	wordpools/wordpool_EN.txt	SHELL	3	6	[0, 0, 0]	n/a	FR1	1	R1113T
693.468	2.632	726871	WORD	n/a	wordpools/wordpool_EN.txt	GOLD	4	6	[0, 0, 0]	n/a	FR1	1	R1113T
696.1	2.485	729503	WORD	n/a	wordpools/wordpool_EN.txt	SNAKE	5	6	[0, 0, 0]	n/a	FR1	1	R1113T
698.585	2.45	731988	WORD	n/a	wordpools/wordpool_EN.txt	PLANT	6	6	[0, 0, 0]	n/a	FR1	1	R1113T
701.035	2.551	734438	WORD	n/a	wordpools/wordpool_EN.txt	WORLD	7	6	[0, 0, 0]	n/a	FR1	1	R1113T
703.586	2.599	736988	WORD	n/a	wordpools/wordpool_EN.txt	STEM	8	6	[0, 0, 0]	n/a	FR1	1	R1113T
706.185	2.435	739587	WORD	n/a	wordpools/wordpool_EN.txt	ROSE	9	6	[0, 0, 0]	n/a	FR1	1	R1113T
708.62	2.4	742022	WORD	n/a	wordpools/wordpool_EN.txt	MOTH	10	6	[0, 0, 0]	n/a	FR1	1	R1113T
711.02	2.568	744422	WORD	n/a	wordpools/wordpool_EN.txt	CLOUD	11	6	[0, 0, 0]	n/a	FR1	1	R1113T
713.588	1.616	746990	WORD	n/a	wordpools/wordpool_EN.txt	KEY	12	6	[0, 0, 0]	n/a	FR1	1	R1113T
715.204	0.001	748606	DISTRACT_START	n/a	n/a	n/a	-999	6	[0, 0, 0]	n/a	FR1	1	R1113T
715.205	0.016	748607	START	n/a	n/a	n/a	-999	6	[-999, -999, -999]	n/a	FR1	1	R1113T
715.221	33.355	748623	PROB	33.355	n/a	n/a	-999	6	[2, 7, 9]	17	FR1	1	R1113T
748.576	0.018	781976	STOP	n/a	n/a	n/a	-999	6	[-999, -999, -999]	n/a	FR1	1	R1113T
748.594	1.15	781994	DISTRACT_END	n/a	n/a	n/a	-999	6	[0, 0, 0]	n/a	FR1	1	R1113T
749.744	1.466	783144	REC_START	n/a	n/a	n/a	-999	6	[0, 0, 0]	n/a	FR1	1	R1113T
751.21	1.596	784610	REC_WORD	1.596	n/a	MAP	-999	6	[0, 0, 0]	n/a	FR1	1	R1113T
752.806	1.72	786206	REC_WORD	1.72	n/a	SEED	-999	6	[0, 0, 0]	n/a	FR1	1	R1113T
754.526	1.309	787926	REC_WORD	1.309	n/a	SHELL	-999	6	[0, 0, 0]	n/a	FR1	1	R1113T
755.835	1.429	789235	REC_WORD	1.429	n/a	WORLD	-999	6	[0, 0, 0]	n/a	FR1	1	R1113T
757.264	22.49	790664	REC_WORD	22.49	n/a	KEY	-999	6	[0, 0, 0]	n/a	FR1	1	R1113T
779.754	2.195	813153	REC_END	n/a	n/a	n/a	-999	6	[0, 0, 0]	n/a	FR1	1	R1113T
781.949	0.001	815348	COUNTDOWN_START	n/a	n/a	n/a	-999	7	[0, 0, 0]	n/a	FR1	1	R1113T
781.95	10.427	815349	TRIAL	n/a	n/a	n/a	-999	7	[0, 0, 0]	n/a	FR1	1	R1113T
792.377	0.007	825775	COUNTDOWN_END	n/a	n/a	n/a	-999	7	[0, 0, 0]	n/a	FR1	1	R1113T
792.384	2.618	825782	ORIENT	n/a	n/a	n/a	-999	7	[0, 0, 0]	n/a	FR1	1	R1113T
795.002	2.451	828400	WORD	n/a	wordpools/wordpool_EN.txt	PEAR	1	7	[0, 0, 0]	n/a	FR1	1	R1113T
797.453	2.5	830851	WORD	n/a	wordpools/wordpool_EN.txt	CALF	2	7	[0, 0, 0]	n/a	FR1	1	R1113T
799.953	2.501	833351	WORD	n/a	wordpools/wordpool_EN.txt	FOX	3	7	[0, 0, 0]	n/a	FR1	1	R1113T
802.454	2.433	835852	WORD	n/a	wordpools/wordpool_EN.txt	EEL	4	7	[0, 0, 0]	n/a	FR1	1	R1113T
804.887	2.467	838284	WORD	n/a	wordpools/wordpool_EN.txt	MOUTH	5	7	[0, 0, 0]	n/a	FR1	1	R1113T
807.354	2.584	840751	WORD	n/a	wordpools/wordpool_EN.txt	ROOT	6	7	[0, 0, 0]	n/a	FR1	1	R1113T
809.938	2.467	843335	WORD	n/a	wordpools/wordpool_EN.txt	CHIEF	7	7	[0, 0, 0]	n/a	FR1	1	R1113T
812.405	2.6	845802	WORD	n/a	wordpools/wordpool_EN.txt	LEAF	8	7	[0, 0, 0]	n/a	FR1	1	R1113T
815.005	2.485	848402	WORD	n/a	wordpools/wordpool_EN.txt	TOOTH	9	7	[0, 0, 0]	n/a	FR1	1	R1113T
817.49	2.6	850887	WORD	n/a	wordpools/wordpool_EN.txt	WEB	10	7	[0, 0, 0]	n/a	FR1	1	R1113T
820.09	2.451	853487	WORD	n/a	wordpools/wordpool_EN.txt	CHALK	11	7	[0, 0, 0]	n/a	FR1	1	R1113T
822.541	1.616	855938	WORD	n/a	wordpools/wordpool_EN.txt	BRANCH	12	7	[0, 0, 0]	n/a	FR1	1	R1113T
824.157	0.001	857553	DISTRACT_START	n/a	n/a	n/a	-999	7	[0, 0, 0]	n/a	FR1	1	R1113T
824.158	0.016	857554	START	n/a	n/a	n/a	-999	7	[-999, -999, -999]	n/a	FR1	1	R1113T
824.174	12.535	857570	PROB	12.535	n/a	n/a	-999	7	[2, 6, 8]	16	FR1	1	R1113T
836.709	8.697	870105	PROB	8.697	n/a	n/a	-999	7	[8, 3, 6]	17	FR1	1	R1113T
845.406	0.005	878801	STOP	n/a	n/a	n/a	-999	7	[-999, -999, -999]	n/a	FR1	1	R1113T
845.411	1.034	878806	DISTRACT_END	n/a	n/a	n/a	-999	7	[0, 0, 0]	n/a	FR1	1	R1113T
846.445	2.814	879840	REC_START	n/a	n/a	n/a	-999	7	[0, 0, 0]	n/a	FR1	1	R1113T
849.259	1.622	882654	REC_WORD	1.622	n/a	PEAR	-999	7	[0, 0, 0]	n/a	FR1	1	R1113T
850.881	1.587	884276	REC_WORD	1.587	n/a	CALF	-999	7	[0, 0, 0]	n/a	FR1	1	R1113T
852.468	1.527	885863	REC_WORD	1.527	n/a	FOX	-999	7	[0, 0, 0]	n/a	FR1	1	R1113T
853.995	1.718	887390	REC_WORD	1.718	n/a	EAR	-999	7	[0, 0, 0]	n/a	FR1	1	R1113T
855.713	1.772	889108	REC_WORD	1.772	n/a	MOUTH	-999	7	[0, 0, 0]	n/a	FR1	1	R1113T
857.485	18.975	890880	REC_WORD	18.975	n/a	TOOTH	-999	7	[0, 0, 0]	n/a	FR1	1	R1113T
876.46	2.207	909854	REC_END	n/a	n/a	n/a	-999	7	[0, 0, 0]	n/a	FR1	1	R1113T
878.667	0.0	912061	TRIAL	n/a	n/a	n/a	-999	8	[0, 0, 0]	n/a	FR1	1	R1113T
878.667	10.428	912061	COUNTDOWN_START	n/a	n/a	n/a	-999	8	[0, 0, 0]	n/a	FR1	1	R1113T
889.095	0.007	922488	COUNTDOWN_END	n/a	n/a	n/a	-999	8	[0, 0, 0]	n/a	FR1	1	R1113T
889.102	2.385	922495	ORIENT	n/a	n/a	n/a	-999	8	[0, 0, 0]	n/a	FR1	1	R1113T
891.487	2.416	924880	WORD	n/a	wordpools/wordpool_EN.txt	SMILE	1	8	[0, 0, 0]	n/a	FR1	1	R1113T
893.903	2.551	927296	WORD	n/a	wordpools/wordpool_EN.txt	LAKE	2	8	[0, 0, 0]	n/a	FR1	1	R1113T
896.454	2.517	929847	WORD	n/a	wordpools/wordpool_EN.txt	TRAY	3	8	[0, 0, 0]	n/a	FR1	1	R1113T
898.971	2.518	932364	WORD	n/a	wordpools/wordpool_EN.txt	SUN	4	8	[0, 0, 0]	n/a	FR1	1	R1113T
901.489	2.582	934882	WORD	n/a	wordpools/wordpool_EN.txt	THUMB	5	8	[0, 0, 0]	n/a	FR1	1	R1113T
904.071	2.402	937464	WORD	n/a	wordpools/wordpool_EN.txt	SKY	6	8	[0, 0, 0]	n/a	FR1	1	R1113T
906.473	2.449	939865	WORD	n/a	wordpools/wordpool_EN.txt	BEACH	7	8	[0, 0, 0]	n/a	FR1	1	R1113T
908.922	2.368	942314	WORD	n/a	wordpools/wordpool_EN.txt	BEAK	8	8	[0, 0, 0]	n/a	FR1	1	R1113T
911.29	2.4	944682	WORD	n/a	wordpools/wordpool_EN.txt	WALL	9	8	[0, 0, 0]	n/a	FR1	1	R1113T
913.69	2.533	947082	WORD	n/a	wordpools/wordpool_EN.txt	STORM	10	8	[0, 0, 0]	n/a	FR1	1	R1113T
916.223	2.369	949615	WORD	n/a	wordpools/wordpool_EN.txt	BIRD	11	8	[0, 0, 0]	n/a	FR1	1	R1113T
918.592	1.616	951984	WORD	n/a	wordpools/wordpool_EN.txt	TIE	12	8	[0, 0, 0]	n/a	FR1	1	R1113T
920.208	0.001	953600	DISTRACT_START	n/a	n/a	n/a	-999	8	[0, 0, 0]	n/a	FR1	1	R1113T
920.209	0.015	953601	START	n/a	n/a	n/a	-999	8	[-999, -999, -999]	n/a	FR1	1	R1113T
920.224	10.702	953616	PROB	10.702	n/a	n/a	-999	8	[5, 1, 5]	11	FR1	1	R1113T
930.926	10.049	964317	PROB	10.049	n/a	n/a	-999	8	[5, 6, 4]	15	FR1	1	R1113T
940.975	0.003	974366	STOP	n/a	n/a	n/a	-999	8	[-999, -999, -999]	n/a	FR1	1	R1113T
940.978	1.151	974369	DISTRACT_END	n/a	n/a	n/a	-999	8	[0, 0, 0]	n/a	FR1	1	R1113T
942.129	2.824	975520	REC_START	n/a	n/a	n/a	-999	8	[0, 0, 0]	n/a	FR1	1	R1113T
944.953	2.274	978343	REC_WORD	2.274	n/a	SMILE	-999	8	[0, 0, 0]	n/a	FR1	1	R1113T
947.227	4.272	980617	REC_WORD	4.272	n/a	LAKE	-999	8	[0, 0, 0]	n/a	FR1	1	R1113T
951.499	4.079	984889	REC_WORD	4.079	n/a	TRAY	-999	8	[0, 0, 0]	n/a	FR1	1	R1113T
955.578	2.467	988968	REC_WORD	2.467	n/a	SUN	-999	8	[0, 0, 0]	n/a	FR1	1	R1113T
958.045	14.096	991435	REC_WORD	14.096	n/a	STORM	-999	8	[0, 0, 0]	n/a	FR1	1	R1113T
972.141	3.293	1005530	REC_END	n/a	n/a	n/a	-999	8	[0, 0, 0]	n/a	FR1	1	R1113T
975.434	0.001	1008823	COUNTDOWN_START	n/a	n/a	n/a	-999	9	[0, 0, 0]	n/a	FR1	1	R1113T
975.435	10.427	1008824	TRIAL	n/a	n/a	n/a	-999	9	[0, 0, 0]	n/a	FR1	1	R1113T
985.862	0.008	1019250	COUNTDOWN_END	n/a	n/a	n/a	-999	9	[0, 0, 0]	n/a	FR1	1	R1113T
985.87	2.5	1019258	ORIENT	n/a	n/a	n/a	-999	9	[0, 0, 0]	n/a	FR1	1	R1113T
988.37	2.467	1021758	WORD	n/a	wordpools/wordpool_EN.txt	BAT	1	9	[0, 0, 0]	n/a	FR1	1	R1113T
990.837	2.584	1024225	WORD	n/a	wordpools/wordpool_EN.txt	FLEA	2	9	[0, 0, 0]	n/a	FR1	1	R1113T
993.421	2.517	1026809	WORD	n/a	wordpools/wordpool_EN.txt	NEST	3	9	[0, 0, 0]	n/a	FR1	1	R1113T
995.938	2.535	1029326	WORD	n/a	wordpools/wordpool_EN.txt	WHALE	4	9	[0, 0, 0]	n/a	FR1	1	R1113T
998.473	2.399	1031861	WORD	n/a	wordpools/wordpool_EN.txt	HORN	5	9	[0, 0, 0]	n/a	FR1	1	R1113T
1000.872	2.368	1034260	WORD	n/a	wordpools/wordpool_EN.txt	PIG	6	9	[0, 0, 0]	n/a	FR1	1	R1113T
1003.24	2.5	1036628	WORD	n/a	wordpools/wordpool_EN.txt	ANT	7	9	[0, 0, 0]	n/a	FR1	1	R1113T
1005.74	2.584	1039127	WORD	n/a	wordpools/wordpool_EN.txt	SNAIL	8	9	[0, 0, 0]	n/a	FR1	1	R1113T
1008.324	2.484	1041711	WORD	n/a	wordpools/wordpool_EN.txt	TAIL	9	9	[0, 0, 0]	n/a	FR1	1	R1113T
1010.808	2.6	1044195	WORD	n/a	wordpools/wordpool_EN.txt	WORM	10	9	[0, 0, 0]	n/a	FR1	1	R1113T
1013.408	2.601	1046795	WORD	n/a	wordpools/wordpool_EN.txt	BALL	11	9	[0, 0, 0]	n/a	FR1	1	R1113T
1016.009	1.618	1049396	WORD	n/a	wordpools/wordpool_EN.txt	BEE	12	9	[0, 0, 0]	n/a	FR1	1	R1113T
1017.627	0.0	1051014	DISTRACT_START	n/a	n/a	n/a	-999	9	[0, 0, 0]	n/a	FR1	1	R1113T
1017.627	0.015	1051014	START	n/a	n/a	n/a	-999	9	[-999, -999, -999]	n/a	FR1	1	R1113T
1017.642	19.804	1051029	PROB	19.804	n/a	n/a	-999	9	[4, 1, 2]	7	FR1	1	R1113T
1037.446	28.376	1070832	PROB	28.376	n/a	n/a	-999	9	[9, 9, 4]	22	FR1	1	R1113T
1065.822	0.012	1099207	STOP	n/a	n/a	n/a	-999	9	[-999, -999, -999]	n/a	FR1	1	R1113T
1065.834	1.184	1099219	DISTRACT_END	n/a	n/a	n/a	-999	9	[0, 0, 0]	n/a	FR1	1	R1113T
1067.018	2.045	1100402	REC_START	n/a	n/a	n/a	-999	9	[0, 0, 0]	n/a	FR1	1	R1113T
1069.063	1.745	1102447	REC_WORD	1.745	n/a	BAT	-999	9	[0, 0, 0]	n/a	FR1	1	R1113T
1070.808	1.766	1104192	REC_WORD	1.766	n/a	FLEA	-999	9	[0, 0, 0]	n/a	FR1	1	R1113T
1072.574	3.268	1105958	REC_WORD	3.268	n/a	NEST	-999	9	[0, 0, 0]	n/a	FR1	1	R1113T
1075.842	2.379	1109226	REC_WORD	2.379	n/a	WHALE	-999	9	[0, 0, 0]	n/a	FR1	1	R1113T
1078.221	18.814	1111605	REC_WORD	18.814	n/a	BEE	-999	9	[0, 0, 0]	n/a	FR1	1	R1113T
1097.035	8.039	1130418	REC_END	n/a	n/a	n/a	-999	9	[0, 0, 0]	n/a	FR1	1	R1113T
1105.074	0.001	1138457	COUNTDOWN_START	n/a	n/a	n/a	-999	10	[0, 0, 0]	n/a	FR1	1	R1113T
1105.075	10.427	1138458	TRIAL	n/a	n/a	n/a	-999	10	[0, 0, 0]	n/a	FR1	1	R1113T
1115.502	0.009	1148884	COUNTDOWN_END	n/a	n/a	n/a	-999	10	[0, 0, 0]	n/a	FR1	1	R1113T
1115.511	2.383	1148893	ORIENT	n/a	n/a	n/a	-999	10	[0, 0, 0]	n/a	FR1	1	R1113T
1117.894	2.4	1151276	WORD	n/a	wordpools/wordpool_EN.txt	STOVE	1	10	[0, 0, 0]	n/a	FR1	1	R1113T
1120.294	2.484	1153676	WORD	n/a	wordpools/wordpool_EN.txt	TRUCK	2	10	[0, 0, 0]	n/a	FR1	1	R1113T
1122.778	2.567	1156160	WORD	n/a	wordpools/wordpool_EN.txt	PARK	3	10	[0, 0, 0]	n/a	FR1	1	R1113T
1125.345	2.451	1158727	WORD	n/a	wordpools/wordpool_EN.txt	SIGN	4	10	[0, 0, 0]	n/a	FR1	1	R1113T
1127.796	2.383	1161177	WORD	n/a	wordpools/wordpool_EN.txt	BATH	5	10	[0, 0, 0]	n/a	FR1	1	R1113T
1130.179	2.418	1163560	WORD	n/a	wordpools/wordpool_EN.txt	STAIR	6	10	[0, 0, 0]	n/a	FR1	1	R1113T
1132.597	2.45	1165978	WORD	n/a	wordpools/wordpool_EN.txt	STRAW	7	10	[0, 0, 0]	n/a	FR1	1	R1113T
1135.047	2.451	1168428	WORD	n/a	wordpools/wordpool_EN.txt	MILK	8	10	[0, 0, 0]	n/a	FR1	1	R1113T
1137.498	2.4	1170879	WORD	n/a	wordpools/wordpool_EN.txt	VEST	9	10	[0, 0, 0]	n/a	FR1	1	R1113T
1139.898	2.601	1173279	WORD	n/a	wordpools/wordpool_EN.txt	SWAMP	10	10	[0, 0, 0]	n/a	FR1	1	R1113T
1142.499	2.383	1175880	WORD	n/a	wordpools/wordpool_EN.txt	FARM	11	10	[0, 0, 0]	n/a	FR1	1	R1113T
1144.882	1.618	1178263	WORD	n/a	wordpools/wordpool_EN.txt	WEED	12	10	[0, 0, 0]	n/a	FR1	1	R1113T
1146.5	0.001	1179881	DISTRACT_START	n/a	n/a	n/a	-999	10	[0, 0, 0]	n/a	FR1	1	R1113T
1146.501	0.016	1179882	START	n/a	n/a	n/a	-999	10	[-999, -999, -999]	n/a	FR1	1	R1113T
1146.517	18.369	1179898	PROB	18.369	n/a	n/a	-999	10	[1, 6, 5]	12	FR1	1	R1113T
1164.886	6.984	1198266	PROB	6.984	n/a	n/a	-999	10	[2, 2, 5]	9	FR1	1	R1113T
1171.87	0.017	1205249	STOP	n/a	n/a	n/a	-999	10	[-999, -999, -999]	n/a	FR1	1	R1113T
1171.887	1.101	1205266	DISTRACT_END	n/a	n/a	n/a	-999	10	[0, 0, 0]	n/a	FR1	1	R1113T
1172.988	2.084	1206367	REC_START	n/a	n/a	n/a	-999	10	[0, 0, 0]	n/a	FR1	1	R1113T
1175.072	1.32	1208451	REC_WORD	1.32	n/a	STOVE	-999	10	[0, 0, 0]	n/a	FR1	1	R1113T
1176.392	1.694	1209771	REC_WORD	1.694	n/a	TRUCK	-999	10	[0, 0, 0]	n/a	FR1	1	R1113T
1178.086	1.723	1211465	REC_WORD	1.723	n/a	PARK	-999	10	[0, 0, 0]	n/a	FR1	1	R1113T
1179.809	1.94	1213188	REC_WORD	1.94	n/a	SIGN	-999	10	[0, 0, 0]	n/a	FR1	1	R1113T
1181.749	1.195	1215128	REC_WORD	1.195	n/a	MILK	-999	10	[0, 0, 0]	n/a	FR1	1	R1113T
1182.944	20.056	1216323	REC_WORD	20.056	n/a	FARM	-999	10	[0, 0, 0]	n/a	FR1	1	R1113T
1203.0	2.093	1236378	REC_END	n/a	n/a	n/a	-999	10	[0, 0, 0]	n/a	FR1	1	R1113T
1205.093	0.0	1238471	COUNTDOWN_START	n/a	n/a	n/a	-999	11	[0, 0, 0]	n/a	FR1	1	R1113T
1205.093	10.428	1238471	TRIAL	n/a	n/a	n/a	-999	11	[0, 0, 0]	n/a	FR1	1	R1113T
1215.521	0.008	1248898	COUNTDOWN_END	n/a	n/a	n/a	-999	11	[0, 0, 0]	n/a	FR1	1	R1113T
1215.529	2.416	1248906	ORIENT	n/a	n/a	n/a	-999	11	[0, 0, 0]	n/a	FR1	1	R1113T
1217.945	2.467	1251322	WORD	n/a	wordpools/wordpool_EN.txt	SQUARE	1	11	[0, 0, 0]	n/a	FR1	1	R1113T
1220.412	2.634	1253789	WORD	n/a	wordpools/wordpool_EN.txt	CART	2	11	[0, 0, 0]	n/a	FR1	1	R1113T
1223.046	2.617	1256423	WORD	n/a	wordpools/wordpool_EN.txt	BOWL	3	11	[0, 0, 0]	n/a	FR1	1	R1113T
1225.663	2.584	1259040	WORD	n/a	wordpools/wordpool_EN.txt	BOY	4	11	[0, 0, 0]	n/a	FR1	1	R1113T
1228.247	2.567	1261623	WORD	n/a	wordpools/wordpool_EN.txt	WOOD	5	11	[0, 0, 0]	n/a	FR1	1	R1113T
1230.814	2.451	1264190	WORD	n/a	wordpools/wordpool_EN.txt	BOAT	6	11	[0, 0, 0]	n/a	FR1	1	R1113T
1233.265	2.5	1266641	WORD	n/a	wordpools/wordpool_EN.txt	CROWN	7	11	[0, 0, 0]	n/a	FR1	1	R1113T
1235.765	2.517	1269141	WORD	n/a	wordpools/wordpool_EN.txt	CLAY	8	11	[0, 0, 0]	n/a	FR1	1	R1113T
1238.282	2.551	1271658	WORD	n/a	wordpools/wordpool_EN.txt	CANE	9	11	[0, 0, 0]	n/a	FR1	1	R1113T
1240.833	2.534	1274209	WORD	n/a	wordpools/wordpool_EN.txt	SLEEVE	10	11	[0, 0, 0]	n/a	FR1	1	R1113T
1243.367	2.583	1276743	WORD	n/a	wordpools/wordpool_EN.txt	SWORD	11	11	[0, 0, 0]	n/a	FR1	1	R1113T
1245.95	1.601	1279326	WORD	n/a	wordpools/wordpool_EN.txt	CUBE	12	11	[0, 0, 0]	n/a	FR1	1	R1113T
1247.551	0.001	1280927	DISTRACT_START	n/a	n/a	n/a	-999	11	[0, 0, 0]	n/a	FR1	1	R1113T
1247.552	0.016	1280928	START	n/a	n/a	n/a	-999	11	[-999, -999, -999]	n/a	FR1	1	R1113T
1247.568	18.536	1280944	PROB	18.536	n/a	n/a	-999	11	[1, 8, 2]	11	FR1	1	R1113T
1266.104	10.582	1299479	PROB	10.582	n/a	n/a	-999	11	[5, 1, 6]	12	FR1	1	R1113T
1276.686	0.02	1310060	STOP	n/a	n/a	n/a	-999	11	[-999, -999, -999]	n/a	FR1	1	R1113T
1276.706	1.134	1310080	DISTRACT_END	n/a	n/a	n/a	-999	11	[0, 0, 0]	n/a	FR1	1	R1113T
1277.84	2.694	1311214	REC_START	n/a	n/a	n/a	-999	11	[0, 0, 0]	n/a	FR1	1	R1113T
1280.534	2.048	1313908	REC_WORD	2.048	n/a	SQUARE	-999	11	[0, 0, 0]	n/a	FR1	1	R1113T
1282.582	1.832	1315956	REC_WORD	1.832	n/a	CART	-999	11	[0, 0, 0]	n/a	FR1	1	R1113T
1284.414	1.674	1317788	REC_WORD	1.674	n/a	BOY	-999	11	[0, 0, 0]	n/a	FR1	1	R1113T
1286.088	2.058	1319462	REC_WORD	2.058	n/a	WOOD	-999	11	[0, 0, 0]	n/a	FR1	1	R1113T
1288.146	1.495	1321520	REC_WORD	1.495	n/a	CLAY	-999	11	[0, 0, 0]	n/a	FR1	1	R1113T
1289.641	18.212	1323014	REC_WORD	18.212	n/a	SWORD	-999	11	[0, 0, 0]	n/a	FR1	1	R1113T
1307.853	3.292	1341226	REC_END	n/a	n/a	n/a	-999	11	[0, 0, 0]	n/a	FR1	1	R1113T
1311.145	0.001	1344517	COUNTDOWN_START	n/a	n/a	n/a	-999	12	[0, 0, 0]	n/a	FR1	1	R1113T
1311.146	10.427	1344518	TRIAL	n/a	n/a	n/a	-999	12	[0, 0, 0]	n/a	FR1	1	R1113T
1321.573	0.009	1354945	COUNTDOWN_END	n/a	n/a	n/a	-999	12	[0, 0, 0]	n/a	FR1	1	R1113T
1321.582	2.466	1354954	ORIENT	n/a	n/a	n/a	-999	12	[0, 0, 0]	n/a	FR1	1	R1113T
1324.048	2.535	1357420	WORD	n/a	wordpools/wordpool_EN.txt	LAMB	1	12	[0, 0, 0]	n/a	FR1	1	R1113T
1326.583	2.466	1359955	WORD	n/a	wordpools/wordpool_EN.txt	DEER	2	12	[0, 0, 0]	n/a	FR1	1	R1113T
1329.049	2.568	1362420	WORD	n/a	wordpools/wordpool_EN.txt	WAND	3	12	[0, 0, 0]	n/a	FR1	1	R1113T
1331.617	2.533	1364988	WORD	n/a	wordpools/wordpool_EN.txt	WOLF	4	12	[0, 0, 0]	n/a	FR1	1	R1113T
1334.15	2.6	1367521	WORD	n/a	wordpools/wordpool_EN.txt	RAKE	5	12	[0, 0, 0]	n/a	FR1	1	R1113T
1336.75	2.434	1370121	WORD	n/a	wordpools/wordpool_EN.txt	SNOW	6	12	[0, 0, 0]	n/a	FR1	1	R1113T
1339.184	2.517	1372555	WORD	n/a	wordpools/wordpool_EN.txt	ROAD	7	12	[0, 0, 0]	n/a	FR1	1	R1113T
1341.701	2.484	1375072	WORD	n/a	wordpools/wordpool_EN.txt	STONE	8	12	[0, 0, 0]	n/a	FR1	1	R1113T
1344.185	2.435	1377556	WORD	n/a	wordpools/wordpool_EN.txt	FORK	9	12	[0, 0, 0]	n/a	FR1	1	R1113T
1346.62	2.582	1379991	WORD	n/a	wordpools/wordpool_EN.txt	CRANE	10	12	[0, 0, 0]	n/a	FR1	1	R1113T
1349.202	2.484	1382572	WORD	n/a	wordpools/wordpool_EN.txt	BEAR	11	12	[0, 0, 0]	n/a	FR1	1	R1113T
1351.686	1.617	1385056	WORD	n/a	wordpools/wordpool_EN.txt	MOLE	12	12	[0, 0, 0]	n/a	FR1	1	R1113T
1353.303	0.001	1386673	DISTRACT_START	n/a	n/a	n/a	-999	12	[0, 0, 0]	n/a	FR1	1	R1113T
1353.304	0.016	1386674	START	n/a	n/a	n/a	-999	12	[-999, -999, -999]	n/a	FR1	1	R1113T
1353.32	28.614	1386690	PROB	28.614	n/a	n/a	-999	12	[6, 6, 9]	21	FR1	1	R1113T
1381.934	0.008	1415303	STOP	n/a	n/a	n/a	-999	12	[-999, -999, -999]	n/a	FR1	1	R1113T
1381.942	1.101	1415311	DISTRACT_END	n/a	n/a	n/a	-999	12	[0, 0, 0]	n/a	FR1	1	R1113T
1383.043	1.136	1416412	REC_START	n/a	n/a	n/a	-999	12	[0, 0, 0]	n/a	FR1	1	R1113T
1384.179	1.799	1417548	REC_WORD	1.799	n/a	LAMB	-999	12	[0, 0, 0]	n/a	FR1	1	R1113T
1385.978	1.571	1419347	REC_WORD	1.571	n/a	DEER	-999	12	[0, 0, 0]	n/a	FR1	1	R1113T
1387.549	1.171	1420918	REC_WORD	1.171	n/a	WOLF	-999	12	[0, 0, 0]	n/a	FR1	1	R1113T
1388.72	24.335	1422089	REC_WORD	24.335	n/a	ROAD	-999	12	[0, 0, 0]	n/a	FR1	1	R1113T
1413.055	2.376	1446422	REC_END	n/a	n/a	n/a	-999	12	[0, 0, 0]	n/a	FR1	1	R1113T
1415.431	0.0	1448798	COUNTDOWN_START	n/a	n/a	n/a	-999	13	[0, 0, 0]	n/a	FR1	1	R1113T
1415.431	10.428	1448798	TRIAL	n/a	n/a	n/a	-999	13	[0, 0, 0]	n/a	FR1	1	R1113T
1425.859	0.007	1459226	COUNTDOWN_END	n/a	n/a	n/a	-999	13	[0, 0, 0]	n/a	FR1	1	R1113T
1425.866	2.534	1459233	ORIENT	n/a	n/a	n/a	-999	13	[0, 0, 0]	n/a	FR1	1	R1113T
1428.4	2.617	1461767	WORD	n/a	wordpools/wordpool_EN.txt	BENCH	1	13	[0, 0, 0]	n/a	FR1	1	R1113T
1431.017	2.519	1464383	WORD	n/a	wordpools/wordpool_EN.txt	COUCH	2	13	[0, 0, 0]	n/a	FR1	1	R1113T
1433.536	2.616	1466902	WORD	n/a	wordpools/wordpool_EN.txt	POOL	3	13	[0, 0, 0]	n/a	FR1	1	R1113T
1436.152	2.401	1469518	WORD	n/a	wordpools/wordpool_EN.txt	AXE	4	13	[0, 0, 0]	n/a	FR1	1	R1113T
1438.553	2.45	1471919	WORD	n/a	wordpools/wordpool_EN.txt	TEA	5	13	[0, 0, 0]	n/a	FR1	1	R1113T
1441.003	2.484	1474369	WORD	n/a	wordpools/wordpool_EN.txt	FLOOR	6	13	[0, 0, 0]	n/a	FR1	1	R1113T
1443.487	2.533	1476853	WORD	n/a	wordpools/wordpool_EN.txt	LEG	7	13	[0, 0, 0]	n/a	FR1	1	R1113T
1446.02	2.568	1479386	WORD	n/a	wordpools/wordpool_EN.txt	HOUSE	8	13	[0, 0, 0]	n/a	FR1	1	R1113T
1448.588	2.466	1481954	WORD	n/a	wordpools/wordpool_EN.txt	PURSE	9	13	[0, 0, 0]	n/a	FR1	1	R1113T
1451.054	2.419	1484419	WORD	n/a	wordpools/wordpool_EN.txt	PALM	10	13	[0, 0, 0]	n/a	FR1	1	R1113T
1453.473	2.599	1486838	WORD	n/a	wordpools/wordpool_EN.txt	DART	11	13	[0, 0, 0]	n/a	FR1	1	R1113T
1456.072	1.617	1489437	WORD	n/a	wordpools/wordpool_EN.txt	SHOE	12	13	[0, 0, 0]	n/a	FR1	1	R1113T
1457.689	0.001	1491054	DISTRACT_START	n/a	n/a	n/a	-999	13	[0, 0, 0]	n/a	FR1	1	R1113T
1457.69	0.016	1491055	START	n/a	n/a	n/a	-999	13	[-999, -999, -999]	n/a	FR1	1	R1113T
1457.706	19.286	1491071	PROB	19.286	n/a	n/a	-999	13	[5, 7, 2]	14	FR1	1	R1113T
1476.992	11.83	1510356	PROB	11.83	n/a	n/a	-999	13	[6, 1, 4]	11	FR1	1	R1113T
1488.822	0.006	1522186	STOP	n/a	n/a	n/a	-999	13	[-999, -999, -999]	n/a	FR1	1	R1113T
1488.828	1.051	1522192	DISTRACT_END	n/a	n/a	n/a	-999	13	[0, 0, 0]	n/a	FR1	1	R1113T
1489.879	1.71	1523243	REC_START	n/a	n/a	n/a	-999	13	[0, 0, 0]	n/a	FR1	1	R1113T
1491.589	1.441	1524952	REC_WORD	1.441	n/a	BENCH	-999	13	[0, 0, 0]	n/a	FR1	1	R1113T
1493.03	1.517	1526393	REC_WORD	1.517	n/a	AXE	-999	13	[0, 0, 0]	n/a	FR1	1	R1113T
1494.547	1.523	1527910	REC_WORD	1.523	n/a	HOUSE	-999	13	[0, 0, 0]	n/a	FR1	1	R1113T
1496.07	23.821	1529433	REC_WORD	23.821	n/a	HOSE	-999	13	[0, 0, 0]	n/a	FR1	1	R1113T
1519.891	2.159	1553253	REC_END	n/a	n/a	n/a	-999	13	[0, 0, 0]	n/a	FR1	1	R1113T
1522.05	0.001	1555412	COUNTDOWN_START	n/a	n/a	n/a	-999	14	[0, 0, 0]	n/a	FR1	1	R1113T
1522.051	10.427	1555413	TRIAL	n/a	n/a	n/a	-999	14	[0, 0, 0]	n/a	FR1	1	R1113T
1532.478	0.009	1565839	COUNTDOWN_END	n/a	n/a	n/a	-999	14	[0, 0, 0]	n/a	FR1	1	R1113T
1532.487	2.616	1565848	ORIENT	n/a	n/a	n/a	-999	14	[0, 0, 0]	n/a	FR1	1	R1113T
1535.103	2.567	1568464	WORD	n/a	wordpools/wordpool_EN.txt	JUICE	1	14	[0, 0, 0]	n/a	FR1	1	R1113T
1537.67	2.384	1571031	WORD	n/a	wordpools/wordpool_EN.txt	CORN	2	14	[0, 0, 0]	n/a	FR1	1	R1113T
1540.054	2.518	1573415	WORD	n/a	wordpools/wordpool_EN.txt	CAGE	3	14	[0, 0, 0]	n/a	FR1	1	R1113T
1542.572	2.433	1575933	WORD	n/a	wordpools/wordpool_EN.txt	MUG	4	14	[0, 0, 0]	n/a	FR1	1	R1113T
1545.005	2.417	1578366	WORD	n/a	wordpools/wordpool_EN.txt	HORSE	5	14	[0, 0, 0]	n/a	FR1	1	R1113T
1547.422	2.4	1580783	WORD	n/a	wordpools/wordpool_EN.txt	ARM	6	14	[0, 0, 0]	n/a	FR1	1	R1113T
1549.822	2.417	1583183	WORD	n/a	wordpools/wordpool_EN.txt	STEAK	7	14	[0, 0, 0]	n/a	FR1	1	R1113T
1552.239	2.534	1585599	WORD	n/a	wordpools/wordpool_EN.txt	TOAST	8	14	[0, 0, 0]	n/a	FR1	1	R1113T
1554.773	2.551	1588133	WORD	n/a	wordpools/wordpool_EN.txt	CAVE	9	14	[0, 0, 0]	n/a	FR1	1	R1113T
1557.324	2.433	1590684	WORD	n/a	wordpools/wordpool_EN.txt	GLASS	10	14	[0, 0, 0]	n/a	FR1	1	R1113T
1559.757	2.518	1593117	WORD	n/a	wordpools/wordpool_EN.txt	HOOF	11	14	[0, 0, 0]	n/a	FR1	1	R1113T
1562.275	1.617	1595635	WORD	n/a	wordpools/wordpool_EN.txt	PLATE	12	14	[0, 0, 0]	n/a	FR1	1	R1113T
1563.892	0.0	1597252	DISTRACT_START	n/a	n/a	n/a	-999	14	[0, 0, 0]	n/a	FR1	1	R1113T
1563.892	0.016	1597252	START	n/a	n/a	n/a	-999	14	[-999, -999, -999]	n/a	FR1	1	R1113T
1563.908	47.891	1597268	PROB	47.891	n/a	n/a	-999	14	[9, 3, 6]	18	FR1	1	R1113T
1611.799	0.018	1645156	STOP	n/a	n/a	n/a	-999	14	[-999, -999, -999]	n/a	FR1	1	R1113T
1611.817	1.118	1645174	DISTRACT_END	n/a	n/a	n/a	-999	14	[0, 0, 0]	n/a	FR1	1	R1113T
1612.935	3.7	1646292	REC_START	n/a	n/a	n/a	-999	14	[0, 0, 0]	n/a	FR1	1	R1113T
1616.635	1.637	1649992	REC_WORD	1.637	n/a	JUICE	-999	14	[0, 0, 0]	n/a	FR1	1	R1113T
1618.272	1.977	1651629	REC_WORD	1.977	n/a	CORN	-999	14	[0, 0, 0]	n/a	FR1	1	R1113T
1620.249	5.36	1653606	REC_WORD	5.36	n/a	CAVE	-999	14	[0, 0, 0]	n/a	FR1	1	R1113T
1625.609	1.884	1658966	REC_WORD	1.884	n/a	HOSE	-999	14	[0, 0, 0]	n/a	FR1	1	R1113T
1627.493	15.453	1660850	REC_WORD	15.453	n/a	HORSE	-999	14	[0, 0, 0]	n/a	FR1	1	R1113T
1642.946	2.544	1676302	REC_END	n/a	n/a	n/a	-999	14	[0, 0, 0]	n/a	FR1	1	R1113T
1645.49	0.001	1678846	COUNTDOWN_START	n/a	n/a	n/a	-999	15	[0, 0, 0]	n/a	FR1	1	R1113T
1645.491	10.427	1678847	TRIAL	n/a	n/a	n/a	-999	15	[0, 0, 0]	n/a	FR1	1	R1113T
1655.918	0.007	1689273	COUNTDOWN_END	n/a	n/a	n/a	-999	15	[0, 0, 0]	n/a	FR1	1	R1113T
1655.925	2.4	1689280	ORIENT	n/a	n/a	n/a	-999	15	[0, 0, 0]	n/a	FR1	1	R1113T
1658.325	2.534	1691680	WORD	n/a	wordpools/wordpool_EN.txt	CROW	1	15	[0, 0, 0]	n/a	FR1	1	R1113T
1660.859	2.501	1694214	WORD	n/a	wordpools/wordpool_EN.txt	SOAP	2	15	[0, 0, 0]	n/a	FR1	1	R1113T
1663.36	2.517	1696715	WORD	n/a	wordpools/wordpool_EN.txt	RUG	3	15	[0, 0, 0]	n/a	FR1	1	R1113T
1665.877	2.384	1699232	WORD	n/a	wordpools/wordpool_EN.txt	SUIT	4	15	[0, 0, 0]	n/a	FR1	1	R1113T
1668.261	2.583	1701616	WORD	n/a	wordpools/wordpool_EN.txt	FAN	5	15	[0, 0, 0]	n/a	FR1	1	R1113T
1670.844	2.534	1704199	WORD	n/a	wordpools/wordpool_EN.txt	GOAT	6	15	[0, 0, 0]	n/a	FR1	1	R1113T
1673.378	2.617	1706732	WORD	n/a	wordpools/wordpool_EN.txt	RIB	7	15	[0, 0, 0]	n/a	FR1	1	R1113T
1675.995	2.384	1709349	WORD	n/a	wordpools/wordpool_EN.txt	BOOT	8	15	[0, 0, 0]	n/a	FR1	1	R1113T
1678.379	2.401	1711733	WORD	n/a	wordpools/wordpool_EN.txt	SHIRT	9	15	[0, 0, 0]	n/a	FR1	1	R1113T
1680.78	2.483	1714134	WORD	n/a	wordpools/wordpool_EN.txt	FENCE	10	15	[0, 0, 0]	n/a	FR1	1	R1113T
1683.263	2.534	1716617	WORD	n/a	wordpools/wordpool_EN.txt	BROOM	11	15	[0, 0, 0]	n/a	FR1	1	R1113T
1685.797	1.617	1719151	WORD	n/a	wordpools/wordpool_EN.txt	PANTS	12	15	[0, 0, 0]	n/a	FR1	1	R1113T
1687.414	0.001	1720768	DISTRACT_START	n/a	n/a	n/a	-999	15	[0, 0, 0]	n/a	FR1	1	R1113T
1687.415	0.016	1720769	START	n/a	n/a	n/a	-999	15	[-999, -999, -999]	n/a	FR1	1	R1113T
1687.431	11.053	1720785	PROB	11.053	n/a	n/a	-999	15	[6, 4, 2]	12	FR1	1	R1113T
1698.484	17.545	1731837	PROB	17.545	n/a	n/a	-999	15	[9, 2, 3]	14	FR1	1	R1113T
1716.029	0.024	1749381	STOP	n/a	n/a	n/a	-999	15	[-999, -999, -999]	n/a	FR1	1	R1113T
1716.053	1.167	1749405	DISTRACT_END	n/a	n/a	n/a	-999	15	[0, 0, 0]	n/a	FR1	1	R1113T
1717.22	2.47	1750572	REC_START	n/a	n/a	n/a	-999	15	[0, 0, 0]	n/a	FR1	1	R1113T
1719.69	1.818	1753042	REC_WORD	1.818	n/a	CROW	-999	15	[0, 0, 0]	n/a	FR1	1	R1113T
1721.508	1.98	1754860	REC_WORD	1.98	n/a	SOAP	-999	15	[0, 0, 0]	n/a	FR1	1	R1113T
1723.488	1.999	1756840	REC_WORD	1.999	n/a	FENCE	-999	15	[0, 0, 0]	n/a	FR1	1	R1113T
1725.487	1.196	1758839	REC_WORD	1.196	n/a	PANTS	-999	15	[0, 0, 0]	n/a	FR1	1	R1113T
1726.683	20.554	1760035	REC_WORD	20.554	n/a	SHIRT	-999	15	[0, 0, 0]	n/a	FR1	1	R1113T
1747.237	3.373	1780588	REC_END	n/a	n/a	n/a	-999	15	[0, 0, 0]	n/a	FR1	1	R1113T
1750.61	0.0	1783961	TRIAL	n/a	n/a	n/a	-999	16	[0, 0, 0]	n/a	FR1	1	R1113T
1750.61	10.428	1783961	COUNTDOWN_START	n/a	n/a	n/a	-999	16	[0, 0, 0]	n/a	FR1	1	R1113T
1761.038	0.006	1794388	COUNTDOWN_END	n/a	n/a	n/a	-999	16	[0, 0, 0]	n/a	FR1	1	R1113T
1761.044	2.552	1794394	ORIENT	n/a	n/a	n/a	-999	16	[0, 0, 0]	n/a	FR1	1	R1113T
1763.596	2.466	1796946	WORD	n/a	wordpools/wordpool_EN.txt	BRICK	1	16	[0, 0, 0]	n/a	FR1	1	R1113T
1766.062	2.418	1799412	WORD	n/a	wordpools/wordpool_EN.txt	MAIL	2	16	[0, 0, 0]	n/a	FR1	1	R1113T
1768.48	2.399	1801830	WORD	n/a	wordpools/wordpool_EN.txt	FILM	3	16	[0, 0, 0]	n/a	FR1	1	R1113T
1770.879	2.501	1804229	WORD	n/a	wordpools/wordpool_EN.txt	JUDGE	4	16	[0, 0, 0]	n/a	FR1	1	R1113T
1773.38	2.517	1806729	WORD	n/a	wordpools/wordpool_EN.txt	DOOR	5	16	[0, 0, 0]	n/a	FR1	1	R1113T
1775.897	2.517	1809246	WORD	n/a	wordpools/wordpool_EN.txt	CAR	6	16	[0, 0, 0]	n/a	FR1	1	R1113T
1778.414	2.6	1811763	WORD	n/a	wordpools/wordpool_EN.txt	BOOK	7	16	[0, 0, 0]	n/a	FR1	1	R1113T
1781.014	2.535	1814363	WORD	n/a	wordpools/wordpool_EN.txt	KITE	8	16	[0, 0, 0]	n/a	FR1	1	R1113T
1783.549	2.466	1816898	WORD	n/a	wordpools/wordpool_EN.txt	INK	9	16	[0, 0, 0]	n/a	FR1	1	R1113T
1786.015	2.485	1819364	WORD	n/a	wordpools/wordpool_EN.txt	SKI	10	16	[0, 0, 0]	n/a	FR1	1	R1113T
1788.5	2.6	1821849	WORD	n/a	wordpools/wordpool_EN.txt	BANK	11	16	[0, 0, 0]	n/a	FR1	1	R1113T
1791.1	1.617	1824449	WORD	n/a	wordpools/wordpool_EN.txt	JAIL	12	16	[0, 0, 0]	n/a	FR1	1	R1113T
1792.717	0.0	1826066	DISTRACT_START	n/a	n/a	n/a	-999	16	[0, 0, 0]	n/a	FR1	1	R1113T
1792.717	0.016	1826066	START	n/a	n/a	n/a	-999	16	[-999, -999, -999]	n/a	FR1	1	R1113T
1792.733	36.13	1826082	PROB	36.13	n/a	n/a	-999	16	[8, 8, 7]	23	FR1	1	R1113T
1828.863	0.01	1862210	STOP	n/a	n/a	n/a	-999	16	[-999, -999, -999]	n/a	FR1	1	R1113T
1828.873	1.034	1862220	DISTRACT_END	n/a	n/a	n/a	-999	16	[0, 0, 0]	n/a	FR1	1	R1113T
1829.907	1.76	1863254	REC_START	n/a	n/a	n/a	-999	16	[0, 0, 0]	n/a	FR1	1	R1113T
1831.667	1.573	1865014	REC_WORD	1.573	n/a	BRICK	-999	16	[0, 0, 0]	n/a	FR1	1	R1113T
1833.24	1.454	1866587	REC_WORD	1.454	n/a	MAIL	-999	16	[0, 0, 0]	n/a	FR1	1	R1113T
1834.694	1.763	1868040	REC_WORD	1.763	n/a	FILM	-999	16	[0, 0, 0]	n/a	FR1	1	R1113T
1836.457	1.44	1869803	REC_WORD	1.44	n/a	JUDGE	-999	16	[0, 0, 0]	n/a	FR1	1	R1113T
1837.897	22.027	1871243	REC_WORD	22.027	n/a	JAIL	-999	16	[0, 0, 0]	n/a	FR1	1	R1113T
1859.924	2.59	1893269	REC_END	n/a	n/a	n/a	-999	16	[0, 0, 0]	n/a	FR1	1	R1113T
1862.514	0.0	1895859	TRIAL	n/a	n/a	n/a	-999	17	[0, 0, 0]	n/a	FR1	1	R1113T
1862.514	10.428	1895859	COUNTDOWN_START	n/a	n/a	n/a	-999	17	[0, 0, 0]	n/a	FR1	1	R1113T
1872.942	0.006	1906287	COUNTDOWN_END	n/a	n/a	n/a	-999	17	[0, 0, 0]	n/a	FR1	1	R1113T
1872.948	2.5	1906293	ORIENT	n/a	n/a	n/a	-999	17	[0, 0, 0]	n/a	FR1	1	R1113T
1875.448	2.534	1908792	WORD	n/a	wordpools/wordpool_EN.txt	RICE	1	17	[0, 0, 0]	n/a	FR1	1	R1113T
1877.982	2.551	1911326	WORD	n/a	wordpools/wordpool_EN.txt	EGG	2	17	[0, 0, 0]	n/a	FR1	1	R1113T
1880.533	2.466	1913877	WORD	n/a	wordpools/wordpool_EN.txt	CORD	3	17	[0, 0, 0]	n/a	FR1	1	R1113T
1882.999	2.602	1916343	WORD	n/a	wordpools/wordpool_EN.txt	NET	4	17	[0, 0, 0]	n/a	FR1	1	R1113T
1885.601	2.4	1918945	WORD	n/a	wordpools/wordpool_EN.txt	WAVE	5	17	[0, 0, 0]	n/a	FR1	1	R1113T
1888.001	2.451	1921345	WORD	n/a	wordpools/wordpool_EN.txt	POLE	6	17	[0, 0, 0]	n/a	FR1	1	R1113T
1890.452	2.583	1923796	WORD	n/a	wordpools/wordpool_EN.txt	PEA	7	17	[0, 0, 0]	n/a	FR1	1	R1113T
1893.035	2.6	1926379	WORD	n/a	wordpools/wordpool_EN.txt	TOAD	8	17	[0, 0, 0]	n/a	FR1	1	R1113T
1895.635	2.468	1928978	WORD	n/a	wordpools/wordpool_EN.txt	SHEET	9	17	[0, 0, 0]	n/a	FR1	1	R1113T
1898.103	2.384	1931446	WORD	n/a	wordpools/wordpool_EN.txt	CASH	10	17	[0, 0, 0]	n/a	FR1	1	R1113T
1900.487	2.416	1933830	WORD	n/a	wordpools/wordpool_EN.txt	HEN	11	17	[0, 0, 0]	n/a	FR1	1	R1113T
1902.903	1.601	1936246	WORD	n/a	wordpools/wordpool_EN.txt	COIN	12	17	[0, 0, 0]	n/a	FR1	1	R1113T
1904.504	0.001	1937847	DISTRACT_START	n/a	n/a	n/a	-999	17	[0, 0, 0]	n/a	FR1	1	R1113T
1904.505	0.016	1937848	START	n/a	n/a	n/a	-999	17	[-999, -999, -999]	n/a	FR1	1	R1113T
1904.521	14.97	1937864	PROB	14.97	n/a	n/a	-999	17	[6, 4, 4]	14	FR1	1	R1113T
1919.491	8.955	1952833	PROB	8.955	n/a	n/a	-999	17	[6, 2, 4]	12	FR1	1	R1113T
1928.446	0.013	1961788	STOP	n/a	n/a	n/a	-999	17	[-999, -999, -999]	n/a	FR1	1	R1113T
1928.459	1.216	1961801	DISTRACT_END	n/a	n/a	n/a	-999	17	[0, 0, 0]	n/a	FR1	1	R1113T
1929.675	1.719	1963017	REC_START	n/a	n/a	n/a	-999	17	[0, 0, 0]	n/a	FR1	1	R1113T
1931.394	1.165	1964736	REC_WORD	1.165	n/a	RICE	-999	17	[0, 0, 0]	n/a	FR1	1	R1113T
1932.559	2.0	1965901	REC_WORD	2.0	n/a	EGG	-999	17	[0, 0, 0]	n/a	FR1	1	R1113T
1934.559	25.133	1967901	REC_WORD	25.133	n/a	CORN	-999	17	[0, 0, 0]	n/a	FR1	1	R1113T
1959.692	3.039	1993032	REC_END	n/a	n/a	n/a	-999	17	[0, 0, 0]	n/a	FR1	1	R1113T
1962.731	0.0	1996071	TRIAL	n/a	n/a	n/a	-999	18	[0, 0, 0]	n/a	FR1	1	R1113T
1962.731	10.428	1996071	COUNTDOWN_START	n/a	n/a	n/a	-999	18	[0, 0, 0]	n/a	FR1	1	R1113T
1973.159	0.007	2006499	COUNTDOWN_END	n/a	n/a	n/a	-999	18	[0, 0, 0]	n/a	FR1	1	R1113T
1973.166	2.617	2006506	ORIENT	n/a	n/a	n/a	-999	18	[0, 0, 0]	n/a	FR1	1	R1113T
1975.783	2.551	2009122	WORD	n/a	wordpools/wordpool_EN.txt	FOAM	1	18	[0, 0, 0]	n/a	FR1	1	R1113T
1978.334	2.467	2011673	WORD	n/a	wordpools/wordpool_EN.txt	PEARL	2	18	[0, 0, 0]	n/a	FR1	1	R1113T
1980.801	2.634	2014140	WORD	n/a	wordpools/wordpool_EN.txt	PEACH	3	18	[0, 0, 0]	n/a	FR1	1	R1113T
1983.435	2.617	2016774	WORD	n/a	wordpools/wordpool_EN.txt	BEAN	4	18	[0, 0, 0]	n/a	FR1	1	R1113T
1986.052	2.401	2019391	WORD	n/a	wordpools/wordpool_EN.txt	JAR	5	18	[0, 0, 0]	n/a	FR1	1	R1113T
1988.453	2.583	2021792	WORD	n/a	wordpools/wordpool_EN.txt	DESK	6	18	[0, 0, 0]	n/a	FR1	1	R1113T
1991.036	2.485	2024375	WORD	n/a	wordpools/wordpool_EN.txt	SLIME	7	18	[0, 0, 0]	n/a	FR1	1	R1113T
1993.521	2.583	2026860	WORD	n/a	wordpools/wordpool_EN.txt	CUP	8	18	[0, 0, 0]	n/a	FR1	1	R1113T
1996.104	2.55	2029442	WORD	n/a	wordpools/wordpool_EN.txt	HOOK	9	18	[0, 0, 0]	n/a	FR1	1	R1113T
1998.654	2.534	2031992	WORD	n/a	wordpools/wordpool_EN.txt	SOUP	10	18	[0, 0, 0]	n/a	FR1	1	R1113T
2001.188	2.484	2034526	WORD	n/a	wordpools/wordpool_EN.txt	STOOL	11	18	[0, 0, 0]	n/a	FR1	1	R1113T
2003.672	1.617	2037010	WORD	n/a	wordpools/wordpool_EN.txt	FRUIT	12	18	[0, 0, 0]	n/a	FR1	1	R1113T
2005.289	0.001	2038627	DISTRACT_START	n/a	n/a	n/a	-999	18	[0, 0, 0]	n/a	FR1	1	R1113T
2005.29	0.015	2038628	START	n/a	n/a	n/a	-999	18	[-999, -999, -999]	n/a	FR1	1	R1113T
2005.305	15.67	2038643	PROB	15.67	n/a	n/a	-999	18	[2, 8, 1]	11	FR1	1	R1113T
2020.975	7.952	2054312	PROB	7.952	n/a	n/a	-999	18	[4, 4, 2]	10	FR1	1	R1113T
2028.927	0.016	2062264	STOP	n/a	n/a	n/a	-999	18	[-999, -999, -999]	n/a	FR1	1	R1113T
2028.943	1.217	2062280	DISTRACT_END	n/a	n/a	n/a	-999	18	[0, 0, 0]	n/a	FR1	1	R1113T
2030.16	1.27	2063497	REC_START	n/a	n/a	n/a	-999	18	[0, 0, 0]	n/a	FR1	1	R1113T
2031.43	1.366	2064767	REC_WORD	1.366	n/a	FOAM	-999	18	[0, 0, 0]	n/a	FR1	1	R1113T
2032.796	1.222	2066133	REC_WORD	1.222	n/a	PEARL	-999	18	[0, 0, 0]	n/a	FR1	1	R1113T
2034.018	0.934	2067355	REC_WORD	0.934	n/a	PEACH	-999	18	[0, 0, 0]	n/a	FR1	1	R1113T
2034.952	1.322	2068289	REC_WORD	1.322	n/a	SLIME	-999	18	[0, 0, 0]	n/a	FR1	1	R1113T
2036.274	23.903	2069610	REC_WORD	23.903	n/a	HOOK	-999	18	[0, 0, 0]	n/a	FR1	1	R1113T
2060.177	2.689	2093512	REC_END	n/a	n/a	n/a	-999	18	[0, 0, 0]	n/a	FR1	1	R1113T
2062.866	0.0	2096201	TRIAL	n/a	n/a	n/a	-999	19	[0, 0, 0]	n/a	FR1	1	R1113T
2062.866	10.428	2096201	COUNTDOWN_START	n/a	n/a	n/a	-999	19	[0, 0, 0]	n/a	FR1	1	R1113T
2073.294	0.007	2106629	COUNTDOWN_END	n/a	n/a	n/a	-999	19	[0, 0, 0]	n/a	FR1	1	R1113T
2073.301	2.5	2106636	ORIENT	n/a	n/a	n/a	-999	19	[0, 0, 0]	n/a	FR1	1	R1113T
2075.801	2.468	2109136	WORD	n/a	wordpools/wordpool_EN.txt	MAT	1	19	[0, 0, 0]	n/a	FR1	1	R1113T
2078.269	2.483	2111603	WORD	n/a	wordpools/wordpool_EN.txt	COW	2	19	[0, 0, 0]	n/a	FR1	1	R1113T
2080.752	2.468	2114086	WORD	n/a	wordpools/wordpool_EN.txt	PIE	3	19	[0, 0, 0]	n/a	FR1	1	R1113T
2083.22	2.517	2116554	WORD	n/a	wordpools/wordpool_EN.txt	BREAD	4	19	[0, 0, 0]	n/a	FR1	1	R1113T
2085.737	2.4	2119071	WORD	n/a	wordpools/wordpool_EN.txt	DOLL	5	19	[0, 0, 0]	n/a	FR1	1	R1113T
2088.137	2.517	2121471	WORD	n/a	wordpools/wordpool_EN.txt	VASE	6	19	[0, 0, 0]	n/a	FR1	1	R1113T
2090.654	2.484	2123988	WORD	n/a	wordpools/wordpool_EN.txt	SPRING	7	19	[0, 0, 0]	n/a	FR1	1	R1113T
2093.138	2.55	2126472	WORD	n/a	wordpools/wordpool_EN.txt	SINK	8	19	[0, 0, 0]	n/a	FR1	1	R1113T
2095.688	2.451	2129022	WORD	n/a	wordpools/wordpool_EN.txt	SEAT	9	19	[0, 0, 0]	n/a	FR1	1	R1113T
2098.139	2.567	2131472	WORD	n/a	wordpools/wordpool_EN.txt	SHEEP	10	19	[0, 0, 0]	n/a	FR1	1	R1113T
2100.706	2.517	2134039	WORD	n/a	wordpools/wordpool_EN.txt	CLOTH	11	19	[0, 0, 0]	n/a	FR1	1	R1113T
2103.223	1.617	2136556	WORD	n/a	wordpools/wordpool_EN.txt	BLUSH	12	19	[0, 0, 0]	n/a	FR1	1	R1113T
2104.84	0.001	2138173	DISTRACT_START	n/a	n/a	n/a	-999	19	[0, 0, 0]	n/a	FR1	1	R1113T
2104.841	0.016	2138174	START	n/a	n/a	n/a	-999	19	[-999, -999, -999]	n/a	FR1	1	R1113T
2104.857	23.422	2138190	PROB	23.422	n/a	n/a	-999	19	[9, 2, 5]	16	FR1	1	R1113T
2128.279	0.015	2161611	STOP	n/a	n/a	n/a	-999	19	[-999, -999, -999]	n/a	FR1	1	R1113T
2128.294	1.169	2161626	DISTRACT_END	n/a	n/a	n/a	-999	19	[0, 0, 0]	n/a	FR1	1	R1113T
2129.463	1.562	2162795	REC_START	n/a	n/a	n/a	-999	19	[0, 0, 0]	n/a	FR1	1	R1113T
2131.025	1.274	2164357	REC_WORD	1.274	n/a	MAT	-999	19	[0, 0, 0]	n/a	FR1	1	R1113T
2132.299	1.455	2165631	REC_WORD	1.455	n/a	COW	-999	19	[0, 0, 0]	n/a	FR1	1	R1113T
2133.754	2.856	2167086	REC_WORD	2.856	n/a	VASE	-999	19	[0, 0, 0]	n/a	FR1	1	R1113T
2136.61	22.865	2169942	REC_WORD	22.865	n/a	PIE	-999	19	[0, 0, 0]	n/a	FR1	1	R1113T
2159.475	2.359	2192805	REC_END	n/a	n/a	n/a	-999	19	[0, 0, 0]	n/a	FR1	1	R1113T
2161.834	0.0	2195164	COUNTDOWN_START	n/a	n/a	n/a	-999	20	[0, 0, 0]	n/a	FR1	1	R1113T
2161.834	10.428	2195164	TRIAL	n/a	n/a	n/a	-999	20	[0, 0, 0]	n/a	FR1	1	R1113T
2172.262	0.007	2205592	COUNTDOWN_END	n/a	n/a	n/a	-999	20	[0, 0, 0]	n/a	FR1	1	R1113T
2172.269	2.534	2205599	ORIENT	n/a	n/a	n/a	-999	20	[0, 0, 0]	n/a	FR1	1	R1113T
2174.803	2.417	2208133	WORD	n/a	wordpools/wordpool_EN.txt	SHRIMP	1	20	[0, 0, 0]	n/a	FR1	1	R1113T
2177.22	2.484	2210550	WORD	n/a	wordpools/wordpool_EN.txt	SALT	2	20	[0, 0, 0]	n/a	FR1	1	R1113T
2179.704	2.567	2213033	WORD	n/a	wordpools/wordpool_EN.txt	STRING	3	20	[0, 0, 0]	n/a	FR1	1	R1113T
2182.271	2.6	2215600	WORD	n/a	wordpools/wordpool_EN.txt	DIME	4	20	[0, 0, 0]	n/a	FR1	1	R1113T
2184.871	2.501	2218200	WORD	n/a	wordpools/wordpool_EN.txt	SPOON	5	20	[0, 0, 0]	n/a	FR1	1	R1113T
2187.372	2.584	2220701	WORD	n/a	wordpools/wordpool_EN.txt	SPONGE	6	20	[0, 0, 0]	n/a	FR1	1	R1113T
2189.956	2.467	2223285	WORD	n/a	wordpools/wordpool_EN.txt	ZOO	7	20	[0, 0, 0]	n/a	FR1	1	R1113T
2192.423	2.45	2225752	WORD	n/a	wordpools/wordpool_EN.txt	CLOWN	8	20	[0, 0, 0]	n/a	FR1	1	R1113T
2194.873	2.417	2228202	WORD	n/a	wordpools/wordpool_EN.txt	PASTE	9	20	[0, 0, 0]	n/a	FR1	1	R1113T
2197.29	2.517	2230619	WORD	n/a	wordpools/wordpool_EN.txt	TOOL	10	20	[0, 0, 0]	n/a	FR1	1	R1113T
2199.807	2.584	2233135	WORD	n/a	wordpools/wordpool_EN.txt	TEETH	11	20	[0, 0, 0]	n/a	FR1	1	R1113T
2202.391	1.617	2235719	WORD	n/a	wordpools/wordpool_EN.txt	ELF	12	20	[0, 0, 0]	n/a	FR1	1	R1113T
2204.008	0.001	2237336	DISTRACT_START	n/a	n/a	n/a	-999	20	[0, 0, 0]	n/a	FR1	1	R1113T
2204.009	0.016	2237337	START	n/a	n/a	n/a	-999	20	[-999, -999, -999]	n/a	FR1	1	R1113T
2204.025	20.662	2237353	PROB	20.662	n/a	n/a	-999	20	[2, 8, 4]	14	FR1	1	R1113T
2224.687	0.008	2258014	STOP	n/a	n/a	n/a	-999	20	[-999, -999, -999]	n/a	FR1	1	R1113T
2224.695	1.068	2258022	DISTRACT_END	n/a	n/a	n/a	-999	20	[0, 0, 0]	n/a	FR1	1	R1113T
2225.763	1.464	2259090	REC_START	n/a	n/a	n/a	-999	20	[0, 0, 0]	n/a	FR1	1	R1113T
2227.227	1.187	2260554	REC_WORD	1.187	n/a	SALT	-999	20	[0, 0, 0]	n/a	FR1	1	R1113T
2228.414	1.669	2261741	REC_WORD	1.669	n/a	SHRIMP	-999	20	[0, 0, 0]	n/a	FR1	1	R1113T
2230.083	1.629	2263410	REC_WORD	1.629	n/a	SPOON	-999	20	[0, 0, 0]	n/a	FR1	1	R1113T
2231.712	1.477	2265039	REC_WORD	1.477	n/a	ZOO	-999	20	[0, 0, 0]	n/a	FR1	1	R1113T
2233.189	22.585	2266516	REC_WORD	22.585	n/a	TOOTH	-999	20	[0, 0, 0]	n/a	FR1	1	R1113T
2255.774	2.611	2289100	REC_END	n/a	n/a	n/a	-999	20	[0, 0, 0]	n/a	FR1	1	R1113T
2258.385	0.0	2291710	TRIAL	n/a	n/a	n/a	-999	21	[0, 0, 0]	n/a	FR1	1	R1113T
2258.385	10.428	2291710	COUNTDOWN_START	n/a	n/a	n/a	-999	21	[0, 0, 0]	n/a	FR1	1	R1113T
2268.813	0.007	2302138	COUNTDOWN_END	n/a	n/a	n/a	-999	21	[0, 0, 0]	n/a	FR1	1	R1113T
2268.82	2.584	2302145	ORIENT	n/a	n/a	n/a	-999	21	[0, 0, 0]	n/a	FR1	1	R1113T
2271.404	2.584	2304729	WORD	n/a	wordpools/wordpool_EN.txt	SPARK	1	21	[0, 0, 0]	n/a	FR1	1	R1113T
2273.988	2.501	2307313	WORD	n/a	wordpools/wordpool_EN.txt	SEAL	2	21	[0, 0, 0]	n/a	FR1	1	R1113T
2276.489	2.4	2309814	WORD	n/a	wordpools/wordpool_EN.txt	THREAD	3	21	[0, 0, 0]	n/a	FR1	1	R1113T
2278.889	2.5	2312213	WORD	n/a	wordpools/wordpool_EN.txt	DITCH	4	21	[0, 0, 0]	n/a	FR1	1	R1113T
2281.389	2.4	2314713	WORD	n/a	wordpools/wordpool_EN.txt	FLAG	5	21	[0, 0, 0]	n/a	FR1	1	R1113T
2283.789	2.568	2317113	WORD	n/a	wordpools/wordpool_EN.txt	SAIL	6	21	[0, 0, 0]	n/a	FR1	1	R1113T
2286.357	2.483	2319681	WORD	n/a	wordpools/wordpool_EN.txt	TANK	7	21	[0, 0, 0]	n/a	FR1	1	R1113T
2288.84	2.584	2322164	WORD	n/a	wordpools/wordpool_EN.txt	TOY	8	21	[0, 0, 0]	n/a	FR1	1	R1113T
2291.424	2.484	2324748	WORD	n/a	wordpools/wordpool_EN.txt	GRASS	9	21	[0, 0, 0]	n/a	FR1	1	R1113T
2293.908	2.417	2327232	WORD	n/a	wordpools/wordpool_EN.txt	SEA	10	21	[0, 0, 0]	n/a	FR1	1	R1113T
2296.325	2.434	2329649	WORD	n/a	wordpools/wordpool_EN.txt	SHIP	11	21	[0, 0, 0]	n/a	FR1	1	R1113T
2298.759	1.617	2332083	WORD	n/a	wordpools/wordpool_EN.txt	PIN	12	21	[0, 0, 0]	n/a	FR1	1	R1113T
2300.376	0.001	2333699	DISTRACT_START	n/a	n/a	n/a	-999	21	[0, 0, 0]	n/a	FR1	1	R1113T
2300.377	0.015	2333700	START	n/a	n/a	n/a	-999	21	[-999, -999, -999]	n/a	FR1	1	R1113T
2300.392	63.191	2333715	PROB	63.191	n/a	n/a	-999	21	[9, 1, 8]	18	FR1	1	R1113T
2363.583	0.005	2396903	STOP	n/a	n/a	n/a	-999	21	[-999, -999, -999]	n/a	FR1	1	R1113T
2363.588	1.067	2396908	DISTRACT_END	n/a	n/a	n/a	-999	21	[0, 0, 0]	n/a	FR1	1	R1113T
2364.655	1.703	2397975	REC_START	n/a	n/a	n/a	-999	21	[0, 0, 0]	n/a	FR1	1	R1113T
2366.358	2.202	2399678	REC_WORD	2.202	n/a	SPARK	-999	21	[0, 0, 0]	n/a	FR1	1	R1113T
2368.56	1.701	2401880	REC_WORD	1.701	n/a	SHIP	-999	21	[0, 0, 0]	n/a	FR1	1	R1113T
2370.261	1.846	2403581	REC_WORD	1.846	n/a	SAIL	-999	21	[0, 0, 0]	n/a	FR1	1	R1113T
2372.107	1.47	2405427	REC_WORD	1.47	n/a	THREAD	-999	21	[0, 0, 0]	n/a	FR1	1	R1113T
2373.577	21.09	2406897	REC_WORD	21.09	n/a	TANK	-999	21	[0, 0, 0]	n/a	FR1	1	R1113T
2394.667	2.493	2427986	REC_END	n/a	n/a	n/a	-999	21	[0, 0, 0]	n/a	FR1	1	R1113T
2397.16	0.0	2430479	COUNTDOWN_START	n/a	n/a	n/a	-999	22	[0, 0, 0]	n/a	FR1	1	R1113T
2397.16	10.428	2430479	TRIAL	n/a	n/a	n/a	-999	22	[0, 0, 0]	n/a	FR1	1	R1113T
2407.588	0.008	2440906	COUNTDOWN_END	n/a	n/a	n/a	-999	22	[0, 0, 0]	n/a	FR1	1	R1113T
2407.596	2.566	2440914	ORIENT	n/a	n/a	n/a	-999	22	[0, 0, 0]	n/a	FR1	1	R1113T
2410.162	2.584	2443480	WORD	n/a	wordpools/wordpool_EN.txt	NAIL	1	22	[0, 0, 0]	n/a	FR1	1	R1113T
2412.746	2.451	2446064	WORD	n/a	wordpools/wordpool_EN.txt	PIT	2	22	[0, 0, 0]	n/a	FR1	1	R1113T
2415.197	2.583	2448515	WORD	n/a	wordpools/wordpool_EN.txt	FOOT	3	22	[0, 0, 0]	n/a	FR1	1	R1113T
2417.78	2.551	2451098	WORD	n/a	wordpools/wordpool_EN.txt	FACE	4	22	[0, 0, 0]	n/a	FR1	1	R1113T
2420.331	2.45	2453648	WORD	n/a	wordpools/wordpool_EN.txt	HILL	5	22	[0, 0, 0]	n/a	FR1	1	R1113T
2422.781	2.501	2456098	WORD	n/a	wordpools/wordpool_EN.txt	STICK	6	22	[0, 0, 0]	n/a	FR1	1	R1113T
2425.282	2.4	2458599	WORD	n/a	wordpools/wordpool_EN.txt	SOCK	7	22	[0, 0, 0]	n/a	FR1	1	R1113T
2427.682	2.501	2460999	WORD	n/a	wordpools/wordpool_EN.txt	DRESS	8	22	[0, 0, 0]	n/a	FR1	1	R1113T
2430.183	2.534	2463500	WORD	n/a	wordpools/wordpool_EN.txt	CONE	9	22	[0, 0, 0]	n/a	FR1	1	R1113T
2432.717	2.517	2466034	WORD	n/a	wordpools/wordpool_EN.txt	FLAME	10	22	[0, 0, 0]	n/a	FR1	1	R1113T
2435.234	2.483	2468551	WORD	n/a	wordpools/wordpool_EN.txt	BAG	11	22	[0, 0, 0]	n/a	FR1	1	R1113T
2437.717	1.617	2471034	WORD	n/a	wordpools/wordpool_EN.txt	FUDGE	12	22	[0, 0, 0]	n/a	FR1	1	R1113T
2439.334	0.001	2472651	DISTRACT_START	n/a	n/a	n/a	-999	22	[0, 0, 0]	n/a	FR1	1	R1113T
2439.335	0.016	2472652	START	n/a	n/a	n/a	-999	22	[-999, -999, -999]	n/a	FR1	1	R1113T
2439.351	22.663	2472668	PROB	22.663	n/a	n/a	-999	22	[3, 2, 8]	13	FR1	1	R1113T
2462.014	0.008	2495329	STOP	n/a	n/a	n/a	-999	22	[-999, -999, -999]	n/a	FR1	1	R1113T
2462.022	1.167	2495337	DISTRACT_END	n/a	n/a	n/a	-999	22	[0, 0, 0]	n/a	FR1	1	R1113T
2463.189	1.826	2496504	REC_START	n/a	n/a	n/a	-999	22	[0, 0, 0]	n/a	FR1	1	R1113T
2465.015	1.205	2498330	REC_WORD	1.205	n/a	NAIL	-999	22	[0, 0, 0]	n/a	FR1	1	R1113T
2466.22	1.331	2499535	REC_WORD	1.331	n/a	PIT	-999	22	[0, 0, 0]	n/a	FR1	1	R1113T
2467.551	1.066	2500866	REC_WORD	1.066	n/a	FOOT	-999	22	[0, 0, 0]	n/a	FR1	1	R1113T
2468.617	1.541	2501932	REC_WORD	1.541	n/a	CONE	-999	22	[0, 0, 0]	n/a	FR1	1	R1113T
2470.158	23.044	2503473	REC_WORD	23.044	n/a	FUDGE	-999	22	[0, 0, 0]	n/a	FR1	1	R1113T
2493.202	2.859	2526516	REC_END	n/a	n/a	n/a	-999	22	[0, 0, 0]	n/a	FR1	1	R1113T
2496.061	0.001	2529375	COUNTDOWN_START	n/a	n/a	n/a	-999	23	[0, 0, 0]	n/a	FR1	1	R1113T
2496.062	10.427	2529376	TRIAL	n/a	n/a	n/a	-999	23	[0, 0, 0]	n/a	FR1	1	R1113T
2506.489	0.009	2539802	COUNTDOWN_END	n/a	n/a	n/a	-999	23	[0, 0, 0]	n/a	FR1	1	R1113T
2506.498	2.399	2539811	ORIENT	n/a	n/a	n/a	-999	23	[0, 0, 0]	n/a	FR1	1	R1113T
2508.897	2.417	2542210	WORD	n/a	wordpools/wordpool_EN.txt	YARD	1	23	[0, 0, 0]	n/a	FR1	1	R1113T
2511.314	2.4	2544627	WORD	n/a	wordpools/wordpool_EN.txt	HOLE	2	23	[0, 0, 0]	n/a	FR1	1	R1113T
2513.714	2.584	2547027	WORD	n/a	wordpools/wordpool_EN.txt	BUSH	3	23	[0, 0, 0]	n/a	FR1	1	R1113T
2516.298	2.384	2549611	WORD	n/a	wordpools/wordpool_EN.txt	OWL	4	23	[0, 0, 0]	n/a	FR1	1	R1113T
2518.682	2.451	2551995	WORD	n/a	wordpools/wordpool_EN.txt	BRUSH	5	23	[0, 0, 0]	n/a	FR1	1	R1113T
2521.133	2.5	2554445	WORD	n/a	wordpools/wordpool_EN.txt	PIPE	6	23	[0, 0, 0]	n/a	FR1	1	R1113T
2523.633	2.584	2556945	WORD	n/a	wordpools/wordpool_EN.txt	CLIFF	7	23	[0, 0, 0]	n/a	FR1	1	R1113T
2526.217	2.517	2559529	WORD	n/a	wordpools/wordpool_EN.txt	MULE	8	23	[0, 0, 0]	n/a	FR1	1	R1113T
2528.734	2.517	2562046	WORD	n/a	wordpools/wordpool_EN.txt	SPEAR	9	23	[0, 0, 0]	n/a	FR1	1	R1113T
2531.251	2.517	2564563	WORD	n/a	wordpools/wordpool_EN.txt	BAND	10	23	[0, 0, 0]	n/a	FR1	1	R1113T
2533.768	2.501	2567080	WORD	n/a	wordpools/wordpool_EN.txt	FROG	11	23	[0, 0, 0]	n/a	FR1	1	R1113T
2536.269	1.617	2569581	WORD	n/a	wordpools/wordpool_EN.txt	ROOF	12	23	[0, 0, 0]	n/a	FR1	1	R1113T
2537.886	0.001	2571198	DISTRACT_START	n/a	n/a	n/a	-999	23	[0, 0, 0]	n/a	FR1	1	R1113T
2537.887	0.015	2571199	START	n/a	n/a	n/a	-999	23	[-999, -999, -999]	n/a	FR1	1	R1113T
2537.902	12.103	2571214	PROB	12.103	n/a	n/a	-999	23	[6, 7, 1]	14	FR1	1	R1113T
2550.005	27.05	2583316	PROB	27.05	n/a	n/a	-999	23	[7, 4, 9]	20	FR1	1	R1113T
2577.055	0.005	2610365	STOP	n/a	n/a	n/a	-999	23	[-999, -999, -999]	n/a	FR1	1	R1113T
2577.06	1.217	2610370	DISTRACT_END	n/a	n/a	n/a	-999	23	[0, 0, 0]	n/a	FR1	1	R1113T
2578.277	1.442	2611587	REC_START	n/a	n/a	n/a	-999	23	[0, 0, 0]	n/a	FR1	1	R1113T
2579.719	1.055	2613029	REC_WORD	1.055	n/a	YARD	-999	23	[0, 0, 0]	n/a	FR1	1	R1113T
2580.774	2.107	2614084	REC_WORD	2.107	n/a	HOLE	-999	23	[0, 0, 0]	n/a	FR1	1	R1113T
2582.881	1.342	2616190	REC_WORD	1.342	n/a	BUSH	-999	23	[0, 0, 0]	n/a	FR1	1	R1113T
2584.223	1.726	2617532	REC_WORD	1.726	n/a	PIPE	-999	23	[0, 0, 0]	n/a	FR1	1	R1113T
2585.949	1.581	2619258	REC_WORD	1.581	n/a	BRUSH	-999	23	[0, 0, 0]	n/a	FR1	1	R1113T
2587.53	20.758	2620839	REC_WORD	20.758	n/a	ROOF	-999	23	[0, 0, 0]	n/a	FR1	1	R1113T
2608.288	2.594	2641596	REC_END	n/a	n/a	n/a	-999	23	[0, 0, 0]	n/a	FR1	1	R1113T
2610.882	0.001	2644190	COUNTDOWN_START	n/a	n/a	n/a	-999	24	[0, 0, 0]	n/a	FR1	1	R1113T
2610.883	10.427	2644191	TRIAL	n/a	n/a	n/a	-999	24	[0, 0, 0]	n/a	FR1	1	R1113T
2621.31	0.007	2654618	COUNTDOWN_END	n/a	n/a	n/a	-999	24	[0, 0, 0]	n/a	FR1	1	R1113T
2621.317	2.501	2654625	ORIENT	n/a	n/a	n/a	-999	24	[0, 0, 0]	n/a	FR1	1	R1113T
2623.818	2.55	2657125	WORD	n/a	wordpools/wordpool_EN.txt	TENT	1	24	[0, 0, 0]	n/a	FR1	1	R1113T
2626.368	2.618	2659675	WORD	n/a	wordpools/wordpool_EN.txt	GUARD	2	24	[0, 0, 0]	n/a	FR1	1	R1113T
2628.986	2.534	2662293	WORD	n/a	wordpools/wordpool_EN.txt	JEEP	3	24	[0, 0, 0]	n/a	FR1	1	R1113T
2631.52	2.55	2664827	WORD	n/a	wordpools/wordpool_EN.txt	ARK	4	24	[0, 0, 0]	n/a	FR1	1	R1113T
2634.07	2.468	2667377	WORD	n/a	wordpools/wordpool_EN.txt	LIP	5	24	[0, 0, 0]	n/a	FR1	1	R1113T
2636.538	2.516	2669845	WORD	n/a	wordpools/wordpool_EN.txt	PEN	6	24	[0, 0, 0]	n/a	FR1	1	R1113T
2639.054	2.601	2672361	WORD	n/a	wordpools/wordpool_EN.txt	CHEEK	7	24	[0, 0, 0]	n/a	FR1	1	R1113T
2641.655	2.417	2674962	WORD	n/a	wordpools/wordpool_EN.txt	BADGE	8	24	[0, 0, 0]	n/a	FR1	1	R1113T
2644.072	2.6	2677378	WORD	n/a	wordpools/wordpool_EN.txt	HAT	9	24	[0, 0, 0]	n/a	FR1	1	R1113T
2646.672	2.417	2679978	WORD	n/a	wordpools/wordpool_EN.txt	MUD	10	24	[0, 0, 0]	n/a	FR1	1	R1113T
2649.089	2.385	2682395	WORD	n/a	wordpools/wordpool_EN.txt	GEESE	11	24	[0, 0, 0]	n/a	FR1	1	R1113T
2651.474	1.616	2684780	WORD	n/a	wordpools/wordpool_EN.txt	HAND	12	24	[0, 0, 0]	n/a	FR1	1	R1113T
2653.09	0.001	2686396	DISTRACT_START	n/a	n/a	n/a	-999	24	[0, 0, 0]	n/a	FR1	1	R1113T
2653.091	0.016	2686397	START	n/a	n/a	n/a	-999	24	[-999, -999, -999]	n/a	FR1	1	R1113T
2653.107	17.72	2686413	PROB	17.72	n/a	n/a	-999	24	[4, 1, 5]	10	FR1	1	R1113T
2670.827	9.123	2704132	PROB	9.123	n/a	n/a	-999	24	[2, 7, 2]	11	FR1	1	R1113T
2679.95	0.012	2713255	STOP	n/a	n/a	n/a	-999	24	[-999, -999, -999]	n/a	FR1	1	R1113T
2679.962	1.184	2713267	DISTRACT_END	n/a	n/a	n/a	-999	24	[0, 0, 0]	n/a	FR1	1	R1113T
2681.146	2.089	2714451	REC_START	n/a	n/a	n/a	-999	24	[0, 0, 0]	n/a	FR1	1	R1113T
2683.235	1.412	2716539	REC_WORD	1.412	n/a	TENT	-999	24	[0, 0, 0]	n/a	FR1	1	R1113T
2684.647	1.718	2717951	REC_WORD	1.718	n/a	GUARD	-999	24	[0, 0, 0]	n/a	FR1	1	R1113T
2686.365	1.814	2719669	REC_WORD	1.814	n/a	JEEP	-999	24	[0, 0, 0]	n/a	FR1	1	R1113T
2688.179	1.86	2721483	REC_WORD	1.86	n/a	BADGE	-999	24	[0, 0, 0]	n/a	FR1	1	R1113T
2690.039	1.521	2723343	REC_WORD	1.521	n/a	HAT	-999	24	[0, 0, 0]	n/a	FR1	1	R1113T
2691.56	19.598	2724864	REC_WORD	19.598	n/a	MUD	-999	24	[0, 0, 0]	n/a	FR1	1	R1113T
2711.158	3.077	2744461	REC_END	n/a	n/a	n/a	-999	24	[0, 0, 0]	n/a	FR1	1	R1113T
2714.235	0.0	2747538	TRIAL	n/a	n/a	n/a	-999	25	[0, 0, 0]	n/a	FR1	1	R1113T
2714.235	10.428	2747538	COUNTDOWN_START	n/a	n/a	n/a	-999	25	[0, 0, 0]	n/a	FR1	1	R1113T
2724.663	0.007	2757965	COUNTDOWN_END	n/a	n/a	n/a	-999	25	[0, 0, 0]	n/a	FR1	1	R1113T
2724.67	2.384	2757972	ORIENT	n/a	n/a	n/a	-999	25	[0, 0, 0]	n/a	FR1	1	R1113T
2727.054	2.551	2760356	WORD	n/a	wordpools/wordpool_EN.txt	BOMB	1	25	[0, 0, 0]	n/a	FR1	1	R1113T
2729.605	2.483	2762907	WORD	n/a	wordpools/wordpool_EN.txt	FORT	2	25	[0, 0, 0]	n/a	FR1	1	R1113T
2732.088	2.501	2765390	WORD	n/a	wordpools/wordpool_EN.txt	STEAM	3	25	[0, 0, 0]	n/a	FR1	1	R1113T
2734.589	2.516	2767891	WORD	n/a	wordpools/wordpool_EN.txt	DRUM	4	25	[0, 0, 0]	n/a	FR1	1	R1113T
2737.105	2.601	2770407	WORD	n/a	wordpools/wordpool_EN.txt	BARN	5	25	[0, 0, 0]	n/a	FR1	1	R1113T
2739.706	2.4	2773008	WORD	n/a	wordpools/wordpool_EN.txt	TRASH	6	25	[0, 0, 0]	n/a	FR1	1	R1113T
2742.106	2.518	2775408	WORD	n/a	wordpools/wordpool_EN.txt	FLUTE	7	25	[0, 0, 0]	n/a	FR1	1	R1113T
2744.624	2.533	2777925	WORD	n/a	wordpools/wordpool_EN.txt	WHEEL	8	25	[0, 0, 0]	n/a	FR1	1	R1113T
2747.157	2.501	2780458	WORD	n/a	wordpools/wordpool_EN.txt	RAIN	9	25	[0, 0, 0]	n/a	FR1	1	R1113T
2749.658	2.517	2782959	WORD	n/a	wordpools/wordpool_EN.txt	BRIDGE	10	25	[0, 0, 0]	n/a	FR1	1	R1113T
2752.175	2.418	2785476	WORD	n/a	wordpools/wordpool_EN.txt	LAND	11	25	[0, 0, 0]	n/a	FR1	1	R1113T
2754.593	1.616	2787894	WORD	n/a	wordpools/wordpool_EN.txt	FOG	12	25	[0, 0, 0]	n/a	FR1	1	R1113T
2756.209	0.001	2789510	DISTRACT_START	n/a	n/a	n/a	-999	25	[0, 0, 0]	n/a	FR1	1	R1113T
2756.21	0.015	2789511	START	n/a	n/a	n/a	-999	25	[-999, -999, -999]	n/a	FR1	1	R1113T
2756.225	18.67	2789526	PROB	18.67	n/a	n/a	-999	25	[7, 2, 7]	16	FR1	1	R1113T
2774.895	9.959	2808195	PROB	9.959	n/a	n/a	-999	25	[3, 4, 1]	8	FR1	1	R1113T
2784.854	0.01	2818153	STOP	n/a	n/a	n/a	-999	25	[-999, -999, -999]	n/a	FR1	1	R1113T
2784.864	1.184	2818163	DISTRACT_END	n/a	n/a	n/a	-999	25	[0, 0, 0]	n/a	FR1	1	R1113T
2786.048	1.965	2819347	REC_START	n/a	n/a	n/a	-999	25	[0, 0, 0]	n/a	FR1	1	R1113T
2788.013	2.012	2821312	REC_WORD	2.012	n/a	BOMB	-999	25	[0, 0, 0]	n/a	FR1	1	R1113T
2790.025	1.556	2823324	REC_WORD	1.556	n/a	FORT	-999	25	[0, 0, 0]	n/a	FR1	1	R1113T
2791.581	1.46	2824880	REC_WORD	1.46	n/a	TRASH	-999	25	[0, 0, 0]	n/a	FR1	1	R1113T
2793.041	23.02	2826340	REC_WORD	23.02	n/a	FLUTE	-999	25	[0, 0, 0]	n/a	FR1	1	R1113T
2816.061	14.612	2849359	REC_END	n/a	n/a	n/a	-999	25	[0, 0, 0]	n/a	FR1	1	R1113T
2830.673	0.0	-1	SESS_END	n/a	n/a	n/a	-999	25	[0, 0, 0]	n/a	FR1	1	R1113T
