onset	duration	sample	trial_type	response_time	stim_file	item_name	serialpos	list	test	answer	experiment	session	subject
0.0	60.089	1182	INSTRUCT_START	n/a	n/a	n/a	-999	-999	[0, 0, 0]	n/a	FR1	3	R1323T
60.089	16.338	61268	INSTRUCT_END	n/a	n/a	n/a	-999	-999	[0, 0, 0]	n/a	FR1	3	R1323T
76.427	7.836	77605	MIC TEST_START	n/a	n/a	n/a	-999	-999	[0, 0, 0]	n/a	FR1	3	R1323T
84.263	0.016	85441	MIC TEST_END	n/a	n/a	n/a	-999	-999	[0, 0, 0]	n/a	FR1	3	R1323T
84.279	0.001	85457	TRIAL_START	n/a	n/a	n/a	-999	-1	[0, 0, 0]	n/a	FR1	3	R1323T
84.28	0.0	85458	TRIAL	n/a	n/a	n/a	-999	-1	[0, 0, 0]	n/a	FR1	3	R1323T
84.28	78.245	85458	WAITING_START	n/a	n/a	n/a	-999	-1	[0, 0, 0]	n/a	FR1	3	R1323T
162.525	0.001	163700	WAITING_END	n/a	n/a	n/a	-999	-1	[0, 0, 0]	n/a	FR1	3	R1323T
162.526	10.43	163701	COUNTDOWN_START	n/a	n/a	n/a	-999	-1	[0, 0, 0]	n/a	FR1	3	R1323T
172.956	0.0	174130	COUNTDOWN_END	n/a	n/a	n/a	-999	-1	[0, 0, 0]	n/a	FR1	3	R1323T
172.956	1.137	174130	ORIENT_START	n/a	n/a	n/a	-999	-1	[0, 0, 0]	n/a	FR1	3	R1323T
174.093	0.0	175267	ORIENT_END	n/a	n/a	n/a	-999	-1	[0, 0, 0]	n/a	FR1	3	R1323T
174.093	1.149	175267	ENCODING_START	n/a	n/a	n/a	-999	-1	[0, 0, 0]	n/a	FR1	3	R1323T
175.242	1.635	176416	WORD	n/a	n/a	CHEST	1	-1	[0, 0, 0]	n/a	FR1	3	R1323T
176.877	0.763	178051	WORD_OFF	n/a	n/a	CHEST	1	-1	[0, 0, 0]	n/a	FR1	3	R1323T
177.64	1.637	178814	WORD	n/a	n/a	COTTON	2	-1	[0, 0, 0]	n/a	FR1	3	R1323T
179.277	1.137	180451	WORD_OFF	n/a	n/a	COTTON	2	-1	[0, 0, 0]	n/a	FR1	3	R1323T
180.414	1.631	181588	WORD	n/a	n/a	RING	3	-1	[0, 0, 0]	n/a	FR1	3	R1323T
182.045	1.047	183219	WORD_OFF	n/a	n/a	RING	3	-1	[0, 0, 0]	n/a	FR1	3	R1323T
183.092	1.637	184266	WORD	n/a	n/a	BEAM	4	-1	[0, 0, 0]	n/a	FR1	3	R1323T
184.729	0.846	185903	WORD_OFF	n/a	n/a	BEAM	4	-1	[0, 0, 0]	n/a	FR1	3	R1323T
185.575	1.62	186749	WORD	n/a	n/a	BABY	5	-1	[0, 0, 0]	n/a	FR1	3	R1323T
187.195	0.923	188368	WORD_OFF	n/a	n/a	BABY	5	-1	[0, 0, 0]	n/a	FR1	3	R1323T
188.118	1.612	189291	WORD	n/a	n/a	WAGON	6	-1	[0, 0, 0]	n/a	FR1	3	R1323T
189.73	1.104	190903	WORD_OFF	n/a	n/a	WAGON	6	-1	[0, 0, 0]	n/a	FR1	3	R1323T
190.834	1.63	192007	WORD	n/a	n/a	TONGUE	7	-1	[0, 0, 0]	n/a	FR1	3	R1323T
192.464	1.066	193637	WORD_OFF	n/a	n/a	TONGUE	7	-1	[0, 0, 0]	n/a	FR1	3	R1323T
193.53	1.634	194703	WORD	n/a	n/a	RHINO	8	-1	[0, 0, 0]	n/a	FR1	3	R1323T
195.164	0.771	196337	WORD_OFF	n/a	n/a	RHINO	8	-1	[0, 0, 0]	n/a	FR1	3	R1323T
195.935	1.63	197108	WORD	n/a	n/a	FLOOD	9	-1	[0, 0, 0]	n/a	FR1	3	R1323T
197.565	1.049	198738	WORD_OFF	n/a	n/a	FLOOD	9	-1	[0, 0, 0]	n/a	FR1	3	R1323T
198.614	1.634	199787	WORD	n/a	n/a	CAMEL	10	-1	[0, 0, 0]	n/a	FR1	3	R1323T
200.248	1.07	201421	WORD_OFF	n/a	n/a	CAMEL	10	-1	[0, 0, 0]	n/a	FR1	3	R1323T
201.318	1.63	202491	WORD	n/a	n/a	WATCH	11	-1	[0, 0, 0]	n/a	FR1	3	R1323T
202.948	1.01	204121	WORD_OFF	n/a	n/a	WATCH	11	-1	[0, 0, 0]	n/a	FR1	3	R1323T
203.958	1.625	205131	WORD	n/a	n/a	IMAGE	12	-1	[0, 0, 0]	n/a	FR1	3	R1323T
205.583	0.001	206756	WORD_OFF	n/a	n/a	IMAGE	12	-1	[0, 0, 0]	n/a	FR1	3	R1323T
205.584	0.0	206757	ENCODING_END	n/a	n/a	n/a	-999	-1	[0, 0, 0]	n/a	FR1	3	R1323T
205.584	0.0	206757	DISTRACT_START	n/a	n/a	n/a	-999	-1	[0, 0, 0]	n/a	FR1	3	R1323T
205.584	0.016	206757	START	n/a	n/a	n/a	-999	-1	[-999, -999, -999]	n/a	FR1	3	R1323T
205.6	4.349	206773	PROB	4.349	n/a	n/a	-999	-1	[1, 9, 3]	13	FR1	3	R1323T
209.949	8.653	211121	PROB	8.653	n/a	n/a	-999	-1	[8, 8, 7]	23	FR1	3	R1323T
218.602	5.333	219774	PROB	5.333	n/a	n/a	-999	-1	[6, 2, 1]	9	FR1	3	R1323T
223.935	4.617	225107	PROB	4.617	n/a	n/a	-999	-1	[2, 6, 2]	10	FR1	3	R1323T
228.552	0.019	229724	STOP	n/a	n/a	n/a	-999	-1	[-999, -999, -999]	n/a	FR1	3	R1323T
228.571	0.504	229743	DISTRACT_END	n/a	n/a	n/a	-999	-1	[0, 0, 0]	n/a	FR1	3	R1323T
229.075	1.613	230247	RETRIEVAL_ORIENT_START	n/a	n/a	n/a	-999	-1	[0, 0, 0]	n/a	FR1	3	R1323T
230.688	0.0	231860	RETRIEVAL_ORIENT_END	n/a	n/a	n/a	-999	-1	[0, 0, 0]	n/a	FR1	3	R1323T
230.688	0.967	231860	REC_START	n/a	n/a	n/a	-999	-1	[0, 0, 0]	n/a	FR1	3	R1323T
231.655	0.201	232827	REC_WORD_VV	0.201	n/a	<>	-999	-1	[0, 0, 0]	n/a	FR1	3	R1323T
231.856	1.166	233028	REC_WORD	1.166	n/a	WATCH	-999	-1	[0, 0, 0]	n/a	FR1	3	R1323T
233.022	4.71	234193	REC_WORD	4.71	n/a	CAMEL	-999	-1	[0, 0, 0]	n/a	FR1	3	R1323T
237.732	1.535	238903	REC_WORD_VV	1.535	n/a	<>	-999	-1	[0, 0, 0]	n/a	FR1	3	R1323T
239.267	21.433	240438	REC_WORD	21.433	n/a	BAY	-999	-1	[0, 0, 0]	n/a	FR1	3	R1323T
260.7	0.0	261870	REC_END	n/a	n/a	n/a	-999	-1	[0, 0, 0]	n/a	FR1	3	R1323T
260.7	16.512	261870	PRACTICE_POST_INSTRUCT_START	n/a	n/a	n/a	-999	-1	[0, 0, 0]	n/a	FR1	3	R1323T
277.212	0.001	278382	PRACTICE_POST_INSTRUCT_END	n/a	n/a	n/a	-999	-1	[0, 0, 0]	n/a	FR1	3	R1323T
277.213	0.019	278383	TRIAL_END	n/a	n/a	n/a	-999	-1	[0, 0, 0]	n/a	FR1	3	R1323T
277.232	0.001	278402	TRIAL_START	n/a	n/a	n/a	-999	1	[0, 0, 0]	n/a	FR1	3	R1323T
277.233	0.0	278403	WAITING_START	n/a	n/a	n/a	-999	1	[0, 0, 0]	n/a	FR1	3	R1323T
277.233	3.414	278403	TRIAL	n/a	n/a	n/a	-999	1	[0, 0, 0]	n/a	FR1	3	R1323T
280.647	0.0	281816	WAITING_END	n/a	n/a	n/a	-999	1	[0, 0, 0]	n/a	FR1	3	R1323T
280.647	10.429	281816	COUNTDOWN_START	n/a	n/a	n/a	-999	1	[0, 0, 0]	n/a	FR1	3	R1323T
291.076	0.001	292245	COUNTDOWN_END	n/a	n/a	n/a	-999	1	[0, 0, 0]	n/a	FR1	3	R1323T
291.077	1.204	292246	ORIENT_START	n/a	n/a	n/a	-999	1	[0, 0, 0]	n/a	FR1	3	R1323T
292.281	0.001	293450	ORIENT_END	n/a	n/a	n/a	-999	1	[0, 0, 0]	n/a	FR1	3	R1323T
292.282	1.094	293451	ENCODING_START	n/a	n/a	n/a	-999	1	[0, 0, 0]	n/a	FR1	3	R1323T
293.376	1.622	294545	WORD	n/a	n/a	BOAT	1	1	[0, 0, 0]	n/a	FR1	3	R1323T
294.998	1.031	296167	WORD_OFF	n/a	n/a	BOAT	1	1	[0, 0, 0]	n/a	FR1	3	R1323T
296.029	1.637	297198	WORD	n/a	n/a	CUBE	2	1	[0, 0, 0]	n/a	FR1	3	R1323T
297.666	0.906	298835	WORD_OFF	n/a	n/a	CUBE	2	1	[0, 0, 0]	n/a	FR1	3	R1323T
298.572	1.627	299741	WORD	n/a	n/a	FUR	3	1	[0, 0, 0]	n/a	FR1	3	R1323T
300.199	0.939	301368	WORD_OFF	n/a	n/a	FUR	3	1	[0, 0, 0]	n/a	FR1	3	R1323T
301.138	1.613	302307	WORD	n/a	n/a	STORE	4	1	[0, 0, 0]	n/a	FR1	3	R1323T
302.751	0.831	303919	WORD_OFF	n/a	n/a	STORE	4	1	[0, 0, 0]	n/a	FR1	3	R1323T
303.582	1.635	304750	WORD	n/a	n/a	THREAD	5	1	[0, 0, 0]	n/a	FR1	3	R1323T
305.217	0.887	306385	WORD_OFF	n/a	n/a	THREAD	5	1	[0, 0, 0]	n/a	FR1	3	R1323T
306.104	1.631	307272	WORD	n/a	n/a	JUDGE	6	1	[0, 0, 0]	n/a	FR1	3	R1323T
307.735	0.761	308903	WORD_OFF	n/a	n/a	JUDGE	6	1	[0, 0, 0]	n/a	FR1	3	R1323T
308.496	1.622	309664	WORD	n/a	n/a	COIN	7	1	[0, 0, 0]	n/a	FR1	3	R1323T
310.118	1.125	311286	WORD_OFF	n/a	n/a	COIN	7	1	[0, 0, 0]	n/a	FR1	3	R1323T
311.243	1.609	312411	WORD	n/a	n/a	WORLD	8	1	[0, 0, 0]	n/a	FR1	3	R1323T
312.852	0.824	314020	WORD_OFF	n/a	n/a	WORLD	8	1	[0, 0, 0]	n/a	FR1	3	R1323T
313.676	1.626	314844	WORD	n/a	n/a	TAIL	9	1	[0, 0, 0]	n/a	FR1	3	R1323T
315.302	1.081	316470	WORD_OFF	n/a	n/a	TAIL	9	1	[0, 0, 0]	n/a	FR1	3	R1323T
316.383	1.636	317551	WORD	n/a	n/a	WHEEL	10	1	[0, 0, 0]	n/a	FR1	3	R1323T
318.019	1.045	319187	WORD_OFF	n/a	n/a	WHEEL	10	1	[0, 0, 0]	n/a	FR1	3	R1323T
319.064	1.623	320232	WORD	n/a	n/a	NEST	11	1	[0, 0, 0]	n/a	FR1	3	R1323T
320.687	0.825	321855	WORD_OFF	n/a	n/a	NEST	11	1	[0, 0, 0]	n/a	FR1	3	R1323T
321.512	1.625	322680	WORD	n/a	n/a	FLEA	12	1	[0, 0, 0]	n/a	FR1	3	R1323T
323.137	0.0	324305	WORD_OFF	n/a	n/a	FLEA	12	1	[0, 0, 0]	n/a	FR1	3	R1323T
323.137	0.001	324305	ENCODING_END	n/a	n/a	n/a	-999	1	[0, 0, 0]	n/a	FR1	3	R1323T
323.138	0.0	324306	DISTRACT_START	n/a	n/a	n/a	-999	1	[0, 0, 0]	n/a	FR1	3	R1323T
323.138	0.015	324306	START	n/a	n/a	n/a	-999	1	[-999, -999, -999]	n/a	FR1	3	R1323T
323.153	5.569	324321	PROB	5.569	n/a	n/a	-999	1	[3, 4, 3]	10	FR1	3	R1323T
328.722	4.884	329889	PROB	4.884	n/a	n/a	-999	1	[6, 3, 2]	11	FR1	3	R1323T
333.606	7.517	334773	PROB	7.517	n/a	n/a	-999	1	[7, 6, 6]	19	FR1	3	R1323T
341.123	4.689	342290	PROB	4.689	n/a	n/a	-999	1	[4, 5, 1]	10	FR1	3	R1323T
345.812	0.013	346979	STOP	n/a	n/a	n/a	-999	1	[-999, -999, -999]	n/a	FR1	3	R1323T
345.825	0.632	346992	DISTRACT_END	n/a	n/a	n/a	-999	1	[0, 0, 0]	n/a	FR1	3	R1323T
346.457	1.634	347624	RETRIEVAL_ORIENT_START	n/a	n/a	n/a	-999	1	[0, 0, 0]	n/a	FR1	3	R1323T
348.091	0.001	349257	RETRIEVAL_ORIENT_END	n/a	n/a	n/a	-999	1	[0, 0, 0]	n/a	FR1	3	R1323T
348.092	1.008	349258	REC_START	n/a	n/a	n/a	-999	1	[0, 0, 0]	n/a	FR1	3	R1323T
349.1	1.788	350266	REC_WORD	1.788	n/a	FLEA	12	1	[0, 0, 0]	n/a	FR1	3	R1323T
350.888	3.372	352054	REC_WORD	3.372	n/a	TEA	-999	1	[0, 0, 0]	n/a	FR1	3	R1323T
354.26	1.0	355426	REC_WORD_VV	1.0	n/a	<>	-999	1	[0, 0, 0]	n/a	FR1	3	R1323T
355.26	1.0	356426	REC_WORD_VV	1.0	n/a	<>	-999	1	[0, 0, 0]	n/a	FR1	3	R1323T
356.26	0.737	357426	REC_WORD_VV	0.737	n/a	<>	-999	1	[0, 0, 0]	n/a	FR1	3	R1323T
356.997	2.551	358163	REC_WORD	2.551	n/a	WORLD	8	1	[0, 0, 0]	n/a	FR1	3	R1323T
359.548	2.695	360714	REC_WORD	2.695	n/a	TAIL	9	1	[0, 0, 0]	n/a	FR1	3	R1323T
362.243	9.19	363409	REC_WORD	9.19	n/a	COIN	7	1	[0, 0, 0]	n/a	FR1	3	R1323T
371.433	6.67	372598	REC_WORD_VV	6.67	n/a	<>	-999	1	[0, 0, 0]	n/a	FR1	3	R1323T
378.103	0.0	379268	REC_END	n/a	n/a	n/a	-999	1	[0, 0, 0]	n/a	FR1	3	R1323T
378.103	0.014	379268	TRIAL_END	n/a	n/a	n/a	-999	1	[0, 0, 0]	n/a	FR1	3	R1323T
378.117	0.0	379282	TRIAL_START	n/a	n/a	n/a	-999	2	[0, 0, 0]	n/a	FR1	3	R1323T
378.117	0.001	379282	TRIAL	n/a	n/a	n/a	-999	2	[0, 0, 0]	n/a	FR1	3	R1323T
378.118	3.046	379283	WAITING_START	n/a	n/a	n/a	-999	2	[0, 0, 0]	n/a	FR1	3	R1323T
381.164	0.0	382329	WAITING_END	n/a	n/a	n/a	-999	2	[0, 0, 0]	n/a	FR1	3	R1323T
381.164	10.429	382329	COUNTDOWN_START	n/a	n/a	n/a	-999	2	[0, 0, 0]	n/a	FR1	3	R1323T
391.593	0.001	392758	COUNTDOWN_END	n/a	n/a	n/a	-999	2	[0, 0, 0]	n/a	FR1	3	R1323T
391.594	1.256	392759	ORIENT_START	n/a	n/a	n/a	-999	2	[0, 0, 0]	n/a	FR1	3	R1323T
392.85	0.001	394015	ORIENT_END	n/a	n/a	n/a	-999	2	[0, 0, 0]	n/a	FR1	3	R1323T
392.851	0.958	394016	ENCODING_START	n/a	n/a	n/a	-999	2	[0, 0, 0]	n/a	FR1	3	R1323T
393.809	1.625	394973	WORD	n/a	n/a	FILM	1	2	[0, 0, 0]	n/a	FR1	3	R1323T
395.434	1.066	396598	WORD_OFF	n/a	n/a	FILM	1	2	[0, 0, 0]	n/a	FR1	3	R1323T
396.5	1.634	397664	WORD	n/a	n/a	SHIRT	2	2	[0, 0, 0]	n/a	FR1	3	R1323T
398.134	0.8	399298	WORD_OFF	n/a	n/a	SHIRT	2	2	[0, 0, 0]	n/a	FR1	3	R1323T
398.934	1.634	400098	WORD	n/a	n/a	CAR	3	2	[0, 0, 0]	n/a	FR1	3	R1323T
400.568	1.102	401732	WORD_OFF	n/a	n/a	CAR	3	2	[0, 0, 0]	n/a	FR1	3	R1323T
401.67	1.631	402834	WORD	n/a	n/a	MOTH	4	2	[0, 0, 0]	n/a	FR1	3	R1323T
403.301	0.831	404465	WORD_OFF	n/a	n/a	MOTH	4	2	[0, 0, 0]	n/a	FR1	3	R1323T
404.132	1.637	405296	WORD	n/a	n/a	CROWN	5	2	[0, 0, 0]	n/a	FR1	3	R1323T
405.769	1.058	406933	WORD_OFF	n/a	n/a	CROWN	5	2	[0, 0, 0]	n/a	FR1	3	R1323T
406.827	1.626	407991	WORD	n/a	n/a	ROCK	6	2	[0, 0, 0]	n/a	FR1	3	R1323T
408.453	0.837	409617	WORD_OFF	n/a	n/a	ROCK	6	2	[0, 0, 0]	n/a	FR1	3	R1323T
409.29	1.629	410454	WORD	n/a	n/a	FOOD	7	2	[0, 0, 0]	n/a	FR1	3	R1323T
410.919	0.894	412083	WORD_OFF	n/a	n/a	FOOD	7	2	[0, 0, 0]	n/a	FR1	3	R1323T
411.813	1.624	412977	WORD	n/a	n/a	DEER	8	2	[0, 0, 0]	n/a	FR1	3	R1323T
413.437	0.847	414601	WORD_OFF	n/a	n/a	DEER	8	2	[0, 0, 0]	n/a	FR1	3	R1323T
414.284	1.636	415448	WORD	n/a	n/a	LAND	9	2	[0, 0, 0]	n/a	FR1	3	R1323T
415.92	1.1	417084	WORD_OFF	n/a	n/a	LAND	9	2	[0, 0, 0]	n/a	FR1	3	R1323T
417.02	1.618	418183	WORD	n/a	n/a	STRING	10	2	[0, 0, 0]	n/a	FR1	3	R1323T
418.638	0.768	419801	WORD_OFF	n/a	n/a	STRING	10	2	[0, 0, 0]	n/a	FR1	3	R1323T
419.406	1.632	420569	WORD	n/a	n/a	CAT	11	2	[0, 0, 0]	n/a	FR1	3	R1323T
421.038	0.912	422201	WORD_OFF	n/a	n/a	CAT	11	2	[0, 0, 0]	n/a	FR1	3	R1323T
421.95	1.623	423113	WORD	n/a	n/a	ROAD	12	2	[0, 0, 0]	n/a	FR1	3	R1323T
423.573	0.0	424736	ENCODING_END	n/a	n/a	n/a	-999	2	[0, 0, 0]	n/a	FR1	3	R1323T
423.573	0.0	424736	DISTRACT_START	n/a	n/a	n/a	-999	2	[0, 0, 0]	n/a	FR1	3	R1323T
423.573	0.001	424736	WORD_OFF	n/a	n/a	ROAD	12	2	[0, 0, 0]	n/a	FR1	3	R1323T
423.574	0.015	424737	START	n/a	n/a	n/a	-999	2	[-999, -999, -999]	n/a	FR1	3	R1323T
423.589	6.851	424752	PROB	6.851	n/a	n/a	-999	2	[8, 4, 9]	21	FR1	3	R1323T
430.44	7.002	431603	PROB	7.002	n/a	n/a	-999	2	[8, 8, 7]	23	FR1	3	R1323T
437.442	14.864	438605	PROB	14.864	n/a	n/a	-999	2	[7, 9, 4]	20	FR1	3	R1323T
452.306	0.022	453468	STOP	n/a	n/a	n/a	-999	2	[-999, -999, -999]	n/a	FR1	3	R1323T
452.328	0.527	453490	DISTRACT_END	n/a	n/a	n/a	-999	2	[0, 0, 0]	n/a	FR1	3	R1323T
452.855	1.606	454017	RETRIEVAL_ORIENT_START	n/a	n/a	n/a	-999	2	[0, 0, 0]	n/a	FR1	3	R1323T
454.461	0.001	455623	RETRIEVAL_ORIENT_END	n/a	n/a	n/a	-999	2	[0, 0, 0]	n/a	FR1	3	R1323T
454.462	1.171	455624	REC_START	n/a	n/a	n/a	-999	2	[0, 0, 0]	n/a	FR1	3	R1323T
455.633	3.058	456795	REC_WORD	3.058	n/a	FUR	-999	2	[0, 0, 0]	n/a	FR1	3	R1323T
458.691	25.783	459853	REC_WORD	25.783	n/a	CAT	11	2	[0, 0, 0]	n/a	FR1	3	R1323T
484.474	0.0	485635	TRIAL_END	n/a	n/a	n/a	-999	2	[0, 0, 0]	n/a	FR1	3	R1323T
484.474	0.014	485635	REC_END	n/a	n/a	n/a	-999	2	[0, 0, 0]	n/a	FR1	3	R1323T
484.488	0.001	485649	TRIAL_START	n/a	n/a	n/a	-999	3	[0, 0, 0]	n/a	FR1	3	R1323T
484.489	0.0	485650	WAITING_START	n/a	n/a	n/a	-999	3	[0, 0, 0]	n/a	FR1	3	R1323T
484.489	3.912	485650	TRIAL	n/a	n/a	n/a	-999	3	[0, 0, 0]	n/a	FR1	3	R1323T
488.401	0.001	489561	WAITING_END	n/a	n/a	n/a	-999	3	[0, 0, 0]	n/a	FR1	3	R1323T
488.402	10.429	489562	COUNTDOWN_START	n/a	n/a	n/a	-999	3	[0, 0, 0]	n/a	FR1	3	R1323T
498.831	0.0	499991	COUNTDOWN_END	n/a	n/a	n/a	-999	3	[0, 0, 0]	n/a	FR1	3	R1323T
498.831	1.138	499991	ORIENT_START	n/a	n/a	n/a	-999	3	[0, 0, 0]	n/a	FR1	3	R1323T
499.969	0.0	501129	ORIENT_END	n/a	n/a	n/a	-999	3	[0, 0, 0]	n/a	FR1	3	R1323T
499.969	1.039	501129	ENCODING_START	n/a	n/a	n/a	-999	3	[0, 0, 0]	n/a	FR1	3	R1323T
501.008	1.629	502168	WORD	n/a	n/a	CAVE	1	3	[0, 0, 0]	n/a	FR1	3	R1323T
502.637	0.892	503797	WORD_OFF	n/a	n/a	CAVE	1	3	[0, 0, 0]	n/a	FR1	3	R1323T
503.529	1.624	504689	WORD	n/a	n/a	FLAME	2	3	[0, 0, 0]	n/a	FR1	3	R1323T
505.153	0.864	506313	WORD_OFF	n/a	n/a	FLAME	2	3	[0, 0, 0]	n/a	FR1	3	R1323T
506.017	1.621	507177	WORD	n/a	n/a	POOL	3	3	[0, 0, 0]	n/a	FR1	3	R1323T
507.638	1.121	508798	WORD_OFF	n/a	n/a	POOL	3	3	[0, 0, 0]	n/a	FR1	3	R1323T
508.759	1.629	509918	WORD	n/a	n/a	PARK	4	3	[0, 0, 0]	n/a	FR1	3	R1323T
510.388	0.763	511547	WORD_OFF	n/a	n/a	PARK	4	3	[0, 0, 0]	n/a	FR1	3	R1323T
511.151	1.638	512310	WORD	n/a	n/a	TEETH	5	3	[0, 0, 0]	n/a	FR1	3	R1323T
512.789	0.862	513948	WORD_OFF	n/a	n/a	TEETH	5	3	[0, 0, 0]	n/a	FR1	3	R1323T
513.651	1.621	514810	WORD	n/a	n/a	RAKE	6	3	[0, 0, 0]	n/a	FR1	3	R1323T
515.272	1.144	516431	WORD_OFF	n/a	n/a	RAKE	6	3	[0, 0, 0]	n/a	FR1	3	R1323T
516.416	1.623	517575	WORD	n/a	n/a	SUN	7	3	[0, 0, 0]	n/a	FR1	3	R1323T
518.039	0.848	519198	WORD_OFF	n/a	n/a	SUN	7	3	[0, 0, 0]	n/a	FR1	3	R1323T
518.887	1.62	520046	WORD	n/a	n/a	OAK	8	3	[0, 0, 0]	n/a	FR1	3	R1323T
520.507	1.047	521666	WORD_OFF	n/a	n/a	OAK	8	3	[0, 0, 0]	n/a	FR1	3	R1323T
521.554	1.636	522713	WORD	n/a	n/a	HOUSE	9	3	[0, 0, 0]	n/a	FR1	3	R1323T
523.19	0.942	524349	WORD_OFF	n/a	n/a	HOUSE	9	3	[0, 0, 0]	n/a	FR1	3	R1323T
524.132	1.626	525291	WORD	n/a	n/a	STEAM	10	3	[0, 0, 0]	n/a	FR1	3	R1323T
525.758	1.121	526917	WORD_OFF	n/a	n/a	STEAM	10	3	[0, 0, 0]	n/a	FR1	3	R1323T
526.879	1.612	528038	WORD	n/a	n/a	MUG	11	3	[0, 0, 0]	n/a	FR1	3	R1323T
528.491	1.025	529650	WORD_OFF	n/a	n/a	MUG	11	3	[0, 0, 0]	n/a	FR1	3	R1323T
529.516	1.625	530675	WORD	n/a	n/a	WAVE	12	3	[0, 0, 0]	n/a	FR1	3	R1323T
531.141	0.001	532300	WORD_OFF	n/a	n/a	WAVE	12	3	[0, 0, 0]	n/a	FR1	3	R1323T
531.142	0.0	532301	ENCODING_END	n/a	n/a	n/a	-999	3	[0, 0, 0]	n/a	FR1	3	R1323T
531.142	0.0	532301	DISTRACT_START	n/a	n/a	n/a	-999	3	[0, 0, 0]	n/a	FR1	3	R1323T
531.142	0.015	532301	START	n/a	n/a	n/a	-999	3	[-999, -999, -999]	n/a	FR1	3	R1323T
531.157	3.652	532316	PROB	3.652	n/a	n/a	-999	3	[9, 1, 2]	12	FR1	3	R1323T
534.809	3.2	535967	PROB	3.2	n/a	n/a	-999	3	[4, 1, 6]	11	FR1	3	R1323T
538.009	13.278	539167	PROB	13.278	n/a	n/a	-999	3	[6, 3, 9]	18	FR1	3	R1323T
551.287	0.008	552445	STOP	n/a	n/a	n/a	-999	3	[-999, -999, -999]	n/a	FR1	3	R1323T
551.295	0.569	552453	DISTRACT_END	n/a	n/a	n/a	-999	3	[0, 0, 0]	n/a	FR1	3	R1323T
551.864	1.582	553022	RETRIEVAL_ORIENT_START	n/a	n/a	n/a	-999	3	[0, 0, 0]	n/a	FR1	3	R1323T
553.446	0.0	554604	REC_START	n/a	n/a	n/a	-999	3	[0, 0, 0]	n/a	FR1	3	R1323T
553.446	0.794	554604	RETRIEVAL_ORIENT_END	n/a	n/a	n/a	-999	3	[0, 0, 0]	n/a	FR1	3	R1323T
554.24	1.6	555398	REC_WORD	1.6	n/a	CAVE	1	3	[0, 0, 0]	n/a	FR1	3	R1323T
555.84	22.57	556997	REC_WORD	22.57	n/a	WAVE	12	3	[0, 0, 0]	n/a	FR1	3	R1323T
578.41	5.05	579566	REC_WORD	5.05	n/a	YAWN	-999	3	[0, 0, 0]	n/a	FR1	3	R1323T
583.46	0.0	584616	REC_END	n/a	n/a	n/a	-999	3	[0, 0, 0]	n/a	FR1	3	R1323T
583.46	0.014	584616	TRIAL_END	n/a	n/a	n/a	-999	3	[0, 0, 0]	n/a	FR1	3	R1323T
583.474	0.001	584630	TRIAL_START	n/a	n/a	n/a	-999	4	[0, 0, 0]	n/a	FR1	3	R1323T
583.475	0.0	584631	WAITING_START	n/a	n/a	n/a	-999	4	[0, 0, 0]	n/a	FR1	3	R1323T
583.475	2.793	584631	TRIAL	n/a	n/a	n/a	-999	4	[0, 0, 0]	n/a	FR1	3	R1323T
586.268	0.0	587424	WAITING_END	n/a	n/a	n/a	-999	4	[0, 0, 0]	n/a	FR1	3	R1323T
586.268	10.429	587424	COUNTDOWN_START	n/a	n/a	n/a	-999	4	[0, 0, 0]	n/a	FR1	3	R1323T
596.697	0.001	597853	COUNTDOWN_END	n/a	n/a	n/a	-999	4	[0, 0, 0]	n/a	FR1	3	R1323T
596.698	1.205	597854	ORIENT_START	n/a	n/a	n/a	-999	4	[0, 0, 0]	n/a	FR1	3	R1323T
597.903	0.0	599059	ORIENT_END	n/a	n/a	n/a	-999	4	[0, 0, 0]	n/a	FR1	3	R1323T
597.903	0.805	599059	ENCODING_START	n/a	n/a	n/a	-999	4	[0, 0, 0]	n/a	FR1	3	R1323T
598.708	1.63	599864	WORD	n/a	n/a	FRUIT	1	4	[0, 0, 0]	n/a	FR1	3	R1323T
600.338	0.88	601494	WORD_OFF	n/a	n/a	FRUIT	1	4	[0, 0, 0]	n/a	FR1	3	R1323T
601.218	1.62	602373	WORD	n/a	n/a	DESK	2	4	[0, 0, 0]	n/a	FR1	3	R1323T
602.838	0.912	603993	WORD_OFF	n/a	n/a	DESK	2	4	[0, 0, 0]	n/a	FR1	3	R1323T
603.75	1.639	604905	WORD	n/a	n/a	STOOL	3	4	[0, 0, 0]	n/a	FR1	3	R1323T
605.389	0.894	606544	WORD_OFF	n/a	n/a	STOOL	3	4	[0, 0, 0]	n/a	FR1	3	R1323T
606.283	1.622	607438	WORD	n/a	n/a	SMILE	4	4	[0, 0, 0]	n/a	FR1	3	R1323T
607.905	1.116	609060	WORD_OFF	n/a	n/a	SMILE	4	4	[0, 0, 0]	n/a	FR1	3	R1323T
609.021	1.635	610176	WORD	n/a	n/a	BEE	5	4	[0, 0, 0]	n/a	FR1	3	R1323T
610.656	0.997	611811	WORD_OFF	n/a	n/a	BEE	5	4	[0, 0, 0]	n/a	FR1	3	R1323T
611.653	1.636	612808	WORD	n/a	n/a	TENT	6	4	[0, 0, 0]	n/a	FR1	3	R1323T
613.289	0.852	614444	WORD_OFF	n/a	n/a	TENT	6	4	[0, 0, 0]	n/a	FR1	3	R1323T
614.141	1.633	615296	WORD	n/a	n/a	SHELL	7	4	[0, 0, 0]	n/a	FR1	3	R1323T
615.774	0.811	616929	WORD_OFF	n/a	n/a	SHELL	7	4	[0, 0, 0]	n/a	FR1	3	R1323T
616.585	1.622	617740	WORD	n/a	n/a	PIN	8	4	[0, 0, 0]	n/a	FR1	3	R1323T
618.207	0.878	619362	WORD_OFF	n/a	n/a	PIN	8	4	[0, 0, 0]	n/a	FR1	3	R1323T
619.085	1.64	620240	WORD	n/a	n/a	MOUTH	9	4	[0, 0, 0]	n/a	FR1	3	R1323T
620.725	0.982	621880	WORD_OFF	n/a	n/a	MOUTH	9	4	[0, 0, 0]	n/a	FR1	3	R1323T
621.707	1.635	622862	WORD	n/a	n/a	GOAT	10	4	[0, 0, 0]	n/a	FR1	3	R1323T
623.342	0.794	624497	WORD_OFF	n/a	n/a	GOAT	10	4	[0, 0, 0]	n/a	FR1	3	R1323T
624.136	1.623	625290	WORD	n/a	n/a	ARM	11	4	[0, 0, 0]	n/a	FR1	3	R1323T
625.759	1.096	626913	WORD_OFF	n/a	n/a	ARM	11	4	[0, 0, 0]	n/a	FR1	3	R1323T
626.855	1.621	628009	WORD	n/a	n/a	TOY	12	4	[0, 0, 0]	n/a	FR1	3	R1323T
628.476	0.001	629630	WORD_OFF	n/a	n/a	TOY	12	4	[0, 0, 0]	n/a	FR1	3	R1323T
628.477	0.0	629631	ENCODING_END	n/a	n/a	n/a	-999	4	[0, 0, 0]	n/a	FR1	3	R1323T
628.477	0.0	629631	DISTRACT_START	n/a	n/a	n/a	-999	4	[0, 0, 0]	n/a	FR1	3	R1323T
628.477	0.016	629631	START	n/a	n/a	n/a	-999	4	[-999, -999, -999]	n/a	FR1	3	R1323T
628.493	4.017	629647	PROB	4.017	n/a	n/a	-999	4	[8, 3, 2]	13	FR1	3	R1323T
632.51	4.567	633664	PROB	4.567	n/a	n/a	-999	4	[7, 8, 2]	17	FR1	3	R1323T
637.077	5.967	638231	PROB	5.967	n/a	n/a	-999	4	[9, 6, 9]	24	FR1	3	R1323T
643.044	4.502	644198	PROB	4.502	n/a	n/a	-999	4	[8, 5, 5]	18	FR1	3	R1323T
647.546	7.726	648699	PROB	7.726	n/a	n/a	-999	4	[5, 9, 8]	24	FR1	3	R1323T
655.272	0.008	656425	STOP	n/a	n/a	n/a	-999	4	[-999, -999, -999]	n/a	FR1	3	R1323T
655.28	0.508	656433	DISTRACT_END	n/a	n/a	n/a	-999	4	[0, 0, 0]	n/a	FR1	3	R1323T
655.788	1.627	656941	RETRIEVAL_ORIENT_START	n/a	n/a	n/a	-999	4	[0, 0, 0]	n/a	FR1	3	R1323T
657.415	0.0	658568	RETRIEVAL_ORIENT_END	n/a	n/a	n/a	-999	4	[0, 0, 0]	n/a	FR1	3	R1323T
657.415	1.498	658568	REC_START	n/a	n/a	n/a	-999	4	[0, 0, 0]	n/a	FR1	3	R1323T
658.913	1.442	660066	REC_WORD	1.442	n/a	BEE	5	4	[0, 0, 0]	n/a	FR1	3	R1323T
660.355	13.587	661508	REC_WORD	13.587	n/a	ARM	11	4	[0, 0, 0]	n/a	FR1	3	R1323T
673.942	2.289	675094	REC_WORD_VV	2.289	n/a	<>	-999	4	[0, 0, 0]	n/a	FR1	3	R1323T
676.231	11.197	677383	REC_WORD	11.197	n/a	CAVE	-999	4	[0, 0, 0]	n/a	FR1	3	R1323T
687.428	0.0	688580	REC_END	n/a	n/a	n/a	-999	4	[0, 0, 0]	n/a	FR1	3	R1323T
687.428	0.016	688580	TRIAL_END	n/a	n/a	n/a	-999	4	[0, 0, 0]	n/a	FR1	3	R1323T
687.444	0.0	688596	TRIAL_START	n/a	n/a	n/a	-999	5	[0, 0, 0]	n/a	FR1	3	R1323T
687.444	0.001	688596	TRIAL	n/a	n/a	n/a	-999	5	[0, 0, 0]	n/a	FR1	3	R1323T
687.445	3.692	688597	WAITING_START	n/a	n/a	n/a	-999	5	[0, 0, 0]	n/a	FR1	3	R1323T
691.137	0.0	692289	COUNTDOWN_START	n/a	n/a	n/a	-999	5	[0, 0, 0]	n/a	FR1	3	R1323T
691.137	10.428	692289	WAITING_END	n/a	n/a	n/a	-999	5	[0, 0, 0]	n/a	FR1	3	R1323T
701.565	0.001	702716	COUNTDOWN_END	n/a	n/a	n/a	-999	5	[0, 0, 0]	n/a	FR1	3	R1323T
701.566	1.207	702717	ORIENT_START	n/a	n/a	n/a	-999	5	[0, 0, 0]	n/a	FR1	3	R1323T
702.773	0.001	703924	ORIENT_END	n/a	n/a	n/a	-999	5	[0, 0, 0]	n/a	FR1	3	R1323T
702.774	0.962	703925	ENCODING_START	n/a	n/a	n/a	-999	5	[0, 0, 0]	n/a	FR1	3	R1323T
703.736	1.638	704887	WORD	n/a	n/a	BREAD	1	5	[0, 0, 0]	n/a	FR1	3	R1323T
705.374	0.798	706525	WORD_OFF	n/a	n/a	BREAD	1	5	[0, 0, 0]	n/a	FR1	3	R1323T
706.172	1.635	707323	WORD	n/a	n/a	SLEEVE	2	5	[0, 0, 0]	n/a	FR1	3	R1323T
707.807	1.144	708958	WORD_OFF	n/a	n/a	SLEEVE	2	5	[0, 0, 0]	n/a	FR1	3	R1323T
708.951	1.624	710102	WORD	n/a	n/a	SHARK	3	5	[0, 0, 0]	n/a	FR1	3	R1323T
710.575	0.901	711726	WORD_OFF	n/a	n/a	SHARK	3	5	[0, 0, 0]	n/a	FR1	3	R1323T
711.476	1.631	712627	WORD	n/a	n/a	COUCH	4	5	[0, 0, 0]	n/a	FR1	3	R1323T
713.107	1.118	714258	WORD_OFF	n/a	n/a	COUCH	4	5	[0, 0, 0]	n/a	FR1	3	R1323T
714.225	1.634	715376	WORD	n/a	n/a	CAGE	5	5	[0, 0, 0]	n/a	FR1	3	R1323T
715.859	0.81	717009	WORD_OFF	n/a	n/a	CAGE	5	5	[0, 0, 0]	n/a	FR1	3	R1323T
716.669	1.623	717819	WORD	n/a	n/a	ELF	6	5	[0, 0, 0]	n/a	FR1	3	R1323T
718.292	1.01	719442	WORD_OFF	n/a	n/a	ELF	6	5	[0, 0, 0]	n/a	FR1	3	R1323T
719.302	1.623	720452	WORD	n/a	n/a	BEAN	7	5	[0, 0, 0]	n/a	FR1	3	R1323T
720.925	0.928	722075	WORD_OFF	n/a	n/a	BEAN	7	5	[0, 0, 0]	n/a	FR1	3	R1323T
721.853	1.624	723003	WORD	n/a	n/a	TIE	8	5	[0, 0, 0]	n/a	FR1	3	R1323T
723.477	1.149	724627	WORD_OFF	n/a	n/a	TIE	8	5	[0, 0, 0]	n/a	FR1	3	R1323T
724.626	1.634	725776	WORD	n/a	n/a	STRAW	9	5	[0, 0, 0]	n/a	FR1	3	R1323T
726.26	0.927	727410	WORD_OFF	n/a	n/a	STRAW	9	5	[0, 0, 0]	n/a	FR1	3	R1323T
727.187	1.624	728337	WORD	n/a	n/a	PET	10	5	[0, 0, 0]	n/a	FR1	3	R1323T
728.811	1.044	729961	WORD_OFF	n/a	n/a	PET	10	5	[0, 0, 0]	n/a	FR1	3	R1323T
729.855	1.623	731005	WORD	n/a	n/a	OWL	11	5	[0, 0, 0]	n/a	FR1	3	R1323T
731.478	1.07	732628	WORD_OFF	n/a	n/a	OWL	11	5	[0, 0, 0]	n/a	FR1	3	R1323T
732.548	1.63	733698	WORD	n/a	n/a	MULE	12	5	[0, 0, 0]	n/a	FR1	3	R1323T
734.178	0.0	735328	WORD_OFF	n/a	n/a	MULE	12	5	[0, 0, 0]	n/a	FR1	3	R1323T
734.178	0.001	735328	ENCODING_END	n/a	n/a	n/a	-999	5	[0, 0, 0]	n/a	FR1	3	R1323T
734.179	0.0	735329	DISTRACT_START	n/a	n/a	n/a	-999	5	[0, 0, 0]	n/a	FR1	3	R1323T
734.179	0.015	735329	START	n/a	n/a	n/a	-999	5	[-999, -999, -999]	n/a	FR1	3	R1323T
734.194	3.951	735344	PROB	3.951	n/a	n/a	-999	5	[4, 6, 1]	11	FR1	3	R1323T
738.145	8.135	739295	PROB	8.135	n/a	n/a	-999	5	[9, 5, 2]	16	FR1	3	R1323T
746.28	5.834	747429	PROB	5.834	n/a	n/a	-999	5	[5, 9, 6]	20	FR1	3	R1323T
752.114	4.668	753263	PROB	4.668	n/a	n/a	-999	5	[4, 3, 1]	8	FR1	3	R1323T
756.782	0.017	757931	STOP	n/a	n/a	n/a	-999	5	[-999, -999, -999]	n/a	FR1	3	R1323T
756.799	0.678	757948	DISTRACT_END	n/a	n/a	n/a	-999	5	[0, 0, 0]	n/a	FR1	3	R1323T
757.477	1.605	758626	RETRIEVAL_ORIENT_START	n/a	n/a	n/a	-999	5	[0, 0, 0]	n/a	FR1	3	R1323T
759.082	0.001	760231	RETRIEVAL_ORIENT_END	n/a	n/a	n/a	-999	5	[0, 0, 0]	n/a	FR1	3	R1323T
759.083	1.78	760232	REC_START	n/a	n/a	n/a	-999	5	[0, 0, 0]	n/a	FR1	3	R1323T
760.863	1.582	762012	REC_WORD	1.582	n/a	COUCH	4	5	[0, 0, 0]	n/a	FR1	3	R1323T
762.445	0.864	763593	REC_WORD	0.864	n/a	ARM	-999	5	[0, 0, 0]	n/a	FR1	3	R1323T
763.309	2.115	764457	REC_WORD	2.115	n/a	SLEEVE	2	5	[0, 0, 0]	n/a	FR1	3	R1323T
765.424	2.827	766572	REC_WORD	2.827	n/a	PEN	-999	5	[0, 0, 0]	n/a	FR1	3	R1323T
768.251	1.0	769399	REC_WORD	1.0	n/a	STOOL	-999	5	[0, 0, 0]	n/a	FR1	3	R1323T
769.251	19.844	770399	REC_WORD_VV	19.844	n/a	<>	-999	5	[0, 0, 0]	n/a	FR1	3	R1323T
789.095	0.0	790242	REC_END	n/a	n/a	n/a	-999	5	[0, 0, 0]	n/a	FR1	3	R1323T
789.095	0.017	790242	TRIAL_END	n/a	n/a	n/a	-999	5	[0, 0, 0]	n/a	FR1	3	R1323T
789.112	0.0	790259	TRIAL_START	n/a	n/a	n/a	-999	6	[0, 0, 0]	n/a	FR1	3	R1323T
789.112	0.001	790259	TRIAL	n/a	n/a	n/a	-999	6	[0, 0, 0]	n/a	FR1	3	R1323T
789.113	3.859	790260	WAITING_START	n/a	n/a	n/a	-999	6	[0, 0, 0]	n/a	FR1	3	R1323T
792.972	0.0	794119	WAITING_END	n/a	n/a	n/a	-999	6	[0, 0, 0]	n/a	FR1	3	R1323T
792.972	10.428	794119	COUNTDOWN_START	n/a	n/a	n/a	-999	6	[0, 0, 0]	n/a	FR1	3	R1323T
803.4	0.0	804547	COUNTDOWN_END	n/a	n/a	n/a	-999	6	[0, 0, 0]	n/a	FR1	3	R1323T
803.4	1.192	804547	ORIENT_START	n/a	n/a	n/a	-999	6	[0, 0, 0]	n/a	FR1	3	R1323T
804.592	0.0	805739	ORIENT_END	n/a	n/a	n/a	-999	6	[0, 0, 0]	n/a	FR1	3	R1323T
804.592	0.799	805739	ENCODING_START	n/a	n/a	n/a	-999	6	[0, 0, 0]	n/a	FR1	3	R1323T
805.391	1.633	806538	WORD	n/a	n/a	HEN	1	6	[0, 0, 0]	n/a	FR1	3	R1323T
807.024	0.915	808171	WORD_OFF	n/a	n/a	HEN	1	6	[0, 0, 0]	n/a	FR1	3	R1323T
807.939	1.637	809085	WORD	n/a	n/a	FLOOR	2	6	[0, 0, 0]	n/a	FR1	3	R1323T
809.576	0.962	810722	WORD_OFF	n/a	n/a	FLOOR	2	6	[0, 0, 0]	n/a	FR1	3	R1323T
810.538	1.621	811684	WORD	n/a	n/a	WOOD	3	6	[0, 0, 0]	n/a	FR1	3	R1323T
812.159	1.043	813305	WORD_OFF	n/a	n/a	WOOD	3	6	[0, 0, 0]	n/a	FR1	3	R1323T
813.202	1.625	814348	WORD	n/a	n/a	JET	4	6	[0, 0, 0]	n/a	FR1	3	R1323T
814.827	0.754	815973	WORD_OFF	n/a	n/a	JET	4	6	[0, 0, 0]	n/a	FR1	3	R1323T
815.581	1.629	816727	WORD	n/a	n/a	CROW	5	6	[0, 0, 0]	n/a	FR1	3	R1323T
817.21	0.791	818356	WORD_OFF	n/a	n/a	CROW	5	6	[0, 0, 0]	n/a	FR1	3	R1323T
818.001	1.627	819147	WORD	n/a	n/a	STEAK	6	6	[0, 0, 0]	n/a	FR1	3	R1323T
819.628	0.99	820774	WORD_OFF	n/a	n/a	STEAK	6	6	[0, 0, 0]	n/a	FR1	3	R1323T
820.618	1.626	821764	WORD	n/a	n/a	BOOK	7	6	[0, 0, 0]	n/a	FR1	3	R1323T
822.244	0.849	823390	WORD_OFF	n/a	n/a	BOOK	7	6	[0, 0, 0]	n/a	FR1	3	R1323T
823.093	1.619	824239	WORD	n/a	n/a	KITE	8	6	[0, 0, 0]	n/a	FR1	3	R1323T
824.712	0.764	825858	WORD_OFF	n/a	n/a	KITE	8	6	[0, 0, 0]	n/a	FR1	3	R1323T
825.476	1.635	826622	WORD	n/a	n/a	BRICK	9	6	[0, 0, 0]	n/a	FR1	3	R1323T
827.111	1.115	828257	WORD_OFF	n/a	n/a	BRICK	9	6	[0, 0, 0]	n/a	FR1	3	R1323T
828.226	1.637	829372	WORD	n/a	n/a	NET	10	6	[0, 0, 0]	n/a	FR1	3	R1323T
829.863	0.889	831009	WORD_OFF	n/a	n/a	NET	10	6	[0, 0, 0]	n/a	FR1	3	R1323T
830.752	1.628	831897	WORD	n/a	n/a	PIE	11	6	[0, 0, 0]	n/a	FR1	3	R1323T
832.38	0.834	833525	WORD_OFF	n/a	n/a	PIE	11	6	[0, 0, 0]	n/a	FR1	3	R1323T
833.214	1.616	834359	WORD	n/a	n/a	PEARL	12	6	[0, 0, 0]	n/a	FR1	3	R1323T
834.83	0.001	835975	WORD_OFF	n/a	n/a	PEARL	12	6	[0, 0, 0]	n/a	FR1	3	R1323T
834.831	0.0	835976	ENCODING_END	n/a	n/a	n/a	-999	6	[0, 0, 0]	n/a	FR1	3	R1323T
834.831	0.0	835976	DISTRACT_START	n/a	n/a	n/a	-999	6	[0, 0, 0]	n/a	FR1	3	R1323T
834.831	0.016	835976	START	n/a	n/a	n/a	-999	6	[-999, -999, -999]	n/a	FR1	3	R1323T
834.847	5.3	835992	PROB	5.3	n/a	n/a	-999	6	[6, 5, 6]	17	FR1	3	R1323T
840.147	4.901	841292	PROB	4.901	n/a	n/a	-999	6	[9, 9, 9]	27	FR1	3	R1323T
845.048	4.351	846193	PROB	4.351	n/a	n/a	-999	6	[5, 5, 9]	19	FR1	3	R1323T
849.399	3.784	850544	PROB	3.784	n/a	n/a	-999	6	[5, 2, 2]	9	FR1	3	R1323T
853.183	9.247	854327	PROB	9.247	n/a	n/a	-999	6	[2, 9, 4]	15	FR1	3	R1323T
862.43	0.005	863574	STOP	n/a	n/a	n/a	-999	6	[-999, -999, -999]	n/a	FR1	3	R1323T
862.435	0.638	863579	DISTRACT_END	n/a	n/a	n/a	-999	6	[0, 0, 0]	n/a	FR1	3	R1323T
863.073	1.663	864217	RETRIEVAL_ORIENT_START	n/a	n/a	n/a	-999	6	[0, 0, 0]	n/a	FR1	3	R1323T
864.736	0.0	865880	RETRIEVAL_ORIENT_END	n/a	n/a	n/a	-999	6	[0, 0, 0]	n/a	FR1	3	R1323T
864.736	1.035	865880	REC_START	n/a	n/a	n/a	-999	6	[0, 0, 0]	n/a	FR1	3	R1323T
865.771	1.853	866915	REC_WORD	1.853	n/a	PIE	11	6	[0, 0, 0]	n/a	FR1	3	R1323T
867.624	2.601	868768	REC_WORD	2.601	n/a	CROW	5	6	[0, 0, 0]	n/a	FR1	3	R1323T
870.225	2.513	871369	REC_WORD	2.513	n/a	JET	4	6	[0, 0, 0]	n/a	FR1	3	R1323T
872.738	6.206	873882	REC_WORD	6.206	n/a	FLOOR	2	6	[0, 0, 0]	n/a	FR1	3	R1323T
878.944	6.618	880087	REC_WORD	6.618	n/a	STOOL	-999	6	[0, 0, 0]	n/a	FR1	3	R1323T
885.562	9.187	886705	REC_WORD	9.187	n/a	HEN	1	6	[0, 0, 0]	n/a	FR1	3	R1323T
894.749	0.001	895892	REC_END	n/a	n/a	n/a	-999	6	[0, 0, 0]	n/a	FR1	3	R1323T
894.75	0.014	895893	TRIAL_END	n/a	n/a	n/a	-999	6	[0, 0, 0]	n/a	FR1	3	R1323T
894.764	0.0	895907	TRIAL_START	n/a	n/a	n/a	-999	7	[0, 0, 0]	n/a	FR1	3	R1323T
894.764	0.001	895907	TRIAL	n/a	n/a	n/a	-999	7	[0, 0, 0]	n/a	FR1	3	R1323T
894.765	2.744	895908	WAITING_START	n/a	n/a	n/a	-999	7	[0, 0, 0]	n/a	FR1	3	R1323T
897.509	0.0	898652	COUNTDOWN_START	n/a	n/a	n/a	-999	7	[0, 0, 0]	n/a	FR1	3	R1323T
897.509	10.429	898652	WAITING_END	n/a	n/a	n/a	-999	7	[0, 0, 0]	n/a	FR1	3	R1323T
907.938	0.0	909080	COUNTDOWN_END	n/a	n/a	n/a	-999	7	[0, 0, 0]	n/a	FR1	3	R1323T
907.938	1.038	909080	ORIENT_START	n/a	n/a	n/a	-999	7	[0, 0, 0]	n/a	FR1	3	R1323T
908.976	0.001	910118	ORIENT_END	n/a	n/a	n/a	-999	7	[0, 0, 0]	n/a	FR1	3	R1323T
908.977	0.85	910119	ENCODING_START	n/a	n/a	n/a	-999	7	[0, 0, 0]	n/a	FR1	3	R1323T
909.827	1.634	910969	WORD	n/a	n/a	HOOK	1	7	[0, 0, 0]	n/a	FR1	3	R1323T
911.461	0.783	912603	WORD_OFF	n/a	n/a	HOOK	1	7	[0, 0, 0]	n/a	FR1	3	R1323T
912.244	1.633	913386	WORD	n/a	n/a	ROOM	2	7	[0, 0, 0]	n/a	FR1	3	R1323T
913.877	1.106	915019	WORD_OFF	n/a	n/a	ROOM	2	7	[0, 0, 0]	n/a	FR1	3	R1323T
914.983	1.612	916125	WORD	n/a	n/a	CRANE	3	7	[0, 0, 0]	n/a	FR1	3	R1323T
916.595	0.993	917737	WORD_OFF	n/a	n/a	CRANE	3	7	[0, 0, 0]	n/a	FR1	3	R1323T
917.588	1.623	918730	WORD	n/a	n/a	BLOOM	4	7	[0, 0, 0]	n/a	FR1	3	R1323T
919.211	1.027	920353	WORD_OFF	n/a	n/a	BLOOM	4	7	[0, 0, 0]	n/a	FR1	3	R1323T
920.238	1.625	921380	WORD	n/a	n/a	VEST	5	7	[0, 0, 0]	n/a	FR1	3	R1323T
921.863	1.087	923005	WORD_OFF	n/a	n/a	VEST	5	7	[0, 0, 0]	n/a	FR1	3	R1323T
922.95	1.613	924091	WORD	n/a	n/a	FUDGE	6	7	[0, 0, 0]	n/a	FR1	3	R1323T
924.563	0.801	925704	WORD_OFF	n/a	n/a	FUDGE	6	7	[0, 0, 0]	n/a	FR1	3	R1323T
925.364	1.632	926505	WORD	n/a	n/a	FORK	7	7	[0, 0, 0]	n/a	FR1	3	R1323T
926.996	1.022	928137	WORD_OFF	n/a	n/a	FORK	7	7	[0, 0, 0]	n/a	FR1	3	R1323T
928.018	1.613	929159	WORD	n/a	n/a	RICE	8	7	[0, 0, 0]	n/a	FR1	3	R1323T
929.631	0.862	930772	WORD_OFF	n/a	n/a	RICE	8	7	[0, 0, 0]	n/a	FR1	3	R1323T
930.493	1.621	931634	WORD	n/a	n/a	INK	9	7	[0, 0, 0]	n/a	FR1	3	R1323T
932.114	1.078	933255	WORD_OFF	n/a	n/a	INK	9	7	[0, 0, 0]	n/a	FR1	3	R1323T
933.192	1.623	934333	WORD	n/a	n/a	WHALE	10	7	[0, 0, 0]	n/a	FR1	3	R1323T
934.815	0.87	935956	WORD_OFF	n/a	n/a	WHALE	10	7	[0, 0, 0]	n/a	FR1	3	R1323T
935.685	1.63	936826	WORD	n/a	n/a	SKY	11	7	[0, 0, 0]	n/a	FR1	3	R1323T
937.315	0.84	938456	WORD_OFF	n/a	n/a	SKY	11	7	[0, 0, 0]	n/a	FR1	3	R1323T
938.155	1.628	939296	WORD	n/a	n/a	EAR	12	7	[0, 0, 0]	n/a	FR1	3	R1323T
939.783	0.0	940924	WORD_OFF	n/a	n/a	EAR	12	7	[0, 0, 0]	n/a	FR1	3	R1323T
939.783	0.0	940924	ENCODING_END	n/a	n/a	n/a	-999	7	[0, 0, 0]	n/a	FR1	3	R1323T
939.783	0.001	940924	DISTRACT_START	n/a	n/a	n/a	-999	7	[0, 0, 0]	n/a	FR1	3	R1323T
939.784	0.015	940925	START	n/a	n/a	n/a	-999	7	[-999, -999, -999]	n/a	FR1	3	R1323T
939.799	4.984	940940	PROB	4.984	n/a	n/a	-999	7	[1, 3, 9]	13	FR1	3	R1323T
944.783	3.784	945924	PROB	3.784	n/a	n/a	-999	7	[1, 1, 2]	4	FR1	3	R1323T
948.567	6.235	949707	PROB	6.235	n/a	n/a	-999	7	[1, 8, 5]	24	FR1	3	R1323T
954.802	4.651	955942	PROB	4.651	n/a	n/a	-999	7	[2, 6, 1]	9	FR1	3	R1323T
959.453	8.08	960593	PROB	8.08	n/a	n/a	-999	7	[3, 5, 4]	12	FR1	3	R1323T
967.533	0.021	968673	STOP	n/a	n/a	n/a	-999	7	[-999, -999, -999]	n/a	FR1	3	R1323T
967.554	0.565	968694	DISTRACT_END	n/a	n/a	n/a	-999	7	[0, 0, 0]	n/a	FR1	3	R1323T
968.119	1.686	969258	RETRIEVAL_ORIENT_START	n/a	n/a	n/a	-999	7	[0, 0, 0]	n/a	FR1	3	R1323T
969.805	0.0	970944	RETRIEVAL_ORIENT_END	n/a	n/a	n/a	-999	7	[0, 0, 0]	n/a	FR1	3	R1323T
969.805	2.248	970944	REC_START	n/a	n/a	n/a	-999	7	[0, 0, 0]	n/a	FR1	3	R1323T
972.053	12.807	973192	REC_WORD	12.807	n/a	INK	9	7	[0, 0, 0]	n/a	FR1	3	R1323T
984.86	14.957	985999	REC_WORD	14.957	n/a	BREAD	-999	7	[0, 0, 0]	n/a	FR1	3	R1323T
999.817	0.0	1000955	TRIAL_END	n/a	n/a	n/a	-999	7	[0, 0, 0]	n/a	FR1	3	R1323T
999.817	0.017	1000955	REC_END	n/a	n/a	n/a	-999	7	[0, 0, 0]	n/a	FR1	3	R1323T
999.834	0.0	1000972	TRIAL_START	n/a	n/a	n/a	-999	8	[0, 0, 0]	n/a	FR1	3	R1323T
999.834	0.0	1000972	TRIAL	n/a	n/a	n/a	-999	8	[0, 0, 0]	n/a	FR1	3	R1323T
999.834	3.259	1000972	WAITING_START	n/a	n/a	n/a	-999	8	[0, 0, 0]	n/a	FR1	3	R1323T
1003.093	0.001	1004231	WAITING_END	n/a	n/a	n/a	-999	8	[0, 0, 0]	n/a	FR1	3	R1323T
1003.094	10.429	1004232	COUNTDOWN_START	n/a	n/a	n/a	-999	8	[0, 0, 0]	n/a	FR1	3	R1323T
1013.523	0.0	1014661	COUNTDOWN_END	n/a	n/a	n/a	-999	8	[0, 0, 0]	n/a	FR1	3	R1323T
1013.523	1.157	1014661	ORIENT_START	n/a	n/a	n/a	-999	8	[0, 0, 0]	n/a	FR1	3	R1323T
1014.68	0.0	1015817	ENCODING_START	n/a	n/a	n/a	-999	8	[0, 0, 0]	n/a	FR1	3	R1323T
1014.68	0.86	1015817	ORIENT_END	n/a	n/a	n/a	-999	8	[0, 0, 0]	n/a	FR1	3	R1323T
1015.54	1.623	1016677	WORD	n/a	n/a	SPEAR	1	8	[0, 0, 0]	n/a	FR1	3	R1323T
1017.163	0.956	1018300	WORD_OFF	n/a	n/a	SPEAR	1	8	[0, 0, 0]	n/a	FR1	3	R1323T
1018.119	1.628	1019256	WORD	n/a	n/a	CLAY	2	8	[0, 0, 0]	n/a	FR1	3	R1323T
1019.747	0.893	1020884	WORD_OFF	n/a	n/a	CLAY	2	8	[0, 0, 0]	n/a	FR1	3	R1323T
1020.64	1.623	1021777	WORD	n/a	n/a	FOX	3	8	[0, 0, 0]	n/a	FR1	3	R1323T
1022.263	0.967	1023400	WORD_OFF	n/a	n/a	FOX	3	8	[0, 0, 0]	n/a	FR1	3	R1323T
1023.23	1.618	1024367	WORD	n/a	n/a	THUMB	4	8	[0, 0, 0]	n/a	FR1	3	R1323T
1024.848	1.054	1025985	WORD_OFF	n/a	n/a	THUMB	4	8	[0, 0, 0]	n/a	FR1	3	R1323T
1025.902	1.63	1027039	WORD	n/a	n/a	STONE	5	8	[0, 0, 0]	n/a	FR1	3	R1323T
1027.532	0.924	1028669	WORD_OFF	n/a	n/a	STONE	5	8	[0, 0, 0]	n/a	FR1	3	R1323T
1028.456	1.626	1029593	WORD	n/a	n/a	DRESS	6	8	[0, 0, 0]	n/a	FR1	3	R1323T
1030.082	0.799	1031219	WORD_OFF	n/a	n/a	DRESS	6	8	[0, 0, 0]	n/a	FR1	3	R1323T
1030.881	1.635	1032018	WORD	n/a	n/a	CART	7	8	[0, 0, 0]	n/a	FR1	3	R1323T
1032.516	0.908	1033653	WORD_OFF	n/a	n/a	CART	7	8	[0, 0, 0]	n/a	FR1	3	R1323T
1033.424	1.625	1034561	WORD	n/a	n/a	BOARD	8	8	[0, 0, 0]	n/a	FR1	3	R1323T
1035.049	0.814	1036186	WORD_OFF	n/a	n/a	BOARD	8	8	[0, 0, 0]	n/a	FR1	3	R1323T
1035.863	1.604	1037000	WORD	n/a	n/a	NAIL	9	8	[0, 0, 0]	n/a	FR1	3	R1323T
1037.467	1.096	1038603	WORD_OFF	n/a	n/a	NAIL	9	8	[0, 0, 0]	n/a	FR1	3	R1323T
1038.563	1.62	1039699	WORD	n/a	n/a	TOAST	10	8	[0, 0, 0]	n/a	FR1	3	R1323T
1040.183	1.054	1041319	WORD_OFF	n/a	n/a	TOAST	10	8	[0, 0, 0]	n/a	FR1	3	R1323T
1041.237	1.63	1042373	WORD	n/a	n/a	PLATE	11	8	[0, 0, 0]	n/a	FR1	3	R1323T
1042.867	0.884	1044003	WORD_OFF	n/a	n/a	PLATE	11	8	[0, 0, 0]	n/a	FR1	3	R1323T
1043.751	1.634	1044887	WORD	n/a	n/a	JAIL	12	8	[0, 0, 0]	n/a	FR1	3	R1323T
1045.385	0.001	1046521	WORD_OFF	n/a	n/a	JAIL	12	8	[0, 0, 0]	n/a	FR1	3	R1323T
1045.386	0.0	1046522	ENCODING_END	n/a	n/a	n/a	-999	8	[0, 0, 0]	n/a	FR1	3	R1323T
1045.386	0.0	1046522	DISTRACT_START	n/a	n/a	n/a	-999	8	[0, 0, 0]	n/a	FR1	3	R1323T
1045.386	0.016	1046522	START	n/a	n/a	n/a	-999	8	[-999, -999, -999]	n/a	FR1	3	R1323T
1045.402	11.817	1046538	PROB	11.817	n/a	n/a	-999	8	[9, 7, 8]	24	FR1	3	R1323T
1057.219	6.985	1058355	PROB	6.985	n/a	n/a	-999	8	[8, 3, 3]	14	FR1	3	R1323T
1064.204	6.079	1065339	PROB	6.079	n/a	n/a	-999	8	[3, 5, 5]	13	FR1	3	R1323T
1070.283	0.005	1071418	STOP	n/a	n/a	n/a	-999	8	[-999, -999, -999]	n/a	FR1	3	R1323T
1070.288	0.575	1071423	DISTRACT_END	n/a	n/a	n/a	-999	8	[0, 0, 0]	n/a	FR1	3	R1323T
1070.863	1.56	1071998	RETRIEVAL_ORIENT_START	n/a	n/a	n/a	-999	8	[0, 0, 0]	n/a	FR1	3	R1323T
1072.423	0.001	1073558	RETRIEVAL_ORIENT_END	n/a	n/a	n/a	-999	8	[0, 0, 0]	n/a	FR1	3	R1323T
1072.424	1.042	1073559	REC_START	n/a	n/a	n/a	-999	8	[0, 0, 0]	n/a	FR1	3	R1323T
1073.466	1.069	1074601	REC_WORD	1.069	n/a	PLATE	11	8	[0, 0, 0]	n/a	FR1	3	R1323T
1074.535	2.27	1075670	REC_WORD	2.27	n/a	MAIL	-999	8	[0, 0, 0]	n/a	FR1	3	R1323T
1076.805	3.595	1077940	REC_WORD	3.595	n/a	JAIL	12	8	[0, 0, 0]	n/a	FR1	3	R1323T
1080.4	6.104	1081535	REC_WORD	6.104	n/a	OAK	-999	8	[0, 0, 0]	n/a	FR1	3	R1323T
1086.504	15.933	1087638	REC_WORD	15.933	n/a	BOARD	8	8	[0, 0, 0]	n/a	FR1	3	R1323T
1102.437	0.0	1103571	TRIAL_END	n/a	n/a	n/a	-999	8	[0, 0, 0]	n/a	FR1	3	R1323T
1102.437	0.014	1103571	REC_END	n/a	n/a	n/a	-999	8	[0, 0, 0]	n/a	FR1	3	R1323T
1102.451	0.001	1103585	TRIAL_START	n/a	n/a	n/a	-999	9	[0, 0, 0]	n/a	FR1	3	R1323T
1102.452	0.0	1103586	TRIAL	n/a	n/a	n/a	-999	9	[0, 0, 0]	n/a	FR1	3	R1323T
1102.452	7.711	1103586	WAITING_START	n/a	n/a	n/a	-999	9	[0, 0, 0]	n/a	FR1	3	R1323T
1110.163	0.0	1111296	WAITING_END	n/a	n/a	n/a	-999	9	[0, 0, 0]	n/a	FR1	3	R1323T
1110.163	10.429	1111296	COUNTDOWN_START	n/a	n/a	n/a	-999	9	[0, 0, 0]	n/a	FR1	3	R1323T
1120.592	0.0	1121725	COUNTDOWN_END	n/a	n/a	n/a	-999	9	[0, 0, 0]	n/a	FR1	3	R1323T
1120.592	1.257	1121725	ORIENT_START	n/a	n/a	n/a	-999	9	[0, 0, 0]	n/a	FR1	3	R1323T
1121.849	0.001	1122982	ORIENT_END	n/a	n/a	n/a	-999	9	[0, 0, 0]	n/a	FR1	3	R1323T
1121.85	0.948	1122983	ENCODING_START	n/a	n/a	n/a	-999	9	[0, 0, 0]	n/a	FR1	3	R1323T
1122.798	1.635	1123931	WORD	n/a	n/a	HORN	1	9	[0, 0, 0]	n/a	FR1	3	R1323T
1124.433	1.132	1125566	WORD_OFF	n/a	n/a	HORN	1	9	[0, 0, 0]	n/a	FR1	3	R1323T
1125.565	1.634	1126698	WORD	n/a	n/a	SEA	2	9	[0, 0, 0]	n/a	FR1	3	R1323T
1127.199	0.897	1128332	WORD_OFF	n/a	n/a	SEA	2	9	[0, 0, 0]	n/a	FR1	3	R1323T
1128.096	1.604	1129229	WORD	n/a	n/a	DOLL	3	9	[0, 0, 0]	n/a	FR1	3	R1323T
1129.7	0.952	1130832	WORD_OFF	n/a	n/a	DOLL	3	9	[0, 0, 0]	n/a	FR1	3	R1323T
1130.652	1.631	1131784	WORD	n/a	n/a	PIT	4	9	[0, 0, 0]	n/a	FR1	3	R1323T
1132.283	0.834	1133415	WORD_OFF	n/a	n/a	PIT	4	9	[0, 0, 0]	n/a	FR1	3	R1323T
1133.117	1.617	1134249	WORD	n/a	n/a	CHEEK	5	9	[0, 0, 0]	n/a	FR1	3	R1323T
1134.734	0.996	1135866	WORD_OFF	n/a	n/a	CHEEK	5	9	[0, 0, 0]	n/a	FR1	3	R1323T
1135.73	1.622	1136862	WORD	n/a	n/a	HILL	6	9	[0, 0, 0]	n/a	FR1	3	R1323T
1137.352	0.767	1138484	WORD_OFF	n/a	n/a	HILL	6	9	[0, 0, 0]	n/a	FR1	3	R1323T
1138.119	1.633	1139251	WORD	n/a	n/a	MAT	7	9	[0, 0, 0]	n/a	FR1	3	R1323T
1139.752	1.13	1140884	WORD_OFF	n/a	n/a	MAT	7	9	[0, 0, 0]	n/a	FR1	3	R1323T
1140.882	1.621	1142014	WORD	n/a	n/a	CHAIR	8	9	[0, 0, 0]	n/a	FR1	3	R1323T
1142.503	1.021	1143635	WORD_OFF	n/a	n/a	CHAIR	8	9	[0, 0, 0]	n/a	FR1	3	R1323T
1143.524	1.628	1144656	WORD	n/a	n/a	TEA	9	9	[0, 0, 0]	n/a	FR1	3	R1323T
1145.152	0.786	1146284	WORD_OFF	n/a	n/a	TEA	9	9	[0, 0, 0]	n/a	FR1	3	R1323T
1145.938	1.616	1147070	WORD	n/a	n/a	TOAD	10	9	[0, 0, 0]	n/a	FR1	3	R1323T
1147.554	0.992	1148686	WORD_OFF	n/a	n/a	TOAD	10	9	[0, 0, 0]	n/a	FR1	3	R1323T
1148.546	1.624	1149678	WORD	n/a	n/a	DITCH	11	9	[0, 0, 0]	n/a	FR1	3	R1323T
1150.17	0.822	1151302	WORD_OFF	n/a	n/a	DITCH	11	9	[0, 0, 0]	n/a	FR1	3	R1323T
1150.992	1.613	1152124	WORD	n/a	n/a	APE	12	9	[0, 0, 0]	n/a	FR1	3	R1323T
1152.605	0.0	1153736	WORD_OFF	n/a	n/a	APE	12	9	[0, 0, 0]	n/a	FR1	3	R1323T
1152.605	0.0	1153736	ENCODING_END	n/a	n/a	n/a	-999	9	[0, 0, 0]	n/a	FR1	3	R1323T
1152.605	0.001	1153736	DISTRACT_START	n/a	n/a	n/a	-999	9	[0, 0, 0]	n/a	FR1	3	R1323T
1152.606	0.015	1153737	START	n/a	n/a	n/a	-999	9	[-999, -999, -999]	n/a	FR1	3	R1323T
1152.621	6.885	1153752	PROB	6.885	n/a	n/a	-999	9	[4, 3, 7]	14	FR1	3	R1323T
1159.506	5.433	1160637	PROB	5.433	n/a	n/a	-999	9	[2, 4, 1]	7	FR1	3	R1323T
1164.939	8.554	1166070	PROB	8.554	n/a	n/a	-999	9	[9, 1, 9]	19	FR1	3	R1323T
1173.493	0.015	1174624	STOP	n/a	n/a	n/a	-999	9	[-999, -999, -999]	n/a	FR1	3	R1323T
1173.508	0.625	1174639	DISTRACT_END	n/a	n/a	n/a	-999	9	[0, 0, 0]	n/a	FR1	3	R1323T
1174.133	1.559	1175264	RETRIEVAL_ORIENT_START	n/a	n/a	n/a	-999	9	[0, 0, 0]	n/a	FR1	3	R1323T
1175.692	0.001	1176822	RETRIEVAL_ORIENT_END	n/a	n/a	n/a	-999	9	[0, 0, 0]	n/a	FR1	3	R1323T
1175.693	1.421	1176823	REC_START	n/a	n/a	n/a	-999	9	[0, 0, 0]	n/a	FR1	3	R1323T
1177.114	2.012	1178244	REC_WORD	2.012	n/a	HILL	6	9	[0, 0, 0]	n/a	FR1	3	R1323T
1179.126	26.577	1180256	REC_WORD	26.577	n/a	PORCH	-999	9	[0, 0, 0]	n/a	FR1	3	R1323T
1205.703	0.001	1206832	REC_END	n/a	n/a	n/a	-999	9	[0, 0, 0]	n/a	FR1	3	R1323T
1205.704	0.014	1206833	TRIAL_END	n/a	n/a	n/a	-999	9	[0, 0, 0]	n/a	FR1	3	R1323T
1205.718	0.001	1206847	TRIAL_START	n/a	n/a	n/a	-999	10	[0, 0, 0]	n/a	FR1	3	R1323T
1205.719	0.0	1206848	WAITING_START	n/a	n/a	n/a	-999	10	[0, 0, 0]	n/a	FR1	3	R1323T
1205.719	4.528	1206848	TRIAL	n/a	n/a	n/a	-999	10	[0, 0, 0]	n/a	FR1	3	R1323T
1210.247	0.001	1211376	WAITING_END	n/a	n/a	n/a	-999	10	[0, 0, 0]	n/a	FR1	3	R1323T
1210.248	10.429	1211377	COUNTDOWN_START	n/a	n/a	n/a	-999	10	[0, 0, 0]	n/a	FR1	3	R1323T
1220.677	0.0	1221805	COUNTDOWN_END	n/a	n/a	n/a	-999	10	[0, 0, 0]	n/a	FR1	3	R1323T
1220.677	1.157	1221805	ORIENT_START	n/a	n/a	n/a	-999	10	[0, 0, 0]	n/a	FR1	3	R1323T
1221.834	0.0	1222962	ORIENT_END	n/a	n/a	n/a	-999	10	[0, 0, 0]	n/a	FR1	3	R1323T
1221.834	0.876	1222962	ENCODING_START	n/a	n/a	n/a	-999	10	[0, 0, 0]	n/a	FR1	3	R1323T
1222.71	1.624	1223838	WORD	n/a	n/a	CALF	1	10	[0, 0, 0]	n/a	FR1	3	R1323T
1224.334	0.981	1225462	WORD_OFF	n/a	n/a	CALF	1	10	[0, 0, 0]	n/a	FR1	3	R1323T
1225.315	1.636	1226443	WORD	n/a	n/a	YARD	2	10	[0, 0, 0]	n/a	FR1	3	R1323T
1226.951	1.097	1228079	WORD_OFF	n/a	n/a	YARD	2	10	[0, 0, 0]	n/a	FR1	3	R1323T
1228.048	1.621	1229176	WORD	n/a	n/a	SALT	3	10	[0, 0, 0]	n/a	FR1	3	R1323T
1229.669	1.118	1230797	WORD_OFF	n/a	n/a	SALT	3	10	[0, 0, 0]	n/a	FR1	3	R1323T
1230.787	1.632	1231915	WORD	n/a	n/a	LEAF	4	10	[0, 0, 0]	n/a	FR1	3	R1323T
1232.419	1.115	1233547	WORD_OFF	n/a	n/a	LEAF	4	10	[0, 0, 0]	n/a	FR1	3	R1323T
1233.534	1.635	1234662	WORD	n/a	n/a	GRASS	5	10	[0, 0, 0]	n/a	FR1	3	R1323T
1235.169	0.755	1236297	WORD_OFF	n/a	n/a	GRASS	5	10	[0, 0, 0]	n/a	FR1	3	R1323T
1235.924	1.613	1237052	WORD	n/a	n/a	SNOW	6	10	[0, 0, 0]	n/a	FR1	3	R1323T
1237.537	0.866	1238665	WORD_OFF	n/a	n/a	SNOW	6	10	[0, 0, 0]	n/a	FR1	3	R1323T
1238.403	1.633	1239531	WORD	n/a	n/a	GUARD	7	10	[0, 0, 0]	n/a	FR1	3	R1323T
1240.036	1.055	1241164	WORD_OFF	n/a	n/a	GUARD	7	10	[0, 0, 0]	n/a	FR1	3	R1323T
1241.091	1.613	1242219	WORD	n/a	n/a	GATE	8	10	[0, 0, 0]	n/a	FR1	3	R1323T
1242.704	0.885	1243832	WORD_OFF	n/a	n/a	GATE	8	10	[0, 0, 0]	n/a	FR1	3	R1323T
1243.589	1.632	1244716	WORD	n/a	n/a	MUD	9	10	[0, 0, 0]	n/a	FR1	3	R1323T
1245.221	0.813	1246348	WORD_OFF	n/a	n/a	MUD	9	10	[0, 0, 0]	n/a	FR1	3	R1323T
1246.034	1.638	1247161	WORD	n/a	n/a	ZOO	10	10	[0, 0, 0]	n/a	FR1	3	R1323T
1247.672	0.977	1248799	WORD_OFF	n/a	n/a	ZOO	10	10	[0, 0, 0]	n/a	FR1	3	R1323T
1248.649	1.622	1249776	WORD	n/a	n/a	BOY	11	10	[0, 0, 0]	n/a	FR1	3	R1323T
1250.271	1.028	1251398	WORD_OFF	n/a	n/a	BOY	11	10	[0, 0, 0]	n/a	FR1	3	R1323T
1251.299	1.623	1252426	WORD	n/a	n/a	BROOM	12	10	[0, 0, 0]	n/a	FR1	3	R1323T
1252.922	0.0	1254049	WORD_OFF	n/a	n/a	BROOM	12	10	[0, 0, 0]	n/a	FR1	3	R1323T
1252.922	0.001	1254049	ENCODING_END	n/a	n/a	n/a	-999	10	[0, 0, 0]	n/a	FR1	3	R1323T
1252.923	0.0	1254050	DISTRACT_START	n/a	n/a	n/a	-999	10	[0, 0, 0]	n/a	FR1	3	R1323T
1252.923	0.015	1254050	START	n/a	n/a	n/a	-999	10	[-999, -999, -999]	n/a	FR1	3	R1323T
1252.938	7.052	1254065	PROB	7.052	n/a	n/a	-999	10	[6, 1, 8]	15	FR1	3	R1323T
1259.99	4.535	1261117	PROB	4.535	n/a	n/a	-999	10	[7, 3, 3]	13	FR1	3	R1323T
1264.525	3.783	1265652	PROB	3.783	n/a	n/a	-999	10	[3, 3, 5]	11	FR1	3	R1323T
1268.308	14.745	1269434	PROB	14.745	n/a	n/a	-999	10	[9, 8, 4]	21	FR1	3	R1323T
1283.053	0.008	1284179	STOP	n/a	n/a	n/a	-999	10	[-999, -999, -999]	n/a	FR1	3	R1323T
1283.061	0.692	1284187	DISTRACT_END	n/a	n/a	n/a	-999	10	[0, 0, 0]	n/a	FR1	3	R1323T
1283.753	1.576	1284879	RETRIEVAL_ORIENT_START	n/a	n/a	n/a	-999	10	[0, 0, 0]	n/a	FR1	3	R1323T
1285.329	0.0	1286455	REC_START	n/a	n/a	n/a	-999	10	[0, 0, 0]	n/a	FR1	3	R1323T
1285.329	2.236	1286455	RETRIEVAL_ORIENT_END	n/a	n/a	n/a	-999	10	[0, 0, 0]	n/a	FR1	3	R1323T
1287.565	4.568	1288691	REC_WORD	4.568	n/a	BOY	11	10	[0, 0, 0]	n/a	FR1	3	R1323T
1292.133	0.519	1293258	REC_WORD_VV	0.519	n/a	<>	-999	10	[0, 0, 0]	n/a	FR1	3	R1323T
1292.652	20.674	1293777	REC_WORD	20.674	n/a	GROOM	-999	10	[0, 0, 0]	n/a	FR1	3	R1323T
1313.326	2.015	1314450	REC_WORD	2.015	n/a	YARD	2	10	[0, 0, 0]	n/a	FR1	3	R1323T
1315.341	0.0	1316465	REC_END	n/a	n/a	n/a	-999	10	[0, 0, 0]	n/a	FR1	3	R1323T
1315.341	0.015	1316465	TRIAL_END	n/a	n/a	n/a	-999	10	[0, 0, 0]	n/a	FR1	3	R1323T
1315.356	0.0	1316480	WAITING_START	n/a	n/a	n/a	-999	11	[0, 0, 0]	n/a	FR1	3	R1323T
1315.356	0.0	1316480	TRIAL	n/a	n/a	n/a	-999	11	[0, 0, 0]	n/a	FR1	3	R1323T
1315.356	2.645	1316480	TRIAL_START	n/a	n/a	n/a	-999	11	[0, 0, 0]	n/a	FR1	3	R1323T
1318.001	0.0	1319125	WAITING_END	n/a	n/a	n/a	-999	11	[0, 0, 0]	n/a	FR1	3	R1323T
1318.001	10.429	1319125	COUNTDOWN_START	n/a	n/a	n/a	-999	11	[0, 0, 0]	n/a	FR1	3	R1323T
1328.43	0.0	1329554	COUNTDOWN_END	n/a	n/a	n/a	-999	11	[0, 0, 0]	n/a	FR1	3	R1323T
1328.43	1.14	1329554	ORIENT_START	n/a	n/a	n/a	-999	11	[0, 0, 0]	n/a	FR1	3	R1323T
1329.57	0.0	1330694	ORIENT_END	n/a	n/a	n/a	-999	11	[0, 0, 0]	n/a	FR1	3	R1323T
1329.57	1.077	1330694	ENCODING_START	n/a	n/a	n/a	-999	11	[0, 0, 0]	n/a	FR1	3	R1323T
1330.647	1.623	1331771	WORD	n/a	n/a	GRAPE	1	11	[0, 0, 0]	n/a	FR1	3	R1323T
1332.27	1.055	1333394	WORD_OFF	n/a	n/a	GRAPE	1	11	[0, 0, 0]	n/a	FR1	3	R1323T
1333.325	1.628	1334449	WORD	n/a	n/a	JAR	2	11	[0, 0, 0]	n/a	FR1	3	R1323T
1334.953	1.128	1336077	WORD_OFF	n/a	n/a	JAR	2	11	[0, 0, 0]	n/a	FR1	3	R1323T
1336.081	1.624	1337204	WORD	n/a	n/a	ARK	3	11	[0, 0, 0]	n/a	FR1	3	R1323T
1337.705	0.999	1338828	WORD_OFF	n/a	n/a	ARK	3	11	[0, 0, 0]	n/a	FR1	3	R1323T
1338.704	1.635	1339827	WORD	n/a	n/a	CHIEF	4	11	[0, 0, 0]	n/a	FR1	3	R1323T
1340.339	0.921	1341462	WORD_OFF	n/a	n/a	CHIEF	4	11	[0, 0, 0]	n/a	FR1	3	R1323T
1341.26	1.628	1342383	WORD	n/a	n/a	SHIELD	5	11	[0, 0, 0]	n/a	FR1	3	R1323T
1342.888	0.907	1344011	WORD_OFF	n/a	n/a	SHIELD	5	11	[0, 0, 0]	n/a	FR1	3	R1323T
1343.795	1.628	1344918	WORD	n/a	n/a	RIB	6	11	[0, 0, 0]	n/a	FR1	3	R1323T
1345.423	1.006	1346546	WORD_OFF	n/a	n/a	RIB	6	11	[0, 0, 0]	n/a	FR1	3	R1323T
1346.429	1.627	1347552	WORD	n/a	n/a	STORM	7	11	[0, 0, 0]	n/a	FR1	3	R1323T
1348.056	1.147	1349179	WORD_OFF	n/a	n/a	STORM	7	11	[0, 0, 0]	n/a	FR1	3	R1323T
1349.203	1.638	1350326	WORD	n/a	n/a	PIG	8	11	[0, 0, 0]	n/a	FR1	3	R1323T
1350.841	0.991	1351964	WORD_OFF	n/a	n/a	PIG	8	11	[0, 0, 0]	n/a	FR1	3	R1323T
1351.832	1.626	1352955	WORD	n/a	n/a	STAR	9	11	[0, 0, 0]	n/a	FR1	3	R1323T
1353.458	0.852	1354581	WORD_OFF	n/a	n/a	STAR	9	11	[0, 0, 0]	n/a	FR1	3	R1323T
1354.31	1.631	1355433	WORD	n/a	n/a	HOLE	10	11	[0, 0, 0]	n/a	FR1	3	R1323T
1355.941	1.125	1357064	WORD_OFF	n/a	n/a	HOLE	10	11	[0, 0, 0]	n/a	FR1	3	R1323T
1357.066	1.626	1358189	WORD	n/a	n/a	CORD	11	11	[0, 0, 0]	n/a	FR1	3	R1323T
1358.692	0.938	1359814	WORD_OFF	n/a	n/a	CORD	11	11	[0, 0, 0]	n/a	FR1	3	R1323T
1359.63	1.628	1360752	WORD	n/a	n/a	SOCK	12	11	[0, 0, 0]	n/a	FR1	3	R1323T
1361.258	0.001	1362380	WORD_OFF	n/a	n/a	SOCK	12	11	[0, 0, 0]	n/a	FR1	3	R1323T
1361.259	0.0	1362381	ENCODING_END	n/a	n/a	n/a	-999	11	[0, 0, 0]	n/a	FR1	3	R1323T
1361.259	0.0	1362381	DISTRACT_START	n/a	n/a	n/a	-999	11	[0, 0, 0]	n/a	FR1	3	R1323T
1361.259	0.016	1362381	START	n/a	n/a	n/a	-999	11	[-999, -999, -999]	n/a	FR1	3	R1323T
1361.275	6.319	1362397	PROB	6.319	n/a	n/a	-999	11	[9, 9, 5]	23	FR1	3	R1323T
1367.594	7.35	1368716	PROB	7.35	n/a	n/a	-999	11	[5, 4, 7]	16	FR1	3	R1323T
1374.944	4.618	1376066	PROB	4.618	n/a	n/a	-999	11	[4, 4, 2]	10	FR1	3	R1323T
1379.562	5.698	1380684	PROB	5.698	n/a	n/a	-999	11	[3, 7, 1]	11	FR1	3	R1323T
1385.26	0.019	1386381	STOP	n/a	n/a	n/a	-999	11	[-999, -999, -999]	n/a	FR1	3	R1323T
1385.279	0.644	1386400	DISTRACT_END	n/a	n/a	n/a	-999	11	[0, 0, 0]	n/a	FR1	3	R1323T
1385.923	1.708	1387044	RETRIEVAL_ORIENT_START	n/a	n/a	n/a	-999	11	[0, 0, 0]	n/a	FR1	3	R1323T
1387.631	0.0	1388752	RETRIEVAL_ORIENT_END	n/a	n/a	n/a	-999	11	[0, 0, 0]	n/a	FR1	3	R1323T
1387.631	1.163	1388752	REC_START	n/a	n/a	n/a	-999	11	[0, 0, 0]	n/a	FR1	3	R1323T
1388.794	1.193	1389915	REC_WORD	1.193	n/a	YARD	-999	11	[0, 0, 0]	n/a	FR1	3	R1323T
1389.987	1.892	1391108	REC_WORD	1.892	n/a	HOLE	10	11	[0, 0, 0]	n/a	FR1	3	R1323T
1391.879	13.259	1393000	REC_WORD	13.259	n/a	STAR	9	11	[0, 0, 0]	n/a	FR1	3	R1323T
1405.138	4.759	1406258	REC_WORD	4.759	n/a	ARK	3	11	[0, 0, 0]	n/a	FR1	3	R1323T
1409.897	7.747	1411017	REC_WORD	7.747	n/a	OAR	-999	11	[0, 0, 0]	n/a	FR1	3	R1323T
1417.644	0.0	1418764	REC_END	n/a	n/a	n/a	-999	11	[0, 0, 0]	n/a	FR1	3	R1323T
1417.644	0.015	1418764	TRIAL_END	n/a	n/a	n/a	-999	11	[0, 0, 0]	n/a	FR1	3	R1323T
1417.659	0.0	1418779	TRIAL_START	n/a	n/a	n/a	-999	12	[0, 0, 0]	n/a	FR1	3	R1323T
1417.659	0.0	1418779	TRIAL	n/a	n/a	n/a	-999	12	[0, 0, 0]	n/a	FR1	3	R1323T
1417.659	2.527	1418779	WAITING_START	n/a	n/a	n/a	-999	12	[0, 0, 0]	n/a	FR1	3	R1323T
1420.186	0.0	1421306	COUNTDOWN_START	n/a	n/a	n/a	-999	12	[0, 0, 0]	n/a	FR1	3	R1323T
1420.186	10.429	1421306	WAITING_END	n/a	n/a	n/a	-999	12	[0, 0, 0]	n/a	FR1	3	R1323T
1430.615	0.0	1431734	COUNTDOWN_END	n/a	n/a	n/a	-999	12	[0, 0, 0]	n/a	FR1	3	R1323T
1430.615	1.04	1431734	ORIENT_START	n/a	n/a	n/a	-999	12	[0, 0, 0]	n/a	FR1	3	R1323T
1431.655	0.001	1432774	ORIENT_END	n/a	n/a	n/a	-999	12	[0, 0, 0]	n/a	FR1	3	R1323T
1431.656	1.018	1432775	ENCODING_START	n/a	n/a	n/a	-999	12	[0, 0, 0]	n/a	FR1	3	R1323T
1432.674	1.631	1433793	WORD	n/a	n/a	EGG	1	12	[0, 0, 0]	n/a	FR1	3	R1323T
1434.305	1.096	1435424	WORD_OFF	n/a	n/a	EGG	1	12	[0, 0, 0]	n/a	FR1	3	R1323T
1435.401	1.621	1436520	WORD	n/a	n/a	TREE	2	12	[0, 0, 0]	n/a	FR1	3	R1323T
1437.022	1.138	1438141	WORD_OFF	n/a	n/a	TREE	2	12	[0, 0, 0]	n/a	FR1	3	R1323T
1438.16	1.63	1439279	WORD	n/a	n/a	FOOT	3	12	[0, 0, 0]	n/a	FR1	3	R1323T
1439.79	0.799	1440909	WORD_OFF	n/a	n/a	FOOT	3	12	[0, 0, 0]	n/a	FR1	3	R1323T
1440.589	1.634	1441708	WORD	n/a	n/a	NOSE	4	12	[0, 0, 0]	n/a	FR1	3	R1323T
1442.223	0.915	1443342	WORD_OFF	n/a	n/a	NOSE	4	12	[0, 0, 0]	n/a	FR1	3	R1323T
1443.138	1.619	1444257	WORD	n/a	n/a	WALL	5	12	[0, 0, 0]	n/a	FR1	3	R1323T
1444.757	1.046	1445876	WORD_OFF	n/a	n/a	WALL	5	12	[0, 0, 0]	n/a	FR1	3	R1323T
1445.803	1.622	1446922	WORD	n/a	n/a	STEM	6	12	[0, 0, 0]	n/a	FR1	3	R1323T
1447.425	0.816	1448544	WORD_OFF	n/a	n/a	STEM	6	12	[0, 0, 0]	n/a	FR1	3	R1323T
1448.241	1.618	1449360	WORD	n/a	n/a	SLIME	7	12	[0, 0, 0]	n/a	FR1	3	R1323T
1449.859	0.982	1450978	WORD_OFF	n/a	n/a	SLIME	7	12	[0, 0, 0]	n/a	FR1	3	R1323T
1450.841	1.635	1451959	WORD	n/a	n/a	BANK	8	12	[0, 0, 0]	n/a	FR1	3	R1323T
1452.476	0.832	1453594	WORD_OFF	n/a	n/a	BANK	8	12	[0, 0, 0]	n/a	FR1	3	R1323T
1453.308	1.634	1454426	WORD	n/a	n/a	HOSE	9	12	[0, 0, 0]	n/a	FR1	3	R1323T
1454.942	1.026	1456060	WORD_OFF	n/a	n/a	HOSE	9	12	[0, 0, 0]	n/a	FR1	3	R1323T
1455.968	1.625	1457086	WORD	n/a	n/a	STOVE	10	12	[0, 0, 0]	n/a	FR1	3	R1323T
1457.593	0.892	1458711	WORD_OFF	n/a	n/a	STOVE	10	12	[0, 0, 0]	n/a	FR1	3	R1323T
1458.485	1.625	1459603	WORD	n/a	n/a	BED	11	12	[0, 0, 0]	n/a	FR1	3	R1323T
1460.11	1.076	1461228	WORD_OFF	n/a	n/a	BED	11	12	[0, 0, 0]	n/a	FR1	3	R1323T
1461.186	1.625	1462304	WORD	n/a	n/a	CHALK	12	12	[0, 0, 0]	n/a	FR1	3	R1323T
1462.811	0.001	1463929	WORD_OFF	n/a	n/a	CHALK	12	12	[0, 0, 0]	n/a	FR1	3	R1323T
1462.812	0.0	1463930	ENCODING_END	n/a	n/a	n/a	-999	12	[0, 0, 0]	n/a	FR1	3	R1323T
1462.812	0.0	1463930	DISTRACT_START	n/a	n/a	n/a	-999	12	[0, 0, 0]	n/a	FR1	3	R1323T
1462.812	0.015	1463930	START	n/a	n/a	n/a	-999	12	[-999, -999, -999]	n/a	FR1	3	R1323T
1462.827	3.768	1463945	PROB	3.768	n/a	n/a	-999	12	[8, 8, 8]	24	FR1	3	R1323T
1466.595	3.134	1467713	PROB	3.134	n/a	n/a	-999	12	[2, 2, 1]	5	FR1	3	R1323T
1469.729	6.183	1470847	PROB	6.183	n/a	n/a	-999	12	[4, 1, 8]	13	FR1	3	R1323T
1475.912	3.585	1477029	PROB	3.585	n/a	n/a	-999	12	[5, 1, 6]	12	FR1	3	R1323T
1479.497	3.344	1480614	PROB	3.344	n/a	n/a	-999	12	[8, 1, 1]	10	FR1	3	R1323T
1482.841	0.007	1483958	STOP	n/a	n/a	n/a	-999	12	[-999, -999, -999]	n/a	FR1	3	R1323T
1482.848	0.642	1483965	DISTRACT_END	n/a	n/a	n/a	-999	12	[0, 0, 0]	n/a	FR1	3	R1323T
1483.49	1.624	1484607	RETRIEVAL_ORIENT_START	n/a	n/a	n/a	-999	12	[0, 0, 0]	n/a	FR1	3	R1323T
1485.114	0.0	1486231	RETRIEVAL_ORIENT_END	n/a	n/a	n/a	-999	12	[0, 0, 0]	n/a	FR1	3	R1323T
1485.114	2.662	1486231	REC_START	n/a	n/a	n/a	-999	12	[0, 0, 0]	n/a	FR1	3	R1323T
1487.776	1.672	1488893	REC_WORD	1.672	n/a	YARD	-999	12	[0, 0, 0]	n/a	FR1	3	R1323T
1489.448	5.041	1490565	REC_WORD	5.041	n/a	EGG	1	12	[0, 0, 0]	n/a	FR1	3	R1323T
1494.489	20.637	1495606	REC_WORD	20.637	n/a	STAR	-999	12	[0, 0, 0]	n/a	FR1	3	R1323T
1515.126	0.0	1516242	REC_END	n/a	n/a	n/a	-999	12	[0, 0, 0]	n/a	FR1	3	R1323T
1515.126	0.014	1516242	TRIAL_END	n/a	n/a	n/a	-999	12	[0, 0, 0]	n/a	FR1	3	R1323T
1515.14	0.001	1516256	TRIAL_START	n/a	n/a	n/a	-999	13	[0, 0, 0]	n/a	FR1	3	R1323T
1515.141	0.0	1516257	TRIAL	n/a	n/a	n/a	-999	13	[0, 0, 0]	n/a	FR1	3	R1323T
1515.141	3.863	1516257	WAITING_START	n/a	n/a	n/a	-999	13	[0, 0, 0]	n/a	FR1	3	R1323T
1519.004	0.0	1520120	WAITING_END	n/a	n/a	n/a	-999	13	[0, 0, 0]	n/a	FR1	3	R1323T
1519.004	10.429	1520120	COUNTDOWN_START	n/a	n/a	n/a	-999	13	[0, 0, 0]	n/a	FR1	3	R1323T
1529.433	0.0	1530548	ORIENT_START	n/a	n/a	n/a	-999	13	[0, 0, 0]	n/a	FR1	3	R1323T
1529.433	1.09	1530548	COUNTDOWN_END	n/a	n/a	n/a	-999	13	[0, 0, 0]	n/a	FR1	3	R1323T
1530.523	0.001	1531638	ORIENT_END	n/a	n/a	n/a	-999	13	[0, 0, 0]	n/a	FR1	3	R1323T
1530.524	1.011	1531639	ENCODING_START	n/a	n/a	n/a	-999	13	[0, 0, 0]	n/a	FR1	3	R1323T
1531.535	1.621	1532650	WORD	n/a	n/a	PURSE	1	13	[0, 0, 0]	n/a	FR1	3	R1323T
1533.156	0.971	1534271	WORD_OFF	n/a	n/a	PURSE	1	13	[0, 0, 0]	n/a	FR1	3	R1323T
1534.127	1.614	1535242	WORD	n/a	n/a	PEACH	2	13	[0, 0, 0]	n/a	FR1	3	R1323T
1535.741	0.88	1536856	WORD_OFF	n/a	n/a	PEACH	2	13	[0, 0, 0]	n/a	FR1	3	R1323T
1536.621	1.636	1537736	WORD	n/a	n/a	PEA	3	13	[0, 0, 0]	n/a	FR1	3	R1323T
1538.257	0.924	1539372	WORD_OFF	n/a	n/a	PEA	3	13	[0, 0, 0]	n/a	FR1	3	R1323T
1539.181	1.611	1540296	WORD	n/a	n/a	SHIP	4	13	[0, 0, 0]	n/a	FR1	3	R1323T
1540.792	1.102	1541907	WORD_OFF	n/a	n/a	SHIP	4	13	[0, 0, 0]	n/a	FR1	3	R1323T
1541.894	1.632	1543009	WORD	n/a	n/a	FOG	5	13	[0, 0, 0]	n/a	FR1	3	R1323T
1543.526	1.014	1544640	WORD_OFF	n/a	n/a	FOG	5	13	[0, 0, 0]	n/a	FR1	3	R1323T
1544.54	1.635	1545654	WORD	n/a	n/a	SIGN	6	13	[0, 0, 0]	n/a	FR1	3	R1323T
1546.175	0.825	1547289	WORD_OFF	n/a	n/a	SIGN	6	13	[0, 0, 0]	n/a	FR1	3	R1323T
1547.0	1.61	1548114	WORD	n/a	n/a	FORT	7	13	[0, 0, 0]	n/a	FR1	3	R1323T
1548.61	0.971	1549724	WORD_OFF	n/a	n/a	FORT	7	13	[0, 0, 0]	n/a	FR1	3	R1323T
1549.581	1.628	1550695	WORD	n/a	n/a	LAKE	8	13	[0, 0, 0]	n/a	FR1	3	R1323T
1551.209	1.008	1552323	WORD_OFF	n/a	n/a	LAKE	8	13	[0, 0, 0]	n/a	FR1	3	R1323T
1552.217	1.627	1553331	WORD	n/a	n/a	SWORD	9	13	[0, 0, 0]	n/a	FR1	3	R1323T
1553.844	0.846	1554958	WORD_OFF	n/a	n/a	SWORD	9	13	[0, 0, 0]	n/a	FR1	3	R1323T
1554.69	1.62	1555804	WORD	n/a	n/a	CASH	10	13	[0, 0, 0]	n/a	FR1	3	R1323T
1556.31	1.06	1557424	WORD_OFF	n/a	n/a	CASH	10	13	[0, 0, 0]	n/a	FR1	3	R1323T
1557.37	1.624	1558484	WORD	n/a	n/a	WING	11	13	[0, 0, 0]	n/a	FR1	3	R1323T
1558.994	0.804	1560108	WORD_OFF	n/a	n/a	WING	11	13	[0, 0, 0]	n/a	FR1	3	R1323T
1559.798	1.631	1560912	WORD	n/a	n/a	ROOT	12	13	[0, 0, 0]	n/a	FR1	3	R1323T
1561.429	0.001	1562543	WORD_OFF	n/a	n/a	ROOT	12	13	[0, 0, 0]	n/a	FR1	3	R1323T
1561.43	0.0	1562544	ENCODING_END	n/a	n/a	n/a	-999	13	[0, 0, 0]	n/a	FR1	3	R1323T
1561.43	0.0	1562544	DISTRACT_START	n/a	n/a	n/a	-999	13	[0, 0, 0]	n/a	FR1	3	R1323T
1561.43	0.015	1562544	START	n/a	n/a	n/a	-999	13	[-999, -999, -999]	n/a	FR1	3	R1323T
1561.445	4.75	1562559	PROB	4.75	n/a	n/a	-999	13	[3, 7, 6]	16	FR1	3	R1323T
1566.195	4.635	1567308	PROB	4.635	n/a	n/a	-999	13	[2, 2, 9]	13	FR1	3	R1323T
1570.83	3.734	1571943	PROB	3.734	n/a	n/a	-999	13	[2, 2, 8]	12	FR1	3	R1323T
1574.564	9.001	1575677	PROB	9.001	n/a	n/a	-999	13	[7, 2, 6]	15	FR1	3	R1323T
1583.565	0.018	1584678	STOP	n/a	n/a	n/a	-999	13	[-999, -999, -999]	n/a	FR1	3	R1323T
1583.583	0.696	1584696	DISTRACT_END	n/a	n/a	n/a	-999	13	[0, 0, 0]	n/a	FR1	3	R1323T
1584.279	1.586	1585392	RETRIEVAL_ORIENT_START	n/a	n/a	n/a	-999	13	[0, 0, 0]	n/a	FR1	3	R1323T
1585.865	0.001	1586978	RETRIEVAL_ORIENT_END	n/a	n/a	n/a	-999	13	[0, 0, 0]	n/a	FR1	3	R1323T
1585.866	0.712	1586979	REC_START	n/a	n/a	n/a	-999	13	[0, 0, 0]	n/a	FR1	3	R1323T
1586.578	0.974	1587691	REC_WORD	0.974	n/a	SWORD	9	13	[0, 0, 0]	n/a	FR1	3	R1323T
1587.552	2.245	1588665	REC_WORD_VV	2.245	n/a	<>	-999	13	[0, 0, 0]	n/a	FR1	3	R1323T
1589.797	11.017	1590909	REC_WORD	11.017	n/a	PEA	3	13	[0, 0, 0]	n/a	FR1	3	R1323T
1600.814	8.821	1601926	REC_WORD	8.821	n/a	PAINT	-999	13	[0, 0, 0]	n/a	FR1	3	R1323T
1609.635	6.241	1610747	REC_WORD	6.241	n/a	PEA	3	13	[0, 0, 0]	n/a	FR1	3	R1323T
1615.876	0.0	1616987	REC_END	n/a	n/a	n/a	-999	13	[0, 0, 0]	n/a	FR1	3	R1323T
1615.876	0.017	1616987	TRIAL_END	n/a	n/a	n/a	-999	13	[0, 0, 0]	n/a	FR1	3	R1323T
1615.893	0.0	1617004	TRIAL_START	n/a	n/a	n/a	-999	14	[0, 0, 0]	n/a	FR1	3	R1323T
1615.893	0.0	1617004	TRIAL	n/a	n/a	n/a	-999	14	[0, 0, 0]	n/a	FR1	3	R1323T
1615.893	16.331	1617004	WAITING_START	n/a	n/a	n/a	-999	14	[0, 0, 0]	n/a	FR1	3	R1323T
1632.224	0.001	1633335	WAITING_END	n/a	n/a	n/a	-999	14	[0, 0, 0]	n/a	FR1	3	R1323T
1632.225	10.428	1633336	COUNTDOWN_START	n/a	n/a	n/a	-999	14	[0, 0, 0]	n/a	FR1	3	R1323T
1642.653	0.001	1643763	COUNTDOWN_END	n/a	n/a	n/a	-999	14	[0, 0, 0]	n/a	FR1	3	R1323T
1642.654	1.14	1643764	ORIENT_START	n/a	n/a	n/a	-999	14	[0, 0, 0]	n/a	FR1	3	R1323T
1643.794	0.0	1644904	ORIENT_END	n/a	n/a	n/a	-999	14	[0, 0, 0]	n/a	FR1	3	R1323T
1643.794	1.049	1644904	ENCODING_START	n/a	n/a	n/a	-999	14	[0, 0, 0]	n/a	FR1	3	R1323T
1644.843	1.635	1645953	WORD	n/a	n/a	MOOSE	1	14	[0, 0, 0]	n/a	FR1	3	R1323T
1646.478	0.92	1647588	WORD_OFF	n/a	n/a	MOOSE	1	14	[0, 0, 0]	n/a	FR1	3	R1323T
1647.398	1.629	1648508	WORD	n/a	n/a	SOUP	2	14	[0, 0, 0]	n/a	FR1	3	R1323T
1649.027	1.078	1650137	WORD_OFF	n/a	n/a	SOUP	2	14	[0, 0, 0]	n/a	FR1	3	R1323T
1650.105	1.607	1651215	WORD	n/a	n/a	AXE	3	14	[0, 0, 0]	n/a	FR1	3	R1323T
1651.712	1.084	1652822	WORD_OFF	n/a	n/a	AXE	3	14	[0, 0, 0]	n/a	FR1	3	R1323T
1652.796	1.633	1653906	WORD	n/a	n/a	RAIN	4	14	[0, 0, 0]	n/a	FR1	3	R1323T
1654.429	0.762	1655539	WORD_OFF	n/a	n/a	RAIN	4	14	[0, 0, 0]	n/a	FR1	3	R1323T
1655.191	1.622	1656301	WORD	n/a	n/a	HORSE	5	14	[0, 0, 0]	n/a	FR1	3	R1323T
1656.813	1.124	1657923	WORD_OFF	n/a	n/a	HORSE	5	14	[0, 0, 0]	n/a	FR1	3	R1323T
1657.937	1.61	1659046	WORD	n/a	n/a	BAND	6	14	[0, 0, 0]	n/a	FR1	3	R1323T
1659.547	1.126	1660656	WORD_OFF	n/a	n/a	BAND	6	14	[0, 0, 0]	n/a	FR1	3	R1323T
1660.673	1.623	1661782	WORD	n/a	n/a	POLE	7	14	[0, 0, 0]	n/a	FR1	3	R1323T
1662.296	0.807	1663405	WORD_OFF	n/a	n/a	POLE	7	14	[0, 0, 0]	n/a	FR1	3	R1323T
1663.103	1.628	1664212	WORD	n/a	n/a	DRUM	8	14	[0, 0, 0]	n/a	FR1	3	R1323T
1664.731	1.076	1665840	WORD_OFF	n/a	n/a	DRUM	8	14	[0, 0, 0]	n/a	FR1	3	R1323T
1665.807	1.624	1666916	WORD	n/a	n/a	FAN	9	14	[0, 0, 0]	n/a	FR1	3	R1323T
1667.431	0.958	1668540	WORD_OFF	n/a	n/a	FAN	9	14	[0, 0, 0]	n/a	FR1	3	R1323T
1668.389	1.625	1669498	WORD	n/a	n/a	STREET	10	14	[0, 0, 0]	n/a	FR1	3	R1323T
1670.014	1.13	1671123	WORD_OFF	n/a	n/a	STREET	10	14	[0, 0, 0]	n/a	FR1	3	R1323T
1671.144	1.622	1672253	WORD	n/a	n/a	MOLE	11	14	[0, 0, 0]	n/a	FR1	3	R1323T
1672.766	0.999	1673875	WORD_OFF	n/a	n/a	MOLE	11	14	[0, 0, 0]	n/a	FR1	3	R1323T
1673.765	1.635	1674874	WORD	n/a	n/a	LEG	12	14	[0, 0, 0]	n/a	FR1	3	R1323T
1675.4	0.0	1676509	DISTRACT_START	n/a	n/a	n/a	-999	14	[0, 0, 0]	n/a	FR1	3	R1323T
1675.4	0.0	1676509	WORD_OFF	n/a	n/a	LEG	12	14	[0, 0, 0]	n/a	FR1	3	R1323T
1675.4	0.0	1676509	ENCODING_END	n/a	n/a	n/a	-999	14	[0, 0, 0]	n/a	FR1	3	R1323T
1675.4	0.016	1676509	START	n/a	n/a	n/a	-999	14	[-999, -999, -999]	n/a	FR1	3	R1323T
1675.416	6.285	1676525	PROB	6.285	n/a	n/a	-999	14	[1, 9, 7]	17	FR1	3	R1323T
1681.701	6.134	1682809	PROB	6.134	n/a	n/a	-999	14	[2, 8, 2]	12	FR1	3	R1323T
1687.835	6.985	1688943	PROB	6.985	n/a	n/a	-999	14	[2, 9, 3]	15	FR1	3	R1323T
1694.82	4.794	1695928	PROB	4.794	n/a	n/a	-999	14	[6, 3, 1]	10	FR1	3	R1323T
1699.614	0.007	1700722	STOP	n/a	n/a	n/a	-999	14	[-999, -999, -999]	n/a	FR1	3	R1323T
1699.621	0.639	1700729	DISTRACT_END	n/a	n/a	n/a	-999	14	[0, 0, 0]	n/a	FR1	3	R1323T
1700.26	1.627	1701368	RETRIEVAL_ORIENT_START	n/a	n/a	n/a	-999	14	[0, 0, 0]	n/a	FR1	3	R1323T
1701.887	0.0	1702995	RETRIEVAL_ORIENT_END	n/a	n/a	n/a	-999	14	[0, 0, 0]	n/a	FR1	3	R1323T
1701.887	2.211	1702995	REC_START	n/a	n/a	n/a	-999	14	[0, 0, 0]	n/a	FR1	3	R1323T
1704.098	0.819	1705205	REC_WORD	0.819	n/a	POLE	7	14	[0, 0, 0]	n/a	FR1	3	R1323T
1704.917	22.914	1706024	REC_WORD_VV	22.914	n/a	<>	-999	14	[0, 0, 0]	n/a	FR1	3	R1323T
1727.831	4.069	1728937	REC_WORD	4.069	n/a	WORK	-999	14	[0, 0, 0]	n/a	FR1	3	R1323T
1731.9	0.001	1733006	REC_END	n/a	n/a	n/a	-999	14	[0, 0, 0]	n/a	FR1	3	R1323T
1731.901	0.014	1733007	TRIAL_END	n/a	n/a	n/a	-999	14	[0, 0, 0]	n/a	FR1	3	R1323T
1731.915	0.001	1733021	TRIAL_START	n/a	n/a	n/a	-999	15	[0, 0, 0]	n/a	FR1	3	R1323T
1731.916	0.0	1733022	TRIAL	n/a	n/a	n/a	-999	15	[0, 0, 0]	n/a	FR1	3	R1323T
1731.916	3.093	1733022	WAITING_START	n/a	n/a	n/a	-999	15	[0, 0, 0]	n/a	FR1	3	R1323T
1735.009	0.001	1736115	WAITING_END	n/a	n/a	n/a	-999	15	[0, 0, 0]	n/a	FR1	3	R1323T
1735.01	10.429	1736116	COUNTDOWN_START	n/a	n/a	n/a	-999	15	[0, 0, 0]	n/a	FR1	3	R1323T
1745.439	0.0	1746545	ORIENT_START	n/a	n/a	n/a	-999	15	[0, 0, 0]	n/a	FR1	3	R1323T
1745.439	1.023	1746545	COUNTDOWN_END	n/a	n/a	n/a	-999	15	[0, 0, 0]	n/a	FR1	3	R1323T
1746.462	0.001	1747568	ORIENT_END	n/a	n/a	n/a	-999	15	[0, 0, 0]	n/a	FR1	3	R1323T
1746.463	0.903	1747569	ENCODING_START	n/a	n/a	n/a	-999	15	[0, 0, 0]	n/a	FR1	3	R1323T
1747.366	1.629	1748472	WORD	n/a	n/a	TOE	1	15	[0, 0, 0]	n/a	FR1	3	R1323T
1748.995	1.12	1750100	WORD_OFF	n/a	n/a	TOE	1	15	[0, 0, 0]	n/a	FR1	3	R1323T
1750.115	1.632	1751220	WORD	n/a	n/a	BOWL	2	15	[0, 0, 0]	n/a	FR1	3	R1323T
1751.747	1.02	1752852	WORD_OFF	n/a	n/a	BOWL	2	15	[0, 0, 0]	n/a	FR1	3	R1323T
1752.767	1.63	1753872	WORD	n/a	n/a	VASE	3	15	[0, 0, 0]	n/a	FR1	3	R1323T
1754.397	0.934	1755502	WORD_OFF	n/a	n/a	VASE	3	15	[0, 0, 0]	n/a	FR1	3	R1323T
1755.331	1.632	1756436	WORD	n/a	n/a	DOCK	4	15	[0, 0, 0]	n/a	FR1	3	R1323T
1756.963	0.832	1758068	WORD_OFF	n/a	n/a	DOCK	4	15	[0, 0, 0]	n/a	FR1	3	R1323T
1757.795	1.637	1758900	WORD	n/a	n/a	BALL	5	15	[0, 0, 0]	n/a	FR1	3	R1323T
1759.432	1.048	1760537	WORD_OFF	n/a	n/a	BALL	5	15	[0, 0, 0]	n/a	FR1	3	R1323T
1760.48	1.634	1761585	WORD	n/a	n/a	SMOKE	6	15	[0, 0, 0]	n/a	FR1	3	R1323T
1762.114	0.845	1763219	WORD_OFF	n/a	n/a	SMOKE	6	15	[0, 0, 0]	n/a	FR1	3	R1323T
1762.959	1.623	1764064	WORD	n/a	n/a	CUP	7	15	[0, 0, 0]	n/a	FR1	3	R1323T
1764.582	1.048	1765687	WORD_OFF	n/a	n/a	CUP	7	15	[0, 0, 0]	n/a	FR1	3	R1323T
1765.63	1.635	1766735	WORD	n/a	n/a	TANK	8	15	[0, 0, 0]	n/a	FR1	3	R1323T
1767.265	0.824	1768370	WORD_OFF	n/a	n/a	TANK	8	15	[0, 0, 0]	n/a	FR1	3	R1323T
1768.089	1.611	1769194	WORD	n/a	n/a	GOLD	9	15	[0, 0, 0]	n/a	FR1	3	R1323T
1769.7	0.862	1770805	WORD_OFF	n/a	n/a	GOLD	9	15	[0, 0, 0]	n/a	FR1	3	R1323T
1770.562	1.621	1771667	WORD	n/a	n/a	LIP	10	15	[0, 0, 0]	n/a	FR1	3	R1323T
1772.183	0.806	1773287	WORD_OFF	n/a	n/a	LIP	10	15	[0, 0, 0]	n/a	FR1	3	R1323T
1772.989	1.612	1774093	WORD	n/a	n/a	BOMB	11	15	[0, 0, 0]	n/a	FR1	3	R1323T
1774.601	1.139	1775705	WORD_OFF	n/a	n/a	BOMB	11	15	[0, 0, 0]	n/a	FR1	3	R1323T
1775.74	1.628	1776844	WORD	n/a	n/a	MILK	12	15	[0, 0, 0]	n/a	FR1	3	R1323T
1777.368	0.0	1778472	WORD_OFF	n/a	n/a	MILK	12	15	[0, 0, 0]	n/a	FR1	3	R1323T
1777.368	0.001	1778472	ENCODING_END	n/a	n/a	n/a	-999	15	[0, 0, 0]	n/a	FR1	3	R1323T
1777.369	0.0	1778473	DISTRACT_START	n/a	n/a	n/a	-999	15	[0, 0, 0]	n/a	FR1	3	R1323T
1777.369	0.016	1778473	START	n/a	n/a	n/a	-999	15	[-999, -999, -999]	n/a	FR1	3	R1323T
1777.385	4.583	1778489	PROB	4.583	n/a	n/a	-999	15	[6, 2, 6]	14	FR1	3	R1323T
1781.968	5.067	1783072	PROB	5.067	n/a	n/a	-999	15	[2, 5, 7]	14	FR1	3	R1323T
1787.035	5.035	1788139	PROB	5.035	n/a	n/a	-999	15	[4, 7, 3]	14	FR1	3	R1323T
1792.07	5.234	1793174	PROB	5.234	n/a	n/a	-999	15	[1, 4, 7]	12	FR1	3	R1323T
1797.304	4.739	1798407	PROB	4.739	n/a	n/a	-999	15	[4, 7, 3]	14	FR1	3	R1323T
1802.043	0.012	1803146	STOP	n/a	n/a	n/a	-999	15	[-999, -999, -999]	n/a	FR1	3	R1323T
1802.055	0.678	1803158	DISTRACT_END	n/a	n/a	n/a	-999	15	[0, 0, 0]	n/a	FR1	3	R1323T
1802.733	1.539	1803836	RETRIEVAL_ORIENT_START	n/a	n/a	n/a	-999	15	[0, 0, 0]	n/a	FR1	3	R1323T
1804.272	0.0	1805375	RETRIEVAL_ORIENT_END	n/a	n/a	n/a	-999	15	[0, 0, 0]	n/a	FR1	3	R1323T
1804.272	1.043	1805375	REC_START	n/a	n/a	n/a	-999	15	[0, 0, 0]	n/a	FR1	3	R1323T
1805.315	1.621	1806418	REC_WORD	1.621	n/a	BOWL	2	15	[0, 0, 0]	n/a	FR1	3	R1323T
1806.936	3.66	1808039	REC_WORD	3.66	n/a	FACE	-999	15	[0, 0, 0]	n/a	FR1	3	R1323T
1810.596	1.4	1811699	REC_WORD	1.4	n/a	YARD	-999	15	[0, 0, 0]	n/a	FR1	3	R1323T
1811.996	15.07	1813099	REC_WORD	15.07	n/a	WORK	-999	15	[0, 0, 0]	n/a	FR1	3	R1323T
1827.066	7.219	1828168	REC_WORD	7.219	n/a	PIN	-999	15	[0, 0, 0]	n/a	FR1	3	R1323T
1834.285	0.0	1835387	REC_END	n/a	n/a	n/a	-999	15	[0, 0, 0]	n/a	FR1	3	R1323T
1834.285	0.017	1835387	TRIAL_END	n/a	n/a	n/a	-999	15	[0, 0, 0]	n/a	FR1	3	R1323T
1834.302	0.0	1835404	TRIAL_START	n/a	n/a	n/a	-999	16	[0, 0, 0]	n/a	FR1	3	R1323T
1834.302	0.0	1835404	TRIAL	n/a	n/a	n/a	-999	16	[0, 0, 0]	n/a	FR1	3	R1323T
1834.302	3.61	1835404	WAITING_START	n/a	n/a	n/a	-999	16	[0, 0, 0]	n/a	FR1	3	R1323T
1837.912	0.0	1839014	WAITING_END	n/a	n/a	n/a	-999	16	[0, 0, 0]	n/a	FR1	3	R1323T
1837.912	10.428	1839014	COUNTDOWN_START	n/a	n/a	n/a	-999	16	[0, 0, 0]	n/a	FR1	3	R1323T
1848.34	0.0	1849441	COUNTDOWN_END	n/a	n/a	n/a	-999	16	[0, 0, 0]	n/a	FR1	3	R1323T
1848.34	1.025	1849441	ORIENT_START	n/a	n/a	n/a	-999	16	[0, 0, 0]	n/a	FR1	3	R1323T
1849.365	0.0	1850466	ENCODING_START	n/a	n/a	n/a	-999	16	[0, 0, 0]	n/a	FR1	3	R1323T
1849.365	0.932	1850466	ORIENT_END	n/a	n/a	n/a	-999	16	[0, 0, 0]	n/a	FR1	3	R1323T
1850.297	1.634	1851398	WORD	n/a	n/a	TRAIN	1	16	[0, 0, 0]	n/a	FR1	3	R1323T
1851.931	0.851	1853032	WORD_OFF	n/a	n/a	TRAIN	1	16	[0, 0, 0]	n/a	FR1	3	R1323T
1852.782	1.634	1853883	WORD	n/a	n/a	PRINCE	2	16	[0, 0, 0]	n/a	FR1	3	R1323T
1854.416	0.768	1855517	WORD_OFF	n/a	n/a	PRINCE	2	16	[0, 0, 0]	n/a	FR1	3	R1323T
1855.184	1.632	1856285	WORD	n/a	n/a	CLOWN	3	16	[0, 0, 0]	n/a	FR1	3	R1323T
1856.816	0.892	1857917	WORD_OFF	n/a	n/a	CLOWN	3	16	[0, 0, 0]	n/a	FR1	3	R1323T
1857.708	1.625	1858809	WORD	n/a	n/a	CHIN	4	16	[0, 0, 0]	n/a	FR1	3	R1323T
1859.333	1.005	1860434	WORD_OFF	n/a	n/a	CHIN	4	16	[0, 0, 0]	n/a	FR1	3	R1323T
1860.338	1.628	1861439	WORD	n/a	n/a	CORN	5	16	[0, 0, 0]	n/a	FR1	3	R1323T
1861.966	1.13	1863067	WORD_OFF	n/a	n/a	CORN	5	16	[0, 0, 0]	n/a	FR1	3	R1323T
1863.096	1.638	1864197	WORD	n/a	n/a	MOUSE	6	16	[0, 0, 0]	n/a	FR1	3	R1323T
1864.734	0.816	1865834	WORD_OFF	n/a	n/a	MOUSE	6	16	[0, 0, 0]	n/a	FR1	3	R1323T
1865.55	1.633	1866650	WORD	n/a	n/a	SLUSH	7	16	[0, 0, 0]	n/a	FR1	3	R1323T
1867.183	0.929	1868283	WORD_OFF	n/a	n/a	SLUSH	7	16	[0, 0, 0]	n/a	FR1	3	R1323T
1868.112	1.606	1869212	WORD	n/a	n/a	BEAR	8	16	[0, 0, 0]	n/a	FR1	3	R1323T
1869.718	1.133	1870818	WORD_OFF	n/a	n/a	BEAR	8	16	[0, 0, 0]	n/a	FR1	3	R1323T
1870.851	1.634	1871951	WORD	n/a	n/a	STAIR	9	16	[0, 0, 0]	n/a	FR1	3	R1323T
1872.485	0.865	1873585	WORD_OFF	n/a	n/a	STAIR	9	16	[0, 0, 0]	n/a	FR1	3	R1323T
1873.35	1.635	1874450	WORD	n/a	n/a	RUG	10	16	[0, 0, 0]	n/a	FR1	3	R1323T
1874.985	1.066	1876085	WORD_OFF	n/a	n/a	RUG	10	16	[0, 0, 0]	n/a	FR1	3	R1323T
1876.051	1.635	1877151	WORD	n/a	n/a	WEED	11	16	[0, 0, 0]	n/a	FR1	3	R1323T
1877.686	0.977	1878786	WORD_OFF	n/a	n/a	WEED	11	16	[0, 0, 0]	n/a	FR1	3	R1323T
1878.663	1.623	1879763	WORD	n/a	n/a	ROPE	12	16	[0, 0, 0]	n/a	FR1	3	R1323T
1880.286	0.0	1881386	WORD_OFF	n/a	n/a	ROPE	12	16	[0, 0, 0]	n/a	FR1	3	R1323T
1880.286	0.001	1881386	ENCODING_END	n/a	n/a	n/a	-999	16	[0, 0, 0]	n/a	FR1	3	R1323T
1880.287	0.0	1881387	DISTRACT_START	n/a	n/a	n/a	-999	16	[0, 0, 0]	n/a	FR1	3	R1323T
1880.287	0.015	1881387	START	n/a	n/a	n/a	-999	16	[-999, -999, -999]	n/a	FR1	3	R1323T
1880.302	7.902	1881402	PROB	7.902	n/a	n/a	-999	16	[7, 6, 5]	18	FR1	3	R1323T
1888.204	4.335	1889303	PROB	4.335	n/a	n/a	-999	16	[6, 5, 1]	12	FR1	3	R1323T
1892.539	4.184	1893638	PROB	4.184	n/a	n/a	-999	16	[2, 5, 8]	15	FR1	3	R1323T
1896.723	4.994	1897822	PROB	4.994	n/a	n/a	-999	16	[8, 4, 2]	14	FR1	3	R1323T
1901.717	0.007	1902816	STOP	n/a	n/a	n/a	-999	16	[-999, -999, -999]	n/a	FR1	3	R1323T
1901.724	0.515	1902823	DISTRACT_END	n/a	n/a	n/a	-999	16	[0, 0, 0]	n/a	FR1	3	R1323T
1902.239	1.668	1903338	RETRIEVAL_ORIENT_START	n/a	n/a	n/a	-999	16	[0, 0, 0]	n/a	FR1	3	R1323T
1903.907	0.0	1905006	RETRIEVAL_ORIENT_END	n/a	n/a	n/a	-999	16	[0, 0, 0]	n/a	FR1	3	R1323T
1903.907	0.643	1905006	REC_START	n/a	n/a	n/a	-999	16	[0, 0, 0]	n/a	FR1	3	R1323T
1904.55	1.645	1905649	REC_WORD	1.645	n/a	CLOWN	3	16	[0, 0, 0]	n/a	FR1	3	R1323T
1906.195	5.901	1907294	REC_WORD	5.901	n/a	CORN	5	16	[0, 0, 0]	n/a	FR1	3	R1323T
1912.096	14.807	1913194	REC_WORD	14.807	n/a	RUG	10	16	[0, 0, 0]	n/a	FR1	3	R1323T
1926.903	7.016	1928001	REC_WORD	7.016	n/a	HOLE	-999	16	[0, 0, 0]	n/a	FR1	3	R1323T
1933.919	0.0	1935016	TRIAL_END	n/a	n/a	n/a	-999	16	[0, 0, 0]	n/a	FR1	3	R1323T
1933.919	0.017	1935016	REC_END	n/a	n/a	n/a	-999	16	[0, 0, 0]	n/a	FR1	3	R1323T
1933.936	0.001	1935033	TRIAL_START	n/a	n/a	n/a	-999	17	[0, 0, 0]	n/a	FR1	3	R1323T
1933.937	0.0	1935034	TRIAL	n/a	n/a	n/a	-999	17	[0, 0, 0]	n/a	FR1	3	R1323T
1933.937	2.376	1935034	WAITING_START	n/a	n/a	n/a	-999	17	[0, 0, 0]	n/a	FR1	3	R1323T
1936.313	0.0	1937410	WAITING_END	n/a	n/a	n/a	-999	17	[0, 0, 0]	n/a	FR1	3	R1323T
1936.313	10.429	1937410	COUNTDOWN_START	n/a	n/a	n/a	-999	17	[0, 0, 0]	n/a	FR1	3	R1323T
1946.742	0.0	1947839	COUNTDOWN_END	n/a	n/a	n/a	-999	17	[0, 0, 0]	n/a	FR1	3	R1323T
1946.742	1.09	1947839	ORIENT_START	n/a	n/a	n/a	-999	17	[0, 0, 0]	n/a	FR1	3	R1323T
1947.832	0.001	1948929	ORIENT_END	n/a	n/a	n/a	-999	17	[0, 0, 0]	n/a	FR1	3	R1323T
1947.833	1.031	1948930	ENCODING_START	n/a	n/a	n/a	-999	17	[0, 0, 0]	n/a	FR1	3	R1323T
1948.864	1.619	1949961	WORD	n/a	n/a	GLOVE	1	17	[0, 0, 0]	n/a	FR1	3	R1323T
1950.483	1.147	1951580	WORD_OFF	n/a	n/a	GLOVE	1	17	[0, 0, 0]	n/a	FR1	3	R1323T
1951.63	1.635	1952727	WORD	n/a	n/a	HAND	2	17	[0, 0, 0]	n/a	FR1	3	R1323T
1953.265	0.87	1954362	WORD_OFF	n/a	n/a	HAND	2	17	[0, 0, 0]	n/a	FR1	3	R1323T
1954.135	1.615	1955232	WORD	n/a	n/a	PEAR	3	17	[0, 0, 0]	n/a	FR1	3	R1323T
1955.75	0.902	1956846	WORD_OFF	n/a	n/a	PEAR	3	17	[0, 0, 0]	n/a	FR1	3	R1323T
1956.652	1.631	1957748	WORD	n/a	n/a	PASTE	4	17	[0, 0, 0]	n/a	FR1	3	R1323T
1958.283	1.14	1959379	WORD_OFF	n/a	n/a	PASTE	4	17	[0, 0, 0]	n/a	FR1	3	R1323T
1959.423	1.627	1960519	WORD	n/a	n/a	PANTS	5	17	[0, 0, 0]	n/a	FR1	3	R1323T
1961.05	0.911	1962146	WORD_OFF	n/a	n/a	PANTS	5	17	[0, 0, 0]	n/a	FR1	3	R1323T
1961.961	1.608	1963057	WORD	n/a	n/a	FENCE	6	17	[0, 0, 0]	n/a	FR1	3	R1323T
1963.569	0.953	1964665	WORD_OFF	n/a	n/a	FENCE	6	17	[0, 0, 0]	n/a	FR1	3	R1323T
1964.522	1.629	1965618	WORD	n/a	n/a	SHOE	7	17	[0, 0, 0]	n/a	FR1	3	R1323T
1966.151	0.756	1967247	WORD_OFF	n/a	n/a	SHOE	7	17	[0, 0, 0]	n/a	FR1	3	R1323T
1966.907	1.613	1968003	WORD	n/a	n/a	TOOTH	8	17	[0, 0, 0]	n/a	FR1	3	R1323T
1968.52	1.113	1969616	WORD_OFF	n/a	n/a	TOOTH	8	17	[0, 0, 0]	n/a	FR1	3	R1323T
1969.633	1.636	1970729	WORD	n/a	n/a	SEED	9	17	[0, 0, 0]	n/a	FR1	3	R1323T
1971.269	0.861	1972365	WORD_OFF	n/a	n/a	SEED	9	17	[0, 0, 0]	n/a	FR1	3	R1323T
1972.13	1.624	1973226	WORD	n/a	n/a	ICE	10	17	[0, 0, 0]	n/a	FR1	3	R1323T
1973.754	0.753	1974850	WORD_OFF	n/a	n/a	ICE	10	17	[0, 0, 0]	n/a	FR1	3	R1323T
1974.507	1.63	1975603	WORD	n/a	n/a	WEB	11	17	[0, 0, 0]	n/a	FR1	3	R1323T
1976.137	0.852	1977233	WORD_OFF	n/a	n/a	WEB	11	17	[0, 0, 0]	n/a	FR1	3	R1323T
1976.989	1.632	1978085	WORD	n/a	n/a	BEACH	12	17	[0, 0, 0]	n/a	FR1	3	R1323T
1978.621	0.001	1979717	WORD_OFF	n/a	n/a	BEACH	12	17	[0, 0, 0]	n/a	FR1	3	R1323T
1978.622	0.0	1979718	DISTRACT_START	n/a	n/a	n/a	-999	17	[0, 0, 0]	n/a	FR1	3	R1323T
1978.622	0.0	1979718	ENCODING_END	n/a	n/a	n/a	-999	17	[0, 0, 0]	n/a	FR1	3	R1323T
1978.622	0.016	1979718	START	n/a	n/a	n/a	-999	17	[-999, -999, -999]	n/a	FR1	3	R1323T
1978.638	4.65	1979733	PROB	4.65	n/a	n/a	-999	17	[5, 8, 5]	18	FR1	3	R1323T
1983.288	3.568	1984383	PROB	3.568	n/a	n/a	-999	17	[2, 7, 3]	12	FR1	3	R1323T
1986.856	3.767	1987951	PROB	3.767	n/a	n/a	-999	17	[1, 5, 9]	15	FR1	3	R1323T
1990.623	3.218	1991718	PROB	3.218	n/a	n/a	-999	17	[3, 3, 1]	7	FR1	3	R1323T
1993.841	4.667	1994936	PROB	4.667	n/a	n/a	-999	17	[7, 1, 8]	16	FR1	3	R1323T
1998.508	4.431	1999603	PROB	4.431	n/a	n/a	-999	17	[1, 7, 8]	16	FR1	3	R1323T
2002.939	0.019	2004033	STOP	n/a	n/a	n/a	-999	17	[-999, -999, -999]	n/a	FR1	3	R1323T
2002.958	0.569	2004052	DISTRACT_END	n/a	n/a	n/a	-999	17	[0, 0, 0]	n/a	FR1	3	R1323T
2003.527	1.631	2004621	RETRIEVAL_ORIENT_START	n/a	n/a	n/a	-999	17	[0, 0, 0]	n/a	FR1	3	R1323T
2005.158	0.001	2006252	RETRIEVAL_ORIENT_END	n/a	n/a	n/a	-999	17	[0, 0, 0]	n/a	FR1	3	R1323T
2005.159	0.572	2006253	REC_START	n/a	n/a	n/a	-999	17	[0, 0, 0]	n/a	FR1	3	R1323T
2005.731	1.325	2006825	REC_WORD	1.325	n/a	TOOTH	8	17	[0, 0, 0]	n/a	FR1	3	R1323T
2007.056	1.166	2008150	REC_WORD	1.166	n/a	ICE	10	17	[0, 0, 0]	n/a	FR1	3	R1323T
2008.222	1.454	2009316	REC_WORD	1.454	n/a	GLOVE	1	17	[0, 0, 0]	n/a	FR1	3	R1323T
2009.676	1.11	2010770	REC_WORD	1.11	n/a	HAND	2	17	[0, 0, 0]	n/a	FR1	3	R1323T
2010.786	13.875	2011880	REC_WORD	13.875	n/a	SHOE	7	17	[0, 0, 0]	n/a	FR1	3	R1323T
2024.661	10.509	2025754	REC_WORD	10.509	n/a	PANTS	5	17	[0, 0, 0]	n/a	FR1	3	R1323T
2035.17	0.0	2036263	TRIAL_END	n/a	n/a	n/a	-999	17	[0, 0, 0]	n/a	FR1	3	R1323T
2035.17	0.015	2036263	REC_END	n/a	n/a	n/a	-999	17	[0, 0, 0]	n/a	FR1	3	R1323T
2035.185	0.001	2036278	TRIAL_START	n/a	n/a	n/a	-999	18	[0, 0, 0]	n/a	FR1	3	R1323T
2035.186	0.0	2036279	TRIAL	n/a	n/a	n/a	-999	18	[0, 0, 0]	n/a	FR1	3	R1323T
2035.186	3.095	2036279	WAITING_START	n/a	n/a	n/a	-999	18	[0, 0, 0]	n/a	FR1	3	R1323T
2038.281	0.001	2039374	WAITING_END	n/a	n/a	n/a	-999	18	[0, 0, 0]	n/a	FR1	3	R1323T
2038.282	10.429	2039375	COUNTDOWN_START	n/a	n/a	n/a	-999	18	[0, 0, 0]	n/a	FR1	3	R1323T
2048.711	0.001	2049803	COUNTDOWN_END	n/a	n/a	n/a	-999	18	[0, 0, 0]	n/a	FR1	3	R1323T
2048.712	1.238	2049804	ORIENT_START	n/a	n/a	n/a	-999	18	[0, 0, 0]	n/a	FR1	3	R1323T
2049.95	0.001	2051042	ORIENT_END	n/a	n/a	n/a	-999	18	[0, 0, 0]	n/a	FR1	3	R1323T
2049.951	0.753	2051043	ENCODING_START	n/a	n/a	n/a	-999	18	[0, 0, 0]	n/a	FR1	3	R1323T
2050.704	1.631	2051796	WORD	n/a	n/a	PALM	1	18	[0, 0, 0]	n/a	FR1	3	R1323T
2052.335	1.055	2053427	WORD_OFF	n/a	n/a	PALM	1	18	[0, 0, 0]	n/a	FR1	3	R1323T
2053.39	1.627	2054482	WORD	n/a	n/a	SPONGE	2	18	[0, 0, 0]	n/a	FR1	3	R1323T
2055.017	0.839	2056109	WORD_OFF	n/a	n/a	SPONGE	2	18	[0, 0, 0]	n/a	FR1	3	R1323T
2055.856	1.613	2056948	WORD	n/a	n/a	DUCK	3	18	[0, 0, 0]	n/a	FR1	3	R1323T
2057.469	1.05	2058561	WORD_OFF	n/a	n/a	DUCK	3	18	[0, 0, 0]	n/a	FR1	3	R1323T
2058.519	1.633	2059611	WORD	n/a	n/a	ROOF	4	18	[0, 0, 0]	n/a	FR1	3	R1323T
2060.152	0.888	2061244	WORD_OFF	n/a	n/a	ROOF	4	18	[0, 0, 0]	n/a	FR1	3	R1323T
2061.04	1.63	2062132	WORD	n/a	n/a	STICK	5	18	[0, 0, 0]	n/a	FR1	3	R1323T
2062.67	0.999	2063762	WORD_OFF	n/a	n/a	STICK	5	18	[0, 0, 0]	n/a	FR1	3	R1323T
2063.669	1.634	2064761	WORD	n/a	n/a	TRAY	6	18	[0, 0, 0]	n/a	FR1	3	R1323T
2065.303	0.944	2066395	WORD_OFF	n/a	n/a	TRAY	6	18	[0, 0, 0]	n/a	FR1	3	R1323T
2066.247	1.623	2067339	WORD	n/a	n/a	BIRD	7	18	[0, 0, 0]	n/a	FR1	3	R1323T
2067.87	1.039	2068962	WORD_OFF	n/a	n/a	BIRD	7	18	[0, 0, 0]	n/a	FR1	3	R1323T
2068.909	1.629	2070001	WORD	n/a	n/a	SUIT	8	18	[0, 0, 0]	n/a	FR1	3	R1323T
2070.538	0.751	2071629	WORD_OFF	n/a	n/a	SUIT	8	18	[0, 0, 0]	n/a	FR1	3	R1323T
2071.289	1.632	2072380	WORD	n/a	n/a	SCHOOL	9	18	[0, 0, 0]	n/a	FR1	3	R1323T
2072.921	1.088	2074012	WORD_OFF	n/a	n/a	SCHOOL	9	18	[0, 0, 0]	n/a	FR1	3	R1323T
2074.009	1.63	2075100	WORD	n/a	n/a	MAIL	10	18	[0, 0, 0]	n/a	FR1	3	R1323T
2075.639	0.93	2076730	WORD_OFF	n/a	n/a	MAIL	10	18	[0, 0, 0]	n/a	FR1	3	R1323T
2076.569	1.636	2077660	WORD	n/a	n/a	SNAIL	11	18	[0, 0, 0]	n/a	FR1	3	R1323T
2078.205	0.913	2079296	WORD_OFF	n/a	n/a	SNAIL	11	18	[0, 0, 0]	n/a	FR1	3	R1323T
2079.118	1.622	2080209	WORD	n/a	n/a	DOG	12	18	[0, 0, 0]	n/a	FR1	3	R1323T
2080.74	0.0	2081831	WORD_OFF	n/a	n/a	DOG	12	18	[0, 0, 0]	n/a	FR1	3	R1323T
2080.74	0.001	2081831	ENCODING_END	n/a	n/a	n/a	-999	18	[0, 0, 0]	n/a	FR1	3	R1323T
2080.741	0.0	2081832	DISTRACT_START	n/a	n/a	n/a	-999	18	[0, 0, 0]	n/a	FR1	3	R1323T
2080.741	0.015	2081832	START	n/a	n/a	n/a	-999	18	[-999, -999, -999]	n/a	FR1	3	R1323T
2080.756	5.334	2081847	PROB	5.334	n/a	n/a	-999	18	[1, 9, 6]	16	FR1	3	R1323T
2086.09	4.951	2087181	PROB	4.951	n/a	n/a	-999	18	[5, 9, 1]	16	FR1	3	R1323T
2091.041	6.017	2092132	PROB	6.017	n/a	n/a	-999	18	[5, 2, 6]	13	FR1	3	R1323T
2097.058	10.089	2098148	PROB	10.089	n/a	n/a	-999	18	[7, 7, 9]	23	FR1	3	R1323T
2107.147	0.013	2108237	STOP	n/a	n/a	n/a	-999	18	[-999, -999, -999]	n/a	FR1	3	R1323T
2107.16	0.641	2108250	DISTRACT_END	n/a	n/a	n/a	-999	18	[0, 0, 0]	n/a	FR1	3	R1323T
2107.801	1.544	2108891	RETRIEVAL_ORIENT_START	n/a	n/a	n/a	-999	18	[0, 0, 0]	n/a	FR1	3	R1323T
2109.345	0.0	2110435	RETRIEVAL_ORIENT_END	n/a	n/a	n/a	-999	18	[0, 0, 0]	n/a	FR1	3	R1323T
2109.345	1.118	2110435	REC_START	n/a	n/a	n/a	-999	18	[0, 0, 0]	n/a	FR1	3	R1323T
2110.463	2.151	2111553	REC_WORD	2.151	n/a	SNAIL	11	18	[0, 0, 0]	n/a	FR1	3	R1323T
2112.614	13.173	2113704	REC_WORD	13.173	n/a	PAIL	-999	18	[0, 0, 0]	n/a	FR1	3	R1323T
2125.787	4.742	2126876	REC_WORD	4.742	n/a	MAIL	10	18	[0, 0, 0]	n/a	FR1	3	R1323T
2130.529	2.152	2131618	REC_WORD_VV	2.152	n/a	<>	-999	18	[0, 0, 0]	n/a	FR1	3	R1323T
2132.681	6.676	2133770	REC_WORD	6.676	n/a	MOOSE	-999	18	[0, 0, 0]	n/a	FR1	3	R1323T
2139.357	0.0	2140446	REC_END	n/a	n/a	n/a	-999	18	[0, 0, 0]	n/a	FR1	3	R1323T
2139.357	0.015	2140446	TRIAL_END	n/a	n/a	n/a	-999	18	[0, 0, 0]	n/a	FR1	3	R1323T
2139.372	0.0	2140461	TRIAL_START	n/a	n/a	n/a	-999	19	[0, 0, 0]	n/a	FR1	3	R1323T
2139.372	0.0	2140461	TRIAL	n/a	n/a	n/a	-999	19	[0, 0, 0]	n/a	FR1	3	R1323T
2139.372	39.568	2140461	WAITING_START	n/a	n/a	n/a	-999	19	[0, 0, 0]	n/a	FR1	3	R1323T
2178.94	0.001	2180027	WAITING_END	n/a	n/a	n/a	-999	19	[0, 0, 0]	n/a	FR1	3	R1323T
2178.941	10.429	2180028	COUNTDOWN_START	n/a	n/a	n/a	-999	19	[0, 0, 0]	n/a	FR1	3	R1323T
2189.37	0.0	2190456	ORIENT_START	n/a	n/a	n/a	-999	19	[0, 0, 0]	n/a	FR1	3	R1323T
2189.37	1.257	2190456	COUNTDOWN_END	n/a	n/a	n/a	-999	19	[0, 0, 0]	n/a	FR1	3	R1323T
2190.627	0.0	2191713	ORIENT_END	n/a	n/a	n/a	-999	19	[0, 0, 0]	n/a	FR1	3	R1323T
2190.627	0.826	2191713	ENCODING_START	n/a	n/a	n/a	-999	19	[0, 0, 0]	n/a	FR1	3	R1323T
2191.453	1.623	2192539	WORD	n/a	n/a	BRIDGE	1	19	[0, 0, 0]	n/a	FR1	3	R1323T
2193.076	0.945	2194162	WORD_OFF	n/a	n/a	BRIDGE	1	19	[0, 0, 0]	n/a	FR1	3	R1323T
2194.021	1.606	2195107	WORD	n/a	n/a	PEN	2	19	[0, 0, 0]	n/a	FR1	3	R1323T
2195.627	1.142	2196713	WORD_OFF	n/a	n/a	PEN	2	19	[0, 0, 0]	n/a	FR1	3	R1323T
2196.769	1.626	2197855	WORD	n/a	n/a	EEL	3	19	[0, 0, 0]	n/a	FR1	3	R1323T
2198.395	1.004	2199481	WORD_OFF	n/a	n/a	EEL	3	19	[0, 0, 0]	n/a	FR1	3	R1323T
2199.399	1.628	2200485	WORD	n/a	n/a	WAND	4	19	[0, 0, 0]	n/a	FR1	3	R1323T
2201.027	0.993	2202113	WORD_OFF	n/a	n/a	WAND	4	19	[0, 0, 0]	n/a	FR1	3	R1323T
2202.02	1.609	2203106	WORD	n/a	n/a	TRASH	5	19	[0, 0, 0]	n/a	FR1	3	R1323T
2203.629	0.754	2204715	WORD_OFF	n/a	n/a	TRASH	5	19	[0, 0, 0]	n/a	FR1	3	R1323T
2204.383	1.629	2205469	WORD	n/a	n/a	VAN	6	19	[0, 0, 0]	n/a	FR1	3	R1323T
2206.012	1.07	2207098	WORD_OFF	n/a	n/a	VAN	6	19	[0, 0, 0]	n/a	FR1	3	R1323T
2207.082	1.631	2208168	WORD	n/a	n/a	SOAP	7	19	[0, 0, 0]	n/a	FR1	3	R1323T
2208.713	1.062	2209798	WORD_OFF	n/a	n/a	SOAP	7	19	[0, 0, 0]	n/a	FR1	3	R1323T
2209.775	1.622	2210860	WORD	n/a	n/a	OAR	8	19	[0, 0, 0]	n/a	FR1	3	R1323T
2211.397	0.779	2212482	WORD_OFF	n/a	n/a	OAR	8	19	[0, 0, 0]	n/a	FR1	3	R1323T
2212.176	1.638	2213261	WORD	n/a	n/a	TOOL	9	19	[0, 0, 0]	n/a	FR1	3	R1323T
2213.814	1.106	2214899	WORD_OFF	n/a	n/a	TOOL	9	19	[0, 0, 0]	n/a	FR1	3	R1323T
2214.92	1.628	2216005	WORD	n/a	n/a	SPOON	10	19	[0, 0, 0]	n/a	FR1	3	R1323T
2216.548	0.777	2217633	WORD_OFF	n/a	n/a	SPOON	10	19	[0, 0, 0]	n/a	FR1	3	R1323T
2217.325	1.622	2218410	WORD	n/a	n/a	CAPE	11	19	[0, 0, 0]	n/a	FR1	3	R1323T
2218.947	0.811	2220032	WORD_OFF	n/a	n/a	CAPE	11	19	[0, 0, 0]	n/a	FR1	3	R1323T
2219.758	1.624	2220843	WORD	n/a	n/a	PHONE	12	19	[0, 0, 0]	n/a	FR1	3	R1323T
2221.382	0.001	2222467	WORD_OFF	n/a	n/a	PHONE	12	19	[0, 0, 0]	n/a	FR1	3	R1323T
2221.383	0.0	2222468	ENCODING_END	n/a	n/a	n/a	-999	19	[0, 0, 0]	n/a	FR1	3	R1323T
2221.383	0.0	2222468	DISTRACT_START	n/a	n/a	n/a	-999	19	[0, 0, 0]	n/a	FR1	3	R1323T
2221.383	0.016	2222468	START	n/a	n/a	n/a	-999	19	[-999, -999, -999]	n/a	FR1	3	R1323T
2221.399	4.284	2222484	PROB	4.284	n/a	n/a	-999	19	[7, 3, 4]	14	FR1	3	R1323T
2225.683	4.183	2226768	PROB	4.183	n/a	n/a	-999	19	[1, 7, 8]	16	FR1	3	R1323T
2229.866	4.051	2230951	PROB	4.051	n/a	n/a	-999	19	[1, 6, 3]	10	FR1	3	R1323T
2233.917	3.851	2235001	PROB	3.851	n/a	n/a	-999	19	[2, 6, 6]	14	FR1	3	R1323T
2237.768	6.842	2238852	PROB	6.842	n/a	n/a	-999	19	[6, 8, 6]	14	FR1	3	R1323T
2244.61	0.01	2245694	STOP	n/a	n/a	n/a	-999	19	[-999, -999, -999]	n/a	FR1	3	R1323T
2244.62	0.618	2245704	DISTRACT_END	n/a	n/a	n/a	-999	19	[0, 0, 0]	n/a	FR1	3	R1323T
2245.238	1.714	2246322	RETRIEVAL_ORIENT_START	n/a	n/a	n/a	-999	19	[0, 0, 0]	n/a	FR1	3	R1323T
2246.952	0.001	2248036	RETRIEVAL_ORIENT_END	n/a	n/a	n/a	-999	19	[0, 0, 0]	n/a	FR1	3	R1323T
2246.953	1.122	2248037	REC_START	n/a	n/a	n/a	-999	19	[0, 0, 0]	n/a	FR1	3	R1323T
2248.075	1.817	2249159	REC_WORD	1.817	n/a	WAND	4	19	[0, 0, 0]	n/a	FR1	3	R1323T
2249.892	5.676	2250976	REC_WORD	5.676	n/a	BRIDGE	1	19	[0, 0, 0]	n/a	FR1	3	R1323T
2255.568	13.259	2256651	REC_WORD	13.259	n/a	PEN	2	19	[0, 0, 0]	n/a	FR1	3	R1323T
2268.827	1.995	2269910	REC_WORD_VV	1.995	n/a	<>	-999	19	[0, 0, 0]	n/a	FR1	3	R1323T
2270.822	6.142	2271905	REC_WORD	6.142	n/a	OAR	8	19	[0, 0, 0]	n/a	FR1	3	R1323T
2276.964	0.0	2278047	TRIAL_END	n/a	n/a	n/a	-999	19	[0, 0, 0]	n/a	FR1	3	R1323T
2276.964	0.017	2278047	REC_END	n/a	n/a	n/a	-999	19	[0, 0, 0]	n/a	FR1	3	R1323T
2276.981	0.0	2278064	TRIAL_START	n/a	n/a	n/a	-999	20	[0, 0, 0]	n/a	FR1	3	R1323T
2276.981	0.001	2278064	TRIAL	n/a	n/a	n/a	-999	20	[0, 0, 0]	n/a	FR1	3	R1323T
2276.982	2.744	2278065	WAITING_START	n/a	n/a	n/a	-999	20	[0, 0, 0]	n/a	FR1	3	R1323T
2279.726	0.0	2280808	WAITING_END	n/a	n/a	n/a	-999	20	[0, 0, 0]	n/a	FR1	3	R1323T
2279.726	10.43	2280808	COUNTDOWN_START	n/a	n/a	n/a	-999	20	[0, 0, 0]	n/a	FR1	3	R1323T
2290.156	0.001	2291238	COUNTDOWN_END	n/a	n/a	n/a	-999	20	[0, 0, 0]	n/a	FR1	3	R1323T
2290.157	1.087	2291239	ORIENT_START	n/a	n/a	n/a	-999	20	[0, 0, 0]	n/a	FR1	3	R1323T
2291.244	0.0	2292326	ORIENT_END	n/a	n/a	n/a	-999	20	[0, 0, 0]	n/a	FR1	3	R1323T
2291.244	1.121	2292326	ENCODING_START	n/a	n/a	n/a	-999	20	[0, 0, 0]	n/a	FR1	3	R1323T
2292.365	1.629	2293447	WORD	n/a	n/a	BRUSH	1	20	[0, 0, 0]	n/a	FR1	3	R1323T
2293.994	0.955	2295076	WORD_OFF	n/a	n/a	BRUSH	1	20	[0, 0, 0]	n/a	FR1	3	R1323T
2294.949	1.613	2296031	WORD	n/a	n/a	SPRING	2	20	[0, 0, 0]	n/a	FR1	3	R1323T
2296.562	0.914	2297644	WORD_OFF	n/a	n/a	SPRING	2	20	[0, 0, 0]	n/a	FR1	3	R1323T
2297.476	1.636	2298558	WORD	n/a	n/a	CANE	3	20	[0, 0, 0]	n/a	FR1	3	R1323T
2299.112	1.001	2300194	WORD_OFF	n/a	n/a	CANE	3	20	[0, 0, 0]	n/a	FR1	3	R1323T
2300.113	1.617	2301195	WORD	n/a	n/a	BOOT	4	20	[0, 0, 0]	n/a	FR1	3	R1323T
2301.73	1.045	2302811	WORD_OFF	n/a	n/a	BOOT	4	20	[0, 0, 0]	n/a	FR1	3	R1323T
2302.775	1.622	2303856	WORD	n/a	n/a	HEART	5	20	[0, 0, 0]	n/a	FR1	3	R1323T
2304.397	0.866	2305478	WORD_OFF	n/a	n/a	HEART	5	20	[0, 0, 0]	n/a	FR1	3	R1323T
2305.263	1.634	2306344	WORD	n/a	n/a	ROSE	6	20	[0, 0, 0]	n/a	FR1	3	R1323T
2306.897	1.089	2307978	WORD_OFF	n/a	n/a	ROSE	6	20	[0, 0, 0]	n/a	FR1	3	R1323T
2307.986	1.629	2309067	WORD	n/a	n/a	BADGE	7	20	[0, 0, 0]	n/a	FR1	3	R1323T
2309.615	1.059	2310696	WORD_OFF	n/a	n/a	BADGE	7	20	[0, 0, 0]	n/a	FR1	3	R1323T
2310.674	1.624	2311755	WORD	n/a	n/a	GLASS	8	20	[0, 0, 0]	n/a	FR1	3	R1323T
2312.298	1.149	2313379	WORD_OFF	n/a	n/a	GLASS	8	20	[0, 0, 0]	n/a	FR1	3	R1323T
2313.447	1.634	2314528	WORD	n/a	n/a	PIPE	9	20	[0, 0, 0]	n/a	FR1	3	R1323T
2315.081	0.995	2316162	WORD_OFF	n/a	n/a	PIPE	9	20	[0, 0, 0]	n/a	FR1	3	R1323T
2316.076	1.607	2317157	WORD	n/a	n/a	SWAMP	10	20	[0, 0, 0]	n/a	FR1	3	R1323T
2317.683	1.104	2318764	WORD_OFF	n/a	n/a	SWAMP	10	20	[0, 0, 0]	n/a	FR1	3	R1323T
2318.787	1.63	2319868	WORD	n/a	n/a	FOAM	11	20	[0, 0, 0]	n/a	FR1	3	R1323T
2320.417	1.048	2321498	WORD_OFF	n/a	n/a	FOAM	11	20	[0, 0, 0]	n/a	FR1	3	R1323T
2321.465	1.635	2322546	WORD	n/a	n/a	WOLF	12	20	[0, 0, 0]	n/a	FR1	3	R1323T
2323.1	0.0	2324181	WORD_OFF	n/a	n/a	WOLF	12	20	[0, 0, 0]	n/a	FR1	3	R1323T
2323.1	0.0	2324181	ENCODING_END	n/a	n/a	n/a	-999	20	[0, 0, 0]	n/a	FR1	3	R1323T
2323.1	0.0	2324181	DISTRACT_START	n/a	n/a	n/a	-999	20	[0, 0, 0]	n/a	FR1	3	R1323T
2323.1	0.016	2324181	START	n/a	n/a	n/a	-999	20	[-999, -999, -999]	n/a	FR1	3	R1323T
2323.116	4.735	2324197	PROB	4.735	n/a	n/a	-999	20	[3, 5, 7]	15	FR1	3	R1323T
2327.851	4.433	2328931	PROB	4.433	n/a	n/a	-999	20	[1, 9, 6]	16	FR1	3	R1323T
2332.284	9.386	2333364	PROB	9.386	n/a	n/a	-999	20	[6, 5, 8]	17	FR1	3	R1323T
2341.67	4.342	2342750	PROB	4.342	n/a	n/a	-999	20	[2, 5, 3]	10	FR1	3	R1323T
2346.012	0.008	2347092	STOP	n/a	n/a	n/a	-999	20	[-999, -999, -999]	n/a	FR1	3	R1323T
2346.02	0.584	2347100	DISTRACT_END	n/a	n/a	n/a	-999	20	[0, 0, 0]	n/a	FR1	3	R1323T
2346.604	1.667	2347683	RETRIEVAL_ORIENT_START	n/a	n/a	n/a	-999	20	[0, 0, 0]	n/a	FR1	3	R1323T
2348.271	0.0	2349350	RETRIEVAL_ORIENT_END	n/a	n/a	n/a	-999	20	[0, 0, 0]	n/a	FR1	3	R1323T
2348.271	1.201	2349350	REC_START	n/a	n/a	n/a	-999	20	[0, 0, 0]	n/a	FR1	3	R1323T
2349.472	1.703	2350551	REC_WORD	1.703	n/a	WASH	-999	20	[0, 0, 0]	n/a	FR1	3	R1323T
2351.175	4.428	2352254	REC_WORD	4.428	n/a	HAND	-999	20	[0, 0, 0]	n/a	FR1	3	R1323T
2355.603	22.512	2356682	REC_WORD	22.512	n/a	PAIL	-999	20	[0, 0, 0]	n/a	FR1	3	R1323T
2378.115	0.168	2379193	REC_WORD	0.168	n/a	TRASH	-999	20	[0, 0, 0]	n/a	FR1	3	R1323T
2378.283	0.0	2379361	REC_END	n/a	n/a	n/a	-999	20	[0, 0, 0]	n/a	FR1	3	R1323T
2378.283	0.015	2379361	TRIAL_END	n/a	n/a	n/a	-999	20	[0, 0, 0]	n/a	FR1	3	R1323T
2378.298	0.0	2379376	WAITING_START	n/a	n/a	n/a	-999	21	[0, 0, 0]	n/a	FR1	3	R1323T
2378.298	0.0	2379376	TRIAL	n/a	n/a	n/a	-999	21	[0, 0, 0]	n/a	FR1	3	R1323T
2378.298	3.829	2379376	TRIAL_START	n/a	n/a	n/a	-999	21	[0, 0, 0]	n/a	FR1	3	R1323T
2382.127	0.0	2383205	WAITING_END	n/a	n/a	n/a	-999	21	[0, 0, 0]	n/a	FR1	3	R1323T
2382.127	10.428	2383205	COUNTDOWN_START	n/a	n/a	n/a	-999	21	[0, 0, 0]	n/a	FR1	3	R1323T
2392.555	0.001	2393632	COUNTDOWN_END	n/a	n/a	n/a	-999	21	[0, 0, 0]	n/a	FR1	3	R1323T
2392.556	1.174	2393633	ORIENT_START	n/a	n/a	n/a	-999	21	[0, 0, 0]	n/a	FR1	3	R1323T
2393.73	0.0	2394807	ORIENT_END	n/a	n/a	n/a	-999	21	[0, 0, 0]	n/a	FR1	3	R1323T
2393.73	0.84	2394807	ENCODING_START	n/a	n/a	n/a	-999	21	[0, 0, 0]	n/a	FR1	3	R1323T
2394.57	1.626	2395647	WORD	n/a	n/a	LAMP	1	21	[0, 0, 0]	n/a	FR1	3	R1323T
2396.196	0.925	2397273	WORD_OFF	n/a	n/a	LAMP	1	21	[0, 0, 0]	n/a	FR1	3	R1323T
2397.121	1.61	2398198	WORD	n/a	n/a	VINE	2	21	[0, 0, 0]	n/a	FR1	3	R1323T
2398.731	0.911	2399808	WORD_OFF	n/a	n/a	VINE	2	21	[0, 0, 0]	n/a	FR1	3	R1323T
2399.642	1.622	2400719	WORD	n/a	n/a	FLAG	3	21	[0, 0, 0]	n/a	FR1	3	R1323T
2401.264	0.872	2402341	WORD_OFF	n/a	n/a	FLAG	3	21	[0, 0, 0]	n/a	FR1	3	R1323T
2402.136	1.629	2403213	WORD	n/a	n/a	BEAK	4	21	[0, 0, 0]	n/a	FR1	3	R1323T
2403.765	1.046	2404842	WORD_OFF	n/a	n/a	BEAK	4	21	[0, 0, 0]	n/a	FR1	3	R1323T
2404.811	1.638	2405888	WORD	n/a	n/a	CONE	5	21	[0, 0, 0]	n/a	FR1	3	R1323T
2406.449	0.84	2407526	WORD_OFF	n/a	n/a	CONE	5	21	[0, 0, 0]	n/a	FR1	3	R1323T
2407.289	1.626	2408366	WORD	n/a	n/a	SKI	6	21	[0, 0, 0]	n/a	FR1	3	R1323T
2408.915	1.04	2409992	WORD_OFF	n/a	n/a	SKI	6	21	[0, 0, 0]	n/a	FR1	3	R1323T
2409.955	1.628	2411032	WORD	n/a	n/a	CAKE	7	21	[0, 0, 0]	n/a	FR1	3	R1323T
2411.583	1.05	2412660	WORD_OFF	n/a	n/a	CAKE	7	21	[0, 0, 0]	n/a	FR1	3	R1323T
2412.633	1.633	2413710	WORD	n/a	n/a	PLANT	8	21	[0, 0, 0]	n/a	FR1	3	R1323T
2414.266	0.975	2415343	WORD_OFF	n/a	n/a	PLANT	8	21	[0, 0, 0]	n/a	FR1	3	R1323T
2415.241	1.61	2416317	WORD	n/a	n/a	BAT	9	21	[0, 0, 0]	n/a	FR1	3	R1323T
2416.851	1.109	2417927	WORD_OFF	n/a	n/a	BAT	9	21	[0, 0, 0]	n/a	FR1	3	R1323T
2417.96	1.625	2419036	WORD	n/a	n/a	SHRIMP	10	21	[0, 0, 0]	n/a	FR1	3	R1323T
2419.585	1.111	2420661	WORD_OFF	n/a	n/a	SHRIMP	10	21	[0, 0, 0]	n/a	FR1	3	R1323T
2420.696	1.623	2421772	WORD	n/a	n/a	FISH	11	21	[0, 0, 0]	n/a	FR1	3	R1323T
2422.319	1.087	2423395	WORD_OFF	n/a	n/a	FISH	11	21	[0, 0, 0]	n/a	FR1	3	R1323T
2423.406	1.629	2424482	WORD	n/a	n/a	TRUCK	12	21	[0, 0, 0]	n/a	FR1	3	R1323T
2425.035	0.0	2426111	WORD_OFF	n/a	n/a	TRUCK	12	21	[0, 0, 0]	n/a	FR1	3	R1323T
2425.035	0.001	2426111	ENCODING_END	n/a	n/a	n/a	-999	21	[0, 0, 0]	n/a	FR1	3	R1323T
2425.036	0.0	2426112	DISTRACT_START	n/a	n/a	n/a	-999	21	[0, 0, 0]	n/a	FR1	3	R1323T
2425.036	0.015	2426112	START	n/a	n/a	n/a	-999	21	[-999, -999, -999]	n/a	FR1	3	R1323T
2425.051	7.252	2426127	PROB	7.252	n/a	n/a	-999	21	[5, 4, 2]	11	FR1	3	R1323T
2432.303	9.502	2433379	PROB	9.502	n/a	n/a	-999	21	[9, 9, 7]	25	FR1	3	R1323T
2441.805	4.419	2442880	PROB	4.419	n/a	n/a	-999	21	[7, 9, 1]	17	FR1	3	R1323T
2446.224	0.015	2447299	STOP	n/a	n/a	n/a	-999	21	[-999, -999, -999]	n/a	FR1	3	R1323T
2446.239	0.553	2447314	DISTRACT_END	n/a	n/a	n/a	-999	21	[0, 0, 0]	n/a	FR1	3	R1323T
2446.792	1.665	2447867	RETRIEVAL_ORIENT_START	n/a	n/a	n/a	-999	21	[0, 0, 0]	n/a	FR1	3	R1323T
2448.457	0.0	2449532	REC_START	n/a	n/a	n/a	-999	21	[0, 0, 0]	n/a	FR1	3	R1323T
2448.457	1.986	2449532	RETRIEVAL_ORIENT_END	n/a	n/a	n/a	-999	21	[0, 0, 0]	n/a	FR1	3	R1323T
2450.443	1.024	2451518	REC_WORD_VV	1.024	n/a	<>	-999	21	[0, 0, 0]	n/a	FR1	3	R1323T
2451.467	27.002	2452542	REC_WORD	27.002	n/a	WASH	-999	21	[0, 0, 0]	n/a	FR1	3	R1323T
2478.469	0.0	2479543	REC_END	n/a	n/a	n/a	-999	21	[0, 0, 0]	n/a	FR1	3	R1323T
2478.469	0.017	2479543	TRIAL_END	n/a	n/a	n/a	-999	21	[0, 0, 0]	n/a	FR1	3	R1323T
2478.486	0.0	2479560	TRIAL_START	n/a	n/a	n/a	-999	22	[0, 0, 0]	n/a	FR1	3	R1323T
2478.486	0.0	2479560	TRIAL	n/a	n/a	n/a	-999	22	[0, 0, 0]	n/a	FR1	3	R1323T
2478.486	17.528	2479560	WAITING_START	n/a	n/a	n/a	-999	22	[0, 0, 0]	n/a	FR1	3	R1323T
2496.014	0.001	2497087	WAITING_END	n/a	n/a	n/a	-999	22	[0, 0, 0]	n/a	FR1	3	R1323T
2496.015	10.429	2497088	COUNTDOWN_START	n/a	n/a	n/a	-999	22	[0, 0, 0]	n/a	FR1	3	R1323T
2506.444	0.0	2507517	COUNTDOWN_END	n/a	n/a	n/a	-999	22	[0, 0, 0]	n/a	FR1	3	R1323T
2506.444	1.057	2507517	ORIENT_START	n/a	n/a	n/a	-999	22	[0, 0, 0]	n/a	FR1	3	R1323T
2507.501	0.0	2508573	ORIENT_END	n/a	n/a	n/a	-999	22	[0, 0, 0]	n/a	FR1	3	R1323T
2507.501	1.066	2508573	ENCODING_START	n/a	n/a	n/a	-999	22	[0, 0, 0]	n/a	FR1	3	R1323T
2508.567	1.633	2509639	WORD	n/a	n/a	LOCK	1	22	[0, 0, 0]	n/a	FR1	3	R1323T
2510.2	1.036	2511272	WORD_OFF	n/a	n/a	LOCK	1	22	[0, 0, 0]	n/a	FR1	3	R1323T
2511.236	1.631	2512308	WORD	n/a	n/a	MOON	2	22	[0, 0, 0]	n/a	FR1	3	R1323T
2512.867	0.834	2513939	WORD_OFF	n/a	n/a	MOON	2	22	[0, 0, 0]	n/a	FR1	3	R1323T
2513.701	1.634	2514773	WORD	n/a	n/a	FARM	3	22	[0, 0, 0]	n/a	FR1	3	R1323T
2515.335	0.756	2516407	WORD_OFF	n/a	n/a	FARM	3	22	[0, 0, 0]	n/a	FR1	3	R1323T
2516.091	1.611	2517163	WORD	n/a	n/a	PLANE	4	22	[0, 0, 0]	n/a	FR1	3	R1323T
2517.702	0.829	2518774	WORD_OFF	n/a	n/a	PLANE	4	22	[0, 0, 0]	n/a	FR1	3	R1323T
2518.531	1.621	2519603	WORD	n/a	n/a	CLIFF	5	22	[0, 0, 0]	n/a	FR1	3	R1323T
2520.152	0.802	2521224	WORD_OFF	n/a	n/a	CLIFF	5	22	[0, 0, 0]	n/a	FR1	3	R1323T
2520.954	1.633	2522026	WORD	n/a	n/a	BRANCH	6	22	[0, 0, 0]	n/a	FR1	3	R1323T
2522.587	0.754	2523659	WORD_OFF	n/a	n/a	BRANCH	6	22	[0, 0, 0]	n/a	FR1	3	R1323T
2523.341	1.629	2524413	WORD	n/a	n/a	JUICE	7	22	[0, 0, 0]	n/a	FR1	3	R1323T
2524.97	1.015	2526042	WORD_OFF	n/a	n/a	JUICE	7	22	[0, 0, 0]	n/a	FR1	3	R1323T
2525.985	1.619	2527057	WORD	n/a	n/a	MAP	8	22	[0, 0, 0]	n/a	FR1	3	R1323T
2527.604	0.933	2528676	WORD_OFF	n/a	n/a	MAP	8	22	[0, 0, 0]	n/a	FR1	3	R1323T
2528.537	1.633	2529609	WORD	n/a	n/a	LAMB	9	22	[0, 0, 0]	n/a	FR1	3	R1323T
2530.17	1.054	2531241	WORD_OFF	n/a	n/a	LAMB	9	22	[0, 0, 0]	n/a	FR1	3	R1323T
2531.224	1.615	2532295	WORD	n/a	n/a	SQUARE	10	22	[0, 0, 0]	n/a	FR1	3	R1323T
2532.839	1.0	2533910	WORD_OFF	n/a	n/a	SQUARE	10	22	[0, 0, 0]	n/a	FR1	3	R1323T
2533.839	1.633	2534910	WORD	n/a	n/a	JEEP	11	22	[0, 0, 0]	n/a	FR1	3	R1323T
2535.472	0.816	2536543	WORD_OFF	n/a	n/a	JEEP	11	22	[0, 0, 0]	n/a	FR1	3	R1323T
2536.288	1.634	2537359	WORD	n/a	n/a	DART	12	22	[0, 0, 0]	n/a	FR1	3	R1323T
2537.922	0.0	2538993	ENCODING_END	n/a	n/a	n/a	-999	22	[0, 0, 0]	n/a	FR1	3	R1323T
2537.922	0.001	2538993	WORD_OFF	n/a	n/a	DART	12	22	[0, 0, 0]	n/a	FR1	3	R1323T
2537.923	0.0	2538994	DISTRACT_START	n/a	n/a	n/a	-999	22	[0, 0, 0]	n/a	FR1	3	R1323T
2537.923	0.015	2538994	START	n/a	n/a	n/a	-999	22	[-999, -999, -999]	n/a	FR1	3	R1323T
2537.938	5.836	2539009	PROB	5.836	n/a	n/a	-999	22	[8, 3, 1]	12	FR1	3	R1323T
2543.774	12.819	2544845	PROB	12.819	n/a	n/a	-999	22	[7, 8, 4]	19	FR1	3	R1323T
2556.593	9.01	2557663	PROB	9.01	n/a	n/a	-999	22	[5, 4, 7]	15	FR1	3	R1323T
2565.603	0.008	2566673	STOP	n/a	n/a	n/a	-999	22	[-999, -999, -999]	n/a	FR1	3	R1323T
2565.611	0.652	2566681	DISTRACT_END	n/a	n/a	n/a	-999	22	[0, 0, 0]	n/a	FR1	3	R1323T
2566.263	1.532	2567333	RETRIEVAL_ORIENT_START	n/a	n/a	n/a	-999	22	[0, 0, 0]	n/a	FR1	3	R1323T
2567.795	0.0	2568865	RETRIEVAL_ORIENT_END	n/a	n/a	n/a	-999	22	[0, 0, 0]	n/a	FR1	3	R1323T
2567.795	1.269	2568865	REC_START	n/a	n/a	n/a	-999	22	[0, 0, 0]	n/a	FR1	3	R1323T
2569.064	0.69	2570134	REC_WORD_VV	0.69	n/a	<>	-999	22	[0, 0, 0]	n/a	FR1	3	R1323T
2569.754	28.054	2570824	REC_WORD	28.054	n/a	LAMB	9	22	[0, 0, 0]	n/a	FR1	3	R1323T
2597.808	0.0	2598877	TRIAL_END	n/a	n/a	n/a	-999	22	[0, 0, 0]	n/a	FR1	3	R1323T
2597.808	0.015	2598877	REC_END	n/a	n/a	n/a	-999	22	[0, 0, 0]	n/a	FR1	3	R1323T
2597.823	0.001	2598892	TRIAL_START	n/a	n/a	n/a	-999	23	[0, 0, 0]	n/a	FR1	3	R1323T
2597.824	0.0	2598893	TRIAL	n/a	n/a	n/a	-999	23	[0, 0, 0]	n/a	FR1	3	R1323T
2597.824	6.728	2598893	WAITING_START	n/a	n/a	n/a	-999	23	[0, 0, 0]	n/a	FR1	3	R1323T
2604.552	0.0	2605620	WAITING_END	n/a	n/a	n/a	-999	23	[0, 0, 0]	n/a	FR1	3	R1323T
2604.552	10.428	2605620	COUNTDOWN_START	n/a	n/a	n/a	-999	23	[0, 0, 0]	n/a	FR1	3	R1323T
2614.98	0.001	2616048	COUNTDOWN_END	n/a	n/a	n/a	-999	23	[0, 0, 0]	n/a	FR1	3	R1323T
2614.981	1.038	2616049	ORIENT_START	n/a	n/a	n/a	-999	23	[0, 0, 0]	n/a	FR1	3	R1323T
2616.019	0.001	2617087	ORIENT_END	n/a	n/a	n/a	-999	23	[0, 0, 0]	n/a	FR1	3	R1323T
2616.02	0.789	2617088	ENCODING_START	n/a	n/a	n/a	-999	23	[0, 0, 0]	n/a	FR1	3	R1323T
2616.809	1.629	2617877	WORD	n/a	n/a	MAZE	1	23	[0, 0, 0]	n/a	FR1	3	R1323T
2618.438	1.095	2619506	WORD_OFF	n/a	n/a	MAZE	1	23	[0, 0, 0]	n/a	FR1	3	R1323T
2619.533	1.621	2620601	WORD	n/a	n/a	SKUNK	2	23	[0, 0, 0]	n/a	FR1	3	R1323T
2621.154	0.876	2622222	WORD_OFF	n/a	n/a	SKUNK	2	23	[0, 0, 0]	n/a	FR1	3	R1323T
2622.03	1.625	2623097	WORD	n/a	n/a	DIME	3	23	[0, 0, 0]	n/a	FR1	3	R1323T
2623.655	0.832	2624722	WORD_OFF	n/a	n/a	DIME	3	23	[0, 0, 0]	n/a	FR1	3	R1323T
2624.487	1.634	2625554	WORD	n/a	n/a	POND	4	23	[0, 0, 0]	n/a	FR1	3	R1323T
2626.121	0.894	2627188	WORD_OFF	n/a	n/a	POND	4	23	[0, 0, 0]	n/a	FR1	3	R1323T
2627.015	1.607	2628082	WORD	n/a	n/a	KEY	5	23	[0, 0, 0]	n/a	FR1	3	R1323T
2628.622	0.756	2629689	WORD_OFF	n/a	n/a	KEY	5	23	[0, 0, 0]	n/a	FR1	3	R1323T
2629.378	1.628	2630445	WORD	n/a	n/a	SHEEP	6	23	[0, 0, 0]	n/a	FR1	3	R1323T
2631.006	1.086	2632073	WORD_OFF	n/a	n/a	SHEEP	6	23	[0, 0, 0]	n/a	FR1	3	R1323T
2632.092	1.632	2633159	WORD	n/a	n/a	SAIL	7	23	[0, 0, 0]	n/a	FR1	3	R1323T
2633.724	0.999	2634791	WORD_OFF	n/a	n/a	SAIL	7	23	[0, 0, 0]	n/a	FR1	3	R1323T
2634.723	1.634	2635790	WORD	n/a	n/a	BLUSH	8	23	[0, 0, 0]	n/a	FR1	3	R1323T
2636.357	1.147	2637424	WORD_OFF	n/a	n/a	BLUSH	8	23	[0, 0, 0]	n/a	FR1	3	R1323T
2637.504	1.62	2638571	WORD	n/a	n/a	BOX	9	23	[0, 0, 0]	n/a	FR1	3	R1323T
2639.124	0.948	2640191	WORD_OFF	n/a	n/a	BOX	9	23	[0, 0, 0]	n/a	FR1	3	R1323T
2640.072	1.636	2641139	WORD	n/a	n/a	DOOR	10	23	[0, 0, 0]	n/a	FR1	3	R1323T
2641.708	1.112	2642775	WORD_OFF	n/a	n/a	DOOR	10	23	[0, 0, 0]	n/a	FR1	3	R1323T
2642.82	1.622	2643887	WORD	n/a	n/a	FLUTE	11	23	[0, 0, 0]	n/a	FR1	3	R1323T
2644.442	0.909	2645509	WORD_OFF	n/a	n/a	FLUTE	11	23	[0, 0, 0]	n/a	FR1	3	R1323T
2645.351	1.624	2646417	WORD	n/a	n/a	BARN	12	23	[0, 0, 0]	n/a	FR1	3	R1323T
2646.975	0.0	2648041	WORD_OFF	n/a	n/a	BARN	12	23	[0, 0, 0]	n/a	FR1	3	R1323T
2646.975	0.001	2648041	ENCODING_END	n/a	n/a	n/a	-999	23	[0, 0, 0]	n/a	FR1	3	R1323T
2646.976	0.0	2648042	DISTRACT_START	n/a	n/a	n/a	-999	23	[0, 0, 0]	n/a	FR1	3	R1323T
2646.976	0.015	2648042	START	n/a	n/a	n/a	-999	23	[-999, -999, -999]	n/a	FR1	3	R1323T
2646.991	10.119	2648057	PROB	10.119	n/a	n/a	-999	23	[6, 5, 8]	19	FR1	3	R1323T
2657.11	8.068	2658176	PROB	8.068	n/a	n/a	-999	23	[5, 7, 4]	16	FR1	3	R1323T
2665.178	5.555	2666244	PROB	5.555	n/a	n/a	-999	23	[4, 4, 2]	10	FR1	3	R1323T
2670.733	0.014	2671798	STOP	n/a	n/a	n/a	-999	23	[-999, -999, -999]	n/a	FR1	3	R1323T
2670.747	0.528	2671812	DISTRACT_END	n/a	n/a	n/a	-999	23	[0, 0, 0]	n/a	FR1	3	R1323T
2671.275	1.556	2672340	RETRIEVAL_ORIENT_START	n/a	n/a	n/a	-999	23	[0, 0, 0]	n/a	FR1	3	R1323T
2672.831	0.0	2673896	RETRIEVAL_ORIENT_END	n/a	n/a	n/a	-999	23	[0, 0, 0]	n/a	FR1	3	R1323T
2672.831	1.151	2673896	REC_START	n/a	n/a	n/a	-999	23	[0, 0, 0]	n/a	FR1	3	R1323T
2673.982	1.578	2675047	REC_WORD	1.578	n/a	BLUSH	8	23	[0, 0, 0]	n/a	FR1	3	R1323T
2675.56	2.623	2676625	REC_WORD	2.623	n/a	POND	4	23	[0, 0, 0]	n/a	FR1	3	R1323T
2678.183	13.189	2679248	REC_WORD	13.189	n/a	SAIL	7	23	[0, 0, 0]	n/a	FR1	3	R1323T
2691.372	11.471	2692436	REC_WORD	11.471	n/a	BOAT	-999	23	[0, 0, 0]	n/a	FR1	3	R1323T
2702.843	0.0	2703907	REC_END	n/a	n/a	n/a	-999	23	[0, 0, 0]	n/a	FR1	3	R1323T
2702.843	0.015	2703907	TRIAL_END	n/a	n/a	n/a	-999	23	[0, 0, 0]	n/a	FR1	3	R1323T
2702.858	0.001	2703922	TRIAL_START	n/a	n/a	n/a	-999	24	[0, 0, 0]	n/a	FR1	3	R1323T
2702.859	0.0	2703923	TRIAL	n/a	n/a	n/a	-999	24	[0, 0, 0]	n/a	FR1	3	R1323T
2702.859	5.144	2703923	WAITING_START	n/a	n/a	n/a	-999	24	[0, 0, 0]	n/a	FR1	3	R1323T
2708.003	0.0	2709067	WAITING_END	n/a	n/a	n/a	-999	24	[0, 0, 0]	n/a	FR1	3	R1323T
2708.003	10.428	2709067	COUNTDOWN_START	n/a	n/a	n/a	-999	24	[0, 0, 0]	n/a	FR1	3	R1323T
2718.431	0.001	2719494	COUNTDOWN_END	n/a	n/a	n/a	-999	24	[0, 0, 0]	n/a	FR1	3	R1323T
2718.432	1.224	2719495	ORIENT_START	n/a	n/a	n/a	-999	24	[0, 0, 0]	n/a	FR1	3	R1323T
2719.656	0.0	2720719	ORIENT_END	n/a	n/a	n/a	-999	24	[0, 0, 0]	n/a	FR1	3	R1323T
2719.656	1.073	2720719	ENCODING_START	n/a	n/a	n/a	-999	24	[0, 0, 0]	n/a	FR1	3	R1323T
2720.729	1.627	2721792	WORD	n/a	n/a	BENCH	1	24	[0, 0, 0]	n/a	FR1	3	R1323T
2722.356	1.037	2723419	WORD_OFF	n/a	n/a	BENCH	1	24	[0, 0, 0]	n/a	FR1	3	R1323T
2723.393	1.63	2724456	WORD	n/a	n/a	SEAL	2	24	[0, 0, 0]	n/a	FR1	3	R1323T
2725.023	0.944	2726086	WORD_OFF	n/a	n/a	SEAL	2	24	[0, 0, 0]	n/a	FR1	3	R1323T
2725.967	1.624	2727030	WORD	n/a	n/a	SHEET	3	24	[0, 0, 0]	n/a	FR1	3	R1323T
2727.591	0.957	2728654	WORD_OFF	n/a	n/a	SHEET	3	24	[0, 0, 0]	n/a	FR1	3	R1323T
2728.548	1.626	2729611	WORD	n/a	n/a	GEESE	4	24	[0, 0, 0]	n/a	FR1	3	R1323T
2730.174	1.067	2731237	WORD_OFF	n/a	n/a	GEESE	4	24	[0, 0, 0]	n/a	FR1	3	R1323T
2731.241	1.633	2732304	WORD	n/a	n/a	LAWN	5	24	[0, 0, 0]	n/a	FR1	3	R1323T
2732.874	0.789	2733937	WORD_OFF	n/a	n/a	LAWN	5	24	[0, 0, 0]	n/a	FR1	3	R1323T
2733.663	1.628	2734726	WORD	n/a	n/a	RAT	6	24	[0, 0, 0]	n/a	FR1	3	R1323T
2735.291	0.99	2736354	WORD_OFF	n/a	n/a	RAT	6	24	[0, 0, 0]	n/a	FR1	3	R1323T
2736.281	1.627	2737344	WORD	n/a	n/a	FACE	7	24	[0, 0, 0]	n/a	FR1	3	R1323T
2737.908	0.815	2738970	WORD_OFF	n/a	n/a	FACE	7	24	[0, 0, 0]	n/a	FR1	3	R1323T
2738.723	1.637	2739785	WORD	n/a	n/a	BATH	8	24	[0, 0, 0]	n/a	FR1	3	R1323T
2740.36	0.975	2741422	WORD_OFF	n/a	n/a	BATH	8	24	[0, 0, 0]	n/a	FR1	3	R1323T
2741.335	1.624	2742397	WORD	n/a	n/a	WORM	9	24	[0, 0, 0]	n/a	FR1	3	R1323T
2742.959	1.142	2744021	WORD_OFF	n/a	n/a	WORM	9	24	[0, 0, 0]	n/a	FR1	3	R1323T
2744.101	1.609	2745163	WORD	n/a	n/a	HAT	10	24	[0, 0, 0]	n/a	FR1	3	R1323T
2745.71	0.958	2746772	WORD_OFF	n/a	n/a	HAT	10	24	[0, 0, 0]	n/a	FR1	3	R1323T
2746.668	1.626	2747730	WORD	n/a	n/a	CLOCK	11	24	[0, 0, 0]	n/a	FR1	3	R1323T
2748.294	1.093	2749356	WORD_OFF	n/a	n/a	CLOCK	11	24	[0, 0, 0]	n/a	FR1	3	R1323T
2749.387	1.624	2750449	WORD	n/a	n/a	ANT	12	24	[0, 0, 0]	n/a	FR1	3	R1323T
2751.011	0.0	2752073	WORD_OFF	n/a	n/a	ANT	12	24	[0, 0, 0]	n/a	FR1	3	R1323T
2751.011	0.0	2752073	ENCODING_END	n/a	n/a	n/a	-999	24	[0, 0, 0]	n/a	FR1	3	R1323T
2751.011	0.001	2752073	DISTRACT_START	n/a	n/a	n/a	-999	24	[0, 0, 0]	n/a	FR1	3	R1323T
2751.012	0.015	2752074	START	n/a	n/a	n/a	-999	24	[-999, -999, -999]	n/a	FR1	3	R1323T
2751.027	9.919	2752089	PROB	9.919	n/a	n/a	-999	24	[5, 6, 9]	15	FR1	3	R1323T
2760.946	7.201	2762007	PROB	7.201	n/a	n/a	-999	24	[5, 7, 4]	15	FR1	3	R1323T
2768.147	8.284	2769208	PROB	8.284	n/a	n/a	-999	24	[2, 8, 7]	17	FR1	3	R1323T
2776.431	0.019	2777492	STOP	n/a	n/a	n/a	-999	24	[-999, -999, -999]	n/a	FR1	3	R1323T
2776.45	0.501	2777511	DISTRACT_END	n/a	n/a	n/a	-999	24	[0, 0, 0]	n/a	FR1	3	R1323T
2776.951	1.615	2778012	RETRIEVAL_ORIENT_START	n/a	n/a	n/a	-999	24	[0, 0, 0]	n/a	FR1	3	R1323T
2778.566	0.001	2779627	RETRIEVAL_ORIENT_END	n/a	n/a	n/a	-999	24	[0, 0, 0]	n/a	FR1	3	R1323T
2778.567	0.934	2779628	REC_START	n/a	n/a	n/a	-999	24	[0, 0, 0]	n/a	FR1	3	R1323T
2779.501	1.307	2780562	REC_WORD	1.307	n/a	ANT	12	24	[0, 0, 0]	n/a	FR1	3	R1323T
2780.808	1.211	2781869	REC_WORD	1.211	n/a	GEESE	4	24	[0, 0, 0]	n/a	FR1	3	R1323T
2782.019	15.853	2783080	REC_WORD	15.853	n/a	RAT	6	24	[0, 0, 0]	n/a	FR1	3	R1323T
2797.872	10.708	2798932	REC_WORD	10.708	n/a	CROW	-999	24	[0, 0, 0]	n/a	FR1	3	R1323T
2808.58	0.0	2809639	REC_END	n/a	n/a	n/a	-999	24	[0, 0, 0]	n/a	FR1	3	R1323T
2808.58	0.016	2809639	TRIAL_END	n/a	n/a	n/a	-999	24	[0, 0, 0]	n/a	FR1	3	R1323T
2808.596	0.0	2809655	WAITING_START	n/a	n/a	n/a	-999	25	[0, 0, 0]	n/a	FR1	3	R1323T
2808.596	0.0	2809655	TRIAL	n/a	n/a	n/a	-999	25	[0, 0, 0]	n/a	FR1	3	R1323T
