onset	duration	sample	trial_type	response_time	stim_file	item_name	serialpos	list	test	answer	experiment	session	subject
0.0	4.312	55882	INSTRUCT_START	n/a	n/a	n/a	-999	-999	[0, 0, 0]	n/a	FR1	4	R1377M
4.312	90.4	60195	INSTRUCT_END	n/a	n/a	n/a	-999	-999	[0, 0, 0]	n/a	FR1	4	R1377M
94.712	10.351	150591	COUNTDOWN_START	n/a	n/a	n/a	-999	-999	[0, 0, 0]	n/a	FR1	4	R1377M
105.063	0.001	160938	COUNTDOWN_END	n/a	n/a	n/a	-999	-999	[0, 0, 0]	n/a	FR1	4	R1377M
105.064	2.282	160938	ENCODING_START	n/a	n/a	n/a	-999	-1	[0, 0, 0]	n/a	FR1	4	R1377M
107.346	1.617	163225	WORD	n/a	n/a	CHEST	1	-1	[0, 0, 0]	n/a	FR1	4	R1377M
108.963	0.915	164851	WORD_OFF	n/a	n/a	CHEST	1	-1	[0, 0, 0]	n/a	FR1	4	R1377M
109.878	1.6	165760	WORD	n/a	n/a	BABY	2	-1	[0, 0, 0]	n/a	FR1	4	R1377M
111.478	1.001	167358	WORD_OFF	n/a	n/a	BABY	2	-1	[0, 0, 0]	n/a	FR1	4	R1377M
112.479	1.6	168364	WORD	n/a	n/a	WAGON	3	-1	[0, 0, 0]	n/a	FR1	4	R1377M
114.079	0.934	169962	WORD_OFF	n/a	n/a	WAGON	3	-1	[0, 0, 0]	n/a	FR1	4	R1377M
115.013	1.616	170899	WORD	n/a	n/a	RHINO	4	-1	[0, 0, 0]	n/a	FR1	4	R1377M
116.629	0.8	172511	WORD_OFF	n/a	n/a	RHINO	4	-1	[0, 0, 0]	n/a	FR1	4	R1377M
117.429	1.6	173310	WORD	n/a	n/a	IMAGE	5	-1	[0, 0, 0]	n/a	FR1	4	R1377M
119.029	1.0	174908	WORD_OFF	n/a	n/a	IMAGE	5	-1	[0, 0, 0]	n/a	FR1	4	R1377M
120.029	1.617	175914	WORD	n/a	n/a	TONGUE	6	-1	[0, 0, 0]	n/a	FR1	4	R1377M
121.646	1.0	177526	WORD_OFF	n/a	n/a	TONGUE	6	-1	[0, 0, 0]	n/a	FR1	4	R1377M
122.646	1.6	178518	WORD	n/a	n/a	COTTON	7	-1	[0, 0, 0]	n/a	FR1	4	R1377M
124.246	0.983	180130	WORD_OFF	n/a	n/a	COTTON	7	-1	[0, 0, 0]	n/a	FR1	4	R1377M
125.229	1.6	181108	WORD	n/a	n/a	FLOOD	8	-1	[0, 0, 0]	n/a	FR1	4	R1377M
126.829	0.784	182706	WORD_OFF	n/a	n/a	FLOOD	8	-1	[0, 0, 0]	n/a	FR1	4	R1377M
127.613	1.616	183492	WORD	n/a	n/a	RING	9	-1	[0, 0, 0]	n/a	FR1	4	R1377M
129.229	0.884	185104	WORD_OFF	n/a	n/a	RING	9	-1	[0, 0, 0]	n/a	FR1	4	R1377M
130.113	1.615	185986	WORD	n/a	n/a	CAMEL	10	-1	[0, 0, 0]	n/a	FR1	4	R1377M
131.728	0.851	187611	WORD_OFF	n/a	n/a	CAMEL	10	-1	[0, 0, 0]	n/a	FR1	4	R1377M
132.579	1.6	188452	WORD	n/a	n/a	BEAM	11	-1	[0, 0, 0]	n/a	FR1	4	R1377M
134.179	1.0	190050	WORD_OFF	n/a	n/a	BEAM	11	-1	[0, 0, 0]	n/a	FR1	4	R1377M
135.179	1.6	191056	WORD	n/a	n/a	WATCH	12	-1	[0, 0, 0]	n/a	FR1	4	R1377M
136.779	0.002	192654	WORD_OFF	n/a	n/a	WATCH	12	-1	[0, 0, 0]	n/a	FR1	4	R1377M
136.781	0.0	192654	ENCODING_END	n/a	n/a	n/a	-999	-1	[0, 0, 0]	n/a	FR1	4	R1377M
136.781	0.001	192657	PROB	0.001	n/a	n/a	-999	-1	[8, 2, 8]	18	FR1	4	R1377M
136.782	0.0	192658	START	n/a	n/a	n/a	-999	-1	[-999, -999, -999]	n/a	FR1	4	R1377M
136.782	5.565	192668	DISTRACT_START	n/a	n/a	n/a	-999	-1	[0, 0, 0]	n/a	FR1	4	R1377M
142.347	4.366	198222	PROB	4.366	n/a	n/a	-999	-1	[2, 3, 8]	13	FR1	4	R1377M
146.713	3.767	202588	PROB	3.767	n/a	n/a	-999	-1	[2, 7, 4]	13	FR1	4	R1377M
150.48	3.716	206355	PROB	3.716	n/a	n/a	-999	-1	[8, 7, 1]	16	FR1	4	R1377M
154.196	3.583	210071	PROB	3.583	n/a	n/a	-999	-1	[1, 2, 1]	4	FR1	4	R1377M
157.779	0.0	213651	DISTRACT_END	n/a	n/a	n/a	-999	-1	[0, 0, 0]	n/a	FR1	4	R1377M
157.779	1.301	213654	STOP	n/a	n/a	n/a	-999	-1	[-999, -999, -999]	n/a	FR1	4	R1377M
159.08	1.901	214960	REC_START	n/a	n/a	n/a	-999	-1	[0, 0, 0]	n/a	FR1	4	R1377M
160.981	0.865	216855	REC_WORD	0.865	n/a	CHEST	1	-1	[0, 0, 0]	n/a	FR1	4	R1377M
161.846	0.807	217720	REC_WORD	0.807	n/a	BABY	2	-1	[0, 0, 0]	n/a	FR1	4	R1377M
162.653	1.035	218527	REC_WORD	1.035	n/a	WAGON	3	-1	[0, 0, 0]	n/a	FR1	4	R1377M
163.688	2.005	219562	REC_WORD	2.005	n/a	RHINO	4	-1	[0, 0, 0]	n/a	FR1	4	R1377M
165.693	0.899	221567	REC_WORD	0.899	n/a	IMAGE	5	-1	[0, 0, 0]	n/a	FR1	4	R1377M
166.592	12.185	222466	REC_WORD	12.185	n/a	FLOOD	8	-1	[0, 0, 0]	n/a	FR1	4	R1377M
178.777	10.558	234651	REC_WORD_VV	10.558	n/a	<>	-999	-1	[0, 0, 0]	n/a	FR1	4	R1377M
189.335	13.911	245216	REC_END	n/a	n/a	n/a	-999	-1	[0, 0, 0]	n/a	FR1	4	R1377M
203.246	10.35	259118	COUNTDOWN_START	n/a	n/a	n/a	-999	1	[0, 0, 0]	n/a	FR1	4	R1377M
213.596	0.001	269465	COUNTDOWN_END	n/a	n/a	n/a	-999	1	[0, 0, 0]	n/a	FR1	4	R1377M
213.597	2.299	269465	ENCODING_START	n/a	n/a	n/a	-999	1	[0, 0, 0]	n/a	FR1	4	R1377M
215.896	1.617	271766	WORD	n/a	n/a	CONE	1	1	[0, 0, 0]	n/a	FR1	4	R1377M
217.513	0.966	273392	WORD_OFF	n/a	n/a	CONE	1	1	[0, 0, 0]	n/a	FR1	4	R1377M
218.479	1.617	274356	WORD	n/a	n/a	STONE	2	1	[0, 0, 0]	n/a	FR1	4	R1377M
220.096	0.8	275968	WORD_OFF	n/a	n/a	STONE	2	1	[0, 0, 0]	n/a	FR1	4	R1377M
220.896	1.616	276767	WORD	n/a	n/a	RIB	3	1	[0, 0, 0]	n/a	FR1	4	R1377M
222.512	0.901	278379	WORD_OFF	n/a	n/a	RIB	3	1	[0, 0, 0]	n/a	FR1	4	R1377M
223.413	1.6	279289	WORD	n/a	n/a	ARK	4	1	[0, 0, 0]	n/a	FR1	4	R1377M
225.013	0.9	280887	WORD_OFF	n/a	n/a	ARK	4	1	[0, 0, 0]	n/a	FR1	4	R1377M
225.913	1.6	281782	WORD	n/a	n/a	EARTH	5	1	[0, 0, 0]	n/a	FR1	4	R1377M
227.513	0.9	283381	WORD_OFF	n/a	n/a	EARTH	5	1	[0, 0, 0]	n/a	FR1	4	R1377M
228.413	1.6	284290	WORD	n/a	n/a	WHEAT	6	1	[0, 0, 0]	n/a	FR1	4	R1377M
230.013	0.883	285888	WORD_OFF	n/a	n/a	WHEAT	6	1	[0, 0, 0]	n/a	FR1	4	R1377M
230.896	1.6	286770	WORD	n/a	n/a	CASH	7	1	[0, 0, 0]	n/a	FR1	4	R1377M
232.496	0.983	288368	WORD_OFF	n/a	n/a	CASH	7	1	[0, 0, 0]	n/a	FR1	4	R1377M
233.479	1.6	289346	WORD	n/a	n/a	KEY	8	1	[0, 0, 0]	n/a	FR1	4	R1377M
235.079	0.817	290958	WORD_OFF	n/a	n/a	KEY	8	1	[0, 0, 0]	n/a	FR1	4	R1377M
235.896	1.617	291771	WORD	n/a	n/a	GLOVE	9	1	[0, 0, 0]	n/a	FR1	4	R1377M
237.513	0.9	293383	WORD_OFF	n/a	n/a	GLOVE	9	1	[0, 0, 0]	n/a	FR1	4	R1377M
238.413	1.616	294279	WORD	n/a	n/a	TREE	10	1	[0, 0, 0]	n/a	FR1	4	R1377M
240.029	0.967	295905	WORD_OFF	n/a	n/a	TREE	10	1	[0, 0, 0]	n/a	FR1	4	R1377M
240.996	1.617	296869	WORD	n/a	n/a	RAMP	11	1	[0, 0, 0]	n/a	FR1	4	R1377M
242.613	0.883	298481	WORD_OFF	n/a	n/a	RAMP	11	1	[0, 0, 0]	n/a	FR1	4	R1377M
243.496	1.6	299363	WORD	n/a	n/a	OWL	12	1	[0, 0, 0]	n/a	FR1	4	R1377M
245.096	0.001	300961	WORD_OFF	n/a	n/a	OWL	12	1	[0, 0, 0]	n/a	FR1	4	R1377M
245.097	0.001	300968	START	n/a	n/a	n/a	-999	1	[-999, -999, -999]	n/a	FR1	4	R1377M
245.098	0.0	300969	PROB	0.0	n/a	n/a	-999	1	[2, 8, 1]	11	FR1	4	R1377M
245.097	0.0	300975	ENCODING_END	n/a	n/a	n/a	-999	1	[0, 0, 0]	n/a	FR1	4	R1377M
245.097	4.766	300975	DISTRACT_START	n/a	n/a	n/a	-999	1	[0, 0, 0]	n/a	FR1	4	R1377M
249.863	3.683	305733	PROB	3.683	n/a	n/a	-999	1	[6, 5, 5]	16	FR1	4	R1377M
253.546	3.2	309416	PROB	3.2	n/a	n/a	-999	1	[5, 2, 2]	9	FR1	4	R1377M
256.746	3.383	312616	PROB	3.383	n/a	n/a	-999	1	[6, 2, 4]	12	FR1	4	R1377M
260.129	3.984	315999	PROB	3.984	n/a	n/a	-999	1	[8, 4, 3]	15	FR1	4	R1377M
264.113	3.234	319983	PROB	3.234	n/a	n/a	-999	1	[6, 2, 4]	12	FR1	4	R1377M
267.347	0.0	323212	DISTRACT_END	n/a	n/a	n/a	-999	1	[0, 0, 0]	n/a	FR1	4	R1377M
267.347	1.248	323216	STOP	n/a	n/a	n/a	-999	1	[-999, -999, -999]	n/a	FR1	4	R1377M
268.595	1.845	324466	REC_START	n/a	n/a	n/a	-999	1	[0, 0, 0]	n/a	FR1	4	R1377M
270.44	0.665	326309	REC_WORD	0.665	n/a	CONE	1	1	[0, 0, 0]	n/a	FR1	4	R1377M
271.105	1.496	326974	REC_WORD	1.496	n/a	STONE	2	1	[0, 0, 0]	n/a	FR1	4	R1377M
272.601	1.081	328470	REC_WORD	1.081	n/a	RIB	3	1	[0, 0, 0]	n/a	FR1	4	R1377M
273.682	1.052	329551	REC_WORD	1.052	n/a	ARK	4	1	[0, 0, 0]	n/a	FR1	4	R1377M
274.734	1.248	330603	REC_WORD	1.248	n/a	EARTH	5	1	[0, 0, 0]	n/a	FR1	4	R1377M
275.982	14.617	331851	REC_WORD	14.617	n/a	TREE	10	1	[0, 0, 0]	n/a	FR1	4	R1377M
290.599	8.239	346467	REC_WORD_VV	8.239	n/a	<>	-999	1	[0, 0, 0]	n/a	FR1	4	R1377M
298.838	3.59	354708	REC_END	n/a	n/a	n/a	-999	1	[0, 0, 0]	n/a	FR1	4	R1377M
302.428	10.352	358304	COUNTDOWN_START	n/a	n/a	n/a	-999	2	[0, 0, 0]	n/a	FR1	4	R1377M
312.78	0.0	368651	COUNTDOWN_END	n/a	n/a	n/a	-999	2	[0, 0, 0]	n/a	FR1	4	R1377M
312.78	2.183	368651	ENCODING_START	n/a	n/a	n/a	-999	2	[0, 0, 0]	n/a	FR1	4	R1377M
314.963	1.616	370828	WORD	n/a	n/a	CHALK	1	2	[0, 0, 0]	n/a	FR1	4	R1377M
316.579	0.967	372454	WORD_OFF	n/a	n/a	CHALK	1	2	[0, 0, 0]	n/a	FR1	4	R1377M
317.546	1.617	373418	WORD	n/a	n/a	SLEEVE	2	2	[0, 0, 0]	n/a	FR1	4	R1377M
319.163	0.916	375030	WORD_OFF	n/a	n/a	SLEEVE	2	2	[0, 0, 0]	n/a	FR1	4	R1377M
320.079	1.6	375953	WORD	n/a	n/a	BLOOD	3	2	[0, 0, 0]	n/a	FR1	4	R1377M
321.679	0.967	377552	WORD_OFF	n/a	n/a	BLOOD	3	2	[0, 0, 0]	n/a	FR1	4	R1377M
322.646	1.617	378516	WORD	n/a	n/a	BAY	4	2	[0, 0, 0]	n/a	FR1	4	R1377M
324.263	0.866	380128	WORD_OFF	n/a	n/a	BAY	4	2	[0, 0, 0]	n/a	FR1	4	R1377M
325.129	1.6	380996	WORD	n/a	n/a	FOOD	5	2	[0, 0, 0]	n/a	FR1	4	R1377M
326.729	0.834	382594	WORD_OFF	n/a	n/a	FOOD	5	2	[0, 0, 0]	n/a	FR1	4	R1377M
327.563	1.6	383435	WORD	n/a	n/a	STORM	6	2	[0, 0, 0]	n/a	FR1	4	R1377M
329.163	0.865	385033	WORD_OFF	n/a	n/a	STORM	6	2	[0, 0, 0]	n/a	FR1	4	R1377M
330.028	1.601	385901	WORD	n/a	n/a	STEW	7	2	[0, 0, 0]	n/a	FR1	4	R1377M
331.629	0.817	387499	WORD_OFF	n/a	n/a	STEW	7	2	[0, 0, 0]	n/a	FR1	4	R1377M
332.446	1.6	388312	WORD	n/a	n/a	POT	8	2	[0, 0, 0]	n/a	FR1	4	R1377M
334.046	0.766	389910	WORD_OFF	n/a	n/a	POT	8	2	[0, 0, 0]	n/a	FR1	4	R1377M
334.812	1.617	390682	WORD	n/a	n/a	AISLE	9	2	[0, 0, 0]	n/a	FR1	4	R1377M
336.429	0.8	392294	WORD_OFF	n/a	n/a	AISLE	9	2	[0, 0, 0]	n/a	FR1	4	R1377M
337.229	1.6	393093	WORD	n/a	n/a	MUG	10	2	[0, 0, 0]	n/a	FR1	4	R1377M
338.829	0.984	394691	WORD_OFF	n/a	n/a	MUG	10	2	[0, 0, 0]	n/a	FR1	4	R1377M
339.813	1.6	395683	WORD	n/a	n/a	LOCK	11	2	[0, 0, 0]	n/a	FR1	4	R1377M
341.413	1.0	397281	WORD_OFF	n/a	n/a	LOCK	11	2	[0, 0, 0]	n/a	FR1	4	R1377M
342.413	1.6	398287	WORD	n/a	n/a	MOOSE	12	2	[0, 0, 0]	n/a	FR1	4	R1377M
344.013	0.001	399879	PROB	0.001	n/a	n/a	-999	2	[7, 6, 1]	14	FR1	4	R1377M
344.014	0.0	399880	START	n/a	n/a	n/a	-999	2	[-999, -999, -999]	n/a	FR1	4	R1377M
344.013	0.001	399885	WORD_OFF	n/a	n/a	MOOSE	12	2	[0, 0, 0]	n/a	FR1	4	R1377M
344.014	0.0	399885	ENCODING_END	n/a	n/a	n/a	-999	2	[0, 0, 0]	n/a	FR1	4	R1377M
344.014	5.482	399885	DISTRACT_START	n/a	n/a	n/a	-999	2	[0, 0, 0]	n/a	FR1	4	R1377M
349.496	3.601	405362	PROB	3.601	n/a	n/a	-999	2	[1, 2, 2]	5	FR1	4	R1377M
353.097	4.116	408963	PROB	4.116	n/a	n/a	-999	2	[7, 8, 2]	17	FR1	4	R1377M
357.213	3.0	413078	PROB	3.0	n/a	n/a	-999	2	[3, 5, 4]	12	FR1	4	R1377M
360.213	5.482	416078	PROB	5.482	n/a	n/a	-999	2	[6, 3, 4]	13	FR1	4	R1377M
365.695	0.0	421558	DISTRACT_END	n/a	n/a	n/a	-999	2	[0, 0, 0]	n/a	FR1	4	R1377M
365.695	1.167	421560	STOP	n/a	n/a	n/a	-999	2	[-999, -999, -999]	n/a	FR1	4	R1377M
366.862	2.67	422729	REC_START	n/a	n/a	n/a	-999	2	[0, 0, 0]	n/a	FR1	4	R1377M
369.532	0.709	425397	REC_WORD	0.709	n/a	CHALK	1	2	[0, 0, 0]	n/a	FR1	4	R1377M
370.241	1.245	426106	REC_WORD	1.245	n/a	SLEEVE	2	2	[0, 0, 0]	n/a	FR1	4	R1377M
371.486	1.474	427351	REC_WORD	1.474	n/a	BLOOD	3	2	[0, 0, 0]	n/a	FR1	4	R1377M
372.96	0.717	428825	REC_WORD	0.717	n/a	BAY	4	2	[0, 0, 0]	n/a	FR1	4	R1377M
373.677	1.067	429542	REC_WORD	1.067	n/a	FOOD	5	2	[0, 0, 0]	n/a	FR1	4	R1377M
374.744	2.792	430609	REC_WORD	2.792	n/a	POT	8	2	[0, 0, 0]	n/a	FR1	4	R1377M
377.536	19.559	433400	REC_WORD	19.559	n/a	STEW	7	2	[0, 0, 0]	n/a	FR1	4	R1377M
397.095	4.084	452957	REC_END	n/a	n/a	n/a	-999	2	[0, 0, 0]	n/a	FR1	4	R1377M
401.179	10.35	457049	COUNTDOWN_START	n/a	n/a	n/a	-999	3	[0, 0, 0]	n/a	FR1	4	R1377M
411.529	0.0	467396	COUNTDOWN_END	n/a	n/a	n/a	-999	3	[0, 0, 0]	n/a	FR1	4	R1377M
411.529	2.05	467396	ENCODING_START	n/a	n/a	n/a	-999	3	[0, 0, 0]	n/a	FR1	4	R1377M
413.579	1.617	469449	WORD	n/a	n/a	LIMB	1	3	[0, 0, 0]	n/a	FR1	4	R1377M
415.196	0.917	471061	WORD_OFF	n/a	n/a	LIMB	1	3	[0, 0, 0]	n/a	FR1	4	R1377M
416.113	1.6	471971	WORD	n/a	n/a	PORK	2	3	[0, 0, 0]	n/a	FR1	4	R1377M
417.713	0.916	473583	WORD_OFF	n/a	n/a	PORK	2	3	[0, 0, 0]	n/a	FR1	4	R1377M
418.629	1.617	474492	WORD	n/a	n/a	HOUSE	3	3	[0, 0, 0]	n/a	FR1	4	R1377M
420.246	0.799	476104	WORD_OFF	n/a	n/a	HOUSE	3	3	[0, 0, 0]	n/a	FR1	4	R1377M
421.045	1.601	476903	WORD	n/a	n/a	BOLT	4	3	[0, 0, 0]	n/a	FR1	4	R1377M
422.646	0.85	478515	WORD_OFF	n/a	n/a	BOLT	4	3	[0, 0, 0]	n/a	FR1	4	R1377M
423.496	1.616	479356	WORD	n/a	n/a	WOOD	5	3	[0, 0, 0]	n/a	FR1	4	R1377M
425.112	0.817	480981	WORD_OFF	n/a	n/a	WOOD	5	3	[0, 0, 0]	n/a	FR1	4	R1377M
425.929	1.6	481794	WORD	n/a	n/a	WAVE	6	3	[0, 0, 0]	n/a	FR1	4	R1377M
427.529	0.95	483392	WORD_OFF	n/a	n/a	WAVE	6	3	[0, 0, 0]	n/a	FR1	4	R1377M
428.479	1.6	484343	WORD	n/a	n/a	WORM	7	3	[0, 0, 0]	n/a	FR1	4	R1377M
430.079	0.95	485941	WORD_OFF	n/a	n/a	WORM	7	3	[0, 0, 0]	n/a	FR1	4	R1377M
431.029	1.617	486892	WORD	n/a	n/a	CAGE	8	3	[0, 0, 0]	n/a	FR1	4	R1377M
432.646	0.816	488504	WORD_OFF	n/a	n/a	CAGE	8	3	[0, 0, 0]	n/a	FR1	4	R1377M
433.462	1.601	489331	WORD	n/a	n/a	PASTE	9	3	[0, 0, 0]	n/a	FR1	4	R1377M
435.063	1.0	490929	WORD_OFF	n/a	n/a	PASTE	9	3	[0, 0, 0]	n/a	FR1	4	R1377M
436.063	1.616	491921	WORD	n/a	n/a	BONE	10	3	[0, 0, 0]	n/a	FR1	4	R1377M
437.679	0.867	493547	WORD_OFF	n/a	n/a	BONE	10	3	[0, 0, 0]	n/a	FR1	4	R1377M
438.546	1.617	494415	WORD	n/a	n/a	BRICK	11	3	[0, 0, 0]	n/a	FR1	4	R1377M
440.163	0.966	496027	WORD_OFF	n/a	n/a	BRICK	11	3	[0, 0, 0]	n/a	FR1	4	R1377M
441.129	1.617	496991	WORD	n/a	n/a	BOARD	12	3	[0, 0, 0]	n/a	FR1	4	R1377M
442.746	0.001	498603	WORD_OFF	n/a	n/a	BOARD	12	3	[0, 0, 0]	n/a	FR1	4	R1377M
442.747	0.0	498608	PROB	0.0	n/a	n/a	-999	3	[1, 7, 5]	13	FR1	4	R1377M
442.747	0.0	498608	START	n/a	n/a	n/a	-999	3	[-999, -999, -999]	n/a	FR1	4	R1377M
442.747	0.0	498617	ENCODING_END	n/a	n/a	n/a	-999	3	[0, 0, 0]	n/a	FR1	4	R1377M
442.747	3.832	498617	DISTRACT_START	n/a	n/a	n/a	-999	3	[0, 0, 0]	n/a	FR1	4	R1377M
446.579	3.167	502440	PROB	3.167	n/a	n/a	-999	3	[6, 6, 8]	20	FR1	4	R1377M
449.746	2.8	505607	PROB	2.8	n/a	n/a	-999	3	[6, 5, 3]	14	FR1	4	R1377M
452.546	3.834	508407	PROB	3.834	n/a	n/a	-999	3	[4, 1, 7]	12	FR1	4	R1377M
456.38	2.818	512241	PROB	2.818	n/a	n/a	-999	3	[2, 8, 6]	16	FR1	4	R1377M
459.198	3.115	515059	PROB	3.115	n/a	n/a	-999	3	[6, 7, 7]	20	FR1	4	R1377M
462.313	4.132	518174	PROB	4.132	n/a	n/a	-999	3	[1, 1, 8]	10	FR1	4	R1377M
466.445	0.0	522305	STOP	n/a	n/a	n/a	-999	3	[-999, -999, -999]	n/a	FR1	4	R1377M
466.445	1.134	522315	DISTRACT_END	n/a	n/a	n/a	-999	3	[0, 0, 0]	n/a	FR1	4	R1377M
467.579	1.193	523444	REC_START	n/a	n/a	n/a	-999	3	[0, 0, 0]	n/a	FR1	4	R1377M
468.772	0.643	524632	REC_WORD	0.643	n/a	LIMB	1	3	[0, 0, 0]	n/a	FR1	4	R1377M
469.415	0.692	525275	REC_WORD	0.692	n/a	PORK	2	3	[0, 0, 0]	n/a	FR1	4	R1377M
470.107	0.946	525967	REC_WORD	0.946	n/a	HOUSE	3	3	[0, 0, 0]	n/a	FR1	4	R1377M
471.053	1.824	526913	REC_WORD	1.824	n/a	BOLT	4	3	[0, 0, 0]	n/a	FR1	4	R1377M
472.877	1.133	528737	REC_WORD	1.133	n/a	WOOD	5	3	[0, 0, 0]	n/a	FR1	4	R1377M
474.01	2.801	529870	REC_WORD	2.801	n/a	WORM	7	3	[0, 0, 0]	n/a	FR1	4	R1377M
476.811	11.533	532671	REC_WORD	11.533	n/a	WAVE	6	3	[0, 0, 0]	n/a	FR1	4	R1377M
488.344	9.484	544203	REC_WORD_VV	9.484	n/a	<>	-999	3	[0, 0, 0]	n/a	FR1	4	R1377M
497.828	13.768	553687	REC_END	n/a	n/a	n/a	-999	3	[0, 0, 0]	n/a	FR1	4	R1377M
511.596	10.351	567464	COUNTDOWN_START	n/a	n/a	n/a	-999	4	[0, 0, 0]	n/a	FR1	4	R1377M
521.947	0.0	577811	COUNTDOWN_END	n/a	n/a	n/a	-999	4	[0, 0, 0]	n/a	FR1	4	R1377M
521.947	2.032	577811	ENCODING_START	n/a	n/a	n/a	-999	4	[0, 0, 0]	n/a	FR1	4	R1377M
523.979	1.6	579837	WORD	n/a	n/a	BIRD	1	4	[0, 0, 0]	n/a	FR1	4	R1377M
525.579	0.884	581435	WORD_OFF	n/a	n/a	BIRD	1	4	[0, 0, 0]	n/a	FR1	4	R1377M
526.463	1.6	582317	WORD	n/a	n/a	TOOTH	2	4	[0, 0, 0]	n/a	FR1	4	R1377M
528.063	1.0	583929	WORD_OFF	n/a	n/a	TOOTH	2	4	[0, 0, 0]	n/a	FR1	4	R1377M
529.063	1.6	584921	WORD	n/a	n/a	MAT	3	4	[0, 0, 0]	n/a	FR1	4	R1377M
530.663	0.85	586519	WORD_OFF	n/a	n/a	MAT	3	4	[0, 0, 0]	n/a	FR1	4	R1377M
531.513	1.6	587373	WORD	n/a	n/a	PET	4	4	[0, 0, 0]	n/a	FR1	4	R1377M
533.113	0.865	588971	WORD_OFF	n/a	n/a	PET	4	4	[0, 0, 0]	n/a	FR1	4	R1377M
533.978	1.601	589839	WORD	n/a	n/a	PHONE	5	4	[0, 0, 0]	n/a	FR1	4	R1377M
535.579	0.966	591438	WORD_OFF	n/a	n/a	PHONE	5	4	[0, 0, 0]	n/a	FR1	4	R1377M
536.545	1.601	592402	WORD	n/a	n/a	PRIZE	6	4	[0, 0, 0]	n/a	FR1	4	R1377M
538.146	0.899	594000	WORD_OFF	n/a	n/a	PRIZE	6	4	[0, 0, 0]	n/a	FR1	4	R1377M
539.045	1.601	594910	WORD	n/a	n/a	SMOKE	7	4	[0, 0, 0]	n/a	FR1	4	R1377M
540.646	0.9	596508	WORD_OFF	n/a	n/a	SMOKE	7	4	[0, 0, 0]	n/a	FR1	4	R1377M
541.546	1.6	597403	WORD	n/a	n/a	SHIELD	8	4	[0, 0, 0]	n/a	FR1	4	R1377M
543.146	0.767	599002	WORD_OFF	n/a	n/a	SHIELD	8	4	[0, 0, 0]	n/a	FR1	4	R1377M
543.913	1.6	599773	WORD	n/a	n/a	SOUP	9	4	[0, 0, 0]	n/a	FR1	4	R1377M
545.513	0.816	601371	WORD_OFF	n/a	n/a	SOUP	9	4	[0, 0, 0]	n/a	FR1	4	R1377M
546.329	1.6	602184	WORD	n/a	n/a	CLIFF	10	4	[0, 0, 0]	n/a	FR1	4	R1377M
547.929	0.767	603783	WORD_OFF	n/a	n/a	CLIFF	10	4	[0, 0, 0]	n/a	FR1	4	R1377M
548.696	1.617	604554	WORD	n/a	n/a	PALM	11	4	[0, 0, 0]	n/a	FR1	4	R1377M
550.313	0.915	606166	WORD_OFF	n/a	n/a	PALM	11	4	[0, 0, 0]	n/a	FR1	4	R1377M
551.228	1.602	607089	WORD	n/a	n/a	SALT	12	4	[0, 0, 0]	n/a	FR1	4	R1377M
552.83	0.0	608686	PROB	0.0	n/a	n/a	-999	4	[2, 1, 6]	9	FR1	4	R1377M
552.829	0.001	608687	WORD_OFF	n/a	n/a	SALT	12	4	[0, 0, 0]	n/a	FR1	4	R1377M
552.83	0.001	608687	ENCODING_END	n/a	n/a	n/a	-999	4	[0, 0, 0]	n/a	FR1	4	R1377M
552.831	0.0	608687	DISTRACT_START	n/a	n/a	n/a	-999	4	[0, 0, 0]	n/a	FR1	4	R1377M
552.831	3.882	608687	START	n/a	n/a	n/a	-999	4	[-999, -999, -999]	n/a	FR1	4	R1377M
556.713	3.217	612569	PROB	3.217	n/a	n/a	-999	4	[5, 6, 3]	14	FR1	4	R1377M
559.93	4.882	615786	PROB	4.882	n/a	n/a	-999	4	[8, 4, 1]	13	FR1	4	R1377M
564.812	5.884	620668	PROB	5.884	n/a	n/a	-999	4	[7, 6, 7]	20	FR1	4	R1377M
570.696	3.983	626552	PROB	3.983	n/a	n/a	-999	4	[6, 8, 6]	20	FR1	4	R1377M
574.679	0.0	630534	STOP	n/a	n/a	n/a	-999	4	[-999, -999, -999]	n/a	FR1	4	R1377M
574.679	1.25	630539	DISTRACT_END	n/a	n/a	n/a	-999	4	[0, 0, 0]	n/a	FR1	4	R1377M
575.929	2.154	631779	REC_START	n/a	n/a	n/a	-999	4	[0, 0, 0]	n/a	FR1	4	R1377M
578.083	0.524	633938	REC_WORD	0.524	n/a	BIRD	1	4	[0, 0, 0]	n/a	FR1	4	R1377M
578.607	1.105	634462	REC_WORD	1.105	n/a	TOOTH	2	4	[0, 0, 0]	n/a	FR1	4	R1377M
579.712	0.898	635567	REC_WORD	0.898	n/a	MAT	3	4	[0, 0, 0]	n/a	FR1	4	R1377M
580.61	1.477	636465	REC_WORD	1.477	n/a	PRIZE	6	4	[0, 0, 0]	n/a	FR1	4	R1377M
582.087	1.219	637942	REC_WORD	1.219	n/a	PHONE	5	4	[0, 0, 0]	n/a	FR1	4	R1377M
583.306	3.681	639161	REC_WORD	3.681	n/a	SOUP	9	4	[0, 0, 0]	n/a	FR1	4	R1377M
586.987	0.466	642842	REC_WORD	0.466	n/a	MAT	3	4	[0, 0, 0]	n/a	FR1	4	R1377M
587.453	0.4	643308	REC_WORD	0.4	n/a	PRIZE	6	4	[0, 0, 0]	n/a	FR1	4	R1377M
587.853	8.884	643708	REC_WORD	8.884	n/a	SOUP	9	4	[0, 0, 0]	n/a	FR1	4	R1377M
596.737	9.443	652591	REC_WORD_VV	9.443	n/a	<>	-999	4	[0, 0, 0]	n/a	FR1	4	R1377M
606.18	3.399	662035	REC_END	n/a	n/a	n/a	-999	4	[0, 0, 0]	n/a	FR1	4	R1377M
609.579	10.35	665438	COUNTDOWN_START	n/a	n/a	n/a	-999	5	[0, 0, 0]	n/a	FR1	4	R1377M
619.929	0.0	675785	COUNTDOWN_END	n/a	n/a	n/a	-999	5	[0, 0, 0]	n/a	FR1	4	R1377M
619.929	2.05	675785	ENCODING_START	n/a	n/a	n/a	-999	5	[0, 0, 0]	n/a	FR1	4	R1377M
621.979	1.6	677838	WORD	n/a	n/a	CHIN	1	5	[0, 0, 0]	n/a	FR1	4	R1377M
623.579	0.884	679436	WORD_OFF	n/a	n/a	CHIN	1	5	[0, 0, 0]	n/a	FR1	4	R1377M
624.463	1.6	680318	WORD	n/a	n/a	MOUTH	2	5	[0, 0, 0]	n/a	FR1	4	R1377M
626.063	0.849	681916	WORD_OFF	n/a	n/a	MOUTH	2	5	[0, 0, 0]	n/a	FR1	4	R1377M
626.912	1.601	682770	WORD	n/a	n/a	BARN	3	5	[0, 0, 0]	n/a	FR1	4	R1377M
628.513	0.933	684369	WORD_OFF	n/a	n/a	BARN	3	5	[0, 0, 0]	n/a	FR1	4	R1377M
629.446	1.6	685306	WORD	n/a	n/a	SPONGE	4	5	[0, 0, 0]	n/a	FR1	4	R1377M
631.046	0.983	686904	WORD_OFF	n/a	n/a	SPONGE	4	5	[0, 0, 0]	n/a	FR1	4	R1377M
632.029	1.617	687882	WORD	n/a	n/a	FACE	5	5	[0, 0, 0]	n/a	FR1	4	R1377M
633.646	0.8	689494	WORD_OFF	n/a	n/a	FACE	5	5	[0, 0, 0]	n/a	FR1	4	R1377M
634.446	1.6	690293	WORD	n/a	n/a	APE	6	5	[0, 0, 0]	n/a	FR1	4	R1377M
636.046	0.899	691905	WORD_OFF	n/a	n/a	APE	6	5	[0, 0, 0]	n/a	FR1	4	R1377M
636.945	1.6	692801	WORD	n/a	n/a	HOSE	7	5	[0, 0, 0]	n/a	FR1	4	R1377M
638.545	0.984	694399	WORD_OFF	n/a	n/a	HOSE	7	5	[0, 0, 0]	n/a	FR1	4	R1377M
639.529	1.617	695377	WORD	n/a	n/a	WEB	8	5	[0, 0, 0]	n/a	FR1	4	R1377M
641.146	1.0	697003	WORD_OFF	n/a	n/a	WEB	8	5	[0, 0, 0]	n/a	FR1	4	R1377M
642.146	1.6	697995	WORD	n/a	n/a	BOOT	9	5	[0, 0, 0]	n/a	FR1	4	R1377M
643.746	0.9	699593	WORD_OFF	n/a	n/a	BOOT	9	5	[0, 0, 0]	n/a	FR1	4	R1377M
644.646	1.6	700502	WORD	n/a	n/a	BROOM	10	5	[0, 0, 0]	n/a	FR1	4	R1377M
646.246	0.9	702101	WORD_OFF	n/a	n/a	BROOM	10	5	[0, 0, 0]	n/a	FR1	4	R1377M
647.146	1.617	702996	WORD	n/a	n/a	BANK	11	5	[0, 0, 0]	n/a	FR1	4	R1377M
648.763	0.832	704622	WORD_OFF	n/a	n/a	BANK	11	5	[0, 0, 0]	n/a	FR1	4	R1377M
649.595	1.601	705449	WORD	n/a	n/a	THROAT	12	5	[0, 0, 0]	n/a	FR1	4	R1377M
651.196	0.001	707047	WORD_OFF	n/a	n/a	THROAT	12	5	[0, 0, 0]	n/a	FR1	4	R1377M
651.197	0.0	707047	ENCODING_END	n/a	n/a	n/a	-999	5	[0, 0, 0]	n/a	FR1	4	R1377M
651.197	0.0	707047	DISTRACT_START	n/a	n/a	n/a	-999	5	[0, 0, 0]	n/a	FR1	4	R1377M
651.196	0.001	707048	PROB	0.001	n/a	n/a	-999	5	[6, 6, 2]	14	FR1	4	R1377M
651.197	3.149	707049	START	n/a	n/a	n/a	-999	5	[-999, -999, -999]	n/a	FR1	4	R1377M
654.346	3.0	710198	PROB	3.0	n/a	n/a	-999	5	[2, 1, 7]	10	FR1	4	R1377M
657.346	4.234	713198	PROB	4.234	n/a	n/a	-999	5	[8, 7, 8]	23	FR1	4	R1377M
661.58	3.567	717431	PROB	3.567	n/a	n/a	-999	5	[7, 6, 3]	16	FR1	4	R1377M
665.147	4.216	720998	PROB	4.216	n/a	n/a	-999	5	[6, 3, 8]	17	FR1	4	R1377M
669.363	2.916	725214	PROB	2.916	n/a	n/a	-999	5	[2, 4, 6]	12	FR1	4	R1377M
672.279	0.0	728127	DISTRACT_END	n/a	n/a	n/a	-999	5	[0, 0, 0]	n/a	FR1	4	R1377M
672.279	1.15	728130	STOP	n/a	n/a	n/a	-999	5	[-999, -999, -999]	n/a	FR1	4	R1377M
673.429	1.493	729284	REC_START	n/a	n/a	n/a	-999	5	[0, 0, 0]	n/a	FR1	4	R1377M
674.922	0.525	730773	REC_WORD	0.525	n/a	CHIN	1	5	[0, 0, 0]	n/a	FR1	4	R1377M
675.447	0.639	731298	REC_WORD	0.639	n/a	MOUTH	2	5	[0, 0, 0]	n/a	FR1	4	R1377M
676.086	0.595	731937	REC_WORD	0.595	n/a	BARN	3	5	[0, 0, 0]	n/a	FR1	4	R1377M
676.681	0.963	732532	REC_WORD	0.963	n/a	SPONGE	4	5	[0, 0, 0]	n/a	FR1	4	R1377M
677.644	0.719	733495	REC_WORD	0.719	n/a	FACE	5	5	[0, 0, 0]	n/a	FR1	4	R1377M
678.363	0.801	734214	REC_WORD	0.801	n/a	BOOT	9	5	[0, 0, 0]	n/a	FR1	4	R1377M
679.164	6.754	735015	REC_WORD	6.754	n/a	BROOM	10	5	[0, 0, 0]	n/a	FR1	4	R1377M
685.918	2.015	741768	REC_WORD_VV	2.015	n/a	<>	-999	5	[0, 0, 0]	n/a	FR1	4	R1377M
687.933	2.335	743783	REC_WORD	2.335	n/a	BOAT	-999	5	[0, 0, 0]	n/a	FR1	4	R1377M
690.268	0.964	746118	REC_WORD_VV	0.964	n/a	<>	-999	5	[0, 0, 0]	n/a	FR1	4	R1377M
691.232	12.438	747082	REC_WORD_VV	12.438	n/a	<>	-999	5	[0, 0, 0]	n/a	FR1	4	R1377M
703.67	6.676	759526	REC_END	n/a	n/a	n/a	-999	5	[0, 0, 0]	n/a	FR1	4	R1377M
710.346	10.351	766195	COUNTDOWN_START	n/a	n/a	n/a	-999	6	[0, 0, 0]	n/a	FR1	4	R1377M
720.697	0.0	776542	COUNTDOWN_END	n/a	n/a	n/a	-999	6	[0, 0, 0]	n/a	FR1	4	R1377M
720.697	2.232	776542	ENCODING_START	n/a	n/a	n/a	-999	6	[0, 0, 0]	n/a	FR1	4	R1377M
722.929	1.6	778774	WORD	n/a	n/a	LAMP	1	6	[0, 0, 0]	n/a	FR1	4	R1377M
724.529	0.817	780386	WORD_OFF	n/a	n/a	LAMP	1	6	[0, 0, 0]	n/a	FR1	4	R1377M
725.346	1.6	781199	WORD	n/a	n/a	GLASS	2	6	[0, 0, 0]	n/a	FR1	4	R1377M
726.946	0.8	782797	WORD_OFF	n/a	n/a	GLASS	2	6	[0, 0, 0]	n/a	FR1	4	R1377M
727.746	1.6	783596	WORD	n/a	n/a	CHAIN	3	6	[0, 0, 0]	n/a	FR1	4	R1377M
729.346	0.882	785194	WORD_OFF	n/a	n/a	CHAIN	3	6	[0, 0, 0]	n/a	FR1	4	R1377M
730.228	1.601	786076	WORD	n/a	n/a	FOX	4	6	[0, 0, 0]	n/a	FR1	4	R1377M
731.829	0.934	787674	WORD_OFF	n/a	n/a	FOX	4	6	[0, 0, 0]	n/a	FR1	4	R1377M
732.763	1.6	788611	WORD	n/a	n/a	THREAD	5	6	[0, 0, 0]	n/a	FR1	4	R1377M
734.363	0.766	790209	WORD_OFF	n/a	n/a	THREAD	5	6	[0, 0, 0]	n/a	FR1	4	R1377M
735.129	1.617	790981	WORD	n/a	n/a	LENS	6	6	[0, 0, 0]	n/a	FR1	4	R1377M
736.746	0.85	792593	WORD_OFF	n/a	n/a	LENS	6	6	[0, 0, 0]	n/a	FR1	4	R1377M
737.596	1.6	793447	WORD	n/a	n/a	CORK	7	6	[0, 0, 0]	n/a	FR1	4	R1377M
739.196	0.767	795045	WORD_OFF	n/a	n/a	CORK	7	6	[0, 0, 0]	n/a	FR1	4	R1377M
739.963	1.6	795817	WORD	n/a	n/a	VASE	8	6	[0, 0, 0]	n/a	FR1	4	R1377M
741.563	0.866	797415	WORD_OFF	n/a	n/a	VASE	8	6	[0, 0, 0]	n/a	FR1	4	R1377M
742.429	1.6	798283	WORD	n/a	n/a	NET	9	6	[0, 0, 0]	n/a	FR1	4	R1377M
744.029	0.917	799881	WORD_OFF	n/a	n/a	NET	9	6	[0, 0, 0]	n/a	FR1	4	R1377M
744.946	1.617	800791	WORD	n/a	n/a	DRAIN	10	6	[0, 0, 0]	n/a	FR1	4	R1377M
746.563	0.982	802417	WORD_OFF	n/a	n/a	DRAIN	10	6	[0, 0, 0]	n/a	FR1	4	R1377M
747.545	1.601	803395	WORD	n/a	n/a	FLAG	11	6	[0, 0, 0]	n/a	FR1	4	R1377M
749.146	0.999	804993	WORD_OFF	n/a	n/a	FLAG	11	6	[0, 0, 0]	n/a	FR1	4	R1377M
750.145	1.601	805999	WORD	n/a	n/a	KITE	12	6	[0, 0, 0]	n/a	FR1	4	R1377M
751.746	0.001	807593	PROB	0.001	n/a	n/a	-999	6	[1, 6, 3]	10	FR1	4	R1377M
751.747	0.0	807594	START	n/a	n/a	n/a	-999	6	[-999, -999, -999]	n/a	FR1	4	R1377M
751.746	0.001	807597	WORD_OFF	n/a	n/a	KITE	12	6	[0, 0, 0]	n/a	FR1	4	R1377M
751.747	0.0	807597	ENCODING_END	n/a	n/a	n/a	-999	6	[0, 0, 0]	n/a	FR1	4	R1377M
751.747	4.15	807597	DISTRACT_START	n/a	n/a	n/a	-999	6	[0, 0, 0]	n/a	FR1	4	R1377M
755.897	3.666	811744	PROB	3.666	n/a	n/a	-999	6	[5, 2, 5]	12	FR1	4	R1377M
759.563	4.25	815410	PROB	4.25	n/a	n/a	-999	6	[8, 6, 1]	15	FR1	4	R1377M
763.813	3.5	819660	PROB	3.5	n/a	n/a	-999	6	[2, 8, 1]	11	FR1	4	R1377M
767.313	4.267	823159	PROB	4.267	n/a	n/a	-999	6	[7, 5, 6]	18	FR1	4	R1377M
771.58	3.865	827426	PROB	3.865	n/a	n/a	-999	6	[1, 8, 3]	12	FR1	4	R1377M
775.445	0.0	831291	STOP	n/a	n/a	n/a	-999	6	[-999, -999, -999]	n/a	FR1	4	R1377M
775.445	1.317	831295	DISTRACT_END	n/a	n/a	n/a	-999	6	[0, 0, 0]	n/a	FR1	4	R1377M
776.762	2.113	832604	REC_START	n/a	n/a	n/a	-999	6	[0, 0, 0]	n/a	FR1	4	R1377M
778.875	0.765	834721	REC_WORD	0.765	n/a	LAMP	1	6	[0, 0, 0]	n/a	FR1	4	R1377M
779.64	0.681	835486	REC_WORD	0.681	n/a	GLASS	2	6	[0, 0, 0]	n/a	FR1	4	R1377M
780.321	0.774	836167	REC_WORD	0.774	n/a	CHAIN	3	6	[0, 0, 0]	n/a	FR1	4	R1377M
781.095	3.847	836941	REC_WORD	3.847	n/a	FOX	4	6	[0, 0, 0]	n/a	FR1	4	R1377M
784.942	1.274	840788	REC_WORD	1.274	n/a	VASE	8	6	[0, 0, 0]	n/a	FR1	4	R1377M
786.216	1.026	842062	REC_WORD	1.026	n/a	LEAD	-999	6	[0, 0, 0]	n/a	FR1	4	R1377M
787.242	19.772	843088	REC_WORD	19.772	n/a	DRAIN	10	6	[0, 0, 0]	n/a	FR1	4	R1377M
807.014	10.249	862860	REC_END	n/a	n/a	n/a	-999	6	[0, 0, 0]	n/a	FR1	4	R1377M
817.263	10.35	873110	COUNTDOWN_START	n/a	n/a	n/a	-999	7	[0, 0, 0]	n/a	FR1	4	R1377M
827.613	0.0	883457	COUNTDOWN_END	n/a	n/a	n/a	-999	7	[0, 0, 0]	n/a	FR1	4	R1377M
827.613	2.083	883457	ENCODING_START	n/a	n/a	n/a	-999	7	[0, 0, 0]	n/a	FR1	4	R1377M
829.696	1.616	885538	WORD	n/a	n/a	EEL	1	7	[0, 0, 0]	n/a	FR1	4	R1377M
831.312	0.884	887164	WORD_OFF	n/a	n/a	EEL	1	7	[0, 0, 0]	n/a	FR1	4	R1377M
832.196	1.6	888045	WORD	n/a	n/a	STRAW	2	7	[0, 0, 0]	n/a	FR1	4	R1377M
833.796	0.767	889644	WORD_OFF	n/a	n/a	STRAW	2	7	[0, 0, 0]	n/a	FR1	4	R1377M
834.563	1.6	890401	WORD	n/a	n/a	SCHOOL	3	7	[0, 0, 0]	n/a	FR1	4	R1377M
836.163	0.883	892013	WORD_OFF	n/a	n/a	SCHOOL	3	7	[0, 0, 0]	n/a	FR1	4	R1377M
837.046	1.6	892895	WORD	n/a	n/a	MINK	4	7	[0, 0, 0]	n/a	FR1	4	R1377M
838.646	0.85	894493	WORD_OFF	n/a	n/a	MINK	4	7	[0, 0, 0]	n/a	FR1	4	R1377M
839.496	1.6	895334	WORD	n/a	n/a	DEER	5	7	[0, 0, 0]	n/a	FR1	4	R1377M
841.096	0.767	896946	WORD_OFF	n/a	n/a	DEER	5	7	[0, 0, 0]	n/a	FR1	4	R1377M
841.863	1.6	897704	WORD	n/a	n/a	BOOK	6	7	[0, 0, 0]	n/a	FR1	4	R1377M
843.463	0.866	899302	WORD_OFF	n/a	n/a	BOOK	6	7	[0, 0, 0]	n/a	FR1	4	R1377M
844.329	1.617	900170	WORD	n/a	n/a	MOLE	7	7	[0, 0, 0]	n/a	FR1	4	R1377M
845.946	0.766	901796	WORD_OFF	n/a	n/a	MOLE	7	7	[0, 0, 0]	n/a	FR1	4	R1377M
846.712	1.616	902553	WORD	n/a	n/a	PIN	8	7	[0, 0, 0]	n/a	FR1	4	R1377M
848.328	0.801	904179	WORD_OFF	n/a	n/a	PIN	8	7	[0, 0, 0]	n/a	FR1	4	R1377M
849.129	1.617	904978	WORD	n/a	n/a	JET	9	7	[0, 0, 0]	n/a	FR1	4	R1377M
850.746	0.917	906590	WORD_OFF	n/a	n/a	JET	9	7	[0, 0, 0]	n/a	FR1	4	R1377M
851.663	1.6	907513	WORD	n/a	n/a	SUIT	10	7	[0, 0, 0]	n/a	FR1	4	R1377M
853.263	0.8	909112	WORD_OFF	n/a	n/a	SUIT	10	7	[0, 0, 0]	n/a	FR1	4	R1377M
854.063	1.616	909911	WORD	n/a	n/a	SINK	11	7	[0, 0, 0]	n/a	FR1	4	R1377M
855.679	0.767	911523	WORD_OFF	n/a	n/a	SINK	11	7	[0, 0, 0]	n/a	FR1	4	R1377M
856.446	1.617	912294	WORD	n/a	n/a	SEAL	12	7	[0, 0, 0]	n/a	FR1	4	R1377M
858.063	0.0	913905	PROB	0.0	n/a	n/a	-999	7	[7, 5, 6]	18	FR1	4	R1377M
858.062	0.002	913906	WORD_OFF	n/a	n/a	SEAL	12	7	[0, 0, 0]	n/a	FR1	4	R1377M
858.064	0.0	913906	ENCODING_END	n/a	n/a	n/a	-999	7	[0, 0, 0]	n/a	FR1	4	R1377M
858.064	0.0	913906	DISTRACT_START	n/a	n/a	n/a	-999	7	[0, 0, 0]	n/a	FR1	4	R1377M
858.064	6.548	913906	START	n/a	n/a	n/a	-999	7	[-999, -999, -999]	n/a	FR1	4	R1377M
864.612	3.469	920454	PROB	3.469	n/a	n/a	-999	7	[7, 4, 6]	17	FR1	4	R1377M
868.081	3.148	923923	PROB	3.148	n/a	n/a	-999	7	[2, 1, 5]	8	FR1	4	R1377M
871.229	3.067	927071	PROB	3.067	n/a	n/a	-999	7	[5, 4, 2]	11	FR1	4	R1377M
874.296	4.616	930138	PROB	4.616	n/a	n/a	-999	7	[3, 3, 6]	12	FR1	4	R1377M
878.912	0.0	934752	DISTRACT_END	n/a	n/a	n/a	-999	7	[0, 0, 0]	n/a	FR1	4	R1377M
878.912	1.367	934753	STOP	n/a	n/a	n/a	-999	7	[-999, -999, -999]	n/a	FR1	4	R1377M
880.279	3.149	936116	REC_START	n/a	n/a	n/a	-999	7	[0, 0, 0]	n/a	FR1	4	R1377M
883.428	0.561	939269	REC_WORD	0.561	n/a	EEL	1	7	[0, 0, 0]	n/a	FR1	4	R1377M
883.989	0.962	939830	REC_WORD	0.962	n/a	STRAW	2	7	[0, 0, 0]	n/a	FR1	4	R1377M
884.951	1.94	940792	REC_WORD	1.94	n/a	SCHOOL	3	7	[0, 0, 0]	n/a	FR1	4	R1377M
886.891	1.028	942732	REC_WORD	1.028	n/a	JET	9	7	[0, 0, 0]	n/a	FR1	4	R1377M
887.919	6.606	943760	REC_WORD	6.606	n/a	JAIL	-999	7	[0, 0, 0]	n/a	FR1	4	R1377M
894.525	16.011	950366	REC_WORD	16.011	n/a	MINK	4	7	[0, 0, 0]	n/a	FR1	4	R1377M
910.536	19.977	966372	REC_END	n/a	n/a	n/a	-999	7	[0, 0, 0]	n/a	FR1	4	R1377M
930.513	10.35	986350	COUNTDOWN_START	n/a	n/a	n/a	-999	8	[0, 0, 0]	n/a	FR1	4	R1377M
940.863	0.0	996697	COUNTDOWN_END	n/a	n/a	n/a	-999	8	[0, 0, 0]	n/a	FR1	4	R1377M
940.863	1.966	996711	ENCODING_START	n/a	n/a	n/a	-999	8	[0, 0, 0]	n/a	FR1	4	R1377M
942.829	1.6	998667	WORD	n/a	n/a	NIGHT	1	8	[0, 0, 0]	n/a	FR1	4	R1377M
944.429	0.95	1000265	WORD_OFF	n/a	n/a	NIGHT	1	8	[0, 0, 0]	n/a	FR1	4	R1377M
945.379	1.6	1001216	WORD	n/a	n/a	CHILD	2	8	[0, 0, 0]	n/a	FR1	4	R1377M
946.979	0.784	1002814	WORD_OFF	n/a	n/a	CHILD	2	8	[0, 0, 0]	n/a	FR1	4	R1377M
947.763	1.6	1003600	WORD	n/a	n/a	FLEA	3	8	[0, 0, 0]	n/a	FR1	4	R1377M
949.363	0.966	1005198	WORD_OFF	n/a	n/a	FLEA	3	8	[0, 0, 0]	n/a	FR1	4	R1377M
950.329	1.617	1006176	WORD	n/a	n/a	SWAMP	4	8	[0, 0, 0]	n/a	FR1	4	R1377M
951.946	0.933	1007788	WORD_OFF	n/a	n/a	SWAMP	4	8	[0, 0, 0]	n/a	FR1	4	R1377M
952.879	1.617	1008725	WORD	n/a	n/a	TRAY	5	8	[0, 0, 0]	n/a	FR1	4	R1377M
954.496	0.883	1010337	WORD_OFF	n/a	n/a	TRAY	5	8	[0, 0, 0]	n/a	FR1	4	R1377M
955.379	1.6	1011219	WORD	n/a	n/a	RUG	6	8	[0, 0, 0]	n/a	FR1	4	R1377M
956.979	0.95	1012817	WORD_OFF	n/a	n/a	RUG	6	8	[0, 0, 0]	n/a	FR1	4	R1377M
957.929	1.6	1013768	WORD	n/a	n/a	RAKE	7	8	[0, 0, 0]	n/a	FR1	4	R1377M
959.529	0.966	1015366	WORD_OFF	n/a	n/a	RAKE	7	8	[0, 0, 0]	n/a	FR1	4	R1377M
960.495	1.601	1016330	WORD	n/a	n/a	STEM	8	8	[0, 0, 0]	n/a	FR1	4	R1377M
962.096	0.816	1017938	WORD_OFF	n/a	n/a	STEM	8	8	[0, 0, 0]	n/a	FR1	4	R1377M
962.912	1.617	1018755	WORD	n/a	n/a	STRING	9	8	[0, 0, 0]	n/a	FR1	4	R1377M
964.529	0.899	1020367	WORD_OFF	n/a	n/a	STRING	9	8	[0, 0, 0]	n/a	FR1	4	R1377M
965.428	1.601	1021263	WORD	n/a	n/a	BOY	10	8	[0, 0, 0]	n/a	FR1	4	R1377M
967.029	1.0	1022875	WORD_OFF	n/a	n/a	BOY	10	8	[0, 0, 0]	n/a	FR1	4	R1377M
968.029	1.6	1023867	WORD	n/a	n/a	PURSE	11	8	[0, 0, 0]	n/a	FR1	4	R1377M
969.629	0.883	1025465	WORD_OFF	n/a	n/a	PURSE	11	8	[0, 0, 0]	n/a	FR1	4	R1377M
970.512	1.6	1026347	WORD	n/a	n/a	DITCH	12	8	[0, 0, 0]	n/a	FR1	4	R1377M
972.112	0.001	1027945	WORD_OFF	n/a	n/a	DITCH	12	8	[0, 0, 0]	n/a	FR1	4	R1377M
972.113	0.001	1027950	PROB	0.001	n/a	n/a	-999	8	[8, 3, 5]	16	FR1	4	R1377M
972.114	0.0	1027951	START	n/a	n/a	n/a	-999	8	[-999, -999, -999]	n/a	FR1	4	R1377M
972.114	0.0	1027959	ENCODING_END	n/a	n/a	n/a	-999	8	[0, 0, 0]	n/a	FR1	4	R1377M
972.114	9.449	1027959	DISTRACT_START	n/a	n/a	n/a	-999	8	[0, 0, 0]	n/a	FR1	4	R1377M
981.563	4.166	1037400	PROB	4.166	n/a	n/a	-999	8	[6, 5, 5]	16	FR1	4	R1377M
985.729	3.667	1041565	PROB	3.667	n/a	n/a	-999	8	[8, 1, 6]	15	FR1	4	R1377M
989.396	10.082	1045232	PROB	10.082	n/a	n/a	-999	8	[5, 2, 5]	12	FR1	4	R1377M
999.478	0.0	1055314	STOP	n/a	n/a	n/a	-999	8	[-999, -999, -999]	n/a	FR1	4	R1377M
999.478	1.2	1055321	DISTRACT_END	n/a	n/a	n/a	-999	8	[0, 0, 0]	n/a	FR1	4	R1377M
1000.678	1.512	1056520	REC_START	n/a	n/a	n/a	-999	8	[0, 0, 0]	n/a	FR1	4	R1377M
1002.19	0.412	1058026	REC_WORD_VV	0.412	n/a	<>	-999	8	[0, 0, 0]	n/a	FR1	4	R1377M
1002.602	0.26	1058438	REC_WORD	0.26	n/a	NIGHT	1	8	[0, 0, 0]	n/a	FR1	4	R1377M
1002.862	0.669	1058698	REC_WORD	0.669	n/a	CHILD	2	8	[0, 0, 0]	n/a	FR1	4	R1377M
1003.531	0.718	1059367	REC_WORD	0.718	n/a	FLEA	3	8	[0, 0, 0]	n/a	FR1	4	R1377M
1004.249	0.792	1060085	REC_WORD	0.792	n/a	SWAMP	4	8	[0, 0, 0]	n/a	FR1	4	R1377M
1005.041	0.624	1060877	REC_WORD	0.624	n/a	TREE	-999	8	[0, 0, 0]	n/a	FR1	4	R1377M
1005.665	0.461	1061500	REC_WORD	0.461	n/a	RUG	6	8	[0, 0, 0]	n/a	FR1	4	R1377M
1006.126	1.253	1061961	REC_WORD	1.253	n/a	RAKE	7	8	[0, 0, 0]	n/a	FR1	4	R1377M
1007.379	20.748	1063214	REC_WORD	20.748	n/a	PURSE	11	8	[0, 0, 0]	n/a	FR1	4	R1377M
1028.127	2.784	1083961	REC_WORD_VV	2.784	n/a	<>	-999	8	[0, 0, 0]	n/a	FR1	4	R1377M
1030.911	127.868	1086748	REC_END	n/a	n/a	n/a	-999	8	[0, 0, 0]	n/a	FR1	4	R1377M
1158.779	10.351	1214606	COUNTDOWN_START	n/a	n/a	n/a	-999	9	[0, 0, 0]	n/a	FR1	4	R1377M
1169.13	0.0	1224953	COUNTDOWN_END	n/a	n/a	n/a	-999	9	[0, 0, 0]	n/a	FR1	4	R1377M
1169.13	2.099	1224967	ENCODING_START	n/a	n/a	n/a	-999	9	[0, 0, 0]	n/a	FR1	4	R1377M
1171.229	1.617	1227061	WORD	n/a	n/a	CAPE	1	9	[0, 0, 0]	n/a	FR1	4	R1377M
1172.846	0.833	1228673	WORD_OFF	n/a	n/a	CAPE	1	9	[0, 0, 0]	n/a	FR1	4	R1377M
1173.679	1.6	1229514	WORD	n/a	n/a	MIST	2	9	[0, 0, 0]	n/a	FR1	4	R1377M
1175.279	0.901	1231112	WORD_OFF	n/a	n/a	MIST	2	9	[0, 0, 0]	n/a	FR1	4	R1377M
1176.18	1.599	1232007	WORD	n/a	n/a	PARK	3	9	[0, 0, 0]	n/a	FR1	4	R1377M
1177.779	0.916	1233606	WORD_OFF	n/a	n/a	PARK	3	9	[0, 0, 0]	n/a	FR1	4	R1377M
1178.695	1.6	1234529	WORD	n/a	n/a	ROCK	4	9	[0, 0, 0]	n/a	FR1	4	R1377M
1180.295	0.934	1236127	WORD_OFF	n/a	n/a	ROCK	4	9	[0, 0, 0]	n/a	FR1	4	R1377M
1181.229	1.617	1237064	WORD	n/a	n/a	PIT	5	9	[0, 0, 0]	n/a	FR1	4	R1377M
1182.846	1.0	1238676	WORD_OFF	n/a	n/a	PIT	5	9	[0, 0, 0]	n/a	FR1	4	R1377M
1183.846	1.616	1239668	WORD	n/a	n/a	SEED	6	9	[0, 0, 0]	n/a	FR1	4	R1377M
1185.462	0.867	1241294	WORD_OFF	n/a	n/a	SEED	6	9	[0, 0, 0]	n/a	FR1	4	R1377M
1186.329	1.6	1242162	WORD	n/a	n/a	STORE	7	9	[0, 0, 0]	n/a	FR1	4	R1377M
1187.929	0.9	1243760	WORD_OFF	n/a	n/a	STORE	7	9	[0, 0, 0]	n/a	FR1	4	R1377M
1188.829	1.6	1244655	WORD	n/a	n/a	HOOK	8	9	[0, 0, 0]	n/a	FR1	4	R1377M
1190.429	0.816	1246254	WORD_OFF	n/a	n/a	HOOK	8	9	[0, 0, 0]	n/a	FR1	4	R1377M
1191.245	1.6	1247080	WORD	n/a	n/a	BLUSH	9	9	[0, 0, 0]	n/a	FR1	4	R1377M
1192.845	0.867	1248678	WORD_OFF	n/a	n/a	BLUSH	9	9	[0, 0, 0]	n/a	FR1	4	R1377M
1193.712	1.6	1249546	WORD	n/a	n/a	SNAKE	10	9	[0, 0, 0]	n/a	FR1	4	R1377M
1195.312	0.8	1251145	WORD_OFF	n/a	n/a	SNAKE	10	9	[0, 0, 0]	n/a	FR1	4	R1377M
1196.112	1.616	1251944	WORD	n/a	n/a	PLANT	11	9	[0, 0, 0]	n/a	FR1	4	R1377M
1197.728	0.9	1253556	WORD_OFF	n/a	n/a	PLANT	11	9	[0, 0, 0]	n/a	FR1	4	R1377M
1198.628	1.601	1254451	WORD	n/a	n/a	VEST	12	9	[0, 0, 0]	n/a	FR1	4	R1377M
1200.229	0.001	1256056	PROB	0.001	n/a	n/a	-999	9	[7, 4, 7]	18	FR1	4	R1377M
1200.23	0.0	1256057	START	n/a	n/a	n/a	-999	9	[-999, -999, -999]	n/a	FR1	4	R1377M
1200.229	0.001	1256063	WORD_OFF	n/a	n/a	VEST	12	9	[0, 0, 0]	n/a	FR1	4	R1377M
1200.23	0.0	1256063	ENCODING_END	n/a	n/a	n/a	-999	9	[0, 0, 0]	n/a	FR1	4	R1377M
1200.23	5.682	1256063	DISTRACT_START	n/a	n/a	n/a	-999	9	[0, 0, 0]	n/a	FR1	4	R1377M
1205.912	3.117	1261738	PROB	3.117	n/a	n/a	-999	9	[2, 8, 6]	16	FR1	4	R1377M
1209.029	3.735	1264855	PROB	3.735	n/a	n/a	-999	9	[2, 1, 5]	8	FR1	4	R1377M
1212.764	5.899	1268590	PROB	5.899	n/a	n/a	-999	9	[2, 8, 6]	16	FR1	4	R1377M
1218.663	3.665	1274489	PROB	3.665	n/a	n/a	-999	9	[1, 8, 8]	17	FR1	4	R1377M
1222.328	0.0	1278149	DISTRACT_END	n/a	n/a	n/a	-999	9	[0, 0, 0]	n/a	FR1	4	R1377M
1222.328	1.234	1278153	STOP	n/a	n/a	n/a	-999	9	[-999, -999, -999]	n/a	FR1	4	R1377M
1223.562	1.691	1279389	REC_START	n/a	n/a	n/a	-999	9	[0, 0, 0]	n/a	FR1	4	R1377M
1225.253	0.727	1281078	REC_WORD	0.727	n/a	CAPE	1	9	[0, 0, 0]	n/a	FR1	4	R1377M
1225.98	0.612	1281805	REC_WORD	0.612	n/a	MIST	2	9	[0, 0, 0]	n/a	FR1	4	R1377M
1226.592	0.746	1282417	REC_WORD	0.746	n/a	PARK	3	9	[0, 0, 0]	n/a	FR1	4	R1377M
1227.338	0.982	1283163	REC_WORD	0.982	n/a	ROCK	4	9	[0, 0, 0]	n/a	FR1	4	R1377M
1228.32	1.373	1284145	REC_WORD	1.373	n/a	PIT	5	9	[0, 0, 0]	n/a	FR1	4	R1377M
1229.693	1.469	1285518	REC_WORD	1.469	n/a	SEED	6	9	[0, 0, 0]	n/a	FR1	4	R1377M
1231.162	2.11	1286987	REC_WORD	2.11	n/a	STORE	7	9	[0, 0, 0]	n/a	FR1	4	R1377M
1233.272	10.28	1289097	REC_WORD	10.28	n/a	PLANT	11	9	[0, 0, 0]	n/a	FR1	4	R1377M
1243.552	10.257	1299377	REC_WORD_VV	10.257	n/a	<>	-999	9	[0, 0, 0]	n/a	FR1	4	R1377M
1253.809	4.287	1309631	REC_END	n/a	n/a	n/a	-999	9	[0, 0, 0]	n/a	FR1	4	R1377M
1258.096	10.351	1313930	COUNTDOWN_START	n/a	n/a	n/a	-999	10	[0, 0, 0]	n/a	FR1	4	R1377M
1268.447	0.0	1324277	COUNTDOWN_END	n/a	n/a	n/a	-999	10	[0, 0, 0]	n/a	FR1	4	R1377M
1268.447	2.099	1324277	ENCODING_START	n/a	n/a	n/a	-999	10	[0, 0, 0]	n/a	FR1	4	R1377M
1270.546	1.617	1326371	WORD	n/a	n/a	CHIEF	1	10	[0, 0, 0]	n/a	FR1	4	R1377M
1272.163	0.833	1327983	WORD_OFF	n/a	n/a	CHIEF	1	10	[0, 0, 0]	n/a	FR1	4	R1377M
1272.996	1.616	1328824	WORD	n/a	n/a	INK	2	10	[0, 0, 0]	n/a	FR1	4	R1377M
1274.612	1.0	1330436	WORD_OFF	n/a	n/a	INK	2	10	[0, 0, 0]	n/a	FR1	4	R1377M
1275.612	1.617	1331441	WORD	n/a	n/a	SHEET	3	10	[0, 0, 0]	n/a	FR1	4	R1377M
1277.229	0.967	1333053	WORD_OFF	n/a	n/a	SHEET	3	10	[0, 0, 0]	n/a	FR1	4	R1377M
1278.196	1.6	1334018	WORD	n/a	n/a	MAIL	4	10	[0, 0, 0]	n/a	FR1	4	R1377M
1279.796	0.85	1335616	WORD_OFF	n/a	n/a	MAIL	4	10	[0, 0, 0]	n/a	FR1	4	R1377M
1280.646	1.616	1336470	WORD	n/a	n/a	POLE	5	10	[0, 0, 0]	n/a	FR1	4	R1377M
1282.262	0.983	1338082	WORD_OFF	n/a	n/a	POLE	5	10	[0, 0, 0]	n/a	FR1	4	R1377M
1283.245	1.601	1339074	WORD	n/a	n/a	BENCH	6	10	[0, 0, 0]	n/a	FR1	4	R1377M
1284.846	0.799	1340673	WORD_OFF	n/a	n/a	BENCH	6	10	[0, 0, 0]	n/a	FR1	4	R1377M
1285.645	1.601	1341472	WORD	n/a	n/a	COIN	7	10	[0, 0, 0]	n/a	FR1	4	R1377M
1287.246	0.882	1343070	WORD_OFF	n/a	n/a	COIN	7	10	[0, 0, 0]	n/a	FR1	4	R1377M
1288.128	1.601	1343952	WORD	n/a	n/a	ICE	8	10	[0, 0, 0]	n/a	FR1	4	R1377M
1289.729	0.85	1345550	WORD_OFF	n/a	n/a	ICE	8	10	[0, 0, 0]	n/a	FR1	4	R1377M
1290.579	1.6	1346404	WORD	n/a	n/a	STEAM	9	10	[0, 0, 0]	n/a	FR1	4	R1377M
1292.179	0.9	1348002	WORD_OFF	n/a	n/a	STEAM	9	10	[0, 0, 0]	n/a	FR1	4	R1377M
1293.079	1.6	1348898	WORD	n/a	n/a	CROWN	10	10	[0, 0, 0]	n/a	FR1	4	R1377M
1294.679	1.0	1350496	WORD_OFF	n/a	n/a	CROWN	10	10	[0, 0, 0]	n/a	FR1	4	R1377M
1295.679	1.6	1351502	WORD	n/a	n/a	SKUNK	11	10	[0, 0, 0]	n/a	FR1	4	R1377M
1297.279	0.8	1353100	WORD_OFF	n/a	n/a	SKUNK	11	10	[0, 0, 0]	n/a	FR1	4	R1377M
1298.079	1.6	1353899	WORD	n/a	n/a	DOG	12	10	[0, 0, 0]	n/a	FR1	4	R1377M
1299.679	0.0	1355497	WORD_OFF	n/a	n/a	DOG	12	10	[0, 0, 0]	n/a	FR1	4	R1377M
1299.679	0.001	1355501	PROB	0.001	n/a	n/a	-999	10	[7, 2, 8]	17	FR1	4	R1377M
1299.68	0.0	1355502	START	n/a	n/a	n/a	-999	10	[-999, -999, -999]	n/a	FR1	4	R1377M
1299.68	0.0	1355511	ENCODING_END	n/a	n/a	n/a	-999	10	[0, 0, 0]	n/a	FR1	4	R1377M
1299.68	4.915	1355511	DISTRACT_START	n/a	n/a	n/a	-999	10	[0, 0, 0]	n/a	FR1	4	R1377M
1304.595	2.984	1360417	PROB	2.984	n/a	n/a	-999	10	[2, 7, 7]	16	FR1	4	R1377M
1307.579	6.751	1363401	PROB	6.751	n/a	n/a	-999	10	[1, 7, 5]	13	FR1	4	R1377M
1314.33	4.351	1370151	PROB	4.351	n/a	n/a	-999	10	[7, 8, 1]	16	FR1	4	R1377M
1318.681	3.315	1374502	PROB	3.315	n/a	n/a	-999	10	[7, 7, 1]	15	FR1	4	R1377M
1321.996	0.0	1377817	DISTRACT_END	n/a	n/a	n/a	-999	10	[0, 0, 0]	n/a	FR1	4	R1377M
1321.996	1.117	1377817	STOP	n/a	n/a	n/a	-999	10	[-999, -999, -999]	n/a	FR1	4	R1377M
1323.113	1.548	1378933	REC_START	n/a	n/a	n/a	-999	10	[0, 0, 0]	n/a	FR1	4	R1377M
1324.661	0.781	1380482	REC_WORD	0.781	n/a	CHIEF	1	10	[0, 0, 0]	n/a	FR1	4	R1377M
1325.442	0.472	1381263	REC_WORD	0.472	n/a	INK	2	10	[0, 0, 0]	n/a	FR1	4	R1377M
1325.914	1.4	1381735	REC_WORD	1.4	n/a	SHEET	3	10	[0, 0, 0]	n/a	FR1	4	R1377M
1327.314	1.06	1383135	REC_WORD	1.06	n/a	MAIL	4	10	[0, 0, 0]	n/a	FR1	4	R1377M
1328.374	2.105	1384195	REC_WORD	2.105	n/a	POLE	5	10	[0, 0, 0]	n/a	FR1	4	R1377M
1330.479	22.88	1386300	REC_WORD	22.88	n/a	CROWN	10	10	[0, 0, 0]	n/a	FR1	4	R1377M
1353.359	7.486	1409176	REC_END	n/a	n/a	n/a	-999	10	[0, 0, 0]	n/a	FR1	4	R1377M
1360.845	10.351	1416671	COUNTDOWN_START	n/a	n/a	n/a	-999	11	[0, 0, 0]	n/a	FR1	4	R1377M
1371.196	0.001	1427018	COUNTDOWN_END	n/a	n/a	n/a	-999	11	[0, 0, 0]	n/a	FR1	4	R1377M
1371.197	2.099	1427018	ENCODING_START	n/a	n/a	n/a	-999	11	[0, 0, 0]	n/a	FR1	4	R1377M
1373.296	1.616	1429112	WORD	n/a	n/a	TAIL	1	11	[0, 0, 0]	n/a	FR1	4	R1377M
1374.912	0.884	1430738	WORD_OFF	n/a	n/a	TAIL	1	11	[0, 0, 0]	n/a	FR1	4	R1377M
1375.796	1.6	1431620	WORD	n/a	n/a	CAT	2	11	[0, 0, 0]	n/a	FR1	4	R1377M
1377.396	0.783	1433218	WORD_OFF	n/a	n/a	CAT	2	11	[0, 0, 0]	n/a	FR1	4	R1377M
1378.179	1.6	1434003	WORD	n/a	n/a	FROST	3	11	[0, 0, 0]	n/a	FR1	4	R1377M
1379.779	0.8	1435601	WORD_OFF	n/a	n/a	FROST	3	11	[0, 0, 0]	n/a	FR1	4	R1377M
1380.579	1.616	1436400	WORD	n/a	n/a	PIPE	4	11	[0, 0, 0]	n/a	FR1	4	R1377M
1382.195	0.967	1438012	WORD_OFF	n/a	n/a	PIPE	4	11	[0, 0, 0]	n/a	FR1	4	R1377M
1383.162	1.617	1438977	WORD	n/a	n/a	BATH	5	11	[0, 0, 0]	n/a	FR1	4	R1377M
1384.779	0.85	1440603	WORD_OFF	n/a	n/a	BATH	5	11	[0, 0, 0]	n/a	FR1	4	R1377M
1385.629	1.6	1441443	WORD	n/a	n/a	PAGE	6	11	[0, 0, 0]	n/a	FR1	4	R1377M
1387.229	0.866	1443055	WORD_OFF	n/a	n/a	PAGE	6	11	[0, 0, 0]	n/a	FR1	4	R1377M
1388.095	1.6	1443909	WORD	n/a	n/a	SPEAR	7	11	[0, 0, 0]	n/a	FR1	4	R1377M
1389.695	0.801	1445521	WORD_OFF	n/a	n/a	SPEAR	7	11	[0, 0, 0]	n/a	FR1	4	R1377M
1390.496	1.6	1446320	WORD	n/a	n/a	WEED	8	11	[0, 0, 0]	n/a	FR1	4	R1377M
1392.096	0.783	1447919	WORD_OFF	n/a	n/a	WEED	8	11	[0, 0, 0]	n/a	FR1	4	R1377M
1392.879	1.616	1448704	WORD	n/a	n/a	DART	9	11	[0, 0, 0]	n/a	FR1	4	R1377M
1394.495	0.85	1450316	WORD_OFF	n/a	n/a	DART	9	11	[0, 0, 0]	n/a	FR1	4	R1377M
1395.345	1.6	1451170	WORD	n/a	n/a	BLADE	10	11	[0, 0, 0]	n/a	FR1	4	R1377M
1396.945	0.767	1452768	WORD_OFF	n/a	n/a	BLADE	10	11	[0, 0, 0]	n/a	FR1	4	R1377M
1397.712	1.6	1453526	WORD	n/a	n/a	SQUARE	11	11	[0, 0, 0]	n/a	FR1	4	R1377M
1399.312	0.95	1455124	WORD_OFF	n/a	n/a	SQUARE	11	11	[0, 0, 0]	n/a	FR1	4	R1377M
1400.262	1.601	1456075	WORD	n/a	n/a	GRASS	12	11	[0, 0, 0]	n/a	FR1	4	R1377M
1401.863	0.0	1457680	PROB	0.0	n/a	n/a	-999	11	[3, 2, 4]	9	FR1	4	R1377M
1401.863	0.0	1457680	START	n/a	n/a	n/a	-999	11	[-999, -999, -999]	n/a	FR1	4	R1377M
1401.862	0.001	1457687	WORD_OFF	n/a	n/a	GRASS	12	11	[0, 0, 0]	n/a	FR1	4	R1377M
1401.863	0.0	1457687	ENCODING_END	n/a	n/a	n/a	-999	11	[0, 0, 0]	n/a	FR1	4	R1377M
1401.863	4.616	1457687	DISTRACT_START	n/a	n/a	n/a	-999	11	[0, 0, 0]	n/a	FR1	4	R1377M
1406.479	3.183	1462296	PROB	3.183	n/a	n/a	-999	11	[8, 4, 8]	20	FR1	4	R1377M
1409.662	5.901	1465479	PROB	5.901	n/a	n/a	-999	11	[7, 5, 6]	18	FR1	4	R1377M
1415.563	2.935	1471380	PROB	2.935	n/a	n/a	-999	11	[1, 4, 1]	6	FR1	4	R1377M
1418.498	3.083	1474314	PROB	3.083	n/a	n/a	-999	11	[8, 8, 2]	18	FR1	4	R1377M
1421.581	3.865	1477397	PROB	3.865	n/a	n/a	-999	11	[7, 1, 7]	15	FR1	4	R1377M
1425.446	0.0	1481261	DISTRACT_END	n/a	n/a	n/a	-999	11	[0, 0, 0]	n/a	FR1	4	R1377M
1425.446	1.265	1481262	STOP	n/a	n/a	n/a	-999	11	[-999, -999, -999]	n/a	FR1	4	R1377M
1426.711	2.82	1482528	REC_START	n/a	n/a	n/a	-999	11	[0, 0, 0]	n/a	FR1	4	R1377M
1429.531	0.618	1485347	REC_WORD	0.618	n/a	TAIL	1	11	[0, 0, 0]	n/a	FR1	4	R1377M
1430.149	1.111	1485965	REC_WORD	1.111	n/a	CAST	-999	11	[0, 0, 0]	n/a	FR1	4	R1377M
1431.26	2.268	1487076	REC_WORD	2.268	n/a	FROST	3	11	[0, 0, 0]	n/a	FR1	4	R1377M
1433.528	1.267	1489344	REC_WORD	1.267	n/a	BADGE	-999	11	[0, 0, 0]	n/a	FR1	4	R1377M
1434.795	2.203	1490611	REC_WORD	2.203	n/a	BLADE	10	11	[0, 0, 0]	n/a	FR1	4	R1377M
1436.998	19.954	1492814	REC_WORD	19.954	n/a	WEED	8	11	[0, 0, 0]	n/a	FR1	4	R1377M
1456.952	8.877	1512771	REC_END	n/a	n/a	n/a	-999	11	[0, 0, 0]	n/a	FR1	4	R1377M
1465.829	10.351	1521643	COUNTDOWN_START	n/a	n/a	n/a	-999	12	[0, 0, 0]	n/a	FR1	4	R1377M
1476.18	0.0	1531991	COUNTDOWN_END	n/a	n/a	n/a	-999	12	[0, 0, 0]	n/a	FR1	4	R1377M
1476.18	2.232	1531991	ENCODING_START	n/a	n/a	n/a	-999	12	[0, 0, 0]	n/a	FR1	4	R1377M
1478.412	1.6	1534223	WORD	n/a	n/a	GOLD	1	12	[0, 0, 0]	n/a	FR1	4	R1377M
1480.012	0.884	1535821	WORD_OFF	n/a	n/a	GOLD	1	12	[0, 0, 0]	n/a	FR1	4	R1377M
1480.896	1.6	1536716	WORD	n/a	n/a	HEEL	2	12	[0, 0, 0]	n/a	FR1	4	R1377M
1482.496	1.0	1538315	WORD_OFF	n/a	n/a	HEEL	2	12	[0, 0, 0]	n/a	FR1	4	R1377M
1483.496	1.616	1539307	WORD	n/a	n/a	HARP	3	12	[0, 0, 0]	n/a	FR1	4	R1377M
1485.112	0.917	1540932	WORD_OFF	n/a	n/a	HARP	3	12	[0, 0, 0]	n/a	FR1	4	R1377M
1486.029	1.6	1541842	WORD	n/a	n/a	BOX	4	12	[0, 0, 0]	n/a	FR1	4	R1377M
1487.629	0.9	1543440	WORD_OFF	n/a	n/a	BOX	4	12	[0, 0, 0]	n/a	FR1	4	R1377M
1488.529	1.6	1544349	WORD	n/a	n/a	TEETH	5	12	[0, 0, 0]	n/a	FR1	4	R1377M
1490.129	0.783	1545947	WORD_OFF	n/a	n/a	TEETH	5	12	[0, 0, 0]	n/a	FR1	4	R1377M
1490.912	1.6	1546733	WORD	n/a	n/a	SHOE	6	12	[0, 0, 0]	n/a	FR1	4	R1377M
1492.512	0.85	1548331	WORD_OFF	n/a	n/a	SHOE	6	12	[0, 0, 0]	n/a	FR1	4	R1377M
1493.362	1.617	1549171	WORD	n/a	n/a	GEESE	7	12	[0, 0, 0]	n/a	FR1	4	R1377M
1494.979	0.933	1550797	WORD_OFF	n/a	n/a	GEESE	7	12	[0, 0, 0]	n/a	FR1	4	R1377M
1495.912	1.6	1551720	WORD	n/a	n/a	SHARK	8	12	[0, 0, 0]	n/a	FR1	4	R1377M
1497.512	0.783	1553332	WORD_OFF	n/a	n/a	SHARK	8	12	[0, 0, 0]	n/a	FR1	4	R1377M
1498.295	1.617	1554104	WORD	n/a	n/a	SPARK	9	12	[0, 0, 0]	n/a	FR1	4	R1377M
1499.912	0.8	1555730	WORD_OFF	n/a	n/a	SPARK	9	12	[0, 0, 0]	n/a	FR1	4	R1377M
1500.712	1.617	1556529	WORD	n/a	n/a	ROOT	10	12	[0, 0, 0]	n/a	FR1	4	R1377M
1502.329	0.966	1558141	WORD_OFF	n/a	n/a	ROOT	10	12	[0, 0, 0]	n/a	FR1	4	R1377M
1503.295	1.6	1559105	WORD	n/a	n/a	WIG	11	12	[0, 0, 0]	n/a	FR1	4	R1377M
1504.895	1.0	1560703	WORD_OFF	n/a	n/a	WIG	11	12	[0, 0, 0]	n/a	FR1	4	R1377M
1505.895	1.617	1561709	WORD	n/a	n/a	SEAT	12	12	[0, 0, 0]	n/a	FR1	4	R1377M
1507.512	0.001	1563321	WORD_OFF	n/a	n/a	SEAT	12	12	[0, 0, 0]	n/a	FR1	4	R1377M
1507.513	0.0	1563321	ENCODING_END	n/a	n/a	n/a	-999	12	[0, 0, 0]	n/a	FR1	4	R1377M
1507.512	0.001	1563324	PROB	0.001	n/a	n/a	-999	12	[5, 2, 1]	8	FR1	4	R1377M
1507.513	0.0	1563325	START	n/a	n/a	n/a	-999	12	[-999, -999, -999]	n/a	FR1	4	R1377M
1507.513	5.116	1563335	DISTRACT_START	n/a	n/a	n/a	-999	12	[0, 0, 0]	n/a	FR1	4	R1377M
1512.629	5.152	1568441	PROB	5.152	n/a	n/a	-999	12	[6, 3, 6]	15	FR1	4	R1377M
1517.781	5.582	1573593	PROB	5.582	n/a	n/a	-999	12	[1, 2, 6]	9	FR1	4	R1377M
1523.363	3.283	1579175	PROB	3.283	n/a	n/a	-999	12	[5, 5, 5]	15	FR1	4	R1377M
1526.646	3.517	1582457	PROB	3.517	n/a	n/a	-999	12	[8, 8, 3]	19	FR1	4	R1377M
1530.163	0.0	1585972	DISTRACT_END	n/a	n/a	n/a	-999	12	[0, 0, 0]	n/a	FR1	4	R1377M
1530.163	1.333	1585974	STOP	n/a	n/a	n/a	-999	12	[-999, -999, -999]	n/a	FR1	4	R1377M
1531.496	2.408	1587308	REC_START	n/a	n/a	n/a	-999	12	[0, 0, 0]	n/a	FR1	4	R1377M
1533.904	0.472	1589715	REC_WORD	0.472	n/a	GOLD	1	12	[0, 0, 0]	n/a	FR1	4	R1377M
1534.376	0.845	1590187	REC_WORD	0.845	n/a	HEEL	2	12	[0, 0, 0]	n/a	FR1	4	R1377M
1535.221	0.603	1591032	REC_WORD	0.603	n/a	TEETH	5	12	[0, 0, 0]	n/a	FR1	4	R1377M
1535.824	0.657	1591635	REC_WORD	0.657	n/a	SHARK	8	12	[0, 0, 0]	n/a	FR1	4	R1377M
1536.481	1.64	1592292	REC_WORD	1.64	n/a	SHOE	6	12	[0, 0, 0]	n/a	FR1	4	R1377M
1538.121	23.627	1593932	REC_WORD	23.627	n/a	WEED	-999	12	[0, 0, 0]	n/a	FR1	4	R1377M
1561.748	0.0	1617564	REC_END	n/a	n/a	n/a	-999	12	[0, 0, 0]	n/a	FR1	4	R1377M
