onset	duration	sample	trial_type	response_time	stim_file	item_name	serialpos	list	test	answer	experiment	session	subject
0.0	26.775	1675	INSTRUCT_START	n/a	n/a	n/a	-999	-999	[0, 0, 0]	n/a	FR1	1	R1346T
26.775	1.932	28448	INSTRUCT_END	n/a	n/a	n/a	-999	-999	[0, 0, 0]	n/a	FR1	1	R1346T
28.707	10.18	30380	MIC TEST_START	n/a	n/a	n/a	-999	-999	[0, 0, 0]	n/a	FR1	1	R1346T
38.887	0.011	40560	MIC TEST_END	n/a	n/a	n/a	-999	-999	[0, 0, 0]	n/a	FR1	1	R1346T
38.898	0.0	40571	TRIAL_START	n/a	n/a	n/a	-999	-1	[0, 0, 0]	n/a	FR1	1	R1346T
38.898	0.0	40571	TRIAL	n/a	n/a	n/a	-999	-1	[0, 0, 0]	n/a	FR1	1	R1346T
38.898	2.678	40571	WAITING_START	n/a	n/a	n/a	-999	-1	[0, 0, 0]	n/a	FR1	1	R1346T
41.576	0.0	43249	COUNTDOWN_START	n/a	n/a	n/a	-999	-1	[0, 0, 0]	n/a	FR1	1	R1346T
41.576	10.428	43249	WAITING_END	n/a	n/a	n/a	-999	-1	[0, 0, 0]	n/a	FR1	1	R1346T
52.004	0.001	53676	COUNTDOWN_END	n/a	n/a	n/a	-999	-1	[0, 0, 0]	n/a	FR1	1	R1346T
52.005	1.056	53677	ORIENT_START	n/a	n/a	n/a	-999	-1	[0, 0, 0]	n/a	FR1	1	R1346T
53.061	0.0	54733	ORIENT_END	n/a	n/a	n/a	-999	-1	[0, 0, 0]	n/a	FR1	1	R1346T
53.061	1.008	54733	ENCODING_START	n/a	n/a	n/a	-999	-1	[0, 0, 0]	n/a	FR1	1	R1346T
54.069	1.626	55741	WORD	n/a	n/a	FLOOD	1	-1	[0, 0, 0]	n/a	FR1	1	R1346T
55.695	1.069	57367	WORD_OFF	n/a	n/a	FLOOD	1	-1	[0, 0, 0]	n/a	FR1	1	R1346T
56.764	1.631	58436	WORD	n/a	n/a	COTTON	2	-1	[0, 0, 0]	n/a	FR1	1	R1346T
58.395	0.971	60067	WORD_OFF	n/a	n/a	COTTON	2	-1	[0, 0, 0]	n/a	FR1	1	R1346T
59.366	1.63	61038	WORD	n/a	n/a	BABY	3	-1	[0, 0, 0]	n/a	FR1	1	R1346T
60.996	0.795	62668	WORD_OFF	n/a	n/a	BABY	3	-1	[0, 0, 0]	n/a	FR1	1	R1346T
61.791	1.622	63463	WORD	n/a	n/a	IMAGE	4	-1	[0, 0, 0]	n/a	FR1	1	R1346T
63.413	0.841	65085	WORD_OFF	n/a	n/a	IMAGE	4	-1	[0, 0, 0]	n/a	FR1	1	R1346T
64.254	1.626	65926	WORD	n/a	n/a	RING	5	-1	[0, 0, 0]	n/a	FR1	1	R1346T
65.88	0.953	67552	WORD_OFF	n/a	n/a	RING	5	-1	[0, 0, 0]	n/a	FR1	1	R1346T
66.833	1.631	68505	WORD	n/a	n/a	RHINO	6	-1	[0, 0, 0]	n/a	FR1	1	R1346T
68.464	0.872	70136	WORD_OFF	n/a	n/a	RHINO	6	-1	[0, 0, 0]	n/a	FR1	1	R1346T
69.336	1.628	71007	WORD	n/a	n/a	TONGUE	7	-1	[0, 0, 0]	n/a	FR1	1	R1346T
70.964	0.886	72635	WORD_OFF	n/a	n/a	TONGUE	7	-1	[0, 0, 0]	n/a	FR1	1	R1346T
71.85	1.631	73521	WORD	n/a	n/a	CAMEL	8	-1	[0, 0, 0]	n/a	FR1	1	R1346T
73.481	0.857	75152	WORD_OFF	n/a	n/a	CAMEL	8	-1	[0, 0, 0]	n/a	FR1	1	R1346T
74.338	1.627	76009	WORD	n/a	n/a	WAGON	9	-1	[0, 0, 0]	n/a	FR1	1	R1346T
75.965	0.791	77636	WORD_OFF	n/a	n/a	WAGON	9	-1	[0, 0, 0]	n/a	FR1	1	R1346T
76.756	1.626	78427	WORD	n/a	n/a	BEAM	10	-1	[0, 0, 0]	n/a	FR1	1	R1346T
78.382	1.102	80053	WORD_OFF	n/a	n/a	BEAM	10	-1	[0, 0, 0]	n/a	FR1	1	R1346T
79.484	1.632	81155	WORD	n/a	n/a	WATCH	11	-1	[0, 0, 0]	n/a	FR1	1	R1346T
81.116	1.091	82787	WORD_OFF	n/a	n/a	WATCH	11	-1	[0, 0, 0]	n/a	FR1	1	R1346T
82.207	1.626	83878	WORD	n/a	n/a	CHEST	12	-1	[0, 0, 0]	n/a	FR1	1	R1346T
83.833	0.001	85504	WORD_OFF	n/a	n/a	CHEST	12	-1	[0, 0, 0]	n/a	FR1	1	R1346T
83.834	0.0	85505	ENCODING_END	n/a	n/a	n/a	-999	-1	[0, 0, 0]	n/a	FR1	1	R1346T
83.834	0.0	85505	DISTRACT_START	n/a	n/a	n/a	-999	-1	[0, 0, 0]	n/a	FR1	1	R1346T
83.834	0.016	85505	START	n/a	n/a	n/a	-999	-1	[-999, -999, -999]	n/a	FR1	1	R1346T
83.85	6.919	85521	PROB	6.919	n/a	n/a	-999	-1	[1, 6, 8]	15	FR1	1	R1346T
90.769	3.516	92440	PROB	3.516	n/a	n/a	-999	-1	[1, 3, 2]	6	FR1	1	R1346T
94.285	5.851	95955	PROB	5.851	n/a	n/a	-999	-1	[5, 4, 4]	13	FR1	1	R1346T
100.136	6.013	101806	PROB	6.013	n/a	n/a	-999	-1	[3, 9, 6]	18	FR1	1	R1346T
106.149	0.022	107819	STOP	n/a	n/a	n/a	-999	-1	[-999, -999, -999]	n/a	FR1	1	R1346T
106.171	0.524	107841	DISTRACT_END	n/a	n/a	n/a	-999	-1	[0, 0, 0]	n/a	FR1	1	R1346T
106.695	1.676	108365	RETRIEVAL_ORIENT_START	n/a	n/a	n/a	-999	-1	[0, 0, 0]	n/a	FR1	1	R1346T
108.371	0.0	110041	RETRIEVAL_ORIENT_END	n/a	n/a	n/a	-999	-1	[0, 0, 0]	n/a	FR1	1	R1346T
108.371	30.014	110041	REC_START	n/a	n/a	n/a	-999	-1	[0, 0, 0]	n/a	FR1	1	R1346T
138.385	0.0	140053	PRACTICE_POST_INSTRUCT_START	n/a	n/a	n/a	-999	-1	[0, 0, 0]	n/a	FR1	1	R1346T
138.385	16.578	140053	REC_END	n/a	n/a	n/a	-999	-1	[0, 0, 0]	n/a	FR1	1	R1346T
154.963	0.001	156631	PRACTICE_POST_INSTRUCT_END	n/a	n/a	n/a	-999	-1	[0, 0, 0]	n/a	FR1	1	R1346T
154.964	0.017	156632	TRIAL_END	n/a	n/a	n/a	-999	-1	[0, 0, 0]	n/a	FR1	1	R1346T
154.981	0.001	156649	TRIAL_START	n/a	n/a	n/a	-999	1	[0, 0, 0]	n/a	FR1	1	R1346T
154.982	0.0	156650	TRIAL	n/a	n/a	n/a	-999	1	[0, 0, 0]	n/a	FR1	1	R1346T
154.982	11.116	156650	WAITING_START	n/a	n/a	n/a	-999	1	[0, 0, 0]	n/a	FR1	1	R1346T
166.098	0.001	167765	WAITING_END	n/a	n/a	n/a	-999	1	[0, 0, 0]	n/a	FR1	1	R1346T
166.099	10.43	167766	COUNTDOWN_START	n/a	n/a	n/a	-999	1	[0, 0, 0]	n/a	FR1	1	R1346T
176.529	0.001	178196	COUNTDOWN_END	n/a	n/a	n/a	-999	1	[0, 0, 0]	n/a	FR1	1	R1346T
176.53	1.238	178197	ORIENT_START	n/a	n/a	n/a	-999	1	[0, 0, 0]	n/a	FR1	1	R1346T
177.768	0.001	179435	ORIENT_END	n/a	n/a	n/a	-999	1	[0, 0, 0]	n/a	FR1	1	R1346T
177.769	1.084	179436	ENCODING_START	n/a	n/a	n/a	-999	1	[0, 0, 0]	n/a	FR1	1	R1346T
178.853	1.631	180520	WORD	n/a	n/a	SMILE	1	1	[0, 0, 0]	n/a	FR1	1	R1346T
180.484	0.808	182151	WORD_OFF	n/a	n/a	SMILE	1	1	[0, 0, 0]	n/a	FR1	1	R1346T
181.292	1.626	182959	WORD	n/a	n/a	BUSH	2	1	[0, 0, 0]	n/a	FR1	1	R1346T
182.918	0.753	184584	WORD_OFF	n/a	n/a	BUSH	2	1	[0, 0, 0]	n/a	FR1	1	R1346T
183.671	1.631	185337	WORD	n/a	n/a	PIPE	3	1	[0, 0, 0]	n/a	FR1	1	R1346T
185.302	0.768	186968	WORD_OFF	n/a	n/a	PIPE	3	1	[0, 0, 0]	n/a	FR1	1	R1346T
186.07	1.632	187736	WORD	n/a	n/a	KEY	4	1	[0, 0, 0]	n/a	FR1	1	R1346T
187.702	0.893	189368	WORD_OFF	n/a	n/a	KEY	4	1	[0, 0, 0]	n/a	FR1	1	R1346T
188.595	1.624	190261	WORD	n/a	n/a	CLOCK	5	1	[0, 0, 0]	n/a	FR1	1	R1346T
190.219	0.774	191885	WORD_OFF	n/a	n/a	CLOCK	5	1	[0, 0, 0]	n/a	FR1	1	R1346T
190.993	1.627	192659	WORD	n/a	n/a	FOAM	6	1	[0, 0, 0]	n/a	FR1	1	R1346T
192.62	0.909	194286	WORD_OFF	n/a	n/a	FOAM	6	1	[0, 0, 0]	n/a	FR1	1	R1346T
193.529	1.625	195195	WORD	n/a	n/a	STRAW	7	1	[0, 0, 0]	n/a	FR1	1	R1346T
195.154	1.133	196820	WORD_OFF	n/a	n/a	STRAW	7	1	[0, 0, 0]	n/a	FR1	1	R1346T
196.287	1.634	197953	WORD	n/a	n/a	MOUSE	8	1	[0, 0, 0]	n/a	FR1	1	R1346T
197.921	1.038	199587	WORD_OFF	n/a	n/a	MOUSE	8	1	[0, 0, 0]	n/a	FR1	1	R1346T
198.959	1.629	200625	WORD	n/a	n/a	GLASS	9	1	[0, 0, 0]	n/a	FR1	1	R1346T
200.588	1.142	202254	WORD_OFF	n/a	n/a	GLASS	9	1	[0, 0, 0]	n/a	FR1	1	R1346T
201.73	1.625	203396	WORD	n/a	n/a	CHALK	10	1	[0, 0, 0]	n/a	FR1	1	R1346T
203.355	1.131	205021	WORD_OFF	n/a	n/a	CHALK	10	1	[0, 0, 0]	n/a	FR1	1	R1346T
204.486	1.636	206152	WORD	n/a	n/a	DOG	11	1	[0, 0, 0]	n/a	FR1	1	R1346T
206.122	1.027	207787	WORD_OFF	n/a	n/a	DOG	11	1	[0, 0, 0]	n/a	FR1	1	R1346T
207.149	1.625	208814	WORD	n/a	n/a	WING	12	1	[0, 0, 0]	n/a	FR1	1	R1346T
208.774	0.0	210439	ENCODING_END	n/a	n/a	n/a	-999	1	[0, 0, 0]	n/a	FR1	1	R1346T
208.774	0.0	210439	DISTRACT_START	n/a	n/a	n/a	-999	1	[0, 0, 0]	n/a	FR1	1	R1346T
208.774	0.0	210439	WORD_OFF	n/a	n/a	WING	12	1	[0, 0, 0]	n/a	FR1	1	R1346T
208.774	0.016	210439	START	n/a	n/a	n/a	-999	1	[-999, -999, -999]	n/a	FR1	1	R1346T
208.79	6.3	210455	PROB	6.3	n/a	n/a	-999	1	[1, 5, 9]	15	FR1	1	R1346T
215.09	5.918	216755	PROB	5.918	n/a	n/a	-999	1	[4, 7, 8]	19	FR1	1	R1346T
221.008	5.984	222673	PROB	5.984	n/a	n/a	-999	1	[3, 9, 7]	19	FR1	1	R1346T
226.992	6.162	228657	PROB	6.162	n/a	n/a	-999	1	[3, 8, 9]	17	FR1	1	R1346T
233.154	0.006	234818	STOP	n/a	n/a	n/a	-999	1	[-999, -999, -999]	n/a	FR1	1	R1346T
233.16	0.617	234824	DISTRACT_END	n/a	n/a	n/a	-999	1	[0, 0, 0]	n/a	FR1	1	R1346T
233.777	1.684	235441	RETRIEVAL_ORIENT_START	n/a	n/a	n/a	-999	1	[0, 0, 0]	n/a	FR1	1	R1346T
235.461	0.0	237125	RETRIEVAL_ORIENT_END	n/a	n/a	n/a	-999	1	[0, 0, 0]	n/a	FR1	1	R1346T
235.461	7.016	237125	REC_START	n/a	n/a	n/a	-999	1	[0, 0, 0]	n/a	FR1	1	R1346T
242.477	2.05	244141	REC_WORD	2.05	n/a	SPOUSE	-999	1	[0, 0, 0]	n/a	FR1	1	R1346T
244.527	9.312	246191	REC_WORD	9.312	n/a	SMILE	1	1	[0, 0, 0]	n/a	FR1	1	R1346T
253.839	6.265	255502	REC_WORD	6.265	n/a	CATCH	-999	1	[0, 0, 0]	n/a	FR1	1	R1346T
260.104	5.37	261767	REC_WORD	5.37	n/a	CHALK	10	1	[0, 0, 0]	n/a	FR1	1	R1346T
265.474	0.001	267137	REC_END	n/a	n/a	n/a	-999	1	[0, 0, 0]	n/a	FR1	1	R1346T
265.475	0.015	267138	TRIAL_END	n/a	n/a	n/a	-999	1	[0, 0, 0]	n/a	FR1	1	R1346T
265.49	0.0	267153	TRIAL_START	n/a	n/a	n/a	-999	2	[0, 0, 0]	n/a	FR1	1	R1346T
265.49	0.0	267153	TRIAL	n/a	n/a	n/a	-999	2	[0, 0, 0]	n/a	FR1	1	R1346T
265.49	26.731	267153	WAITING_START	n/a	n/a	n/a	-999	2	[0, 0, 0]	n/a	FR1	1	R1346T
292.221	0.0	293883	WAITING_END	n/a	n/a	n/a	-999	2	[0, 0, 0]	n/a	FR1	1	R1346T
292.221	10.43	293883	COUNTDOWN_START	n/a	n/a	n/a	-999	2	[0, 0, 0]	n/a	FR1	1	R1346T
302.651	0.001	304312	COUNTDOWN_END	n/a	n/a	n/a	-999	2	[0, 0, 0]	n/a	FR1	1	R1346T
302.652	1.071	304313	ORIENT_START	n/a	n/a	n/a	-999	2	[0, 0, 0]	n/a	FR1	1	R1346T
303.723	0.001	305384	ORIENT_END	n/a	n/a	n/a	-999	2	[0, 0, 0]	n/a	FR1	1	R1346T
303.724	1.005	305385	ENCODING_START	n/a	n/a	n/a	-999	2	[0, 0, 0]	n/a	FR1	1	R1346T
304.729	1.628	306390	WORD	n/a	n/a	LEAF	1	2	[0, 0, 0]	n/a	FR1	1	R1346T
306.357	1.018	308018	WORD_OFF	n/a	n/a	LEAF	1	2	[0, 0, 0]	n/a	FR1	1	R1346T
307.375	1.633	309036	WORD	n/a	n/a	BED	2	2	[0, 0, 0]	n/a	FR1	1	R1346T
309.008	1.008	310669	WORD_OFF	n/a	n/a	BED	2	2	[0, 0, 0]	n/a	FR1	1	R1346T
310.016	1.625	311677	WORD	n/a	n/a	GOLD	3	2	[0, 0, 0]	n/a	FR1	1	R1346T
311.641	0.822	313302	WORD_OFF	n/a	n/a	GOLD	3	2	[0, 0, 0]	n/a	FR1	1	R1346T
312.463	1.629	314124	WORD	n/a	n/a	HOLE	4	2	[0, 0, 0]	n/a	FR1	1	R1346T
314.092	1.026	315753	WORD_OFF	n/a	n/a	HOLE	4	2	[0, 0, 0]	n/a	FR1	1	R1346T
315.118	1.624	316779	WORD	n/a	n/a	FOX	5	2	[0, 0, 0]	n/a	FR1	1	R1346T
316.742	0.981	318403	WORD_OFF	n/a	n/a	FOX	5	2	[0, 0, 0]	n/a	FR1	1	R1346T
317.723	1.636	319384	WORD	n/a	n/a	LOCK	6	2	[0, 0, 0]	n/a	FR1	1	R1346T
319.359	1.149	321019	WORD_OFF	n/a	n/a	LOCK	6	2	[0, 0, 0]	n/a	FR1	1	R1346T
320.508	1.635	322168	WORD	n/a	n/a	BAND	7	2	[0, 0, 0]	n/a	FR1	1	R1346T
322.143	0.776	323803	WORD_OFF	n/a	n/a	BAND	7	2	[0, 0, 0]	n/a	FR1	1	R1346T
322.919	1.625	324579	WORD	n/a	n/a	TRAY	8	2	[0, 0, 0]	n/a	FR1	1	R1346T
324.544	0.934	326204	WORD_OFF	n/a	n/a	TRAY	8	2	[0, 0, 0]	n/a	FR1	1	R1346T
325.478	1.633	327138	WORD	n/a	n/a	PEAR	9	2	[0, 0, 0]	n/a	FR1	1	R1346T
327.111	0.916	328771	WORD_OFF	n/a	n/a	PEAR	9	2	[0, 0, 0]	n/a	FR1	1	R1346T
328.027	1.634	329687	WORD	n/a	n/a	PRINCE	10	2	[0, 0, 0]	n/a	FR1	1	R1346T
329.661	1.061	331321	WORD_OFF	n/a	n/a	PRINCE	10	2	[0, 0, 0]	n/a	FR1	1	R1346T
330.722	1.623	332382	WORD	n/a	n/a	MOOSE	11	2	[0, 0, 0]	n/a	FR1	1	R1346T
332.345	1.117	334005	WORD_OFF	n/a	n/a	MOOSE	11	2	[0, 0, 0]	n/a	FR1	1	R1346T
333.462	1.634	335122	WORD	n/a	n/a	FAN	12	2	[0, 0, 0]	n/a	FR1	1	R1346T
335.096	0.0	336756	WORD_OFF	n/a	n/a	FAN	12	2	[0, 0, 0]	n/a	FR1	1	R1346T
335.096	0.0	336756	ENCODING_END	n/a	n/a	n/a	-999	2	[0, 0, 0]	n/a	FR1	1	R1346T
335.096	0.001	336756	DISTRACT_START	n/a	n/a	n/a	-999	2	[0, 0, 0]	n/a	FR1	1	R1346T
335.097	0.015	336757	START	n/a	n/a	n/a	-999	2	[-999, -999, -999]	n/a	FR1	1	R1346T
335.112	4.367	336772	PROB	4.367	n/a	n/a	-999	2	[1, 6, 1]	8	FR1	1	R1346T
339.479	7.168	341139	PROB	7.168	n/a	n/a	-999	2	[7, 6, 8]	21	FR1	1	R1346T
346.647	6.852	348306	PROB	6.852	n/a	n/a	-999	2	[4, 1, 7]	12	FR1	1	R1346T
353.499	9.729	355158	PROB	9.729	n/a	n/a	-999	2	[2, 5, 3]	10	FR1	1	R1346T
363.228	0.006	364887	STOP	n/a	n/a	n/a	-999	2	[-999, -999, -999]	n/a	FR1	1	R1346T
363.234	0.531	364893	DISTRACT_END	n/a	n/a	n/a	-999	2	[0, 0, 0]	n/a	FR1	1	R1346T
363.765	1.653	365423	RETRIEVAL_ORIENT_START	n/a	n/a	n/a	-999	2	[0, 0, 0]	n/a	FR1	1	R1346T
365.418	0.0	367076	RETRIEVAL_ORIENT_END	n/a	n/a	n/a	-999	2	[0, 0, 0]	n/a	FR1	1	R1346T
365.418	2.595	367076	REC_START	n/a	n/a	n/a	-999	2	[0, 0, 0]	n/a	FR1	1	R1346T
368.013	1.692	369671	REC_WORD	1.692	n/a	PEAR	9	2	[0, 0, 0]	n/a	FR1	1	R1346T
369.705	1.914	371363	REC_WORD	1.914	n/a	LEAF	1	2	[0, 0, 0]	n/a	FR1	1	R1346T
371.619	6.856	373277	REC_WORD	6.856	n/a	BED	2	2	[0, 0, 0]	n/a	FR1	1	R1346T
378.475	4.708	380133	REC_WORD	4.708	n/a	FOX	5	2	[0, 0, 0]	n/a	FR1	1	R1346T
383.183	12.248	384841	REC_WORD	12.248	n/a	HOLE	4	2	[0, 0, 0]	n/a	FR1	1	R1346T
395.431	0.0	397088	TRIAL_END	n/a	n/a	n/a	-999	2	[0, 0, 0]	n/a	FR1	1	R1346T
395.431	0.014	397088	REC_END	n/a	n/a	n/a	-999	2	[0, 0, 0]	n/a	FR1	1	R1346T
395.445	0.0	397102	TRIAL_START	n/a	n/a	n/a	-999	3	[0, 0, 0]	n/a	FR1	1	R1346T
395.445	0.0	397102	TRIAL	n/a	n/a	n/a	-999	3	[0, 0, 0]	n/a	FR1	1	R1346T
395.445	10.297	397102	WAITING_START	n/a	n/a	n/a	-999	3	[0, 0, 0]	n/a	FR1	1	R1346T
405.742	0.0	407399	WAITING_END	n/a	n/a	n/a	-999	3	[0, 0, 0]	n/a	FR1	1	R1346T
405.742	10.428	407399	COUNTDOWN_START	n/a	n/a	n/a	-999	3	[0, 0, 0]	n/a	FR1	1	R1346T
416.17	0.001	417826	COUNTDOWN_END	n/a	n/a	n/a	-999	3	[0, 0, 0]	n/a	FR1	1	R1346T
416.171	1.239	417827	ORIENT_START	n/a	n/a	n/a	-999	3	[0, 0, 0]	n/a	FR1	1	R1346T
417.41	0.001	419066	ORIENT_END	n/a	n/a	n/a	-999	3	[0, 0, 0]	n/a	FR1	1	R1346T
417.411	0.897	419067	ENCODING_START	n/a	n/a	n/a	-999	3	[0, 0, 0]	n/a	FR1	1	R1346T
418.308	1.636	419964	WORD	n/a	n/a	THUMB	1	3	[0, 0, 0]	n/a	FR1	1	R1346T
419.944	0.843	421600	WORD_OFF	n/a	n/a	THUMB	1	3	[0, 0, 0]	n/a	FR1	1	R1346T
420.787	1.624	422443	WORD	n/a	n/a	WEED	2	3	[0, 0, 0]	n/a	FR1	1	R1346T
422.411	1.145	424067	WORD_OFF	n/a	n/a	WEED	2	3	[0, 0, 0]	n/a	FR1	1	R1346T
423.556	1.622	425212	WORD	n/a	n/a	PANTS	3	3	[0, 0, 0]	n/a	FR1	1	R1346T
425.178	1.024	426834	WORD_OFF	n/a	n/a	PANTS	3	3	[0, 0, 0]	n/a	FR1	1	R1346T
426.202	1.627	427858	WORD	n/a	n/a	DOLL	4	3	[0, 0, 0]	n/a	FR1	1	R1346T
427.829	1.092	429485	WORD_OFF	n/a	n/a	DOLL	4	3	[0, 0, 0]	n/a	FR1	1	R1346T
428.921	1.625	430577	WORD	n/a	n/a	NAIL	5	3	[0, 0, 0]	n/a	FR1	1	R1346T
430.546	0.856	432202	WORD_OFF	n/a	n/a	NAIL	5	3	[0, 0, 0]	n/a	FR1	1	R1346T
431.402	1.628	433057	WORD	n/a	n/a	BADGE	6	3	[0, 0, 0]	n/a	FR1	1	R1346T
433.03	0.889	434685	WORD_OFF	n/a	n/a	BADGE	6	3	[0, 0, 0]	n/a	FR1	1	R1346T
433.919	1.628	435574	WORD	n/a	n/a	GLOVE	7	3	[0, 0, 0]	n/a	FR1	1	R1346T
435.547	1.08	437202	WORD_OFF	n/a	n/a	GLOVE	7	3	[0, 0, 0]	n/a	FR1	1	R1346T
436.627	1.637	438282	WORD	n/a	n/a	TIE	8	3	[0, 0, 0]	n/a	FR1	1	R1346T
438.264	0.812	439919	WORD_OFF	n/a	n/a	TIE	8	3	[0, 0, 0]	n/a	FR1	1	R1346T
439.076	1.622	440731	WORD	n/a	n/a	HAWK	9	3	[0, 0, 0]	n/a	FR1	1	R1346T
440.698	1.111	442353	WORD_OFF	n/a	n/a	HAWK	9	3	[0, 0, 0]	n/a	FR1	1	R1346T
441.809	1.623	443464	WORD	n/a	n/a	STORM	10	3	[0, 0, 0]	n/a	FR1	1	R1346T
443.432	1.139	445087	WORD_OFF	n/a	n/a	STORM	10	3	[0, 0, 0]	n/a	FR1	1	R1346T
444.571	1.628	446226	WORD	n/a	n/a	FOOD	11	3	[0, 0, 0]	n/a	FR1	1	R1346T
446.199	0.795	447854	WORD_OFF	n/a	n/a	FOOD	11	3	[0, 0, 0]	n/a	FR1	1	R1346T
446.994	1.622	448649	WORD	n/a	n/a	PHONE	12	3	[0, 0, 0]	n/a	FR1	1	R1346T
448.616	0.0	450271	WORD_OFF	n/a	n/a	PHONE	12	3	[0, 0, 0]	n/a	FR1	1	R1346T
448.616	0.001	450271	ENCODING_END	n/a	n/a	n/a	-999	3	[0, 0, 0]	n/a	FR1	1	R1346T
448.617	0.0	450272	DISTRACT_START	n/a	n/a	n/a	-999	3	[0, 0, 0]	n/a	FR1	1	R1346T
448.617	0.016	450272	START	n/a	n/a	n/a	-999	3	[-999, -999, -999]	n/a	FR1	1	R1346T
448.633	5.717	450288	PROB	5.717	n/a	n/a	-999	3	[5, 8, 2]	15	FR1	1	R1346T
454.35	6.801	456004	PROB	6.801	n/a	n/a	-999	3	[6, 3, 8]	17	FR1	1	R1346T
461.151	4.435	462805	PROB	4.435	n/a	n/a	-999	3	[1, 7, 2]	10	FR1	1	R1346T
465.586	9.193	467240	PROB	9.193	n/a	n/a	-999	3	[3, 9, 7]	19	FR1	1	R1346T
474.779	0.009	476433	STOP	n/a	n/a	n/a	-999	3	[-999, -999, -999]	n/a	FR1	1	R1346T
474.788	0.534	476442	DISTRACT_END	n/a	n/a	n/a	-999	3	[0, 0, 0]	n/a	FR1	1	R1346T
475.322	1.616	476976	RETRIEVAL_ORIENT_START	n/a	n/a	n/a	-999	3	[0, 0, 0]	n/a	FR1	1	R1346T
476.938	0.0	478591	RETRIEVAL_ORIENT_END	n/a	n/a	n/a	-999	3	[0, 0, 0]	n/a	FR1	1	R1346T
476.938	2.563	478591	REC_START	n/a	n/a	n/a	-999	3	[0, 0, 0]	n/a	FR1	1	R1346T
479.501	1.794	481154	REC_WORD_VV	1.794	n/a	<>	-999	3	[0, 0, 0]	n/a	FR1	1	R1346T
481.295	1.304	482948	REC_WORD	1.304	n/a	THUMB	1	3	[0, 0, 0]	n/a	FR1	1	R1346T
482.599	2.431	484252	REC_WORD	2.431	n/a	NAIL	5	3	[0, 0, 0]	n/a	FR1	1	R1346T
485.03	15.004	486683	REC_WORD	15.004	n/a	GLOVE	7	3	[0, 0, 0]	n/a	FR1	1	R1346T
500.034	6.917	501686	REC_WORD	6.917	n/a	FLOOD	-999	3	[0, 0, 0]	n/a	FR1	1	R1346T
506.951	0.0	508603	TRIAL_END	n/a	n/a	n/a	-999	3	[0, 0, 0]	n/a	FR1	1	R1346T
506.951	0.014	508603	REC_END	n/a	n/a	n/a	-999	3	[0, 0, 0]	n/a	FR1	1	R1346T
506.965	0.0	508617	TRIAL_START	n/a	n/a	n/a	-999	4	[0, 0, 0]	n/a	FR1	1	R1346T
506.965	0.001	508617	TRIAL	n/a	n/a	n/a	-999	4	[0, 0, 0]	n/a	FR1	1	R1346T
506.966	5.528	508618	WAITING_START	n/a	n/a	n/a	-999	4	[0, 0, 0]	n/a	FR1	1	R1346T
512.494	0.001	514146	WAITING_END	n/a	n/a	n/a	-999	4	[0, 0, 0]	n/a	FR1	1	R1346T
512.495	10.428	514147	COUNTDOWN_START	n/a	n/a	n/a	-999	4	[0, 0, 0]	n/a	FR1	1	R1346T
522.923	0.0	524574	COUNTDOWN_END	n/a	n/a	n/a	-999	4	[0, 0, 0]	n/a	FR1	1	R1346T
522.923	1.057	524574	ORIENT_START	n/a	n/a	n/a	-999	4	[0, 0, 0]	n/a	FR1	1	R1346T
523.98	0.0	525631	ENCODING_START	n/a	n/a	n/a	-999	4	[0, 0, 0]	n/a	FR1	1	R1346T
523.98	1.135	525631	ORIENT_END	n/a	n/a	n/a	-999	4	[0, 0, 0]	n/a	FR1	1	R1346T
525.115	1.632	526766	WORD	n/a	n/a	CLIFF	1	4	[0, 0, 0]	n/a	FR1	1	R1346T
526.747	1.039	528398	WORD_OFF	n/a	n/a	CLIFF	1	4	[0, 0, 0]	n/a	FR1	1	R1346T
527.786	1.628	529437	WORD	n/a	n/a	BRANCH	2	4	[0, 0, 0]	n/a	FR1	1	R1346T
529.414	1.032	531065	WORD_OFF	n/a	n/a	BRANCH	2	4	[0, 0, 0]	n/a	FR1	1	R1346T
530.446	1.635	532097	WORD	n/a	n/a	DEER	3	4	[0, 0, 0]	n/a	FR1	1	R1346T
532.081	1.078	533732	WORD_OFF	n/a	n/a	DEER	3	4	[0, 0, 0]	n/a	FR1	1	R1346T
533.159	1.624	534810	WORD	n/a	n/a	ELF	4	4	[0, 0, 0]	n/a	FR1	1	R1346T
534.783	1.149	536434	WORD_OFF	n/a	n/a	ELF	4	4	[0, 0, 0]	n/a	FR1	1	R1346T
535.932	1.634	537583	WORD	n/a	n/a	SIGN	5	4	[0, 0, 0]	n/a	FR1	1	R1346T
537.566	0.848	539217	WORD_OFF	n/a	n/a	SIGN	5	4	[0, 0, 0]	n/a	FR1	1	R1346T
538.414	1.635	540065	WORD	n/a	n/a	GEESE	6	4	[0, 0, 0]	n/a	FR1	1	R1346T
540.049	0.99	541700	WORD_OFF	n/a	n/a	GEESE	6	4	[0, 0, 0]	n/a	FR1	1	R1346T
541.039	1.627	542690	WORD	n/a	n/a	SEAT	7	4	[0, 0, 0]	n/a	FR1	1	R1346T
542.666	0.97	544317	WORD_OFF	n/a	n/a	SEAT	7	4	[0, 0, 0]	n/a	FR1	1	R1346T
543.636	1.631	545287	WORD	n/a	n/a	PEN	8	4	[0, 0, 0]	n/a	FR1	1	R1346T
545.267	1.046	546917	WORD_OFF	n/a	n/a	PEN	8	4	[0, 0, 0]	n/a	FR1	1	R1346T
546.313	1.638	547963	WORD	n/a	n/a	SLEEVE	9	4	[0, 0, 0]	n/a	FR1	1	R1346T
547.951	1.015	549601	WORD_OFF	n/a	n/a	SLEEVE	9	4	[0, 0, 0]	n/a	FR1	1	R1346T
548.966	1.635	550616	WORD	n/a	n/a	RUG	10	4	[0, 0, 0]	n/a	FR1	1	R1346T
550.601	0.963	552251	WORD_OFF	n/a	n/a	RUG	10	4	[0, 0, 0]	n/a	FR1	1	R1346T
551.564	1.621	553214	WORD	n/a	n/a	SINK	11	4	[0, 0, 0]	n/a	FR1	1	R1346T
553.185	0.753	554835	WORD_OFF	n/a	n/a	SINK	11	4	[0, 0, 0]	n/a	FR1	1	R1346T
553.938	1.631	555588	WORD	n/a	n/a	BEAR	12	4	[0, 0, 0]	n/a	FR1	1	R1346T
555.569	0.0	557219	WORD_OFF	n/a	n/a	BEAR	12	4	[0, 0, 0]	n/a	FR1	1	R1346T
555.569	0.001	557219	ENCODING_END	n/a	n/a	n/a	-999	4	[0, 0, 0]	n/a	FR1	1	R1346T
555.57	0.0	557220	DISTRACT_START	n/a	n/a	n/a	-999	4	[0, 0, 0]	n/a	FR1	1	R1346T
555.57	0.015	557220	START	n/a	n/a	n/a	-999	4	[-999, -999, -999]	n/a	FR1	1	R1346T
555.585	4.834	557235	PROB	4.834	n/a	n/a	-999	4	[7, 9, 1]	17	FR1	1	R1346T
560.419	9.736	562069	PROB	9.736	n/a	n/a	-999	4	[7, 5, 8]	20	FR1	1	R1346T
570.155	7.094	571804	PROB	7.094	n/a	n/a	-999	4	[5, 4, 2]	11	FR1	1	R1346T
577.249	0.007	578898	STOP	n/a	n/a	n/a	-999	4	[-999, -999, -999]	n/a	FR1	1	R1346T
577.256	0.628	578905	DISTRACT_END	n/a	n/a	n/a	-999	4	[0, 0, 0]	n/a	FR1	1	R1346T
577.884	1.723	579533	RETRIEVAL_ORIENT_START	n/a	n/a	n/a	-999	4	[0, 0, 0]	n/a	FR1	1	R1346T
579.607	0.0	581256	RETRIEVAL_ORIENT_END	n/a	n/a	n/a	-999	4	[0, 0, 0]	n/a	FR1	1	R1346T
579.607	1.763	581256	REC_START	n/a	n/a	n/a	-999	4	[0, 0, 0]	n/a	FR1	1	R1346T
581.37	2.123	583019	REC_WORD	2.123	n/a	CLIFF	1	4	[0, 0, 0]	n/a	FR1	1	R1346T
583.493	3.379	585142	REC_WORD	3.379	n/a	BEAR	12	4	[0, 0, 0]	n/a	FR1	1	R1346T
586.872	22.748	588521	REC_WORD	22.748	n/a	GEESE	6	4	[0, 0, 0]	n/a	FR1	1	R1346T
609.62	0.0	611268	REC_END	n/a	n/a	n/a	-999	4	[0, 0, 0]	n/a	FR1	1	R1346T
609.62	0.014	611268	TRIAL_END	n/a	n/a	n/a	-999	4	[0, 0, 0]	n/a	FR1	1	R1346T
609.634	0.0	611282	TRIAL	n/a	n/a	n/a	-999	5	[0, 0, 0]	n/a	FR1	1	R1346T
609.634	0.001	611282	TRIAL_START	n/a	n/a	n/a	-999	5	[0, 0, 0]	n/a	FR1	1	R1346T
609.635	4.561	611283	WAITING_START	n/a	n/a	n/a	-999	5	[0, 0, 0]	n/a	FR1	1	R1346T
614.196	0.001	615843	WAITING_END	n/a	n/a	n/a	-999	5	[0, 0, 0]	n/a	FR1	1	R1346T
614.197	10.429	615844	COUNTDOWN_START	n/a	n/a	n/a	-999	5	[0, 0, 0]	n/a	FR1	1	R1346T
624.626	0.0	626273	COUNTDOWN_END	n/a	n/a	n/a	-999	5	[0, 0, 0]	n/a	FR1	1	R1346T
624.626	1.106	626273	ORIENT_START	n/a	n/a	n/a	-999	5	[0, 0, 0]	n/a	FR1	1	R1346T
625.732	0.0	627379	ORIENT_END	n/a	n/a	n/a	-999	5	[0, 0, 0]	n/a	FR1	1	R1346T
625.732	0.935	627379	ENCODING_START	n/a	n/a	n/a	-999	5	[0, 0, 0]	n/a	FR1	1	R1346T
626.667	1.632	628314	WORD	n/a	n/a	TRASH	1	5	[0, 0, 0]	n/a	FR1	1	R1346T
628.299	1.089	629946	WORD_OFF	n/a	n/a	TRASH	1	5	[0, 0, 0]	n/a	FR1	1	R1346T
629.388	1.628	631035	WORD	n/a	n/a	JEEP	2	5	[0, 0, 0]	n/a	FR1	1	R1346T
631.016	0.924	632663	WORD_OFF	n/a	n/a	JEEP	2	5	[0, 0, 0]	n/a	FR1	1	R1346T
631.94	1.626	633587	WORD	n/a	n/a	TOAD	3	5	[0, 0, 0]	n/a	FR1	1	R1346T
633.566	1.045	635213	WORD_OFF	n/a	n/a	TOAD	3	5	[0, 0, 0]	n/a	FR1	1	R1346T
634.611	1.622	636258	WORD	n/a	n/a	BANK	4	5	[0, 0, 0]	n/a	FR1	1	R1346T
636.233	0.942	637879	WORD_OFF	n/a	n/a	BANK	4	5	[0, 0, 0]	n/a	FR1	1	R1346T
637.175	1.61	638821	WORD	n/a	n/a	MOUTH	5	5	[0, 0, 0]	n/a	FR1	1	R1346T
638.785	1.131	640431	WORD_OFF	n/a	n/a	MOUTH	5	5	[0, 0, 0]	n/a	FR1	1	R1346T
639.916	1.635	641562	WORD	n/a	n/a	CAR	6	5	[0, 0, 0]	n/a	FR1	1	R1346T
641.551	0.97	643197	WORD_OFF	n/a	n/a	CAR	6	5	[0, 0, 0]	n/a	FR1	1	R1346T
642.521	1.631	644167	WORD	n/a	n/a	CHEEK	7	5	[0, 0, 0]	n/a	FR1	1	R1346T
644.152	0.833	645798	WORD_OFF	n/a	n/a	CHEEK	7	5	[0, 0, 0]	n/a	FR1	1	R1346T
644.985	1.634	646631	WORD	n/a	n/a	CUBE	8	5	[0, 0, 0]	n/a	FR1	1	R1346T
646.619	0.953	648265	WORD_OFF	n/a	n/a	CUBE	8	5	[0, 0, 0]	n/a	FR1	1	R1346T
647.572	1.631	649218	WORD	n/a	n/a	ARM	9	5	[0, 0, 0]	n/a	FR1	1	R1346T
649.203	0.922	650849	WORD_OFF	n/a	n/a	ARM	9	5	[0, 0, 0]	n/a	FR1	1	R1346T
650.125	1.628	651771	WORD	n/a	n/a	LAMP	10	5	[0, 0, 0]	n/a	FR1	1	R1346T
651.753	1.112	653399	WORD_OFF	n/a	n/a	LAMP	10	5	[0, 0, 0]	n/a	FR1	1	R1346T
652.865	1.622	654511	WORD	n/a	n/a	ROOM	11	5	[0, 0, 0]	n/a	FR1	1	R1346T
654.487	1.113	656133	WORD_OFF	n/a	n/a	ROOM	11	5	[0, 0, 0]	n/a	FR1	1	R1346T
655.6	1.637	657246	WORD	n/a	n/a	TOY	12	5	[0, 0, 0]	n/a	FR1	1	R1346T
657.237	0.001	658883	WORD_OFF	n/a	n/a	TOY	12	5	[0, 0, 0]	n/a	FR1	1	R1346T
657.238	0.0	658884	ENCODING_END	n/a	n/a	n/a	-999	5	[0, 0, 0]	n/a	FR1	1	R1346T
657.238	0.0	658884	DISTRACT_START	n/a	n/a	n/a	-999	5	[0, 0, 0]	n/a	FR1	1	R1346T
657.238	0.016	658884	START	n/a	n/a	n/a	-999	5	[-999, -999, -999]	n/a	FR1	1	R1346T
657.254	6.501	658900	PROB	6.501	n/a	n/a	-999	5	[9, 8, 4]	21	FR1	1	R1346T
663.755	7.218	665400	PROB	7.218	n/a	n/a	-999	5	[6, 5, 4]	15	FR1	1	R1346T
670.973	8.758	672618	PROB	8.758	n/a	n/a	-999	5	[4, 7, 7]	18	FR1	1	R1346T
679.731	0.01	681376	STOP	n/a	n/a	n/a	-999	5	[-999, -999, -999]	n/a	FR1	1	R1346T
679.741	0.535	681386	DISTRACT_END	n/a	n/a	n/a	-999	5	[0, 0, 0]	n/a	FR1	1	R1346T
680.276	1.716	681921	RETRIEVAL_ORIENT_START	n/a	n/a	n/a	-999	5	[0, 0, 0]	n/a	FR1	1	R1346T
681.992	0.0	683636	REC_START	n/a	n/a	n/a	-999	5	[0, 0, 0]	n/a	FR1	1	R1346T
681.992	3.209	683636	RETRIEVAL_ORIENT_END	n/a	n/a	n/a	-999	5	[0, 0, 0]	n/a	FR1	1	R1346T
685.201	3.642	686845	REC_WORD	3.642	n/a	RUG	-999	5	[0, 0, 0]	n/a	FR1	1	R1346T
688.843	2.036	690487	REC_WORD	2.036	n/a	TRASH	1	5	[0, 0, 0]	n/a	FR1	1	R1346T
690.879	2.017	692523	REC_WORD	2.017	n/a	JEEP	2	5	[0, 0, 0]	n/a	FR1	1	R1346T
692.896	4.769	694540	REC_WORD	4.769	n/a	CAR	6	5	[0, 0, 0]	n/a	FR1	1	R1346T
697.665	14.34	699309	REC_WORD	14.34	n/a	TOY	12	5	[0, 0, 0]	n/a	FR1	1	R1346T
712.005	0.0	713648	REC_END	n/a	n/a	n/a	-999	5	[0, 0, 0]	n/a	FR1	1	R1346T
712.005	0.014	713648	TRIAL_END	n/a	n/a	n/a	-999	5	[0, 0, 0]	n/a	FR1	1	R1346T
712.019	0.0	713662	TRIAL	n/a	n/a	n/a	-999	6	[0, 0, 0]	n/a	FR1	1	R1346T
712.019	0.001	713662	TRIAL_START	n/a	n/a	n/a	-999	6	[0, 0, 0]	n/a	FR1	1	R1346T
712.02	3.278	713663	WAITING_START	n/a	n/a	n/a	-999	6	[0, 0, 0]	n/a	FR1	1	R1346T
715.298	0.0	716941	WAITING_END	n/a	n/a	n/a	-999	6	[0, 0, 0]	n/a	FR1	1	R1346T
715.298	10.428	716941	COUNTDOWN_START	n/a	n/a	n/a	-999	6	[0, 0, 0]	n/a	FR1	1	R1346T
725.726	0.0	727368	COUNTDOWN_END	n/a	n/a	n/a	-999	6	[0, 0, 0]	n/a	FR1	1	R1346T
725.726	1.058	727368	ORIENT_START	n/a	n/a	n/a	-999	6	[0, 0, 0]	n/a	FR1	1	R1346T
726.784	0.001	728426	ORIENT_END	n/a	n/a	n/a	-999	6	[0, 0, 0]	n/a	FR1	1	R1346T
726.785	1.057	728427	ENCODING_START	n/a	n/a	n/a	-999	6	[0, 0, 0]	n/a	FR1	1	R1346T
727.842	1.625	729484	WORD	n/a	n/a	NEST	1	6	[0, 0, 0]	n/a	FR1	1	R1346T
729.467	0.9	731109	WORD_OFF	n/a	n/a	NEST	1	6	[0, 0, 0]	n/a	FR1	1	R1346T
730.367	1.634	732009	WORD	n/a	n/a	ICE	2	6	[0, 0, 0]	n/a	FR1	1	R1346T
732.001	0.983	733643	WORD_OFF	n/a	n/a	ICE	2	6	[0, 0, 0]	n/a	FR1	1	R1346T
732.984	1.634	734626	WORD	n/a	n/a	BIRD	3	6	[0, 0, 0]	n/a	FR1	1	R1346T
734.618	0.944	736260	WORD_OFF	n/a	n/a	BIRD	3	6	[0, 0, 0]	n/a	FR1	1	R1346T
735.562	1.623	737204	WORD	n/a	n/a	SPEAR	4	6	[0, 0, 0]	n/a	FR1	1	R1346T
737.185	1.081	738827	WORD_OFF	n/a	n/a	SPEAR	4	6	[0, 0, 0]	n/a	FR1	1	R1346T
738.266	1.636	739908	WORD	n/a	n/a	HEN	5	6	[0, 0, 0]	n/a	FR1	1	R1346T
739.902	1.083	741544	WORD_OFF	n/a	n/a	HEN	5	6	[0, 0, 0]	n/a	FR1	1	R1346T
740.985	1.635	742627	WORD	n/a	n/a	DESK	6	6	[0, 0, 0]	n/a	FR1	1	R1346T
742.62	1.065	744262	WORD_OFF	n/a	n/a	DESK	6	6	[0, 0, 0]	n/a	FR1	1	R1346T
743.685	1.635	745327	WORD	n/a	n/a	ROSE	7	6	[0, 0, 0]	n/a	FR1	1	R1346T
745.32	0.986	746962	WORD_OFF	n/a	n/a	ROSE	7	6	[0, 0, 0]	n/a	FR1	1	R1346T
746.306	1.631	747948	WORD	n/a	n/a	CALF	8	6	[0, 0, 0]	n/a	FR1	1	R1346T
747.937	0.996	749579	WORD_OFF	n/a	n/a	CALF	8	6	[0, 0, 0]	n/a	FR1	1	R1346T
748.933	1.621	750574	WORD	n/a	n/a	WEB	9	6	[0, 0, 0]	n/a	FR1	1	R1346T
750.554	0.879	752195	WORD_OFF	n/a	n/a	WEB	9	6	[0, 0, 0]	n/a	FR1	1	R1346T
751.433	1.638	753074	WORD	n/a	n/a	THREAD	10	6	[0, 0, 0]	n/a	FR1	1	R1346T
753.071	0.808	754712	WORD_OFF	n/a	n/a	THREAD	10	6	[0, 0, 0]	n/a	FR1	1	R1346T
753.879	1.626	755520	WORD	n/a	n/a	TEETH	11	6	[0, 0, 0]	n/a	FR1	1	R1346T
755.505	1.028	757146	WORD_OFF	n/a	n/a	TEETH	11	6	[0, 0, 0]	n/a	FR1	1	R1346T
756.533	1.623	758174	WORD	n/a	n/a	JUICE	12	6	[0, 0, 0]	n/a	FR1	1	R1346T
758.156	0.0	759797	WORD_OFF	n/a	n/a	JUICE	12	6	[0, 0, 0]	n/a	FR1	1	R1346T
758.156	0.0	759797	ENCODING_END	n/a	n/a	n/a	-999	6	[0, 0, 0]	n/a	FR1	1	R1346T
758.156	0.0	759797	DISTRACT_START	n/a	n/a	n/a	-999	6	[0, 0, 0]	n/a	FR1	1	R1346T
758.156	0.016	759797	START	n/a	n/a	n/a	-999	6	[-999, -999, -999]	n/a	FR1	1	R1346T
758.172	6.801	759813	PROB	6.801	n/a	n/a	-999	6	[4, 7, 1]	12	FR1	1	R1346T
764.973	7.335	766614	PROB	7.335	n/a	n/a	-999	6	[9, 2, 5]	16	FR1	1	R1346T
772.308	5.084	773948	PROB	5.084	n/a	n/a	-999	6	[2, 8, 3]	13	FR1	1	R1346T
777.392	4.185	779032	PROB	4.185	n/a	n/a	-999	6	[2, 6, 8]	16	FR1	1	R1346T
781.577	0.016	783217	STOP	n/a	n/a	n/a	-999	6	[-999, -999, -999]	n/a	FR1	1	R1346T
781.593	0.647	783233	DISTRACT_END	n/a	n/a	n/a	-999	6	[0, 0, 0]	n/a	FR1	1	R1346T
782.24	1.538	783880	RETRIEVAL_ORIENT_START	n/a	n/a	n/a	-999	6	[0, 0, 0]	n/a	FR1	1	R1346T
783.778	0.0	785418	REC_START	n/a	n/a	n/a	-999	6	[0, 0, 0]	n/a	FR1	1	R1346T
783.778	2.507	785418	RETRIEVAL_ORIENT_END	n/a	n/a	n/a	-999	6	[0, 0, 0]	n/a	FR1	1	R1346T
786.285	17.237	787925	REC_WORD	17.237	n/a	JUICE	12	6	[0, 0, 0]	n/a	FR1	1	R1346T
803.522	5.975	805161	REC_WORD	5.975	n/a	MOUTH	-999	6	[0, 0, 0]	n/a	FR1	1	R1346T
809.497	4.295	811136	REC_WORD	4.295	n/a	RUG	-999	6	[0, 0, 0]	n/a	FR1	1	R1346T
813.792	0.0	815431	REC_END	n/a	n/a	n/a	-999	6	[0, 0, 0]	n/a	FR1	1	R1346T
813.792	0.013	815431	TRIAL_END	n/a	n/a	n/a	-999	6	[0, 0, 0]	n/a	FR1	1	R1346T
813.805	0.0	815444	TRIAL_START	n/a	n/a	n/a	-999	7	[0, 0, 0]	n/a	FR1	1	R1346T
813.805	0.0	815444	TRIAL	n/a	n/a	n/a	-999	7	[0, 0, 0]	n/a	FR1	1	R1346T
813.805	4.778	815444	WAITING_START	n/a	n/a	n/a	-999	7	[0, 0, 0]	n/a	FR1	1	R1346T
818.583	0.001	820221	WAITING_END	n/a	n/a	n/a	-999	7	[0, 0, 0]	n/a	FR1	1	R1346T
818.584	10.429	820222	COUNTDOWN_START	n/a	n/a	n/a	-999	7	[0, 0, 0]	n/a	FR1	1	R1346T
829.013	0.0	830651	COUNTDOWN_END	n/a	n/a	n/a	-999	7	[0, 0, 0]	n/a	FR1	1	R1346T
829.013	1.139	830651	ORIENT_START	n/a	n/a	n/a	-999	7	[0, 0, 0]	n/a	FR1	1	R1346T
830.152	0.0	831790	ORIENT_END	n/a	n/a	n/a	-999	7	[0, 0, 0]	n/a	FR1	1	R1346T
830.152	0.937	831790	ENCODING_START	n/a	n/a	n/a	-999	7	[0, 0, 0]	n/a	FR1	1	R1346T
831.089	1.63	832727	WORD	n/a	n/a	BOOT	1	7	[0, 0, 0]	n/a	FR1	1	R1346T
832.719	0.95	834357	WORD_OFF	n/a	n/a	BOOT	1	7	[0, 0, 0]	n/a	FR1	1	R1346T
833.669	1.634	835307	WORD	n/a	n/a	SWAMP	2	7	[0, 0, 0]	n/a	FR1	1	R1346T
835.303	0.842	836941	WORD_OFF	n/a	n/a	SWAMP	2	7	[0, 0, 0]	n/a	FR1	1	R1346T
836.145	1.626	837783	WORD	n/a	n/a	FLAG	3	7	[0, 0, 0]	n/a	FR1	1	R1346T
837.771	1.023	839409	WORD_OFF	n/a	n/a	FLAG	3	7	[0, 0, 0]	n/a	FR1	1	R1346T
838.794	1.627	840432	WORD	n/a	n/a	JAR	4	7	[0, 0, 0]	n/a	FR1	1	R1346T
840.421	1.133	842058	WORD_OFF	n/a	n/a	JAR	4	7	[0, 0, 0]	n/a	FR1	1	R1346T
841.554	1.634	843191	WORD	n/a	n/a	HAT	5	7	[0, 0, 0]	n/a	FR1	1	R1346T
843.188	1.144	844825	WORD_OFF	n/a	n/a	HAT	5	7	[0, 0, 0]	n/a	FR1	1	R1346T
844.332	1.623	845969	WORD	n/a	n/a	FLAME	6	7	[0, 0, 0]	n/a	FR1	1	R1346T
845.955	0.855	847592	WORD_OFF	n/a	n/a	FLAME	6	7	[0, 0, 0]	n/a	FR1	1	R1346T
846.81	1.629	848447	WORD	n/a	n/a	DRUM	7	7	[0, 0, 0]	n/a	FR1	1	R1346T
848.439	1.146	850076	WORD_OFF	n/a	n/a	DRUM	7	7	[0, 0, 0]	n/a	FR1	1	R1346T
849.585	1.621	851222	WORD	n/a	n/a	TEA	8	7	[0, 0, 0]	n/a	FR1	1	R1346T
851.206	0.769	852843	WORD_OFF	n/a	n/a	TEA	8	7	[0, 0, 0]	n/a	FR1	1	R1346T
851.975	1.632	853612	WORD	n/a	n/a	MAP	9	7	[0, 0, 0]	n/a	FR1	1	R1346T
853.607	0.846	855244	WORD_OFF	n/a	n/a	MAP	9	7	[0, 0, 0]	n/a	FR1	1	R1346T
854.453	1.637	856090	WORD	n/a	n/a	FLOOR	10	7	[0, 0, 0]	n/a	FR1	1	R1346T
856.09	0.964	857727	WORD_OFF	n/a	n/a	FLOOR	10	7	[0, 0, 0]	n/a	FR1	1	R1346T
857.054	1.637	858691	WORD	n/a	n/a	STICK	11	7	[0, 0, 0]	n/a	FR1	1	R1346T
858.691	1.147	860328	WORD_OFF	n/a	n/a	STICK	11	7	[0, 0, 0]	n/a	FR1	1	R1346T
859.838	1.637	861475	WORD	n/a	n/a	JUDGE	12	7	[0, 0, 0]	n/a	FR1	1	R1346T
861.475	0.0	863112	WORD_OFF	n/a	n/a	JUDGE	12	7	[0, 0, 0]	n/a	FR1	1	R1346T
861.475	0.0	863112	ENCODING_END	n/a	n/a	n/a	-999	7	[0, 0, 0]	n/a	FR1	1	R1346T
861.475	0.0	863112	DISTRACT_START	n/a	n/a	n/a	-999	7	[0, 0, 0]	n/a	FR1	1	R1346T
861.475	0.016	863112	START	n/a	n/a	n/a	-999	7	[-999, -999, -999]	n/a	FR1	1	R1346T
861.491	9.135	863128	PROB	9.135	n/a	n/a	-999	7	[6, 1, 8]	15	FR1	1	R1346T
870.626	7.401	872262	PROB	7.401	n/a	n/a	-999	7	[4, 9, 3]	16	FR1	1	R1346T
878.027	6.759	879663	PROB	6.759	n/a	n/a	-999	7	[6, 1, 9]	16	FR1	1	R1346T
884.786	0.01	886421	STOP	n/a	n/a	n/a	-999	7	[-999, -999, -999]	n/a	FR1	1	R1346T
884.796	0.579	886431	DISTRACT_END	n/a	n/a	n/a	-999	7	[0, 0, 0]	n/a	FR1	1	R1346T
885.375	1.587	887010	RETRIEVAL_ORIENT_START	n/a	n/a	n/a	-999	7	[0, 0, 0]	n/a	FR1	1	R1346T
886.962	0.001	888597	RETRIEVAL_ORIENT_END	n/a	n/a	n/a	-999	7	[0, 0, 0]	n/a	FR1	1	R1346T
886.963	2.401	888598	REC_START	n/a	n/a	n/a	-999	7	[0, 0, 0]	n/a	FR1	1	R1346T
889.364	1.859	890999	REC_WORD	1.859	n/a	JUDGE	12	7	[0, 0, 0]	n/a	FR1	1	R1346T
891.223	2.03	892858	REC_WORD	2.03	n/a	BOOT	1	7	[0, 0, 0]	n/a	FR1	1	R1346T
893.253	3.013	894888	REC_WORD	3.013	n/a	MAP	9	7	[0, 0, 0]	n/a	FR1	1	R1346T
896.266	7.605	897901	REC_WORD	7.605	n/a	STICK	11	7	[0, 0, 0]	n/a	FR1	1	R1346T
903.871	13.105	905506	REC_WORD	13.105	n/a	FLOOR	10	7	[0, 0, 0]	n/a	FR1	1	R1346T
916.976	0.0	918610	REC_END	n/a	n/a	n/a	-999	7	[0, 0, 0]	n/a	FR1	1	R1346T
916.976	0.043	918610	TRIAL_END	n/a	n/a	n/a	-999	7	[0, 0, 0]	n/a	FR1	1	R1346T
917.019	0.0	918653	TRIAL_START	n/a	n/a	n/a	-999	8	[0, 0, 0]	n/a	FR1	1	R1346T
917.019	0.0	918653	TRIAL	n/a	n/a	n/a	-999	8	[0, 0, 0]	n/a	FR1	1	R1346T
917.019	3.8	918653	WAITING_START	n/a	n/a	n/a	-999	8	[0, 0, 0]	n/a	FR1	1	R1346T
920.819	0.0	922453	COUNTDOWN_START	n/a	n/a	n/a	-999	8	[0, 0, 0]	n/a	FR1	1	R1346T
920.819	10.429	922453	WAITING_END	n/a	n/a	n/a	-999	8	[0, 0, 0]	n/a	FR1	1	R1346T
931.248	0.0	932881	COUNTDOWN_END	n/a	n/a	n/a	-999	8	[0, 0, 0]	n/a	FR1	1	R1346T
931.248	1.239	932881	ORIENT_START	n/a	n/a	n/a	-999	8	[0, 0, 0]	n/a	FR1	1	R1346T
932.487	0.001	934120	ORIENT_END	n/a	n/a	n/a	-999	8	[0, 0, 0]	n/a	FR1	1	R1346T
932.488	0.785	934121	ENCODING_START	n/a	n/a	n/a	-999	8	[0, 0, 0]	n/a	FR1	1	R1346T
933.273	1.631	934906	WORD	n/a	n/a	DOOR	1	8	[0, 0, 0]	n/a	FR1	1	R1346T
934.904	0.928	936537	WORD_OFF	n/a	n/a	DOOR	1	8	[0, 0, 0]	n/a	FR1	1	R1346T
935.832	1.623	937465	WORD	n/a	n/a	OWL	2	8	[0, 0, 0]	n/a	FR1	1	R1346T
937.455	0.853	939088	WORD_OFF	n/a	n/a	OWL	2	8	[0, 0, 0]	n/a	FR1	1	R1346T
938.308	1.631	939941	WORD	n/a	n/a	BAG	3	8	[0, 0, 0]	n/a	FR1	1	R1346T
939.939	1.015	941572	WORD_OFF	n/a	n/a	BAG	3	8	[0, 0, 0]	n/a	FR1	1	R1346T
940.954	1.635	942587	WORD	n/a	n/a	PASTE	4	8	[0, 0, 0]	n/a	FR1	1	R1346T
942.589	0.839	944222	WORD_OFF	n/a	n/a	PASTE	4	8	[0, 0, 0]	n/a	FR1	1	R1346T
943.428	1.628	945061	WORD	n/a	n/a	LAMB	5	8	[0, 0, 0]	n/a	FR1	1	R1346T
945.056	1.004	946689	WORD_OFF	n/a	n/a	LAMB	5	8	[0, 0, 0]	n/a	FR1	1	R1346T
946.06	1.63	947693	WORD	n/a	n/a	CROWN	6	8	[0, 0, 0]	n/a	FR1	1	R1346T
947.69	1.003	949323	WORD_OFF	n/a	n/a	CROWN	6	8	[0, 0, 0]	n/a	FR1	1	R1346T
948.693	1.631	950326	WORD	n/a	n/a	SHEET	7	8	[0, 0, 0]	n/a	FR1	1	R1346T
950.324	0.761	951957	WORD_OFF	n/a	n/a	SHEET	7	8	[0, 0, 0]	n/a	FR1	1	R1346T
951.085	1.623	952718	WORD	n/a	n/a	ROAD	8	8	[0, 0, 0]	n/a	FR1	1	R1346T
952.708	0.76	954340	WORD_OFF	n/a	n/a	ROAD	8	8	[0, 0, 0]	n/a	FR1	1	R1346T
953.468	1.623	955100	WORD	n/a	n/a	HOOF	9	8	[0, 0, 0]	n/a	FR1	1	R1346T
955.091	0.806	956723	WORD_OFF	n/a	n/a	HOOF	9	8	[0, 0, 0]	n/a	FR1	1	R1346T
955.897	1.628	957529	WORD	n/a	n/a	SKUNK	10	8	[0, 0, 0]	n/a	FR1	1	R1346T
957.525	1.111	959157	WORD_OFF	n/a	n/a	SKUNK	10	8	[0, 0, 0]	n/a	FR1	1	R1346T
958.636	1.623	960268	WORD	n/a	n/a	BLUSH	11	8	[0, 0, 0]	n/a	FR1	1	R1346T
960.259	0.801	961891	WORD_OFF	n/a	n/a	BLUSH	11	8	[0, 0, 0]	n/a	FR1	1	R1346T
961.06	1.633	962692	WORD	n/a	n/a	WHEEL	12	8	[0, 0, 0]	n/a	FR1	1	R1346T
962.693	0.0	964325	WORD_OFF	n/a	n/a	WHEEL	12	8	[0, 0, 0]	n/a	FR1	1	R1346T
962.693	0.001	964325	ENCODING_END	n/a	n/a	n/a	-999	8	[0, 0, 0]	n/a	FR1	1	R1346T
962.694	0.0	964326	DISTRACT_START	n/a	n/a	n/a	-999	8	[0, 0, 0]	n/a	FR1	1	R1346T
962.694	0.015	964326	START	n/a	n/a	n/a	-999	8	[-999, -999, -999]	n/a	FR1	1	R1346T
962.709	8.735	964341	PROB	8.735	n/a	n/a	-999	8	[3, 9, 4]	16	FR1	1	R1346T
971.444	4.551	973076	PROB	4.551	n/a	n/a	-999	8	[7, 4, 4]	15	FR1	1	R1346T
975.995	7.603	977626	PROB	7.603	n/a	n/a	-999	8	[4, 8, 5]	17	FR1	1	R1346T
983.598	0.015	985229	STOP	n/a	n/a	n/a	-999	8	[-999, -999, -999]	n/a	FR1	1	R1346T
983.613	0.609	985244	DISTRACT_END	n/a	n/a	n/a	-999	8	[0, 0, 0]	n/a	FR1	1	R1346T
984.222	1.576	985853	RETRIEVAL_ORIENT_START	n/a	n/a	n/a	-999	8	[0, 0, 0]	n/a	FR1	1	R1346T
985.798	0.0	987429	RETRIEVAL_ORIENT_END	n/a	n/a	n/a	-999	8	[0, 0, 0]	n/a	FR1	1	R1346T
985.798	4.288	987429	REC_START	n/a	n/a	n/a	-999	8	[0, 0, 0]	n/a	FR1	1	R1346T
990.086	1.374	991717	REC_WORD	1.374	n/a	HOOF	9	8	[0, 0, 0]	n/a	FR1	1	R1346T
991.46	16.412	993091	REC_WORD	16.412	n/a	SKUNK	10	8	[0, 0, 0]	n/a	FR1	1	R1346T
1007.872	7.937	1009502	REC_WORD	7.937	n/a	WHEEL	12	8	[0, 0, 0]	n/a	FR1	1	R1346T
1015.809	0.0	1017439	REC_END	n/a	n/a	n/a	-999	8	[0, 0, 0]	n/a	FR1	1	R1346T
1015.809	0.014	1017439	TRIAL_END	n/a	n/a	n/a	-999	8	[0, 0, 0]	n/a	FR1	1	R1346T
1015.823	0.0	1017453	TRIAL_START	n/a	n/a	n/a	-999	9	[0, 0, 0]	n/a	FR1	1	R1346T
1015.823	0.001	1017453	TRIAL	n/a	n/a	n/a	-999	9	[0, 0, 0]	n/a	FR1	1	R1346T
1015.824	7.697	1017454	WAITING_START	n/a	n/a	n/a	-999	9	[0, 0, 0]	n/a	FR1	1	R1346T
1023.521	0.0	1025150	WAITING_END	n/a	n/a	n/a	-999	9	[0, 0, 0]	n/a	FR1	1	R1346T
1023.521	10.428	1025150	COUNTDOWN_START	n/a	n/a	n/a	-999	9	[0, 0, 0]	n/a	FR1	1	R1346T
1033.949	0.0	1035578	ORIENT_START	n/a	n/a	n/a	-999	9	[0, 0, 0]	n/a	FR1	1	R1346T
1033.949	1.074	1035578	COUNTDOWN_END	n/a	n/a	n/a	-999	9	[0, 0, 0]	n/a	FR1	1	R1346T
1035.023	0.0	1036652	ORIENT_END	n/a	n/a	n/a	-999	9	[0, 0, 0]	n/a	FR1	1	R1346T
1035.023	0.892	1036652	ENCODING_START	n/a	n/a	n/a	-999	9	[0, 0, 0]	n/a	FR1	1	R1346T
1035.915	1.625	1037544	WORD	n/a	n/a	CHAIR	1	9	[0, 0, 0]	n/a	FR1	1	R1346T
1037.54	0.787	1039169	WORD_OFF	n/a	n/a	CHAIR	1	9	[0, 0, 0]	n/a	FR1	1	R1346T
1038.327	1.63	1039956	WORD	n/a	n/a	SHARK	2	9	[0, 0, 0]	n/a	FR1	1	R1346T
1039.957	1.111	1041586	WORD_OFF	n/a	n/a	SHARK	2	9	[0, 0, 0]	n/a	FR1	1	R1346T
1041.068	1.623	1042697	WORD	n/a	n/a	SALT	3	9	[0, 0, 0]	n/a	FR1	1	R1346T
1042.691	0.959	1044320	WORD_OFF	n/a	n/a	SALT	3	9	[0, 0, 0]	n/a	FR1	1	R1346T
1043.65	1.624	1045278	WORD	n/a	n/a	INK	4	9	[0, 0, 0]	n/a	FR1	1	R1346T
1045.274	1.06	1046902	WORD_OFF	n/a	n/a	INK	4	9	[0, 0, 0]	n/a	FR1	1	R1346T
1046.334	1.624	1047962	WORD	n/a	n/a	FRUIT	5	9	[0, 0, 0]	n/a	FR1	1	R1346T
1047.958	1.071	1049586	WORD_OFF	n/a	n/a	FRUIT	5	9	[0, 0, 0]	n/a	FR1	1	R1346T
1049.029	1.63	1050657	WORD	n/a	n/a	CUP	6	9	[0, 0, 0]	n/a	FR1	1	R1346T
1050.659	0.809	1052287	WORD_OFF	n/a	n/a	CUP	6	9	[0, 0, 0]	n/a	FR1	1	R1346T
1051.468	1.625	1053096	WORD	n/a	n/a	BENCH	7	9	[0, 0, 0]	n/a	FR1	1	R1346T
1053.093	0.884	1054721	WORD_OFF	n/a	n/a	BENCH	7	9	[0, 0, 0]	n/a	FR1	1	R1346T
1053.977	1.633	1055605	WORD	n/a	n/a	BRIDGE	8	9	[0, 0, 0]	n/a	FR1	1	R1346T
1055.61	1.029	1057238	WORD_OFF	n/a	n/a	BRIDGE	8	9	[0, 0, 0]	n/a	FR1	1	R1346T
1056.639	1.638	1058267	WORD	n/a	n/a	TRUCK	9	9	[0, 0, 0]	n/a	FR1	1	R1346T
1058.277	0.96	1059905	WORD_OFF	n/a	n/a	TRUCK	9	9	[0, 0, 0]	n/a	FR1	1	R1346T
1059.237	1.624	1060865	WORD	n/a	n/a	SHIELD	10	9	[0, 0, 0]	n/a	FR1	1	R1346T
1060.861	1.087	1062489	WORD_OFF	n/a	n/a	SHIELD	10	9	[0, 0, 0]	n/a	FR1	1	R1346T
1061.948	1.63	1063576	WORD	n/a	n/a	ROCK	11	9	[0, 0, 0]	n/a	FR1	1	R1346T
1063.578	0.837	1065206	WORD_OFF	n/a	n/a	ROCK	11	9	[0, 0, 0]	n/a	FR1	1	R1346T
1064.415	1.63	1066043	WORD	n/a	n/a	OAR	12	9	[0, 0, 0]	n/a	FR1	1	R1346T
1066.045	0.0	1067672	ENCODING_END	n/a	n/a	n/a	-999	9	[0, 0, 0]	n/a	FR1	1	R1346T
1066.045	0.001	1067672	WORD_OFF	n/a	n/a	OAR	12	9	[0, 0, 0]	n/a	FR1	1	R1346T
1066.046	0.0	1067673	DISTRACT_START	n/a	n/a	n/a	-999	9	[0, 0, 0]	n/a	FR1	1	R1346T
1066.046	0.015	1067673	START	n/a	n/a	n/a	-999	9	[-999, -999, -999]	n/a	FR1	1	R1346T
1066.061	4.151	1067688	PROB	4.151	n/a	n/a	-999	9	[4, 2, 8]	14	FR1	1	R1346T
1070.212	15.003	1071839	PROB	15.003	n/a	n/a	-999	9	[9, 8, 9]	26	FR1	1	R1346T
1085.215	4.125	1086842	PROB	4.125	n/a	n/a	-999	9	[1, 1, 2]	4	FR1	1	R1346T
1089.34	0.009	1090966	STOP	n/a	n/a	n/a	-999	9	[-999, -999, -999]	n/a	FR1	1	R1346T
1089.349	0.646	1090975	DISTRACT_END	n/a	n/a	n/a	-999	9	[0, 0, 0]	n/a	FR1	1	R1346T
1089.995	1.721	1091621	RETRIEVAL_ORIENT_START	n/a	n/a	n/a	-999	9	[0, 0, 0]	n/a	FR1	1	R1346T
1091.716	0.001	1093342	RETRIEVAL_ORIENT_END	n/a	n/a	n/a	-999	9	[0, 0, 0]	n/a	FR1	1	R1346T
1091.717	2.05	1093343	REC_START	n/a	n/a	n/a	-999	9	[0, 0, 0]	n/a	FR1	1	R1346T
1093.767	2.356	1095393	REC_WORD	2.356	n/a	SHIELD	10	9	[0, 0, 0]	n/a	FR1	1	R1346T
1096.123	2.281	1097749	REC_WORD	2.281	n/a	TRUCK	9	9	[0, 0, 0]	n/a	FR1	1	R1346T
1098.404	3.638	1100030	REC_WORD	3.638	n/a	ROCK	11	9	[0, 0, 0]	n/a	FR1	1	R1346T
1102.042	1.711	1103668	REC_WORD	1.711	n/a	FRUIT	5	9	[0, 0, 0]	n/a	FR1	1	R1346T
1103.753	2.008	1105379	REC_WORD	2.008	n/a	CUP	6	9	[0, 0, 0]	n/a	FR1	1	R1346T
1105.761	15.517	1107387	REC_WORD	15.517	n/a	BENCH	7	9	[0, 0, 0]	n/a	FR1	1	R1346T
1121.278	0.451	1122903	REC_WORD	0.451	n/a	SHARK	2	9	[0, 0, 0]	n/a	FR1	1	R1346T
1121.729	0.0	1123354	REC_END	n/a	n/a	n/a	-999	9	[0, 0, 0]	n/a	FR1	1	R1346T
1121.729	0.017	1123354	TRIAL_END	n/a	n/a	n/a	-999	9	[0, 0, 0]	n/a	FR1	1	R1346T
1121.746	0.0	1123371	TRIAL_START	n/a	n/a	n/a	-999	10	[0, 0, 0]	n/a	FR1	1	R1346T
1121.746	0.0	1123371	TRIAL	n/a	n/a	n/a	-999	10	[0, 0, 0]	n/a	FR1	1	R1346T
1121.746	4.627	1123371	WAITING_START	n/a	n/a	n/a	-999	10	[0, 0, 0]	n/a	FR1	1	R1346T
1126.373	0.0	1127998	COUNTDOWN_START	n/a	n/a	n/a	-999	10	[0, 0, 0]	n/a	FR1	1	R1346T
1126.373	10.429	1127998	WAITING_END	n/a	n/a	n/a	-999	10	[0, 0, 0]	n/a	FR1	1	R1346T
1136.802	0.0	1138426	COUNTDOWN_END	n/a	n/a	n/a	-999	10	[0, 0, 0]	n/a	FR1	1	R1346T
1136.802	1.173	1138426	ORIENT_START	n/a	n/a	n/a	-999	10	[0, 0, 0]	n/a	FR1	1	R1346T
1137.975	0.0	1139599	ORIENT_END	n/a	n/a	n/a	-999	10	[0, 0, 0]	n/a	FR1	1	R1346T
1137.975	0.775	1139599	ENCODING_START	n/a	n/a	n/a	-999	10	[0, 0, 0]	n/a	FR1	1	R1346T
1138.75	1.625	1140374	WORD	n/a	n/a	SNAIL	1	10	[0, 0, 0]	n/a	FR1	1	R1346T
1140.375	1.096	1141999	WORD_OFF	n/a	n/a	SNAIL	1	10	[0, 0, 0]	n/a	FR1	1	R1346T
1141.471	1.621	1143095	WORD	n/a	n/a	WORLD	2	10	[0, 0, 0]	n/a	FR1	1	R1346T
1143.092	0.863	1144716	WORD_OFF	n/a	n/a	WORLD	2	10	[0, 0, 0]	n/a	FR1	1	R1346T
1143.955	1.621	1145579	WORD	n/a	n/a	ROOF	3	10	[0, 0, 0]	n/a	FR1	1	R1346T
1145.576	0.913	1147200	WORD_OFF	n/a	n/a	ROOF	3	10	[0, 0, 0]	n/a	FR1	1	R1346T
1146.489	1.637	1148113	WORD	n/a	n/a	SEED	4	10	[0, 0, 0]	n/a	FR1	1	R1346T
1148.126	1.122	1149750	WORD_OFF	n/a	n/a	SEED	4	10	[0, 0, 0]	n/a	FR1	1	R1346T
1149.248	1.629	1150872	WORD	n/a	n/a	CLOUD	5	10	[0, 0, 0]	n/a	FR1	1	R1346T
1150.877	0.874	1152501	WORD_OFF	n/a	n/a	CLOUD	5	10	[0, 0, 0]	n/a	FR1	1	R1346T
1151.751	1.627	1153375	WORD	n/a	n/a	FACE	6	10	[0, 0, 0]	n/a	FR1	1	R1346T
1153.378	0.826	1155002	WORD_OFF	n/a	n/a	FACE	6	10	[0, 0, 0]	n/a	FR1	1	R1346T
1154.204	1.624	1155828	WORD	n/a	n/a	GOAT	7	10	[0, 0, 0]	n/a	FR1	1	R1346T
1155.828	1.024	1157452	WORD_OFF	n/a	n/a	GOAT	7	10	[0, 0, 0]	n/a	FR1	1	R1346T
1156.852	1.626	1158475	WORD	n/a	n/a	RICE	8	10	[0, 0, 0]	n/a	FR1	1	R1346T
1158.478	1.042	1160101	WORD_OFF	n/a	n/a	RICE	8	10	[0, 0, 0]	n/a	FR1	1	R1346T
1159.52	1.626	1161143	WORD	n/a	n/a	FARM	9	10	[0, 0, 0]	n/a	FR1	1	R1346T
1161.146	1.043	1162769	WORD_OFF	n/a	n/a	FARM	9	10	[0, 0, 0]	n/a	FR1	1	R1346T
1162.189	1.624	1163812	WORD	n/a	n/a	SUIT	10	10	[0, 0, 0]	n/a	FR1	1	R1346T
1163.813	0.851	1165436	WORD_OFF	n/a	n/a	SUIT	10	10	[0, 0, 0]	n/a	FR1	1	R1346T
1164.664	1.632	1166287	WORD	n/a	n/a	LIP	11	10	[0, 0, 0]	n/a	FR1	1	R1346T
1166.296	0.772	1167919	WORD_OFF	n/a	n/a	LIP	11	10	[0, 0, 0]	n/a	FR1	1	R1346T
1167.068	1.629	1168691	WORD	n/a	n/a	VEST	12	10	[0, 0, 0]	n/a	FR1	1	R1346T
1168.697	0.0	1170320	WORD_OFF	n/a	n/a	VEST	12	10	[0, 0, 0]	n/a	FR1	1	R1346T
1168.697	0.0	1170320	ENCODING_END	n/a	n/a	n/a	-999	10	[0, 0, 0]	n/a	FR1	1	R1346T
1168.697	0.001	1170320	DISTRACT_START	n/a	n/a	n/a	-999	10	[0, 0, 0]	n/a	FR1	1	R1346T
1168.698	0.015	1170321	START	n/a	n/a	n/a	-999	10	[-999, -999, -999]	n/a	FR1	1	R1346T
1168.713	5.301	1170336	PROB	5.301	n/a	n/a	-999	10	[7, 2, 6]	15	FR1	1	R1346T
1174.014	5.351	1175637	PROB	5.351	n/a	n/a	-999	10	[8, 4, 5]	17	FR1	1	R1346T
1179.365	10.713	1180987	PROB	10.713	n/a	n/a	-999	10	[8, 6, 5]	19	FR1	1	R1346T
1190.078	0.006	1191700	STOP	n/a	n/a	n/a	-999	10	[-999, -999, -999]	n/a	FR1	1	R1346T
1190.084	0.66	1191706	DISTRACT_END	n/a	n/a	n/a	-999	10	[0, 0, 0]	n/a	FR1	1	R1346T
1190.744	1.724	1192366	RETRIEVAL_ORIENT_START	n/a	n/a	n/a	-999	10	[0, 0, 0]	n/a	FR1	1	R1346T
1192.468	0.0	1194090	RETRIEVAL_ORIENT_END	n/a	n/a	n/a	-999	10	[0, 0, 0]	n/a	FR1	1	R1346T
1192.468	2.879	1194090	REC_START	n/a	n/a	n/a	-999	10	[0, 0, 0]	n/a	FR1	1	R1346T
1195.347	1.483	1196969	REC_WORD	1.483	n/a	RICE	8	10	[0, 0, 0]	n/a	FR1	1	R1346T
1196.83	10.131	1198452	REC_WORD	10.131	n/a	WORLD	2	10	[0, 0, 0]	n/a	FR1	1	R1346T
1206.961	2.039	1208582	REC_WORD	2.039	n/a	TIE	-999	10	[0, 0, 0]	n/a	FR1	1	R1346T
1209.0	5.909	1210621	REC_WORD	5.909	n/a	SUIT	10	10	[0, 0, 0]	n/a	FR1	1	R1346T
1214.909	7.572	1216530	REC_WORD	7.572	n/a	SNAIL	1	10	[0, 0, 0]	n/a	FR1	1	R1346T
1222.481	0.0	1224102	REC_END	n/a	n/a	n/a	-999	10	[0, 0, 0]	n/a	FR1	1	R1346T
1222.481	0.015	1224102	TRIAL_END	n/a	n/a	n/a	-999	10	[0, 0, 0]	n/a	FR1	1	R1346T
1222.496	0.0	1224117	TRIAL_START	n/a	n/a	n/a	-999	11	[0, 0, 0]	n/a	FR1	1	R1346T
1222.496	0.001	1224117	TRIAL	n/a	n/a	n/a	-999	11	[0, 0, 0]	n/a	FR1	1	R1346T
1222.497	3.194	1224118	WAITING_START	n/a	n/a	n/a	-999	11	[0, 0, 0]	n/a	FR1	1	R1346T
1225.691	0.0	1227311	WAITING_END	n/a	n/a	n/a	-999	11	[0, 0, 0]	n/a	FR1	1	R1346T
1225.691	10.429	1227311	COUNTDOWN_START	n/a	n/a	n/a	-999	11	[0, 0, 0]	n/a	FR1	1	R1346T
1236.12	0.001	1237740	COUNTDOWN_END	n/a	n/a	n/a	-999	11	[0, 0, 0]	n/a	FR1	1	R1346T
1236.121	1.155	1237741	ORIENT_START	n/a	n/a	n/a	-999	11	[0, 0, 0]	n/a	FR1	1	R1346T
1237.276	0.0	1238896	ORIENT_END	n/a	n/a	n/a	-999	11	[0, 0, 0]	n/a	FR1	1	R1346T
1237.276	0.821	1238896	ENCODING_START	n/a	n/a	n/a	-999	11	[0, 0, 0]	n/a	FR1	1	R1346T
1238.097	1.63	1239717	WORD	n/a	n/a	SEAL	1	11	[0, 0, 0]	n/a	FR1	1	R1346T
1239.727	0.936	1241347	WORD_OFF	n/a	n/a	SEAL	1	11	[0, 0, 0]	n/a	FR1	1	R1346T
1240.663	1.631	1242283	WORD	n/a	n/a	EAR	2	11	[0, 0, 0]	n/a	FR1	1	R1346T
1242.294	1.05	1243914	WORD_OFF	n/a	n/a	EAR	2	11	[0, 0, 0]	n/a	FR1	1	R1346T
1243.344	1.633	1244964	WORD	n/a	n/a	SMOKE	3	11	[0, 0, 0]	n/a	FR1	1	R1346T
1244.977	0.776	1246597	WORD_OFF	n/a	n/a	SMOKE	3	11	[0, 0, 0]	n/a	FR1	1	R1346T
1245.753	1.625	1247373	WORD	n/a	n/a	STEAK	4	11	[0, 0, 0]	n/a	FR1	1	R1346T
1247.378	1.028	1248997	WORD_OFF	n/a	n/a	STEAK	4	11	[0, 0, 0]	n/a	FR1	1	R1346T
1248.406	1.622	1250025	WORD	n/a	n/a	YARD	5	11	[0, 0, 0]	n/a	FR1	1	R1346T
1250.028	0.917	1251647	WORD_OFF	n/a	n/a	YARD	5	11	[0, 0, 0]	n/a	FR1	1	R1346T
1250.945	1.634	1252564	WORD	n/a	n/a	SCHOOL	6	11	[0, 0, 0]	n/a	FR1	1	R1346T
1252.579	1.133	1254198	WORD_OFF	n/a	n/a	SCHOOL	6	11	[0, 0, 0]	n/a	FR1	1	R1346T
1253.712	1.634	1255331	WORD	n/a	n/a	SQUARE	7	11	[0, 0, 0]	n/a	FR1	1	R1346T
1255.346	0.795	1256965	WORD_OFF	n/a	n/a	SQUARE	7	11	[0, 0, 0]	n/a	FR1	1	R1346T
1256.141	1.64	1257760	WORD	n/a	n/a	HORN	8	11	[0, 0, 0]	n/a	FR1	1	R1346T
1257.781	0.854	1259400	WORD_OFF	n/a	n/a	HORN	8	11	[0, 0, 0]	n/a	FR1	1	R1346T
1258.635	1.629	1260254	WORD	n/a	n/a	SHELL	9	11	[0, 0, 0]	n/a	FR1	1	R1346T
1260.264	1.117	1261883	WORD_OFF	n/a	n/a	SHELL	9	11	[0, 0, 0]	n/a	FR1	1	R1346T
1261.381	1.633	1263000	WORD	n/a	n/a	GRASS	10	11	[0, 0, 0]	n/a	FR1	1	R1346T
1263.014	0.804	1264633	WORD_OFF	n/a	n/a	GRASS	10	11	[0, 0, 0]	n/a	FR1	1	R1346T
1263.818	1.63	1265437	WORD	n/a	n/a	ARK	11	11	[0, 0, 0]	n/a	FR1	1	R1346T
1265.448	0.964	1267067	WORD_OFF	n/a	n/a	ARK	11	11	[0, 0, 0]	n/a	FR1	1	R1346T
1266.412	1.636	1268031	WORD	n/a	n/a	WOOD	12	11	[0, 0, 0]	n/a	FR1	1	R1346T
1268.048	0.001	1269667	WORD_OFF	n/a	n/a	WOOD	12	11	[0, 0, 0]	n/a	FR1	1	R1346T
1268.049	0.0	1269668	ENCODING_END	n/a	n/a	n/a	-999	11	[0, 0, 0]	n/a	FR1	1	R1346T
1268.049	0.0	1269668	DISTRACT_START	n/a	n/a	n/a	-999	11	[0, 0, 0]	n/a	FR1	1	R1346T
1268.049	0.016	1269668	START	n/a	n/a	n/a	-999	11	[-999, -999, -999]	n/a	FR1	1	R1346T
1268.065	6.118	1269684	PROB	6.118	n/a	n/a	-999	11	[2, 4, 2]	8	FR1	1	R1346T
1274.183	5.951	1275801	PROB	5.951	n/a	n/a	-999	11	[6, 3, 4]	13	FR1	1	R1346T
1280.134	7.884	1281752	PROB	7.884	n/a	n/a	-999	11	[6, 6, 6]	18	FR1	1	R1346T
1288.018	11.116	1289636	PROB	11.116	n/a	n/a	-999	11	[7, 9, 6]	17	FR1	1	R1346T
1299.134	0.02	1300751	STOP	n/a	n/a	n/a	-999	11	[-999, -999, -999]	n/a	FR1	1	R1346T
1299.154	0.569	1300771	DISTRACT_END	n/a	n/a	n/a	-999	11	[0, 0, 0]	n/a	FR1	1	R1346T
1299.723	1.648	1301340	RETRIEVAL_ORIENT_START	n/a	n/a	n/a	-999	11	[0, 0, 0]	n/a	FR1	1	R1346T
1301.371	0.0	1302988	RETRIEVAL_ORIENT_END	n/a	n/a	n/a	-999	11	[0, 0, 0]	n/a	FR1	1	R1346T
1301.371	2.939	1302988	REC_START	n/a	n/a	n/a	-999	11	[0, 0, 0]	n/a	FR1	1	R1346T
1304.31	3.465	1305927	REC_WORD	3.465	n/a	SMOKE	3	11	[0, 0, 0]	n/a	FR1	1	R1346T
1307.775	12.205	1309392	REC_WORD	12.205	n/a	SHELL	9	11	[0, 0, 0]	n/a	FR1	1	R1346T
1319.98	11.403	1321596	REC_WORD	11.403	n/a	YARD	5	11	[0, 0, 0]	n/a	FR1	1	R1346T
1331.383	0.001	1332999	REC_END	n/a	n/a	n/a	-999	11	[0, 0, 0]	n/a	FR1	1	R1346T
1331.384	0.014	1333000	TRIAL_END	n/a	n/a	n/a	-999	11	[0, 0, 0]	n/a	FR1	1	R1346T
1331.398	0.0	1333014	TRIAL_START	n/a	n/a	n/a	-999	12	[0, 0, 0]	n/a	FR1	1	R1346T
1331.398	0.0	1333014	TRIAL	n/a	n/a	n/a	-999	12	[0, 0, 0]	n/a	FR1	1	R1346T
1331.398	6.563	1333014	WAITING_START	n/a	n/a	n/a	-999	12	[0, 0, 0]	n/a	FR1	1	R1346T
1337.961	0.0	1339576	WAITING_END	n/a	n/a	n/a	-999	12	[0, 0, 0]	n/a	FR1	1	R1346T
1337.961	10.429	1339576	COUNTDOWN_START	n/a	n/a	n/a	-999	12	[0, 0, 0]	n/a	FR1	1	R1346T
1348.39	0.001	1350005	COUNTDOWN_END	n/a	n/a	n/a	-999	12	[0, 0, 0]	n/a	FR1	1	R1346T
1348.391	1.222	1350006	ORIENT_START	n/a	n/a	n/a	-999	12	[0, 0, 0]	n/a	FR1	1	R1346T
1349.613	0.001	1351228	ORIENT_END	n/a	n/a	n/a	-999	12	[0, 0, 0]	n/a	FR1	1	R1346T
1349.614	1.112	1351229	ENCODING_START	n/a	n/a	n/a	-999	12	[0, 0, 0]	n/a	FR1	1	R1346T
1350.726	1.638	1352341	WORD	n/a	n/a	BRUSH	1	12	[0, 0, 0]	n/a	FR1	1	R1346T
1352.364	0.81	1353979	WORD_OFF	n/a	n/a	BRUSH	1	12	[0, 0, 0]	n/a	FR1	1	R1346T
1353.174	1.608	1354789	WORD	n/a	n/a	VASE	2	12	[0, 0, 0]	n/a	FR1	1	R1346T
1354.782	1.128	1356397	WORD_OFF	n/a	n/a	VASE	2	12	[0, 0, 0]	n/a	FR1	1	R1346T
1355.91	1.638	1357525	WORD	n/a	n/a	FOG	3	12	[0, 0, 0]	n/a	FR1	1	R1346T
1357.548	0.802	1359163	WORD_OFF	n/a	n/a	FOG	3	12	[0, 0, 0]	n/a	FR1	1	R1346T
1358.35	1.632	1359965	WORD	n/a	n/a	WAVE	4	12	[0, 0, 0]	n/a	FR1	1	R1346T
1359.982	0.898	1361596	WORD_OFF	n/a	n/a	WAVE	4	12	[0, 0, 0]	n/a	FR1	1	R1346T
1360.88	1.635	1362494	WORD	n/a	n/a	CAKE	5	12	[0, 0, 0]	n/a	FR1	1	R1346T
1362.515	0.936	1364129	WORD_OFF	n/a	n/a	CAKE	5	12	[0, 0, 0]	n/a	FR1	1	R1346T
1363.451	1.631	1365065	WORD	n/a	n/a	TAIL	6	12	[0, 0, 0]	n/a	FR1	1	R1346T
1365.082	0.999	1366696	WORD_OFF	n/a	n/a	TAIL	6	12	[0, 0, 0]	n/a	FR1	1	R1346T
1366.081	1.635	1367695	WORD	n/a	n/a	BEE	7	12	[0, 0, 0]	n/a	FR1	1	R1346T
1367.716	0.833	1369330	WORD_OFF	n/a	n/a	BEE	7	12	[0, 0, 0]	n/a	FR1	1	R1346T
1368.549	1.634	1370163	WORD	n/a	n/a	WHALE	8	12	[0, 0, 0]	n/a	FR1	1	R1346T
1370.183	0.962	1371797	WORD_OFF	n/a	n/a	WHALE	8	12	[0, 0, 0]	n/a	FR1	1	R1346T
1371.145	1.623	1372759	WORD	n/a	n/a	CRANE	9	12	[0, 0, 0]	n/a	FR1	1	R1346T
1372.768	0.988	1374382	WORD_OFF	n/a	n/a	CRANE	9	12	[0, 0, 0]	n/a	FR1	1	R1346T
1373.756	1.628	1375370	WORD	n/a	n/a	VINE	10	12	[0, 0, 0]	n/a	FR1	1	R1346T
1375.384	1.069	1376998	WORD_OFF	n/a	n/a	VINE	10	12	[0, 0, 0]	n/a	FR1	1	R1346T
1376.453	1.632	1378067	WORD	n/a	n/a	BOX	11	12	[0, 0, 0]	n/a	FR1	1	R1346T
1378.085	0.843	1379699	WORD_OFF	n/a	n/a	BOX	11	12	[0, 0, 0]	n/a	FR1	1	R1346T
1378.928	1.624	1380542	WORD	n/a	n/a	CONE	12	12	[0, 0, 0]	n/a	FR1	1	R1346T
1380.552	0.0	1382166	ENCODING_END	n/a	n/a	n/a	-999	12	[0, 0, 0]	n/a	FR1	1	R1346T
1380.552	0.001	1382166	WORD_OFF	n/a	n/a	CONE	12	12	[0, 0, 0]	n/a	FR1	1	R1346T
1380.553	0.0	1382167	DISTRACT_START	n/a	n/a	n/a	-999	12	[0, 0, 0]	n/a	FR1	1	R1346T
1380.553	0.015	1382167	START	n/a	n/a	n/a	-999	12	[-999, -999, -999]	n/a	FR1	1	R1346T
1380.568	12.253	1382182	PROB	12.253	n/a	n/a	-999	12	[2, 6, 9]	17	FR1	1	R1346T
1392.821	7.551	1394434	PROB	7.551	n/a	n/a	-999	12	[6, 6, 1]	13	FR1	1	R1346T
1400.372	4.761	1401985	PROB	4.761	n/a	n/a	-999	12	[7, 5, 7]	19	FR1	1	R1346T
1405.133	0.007	1406745	STOP	n/a	n/a	n/a	-999	12	[-999, -999, -999]	n/a	FR1	1	R1346T
1405.14	0.676	1406752	DISTRACT_END	n/a	n/a	n/a	-999	12	[0, 0, 0]	n/a	FR1	1	R1346T
1405.816	1.658	1407428	RETRIEVAL_ORIENT_START	n/a	n/a	n/a	-999	12	[0, 0, 0]	n/a	FR1	1	R1346T
1407.474	0.0	1409086	RETRIEVAL_ORIENT_END	n/a	n/a	n/a	-999	12	[0, 0, 0]	n/a	FR1	1	R1346T
1407.474	9.271	1409086	REC_START	n/a	n/a	n/a	-999	12	[0, 0, 0]	n/a	FR1	1	R1346T
1416.745	6.585	1418357	REC_WORD	6.585	n/a	ARK	-999	12	[0, 0, 0]	n/a	FR1	1	R1346T
1423.33	14.156	1424942	REC_WORD	14.156	n/a	CAKE	5	12	[0, 0, 0]	n/a	FR1	1	R1346T
1437.486	0.001	1439097	REC_END	n/a	n/a	n/a	-999	12	[0, 0, 0]	n/a	FR1	1	R1346T
1437.487	0.015	1439098	TRIAL_END	n/a	n/a	n/a	-999	12	[0, 0, 0]	n/a	FR1	1	R1346T
1437.502	0.0	1439113	TRIAL_START	n/a	n/a	n/a	-999	13	[0, 0, 0]	n/a	FR1	1	R1346T
1437.502	0.0	1439113	TRIAL	n/a	n/a	n/a	-999	13	[0, 0, 0]	n/a	FR1	1	R1346T
1437.502	4.578	1439113	WAITING_START	n/a	n/a	n/a	-999	13	[0, 0, 0]	n/a	FR1	1	R1346T
1442.08	0.0	1443691	WAITING_END	n/a	n/a	n/a	-999	13	[0, 0, 0]	n/a	FR1	1	R1346T
1442.08	10.428	1443691	COUNTDOWN_START	n/a	n/a	n/a	-999	13	[0, 0, 0]	n/a	FR1	1	R1346T
1452.508	0.0	1454118	COUNTDOWN_END	n/a	n/a	n/a	-999	13	[0, 0, 0]	n/a	FR1	1	R1346T
1452.508	1.224	1454118	ORIENT_START	n/a	n/a	n/a	-999	13	[0, 0, 0]	n/a	FR1	1	R1346T
1453.732	0.0	1455342	ENCODING_START	n/a	n/a	n/a	-999	13	[0, 0, 0]	n/a	FR1	1	R1346T
1453.732	0.871	1455342	ORIENT_END	n/a	n/a	n/a	-999	13	[0, 0, 0]	n/a	FR1	1	R1346T
1454.603	1.629	1456213	WORD	n/a	n/a	ROOT	1	13	[0, 0, 0]	n/a	FR1	1	R1346T
1456.232	1.079	1457842	WORD_OFF	n/a	n/a	ROOT	1	13	[0, 0, 0]	n/a	FR1	1	R1346T
1457.311	1.622	1458921	WORD	n/a	n/a	PIT	2	13	[0, 0, 0]	n/a	FR1	1	R1346T
1458.933	0.954	1460543	WORD_OFF	n/a	n/a	PIT	2	13	[0, 0, 0]	n/a	FR1	1	R1346T
1459.887	1.63	1461497	WORD	n/a	n/a	SKI	3	13	[0, 0, 0]	n/a	FR1	1	R1346T
1461.517	0.758	1463127	WORD_OFF	n/a	n/a	SKI	3	13	[0, 0, 0]	n/a	FR1	1	R1346T
1462.275	1.626	1463885	WORD	n/a	n/a	SKY	4	13	[0, 0, 0]	n/a	FR1	1	R1346T
1463.901	0.987	1465511	WORD_OFF	n/a	n/a	SKY	4	13	[0, 0, 0]	n/a	FR1	1	R1346T
1464.888	1.63	1466498	WORD	n/a	n/a	HILL	5	13	[0, 0, 0]	n/a	FR1	1	R1346T
1466.518	1.123	1468128	WORD_OFF	n/a	n/a	HILL	5	13	[0, 0, 0]	n/a	FR1	1	R1346T
1467.641	1.627	1469251	WORD	n/a	n/a	CORD	6	13	[0, 0, 0]	n/a	FR1	1	R1346T
1469.268	0.845	1470878	WORD_OFF	n/a	n/a	CORD	6	13	[0, 0, 0]	n/a	FR1	1	R1346T
1470.113	1.622	1471723	WORD	n/a	n/a	HORSE	7	13	[0, 0, 0]	n/a	FR1	1	R1346T
1471.735	0.84	1473345	WORD_OFF	n/a	n/a	HORSE	7	13	[0, 0, 0]	n/a	FR1	1	R1346T
1472.575	1.627	1474185	WORD	n/a	n/a	CANE	8	13	[0, 0, 0]	n/a	FR1	1	R1346T
1474.202	1.109	1475811	WORD_OFF	n/a	n/a	CANE	8	13	[0, 0, 0]	n/a	FR1	1	R1346T
1475.311	1.625	1476920	WORD	n/a	n/a	ZOO	9	13	[0, 0, 0]	n/a	FR1	1	R1346T
1476.936	1.002	1478545	WORD_OFF	n/a	n/a	ZOO	9	13	[0, 0, 0]	n/a	FR1	1	R1346T
1477.938	1.632	1479547	WORD	n/a	n/a	FUR	10	13	[0, 0, 0]	n/a	FR1	1	R1346T
1479.57	0.833	1481179	WORD_OFF	n/a	n/a	FUR	10	13	[0, 0, 0]	n/a	FR1	1	R1346T
1480.403	1.634	1482012	WORD	n/a	n/a	EGG	11	13	[0, 0, 0]	n/a	FR1	1	R1346T
1482.037	0.86	1483646	WORD_OFF	n/a	n/a	EGG	11	13	[0, 0, 0]	n/a	FR1	1	R1346T
1482.897	1.624	1484506	WORD	n/a	n/a	BOOK	12	13	[0, 0, 0]	n/a	FR1	1	R1346T
1484.521	0.0	1486130	WORD_OFF	n/a	n/a	BOOK	12	13	[0, 0, 0]	n/a	FR1	1	R1346T
1484.521	0.001	1486130	ENCODING_END	n/a	n/a	n/a	-999	13	[0, 0, 0]	n/a	FR1	1	R1346T
1484.522	0.0	1486131	DISTRACT_START	n/a	n/a	n/a	-999	13	[0, 0, 0]	n/a	FR1	1	R1346T
1484.522	0.015	1486131	START	n/a	n/a	n/a	-999	13	[-999, -999, -999]	n/a	FR1	1	R1346T
1484.537	5.301	1486146	PROB	5.301	n/a	n/a	-999	13	[1, 6, 9]	16	FR1	1	R1346T
1489.838	5.235	1491447	PROB	5.235	n/a	n/a	-999	13	[8, 5, 2]	15	FR1	1	R1346T
1495.073	8.768	1496682	PROB	8.768	n/a	n/a	-999	13	[8, 7, 2]	17	FR1	1	R1346T
1503.841	7.055	1505449	PROB	7.055	n/a	n/a	-999	13	[5, 6, 5]	16	FR1	1	R1346T
1510.896	0.013	1512504	STOP	n/a	n/a	n/a	-999	13	[-999, -999, -999]	n/a	FR1	1	R1346T
1510.909	0.502	1512517	DISTRACT_END	n/a	n/a	n/a	-999	13	[0, 0, 0]	n/a	FR1	1	R1346T
1511.411	1.598	1513019	RETRIEVAL_ORIENT_START	n/a	n/a	n/a	-999	13	[0, 0, 0]	n/a	FR1	1	R1346T
1513.009	0.001	1514617	RETRIEVAL_ORIENT_END	n/a	n/a	n/a	-999	13	[0, 0, 0]	n/a	FR1	1	R1346T
1513.01	1.548	1514618	REC_START	n/a	n/a	n/a	-999	13	[0, 0, 0]	n/a	FR1	1	R1346T
1514.558	1.576	1516166	REC_WORD	1.576	n/a	HORSE	7	13	[0, 0, 0]	n/a	FR1	1	R1346T
1516.134	2.171	1517742	REC_WORD	2.171	n/a	FUR	10	13	[0, 0, 0]	n/a	FR1	1	R1346T
1518.305	4.242	1519912	REC_WORD	4.242	n/a	ZOO	9	13	[0, 0, 0]	n/a	FR1	1	R1346T
1522.547	2.496	1524154	REC_WORD	2.496	n/a	CRANE	-999	13	[0, 0, 0]	n/a	FR1	1	R1346T
1525.043	2.807	1526650	REC_WORD	2.807	n/a	ROOT	1	13	[0, 0, 0]	n/a	FR1	1	R1346T
1527.85	2.366	1529457	REC_WORD	2.366	n/a	PIT	2	13	[0, 0, 0]	n/a	FR1	1	R1346T
1530.216	0.921	1531823	REC_WORD	0.921	n/a	SKY	4	13	[0, 0, 0]	n/a	FR1	1	R1346T
1531.137	5.671	1532744	REC_WORD	5.671	n/a	CLOUD	-999	13	[0, 0, 0]	n/a	FR1	1	R1346T
1536.808	6.216	1538415	REC_WORD	6.216	n/a	PIT	2	13	[0, 0, 0]	n/a	FR1	1	R1346T
1543.024	0.0	1544630	REC_END	n/a	n/a	n/a	-999	13	[0, 0, 0]	n/a	FR1	1	R1346T
1543.024	0.015	1544630	TRIAL_END	n/a	n/a	n/a	-999	13	[0, 0, 0]	n/a	FR1	1	R1346T
1543.039	0.0	1544645	TRIAL_START	n/a	n/a	n/a	-999	14	[0, 0, 0]	n/a	FR1	1	R1346T
1543.039	0.0	1544645	TRIAL	n/a	n/a	n/a	-999	14	[0, 0, 0]	n/a	FR1	1	R1346T
1543.039	4.543	1544645	WAITING_START	n/a	n/a	n/a	-999	14	[0, 0, 0]	n/a	FR1	1	R1346T
1547.582	0.001	1549188	WAITING_END	n/a	n/a	n/a	-999	14	[0, 0, 0]	n/a	FR1	1	R1346T
1547.583	10.428	1549189	COUNTDOWN_START	n/a	n/a	n/a	-999	14	[0, 0, 0]	n/a	FR1	1	R1346T
1558.011	0.001	1559617	COUNTDOWN_END	n/a	n/a	n/a	-999	14	[0, 0, 0]	n/a	FR1	1	R1346T
1558.012	1.056	1559618	ORIENT_START	n/a	n/a	n/a	-999	14	[0, 0, 0]	n/a	FR1	1	R1346T
1559.068	0.0	1560674	ORIENT_END	n/a	n/a	n/a	-999	14	[0, 0, 0]	n/a	FR1	1	R1346T
1559.068	1.0	1560674	ENCODING_START	n/a	n/a	n/a	-999	14	[0, 0, 0]	n/a	FR1	1	R1346T
1560.068	1.634	1561674	WORD	n/a	n/a	SHEEP	1	14	[0, 0, 0]	n/a	FR1	1	R1346T
1561.702	1.079	1563308	WORD_OFF	n/a	n/a	SHEEP	1	14	[0, 0, 0]	n/a	FR1	1	R1346T
1562.781	1.638	1564387	WORD	n/a	n/a	STREET	2	14	[0, 0, 0]	n/a	FR1	1	R1346T
1564.419	0.934	1566024	WORD_OFF	n/a	n/a	STREET	2	14	[0, 0, 0]	n/a	FR1	1	R1346T
1565.353	1.633	1566958	WORD	n/a	n/a	BARN	3	14	[0, 0, 0]	n/a	FR1	1	R1346T
1566.986	1.071	1568591	WORD_OFF	n/a	n/a	BARN	3	14	[0, 0, 0]	n/a	FR1	1	R1346T
1568.057	1.629	1569662	WORD	n/a	n/a	VAN	4	14	[0, 0, 0]	n/a	FR1	1	R1346T
1569.686	0.764	1571291	WORD_OFF	n/a	n/a	VAN	4	14	[0, 0, 0]	n/a	FR1	1	R1346T
1570.45	1.637	1572055	WORD	n/a	n/a	GRAPE	5	14	[0, 0, 0]	n/a	FR1	1	R1346T
1572.087	1.12	1573692	WORD_OFF	n/a	n/a	GRAPE	5	14	[0, 0, 0]	n/a	FR1	1	R1346T
1573.207	1.63	1574812	WORD	n/a	n/a	MAZE	6	14	[0, 0, 0]	n/a	FR1	1	R1346T
1574.837	0.858	1576442	WORD_OFF	n/a	n/a	MAZE	6	14	[0, 0, 0]	n/a	FR1	1	R1346T
1575.695	1.626	1577300	WORD	n/a	n/a	STAR	7	14	[0, 0, 0]	n/a	FR1	1	R1346T
1577.321	0.829	1578926	WORD_OFF	n/a	n/a	STAR	7	14	[0, 0, 0]	n/a	FR1	1	R1346T
1578.15	1.623	1579755	WORD	n/a	n/a	DART	8	14	[0, 0, 0]	n/a	FR1	1	R1346T
1579.773	1.018	1581378	WORD_OFF	n/a	n/a	DART	8	14	[0, 0, 0]	n/a	FR1	1	R1346T
1580.791	1.631	1582396	WORD	n/a	n/a	BAT	9	14	[0, 0, 0]	n/a	FR1	1	R1346T
1582.422	1.126	1584027	WORD_OFF	n/a	n/a	BAT	9	14	[0, 0, 0]	n/a	FR1	1	R1346T
1583.548	1.624	1585153	WORD	n/a	n/a	FILM	10	14	[0, 0, 0]	n/a	FR1	1	R1346T
1585.172	0.961	1586777	WORD_OFF	n/a	n/a	FILM	10	14	[0, 0, 0]	n/a	FR1	1	R1346T
1586.133	1.623	1587738	WORD	n/a	n/a	LAND	11	14	[0, 0, 0]	n/a	FR1	1	R1346T
1587.756	1.11	1589360	WORD_OFF	n/a	n/a	LAND	11	14	[0, 0, 0]	n/a	FR1	1	R1346T
1588.866	1.624	1590470	WORD	n/a	n/a	CASH	12	14	[0, 0, 0]	n/a	FR1	1	R1346T
1590.49	0.001	1592094	WORD_OFF	n/a	n/a	CASH	12	14	[0, 0, 0]	n/a	FR1	1	R1346T
1590.491	0.0	1592095	ENCODING_END	n/a	n/a	n/a	-999	14	[0, 0, 0]	n/a	FR1	1	R1346T
1590.491	0.0	1592095	DISTRACT_START	n/a	n/a	n/a	-999	14	[0, 0, 0]	n/a	FR1	1	R1346T
1590.491	0.016	1592095	START	n/a	n/a	n/a	-999	14	[-999, -999, -999]	n/a	FR1	1	R1346T
1590.507	5.268	1592111	PROB	5.268	n/a	n/a	-999	14	[4, 5, 2]	11	FR1	1	R1346T
1595.775	4.133	1597379	PROB	4.133	n/a	n/a	-999	14	[1, 6, 3]	10	FR1	1	R1346T
1599.908	3.951	1601512	PROB	3.951	n/a	n/a	-999	14	[7, 3, 2]	12	FR1	1	R1346T
1603.859	7.401	1605463	PROB	7.401	n/a	n/a	-999	14	[9, 2, 4]	15	FR1	1	R1346T
1611.26	0.017	1612863	STOP	n/a	n/a	n/a	-999	14	[-999, -999, -999]	n/a	FR1	1	R1346T
1611.277	0.669	1612880	DISTRACT_END	n/a	n/a	n/a	-999	14	[0, 0, 0]	n/a	FR1	1	R1346T
1611.946	1.665	1613549	RETRIEVAL_ORIENT_START	n/a	n/a	n/a	-999	14	[0, 0, 0]	n/a	FR1	1	R1346T
1613.611	0.0	1615214	RETRIEVAL_ORIENT_END	n/a	n/a	n/a	-999	14	[0, 0, 0]	n/a	FR1	1	R1346T
1613.611	3.352	1615214	REC_START	n/a	n/a	n/a	-999	14	[0, 0, 0]	n/a	FR1	1	R1346T
1616.963	1.642	1618566	REC_WORD	1.642	n/a	VAN	4	14	[0, 0, 0]	n/a	FR1	1	R1346T
1618.605	2.093	1620208	REC_WORD	2.093	n/a	GRAPE	5	14	[0, 0, 0]	n/a	FR1	1	R1346T
1620.698	9.082	1622301	REC_WORD	9.082	n/a	MAZE	6	14	[0, 0, 0]	n/a	FR1	1	R1346T
1629.78	13.844	1631383	REC_WORD	13.844	n/a	CASH	12	14	[0, 0, 0]	n/a	FR1	1	R1346T
1643.624	0.0	1645226	REC_END	n/a	n/a	n/a	-999	14	[0, 0, 0]	n/a	FR1	1	R1346T
1643.624	0.016	1645226	TRIAL_END	n/a	n/a	n/a	-999	14	[0, 0, 0]	n/a	FR1	1	R1346T
1643.64	0.0	1645242	TRIAL_START	n/a	n/a	n/a	-999	15	[0, 0, 0]	n/a	FR1	1	R1346T
1643.64	0.0	1645242	TRIAL	n/a	n/a	n/a	-999	15	[0, 0, 0]	n/a	FR1	1	R1346T
1643.64	4.145	1645242	WAITING_START	n/a	n/a	n/a	-999	15	[0, 0, 0]	n/a	FR1	1	R1346T
1647.785	0.0	1649387	COUNTDOWN_START	n/a	n/a	n/a	-999	15	[0, 0, 0]	n/a	FR1	1	R1346T
1647.785	10.43	1649387	WAITING_END	n/a	n/a	n/a	-999	15	[0, 0, 0]	n/a	FR1	1	R1346T
1658.215	0.0	1659816	COUNTDOWN_END	n/a	n/a	n/a	-999	15	[0, 0, 0]	n/a	FR1	1	R1346T
1658.215	1.054	1659816	ORIENT_START	n/a	n/a	n/a	-999	15	[0, 0, 0]	n/a	FR1	1	R1346T
1659.269	0.001	1660870	ORIENT_END	n/a	n/a	n/a	-999	15	[0, 0, 0]	n/a	FR1	1	R1346T
1659.27	0.793	1660871	ENCODING_START	n/a	n/a	n/a	-999	15	[0, 0, 0]	n/a	FR1	1	R1346T
1660.063	1.623	1661664	WORD	n/a	n/a	RAKE	1	15	[0, 0, 0]	n/a	FR1	1	R1346T
1661.686	1.029	1663287	WORD_OFF	n/a	n/a	RAKE	1	15	[0, 0, 0]	n/a	FR1	1	R1346T
1662.715	1.639	1664316	WORD	n/a	n/a	CHIEF	2	15	[0, 0, 0]	n/a	FR1	1	R1346T
1664.354	1.021	1665955	WORD_OFF	n/a	n/a	CHIEF	2	15	[0, 0, 0]	n/a	FR1	1	R1346T
1665.375	1.629	1666976	WORD	n/a	n/a	CHIN	3	15	[0, 0, 0]	n/a	FR1	1	R1346T
1667.004	0.76	1668605	WORD_OFF	n/a	n/a	CHIN	3	15	[0, 0, 0]	n/a	FR1	1	R1346T
1667.764	1.624	1669365	WORD	n/a	n/a	SEA	4	15	[0, 0, 0]	n/a	FR1	1	R1346T
1669.388	1.118	1670989	WORD_OFF	n/a	n/a	SEA	4	15	[0, 0, 0]	n/a	FR1	1	R1346T
1670.506	1.632	1672107	WORD	n/a	n/a	POOL	5	15	[0, 0, 0]	n/a	FR1	1	R1346T
1672.138	1.108	1673739	WORD_OFF	n/a	n/a	POOL	5	15	[0, 0, 0]	n/a	FR1	1	R1346T
1673.246	1.626	1674847	WORD	n/a	n/a	LEG	6	15	[0, 0, 0]	n/a	FR1	1	R1346T
1674.872	0.802	1676473	WORD_OFF	n/a	n/a	LEG	6	15	[0, 0, 0]	n/a	FR1	1	R1346T
1675.674	1.632	1677275	WORD	n/a	n/a	MUD	7	15	[0, 0, 0]	n/a	FR1	1	R1346T
1677.306	1.026	1678906	WORD_OFF	n/a	n/a	MUD	7	15	[0, 0, 0]	n/a	FR1	1	R1346T
1678.332	1.624	1679932	WORD	n/a	n/a	RAIN	8	15	[0, 0, 0]	n/a	FR1	1	R1346T
1679.956	0.911	1681556	WORD_OFF	n/a	n/a	RAIN	8	15	[0, 0, 0]	n/a	FR1	1	R1346T
1680.867	1.623	1682467	WORD	n/a	n/a	BROOM	9	15	[0, 0, 0]	n/a	FR1	1	R1346T
1682.49	0.796	1684090	WORD_OFF	n/a	n/a	BROOM	9	15	[0, 0, 0]	n/a	FR1	1	R1346T
1683.286	1.638	1684886	WORD	n/a	n/a	DUCK	10	15	[0, 0, 0]	n/a	FR1	1	R1346T
1684.924	1.049	1686524	WORD_OFF	n/a	n/a	DUCK	10	15	[0, 0, 0]	n/a	FR1	1	R1346T
1685.973	1.635	1687573	WORD	n/a	n/a	PEARL	11	15	[0, 0, 0]	n/a	FR1	1	R1346T
1687.608	1.129	1689208	WORD_OFF	n/a	n/a	PEARL	11	15	[0, 0, 0]	n/a	FR1	1	R1346T
1688.737	1.621	1690337	WORD	n/a	n/a	SUN	12	15	[0, 0, 0]	n/a	FR1	1	R1346T
1690.358	0.001	1691958	WORD_OFF	n/a	n/a	SUN	12	15	[0, 0, 0]	n/a	FR1	1	R1346T
1690.359	0.0	1691959	ENCODING_END	n/a	n/a	n/a	-999	15	[0, 0, 0]	n/a	FR1	1	R1346T
1690.359	0.0	1691959	DISTRACT_START	n/a	n/a	n/a	-999	15	[0, 0, 0]	n/a	FR1	1	R1346T
1690.359	0.016	1691959	START	n/a	n/a	n/a	-999	15	[-999, -999, -999]	n/a	FR1	1	R1346T
1690.375	4.684	1691975	PROB	4.684	n/a	n/a	-999	15	[3, 9, 1]	13	FR1	1	R1346T
1695.059	5.117	1696659	PROB	5.117	n/a	n/a	-999	15	[6, 9, 3]	18	FR1	1	R1346T
1700.176	4.318	1701775	PROB	4.318	n/a	n/a	-999	15	[1, 7, 2]	10	FR1	1	R1346T
1704.494	4.951	1706093	PROB	4.951	n/a	n/a	-999	15	[9, 1, 6]	16	FR1	1	R1346T
1709.445	4.838	1711044	PROB	4.838	n/a	n/a	-999	15	[1, 8, 4]	13	FR1	1	R1346T
1714.283	0.013	1715882	STOP	n/a	n/a	n/a	-999	15	[-999, -999, -999]	n/a	FR1	1	R1346T
1714.296	0.608	1715895	DISTRACT_END	n/a	n/a	n/a	-999	15	[0, 0, 0]	n/a	FR1	1	R1346T
1714.904	1.576	1716503	RETRIEVAL_ORIENT_START	n/a	n/a	n/a	-999	15	[0, 0, 0]	n/a	FR1	1	R1346T
1716.48	0.0	1718079	RETRIEVAL_ORIENT_END	n/a	n/a	n/a	-999	15	[0, 0, 0]	n/a	FR1	1	R1346T
1716.48	1.553	1718079	REC_START	n/a	n/a	n/a	-999	15	[0, 0, 0]	n/a	FR1	1	R1346T
1718.033	1.447	1719632	REC_WORD	1.447	n/a	PEARL	11	15	[0, 0, 0]	n/a	FR1	1	R1346T
1719.48	2.361	1721079	REC_WORD	2.361	n/a	MUD	7	15	[0, 0, 0]	n/a	FR1	1	R1346T
1721.841	2.729	1723440	REC_WORD	2.729	n/a	POOL	5	15	[0, 0, 0]	n/a	FR1	1	R1346T
1724.57	4.406	1726168	REC_WORD	4.406	n/a	RAIN	8	15	[0, 0, 0]	n/a	FR1	1	R1346T
1728.976	17.517	1730574	REC_WORD	17.517	n/a	LEAVES	-999	15	[0, 0, 0]	n/a	FR1	1	R1346T
1746.493	0.0	1748090	REC_END	n/a	n/a	n/a	-999	15	[0, 0, 0]	n/a	FR1	1	R1346T
1746.493	0.014	1748090	TRIAL_END	n/a	n/a	n/a	-999	15	[0, 0, 0]	n/a	FR1	1	R1346T
1746.507	0.0	1748104	TRIAL_START	n/a	n/a	n/a	-999	16	[0, 0, 0]	n/a	FR1	1	R1346T
1746.507	0.001	1748104	TRIAL	n/a	n/a	n/a	-999	16	[0, 0, 0]	n/a	FR1	1	R1346T
1746.508	193.012	1748105	WAITING_START	n/a	n/a	n/a	-999	16	[0, 0, 0]	n/a	FR1	1	R1346T
1939.52	0.001	1941109	WAITING_END	n/a	n/a	n/a	-999	16	[0, 0, 0]	n/a	FR1	1	R1346T
1939.521	10.429	1941110	COUNTDOWN_START	n/a	n/a	n/a	-999	16	[0, 0, 0]	n/a	FR1	1	R1346T
1949.95	0.001	1951538	COUNTDOWN_END	n/a	n/a	n/a	-999	16	[0, 0, 0]	n/a	FR1	1	R1346T
1949.951	1.205	1951539	ORIENT_START	n/a	n/a	n/a	-999	16	[0, 0, 0]	n/a	FR1	1	R1346T
1951.156	0.0	1952744	ORIENT_END	n/a	n/a	n/a	-999	16	[0, 0, 0]	n/a	FR1	1	R1346T
1951.156	1.105	1952744	ENCODING_START	n/a	n/a	n/a	-999	16	[0, 0, 0]	n/a	FR1	1	R1346T
1952.261	1.628	1953849	WORD	n/a	n/a	BEAN	1	16	[0, 0, 0]	n/a	FR1	1	R1346T
1953.889	0.828	1955477	WORD_OFF	n/a	n/a	BEAN	1	16	[0, 0, 0]	n/a	FR1	1	R1346T
1954.717	1.623	1956305	WORD	n/a	n/a	HOUSE	2	16	[0, 0, 0]	n/a	FR1	1	R1346T
1956.34	0.757	1957928	WORD_OFF	n/a	n/a	HOUSE	2	16	[0, 0, 0]	n/a	FR1	1	R1346T
1957.097	1.627	1958685	WORD	n/a	n/a	SLIME	3	16	[0, 0, 0]	n/a	FR1	1	R1346T
1958.724	0.791	1960312	WORD_OFF	n/a	n/a	SLIME	3	16	[0, 0, 0]	n/a	FR1	1	R1346T
1959.515	1.626	1961103	WORD	n/a	n/a	PEACH	4	16	[0, 0, 0]	n/a	FR1	1	R1346T
1961.141	0.872	1962729	WORD_OFF	n/a	n/a	PEACH	4	16	[0, 0, 0]	n/a	FR1	1	R1346T
1962.013	1.628	1963601	WORD	n/a	n/a	HAND	5	16	[0, 0, 0]	n/a	FR1	1	R1346T
1963.641	0.835	1965229	WORD_OFF	n/a	n/a	HAND	5	16	[0, 0, 0]	n/a	FR1	1	R1346T
1964.476	1.632	1966064	WORD	n/a	n/a	LAKE	6	16	[0, 0, 0]	n/a	FR1	1	R1346T
1966.108	0.8	1967696	WORD_OFF	n/a	n/a	LAKE	6	16	[0, 0, 0]	n/a	FR1	1	R1346T
1966.908	1.634	1968496	WORD	n/a	n/a	MAT	7	16	[0, 0, 0]	n/a	FR1	1	R1346T
1968.542	0.9	1970130	WORD_OFF	n/a	n/a	MAT	7	16	[0, 0, 0]	n/a	FR1	1	R1346T
1969.442	1.634	1971030	WORD	n/a	n/a	SHIRT	8	16	[0, 0, 0]	n/a	FR1	1	R1346T
1971.076	0.801	1972664	WORD_OFF	n/a	n/a	SHIRT	8	16	[0, 0, 0]	n/a	FR1	1	R1346T
1971.877	1.633	1973464	WORD	n/a	n/a	MULE	9	16	[0, 0, 0]	n/a	FR1	1	R1346T
1973.51	0.829	1975097	WORD_OFF	n/a	n/a	MULE	9	16	[0, 0, 0]	n/a	FR1	1	R1346T
1974.339	1.621	1975926	WORD	n/a	n/a	CAGE	10	16	[0, 0, 0]	n/a	FR1	1	R1346T
1975.96	0.891	1977547	WORD_OFF	n/a	n/a	CAGE	10	16	[0, 0, 0]	n/a	FR1	1	R1346T
1976.851	1.626	1978438	WORD	n/a	n/a	AXE	11	16	[0, 0, 0]	n/a	FR1	1	R1346T
1978.477	1.128	1980064	WORD_OFF	n/a	n/a	AXE	11	16	[0, 0, 0]	n/a	FR1	1	R1346T
1979.605	1.623	1981192	WORD	n/a	n/a	SPARK	12	16	[0, 0, 0]	n/a	FR1	1	R1346T
1981.228	0.0	1982815	ENCODING_END	n/a	n/a	n/a	-999	16	[0, 0, 0]	n/a	FR1	1	R1346T
1981.228	0.001	1982815	WORD_OFF	n/a	n/a	SPARK	12	16	[0, 0, 0]	n/a	FR1	1	R1346T
1981.229	0.0	1982816	DISTRACT_START	n/a	n/a	n/a	-999	16	[0, 0, 0]	n/a	FR1	1	R1346T
1981.229	0.015	1982816	START	n/a	n/a	n/a	-999	16	[-999, -999, -999]	n/a	FR1	1	R1346T
1981.244	3.968	1982831	PROB	3.968	n/a	n/a	-999	16	[3, 5, 1]	9	FR1	1	R1346T
1985.212	5.217	1986799	PROB	5.217	n/a	n/a	-999	16	[2, 9, 8]	19	FR1	1	R1346T
1990.429	3.901	1992016	PROB	3.901	n/a	n/a	-999	16	[7, 1, 8]	16	FR1	1	R1346T
1994.33	4.034	1995916	PROB	4.034	n/a	n/a	-999	16	[2, 7, 7]	16	FR1	1	R1346T
1998.364	4.805	1999950	PROB	4.805	n/a	n/a	-999	16	[8, 7, 4]	19	FR1	1	R1346T
2003.169	0.013	2004755	STOP	n/a	n/a	n/a	-999	16	[-999, -999, -999]	n/a	FR1	1	R1346T
2003.182	0.587	2004768	DISTRACT_END	n/a	n/a	n/a	-999	16	[0, 0, 0]	n/a	FR1	1	R1346T
2003.769	1.613	2005355	RETRIEVAL_ORIENT_START	n/a	n/a	n/a	-999	16	[0, 0, 0]	n/a	FR1	1	R1346T
2005.382	0.0	2006968	RETRIEVAL_ORIENT_END	n/a	n/a	n/a	-999	16	[0, 0, 0]	n/a	FR1	1	R1346T
2005.382	1.983	2006968	REC_START	n/a	n/a	n/a	-999	16	[0, 0, 0]	n/a	FR1	1	R1346T
2007.365	1.761	2008951	REC_WORD	1.761	n/a	SLIME	3	16	[0, 0, 0]	n/a	FR1	1	R1346T
2009.126	3.189	2010712	REC_WORD	3.189	n/a	LAKE	6	16	[0, 0, 0]	n/a	FR1	1	R1346T
2012.315	2.144	2013901	REC_WORD	2.144	n/a	BEAN	1	16	[0, 0, 0]	n/a	FR1	1	R1346T
2014.459	20.937	2016045	REC_WORD	20.937	n/a	HOUSE	2	16	[0, 0, 0]	n/a	FR1	1	R1346T
2035.396	0.0	2036981	REC_END	n/a	n/a	n/a	-999	16	[0, 0, 0]	n/a	FR1	1	R1346T
2035.396	0.016	2036981	TRIAL_END	n/a	n/a	n/a	-999	16	[0, 0, 0]	n/a	FR1	1	R1346T
2035.412	0.0	2036997	TRIAL_START	n/a	n/a	n/a	-999	17	[0, 0, 0]	n/a	FR1	1	R1346T
2035.412	0.001	2036997	TRIAL	n/a	n/a	n/a	-999	17	[0, 0, 0]	n/a	FR1	1	R1346T
2035.413	10.193	2036998	WAITING_START	n/a	n/a	n/a	-999	17	[0, 0, 0]	n/a	FR1	1	R1346T
2045.606	0.001	2047190	WAITING_END	n/a	n/a	n/a	-999	17	[0, 0, 0]	n/a	FR1	1	R1346T
2045.607	10.428	2047191	COUNTDOWN_START	n/a	n/a	n/a	-999	17	[0, 0, 0]	n/a	FR1	1	R1346T
2056.035	0.001	2057619	COUNTDOWN_END	n/a	n/a	n/a	-999	17	[0, 0, 0]	n/a	FR1	1	R1346T
2056.036	1.206	2057620	ORIENT_START	n/a	n/a	n/a	-999	17	[0, 0, 0]	n/a	FR1	1	R1346T
2057.242	0.0	2058826	ORIENT_END	n/a	n/a	n/a	-999	17	[0, 0, 0]	n/a	FR1	1	R1346T
2057.242	0.953	2058826	ENCODING_START	n/a	n/a	n/a	-999	17	[0, 0, 0]	n/a	FR1	1	R1346T
2058.195	1.63	2059779	WORD	n/a	n/a	BOAT	1	17	[0, 0, 0]	n/a	FR1	1	R1346T
2059.825	0.964	2061409	WORD_OFF	n/a	n/a	BOAT	1	17	[0, 0, 0]	n/a	FR1	1	R1346T
2060.789	1.637	2062373	WORD	n/a	n/a	WALL	2	17	[0, 0, 0]	n/a	FR1	1	R1346T
2062.426	1.066	2064009	WORD_OFF	n/a	n/a	WALL	2	17	[0, 0, 0]	n/a	FR1	1	R1346T
2063.492	1.634	2065075	WORD	n/a	n/a	NOSE	3	17	[0, 0, 0]	n/a	FR1	1	R1346T
2065.126	1.013	2066709	WORD_OFF	n/a	n/a	NOSE	3	17	[0, 0, 0]	n/a	FR1	1	R1346T
2066.139	1.621	2067722	WORD	n/a	n/a	TOAST	4	17	[0, 0, 0]	n/a	FR1	1	R1346T
2067.76	1.12	2069343	WORD_OFF	n/a	n/a	TOAST	4	17	[0, 0, 0]	n/a	FR1	1	R1346T
2068.88	1.631	2070463	WORD	n/a	n/a	STONE	5	17	[0, 0, 0]	n/a	FR1	1	R1346T
2070.511	1.115	2072094	WORD_OFF	n/a	n/a	STONE	5	17	[0, 0, 0]	n/a	FR1	1	R1346T
2071.626	1.635	2073209	WORD	n/a	n/a	CLOTH	6	17	[0, 0, 0]	n/a	FR1	1	R1346T
2073.261	1.128	2074844	WORD_OFF	n/a	n/a	CLOTH	6	17	[0, 0, 0]	n/a	FR1	1	R1346T
2074.389	1.623	2075972	WORD	n/a	n/a	MOON	7	17	[0, 0, 0]	n/a	FR1	1	R1346T
2076.012	0.905	2077595	WORD_OFF	n/a	n/a	MOON	7	17	[0, 0, 0]	n/a	FR1	1	R1346T
2076.917	1.628	2078500	WORD	n/a	n/a	TREE	8	17	[0, 0, 0]	n/a	FR1	1	R1346T
2078.545	0.858	2080128	WORD_OFF	n/a	n/a	TREE	8	17	[0, 0, 0]	n/a	FR1	1	R1346T
2079.403	1.626	2080986	WORD	n/a	n/a	MOTH	9	17	[0, 0, 0]	n/a	FR1	1	R1346T
2081.029	1.006	2082612	WORD_OFF	n/a	n/a	MOTH	9	17	[0, 0, 0]	n/a	FR1	1	R1346T
2082.035	1.628	2083618	WORD	n/a	n/a	COIN	10	17	[0, 0, 0]	n/a	FR1	1	R1346T
2083.663	0.795	2085246	WORD_OFF	n/a	n/a	COIN	10	17	[0, 0, 0]	n/a	FR1	1	R1346T
2084.458	1.622	2086040	WORD	n/a	n/a	MILK	11	17	[0, 0, 0]	n/a	FR1	1	R1346T
2086.08	0.866	2087662	WORD_OFF	n/a	n/a	MILK	11	17	[0, 0, 0]	n/a	FR1	1	R1346T
2086.946	1.635	2088528	WORD	n/a	n/a	JAIL	12	17	[0, 0, 0]	n/a	FR1	1	R1346T
2088.581	0.0	2090163	ENCODING_END	n/a	n/a	n/a	-999	17	[0, 0, 0]	n/a	FR1	1	R1346T
2088.581	0.0	2090163	DISTRACT_START	n/a	n/a	n/a	-999	17	[0, 0, 0]	n/a	FR1	1	R1346T
2088.581	0.001	2090163	WORD_OFF	n/a	n/a	JAIL	12	17	[0, 0, 0]	n/a	FR1	1	R1346T
2088.582	0.015	2090164	START	n/a	n/a	n/a	-999	17	[-999, -999, -999]	n/a	FR1	1	R1346T
2088.597	5.434	2090179	PROB	5.434	n/a	n/a	-999	17	[6, 6, 1]	13	FR1	1	R1346T
2094.031	6.468	2095613	PROB	6.468	n/a	n/a	-999	17	[6, 6, 7]	19	FR1	1	R1346T
2100.499	5.985	2102081	PROB	5.985	n/a	n/a	-999	17	[5, 3, 6]	14	FR1	1	R1346T
2106.484	3.094	2108066	PROB	3.094	n/a	n/a	-999	17	[5, 3, 1]	9	FR1	1	R1346T
2109.578	0.006	2111159	STOP	n/a	n/a	n/a	-999	17	[-999, -999, -999]	n/a	FR1	1	R1346T
2109.584	0.659	2111165	DISTRACT_END	n/a	n/a	n/a	-999	17	[0, 0, 0]	n/a	FR1	1	R1346T
2110.243	1.592	2111824	RETRIEVAL_ORIENT_START	n/a	n/a	n/a	-999	17	[0, 0, 0]	n/a	FR1	1	R1346T
2111.835	0.0	2113416	RETRIEVAL_ORIENT_END	n/a	n/a	n/a	-999	17	[0, 0, 0]	n/a	FR1	1	R1346T
2111.835	9.297	2113416	REC_START	n/a	n/a	n/a	-999	17	[0, 0, 0]	n/a	FR1	1	R1346T
2121.132	5.95	2122713	REC_WORD	5.95	n/a	MOON	7	17	[0, 0, 0]	n/a	FR1	1	R1346T
2127.082	14.767	2128663	REC_WORD	14.767	n/a	MILK	11	17	[0, 0, 0]	n/a	FR1	1	R1346T
2141.849	0.0	2143429	REC_END	n/a	n/a	n/a	-999	17	[0, 0, 0]	n/a	FR1	1	R1346T
2141.849	0.015	2143429	TRIAL_END	n/a	n/a	n/a	-999	17	[0, 0, 0]	n/a	FR1	1	R1346T
2141.864	0.0	2143444	TRIAL_START	n/a	n/a	n/a	-999	18	[0, 0, 0]	n/a	FR1	1	R1346T
2141.864	0.0	2143444	TRIAL	n/a	n/a	n/a	-999	18	[0, 0, 0]	n/a	FR1	1	R1346T
2141.864	12.295	2143444	WAITING_START	n/a	n/a	n/a	-999	18	[0, 0, 0]	n/a	FR1	1	R1346T
2154.159	0.001	2155738	WAITING_END	n/a	n/a	n/a	-999	18	[0, 0, 0]	n/a	FR1	1	R1346T
2154.16	10.429	2155739	COUNTDOWN_START	n/a	n/a	n/a	-999	18	[0, 0, 0]	n/a	FR1	1	R1346T
2164.589	0.0	2166168	COUNTDOWN_END	n/a	n/a	n/a	-999	18	[0, 0, 0]	n/a	FR1	1	R1346T
2164.589	1.039	2166168	ORIENT_START	n/a	n/a	n/a	-999	18	[0, 0, 0]	n/a	FR1	1	R1346T
2165.628	0.0	2167207	ENCODING_START	n/a	n/a	n/a	-999	18	[0, 0, 0]	n/a	FR1	1	R1346T
2165.628	0.877	2167207	ORIENT_END	n/a	n/a	n/a	-999	18	[0, 0, 0]	n/a	FR1	1	R1346T
2166.505	1.623	2168084	WORD	n/a	n/a	BOWL	1	18	[0, 0, 0]	n/a	FR1	1	R1346T
2168.128	0.986	2169707	WORD_OFF	n/a	n/a	BOWL	1	18	[0, 0, 0]	n/a	FR1	1	R1346T
2169.114	1.632	2170693	WORD	n/a	n/a	STEAM	2	18	[0, 0, 0]	n/a	FR1	1	R1346T
2170.746	0.896	2172325	WORD_OFF	n/a	n/a	STEAM	2	18	[0, 0, 0]	n/a	FR1	1	R1346T
2171.642	1.637	2173221	WORD	n/a	n/a	CORN	3	18	[0, 0, 0]	n/a	FR1	1	R1346T
2173.279	0.944	2174858	WORD_OFF	n/a	n/a	CORN	3	18	[0, 0, 0]	n/a	FR1	1	R1346T
2174.223	1.623	2175802	WORD	n/a	n/a	GATE	4	18	[0, 0, 0]	n/a	FR1	1	R1346T
2175.846	1.137	2177424	WORD_OFF	n/a	n/a	GATE	4	18	[0, 0, 0]	n/a	FR1	1	R1346T
2176.983	1.631	2178561	WORD	n/a	n/a	WAND	5	18	[0, 0, 0]	n/a	FR1	1	R1346T
2178.614	1.082	2180192	WORD_OFF	n/a	n/a	WAND	5	18	[0, 0, 0]	n/a	FR1	1	R1346T
2179.696	1.635	2181274	WORD	n/a	n/a	NET	6	18	[0, 0, 0]	n/a	FR1	1	R1346T
2181.331	0.803	2182909	WORD_OFF	n/a	n/a	NET	6	18	[0, 0, 0]	n/a	FR1	1	R1346T
2182.134	1.632	2183712	WORD	n/a	n/a	BALL	7	18	[0, 0, 0]	n/a	FR1	1	R1346T
2183.766	0.861	2185344	WORD_OFF	n/a	n/a	BALL	7	18	[0, 0, 0]	n/a	FR1	1	R1346T
2184.627	1.638	2186205	WORD	n/a	n/a	SNAKE	8	18	[0, 0, 0]	n/a	FR1	1	R1346T
2186.265	0.919	2187843	WORD_OFF	n/a	n/a	SNAKE	8	18	[0, 0, 0]	n/a	FR1	1	R1346T
2187.184	1.632	2188762	WORD	n/a	n/a	TOOL	9	18	[0, 0, 0]	n/a	FR1	1	R1346T
2188.816	1.052	2190394	WORD_OFF	n/a	n/a	TOOL	9	18	[0, 0, 0]	n/a	FR1	1	R1346T
2189.868	1.631	2191446	WORD	n/a	n/a	STRING	10	18	[0, 0, 0]	n/a	FR1	1	R1346T
2191.499	0.897	2193077	WORD_OFF	n/a	n/a	STRING	10	18	[0, 0, 0]	n/a	FR1	1	R1346T
2192.396	1.637	2193974	WORD	n/a	n/a	HOSE	11	18	[0, 0, 0]	n/a	FR1	1	R1346T
2194.033	0.954	2195611	WORD_OFF	n/a	n/a	HOSE	11	18	[0, 0, 0]	n/a	FR1	1	R1346T
2194.987	1.63	2196565	WORD	n/a	n/a	SPONGE	12	18	[0, 0, 0]	n/a	FR1	1	R1346T
2196.617	0.0	2198195	WORD_OFF	n/a	n/a	SPONGE	12	18	[0, 0, 0]	n/a	FR1	1	R1346T
2196.617	0.0	2198195	ENCODING_END	n/a	n/a	n/a	-999	18	[0, 0, 0]	n/a	FR1	1	R1346T
2196.617	0.001	2198195	DISTRACT_START	n/a	n/a	n/a	-999	18	[0, 0, 0]	n/a	FR1	1	R1346T
2196.618	0.015	2198196	START	n/a	n/a	n/a	-999	18	[-999, -999, -999]	n/a	FR1	1	R1346T
2196.633	4.668	2198211	PROB	4.668	n/a	n/a	-999	18	[5, 8, 2]	15	FR1	1	R1346T
2201.301	5.351	2202878	PROB	5.351	n/a	n/a	-999	18	[3, 4, 3]	10	FR1	1	R1346T
2206.652	8.934	2208229	PROB	8.934	n/a	n/a	-999	18	[8, 6, 3]	17	FR1	1	R1346T
2215.586	13.091	2217163	PROB	13.091	n/a	n/a	-999	18	[9, 6, 9]	24	FR1	1	R1346T
2228.677	0.012	2230253	STOP	n/a	n/a	n/a	-999	18	[-999, -999, -999]	n/a	FR1	1	R1346T
2228.689	0.629	2230265	DISTRACT_END	n/a	n/a	n/a	-999	18	[0, 0, 0]	n/a	FR1	1	R1346T
2229.318	1.722	2230894	RETRIEVAL_ORIENT_START	n/a	n/a	n/a	-999	18	[0, 0, 0]	n/a	FR1	1	R1346T
2231.04	0.0	2232616	RETRIEVAL_ORIENT_END	n/a	n/a	n/a	-999	18	[0, 0, 0]	n/a	FR1	1	R1346T
2231.04	3.613	2232616	REC_START	n/a	n/a	n/a	-999	18	[0, 0, 0]	n/a	FR1	1	R1346T
2234.653	26.4	2236229	REC_WORD	26.4	n/a	STINK	-999	18	[0, 0, 0]	n/a	FR1	1	R1346T
2261.053	0.0	2262628	REC_END	n/a	n/a	n/a	-999	18	[0, 0, 0]	n/a	FR1	1	R1346T
2261.053	0.014	2262628	TRIAL_END	n/a	n/a	n/a	-999	18	[0, 0, 0]	n/a	FR1	1	R1346T
2261.067	0.0	2262642	TRIAL_START	n/a	n/a	n/a	-999	19	[0, 0, 0]	n/a	FR1	1	R1346T
2261.067	0.0	2262642	TRIAL	n/a	n/a	n/a	-999	19	[0, 0, 0]	n/a	FR1	1	R1346T
2261.067	34.901	2262642	WAITING_START	n/a	n/a	n/a	-999	19	[0, 0, 0]	n/a	FR1	1	R1346T
2295.968	0.001	2297541	WAITING_END	n/a	n/a	n/a	-999	19	[0, 0, 0]	n/a	FR1	1	R1346T
2295.969	10.429	2297542	COUNTDOWN_START	n/a	n/a	n/a	-999	19	[0, 0, 0]	n/a	FR1	1	R1346T
2306.398	0.001	2307971	COUNTDOWN_END	n/a	n/a	n/a	-999	19	[0, 0, 0]	n/a	FR1	1	R1346T
2306.399	1.155	2307972	ORIENT_START	n/a	n/a	n/a	-999	19	[0, 0, 0]	n/a	FR1	1	R1346T
2307.554	0.0	2309127	ORIENT_END	n/a	n/a	n/a	-999	19	[0, 0, 0]	n/a	FR1	1	R1346T
2307.554	0.927	2309127	ENCODING_START	n/a	n/a	n/a	-999	19	[0, 0, 0]	n/a	FR1	1	R1346T
2308.481	1.623	2310054	WORD	n/a	n/a	BRICK	1	19	[0, 0, 0]	n/a	FR1	1	R1346T
2310.104	0.851	2311677	WORD_OFF	n/a	n/a	BRICK	1	19	[0, 0, 0]	n/a	FR1	1	R1346T
2310.955	1.633	2312527	WORD	n/a	n/a	CART	2	19	[0, 0, 0]	n/a	FR1	1	R1346T
2312.588	0.894	2314160	WORD_OFF	n/a	n/a	CART	2	19	[0, 0, 0]	n/a	FR1	1	R1346T
2313.482	1.623	2315054	WORD	n/a	n/a	ANT	3	19	[0, 0, 0]	n/a	FR1	1	R1346T
2315.105	0.991	2316677	WORD_OFF	n/a	n/a	ANT	3	19	[0, 0, 0]	n/a	FR1	1	R1346T
2316.096	1.626	2317668	WORD	n/a	n/a	SNOW	4	19	[0, 0, 0]	n/a	FR1	1	R1346T
2317.722	1.051	2319294	WORD_OFF	n/a	n/a	SNOW	4	19	[0, 0, 0]	n/a	FR1	1	R1346T
2318.773	1.633	2320345	WORD	n/a	n/a	TENT	5	19	[0, 0, 0]	n/a	FR1	1	R1346T
2320.406	0.829	2321978	WORD_OFF	n/a	n/a	TENT	5	19	[0, 0, 0]	n/a	FR1	1	R1346T
2321.235	1.621	2322807	WORD	n/a	n/a	SOAP	6	19	[0, 0, 0]	n/a	FR1	1	R1346T
2322.856	1.021	2324428	WORD_OFF	n/a	n/a	SOAP	6	19	[0, 0, 0]	n/a	FR1	1	R1346T
2323.877	1.63	2325449	WORD	n/a	n/a	CAT	7	19	[0, 0, 0]	n/a	FR1	1	R1346T
2325.507	0.996	2327079	WORD_OFF	n/a	n/a	CAT	7	19	[0, 0, 0]	n/a	FR1	1	R1346T
2326.503	1.638	2328075	WORD	n/a	n/a	SPRING	8	19	[0, 0, 0]	n/a	FR1	1	R1346T
2328.141	1.065	2329713	WORD_OFF	n/a	n/a	SPRING	8	19	[0, 0, 0]	n/a	FR1	1	R1346T
2329.206	1.635	2330778	WORD	n/a	n/a	STEM	9	19	[0, 0, 0]	n/a	FR1	1	R1346T
2330.841	0.792	2332413	WORD_OFF	n/a	n/a	STEM	9	19	[0, 0, 0]	n/a	FR1	1	R1346T
2331.633	1.625	2333205	WORD	n/a	n/a	CAVE	10	19	[0, 0, 0]	n/a	FR1	1	R1346T
2333.258	1.115	2334830	WORD_OFF	n/a	n/a	CAVE	10	19	[0, 0, 0]	n/a	FR1	1	R1346T
2334.373	1.636	2335944	WORD	n/a	n/a	BOARD	11	19	[0, 0, 0]	n/a	FR1	1	R1346T
2336.009	1.131	2337580	WORD_OFF	n/a	n/a	BOARD	11	19	[0, 0, 0]	n/a	FR1	1	R1346T
2337.14	1.637	2338711	WORD	n/a	n/a	PIN	12	19	[0, 0, 0]	n/a	FR1	1	R1346T
2338.777	0.0	2340348	ENCODING_END	n/a	n/a	n/a	-999	19	[0, 0, 0]	n/a	FR1	1	R1346T
2338.777	0.001	2340348	WORD_OFF	n/a	n/a	PIN	12	19	[0, 0, 0]	n/a	FR1	1	R1346T
2338.778	0.0	2340349	DISTRACT_START	n/a	n/a	n/a	-999	19	[0, 0, 0]	n/a	FR1	1	R1346T
2338.778	0.015	2340349	START	n/a	n/a	n/a	-999	19	[-999, -999, -999]	n/a	FR1	1	R1346T
2338.793	4.317	2340364	PROB	4.317	n/a	n/a	-999	19	[1, 1, 1]	3	FR1	1	R1346T
2343.11	5.551	2344681	PROB	5.551	n/a	n/a	-999	19	[1, 7, 3]	11	FR1	1	R1346T
2348.661	3.184	2350232	PROB	3.184	n/a	n/a	-999	19	[5, 5, 2]	12	FR1	1	R1346T
2351.845	8.416	2353416	PROB	8.416	n/a	n/a	-999	19	[3, 8, 3]	14	FR1	1	R1346T
2360.261	0.019	2361831	STOP	n/a	n/a	n/a	-999	19	[-999, -999, -999]	n/a	FR1	1	R1346T
2360.28	0.597	2361850	DISTRACT_END	n/a	n/a	n/a	-999	19	[0, 0, 0]	n/a	FR1	1	R1346T
2360.877	1.603	2362447	RETRIEVAL_ORIENT_START	n/a	n/a	n/a	-999	19	[0, 0, 0]	n/a	FR1	1	R1346T
2362.48	0.001	2364050	RETRIEVAL_ORIENT_END	n/a	n/a	n/a	-999	19	[0, 0, 0]	n/a	FR1	1	R1346T
2362.481	1.27	2364051	REC_START	n/a	n/a	n/a	-999	19	[0, 0, 0]	n/a	FR1	1	R1346T
2363.751	1.979	2365321	REC_WORD	1.979	n/a	PIN	12	19	[0, 0, 0]	n/a	FR1	1	R1346T
2365.73	3.281	2367300	REC_WORD	3.281	n/a	SNOW	4	19	[0, 0, 0]	n/a	FR1	1	R1346T
2369.011	1.699	2370581	REC_WORD	1.699	n/a	BRICK	1	19	[0, 0, 0]	n/a	FR1	1	R1346T
2370.71	4.331	2372280	REC_WORD	4.331	n/a	TENT	5	19	[0, 0, 0]	n/a	FR1	1	R1346T
2375.041	1.05	2376611	REC_WORD	1.05	n/a	SPRING	8	19	[0, 0, 0]	n/a	FR1	1	R1346T
2376.091	16.402	2377661	REC_WORD	16.402	n/a	CAT	7	19	[0, 0, 0]	n/a	FR1	1	R1346T
2392.493	0.0	2394062	REC_END	n/a	n/a	n/a	-999	19	[0, 0, 0]	n/a	FR1	1	R1346T
2392.493	0.015	2394062	TRIAL_END	n/a	n/a	n/a	-999	19	[0, 0, 0]	n/a	FR1	1	R1346T
2392.508	0.001	2394077	TRIAL_START	n/a	n/a	n/a	-999	20	[0, 0, 0]	n/a	FR1	1	R1346T
2392.509	0.0	2394078	TRIAL	n/a	n/a	n/a	-999	20	[0, 0, 0]	n/a	FR1	1	R1346T
2392.509	4.928	2394078	WAITING_START	n/a	n/a	n/a	-999	20	[0, 0, 0]	n/a	FR1	1	R1346T
2397.437	0.0	2399006	COUNTDOWN_START	n/a	n/a	n/a	-999	20	[0, 0, 0]	n/a	FR1	1	R1346T
2397.437	10.429	2399006	WAITING_END	n/a	n/a	n/a	-999	20	[0, 0, 0]	n/a	FR1	1	R1346T
2407.866	0.0	2409434	COUNTDOWN_END	n/a	n/a	n/a	-999	20	[0, 0, 0]	n/a	FR1	1	R1346T
2407.866	1.206	2409434	ORIENT_START	n/a	n/a	n/a	-999	20	[0, 0, 0]	n/a	FR1	1	R1346T
2409.072	0.001	2410640	ORIENT_END	n/a	n/a	n/a	-999	20	[0, 0, 0]	n/a	FR1	1	R1346T
2409.073	0.765	2410641	ENCODING_START	n/a	n/a	n/a	-999	20	[0, 0, 0]	n/a	FR1	1	R1346T
2409.838	1.634	2411406	WORD	n/a	n/a	FORK	1	20	[0, 0, 0]	n/a	FR1	1	R1346T
2411.472	1.065	2413040	WORD_OFF	n/a	n/a	FORK	1	20	[0, 0, 0]	n/a	FR1	1	R1346T
2412.537	1.636	2414105	WORD	n/a	n/a	COUCH	2	20	[0, 0, 0]	n/a	FR1	1	R1346T
2414.173	1.063	2415741	WORD_OFF	n/a	n/a	COUCH	2	20	[0, 0, 0]	n/a	FR1	1	R1346T
2415.236	1.621	2416804	WORD	n/a	n/a	SHIP	3	20	[0, 0, 0]	n/a	FR1	1	R1346T
2416.857	1.001	2418425	WORD_OFF	n/a	n/a	SHIP	3	20	[0, 0, 0]	n/a	FR1	1	R1346T
2417.858	1.633	2419426	WORD	n/a	n/a	OAK	4	20	[0, 0, 0]	n/a	FR1	1	R1346T
2419.491	0.887	2421059	WORD_OFF	n/a	n/a	OAK	4	20	[0, 0, 0]	n/a	FR1	1	R1346T
2420.378	1.63	2421946	WORD	n/a	n/a	FROG	5	20	[0, 0, 0]	n/a	FR1	1	R1346T
2422.008	0.833	2423576	WORD_OFF	n/a	n/a	FROG	5	20	[0, 0, 0]	n/a	FR1	1	R1346T
2422.841	1.634	2424409	WORD	n/a	n/a	HOOK	6	20	[0, 0, 0]	n/a	FR1	1	R1346T
2424.475	0.772	2426042	WORD_OFF	n/a	n/a	HOOK	6	20	[0, 0, 0]	n/a	FR1	1	R1346T
2425.247	1.628	2426814	WORD	n/a	n/a	BREAD	7	20	[0, 0, 0]	n/a	FR1	1	R1346T
2426.875	0.995	2428442	WORD_OFF	n/a	n/a	BREAD	7	20	[0, 0, 0]	n/a	FR1	1	R1346T
2427.87	1.622	2429437	WORD	n/a	n/a	PLATE	8	20	[0, 0, 0]	n/a	FR1	1	R1346T
2429.492	0.982	2431059	WORD_OFF	n/a	n/a	PLATE	8	20	[0, 0, 0]	n/a	FR1	1	R1346T
2430.474	1.635	2432041	WORD	n/a	n/a	DITCH	9	20	[0, 0, 0]	n/a	FR1	1	R1346T
2432.109	0.755	2433676	WORD_OFF	n/a	n/a	DITCH	9	20	[0, 0, 0]	n/a	FR1	1	R1346T
2432.864	1.629	2434431	WORD	n/a	n/a	FLUTE	10	20	[0, 0, 0]	n/a	FR1	1	R1346T
2434.493	0.839	2436060	WORD_OFF	n/a	n/a	FLUTE	10	20	[0, 0, 0]	n/a	FR1	1	R1346T
2435.332	1.628	2436899	WORD	n/a	n/a	SHRIMP	11	20	[0, 0, 0]	n/a	FR1	1	R1346T
2436.96	1.049	2438527	WORD_OFF	n/a	n/a	SHRIMP	11	20	[0, 0, 0]	n/a	FR1	1	R1346T
2438.009	1.635	2439576	WORD	n/a	n/a	SLUSH	12	20	[0, 0, 0]	n/a	FR1	1	R1346T
2439.644	0.001	2441211	WORD_OFF	n/a	n/a	SLUSH	12	20	[0, 0, 0]	n/a	FR1	1	R1346T
2439.645	0.0	2441212	ENCODING_END	n/a	n/a	n/a	-999	20	[0, 0, 0]	n/a	FR1	1	R1346T
2439.645	0.0	2441212	DISTRACT_START	n/a	n/a	n/a	-999	20	[0, 0, 0]	n/a	FR1	1	R1346T
2439.645	0.016	2441212	START	n/a	n/a	n/a	-999	20	[-999, -999, -999]	n/a	FR1	1	R1346T
2439.661	4.667	2441228	PROB	4.667	n/a	n/a	-999	20	[4, 4, 2]	10	FR1	1	R1346T
2444.328	5.134	2445895	PROB	5.134	n/a	n/a	-999	20	[4, 4, 5]	13	FR1	1	R1346T
2449.462	4.635	2451028	PROB	4.635	n/a	n/a	-999	20	[4, 1, 8]	13	FR1	1	R1346T
2454.097	6.865	2455663	PROB	6.865	n/a	n/a	-999	20	[6, 9, 2]	17	FR1	1	R1346T
2460.962	0.019	2462528	STOP	n/a	n/a	n/a	-999	20	[-999, -999, -999]	n/a	FR1	1	R1346T
2460.981	0.648	2462547	DISTRACT_END	n/a	n/a	n/a	-999	20	[0, 0, 0]	n/a	FR1	1	R1346T
2461.629	1.653	2463195	RETRIEVAL_ORIENT_START	n/a	n/a	n/a	-999	20	[0, 0, 0]	n/a	FR1	1	R1346T
2463.282	0.0	2464848	RETRIEVAL_ORIENT_END	n/a	n/a	n/a	-999	20	[0, 0, 0]	n/a	FR1	1	R1346T
2463.282	4.485	2464848	REC_START	n/a	n/a	n/a	-999	20	[0, 0, 0]	n/a	FR1	1	R1346T
2467.767	5.607	2469333	REC_WORD	5.607	n/a	SHRIMP	11	20	[0, 0, 0]	n/a	FR1	1	R1346T
2473.374	2.154	2474939	REC_WORD	2.154	n/a	SHIP	3	20	[0, 0, 0]	n/a	FR1	1	R1346T
2475.528	3.307	2477093	REC_WORD	3.307	n/a	DITCH	9	20	[0, 0, 0]	n/a	FR1	1	R1346T
2478.835	1.906	2480400	REC_WORD	1.906	n/a	PLATE	8	20	[0, 0, 0]	n/a	FR1	1	R1346T
2480.741	5.245	2482306	REC_WORD	5.245	n/a	HOOK	6	20	[0, 0, 0]	n/a	FR1	1	R1346T
2485.986	7.307	2487551	REC_WORD	7.307	n/a	SLUSH	12	20	[0, 0, 0]	n/a	FR1	1	R1346T
2493.293	0.001	2494857	REC_END	n/a	n/a	n/a	-999	20	[0, 0, 0]	n/a	FR1	1	R1346T
2493.294	0.014	2494858	TRIAL_END	n/a	n/a	n/a	-999	20	[0, 0, 0]	n/a	FR1	1	R1346T
2493.308	0.0	2494872	TRIAL	n/a	n/a	n/a	-999	21	[0, 0, 0]	n/a	FR1	1	R1346T
2493.308	0.0	2494872	WAITING_START	n/a	n/a	n/a	-999	21	[0, 0, 0]	n/a	FR1	1	R1346T
2493.308	5.597	2494872	TRIAL_START	n/a	n/a	n/a	-999	21	[0, 0, 0]	n/a	FR1	1	R1346T
2498.905	0.001	2500469	WAITING_END	n/a	n/a	n/a	-999	21	[0, 0, 0]	n/a	FR1	1	R1346T
2498.906	10.428	2500470	COUNTDOWN_START	n/a	n/a	n/a	-999	21	[0, 0, 0]	n/a	FR1	1	R1346T
2509.334	0.001	2510898	COUNTDOWN_END	n/a	n/a	n/a	-999	21	[0, 0, 0]	n/a	FR1	1	R1346T
2509.335	1.189	2510899	ORIENT_START	n/a	n/a	n/a	-999	21	[0, 0, 0]	n/a	FR1	1	R1346T
2510.524	0.0	2512088	ORIENT_END	n/a	n/a	n/a	-999	21	[0, 0, 0]	n/a	FR1	1	R1346T
2510.524	1.077	2512088	ENCODING_START	n/a	n/a	n/a	-999	21	[0, 0, 0]	n/a	FR1	1	R1346T
2511.601	1.623	2513165	WORD	n/a	n/a	BOMB	1	21	[0, 0, 0]	n/a	FR1	1	R1346T
2513.224	0.866	2514788	WORD_OFF	n/a	n/a	BOMB	1	21	[0, 0, 0]	n/a	FR1	1	R1346T
2514.09	1.635	2515654	WORD	n/a	n/a	COW	2	21	[0, 0, 0]	n/a	FR1	1	R1346T
2515.725	0.841	2517288	WORD_OFF	n/a	n/a	COW	2	21	[0, 0, 0]	n/a	FR1	1	R1346T
2516.566	1.626	2518129	WORD	n/a	n/a	DIME	3	21	[0, 0, 0]	n/a	FR1	1	R1346T
2518.192	0.784	2519755	WORD_OFF	n/a	n/a	DIME	3	21	[0, 0, 0]	n/a	FR1	1	R1346T
2518.976	1.633	2520539	WORD	n/a	n/a	BOY	4	21	[0, 0, 0]	n/a	FR1	1	R1346T
2520.609	0.907	2522172	WORD_OFF	n/a	n/a	BOY	4	21	[0, 0, 0]	n/a	FR1	1	R1346T
2521.516	1.627	2523079	WORD	n/a	n/a	DOCK	5	21	[0, 0, 0]	n/a	FR1	1	R1346T
2523.143	0.835	2524706	WORD_OFF	n/a	n/a	DOCK	5	21	[0, 0, 0]	n/a	FR1	1	R1346T
2523.978	1.632	2525541	WORD	n/a	n/a	SPOON	6	21	[0, 0, 0]	n/a	FR1	1	R1346T
2525.61	0.773	2527173	WORD_OFF	n/a	n/a	SPOON	6	21	[0, 0, 0]	n/a	FR1	1	R1346T
2526.383	1.627	2527946	WORD	n/a	n/a	POLE	7	21	[0, 0, 0]	n/a	FR1	1	R1346T
2528.01	1.058	2529573	WORD_OFF	n/a	n/a	POLE	7	21	[0, 0, 0]	n/a	FR1	1	R1346T
2529.068	1.626	2530631	WORD	n/a	n/a	WORM	8	21	[0, 0, 0]	n/a	FR1	1	R1346T
2530.694	0.757	2532257	WORD_OFF	n/a	n/a	WORM	8	21	[0, 0, 0]	n/a	FR1	1	R1346T
2531.451	1.627	2533014	WORD	n/a	n/a	MOLE	9	21	[0, 0, 0]	n/a	FR1	1	R1346T
2533.078	0.82	2534641	WORD_OFF	n/a	n/a	MOLE	9	21	[0, 0, 0]	n/a	FR1	1	R1346T
2533.898	1.63	2535461	WORD	n/a	n/a	TRAIN	10	21	[0, 0, 0]	n/a	FR1	1	R1346T
2535.528	0.916	2537091	WORD_OFF	n/a	n/a	TRAIN	10	21	[0, 0, 0]	n/a	FR1	1	R1346T
2536.444	1.635	2538007	WORD	n/a	n/a	FLEA	11	21	[0, 0, 0]	n/a	FR1	1	R1346T
2538.079	0.898	2539641	WORD_OFF	n/a	n/a	FLEA	11	21	[0, 0, 0]	n/a	FR1	1	R1346T
2538.977	1.635	2540539	WORD	n/a	n/a	STAIR	12	21	[0, 0, 0]	n/a	FR1	1	R1346T
2540.612	0.001	2542174	WORD_OFF	n/a	n/a	STAIR	12	21	[0, 0, 0]	n/a	FR1	1	R1346T
2540.613	0.0	2542175	ENCODING_END	n/a	n/a	n/a	-999	21	[0, 0, 0]	n/a	FR1	1	R1346T
2540.613	0.0	2542175	DISTRACT_START	n/a	n/a	n/a	-999	21	[0, 0, 0]	n/a	FR1	1	R1346T
2540.613	0.016	2542175	START	n/a	n/a	n/a	-999	21	[-999, -999, -999]	n/a	FR1	1	R1346T
2540.629	8.602	2542191	PROB	8.602	n/a	n/a	-999	21	[2, 1, 6]	9	FR1	1	R1346T
2549.231	4.25	2550793	PROB	4.25	n/a	n/a	-999	21	[6, 7, 3]	16	FR1	1	R1346T
2553.481	7.404	2555043	PROB	7.404	n/a	n/a	-999	21	[9, 8, 5]	21	FR1	1	R1346T
2560.885	0.015	2562446	STOP	n/a	n/a	n/a	-999	21	[-999, -999, -999]	n/a	FR1	1	R1346T
2560.9	0.676	2562461	DISTRACT_END	n/a	n/a	n/a	-999	21	[0, 0, 0]	n/a	FR1	1	R1346T
2561.576	1.641	2563137	RETRIEVAL_ORIENT_START	n/a	n/a	n/a	-999	21	[0, 0, 0]	n/a	FR1	1	R1346T
2563.217	0.0	2564778	REC_START	n/a	n/a	n/a	-999	21	[0, 0, 0]	n/a	FR1	1	R1346T
2563.217	10.568	2564778	RETRIEVAL_ORIENT_END	n/a	n/a	n/a	-999	21	[0, 0, 0]	n/a	FR1	1	R1346T
2573.785	19.443	2575346	REC_WORD	19.443	n/a	SPOON	6	21	[0, 0, 0]	n/a	FR1	1	R1346T
2593.228	0.001	2594788	REC_END	n/a	n/a	n/a	-999	21	[0, 0, 0]	n/a	FR1	1	R1346T
2593.229	0.014	2594789	TRIAL_END	n/a	n/a	n/a	-999	21	[0, 0, 0]	n/a	FR1	1	R1346T
2593.243	0.0	2594803	TRIAL_START	n/a	n/a	n/a	-999	22	[0, 0, 0]	n/a	FR1	1	R1346T
2593.243	0.0	2594803	TRIAL	n/a	n/a	n/a	-999	22	[0, 0, 0]	n/a	FR1	1	R1346T
2593.243	8.097	2594803	WAITING_START	n/a	n/a	n/a	-999	22	[0, 0, 0]	n/a	FR1	1	R1346T
2601.34	0.001	2602900	WAITING_END	n/a	n/a	n/a	-999	22	[0, 0, 0]	n/a	FR1	1	R1346T
2601.341	10.428	2602901	COUNTDOWN_START	n/a	n/a	n/a	-999	22	[0, 0, 0]	n/a	FR1	1	R1346T
2611.769	0.001	2613328	COUNTDOWN_END	n/a	n/a	n/a	-999	22	[0, 0, 0]	n/a	FR1	1	R1346T
2611.77	1.122	2613329	ORIENT_START	n/a	n/a	n/a	-999	22	[0, 0, 0]	n/a	FR1	1	R1346T
2612.892	0.001	2614451	ORIENT_END	n/a	n/a	n/a	-999	22	[0, 0, 0]	n/a	FR1	1	R1346T
2612.893	1.027	2614452	ENCODING_START	n/a	n/a	n/a	-999	22	[0, 0, 0]	n/a	FR1	1	R1346T
2613.92	1.623	2615479	WORD	n/a	n/a	TOE	1	22	[0, 0, 0]	n/a	FR1	1	R1346T
2615.543	1.131	2617102	WORD_OFF	n/a	n/a	TOE	1	22	[0, 0, 0]	n/a	FR1	1	R1346T
2616.674	1.636	2618233	WORD	n/a	n/a	WOLF	2	22	[0, 0, 0]	n/a	FR1	1	R1346T
2618.31	0.933	2619869	WORD_OFF	n/a	n/a	WOLF	2	22	[0, 0, 0]	n/a	FR1	1	R1346T
2619.243	1.634	2620802	WORD	n/a	n/a	FENCE	3	22	[0, 0, 0]	n/a	FR1	1	R1346T
2620.877	1.016	2622436	WORD_OFF	n/a	n/a	FENCE	3	22	[0, 0, 0]	n/a	FR1	1	R1346T
2621.893	1.635	2623452	WORD	n/a	n/a	PLANE	4	22	[0, 0, 0]	n/a	FR1	1	R1346T
2623.528	0.767	2625087	WORD_OFF	n/a	n/a	PLANE	4	22	[0, 0, 0]	n/a	FR1	1	R1346T
2624.295	1.633	2625854	WORD	n/a	n/a	CAPE	5	22	[0, 0, 0]	n/a	FR1	1	R1346T
2625.928	1.138	2627487	WORD_OFF	n/a	n/a	CAPE	5	22	[0, 0, 0]	n/a	FR1	1	R1346T
2627.066	1.629	2628625	WORD	n/a	n/a	PET	6	22	[0, 0, 0]	n/a	FR1	1	R1346T
2628.695	0.908	2630253	WORD_OFF	n/a	n/a	PET	6	22	[0, 0, 0]	n/a	FR1	1	R1346T
2629.603	1.626	2631161	WORD	n/a	n/a	PIE	7	22	[0, 0, 0]	n/a	FR1	1	R1346T
2631.229	1.029	2632787	WORD_OFF	n/a	n/a	PIE	7	22	[0, 0, 0]	n/a	FR1	1	R1346T
2632.258	1.638	2633816	WORD	n/a	n/a	PLANT	8	22	[0, 0, 0]	n/a	FR1	1	R1346T
2633.896	0.791	2635454	WORD_OFF	n/a	n/a	PLANT	8	22	[0, 0, 0]	n/a	FR1	1	R1346T
2634.687	1.626	2636245	WORD	n/a	n/a	CLOWN	9	22	[0, 0, 0]	n/a	FR1	1	R1346T
2636.313	1.102	2637871	WORD_OFF	n/a	n/a	CLOWN	9	22	[0, 0, 0]	n/a	FR1	1	R1346T
2637.415	1.632	2638973	WORD	n/a	n/a	ROPE	10	22	[0, 0, 0]	n/a	FR1	1	R1346T
2639.047	0.914	2640605	WORD_OFF	n/a	n/a	ROPE	10	22	[0, 0, 0]	n/a	FR1	1	R1346T
2639.961	1.637	2641519	WORD	n/a	n/a	SOCK	11	22	[0, 0, 0]	n/a	FR1	1	R1346T
2641.598	1.088	2643156	WORD_OFF	n/a	n/a	SOCK	11	22	[0, 0, 0]	n/a	FR1	1	R1346T
2642.686	1.629	2644244	WORD	n/a	n/a	PALM	12	22	[0, 0, 0]	n/a	FR1	1	R1346T
2644.315	0.0	2645873	ENCODING_END	n/a	n/a	n/a	-999	22	[0, 0, 0]	n/a	FR1	1	R1346T
2644.315	0.0	2645873	DISTRACT_START	n/a	n/a	n/a	-999	22	[0, 0, 0]	n/a	FR1	1	R1346T
2644.315	0.001	2645873	WORD_OFF	n/a	n/a	PALM	12	22	[0, 0, 0]	n/a	FR1	1	R1346T
2644.316	0.015	2645874	START	n/a	n/a	n/a	-999	22	[-999, -999, -999]	n/a	FR1	1	R1346T
2644.331	18.203	2645889	PROB	18.203	n/a	n/a	-999	22	[6, 9, 6]	21	FR1	1	R1346T
2662.534	5.119	2664091	PROB	5.119	n/a	n/a	-999	22	[7, 2, 3]	12	FR1	1	R1346T
2667.653	0.016	2669210	STOP	n/a	n/a	n/a	-999	22	[-999, -999, -999]	n/a	FR1	1	R1346T
2667.669	0.687	2669226	DISTRACT_END	n/a	n/a	n/a	-999	22	[0, 0, 0]	n/a	FR1	1	R1346T
2668.356	1.613	2669913	RETRIEVAL_ORIENT_START	n/a	n/a	n/a	-999	22	[0, 0, 0]	n/a	FR1	1	R1346T
2669.969	0.0	2671526	RETRIEVAL_ORIENT_END	n/a	n/a	n/a	-999	22	[0, 0, 0]	n/a	FR1	1	R1346T
2669.969	2.741	2671526	REC_START	n/a	n/a	n/a	-999	22	[0, 0, 0]	n/a	FR1	1	R1346T
2672.71	1.603	2674267	REC_WORD	1.603	n/a	PET	6	22	[0, 0, 0]	n/a	FR1	1	R1346T
2674.313	3.72	2675869	REC_WORD	3.72	n/a	PLANE	4	22	[0, 0, 0]	n/a	FR1	1	R1346T
2678.033	2.09	2679589	REC_WORD	2.09	n/a	CLOWN	9	22	[0, 0, 0]	n/a	FR1	1	R1346T
2680.123	19.858	2681679	REC_WORD	19.858	n/a	PIE	7	22	[0, 0, 0]	n/a	FR1	1	R1346T
2699.981	0.0	2701536	REC_END	n/a	n/a	n/a	-999	22	[0, 0, 0]	n/a	FR1	1	R1346T
2699.981	0.016	2701536	TRIAL_END	n/a	n/a	n/a	-999	22	[0, 0, 0]	n/a	FR1	1	R1346T
2699.997	0.0	2701552	TRIAL_START	n/a	n/a	n/a	-999	23	[0, 0, 0]	n/a	FR1	1	R1346T
2699.997	0.0	2701552	TRIAL	n/a	n/a	n/a	-999	23	[0, 0, 0]	n/a	FR1	1	R1346T
2699.997	4.045	2701552	WAITING_START	n/a	n/a	n/a	-999	23	[0, 0, 0]	n/a	FR1	1	R1346T
2704.042	0.0	2705597	WAITING_END	n/a	n/a	n/a	-999	23	[0, 0, 0]	n/a	FR1	1	R1346T
2704.042	10.429	2705597	COUNTDOWN_START	n/a	n/a	n/a	-999	23	[0, 0, 0]	n/a	FR1	1	R1346T
2714.471	0.001	2716026	COUNTDOWN_END	n/a	n/a	n/a	-999	23	[0, 0, 0]	n/a	FR1	1	R1346T
2714.472	1.139	2716027	ORIENT_START	n/a	n/a	n/a	-999	23	[0, 0, 0]	n/a	FR1	1	R1346T
2715.611	0.0	2717166	ORIENT_END	n/a	n/a	n/a	-999	23	[0, 0, 0]	n/a	FR1	1	R1346T
2715.611	1.028	2717166	ENCODING_START	n/a	n/a	n/a	-999	23	[0, 0, 0]	n/a	FR1	1	R1346T
2716.639	1.622	2718194	WORD	n/a	n/a	HEART	1	23	[0, 0, 0]	n/a	FR1	1	R1346T
2718.261	0.968	2719816	WORD_OFF	n/a	n/a	HEART	1	23	[0, 0, 0]	n/a	FR1	1	R1346T
2719.229	1.633	2720783	WORD	n/a	n/a	SAIL	2	23	[0, 0, 0]	n/a	FR1	1	R1346T
2720.862	0.817	2722416	WORD_OFF	n/a	n/a	SAIL	2	23	[0, 0, 0]	n/a	FR1	1	R1346T
2721.679	1.633	2723233	WORD	n/a	n/a	TANK	3	23	[0, 0, 0]	n/a	FR1	1	R1346T
2723.312	0.884	2724866	WORD_OFF	n/a	n/a	TANK	3	23	[0, 0, 0]	n/a	FR1	1	R1346T
2724.196	1.633	2725750	WORD	n/a	n/a	RAT	4	23	[0, 0, 0]	n/a	FR1	1	R1346T
2725.829	1.001	2727383	WORD_OFF	n/a	n/a	RAT	4	23	[0, 0, 0]	n/a	FR1	1	R1346T
2726.83	1.633	2728384	WORD	n/a	n/a	BLOOM	5	23	[0, 0, 0]	n/a	FR1	1	R1346T
2728.463	1.007	2730017	WORD_OFF	n/a	n/a	BLOOM	5	23	[0, 0, 0]	n/a	FR1	1	R1346T
2729.47	1.627	2731024	WORD	n/a	n/a	TOOTH	6	23	[0, 0, 0]	n/a	FR1	1	R1346T
2731.097	1.143	2732651	WORD_OFF	n/a	n/a	TOOTH	6	23	[0, 0, 0]	n/a	FR1	1	R1346T
2732.24	1.624	2733794	WORD	n/a	n/a	STOVE	7	23	[0, 0, 0]	n/a	FR1	1	R1346T
2733.864	1.087	2735418	WORD_OFF	n/a	n/a	STOVE	7	23	[0, 0, 0]	n/a	FR1	1	R1346T
2734.951	1.63	2736505	WORD	n/a	n/a	CLAY	8	23	[0, 0, 0]	n/a	FR1	1	R1346T
2736.581	0.796	2738135	WORD_OFF	n/a	n/a	CLAY	8	23	[0, 0, 0]	n/a	FR1	1	R1346T
2737.377	1.621	2738931	WORD	n/a	n/a	CROW	9	23	[0, 0, 0]	n/a	FR1	1	R1346T
2738.998	1.076	2740552	WORD_OFF	n/a	n/a	CROW	9	23	[0, 0, 0]	n/a	FR1	1	R1346T
2740.074	1.625	2741628	WORD	n/a	n/a	SOUP	10	23	[0, 0, 0]	n/a	FR1	1	R1346T
2741.699	0.897	2743252	WORD_OFF	n/a	n/a	SOUP	10	23	[0, 0, 0]	n/a	FR1	1	R1346T
2742.596	1.637	2744149	WORD	n/a	n/a	JET	11	23	[0, 0, 0]	n/a	FR1	1	R1346T
2744.233	1.049	2745786	WORD_OFF	n/a	n/a	JET	11	23	[0, 0, 0]	n/a	FR1	1	R1346T
2745.282	1.635	2746835	WORD	n/a	n/a	KITE	12	23	[0, 0, 0]	n/a	FR1	1	R1346T
2746.917	0.0	2748470	ENCODING_END	n/a	n/a	n/a	-999	23	[0, 0, 0]	n/a	FR1	1	R1346T
2746.917	0.0	2748470	DISTRACT_START	n/a	n/a	n/a	-999	23	[0, 0, 0]	n/a	FR1	1	R1346T
2746.917	0.001	2748470	WORD_OFF	n/a	n/a	KITE	12	23	[0, 0, 0]	n/a	FR1	1	R1346T
2746.918	0.015	2748471	START	n/a	n/a	n/a	-999	23	[-999, -999, -999]	n/a	FR1	1	R1346T
2746.933	11.152	2748486	PROB	11.152	n/a	n/a	-999	23	[9, 7, 4]	20	FR1	1	R1346T
2758.085	4.234	2759638	PROB	4.234	n/a	n/a	-999	23	[4, 1, 5]	10	FR1	1	R1346T
2762.319	15.927	2763872	PROB	15.927	n/a	n/a	-999	23	[7, 9, 6]	22	FR1	1	R1346T
2778.246	0.01	2779798	STOP	n/a	n/a	n/a	-999	23	[-999, -999, -999]	n/a	FR1	1	R1346T
2778.256	0.635	2779808	DISTRACT_END	n/a	n/a	n/a	-999	23	[0, 0, 0]	n/a	FR1	1	R1346T
2778.891	1.615	2780443	RETRIEVAL_ORIENT_START	n/a	n/a	n/a	-999	23	[0, 0, 0]	n/a	FR1	1	R1346T
2780.506	0.0	2782058	RETRIEVAL_ORIENT_END	n/a	n/a	n/a	-999	23	[0, 0, 0]	n/a	FR1	1	R1346T
2780.506	8.709	2782058	REC_START	n/a	n/a	n/a	-999	23	[0, 0, 0]	n/a	FR1	1	R1346T
2789.215	4.711	2790766	REC_WORD	4.711	n/a	CLAIM	-999	23	[0, 0, 0]	n/a	FR1	1	R1346T
2793.926	7.804	2795477	REC_WORD	7.804	n/a	CROWN	-999	23	[0, 0, 0]	n/a	FR1	1	R1346T
2801.73	2.799	2803281	REC_WORD	2.799	n/a	HEART	1	23	[0, 0, 0]	n/a	FR1	1	R1346T
2804.529	5.989	2806080	REC_WORD	5.989	n/a	TOOTH	6	23	[0, 0, 0]	n/a	FR1	1	R1346T
2810.518	0.0	2812068	TRIAL_END	n/a	n/a	n/a	-999	23	[0, 0, 0]	n/a	FR1	1	R1346T
2810.518	0.014	2812068	REC_END	n/a	n/a	n/a	-999	23	[0, 0, 0]	n/a	FR1	1	R1346T
2810.532	0.0	2812082	TRIAL_START	n/a	n/a	n/a	-999	24	[0, 0, 0]	n/a	FR1	1	R1346T
2810.532	0.001	2812082	TRIAL	n/a	n/a	n/a	-999	24	[0, 0, 0]	n/a	FR1	1	R1346T
2810.533	7.363	2812083	WAITING_START	n/a	n/a	n/a	-999	24	[0, 0, 0]	n/a	FR1	1	R1346T
2817.896	0.0	2819446	WAITING_END	n/a	n/a	n/a	-999	24	[0, 0, 0]	n/a	FR1	1	R1346T
2817.896	10.43	2819446	COUNTDOWN_START	n/a	n/a	n/a	-999	24	[0, 0, 0]	n/a	FR1	1	R1346T
2828.326	0.001	2829876	COUNTDOWN_END	n/a	n/a	n/a	-999	24	[0, 0, 0]	n/a	FR1	1	R1346T
2828.327	1.054	2829877	ORIENT_START	n/a	n/a	n/a	-999	24	[0, 0, 0]	n/a	FR1	1	R1346T
2829.381	0.001	2830931	ORIENT_END	n/a	n/a	n/a	-999	24	[0, 0, 0]	n/a	FR1	1	R1346T
2829.382	0.886	2830932	ENCODING_START	n/a	n/a	n/a	-999	24	[0, 0, 0]	n/a	FR1	1	R1346T
2830.268	1.631	2831818	WORD	n/a	n/a	BEAK	1	24	[0, 0, 0]	n/a	FR1	1	R1346T
2831.899	0.856	2833448	WORD_OFF	n/a	n/a	BEAK	1	24	[0, 0, 0]	n/a	FR1	1	R1346T
2832.755	1.627	2834304	WORD	n/a	n/a	FORT	2	24	[0, 0, 0]	n/a	FR1	1	R1346T
2834.382	1.101	2835931	WORD_OFF	n/a	n/a	FORT	2	24	[0, 0, 0]	n/a	FR1	1	R1346T
2835.483	1.633	2837032	WORD	n/a	n/a	STOOL	3	24	[0, 0, 0]	n/a	FR1	1	R1346T
2837.116	0.753	2838665	WORD_OFF	n/a	n/a	STOOL	3	24	[0, 0, 0]	n/a	FR1	1	R1346T
2837.869	1.631	2839418	WORD	n/a	n/a	GUARD	4	24	[0, 0, 0]	n/a	FR1	1	R1346T
2839.5	0.93	2841049	WORD_OFF	n/a	n/a	GUARD	4	24	[0, 0, 0]	n/a	FR1	1	R1346T
2840.43	1.637	2841979	WORD	n/a	n/a	PIG	5	24	[0, 0, 0]	n/a	FR1	1	R1346T
2842.067	0.878	2843616	WORD_OFF	n/a	n/a	PIG	5	24	[0, 0, 0]	n/a	FR1	1	R1346T
2842.945	1.623	2844494	WORD	n/a	n/a	LAWN	6	24	[0, 0, 0]	n/a	FR1	1	R1346T
2844.568	0.996	2846117	WORD_OFF	n/a	n/a	LAWN	6	24	[0, 0, 0]	n/a	FR1	1	R1346T
2845.564	1.637	2847113	WORD	n/a	n/a	MAIL	7	24	[0, 0, 0]	n/a	FR1	1	R1346T
2847.201	0.789	2848750	WORD_OFF	n/a	n/a	MAIL	7	24	[0, 0, 0]	n/a	FR1	1	R1346T
2847.99	1.628	2849539	WORD	n/a	n/a	PURSE	8	24	[0, 0, 0]	n/a	FR1	1	R1346T
2849.618	0.762	2851167	WORD_OFF	n/a	n/a	PURSE	8	24	[0, 0, 0]	n/a	FR1	1	R1346T
2850.38	1.622	2851929	WORD	n/a	n/a	RIB	9	24	[0, 0, 0]	n/a	FR1	1	R1346T
2852.002	0.825	2853551	WORD_OFF	n/a	n/a	RIB	9	24	[0, 0, 0]	n/a	FR1	1	R1346T
2852.827	1.626	2854376	WORD	n/a	n/a	APE	10	24	[0, 0, 0]	n/a	FR1	1	R1346T
2854.453	0.913	2856001	WORD_OFF	n/a	n/a	APE	10	24	[0, 0, 0]	n/a	FR1	1	R1346T
2855.366	1.637	2856914	WORD	n/a	n/a	BEACH	11	24	[0, 0, 0]	n/a	FR1	1	R1346T
2857.003	0.946	2858551	WORD_OFF	n/a	n/a	BEACH	11	24	[0, 0, 0]	n/a	FR1	1	R1346T
2857.949	1.621	2859497	WORD	n/a	n/a	FOOT	12	24	[0, 0, 0]	n/a	FR1	1	R1346T
2859.57	0.001	2861118	WORD_OFF	n/a	n/a	FOOT	12	24	[0, 0, 0]	n/a	FR1	1	R1346T
2859.571	0.0	2861119	ENCODING_END	n/a	n/a	n/a	-999	24	[0, 0, 0]	n/a	FR1	1	R1346T
2859.571	0.0	2861119	DISTRACT_START	n/a	n/a	n/a	-999	24	[0, 0, 0]	n/a	FR1	1	R1346T
2859.571	0.016	2861119	START	n/a	n/a	n/a	-999	24	[-999, -999, -999]	n/a	FR1	1	R1346T
2859.587	3.784	2861135	PROB	3.784	n/a	n/a	-999	24	[7, 7, 7]	21	FR1	1	R1346T
2863.371	4.484	2864919	PROB	4.484	n/a	n/a	-999	24	[1, 1, 4]	6	FR1	1	R1346T
2867.855	3.167	2869403	PROB	3.167	n/a	n/a	-999	24	[2, 1, 5]	8	FR1	1	R1346T
2871.022	2.967	2872570	PROB	2.967	n/a	n/a	-999	24	[3, 2, 1]	6	FR1	1	R1346T
2873.989	6.239	2875537	PROB	6.239	n/a	n/a	-999	24	[9, 3, 6]	18	FR1	1	R1346T
2880.228	0.013	2881775	STOP	n/a	n/a	n/a	-999	24	[-999, -999, -999]	n/a	FR1	1	R1346T
2880.241	0.581	2881788	DISTRACT_END	n/a	n/a	n/a	-999	24	[0, 0, 0]	n/a	FR1	1	R1346T
2880.822	1.586	2882369	RETRIEVAL_ORIENT_START	n/a	n/a	n/a	-999	24	[0, 0, 0]	n/a	FR1	1	R1346T
2882.408	0.0	2883955	RETRIEVAL_ORIENT_END	n/a	n/a	n/a	-999	24	[0, 0, 0]	n/a	FR1	1	R1346T
2882.408	12.681	2883955	REC_START	n/a	n/a	n/a	-999	24	[0, 0, 0]	n/a	FR1	1	R1346T
2895.089	6.513	2896636	REC_WORD	6.513	n/a	APE	10	24	[0, 0, 0]	n/a	FR1	1	R1346T
2901.602	8.624	2903148	REC_WORD	8.624	n/a	STOOL	3	24	[0, 0, 0]	n/a	FR1	1	R1346T
2910.226	2.196	2911772	REC_WORD	2.196	n/a	FORT	2	24	[0, 0, 0]	n/a	FR1	1	R1346T
2912.422	0.0	2913968	REC_END	n/a	n/a	n/a	-999	24	[0, 0, 0]	n/a	FR1	1	R1346T
2912.422	0.014	2913968	TRIAL_END	n/a	n/a	n/a	-999	24	[0, 0, 0]	n/a	FR1	1	R1346T
2912.436	0.0	2913982	WAITING_START	n/a	n/a	n/a	-999	25	[0, 0, 0]	n/a	FR1	1	R1346T
2912.436	0.0	2913982	TRIAL_START	n/a	n/a	n/a	-999	25	[0, 0, 0]	n/a	FR1	1	R1346T
2912.436	12.163	2913982	TRIAL	n/a	n/a	n/a	-999	25	[0, 0, 0]	n/a	FR1	1	R1346T
2924.599	0.0	2926144	WAITING_END	n/a	n/a	n/a	-999	25	[0, 0, 0]	n/a	FR1	1	R1346T
2924.599	10.428	2926144	COUNTDOWN_START	n/a	n/a	n/a	-999	25	[0, 0, 0]	n/a	FR1	1	R1346T
2935.027	0.0	2936572	COUNTDOWN_END	n/a	n/a	n/a	-999	25	[0, 0, 0]	n/a	FR1	1	R1346T
2935.027	1.074	2936572	ORIENT_START	n/a	n/a	n/a	-999	25	[0, 0, 0]	n/a	FR1	1	R1346T
2936.101	0.0	2937646	ORIENT_END	n/a	n/a	n/a	-999	25	[0, 0, 0]	n/a	FR1	1	R1346T
2936.101	0.933	2937646	ENCODING_START	n/a	n/a	n/a	-999	25	[0, 0, 0]	n/a	FR1	1	R1346T
2937.034	1.634	2938579	WORD	n/a	n/a	MUG	1	25	[0, 0, 0]	n/a	FR1	1	R1346T
2938.668	0.903	2940213	WORD_OFF	n/a	n/a	MUG	1	25	[0, 0, 0]	n/a	FR1	1	R1346T
2939.571	1.631	2941116	WORD	n/a	n/a	PEA	2	25	[0, 0, 0]	n/a	FR1	1	R1346T
2941.202	1.056	2942747	WORD_OFF	n/a	n/a	PEA	2	25	[0, 0, 0]	n/a	FR1	1	R1346T
2942.258	1.628	2943803	WORD	n/a	n/a	POND	3	25	[0, 0, 0]	n/a	FR1	1	R1346T
2943.886	1.132	2945431	WORD_OFF	n/a	n/a	POND	3	25	[0, 0, 0]	n/a	FR1	1	R1346T
2945.018	1.635	2946562	WORD	n/a	n/a	DRESS	4	25	[0, 0, 0]	n/a	FR1	1	R1346T
2946.653	1.021	2948197	WORD_OFF	n/a	n/a	DRESS	4	25	[0, 0, 0]	n/a	FR1	1	R1346T
2947.674	1.629	2949218	WORD	n/a	n/a	FUDGE	5	25	[0, 0, 0]	n/a	FR1	1	R1346T
