onset	duration	sample	trial_type	response_time	stim_file	item_name	serialpos	list	test	answer	experiment	session	subject
0.0	147.347	16539	INSTRUCT_START	n/a	n/a	n/a	-999	-999	[0, 0, 0]	n/a	FR1	0	R1420T
147.347	41.999	163878	INSTRUCT_END	n/a	n/a	n/a	-999	-999	[0, 0, 0]	n/a	FR1	0	R1420T
189.346	10.385	205875	COUNTDOWN_START	n/a	n/a	n/a	-999	-999	[0, 0, 0]	n/a	FR1	0	R1420T
199.731	0.0	216255	COUNTDOWN_END	n/a	n/a	n/a	-999	-999	[0, 0, 0]	n/a	FR1	0	R1420T
199.731	2.016	216264	ENCODING_START	n/a	n/a	n/a	-999	-1	[0, 0, 0]	n/a	FR1	0	R1420T
201.747	1.6	218275	WORD	n/a	n/a	QUAIL	1	-1	[0, 0, 0]	n/a	FR1	0	R1420T
203.347	0.816	219872	WORD_OFF	n/a	n/a	QUAIL	1	-1	[0, 0, 0]	n/a	FR1	0	R1420T
204.163	1.601	220692	WORD	n/a	n/a	SHELL	2	-1	[0, 0, 0]	n/a	FR1	0	R1420T
205.764	1.0	222289	WORD_OFF	n/a	n/a	SHELL	2	-1	[0, 0, 0]	n/a	FR1	0	R1420T
206.764	1.617	223290	WORD	n/a	n/a	CLIFF	3	-1	[0, 0, 0]	n/a	FR1	0	R1420T
208.381	0.9	224904	WORD_OFF	n/a	n/a	CLIFF	3	-1	[0, 0, 0]	n/a	FR1	0	R1420T
209.281	1.616	225806	WORD	n/a	n/a	GIRL	4	-1	[0, 0, 0]	n/a	FR1	0	R1420T
210.897	0.784	227420	WORD_OFF	n/a	n/a	GIRL	4	-1	[0, 0, 0]	n/a	FR1	0	R1420T
211.681	1.6	228204	WORD	n/a	n/a	BOY	5	-1	[0, 0, 0]	n/a	FR1	0	R1420T
213.281	0.866	229810	WORD_OFF	n/a	n/a	BOY	5	-1	[0, 0, 0]	n/a	FR1	0	R1420T
214.147	1.616	230675	WORD	n/a	n/a	HEDGE	6	-1	[0, 0, 0]	n/a	FR1	0	R1420T
215.763	0.984	232290	WORD_OFF	n/a	n/a	HEDGE	6	-1	[0, 0, 0]	n/a	FR1	0	R1420T
216.747	1.617	233273	WORD	n/a	n/a	BRUSH	7	-1	[0, 0, 0]	n/a	FR1	0	R1420T
218.364	0.85	234887	WORD_OFF	n/a	n/a	BRUSH	7	-1	[0, 0, 0]	n/a	FR1	0	R1420T
219.214	1.617	235735	WORD	n/a	n/a	VINE	8	-1	[0, 0, 0]	n/a	FR1	0	R1420T
220.831	0.966	237358	WORD_OFF	n/a	n/a	VINE	8	-1	[0, 0, 0]	n/a	FR1	0	R1420T
221.797	1.6	238323	WORD	n/a	n/a	FAN	9	-1	[0, 0, 0]	n/a	FR1	0	R1420T
223.397	0.817	239919	WORD_OFF	n/a	n/a	FAN	9	-1	[0, 0, 0]	n/a	FR1	0	R1420T
224.214	1.6	240740	WORD	n/a	n/a	RIB	10	-1	[0, 0, 0]	n/a	FR1	0	R1420T
225.814	0.966	242336	WORD_OFF	n/a	n/a	RIB	10	-1	[0, 0, 0]	n/a	FR1	0	R1420T
226.78	1.601	243301	WORD	n/a	n/a	THIEF	11	-1	[0, 0, 0]	n/a	FR1	0	R1420T
228.381	0.816	244906	WORD_OFF	n/a	n/a	THIEF	11	-1	[0, 0, 0]	n/a	FR1	0	R1420T
229.197	1.619	245727	WORD	n/a	n/a	FRUIT	12	-1	[0, 0, 0]	n/a	FR1	0	R1420T
230.816	0.006	247340	PROB	0.006	n/a	n/a	-999	-1	[2, 2, 1]	5	FR1	0	R1420T
230.822	0.0	247346	START	n/a	n/a	n/a	-999	-1	[-999, -999, -999]	n/a	FR1	0	R1420T
230.814	0.008	247350	WORD_OFF	n/a	n/a	FRUIT	12	-1	[0, 0, 0]	n/a	FR1	0	R1420T
230.822	0.0	247350	ENCODING_END	n/a	n/a	n/a	-999	-1	[0, 0, 0]	n/a	FR1	0	R1420T
230.822	11.558	247350	DISTRACT_START	n/a	n/a	n/a	-999	-1	[0, 0, 0]	n/a	FR1	0	R1420T
242.38	10.0	258903	PROB	10.0	n/a	n/a	-999	-1	[4, 3, 5]	12	FR1	0	R1420T
252.38	0.0	268903	STOP	n/a	n/a	n/a	-999	-1	[-999, -999, -999]	n/a	FR1	0	R1420T
252.38	2.234	268904	DISTRACT_END	n/a	n/a	n/a	-999	-1	[0, 0, 0]	n/a	FR1	0	R1420T
254.614	6.077	271139	REC_START	n/a	n/a	n/a	-999	-1	[0, 0, 0]	n/a	FR1	0	R1420T
260.691	14.977	277214	REC_WORD_VV	14.977	n/a	<>	-999	-1	[0, 0, 0]	n/a	FR1	0	R1420T
275.668	0.778	292190	REC_WORD	0.778	n/a	BOY	5	-1	[0, 0, 0]	n/a	FR1	0	R1420T
276.446	2.611	292968	REC_WORD	2.611	n/a	GIRL	4	-1	[0, 0, 0]	n/a	FR1	0	R1420T
279.057	5.8	295579	REC_WORD	5.8	n/a	BRUSH	7	-1	[0, 0, 0]	n/a	FR1	0	R1420T
284.857	18.524	301378	REC_END	n/a	n/a	n/a	-999	-1	[0, 0, 0]	n/a	FR1	0	R1420T
303.381	10.35	319901	COUNTDOWN_START	n/a	n/a	n/a	-999	1	[0, 0, 0]	n/a	FR1	0	R1420T
313.731	0.0	330254	COUNTDOWN_END	n/a	n/a	n/a	-999	1	[0, 0, 0]	n/a	FR1	0	R1420T
313.731	1.866	330254	ENCODING_START	n/a	n/a	n/a	-999	1	[0, 0, 0]	n/a	FR1	0	R1420T
315.597	1.6	332121	WORD	n/a	wordpools/wordpool_long_EN.txt	SCOTCH	1	1	[0, 0, 0]	n/a	FR1	0	R1420T
317.197	0.967	333717	WORD_OFF	n/a	n/a	SCOTCH	1	1	[0, 0, 0]	n/a	FR1	0	R1420T
318.164	1.6	334682	WORD	n/a	wordpools/wordpool_long_EN.txt	CRIB	2	1	[0, 0, 0]	n/a	FR1	0	R1420T
319.764	0.9	336287	WORD_OFF	n/a	n/a	CRIB	2	1	[0, 0, 0]	n/a	FR1	0	R1420T
320.664	1.6	337180	WORD	n/a	wordpools/wordpool_long_EN.txt	BEEF	3	1	[0, 0, 0]	n/a	FR1	0	R1420T
322.264	0.917	338785	WORD_OFF	n/a	n/a	BEEF	3	1	[0, 0, 0]	n/a	FR1	0	R1420T
323.181	1.6	339705	WORD	n/a	wordpools/wordpool_long_EN.txt	BRIDGE	4	1	[0, 0, 0]	n/a	FR1	0	R1420T
324.781	0.833	341301	WORD_OFF	n/a	n/a	BRIDGE	4	1	[0, 0, 0]	n/a	FR1	0	R1420T
325.614	1.616	342131	WORD	n/a	wordpools/wordpool_long_EN.txt	STICK	5	1	[0, 0, 0]	n/a	FR1	0	R1420T
327.23	0.867	343754	WORD_OFF	n/a	n/a	STICK	5	1	[0, 0, 0]	n/a	FR1	0	R1420T
328.097	1.617	344620	WORD	n/a	wordpools/wordpool_long_EN.txt	GLASS	6	1	[0, 0, 0]	n/a	FR1	0	R1420T
329.714	0.766	346234	WORD_OFF	n/a	n/a	GLASS	6	1	[0, 0, 0]	n/a	FR1	0	R1420T
330.48	1.601	347001	WORD	n/a	wordpools/wordpool_long_EN.txt	CUP	7	1	[0, 0, 0]	n/a	FR1	0	R1420T
332.081	0.833	348597	WORD_OFF	n/a	n/a	CUP	7	1	[0, 0, 0]	n/a	FR1	0	R1420T
332.914	1.617	349436	WORD	n/a	wordpools/wordpool_long_EN.txt	STREET	8	1	[0, 0, 0]	n/a	FR1	0	R1420T
334.531	0.766	351050	WORD_OFF	n/a	n/a	STREET	8	1	[0, 0, 0]	n/a	FR1	0	R1420T
335.297	1.6	351817	WORD	n/a	wordpools/wordpool_long_EN.txt	BAND	9	1	[0, 0, 0]	n/a	FR1	0	R1420T
336.897	0.884	353413	WORD_OFF	n/a	n/a	BAND	9	1	[0, 0, 0]	n/a	FR1	0	R1420T
337.781	1.6	354297	WORD	n/a	wordpools/wordpool_long_EN.txt	INN	10	1	[0, 0, 0]	n/a	FR1	0	R1420T
339.381	0.816	355902	WORD_OFF	n/a	n/a	INN	10	1	[0, 0, 0]	n/a	FR1	0	R1420T
340.197	1.6	356714	WORD	n/a	wordpools/wordpool_long_EN.txt	NET	11	1	[0, 0, 0]	n/a	FR1	0	R1420T
341.797	0.984	358319	WORD_OFF	n/a	n/a	NET	11	1	[0, 0, 0]	n/a	FR1	0	R1420T
342.781	1.616	359302	WORD	n/a	wordpools/wordpool_long_EN.txt	ROPE	12	1	[0, 0, 0]	n/a	FR1	0	R1420T
344.397	0.002	360916	WORD_OFF	n/a	n/a	ROPE	12	1	[0, 0, 0]	n/a	FR1	0	R1420T
344.399	0.0	360916	ENCODING_END	n/a	n/a	n/a	-999	1	[0, 0, 0]	n/a	FR1	0	R1420T
344.399	0.0	360916	DISTRACT_START	n/a	n/a	n/a	-999	1	[0, 0, 0]	n/a	FR1	0	R1420T
344.398	0.001	360916	PROB	0.001	n/a	n/a	-999	1	[6, 8, 3]	17	FR1	0	R1420T
344.399	11.881	360917	START	n/a	n/a	n/a	-999	1	[-999, -999, -999]	n/a	FR1	0	R1420T
356.28	7.801	372798	PROB	7.801	n/a	n/a	-999	1	[2, 5, 8]	15	FR1	0	R1420T
364.081	9.715	380598	PROB	9.715	n/a	n/a	-999	1	[2, 7, 4]	13	FR1	0	R1420T
373.796	0.0	390313	STOP	n/a	n/a	n/a	-999	1	[-999, -999, -999]	n/a	FR1	0	R1420T
373.796	2.401	390315	DISTRACT_END	n/a	n/a	n/a	-999	1	[0, 0, 0]	n/a	FR1	0	R1420T
376.197	15.126	392713	REC_START	n/a	n/a	n/a	-999	1	[0, 0, 0]	n/a	FR1	0	R1420T
391.323	1.308	407839	REC_WORD_VV	1.308	n/a	<>	-999	1	[0, 0, 0]	n/a	FR1	0	R1420T
392.631	6.666	409147	REC_WORD	6.666	n/a	INN	10	1	[0, 0, 0]	n/a	FR1	0	R1420T
399.297	7.212	415812	REC_WORD	7.212	n/a	CLIFF	-999	1	[0, 0, 0]	n/a	FR1	0	R1420T
406.509	3.922	423024	REC_END	n/a	n/a	n/a	-999	1	[0, 0, 0]	n/a	FR1	0	R1420T
410.431	10.35	426947	COUNTDOWN_START	n/a	n/a	n/a	-999	2	[0, 0, 0]	n/a	FR1	0	R1420T
420.781	0.0	437300	COUNTDOWN_END	n/a	n/a	n/a	-999	2	[0, 0, 0]	n/a	FR1	0	R1420T
420.781	1.933	437300	ENCODING_START	n/a	n/a	n/a	-999	2	[0, 0, 0]	n/a	FR1	0	R1420T
422.714	1.6	439230	WORD	n/a	wordpools/wordpool_long_EN.txt	WHEEL	1	2	[0, 0, 0]	n/a	FR1	0	R1420T
424.314	0.967	440826	WORD_OFF	n/a	n/a	WHEEL	1	2	[0, 0, 0]	n/a	FR1	0	R1420T
425.281	1.616	441800	WORD	n/a	wordpools/wordpool_long_EN.txt	MAT	2	2	[0, 0, 0]	n/a	FR1	0	R1420T
426.897	0.884	443414	WORD_OFF	n/a	n/a	MAT	2	2	[0, 0, 0]	n/a	FR1	0	R1420T
427.781	1.616	444298	WORD	n/a	wordpools/wordpool_long_EN.txt	MAIL	3	2	[0, 0, 0]	n/a	FR1	0	R1420T
429.397	0.85	445912	WORD_OFF	n/a	n/a	MAIL	3	2	[0, 0, 0]	n/a	FR1	0	R1420T
430.247	1.6	446760	WORD	n/a	wordpools/wordpool_long_EN.txt	GRASS	4	2	[0, 0, 0]	n/a	FR1	0	R1420T
431.847	0.784	448365	WORD_OFF	n/a	n/a	GRASS	4	2	[0, 0, 0]	n/a	FR1	0	R1420T
432.631	1.616	449150	WORD	n/a	wordpools/wordpool_long_EN.txt	LAND	5	2	[0, 0, 0]	n/a	FR1	0	R1420T
434.247	1.0	450764	WORD_OFF	n/a	n/a	LAND	5	2	[0, 0, 0]	n/a	FR1	0	R1420T
435.247	1.617	451765	WORD	n/a	wordpools/wordpool_long_EN.txt	CHIEF	6	2	[0, 0, 0]	n/a	FR1	0	R1420T
436.864	1.0	453379	WORD_OFF	n/a	n/a	CHIEF	6	2	[0, 0, 0]	n/a	FR1	0	R1420T
437.864	1.6	454380	WORD	n/a	wordpools/wordpool_long_EN.txt	LEAF	7	2	[0, 0, 0]	n/a	FR1	0	R1420T
439.464	0.8	455977	WORD_OFF	n/a	n/a	LEAF	7	2	[0, 0, 0]	n/a	FR1	0	R1420T
440.264	1.616	456779	WORD	n/a	wordpools/wordpool_long_EN.txt	DOG	8	2	[0, 0, 0]	n/a	FR1	0	R1420T
441.88	0.8	458393	WORD_OFF	n/a	n/a	DOG	8	2	[0, 0, 0]	n/a	FR1	0	R1420T
442.68	1.6	459196	WORD	n/a	wordpools/wordpool_long_EN.txt	BEAN	9	2	[0, 0, 0]	n/a	FR1	0	R1420T
444.28	0.934	460792	WORD_OFF	n/a	n/a	BEAN	9	2	[0, 0, 0]	n/a	FR1	0	R1420T
445.214	1.616	461730	WORD	n/a	wordpools/wordpool_long_EN.txt	MOOSE	10	2	[0, 0, 0]	n/a	FR1	0	R1420T
446.83	0.884	463344	WORD_OFF	n/a	n/a	MOOSE	10	2	[0, 0, 0]	n/a	FR1	0	R1420T
447.714	1.616	464228	WORD	n/a	wordpools/wordpool_long_EN.txt	MOUSE	11	2	[0, 0, 0]	n/a	FR1	0	R1420T
449.33	0.95	465842	WORD_OFF	n/a	n/a	MOUSE	11	2	[0, 0, 0]	n/a	FR1	0	R1420T
450.28	1.601	466798	WORD	n/a	wordpools/wordpool_long_EN.txt	STRAW	12	2	[0, 0, 0]	n/a	FR1	0	R1420T
451.881	0.0	468394	PROB	0.0	n/a	n/a	-999	2	[4, 1, 4]	9	FR1	0	R1420T
451.88	0.002	468395	WORD_OFF	n/a	n/a	STRAW	12	2	[0, 0, 0]	n/a	FR1	0	R1420T
451.882	0.0	468395	ENCODING_END	n/a	n/a	n/a	-999	2	[0, 0, 0]	n/a	FR1	0	R1420T
451.882	0.0	468395	DISTRACT_START	n/a	n/a	n/a	-999	2	[0, 0, 0]	n/a	FR1	0	R1420T
451.882	6.465	468395	START	n/a	n/a	n/a	-999	2	[-999, -999, -999]	n/a	FR1	0	R1420T
458.347	6.699	474859	PROB	6.699	n/a	n/a	-999	2	[7, 2, 5]	13	FR1	0	R1420T
465.046	4.818	481558	PROB	4.818	n/a	n/a	-999	2	[5, 2, 7]	14	FR1	0	R1420T
469.864	5.901	486376	PROB	5.901	n/a	n/a	-999	2	[4, 6, 6]	16	FR1	0	R1420T
475.765	0.0	492275	DISTRACT_END	n/a	n/a	n/a	-999	2	[0, 0, 0]	n/a	FR1	0	R1420T
475.765	2.283	492276	STOP	n/a	n/a	n/a	-999	2	[-999, -999, -999]	n/a	FR1	0	R1420T
478.048	9.178	494564	REC_START	n/a	n/a	n/a	-999	2	[0, 0, 0]	n/a	FR1	0	R1420T
487.226	0.5	503737	REC_WORD_VV	0.5	n/a	<>	-999	2	[0, 0, 0]	n/a	FR1	0	R1420T
487.726	1.0	504237	REC_WORD_VV	1.0	n/a	<>	-999	2	[0, 0, 0]	n/a	FR1	0	R1420T
488.726	19.629	505237	REC_WORD_VV	19.629	n/a	<>	-999	2	[0, 0, 0]	n/a	FR1	0	R1420T
508.355	2.792	524866	REC_END	n/a	n/a	n/a	-999	2	[0, 0, 0]	n/a	FR1	0	R1420T
511.147	10.35	527662	COUNTDOWN_START	n/a	n/a	n/a	-999	3	[0, 0, 0]	n/a	FR1	0	R1420T
521.497	0.0	538006	COUNTDOWN_END	n/a	n/a	n/a	-999	3	[0, 0, 0]	n/a	FR1	0	R1420T
521.497	2.202	538006	ENCODING_START	n/a	n/a	n/a	-999	3	[0, 0, 0]	n/a	FR1	0	R1420T
523.699	1.615	540206	WORD	n/a	wordpools/wordpool_long_EN.txt	WAVE	1	3	[0, 0, 0]	n/a	FR1	0	R1420T
525.314	0.816	541821	WORD_OFF	n/a	n/a	WAVE	1	3	[0, 0, 0]	n/a	FR1	0	R1420T
526.13	1.617	542641	WORD	n/a	wordpools/wordpool_long_EN.txt	BROOM	2	3	[0, 0, 0]	n/a	FR1	0	R1420T
527.747	0.934	544255	WORD_OFF	n/a	n/a	BROOM	2	3	[0, 0, 0]	n/a	FR1	0	R1420T
528.681	1.616	545193	WORD	n/a	wordpools/wordpool_long_EN.txt	HOSE	3	3	[0, 0, 0]	n/a	FR1	0	R1420T
530.297	0.85	546808	WORD_OFF	n/a	n/a	HOSE	3	3	[0, 0, 0]	n/a	FR1	0	R1420T
531.147	1.616	547655	WORD	n/a	wordpools/wordpool_long_EN.txt	SPEAR	4	3	[0, 0, 0]	n/a	FR1	0	R1420T
532.763	0.936	549270	WORD_OFF	n/a	n/a	SPEAR	4	3	[0, 0, 0]	n/a	FR1	0	R1420T
533.699	1.615	550207	WORD	n/a	wordpools/wordpool_long_EN.txt	CASH	5	3	[0, 0, 0]	n/a	FR1	0	R1420T
535.314	0.933	551822	WORD_OFF	n/a	n/a	CASH	5	3	[0, 0, 0]	n/a	FR1	0	R1420T
536.247	1.617	552760	WORD	n/a	wordpools/wordpool_long_EN.txt	DIME	6	3	[0, 0, 0]	n/a	FR1	0	R1420T
537.864	0.966	554374	WORD_OFF	n/a	n/a	DIME	6	3	[0, 0, 0]	n/a	FR1	0	R1420T
538.83	1.6	555339	WORD	n/a	wordpools/wordpool_long_EN.txt	WORM	7	3	[0, 0, 0]	n/a	FR1	0	R1420T
540.43	0.85	556935	WORD_OFF	n/a	n/a	WORM	7	3	[0, 0, 0]	n/a	FR1	0	R1420T
541.28	1.6	557792	WORD	n/a	wordpools/wordpool_long_EN.txt	EEL	8	3	[0, 0, 0]	n/a	FR1	0	R1420T
542.88	0.966	559388	WORD_OFF	n/a	n/a	EEL	8	3	[0, 0, 0]	n/a	FR1	0	R1420T
543.846	1.6	560353	WORD	n/a	wordpools/wordpool_long_EN.txt	PRINCE	9	3	[0, 0, 0]	n/a	FR1	0	R1420T
545.446	0.917	561958	WORD_OFF	n/a	n/a	PRINCE	9	3	[0, 0, 0]	n/a	FR1	0	R1420T
546.363	1.6	562869	WORD	n/a	wordpools/wordpool_long_EN.txt	OAR	10	3	[0, 0, 0]	n/a	FR1	0	R1420T
547.963	0.884	564474	WORD_OFF	n/a	n/a	OAR	10	3	[0, 0, 0]	n/a	FR1	0	R1420T
548.847	1.6	565358	WORD	n/a	wordpools/wordpool_long_EN.txt	ROAD	11	3	[0, 0, 0]	n/a	FR1	0	R1420T
550.447	0.816	566954	WORD_OFF	n/a	n/a	ROAD	11	3	[0, 0, 0]	n/a	FR1	0	R1420T
551.263	1.618	567775	WORD	n/a	wordpools/wordpool_long_EN.txt	BOWL	12	3	[0, 0, 0]	n/a	FR1	0	R1420T
552.881	0.001	569388	PROB	0.001	n/a	n/a	-999	3	[3, 1, 3]	7	FR1	0	R1420T
552.882	0.0	569389	START	n/a	n/a	n/a	-999	3	[-999, -999, -999]	n/a	FR1	0	R1420T
552.88	0.001	569398	WORD_OFF	n/a	n/a	BOWL	12	3	[0, 0, 0]	n/a	FR1	0	R1420T
552.881	0.001	569398	ENCODING_END	n/a	n/a	n/a	-999	3	[0, 0, 0]	n/a	FR1	0	R1420T
552.882	5.582	569398	DISTRACT_START	n/a	n/a	n/a	-999	3	[0, 0, 0]	n/a	FR1	0	R1420T
558.464	4.151	574971	PROB	4.151	n/a	n/a	-999	3	[1, 3, 4]	8	FR1	0	R1420T
562.615	8.032	579122	PROB	8.032	n/a	n/a	-999	3	[5, 4, 5]	14	FR1	0	R1420T
570.647	4.784	587154	PROB	4.784	n/a	n/a	-999	3	[6, 4, 8]	18	FR1	0	R1420T
575.431	0.0	591935	DISTRACT_END	n/a	n/a	n/a	-999	3	[0, 0, 0]	n/a	FR1	0	R1420T
575.431	2.233	591937	STOP	n/a	n/a	n/a	-999	3	[-999, -999, -999]	n/a	FR1	0	R1420T
577.664	21.641	594170	REC_START	n/a	n/a	n/a	-999	3	[0, 0, 0]	n/a	FR1	0	R1420T
599.305	1.406	615810	REC_WORD	1.406	n/a	ROAD	11	3	[0, 0, 0]	n/a	FR1	0	R1420T
600.711	1.744	617216	REC_WORD	1.744	n/a	CASH	5	3	[0, 0, 0]	n/a	FR1	0	R1420T
602.455	5.521	618960	REC_WORD	5.521	n/a	HOSE	3	3	[0, 0, 0]	n/a	FR1	0	R1420T
607.976	4.121	624481	REC_END	n/a	n/a	n/a	-999	3	[0, 0, 0]	n/a	FR1	0	R1420T
612.097	10.351	628602	COUNTDOWN_START	n/a	n/a	n/a	-999	4	[0, 0, 0]	n/a	FR1	0	R1420T
622.448	0.0	638955	COUNTDOWN_END	n/a	n/a	n/a	-999	4	[0, 0, 0]	n/a	FR1	0	R1420T
622.448	2.266	638955	ENCODING_START	n/a	n/a	n/a	-999	4	[0, 0, 0]	n/a	FR1	0	R1420T
624.714	1.616	641219	WORD	n/a	wordpools/wordpool_long_EN.txt	ROCK	1	4	[0, 0, 0]	n/a	FR1	0	R1420T
626.33	0.917	642833	WORD_OFF	n/a	n/a	ROCK	1	4	[0, 0, 0]	n/a	FR1	0	R1420T
627.247	1.617	643753	WORD	n/a	wordpools/wordpool_long_EN.txt	SKI	2	4	[0, 0, 0]	n/a	FR1	0	R1420T
628.864	0.899	645367	WORD_OFF	n/a	n/a	SKI	2	4	[0, 0, 0]	n/a	FR1	0	R1420T
629.763	1.601	646269	WORD	n/a	wordpools/wordpool_long_EN.txt	SCARF	3	4	[0, 0, 0]	n/a	FR1	0	R1420T
631.364	0.799	647865	WORD_OFF	n/a	n/a	SCARF	3	4	[0, 0, 0]	n/a	FR1	0	R1420T
632.163	1.6	648668	WORD	n/a	wordpools/wordpool_long_EN.txt	BLUSH	4	4	[0, 0, 0]	n/a	FR1	0	R1420T
633.763	0.934	650264	WORD_OFF	n/a	n/a	BLUSH	4	4	[0, 0, 0]	n/a	FR1	0	R1420T
634.697	1.616	651202	WORD	n/a	wordpools/wordpool_long_EN.txt	SPONGE	5	4	[0, 0, 0]	n/a	FR1	0	R1420T
636.313	0.917	652816	WORD_OFF	n/a	n/a	SPONGE	5	4	[0, 0, 0]	n/a	FR1	0	R1420T
637.23	1.6	653736	WORD	n/a	wordpools/wordpool_long_EN.txt	SHARK	6	4	[0, 0, 0]	n/a	FR1	0	R1420T
638.83	0.967	655332	WORD_OFF	n/a	n/a	SHARK	6	4	[0, 0, 0]	n/a	FR1	0	R1420T
639.797	1.616	656297	WORD	n/a	wordpools/wordpool_long_EN.txt	TENT	7	4	[0, 0, 0]	n/a	FR1	0	R1420T
641.413	0.767	657921	WORD_OFF	n/a	n/a	TENT	7	4	[0, 0, 0]	n/a	FR1	0	R1420T
642.18	1.6	658687	WORD	n/a	wordpools/wordpool_long_EN.txt	LOCK	8	4	[0, 0, 0]	n/a	FR1	0	R1420T
643.78	0.866	660283	WORD_OFF	n/a	n/a	LOCK	8	4	[0, 0, 0]	n/a	FR1	0	R1420T
644.646	1.6	661149	WORD	n/a	wordpools/wordpool_long_EN.txt	SLOPE	9	4	[0, 0, 0]	n/a	FR1	0	R1420T
646.246	0.984	662754	WORD_OFF	n/a	n/a	SLOPE	9	4	[0, 0, 0]	n/a	FR1	0	R1420T
647.23	1.616	663737	WORD	n/a	wordpools/wordpool_long_EN.txt	STORE	10	4	[0, 0, 0]	n/a	FR1	0	R1420T
648.846	0.951	665352	WORD_OFF	n/a	n/a	STORE	10	4	[0, 0, 0]	n/a	FR1	0	R1420T
649.797	1.6	666298	WORD	n/a	wordpools/wordpool_long_EN.txt	BUG	11	4	[0, 0, 0]	n/a	FR1	0	R1420T
651.397	0.783	667904	WORD_OFF	n/a	n/a	BUG	11	4	[0, 0, 0]	n/a	FR1	0	R1420T
652.18	1.617	668679	WORD	n/a	wordpools/wordpool_long_EN.txt	STORM	12	4	[0, 0, 0]	n/a	FR1	0	R1420T
653.797	0.001	670299	PROB	0.001	n/a	n/a	-999	4	[1, 6, 7]	14	FR1	0	R1420T
653.798	0.0	670300	START	n/a	n/a	n/a	-999	4	[-999, -999, -999]	n/a	FR1	0	R1420T
653.797	0.001	670303	WORD_OFF	n/a	n/a	STORM	12	4	[0, 0, 0]	n/a	FR1	0	R1420T
653.798	0.0	670303	ENCODING_END	n/a	n/a	n/a	-999	4	[0, 0, 0]	n/a	FR1	0	R1420T
653.798	5.484	670303	DISTRACT_START	n/a	n/a	n/a	-999	4	[0, 0, 0]	n/a	FR1	0	R1420T
659.282	6.133	675784	PROB	6.133	n/a	n/a	-999	4	[6, 2, 2]	10	FR1	0	R1420T
665.415	4.616	681917	PROB	4.616	n/a	n/a	-999	4	[2, 2, 6]	10	FR1	0	R1420T
670.031	4.8	686532	PROB	4.8	n/a	n/a	-999	4	[1, 3, 6]	10	FR1	0	R1420T
674.831	0.0	691332	STOP	n/a	n/a	n/a	-999	4	[-999, -999, -999]	n/a	FR1	0	R1420T
674.831	2.15	691333	DISTRACT_END	n/a	n/a	n/a	-999	4	[0, 0, 0]	n/a	FR1	0	R1420T
676.981	11.014	693487	REC_START	n/a	n/a	n/a	-999	4	[0, 0, 0]	n/a	FR1	0	R1420T
687.995	1.583	704496	REC_WORD	1.583	n/a	STORM	12	4	[0, 0, 0]	n/a	FR1	0	R1420T
689.578	6.505	706079	REC_WORD	6.505	n/a	BUG	11	4	[0, 0, 0]	n/a	FR1	0	R1420T
696.083	11.197	712583	REC_WORD	11.197	n/a	SKI	2	4	[0, 0, 0]	n/a	FR1	0	R1420T
707.28	2.201	723780	REC_END	n/a	n/a	n/a	-999	4	[0, 0, 0]	n/a	FR1	0	R1420T
709.481	10.35	725981	COUNTDOWN_START	n/a	n/a	n/a	-999	5	[0, 0, 0]	n/a	FR1	0	R1420T
719.831	0.0	736334	COUNTDOWN_END	n/a	n/a	n/a	-999	5	[0, 0, 0]	n/a	FR1	0	R1420T
719.831	2.033	736334	ENCODING_START	n/a	n/a	n/a	-999	5	[0, 0, 0]	n/a	FR1	0	R1420T
721.864	1.6	738363	WORD	n/a	wordpools/wordpool_long_EN.txt	ARK	1	5	[0, 0, 0]	n/a	FR1	0	R1420T
723.464	0.866	739968	WORD_OFF	n/a	n/a	ARK	1	5	[0, 0, 0]	n/a	FR1	0	R1420T
724.33	1.601	740834	WORD	n/a	wordpools/wordpool_long_EN.txt	STEAM	2	5	[0, 0, 0]	n/a	FR1	0	R1420T
725.931	0.883	742430	WORD_OFF	n/a	n/a	STEAM	2	5	[0, 0, 0]	n/a	FR1	0	R1420T
726.814	1.6	743314	WORD	n/a	wordpools/wordpool_long_EN.txt	MASK	3	5	[0, 0, 0]	n/a	FR1	0	R1420T
728.414	0.883	744910	WORD_OFF	n/a	n/a	MASK	3	5	[0, 0, 0]	n/a	FR1	0	R1420T
729.297	1.6	745794	WORD	n/a	wordpools/wordpool_long_EN.txt	SINK	4	5	[0, 0, 0]	n/a	FR1	0	R1420T
730.897	0.95	747399	WORD_OFF	n/a	n/a	SINK	4	5	[0, 0, 0]	n/a	FR1	0	R1420T
731.847	1.6	748346	WORD	n/a	wordpools/wordpool_long_EN.txt	FARM	5	5	[0, 0, 0]	n/a	FR1	0	R1420T
733.447	0.884	749942	WORD_OFF	n/a	n/a	FARM	5	5	[0, 0, 0]	n/a	FR1	0	R1420T
734.331	1.6	750826	WORD	n/a	wordpools/wordpool_long_EN.txt	CHILD	6	5	[0, 0, 0]	n/a	FR1	0	R1420T
735.931	0.8	752431	WORD_OFF	n/a	n/a	CHILD	6	5	[0, 0, 0]	n/a	FR1	0	R1420T
736.731	1.616	753234	WORD	n/a	wordpools/wordpool_long_EN.txt	CHURCH	7	5	[0, 0, 0]	n/a	FR1	0	R1420T
738.347	0.766	754848	WORD_OFF	n/a	n/a	CHURCH	7	5	[0, 0, 0]	n/a	FR1	0	R1420T
739.113	1.617	755614	WORD	n/a	wordpools/wordpool_long_EN.txt	FOX	8	5	[0, 0, 0]	n/a	FR1	0	R1420T
740.73	1.0	757238	WORD_OFF	n/a	n/a	FOX	8	5	[0, 0, 0]	n/a	FR1	0	R1420T
741.73	1.6	758230	WORD	n/a	wordpools/wordpool_long_EN.txt	TILE	9	5	[0, 0, 0]	n/a	FR1	0	R1420T
743.33	0.883	759826	WORD_OFF	n/a	n/a	TILE	9	5	[0, 0, 0]	n/a	FR1	0	R1420T
744.213	1.6	760710	WORD	n/a	wordpools/wordpool_long_EN.txt	WRIST	10	5	[0, 0, 0]	n/a	FR1	0	R1420T
745.813	0.884	762315	WORD_OFF	n/a	n/a	WRIST	10	5	[0, 0, 0]	n/a	FR1	0	R1420T
746.697	1.617	763199	WORD	n/a	wordpools/wordpool_long_EN.txt	BLADE	11	5	[0, 0, 0]	n/a	FR1	0	R1420T
748.314	0.967	764813	WORD_OFF	n/a	n/a	BLADE	11	5	[0, 0, 0]	n/a	FR1	0	R1420T
749.281	1.601	765778	WORD	n/a	wordpools/wordpool_long_EN.txt	MUG	12	5	[0, 0, 0]	n/a	FR1	0	R1420T
750.882	0.0	767379	START	n/a	n/a	n/a	-999	5	[-999, -999, -999]	n/a	FR1	0	R1420T
750.882	0.0	767379	PROB	0.0	n/a	n/a	-999	5	[1, 1, 3]	7	FR1	0	R1420T
750.881	0.001	767383	WORD_OFF	n/a	n/a	MUG	12	5	[0, 0, 0]	n/a	FR1	0	R1420T
750.882	0.0	767383	ENCODING_END	n/a	n/a	n/a	-999	5	[0, 0, 0]	n/a	FR1	0	R1420T
750.882	6.416	767383	DISTRACT_START	n/a	n/a	n/a	-999	5	[0, 0, 0]	n/a	FR1	0	R1420T
757.298	6.016	773795	PROB	6.016	n/a	n/a	-999	5	[4, 2, 4]	10	FR1	0	R1420T
763.314	3.183	779811	PROB	3.183	n/a	n/a	-999	5	[2, 2, 1]	5	FR1	0	R1420T
766.497	12.067	782994	PROB	12.067	n/a	n/a	-999	5	[5, 8, 8]	21	FR1	0	R1420T
778.564	0.0	795060	DISTRACT_END	n/a	n/a	n/a	-999	5	[0, 0, 0]	n/a	FR1	0	R1420T
778.564	2.383	795060	STOP	n/a	n/a	n/a	-999	5	[-999, -999, -999]	n/a	FR1	0	R1420T
780.947	6.785	797440	REC_START	n/a	n/a	n/a	-999	5	[0, 0, 0]	n/a	FR1	0	R1420T
787.732	23.529	804227	REC_WORD	23.529	n/a	MASK	3	5	[0, 0, 0]	n/a	FR1	0	R1420T
811.261	1.77	827760	REC_END	n/a	n/a	n/a	-999	5	[0, 0, 0]	n/a	FR1	0	R1420T
813.031	10.35	829527	COUNTDOWN_START	n/a	n/a	n/a	-999	6	[0, 0, 0]	n/a	FR1	0	R1420T
823.381	0.0	839871	COUNTDOWN_END	n/a	n/a	n/a	-999	6	[0, 0, 0]	n/a	FR1	0	R1420T
823.381	1.982	839880	ENCODING_START	n/a	n/a	n/a	-999	6	[0, 0, 0]	n/a	FR1	0	R1420T
825.363	1.6	841855	WORD	n/a	wordpools/wordpool_long_EN.txt	SLIDE	1	6	[0, 0, 0]	n/a	FR1	0	R1420T
826.963	0.95	843461	WORD_OFF	n/a	n/a	SLIDE	1	6	[0, 0, 0]	n/a	FR1	0	R1420T
827.913	1.6	844407	WORD	n/a	wordpools/wordpool_long_EN.txt	GOAL	2	6	[0, 0, 0]	n/a	FR1	0	R1420T
829.513	0.933	846004	WORD_OFF	n/a	n/a	GOAL	2	6	[0, 0, 0]	n/a	FR1	0	R1420T
830.446	1.601	846942	WORD	n/a	wordpools/wordpool_long_EN.txt	HORN	3	6	[0, 0, 0]	n/a	FR1	0	R1420T
832.047	0.816	848538	WORD_OFF	n/a	n/a	HORN	3	6	[0, 0, 0]	n/a	FR1	0	R1420T
832.863	1.6	849358	WORD	n/a	wordpools/wordpool_long_EN.txt	BOMB	4	6	[0, 0, 0]	n/a	FR1	0	R1420T
834.463	0.767	850955	WORD_OFF	n/a	n/a	BOMB	4	6	[0, 0, 0]	n/a	FR1	0	R1420T
835.23	1.601	851721	WORD	n/a	wordpools/wordpool_long_EN.txt	LAWN	5	6	[0, 0, 0]	n/a	FR1	0	R1420T
836.831	0.783	853326	WORD_OFF	n/a	n/a	LAWN	5	6	[0, 0, 0]	n/a	FR1	0	R1420T
837.614	1.601	854111	WORD	n/a	wordpools/wordpool_long_EN.txt	SOAP	6	6	[0, 0, 0]	n/a	FR1	0	R1420T
839.215	0.883	855707	WORD_OFF	n/a	n/a	SOAP	6	6	[0, 0, 0]	n/a	FR1	0	R1420T
840.098	1.6	856591	WORD	n/a	wordpools/wordpool_long_EN.txt	SLIME	7	6	[0, 0, 0]	n/a	FR1	0	R1420T
841.698	0.766	858196	WORD_OFF	n/a	n/a	SLIME	7	6	[0, 0, 0]	n/a	FR1	0	R1420T
842.464	1.6	858954	WORD	n/a	wordpools/wordpool_long_EN.txt	HUT	8	6	[0, 0, 0]	n/a	FR1	0	R1420T
844.064	0.933	860559	WORD_OFF	n/a	n/a	HUT	8	6	[0, 0, 0]	n/a	FR1	0	R1420T
844.997	1.6	861488	WORD	n/a	wordpools/wordpool_long_EN.txt	TRASH	9	6	[0, 0, 0]	n/a	FR1	0	R1420T
846.597	0.834	863093	WORD_OFF	n/a	n/a	TRASH	9	6	[0, 0, 0]	n/a	FR1	0	R1420T
847.431	1.6	863923	WORD	n/a	wordpools/wordpool_long_EN.txt	WOLF	10	6	[0, 0, 0]	n/a	FR1	0	R1420T
849.031	0.867	865528	WORD_OFF	n/a	n/a	WOLF	10	6	[0, 0, 0]	n/a	FR1	0	R1420T
849.898	1.615	866394	WORD	n/a	wordpools/wordpool_long_EN.txt	FRIEND	11	6	[0, 0, 0]	n/a	FR1	0	R1420T
851.513	0.951	868008	WORD_OFF	n/a	n/a	FRIEND	11	6	[0, 0, 0]	n/a	FR1	0	R1420T
852.464	1.616	868955	WORD	n/a	wordpools/wordpool_long_EN.txt	RUG	12	6	[0, 0, 0]	n/a	FR1	0	R1420T
854.08	0.001	870569	WORD_OFF	n/a	n/a	RUG	12	6	[0, 0, 0]	n/a	FR1	0	R1420T
854.081	0.0	870573	PROB	0.0	n/a	n/a	-999	6	[5, 5, 2]	12	FR1	0	R1420T
854.081	0.0	870573	START	n/a	n/a	n/a	-999	6	[-999, -999, -999]	n/a	FR1	0	R1420T
854.081	0.0	870578	ENCODING_END	n/a	n/a	n/a	-999	6	[0, 0, 0]	n/a	FR1	0	R1420T
854.081	5.317	870578	DISTRACT_START	n/a	n/a	n/a	-999	6	[0, 0, 0]	n/a	FR1	0	R1420T
859.398	9.9	875890	PROB	9.9	n/a	n/a	-999	6	[1, 6, 6]	13	FR1	0	R1420T
869.298	5.466	885789	PROB	5.466	n/a	n/a	-999	6	[5, 3, 4]	12	FR1	0	R1420T
874.764	0.0	891255	STOP	n/a	n/a	n/a	-999	6	[-999, -999, -999]	n/a	FR1	0	R1420T
874.764	2.316	891257	DISTRACT_END	n/a	n/a	n/a	-999	6	[0, 0, 0]	n/a	FR1	0	R1420T
877.08	10.319	893574	REC_START	n/a	n/a	n/a	-999	6	[0, 0, 0]	n/a	FR1	0	R1420T
887.399	1.255	903889	REC_WORD	1.255	n/a	RUG	12	6	[0, 0, 0]	n/a	FR1	0	R1420T
888.654	18.727	905144	REC_WORD	18.727	n/a	MASK	-999	6	[0, 0, 0]	n/a	FR1	0	R1420T
907.381	2.434	923867	REC_END	n/a	n/a	n/a	-999	6	[0, 0, 0]	n/a	FR1	0	R1420T
909.815	10.35	926311	COUNTDOWN_START	n/a	n/a	n/a	-999	7	[0, 0, 0]	n/a	FR1	0	R1420T
920.165	0.0	936654	COUNTDOWN_END	n/a	n/a	n/a	-999	7	[0, 0, 0]	n/a	FR1	0	R1420T
920.165	2.082	936654	ENCODING_START	n/a	n/a	n/a	-999	7	[0, 0, 0]	n/a	FR1	0	R1420T
922.247	1.617	938738	WORD	n/a	wordpools/wordpool_long_EN.txt	ZOO	1	7	[0, 0, 0]	n/a	FR1	0	R1420T
923.864	0.816	940352	WORD_OFF	n/a	n/a	ZOO	1	7	[0, 0, 0]	n/a	FR1	0	R1420T
924.68	1.6	941172	WORD	n/a	wordpools/wordpool_long_EN.txt	LAMP	2	7	[0, 0, 0]	n/a	FR1	0	R1420T
926.28	0.95	942769	WORD_OFF	n/a	n/a	LAMP	2	7	[0, 0, 0]	n/a	FR1	0	R1420T
927.23	1.617	943716	WORD	n/a	wordpools/wordpool_long_EN.txt	HAT	3	7	[0, 0, 0]	n/a	FR1	0	R1420T
928.847	0.933	945339	WORD_OFF	n/a	n/a	HAT	3	7	[0, 0, 0]	n/a	FR1	0	R1420T
929.78	1.6	946268	WORD	n/a	wordpools/wordpool_long_EN.txt	FRAME	4	7	[0, 0, 0]	n/a	FR1	0	R1420T
931.38	0.817	947873	WORD_OFF	n/a	n/a	FRAME	4	7	[0, 0, 0]	n/a	FR1	0	R1420T
932.197	1.616	948685	WORD	n/a	wordpools/wordpool_long_EN.txt	STAR	5	7	[0, 0, 0]	n/a	FR1	0	R1420T
933.813	0.834	950299	WORD_OFF	n/a	n/a	STAR	5	7	[0, 0, 0]	n/a	FR1	0	R1420T
934.647	1.617	951138	WORD	n/a	wordpools/wordpool_long_EN.txt	SCHOOL	6	7	[0, 0, 0]	n/a	FR1	0	R1420T
936.264	0.816	952752	WORD_OFF	n/a	n/a	SCHOOL	6	7	[0, 0, 0]	n/a	FR1	0	R1420T
937.08	1.617	953572	WORD	n/a	wordpools/wordpool_long_EN.txt	GEESE	7	7	[0, 0, 0]	n/a	FR1	0	R1420T
938.697	0.767	955187	WORD_OFF	n/a	n/a	GEESE	7	7	[0, 0, 0]	n/a	FR1	0	R1420T
939.464	1.6	955953	WORD	n/a	wordpools/wordpool_long_EN.txt	CHALK	8	7	[0, 0, 0]	n/a	FR1	0	R1420T
941.064	0.883	957550	WORD_OFF	n/a	n/a	CHALK	8	7	[0, 0, 0]	n/a	FR1	0	R1420T
941.947	1.6	958433	WORD	n/a	wordpools/wordpool_long_EN.txt	PEARL	9	7	[0, 0, 0]	n/a	FR1	0	R1420T
943.547	0.817	960039	WORD_OFF	n/a	n/a	PEARL	9	7	[0, 0, 0]	n/a	FR1	0	R1420T
944.364	1.617	960850	WORD	n/a	wordpools/wordpool_long_EN.txt	CARD	10	7	[0, 0, 0]	n/a	FR1	0	R1420T
945.981	0.916	962473	WORD_OFF	n/a	n/a	CARD	10	7	[0, 0, 0]	n/a	FR1	0	R1420T
946.897	1.6	963384	WORD	n/a	wordpools/wordpool_long_EN.txt	BOARD	11	7	[0, 0, 0]	n/a	FR1	0	R1420T
948.497	0.883	964989	WORD_OFF	n/a	n/a	BOARD	11	7	[0, 0, 0]	n/a	FR1	0	R1420T
949.38	1.618	965864	WORD	n/a	wordpools/wordpool_long_EN.txt	DRINK	12	7	[0, 0, 0]	n/a	FR1	0	R1420T
950.998	0.001	967485	PROB	0.001	n/a	n/a	-999	7	[6, 2, 4]	12	FR1	0	R1420T
950.999	0.0	967486	START	n/a	n/a	n/a	-999	7	[-999, -999, -999]	n/a	FR1	0	R1420T
950.997	0.002	967488	WORD_OFF	n/a	n/a	DRINK	12	7	[0, 0, 0]	n/a	FR1	0	R1420T
950.999	0.0	967488	ENCODING_END	n/a	n/a	n/a	-999	7	[0, 0, 0]	n/a	FR1	0	R1420T
950.999	6.466	967488	DISTRACT_START	n/a	n/a	n/a	-999	7	[0, 0, 0]	n/a	FR1	0	R1420T
957.465	4.933	973952	PROB	4.933	n/a	n/a	-999	7	[2, 8, 2]	12	FR1	0	R1420T
962.398	6.65	978884	PROB	6.65	n/a	n/a	-999	7	[4, 3, 6]	14	FR1	0	R1420T
969.048	6.683	985534	PROB	6.683	n/a	n/a	-999	7	[7, 5, 1]	13	FR1	0	R1420T
975.731	0.0	992215	DISTRACT_END	n/a	n/a	n/a	-999	7	[0, 0, 0]	n/a	FR1	0	R1420T
975.731	2.3	992217	STOP	n/a	n/a	n/a	-999	7	[-999, -999, -999]	n/a	FR1	0	R1420T
978.031	10.482	994514	REC_START	n/a	n/a	n/a	-999	7	[0, 0, 0]	n/a	FR1	0	R1420T
988.513	10.57	1004998	REC_WORD	10.57	n/a	ZOO	1	7	[0, 0, 0]	n/a	FR1	0	R1420T
999.083	9.189	1015568	REC_WORD	9.189	n/a	FRAME	4	7	[0, 0, 0]	n/a	FR1	0	R1420T
1008.272	5.175	1024753	REC_END	n/a	n/a	n/a	-999	7	[0, 0, 0]	n/a	FR1	0	R1420T
1013.447	10.351	1029938	COUNTDOWN_START	n/a	n/a	n/a	-999	8	[0, 0, 0]	n/a	FR1	0	R1420T
1023.798	0.0	1040282	COUNTDOWN_END	n/a	n/a	n/a	-999	8	[0, 0, 0]	n/a	FR1	0	R1420T
1023.798	2.116	1040282	ENCODING_START	n/a	n/a	n/a	-999	8	[0, 0, 0]	n/a	FR1	0	R1420T
1025.914	1.6	1042402	WORD	n/a	wordpools/wordpool_long_EN.txt	GROUND	1	8	[0, 0, 0]	n/a	FR1	0	R1420T
1027.514	1.0	1043998	WORD_OFF	n/a	n/a	GROUND	1	8	[0, 0, 0]	n/a	FR1	0	R1420T
1028.514	1.616	1044999	WORD	n/a	wordpools/wordpool_long_EN.txt	PERCH	2	8	[0, 0, 0]	n/a	FR1	0	R1420T
1030.13	0.934	1046613	WORD_OFF	n/a	n/a	PERCH	2	8	[0, 0, 0]	n/a	FR1	0	R1420T
1031.064	1.6	1047551	WORD	n/a	wordpools/wordpool_long_EN.txt	BREAD	3	8	[0, 0, 0]	n/a	FR1	0	R1420T
1032.664	0.883	1049147	WORD_OFF	n/a	n/a	BREAD	3	8	[0, 0, 0]	n/a	FR1	0	R1420T
1033.547	1.6	1050031	WORD	n/a	wordpools/wordpool_long_EN.txt	ELF	4	8	[0, 0, 0]	n/a	FR1	0	R1420T
1035.147	0.833	1051627	WORD_OFF	n/a	n/a	ELF	4	8	[0, 0, 0]	n/a	FR1	0	R1420T
1035.98	1.601	1052466	WORD	n/a	wordpools/wordpool_long_EN.txt	SKY	5	8	[0, 0, 0]	n/a	FR1	0	R1420T
1037.581	0.8	1054062	WORD_OFF	n/a	n/a	SKY	5	8	[0, 0, 0]	n/a	FR1	0	R1420T
1038.381	1.6	1054865	WORD	n/a	wordpools/wordpool_long_EN.txt	HOUND	6	8	[0, 0, 0]	n/a	FR1	0	R1420T
1039.981	0.95	1056461	WORD_OFF	n/a	n/a	HOUND	6	8	[0, 0, 0]	n/a	FR1	0	R1420T
1040.931	1.601	1057417	WORD	n/a	wordpools/wordpool_long_EN.txt	STONE	7	8	[0, 0, 0]	n/a	FR1	0	R1420T
1042.532	0.799	1059013	WORD_OFF	n/a	n/a	STONE	7	8	[0, 0, 0]	n/a	FR1	0	R1420T
1043.331	1.616	1059816	WORD	n/a	wordpools/wordpool_long_EN.txt	SKUNK	8	8	[0, 0, 0]	n/a	FR1	0	R1420T
1044.947	0.95	1061430	WORD_OFF	n/a	n/a	SKUNK	8	8	[0, 0, 0]	n/a	FR1	0	R1420T
1045.897	1.6	1062386	WORD	n/a	wordpools/wordpool_long_EN.txt	HAZE	9	8	[0, 0, 0]	n/a	FR1	0	R1420T
1047.497	0.884	1063982	WORD_OFF	n/a	n/a	HAZE	9	8	[0, 0, 0]	n/a	FR1	0	R1420T
1048.381	1.616	1064866	WORD	n/a	wordpools/wordpool_long_EN.txt	PURSE	10	8	[0, 0, 0]	n/a	FR1	0	R1420T
1049.997	0.934	1066480	WORD_OFF	n/a	n/a	PURSE	10	8	[0, 0, 0]	n/a	FR1	0	R1420T
1050.931	1.616	1067418	WORD	n/a	wordpools/wordpool_long_EN.txt	CLAY	11	8	[0, 0, 0]	n/a	FR1	0	R1420T
1052.547	0.8	1069032	WORD_OFF	n/a	n/a	CLAY	11	8	[0, 0, 0]	n/a	FR1	0	R1420T
1053.347	1.601	1069826	WORD	n/a	wordpools/wordpool_long_EN.txt	FOAM	12	8	[0, 0, 0]	n/a	FR1	0	R1420T
1054.948	0.0	1071430	PROB	0.0	n/a	n/a	-999	8	[2, 6, 7]	15	FR1	0	R1420T
1054.947	0.002	1071431	WORD_OFF	n/a	n/a	FOAM	12	8	[0, 0, 0]	n/a	FR1	0	R1420T
1054.949	0.0	1071431	ENCODING_END	n/a	n/a	n/a	-999	8	[0, 0, 0]	n/a	FR1	0	R1420T
1054.949	0.0	1071431	DISTRACT_START	n/a	n/a	n/a	-999	8	[0, 0, 0]	n/a	FR1	0	R1420T
1054.949	9.616	1071431	START	n/a	n/a	n/a	-999	8	[-999, -999, -999]	n/a	FR1	0	R1420T
1064.565	7.766	1081046	PROB	7.766	n/a	n/a	-999	8	[7, 4, 2]	13	FR1	0	R1420T
1072.331	5.201	1088812	PROB	5.201	n/a	n/a	-999	8	[1, 4, 7]	12	FR1	0	R1420T
1077.532	0.0	1094013	DISTRACT_END	n/a	n/a	n/a	-999	8	[0, 0, 0]	n/a	FR1	0	R1420T
1077.532	2.365	1094013	STOP	n/a	n/a	n/a	-999	8	[-999, -999, -999]	n/a	FR1	0	R1420T
1079.897	5.371	1096374	REC_START	n/a	n/a	n/a	-999	8	[0, 0, 0]	n/a	FR1	0	R1420T
1085.268	2.185	1101748	REC_WORD	2.185	n/a	CLAY	11	8	[0, 0, 0]	n/a	FR1	0	R1420T
1087.453	7.21	1103933	REC_WORD	7.21	n/a	PURSE	10	8	[0, 0, 0]	n/a	FR1	0	R1420T
1094.663	4.144	1111143	REC_WORD	4.144	n/a	GROUND	1	8	[0, 0, 0]	n/a	FR1	0	R1420T
1098.807	11.331	1115286	REC_WORD	11.331	n/a	SKY	5	8	[0, 0, 0]	n/a	FR1	0	R1420T
1110.138	5.526	1126622	REC_END	n/a	n/a	n/a	-999	8	[0, 0, 0]	n/a	FR1	0	R1420T
1115.664	10.349	1132141	COUNTDOWN_START	n/a	n/a	n/a	-999	9	[0, 0, 0]	n/a	FR1	0	R1420T
1126.013	0.001	1142494	COUNTDOWN_END	n/a	n/a	n/a	-999	9	[0, 0, 0]	n/a	FR1	0	R1420T
1126.014	1.933	1142494	ENCODING_START	n/a	n/a	n/a	-999	9	[0, 0, 0]	n/a	FR1	0	R1420T
1127.947	1.617	1144424	WORD	n/a	wordpools/wordpool_long_EN.txt	SLUSH	1	9	[0, 0, 0]	n/a	FR1	0	R1420T
1129.564	0.932	1146047	WORD_OFF	n/a	n/a	SLUSH	1	9	[0, 0, 0]	n/a	FR1	0	R1420T
1130.496	1.618	1146976	WORD	n/a	wordpools/wordpool_long_EN.txt	PORK	2	9	[0, 0, 0]	n/a	FR1	0	R1420T
1132.114	0.883	1148591	WORD_OFF	n/a	n/a	PORK	2	9	[0, 0, 0]	n/a	FR1	0	R1420T
1132.997	1.617	1149474	WORD	n/a	wordpools/wordpool_long_EN.txt	TOOL	3	9	[0, 0, 0]	n/a	FR1	0	R1420T
1134.614	0.833	1151089	WORD_OFF	n/a	n/a	TOOL	3	9	[0, 0, 0]	n/a	FR1	0	R1420T
1135.447	1.6	1151927	WORD	n/a	wordpools/wordpool_long_EN.txt	MOUTH	4	9	[0, 0, 0]	n/a	FR1	0	R1420T
1137.047	0.867	1153523	WORD_OFF	n/a	n/a	MOUTH	4	9	[0, 0, 0]	n/a	FR1	0	R1420T
1137.914	1.616	1154389	WORD	n/a	wordpools/wordpool_long_EN.txt	PASTE	5	9	[0, 0, 0]	n/a	FR1	0	R1420T
1139.53	0.933	1156012	WORD_OFF	n/a	n/a	PASTE	5	9	[0, 0, 0]	n/a	FR1	0	R1420T
1140.463	1.601	1156941	WORD	n/a	wordpools/wordpool_long_EN.txt	WEB	6	9	[0, 0, 0]	n/a	FR1	0	R1420T
1142.064	0.833	1158538	WORD_OFF	n/a	n/a	WEB	6	9	[0, 0, 0]	n/a	FR1	0	R1420T
1142.897	1.6	1159376	WORD	n/a	wordpools/wordpool_long_EN.txt	STAIR	7	9	[0, 0, 0]	n/a	FR1	0	R1420T
1144.497	0.917	1160972	WORD_OFF	n/a	n/a	STAIR	7	9	[0, 0, 0]	n/a	FR1	0	R1420T
1145.414	1.6	1161892	WORD	n/a	wordpools/wordpool_long_EN.txt	TROUT	8	9	[0, 0, 0]	n/a	FR1	0	R1420T
1147.014	0.8	1163489	WORD_OFF	n/a	n/a	TROUT	8	9	[0, 0, 0]	n/a	FR1	0	R1420T
1147.814	1.617	1164291	WORD	n/a	wordpools/wordpool_long_EN.txt	STEM	9	9	[0, 0, 0]	n/a	FR1	0	R1420T
1149.431	0.783	1165905	WORD_OFF	n/a	n/a	STEM	9	9	[0, 0, 0]	n/a	FR1	0	R1420T
1150.214	1.617	1166690	WORD	n/a	wordpools/wordpool_long_EN.txt	JAR	10	9	[0, 0, 0]	n/a	FR1	0	R1420T
1151.831	1.0	1168304	WORD_OFF	n/a	n/a	JAR	10	9	[0, 0, 0]	n/a	FR1	0	R1420T
1152.831	1.616	1169305	WORD	n/a	wordpools/wordpool_long_EN.txt	KITE	11	9	[0, 0, 0]	n/a	FR1	0	R1420T
1154.447	0.934	1170929	WORD_OFF	n/a	n/a	KITE	11	9	[0, 0, 0]	n/a	FR1	0	R1420T
1155.381	1.6	1171857	WORD	n/a	wordpools/wordpool_long_EN.txt	BOOK	12	9	[0, 0, 0]	n/a	FR1	0	R1420T
1156.981	0.001	1173457	PROB	0.001	n/a	n/a	-999	9	[8, 4, 8]	20	FR1	0	R1420T
1156.982	0.0	1173458	START	n/a	n/a	n/a	-999	9	[-999, -999, -999]	n/a	FR1	0	R1420T
1156.981	0.001	1173463	WORD_OFF	n/a	n/a	BOOK	12	9	[0, 0, 0]	n/a	FR1	0	R1420T
1156.982	0.0	1173463	ENCODING_END	n/a	n/a	n/a	-999	9	[0, 0, 0]	n/a	FR1	0	R1420T
1156.982	10.232	1173463	DISTRACT_START	n/a	n/a	n/a	-999	9	[0, 0, 0]	n/a	FR1	0	R1420T
1167.214	4.617	1183690	PROB	4.617	n/a	n/a	-999	9	[1, 4, 3]	8	FR1	0	R1420T
1171.831	8.016	1188307	PROB	8.016	n/a	n/a	-999	9	[3, 8, 8]	19	FR1	0	R1420T
1179.847	0.0	1196322	STOP	n/a	n/a	n/a	-999	9	[-999, -999, -999]	n/a	FR1	0	R1420T
1179.847	2.4	1196324	DISTRACT_END	n/a	n/a	n/a	-999	9	[0, 0, 0]	n/a	FR1	0	R1420T
1182.247	7.175	1198722	REC_START	n/a	n/a	n/a	-999	9	[0, 0, 0]	n/a	FR1	0	R1420T
1189.422	0.432	1205897	REC_WORD_VV	0.432	n/a	<>	-999	9	[0, 0, 0]	n/a	FR1	0	R1420T
1189.854	14.444	1206329	REC_WORD	14.444	n/a	KITE	11	9	[0, 0, 0]	n/a	FR1	0	R1420T
1204.298	8.181	1220772	REC_WORD	8.181	n/a	WEB	6	9	[0, 0, 0]	n/a	FR1	0	R1420T
1212.479	2.068	1228952	REC_END	n/a	n/a	n/a	-999	9	[0, 0, 0]	n/a	FR1	0	R1420T
1214.547	10.35	1231026	COUNTDOWN_START	n/a	n/a	n/a	-999	10	[0, 0, 0]	n/a	FR1	0	R1420T
1224.897	0.0	1241370	COUNTDOWN_END	n/a	n/a	n/a	-999	10	[0, 0, 0]	n/a	FR1	0	R1420T
1224.897	2.084	1241370	ENCODING_START	n/a	n/a	n/a	-999	10	[0, 0, 0]	n/a	FR1	0	R1420T
1226.981	1.6	1243453	WORD	n/a	wordpools/wordpool_long_EN.txt	TWIG	1	10	[0, 0, 0]	n/a	FR1	0	R1420T
1228.581	0.783	1245058	WORD_OFF	n/a	n/a	TWIG	1	10	[0, 0, 0]	n/a	FR1	0	R1420T
1229.364	1.6	1245834	WORD	n/a	wordpools/wordpool_long_EN.txt	RAKE	2	10	[0, 0, 0]	n/a	FR1	0	R1420T
1230.964	1.0	1247439	WORD_OFF	n/a	n/a	RAKE	2	10	[0, 0, 0]	n/a	FR1	0	R1420T
1231.964	1.616	1248440	WORD	n/a	wordpools/wordpool_long_EN.txt	FLAG	3	10	[0, 0, 0]	n/a	FR1	0	R1420T
1233.58	0.884	1250054	WORD_OFF	n/a	n/a	FLAG	3	10	[0, 0, 0]	n/a	FR1	0	R1420T
1234.464	1.616	1250938	WORD	n/a	wordpools/wordpool_long_EN.txt	PARK	4	10	[0, 0, 0]	n/a	FR1	0	R1420T
1236.08	0.95	1252552	WORD_OFF	n/a	n/a	PARK	4	10	[0, 0, 0]	n/a	FR1	0	R1420T
1237.03	1.6	1253499	WORD	n/a	wordpools/wordpool_long_EN.txt	PET	5	10	[0, 0, 0]	n/a	FR1	0	R1420T
1238.63	0.817	1255104	WORD_OFF	n/a	n/a	PET	5	10	[0, 0, 0]	n/a	FR1	0	R1420T
1239.447	1.617	1255925	WORD	n/a	wordpools/wordpool_long_EN.txt	TRENCH	6	10	[0, 0, 0]	n/a	FR1	0	R1420T
1241.064	0.967	1257539	WORD_OFF	n/a	n/a	TRENCH	6	10	[0, 0, 0]	n/a	FR1	0	R1420T
1242.031	1.616	1258504	WORD	n/a	wordpools/wordpool_long_EN.txt	SNACK	7	10	[0, 0, 0]	n/a	FR1	0	R1420T
1243.647	0.767	1260118	WORD_OFF	n/a	n/a	SNACK	7	10	[0, 0, 0]	n/a	FR1	0	R1420T
1244.414	1.6	1260885	WORD	n/a	wordpools/wordpool_long_EN.txt	SHEET	8	10	[0, 0, 0]	n/a	FR1	0	R1420T
1246.014	0.917	1262490	WORD_OFF	n/a	n/a	SHEET	8	10	[0, 0, 0]	n/a	FR1	0	R1420T
1246.931	1.616	1263401	WORD	n/a	wordpools/wordpool_long_EN.txt	APE	9	10	[0, 0, 0]	n/a	FR1	0	R1420T
1248.547	0.833	1265015	WORD_OFF	n/a	n/a	APE	9	10	[0, 0, 0]	n/a	FR1	0	R1420T
1249.38	1.601	1265854	WORD	n/a	wordpools/wordpool_long_EN.txt	CRANE	10	10	[0, 0, 0]	n/a	FR1	0	R1420T
1250.981	0.783	1267450	WORD_OFF	n/a	n/a	CRANE	10	10	[0, 0, 0]	n/a	FR1	0	R1420T
1251.764	1.6	1268235	WORD	n/a	wordpools/wordpool_long_EN.txt	CAGE	11	10	[0, 0, 0]	n/a	FR1	0	R1420T
1253.364	0.833	1269840	WORD_OFF	n/a	n/a	CAGE	11	10	[0, 0, 0]	n/a	FR1	0	R1420T
1254.197	1.617	1270670	WORD	n/a	wordpools/wordpool_long_EN.txt	CANE	12	10	[0, 0, 0]	n/a	FR1	0	R1420T
1255.814	0.001	1272284	WORD_OFF	n/a	n/a	CANE	12	10	[0, 0, 0]	n/a	FR1	0	R1420T
1255.815	0.0	1272286	START	n/a	n/a	n/a	-999	10	[-999, -999, -999]	n/a	FR1	0	R1420T
1255.815	0.0	1272286	PROB	0.0	n/a	n/a	-999	10	[3, 7, 3]	13	FR1	0	R1420T
1255.815	0.0	1272293	ENCODING_END	n/a	n/a	n/a	-999	10	[0, 0, 0]	n/a	FR1	0	R1420T
1255.815	9.215	1272293	DISTRACT_START	n/a	n/a	n/a	-999	10	[0, 0, 0]	n/a	FR1	0	R1420T
1265.03	6.25	1281501	PROB	6.25	n/a	n/a	-999	10	[8, 2, 7]	17	FR1	0	R1420T
1271.28	7.05	1287751	PROB	7.05	n/a	n/a	-999	10	[8, 3, 5]	16	FR1	0	R1420T
1278.33	0.0	1294800	STOP	n/a	n/a	n/a	-999	10	[-999, -999, -999]	n/a	FR1	0	R1420T
1278.33	2.3	1294802	DISTRACT_END	n/a	n/a	n/a	-999	10	[0, 0, 0]	n/a	FR1	0	R1420T
1280.63	9.078	1297101	REC_START	n/a	n/a	n/a	-999	10	[0, 0, 0]	n/a	FR1	0	R1420T
1289.708	1.0	1306178	REC_WORD_VV	1.0	n/a	<>	-999	10	[0, 0, 0]	n/a	FR1	0	R1420T
1290.708	20.122	1307178	REC_WORD_VV	20.122	n/a	<>	-999	10	[0, 0, 0]	n/a	FR1	0	R1420T
1310.83	1.883	1327295	REC_END	n/a	n/a	n/a	-999	10	[0, 0, 0]	n/a	FR1	0	R1420T
1312.713	10.351	1329189	COUNTDOWN_START	n/a	n/a	n/a	-999	11	[0, 0, 0]	n/a	FR1	0	R1420T
1323.064	0.0	1339532	COUNTDOWN_END	n/a	n/a	n/a	-999	11	[0, 0, 0]	n/a	FR1	0	R1420T
1323.064	2.0	1339532	ENCODING_START	n/a	n/a	n/a	-999	11	[0, 0, 0]	n/a	FR1	0	R1420T
1325.064	1.618	1341534	WORD	n/a	wordpools/wordpool_long_EN.txt	MAP	1	11	[0, 0, 0]	n/a	FR1	0	R1420T
1326.682	0.932	1343149	WORD_OFF	n/a	n/a	MAP	1	11	[0, 0, 0]	n/a	FR1	0	R1420T
1327.614	1.617	1344087	WORD	n/a	wordpools/wordpool_long_EN.txt	FLASK	2	11	[0, 0, 0]	n/a	FR1	0	R1420T
1329.231	0.9	1345701	WORD_OFF	n/a	n/a	FLASK	2	11	[0, 0, 0]	n/a	FR1	0	R1420T
1330.131	1.6	1346603	WORD	n/a	wordpools/wordpool_long_EN.txt	BUSH	3	11	[0, 0, 0]	n/a	FR1	0	R1420T
1331.731	0.883	1348199	WORD_OFF	n/a	n/a	BUSH	3	11	[0, 0, 0]	n/a	FR1	0	R1420T
1332.614	1.617	1349083	WORD	n/a	wordpools/wordpool_long_EN.txt	PAIL	4	11	[0, 0, 0]	n/a	FR1	0	R1420T
1334.231	1.0	1350697	WORD_OFF	n/a	n/a	PAIL	4	11	[0, 0, 0]	n/a	FR1	0	R1420T
1335.231	1.616	1351698	WORD	n/a	wordpools/wordpool_long_EN.txt	FLAME	5	11	[0, 0, 0]	n/a	FR1	0	R1420T
1336.847	0.8	1353312	WORD_OFF	n/a	n/a	FLAME	5	11	[0, 0, 0]	n/a	FR1	0	R1420T
1337.647	1.6	1354115	WORD	n/a	wordpools/wordpool_long_EN.txt	VEST	6	11	[0, 0, 0]	n/a	FR1	0	R1420T
1339.247	0.833	1355711	WORD_OFF	n/a	n/a	VEST	6	11	[0, 0, 0]	n/a	FR1	0	R1420T
1340.08	1.602	1356550	WORD	n/a	wordpools/wordpool_long_EN.txt	COD	7	11	[0, 0, 0]	n/a	FR1	0	R1420T
1341.682	0.882	1358146	WORD_OFF	n/a	n/a	COD	7	11	[0, 0, 0]	n/a	FR1	0	R1420T
1342.564	1.6	1359030	WORD	n/a	wordpools/wordpool_long_EN.txt	GATE	8	11	[0, 0, 0]	n/a	FR1	0	R1420T
1344.164	0.883	1360635	WORD_OFF	n/a	n/a	GATE	8	11	[0, 0, 0]	n/a	FR1	0	R1420T
1345.047	1.6	1361519	WORD	n/a	wordpools/wordpool_long_EN.txt	CLOTH	9	11	[0, 0, 0]	n/a	FR1	0	R1420T
1346.647	0.967	1363115	WORD_OFF	n/a	n/a	CLOTH	9	11	[0, 0, 0]	n/a	FR1	0	R1420T
1347.614	1.616	1364080	WORD	n/a	wordpools/wordpool_long_EN.txt	HOOD	10	11	[0, 0, 0]	n/a	FR1	0	R1420T
1349.23	0.901	1365694	WORD_OFF	n/a	n/a	HOOD	10	11	[0, 0, 0]	n/a	FR1	0	R1420T
1350.131	1.599	1366596	WORD	n/a	wordpools/wordpool_long_EN.txt	CAPE	11	11	[0, 0, 0]	n/a	FR1	0	R1420T
1351.73	1.0	1368201	WORD_OFF	n/a	n/a	CAPE	11	11	[0, 0, 0]	n/a	FR1	0	R1420T
1352.73	1.618	1369193	WORD	n/a	wordpools/wordpool_long_EN.txt	BATH	12	11	[0, 0, 0]	n/a	FR1	0	R1420T
1354.348	0.0	1370814	START	n/a	n/a	n/a	-999	11	[-999, -999, -999]	n/a	FR1	0	R1420T
1354.348	0.0	1370814	PROB	0.0	n/a	n/a	-999	11	[5, 6, 3]	14	FR1	0	R1420T
1354.347	0.001	1370816	WORD_OFF	n/a	n/a	BATH	12	11	[0, 0, 0]	n/a	FR1	0	R1420T
1354.348	0.0	1370816	ENCODING_END	n/a	n/a	n/a	-999	11	[0, 0, 0]	n/a	FR1	0	R1420T
1354.348	8.832	1370816	DISTRACT_START	n/a	n/a	n/a	-999	11	[0, 0, 0]	n/a	FR1	0	R1420T
1363.18	5.25	1379646	PROB	5.25	n/a	n/a	-999	11	[5, 5, 8]	18	FR1	0	R1420T
1368.43	6.283	1384896	PROB	6.283	n/a	n/a	-999	11	[8, 2, 7]	17	FR1	0	R1420T
1374.713	0.0	1391178	STOP	n/a	n/a	n/a	-999	11	[-999, -999, -999]	n/a	FR1	0	R1420T
1374.713	2.15	1391179	DISTRACT_END	n/a	n/a	n/a	-999	11	[0, 0, 0]	n/a	FR1	0	R1420T
1376.863	5.501	1393325	REC_START	n/a	n/a	n/a	-999	11	[0, 0, 0]	n/a	FR1	0	R1420T
1382.364	0.119	1398829	REC_WORD_VV	0.119	n/a	<>	-999	11	[0, 0, 0]	n/a	FR1	0	R1420T
1382.483	4.773	1398948	REC_WORD	4.773	n/a	BATH	12	11	[0, 0, 0]	n/a	FR1	0	R1420T
1387.256	19.856	1403721	REC_WORD	19.856	n/a	HOOD	10	11	[0, 0, 0]	n/a	FR1	0	R1420T
1407.112	3.568	1423573	REC_END	n/a	n/a	n/a	-999	11	[0, 0, 0]	n/a	FR1	0	R1420T
1410.68	10.35	1427144	COUNTDOWN_START	n/a	n/a	n/a	-999	12	[0, 0, 0]	n/a	FR1	0	R1420T
1421.03	0.001	1437497	COUNTDOWN_END	n/a	n/a	n/a	-999	12	[0, 0, 0]	n/a	FR1	0	R1420T
1421.031	2.133	1437497	ENCODING_START	n/a	n/a	n/a	-999	12	[0, 0, 0]	n/a	FR1	0	R1420T
1423.164	1.616	1439625	WORD	n/a	wordpools/wordpool_long_EN.txt	BRANCH	1	12	[0, 0, 0]	n/a	FR1	0	R1420T
1424.78	0.867	1441239	WORD_OFF	n/a	n/a	BRANCH	1	12	[0, 0, 0]	n/a	FR1	0	R1420T
1425.647	1.6	1442114	WORD	n/a	wordpools/wordpool_long_EN.txt	HEART	2	12	[0, 0, 0]	n/a	FR1	0	R1420T
1427.247	0.933	1443710	WORD_OFF	n/a	n/a	HEART	2	12	[0, 0, 0]	n/a	FR1	0	R1420T
1428.18	1.601	1444648	WORD	n/a	wordpools/wordpool_long_EN.txt	FENCE	3	12	[0, 0, 0]	n/a	FR1	0	R1420T
1429.781	0.866	1446244	WORD_OFF	n/a	n/a	FENCE	3	12	[0, 0, 0]	n/a	FR1	0	R1420T
1430.647	1.616	1447110	WORD	n/a	wordpools/wordpool_long_EN.txt	VAULT	4	12	[0, 0, 0]	n/a	FR1	0	R1420T
1432.263	0.967	1448724	WORD_OFF	n/a	n/a	VAULT	4	12	[0, 0, 0]	n/a	FR1	0	R1420T
1433.23	1.601	1449689	WORD	n/a	wordpools/wordpool_long_EN.txt	CART	5	12	[0, 0, 0]	n/a	FR1	0	R1420T
1434.831	0.883	1451295	WORD_OFF	n/a	n/a	CART	5	12	[0, 0, 0]	n/a	FR1	0	R1420T
1435.714	1.616	1452178	WORD	n/a	wordpools/wordpool_long_EN.txt	DUST	6	12	[0, 0, 0]	n/a	FR1	0	R1420T
1437.33	0.901	1453793	WORD_OFF	n/a	n/a	DUST	6	12	[0, 0, 0]	n/a	FR1	0	R1420T
1438.231	1.616	1454694	WORD	n/a	wordpools/wordpool_long_EN.txt	ROD	7	12	[0, 0, 0]	n/a	FR1	0	R1420T
1439.847	0.967	1456309	WORD_OFF	n/a	n/a	ROD	7	12	[0, 0, 0]	n/a	FR1	0	R1420T
1440.814	1.6	1457274	WORD	n/a	wordpools/wordpool_long_EN.txt	PEA	8	12	[0, 0, 0]	n/a	FR1	0	R1420T
1442.414	0.816	1458879	WORD_OFF	n/a	n/a	PEA	8	12	[0, 0, 0]	n/a	FR1	0	R1420T
1443.23	1.617	1459691	WORD	n/a	wordpools/wordpool_long_EN.txt	TOOTH	9	12	[0, 0, 0]	n/a	FR1	0	R1420T
1444.847	0.833	1461314	WORD_OFF	n/a	n/a	TOOTH	9	12	[0, 0, 0]	n/a	FR1	0	R1420T
1445.68	1.617	1462144	WORD	n/a	wordpools/wordpool_long_EN.txt	CORD	10	12	[0, 0, 0]	n/a	FR1	0	R1420T
1447.297	0.933	1463758	WORD_OFF	n/a	n/a	CORD	10	12	[0, 0, 0]	n/a	FR1	0	R1420T
1448.23	1.6	1464696	WORD	n/a	wordpools/wordpool_long_EN.txt	RAFT	11	12	[0, 0, 0]	n/a	FR1	0	R1420T
1449.83	0.95	1466292	WORD_OFF	n/a	n/a	RAFT	11	12	[0, 0, 0]	n/a	FR1	0	R1420T
1450.78	1.6	1467239	WORD	n/a	wordpools/wordpool_long_EN.txt	HOOK	12	12	[0, 0, 0]	n/a	FR1	0	R1420T
1452.38	0.002	1468841	PROB	0.002	n/a	n/a	-999	12	[1, 1, 1]	3	FR1	0	R1420T
1452.382	0.0	1468843	START	n/a	n/a	n/a	-999	12	[-999, -999, -999]	n/a	FR1	0	R1420T
1452.38	0.002	1468844	WORD_OFF	n/a	n/a	HOOK	12	12	[0, 0, 0]	n/a	FR1	0	R1420T
1452.382	0.0	1468844	ENCODING_END	n/a	n/a	n/a	-999	12	[0, 0, 0]	n/a	FR1	0	R1420T
1452.382	4.416	1468844	DISTRACT_START	n/a	n/a	n/a	-999	12	[0, 0, 0]	n/a	FR1	0	R1420T
1456.798	5.649	1473259	PROB	5.649	n/a	n/a	-999	12	[6, 2, 3]	11	FR1	0	R1420T
1462.447	7.35	1478908	PROB	7.35	n/a	n/a	-999	12	[1, 6, 6]	13	FR1	0	R1420T
1469.797	8.067	1486257	PROB	8.067	n/a	n/a	-999	12	[2, 1, 3]	6	FR1	0	R1420T
1477.864	0.0	1494320	DISTRACT_END	n/a	n/a	n/a	-999	12	[0, 0, 0]	n/a	FR1	0	R1420T
1477.864	2.35	1494324	STOP	n/a	n/a	n/a	-999	12	[-999, -999, -999]	n/a	FR1	0	R1420T
1480.214	6.4	1496673	REC_START	n/a	n/a	n/a	-999	12	[0, 0, 0]	n/a	FR1	0	R1420T
1486.614	0.527	1503074	REC_WORD_VV	0.527	n/a	<>	-999	12	[0, 0, 0]	n/a	FR1	0	R1420T
1487.141	9.97	1503601	REC_WORD	9.97	n/a	PEA	8	12	[0, 0, 0]	n/a	FR1	0	R1420T
1497.111	13.398	1513570	REC_WORD	13.398	n/a	ROD	7	12	[0, 0, 0]	n/a	FR1	0	R1420T
1510.509	0.0	1526966	REC_END	n/a	n/a	n/a	-999	12	[0, 0, 0]	n/a	FR1	0	R1420T
