onset	duration	sample	trial_type	response_time	stim_file	item_name	serialpos	list	test	answer	experiment	session	subject
0.0	146.445	-1	INSTRUCT_START	n/a	n/a	n/a	-999	-999	[0, 0, 0]	n/a	FR1	0	R1315T
146.445	54.609	299	INSTRUCT_START	n/a	n/a	n/a	-999	-999	[0, 0, 0]	n/a	FR1	0	R1315T
201.054	8.434	54906	INSTRUCT_END	n/a	n/a	n/a	-999	-999	[0, 0, 0]	n/a	FR1	0	R1315T
209.488	6.657	63339	MIC TEST_START	n/a	n/a	n/a	-999	-999	[0, 0, 0]	n/a	FR1	0	R1315T
216.145	0.011	69996	MIC TEST_END	n/a	n/a	n/a	-999	-999	[0, 0, 0]	n/a	FR1	0	R1315T
216.156	0.0	70007	TRIAL_START	n/a	n/a	n/a	-999	-1	[0, 0, 0]	n/a	FR1	0	R1315T
216.156	0.001	70007	TRIAL	n/a	n/a	n/a	-999	-1	[0, 0, 0]	n/a	FR1	0	R1315T
216.157	31.539	70008	WAITING_START	n/a	n/a	n/a	-999	-1	[0, 0, 0]	n/a	FR1	0	R1315T
247.696	0.0	101546	COUNTDOWN_START	n/a	n/a	n/a	-999	-1	[0, 0, 0]	n/a	FR1	0	R1315T
247.696	10.429	101546	WAITING_END	n/a	n/a	n/a	-999	-1	[0, 0, 0]	n/a	FR1	0	R1315T
258.125	0.0	111974	COUNTDOWN_END	n/a	n/a	n/a	-999	-1	[0, 0, 0]	n/a	FR1	0	R1315T
258.125	1.039	111974	ORIENT_START	n/a	n/a	n/a	-999	-1	[0, 0, 0]	n/a	FR1	0	R1315T
259.164	0.0	113013	ORIENT_END	n/a	n/a	n/a	-999	-1	[0, 0, 0]	n/a	FR1	0	R1315T
259.164	1.115	113013	ENCODING_START	n/a	n/a	n/a	-999	-1	[0, 0, 0]	n/a	FR1	0	R1315T
260.279	1.636	114128	WORD	n/a	n/a	CHEST	1	-1	[0, 0, 0]	n/a	FR1	0	R1315T
261.915	0.821	115764	WORD_OFF	n/a	n/a	CHEST	1	-1	[0, 0, 0]	n/a	FR1	0	R1315T
262.736	1.629	116585	WORD	n/a	n/a	RING	2	-1	[0, 0, 0]	n/a	FR1	0	R1315T
264.365	0.88	118214	WORD_OFF	n/a	n/a	RING	2	-1	[0, 0, 0]	n/a	FR1	0	R1315T
265.245	1.637	119094	WORD	n/a	n/a	COTTON	3	-1	[0, 0, 0]	n/a	FR1	0	R1315T
266.882	1.055	120731	WORD_OFF	n/a	n/a	COTTON	3	-1	[0, 0, 0]	n/a	FR1	0	R1315T
267.937	1.629	121786	WORD	n/a	n/a	RHINO	4	-1	[0, 0, 0]	n/a	FR1	0	R1315T
269.566	0.949	123415	WORD_OFF	n/a	n/a	RHINO	4	-1	[0, 0, 0]	n/a	FR1	0	R1315T
270.515	1.635	124364	WORD	n/a	n/a	CAMEL	5	-1	[0, 0, 0]	n/a	FR1	0	R1315T
272.15	1.102	125998	WORD_OFF	n/a	n/a	CAMEL	5	-1	[0, 0, 0]	n/a	FR1	0	R1315T
273.252	1.631	127100	WORD	n/a	n/a	BEAM	6	-1	[0, 0, 0]	n/a	FR1	0	R1315T
274.883	0.993	128731	WORD_OFF	n/a	n/a	BEAM	6	-1	[0, 0, 0]	n/a	FR1	0	R1315T
275.876	1.625	129724	WORD	n/a	n/a	FLOOD	7	-1	[0, 0, 0]	n/a	FR1	0	R1315T
277.501	0.882	131349	WORD_OFF	n/a	n/a	FLOOD	7	-1	[0, 0, 0]	n/a	FR1	0	R1315T
278.383	1.635	132231	WORD	n/a	n/a	TONGUE	8	-1	[0, 0, 0]	n/a	FR1	0	R1315T
280.018	1.069	133866	WORD_OFF	n/a	n/a	TONGUE	8	-1	[0, 0, 0]	n/a	FR1	0	R1315T
281.087	1.631	134935	WORD	n/a	n/a	WATCH	9	-1	[0, 0, 0]	n/a	FR1	0	R1315T
282.718	1.02	136566	WORD_OFF	n/a	n/a	WATCH	9	-1	[0, 0, 0]	n/a	FR1	0	R1315T
283.738	1.631	137586	WORD	n/a	n/a	BABY	10	-1	[0, 0, 0]	n/a	FR1	0	R1315T
285.369	0.891	139217	WORD_OFF	n/a	n/a	BABY	10	-1	[0, 0, 0]	n/a	FR1	0	R1315T
286.26	1.626	140108	WORD	n/a	n/a	IMAGE	11	-1	[0, 0, 0]	n/a	FR1	0	R1315T
287.886	0.753	141734	WORD_OFF	n/a	n/a	IMAGE	11	-1	[0, 0, 0]	n/a	FR1	0	R1315T
288.639	1.63	142487	WORD	n/a	n/a	WAGON	12	-1	[0, 0, 0]	n/a	FR1	0	R1315T
290.269	0.001	144117	WORD_OFF	n/a	n/a	WAGON	12	-1	[0, 0, 0]	n/a	FR1	0	R1315T
290.27	0.0	144118	ENCODING_END	n/a	n/a	n/a	-999	-1	[0, 0, 0]	n/a	FR1	0	R1315T
290.27	0.0	144118	DISTRACT_START	n/a	n/a	n/a	-999	-1	[0, 0, 0]	n/a	FR1	0	R1315T
290.27	0.016	144118	START	n/a	n/a	n/a	-999	-1	[-999, -999, -999]	n/a	FR1	0	R1315T
290.286	17.57	144134	PROB	17.57	n/a	n/a	-999	-1	[8, 7, 8]	23	FR1	0	R1315T
307.856	6.224	161703	PROB	6.224	n/a	n/a	-999	-1	[2, 5, 7]	14	FR1	0	R1315T
314.08	0.01	167927	STOP	n/a	n/a	n/a	-999	-1	[-999, -999, -999]	n/a	FR1	0	R1315T
314.09	0.601	167937	DISTRACT_END	n/a	n/a	n/a	-999	-1	[0, 0, 0]	n/a	FR1	0	R1315T
314.691	1.65	168538	RETRIEVAL_ORIENT_START	n/a	n/a	n/a	-999	-1	[0, 0, 0]	n/a	FR1	0	R1315T
316.341	0.0	170187	RETRIEVAL_ORIENT_END	n/a	n/a	n/a	-999	-1	[0, 0, 0]	n/a	FR1	0	R1315T
316.341	1.17	170187	REC_START	n/a	n/a	n/a	-999	-1	[0, 0, 0]	n/a	FR1	0	R1315T
317.511	0.785	171357	REC_WORD	0.785	n/a	FLOOD	-999	-1	[0, 0, 0]	n/a	FR1	0	R1315T
318.296	28.057	172142	REC_WORD	28.057	n/a	WATCH	-999	-1	[0, 0, 0]	n/a	FR1	0	R1315T
346.353	0.0	200198	REC_END	n/a	n/a	n/a	-999	-1	[0, 0, 0]	n/a	FR1	0	R1315T
346.353	8.597	200198	PRACTICE_POST_INSTRUCT_START	n/a	n/a	n/a	-999	-1	[0, 0, 0]	n/a	FR1	0	R1315T
354.95	0.0	208795	PRACTICE_POST_INSTRUCT_END	n/a	n/a	n/a	-999	-1	[0, 0, 0]	n/a	FR1	0	R1315T
354.95	0.017	208795	TRIAL_END	n/a	n/a	n/a	-999	-1	[0, 0, 0]	n/a	FR1	0	R1315T
354.967	0.0	208812	TRIAL_START	n/a	n/a	n/a	-999	1	[0, 0, 0]	n/a	FR1	0	R1315T
354.967	0.0	208812	TRIAL	n/a	n/a	n/a	-999	1	[0, 0, 0]	n/a	FR1	0	R1315T
354.967	3.448	208812	WAITING_START	n/a	n/a	n/a	-999	1	[0, 0, 0]	n/a	FR1	0	R1315T
358.415	0.001	212260	WAITING_END	n/a	n/a	n/a	-999	1	[0, 0, 0]	n/a	FR1	0	R1315T
358.416	10.429	212261	COUNTDOWN_START	n/a	n/a	n/a	-999	1	[0, 0, 0]	n/a	FR1	0	R1315T
368.845	0.0	222689	COUNTDOWN_END	n/a	n/a	n/a	-999	1	[0, 0, 0]	n/a	FR1	0	R1315T
368.845	1.122	222689	ORIENT_START	n/a	n/a	n/a	-999	1	[0, 0, 0]	n/a	FR1	0	R1315T
369.967	0.001	223811	ORIENT_END	n/a	n/a	n/a	-999	1	[0, 0, 0]	n/a	FR1	0	R1315T
369.968	0.99	223812	ENCODING_START	n/a	n/a	n/a	-999	1	[0, 0, 0]	n/a	FR1	0	R1315T
370.958	1.626	224802	WORD	n/a	wordpools/wordpool_EN.txt	FARM	1	1	[0, 0, 0]	n/a	FR1	0	R1315T
372.584	0.787	226428	WORD_OFF	n/a	n/a	FARM	1	1	[0, 0, 0]	n/a	FR1	0	R1315T
373.371	1.631	227215	WORD	n/a	wordpools/wordpool_EN.txt	ROSE	2	1	[0, 0, 0]	n/a	FR1	0	R1315T
375.002	0.871	228846	WORD_OFF	n/a	n/a	ROSE	2	1	[0, 0, 0]	n/a	FR1	0	R1315T
375.873	1.629	229717	WORD	n/a	wordpools/wordpool_EN.txt	SAIL	3	1	[0, 0, 0]	n/a	FR1	0	R1315T
377.502	0.958	231346	WORD_OFF	n/a	n/a	SAIL	3	1	[0, 0, 0]	n/a	FR1	0	R1315T
378.46	1.626	232304	WORD	n/a	wordpools/wordpool_EN.txt	BREAD	4	1	[0, 0, 0]	n/a	FR1	0	R1315T
380.086	0.984	233930	WORD_OFF	n/a	n/a	BREAD	4	1	[0, 0, 0]	n/a	FR1	0	R1315T
381.07	1.633	234914	WORD	n/a	wordpools/wordpool_EN.txt	BEAR	5	1	[0, 0, 0]	n/a	FR1	0	R1315T
382.703	0.752	236547	WORD_OFF	n/a	n/a	BEAR	5	1	[0, 0, 0]	n/a	FR1	0	R1315T
383.455	1.632	237298	WORD	n/a	wordpools/wordpool_EN.txt	GATE	6	1	[0, 0, 0]	n/a	FR1	0	R1315T
385.087	0.894	238930	WORD_OFF	n/a	n/a	GATE	6	1	[0, 0, 0]	n/a	FR1	0	R1315T
385.981	1.623	239824	WORD	n/a	wordpools/wordpool_EN.txt	NET	7	1	[0, 0, 0]	n/a	FR1	0	R1315T
387.604	1.014	241447	WORD_OFF	n/a	n/a	NET	7	1	[0, 0, 0]	n/a	FR1	0	R1315T
388.618	1.636	242461	WORD	n/a	wordpools/wordpool_EN.txt	LAMB	8	1	[0, 0, 0]	n/a	FR1	0	R1315T
390.254	0.852	244097	WORD_OFF	n/a	n/a	LAMB	8	1	[0, 0, 0]	n/a	FR1	0	R1315T
391.106	1.632	244949	WORD	n/a	wordpools/wordpool_EN.txt	MOUTH	9	1	[0, 0, 0]	n/a	FR1	0	R1315T
392.738	0.872	246581	WORD_OFF	n/a	n/a	MOUTH	9	1	[0, 0, 0]	n/a	FR1	0	R1315T
393.61	1.629	247453	WORD	n/a	wordpools/wordpool_EN.txt	COUCH	10	1	[0, 0, 0]	n/a	FR1	0	R1315T
395.239	1.044	249082	WORD_OFF	n/a	n/a	COUCH	10	1	[0, 0, 0]	n/a	FR1	0	R1315T
396.283	1.624	250126	WORD	n/a	wordpools/wordpool_EN.txt	LAKE	11	1	[0, 0, 0]	n/a	FR1	0	R1315T
397.907	1.127	251750	WORD_OFF	n/a	n/a	LAKE	11	1	[0, 0, 0]	n/a	FR1	0	R1315T
399.034	1.622	252877	WORD	n/a	wordpools/wordpool_EN.txt	SHIP	12	1	[0, 0, 0]	n/a	FR1	0	R1315T
400.656	0.001	254499	WORD_OFF	n/a	n/a	SHIP	12	1	[0, 0, 0]	n/a	FR1	0	R1315T
400.657	0.0	254500	ENCODING_END	n/a	n/a	n/a	-999	1	[0, 0, 0]	n/a	FR1	0	R1315T
400.657	0.0	254500	DISTRACT_START	n/a	n/a	n/a	-999	1	[0, 0, 0]	n/a	FR1	0	R1315T
400.657	0.016	254500	START	n/a	n/a	n/a	-999	1	[-999, -999, -999]	n/a	FR1	0	R1315T
400.673	27.264	254516	PROB	27.264	n/a	n/a	-999	1	[7, 9, 7]	21	FR1	0	R1315T
427.937	0.008	281778	STOP	n/a	n/a	n/a	-999	1	[-999, -999, -999]	n/a	FR1	0	R1315T
427.945	0.563	281786	DISTRACT_END	n/a	n/a	n/a	-999	1	[0, 0, 0]	n/a	FR1	0	R1315T
428.508	1.587	282349	RETRIEVAL_ORIENT_START	n/a	n/a	n/a	-999	1	[0, 0, 0]	n/a	FR1	0	R1315T
430.095	0.0	283936	RETRIEVAL_ORIENT_END	n/a	n/a	n/a	-999	1	[0, 0, 0]	n/a	FR1	0	R1315T
430.095	0.782	283936	REC_START	n/a	n/a	n/a	-999	1	[0, 0, 0]	n/a	FR1	0	R1315T
430.877	1.629	284718	REC_WORD	1.629	n/a	FARM	1	1	[0, 0, 0]	n/a	FR1	0	R1315T
432.506	2.481	286347	REC_WORD	2.481	n/a	ROSE	2	1	[0, 0, 0]	n/a	FR1	0	R1315T
434.987	0.85	288828	REC_WORD	0.85	n/a	NET	7	1	[0, 0, 0]	n/a	FR1	0	R1315T
435.837	24.27	289678	REC_WORD	24.27	n/a	SNAIL	-999	1	[0, 0, 0]	n/a	FR1	0	R1315T
460.107	0.0	313947	REC_END	n/a	n/a	n/a	-999	1	[0, 0, 0]	n/a	FR1	0	R1315T
460.107	0.014	313947	TRIAL_END	n/a	n/a	n/a	-999	1	[0, 0, 0]	n/a	FR1	0	R1315T
460.121	0.0	313961	TRIAL_START	n/a	n/a	n/a	-999	2	[0, 0, 0]	n/a	FR1	0	R1315T
460.121	0.0	313961	TRIAL	n/a	n/a	n/a	-999	2	[0, 0, 0]	n/a	FR1	0	R1315T
460.121	2.43	313961	WAITING_START	n/a	n/a	n/a	-999	2	[0, 0, 0]	n/a	FR1	0	R1315T
462.551	0.0	316391	COUNTDOWN_START	n/a	n/a	n/a	-999	2	[0, 0, 0]	n/a	FR1	0	R1315T
462.551	10.429	316391	WAITING_END	n/a	n/a	n/a	-999	2	[0, 0, 0]	n/a	FR1	0	R1315T
472.98	0.001	326819	COUNTDOWN_END	n/a	n/a	n/a	-999	2	[0, 0, 0]	n/a	FR1	0	R1315T
472.981	1.105	326820	ORIENT_START	n/a	n/a	n/a	-999	2	[0, 0, 0]	n/a	FR1	0	R1315T
474.086	0.001	327925	ORIENT_END	n/a	n/a	n/a	-999	2	[0, 0, 0]	n/a	FR1	0	R1315T
474.087	0.931	327926	ENCODING_START	n/a	n/a	n/a	-999	2	[0, 0, 0]	n/a	FR1	0	R1315T
475.018	1.635	328857	WORD	n/a	wordpools/wordpool_EN.txt	SUN	1	2	[0, 0, 0]	n/a	FR1	0	R1315T
476.653	1.078	330492	WORD_OFF	n/a	n/a	SUN	1	2	[0, 0, 0]	n/a	FR1	0	R1315T
477.731	1.623	331570	WORD	n/a	wordpools/wordpool_EN.txt	MAP	2	2	[0, 0, 0]	n/a	FR1	0	R1315T
479.354	0.8	333193	WORD_OFF	n/a	n/a	MAP	2	2	[0, 0, 0]	n/a	FR1	0	R1315T
480.154	1.634	333993	WORD	n/a	wordpools/wordpool_EN.txt	MOON	3	2	[0, 0, 0]	n/a	FR1	0	R1315T
481.788	0.836	335627	WORD_OFF	n/a	n/a	MOON	3	2	[0, 0, 0]	n/a	FR1	0	R1315T
482.624	1.631	336463	WORD	n/a	wordpools/wordpool_EN.txt	DRESS	4	2	[0, 0, 0]	n/a	FR1	0	R1315T
484.255	1.047	338094	WORD_OFF	n/a	n/a	DRESS	4	2	[0, 0, 0]	n/a	FR1	0	R1315T
485.302	1.621	339141	WORD	n/a	wordpools/wordpool_EN.txt	FROG	5	2	[0, 0, 0]	n/a	FR1	0	R1315T
486.923	1.143	340762	WORD_OFF	n/a	n/a	FROG	5	2	[0, 0, 0]	n/a	FR1	0	R1315T
488.066	1.623	341905	WORD	n/a	wordpools/wordpool_EN.txt	GRAPE	6	2	[0, 0, 0]	n/a	FR1	0	R1315T
489.689	1.142	343528	WORD_OFF	n/a	n/a	GRAPE	6	2	[0, 0, 0]	n/a	FR1	0	R1315T
490.831	1.625	344670	WORD	n/a	wordpools/wordpool_EN.txt	BOOK	7	2	[0, 0, 0]	n/a	FR1	0	R1315T
492.456	0.844	346295	WORD_OFF	n/a	n/a	BOOK	7	2	[0, 0, 0]	n/a	FR1	0	R1315T
493.3	1.607	347139	WORD	n/a	wordpools/wordpool_EN.txt	TAIL	8	2	[0, 0, 0]	n/a	FR1	0	R1315T
494.907	1.035	348745	WORD_OFF	n/a	n/a	TAIL	8	2	[0, 0, 0]	n/a	FR1	0	R1315T
495.942	1.632	349780	WORD	n/a	wordpools/wordpool_EN.txt	EGG	9	2	[0, 0, 0]	n/a	FR1	0	R1315T
497.574	0.921	351412	WORD_OFF	n/a	n/a	EGG	9	2	[0, 0, 0]	n/a	FR1	0	R1315T
498.495	1.629	352333	WORD	n/a	wordpools/wordpool_EN.txt	CAKE	10	2	[0, 0, 0]	n/a	FR1	0	R1315T
500.124	0.833	353962	WORD_OFF	n/a	n/a	CAKE	10	2	[0, 0, 0]	n/a	FR1	0	R1315T
500.957	1.634	354795	WORD	n/a	wordpools/wordpool_EN.txt	SEAT	11	2	[0, 0, 0]	n/a	FR1	0	R1315T
502.591	1.047	356429	WORD_OFF	n/a	n/a	SEAT	11	2	[0, 0, 0]	n/a	FR1	0	R1315T
503.638	1.637	357476	WORD	n/a	wordpools/wordpool_EN.txt	TOOL	12	2	[0, 0, 0]	n/a	FR1	0	R1315T
505.275	0.001	359113	WORD_OFF	n/a	n/a	TOOL	12	2	[0, 0, 0]	n/a	FR1	0	R1315T
505.276	0.0	359114	ENCODING_END	n/a	n/a	n/a	-999	2	[0, 0, 0]	n/a	FR1	0	R1315T
505.276	0.0	359114	DISTRACT_START	n/a	n/a	n/a	-999	2	[0, 0, 0]	n/a	FR1	0	R1315T
505.276	0.016	359114	START	n/a	n/a	n/a	-999	2	[-999, -999, -999]	n/a	FR1	0	R1315T
505.292	8.735	359130	PROB	8.735	n/a	n/a	-999	2	[9, 7, 5]	21	FR1	0	R1315T
514.027	5.484	367865	PROB	5.484	n/a	n/a	-999	2	[9, 5, 9]	22	FR1	0	R1315T
519.511	4.567	373348	PROB	4.567	n/a	n/a	-999	2	[1, 3, 6]	10	FR1	0	R1315T
524.078	3.514	377915	PROB	3.514	n/a	n/a	-999	2	[2, 2, 8]	12	FR1	0	R1315T
527.592	0.021	381429	STOP	n/a	n/a	n/a	-999	2	[-999, -999, -999]	n/a	FR1	0	R1315T
527.613	0.583	381450	DISTRACT_END	n/a	n/a	n/a	-999	2	[0, 0, 0]	n/a	FR1	0	R1315T
528.196	1.534	382033	RETRIEVAL_ORIENT_START	n/a	n/a	n/a	-999	2	[0, 0, 0]	n/a	FR1	0	R1315T
529.73	0.0	383567	RETRIEVAL_ORIENT_END	n/a	n/a	n/a	-999	2	[0, 0, 0]	n/a	FR1	0	R1315T
529.73	1.215	383567	REC_START	n/a	n/a	n/a	-999	2	[0, 0, 0]	n/a	FR1	0	R1315T
530.945	0.811	384782	REC_WORD	0.811	n/a	MOON	3	2	[0, 0, 0]	n/a	FR1	0	R1315T
531.756	18.122	385593	REC_WORD	18.122	n/a	SUN	1	2	[0, 0, 0]	n/a	FR1	0	R1315T
549.878	9.864	403714	REC_WORD	9.864	n/a	SEA	-999	2	[0, 0, 0]	n/a	FR1	0	R1315T
559.742	0.001	413578	REC_END	n/a	n/a	n/a	-999	2	[0, 0, 0]	n/a	FR1	0	R1315T
559.743	0.014	413579	TRIAL_END	n/a	n/a	n/a	-999	2	[0, 0, 0]	n/a	FR1	0	R1315T
559.757	0.001	413593	TRIAL_START	n/a	n/a	n/a	-999	3	[0, 0, 0]	n/a	FR1	0	R1315T
559.758	0.0	413594	TRIAL	n/a	n/a	n/a	-999	3	[0, 0, 0]	n/a	FR1	0	R1315T
559.758	2.844	413594	WAITING_START	n/a	n/a	n/a	-999	3	[0, 0, 0]	n/a	FR1	0	R1315T
562.602	0.001	416437	WAITING_END	n/a	n/a	n/a	-999	3	[0, 0, 0]	n/a	FR1	0	R1315T
562.603	10.428	416438	COUNTDOWN_START	n/a	n/a	n/a	-999	3	[0, 0, 0]	n/a	FR1	0	R1315T
573.031	0.001	426866	COUNTDOWN_END	n/a	n/a	n/a	-999	3	[0, 0, 0]	n/a	FR1	0	R1315T
573.032	1.172	426867	ORIENT_START	n/a	n/a	n/a	-999	3	[0, 0, 0]	n/a	FR1	0	R1315T
574.204	0.001	428039	ORIENT_END	n/a	n/a	n/a	-999	3	[0, 0, 0]	n/a	FR1	0	R1315T
574.205	0.758	428040	ENCODING_START	n/a	n/a	n/a	-999	3	[0, 0, 0]	n/a	FR1	0	R1315T
574.963	1.625	428798	WORD	n/a	wordpools/wordpool_EN.txt	WORLD	1	3	[0, 0, 0]	n/a	FR1	0	R1315T
576.588	1.117	430423	WORD_OFF	n/a	n/a	WORLD	1	3	[0, 0, 0]	n/a	FR1	0	R1315T
577.705	1.634	431540	WORD	n/a	wordpools/wordpool_EN.txt	PEA	2	3	[0, 0, 0]	n/a	FR1	0	R1315T
579.339	0.768	433174	WORD_OFF	n/a	n/a	PEA	2	3	[0, 0, 0]	n/a	FR1	0	R1315T
580.107	1.632	433942	WORD	n/a	wordpools/wordpool_EN.txt	PURSE	3	3	[0, 0, 0]	n/a	FR1	0	R1315T
581.739	0.889	435574	WORD_OFF	n/a	n/a	PURSE	3	3	[0, 0, 0]	n/a	FR1	0	R1315T
582.628	1.628	436463	WORD	n/a	wordpools/wordpool_EN.txt	FUR	4	3	[0, 0, 0]	n/a	FR1	0	R1315T
584.256	1.036	438090	WORD_OFF	n/a	n/a	FUR	4	3	[0, 0, 0]	n/a	FR1	0	R1315T
585.292	1.632	439126	WORD	n/a	wordpools/wordpool_EN.txt	SEED	5	3	[0, 0, 0]	n/a	FR1	0	R1315T
586.924	0.889	440758	WORD_OFF	n/a	n/a	SEED	5	3	[0, 0, 0]	n/a	FR1	0	R1315T
587.813	1.628	441647	WORD	n/a	wordpools/wordpool_EN.txt	SLIME	6	3	[0, 0, 0]	n/a	FR1	0	R1315T
589.441	1.118	443275	WORD_OFF	n/a	n/a	SLIME	6	3	[0, 0, 0]	n/a	FR1	0	R1315T
590.559	1.632	444393	WORD	n/a	wordpools/wordpool_EN.txt	STAR	7	3	[0, 0, 0]	n/a	FR1	0	R1315T
592.191	1.145	446025	WORD_OFF	n/a	n/a	STAR	7	3	[0, 0, 0]	n/a	FR1	0	R1315T
593.336	1.606	447170	WORD	n/a	wordpools/wordpool_EN.txt	SMILE	8	3	[0, 0, 0]	n/a	FR1	0	R1315T
594.942	1.016	448776	WORD_OFF	n/a	n/a	SMILE	8	3	[0, 0, 0]	n/a	FR1	0	R1315T
595.958	1.634	449792	WORD	n/a	wordpools/wordpool_EN.txt	CLOTH	9	3	[0, 0, 0]	n/a	FR1	0	R1315T
597.592	0.875	451426	WORD_OFF	n/a	n/a	CLOTH	9	3	[0, 0, 0]	n/a	FR1	0	R1315T
598.467	1.625	452301	WORD	n/a	wordpools/wordpool_EN.txt	MAIL	10	3	[0, 0, 0]	n/a	FR1	0	R1315T
600.092	1.056	453926	WORD_OFF	n/a	n/a	MAIL	10	3	[0, 0, 0]	n/a	FR1	0	R1315T
601.148	1.628	454982	WORD	n/a	wordpools/wordpool_EN.txt	YARD	11	3	[0, 0, 0]	n/a	FR1	0	R1315T
602.776	1.085	456610	WORD_OFF	n/a	n/a	YARD	11	3	[0, 0, 0]	n/a	FR1	0	R1315T
603.861	1.632	457695	WORD	n/a	wordpools/wordpool_EN.txt	BAG	12	3	[0, 0, 0]	n/a	FR1	0	R1315T
605.493	0.001	459327	WORD_OFF	n/a	n/a	BAG	12	3	[0, 0, 0]	n/a	FR1	0	R1315T
605.494	0.0	459328	ENCODING_END	n/a	n/a	n/a	-999	3	[0, 0, 0]	n/a	FR1	0	R1315T
605.494	0.0	459328	DISTRACT_START	n/a	n/a	n/a	-999	3	[0, 0, 0]	n/a	FR1	0	R1315T
605.494	0.016	459328	START	n/a	n/a	n/a	-999	3	[-999, -999, -999]	n/a	FR1	0	R1315T
605.51	3.267	459344	PROB	3.267	n/a	n/a	-999	3	[4, 8, 6]	18	FR1	0	R1315T
608.777	2.717	462610	PROB	2.717	n/a	n/a	-999	3	[3, 9, 1]	13	FR1	0	R1315T
611.494	9.635	465327	PROB	9.635	n/a	n/a	-999	3	[8, 5, 8]	21	FR1	0	R1315T
621.129	3.684	474962	PROB	3.684	n/a	n/a	-999	3	[4, 1, 2]	7	FR1	0	R1315T
624.813	3.247	478646	PROB	3.247	n/a	n/a	-999	3	[2, 4, 3]	9	FR1	0	R1315T
628.06	0.021	481893	STOP	n/a	n/a	n/a	-999	3	[-999, -999, -999]	n/a	FR1	0	R1315T
628.081	0.652	481914	DISTRACT_END	n/a	n/a	n/a	-999	3	[0, 0, 0]	n/a	FR1	0	R1315T
628.733	1.698	482566	RETRIEVAL_ORIENT_START	n/a	n/a	n/a	-999	3	[0, 0, 0]	n/a	FR1	0	R1315T
630.431	0.001	484263	RETRIEVAL_ORIENT_END	n/a	n/a	n/a	-999	3	[0, 0, 0]	n/a	FR1	0	R1315T
630.432	3.651	484264	REC_START	n/a	n/a	n/a	-999	3	[0, 0, 0]	n/a	FR1	0	R1315T
634.083	6.616	487915	REC_WORD	6.616	n/a	CLOTH	9	3	[0, 0, 0]	n/a	FR1	0	R1315T
640.699	19.745	494531	REC_WORD	19.745	n/a	WORLD	1	3	[0, 0, 0]	n/a	FR1	0	R1315T
660.444	0.001	514275	REC_END	n/a	n/a	n/a	-999	3	[0, 0, 0]	n/a	FR1	0	R1315T
660.445	0.015	514276	TRIAL_END	n/a	n/a	n/a	-999	3	[0, 0, 0]	n/a	FR1	0	R1315T
660.46	0.0	514291	TRIAL_START	n/a	n/a	n/a	-999	4	[0, 0, 0]	n/a	FR1	0	R1315T
660.46	0.0	514291	TRIAL	n/a	n/a	n/a	-999	4	[0, 0, 0]	n/a	FR1	0	R1315T
660.46	1.644	514291	WAITING_START	n/a	n/a	n/a	-999	4	[0, 0, 0]	n/a	FR1	0	R1315T
662.104	0.0	515935	WAITING_END	n/a	n/a	n/a	-999	4	[0, 0, 0]	n/a	FR1	0	R1315T
662.104	10.429	515935	COUNTDOWN_START	n/a	n/a	n/a	-999	4	[0, 0, 0]	n/a	FR1	0	R1315T
672.533	0.0	526364	ORIENT_START	n/a	n/a	n/a	-999	4	[0, 0, 0]	n/a	FR1	0	R1315T
672.533	1.023	526364	COUNTDOWN_END	n/a	n/a	n/a	-999	4	[0, 0, 0]	n/a	FR1	0	R1315T
673.556	0.0	527387	ORIENT_END	n/a	n/a	n/a	-999	4	[0, 0, 0]	n/a	FR1	0	R1315T
673.556	0.82	527387	ENCODING_START	n/a	n/a	n/a	-999	4	[0, 0, 0]	n/a	FR1	0	R1315T
674.376	1.63	528206	WORD	n/a	wordpools/wordpool_EN.txt	EAR	1	4	[0, 0, 0]	n/a	FR1	0	R1315T
676.006	0.856	529836	WORD_OFF	n/a	n/a	EAR	1	4	[0, 0, 0]	n/a	FR1	0	R1315T
676.862	1.628	530692	WORD	n/a	wordpools/wordpool_EN.txt	GLASS	2	4	[0, 0, 0]	n/a	FR1	0	R1315T
678.49	0.903	532320	WORD_OFF	n/a	n/a	GLASS	2	4	[0, 0, 0]	n/a	FR1	0	R1315T
679.393	1.631	533223	WORD	n/a	wordpools/wordpool_EN.txt	ROAD	3	4	[0, 0, 0]	n/a	FR1	0	R1315T
681.024	1.115	534854	WORD_OFF	n/a	n/a	ROAD	3	4	[0, 0, 0]	n/a	FR1	0	R1315T
682.139	1.635	535969	WORD	n/a	wordpools/wordpool_EN.txt	STEM	4	4	[0, 0, 0]	n/a	FR1	0	R1315T
683.774	1.023	537604	WORD_OFF	n/a	n/a	STEM	4	4	[0, 0, 0]	n/a	FR1	0	R1315T
684.797	1.628	538627	WORD	n/a	wordpools/wordpool_EN.txt	SINK	5	4	[0, 0, 0]	n/a	FR1	0	R1315T
686.425	1.054	540255	WORD_OFF	n/a	n/a	SINK	5	4	[0, 0, 0]	n/a	FR1	0	R1315T
687.479	1.63	541309	WORD	n/a	wordpools/wordpool_EN.txt	TENT	6	4	[0, 0, 0]	n/a	FR1	0	R1315T
689.109	0.967	542939	WORD_OFF	n/a	n/a	TENT	6	4	[0, 0, 0]	n/a	FR1	0	R1315T
690.076	1.633	543906	WORD	n/a	wordpools/wordpool_EN.txt	BLOOM	7	4	[0, 0, 0]	n/a	FR1	0	R1315T
691.709	1.024	545539	WORD_OFF	n/a	n/a	BLOOM	7	4	[0, 0, 0]	n/a	FR1	0	R1315T
692.733	1.627	546563	WORD	n/a	wordpools/wordpool_EN.txt	CAPE	8	4	[0, 0, 0]	n/a	FR1	0	R1315T
694.36	0.892	548190	WORD_OFF	n/a	n/a	CAPE	8	4	[0, 0, 0]	n/a	FR1	0	R1315T
695.252	1.625	549082	WORD	n/a	wordpools/wordpool_EN.txt	WORM	9	4	[0, 0, 0]	n/a	FR1	0	R1315T
696.877	0.839	550706	WORD_OFF	n/a	n/a	WORM	9	4	[0, 0, 0]	n/a	FR1	0	R1315T
697.716	1.628	551545	WORD	n/a	wordpools/wordpool_EN.txt	BATH	10	4	[0, 0, 0]	n/a	FR1	0	R1315T
699.344	0.922	553173	WORD_OFF	n/a	n/a	BATH	10	4	[0, 0, 0]	n/a	FR1	0	R1315T
700.266	1.628	554095	WORD	n/a	wordpools/wordpool_EN.txt	ROOM	11	4	[0, 0, 0]	n/a	FR1	0	R1315T
701.894	1.121	555723	WORD_OFF	n/a	n/a	ROOM	11	4	[0, 0, 0]	n/a	FR1	0	R1315T
703.015	1.63	556844	WORD	n/a	wordpools/wordpool_EN.txt	WEED	12	4	[0, 0, 0]	n/a	FR1	0	R1315T
704.645	0.0	558474	ENCODING_END	n/a	n/a	n/a	-999	4	[0, 0, 0]	n/a	FR1	0	R1315T
704.645	0.001	558474	WORD_OFF	n/a	n/a	WEED	12	4	[0, 0, 0]	n/a	FR1	0	R1315T
704.646	0.0	558475	DISTRACT_START	n/a	n/a	n/a	-999	4	[0, 0, 0]	n/a	FR1	0	R1315T
704.646	0.015	558475	START	n/a	n/a	n/a	-999	4	[-999, -999, -999]	n/a	FR1	0	R1315T
704.661	4.101	558490	PROB	4.101	n/a	n/a	-999	4	[7, 2, 9]	18	FR1	0	R1315T
708.762	2.8	562591	PROB	2.8	n/a	n/a	-999	4	[9, 4, 1]	14	FR1	0	R1315T
711.562	2.601	565391	PROB	2.601	n/a	n/a	-999	4	[3, 9, 1]	13	FR1	0	R1315T
714.163	6.786	567992	PROB	6.786	n/a	n/a	-999	4	[5, 7, 8]	20	FR1	0	R1315T
720.949	4.24	574777	PROB	4.24	n/a	n/a	-999	4	[4, 6, 1]	11	FR1	0	R1315T
725.189	0.01	579017	STOP	n/a	n/a	n/a	-999	4	[-999, -999, -999]	n/a	FR1	0	R1315T
725.199	0.509	579027	DISTRACT_END	n/a	n/a	n/a	-999	4	[0, 0, 0]	n/a	FR1	0	R1315T
725.708	1.608	579536	RETRIEVAL_ORIENT_START	n/a	n/a	n/a	-999	4	[0, 0, 0]	n/a	FR1	0	R1315T
727.316	0.0	581144	RETRIEVAL_ORIENT_END	n/a	n/a	n/a	-999	4	[0, 0, 0]	n/a	FR1	0	R1315T
727.316	2.498	581144	REC_START	n/a	n/a	n/a	-999	4	[0, 0, 0]	n/a	FR1	0	R1315T
729.814	0.852	583642	REC_WORD	0.852	n/a	STEM	4	4	[0, 0, 0]	n/a	FR1	0	R1315T
730.666	4.665	584494	REC_WORD	4.665	n/a	WEED	12	4	[0, 0, 0]	n/a	FR1	0	R1315T
735.331	21.998	589159	REC_WORD	21.998	n/a	EAR	1	4	[0, 0, 0]	n/a	FR1	0	R1315T
757.329	0.0	611156	REC_END	n/a	n/a	n/a	-999	4	[0, 0, 0]	n/a	FR1	0	R1315T
757.329	0.014	611156	TRIAL_END	n/a	n/a	n/a	-999	4	[0, 0, 0]	n/a	FR1	0	R1315T
757.343	0.0	611170	TRIAL_START	n/a	n/a	n/a	-999	5	[0, 0, 0]	n/a	FR1	0	R1315T
757.343	0.001	611170	TRIAL	n/a	n/a	n/a	-999	5	[0, 0, 0]	n/a	FR1	0	R1315T
757.344	1.444	611171	WAITING_START	n/a	n/a	n/a	-999	5	[0, 0, 0]	n/a	FR1	0	R1315T
758.788	0.001	612615	WAITING_END	n/a	n/a	n/a	-999	5	[0, 0, 0]	n/a	FR1	0	R1315T
758.789	10.428	612616	COUNTDOWN_START	n/a	n/a	n/a	-999	5	[0, 0, 0]	n/a	FR1	0	R1315T
769.217	0.001	623043	COUNTDOWN_END	n/a	n/a	n/a	-999	5	[0, 0, 0]	n/a	FR1	0	R1315T
769.218	1.122	623044	ORIENT_START	n/a	n/a	n/a	-999	5	[0, 0, 0]	n/a	FR1	0	R1315T
770.34	0.001	624166	ORIENT_END	n/a	n/a	n/a	-999	5	[0, 0, 0]	n/a	FR1	0	R1315T
770.341	0.92	624167	ENCODING_START	n/a	n/a	n/a	-999	5	[0, 0, 0]	n/a	FR1	0	R1315T
771.261	1.63	625087	WORD	n/a	wordpools/wordpool_EN.txt	VAN	1	5	[0, 0, 0]	n/a	FR1	0	R1315T
772.891	0.81	626717	WORD_OFF	n/a	n/a	VAN	1	5	[0, 0, 0]	n/a	FR1	0	R1315T
773.701	1.623	627527	WORD	n/a	wordpools/wordpool_EN.txt	SWAMP	2	5	[0, 0, 0]	n/a	FR1	0	R1315T
775.324	0.931	629150	WORD_OFF	n/a	n/a	SWAMP	2	5	[0, 0, 0]	n/a	FR1	0	R1315T
776.255	1.636	630081	WORD	n/a	wordpools/wordpool_EN.txt	KEY	3	5	[0, 0, 0]	n/a	FR1	0	R1315T
777.891	1.12	631717	WORD_OFF	n/a	n/a	KEY	3	5	[0, 0, 0]	n/a	FR1	0	R1315T
779.011	1.631	632837	WORD	n/a	wordpools/wordpool_EN.txt	SPRING	4	5	[0, 0, 0]	n/a	FR1	0	R1315T
780.642	0.842	634468	WORD_OFF	n/a	n/a	SPRING	4	5	[0, 0, 0]	n/a	FR1	0	R1315T
781.484	1.625	635310	WORD	n/a	wordpools/wordpool_EN.txt	CHAIR	5	5	[0, 0, 0]	n/a	FR1	0	R1315T
783.109	1.0	636935	WORD_OFF	n/a	n/a	CHAIR	5	5	[0, 0, 0]	n/a	FR1	0	R1315T
784.109	1.634	637935	WORD	n/a	wordpools/wordpool_EN.txt	PEAR	6	5	[0, 0, 0]	n/a	FR1	0	R1315T
785.743	0.799	639568	WORD_OFF	n/a	n/a	PEAR	6	5	[0, 0, 0]	n/a	FR1	0	R1315T
786.542	1.635	640367	WORD	n/a	wordpools/wordpool_EN.txt	GEESE	7	5	[0, 0, 0]	n/a	FR1	0	R1315T
788.177	0.845	642002	WORD_OFF	n/a	n/a	GEESE	7	5	[0, 0, 0]	n/a	FR1	0	R1315T
789.022	1.622	642847	WORD	n/a	wordpools/wordpool_EN.txt	PIT	8	5	[0, 0, 0]	n/a	FR1	0	R1315T
790.644	0.868	644469	WORD_OFF	n/a	n/a	PIT	8	5	[0, 0, 0]	n/a	FR1	0	R1315T
791.512	1.632	645337	WORD	n/a	wordpools/wordpool_EN.txt	OAR	9	5	[0, 0, 0]	n/a	FR1	0	R1315T
793.144	0.894	646969	WORD_OFF	n/a	n/a	OAR	9	5	[0, 0, 0]	n/a	FR1	0	R1315T
794.038	1.623	647863	WORD	n/a	wordpools/wordpool_EN.txt	SCHOOL	10	5	[0, 0, 0]	n/a	FR1	0	R1315T
795.661	1.116	649486	WORD_OFF	n/a	n/a	SCHOOL	10	5	[0, 0, 0]	n/a	FR1	0	R1315T
796.777	1.635	650602	WORD	n/a	wordpools/wordpool_EN.txt	FISH	11	5	[0, 0, 0]	n/a	FR1	0	R1315T
798.412	0.869	652237	WORD_OFF	n/a	n/a	FISH	11	5	[0, 0, 0]	n/a	FR1	0	R1315T
799.281	1.632	653106	WORD	n/a	wordpools/wordpool_EN.txt	CROW	12	5	[0, 0, 0]	n/a	FR1	0	R1315T
800.913	0.001	654738	WORD_OFF	n/a	n/a	CROW	12	5	[0, 0, 0]	n/a	FR1	0	R1315T
800.914	0.0	654739	ENCODING_END	n/a	n/a	n/a	-999	5	[0, 0, 0]	n/a	FR1	0	R1315T
800.914	0.0	654739	DISTRACT_START	n/a	n/a	n/a	-999	5	[0, 0, 0]	n/a	FR1	0	R1315T
800.914	0.016	654739	START	n/a	n/a	n/a	-999	5	[-999, -999, -999]	n/a	FR1	0	R1315T
800.93	2.683	654755	PROB	2.683	n/a	n/a	-999	5	[6, 5, 5]	11	FR1	0	R1315T
803.613	13.952	657438	PROB	13.952	n/a	n/a	-999	5	[9, 3, 6]	18	FR1	0	R1315T
817.565	11.402	671389	PROB	11.402	n/a	n/a	-999	5	[7, 7, 7]	21	FR1	0	R1315T
828.967	0.017	682791	STOP	n/a	n/a	n/a	-999	5	[-999, -999, -999]	n/a	FR1	0	R1315T
828.984	0.603	682808	DISTRACT_END	n/a	n/a	n/a	-999	5	[0, 0, 0]	n/a	FR1	0	R1315T
829.587	1.614	683411	RETRIEVAL_ORIENT_START	n/a	n/a	n/a	-999	5	[0, 0, 0]	n/a	FR1	0	R1315T
831.201	0.001	685024	RETRIEVAL_ORIENT_END	n/a	n/a	n/a	-999	5	[0, 0, 0]	n/a	FR1	0	R1315T
831.202	0.651	685025	REC_START	n/a	n/a	n/a	-999	5	[0, 0, 0]	n/a	FR1	0	R1315T
831.853	0.878	685676	REC_WORD	0.878	n/a	SCHOOL	10	5	[0, 0, 0]	n/a	FR1	0	R1315T
832.731	1.193	686554	REC_WORD	1.193	n/a	PIT	8	5	[0, 0, 0]	n/a	FR1	0	R1315T
833.924	0.67	687747	REC_WORD	0.67	n/a	GEESE	7	5	[0, 0, 0]	n/a	FR1	0	R1315T
834.594	26.62	688417	REC_WORD	26.62	n/a	CHAIR	5	5	[0, 0, 0]	n/a	FR1	0	R1315T
861.214	0.0	715036	REC_END	n/a	n/a	n/a	-999	5	[0, 0, 0]	n/a	FR1	0	R1315T
861.214	0.014	715036	TRIAL_END	n/a	n/a	n/a	-999	5	[0, 0, 0]	n/a	FR1	0	R1315T
861.228	0.0	715050	TRIAL_START	n/a	n/a	n/a	-999	6	[0, 0, 0]	n/a	FR1	0	R1315T
861.228	0.001	715050	TRIAL	n/a	n/a	n/a	-999	6	[0, 0, 0]	n/a	FR1	0	R1315T
861.229	1.511	715051	WAITING_START	n/a	n/a	n/a	-999	6	[0, 0, 0]	n/a	FR1	0	R1315T
862.74	0.001	716562	WAITING_END	n/a	n/a	n/a	-999	6	[0, 0, 0]	n/a	FR1	0	R1315T
862.741	10.428	716563	COUNTDOWN_START	n/a	n/a	n/a	-999	6	[0, 0, 0]	n/a	FR1	0	R1315T
873.169	0.0	726991	ORIENT_START	n/a	n/a	n/a	-999	6	[0, 0, 0]	n/a	FR1	0	R1315T
873.169	1.19	726991	COUNTDOWN_END	n/a	n/a	n/a	-999	6	[0, 0, 0]	n/a	FR1	0	R1315T
874.359	0.0	728181	ORIENT_END	n/a	n/a	n/a	-999	6	[0, 0, 0]	n/a	FR1	0	R1315T
874.359	0.865	728181	ENCODING_START	n/a	n/a	n/a	-999	6	[0, 0, 0]	n/a	FR1	0	R1315T
875.224	1.635	729045	WORD	n/a	wordpools/wordpool_EN.txt	FLUTE	1	6	[0, 0, 0]	n/a	FR1	0	R1315T
876.859	0.933	730680	WORD_OFF	n/a	n/a	FLUTE	1	6	[0, 0, 0]	n/a	FR1	0	R1315T
877.792	1.635	731613	WORD	n/a	wordpools/wordpool_EN.txt	HILL	2	6	[0, 0, 0]	n/a	FR1	0	R1315T
879.427	0.997	733248	WORD_OFF	n/a	n/a	HILL	2	6	[0, 0, 0]	n/a	FR1	0	R1315T
880.424	1.636	734245	WORD	n/a	wordpools/wordpool_EN.txt	FORT	3	6	[0, 0, 0]	n/a	FR1	0	R1315T
882.06	0.896	735881	WORD_OFF	n/a	n/a	FORT	3	6	[0, 0, 0]	n/a	FR1	0	R1315T
882.956	1.622	736777	WORD	n/a	wordpools/wordpool_EN.txt	CORN	4	6	[0, 0, 0]	n/a	FR1	0	R1315T
884.578	0.886	738399	WORD_OFF	n/a	n/a	CORN	4	6	[0, 0, 0]	n/a	FR1	0	R1315T
885.464	1.631	739285	WORD	n/a	wordpools/wordpool_EN.txt	CAR	5	6	[0, 0, 0]	n/a	FR1	0	R1315T
887.095	1.121	740916	WORD_OFF	n/a	n/a	CAR	5	6	[0, 0, 0]	n/a	FR1	0	R1315T
888.216	1.629	742037	WORD	n/a	wordpools/wordpool_EN.txt	PIN	6	6	[0, 0, 0]	n/a	FR1	0	R1315T
889.845	0.834	743666	WORD_OFF	n/a	n/a	PIN	6	6	[0, 0, 0]	n/a	FR1	0	R1315T
890.679	1.633	744500	WORD	n/a	wordpools/wordpool_EN.txt	FENCE	7	6	[0, 0, 0]	n/a	FR1	0	R1315T
892.312	0.879	746133	WORD_OFF	n/a	n/a	FENCE	7	6	[0, 0, 0]	n/a	FR1	0	R1315T
893.191	1.622	747012	WORD	n/a	wordpools/wordpool_EN.txt	OAK	8	6	[0, 0, 0]	n/a	FR1	0	R1315T
894.813	0.974	748634	WORD_OFF	n/a	n/a	OAK	8	6	[0, 0, 0]	n/a	FR1	0	R1315T
895.787	1.626	749608	WORD	n/a	wordpools/wordpool_EN.txt	SOAP	9	6	[0, 0, 0]	n/a	FR1	0	R1315T
897.413	0.802	751233	WORD_OFF	n/a	n/a	SOAP	9	6	[0, 0, 0]	n/a	FR1	0	R1315T
898.215	1.632	752035	WORD	n/a	wordpools/wordpool_EN.txt	VASE	10	6	[0, 0, 0]	n/a	FR1	0	R1315T
899.847	0.95	753667	WORD_OFF	n/a	n/a	VASE	10	6	[0, 0, 0]	n/a	FR1	0	R1315T
900.797	1.634	754617	WORD	n/a	wordpools/wordpool_EN.txt	CHEEK	11	6	[0, 0, 0]	n/a	FR1	0	R1315T
902.431	0.989	756251	WORD_OFF	n/a	n/a	CHEEK	11	6	[0, 0, 0]	n/a	FR1	0	R1315T
903.42	1.628	757240	WORD	n/a	wordpools/wordpool_EN.txt	BOX	12	6	[0, 0, 0]	n/a	FR1	0	R1315T
905.048	0.0	758868	WORD_OFF	n/a	n/a	BOX	12	6	[0, 0, 0]	n/a	FR1	0	R1315T
905.048	0.001	758868	ENCODING_END	n/a	n/a	n/a	-999	6	[0, 0, 0]	n/a	FR1	0	R1315T
905.049	0.0	758869	DISTRACT_START	n/a	n/a	n/a	-999	6	[0, 0, 0]	n/a	FR1	0	R1315T
905.049	0.015	758869	START	n/a	n/a	n/a	-999	6	[-999, -999, -999]	n/a	FR1	0	R1315T
905.064	4.718	758884	PROB	4.718	n/a	n/a	-999	6	[3, 5, 9]	17	FR1	0	R1315T
909.782	11.535	763602	PROB	11.535	n/a	n/a	-999	6	[7, 6, 2]	15	FR1	0	R1315T
921.317	9.171	775136	PROB	9.171	n/a	n/a	-999	6	[9, 6, 9]	24	FR1	0	R1315T
930.488	0.015	784307	STOP	n/a	n/a	n/a	-999	6	[-999, -999, -999]	n/a	FR1	0	R1315T
930.503	0.513	784322	DISTRACT_END	n/a	n/a	n/a	-999	6	[0, 0, 0]	n/a	FR1	0	R1315T
931.016	1.637	784835	RETRIEVAL_ORIENT_START	n/a	n/a	n/a	-999	6	[0, 0, 0]	n/a	FR1	0	R1315T
932.653	0.0	786472	RETRIEVAL_ORIENT_END	n/a	n/a	n/a	-999	6	[0, 0, 0]	n/a	FR1	0	R1315T
932.653	2.031	786472	REC_START	n/a	n/a	n/a	-999	6	[0, 0, 0]	n/a	FR1	0	R1315T
934.684	3.232	788503	REC_WORD	3.232	n/a	HILL	2	6	[0, 0, 0]	n/a	FR1	0	R1315T
937.916	24.749	791735	REC_WORD	24.749	n/a	CAR	5	6	[0, 0, 0]	n/a	FR1	0	R1315T
962.665	0.0	816483	REC_END	n/a	n/a	n/a	-999	6	[0, 0, 0]	n/a	FR1	0	R1315T
962.665	0.014	816483	TRIAL_END	n/a	n/a	n/a	-999	6	[0, 0, 0]	n/a	FR1	0	R1315T
962.679	0.0	816497	TRIAL	n/a	n/a	n/a	-999	7	[0, 0, 0]	n/a	FR1	0	R1315T
962.679	0.001	816497	TRIAL_START	n/a	n/a	n/a	-999	7	[0, 0, 0]	n/a	FR1	0	R1315T
962.68	1.512	816498	WAITING_START	n/a	n/a	n/a	-999	7	[0, 0, 0]	n/a	FR1	0	R1315T
964.192	0.0	818010	WAITING_END	n/a	n/a	n/a	-999	7	[0, 0, 0]	n/a	FR1	0	R1315T
964.192	10.429	818010	COUNTDOWN_START	n/a	n/a	n/a	-999	7	[0, 0, 0]	n/a	FR1	0	R1315T
974.621	0.0	828438	COUNTDOWN_END	n/a	n/a	n/a	-999	7	[0, 0, 0]	n/a	FR1	0	R1315T
974.621	1.056	828438	ORIENT_START	n/a	n/a	n/a	-999	7	[0, 0, 0]	n/a	FR1	0	R1315T
975.677	0.001	829494	ORIENT_END	n/a	n/a	n/a	-999	7	[0, 0, 0]	n/a	FR1	0	R1315T
975.678	0.817	829495	ENCODING_START	n/a	n/a	n/a	-999	7	[0, 0, 0]	n/a	FR1	0	R1315T
976.495	1.633	830312	WORD	n/a	wordpools/wordpool_EN.txt	BUSH	1	7	[0, 0, 0]	n/a	FR1	0	R1315T
978.128	0.83	831945	WORD_OFF	n/a	n/a	BUSH	1	7	[0, 0, 0]	n/a	FR1	0	R1315T
978.958	1.62	832775	WORD	n/a	wordpools/wordpool_EN.txt	WALL	2	7	[0, 0, 0]	n/a	FR1	0	R1315T
980.578	0.929	834395	WORD_OFF	n/a	n/a	WALL	2	7	[0, 0, 0]	n/a	FR1	0	R1315T
981.507	1.622	835324	WORD	n/a	wordpools/wordpool_EN.txt	INK	3	7	[0, 0, 0]	n/a	FR1	0	R1315T
983.129	0.872	836946	WORD_OFF	n/a	n/a	INK	3	7	[0, 0, 0]	n/a	FR1	0	R1315T
984.001	1.628	837818	WORD	n/a	wordpools/wordpool_EN.txt	DEER	4	7	[0, 0, 0]	n/a	FR1	0	R1315T
985.629	0.816	839446	WORD_OFF	n/a	n/a	DEER	4	7	[0, 0, 0]	n/a	FR1	0	R1315T
986.445	1.635	840262	WORD	n/a	wordpools/wordpool_EN.txt	BROOM	5	7	[0, 0, 0]	n/a	FR1	0	R1315T
988.08	1.095	841896	WORD_OFF	n/a	n/a	BROOM	5	7	[0, 0, 0]	n/a	FR1	0	R1315T
989.175	1.622	842991	WORD	n/a	wordpools/wordpool_EN.txt	FACE	6	7	[0, 0, 0]	n/a	FR1	0	R1315T
990.797	0.974	844613	WORD_OFF	n/a	n/a	FACE	6	7	[0, 0, 0]	n/a	FR1	0	R1315T
991.771	1.626	845587	WORD	n/a	wordpools/wordpool_EN.txt	PLATE	7	7	[0, 0, 0]	n/a	FR1	0	R1315T
993.397	0.788	847213	WORD_OFF	n/a	n/a	PLATE	7	7	[0, 0, 0]	n/a	FR1	0	R1315T
994.185	1.629	848001	WORD	n/a	wordpools/wordpool_EN.txt	FOG	8	7	[0, 0, 0]	n/a	FR1	0	R1315T
995.814	0.982	849630	WORD_OFF	n/a	n/a	FOG	8	7	[0, 0, 0]	n/a	FR1	0	R1315T
996.796	1.636	850612	WORD	n/a	wordpools/wordpool_EN.txt	SEAL	9	7	[0, 0, 0]	n/a	FR1	0	R1315T
998.432	0.932	852248	WORD_OFF	n/a	n/a	SEAL	9	7	[0, 0, 0]	n/a	FR1	0	R1315T
999.364	1.635	853180	WORD	n/a	wordpools/wordpool_EN.txt	CORD	10	7	[0, 0, 0]	n/a	FR1	0	R1315T
1000.999	0.947	854815	WORD_OFF	n/a	n/a	CORD	10	7	[0, 0, 0]	n/a	FR1	0	R1315T
1001.946	1.637	855762	WORD	n/a	wordpools/wordpool_EN.txt	PANTS	11	7	[0, 0, 0]	n/a	FR1	0	R1315T
1003.583	1.123	857399	WORD_OFF	n/a	n/a	PANTS	11	7	[0, 0, 0]	n/a	FR1	0	R1315T
1004.706	1.627	858522	WORD	n/a	wordpools/wordpool_EN.txt	BOARD	12	7	[0, 0, 0]	n/a	FR1	0	R1315T
1006.333	0.0	860149	WORD_OFF	n/a	n/a	BOARD	12	7	[0, 0, 0]	n/a	FR1	0	R1315T
1006.333	0.001	860149	ENCODING_END	n/a	n/a	n/a	-999	7	[0, 0, 0]	n/a	FR1	0	R1315T
1006.334	0.0	860150	DISTRACT_START	n/a	n/a	n/a	-999	7	[0, 0, 0]	n/a	FR1	0	R1315T
1006.334	0.016	860150	START	n/a	n/a	n/a	-999	7	[-999, -999, -999]	n/a	FR1	0	R1315T
1006.35	3.817	860166	PROB	3.817	n/a	n/a	-999	7	[3, 9, 3]	15	FR1	0	R1315T
1010.167	9.552	863982	PROB	9.552	n/a	n/a	-999	7	[8, 9, 3]	20	FR1	0	R1315T
1019.719	13.401	873534	PROB	13.401	n/a	n/a	-999	7	[5, 8, 9]	29	FR1	0	R1315T
1033.12	0.018	886934	STOP	n/a	n/a	n/a	-999	7	[-999, -999, -999]	n/a	FR1	0	R1315T
1033.138	0.656	886952	DISTRACT_END	n/a	n/a	n/a	-999	7	[0, 0, 0]	n/a	FR1	0	R1315T
1033.794	1.661	887608	RETRIEVAL_ORIENT_START	n/a	n/a	n/a	-999	7	[0, 0, 0]	n/a	FR1	0	R1315T
1035.455	0.0	889269	RETRIEVAL_ORIENT_END	n/a	n/a	n/a	-999	7	[0, 0, 0]	n/a	FR1	0	R1315T
1035.455	3.061	889269	REC_START	n/a	n/a	n/a	-999	7	[0, 0, 0]	n/a	FR1	0	R1315T
1038.516	0.796	892330	REC_WORD	0.796	n/a	BUSH	1	7	[0, 0, 0]	n/a	FR1	0	R1315T
1039.312	0.623	893126	REC_WORD	0.623	n/a	WALL	2	7	[0, 0, 0]	n/a	FR1	0	R1315T
1039.935	25.533	893749	REC_WORD	25.533	n/a	INK	3	7	[0, 0, 0]	n/a	FR1	0	R1315T
1065.468	0.001	919281	REC_END	n/a	n/a	n/a	-999	7	[0, 0, 0]	n/a	FR1	0	R1315T
1065.469	0.014	919282	TRIAL_END	n/a	n/a	n/a	-999	7	[0, 0, 0]	n/a	FR1	0	R1315T
1065.483	0.0	919296	TRIAL	n/a	n/a	n/a	-999	8	[0, 0, 0]	n/a	FR1	0	R1315T
1065.483	0.0	919296	WAITING_START	n/a	n/a	n/a	-999	8	[0, 0, 0]	n/a	FR1	0	R1315T
1065.483	1.511	919296	TRIAL_START	n/a	n/a	n/a	-999	8	[0, 0, 0]	n/a	FR1	0	R1315T
1066.994	0.0	920807	WAITING_END	n/a	n/a	n/a	-999	8	[0, 0, 0]	n/a	FR1	0	R1315T
1066.994	10.429	920807	COUNTDOWN_START	n/a	n/a	n/a	-999	8	[0, 0, 0]	n/a	FR1	0	R1315T
1077.423	0.0	931235	COUNTDOWN_END	n/a	n/a	n/a	-999	8	[0, 0, 0]	n/a	FR1	0	R1315T
1077.423	1.073	931235	ORIENT_START	n/a	n/a	n/a	-999	8	[0, 0, 0]	n/a	FR1	0	R1315T
1078.496	0.0	932308	ORIENT_END	n/a	n/a	n/a	-999	8	[0, 0, 0]	n/a	FR1	0	R1315T
1078.496	0.884	932308	ENCODING_START	n/a	n/a	n/a	-999	8	[0, 0, 0]	n/a	FR1	0	R1315T
1079.38	1.633	933192	WORD	n/a	wordpools/wordpool_EN.txt	SHELL	1	8	[0, 0, 0]	n/a	FR1	0	R1315T
1081.013	0.903	934825	WORD_OFF	n/a	n/a	SHELL	1	8	[0, 0, 0]	n/a	FR1	0	R1315T
1081.916	1.631	935728	WORD	n/a	wordpools/wordpool_EN.txt	NEST	2	8	[0, 0, 0]	n/a	FR1	0	R1315T
1083.547	0.868	937359	WORD_OFF	n/a	n/a	NEST	2	8	[0, 0, 0]	n/a	FR1	0	R1315T
1084.415	1.633	938227	WORD	n/a	wordpools/wordpool_EN.txt	HEN	3	8	[0, 0, 0]	n/a	FR1	0	R1315T
1086.048	1.067	939860	WORD_OFF	n/a	n/a	HEN	3	8	[0, 0, 0]	n/a	FR1	0	R1315T
1087.115	1.633	940927	WORD	n/a	wordpools/wordpool_EN.txt	LEAF	4	8	[0, 0, 0]	n/a	FR1	0	R1315T
1088.748	0.904	942560	WORD_OFF	n/a	n/a	LEAF	4	8	[0, 0, 0]	n/a	FR1	0	R1315T
1089.652	1.63	943464	WORD	n/a	wordpools/wordpool_EN.txt	FILM	5	8	[0, 0, 0]	n/a	FR1	0	R1315T
1091.282	0.797	945094	WORD_OFF	n/a	n/a	FILM	5	8	[0, 0, 0]	n/a	FR1	0	R1315T
1092.079	1.637	945891	WORD	n/a	wordpools/wordpool_EN.txt	THREAD	6	8	[0, 0, 0]	n/a	FR1	0	R1315T
1093.716	1.113	947528	WORD_OFF	n/a	n/a	THREAD	6	8	[0, 0, 0]	n/a	FR1	0	R1315T
1094.829	1.637	948641	WORD	n/a	wordpools/wordpool_EN.txt	BIRD	7	8	[0, 0, 0]	n/a	FR1	0	R1315T
1096.466	0.893	950278	WORD_OFF	n/a	n/a	BIRD	7	8	[0, 0, 0]	n/a	FR1	0	R1315T
1097.359	1.624	951171	WORD	n/a	wordpools/wordpool_EN.txt	HEART	8	8	[0, 0, 0]	n/a	FR1	0	R1315T
1098.983	0.861	952794	WORD_OFF	n/a	n/a	HEART	8	8	[0, 0, 0]	n/a	FR1	0	R1315T
1099.844	1.623	953655	WORD	n/a	wordpools/wordpool_EN.txt	FLAME	9	8	[0, 0, 0]	n/a	FR1	0	R1315T
1101.467	0.966	955278	WORD_OFF	n/a	n/a	FLAME	9	8	[0, 0, 0]	n/a	FR1	0	R1315T
1102.433	1.634	956244	WORD	n/a	wordpools/wordpool_EN.txt	FUDGE	10	8	[0, 0, 0]	n/a	FR1	0	R1315T
1104.067	1.103	957878	WORD_OFF	n/a	n/a	FUDGE	10	8	[0, 0, 0]	n/a	FR1	0	R1315T
1105.17	1.631	958981	WORD	n/a	wordpools/wordpool_EN.txt	SPARK	11	8	[0, 0, 0]	n/a	FR1	0	R1315T
1106.801	0.994	960612	WORD_OFF	n/a	n/a	SPARK	11	8	[0, 0, 0]	n/a	FR1	0	R1315T
1107.795	1.623	961606	WORD	n/a	wordpools/wordpool_EN.txt	FAN	12	8	[0, 0, 0]	n/a	FR1	0	R1315T
1109.418	0.001	963229	WORD_OFF	n/a	n/a	FAN	12	8	[0, 0, 0]	n/a	FR1	0	R1315T
1109.419	0.0	963230	ENCODING_END	n/a	n/a	n/a	-999	8	[0, 0, 0]	n/a	FR1	0	R1315T
1109.419	0.0	963230	DISTRACT_START	n/a	n/a	n/a	-999	8	[0, 0, 0]	n/a	FR1	0	R1315T
1109.419	0.016	963230	START	n/a	n/a	n/a	-999	8	[-999, -999, -999]	n/a	FR1	0	R1315T
1109.435	7.235	963246	PROB	7.235	n/a	n/a	-999	8	[2, 6, 5]	13	FR1	0	R1315T
1116.67	6.734	970481	PROB	6.734	n/a	n/a	-999	8	[4, 7, 1]	12	FR1	0	R1315T
1123.404	8.704	977214	PROB	8.704	n/a	n/a	-999	8	[9, 3, 2]	14	FR1	0	R1315T
1132.108	0.015	985918	STOP	n/a	n/a	n/a	-999	8	[-999, -999, -999]	n/a	FR1	0	R1315T
1132.123	0.529	985933	DISTRACT_END	n/a	n/a	n/a	-999	8	[0, 0, 0]	n/a	FR1	0	R1315T
1132.652	1.704	986462	RETRIEVAL_ORIENT_START	n/a	n/a	n/a	-999	8	[0, 0, 0]	n/a	FR1	0	R1315T
1134.356	0.001	988166	RETRIEVAL_ORIENT_END	n/a	n/a	n/a	-999	8	[0, 0, 0]	n/a	FR1	0	R1315T
1134.357	1.164	988167	REC_START	n/a	n/a	n/a	-999	8	[0, 0, 0]	n/a	FR1	0	R1315T
1135.521	1.22	989331	REC_WORD_VV	1.22	n/a	<>	-999	8	[0, 0, 0]	n/a	FR1	0	R1315T
1136.741	0.535	990551	REC_WORD	0.535	n/a	ART	-999	8	[0, 0, 0]	n/a	FR1	0	R1315T
1137.276	27.094	991086	REC_WORD	27.094	n/a	FAN	12	8	[0, 0, 0]	n/a	FR1	0	R1315T
1164.37	0.0	1018179	REC_END	n/a	n/a	n/a	-999	8	[0, 0, 0]	n/a	FR1	0	R1315T
1164.37	0.015	1018179	TRIAL_END	n/a	n/a	n/a	-999	8	[0, 0, 0]	n/a	FR1	0	R1315T
1164.385	0.0	1018194	TRIAL_START	n/a	n/a	n/a	-999	9	[0, 0, 0]	n/a	FR1	0	R1315T
1164.385	0.0	1018194	TRIAL	n/a	n/a	n/a	-999	9	[0, 0, 0]	n/a	FR1	0	R1315T
1164.385	1.511	1018194	WAITING_START	n/a	n/a	n/a	-999	9	[0, 0, 0]	n/a	FR1	0	R1315T
1165.896	0.0	1019704	WAITING_END	n/a	n/a	n/a	-999	9	[0, 0, 0]	n/a	FR1	0	R1315T
1165.896	10.429	1019704	COUNTDOWN_START	n/a	n/a	n/a	-999	9	[0, 0, 0]	n/a	FR1	0	R1315T
1176.325	0.0	1030133	COUNTDOWN_END	n/a	n/a	n/a	-999	9	[0, 0, 0]	n/a	FR1	0	R1315T
1176.325	1.122	1030133	ORIENT_START	n/a	n/a	n/a	-999	9	[0, 0, 0]	n/a	FR1	0	R1315T
1177.447	0.001	1031255	ORIENT_END	n/a	n/a	n/a	-999	9	[0, 0, 0]	n/a	FR1	0	R1315T
1177.448	0.791	1031256	ENCODING_START	n/a	n/a	n/a	-999	9	[0, 0, 0]	n/a	FR1	0	R1315T
1178.239	1.626	1032047	WORD	n/a	wordpools/wordpool_EN.txt	BOOT	1	9	[0, 0, 0]	n/a	FR1	0	R1315T
1179.865	0.77	1033673	WORD_OFF	n/a	n/a	BOOT	1	9	[0, 0, 0]	n/a	FR1	0	R1315T
1180.635	1.63	1034443	WORD	n/a	wordpools/wordpool_EN.txt	TOAST	2	9	[0, 0, 0]	n/a	FR1	0	R1315T
1182.265	0.947	1036073	WORD_OFF	n/a	n/a	TOAST	2	9	[0, 0, 0]	n/a	FR1	0	R1315T
1183.212	1.637	1037020	WORD	n/a	wordpools/wordpool_EN.txt	ANT	3	9	[0, 0, 0]	n/a	FR1	0	R1315T
1184.849	1.077	1038657	WORD_OFF	n/a	n/a	ANT	3	9	[0, 0, 0]	n/a	FR1	0	R1315T
1185.926	1.623	1039734	WORD	n/a	wordpools/wordpool_EN.txt	JUICE	4	9	[0, 0, 0]	n/a	FR1	0	R1315T
1187.549	0.817	1041357	WORD_OFF	n/a	n/a	JUICE	4	9	[0, 0, 0]	n/a	FR1	0	R1315T
1188.366	1.634	1042173	WORD	n/a	wordpools/wordpool_EN.txt	TRAIN	5	9	[0, 0, 0]	n/a	FR1	0	R1315T
1190.0	0.782	1043807	WORD_OFF	n/a	n/a	TRAIN	5	9	[0, 0, 0]	n/a	FR1	0	R1315T
1190.782	1.635	1044589	WORD	n/a	wordpools/wordpool_EN.txt	SOCK	6	9	[0, 0, 0]	n/a	FR1	0	R1315T
1192.417	0.883	1046224	WORD_OFF	n/a	n/a	SOCK	6	9	[0, 0, 0]	n/a	FR1	0	R1315T
1193.3	1.635	1047107	WORD	n/a	wordpools/wordpool_EN.txt	BRICK	7	9	[0, 0, 0]	n/a	FR1	0	R1315T
1194.935	0.937	1048742	WORD_OFF	n/a	n/a	BRICK	7	9	[0, 0, 0]	n/a	FR1	0	R1315T
1195.872	1.629	1049679	WORD	n/a	wordpools/wordpool_EN.txt	HORSE	8	9	[0, 0, 0]	n/a	FR1	0	R1315T
1197.501	0.983	1051308	WORD_OFF	n/a	n/a	HORSE	8	9	[0, 0, 0]	n/a	FR1	0	R1315T
1198.484	1.634	1052291	WORD	n/a	wordpools/wordpool_EN.txt	ICE	9	9	[0, 0, 0]	n/a	FR1	0	R1315T
1200.118	0.981	1053925	WORD_OFF	n/a	n/a	ICE	9	9	[0, 0, 0]	n/a	FR1	0	R1315T
1201.099	1.636	1054906	WORD	n/a	wordpools/wordpool_EN.txt	BEE	10	9	[0, 0, 0]	n/a	FR1	0	R1315T
1202.735	0.833	1056542	WORD_OFF	n/a	n/a	BEE	10	9	[0, 0, 0]	n/a	FR1	0	R1315T
1203.568	1.634	1057375	WORD	n/a	wordpools/wordpool_EN.txt	CAVE	11	9	[0, 0, 0]	n/a	FR1	0	R1315T
1205.202	1.06	1059009	WORD_OFF	n/a	n/a	CAVE	11	9	[0, 0, 0]	n/a	FR1	0	R1315T
1206.262	1.624	1060069	WORD	n/a	wordpools/wordpool_EN.txt	ROOF	12	9	[0, 0, 0]	n/a	FR1	0	R1315T
1207.886	0.001	1061693	WORD_OFF	n/a	n/a	ROOF	12	9	[0, 0, 0]	n/a	FR1	0	R1315T
1207.887	0.0	1061694	ENCODING_END	n/a	n/a	n/a	-999	9	[0, 0, 0]	n/a	FR1	0	R1315T
1207.887	0.0	1061694	DISTRACT_START	n/a	n/a	n/a	-999	9	[0, 0, 0]	n/a	FR1	0	R1315T
1207.887	0.016	1061694	START	n/a	n/a	n/a	-999	9	[-999, -999, -999]	n/a	FR1	0	R1315T
1207.903	2.967	1061710	PROB	2.967	n/a	n/a	-999	9	[9, 1, 7]	17	FR1	0	R1315T
1210.87	3.167	1064676	PROB	3.167	n/a	n/a	-999	9	[3, 1, 7]	11	FR1	0	R1315T
1214.037	2.885	1067843	PROB	2.885	n/a	n/a	-999	9	[5, 5, 2]	12	FR1	0	R1315T
1216.922	5.6	1070728	PROB	5.6	n/a	n/a	-999	9	[9, 9, 5]	22	FR1	0	R1315T
1222.522	6.244	1076328	PROB	6.244	n/a	n/a	-999	9	[8, 3, 6]	17	FR1	0	R1315T
1228.766	0.007	1082572	STOP	n/a	n/a	n/a	-999	9	[-999, -999, -999]	n/a	FR1	0	R1315T
1228.773	0.604	1082579	DISTRACT_END	n/a	n/a	n/a	-999	9	[0, 0, 0]	n/a	FR1	0	R1315T
1229.377	1.548	1083183	RETRIEVAL_ORIENT_START	n/a	n/a	n/a	-999	9	[0, 0, 0]	n/a	FR1	0	R1315T
1230.925	0.0	1084731	RETRIEVAL_ORIENT_END	n/a	n/a	n/a	-999	9	[0, 0, 0]	n/a	FR1	0	R1315T
1230.925	1.148	1084731	REC_START	n/a	n/a	n/a	-999	9	[0, 0, 0]	n/a	FR1	0	R1315T
1232.073	1.181	1085879	REC_WORD	1.181	n/a	SOCK	6	9	[0, 0, 0]	n/a	FR1	0	R1315T
1233.254	1.14	1087059	REC_WORD	1.14	n/a	BEE	10	9	[0, 0, 0]	n/a	FR1	0	R1315T
1234.394	2.057	1088199	REC_WORD	2.057	n/a	BOOT	1	9	[0, 0, 0]	n/a	FR1	0	R1315T
1236.451	24.485	1090256	REC_WORD_VV	24.485	n/a	<>	-999	9	[0, 0, 0]	n/a	FR1	0	R1315T
1260.936	0.001	1114740	REC_END	n/a	n/a	n/a	-999	9	[0, 0, 0]	n/a	FR1	0	R1315T
1260.937	0.014	1114741	TRIAL_END	n/a	n/a	n/a	-999	9	[0, 0, 0]	n/a	FR1	0	R1315T
1260.951	0.0	1114755	TRIAL_START	n/a	n/a	n/a	-999	10	[0, 0, 0]	n/a	FR1	0	R1315T
1260.951	0.0	1114755	TRIAL	n/a	n/a	n/a	-999	10	[0, 0, 0]	n/a	FR1	0	R1315T
1260.951	1.213	1114755	WAITING_START	n/a	n/a	n/a	-999	10	[0, 0, 0]	n/a	FR1	0	R1315T
1262.164	0.0	1115968	COUNTDOWN_START	n/a	n/a	n/a	-999	10	[0, 0, 0]	n/a	FR1	0	R1315T
1262.164	10.429	1115968	WAITING_END	n/a	n/a	n/a	-999	10	[0, 0, 0]	n/a	FR1	0	R1315T
1272.593	0.0	1126397	COUNTDOWN_END	n/a	n/a	n/a	-999	10	[0, 0, 0]	n/a	FR1	0	R1315T
1272.593	1.239	1126397	ORIENT_START	n/a	n/a	n/a	-999	10	[0, 0, 0]	n/a	FR1	0	R1315T
1273.832	0.0	1127636	ORIENT_END	n/a	n/a	n/a	-999	10	[0, 0, 0]	n/a	FR1	0	R1315T
1273.832	0.78	1127636	ENCODING_START	n/a	n/a	n/a	-999	10	[0, 0, 0]	n/a	FR1	0	R1315T
1274.612	1.637	1128416	WORD	n/a	wordpools/wordpool_EN.txt	DOOR	1	10	[0, 0, 0]	n/a	FR1	0	R1315T
1276.249	1.029	1130053	WORD_OFF	n/a	n/a	DOOR	1	10	[0, 0, 0]	n/a	FR1	0	R1315T
1277.278	1.621	1131082	WORD	n/a	wordpools/wordpool_EN.txt	TEA	2	10	[0, 0, 0]	n/a	FR1	0	R1315T
1278.899	0.958	1132702	WORD_OFF	n/a	n/a	TEA	2	10	[0, 0, 0]	n/a	FR1	0	R1315T
1279.857	1.626	1133660	WORD	n/a	wordpools/wordpool_EN.txt	CART	3	10	[0, 0, 0]	n/a	FR1	0	R1315T
1281.483	0.796	1135286	WORD_OFF	n/a	n/a	CART	3	10	[0, 0, 0]	n/a	FR1	0	R1315T
1282.279	1.639	1136082	WORD	n/a	wordpools/wordpool_EN.txt	HAWK	4	10	[0, 0, 0]	n/a	FR1	0	R1315T
1283.918	1.032	1137721	WORD_OFF	n/a	n/a	HAWK	4	10	[0, 0, 0]	n/a	FR1	0	R1315T
1284.95	1.634	1138753	WORD	n/a	wordpools/wordpool_EN.txt	STRING	5	10	[0, 0, 0]	n/a	FR1	0	R1315T
1286.584	1.079	1140387	WORD_OFF	n/a	n/a	STRING	5	10	[0, 0, 0]	n/a	FR1	0	R1315T
1287.663	1.621	1141466	WORD	n/a	wordpools/wordpool_EN.txt	EEL	6	10	[0, 0, 0]	n/a	FR1	0	R1315T
1289.284	0.958	1143087	WORD_OFF	n/a	n/a	EEL	6	10	[0, 0, 0]	n/a	FR1	0	R1315T
1290.242	1.626	1144045	WORD	n/a	wordpools/wordpool_EN.txt	POOL	7	10	[0, 0, 0]	n/a	FR1	0	R1315T
1291.868	1.12	1145671	WORD_OFF	n/a	n/a	POOL	7	10	[0, 0, 0]	n/a	FR1	0	R1315T
1292.988	1.631	1146791	WORD	n/a	wordpools/wordpool_EN.txt	POND	8	10	[0, 0, 0]	n/a	FR1	0	R1315T
1294.619	0.898	1148422	WORD_OFF	n/a	n/a	POND	8	10	[0, 0, 0]	n/a	FR1	0	R1315T
1295.517	1.636	1149320	WORD	n/a	wordpools/wordpool_EN.txt	FLOOR	9	10	[0, 0, 0]	n/a	FR1	0	R1315T
1297.153	0.92	1150956	WORD_OFF	n/a	n/a	FLOOR	9	10	[0, 0, 0]	n/a	FR1	0	R1315T
1298.073	1.63	1151876	WORD	n/a	wordpools/wordpool_EN.txt	BEAK	10	10	[0, 0, 0]	n/a	FR1	0	R1315T
1299.703	0.892	1153506	WORD_OFF	n/a	n/a	BEAK	10	10	[0, 0, 0]	n/a	FR1	0	R1315T
1300.595	1.625	1154397	WORD	n/a	wordpools/wordpool_EN.txt	CLIFF	11	10	[0, 0, 0]	n/a	FR1	0	R1315T
1302.22	1.069	1156022	WORD_OFF	n/a	n/a	CLIFF	11	10	[0, 0, 0]	n/a	FR1	0	R1315T
1303.289	1.633	1157091	WORD	n/a	wordpools/wordpool_EN.txt	BOAT	12	10	[0, 0, 0]	n/a	FR1	0	R1315T
1304.922	0.0	1158724	WORD_OFF	n/a	n/a	BOAT	12	10	[0, 0, 0]	n/a	FR1	0	R1315T
1304.922	0.0	1158724	ENCODING_END	n/a	n/a	n/a	-999	10	[0, 0, 0]	n/a	FR1	0	R1315T
1304.922	0.0	1158724	DISTRACT_START	n/a	n/a	n/a	-999	10	[0, 0, 0]	n/a	FR1	0	R1315T
1304.922	0.016	1158724	START	n/a	n/a	n/a	-999	10	[-999, -999, -999]	n/a	FR1	0	R1315T
1304.938	4.1	1158740	PROB	4.1	n/a	n/a	-999	10	[4, 6, 1]	11	FR1	0	R1315T
1309.038	6.318	1162840	PROB	6.318	n/a	n/a	-999	10	[7, 5, 2]	14	FR1	0	R1315T
1315.356	2.216	1169158	PROB	2.216	n/a	n/a	-999	10	[1, 9, 2]	12	FR1	0	R1315T
1317.572	3.551	1171374	PROB	3.551	n/a	n/a	-999	10	[9, 2, 1]	12	FR1	0	R1315T
1321.123	5.293	1174925	PROB	5.293	n/a	n/a	-999	10	[4, 2, 1]	7	FR1	0	R1315T
1326.416	0.008	1180217	STOP	n/a	n/a	n/a	-999	10	[-999, -999, -999]	n/a	FR1	0	R1315T
1326.424	0.656	1180225	DISTRACT_END	n/a	n/a	n/a	-999	10	[0, 0, 0]	n/a	FR1	0	R1315T
1327.08	1.662	1180881	RETRIEVAL_ORIENT_START	n/a	n/a	n/a	-999	10	[0, 0, 0]	n/a	FR1	0	R1315T
1328.742	0.0	1182543	RETRIEVAL_ORIENT_END	n/a	n/a	n/a	-999	10	[0, 0, 0]	n/a	FR1	0	R1315T
1328.742	2.142	1182543	REC_START	n/a	n/a	n/a	-999	10	[0, 0, 0]	n/a	FR1	0	R1315T
1330.884	0.858	1184685	REC_WORD	0.858	n/a	POND	8	10	[0, 0, 0]	n/a	FR1	0	R1315T
1331.742	3.096	1185543	REC_WORD	3.096	n/a	DOOR	1	10	[0, 0, 0]	n/a	FR1	0	R1315T
1334.838	23.914	1188639	REC_WORD	23.914	n/a	RAKE	-999	10	[0, 0, 0]	n/a	FR1	0	R1315T
1358.752	0.001	1212552	REC_END	n/a	n/a	n/a	-999	10	[0, 0, 0]	n/a	FR1	0	R1315T
1358.753	0.016	1212553	TRIAL_END	n/a	n/a	n/a	-999	10	[0, 0, 0]	n/a	FR1	0	R1315T
1358.769	0.0	1212569	TRIAL_START	n/a	n/a	n/a	-999	11	[0, 0, 0]	n/a	FR1	0	R1315T
1358.769	0.0	1212569	TRIAL	n/a	n/a	n/a	-999	11	[0, 0, 0]	n/a	FR1	0	R1315T
1358.769	1.495	1212569	WAITING_START	n/a	n/a	n/a	-999	11	[0, 0, 0]	n/a	FR1	0	R1315T
1360.264	0.0	1214064	WAITING_END	n/a	n/a	n/a	-999	11	[0, 0, 0]	n/a	FR1	0	R1315T
1360.264	10.429	1214064	COUNTDOWN_START	n/a	n/a	n/a	-999	11	[0, 0, 0]	n/a	FR1	0	R1315T
1370.693	0.001	1224492	COUNTDOWN_END	n/a	n/a	n/a	-999	11	[0, 0, 0]	n/a	FR1	0	R1315T
1370.694	1.24	1224493	ORIENT_START	n/a	n/a	n/a	-999	11	[0, 0, 0]	n/a	FR1	0	R1315T
1371.934	0.0	1225733	ORIENT_END	n/a	n/a	n/a	-999	11	[0, 0, 0]	n/a	FR1	0	R1315T
1371.934	1.094	1225733	ENCODING_START	n/a	n/a	n/a	-999	11	[0, 0, 0]	n/a	FR1	0	R1315T
1373.028	1.605	1226827	WORD	n/a	wordpools/wordpool_EN.txt	JAR	1	11	[0, 0, 0]	n/a	FR1	0	R1315T
1374.633	1.017	1228432	WORD_OFF	n/a	n/a	JAR	1	11	[0, 0, 0]	n/a	FR1	0	R1315T
1375.65	1.634	1229449	WORD	n/a	wordpools/wordpool_EN.txt	BEAN	2	11	[0, 0, 0]	n/a	FR1	0	R1315T
1377.284	0.957	1231083	WORD_OFF	n/a	n/a	BEAN	2	11	[0, 0, 0]	n/a	FR1	0	R1315T
1378.241	1.627	1232040	WORD	n/a	wordpools/wordpool_EN.txt	RUG	3	11	[0, 0, 0]	n/a	FR1	0	R1315T
1379.868	0.987	1233667	WORD_OFF	n/a	n/a	RUG	3	11	[0, 0, 0]	n/a	FR1	0	R1315T
1380.855	1.63	1234654	WORD	n/a	wordpools/wordpool_EN.txt	SNAIL	4	11	[0, 0, 0]	n/a	FR1	0	R1315T
1382.485	0.869	1236284	WORD_OFF	n/a	n/a	SNAIL	4	11	[0, 0, 0]	n/a	FR1	0	R1315T
1383.354	1.631	1237153	WORD	n/a	wordpools/wordpool_EN.txt	STEAM	5	11	[0, 0, 0]	n/a	FR1	0	R1315T
1384.985	1.033	1238784	WORD_OFF	n/a	n/a	STEAM	5	11	[0, 0, 0]	n/a	FR1	0	R1315T
1386.018	1.634	1239817	WORD	n/a	wordpools/wordpool_EN.txt	GOAT	6	11	[0, 0, 0]	n/a	FR1	0	R1315T
1387.652	0.968	1241451	WORD_OFF	n/a	n/a	GOAT	6	11	[0, 0, 0]	n/a	FR1	0	R1315T
1388.62	1.633	1242419	WORD	n/a	wordpools/wordpool_EN.txt	FOX	7	11	[0, 0, 0]	n/a	FR1	0	R1315T
1390.253	0.894	1244051	WORD_OFF	n/a	n/a	FOX	7	11	[0, 0, 0]	n/a	FR1	0	R1315T
1391.147	1.623	1244945	WORD	n/a	wordpools/wordpool_EN.txt	RIB	8	11	[0, 0, 0]	n/a	FR1	0	R1315T
1392.77	0.943	1246568	WORD_OFF	n/a	n/a	RIB	8	11	[0, 0, 0]	n/a	FR1	0	R1315T
1393.713	1.624	1247511	WORD	n/a	wordpools/wordpool_EN.txt	PEACH	9	11	[0, 0, 0]	n/a	FR1	0	R1315T
1395.337	1.118	1249135	WORD_OFF	n/a	n/a	PEACH	9	11	[0, 0, 0]	n/a	FR1	0	R1315T
1396.455	1.633	1250253	WORD	n/a	wordpools/wordpool_EN.txt	LIP	10	11	[0, 0, 0]	n/a	FR1	0	R1315T
1398.088	1.062	1251886	WORD_OFF	n/a	n/a	LIP	10	11	[0, 0, 0]	n/a	FR1	0	R1315T
1399.15	1.621	1252948	WORD	n/a	wordpools/wordpool_EN.txt	TIE	11	11	[0, 0, 0]	n/a	FR1	0	R1315T
1400.771	1.129	1254569	WORD_OFF	n/a	n/a	TIE	11	11	[0, 0, 0]	n/a	FR1	0	R1315T
1401.9	1.639	1255698	WORD	n/a	wordpools/wordpool_EN.txt	SMOKE	12	11	[0, 0, 0]	n/a	FR1	0	R1315T
1403.539	0.0	1257337	WORD_OFF	n/a	n/a	SMOKE	12	11	[0, 0, 0]	n/a	FR1	0	R1315T
1403.539	0.0	1257337	ENCODING_END	n/a	n/a	n/a	-999	11	[0, 0, 0]	n/a	FR1	0	R1315T
1403.539	0.001	1257337	DISTRACT_START	n/a	n/a	n/a	-999	11	[0, 0, 0]	n/a	FR1	0	R1315T
1403.54	0.015	1257338	START	n/a	n/a	n/a	-999	11	[-999, -999, -999]	n/a	FR1	0	R1315T
1403.555	3.734	1257353	PROB	3.734	n/a	n/a	-999	11	[2, 2, 2]	6	FR1	0	R1315T
1407.289	3.652	1261087	PROB	3.652	n/a	n/a	-999	11	[1, 9, 6]	16	FR1	0	R1315T
1410.941	4.566	1264739	PROB	4.566	n/a	n/a	-999	11	[4, 6, 9]	19	FR1	0	R1315T
1415.507	4.218	1269304	PROB	4.218	n/a	n/a	-999	11	[7, 1, 3]	11	FR1	0	R1315T
1419.725	4.297	1273522	PROB	4.297	n/a	n/a	-999	11	[9, 6, 3]	18	FR1	0	R1315T
1424.022	0.02	1277819	STOP	n/a	n/a	n/a	-999	11	[-999, -999, -999]	n/a	FR1	0	R1315T
1424.042	0.676	1277839	DISTRACT_END	n/a	n/a	n/a	-999	11	[0, 0, 0]	n/a	FR1	0	R1315T
1424.718	1.625	1278515	RETRIEVAL_ORIENT_START	n/a	n/a	n/a	-999	11	[0, 0, 0]	n/a	FR1	0	R1315T
1426.343	0.0	1280140	RETRIEVAL_ORIENT_END	n/a	n/a	n/a	-999	11	[0, 0, 0]	n/a	FR1	0	R1315T
1426.343	1.943	1280140	REC_START	n/a	n/a	n/a	-999	11	[0, 0, 0]	n/a	FR1	0	R1315T
1428.286	1.128	1282083	REC_WORD	1.128	n/a	JAR	1	11	[0, 0, 0]	n/a	FR1	0	R1315T
1429.414	0.778	1283211	REC_WORD	0.778	n/a	RUG	3	11	[0, 0, 0]	n/a	FR1	0	R1315T
1430.192	26.163	1283989	REC_WORD	26.163	n/a	SMOKE	12	11	[0, 0, 0]	n/a	FR1	0	R1315T
1456.355	0.001	1310151	REC_END	n/a	n/a	n/a	-999	11	[0, 0, 0]	n/a	FR1	0	R1315T
1456.356	0.014	1310152	TRIAL_END	n/a	n/a	n/a	-999	11	[0, 0, 0]	n/a	FR1	0	R1315T
1456.37	0.0	1310166	TRIAL_START	n/a	n/a	n/a	-999	12	[0, 0, 0]	n/a	FR1	0	R1315T
1456.37	0.0	1310166	TRIAL	n/a	n/a	n/a	-999	12	[0, 0, 0]	n/a	FR1	0	R1315T
1456.37	1.262	1310166	WAITING_START	n/a	n/a	n/a	-999	12	[0, 0, 0]	n/a	FR1	0	R1315T
1457.632	0.0	1311427	WAITING_END	n/a	n/a	n/a	-999	12	[0, 0, 0]	n/a	FR1	0	R1315T
1457.632	10.43	1311427	COUNTDOWN_START	n/a	n/a	n/a	-999	12	[0, 0, 0]	n/a	FR1	0	R1315T
1468.062	0.0	1321857	ORIENT_START	n/a	n/a	n/a	-999	12	[0, 0, 0]	n/a	FR1	0	R1315T
1468.062	1.239	1321857	COUNTDOWN_END	n/a	n/a	n/a	-999	12	[0, 0, 0]	n/a	FR1	0	R1315T
1469.301	0.0	1323096	ORIENT_END	n/a	n/a	n/a	-999	12	[0, 0, 0]	n/a	FR1	0	R1315T
1469.301	1.138	1323096	ENCODING_START	n/a	n/a	n/a	-999	12	[0, 0, 0]	n/a	FR1	0	R1315T
1470.439	1.629	1324234	WORD	n/a	wordpools/wordpool_EN.txt	BALL	1	12	[0, 0, 0]	n/a	FR1	0	R1315T
1472.068	0.99	1325863	WORD_OFF	n/a	n/a	BALL	1	12	[0, 0, 0]	n/a	FR1	0	R1315T
1473.058	1.627	1326853	WORD	n/a	wordpools/wordpool_EN.txt	HORN	2	12	[0, 0, 0]	n/a	FR1	0	R1315T
1474.685	0.827	1328480	WORD_OFF	n/a	n/a	HORN	2	12	[0, 0, 0]	n/a	FR1	0	R1315T
1475.512	1.623	1329307	WORD	n/a	wordpools/wordpool_EN.txt	DRUM	3	12	[0, 0, 0]	n/a	FR1	0	R1315T
1477.135	0.817	1330930	WORD_OFF	n/a	n/a	DRUM	3	12	[0, 0, 0]	n/a	FR1	0	R1315T
1477.952	1.634	1331747	WORD	n/a	wordpools/wordpool_EN.txt	GLOVE	4	12	[0, 0, 0]	n/a	FR1	0	R1315T
1479.586	0.84	1333380	WORD_OFF	n/a	n/a	GLOVE	4	12	[0, 0, 0]	n/a	FR1	0	R1315T
1480.426	1.627	1334220	WORD	n/a	wordpools/wordpool_EN.txt	PARK	5	12	[0, 0, 0]	n/a	FR1	0	R1315T
1482.053	0.997	1335847	WORD_OFF	n/a	n/a	PARK	5	12	[0, 0, 0]	n/a	FR1	0	R1315T
1483.05	1.637	1336844	WORD	n/a	wordpools/wordpool_EN.txt	PET	6	12	[0, 0, 0]	n/a	FR1	0	R1315T
1484.687	0.937	1338481	WORD_OFF	n/a	n/a	PET	6	12	[0, 0, 0]	n/a	FR1	0	R1315T
1485.624	1.63	1339418	WORD	n/a	wordpools/wordpool_EN.txt	GUARD	7	12	[0, 0, 0]	n/a	FR1	0	R1315T
1487.254	0.796	1341048	WORD_OFF	n/a	n/a	GUARD	7	12	[0, 0, 0]	n/a	FR1	0	R1315T
1488.05	1.637	1341844	WORD	n/a	wordpools/wordpool_EN.txt	ROOT	8	12	[0, 0, 0]	n/a	FR1	0	R1315T
1489.687	0.883	1343481	WORD_OFF	n/a	n/a	ROOT	8	12	[0, 0, 0]	n/a	FR1	0	R1315T
1490.57	1.635	1344364	WORD	n/a	wordpools/wordpool_EN.txt	SKY	9	12	[0, 0, 0]	n/a	FR1	0	R1315T
1492.205	0.772	1345999	WORD_OFF	n/a	n/a	SKY	9	12	[0, 0, 0]	n/a	FR1	0	R1315T
1492.977	1.628	1346771	WORD	n/a	wordpools/wordpool_EN.txt	MOOSE	10	12	[0, 0, 0]	n/a	FR1	0	R1315T
1494.605	1.097	1348399	WORD_OFF	n/a	n/a	MOOSE	10	12	[0, 0, 0]	n/a	FR1	0	R1315T
1495.702	1.62	1349496	WORD	n/a	wordpools/wordpool_EN.txt	MUG	11	12	[0, 0, 0]	n/a	FR1	0	R1315T
1497.322	0.788	1351116	WORD_OFF	n/a	n/a	MUG	11	12	[0, 0, 0]	n/a	FR1	0	R1315T
1498.11	1.629	1351904	WORD	n/a	wordpools/wordpool_EN.txt	ROPE	12	12	[0, 0, 0]	n/a	FR1	0	R1315T
1499.739	0.001	1353533	WORD_OFF	n/a	n/a	ROPE	12	12	[0, 0, 0]	n/a	FR1	0	R1315T
1499.74	0.0	1353534	ENCODING_END	n/a	n/a	n/a	-999	12	[0, 0, 0]	n/a	FR1	0	R1315T
1499.74	0.0	1353534	DISTRACT_START	n/a	n/a	n/a	-999	12	[0, 0, 0]	n/a	FR1	0	R1315T
1499.74	0.016	1353534	START	n/a	n/a	n/a	-999	12	[-999, -999, -999]	n/a	FR1	0	R1315T
1499.756	8.901	1353550	PROB	8.901	n/a	n/a	-999	12	[7, 9, 9]	26	FR1	0	R1315T
1508.657	3.368	1362450	PROB	3.368	n/a	n/a	-999	12	[3, 8, 5]	16	FR1	0	R1315T
1512.025	2.784	1365818	PROB	2.784	n/a	n/a	-999	12	[5, 1, 5]	11	FR1	0	R1315T
1514.809	11.978	1368602	PROB	11.978	n/a	n/a	-999	12	[9, 5, 7]	21	FR1	0	R1315T
1526.787	0.007	1380579	STOP	n/a	n/a	n/a	-999	12	[-999, -999, -999]	n/a	FR1	0	R1315T
1526.794	0.59	1380586	DISTRACT_END	n/a	n/a	n/a	-999	12	[0, 0, 0]	n/a	FR1	0	R1315T
1527.384	1.528	1381176	RETRIEVAL_ORIENT_START	n/a	n/a	n/a	-999	12	[0, 0, 0]	n/a	FR1	0	R1315T
1528.912	0.001	1382704	RETRIEVAL_ORIENT_END	n/a	n/a	n/a	-999	12	[0, 0, 0]	n/a	FR1	0	R1315T
1528.913	1.846	1382705	REC_START	n/a	n/a	n/a	-999	12	[0, 0, 0]	n/a	FR1	0	R1315T
1530.759	0.608	1384551	REC_WORD	0.608	n/a	BALL	1	12	[0, 0, 0]	n/a	FR1	0	R1315T
1531.367	27.558	1385159	REC_WORD	27.558	n/a	GLOVE	4	12	[0, 0, 0]	n/a	FR1	0	R1315T
1558.925	0.0	1412716	REC_END	n/a	n/a	n/a	-999	12	[0, 0, 0]	n/a	FR1	0	R1315T
1558.925	0.016	1412716	TRIAL_END	n/a	n/a	n/a	-999	12	[0, 0, 0]	n/a	FR1	0	R1315T
1558.941	0.001	1412732	TRIAL_START	n/a	n/a	n/a	-999	13	[0, 0, 0]	n/a	FR1	0	R1315T
1558.942	0.0	1412733	TRIAL	n/a	n/a	n/a	-999	13	[0, 0, 0]	n/a	FR1	0	R1315T
1558.942	1.708	1412733	WAITING_START	n/a	n/a	n/a	-999	13	[0, 0, 0]	n/a	FR1	0	R1315T
1560.65	0.001	1414441	WAITING_END	n/a	n/a	n/a	-999	13	[0, 0, 0]	n/a	FR1	0	R1315T
1560.651	10.429	1414442	COUNTDOWN_START	n/a	n/a	n/a	-999	13	[0, 0, 0]	n/a	FR1	0	R1315T
1571.08	0.0	1424870	COUNTDOWN_END	n/a	n/a	n/a	-999	13	[0, 0, 0]	n/a	FR1	0	R1315T
1571.08	1.089	1424870	ORIENT_START	n/a	n/a	n/a	-999	13	[0, 0, 0]	n/a	FR1	0	R1315T
1572.169	0.001	1425959	ORIENT_END	n/a	n/a	n/a	-999	13	[0, 0, 0]	n/a	FR1	0	R1315T
1572.17	0.792	1425960	ENCODING_START	n/a	n/a	n/a	-999	13	[0, 0, 0]	n/a	FR1	0	R1315T
1572.962	1.624	1426752	WORD	n/a	wordpools/wordpool_EN.txt	VEST	1	13	[0, 0, 0]	n/a	FR1	0	R1315T
1574.586	1.071	1428376	WORD_OFF	n/a	n/a	VEST	1	13	[0, 0, 0]	n/a	FR1	0	R1315T
1575.657	1.63	1429447	WORD	n/a	wordpools/wordpool_EN.txt	PEARL	2	13	[0, 0, 0]	n/a	FR1	0	R1315T
1577.287	0.989	1431077	WORD_OFF	n/a	n/a	PEARL	2	13	[0, 0, 0]	n/a	FR1	0	R1315T
1578.276	1.628	1432066	WORD	n/a	wordpools/wordpool_EN.txt	TOY	3	13	[0, 0, 0]	n/a	FR1	0	R1315T
1579.904	0.868	1433694	WORD_OFF	n/a	n/a	TOY	3	13	[0, 0, 0]	n/a	FR1	0	R1315T
1580.772	1.632	1434562	WORD	n/a	wordpools/wordpool_EN.txt	PHONE	4	13	[0, 0, 0]	n/a	FR1	0	R1315T
1582.404	0.905	1436194	WORD_OFF	n/a	n/a	PHONE	4	13	[0, 0, 0]	n/a	FR1	0	R1315T
1583.309	1.63	1437099	WORD	n/a	wordpools/wordpool_EN.txt	RICE	5	13	[0, 0, 0]	n/a	FR1	0	R1315T
1584.939	0.985	1438729	WORD_OFF	n/a	n/a	RICE	5	13	[0, 0, 0]	n/a	FR1	0	R1315T
1585.924	1.631	1439714	WORD	n/a	wordpools/wordpool_EN.txt	CHIEF	6	13	[0, 0, 0]	n/a	FR1	0	R1315T
1587.555	1.123	1441345	WORD_OFF	n/a	n/a	CHIEF	6	13	[0, 0, 0]	n/a	FR1	0	R1315T
1588.678	1.628	1442468	WORD	n/a	wordpools/wordpool_EN.txt	STOVE	7	13	[0, 0, 0]	n/a	FR1	0	R1315T
1590.306	1.015	1444096	WORD_OFF	n/a	n/a	STOVE	7	13	[0, 0, 0]	n/a	FR1	0	R1315T
1591.321	1.636	1445110	WORD	n/a	wordpools/wordpool_EN.txt	SALT	8	13	[0, 0, 0]	n/a	FR1	0	R1315T
1592.957	1.037	1446746	WORD_OFF	n/a	n/a	SALT	8	13	[0, 0, 0]	n/a	FR1	0	R1315T
1593.994	1.629	1447783	WORD	n/a	wordpools/wordpool_EN.txt	CLOUD	9	13	[0, 0, 0]	n/a	FR1	0	R1315T
1595.623	0.981	1449412	WORD_OFF	n/a	n/a	CLOUD	9	13	[0, 0, 0]	n/a	FR1	0	R1315T
1596.604	1.637	1450393	WORD	n/a	wordpools/wordpool_EN.txt	MAT	10	13	[0, 0, 0]	n/a	FR1	0	R1315T
1598.241	0.85	1452030	WORD_OFF	n/a	n/a	MAT	10	13	[0, 0, 0]	n/a	FR1	0	R1315T
1599.091	1.633	1452880	WORD	n/a	wordpools/wordpool_EN.txt	CAT	11	13	[0, 0, 0]	n/a	FR1	0	R1315T
1600.724	0.848	1454513	WORD_OFF	n/a	n/a	CAT	11	13	[0, 0, 0]	n/a	FR1	0	R1315T
1601.572	1.636	1455361	WORD	n/a	wordpools/wordpool_EN.txt	STRAW	12	13	[0, 0, 0]	n/a	FR1	0	R1315T
1603.208	0.001	1456997	WORD_OFF	n/a	n/a	STRAW	12	13	[0, 0, 0]	n/a	FR1	0	R1315T
1603.209	0.0	1456998	ENCODING_END	n/a	n/a	n/a	-999	13	[0, 0, 0]	n/a	FR1	0	R1315T
1603.209	0.0	1456998	DISTRACT_START	n/a	n/a	n/a	-999	13	[0, 0, 0]	n/a	FR1	0	R1315T
1603.209	0.016	1456998	START	n/a	n/a	n/a	-999	13	[-999, -999, -999]	n/a	FR1	0	R1315T
1603.225	4.934	1457014	PROB	4.934	n/a	n/a	-999	13	[3, 7, 3]	13	FR1	0	R1315T
1608.159	4.334	1461948	PROB	4.334	n/a	n/a	-999	13	[8, 5, 8]	21	FR1	0	R1315T
1612.493	3.817	1466282	PROB	3.817	n/a	n/a	-999	13	[5, 2, 8]	15	FR1	0	R1315T
1616.31	7.138	1470098	PROB	7.138	n/a	n/a	-999	13	[3, 6, 9]	18	FR1	0	R1315T
1623.448	0.014	1477236	STOP	n/a	n/a	n/a	-999	13	[-999, -999, -999]	n/a	FR1	0	R1315T
1623.462	0.525	1477250	DISTRACT_END	n/a	n/a	n/a	-999	13	[0, 0, 0]	n/a	FR1	0	R1315T
1623.987	1.691	1477775	RETRIEVAL_ORIENT_START	n/a	n/a	n/a	-999	13	[0, 0, 0]	n/a	FR1	0	R1315T
1625.678	0.001	1479466	RETRIEVAL_ORIENT_END	n/a	n/a	n/a	-999	13	[0, 0, 0]	n/a	FR1	0	R1315T
1625.679	1.771	1479467	REC_START	n/a	n/a	n/a	-999	13	[0, 0, 0]	n/a	FR1	0	R1315T
1627.45	0.645	1481238	REC_WORD	0.645	n/a	STRAW	12	13	[0, 0, 0]	n/a	FR1	0	R1315T
1628.095	0.95	1481883	REC_WORD	0.95	n/a	STOVE	7	13	[0, 0, 0]	n/a	FR1	0	R1315T
1629.045	0.731	1482833	REC_WORD	0.731	n/a	CAT	11	13	[0, 0, 0]	n/a	FR1	0	R1315T
1629.776	25.914	1483564	REC_WORD	25.914	n/a	RICE	5	13	[0, 0, 0]	n/a	FR1	0	R1315T
1655.69	0.0	1509477	REC_END	n/a	n/a	n/a	-999	13	[0, 0, 0]	n/a	FR1	0	R1315T
1655.69	0.015	1509477	TRIAL_END	n/a	n/a	n/a	-999	13	[0, 0, 0]	n/a	FR1	0	R1315T
1655.705	0.0	1509492	TRIAL	n/a	n/a	n/a	-999	14	[0, 0, 0]	n/a	FR1	0	R1315T
1655.705	0.001	1509492	TRIAL_START	n/a	n/a	n/a	-999	14	[0, 0, 0]	n/a	FR1	0	R1315T
1655.706	1.179	1509493	WAITING_START	n/a	n/a	n/a	-999	14	[0, 0, 0]	n/a	FR1	0	R1315T
1656.885	0.0	1510672	WAITING_END	n/a	n/a	n/a	-999	14	[0, 0, 0]	n/a	FR1	0	R1315T
1656.885	10.429	1510672	COUNTDOWN_START	n/a	n/a	n/a	-999	14	[0, 0, 0]	n/a	FR1	0	R1315T
1667.314	0.001	1521100	COUNTDOWN_END	n/a	n/a	n/a	-999	14	[0, 0, 0]	n/a	FR1	0	R1315T
1667.315	1.055	1521101	ORIENT_START	n/a	n/a	n/a	-999	14	[0, 0, 0]	n/a	FR1	0	R1315T
1668.37	0.0	1522156	ORIENT_END	n/a	n/a	n/a	-999	14	[0, 0, 0]	n/a	FR1	0	R1315T
1668.37	0.766	1522156	ENCODING_START	n/a	n/a	n/a	-999	14	[0, 0, 0]	n/a	FR1	0	R1315T
1669.136	1.634	1522922	WORD	n/a	wordpools/wordpool_EN.txt	HOSE	1	14	[0, 0, 0]	n/a	FR1	0	R1315T
1670.77	0.785	1524556	WORD_OFF	n/a	n/a	HOSE	1	14	[0, 0, 0]	n/a	FR1	0	R1315T
1671.555	1.632	1525341	WORD	n/a	wordpools/wordpool_EN.txt	WHEEL	2	14	[0, 0, 0]	n/a	FR1	0	R1315T
1673.187	1.02	1526973	WORD_OFF	n/a	n/a	WHEEL	2	14	[0, 0, 0]	n/a	FR1	0	R1315T
1674.207	1.631	1527993	WORD	n/a	wordpools/wordpool_EN.txt	DOCK	3	14	[0, 0, 0]	n/a	FR1	0	R1315T
1675.838	0.987	1529624	WORD_OFF	n/a	n/a	DOCK	3	14	[0, 0, 0]	n/a	FR1	0	R1315T
1676.825	1.63	1530611	WORD	n/a	wordpools/wordpool_EN.txt	JET	4	14	[0, 0, 0]	n/a	FR1	0	R1315T
1678.455	1.009	1532241	WORD_OFF	n/a	n/a	JET	4	14	[0, 0, 0]	n/a	FR1	0	R1315T
1679.464	1.625	1533250	WORD	n/a	wordpools/wordpool_EN.txt	TEETH	5	14	[0, 0, 0]	n/a	FR1	0	R1315T
1681.089	0.866	1534874	WORD_OFF	n/a	n/a	TEETH	5	14	[0, 0, 0]	n/a	FR1	0	R1315T
1681.955	1.634	1535740	WORD	n/a	wordpools/wordpool_EN.txt	FOOT	6	14	[0, 0, 0]	n/a	FR1	0	R1315T
1683.589	0.929	1537374	WORD_OFF	n/a	n/a	FOOT	6	14	[0, 0, 0]	n/a	FR1	0	R1315T
1684.518	1.622	1538303	WORD	n/a	wordpools/wordpool_EN.txt	CUP	7	14	[0, 0, 0]	n/a	FR1	0	R1315T
1686.14	1.06	1539925	WORD_OFF	n/a	n/a	CUP	7	14	[0, 0, 0]	n/a	FR1	0	R1315T
1687.2	1.624	1540985	WORD	n/a	wordpools/wordpool_EN.txt	SQUARE	8	14	[0, 0, 0]	n/a	FR1	0	R1315T
1688.824	1.022	1542609	WORD_OFF	n/a	n/a	SQUARE	8	14	[0, 0, 0]	n/a	FR1	0	R1315T
1689.846	1.628	1543631	WORD	n/a	wordpools/wordpool_EN.txt	WOOD	9	14	[0, 0, 0]	n/a	FR1	0	R1315T
1691.474	0.958	1545259	WORD_OFF	n/a	n/a	WOOD	9	14	[0, 0, 0]	n/a	FR1	0	R1315T
1692.432	1.626	1546217	WORD	n/a	wordpools/wordpool_EN.txt	TRAY	10	14	[0, 0, 0]	n/a	FR1	0	R1315T
1694.058	0.776	1547843	WORD_OFF	n/a	n/a	TRAY	10	14	[0, 0, 0]	n/a	FR1	0	R1315T
1694.834	1.624	1548619	WORD	n/a	wordpools/wordpool_EN.txt	SLEEVE	11	14	[0, 0, 0]	n/a	FR1	0	R1315T
1696.458	0.871	1550243	WORD_OFF	n/a	n/a	SLEEVE	11	14	[0, 0, 0]	n/a	FR1	0	R1315T
1697.329	1.614	1551114	WORD	n/a	wordpools/wordpool_EN.txt	PIPE	12	14	[0, 0, 0]	n/a	FR1	0	R1315T
1698.943	0.0	1552728	WORD_OFF	n/a	n/a	PIPE	12	14	[0, 0, 0]	n/a	FR1	0	R1315T
1698.943	0.001	1552728	ENCODING_END	n/a	n/a	n/a	-999	14	[0, 0, 0]	n/a	FR1	0	R1315T
1698.944	0.0	1552729	DISTRACT_START	n/a	n/a	n/a	-999	14	[0, 0, 0]	n/a	FR1	0	R1315T
1698.944	0.016	1552729	START	n/a	n/a	n/a	-999	14	[-999, -999, -999]	n/a	FR1	0	R1315T
1698.96	3.616	1552745	PROB	3.616	n/a	n/a	-999	14	[6, 6, 4]	16	FR1	0	R1315T
1702.576	13.736	1556360	PROB	13.736	n/a	n/a	-999	14	[5, 4, 3]	12	FR1	0	R1315T
1716.312	3.951	1570096	PROB	3.951	n/a	n/a	-999	14	[2, 6, 8]	16	FR1	0	R1315T
1720.263	0.016	1574047	STOP	n/a	n/a	n/a	-999	14	[-999, -999, -999]	n/a	FR1	0	R1315T
1720.279	0.576	1574063	DISTRACT_END	n/a	n/a	n/a	-999	14	[0, 0, 0]	n/a	FR1	0	R1315T
1720.855	1.591	1574639	RETRIEVAL_ORIENT_START	n/a	n/a	n/a	-999	14	[0, 0, 0]	n/a	FR1	0	R1315T
1722.446	0.001	1576230	RETRIEVAL_ORIENT_END	n/a	n/a	n/a	-999	14	[0, 0, 0]	n/a	FR1	0	R1315T
1722.447	1.493	1576231	REC_START	n/a	n/a	n/a	-999	14	[0, 0, 0]	n/a	FR1	0	R1315T
1723.94	0.731	1577724	REC_WORD	0.731	n/a	JET	4	14	[0, 0, 0]	n/a	FR1	0	R1315T
1724.671	27.788	1578455	REC_WORD	27.788	n/a	WOOD	9	14	[0, 0, 0]	n/a	FR1	0	R1315T
1752.459	0.001	1606241	REC_END	n/a	n/a	n/a	-999	14	[0, 0, 0]	n/a	FR1	0	R1315T
1752.46	0.015	1606242	TRIAL_END	n/a	n/a	n/a	-999	14	[0, 0, 0]	n/a	FR1	0	R1315T
1752.475	0.0	1606257	TRIAL_START	n/a	n/a	n/a	-999	15	[0, 0, 0]	n/a	FR1	0	R1315T
1752.475	0.001	1606257	TRIAL	n/a	n/a	n/a	-999	15	[0, 0, 0]	n/a	FR1	0	R1315T
1752.476	1.426	1606258	WAITING_START	n/a	n/a	n/a	-999	15	[0, 0, 0]	n/a	FR1	0	R1315T
1753.902	0.001	1607684	WAITING_END	n/a	n/a	n/a	-999	15	[0, 0, 0]	n/a	FR1	0	R1315T
1753.903	10.429	1607685	COUNTDOWN_START	n/a	n/a	n/a	-999	15	[0, 0, 0]	n/a	FR1	0	R1315T
1764.332	0.0	1618114	COUNTDOWN_END	n/a	n/a	n/a	-999	15	[0, 0, 0]	n/a	FR1	0	R1315T
1764.332	1.239	1618114	ORIENT_START	n/a	n/a	n/a	-999	15	[0, 0, 0]	n/a	FR1	0	R1315T
1765.571	0.0	1619353	ORIENT_END	n/a	n/a	n/a	-999	15	[0, 0, 0]	n/a	FR1	0	R1315T
1765.571	0.831	1619353	ENCODING_START	n/a	n/a	n/a	-999	15	[0, 0, 0]	n/a	FR1	0	R1315T
1766.402	1.636	1620184	WORD	n/a	wordpools/wordpool_EN.txt	MOTH	1	15	[0, 0, 0]	n/a	FR1	0	R1315T
1768.038	0.983	1621820	WORD_OFF	n/a	n/a	MOTH	1	15	[0, 0, 0]	n/a	FR1	0	R1315T
1769.021	1.634	1622803	WORD	n/a	wordpools/wordpool_EN.txt	JAIL	2	15	[0, 0, 0]	n/a	FR1	0	R1315T
1770.655	0.897	1624436	WORD_OFF	n/a	n/a	JAIL	2	15	[0, 0, 0]	n/a	FR1	0	R1315T
1771.552	1.637	1625333	WORD	n/a	wordpools/wordpool_EN.txt	CLOCK	3	15	[0, 0, 0]	n/a	FR1	0	R1315T
1773.189	0.759	1626970	WORD_OFF	n/a	n/a	CLOCK	3	15	[0, 0, 0]	n/a	FR1	0	R1315T
1773.948	1.625	1627729	WORD	n/a	wordpools/wordpool_EN.txt	SIGN	4	15	[0, 0, 0]	n/a	FR1	0	R1315T
1775.573	0.94	1629354	WORD_OFF	n/a	n/a	SIGN	4	15	[0, 0, 0]	n/a	FR1	0	R1315T
1776.513	1.627	1630294	WORD	n/a	wordpools/wordpool_EN.txt	STORE	5	15	[0, 0, 0]	n/a	FR1	0	R1315T
1778.14	0.769	1631921	WORD_OFF	n/a	n/a	STORE	5	15	[0, 0, 0]	n/a	FR1	0	R1315T
1778.909	1.631	1632690	WORD	n/a	wordpools/wordpool_EN.txt	ZOO	6	15	[0, 0, 0]	n/a	FR1	0	R1315T
1780.54	0.781	1634321	WORD_OFF	n/a	n/a	ZOO	6	15	[0, 0, 0]	n/a	FR1	0	R1315T
1781.321	1.638	1635102	WORD	n/a	wordpools/wordpool_EN.txt	HAND	7	15	[0, 0, 0]	n/a	FR1	0	R1315T
1782.959	1.093	1636740	WORD_OFF	n/a	n/a	HAND	7	15	[0, 0, 0]	n/a	FR1	0	R1315T
1784.052	1.623	1637833	WORD	n/a	wordpools/wordpool_EN.txt	WING	8	15	[0, 0, 0]	n/a	FR1	0	R1315T
1785.675	0.934	1639456	WORD_OFF	n/a	n/a	WING	8	15	[0, 0, 0]	n/a	FR1	0	R1315T
1786.609	1.633	1640390	WORD	n/a	wordpools/wordpool_EN.txt	RAT	9	15	[0, 0, 0]	n/a	FR1	0	R1315T
1788.242	1.029	1642023	WORD_OFF	n/a	n/a	RAT	9	15	[0, 0, 0]	n/a	FR1	0	R1315T
1789.271	1.621	1643052	WORD	n/a	wordpools/wordpool_EN.txt	CUBE	10	15	[0, 0, 0]	n/a	FR1	0	R1315T
1790.892	0.831	1644673	WORD_OFF	n/a	n/a	CUBE	10	15	[0, 0, 0]	n/a	FR1	0	R1315T
1791.723	1.636	1645504	WORD	n/a	wordpools/wordpool_EN.txt	BAND	11	15	[0, 0, 0]	n/a	FR1	0	R1315T
1793.359	1.11	1647139	WORD_OFF	n/a	n/a	BAND	11	15	[0, 0, 0]	n/a	FR1	0	R1315T
1794.469	1.624	1648249	WORD	n/a	wordpools/wordpool_EN.txt	HAT	12	15	[0, 0, 0]	n/a	FR1	0	R1315T
1796.093	0.0	1649873	WORD_OFF	n/a	n/a	HAT	12	15	[0, 0, 0]	n/a	FR1	0	R1315T
1796.093	0.001	1649873	ENCODING_END	n/a	n/a	n/a	-999	15	[0, 0, 0]	n/a	FR1	0	R1315T
1796.094	0.0	1649874	DISTRACT_START	n/a	n/a	n/a	-999	15	[0, 0, 0]	n/a	FR1	0	R1315T
1796.094	0.016	1649874	START	n/a	n/a	n/a	-999	15	[-999, -999, -999]	n/a	FR1	0	R1315T
1796.11	8.118	1649890	PROB	8.118	n/a	n/a	-999	15	[1, 7, 4]	12	FR1	0	R1315T
1804.228	6.134	1658008	PROB	6.134	n/a	n/a	-999	15	[3, 4, 8]	16	FR1	0	R1315T
1810.362	3.084	1664142	PROB	3.084	n/a	n/a	-999	15	[3, 1, 9]	13	FR1	0	R1315T
1813.446	9.885	1667226	PROB	9.885	n/a	n/a	-999	15	[4, 9, 3]	15	FR1	0	R1315T
1823.331	0.017	1677110	STOP	n/a	n/a	n/a	-999	15	[-999, -999, -999]	n/a	FR1	0	R1315T
1823.348	0.615	1677127	DISTRACT_END	n/a	n/a	n/a	-999	15	[0, 0, 0]	n/a	FR1	0	R1315T
1823.963	1.702	1677742	RETRIEVAL_ORIENT_START	n/a	n/a	n/a	-999	15	[0, 0, 0]	n/a	FR1	0	R1315T
1825.665	0.001	1679444	RETRIEVAL_ORIENT_END	n/a	n/a	n/a	-999	15	[0, 0, 0]	n/a	FR1	0	R1315T
1825.666	2.275	1679445	REC_START	n/a	n/a	n/a	-999	15	[0, 0, 0]	n/a	FR1	0	R1315T
1827.941	1.46	1681720	REC_WORD	1.46	n/a	JAIL	2	15	[0, 0, 0]	n/a	FR1	0	R1315T
1829.401	2.027	1683180	REC_WORD	2.027	n/a	RAT	9	15	[0, 0, 0]	n/a	FR1	0	R1315T
1831.428	6.302	1685207	REC_WORD	6.302	n/a	CLOCK	3	15	[0, 0, 0]	n/a	FR1	0	R1315T
1837.73	17.949	1691508	REC_WORD	17.949	n/a	ZOO	6	15	[0, 0, 0]	n/a	FR1	0	R1315T
1855.679	0.0	1709457	REC_END	n/a	n/a	n/a	-999	15	[0, 0, 0]	n/a	FR1	0	R1315T
1855.679	0.015	1709457	TRIAL_END	n/a	n/a	n/a	-999	15	[0, 0, 0]	n/a	FR1	0	R1315T
1855.694	0.0	1709472	TRIAL	n/a	n/a	n/a	-999	16	[0, 0, 0]	n/a	FR1	0	R1315T
1855.694	0.0	1709472	WAITING_START	n/a	n/a	n/a	-999	16	[0, 0, 0]	n/a	FR1	0	R1315T
1855.694	1.694	1709472	TRIAL_START	n/a	n/a	n/a	-999	16	[0, 0, 0]	n/a	FR1	0	R1315T
1857.388	0.0	1711166	WAITING_END	n/a	n/a	n/a	-999	16	[0, 0, 0]	n/a	FR1	0	R1315T
1857.388	10.429	1711166	COUNTDOWN_START	n/a	n/a	n/a	-999	16	[0, 0, 0]	n/a	FR1	0	R1315T
1867.817	0.0	1721594	COUNTDOWN_END	n/a	n/a	n/a	-999	16	[0, 0, 0]	n/a	FR1	0	R1315T
1867.817	1.156	1721594	ORIENT_START	n/a	n/a	n/a	-999	16	[0, 0, 0]	n/a	FR1	0	R1315T
1868.973	0.0	1722750	ORIENT_END	n/a	n/a	n/a	-999	16	[0, 0, 0]	n/a	FR1	0	R1315T
1868.973	1.128	1722750	ENCODING_START	n/a	n/a	n/a	-999	16	[0, 0, 0]	n/a	FR1	0	R1315T
1870.101	1.622	1723878	WORD	n/a	wordpools/wordpool_EN.txt	WOLF	1	16	[0, 0, 0]	n/a	FR1	0	R1315T
1871.723	0.922	1725500	WORD_OFF	n/a	n/a	WOLF	1	16	[0, 0, 0]	n/a	FR1	0	R1315T
1872.645	1.629	1726422	WORD	n/a	wordpools/wordpool_EN.txt	FLAG	2	16	[0, 0, 0]	n/a	FR1	0	R1315T
1874.274	0.948	1728051	WORD_OFF	n/a	n/a	FLAG	2	16	[0, 0, 0]	n/a	FR1	0	R1315T
1875.222	1.636	1728999	WORD	n/a	wordpools/wordpool_EN.txt	PLANT	3	16	[0, 0, 0]	n/a	FR1	0	R1315T
1876.858	1.023	1730635	WORD_OFF	n/a	n/a	PLANT	3	16	[0, 0, 0]	n/a	FR1	0	R1315T
1877.881	1.627	1731658	WORD	n/a	wordpools/wordpool_EN.txt	FLEA	4	16	[0, 0, 0]	n/a	FR1	0	R1315T
1879.508	1.062	1733285	WORD_OFF	n/a	n/a	FLEA	4	16	[0, 0, 0]	n/a	FR1	0	R1315T
1880.57	1.622	1734347	WORD	n/a	wordpools/wordpool_EN.txt	MULE	5	16	[0, 0, 0]	n/a	FR1	0	R1315T
1882.192	0.971	1735968	WORD_OFF	n/a	n/a	MULE	5	16	[0, 0, 0]	n/a	FR1	0	R1315T
1883.163	1.63	1736939	WORD	n/a	wordpools/wordpool_EN.txt	OWL	6	16	[0, 0, 0]	n/a	FR1	0	R1315T
1884.793	1.027	1738569	WORD_OFF	n/a	n/a	OWL	6	16	[0, 0, 0]	n/a	FR1	0	R1315T
1885.82	1.623	1739596	WORD	n/a	wordpools/wordpool_EN.txt	WAND	7	16	[0, 0, 0]	n/a	FR1	0	R1315T
1887.443	0.905	1741219	WORD_OFF	n/a	n/a	WAND	7	16	[0, 0, 0]	n/a	FR1	0	R1315T
1888.348	1.629	1742124	WORD	n/a	wordpools/wordpool_EN.txt	RAIN	8	16	[0, 0, 0]	n/a	FR1	0	R1315T
1889.977	0.894	1743753	WORD_OFF	n/a	n/a	RAIN	8	16	[0, 0, 0]	n/a	FR1	0	R1315T
1890.871	1.623	1744647	WORD	n/a	wordpools/wordpool_EN.txt	SHEET	9	16	[0, 0, 0]	n/a	FR1	0	R1315T
1892.494	0.804	1746270	WORD_OFF	n/a	n/a	SHEET	9	16	[0, 0, 0]	n/a	FR1	0	R1315T
1893.298	1.631	1747074	WORD	n/a	wordpools/wordpool_EN.txt	GRASS	10	16	[0, 0, 0]	n/a	FR1	0	R1315T
1894.929	1.067	1748705	WORD_OFF	n/a	n/a	GRASS	10	16	[0, 0, 0]	n/a	FR1	0	R1315T
1895.996	1.632	1749772	WORD	n/a	wordpools/wordpool_EN.txt	ARK	11	16	[0, 0, 0]	n/a	FR1	0	R1315T
1897.628	1.129	1751404	WORD_OFF	n/a	n/a	ARK	11	16	[0, 0, 0]	n/a	FR1	0	R1315T
1898.757	1.622	1752533	WORD	n/a	wordpools/wordpool_EN.txt	CALF	12	16	[0, 0, 0]	n/a	FR1	0	R1315T
1900.379	0.0	1754155	WORD_OFF	n/a	n/a	CALF	12	16	[0, 0, 0]	n/a	FR1	0	R1315T
1900.379	0.001	1754155	ENCODING_END	n/a	n/a	n/a	-999	16	[0, 0, 0]	n/a	FR1	0	R1315T
1900.38	0.0	1754156	DISTRACT_START	n/a	n/a	n/a	-999	16	[0, 0, 0]	n/a	FR1	0	R1315T
1900.38	0.015	1754156	START	n/a	n/a	n/a	-999	16	[-999, -999, -999]	n/a	FR1	0	R1315T
1900.395	3.968	1754171	PROB	3.968	n/a	n/a	-999	16	[1, 6, 9]	16	FR1	0	R1315T
1904.363	4.5	1758138	PROB	4.5	n/a	n/a	-999	16	[2, 5, 2]	9	FR1	0	R1315T
1908.863	2.584	1762638	PROB	2.584	n/a	n/a	-999	16	[4, 4, 6]	14	FR1	0	R1315T
1911.447	4.469	1765222	PROB	4.469	n/a	n/a	-999	16	[7, 4, 7]	18	FR1	0	R1315T
1915.916	2.899	1769691	PROB	2.899	n/a	n/a	-999	16	[1, 6, 1]	8	FR1	0	R1315T
1918.815	4.357	1772590	PROB	4.357	n/a	n/a	-999	16	[3, 4, 2]	9	FR1	0	R1315T
1923.172	0.011	1776947	STOP	n/a	n/a	n/a	-999	16	[-999, -999, -999]	n/a	FR1	0	R1315T
1923.183	0.621	1776958	DISTRACT_END	n/a	n/a	n/a	-999	16	[0, 0, 0]	n/a	FR1	0	R1315T
1923.804	1.713	1777579	RETRIEVAL_ORIENT_START	n/a	n/a	n/a	-999	16	[0, 0, 0]	n/a	FR1	0	R1315T
1925.517	0.0	1779292	REC_START	n/a	n/a	n/a	-999	16	[0, 0, 0]	n/a	FR1	0	R1315T
1925.517	1.262	1779292	RETRIEVAL_ORIENT_END	n/a	n/a	n/a	-999	16	[0, 0, 0]	n/a	FR1	0	R1315T
1926.779	0.869	1780553	REC_WORD	0.869	n/a	WOLF	1	16	[0, 0, 0]	n/a	FR1	0	R1315T
1927.648	1.018	1781422	REC_WORD	1.018	n/a	FLAG	2	16	[0, 0, 0]	n/a	FR1	0	R1315T
1928.666	3.316	1782440	REC_WORD	3.316	n/a	ARK	11	16	[0, 0, 0]	n/a	FR1	0	R1315T
1931.982	1.372	1785756	REC_WORD	1.372	n/a	FLEA	4	16	[0, 0, 0]	n/a	FR1	0	R1315T
1933.354	22.174	1787128	REC_WORD	22.174	n/a	MULE	5	16	[0, 0, 0]	n/a	FR1	0	R1315T
1955.528	0.0	1809301	REC_END	n/a	n/a	n/a	-999	16	[0, 0, 0]	n/a	FR1	0	R1315T
1955.528	0.016	1809301	TRIAL_END	n/a	n/a	n/a	-999	16	[0, 0, 0]	n/a	FR1	0	R1315T
1955.544	0.001	1809317	TRIAL_START	n/a	n/a	n/a	-999	17	[0, 0, 0]	n/a	FR1	0	R1315T
1955.545	0.0	1809318	WAITING_START	n/a	n/a	n/a	-999	17	[0, 0, 0]	n/a	FR1	0	R1315T
1955.545	0.927	1809318	TRIAL	n/a	n/a	n/a	-999	17	[0, 0, 0]	n/a	FR1	0	R1315T
1956.472	0.001	1810245	WAITING_END	n/a	n/a	n/a	-999	17	[0, 0, 0]	n/a	FR1	0	R1315T
1956.473	10.429	1810246	COUNTDOWN_START	n/a	n/a	n/a	-999	17	[0, 0, 0]	n/a	FR1	0	R1315T
1966.902	0.0	1820675	COUNTDOWN_END	n/a	n/a	n/a	-999	17	[0, 0, 0]	n/a	FR1	0	R1315T
1966.902	1.023	1820675	ORIENT_START	n/a	n/a	n/a	-999	17	[0, 0, 0]	n/a	FR1	0	R1315T
1967.925	0.001	1821698	ORIENT_END	n/a	n/a	n/a	-999	17	[0, 0, 0]	n/a	FR1	0	R1315T
1967.926	0.981	1821699	ENCODING_START	n/a	n/a	n/a	-999	17	[0, 0, 0]	n/a	FR1	0	R1315T
1968.907	1.634	1822680	WORD	n/a	wordpools/wordpool_EN.txt	SPEAR	1	17	[0, 0, 0]	n/a	FR1	0	R1315T
1970.541	0.799	1824314	WORD_OFF	n/a	n/a	SPEAR	1	17	[0, 0, 0]	n/a	FR1	0	R1315T
1971.34	1.619	1825112	WORD	n/a	wordpools/wordpool_EN.txt	THUMB	2	17	[0, 0, 0]	n/a	FR1	0	R1315T
1972.959	1.066	1826731	WORD_OFF	n/a	n/a	THUMB	2	17	[0, 0, 0]	n/a	FR1	0	R1315T
1974.025	1.634	1827797	WORD	n/a	wordpools/wordpool_EN.txt	MOUSE	3	17	[0, 0, 0]	n/a	FR1	0	R1315T
1975.659	0.821	1829431	WORD_OFF	n/a	n/a	MOUSE	3	17	[0, 0, 0]	n/a	FR1	0	R1315T
1976.48	1.63	1830252	WORD	n/a	wordpools/wordpool_EN.txt	MOLE	4	17	[0, 0, 0]	n/a	FR1	0	R1315T
1978.11	1.132	1831882	WORD_OFF	n/a	n/a	MOLE	4	17	[0, 0, 0]	n/a	FR1	0	R1315T
1979.242	1.635	1833014	WORD	n/a	wordpools/wordpool_EN.txt	TRASH	5	17	[0, 0, 0]	n/a	FR1	0	R1315T
1980.877	1.141	1834649	WORD_OFF	n/a	n/a	TRASH	5	17	[0, 0, 0]	n/a	FR1	0	R1315T
1982.018	1.626	1835790	WORD	n/a	wordpools/wordpool_EN.txt	JEEP	6	17	[0, 0, 0]	n/a	FR1	0	R1315T
1983.644	0.895	1837416	WORD_OFF	n/a	n/a	JEEP	6	17	[0, 0, 0]	n/a	FR1	0	R1315T
1984.539	1.622	1838311	WORD	n/a	wordpools/wordpool_EN.txt	LAMP	7	17	[0, 0, 0]	n/a	FR1	0	R1315T
1986.161	1.112	1839933	WORD_OFF	n/a	n/a	LAMP	7	17	[0, 0, 0]	n/a	FR1	0	R1315T
1987.273	1.622	1841045	WORD	n/a	wordpools/wordpool_EN.txt	TOE	8	17	[0, 0, 0]	n/a	FR1	0	R1315T
1988.895	1.051	1842667	WORD_OFF	n/a	n/a	TOE	8	17	[0, 0, 0]	n/a	FR1	0	R1315T
1989.946	1.633	1843718	WORD	n/a	wordpools/wordpool_EN.txt	BLUSH	9	17	[0, 0, 0]	n/a	FR1	0	R1315T
1991.579	0.984	1845351	WORD_OFF	n/a	n/a	BLUSH	9	17	[0, 0, 0]	n/a	FR1	0	R1315T
1992.563	1.633	1846335	WORD	n/a	wordpools/wordpool_EN.txt	DOG	10	17	[0, 0, 0]	n/a	FR1	0	R1315T
1994.196	0.947	1847967	WORD_OFF	n/a	n/a	DOG	10	17	[0, 0, 0]	n/a	FR1	0	R1315T
1995.143	1.636	1848914	WORD	n/a	wordpools/wordpool_EN.txt	BRIDGE	11	17	[0, 0, 0]	n/a	FR1	0	R1315T
1996.779	1.122	1850550	WORD_OFF	n/a	n/a	BRIDGE	11	17	[0, 0, 0]	n/a	FR1	0	R1315T
1997.901	1.629	1851672	WORD	n/a	wordpools/wordpool_EN.txt	BANK	12	17	[0, 0, 0]	n/a	FR1	0	R1315T
1999.53	0.0	1853301	WORD_OFF	n/a	n/a	BANK	12	17	[0, 0, 0]	n/a	FR1	0	R1315T
1999.53	0.001	1853301	ENCODING_END	n/a	n/a	n/a	-999	17	[0, 0, 0]	n/a	FR1	0	R1315T
1999.531	0.0	1853302	DISTRACT_START	n/a	n/a	n/a	-999	17	[0, 0, 0]	n/a	FR1	0	R1315T
1999.531	0.015	1853302	START	n/a	n/a	n/a	-999	17	[-999, -999, -999]	n/a	FR1	0	R1315T
1999.546	6.552	1853317	PROB	6.552	n/a	n/a	-999	17	[9, 6, 7]	21	FR1	0	R1315T
2006.098	3.835	1859869	PROB	3.835	n/a	n/a	-999	17	[7, 7, 2]	16	FR1	0	R1315T
2009.933	3.516	1863704	PROB	3.516	n/a	n/a	-999	17	[3, 6, 2]	11	FR1	0	R1315T
2013.449	5.151	1867220	PROB	5.151	n/a	n/a	-999	17	[8, 2, 7]	17	FR1	0	R1315T
2018.6	3.179	1872370	PROB	3.179	n/a	n/a	-999	17	[5, 8, 2]	15	FR1	0	R1315T
2021.779	0.022	1875549	STOP	n/a	n/a	n/a	-999	17	[-999, -999, -999]	n/a	FR1	0	R1315T
2021.801	0.509	1875571	DISTRACT_END	n/a	n/a	n/a	-999	17	[0, 0, 0]	n/a	FR1	0	R1315T
2022.31	1.574	1876080	RETRIEVAL_ORIENT_START	n/a	n/a	n/a	-999	17	[0, 0, 0]	n/a	FR1	0	R1315T
2023.884	0.001	1877654	RETRIEVAL_ORIENT_END	n/a	n/a	n/a	-999	17	[0, 0, 0]	n/a	FR1	0	R1315T
2023.885	1.215	1877655	REC_START	n/a	n/a	n/a	-999	17	[0, 0, 0]	n/a	FR1	0	R1315T
2025.1	4.899	1878870	REC_WORD	4.899	n/a	BANK	12	17	[0, 0, 0]	n/a	FR1	0	R1315T
2029.999	23.899	1883769	REC_WORD	23.899	n/a	TRASH	5	17	[0, 0, 0]	n/a	FR1	0	R1315T
2053.898	0.0	1907667	REC_END	n/a	n/a	n/a	-999	17	[0, 0, 0]	n/a	FR1	0	R1315T
2053.898	0.017	1907667	TRIAL_END	n/a	n/a	n/a	-999	17	[0, 0, 0]	n/a	FR1	0	R1315T
2053.915	0.0	1907684	TRIAL_START	n/a	n/a	n/a	-999	18	[0, 0, 0]	n/a	FR1	0	R1315T
2053.915	0.0	1907684	TRIAL	n/a	n/a	n/a	-999	18	[0, 0, 0]	n/a	FR1	0	R1315T
2053.915	1.625	1907684	WAITING_START	n/a	n/a	n/a	-999	18	[0, 0, 0]	n/a	FR1	0	R1315T
2055.54	0.001	1909309	WAITING_END	n/a	n/a	n/a	-999	18	[0, 0, 0]	n/a	FR1	0	R1315T
2055.541	10.429	1909310	COUNTDOWN_START	n/a	n/a	n/a	-999	18	[0, 0, 0]	n/a	FR1	0	R1315T
2065.97	0.0	1919738	COUNTDOWN_END	n/a	n/a	n/a	-999	18	[0, 0, 0]	n/a	FR1	0	R1315T
2065.97	1.156	1919738	ORIENT_START	n/a	n/a	n/a	-999	18	[0, 0, 0]	n/a	FR1	0	R1315T
2067.126	0.0	1920894	ORIENT_END	n/a	n/a	n/a	-999	18	[0, 0, 0]	n/a	FR1	0	R1315T
2067.126	1.019	1920894	ENCODING_START	n/a	n/a	n/a	-999	18	[0, 0, 0]	n/a	FR1	0	R1315T
2068.145	1.631	1921913	WORD	n/a	wordpools/wordpool_EN.txt	CHALK	1	18	[0, 0, 0]	n/a	FR1	0	R1315T
2069.776	1.111	1923544	WORD_OFF	n/a	n/a	CHALK	1	18	[0, 0, 0]	n/a	FR1	0	R1315T
2070.887	1.623	1924655	WORD	n/a	wordpools/wordpool_EN.txt	SHIELD	2	18	[0, 0, 0]	n/a	FR1	0	R1315T
2072.51	1.011	1926278	WORD_OFF	n/a	n/a	SHIELD	2	18	[0, 0, 0]	n/a	FR1	0	R1315T
2073.521	1.623	1927289	WORD	n/a	wordpools/wordpool_EN.txt	TREE	3	18	[0, 0, 0]	n/a	FR1	0	R1315T
2075.144	0.89	1928912	WORD_OFF	n/a	n/a	TREE	3	18	[0, 0, 0]	n/a	FR1	0	R1315T
2076.034	1.627	1929802	WORD	n/a	wordpools/wordpool_EN.txt	HOUSE	4	18	[0, 0, 0]	n/a	FR1	0	R1315T
2077.661	0.807	1931429	WORD_OFF	n/a	n/a	HOUSE	4	18	[0, 0, 0]	n/a	FR1	0	R1315T
2078.468	1.627	1932236	WORD	n/a	wordpools/wordpool_EN.txt	APE	5	18	[0, 0, 0]	n/a	FR1	0	R1315T
2080.095	1.011	1933863	WORD_OFF	n/a	n/a	APE	5	18	[0, 0, 0]	n/a	FR1	0	R1315T
2081.106	1.622	1934874	WORD	n/a	wordpools/wordpool_EN.txt	SHRIMP	6	18	[0, 0, 0]	n/a	FR1	0	R1315T
2082.728	0.946	1936495	WORD_OFF	n/a	n/a	SHRIMP	6	18	[0, 0, 0]	n/a	FR1	0	R1315T
2083.674	1.638	1937441	WORD	n/a	wordpools/wordpool_EN.txt	SHARK	7	18	[0, 0, 0]	n/a	FR1	0	R1315T
2085.312	0.901	1939079	WORD_OFF	n/a	n/a	SHARK	7	18	[0, 0, 0]	n/a	FR1	0	R1315T
2086.213	1.633	1939980	WORD	n/a	wordpools/wordpool_EN.txt	SHIRT	8	18	[0, 0, 0]	n/a	FR1	0	R1315T
2087.846	1.082	1941613	WORD_OFF	n/a	n/a	SHIRT	8	18	[0, 0, 0]	n/a	FR1	0	R1315T
2088.928	1.635	1942695	WORD	n/a	wordpools/wordpool_EN.txt	STAIR	9	18	[0, 0, 0]	n/a	FR1	0	R1315T
2090.563	0.838	1944330	WORD_OFF	n/a	n/a	STAIR	9	18	[0, 0, 0]	n/a	FR1	0	R1315T
2091.401	1.629	1945168	WORD	n/a	wordpools/wordpool_EN.txt	TOAD	10	18	[0, 0, 0]	n/a	FR1	0	R1315T
2093.03	0.918	1946797	WORD_OFF	n/a	n/a	TOAD	10	18	[0, 0, 0]	n/a	FR1	0	R1315T
2093.948	1.633	1947715	WORD	n/a	wordpools/wordpool_EN.txt	STREET	11	18	[0, 0, 0]	n/a	FR1	0	R1315T
2095.581	0.979	1949348	WORD_OFF	n/a	n/a	STREET	11	18	[0, 0, 0]	n/a	FR1	0	R1315T
2096.56	1.621	1950327	WORD	n/a	wordpools/wordpool_EN.txt	HOLE	12	18	[0, 0, 0]	n/a	FR1	0	R1315T
2098.181	0.001	1951948	WORD_OFF	n/a	n/a	HOLE	12	18	[0, 0, 0]	n/a	FR1	0	R1315T
2098.182	0.0	1951949	ENCODING_END	n/a	n/a	n/a	-999	18	[0, 0, 0]	n/a	FR1	0	R1315T
2098.182	0.0	1951949	DISTRACT_START	n/a	n/a	n/a	-999	18	[0, 0, 0]	n/a	FR1	0	R1315T
2098.182	0.016	1951949	START	n/a	n/a	n/a	-999	18	[-999, -999, -999]	n/a	FR1	0	R1315T
2098.198	2.9	1951965	PROB	2.9	n/a	n/a	-999	18	[6, 2, 4]	12	FR1	0	R1315T
2101.098	2.835	1954865	PROB	2.835	n/a	n/a	-999	18	[9, 1, 4]	14	FR1	0	R1315T
2103.933	2.666	1957700	PROB	2.666	n/a	n/a	-999	18	[8, 1, 2]	11	FR1	0	R1315T
2106.599	2.901	1960365	PROB	2.901	n/a	n/a	-999	18	[8, 5, 2]	15	FR1	0	R1315T
2109.5	3.3	1963266	PROB	3.3	n/a	n/a	-999	18	[1, 1, 2]	4	FR1	0	R1315T
2112.8	12.121	1966566	PROB	12.121	n/a	n/a	-999	18	[3, 9, 4]	16	FR1	0	R1315T
2124.921	0.016	1978687	STOP	n/a	n/a	n/a	-999	18	[-999, -999, -999]	n/a	FR1	0	R1315T
2124.937	0.636	1978703	DISTRACT_END	n/a	n/a	n/a	-999	18	[0, 0, 0]	n/a	FR1	0	R1315T
2125.573	1.597	1979339	RETRIEVAL_ORIENT_START	n/a	n/a	n/a	-999	18	[0, 0, 0]	n/a	FR1	0	R1315T
2127.17	0.0	1980936	RETRIEVAL_ORIENT_END	n/a	n/a	n/a	-999	18	[0, 0, 0]	n/a	FR1	0	R1315T
2127.17	2.153	1980936	REC_START	n/a	n/a	n/a	-999	18	[0, 0, 0]	n/a	FR1	0	R1315T
2129.323	0.608	1983088	REC_WORD	0.608	n/a	TREE	3	18	[0, 0, 0]	n/a	FR1	0	R1315T
2129.931	1.048	1983696	REC_WORD	1.048	n/a	STREET	11	18	[0, 0, 0]	n/a	FR1	0	R1315T
2130.979	0.897	1984744	REC_WORD	0.897	n/a	SHIRT	8	18	[0, 0, 0]	n/a	FR1	0	R1315T
2131.876	25.306	1985641	REC_WORD	25.306	n/a	STAIRS	-999	18	[0, 0, 0]	n/a	FR1	0	R1315T
2157.182	0.0	2010946	REC_END	n/a	n/a	n/a	-999	18	[0, 0, 0]	n/a	FR1	0	R1315T
2157.182	0.017	2010946	TRIAL_END	n/a	n/a	n/a	-999	18	[0, 0, 0]	n/a	FR1	0	R1315T
2157.199	0.0	2010963	TRIAL_START	n/a	n/a	n/a	-999	19	[0, 0, 0]	n/a	FR1	0	R1315T
2157.199	0.001	2010963	TRIAL	n/a	n/a	n/a	-999	19	[0, 0, 0]	n/a	FR1	0	R1315T
2157.2	1.809	2010964	WAITING_START	n/a	n/a	n/a	-999	19	[0, 0, 0]	n/a	FR1	0	R1315T
2159.009	0.0	2012773	COUNTDOWN_START	n/a	n/a	n/a	-999	19	[0, 0, 0]	n/a	FR1	0	R1315T
2159.009	10.429	2012773	WAITING_END	n/a	n/a	n/a	-999	19	[0, 0, 0]	n/a	FR1	0	R1315T
2169.438	0.0	2023202	COUNTDOWN_END	n/a	n/a	n/a	-999	19	[0, 0, 0]	n/a	FR1	0	R1315T
2169.438	1.023	2023202	ORIENT_START	n/a	n/a	n/a	-999	19	[0, 0, 0]	n/a	FR1	0	R1315T
2170.461	0.0	2024225	ORIENT_END	n/a	n/a	n/a	-999	19	[0, 0, 0]	n/a	FR1	0	R1315T
2170.461	1.059	2024225	ENCODING_START	n/a	n/a	n/a	-999	19	[0, 0, 0]	n/a	FR1	0	R1315T
2171.52	1.625	2025284	WORD	n/a	wordpools/wordpool_EN.txt	TANK	1	19	[0, 0, 0]	n/a	FR1	0	R1315T
2173.145	1.108	2026908	WORD_OFF	n/a	n/a	TANK	1	19	[0, 0, 0]	n/a	FR1	0	R1315T
2174.253	1.609	2028016	WORD	n/a	wordpools/wordpool_EN.txt	SHEEP	2	19	[0, 0, 0]	n/a	FR1	0	R1315T
2175.862	1.046	2029625	WORD_OFF	n/a	n/a	SHEEP	2	19	[0, 0, 0]	n/a	FR1	0	R1315T
2176.908	1.638	2030671	WORD	n/a	wordpools/wordpool_EN.txt	TRUCK	3	19	[0, 0, 0]	n/a	FR1	0	R1315T
2178.546	1.123	2032309	WORD_OFF	n/a	n/a	TRUCK	3	19	[0, 0, 0]	n/a	FR1	0	R1315T
2179.669	1.627	2033432	WORD	n/a	wordpools/wordpool_EN.txt	LAWN	4	19	[0, 0, 0]	n/a	FR1	0	R1315T
2181.296	1.038	2035059	WORD_OFF	n/a	n/a	LAWN	4	19	[0, 0, 0]	n/a	FR1	0	R1315T
2182.334	1.63	2036097	WORD	n/a	wordpools/wordpool_EN.txt	FOOD	5	19	[0, 0, 0]	n/a	FR1	0	R1315T
2183.964	0.935	2037727	WORD_OFF	n/a	n/a	FOOD	5	19	[0, 0, 0]	n/a	FR1	0	R1315T
2184.899	1.632	2038662	WORD	n/a	wordpools/wordpool_EN.txt	PLANE	6	19	[0, 0, 0]	n/a	FR1	0	R1315T
2186.531	0.785	2040294	WORD_OFF	n/a	n/a	PLANE	6	19	[0, 0, 0]	n/a	FR1	0	R1315T
2187.316	1.616	2041079	WORD	n/a	wordpools/wordpool_EN.txt	CANE	7	19	[0, 0, 0]	n/a	FR1	0	R1315T
2188.932	0.942	2042695	WORD_OFF	n/a	n/a	CANE	7	19	[0, 0, 0]	n/a	FR1	0	R1315T
2189.874	1.624	2043637	WORD	n/a	wordpools/wordpool_EN.txt	PEN	8	19	[0, 0, 0]	n/a	FR1	0	R1315T
2191.498	1.063	2045261	WORD_OFF	n/a	n/a	PEN	8	19	[0, 0, 0]	n/a	FR1	0	R1315T
2192.561	1.621	2046324	WORD	n/a	wordpools/wordpool_EN.txt	SNOW	9	19	[0, 0, 0]	n/a	FR1	0	R1315T
2194.182	1.125	2047945	WORD_OFF	n/a	n/a	SNOW	9	19	[0, 0, 0]	n/a	FR1	0	R1315T
2195.307	1.61	2049069	WORD	n/a	wordpools/wordpool_EN.txt	BOMB	10	19	[0, 0, 0]	n/a	FR1	0	R1315T
2196.917	0.935	2050679	WORD_OFF	n/a	n/a	BOMB	10	19	[0, 0, 0]	n/a	FR1	0	R1315T
2197.852	1.631	2051614	WORD	n/a	wordpools/wordpool_EN.txt	CRANE	11	19	[0, 0, 0]	n/a	FR1	0	R1315T
2199.483	0.855	2053245	WORD_OFF	n/a	n/a	CRANE	11	19	[0, 0, 0]	n/a	FR1	0	R1315T
2200.338	1.629	2054100	WORD	n/a	wordpools/wordpool_EN.txt	BOWL	12	19	[0, 0, 0]	n/a	FR1	0	R1315T
2201.967	0.0	2055729	WORD_OFF	n/a	n/a	BOWL	12	19	[0, 0, 0]	n/a	FR1	0	R1315T
2201.967	0.0	2055729	ENCODING_END	n/a	n/a	n/a	-999	19	[0, 0, 0]	n/a	FR1	0	R1315T
2201.967	0.001	2055729	DISTRACT_START	n/a	n/a	n/a	-999	19	[0, 0, 0]	n/a	FR1	0	R1315T
2201.968	0.015	2055730	START	n/a	n/a	n/a	-999	19	[-999, -999, -999]	n/a	FR1	0	R1315T
2201.983	15.053	2055745	PROB	15.053	n/a	n/a	-999	19	[7, 9, 8]	24	FR1	0	R1315T
2217.036	3.767	2070797	PROB	3.767	n/a	n/a	-999	19	[3, 7, 2]	12	FR1	0	R1315T
2220.803	2.42	2074564	PROB	2.42	n/a	n/a	-999	19	[2, 6, 4]	12	FR1	0	R1315T
2223.223	0.014	2076984	STOP	n/a	n/a	n/a	-999	19	[-999, -999, -999]	n/a	FR1	0	R1315T
2223.237	0.507	2076998	DISTRACT_END	n/a	n/a	n/a	-999	19	[0, 0, 0]	n/a	FR1	0	R1315T
2223.744	1.594	2077505	RETRIEVAL_ORIENT_START	n/a	n/a	n/a	-999	19	[0, 0, 0]	n/a	FR1	0	R1315T
2225.338	0.0	2079099	RETRIEVAL_ORIENT_END	n/a	n/a	n/a	-999	19	[0, 0, 0]	n/a	FR1	0	R1315T
2225.338	1.117	2079099	REC_START	n/a	n/a	n/a	-999	19	[0, 0, 0]	n/a	FR1	0	R1315T
2226.455	0.771	2080216	REC_WORD	0.771	n/a	PLANE	6	19	[0, 0, 0]	n/a	FR1	0	R1315T
2227.226	0.914	2080987	REC_WORD	0.914	n/a	TANK	1	19	[0, 0, 0]	n/a	FR1	0	R1315T
2228.14	27.211	2081901	REC_WORD	27.211	n/a	BOMB	10	19	[0, 0, 0]	n/a	FR1	0	R1315T
2255.351	0.0	2109111	REC_END	n/a	n/a	n/a	-999	19	[0, 0, 0]	n/a	FR1	0	R1315T
2255.351	0.014	2109111	TRIAL_END	n/a	n/a	n/a	-999	19	[0, 0, 0]	n/a	FR1	0	R1315T
2255.365	0.001	2109125	TRIAL_START	n/a	n/a	n/a	-999	20	[0, 0, 0]	n/a	FR1	0	R1315T
2255.366	0.0	2109126	TRIAL	n/a	n/a	n/a	-999	20	[0, 0, 0]	n/a	FR1	0	R1315T
2255.366	1.111	2109126	WAITING_START	n/a	n/a	n/a	-999	20	[0, 0, 0]	n/a	FR1	0	R1315T
2256.477	0.0	2110237	COUNTDOWN_START	n/a	n/a	n/a	-999	20	[0, 0, 0]	n/a	FR1	0	R1315T
2256.477	10.429	2110237	WAITING_END	n/a	n/a	n/a	-999	20	[0, 0, 0]	n/a	FR1	0	R1315T
2266.906	0.0	2120665	COUNTDOWN_END	n/a	n/a	n/a	-999	20	[0, 0, 0]	n/a	FR1	0	R1315T
2266.906	1.123	2120665	ORIENT_START	n/a	n/a	n/a	-999	20	[0, 0, 0]	n/a	FR1	0	R1315T
2268.029	0.0	2121788	ORIENT_END	n/a	n/a	n/a	-999	20	[0, 0, 0]	n/a	FR1	0	R1315T
2268.029	0.94	2121788	ENCODING_START	n/a	n/a	n/a	-999	20	[0, 0, 0]	n/a	FR1	0	R1315T
2268.969	1.627	2122728	WORD	n/a	wordpools/wordpool_EN.txt	DART	1	20	[0, 0, 0]	n/a	FR1	0	R1315T
2270.596	0.908	2124355	WORD_OFF	n/a	n/a	DART	1	20	[0, 0, 0]	n/a	FR1	0	R1315T
2271.504	1.626	2125263	WORD	n/a	wordpools/wordpool_EN.txt	FRUIT	2	20	[0, 0, 0]	n/a	FR1	0	R1315T
2273.13	1.068	2126889	WORD_OFF	n/a	n/a	FRUIT	2	20	[0, 0, 0]	n/a	FR1	0	R1315T
2274.198	1.632	2127957	WORD	n/a	wordpools/wordpool_EN.txt	LOCK	3	20	[0, 0, 0]	n/a	FR1	0	R1315T
2275.83	1.02	2129589	WORD_OFF	n/a	n/a	LOCK	3	20	[0, 0, 0]	n/a	FR1	0	R1315T
2276.85	1.631	2130609	WORD	n/a	wordpools/wordpool_EN.txt	WEB	4	20	[0, 0, 0]	n/a	FR1	0	R1315T
2278.481	0.916	2132240	WORD_OFF	n/a	n/a	WEB	4	20	[0, 0, 0]	n/a	FR1	0	R1315T
2279.397	1.634	2133156	WORD	n/a	wordpools/wordpool_EN.txt	WAVE	5	20	[0, 0, 0]	n/a	FR1	0	R1315T
2281.031	0.925	2134790	WORD_OFF	n/a	n/a	WAVE	5	20	[0, 0, 0]	n/a	FR1	0	R1315T
2281.956	1.625	2135715	WORD	n/a	wordpools/wordpool_EN.txt	CAGE	6	20	[0, 0, 0]	n/a	FR1	0	R1315T
2283.581	0.752	2137340	WORD_OFF	n/a	n/a	CAGE	6	20	[0, 0, 0]	n/a	FR1	0	R1315T
2284.333	1.632	2138091	WORD	n/a	wordpools/wordpool_EN.txt	POLE	7	20	[0, 0, 0]	n/a	FR1	0	R1315T
2285.965	1.15	2139723	WORD_OFF	n/a	n/a	POLE	7	20	[0, 0, 0]	n/a	FR1	0	R1315T
2287.115	1.634	2140873	WORD	n/a	wordpools/wordpool_EN.txt	PRINCE	8	20	[0, 0, 0]	n/a	FR1	0	R1315T
2288.749	0.967	2142507	WORD_OFF	n/a	n/a	PRINCE	8	20	[0, 0, 0]	n/a	FR1	0	R1315T
2289.716	1.634	2143474	WORD	n/a	wordpools/wordpool_EN.txt	LAND	9	20	[0, 0, 0]	n/a	FR1	0	R1315T
2291.35	1.03	2145108	WORD_OFF	n/a	n/a	LAND	9	20	[0, 0, 0]	n/a	FR1	0	R1315T
2292.38	1.637	2146138	WORD	n/a	wordpools/wordpool_EN.txt	ARM	10	20	[0, 0, 0]	n/a	FR1	0	R1315T
2294.017	0.804	2147775	WORD_OFF	n/a	n/a	ARM	10	20	[0, 0, 0]	n/a	FR1	0	R1315T
2294.821	1.629	2148579	WORD	n/a	wordpools/wordpool_EN.txt	CLAY	11	20	[0, 0, 0]	n/a	FR1	0	R1315T
2296.45	0.921	2150208	WORD_OFF	n/a	n/a	CLAY	11	20	[0, 0, 0]	n/a	FR1	0	R1315T
2297.371	1.63	2151129	WORD	n/a	wordpools/wordpool_EN.txt	SKI	12	20	[0, 0, 0]	n/a	FR1	0	R1315T
2299.001	0.0	2152759	WORD_OFF	n/a	n/a	SKI	12	20	[0, 0, 0]	n/a	FR1	0	R1315T
2299.001	0.001	2152759	ENCODING_END	n/a	n/a	n/a	-999	20	[0, 0, 0]	n/a	FR1	0	R1315T
2299.002	0.0	2152760	DISTRACT_START	n/a	n/a	n/a	-999	20	[0, 0, 0]	n/a	FR1	0	R1315T
2299.002	0.015	2152760	START	n/a	n/a	n/a	-999	20	[-999, -999, -999]	n/a	FR1	0	R1315T
2299.017	2.851	2152775	PROB	2.851	n/a	n/a	-999	20	[4, 6, 2]	12	FR1	0	R1315T
2301.868	9.752	2155626	PROB	9.752	n/a	n/a	-999	20	[2, 4, 3]	9	FR1	0	R1315T
2311.62	7.817	2165377	PROB	7.817	n/a	n/a	-999	20	[1, 5, 8]	16	FR1	0	R1315T
2319.437	0.018	2173194	STOP	n/a	n/a	n/a	-999	20	[-999, -999, -999]	n/a	FR1	0	R1315T
2319.455	0.593	2173212	DISTRACT_END	n/a	n/a	n/a	-999	20	[0, 0, 0]	n/a	FR1	0	R1315T
2320.048	1.54	2173805	RETRIEVAL_ORIENT_START	n/a	n/a	n/a	-999	20	[0, 0, 0]	n/a	FR1	0	R1315T
2321.588	0.001	2175345	RETRIEVAL_ORIENT_END	n/a	n/a	n/a	-999	20	[0, 0, 0]	n/a	FR1	0	R1315T
2321.589	1.567	2175346	REC_START	n/a	n/a	n/a	-999	20	[0, 0, 0]	n/a	FR1	0	R1315T
2323.156	0.936	2176913	REC_WORD	0.936	n/a	DART	1	20	[0, 0, 0]	n/a	FR1	0	R1315T
2324.092	1.644	2177849	REC_WORD	1.644	n/a	SKI	12	20	[0, 0, 0]	n/a	FR1	0	R1315T
2325.736	25.865	2179493	REC_WORD	25.865	n/a	LOCK	3	20	[0, 0, 0]	n/a	FR1	0	R1315T
2351.601	0.0	2205356	REC_END	n/a	n/a	n/a	-999	20	[0, 0, 0]	n/a	FR1	0	R1315T
2351.601	0.017	2205356	TRIAL_END	n/a	n/a	n/a	-999	20	[0, 0, 0]	n/a	FR1	0	R1315T
2351.618	0.001	2205373	TRIAL_START	n/a	n/a	n/a	-999	21	[0, 0, 0]	n/a	FR1	0	R1315T
2351.619	0.0	2205374	TRIAL	n/a	n/a	n/a	-999	21	[0, 0, 0]	n/a	FR1	0	R1315T
2351.619	1.293	2205374	WAITING_START	n/a	n/a	n/a	-999	21	[0, 0, 0]	n/a	FR1	0	R1315T
2352.912	0.0	2206667	WAITING_END	n/a	n/a	n/a	-999	21	[0, 0, 0]	n/a	FR1	0	R1315T
2352.912	10.429	2206667	COUNTDOWN_START	n/a	n/a	n/a	-999	21	[0, 0, 0]	n/a	FR1	0	R1315T
2363.341	0.0	2217096	ORIENT_START	n/a	n/a	n/a	-999	21	[0, 0, 0]	n/a	FR1	0	R1315T
2363.341	1.205	2217096	COUNTDOWN_END	n/a	n/a	n/a	-999	21	[0, 0, 0]	n/a	FR1	0	R1315T
2364.546	0.001	2218301	ORIENT_END	n/a	n/a	n/a	-999	21	[0, 0, 0]	n/a	FR1	0	R1315T
2364.547	0.889	2218302	ENCODING_START	n/a	n/a	n/a	-999	21	[0, 0, 0]	n/a	FR1	0	R1315T
2365.436	1.627	2219191	WORD	n/a	wordpools/wordpool_EN.txt	SPONGE	1	21	[0, 0, 0]	n/a	FR1	0	R1315T
2367.063	0.999	2220818	WORD_OFF	n/a	n/a	SPONGE	1	21	[0, 0, 0]	n/a	FR1	0	R1315T
2368.062	1.635	2221817	WORD	n/a	wordpools/wordpool_EN.txt	STICK	2	21	[0, 0, 0]	n/a	FR1	0	R1315T
2369.697	1.012	2223452	WORD_OFF	n/a	n/a	STICK	2	21	[0, 0, 0]	n/a	FR1	0	R1315T
2370.709	1.622	2224464	WORD	n/a	wordpools/wordpool_EN.txt	VINE	3	21	[0, 0, 0]	n/a	FR1	0	R1315T
2372.331	1.067	2226086	WORD_OFF	n/a	n/a	VINE	3	21	[0, 0, 0]	n/a	FR1	0	R1315T
2373.398	1.633	2227152	WORD	n/a	wordpools/wordpool_EN.txt	FORK	4	21	[0, 0, 0]	n/a	FR1	0	R1315T
2375.031	1.061	2228785	WORD_OFF	n/a	n/a	FORK	4	21	[0, 0, 0]	n/a	FR1	0	R1315T
2376.092	1.623	2229846	WORD	n/a	wordpools/wordpool_EN.txt	SNAKE	5	21	[0, 0, 0]	n/a	FR1	0	R1315T
2377.715	1.023	2231469	WORD_OFF	n/a	n/a	SNAKE	5	21	[0, 0, 0]	n/a	FR1	0	R1315T
2378.738	1.628	2232492	WORD	n/a	wordpools/wordpool_EN.txt	NAIL	6	21	[0, 0, 0]	n/a	FR1	0	R1315T
2380.366	0.85	2234120	WORD_OFF	n/a	n/a	NAIL	6	21	[0, 0, 0]	n/a	FR1	0	R1315T
2381.216	1.634	2234970	WORD	n/a	wordpools/wordpool_EN.txt	BRANCH	7	21	[0, 0, 0]	n/a	FR1	0	R1315T
2382.85	0.977	2236604	WORD_OFF	n/a	n/a	BRANCH	7	21	[0, 0, 0]	n/a	FR1	0	R1315T
2383.827	1.623	2237581	WORD	n/a	wordpools/wordpool_EN.txt	AXE	8	21	[0, 0, 0]	n/a	FR1	0	R1315T
2385.45	0.867	2239204	WORD_OFF	n/a	n/a	AXE	8	21	[0, 0, 0]	n/a	FR1	0	R1315T
2386.317	1.635	2240071	WORD	n/a	wordpools/wordpool_EN.txt	CONE	9	21	[0, 0, 0]	n/a	FR1	0	R1315T
2387.952	0.952	2241706	WORD_OFF	n/a	n/a	CONE	9	21	[0, 0, 0]	n/a	FR1	0	R1315T
2388.904	1.63	2242658	WORD	n/a	wordpools/wordpool_EN.txt	NOSE	10	21	[0, 0, 0]	n/a	FR1	0	R1315T
2390.534	0.813	2244288	WORD_OFF	n/a	n/a	NOSE	10	21	[0, 0, 0]	n/a	FR1	0	R1315T
2391.347	1.638	2245101	WORD	n/a	wordpools/wordpool_EN.txt	TOOTH	11	21	[0, 0, 0]	n/a	FR1	0	R1315T
2392.985	0.909	2246739	WORD_OFF	n/a	n/a	TOOTH	11	21	[0, 0, 0]	n/a	FR1	0	R1315T
2393.894	1.624	2247648	WORD	n/a	wordpools/wordpool_EN.txt	PIE	12	21	[0, 0, 0]	n/a	FR1	0	R1315T
2395.518	0.001	2249272	WORD_OFF	n/a	n/a	PIE	12	21	[0, 0, 0]	n/a	FR1	0	R1315T
2395.519	0.0	2249273	ENCODING_END	n/a	n/a	n/a	-999	21	[0, 0, 0]	n/a	FR1	0	R1315T
2395.519	0.0	2249273	DISTRACT_START	n/a	n/a	n/a	-999	21	[0, 0, 0]	n/a	FR1	0	R1315T
2395.519	0.016	2249273	START	n/a	n/a	n/a	-999	21	[-999, -999, -999]	n/a	FR1	0	R1315T
2395.535	6.101	2249289	PROB	6.101	n/a	n/a	-999	21	[3, 5, 1]	9	FR1	0	R1315T
2401.636	4.568	2255389	PROB	4.568	n/a	n/a	-999	21	[8, 1, 1]	10	FR1	0	R1315T
2406.204	3.617	2259957	PROB	3.617	n/a	n/a	-999	21	[3, 6, 1]	10	FR1	0	R1315T
2409.821	6.216	2263574	PROB	6.216	n/a	n/a	-999	21	[2, 7, 5]	14	FR1	0	R1315T
2416.037	0.018	2269790	STOP	n/a	n/a	n/a	-999	21	[-999, -999, -999]	n/a	FR1	0	R1315T
2416.055	0.571	2269808	DISTRACT_END	n/a	n/a	n/a	-999	21	[0, 0, 0]	n/a	FR1	0	R1315T
2416.626	1.63	2270379	RETRIEVAL_ORIENT_START	n/a	n/a	n/a	-999	21	[0, 0, 0]	n/a	FR1	0	R1315T
2418.256	0.0	2272008	RETRIEVAL_ORIENT_END	n/a	n/a	n/a	-999	21	[0, 0, 0]	n/a	FR1	0	R1315T
2418.256	0.96	2272008	REC_START	n/a	n/a	n/a	-999	21	[0, 0, 0]	n/a	FR1	0	R1315T
2419.216	1.197	2272968	REC_WORD	1.197	n/a	SPONGE	1	21	[0, 0, 0]	n/a	FR1	0	R1315T
2420.413	0.984	2274165	REC_WORD	0.984	n/a	STICK	2	21	[0, 0, 0]	n/a	FR1	0	R1315T
2421.397	26.872	2275149	REC_WORD	26.872	n/a	AXE	8	21	[0, 0, 0]	n/a	FR1	0	R1315T
2448.269	0.001	2302020	REC_END	n/a	n/a	n/a	-999	21	[0, 0, 0]	n/a	FR1	0	R1315T
2448.27	0.015	2302021	TRIAL_END	n/a	n/a	n/a	-999	21	[0, 0, 0]	n/a	FR1	0	R1315T
2448.285	0.0	2302036	TRIAL_START	n/a	n/a	n/a	-999	22	[0, 0, 0]	n/a	FR1	0	R1315T
2448.285	0.0	2302036	TRIAL	n/a	n/a	n/a	-999	22	[0, 0, 0]	n/a	FR1	0	R1315T
2448.285	1.46	2302036	WAITING_START	n/a	n/a	n/a	-999	22	[0, 0, 0]	n/a	FR1	0	R1315T
2449.745	0.0	2303496	WAITING_END	n/a	n/a	n/a	-999	22	[0, 0, 0]	n/a	FR1	0	R1315T
2449.745	10.428	2303496	COUNTDOWN_START	n/a	n/a	n/a	-999	22	[0, 0, 0]	n/a	FR1	0	R1315T
2460.173	0.001	2313924	COUNTDOWN_END	n/a	n/a	n/a	-999	22	[0, 0, 0]	n/a	FR1	0	R1315T
2460.174	1.24	2313925	ORIENT_START	n/a	n/a	n/a	-999	22	[0, 0, 0]	n/a	FR1	0	R1315T
2461.414	0.0	2315165	ORIENT_END	n/a	n/a	n/a	-999	22	[0, 0, 0]	n/a	FR1	0	R1315T
2461.414	1.006	2315165	ENCODING_START	n/a	n/a	n/a	-999	22	[0, 0, 0]	n/a	FR1	0	R1315T
2462.42	1.628	2316171	WORD	n/a	wordpools/wordpool_EN.txt	SHOE	1	22	[0, 0, 0]	n/a	FR1	0	R1315T
2464.048	0.924	2317798	WORD_OFF	n/a	n/a	SHOE	1	22	[0, 0, 0]	n/a	FR1	0	R1315T
2464.972	1.626	2318722	WORD	n/a	wordpools/wordpool_EN.txt	SEA	2	22	[0, 0, 0]	n/a	FR1	0	R1315T
2466.598	1.018	2320348	WORD_OFF	n/a	n/a	SEA	2	22	[0, 0, 0]	n/a	FR1	0	R1315T
2467.616	1.632	2321366	WORD	n/a	wordpools/wordpool_EN.txt	BOY	3	22	[0, 0, 0]	n/a	FR1	0	R1315T
2469.248	0.927	2322998	WORD_OFF	n/a	n/a	BOY	3	22	[0, 0, 0]	n/a	FR1	0	R1315T
2470.175	1.624	2323925	WORD	n/a	wordpools/wordpool_EN.txt	COW	4	22	[0, 0, 0]	n/a	FR1	0	R1315T
2471.799	1.078	2325549	WORD_OFF	n/a	n/a	COW	4	22	[0, 0, 0]	n/a	FR1	0	R1315T
2472.877	1.622	2326627	WORD	n/a	wordpools/wordpool_EN.txt	DESK	5	22	[0, 0, 0]	n/a	FR1	0	R1315T
2474.499	0.868	2328249	WORD_OFF	n/a	n/a	DESK	5	22	[0, 0, 0]	n/a	FR1	0	R1315T
2475.367	1.633	2329117	WORD	n/a	wordpools/wordpool_EN.txt	DITCH	6	22	[0, 0, 0]	n/a	FR1	0	R1315T
2477.0	1.069	2330750	WORD_OFF	n/a	n/a	DITCH	6	22	[0, 0, 0]	n/a	FR1	0	R1315T
2478.069	1.631	2331819	WORD	n/a	wordpools/wordpool_EN.txt	STONE	7	22	[0, 0, 0]	n/a	FR1	0	R1315T
2479.7	0.771	2333450	WORD_OFF	n/a	n/a	STONE	7	22	[0, 0, 0]	n/a	FR1	0	R1315T
2480.471	1.63	2334221	WORD	n/a	wordpools/wordpool_EN.txt	BEACH	8	22	[0, 0, 0]	n/a	FR1	0	R1315T
2482.101	1.019	2335851	WORD_OFF	n/a	n/a	BEACH	8	22	[0, 0, 0]	n/a	FR1	0	R1315T
2483.12	1.631	2336870	WORD	n/a	wordpools/wordpool_EN.txt	SOUP	9	22	[0, 0, 0]	n/a	FR1	0	R1315T
2484.751	0.802	2338501	WORD_OFF	n/a	n/a	SOUP	9	22	[0, 0, 0]	n/a	FR1	0	R1315T
2485.553	1.632	2339302	WORD	n/a	wordpools/wordpool_EN.txt	MAZE	10	22	[0, 0, 0]	n/a	FR1	0	R1315T
2487.185	0.815	2340934	WORD_OFF	n/a	n/a	MAZE	10	22	[0, 0, 0]	n/a	FR1	0	R1315T
2488.0	1.635	2341749	WORD	n/a	wordpools/wordpool_EN.txt	SPOON	11	22	[0, 0, 0]	n/a	FR1	0	R1315T
2489.635	0.813	2343384	WORD_OFF	n/a	n/a	SPOON	11	22	[0, 0, 0]	n/a	FR1	0	R1315T
2490.448	1.621	2344197	WORD	n/a	wordpools/wordpool_EN.txt	CASH	12	22	[0, 0, 0]	n/a	FR1	0	R1315T
2492.069	0.001	2345818	WORD_OFF	n/a	n/a	CASH	12	22	[0, 0, 0]	n/a	FR1	0	R1315T
2492.07	0.0	2345819	ENCODING_END	n/a	n/a	n/a	-999	22	[0, 0, 0]	n/a	FR1	0	R1315T
2492.07	0.0	2345819	DISTRACT_START	n/a	n/a	n/a	-999	22	[0, 0, 0]	n/a	FR1	0	R1315T
2492.07	0.016	2345819	START	n/a	n/a	n/a	-999	22	[-999, -999, -999]	n/a	FR1	0	R1315T
2492.086	3.05	2345835	PROB	3.05	n/a	n/a	-999	22	[4, 9, 1]	14	FR1	0	R1315T
2495.136	3.134	2348885	PROB	3.134	n/a	n/a	-999	22	[2, 8, 4]	14	FR1	0	R1315T
2498.27	2.817	2352019	PROB	2.817	n/a	n/a	-999	22	[1, 1, 4]	6	FR1	0	R1315T
2501.087	5.185	2354836	PROB	5.185	n/a	n/a	-999	22	[3, 8, 5]	16	FR1	0	R1315T
2506.272	7.694	2360021	PROB	7.694	n/a	n/a	-999	22	[4, 6, 7]	17	FR1	0	R1315T
2513.966	0.007	2367714	STOP	n/a	n/a	n/a	-999	22	[-999, -999, -999]	n/a	FR1	0	R1315T
2513.973	0.687	2367721	DISTRACT_END	n/a	n/a	n/a	-999	22	[0, 0, 0]	n/a	FR1	0	R1315T
2514.66	1.614	2368408	RETRIEVAL_ORIENT_START	n/a	n/a	n/a	-999	22	[0, 0, 0]	n/a	FR1	0	R1315T
2516.274	0.0	2370022	RETRIEVAL_ORIENT_END	n/a	n/a	n/a	-999	22	[0, 0, 0]	n/a	FR1	0	R1315T
2516.274	1.2	2370022	REC_START	n/a	n/a	n/a	-999	22	[0, 0, 0]	n/a	FR1	0	R1315T
2517.474	1.026	2371222	REC_WORD	1.026	n/a	SHOE	1	22	[0, 0, 0]	n/a	FR1	0	R1315T
2518.5	0.917	2372248	REC_WORD	0.917	n/a	COW	4	22	[0, 0, 0]	n/a	FR1	0	R1315T
2519.417	26.869	2373165	REC_WORD	26.869	n/a	BOY	3	22	[0, 0, 0]	n/a	FR1	0	R1315T
2546.286	0.0	2400033	REC_END	n/a	n/a	n/a	-999	22	[0, 0, 0]	n/a	FR1	0	R1315T
2546.286	0.014	2400033	TRIAL_END	n/a	n/a	n/a	-999	22	[0, 0, 0]	n/a	FR1	0	R1315T
2546.3	0.0	2400047	WAITING_START	n/a	n/a	n/a	-999	23	[0, 0, 0]	n/a	FR1	0	R1315T
2546.3	0.0	2400047	TRIAL_START	n/a	n/a	n/a	-999	23	[0, 0, 0]	n/a	FR1	0	R1315T
2546.3	1.446	2400047	TRIAL	n/a	n/a	n/a	-999	23	[0, 0, 0]	n/a	FR1	0	R1315T
2547.746	0.0	2401493	WAITING_END	n/a	n/a	n/a	-999	23	[0, 0, 0]	n/a	FR1	0	R1315T
2547.746	10.43	2401493	COUNTDOWN_START	n/a	n/a	n/a	-999	23	[0, 0, 0]	n/a	FR1	0	R1315T
2558.176	0.0	2411922	COUNTDOWN_END	n/a	n/a	n/a	-999	23	[0, 0, 0]	n/a	FR1	0	R1315T
2558.176	1.222	2411922	ORIENT_START	n/a	n/a	n/a	-999	23	[0, 0, 0]	n/a	FR1	0	R1315T
2559.398	0.0	2413144	ORIENT_END	n/a	n/a	n/a	-999	23	[0, 0, 0]	n/a	FR1	0	R1315T
2559.398	0.846	2413144	ENCODING_START	n/a	n/a	n/a	-999	23	[0, 0, 0]	n/a	FR1	0	R1315T
2560.244	1.638	2413990	WORD	n/a	wordpools/wordpool_EN.txt	BENCH	1	23	[0, 0, 0]	n/a	FR1	0	R1315T
2561.882	0.937	2415628	WORD_OFF	n/a	n/a	BENCH	1	23	[0, 0, 0]	n/a	FR1	0	R1315T
2562.819	1.63	2416565	WORD	n/a	wordpools/wordpool_EN.txt	STOOL	2	23	[0, 0, 0]	n/a	FR1	0	R1315T
2564.449	1.059	2418195	WORD_OFF	n/a	n/a	STOOL	2	23	[0, 0, 0]	n/a	FR1	0	R1315T
2565.508	1.625	2419254	WORD	n/a	wordpools/wordpool_EN.txt	MUD	3	23	[0, 0, 0]	n/a	FR1	0	R1315T
2567.133	0.934	2420879	WORD_OFF	n/a	n/a	MUD	3	23	[0, 0, 0]	n/a	FR1	0	R1315T
2568.067	1.633	2421813	WORD	n/a	wordpools/wordpool_EN.txt	GOLD	4	23	[0, 0, 0]	n/a	FR1	0	R1315T
2569.7	1.095	2423446	WORD_OFF	n/a	n/a	GOLD	4	23	[0, 0, 0]	n/a	FR1	0	R1315T
2570.795	1.622	2424541	WORD	n/a	wordpools/wordpool_EN.txt	ROCK	5	23	[0, 0, 0]	n/a	FR1	0	R1315T
2572.417	0.953	2426163	WORD_OFF	n/a	n/a	ROCK	5	23	[0, 0, 0]	n/a	FR1	0	R1315T
2573.37	1.631	2427116	WORD	n/a	wordpools/wordpool_EN.txt	COIN	6	23	[0, 0, 0]	n/a	FR1	0	R1315T
2575.001	0.782	2428746	WORD_OFF	n/a	n/a	COIN	6	23	[0, 0, 0]	n/a	FR1	0	R1315T
2575.783	1.635	2429528	WORD	n/a	wordpools/wordpool_EN.txt	JUDGE	7	23	[0, 0, 0]	n/a	FR1	0	R1315T
2577.418	0.942	2431163	WORD_OFF	n/a	n/a	JUDGE	7	23	[0, 0, 0]	n/a	FR1	0	R1315T
2578.36	1.625	2432105	WORD	n/a	wordpools/wordpool_EN.txt	MILK	8	23	[0, 0, 0]	n/a	FR1	0	R1315T
2579.985	1.041	2433730	WORD_OFF	n/a	n/a	MILK	8	23	[0, 0, 0]	n/a	FR1	0	R1315T
2581.026	1.626	2434771	WORD	n/a	wordpools/wordpool_EN.txt	HOOF	9	23	[0, 0, 0]	n/a	FR1	0	R1315T
2582.652	1.087	2436397	WORD_OFF	n/a	n/a	HOOF	9	23	[0, 0, 0]	n/a	FR1	0	R1315T
2583.739	1.63	2437484	WORD	n/a	wordpools/wordpool_EN.txt	CROWN	10	23	[0, 0, 0]	n/a	FR1	0	R1315T
2585.369	1.031	2439114	WORD_OFF	n/a	n/a	CROWN	10	23	[0, 0, 0]	n/a	FR1	0	R1315T
2586.4	1.637	2440145	WORD	n/a	wordpools/wordpool_EN.txt	RAKE	11	23	[0, 0, 0]	n/a	FR1	0	R1315T
2588.037	0.918	2441782	WORD_OFF	n/a	n/a	RAKE	11	23	[0, 0, 0]	n/a	FR1	0	R1315T
2588.955	1.632	2442700	WORD	n/a	wordpools/wordpool_EN.txt	STORM	12	23	[0, 0, 0]	n/a	FR1	0	R1315T
2590.587	0.001	2444332	WORD_OFF	n/a	n/a	STORM	12	23	[0, 0, 0]	n/a	FR1	0	R1315T
2590.588	0.0	2444333	ENCODING_END	n/a	n/a	n/a	-999	23	[0, 0, 0]	n/a	FR1	0	R1315T
2590.588	0.0	2444333	DISTRACT_START	n/a	n/a	n/a	-999	23	[0, 0, 0]	n/a	FR1	0	R1315T
2590.588	0.016	2444333	START	n/a	n/a	n/a	-999	23	[-999, -999, -999]	n/a	FR1	0	R1315T
2590.604	6.451	2444349	PROB	6.451	n/a	n/a	-999	23	[4, 7, 8]	19	FR1	0	R1315T
2597.055	5.251	2450799	PROB	5.251	n/a	n/a	-999	23	[3, 5, 2]	9	FR1	0	R1315T
2602.306	8.285	2456050	PROB	8.285	n/a	n/a	-999	23	[7, 6, 3]	16	FR1	0	R1315T
2610.591	5.625	2464335	PROB	5.625	n/a	n/a	-999	23	[3, 3, 5]	11	FR1	0	R1315T
2616.216	0.009	2469960	STOP	n/a	n/a	n/a	-999	23	[-999, -999, -999]	n/a	FR1	0	R1315T
2616.225	0.596	2469969	DISTRACT_END	n/a	n/a	n/a	-999	23	[0, 0, 0]	n/a	FR1	0	R1315T
2616.821	1.688	2470565	RETRIEVAL_ORIENT_START	n/a	n/a	n/a	-999	23	[0, 0, 0]	n/a	FR1	0	R1315T
2618.509	0.0	2472253	RETRIEVAL_ORIENT_END	n/a	n/a	n/a	-999	23	[0, 0, 0]	n/a	FR1	0	R1315T
2618.509	0.961	2472253	REC_START	n/a	n/a	n/a	-999	23	[0, 0, 0]	n/a	FR1	0	R1315T
2619.47	0.791	2473213	REC_WORD	0.791	n/a	GOLD	4	23	[0, 0, 0]	n/a	FR1	0	R1315T
2620.261	0.88	2474004	REC_WORD	0.88	n/a	COIN	6	23	[0, 0, 0]	n/a	FR1	0	R1315T
2621.141	2.654	2474884	REC_WORD	2.654	n/a	CROWN	10	23	[0, 0, 0]	n/a	FR1	0	R1315T
2623.795	24.727	2477538	REC_WORD	24.727	n/a	MUD	3	23	[0, 0, 0]	n/a	FR1	0	R1315T
2648.522	0.0	2502264	REC_END	n/a	n/a	n/a	-999	23	[0, 0, 0]	n/a	FR1	0	R1315T
2648.522	0.014	2502264	TRIAL_END	n/a	n/a	n/a	-999	23	[0, 0, 0]	n/a	FR1	0	R1315T
2648.536	0.001	2502278	TRIAL_START	n/a	n/a	n/a	-999	24	[0, 0, 0]	n/a	FR1	0	R1315T
2648.537	0.0	2502279	TRIAL	n/a	n/a	n/a	-999	24	[0, 0, 0]	n/a	FR1	0	R1315T
2648.537	1.428	2502279	WAITING_START	n/a	n/a	n/a	-999	24	[0, 0, 0]	n/a	FR1	0	R1315T
