onset	duration	sample	trial_type	response_time	stim_file	item_name	serialpos	list	test	answer	experiment	session	subject
0.0	34.647	1723	INSTRUCT_START	n/a	n/a	n/a	-999	-999	[0, 0, 0]	n/a	FR1	0	R1338T
34.647	2.217	36369	INSTRUCT_END	n/a	n/a	n/a	-999	-999	[0, 0, 0]	n/a	FR1	0	R1338T
36.864	8.813	38586	MIC TEST_START	n/a	n/a	n/a	-999	-999	[0, 0, 0]	n/a	FR1	0	R1338T
45.677	0.01	47398	MIC TEST_END	n/a	n/a	n/a	-999	-999	[0, 0, 0]	n/a	FR1	0	R1338T
45.687	0.0	47408	TRIAL_START	n/a	n/a	n/a	-999	-1	[0, 0, 0]	n/a	FR1	0	R1338T
45.687	0.0	47408	TRIAL	n/a	n/a	n/a	-999	-1	[0, 0, 0]	n/a	FR1	0	R1338T
45.687	28.95	47408	WAITING_START	n/a	n/a	n/a	-999	-1	[0, 0, 0]	n/a	FR1	0	R1338T
74.637	0.001	76357	WAITING_END	n/a	n/a	n/a	-999	-1	[0, 0, 0]	n/a	FR1	0	R1338T
74.638	10.428	76358	COUNTDOWN_START	n/a	n/a	n/a	-999	-1	[0, 0, 0]	n/a	FR1	0	R1338T
85.066	0.001	86786	COUNTDOWN_END	n/a	n/a	n/a	-999	-1	[0, 0, 0]	n/a	FR1	0	R1338T
85.067	1.222	86787	ORIENT_START	n/a	n/a	n/a	-999	-1	[0, 0, 0]	n/a	FR1	0	R1338T
86.289	0.0	88009	ORIENT_END	n/a	n/a	n/a	-999	-1	[0, 0, 0]	n/a	FR1	0	R1338T
86.289	1.095	88009	ENCODING_START	n/a	n/a	n/a	-999	-1	[0, 0, 0]	n/a	FR1	0	R1338T
87.384	1.622	89104	WORD	n/a	n/a	WAGON	1	-1	[0, 0, 0]	n/a	FR1	0	R1338T
89.006	1.031	90725	WORD_OFF	n/a	n/a	WAGON	1	-1	[0, 0, 0]	n/a	FR1	0	R1338T
90.037	1.636	91756	WORD	n/a	n/a	RING	2	-1	[0, 0, 0]	n/a	FR1	0	R1338T
91.673	1.098	93392	WORD_OFF	n/a	n/a	RING	2	-1	[0, 0, 0]	n/a	FR1	0	R1338T
92.771	1.636	94490	WORD	n/a	n/a	COTTON	3	-1	[0, 0, 0]	n/a	FR1	0	R1338T
94.407	0.809	96126	WORD_OFF	n/a	n/a	COTTON	3	-1	[0, 0, 0]	n/a	FR1	0	R1338T
95.216	1.625	96935	WORD	n/a	n/a	FLOOD	4	-1	[0, 0, 0]	n/a	FR1	0	R1338T
96.841	0.934	98560	WORD_OFF	n/a	n/a	FLOOD	4	-1	[0, 0, 0]	n/a	FR1	0	R1338T
97.775	1.633	99494	WORD	n/a	n/a	BABY	5	-1	[0, 0, 0]	n/a	FR1	0	R1338T
99.408	1.142	101127	WORD_OFF	n/a	n/a	BABY	5	-1	[0, 0, 0]	n/a	FR1	0	R1338T
100.55	1.625	102269	WORD	n/a	n/a	CAMEL	6	-1	[0, 0, 0]	n/a	FR1	0	R1338T
102.175	1.093	103894	WORD_OFF	n/a	n/a	CAMEL	6	-1	[0, 0, 0]	n/a	FR1	0	R1338T
103.268	1.624	104987	WORD	n/a	n/a	CHEST	7	-1	[0, 0, 0]	n/a	FR1	0	R1338T
104.892	0.819	106611	WORD_OFF	n/a	n/a	CHEST	7	-1	[0, 0, 0]	n/a	FR1	0	R1338T
105.711	1.632	107430	WORD	n/a	n/a	TONGUE	8	-1	[0, 0, 0]	n/a	FR1	0	R1338T
107.343	0.862	109062	WORD_OFF	n/a	n/a	TONGUE	8	-1	[0, 0, 0]	n/a	FR1	0	R1338T
108.205	1.638	109924	WORD	n/a	n/a	IMAGE	9	-1	[0, 0, 0]	n/a	FR1	0	R1338T
109.843	1.147	111562	WORD_OFF	n/a	n/a	IMAGE	9	-1	[0, 0, 0]	n/a	FR1	0	R1338T
110.99	1.637	112709	WORD	n/a	n/a	RHINO	10	-1	[0, 0, 0]	n/a	FR1	0	R1338T
112.627	1.016	114345	WORD_OFF	n/a	n/a	RHINO	10	-1	[0, 0, 0]	n/a	FR1	0	R1338T
113.643	1.635	115361	WORD	n/a	n/a	BEAM	11	-1	[0, 0, 0]	n/a	FR1	0	R1338T
115.278	1.095	116996	WORD_OFF	n/a	n/a	BEAM	11	-1	[0, 0, 0]	n/a	FR1	0	R1338T
116.373	1.638	118091	WORD	n/a	n/a	WATCH	12	-1	[0, 0, 0]	n/a	FR1	0	R1338T
118.011	0.001	119729	WORD_OFF	n/a	n/a	WATCH	12	-1	[0, 0, 0]	n/a	FR1	0	R1338T
118.012	0.0	119730	ENCODING_END	n/a	n/a	n/a	-999	-1	[0, 0, 0]	n/a	FR1	0	R1338T
118.012	0.001	119730	DISTRACT_START	n/a	n/a	n/a	-999	-1	[0, 0, 0]	n/a	FR1	0	R1338T
118.013	0.015	119731	START	n/a	n/a	n/a	-999	-1	[-999, -999, -999]	n/a	FR1	0	R1338T
118.028	24.568	119746	PROB	24.568	n/a	n/a	-999	-1	[7, 7, 6]	776	FR1	0	R1338T
142.596	0.02	144313	STOP	n/a	n/a	n/a	-999	-1	[-999, -999, -999]	n/a	FR1	0	R1338T
142.616	0.61	144333	DISTRACT_END	n/a	n/a	n/a	-999	-1	[0, 0, 0]	n/a	FR1	0	R1338T
143.226	1.69	144943	RETRIEVAL_ORIENT_START	n/a	n/a	n/a	-999	-1	[0, 0, 0]	n/a	FR1	0	R1338T
144.916	0.001	146633	RETRIEVAL_ORIENT_END	n/a	n/a	n/a	-999	-1	[0, 0, 0]	n/a	FR1	0	R1338T
144.917	11.107	146634	REC_START	n/a	n/a	n/a	-999	-1	[0, 0, 0]	n/a	FR1	0	R1338T
156.024	18.905	157740	REC_WORD_VV	18.905	n/a	<>	-999	-1	[0, 0, 0]	n/a	FR1	0	R1338T
174.929	0.0	176645	REC_END	n/a	n/a	n/a	-999	-1	[0, 0, 0]	n/a	FR1	0	R1338T
174.929	28.165	176645	PRACTICE_POST_INSTRUCT_START	n/a	n/a	n/a	-999	-1	[0, 0, 0]	n/a	FR1	0	R1338T
203.094	0.001	204808	PRACTICE_POST_INSTRUCT_END	n/a	n/a	n/a	-999	-1	[0, 0, 0]	n/a	FR1	0	R1338T
203.095	0.016	204809	TRIAL_END	n/a	n/a	n/a	-999	-1	[0, 0, 0]	n/a	FR1	0	R1338T
203.111	0.001	204825	TRIAL_START	n/a	n/a	n/a	-999	1	[0, 0, 0]	n/a	FR1	0	R1338T
203.112	0.0	204826	TRIAL	n/a	n/a	n/a	-999	1	[0, 0, 0]	n/a	FR1	0	R1338T
203.112	4.999	204826	WAITING_START	n/a	n/a	n/a	-999	1	[0, 0, 0]	n/a	FR1	0	R1338T
208.111	0.001	209825	WAITING_END	n/a	n/a	n/a	-999	1	[0, 0, 0]	n/a	FR1	0	R1338T
208.112	10.429	209826	COUNTDOWN_START	n/a	n/a	n/a	-999	1	[0, 0, 0]	n/a	FR1	0	R1338T
218.541	0.001	220255	COUNTDOWN_END	n/a	n/a	n/a	-999	1	[0, 0, 0]	n/a	FR1	0	R1338T
218.542	1.121	220256	ORIENT_START	n/a	n/a	n/a	-999	1	[0, 0, 0]	n/a	FR1	0	R1338T
219.663	0.001	221377	ORIENT_END	n/a	n/a	n/a	-999	1	[0, 0, 0]	n/a	FR1	0	R1338T
219.664	0.978	221378	ENCODING_START	n/a	n/a	n/a	-999	1	[0, 0, 0]	n/a	FR1	0	R1338T
220.642	1.622	222356	WORD	n/a	wordpools/wordpool_EN.txt	SKI	1	1	[0, 0, 0]	n/a	FR1	0	R1338T
222.264	1.088	223978	WORD_OFF	n/a	n/a	SKI	1	1	[0, 0, 0]	n/a	FR1	0	R1338T
223.352	1.629	225065	WORD	n/a	wordpools/wordpool_EN.txt	SNAKE	2	1	[0, 0, 0]	n/a	FR1	0	R1338T
224.981	1.064	226694	WORD_OFF	n/a	n/a	SNAKE	2	1	[0, 0, 0]	n/a	FR1	0	R1338T
226.045	1.636	227758	WORD	n/a	wordpools/wordpool_EN.txt	PLANT	3	1	[0, 0, 0]	n/a	FR1	0	R1338T
227.681	0.854	229394	WORD_OFF	n/a	n/a	PLANT	3	1	[0, 0, 0]	n/a	FR1	0	R1338T
228.535	1.63	230248	WORD	n/a	wordpools/wordpool_EN.txt	VAN	4	1	[0, 0, 0]	n/a	FR1	0	R1338T
230.165	0.83	231878	WORD_OFF	n/a	n/a	VAN	4	1	[0, 0, 0]	n/a	FR1	0	R1338T
230.995	1.637	232708	WORD	n/a	wordpools/wordpool_EN.txt	THREAD	5	1	[0, 0, 0]	n/a	FR1	0	R1338T
232.632	0.768	234345	WORD_OFF	n/a	n/a	THREAD	5	1	[0, 0, 0]	n/a	FR1	0	R1338T
233.4	1.616	235113	WORD	n/a	wordpools/wordpool_EN.txt	BANK	6	1	[0, 0, 0]	n/a	FR1	0	R1338T
235.016	1.135	236729	WORD_OFF	n/a	n/a	BANK	6	1	[0, 0, 0]	n/a	FR1	0	R1338T
236.151	1.632	237864	WORD	n/a	wordpools/wordpool_EN.txt	BEACH	7	1	[0, 0, 0]	n/a	FR1	0	R1338T
237.783	0.817	239496	WORD_OFF	n/a	n/a	BEACH	7	1	[0, 0, 0]	n/a	FR1	0	R1338T
238.6	1.634	240313	WORD	n/a	wordpools/wordpool_EN.txt	CROW	8	1	[0, 0, 0]	n/a	FR1	0	R1338T
240.234	0.86	241947	WORD_OFF	n/a	n/a	CROW	8	1	[0, 0, 0]	n/a	FR1	0	R1338T
241.094	1.623	242807	WORD	n/a	wordpools/wordpool_EN.txt	WEED	9	1	[0, 0, 0]	n/a	FR1	0	R1338T
242.717	0.919	244430	WORD_OFF	n/a	n/a	WEED	9	1	[0, 0, 0]	n/a	FR1	0	R1338T
243.636	1.632	245349	WORD	n/a	wordpools/wordpool_EN.txt	PALM	10	1	[0, 0, 0]	n/a	FR1	0	R1338T
245.268	0.861	246980	WORD_OFF	n/a	n/a	PALM	10	1	[0, 0, 0]	n/a	FR1	0	R1338T
246.129	1.623	247841	WORD	n/a	wordpools/wordpool_EN.txt	CHIEF	11	1	[0, 0, 0]	n/a	FR1	0	R1338T
247.752	1.146	249464	WORD_OFF	n/a	n/a	CHIEF	11	1	[0, 0, 0]	n/a	FR1	0	R1338T
248.898	1.622	250610	WORD	n/a	wordpools/wordpool_EN.txt	HAND	12	1	[0, 0, 0]	n/a	FR1	0	R1338T
250.52	0.0	252232	WORD_OFF	n/a	n/a	HAND	12	1	[0, 0, 0]	n/a	FR1	0	R1338T
250.52	0.0	252232	ENCODING_END	n/a	n/a	n/a	-999	1	[0, 0, 0]	n/a	FR1	0	R1338T
250.52	0.001	252232	DISTRACT_START	n/a	n/a	n/a	-999	1	[0, 0, 0]	n/a	FR1	0	R1338T
250.521	0.014	252233	START	n/a	n/a	n/a	-999	1	[-999, -999, -999]	n/a	FR1	0	R1338T
250.535	15.636	252247	PROB	15.636	n/a	n/a	-999	1	[1, 4, 3]	143	FR1	0	R1338T
266.171	12.988	267883	PROB	12.988	n/a	n/a	-999	1	[6, 9, 7]	697	FR1	0	R1338T
279.159	0.015	280870	STOP	n/a	n/a	n/a	-999	1	[-999, -999, -999]	n/a	FR1	0	R1338T
279.174	0.533	280885	DISTRACT_END	n/a	n/a	n/a	-999	1	[0, 0, 0]	n/a	FR1	0	R1338T
279.707	1.584	281418	RETRIEVAL_ORIENT_START	n/a	n/a	n/a	-999	1	[0, 0, 0]	n/a	FR1	0	R1338T
281.291	0.0	283002	RETRIEVAL_ORIENT_END	n/a	n/a	n/a	-999	1	[0, 0, 0]	n/a	FR1	0	R1338T
281.291	1.433	283002	REC_START	n/a	n/a	n/a	-999	1	[0, 0, 0]	n/a	FR1	0	R1338T
282.724	28.581	284435	REC_WORD	28.581	n/a	SKI	1	1	[0, 0, 0]	n/a	FR1	0	R1338T
311.305	0.0	313015	REC_END	n/a	n/a	n/a	-999	1	[0, 0, 0]	n/a	FR1	0	R1338T
311.305	0.016	313015	TRIAL_END	n/a	n/a	n/a	-999	1	[0, 0, 0]	n/a	FR1	0	R1338T
311.321	0.0	313031	TRIAL_START	n/a	n/a	n/a	-999	2	[0, 0, 0]	n/a	FR1	0	R1338T
311.321	0.001	313031	TRIAL	n/a	n/a	n/a	-999	2	[0, 0, 0]	n/a	FR1	0	R1338T
311.322	3.042	313032	WAITING_START	n/a	n/a	n/a	-999	2	[0, 0, 0]	n/a	FR1	0	R1338T
314.364	0.0	316073	WAITING_END	n/a	n/a	n/a	-999	2	[0, 0, 0]	n/a	FR1	0	R1338T
314.364	10.428	316073	COUNTDOWN_START	n/a	n/a	n/a	-999	2	[0, 0, 0]	n/a	FR1	0	R1338T
324.792	0.001	326501	COUNTDOWN_END	n/a	n/a	n/a	-999	2	[0, 0, 0]	n/a	FR1	0	R1338T
324.793	1.139	326502	ORIENT_START	n/a	n/a	n/a	-999	2	[0, 0, 0]	n/a	FR1	0	R1338T
325.932	0.001	327641	ORIENT_END	n/a	n/a	n/a	-999	2	[0, 0, 0]	n/a	FR1	0	R1338T
325.933	0.887	327642	ENCODING_START	n/a	n/a	n/a	-999	2	[0, 0, 0]	n/a	FR1	0	R1338T
326.82	1.629	328529	WORD	n/a	wordpools/wordpool_EN.txt	BOMB	1	2	[0, 0, 0]	n/a	FR1	0	R1338T
328.449	1.043	330158	WORD_OFF	n/a	n/a	BOMB	1	2	[0, 0, 0]	n/a	FR1	0	R1338T
329.492	1.625	331201	WORD	n/a	wordpools/wordpool_EN.txt	CROWN	2	2	[0, 0, 0]	n/a	FR1	0	R1338T
331.117	1.025	332826	WORD_OFF	n/a	n/a	CROWN	2	2	[0, 0, 0]	n/a	FR1	0	R1338T
332.142	1.625	333851	WORD	n/a	wordpools/wordpool_EN.txt	CLOUD	3	2	[0, 0, 0]	n/a	FR1	0	R1338T
333.767	1.046	335476	WORD_OFF	n/a	n/a	CLOUD	3	2	[0, 0, 0]	n/a	FR1	0	R1338T
334.813	1.638	336521	WORD	n/a	wordpools/wordpool_EN.txt	FUDGE	4	2	[0, 0, 0]	n/a	FR1	0	R1338T
336.451	0.936	338159	WORD_OFF	n/a	n/a	FUDGE	4	2	[0, 0, 0]	n/a	FR1	0	R1338T
337.387	1.631	339095	WORD	n/a	wordpools/wordpool_EN.txt	SHELL	5	2	[0, 0, 0]	n/a	FR1	0	R1338T
339.018	0.962	340726	WORD_OFF	n/a	n/a	SHELL	5	2	[0, 0, 0]	n/a	FR1	0	R1338T
339.98	1.622	341688	WORD	n/a	wordpools/wordpool_EN.txt	CHIN	6	2	[0, 0, 0]	n/a	FR1	0	R1338T
341.602	1.071	343310	WORD_OFF	n/a	n/a	CHIN	6	2	[0, 0, 0]	n/a	FR1	0	R1338T
342.673	1.63	344381	WORD	n/a	wordpools/wordpool_EN.txt	EAR	7	2	[0, 0, 0]	n/a	FR1	0	R1338T
344.303	0.885	346011	WORD_OFF	n/a	n/a	EAR	7	2	[0, 0, 0]	n/a	FR1	0	R1338T
345.188	1.632	346896	WORD	n/a	wordpools/wordpool_EN.txt	DESK	8	2	[0, 0, 0]	n/a	FR1	0	R1338T
346.82	0.815	348528	WORD_OFF	n/a	n/a	DESK	8	2	[0, 0, 0]	n/a	FR1	0	R1338T
347.635	1.635	349343	WORD	n/a	wordpools/wordpool_EN.txt	PIG	9	2	[0, 0, 0]	n/a	FR1	0	R1338T
349.27	0.993	350978	WORD_OFF	n/a	n/a	PIG	9	2	[0, 0, 0]	n/a	FR1	0	R1338T
350.263	1.624	351971	WORD	n/a	wordpools/wordpool_EN.txt	FLOOR	10	2	[0, 0, 0]	n/a	FR1	0	R1338T
351.887	1.085	353595	WORD_OFF	n/a	n/a	FLOOR	10	2	[0, 0, 0]	n/a	FR1	0	R1338T
352.972	1.632	354680	WORD	n/a	wordpools/wordpool_EN.txt	DOLL	11	2	[0, 0, 0]	n/a	FR1	0	R1338T
354.604	1.101	356312	WORD_OFF	n/a	n/a	DOLL	11	2	[0, 0, 0]	n/a	FR1	0	R1338T
355.705	1.633	357413	WORD	n/a	wordpools/wordpool_EN.txt	DOOR	12	2	[0, 0, 0]	n/a	FR1	0	R1338T
357.338	0.001	359045	WORD_OFF	n/a	n/a	DOOR	12	2	[0, 0, 0]	n/a	FR1	0	R1338T
357.339	0.0	359046	DISTRACT_START	n/a	n/a	n/a	-999	2	[0, 0, 0]	n/a	FR1	0	R1338T
357.339	0.0	359046	ENCODING_END	n/a	n/a	n/a	-999	2	[0, 0, 0]	n/a	FR1	0	R1338T
357.339	0.016	359046	START	n/a	n/a	n/a	-999	2	[-999, -999, -999]	n/a	FR1	0	R1338T
357.355	16.419	359062	PROB	16.419	n/a	n/a	-999	2	[5, 8, 6]	586	FR1	0	R1338T
373.774	6.482	375481	PROB	6.482	n/a	n/a	-999	2	[1, 6, 9]	168	FR1	0	R1338T
380.256	0.02	381962	STOP	n/a	n/a	n/a	-999	2	[-999, -999, -999]	n/a	FR1	0	R1338T
380.276	0.581	381982	DISTRACT_END	n/a	n/a	n/a	-999	2	[0, 0, 0]	n/a	FR1	0	R1338T
380.857	1.686	382563	RETRIEVAL_ORIENT_START	n/a	n/a	n/a	-999	2	[0, 0, 0]	n/a	FR1	0	R1338T
382.543	0.0	384249	RETRIEVAL_ORIENT_END	n/a	n/a	n/a	-999	2	[0, 0, 0]	n/a	FR1	0	R1338T
382.543	27.189	384249	REC_START	n/a	n/a	n/a	-999	2	[0, 0, 0]	n/a	FR1	0	R1338T
409.732	2.823	411437	REC_WORD_VV	2.823	n/a	<>	-999	2	[0, 0, 0]	n/a	FR1	0	R1338T
412.555	0.0	414260	REC_END	n/a	n/a	n/a	-999	2	[0, 0, 0]	n/a	FR1	0	R1338T
412.555	0.014	414260	TRIAL_END	n/a	n/a	n/a	-999	2	[0, 0, 0]	n/a	FR1	0	R1338T
412.569	0.0	414274	TRIAL_START	n/a	n/a	n/a	-999	3	[0, 0, 0]	n/a	FR1	0	R1338T
412.569	0.0	414274	TRIAL	n/a	n/a	n/a	-999	3	[0, 0, 0]	n/a	FR1	0	R1338T
412.569	5.23	414274	WAITING_START	n/a	n/a	n/a	-999	3	[0, 0, 0]	n/a	FR1	0	R1338T
417.799	0.001	419504	WAITING_END	n/a	n/a	n/a	-999	3	[0, 0, 0]	n/a	FR1	0	R1338T
417.8	10.429	419505	COUNTDOWN_START	n/a	n/a	n/a	-999	3	[0, 0, 0]	n/a	FR1	0	R1338T
428.229	0.001	429933	COUNTDOWN_END	n/a	n/a	n/a	-999	3	[0, 0, 0]	n/a	FR1	0	R1338T
428.23	1.221	429934	ORIENT_START	n/a	n/a	n/a	-999	3	[0, 0, 0]	n/a	FR1	0	R1338T
429.451	0.001	431155	ORIENT_END	n/a	n/a	n/a	-999	3	[0, 0, 0]	n/a	FR1	0	R1338T
429.452	0.813	431156	ENCODING_START	n/a	n/a	n/a	-999	3	[0, 0, 0]	n/a	FR1	0	R1338T
430.265	1.637	431969	WORD	n/a	wordpools/wordpool_EN.txt	CART	1	3	[0, 0, 0]	n/a	FR1	0	R1338T
431.902	0.758	433606	WORD_OFF	n/a	n/a	CART	1	3	[0, 0, 0]	n/a	FR1	0	R1338T
432.66	1.625	434364	WORD	n/a	wordpools/wordpool_EN.txt	NEST	2	3	[0, 0, 0]	n/a	FR1	0	R1338T
434.285	0.98	435989	WORD_OFF	n/a	n/a	NEST	2	3	[0, 0, 0]	n/a	FR1	0	R1338T
435.265	1.638	436969	WORD	n/a	wordpools/wordpool_EN.txt	PRINCE	3	3	[0, 0, 0]	n/a	FR1	0	R1338T
436.903	1.105	438607	WORD_OFF	n/a	n/a	PRINCE	3	3	[0, 0, 0]	n/a	FR1	0	R1338T
438.008	1.628	439712	WORD	n/a	wordpools/wordpool_EN.txt	FLAME	4	3	[0, 0, 0]	n/a	FR1	0	R1338T
439.636	0.849	441340	WORD_OFF	n/a	n/a	FLAME	4	3	[0, 0, 0]	n/a	FR1	0	R1338T
440.485	1.635	442189	WORD	n/a	wordpools/wordpool_EN.txt	TENT	5	3	[0, 0, 0]	n/a	FR1	0	R1338T
442.12	0.89	443824	WORD_OFF	n/a	n/a	TENT	5	3	[0, 0, 0]	n/a	FR1	0	R1338T
443.01	1.627	444714	WORD	n/a	wordpools/wordpool_EN.txt	GATE	6	3	[0, 0, 0]	n/a	FR1	0	R1338T
444.637	1.063	446341	WORD_OFF	n/a	n/a	GATE	6	3	[0, 0, 0]	n/a	FR1	0	R1338T
445.7	1.621	447404	WORD	n/a	wordpools/wordpool_EN.txt	CRANE	7	3	[0, 0, 0]	n/a	FR1	0	R1338T
447.321	1.106	449024	WORD_OFF	n/a	n/a	CRANE	7	3	[0, 0, 0]	n/a	FR1	0	R1338T
448.427	1.628	450130	WORD	n/a	wordpools/wordpool_EN.txt	GRAPE	8	3	[0, 0, 0]	n/a	FR1	0	R1338T
450.055	1.077	451758	WORD_OFF	n/a	n/a	GRAPE	8	3	[0, 0, 0]	n/a	FR1	0	R1338T
451.132	1.623	452835	WORD	n/a	wordpools/wordpool_EN.txt	RUG	9	3	[0, 0, 0]	n/a	FR1	0	R1338T
452.755	1.015	454458	WORD_OFF	n/a	n/a	RUG	9	3	[0, 0, 0]	n/a	FR1	0	R1338T
453.77	1.636	455473	WORD	n/a	wordpools/wordpool_EN.txt	BRUSH	10	3	[0, 0, 0]	n/a	FR1	0	R1338T
455.406	0.868	457109	WORD_OFF	n/a	n/a	BRUSH	10	3	[0, 0, 0]	n/a	FR1	0	R1338T
456.274	1.632	457977	WORD	n/a	wordpools/wordpool_EN.txt	BEE	11	3	[0, 0, 0]	n/a	FR1	0	R1338T
457.906	1.024	459609	WORD_OFF	n/a	n/a	BEE	11	3	[0, 0, 0]	n/a	FR1	0	R1338T
458.93	1.627	460633	WORD	n/a	wordpools/wordpool_EN.txt	CAT	12	3	[0, 0, 0]	n/a	FR1	0	R1338T
460.557	0.0	462260	WORD_OFF	n/a	n/a	CAT	12	3	[0, 0, 0]	n/a	FR1	0	R1338T
460.557	0.001	462260	ENCODING_END	n/a	n/a	n/a	-999	3	[0, 0, 0]	n/a	FR1	0	R1338T
460.558	0.0	462261	DISTRACT_START	n/a	n/a	n/a	-999	3	[0, 0, 0]	n/a	FR1	0	R1338T
460.558	0.015	462261	START	n/a	n/a	n/a	-999	3	[-999, -999, -999]	n/a	FR1	0	R1338T
460.573	24.512	462276	PROB	24.512	n/a	n/a	-999	3	[9, 5, 1]	951	FR1	0	R1338T
485.085	0.01	486787	STOP	n/a	n/a	n/a	-999	3	[-999, -999, -999]	n/a	FR1	0	R1338T
485.095	0.665	486797	DISTRACT_END	n/a	n/a	n/a	-999	3	[0, 0, 0]	n/a	FR1	0	R1338T
485.76	1.685	487462	RETRIEVAL_ORIENT_START	n/a	n/a	n/a	-999	3	[0, 0, 0]	n/a	FR1	0	R1338T
487.445	0.001	489147	RETRIEVAL_ORIENT_END	n/a	n/a	n/a	-999	3	[0, 0, 0]	n/a	FR1	0	R1338T
487.446	0.308	489148	REC_START	n/a	n/a	n/a	-999	3	[0, 0, 0]	n/a	FR1	0	R1338T
487.754	1.25	489456	REC_WORD	1.25	n/a	CAT	12	3	[0, 0, 0]	n/a	FR1	0	R1338T
489.004	1.444	490706	REC_WORD	1.444	n/a	CRATE	-999	3	[0, 0, 0]	n/a	FR1	0	R1338T
490.448	9.14	492150	REC_WORD	9.14	n/a	BEE	11	3	[0, 0, 0]	n/a	FR1	0	R1338T
499.588	17.868	501289	REC_WORD	17.868	n/a	CART	1	3	[0, 0, 0]	n/a	FR1	0	R1338T
517.456	0.0	519156	TRIAL_END	n/a	n/a	n/a	-999	3	[0, 0, 0]	n/a	FR1	0	R1338T
517.456	0.015	519156	REC_END	n/a	n/a	n/a	-999	3	[0, 0, 0]	n/a	FR1	0	R1338T
517.471	0.001	519171	TRIAL_START	n/a	n/a	n/a	-999	4	[0, 0, 0]	n/a	FR1	0	R1338T
517.472	0.0	519172	TRIAL	n/a	n/a	n/a	-999	4	[0, 0, 0]	n/a	FR1	0	R1338T
517.472	2.929	519172	WAITING_START	n/a	n/a	n/a	-999	4	[0, 0, 0]	n/a	FR1	0	R1338T
520.401	0.0	522101	WAITING_END	n/a	n/a	n/a	-999	4	[0, 0, 0]	n/a	FR1	0	R1338T
520.401	10.43	522101	COUNTDOWN_START	n/a	n/a	n/a	-999	4	[0, 0, 0]	n/a	FR1	0	R1338T
530.831	0.0	532531	COUNTDOWN_END	n/a	n/a	n/a	-999	4	[0, 0, 0]	n/a	FR1	0	R1338T
530.831	1.256	532531	ORIENT_START	n/a	n/a	n/a	-999	4	[0, 0, 0]	n/a	FR1	0	R1338T
532.087	0.0	533787	ENCODING_START	n/a	n/a	n/a	-999	4	[0, 0, 0]	n/a	FR1	0	R1338T
532.087	0.977	533787	ORIENT_END	n/a	n/a	n/a	-999	4	[0, 0, 0]	n/a	FR1	0	R1338T
533.064	1.623	534764	WORD	n/a	wordpools/wordpool_EN.txt	STEM	1	4	[0, 0, 0]	n/a	FR1	0	R1338T
534.687	0.991	536387	WORD_OFF	n/a	n/a	STEM	1	4	[0, 0, 0]	n/a	FR1	0	R1338T
535.678	1.626	537378	WORD	n/a	wordpools/wordpool_EN.txt	GLOVE	2	4	[0, 0, 0]	n/a	FR1	0	R1338T
537.304	0.828	539003	WORD_OFF	n/a	n/a	GLOVE	2	4	[0, 0, 0]	n/a	FR1	0	R1338T
538.132	1.623	539831	WORD	n/a	wordpools/wordpool_EN.txt	SHRIMP	3	4	[0, 0, 0]	n/a	FR1	0	R1338T
539.755	0.922	541454	WORD_OFF	n/a	n/a	SHRIMP	3	4	[0, 0, 0]	n/a	FR1	0	R1338T
540.677	1.628	542376	WORD	n/a	wordpools/wordpool_EN.txt	GEESE	4	4	[0, 0, 0]	n/a	FR1	0	R1338T
542.305	1.132	544004	WORD_OFF	n/a	n/a	GEESE	4	4	[0, 0, 0]	n/a	FR1	0	R1338T
543.437	1.635	545136	WORD	n/a	wordpools/wordpool_EN.txt	SALT	5	4	[0, 0, 0]	n/a	FR1	0	R1338T
545.072	0.915	546771	WORD_OFF	n/a	n/a	SALT	5	4	[0, 0, 0]	n/a	FR1	0	R1338T
545.987	1.636	547686	WORD	n/a	wordpools/wordpool_EN.txt	ROAD	6	4	[0, 0, 0]	n/a	FR1	0	R1338T
547.623	0.945	549322	WORD_OFF	n/a	n/a	ROAD	6	4	[0, 0, 0]	n/a	FR1	0	R1338T
548.568	1.622	550267	WORD	n/a	wordpools/wordpool_EN.txt	TOOL	7	4	[0, 0, 0]	n/a	FR1	0	R1338T
550.19	1.0	551889	WORD_OFF	n/a	n/a	TOOL	7	4	[0, 0, 0]	n/a	FR1	0	R1338T
551.19	1.634	552889	WORD	n/a	wordpools/wordpool_EN.txt	STREET	8	4	[0, 0, 0]	n/a	FR1	0	R1338T
552.824	0.9	554523	WORD_OFF	n/a	n/a	STREET	8	4	[0, 0, 0]	n/a	FR1	0	R1338T
553.724	1.633	555423	WORD	n/a	wordpools/wordpool_EN.txt	STRING	9	4	[0, 0, 0]	n/a	FR1	0	R1338T
555.357	1.001	557056	WORD_OFF	n/a	n/a	STRING	9	4	[0, 0, 0]	n/a	FR1	0	R1338T
556.358	1.633	558057	WORD	n/a	wordpools/wordpool_EN.txt	FOOD	10	4	[0, 0, 0]	n/a	FR1	0	R1338T
557.991	0.772	559690	WORD_OFF	n/a	n/a	FOOD	10	4	[0, 0, 0]	n/a	FR1	0	R1338T
558.763	1.629	560461	WORD	n/a	wordpools/wordpool_EN.txt	CAKE	11	4	[0, 0, 0]	n/a	FR1	0	R1338T
560.392	0.892	562090	WORD_OFF	n/a	n/a	CAKE	11	4	[0, 0, 0]	n/a	FR1	0	R1338T
561.284	1.625	562982	WORD	n/a	wordpools/wordpool_EN.txt	MOON	12	4	[0, 0, 0]	n/a	FR1	0	R1338T
562.909	0.0	564607	ENCODING_END	n/a	n/a	n/a	-999	4	[0, 0, 0]	n/a	FR1	0	R1338T
562.909	0.0	564607	WORD_OFF	n/a	n/a	MOON	12	4	[0, 0, 0]	n/a	FR1	0	R1338T
562.909	0.001	564607	DISTRACT_START	n/a	n/a	n/a	-999	4	[0, 0, 0]	n/a	FR1	0	R1338T
562.91	0.015	564608	START	n/a	n/a	n/a	-999	4	[-999, -999, -999]	n/a	FR1	0	R1338T
562.925	22.269	564623	PROB	22.269	n/a	n/a	-999	4	[1, 8, 2]	182	FR1	0	R1338T
585.194	0.019	586891	STOP	n/a	n/a	n/a	-999	4	[-999, -999, -999]	n/a	FR1	0	R1338T
585.213	0.645	586910	DISTRACT_END	n/a	n/a	n/a	-999	4	[0, 0, 0]	n/a	FR1	0	R1338T
585.858	1.605	587555	RETRIEVAL_ORIENT_START	n/a	n/a	n/a	-999	4	[0, 0, 0]	n/a	FR1	0	R1338T
587.463	0.001	589160	RETRIEVAL_ORIENT_END	n/a	n/a	n/a	-999	4	[0, 0, 0]	n/a	FR1	0	R1338T
587.464	5.799	589161	REC_START	n/a	n/a	n/a	-999	4	[0, 0, 0]	n/a	FR1	0	R1338T
593.263	1.454	594960	REC_WORD	1.454	n/a	FOOD	10	4	[0, 0, 0]	n/a	FR1	0	R1338T
594.717	1.502	596414	REC_WORD	1.502	n/a	CAKE	11	4	[0, 0, 0]	n/a	FR1	0	R1338T
596.219	1.978	597916	REC_WORD	1.978	n/a	TOAD	-999	4	[0, 0, 0]	n/a	FR1	0	R1338T
598.197	19.28	599894	REC_WORD	19.28	n/a	ROAD	6	4	[0, 0, 0]	n/a	FR1	0	R1338T
617.477	0.0	619173	TRIAL_END	n/a	n/a	n/a	-999	4	[0, 0, 0]	n/a	FR1	0	R1338T
617.477	0.014	619173	REC_END	n/a	n/a	n/a	-999	4	[0, 0, 0]	n/a	FR1	0	R1338T
617.491	0.0	619187	TRIAL_START	n/a	n/a	n/a	-999	5	[0, 0, 0]	n/a	FR1	0	R1338T
617.491	0.0	619187	TRIAL	n/a	n/a	n/a	-999	5	[0, 0, 0]	n/a	FR1	0	R1338T
617.491	3.545	619187	WAITING_START	n/a	n/a	n/a	-999	5	[0, 0, 0]	n/a	FR1	0	R1338T
621.036	0.001	622732	WAITING_END	n/a	n/a	n/a	-999	5	[0, 0, 0]	n/a	FR1	0	R1338T
621.037	10.428	622733	COUNTDOWN_START	n/a	n/a	n/a	-999	5	[0, 0, 0]	n/a	FR1	0	R1338T
631.465	0.001	633160	COUNTDOWN_END	n/a	n/a	n/a	-999	5	[0, 0, 0]	n/a	FR1	0	R1338T
631.466	1.023	633161	ORIENT_START	n/a	n/a	n/a	-999	5	[0, 0, 0]	n/a	FR1	0	R1338T
632.489	0.0	634184	ENCODING_START	n/a	n/a	n/a	-999	5	[0, 0, 0]	n/a	FR1	0	R1338T
632.489	1.132	634184	ORIENT_END	n/a	n/a	n/a	-999	5	[0, 0, 0]	n/a	FR1	0	R1338T
633.621	1.634	635316	WORD	n/a	wordpools/wordpool_EN.txt	WORM	1	5	[0, 0, 0]	n/a	FR1	0	R1338T
635.255	0.908	636950	WORD_OFF	n/a	n/a	WORM	1	5	[0, 0, 0]	n/a	FR1	0	R1338T
636.163	1.626	637858	WORD	n/a	wordpools/wordpool_EN.txt	JUDGE	2	5	[0, 0, 0]	n/a	FR1	0	R1338T
637.789	0.986	639484	WORD_OFF	n/a	n/a	JUDGE	2	5	[0, 0, 0]	n/a	FR1	0	R1338T
638.775	1.631	640470	WORD	n/a	wordpools/wordpool_EN.txt	BED	3	5	[0, 0, 0]	n/a	FR1	0	R1338T
640.406	1.097	642101	WORD_OFF	n/a	n/a	BED	3	5	[0, 0, 0]	n/a	FR1	0	R1338T
641.503	1.62	643198	WORD	n/a	wordpools/wordpool_EN.txt	TEA	4	5	[0, 0, 0]	n/a	FR1	0	R1338T
643.123	1.01	644818	WORD_OFF	n/a	n/a	TEA	4	5	[0, 0, 0]	n/a	FR1	0	R1338T
644.133	1.624	645828	WORD	n/a	wordpools/wordpool_EN.txt	SHARK	5	5	[0, 0, 0]	n/a	FR1	0	R1338T
645.757	1.15	647452	WORD_OFF	n/a	n/a	SHARK	5	5	[0, 0, 0]	n/a	FR1	0	R1338T
646.907	1.634	648602	WORD	n/a	wordpools/wordpool_EN.txt	BEAK	6	5	[0, 0, 0]	n/a	FR1	0	R1338T
648.541	1.151	650235	WORD_OFF	n/a	n/a	BEAK	6	5	[0, 0, 0]	n/a	FR1	0	R1338T
649.692	1.633	651386	WORD	n/a	wordpools/wordpool_EN.txt	DITCH	7	5	[0, 0, 0]	n/a	FR1	0	R1338T
651.325	0.852	653019	WORD_OFF	n/a	n/a	DITCH	7	5	[0, 0, 0]	n/a	FR1	0	R1338T
652.177	1.632	653871	WORD	n/a	wordpools/wordpool_EN.txt	SPEAR	8	5	[0, 0, 0]	n/a	FR1	0	R1338T
653.809	0.784	655503	WORD_OFF	n/a	n/a	SPEAR	8	5	[0, 0, 0]	n/a	FR1	0	R1338T
654.593	1.633	656287	WORD	n/a	wordpools/wordpool_EN.txt	CAR	9	5	[0, 0, 0]	n/a	FR1	0	R1338T
656.226	0.79	657920	WORD_OFF	n/a	n/a	CAR	9	5	[0, 0, 0]	n/a	FR1	0	R1338T
657.016	1.627	658710	WORD	n/a	wordpools/wordpool_EN.txt	BARN	10	5	[0, 0, 0]	n/a	FR1	0	R1338T
658.643	1.03	660337	WORD_OFF	n/a	n/a	BARN	10	5	[0, 0, 0]	n/a	FR1	0	R1338T
659.673	1.637	661367	WORD	n/a	wordpools/wordpool_EN.txt	BAT	11	5	[0, 0, 0]	n/a	FR1	0	R1338T
661.31	0.755	663004	WORD_OFF	n/a	n/a	BAT	11	5	[0, 0, 0]	n/a	FR1	0	R1338T
662.065	1.629	663759	WORD	n/a	wordpools/wordpool_EN.txt	TIE	12	5	[0, 0, 0]	n/a	FR1	0	R1338T
663.694	0.0	665388	WORD_OFF	n/a	n/a	TIE	12	5	[0, 0, 0]	n/a	FR1	0	R1338T
663.694	0.001	665388	ENCODING_END	n/a	n/a	n/a	-999	5	[0, 0, 0]	n/a	FR1	0	R1338T
663.695	0.0	665389	DISTRACT_START	n/a	n/a	n/a	-999	5	[0, 0, 0]	n/a	FR1	0	R1338T
663.695	0.015	665389	START	n/a	n/a	n/a	-999	5	[-999, -999, -999]	n/a	FR1	0	R1338T
663.71	13.82	665404	PROB	13.82	n/a	n/a	-999	5	[8, 1, 7]	817	FR1	0	R1338T
677.53	12.813	679223	PROB	12.813	n/a	n/a	-999	5	[2, 5, 9]	259	FR1	0	R1338T
690.343	0.022	692036	STOP	n/a	n/a	n/a	-999	5	[-999, -999, -999]	n/a	FR1	0	R1338T
690.365	0.638	692058	DISTRACT_END	n/a	n/a	n/a	-999	5	[0, 0, 0]	n/a	FR1	0	R1338T
691.003	1.613	692696	RETRIEVAL_ORIENT_START	n/a	n/a	n/a	-999	5	[0, 0, 0]	n/a	FR1	0	R1338T
692.616	0.0	694308	RETRIEVAL_ORIENT_END	n/a	n/a	n/a	-999	5	[0, 0, 0]	n/a	FR1	0	R1338T
692.616	1.592	694308	REC_START	n/a	n/a	n/a	-999	5	[0, 0, 0]	n/a	FR1	0	R1338T
694.208	28.421	695900	REC_WORD	28.421	n/a	TIE	12	5	[0, 0, 0]	n/a	FR1	0	R1338T
722.629	0.0	724320	REC_END	n/a	n/a	n/a	-999	5	[0, 0, 0]	n/a	FR1	0	R1338T
722.629	0.016	724320	TRIAL_END	n/a	n/a	n/a	-999	5	[0, 0, 0]	n/a	FR1	0	R1338T
722.645	0.0	724336	WAITING_START	n/a	n/a	n/a	-999	6	[0, 0, 0]	n/a	FR1	0	R1338T
722.645	0.0	724336	TRIAL	n/a	n/a	n/a	-999	6	[0, 0, 0]	n/a	FR1	0	R1338T
722.645	6.244	724336	TRIAL_START	n/a	n/a	n/a	-999	6	[0, 0, 0]	n/a	FR1	0	R1338T
728.889	0.0	730580	WAITING_END	n/a	n/a	n/a	-999	6	[0, 0, 0]	n/a	FR1	0	R1338T
728.889	10.429	730580	COUNTDOWN_START	n/a	n/a	n/a	-999	6	[0, 0, 0]	n/a	FR1	0	R1338T
739.318	0.001	741008	COUNTDOWN_END	n/a	n/a	n/a	-999	6	[0, 0, 0]	n/a	FR1	0	R1338T
739.319	1.122	741009	ORIENT_START	n/a	n/a	n/a	-999	6	[0, 0, 0]	n/a	FR1	0	R1338T
740.441	0.001	742131	ORIENT_END	n/a	n/a	n/a	-999	6	[0, 0, 0]	n/a	FR1	0	R1338T
740.442	1.011	742132	ENCODING_START	n/a	n/a	n/a	-999	6	[0, 0, 0]	n/a	FR1	0	R1338T
741.453	1.622	743143	WORD	n/a	wordpools/wordpool_EN.txt	PLANE	1	6	[0, 0, 0]	n/a	FR1	0	R1338T
743.075	0.778	744765	WORD_OFF	n/a	n/a	PLANE	1	6	[0, 0, 0]	n/a	FR1	0	R1338T
743.853	1.623	745543	WORD	n/a	wordpools/wordpool_EN.txt	GUARD	2	6	[0, 0, 0]	n/a	FR1	0	R1338T
745.476	1.124	747166	WORD_OFF	n/a	n/a	GUARD	2	6	[0, 0, 0]	n/a	FR1	0	R1338T
746.6	1.626	748290	WORD	n/a	wordpools/wordpool_EN.txt	HOOF	3	6	[0, 0, 0]	n/a	FR1	0	R1338T
748.226	0.938	749916	WORD_OFF	n/a	n/a	HOOF	3	6	[0, 0, 0]	n/a	FR1	0	R1338T
749.164	1.629	750854	WORD	n/a	wordpools/wordpool_EN.txt	MUG	4	6	[0, 0, 0]	n/a	FR1	0	R1338T
750.793	1.031	752483	WORD_OFF	n/a	n/a	MUG	4	6	[0, 0, 0]	n/a	FR1	0	R1338T
751.824	1.636	753514	WORD	n/a	wordpools/wordpool_EN.txt	PEA	5	6	[0, 0, 0]	n/a	FR1	0	R1338T
753.46	1.099	755150	WORD_OFF	n/a	n/a	PEA	5	6	[0, 0, 0]	n/a	FR1	0	R1338T
754.559	1.635	756249	WORD	n/a	wordpools/wordpool_EN.txt	DOG	6	6	[0, 0, 0]	n/a	FR1	0	R1338T
756.194	1.09	757884	WORD_OFF	n/a	n/a	DOG	6	6	[0, 0, 0]	n/a	FR1	0	R1338T
757.284	1.627	758974	WORD	n/a	wordpools/wordpool_EN.txt	FLEA	7	6	[0, 0, 0]	n/a	FR1	0	R1338T
758.911	0.805	760601	WORD_OFF	n/a	n/a	FLEA	7	6	[0, 0, 0]	n/a	FR1	0	R1338T
759.716	1.629	761405	WORD	n/a	wordpools/wordpool_EN.txt	WEB	8	6	[0, 0, 0]	n/a	FR1	0	R1338T
761.345	1.095	763034	WORD_OFF	n/a	n/a	WEB	8	6	[0, 0, 0]	n/a	FR1	0	R1338T
762.44	1.622	764129	WORD	n/a	wordpools/wordpool_EN.txt	HAWK	9	6	[0, 0, 0]	n/a	FR1	0	R1338T
764.062	0.953	765751	WORD_OFF	n/a	n/a	HAWK	9	6	[0, 0, 0]	n/a	FR1	0	R1338T
765.015	1.631	766704	WORD	n/a	wordpools/wordpool_EN.txt	BOOT	10	6	[0, 0, 0]	n/a	FR1	0	R1338T
766.646	0.916	768335	WORD_OFF	n/a	n/a	BOOT	10	6	[0, 0, 0]	n/a	FR1	0	R1338T
767.562	1.634	769251	WORD	n/a	wordpools/wordpool_EN.txt	CUP	11	6	[0, 0, 0]	n/a	FR1	0	R1338T
769.196	0.878	770885	WORD_OFF	n/a	n/a	CUP	11	6	[0, 0, 0]	n/a	FR1	0	R1338T
770.074	1.623	771763	WORD	n/a	wordpools/wordpool_EN.txt	KEY	12	6	[0, 0, 0]	n/a	FR1	0	R1338T
771.697	0.0	773386	WORD_OFF	n/a	n/a	KEY	12	6	[0, 0, 0]	n/a	FR1	0	R1338T
771.697	0.0	773386	ENCODING_END	n/a	n/a	n/a	-999	6	[0, 0, 0]	n/a	FR1	0	R1338T
771.697	0.0	773386	DISTRACT_START	n/a	n/a	n/a	-999	6	[0, 0, 0]	n/a	FR1	0	R1338T
771.697	0.016	773386	START	n/a	n/a	n/a	-999	6	[-999, -999, -999]	n/a	FR1	0	R1338T
771.713	17.487	773402	PROB	17.487	n/a	n/a	-999	6	[1, 6, 9]	169	FR1	0	R1338T
789.2	18.734	790888	PROB	18.734	n/a	n/a	-999	6	[3, 9, 1]	391	FR1	0	R1338T
807.934	0.019	809621	STOP	n/a	n/a	n/a	-999	6	[-999, -999, -999]	n/a	FR1	0	R1338T
807.953	0.508	809640	DISTRACT_END	n/a	n/a	n/a	-999	6	[0, 0, 0]	n/a	FR1	0	R1338T
808.461	1.726	810148	RETRIEVAL_ORIENT_START	n/a	n/a	n/a	-999	6	[0, 0, 0]	n/a	FR1	0	R1338T
810.187	0.0	811874	RETRIEVAL_ORIENT_END	n/a	n/a	n/a	-999	6	[0, 0, 0]	n/a	FR1	0	R1338T
810.187	17.333	811874	REC_START	n/a	n/a	n/a	-999	6	[0, 0, 0]	n/a	FR1	0	R1338T
827.52	12.679	829206	REC_WORD_VV	12.679	n/a	<>	-999	6	[0, 0, 0]	n/a	FR1	0	R1338T
840.199	0.0	841885	REC_END	n/a	n/a	n/a	-999	6	[0, 0, 0]	n/a	FR1	0	R1338T
840.199	0.014	841885	TRIAL_END	n/a	n/a	n/a	-999	6	[0, 0, 0]	n/a	FR1	0	R1338T
840.213	0.001	841899	TRIAL_START	n/a	n/a	n/a	-999	7	[0, 0, 0]	n/a	FR1	0	R1338T
840.214	0.0	841900	TRIAL	n/a	n/a	n/a	-999	7	[0, 0, 0]	n/a	FR1	0	R1338T
840.214	8.08	841900	WAITING_START	n/a	n/a	n/a	-999	7	[0, 0, 0]	n/a	FR1	0	R1338T
848.294	0.0	849980	COUNTDOWN_START	n/a	n/a	n/a	-999	7	[0, 0, 0]	n/a	FR1	0	R1338T
848.294	10.429	849980	WAITING_END	n/a	n/a	n/a	-999	7	[0, 0, 0]	n/a	FR1	0	R1338T
858.723	0.0	860408	COUNTDOWN_END	n/a	n/a	n/a	-999	7	[0, 0, 0]	n/a	FR1	0	R1338T
858.723	1.19	860408	ORIENT_START	n/a	n/a	n/a	-999	7	[0, 0, 0]	n/a	FR1	0	R1338T
859.913	0.0	861598	ORIENT_END	n/a	n/a	n/a	-999	7	[0, 0, 0]	n/a	FR1	0	R1338T
859.913	0.814	861598	ENCODING_START	n/a	n/a	n/a	-999	7	[0, 0, 0]	n/a	FR1	0	R1338T
860.727	1.636	862412	WORD	n/a	wordpools/wordpool_EN.txt	NAIL	1	7	[0, 0, 0]	n/a	FR1	0	R1338T
862.363	0.808	864048	WORD_OFF	n/a	n/a	NAIL	1	7	[0, 0, 0]	n/a	FR1	0	R1338T
863.171	1.626	864856	WORD	n/a	wordpools/wordpool_EN.txt	DUCK	2	7	[0, 0, 0]	n/a	FR1	0	R1338T
864.797	1.096	866482	WORD_OFF	n/a	n/a	DUCK	2	7	[0, 0, 0]	n/a	FR1	0	R1338T
865.893	1.639	867578	WORD	n/a	wordpools/wordpool_EN.txt	MAZE	3	7	[0, 0, 0]	n/a	FR1	0	R1338T
867.532	1.094	869217	WORD_OFF	n/a	n/a	MAZE	3	7	[0, 0, 0]	n/a	FR1	0	R1338T
868.626	1.622	870311	WORD	n/a	wordpools/wordpool_EN.txt	ROOT	4	7	[0, 0, 0]	n/a	FR1	0	R1338T
870.248	1.043	871933	WORD_OFF	n/a	n/a	ROOT	4	7	[0, 0, 0]	n/a	FR1	0	R1338T
871.291	1.624	872975	WORD	n/a	wordpools/wordpool_EN.txt	PIPE	5	7	[0, 0, 0]	n/a	FR1	0	R1338T
872.915	0.917	874599	WORD_OFF	n/a	n/a	PIPE	5	7	[0, 0, 0]	n/a	FR1	0	R1338T
873.832	1.617	875516	WORD	n/a	wordpools/wordpool_EN.txt	ROSE	6	7	[0, 0, 0]	n/a	FR1	0	R1338T
875.449	1.063	877133	WORD_OFF	n/a	n/a	ROSE	6	7	[0, 0, 0]	n/a	FR1	0	R1338T
876.512	1.637	878196	WORD	n/a	wordpools/wordpool_EN.txt	TEETH	7	7	[0, 0, 0]	n/a	FR1	0	R1338T
878.149	0.824	879833	WORD_OFF	n/a	n/a	TEETH	7	7	[0, 0, 0]	n/a	FR1	0	R1338T
878.973	1.627	880657	WORD	n/a	wordpools/wordpool_EN.txt	CORN	8	7	[0, 0, 0]	n/a	FR1	0	R1338T
880.6	0.866	882284	WORD_OFF	n/a	n/a	CORN	8	7	[0, 0, 0]	n/a	FR1	0	R1338T
881.466	1.634	883150	WORD	n/a	wordpools/wordpool_EN.txt	PIT	9	7	[0, 0, 0]	n/a	FR1	0	R1338T
883.1	1.003	884784	WORD_OFF	n/a	n/a	PIT	9	7	[0, 0, 0]	n/a	FR1	0	R1338T
884.103	1.631	885787	WORD	n/a	wordpools/wordpool_EN.txt	CHEEK	10	7	[0, 0, 0]	n/a	FR1	0	R1338T
885.734	0.96	887418	WORD_OFF	n/a	n/a	CHEEK	10	7	[0, 0, 0]	n/a	FR1	0	R1338T
886.694	1.624	888378	WORD	n/a	wordpools/wordpool_EN.txt	SHEEP	11	7	[0, 0, 0]	n/a	FR1	0	R1338T
888.318	0.796	890002	WORD_OFF	n/a	n/a	SHEEP	11	7	[0, 0, 0]	n/a	FR1	0	R1338T
889.114	1.621	890798	WORD	n/a	wordpools/wordpool_EN.txt	OWL	12	7	[0, 0, 0]	n/a	FR1	0	R1338T
890.735	0.001	892419	WORD_OFF	n/a	n/a	OWL	12	7	[0, 0, 0]	n/a	FR1	0	R1338T
890.736	0.0	892420	ENCODING_END	n/a	n/a	n/a	-999	7	[0, 0, 0]	n/a	FR1	0	R1338T
890.736	0.0	892420	DISTRACT_START	n/a	n/a	n/a	-999	7	[0, 0, 0]	n/a	FR1	0	R1338T
890.736	0.015	892420	START	n/a	n/a	n/a	-999	7	[-999, -999, -999]	n/a	FR1	0	R1338T
890.751	13.169	892435	PROB	13.169	n/a	n/a	-999	7	[1, 6, 8]	168	FR1	0	R1338T
903.92	15.816	905603	PROB	15.816	n/a	n/a	-999	7	[3, 6, 6]	366	FR1	0	R1338T
919.736	0.021	921418	STOP	n/a	n/a	n/a	-999	7	[-999, -999, -999]	n/a	FR1	0	R1338T
919.757	0.539	921439	DISTRACT_END	n/a	n/a	n/a	-999	7	[0, 0, 0]	n/a	FR1	0	R1338T
920.296	1.661	921978	RETRIEVAL_ORIENT_START	n/a	n/a	n/a	-999	7	[0, 0, 0]	n/a	FR1	0	R1338T
921.957	0.001	923639	RETRIEVAL_ORIENT_END	n/a	n/a	n/a	-999	7	[0, 0, 0]	n/a	FR1	0	R1338T
921.958	14.702	923640	REC_START	n/a	n/a	n/a	-999	7	[0, 0, 0]	n/a	FR1	0	R1338T
936.66	15.308	938342	REC_WORD_VV	15.308	n/a	<>	-999	7	[0, 0, 0]	n/a	FR1	0	R1338T
951.968	0.0	953649	REC_END	n/a	n/a	n/a	-999	7	[0, 0, 0]	n/a	FR1	0	R1338T
951.968	0.015	953649	TRIAL_END	n/a	n/a	n/a	-999	7	[0, 0, 0]	n/a	FR1	0	R1338T
951.983	0.0	953664	TRIAL_START	n/a	n/a	n/a	-999	8	[0, 0, 0]	n/a	FR1	0	R1338T
951.983	0.0	953664	TRIAL	n/a	n/a	n/a	-999	8	[0, 0, 0]	n/a	FR1	0	R1338T
951.983	3.814	953664	WAITING_START	n/a	n/a	n/a	-999	8	[0, 0, 0]	n/a	FR1	0	R1338T
955.797	0.0	957478	WAITING_END	n/a	n/a	n/a	-999	8	[0, 0, 0]	n/a	FR1	0	R1338T
955.797	10.429	957478	COUNTDOWN_START	n/a	n/a	n/a	-999	8	[0, 0, 0]	n/a	FR1	0	R1338T
966.226	0.0	967906	ORIENT_START	n/a	n/a	n/a	-999	8	[0, 0, 0]	n/a	FR1	0	R1338T
966.226	1.19	967906	COUNTDOWN_END	n/a	n/a	n/a	-999	8	[0, 0, 0]	n/a	FR1	0	R1338T
967.416	0.0	969096	ORIENT_END	n/a	n/a	n/a	-999	8	[0, 0, 0]	n/a	FR1	0	R1338T
967.416	1.108	969096	ENCODING_START	n/a	n/a	n/a	-999	8	[0, 0, 0]	n/a	FR1	0	R1338T
968.524	1.625	970204	WORD	n/a	wordpools/wordpool_EN.txt	POOL	1	8	[0, 0, 0]	n/a	FR1	0	R1338T
970.149	0.991	971829	WORD_OFF	n/a	n/a	POOL	1	8	[0, 0, 0]	n/a	FR1	0	R1338T
971.14	1.627	972820	WORD	n/a	wordpools/wordpool_EN.txt	ROCK	2	8	[0, 0, 0]	n/a	FR1	0	R1338T
972.767	0.924	974447	WORD_OFF	n/a	n/a	ROCK	2	8	[0, 0, 0]	n/a	FR1	0	R1338T
973.691	1.626	975371	WORD	n/a	wordpools/wordpool_EN.txt	TRUCK	3	8	[0, 0, 0]	n/a	FR1	0	R1338T
975.317	1.008	976997	WORD_OFF	n/a	n/a	TRUCK	3	8	[0, 0, 0]	n/a	FR1	0	R1338T
976.325	1.626	978005	WORD	n/a	wordpools/wordpool_EN.txt	BOOK	4	8	[0, 0, 0]	n/a	FR1	0	R1338T
977.951	0.754	979631	WORD_OFF	n/a	n/a	BOOK	4	8	[0, 0, 0]	n/a	FR1	0	R1338T
978.705	1.63	980385	WORD	n/a	wordpools/wordpool_EN.txt	PIN	5	8	[0, 0, 0]	n/a	FR1	0	R1338T
980.335	0.757	982015	WORD_OFF	n/a	n/a	PIN	5	8	[0, 0, 0]	n/a	FR1	0	R1338T
981.092	1.626	982772	WORD	n/a	wordpools/wordpool_EN.txt	SEED	6	8	[0, 0, 0]	n/a	FR1	0	R1338T
982.718	0.75	984397	WORD_OFF	n/a	n/a	SEED	6	8	[0, 0, 0]	n/a	FR1	0	R1338T
983.468	1.634	985147	WORD	n/a	wordpools/wordpool_EN.txt	BOWL	7	8	[0, 0, 0]	n/a	FR1	0	R1338T
985.102	1.105	986781	WORD_OFF	n/a	n/a	BOWL	7	8	[0, 0, 0]	n/a	FR1	0	R1338T
986.207	1.629	987886	WORD	n/a	wordpools/wordpool_EN.txt	RICE	8	8	[0, 0, 0]	n/a	FR1	0	R1338T
987.836	1.115	989515	WORD_OFF	n/a	n/a	RICE	8	8	[0, 0, 0]	n/a	FR1	0	R1338T
988.951	1.635	990630	WORD	n/a	wordpools/wordpool_EN.txt	TAIL	9	8	[0, 0, 0]	n/a	FR1	0	R1338T
990.586	0.892	992265	WORD_OFF	n/a	n/a	TAIL	9	8	[0, 0, 0]	n/a	FR1	0	R1338T
991.478	1.626	993157	WORD	n/a	wordpools/wordpool_EN.txt	JET	10	8	[0, 0, 0]	n/a	FR1	0	R1338T
993.104	0.866	994783	WORD_OFF	n/a	n/a	JET	10	8	[0, 0, 0]	n/a	FR1	0	R1338T
993.97	1.634	995649	WORD	n/a	wordpools/wordpool_EN.txt	EGG	11	8	[0, 0, 0]	n/a	FR1	0	R1338T
995.604	1.13	997283	WORD_OFF	n/a	n/a	EGG	11	8	[0, 0, 0]	n/a	FR1	0	R1338T
996.734	1.637	998413	WORD	n/a	wordpools/wordpool_EN.txt	PET	12	8	[0, 0, 0]	n/a	FR1	0	R1338T
998.371	0.001	1000050	WORD_OFF	n/a	n/a	PET	12	8	[0, 0, 0]	n/a	FR1	0	R1338T
998.372	0.0	1000051	ENCODING_END	n/a	n/a	n/a	-999	8	[0, 0, 0]	n/a	FR1	0	R1338T
998.372	0.0	1000051	DISTRACT_START	n/a	n/a	n/a	-999	8	[0, 0, 0]	n/a	FR1	0	R1338T
998.372	0.016	1000051	START	n/a	n/a	n/a	-999	8	[-999, -999, -999]	n/a	FR1	0	R1338T
998.388	17.153	1000067	PROB	17.153	n/a	n/a	-999	8	[6, 2, 1]	621	FR1	0	R1338T
1015.541	14.928	1017219	PROB	14.928	n/a	n/a	-999	8	[5, 2, 9]	529	FR1	0	R1338T
1030.469	0.009	1032146	STOP	n/a	n/a	n/a	-999	8	[-999, -999, -999]	n/a	FR1	0	R1338T
1030.478	0.634	1032155	DISTRACT_END	n/a	n/a	n/a	-999	8	[0, 0, 0]	n/a	FR1	0	R1338T
1031.112	1.666	1032789	RETRIEVAL_ORIENT_START	n/a	n/a	n/a	-999	8	[0, 0, 0]	n/a	FR1	0	R1338T
1032.778	0.0	1034455	RETRIEVAL_ORIENT_END	n/a	n/a	n/a	-999	8	[0, 0, 0]	n/a	FR1	0	R1338T
1032.778	15.002	1034455	REC_START	n/a	n/a	n/a	-999	8	[0, 0, 0]	n/a	FR1	0	R1338T
1047.78	1.0	1049457	REC_WORD_VV	1.0	n/a	<>	-999	8	[0, 0, 0]	n/a	FR1	0	R1338T
1048.78	3.411	1050457	REC_WORD_VV	3.411	n/a	<>	-999	8	[0, 0, 0]	n/a	FR1	0	R1338T
1052.191	3.179	1053867	REC_WORD	3.179	n/a	RICE	8	8	[0, 0, 0]	n/a	FR1	0	R1338T
1055.37	4.094	1057046	REC_WORD	4.094	n/a	BOWL	7	8	[0, 0, 0]	n/a	FR1	0	R1338T
1059.464	3.324	1061140	REC_WORD_VV	3.324	n/a	<>	-999	8	[0, 0, 0]	n/a	FR1	0	R1338T
1062.788	0.001	1064464	REC_END	n/a	n/a	n/a	-999	8	[0, 0, 0]	n/a	FR1	0	R1338T
1062.789	0.015	1064465	TRIAL_END	n/a	n/a	n/a	-999	8	[0, 0, 0]	n/a	FR1	0	R1338T
1062.804	0.0	1064480	TRIAL_START	n/a	n/a	n/a	-999	9	[0, 0, 0]	n/a	FR1	0	R1338T
1062.804	0.001	1064480	TRIAL	n/a	n/a	n/a	-999	9	[0, 0, 0]	n/a	FR1	0	R1338T
1062.805	2.529	1064481	WAITING_START	n/a	n/a	n/a	-999	9	[0, 0, 0]	n/a	FR1	0	R1338T
1065.334	0.0	1067010	WAITING_END	n/a	n/a	n/a	-999	9	[0, 0, 0]	n/a	FR1	0	R1338T
1065.334	10.428	1067010	COUNTDOWN_START	n/a	n/a	n/a	-999	9	[0, 0, 0]	n/a	FR1	0	R1338T
1075.762	0.001	1077437	COUNTDOWN_END	n/a	n/a	n/a	-999	9	[0, 0, 0]	n/a	FR1	0	R1338T
1075.763	1.123	1077438	ORIENT_START	n/a	n/a	n/a	-999	9	[0, 0, 0]	n/a	FR1	0	R1338T
1076.886	0.0	1078561	ORIENT_END	n/a	n/a	n/a	-999	9	[0, 0, 0]	n/a	FR1	0	R1338T
1076.886	1.029	1078561	ENCODING_START	n/a	n/a	n/a	-999	9	[0, 0, 0]	n/a	FR1	0	R1338T
1077.915	1.605	1079590	WORD	n/a	wordpools/wordpool_EN.txt	ELF	1	9	[0, 0, 0]	n/a	FR1	0	R1338T
1079.52	0.942	1081195	WORD_OFF	n/a	n/a	ELF	1	9	[0, 0, 0]	n/a	FR1	0	R1338T
1080.462	1.625	1082137	WORD	n/a	wordpools/wordpool_EN.txt	HILL	2	9	[0, 0, 0]	n/a	FR1	0	R1338T
1082.087	0.92	1083762	WORD_OFF	n/a	n/a	HILL	2	9	[0, 0, 0]	n/a	FR1	0	R1338T
1083.007	1.63	1084682	WORD	n/a	wordpools/wordpool_EN.txt	MILK	3	9	[0, 0, 0]	n/a	FR1	0	R1338T
1084.637	1.091	1086312	WORD_OFF	n/a	n/a	MILK	3	9	[0, 0, 0]	n/a	FR1	0	R1338T
1085.728	1.626	1087403	WORD	n/a	wordpools/wordpool_EN.txt	SWAMP	4	9	[0, 0, 0]	n/a	FR1	0	R1338T
1087.354	1.067	1089029	WORD_OFF	n/a	n/a	SWAMP	4	9	[0, 0, 0]	n/a	FR1	0	R1338T
1088.421	1.633	1090096	WORD	n/a	wordpools/wordpool_EN.txt	STEAK	5	9	[0, 0, 0]	n/a	FR1	0	R1338T
1090.054	0.932	1091729	WORD_OFF	n/a	n/a	STEAK	5	9	[0, 0, 0]	n/a	FR1	0	R1338T
1090.986	1.636	1092661	WORD	n/a	wordpools/wordpool_EN.txt	TRASH	6	9	[0, 0, 0]	n/a	FR1	0	R1338T
1092.622	0.987	1094297	WORD_OFF	n/a	n/a	TRASH	6	9	[0, 0, 0]	n/a	FR1	0	R1338T
1093.609	1.63	1095284	WORD	n/a	wordpools/wordpool_EN.txt	ZOO	7	9	[0, 0, 0]	n/a	FR1	0	R1338T
1095.239	0.837	1096913	WORD_OFF	n/a	n/a	ZOO	7	9	[0, 0, 0]	n/a	FR1	0	R1338T
1096.076	1.63	1097750	WORD	n/a	wordpools/wordpool_EN.txt	SNOW	8	9	[0, 0, 0]	n/a	FR1	0	R1338T
1097.706	0.819	1099380	WORD_OFF	n/a	n/a	SNOW	8	9	[0, 0, 0]	n/a	FR1	0	R1338T
1098.525	1.631	1100199	WORD	n/a	wordpools/wordpool_EN.txt	BLOOM	9	9	[0, 0, 0]	n/a	FR1	0	R1338T
1100.156	0.767	1101830	WORD_OFF	n/a	n/a	BLOOM	9	9	[0, 0, 0]	n/a	FR1	0	R1338T
1100.923	1.634	1102597	WORD	n/a	wordpools/wordpool_EN.txt	INK	10	9	[0, 0, 0]	n/a	FR1	0	R1338T
1102.557	1.08	1104231	WORD_OFF	n/a	n/a	INK	10	9	[0, 0, 0]	n/a	FR1	0	R1338T
1103.637	1.637	1105311	WORD	n/a	wordpools/wordpool_EN.txt	GOAT	11	9	[0, 0, 0]	n/a	FR1	0	R1338T
1105.274	1.126	1106948	WORD_OFF	n/a	n/a	GOAT	11	9	[0, 0, 0]	n/a	FR1	0	R1338T
1106.4	1.625	1108074	WORD	n/a	wordpools/wordpool_EN.txt	SKY	12	9	[0, 0, 0]	n/a	FR1	0	R1338T
1108.025	0.0	1109699	WORD_OFF	n/a	n/a	SKY	12	9	[0, 0, 0]	n/a	FR1	0	R1338T
1108.025	0.0	1109699	ENCODING_END	n/a	n/a	n/a	-999	9	[0, 0, 0]	n/a	FR1	0	R1338T
1108.025	0.0	1109699	DISTRACT_START	n/a	n/a	n/a	-999	9	[0, 0, 0]	n/a	FR1	0	R1338T
1108.025	0.016	1109699	START	n/a	n/a	n/a	-999	9	[-999, -999, -999]	n/a	FR1	0	R1338T
1108.041	14.686	1109715	PROB	14.686	n/a	n/a	-999	9	[2, 3, 5]	235	FR1	0	R1338T
1122.727	7.781	1124400	PROB	7.781	n/a	n/a	-999	9	[8, 2, 4]	824	FR1	0	R1338T
1130.508	0.022	1132181	STOP	n/a	n/a	n/a	-999	9	[-999, -999, -999]	n/a	FR1	0	R1338T
1130.53	0.608	1132203	DISTRACT_END	n/a	n/a	n/a	-999	9	[0, 0, 0]	n/a	FR1	0	R1338T
1131.138	1.541	1132811	RETRIEVAL_ORIENT_START	n/a	n/a	n/a	-999	9	[0, 0, 0]	n/a	FR1	0	R1338T
1132.679	0.0	1134352	RETRIEVAL_ORIENT_END	n/a	n/a	n/a	-999	9	[0, 0, 0]	n/a	FR1	0	R1338T
1132.679	0.265	1134352	REC_START	n/a	n/a	n/a	-999	9	[0, 0, 0]	n/a	FR1	0	R1338T
1132.944	1.615	1134617	REC_WORD	1.615	n/a	SKY	12	9	[0, 0, 0]	n/a	FR1	0	R1338T
1134.559	2.075	1136232	REC_WORD	2.075	n/a	GOAT	11	9	[0, 0, 0]	n/a	FR1	0	R1338T
1136.634	26.057	1138307	REC_WORD	26.057	n/a	ZOO	7	9	[0, 0, 0]	n/a	FR1	0	R1338T
1162.691	0.0	1164362	REC_END	n/a	n/a	n/a	-999	9	[0, 0, 0]	n/a	FR1	0	R1338T
1162.691	0.014	1164362	TRIAL_END	n/a	n/a	n/a	-999	9	[0, 0, 0]	n/a	FR1	0	R1338T
1162.705	0.001	1164376	TRIAL_START	n/a	n/a	n/a	-999	10	[0, 0, 0]	n/a	FR1	0	R1338T
1162.706	0.0	1164377	TRIAL	n/a	n/a	n/a	-999	10	[0, 0, 0]	n/a	FR1	0	R1338T
1162.706	5.646	1164377	WAITING_START	n/a	n/a	n/a	-999	10	[0, 0, 0]	n/a	FR1	0	R1338T
1168.352	0.001	1170023	WAITING_END	n/a	n/a	n/a	-999	10	[0, 0, 0]	n/a	FR1	0	R1338T
1168.353	10.428	1170024	COUNTDOWN_START	n/a	n/a	n/a	-999	10	[0, 0, 0]	n/a	FR1	0	R1338T
1178.781	0.0	1180452	COUNTDOWN_END	n/a	n/a	n/a	-999	10	[0, 0, 0]	n/a	FR1	0	R1338T
1178.781	1.19	1180452	ORIENT_START	n/a	n/a	n/a	-999	10	[0, 0, 0]	n/a	FR1	0	R1338T
1179.971	0.0	1181642	ORIENT_END	n/a	n/a	n/a	-999	10	[0, 0, 0]	n/a	FR1	0	R1338T
1179.971	0.884	1181642	ENCODING_START	n/a	n/a	n/a	-999	10	[0, 0, 0]	n/a	FR1	0	R1338T
1180.855	1.634	1182526	WORD	n/a	wordpools/wordpool_EN.txt	FROG	1	10	[0, 0, 0]	n/a	FR1	0	R1338T
1182.489	1.137	1184160	WORD_OFF	n/a	n/a	FROG	1	10	[0, 0, 0]	n/a	FR1	0	R1338T
1183.626	1.629	1185297	WORD	n/a	wordpools/wordpool_EN.txt	OAK	2	10	[0, 0, 0]	n/a	FR1	0	R1338T
1185.255	0.797	1186925	WORD_OFF	n/a	n/a	OAK	2	10	[0, 0, 0]	n/a	FR1	0	R1338T
1186.052	1.637	1187722	WORD	n/a	wordpools/wordpool_EN.txt	LAND	3	10	[0, 0, 0]	n/a	FR1	0	R1338T
1187.689	0.805	1189359	WORD_OFF	n/a	n/a	LAND	3	10	[0, 0, 0]	n/a	FR1	0	R1338T
1188.494	1.629	1190164	WORD	n/a	wordpools/wordpool_EN.txt	SPOON	4	10	[0, 0, 0]	n/a	FR1	0	R1338T
1190.123	0.961	1191793	WORD_OFF	n/a	n/a	SPOON	4	10	[0, 0, 0]	n/a	FR1	0	R1338T
1191.084	1.623	1192754	WORD	n/a	wordpools/wordpool_EN.txt	PURSE	5	10	[0, 0, 0]	n/a	FR1	0	R1338T
1192.707	1.061	1194377	WORD_OFF	n/a	n/a	PURSE	5	10	[0, 0, 0]	n/a	FR1	0	R1338T
1193.768	1.622	1195438	WORD	n/a	wordpools/wordpool_EN.txt	ARK	6	10	[0, 0, 0]	n/a	FR1	0	R1338T
1195.39	0.879	1197060	WORD_OFF	n/a	n/a	ARK	6	10	[0, 0, 0]	n/a	FR1	0	R1338T
1196.269	1.622	1197939	WORD	n/a	wordpools/wordpool_EN.txt	STORM	7	10	[0, 0, 0]	n/a	FR1	0	R1338T
1197.891	0.99	1199561	WORD_OFF	n/a	n/a	STORM	7	10	[0, 0, 0]	n/a	FR1	0	R1338T
1198.881	1.628	1200551	WORD	n/a	wordpools/wordpool_EN.txt	FLUTE	8	10	[0, 0, 0]	n/a	FR1	0	R1338T
1200.509	0.938	1202179	WORD_OFF	n/a	n/a	FLUTE	8	10	[0, 0, 0]	n/a	FR1	0	R1338T
1201.447	1.628	1203117	WORD	n/a	wordpools/wordpool_EN.txt	LAWN	9	10	[0, 0, 0]	n/a	FR1	0	R1338T
1203.075	1.063	1204745	WORD_OFF	n/a	n/a	LAWN	9	10	[0, 0, 0]	n/a	FR1	0	R1338T
1204.138	1.637	1205808	WORD	n/a	wordpools/wordpool_EN.txt	STONE	10	10	[0, 0, 0]	n/a	FR1	0	R1338T
1205.775	1.028	1207445	WORD_OFF	n/a	n/a	STONE	10	10	[0, 0, 0]	n/a	FR1	0	R1338T
1206.803	1.623	1208472	WORD	n/a	wordpools/wordpool_EN.txt	BOY	11	10	[0, 0, 0]	n/a	FR1	0	R1338T
1208.426	1.113	1210095	WORD_OFF	n/a	n/a	BOY	11	10	[0, 0, 0]	n/a	FR1	0	R1338T
1209.539	1.638	1211208	WORD	n/a	wordpools/wordpool_EN.txt	ROOM	12	10	[0, 0, 0]	n/a	FR1	0	R1338T
1211.177	0.0	1212846	WORD_OFF	n/a	n/a	ROOM	12	10	[0, 0, 0]	n/a	FR1	0	R1338T
1211.177	0.0	1212846	ENCODING_END	n/a	n/a	n/a	-999	10	[0, 0, 0]	n/a	FR1	0	R1338T
1211.177	0.001	1212846	DISTRACT_START	n/a	n/a	n/a	-999	10	[0, 0, 0]	n/a	FR1	0	R1338T
1211.178	0.015	1212847	START	n/a	n/a	n/a	-999	10	[-999, -999, -999]	n/a	FR1	0	R1338T
1211.193	26.304	1212862	PROB	26.304	n/a	n/a	-999	10	[4, 2, 5]	425	FR1	0	R1338T
1237.497	0.019	1239165	STOP	n/a	n/a	n/a	-999	10	[-999, -999, -999]	n/a	FR1	0	R1338T
1237.516	0.648	1239184	DISTRACT_END	n/a	n/a	n/a	-999	10	[0, 0, 0]	n/a	FR1	0	R1338T
1238.164	1.601	1239832	RETRIEVAL_ORIENT_START	n/a	n/a	n/a	-999	10	[0, 0, 0]	n/a	FR1	0	R1338T
1239.765	0.0	1241433	RETRIEVAL_ORIENT_END	n/a	n/a	n/a	-999	10	[0, 0, 0]	n/a	FR1	0	R1338T
1239.765	0.358	1241433	REC_START	n/a	n/a	n/a	-999	10	[0, 0, 0]	n/a	FR1	0	R1338T
1240.123	1.145	1241791	REC_WORD	1.145	n/a	ROOM	12	10	[0, 0, 0]	n/a	FR1	0	R1338T
1241.268	1.0	1242936	REC_WORD	1.0	n/a	STONE	10	10	[0, 0, 0]	n/a	FR1	0	R1338T
1242.268	2.683	1243936	REC_WORD_VV	2.683	n/a	<>	-999	10	[0, 0, 0]	n/a	FR1	0	R1338T
1244.951	2.463	1246619	REC_WORD	2.463	n/a	LAWN	9	10	[0, 0, 0]	n/a	FR1	0	R1338T
1247.414	1.694	1249082	REC_WORD	1.694	n/a	OAK	2	10	[0, 0, 0]	n/a	FR1	0	R1338T
1249.108	20.67	1250776	REC_WORD	20.67	n/a	FLUTE	8	10	[0, 0, 0]	n/a	FR1	0	R1338T
1269.778	0.0	1271445	REC_END	n/a	n/a	n/a	-999	10	[0, 0, 0]	n/a	FR1	0	R1338T
1269.778	0.016	1271445	TRIAL_END	n/a	n/a	n/a	-999	10	[0, 0, 0]	n/a	FR1	0	R1338T
1269.794	0.0	1271461	TRIAL_START	n/a	n/a	n/a	-999	11	[0, 0, 0]	n/a	FR1	0	R1338T
1269.794	0.001	1271461	TRIAL	n/a	n/a	n/a	-999	11	[0, 0, 0]	n/a	FR1	0	R1338T
1269.795	3.36	1271462	WAITING_START	n/a	n/a	n/a	-999	11	[0, 0, 0]	n/a	FR1	0	R1338T
1273.155	0.0	1274822	WAITING_END	n/a	n/a	n/a	-999	11	[0, 0, 0]	n/a	FR1	0	R1338T
1273.155	10.428	1274822	COUNTDOWN_START	n/a	n/a	n/a	-999	11	[0, 0, 0]	n/a	FR1	0	R1338T
1283.583	0.001	1285249	COUNTDOWN_END	n/a	n/a	n/a	-999	11	[0, 0, 0]	n/a	FR1	0	R1338T
1283.584	1.239	1285250	ORIENT_START	n/a	n/a	n/a	-999	11	[0, 0, 0]	n/a	FR1	0	R1338T
1284.823	0.001	1286489	ORIENT_END	n/a	n/a	n/a	-999	11	[0, 0, 0]	n/a	FR1	0	R1338T
1284.824	0.822	1286490	ENCODING_START	n/a	n/a	n/a	-999	11	[0, 0, 0]	n/a	FR1	0	R1338T
1285.646	1.628	1287312	WORD	n/a	wordpools/wordpool_EN.txt	FRUIT	1	11	[0, 0, 0]	n/a	FR1	0	R1338T
1287.274	0.811	1288940	WORD_OFF	n/a	n/a	FRUIT	1	11	[0, 0, 0]	n/a	FR1	0	R1338T
1288.085	1.623	1289751	WORD	n/a	wordpools/wordpool_EN.txt	SLUSH	2	11	[0, 0, 0]	n/a	FR1	0	R1338T
1289.708	0.85	1291374	WORD_OFF	n/a	n/a	SLUSH	2	11	[0, 0, 0]	n/a	FR1	0	R1338T
1290.558	1.633	1292224	WORD	n/a	wordpools/wordpool_EN.txt	SEAL	3	11	[0, 0, 0]	n/a	FR1	0	R1338T
1292.191	1.024	1293857	WORD_OFF	n/a	n/a	SEAL	3	11	[0, 0, 0]	n/a	FR1	0	R1338T
1293.215	1.627	1294881	WORD	n/a	wordpools/wordpool_EN.txt	ANT	4	11	[0, 0, 0]	n/a	FR1	0	R1338T
1294.842	1.137	1296508	WORD_OFF	n/a	n/a	ANT	4	11	[0, 0, 0]	n/a	FR1	0	R1338T
1295.979	1.63	1297644	WORD	n/a	wordpools/wordpool_EN.txt	CAVE	5	11	[0, 0, 0]	n/a	FR1	0	R1338T
1297.609	1.081	1299274	WORD_OFF	n/a	n/a	CAVE	5	11	[0, 0, 0]	n/a	FR1	0	R1338T
1298.69	1.636	1300355	WORD	n/a	wordpools/wordpool_EN.txt	PLATE	6	11	[0, 0, 0]	n/a	FR1	0	R1338T
1300.326	1.116	1301991	WORD_OFF	n/a	n/a	PLATE	6	11	[0, 0, 0]	n/a	FR1	0	R1338T
1301.442	1.635	1303107	WORD	n/a	wordpools/wordpool_EN.txt	KITE	7	11	[0, 0, 0]	n/a	FR1	0	R1338T
1303.077	0.795	1304742	WORD_OFF	n/a	n/a	KITE	7	11	[0, 0, 0]	n/a	FR1	0	R1338T
1303.872	1.606	1305537	WORD	n/a	wordpools/wordpool_EN.txt	ARM	8	11	[0, 0, 0]	n/a	FR1	0	R1338T
1305.478	0.828	1307143	WORD_OFF	n/a	n/a	ARM	8	11	[0, 0, 0]	n/a	FR1	0	R1338T
1306.306	1.621	1307971	WORD	n/a	wordpools/wordpool_EN.txt	CONE	9	11	[0, 0, 0]	n/a	FR1	0	R1338T
1307.927	0.825	1309592	WORD_OFF	n/a	n/a	CONE	9	11	[0, 0, 0]	n/a	FR1	0	R1338T
1308.752	1.626	1310417	WORD	n/a	wordpools/wordpool_EN.txt	WING	10	11	[0, 0, 0]	n/a	FR1	0	R1338T
1310.378	0.825	1312043	WORD_OFF	n/a	n/a	WING	10	11	[0, 0, 0]	n/a	FR1	0	R1338T
1311.203	1.625	1312868	WORD	n/a	wordpools/wordpool_EN.txt	THUMB	11	11	[0, 0, 0]	n/a	FR1	0	R1338T
1312.828	0.938	1314493	WORD_OFF	n/a	n/a	THUMB	11	11	[0, 0, 0]	n/a	FR1	0	R1338T
1313.766	1.629	1315431	WORD	n/a	wordpools/wordpool_EN.txt	SINK	12	11	[0, 0, 0]	n/a	FR1	0	R1338T
1315.395	0.001	1317060	WORD_OFF	n/a	n/a	SINK	12	11	[0, 0, 0]	n/a	FR1	0	R1338T
1315.396	0.0	1317061	ENCODING_END	n/a	n/a	n/a	-999	11	[0, 0, 0]	n/a	FR1	0	R1338T
1315.396	0.0	1317061	DISTRACT_START	n/a	n/a	n/a	-999	11	[0, 0, 0]	n/a	FR1	0	R1338T
1315.396	0.016	1317061	START	n/a	n/a	n/a	-999	11	[-999, -999, -999]	n/a	FR1	0	R1338T
1315.412	16.186	1317077	PROB	16.186	n/a	n/a	-999	11	[8, 4, 7]	847	FR1	0	R1338T
1331.598	18.861	1333262	PROB	18.861	n/a	n/a	-999	11	[5, 2, 8]	528	FR1	0	R1338T
1350.459	0.01	1352122	STOP	n/a	n/a	n/a	-999	11	[-999, -999, -999]	n/a	FR1	0	R1338T
1350.469	0.666	1352132	DISTRACT_END	n/a	n/a	n/a	-999	11	[0, 0, 0]	n/a	FR1	0	R1338T
1351.135	1.601	1352798	RETRIEVAL_ORIENT_START	n/a	n/a	n/a	-999	11	[0, 0, 0]	n/a	FR1	0	R1338T
1352.736	0.0	1354399	RETRIEVAL_ORIENT_END	n/a	n/a	n/a	-999	11	[0, 0, 0]	n/a	FR1	0	R1338T
1352.736	11.163	1354399	REC_START	n/a	n/a	n/a	-999	11	[0, 0, 0]	n/a	FR1	0	R1338T
1363.899	18.849	1365561	REC_WORD_VV	18.849	n/a	<>	-999	11	[0, 0, 0]	n/a	FR1	0	R1338T
1382.748	0.0	1384410	REC_END	n/a	n/a	n/a	-999	11	[0, 0, 0]	n/a	FR1	0	R1338T
1382.748	0.016	1384410	TRIAL_END	n/a	n/a	n/a	-999	11	[0, 0, 0]	n/a	FR1	0	R1338T
1382.764	0.001	1384426	TRIAL_START	n/a	n/a	n/a	-999	12	[0, 0, 0]	n/a	FR1	0	R1338T
1382.765	0.0	1384427	TRIAL	n/a	n/a	n/a	-999	12	[0, 0, 0]	n/a	FR1	0	R1338T
1382.765	3.477	1384427	WAITING_START	n/a	n/a	n/a	-999	12	[0, 0, 0]	n/a	FR1	0	R1338T
1386.242	0.0	1387903	COUNTDOWN_START	n/a	n/a	n/a	-999	12	[0, 0, 0]	n/a	FR1	0	R1338T
1386.242	10.429	1387903	WAITING_END	n/a	n/a	n/a	-999	12	[0, 0, 0]	n/a	FR1	0	R1338T
1396.671	0.0	1398332	COUNTDOWN_END	n/a	n/a	n/a	-999	12	[0, 0, 0]	n/a	FR1	0	R1338T
1396.671	1.206	1398332	ORIENT_START	n/a	n/a	n/a	-999	12	[0, 0, 0]	n/a	FR1	0	R1338T
1397.877	0.001	1399538	ORIENT_END	n/a	n/a	n/a	-999	12	[0, 0, 0]	n/a	FR1	0	R1338T
1397.878	0.999	1399539	ENCODING_START	n/a	n/a	n/a	-999	12	[0, 0, 0]	n/a	FR1	0	R1338T
1398.877	1.635	1400538	WORD	n/a	wordpools/wordpool_EN.txt	STORE	1	12	[0, 0, 0]	n/a	FR1	0	R1338T
1400.512	0.853	1402173	WORD_OFF	n/a	n/a	STORE	1	12	[0, 0, 0]	n/a	FR1	0	R1338T
1401.365	1.63	1403026	WORD	n/a	wordpools/wordpool_EN.txt	HOOK	2	12	[0, 0, 0]	n/a	FR1	0	R1338T
1402.995	1.073	1404656	WORD_OFF	n/a	n/a	HOOK	2	12	[0, 0, 0]	n/a	FR1	0	R1338T
1404.068	1.627	1405729	WORD	n/a	wordpools/wordpool_EN.txt	BEAR	3	12	[0, 0, 0]	n/a	FR1	0	R1338T
1405.695	1.126	1407356	WORD_OFF	n/a	n/a	BEAR	3	12	[0, 0, 0]	n/a	FR1	0	R1338T
1406.821	1.625	1408482	WORD	n/a	wordpools/wordpool_EN.txt	SOAP	4	12	[0, 0, 0]	n/a	FR1	0	R1338T
1408.446	0.944	1410106	WORD_OFF	n/a	n/a	SOAP	4	12	[0, 0, 0]	n/a	FR1	0	R1338T
1409.39	1.623	1411050	WORD	n/a	wordpools/wordpool_EN.txt	DIME	5	12	[0, 0, 0]	n/a	FR1	0	R1338T
1411.013	1.121	1412673	WORD_OFF	n/a	n/a	DIME	5	12	[0, 0, 0]	n/a	FR1	0	R1338T
1412.134	1.629	1413794	WORD	n/a	wordpools/wordpool_EN.txt	CHAIR	6	12	[0, 0, 0]	n/a	FR1	0	R1338T
1413.763	1.14	1415423	WORD_OFF	n/a	n/a	CHAIR	6	12	[0, 0, 0]	n/a	FR1	0	R1338T
1414.903	1.629	1416563	WORD	n/a	wordpools/wordpool_EN.txt	BEAN	7	12	[0, 0, 0]	n/a	FR1	0	R1338T
1416.532	1.04	1418192	WORD_OFF	n/a	n/a	BEAN	7	12	[0, 0, 0]	n/a	FR1	0	R1338T
1417.572	1.626	1419232	WORD	n/a	wordpools/wordpool_EN.txt	CLOWN	8	12	[0, 0, 0]	n/a	FR1	0	R1338T
1419.198	1.077	1420858	WORD_OFF	n/a	n/a	CLOWN	8	12	[0, 0, 0]	n/a	FR1	0	R1338T
1420.275	1.623	1421935	WORD	n/a	wordpools/wordpool_EN.txt	BROOM	9	12	[0, 0, 0]	n/a	FR1	0	R1338T
1421.898	1.114	1423558	WORD_OFF	n/a	n/a	BROOM	9	12	[0, 0, 0]	n/a	FR1	0	R1338T
1423.012	1.637	1424672	WORD	n/a	wordpools/wordpool_EN.txt	SNAIL	10	12	[0, 0, 0]	n/a	FR1	0	R1338T
1424.649	0.861	1426309	WORD_OFF	n/a	n/a	SNAIL	10	12	[0, 0, 0]	n/a	FR1	0	R1338T
1425.51	1.622	1427170	WORD	n/a	wordpools/wordpool_EN.txt	NOSE	11	12	[0, 0, 0]	n/a	FR1	0	R1338T
1427.132	1.0	1428792	WORD_OFF	n/a	n/a	NOSE	11	12	[0, 0, 0]	n/a	FR1	0	R1338T
1428.132	1.634	1429792	WORD	n/a	wordpools/wordpool_EN.txt	MULE	12	12	[0, 0, 0]	n/a	FR1	0	R1338T
1429.766	0.001	1431425	WORD_OFF	n/a	n/a	MULE	12	12	[0, 0, 0]	n/a	FR1	0	R1338T
1429.767	0.001	1431426	ENCODING_END	n/a	n/a	n/a	-999	12	[0, 0, 0]	n/a	FR1	0	R1338T
1429.768	0.0	1431427	DISTRACT_START	n/a	n/a	n/a	-999	12	[0, 0, 0]	n/a	FR1	0	R1338T
1429.768	0.015	1431427	START	n/a	n/a	n/a	-999	12	[-999, -999, -999]	n/a	FR1	0	R1338T
1429.783	9.702	1431442	PROB	9.702	n/a	n/a	-999	12	[2, 2, 5]	225	FR1	0	R1338T
1439.485	10.861	1441144	PROB	10.861	n/a	n/a	-999	12	[8, 6, 2]	862	FR1	0	R1338T
1450.346	0.007	1452005	STOP	n/a	n/a	n/a	-999	12	[-999, -999, -999]	n/a	FR1	0	R1338T
1450.353	0.507	1452012	DISTRACT_END	n/a	n/a	n/a	-999	12	[0, 0, 0]	n/a	FR1	0	R1338T
1450.86	1.661	1452519	RETRIEVAL_ORIENT_START	n/a	n/a	n/a	-999	12	[0, 0, 0]	n/a	FR1	0	R1338T
1452.521	0.001	1454179	RETRIEVAL_ORIENT_END	n/a	n/a	n/a	-999	12	[0, 0, 0]	n/a	FR1	0	R1338T
1452.522	0.0	1454180	REC_START	n/a	n/a	n/a	-999	12	[0, 0, 0]	n/a	FR1	0	R1338T
1452.522	2.121	1454180	REC_WORD	2.121	n/a	STORE	1	12	[0, 0, 0]	n/a	FR1	0	R1338T
1454.643	2.359	1456301	REC_WORD	2.359	n/a	NAIL	-999	12	[0, 0, 0]	n/a	FR1	0	R1338T
1457.002	1.725	1458660	REC_WORD	1.725	n/a	MULE	12	12	[0, 0, 0]	n/a	FR1	0	R1338T
1458.727	23.806	1460385	REC_WORD	23.806	n/a	STOOL	-999	12	[0, 0, 0]	n/a	FR1	0	R1338T
1482.533	0.001	1484190	REC_END	n/a	n/a	n/a	-999	12	[0, 0, 0]	n/a	FR1	0	R1338T
1482.534	0.013	1484191	TRIAL_END	n/a	n/a	n/a	-999	12	[0, 0, 0]	n/a	FR1	0	R1338T
1482.547	0.001	1484204	TRIAL_START	n/a	n/a	n/a	-999	13	[0, 0, 0]	n/a	FR1	0	R1338T
1482.548	0.0	1484205	TRIAL	n/a	n/a	n/a	-999	13	[0, 0, 0]	n/a	FR1	0	R1338T
1482.548	9.996	1484205	WAITING_START	n/a	n/a	n/a	-999	13	[0, 0, 0]	n/a	FR1	0	R1338T
1492.544	0.001	1494201	WAITING_END	n/a	n/a	n/a	-999	13	[0, 0, 0]	n/a	FR1	0	R1338T
1492.545	10.428	1494202	COUNTDOWN_START	n/a	n/a	n/a	-999	13	[0, 0, 0]	n/a	FR1	0	R1338T
1502.973	0.0	1504629	COUNTDOWN_END	n/a	n/a	n/a	-999	13	[0, 0, 0]	n/a	FR1	0	R1338T
1502.973	1.123	1504629	ORIENT_START	n/a	n/a	n/a	-999	13	[0, 0, 0]	n/a	FR1	0	R1338T
1504.096	0.001	1505752	ORIENT_END	n/a	n/a	n/a	-999	13	[0, 0, 0]	n/a	FR1	0	R1338T
1504.097	1.079	1505753	ENCODING_START	n/a	n/a	n/a	-999	13	[0, 0, 0]	n/a	FR1	0	R1338T
1505.176	1.638	1506832	WORD	n/a	wordpools/wordpool_EN.txt	ROOF	1	13	[0, 0, 0]	n/a	FR1	0	R1338T
1506.814	0.751	1508470	WORD_OFF	n/a	n/a	ROOF	1	13	[0, 0, 0]	n/a	FR1	0	R1338T
1507.565	1.632	1509221	WORD	n/a	wordpools/wordpool_EN.txt	CLOTH	2	13	[0, 0, 0]	n/a	FR1	0	R1338T
1509.197	1.084	1510853	WORD_OFF	n/a	n/a	CLOTH	2	13	[0, 0, 0]	n/a	FR1	0	R1338T
1510.281	1.633	1511937	WORD	n/a	wordpools/wordpool_EN.txt	STAR	3	13	[0, 0, 0]	n/a	FR1	0	R1338T
1511.914	0.916	1513570	WORD_OFF	n/a	n/a	STAR	3	13	[0, 0, 0]	n/a	FR1	0	R1338T
1512.83	1.635	1514486	WORD	n/a	wordpools/wordpool_EN.txt	GLASS	4	13	[0, 0, 0]	n/a	FR1	0	R1338T
1514.465	0.787	1516121	WORD_OFF	n/a	n/a	GLASS	4	13	[0, 0, 0]	n/a	FR1	0	R1338T
1515.252	1.63	1516908	WORD	n/a	wordpools/wordpool_EN.txt	VASE	5	13	[0, 0, 0]	n/a	FR1	0	R1338T
1516.882	0.957	1518538	WORD_OFF	n/a	n/a	VASE	5	13	[0, 0, 0]	n/a	FR1	0	R1338T
1517.839	1.627	1519495	WORD	n/a	wordpools/wordpool_EN.txt	JEEP	6	13	[0, 0, 0]	n/a	FR1	0	R1338T
1519.466	0.859	1521121	WORD_OFF	n/a	n/a	JEEP	6	13	[0, 0, 0]	n/a	FR1	0	R1338T
1520.325	1.625	1521980	WORD	n/a	wordpools/wordpool_EN.txt	HORSE	7	13	[0, 0, 0]	n/a	FR1	0	R1338T
1521.95	1.092	1523605	WORD_OFF	n/a	n/a	HORSE	7	13	[0, 0, 0]	n/a	FR1	0	R1338T
1523.042	1.625	1524697	WORD	n/a	wordpools/wordpool_EN.txt	WAND	8	13	[0, 0, 0]	n/a	FR1	0	R1338T
1524.667	0.836	1526322	WORD_OFF	n/a	n/a	WAND	8	13	[0, 0, 0]	n/a	FR1	0	R1338T
1525.503	1.631	1527158	WORD	n/a	wordpools/wordpool_EN.txt	SOCK	9	13	[0, 0, 0]	n/a	FR1	0	R1338T
1527.134	0.852	1528789	WORD_OFF	n/a	n/a	SOCK	9	13	[0, 0, 0]	n/a	FR1	0	R1338T
1527.986	1.632	1529641	WORD	n/a	wordpools/wordpool_EN.txt	WHEEL	10	13	[0, 0, 0]	n/a	FR1	0	R1338T
1529.618	0.777	1531273	WORD_OFF	n/a	n/a	WHEEL	10	13	[0, 0, 0]	n/a	FR1	0	R1338T
1530.395	1.623	1532050	WORD	n/a	wordpools/wordpool_EN.txt	CLOCK	11	13	[0, 0, 0]	n/a	FR1	0	R1338T
1532.018	0.793	1533673	WORD_OFF	n/a	n/a	CLOCK	11	13	[0, 0, 0]	n/a	FR1	0	R1338T
1532.811	1.624	1534466	WORD	n/a	wordpools/wordpool_EN.txt	BREAD	12	13	[0, 0, 0]	n/a	FR1	0	R1338T
1534.435	0.001	1536090	WORD_OFF	n/a	n/a	BREAD	12	13	[0, 0, 0]	n/a	FR1	0	R1338T
1534.436	0.0	1536091	ENCODING_END	n/a	n/a	n/a	-999	13	[0, 0, 0]	n/a	FR1	0	R1338T
1534.436	0.0	1536091	DISTRACT_START	n/a	n/a	n/a	-999	13	[0, 0, 0]	n/a	FR1	0	R1338T
1534.436	0.016	1536091	START	n/a	n/a	n/a	-999	13	[-999, -999, -999]	n/a	FR1	0	R1338T
1534.452	20.728	1536107	PROB	20.728	n/a	n/a	-999	13	[8, 9, 2]	892	FR1	0	R1338T
1555.18	0.009	1556834	STOP	n/a	n/a	n/a	-999	13	[-999, -999, -999]	n/a	FR1	0	R1338T
1555.189	0.571	1556843	DISTRACT_END	n/a	n/a	n/a	-999	13	[0, 0, 0]	n/a	FR1	0	R1338T
1555.76	1.679	1557414	RETRIEVAL_ORIENT_START	n/a	n/a	n/a	-999	13	[0, 0, 0]	n/a	FR1	0	R1338T
1557.439	0.001	1559093	RETRIEVAL_ORIENT_END	n/a	n/a	n/a	-999	13	[0, 0, 0]	n/a	FR1	0	R1338T
1557.44	23.827	1559094	REC_START	n/a	n/a	n/a	-999	13	[0, 0, 0]	n/a	FR1	0	R1338T
1581.267	6.184	1582920	REC_WORD_VV	6.184	n/a	<>	-999	13	[0, 0, 0]	n/a	FR1	0	R1338T
1587.451	0.0	1589103	REC_END	n/a	n/a	n/a	-999	13	[0, 0, 0]	n/a	FR1	0	R1338T
1587.451	0.017	1589103	TRIAL_END	n/a	n/a	n/a	-999	13	[0, 0, 0]	n/a	FR1	0	R1338T
1587.468	0.001	1589120	TRIAL_START	n/a	n/a	n/a	-999	14	[0, 0, 0]	n/a	FR1	0	R1338T
1587.469	0.0	1589121	TRIAL	n/a	n/a	n/a	-999	14	[0, 0, 0]	n/a	FR1	0	R1338T
1587.469	4.11	1589121	WAITING_START	n/a	n/a	n/a	-999	14	[0, 0, 0]	n/a	FR1	0	R1338T
1591.579	0.0	1593231	WAITING_END	n/a	n/a	n/a	-999	14	[0, 0, 0]	n/a	FR1	0	R1338T
1591.579	10.428	1593231	COUNTDOWN_START	n/a	n/a	n/a	-999	14	[0, 0, 0]	n/a	FR1	0	R1338T
1602.007	0.001	1603659	COUNTDOWN_END	n/a	n/a	n/a	-999	14	[0, 0, 0]	n/a	FR1	0	R1338T
1602.008	1.14	1603660	ORIENT_START	n/a	n/a	n/a	-999	14	[0, 0, 0]	n/a	FR1	0	R1338T
1603.148	0.0	1604800	ORIENT_END	n/a	n/a	n/a	-999	14	[0, 0, 0]	n/a	FR1	0	R1338T
1603.148	0.923	1604800	ENCODING_START	n/a	n/a	n/a	-999	14	[0, 0, 0]	n/a	FR1	0	R1338T
1604.071	1.627	1605723	WORD	n/a	wordpools/wordpool_EN.txt	LOCK	1	14	[0, 0, 0]	n/a	FR1	0	R1338T
1605.698	0.926	1607350	WORD_OFF	n/a	n/a	LOCK	1	14	[0, 0, 0]	n/a	FR1	0	R1338T
1606.624	1.625	1608276	WORD	n/a	wordpools/wordpool_EN.txt	BOX	2	14	[0, 0, 0]	n/a	FR1	0	R1338T
1608.249	1.045	1609901	WORD_OFF	n/a	n/a	BOX	2	14	[0, 0, 0]	n/a	FR1	0	R1338T
1609.294	1.622	1610945	WORD	n/a	wordpools/wordpool_EN.txt	BATH	3	14	[0, 0, 0]	n/a	FR1	0	R1338T
1610.916	0.968	1612567	WORD_OFF	n/a	n/a	BATH	3	14	[0, 0, 0]	n/a	FR1	0	R1338T
1611.884	1.616	1613535	WORD	n/a	wordpools/wordpool_EN.txt	HAT	4	14	[0, 0, 0]	n/a	FR1	0	R1338T
1613.5	1.081	1615151	WORD_OFF	n/a	n/a	HAT	4	14	[0, 0, 0]	n/a	FR1	0	R1338T
1614.581	1.636	1616232	WORD	n/a	wordpools/wordpool_EN.txt	VEST	5	14	[0, 0, 0]	n/a	FR1	0	R1338T
1616.217	0.999	1617868	WORD_OFF	n/a	n/a	VEST	5	14	[0, 0, 0]	n/a	FR1	0	R1338T
1617.216	1.635	1618867	WORD	n/a	wordpools/wordpool_EN.txt	BADGE	6	14	[0, 0, 0]	n/a	FR1	0	R1338T
1618.851	0.975	1620502	WORD_OFF	n/a	n/a	BADGE	6	14	[0, 0, 0]	n/a	FR1	0	R1338T
1619.826	1.625	1621477	WORD	n/a	wordpools/wordpool_EN.txt	SLIME	7	14	[0, 0, 0]	n/a	FR1	0	R1338T
1621.451	0.861	1623102	WORD_OFF	n/a	n/a	SLIME	7	14	[0, 0, 0]	n/a	FR1	0	R1338T
1622.312	1.623	1623963	WORD	n/a	wordpools/wordpool_EN.txt	YARD	8	14	[0, 0, 0]	n/a	FR1	0	R1338T
1623.935	0.791	1625586	WORD_OFF	n/a	n/a	YARD	8	14	[0, 0, 0]	n/a	FR1	0	R1338T
1624.726	1.626	1626377	WORD	n/a	wordpools/wordpool_EN.txt	FOX	9	14	[0, 0, 0]	n/a	FR1	0	R1338T
1626.352	1.1	1628003	WORD_OFF	n/a	n/a	FOX	9	14	[0, 0, 0]	n/a	FR1	0	R1338T
1627.452	1.634	1629103	WORD	n/a	wordpools/wordpool_EN.txt	SKUNK	10	14	[0, 0, 0]	n/a	FR1	0	R1338T
1629.086	1.127	1630737	WORD_OFF	n/a	n/a	SKUNK	10	14	[0, 0, 0]	n/a	FR1	0	R1338T
1630.213	1.623	1631864	WORD	n/a	wordpools/wordpool_EN.txt	TOOTH	11	14	[0, 0, 0]	n/a	FR1	0	R1338T
1631.836	0.981	1633486	WORD_OFF	n/a	n/a	TOOTH	11	14	[0, 0, 0]	n/a	FR1	0	R1338T
1632.817	1.636	1634467	WORD	n/a	wordpools/wordpool_EN.txt	SMOKE	12	14	[0, 0, 0]	n/a	FR1	0	R1338T
1634.453	0.001	1636103	WORD_OFF	n/a	n/a	SMOKE	12	14	[0, 0, 0]	n/a	FR1	0	R1338T
1634.454	0.0	1636104	ENCODING_END	n/a	n/a	n/a	-999	14	[0, 0, 0]	n/a	FR1	0	R1338T
1634.454	0.0	1636104	DISTRACT_START	n/a	n/a	n/a	-999	14	[0, 0, 0]	n/a	FR1	0	R1338T
1634.454	0.016	1636104	START	n/a	n/a	n/a	-999	14	[-999, -999, -999]	n/a	FR1	0	R1338T
1634.47	9.818	1636120	PROB	9.818	n/a	n/a	-999	14	[5, 8, 2]	582	FR1	0	R1338T
1644.288	7.868	1645938	PROB	7.868	n/a	n/a	-999	14	[8, 8, 7]	887	FR1	0	R1338T
1652.156	10.875	1653806	PROB	10.875	n/a	n/a	-999	14	[3, 1, 4]	313	FR1	0	R1338T
1663.031	0.011	1664680	STOP	n/a	n/a	n/a	-999	14	[-999, -999, -999]	n/a	FR1	0	R1338T
1663.042	0.626	1664691	DISTRACT_END	n/a	n/a	n/a	-999	14	[0, 0, 0]	n/a	FR1	0	R1338T
1663.668	1.708	1665317	RETRIEVAL_ORIENT_START	n/a	n/a	n/a	-999	14	[0, 0, 0]	n/a	FR1	0	R1338T
1665.376	0.0	1667025	RETRIEVAL_ORIENT_END	n/a	n/a	n/a	-999	14	[0, 0, 0]	n/a	FR1	0	R1338T
1665.376	26.342	1667025	REC_START	n/a	n/a	n/a	-999	14	[0, 0, 0]	n/a	FR1	0	R1338T
1691.718	3.67	1693366	REC_WORD_VV	3.67	n/a	<>	-999	14	[0, 0, 0]	n/a	FR1	0	R1338T
1695.388	0.0	1697036	TRIAL_END	n/a	n/a	n/a	-999	14	[0, 0, 0]	n/a	FR1	0	R1338T
1695.388	0.015	1697036	REC_END	n/a	n/a	n/a	-999	14	[0, 0, 0]	n/a	FR1	0	R1338T
1695.403	0.001	1697051	TRIAL_START	n/a	n/a	n/a	-999	15	[0, 0, 0]	n/a	FR1	0	R1338T
1695.404	0.0	1697052	TRIAL	n/a	n/a	n/a	-999	15	[0, 0, 0]	n/a	FR1	0	R1338T
1695.404	2.061	1697052	WAITING_START	n/a	n/a	n/a	-999	15	[0, 0, 0]	n/a	FR1	0	R1338T
1697.465	0.0	1699113	WAITING_END	n/a	n/a	n/a	-999	15	[0, 0, 0]	n/a	FR1	0	R1338T
1697.465	10.429	1699113	COUNTDOWN_START	n/a	n/a	n/a	-999	15	[0, 0, 0]	n/a	FR1	0	R1338T
1707.894	0.001	1709541	COUNTDOWN_END	n/a	n/a	n/a	-999	15	[0, 0, 0]	n/a	FR1	0	R1338T
1707.895	1.239	1709542	ORIENT_START	n/a	n/a	n/a	-999	15	[0, 0, 0]	n/a	FR1	0	R1338T
1709.134	0.0	1710781	ORIENT_END	n/a	n/a	n/a	-999	15	[0, 0, 0]	n/a	FR1	0	R1338T
1709.134	0.771	1710781	ENCODING_START	n/a	n/a	n/a	-999	15	[0, 0, 0]	n/a	FR1	0	R1338T
1709.905	1.629	1711552	WORD	n/a	wordpools/wordpool_EN.txt	SUIT	1	15	[0, 0, 0]	n/a	FR1	0	R1338T
1711.534	0.787	1713181	WORD_OFF	n/a	n/a	SUIT	1	15	[0, 0, 0]	n/a	FR1	0	R1338T
1712.321	1.63	1713968	WORD	n/a	wordpools/wordpool_EN.txt	WALL	2	15	[0, 0, 0]	n/a	FR1	0	R1338T
1713.951	0.969	1715598	WORD_OFF	n/a	n/a	WALL	2	15	[0, 0, 0]	n/a	FR1	0	R1338T
1714.92	1.615	1716567	WORD	n/a	wordpools/wordpool_EN.txt	STOOL	3	15	[0, 0, 0]	n/a	FR1	0	R1338T
1716.535	0.757	1718182	WORD_OFF	n/a	n/a	STOOL	3	15	[0, 0, 0]	n/a	FR1	0	R1338T
1717.292	1.627	1718939	WORD	n/a	wordpools/wordpool_EN.txt	SPARK	4	15	[0, 0, 0]	n/a	FR1	0	R1338T
1718.919	1.089	1720566	WORD_OFF	n/a	n/a	SPARK	4	15	[0, 0, 0]	n/a	FR1	0	R1338T
1720.008	1.628	1721655	WORD	n/a	wordpools/wordpool_EN.txt	LAMP	5	15	[0, 0, 0]	n/a	FR1	0	R1338T
1721.636	0.811	1723282	WORD_OFF	n/a	n/a	LAMP	5	15	[0, 0, 0]	n/a	FR1	0	R1338T
1722.447	1.623	1724093	WORD	n/a	wordpools/wordpool_EN.txt	PEACH	6	15	[0, 0, 0]	n/a	FR1	0	R1338T
1724.07	0.953	1725716	WORD_OFF	n/a	n/a	PEACH	6	15	[0, 0, 0]	n/a	FR1	0	R1338T
1725.023	1.631	1726669	WORD	n/a	wordpools/wordpool_EN.txt	BIRD	7	15	[0, 0, 0]	n/a	FR1	0	R1338T
1726.654	0.807	1728300	WORD_OFF	n/a	n/a	BIRD	7	15	[0, 0, 0]	n/a	FR1	0	R1338T
1727.461	1.626	1729107	WORD	n/a	wordpools/wordpool_EN.txt	MOUTH	8	15	[0, 0, 0]	n/a	FR1	0	R1338T
1729.087	0.821	1730733	WORD_OFF	n/a	n/a	MOUTH	8	15	[0, 0, 0]	n/a	FR1	0	R1338T
1729.908	1.63	1731554	WORD	n/a	wordpools/wordpool_EN.txt	HORN	9	15	[0, 0, 0]	n/a	FR1	0	R1338T
1731.538	1.051	1733184	WORD_OFF	n/a	n/a	HORN	9	15	[0, 0, 0]	n/a	FR1	0	R1338T
1732.589	1.632	1734235	WORD	n/a	wordpools/wordpool_EN.txt	BOARD	10	15	[0, 0, 0]	n/a	FR1	0	R1338T
1734.221	1.037	1735867	WORD_OFF	n/a	n/a	BOARD	10	15	[0, 0, 0]	n/a	FR1	0	R1338T
1735.258	1.631	1736904	WORD	n/a	wordpools/wordpool_EN.txt	FUR	11	15	[0, 0, 0]	n/a	FR1	0	R1338T
1736.889	1.059	1738535	WORD_OFF	n/a	n/a	FUR	11	15	[0, 0, 0]	n/a	FR1	0	R1338T
1737.948	1.625	1739594	WORD	n/a	wordpools/wordpool_EN.txt	CANE	12	15	[0, 0, 0]	n/a	FR1	0	R1338T
1739.573	0.0	1741219	ENCODING_END	n/a	n/a	n/a	-999	15	[0, 0, 0]	n/a	FR1	0	R1338T
1739.573	0.0	1741219	DISTRACT_START	n/a	n/a	n/a	-999	15	[0, 0, 0]	n/a	FR1	0	R1338T
1739.573	0.0	1741219	WORD_OFF	n/a	n/a	CANE	12	15	[0, 0, 0]	n/a	FR1	0	R1338T
1739.573	0.016	1741219	START	n/a	n/a	n/a	-999	15	[-999, -999, -999]	n/a	FR1	0	R1338T
1739.589	13.236	1741235	PROB	13.236	n/a	n/a	-999	15	[8, 6, 6]	866	FR1	0	R1338T
1752.825	11.34	1754470	PROB	11.34	n/a	n/a	-999	15	[8, 2, 2]	822	FR1	0	R1338T
1764.165	0.012	1765810	STOP	n/a	n/a	n/a	-999	15	[-999, -999, -999]	n/a	FR1	0	R1338T
1764.177	0.687	1765822	DISTRACT_END	n/a	n/a	n/a	-999	15	[0, 0, 0]	n/a	FR1	0	R1338T
1764.864	1.68	1766509	RETRIEVAL_ORIENT_START	n/a	n/a	n/a	-999	15	[0, 0, 0]	n/a	FR1	0	R1338T
1766.544	0.0	1768188	RETRIEVAL_ORIENT_END	n/a	n/a	n/a	-999	15	[0, 0, 0]	n/a	FR1	0	R1338T
1766.544	1.727	1768188	REC_START	n/a	n/a	n/a	-999	15	[0, 0, 0]	n/a	FR1	0	R1338T
1768.271	3.229	1769915	REC_WORD	3.229	n/a	BOX	-999	15	[0, 0, 0]	n/a	FR1	0	R1338T
1771.5	2.596	1773144	REC_WORD	2.596	n/a	TOOL	-999	15	[0, 0, 0]	n/a	FR1	0	R1338T
1774.096	2.468	1775740	REC_WORD	2.468	n/a	LOCK	-999	15	[0, 0, 0]	n/a	FR1	0	R1338T
1776.564	19.991	1778208	REC_WORD	19.991	n/a	FUR	11	15	[0, 0, 0]	n/a	FR1	0	R1338T
1796.555	0.0	1798198	REC_END	n/a	n/a	n/a	-999	15	[0, 0, 0]	n/a	FR1	0	R1338T
1796.555	0.015	1798198	TRIAL_END	n/a	n/a	n/a	-999	15	[0, 0, 0]	n/a	FR1	0	R1338T
1796.57	0.0	1798213	TRIAL_START	n/a	n/a	n/a	-999	16	[0, 0, 0]	n/a	FR1	0	R1338T
1796.57	0.0	1798213	TRIAL	n/a	n/a	n/a	-999	16	[0, 0, 0]	n/a	FR1	0	R1338T
1796.57	4.564	1798213	WAITING_START	n/a	n/a	n/a	-999	16	[0, 0, 0]	n/a	FR1	0	R1338T
1801.134	0.0	1802777	WAITING_END	n/a	n/a	n/a	-999	16	[0, 0, 0]	n/a	FR1	0	R1338T
1801.134	10.43	1802777	COUNTDOWN_START	n/a	n/a	n/a	-999	16	[0, 0, 0]	n/a	FR1	0	R1338T
1811.564	0.0	1813206	COUNTDOWN_END	n/a	n/a	n/a	-999	16	[0, 0, 0]	n/a	FR1	0	R1338T
1811.564	1.072	1813206	ORIENT_START	n/a	n/a	n/a	-999	16	[0, 0, 0]	n/a	FR1	0	R1338T
1812.636	0.0	1814278	ENCODING_START	n/a	n/a	n/a	-999	16	[0, 0, 0]	n/a	FR1	0	R1338T
1812.636	0.85	1814278	ORIENT_END	n/a	n/a	n/a	-999	16	[0, 0, 0]	n/a	FR1	0	R1338T
1813.486	1.633	1815128	WORD	n/a	wordpools/wordpool_EN.txt	TOY	1	16	[0, 0, 0]	n/a	FR1	0	R1338T
1815.119	1.148	1816761	WORD_OFF	n/a	n/a	TOY	1	16	[0, 0, 0]	n/a	FR1	0	R1338T
1816.267	1.636	1817909	WORD	n/a	wordpools/wordpool_EN.txt	NET	2	16	[0, 0, 0]	n/a	FR1	0	R1338T
1817.903	0.757	1819545	WORD_OFF	n/a	n/a	NET	2	16	[0, 0, 0]	n/a	FR1	0	R1338T
1818.66	1.627	1820302	WORD	n/a	wordpools/wordpool_EN.txt	MAIL	3	16	[0, 0, 0]	n/a	FR1	0	R1338T
1820.287	0.828	1821929	WORD_OFF	n/a	n/a	MAIL	3	16	[0, 0, 0]	n/a	FR1	0	R1338T
1821.115	1.622	1822757	WORD	n/a	wordpools/wordpool_EN.txt	JAIL	4	16	[0, 0, 0]	n/a	FR1	0	R1338T
1822.737	0.794	1824379	WORD_OFF	n/a	n/a	JAIL	4	16	[0, 0, 0]	n/a	FR1	0	R1338T
1823.531	1.624	1825173	WORD	n/a	wordpools/wordpool_EN.txt	PEN	5	16	[0, 0, 0]	n/a	FR1	0	R1338T
1825.155	0.802	1826797	WORD_OFF	n/a	n/a	PEN	5	16	[0, 0, 0]	n/a	FR1	0	R1338T
1825.957	1.631	1827599	WORD	n/a	wordpools/wordpool_EN.txt	PARK	6	16	[0, 0, 0]	n/a	FR1	0	R1338T
1827.588	0.791	1829230	WORD_OFF	n/a	n/a	PARK	6	16	[0, 0, 0]	n/a	FR1	0	R1338T
1828.379	1.626	1830021	WORD	n/a	wordpools/wordpool_EN.txt	DOCK	7	16	[0, 0, 0]	n/a	FR1	0	R1338T
1830.005	0.928	1831647	WORD_OFF	n/a	n/a	DOCK	7	16	[0, 0, 0]	n/a	FR1	0	R1338T
1830.933	1.623	1832575	WORD	n/a	wordpools/wordpool_EN.txt	CHALK	8	16	[0, 0, 0]	n/a	FR1	0	R1338T
1832.556	1.138	1834197	WORD_OFF	n/a	n/a	CHALK	8	16	[0, 0, 0]	n/a	FR1	0	R1338T
1833.694	1.629	1835335	WORD	n/a	wordpools/wordpool_EN.txt	SHOE	9	16	[0, 0, 0]	n/a	FR1	0	R1338T
1835.323	0.756	1836964	WORD_OFF	n/a	n/a	SHOE	9	16	[0, 0, 0]	n/a	FR1	0	R1338T
1836.079	1.628	1837720	WORD	n/a	wordpools/wordpool_EN.txt	TREE	10	16	[0, 0, 0]	n/a	FR1	0	R1338T
1837.707	0.906	1839348	WORD_OFF	n/a	n/a	TREE	10	16	[0, 0, 0]	n/a	FR1	0	R1338T
1838.613	1.628	1840254	WORD	n/a	wordpools/wordpool_EN.txt	SPRING	11	16	[0, 0, 0]	n/a	FR1	0	R1338T
1840.241	0.837	1841882	WORD_OFF	n/a	n/a	SPRING	11	16	[0, 0, 0]	n/a	FR1	0	R1338T
1841.078	1.63	1842719	WORD	n/a	wordpools/wordpool_EN.txt	WAVE	12	16	[0, 0, 0]	n/a	FR1	0	R1338T
1842.708	0.0	1844349	DISTRACT_START	n/a	n/a	n/a	-999	16	[0, 0, 0]	n/a	FR1	0	R1338T
1842.708	0.0	1844349	ENCODING_END	n/a	n/a	n/a	-999	16	[0, 0, 0]	n/a	FR1	0	R1338T
1842.708	0.001	1844349	WORD_OFF	n/a	n/a	WAVE	12	16	[0, 0, 0]	n/a	FR1	0	R1338T
1842.709	0.015	1844350	START	n/a	n/a	n/a	-999	16	[-999, -999, -999]	n/a	FR1	0	R1338T
1842.724	17.27	1844365	PROB	17.27	n/a	n/a	-999	16	[4, 1, 3]	413	FR1	0	R1338T
1859.994	8.122	1861634	PROB	8.122	n/a	n/a	-999	16	[7, 4, 4]	744	FR1	0	R1338T
1868.116	0.013	1869756	STOP	n/a	n/a	n/a	-999	16	[-999, -999, -999]	n/a	FR1	0	R1338T
1868.129	0.603	1869769	DISTRACT_END	n/a	n/a	n/a	-999	16	[0, 0, 0]	n/a	FR1	0	R1338T
1868.732	1.664	1870372	RETRIEVAL_ORIENT_START	n/a	n/a	n/a	-999	16	[0, 0, 0]	n/a	FR1	0	R1338T
1870.396	0.0	1872036	RETRIEVAL_ORIENT_END	n/a	n/a	n/a	-999	16	[0, 0, 0]	n/a	FR1	0	R1338T
1870.396	14.509	1872036	REC_START	n/a	n/a	n/a	-999	16	[0, 0, 0]	n/a	FR1	0	R1338T
1884.905	1.356	1886544	REC_WORD	1.356	n/a	CHALK	8	16	[0, 0, 0]	n/a	FR1	0	R1338T
1886.261	2.382	1887900	REC_WORD_VV	2.382	n/a	<>	-999	16	[0, 0, 0]	n/a	FR1	0	R1338T
1888.643	5.493	1890282	REC_WORD	5.493	n/a	JAIL	4	16	[0, 0, 0]	n/a	FR1	0	R1338T
1894.136	6.274	1895775	REC_WORD	6.274	n/a	BOX	-999	16	[0, 0, 0]	n/a	FR1	0	R1338T
1900.41	0.0	1902048	REC_END	n/a	n/a	n/a	-999	16	[0, 0, 0]	n/a	FR1	0	R1338T
1900.41	0.017	1902048	TRIAL_END	n/a	n/a	n/a	-999	16	[0, 0, 0]	n/a	FR1	0	R1338T
1900.427	0.0	1902065	TRIAL_START	n/a	n/a	n/a	-999	17	[0, 0, 0]	n/a	FR1	0	R1338T
1900.427	0.0	1902065	TRIAL	n/a	n/a	n/a	-999	17	[0, 0, 0]	n/a	FR1	0	R1338T
1900.427	5.709	1902065	WAITING_START	n/a	n/a	n/a	-999	17	[0, 0, 0]	n/a	FR1	0	R1338T
1906.136	0.0	1907774	WAITING_END	n/a	n/a	n/a	-999	17	[0, 0, 0]	n/a	FR1	0	R1338T
1906.136	10.429	1907774	COUNTDOWN_START	n/a	n/a	n/a	-999	17	[0, 0, 0]	n/a	FR1	0	R1338T
1916.565	0.0	1918203	ORIENT_START	n/a	n/a	n/a	-999	17	[0, 0, 0]	n/a	FR1	0	R1338T
1916.565	1.123	1918203	COUNTDOWN_END	n/a	n/a	n/a	-999	17	[0, 0, 0]	n/a	FR1	0	R1338T
1917.688	0.0	1919326	ORIENT_END	n/a	n/a	n/a	-999	17	[0, 0, 0]	n/a	FR1	0	R1338T
1917.688	0.897	1919326	ENCODING_START	n/a	n/a	n/a	-999	17	[0, 0, 0]	n/a	FR1	0	R1338T
1918.585	1.637	1920223	WORD	n/a	wordpools/wordpool_EN.txt	STEAM	1	17	[0, 0, 0]	n/a	FR1	0	R1338T
1920.222	0.829	1921860	WORD_OFF	n/a	n/a	STEAM	1	17	[0, 0, 0]	n/a	FR1	0	R1338T
1921.051	1.621	1922689	WORD	n/a	wordpools/wordpool_EN.txt	FISH	2	17	[0, 0, 0]	n/a	FR1	0	R1338T
1922.672	0.82	1924309	WORD_OFF	n/a	n/a	FISH	2	17	[0, 0, 0]	n/a	FR1	0	R1338T
1923.492	1.631	1925129	WORD	n/a	wordpools/wordpool_EN.txt	STICK	3	17	[0, 0, 0]	n/a	FR1	0	R1338T
1925.123	0.827	1926760	WORD_OFF	n/a	n/a	STICK	3	17	[0, 0, 0]	n/a	FR1	0	R1338T
1925.95	1.623	1927587	WORD	n/a	wordpools/wordpool_EN.txt	APE	4	17	[0, 0, 0]	n/a	FR1	0	R1338T
1927.573	0.94	1929210	WORD_OFF	n/a	n/a	APE	4	17	[0, 0, 0]	n/a	FR1	0	R1338T
1928.513	1.627	1930150	WORD	n/a	wordpools/wordpool_EN.txt	BOAT	5	17	[0, 0, 0]	n/a	FR1	0	R1338T
1930.14	0.753	1931777	WORD_OFF	n/a	n/a	BOAT	5	17	[0, 0, 0]	n/a	FR1	0	R1338T
1930.893	1.632	1932530	WORD	n/a	wordpools/wordpool_EN.txt	SUN	6	17	[0, 0, 0]	n/a	FR1	0	R1338T
1932.525	0.788	1934162	WORD_OFF	n/a	n/a	SUN	6	17	[0, 0, 0]	n/a	FR1	0	R1338T
1933.313	1.628	1934950	WORD	n/a	wordpools/wordpool_EN.txt	BLUSH	7	17	[0, 0, 0]	n/a	FR1	0	R1338T
1934.941	0.807	1936578	WORD_OFF	n/a	n/a	BLUSH	7	17	[0, 0, 0]	n/a	FR1	0	R1338T
1935.748	1.627	1937385	WORD	n/a	wordpools/wordpool_EN.txt	SHIRT	8	17	[0, 0, 0]	n/a	FR1	0	R1338T
1937.375	0.912	1939012	WORD_OFF	n/a	n/a	SHIRT	8	17	[0, 0, 0]	n/a	FR1	0	R1338T
1938.287	1.623	1939924	WORD	n/a	wordpools/wordpool_EN.txt	VINE	9	17	[0, 0, 0]	n/a	FR1	0	R1338T
1939.91	0.941	1941547	WORD_OFF	n/a	n/a	VINE	9	17	[0, 0, 0]	n/a	FR1	0	R1338T
1940.851	1.626	1942488	WORD	n/a	wordpools/wordpool_EN.txt	WORLD	10	17	[0, 0, 0]	n/a	FR1	0	R1338T
1942.477	1.001	1944114	WORD_OFF	n/a	n/a	WORLD	10	17	[0, 0, 0]	n/a	FR1	0	R1338T
1943.478	1.632	1945115	WORD	n/a	wordpools/wordpool_EN.txt	CLAY	11	17	[0, 0, 0]	n/a	FR1	0	R1338T
1945.11	1.085	1946746	WORD_OFF	n/a	n/a	CLAY	11	17	[0, 0, 0]	n/a	FR1	0	R1338T
1946.195	1.632	1947831	WORD	n/a	wordpools/wordpool_EN.txt	GOLD	12	17	[0, 0, 0]	n/a	FR1	0	R1338T
1947.827	0.0	1949463	ENCODING_END	n/a	n/a	n/a	-999	17	[0, 0, 0]	n/a	FR1	0	R1338T
1947.827	0.001	1949463	WORD_OFF	n/a	n/a	GOLD	12	17	[0, 0, 0]	n/a	FR1	0	R1338T
1947.828	0.0	1949464	DISTRACT_START	n/a	n/a	n/a	-999	17	[0, 0, 0]	n/a	FR1	0	R1338T
1947.828	0.015	1949464	START	n/a	n/a	n/a	-999	17	[-999, -999, -999]	n/a	FR1	0	R1338T
1947.843	17.537	1949479	PROB	17.537	n/a	n/a	-999	17	[1, 9, 8]	198	FR1	0	R1338T
1965.38	16.688	1967016	PROB	16.688	n/a	n/a	-999	17	[9, 8, 4]	984	FR1	0	R1338T
1982.068	0.015	1983703	STOP	n/a	n/a	n/a	-999	17	[-999, -999, -999]	n/a	FR1	0	R1338T
1982.083	0.505	1983718	DISTRACT_END	n/a	n/a	n/a	-999	17	[0, 0, 0]	n/a	FR1	0	R1338T
1982.588	1.695	1984223	RETRIEVAL_ORIENT_START	n/a	n/a	n/a	-999	17	[0, 0, 0]	n/a	FR1	0	R1338T
1984.283	0.001	1985918	RETRIEVAL_ORIENT_END	n/a	n/a	n/a	-999	17	[0, 0, 0]	n/a	FR1	0	R1338T
1984.284	29.949	1985919	REC_START	n/a	n/a	n/a	-999	17	[0, 0, 0]	n/a	FR1	0	R1338T
2014.233	0.06	2015866	REC_WORD_VV	0.06	n/a	<>	-999	17	[0, 0, 0]	n/a	FR1	0	R1338T
2014.293	0.0	2015926	REC_END	n/a	n/a	n/a	-999	17	[0, 0, 0]	n/a	FR1	0	R1338T
2014.293	0.015	2015926	TRIAL_END	n/a	n/a	n/a	-999	17	[0, 0, 0]	n/a	FR1	0	R1338T
2014.308	0.0	2015941	TRIAL_START	n/a	n/a	n/a	-999	18	[0, 0, 0]	n/a	FR1	0	R1338T
2014.308	0.0	2015941	TRIAL	n/a	n/a	n/a	-999	18	[0, 0, 0]	n/a	FR1	0	R1338T
2014.308	2.698	2015941	WAITING_START	n/a	n/a	n/a	-999	18	[0, 0, 0]	n/a	FR1	0	R1338T
2017.006	0.001	2018639	WAITING_END	n/a	n/a	n/a	-999	18	[0, 0, 0]	n/a	FR1	0	R1338T
2017.007	10.429	2018640	COUNTDOWN_START	n/a	n/a	n/a	-999	18	[0, 0, 0]	n/a	FR1	0	R1338T
2027.436	0.0	2029069	COUNTDOWN_END	n/a	n/a	n/a	-999	18	[0, 0, 0]	n/a	FR1	0	R1338T
2027.436	1.255	2029069	ORIENT_START	n/a	n/a	n/a	-999	18	[0, 0, 0]	n/a	FR1	0	R1338T
2028.691	0.001	2030324	ORIENT_END	n/a	n/a	n/a	-999	18	[0, 0, 0]	n/a	FR1	0	R1338T
2028.692	0.844	2030325	ENCODING_START	n/a	n/a	n/a	-999	18	[0, 0, 0]	n/a	FR1	0	R1338T
2029.536	1.623	2031169	WORD	n/a	wordpools/wordpool_EN.txt	RAIN	1	18	[0, 0, 0]	n/a	FR1	0	R1338T
2031.159	1.073	2032792	WORD_OFF	n/a	n/a	RAIN	1	18	[0, 0, 0]	n/a	FR1	0	R1338T
2032.232	1.627	2033865	WORD	n/a	wordpools/wordpool_EN.txt	LEAF	2	18	[0, 0, 0]	n/a	FR1	0	R1338T
2033.859	1.104	2035491	WORD_OFF	n/a	n/a	LEAF	2	18	[0, 0, 0]	n/a	FR1	0	R1338T
2034.963	1.63	2036595	WORD	n/a	wordpools/wordpool_EN.txt	CALF	3	18	[0, 0, 0]	n/a	FR1	0	R1338T
2036.593	1.034	2038225	WORD_OFF	n/a	n/a	CALF	3	18	[0, 0, 0]	n/a	FR1	0	R1338T
2037.627	1.633	2039259	WORD	n/a	wordpools/wordpool_EN.txt	TRAIN	4	18	[0, 0, 0]	n/a	FR1	0	R1338T
2039.26	1.12	2040892	WORD_OFF	n/a	n/a	TRAIN	4	18	[0, 0, 0]	n/a	FR1	0	R1338T
2040.38	1.631	2042012	WORD	n/a	wordpools/wordpool_EN.txt	HOSE	5	18	[0, 0, 0]	n/a	FR1	0	R1338T
2042.011	0.885	2043643	WORD_OFF	n/a	n/a	HOSE	5	18	[0, 0, 0]	n/a	FR1	0	R1338T
2042.896	1.616	2044528	WORD	n/a	wordpools/wordpool_EN.txt	COW	6	18	[0, 0, 0]	n/a	FR1	0	R1338T
2044.512	1.092	2046144	WORD_OFF	n/a	n/a	COW	6	18	[0, 0, 0]	n/a	FR1	0	R1338T
2045.604	1.624	2047236	WORD	n/a	wordpools/wordpool_EN.txt	FORT	7	18	[0, 0, 0]	n/a	FR1	0	R1338T
2047.228	0.996	2048860	WORD_OFF	n/a	n/a	FORT	7	18	[0, 0, 0]	n/a	FR1	0	R1338T
2048.224	1.621	2049856	WORD	n/a	wordpools/wordpool_EN.txt	STAIR	8	18	[0, 0, 0]	n/a	FR1	0	R1338T
2049.845	0.924	2051477	WORD_OFF	n/a	n/a	STAIR	8	18	[0, 0, 0]	n/a	FR1	0	R1338T
2050.769	1.627	2052401	WORD	n/a	wordpools/wordpool_EN.txt	CAPE	9	18	[0, 0, 0]	n/a	FR1	0	R1338T
2052.396	0.909	2054028	WORD_OFF	n/a	n/a	CAPE	9	18	[0, 0, 0]	n/a	FR1	0	R1338T
2053.305	1.624	2054937	WORD	n/a	wordpools/wordpool_EN.txt	SHIELD	10	18	[0, 0, 0]	n/a	FR1	0	R1338T
2054.929	0.801	2056561	WORD_OFF	n/a	n/a	SHIELD	10	18	[0, 0, 0]	n/a	FR1	0	R1338T
2055.73	1.633	2057361	WORD	n/a	wordpools/wordpool_EN.txt	TOAST	11	18	[0, 0, 0]	n/a	FR1	0	R1338T
2057.363	0.995	2058994	WORD_OFF	n/a	n/a	TOAST	11	18	[0, 0, 0]	n/a	FR1	0	R1338T
2058.358	1.622	2059989	WORD	n/a	wordpools/wordpool_EN.txt	LEG	12	18	[0, 0, 0]	n/a	FR1	0	R1338T
2059.98	0.001	2061611	WORD_OFF	n/a	n/a	LEG	12	18	[0, 0, 0]	n/a	FR1	0	R1338T
2059.981	0.0	2061612	ENCODING_END	n/a	n/a	n/a	-999	18	[0, 0, 0]	n/a	FR1	0	R1338T
2059.981	0.0	2061612	DISTRACT_START	n/a	n/a	n/a	-999	18	[0, 0, 0]	n/a	FR1	0	R1338T
2059.981	0.016	2061612	START	n/a	n/a	n/a	-999	18	[-999, -999, -999]	n/a	FR1	0	R1338T
2059.997	17.353	2061628	PROB	17.353	n/a	n/a	-999	18	[2, 2, 8]	228	FR1	0	R1338T
2077.35	10.575	2078981	PROB	10.575	n/a	n/a	-999	18	[9, 3, 7]	937	FR1	0	R1338T
2087.925	0.011	2089555	STOP	n/a	n/a	n/a	-999	18	[-999, -999, -999]	n/a	FR1	0	R1338T
2087.936	0.597	2089566	DISTRACT_END	n/a	n/a	n/a	-999	18	[0, 0, 0]	n/a	FR1	0	R1338T
2088.533	1.653	2090163	RETRIEVAL_ORIENT_START	n/a	n/a	n/a	-999	18	[0, 0, 0]	n/a	FR1	0	R1338T
2090.186	0.0	2091816	RETRIEVAL_ORIENT_END	n/a	n/a	n/a	-999	18	[0, 0, 0]	n/a	FR1	0	R1338T
2090.186	22.84	2091816	REC_START	n/a	n/a	n/a	-999	18	[0, 0, 0]	n/a	FR1	0	R1338T
2113.026	7.172	2114655	REC_WORD_VV	7.172	n/a	<>	-999	18	[0, 0, 0]	n/a	FR1	0	R1338T
2120.198	0.0	2121827	REC_END	n/a	n/a	n/a	-999	18	[0, 0, 0]	n/a	FR1	0	R1338T
2120.198	0.016	2121827	TRIAL_END	n/a	n/a	n/a	-999	18	[0, 0, 0]	n/a	FR1	0	R1338T
2120.214	0.001	2121843	TRIAL_START	n/a	n/a	n/a	-999	19	[0, 0, 0]	n/a	FR1	0	R1338T
2120.215	0.0	2121844	WAITING_START	n/a	n/a	n/a	-999	19	[0, 0, 0]	n/a	FR1	0	R1338T
2120.215	2.51	2121844	TRIAL	n/a	n/a	n/a	-999	19	[0, 0, 0]	n/a	FR1	0	R1338T
2122.725	0.001	2124353	WAITING_END	n/a	n/a	n/a	-999	19	[0, 0, 0]	n/a	FR1	0	R1338T
2122.726	10.429	2124354	COUNTDOWN_START	n/a	n/a	n/a	-999	19	[0, 0, 0]	n/a	FR1	0	R1338T
2133.155	0.0	2134783	COUNTDOWN_END	n/a	n/a	n/a	-999	19	[0, 0, 0]	n/a	FR1	0	R1338T
2133.155	1.122	2134783	ORIENT_START	n/a	n/a	n/a	-999	19	[0, 0, 0]	n/a	FR1	0	R1338T
2134.277	0.001	2135905	ORIENT_END	n/a	n/a	n/a	-999	19	[0, 0, 0]	n/a	FR1	0	R1338T
2134.278	1.094	2135906	ENCODING_START	n/a	n/a	n/a	-999	19	[0, 0, 0]	n/a	FR1	0	R1338T
2135.372	1.622	2137000	WORD	n/a	wordpools/wordpool_EN.txt	CAGE	1	19	[0, 0, 0]	n/a	FR1	0	R1338T
2136.994	0.816	2138622	WORD_OFF	n/a	n/a	CAGE	1	19	[0, 0, 0]	n/a	FR1	0	R1338T
2137.81	1.635	2139438	WORD	n/a	wordpools/wordpool_EN.txt	FILM	2	19	[0, 0, 0]	n/a	FR1	0	R1338T
2139.445	1.09	2141073	WORD_OFF	n/a	n/a	FILM	2	19	[0, 0, 0]	n/a	FR1	0	R1338T
2140.535	1.627	2142163	WORD	n/a	wordpools/wordpool_EN.txt	DRESS	3	19	[0, 0, 0]	n/a	FR1	0	R1338T
2142.162	1.116	2143790	WORD_OFF	n/a	n/a	DRESS	3	19	[0, 0, 0]	n/a	FR1	0	R1338T
2143.278	1.635	2144906	WORD	n/a	wordpools/wordpool_EN.txt	GRASS	4	19	[0, 0, 0]	n/a	FR1	0	R1338T
2144.913	0.946	2146541	WORD_OFF	n/a	n/a	GRASS	4	19	[0, 0, 0]	n/a	FR1	0	R1338T
2145.859	1.638	2147486	WORD	n/a	wordpools/wordpool_EN.txt	PANTS	5	19	[0, 0, 0]	n/a	FR1	0	R1338T
2147.497	1.145	2149124	WORD_OFF	n/a	n/a	PANTS	5	19	[0, 0, 0]	n/a	FR1	0	R1338T
2148.642	1.621	2150269	WORD	n/a	wordpools/wordpool_EN.txt	PEARL	6	19	[0, 0, 0]	n/a	FR1	0	R1338T
2150.263	0.866	2151890	WORD_OFF	n/a	n/a	PEARL	6	19	[0, 0, 0]	n/a	FR1	0	R1338T
2151.129	1.635	2152756	WORD	n/a	wordpools/wordpool_EN.txt	STRAW	7	19	[0, 0, 0]	n/a	FR1	0	R1338T
2152.764	0.958	2154391	WORD_OFF	n/a	n/a	STRAW	7	19	[0, 0, 0]	n/a	FR1	0	R1338T
2153.722	1.626	2155349	WORD	n/a	wordpools/wordpool_EN.txt	BENCH	8	19	[0, 0, 0]	n/a	FR1	0	R1338T
2155.348	1.078	2156975	WORD_OFF	n/a	n/a	BENCH	8	19	[0, 0, 0]	n/a	FR1	0	R1338T
2156.426	1.622	2158053	WORD	n/a	wordpools/wordpool_EN.txt	RAT	9	19	[0, 0, 0]	n/a	FR1	0	R1338T
2158.048	1.041	2159675	WORD_OFF	n/a	n/a	RAT	9	19	[0, 0, 0]	n/a	FR1	0	R1338T
2159.089	1.626	2160716	WORD	n/a	wordpools/wordpool_EN.txt	FOAM	10	19	[0, 0, 0]	n/a	FR1	0	R1338T
2160.715	0.802	2162342	WORD_OFF	n/a	n/a	FOAM	10	19	[0, 0, 0]	n/a	FR1	0	R1338T
2161.517	1.632	2163144	WORD	n/a	wordpools/wordpool_EN.txt	JUICE	11	19	[0, 0, 0]	n/a	FR1	0	R1338T
2163.149	0.855	2164776	WORD_OFF	n/a	n/a	JUICE	11	19	[0, 0, 0]	n/a	FR1	0	R1338T
2164.004	1.629	2165631	WORD	n/a	wordpools/wordpool_EN.txt	ROPE	12	19	[0, 0, 0]	n/a	FR1	0	R1338T
2165.633	0.001	2167260	WORD_OFF	n/a	n/a	ROPE	12	19	[0, 0, 0]	n/a	FR1	0	R1338T
2165.634	0.0	2167261	ENCODING_END	n/a	n/a	n/a	-999	19	[0, 0, 0]	n/a	FR1	0	R1338T
2165.634	0.0	2167261	DISTRACT_START	n/a	n/a	n/a	-999	19	[0, 0, 0]	n/a	FR1	0	R1338T
2165.634	0.015	2167261	START	n/a	n/a	n/a	-999	19	[-999, -999, -999]	n/a	FR1	0	R1338T
2165.649	16.22	2167276	PROB	16.22	n/a	n/a	-999	19	[7, 4, 8]	748	FR1	0	R1338T
2181.869	14.059	2183495	PROB	14.059	n/a	n/a	-999	19	[3, 6, 6]	366	FR1	0	R1338T
2195.928	0.011	2197553	STOP	n/a	n/a	n/a	-999	19	[-999, -999, -999]	n/a	FR1	0	R1338T
2195.939	0.668	2197564	DISTRACT_END	n/a	n/a	n/a	-999	19	[0, 0, 0]	n/a	FR1	0	R1338T
2196.607	1.648	2198232	RETRIEVAL_ORIENT_START	n/a	n/a	n/a	-999	19	[0, 0, 0]	n/a	FR1	0	R1338T
2198.255	0.001	2199880	RETRIEVAL_ORIENT_END	n/a	n/a	n/a	-999	19	[0, 0, 0]	n/a	FR1	0	R1338T
2198.256	25.854	2199881	REC_START	n/a	n/a	n/a	-999	19	[0, 0, 0]	n/a	FR1	0	R1338T
2224.11	3.103	2225734	REC_WORD	3.103	n/a	STEAM	-999	19	[0, 0, 0]	n/a	FR1	0	R1338T
2227.213	1.055	2228837	REC_WORD	1.055	n/a	RAT	9	19	[0, 0, 0]	n/a	FR1	0	R1338T
2228.268	0.0	2229892	REC_END	n/a	n/a	n/a	-999	19	[0, 0, 0]	n/a	FR1	0	R1338T
2228.268	0.016	2229892	TRIAL_END	n/a	n/a	n/a	-999	19	[0, 0, 0]	n/a	FR1	0	R1338T
2228.284	0.0	2229908	TRIAL_START	n/a	n/a	n/a	-999	20	[0, 0, 0]	n/a	FR1	0	R1338T
2228.284	0.001	2229908	TRIAL	n/a	n/a	n/a	-999	20	[0, 0, 0]	n/a	FR1	0	R1338T
2228.285	2.777	2229909	WAITING_START	n/a	n/a	n/a	-999	20	[0, 0, 0]	n/a	FR1	0	R1338T
2231.062	0.0	2232686	WAITING_END	n/a	n/a	n/a	-999	20	[0, 0, 0]	n/a	FR1	0	R1338T
2231.062	10.429	2232686	COUNTDOWN_START	n/a	n/a	n/a	-999	20	[0, 0, 0]	n/a	FR1	0	R1338T
2241.491	0.0	2243114	COUNTDOWN_END	n/a	n/a	n/a	-999	20	[0, 0, 0]	n/a	FR1	0	R1338T
2241.491	1.256	2243114	ORIENT_START	n/a	n/a	n/a	-999	20	[0, 0, 0]	n/a	FR1	0	R1338T
2242.747	0.0	2244370	ORIENT_END	n/a	n/a	n/a	-999	20	[0, 0, 0]	n/a	FR1	0	R1338T
2242.747	0.753	2244370	ENCODING_START	n/a	n/a	n/a	-999	20	[0, 0, 0]	n/a	FR1	0	R1338T
2243.5	1.631	2245123	WORD	n/a	wordpools/wordpool_EN.txt	STOVE	1	20	[0, 0, 0]	n/a	FR1	0	R1338T
2245.131	0.789	2246754	WORD_OFF	n/a	n/a	STOVE	1	20	[0, 0, 0]	n/a	FR1	0	R1338T
2245.92	1.628	2247543	WORD	n/a	wordpools/wordpool_EN.txt	POLE	2	20	[0, 0, 0]	n/a	FR1	0	R1338T
2247.548	1.061	2249171	WORD_OFF	n/a	n/a	POLE	2	20	[0, 0, 0]	n/a	FR1	0	R1338T
2248.609	1.623	2250232	WORD	n/a	wordpools/wordpool_EN.txt	FOOT	3	20	[0, 0, 0]	n/a	FR1	0	R1338T
2250.232	0.797	2251855	WORD_OFF	n/a	n/a	FOOT	3	20	[0, 0, 0]	n/a	FR1	0	R1338T
2251.029	1.636	2252652	WORD	n/a	wordpools/wordpool_EN.txt	HOUSE	4	20	[0, 0, 0]	n/a	FR1	0	R1338T
2252.665	1.042	2254288	WORD_OFF	n/a	n/a	HOUSE	4	20	[0, 0, 0]	n/a	FR1	0	R1338T
2253.707	1.626	2255330	WORD	n/a	wordpools/wordpool_EN.txt	TRAY	5	20	[0, 0, 0]	n/a	FR1	0	R1338T
2255.333	0.786	2256956	WORD_OFF	n/a	n/a	TRAY	5	20	[0, 0, 0]	n/a	FR1	0	R1338T
2256.119	1.631	2257742	WORD	n/a	wordpools/wordpool_EN.txt	MAP	6	20	[0, 0, 0]	n/a	FR1	0	R1338T
2257.75	0.984	2259372	WORD_OFF	n/a	n/a	MAP	6	20	[0, 0, 0]	n/a	FR1	0	R1338T
2258.734	1.633	2260356	WORD	n/a	wordpools/wordpool_EN.txt	JAR	7	20	[0, 0, 0]	n/a	FR1	0	R1338T
2260.367	1.038	2261989	WORD_OFF	n/a	n/a	JAR	7	20	[0, 0, 0]	n/a	FR1	0	R1338T
2261.405	1.629	2263027	WORD	n/a	wordpools/wordpool_EN.txt	MOLE	8	20	[0, 0, 0]	n/a	FR1	0	R1338T
2263.034	0.939	2264656	WORD_OFF	n/a	n/a	MOLE	8	20	[0, 0, 0]	n/a	FR1	0	R1338T
2263.973	1.628	2265595	WORD	n/a	wordpools/wordpool_EN.txt	RIB	9	20	[0, 0, 0]	n/a	FR1	0	R1338T
2265.601	1.037	2267223	WORD_OFF	n/a	n/a	RIB	9	20	[0, 0, 0]	n/a	FR1	0	R1338T
2266.638	1.63	2268260	WORD	n/a	wordpools/wordpool_EN.txt	MUD	10	20	[0, 0, 0]	n/a	FR1	0	R1338T
2268.268	0.92	2269890	WORD_OFF	n/a	n/a	MUD	10	20	[0, 0, 0]	n/a	FR1	0	R1338T
2269.188	1.631	2270810	WORD	n/a	wordpools/wordpool_EN.txt	AXE	11	20	[0, 0, 0]	n/a	FR1	0	R1338T
2270.819	0.845	2272441	WORD_OFF	n/a	n/a	AXE	11	20	[0, 0, 0]	n/a	FR1	0	R1338T
2271.664	1.622	2273286	WORD	n/a	wordpools/wordpool_EN.txt	BALL	12	20	[0, 0, 0]	n/a	FR1	0	R1338T
2273.286	0.0	2274908	WORD_OFF	n/a	n/a	BALL	12	20	[0, 0, 0]	n/a	FR1	0	R1338T
2273.286	0.0	2274908	ENCODING_END	n/a	n/a	n/a	-999	20	[0, 0, 0]	n/a	FR1	0	R1338T
2273.286	0.001	2274908	DISTRACT_START	n/a	n/a	n/a	-999	20	[0, 0, 0]	n/a	FR1	0	R1338T
2273.287	0.015	2274909	START	n/a	n/a	n/a	-999	20	[-999, -999, -999]	n/a	FR1	0	R1338T
2273.302	21.005	2274924	PROB	21.005	n/a	n/a	-999	20	[6, 5, 6]	656	FR1	0	R1338T
2294.307	0.016	2295928	STOP	n/a	n/a	n/a	-999	20	[-999, -999, -999]	n/a	FR1	0	R1338T
2294.323	0.586	2295944	DISTRACT_END	n/a	n/a	n/a	-999	20	[0, 0, 0]	n/a	FR1	0	R1338T
2294.909	1.714	2296530	RETRIEVAL_ORIENT_START	n/a	n/a	n/a	-999	20	[0, 0, 0]	n/a	FR1	0	R1338T
2296.623	0.001	2298244	RETRIEVAL_ORIENT_END	n/a	n/a	n/a	-999	20	[0, 0, 0]	n/a	FR1	0	R1338T
2296.624	8.118	2298245	REC_START	n/a	n/a	n/a	-999	20	[0, 0, 0]	n/a	FR1	0	R1338T
2304.742	5.738	2306362	REC_WORD	5.738	n/a	AXE	11	20	[0, 0, 0]	n/a	FR1	0	R1338T
2310.48	6.749	2312100	REC_WORD	6.749	n/a	STICK	-999	20	[0, 0, 0]	n/a	FR1	0	R1338T
2317.229	9.406	2318849	REC_WORD	9.406	n/a	FOOT	3	20	[0, 0, 0]	n/a	FR1	0	R1338T
2326.635	0.0	2328254	REC_END	n/a	n/a	n/a	-999	20	[0, 0, 0]	n/a	FR1	0	R1338T
2326.635	0.015	2328254	TRIAL_END	n/a	n/a	n/a	-999	20	[0, 0, 0]	n/a	FR1	0	R1338T
2326.65	0.0	2328269	TRIAL_START	n/a	n/a	n/a	-999	21	[0, 0, 0]	n/a	FR1	0	R1338T
2326.65	0.0	2328269	TRIAL	n/a	n/a	n/a	-999	21	[0, 0, 0]	n/a	FR1	0	R1338T
2326.65	2.696	2328269	WAITING_START	n/a	n/a	n/a	-999	21	[0, 0, 0]	n/a	FR1	0	R1338T
2329.346	0.0	2330965	COUNTDOWN_START	n/a	n/a	n/a	-999	21	[0, 0, 0]	n/a	FR1	0	R1338T
2329.346	10.43	2330965	WAITING_END	n/a	n/a	n/a	-999	21	[0, 0, 0]	n/a	FR1	0	R1338T
2339.776	0.0	2341395	COUNTDOWN_END	n/a	n/a	n/a	-999	21	[0, 0, 0]	n/a	FR1	0	R1338T
2339.776	1.172	2341395	ORIENT_START	n/a	n/a	n/a	-999	21	[0, 0, 0]	n/a	FR1	0	R1338T
2340.948	0.001	2342567	ORIENT_END	n/a	n/a	n/a	-999	21	[0, 0, 0]	n/a	FR1	0	R1338T
2340.949	1.035	2342568	ENCODING_START	n/a	n/a	n/a	-999	21	[0, 0, 0]	n/a	FR1	0	R1338T
2341.984	1.631	2343603	WORD	n/a	wordpools/wordpool_EN.txt	BUSH	1	21	[0, 0, 0]	n/a	FR1	0	R1338T
2343.615	1.036	2345234	WORD_OFF	n/a	n/a	BUSH	1	21	[0, 0, 0]	n/a	FR1	0	R1338T
2344.651	1.631	2346270	WORD	n/a	wordpools/wordpool_EN.txt	SPONGE	2	21	[0, 0, 0]	n/a	FR1	0	R1338T
2346.282	0.769	2347900	WORD_OFF	n/a	n/a	SPONGE	2	21	[0, 0, 0]	n/a	FR1	0	R1338T
2347.051	1.632	2348669	WORD	n/a	wordpools/wordpool_EN.txt	DEER	3	21	[0, 0, 0]	n/a	FR1	0	R1338T
2348.683	1.007	2350301	WORD_OFF	n/a	n/a	DEER	3	21	[0, 0, 0]	n/a	FR1	0	R1338T
2349.69	1.627	2351308	WORD	n/a	wordpools/wordpool_EN.txt	BRICK	4	21	[0, 0, 0]	n/a	FR1	0	R1338T
2351.317	0.845	2352935	WORD_OFF	n/a	n/a	BRICK	4	21	[0, 0, 0]	n/a	FR1	0	R1338T
2352.162	1.622	2353780	WORD	n/a	wordpools/wordpool_EN.txt	SEAT	5	21	[0, 0, 0]	n/a	FR1	0	R1338T
2353.784	0.914	2355402	WORD_OFF	n/a	n/a	SEAT	5	21	[0, 0, 0]	n/a	FR1	0	R1338T
2354.698	1.636	2356316	WORD	n/a	wordpools/wordpool_EN.txt	SLEEVE	6	21	[0, 0, 0]	n/a	FR1	0	R1338T
2356.334	0.785	2357952	WORD_OFF	n/a	n/a	SLEEVE	6	21	[0, 0, 0]	n/a	FR1	0	R1338T
2357.119	1.632	2358737	WORD	n/a	wordpools/wordpool_EN.txt	TANK	7	21	[0, 0, 0]	n/a	FR1	0	R1338T
2358.751	1.044	2360369	WORD_OFF	n/a	n/a	TANK	7	21	[0, 0, 0]	n/a	FR1	0	R1338T
2359.795	1.623	2361413	WORD	n/a	wordpools/wordpool_EN.txt	WHALE	8	21	[0, 0, 0]	n/a	FR1	0	R1338T
2361.418	1.123	2363036	WORD_OFF	n/a	n/a	WHALE	8	21	[0, 0, 0]	n/a	FR1	0	R1338T
2362.541	1.628	2364159	WORD	n/a	wordpools/wordpool_EN.txt	SMILE	9	21	[0, 0, 0]	n/a	FR1	0	R1338T
2364.169	1.102	2365787	WORD_OFF	n/a	n/a	SMILE	9	21	[0, 0, 0]	n/a	FR1	0	R1338T
2365.271	1.632	2366889	WORD	n/a	wordpools/wordpool_EN.txt	FENCE	10	21	[0, 0, 0]	n/a	FR1	0	R1338T
2366.903	0.889	2368521	WORD_OFF	n/a	n/a	FENCE	10	21	[0, 0, 0]	n/a	FR1	0	R1338T
2367.792	1.628	2369410	WORD	n/a	wordpools/wordpool_EN.txt	BAND	11	21	[0, 0, 0]	n/a	FR1	0	R1338T
2369.42	1.051	2371037	WORD_OFF	n/a	n/a	BAND	11	21	[0, 0, 0]	n/a	FR1	0	R1338T
2370.471	1.633	2372088	WORD	n/a	wordpools/wordpool_EN.txt	SAIL	12	21	[0, 0, 0]	n/a	FR1	0	R1338T
2372.104	0.0	2373721	WORD_OFF	n/a	n/a	SAIL	12	21	[0, 0, 0]	n/a	FR1	0	R1338T
2372.104	0.0	2373721	ENCODING_END	n/a	n/a	n/a	-999	21	[0, 0, 0]	n/a	FR1	0	R1338T
2372.104	0.0	2373721	DISTRACT_START	n/a	n/a	n/a	-999	21	[0, 0, 0]	n/a	FR1	0	R1338T
2372.104	0.016	2373721	START	n/a	n/a	n/a	-999	21	[-999, -999, -999]	n/a	FR1	0	R1338T
2372.12	11.236	2373737	PROB	11.236	n/a	n/a	-999	21	[7, 1, 5]	715	FR1	0	R1338T
2383.356	7.734	2384973	PROB	7.734	n/a	n/a	-999	21	[1, 7, 2]	172	FR1	0	R1338T
2391.09	12.611	2392706	PROB	12.611	n/a	n/a	-999	21	[1, 8, 9]	189	FR1	0	R1338T
2403.701	0.008	2405317	STOP	n/a	n/a	n/a	-999	21	[-999, -999, -999]	n/a	FR1	0	R1338T
2403.709	0.591	2405325	DISTRACT_END	n/a	n/a	n/a	-999	21	[0, 0, 0]	n/a	FR1	0	R1338T
2404.3	1.693	2405916	RETRIEVAL_ORIENT_START	n/a	n/a	n/a	-999	21	[0, 0, 0]	n/a	FR1	0	R1338T
2405.993	0.0	2407609	RETRIEVAL_ORIENT_END	n/a	n/a	n/a	-999	21	[0, 0, 0]	n/a	FR1	0	R1338T
2405.993	24.495	2407609	REC_START	n/a	n/a	n/a	-999	21	[0, 0, 0]	n/a	FR1	0	R1338T
2430.488	5.517	2432103	REC_WORD	5.517	n/a	SNAIL	-999	21	[0, 0, 0]	n/a	FR1	0	R1338T
2436.005	0.0	2437619	REC_END	n/a	n/a	n/a	-999	21	[0, 0, 0]	n/a	FR1	0	R1338T
2436.005	0.014	2437619	TRIAL_END	n/a	n/a	n/a	-999	21	[0, 0, 0]	n/a	FR1	0	R1338T
2436.019	0.001	2437633	TRIAL_START	n/a	n/a	n/a	-999	22	[0, 0, 0]	n/a	FR1	0	R1338T
2436.02	0.0	2437634	TRIAL	n/a	n/a	n/a	-999	22	[0, 0, 0]	n/a	FR1	0	R1338T
2436.02	3.646	2437634	WAITING_START	n/a	n/a	n/a	-999	22	[0, 0, 0]	n/a	FR1	0	R1338T
2439.666	0.0	2441280	WAITING_END	n/a	n/a	n/a	-999	22	[0, 0, 0]	n/a	FR1	0	R1338T
2439.666	10.429	2441280	COUNTDOWN_START	n/a	n/a	n/a	-999	22	[0, 0, 0]	n/a	FR1	0	R1338T
2450.095	0.001	2451709	COUNTDOWN_END	n/a	n/a	n/a	-999	22	[0, 0, 0]	n/a	FR1	0	R1338T
2450.096	1.189	2451710	ORIENT_START	n/a	n/a	n/a	-999	22	[0, 0, 0]	n/a	FR1	0	R1338T
2451.285	0.0	2452899	ORIENT_END	n/a	n/a	n/a	-999	22	[0, 0, 0]	n/a	FR1	0	R1338T
2451.285	0.946	2452899	ENCODING_START	n/a	n/a	n/a	-999	22	[0, 0, 0]	n/a	FR1	0	R1338T
2452.231	1.638	2453845	WORD	n/a	wordpools/wordpool_EN.txt	LAMB	1	22	[0, 0, 0]	n/a	FR1	0	R1338T
2453.869	1.034	2455483	WORD_OFF	n/a	n/a	LAMB	1	22	[0, 0, 0]	n/a	FR1	0	R1338T
2454.903	1.633	2456517	WORD	n/a	wordpools/wordpool_EN.txt	OAR	2	22	[0, 0, 0]	n/a	FR1	0	R1338T
2456.536	0.79	2458150	WORD_OFF	n/a	n/a	OAR	2	22	[0, 0, 0]	n/a	FR1	0	R1338T
2457.326	1.627	2458940	WORD	n/a	wordpools/wordpool_EN.txt	CUBE	3	22	[0, 0, 0]	n/a	FR1	0	R1338T
2458.953	1.1	2460566	WORD_OFF	n/a	n/a	CUBE	3	22	[0, 0, 0]	n/a	FR1	0	R1338T
2460.053	1.634	2461666	WORD	n/a	wordpools/wordpool_EN.txt	SEA	4	22	[0, 0, 0]	n/a	FR1	0	R1338T
2461.687	1.086	2463300	WORD_OFF	n/a	n/a	SEA	4	22	[0, 0, 0]	n/a	FR1	0	R1338T
2462.773	1.631	2464386	WORD	n/a	wordpools/wordpool_EN.txt	FLAG	5	22	[0, 0, 0]	n/a	FR1	0	R1338T
2464.404	1.125	2466017	WORD_OFF	n/a	n/a	FLAG	5	22	[0, 0, 0]	n/a	FR1	0	R1338T
2465.529	1.625	2467142	WORD	n/a	wordpools/wordpool_EN.txt	PASTE	6	22	[0, 0, 0]	n/a	FR1	0	R1338T
2467.154	1.091	2468767	WORD_OFF	n/a	n/a	PASTE	6	22	[0, 0, 0]	n/a	FR1	0	R1338T
2468.245	1.626	2469858	WORD	n/a	wordpools/wordpool_EN.txt	DART	7	22	[0, 0, 0]	n/a	FR1	0	R1338T
2469.871	1.13	2471484	WORD_OFF	n/a	n/a	DART	7	22	[0, 0, 0]	n/a	FR1	0	R1338T
2471.001	1.621	2472614	WORD	n/a	wordpools/wordpool_EN.txt	MAT	8	22	[0, 0, 0]	n/a	FR1	0	R1338T
2472.622	1.071	2474235	WORD_OFF	n/a	n/a	MAT	8	22	[0, 0, 0]	n/a	FR1	0	R1338T
2473.693	1.629	2475306	WORD	n/a	wordpools/wordpool_EN.txt	POND	9	22	[0, 0, 0]	n/a	FR1	0	R1338T
2475.322	0.987	2476935	WORD_OFF	n/a	n/a	POND	9	22	[0, 0, 0]	n/a	FR1	0	R1338T
2476.309	1.631	2477922	WORD	n/a	wordpools/wordpool_EN.txt	RAKE	10	22	[0, 0, 0]	n/a	FR1	0	R1338T
2477.94	1.067	2479553	WORD_OFF	n/a	n/a	RAKE	10	22	[0, 0, 0]	n/a	FR1	0	R1338T
2479.007	1.633	2480620	WORD	n/a	wordpools/wordpool_EN.txt	MOOSE	11	22	[0, 0, 0]	n/a	FR1	0	R1338T
2480.64	0.938	2482252	WORD_OFF	n/a	n/a	MOOSE	11	22	[0, 0, 0]	n/a	FR1	0	R1338T
2481.578	1.629	2483190	WORD	n/a	wordpools/wordpool_EN.txt	CASH	12	22	[0, 0, 0]	n/a	FR1	0	R1338T
2483.207	0.001	2484819	WORD_OFF	n/a	n/a	CASH	12	22	[0, 0, 0]	n/a	FR1	0	R1338T
2483.208	0.0	2484820	DISTRACT_START	n/a	n/a	n/a	-999	22	[0, 0, 0]	n/a	FR1	0	R1338T
2483.208	0.0	2484820	ENCODING_END	n/a	n/a	n/a	-999	22	[0, 0, 0]	n/a	FR1	0	R1338T
2483.208	0.016	2484820	START	n/a	n/a	n/a	-999	22	[-999, -999, -999]	n/a	FR1	0	R1338T
2483.224	23.444	2484836	PROB	23.444	n/a	n/a	-999	22	[3, 7, 5]	375	FR1	0	R1338T
2506.668	0.01	2508279	STOP	n/a	n/a	n/a	-999	22	[-999, -999, -999]	n/a	FR1	0	R1338T
2506.678	0.608	2508289	DISTRACT_END	n/a	n/a	n/a	-999	22	[0, 0, 0]	n/a	FR1	0	R1338T
2507.286	1.659	2508897	RETRIEVAL_ORIENT_START	n/a	n/a	n/a	-999	22	[0, 0, 0]	n/a	FR1	0	R1338T
2508.945	0.0	2510556	RETRIEVAL_ORIENT_END	n/a	n/a	n/a	-999	22	[0, 0, 0]	n/a	FR1	0	R1338T
2508.945	0.033	2510556	REC_START	n/a	n/a	n/a	-999	22	[0, 0, 0]	n/a	FR1	0	R1338T
2508.978	3.113	2510589	REC_WORD	3.113	n/a	MOOSE	11	22	[0, 0, 0]	n/a	FR1	0	R1338T
2512.091	3.801	2513702	REC_WORD	3.801	n/a	RAT	-999	22	[0, 0, 0]	n/a	FR1	0	R1338T
2515.892	23.067	2517503	REC_WORD	23.067	n/a	RAKE	10	22	[0, 0, 0]	n/a	FR1	0	R1338T
2538.959	0.0	2540569	REC_END	n/a	n/a	n/a	-999	22	[0, 0, 0]	n/a	FR1	0	R1338T
2538.959	0.015	2540569	TRIAL_END	n/a	n/a	n/a	-999	22	[0, 0, 0]	n/a	FR1	0	R1338T
2538.974	0.0	2540584	TRIAL_START	n/a	n/a	n/a	-999	23	[0, 0, 0]	n/a	FR1	0	R1338T
2538.974	0.0	2540584	TRIAL	n/a	n/a	n/a	-999	23	[0, 0, 0]	n/a	FR1	0	R1338T
2538.974	3.261	2540584	WAITING_START	n/a	n/a	n/a	-999	23	[0, 0, 0]	n/a	FR1	0	R1338T
2542.235	0.0	2543845	WAITING_END	n/a	n/a	n/a	-999	23	[0, 0, 0]	n/a	FR1	0	R1338T
2542.235	10.429	2543845	COUNTDOWN_START	n/a	n/a	n/a	-999	23	[0, 0, 0]	n/a	FR1	0	R1338T
2552.664	0.0	2554273	ORIENT_START	n/a	n/a	n/a	-999	23	[0, 0, 0]	n/a	FR1	0	R1338T
2552.664	1.073	2554273	COUNTDOWN_END	n/a	n/a	n/a	-999	23	[0, 0, 0]	n/a	FR1	0	R1338T
2553.737	0.0	2555346	ORIENT_END	n/a	n/a	n/a	-999	23	[0, 0, 0]	n/a	FR1	0	R1338T
2553.737	0.909	2555346	ENCODING_START	n/a	n/a	n/a	-999	23	[0, 0, 0]	n/a	FR1	0	R1338T
2554.646	1.624	2556255	WORD	n/a	wordpools/wordpool_EN.txt	BAG	1	23	[0, 0, 0]	n/a	FR1	0	R1338T
2556.27	1.023	2557879	WORD_OFF	n/a	n/a	BAG	1	23	[0, 0, 0]	n/a	FR1	0	R1338T
2557.293	1.628	2558902	WORD	n/a	wordpools/wordpool_EN.txt	SQUARE	2	23	[0, 0, 0]	n/a	FR1	0	R1338T
2558.921	0.938	2560530	WORD_OFF	n/a	n/a	SQUARE	2	23	[0, 0, 0]	n/a	FR1	0	R1338T
2559.859	1.63	2561468	WORD	n/a	wordpools/wordpool_EN.txt	COIN	3	23	[0, 0, 0]	n/a	FR1	0	R1338T
2561.489	1.146	2563098	WORD_OFF	n/a	n/a	COIN	3	23	[0, 0, 0]	n/a	FR1	0	R1338T
2562.635	1.637	2564244	WORD	n/a	wordpools/wordpool_EN.txt	LAKE	4	23	[0, 0, 0]	n/a	FR1	0	R1338T
2564.272	0.99	2565881	WORD_OFF	n/a	n/a	LAKE	4	23	[0, 0, 0]	n/a	FR1	0	R1338T
2565.262	1.627	2566871	WORD	n/a	wordpools/wordpool_EN.txt	FORK	5	23	[0, 0, 0]	n/a	FR1	0	R1338T
2566.889	0.857	2568498	WORD_OFF	n/a	n/a	FORK	5	23	[0, 0, 0]	n/a	FR1	0	R1338T
2567.746	1.627	2569355	WORD	n/a	wordpools/wordpool_EN.txt	SHEET	6	23	[0, 0, 0]	n/a	FR1	0	R1338T
2569.373	0.899	2570982	WORD_OFF	n/a	n/a	SHEET	6	23	[0, 0, 0]	n/a	FR1	0	R1338T
2570.272	1.635	2571880	WORD	n/a	wordpools/wordpool_EN.txt	ICE	7	23	[0, 0, 0]	n/a	FR1	0	R1338T
2571.907	0.961	2573515	WORD_OFF	n/a	n/a	ICE	7	23	[0, 0, 0]	n/a	FR1	0	R1338T
2572.868	1.624	2574476	WORD	n/a	wordpools/wordpool_EN.txt	FOG	8	23	[0, 0, 0]	n/a	FR1	0	R1338T
2574.492	0.866	2576100	WORD_OFF	n/a	n/a	FOG	8	23	[0, 0, 0]	n/a	FR1	0	R1338T
2575.358	1.633	2576966	WORD	n/a	wordpools/wordpool_EN.txt	HEN	9	23	[0, 0, 0]	n/a	FR1	0	R1338T
2576.991	1.132	2578599	WORD_OFF	n/a	n/a	HEN	9	23	[0, 0, 0]	n/a	FR1	0	R1338T
2578.123	1.635	2579731	WORD	n/a	wordpools/wordpool_EN.txt	SHIP	10	23	[0, 0, 0]	n/a	FR1	0	R1338T
2579.758	0.881	2581366	WORD_OFF	n/a	n/a	SHIP	10	23	[0, 0, 0]	n/a	FR1	0	R1338T
2580.639	1.636	2582247	WORD	n/a	wordpools/wordpool_EN.txt	HOLE	11	23	[0, 0, 0]	n/a	FR1	0	R1338T
2582.275	0.852	2583883	WORD_OFF	n/a	n/a	HOLE	11	23	[0, 0, 0]	n/a	FR1	0	R1338T
2583.127	1.632	2584735	WORD	n/a	wordpools/wordpool_EN.txt	COUCH	12	23	[0, 0, 0]	n/a	FR1	0	R1338T
2584.759	0.001	2586367	WORD_OFF	n/a	n/a	COUCH	12	23	[0, 0, 0]	n/a	FR1	0	R1338T
2584.76	0.0	2586368	DISTRACT_START	n/a	n/a	n/a	-999	23	[0, 0, 0]	n/a	FR1	0	R1338T
2584.76	0.0	2586368	ENCODING_END	n/a	n/a	n/a	-999	23	[0, 0, 0]	n/a	FR1	0	R1338T
2584.76	0.015	2586368	START	n/a	n/a	n/a	-999	23	[-999, -999, -999]	n/a	FR1	0	R1338T
2584.775	16.787	2586383	PROB	16.787	n/a	n/a	-999	23	[8, 2, 7]	827	FR1	0	R1338T
2601.562	19.821	2603169	PROB	19.821	n/a	n/a	-999	23	[7, 7, 3]	773	FR1	0	R1338T
2621.383	0.016	2622989	STOP	n/a	n/a	n/a	-999	23	[-999, -999, -999]	n/a	FR1	0	R1338T
2621.399	0.521	2623005	DISTRACT_END	n/a	n/a	n/a	-999	23	[0, 0, 0]	n/a	FR1	0	R1338T
2621.92	1.614	2623526	RETRIEVAL_ORIENT_START	n/a	n/a	n/a	-999	23	[0, 0, 0]	n/a	FR1	0	R1338T
2623.534	0.0	2625140	RETRIEVAL_ORIENT_END	n/a	n/a	n/a	-999	23	[0, 0, 0]	n/a	FR1	0	R1338T
2623.534	29.538	2625140	REC_START	n/a	n/a	n/a	-999	23	[0, 0, 0]	n/a	FR1	0	R1338T
2653.072	0.472	2654677	REC_WORD_VV	0.472	n/a	<>	-999	23	[0, 0, 0]	n/a	FR1	0	R1338T
2653.544	0.0	2655149	REC_END	n/a	n/a	n/a	-999	23	[0, 0, 0]	n/a	FR1	0	R1338T
2653.544	0.016	2655149	TRIAL_END	n/a	n/a	n/a	-999	23	[0, 0, 0]	n/a	FR1	0	R1338T
2653.56	0.0	2655165	WAITING_START	n/a	n/a	n/a	-999	24	[0, 0, 0]	n/a	FR1	0	R1338T
2653.56	0.0	2655165	TRIAL_START	n/a	n/a	n/a	-999	24	[0, 0, 0]	n/a	FR1	0	R1338T
2653.56	2.595	2655165	TRIAL	n/a	n/a	n/a	-999	24	[0, 0, 0]	n/a	FR1	0	R1338T
2656.155	0.001	2657760	WAITING_END	n/a	n/a	n/a	-999	24	[0, 0, 0]	n/a	FR1	0	R1338T
2656.156	10.428	2657761	COUNTDOWN_START	n/a	n/a	n/a	-999	24	[0, 0, 0]	n/a	FR1	0	R1338T
2666.584	0.001	2668188	COUNTDOWN_END	n/a	n/a	n/a	-999	24	[0, 0, 0]	n/a	FR1	0	R1338T
2666.585	1.222	2668189	ORIENT_START	n/a	n/a	n/a	-999	24	[0, 0, 0]	n/a	FR1	0	R1338T
2667.807	0.001	2669411	ORIENT_END	n/a	n/a	n/a	-999	24	[0, 0, 0]	n/a	FR1	0	R1338T
2667.808	1.015	2669412	ENCODING_START	n/a	n/a	n/a	-999	24	[0, 0, 0]	n/a	FR1	0	R1338T
2668.823	1.635	2670427	WORD	n/a	wordpools/wordpool_EN.txt	SOUP	1	24	[0, 0, 0]	n/a	FR1	0	R1338T
2670.458	1.009	2672062	WORD_OFF	n/a	n/a	SOUP	1	24	[0, 0, 0]	n/a	FR1	0	R1338T
2671.467	1.625	2673071	WORD	n/a	wordpools/wordpool_EN.txt	PEAR	2	24	[0, 0, 0]	n/a	FR1	0	R1338T
2673.092	0.818	2674696	WORD_OFF	n/a	n/a	PEAR	2	24	[0, 0, 0]	n/a	FR1	0	R1338T
2673.91	1.632	2675514	WORD	n/a	wordpools/wordpool_EN.txt	CORD	3	24	[0, 0, 0]	n/a	FR1	0	R1338T
2675.542	0.875	2677146	WORD_OFF	n/a	n/a	CORD	3	24	[0, 0, 0]	n/a	FR1	0	R1338T
2676.417	1.626	2678021	WORD	n/a	wordpools/wordpool_EN.txt	EEL	4	24	[0, 0, 0]	n/a	FR1	0	R1338T
2678.043	1.034	2679647	WORD_OFF	n/a	n/a	EEL	4	24	[0, 0, 0]	n/a	FR1	0	R1338T
2679.077	1.633	2680681	WORD	n/a	wordpools/wordpool_EN.txt	FAN	5	24	[0, 0, 0]	n/a	FR1	0	R1338T
2680.71	0.919	2682314	WORD_OFF	n/a	n/a	FAN	5	24	[0, 0, 0]	n/a	FR1	0	R1338T
2681.629	1.631	2683232	WORD	n/a	wordpools/wordpool_EN.txt	FACE	6	24	[0, 0, 0]	n/a	FR1	0	R1338T
2683.26	1.137	2684863	WORD_OFF	n/a	n/a	FACE	6	24	[0, 0, 0]	n/a	FR1	0	R1338T
2684.397	1.63	2686000	WORD	n/a	wordpools/wordpool_EN.txt	TOAD	7	24	[0, 0, 0]	n/a	FR1	0	R1338T
2686.027	1.015	2687630	WORD_OFF	n/a	n/a	TOAD	7	24	[0, 0, 0]	n/a	FR1	0	R1338T
2687.042	1.636	2688645	WORD	n/a	wordpools/wordpool_EN.txt	WOLF	8	24	[0, 0, 0]	n/a	FR1	0	R1338T
2688.678	0.931	2690281	WORD_OFF	n/a	n/a	WOLF	8	24	[0, 0, 0]	n/a	FR1	0	R1338T
2689.609	1.636	2691212	WORD	n/a	wordpools/wordpool_EN.txt	BRIDGE	9	24	[0, 0, 0]	n/a	FR1	0	R1338T
2691.245	1.087	2692848	WORD_OFF	n/a	n/a	BRIDGE	9	24	[0, 0, 0]	n/a	FR1	0	R1338T
2692.332	1.63	2693935	WORD	n/a	wordpools/wordpool_EN.txt	SIGN	10	24	[0, 0, 0]	n/a	FR1	0	R1338T
2693.962	0.759	2695565	WORD_OFF	n/a	n/a	SIGN	10	24	[0, 0, 0]	n/a	FR1	0	R1338T
2694.721	1.625	2696324	WORD	n/a	wordpools/wordpool_EN.txt	PIE	11	24	[0, 0, 0]	n/a	FR1	0	R1338T
2696.346	1.084	2697949	WORD_OFF	n/a	n/a	PIE	11	24	[0, 0, 0]	n/a	FR1	0	R1338T
2697.43	1.633	2699033	WORD	n/a	wordpools/wordpool_EN.txt	DRUM	12	24	[0, 0, 0]	n/a	FR1	0	R1338T
2699.063	0.001	2700666	WORD_OFF	n/a	n/a	DRUM	12	24	[0, 0, 0]	n/a	FR1	0	R1338T
2699.064	0.0	2700667	ENCODING_END	n/a	n/a	n/a	-999	24	[0, 0, 0]	n/a	FR1	0	R1338T
2699.064	0.0	2700667	DISTRACT_START	n/a	n/a	n/a	-999	24	[0, 0, 0]	n/a	FR1	0	R1338T
2699.064	0.016	2700667	START	n/a	n/a	n/a	-999	24	[-999, -999, -999]	n/a	FR1	0	R1338T
2699.08	14.685	2700683	PROB	14.685	n/a	n/a	-999	24	[2, 9, 7]	297	FR1	0	R1338T
2713.765	34.338	2715367	PROB	34.338	n/a	n/a	-999	24	[6, 5, 8]	658	FR1	0	R1338T
2748.103	0.019	2749704	STOP	n/a	n/a	n/a	-999	24	[-999, -999, -999]	n/a	FR1	0	R1338T
2748.122	0.593	2749723	DISTRACT_END	n/a	n/a	n/a	-999	24	[0, 0, 0]	n/a	FR1	0	R1338T
2748.715	1.624	2750315	RETRIEVAL_ORIENT_START	n/a	n/a	n/a	-999	24	[0, 0, 0]	n/a	FR1	0	R1338T
2750.339	0.0	2751939	RETRIEVAL_ORIENT_END	n/a	n/a	n/a	-999	24	[0, 0, 0]	n/a	FR1	0	R1338T
2750.339	12.889	2751939	REC_START	n/a	n/a	n/a	-999	24	[0, 0, 0]	n/a	FR1	0	R1338T
2763.228	1.393	2764828	REC_WORD	1.393	n/a	DRUM	12	24	[0, 0, 0]	n/a	FR1	0	R1338T
2764.621	1.918	2766221	REC_WORD_VV	1.918	n/a	<>	-999	24	[0, 0, 0]	n/a	FR1	0	R1338T
2766.539	13.813	2768139	REC_WORD	13.813	n/a	COIN	-999	24	[0, 0, 0]	n/a	FR1	0	R1338T
2780.352	0.001	2781951	REC_END	n/a	n/a	n/a	-999	24	[0, 0, 0]	n/a	FR1	0	R1338T
2780.353	0.015	2781952	TRIAL_END	n/a	n/a	n/a	-999	24	[0, 0, 0]	n/a	FR1	0	R1338T
2780.368	0.0	2781967	WAITING_START	n/a	n/a	n/a	-999	25	[0, 0, 0]	n/a	FR1	0	R1338T
2780.368	0.0	2781967	TRIAL_START	n/a	n/a	n/a	-999	25	[0, 0, 0]	n/a	FR1	0	R1338T
2780.368	20.98	2781967	TRIAL	n/a	n/a	n/a	-999	25	[0, 0, 0]	n/a	FR1	0	R1338T
2801.348	0.001	2802946	WAITING_END	n/a	n/a	n/a	-999	25	[0, 0, 0]	n/a	FR1	0	R1338T
2801.349	10.428	2802947	COUNTDOWN_START	n/a	n/a	n/a	-999	25	[0, 0, 0]	n/a	FR1	0	R1338T
2811.777	0.0	2813375	COUNTDOWN_END	n/a	n/a	n/a	-999	25	[0, 0, 0]	n/a	FR1	0	R1338T
2811.777	1.04	2813375	ORIENT_START	n/a	n/a	n/a	-999	25	[0, 0, 0]	n/a	FR1	0	R1338T
2812.817	0.001	2814415	ORIENT_END	n/a	n/a	n/a	-999	25	[0, 0, 0]	n/a	FR1	0	R1338T
2812.818	1.091	2814416	ENCODING_START	n/a	n/a	n/a	-999	25	[0, 0, 0]	n/a	FR1	0	R1338T
2813.909	1.609	2815507	WORD	n/a	wordpools/wordpool_EN.txt	SWORD	1	25	[0, 0, 0]	n/a	FR1	0	R1338T
2815.518	0.82	2817115	WORD_OFF	n/a	n/a	SWORD	1	25	[0, 0, 0]	n/a	FR1	0	R1338T
2816.338	1.63	2817935	WORD	n/a	wordpools/wordpool_EN.txt	WOOD	2	25	[0, 0, 0]	n/a	FR1	0	R1338T
2817.968	0.967	2819565	WORD_OFF	n/a	n/a	WOOD	2	25	[0, 0, 0]	n/a	FR1	0	R1338T
2818.935	1.633	2820532	WORD	n/a	wordpools/wordpool_EN.txt	FARM	3	25	[0, 0, 0]	n/a	FR1	0	R1338T
2820.568	0.785	2822165	WORD_OFF	n/a	n/a	FARM	3	25	[0, 0, 0]	n/a	FR1	0	R1338T
2821.353	1.633	2822950	WORD	n/a	wordpools/wordpool_EN.txt	CLIFF	4	25	[0, 0, 0]	n/a	FR1	0	R1338T
2822.986	1.066	2824583	WORD_OFF	n/a	n/a	CLIFF	4	25	[0, 0, 0]	n/a	FR1	0	R1338T
2824.052	1.634	2825649	WORD	n/a	wordpools/wordpool_EN.txt	BRANCH	5	25	[0, 0, 0]	n/a	FR1	0	R1338T
2825.686	1.132	2827283	WORD_OFF	n/a	n/a	BRANCH	5	25	[0, 0, 0]	n/a	FR1	0	R1338T
