onset	duration	sample	trial_type	response_time	stim_file	item_name	serialpos	list	test	answer	experiment	session	subject
0.0	193.738	40	INSTRUCT_START	n/a	n/a	n/a	-999	-999	[0, 0, 0]	n/a	FR1	0	R1425D
193.738	37.543	194205	INSTRUCT_END	n/a	n/a	n/a	-999	-999	[0, 0, 0]	n/a	FR1	0	R1425D
231.281	10.429	231762	COUNTDOWN_START	n/a	n/a	n/a	-999	-999	[0, 0, 0]	n/a	FR1	0	R1425D
241.71	1.071	242152	COUNTDOWN_END	n/a	n/a	n/a	-999	-999	[0, 0, 0]	n/a	FR1	0	R1425D
242.781	1.041	243231	ENCODING_START	n/a	n/a	n/a	-999	-1	[0, 0, 0]	n/a	FR1	0	R1425D
243.822	1.627	244275	WORD	n/a	n/a	CAMEL	1	-1	[0, 0, 0]	n/a	FR1	0	R1425D
245.449	1.011	245893	WORD_OFF	n/a	n/a	CAMEL	1	-1	[0, 0, 0]	n/a	FR1	0	R1425D
246.46	1.622	246903	WORD	n/a	n/a	IMAGE	2	-1	[0, 0, 0]	n/a	FR1	0	R1425D
248.082	1.095	248521	WORD_OFF	n/a	n/a	IMAGE	2	-1	[0, 0, 0]	n/a	FR1	0	R1425D
249.177	1.622	249618	WORD	n/a	n/a	BABY	3	-1	[0, 0, 0]	n/a	FR1	0	R1425D
250.799	1.15	251236	WORD_OFF	n/a	n/a	BABY	3	-1	[0, 0, 0]	n/a	FR1	0	R1425D
251.949	1.634	252402	WORD	n/a	n/a	COTTON	4	-1	[0, 0, 0]	n/a	FR1	0	R1425D
253.583	1.076	254021	WORD_OFF	n/a	n/a	COTTON	4	-1	[0, 0, 0]	n/a	FR1	0	R1425D
254.659	1.625	255100	WORD	n/a	n/a	CHEST	5	-1	[0, 0, 0]	n/a	FR1	0	R1425D
256.284	0.997	256718	WORD_OFF	n/a	n/a	CHEST	5	-1	[0, 0, 0]	n/a	FR1	0	R1425D
257.281	1.637	257745	WORD	n/a	n/a	TONGUE	6	-1	[0, 0, 0]	n/a	FR1	0	R1425D
258.918	1.011	259364	WORD_OFF	n/a	n/a	TONGUE	6	-1	[0, 0, 0]	n/a	FR1	0	R1425D
259.929	1.623	260373	WORD	n/a	n/a	WATCH	7	-1	[0, 0, 0]	n/a	FR1	0	R1425D
261.552	0.964	261992	WORD_OFF	n/a	n/a	WATCH	7	-1	[0, 0, 0]	n/a	FR1	0	R1425D
262.516	1.636	262966	WORD	n/a	n/a	FLOOD	8	-1	[0, 0, 0]	n/a	FR1	0	R1425D
264.152	0.953	264585	WORD_OFF	n/a	n/a	FLOOD	8	-1	[0, 0, 0]	n/a	FR1	0	R1425D
265.105	1.63	265559	WORD	n/a	n/a	RING	9	-1	[0, 0, 0]	n/a	FR1	0	R1425D
266.735	0.902	267178	WORD_OFF	n/a	n/a	RING	9	-1	[0, 0, 0]	n/a	FR1	0	R1425D
267.637	1.632	268100	WORD	n/a	n/a	WAGON	10	-1	[0, 0, 0]	n/a	FR1	0	R1425D
269.269	0.782	269701	WORD_OFF	n/a	n/a	WAGON	10	-1	[0, 0, 0]	n/a	FR1	0	R1425D
270.051	1.636	270502	WORD	n/a	n/a	RHINO	11	-1	[0, 0, 0]	n/a	FR1	0	R1425D
271.687	0.783	272120	WORD_OFF	n/a	n/a	RHINO	11	-1	[0, 0, 0]	n/a	FR1	0	R1425D
272.47	1.635	272921	WORD	n/a	n/a	BEAM	12	-1	[0, 0, 0]	n/a	FR1	0	R1425D
274.105	0.0	274554	START	n/a	n/a	n/a	-999	-1	[-999, -999, -999]	n/a	FR1	0	R1425D
274.104	0.001	274557	WORD_OFF	n/a	n/a	BEAM	12	-1	[0, 0, 0]	n/a	FR1	0	R1425D
274.105	0.0	274557	ENCODING_END	n/a	n/a	n/a	-999	-1	[0, 0, 0]	n/a	FR1	0	R1425D
274.105	0.016	274557	DISTRACT_START	n/a	n/a	n/a	-999	-1	[0, 0, 0]	n/a	FR1	0	R1425D
274.121	4.167	274570	PROB	4.167	n/a	n/a	-999	-1	[3, 6, 6]	15	FR1	0	R1425D
278.288	3.751	278737	PROB	3.751	n/a	n/a	-999	-1	[3, 6, 1]	10	FR1	0	R1425D
282.039	4.9	282487	PROB	4.9	n/a	n/a	-999	-1	[4, 6, 7]	17	FR1	0	R1425D
286.939	5.502	287387	PROB	5.502	n/a	n/a	-999	-1	[7, 7, 9]	23	FR1	0	R1425D
292.441	3.751	292889	PROB	3.751	n/a	n/a	-999	-1	[2, 1, 6]	9	FR1	0	R1425D
296.192	0.016	296640	STOP	n/a	n/a	n/a	-999	-1	[-999, -999, -999]	n/a	FR1	0	R1425D
296.208	2.118	296642	DISTRACT_END	n/a	n/a	n/a	-999	-1	[0, 0, 0]	n/a	FR1	0	R1425D
298.326	0.846	298783	REC_START	n/a	n/a	n/a	-999	-1	[0, 0, 0]	n/a	FR1	0	R1425D
299.172	0.412	299620	REC_WORD	0.412	n/a	CAMEL	1	-1	[0, 0, 0]	n/a	FR1	0	R1425D
299.584	1.373	300032	REC_WORD	1.373	n/a	FLOOD	8	-1	[0, 0, 0]	n/a	FR1	0	R1425D
300.957	1.145	301404	REC_WORD	1.145	n/a	WAGON	10	-1	[0, 0, 0]	n/a	FR1	0	R1425D
302.102	1.339	302549	REC_WORD	1.339	n/a	BABY	3	-1	[0, 0, 0]	n/a	FR1	0	R1425D
303.441	3.675	303888	REC_WORD	3.675	n/a	TONGUE	6	-1	[0, 0, 0]	n/a	FR1	0	R1425D
307.116	8.448	307563	REC_WORD	8.448	n/a	RHINO	11	-1	[0, 0, 0]	n/a	FR1	0	R1425D
315.564	4.578	316011	REC_WORD_VV	4.578	n/a	<>	-999	-1	[0, 0, 0]	n/a	FR1	0	R1425D
320.142	4.594	320588	REC_WORD_VV	4.594	n/a	<>	-999	-1	[0, 0, 0]	n/a	FR1	0	R1425D
324.736	1.0	325182	REC_WORD_VV	1.0	n/a	<>	-999	-1	[0, 0, 0]	n/a	FR1	0	R1425D
325.736	1.0	326182	REC_WORD_VV	1.0	n/a	<>	-999	-1	[0, 0, 0]	n/a	FR1	0	R1425D
326.736	1.0	327182	REC_WORD_VV	1.0	n/a	<>	-999	-1	[0, 0, 0]	n/a	FR1	0	R1425D
327.736	0.601	328182	REC_WORD_VV	0.601	n/a	<>	-999	-1	[0, 0, 0]	n/a	FR1	0	R1425D
328.337	42.602	329726	REC_END	n/a	n/a	n/a	-999	-1	[0, 0, 0]	n/a	FR1	0	R1425D
370.939	10.43	371407	COUNTDOWN_START	n/a	n/a	n/a	-999	1	[0, 0, 0]	n/a	FR1	0	R1425D
381.369	1.105	381815	COUNTDOWN_END	n/a	n/a	n/a	-999	1	[0, 0, 0]	n/a	FR1	0	R1425D
382.474	0.841	382911	ENCODING_START	n/a	n/a	n/a	-999	1	[0, 0, 0]	n/a	FR1	0	R1425D
383.315	1.626	383764	WORD	n/a	wordpools/wordpool_EN.txt	MUG	1	1	[0, 0, 0]	n/a	FR1	0	R1425D
384.941	0.856	385382	WORD_OFF	n/a	n/a	MUG	1	1	[0, 0, 0]	n/a	FR1	0	R1425D
385.797	1.628	386235	WORD	n/a	wordpools/wordpool_EN.txt	EGG	2	1	[0, 0, 0]	n/a	FR1	0	R1425D
387.425	1.003	387854	WORD_OFF	n/a	n/a	EGG	2	1	[0, 0, 0]	n/a	FR1	0	R1425D
388.428	1.63	388880	WORD	n/a	wordpools/wordpool_EN.txt	WHALE	3	1	[0, 0, 0]	n/a	FR1	0	R1425D
390.058	0.942	390499	WORD_OFF	n/a	n/a	WHALE	3	1	[0, 0, 0]	n/a	FR1	0	R1425D
391.0	1.626	391439	WORD	n/a	wordpools/wordpool_EN.txt	DOG	4	1	[0, 0, 0]	n/a	FR1	0	R1425D
392.626	0.824	393057	WORD_OFF	n/a	n/a	DOG	4	1	[0, 0, 0]	n/a	FR1	0	R1425D
393.45	1.626	393893	WORD	n/a	wordpools/wordpool_EN.txt	BOARD	5	1	[0, 0, 0]	n/a	FR1	0	R1425D
395.076	0.799	395511	WORD_OFF	n/a	n/a	BOARD	5	1	[0, 0, 0]	n/a	FR1	0	R1425D
395.875	1.635	396329	WORD	n/a	wordpools/wordpool_EN.txt	SINK	6	1	[0, 0, 0]	n/a	FR1	0	R1425D
397.51	1.035	397948	WORD_OFF	n/a	n/a	SINK	6	1	[0, 0, 0]	n/a	FR1	0	R1425D
398.545	1.632	398992	WORD	n/a	wordpools/wordpool_EN.txt	SHARK	7	1	[0, 0, 0]	n/a	FR1	0	R1425D
400.177	0.815	400610	WORD_OFF	n/a	n/a	SHARK	7	1	[0, 0, 0]	n/a	FR1	0	R1425D
400.992	1.635	401446	WORD	n/a	wordpools/wordpool_EN.txt	WAVE	8	1	[0, 0, 0]	n/a	FR1	0	R1425D
402.627	1.015	403064	WORD_OFF	n/a	n/a	WAVE	8	1	[0, 0, 0]	n/a	FR1	0	R1425D
403.642	1.636	404091	WORD	n/a	wordpools/wordpool_EN.txt	HOUSE	9	1	[0, 0, 0]	n/a	FR1	0	R1425D
405.278	0.905	405710	WORD_OFF	n/a	n/a	HOUSE	9	1	[0, 0, 0]	n/a	FR1	0	R1425D
406.183	1.628	406632	WORD	n/a	wordpools/wordpool_EN.txt	CAKE	10	1	[0, 0, 0]	n/a	FR1	0	R1425D
407.811	0.971	408251	WORD_OFF	n/a	n/a	CAKE	10	1	[0, 0, 0]	n/a	FR1	0	R1425D
408.782	1.63	409225	WORD	n/a	wordpools/wordpool_EN.txt	BENCH	11	1	[0, 0, 0]	n/a	FR1	0	R1425D
410.412	1.103	410844	WORD_OFF	n/a	n/a	BENCH	11	1	[0, 0, 0]	n/a	FR1	0	R1425D
411.515	1.632	411958	WORD	n/a	wordpools/wordpool_EN.txt	PANTS	12	1	[0, 0, 0]	n/a	FR1	0	R1425D
413.147	0.0	413589	START	n/a	n/a	n/a	-999	1	[-999, -999, -999]	n/a	FR1	0	R1425D
413.146	0.001	413593	WORD_OFF	n/a	n/a	PANTS	12	1	[0, 0, 0]	n/a	FR1	0	R1425D
413.147	0.0	413593	ENCODING_END	n/a	n/a	n/a	-999	1	[0, 0, 0]	n/a	FR1	0	R1425D
413.147	0.016	413593	DISTRACT_START	n/a	n/a	n/a	-999	1	[0, 0, 0]	n/a	FR1	0	R1425D
413.163	4.05	413605	PROB	4.05	n/a	n/a	-999	1	[6, 7, 3]	16	FR1	0	R1425D
417.213	2.484	417654	PROB	2.484	n/a	n/a	-999	1	[5, 8, 5]	18	FR1	0	R1425D
419.697	4.651	420138	PROB	4.651	n/a	n/a	-999	1	[4, 7, 6]	17	FR1	0	R1425D
424.348	3.001	424789	PROB	3.001	n/a	n/a	-999	1	[5, 7, 7]	19	FR1	0	R1425D
427.349	4.416	427790	PROB	4.416	n/a	n/a	-999	1	[9, 5, 1]	15	FR1	0	R1425D
431.765	3.485	432206	PROB	3.485	n/a	n/a	-999	1	[2, 7, 5]	14	FR1	0	R1425D
435.25	0.0	435678	DISTRACT_END	n/a	n/a	n/a	-999	1	[0, 0, 0]	n/a	FR1	0	R1425D
435.24	2.261	435681	STOP	n/a	n/a	n/a	-999	1	[-999, -999, -999]	n/a	FR1	0	R1425D
437.501	1.034	437941	REC_START	n/a	n/a	n/a	-999	1	[0, 0, 0]	n/a	FR1	0	R1425D
438.535	0.445	438975	REC_WORD	0.445	n/a	WHALE	3	1	[0, 0, 0]	n/a	FR1	0	R1425D
438.98	0.542	439420	REC_WORD	0.542	n/a	MUG	1	1	[0, 0, 0]	n/a	FR1	0	R1425D
439.522	3.477	439962	REC_WORD	3.477	n/a	SHARK	7	1	[0, 0, 0]	n/a	FR1	0	R1425D
442.999	0.643	443439	REC_WORD_VV	0.643	n/a	<>	-999	1	[0, 0, 0]	n/a	FR1	0	R1425D
443.642	1.787	444082	REC_WORD	1.787	n/a	BENCH	11	1	[0, 0, 0]	n/a	FR1	0	R1425D
445.429	9.479	445869	REC_WORD	9.479	n/a	HOUSE	9	1	[0, 0, 0]	n/a	FR1	0	R1425D
454.908	1.0	455348	REC_WORD_VV	1.0	n/a	<>	-999	1	[0, 0, 0]	n/a	FR1	0	R1425D
455.908	1.0	456347	REC_WORD_VV	1.0	n/a	<>	-999	1	[0, 0, 0]	n/a	FR1	0	R1425D
456.908	2.144	457347	REC_WORD_VV	2.144	n/a	<>	-999	1	[0, 0, 0]	n/a	FR1	0	R1425D
459.052	2.158	459491	REC_WORD_VV	2.158	n/a	<>	-999	1	[0, 0, 0]	n/a	FR1	0	R1425D
461.21	6.302	461649	REC_WORD	6.302	n/a	SINK	6	1	[0, 0, 0]	n/a	FR1	0	R1425D
467.512	4.294	467962	REC_END	n/a	n/a	n/a	-999	1	[0, 0, 0]	n/a	FR1	0	R1425D
471.806	10.428	472278	COUNTDOWN_START	n/a	n/a	n/a	-999	2	[0, 0, 0]	n/a	FR1	0	R1425D
482.234	1.226	482668	COUNTDOWN_END	n/a	n/a	n/a	-999	2	[0, 0, 0]	n/a	FR1	0	R1425D
483.46	0.884	483886	ENCODING_START	n/a	n/a	n/a	-999	2	[0, 0, 0]	n/a	FR1	0	R1425D
484.344	1.632	484791	WORD	n/a	wordpools/wordpool_EN.txt	ROCK	1	2	[0, 0, 0]	n/a	FR1	0	R1425D
485.976	0.796	486410	WORD_OFF	n/a	n/a	ROCK	1	2	[0, 0, 0]	n/a	FR1	0	R1425D
486.772	1.638	487228	WORD	n/a	wordpools/wordpool_EN.txt	TENT	2	2	[0, 0, 0]	n/a	FR1	0	R1425D
488.41	0.993	488846	WORD_OFF	n/a	n/a	TENT	2	2	[0, 0, 0]	n/a	FR1	0	R1425D
489.403	1.624	489838	WORD	n/a	wordpools/wordpool_EN.txt	STEM	3	2	[0, 0, 0]	n/a	FR1	0	R1425D
491.027	1.039	491457	WORD_OFF	n/a	n/a	STEM	3	2	[0, 0, 0]	n/a	FR1	0	R1425D
492.066	1.628	492501	WORD	n/a	wordpools/wordpool_EN.txt	BOOT	4	2	[0, 0, 0]	n/a	FR1	0	R1425D
493.694	0.888	494119	WORD_OFF	n/a	n/a	BOOT	4	2	[0, 0, 0]	n/a	FR1	0	R1425D
494.582	1.629	495024	WORD	n/a	wordpools/wordpool_EN.txt	SEA	5	2	[0, 0, 0]	n/a	FR1	0	R1425D
496.211	0.872	496643	WORD_OFF	n/a	n/a	SEA	5	2	[0, 0, 0]	n/a	FR1	0	R1425D
497.083	1.628	497530	WORD	n/a	wordpools/wordpool_EN.txt	CLOWN	6	2	[0, 0, 0]	n/a	FR1	0	R1425D
498.711	0.876	499132	WORD_OFF	n/a	n/a	CLOWN	6	2	[0, 0, 0]	n/a	FR1	0	R1425D
499.587	1.625	500019	WORD	n/a	wordpools/wordpool_EN.txt	STEAM	7	2	[0, 0, 0]	n/a	FR1	0	R1425D
501.212	0.807	501638	WORD_OFF	n/a	n/a	STEAM	7	2	[0, 0, 0]	n/a	FR1	0	R1425D
502.019	1.627	502456	WORD	n/a	wordpools/wordpool_EN.txt	HOOK	8	2	[0, 0, 0]	n/a	FR1	0	R1425D
503.646	1.034	504074	WORD_OFF	n/a	n/a	HOOK	8	2	[0, 0, 0]	n/a	FR1	0	R1425D
504.68	1.633	505118	WORD	n/a	wordpools/wordpool_EN.txt	HEN	9	2	[0, 0, 0]	n/a	FR1	0	R1425D
506.313	0.775	506737	WORD_OFF	n/a	n/a	HEN	9	2	[0, 0, 0]	n/a	FR1	0	R1425D
507.088	1.625	507520	WORD	n/a	wordpools/wordpool_EN.txt	POND	10	2	[0, 0, 0]	n/a	FR1	0	R1425D
508.713	0.882	509139	WORD_OFF	n/a	n/a	POND	10	2	[0, 0, 0]	n/a	FR1	0	R1425D
509.595	1.636	510044	WORD	n/a	wordpools/wordpool_EN.txt	DITCH	11	2	[0, 0, 0]	n/a	FR1	0	R1425D
511.231	0.998	511662	WORD_OFF	n/a	n/a	DITCH	11	2	[0, 0, 0]	n/a	FR1	0	R1425D
512.229	1.637	512672	WORD	n/a	wordpools/wordpool_EN.txt	CAGE	12	2	[0, 0, 0]	n/a	FR1	0	R1425D
513.866	0.0	514302	START	n/a	n/a	n/a	-999	2	[-999, -999, -999]	n/a	FR1	0	R1425D
513.864	0.001	514307	WORD_OFF	n/a	n/a	CAGE	12	2	[0, 0, 0]	n/a	FR1	0	R1425D
513.865	0.001	514307	ENCODING_END	n/a	n/a	n/a	-999	2	[0, 0, 0]	n/a	FR1	0	R1425D
513.866	0.015	514307	DISTRACT_START	n/a	n/a	n/a	-999	2	[0, 0, 0]	n/a	FR1	0	R1425D
513.881	4.933	514317	PROB	4.933	n/a	n/a	-999	2	[5, 9, 2]	16	FR1	0	R1425D
518.814	7.236	519250	PROB	7.236	n/a	n/a	-999	2	[8, 6, 7]	21	FR1	0	R1425D
526.05	3.683	526486	PROB	3.683	n/a	n/a	-999	2	[1, 5, 9]	15	FR1	0	R1425D
529.733	2.501	530169	PROB	2.501	n/a	n/a	-999	2	[9, 6, 2]	17	FR1	0	R1425D
532.234	4.232	532670	PROB	4.232	n/a	n/a	-999	2	[7, 4, 9]	20	FR1	0	R1425D
536.466	0.019	536901	STOP	n/a	n/a	n/a	-999	2	[-999, -999, -999]	n/a	FR1	0	R1425D
536.485	2.35	536915	DISTRACT_END	n/a	n/a	n/a	-999	2	[0, 0, 0]	n/a	FR1	0	R1425D
538.835	1.12	539264	REC_START	n/a	n/a	n/a	-999	2	[0, 0, 0]	n/a	FR1	0	R1425D
539.955	0.746	540390	REC_WORD	0.746	n/a	ROCK	1	2	[0, 0, 0]	n/a	FR1	0	R1425D
540.701	2.304	541136	REC_WORD	2.304	n/a	TENT	2	2	[0, 0, 0]	n/a	FR1	0	R1425D
543.005	3.31	543440	REC_WORD	3.31	n/a	DITCH	11	2	[0, 0, 0]	n/a	FR1	0	R1425D
546.315	1.096	546750	REC_WORD_VV	1.096	n/a	<>	-999	2	[0, 0, 0]	n/a	FR1	0	R1425D
547.411	5.265	547846	REC_WORD	5.265	n/a	CAKE	-999	2	[0, 0, 0]	n/a	FR1	0	R1425D
552.676	0.72	553110	REC_WORD	0.72	n/a	STEM	3	2	[0, 0, 0]	n/a	FR1	0	R1425D
553.396	13.503	553830	REC_WORD	13.503	n/a	STEAM	7	2	[0, 0, 0]	n/a	FR1	0	R1425D
566.899	1.946	567333	REC_WORD_VV	1.946	n/a	<>	-999	2	[0, 0, 0]	n/a	FR1	0	R1425D
568.845	3.814	569285	REC_END	n/a	n/a	n/a	-999	2	[0, 0, 0]	n/a	FR1	0	R1425D
572.659	10.428	573114	COUNTDOWN_START	n/a	n/a	n/a	-999	3	[0, 0, 0]	n/a	FR1	0	R1425D
583.087	1.141	583521	COUNTDOWN_END	n/a	n/a	n/a	-999	3	[0, 0, 0]	n/a	FR1	0	R1425D
584.228	0.753	584652	ENCODING_START	n/a	n/a	n/a	-999	3	[0, 0, 0]	n/a	FR1	0	R1425D
584.981	1.63	585418	WORD	n/a	wordpools/wordpool_EN.txt	SMILE	1	3	[0, 0, 0]	n/a	FR1	0	R1425D
586.611	1.065	587037	WORD_OFF	n/a	n/a	SMILE	1	3	[0, 0, 0]	n/a	FR1	0	R1425D
587.676	1.635	588116	WORD	n/a	wordpools/wordpool_EN.txt	BROOM	2	3	[0, 0, 0]	n/a	FR1	0	R1425D
589.311	1.134	589734	WORD_OFF	n/a	n/a	BROOM	2	3	[0, 0, 0]	n/a	FR1	0	R1425D
590.445	1.634	590883	WORD	n/a	wordpools/wordpool_EN.txt	PIT	3	3	[0, 0, 0]	n/a	FR1	0	R1425D
592.079	1.115	592501	WORD_OFF	n/a	n/a	PIT	3	3	[0, 0, 0]	n/a	FR1	0	R1425D
593.194	1.634	593633	WORD	n/a	wordpools/wordpool_EN.txt	MOUTH	4	3	[0, 0, 0]	n/a	FR1	0	R1425D
594.828	1.094	595251	WORD_OFF	n/a	n/a	MOUTH	4	3	[0, 0, 0]	n/a	FR1	0	R1425D
595.922	1.624	596348	WORD	n/a	wordpools/wordpool_EN.txt	INK	5	3	[0, 0, 0]	n/a	FR1	0	R1425D
597.546	0.897	597966	WORD_OFF	n/a	n/a	INK	5	3	[0, 0, 0]	n/a	FR1	0	R1425D
598.443	1.637	598888	WORD	n/a	wordpools/wordpool_EN.txt	DRUM	6	3	[0, 0, 0]	n/a	FR1	0	R1425D
600.08	0.935	600507	WORD_OFF	n/a	n/a	DRUM	6	3	[0, 0, 0]	n/a	FR1	0	R1425D
601.015	1.632	601447	WORD	n/a	wordpools/wordpool_EN.txt	FUR	7	3	[0, 0, 0]	n/a	FR1	0	R1425D
602.647	0.938	603065	WORD_OFF	n/a	n/a	FUR	7	3	[0, 0, 0]	n/a	FR1	0	R1425D
603.585	1.63	604022	WORD	n/a	wordpools/wordpool_EN.txt	WOLF	8	3	[0, 0, 0]	n/a	FR1	0	R1425D
605.215	0.755	605641	WORD_OFF	n/a	n/a	WOLF	8	3	[0, 0, 0]	n/a	FR1	0	R1425D
605.97	1.628	606407	WORD	n/a	wordpools/wordpool_EN.txt	ARM	9	3	[0, 0, 0]	n/a	FR1	0	R1425D
607.598	0.896	608025	WORD_OFF	n/a	n/a	ARM	9	3	[0, 0, 0]	n/a	FR1	0	R1425D
608.494	1.621	608913	WORD	n/a	wordpools/wordpool_EN.txt	BOX	10	3	[0, 0, 0]	n/a	FR1	0	R1425D
610.115	0.994	610531	WORD_OFF	n/a	n/a	BOX	10	3	[0, 0, 0]	n/a	FR1	0	R1425D
611.109	1.622	611541	WORD	n/a	wordpools/wordpool_EN.txt	STORE	11	3	[0, 0, 0]	n/a	FR1	0	R1425D
612.731	1.133	613159	WORD_OFF	n/a	n/a	STORE	11	3	[0, 0, 0]	n/a	FR1	0	R1425D
613.864	1.637	614308	WORD	n/a	wordpools/wordpool_EN.txt	BALL	12	3	[0, 0, 0]	n/a	FR1	0	R1425D
615.501	0.0	615932	START	n/a	n/a	n/a	-999	3	[-999, -999, -999]	n/a	FR1	0	R1425D
615.5	0.0	615944	WORD_OFF	n/a	n/a	BALL	12	3	[0, 0, 0]	n/a	FR1	0	R1425D
615.5	0.001	615944	ENCODING_END	n/a	n/a	n/a	-999	3	[0, 0, 0]	n/a	FR1	0	R1425D
615.501	0.015	615944	DISTRACT_START	n/a	n/a	n/a	-999	3	[0, 0, 0]	n/a	FR1	0	R1425D
615.516	4.384	615947	PROB	4.384	n/a	n/a	-999	3	[4, 1, 7]	12	FR1	0	R1425D
619.9	3.784	620331	PROB	3.784	n/a	n/a	-999	3	[8, 3, 5]	16	FR1	0	R1425D
623.684	2.951	624115	PROB	2.951	n/a	n/a	-999	3	[3, 3, 9]	15	FR1	0	R1425D
626.635	2.717	627066	PROB	2.717	n/a	n/a	-999	3	[4, 8, 1]	13	FR1	0	R1425D
629.352	2.25	629783	PROB	2.25	n/a	n/a	-999	3	[5, 2, 5]	12	FR1	0	R1425D
631.602	3.885	632032	PROB	3.885	n/a	n/a	-999	3	[1, 6, 9]	16	FR1	0	R1425D
635.487	2.867	635917	PROB	2.867	n/a	n/a	-999	3	[8, 1, 2]	11	FR1	0	R1425D
638.354	0.0	638777	DISTRACT_END	n/a	n/a	n/a	-999	3	[0, 0, 0]	n/a	FR1	0	R1425D
638.347	2.274	638777	STOP	n/a	n/a	n/a	-999	3	[-999, -999, -999]	n/a	FR1	0	R1425D
640.621	0.75	641040	REC_START	n/a	n/a	n/a	-999	3	[0, 0, 0]	n/a	FR1	0	R1425D
641.371	1.13	641801	REC_WORD	1.13	n/a	SMILE	1	3	[0, 0, 0]	n/a	FR1	0	R1425D
642.501	1.856	642931	REC_WORD	1.856	n/a	PIT	3	3	[0, 0, 0]	n/a	FR1	0	R1425D
644.357	1.328	644787	REC_WORD	1.328	n/a	ARM	9	3	[0, 0, 0]	n/a	FR1	0	R1425D
645.685	0.627	646115	REC_WORD_VV	0.627	n/a	<>	-999	3	[0, 0, 0]	n/a	FR1	0	R1425D
646.312	1.362	646742	REC_WORD	1.362	n/a	BOX	10	3	[0, 0, 0]	n/a	FR1	0	R1425D
647.674	1.242	648104	REC_WORD_VV	1.242	n/a	<>	-999	3	[0, 0, 0]	n/a	FR1	0	R1425D
648.916	21.717	649345	REC_WORD	21.717	n/a	STORE	11	3	[0, 0, 0]	n/a	FR1	0	R1425D
670.633	4.545	671078	REC_END	n/a	n/a	n/a	-999	3	[0, 0, 0]	n/a	FR1	0	R1425D
675.178	10.429	675638	COUNTDOWN_START	n/a	n/a	n/a	-999	4	[0, 0, 0]	n/a	FR1	0	R1425D
685.607	1.106	686028	COUNTDOWN_END	n/a	n/a	n/a	-999	4	[0, 0, 0]	n/a	FR1	0	R1425D
686.713	0.946	687141	ENCODING_START	n/a	n/a	n/a	-999	4	[0, 0, 0]	n/a	FR1	0	R1425D
687.659	1.637	688099	WORD	n/a	wordpools/wordpool_EN.txt	BANK	1	4	[0, 0, 0]	n/a	FR1	0	R1425D
689.296	0.888	689717	WORD_OFF	n/a	n/a	BANK	1	4	[0, 0, 0]	n/a	FR1	0	R1425D
690.184	1.629	690622	WORD	n/a	wordpools/wordpool_EN.txt	BEACH	2	4	[0, 0, 0]	n/a	FR1	0	R1425D
691.813	0.923	692223	WORD_OFF	n/a	n/a	BEACH	2	4	[0, 0, 0]	n/a	FR1	0	R1425D
692.736	1.611	693163	WORD	n/a	wordpools/wordpool_EN.txt	MOOSE	3	4	[0, 0, 0]	n/a	FR1	0	R1425D
694.347	0.754	694764	WORD_OFF	n/a	n/a	MOOSE	3	4	[0, 0, 0]	n/a	FR1	0	R1425D
695.101	1.629	695530	WORD	n/a	wordpools/wordpool_EN.txt	FUDGE	4	4	[0, 0, 0]	n/a	FR1	0	R1425D
696.73	1.001	697148	WORD_OFF	n/a	n/a	FUDGE	4	4	[0, 0, 0]	n/a	FR1	0	R1425D
697.731	1.634	698158	WORD	n/a	wordpools/wordpool_EN.txt	TEETH	5	4	[0, 0, 0]	n/a	FR1	0	R1425D
699.365	0.751	699776	WORD_OFF	n/a	n/a	TEETH	5	4	[0, 0, 0]	n/a	FR1	0	R1425D
700.116	1.632	700542	WORD	n/a	wordpools/wordpool_EN.txt	BRUSH	6	4	[0, 0, 0]	n/a	FR1	0	R1425D
701.748	0.986	702161	WORD_OFF	n/a	n/a	BRUSH	6	4	[0, 0, 0]	n/a	FR1	0	R1425D
702.734	1.632	703170	WORD	n/a	wordpools/wordpool_EN.txt	JAR	7	4	[0, 0, 0]	n/a	FR1	0	R1425D
704.366	0.823	704789	WORD_OFF	n/a	n/a	JAR	7	4	[0, 0, 0]	n/a	FR1	0	R1425D
705.189	1.626	705624	WORD	n/a	wordpools/wordpool_EN.txt	CORN	8	4	[0, 0, 0]	n/a	FR1	0	R1425D
706.815	0.84	707243	WORD_OFF	n/a	n/a	CORN	8	4	[0, 0, 0]	n/a	FR1	0	R1425D
707.655	1.628	708078	WORD	n/a	wordpools/wordpool_EN.txt	STOVE	9	4	[0, 0, 0]	n/a	FR1	0	R1425D
709.283	0.937	709696	WORD_OFF	n/a	n/a	STOVE	9	4	[0, 0, 0]	n/a	FR1	0	R1425D
710.22	1.63	710654	WORD	n/a	wordpools/wordpool_EN.txt	MOLE	10	4	[0, 0, 0]	n/a	FR1	0	R1425D
711.85	1.016	712272	WORD_OFF	n/a	n/a	MOLE	10	4	[0, 0, 0]	n/a	FR1	0	R1425D
712.866	1.635	713299	WORD	n/a	wordpools/wordpool_EN.txt	NET	11	4	[0, 0, 0]	n/a	FR1	0	R1425D
714.501	1.105	714917	WORD_OFF	n/a	n/a	NET	11	4	[0, 0, 0]	n/a	FR1	0	R1425D
715.606	1.63	716031	WORD	n/a	wordpools/wordpool_EN.txt	MAZE	12	4	[0, 0, 0]	n/a	FR1	0	R1425D
717.236	0.0	717662	START	n/a	n/a	n/a	-999	4	[-999, -999, -999]	n/a	FR1	0	R1425D
717.235	0.0	717667	WORD_OFF	n/a	n/a	MAZE	12	4	[0, 0, 0]	n/a	FR1	0	R1425D
717.235	0.001	717667	ENCODING_END	n/a	n/a	n/a	-999	4	[0, 0, 0]	n/a	FR1	0	R1425D
717.236	0.015	717667	DISTRACT_START	n/a	n/a	n/a	-999	4	[0, 0, 0]	n/a	FR1	0	R1425D
717.251	3.301	717677	PROB	3.301	n/a	n/a	-999	4	[8, 4, 2]	14	FR1	0	R1425D
720.552	4.084	720978	PROB	4.084	n/a	n/a	-999	4	[2, 4, 3]	9	FR1	0	R1425D
724.636	4.117	725062	PROB	4.117	n/a	n/a	-999	4	[8, 5, 9]	24	FR1	0	R1425D
728.753	5.618	729178	PROB	5.618	n/a	n/a	-999	4	[4, 9, 2]	15	FR1	0	R1425D
734.371	5.007	734796	PROB	5.007	n/a	n/a	-999	4	[2, 7, 6]	15	FR1	0	R1425D
739.378	0.011	739803	STOP	n/a	n/a	n/a	-999	4	[-999, -999, -999]	n/a	FR1	0	R1425D
739.389	2.35	739804	DISTRACT_END	n/a	n/a	n/a	-999	4	[0, 0, 0]	n/a	FR1	0	R1425D
741.739	2.238	742154	REC_START	n/a	n/a	n/a	-999	4	[0, 0, 0]	n/a	FR1	0	R1425D
743.977	1.856	744402	REC_WORD_VV	1.856	n/a	<>	-999	4	[0, 0, 0]	n/a	FR1	0	R1425D
745.833	3.085	746257	REC_WORD	3.085	n/a	MOOSE	3	4	[0, 0, 0]	n/a	FR1	0	R1425D
748.918	1.0	749342	REC_WORD_VV	1.0	n/a	<>	-999	4	[0, 0, 0]	n/a	FR1	0	R1425D
749.918	9.535	750342	REC_WORD_VV	9.535	n/a	<>	-999	4	[0, 0, 0]	n/a	FR1	0	R1425D
759.453	9.011	759877	REC_WORD	9.011	n/a	CHOCOLATE	-999	4	[0, 0, 0]	n/a	FR1	0	R1425D
768.464	1.692	768887	REC_WORD	1.692	n/a	TEETH	5	4	[0, 0, 0]	n/a	FR1	0	R1425D
770.156	1.594	770579	REC_WORD_VV	1.594	n/a	<>	-999	4	[0, 0, 0]	n/a	FR1	0	R1425D
771.75	6.747	772175	REC_END	n/a	n/a	n/a	-999	4	[0, 0, 0]	n/a	FR1	0	R1425D
778.497	10.428	778945	COUNTDOWN_START	n/a	n/a	n/a	-999	5	[0, 0, 0]	n/a	FR1	0	R1425D
788.925	1.241	789352	COUNTDOWN_END	n/a	n/a	n/a	-999	5	[0, 0, 0]	n/a	FR1	0	R1425D
790.166	1.04	790588	ENCODING_START	n/a	n/a	n/a	-999	5	[0, 0, 0]	n/a	FR1	0	R1425D
791.206	1.625	791632	WORD	n/a	wordpools/wordpool_EN.txt	FLEA	1	5	[0, 0, 0]	n/a	FR1	0	R1425D
792.831	0.889	793251	WORD_OFF	n/a	n/a	FLEA	1	5	[0, 0, 0]	n/a	FR1	0	R1425D
793.72	1.612	794138	WORD	n/a	wordpools/wordpool_EN.txt	SNAKE	2	5	[0, 0, 0]	n/a	FR1	0	R1425D
795.332	0.874	795739	WORD_OFF	n/a	n/a	SNAKE	2	5	[0, 0, 0]	n/a	FR1	0	R1425D
796.206	1.626	796627	WORD	n/a	wordpools/wordpool_EN.txt	WING	3	5	[0, 0, 0]	n/a	FR1	0	R1425D
797.832	0.98	798245	WORD_OFF	n/a	n/a	WING	3	5	[0, 0, 0]	n/a	FR1	0	R1425D
798.812	1.621	799237	WORD	n/a	wordpools/wordpool_EN.txt	PEA	4	5	[0, 0, 0]	n/a	FR1	0	R1425D
800.433	0.834	800838	WORD_OFF	n/a	n/a	PEA	4	5	[0, 0, 0]	n/a	FR1	0	R1425D
801.267	1.617	801691	WORD	n/a	wordpools/wordpool_EN.txt	TANK	5	5	[0, 0, 0]	n/a	FR1	0	R1425D
802.884	0.85	803292	WORD_OFF	n/a	n/a	TANK	5	5	[0, 0, 0]	n/a	FR1	0	R1425D
803.734	1.634	804163	WORD	n/a	wordpools/wordpool_EN.txt	TRAY	6	5	[0, 0, 0]	n/a	FR1	0	R1425D
805.368	0.962	805781	WORD_OFF	n/a	n/a	TRAY	6	5	[0, 0, 0]	n/a	FR1	0	R1425D
806.33	1.621	806738	WORD	n/a	wordpools/wordpool_EN.txt	GUARD	7	5	[0, 0, 0]	n/a	FR1	0	R1425D
807.951	1.038	808357	WORD_OFF	n/a	n/a	GUARD	7	5	[0, 0, 0]	n/a	FR1	0	R1425D
808.989	1.63	809418	WORD	n/a	wordpools/wordpool_EN.txt	TIE	8	5	[0, 0, 0]	n/a	FR1	0	R1425D
810.619	0.847	811037	WORD_OFF	n/a	n/a	TIE	8	5	[0, 0, 0]	n/a	FR1	0	R1425D
811.466	1.636	811890	WORD	n/a	wordpools/wordpool_EN.txt	STRAW	9	5	[0, 0, 0]	n/a	FR1	0	R1425D
813.102	0.866	813508	WORD_OFF	n/a	n/a	STRAW	9	5	[0, 0, 0]	n/a	FR1	0	R1425D
813.968	1.635	814396	WORD	n/a	wordpools/wordpool_EN.txt	CAR	10	5	[0, 0, 0]	n/a	FR1	0	R1425D
815.603	0.979	816014	WORD_OFF	n/a	n/a	CAR	10	5	[0, 0, 0]	n/a	FR1	0	R1425D
816.582	1.621	816989	WORD	n/a	wordpools/wordpool_EN.txt	LOCK	11	5	[0, 0, 0]	n/a	FR1	0	R1425D
818.203	0.862	818607	WORD_OFF	n/a	n/a	LOCK	11	5	[0, 0, 0]	n/a	FR1	0	R1425D
819.065	1.623	819478	WORD	n/a	wordpools/wordpool_EN.txt	HOSE	12	5	[0, 0, 0]	n/a	FR1	0	R1425D
820.688	0.0	821109	START	n/a	n/a	n/a	-999	5	[-999, -999, -999]	n/a	FR1	0	R1425D
820.687	0.001	821114	WORD_OFF	n/a	n/a	HOSE	12	5	[0, 0, 0]	n/a	FR1	0	R1425D
820.688	0.0	821114	ENCODING_END	n/a	n/a	n/a	-999	5	[0, 0, 0]	n/a	FR1	0	R1425D
820.688	0.016	821114	DISTRACT_START	n/a	n/a	n/a	-999	5	[0, 0, 0]	n/a	FR1	0	R1425D
820.704	4.049	821125	PROB	4.049	n/a	n/a	-999	5	[2, 1, 1]	4	FR1	0	R1425D
824.753	2.101	825173	PROB	2.101	n/a	n/a	-999	5	[5, 1, 6]	12	FR1	0	R1425D
826.854	3.435	827274	PROB	3.435	n/a	n/a	-999	5	[9, 6, 3]	18	FR1	0	R1425D
830.289	3.284	830709	PROB	3.284	n/a	n/a	-999	5	[4, 7, 4]	15	FR1	0	R1425D
833.573	3.5	833993	PROB	3.5	n/a	n/a	-999	5	[4, 3, 4]	11	FR1	0	R1425D
837.073	1.951	837493	PROB	1.951	n/a	n/a	-999	5	[4, 6, 1]	11	FR1	0	R1425D
839.024	4.814	839444	PROB	4.814	n/a	n/a	-999	5	[4, 3, 4]	11	FR1	0	R1425D
843.838	0.019	844257	STOP	n/a	n/a	n/a	-999	5	[-999, -999, -999]	n/a	FR1	0	R1425D
843.857	2.302	844278	DISTRACT_END	n/a	n/a	n/a	-999	5	[0, 0, 0]	n/a	FR1	0	R1425D
846.159	0.943	846575	REC_START	n/a	n/a	n/a	-999	5	[0, 0, 0]	n/a	FR1	0	R1425D
847.102	0.616	847521	REC_WORD	0.616	n/a	WING	3	5	[0, 0, 0]	n/a	FR1	0	R1425D
847.718	1.35	848137	REC_WORD	1.35	n/a	TRAY	6	5	[0, 0, 0]	n/a	FR1	0	R1425D
849.068	2.649	849487	REC_WORD	2.649	n/a	PEA	4	5	[0, 0, 0]	n/a	FR1	0	R1425D
851.717	1.476	852136	REC_WORD_VV	1.476	n/a	<>	-999	5	[0, 0, 0]	n/a	FR1	0	R1425D
853.193	1.808	853612	REC_WORD	1.808	n/a	TANK	5	5	[0, 0, 0]	n/a	FR1	0	R1425D
855.001	0.876	855420	REC_WORD	0.876	n/a	GUARD	7	5	[0, 0, 0]	n/a	FR1	0	R1425D
855.877	20.291	856296	REC_WORD	20.291	n/a	TIE	8	5	[0, 0, 0]	n/a	FR1	0	R1425D
876.168	5.248	876596	REC_END	n/a	n/a	n/a	-999	5	[0, 0, 0]	n/a	FR1	0	R1425D
881.416	10.429	881852	COUNTDOWN_START	n/a	n/a	n/a	-999	6	[0, 0, 0]	n/a	FR1	0	R1425D
891.845	1.056	892259	COUNTDOWN_END	n/a	n/a	n/a	-999	6	[0, 0, 0]	n/a	FR1	0	R1425D
892.901	0.986	893303	ENCODING_START	n/a	n/a	n/a	-999	6	[0, 0, 0]	n/a	FR1	0	R1425D
893.887	1.63	894313	WORD	n/a	wordpools/wordpool_EN.txt	BRIDGE	1	6	[0, 0, 0]	n/a	FR1	0	R1425D
895.517	1.079	895931	WORD_OFF	n/a	n/a	BRIDGE	1	6	[0, 0, 0]	n/a	FR1	0	R1425D
896.596	1.622	897010	WORD	n/a	wordpools/wordpool_EN.txt	ROSE	2	6	[0, 0, 0]	n/a	FR1	0	R1425D
898.218	0.799	898629	WORD_OFF	n/a	n/a	ROSE	2	6	[0, 0, 0]	n/a	FR1	0	R1425D
899.017	1.635	899447	WORD	n/a	wordpools/wordpool_EN.txt	CAT	3	6	[0, 0, 0]	n/a	FR1	0	R1425D
900.652	1.146	901065	WORD_OFF	n/a	n/a	CAT	3	6	[0, 0, 0]	n/a	FR1	0	R1425D
901.798	1.621	902231	WORD	n/a	wordpools/wordpool_EN.txt	MOON	4	6	[0, 0, 0]	n/a	FR1	0	R1425D
903.419	1.018	903832	WORD_OFF	n/a	n/a	MOON	4	6	[0, 0, 0]	n/a	FR1	0	R1425D
904.437	1.632	904859	WORD	n/a	wordpools/wordpool_EN.txt	MOUSE	5	6	[0, 0, 0]	n/a	FR1	0	R1425D
906.069	1.151	906478	WORD_OFF	n/a	n/a	MOUSE	5	6	[0, 0, 0]	n/a	FR1	0	R1425D
907.22	1.632	907644	WORD	n/a	wordpools/wordpool_EN.txt	STEAK	6	6	[0, 0, 0]	n/a	FR1	0	R1425D
908.852	0.791	909262	WORD_OFF	n/a	n/a	STEAK	6	6	[0, 0, 0]	n/a	FR1	0	R1425D
909.643	1.627	910063	WORD	n/a	wordpools/wordpool_EN.txt	COIN	7	6	[0, 0, 0]	n/a	FR1	0	R1425D
911.27	0.82	911681	WORD_OFF	n/a	n/a	COIN	7	6	[0, 0, 0]	n/a	FR1	0	R1425D
912.09	1.63	912517	WORD	n/a	wordpools/wordpool_EN.txt	SOCK	8	6	[0, 0, 0]	n/a	FR1	0	R1425D
913.72	1.027	914135	WORD_OFF	n/a	n/a	SOCK	8	6	[0, 0, 0]	n/a	FR1	0	R1425D
914.747	1.624	915162	WORD	n/a	wordpools/wordpool_EN.txt	SHEET	9	6	[0, 0, 0]	n/a	FR1	0	R1425D
916.371	0.814	916780	WORD_OFF	n/a	n/a	SHEET	9	6	[0, 0, 0]	n/a	FR1	0	R1425D
917.185	1.636	917616	WORD	n/a	wordpools/wordpool_EN.txt	LAWN	10	6	[0, 0, 0]	n/a	FR1	0	R1425D
918.821	1.105	919234	WORD_OFF	n/a	n/a	LAWN	10	6	[0, 0, 0]	n/a	FR1	0	R1425D
919.926	1.63	920348	WORD	n/a	wordpools/wordpool_EN.txt	MULE	11	6	[0, 0, 0]	n/a	FR1	0	R1425D
921.556	0.771	921967	WORD_OFF	n/a	n/a	MULE	11	6	[0, 0, 0]	n/a	FR1	0	R1425D
922.327	1.63	922750	WORD	n/a	wordpools/wordpool_EN.txt	SHIRT	12	6	[0, 0, 0]	n/a	FR1	0	R1425D
923.957	0.0	924372	START	n/a	n/a	n/a	-999	6	[-999, -999, -999]	n/a	FR1	0	R1425D
923.956	0.001	924386	WORD_OFF	n/a	n/a	SHIRT	12	6	[0, 0, 0]	n/a	FR1	0	R1425D
923.957	0.0	924386	ENCODING_END	n/a	n/a	n/a	-999	6	[0, 0, 0]	n/a	FR1	0	R1425D
923.957	0.016	924386	DISTRACT_START	n/a	n/a	n/a	-999	6	[0, 0, 0]	n/a	FR1	0	R1425D
923.973	4.667	924388	PROB	4.667	n/a	n/a	-999	6	[4, 8, 5]	17	FR1	0	R1425D
928.64	3.818	929055	PROB	3.818	n/a	n/a	-999	6	[2, 8, 4]	14	FR1	0	R1425D
932.458	4.366	932873	PROB	4.366	n/a	n/a	-999	6	[3, 5, 7]	15	FR1	0	R1425D
936.824	3.518	937239	PROB	3.518	n/a	n/a	-999	6	[5, 9, 8]	22	FR1	0	R1425D
940.342	5.45	940756	PROB	5.45	n/a	n/a	-999	6	[2, 9, 5]	16	FR1	0	R1425D
945.792	0.0	946192	DISTRACT_END	n/a	n/a	n/a	-999	6	[0, 0, 0]	n/a	FR1	0	R1425D
945.785	2.276	946199	STOP	n/a	n/a	n/a	-999	6	[-999, -999, -999]	n/a	FR1	0	R1425D
948.061	2.969	948472	REC_START	n/a	n/a	n/a	-999	6	[0, 0, 0]	n/a	FR1	0	R1425D
951.03	0.465	951444	REC_WORD	0.465	n/a	CAT	3	6	[0, 0, 0]	n/a	FR1	0	R1425D
951.495	0.621	951909	REC_WORD	0.621	n/a	MOUSE	5	6	[0, 0, 0]	n/a	FR1	0	R1425D
952.116	1.117	952530	REC_WORD	1.117	n/a	STEAK	6	6	[0, 0, 0]	n/a	FR1	0	R1425D
953.233	7.345	953647	REC_WORD	7.345	n/a	MULE	11	6	[0, 0, 0]	n/a	FR1	0	R1425D
960.578	5.47	960991	REC_WORD_VV	5.47	n/a	<>	-999	6	[0, 0, 0]	n/a	FR1	0	R1425D
966.048	0.454	966461	REC_WORD	0.454	n/a	SHIRT	12	6	[0, 0, 0]	n/a	FR1	0	R1425D
966.502	11.57	966915	REC_WORD	11.57	n/a	SOCK	8	6	[0, 0, 0]	n/a	FR1	0	R1425D
978.072	5.946	978493	REC_END	n/a	n/a	n/a	-999	6	[0, 0, 0]	n/a	FR1	0	R1425D
984.018	10.429	984463	COUNTDOWN_START	n/a	n/a	n/a	-999	7	[0, 0, 0]	n/a	FR1	0	R1425D
994.447	1.223	994853	COUNTDOWN_END	n/a	n/a	n/a	-999	7	[0, 0, 0]	n/a	FR1	0	R1425D
995.67	0.934	996071	ENCODING_START	n/a	n/a	n/a	-999	7	[0, 0, 0]	n/a	FR1	0	R1425D
996.604	1.632	997028	WORD	n/a	wordpools/wordpool_EN.txt	TOY	1	7	[0, 0, 0]	n/a	FR1	0	R1425D
998.236	0.883	998647	WORD_OFF	n/a	n/a	TOY	1	7	[0, 0, 0]	n/a	FR1	0	R1425D
999.119	1.634	999534	WORD	n/a	wordpools/wordpool_EN.txt	PARK	2	7	[0, 0, 0]	n/a	FR1	0	R1425D
1000.753	0.751	1001153	WORD_OFF	n/a	n/a	PARK	2	7	[0, 0, 0]	n/a	FR1	0	R1425D
1001.504	1.633	1001918	WORD	n/a	wordpools/wordpool_EN.txt	WORM	3	7	[0, 0, 0]	n/a	FR1	0	R1425D
1003.137	1.006	1003537	WORD_OFF	n/a	n/a	WORM	3	7	[0, 0, 0]	n/a	FR1	0	R1425D
1004.143	1.627	1004546	WORD	n/a	wordpools/wordpool_EN.txt	DIME	4	7	[0, 0, 0]	n/a	FR1	0	R1425D
1005.77	1.057	1006165	WORD_OFF	n/a	n/a	DIME	4	7	[0, 0, 0]	n/a	FR1	0	R1425D
1006.827	1.628	1007244	WORD	n/a	wordpools/wordpool_EN.txt	CUP	5	7	[0, 0, 0]	n/a	FR1	0	R1425D
1008.455	1.036	1008862	WORD_OFF	n/a	n/a	CUP	5	7	[0, 0, 0]	n/a	FR1	0	R1425D
1009.491	1.631	1009907	WORD	n/a	wordpools/wordpool_EN.txt	BOWL	6	7	[0, 0, 0]	n/a	FR1	0	R1425D
1011.122	0.933	1011525	WORD_OFF	n/a	n/a	BOWL	6	7	[0, 0, 0]	n/a	FR1	0	R1425D
1012.055	1.634	1012465	WORD	n/a	wordpools/wordpool_EN.txt	JEEP	7	7	[0, 0, 0]	n/a	FR1	0	R1425D
1013.689	0.861	1014083	WORD_OFF	n/a	n/a	JEEP	7	7	[0, 0, 0]	n/a	FR1	0	R1425D
1014.55	1.623	1014954	WORD	n/a	wordpools/wordpool_EN.txt	WEED	8	7	[0, 0, 0]	n/a	FR1	0	R1425D
1016.173	0.869	1016572	WORD_OFF	n/a	n/a	WEED	8	7	[0, 0, 0]	n/a	FR1	0	R1425D
1017.042	1.632	1017460	WORD	n/a	wordpools/wordpool_EN.txt	BOAT	9	7	[0, 0, 0]	n/a	FR1	0	R1425D
1018.674	1.143	1019078	WORD_OFF	n/a	n/a	BOAT	9	7	[0, 0, 0]	n/a	FR1	0	R1425D
1019.817	1.624	1020227	WORD	n/a	wordpools/wordpool_EN.txt	THUMB	10	7	[0, 0, 0]	n/a	FR1	0	R1425D
1021.441	1.142	1021845	WORD_OFF	n/a	n/a	THUMB	10	7	[0, 0, 0]	n/a	FR1	0	R1425D
1022.583	1.625	1022994	WORD	n/a	wordpools/wordpool_EN.txt	MUD	11	7	[0, 0, 0]	n/a	FR1	0	R1425D
1024.208	0.972	1024612	WORD_OFF	n/a	n/a	MUD	11	7	[0, 0, 0]	n/a	FR1	0	R1425D
1025.18	1.628	1025587	WORD	n/a	wordpools/wordpool_EN.txt	WALL	12	7	[0, 0, 0]	n/a	FR1	0	R1425D
1026.808	0.0	1027218	START	n/a	n/a	n/a	-999	7	[-999, -999, -999]	n/a	FR1	0	R1425D
1026.807	0.0	1027223	WORD_OFF	n/a	n/a	WALL	12	7	[0, 0, 0]	n/a	FR1	0	R1425D
1026.807	0.001	1027223	ENCODING_END	n/a	n/a	n/a	-999	7	[0, 0, 0]	n/a	FR1	0	R1425D
1026.808	0.016	1027223	DISTRACT_START	n/a	n/a	n/a	-999	7	[0, 0, 0]	n/a	FR1	0	R1425D
1026.824	4.335	1027234	PROB	4.335	n/a	n/a	-999	7	[2, 3, 3]	8	FR1	0	R1425D
1031.159	5.101	1031569	PROB	5.101	n/a	n/a	-999	7	[2, 2, 3]	7	FR1	0	R1425D
1036.26	2.4	1036669	PROB	2.4	n/a	n/a	-999	7	[1, 3, 3]	7	FR1	0	R1425D
1038.66	3.251	1039069	PROB	3.251	n/a	n/a	-999	7	[4, 3, 2]	9	FR1	0	R1425D
1041.911	3.167	1042320	PROB	3.167	n/a	n/a	-999	7	[6, 3, 9]	18	FR1	0	R1425D
1045.078	7.201	1045487	PROB	7.201	n/a	n/a	-999	7	[3, 9, 8]	20	FR1	0	R1425D
1052.279	0.017	1052688	STOP	n/a	n/a	n/a	-999	7	[-999, -999, -999]	n/a	FR1	0	R1425D
1052.296	2.201	1052702	DISTRACT_END	n/a	n/a	n/a	-999	7	[0, 0, 0]	n/a	FR1	0	R1425D
1054.497	0.772	1054912	REC_START	n/a	n/a	n/a	-999	7	[0, 0, 0]	n/a	FR1	0	R1425D
1055.269	0.643	1055678	REC_WORD	0.643	n/a	WORM	3	7	[0, 0, 0]	n/a	FR1	0	R1425D
1055.912	0.65	1056320	REC_WORD	0.65	n/a	BOWL	6	7	[0, 0, 0]	n/a	FR1	0	R1425D
1056.562	2.009	1056970	REC_WORD	2.009	n/a	CUP	5	7	[0, 0, 0]	n/a	FR1	0	R1425D
1058.571	1.3	1058979	REC_WORD	1.3	n/a	MUD	11	7	[0, 0, 0]	n/a	FR1	0	R1425D
1059.871	3.681	1060279	REC_WORD	3.681	n/a	TOY	1	7	[0, 0, 0]	n/a	FR1	0	R1425D
1063.552	4.779	1063960	REC_WORD	4.779	n/a	DIME	4	7	[0, 0, 0]	n/a	FR1	0	R1425D
1068.331	16.177	1068739	REC_WORD	16.177	n/a	THUMB	10	7	[0, 0, 0]	n/a	FR1	0	R1425D
1084.508	4.095	1084916	REC_END	n/a	n/a	n/a	-999	7	[0, 0, 0]	n/a	FR1	0	R1425D
1088.603	10.428	1089040	COUNTDOWN_START	n/a	n/a	n/a	-999	8	[0, 0, 0]	n/a	FR1	0	R1425D
1099.031	1.125	1099430	COUNTDOWN_END	n/a	n/a	n/a	-999	8	[0, 0, 0]	n/a	FR1	0	R1425D
1100.156	1.033	1100561	ENCODING_START	n/a	n/a	n/a	-999	8	[0, 0, 0]	n/a	FR1	0	R1425D
1101.189	1.632	1101606	WORD	n/a	wordpools/wordpool_EN.txt	BAND	1	8	[0, 0, 0]	n/a	FR1	0	R1425D
1102.821	1.013	1103224	WORD_OFF	n/a	n/a	BAND	1	8	[0, 0, 0]	n/a	FR1	0	R1425D
1103.834	1.639	1104251	WORD	n/a	wordpools/wordpool_EN.txt	SNAIL	2	8	[0, 0, 0]	n/a	FR1	0	R1425D
1105.473	0.836	1105869	WORD_OFF	n/a	n/a	SNAIL	2	8	[0, 0, 0]	n/a	FR1	0	R1425D
1106.309	1.631	1106722	WORD	n/a	wordpools/wordpool_EN.txt	PASTE	3	8	[0, 0, 0]	n/a	FR1	0	R1425D
1107.94	1.089	1108341	WORD_OFF	n/a	n/a	PASTE	3	8	[0, 0, 0]	n/a	FR1	0	R1425D
1109.029	1.628	1109437	WORD	n/a	wordpools/wordpool_EN.txt	TRASH	4	8	[0, 0, 0]	n/a	FR1	0	R1425D
1110.657	1.097	1111056	WORD_OFF	n/a	n/a	TRASH	4	8	[0, 0, 0]	n/a	FR1	0	R1425D
1111.754	1.637	1112169	WORD	n/a	wordpools/wordpool_EN.txt	HAND	5	8	[0, 0, 0]	n/a	FR1	0	R1425D
1113.391	0.873	1113788	WORD_OFF	n/a	n/a	HAND	5	8	[0, 0, 0]	n/a	FR1	0	R1425D
1114.264	1.627	1114676	WORD	n/a	wordpools/wordpool_EN.txt	SKUNK	6	8	[0, 0, 0]	n/a	FR1	0	R1425D
1115.891	0.77	1116294	WORD_OFF	n/a	n/a	SKUNK	6	8	[0, 0, 0]	n/a	FR1	0	R1425D
1116.661	1.631	1117077	WORD	n/a	wordpools/wordpool_EN.txt	CHEEK	7	8	[0, 0, 0]	n/a	FR1	0	R1425D
1118.292	0.75	1118696	WORD_OFF	n/a	n/a	CHEEK	7	8	[0, 0, 0]	n/a	FR1	0	R1425D
1119.042	1.633	1119462	WORD	n/a	wordpools/wordpool_EN.txt	MAIL	8	8	[0, 0, 0]	n/a	FR1	0	R1425D
1120.675	1.042	1121063	WORD_OFF	n/a	n/a	MAIL	8	8	[0, 0, 0]	n/a	FR1	0	R1425D
1121.717	1.609	1122124	WORD	n/a	wordpools/wordpool_EN.txt	AXE	9	8	[0, 0, 0]	n/a	FR1	0	R1425D
1123.326	1.009	1123725	WORD_OFF	n/a	n/a	AXE	9	8	[0, 0, 0]	n/a	FR1	0	R1425D
1124.335	1.625	1124735	WORD	n/a	wordpools/wordpool_EN.txt	ELF	10	8	[0, 0, 0]	n/a	FR1	0	R1425D
1125.96	1.076	1126353	WORD_OFF	n/a	n/a	ELF	10	8	[0, 0, 0]	n/a	FR1	0	R1425D
1127.036	1.624	1127432	WORD	n/a	wordpools/wordpool_EN.txt	SOAP	11	8	[0, 0, 0]	n/a	FR1	0	R1425D
1128.66	0.987	1129051	WORD_OFF	n/a	n/a	SOAP	11	8	[0, 0, 0]	n/a	FR1	0	R1425D
1129.647	1.632	1130060	WORD	n/a	wordpools/wordpool_EN.txt	BUSH	12	8	[0, 0, 0]	n/a	FR1	0	R1425D
1131.279	0.0	1131684	START	n/a	n/a	n/a	-999	8	[-999, -999, -999]	n/a	FR1	0	R1425D
1131.277	0.001	1131696	WORD_OFF	n/a	n/a	BUSH	12	8	[0, 0, 0]	n/a	FR1	0	R1425D
1131.278	0.001	1131696	ENCODING_END	n/a	n/a	n/a	-999	8	[0, 0, 0]	n/a	FR1	0	R1425D
1131.279	0.015	1131696	DISTRACT_START	n/a	n/a	n/a	-999	8	[0, 0, 0]	n/a	FR1	0	R1425D
1131.294	6.418	1131699	PROB	6.418	n/a	n/a	-999	8	[8, 1, 1]	10	FR1	0	R1425D
1137.712	2.75	1138116	PROB	2.75	n/a	n/a	-999	8	[1, 8, 6]	5	FR1	0	R1425D
1140.462	6.718	1140866	PROB	6.718	n/a	n/a	-999	8	[3, 9, 4]	16	FR1	0	R1425D
1147.18	3.334	1147584	PROB	3.334	n/a	n/a	-999	8	[6, 2, 8]	16	FR1	0	R1425D
1150.514	3.502	1150918	PROB	3.502	n/a	n/a	-999	8	[6, 7, 8]	21	FR1	0	R1425D
1154.016	0.016	1154419	STOP	n/a	n/a	n/a	-999	8	[-999, -999, -999]	n/a	FR1	0	R1425D
1154.032	2.351	1154425	DISTRACT_END	n/a	n/a	n/a	-999	8	[0, 0, 0]	n/a	FR1	0	R1425D
1156.383	0.491	1156792	REC_START	n/a	n/a	n/a	-999	8	[0, 0, 0]	n/a	FR1	0	R1425D
1156.874	0.794	1157277	REC_WORD	0.794	n/a	AXE	9	8	[0, 0, 0]	n/a	FR1	0	R1425D
1157.668	1.228	1158071	REC_WORD	1.228	n/a	BAND	1	8	[0, 0, 0]	n/a	FR1	0	R1425D
1158.896	4.705	1159299	REC_WORD	4.705	n/a	HAND	5	8	[0, 0, 0]	n/a	FR1	0	R1425D
1163.601	22.791	1164004	REC_WORD_VV	22.791	n/a	<>	-999	8	[0, 0, 0]	n/a	FR1	0	R1425D
1186.392	4.897	1186796	REC_END	n/a	n/a	n/a	-999	8	[0, 0, 0]	n/a	FR1	0	R1425D
1191.289	10.428	1191721	COUNTDOWN_START	n/a	n/a	n/a	-999	9	[0, 0, 0]	n/a	FR1	0	R1425D
1201.717	1.123	1202111	COUNTDOWN_END	n/a	n/a	n/a	-999	9	[0, 0, 0]	n/a	FR1	0	R1425D
1202.84	1.09	1203242	ENCODING_START	n/a	n/a	n/a	-999	9	[0, 0, 0]	n/a	FR1	0	R1425D
1203.93	1.628	1204338	WORD	n/a	wordpools/wordpool_EN.txt	JAIL	1	9	[0, 0, 0]	n/a	FR1	0	R1425D
1205.558	0.798	1205957	WORD_OFF	n/a	n/a	JAIL	1	9	[0, 0, 0]	n/a	FR1	0	R1425D
1206.356	1.635	1206757	WORD	n/a	wordpools/wordpool_EN.txt	BAT	2	9	[0, 0, 0]	n/a	FR1	0	R1425D
1207.991	0.814	1208376	WORD_OFF	n/a	n/a	BAT	2	9	[0, 0, 0]	n/a	FR1	0	R1425D
1208.805	1.637	1209211	WORD	n/a	wordpools/wordpool_EN.txt	ZOO	3	9	[0, 0, 0]	n/a	FR1	0	R1425D
1210.442	0.877	1210830	WORD_OFF	n/a	n/a	ZOO	3	9	[0, 0, 0]	n/a	FR1	0	R1425D
1211.319	1.623	1211717	WORD	n/a	wordpools/wordpool_EN.txt	CART	4	9	[0, 0, 0]	n/a	FR1	0	R1425D
1212.942	0.822	1213336	WORD_OFF	n/a	n/a	CART	4	9	[0, 0, 0]	n/a	FR1	0	R1425D
1213.764	1.629	1214171	WORD	n/a	wordpools/wordpool_EN.txt	CORD	5	9	[0, 0, 0]	n/a	FR1	0	R1425D
1215.393	0.918	1215790	WORD_OFF	n/a	n/a	CORD	5	9	[0, 0, 0]	n/a	FR1	0	R1425D
1216.311	1.632	1216712	WORD	n/a	wordpools/wordpool_EN.txt	DEER	6	9	[0, 0, 0]	n/a	FR1	0	R1425D
1217.943	0.844	1218331	WORD_OFF	n/a	n/a	DEER	6	9	[0, 0, 0]	n/a	FR1	0	R1425D
1218.787	1.607	1219184	WORD	n/a	wordpools/wordpool_EN.txt	STORM	7	9	[0, 0, 0]	n/a	FR1	0	R1425D
1220.394	1.101	1220785	WORD_OFF	n/a	n/a	STORM	7	9	[0, 0, 0]	n/a	FR1	0	R1425D
1221.495	1.632	1221898	WORD	n/a	wordpools/wordpool_EN.txt	STOOL	8	9	[0, 0, 0]	n/a	FR1	0	R1425D
1223.127	1.092	1223517	WORD_OFF	n/a	n/a	STOOL	8	9	[0, 0, 0]	n/a	FR1	0	R1425D
1224.219	1.625	1224613	WORD	n/a	wordpools/wordpool_EN.txt	CHALK	9	9	[0, 0, 0]	n/a	FR1	0	R1425D
1225.844	1.039	1226232	WORD_OFF	n/a	n/a	CHALK	9	9	[0, 0, 0]	n/a	FR1	0	R1425D
1226.883	1.629	1227276	WORD	n/a	wordpools/wordpool_EN.txt	STRING	10	9	[0, 0, 0]	n/a	FR1	0	R1425D
1228.512	1.023	1228895	WORD_OFF	n/a	n/a	STRING	10	9	[0, 0, 0]	n/a	FR1	0	R1425D
1229.535	1.627	1229939	WORD	n/a	wordpools/wordpool_EN.txt	CALF	11	9	[0, 0, 0]	n/a	FR1	0	R1425D
1231.162	0.847	1231557	WORD_OFF	n/a	n/a	CALF	11	9	[0, 0, 0]	n/a	FR1	0	R1425D
1232.009	1.637	1232410	WORD	n/a	wordpools/wordpool_EN.txt	CHIN	12	9	[0, 0, 0]	n/a	FR1	0	R1425D
1233.646	0.001	1234046	WORD_OFF	n/a	n/a	CHIN	12	9	[0, 0, 0]	n/a	FR1	0	R1425D
1233.647	0.016	1234046	START	n/a	n/a	n/a	-999	9	[-999, -999, -999]	n/a	FR1	0	R1425D
1233.663	0.0	1234062	PROB	0.0	n/a	n/a	-999	9	[8, 7, 2]	17	FR1	0	R1425D
1233.646	0.001	1234064	ENCODING_END	n/a	n/a	n/a	-999	9	[0, 0, 0]	n/a	FR1	0	R1425D
1233.647	4.933	1234064	DISTRACT_START	n/a	n/a	n/a	-999	9	[0, 0, 0]	n/a	FR1	0	R1425D
1238.58	2.401	1238979	PROB	2.401	n/a	n/a	-999	9	[8, 2, 8]	18	FR1	0	R1425D
1240.981	2.95	1241380	PROB	2.95	n/a	n/a	-999	9	[2, 3, 8]	13	FR1	0	R1425D
1243.931	3.384	1244330	PROB	3.384	n/a	n/a	-999	9	[5, 9, 8]	22	FR1	0	R1425D
1247.315	6.6	1247714	PROB	6.6	n/a	n/a	-999	9	[9, 1, 9]	19	FR1	0	R1425D
1253.915	0.018	1254313	STOP	n/a	n/a	n/a	-999	9	[-999, -999, -999]	n/a	FR1	0	R1425D
1253.933	2.251	1254321	DISTRACT_END	n/a	n/a	n/a	-999	9	[0, 0, 0]	n/a	FR1	0	R1425D
1256.184	0.007	1256584	REC_START	n/a	n/a	n/a	-999	9	[0, 0, 0]	n/a	FR1	0	R1425D
1256.191	2.568	1256589	REC_WORD_VV	2.568	n/a	<>	-999	9	[0, 0, 0]	n/a	FR1	0	R1425D
1258.759	0.439	1259157	REC_WORD	0.439	n/a	DEER	6	9	[0, 0, 0]	n/a	FR1	0	R1425D
1259.198	3.754	1259596	REC_WORD	3.754	n/a	STOOL	8	9	[0, 0, 0]	n/a	FR1	0	R1425D
1262.952	8.547	1263350	REC_WORD_VV	8.547	n/a	<>	-999	9	[0, 0, 0]	n/a	FR1	0	R1425D
1271.499	0.552	1271896	REC_WORD	0.552	n/a	JAIL	1	9	[0, 0, 0]	n/a	FR1	0	R1425D
1272.051	2.004	1272448	REC_WORD	2.004	n/a	BAT	2	9	[0, 0, 0]	n/a	FR1	0	R1425D
1274.055	0.813	1274452	REC_WORD	0.813	n/a	ZOO	3	9	[0, 0, 0]	n/a	FR1	0	R1425D
1274.868	11.325	1275265	REC_WORD	11.325	n/a	CART	4	9	[0, 0, 0]	n/a	FR1	0	R1425D
1286.193	2.797	1286605	REC_END	n/a	n/a	n/a	-999	9	[0, 0, 0]	n/a	FR1	0	R1425D
1288.99	10.429	1289407	COUNTDOWN_START	n/a	n/a	n/a	-999	10	[0, 0, 0]	n/a	FR1	0	R1425D
1299.419	1.156	1299814	COUNTDOWN_END	n/a	n/a	n/a	-999	10	[0, 0, 0]	n/a	FR1	0	R1425D
1300.575	1.076	1300963	ENCODING_START	n/a	n/a	n/a	-999	10	[0, 0, 0]	n/a	FR1	0	R1425D
1301.651	1.625	1302042	WORD	n/a	wordpools/wordpool_EN.txt	SKY	1	10	[0, 0, 0]	n/a	FR1	0	R1425D
1303.276	0.8	1303660	WORD_OFF	n/a	n/a	SKY	1	10	[0, 0, 0]	n/a	FR1	0	R1425D
1304.076	1.633	1304478	WORD	n/a	wordpools/wordpool_EN.txt	SEED	2	10	[0, 0, 0]	n/a	FR1	0	R1425D
1305.709	1.028	1306097	WORD_OFF	n/a	n/a	SEED	2	10	[0, 0, 0]	n/a	FR1	0	R1425D
1306.737	1.623	1307123	WORD	n/a	wordpools/wordpool_EN.txt	CASH	3	10	[0, 0, 0]	n/a	FR1	0	R1425D
1308.36	0.96	1308742	WORD_OFF	n/a	n/a	CASH	3	10	[0, 0, 0]	n/a	FR1	0	R1425D
1309.32	1.624	1309716	WORD	n/a	wordpools/wordpool_EN.txt	STREET	4	10	[0, 0, 0]	n/a	FR1	0	R1425D
1310.944	1.042	1311335	WORD_OFF	n/a	n/a	STREET	4	10	[0, 0, 0]	n/a	FR1	0	R1425D
1311.986	1.625	1312379	WORD	n/a	wordpools/wordpool_EN.txt	JUDGE	5	10	[0, 0, 0]	n/a	FR1	0	R1425D
1313.611	1.082	1313998	WORD_OFF	n/a	n/a	JUDGE	5	10	[0, 0, 0]	n/a	FR1	0	R1425D
1314.693	1.635	1315094	WORD	n/a	wordpools/wordpool_EN.txt	KITE	6	10	[0, 0, 0]	n/a	FR1	0	R1425D
1316.328	0.898	1316713	WORD_OFF	n/a	n/a	KITE	6	10	[0, 0, 0]	n/a	FR1	0	R1425D
1317.226	1.635	1317635	WORD	n/a	wordpools/wordpool_EN.txt	SEAL	7	10	[0, 0, 0]	n/a	FR1	0	R1425D
1318.861	0.99	1319254	WORD_OFF	n/a	n/a	SEAL	7	10	[0, 0, 0]	n/a	FR1	0	R1425D
1319.851	1.628	1320246	WORD	n/a	wordpools/wordpool_EN.txt	SHELL	8	10	[0, 0, 0]	n/a	FR1	0	R1425D
1321.479	0.929	1321864	WORD_OFF	n/a	n/a	SHELL	8	10	[0, 0, 0]	n/a	FR1	0	R1425D
1322.408	1.621	1322804	WORD	n/a	wordpools/wordpool_EN.txt	HORSE	9	10	[0, 0, 0]	n/a	FR1	0	R1425D
1324.029	1.034	1324422	WORD_OFF	n/a	n/a	HORSE	9	10	[0, 0, 0]	n/a	FR1	0	R1425D
1325.063	1.633	1325467	WORD	n/a	wordpools/wordpool_EN.txt	SQUARE	10	10	[0, 0, 0]	n/a	FR1	0	R1425D
1326.696	1.027	1327085	WORD_OFF	n/a	n/a	SQUARE	10	10	[0, 0, 0]	n/a	FR1	0	R1425D
1327.723	1.624	1328112	WORD	n/a	wordpools/wordpool_EN.txt	FOX	11	10	[0, 0, 0]	n/a	FR1	0	R1425D
1329.347	1.06	1329730	WORD_OFF	n/a	n/a	FOX	11	10	[0, 0, 0]	n/a	FR1	0	R1425D
1330.407	1.624	1330792	WORD	n/a	wordpools/wordpool_EN.txt	STONE	12	10	[0, 0, 0]	n/a	FR1	0	R1425D
1332.031	0.0	1332425	START	n/a	n/a	n/a	-999	10	[-999, -999, -999]	n/a	FR1	0	R1425D
1332.031	0.0	1332428	WORD_OFF	n/a	n/a	STONE	12	10	[0, 0, 0]	n/a	FR1	0	R1425D
1332.031	0.0	1332428	ENCODING_END	n/a	n/a	n/a	-999	10	[0, 0, 0]	n/a	FR1	0	R1425D
1332.031	0.016	1332428	DISTRACT_START	n/a	n/a	n/a	-999	10	[0, 0, 0]	n/a	FR1	0	R1425D
1332.047	4.635	1332441	PROB	4.635	n/a	n/a	-999	10	[3, 3, 1]	7	FR1	0	R1425D
1336.682	3.483	1337076	PROB	3.483	n/a	n/a	-999	10	[4, 5, 1]	10	FR1	0	R1425D
1340.165	4.835	1340559	PROB	4.835	n/a	n/a	-999	10	[8, 4, 7]	19	FR1	0	R1425D
1345.0	3.0	1345394	PROB	3.0	n/a	n/a	-999	10	[8, 8, 5]	21	FR1	0	R1425D
1348.0	1.867	1348393	PROB	1.867	n/a	n/a	-999	10	[4, 1, 6]	11	FR1	0	R1425D
1349.867	7.306	1350260	PROB	7.306	n/a	n/a	-999	10	[2, 5, 7]	14	FR1	0	R1425D
1357.173	0.012	1357566	STOP	n/a	n/a	n/a	-999	10	[-999, -999, -999]	n/a	FR1	0	R1425D
1357.185	2.268	1357576	DISTRACT_END	n/a	n/a	n/a	-999	10	[0, 0, 0]	n/a	FR1	0	R1425D
1359.453	0.265	1359839	REC_START	n/a	n/a	n/a	-999	10	[0, 0, 0]	n/a	FR1	0	R1425D
1359.718	1.0	1360111	REC_WORD_VV	1.0	n/a	<>	-999	10	[0, 0, 0]	n/a	FR1	0	R1425D
1360.718	1.0	1361111	REC_WORD_VV	1.0	n/a	<>	-999	10	[0, 0, 0]	n/a	FR1	0	R1425D
1361.718	1.589	1362111	REC_WORD_VV	1.589	n/a	<>	-999	10	[0, 0, 0]	n/a	FR1	0	R1425D
1363.307	0.593	1363700	REC_WORD	0.593	n/a	SEA	-999	10	[0, 0, 0]	n/a	FR1	0	R1425D
1363.9	0.738	1364293	REC_WORD	0.738	n/a	SHELL	8	10	[0, 0, 0]	n/a	FR1	0	R1425D
1364.638	2.371	1365031	REC_WORD	2.371	n/a	FOX	11	10	[0, 0, 0]	n/a	FR1	0	R1425D
1367.009	11.424	1367401	REC_WORD	11.424	n/a	SEED	2	10	[0, 0, 0]	n/a	FR1	0	R1425D
1378.433	3.541	1378825	REC_WORD	3.541	n/a	CASH	3	10	[0, 0, 0]	n/a	FR1	0	R1425D
1381.974	7.489	1382366	REC_WORD_VV	7.489	n/a	<>	-999	10	[0, 0, 0]	n/a	FR1	0	R1425D
1389.463	4.362	1389860	REC_END	n/a	n/a	n/a	-999	10	[0, 0, 0]	n/a	FR1	0	R1425D
1393.825	10.428	1394245	COUNTDOWN_START	n/a	n/a	n/a	-999	11	[0, 0, 0]	n/a	FR1	0	R1425D
1404.253	1.258	1404635	COUNTDOWN_END	n/a	n/a	n/a	-999	11	[0, 0, 0]	n/a	FR1	0	R1425D
1405.511	1.029	1405888	ENCODING_START	n/a	n/a	n/a	-999	11	[0, 0, 0]	n/a	FR1	0	R1425D
1406.54	1.638	1406950	WORD	n/a	wordpools/wordpool_EN.txt	CRANE	1	11	[0, 0, 0]	n/a	FR1	0	R1425D
1408.178	1.019	1408568	WORD_OFF	n/a	n/a	CRANE	1	11	[0, 0, 0]	n/a	FR1	0	R1425D
1409.197	1.63	1409595	WORD	n/a	wordpools/wordpool_EN.txt	VINE	2	11	[0, 0, 0]	n/a	FR1	0	R1425D
1410.827	1.002	1411214	WORD_OFF	n/a	n/a	VINE	2	11	[0, 0, 0]	n/a	FR1	0	R1425D
1411.829	1.633	1412223	WORD	n/a	wordpools/wordpool_EN.txt	BLUSH	3	11	[0, 0, 0]	n/a	FR1	0	R1425D
1413.462	1.127	1413842	WORD_OFF	n/a	n/a	BLUSH	3	11	[0, 0, 0]	n/a	FR1	0	R1425D
1414.589	1.624	1414973	WORD	n/a	wordpools/wordpool_EN.txt	PURSE	4	11	[0, 0, 0]	n/a	FR1	0	R1425D
1416.213	0.815	1416591	WORD_OFF	n/a	n/a	PURSE	4	11	[0, 0, 0]	n/a	FR1	0	R1425D
1417.028	1.635	1417427	WORD	n/a	wordpools/wordpool_EN.txt	SAIL	5	11	[0, 0, 0]	n/a	FR1	0	R1425D
1418.663	1.061	1419045	WORD_OFF	n/a	n/a	SAIL	5	11	[0, 0, 0]	n/a	FR1	0	R1425D
1419.724	1.623	1420107	WORD	n/a	wordpools/wordpool_EN.txt	OWL	6	11	[0, 0, 0]	n/a	FR1	0	R1425D
1421.347	1.013	1421725	WORD_OFF	n/a	n/a	OWL	6	11	[0, 0, 0]	n/a	FR1	0	R1425D
1422.36	1.637	1422752	WORD	n/a	wordpools/wordpool_EN.txt	HOLE	7	11	[0, 0, 0]	n/a	FR1	0	R1425D
1423.997	0.944	1424371	WORD_OFF	n/a	n/a	HOLE	7	11	[0, 0, 0]	n/a	FR1	0	R1425D
1424.941	1.624	1425328	WORD	n/a	wordpools/wordpool_EN.txt	PHONE	8	11	[0, 0, 0]	n/a	FR1	0	R1425D
1426.565	0.922	1426946	WORD_OFF	n/a	n/a	PHONE	8	11	[0, 0, 0]	n/a	FR1	0	R1425D
1427.487	1.628	1427886	WORD	n/a	wordpools/wordpool_EN.txt	ROOF	9	11	[0, 0, 0]	n/a	FR1	0	R1425D
1429.115	1.114	1429487	WORD_OFF	n/a	n/a	ROOF	9	11	[0, 0, 0]	n/a	FR1	0	R1425D
1430.229	1.637	1430636	WORD	n/a	wordpools/wordpool_EN.txt	SPARK	10	11	[0, 0, 0]	n/a	FR1	0	R1425D
1431.866	0.947	1432254	WORD_OFF	n/a	n/a	SPARK	10	11	[0, 0, 0]	n/a	FR1	0	R1425D
1432.813	1.636	1433212	WORD	n/a	wordpools/wordpool_EN.txt	GRAPE	11	11	[0, 0, 0]	n/a	FR1	0	R1425D
1434.449	0.803	1434830	WORD_OFF	n/a	n/a	GRAPE	11	11	[0, 0, 0]	n/a	FR1	0	R1425D
1435.252	1.632	1435648	WORD	n/a	wordpools/wordpool_EN.txt	FLAG	12	11	[0, 0, 0]	n/a	FR1	0	R1425D
1436.884	0.0	1437273	START	n/a	n/a	n/a	-999	11	[-999, -999, -999]	n/a	FR1	0	R1425D
1436.883	0.001	1437284	WORD_OFF	n/a	n/a	FLAG	12	11	[0, 0, 0]	n/a	FR1	0	R1425D
1436.884	0.0	1437284	ENCODING_END	n/a	n/a	n/a	-999	11	[0, 0, 0]	n/a	FR1	0	R1425D
1436.884	0.016	1437284	DISTRACT_START	n/a	n/a	n/a	-999	11	[0, 0, 0]	n/a	FR1	0	R1425D
1436.9	3.034	1437289	PROB	3.034	n/a	n/a	-999	11	[1, 5, 6]	12	FR1	0	R1425D
1439.934	4.551	1440323	PROB	4.551	n/a	n/a	-999	11	[7, 7, 2]	16	FR1	0	R1425D
1444.485	3.1	1444873	PROB	3.1	n/a	n/a	-999	11	[2, 9, 9]	20	FR1	0	R1425D
1447.585	5.167	1447973	PROB	5.167	n/a	n/a	-999	11	[9, 6, 9]	24	FR1	0	R1425D
1452.752	3.468	1453140	PROB	3.468	n/a	n/a	-999	11	[6, 8, 6]	20	FR1	0	R1425D
1456.22	3.526	1456608	PROB	3.526	n/a	n/a	-999	11	[1, 1, 7]	9	FR1	0	R1425D
1459.746	0.007	1460134	STOP	n/a	n/a	n/a	-999	11	[-999, -999, -999]	n/a	FR1	0	R1425D
1459.753	2.285	1460135	DISTRACT_END	n/a	n/a	n/a	-999	11	[0, 0, 0]	n/a	FR1	0	R1425D
1462.038	0.617	1462432	REC_START	n/a	n/a	n/a	-999	11	[0, 0, 0]	n/a	FR1	0	R1425D
1462.655	0.73	1463042	REC_WORD	0.73	n/a	CRANE	1	11	[0, 0, 0]	n/a	FR1	0	R1425D
1463.385	2.121	1463772	REC_WORD	2.121	n/a	BLUSH	3	11	[0, 0, 0]	n/a	FR1	0	R1425D
1465.506	9.039	1465893	REC_WORD	9.039	n/a	ROOF	9	11	[0, 0, 0]	n/a	FR1	0	R1425D
1474.545	17.506	1474932	REC_WORD_VV	17.506	n/a	<>	-999	11	[0, 0, 0]	n/a	FR1	0	R1425D
1492.051	5.377	1492453	REC_END	n/a	n/a	n/a	-999	11	[0, 0, 0]	n/a	FR1	0	R1425D
1497.428	10.428	1497831	COUNTDOWN_START	n/a	n/a	n/a	-999	12	[0, 0, 0]	n/a	FR1	0	R1425D
1507.856	1.225	1508238	COUNTDOWN_END	n/a	n/a	n/a	-999	12	[0, 0, 0]	n/a	FR1	0	R1425D
1509.081	0.807	1509456	ENCODING_START	n/a	n/a	n/a	-999	12	[0, 0, 0]	n/a	FR1	0	R1425D
1509.888	1.626	1510274	WORD	n/a	wordpools/wordpool_EN.txt	MAP	1	12	[0, 0, 0]	n/a	FR1	0	R1425D
1511.514	0.872	1511893	WORD_OFF	n/a	n/a	MAP	1	12	[0, 0, 0]	n/a	FR1	0	R1425D
1512.386	1.628	1512780	WORD	n/a	wordpools/wordpool_EN.txt	FLAME	2	12	[0, 0, 0]	n/a	FR1	0	R1425D
1514.014	1.031	1514381	WORD_OFF	n/a	n/a	FLAME	2	12	[0, 0, 0]	n/a	FR1	0	R1425D
1515.045	1.636	1515443	WORD	n/a	wordpools/wordpool_EN.txt	PIG	3	12	[0, 0, 0]	n/a	FR1	0	R1425D
1516.681	1.041	1517062	WORD_OFF	n/a	n/a	PIG	3	12	[0, 0, 0]	n/a	FR1	0	R1425D
1517.722	1.626	1518106	WORD	n/a	wordpools/wordpool_EN.txt	CAPE	4	12	[0, 0, 0]	n/a	FR1	0	R1425D
1519.348	1.135	1519724	WORD_OFF	n/a	n/a	CAPE	4	12	[0, 0, 0]	n/a	FR1	0	R1425D
1520.483	1.633	1520873	WORD	n/a	wordpools/wordpool_EN.txt	MILK	5	12	[0, 0, 0]	n/a	FR1	0	R1425D
1522.116	0.925	1522492	WORD_OFF	n/a	n/a	MILK	5	12	[0, 0, 0]	n/a	FR1	0	R1425D
1523.041	1.625	1523431	WORD	n/a	wordpools/wordpool_EN.txt	SPONGE	6	12	[0, 0, 0]	n/a	FR1	0	R1425D
1524.666	1.042	1525050	WORD_OFF	n/a	n/a	SPONGE	6	12	[0, 0, 0]	n/a	FR1	0	R1425D
1525.708	1.625	1526094	WORD	n/a	wordpools/wordpool_EN.txt	FAN	7	12	[0, 0, 0]	n/a	FR1	0	R1425D
1527.333	0.771	1527713	WORD_OFF	n/a	n/a	FAN	7	12	[0, 0, 0]	n/a	FR1	0	R1425D
1528.104	1.629	1528496	WORD	n/a	wordpools/wordpool_EN.txt	CLOTH	8	12	[0, 0, 0]	n/a	FR1	0	R1425D
1529.733	1.08	1530114	WORD_OFF	n/a	n/a	CLOTH	8	12	[0, 0, 0]	n/a	FR1	0	R1425D
1530.813	1.621	1531193	WORD	n/a	wordpools/wordpool_EN.txt	ARK	9	12	[0, 0, 0]	n/a	FR1	0	R1425D
1532.434	0.917	1532812	WORD_OFF	n/a	n/a	ARK	9	12	[0, 0, 0]	n/a	FR1	0	R1425D
1533.351	1.634	1533734	WORD	n/a	wordpools/wordpool_EN.txt	LAKE	10	12	[0, 0, 0]	n/a	FR1	0	R1425D
1534.985	0.91	1535353	WORD_OFF	n/a	n/a	LAKE	10	12	[0, 0, 0]	n/a	FR1	0	R1425D
1535.895	1.623	1536275	WORD	n/a	wordpools/wordpool_EN.txt	GLOVE	11	12	[0, 0, 0]	n/a	FR1	0	R1425D
1537.518	0.893	1537894	WORD_OFF	n/a	n/a	GLOVE	11	12	[0, 0, 0]	n/a	FR1	0	R1425D
1538.411	1.625	1538799	WORD	n/a	wordpools/wordpool_EN.txt	SALT	12	12	[0, 0, 0]	n/a	FR1	0	R1425D
1540.036	0.0	1540419	START	n/a	n/a	n/a	-999	12	[-999, -999, -999]	n/a	FR1	0	R1425D
1540.036	0.0	1540435	WORD_OFF	n/a	n/a	SALT	12	12	[0, 0, 0]	n/a	FR1	0	R1425D
1540.036	0.0	1540435	ENCODING_END	n/a	n/a	n/a	-999	12	[0, 0, 0]	n/a	FR1	0	R1425D
1540.036	0.016	1540435	DISTRACT_START	n/a	n/a	n/a	-999	12	[0, 0, 0]	n/a	FR1	0	R1425D
1540.052	4.418	1540435	PROB	4.418	n/a	n/a	-999	12	[3, 4, 6]	13	FR1	0	R1425D
1544.47	4.534	1544853	PROB	4.534	n/a	n/a	-999	12	[6, 8, 3]	17	FR1	0	R1425D
1549.004	2.816	1549387	PROB	2.816	n/a	n/a	-999	12	[2, 6, 6]	14	FR1	0	R1425D
1551.82	2.485	1552203	PROB	2.485	n/a	n/a	-999	12	[8, 1, 1]	10	FR1	0	R1425D
1554.305	3.85	1554688	PROB	3.85	n/a	n/a	-999	12	[3, 5, 6]	14	FR1	0	R1425D
1558.155	3.16	1558538	PROB	3.16	n/a	n/a	-999	12	[1, 8, 7]	16	FR1	0	R1425D
1561.315	0.008	1561697	STOP	n/a	n/a	n/a	-999	12	[-999, -999, -999]	n/a	FR1	0	R1425D
1561.323	2.334	1561702	DISTRACT_END	n/a	n/a	n/a	-999	12	[0, 0, 0]	n/a	FR1	0	R1425D
1563.657	1.281	1564034	REC_START	n/a	n/a	n/a	-999	12	[0, 0, 0]	n/a	FR1	0	R1425D
1564.938	0.805	1565320	REC_WORD	0.805	n/a	FLAME	2	12	[0, 0, 0]	n/a	FR1	0	R1425D
1565.743	1.228	1566125	REC_WORD	1.228	n/a	PIG	3	12	[0, 0, 0]	n/a	FR1	0	R1425D
1566.971	1.832	1567353	REC_WORD	1.832	n/a	ARK	9	12	[0, 0, 0]	n/a	FR1	0	R1425D
1568.803	6.103	1569185	REC_WORD	6.103	n/a	LAKE	10	12	[0, 0, 0]	n/a	FR1	0	R1425D
1574.906	6.201	1575288	REC_WORD	6.201	n/a	MAP	1	12	[0, 0, 0]	n/a	FR1	0	R1425D
1581.107	12.561	1581488	REC_WORD	12.561	n/a	CLOTH	8	12	[0, 0, 0]	n/a	FR1	0	R1425D
1593.668	5.729	1594055	REC_END	n/a	n/a	n/a	-999	12	[0, 0, 0]	n/a	FR1	0	R1425D
1599.397	10.428	1599798	COUNTDOWN_START	n/a	n/a	n/a	-999	13	[0, 0, 0]	n/a	FR1	0	R1425D
1609.825	1.224	1610205	COUNTDOWN_END	n/a	n/a	n/a	-999	13	[0, 0, 0]	n/a	FR1	0	R1425D
1611.049	0.827	1611423	ENCODING_START	n/a	n/a	n/a	-999	13	[0, 0, 0]	n/a	FR1	0	R1425D
1611.876	1.623	1612259	WORD	n/a	wordpools/wordpool_EN.txt	TOE	1	13	[0, 0, 0]	n/a	FR1	0	R1425D
1613.499	1.013	1613877	WORD_OFF	n/a	n/a	TOE	1	13	[0, 0, 0]	n/a	FR1	0	R1425D
1614.512	1.621	1614904	WORD	n/a	wordpools/wordpool_EN.txt	SLUSH	2	13	[0, 0, 0]	n/a	FR1	0	R1425D
1616.133	0.869	1616505	WORD_OFF	n/a	n/a	SLUSH	2	13	[0, 0, 0]	n/a	FR1	0	R1425D
1617.002	1.631	1617393	WORD	n/a	wordpools/wordpool_EN.txt	HOOF	3	13	[0, 0, 0]	n/a	FR1	0	R1425D
1618.633	0.882	1619011	WORD_OFF	n/a	n/a	HOOF	3	13	[0, 0, 0]	n/a	FR1	0	R1425D
1619.515	1.635	1619899	WORD	n/a	wordpools/wordpool_EN.txt	DOOR	4	13	[0, 0, 0]	n/a	FR1	0	R1425D
1621.15	1.035	1621517	WORD_OFF	n/a	n/a	DOOR	4	13	[0, 0, 0]	n/a	FR1	0	R1425D
1622.185	1.632	1622562	WORD	n/a	wordpools/wordpool_EN.txt	SPEAR	5	13	[0, 0, 0]	n/a	FR1	0	R1425D
1623.817	0.771	1624180	WORD_OFF	n/a	n/a	SPEAR	5	13	[0, 0, 0]	n/a	FR1	0	R1425D
1624.588	1.63	1624963	WORD	n/a	wordpools/wordpool_EN.txt	SIGN	6	13	[0, 0, 0]	n/a	FR1	0	R1425D
1626.218	1.069	1626582	WORD_OFF	n/a	n/a	SIGN	6	13	[0, 0, 0]	n/a	FR1	0	R1425D
1627.287	1.631	1627678	WORD	n/a	wordpools/wordpool_EN.txt	SCHOOL	7	13	[0, 0, 0]	n/a	FR1	0	R1425D
1628.918	1.134	1629297	WORD_OFF	n/a	n/a	SCHOOL	7	13	[0, 0, 0]	n/a	FR1	0	R1425D
1630.052	1.634	1630445	WORD	n/a	wordpools/wordpool_EN.txt	FOOT	8	13	[0, 0, 0]	n/a	FR1	0	R1425D
1631.686	1.025	1632064	WORD_OFF	n/a	n/a	FOOT	8	13	[0, 0, 0]	n/a	FR1	0	R1425D
1632.711	1.608	1633091	WORD	n/a	wordpools/wordpool_EN.txt	TOAD	9	13	[0, 0, 0]	n/a	FR1	0	R1425D
1634.319	1.076	1634692	WORD_OFF	n/a	n/a	TOAD	9	13	[0, 0, 0]	n/a	FR1	0	R1425D
1635.395	1.625	1635771	WORD	n/a	wordpools/wordpool_EN.txt	BOOK	10	13	[0, 0, 0]	n/a	FR1	0	R1425D
1637.02	1.004	1637389	WORD_OFF	n/a	n/a	BOOK	10	13	[0, 0, 0]	n/a	FR1	0	R1425D
1638.024	1.63	1638399	WORD	n/a	wordpools/wordpool_EN.txt	SNOW	11	13	[0, 0, 0]	n/a	FR1	0	R1425D
1639.654	0.767	1640017	WORD_OFF	n/a	n/a	SNOW	11	13	[0, 0, 0]	n/a	FR1	0	R1425D
1640.421	1.634	1640800	WORD	n/a	wordpools/wordpool_EN.txt	GLASS	12	13	[0, 0, 0]	n/a	FR1	0	R1425D
1642.055	0.0	1642433	START	n/a	n/a	n/a	-999	13	[-999, -999, -999]	n/a	FR1	0	R1425D
1642.054	0.001	1642436	WORD_OFF	n/a	n/a	GLASS	12	13	[0, 0, 0]	n/a	FR1	0	R1425D
1642.055	0.0	1642436	ENCODING_END	n/a	n/a	n/a	-999	13	[0, 0, 0]	n/a	FR1	0	R1425D
1642.055	0.016	1642436	DISTRACT_START	n/a	n/a	n/a	-999	13	[0, 0, 0]	n/a	FR1	0	R1425D
1642.071	6.384	1642449	PROB	6.384	n/a	n/a	-999	13	[9, 5, 3]	17	FR1	0	R1425D
1648.455	3.001	1648833	PROB	3.001	n/a	n/a	-999	13	[7, 4, 1]	12	FR1	0	R1425D
1651.456	2.734	1651834	PROB	2.734	n/a	n/a	-999	13	[8, 7, 2]	17	FR1	0	R1425D
1654.19	4.901	1654568	PROB	4.901	n/a	n/a	-999	13	[4, 7, 9]	20	FR1	0	R1425D
1659.091	2.699	1659468	PROB	2.699	n/a	n/a	-999	13	[9, 1, 1]	11	FR1	0	R1425D
1661.79	2.814	1662167	PROB	2.814	n/a	n/a	-999	13	[6, 4, 7]	17	FR1	0	R1425D
1664.604	0.021	1664981	STOP	n/a	n/a	n/a	-999	13	[-999, -999, -999]	n/a	FR1	0	R1425D
1664.625	2.317	1664991	DISTRACT_END	n/a	n/a	n/a	-999	13	[0, 0, 0]	n/a	FR1	0	R1425D
1666.942	0.629	1667323	REC_START	n/a	n/a	n/a	-999	13	[0, 0, 0]	n/a	FR1	0	R1425D
1667.571	0.399	1667948	REC_WORD	0.399	n/a	TOE	1	13	[0, 0, 0]	n/a	FR1	0	R1425D
1667.97	0.9	1668347	REC_WORD	0.9	n/a	FOOT	8	13	[0, 0, 0]	n/a	FR1	0	R1425D
1668.87	3.255	1669247	REC_WORD	3.255	n/a	TOAD	9	13	[0, 0, 0]	n/a	FR1	0	R1425D
1672.125	1.649	1672502	REC_WORD	1.649	n/a	SCHOOL	7	13	[0, 0, 0]	n/a	FR1	0	R1425D
1673.774	1.013	1674151	REC_WORD	1.013	n/a	DOOR	4	13	[0, 0, 0]	n/a	FR1	0	R1425D
1674.787	3.088	1675164	REC_WORD	3.088	n/a	SIGN	6	13	[0, 0, 0]	n/a	FR1	0	R1425D
1677.875	13.989	1678251	REC_WORD	13.989	n/a	SPEAR	5	13	[0, 0, 0]	n/a	FR1	0	R1425D
1691.864	5.089	1692240	REC_WORD	5.089	n/a	GLASS	12	13	[0, 0, 0]	n/a	FR1	0	R1425D
1696.953	4.396	1697344	REC_END	n/a	n/a	n/a	-999	13	[0, 0, 0]	n/a	FR1	0	R1425D
1701.349	10.429	1701747	COUNTDOWN_START	n/a	n/a	n/a	-999	14	[0, 0, 0]	n/a	FR1	0	R1425D
1711.778	1.19	1712155	COUNTDOWN_END	n/a	n/a	n/a	-999	14	[0, 0, 0]	n/a	FR1	0	R1425D
1712.968	1.025	1713338	ENCODING_START	n/a	n/a	n/a	-999	14	[0, 0, 0]	n/a	FR1	0	R1425D
1713.993	1.625	1714365	WORD	n/a	wordpools/wordpool_EN.txt	APE	1	14	[0, 0, 0]	n/a	FR1	0	R1425D
1715.618	0.844	1715984	WORD_OFF	n/a	n/a	APE	1	14	[0, 0, 0]	n/a	FR1	0	R1425D
1716.462	1.623	1716836	WORD	n/a	wordpools/wordpool_EN.txt	VAN	2	14	[0, 0, 0]	n/a	FR1	0	R1425D
1718.085	0.964	1718455	WORD_OFF	n/a	n/a	VAN	2	14	[0, 0, 0]	n/a	FR1	0	R1425D
1719.049	1.636	1719429	WORD	n/a	wordpools/wordpool_EN.txt	RAKE	3	14	[0, 0, 0]	n/a	FR1	0	R1425D
1720.685	0.841	1721048	WORD_OFF	n/a	n/a	RAKE	3	14	[0, 0, 0]	n/a	FR1	0	R1425D
1721.526	1.626	1721901	WORD	n/a	wordpools/wordpool_EN.txt	CUBE	4	14	[0, 0, 0]	n/a	FR1	0	R1425D
1723.152	1.073	1723519	WORD_OFF	n/a	n/a	CUBE	4	14	[0, 0, 0]	n/a	FR1	0	R1425D
1724.225	1.627	1724598	WORD	n/a	wordpools/wordpool_EN.txt	TAIL	5	14	[0, 0, 0]	n/a	FR1	0	R1425D
1725.852	0.784	1726217	WORD_OFF	n/a	n/a	TAIL	5	14	[0, 0, 0]	n/a	FR1	0	R1425D
1726.636	1.634	1727017	WORD	n/a	wordpools/wordpool_EN.txt	WAND	6	14	[0, 0, 0]	n/a	FR1	0	R1425D
1728.27	0.963	1728636	WORD_OFF	n/a	n/a	WAND	6	14	[0, 0, 0]	n/a	FR1	0	R1425D
1729.233	1.638	1729610	WORD	n/a	wordpools/wordpool_EN.txt	DOCK	7	14	[0, 0, 0]	n/a	FR1	0	R1425D
1730.871	1.037	1731229	WORD_OFF	n/a	n/a	DOCK	7	14	[0, 0, 0]	n/a	FR1	0	R1425D
1731.908	1.63	1732291	WORD	n/a	wordpools/wordpool_EN.txt	CLIFF	8	14	[0, 0, 0]	n/a	FR1	0	R1425D
1733.538	0.764	1733909	WORD_OFF	n/a	n/a	CLIFF	8	14	[0, 0, 0]	n/a	FR1	0	R1425D
1734.302	1.636	1734692	WORD	n/a	wordpools/wordpool_EN.txt	TOOTH	9	14	[0, 0, 0]	n/a	FR1	0	R1425D
1735.938	0.986	1736311	WORD_OFF	n/a	n/a	TOOTH	9	14	[0, 0, 0]	n/a	FR1	0	R1425D
1736.924	1.631	1737303	WORD	n/a	wordpools/wordpool_EN.txt	PIN	10	14	[0, 0, 0]	n/a	FR1	0	R1425D
1738.555	0.915	1738921	WORD_OFF	n/a	n/a	PIN	10	14	[0, 0, 0]	n/a	FR1	0	R1425D
1739.47	1.636	1739861	WORD	n/a	wordpools/wordpool_EN.txt	JET	11	14	[0, 0, 0]	n/a	FR1	0	R1425D
1741.106	1.096	1741462	WORD_OFF	n/a	n/a	JET	11	14	[0, 0, 0]	n/a	FR1	0	R1425D
1742.202	1.637	1742593	WORD	n/a	wordpools/wordpool_EN.txt	LEG	12	14	[0, 0, 0]	n/a	FR1	0	R1425D
1743.839	0.001	1744212	WORD_OFF	n/a	n/a	LEG	12	14	[0, 0, 0]	n/a	FR1	0	R1425D
1743.84	0.015	1744213	START	n/a	n/a	n/a	-999	14	[-999, -999, -999]	n/a	FR1	0	R1425D
1743.855	0.0	1744228	PROB	0.0	n/a	n/a	-999	14	[7, 8, 1]	16	FR1	0	R1425D
1743.839	0.001	1744229	ENCODING_END	n/a	n/a	n/a	-999	14	[0, 0, 0]	n/a	FR1	0	R1425D
1743.84	4.434	1744229	DISTRACT_START	n/a	n/a	n/a	-999	14	[0, 0, 0]	n/a	FR1	0	R1425D
1748.274	3.0	1748647	PROB	3.0	n/a	n/a	-999	14	[5, 7, 8]	20	FR1	0	R1425D
1751.274	2.533	1751647	PROB	2.533	n/a	n/a	-999	14	[5, 9, 5]	19	FR1	0	R1425D
1753.807	4.718	1754179	PROB	4.718	n/a	n/a	-999	14	[9, 2, 2]	13	FR1	0	R1425D
1758.525	2.634	1758897	PROB	2.634	n/a	n/a	-999	14	[9, 5, 5]	19	FR1	0	R1425D
1761.159	3.514	1761531	PROB	3.514	n/a	n/a	-999	14	[9, 1, 7]	17	FR1	0	R1425D
1764.673	0.02	1765045	STOP	n/a	n/a	n/a	-999	14	[-999, -999, -999]	n/a	FR1	0	R1425D
1764.693	2.151	1765061	DISTRACT_END	n/a	n/a	n/a	-999	14	[0, 0, 0]	n/a	FR1	0	R1425D
1766.844	0.554	1767219	REC_START	n/a	n/a	n/a	-999	14	[0, 0, 0]	n/a	FR1	0	R1425D
1767.398	0.584	1767770	REC_WORD	0.584	n/a	APE	1	14	[0, 0, 0]	n/a	FR1	0	R1425D
1767.982	1.076	1768354	REC_WORD	1.076	n/a	VAN	2	14	[0, 0, 0]	n/a	FR1	0	R1425D
1769.058	6.834	1769430	REC_WORD	6.834	n/a	RAKE	3	14	[0, 0, 0]	n/a	FR1	0	R1425D
1775.892	20.962	1776263	REC_WORD	20.962	n/a	LEG	12	14	[0, 0, 0]	n/a	FR1	0	R1425D
1796.854	6.264	1797240	REC_END	n/a	n/a	n/a	-999	14	[0, 0, 0]	n/a	FR1	0	R1425D
1803.118	10.429	1803506	COUNTDOWN_START	n/a	n/a	n/a	-999	15	[0, 0, 0]	n/a	FR1	0	R1425D
1813.547	1.205	1813913	COUNTDOWN_END	n/a	n/a	n/a	-999	15	[0, 0, 0]	n/a	FR1	0	R1425D
1814.752	0.872	1815114	ENCODING_START	n/a	n/a	n/a	-999	15	[0, 0, 0]	n/a	FR1	0	R1425D
1815.624	1.629	1816001	WORD	n/a	wordpools/wordpool_EN.txt	FOAM	1	15	[0, 0, 0]	n/a	FR1	0	R1425D
1817.253	1.077	1817620	WORD_OFF	n/a	n/a	FOAM	1	15	[0, 0, 0]	n/a	FR1	0	R1425D
1818.33	1.623	1818699	WORD	n/a	wordpools/wordpool_EN.txt	MAT	2	15	[0, 0, 0]	n/a	FR1	0	R1425D
1819.953	1.145	1820317	WORD_OFF	n/a	n/a	MAT	2	15	[0, 0, 0]	n/a	FR1	0	R1425D
1821.098	1.622	1821466	WORD	n/a	wordpools/wordpool_EN.txt	MOTH	3	15	[0, 0, 0]	n/a	FR1	0	R1425D
1822.72	0.849	1823085	WORD_OFF	n/a	n/a	MOTH	3	15	[0, 0, 0]	n/a	FR1	0	R1425D
1823.569	1.636	1823955	WORD	n/a	wordpools/wordpool_EN.txt	RAT	4	15	[0, 0, 0]	n/a	FR1	0	R1425D
1825.205	0.799	1825573	WORD_OFF	n/a	n/a	RAT	4	15	[0, 0, 0]	n/a	FR1	0	R1425D
1826.004	1.634	1826374	WORD	n/a	wordpools/wordpool_EN.txt	SUIT	5	15	[0, 0, 0]	n/a	FR1	0	R1425D
1827.638	0.902	1827992	WORD_OFF	n/a	n/a	SUIT	5	15	[0, 0, 0]	n/a	FR1	0	R1425D
1828.54	1.632	1828915	WORD	n/a	wordpools/wordpool_EN.txt	BOMB	6	15	[0, 0, 0]	n/a	FR1	0	R1425D
1830.172	0.792	1830533	WORD_OFF	n/a	n/a	BOMB	6	15	[0, 0, 0]	n/a	FR1	0	R1425D
1830.964	1.625	1831334	WORD	n/a	wordpools/wordpool_EN.txt	BEAR	7	15	[0, 0, 0]	n/a	FR1	0	R1425D
1832.589	1.005	1832952	WORD_OFF	n/a	n/a	BEAR	7	15	[0, 0, 0]	n/a	FR1	0	R1425D
1833.594	1.629	1833962	WORD	n/a	wordpools/wordpool_EN.txt	WHEEL	8	15	[0, 0, 0]	n/a	FR1	0	R1425D
1835.223	1.122	1835580	WORD_OFF	n/a	n/a	WHEEL	8	15	[0, 0, 0]	n/a	FR1	0	R1425D
1836.345	1.628	1836712	WORD	n/a	wordpools/wordpool_EN.txt	WOOD	9	15	[0, 0, 0]	n/a	FR1	0	R1425D
1837.973	0.835	1838330	WORD_OFF	n/a	n/a	WOOD	9	15	[0, 0, 0]	n/a	FR1	0	R1425D
1838.808	1.616	1839183	WORD	n/a	wordpools/wordpool_EN.txt	LIP	10	15	[0, 0, 0]	n/a	FR1	0	R1425D
1840.424	1.122	1840784	WORD_OFF	n/a	n/a	LIP	10	15	[0, 0, 0]	n/a	FR1	0	R1425D
1841.546	1.628	1841915	WORD	n/a	wordpools/wordpool_EN.txt	PRINCE	11	15	[0, 0, 0]	n/a	FR1	0	R1425D
1843.174	0.972	1843534	WORD_OFF	n/a	n/a	PRINCE	11	15	[0, 0, 0]	n/a	FR1	0	R1425D
1844.146	1.629	1844508	WORD	n/a	wordpools/wordpool_EN.txt	STAIR	12	15	[0, 0, 0]	n/a	FR1	0	R1425D
1845.775	0.0	1846143	START	n/a	n/a	n/a	-999	15	[-999, -999, -999]	n/a	FR1	0	R1425D
1845.774	0.0	1846144	WORD_OFF	n/a	n/a	STAIR	12	15	[0, 0, 0]	n/a	FR1	0	R1425D
1845.774	0.016	1846144	ENCODING_END	n/a	n/a	n/a	-999	15	[0, 0, 0]	n/a	FR1	0	R1425D
1845.79	0.0	1846158	PROB	0.0	n/a	n/a	-999	15	[4, 5, 7]	16	FR1	0	R1425D
1845.775	5.834	1846162	DISTRACT_START	n/a	n/a	n/a	-999	15	[0, 0, 0]	n/a	FR1	0	R1425D
1851.609	4.834	1851976	PROB	4.834	n/a	n/a	-999	15	[4, 2, 9]	15	FR1	0	R1425D
1856.443	3.784	1856810	PROB	3.784	n/a	n/a	-999	15	[1, 3, 5]	9	FR1	0	R1425D
1860.227	1.867	1860594	PROB	1.867	n/a	n/a	-999	15	[4, 1, 6]	11	FR1	0	R1425D
1862.094	2.001	1862461	PROB	2.001	n/a	n/a	-999	15	[7, 5, 1]	13	FR1	0	R1425D
1864.095	3.099	1864462	PROB	3.099	n/a	n/a	-999	15	[8, 8, 4]	20	FR1	0	R1425D
1867.194	0.018	1867561	STOP	n/a	n/a	n/a	-999	15	[-999, -999, -999]	n/a	FR1	0	R1425D
1867.212	2.318	1867568	DISTRACT_END	n/a	n/a	n/a	-999	15	[0, 0, 0]	n/a	FR1	0	R1425D
1869.53	0.145	1869900	REC_START	n/a	n/a	n/a	-999	15	[0, 0, 0]	n/a	FR1	0	R1425D
1869.675	0.43	1870041	REC_WORD	0.43	n/a	PHONE	-999	15	[0, 0, 0]	n/a	FR1	0	R1425D
1870.105	2.092	1870471	REC_WORD	2.092	n/a	MAT	2	15	[0, 0, 0]	n/a	FR1	0	R1425D
1872.197	1.349	1872563	REC_WORD	1.349	n/a	BEAR	7	15	[0, 0, 0]	n/a	FR1	0	R1425D
1873.546	10.804	1873912	REC_WORD	10.804	n/a	WOOD	9	15	[0, 0, 0]	n/a	FR1	0	R1425D
1884.35	15.189	1884716	REC_WORD_VV	15.189	n/a	<>	-999	15	[0, 0, 0]	n/a	FR1	0	R1425D
1899.539	4.781	1899921	REC_END	n/a	n/a	n/a	-999	15	[0, 0, 0]	n/a	FR1	0	R1425D
1904.32	10.428	1904707	COUNTDOWN_START	n/a	n/a	n/a	-999	16	[0, 0, 0]	n/a	FR1	0	R1425D
1914.748	1.124	1915114	COUNTDOWN_END	n/a	n/a	n/a	-999	16	[0, 0, 0]	n/a	FR1	0	R1425D
1915.872	0.84	1916228	ENCODING_START	n/a	n/a	n/a	-999	16	[0, 0, 0]	n/a	FR1	0	R1425D
1916.712	1.626	1917081	WORD	n/a	wordpools/wordpool_EN.txt	PEARL	1	16	[0, 0, 0]	n/a	FR1	0	R1425D
1918.338	0.984	1918699	WORD_OFF	n/a	n/a	PEARL	1	16	[0, 0, 0]	n/a	FR1	0	R1425D
1919.322	1.633	1919691	WORD	n/a	wordpools/wordpool_EN.txt	PIE	2	16	[0, 0, 0]	n/a	FR1	0	R1425D
1920.955	0.775	1921310	WORD_OFF	n/a	n/a	PIE	2	16	[0, 0, 0]	n/a	FR1	0	R1425D
1921.73	1.626	1922093	WORD	n/a	wordpools/wordpool_EN.txt	SHIELD	3	16	[0, 0, 0]	n/a	FR1	0	R1425D
1923.356	0.883	1923712	WORD_OFF	n/a	n/a	SHIELD	3	16	[0, 0, 0]	n/a	FR1	0	R1425D
1924.239	1.634	1924616	WORD	n/a	wordpools/wordpool_EN.txt	SOUP	4	16	[0, 0, 0]	n/a	FR1	0	R1425D
1925.873	0.758	1926235	WORD_OFF	n/a	n/a	SOUP	4	16	[0, 0, 0]	n/a	FR1	0	R1425D
1926.631	1.626	1927001	WORD	n/a	wordpools/wordpool_EN.txt	NAIL	5	16	[0, 0, 0]	n/a	FR1	0	R1425D
1928.257	1.016	1928619	WORD_OFF	n/a	n/a	NAIL	5	16	[0, 0, 0]	n/a	FR1	0	R1425D
1929.273	1.634	1929646	WORD	n/a	wordpools/wordpool_EN.txt	FOOD	6	16	[0, 0, 0]	n/a	FR1	0	R1425D
1930.907	0.984	1931262	WORD_OFF	n/a	n/a	FOOD	6	16	[0, 0, 0]	n/a	FR1	0	R1425D
1931.891	1.633	1932254	WORD	n/a	wordpools/wordpool_EN.txt	PEACH	7	16	[0, 0, 0]	n/a	FR1	0	R1425D
1933.524	1.066	1933872	WORD_OFF	n/a	n/a	PEACH	7	16	[0, 0, 0]	n/a	FR1	0	R1425D
1934.59	1.635	1934969	WORD	n/a	wordpools/wordpool_EN.txt	BLOOM	8	16	[0, 0, 0]	n/a	FR1	0	R1425D
1936.225	0.97	1936587	WORD_OFF	n/a	n/a	BLOOM	8	16	[0, 0, 0]	n/a	FR1	0	R1425D
1937.195	1.629	1937562	WORD	n/a	wordpools/wordpool_EN.txt	CANE	9	16	[0, 0, 0]	n/a	FR1	0	R1425D
1938.824	0.929	1939180	WORD_OFF	n/a	n/a	CANE	9	16	[0, 0, 0]	n/a	FR1	0	R1425D
1939.753	1.623	1940120	WORD	n/a	wordpools/wordpool_EN.txt	HILL	10	16	[0, 0, 0]	n/a	FR1	0	R1425D
1941.376	1.059	1941721	WORD_OFF	n/a	n/a	HILL	10	16	[0, 0, 0]	n/a	FR1	0	R1425D
1942.435	1.625	1942800	WORD	n/a	wordpools/wordpool_EN.txt	PIPE	11	16	[0, 0, 0]	n/a	FR1	0	R1425D
1944.06	0.966	1944419	WORD_OFF	n/a	n/a	PIPE	11	16	[0, 0, 0]	n/a	FR1	0	R1425D
1945.026	1.635	1945393	WORD	n/a	wordpools/wordpool_EN.txt	CROW	12	16	[0, 0, 0]	n/a	FR1	0	R1425D
1946.661	0.0	1947024	START	n/a	n/a	n/a	-999	16	[-999, -999, -999]	n/a	FR1	0	R1425D
1946.66	0.0	1947029	WORD_OFF	n/a	n/a	CROW	12	16	[0, 0, 0]	n/a	FR1	0	R1425D
1946.66	0.001	1947029	ENCODING_END	n/a	n/a	n/a	-999	16	[0, 0, 0]	n/a	FR1	0	R1425D
1946.661	0.016	1947029	DISTRACT_START	n/a	n/a	n/a	-999	16	[0, 0, 0]	n/a	FR1	0	R1425D
1946.677	5.217	1947040	PROB	5.217	n/a	n/a	-999	16	[2, 1, 5]	8	FR1	0	R1425D
1951.894	5.368	1952256	PROB	5.368	n/a	n/a	-999	16	[5, 1, 6]	12	FR1	0	R1425D
1957.262	3.25	1957624	PROB	3.25	n/a	n/a	-999	16	[6, 7, 1]	14	FR1	0	R1425D
1960.512	4.035	1960874	PROB	4.035	n/a	n/a	-999	16	[5, 2, 6]	13	FR1	0	R1425D
1964.547	2.166	1964909	PROB	2.166	n/a	n/a	-999	16	[2, 2, 8]	12	FR1	0	R1425D
1966.713	0.016	1967074	STOP	n/a	n/a	n/a	-999	16	[-999, -999, -999]	n/a	FR1	0	R1425D
1966.729	2.319	1967078	DISTRACT_END	n/a	n/a	n/a	-999	16	[0, 0, 0]	n/a	FR1	0	R1425D
1969.048	1.013	1969410	REC_START	n/a	n/a	n/a	-999	16	[0, 0, 0]	n/a	FR1	0	R1425D
1970.061	0.65	1970422	REC_WORD	0.65	n/a	NAIL	5	16	[0, 0, 0]	n/a	FR1	0	R1425D
1970.711	1.544	1971072	REC_WORD	1.544	n/a	CANE	9	16	[0, 0, 0]	n/a	FR1	0	R1425D
1972.255	19.069	1972616	REC_WORD	19.069	n/a	HILL	10	16	[0, 0, 0]	n/a	FR1	0	R1425D
1991.324	7.733	1991684	REC_WORD	7.733	n/a	PIE	2	16	[0, 0, 0]	n/a	FR1	0	R1425D
1999.057	6.281	1999431	REC_END	n/a	n/a	n/a	-999	16	[0, 0, 0]	n/a	FR1	0	R1425D
2005.338	10.429	2005731	COUNTDOWN_START	n/a	n/a	n/a	-999	17	[0, 0, 0]	n/a	FR1	0	R1425D
2015.767	1.24	2016121	COUNTDOWN_END	n/a	n/a	n/a	-999	17	[0, 0, 0]	n/a	FR1	0	R1425D
2017.007	0.819	2017357	ENCODING_START	n/a	n/a	n/a	-999	17	[0, 0, 0]	n/a	FR1	0	R1425D
2017.826	1.631	2018192	WORD	n/a	wordpools/wordpool_EN.txt	FORK	1	17	[0, 0, 0]	n/a	FR1	0	R1425D
2019.457	0.997	2019811	WORD_OFF	n/a	n/a	FORK	1	17	[0, 0, 0]	n/a	FR1	0	R1425D
2020.454	1.637	2020820	WORD	n/a	wordpools/wordpool_EN.txt	DART	2	17	[0, 0, 0]	n/a	FR1	0	R1425D
2022.091	0.799	2022439	WORD_OFF	n/a	n/a	DART	2	17	[0, 0, 0]	n/a	FR1	0	R1425D
2022.89	1.634	2023256	WORD	n/a	wordpools/wordpool_EN.txt	GATE	3	17	[0, 0, 0]	n/a	FR1	0	R1425D
2024.524	0.948	2024875	WORD_OFF	n/a	n/a	GATE	3	17	[0, 0, 0]	n/a	FR1	0	R1425D
2025.472	1.636	2025832	WORD	n/a	wordpools/wordpool_EN.txt	BARN	4	17	[0, 0, 0]	n/a	FR1	0	R1425D
2027.108	0.93	2027451	WORD_OFF	n/a	n/a	BARN	4	17	[0, 0, 0]	n/a	FR1	0	R1425D
2028.038	1.637	2028408	WORD	n/a	wordpools/wordpool_EN.txt	ROAD	5	17	[0, 0, 0]	n/a	FR1	0	R1425D
2029.675	0.898	2030026	WORD_OFF	n/a	n/a	ROAD	5	17	[0, 0, 0]	n/a	FR1	0	R1425D
2030.573	1.636	2030949	WORD	n/a	wordpools/wordpool_EN.txt	PET	6	17	[0, 0, 0]	n/a	FR1	0	R1425D
2032.209	0.951	2032567	WORD_OFF	n/a	n/a	PET	6	17	[0, 0, 0]	n/a	FR1	0	R1425D
2033.16	1.632	2033525	WORD	n/a	wordpools/wordpool_EN.txt	TEA	7	17	[0, 0, 0]	n/a	FR1	0	R1425D
2034.792	0.827	2035143	WORD_OFF	n/a	n/a	TEA	7	17	[0, 0, 0]	n/a	FR1	0	R1425D
2035.619	1.624	2035978	WORD	n/a	wordpools/wordpool_EN.txt	DOLL	8	17	[0, 0, 0]	n/a	FR1	0	R1425D
2037.243	0.765	2037597	WORD_OFF	n/a	n/a	DOLL	8	17	[0, 0, 0]	n/a	FR1	0	R1425D
2038.008	1.636	2038380	WORD	n/a	wordpools/wordpool_EN.txt	ICE	9	17	[0, 0, 0]	n/a	FR1	0	R1425D
2039.644	0.759	2039999	WORD_OFF	n/a	n/a	ICE	9	17	[0, 0, 0]	n/a	FR1	0	R1425D
2040.403	1.625	2040764	WORD	n/a	wordpools/wordpool_EN.txt	GEESE	10	17	[0, 0, 0]	n/a	FR1	0	R1425D
2042.028	1.075	2042383	WORD_OFF	n/a	n/a	GEESE	10	17	[0, 0, 0]	n/a	FR1	0	R1425D
2043.103	1.624	2043462	WORD	n/a	wordpools/wordpool_EN.txt	BEAK	11	17	[0, 0, 0]	n/a	FR1	0	R1425D
2044.727	0.831	2045080	WORD_OFF	n/a	n/a	BEAK	11	17	[0, 0, 0]	n/a	FR1	0	R1425D
2045.558	1.637	2045933	WORD	n/a	wordpools/wordpool_EN.txt	TRUCK	12	17	[0, 0, 0]	n/a	FR1	0	R1425D
2047.195	0.001	2047552	WORD_OFF	n/a	n/a	TRUCK	12	17	[0, 0, 0]	n/a	FR1	0	R1425D
2047.196	0.0	2047553	START	n/a	n/a	n/a	-999	17	[-999, -999, -999]	n/a	FR1	0	R1425D
2047.196	0.0	2047569	ENCODING_END	n/a	n/a	n/a	-999	17	[0, 0, 0]	n/a	FR1	0	R1425D
2047.196	0.016	2047569	DISTRACT_START	n/a	n/a	n/a	-999	17	[0, 0, 0]	n/a	FR1	0	R1425D
2047.212	4.317	2047569	PROB	4.317	n/a	n/a	-999	17	[2, 8, 7]	17	FR1	0	R1425D
2051.529	3.501	2051886	PROB	3.501	n/a	n/a	-999	17	[9, 7, 5]	21	FR1	0	R1425D
2055.03	3.816	2055387	PROB	3.816	n/a	n/a	-999	17	[2, 7, 5]	14	FR1	0	R1425D
2058.846	2.285	2059203	PROB	2.285	n/a	n/a	-999	17	[7, 2, 3]	12	FR1	0	R1425D
2061.131	2.567	2061488	PROB	2.567	n/a	n/a	-999	17	[4, 5, 1]	10	FR1	0	R1425D
2063.698	4.397	2064054	PROB	4.397	n/a	n/a	-999	17	[6, 2, 7]	15	FR1	0	R1425D
2068.095	0.021	2068451	STOP	n/a	n/a	n/a	-999	17	[-999, -999, -999]	n/a	FR1	0	R1425D
2068.116	2.067	2068471	DISTRACT_END	n/a	n/a	n/a	-999	17	[0, 0, 0]	n/a	FR1	0	R1425D
2070.183	1.73	2070542	REC_START	n/a	n/a	n/a	-999	17	[0, 0, 0]	n/a	FR1	0	R1425D
2071.913	0.6	2072269	REC_WORD	0.6	n/a	BARN	4	17	[0, 0, 0]	n/a	FR1	0	R1425D
2072.513	1.212	2072869	REC_WORD	1.212	n/a	ROAD	5	17	[0, 0, 0]	n/a	FR1	0	R1425D
2073.725	1.053	2074081	REC_WORD	1.053	n/a	GEESE	10	17	[0, 0, 0]	n/a	FR1	0	R1425D
2074.778	1.942	2075134	REC_WORD	1.942	n/a	BEAK	11	17	[0, 0, 0]	n/a	FR1	0	R1425D
2076.72	1.089	2077076	REC_WORD	1.089	n/a	TEA	7	17	[0, 0, 0]	n/a	FR1	0	R1425D
2077.809	22.386	2078165	REC_WORD	22.386	n/a	ICE	9	17	[0, 0, 0]	n/a	FR1	0	R1425D
2100.195	4.145	2100563	REC_END	n/a	n/a	n/a	-999	17	[0, 0, 0]	n/a	FR1	0	R1425D
2104.34	10.428	2104722	COUNTDOWN_START	n/a	n/a	n/a	-999	18	[0, 0, 0]	n/a	FR1	0	R1425D
2114.768	1.056	2115112	COUNTDOWN_END	n/a	n/a	n/a	-999	18	[0, 0, 0]	n/a	FR1	0	R1425D
2115.824	0.88	2116174	ENCODING_START	n/a	n/a	n/a	-999	18	[0, 0, 0]	n/a	FR1	0	R1425D
2116.704	1.638	2117061	WORD	n/a	wordpools/wordpool_EN.txt	THREAD	1	18	[0, 0, 0]	n/a	FR1	0	R1425D
2118.342	1.026	2118680	WORD_OFF	n/a	n/a	THREAD	1	18	[0, 0, 0]	n/a	FR1	0	R1425D
2119.368	1.624	2119724	WORD	n/a	wordpools/wordpool_EN.txt	FOG	2	18	[0, 0, 0]	n/a	FR1	0	R1425D
2120.992	1.129	2121343	WORD_OFF	n/a	n/a	FOG	2	18	[0, 0, 0]	n/a	FR1	0	R1425D
2122.121	1.637	2122491	WORD	n/a	wordpools/wordpool_EN.txt	BADGE	3	18	[0, 0, 0]	n/a	FR1	0	R1425D
2123.758	0.775	2124110	WORD_OFF	n/a	n/a	BADGE	3	18	[0, 0, 0]	n/a	FR1	0	R1425D
2124.533	1.627	2124893	WORD	n/a	wordpools/wordpool_EN.txt	BATH	4	18	[0, 0, 0]	n/a	FR1	0	R1425D
2126.16	1.033	2126511	WORD_OFF	n/a	n/a	BATH	4	18	[0, 0, 0]	n/a	FR1	0	R1425D
2127.193	1.632	2127556	WORD	n/a	wordpools/wordpool_EN.txt	TOOL	5	18	[0, 0, 0]	n/a	FR1	0	R1425D
2128.825	1.077	2129174	WORD_OFF	n/a	n/a	TOOL	5	18	[0, 0, 0]	n/a	FR1	0	R1425D
2129.902	1.625	2130253	WORD	n/a	wordpools/wordpool_EN.txt	BAG	6	18	[0, 0, 0]	n/a	FR1	0	R1425D
2131.527	0.968	2131872	WORD_OFF	n/a	n/a	BAG	6	18	[0, 0, 0]	n/a	FR1	0	R1425D
2132.495	1.633	2132846	WORD	n/a	wordpools/wordpool_EN.txt	SHEEP	7	18	[0, 0, 0]	n/a	FR1	0	R1425D
2134.128	0.78	2134465	WORD_OFF	n/a	n/a	SHEEP	7	18	[0, 0, 0]	n/a	FR1	0	R1425D
2134.908	1.637	2135265	WORD	n/a	wordpools/wordpool_EN.txt	EAR	8	18	[0, 0, 0]	n/a	FR1	0	R1425D
2136.545	1.113	2136884	WORD_OFF	n/a	n/a	EAR	8	18	[0, 0, 0]	n/a	FR1	0	R1425D
2137.658	1.637	2138015	WORD	n/a	wordpools/wordpool_EN.txt	HORN	9	18	[0, 0, 0]	n/a	FR1	0	R1425D
2139.295	0.892	2139634	WORD_OFF	n/a	n/a	HORN	9	18	[0, 0, 0]	n/a	FR1	0	R1425D
2140.187	1.625	2140539	WORD	n/a	wordpools/wordpool_EN.txt	FARM	10	18	[0, 0, 0]	n/a	FR1	0	R1425D
2141.812	0.979	2142157	WORD_OFF	n/a	n/a	FARM	10	18	[0, 0, 0]	n/a	FR1	0	R1425D
2142.791	1.622	2143132	WORD	n/a	wordpools/wordpool_EN.txt	OAR	11	18	[0, 0, 0]	n/a	FR1	0	R1425D
2144.413	1.033	2144750	WORD_OFF	n/a	n/a	OAR	11	18	[0, 0, 0]	n/a	FR1	0	R1425D
2145.446	1.635	2145812	WORD	n/a	wordpools/wordpool_EN.txt	PLANT	12	18	[0, 0, 0]	n/a	FR1	0	R1425D
2147.081	0.0	2147433	START	n/a	n/a	n/a	-999	18	[-999, -999, -999]	n/a	FR1	0	R1425D
2147.08	0.001	2147448	WORD_OFF	n/a	n/a	PLANT	12	18	[0, 0, 0]	n/a	FR1	0	R1425D
2147.081	0.0	2147448	ENCODING_END	n/a	n/a	n/a	-999	18	[0, 0, 0]	n/a	FR1	0	R1425D
2147.081	0.016	2147448	DISTRACT_START	n/a	n/a	n/a	-999	18	[0, 0, 0]	n/a	FR1	0	R1425D
2147.097	4.7	2147449	PROB	4.7	n/a	n/a	-999	18	[9, 9, 7]	25	FR1	0	R1425D
2151.797	3.401	2152149	PROB	3.401	n/a	n/a	-999	18	[4, 8, 3]	15	FR1	0	R1425D
2155.198	5.518	2155550	PROB	5.518	n/a	n/a	-999	18	[1, 5, 7]	13	FR1	0	R1425D
2160.716	3.033	2161067	PROB	3.033	n/a	n/a	-999	18	[6, 7, 1]	14	FR1	0	R1425D
2163.749	4.119	2164100	PROB	4.119	n/a	n/a	-999	18	[9, 7, 2]	18	FR1	0	R1425D
2167.868	0.016	2168219	STOP	n/a	n/a	n/a	-999	18	[-999, -999, -999]	n/a	FR1	0	R1425D
2167.884	2.184	2168228	DISTRACT_END	n/a	n/a	n/a	-999	18	[0, 0, 0]	n/a	FR1	0	R1425D
2170.068	1.62	2170420	REC_START	n/a	n/a	n/a	-999	18	[0, 0, 0]	n/a	FR1	0	R1425D
2171.688	0.681	2172039	REC_WORD	0.681	n/a	THREAD	1	18	[0, 0, 0]	n/a	FR1	0	R1425D
2172.369	1.473	2172720	REC_WORD	1.473	n/a	SHEEP	7	18	[0, 0, 0]	n/a	FR1	0	R1425D
2173.842	5.654	2174193	REC_WORD	5.654	n/a	OAR	11	18	[0, 0, 0]	n/a	FR1	0	R1425D
2179.496	9.083	2179846	REC_WORD	9.083	n/a	BARN	-999	18	[0, 0, 0]	n/a	FR1	0	R1425D
2188.579	8.171	2188929	REC_WORD	8.171	n/a	HORN	9	18	[0, 0, 0]	n/a	FR1	0	R1425D
2196.75	3.33	2197100	REC_WORD	3.33	n/a	BADGE	3	18	[0, 0, 0]	n/a	FR1	0	R1425D
2200.08	4.094	2200441	REC_END	n/a	n/a	n/a	-999	18	[0, 0, 0]	n/a	FR1	0	R1425D
2204.174	10.429	2204549	COUNTDOWN_START	n/a	n/a	n/a	-999	19	[0, 0, 0]	n/a	FR1	0	R1425D
2214.603	1.256	2214956	COUNTDOWN_END	n/a	n/a	n/a	-999	19	[0, 0, 0]	n/a	FR1	0	R1425D
2215.859	0.867	2216209	ENCODING_START	n/a	n/a	n/a	-999	19	[0, 0, 0]	n/a	FR1	0	R1425D
2216.726	1.634	2217079	WORD	n/a	wordpools/wordpool_EN.txt	SEAT	1	19	[0, 0, 0]	n/a	FR1	0	R1425D
2218.36	0.952	2218698	WORD_OFF	n/a	n/a	SEAT	1	19	[0, 0, 0]	n/a	FR1	0	R1425D
2219.312	1.632	2219672	WORD	n/a	wordpools/wordpool_EN.txt	EEL	2	19	[0, 0, 0]	n/a	FR1	0	R1425D
2220.944	0.979	2221291	WORD_OFF	n/a	n/a	EEL	2	19	[0, 0, 0]	n/a	FR1	0	R1425D
2221.923	1.621	2222265	WORD	n/a	wordpools/wordpool_EN.txt	TREE	3	19	[0, 0, 0]	n/a	FR1	0	R1425D
2223.544	0.772	2223884	WORD_OFF	n/a	n/a	TREE	3	19	[0, 0, 0]	n/a	FR1	0	R1425D
2224.316	1.629	2224667	WORD	n/a	wordpools/wordpool_EN.txt	FISH	4	19	[0, 0, 0]	n/a	FR1	0	R1425D
2225.945	0.875	2226286	WORD_OFF	n/a	n/a	FISH	4	19	[0, 0, 0]	n/a	FR1	0	R1425D
2226.82	1.608	2227173	WORD	n/a	wordpools/wordpool_EN.txt	ROOT	5	19	[0, 0, 0]	n/a	FR1	0	R1425D
2228.428	1.092	2228774	WORD_OFF	n/a	n/a	ROOT	5	19	[0, 0, 0]	n/a	FR1	0	R1425D
2229.52	1.625	2229871	WORD	n/a	wordpools/wordpool_EN.txt	SLIME	6	19	[0, 0, 0]	n/a	FR1	0	R1425D
2231.145	1.059	2231489	WORD_OFF	n/a	n/a	SLIME	6	19	[0, 0, 0]	n/a	FR1	0	R1425D
2232.204	1.624	2232551	WORD	n/a	wordpools/wordpool_EN.txt	JUICE	7	19	[0, 0, 0]	n/a	FR1	0	R1425D
2233.828	1.101	2234169	WORD_OFF	n/a	n/a	JUICE	7	19	[0, 0, 0]	n/a	FR1	0	R1425D
2234.929	1.634	2235283	WORD	n/a	wordpools/wordpool_EN.txt	CLOUD	8	19	[0, 0, 0]	n/a	FR1	0	R1425D
2236.563	0.921	2236902	WORD_OFF	n/a	n/a	CLOUD	8	19	[0, 0, 0]	n/a	FR1	0	R1425D
2237.484	1.63	2237841	WORD	n/a	wordpools/wordpool_EN.txt	CLAY	9	19	[0, 0, 0]	n/a	FR1	0	R1425D
2239.114	0.868	2239460	WORD_OFF	n/a	n/a	CLAY	9	19	[0, 0, 0]	n/a	FR1	0	R1425D
2239.982	1.632	2240330	WORD	n/a	wordpools/wordpool_EN.txt	WORLD	10	19	[0, 0, 0]	n/a	FR1	0	R1425D
2241.614	1.09	2241949	WORD_OFF	n/a	n/a	WORLD	10	19	[0, 0, 0]	n/a	FR1	0	R1425D
2242.704	1.627	2243045	WORD	n/a	wordpools/wordpool_EN.txt	BOY	11	19	[0, 0, 0]	n/a	FR1	0	R1425D
2244.331	0.859	2244664	WORD_OFF	n/a	n/a	BOY	11	19	[0, 0, 0]	n/a	FR1	0	R1425D
2245.19	1.625	2245534	WORD	n/a	wordpools/wordpool_EN.txt	DUCK	12	19	[0, 0, 0]	n/a	FR1	0	R1425D
2246.815	0.0	2247162	START	n/a	n/a	n/a	-999	19	[-999, -999, -999]	n/a	FR1	0	R1425D
2246.814	0.0	2247170	WORD_OFF	n/a	n/a	DUCK	12	19	[0, 0, 0]	n/a	FR1	0	R1425D
2246.814	0.001	2247170	ENCODING_END	n/a	n/a	n/a	-999	19	[0, 0, 0]	n/a	FR1	0	R1425D
2246.815	0.016	2247170	DISTRACT_START	n/a	n/a	n/a	-999	19	[0, 0, 0]	n/a	FR1	0	R1425D
2246.831	3.335	2247178	PROB	3.335	n/a	n/a	-999	19	[6, 1, 4]	11	FR1	0	R1425D
2250.166	3.666	2250513	PROB	3.666	n/a	n/a	-999	19	[2, 9, 1]	12	FR1	0	R1425D
2253.832	2.268	2254179	PROB	2.268	n/a	n/a	-999	19	[9, 8, 1]	18	FR1	0	R1425D
2256.1	1.749	2256447	PROB	1.749	n/a	n/a	-999	19	[8, 2, 2]	12	FR1	0	R1425D
2257.849	3.352	2258195	PROB	3.352	n/a	n/a	-999	19	[5, 9, 8]	24	FR1	0	R1425D
2261.201	4.434	2261547	PROB	4.434	n/a	n/a	-999	19	[1, 4, 1]	6	FR1	0	R1425D
2265.635	3.073	2265981	PROB	3.073	n/a	n/a	-999	19	[4, 2, 2]	8	FR1	0	R1425D
2268.708	0.01	2269054	STOP	n/a	n/a	n/a	-999	19	[-999, -999, -999]	n/a	FR1	0	R1425D
2268.718	2.101	2269063	DISTRACT_END	n/a	n/a	n/a	-999	19	[0, 0, 0]	n/a	FR1	0	R1425D
2270.819	1.066	2271169	REC_START	n/a	n/a	n/a	-999	19	[0, 0, 0]	n/a	FR1	0	R1425D
2271.885	0.911	2272231	REC_WORD	0.911	n/a	CHAIR	-999	19	[0, 0, 0]	n/a	FR1	0	R1425D
2272.796	0.794	2273142	REC_WORD	0.794	n/a	EEL	2	19	[0, 0, 0]	n/a	FR1	0	R1425D
2273.59	1.078	2273936	REC_WORD	1.078	n/a	TREE	3	19	[0, 0, 0]	n/a	FR1	0	R1425D
2274.668	5.185	2275014	REC_WORD	5.185	n/a	ROOT	5	19	[0, 0, 0]	n/a	FR1	0	R1425D
2279.853	6.595	2280198	REC_WORD_VV	6.595	n/a	<>	-999	19	[0, 0, 0]	n/a	FR1	0	R1425D
2286.448	4.773	2286793	REC_WORD	4.773	n/a	CLOUD	8	19	[0, 0, 0]	n/a	FR1	0	R1425D
2291.221	9.608	2291566	REC_WORD_VV	9.608	n/a	<>	-999	19	[0, 0, 0]	n/a	FR1	0	R1425D
2300.829	4.331	2301190	REC_END	n/a	n/a	n/a	-999	19	[0, 0, 0]	n/a	FR1	0	R1425D
2305.16	10.428	2305524	COUNTDOWN_START	n/a	n/a	n/a	-999	20	[0, 0, 0]	n/a	FR1	0	R1425D
2315.588	1.057	2315931	COUNTDOWN_END	n/a	n/a	n/a	-999	20	[0, 0, 0]	n/a	FR1	0	R1425D
2316.645	1.131	2316975	ENCODING_START	n/a	n/a	n/a	-999	20	[0, 0, 0]	n/a	FR1	0	R1425D
2317.776	1.636	2318124	WORD	n/a	wordpools/wordpool_EN.txt	CHAIR	1	20	[0, 0, 0]	n/a	FR1	0	R1425D
2319.412	0.842	2319742	WORD_OFF	n/a	n/a	CHAIR	1	20	[0, 0, 0]	n/a	FR1	0	R1425D
2320.254	1.625	2320595	WORD	n/a	wordpools/wordpool_EN.txt	STICK	2	20	[0, 0, 0]	n/a	FR1	0	R1425D
2321.879	0.829	2322214	WORD_OFF	n/a	n/a	STICK	2	20	[0, 0, 0]	n/a	FR1	0	R1425D
2322.708	1.621	2323049	WORD	n/a	wordpools/wordpool_EN.txt	BIRD	3	20	[0, 0, 0]	n/a	FR1	0	R1425D
2324.329	0.893	2324668	WORD_OFF	n/a	n/a	BIRD	3	20	[0, 0, 0]	n/a	FR1	0	R1425D
2325.222	1.623	2325555	WORD	n/a	wordpools/wordpool_EN.txt	BRICK	4	20	[0, 0, 0]	n/a	FR1	0	R1425D
2326.845	0.865	2327174	WORD_OFF	n/a	n/a	BRICK	4	20	[0, 0, 0]	n/a	FR1	0	R1425D
2327.71	1.637	2328061	WORD	n/a	wordpools/wordpool_EN.txt	PEAR	5	20	[0, 0, 0]	n/a	FR1	0	R1425D
2329.347	0.998	2329680	WORD_OFF	n/a	n/a	PEAR	5	20	[0, 0, 0]	n/a	FR1	0	R1425D
2330.345	1.636	2330689	WORD	n/a	wordpools/wordpool_EN.txt	RAIN	6	20	[0, 0, 0]	n/a	FR1	0	R1425D
2331.981	0.814	2332308	WORD_OFF	n/a	n/a	RAIN	6	20	[0, 0, 0]	n/a	FR1	0	R1425D
2332.795	1.62	2333143	WORD	n/a	wordpools/wordpool_EN.txt	RUG	7	20	[0, 0, 0]	n/a	FR1	0	R1425D
2334.415	0.847	2334744	WORD_OFF	n/a	n/a	RUG	7	20	[0, 0, 0]	n/a	FR1	0	R1425D
2335.262	1.636	2335614	WORD	n/a	wordpools/wordpool_EN.txt	WEB	8	20	[0, 0, 0]	n/a	FR1	0	R1425D
2336.898	1.023	2337233	WORD_OFF	n/a	n/a	WEB	8	20	[0, 0, 0]	n/a	FR1	0	R1425D
2337.921	1.628	2338260	WORD	n/a	wordpools/wordpool_EN.txt	SHIP	9	20	[0, 0, 0]	n/a	FR1	0	R1425D
2339.549	0.916	2339878	WORD_OFF	n/a	n/a	SHIP	9	20	[0, 0, 0]	n/a	FR1	0	R1425D
2340.465	1.634	2340818	WORD	n/a	wordpools/wordpool_EN.txt	FORT	10	20	[0, 0, 0]	n/a	FR1	0	R1425D
2342.099	0.782	2342436	WORD_OFF	n/a	n/a	FORT	10	20	[0, 0, 0]	n/a	FR1	0	R1425D
2342.881	1.635	2343237	WORD	n/a	wordpools/wordpool_EN.txt	CONE	11	20	[0, 0, 0]	n/a	FR1	0	R1425D
2344.516	0.994	2344856	WORD_OFF	n/a	n/a	CONE	11	20	[0, 0, 0]	n/a	FR1	0	R1425D
2345.51	1.625	2345848	WORD	n/a	wordpools/wordpool_EN.txt	GOLD	12	20	[0, 0, 0]	n/a	FR1	0	R1425D
2347.135	0.0	2347477	START	n/a	n/a	n/a	-999	20	[-999, -999, -999]	n/a	FR1	0	R1425D
2347.134	0.0	2347483	WORD_OFF	n/a	n/a	GOLD	12	20	[0, 0, 0]	n/a	FR1	0	R1425D
2347.134	0.001	2347483	ENCODING_END	n/a	n/a	n/a	-999	20	[0, 0, 0]	n/a	FR1	0	R1425D
2347.135	0.015	2347483	DISTRACT_START	n/a	n/a	n/a	-999	20	[0, 0, 0]	n/a	FR1	0	R1425D
2347.15	3.784	2347492	PROB	3.784	n/a	n/a	-999	20	[9, 6, 8]	23	FR1	0	R1425D
2350.934	7.485	2351276	PROB	7.485	n/a	n/a	-999	20	[7, 5, 1]	13	FR1	0	R1425D
2358.419	4.651	2358760	PROB	4.651	n/a	n/a	-999	20	[8, 2, 7]	17	FR1	0	R1425D
2363.07	4.308	2363411	PROB	4.308	n/a	n/a	-999	20	[4, 1, 1]	6	FR1	0	R1425D
2367.378	0.009	2367719	STOP	n/a	n/a	n/a	-999	20	[-999, -999, -999]	n/a	FR1	0	R1425D
2367.387	2.185	2367724	DISTRACT_END	n/a	n/a	n/a	-999	20	[0, 0, 0]	n/a	FR1	0	R1425D
2369.572	3.356	2369917	REC_START	n/a	n/a	n/a	-999	20	[0, 0, 0]	n/a	FR1	0	R1425D
2372.928	1.656	2373268	REC_WORD	1.656	n/a	STICK	2	20	[0, 0, 0]	n/a	FR1	0	R1425D
2374.584	3.329	2374924	REC_WORD	3.329	n/a	CHAIR	1	20	[0, 0, 0]	n/a	FR1	0	R1425D
2377.913	1.0	2378253	REC_WORD_VV	1.0	n/a	<>	-999	20	[0, 0, 0]	n/a	FR1	0	R1425D
2378.913	7.213	2379253	REC_WORD_VV	7.213	n/a	<>	-999	20	[0, 0, 0]	n/a	FR1	0	R1425D
2386.126	1.228	2386466	REC_WORD	1.228	n/a	SHIP	9	20	[0, 0, 0]	n/a	FR1	0	R1425D
2387.354	11.015	2387694	REC_WORD	11.015	n/a	FORT	10	20	[0, 0, 0]	n/a	FR1	0	R1425D
2398.369	1.214	2398708	REC_WORD	1.214	n/a	PEACH	-999	20	[0, 0, 0]	n/a	FR1	0	R1425D
2399.583	5.211	2399938	REC_END	n/a	n/a	n/a	-999	20	[0, 0, 0]	n/a	FR1	0	R1425D
2404.794	10.429	2405159	COUNTDOWN_START	n/a	n/a	n/a	-999	21	[0, 0, 0]	n/a	FR1	0	R1425D
2415.223	1.124	2415566	COUNTDOWN_END	n/a	n/a	n/a	-999	21	[0, 0, 0]	n/a	FR1	0	R1425D
2416.347	0.965	2416680	ENCODING_START	n/a	n/a	n/a	-999	21	[0, 0, 0]	n/a	FR1	0	R1425D
2417.312	1.635	2417654	WORD	n/a	wordpools/wordpool_EN.txt	SUN	1	21	[0, 0, 0]	n/a	FR1	0	R1425D
2418.947	0.792	2419273	WORD_OFF	n/a	n/a	SUN	1	21	[0, 0, 0]	n/a	FR1	0	R1425D
2419.739	1.625	2420073	WORD	n/a	wordpools/wordpool_EN.txt	VEST	2	21	[0, 0, 0]	n/a	FR1	0	R1425D
2421.364	1.143	2421692	WORD_OFF	n/a	n/a	VEST	2	21	[0, 0, 0]	n/a	FR1	0	R1425D
2422.507	1.624	2422841	WORD	n/a	wordpools/wordpool_EN.txt	FACE	3	21	[0, 0, 0]	n/a	FR1	0	R1425D
2424.131	0.902	2424459	WORD_OFF	n/a	n/a	FACE	3	21	[0, 0, 0]	n/a	FR1	0	R1425D
2425.033	1.632	2425381	WORD	n/a	wordpools/wordpool_EN.txt	LAMB	4	21	[0, 0, 0]	n/a	FR1	0	R1425D
2426.665	1.039	2427000	WORD_OFF	n/a	n/a	LAMB	4	21	[0, 0, 0]	n/a	FR1	0	R1425D
2427.704	1.628	2428044	WORD	n/a	wordpools/wordpool_EN.txt	NEST	5	21	[0, 0, 0]	n/a	FR1	0	R1425D
2429.332	0.752	2429663	WORD_OFF	n/a	n/a	NEST	5	21	[0, 0, 0]	n/a	FR1	0	R1425D
2430.084	1.632	2430428	WORD	n/a	wordpools/wordpool_EN.txt	FENCE	6	21	[0, 0, 0]	n/a	FR1	0	R1425D
2431.716	0.998	2432047	WORD_OFF	n/a	n/a	FENCE	6	21	[0, 0, 0]	n/a	FR1	0	R1425D
2432.714	1.635	2433056	WORD	n/a	wordpools/wordpool_EN.txt	LAND	7	21	[0, 0, 0]	n/a	FR1	0	R1425D
2434.349	0.908	2434675	WORD_OFF	n/a	n/a	LAND	7	21	[0, 0, 0]	n/a	FR1	0	R1425D
2435.257	1.626	2435597	WORD	n/a	wordpools/wordpool_EN.txt	SKI	8	21	[0, 0, 0]	n/a	FR1	0	R1425D
2436.883	0.788	2437216	WORD_OFF	n/a	n/a	SKI	8	21	[0, 0, 0]	n/a	FR1	0	R1425D
2437.671	1.629	2438016	WORD	n/a	wordpools/wordpool_EN.txt	NOSE	9	21	[0, 0, 0]	n/a	FR1	0	R1425D
2439.3	0.847	2439635	WORD_OFF	n/a	n/a	NOSE	9	21	[0, 0, 0]	n/a	FR1	0	R1425D
2440.147	1.636	2440488	WORD	n/a	wordpools/wordpool_EN.txt	HAWK	10	21	[0, 0, 0]	n/a	FR1	0	R1425D
2441.783	0.86	2442106	WORD_OFF	n/a	n/a	HAWK	10	21	[0, 0, 0]	n/a	FR1	0	R1425D
2442.643	1.625	2442976	WORD	n/a	wordpools/wordpool_EN.txt	DRESS	11	21	[0, 0, 0]	n/a	FR1	0	R1425D
2444.268	1.148	2444595	WORD_OFF	n/a	n/a	DRESS	11	21	[0, 0, 0]	n/a	FR1	0	R1425D
2445.416	1.637	2445761	WORD	n/a	wordpools/wordpool_EN.txt	ANT	12	21	[0, 0, 0]	n/a	FR1	0	R1425D
2447.053	0.0	2447390	START	n/a	n/a	n/a	-999	21	[-999, -999, -999]	n/a	FR1	0	R1425D
2447.052	0.0	2447397	WORD_OFF	n/a	n/a	ANT	12	21	[0, 0, 0]	n/a	FR1	0	R1425D
2447.052	0.001	2447397	ENCODING_END	n/a	n/a	n/a	-999	21	[0, 0, 0]	n/a	FR1	0	R1425D
2447.053	0.015	2447397	DISTRACT_START	n/a	n/a	n/a	-999	21	[0, 0, 0]	n/a	FR1	0	R1425D
2447.068	5.235	2447405	PROB	5.235	n/a	n/a	-999	21	[1, 8, 7]	16	FR1	0	R1425D
2452.303	7.601	2452639	PROB	7.601	n/a	n/a	-999	21	[6, 5, 2]	13	FR1	0	R1425D
2459.904	3.434	2460240	PROB	3.434	n/a	n/a	-999	21	[8, 9, 5]	22	FR1	0	R1425D
2463.338	3.001	2463674	PROB	3.001	n/a	n/a	-999	21	[2, 9, 7]	18	FR1	0	R1425D
2466.339	6.229	2466675	PROB	6.229	n/a	n/a	-999	21	[8, 9, 5]	22	FR1	0	R1425D
2472.568	0.022	2472903	STOP	n/a	n/a	n/a	-999	21	[-999, -999, -999]	n/a	FR1	0	R1425D
2472.59	2.217	2472910	DISTRACT_END	n/a	n/a	n/a	-999	21	[0, 0, 0]	n/a	FR1	0	R1425D
2474.807	1.664	2475138	REC_START	n/a	n/a	n/a	-999	21	[0, 0, 0]	n/a	FR1	0	R1425D
2476.471	1.786	2476806	REC_WORD_VV	1.786	n/a	<>	-999	21	[0, 0, 0]	n/a	FR1	0	R1425D
2478.257	0.994	2478592	REC_WORD	0.994	n/a	SKI	8	21	[0, 0, 0]	n/a	FR1	0	R1425D
2479.251	3.446	2479586	REC_WORD	3.446	n/a	LAND	7	21	[0, 0, 0]	n/a	FR1	0	R1425D
2482.697	2.874	2483032	REC_WORD_VV	2.874	n/a	<>	-999	21	[0, 0, 0]	n/a	FR1	0	R1425D
2485.571	1.739	2485906	REC_WORD_VV	1.739	n/a	<>	-999	21	[0, 0, 0]	n/a	FR1	0	R1425D
2487.31	5.698	2487645	REC_WORD_VV	5.698	n/a	<>	-999	21	[0, 0, 0]	n/a	FR1	0	R1425D
2493.008	3.153	2493342	REC_WORD	3.153	n/a	VEST	2	21	[0, 0, 0]	n/a	FR1	0	R1425D
2496.161	1.025	2496495	REC_WORD	1.025	n/a	FACE	3	21	[0, 0, 0]	n/a	FR1	0	R1425D
2497.186	7.632	2497520	REC_WORD	7.632	n/a	NOSE	9	21	[0, 0, 0]	n/a	FR1	0	R1425D
2504.818	5.063	2505159	REC_END	n/a	n/a	n/a	-999	21	[0, 0, 0]	n/a	FR1	0	R1425D
2509.881	10.429	2510241	COUNTDOWN_START	n/a	n/a	n/a	-999	22	[0, 0, 0]	n/a	FR1	0	R1425D
2520.31	1.256	2520631	COUNTDOWN_END	n/a	n/a	n/a	-999	22	[0, 0, 0]	n/a	FR1	0	R1425D
2521.566	1.148	2521884	ENCODING_START	n/a	n/a	n/a	-999	22	[0, 0, 0]	n/a	FR1	0	R1425D
2522.714	1.618	2523050	WORD	n/a	wordpools/wordpool_EN.txt	BED	1	22	[0, 0, 0]	n/a	FR1	0	R1425D
2524.332	0.865	2524651	WORD_OFF	n/a	n/a	BED	1	22	[0, 0, 0]	n/a	FR1	0	R1425D
2525.197	1.635	2525539	WORD	n/a	wordpools/wordpool_EN.txt	TRAIN	2	22	[0, 0, 0]	n/a	FR1	0	R1425D
2526.832	0.865	2527157	WORD_OFF	n/a	n/a	TRAIN	2	22	[0, 0, 0]	n/a	FR1	0	R1425D
2527.697	1.637	2528045	WORD	n/a	wordpools/wordpool_EN.txt	FROG	3	22	[0, 0, 0]	n/a	FR1	0	R1425D
2529.334	0.862	2529663	WORD_OFF	n/a	n/a	FROG	3	22	[0, 0, 0]	n/a	FR1	0	R1425D
2530.196	1.62	2530516	WORD	n/a	wordpools/wordpool_EN.txt	FILM	4	22	[0, 0, 0]	n/a	FR1	0	R1425D
2531.816	0.868	2532134	WORD_OFF	n/a	n/a	FILM	4	22	[0, 0, 0]	n/a	FR1	0	R1425D
2532.684	1.634	2533022	WORD	n/a	wordpools/wordpool_EN.txt	OAK	5	22	[0, 0, 0]	n/a	FR1	0	R1425D
2534.318	0.824	2534641	WORD_OFF	n/a	n/a	OAK	5	22	[0, 0, 0]	n/a	FR1	0	R1425D
2535.142	1.625	2535476	WORD	n/a	wordpools/wordpool_EN.txt	CLOCK	6	22	[0, 0, 0]	n/a	FR1	0	R1425D
2536.767	0.924	2537094	WORD_OFF	n/a	n/a	CLOCK	6	22	[0, 0, 0]	n/a	FR1	0	R1425D
2537.691	1.628	2538017	WORD	n/a	wordpools/wordpool_EN.txt	VASE	7	22	[0, 0, 0]	n/a	FR1	0	R1425D
2539.319	0.827	2539635	WORD_OFF	n/a	n/a	VASE	7	22	[0, 0, 0]	n/a	FR1	0	R1425D
2540.146	1.622	2540471	WORD	n/a	wordpools/wordpool_EN.txt	CAVE	8	22	[0, 0, 0]	n/a	FR1	0	R1425D
2541.768	1.096	2542089	WORD_OFF	n/a	n/a	CAVE	8	22	[0, 0, 0]	n/a	FR1	0	R1425D
2542.864	1.623	2543186	WORD	n/a	wordpools/wordpool_EN.txt	SLEEVE	9	22	[0, 0, 0]	n/a	FR1	0	R1425D
2544.487	0.793	2544804	WORD_OFF	n/a	n/a	SLEEVE	9	22	[0, 0, 0]	n/a	FR1	0	R1425D
2545.28	1.623	2545605	WORD	n/a	wordpools/wordpool_EN.txt	SHOE	10	22	[0, 0, 0]	n/a	FR1	0	R1425D
2546.903	0.89	2547223	WORD_OFF	n/a	n/a	SHOE	10	22	[0, 0, 0]	n/a	FR1	0	R1425D
2547.793	1.628	2548128	WORD	n/a	wordpools/wordpool_EN.txt	BEAN	11	22	[0, 0, 0]	n/a	FR1	0	R1425D
2549.421	1.08	2549747	WORD_OFF	n/a	n/a	BEAN	11	22	[0, 0, 0]	n/a	FR1	0	R1425D
2550.501	1.638	2550843	WORD	n/a	wordpools/wordpool_EN.txt	FLOOR	12	22	[0, 0, 0]	n/a	FR1	0	R1425D
2552.139	0.0	2552470	START	n/a	n/a	n/a	-999	22	[-999, -999, -999]	n/a	FR1	0	R1425D
2552.138	0.0	2552479	WORD_OFF	n/a	n/a	FLOOR	12	22	[0, 0, 0]	n/a	FR1	0	R1425D
2552.138	0.001	2552479	ENCODING_END	n/a	n/a	n/a	-999	22	[0, 0, 0]	n/a	FR1	0	R1425D
2552.139	0.015	2552479	DISTRACT_START	n/a	n/a	n/a	-999	22	[0, 0, 0]	n/a	FR1	0	R1425D
2552.154	4.534	2552485	PROB	4.534	n/a	n/a	-999	22	[4, 2, 4]	10	FR1	0	R1425D
2556.688	3.768	2557019	PROB	3.768	n/a	n/a	-999	22	[7, 5, 8]	23	FR1	0	R1425D
2560.456	3.234	2560787	PROB	3.234	n/a	n/a	-999	22	[5, 7, 9]	21	FR1	0	R1425D
2563.69	3.3	2564021	PROB	3.3	n/a	n/a	-999	22	[7, 4, 6]	17	FR1	0	R1425D
2566.99	4.151	2567320	PROB	4.151	n/a	n/a	-999	22	[3, 4, 9]	16	FR1	0	R1425D
2571.141	3.62	2571471	PROB	3.62	n/a	n/a	-999	22	[6, 7, 6]	19	FR1	0	R1425D
2574.761	0.013	2575091	STOP	n/a	n/a	n/a	-999	22	[-999, -999, -999]	n/a	FR1	0	R1425D
2574.774	2.202	2575104	DISTRACT_END	n/a	n/a	n/a	-999	22	[0, 0, 0]	n/a	FR1	0	R1425D
2576.976	2.628	2577314	REC_START	n/a	n/a	n/a	-999	22	[0, 0, 0]	n/a	FR1	0	R1425D
2579.604	1.051	2579934	REC_WORD	1.051	n/a	FLOOR	12	22	[0, 0, 0]	n/a	FR1	0	R1425D
2580.655	1.389	2580985	REC_WORD	1.389	n/a	BED	1	22	[0, 0, 0]	n/a	FR1	0	R1425D
2582.044	4.351	2582374	REC_WORD	4.351	n/a	OAK	5	22	[0, 0, 0]	n/a	FR1	0	R1425D
2586.395	3.579	2586724	REC_WORD	3.579	n/a	SLEEVE	9	22	[0, 0, 0]	n/a	FR1	0	R1425D
2589.974	3.33	2590303	REC_WORD_VV	3.33	n/a	<>	-999	22	[0, 0, 0]	n/a	FR1	0	R1425D
2593.304	5.473	2593633	REC_WORD_VV	5.473	n/a	<>	-999	22	[0, 0, 0]	n/a	FR1	0	R1425D
2598.777	8.21	2599106	REC_WORD	8.21	n/a	CLOCK	6	22	[0, 0, 0]	n/a	FR1	0	R1425D
2606.987	4.496	2607318	REC_END	n/a	n/a	n/a	-999	22	[0, 0, 0]	n/a	FR1	0	R1425D
2611.483	10.429	2611842	COUNTDOWN_START	n/a	n/a	n/a	-999	23	[0, 0, 0]	n/a	FR1	0	R1425D
2621.912	1.239	2622232	COUNTDOWN_END	n/a	n/a	n/a	-999	23	[0, 0, 0]	n/a	FR1	0	R1425D
2623.151	1.038	2623468	ENCODING_START	n/a	n/a	n/a	-999	23	[0, 0, 0]	n/a	FR1	0	R1425D
2624.189	1.628	2624512	WORD	n/a	wordpools/wordpool_EN.txt	SPOON	1	23	[0, 0, 0]	n/a	FR1	0	R1425D
2625.817	1.064	2626131	WORD_OFF	n/a	n/a	SPOON	1	23	[0, 0, 0]	n/a	FR1	0	R1425D
2626.881	1.637	2627227	WORD	n/a	wordpools/wordpool_EN.txt	ROOM	2	23	[0, 0, 0]	n/a	FR1	0	R1425D
2628.518	0.805	2628846	WORD_OFF	n/a	n/a	ROOM	2	23	[0, 0, 0]	n/a	FR1	0	R1425D
2629.323	1.629	2629646	WORD	n/a	wordpools/wordpool_EN.txt	RICE	3	23	[0, 0, 0]	n/a	FR1	0	R1425D
2630.952	1.144	2631265	WORD_OFF	n/a	n/a	RICE	3	23	[0, 0, 0]	n/a	FR1	0	R1425D
2632.096	1.622	2632413	WORD	n/a	wordpools/wordpool_EN.txt	BREAD	4	23	[0, 0, 0]	n/a	FR1	0	R1425D
2633.718	0.921	2634032	WORD_OFF	n/a	n/a	BREAD	4	23	[0, 0, 0]	n/a	FR1	0	R1425D
2634.639	1.631	2634972	WORD	n/a	wordpools/wordpool_EN.txt	COUCH	5	23	[0, 0, 0]	n/a	FR1	0	R1425D
2636.27	1.088	2636590	WORD_OFF	n/a	n/a	COUCH	5	23	[0, 0, 0]	n/a	FR1	0	R1425D
2637.358	1.629	2637687	WORD	n/a	wordpools/wordpool_EN.txt	BEE	6	23	[0, 0, 0]	n/a	FR1	0	R1425D
2638.987	1.089	2639305	WORD_OFF	n/a	n/a	BEE	6	23	[0, 0, 0]	n/a	FR1	0	R1425D
2640.076	1.628	2640402	WORD	n/a	wordpools/wordpool_EN.txt	STAR	7	23	[0, 0, 0]	n/a	FR1	0	R1425D
2641.704	0.833	2642020	WORD_OFF	n/a	n/a	STAR	7	23	[0, 0, 0]	n/a	FR1	0	R1425D
2642.537	1.634	2642873	WORD	n/a	wordpools/wordpool_EN.txt	LEAF	8	23	[0, 0, 0]	n/a	FR1	0	R1425D
2644.171	1.002	2644491	WORD_OFF	n/a	n/a	LEAF	8	23	[0, 0, 0]	n/a	FR1	0	R1425D
2645.173	1.631	2645501	WORD	n/a	wordpools/wordpool_EN.txt	GRASS	9	23	[0, 0, 0]	n/a	FR1	0	R1425D
2646.804	0.796	2647119	WORD_OFF	n/a	n/a	GRASS	9	23	[0, 0, 0]	n/a	FR1	0	R1425D
2647.6	1.622	2647920	WORD	n/a	wordpools/wordpool_EN.txt	PALM	10	23	[0, 0, 0]	n/a	FR1	0	R1425D
2649.222	0.822	2649538	WORD_OFF	n/a	n/a	PALM	10	23	[0, 0, 0]	n/a	FR1	0	R1425D
2650.044	1.629	2650374	WORD	n/a	wordpools/wordpool_EN.txt	RIB	11	23	[0, 0, 0]	n/a	FR1	0	R1425D
2651.673	1.126	2651992	WORD_OFF	n/a	n/a	RIB	11	23	[0, 0, 0]	n/a	FR1	0	R1425D
2652.799	1.608	2653124	WORD	n/a	wordpools/wordpool_EN.txt	HAT	12	23	[0, 0, 0]	n/a	FR1	0	R1425D
2654.407	0.0	2654733	START	n/a	n/a	n/a	-999	23	[-999, -999, -999]	n/a	FR1	0	R1425D
2654.406	0.001	2654742	WORD_OFF	n/a	n/a	HAT	12	23	[0, 0, 0]	n/a	FR1	0	R1425D
2654.407	0.0	2654742	ENCODING_END	n/a	n/a	n/a	-999	23	[0, 0, 0]	n/a	FR1	0	R1425D
2654.407	0.016	2654742	DISTRACT_START	n/a	n/a	n/a	-999	23	[0, 0, 0]	n/a	FR1	0	R1425D
2654.423	4.268	2654749	PROB	4.268	n/a	n/a	-999	23	[6, 3, 4]	13	FR1	0	R1425D
2658.691	4.133	2659017	PROB	4.133	n/a	n/a	-999	23	[4, 5, 4]	13	FR1	0	R1425D
2662.824	5.485	2663150	PROB	5.485	n/a	n/a	-999	23	[2, 1, 1]	4	FR1	0	R1425D
2668.309	3.067	2668634	PROB	3.067	n/a	n/a	-999	23	[7, 9, 1]	17	FR1	0	R1425D
2671.376	9.386	2671701	PROB	9.386	n/a	n/a	-999	23	[7, 7, 8]	22	FR1	0	R1425D
2680.762	0.015	2681087	STOP	n/a	n/a	n/a	-999	23	[-999, -999, -999]	n/a	FR1	0	R1425D
2680.777	2.119	2681091	DISTRACT_END	n/a	n/a	n/a	-999	23	[0, 0, 0]	n/a	FR1	0	R1425D
2682.896	1.12	2683214	REC_START	n/a	n/a	n/a	-999	23	[0, 0, 0]	n/a	FR1	0	R1425D
2684.016	0.585	2684340	REC_WORD	0.585	n/a	LEAF	8	23	[0, 0, 0]	n/a	FR1	0	R1425D
2684.601	0.899	2684925	REC_WORD	0.899	n/a	SPOON	1	23	[0, 0, 0]	n/a	FR1	0	R1425D
2685.5	2.382	2685824	REC_WORD	2.382	n/a	RICE	3	23	[0, 0, 0]	n/a	FR1	0	R1425D
2687.882	1.733	2688206	REC_WORD	1.733	n/a	COUCH	5	23	[0, 0, 0]	n/a	FR1	0	R1425D
2689.615	3.419	2689939	REC_WORD	3.419	n/a	BREAD	4	23	[0, 0, 0]	n/a	FR1	0	R1425D
2693.034	10.293	2693358	REC_WORD	10.293	n/a	ROOM	2	23	[0, 0, 0]	n/a	FR1	0	R1425D
2703.327	9.579	2703650	REC_WORD	9.579	n/a	BEE	6	23	[0, 0, 0]	n/a	FR1	0	R1425D
2712.906	2.796	2713235	REC_END	n/a	n/a	n/a	-999	23	[0, 0, 0]	n/a	FR1	0	R1425D
2715.702	10.429	2716055	COUNTDOWN_START	n/a	n/a	n/a	-999	24	[0, 0, 0]	n/a	FR1	0	R1425D
2726.131	1.023	2726444	COUNTDOWN_END	n/a	n/a	n/a	-999	24	[0, 0, 0]	n/a	FR1	0	R1425D
2727.154	0.905	2727471	ENCODING_START	n/a	n/a	n/a	-999	24	[0, 0, 0]	n/a	FR1	0	R1425D
2728.059	1.628	2728376	WORD	n/a	wordpools/wordpool_EN.txt	BRANCH	1	24	[0, 0, 0]	n/a	FR1	0	R1425D
2729.687	1.016	2729995	WORD_OFF	n/a	n/a	BRANCH	1	24	[0, 0, 0]	n/a	FR1	0	R1425D
2730.703	1.635	2731039	WORD	n/a	wordpools/wordpool_EN.txt	SWORD	2	24	[0, 0, 0]	n/a	FR1	0	R1425D
2732.338	0.914	2732657	WORD_OFF	n/a	n/a	SWORD	2	24	[0, 0, 0]	n/a	FR1	0	R1425D
2733.252	1.636	2733580	WORD	n/a	wordpools/wordpool_EN.txt	POOL	3	24	[0, 0, 0]	n/a	FR1	0	R1425D
2734.888	1.008	2735198	WORD_OFF	n/a	n/a	POOL	3	24	[0, 0, 0]	n/a	FR1	0	R1425D
2735.896	1.626	2736225	WORD	n/a	wordpools/wordpool_EN.txt	CHIEF	4	24	[0, 0, 0]	n/a	FR1	0	R1425D
2737.522	0.912	2737844	WORD_OFF	n/a	n/a	CHIEF	4	24	[0, 0, 0]	n/a	FR1	0	R1425D
2738.434	1.622	2738749	WORD	n/a	wordpools/wordpool_EN.txt	SMOKE	5	24	[0, 0, 0]	n/a	FR1	0	R1425D
2740.056	1.135	2740367	WORD_OFF	n/a	n/a	SMOKE	5	24	[0, 0, 0]	n/a	FR1	0	R1425D
2741.191	1.631	2741516	WORD	n/a	wordpools/wordpool_EN.txt	CROWN	6	24	[0, 0, 0]	n/a	FR1	0	R1425D
2742.822	0.844	2743134	WORD_OFF	n/a	n/a	CROWN	6	24	[0, 0, 0]	n/a	FR1	0	R1425D
2743.666	1.624	2743987	WORD	n/a	wordpools/wordpool_EN.txt	DESK	7	24	[0, 0, 0]	n/a	FR1	0	R1425D
2745.29	0.777	2745606	WORD_OFF	n/a	n/a	DESK	7	24	[0, 0, 0]	n/a	FR1	0	R1425D
2746.067	1.623	2746389	WORD	n/a	wordpools/wordpool_EN.txt	SHRIMP	8	24	[0, 0, 0]	n/a	FR1	0	R1425D
2747.69	0.863	2748007	WORD_OFF	n/a	n/a	SHRIMP	8	24	[0, 0, 0]	n/a	FR1	0	R1425D
2748.553	1.621	2748878	WORD	n/a	wordpools/wordpool_EN.txt	POLE	9	24	[0, 0, 0]	n/a	FR1	0	R1425D
2750.174	1.059	2750496	WORD_OFF	n/a	n/a	POLE	9	24	[0, 0, 0]	n/a	FR1	0	R1425D
2751.233	1.624	2751558	WORD	n/a	wordpools/wordpool_EN.txt	FLUTE	10	24	[0, 0, 0]	n/a	FR1	0	R1425D
2752.857	1.053	2753176	WORD_OFF	n/a	n/a	FLUTE	10	24	[0, 0, 0]	n/a	FR1	0	R1425D
2753.91	1.632	2754238	WORD	n/a	wordpools/wordpool_EN.txt	HEART	11	24	[0, 0, 0]	n/a	FR1	0	R1425D
2755.542	1.142	2755856	WORD_OFF	n/a	n/a	HEART	11	24	[0, 0, 0]	n/a	FR1	0	R1425D
2756.684	1.626	2757005	WORD	n/a	wordpools/wordpool_EN.txt	ROPE	12	24	[0, 0, 0]	n/a	FR1	0	R1425D
2758.31	0.0	2758631	START	n/a	n/a	n/a	-999	24	[-999, -999, -999]	n/a	FR1	0	R1425D
2758.309	0.0	2758641	WORD_OFF	n/a	n/a	ROPE	12	24	[0, 0, 0]	n/a	FR1	0	R1425D
2758.309	0.001	2758641	ENCODING_END	n/a	n/a	n/a	-999	24	[0, 0, 0]	n/a	FR1	0	R1425D
2758.31	0.015	2758641	DISTRACT_START	n/a	n/a	n/a	-999	24	[0, 0, 0]	n/a	FR1	0	R1425D
2758.325	4.135	2758646	PROB	4.135	n/a	n/a	-999	24	[7, 3, 9]	19	FR1	0	R1425D
2762.46	3.183	2762780	PROB	3.183	n/a	n/a	-999	24	[7, 3, 5]	15	FR1	0	R1425D
2765.643	2.634	2765963	PROB	2.634	n/a	n/a	-999	24	[3, 1, 9]	13	FR1	0	R1425D
2768.277	2.968	2768597	PROB	2.968	n/a	n/a	-999	24	[9, 8, 4]	21	FR1	0	R1425D
2771.245	4.017	2771565	PROB	4.017	n/a	n/a	-999	24	[7, 5, 4]	16	FR1	0	R1425D
2775.262	3.922	2775582	PROB	3.922	n/a	n/a	-999	24	[5, 7, 4]	16	FR1	0	R1425D
2779.184	0.012	2779504	STOP	n/a	n/a	n/a	-999	24	[-999, -999, -999]	n/a	FR1	0	R1425D
2779.196	2.218	2779508	DISTRACT_END	n/a	n/a	n/a	-999	24	[0, 0, 0]	n/a	FR1	0	R1425D
2781.414	0.842	2781735	REC_START	n/a	n/a	n/a	-999	24	[0, 0, 0]	n/a	FR1	0	R1425D
2782.256	0.603	2782575	REC_WORD	0.603	n/a	CHIEF	4	24	[0, 0, 0]	n/a	FR1	0	R1425D
2782.859	3.026	2783178	REC_WORD	3.026	n/a	SMOKE	5	24	[0, 0, 0]	n/a	FR1	0	R1425D
2785.885	2.644	2786204	REC_WORD_VV	2.644	n/a	<>	-999	24	[0, 0, 0]	n/a	FR1	0	R1425D
2788.529	2.363	2788848	REC_WORD_VV	2.363	n/a	<>	-999	24	[0, 0, 0]	n/a	FR1	0	R1425D
2790.892	0.699	2791211	REC_WORD	0.699	n/a	BRANCH	1	24	[0, 0, 0]	n/a	FR1	0	R1425D
2791.591	19.835	2791910	REC_WORD	19.835	n/a	SWORD	2	24	[0, 0, 0]	n/a	FR1	0	R1425D
2811.426	4.961	2811756	REC_END	n/a	n/a	n/a	-999	24	[0, 0, 0]	n/a	FR1	0	R1425D
2816.387	10.429	2816734	COUNTDOWN_START	n/a	n/a	n/a	-999	25	[0, 0, 0]	n/a	FR1	0	R1425D
2826.816	1.039	2827122	COUNTDOWN_END	n/a	n/a	n/a	-999	25	[0, 0, 0]	n/a	FR1	0	R1425D
2827.855	1.013	2828166	ENCODING_START	n/a	n/a	n/a	-999	25	[0, 0, 0]	n/a	FR1	0	R1425D
2828.868	1.637	2829193	WORD	n/a	wordpools/wordpool_EN.txt	PLATE	1	25	[0, 0, 0]	n/a	FR1	0	R1425D
2830.505	1.059	2830812	WORD_OFF	n/a	n/a	PLATE	1	25	[0, 0, 0]	n/a	FR1	0	R1425D
2831.564	1.625	2831891	WORD	n/a	wordpools/wordpool_EN.txt	FRUIT	2	25	[0, 0, 0]	n/a	FR1	0	R1425D
2833.189	0.936	2833492	WORD_OFF	n/a	n/a	FRUIT	2	25	[0, 0, 0]	n/a	FR1	0	R1425D
2834.125	1.631	2834449	WORD	n/a	wordpools/wordpool_EN.txt	PEN	3	25	[0, 0, 0]	n/a	FR1	0	R1425D
2835.756	1.131	2836067	WORD_OFF	n/a	n/a	PEN	3	25	[0, 0, 0]	n/a	FR1	0	R1425D
2836.887	1.637	2837216	WORD	n/a	wordpools/wordpool_EN.txt	LAMP	4	25	[0, 0, 0]	n/a	FR1	0	R1425D
2838.524	0.937	2838835	WORD_OFF	n/a	n/a	LAMP	4	25	[0, 0, 0]	n/a	FR1	0	R1425D
2839.461	1.63	2839774	WORD	n/a	wordpools/wordpool_EN.txt	SPRING	5	25	[0, 0, 0]	n/a	FR1	0	R1425D
2841.091	0.993	2841393	WORD_OFF	n/a	n/a	SPRING	5	25	[0, 0, 0]	n/a	FR1	0	R1425D
2842.084	1.624	2842402	WORD	n/a	wordpools/wordpool_EN.txt	YARD	6	25	[0, 0, 0]	n/a	FR1	0	R1425D
2843.708	0.81	2844021	WORD_OFF	n/a	n/a	YARD	6	25	[0, 0, 0]	n/a	FR1	0	R1425D
2844.518	1.624	2844839	WORD	n/a	wordpools/wordpool_EN.txt	PLANE	7	25	[0, 0, 0]	n/a	FR1	0	R1425D
2846.142	0.845	2846457	WORD_OFF	n/a	n/a	PLANE	7	25	[0, 0, 0]	n/a	FR1	0	R1425D
2846.987	1.622	2847293	WORD	n/a	wordpools/wordpool_EN.txt	COW	8	25	[0, 0, 0]	n/a	FR1	0	R1425D
2848.609	0.778	2848911	WORD_OFF	n/a	n/a	COW	8	25	[0, 0, 0]	n/a	FR1	0	R1425D
2849.387	1.622	2849694	WORD	n/a	wordpools/wordpool_EN.txt	SWAMP	9	25	[0, 0, 0]	n/a	FR1	0	R1425D
2851.009	1.1	2851313	WORD_OFF	n/a	n/a	SWAMP	9	25	[0, 0, 0]	n/a	FR1	0	R1425D
2852.109	1.633	2852427	WORD	n/a	wordpools/wordpool_EN.txt	TOAST	10	25	[0, 0, 0]	n/a	FR1	0	R1425D
2853.742	1.131	2854045	WORD_OFF	n/a	n/a	TOAST	10	25	[0, 0, 0]	n/a	FR1	0	R1425D
2854.873	1.637	2855194	WORD	n/a	wordpools/wordpool_EN.txt	KEY	11	25	[0, 0, 0]	n/a	FR1	0	R1425D
2856.51	0.829	2856812	WORD_OFF	n/a	n/a	KEY	11	25	[0, 0, 0]	n/a	FR1	0	R1425D
2857.339	1.623	2857648	WORD	n/a	wordpools/wordpool_EN.txt	GOAT	12	25	[0, 0, 0]	n/a	FR1	0	R1425D
2858.962	0.0	2859277	START	n/a	n/a	n/a	-999	25	[-999, -999, -999]	n/a	FR1	0	R1425D
2858.961	0.0	2859284	WORD_OFF	n/a	n/a	GOAT	12	25	[0, 0, 0]	n/a	FR1	0	R1425D
2858.961	0.001	2859284	ENCODING_END	n/a	n/a	n/a	-999	25	[0, 0, 0]	n/a	FR1	0	R1425D
2858.962	0.015	2859284	DISTRACT_START	n/a	n/a	n/a	-999	25	[0, 0, 0]	n/a	FR1	0	R1425D
2858.977	6.101	2859292	PROB	6.101	n/a	n/a	-999	25	[6, 9, 4]	19	FR1	0	R1425D
2865.078	3.084	2865393	PROB	3.084	n/a	n/a	-999	25	[6, 6, 9]	21	FR1	0	R1425D
2868.162	3.351	2868477	PROB	3.351	n/a	n/a	-999	25	[7, 9, 4]	20	FR1	0	R1425D
2871.513	3.0	2871828	PROB	3.0	n/a	n/a	-999	25	[7, 9, 1]	17	FR1	0	R1425D
2874.513	2.317	2874828	PROB	2.317	n/a	n/a	-999	25	[2, 3, 7]	12	FR1	0	R1425D
2876.83	3.633	2877144	PROB	3.633	n/a	n/a	-999	25	[5, 5, 5]	15	FR1	0	R1425D
2880.463	0.018	2880777	STOP	n/a	n/a	n/a	-999	25	[-999, -999, -999]	n/a	FR1	0	R1425D
2880.481	2.317	2880794	DISTRACT_END	n/a	n/a	n/a	-999	25	[0, 0, 0]	n/a	FR1	0	R1425D
2882.798	0.791	2883109	REC_START	n/a	n/a	n/a	-999	25	[0, 0, 0]	n/a	FR1	0	R1425D
2883.589	0.811	2883903	REC_WORD	0.811	n/a	FRUIT	2	25	[0, 0, 0]	n/a	FR1	0	R1425D
2884.4	1.211	2884714	REC_WORD	1.211	n/a	PLATE	1	25	[0, 0, 0]	n/a	FR1	0	R1425D
2885.611	1.568	2885925	REC_WORD	1.568	n/a	TOAST	10	25	[0, 0, 0]	n/a	FR1	0	R1425D
2887.179	0.839	2887493	REC_WORD	0.839	n/a	PEN	3	25	[0, 0, 0]	n/a	FR1	0	R1425D
2888.018	4.185	2888332	REC_WORD	4.185	n/a	LAMP	4	25	[0, 0, 0]	n/a	FR1	0	R1425D
2892.203	1.0	2892517	REC_WORD_VV	1.0	n/a	<>	-999	25	[0, 0, 0]	n/a	FR1	0	R1425D
2893.203	1.712	2893517	REC_WORD_VV	1.712	n/a	<>	-999	25	[0, 0, 0]	n/a	FR1	0	R1425D
2894.915	1.0	2895229	REC_WORD_VV	1.0	n/a	<>	-999	25	[0, 0, 0]	n/a	FR1	0	R1425D
2895.915	16.892	2896229	REC_WORD_VV	16.892	n/a	<>	-999	25	[0, 0, 0]	n/a	FR1	0	R1425D
2912.807	0.0	2913130	REC_END	n/a	n/a	n/a	-999	25	[0, 0, 0]	n/a	FR1	0	R1425D
