onset	duration	sample	trial_type	response_time	stim_file	item_name	serialpos	list	test	answer	experiment	session	subject
0.0	21.003	-1	SESS_START	n/a	n/a	n/a	-999	-999	[0, 0, 0]	n/a	FR1	1	R1122E
21.003	10.428	-1	COUNTDOWN_START	n/a	n/a	n/a	-999	-999	[0, 0, 0]	n/a	FR1	1	R1122E
31.431	3.725	4685	COUNTDOWN_END	n/a	n/a	n/a	-999	-999	[0, 0, 0]	n/a	FR1	1	R1122E
35.156	2.601	8410	PRACTICE_WORD	n/a	n/a	WAGON	1	-1	[0, 0, 0]	n/a	FR1	1	R1122E
37.757	2.584	11011	PRACTICE_WORD	n/a	n/a	ATTIC	2	-1	[0, 0, 0]	n/a	FR1	1	R1122E
40.341	2.483	13594	PRACTICE_WORD	n/a	n/a	CAMEL	3	-1	[0, 0, 0]	n/a	FR1	1	R1122E
42.824	2.417	16077	PRACTICE_WORD	n/a	n/a	RING	4	-1	[0, 0, 0]	n/a	FR1	1	R1122E
45.241	2.551	18494	PRACTICE_WORD	n/a	n/a	COTTON	5	-1	[0, 0, 0]	n/a	FR1	1	R1122E
47.792	2.55	21045	PRACTICE_WORD	n/a	n/a	CHEST	6	-1	[0, 0, 0]	n/a	FR1	1	R1122E
50.342	2.451	23595	PRACTICE_WORD	n/a	n/a	WATCH	7	-1	[0, 0, 0]	n/a	FR1	1	R1122E
52.793	2.584	26046	PRACTICE_WORD	n/a	n/a	BEAM	8	-1	[0, 0, 0]	n/a	FR1	1	R1122E
55.377	2.517	28629	PRACTICE_WORD	n/a	n/a	RHINO	9	-1	[0, 0, 0]	n/a	FR1	1	R1122E
57.894	2.433	31146	PRACTICE_WORD	n/a	n/a	FLOOD	10	-1	[0, 0, 0]	n/a	FR1	1	R1122E
60.327	2.584	33579	PRACTICE_WORD	n/a	n/a	IRON	11	-1	[0, 0, 0]	n/a	FR1	1	R1122E
62.911	1.617	36163	PRACTICE_WORD	n/a	n/a	TONGUE	12	-1	[0, 0, 0]	n/a	FR1	1	R1122E
64.528	0.001	37780	PRACTICE_DISTRACT_START	n/a	n/a	n/a	-999	-1	[0, 0, 0]	n/a	FR1	1	R1122E
64.529	0.016	37781	START	n/a	n/a	n/a	-999	-1	[-999, -999, -999]	n/a	FR1	1	R1122E
64.545	3.934	37797	PROB	3.934	n/a	n/a	-999	-1	[2, 2, 3]	4	FR1	1	R1122E
68.479	3.917	41731	PROB	3.917	n/a	n/a	-999	-1	[2, 6, 9]	17	FR1	1	R1122E
72.396	4.251	45647	PROB	4.251	n/a	n/a	-999	-1	[7, 7, 8]	22	FR1	1	R1122E
76.647	2.967	49898	PROB	2.967	n/a	n/a	-999	-1	[2, 6, 2]	10	FR1	1	R1122E
79.614	1.967	52865	PROB	1.967	n/a	n/a	-999	-1	[1, 6, 1]	8	FR1	1	R1122E
81.581	2.35	54832	PROB	2.35	n/a	n/a	-999	-1	[2, 4, 8]	14	FR1	1	R1122E
83.931	2.615	57182	PROB	2.615	n/a	n/a	-999	-1	[3, 5, 7]	15	FR1	1	R1122E
86.546	0.019	59796	STOP	n/a	n/a	n/a	-999	-1	[-999, -999, -999]	n/a	FR1	1	R1122E
86.565	0.702	59815	PRACTICE_DISTRACT_END	n/a	n/a	n/a	-999	-1	[0, 0, 0]	n/a	FR1	1	R1122E
87.267	30.515	60517	PRACTICE_REC_START	n/a	n/a	n/a	-999	-1	[0, 0, 0]	n/a	FR1	1	R1122E
117.782	17.291	91030	PRACTICE_REC_END	n/a	n/a	n/a	-999	-1	[0, 0, 0]	n/a	FR1	1	R1122E
135.073	0.0	108320	COUNTDOWN_START	n/a	n/a	n/a	-999	1	[0, 0, 0]	n/a	FR1	1	R1122E
135.073	10.428	108320	TRIAL	n/a	n/a	n/a	-999	1	[0, 0, 0]	n/a	FR1	1	R1122E
145.501	0.008	118747	COUNTDOWN_END	n/a	n/a	n/a	-999	1	[0, 0, 0]	n/a	FR1	1	R1122E
145.509	2.549	118755	ORIENT	n/a	n/a	n/a	-999	1	[0, 0, 0]	n/a	FR1	1	R1122E
148.058	2.568	121304	WORD	n/a	wordpools/wordpool_EN.txt	CLOCK	1	1	[0, 0, 0]	n/a	FR1	1	R1122E
150.626	2.551	123872	WORD	n/a	wordpools/wordpool_EN.txt	SPOON	2	1	[0, 0, 0]	n/a	FR1	1	R1122E
153.177	2.534	126423	WORD	n/a	wordpools/wordpool_EN.txt	SWORD	3	1	[0, 0, 0]	n/a	FR1	1	R1122E
155.711	2.55	128957	WORD	n/a	wordpools/wordpool_EN.txt	VAN	4	1	[0, 0, 0]	n/a	FR1	1	R1122E
158.261	2.467	131507	WORD	n/a	wordpools/wordpool_EN.txt	BOOK	5	1	[0, 0, 0]	n/a	FR1	1	R1122E
160.728	2.617	133973	WORD	n/a	wordpools/wordpool_EN.txt	ROOM	6	1	[0, 0, 0]	n/a	FR1	1	R1122E
163.345	2.434	136590	WORD	n/a	wordpools/wordpool_EN.txt	STREET	7	1	[0, 0, 0]	n/a	FR1	1	R1122E
165.779	2.434	139024	WORD	n/a	wordpools/wordpool_EN.txt	BLUSH	8	1	[0, 0, 0]	n/a	FR1	1	R1122E
168.213	2.417	141458	WORD	n/a	wordpools/wordpool_EN.txt	SOUP	9	1	[0, 0, 0]	n/a	FR1	1	R1122E
170.63	2.399	143875	WORD	n/a	wordpools/wordpool_EN.txt	TRUCK	10	1	[0, 0, 0]	n/a	FR1	1	R1122E
173.029	2.485	146274	WORD	n/a	wordpools/wordpool_EN.txt	GOAT	11	1	[0, 0, 0]	n/a	FR1	1	R1122E
175.514	1.617	148758	WORD	n/a	wordpools/wordpool_EN.txt	CART	12	1	[0, 0, 0]	n/a	FR1	1	R1122E
177.131	0.001	150375	DISTRACT_START	n/a	n/a	n/a	-999	1	[0, 0, 0]	n/a	FR1	1	R1122E
177.132	0.016	150376	START	n/a	n/a	n/a	-999	1	[-999, -999, -999]	n/a	FR1	1	R1122E
177.148	4.284	150392	PROB	4.284	n/a	n/a	-999	1	[3, 8, 7]	18	FR1	1	R1122E
181.432	3.434	154676	PROB	3.434	n/a	n/a	-999	1	[7, 5, 7]	19	FR1	1	R1122E
184.866	2.867	158110	PROB	2.867	n/a	n/a	-999	1	[7, 5, 9]	21	FR1	1	R1122E
187.733	5.034	160977	PROB	5.034	n/a	n/a	-999	1	[9, 3, 2]	14	FR1	1	R1122E
192.767	2.334	166010	PROB	2.334	n/a	n/a	-999	1	[6, 8, 7]	21	FR1	1	R1122E
195.101	2.481	168344	PROB	2.481	n/a	n/a	-999	1	[1, 2, 5]	8	FR1	1	R1122E
197.582	0.019	170825	STOP	n/a	n/a	n/a	-999	1	[-999, -999, -999]	n/a	FR1	1	R1122E
197.601	1.223	170844	DISTRACT_END	n/a	n/a	n/a	-999	1	[0, 0, 0]	n/a	FR1	1	R1122E
198.824	1.723	172067	REC_START	n/a	n/a	n/a	-999	1	[0, 0, 0]	n/a	FR1	1	R1122E
200.547	1.374	173790	REC_WORD	1.374	n/a	GOAT	-999	1	[0, 0, 0]	n/a	FR1	1	R1122E
201.921	5.137	175164	REC_WORD	5.137	n/a	CART	-999	1	[0, 0, 0]	n/a	FR1	1	R1122E
207.058	1.022	180300	REC_WORD	1.022	n/a	BOOK	-999	1	[0, 0, 0]	n/a	FR1	1	R1122E
208.08	13.363	181322	REC_WORD	13.363	n/a	ROOM	-999	1	[0, 0, 0]	n/a	FR1	1	R1122E
221.443	0.799	194684	REC_WORD	0.799	n/a	VAN	-999	1	[0, 0, 0]	n/a	FR1	1	R1122E
222.242	6.585	195483	REC_WORD	6.585	n/a	TRUCK	-999	1	[0, 0, 0]	n/a	FR1	1	R1122E
228.827	5.447	202068	REC_END	n/a	n/a	n/a	-999	1	[0, 0, 0]	n/a	FR1	1	R1122E
234.274	0.001	207514	COUNTDOWN_START	n/a	n/a	n/a	-999	2	[0, 0, 0]	n/a	FR1	1	R1122E
234.275	10.427	207515	TRIAL	n/a	n/a	n/a	-999	2	[0, 0, 0]	n/a	FR1	1	R1122E
244.702	0.008	217942	COUNTDOWN_END	n/a	n/a	n/a	-999	2	[0, 0, 0]	n/a	FR1	1	R1122E
244.71	2.583	217950	ORIENT	n/a	n/a	n/a	-999	2	[0, 0, 0]	n/a	FR1	1	R1122E
247.293	2.417	220533	WORD	n/a	wordpools/wordpool_EN.txt	WORM	1	2	[0, 0, 0]	n/a	FR1	1	R1122E
249.71	2.467	222949	WORD	n/a	wordpools/wordpool_EN.txt	EGG	2	2	[0, 0, 0]	n/a	FR1	1	R1122E
252.177	2.551	225416	WORD	n/a	wordpools/wordpool_EN.txt	HOOK	3	2	[0, 0, 0]	n/a	FR1	1	R1122E
254.728	2.45	227967	WORD	n/a	wordpools/wordpool_EN.txt	WING	4	2	[0, 0, 0]	n/a	FR1	1	R1122E
257.178	2.534	230417	WORD	n/a	wordpools/wordpool_EN.txt	FISH	5	2	[0, 0, 0]	n/a	FR1	1	R1122E
259.712	2.551	232951	WORD	n/a	wordpools/wordpool_EN.txt	STORM	6	2	[0, 0, 0]	n/a	FR1	1	R1122E
262.263	2.467	235502	WORD	n/a	wordpools/wordpool_EN.txt	SEA	7	2	[0, 0, 0]	n/a	FR1	1	R1122E
264.73	2.417	237968	WORD	n/a	wordpools/wordpool_EN.txt	WEB	8	2	[0, 0, 0]	n/a	FR1	1	R1122E
267.147	2.5	240385	WORD	n/a	wordpools/wordpool_EN.txt	SHRIMP	9	2	[0, 0, 0]	n/a	FR1	1	R1122E
269.647	2.501	242885	WORD	n/a	wordpools/wordpool_EN.txt	SHELL	10	2	[0, 0, 0]	n/a	FR1	1	R1122E
272.148	2.617	245386	WORD	n/a	wordpools/wordpool_EN.txt	CUBE	11	2	[0, 0, 0]	n/a	FR1	1	R1122E
274.765	1.617	248003	WORD	n/a	wordpools/wordpool_EN.txt	BOAT	12	2	[0, 0, 0]	n/a	FR1	1	R1122E
276.382	0.0	249620	DISTRACT_START	n/a	n/a	n/a	-999	2	[0, 0, 0]	n/a	FR1	1	R1122E
276.382	0.016	249620	START	n/a	n/a	n/a	-999	2	[-999, -999, -999]	n/a	FR1	1	R1122E
276.398	4.617	249636	PROB	4.617	n/a	n/a	-999	2	[7, 4, 5]	16	FR1	1	R1122E
281.015	3.017	254252	PROB	3.017	n/a	n/a	-999	2	[9, 2, 2]	13	FR1	1	R1122E
284.032	2.668	257269	PROB	2.668	n/a	n/a	-999	2	[9, 1, 4]	14	FR1	1	R1122E
286.7	2.851	259937	PROB	2.851	n/a	n/a	-999	2	[4, 9, 9]	22	FR1	1	R1122E
289.551	4.634	262788	PROB	4.634	n/a	n/a	-999	2	[9, 2, 6]	17	FR1	1	R1122E
294.185	3.872	267421	PROB	3.872	n/a	n/a	-999	2	[6, 9, 6]	21	FR1	1	R1122E
298.057	0.011	271293	STOP	n/a	n/a	n/a	-999	2	[-999, -999, -999]	n/a	FR1	1	R1122E
298.068	1.118	271304	DISTRACT_END	n/a	n/a	n/a	-999	2	[0, 0, 0]	n/a	FR1	1	R1122E
299.186	1.65	272422	REC_START	n/a	n/a	n/a	-999	2	[0, 0, 0]	n/a	FR1	1	R1122E
300.836	1.552	274072	REC_WORD	1.552	n/a	SHRIMP	-999	2	[0, 0, 0]	n/a	FR1	1	R1122E
302.388	1.871	275624	REC_WORD	1.871	n/a	SHELL	-999	2	[0, 0, 0]	n/a	FR1	1	R1122E
304.259	4.025	277495	REC_WORD	4.025	n/a	OCEAN	-999	2	[0, 0, 0]	n/a	FR1	1	R1122E
308.284	4.356	281519	REC_WORD	4.356	n/a	BOAT	-999	2	[0, 0, 0]	n/a	FR1	1	R1122E
312.64	15.84	285875	REC_WORD	15.84	n/a	SEA	-999	2	[0, 0, 0]	n/a	FR1	1	R1122E
328.48	0.719	301714	REC_WORD	0.719	n/a	STORM	-999	2	[0, 0, 0]	n/a	FR1	1	R1122E
329.199	3.792	302433	REC_END	n/a	n/a	n/a	-999	2	[0, 0, 0]	n/a	FR1	1	R1122E
332.991	0.0	306225	TRIAL	n/a	n/a	n/a	-999	3	[0, 0, 0]	n/a	FR1	1	R1122E
332.991	10.428	306225	COUNTDOWN_START	n/a	n/a	n/a	-999	3	[0, 0, 0]	n/a	FR1	1	R1122E
343.419	0.008	316652	COUNTDOWN_END	n/a	n/a	n/a	-999	3	[0, 0, 0]	n/a	FR1	1	R1122E
343.427	2.483	316660	ORIENT	n/a	n/a	n/a	-999	3	[0, 0, 0]	n/a	FR1	1	R1122E
345.91	2.501	319143	WORD	n/a	wordpools/wordpool_EN.txt	ROPE	1	3	[0, 0, 0]	n/a	FR1	1	R1122E
348.411	2.467	321644	WORD	n/a	wordpools/wordpool_EN.txt	DUCK	2	3	[0, 0, 0]	n/a	FR1	1	R1122E
350.878	2.467	324111	WORD	n/a	wordpools/wordpool_EN.txt	SNAKE	3	3	[0, 0, 0]	n/a	FR1	1	R1122E
353.345	2.484	326577	WORD	n/a	wordpools/wordpool_EN.txt	TENT	4	3	[0, 0, 0]	n/a	FR1	1	R1122E
355.829	2.584	329061	WORD	n/a	wordpools/wordpool_EN.txt	MAZE	5	3	[0, 0, 0]	n/a	FR1	1	R1122E
358.413	2.4	331645	WORD	n/a	wordpools/wordpool_EN.txt	HAWK	6	3	[0, 0, 0]	n/a	FR1	1	R1122E
360.813	2.517	334045	WORD	n/a	wordpools/wordpool_EN.txt	WEED	7	3	[0, 0, 0]	n/a	FR1	1	R1122E
363.33	2.501	336562	WORD	n/a	wordpools/wordpool_EN.txt	OWL	8	3	[0, 0, 0]	n/a	FR1	1	R1122E
365.831	2.517	339063	WORD	n/a	wordpools/wordpool_EN.txt	DEER	9	3	[0, 0, 0]	n/a	FR1	1	R1122E
368.348	2.55	341579	WORD	n/a	wordpools/wordpool_EN.txt	BROOM	10	3	[0, 0, 0]	n/a	FR1	1	R1122E
370.898	2.634	344129	WORD	n/a	wordpools/wordpool_EN.txt	ROAD	11	3	[0, 0, 0]	n/a	FR1	1	R1122E
373.532	1.617	346763	WORD	n/a	wordpools/wordpool_EN.txt	DOCK	12	3	[0, 0, 0]	n/a	FR1	1	R1122E
375.149	0.001	348380	DISTRACT_START	n/a	n/a	n/a	-999	3	[0, 0, 0]	n/a	FR1	1	R1122E
375.15	0.016	348381	START	n/a	n/a	n/a	-999	3	[-999, -999, -999]	n/a	FR1	1	R1122E
375.166	3.5	348397	PROB	3.5	n/a	n/a	-999	3	[6, 6, 1]	13	FR1	1	R1122E
378.666	2.917	351897	PROB	2.917	n/a	n/a	-999	3	[2, 1, 6]	9	FR1	1	R1122E
381.583	3.551	354814	PROB	3.551	n/a	n/a	-999	3	[7, 1, 6]	14	FR1	1	R1122E
385.134	3.334	358364	PROB	3.334	n/a	n/a	-999	3	[9, 4, 1]	14	FR1	1	R1122E
388.468	3.45	361698	PROB	3.45	n/a	n/a	-999	3	[6, 3, 3]	12	FR1	1	R1122E
391.918	3.184	365148	PROB	3.184	n/a	n/a	-999	3	[2, 1, 5]	8	FR1	1	R1122E
395.102	3.687	368332	PROB	3.687	n/a	n/a	-999	3	[8, 3, 2]	13	FR1	1	R1122E
398.789	0.014	372018	STOP	n/a	n/a	n/a	-999	3	[-999, -999, -999]	n/a	FR1	1	R1122E
398.803	1.117	372032	DISTRACT_END	n/a	n/a	n/a	-999	3	[0, 0, 0]	n/a	FR1	1	R1122E
399.92	2.203	373149	REC_START	n/a	n/a	n/a	-999	3	[0, 0, 0]	n/a	FR1	1	R1122E
402.123	1.24	375352	REC_WORD	1.24	n/a	DUCK	-999	3	[0, 0, 0]	n/a	FR1	1	R1122E
403.363	2.382	376592	REC_WORD	2.382	n/a	DOCK	-999	3	[0, 0, 0]	n/a	FR1	1	R1122E
405.745	1.186	378974	REC_WORD	1.186	n/a	HAWK	-999	3	[0, 0, 0]	n/a	FR1	1	R1122E
406.931	5.252	380160	REC_WORD	5.252	n/a	OWL	-999	3	[0, 0, 0]	n/a	FR1	1	R1122E
412.183	1.235	385411	REC_WORD	1.235	n/a	ROPE	-999	3	[0, 0, 0]	n/a	FR1	1	R1122E
413.418	1.707	386646	REC_WORD	1.707	n/a	TENT	-999	3	[0, 0, 0]	n/a	FR1	1	R1122E
415.125	14.807	388353	REC_WORD	14.807	n/a	BROOM	-999	3	[0, 0, 0]	n/a	FR1	1	R1122E
429.932	4.026	403159	REC_END	n/a	n/a	n/a	-999	3	[0, 0, 0]	n/a	FR1	1	R1122E
433.958	0.0	407185	TRIAL	n/a	n/a	n/a	-999	4	[0, 0, 0]	n/a	FR1	1	R1122E
433.958	10.428	407185	COUNTDOWN_START	n/a	n/a	n/a	-999	4	[0, 0, 0]	n/a	FR1	1	R1122E
444.386	0.008	417612	COUNTDOWN_END	n/a	n/a	n/a	-999	4	[0, 0, 0]	n/a	FR1	1	R1122E
444.394	2.616	417620	ORIENT	n/a	n/a	n/a	-999	4	[0, 0, 0]	n/a	FR1	1	R1122E
447.01	2.519	420236	WORD	n/a	wordpools/wordpool_EN.txt	FARM	1	4	[0, 0, 0]	n/a	FR1	1	R1122E
449.529	2.449	422755	WORD	n/a	wordpools/wordpool_EN.txt	LAKE	2	4	[0, 0, 0]	n/a	FR1	1	R1122E
451.978	2.585	425204	WORD	n/a	wordpools/wordpool_EN.txt	SNOW	3	4	[0, 0, 0]	n/a	FR1	1	R1122E
454.563	2.382	427789	WORD	n/a	wordpools/wordpool_EN.txt	RAKE	4	4	[0, 0, 0]	n/a	FR1	1	R1122E
456.945	2.585	430170	WORD	n/a	wordpools/wordpool_EN.txt	CALF	5	4	[0, 0, 0]	n/a	FR1	1	R1122E
459.53	2.533	432755	WORD	n/a	wordpools/wordpool_EN.txt	SPRING	6	4	[0, 0, 0]	n/a	FR1	1	R1122E
462.063	2.535	435288	WORD	n/a	wordpools/wordpool_EN.txt	GRASS	7	4	[0, 0, 0]	n/a	FR1	1	R1122E
464.598	2.567	437823	WORD	n/a	wordpools/wordpool_EN.txt	SKUNK	8	4	[0, 0, 0]	n/a	FR1	1	R1122E
467.165	2.484	440390	WORD	n/a	wordpools/wordpool_EN.txt	WOOD	9	4	[0, 0, 0]	n/a	FR1	1	R1122E
469.649	2.6	442874	WORD	n/a	wordpools/wordpool_EN.txt	SIGN	10	4	[0, 0, 0]	n/a	FR1	1	R1122E
472.249	2.601	445473	WORD	n/a	wordpools/wordpool_EN.txt	ELF	11	4	[0, 0, 0]	n/a	FR1	1	R1122E
474.85	1.617	448074	WORD	n/a	wordpools/wordpool_EN.txt	MOTH	12	4	[0, 0, 0]	n/a	FR1	1	R1122E
476.467	0.0	449691	DISTRACT_START	n/a	n/a	n/a	-999	4	[0, 0, 0]	n/a	FR1	1	R1122E
476.467	0.016	449691	START	n/a	n/a	n/a	-999	4	[-999, -999, -999]	n/a	FR1	1	R1122E
476.483	4.701	449707	PROB	4.701	n/a	n/a	-999	4	[8, 7, 4]	19	FR1	1	R1122E
481.184	4.718	454408	PROB	4.718	n/a	n/a	-999	4	[9, 7, 3]	19	FR1	1	R1122E
485.902	3.45	459125	PROB	3.45	n/a	n/a	-999	4	[5, 6, 3]	14	FR1	1	R1122E
489.352	3.001	462575	PROB	3.001	n/a	n/a	-999	4	[5, 2, 1]	8	FR1	1	R1122E
492.353	2.632	465576	PROB	2.632	n/a	n/a	-999	4	[9, 9, 9]	27	FR1	1	R1122E
494.985	2.002	468208	PROB	2.002	n/a	n/a	-999	4	[1, 1, 1]	3	FR1	1	R1122E
496.987	0.015	470210	STOP	n/a	n/a	n/a	-999	4	[-999, -999, -999]	n/a	FR1	1	R1122E
497.002	1.051	470225	DISTRACT_END	n/a	n/a	n/a	-999	4	[0, 0, 0]	n/a	FR1	1	R1122E
498.053	1.773	471276	REC_START	n/a	n/a	n/a	-999	4	[0, 0, 0]	n/a	FR1	1	R1122E
499.826	2.143	473049	REC_WORD	2.143	n/a	FARM	-999	4	[0, 0, 0]	n/a	FR1	1	R1122E
501.969	2.968	475191	REC_WORD	2.968	n/a	CALF	-999	4	[0, 0, 0]	n/a	FR1	1	R1122E
504.937	5.751	478159	REC_WORD	5.751	n/a	SKUNK	-999	4	[0, 0, 0]	n/a	FR1	1	R1122E
510.688	5.693	483910	REC_WORD	5.693	n/a	MOTH	-999	4	[0, 0, 0]	n/a	FR1	1	R1122E
516.381	2.217	489602	REC_WORD	2.217	n/a	SPRING	-999	4	[0, 0, 0]	n/a	FR1	1	R1122E
518.598	9.467	491819	REC_WORD	9.467	n/a	SNOW	-999	4	[0, 0, 0]	n/a	FR1	1	R1122E
528.065	4.194	501286	REC_END	n/a	n/a	n/a	-999	4	[0, 0, 0]	n/a	FR1	1	R1122E
532.259	0.001	505479	COUNTDOWN_START	n/a	n/a	n/a	-999	5	[0, 0, 0]	n/a	FR1	1	R1122E
532.26	10.427	505480	TRIAL	n/a	n/a	n/a	-999	5	[0, 0, 0]	n/a	FR1	1	R1122E
542.687	0.008	515907	COUNTDOWN_END	n/a	n/a	n/a	-999	5	[0, 0, 0]	n/a	FR1	1	R1122E
542.695	2.45	515915	ORIENT	n/a	n/a	n/a	-999	5	[0, 0, 0]	n/a	FR1	1	R1122E
545.145	2.551	518365	WORD	n/a	wordpools/wordpool_EN.txt	SLEEVE	1	5	[0, 0, 0]	n/a	FR1	1	R1122E
547.696	2.434	520915	WORD	n/a	wordpools/wordpool_EN.txt	DITCH	2	5	[0, 0, 0]	n/a	FR1	1	R1122E
550.13	2.517	523349	WORD	n/a	wordpools/wordpool_EN.txt	VINE	3	5	[0, 0, 0]	n/a	FR1	1	R1122E
552.647	2.467	525866	WORD	n/a	wordpools/wordpool_EN.txt	BUSH	4	5	[0, 0, 0]	n/a	FR1	1	R1122E
555.114	2.483	528333	WORD	n/a	wordpools/wordpool_EN.txt	SNAIL	5	5	[0, 0, 0]	n/a	FR1	1	R1122E
557.597	2.45	530816	WORD	n/a	wordpools/wordpool_EN.txt	WHEEL	6	5	[0, 0, 0]	n/a	FR1	1	R1122E
560.047	2.435	533266	WORD	n/a	wordpools/wordpool_EN.txt	BIRD	7	5	[0, 0, 0]	n/a	FR1	1	R1122E
562.482	2.466	535700	WORD	n/a	wordpools/wordpool_EN.txt	EAR	8	5	[0, 0, 0]	n/a	FR1	1	R1122E
564.948	2.551	538166	WORD	n/a	wordpools/wordpool_EN.txt	SWAMP	9	5	[0, 0, 0]	n/a	FR1	1	R1122E
567.499	2.384	540717	WORD	n/a	wordpools/wordpool_EN.txt	HOLE	10	5	[0, 0, 0]	n/a	FR1	1	R1122E
569.883	2.467	543101	WORD	n/a	wordpools/wordpool_EN.txt	EEL	11	5	[0, 0, 0]	n/a	FR1	1	R1122E
572.35	1.616	545568	WORD	n/a	wordpools/wordpool_EN.txt	CRANE	12	5	[0, 0, 0]	n/a	FR1	1	R1122E
573.966	0.001	547184	DISTRACT_START	n/a	n/a	n/a	-999	5	[0, 0, 0]	n/a	FR1	1	R1122E
573.967	0.016	547185	START	n/a	n/a	n/a	-999	5	[-999, -999, -999]	n/a	FR1	1	R1122E
573.983	3.435	547201	PROB	3.435	n/a	n/a	-999	5	[8, 2, 4]	14	FR1	1	R1122E
577.418	3.784	550635	PROB	3.784	n/a	n/a	-999	5	[2, 4, 8]	14	FR1	1	R1122E
581.202	2.816	554419	PROB	2.816	n/a	n/a	-999	5	[5, 9, 7]	21	FR1	1	R1122E
584.018	3.251	557235	PROB	3.251	n/a	n/a	-999	5	[7, 8, 8]	23	FR1	1	R1122E
587.269	2.683	560486	PROB	2.683	n/a	n/a	-999	5	[7, 7, 3]	17	FR1	1	R1122E
589.952	3.718	563169	PROB	3.718	n/a	n/a	-999	5	[9, 2, 5]	16	FR1	1	R1122E
593.67	2.419	566886	PROB	2.419	n/a	n/a	-999	5	[4, 1, 2]	7	FR1	1	R1122E
596.089	0.015	569305	STOP	n/a	n/a	n/a	-999	5	[-999, -999, -999]	n/a	FR1	1	R1122E
596.104	1.118	569320	DISTRACT_END	n/a	n/a	n/a	-999	5	[0, 0, 0]	n/a	FR1	1	R1122E
597.222	1.722	570438	REC_START	n/a	n/a	n/a	-999	5	[0, 0, 0]	n/a	FR1	1	R1122E
598.944	2.776	572160	REC_WORD	2.776	n/a	SWAMP	-999	5	[0, 0, 0]	n/a	FR1	1	R1122E
601.72	1.63	574936	REC_WORD	1.63	n/a	HOLE	-999	5	[0, 0, 0]	n/a	FR1	1	R1122E
603.35	12.273	576566	REC_WORD	12.273	n/a	SLEEVE	-999	5	[0, 0, 0]	n/a	FR1	1	R1122E
615.623	11.607	588838	REC_WORD	11.607	n/a	WHEEL	-999	5	[0, 0, 0]	n/a	FR1	1	R1122E
627.23	23.951	600444	REC_END	n/a	n/a	n/a	-999	5	[0, 0, 0]	n/a	FR1	1	R1122E
651.181	0.0	624393	TRIAL	n/a	n/a	n/a	-999	6	[0, 0, 0]	n/a	FR1	1	R1122E
651.181	10.428	624393	COUNTDOWN_START	n/a	n/a	n/a	-999	6	[0, 0, 0]	n/a	FR1	1	R1122E
661.609	0.007	634821	COUNTDOWN_END	n/a	n/a	n/a	-999	6	[0, 0, 0]	n/a	FR1	1	R1122E
661.616	2.416	634828	ORIENT	n/a	n/a	n/a	-999	6	[0, 0, 0]	n/a	FR1	1	R1122E
664.032	2.568	637244	WORD	n/a	wordpools/wordpool_EN.txt	ANT	1	6	[0, 0, 0]	n/a	FR1	1	R1122E
666.6	2.55	639811	WORD	n/a	wordpools/wordpool_EN.txt	RAT	2	6	[0, 0, 0]	n/a	FR1	1	R1122E
669.15	2.417	642361	WORD	n/a	wordpools/wordpool_EN.txt	PEAR	3	6	[0, 0, 0]	n/a	FR1	1	R1122E
671.567	2.617	644778	WORD	n/a	wordpools/wordpool_EN.txt	BRANCH	4	6	[0, 0, 0]	n/a	FR1	1	R1122E
674.184	2.584	647395	WORD	n/a	wordpools/wordpool_EN.txt	CAVE	5	6	[0, 0, 0]	n/a	FR1	1	R1122E
676.768	2.517	649979	WORD	n/a	wordpools/wordpool_EN.txt	MOLE	6	6	[0, 0, 0]	n/a	FR1	1	R1122E
679.285	2.384	652495	WORD	n/a	wordpools/wordpool_EN.txt	HEART	7	6	[0, 0, 0]	n/a	FR1	1	R1122E
681.669	2.617	654879	WORD	n/a	wordpools/wordpool_EN.txt	SLIME	8	6	[0, 0, 0]	n/a	FR1	1	R1122E
684.286	2.517	657496	WORD	n/a	wordpools/wordpool_EN.txt	FOOD	9	6	[0, 0, 0]	n/a	FR1	1	R1122E
686.803	2.584	660013	WORD	n/a	wordpools/wordpool_EN.txt	BEE	10	6	[0, 0, 0]	n/a	FR1	1	R1122E
689.387	2.566	662597	WORD	n/a	wordpools/wordpool_EN.txt	BED	11	6	[0, 0, 0]	n/a	FR1	1	R1122E
691.953	1.601	665163	WORD	n/a	wordpools/wordpool_EN.txt	PLANT	12	6	[0, 0, 0]	n/a	FR1	1	R1122E
693.554	0.001	666764	DISTRACT_START	n/a	n/a	n/a	-999	6	[0, 0, 0]	n/a	FR1	1	R1122E
693.555	0.016	666765	START	n/a	n/a	n/a	-999	6	[-999, -999, -999]	n/a	FR1	1	R1122E
693.571	3.517	666781	PROB	3.517	n/a	n/a	-999	6	[5, 7, 6]	18	FR1	1	R1122E
697.088	2.651	670297	PROB	2.651	n/a	n/a	-999	6	[5, 6, 5]	16	FR1	1	R1122E
699.739	2.283	672948	PROB	2.283	n/a	n/a	-999	6	[7, 7, 3]	17	FR1	1	R1122E
702.022	2.118	675231	PROB	2.118	n/a	n/a	-999	6	[6, 6, 1]	13	FR1	1	R1122E
704.14	2.117	677349	PROB	2.117	n/a	n/a	-999	6	[5, 1, 6]	12	FR1	1	R1122E
706.257	2.667	679466	PROB	2.667	n/a	n/a	-999	6	[7, 5, 4]	16	FR1	1	R1122E
708.924	2.184	682133	PROB	2.184	n/a	n/a	-999	6	[3, 4, 2]	9	FR1	1	R1122E
711.108	2.47	684316	PROB	2.47	n/a	n/a	-999	6	[4, 1, 9]	14	FR1	1	R1122E
713.578	0.013	686786	STOP	n/a	n/a	n/a	-999	6	[-999, -999, -999]	n/a	FR1	1	R1122E
713.591	1.184	686799	DISTRACT_END	n/a	n/a	n/a	-999	6	[0, 0, 0]	n/a	FR1	1	R1122E
714.775	1.984	687983	REC_START	n/a	n/a	n/a	-999	6	[0, 0, 0]	n/a	FR1	1	R1122E
716.759	1.057	689967	REC_WORD	1.057	n/a	ANT	-999	6	[0, 0, 0]	n/a	FR1	1	R1122E
717.816	1.67	691024	REC_WORD	1.67	n/a	RAT	-999	6	[0, 0, 0]	n/a	FR1	1	R1122E
719.486	1.736	692694	REC_WORD	1.736	n/a	BEE	-999	6	[0, 0, 0]	n/a	FR1	1	R1122E
721.222	1.691	694430	REC_WORD	1.691	n/a	CAVE	-999	6	[0, 0, 0]	n/a	FR1	1	R1122E
722.913	6.854	696121	REC_WORD	6.854	n/a	SLIME	-999	6	[0, 0, 0]	n/a	FR1	1	R1122E
729.767	15.017	702974	REC_WORD	15.017	n/a	SNAKE	-999	6	[0, 0, 0]	n/a	FR1	1	R1122E
744.784	2.813	717990	REC_END	n/a	n/a	n/a	-999	6	[0, 0, 0]	n/a	FR1	1	R1122E
747.597	0.001	720803	COUNTDOWN_START	n/a	n/a	n/a	-999	7	[0, 0, 0]	n/a	FR1	1	R1122E
747.598	10.427	720804	TRIAL	n/a	n/a	n/a	-999	7	[0, 0, 0]	n/a	FR1	1	R1122E
758.025	0.006	731230	COUNTDOWN_END	n/a	n/a	n/a	-999	7	[0, 0, 0]	n/a	FR1	1	R1122E
758.031	2.552	731236	ORIENT	n/a	n/a	n/a	-999	7	[0, 0, 0]	n/a	FR1	1	R1122E
760.583	2.6	733788	WORD	n/a	wordpools/wordpool_EN.txt	GLASS	1	7	[0, 0, 0]	n/a	FR1	1	R1122E
763.183	2.618	736388	WORD	n/a	wordpools/wordpool_EN.txt	FOG	2	7	[0, 0, 0]	n/a	FR1	1	R1122E
765.801	2.417	739006	WORD	n/a	wordpools/wordpool_EN.txt	TRAY	3	7	[0, 0, 0]	n/a	FR1	1	R1122E
768.218	2.5	741423	WORD	n/a	wordpools/wordpool_EN.txt	FUDGE	4	7	[0, 0, 0]	n/a	FR1	1	R1122E
770.718	2.567	743922	WORD	n/a	wordpools/wordpool_EN.txt	STEAM	5	7	[0, 0, 0]	n/a	FR1	1	R1122E
773.285	2.517	746489	WORD	n/a	wordpools/wordpool_EN.txt	JET	6	7	[0, 0, 0]	n/a	FR1	1	R1122E
775.802	2.384	749006	WORD	n/a	wordpools/wordpool_EN.txt	LAND	7	7	[0, 0, 0]	n/a	FR1	1	R1122E
778.186	2.534	751390	WORD	n/a	wordpools/wordpool_EN.txt	SALT	8	7	[0, 0, 0]	n/a	FR1	1	R1122E
780.72	2.6	753924	WORD	n/a	wordpools/wordpool_EN.txt	FLAME	9	7	[0, 0, 0]	n/a	FR1	1	R1122E
783.32	2.584	756524	WORD	n/a	wordpools/wordpool_EN.txt	CLOUD	10	7	[0, 0, 0]	n/a	FR1	1	R1122E
785.904	2.601	759107	WORD	n/a	wordpools/wordpool_EN.txt	SHIP	11	7	[0, 0, 0]	n/a	FR1	1	R1122E
788.505	1.617	761708	WORD	n/a	wordpools/wordpool_EN.txt	SPONGE	12	7	[0, 0, 0]	n/a	FR1	1	R1122E
790.122	0.0	763325	DISTRACT_START	n/a	n/a	n/a	-999	7	[0, 0, 0]	n/a	FR1	1	R1122E
790.122	0.016	763325	START	n/a	n/a	n/a	-999	7	[-999, -999, -999]	n/a	FR1	1	R1122E
790.138	4.251	763341	PROB	4.251	n/a	n/a	-999	7	[8, 4, 3]	15	FR1	1	R1122E
794.389	3.334	767592	PROB	3.334	n/a	n/a	-999	7	[8, 7, 6]	21	FR1	1	R1122E
797.723	2.7	770926	PROB	2.7	n/a	n/a	-999	7	[8, 8, 4]	20	FR1	1	R1122E
800.423	2.583	773625	PROB	2.583	n/a	n/a	-999	7	[3, 3, 1]	7	FR1	1	R1122E
803.006	3.718	776208	PROB	3.718	n/a	n/a	-999	7	[7, 2, 8]	17	FR1	1	R1122E
806.724	2.951	779926	PROB	2.951	n/a	n/a	-999	7	[5, 7, 9]	21	FR1	1	R1122E
809.675	3.028	782877	PROB	3.028	n/a	n/a	-999	7	[4, 5, 8]	17	FR1	1	R1122E
812.703	0.006	785905	STOP	n/a	n/a	n/a	-999	7	[-999, -999, -999]	n/a	FR1	1	R1122E
812.709	1.15	785911	DISTRACT_END	n/a	n/a	n/a	-999	7	[0, 0, 0]	n/a	FR1	1	R1122E
813.859	2.138	787060	REC_START	n/a	n/a	n/a	-999	7	[0, 0, 0]	n/a	FR1	1	R1122E
815.997	1.643	789198	REC_WORD	1.643	n/a	JET	-999	7	[0, 0, 0]	n/a	FR1	1	R1122E
817.64	3.595	790841	REC_WORD	3.595	n/a	CLOUD	-999	7	[0, 0, 0]	n/a	FR1	1	R1122E
821.235	4.564	794436	REC_WORD	4.564	n/a	SHIP	-999	7	[0, 0, 0]	n/a	FR1	1	R1122E
825.799	1.613	799000	REC_WORD	1.613	n/a	FOG	-999	7	[0, 0, 0]	n/a	FR1	1	R1122E
827.412	7.411	800613	REC_WORD	7.411	n/a	GLASS	-999	7	[0, 0, 0]	n/a	FR1	1	R1122E
834.823	1.647	808023	REC_WORD	1.647	n/a	STEAM	-999	7	[0, 0, 0]	n/a	FR1	1	R1122E
836.47	7.406	809670	REC_WORD	7.406	n/a	SPONGE	-999	7	[0, 0, 0]	n/a	FR1	1	R1122E
843.876	4.589	817075	REC_END	n/a	n/a	n/a	-999	7	[0, 0, 0]	n/a	FR1	1	R1122E
848.465	0.0	821664	TRIAL	n/a	n/a	n/a	-999	8	[0, 0, 0]	n/a	FR1	1	R1122E
848.465	10.428	821664	COUNTDOWN_START	n/a	n/a	n/a	-999	8	[0, 0, 0]	n/a	FR1	1	R1122E
858.893	0.007	832091	COUNTDOWN_END	n/a	n/a	n/a	-999	8	[0, 0, 0]	n/a	FR1	1	R1122E
858.9	2.517	832098	ORIENT	n/a	n/a	n/a	-999	8	[0, 0, 0]	n/a	FR1	1	R1122E
861.417	2.417	834615	WORD	n/a	wordpools/wordpool_EN.txt	MOUTH	1	8	[0, 0, 0]	n/a	FR1	1	R1122E
863.834	2.551	837032	WORD	n/a	wordpools/wordpool_EN.txt	ROSE	2	8	[0, 0, 0]	n/a	FR1	1	R1122E
866.385	2.484	839583	WORD	n/a	wordpools/wordpool_EN.txt	FLOOR	3	8	[0, 0, 0]	n/a	FR1	1	R1122E
868.869	2.567	842067	WORD	n/a	wordpools/wordpool_EN.txt	PARK	4	8	[0, 0, 0]	n/a	FR1	1	R1122E
871.436	2.566	844634	WORD	n/a	wordpools/wordpool_EN.txt	SHOE	5	8	[0, 0, 0]	n/a	FR1	1	R1122E
874.002	2.568	847199	WORD	n/a	wordpools/wordpool_EN.txt	BOOT	6	8	[0, 0, 0]	n/a	FR1	1	R1122E
876.57	2.449	849767	WORD	n/a	wordpools/wordpool_EN.txt	CLOWN	7	8	[0, 0, 0]	n/a	FR1	1	R1122E
879.019	2.585	852216	WORD	n/a	wordpools/wordpool_EN.txt	SUIT	8	8	[0, 0, 0]	n/a	FR1	1	R1122E
881.604	2.45	854801	WORD	n/a	wordpools/wordpool_EN.txt	CAPE	9	8	[0, 0, 0]	n/a	FR1	1	R1122E
884.054	2.551	857251	WORD	n/a	wordpools/wordpool_EN.txt	JUICE	10	8	[0, 0, 0]	n/a	FR1	1	R1122E
886.605	2.501	859802	WORD	n/a	wordpools/wordpool_EN.txt	WORLD	11	8	[0, 0, 0]	n/a	FR1	1	R1122E
889.106	1.616	862302	WORD	n/a	wordpools/wordpool_EN.txt	BAG	12	8	[0, 0, 0]	n/a	FR1	1	R1122E
890.722	0.001	863918	DISTRACT_START	n/a	n/a	n/a	-999	8	[0, 0, 0]	n/a	FR1	1	R1122E
890.723	0.016	863919	START	n/a	n/a	n/a	-999	8	[-999, -999, -999]	n/a	FR1	1	R1122E
890.739	3.818	863935	PROB	3.818	n/a	n/a	-999	8	[5, 6, 8]	19	FR1	1	R1122E
894.557	3.167	867753	PROB	3.167	n/a	n/a	-999	8	[5, 9, 1]	15	FR1	1	R1122E
897.724	2.55	870920	PROB	2.55	n/a	n/a	-999	8	[5, 5, 1]	11	FR1	1	R1122E
900.274	2.617	873470	PROB	2.617	n/a	n/a	-999	8	[4, 1, 1]	6	FR1	1	R1122E
902.891	2.451	876086	PROB	2.451	n/a	n/a	-999	8	[2, 2, 3]	7	FR1	1	R1122E
905.342	2.683	878537	PROB	2.683	n/a	n/a	-999	8	[7, 7, 3]	17	FR1	1	R1122E
908.025	3.254	881220	PROB	3.254	n/a	n/a	-999	8	[4, 7, 6]	17	FR1	1	R1122E
911.279	0.014	884474	STOP	n/a	n/a	n/a	-999	8	[-999, -999, -999]	n/a	FR1	1	R1122E
911.293	1.067	884488	DISTRACT_END	n/a	n/a	n/a	-999	8	[0, 0, 0]	n/a	FR1	1	R1122E
912.36	1.196	885555	REC_START	n/a	n/a	n/a	-999	8	[0, 0, 0]	n/a	FR1	1	R1122E
913.556	1.078	886751	REC_WORD	1.078	n/a	CLOWN	-999	8	[0, 0, 0]	n/a	FR1	1	R1122E
914.634	2.523	887829	REC_WORD	2.523	n/a	SUIT	-999	8	[0, 0, 0]	n/a	FR1	1	R1122E
917.157	1.106	890352	REC_WORD	1.106	n/a	SHOE	-999	8	[0, 0, 0]	n/a	FR1	1	R1122E
918.263	24.108	891457	REC_WORD	24.108	n/a	BOOT	-999	8	[0, 0, 0]	n/a	FR1	1	R1122E
942.371	6.278	915564	REC_END	n/a	n/a	n/a	-999	8	[0, 0, 0]	n/a	FR1	1	R1122E
948.649	0.001	921841	COUNTDOWN_START	n/a	n/a	n/a	-999	9	[0, 0, 0]	n/a	FR1	1	R1122E
948.65	10.427	921842	TRIAL	n/a	n/a	n/a	-999	9	[0, 0, 0]	n/a	FR1	1	R1122E
959.077	0.007	932269	COUNTDOWN_END	n/a	n/a	n/a	-999	9	[0, 0, 0]	n/a	FR1	1	R1122E
959.084	2.468	932276	ORIENT	n/a	n/a	n/a	-999	9	[0, 0, 0]	n/a	FR1	1	R1122E
961.552	2.567	934744	WORD	n/a	wordpools/wordpool_EN.txt	NET	1	9	[0, 0, 0]	n/a	FR1	1	R1122E
964.119	2.567	937310	WORD	n/a	wordpools/wordpool_EN.txt	MILK	2	9	[0, 0, 0]	n/a	FR1	1	R1122E
966.686	2.417	939877	WORD	n/a	wordpools/wordpool_EN.txt	CASH	3	9	[0, 0, 0]	n/a	FR1	1	R1122E
969.103	2.484	942294	WORD	n/a	wordpools/wordpool_EN.txt	GOLD	4	9	[0, 0, 0]	n/a	FR1	1	R1122E
971.587	2.382	944778	WORD	n/a	wordpools/wordpool_EN.txt	STEAK	5	9	[0, 0, 0]	n/a	FR1	1	R1122E
973.969	2.502	947160	WORD	n/a	wordpools/wordpool_EN.txt	GRAPE	6	9	[0, 0, 0]	n/a	FR1	1	R1122E
976.471	2.417	949662	WORD	n/a	wordpools/wordpool_EN.txt	CORN	7	9	[0, 0, 0]	n/a	FR1	1	R1122E
978.888	2.567	952078	WORD	n/a	wordpools/wordpool_EN.txt	CLOTH	8	9	[0, 0, 0]	n/a	FR1	1	R1122E
981.455	2.45	954645	WORD	n/a	wordpools/wordpool_EN.txt	FILM	9	9	[0, 0, 0]	n/a	FR1	1	R1122E
983.905	2.484	957095	WORD	n/a	wordpools/wordpool_EN.txt	PIG	10	9	[0, 0, 0]	n/a	FR1	1	R1122E
986.389	2.484	959579	WORD	n/a	wordpools/wordpool_EN.txt	BEAK	11	9	[0, 0, 0]	n/a	FR1	1	R1122E
988.873	1.617	962063	WORD	n/a	wordpools/wordpool_EN.txt	PEARL	12	9	[0, 0, 0]	n/a	FR1	1	R1122E
990.49	0.001	963680	DISTRACT_START	n/a	n/a	n/a	-999	9	[0, 0, 0]	n/a	FR1	1	R1122E
990.491	0.016	963681	START	n/a	n/a	n/a	-999	9	[-999, -999, -999]	n/a	FR1	1	R1122E
990.507	3.617	963697	PROB	3.617	n/a	n/a	-999	9	[1, 6, 9]	16	FR1	1	R1122E
994.124	2.817	967313	PROB	2.817	n/a	n/a	-999	9	[9, 6, 6]	21	FR1	1	R1122E
996.941	2.684	970130	PROB	2.684	n/a	n/a	-999	9	[2, 8, 7]	17	FR1	1	R1122E
999.625	3.3	972814	PROB	3.3	n/a	n/a	-999	9	[9, 7, 4]	20	FR1	1	R1122E
1002.925	2.734	976114	PROB	2.734	n/a	n/a	-999	9	[8, 6, 4]	18	FR1	1	R1122E
1005.659	3.534	978848	PROB	3.534	n/a	n/a	-999	9	[7, 9, 7]	23	FR1	1	R1122E
1009.193	2.897	982381	PROB	2.897	n/a	n/a	-999	9	[6, 4, 3]	13	FR1	1	R1122E
1012.09	0.003	985278	STOP	n/a	n/a	n/a	-999	9	[-999, -999, -999]	n/a	FR1	1	R1122E
1012.093	1.101	985281	DISTRACT_END	n/a	n/a	n/a	-999	9	[0, 0, 0]	n/a	FR1	1	R1122E
1013.194	3.122	986382	REC_START	n/a	n/a	n/a	-999	9	[0, 0, 0]	n/a	FR1	1	R1122E
1016.316	2.737	989504	REC_WORD	2.737	n/a	BEAK	-999	9	[0, 0, 0]	n/a	FR1	1	R1122E
1019.053	1.796	992241	REC_WORD	1.796	n/a	PEARL	-999	9	[0, 0, 0]	n/a	FR1	1	R1122E
1020.849	2.059	994037	REC_WORD	2.059	n/a	GOLD	-999	9	[0, 0, 0]	n/a	FR1	1	R1122E
1022.908	2.967	996095	REC_WORD	2.967	n/a	CASH	-999	9	[0, 0, 0]	n/a	FR1	1	R1122E
1025.875	2.715	999062	REC_WORD	2.715	n/a	PIG	-999	9	[0, 0, 0]	n/a	FR1	1	R1122E
1028.59	4.236	1001777	REC_WORD	4.236	n/a	GRAPE	-999	9	[0, 0, 0]	n/a	FR1	1	R1122E
1032.826	10.384	1006013	REC_WORD	10.384	n/a	MILK	-999	9	[0, 0, 0]	n/a	FR1	1	R1122E
1043.21	12.658	1016396	REC_END	n/a	n/a	n/a	-999	9	[0, 0, 0]	n/a	FR1	1	R1122E
1055.868	0.0	1029053	TRIAL	n/a	n/a	n/a	-999	10	[0, 0, 0]	n/a	FR1	1	R1122E
1055.868	10.428	1029053	COUNTDOWN_START	n/a	n/a	n/a	-999	10	[0, 0, 0]	n/a	FR1	1	R1122E
1066.296	0.007	1039480	COUNTDOWN_END	n/a	n/a	n/a	-999	10	[0, 0, 0]	n/a	FR1	1	R1122E
1066.303	2.467	1039487	ORIENT	n/a	n/a	n/a	-999	10	[0, 0, 0]	n/a	FR1	1	R1122E
1068.77	2.401	1041954	WORD	n/a	wordpools/wordpool_EN.txt	SEAT	1	10	[0, 0, 0]	n/a	FR1	1	R1122E
1071.171	2.534	1044355	WORD	n/a	wordpools/wordpool_EN.txt	ROOF	2	10	[0, 0, 0]	n/a	FR1	1	R1122E
1073.705	2.4	1046889	WORD	n/a	wordpools/wordpool_EN.txt	HAND	3	10	[0, 0, 0]	n/a	FR1	1	R1122E
1076.105	2.534	1049289	WORD	n/a	wordpools/wordpool_EN.txt	BADGE	4	10	[0, 0, 0]	n/a	FR1	1	R1122E
1078.639	2.55	1051823	WORD	n/a	wordpools/wordpool_EN.txt	DIME	5	10	[0, 0, 0]	n/a	FR1	1	R1122E
1081.189	2.434	1054372	WORD	n/a	wordpools/wordpool_EN.txt	MAT	6	10	[0, 0, 0]	n/a	FR1	1	R1122E
1083.623	2.55	1056806	WORD	n/a	wordpools/wordpool_EN.txt	STICK	7	10	[0, 0, 0]	n/a	FR1	1	R1122E
1086.173	2.384	1059356	WORD	n/a	wordpools/wordpool_EN.txt	KITE	8	10	[0, 0, 0]	n/a	FR1	1	R1122E
1088.557	2.416	1061740	WORD	n/a	wordpools/wordpool_EN.txt	SMILE	9	10	[0, 0, 0]	n/a	FR1	1	R1122E
1090.973	2.568	1064156	WORD	n/a	wordpools/wordpool_EN.txt	SCHOOL	10	10	[0, 0, 0]	n/a	FR1	1	R1122E
1093.541	2.567	1066724	WORD	n/a	wordpools/wordpool_EN.txt	CANE	11	10	[0, 0, 0]	n/a	FR1	1	R1122E
1096.108	1.617	1069290	WORD	n/a	wordpools/wordpool_EN.txt	COUCH	12	10	[0, 0, 0]	n/a	FR1	1	R1122E
1097.725	0.001	1070907	DISTRACT_START	n/a	n/a	n/a	-999	10	[0, 0, 0]	n/a	FR1	1	R1122E
1097.726	0.016	1070908	START	n/a	n/a	n/a	-999	10	[-999, -999, -999]	n/a	FR1	1	R1122E
1097.742	3.734	1070924	PROB	3.734	n/a	n/a	-999	10	[9, 3, 4]	16	FR1	1	R1122E
1101.476	2.717	1074658	PROB	2.717	n/a	n/a	-999	10	[4, 3, 2]	9	FR1	1	R1122E
1104.193	2.701	1077375	PROB	2.701	n/a	n/a	-999	10	[7, 1, 3]	11	FR1	1	R1122E
1106.894	2.684	1080076	PROB	2.684	n/a	n/a	-999	10	[6, 8, 3]	17	FR1	1	R1122E
1109.578	2.683	1082760	PROB	2.683	n/a	n/a	-999	10	[3, 9, 2]	14	FR1	1	R1122E
1112.261	2.618	1085442	PROB	2.618	n/a	n/a	-999	10	[7, 5, 9]	21	FR1	1	R1122E
1114.879	2.733	1088060	PROB	2.733	n/a	n/a	-999	10	[8, 1, 9]	18	FR1	1	R1122E
1117.612	2.776	1090793	PROB	2.776	n/a	n/a	-999	10	[7, 5, 3]	15	FR1	1	R1122E
1120.388	0.008	1093569	STOP	n/a	n/a	n/a	-999	10	[-999, -999, -999]	n/a	FR1	1	R1122E
1120.396	1.084	1093577	DISTRACT_END	n/a	n/a	n/a	-999	10	[0, 0, 0]	n/a	FR1	1	R1122E
1121.48	3.83	1094661	REC_START	n/a	n/a	n/a	-999	10	[0, 0, 0]	n/a	FR1	1	R1122E
1125.31	1.986	1098491	REC_WORD	1.986	n/a	SCHOOL	-999	10	[0, 0, 0]	n/a	FR1	1	R1122E
1127.296	1.691	1100476	REC_WORD	1.691	n/a	KITE	-999	10	[0, 0, 0]	n/a	FR1	1	R1122E
1128.987	22.51	1102167	REC_WORD	22.51	n/a	SMILE	-999	10	[0, 0, 0]	n/a	FR1	1	R1122E
1151.497	3.538	1124676	REC_END	n/a	n/a	n/a	-999	10	[0, 0, 0]	n/a	FR1	1	R1122E
1155.035	0.0	1128214	TRIAL	n/a	n/a	n/a	-999	11	[0, 0, 0]	n/a	FR1	1	R1122E
1155.035	10.428	1128214	COUNTDOWN_START	n/a	n/a	n/a	-999	11	[0, 0, 0]	n/a	FR1	1	R1122E
1165.463	0.008	1138641	COUNTDOWN_END	n/a	n/a	n/a	-999	11	[0, 0, 0]	n/a	FR1	1	R1122E
1165.471	2.583	1138649	ORIENT	n/a	n/a	n/a	-999	11	[0, 0, 0]	n/a	FR1	1	R1122E
1168.054	2.501	1141232	WORD	n/a	wordpools/wordpool_EN.txt	FORT	1	11	[0, 0, 0]	n/a	FR1	1	R1122E
1170.555	2.499	1143732	WORD	n/a	wordpools/wordpool_EN.txt	ZOO	2	11	[0, 0, 0]	n/a	FR1	1	R1122E
1173.054	2.385	1146231	WORD	n/a	wordpools/wordpool_EN.txt	SHARK	3	11	[0, 0, 0]	n/a	FR1	1	R1122E
1175.439	2.583	1148616	WORD	n/a	wordpools/wordpool_EN.txt	ROCK	4	11	[0, 0, 0]	n/a	FR1	1	R1122E
1178.022	2.401	1151199	WORD	n/a	wordpools/wordpool_EN.txt	SAIL	5	11	[0, 0, 0]	n/a	FR1	1	R1122E
1180.423	2.467	1153600	WORD	n/a	wordpools/wordpool_EN.txt	BEACH	6	11	[0, 0, 0]	n/a	FR1	1	R1122E
1182.89	2.434	1156067	WORD	n/a	wordpools/wordpool_EN.txt	FLAG	7	11	[0, 0, 0]	n/a	FR1	1	R1122E
1185.324	2.501	1158500	WORD	n/a	wordpools/wordpool_EN.txt	FUR	8	11	[0, 0, 0]	n/a	FR1	1	R1122E
1187.825	2.617	1161001	WORD	n/a	wordpools/wordpool_EN.txt	DOG	9	11	[0, 0, 0]	n/a	FR1	1	R1122E
1190.442	2.4	1163618	WORD	n/a	wordpools/wordpool_EN.txt	FLEA	10	11	[0, 0, 0]	n/a	FR1	1	R1122E
1192.842	2.584	1166018	WORD	n/a	wordpools/wordpool_EN.txt	JAIL	11	11	[0, 0, 0]	n/a	FR1	1	R1122E
1195.426	1.616	1168602	WORD	n/a	wordpools/wordpool_EN.txt	TRASH	12	11	[0, 0, 0]	n/a	FR1	1	R1122E
1197.042	0.001	1170218	DISTRACT_START	n/a	n/a	n/a	-999	11	[0, 0, 0]	n/a	FR1	1	R1122E
1197.043	0.015	1170219	START	n/a	n/a	n/a	-999	11	[-999, -999, -999]	n/a	FR1	1	R1122E
1197.058	3.102	1170234	PROB	3.102	n/a	n/a	-999	11	[5, 2, 7]	14	FR1	1	R1122E
1200.16	3.001	1173335	PROB	3.001	n/a	n/a	-999	11	[3, 4, 3]	10	FR1	1	R1122E
1203.161	3.45	1176336	PROB	3.45	n/a	n/a	-999	11	[2, 6, 5]	13	FR1	1	R1122E
1206.611	1.784	1179786	PROB	1.784	n/a	n/a	-999	11	[8, 8, 7]	23	FR1	1	R1122E
1208.395	2.484	1181570	PROB	2.484	n/a	n/a	-999	11	[8, 6, 6]	22	FR1	1	R1122E
1210.879	12.135	1184054	PROB	12.135	n/a	n/a	-999	11	[2, 1, 3]	6	FR1	1	R1122E
1223.014	0.016	1196188	STOP	n/a	n/a	n/a	-999	11	[-999, -999, -999]	n/a	FR1	1	R1122E
1223.03	1.185	1196204	DISTRACT_END	n/a	n/a	n/a	-999	11	[0, 0, 0]	n/a	FR1	1	R1122E
1224.215	1.606	1197389	REC_START	n/a	n/a	n/a	-999	11	[0, 0, 0]	n/a	FR1	1	R1122E
1225.821	2.164	1198995	REC_WORD	2.164	n/a	SHARK	-999	11	[0, 0, 0]	n/a	FR1	1	R1122E
1227.985	9.532	1201159	REC_WORD	9.532	n/a	ROCK	-999	11	[0, 0, 0]	n/a	FR1	1	R1122E
1237.517	2.891	1210690	REC_WORD	2.891	n/a	ZOO	-999	11	[0, 0, 0]	n/a	FR1	1	R1122E
1240.408	13.817	1213581	REC_WORD	13.817	n/a	DOG	-999	11	[0, 0, 0]	n/a	FR1	1	R1122E
1254.225	44.386	1227397	REC_END	n/a	n/a	n/a	-999	11	[0, 0, 0]	n/a	FR1	1	R1122E
1298.611	0.0	1271780	TRIAL	n/a	n/a	n/a	-999	12	[0, 0, 0]	n/a	FR1	1	R1122E
1298.611	10.428	1271780	COUNTDOWN_START	n/a	n/a	n/a	-999	12	[0, 0, 0]	n/a	FR1	1	R1122E
1309.039	0.006	1282207	COUNTDOWN_END	n/a	n/a	n/a	-999	12	[0, 0, 0]	n/a	FR1	1	R1122E
1309.045	2.418	1282213	ORIENT	n/a	n/a	n/a	-999	12	[0, 0, 0]	n/a	FR1	1	R1122E
1311.463	2.533	1284631	WORD	n/a	wordpools/wordpool_EN.txt	TANK	1	12	[0, 0, 0]	n/a	FR1	1	R1122E
1313.996	2.434	1287164	WORD	n/a	wordpools/wordpool_EN.txt	HOSE	2	12	[0, 0, 0]	n/a	FR1	1	R1122E
1316.43	2.501	1289598	WORD	n/a	wordpools/wordpool_EN.txt	BOMB	3	12	[0, 0, 0]	n/a	FR1	1	R1122E
1318.931	2.434	1292099	WORD	n/a	wordpools/wordpool_EN.txt	COIN	4	12	[0, 0, 0]	n/a	FR1	1	R1122E
1321.365	2.517	1294532	WORD	n/a	wordpools/wordpool_EN.txt	PLANE	5	12	[0, 0, 0]	n/a	FR1	1	R1122E
1323.882	2.584	1297049	WORD	n/a	wordpools/wordpool_EN.txt	BRICK	6	12	[0, 0, 0]	n/a	FR1	1	R1122E
1326.466	2.549	1299633	WORD	n/a	wordpools/wordpool_EN.txt	PLATE	7	12	[0, 0, 0]	n/a	FR1	1	R1122E
1329.015	2.518	1302182	WORD	n/a	wordpools/wordpool_EN.txt	SQUARE	8	12	[0, 0, 0]	n/a	FR1	1	R1122E
1331.533	2.384	1304700	WORD	n/a	wordpools/wordpool_EN.txt	MOON	9	12	[0, 0, 0]	n/a	FR1	1	R1122E
1333.917	2.45	1307083	WORD	n/a	wordpools/wordpool_EN.txt	SHEET	10	12	[0, 0, 0]	n/a	FR1	1	R1122E
1336.367	2.517	1309533	WORD	n/a	wordpools/wordpool_EN.txt	ARK	11	12	[0, 0, 0]	n/a	FR1	1	R1122E
1338.884	1.617	1312050	WORD	n/a	wordpools/wordpool_EN.txt	TRAIN	12	12	[0, 0, 0]	n/a	FR1	1	R1122E
1340.501	0.001	1313667	DISTRACT_START	n/a	n/a	n/a	-999	12	[0, 0, 0]	n/a	FR1	1	R1122E
1340.502	0.016	1313668	START	n/a	n/a	n/a	-999	12	[-999, -999, -999]	n/a	FR1	1	R1122E
1340.518	4.151	1313684	PROB	4.151	n/a	n/a	-999	12	[6, 9, 7]	22	FR1	1	R1122E
1344.669	2.767	1317835	PROB	2.767	n/a	n/a	-999	12	[2, 6, 9]	17	FR1	1	R1122E
1347.436	2.566	1320602	PROB	2.566	n/a	n/a	-999	12	[1, 7, 9]	17	FR1	1	R1122E
1350.002	2.135	1323167	PROB	2.135	n/a	n/a	-999	12	[2, 6, 9]	17	FR1	1	R1122E
1352.137	2.367	1325302	PROB	2.367	n/a	n/a	-999	12	[7, 7, 6]	20	FR1	1	R1122E
1354.504	2.817	1327669	PROB	2.817	n/a	n/a	-999	12	[9, 4, 2]	15	FR1	1	R1122E
1357.321	2.067	1330486	PROB	2.067	n/a	n/a	-999	12	[6, 6, 4]	16	FR1	1	R1122E
1359.388	2.344	1332553	PROB	2.344	n/a	n/a	-999	12	[6, 1, 5]	12	FR1	1	R1122E
1361.732	0.006	1334897	STOP	n/a	n/a	n/a	-999	12	[-999, -999, -999]	n/a	FR1	1	R1122E
1361.738	1.051	1334903	DISTRACT_END	n/a	n/a	n/a	-999	12	[0, 0, 0]	n/a	FR1	1	R1122E
1362.789	3.887	1335954	REC_START	n/a	n/a	n/a	-999	12	[0, 0, 0]	n/a	FR1	1	R1122E
1366.676	2.119	1339840	REC_WORD	2.119	n/a	BRICK	-999	12	[0, 0, 0]	n/a	FR1	1	R1122E
1368.795	8.336	1341959	REC_WORD	8.336	n/a	BOMB	-999	12	[0, 0, 0]	n/a	FR1	1	R1122E
1377.131	2.257	1350295	REC_WORD	2.257	n/a	TANK	-999	12	[0, 0, 0]	n/a	FR1	1	R1122E
1379.388	11.182	1352551	REC_WORD	11.182	n/a	HOSE	-999	12	[0, 0, 0]	n/a	FR1	1	R1122E
1390.57	2.236	1363733	REC_WORD	2.236	n/a	ARK	-999	12	[0, 0, 0]	n/a	FR1	1	R1122E
1392.806	23.742	1365969	REC_END	n/a	n/a	n/a	-999	12	[0, 0, 0]	n/a	FR1	1	R1122E
1416.548	0.0	1389709	TRIAL	n/a	n/a	n/a	-999	13	[0, 0, 0]	n/a	FR1	1	R1122E
1416.548	10.428	1389709	COUNTDOWN_START	n/a	n/a	n/a	-999	13	[0, 0, 0]	n/a	FR1	1	R1122E
1426.976	0.006	1400136	COUNTDOWN_END	n/a	n/a	n/a	-999	13	[0, 0, 0]	n/a	FR1	1	R1122E
1426.982	2.618	1400142	ORIENT	n/a	n/a	n/a	-999	13	[0, 0, 0]	n/a	FR1	1	R1122E
1429.6	2.534	1402760	WORD	n/a	wordpools/wordpool_EN.txt	RAIN	1	13	[0, 0, 0]	n/a	FR1	1	R1122E
1432.134	2.617	1405294	WORD	n/a	wordpools/wordpool_EN.txt	SKI	2	13	[0, 0, 0]	n/a	FR1	1	R1122E
1434.751	2.484	1407911	WORD	n/a	wordpools/wordpool_EN.txt	DRUM	3	13	[0, 0, 0]	n/a	FR1	1	R1122E
1437.235	2.617	1410395	WORD	n/a	wordpools/wordpool_EN.txt	CAR	4	13	[0, 0, 0]	n/a	FR1	1	R1122E
1439.852	2.417	1413011	WORD	n/a	wordpools/wordpool_EN.txt	CROWN	5	13	[0, 0, 0]	n/a	FR1	1	R1122E
1442.269	2.417	1415428	WORD	n/a	wordpools/wordpool_EN.txt	STAIR	6	13	[0, 0, 0]	n/a	FR1	1	R1122E
1444.686	2.417	1417845	WORD	n/a	wordpools/wordpool_EN.txt	KEY	7	13	[0, 0, 0]	n/a	FR1	1	R1122E
1447.103	2.534	1420262	WORD	n/a	wordpools/wordpool_EN.txt	DOOR	8	13	[0, 0, 0]	n/a	FR1	1	R1122E
1449.637	2.551	1422796	WORD	n/a	wordpools/wordpool_EN.txt	CHIEF	9	13	[0, 0, 0]	n/a	FR1	1	R1122E
1452.188	2.517	1425347	WORD	n/a	wordpools/wordpool_EN.txt	WAVE	10	13	[0, 0, 0]	n/a	FR1	1	R1122E
1454.705	2.484	1427863	WORD	n/a	wordpools/wordpool_EN.txt	TOY	11	13	[0, 0, 0]	n/a	FR1	1	R1122E
1457.189	1.616	1430347	WORD	n/a	wordpools/wordpool_EN.txt	BLOOM	12	13	[0, 0, 0]	n/a	FR1	1	R1122E
1458.805	0.001	1431963	DISTRACT_START	n/a	n/a	n/a	-999	13	[0, 0, 0]	n/a	FR1	1	R1122E
1458.806	0.016	1431964	START	n/a	n/a	n/a	-999	13	[-999, -999, -999]	n/a	FR1	1	R1122E
1458.822	3.484	1431980	PROB	3.484	n/a	n/a	-999	13	[9, 9, 3]	21	FR1	1	R1122E
1462.306	3.301	1435464	PROB	3.301	n/a	n/a	-999	13	[5, 7, 5]	17	FR1	1	R1122E
1465.607	3.2	1438765	PROB	3.2	n/a	n/a	-999	13	[3, 8, 6]	17	FR1	1	R1122E
1468.807	3.484	1441964	PROB	3.484	n/a	n/a	-999	13	[1, 4, 5]	10	FR1	1	R1122E
1472.291	2.917	1445448	PROB	2.917	n/a	n/a	-999	13	[1, 9, 3]	13	FR1	1	R1122E
1475.208	3.59	1448365	PROB	3.59	n/a	n/a	-999	13	[6, 6, 4]	16	FR1	1	R1122E
1478.798	0.011	1451955	STOP	n/a	n/a	n/a	-999	13	[-999, -999, -999]	n/a	FR1	1	R1122E
1478.809	1.084	1451966	DISTRACT_END	n/a	n/a	n/a	-999	13	[0, 0, 0]	n/a	FR1	1	R1122E
1479.893	1.834	1453050	REC_START	n/a	n/a	n/a	-999	13	[0, 0, 0]	n/a	FR1	1	R1122E
1481.727	1.283	1454884	REC_WORD	1.283	n/a	RAIN	-999	13	[0, 0, 0]	n/a	FR1	1	R1122E
1483.01	2.953	1456166	REC_WORD	2.953	n/a	SKI	-999	13	[0, 0, 0]	n/a	FR1	1	R1122E
1485.963	1.818	1459119	REC_WORD	1.818	n/a	DRUM	-999	13	[0, 0, 0]	n/a	FR1	1	R1122E
1487.781	1.717	1460937	REC_WORD	1.717	n/a	CHIEF	-999	13	[0, 0, 0]	n/a	FR1	1	R1122E
1489.498	20.406	1462654	REC_WORD	20.406	n/a	TOY	-999	13	[0, 0, 0]	n/a	FR1	1	R1122E
1509.904	8.578	1483059	REC_END	n/a	n/a	n/a	-999	13	[0, 0, 0]	n/a	FR1	1	R1122E
1518.482	0.0	1491636	TRIAL	n/a	n/a	n/a	-999	14	[0, 0, 0]	n/a	FR1	1	R1122E
1518.482	10.428	1491636	COUNTDOWN_START	n/a	n/a	n/a	-999	14	[0, 0, 0]	n/a	FR1	1	R1122E
1528.91	0.008	1502063	COUNTDOWN_END	n/a	n/a	n/a	-999	14	[0, 0, 0]	n/a	FR1	1	R1122E
1528.918	2.534	1502071	ORIENT	n/a	n/a	n/a	-999	14	[0, 0, 0]	n/a	FR1	1	R1122E
1531.452	2.599	1504605	WORD	n/a	wordpools/wordpool_EN.txt	POND	1	14	[0, 0, 0]	n/a	FR1	1	R1122E
1534.051	2.451	1507204	WORD	n/a	wordpools/wordpool_EN.txt	STRAW	2	14	[0, 0, 0]	n/a	FR1	1	R1122E
1536.502	2.467	1509655	WORD	n/a	wordpools/wordpool_EN.txt	SLUSH	3	14	[0, 0, 0]	n/a	FR1	1	R1122E
1538.969	2.584	1512122	WORD	n/a	wordpools/wordpool_EN.txt	CAGE	4	14	[0, 0, 0]	n/a	FR1	1	R1122E
1541.553	2.4	1514706	WORD	n/a	wordpools/wordpool_EN.txt	VASE	5	14	[0, 0, 0]	n/a	FR1	1	R1122E
1543.953	2.468	1517105	WORD	n/a	wordpools/wordpool_EN.txt	SINK	6	14	[0, 0, 0]	n/a	FR1	1	R1122E
1546.421	2.5	1519573	WORD	n/a	wordpools/wordpool_EN.txt	JAR	7	14	[0, 0, 0]	n/a	FR1	1	R1122E
1548.921	2.584	1522073	WORD	n/a	wordpools/wordpool_EN.txt	SEAL	8	14	[0, 0, 0]	n/a	FR1	1	R1122E
1551.505	2.533	1524657	WORD	n/a	wordpools/wordpool_EN.txt	GEESE	9	14	[0, 0, 0]	n/a	FR1	1	R1122E
1554.038	2.435	1527190	WORD	n/a	wordpools/wordpool_EN.txt	HAT	10	14	[0, 0, 0]	n/a	FR1	1	R1122E
1556.473	2.582	1529625	WORD	n/a	wordpools/wordpool_EN.txt	BOX	11	14	[0, 0, 0]	n/a	FR1	1	R1122E
1559.055	1.601	1532206	WORD	n/a	wordpools/wordpool_EN.txt	PET	12	14	[0, 0, 0]	n/a	FR1	1	R1122E
1560.656	0.001	1533807	DISTRACT_START	n/a	n/a	n/a	-999	14	[0, 0, 0]	n/a	FR1	1	R1122E
1560.657	0.016	1533808	START	n/a	n/a	n/a	-999	14	[-999, -999, -999]	n/a	FR1	1	R1122E
1560.673	3.367	1533824	PROB	3.367	n/a	n/a	-999	14	[2, 3, 8]	13	FR1	1	R1122E
1564.04	3.168	1537191	PROB	3.168	n/a	n/a	-999	14	[6, 5, 7]	18	FR1	1	R1122E
1567.208	3.4	1540359	PROB	3.4	n/a	n/a	-999	14	[3, 1, 6]	10	FR1	1	R1122E
1570.608	2.534	1543759	PROB	2.534	n/a	n/a	-999	14	[1, 2, 3]	6	FR1	1	R1122E
1573.142	3.201	1546292	PROB	3.201	n/a	n/a	-999	14	[4, 7, 4]	15	FR1	1	R1122E
1576.343	3.1	1549493	PROB	3.1	n/a	n/a	-999	14	[5, 7, 9]	21	FR1	1	R1122E
1579.443	2.546	1552593	PROB	2.546	n/a	n/a	-999	14	[3, 5, 5]	13	FR1	1	R1122E
1581.989	0.003	1555139	STOP	n/a	n/a	n/a	-999	14	[-999, -999, -999]	n/a	FR1	1	R1122E
1581.992	1.122	1555142	DISTRACT_END	n/a	n/a	n/a	-999	14	[0, 0, 0]	n/a	FR1	1	R1122E
1583.114	1.958	1556264	REC_START	n/a	n/a	n/a	-999	14	[0, 0, 0]	n/a	FR1	1	R1122E
1585.072	1.436	1558222	REC_WORD	1.436	n/a	BOX	-999	14	[0, 0, 0]	n/a	FR1	1	R1122E
1586.508	1.67	1559658	REC_WORD	1.67	n/a	VASE	-999	14	[0, 0, 0]	n/a	FR1	1	R1122E
1588.178	1.429	1561327	REC_WORD	1.429	n/a	GEESE	-999	14	[0, 0, 0]	n/a	FR1	1	R1122E
1589.607	1.895	1562756	REC_WORD	1.895	n/a	HAT	-999	14	[0, 0, 0]	n/a	FR1	1	R1122E
1591.502	1.774	1564651	REC_WORD	1.774	n/a	POND	-999	14	[0, 0, 0]	n/a	FR1	1	R1122E
1593.276	2.112	1566425	REC_WORD	2.112	n/a	STRAW	-999	14	[0, 0, 0]	n/a	FR1	1	R1122E
1595.388	13.094	1568537	REC_WORD	13.094	n/a	SINK	-999	14	[0, 0, 0]	n/a	FR1	1	R1122E
1608.482	4.64	1581630	REC_WORD	4.64	n/a	SEAL	-999	14	[0, 0, 0]	n/a	FR1	1	R1122E
1613.122	4.495	1586270	REC_END	n/a	n/a	n/a	-999	14	[0, 0, 0]	n/a	FR1	1	R1122E
1617.617	0.0	1590764	COUNTDOWN_START	n/a	n/a	n/a	-999	15	[0, 0, 0]	n/a	FR1	1	R1122E
1617.617	10.428	1590764	TRIAL	n/a	n/a	n/a	-999	15	[0, 0, 0]	n/a	FR1	1	R1122E
1628.045	0.006	1601192	COUNTDOWN_END	n/a	n/a	n/a	-999	15	[0, 0, 0]	n/a	FR1	1	R1122E
1628.051	2.551	1601198	ORIENT	n/a	n/a	n/a	-999	15	[0, 0, 0]	n/a	FR1	1	R1122E
1630.602	2.466	1603749	WORD	n/a	wordpools/wordpool_EN.txt	CLAY	1	15	[0, 0, 0]	n/a	FR1	1	R1122E
1633.068	2.485	1606214	WORD	n/a	wordpools/wordpool_EN.txt	INK	2	15	[0, 0, 0]	n/a	FR1	1	R1122E
1635.553	2.466	1608699	WORD	n/a	wordpools/wordpool_EN.txt	CHIN	3	15	[0, 0, 0]	n/a	FR1	1	R1122E
1638.019	2.518	1611165	WORD	n/a	wordpools/wordpool_EN.txt	BANK	4	15	[0, 0, 0]	n/a	FR1	1	R1122E
1640.537	2.45	1613683	WORD	n/a	wordpools/wordpool_EN.txt	PEACH	5	15	[0, 0, 0]	n/a	FR1	1	R1122E
1642.987	2.385	1616133	WORD	n/a	wordpools/wordpool_EN.txt	STOOL	6	15	[0, 0, 0]	n/a	FR1	1	R1122E
1645.372	2.383	1618518	WORD	n/a	wordpools/wordpool_EN.txt	BENCH	7	15	[0, 0, 0]	n/a	FR1	1	R1122E
1647.755	2.567	1620900	WORD	n/a	wordpools/wordpool_EN.txt	THREAD	8	15	[0, 0, 0]	n/a	FR1	1	R1122E
1650.322	2.484	1623467	WORD	n/a	wordpools/wordpool_EN.txt	LAMP	9	15	[0, 0, 0]	n/a	FR1	1	R1122E
1652.806	2.484	1625951	WORD	n/a	wordpools/wordpool_EN.txt	SOAP	10	15	[0, 0, 0]	n/a	FR1	1	R1122E
1655.29	2.634	1628435	WORD	n/a	wordpools/wordpool_EN.txt	FLUTE	11	15	[0, 0, 0]	n/a	FR1	1	R1122E
1657.924	1.617	1631069	WORD	n/a	wordpools/wordpool_EN.txt	PASTE	12	15	[0, 0, 0]	n/a	FR1	1	R1122E
1659.541	0.0	1632686	DISTRACT_START	n/a	n/a	n/a	-999	15	[0, 0, 0]	n/a	FR1	1	R1122E
1659.541	0.016	1632686	START	n/a	n/a	n/a	-999	15	[-999, -999, -999]	n/a	FR1	1	R1122E
1659.557	3.768	1632702	PROB	3.768	n/a	n/a	-999	15	[5, 7, 2]	14	FR1	1	R1122E
1663.325	2.683	1636469	PROB	2.683	n/a	n/a	-999	15	[7, 6, 1]	14	FR1	1	R1122E
1666.008	2.967	1639152	PROB	2.967	n/a	n/a	-999	15	[7, 2, 4]	13	FR1	1	R1122E
1668.975	3.501	1642119	PROB	3.501	n/a	n/a	-999	15	[6, 3, 9]	18	FR1	1	R1122E
1672.476	4.351	1645620	PROB	4.351	n/a	n/a	-999	15	[9, 8, 9]	26	FR1	1	R1122E
1676.827	3.569	1649970	PROB	3.569	n/a	n/a	-999	15	[5, 8, 2]	15	FR1	1	R1122E
1680.396	0.015	1653539	STOP	n/a	n/a	n/a	-999	15	[-999, -999, -999]	n/a	FR1	1	R1122E
1680.411	1.134	1653554	DISTRACT_END	n/a	n/a	n/a	-999	15	[0, 0, 0]	n/a	FR1	1	R1122E
1681.545	2.613	1654688	REC_START	n/a	n/a	n/a	-999	15	[0, 0, 0]	n/a	FR1	1	R1122E
1684.158	2.005	1657301	REC_WORD	2.005	n/a	BANK	-999	15	[0, 0, 0]	n/a	FR1	1	R1122E
1686.163	1.843	1659306	REC_WORD	1.843	n/a	STOOL	-999	15	[0, 0, 0]	n/a	FR1	1	R1122E
1688.006	2.169	1661149	REC_WORD	2.169	n/a	BENCH	-999	15	[0, 0, 0]	n/a	FR1	1	R1122E
1690.175	1.826	1663318	REC_WORD	1.826	n/a	LAMP	-999	15	[0, 0, 0]	n/a	FR1	1	R1122E
1692.001	1.541	1665143	REC_WORD	1.541	n/a	INK	-999	15	[0, 0, 0]	n/a	FR1	1	R1122E
1693.542	9.001	1666684	REC_WORD	9.001	n/a	PASTE	-999	15	[0, 0, 0]	n/a	FR1	1	R1122E
1702.543	9.013	1675685	REC_WORD	9.013	n/a	CHECK	-999	15	[0, 0, 0]	n/a	FR1	1	R1122E
1711.556	15.363	1684697	REC_END	n/a	n/a	n/a	-999	15	[0, 0, 0]	n/a	FR1	1	R1122E
1726.919	0.0	1700059	TRIAL	n/a	n/a	n/a	-999	16	[0, 0, 0]	n/a	FR1	1	R1122E
1726.919	10.428	1700059	COUNTDOWN_START	n/a	n/a	n/a	-999	16	[0, 0, 0]	n/a	FR1	1	R1122E
1737.347	0.007	1710486	COUNTDOWN_END	n/a	n/a	n/a	-999	16	[0, 0, 0]	n/a	FR1	1	R1122E
1737.354	2.534	1710493	ORIENT	n/a	n/a	n/a	-999	16	[0, 0, 0]	n/a	FR1	1	R1122E
1739.888	2.451	1713027	WORD	n/a	wordpools/wordpool_EN.txt	LIP	1	16	[0, 0, 0]	n/a	FR1	1	R1122E
1742.339	2.583	1715478	WORD	n/a	wordpools/wordpool_EN.txt	STORE	2	16	[0, 0, 0]	n/a	FR1	1	R1122E
1744.922	2.601	1718061	WORD	n/a	wordpools/wordpool_EN.txt	SHIRT	3	16	[0, 0, 0]	n/a	FR1	1	R1122E
1747.523	2.417	1720662	WORD	n/a	wordpools/wordpool_EN.txt	RIB	4	16	[0, 0, 0]	n/a	FR1	1	R1122E
1749.94	2.384	1723079	WORD	n/a	wordpools/wordpool_EN.txt	MULE	5	16	[0, 0, 0]	n/a	FR1	1	R1122E
1752.324	2.467	1725462	WORD	n/a	wordpools/wordpool_EN.txt	BOWL	6	16	[0, 0, 0]	n/a	FR1	1	R1122E
1754.791	2.45	1727929	WORD	n/a	wordpools/wordpool_EN.txt	BREAD	7	16	[0, 0, 0]	n/a	FR1	1	R1122E
1757.241	2.517	1730379	WORD	n/a	wordpools/wordpool_EN.txt	CHAIR	8	16	[0, 0, 0]	n/a	FR1	1	R1122E
1759.758	2.551	1732896	WORD	n/a	wordpools/wordpool_EN.txt	BEAN	9	16	[0, 0, 0]	n/a	FR1	1	R1122E
1762.309	2.434	1735447	WORD	n/a	wordpools/wordpool_EN.txt	PANTS	10	16	[0, 0, 0]	n/a	FR1	1	R1122E
1764.743	2.6	1737881	WORD	n/a	wordpools/wordpool_EN.txt	BARN	11	16	[0, 0, 0]	n/a	FR1	1	R1122E
1767.343	1.616	1740480	WORD	n/a	wordpools/wordpool_EN.txt	STOVE	12	16	[0, 0, 0]	n/a	FR1	1	R1122E
1768.959	0.001	1742096	DISTRACT_START	n/a	n/a	n/a	-999	16	[0, 0, 0]	n/a	FR1	1	R1122E
1768.96	0.016	1742097	START	n/a	n/a	n/a	-999	16	[-999, -999, -999]	n/a	FR1	1	R1122E
1768.976	3.701	1742113	PROB	3.701	n/a	n/a	-999	16	[6, 3, 9]	18	FR1	1	R1122E
1772.677	3.151	1745814	PROB	3.151	n/a	n/a	-999	16	[3, 7, 7]	17	FR1	1	R1122E
1775.828	3.817	1748965	PROB	3.817	n/a	n/a	-999	16	[8, 9, 9]	26	FR1	1	R1122E
1779.645	2.517	1752782	PROB	2.517	n/a	n/a	-999	16	[2, 3, 2]	7	FR1	1	R1122E
1782.162	2.816	1755298	PROB	2.816	n/a	n/a	-999	16	[8, 9, 5]	22	FR1	1	R1122E
1784.978	3.619	1758114	PROB	3.619	n/a	n/a	-999	16	[6, 7, 6]	19	FR1	1	R1122E
1788.597	3.402	1761733	PROB	3.402	n/a	n/a	-999	16	[5, 6, 1]	12	FR1	1	R1122E
1791.999	0.014	1765135	STOP	n/a	n/a	n/a	-999	16	[-999, -999, -999]	n/a	FR1	1	R1122E
1792.013	1.069	1765149	DISTRACT_END	n/a	n/a	n/a	-999	16	[0, 0, 0]	n/a	FR1	1	R1122E
1793.082	3.38	1766218	REC_START	n/a	n/a	n/a	-999	16	[0, 0, 0]	n/a	FR1	1	R1122E
1796.462	1.872	1769597	REC_WORD	1.872	n/a	BARN	-999	16	[0, 0, 0]	n/a	FR1	1	R1122E
1798.334	1.257	1771469	REC_WORD	1.257	n/a	BOWL	-999	16	[0, 0, 0]	n/a	FR1	1	R1122E
1799.591	1.953	1772726	REC_WORD	1.953	n/a	BEAN	-999	16	[0, 0, 0]	n/a	FR1	1	R1122E
1801.544	3.191	1774679	REC_WORD	3.191	n/a	CHAIR	-999	16	[0, 0, 0]	n/a	FR1	1	R1122E
1804.735	18.357	1777870	REC_WORD	18.357	n/a	BREAD	-999	16	[0, 0, 0]	n/a	FR1	1	R1122E
1823.092	14.813	1796226	REC_END	n/a	n/a	n/a	-999	16	[0, 0, 0]	n/a	FR1	1	R1122E
1837.905	0.001	1811038	COUNTDOWN_START	n/a	n/a	n/a	-999	17	[0, 0, 0]	n/a	FR1	1	R1122E
1837.906	10.427	1811039	TRIAL	n/a	n/a	n/a	-999	17	[0, 0, 0]	n/a	FR1	1	R1122E
1848.333	0.008	1821465	COUNTDOWN_END	n/a	n/a	n/a	-999	17	[0, 0, 0]	n/a	FR1	1	R1122E
1848.341	2.483	1821473	ORIENT	n/a	n/a	n/a	-999	17	[0, 0, 0]	n/a	FR1	1	R1122E
1850.824	2.451	1823956	WORD	n/a	wordpools/wordpool_EN.txt	GUARD	1	17	[0, 0, 0]	n/a	FR1	1	R1122E
1853.275	2.433	1826407	WORD	n/a	wordpools/wordpool_EN.txt	FENCE	2	17	[0, 0, 0]	n/a	FR1	1	R1122E
1855.708	2.384	1828839	WORD	n/a	wordpools/wordpool_EN.txt	DOLL	3	17	[0, 0, 0]	n/a	FR1	1	R1122E
1858.092	2.551	1831223	WORD	n/a	wordpools/wordpool_EN.txt	BAT	4	17	[0, 0, 0]	n/a	FR1	1	R1122E
1860.643	2.484	1833774	WORD	n/a	wordpools/wordpool_EN.txt	LEG	5	17	[0, 0, 0]	n/a	FR1	1	R1122E
1863.127	2.533	1836258	WORD	n/a	wordpools/wordpool_EN.txt	HORN	6	17	[0, 0, 0]	n/a	FR1	1	R1122E
1865.66	2.501	1838791	WORD	n/a	wordpools/wordpool_EN.txt	OAR	7	17	[0, 0, 0]	n/a	FR1	1	R1122E
1868.161	2.5	1841292	WORD	n/a	wordpools/wordpool_EN.txt	FOOT	8	17	[0, 0, 0]	n/a	FR1	1	R1122E
1870.661	2.484	1843791	WORD	n/a	wordpools/wordpool_EN.txt	BOY	9	17	[0, 0, 0]	n/a	FR1	1	R1122E
1873.145	2.467	1846275	WORD	n/a	wordpools/wordpool_EN.txt	SOCK	10	17	[0, 0, 0]	n/a	FR1	1	R1122E
1875.612	2.551	1848742	WORD	n/a	wordpools/wordpool_EN.txt	LOCK	11	17	[0, 0, 0]	n/a	FR1	1	R1122E
1878.163	1.616	1851293	WORD	n/a	wordpools/wordpool_EN.txt	PEN	12	17	[0, 0, 0]	n/a	FR1	1	R1122E
1879.779	0.001	1852909	DISTRACT_START	n/a	n/a	n/a	-999	17	[0, 0, 0]	n/a	FR1	1	R1122E
1879.78	0.016	1852910	START	n/a	n/a	n/a	-999	17	[-999, -999, -999]	n/a	FR1	1	R1122E
1879.796	4.25	1852926	PROB	4.25	n/a	n/a	-999	17	[8, 4, 6]	18	FR1	1	R1122E
1884.046	2.9	1857176	PROB	2.9	n/a	n/a	-999	17	[7, 5, 7]	19	FR1	1	R1122E
1886.946	2.835	1860075	PROB	2.835	n/a	n/a	-999	17	[9, 3, 1]	13	FR1	1	R1122E
1889.781	3.417	1862910	PROB	3.417	n/a	n/a	-999	17	[2, 3, 1]	6	FR1	1	R1122E
1893.198	3.218	1866327	PROB	3.218	n/a	n/a	-999	17	[9, 5, 3]	17	FR1	1	R1122E
1896.416	3.691	1869545	PROB	3.691	n/a	n/a	-999	17	[2, 4, 7]	13	FR1	1	R1122E
1900.107	0.009	1873235	STOP	n/a	n/a	n/a	-999	17	[-999, -999, -999]	n/a	FR1	1	R1122E
1900.116	1.052	1873244	DISTRACT_END	n/a	n/a	n/a	-999	17	[0, 0, 0]	n/a	FR1	1	R1122E
1901.168	3.98	1874296	REC_START	n/a	n/a	n/a	-999	17	[0, 0, 0]	n/a	FR1	1	R1122E
1905.148	2.564	1878276	REC_WORD	2.564	n/a	LEG	-999	17	[0, 0, 0]	n/a	FR1	1	R1122E
1907.712	1.653	1880840	REC_WORD	1.653	n/a	HORN	-999	17	[0, 0, 0]	n/a	FR1	1	R1122E
1909.365	1.88	1882493	REC_WORD	1.88	n/a	BOY	-999	17	[0, 0, 0]	n/a	FR1	1	R1122E
1911.245	2.416	1884373	REC_WORD	2.416	n/a	DOLL	-999	17	[0, 0, 0]	n/a	FR1	1	R1122E
1913.661	1.106	1886789	REC_WORD	1.106	n/a	FENCE	-999	17	[0, 0, 0]	n/a	FR1	1	R1122E
1914.767	3.369	1887894	REC_WORD	3.369	n/a	GUARD	-999	17	[0, 0, 0]	n/a	FR1	1	R1122E
1918.136	4.611	1891263	REC_WORD	4.611	n/a	SOCK	-999	17	[0, 0, 0]	n/a	FR1	1	R1122E
1922.747	8.43	1895874	REC_WORD	8.43	n/a	BAT	-999	17	[0, 0, 0]	n/a	FR1	1	R1122E
1931.177	3.245	1904303	REC_END	n/a	n/a	n/a	-999	17	[0, 0, 0]	n/a	FR1	1	R1122E
1934.422	0.001	1907548	COUNTDOWN_START	n/a	n/a	n/a	-999	18	[0, 0, 0]	n/a	FR1	1	R1122E
1934.423	10.427	1907549	TRIAL	n/a	n/a	n/a	-999	18	[0, 0, 0]	n/a	FR1	1	R1122E
1944.85	0.007	1917975	COUNTDOWN_END	n/a	n/a	n/a	-999	18	[0, 0, 0]	n/a	FR1	1	R1122E
1944.857	2.618	1917982	ORIENT	n/a	n/a	n/a	-999	18	[0, 0, 0]	n/a	FR1	1	R1122E
1947.475	2.482	1920600	WORD	n/a	wordpools/wordpool_EN.txt	COW	1	18	[0, 0, 0]	n/a	FR1	1	R1122E
1949.957	2.402	1923082	WORD	n/a	wordpools/wordpool_EN.txt	STAR	2	18	[0, 0, 0]	n/a	FR1	1	R1122E
1952.359	2.484	1925484	WORD	n/a	wordpools/wordpool_EN.txt	HOUSE	3	18	[0, 0, 0]	n/a	FR1	1	R1122E
1954.843	2.4	1927968	WORD	n/a	wordpools/wordpool_EN.txt	DRESS	4	18	[0, 0, 0]	n/a	FR1	1	R1122E
1957.243	2.45	1930368	WORD	n/a	wordpools/wordpool_EN.txt	BRIDGE	5	18	[0, 0, 0]	n/a	FR1	1	R1122E
1959.693	2.501	1932817	WORD	n/a	wordpools/wordpool_EN.txt	GATE	6	18	[0, 0, 0]	n/a	FR1	1	R1122E
1962.194	2.567	1935318	WORD	n/a	wordpools/wordpool_EN.txt	STONE	7	18	[0, 0, 0]	n/a	FR1	1	R1122E
1964.761	2.634	1937885	WORD	n/a	wordpools/wordpool_EN.txt	FOX	8	18	[0, 0, 0]	n/a	FR1	1	R1122E
1967.395	2.534	1940519	WORD	n/a	wordpools/wordpool_EN.txt	TIE	9	18	[0, 0, 0]	n/a	FR1	1	R1122E
1969.929	2.45	1943053	WORD	n/a	wordpools/wordpool_EN.txt	SKY	10	18	[0, 0, 0]	n/a	FR1	1	R1122E
1972.379	2.484	1945503	WORD	n/a	wordpools/wordpool_EN.txt	PEA	11	18	[0, 0, 0]	n/a	FR1	1	R1122E
1974.863	1.617	1947986	WORD	n/a	wordpools/wordpool_EN.txt	HILL	12	18	[0, 0, 0]	n/a	FR1	1	R1122E
1976.48	0.0	1949603	DISTRACT_START	n/a	n/a	n/a	-999	18	[0, 0, 0]	n/a	FR1	1	R1122E
1976.48	0.016	1949603	START	n/a	n/a	n/a	-999	18	[-999, -999, -999]	n/a	FR1	1	R1122E
1976.496	3.533	1949619	PROB	3.533	n/a	n/a	-999	18	[3, 6, 1]	10	FR1	1	R1122E
1980.029	3.635	1953152	PROB	3.635	n/a	n/a	-999	18	[5, 8, 6]	19	FR1	1	R1122E
1983.664	3.4	1956787	PROB	3.4	n/a	n/a	-999	18	[5, 9, 8]	22	FR1	1	R1122E
1987.064	3.752	1960187	PROB	3.752	n/a	n/a	-999	18	[3, 4, 7]	14	FR1	1	R1122E
1990.816	3.35	1963938	PROB	3.35	n/a	n/a	-999	18	[2, 4, 9]	15	FR1	1	R1122E
1994.166	2.941	1967288	PROB	2.941	n/a	n/a	-999	18	[2, 6, 4]	12	FR1	1	R1122E
1997.107	0.01	1970229	STOP	n/a	n/a	n/a	-999	18	[-999, -999, -999]	n/a	FR1	1	R1122E
1997.117	1.084	1970239	DISTRACT_END	n/a	n/a	n/a	-999	18	[0, 0, 0]	n/a	FR1	1	R1122E
1998.201	3.987	1971323	REC_START	n/a	n/a	n/a	-999	18	[0, 0, 0]	n/a	FR1	1	R1122E
2002.188	0.832	1975310	REC_WORD	0.832	n/a	COW	-999	18	[0, 0, 0]	n/a	FR1	1	R1122E
2003.02	2.027	1976142	REC_WORD	2.027	n/a	STAR	-999	18	[0, 0, 0]	n/a	FR1	1	R1122E
2005.047	6.877	1978168	REC_WORD	6.877	n/a	HOUSE	-999	18	[0, 0, 0]	n/a	FR1	1	R1122E
2011.924	8.249	1985045	REC_WORD	8.249	n/a	FENCE	-999	18	[0, 0, 0]	n/a	FR1	1	R1122E
2020.173	2.378	1993293	REC_WORD	2.378	n/a	FOX	-999	18	[0, 0, 0]	n/a	FR1	1	R1122E
2022.551	1.817	1995671	REC_WORD	1.817	n/a	STONE	-999	18	[0, 0, 0]	n/a	FR1	1	R1122E
2024.368	2.915	1997488	REC_WORD	2.915	n/a	ROCK	-999	18	[0, 0, 0]	n/a	FR1	1	R1122E
2027.283	0.563	2000403	REC_WORD	0.563	n/a	BRIDGE	-999	18	[0, 0, 0]	n/a	FR1	1	R1122E
2027.846	0.365	2000966	REC_WORD	0.365	n/a	GATE	-999	18	[0, 0, 0]	n/a	FR1	1	R1122E
2028.211	12.496	2001331	REC_END	n/a	n/a	n/a	-999	18	[0, 0, 0]	n/a	FR1	1	R1122E
2040.707	0.001	2013826	COUNTDOWN_START	n/a	n/a	n/a	-999	19	[0, 0, 0]	n/a	FR1	1	R1122E
2040.708	10.427	2013827	TRIAL	n/a	n/a	n/a	-999	19	[0, 0, 0]	n/a	FR1	1	R1122E
2051.135	0.008	2024253	COUNTDOWN_END	n/a	n/a	n/a	-999	19	[0, 0, 0]	n/a	FR1	1	R1122E
2051.143	2.5	2024261	ORIENT	n/a	n/a	n/a	-999	19	[0, 0, 0]	n/a	FR1	1	R1122E
2053.643	2.416	2026761	WORD	n/a	wordpools/wordpool_EN.txt	NOSE	1	19	[0, 0, 0]	n/a	FR1	1	R1122E
2056.059	2.502	2029177	WORD	n/a	wordpools/wordpool_EN.txt	TAIL	2	19	[0, 0, 0]	n/a	FR1	1	R1122E
2058.561	2.449	2031679	WORD	n/a	wordpools/wordpool_EN.txt	PIT	3	19	[0, 0, 0]	n/a	FR1	1	R1122E
2061.01	2.485	2034128	WORD	n/a	wordpools/wordpool_EN.txt	PRINCE	4	19	[0, 0, 0]	n/a	FR1	1	R1122E
2063.495	2.533	2036612	WORD	n/a	wordpools/wordpool_EN.txt	MOUSE	5	19	[0, 0, 0]	n/a	FR1	1	R1122E
2066.028	2.451	2039145	WORD	n/a	wordpools/wordpool_EN.txt	SHIELD	6	19	[0, 0, 0]	n/a	FR1	1	R1122E
2068.479	2.384	2041596	WORD	n/a	wordpools/wordpool_EN.txt	ARM	7	19	[0, 0, 0]	n/a	FR1	1	R1122E
2070.863	2.434	2043980	WORD	n/a	wordpools/wordpool_EN.txt	TOE	8	19	[0, 0, 0]	n/a	FR1	1	R1122E
2073.297	2.434	2046414	WORD	n/a	wordpools/wordpool_EN.txt	WALL	9	19	[0, 0, 0]	n/a	FR1	1	R1122E
2075.731	2.6	2048848	WORD	n/a	wordpools/wordpool_EN.txt	SPEAR	10	19	[0, 0, 0]	n/a	FR1	1	R1122E
2078.331	2.45	2051447	WORD	n/a	wordpools/wordpool_EN.txt	HOOF	11	19	[0, 0, 0]	n/a	FR1	1	R1122E
2080.781	1.617	2053897	WORD	n/a	wordpools/wordpool_EN.txt	LAWN	12	19	[0, 0, 0]	n/a	FR1	1	R1122E
2082.398	0.001	2055514	DISTRACT_START	n/a	n/a	n/a	-999	19	[0, 0, 0]	n/a	FR1	1	R1122E
2082.399	0.016	2055515	START	n/a	n/a	n/a	-999	19	[-999, -999, -999]	n/a	FR1	1	R1122E
2082.415	3.467	2055531	PROB	3.467	n/a	n/a	-999	19	[9, 9, 2]	20	FR1	1	R1122E
2085.882	2.984	2058998	PROB	2.984	n/a	n/a	-999	19	[8, 5, 4]	17	FR1	1	R1122E
2088.866	2.734	2061982	PROB	2.734	n/a	n/a	-999	19	[6, 1, 2]	9	FR1	1	R1122E
2091.6	3.034	2064716	PROB	3.034	n/a	n/a	-999	19	[8, 6, 2]	16	FR1	1	R1122E
2094.634	3.05	2067749	PROB	3.05	n/a	n/a	-999	19	[4, 2, 9]	15	FR1	1	R1122E
2097.684	3.151	2070799	PROB	3.151	n/a	n/a	-999	19	[6, 7, 2]	15	FR1	1	R1122E
2100.835	2.822	2073950	PROB	2.822	n/a	n/a	-999	19	[8, 5, 4]	17	FR1	1	R1122E
2103.657	0.012	2076772	STOP	n/a	n/a	n/a	-999	19	[-999, -999, -999]	n/a	FR1	1	R1122E
2103.669	1.134	2076784	DISTRACT_END	n/a	n/a	n/a	-999	19	[0, 0, 0]	n/a	FR1	1	R1122E
2104.803	2.02	2077918	REC_START	n/a	n/a	n/a	-999	19	[0, 0, 0]	n/a	FR1	1	R1122E
2106.823	2.222	2079938	REC_WORD	2.222	n/a	HOOF	-999	19	[0, 0, 0]	n/a	FR1	1	R1122E
2109.045	17.353	2082159	REC_WORD	17.353	n/a	SHIELD	-999	19	[0, 0, 0]	n/a	FR1	1	R1122E
2126.398	8.415	2099511	REC_WORD	8.415	n/a	LAWN	-999	19	[0, 0, 0]	n/a	FR1	1	R1122E
2134.813	10.08	2107926	REC_END	n/a	n/a	n/a	-999	19	[0, 0, 0]	n/a	FR1	1	R1122E
2144.893	0.0	2118005	COUNTDOWN_START	n/a	n/a	n/a	-999	20	[0, 0, 0]	n/a	FR1	1	R1122E
2144.893	10.428	2118005	TRIAL	n/a	n/a	n/a	-999	20	[0, 0, 0]	n/a	FR1	1	R1122E
2155.321	0.007	2128432	COUNTDOWN_END	n/a	n/a	n/a	-999	20	[0, 0, 0]	n/a	FR1	1	R1122E
2155.328	2.584	2128439	ORIENT	n/a	n/a	n/a	-999	20	[0, 0, 0]	n/a	FR1	1	R1122E
2157.912	2.55	2131023	WORD	n/a	wordpools/wordpool_EN.txt	BRUSH	1	20	[0, 0, 0]	n/a	FR1	1	R1122E
2160.462	2.483	2133573	WORD	n/a	wordpools/wordpool_EN.txt	MUD	2	20	[0, 0, 0]	n/a	FR1	1	R1122E
2162.945	2.401	2136056	WORD	n/a	wordpools/wordpool_EN.txt	PHONE	3	20	[0, 0, 0]	n/a	FR1	1	R1122E
2165.346	2.534	2138457	WORD	n/a	wordpools/wordpool_EN.txt	CHALK	4	20	[0, 0, 0]	n/a	FR1	1	R1122E
2167.88	2.401	2140990	WORD	n/a	wordpools/wordpool_EN.txt	SMOKE	5	20	[0, 0, 0]	n/a	FR1	1	R1122E
2170.281	2.567	2143391	WORD	n/a	wordpools/wordpool_EN.txt	BATH	6	20	[0, 0, 0]	n/a	FR1	1	R1122E
2172.848	2.567	2145958	WORD	n/a	wordpools/wordpool_EN.txt	FOAM	7	20	[0, 0, 0]	n/a	FR1	1	R1122E
2175.415	2.384	2148525	WORD	n/a	wordpools/wordpool_EN.txt	FROG	8	20	[0, 0, 0]	n/a	FR1	1	R1122E
2177.799	2.583	2150909	WORD	n/a	wordpools/wordpool_EN.txt	STRING	9	20	[0, 0, 0]	n/a	FR1	1	R1122E
2180.382	2.6	2153492	WORD	n/a	wordpools/wordpool_EN.txt	BOARD	10	20	[0, 0, 0]	n/a	FR1	1	R1122E
2182.982	2.401	2156091	WORD	n/a	wordpools/wordpool_EN.txt	PIE	11	20	[0, 0, 0]	n/a	FR1	1	R1122E
2185.383	1.616	2158492	WORD	n/a	wordpools/wordpool_EN.txt	TOOTH	12	20	[0, 0, 0]	n/a	FR1	1	R1122E
2186.999	0.001	2160108	DISTRACT_START	n/a	n/a	n/a	-999	20	[0, 0, 0]	n/a	FR1	1	R1122E
2187.0	0.016	2160109	START	n/a	n/a	n/a	-999	20	[-999, -999, -999]	n/a	FR1	1	R1122E
2187.016	3.918	2160125	PROB	3.918	n/a	n/a	-999	20	[8, 4, 5]	17	FR1	1	R1122E
2190.934	3.401	2164043	PROB	3.401	n/a	n/a	-999	20	[2, 6, 5]	13	FR1	1	R1122E
2194.335	4.3	2167444	PROB	4.3	n/a	n/a	-999	20	[5, 3, 7]	15	FR1	1	R1122E
2198.635	3.068	2171743	PROB	3.068	n/a	n/a	-999	20	[2, 2, 8]	12	FR1	1	R1122E
2201.703	2.383	2174811	PROB	2.383	n/a	n/a	-999	20	[4, 1, 2]	7	FR1	1	R1122E
2204.086	2.947	2177194	PROB	2.947	n/a	n/a	-999	20	[3, 5, 6]	14	FR1	1	R1122E
2207.033	0.02	2180141	STOP	n/a	n/a	n/a	-999	20	[-999, -999, -999]	n/a	FR1	1	R1122E
2207.053	1.085	2180161	DISTRACT_END	n/a	n/a	n/a	-999	20	[0, 0, 0]	n/a	FR1	1	R1122E
2208.138	2.279	2181246	REC_START	n/a	n/a	n/a	-999	20	[0, 0, 0]	n/a	FR1	1	R1122E
2210.417	2.005	2183525	REC_WORD	2.005	n/a	BRUSH	-999	20	[0, 0, 0]	n/a	FR1	1	R1122E
2212.422	2.136	2185529	REC_WORD	2.136	n/a	FOAM	-999	20	[0, 0, 0]	n/a	FR1	1	R1122E
2214.558	23.59	2187665	REC_WORD	23.59	n/a	BATH	-999	20	[0, 0, 0]	n/a	FR1	1	R1122E
2238.148	72.823	2211254	REC_END	n/a	n/a	n/a	-999	20	[0, 0, 0]	n/a	FR1	1	R1122E
2310.971	0.0	2284072	TRIAL	n/a	n/a	n/a	-999	21	[0, 0, 0]	n/a	FR1	1	R1122E
2310.971	10.428	2284072	COUNTDOWN_START	n/a	n/a	n/a	-999	21	[0, 0, 0]	n/a	FR1	1	R1122E
2321.399	0.008	2294499	COUNTDOWN_END	n/a	n/a	n/a	-999	21	[0, 0, 0]	n/a	FR1	1	R1122E
2321.407	2.384	2294507	ORIENT	n/a	n/a	n/a	-999	21	[0, 0, 0]	n/a	FR1	1	R1122E
2323.791	2.4	2296891	WORD	n/a	wordpools/wordpool_EN.txt	POLE	1	21	[0, 0, 0]	n/a	FR1	1	R1122E
2326.191	2.501	2299291	WORD	n/a	wordpools/wordpool_EN.txt	HORSE	2	21	[0, 0, 0]	n/a	FR1	1	R1122E
2328.692	2.382	2301792	WORD	n/a	wordpools/wordpool_EN.txt	BALL	3	21	[0, 0, 0]	n/a	FR1	1	R1122E
2331.074	2.602	2304173	WORD	n/a	wordpools/wordpool_EN.txt	APE	4	21	[0, 0, 0]	n/a	FR1	1	R1122E
2333.676	2.5	2306775	WORD	n/a	wordpools/wordpool_EN.txt	CORD	5	21	[0, 0, 0]	n/a	FR1	1	R1122E
2336.176	2.601	2309275	WORD	n/a	wordpools/wordpool_EN.txt	MAP	6	21	[0, 0, 0]	n/a	FR1	1	R1122E
2338.777	2.6	2311876	WORD	n/a	wordpools/wordpool_EN.txt	MAIL	7	21	[0, 0, 0]	n/a	FR1	1	R1122E
2341.377	2.55	2314476	WORD	n/a	wordpools/wordpool_EN.txt	TOAD	8	21	[0, 0, 0]	n/a	FR1	1	R1122E
2343.927	2.484	2317026	WORD	n/a	wordpools/wordpool_EN.txt	TEETH	9	21	[0, 0, 0]	n/a	FR1	1	R1122E
2346.411	2.617	2319509	WORD	n/a	wordpools/wordpool_EN.txt	BEAR	10	21	[0, 0, 0]	n/a	FR1	1	R1122E
2349.028	2.451	2322126	WORD	n/a	wordpools/wordpool_EN.txt	CAT	11	21	[0, 0, 0]	n/a	FR1	1	R1122E
2351.479	1.617	2324577	WORD	n/a	wordpools/wordpool_EN.txt	JUDGE	12	21	[0, 0, 0]	n/a	FR1	1	R1122E
2353.096	0.001	2326194	DISTRACT_START	n/a	n/a	n/a	-999	21	[0, 0, 0]	n/a	FR1	1	R1122E
2353.097	0.016	2326195	START	n/a	n/a	n/a	-999	21	[-999, -999, -999]	n/a	FR1	1	R1122E
2353.113	3.949	2326211	PROB	3.949	n/a	n/a	-999	21	[5, 1, 8]	14	FR1	1	R1122E
2357.062	4.035	2330160	PROB	4.035	n/a	n/a	-999	21	[5, 2, 3]	10	FR1	1	R1122E
2361.097	3.118	2334194	PROB	3.118	n/a	n/a	-999	21	[7, 4, 4]	15	FR1	1	R1122E
2364.215	2.967	2337312	PROB	2.967	n/a	n/a	-999	21	[4, 2, 5]	11	FR1	1	R1122E
2367.182	3.167	2340279	PROB	3.167	n/a	n/a	-999	21	[3, 8, 6]	17	FR1	1	R1122E
2370.349	5.395	2343446	PROB	5.395	n/a	n/a	-999	21	[4, 5, 9]	18	FR1	1	R1122E
2375.744	0.006	2348840	STOP	n/a	n/a	n/a	-999	21	[-999, -999, -999]	n/a	FR1	1	R1122E
2375.75	1.151	2348846	DISTRACT_END	n/a	n/a	n/a	-999	21	[0, 0, 0]	n/a	FR1	1	R1122E
2376.901	1.564	2349997	REC_START	n/a	n/a	n/a	-999	21	[0, 0, 0]	n/a	FR1	1	R1122E
2378.465	1.272	2351561	REC_WORD	1.272	n/a	HORSE	-999	21	[0, 0, 0]	n/a	FR1	1	R1122E
2379.737	27.174	2352833	REC_WORD	27.174	n/a	POLE	-999	21	[0, 0, 0]	n/a	FR1	1	R1122E
2406.911	15.53	2380005	REC_END	n/a	n/a	n/a	-999	21	[0, 0, 0]	n/a	FR1	1	R1122E
2422.441	0.001	2395534	COUNTDOWN_START	n/a	n/a	n/a	-999	22	[0, 0, 0]	n/a	FR1	1	R1122E
2422.442	10.427	2395535	TRIAL	n/a	n/a	n/a	-999	22	[0, 0, 0]	n/a	FR1	1	R1122E
2432.869	0.008	2405962	COUNTDOWN_END	n/a	n/a	n/a	-999	22	[0, 0, 0]	n/a	FR1	1	R1122E
2432.877	2.433	2405970	ORIENT	n/a	n/a	n/a	-999	22	[0, 0, 0]	n/a	FR1	1	R1122E
2435.31	2.451	2408402	WORD	n/a	wordpools/wordpool_EN.txt	ROOT	1	22	[0, 0, 0]	n/a	FR1	1	R1122E
2437.761	2.6	2410853	WORD	n/a	wordpools/wordpool_EN.txt	TREE	2	22	[0, 0, 0]	n/a	FR1	1	R1122E
2440.361	2.551	2413453	WORD	n/a	wordpools/wordpool_EN.txt	POOL	3	22	[0, 0, 0]	n/a	FR1	1	R1122E
2442.912	2.484	2416004	WORD	n/a	wordpools/wordpool_EN.txt	DART	4	22	[0, 0, 0]	n/a	FR1	1	R1122E
2445.396	2.517	2418488	WORD	n/a	wordpools/wordpool_EN.txt	RICE	5	22	[0, 0, 0]	n/a	FR1	1	R1122E
2447.913	2.433	2421005	WORD	n/a	wordpools/wordpool_EN.txt	LEAF	6	22	[0, 0, 0]	n/a	FR1	1	R1122E
2450.346	2.501	2423437	WORD	n/a	wordpools/wordpool_EN.txt	OAK	7	22	[0, 0, 0]	n/a	FR1	1	R1122E
2452.847	2.5	2425938	WORD	n/a	wordpools/wordpool_EN.txt	STEM	8	22	[0, 0, 0]	n/a	FR1	1	R1122E
2455.347	2.434	2428438	WORD	n/a	wordpools/wordpool_EN.txt	SEED	9	22	[0, 0, 0]	n/a	FR1	1	R1122E
2457.781	2.45	2430872	WORD	n/a	wordpools/wordpool_EN.txt	LAMB	10	22	[0, 0, 0]	n/a	FR1	1	R1122E
2460.231	2.451	2433322	WORD	n/a	wordpools/wordpool_EN.txt	MUG	11	22	[0, 0, 0]	n/a	FR1	1	R1122E
2462.682	1.617	2435773	WORD	n/a	wordpools/wordpool_EN.txt	TEA	12	22	[0, 0, 0]	n/a	FR1	1	R1122E
2464.299	0.0	2437390	DISTRACT_START	n/a	n/a	n/a	-999	22	[0, 0, 0]	n/a	FR1	1	R1122E
2464.299	0.017	2437390	START	n/a	n/a	n/a	-999	22	[-999, -999, -999]	n/a	FR1	1	R1122E
2464.316	3.817	2437407	PROB	3.817	n/a	n/a	-999	22	[3, 6, 3]	12	FR1	1	R1122E
2468.133	4.534	2441223	PROB	4.534	n/a	n/a	-999	22	[5, 3, 9]	17	FR1	1	R1122E
2472.667	3.484	2445757	PROB	3.484	n/a	n/a	-999	22	[7, 1, 9]	17	FR1	1	R1122E
2476.151	2.7	2449241	PROB	2.7	n/a	n/a	-999	22	[2, 1, 5]	8	FR1	1	R1122E
2478.851	3.117	2451941	PROB	3.117	n/a	n/a	-999	22	[9, 6, 3]	18	FR1	1	R1122E
2481.968	3.062	2455057	PROB	3.062	n/a	n/a	-999	22	[8, 3, 3]	14	FR1	1	R1122E
2485.03	0.021	2458119	STOP	n/a	n/a	n/a	-999	22	[-999, -999, -999]	n/a	FR1	1	R1122E
2485.051	1.052	2458140	DISTRACT_END	n/a	n/a	n/a	-999	22	[0, 0, 0]	n/a	FR1	1	R1122E
2486.103	1.623	2459192	REC_START	n/a	n/a	n/a	-999	22	[0, 0, 0]	n/a	FR1	1	R1122E
2487.726	1.533	2460815	REC_WORD	1.533	n/a	OAK	-999	22	[0, 0, 0]	n/a	FR1	1	R1122E
2489.259	1.662	2462348	REC_WORD	1.662	n/a	TREE	-999	22	[0, 0, 0]	n/a	FR1	1	R1122E
2490.921	1.602	2464010	REC_WORD	1.602	n/a	LEAF	-999	22	[0, 0, 0]	n/a	FR1	1	R1122E
2492.523	1.648	2465612	REC_WORD	1.648	n/a	STEM	-999	22	[0, 0, 0]	n/a	FR1	1	R1122E
2494.171	1.91	2467260	REC_WORD	1.91	n/a	ROOT	-999	22	[0, 0, 0]	n/a	FR1	1	R1122E
2496.081	2.725	2469169	REC_WORD	2.725	n/a	POOL	-999	22	[0, 0, 0]	n/a	FR1	1	R1122E
2498.806	1.971	2471894	REC_WORD	1.971	n/a	MUG	-999	22	[0, 0, 0]	n/a	FR1	1	R1122E
2500.777	15.342	2473865	REC_WORD	15.342	n/a	TEA	-999	22	[0, 0, 0]	n/a	FR1	1	R1122E
2516.119	18.542	2489206	REC_END	n/a	n/a	n/a	-999	22	[0, 0, 0]	n/a	FR1	1	R1122E
2534.661	0.0	2507747	COUNTDOWN_START	n/a	n/a	n/a	-999	23	[0, 0, 0]	n/a	FR1	1	R1122E
2534.661	10.428	2507747	TRIAL	n/a	n/a	n/a	-999	23	[0, 0, 0]	n/a	FR1	1	R1122E
2545.089	0.007	2518174	COUNTDOWN_END	n/a	n/a	n/a	-999	23	[0, 0, 0]	n/a	FR1	1	R1122E
2545.096	2.467	2518181	ORIENT	n/a	n/a	n/a	-999	23	[0, 0, 0]	n/a	FR1	1	R1122E
2547.563	2.601	2520648	WORD	n/a	wordpools/wordpool_EN.txt	NEST	1	23	[0, 0, 0]	n/a	FR1	1	R1122E
2550.164	2.517	2523249	WORD	n/a	wordpools/wordpool_EN.txt	CAKE	2	23	[0, 0, 0]	n/a	FR1	1	R1122E
2552.681	2.383	2525766	WORD	n/a	wordpools/wordpool_EN.txt	CHEEK	3	23	[0, 0, 0]	n/a	FR1	1	R1122E
2555.064	2.601	2528148	WORD	n/a	wordpools/wordpool_EN.txt	FACE	4	23	[0, 0, 0]	n/a	FR1	1	R1122E
2557.665	2.434	2530749	WORD	n/a	wordpools/wordpool_EN.txt	FORK	5	23	[0, 0, 0]	n/a	FR1	1	R1122E
2560.099	2.417	2533183	WORD	n/a	wordpools/wordpool_EN.txt	CUP	6	23	[0, 0, 0]	n/a	FR1	1	R1122E
2562.516	2.417	2535600	WORD	n/a	wordpools/wordpool_EN.txt	MOOSE	7	23	[0, 0, 0]	n/a	FR1	1	R1122E
2564.933	2.384	2538017	WORD	n/a	wordpools/wordpool_EN.txt	AXE	8	23	[0, 0, 0]	n/a	FR1	1	R1122E
2567.317	2.4	2540401	WORD	n/a	wordpools/wordpool_EN.txt	TOAST	9	23	[0, 0, 0]	n/a	FR1	1	R1122E
2569.717	2.534	2542800	WORD	n/a	wordpools/wordpool_EN.txt	HEN	10	23	[0, 0, 0]	n/a	FR1	1	R1122E
2572.251	2.451	2545334	WORD	n/a	wordpools/wordpool_EN.txt	FRUIT	11	23	[0, 0, 0]	n/a	FR1	1	R1122E
2574.702	1.616	2547785	WORD	n/a	wordpools/wordpool_EN.txt	PALM	12	23	[0, 0, 0]	n/a	FR1	1	R1122E
2576.318	0.001	2549401	DISTRACT_START	n/a	n/a	n/a	-999	23	[0, 0, 0]	n/a	FR1	1	R1122E
2576.319	0.016	2549402	START	n/a	n/a	n/a	-999	23	[-999, -999, -999]	n/a	FR1	1	R1122E
2576.335	3.467	2549418	PROB	3.467	n/a	n/a	-999	23	[1, 5, 9]	15	FR1	1	R1122E
2579.802	3.568	2552885	PROB	3.568	n/a	n/a	-999	23	[5, 7, 8]	20	FR1	1	R1122E
2583.37	4.45	2556453	PROB	4.45	n/a	n/a	-999	23	[4, 9, 5]	18	FR1	1	R1122E
2587.82	3.068	2560902	PROB	3.068	n/a	n/a	-999	23	[4, 8, 1]	13	FR1	1	R1122E
2590.888	2.5	2563970	PROB	2.5	n/a	n/a	-999	23	[2, 4, 5]	11	FR1	1	R1122E
2593.388	2.566	2566470	PROB	2.566	n/a	n/a	-999	23	[8, 4, 4]	20	FR1	1	R1122E
2595.954	3.391	2569036	PROB	3.391	n/a	n/a	-999	23	[8, 7, 2]	17	FR1	1	R1122E
2599.345	0.011	2572426	STOP	n/a	n/a	n/a	-999	23	[-999, -999, -999]	n/a	FR1	1	R1122E
2599.356	1.034	2572437	DISTRACT_END	n/a	n/a	n/a	-999	23	[0, 0, 0]	n/a	FR1	1	R1122E
2600.39	1.646	2573471	REC_START	n/a	n/a	n/a	-999	23	[0, 0, 0]	n/a	FR1	1	R1122E
2602.036	2.182	2575117	REC_WORD	2.182	n/a	NEST	-999	23	[0, 0, 0]	n/a	FR1	1	R1122E
2604.218	6.865	2577299	REC_WORD	6.865	n/a	HEN	-999	23	[0, 0, 0]	n/a	FR1	1	R1122E
2611.083	3.636	2584164	REC_WORD	3.636	n/a	CHEEK	-999	23	[0, 0, 0]	n/a	FR1	1	R1122E
2614.719	1.815	2587799	REC_WORD	1.815	n/a	FACE	-999	23	[0, 0, 0]	n/a	FR1	1	R1122E
2616.534	13.867	2589614	REC_WORD	13.867	n/a	CAKE	-999	23	[0, 0, 0]	n/a	FR1	1	R1122E
2630.401	2.911	2603480	REC_END	n/a	n/a	n/a	-999	23	[0, 0, 0]	n/a	FR1	1	R1122E
2633.312	0.0	2606391	TRIAL	n/a	n/a	n/a	-999	24	[0, 0, 0]	n/a	FR1	1	R1122E
2633.312	10.428	2606391	COUNTDOWN_START	n/a	n/a	n/a	-999	24	[0, 0, 0]	n/a	FR1	1	R1122E
2643.74	0.007	2616818	COUNTDOWN_END	n/a	n/a	n/a	-999	24	[0, 0, 0]	n/a	FR1	1	R1122E
2643.747	2.534	2616825	ORIENT	n/a	n/a	n/a	-999	24	[0, 0, 0]	n/a	FR1	1	R1122E
2646.281	2.4	2619359	WORD	n/a	wordpools/wordpool_EN.txt	GLOVE	1	24	[0, 0, 0]	n/a	FR1	1	R1122E
2648.681	2.584	2621759	WORD	n/a	wordpools/wordpool_EN.txt	PIPE	2	24	[0, 0, 0]	n/a	FR1	1	R1122E
2651.265	2.434	2624343	WORD	n/a	wordpools/wordpool_EN.txt	FAN	3	24	[0, 0, 0]	n/a	FR1	1	R1122E
2653.699	2.484	2626777	WORD	n/a	wordpools/wordpool_EN.txt	PURSE	4	24	[0, 0, 0]	n/a	FR1	1	R1122E
2656.183	2.533	2629261	WORD	n/a	wordpools/wordpool_EN.txt	BAND	5	24	[0, 0, 0]	n/a	FR1	1	R1122E
2658.716	2.384	2631793	WORD	n/a	wordpools/wordpool_EN.txt	PIN	6	24	[0, 0, 0]	n/a	FR1	1	R1122E
2661.1	2.634	2634177	WORD	n/a	wordpools/wordpool_EN.txt	WAND	7	24	[0, 0, 0]	n/a	FR1	1	R1122E
2663.734	2.517	2636811	WORD	n/a	wordpools/wordpool_EN.txt	TOOL	8	24	[0, 0, 0]	n/a	FR1	1	R1122E
2666.251	2.417	2639328	WORD	n/a	wordpools/wordpool_EN.txt	THUMB	9	24	[0, 0, 0]	n/a	FR1	1	R1122E
2668.668	2.534	2641745	WORD	n/a	wordpools/wordpool_EN.txt	YARD	10	24	[0, 0, 0]	n/a	FR1	1	R1122E
2671.202	2.617	2644279	WORD	n/a	wordpools/wordpool_EN.txt	VEST	11	24	[0, 0, 0]	n/a	FR1	1	R1122E
2673.819	1.617	2646895	WORD	n/a	wordpools/wordpool_EN.txt	DESK	12	24	[0, 0, 0]	n/a	FR1	1	R1122E
2675.436	0.001	2648512	DISTRACT_START	n/a	n/a	n/a	-999	24	[0, 0, 0]	n/a	FR1	1	R1122E
2675.437	0.016	2648513	START	n/a	n/a	n/a	-999	24	[-999, -999, -999]	n/a	FR1	1	R1122E
2675.453	3.234	2648529	PROB	3.234	n/a	n/a	-999	24	[1, 2, 6]	9	FR1	1	R1122E
2678.687	2.95	2651763	PROB	2.95	n/a	n/a	-999	24	[5, 2, 5]	12	FR1	1	R1122E
2681.637	2.634	2654713	PROB	2.634	n/a	n/a	-999	24	[8, 4, 1]	13	FR1	1	R1122E
2684.271	3.217	2657347	PROB	3.217	n/a	n/a	-999	24	[4, 7, 3]	14	FR1	1	R1122E
2687.488	2.701	2660564	PROB	2.701	n/a	n/a	-999	24	[2, 7, 5]	14	FR1	1	R1122E
2690.189	2.483	2663264	PROB	2.483	n/a	n/a	-999	24	[9, 1, 1]	11	FR1	1	R1122E
2692.672	3.999	2665747	PROB	3.999	n/a	n/a	-999	24	[2, 7, 1]	10	FR1	1	R1122E
2696.671	0.019	2669746	STOP	n/a	n/a	n/a	-999	24	[-999, -999, -999]	n/a	FR1	1	R1122E
2696.69	1.117	2669765	DISTRACT_END	n/a	n/a	n/a	-999	24	[0, 0, 0]	n/a	FR1	1	R1122E
2697.807	1.745	2670882	REC_START	n/a	n/a	n/a	-999	24	[0, 0, 0]	n/a	FR1	1	R1122E
2699.552	1.149	2672627	REC_WORD	1.149	n/a	BAND	-999	24	[0, 0, 0]	n/a	FR1	1	R1122E
2700.701	1.852	2673776	REC_WORD	1.852	n/a	THUMB	-999	24	[0, 0, 0]	n/a	FR1	1	R1122E
2702.553	2.176	2675627	REC_WORD	2.176	n/a	GLOVE	-999	24	[0, 0, 0]	n/a	FR1	1	R1122E
2704.729	23.096	2677803	REC_WORD	23.096	n/a	TOOL	-999	24	[0, 0, 0]	n/a	FR1	1	R1122E
2727.825	35.175	2700898	REC_END	n/a	n/a	n/a	-999	24	[0, 0, 0]	n/a	FR1	1	R1122E
2763.0	0.001	2736070	COUNTDOWN_START	n/a	n/a	n/a	-999	25	[0, 0, 0]	n/a	FR1	1	R1122E
2763.001	10.427	2736071	TRIAL	n/a	n/a	n/a	-999	25	[0, 0, 0]	n/a	FR1	1	R1122E
2773.428	0.009	2746498	COUNTDOWN_END	n/a	n/a	n/a	-999	25	[0, 0, 0]	n/a	FR1	1	R1122E
2773.437	2.483	2746507	ORIENT	n/a	n/a	n/a	-999	25	[0, 0, 0]	n/a	FR1	1	R1122E
2775.92	2.4	2748990	WORD	n/a	wordpools/wordpool_EN.txt	WOLF	1	25	[0, 0, 0]	n/a	FR1	1	R1122E
2778.32	2.368	2751389	WORD	n/a	wordpools/wordpool_EN.txt	SHEEP	2	25	[0, 0, 0]	n/a	FR1	1	R1122E
2780.688	2.534	2753757	WORD	n/a	wordpools/wordpool_EN.txt	RUG	3	25	[0, 0, 0]	n/a	FR1	1	R1122E
2783.222	2.567	2756291	WORD	n/a	wordpools/wordpool_EN.txt	SPARK	4	25	[0, 0, 0]	n/a	FR1	1	R1122E
2785.789	2.567	2758858	WORD	n/a	wordpools/wordpool_EN.txt	SUN	5	25	[0, 0, 0]	n/a	FR1	1	R1122E
2788.356	2.433	2761425	WORD	n/a	wordpools/wordpool_EN.txt	CONE	6	25	[0, 0, 0]	n/a	FR1	1	R1122E
2790.789	2.568	2763858	WORD	n/a	wordpools/wordpool_EN.txt	ICE	7	25	[0, 0, 0]	n/a	FR1	1	R1122E
2793.357	2.616	2766425	WORD	n/a	wordpools/wordpool_EN.txt	WHALE	8	25	[0, 0, 0]	n/a	FR1	1	R1122E
2795.973	2.385	2769041	WORD	n/a	wordpools/wordpool_EN.txt	NAIL	9	25	[0, 0, 0]	n/a	FR1	1	R1122E
2798.358	2.483	2771426	WORD	n/a	wordpools/wordpool_EN.txt	CLIFF	10	25	[0, 0, 0]	n/a	FR1	1	R1122E
2800.841	2.567	2773909	WORD	n/a	wordpools/wordpool_EN.txt	JEEP	11	25	[0, 0, 0]	n/a	FR1	1	R1122E
2803.408	1.616	2776476	WORD	n/a	wordpools/wordpool_EN.txt	CROW	12	25	[0, 0, 0]	n/a	FR1	1	R1122E
2805.024	0.001	2778092	DISTRACT_START	n/a	n/a	n/a	-999	25	[0, 0, 0]	n/a	FR1	1	R1122E
2805.025	0.016	2778093	START	n/a	n/a	n/a	-999	25	[-999, -999, -999]	n/a	FR1	1	R1122E
2805.041	3.135	2778109	PROB	3.135	n/a	n/a	-999	25	[9, 9, 9]	27	FR1	1	R1122E
2808.176	4.217	2781243	PROB	4.217	n/a	n/a	-999	25	[1, 4, 8]	13	FR1	1	R1122E
2812.393	3.051	2785460	PROB	3.051	n/a	n/a	-999	25	[9, 2, 5]	16	FR1	1	R1122E
2815.444	3.566	2788511	PROB	3.566	n/a	n/a	-999	25	[4, 8, 9]	21	FR1	1	R1122E
2819.01	2.868	2792077	PROB	2.868	n/a	n/a	-999	25	[4, 4, 7]	15	FR1	1	R1122E
2821.878	2.701	2794944	PROB	2.701	n/a	n/a	-999	25	[7, 1, 7]	15	FR1	1	R1122E
2824.579	2.806	2797645	PROB	2.806	n/a	n/a	-999	25	[6, 4, 3]	13	FR1	1	R1122E
2827.385	0.011	2800451	STOP	n/a	n/a	n/a	-999	25	[-999, -999, -999]	n/a	FR1	1	R1122E
2827.396	1.051	2800462	DISTRACT_END	n/a	n/a	n/a	-999	25	[0, 0, 0]	n/a	FR1	1	R1122E
2828.447	2.247	2801513	REC_START	n/a	n/a	n/a	-999	25	[0, 0, 0]	n/a	FR1	1	R1122E
2830.694	1.47	2803760	REC_WORD	1.47	n/a	WOLF	-999	25	[0, 0, 0]	n/a	FR1	1	R1122E
2832.164	26.293	2805230	REC_WORD	26.293	n/a	SHEEP	-999	25	[0, 0, 0]	n/a	FR1	1	R1122E
2858.457	11.73	2831521	REC_END	n/a	n/a	n/a	-999	25	[0, 0, 0]	n/a	FR1	1	R1122E
2870.187	0.0	-1	SESS_END	n/a	n/a	n/a	-999	25	[0, 0, 0]	n/a	FR1	1	R1122E
