onset	duration	sample	trial_type	response_time	stim_file	item_name	serialpos	list	test	answer	experiment	session	subject
0.0	35.025	7742	SESS_START	n/a	n/a	n/a	-999	-999	[0, 0, 0]	n/a	FR1	0	R1128E
35.025	10.428	42764	COUNTDOWN_START	n/a	n/a	n/a	-999	-999	[0, 0, 0]	n/a	FR1	0	R1128E
45.453	3.707	53192	COUNTDOWN_END	n/a	n/a	n/a	-999	-999	[0, 0, 0]	n/a	FR1	0	R1128E
49.16	2.467	56898	PRACTICE_WORD	n/a	n/a	RING	1	-1	[0, 0, 0]	n/a	FR1	0	R1128E
51.627	2.451	59365	PRACTICE_WORD	n/a	n/a	WAGON	2	-1	[0, 0, 0]	n/a	FR1	0	R1128E
54.078	2.533	61816	PRACTICE_WORD	n/a	n/a	ATTIC	3	-1	[0, 0, 0]	n/a	FR1	0	R1128E
56.611	2.385	64349	PRACTICE_WORD	n/a	n/a	FLOOD	4	-1	[0, 0, 0]	n/a	FR1	0	R1128E
58.996	2.549	66734	PRACTICE_WORD	n/a	n/a	IRON	5	-1	[0, 0, 0]	n/a	FR1	0	R1128E
61.545	2.468	69283	PRACTICE_WORD	n/a	n/a	BEAM	6	-1	[0, 0, 0]	n/a	FR1	0	R1128E
64.013	2.6	71750	PRACTICE_WORD	n/a	n/a	WATCH	7	-1	[0, 0, 0]	n/a	FR1	0	R1128E
66.613	2.551	74350	PRACTICE_WORD	n/a	n/a	CAMEL	8	-1	[0, 0, 0]	n/a	FR1	0	R1128E
69.164	2.583	76901	PRACTICE_WORD	n/a	n/a	COTTON	9	-1	[0, 0, 0]	n/a	FR1	0	R1128E
71.747	2.617	79484	PRACTICE_WORD	n/a	n/a	CHEST	10	-1	[0, 0, 0]	n/a	FR1	0	R1128E
74.364	2.502	82101	PRACTICE_WORD	n/a	n/a	RHINO	11	-1	[0, 0, 0]	n/a	FR1	0	R1128E
76.866	1.615	84603	PRACTICE_WORD	n/a	n/a	TONGUE	12	-1	[0, 0, 0]	n/a	FR1	0	R1128E
78.481	0.001	86217	PRACTICE_DISTRACT_START	n/a	n/a	n/a	-999	-1	[0, 0, 0]	n/a	FR1	0	R1128E
78.482	0.016	86218	START	n/a	n/a	n/a	-999	-1	[-999, -999, -999]	n/a	FR1	0	R1128E
78.498	5.652	86234	PROB	5.652	n/a	n/a	-999	-1	[7, 8, 9]	24	FR1	0	R1128E
84.15	3.117	91886	PROB	3.117	n/a	n/a	-999	-1	[7, 5, 5]	17	FR1	0	R1128E
87.267	3.001	95003	PROB	3.001	n/a	n/a	-999	-1	[1, 9, 8]	18	FR1	0	R1128E
90.268	2.834	98004	PROB	2.834	n/a	n/a	-999	-1	[7, 7, 3]	17	FR1	0	R1128E
93.102	3.416	100837	PROB	3.416	n/a	n/a	-999	-1	[4, 3, 8]	15	FR1	0	R1128E
96.518	3.222	104253	PROB	3.222	n/a	n/a	-999	-1	[7, 2, 4]	13	FR1	0	R1128E
99.74	0.012	107475	STOP	n/a	n/a	n/a	-999	-1	[-999, -999, -999]	n/a	FR1	0	R1128E
99.752	0.668	107487	PRACTICE_DISTRACT_END	n/a	n/a	n/a	-999	-1	[0, 0, 0]	n/a	FR1	0	R1128E
100.42	30.516	108155	PRACTICE_REC_START	n/a	n/a	n/a	-999	-1	[0, 0, 0]	n/a	FR1	0	R1128E
130.936	80.153	138669	PRACTICE_REC_END	n/a	n/a	n/a	-999	-1	[0, 0, 0]	n/a	FR1	0	R1128E
211.089	0.0	218816	COUNTDOWN_START	n/a	n/a	n/a	-999	1	[0, 0, 0]	n/a	FR1	0	R1128E
211.089	10.428	218816	TRIAL	n/a	n/a	n/a	-999	1	[0, 0, 0]	n/a	FR1	0	R1128E
221.517	0.006	229244	COUNTDOWN_END	n/a	n/a	n/a	-999	1	[0, 0, 0]	n/a	FR1	0	R1128E
221.523	2.368	229250	ORIENT	n/a	n/a	n/a	-999	1	[0, 0, 0]	n/a	FR1	0	R1128E
223.891	2.5	231617	WORD	n/a	wordpools/wordpool_EN.txt	TREE	1	1	[0, 0, 0]	n/a	FR1	0	R1128E
226.391	2.518	234117	WORD	n/a	wordpools/wordpool_EN.txt	VINE	2	1	[0, 0, 0]	n/a	FR1	0	R1128E
228.909	2.384	236635	WORD	n/a	wordpools/wordpool_EN.txt	MILK	3	1	[0, 0, 0]	n/a	FR1	0	R1128E
231.293	2.517	239019	WORD	n/a	wordpools/wordpool_EN.txt	WHEEL	4	1	[0, 0, 0]	n/a	FR1	0	R1128E
233.81	2.599	241536	WORD	n/a	wordpools/wordpool_EN.txt	STEM	5	1	[0, 0, 0]	n/a	FR1	0	R1128E
236.409	2.452	244135	WORD	n/a	wordpools/wordpool_EN.txt	CONE	6	1	[0, 0, 0]	n/a	FR1	0	R1128E
238.861	2.384	246586	WORD	n/a	wordpools/wordpool_EN.txt	ELF	7	1	[0, 0, 0]	n/a	FR1	0	R1128E
241.245	2.499	248970	WORD	n/a	wordpools/wordpool_EN.txt	SEED	8	1	[0, 0, 0]	n/a	FR1	0	R1128E
243.744	2.468	251469	WORD	n/a	wordpools/wordpool_EN.txt	THUMB	9	1	[0, 0, 0]	n/a	FR1	0	R1128E
246.212	2.6	253937	WORD	n/a	wordpools/wordpool_EN.txt	BOOT	10	1	[0, 0, 0]	n/a	FR1	0	R1128E
248.812	2.401	256537	WORD	n/a	wordpools/wordpool_EN.txt	WORM	11	1	[0, 0, 0]	n/a	FR1	0	R1128E
251.213	1.617	258938	WORD	n/a	wordpools/wordpool_EN.txt	COW	12	1	[0, 0, 0]	n/a	FR1	0	R1128E
252.83	0.001	260554	DISTRACT_START	n/a	n/a	n/a	-999	1	[0, 0, 0]	n/a	FR1	0	R1128E
252.831	0.016	260555	START	n/a	n/a	n/a	-999	1	[-999, -999, -999]	n/a	FR1	0	R1128E
252.847	3.384	260571	PROB	3.384	n/a	n/a	-999	1	[1, 9, 4]	14	FR1	0	R1128E
256.231	3.216	263955	PROB	3.216	n/a	n/a	-999	1	[1, 6, 7]	14	FR1	0	R1128E
259.447	3.0	267171	PROB	3.0	n/a	n/a	-999	1	[9, 9, 1]	19	FR1	0	R1128E
262.447	3.968	270171	PROB	3.968	n/a	n/a	-999	1	[7, 8, 9]	23	FR1	0	R1128E
266.415	3.435	274139	PROB	3.435	n/a	n/a	-999	1	[7, 1, 9]	17	FR1	0	R1128E
269.85	3.952	277573	PROB	3.952	n/a	n/a	-999	1	[9, 2, 6]	17	FR1	0	R1128E
273.802	0.015	281525	STOP	n/a	n/a	n/a	-999	1	[-999, -999, -999]	n/a	FR1	0	R1128E
273.817	1.156	281540	DISTRACT_END	n/a	n/a	n/a	-999	1	[0, 0, 0]	n/a	FR1	0	R1128E
274.973	1.081	282696	REC_START	n/a	n/a	n/a	-999	1	[0, 0, 0]	n/a	FR1	0	R1128E
276.054	0.903	283777	REC_WORD	0.903	n/a	TREE	1	1	[0, 0, 0]	n/a	FR1	0	R1128E
276.957	2.12	284680	REC_WORD	2.12	n/a	VINE	2	1	[0, 0, 0]	n/a	FR1	0	R1128E
279.077	1.898	286800	REC_WORD	1.898	n/a	COW	12	1	[0, 0, 0]	n/a	FR1	0	R1128E
280.975	4.008	288698	REC_WORD	4.008	n/a	SEED	8	1	[0, 0, 0]	n/a	FR1	0	R1128E
284.983	2.187	292705	REC_WORD	2.187	n/a	THUMB	9	1	[0, 0, 0]	n/a	FR1	0	R1128E
287.17	5.514	294892	REC_WORD	5.514	n/a	VINE	2	1	[0, 0, 0]	n/a	FR1	0	R1128E
292.684	12.292	300406	REC_WORD	12.292	n/a	CONE	6	1	[0, 0, 0]	n/a	FR1	0	R1128E
304.976	2.529	312697	REC_END	n/a	n/a	n/a	-999	1	[0, 0, 0]	n/a	FR1	0	R1128E
307.505	0.0	315226	TRIAL	n/a	n/a	n/a	-999	2	[0, 0, 0]	n/a	FR1	0	R1128E
307.505	10.428	315226	COUNTDOWN_START	n/a	n/a	n/a	-999	2	[0, 0, 0]	n/a	FR1	0	R1128E
317.933	0.008	325653	COUNTDOWN_END	n/a	n/a	n/a	-999	2	[0, 0, 0]	n/a	FR1	0	R1128E
317.941	2.416	325661	ORIENT	n/a	n/a	n/a	-999	2	[0, 0, 0]	n/a	FR1	0	R1128E
320.357	2.452	328077	WORD	n/a	wordpools/wordpool_EN.txt	LOCK	1	2	[0, 0, 0]	n/a	FR1	0	R1128E
322.809	2.484	330529	WORD	n/a	wordpools/wordpool_EN.txt	FOG	2	2	[0, 0, 0]	n/a	FR1	0	R1128E
325.293	2.416	333012	WORD	n/a	wordpools/wordpool_EN.txt	BRIDGE	3	2	[0, 0, 0]	n/a	FR1	0	R1128E
327.709	2.601	335428	WORD	n/a	wordpools/wordpool_EN.txt	ARK	4	2	[0, 0, 0]	n/a	FR1	0	R1128E
330.31	2.601	338029	WORD	n/a	wordpools/wordpool_EN.txt	HEART	5	2	[0, 0, 0]	n/a	FR1	0	R1128E
332.911	2.599	340630	WORD	n/a	wordpools/wordpool_EN.txt	STAIR	6	2	[0, 0, 0]	n/a	FR1	0	R1128E
335.51	2.535	343229	WORD	n/a	wordpools/wordpool_EN.txt	RAIN	7	2	[0, 0, 0]	n/a	FR1	0	R1128E
338.045	2.583	345764	WORD	n/a	wordpools/wordpool_EN.txt	CLOUD	8	2	[0, 0, 0]	n/a	FR1	0	R1128E
340.628	2.534	348346	WORD	n/a	wordpools/wordpool_EN.txt	FOAM	9	2	[0, 0, 0]	n/a	FR1	0	R1128E
343.162	2.55	350880	WORD	n/a	wordpools/wordpool_EN.txt	SAIL	10	2	[0, 0, 0]	n/a	FR1	0	R1128E
345.712	2.385	353430	WORD	n/a	wordpools/wordpool_EN.txt	CAR	11	2	[0, 0, 0]	n/a	FR1	0	R1128E
348.097	1.616	355815	WORD	n/a	wordpools/wordpool_EN.txt	STORM	12	2	[0, 0, 0]	n/a	FR1	0	R1128E
349.713	0.0	357431	DISTRACT_START	n/a	n/a	n/a	-999	2	[0, 0, 0]	n/a	FR1	0	R1128E
349.713	0.016	357431	START	n/a	n/a	n/a	-999	2	[-999, -999, -999]	n/a	FR1	0	R1128E
349.729	3.469	357447	PROB	3.469	n/a	n/a	-999	2	[8, 1, 7]	16	FR1	0	R1128E
353.198	2.133	360916	PROB	2.133	n/a	n/a	-999	2	[5, 1, 5]	11	FR1	0	R1128E
355.331	6.901	363048	PROB	6.901	n/a	n/a	-999	2	[9, 8, 4]	21	FR1	0	R1128E
362.232	4.15	369949	PROB	4.15	n/a	n/a	-999	2	[5, 1, 8]	14	FR1	0	R1128E
366.382	3.067	374099	PROB	3.067	n/a	n/a	-999	2	[9, 3, 4]	16	FR1	0	R1128E
369.449	3.269	377165	PROB	3.269	n/a	n/a	-999	2	[2, 7, 8]	17	FR1	0	R1128E
372.718	0.015	380434	STOP	n/a	n/a	n/a	-999	2	[-999, -999, -999]	n/a	FR1	0	R1128E
372.733	1.202	380449	DISTRACT_END	n/a	n/a	n/a	-999	2	[0, 0, 0]	n/a	FR1	0	R1128E
373.935	1.106	381651	REC_START	n/a	n/a	n/a	-999	2	[0, 0, 0]	n/a	FR1	0	R1128E
375.041	1.018	382757	REC_WORD	1.018	n/a	LOCK	1	2	[0, 0, 0]	n/a	FR1	0	R1128E
376.059	0.741	383775	REC_WORD	0.741	n/a	FOG	2	2	[0, 0, 0]	n/a	FR1	0	R1128E
376.8	0.849	384516	REC_WORD	0.849	n/a	STORM	12	2	[0, 0, 0]	n/a	FR1	0	R1128E
377.649	2.7	385365	REC_WORD	2.7	n/a	HEART	5	2	[0, 0, 0]	n/a	FR1	0	R1128E
380.349	2.376	388065	REC_WORD	2.376	n/a	BRIDGE	3	2	[0, 0, 0]	n/a	FR1	0	R1128E
382.725	4.781	390441	REC_WORD	4.781	n/a	KEY	-999	2	[0, 0, 0]	n/a	FR1	0	R1128E
387.506	2.515	395221	REC_WORD	2.515	n/a	CLOUD	8	2	[0, 0, 0]	n/a	FR1	0	R1128E
390.021	13.927	397736	REC_WORD	13.927	n/a	CAR	11	2	[0, 0, 0]	n/a	FR1	0	R1128E
403.948	1.975	411662	REC_END	n/a	n/a	n/a	-999	2	[0, 0, 0]	n/a	FR1	0	R1128E
405.923	0.001	413637	COUNTDOWN_START	n/a	n/a	n/a	-999	3	[0, 0, 0]	n/a	FR1	0	R1128E
405.924	10.427	413638	TRIAL	n/a	n/a	n/a	-999	3	[0, 0, 0]	n/a	FR1	0	R1128E
416.351	0.007	424064	COUNTDOWN_END	n/a	n/a	n/a	-999	3	[0, 0, 0]	n/a	FR1	0	R1128E
416.358	2.4	424071	ORIENT	n/a	n/a	n/a	-999	3	[0, 0, 0]	n/a	FR1	0	R1128E
418.758	2.401	426471	WORD	n/a	wordpools/wordpool_EN.txt	FORT	1	3	[0, 0, 0]	n/a	FR1	0	R1128E
421.159	2.5	428872	WORD	n/a	wordpools/wordpool_EN.txt	MOON	2	3	[0, 0, 0]	n/a	FR1	0	R1128E
423.659	2.451	431372	WORD	n/a	wordpools/wordpool_EN.txt	FILM	3	3	[0, 0, 0]	n/a	FR1	0	R1128E
426.11	2.5	433823	WORD	n/a	wordpools/wordpool_EN.txt	INK	4	3	[0, 0, 0]	n/a	FR1	0	R1128E
428.61	2.368	436322	WORD	n/a	wordpools/wordpool_EN.txt	POLE	5	3	[0, 0, 0]	n/a	FR1	0	R1128E
430.978	2.549	438690	WORD	n/a	wordpools/wordpool_EN.txt	JUDGE	6	3	[0, 0, 0]	n/a	FR1	0	R1128E
433.527	2.385	441239	WORD	n/a	wordpools/wordpool_EN.txt	CASH	7	3	[0, 0, 0]	n/a	FR1	0	R1128E
435.912	2.417	443624	WORD	n/a	wordpools/wordpool_EN.txt	SHEET	8	3	[0, 0, 0]	n/a	FR1	0	R1128E
438.329	2.45	446041	WORD	n/a	wordpools/wordpool_EN.txt	MAIL	9	3	[0, 0, 0]	n/a	FR1	0	R1128E
440.779	2.567	448491	WORD	n/a	wordpools/wordpool_EN.txt	NET	10	3	[0, 0, 0]	n/a	FR1	0	R1128E
443.346	2.45	451057	WORD	n/a	wordpools/wordpool_EN.txt	TOAD	11	3	[0, 0, 0]	n/a	FR1	0	R1128E
445.796	1.617	453507	WORD	n/a	wordpools/wordpool_EN.txt	PEA	12	3	[0, 0, 0]	n/a	FR1	0	R1128E
447.413	0.001	455124	DISTRACT_START	n/a	n/a	n/a	-999	3	[0, 0, 0]	n/a	FR1	0	R1128E
447.414	0.016	455125	START	n/a	n/a	n/a	-999	3	[-999, -999, -999]	n/a	FR1	0	R1128E
447.43	6.018	455141	PROB	6.018	n/a	n/a	-999	3	[9, 4, 9]	21	FR1	0	R1128E
453.448	2.0	461159	PROB	2.0	n/a	n/a	-999	3	[4, 5, 2]	11	FR1	0	R1128E
455.448	2.651	463159	PROB	2.651	n/a	n/a	-999	3	[7, 5, 3]	15	FR1	0	R1128E
458.099	2.167	465809	PROB	2.167	n/a	n/a	-999	3	[1, 6, 5]	12	FR1	0	R1128E
460.266	3.001	467976	PROB	3.001	n/a	n/a	-999	3	[9, 4, 6]	19	FR1	0	R1128E
463.267	1.634	470977	PROB	1.634	n/a	n/a	-999	3	[1, 1, 9]	11	FR1	0	R1128E
464.901	2.233	472611	PROB	2.233	n/a	n/a	-999	3	[5, 8, 5]	18	FR1	0	R1128E
467.134	4.336	474844	PROB	4.336	n/a	n/a	-999	3	[9, 3, 2]	1	FR1	0	R1128E
471.47	0.014	479179	STOP	n/a	n/a	n/a	-999	3	[-999, -999, -999]	n/a	FR1	0	R1128E
471.484	1.034	479193	DISTRACT_END	n/a	n/a	n/a	-999	3	[0, 0, 0]	n/a	FR1	0	R1128E
472.518	3.707	480227	REC_START	n/a	n/a	n/a	-999	3	[0, 0, 0]	n/a	FR1	0	R1128E
476.225	0.862	483934	REC_WORD	0.862	n/a	FORT	1	3	[0, 0, 0]	n/a	FR1	0	R1128E
477.087	2.204	484796	REC_WORD	2.204	n/a	INK	4	3	[0, 0, 0]	n/a	FR1	0	R1128E
479.291	4.396	487000	REC_WORD	4.396	n/a	POLE	5	3	[0, 0, 0]	n/a	FR1	0	R1128E
483.687	18.844	491396	REC_WORD	18.844	n/a	PEN	-999	3	[0, 0, 0]	n/a	FR1	0	R1128E
502.531	13.894	510238	REC_END	n/a	n/a	n/a	-999	3	[0, 0, 0]	n/a	FR1	0	R1128E
516.425	0.001	524131	COUNTDOWN_START	n/a	n/a	n/a	-999	4	[0, 0, 0]	n/a	FR1	0	R1128E
516.426	10.427	524132	TRIAL	n/a	n/a	n/a	-999	4	[0, 0, 0]	n/a	FR1	0	R1128E
526.853	0.008	534559	COUNTDOWN_END	n/a	n/a	n/a	-999	4	[0, 0, 0]	n/a	FR1	0	R1128E
526.861	2.55	534567	ORIENT	n/a	n/a	n/a	-999	4	[0, 0, 0]	n/a	FR1	0	R1128E
529.411	2.435	537116	WORD	n/a	wordpools/wordpool_EN.txt	GRAPE	1	4	[0, 0, 0]	n/a	FR1	0	R1128E
531.846	2.417	539551	WORD	n/a	wordpools/wordpool_EN.txt	STORE	2	4	[0, 0, 0]	n/a	FR1	0	R1128E
534.263	2.416	541968	WORD	n/a	wordpools/wordpool_EN.txt	PHONE	3	4	[0, 0, 0]	n/a	FR1	0	R1128E
536.679	2.501	544384	WORD	n/a	wordpools/wordpool_EN.txt	PEN	4	4	[0, 0, 0]	n/a	FR1	0	R1128E
539.18	2.483	546885	WORD	n/a	wordpools/wordpool_EN.txt	BADGE	5	4	[0, 0, 0]	n/a	FR1	0	R1128E
541.663	2.552	549368	WORD	n/a	wordpools/wordpool_EN.txt	MUG	6	4	[0, 0, 0]	n/a	FR1	0	R1128E
544.215	2.432	551919	WORD	n/a	wordpools/wordpool_EN.txt	FENCE	7	4	[0, 0, 0]	n/a	FR1	0	R1128E
546.647	2.485	554351	WORD	n/a	wordpools/wordpool_EN.txt	VAN	8	4	[0, 0, 0]	n/a	FR1	0	R1128E
549.132	2.6	556836	WORD	n/a	wordpools/wordpool_EN.txt	BOOK	9	4	[0, 0, 0]	n/a	FR1	0	R1128E
551.732	2.468	559436	WORD	n/a	wordpools/wordpool_EN.txt	DOG	10	4	[0, 0, 0]	n/a	FR1	0	R1128E
554.2	2.617	561904	WORD	n/a	wordpools/wordpool_EN.txt	JAIL	11	4	[0, 0, 0]	n/a	FR1	0	R1128E
556.817	1.616	564521	WORD	n/a	wordpools/wordpool_EN.txt	APE	12	4	[0, 0, 0]	n/a	FR1	0	R1128E
558.433	0.0	566136	DISTRACT_START	n/a	n/a	n/a	-999	4	[0, 0, 0]	n/a	FR1	0	R1128E
558.433	0.016	566136	START	n/a	n/a	n/a	-999	4	[-999, -999, -999]	n/a	FR1	0	R1128E
558.449	3.051	566152	PROB	3.051	n/a	n/a	-999	4	[7, 5, 7]	19	FR1	0	R1128E
561.5	3.117	569203	PROB	3.117	n/a	n/a	-999	4	[2, 5, 4]	11	FR1	0	R1128E
564.617	1.95	572320	PROB	1.95	n/a	n/a	-999	4	[8, 1, 2]	11	FR1	0	R1128E
566.567	2.318	574270	PROB	2.318	n/a	n/a	-999	4	[3, 1, 8]	12	FR1	0	R1128E
568.885	5.335	576588	PROB	5.335	n/a	n/a	-999	4	[7, 6, 8]	21	FR1	0	R1128E
574.22	3.583	581922	PROB	3.583	n/a	n/a	-999	4	[8, 6, 3]	17	FR1	0	R1128E
577.803	2.505	585505	PROB	2.505	n/a	n/a	-999	4	[6, 6, 5]	17	FR1	0	R1128E
580.308	0.013	588010	STOP	n/a	n/a	n/a	-999	4	[-999, -999, -999]	n/a	FR1	0	R1128E
580.321	1.066	588023	DISTRACT_END	n/a	n/a	n/a	-999	4	[0, 0, 0]	n/a	FR1	0	R1128E
581.387	1.012	589089	REC_START	n/a	n/a	n/a	-999	4	[0, 0, 0]	n/a	FR1	0	R1128E
582.399	0.662	590101	REC_WORD	0.662	n/a	GRAPE	1	4	[0, 0, 0]	n/a	FR1	0	R1128E
583.061	0.725	590763	REC_WORD	0.725	n/a	STORE	2	4	[0, 0, 0]	n/a	FR1	0	R1128E
583.786	0.834	591488	REC_WORD	0.834	n/a	FENCE	7	4	[0, 0, 0]	n/a	FR1	0	R1128E
584.62	1.977	592322	REC_WORD	1.977	n/a	VAN	8	4	[0, 0, 0]	n/a	FR1	0	R1128E
586.597	5.175	594299	REC_WORD	5.175	n/a	JAIL	11	4	[0, 0, 0]	n/a	FR1	0	R1128E
591.772	5.769	599473	REC_WORD	5.769	n/a	MUG	6	4	[0, 0, 0]	n/a	FR1	0	R1128E
597.541	10.504	605242	REC_WORD	10.504	n/a	PEN	4	4	[0, 0, 0]	n/a	FR1	0	R1128E
608.045	3.355	615745	REC_WORD	3.355	n/a	BADGE	5	4	[0, 0, 0]	n/a	FR1	0	R1128E
611.4	2.894	619100	REC_END	n/a	n/a	n/a	-999	4	[0, 0, 0]	n/a	FR1	0	R1128E
614.294	0.0	621994	COUNTDOWN_START	n/a	n/a	n/a	-999	5	[0, 0, 0]	n/a	FR1	0	R1128E
614.294	10.428	621994	TRIAL	n/a	n/a	n/a	-999	5	[0, 0, 0]	n/a	FR1	0	R1128E
624.722	0.006	632421	COUNTDOWN_END	n/a	n/a	n/a	-999	5	[0, 0, 0]	n/a	FR1	0	R1128E
624.728	2.418	632427	ORIENT	n/a	n/a	n/a	-999	5	[0, 0, 0]	n/a	FR1	0	R1128E
627.146	2.566	634845	WORD	n/a	wordpools/wordpool_EN.txt	BROOM	1	5	[0, 0, 0]	n/a	FR1	0	R1128E
629.712	2.401	637411	WORD	n/a	wordpools/wordpool_EN.txt	DRESS	2	5	[0, 0, 0]	n/a	FR1	0	R1128E
632.113	2.566	639811	WORD	n/a	wordpools/wordpool_EN.txt	OAK	3	5	[0, 0, 0]	n/a	FR1	0	R1128E
634.679	2.552	642377	WORD	n/a	wordpools/wordpool_EN.txt	ROOF	4	5	[0, 0, 0]	n/a	FR1	0	R1128E
637.231	2.416	644929	WORD	n/a	wordpools/wordpool_EN.txt	HORSE	5	5	[0, 0, 0]	n/a	FR1	0	R1128E
639.647	2.535	647345	WORD	n/a	wordpools/wordpool_EN.txt	RAKE	6	5	[0, 0, 0]	n/a	FR1	0	R1128E
642.182	2.583	649880	WORD	n/a	wordpools/wordpool_EN.txt	WHALE	7	5	[0, 0, 0]	n/a	FR1	0	R1128E
644.765	2.551	652463	WORD	n/a	wordpools/wordpool_EN.txt	DRUM	8	5	[0, 0, 0]	n/a	FR1	0	R1128E
647.316	2.551	655013	WORD	n/a	wordpools/wordpool_EN.txt	BAG	9	5	[0, 0, 0]	n/a	FR1	0	R1128E
649.867	2.532	657564	WORD	n/a	wordpools/wordpool_EN.txt	FLAG	10	5	[0, 0, 0]	n/a	FR1	0	R1128E
652.399	2.4	660096	WORD	n/a	wordpools/wordpool_EN.txt	CLOWN	11	5	[0, 0, 0]	n/a	FR1	0	R1128E
654.799	1.618	662496	WORD	n/a	wordpools/wordpool_EN.txt	PARK	12	5	[0, 0, 0]	n/a	FR1	0	R1128E
656.417	0.001	664114	DISTRACT_START	n/a	n/a	n/a	-999	5	[0, 0, 0]	n/a	FR1	0	R1128E
656.418	0.015	664115	START	n/a	n/a	n/a	-999	5	[-999, -999, -999]	n/a	FR1	0	R1128E
656.433	4.101	664130	PROB	4.101	n/a	n/a	-999	5	[2, 8, 5]	15	FR1	0	R1128E
660.534	4.251	668230	PROB	4.251	n/a	n/a	-999	5	[4, 8, 9]	21	FR1	0	R1128E
664.785	2.235	672481	PROB	2.235	n/a	n/a	-999	5	[1, 4, 2]	7	FR1	0	R1128E
667.02	2.782	674716	PROB	2.782	n/a	n/a	-999	5	[2, 8, 5]	15	FR1	0	R1128E
669.802	2.768	677498	PROB	2.768	n/a	n/a	-999	5	[2, 3, 9]	14	FR1	0	R1128E
672.57	2.284	680266	PROB	2.284	n/a	n/a	-999	5	[7, 1, 7]	15	FR1	0	R1128E
674.854	2.733	682549	PROB	2.733	n/a	n/a	-999	5	[1, 7, 6]	14	FR1	0	R1128E
677.587	0.017	685282	STOP	n/a	n/a	n/a	-999	5	[-999, -999, -999]	n/a	FR1	0	R1128E
677.604	1.05	685299	DISTRACT_END	n/a	n/a	n/a	-999	5	[0, 0, 0]	n/a	FR1	0	R1128E
678.654	1.821	686349	REC_START	n/a	n/a	n/a	-999	5	[0, 0, 0]	n/a	FR1	0	R1128E
680.475	1.736	688170	REC_WORD	1.736	n/a	BROOM	1	5	[0, 0, 0]	n/a	FR1	0	R1128E
682.211	0.927	689906	REC_WORD	0.927	n/a	FLAG	10	5	[0, 0, 0]	n/a	FR1	0	R1128E
683.138	3.271	690833	REC_WORD	3.271	n/a	BAG	9	5	[0, 0, 0]	n/a	FR1	0	R1128E
686.409	2.27	694104	REC_WORD	2.27	n/a	HORSE	5	5	[0, 0, 0]	n/a	FR1	0	R1128E
688.679	19.988	696373	REC_WORD	19.988	n/a	CLOWN	11	5	[0, 0, 0]	n/a	FR1	0	R1128E
708.667	1.859	716360	REC_END	n/a	n/a	n/a	-999	5	[0, 0, 0]	n/a	FR1	0	R1128E
710.526	0.0	718219	TRIAL	n/a	n/a	n/a	-999	6	[0, 0, 0]	n/a	FR1	0	R1128E
710.526	10.428	718219	COUNTDOWN_START	n/a	n/a	n/a	-999	6	[0, 0, 0]	n/a	FR1	0	R1128E
720.954	0.008	728646	COUNTDOWN_END	n/a	n/a	n/a	-999	6	[0, 0, 0]	n/a	FR1	0	R1128E
720.962	2.6	728654	ORIENT	n/a	n/a	n/a	-999	6	[0, 0, 0]	n/a	FR1	0	R1128E
723.562	2.501	731254	WORD	n/a	wordpools/wordpool_EN.txt	FOX	1	6	[0, 0, 0]	n/a	FR1	0	R1128E
726.063	2.583	733755	WORD	n/a	wordpools/wordpool_EN.txt	LAMB	2	6	[0, 0, 0]	n/a	FR1	0	R1128E
728.646	2.368	736338	WORD	n/a	wordpools/wordpool_EN.txt	TAIL	3	6	[0, 0, 0]	n/a	FR1	0	R1128E
731.014	2.483	738706	WORD	n/a	wordpools/wordpool_EN.txt	SPEAR	4	6	[0, 0, 0]	n/a	FR1	0	R1128E
733.497	2.501	741188	WORD	n/a	wordpools/wordpool_EN.txt	GATE	5	6	[0, 0, 0]	n/a	FR1	0	R1128E
735.998	2.4	743689	WORD	n/a	wordpools/wordpool_EN.txt	PEAR	6	6	[0, 0, 0]	n/a	FR1	0	R1128E
738.398	2.384	746089	WORD	n/a	wordpools/wordpool_EN.txt	PIT	7	6	[0, 0, 0]	n/a	FR1	0	R1128E
740.782	2.468	748473	WORD	n/a	wordpools/wordpool_EN.txt	CLIFF	8	6	[0, 0, 0]	n/a	FR1	0	R1128E
743.25	2.567	750941	WORD	n/a	wordpools/wordpool_EN.txt	CALF	9	6	[0, 0, 0]	n/a	FR1	0	R1128E
745.817	2.45	753508	WORD	n/a	wordpools/wordpool_EN.txt	ROCK	10	6	[0, 0, 0]	n/a	FR1	0	R1128E
748.267	2.45	755957	WORD	n/a	wordpools/wordpool_EN.txt	MOLE	11	6	[0, 0, 0]	n/a	FR1	0	R1128E
750.717	1.618	758407	WORD	n/a	wordpools/wordpool_EN.txt	FROG	12	6	[0, 0, 0]	n/a	FR1	0	R1128E
752.335	0.0	760025	DISTRACT_START	n/a	n/a	n/a	-999	6	[0, 0, 0]	n/a	FR1	0	R1128E
752.335	0.015	760025	START	n/a	n/a	n/a	-999	6	[-999, -999, -999]	n/a	FR1	0	R1128E
752.35	3.134	760040	PROB	3.134	n/a	n/a	-999	6	[7, 2, 3]	1	FR1	0	R1128E
755.484	6.285	763174	PROB	6.285	n/a	n/a	-999	6	[9, 8, 6]	23	FR1	0	R1128E
761.769	3.268	769458	PROB	3.268	n/a	n/a	-999	6	[6, 8, 4]	18	FR1	0	R1128E
765.037	4.383	772726	PROB	4.383	n/a	n/a	-999	6	[9, 7, 2]	18	FR1	0	R1128E
769.42	3.215	777109	PROB	3.215	n/a	n/a	-999	6	[8, 3, 7]	18	FR1	0	R1128E
772.635	0.019	780324	STOP	n/a	n/a	n/a	-999	6	[-999, -999, -999]	n/a	FR1	0	R1128E
772.654	1.068	780343	DISTRACT_END	n/a	n/a	n/a	-999	6	[0, 0, 0]	n/a	FR1	0	R1128E
773.722	2.02	781411	REC_START	n/a	n/a	n/a	-999	6	[0, 0, 0]	n/a	FR1	0	R1128E
775.742	1.765	783431	REC_WORD	1.765	n/a	FOX	1	6	[0, 0, 0]	n/a	FR1	0	R1128E
777.507	1.632	785195	REC_WORD	1.632	n/a	SHEEP	-999	6	[0, 0, 0]	n/a	FR1	0	R1128E
779.139	1.04	786827	REC_WORD	1.04	n/a	TAIL	3	6	[0, 0, 0]	n/a	FR1	0	R1128E
780.179	1.422	787867	REC_WORD	1.422	n/a	SPEAR	4	6	[0, 0, 0]	n/a	FR1	0	R1128E
781.601	5.705	789289	REC_WORD	5.705	n/a	FROG	12	6	[0, 0, 0]	n/a	FR1	0	R1128E
787.306	12.249	794994	REC_WORD	12.249	n/a	CALF	9	6	[0, 0, 0]	n/a	FR1	0	R1128E
799.555	4.176	807242	REC_WORD	4.176	n/a	LAMB	2	6	[0, 0, 0]	n/a	FR1	0	R1128E
803.731	1.812	811418	REC_END	n/a	n/a	n/a	-999	6	[0, 0, 0]	n/a	FR1	0	R1128E
805.543	0.0	813229	COUNTDOWN_START	n/a	n/a	n/a	-999	7	[0, 0, 0]	n/a	FR1	0	R1128E
805.543	10.428	813229	TRIAL	n/a	n/a	n/a	-999	7	[0, 0, 0]	n/a	FR1	0	R1128E
815.971	0.008	823657	COUNTDOWN_END	n/a	n/a	n/a	-999	7	[0, 0, 0]	n/a	FR1	0	R1128E
815.979	2.516	823665	ORIENT	n/a	n/a	n/a	-999	7	[0, 0, 0]	n/a	FR1	0	R1128E
818.495	2.385	826181	WORD	n/a	wordpools/wordpool_EN.txt	POND	1	7	[0, 0, 0]	n/a	FR1	0	R1128E
820.88	2.45	828565	WORD	n/a	wordpools/wordpool_EN.txt	HAND	2	7	[0, 0, 0]	n/a	FR1	0	R1128E
823.33	2.45	831015	WORD	n/a	wordpools/wordpool_EN.txt	SPONGE	3	7	[0, 0, 0]	n/a	FR1	0	R1128E
825.78	2.6	833465	WORD	n/a	wordpools/wordpool_EN.txt	WAVE	4	7	[0, 0, 0]	n/a	FR1	0	R1128E
828.38	2.435	836065	WORD	n/a	wordpools/wordpool_EN.txt	SHELL	5	7	[0, 0, 0]	n/a	FR1	0	R1128E
830.815	2.451	838500	WORD	n/a	wordpools/wordpool_EN.txt	EAR	6	7	[0, 0, 0]	n/a	FR1	0	R1128E
833.266	2.617	840951	WORD	n/a	wordpools/wordpool_EN.txt	BEACH	7	7	[0, 0, 0]	n/a	FR1	0	R1128E
835.883	2.499	843567	WORD	n/a	wordpools/wordpool_EN.txt	CAGE	8	7	[0, 0, 0]	n/a	FR1	0	R1128E
838.382	2.435	846066	WORD	n/a	wordpools/wordpool_EN.txt	SNAIL	9	7	[0, 0, 0]	n/a	FR1	0	R1128E
840.817	2.517	848501	WORD	n/a	wordpools/wordpool_EN.txt	NEST	10	7	[0, 0, 0]	n/a	FR1	0	R1128E
843.334	2.5	851018	WORD	n/a	wordpools/wordpool_EN.txt	BEAK	11	7	[0, 0, 0]	n/a	FR1	0	R1128E
845.834	1.616	853518	WORD	n/a	wordpools/wordpool_EN.txt	THREAD	12	7	[0, 0, 0]	n/a	FR1	0	R1128E
847.45	0.001	855134	DISTRACT_START	n/a	n/a	n/a	-999	7	[0, 0, 0]	n/a	FR1	0	R1128E
847.451	0.016	855135	START	n/a	n/a	n/a	-999	7	[-999, -999, -999]	n/a	FR1	0	R1128E
847.467	2.884	855151	PROB	2.884	n/a	n/a	-999	7	[6, 5, 3]	14	FR1	0	R1128E
850.351	3.518	858034	PROB	3.518	n/a	n/a	-999	7	[6, 7, 9]	22	FR1	0	R1128E
853.869	2.234	861552	PROB	2.234	n/a	n/a	-999	7	[2, 4, 1]	7	FR1	0	R1128E
856.103	4.117	863786	PROB	4.117	n/a	n/a	-999	7	[3, 6, 9]	18	FR1	0	R1128E
860.22	1.834	867903	PROB	1.834	n/a	n/a	-999	7	[2, 6, 6]	14	FR1	0	R1128E
862.054	1.549	869737	PROB	1.549	n/a	n/a	-999	7	[5, 2, 5]	12	FR1	0	R1128E
863.603	2.184	871285	PROB	2.184	n/a	n/a	-999	7	[1, 9, 4]	14	FR1	0	R1128E
865.787	3.887	873469	PROB	3.887	n/a	n/a	-999	7	[9, 7, 7]	23	FR1	0	R1128E
869.674	0.014	877356	STOP	n/a	n/a	n/a	-999	7	[-999, -999, -999]	n/a	FR1	0	R1128E
869.688	1.218	877370	DISTRACT_END	n/a	n/a	n/a	-999	7	[0, 0, 0]	n/a	FR1	0	R1128E
870.906	1.163	878588	REC_START	n/a	n/a	n/a	-999	7	[0, 0, 0]	n/a	FR1	0	R1128E
872.069	1.047	879751	REC_WORD	1.047	n/a	POND	1	7	[0, 0, 0]	n/a	FR1	0	R1128E
873.116	0.741	880798	REC_WORD	0.741	n/a	HAND	2	7	[0, 0, 0]	n/a	FR1	0	R1128E
873.857	1.842	881539	REC_WORD	1.842	n/a	SPONGE	3	7	[0, 0, 0]	n/a	FR1	0	R1128E
875.699	1.413	883381	REC_WORD	1.413	n/a	THREAD	12	7	[0, 0, 0]	n/a	FR1	0	R1128E
877.112	0.701	884794	REC_WORD	0.701	n/a	OCEAN	-999	7	[0, 0, 0]	n/a	FR1	0	R1128E
877.813	5.089	885494	REC_WORD	5.089	n/a	WAVE	4	7	[0, 0, 0]	n/a	FR1	0	R1128E
882.902	18.016	890583	REC_WORD	18.016	n/a	BEACH	7	7	[0, 0, 0]	n/a	FR1	0	R1128E
900.918	1.792	908598	REC_END	n/a	n/a	n/a	-999	7	[0, 0, 0]	n/a	FR1	0	R1128E
902.71	0.0	910390	TRIAL	n/a	n/a	n/a	-999	8	[0, 0, 0]	n/a	FR1	0	R1128E
902.71	10.428	910390	COUNTDOWN_START	n/a	n/a	n/a	-999	8	[0, 0, 0]	n/a	FR1	0	R1128E
913.138	0.008	920817	COUNTDOWN_END	n/a	n/a	n/a	-999	8	[0, 0, 0]	n/a	FR1	0	R1128E
913.146	2.449	920825	ORIENT	n/a	n/a	n/a	-999	8	[0, 0, 0]	n/a	FR1	0	R1128E
915.595	2.402	923274	WORD	n/a	wordpools/wordpool_EN.txt	YARD	1	8	[0, 0, 0]	n/a	FR1	0	R1128E
917.997	2.616	925676	WORD	n/a	wordpools/wordpool_EN.txt	HORN	2	8	[0, 0, 0]	n/a	FR1	0	R1128E
920.613	2.502	928292	WORD	n/a	wordpools/wordpool_EN.txt	MOOSE	3	8	[0, 0, 0]	n/a	FR1	0	R1128E
923.115	2.616	930793	WORD	n/a	wordpools/wordpool_EN.txt	GUARD	4	8	[0, 0, 0]	n/a	FR1	0	R1128E
925.731	2.435	933409	WORD	n/a	wordpools/wordpool_EN.txt	SPOON	5	8	[0, 0, 0]	n/a	FR1	0	R1128E
928.166	2.399	935844	WORD	n/a	wordpools/wordpool_EN.txt	PALM	6	8	[0, 0, 0]	n/a	FR1	0	R1128E
930.565	2.501	938243	WORD	n/a	wordpools/wordpool_EN.txt	GOAT	7	8	[0, 0, 0]	n/a	FR1	0	R1128E
933.066	2.6	940744	WORD	n/a	wordpools/wordpool_EN.txt	SINK	8	8	[0, 0, 0]	n/a	FR1	0	R1128E
935.666	2.601	943344	WORD	n/a	wordpools/wordpool_EN.txt	HAT	9	8	[0, 0, 0]	n/a	FR1	0	R1128E
938.267	2.4	945944	WORD	n/a	wordpools/wordpool_EN.txt	SMILE	10	8	[0, 0, 0]	n/a	FR1	0	R1128E
940.667	2.435	948344	WORD	n/a	wordpools/wordpool_EN.txt	HOLE	11	8	[0, 0, 0]	n/a	FR1	0	R1128E
943.102	1.615	950779	WORD	n/a	wordpools/wordpool_EN.txt	LIP	12	8	[0, 0, 0]	n/a	FR1	0	R1128E
944.717	0.001	952394	DISTRACT_START	n/a	n/a	n/a	-999	8	[0, 0, 0]	n/a	FR1	0	R1128E
944.718	0.016	952395	START	n/a	n/a	n/a	-999	8	[-999, -999, -999]	n/a	FR1	0	R1128E
944.734	3.485	952411	PROB	3.485	n/a	n/a	-999	8	[5, 1, 8]	14	FR1	0	R1128E
948.219	3.533	955896	PROB	3.533	n/a	n/a	-999	8	[6, 8, 1]	15	FR1	0	R1128E
951.752	3.118	959428	PROB	3.118	n/a	n/a	-999	8	[4, 8, 7]	19	FR1	0	R1128E
954.87	2.916	962546	PROB	2.916	n/a	n/a	-999	8	[6, 8, 6]	20	FR1	0	R1128E
957.786	1.684	965462	PROB	1.684	n/a	n/a	-999	8	[3, 1, 7]	11	FR1	0	R1128E
959.47	2.901	967146	PROB	2.901	n/a	n/a	-999	8	[4, 7, 6]	17	FR1	0	R1128E
962.371	2.741	970047	PROB	2.741	n/a	n/a	-999	8	[4, 2, 6]	12	FR1	0	R1128E
965.112	0.01	972787	STOP	n/a	n/a	n/a	-999	8	[-999, -999, -999]	n/a	FR1	0	R1128E
965.122	1.151	972797	DISTRACT_END	n/a	n/a	n/a	-999	8	[0, 0, 0]	n/a	FR1	0	R1128E
966.273	2.216	973948	REC_START	n/a	n/a	n/a	-999	8	[0, 0, 0]	n/a	FR1	0	R1128E
968.489	0.696	976164	REC_WORD	0.696	n/a	SMILE	10	8	[0, 0, 0]	n/a	FR1	0	R1128E
969.185	1.395	976860	REC_WORD	1.395	n/a	LIP	12	8	[0, 0, 0]	n/a	FR1	0	R1128E
970.58	3.615	978255	REC_WORD	3.615	n/a	HAT	9	8	[0, 0, 0]	n/a	FR1	0	R1128E
974.195	0.789	981870	REC_WORD	0.789	n/a	YARD	1	8	[0, 0, 0]	n/a	FR1	0	R1128E
974.984	4.129	982659	REC_WORD	4.129	n/a	HORN	2	8	[0, 0, 0]	n/a	FR1	0	R1128E
979.113	7.226	986788	REC_WORD	7.226	n/a	OX	-999	8	[0, 0, 0]	n/a	FR1	0	R1128E
986.339	2.262	994013	REC_WORD	2.262	n/a	PALM	6	8	[0, 0, 0]	n/a	FR1	0	R1128E
988.601	7.68	996275	REC_WORD	7.68	n/a	LIP	12	8	[0, 0, 0]	n/a	FR1	0	R1128E
996.281	1.58	1003954	REC_END	n/a	n/a	n/a	-999	8	[0, 0, 0]	n/a	FR1	0	R1128E
997.861	0.0	1005534	TRIAL	n/a	n/a	n/a	-999	9	[0, 0, 0]	n/a	FR1	0	R1128E
997.861	10.428	1005534	COUNTDOWN_START	n/a	n/a	n/a	-999	9	[0, 0, 0]	n/a	FR1	0	R1128E
1008.289	0.007	1015962	COUNTDOWN_END	n/a	n/a	n/a	-999	9	[0, 0, 0]	n/a	FR1	0	R1128E
1008.296	2.5	1015969	ORIENT	n/a	n/a	n/a	-999	9	[0, 0, 0]	n/a	FR1	0	R1128E
1010.796	2.617	1018468	WORD	n/a	wordpools/wordpool_EN.txt	TRASH	1	9	[0, 0, 0]	n/a	FR1	0	R1128E
1013.413	2.518	1021085	WORD	n/a	wordpools/wordpool_EN.txt	CAT	2	9	[0, 0, 0]	n/a	FR1	0	R1128E
1015.931	2.483	1023603	WORD	n/a	wordpools/wordpool_EN.txt	ZOO	3	9	[0, 0, 0]	n/a	FR1	0	R1128E
1018.414	2.535	1026086	WORD	n/a	wordpools/wordpool_EN.txt	FLUTE	4	9	[0, 0, 0]	n/a	FR1	0	R1128E
1020.949	2.599	1028621	WORD	n/a	wordpools/wordpool_EN.txt	STAR	5	9	[0, 0, 0]	n/a	FR1	0	R1128E
1023.548	2.368	1031219	WORD	n/a	wordpools/wordpool_EN.txt	MAZE	6	9	[0, 0, 0]	n/a	FR1	0	R1128E
1025.916	2.433	1033587	WORD	n/a	wordpools/wordpool_EN.txt	SUN	7	9	[0, 0, 0]	n/a	FR1	0	R1128E
1028.349	2.4	1036020	WORD	n/a	wordpools/wordpool_EN.txt	DESK	8	9	[0, 0, 0]	n/a	FR1	0	R1128E
1030.749	2.518	1038420	WORD	n/a	wordpools/wordpool_EN.txt	BAT	9	9	[0, 0, 0]	n/a	FR1	0	R1128E
1033.267	2.383	1040938	WORD	n/a	wordpools/wordpool_EN.txt	MOTH	10	9	[0, 0, 0]	n/a	FR1	0	R1128E
1035.65	2.585	1043321	WORD	n/a	wordpools/wordpool_EN.txt	BEE	11	9	[0, 0, 0]	n/a	FR1	0	R1128E
1038.235	1.617	1045905	WORD	n/a	wordpools/wordpool_EN.txt	BIRD	12	9	[0, 0, 0]	n/a	FR1	0	R1128E
1039.852	0.001	1047522	DISTRACT_START	n/a	n/a	n/a	-999	9	[0, 0, 0]	n/a	FR1	0	R1128E
1039.853	0.016	1047523	START	n/a	n/a	n/a	-999	9	[-999, -999, -999]	n/a	FR1	0	R1128E
1039.869	2.367	1047539	PROB	2.367	n/a	n/a	-999	9	[3, 3, 6]	1	FR1	0	R1128E
1042.236	4.984	1049906	PROB	4.984	n/a	n/a	-999	9	[9, 6, 9]	24	FR1	0	R1128E
1047.22	2.7	1054890	PROB	2.7	n/a	n/a	-999	9	[2, 1, 6]	9	FR1	0	R1128E
1049.92	2.184	1057590	PROB	2.184	n/a	n/a	-999	9	[2, 8, 5]	15	FR1	0	R1128E
1052.104	3.017	1059773	PROB	3.017	n/a	n/a	-999	9	[5, 7, 8]	20	FR1	0	R1128E
1055.121	2.784	1062790	PROB	2.784	n/a	n/a	-999	9	[3, 2, 3]	8	FR1	0	R1128E
1057.905	1.649	1065574	PROB	1.649	n/a	n/a	-999	9	[1, 2, 1]	4	FR1	0	R1128E
1059.554	2.731	1067223	PROB	2.731	n/a	n/a	-999	9	[4, 7, 7]	18	FR1	0	R1128E
1062.285	0.004	1069954	STOP	n/a	n/a	n/a	-999	9	[-999, -999, -999]	n/a	FR1	0	R1128E
1062.289	1.183	1069958	DISTRACT_END	n/a	n/a	n/a	-999	9	[0, 0, 0]	n/a	FR1	0	R1128E
1063.472	0.938	1071141	REC_START	n/a	n/a	n/a	-999	9	[0, 0, 0]	n/a	FR1	0	R1128E
1064.41	0.779	1072079	REC_WORD	0.779	n/a	TRASH	1	9	[0, 0, 0]	n/a	FR1	0	R1128E
1065.189	1.26	1072858	REC_WORD	1.26	n/a	CAN	-999	9	[0, 0, 0]	n/a	FR1	0	R1128E
1066.449	1.624	1074118	REC_WORD	1.624	n/a	CAT	2	9	[0, 0, 0]	n/a	FR1	0	R1128E
1068.073	1.298	1075741	REC_WORD	1.298	n/a	BAT	9	9	[0, 0, 0]	n/a	FR1	0	R1128E
1069.371	1.007	1077039	REC_WORD	1.007	n/a	SUN	7	9	[0, 0, 0]	n/a	FR1	0	R1128E
1070.378	4.301	1078046	REC_WORD	4.301	n/a	ZOO	3	9	[0, 0, 0]	n/a	FR1	0	R1128E
1074.679	18.806	1082347	REC_WORD	18.806	n/a	BEE	11	9	[0, 0, 0]	n/a	FR1	0	R1128E
1093.485	2.159	1101152	REC_END	n/a	n/a	n/a	-999	9	[0, 0, 0]	n/a	FR1	0	R1128E
1095.644	0.0	1103311	TRIAL	n/a	n/a	n/a	-999	10	[0, 0, 0]	n/a	FR1	0	R1128E
1095.644	10.428	1103311	COUNTDOWN_START	n/a	n/a	n/a	-999	10	[0, 0, 0]	n/a	FR1	0	R1128E
1106.072	0.008	1113738	COUNTDOWN_END	n/a	n/a	n/a	-999	10	[0, 0, 0]	n/a	FR1	0	R1128E
1106.08	2.483	1113746	ORIENT	n/a	n/a	n/a	-999	10	[0, 0, 0]	n/a	FR1	0	R1128E
1108.563	2.602	1116229	WORD	n/a	wordpools/wordpool_EN.txt	SIGN	1	10	[0, 0, 0]	n/a	FR1	0	R1128E
1111.165	2.566	1118830	WORD	n/a	wordpools/wordpool_EN.txt	SKI	2	10	[0, 0, 0]	n/a	FR1	0	R1128E
1113.731	2.418	1121396	WORD	n/a	wordpools/wordpool_EN.txt	FLEA	3	10	[0, 0, 0]	n/a	FR1	0	R1128E
1116.149	2.483	1123814	WORD	n/a	wordpools/wordpool_EN.txt	PIN	4	10	[0, 0, 0]	n/a	FR1	0	R1128E
1118.632	2.401	1126297	WORD	n/a	wordpools/wordpool_EN.txt	ROPE	5	10	[0, 0, 0]	n/a	FR1	0	R1128E
1121.033	2.499	1128698	WORD	n/a	wordpools/wordpool_EN.txt	SHOE	6	10	[0, 0, 0]	n/a	FR1	0	R1128E
1123.532	2.569	1131197	WORD	n/a	wordpools/wordpool_EN.txt	RIB	7	10	[0, 0, 0]	n/a	FR1	0	R1128E
1126.101	2.532	1133765	WORD	n/a	wordpools/wordpool_EN.txt	MUD	8	10	[0, 0, 0]	n/a	FR1	0	R1128E
1128.633	2.402	1136297	WORD	n/a	wordpools/wordpool_EN.txt	BATH	9	10	[0, 0, 0]	n/a	FR1	0	R1128E
1131.035	2.533	1138699	WORD	n/a	wordpools/wordpool_EN.txt	FOOT	10	10	[0, 0, 0]	n/a	FR1	0	R1128E
1133.568	2.418	1141232	WORD	n/a	wordpools/wordpool_EN.txt	HAWK	11	10	[0, 0, 0]	n/a	FR1	0	R1128E
1135.986	1.616	1143650	WORD	n/a	wordpools/wordpool_EN.txt	CHIN	12	10	[0, 0, 0]	n/a	FR1	0	R1128E
1137.602	0.0	1145266	DISTRACT_START	n/a	n/a	n/a	-999	10	[0, 0, 0]	n/a	FR1	0	R1128E
1137.602	0.016	1145266	START	n/a	n/a	n/a	-999	10	[-999, -999, -999]	n/a	FR1	0	R1128E
1137.618	3.402	1145282	PROB	3.402	n/a	n/a	-999	10	[1, 5, 3]	9	FR1	0	R1128E
1141.02	2.067	1148683	PROB	2.067	n/a	n/a	-999	10	[7, 2, 7]	16	FR1	0	R1128E
1143.087	3.416	1150750	PROB	3.416	n/a	n/a	-999	10	[2, 1, 7]	10	FR1	0	R1128E
1146.503	2.802	1154166	PROB	2.802	n/a	n/a	-999	10	[3, 8, 5]	16	FR1	0	R1128E
1149.305	7.551	1156968	PROB	7.551	n/a	n/a	-999	10	[2, 7, 4]	13	FR1	0	R1128E
1156.856	3.387	1164518	PROB	3.387	n/a	n/a	-999	10	[7, 1, 4]	11	FR1	0	R1128E
1160.243	0.014	1167905	STOP	n/a	n/a	n/a	-999	10	[-999, -999, -999]	n/a	FR1	0	R1128E
1160.257	1.116	1167919	DISTRACT_END	n/a	n/a	n/a	-999	10	[0, 0, 0]	n/a	FR1	0	R1128E
1161.373	1.538	1169035	REC_START	n/a	n/a	n/a	-999	10	[0, 0, 0]	n/a	FR1	0	R1128E
1162.911	1.165	1170573	REC_WORD	1.165	n/a	SKI	2	10	[0, 0, 0]	n/a	FR1	0	R1128E
1164.076	1.717	1171738	REC_WORD	1.717	n/a	SIGN	1	10	[0, 0, 0]	n/a	FR1	0	R1128E
1165.793	0.467	1173455	REC_WORD	0.467	n/a	SHOE	6	10	[0, 0, 0]	n/a	FR1	0	R1128E
1166.26	4.732	1173922	REC_WORD	4.732	n/a	HAWK	11	10	[0, 0, 0]	n/a	FR1	0	R1128E
1170.992	5.602	1178653	REC_WORD	5.602	n/a	SNOW	-999	10	[0, 0, 0]	n/a	FR1	0	R1128E
1176.594	14.788	1184255	REC_WORD	14.788	n/a	PIN	4	10	[0, 0, 0]	n/a	FR1	0	R1128E
1191.382	2.296	1199042	REC_END	n/a	n/a	n/a	-999	10	[0, 0, 0]	n/a	FR1	0	R1128E
1193.678	0.0	1201338	COUNTDOWN_START	n/a	n/a	n/a	-999	11	[0, 0, 0]	n/a	FR1	0	R1128E
1193.678	10.428	1201338	TRIAL	n/a	n/a	n/a	-999	11	[0, 0, 0]	n/a	FR1	0	R1128E
1204.106	0.008	1211765	COUNTDOWN_END	n/a	n/a	n/a	-999	11	[0, 0, 0]	n/a	FR1	0	R1128E
1204.114	2.466	1211773	ORIENT	n/a	n/a	n/a	-999	11	[0, 0, 0]	n/a	FR1	0	R1128E
1206.58	2.435	1214239	WORD	n/a	wordpools/wordpool_EN.txt	FUR	1	11	[0, 0, 0]	n/a	FR1	0	R1128E
1209.015	2.466	1216674	WORD	n/a	wordpools/wordpool_EN.txt	BANK	2	11	[0, 0, 0]	n/a	FR1	0	R1128E
1211.481	2.535	1219140	WORD	n/a	wordpools/wordpool_EN.txt	COUCH	3	11	[0, 0, 0]	n/a	FR1	0	R1128E
1214.016	2.383	1221674	WORD	n/a	wordpools/wordpool_EN.txt	CROW	4	11	[0, 0, 0]	n/a	FR1	0	R1128E
1216.399	2.451	1224057	WORD	n/a	wordpools/wordpool_EN.txt	CART	5	11	[0, 0, 0]	n/a	FR1	0	R1128E
1218.85	2.384	1226508	WORD	n/a	wordpools/wordpool_EN.txt	SNAKE	6	11	[0, 0, 0]	n/a	FR1	0	R1128E
1221.234	2.533	1228892	WORD	n/a	wordpools/wordpool_EN.txt	SKUNK	7	11	[0, 0, 0]	n/a	FR1	0	R1128E
1223.767	2.485	1231425	WORD	n/a	wordpools/wordpool_EN.txt	WAND	8	11	[0, 0, 0]	n/a	FR1	0	R1128E
1226.252	2.449	1233910	WORD	n/a	wordpools/wordpool_EN.txt	SHIRT	9	11	[0, 0, 0]	n/a	FR1	0	R1128E
1228.701	2.435	1236358	WORD	n/a	wordpools/wordpool_EN.txt	RAT	10	11	[0, 0, 0]	n/a	FR1	0	R1128E
1231.136	2.566	1238793	WORD	n/a	wordpools/wordpool_EN.txt	DOLL	11	11	[0, 0, 0]	n/a	FR1	0	R1128E
1233.702	1.618	1241359	WORD	n/a	wordpools/wordpool_EN.txt	BED	12	11	[0, 0, 0]	n/a	FR1	0	R1128E
1235.32	0.001	1242977	DISTRACT_START	n/a	n/a	n/a	-999	11	[0, 0, 0]	n/a	FR1	0	R1128E
1235.321	0.016	1242978	START	n/a	n/a	n/a	-999	11	[-999, -999, -999]	n/a	FR1	0	R1128E
1235.337	3.432	1242994	PROB	3.432	n/a	n/a	-999	11	[5, 4, 4]	13	FR1	0	R1128E
1238.769	5.402	1246426	PROB	5.402	n/a	n/a	-999	11	[7, 8, 9]	24	FR1	0	R1128E
1244.171	2.684	1251827	PROB	2.684	n/a	n/a	-999	11	[4, 2, 2]	8	FR1	0	R1128E
1246.855	2.434	1254511	PROB	2.434	n/a	n/a	-999	11	[3, 2, 6]	11	FR1	0	R1128E
1249.289	2.05	1256945	PROB	2.05	n/a	n/a	-999	11	[5, 4, 5]	14	FR1	0	R1128E
1251.339	3.634	1258995	PROB	3.634	n/a	n/a	-999	11	[9, 7, 4]	20	FR1	0	R1128E
1254.973	3.293	1262629	PROB	3.293	n/a	n/a	-999	11	[4, 8, 5]	17	FR1	0	R1128E
1258.266	0.008	1265921	STOP	n/a	n/a	n/a	-999	11	[-999, -999, -999]	n/a	FR1	0	R1128E
1258.274	1.051	1265929	DISTRACT_END	n/a	n/a	n/a	-999	11	[0, 0, 0]	n/a	FR1	0	R1128E
1259.325	1.276	1266980	REC_START	n/a	n/a	n/a	-999	11	[0, 0, 0]	n/a	FR1	0	R1128E
1260.601	0.579	1268256	REC_WORD	0.579	n/a	FUR	1	11	[0, 0, 0]	n/a	FR1	0	R1128E
1261.18	1.678	1268835	REC_WORD	1.678	n/a	SHOP	-999	11	[0, 0, 0]	n/a	FR1	0	R1128E
1262.858	0.671	1270513	REC_WORD	0.671	n/a	COUCH	3	11	[0, 0, 0]	n/a	FR1	0	R1128E
1263.529	2.614	1271184	REC_WORD	2.614	n/a	SKUNK	7	11	[0, 0, 0]	n/a	FR1	0	R1128E
1266.143	0.81	1273798	REC_WORD	0.81	n/a	SHIRT	9	11	[0, 0, 0]	n/a	FR1	0	R1128E
1266.953	22.38	1274608	REC_WORD	22.38	n/a	WAND	8	11	[0, 0, 0]	n/a	FR1	0	R1128E
1289.333	1.379	1296986	REC_END	n/a	n/a	n/a	-999	11	[0, 0, 0]	n/a	FR1	0	R1128E
1290.712	0.0	1298365	TRIAL	n/a	n/a	n/a	-999	12	[0, 0, 0]	n/a	FR1	0	R1128E
1290.712	10.428	1298365	COUNTDOWN_START	n/a	n/a	n/a	-999	12	[0, 0, 0]	n/a	FR1	0	R1128E
1301.14	0.008	1308792	COUNTDOWN_END	n/a	n/a	n/a	-999	12	[0, 0, 0]	n/a	FR1	0	R1128E
1301.148	2.5	1308800	ORIENT	n/a	n/a	n/a	-999	12	[0, 0, 0]	n/a	FR1	0	R1128E
1303.648	2.434	1311300	WORD	n/a	wordpools/wordpool_EN.txt	TRUCK	1	12	[0, 0, 0]	n/a	FR1	0	R1128E
1306.082	2.4	1313734	WORD	n/a	wordpools/wordpool_EN.txt	TIE	2	12	[0, 0, 0]	n/a	FR1	0	R1128E
1308.482	2.401	1316134	WORD	n/a	wordpools/wordpool_EN.txt	WEED	3	12	[0, 0, 0]	n/a	FR1	0	R1128E
1310.883	2.5	1318535	WORD	n/a	wordpools/wordpool_EN.txt	HOUSE	4	12	[0, 0, 0]	n/a	FR1	0	R1128E
1313.383	2.585	1321035	WORD	n/a	wordpools/wordpool_EN.txt	CHEEK	5	12	[0, 0, 0]	n/a	FR1	0	R1128E
1315.968	2.549	1323619	WORD	n/a	wordpools/wordpool_EN.txt	CLOCK	6	12	[0, 0, 0]	n/a	FR1	0	R1128E
1318.517	2.468	1326168	WORD	n/a	wordpools/wordpool_EN.txt	DOCK	7	12	[0, 0, 0]	n/a	FR1	0	R1128E
1320.985	2.399	1328636	WORD	n/a	wordpools/wordpool_EN.txt	BENCH	8	12	[0, 0, 0]	n/a	FR1	0	R1128E
1323.384	2.418	1331035	WORD	n/a	wordpools/wordpool_EN.txt	LAWN	9	12	[0, 0, 0]	n/a	FR1	0	R1128E
1325.802	2.401	1333453	WORD	n/a	wordpools/wordpool_EN.txt	BOX	10	12	[0, 0, 0]	n/a	FR1	0	R1128E
1328.203	2.399	1335854	WORD	n/a	wordpools/wordpool_EN.txt	ROAD	11	12	[0, 0, 0]	n/a	FR1	0	R1128E
1330.602	1.601	1338252	WORD	n/a	wordpools/wordpool_EN.txt	PANTS	12	12	[0, 0, 0]	n/a	FR1	0	R1128E
1332.203	0.001	1339853	DISTRACT_START	n/a	n/a	n/a	-999	12	[0, 0, 0]	n/a	FR1	0	R1128E
1332.204	0.016	1339854	START	n/a	n/a	n/a	-999	12	[-999, -999, -999]	n/a	FR1	0	R1128E
1332.22	4.901	1339870	PROB	4.901	n/a	n/a	-999	12	[7, 4, 7]	18	FR1	0	R1128E
1337.121	3.818	1344771	PROB	3.818	n/a	n/a	-999	12	[8, 5, 7]	20	FR1	0	R1128E
1340.939	2.766	1348589	PROB	2.766	n/a	n/a	-999	12	[9, 3, 2]	14	FR1	0	R1128E
1343.705	3.168	1351354	PROB	3.168	n/a	n/a	-999	12	[4, 5, 8]	17	FR1	0	R1128E
1346.873	4.051	1354522	PROB	4.051	n/a	n/a	-999	12	[7, 8, 4]	19	FR1	0	R1128E
1350.924	3.066	1358573	PROB	3.066	n/a	n/a	-999	12	[2, 4, 7]	13	FR1	0	R1128E
1353.99	0.018	1361639	STOP	n/a	n/a	n/a	-999	12	[-999, -999, -999]	n/a	FR1	0	R1128E
1354.008	1.017	1361657	DISTRACT_END	n/a	n/a	n/a	-999	12	[0, 0, 0]	n/a	FR1	0	R1128E
1355.025	1.247	1362674	REC_START	n/a	n/a	n/a	-999	12	[0, 0, 0]	n/a	FR1	0	R1128E
1356.272	1.3	1363921	REC_WORD	1.3	n/a	TRUCK	1	12	[0, 0, 0]	n/a	FR1	0	R1128E
1357.572	0.469	1365220	REC_WORD	0.469	n/a	WEED	3	12	[0, 0, 0]	n/a	FR1	0	R1128E
1358.041	0.739	1365689	REC_WORD	0.739	n/a	HOUSE	4	12	[0, 0, 0]	n/a	FR1	0	R1128E
1358.78	1.731	1366428	REC_WORD	1.731	n/a	LAWN	9	12	[0, 0, 0]	n/a	FR1	0	R1128E
1360.511	4.7	1368159	REC_WORD	4.7	n/a	ROAD	11	12	[0, 0, 0]	n/a	FR1	0	R1128E
1365.211	0.888	1372859	REC_WORD	0.888	n/a	CLOCK	6	12	[0, 0, 0]	n/a	FR1	0	R1128E
1366.099	18.935	1373747	REC_WORD	18.935	n/a	DOCK	7	12	[0, 0, 0]	n/a	FR1	0	R1128E
1385.034	1.678	1392681	REC_END	n/a	n/a	n/a	-999	12	[0, 0, 0]	n/a	FR1	0	R1128E
1386.712	0.0	1394358	COUNTDOWN_START	n/a	n/a	n/a	-999	13	[0, 0, 0]	n/a	FR1	0	R1128E
1386.712	10.428	1394358	TRIAL	n/a	n/a	n/a	-999	13	[0, 0, 0]	n/a	FR1	0	R1128E
1397.14	0.009	1404786	COUNTDOWN_END	n/a	n/a	n/a	-999	13	[0, 0, 0]	n/a	FR1	0	R1128E
1397.149	2.549	1404795	ORIENT	n/a	n/a	n/a	-999	13	[0, 0, 0]	n/a	FR1	0	R1128E
1399.698	2.418	1407344	WORD	n/a	wordpools/wordpool_EN.txt	BOARD	1	13	[0, 0, 0]	n/a	FR1	0	R1128E
1402.116	2.583	1409761	WORD	n/a	wordpools/wordpool_EN.txt	ARM	2	13	[0, 0, 0]	n/a	FR1	0	R1128E
1404.699	2.551	1412344	WORD	n/a	wordpools/wordpool_EN.txt	HOOK	3	13	[0, 0, 0]	n/a	FR1	0	R1128E
1407.25	2.383	1414895	WORD	n/a	wordpools/wordpool_EN.txt	VEST	4	13	[0, 0, 0]	n/a	FR1	0	R1128E
1409.633	2.435	1417278	WORD	n/a	wordpools/wordpool_EN.txt	SOCK	5	13	[0, 0, 0]	n/a	FR1	0	R1128E
1412.068	2.566	1419713	WORD	n/a	wordpools/wordpool_EN.txt	TOAST	6	13	[0, 0, 0]	n/a	FR1	0	R1128E
1414.634	2.568	1422279	WORD	n/a	wordpools/wordpool_EN.txt	MAT	7	13	[0, 0, 0]	n/a	FR1	0	R1128E
1417.202	2.55	1424846	WORD	n/a	wordpools/wordpool_EN.txt	NAIL	8	13	[0, 0, 0]	n/a	FR1	0	R1128E
1419.752	2.501	1427396	WORD	n/a	wordpools/wordpool_EN.txt	STOVE	9	13	[0, 0, 0]	n/a	FR1	0	R1128E
1422.253	2.584	1429897	WORD	n/a	wordpools/wordpool_EN.txt	ROOM	10	13	[0, 0, 0]	n/a	FR1	0	R1128E
1424.837	2.616	1432481	WORD	n/a	wordpools/wordpool_EN.txt	HOOF	11	13	[0, 0, 0]	n/a	FR1	0	R1128E
1427.453	1.618	1435097	WORD	n/a	wordpools/wordpool_EN.txt	BRUSH	12	13	[0, 0, 0]	n/a	FR1	0	R1128E
1429.071	0.0	1436715	DISTRACT_START	n/a	n/a	n/a	-999	13	[0, 0, 0]	n/a	FR1	0	R1128E
1429.071	0.017	1436715	START	n/a	n/a	n/a	-999	13	[-999, -999, -999]	n/a	FR1	0	R1128E
1429.088	2.532	1436732	PROB	2.532	n/a	n/a	-999	13	[4, 6, 2]	1	FR1	0	R1128E
1431.62	4.851	1439263	PROB	4.851	n/a	n/a	-999	13	[2, 2, 4]	8	FR1	0	R1128E
1436.471	3.301	1444114	PROB	3.301	n/a	n/a	-999	13	[4, 3, 3]	10	FR1	0	R1128E
1439.772	1.967	1447415	PROB	1.967	n/a	n/a	-999	13	[1, 1, 8]	10	FR1	0	R1128E
1441.739	3.401	1449382	PROB	3.401	n/a	n/a	-999	13	[9, 3, 8]	20	FR1	0	R1128E
1445.14	2.067	1452782	PROB	2.067	n/a	n/a	-999	13	[6, 2, 1]	9	FR1	0	R1128E
1447.207	2.207	1454849	PROB	2.207	n/a	n/a	-999	13	[6, 8, 2]	16	FR1	0	R1128E
1449.414	0.009	1457056	STOP	n/a	n/a	n/a	-999	13	[-999, -999, -999]	n/a	FR1	0	R1128E
1449.423	1.22	1457065	DISTRACT_END	n/a	n/a	n/a	-999	13	[0, 0, 0]	n/a	FR1	0	R1128E
1450.643	9.276	1458285	REC_START	n/a	n/a	n/a	-999	13	[0, 0, 0]	n/a	FR1	0	R1128E
1459.919	1.442	1467560	REC_WORD	1.442	n/a	HOOK	3	13	[0, 0, 0]	n/a	FR1	0	R1128E
1461.361	19.288	1469002	REC_WORD	19.288	n/a	ROOM	10	13	[0, 0, 0]	n/a	FR1	0	R1128E
1480.649	203.999	1488289	REC_END	n/a	n/a	n/a	-999	13	[0, 0, 0]	n/a	FR1	0	R1128E
1684.648	0.001	1692274	COUNTDOWN_START	n/a	n/a	n/a	-999	14	[0, 0, 0]	n/a	FR1	0	R1128E
1684.649	10.427	1692275	TRIAL	n/a	n/a	n/a	-999	14	[0, 0, 0]	n/a	FR1	0	R1128E
1695.076	0.008	1702701	COUNTDOWN_END	n/a	n/a	n/a	-999	14	[0, 0, 0]	n/a	FR1	0	R1128E
1695.084	2.4	1702709	ORIENT	n/a	n/a	n/a	-999	14	[0, 0, 0]	n/a	FR1	0	R1128E
1697.484	2.451	1705109	WORD	n/a	wordpools/wordpool_EN.txt	BRICK	1	14	[0, 0, 0]	n/a	FR1	0	R1128E
1699.935	2.384	1707560	WORD	n/a	wordpools/wordpool_EN.txt	WEB	2	14	[0, 0, 0]	n/a	FR1	0	R1128E
1702.319	2.584	1709944	WORD	n/a	wordpools/wordpool_EN.txt	TANK	3	14	[0, 0, 0]	n/a	FR1	0	R1128E
1704.903	2.516	1712528	WORD	n/a	wordpools/wordpool_EN.txt	SCHOOL	4	14	[0, 0, 0]	n/a	FR1	0	R1128E
1707.419	2.418	1715043	WORD	n/a	wordpools/wordpool_EN.txt	MAP	5	14	[0, 0, 0]	n/a	FR1	0	R1128E
1709.837	2.6	1717461	WORD	n/a	wordpools/wordpool_EN.txt	KEY	6	14	[0, 0, 0]	n/a	FR1	0	R1128E
1712.437	2.501	1720061	WORD	n/a	wordpools/wordpool_EN.txt	BALL	7	14	[0, 0, 0]	n/a	FR1	0	R1128E
1714.938	2.483	1722562	WORD	n/a	wordpools/wordpool_EN.txt	SHARK	8	14	[0, 0, 0]	n/a	FR1	0	R1128E
1717.421	2.551	1725045	WORD	n/a	wordpools/wordpool_EN.txt	COIN	9	14	[0, 0, 0]	n/a	FR1	0	R1128E
1719.972	2.616	1727596	WORD	n/a	wordpools/wordpool_EN.txt	FLOOR	10	14	[0, 0, 0]	n/a	FR1	0	R1128E
1722.588	2.402	1730211	WORD	n/a	wordpools/wordpool_EN.txt	TOE	11	14	[0, 0, 0]	n/a	FR1	0	R1128E
1724.99	1.616	1732613	WORD	n/a	wordpools/wordpool_EN.txt	FAN	12	14	[0, 0, 0]	n/a	FR1	0	R1128E
1726.606	0.0	1734229	DISTRACT_START	n/a	n/a	n/a	-999	14	[0, 0, 0]	n/a	FR1	0	R1128E
1726.606	0.016	1734229	START	n/a	n/a	n/a	-999	14	[-999, -999, -999]	n/a	FR1	0	R1128E
1726.622	3.485	1734245	PROB	3.485	n/a	n/a	-999	14	[1, 7, 6]	14	FR1	0	R1128E
1730.107	2.516	1737730	PROB	2.516	n/a	n/a	-999	14	[3, 4, 6]	23	FR1	0	R1128E
1732.623	3.585	1740246	PROB	3.585	n/a	n/a	-999	14	[3, 8, 2]	13	FR1	0	R1128E
1736.208	2.417	1743830	PROB	2.417	n/a	n/a	-999	14	[6, 3, 5]	14	FR1	0	R1128E
1738.625	3.551	1746247	PROB	3.551	n/a	n/a	-999	14	[7, 4, 4]	15	FR1	0	R1128E
1742.176	4.672	1749798	PROB	4.672	n/a	n/a	-999	14	[2, 7, 6]	15	FR1	0	R1128E
1746.848	0.012	1754470	STOP	n/a	n/a	n/a	-999	14	[-999, -999, -999]	n/a	FR1	0	R1128E
1746.86	1.168	1754482	DISTRACT_END	n/a	n/a	n/a	-999	14	[0, 0, 0]	n/a	FR1	0	R1128E
1748.028	1.371	1755650	REC_START	n/a	n/a	n/a	-999	14	[0, 0, 0]	n/a	FR1	0	R1128E
1749.399	0.677	1757021	REC_WORD	0.677	n/a	BRICK	1	14	[0, 0, 0]	n/a	FR1	0	R1128E
1750.076	0.742	1757698	REC_WORD	0.742	n/a	TANK	3	14	[0, 0, 0]	n/a	FR1	0	R1128E
1750.818	1.308	1758439	REC_WORD	1.308	n/a	SCHOOL	4	14	[0, 0, 0]	n/a	FR1	0	R1128E
1752.126	1.62	1759747	REC_WORD	1.62	n/a	SHARK	8	14	[0, 0, 0]	n/a	FR1	0	R1128E
1753.746	0.668	1761367	REC_WORD	0.668	n/a	TOE	11	14	[0, 0, 0]	n/a	FR1	0	R1128E
1754.414	2.152	1762035	REC_WORD	2.152	n/a	COIN	9	14	[0, 0, 0]	n/a	FR1	0	R1128E
1756.566	21.47	1764187	REC_WORD	21.47	n/a	BALL	7	14	[0, 0, 0]	n/a	FR1	0	R1128E
1778.036	2.18	1785656	REC_END	n/a	n/a	n/a	-999	14	[0, 0, 0]	n/a	FR1	0	R1128E
1780.216	0.0	1787835	TRIAL	n/a	n/a	n/a	-999	15	[0, 0, 0]	n/a	FR1	0	R1128E
1780.216	10.428	1787835	COUNTDOWN_START	n/a	n/a	n/a	-999	15	[0, 0, 0]	n/a	FR1	0	R1128E
1790.644	0.006	1798263	COUNTDOWN_END	n/a	n/a	n/a	-999	15	[0, 0, 0]	n/a	FR1	0	R1128E
1790.65	2.418	1798269	ORIENT	n/a	n/a	n/a	-999	15	[0, 0, 0]	n/a	FR1	0	R1128E
1793.068	2.45	1800687	WORD	n/a	wordpools/wordpool_EN.txt	CAVE	1	15	[0, 0, 0]	n/a	FR1	0	R1128E
1795.518	2.435	1803136	WORD	n/a	wordpools/wordpool_EN.txt	STEAM	2	15	[0, 0, 0]	n/a	FR1	0	R1128E
1797.953	2.383	1805571	WORD	n/a	wordpools/wordpool_EN.txt	CAPE	3	15	[0, 0, 0]	n/a	FR1	0	R1128E
1800.336	2.383	1807954	WORD	n/a	wordpools/wordpool_EN.txt	SALT	4	15	[0, 0, 0]	n/a	FR1	0	R1128E
1802.719	2.468	1810337	WORD	n/a	wordpools/wordpool_EN.txt	BOMB	5	15	[0, 0, 0]	n/a	FR1	0	R1128E
1805.187	2.433	1812805	WORD	n/a	wordpools/wordpool_EN.txt	MOUTH	6	15	[0, 0, 0]	n/a	FR1	0	R1128E
1807.62	2.585	1815238	WORD	n/a	wordpools/wordpool_EN.txt	CLAY	7	15	[0, 0, 0]	n/a	FR1	0	R1128E
1810.205	2.499	1817822	WORD	n/a	wordpools/wordpool_EN.txt	PLANE	8	15	[0, 0, 0]	n/a	FR1	0	R1128E
1812.704	2.452	1820321	WORD	n/a	wordpools/wordpool_EN.txt	ICE	9	15	[0, 0, 0]	n/a	FR1	0	R1128E
1815.156	2.516	1822773	WORD	n/a	wordpools/wordpool_EN.txt	CORD	10	15	[0, 0, 0]	n/a	FR1	0	R1128E
1817.672	2.535	1825289	WORD	n/a	wordpools/wordpool_EN.txt	CUBE	11	15	[0, 0, 0]	n/a	FR1	0	R1128E
1820.207	1.617	1827824	WORD	n/a	wordpools/wordpool_EN.txt	SMOKE	12	15	[0, 0, 0]	n/a	FR1	0	R1128E
1821.824	0.0	1829441	DISTRACT_START	n/a	n/a	n/a	-999	15	[0, 0, 0]	n/a	FR1	0	R1128E
1821.824	0.016	1829441	START	n/a	n/a	n/a	-999	15	[-999, -999, -999]	n/a	FR1	0	R1128E
1821.84	4.118	1829457	PROB	4.118	n/a	n/a	-999	15	[4, 4, 5]	13	FR1	0	R1128E
1825.958	1.967	1833574	PROB	1.967	n/a	n/a	-999	15	[6, 3, 4]	13	FR1	0	R1128E
1827.925	3.1	1835541	PROB	3.1	n/a	n/a	-999	15	[4, 4, 3]	11	FR1	0	R1128E
1831.025	2.151	1838641	PROB	2.151	n/a	n/a	-999	15	[8, 9, 1]	17	FR1	0	R1128E
1833.176	4.499	1840792	PROB	4.499	n/a	n/a	-999	15	[8, 3, 6]	17	FR1	0	R1128E
1837.675	3.602	1845290	PROB	3.602	n/a	n/a	-999	15	[7, 7, 9]	23	FR1	0	R1128E
1841.277	2.897	1848892	PROB	2.897	n/a	n/a	-999	15	[8, 5, 1]	14	FR1	0	R1128E
1844.174	0.003	1851789	STOP	n/a	n/a	n/a	-999	15	[-999, -999, -999]	n/a	FR1	0	R1128E
1844.177	1.102	1851792	DISTRACT_END	n/a	n/a	n/a	-999	15	[0, 0, 0]	n/a	FR1	0	R1128E
1845.279	1.803	1852894	REC_START	n/a	n/a	n/a	-999	15	[0, 0, 0]	n/a	FR1	0	R1128E
1847.082	3.392	1854697	REC_WORD	3.392	n/a	BOMB	5	15	[0, 0, 0]	n/a	FR1	0	R1128E
1850.474	0.319	1858089	REC_WORD	0.319	n/a	CAVE	1	15	[0, 0, 0]	n/a	FR1	0	R1128E
1850.793	0.911	1858408	REC_WORD	0.911	n/a	STEAM	2	15	[0, 0, 0]	n/a	FR1	0	R1128E
1851.704	1.333	1859319	REC_WORD	1.333	n/a	CAVE	1	15	[0, 0, 0]	n/a	FR1	0	R1128E
1853.037	22.25	1860651	REC_WORD	22.25	n/a	STEAM	2	15	[0, 0, 0]	n/a	FR1	0	R1128E
1875.287	2.613	1882900	REC_END	n/a	n/a	n/a	-999	15	[0, 0, 0]	n/a	FR1	0	R1128E
1877.9	0.0	1885513	COUNTDOWN_START	n/a	n/a	n/a	-999	16	[0, 0, 0]	n/a	FR1	0	R1128E
1877.9	10.428	1885513	TRIAL	n/a	n/a	n/a	-999	16	[0, 0, 0]	n/a	FR1	0	R1128E
1888.328	0.007	1895940	COUNTDOWN_END	n/a	n/a	n/a	-999	16	[0, 0, 0]	n/a	FR1	0	R1128E
1888.335	2.399	1895947	ORIENT	n/a	n/a	n/a	-999	16	[0, 0, 0]	n/a	FR1	0	R1128E
1890.734	2.369	1898346	WORD	n/a	wordpools/wordpool_EN.txt	PIPE	1	16	[0, 0, 0]	n/a	FR1	0	R1128E
1893.103	2.599	1900715	WORD	n/a	wordpools/wordpool_EN.txt	OWL	2	16	[0, 0, 0]	n/a	FR1	0	R1128E
1895.702	2.368	1903313	WORD	n/a	wordpools/wordpool_EN.txt	PIE	3	16	[0, 0, 0]	n/a	FR1	0	R1128E
1898.07	2.616	1905681	WORD	n/a	wordpools/wordpool_EN.txt	DEER	4	16	[0, 0, 0]	n/a	FR1	0	R1128E
1900.686	2.535	1908297	WORD	n/a	wordpools/wordpool_EN.txt	SPRING	5	16	[0, 0, 0]	n/a	FR1	0	R1128E
1903.221	2.5	1910832	WORD	n/a	wordpools/wordpool_EN.txt	MULE	6	16	[0, 0, 0]	n/a	FR1	0	R1128E
1905.721	2.451	1913332	WORD	n/a	wordpools/wordpool_EN.txt	SLUSH	7	16	[0, 0, 0]	n/a	FR1	0	R1128E
1908.172	2.6	1915783	WORD	n/a	wordpools/wordpool_EN.txt	PIG	8	16	[0, 0, 0]	n/a	FR1	0	R1128E
1910.772	2.518	1918382	WORD	n/a	wordpools/wordpool_EN.txt	STOOL	9	16	[0, 0, 0]	n/a	FR1	0	R1128E
1913.29	2.584	1920900	WORD	n/a	wordpools/wordpool_EN.txt	POOL	10	16	[0, 0, 0]	n/a	FR1	0	R1128E
1915.874	2.549	1923484	WORD	n/a	wordpools/wordpool_EN.txt	WOLF	11	16	[0, 0, 0]	n/a	FR1	0	R1128E
1918.423	1.601	1926033	WORD	n/a	wordpools/wordpool_EN.txt	SWAMP	12	16	[0, 0, 0]	n/a	FR1	0	R1128E
1920.024	0.001	1927634	DISTRACT_START	n/a	n/a	n/a	-999	16	[0, 0, 0]	n/a	FR1	0	R1128E
1920.025	0.016	1927635	START	n/a	n/a	n/a	-999	16	[-999, -999, -999]	n/a	FR1	0	R1128E
1920.041	2.967	1927651	PROB	2.967	n/a	n/a	-999	16	[6, 7, 7]	20	FR1	0	R1128E
1923.008	6.218	1930618	PROB	6.218	n/a	n/a	-999	16	[8, 9, 9]	26	FR1	0	R1128E
1929.226	3.216	1936835	PROB	3.216	n/a	n/a	-999	16	[7, 7, 3]	17	FR1	0	R1128E
1932.442	2.134	1940051	PROB	2.134	n/a	n/a	-999	16	[1, 3, 1]	5	FR1	0	R1128E
1934.576	6.397	1942185	PROB	6.397	n/a	n/a	-999	16	[7, 5, 1]	13	FR1	0	R1128E
1940.973	0.005	1948581	STOP	n/a	n/a	n/a	-999	16	[-999, -999, -999]	n/a	FR1	0	R1128E
1940.978	1.085	1948586	DISTRACT_END	n/a	n/a	n/a	-999	16	[0, 0, 0]	n/a	FR1	0	R1128E
1942.063	1.061	1949671	REC_START	n/a	n/a	n/a	-999	16	[0, 0, 0]	n/a	FR1	0	R1128E
1943.124	1.897	1950732	REC_WORD	1.897	n/a	PIPE	1	16	[0, 0, 0]	n/a	FR1	0	R1128E
1945.021	0.45	1952629	REC_WORD	0.45	n/a	OWL	2	16	[0, 0, 0]	n/a	FR1	0	R1128E
1945.471	2.423	1953079	REC_WORD	2.423	n/a	PIE	3	16	[0, 0, 0]	n/a	FR1	0	R1128E
1947.894	1.423	1955502	REC_WORD	1.423	n/a	PIG	8	16	[0, 0, 0]	n/a	FR1	0	R1128E
1949.317	0.781	1956925	REC_WORD	0.781	n/a	SWAMP	12	16	[0, 0, 0]	n/a	FR1	0	R1128E
1950.098	16.191	1957706	REC_WORD	16.191	n/a	STOOL	9	16	[0, 0, 0]	n/a	FR1	0	R1128E
1966.289	5.782	1973896	REC_WORD	5.782	n/a	POOL	10	16	[0, 0, 0]	n/a	FR1	0	R1128E
1972.071	1.478	1979677	REC_END	n/a	n/a	n/a	-999	16	[0, 0, 0]	n/a	FR1	0	R1128E
1973.549	0.001	1981155	COUNTDOWN_START	n/a	n/a	n/a	-999	17	[0, 0, 0]	n/a	FR1	0	R1128E
1973.55	10.427	1981156	TRIAL	n/a	n/a	n/a	-999	17	[0, 0, 0]	n/a	FR1	0	R1128E
1983.977	0.009	1991582	COUNTDOWN_END	n/a	n/a	n/a	-999	17	[0, 0, 0]	n/a	FR1	0	R1128E
1983.986	2.599	1991591	ORIENT	n/a	n/a	n/a	-999	17	[0, 0, 0]	n/a	FR1	0	R1128E
1986.585	2.468	1994190	WORD	n/a	wordpools/wordpool_EN.txt	BEAR	1	17	[0, 0, 0]	n/a	FR1	0	R1128E
1989.053	2.599	1996658	WORD	n/a	wordpools/wordpool_EN.txt	WING	2	17	[0, 0, 0]	n/a	FR1	0	R1128E
1991.652	2.452	1999257	WORD	n/a	wordpools/wordpool_EN.txt	DOOR	3	17	[0, 0, 0]	n/a	FR1	0	R1128E
1994.104	2.55	2001709	WORD	n/a	wordpools/wordpool_EN.txt	PLANT	4	17	[0, 0, 0]	n/a	FR1	0	R1128E
1996.654	2.434	2004259	WORD	n/a	wordpools/wordpool_EN.txt	ROOT	5	17	[0, 0, 0]	n/a	FR1	0	R1128E
1999.088	2.583	2006692	WORD	n/a	wordpools/wordpool_EN.txt	LEAF	6	17	[0, 0, 0]	n/a	FR1	0	R1128E
2001.671	2.551	2009275	WORD	n/a	wordpools/wordpool_EN.txt	SNOW	7	17	[0, 0, 0]	n/a	FR1	0	R1128E
2004.222	2.467	2011826	WORD	n/a	wordpools/wordpool_EN.txt	BLOOM	8	17	[0, 0, 0]	n/a	FR1	0	R1128E
2006.689	2.484	2014293	WORD	n/a	wordpools/wordpool_EN.txt	STRAW	9	17	[0, 0, 0]	n/a	FR1	0	R1128E
2009.173	2.55	2016777	WORD	n/a	wordpools/wordpool_EN.txt	BUSH	10	17	[0, 0, 0]	n/a	FR1	0	R1128E
2011.723	2.568	2019327	WORD	n/a	wordpools/wordpool_EN.txt	BRANCH	11	17	[0, 0, 0]	n/a	FR1	0	R1128E
2014.291	1.617	2021894	WORD	n/a	wordpools/wordpool_EN.txt	TOY	12	17	[0, 0, 0]	n/a	FR1	0	R1128E
2015.908	0.001	2023511	DISTRACT_START	n/a	n/a	n/a	-999	17	[0, 0, 0]	n/a	FR1	0	R1128E
2015.909	0.016	2023512	START	n/a	n/a	n/a	-999	17	[-999, -999, -999]	n/a	FR1	0	R1128E
2015.925	12.952	2023528	PROB	12.952	n/a	n/a	-999	17	[7, 5, 9]	2	FR1	0	R1128E
2028.877	3.934	2036479	PROB	3.934	n/a	n/a	-999	17	[4, 2, 8]	14	FR1	0	R1128E
2032.811	3.542	2040413	PROB	3.542	n/a	n/a	-999	17	[9, 4, 6]	19	FR1	0	R1128E
2036.353	0.024	2043955	STOP	n/a	n/a	n/a	-999	17	[-999, -999, -999]	n/a	FR1	0	R1128E
2036.377	1.036	2043979	DISTRACT_END	n/a	n/a	n/a	-999	17	[0, 0, 0]	n/a	FR1	0	R1128E
2037.413	3.301	2045015	REC_START	n/a	n/a	n/a	-999	17	[0, 0, 0]	n/a	FR1	0	R1128E
2040.714	11.221	2048316	REC_WORD	11.221	n/a	BEAR	1	17	[0, 0, 0]	n/a	FR1	0	R1128E
2051.935	15.486	2059536	REC_WORD	15.486	n/a	WING	2	17	[0, 0, 0]	n/a	FR1	0	R1128E
2067.421	53.672	2075021	REC_END	n/a	n/a	n/a	-999	17	[0, 0, 0]	n/a	FR1	0	R1128E
2121.093	0.0	2128689	TRIAL	n/a	n/a	n/a	-999	18	[0, 0, 0]	n/a	FR1	0	R1128E
2121.093	10.428	2128689	COUNTDOWN_START	n/a	n/a	n/a	-999	18	[0, 0, 0]	n/a	FR1	0	R1128E
2131.521	0.006	2139116	COUNTDOWN_END	n/a	n/a	n/a	-999	18	[0, 0, 0]	n/a	FR1	0	R1128E
2131.527	2.485	2139122	ORIENT	n/a	n/a	n/a	-999	18	[0, 0, 0]	n/a	FR1	0	R1128E
2134.012	2.533	2141607	WORD	n/a	wordpools/wordpool_EN.txt	RICE	1	18	[0, 0, 0]	n/a	FR1	0	R1128E
2136.545	2.535	2144140	WORD	n/a	wordpools/wordpool_EN.txt	SOAP	2	18	[0, 0, 0]	n/a	FR1	0	R1128E
2139.08	2.399	2146675	WORD	n/a	wordpools/wordpool_EN.txt	SEA	3	18	[0, 0, 0]	n/a	FR1	0	R1128E
2141.479	2.518	2149074	WORD	n/a	wordpools/wordpool_EN.txt	PEACH	4	18	[0, 0, 0]	n/a	FR1	0	R1128E
2143.997	2.55	2151591	WORD	n/a	wordpools/wordpool_EN.txt	SKY	5	18	[0, 0, 0]	n/a	FR1	0	R1128E
2146.547	2.585	2154141	WORD	n/a	wordpools/wordpool_EN.txt	FARM	6	18	[0, 0, 0]	n/a	FR1	0	R1128E
2149.132	2.549	2156726	WORD	n/a	wordpools/wordpool_EN.txt	DART	7	18	[0, 0, 0]	n/a	FR1	0	R1128E
2151.681	2.451	2159275	WORD	n/a	wordpools/wordpool_EN.txt	SHEEP	8	18	[0, 0, 0]	n/a	FR1	0	R1128E
2154.132	2.383	2161726	WORD	n/a	wordpools/wordpool_EN.txt	LAND	9	18	[0, 0, 0]	n/a	FR1	0	R1128E
2156.515	2.535	2164109	WORD	n/a	wordpools/wordpool_EN.txt	SHIELD	10	18	[0, 0, 0]	n/a	FR1	0	R1128E
2159.05	2.416	2166643	WORD	n/a	wordpools/wordpool_EN.txt	CHIEF	11	18	[0, 0, 0]	n/a	FR1	0	R1128E
2161.466	1.618	2169059	WORD	n/a	wordpools/wordpool_EN.txt	SHIP	12	18	[0, 0, 0]	n/a	FR1	0	R1128E
2163.084	0.001	2170677	DISTRACT_START	n/a	n/a	n/a	-999	18	[0, 0, 0]	n/a	FR1	0	R1128E
2163.085	0.016	2170678	START	n/a	n/a	n/a	-999	18	[-999, -999, -999]	n/a	FR1	0	R1128E
2163.101	2.883	2170694	PROB	2.883	n/a	n/a	-999	18	[3, 2, 8]	13	FR1	0	R1128E
2165.984	2.717	2173577	PROB	2.717	n/a	n/a	-999	18	[7, 4, 7]	18	FR1	0	R1128E
2168.701	4.401	2176294	PROB	4.401	n/a	n/a	-999	18	[4, 3, 3]	10	FR1	0	R1128E
2173.102	2.151	2180694	PROB	2.151	n/a	n/a	-999	18	[7, 9, 3]	19	FR1	0	R1128E
2175.253	2.216	2182845	PROB	2.216	n/a	n/a	-999	18	[6, 1, 5]	12	FR1	0	R1128E
2177.469	2.835	2185061	PROB	2.835	n/a	n/a	-999	18	[7, 4, 2]	13	FR1	0	R1128E
2180.304	2.232	2187896	PROB	2.232	n/a	n/a	-999	18	[5, 9, 1]	15	FR1	0	R1128E
2182.536	1.889	2190128	PROB	1.889	n/a	n/a	-999	18	[3, 1, 8]	12	FR1	0	R1128E
2184.425	0.012	2192017	STOP	n/a	n/a	n/a	-999	18	[-999, -999, -999]	n/a	FR1	0	R1128E
2184.437	1.052	2192029	DISTRACT_END	n/a	n/a	n/a	-999	18	[0, 0, 0]	n/a	FR1	0	R1128E
2185.489	1.369	2193081	REC_START	n/a	n/a	n/a	-999	18	[0, 0, 0]	n/a	FR1	0	R1128E
2186.858	1.552	2194449	REC_WORD	1.552	n/a	RICE	1	18	[0, 0, 0]	n/a	FR1	0	R1128E
2188.41	1.345	2196001	REC_WORD	1.345	n/a	SOAP	2	18	[0, 0, 0]	n/a	FR1	0	R1128E
2189.755	1.227	2197346	REC_WORD	1.227	n/a	SEA	3	18	[0, 0, 0]	n/a	FR1	0	R1128E
2190.982	0.55	2198573	REC_WORD	0.55	n/a	SHIP	12	18	[0, 0, 0]	n/a	FR1	0	R1128E
2191.532	6.684	2199123	REC_WORD	6.684	n/a	SHIELD	10	18	[0, 0, 0]	n/a	FR1	0	R1128E
2198.216	3.052	2205807	REC_WORD	3.052	n/a	SHEEP	8	18	[0, 0, 0]	n/a	FR1	0	R1128E
2201.268	7.266	2208858	REC_WORD	7.266	n/a	SKY	5	18	[0, 0, 0]	n/a	FR1	0	R1128E
2208.534	6.973	2216124	REC_WORD	6.973	n/a	LAND	9	18	[0, 0, 0]	n/a	FR1	0	R1128E
2215.507	2.052	2223097	REC_END	n/a	n/a	n/a	-999	18	[0, 0, 0]	n/a	FR1	0	R1128E
2217.559	0.0	2225148	TRIAL	n/a	n/a	n/a	-999	19	[0, 0, 0]	n/a	FR1	0	R1128E
2217.559	10.428	2225148	COUNTDOWN_START	n/a	n/a	n/a	-999	19	[0, 0, 0]	n/a	FR1	0	R1128E
2227.987	0.008	2235576	COUNTDOWN_END	n/a	n/a	n/a	-999	19	[0, 0, 0]	n/a	FR1	0	R1128E
2227.995	2.533	2235584	ORIENT	n/a	n/a	n/a	-999	19	[0, 0, 0]	n/a	FR1	0	R1128E
2230.528	2.552	2238116	WORD	n/a	wordpools/wordpool_EN.txt	SEAL	1	19	[0, 0, 0]	n/a	FR1	0	R1128E
2233.08	2.382	2240668	WORD	n/a	wordpools/wordpool_EN.txt	BAND	2	19	[0, 0, 0]	n/a	FR1	0	R1128E
2235.462	2.385	2243050	WORD	n/a	wordpools/wordpool_EN.txt	WORLD	3	19	[0, 0, 0]	n/a	FR1	0	R1128E
2237.847	2.566	2245435	WORD	n/a	wordpools/wordpool_EN.txt	FRUIT	4	19	[0, 0, 0]	n/a	FR1	0	R1128E
2240.413	2.485	2248001	WORD	n/a	wordpools/wordpool_EN.txt	SWORD	5	19	[0, 0, 0]	n/a	FR1	0	R1128E
2242.898	2.5	2250486	WORD	n/a	wordpools/wordpool_EN.txt	JAR	6	19	[0, 0, 0]	n/a	FR1	0	R1128E
2245.398	2.534	2252985	WORD	n/a	wordpools/wordpool_EN.txt	BREAD	7	19	[0, 0, 0]	n/a	FR1	0	R1128E
2247.932	2.583	2255519	WORD	n/a	wordpools/wordpool_EN.txt	CUP	8	19	[0, 0, 0]	n/a	FR1	0	R1128E
2250.515	2.502	2258102	WORD	n/a	wordpools/wordpool_EN.txt	WALL	9	19	[0, 0, 0]	n/a	FR1	0	R1128E
2253.017	2.516	2260604	WORD	n/a	wordpools/wordpool_EN.txt	STICK	10	19	[0, 0, 0]	n/a	FR1	0	R1128E
2255.533	2.601	2263120	WORD	n/a	wordpools/wordpool_EN.txt	ROSE	11	19	[0, 0, 0]	n/a	FR1	0	R1128E
2258.134	1.616	2265721	WORD	n/a	wordpools/wordpool_EN.txt	LAMP	12	19	[0, 0, 0]	n/a	FR1	0	R1128E
2259.75	0.001	2267336	DISTRACT_START	n/a	n/a	n/a	-999	19	[0, 0, 0]	n/a	FR1	0	R1128E
2259.751	0.016	2267337	START	n/a	n/a	n/a	-999	19	[-999, -999, -999]	n/a	FR1	0	R1128E
2259.767	5.068	2267353	PROB	5.068	n/a	n/a	-999	19	[4, 2, 1]	7	FR1	0	R1128E
2264.835	2.4	2272421	PROB	2.4	n/a	n/a	-999	19	[4, 9, 9]	22	FR1	0	R1128E
2267.235	2.901	2274821	PROB	2.901	n/a	n/a	-999	19	[7, 6, 8]	21	FR1	0	R1128E
2270.136	2.383	2277722	PROB	2.383	n/a	n/a	-999	19	[5, 4, 4]	13	FR1	0	R1128E
2272.519	1.834	2280105	PROB	1.834	n/a	n/a	-999	19	[6, 9, 1]	16	FR1	0	R1128E
2274.353	1.818	2281938	PROB	1.818	n/a	n/a	-999	19	[4, 5, 5]	14	FR1	0	R1128E
2276.171	3.233	2283756	PROB	3.233	n/a	n/a	-999	19	[4, 4, 7]	15	FR1	0	R1128E
2279.404	3.022	2286989	PROB	3.022	n/a	n/a	-999	19	[3, 9, 5]	17	FR1	0	R1128E
2282.426	0.011	2290011	STOP	n/a	n/a	n/a	-999	19	[-999, -999, -999]	n/a	FR1	0	R1128E
2282.437	1.035	2290022	DISTRACT_END	n/a	n/a	n/a	-999	19	[0, 0, 0]	n/a	FR1	0	R1128E
2283.472	1.258	2291057	REC_START	n/a	n/a	n/a	-999	19	[0, 0, 0]	n/a	FR1	0	R1128E
2284.73	0.856	2292315	REC_WORD	0.856	n/a	SEAL	1	19	[0, 0, 0]	n/a	FR1	0	R1128E
2285.586	0.611	2293171	REC_WORD	0.611	n/a	BAND	2	19	[0, 0, 0]	n/a	FR1	0	R1128E
2286.197	0.863	2293782	REC_WORD	0.863	n/a	WORLD	3	19	[0, 0, 0]	n/a	FR1	0	R1128E
2287.06	1.147	2294645	REC_WORD	1.147	n/a	CUP	8	19	[0, 0, 0]	n/a	FR1	0	R1128E
2288.207	2.499	2295792	REC_WORD	2.499	n/a	SWORD	5	19	[0, 0, 0]	n/a	FR1	0	R1128E
2290.706	0.922	2298290	REC_WORD	0.922	n/a	JAM	-999	19	[0, 0, 0]	n/a	FR1	0	R1128E
2291.628	3.458	2299212	REC_WORD	3.458	n/a	JAR	6	19	[0, 0, 0]	n/a	FR1	0	R1128E
2295.086	15.622	2302670	REC_WORD	15.622	n/a	BREAD	7	19	[0, 0, 0]	n/a	FR1	0	R1128E
2310.708	2.772	2318291	REC_WORD	2.772	n/a	WORLD	3	19	[0, 0, 0]	n/a	FR1	0	R1128E
2313.48	2.047	2321063	REC_END	n/a	n/a	n/a	-999	19	[0, 0, 0]	n/a	FR1	0	R1128E
2315.527	0.0	2323110	COUNTDOWN_START	n/a	n/a	n/a	-999	20	[0, 0, 0]	n/a	FR1	0	R1128E
2315.527	10.428	2323110	TRIAL	n/a	n/a	n/a	-999	20	[0, 0, 0]	n/a	FR1	0	R1128E
2325.955	0.008	2333537	COUNTDOWN_END	n/a	n/a	n/a	-999	20	[0, 0, 0]	n/a	FR1	0	R1128E
2325.963	2.616	2333545	ORIENT	n/a	n/a	n/a	-999	20	[0, 0, 0]	n/a	FR1	0	R1128E
2328.579	2.468	2336161	WORD	n/a	wordpools/wordpool_EN.txt	WOOD	1	20	[0, 0, 0]	n/a	FR1	0	R1128E
2331.047	2.416	2338629	WORD	n/a	wordpools/wordpool_EN.txt	PASTE	2	20	[0, 0, 0]	n/a	FR1	0	R1128E
2333.463	2.435	2341044	WORD	n/a	wordpools/wordpool_EN.txt	FORK	3	20	[0, 0, 0]	n/a	FR1	0	R1128E
2335.898	2.516	2343479	WORD	n/a	wordpools/wordpool_EN.txt	PLATE	4	20	[0, 0, 0]	n/a	FR1	0	R1128E
2338.414	2.585	2345995	WORD	n/a	wordpools/wordpool_EN.txt	CHALK	5	20	[0, 0, 0]	n/a	FR1	0	R1128E
2340.999	2.383	2348580	WORD	n/a	wordpools/wordpool_EN.txt	STONE	6	20	[0, 0, 0]	n/a	FR1	0	R1128E
2343.382	2.584	2350963	WORD	n/a	wordpools/wordpool_EN.txt	CLOTH	7	20	[0, 0, 0]	n/a	FR1	0	R1128E
2345.966	2.616	2353547	WORD	n/a	wordpools/wordpool_EN.txt	BLUSH	8	20	[0, 0, 0]	n/a	FR1	0	R1128E
2348.582	2.418	2356162	WORD	n/a	wordpools/wordpool_EN.txt	GLOVE	9	20	[0, 0, 0]	n/a	FR1	0	R1128E
2351.0	2.55	2358580	WORD	n/a	wordpools/wordpool_EN.txt	TOOL	10	20	[0, 0, 0]	n/a	FR1	0	R1128E
2353.55	2.385	2361130	WORD	n/a	wordpools/wordpool_EN.txt	AXE	11	20	[0, 0, 0]	n/a	FR1	0	R1128E
2355.935	1.616	2363515	WORD	n/a	wordpools/wordpool_EN.txt	VASE	12	20	[0, 0, 0]	n/a	FR1	0	R1128E
2357.551	0.001	2365131	DISTRACT_START	n/a	n/a	n/a	-999	20	[0, 0, 0]	n/a	FR1	0	R1128E
2357.552	0.015	2365132	START	n/a	n/a	n/a	-999	20	[-999, -999, -999]	n/a	FR1	0	R1128E
2357.567	2.335	2365147	PROB	2.335	n/a	n/a	-999	20	[2, 8, 3]	13	FR1	0	R1128E
2359.902	1.967	2367482	PROB	1.967	n/a	n/a	-999	20	[7, 9, 1]	17	FR1	0	R1128E
2361.869	1.866	2369448	PROB	1.866	n/a	n/a	-999	20	[4, 1, 1]	6	FR1	0	R1128E
2363.735	3.502	2371314	PROB	3.502	n/a	n/a	-999	20	[5, 7, 2]	14	FR1	0	R1128E
2367.237	2.399	2374816	PROB	2.399	n/a	n/a	-999	20	[9, 8, 1]	18	FR1	0	R1128E
2369.636	2.352	2377215	PROB	2.352	n/a	n/a	-999	20	[8, 2, 6]	16	FR1	0	R1128E
2371.988	2.033	2379567	PROB	2.033	n/a	n/a	-999	20	[1, 2, 4]	7	FR1	0	R1128E
2374.021	2.967	2381600	PROB	2.967	n/a	n/a	-999	20	[2, 7, 7]	16	FR1	0	R1128E
2376.988	2.855	2384566	PROB	2.855	n/a	n/a	-999	20	[2, 4, 7]	13	FR1	0	R1128E
2379.843	0.013	2387421	STOP	n/a	n/a	n/a	-999	20	[-999, -999, -999]	n/a	FR1	0	R1128E
2379.856	1.167	2387434	DISTRACT_END	n/a	n/a	n/a	-999	20	[0, 0, 0]	n/a	FR1	0	R1128E
2381.023	1.104	2388601	REC_START	n/a	n/a	n/a	-999	20	[0, 0, 0]	n/a	FR1	0	R1128E
2382.127	0.599	2389705	REC_WORD	0.599	n/a	WOOD	1	20	[0, 0, 0]	n/a	FR1	0	R1128E
2382.726	1.079	2390304	REC_WORD	1.079	n/a	PASTE	2	20	[0, 0, 0]	n/a	FR1	0	R1128E
2383.805	0.785	2391383	REC_WORD	0.785	n/a	PLATE	4	20	[0, 0, 0]	n/a	FR1	0	R1128E
2384.59	1.982	2392168	REC_WORD	1.982	n/a	BLUSH	8	20	[0, 0, 0]	n/a	FR1	0	R1128E
2386.572	1.855	2394150	REC_WORD	1.855	n/a	STONE	6	20	[0, 0, 0]	n/a	FR1	0	R1128E
2388.427	0.696	2396005	REC_WORD	0.696	n/a	CLOTH	7	20	[0, 0, 0]	n/a	FR1	0	R1128E
2389.123	21.913	2396701	REC_WORD	21.913	n/a	VASE	12	20	[0, 0, 0]	n/a	FR1	0	R1128E
2411.036	1.508	2418612	REC_END	n/a	n/a	n/a	-999	20	[0, 0, 0]	n/a	FR1	0	R1128E
2412.544	0.0	2420120	TRIAL	n/a	n/a	n/a	-999	21	[0, 0, 0]	n/a	FR1	0	R1128E
2412.544	10.428	2420120	COUNTDOWN_START	n/a	n/a	n/a	-999	21	[0, 0, 0]	n/a	FR1	0	R1128E
2422.972	0.008	2430547	COUNTDOWN_END	n/a	n/a	n/a	-999	21	[0, 0, 0]	n/a	FR1	0	R1128E
2422.98	2.399	2430555	ORIENT	n/a	n/a	n/a	-999	21	[0, 0, 0]	n/a	FR1	0	R1128E
2425.379	2.401	2432954	WORD	n/a	wordpools/wordpool_EN.txt	STEAK	1	21	[0, 0, 0]	n/a	FR1	0	R1128E
2427.78	2.501	2435355	WORD	n/a	wordpools/wordpool_EN.txt	GOLD	2	21	[0, 0, 0]	n/a	FR1	0	R1128E
2430.281	2.45	2437856	WORD	n/a	wordpools/wordpool_EN.txt	PRINCE	3	21	[0, 0, 0]	n/a	FR1	0	R1128E
2432.731	2.518	2440306	WORD	n/a	wordpools/wordpool_EN.txt	BOAT	4	21	[0, 0, 0]	n/a	FR1	0	R1128E
2435.249	2.567	2442823	WORD	n/a	wordpools/wordpool_EN.txt	TRAIN	5	21	[0, 0, 0]	n/a	FR1	0	R1128E
2437.816	2.417	2445390	WORD	n/a	wordpools/wordpool_EN.txt	JET	6	21	[0, 0, 0]	n/a	FR1	0	R1128E
2440.233	2.533	2447807	WORD	n/a	wordpools/wordpool_EN.txt	PEARL	7	21	[0, 0, 0]	n/a	FR1	0	R1128E
2442.766	2.401	2450340	WORD	n/a	wordpools/wordpool_EN.txt	TOOTH	8	21	[0, 0, 0]	n/a	FR1	0	R1128E
2445.167	2.383	2452741	WORD	n/a	wordpools/wordpool_EN.txt	SHRIMP	9	21	[0, 0, 0]	n/a	FR1	0	R1128E
2447.55	2.585	2455124	WORD	n/a	wordpools/wordpool_EN.txt	CROWN	10	21	[0, 0, 0]	n/a	FR1	0	R1128E
2450.135	2.533	2457708	WORD	n/a	wordpools/wordpool_EN.txt	FISH	11	21	[0, 0, 0]	n/a	FR1	0	R1128E
2452.668	1.618	2460241	WORD	n/a	wordpools/wordpool_EN.txt	SLIME	12	21	[0, 0, 0]	n/a	FR1	0	R1128E
2454.286	0.0	2461859	DISTRACT_START	n/a	n/a	n/a	-999	21	[0, 0, 0]	n/a	FR1	0	R1128E
2454.286	0.016	2461859	START	n/a	n/a	n/a	-999	21	[-999, -999, -999]	n/a	FR1	0	R1128E
2454.302	11.484	2461875	PROB	11.484	n/a	n/a	-999	21	[6, 7, 9]	22	FR1	0	R1128E
2465.786	2.352	2473358	PROB	2.352	n/a	n/a	-999	21	[6, 1, 7]	14	FR1	0	R1128E
2468.138	3.767	2475710	PROB	3.767	n/a	n/a	-999	21	[9, 2, 2]	13	FR1	0	R1128E
2471.905	3.558	2479477	PROB	3.558	n/a	n/a	-999	21	[4, 4, 7]	15	FR1	0	R1128E
2475.463	0.009	2483035	STOP	n/a	n/a	n/a	-999	21	[-999, -999, -999]	n/a	FR1	0	R1128E
2475.472	1.117	2483044	DISTRACT_END	n/a	n/a	n/a	-999	21	[0, 0, 0]	n/a	FR1	0	R1128E
2476.589	1.157	2484161	REC_START	n/a	n/a	n/a	-999	21	[0, 0, 0]	n/a	FR1	0	R1128E
2477.746	0.734	2485317	REC_WORD	0.734	n/a	STEAK	1	21	[0, 0, 0]	n/a	FR1	0	R1128E
2478.48	0.903	2486051	REC_WORD	0.903	n/a	GOLD	2	21	[0, 0, 0]	n/a	FR1	0	R1128E
2479.383	0.636	2486954	REC_WORD	0.636	n/a	PRINCE	3	21	[0, 0, 0]	n/a	FR1	0	R1128E
2480.019	1.383	2487590	REC_WORD	1.383	n/a	SHRIMP	9	21	[0, 0, 0]	n/a	FR1	0	R1128E
2481.402	0.916	2488973	REC_WORD	0.916	n/a	FISH	11	21	[0, 0, 0]	n/a	FR1	0	R1128E
2482.318	0.948	2489889	REC_WORD	0.948	n/a	SLIME	12	21	[0, 0, 0]	n/a	FR1	0	R1128E
2483.266	1.033	2490837	REC_WORD	1.033	n/a	JET	6	21	[0, 0, 0]	n/a	FR1	0	R1128E
2484.299	22.298	2491870	REC_WORD	22.298	n/a	TRAIN	5	21	[0, 0, 0]	n/a	FR1	0	R1128E
2506.597	36.136	2514166	REC_END	n/a	n/a	n/a	-999	21	[0, 0, 0]	n/a	FR1	0	R1128E
2542.733	0.001	2550300	COUNTDOWN_START	n/a	n/a	n/a	-999	22	[0, 0, 0]	n/a	FR1	0	R1128E
2542.734	10.427	2550301	TRIAL	n/a	n/a	n/a	-999	22	[0, 0, 0]	n/a	FR1	0	R1128E
2553.161	0.009	2560727	COUNTDOWN_END	n/a	n/a	n/a	-999	22	[0, 0, 0]	n/a	FR1	0	R1128E
2553.17	2.516	2560736	ORIENT	n/a	n/a	n/a	-999	22	[0, 0, 0]	n/a	FR1	0	R1128E
2555.686	2.385	2563252	WORD	n/a	wordpools/wordpool_EN.txt	SQUARE	1	22	[0, 0, 0]	n/a	FR1	0	R1128E
2558.071	2.399	2565637	WORD	n/a	wordpools/wordpool_EN.txt	BEAN	2	22	[0, 0, 0]	n/a	FR1	0	R1128E
2560.47	2.401	2568036	WORD	n/a	wordpools/wordpool_EN.txt	SOUP	3	22	[0, 0, 0]	n/a	FR1	0	R1128E
2562.871	2.483	2570437	WORD	n/a	wordpools/wordpool_EN.txt	GLASS	4	22	[0, 0, 0]	n/a	FR1	0	R1128E
2565.354	2.552	2572919	WORD	n/a	wordpools/wordpool_EN.txt	RUG	5	22	[0, 0, 0]	n/a	FR1	0	R1128E
2567.906	2.599	2575471	WORD	n/a	wordpools/wordpool_EN.txt	STREET	6	22	[0, 0, 0]	n/a	FR1	0	R1128E
2570.505	2.618	2578070	WORD	n/a	wordpools/wordpool_EN.txt	BOY	7	22	[0, 0, 0]	n/a	FR1	0	R1128E
2573.123	2.4	2580688	WORD	n/a	wordpools/wordpool_EN.txt	DITCH	8	22	[0, 0, 0]	n/a	FR1	0	R1128E
2575.523	2.401	2583088	WORD	n/a	wordpools/wordpool_EN.txt	STRING	9	22	[0, 0, 0]	n/a	FR1	0	R1128E
2577.924	2.549	2585489	WORD	n/a	wordpools/wordpool_EN.txt	TEA	10	22	[0, 0, 0]	n/a	FR1	0	R1128E
2580.473	2.385	2588037	WORD	n/a	wordpools/wordpool_EN.txt	DIME	11	22	[0, 0, 0]	n/a	FR1	0	R1128E
2582.858	1.616	2590422	WORD	n/a	wordpools/wordpool_EN.txt	KITE	12	22	[0, 0, 0]	n/a	FR1	0	R1128E
2584.474	0.001	2592038	DISTRACT_START	n/a	n/a	n/a	-999	22	[0, 0, 0]	n/a	FR1	0	R1128E
2584.475	0.016	2592039	START	n/a	n/a	n/a	-999	22	[-999, -999, -999]	n/a	FR1	0	R1128E
2584.491	2.9	2592055	PROB	2.9	n/a	n/a	-999	22	[1, 8, 7]	16	FR1	0	R1128E
2587.391	2.702	2594955	PROB	2.702	n/a	n/a	-999	22	[6, 5, 4]	15	FR1	0	R1128E
2590.093	2.05	2597657	PROB	2.05	n/a	n/a	-999	22	[8, 5, 5]	18	FR1	0	R1128E
2592.143	2.984	2599707	PROB	2.984	n/a	n/a	-999	22	[6, 7, 9]	22	FR1	0	R1128E
2595.127	2.233	2602690	PROB	2.233	n/a	n/a	-999	22	[3, 7, 5]	15	FR1	0	R1128E
2597.36	1.684	2604923	PROB	1.684	n/a	n/a	-999	22	[6, 4, 1]	11	FR1	0	R1128E
2599.044	2.251	2606607	PROB	2.251	n/a	n/a	-999	22	[7, 1, 4]	12	FR1	0	R1128E
2601.295	4.458	2608858	PROB	4.458	n/a	n/a	-999	22	[8, 4, 4]	16	FR1	0	R1128E
2605.753	0.008	2613316	STOP	n/a	n/a	n/a	-999	22	[-999, -999, -999]	n/a	FR1	0	R1128E
2605.761	1.135	2613324	DISTRACT_END	n/a	n/a	n/a	-999	22	[0, 0, 0]	n/a	FR1	0	R1128E
2606.896	0.648	2614459	REC_START	n/a	n/a	n/a	-999	22	[0, 0, 0]	n/a	FR1	0	R1128E
2607.544	1.034	2615107	REC_WORD	1.034	n/a	SQUARE	1	22	[0, 0, 0]	n/a	FR1	0	R1128E
2608.578	0.983	2616140	REC_WORD	0.983	n/a	BOY	7	22	[0, 0, 0]	n/a	FR1	0	R1128E
2609.561	1.402	2617123	REC_WORD	1.402	n/a	DITCH	8	22	[0, 0, 0]	n/a	FR1	0	R1128E
2610.963	1.568	2618525	REC_WORD	1.568	n/a	TEA	10	22	[0, 0, 0]	n/a	FR1	0	R1128E
2612.531	11.773	2620093	REC_WORD	11.773	n/a	SPRING	-999	22	[0, 0, 0]	n/a	FR1	0	R1128E
2624.304	0.871	2631865	REC_WORD	0.871	n/a	SQUARE	1	22	[0, 0, 0]	n/a	FR1	0	R1128E
2625.175	11.73	2632736	REC_WORD	11.73	n/a	BEAN	2	22	[0, 0, 0]	n/a	FR1	0	R1128E
2636.905	2.879	2644466	REC_END	n/a	n/a	n/a	-999	22	[0, 0, 0]	n/a	FR1	0	R1128E
2639.784	0.0	2647344	TRIAL	n/a	n/a	n/a	-999	23	[0, 0, 0]	n/a	FR1	0	R1128E
2639.784	10.428	2647344	COUNTDOWN_START	n/a	n/a	n/a	-999	23	[0, 0, 0]	n/a	FR1	0	R1128E
2650.212	0.008	2657772	COUNTDOWN_END	n/a	n/a	n/a	-999	23	[0, 0, 0]	n/a	FR1	0	R1128E
2650.22	2.55	2657780	ORIENT	n/a	n/a	n/a	-999	23	[0, 0, 0]	n/a	FR1	0	R1128E
2652.77	2.484	2660329	WORD	n/a	wordpools/wordpool_EN.txt	TRAY	1	23	[0, 0, 0]	n/a	FR1	0	R1128E
2655.254	2.467	2662813	WORD	n/a	wordpools/wordpool_EN.txt	PET	2	23	[0, 0, 0]	n/a	FR1	0	R1128E
2657.721	2.534	2665280	WORD	n/a	wordpools/wordpool_EN.txt	CAKE	3	23	[0, 0, 0]	n/a	FR1	0	R1128E
2660.255	2.567	2667814	WORD	n/a	wordpools/wordpool_EN.txt	FUDGE	4	23	[0, 0, 0]	n/a	FR1	0	R1128E
2662.822	2.468	2670381	WORD	n/a	wordpools/wordpool_EN.txt	TEETH	5	23	[0, 0, 0]	n/a	FR1	0	R1128E
2665.29	2.382	2672849	WORD	n/a	wordpools/wordpool_EN.txt	GEESE	6	23	[0, 0, 0]	n/a	FR1	0	R1128E
2667.672	2.401	2675230	WORD	n/a	wordpools/wordpool_EN.txt	JUICE	7	23	[0, 0, 0]	n/a	FR1	0	R1128E
2670.073	2.5	2677631	WORD	n/a	wordpools/wordpool_EN.txt	MOUSE	8	23	[0, 0, 0]	n/a	FR1	0	R1128E
2672.573	2.535	2680131	WORD	n/a	wordpools/wordpool_EN.txt	EGG	9	23	[0, 0, 0]	n/a	FR1	0	R1128E
2675.108	2.466	2682666	WORD	n/a	wordpools/wordpool_EN.txt	FOOD	10	23	[0, 0, 0]	n/a	FR1	0	R1128E
2677.574	2.601	2685132	WORD	n/a	wordpools/wordpool_EN.txt	ANT	11	23	[0, 0, 0]	n/a	FR1	0	R1128E
2680.175	1.616	2687733	WORD	n/a	wordpools/wordpool_EN.txt	DUCK	12	23	[0, 0, 0]	n/a	FR1	0	R1128E
2681.791	0.001	2689348	DISTRACT_START	n/a	n/a	n/a	-999	23	[0, 0, 0]	n/a	FR1	0	R1128E
2681.792	0.017	2689349	START	n/a	n/a	n/a	-999	23	[-999, -999, -999]	n/a	FR1	0	R1128E
2681.809	6.201	2689366	PROB	6.201	n/a	n/a	-999	23	[2, 9, 5]	16	FR1	0	R1128E
2688.01	2.466	2695567	PROB	2.466	n/a	n/a	-999	23	[5, 5, 9]	19	FR1	0	R1128E
2690.476	2.752	2698033	PROB	2.752	n/a	n/a	-999	23	[5, 4, 1]	10	FR1	0	R1128E
2693.228	2.333	2700785	PROB	2.333	n/a	n/a	-999	23	[8, 1, 7]	16	FR1	0	R1128E
2695.561	1.816	2703117	PROB	1.816	n/a	n/a	-999	23	[5, 1, 1]	7	FR1	0	R1128E
2697.377	3.018	2704933	PROB	3.018	n/a	n/a	-999	23	[8, 1, 6]	15	FR1	0	R1128E
2700.395	1.991	2707951	PROB	1.991	n/a	n/a	-999	23	[4, 1, 2]	7	FR1	0	R1128E
2702.386	0.009	2709942	STOP	n/a	n/a	n/a	-999	23	[-999, -999, -999]	n/a	FR1	0	R1128E
2702.395	1.201	2709951	DISTRACT_END	n/a	n/a	n/a	-999	23	[0, 0, 0]	n/a	FR1	0	R1128E
2703.596	0.827	2711152	REC_START	n/a	n/a	n/a	-999	23	[0, 0, 0]	n/a	FR1	0	R1128E
2704.423	1.667	2711979	REC_WORD	1.667	n/a	TRAY	1	23	[0, 0, 0]	n/a	FR1	0	R1128E
2706.09	2.735	2713646	REC_WORD	2.735	n/a	PET	2	23	[0, 0, 0]	n/a	FR1	0	R1128E
2708.825	4.61	2716381	REC_WORD	4.61	n/a	FUDGE	4	23	[0, 0, 0]	n/a	FR1	0	R1128E
2713.435	0.693	2720990	REC_WORD	0.693	n/a	DUCK	12	23	[0, 0, 0]	n/a	FR1	0	R1128E
2714.128	4.109	2721683	REC_WORD	4.109	n/a	GOOSE	-999	23	[0, 0, 0]	n/a	FR1	0	R1128E
2718.237	15.367	2725792	REC_WORD	15.367	n/a	FOOD	10	23	[0, 0, 0]	n/a	FR1	0	R1128E
2733.604	1.531	2741158	REC_END	n/a	n/a	n/a	-999	23	[0, 0, 0]	n/a	FR1	0	R1128E
2735.135	0.0	2742689	TRIAL	n/a	n/a	n/a	-999	24	[0, 0, 0]	n/a	FR1	0	R1128E
2735.135	10.428	2742689	COUNTDOWN_START	n/a	n/a	n/a	-999	24	[0, 0, 0]	n/a	FR1	0	R1128E
2745.563	0.006	2753116	COUNTDOWN_END	n/a	n/a	n/a	-999	24	[0, 0, 0]	n/a	FR1	0	R1128E
2745.569	2.518	2753122	ORIENT	n/a	n/a	n/a	-999	24	[0, 0, 0]	n/a	FR1	0	R1128E
2748.087	2.417	2755640	WORD	n/a	wordpools/wordpool_EN.txt	FLAME	1	24	[0, 0, 0]	n/a	FR1	0	R1128E
2750.504	2.551	2758057	WORD	n/a	wordpools/wordpool_EN.txt	SPARK	2	24	[0, 0, 0]	n/a	FR1	0	R1128E
2753.055	2.533	2760608	WORD	n/a	wordpools/wordpool_EN.txt	LEG	3	24	[0, 0, 0]	n/a	FR1	0	R1128E
2755.588	2.568	2763140	WORD	n/a	wordpools/wordpool_EN.txt	BOWL	4	24	[0, 0, 0]	n/a	FR1	0	R1128E
2758.156	2.483	2765708	WORD	n/a	wordpools/wordpool_EN.txt	PURSE	5	24	[0, 0, 0]	n/a	FR1	0	R1128E
2760.639	2.601	2768191	WORD	n/a	wordpools/wordpool_EN.txt	NOSE	6	24	[0, 0, 0]	n/a	FR1	0	R1128E
2763.24	2.55	2770792	WORD	n/a	wordpools/wordpool_EN.txt	FACE	7	24	[0, 0, 0]	n/a	FR1	0	R1128E
2765.79	2.617	2773342	WORD	n/a	wordpools/wordpool_EN.txt	EEL	8	24	[0, 0, 0]	n/a	FR1	0	R1128E
2768.407	2.418	2775958	WORD	n/a	wordpools/wordpool_EN.txt	HOSE	9	24	[0, 0, 0]	n/a	FR1	0	R1128E
2770.825	2.434	2778376	WORD	n/a	wordpools/wordpool_EN.txt	CHAIR	10	24	[0, 0, 0]	n/a	FR1	0	R1128E
2773.259	2.432	2780810	WORD	n/a	wordpools/wordpool_EN.txt	SEAT	11	24	[0, 0, 0]	n/a	FR1	0	R1128E
2775.691	1.601	2783242	WORD	n/a	wordpools/wordpool_EN.txt	SUIT	12	24	[0, 0, 0]	n/a	FR1	0	R1128E
2777.292	0.001	2784843	DISTRACT_START	n/a	n/a	n/a	-999	24	[0, 0, 0]	n/a	FR1	0	R1128E
2777.293	0.016	2784844	START	n/a	n/a	n/a	-999	24	[-999, -999, -999]	n/a	FR1	0	R1128E
2777.309	5.134	2784860	PROB	5.134	n/a	n/a	-999	24	[9, 5, 6]	20	FR1	0	R1128E
2782.443	2.518	2789994	PROB	2.518	n/a	n/a	-999	24	[3, 7, 8]	18	FR1	0	R1128E
2784.961	2.566	2792511	PROB	2.566	n/a	n/a	-999	24	[4, 9, 6]	19	FR1	0	R1128E
2787.527	3.0	2795077	PROB	3.0	n/a	n/a	-999	24	[8, 4, 9]	21	FR1	0	R1128E
2790.527	3.101	2798077	PROB	3.101	n/a	n/a	-999	24	[3, 3, 2]	8	FR1	0	R1128E
2793.628	3.635	2801178	PROB	3.635	n/a	n/a	-999	24	[7, 9, 4]	20	FR1	0	R1128E
2797.263	3.993	2804813	PROB	3.993	n/a	n/a	-999	24	[6, 9, 3]	18	FR1	0	R1128E
2801.256	0.008	2808805	STOP	n/a	n/a	n/a	-999	24	[-999, -999, -999]	n/a	FR1	0	R1128E
2801.264	1.05	2808813	DISTRACT_END	n/a	n/a	n/a	-999	24	[0, 0, 0]	n/a	FR1	0	R1128E
2802.314	0.849	2809863	REC_START	n/a	n/a	n/a	-999	24	[0, 0, 0]	n/a	FR1	0	R1128E
2803.163	0.704	2810712	REC_WORD	0.704	n/a	FLAME	1	24	[0, 0, 0]	n/a	FR1	0	R1128E
2803.867	0.911	2811416	REC_WORD	0.911	n/a	SPARK	2	24	[0, 0, 0]	n/a	FR1	0	R1128E
2804.778	10.427	2812327	REC_WORD	10.427	n/a	LEG	3	24	[0, 0, 0]	n/a	FR1	0	R1128E
2815.205	8.481	2822753	REC_WORD	8.481	n/a	EEL	8	24	[0, 0, 0]	n/a	FR1	0	R1128E
2823.686	8.641	2831234	REC_WORD	8.641	n/a	LIP	-999	24	[0, 0, 0]	n/a	FR1	0	R1128E
2832.327	14.16	2839874	REC_END	n/a	n/a	n/a	-999	24	[0, 0, 0]	n/a	FR1	0	R1128E
2846.487	0.001	2854033	COUNTDOWN_START	n/a	n/a	n/a	-999	25	[0, 0, 0]	n/a	FR1	0	R1128E
2846.488	10.427	2854034	TRIAL	n/a	n/a	n/a	-999	25	[0, 0, 0]	n/a	FR1	0	R1128E
2856.915	0.008	2864460	COUNTDOWN_END	n/a	n/a	n/a	-999	25	[0, 0, 0]	n/a	FR1	0	R1128E
2856.923	2.433	2864468	ORIENT	n/a	n/a	n/a	-999	25	[0, 0, 0]	n/a	FR1	0	R1128E
2859.356	2.367	2866901	WORD	n/a	wordpools/wordpool_EN.txt	BARN	1	25	[0, 0, 0]	n/a	FR1	0	R1128E
2861.723	2.485	2869268	WORD	n/a	wordpools/wordpool_EN.txt	LAKE	2	25	[0, 0, 0]	n/a	FR1	0	R1128E
2864.208	2.533	2871753	WORD	n/a	wordpools/wordpool_EN.txt	CRANE	3	25	[0, 0, 0]	n/a	FR1	0	R1128E
2866.741	2.468	2874286	WORD	n/a	wordpools/wordpool_EN.txt	CANE	4	25	[0, 0, 0]	n/a	FR1	0	R1128E
2869.209	2.583	2876754	WORD	n/a	wordpools/wordpool_EN.txt	HEN	5	25	[0, 0, 0]	n/a	FR1	0	R1128E
2871.792	2.617	2879336	WORD	n/a	wordpools/wordpool_EN.txt	GRASS	6	25	[0, 0, 0]	n/a	FR1	0	R1128E
2874.409	2.518	2881953	WORD	n/a	wordpools/wordpool_EN.txt	JEEP	7	25	[0, 0, 0]	n/a	FR1	0	R1128E
2876.927	2.384	2884471	WORD	n/a	wordpools/wordpool_EN.txt	CORN	8	25	[0, 0, 0]	n/a	FR1	0	R1128E
2879.311	2.534	2886855	WORD	n/a	wordpools/wordpool_EN.txt	HILL	9	25	[0, 0, 0]	n/a	FR1	0	R1128E
2881.845	2.499	2889389	WORD	n/a	wordpools/wordpool_EN.txt	SLEEVE	10	25	[0, 0, 0]	n/a	FR1	0	R1128E
2884.344	2.434	2891888	WORD	n/a	wordpools/wordpool_EN.txt	OAR	11	25	[0, 0, 0]	n/a	FR1	0	R1128E
2886.778	1.617	2894321	WORD	n/a	wordpools/wordpool_EN.txt	TENT	12	25	[0, 0, 0]	n/a	FR1	0	R1128E
2888.395	0.0	2895938	DISTRACT_START	n/a	n/a	n/a	-999	25	[0, 0, 0]	n/a	FR1	0	R1128E
2888.395	0.016	2895938	START	n/a	n/a	n/a	-999	25	[-999, -999, -999]	n/a	FR1	0	R1128E
2888.411	2.284	2895954	PROB	2.284	n/a	n/a	-999	25	[6, 6, 1]	13	FR1	0	R1128E
2890.695	2.585	2898238	PROB	2.585	n/a	n/a	-999	25	[6, 7, 7]	20	FR1	0	R1128E
2893.28	2.6	2900823	PROB	2.6	n/a	n/a	-999	25	[9, 6, 1]	16	FR1	0	R1128E
2895.88	2.984	2903423	PROB	2.984	n/a	n/a	-999	25	[8, 3, 5]	17	FR1	0	R1128E
2898.864	3.7	2906407	PROB	3.7	n/a	n/a	-999	25	[7, 8, 7]	22	FR1	0	R1128E
2902.564	2.285	2910106	PROB	2.285	n/a	n/a	-999	25	[1, 7, 6]	14	FR1	0	R1128E
2904.849	3.965	2912391	PROB	3.965	n/a	n/a	-999	25	[5, 1, 8]	14	FR1	0	R1128E
2908.814	0.019	2916356	STOP	n/a	n/a	n/a	-999	25	[-999, -999, -999]	n/a	FR1	0	R1128E
2908.833	1.05	2916375	DISTRACT_END	n/a	n/a	n/a	-999	25	[0, 0, 0]	n/a	FR1	0	R1128E
2909.883	0.811	2917425	REC_START	n/a	n/a	n/a	-999	25	[0, 0, 0]	n/a	FR1	0	R1128E
2910.694	0.576	2918236	REC_WORD	0.576	n/a	BARN	1	25	[0, 0, 0]	n/a	FR1	0	R1128E
2911.27	1.994	2918812	REC_WORD	1.994	n/a	LAKE	2	25	[0, 0, 0]	n/a	FR1	0	R1128E
2913.264	0.467	2920806	REC_WORD	0.467	n/a	CORN	8	25	[0, 0, 0]	n/a	FR1	0	R1128E
2913.731	0.473	2921272	REC_WORD	0.473	n/a	HILL	9	25	[0, 0, 0]	n/a	FR1	0	R1128E
2914.204	1.383	2921745	REC_WORD	1.383	n/a	SLEEVE	10	25	[0, 0, 0]	n/a	FR1	0	R1128E
2915.587	12.625	2923128	REC_WORD	12.625	n/a	OAR	11	25	[0, 0, 0]	n/a	FR1	0	R1128E
2928.212	11.684	2935752	REC_WORD	11.684	n/a	LAKE	2	25	[0, 0, 0]	n/a	FR1	0	R1128E
2939.896	7.843	2947436	REC_END	n/a	n/a	n/a	-999	25	[0, 0, 0]	n/a	FR1	0	R1128E
2947.739	0.0	2955278	SESS_END	n/a	n/a	n/a	-999	25	[0, 0, 0]	n/a	FR1	0	R1128E
