onset	duration	sample	trial_type	response_time	stim_file	item_name	serialpos	list	test	answer	experiment	session	subject
0.0	1.767	98703	INSTRUCT_START	n/a	n/a	n/a	-999	-999	[0, 0, 0]	n/a	FR1	0	R1423E
1.767	55.527	100472	INSTRUCT_END	n/a	n/a	n/a	-999	-999	[0, 0, 0]	n/a	FR1	0	R1423E
57.294	10.401	156002	COUNTDOWN_START	n/a	n/a	n/a	-999	-999	[0, 0, 0]	n/a	FR1	0	R1423E
67.695	0.0	166397	COUNTDOWN_END	n/a	n/a	n/a	-999	-999	[0, 0, 0]	n/a	FR1	0	R1423E
67.695	1.866	166407	ENCODING_START	n/a	n/a	n/a	-999	-1	[0, 0, 0]	n/a	FR1	0	R1423E
69.561	1.616	168262	WORD	n/a	n/a	GRILL	1	-1	[0, 0, 0]	n/a	FR1	0	R1423E
71.177	0.933	169879	WORD_OFF	n/a	n/a	GRILL	1	-1	[0, 0, 0]	n/a	FR1	0	R1423E
72.11	1.601	170818	WORD	n/a	n/a	CHEST	2	-1	[0, 0, 0]	n/a	FR1	0	R1423E
73.711	0.783	172413	WORD_OFF	n/a	n/a	CHEST	2	-1	[0, 0, 0]	n/a	FR1	0	R1423E
74.494	1.616	173200	WORD	n/a	n/a	CAPE	3	-1	[0, 0, 0]	n/a	FR1	0	R1423E
76.11	0.967	174818	WORD_OFF	n/a	n/a	CAPE	3	-1	[0, 0, 0]	n/a	FR1	0	R1423E
77.077	1.6	175778	WORD	n/a	n/a	WIFE	4	-1	[0, 0, 0]	n/a	FR1	0	R1423E
78.677	0.833	177384	WORD_OFF	n/a	n/a	WIFE	4	-1	[0, 0, 0]	n/a	FR1	0	R1423E
79.51	1.6	178214	WORD	n/a	n/a	FUR	5	-1	[0, 0, 0]	n/a	FR1	0	R1423E
81.11	0.851	179821	WORD_OFF	n/a	n/a	FUR	5	-1	[0, 0, 0]	n/a	FR1	0	R1423E
81.961	1.616	180662	WORD	n/a	n/a	PIN	6	-1	[0, 0, 0]	n/a	FR1	0	R1423E
83.577	0.833	182279	WORD_OFF	n/a	n/a	PIN	6	-1	[0, 0, 0]	n/a	FR1	0	R1423E
84.41	1.6	183120	WORD	n/a	n/a	STEAM	7	-1	[0, 0, 0]	n/a	FR1	0	R1423E
86.01	0.884	184727	WORD_OFF	n/a	n/a	STEAM	7	-1	[0, 0, 0]	n/a	FR1	0	R1423E
86.894	1.601	185600	WORD	n/a	n/a	TENT	8	-1	[0, 0, 0]	n/a	FR1	0	R1423E
88.495	0.798	187196	WORD_OFF	n/a	n/a	TENT	8	-1	[0, 0, 0]	n/a	FR1	0	R1423E
89.293	1.602	188005	WORD	n/a	n/a	FRUIT	9	-1	[0, 0, 0]	n/a	FR1	0	R1423E
90.895	0.833	189601	WORD_OFF	n/a	n/a	FRUIT	9	-1	[0, 0, 0]	n/a	FR1	0	R1423E
91.728	1.616	190431	WORD	n/a	n/a	ROPE	10	-1	[0, 0, 0]	n/a	FR1	0	R1423E
93.344	0.967	192048	WORD_OFF	n/a	n/a	ROPE	10	-1	[0, 0, 0]	n/a	FR1	0	R1423E
94.311	1.616	193019	WORD	n/a	n/a	GIRL	11	-1	[0, 0, 0]	n/a	FR1	0	R1423E
95.927	0.9	194636	WORD_OFF	n/a	n/a	GIRL	11	-1	[0, 0, 0]	n/a	FR1	0	R1423E
96.827	1.617	195531	WORD	n/a	n/a	CUBE	12	-1	[0, 0, 0]	n/a	FR1	0	R1423E
98.444	0.001	197149	WORD_OFF	n/a	n/a	CUBE	12	-1	[0, 0, 0]	n/a	FR1	0	R1423E
98.445	0.0	197149	ENCODING_END	n/a	n/a	n/a	-999	-1	[0, 0, 0]	n/a	FR1	0	R1423E
98.445	0.0	197150	START	n/a	n/a	n/a	-999	-1	[-999, -999, -999]	n/a	FR1	0	R1423E
98.445	0.0	197150	PROB	0.0	n/a	n/a	-999	-1	[5, 1, 1]	7	FR1	0	R1423E
98.445	15.082	197159	DISTRACT_START	n/a	n/a	n/a	-999	-1	[0, 0, 0]	n/a	FR1	0	R1423E
113.527	9.765	212232	PROB	9.765	n/a	n/a	-999	-1	[5, 7, 7]	19	FR1	0	R1423E
123.292	0.0	221997	STOP	n/a	n/a	n/a	-999	-1	[-999, -999, -999]	n/a	FR1	0	R1423E
123.292	2.1	222003	DISTRACT_END	n/a	n/a	n/a	-999	-1	[0, 0, 0]	n/a	FR1	0	R1423E
125.392	3.0	224102	REC_START	n/a	n/a	n/a	-999	-1	[0, 0, 0]	n/a	FR1	0	R1423E
128.392	1.34	227097	REC_WORD	1.34	n/a	GRILL	1	-1	[0, 0, 0]	n/a	FR1	0	R1423E
129.732	0.796	228437	REC_WORD	0.796	n/a	GIRL	11	-1	[0, 0, 0]	n/a	FR1	0	R1423E
130.528	6.688	229233	REC_WORD	6.688	n/a	CHEST	2	-1	[0, 0, 0]	n/a	FR1	0	R1423E
137.216	4.274	235921	REC_WORD	4.274	n/a	STEAM	7	-1	[0, 0, 0]	n/a	FR1	0	R1423E
141.49	14.172	240195	REC_WORD	14.172	n/a	FUR	5	-1	[0, 0, 0]	n/a	FR1	0	R1423E
155.662	6.896	254372	REC_END	n/a	n/a	n/a	-999	-1	[0, 0, 0]	n/a	FR1	0	R1423E
162.558	10.35	261262	COUNTDOWN_START	n/a	n/a	n/a	-999	1	[0, 0, 0]	n/a	FR1	0	R1423E
172.908	0.0	271613	COUNTDOWN_END	n/a	n/a	n/a	-999	1	[0, 0, 0]	n/a	FR1	0	R1423E
172.908	1.982	271613	ENCODING_START	n/a	n/a	n/a	-999	1	[0, 0, 0]	n/a	FR1	0	R1423E
174.89	1.618	273597	WORD	n/a	wordpools/wordpool_long_EN.txt	FRAME	1	1	[0, 0, 0]	n/a	FR1	0	R1423E
176.508	0.9	275215	WORD_OFF	n/a	n/a	FRAME	1	1	[0, 0, 0]	n/a	FR1	0	R1423E
177.408	1.616	276110	WORD	n/a	wordpools/wordpool_long_EN.txt	DART	2	1	[0, 0, 0]	n/a	FR1	0	R1423E
179.024	0.817	277727	WORD_OFF	n/a	n/a	DART	2	1	[0, 0, 0]	n/a	FR1	0	R1423E
179.841	1.617	278546	WORD	n/a	wordpools/wordpool_long_EN.txt	SWAMP	3	1	[0, 0, 0]	n/a	FR1	0	R1423E
181.458	0.948	280164	WORD_OFF	n/a	n/a	SWAMP	3	1	[0, 0, 0]	n/a	FR1	0	R1423E
182.406	1.601	281113	WORD	n/a	wordpools/wordpool_long_EN.txt	TOWN	4	1	[0, 0, 0]	n/a	FR1	0	R1423E
184.007	0.934	282719	WORD_OFF	n/a	n/a	TOWN	4	1	[0, 0, 0]	n/a	FR1	0	R1423E
184.941	1.616	283647	WORD	n/a	wordpools/wordpool_long_EN.txt	HEART	5	1	[0, 0, 0]	n/a	FR1	0	R1423E
186.557	0.916	285264	WORD_OFF	n/a	n/a	HEART	5	1	[0, 0, 0]	n/a	FR1	0	R1423E
187.473	1.617	286181	WORD	n/a	wordpools/wordpool_long_EN.txt	SINK	6	1	[0, 0, 0]	n/a	FR1	0	R1423E
189.09	0.983	287798	WORD_OFF	n/a	n/a	SINK	6	1	[0, 0, 0]	n/a	FR1	0	R1423E
190.073	1.601	288779	WORD	n/a	wordpools/wordpool_long_EN.txt	CRANE	7	1	[0, 0, 0]	n/a	FR1	0	R1423E
191.674	0.933	290375	WORD_OFF	n/a	n/a	CRANE	7	1	[0, 0, 0]	n/a	FR1	0	R1423E
192.607	1.616	291313	WORD	n/a	wordpools/wordpool_long_EN.txt	SKI	8	1	[0, 0, 0]	n/a	FR1	0	R1423E
194.223	0.917	292930	WORD_OFF	n/a	n/a	SKI	8	1	[0, 0, 0]	n/a	FR1	0	R1423E
195.14	1.602	293847	WORD	n/a	wordpools/wordpool_long_EN.txt	DOCK	9	1	[0, 0, 0]	n/a	FR1	0	R1423E
196.742	0.798	295443	WORD_OFF	n/a	n/a	DOCK	9	1	[0, 0, 0]	n/a	FR1	0	R1423E
197.54	1.617	296252	WORD	n/a	wordpools/wordpool_long_EN.txt	SLIDE	10	1	[0, 0, 0]	n/a	FR1	0	R1423E
199.157	0.883	297858	WORD_OFF	n/a	n/a	SLIDE	10	1	[0, 0, 0]	n/a	FR1	0	R1423E
200.04	1.6	298742	WORD	n/a	wordpools/wordpool_long_EN.txt	BOY	11	1	[0, 0, 0]	n/a	FR1	0	R1423E
201.64	0.899	300349	WORD_OFF	n/a	n/a	BOY	11	1	[0, 0, 0]	n/a	FR1	0	R1423E
202.539	1.601	301244	WORD	n/a	wordpools/wordpool_long_EN.txt	HEDGE	12	1	[0, 0, 0]	n/a	FR1	0	R1423E
204.14	0.001	302845	PROB	0.001	n/a	n/a	-999	1	[6, 6, 8]	20	FR1	0	R1423E
204.141	0.0	302846	START	n/a	n/a	n/a	-999	1	[-999, -999, -999]	n/a	FR1	0	R1423E
204.14	0.001	302850	WORD_OFF	n/a	n/a	HEDGE	12	1	[0, 0, 0]	n/a	FR1	0	R1423E
204.141	0.0	302850	ENCODING_END	n/a	n/a	n/a	-999	1	[0, 0, 0]	n/a	FR1	0	R1423E
204.141	7.116	302850	DISTRACT_START	n/a	n/a	n/a	-999	1	[0, 0, 0]	n/a	FR1	0	R1423E
211.257	4.382	309962	PROB	4.382	n/a	n/a	-999	1	[7, 5, 6]	18	FR1	0	R1423E
215.639	3.384	314344	PROB	3.384	n/a	n/a	-999	1	[2, 5, 4]	11	FR1	0	R1423E
219.023	3.534	317728	PROB	3.534	n/a	n/a	-999	1	[7, 4, 2]	13	FR1	0	R1423E
222.557	6.732	321262	PROB	6.732	n/a	n/a	-999	1	[3, 4, 2]	9	FR1	0	R1423E
229.289	0.0	327994	STOP	n/a	n/a	n/a	-999	1	[-999, -999, -999]	n/a	FR1	0	R1423E
229.289	2.067	327995	DISTRACT_END	n/a	n/a	n/a	-999	1	[0, 0, 0]	n/a	FR1	0	R1423E
231.356	3.654	330063	REC_START	n/a	n/a	n/a	-999	1	[0, 0, 0]	n/a	FR1	0	R1423E
235.01	1.553	333715	REC_WORD	1.553	n/a	BOY	11	1	[0, 0, 0]	n/a	FR1	0	R1423E
236.563	1.727	335268	REC_WORD	1.727	n/a	SKI	8	1	[0, 0, 0]	n/a	FR1	0	R1423E
238.29	1.978	336995	REC_WORD	1.978	n/a	DOCK	9	1	[0, 0, 0]	n/a	FR1	0	R1423E
240.268	21.433	338973	REC_WORD	21.433	n/a	SLIDE	10	1	[0, 0, 0]	n/a	FR1	0	R1423E
261.701	2.187	360408	REC_END	n/a	n/a	n/a	-999	1	[0, 0, 0]	n/a	FR1	0	R1423E
263.888	10.351	362597	COUNTDOWN_START	n/a	n/a	n/a	-999	2	[0, 0, 0]	n/a	FR1	0	R1423E
274.239	0.0	372948	COUNTDOWN_END	n/a	n/a	n/a	-999	2	[0, 0, 0]	n/a	FR1	0	R1423E
274.239	2.098	372948	ENCODING_START	n/a	n/a	n/a	-999	2	[0, 0, 0]	n/a	FR1	0	R1423E
276.337	1.601	375040	WORD	n/a	wordpools/wordpool_long_EN.txt	SWORD	1	2	[0, 0, 0]	n/a	FR1	0	R1423E
277.938	0.916	376647	WORD_OFF	n/a	n/a	SWORD	1	2	[0, 0, 0]	n/a	FR1	0	R1423E
278.854	1.616	377563	WORD	n/a	wordpools/wordpool_long_EN.txt	RUST	2	2	[0, 0, 0]	n/a	FR1	0	R1423E
280.47	0.867	379180	WORD_OFF	n/a	n/a	RUST	2	2	[0, 0, 0]	n/a	FR1	0	R1423E
281.337	1.616	380043	WORD	n/a	wordpools/wordpool_long_EN.txt	LACE	3	2	[0, 0, 0]	n/a	FR1	0	R1423E
282.953	0.884	381660	WORD_OFF	n/a	n/a	LACE	3	2	[0, 0, 0]	n/a	FR1	0	R1423E
283.837	1.6	382545	WORD	n/a	wordpools/wordpool_long_EN.txt	TEETH	4	2	[0, 0, 0]	n/a	FR1	0	R1423E
285.437	0.85	384140	WORD_OFF	n/a	n/a	TEETH	4	2	[0, 0, 0]	n/a	FR1	0	R1423E
286.287	1.616	384992	WORD	n/a	wordpools/wordpool_long_EN.txt	MAT	5	2	[0, 0, 0]	n/a	FR1	0	R1423E
287.903	0.766	386610	WORD_OFF	n/a	n/a	MAT	5	2	[0, 0, 0]	n/a	FR1	0	R1423E
288.669	1.617	387375	WORD	n/a	wordpools/wordpool_long_EN.txt	PAIL	6	2	[0, 0, 0]	n/a	FR1	0	R1423E
290.286	0.851	388993	WORD_OFF	n/a	n/a	PAIL	6	2	[0, 0, 0]	n/a	FR1	0	R1423E
291.137	1.616	389844	WORD	n/a	wordpools/wordpool_long_EN.txt	ROD	7	2	[0, 0, 0]	n/a	FR1	0	R1423E
292.753	0.784	391462	WORD_OFF	n/a	n/a	ROD	7	2	[0, 0, 0]	n/a	FR1	0	R1423E
293.537	1.6	392238	WORD	n/a	wordpools/wordpool_long_EN.txt	STEM	8	2	[0, 0, 0]	n/a	FR1	0	R1423E
295.137	0.8	393845	WORD_OFF	n/a	n/a	STEM	8	2	[0, 0, 0]	n/a	FR1	0	R1423E
295.937	1.617	394643	WORD	n/a	wordpools/wordpool_long_EN.txt	GROUND	9	2	[0, 0, 0]	n/a	FR1	0	R1423E
297.554	0.782	396260	WORD_OFF	n/a	n/a	GROUND	9	2	[0, 0, 0]	n/a	FR1	0	R1423E
298.336	1.601	397047	WORD	n/a	wordpools/wordpool_long_EN.txt	OAR	10	2	[0, 0, 0]	n/a	FR1	0	R1423E
299.937	0.917	398643	WORD_OFF	n/a	n/a	OAR	10	2	[0, 0, 0]	n/a	FR1	0	R1423E
300.854	1.616	399560	WORD	n/a	wordpools/wordpool_long_EN.txt	BEAST	11	2	[0, 0, 0]	n/a	FR1	0	R1423E
302.47	0.867	401177	WORD_OFF	n/a	n/a	BEAST	11	2	[0, 0, 0]	n/a	FR1	0	R1423E
303.337	1.616	402040	WORD	n/a	wordpools/wordpool_long_EN.txt	POOL	12	2	[0, 0, 0]	n/a	FR1	0	R1423E
304.953	0.002	403657	WORD_OFF	n/a	n/a	POOL	12	2	[0, 0, 0]	n/a	FR1	0	R1423E
304.955	0.0	403657	ENCODING_END	n/a	n/a	n/a	-999	2	[0, 0, 0]	n/a	FR1	0	R1423E
304.954	0.001	403659	PROB	0.001	n/a	n/a	-999	2	[7, 8, 6]	21	FR1	0	R1423E
304.955	0.0	403660	START	n/a	n/a	n/a	-999	2	[-999, -999, -999]	n/a	FR1	0	R1423E
304.955	4.882	403668	DISTRACT_START	n/a	n/a	n/a	-999	2	[0, 0, 0]	n/a	FR1	0	R1423E
309.837	3.483	408542	PROB	3.483	n/a	n/a	-999	2	[6, 7, 6]	18	FR1	0	R1423E
313.32	5.783	412025	PROB	5.783	n/a	n/a	-999	2	[7, 1, 8]	16	FR1	0	R1423E
319.103	2.467	417808	PROB	2.467	n/a	n/a	-999	2	[1, 7, 3]	11	FR1	0	R1423E
321.57	2.333	420275	PROB	2.333	n/a	n/a	-999	2	[3, 1, 7]	11	FR1	0	R1423E
323.903	3.2	422608	PROB	3.2	n/a	n/a	-999	2	[1, 6, 8]	15	FR1	0	R1423E
327.103	0.0	425804	DISTRACT_END	n/a	n/a	n/a	-999	2	[0, 0, 0]	n/a	FR1	0	R1423E
327.103	2.333	425808	STOP	n/a	n/a	n/a	-999	2	[-999, -999, -999]	n/a	FR1	0	R1423E
329.436	3.403	428141	REC_START	n/a	n/a	n/a	-999	2	[0, 0, 0]	n/a	FR1	0	R1423E
332.839	4.545	431544	REC_WORD	4.545	n/a	PAIL	6	2	[0, 0, 0]	n/a	FR1	0	R1423E
337.384	22.394	436089	REC_WORD	22.394	n/a	TEETH	4	2	[0, 0, 0]	n/a	FR1	0	R1423E
359.778	3.44	458487	REC_END	n/a	n/a	n/a	-999	2	[0, 0, 0]	n/a	FR1	0	R1423E
363.218	10.35	461926	COUNTDOWN_START	n/a	n/a	n/a	-999	3	[0, 0, 0]	n/a	FR1	0	R1423E
373.568	0.0	472277	COUNTDOWN_END	n/a	n/a	n/a	-999	3	[0, 0, 0]	n/a	FR1	0	R1423E
373.568	1.966	472277	ENCODING_START	n/a	n/a	n/a	-999	3	[0, 0, 0]	n/a	FR1	0	R1423E
375.534	1.6	474240	WORD	n/a	wordpools/wordpool_long_EN.txt	SHIP	1	3	[0, 0, 0]	n/a	FR1	0	R1423E
377.134	0.933	475836	WORD_OFF	n/a	n/a	SHIP	1	3	[0, 0, 0]	n/a	FR1	0	R1423E
378.067	1.6	476774	WORD	n/a	wordpools/wordpool_long_EN.txt	GOLD	2	3	[0, 0, 0]	n/a	FR1	0	R1423E
379.667	0.982	478370	WORD_OFF	n/a	n/a	GOLD	2	3	[0, 0, 0]	n/a	FR1	0	R1423E
380.649	1.602	479351	WORD	n/a	wordpools/wordpool_long_EN.txt	GOAL	3	3	[0, 0, 0]	n/a	FR1	0	R1423E
382.251	0.816	480957	WORD_OFF	n/a	n/a	GOAL	3	3	[0, 0, 0]	n/a	FR1	0	R1423E
383.067	1.617	481777	WORD	n/a	wordpools/wordpool_long_EN.txt	FORT	4	3	[0, 0, 0]	n/a	FR1	0	R1423E
384.684	0.883	483394	WORD_OFF	n/a	n/a	FORT	4	3	[0, 0, 0]	n/a	FR1	0	R1423E
385.567	1.601	484278	WORD	n/a	wordpools/wordpool_long_EN.txt	LAND	5	3	[0, 0, 0]	n/a	FR1	0	R1423E
387.168	0.783	485874	WORD_OFF	n/a	n/a	LAND	5	3	[0, 0, 0]	n/a	FR1	0	R1423E
387.951	1.616	486661	WORD	n/a	wordpools/wordpool_long_EN.txt	SEAT	6	3	[0, 0, 0]	n/a	FR1	0	R1423E
389.567	0.866	488268	WORD_OFF	n/a	n/a	SEAT	6	3	[0, 0, 0]	n/a	FR1	0	R1423E
390.433	1.617	489141	WORD	n/a	wordpools/wordpool_long_EN.txt	STONE	7	3	[0, 0, 0]	n/a	FR1	0	R1423E
392.05	0.816	490759	WORD_OFF	n/a	n/a	STONE	7	3	[0, 0, 0]	n/a	FR1	0	R1423E
392.866	1.6	491578	WORD	n/a	wordpools/wordpool_long_EN.txt	TAIL	8	3	[0, 0, 0]	n/a	FR1	0	R1423E
394.466	0.95	493174	WORD_OFF	n/a	n/a	TAIL	8	3	[0, 0, 0]	n/a	FR1	0	R1423E
395.416	1.601	494123	WORD	n/a	wordpools/wordpool_long_EN.txt	SNACK	9	3	[0, 0, 0]	n/a	FR1	0	R1423E
397.017	0.883	495719	WORD_OFF	n/a	n/a	SNACK	9	3	[0, 0, 0]	n/a	FR1	0	R1423E
397.9	1.6	496603	WORD	n/a	wordpools/wordpool_long_EN.txt	JUDGE	10	3	[0, 0, 0]	n/a	FR1	0	R1423E
399.5	0.967	498210	WORD_OFF	n/a	n/a	JUDGE	10	3	[0, 0, 0]	n/a	FR1	0	R1423E
400.467	1.6	499169	WORD	n/a	wordpools/wordpool_long_EN.txt	FLEA	11	3	[0, 0, 0]	n/a	FR1	0	R1423E
402.067	0.9	500776	WORD_OFF	n/a	n/a	FLEA	11	3	[0, 0, 0]	n/a	FR1	0	R1423E
402.967	1.601	501671	WORD	n/a	wordpools/wordpool_long_EN.txt	TREE	12	3	[0, 0, 0]	n/a	FR1	0	R1423E
404.568	0.0	503273	START	n/a	n/a	n/a	-999	3	[-999, -999, -999]	n/a	FR1	0	R1423E
404.568	0.0	503273	PROB	0.0	n/a	n/a	-999	3	[7, 6, 3]	16	FR1	0	R1423E
404.567	0.001	503277	WORD_OFF	n/a	n/a	TREE	12	3	[0, 0, 0]	n/a	FR1	0	R1423E
404.568	0.0	503277	ENCODING_END	n/a	n/a	n/a	-999	3	[0, 0, 0]	n/a	FR1	0	R1423E
404.568	3.649	503277	DISTRACT_START	n/a	n/a	n/a	-999	3	[0, 0, 0]	n/a	FR1	0	R1423E
408.217	6.949	506922	PROB	6.949	n/a	n/a	-999	3	[7, 4, 8]	19	FR1	0	R1423E
415.166	3.601	513871	PROB	3.601	n/a	n/a	-999	3	[7, 7, 7]	21	FR1	0	R1423E
418.767	4.633	517472	PROB	4.633	n/a	n/a	-999	3	[8, 4, 2]	14	FR1	0	R1423E
423.4	3.065	522105	PROB	3.065	n/a	n/a	-999	3	[6, 8, 8]	22	FR1	0	R1423E
426.465	0.0	525166	DISTRACT_END	n/a	n/a	n/a	-999	3	[0, 0, 0]	n/a	FR1	0	R1423E
426.465	2.168	525170	STOP	n/a	n/a	n/a	-999	3	[-999, -999, -999]	n/a	FR1	0	R1423E
428.633	1.593	527341	REC_START	n/a	n/a	n/a	-999	3	[0, 0, 0]	n/a	FR1	0	R1423E
430.226	2.248	528931	REC_WORD	2.248	n/a	FORT	4	3	[0, 0, 0]	n/a	FR1	0	R1423E
432.474	2.798	531179	REC_WORD	2.798	n/a	GOLD	2	3	[0, 0, 0]	n/a	FR1	0	R1423E
435.272	23.707	533977	REC_WORD	23.707	n/a	GOAL	3	3	[0, 0, 0]	n/a	FR1	0	R1423E
458.979	3.269	557686	REC_END	n/a	n/a	n/a	-999	3	[0, 0, 0]	n/a	FR1	0	R1423E
462.248	10.35	560954	COUNTDOWN_START	n/a	n/a	n/a	-999	4	[0, 0, 0]	n/a	FR1	0	R1423E
472.598	0.0	571305	COUNTDOWN_END	n/a	n/a	n/a	-999	4	[0, 0, 0]	n/a	FR1	0	R1423E
472.598	2.199	571305	ENCODING_START	n/a	n/a	n/a	-999	4	[0, 0, 0]	n/a	FR1	0	R1423E
474.797	1.6	573505	WORD	n/a	wordpools/wordpool_long_EN.txt	TROUT	1	4	[0, 0, 0]	n/a	FR1	0	R1423E
476.397	0.817	575100	WORD_OFF	n/a	n/a	TROUT	1	4	[0, 0, 0]	n/a	FR1	0	R1423E
477.214	1.6	575920	WORD	n/a	wordpools/wordpool_long_EN.txt	HAZE	2	4	[0, 0, 0]	n/a	FR1	0	R1423E
478.814	0.916	577516	WORD_OFF	n/a	n/a	HAZE	2	4	[0, 0, 0]	n/a	FR1	0	R1423E
479.73	1.6	578432	WORD	n/a	wordpools/wordpool_long_EN.txt	SLIME	3	4	[0, 0, 0]	n/a	FR1	0	R1423E
481.33	0.817	580039	WORD_OFF	n/a	n/a	SLIME	3	4	[0, 0, 0]	n/a	FR1	0	R1423E
482.147	1.616	580858	WORD	n/a	wordpools/wordpool_long_EN.txt	STAR	4	4	[0, 0, 0]	n/a	FR1	0	R1423E
483.763	0.85	582465	WORD_OFF	n/a	n/a	STAR	4	4	[0, 0, 0]	n/a	FR1	0	R1423E
484.613	1.616	583317	WORD	n/a	wordpools/wordpool_long_EN.txt	STEAK	5	4	[0, 0, 0]	n/a	FR1	0	R1423E
486.229	0.867	584934	WORD_OFF	n/a	n/a	STEAK	5	4	[0, 0, 0]	n/a	FR1	0	R1423E
487.096	1.6	585807	WORD	n/a	wordpools/wordpool_long_EN.txt	BEAK	6	4	[0, 0, 0]	n/a	FR1	0	R1423E
488.696	0.784	587403	WORD_OFF	n/a	n/a	BEAK	6	4	[0, 0, 0]	n/a	FR1	0	R1423E
489.48	1.616	588190	WORD	n/a	wordpools/wordpool_long_EN.txt	WORLD	7	4	[0, 0, 0]	n/a	FR1	0	R1423E
491.096	0.934	589799	WORD_OFF	n/a	n/a	WORLD	7	4	[0, 0, 0]	n/a	FR1	0	R1423E
492.03	1.616	590735	WORD	n/a	wordpools/wordpool_long_EN.txt	STICK	8	4	[0, 0, 0]	n/a	FR1	0	R1423E
493.646	0.767	592353	WORD_OFF	n/a	n/a	STICK	8	4	[0, 0, 0]	n/a	FR1	0	R1423E
494.413	1.6	593118	WORD	n/a	wordpools/wordpool_long_EN.txt	DRINK	9	4	[0, 0, 0]	n/a	FR1	0	R1423E
496.013	0.817	594725	WORD_OFF	n/a	n/a	DRINK	9	4	[0, 0, 0]	n/a	FR1	0	R1423E
496.83	1.617	595533	WORD	n/a	wordpools/wordpool_long_EN.txt	BROOK	10	4	[0, 0, 0]	n/a	FR1	0	R1423E
498.447	0.883	597151	WORD_OFF	n/a	n/a	BROOK	10	4	[0, 0, 0]	n/a	FR1	0	R1423E
499.33	1.617	598035	WORD	n/a	wordpools/wordpool_long_EN.txt	CLAY	11	4	[0, 0, 0]	n/a	FR1	0	R1423E
500.947	0.767	599663	WORD_OFF	n/a	n/a	CLAY	11	4	[0, 0, 0]	n/a	FR1	0	R1423E
501.714	1.601	600418	WORD	n/a	wordpools/wordpool_long_EN.txt	ARCH	12	4	[0, 0, 0]	n/a	FR1	0	R1423E
503.315	0.001	602020	PROB	0.001	n/a	n/a	-999	4	[2, 6, 6]	14	FR1	0	R1423E
503.316	0.0	602021	START	n/a	n/a	n/a	-999	4	[-999, -999, -999]	n/a	FR1	0	R1423E
503.314	0.002	602024	WORD_OFF	n/a	n/a	ARCH	12	4	[0, 0, 0]	n/a	FR1	0	R1423E
503.316	0.0	602024	ENCODING_END	n/a	n/a	n/a	-999	4	[0, 0, 0]	n/a	FR1	0	R1423E
503.316	8.014	602024	DISTRACT_START	n/a	n/a	n/a	-999	4	[0, 0, 0]	n/a	FR1	0	R1423E
511.33	1.9	610035	PROB	1.9	n/a	n/a	-999	4	[7, 1, 5]	13	FR1	0	R1423E
513.23	2.317	611935	PROB	2.317	n/a	n/a	-999	4	[2, 8, 4]	14	FR1	0	R1423E
515.547	4.616	614252	PROB	4.616	n/a	n/a	-999	4	[3, 8, 6]	17	FR1	0	R1423E
520.163	3.833	618868	PROB	3.833	n/a	n/a	-999	4	[8, 7, 4]	19	FR1	0	R1423E
523.996	0.0	622701	STOP	n/a	n/a	n/a	-999	4	[-999, -999, -999]	n/a	FR1	0	R1423E
523.996	2.183	622706	DISTRACT_END	n/a	n/a	n/a	-999	4	[0, 0, 0]	n/a	FR1	0	R1423E
526.179	2.694	624881	REC_START	n/a	n/a	n/a	-999	4	[0, 0, 0]	n/a	FR1	0	R1423E
528.873	1.641	627578	REC_WORD	1.641	n/a	STAR	4	4	[0, 0, 0]	n/a	FR1	0	R1423E
530.514	3.513	629219	REC_WORD	3.513	n/a	TROUT	1	4	[0, 0, 0]	n/a	FR1	0	R1423E
534.027	3.406	632732	REC_WORD	3.406	n/a	BEAK	6	4	[0, 0, 0]	n/a	FR1	0	R1423E
537.433	5.04	636138	REC_WORD	5.04	n/a	STREET	-999	4	[0, 0, 0]	n/a	FR1	0	R1423E
542.473	14.058	641178	REC_WORD	14.058	n/a	WORLD	7	4	[0, 0, 0]	n/a	FR1	0	R1423E
556.531	1.83	655237	REC_END	n/a	n/a	n/a	-999	4	[0, 0, 0]	n/a	FR1	0	R1423E
558.361	10.35	657070	COUNTDOWN_START	n/a	n/a	n/a	-999	5	[0, 0, 0]	n/a	FR1	0	R1423E
568.711	0.001	667421	COUNTDOWN_END	n/a	n/a	n/a	-999	5	[0, 0, 0]	n/a	FR1	0	R1423E
568.712	2.232	667421	ENCODING_START	n/a	n/a	n/a	-999	5	[0, 0, 0]	n/a	FR1	0	R1423E
570.944	1.6	669653	WORD	n/a	wordpools/wordpool_long_EN.txt	STORE	1	5	[0, 0, 0]	n/a	FR1	0	R1423E
572.544	0.8	671249	WORD_OFF	n/a	n/a	STORE	1	5	[0, 0, 0]	n/a	FR1	0	R1423E
573.344	1.6	672047	WORD	n/a	wordpools/wordpool_long_EN.txt	SLUG	2	5	[0, 0, 0]	n/a	FR1	0	R1423E
574.944	0.817	673653	WORD_OFF	n/a	n/a	SLUG	2	5	[0, 0, 0]	n/a	FR1	0	R1423E
575.761	1.616	674462	WORD	n/a	wordpools/wordpool_long_EN.txt	YOLK	3	5	[0, 0, 0]	n/a	FR1	0	R1423E
577.377	0.967	676079	WORD_OFF	n/a	n/a	YOLK	3	5	[0, 0, 0]	n/a	FR1	0	R1423E
578.344	1.617	677050	WORD	n/a	wordpools/wordpool_long_EN.txt	CHIEF	4	5	[0, 0, 0]	n/a	FR1	0	R1423E
579.961	0.766	678667	WORD_OFF	n/a	n/a	CHIEF	4	5	[0, 0, 0]	n/a	FR1	0	R1423E
580.727	1.6	679433	WORD	n/a	wordpools/wordpool_long_EN.txt	MOUTH	5	5	[0, 0, 0]	n/a	FR1	0	R1423E
582.327	1.0	681029	WORD_OFF	n/a	n/a	MOUTH	5	5	[0, 0, 0]	n/a	FR1	0	R1423E
583.327	1.6	682031	WORD	n/a	wordpools/wordpool_long_EN.txt	FLAME	6	5	[0, 0, 0]	n/a	FR1	0	R1423E
584.927	0.8	683638	WORD_OFF	n/a	n/a	FLAME	6	5	[0, 0, 0]	n/a	FR1	0	R1423E
585.727	1.6	684436	WORD	n/a	wordpools/wordpool_long_EN.txt	BEEF	7	5	[0, 0, 0]	n/a	FR1	0	R1423E
587.327	0.816	686032	WORD_OFF	n/a	n/a	BEEF	7	5	[0, 0, 0]	n/a	FR1	0	R1423E
588.143	1.601	686851	WORD	n/a	wordpools/wordpool_long_EN.txt	STRAW	8	5	[0, 0, 0]	n/a	FR1	0	R1423E
589.744	0.9	688447	WORD_OFF	n/a	n/a	STRAW	8	5	[0, 0, 0]	n/a	FR1	0	R1423E
590.644	1.615	689353	WORD	n/a	wordpools/wordpool_long_EN.txt	CHEEK	9	5	[0, 0, 0]	n/a	FR1	0	R1423E
592.259	0.801	690970	WORD_OFF	n/a	n/a	CHEEK	9	5	[0, 0, 0]	n/a	FR1	0	R1423E
593.06	1.6	691768	WORD	n/a	wordpools/wordpool_long_EN.txt	MAP	10	5	[0, 0, 0]	n/a	FR1	0	R1423E
594.66	0.933	693364	WORD_OFF	n/a	n/a	MAP	10	5	[0, 0, 0]	n/a	FR1	0	R1423E
595.593	1.617	694302	WORD	n/a	wordpools/wordpool_long_EN.txt	TART	11	5	[0, 0, 0]	n/a	FR1	0	R1423E
597.21	0.816	695919	WORD_OFF	n/a	n/a	TART	11	5	[0, 0, 0]	n/a	FR1	0	R1423E
598.026	1.601	696728	WORD	n/a	wordpools/wordpool_long_EN.txt	MUD	12	5	[0, 0, 0]	n/a	FR1	0	R1423E
599.627	0.001	698332	PROB	0.001	n/a	n/a	-999	5	[3, 3, 8]	14	FR1	0	R1423E
599.628	0.0	698333	START	n/a	n/a	n/a	-999	5	[-999, -999, -999]	n/a	FR1	0	R1423E
599.626	0.002	698335	WORD_OFF	n/a	n/a	MUD	12	5	[0, 0, 0]	n/a	FR1	0	R1423E
599.628	0.0	698335	ENCODING_END	n/a	n/a	n/a	-999	5	[0, 0, 0]	n/a	FR1	0	R1423E
599.628	5.182	698335	DISTRACT_START	n/a	n/a	n/a	-999	5	[0, 0, 0]	n/a	FR1	0	R1423E
604.81	3.9	703515	PROB	3.9	n/a	n/a	-999	5	[7, 6, 5]	18	FR1	0	R1423E
608.71	1.933	707415	PROB	1.933	n/a	n/a	-999	5	[2, 1, 8]	11	FR1	0	R1423E
610.643	3.1	709348	PROB	3.1	n/a	n/a	-999	5	[2, 6, 3]	11	FR1	0	R1423E
613.743	1.684	712448	PROB	1.684	n/a	n/a	-999	5	[4, 5, 2]	11	FR1	0	R1423E
615.427	5.431	714132	PROB	5.431	n/a	n/a	-999	5	[7, 8, 1]	16	FR1	0	R1423E
620.858	0.0	719563	STOP	n/a	n/a	n/a	-999	5	[-999, -999, -999]	n/a	FR1	0	R1423E
620.858	2.101	719566	DISTRACT_END	n/a	n/a	n/a	-999	5	[0, 0, 0]	n/a	FR1	0	R1423E
622.959	0.966	721665	REC_START	n/a	n/a	n/a	-999	5	[0, 0, 0]	n/a	FR1	0	R1423E
623.925	1.744	722630	REC_WORD	1.744	n/a	STORE	1	5	[0, 0, 0]	n/a	FR1	0	R1423E
625.669	2.133	724374	REC_WORD	2.133	n/a	MOUTH	5	5	[0, 0, 0]	n/a	FR1	0	R1423E
627.802	25.502	726507	REC_WORD	25.502	n/a	FLAME	6	5	[0, 0, 0]	n/a	FR1	0	R1423E
653.304	1.404	752010	REC_END	n/a	n/a	n/a	-999	5	[0, 0, 0]	n/a	FR1	0	R1423E
654.708	10.35	753412	COUNTDOWN_START	n/a	n/a	n/a	-999	6	[0, 0, 0]	n/a	FR1	0	R1423E
665.058	0.0	763764	COUNTDOWN_END	n/a	n/a	n/a	-999	6	[0, 0, 0]	n/a	FR1	0	R1423E
665.058	1.95	763764	ENCODING_START	n/a	n/a	n/a	-999	6	[0, 0, 0]	n/a	FR1	0	R1423E
667.008	1.616	765715	WORD	n/a	wordpools/wordpool_long_EN.txt	TOOL	1	6	[0, 0, 0]	n/a	FR1	0	R1423E
668.624	0.867	767333	WORD_OFF	n/a	n/a	TOOL	1	6	[0, 0, 0]	n/a	FR1	0	R1423E
669.491	1.616	768195	WORD	n/a	wordpools/wordpool_long_EN.txt	MASK	2	6	[0, 0, 0]	n/a	FR1	0	R1423E
671.107	0.917	769813	WORD_OFF	n/a	n/a	MASK	2	6	[0, 0, 0]	n/a	FR1	0	R1423E
672.024	1.616	770729	WORD	n/a	wordpools/wordpool_long_EN.txt	SPOUSE	3	6	[0, 0, 0]	n/a	FR1	0	R1423E
673.64	0.934	772346	WORD_OFF	n/a	n/a	SPOUSE	3	6	[0, 0, 0]	n/a	FR1	0	R1423E
674.574	1.616	773285	WORD	n/a	wordpools/wordpool_long_EN.txt	CHIN	4	6	[0, 0, 0]	n/a	FR1	0	R1423E
676.19	0.967	774891	WORD_OFF	n/a	n/a	CHIN	4	6	[0, 0, 0]	n/a	FR1	0	R1423E
677.157	1.616	775862	WORD	n/a	wordpools/wordpool_long_EN.txt	SLEEVE	5	6	[0, 0, 0]	n/a	FR1	0	R1423E
678.773	0.767	777479	WORD_OFF	n/a	n/a	SLEEVE	5	6	[0, 0, 0]	n/a	FR1	0	R1423E
679.54	1.617	778245	WORD	n/a	wordpools/wordpool_long_EN.txt	NET	6	6	[0, 0, 0]	n/a	FR1	0	R1423E
681.157	0.816	779862	WORD_OFF	n/a	n/a	NET	6	6	[0, 0, 0]	n/a	FR1	0	R1423E
681.973	1.617	780681	WORD	n/a	wordpools/wordpool_long_EN.txt	WEB	7	6	[0, 0, 0]	n/a	FR1	0	R1423E
683.59	1.0	782299	WORD_OFF	n/a	n/a	WEB	7	6	[0, 0, 0]	n/a	FR1	0	R1423E
684.59	1.616	783291	WORD	n/a	wordpools/wordpool_long_EN.txt	GIFT	8	6	[0, 0, 0]	n/a	FR1	0	R1423E
686.206	0.767	784908	WORD_OFF	n/a	n/a	GIFT	8	6	[0, 0, 0]	n/a	FR1	0	R1423E
686.973	1.617	785685	WORD	n/a	wordpools/wordpool_long_EN.txt	FOAM	9	6	[0, 0, 0]	n/a	FR1	0	R1423E
688.59	0.949	787291	WORD_OFF	n/a	n/a	FOAM	9	6	[0, 0, 0]	n/a	FR1	0	R1423E
689.539	1.601	788251	WORD	n/a	wordpools/wordpool_long_EN.txt	TANK	10	6	[0, 0, 0]	n/a	FR1	0	R1423E
691.14	0.833	789847	WORD_OFF	n/a	n/a	TANK	10	6	[0, 0, 0]	n/a	FR1	0	R1423E
691.973	1.616	790677	WORD	n/a	wordpools/wordpool_long_EN.txt	PEA	11	6	[0, 0, 0]	n/a	FR1	0	R1423E
693.589	0.867	792294	WORD_OFF	n/a	n/a	PEA	11	6	[0, 0, 0]	n/a	FR1	0	R1423E
694.456	1.616	793160	WORD	n/a	wordpools/wordpool_long_EN.txt	LOCK	12	6	[0, 0, 0]	n/a	FR1	0	R1423E
696.072	0.001	794774	WORD_OFF	n/a	n/a	LOCK	12	6	[0, 0, 0]	n/a	FR1	0	R1423E
696.073	0.001	794778	PROB	0.001	n/a	n/a	-999	6	[5, 4, 6]	15	FR1	0	R1423E
696.074	0.0	794779	START	n/a	n/a	n/a	-999	6	[-999, -999, -999]	n/a	FR1	0	R1423E
696.073	0.001	794785	ENCODING_END	n/a	n/a	n/a	-999	6	[0, 0, 0]	n/a	FR1	0	R1423E
696.074	4.066	794785	DISTRACT_START	n/a	n/a	n/a	-999	6	[0, 0, 0]	n/a	FR1	0	R1423E
700.14	1.966	798845	PROB	1.966	n/a	n/a	-999	6	[2, 4, 8]	14	FR1	0	R1423E
702.106	4.534	800811	PROB	4.534	n/a	n/a	-999	6	[3, 5, 1]	9	FR1	0	R1423E
706.64	2.75	805345	PROB	2.75	n/a	n/a	-999	6	[8, 4, 6]	18	FR1	0	R1423E
709.39	2.116	808095	PROB	2.116	n/a	n/a	-999	6	[1, 5, 6]	12	FR1	0	R1423E
711.506	1.9	810211	PROB	1.9	n/a	n/a	-999	6	[6, 2, 3]	11	FR1	0	R1423E
713.406	3.25	812111	PROB	3.25	n/a	n/a	-999	6	[8, 6, 3]	17	FR1	0	R1423E
716.656	0.0	815358	DISTRACT_END	n/a	n/a	n/a	-999	6	[0, 0, 0]	n/a	FR1	0	R1423E
716.656	2.049	815361	STOP	n/a	n/a	n/a	-999	6	[-999, -999, -999]	n/a	FR1	0	R1423E
718.705	0.905	817415	REC_START	n/a	n/a	n/a	-999	6	[0, 0, 0]	n/a	FR1	0	R1423E
719.61	1.441	818315	REC_WORD	1.441	n/a	GIFT	8	6	[0, 0, 0]	n/a	FR1	0	R1423E
721.051	1.911	819756	REC_WORD	1.911	n/a	FOAM	9	6	[0, 0, 0]	n/a	FR1	0	R1423E
722.962	13.303	821667	REC_WORD	13.303	n/a	TANK	10	6	[0, 0, 0]	n/a	FR1	0	R1423E
736.265	12.77	834970	REC_WORD	12.77	n/a	PEA	11	6	[0, 0, 0]	n/a	FR1	0	R1423E
749.035	1.419	847738	REC_END	n/a	n/a	n/a	-999	6	[0, 0, 0]	n/a	FR1	0	R1423E
750.454	10.351	849162	COUNTDOWN_START	n/a	n/a	n/a	-999	7	[0, 0, 0]	n/a	FR1	0	R1423E
760.805	0.0	859513	COUNTDOWN_END	n/a	n/a	n/a	-999	7	[0, 0, 0]	n/a	FR1	0	R1423E
760.805	2.099	859513	ENCODING_START	n/a	n/a	n/a	-999	7	[0, 0, 0]	n/a	FR1	0	R1423E
762.904	1.616	861616	WORD	n/a	wordpools/wordpool_long_EN.txt	RAKE	1	7	[0, 0, 0]	n/a	FR1	0	R1423E
764.52	0.984	863222	WORD_OFF	n/a	n/a	RAKE	1	7	[0, 0, 0]	n/a	FR1	0	R1423E
765.504	1.617	864214	WORD	n/a	wordpools/wordpool_long_EN.txt	STAIR	2	7	[0, 0, 0]	n/a	FR1	0	R1423E
767.121	0.833	865832	WORD_OFF	n/a	n/a	STAIR	2	7	[0, 0, 0]	n/a	FR1	0	R1423E
767.954	1.6	866662	WORD	n/a	wordpools/wordpool_long_EN.txt	DIME	3	7	[0, 0, 0]	n/a	FR1	0	R1423E
769.554	0.9	868258	WORD_OFF	n/a	n/a	DIME	3	7	[0, 0, 0]	n/a	FR1	0	R1423E
770.454	1.616	869163	WORD	n/a	wordpools/wordpool_long_EN.txt	CLAM	4	7	[0, 0, 0]	n/a	FR1	0	R1423E
772.07	0.833	870781	WORD_OFF	n/a	n/a	CLAM	4	7	[0, 0, 0]	n/a	FR1	0	R1423E
772.903	1.601	871611	WORD	n/a	wordpools/wordpool_long_EN.txt	SPOOL	5	7	[0, 0, 0]	n/a	FR1	0	R1423E
774.504	0.8	873207	WORD_OFF	n/a	n/a	SPOOL	5	7	[0, 0, 0]	n/a	FR1	0	R1423E
775.304	1.616	874005	WORD	n/a	wordpools/wordpool_long_EN.txt	WRIST	6	7	[0, 0, 0]	n/a	FR1	0	R1423E
776.92	0.883	875622	WORD_OFF	n/a	n/a	WRIST	6	7	[0, 0, 0]	n/a	FR1	0	R1423E
777.803	1.6	876506	WORD	n/a	wordpools/wordpool_long_EN.txt	PEARL	7	7	[0, 0, 0]	n/a	FR1	0	R1423E
779.403	0.817	878113	WORD_OFF	n/a	n/a	PEARL	7	7	[0, 0, 0]	n/a	FR1	0	R1423E
780.22	1.616	878922	WORD	n/a	wordpools/wordpool_long_EN.txt	SUIT	8	7	[0, 0, 0]	n/a	FR1	0	R1423E
781.836	0.884	880539	WORD_OFF	n/a	n/a	SUIT	8	7	[0, 0, 0]	n/a	FR1	0	R1423E
782.72	1.616	881423	WORD	n/a	wordpools/wordpool_long_EN.txt	CLOWN	9	7	[0, 0, 0]	n/a	FR1	0	R1423E
784.336	0.917	883041	WORD_OFF	n/a	n/a	CLOWN	9	7	[0, 0, 0]	n/a	FR1	0	R1423E
785.253	1.617	883957	WORD	n/a	wordpools/wordpool_long_EN.txt	NAIL	10	7	[0, 0, 0]	n/a	FR1	0	R1423E
786.87	0.916	885575	WORD_OFF	n/a	n/a	NAIL	10	7	[0, 0, 0]	n/a	FR1	0	R1423E
787.786	1.6	886491	WORD	n/a	wordpools/wordpool_long_EN.txt	CRIB	11	7	[0, 0, 0]	n/a	FR1	0	R1423E
789.386	0.985	888098	WORD_OFF	n/a	n/a	CRIB	11	7	[0, 0, 0]	n/a	FR1	0	R1423E
790.371	1.598	889079	WORD	n/a	wordpools/wordpool_long_EN.txt	WEED	12	7	[0, 0, 0]	n/a	FR1	0	R1423E
791.969	0.002	890675	WORD_OFF	n/a	n/a	WEED	12	7	[0, 0, 0]	n/a	FR1	0	R1423E
791.971	0.0	890675	ENCODING_END	n/a	n/a	n/a	-999	7	[0, 0, 0]	n/a	FR1	0	R1423E
791.97	0.001	890675	PROB	0.001	n/a	n/a	-999	7	[4, 6, 8]	18	FR1	0	R1423E
791.971	0.0	890676	START	n/a	n/a	n/a	-999	7	[-999, -999, -999]	n/a	FR1	0	R1423E
791.971	3.799	890686	DISTRACT_START	n/a	n/a	n/a	-999	7	[0, 0, 0]	n/a	FR1	0	R1423E
795.77	2.116	894475	PROB	2.116	n/a	n/a	-999	7	[8, 2, 7]	17	FR1	0	R1423E
797.886	2.934	896591	PROB	2.934	n/a	n/a	-999	7	[4, 8, 6]	18	FR1	0	R1423E
800.82	2.15	899525	PROB	2.15	n/a	n/a	-999	7	[5, 4, 1]	10	FR1	0	R1423E
802.97	2.55	901675	PROB	2.55	n/a	n/a	-999	7	[5, 2, 8]	15	FR1	0	R1423E
805.52	3.7	904225	PROB	3.7	n/a	n/a	-999	7	[7, 7, 4]	18	FR1	0	R1423E
809.22	2.435	907925	PROB	2.435	n/a	n/a	-999	7	[7, 6, 5]	18	FR1	0	R1423E
811.655	3.33	910360	PROB	3.33	n/a	n/a	-999	7	[4, 3, 4]	11	FR1	0	R1423E
814.985	0.0	913690	STOP	n/a	n/a	n/a	-999	7	[-999, -999, -999]	n/a	FR1	0	R1423E
814.985	2.151	913696	DISTRACT_END	n/a	n/a	n/a	-999	7	[0, 0, 0]	n/a	FR1	0	R1423E
817.136	3.476	915839	REC_START	n/a	n/a	n/a	-999	7	[0, 0, 0]	n/a	FR1	0	R1423E
820.612	26.875	919317	REC_WORD	26.875	n/a	RAKE	1	7	[0, 0, 0]	n/a	FR1	0	R1423E
847.487	2.331	946194	REC_END	n/a	n/a	n/a	-999	7	[0, 0, 0]	n/a	FR1	0	R1423E
849.818	10.35	948523	COUNTDOWN_START	n/a	n/a	n/a	-999	8	[0, 0, 0]	n/a	FR1	0	R1423E
860.168	0.0	958875	COUNTDOWN_END	n/a	n/a	n/a	-999	8	[0, 0, 0]	n/a	FR1	0	R1423E
860.168	1.933	958875	ENCODING_START	n/a	n/a	n/a	-999	8	[0, 0, 0]	n/a	FR1	0	R1423E
862.101	1.616	960805	WORD	n/a	wordpools/wordpool_long_EN.txt	FRIEND	1	8	[0, 0, 0]	n/a	FR1	0	R1423E
863.717	0.901	962422	WORD_OFF	n/a	n/a	FRIEND	1	8	[0, 0, 0]	n/a	FR1	0	R1423E
864.618	1.616	963328	WORD	n/a	wordpools/wordpool_long_EN.txt	GLASS	2	8	[0, 0, 0]	n/a	FR1	0	R1423E
866.234	0.883	964945	WORD_OFF	n/a	n/a	GLASS	2	8	[0, 0, 0]	n/a	FR1	0	R1423E
867.117	1.6	965819	WORD	n/a	wordpools/wordpool_long_EN.txt	CHILD	3	8	[0, 0, 0]	n/a	FR1	0	R1423E
868.717	1.0	967425	WORD_OFF	n/a	n/a	CHILD	3	8	[0, 0, 0]	n/a	FR1	0	R1423E
869.717	1.6	968428	WORD	n/a	wordpools/wordpool_long_EN.txt	MOUSE	4	8	[0, 0, 0]	n/a	FR1	0	R1423E
871.317	0.95	970024	WORD_OFF	n/a	n/a	MOUSE	4	8	[0, 0, 0]	n/a	FR1	0	R1423E
872.267	1.6	970973	WORD	n/a	wordpools/wordpool_long_EN.txt	YARN	5	8	[0, 0, 0]	n/a	FR1	0	R1423E
873.867	1.0	972569	WORD_OFF	n/a	n/a	YARN	5	8	[0, 0, 0]	n/a	FR1	0	R1423E
874.867	1.616	973571	WORD	n/a	wordpools/wordpool_long_EN.txt	OX	6	8	[0, 0, 0]	n/a	FR1	0	R1423E
876.483	0.85	975189	WORD_OFF	n/a	n/a	OX	6	8	[0, 0, 0]	n/a	FR1	0	R1423E
877.333	1.617	976041	WORD	n/a	wordpools/wordpool_long_EN.txt	FARM	7	8	[0, 0, 0]	n/a	FR1	0	R1423E
878.95	0.817	977658	WORD_OFF	n/a	n/a	FARM	7	8	[0, 0, 0]	n/a	FR1	0	R1423E
879.767	1.616	978477	WORD	n/a	wordpools/wordpool_long_EN.txt	FILM	8	8	[0, 0, 0]	n/a	FR1	0	R1423E
881.383	0.817	980084	WORD_OFF	n/a	n/a	FILM	8	8	[0, 0, 0]	n/a	FR1	0	R1423E
882.2	1.616	980904	WORD	n/a	wordpools/wordpool_long_EN.txt	SLUSH	9	8	[0, 0, 0]	n/a	FR1	0	R1423E
883.816	0.767	982521	WORD_OFF	n/a	n/a	SLUSH	9	8	[0, 0, 0]	n/a	FR1	0	R1423E
884.583	1.616	983286	WORD	n/a	wordpools/wordpool_long_EN.txt	WING	10	8	[0, 0, 0]	n/a	FR1	0	R1423E
886.199	0.884	984904	WORD_OFF	n/a	n/a	WING	10	8	[0, 0, 0]	n/a	FR1	0	R1423E
887.083	1.6	985788	WORD	n/a	wordpools/wordpool_long_EN.txt	PASTE	11	8	[0, 0, 0]	n/a	FR1	0	R1423E
888.683	0.866	987384	WORD_OFF	n/a	n/a	PASTE	11	8	[0, 0, 0]	n/a	FR1	0	R1423E
889.549	1.6	988257	WORD	n/a	wordpools/wordpool_long_EN.txt	SHOE	12	8	[0, 0, 0]	n/a	FR1	0	R1423E
891.149	0.002	989853	WORD_OFF	n/a	n/a	SHOE	12	8	[0, 0, 0]	n/a	FR1	0	R1423E
891.151	0.0	989853	ENCODING_END	n/a	n/a	n/a	-999	8	[0, 0, 0]	n/a	FR1	0	R1423E
891.151	0.0	989853	DISTRACT_START	n/a	n/a	n/a	-999	8	[0, 0, 0]	n/a	FR1	0	R1423E
891.15	0.001	989855	PROB	0.001	n/a	n/a	-999	8	[8, 4, 8]	20	FR1	0	R1423E
891.151	6.648	989856	START	n/a	n/a	n/a	-999	8	[-999, -999, -999]	n/a	FR1	0	R1423E
897.799	2.15	996504	PROB	2.15	n/a	n/a	-999	8	[3, 7, 7]	17	FR1	0	R1423E
899.949	2.667	998654	PROB	2.667	n/a	n/a	-999	8	[5, 3, 5]	13	FR1	0	R1423E
902.616	2.7	1001321	PROB	2.7	n/a	n/a	-999	8	[8, 1, 6]	15	FR1	0	R1423E
905.316	2.266	1004021	PROB	2.266	n/a	n/a	-999	8	[7, 8, 1]	16	FR1	0	R1423E
907.582	4.95	1006287	PROB	4.95	n/a	n/a	-999	8	[8, 6, 6]	20	FR1	0	R1423E
912.532	0.0	1011235	DISTRACT_END	n/a	n/a	n/a	-999	8	[0, 0, 0]	n/a	FR1	0	R1423E
912.532	2.017	1011237	STOP	n/a	n/a	n/a	-999	8	[-999, -999, -999]	n/a	FR1	0	R1423E
914.549	0.835	1013259	REC_START	n/a	n/a	n/a	-999	8	[0, 0, 0]	n/a	FR1	0	R1423E
915.384	1.499	1014089	REC_WORD	1.499	n/a	FRIEND	1	8	[0, 0, 0]	n/a	FR1	0	R1423E
916.883	3.47	1015588	REC_WORD	3.47	n/a	GLASS	2	8	[0, 0, 0]	n/a	FR1	0	R1423E
920.353	8.475	1019058	REC_WORD	8.475	n/a	MOUSE	4	8	[0, 0, 0]	n/a	FR1	0	R1423E
928.828	16.078	1027533	REC_WORD	16.078	n/a	CHILD	3	8	[0, 0, 0]	n/a	FR1	0	R1423E
944.906	1.959	1043615	REC_END	n/a	n/a	n/a	-999	8	[0, 0, 0]	n/a	FR1	0	R1423E
946.865	10.35	1045578	COUNTDOWN_START	n/a	n/a	n/a	-999	9	[0, 0, 0]	n/a	FR1	0	R1423E
957.215	0.0	1055918	COUNTDOWN_END	n/a	n/a	n/a	-999	9	[0, 0, 0]	n/a	FR1	0	R1423E
957.215	1.933	1055929	ENCODING_START	n/a	n/a	n/a	-999	9	[0, 0, 0]	n/a	FR1	0	R1423E
959.148	1.6	1057859	WORD	n/a	wordpools/wordpool_long_EN.txt	VASE	1	9	[0, 0, 0]	n/a	FR1	0	R1423E
960.748	0.916	1059455	WORD_OFF	n/a	n/a	VASE	1	9	[0, 0, 0]	n/a	FR1	0	R1423E
961.664	1.6	1060371	WORD	n/a	wordpools/wordpool_long_EN.txt	TILE	2	9	[0, 0, 0]	n/a	FR1	0	R1423E
963.264	0.967	1061967	WORD_OFF	n/a	n/a	TILE	2	9	[0, 0, 0]	n/a	FR1	0	R1423E
964.231	1.616	1062938	WORD	n/a	wordpools/wordpool_long_EN.txt	LAMP	3	9	[0, 0, 0]	n/a	FR1	0	R1423E
965.847	0.816	1064555	WORD_OFF	n/a	n/a	LAMP	3	9	[0, 0, 0]	n/a	FR1	0	R1423E
966.663	1.601	1065374	WORD	n/a	wordpools/wordpool_long_EN.txt	CLOCK	4	9	[0, 0, 0]	n/a	FR1	0	R1423E
968.264	0.815	1066970	WORD_OFF	n/a	n/a	CLOCK	4	9	[0, 0, 0]	n/a	FR1	0	R1423E
969.079	1.601	1067790	WORD	n/a	wordpools/wordpool_long_EN.txt	LAWN	5	9	[0, 0, 0]	n/a	FR1	0	R1423E
970.68	0.95	1069386	WORD_OFF	n/a	n/a	LAWN	5	9	[0, 0, 0]	n/a	FR1	0	R1423E
971.63	1.617	1070334	WORD	n/a	wordpools/wordpool_long_EN.txt	WAND	6	9	[0, 0, 0]	n/a	FR1	0	R1423E
973.247	0.8	1071952	WORD_OFF	n/a	n/a	WAND	6	9	[0, 0, 0]	n/a	FR1	0	R1423E
974.047	1.616	1072750	WORD	n/a	wordpools/wordpool_long_EN.txt	WOOD	7	9	[0, 0, 0]	n/a	FR1	0	R1423E
975.663	0.933	1074367	WORD_OFF	n/a	n/a	WOOD	7	9	[0, 0, 0]	n/a	FR1	0	R1423E
976.596	1.601	1075305	WORD	n/a	wordpools/wordpool_long_EN.txt	PARK	8	9	[0, 0, 0]	n/a	FR1	0	R1423E
978.197	0.783	1076901	WORD_OFF	n/a	n/a	PARK	8	9	[0, 0, 0]	n/a	FR1	0	R1423E
978.98	1.617	1077688	WORD	n/a	wordpools/wordpool_long_EN.txt	JET	9	9	[0, 0, 0]	n/a	FR1	0	R1423E
980.597	0.916	1079306	WORD_OFF	n/a	n/a	JET	9	9	[0, 0, 0]	n/a	FR1	0	R1423E
981.513	1.616	1080222	WORD	n/a	wordpools/wordpool_long_EN.txt	CORD	10	9	[0, 0, 0]	n/a	FR1	0	R1423E
983.129	0.917	1081839	WORD_OFF	n/a	n/a	CORD	10	9	[0, 0, 0]	n/a	FR1	0	R1423E
984.046	1.6	1082756	WORD	n/a	wordpools/wordpool_long_EN.txt	LOFT	11	9	[0, 0, 0]	n/a	FR1	0	R1423E
985.646	0.917	1084352	WORD_OFF	n/a	n/a	LOFT	11	9	[0, 0, 0]	n/a	FR1	0	R1423E
986.563	1.617	1085268	WORD	n/a	wordpools/wordpool_long_EN.txt	SPONGE	12	9	[0, 0, 0]	n/a	FR1	0	R1423E
988.18	0.0	1086885	PROB	0.0	n/a	n/a	-999	9	[1, 2, 1]	4	FR1	0	R1423E
988.179	0.002	1086886	WORD_OFF	n/a	n/a	SPONGE	12	9	[0, 0, 0]	n/a	FR1	0	R1423E
988.181	0.0	1086886	ENCODING_END	n/a	n/a	n/a	-999	9	[0, 0, 0]	n/a	FR1	0	R1423E
988.181	0.0	1086886	DISTRACT_START	n/a	n/a	n/a	-999	9	[0, 0, 0]	n/a	FR1	0	R1423E
988.181	2.799	1086886	START	n/a	n/a	n/a	-999	9	[-999, -999, -999]	n/a	FR1	0	R1423E
990.98	4.466	1089685	PROB	4.466	n/a	n/a	-999	9	[3, 5, 5]	13	FR1	0	R1423E
995.446	2.734	1094151	PROB	2.734	n/a	n/a	-999	9	[1, 5, 3]	9	FR1	0	R1423E
998.18	2.066	1096885	PROB	2.066	n/a	n/a	-999	9	[5, 2, 2]	9	FR1	0	R1423E
1000.246	3.783	1098951	PROB	3.783	n/a	n/a	-999	9	[6, 3, 4]	13	FR1	0	R1423E
1004.029	1.6	1102734	PROB	1.6	n/a	n/a	-999	9	[2, 1, 8]	11	FR1	0	R1423E
1005.629	1.683	1104334	PROB	1.683	n/a	n/a	-999	9	[3, 2, 6]	11	FR1	0	R1423E
1007.312	2.633	1106017	PROB	2.633	n/a	n/a	-999	9	[7, 6, 4]	17	FR1	0	R1423E
1009.945	0.0	1108650	STOP	n/a	n/a	n/a	-999	9	[-999, -999, -999]	n/a	FR1	0	R1423E
1009.945	2.401	1108656	DISTRACT_END	n/a	n/a	n/a	-999	9	[0, 0, 0]	n/a	FR1	0	R1423E
1012.346	0.764	1111058	REC_START	n/a	n/a	n/a	-999	9	[0, 0, 0]	n/a	FR1	0	R1423E
1013.11	1.267	1111815	REC_WORD	1.267	n/a	VASE	1	9	[0, 0, 0]	n/a	FR1	0	R1423E
1014.377	1.615	1113082	REC_WORD	1.615	n/a	TILE	2	9	[0, 0, 0]	n/a	FR1	0	R1423E
1015.992	4.86	1114697	REC_WORD	4.86	n/a	LAMP	3	9	[0, 0, 0]	n/a	FR1	0	R1423E
1020.852	21.843	1119557	REC_WORD	21.843	n/a	WOOD	7	9	[0, 0, 0]	n/a	FR1	0	R1423E
1042.695	1.916	1141403	REC_END	n/a	n/a	n/a	-999	9	[0, 0, 0]	n/a	FR1	0	R1423E
1044.611	10.35	1143322	COUNTDOWN_START	n/a	n/a	n/a	-999	10	[0, 0, 0]	n/a	FR1	0	R1423E
1054.961	0.0	1153662	COUNTDOWN_END	n/a	n/a	n/a	-999	10	[0, 0, 0]	n/a	FR1	0	R1423E
1054.961	2.15	1153673	ENCODING_START	n/a	n/a	n/a	-999	10	[0, 0, 0]	n/a	FR1	0	R1423E
1057.111	1.615	1155819	WORD	n/a	wordpools/wordpool_long_EN.txt	DITCH	1	10	[0, 0, 0]	n/a	FR1	0	R1423E
1058.726	1.001	1157436	WORD_OFF	n/a	n/a	DITCH	1	10	[0, 0, 0]	n/a	FR1	0	R1423E
1059.727	1.6	1158439	WORD	n/a	wordpools/wordpool_long_EN.txt	HOOD	2	10	[0, 0, 0]	n/a	FR1	0	R1423E
1061.327	0.9	1160035	WORD_OFF	n/a	n/a	HOOD	2	10	[0, 0, 0]	n/a	FR1	0	R1423E
1062.227	1.6	1160930	WORD	n/a	wordpools/wordpool_long_EN.txt	RUG	3	10	[0, 0, 0]	n/a	FR1	0	R1423E
1063.827	0.767	1162536	WORD_OFF	n/a	n/a	RUG	3	10	[0, 0, 0]	n/a	FR1	0	R1423E
1064.594	1.6	1163302	WORD	n/a	wordpools/wordpool_long_EN.txt	NEST	4	10	[0, 0, 0]	n/a	FR1	0	R1423E
1066.194	0.916	1164898	WORD_OFF	n/a	n/a	NEST	4	10	[0, 0, 0]	n/a	FR1	0	R1423E
1067.11	1.6	1165814	WORD	n/a	wordpools/wordpool_long_EN.txt	BRANCH	5	10	[0, 0, 0]	n/a	FR1	0	R1423E
1068.71	0.95	1167421	WORD_OFF	n/a	n/a	BRANCH	5	10	[0, 0, 0]	n/a	FR1	0	R1423E
1069.66	1.6	1168370	WORD	n/a	wordpools/wordpool_long_EN.txt	SNAIL	6	10	[0, 0, 0]	n/a	FR1	0	R1423E
1071.26	0.8	1169966	WORD_OFF	n/a	n/a	SNAIL	6	10	[0, 0, 0]	n/a	FR1	0	R1423E
1072.06	1.616	1170764	WORD	n/a	wordpools/wordpool_long_EN.txt	SHIELD	7	10	[0, 0, 0]	n/a	FR1	0	R1423E
1073.676	0.967	1172381	WORD_OFF	n/a	n/a	SHIELD	7	10	[0, 0, 0]	n/a	FR1	0	R1423E
1074.643	1.6	1173351	WORD	n/a	wordpools/wordpool_long_EN.txt	MOLE	8	10	[0, 0, 0]	n/a	FR1	0	R1423E
1076.243	1.0	1174947	WORD_OFF	n/a	n/a	MOLE	8	10	[0, 0, 0]	n/a	FR1	0	R1423E
1077.243	1.617	1175950	WORD	n/a	wordpools/wordpool_long_EN.txt	BENCH	9	10	[0, 0, 0]	n/a	FR1	0	R1423E
1078.86	0.8	1177567	WORD_OFF	n/a	n/a	BENCH	9	10	[0, 0, 0]	n/a	FR1	0	R1423E
1079.66	1.616	1178365	WORD	n/a	wordpools/wordpool_long_EN.txt	KEY	10	10	[0, 0, 0]	n/a	FR1	0	R1423E
1081.276	0.967	1179983	WORD_OFF	n/a	n/a	KEY	10	10	[0, 0, 0]	n/a	FR1	0	R1423E
1082.243	1.616	1180953	WORD	n/a	wordpools/wordpool_long_EN.txt	PIPE	11	10	[0, 0, 0]	n/a	FR1	0	R1423E
1083.859	0.884	1182571	WORD_OFF	n/a	n/a	PIPE	11	10	[0, 0, 0]	n/a	FR1	0	R1423E
1084.743	1.616	1183445	WORD	n/a	wordpools/wordpool_long_EN.txt	PORK	12	10	[0, 0, 0]	n/a	FR1	0	R1423E
1086.359	0.001	1185061	WORD_OFF	n/a	n/a	PORK	12	10	[0, 0, 0]	n/a	FR1	0	R1423E
1086.36	0.001	1185065	PROB	0.001	n/a	n/a	-999	10	[5, 7, 3]	15	FR1	0	R1423E
1086.361	0.0	1185066	START	n/a	n/a	n/a	-999	10	[-999, -999, -999]	n/a	FR1	0	R1423E
1086.361	0.0	1185072	ENCODING_END	n/a	n/a	n/a	-999	10	[0, 0, 0]	n/a	FR1	0	R1423E
1086.361	3.198	1185072	DISTRACT_START	n/a	n/a	n/a	-999	10	[0, 0, 0]	n/a	FR1	0	R1423E
1089.559	4.968	1188264	PROB	4.968	n/a	n/a	-999	10	[4, 3, 2]	9	FR1	0	R1423E
1094.527	3.949	1193232	PROB	3.949	n/a	n/a	-999	10	[4, 3, 8]	15	FR1	0	R1423E
1098.476	4.249	1197181	PROB	4.249	n/a	n/a	-999	10	[6, 8, 4]	18	FR1	0	R1423E
1102.725	3.167	1201430	PROB	3.167	n/a	n/a	-999	10	[7, 8, 5]	20	FR1	0	R1423E
1105.892	2.033	1204597	PROB	2.033	n/a	n/a	-999	10	[6, 2, 3]	11	FR1	0	R1423E
1107.925	0.0	1206626	DISTRACT_END	n/a	n/a	n/a	-999	10	[0, 0, 0]	n/a	FR1	0	R1423E
1107.925	2.283	1206630	STOP	n/a	n/a	n/a	-999	10	[-999, -999, -999]	n/a	FR1	0	R1423E
1110.208	1.34	1208910	REC_START	n/a	n/a	n/a	-999	10	[0, 0, 0]	n/a	FR1	0	R1423E
1111.548	3.576	1210253	REC_WORD	3.576	n/a	BRANCH	5	10	[0, 0, 0]	n/a	FR1	0	R1423E
1115.124	10.839	1213829	REC_WORD	10.839	n/a	SNAIL	6	10	[0, 0, 0]	n/a	FR1	0	R1423E
1125.963	14.598	1224668	REC_WORD	14.598	n/a	BENCH	9	10	[0, 0, 0]	n/a	FR1	0	R1423E
1140.561	1.466	1239265	REC_END	n/a	n/a	n/a	-999	10	[0, 0, 0]	n/a	FR1	0	R1423E
1142.027	10.347	1240732	COUNTDOWN_START	n/a	n/a	n/a	-999	11	[0, 0, 0]	n/a	FR1	0	R1423E
1152.374	0.0	1251083	COUNTDOWN_END	n/a	n/a	n/a	-999	11	[0, 0, 0]	n/a	FR1	0	R1423E
1152.374	2.083	1251083	ENCODING_START	n/a	n/a	n/a	-999	11	[0, 0, 0]	n/a	FR1	0	R1423E
1154.457	1.616	1253164	WORD	n/a	wordpools/wordpool_long_EN.txt	CAT	1	11	[0, 0, 0]	n/a	FR1	0	R1423E
1156.073	1.001	1254782	WORD_OFF	n/a	n/a	CAT	1	11	[0, 0, 0]	n/a	FR1	0	R1423E
1157.074	1.6	1255784	WORD	n/a	wordpools/wordpool_long_EN.txt	WOLF	2	11	[0, 0, 0]	n/a	FR1	0	R1423E
1158.674	0.899	1257380	WORD_OFF	n/a	n/a	WOLF	2	11	[0, 0, 0]	n/a	FR1	0	R1423E
1159.573	1.601	1258275	WORD	n/a	wordpools/wordpool_long_EN.txt	SOAP	3	11	[0, 0, 0]	n/a	FR1	0	R1423E
1161.174	0.766	1259882	WORD_OFF	n/a	n/a	SOAP	3	11	[0, 0, 0]	n/a	FR1	0	R1423E
1161.94	1.617	1260647	WORD	n/a	wordpools/wordpool_long_EN.txt	QUAIL	4	11	[0, 0, 0]	n/a	FR1	0	R1423E
1163.557	0.834	1262265	WORD_OFF	n/a	n/a	QUAIL	4	11	[0, 0, 0]	n/a	FR1	0	R1423E
1164.391	1.599	1263095	WORD	n/a	wordpools/wordpool_long_EN.txt	BOWL	5	11	[0, 0, 0]	n/a	FR1	0	R1423E
1165.99	0.95	1264691	WORD_OFF	n/a	n/a	BOWL	5	11	[0, 0, 0]	n/a	FR1	0	R1423E
1166.94	1.617	1265650	WORD	n/a	wordpools/wordpool_long_EN.txt	FOOD	6	11	[0, 0, 0]	n/a	FR1	0	R1423E
1168.557	0.85	1267257	WORD_OFF	n/a	n/a	FOOD	6	11	[0, 0, 0]	n/a	FR1	0	R1423E
1169.407	1.616	1268109	WORD	n/a	wordpools/wordpool_long_EN.txt	YACHT	7	11	[0, 0, 0]	n/a	FR1	0	R1423E
1171.023	0.8	1269726	WORD_OFF	n/a	n/a	YACHT	7	11	[0, 0, 0]	n/a	FR1	0	R1423E
1171.823	1.601	1270524	WORD	n/a	wordpools/wordpool_long_EN.txt	PALM	8	11	[0, 0, 0]	n/a	FR1	0	R1423E
1173.424	0.983	1272131	WORD_OFF	n/a	n/a	PALM	8	11	[0, 0, 0]	n/a	FR1	0	R1423E
1174.407	1.616	1273112	WORD	n/a	wordpools/wordpool_long_EN.txt	SHARK	9	11	[0, 0, 0]	n/a	FR1	0	R1423E
1176.023	0.85	1274729	WORD_OFF	n/a	n/a	SHARK	9	11	[0, 0, 0]	n/a	FR1	0	R1423E
1176.873	1.6	1275581	WORD	n/a	wordpools/wordpool_long_EN.txt	BATH	10	11	[0, 0, 0]	n/a	FR1	0	R1423E
1178.473	0.767	1277177	WORD_OFF	n/a	n/a	BATH	10	11	[0, 0, 0]	n/a	FR1	0	R1423E
1179.24	1.617	1277943	WORD	n/a	wordpools/wordpool_long_EN.txt	GLOBE	11	11	[0, 0, 0]	n/a	FR1	0	R1423E
1180.857	0.815	1279560	WORD_OFF	n/a	n/a	GLOBE	11	11	[0, 0, 0]	n/a	FR1	0	R1423E
1181.672	1.601	1280379	WORD	n/a	wordpools/wordpool_long_EN.txt	BAND	12	11	[0, 0, 0]	n/a	FR1	0	R1423E
1183.273	0.0	1281975	WORD_OFF	n/a	n/a	BAND	12	11	[0, 0, 0]	n/a	FR1	0	R1423E
1183.273	0.001	1281978	PROB	0.001	n/a	n/a	-999	11	[1, 5, 7]	13	FR1	0	R1423E
1183.274	0.0	1281979	START	n/a	n/a	n/a	-999	11	[-999, -999, -999]	n/a	FR1	0	R1423E
1183.274	0.0	1281986	ENCODING_END	n/a	n/a	n/a	-999	11	[0, 0, 0]	n/a	FR1	0	R1423E
1183.274	2.699	1281986	DISTRACT_START	n/a	n/a	n/a	-999	11	[0, 0, 0]	n/a	FR1	0	R1423E
1185.973	2.066	1284678	PROB	2.066	n/a	n/a	-999	11	[2, 6, 8]	16	FR1	0	R1423E
1188.039	2.134	1286744	PROB	2.134	n/a	n/a	-999	11	[2, 8, 7]	17	FR1	0	R1423E
1190.173	5.217	1288878	PROB	5.217	n/a	n/a	-999	11	[7, 7, 6]	20	FR1	0	R1423E
1195.39	2.0	1294095	PROB	2.0	n/a	n/a	-999	11	[5, 1, 1]	7	FR1	0	R1423E
1197.39	1.9	1296095	PROB	1.9	n/a	n/a	-999	11	[7, 1, 3]	11	FR1	0	R1423E
1199.29	1.65	1297995	PROB	1.65	n/a	n/a	-999	11	[1, 8, 3]	12	FR1	0	R1423E
1200.94	3.199	1299645	PROB	3.199	n/a	n/a	-999	11	[2, 1, 3]	6	FR1	0	R1423E
1204.139	0.0	1302844	STOP	n/a	n/a	n/a	-999	11	[-999, -999, -999]	n/a	FR1	0	R1423E
1204.139	2.399	1302850	DISTRACT_END	n/a	n/a	n/a	-999	11	[0, 0, 0]	n/a	FR1	0	R1423E
1206.538	1.197	1305241	REC_START	n/a	n/a	n/a	-999	11	[0, 0, 0]	n/a	FR1	0	R1423E
1207.735	5.711	1306440	REC_WORD	5.711	n/a	QUAIL	4	11	[0, 0, 0]	n/a	FR1	0	R1423E
1213.446	23.428	1312151	REC_WORD	23.428	n/a	SNAIL	-999	11	[0, 0, 0]	n/a	FR1	0	R1423E
1236.874	2.181	1335586	REC_END	n/a	n/a	n/a	-999	11	[0, 0, 0]	n/a	FR1	0	R1423E
1239.055	10.35	1337764	COUNTDOWN_START	n/a	n/a	n/a	-999	12	[0, 0, 0]	n/a	FR1	0	R1423E
1249.405	0.0	1348116	COUNTDOWN_END	n/a	n/a	n/a	-999	12	[0, 0, 0]	n/a	FR1	0	R1423E
1249.405	1.798	1348116	ENCODING_START	n/a	n/a	n/a	-999	12	[0, 0, 0]	n/a	FR1	0	R1423E
1251.203	1.601	1349906	WORD	n/a	wordpools/wordpool_long_EN.txt	CROWN	1	12	[0, 0, 0]	n/a	FR1	0	R1423E
1252.804	0.967	1351512	WORD_OFF	n/a	n/a	CROWN	1	12	[0, 0, 0]	n/a	FR1	0	R1423E
1253.771	1.6	1352472	WORD	n/a	wordpools/wordpool_long_EN.txt	CAGE	2	12	[0, 0, 0]	n/a	FR1	0	R1423E
1255.371	0.916	1354079	WORD_OFF	n/a	n/a	CAGE	2	12	[0, 0, 0]	n/a	FR1	0	R1423E
1256.287	1.617	1354995	WORD	n/a	wordpools/wordpool_long_EN.txt	SQUARE	3	12	[0, 0, 0]	n/a	FR1	0	R1423E
1257.904	0.833	1356612	WORD_OFF	n/a	n/a	SQUARE	3	12	[0, 0, 0]	n/a	FR1	0	R1423E
1258.737	1.617	1357443	WORD	n/a	wordpools/wordpool_long_EN.txt	HORN	4	12	[0, 0, 0]	n/a	FR1	0	R1423E
1260.354	0.983	1359060	WORD_OFF	n/a	n/a	HORN	4	12	[0, 0, 0]	n/a	FR1	0	R1423E
1261.337	1.6	1360041	WORD	n/a	wordpools/wordpool_long_EN.txt	POND	5	12	[0, 0, 0]	n/a	FR1	0	R1423E
1262.937	1.0	1361648	WORD_OFF	n/a	n/a	POND	5	12	[0, 0, 0]	n/a	FR1	0	R1423E
1263.937	1.6	1362640	WORD	n/a	wordpools/wordpool_long_EN.txt	PRINCE	6	12	[0, 0, 0]	n/a	FR1	0	R1423E
1265.537	0.816	1364247	WORD_OFF	n/a	n/a	PRINCE	6	12	[0, 0, 0]	n/a	FR1	0	R1423E
1266.353	1.601	1365055	WORD	n/a	wordpools/wordpool_long_EN.txt	FOX	7	12	[0, 0, 0]	n/a	FR1	0	R1423E
1267.954	0.766	1366662	WORD_OFF	n/a	n/a	FOX	7	12	[0, 0, 0]	n/a	FR1	0	R1423E
1268.72	1.617	1367427	WORD	n/a	wordpools/wordpool_long_EN.txt	BLADE	8	12	[0, 0, 0]	n/a	FR1	0	R1423E
1270.337	0.883	1369045	WORD_OFF	n/a	n/a	BLADE	8	12	[0, 0, 0]	n/a	FR1	0	R1423E
1271.22	1.6	1369929	WORD	n/a	wordpools/wordpool_long_EN.txt	WAVE	9	12	[0, 0, 0]	n/a	FR1	0	R1423E
1272.82	0.933	1371525	WORD_OFF	n/a	n/a	WAVE	9	12	[0, 0, 0]	n/a	FR1	0	R1423E
1273.753	1.617	1372463	WORD	n/a	wordpools/wordpool_long_EN.txt	GEESE	10	12	[0, 0, 0]	n/a	FR1	0	R1423E
1275.37	0.816	1374080	WORD_OFF	n/a	n/a	GEESE	10	12	[0, 0, 0]	n/a	FR1	0	R1423E
1276.186	1.616	1374889	WORD	n/a	wordpools/wordpool_long_EN.txt	YARD	11	12	[0, 0, 0]	n/a	FR1	0	R1423E
1277.802	0.835	1376506	WORD_OFF	n/a	n/a	YARD	11	12	[0, 0, 0]	n/a	FR1	0	R1423E
1278.637	1.6	1377347	WORD	n/a	wordpools/wordpool_long_EN.txt	HOOK	12	12	[0, 0, 0]	n/a	FR1	0	R1423E
1280.237	0.0	1378942	PROB	0.0	n/a	n/a	-999	12	[2, 5, 5]	12	FR1	0	R1423E
1280.237	0.001	1378943	WORD_OFF	n/a	n/a	HOOK	12	12	[0, 0, 0]	n/a	FR1	0	R1423E
1280.238	0.0	1378943	ENCODING_END	n/a	n/a	n/a	-999	12	[0, 0, 0]	n/a	FR1	0	R1423E
1280.238	0.0	1378943	DISTRACT_START	n/a	n/a	n/a	-999	12	[0, 0, 0]	n/a	FR1	0	R1423E
1280.238	2.616	1378943	START	n/a	n/a	n/a	-999	12	[-999, -999, -999]	n/a	FR1	0	R1423E
1282.854	2.866	1381559	PROB	2.866	n/a	n/a	-999	12	[2, 1, 3]	6	FR1	0	R1423E
1285.72	4.0	1384425	PROB	4.0	n/a	n/a	-999	12	[2, 5, 1]	8	FR1	0	R1423E
1289.72	4.32	1388425	PROB	4.32	n/a	n/a	-999	12	[3, 4, 8]	15	FR1	0	R1423E
1294.04	2.046	1392745	PROB	2.046	n/a	n/a	-999	12	[3, 4, 4]	11	FR1	0	R1423E
1296.086	2.117	1394791	PROB	2.117	n/a	n/a	-999	12	[2, 2, 5]	9	FR1	0	R1423E
1298.203	2.099	1396908	PROB	2.099	n/a	n/a	-999	12	[4, 5, 2]	11	FR1	0	R1423E
1300.302	0.0	1399007	STOP	n/a	n/a	n/a	-999	12	[-999, -999, -999]	n/a	FR1	0	R1423E
1300.302	2.117	1399010	DISTRACT_END	n/a	n/a	n/a	-999	12	[0, 0, 0]	n/a	FR1	0	R1423E
1302.419	2.385	1401120	REC_START	n/a	n/a	n/a	-999	12	[0, 0, 0]	n/a	FR1	0	R1423E
1304.804	27.969	1403509	REC_WORD	27.969	n/a	WAVE	9	12	[0, 0, 0]	n/a	FR1	0	R1423E
1332.773	0.0	1431476	REC_END	n/a	n/a	n/a	-999	12	[0, 0, 0]	n/a	FR1	0	R1423E
