onset	duration	sample	trial_type	response_time	stim_file	item_name	serialpos	list	test	answer	experiment	session	subject
0.0	2.184	13913	INSTRUCT_START	n/a	n/a	n/a	-999	-999	[0, 0, 0]	n/a	FR1	2	R1378T
2.184	28.55	16088	INSTRUCT_END	n/a	n/a	n/a	-999	-999	[0, 0, 0]	n/a	FR1	2	R1378T
30.734	10.35	44640	COUNTDOWN_START	n/a	n/a	n/a	-999	-999	[0, 0, 0]	n/a	FR1	2	R1378T
41.084	0.001	54992	COUNTDOWN_END	n/a	n/a	n/a	-999	-999	[0, 0, 0]	n/a	FR1	2	R1378T
41.085	1.949	54992	ENCODING_START	n/a	n/a	n/a	-999	-1	[0, 0, 0]	n/a	FR1	2	R1378T
43.034	1.616	56938	WORD	n/a	n/a	TONGUE	1	-1	[0, 0, 0]	n/a	FR1	2	R1378T
44.65	0.967	58553	WORD_OFF	n/a	n/a	TONGUE	1	-1	[0, 0, 0]	n/a	FR1	2	R1378T
45.617	1.616	59520	WORD	n/a	n/a	FLOOD	2	-1	[0, 0, 0]	n/a	FR1	2	R1378T
47.233	0.867	61135	WORD_OFF	n/a	n/a	FLOOD	2	-1	[0, 0, 0]	n/a	FR1	2	R1378T
48.1	1.616	61999	WORD	n/a	n/a	CAMEL	3	-1	[0, 0, 0]	n/a	FR1	2	R1378T
49.716	0.867	63627	WORD_OFF	n/a	n/a	CAMEL	3	-1	[0, 0, 0]	n/a	FR1	2	R1378T
50.583	1.617	64492	WORD	n/a	n/a	RING	4	-1	[0, 0, 0]	n/a	FR1	2	R1378T
52.2	0.833	66107	WORD_OFF	n/a	n/a	RING	4	-1	[0, 0, 0]	n/a	FR1	2	R1378T
53.033	1.617	66934	WORD	n/a	n/a	COTTON	5	-1	[0, 0, 0]	n/a	FR1	2	R1378T
54.65	0.817	68549	WORD_OFF	n/a	n/a	COTTON	5	-1	[0, 0, 0]	n/a	FR1	2	R1378T
55.467	1.616	69376	WORD	n/a	n/a	BABY	6	-1	[0, 0, 0]	n/a	FR1	2	R1378T
57.083	0.884	70991	WORD_OFF	n/a	n/a	BABY	6	-1	[0, 0, 0]	n/a	FR1	2	R1378T
57.967	1.616	71869	WORD	n/a	n/a	WATCH	7	-1	[0, 0, 0]	n/a	FR1	2	R1378T
59.583	0.967	73484	WORD_OFF	n/a	n/a	WATCH	7	-1	[0, 0, 0]	n/a	FR1	2	R1378T
60.55	1.6	74450	WORD	n/a	n/a	RHINO	8	-1	[0, 0, 0]	n/a	FR1	2	R1378T
62.15	0.867	76053	WORD_OFF	n/a	n/a	RHINO	8	-1	[0, 0, 0]	n/a	FR1	2	R1378T
63.017	1.616	76918	WORD	n/a	n/a	BEAM	9	-1	[0, 0, 0]	n/a	FR1	2	R1378T
64.633	0.884	78533	WORD_OFF	n/a	n/a	BEAM	9	-1	[0, 0, 0]	n/a	FR1	2	R1378T
65.517	1.616	79423	WORD	n/a	n/a	IMAGE	10	-1	[0, 0, 0]	n/a	FR1	2	R1378T
67.133	0.767	81038	WORD_OFF	n/a	n/a	IMAGE	10	-1	[0, 0, 0]	n/a	FR1	2	R1378T
67.9	1.6	81801	WORD	n/a	n/a	WAGON	11	-1	[0, 0, 0]	n/a	FR1	2	R1378T
69.5	0.966	83404	WORD_OFF	n/a	n/a	WAGON	11	-1	[0, 0, 0]	n/a	FR1	2	R1378T
70.466	1.617	84370	WORD	n/a	n/a	CHEST	12	-1	[0, 0, 0]	n/a	FR1	2	R1378T
72.083	0.001	85986	WORD_OFF	n/a	n/a	CHEST	12	-1	[0, 0, 0]	n/a	FR1	2	R1378T
72.084	0.001	85986	ENCODING_END	n/a	n/a	n/a	-999	-1	[0, 0, 0]	n/a	FR1	2	R1378T
72.085	0.0	85986	DISTRACT_START	n/a	n/a	n/a	-999	-1	[0, 0, 0]	n/a	FR1	2	R1378T
72.084	0.001	85987	PROB	0.001	n/a	n/a	-999	-1	[4, 3, 8]	19	FR1	2	R1378T
72.085	3.232	85988	START	n/a	n/a	n/a	-999	-1	[-999, -999, -999]	n/a	FR1	2	R1378T
75.317	2.317	89220	PROB	2.317	n/a	n/a	-999	-1	[5, 5, 8]	18	FR1	2	R1378T
77.634	2.883	91537	PROB	2.883	n/a	n/a	-999	-1	[2, 6, 4]	12	FR1	2	R1378T
80.517	1.933	94420	PROB	1.933	n/a	n/a	-999	-1	[2, 1, 1]	4	FR1	2	R1378T
82.45	2.05	96352	PROB	2.05	n/a	n/a	-999	-1	[8, 8, 8]	24	FR1	2	R1378T
84.5	3.783	98402	PROB	3.783	n/a	n/a	-999	-1	[3, 4, 6]	10	FR1	2	R1378T
88.283	2.901	102185	PROB	2.901	n/a	n/a	-999	-1	[3, 4, 2]	9	FR1	2	R1378T
91.184	4.016	105086	PROB	4.016	n/a	n/a	-999	-1	[1, 7, 6]	14	FR1	2	R1378T
95.2	0.0	109102	STOP	n/a	n/a	n/a	-999	-1	[-999, -999, -999]	n/a	FR1	2	R1378T
95.2	1.367	109107	DISTRACT_END	n/a	n/a	n/a	-999	-1	[0, 0, 0]	n/a	FR1	2	R1378T
96.567	4.132	110468	REC_START	n/a	n/a	n/a	-999	-1	[0, 0, 0]	n/a	FR1	2	R1378T
100.699	0.947	114601	REC_WORD	0.947	n/a	WATCH	7	-1	[0, 0, 0]	n/a	FR1	2	R1378T
101.646	2.408	115547	REC_WORD	2.408	n/a	BEAM	9	-1	[0, 0, 0]	n/a	FR1	2	R1378T
104.054	4.125	117955	REC_WORD	4.125	n/a	FLOOD	2	-1	[0, 0, 0]	n/a	FR1	2	R1378T
108.179	4.974	122080	REC_WORD	4.974	n/a	RHINO	8	-1	[0, 0, 0]	n/a	FR1	2	R1378T
113.153	2.165	127054	REC_WORD	2.165	n/a	CAMEL	3	-1	[0, 0, 0]	n/a	FR1	2	R1378T
115.318	7.083	129219	REC_WORD	7.083	n/a	KUNG	-999	-1	[0, 0, 0]	n/a	FR1	2	R1378T
122.401	4.42	136301	REC_WORD	4.42	n/a	DRY	-999	-1	[0, 0, 0]	n/a	FR1	2	R1378T
126.821	4.712	140724	REC_END	n/a	n/a	n/a	-999	-1	[0, 0, 0]	n/a	FR1	2	R1378T
131.533	10.351	145442	COUNTDOWN_START	n/a	n/a	n/a	-999	1	[0, 0, 0]	n/a	FR1	2	R1378T
141.884	0.0	155782	COUNTDOWN_END	n/a	n/a	n/a	-999	1	[0, 0, 0]	n/a	FR1	2	R1378T
141.884	2.133	155782	ENCODING_START	n/a	n/a	n/a	-999	1	[0, 0, 0]	n/a	FR1	2	R1378T
144.017	1.616	157918	WORD	n/a	wordpools/wordpool_short_EN.txt	TRAIL	1	1	[0, 0, 0]	n/a	FR1	2	R1378T
145.633	0.767	159533	WORD_OFF	n/a	n/a	TRAIL	1	1	[0, 0, 0]	n/a	FR1	2	R1378T
146.4	1.617	160296	WORD	n/a	wordpools/wordpool_short_EN.txt	SEAL	2	1	[0, 0, 0]	n/a	FR1	2	R1378T
148.017	0.816	161912	WORD_OFF	n/a	n/a	SEAL	2	1	[0, 0, 0]	n/a	FR1	2	R1378T
148.833	1.6	162738	WORD	n/a	wordpools/wordpool_short_EN.txt	SOUP	3	1	[0, 0, 0]	n/a	FR1	2	R1378T
150.433	0.934	164328	WORD_OFF	n/a	n/a	SOUP	3	1	[0, 0, 0]	n/a	FR1	2	R1378T
151.367	1.616	165269	WORD	n/a	wordpools/wordpool_short_EN.txt	PEARL	4	1	[0, 0, 0]	n/a	FR1	2	R1378T
152.983	0.9	166884	WORD_OFF	n/a	n/a	PEARL	4	1	[0, 0, 0]	n/a	FR1	2	R1378T
153.883	1.6	167787	WORD	n/a	wordpools/wordpool_short_EN.txt	ICE	5	1	[0, 0, 0]	n/a	FR1	2	R1378T
155.483	1.0	169377	WORD_OFF	n/a	n/a	ICE	5	1	[0, 0, 0]	n/a	FR1	2	R1378T
156.483	1.616	170382	WORD	n/a	wordpools/wordpool_short_EN.txt	CORK	6	1	[0, 0, 0]	n/a	FR1	2	R1378T
158.099	0.918	171997	WORD_OFF	n/a	n/a	CORK	6	1	[0, 0, 0]	n/a	FR1	2	R1378T
159.017	1.616	172913	WORD	n/a	wordpools/wordpool_short_EN.txt	MAIL	7	1	[0, 0, 0]	n/a	FR1	2	R1378T
160.633	0.983	174528	WORD_OFF	n/a	n/a	MAIL	7	1	[0, 0, 0]	n/a	FR1	2	R1378T
161.616	1.617	175520	WORD	n/a	wordpools/wordpool_short_EN.txt	HOG	8	1	[0, 0, 0]	n/a	FR1	2	R1378T
163.233	1.0	177135	WORD_OFF	n/a	n/a	HOG	8	1	[0, 0, 0]	n/a	FR1	2	R1378T
164.233	1.617	178127	WORD	n/a	wordpools/wordpool_short_EN.txt	SNAIL	9	1	[0, 0, 0]	n/a	FR1	2	R1378T
165.85	0.999	179755	WORD_OFF	n/a	n/a	SNAIL	9	1	[0, 0, 0]	n/a	FR1	2	R1378T
166.849	1.601	180747	WORD	n/a	wordpools/wordpool_short_EN.txt	COKE	10	1	[0, 0, 0]	n/a	FR1	2	R1378T
168.45	0.983	182349	WORD_OFF	n/a	n/a	COKE	10	1	[0, 0, 0]	n/a	FR1	2	R1378T
169.433	1.6	183329	WORD	n/a	wordpools/wordpool_short_EN.txt	CROWN	11	1	[0, 0, 0]	n/a	FR1	2	R1378T
171.033	1.0	184931	WORD_OFF	n/a	n/a	CROWN	11	1	[0, 0, 0]	n/a	FR1	2	R1378T
172.033	1.617	185936	WORD	n/a	wordpools/wordpool_short_EN.txt	BREAST	12	1	[0, 0, 0]	n/a	FR1	2	R1378T
173.65	0.001	187548	PROB	0.001	n/a	n/a	-999	1	[6, 4, 7]	17	FR1	2	R1378T
173.651	0.0	187549	START	n/a	n/a	n/a	-999	1	[-999, -999, -999]	n/a	FR1	2	R1378T
173.649	0.002	187551	WORD_OFF	n/a	n/a	BREAST	12	1	[0, 0, 0]	n/a	FR1	2	R1378T
173.651	0.0	187551	ENCODING_END	n/a	n/a	n/a	-999	1	[0, 0, 0]	n/a	FR1	2	R1378T
173.651	2.883	187551	DISTRACT_START	n/a	n/a	n/a	-999	1	[0, 0, 0]	n/a	FR1	2	R1378T
176.534	3.165	190432	PROB	3.165	n/a	n/a	-999	1	[1, 6, 5]	12	FR1	2	R1378T
179.699	3.217	193597	PROB	3.217	n/a	n/a	-999	1	[1, 5, 8]	14	FR1	2	R1378T
182.916	2.601	196813	PROB	2.601	n/a	n/a	-999	1	[5, 8, 8]	21	FR1	2	R1378T
185.517	2.116	199414	PROB	2.116	n/a	n/a	-999	1	[5, 5, 3]	13	FR1	2	R1378T
187.633	2.685	201530	PROB	2.685	n/a	n/a	-999	1	[7, 4, 2]	13	FR1	2	R1378T
190.318	2.766	204215	PROB	2.766	n/a	n/a	-999	1	[4, 4, 8]	16	FR1	2	R1378T
193.084	2.25	206981	PROB	2.25	n/a	n/a	-999	1	[2, 5, 5]	12	FR1	2	R1378T
195.334	0.0	209231	STOP	n/a	n/a	n/a	-999	1	[-999, -999, -999]	n/a	FR1	2	R1378T
195.334	1.399	209235	DISTRACT_END	n/a	n/a	n/a	-999	1	[0, 0, 0]	n/a	FR1	2	R1378T
196.733	3.523	210634	REC_START	n/a	n/a	n/a	-999	1	[0, 0, 0]	n/a	FR1	2	R1378T
200.256	1.25	214152	REC_WORD	1.25	n/a	BREAST	12	1	[0, 0, 0]	n/a	FR1	2	R1378T
201.506	1.362	215402	REC_WORD	1.362	n/a	COKE	10	1	[0, 0, 0]	n/a	FR1	2	R1378T
202.868	2.201	216764	REC_WORD	2.201	n/a	CROWN	11	1	[0, 0, 0]	n/a	FR1	2	R1378T
205.069	0.605	218965	REC_WORD_VV	0.605	n/a	<>	-999	1	[0, 0, 0]	n/a	FR1	2	R1378T
205.674	1.236	219570	REC_WORD_VV	1.236	n/a	<>	-999	1	[0, 0, 0]	n/a	FR1	2	R1378T
206.91	1.933	220806	REC_WORD	1.933	n/a	SEAL	2	1	[0, 0, 0]	n/a	FR1	2	R1378T
208.843	1.92	222739	REC_WORD_VV	1.92	n/a	<>	-999	1	[0, 0, 0]	n/a	FR1	2	R1378T
210.763	4.442	224659	REC_WORD	4.442	n/a	HOG	8	1	[0, 0, 0]	n/a	FR1	2	R1378T
215.205	6.34	229101	REC_WORD	6.34	n/a	SOUP	3	1	[0, 0, 0]	n/a	FR1	2	R1378T
221.545	5.44	235440	REC_WORD	5.44	n/a	TRAIL	1	1	[0, 0, 0]	n/a	FR1	2	R1378T
226.985	2.132	240877	REC_END	n/a	n/a	n/a	-999	1	[0, 0, 0]	n/a	FR1	2	R1378T
229.117	10.351	243014	COUNTDOWN_START	n/a	n/a	n/a	-999	2	[0, 0, 0]	n/a	FR1	2	R1378T
239.468	0.0	253366	COUNTDOWN_END	n/a	n/a	n/a	-999	2	[0, 0, 0]	n/a	FR1	2	R1378T
239.468	2.182	253366	ENCODING_START	n/a	n/a	n/a	-999	2	[0, 0, 0]	n/a	FR1	2	R1378T
241.65	1.6	255541	WORD	n/a	wordpools/wordpool_short_EN.txt	BOX	1	2	[0, 0, 0]	n/a	FR1	2	R1378T
243.25	0.933	257144	WORD_OFF	n/a	n/a	BOX	1	2	[0, 0, 0]	n/a	FR1	2	R1378T
244.183	1.617	258072	WORD	n/a	wordpools/wordpool_short_EN.txt	SMILE	2	2	[0, 0, 0]	n/a	FR1	2	R1378T
245.8	1.0	259700	WORD_OFF	n/a	n/a	SMILE	2	2	[0, 0, 0]	n/a	FR1	2	R1378T
246.8	1.616	260692	WORD	n/a	wordpools/wordpool_short_EN.txt	DEW	3	2	[0, 0, 0]	n/a	FR1	2	R1378T
248.416	0.767	262307	WORD_OFF	n/a	n/a	DEW	3	2	[0, 0, 0]	n/a	FR1	2	R1378T
249.183	1.617	263083	WORD	n/a	wordpools/wordpool_short_EN.txt	HOOK	4	2	[0, 0, 0]	n/a	FR1	2	R1378T
250.8	0.9	264698	WORD_OFF	n/a	n/a	HOOK	4	2	[0, 0, 0]	n/a	FR1	2	R1378T
251.7	1.6	265588	WORD	n/a	wordpools/wordpool_short_EN.txt	WOLF	5	2	[0, 0, 0]	n/a	FR1	2	R1378T
253.3	0.883	267191	WORD_OFF	n/a	n/a	WOLF	5	2	[0, 0, 0]	n/a	FR1	2	R1378T
254.183	1.617	268081	WORD	n/a	wordpools/wordpool_short_EN.txt	STRING	6	2	[0, 0, 0]	n/a	FR1	2	R1378T
255.8	0.9	269696	WORD_OFF	n/a	n/a	STRING	6	2	[0, 0, 0]	n/a	FR1	2	R1378T
256.7	1.616	270599	WORD	n/a	wordpools/wordpool_short_EN.txt	SAIL	7	2	[0, 0, 0]	n/a	FR1	2	R1378T
258.316	0.8	272214	WORD_OFF	n/a	n/a	SAIL	7	2	[0, 0, 0]	n/a	FR1	2	R1378T
259.116	1.6	273016	WORD	n/a	wordpools/wordpool_short_EN.txt	ZOO	8	2	[0, 0, 0]	n/a	FR1	2	R1378T
260.716	0.8	274605	WORD_OFF	n/a	n/a	ZOO	8	2	[0, 0, 0]	n/a	FR1	2	R1378T
261.516	1.6	275406	WORD	n/a	wordpools/wordpool_short_EN.txt	JAIL	9	2	[0, 0, 0]	n/a	FR1	2	R1378T
263.116	0.967	277009	WORD_OFF	n/a	n/a	JAIL	9	2	[0, 0, 0]	n/a	FR1	2	R1378T
264.083	1.616	277976	WORD	n/a	wordpools/wordpool_short_EN.txt	BARN	10	2	[0, 0, 0]	n/a	FR1	2	R1378T
265.699	0.834	279591	WORD_OFF	n/a	n/a	BARN	10	2	[0, 0, 0]	n/a	FR1	2	R1378T
266.533	1.616	280430	WORD	n/a	wordpools/wordpool_short_EN.txt	PASTE	11	2	[0, 0, 0]	n/a	FR1	2	R1378T
268.149	0.9	282045	WORD_OFF	n/a	n/a	PASTE	11	2	[0, 0, 0]	n/a	FR1	2	R1378T
269.049	1.6	282948	WORD	n/a	wordpools/wordpool_short_EN.txt	LAND	12	2	[0, 0, 0]	n/a	FR1	2	R1378T
270.649	0.001	284538	WORD_OFF	n/a	n/a	LAND	12	2	[0, 0, 0]	n/a	FR1	2	R1378T
270.65	0.001	284543	PROB	0.001	n/a	n/a	-999	2	[5, 2, 7]	14	FR1	2	R1378T
270.651	0.0	284544	START	n/a	n/a	n/a	-999	2	[-999, -999, -999]	n/a	FR1	2	R1378T
270.651	0.0	284551	ENCODING_END	n/a	n/a	n/a	-999	2	[0, 0, 0]	n/a	FR1	2	R1378T
270.651	2.816	284551	DISTRACT_START	n/a	n/a	n/a	-999	2	[0, 0, 0]	n/a	FR1	2	R1378T
273.467	2.483	287360	PROB	2.483	n/a	n/a	-999	2	[8, 2, 4]	14	FR1	2	R1378T
275.95	2.867	289843	PROB	2.867	n/a	n/a	-999	2	[2, 8, 7]	17	FR1	2	R1378T
278.817	2.184	292709	PROB	2.184	n/a	n/a	-999	2	[1, 5, 2]	8	FR1	2	R1378T
281.001	2.284	294893	PROB	2.284	n/a	n/a	-999	2	[7, 7, 5]	21	FR1	2	R1378T
283.285	2.249	297177	PROB	2.249	n/a	n/a	-999	2	[2, 8, 3]	13	FR1	2	R1378T
285.534	3.684	299426	PROB	3.684	n/a	n/a	-999	2	[5, 5, 8]	18	FR1	2	R1378T
289.218	3.015	303110	PROB	3.015	n/a	n/a	-999	2	[7, 3, 4]	14	FR1	2	R1378T
292.233	0.0	306120	DISTRACT_END	n/a	n/a	n/a	-999	2	[0, 0, 0]	n/a	FR1	2	R1378T
292.233	1.034	306125	STOP	n/a	n/a	n/a	-999	2	[-999, -999, -999]	n/a	FR1	2	R1378T
293.267	2.26	307163	REC_START	n/a	n/a	n/a	-999	2	[0, 0, 0]	n/a	FR1	2	R1378T
295.527	5.033	309419	REC_WORD_VV	5.033	n/a	<>	-999	2	[0, 0, 0]	n/a	FR1	2	R1378T
300.56	0.539	314451	REC_WORD_VV	0.539	n/a	<>	-999	2	[0, 0, 0]	n/a	FR1	2	R1378T
301.099	2.617	314990	REC_WORD	2.617	n/a	SAIL	7	2	[0, 0, 0]	n/a	FR1	2	R1378T
303.716	2.614	317607	REC_WORD_VV	2.614	n/a	<>	-999	2	[0, 0, 0]	n/a	FR1	2	R1378T
306.33	2.79	320221	REC_WORD_VV	2.79	n/a	<>	-999	2	[0, 0, 0]	n/a	FR1	2	R1378T
309.12	1.478	323011	REC_WORD	1.478	n/a	BAND	-999	2	[0, 0, 0]	n/a	FR1	2	R1378T
310.598	1.28	324489	REC_WORD	1.28	n/a	JAIL	9	2	[0, 0, 0]	n/a	FR1	2	R1378T
311.878	6.372	325769	REC_WORD	6.372	n/a	ZOO	8	2	[0, 0, 0]	n/a	FR1	2	R1378T
318.25	3.223	332140	REC_WORD_VV	3.223	n/a	<>	-999	2	[0, 0, 0]	n/a	FR1	2	R1378T
321.473	2.031	335363	REC_WORD	2.031	n/a	DEW	3	2	[0, 0, 0]	n/a	FR1	2	R1378T
323.504	1.58	337394	REC_END	n/a	n/a	n/a	-999	2	[0, 0, 0]	n/a	FR1	2	R1378T
325.084	10.35	338971	COUNTDOWN_START	n/a	n/a	n/a	-999	3	[0, 0, 0]	n/a	FR1	2	R1378T
335.434	0.0	349323	COUNTDOWN_END	n/a	n/a	n/a	-999	3	[0, 0, 0]	n/a	FR1	2	R1378T
335.434	2.033	349323	ENCODING_START	n/a	n/a	n/a	-999	3	[0, 0, 0]	n/a	FR1	2	R1378T
337.467	1.6	351358	WORD	n/a	wordpools/wordpool_short_EN.txt	CUP	1	3	[0, 0, 0]	n/a	FR1	2	R1378T
339.067	0.967	352960	WORD_OFF	n/a	n/a	CUP	1	3	[0, 0, 0]	n/a	FR1	2	R1378T
340.034	1.616	353927	WORD	n/a	wordpools/wordpool_short_EN.txt	TENT	2	3	[0, 0, 0]	n/a	FR1	2	R1378T
341.65	0.834	355542	WORD_OFF	n/a	n/a	TENT	2	3	[0, 0, 0]	n/a	FR1	2	R1378T
342.484	1.616	356369	WORD	n/a	wordpools/wordpool_short_EN.txt	HAY	3	3	[0, 0, 0]	n/a	FR1	2	R1378T
344.1	0.967	357984	WORD_OFF	n/a	n/a	HAY	3	3	[0, 0, 0]	n/a	FR1	2	R1378T
345.067	1.616	358951	WORD	n/a	wordpools/wordpool_short_EN.txt	SOCK	4	3	[0, 0, 0]	n/a	FR1	2	R1378T
346.683	0.834	360579	WORD_OFF	n/a	n/a	SOCK	4	3	[0, 0, 0]	n/a	FR1	2	R1378T
347.517	1.616	361405	WORD	n/a	wordpools/wordpool_short_EN.txt	PIPE	5	3	[0, 0, 0]	n/a	FR1	2	R1378T
349.133	0.85	363020	WORD_OFF	n/a	n/a	PIPE	5	3	[0, 0, 0]	n/a	FR1	2	R1378T
349.983	1.616	363872	WORD	n/a	wordpools/wordpool_short_EN.txt	FLAME	6	3	[0, 0, 0]	n/a	FR1	2	R1378T
351.599	0.834	365488	WORD_OFF	n/a	n/a	FLAME	6	3	[0, 0, 0]	n/a	FR1	2	R1378T
352.433	1.601	366327	WORD	n/a	wordpools/wordpool_short_EN.txt	DEER	7	3	[0, 0, 0]	n/a	FR1	2	R1378T
354.034	1.0	367929	WORD_OFF	n/a	n/a	DEER	7	3	[0, 0, 0]	n/a	FR1	2	R1378T
355.034	1.599	368921	WORD	n/a	wordpools/wordpool_short_EN.txt	BADGE	8	3	[0, 0, 0]	n/a	FR1	2	R1378T
356.633	0.983	370524	WORD_OFF	n/a	n/a	BADGE	8	3	[0, 0, 0]	n/a	FR1	2	R1378T
357.616	1.601	371503	WORD	n/a	wordpools/wordpool_short_EN.txt	NIGHT	9	3	[0, 0, 0]	n/a	FR1	2	R1378T
359.217	0.866	373106	WORD_OFF	n/a	n/a	NIGHT	9	3	[0, 0, 0]	n/a	FR1	2	R1378T
360.083	1.6	373970	WORD	n/a	wordpools/wordpool_short_EN.txt	LAWN	10	3	[0, 0, 0]	n/a	FR1	2	R1378T
361.683	0.8	375573	WORD_OFF	n/a	n/a	LAWN	10	3	[0, 0, 0]	n/a	FR1	2	R1378T
362.483	1.617	376374	WORD	n/a	wordpools/wordpool_short_EN.txt	AISLE	11	3	[0, 0, 0]	n/a	FR1	2	R1378T
364.1	0.767	377989	WORD_OFF	n/a	n/a	AISLE	11	3	[0, 0, 0]	n/a	FR1	2	R1378T
364.867	1.6	378752	WORD	n/a	wordpools/wordpool_short_EN.txt	SINK	12	3	[0, 0, 0]	n/a	FR1	2	R1378T
366.467	0.001	380355	WORD_OFF	n/a	n/a	SINK	12	3	[0, 0, 0]	n/a	FR1	2	R1378T
366.468	0.0	380355	ENCODING_END	n/a	n/a	n/a	-999	3	[0, 0, 0]	n/a	FR1	2	R1378T
366.468	0.0	380355	DISTRACT_START	n/a	n/a	n/a	-999	3	[0, 0, 0]	n/a	FR1	2	R1378T
366.467	0.001	380355	PROB	0.001	n/a	n/a	-999	3	[2, 8, 2]	12	FR1	2	R1378T
366.468	3.198	380356	START	n/a	n/a	n/a	-999	3	[-999, -999, -999]	n/a	FR1	2	R1378T
369.666	2.101	383554	PROB	2.101	n/a	n/a	-999	3	[6, 5, 4]	15	FR1	2	R1378T
371.767	4.653	385655	PROB	4.653	n/a	n/a	-999	3	[6, 7, 4]	17	FR1	2	R1378T
376.42	2.63	390307	PROB	2.63	n/a	n/a	-999	3	[4, 7, 2]	13	FR1	2	R1378T
379.05	3.201	392937	PROB	3.201	n/a	n/a	-999	3	[2, 2, 6]	10	FR1	2	R1378T
382.251	4.216	396138	PROB	4.216	n/a	n/a	-999	3	[1, 7, 7]	15	FR1	2	R1378T
386.467	0.0	400354	STOP	n/a	n/a	n/a	-999	3	[-999, -999, -999]	n/a	FR1	2	R1378T
386.467	1.216	400360	DISTRACT_END	n/a	n/a	n/a	-999	3	[0, 0, 0]	n/a	FR1	2	R1378T
387.683	2.387	401568	REC_START	n/a	n/a	n/a	-999	3	[0, 0, 0]	n/a	FR1	2	R1378T
390.07	0.685	403957	REC_WORD	0.685	n/a	CUP	1	3	[0, 0, 0]	n/a	FR1	2	R1378T
390.755	1.31	404642	REC_WORD	1.31	n/a	SOCK	4	3	[0, 0, 0]	n/a	FR1	2	R1378T
392.065	0.998	405952	REC_WORD	0.998	n/a	DEER	7	3	[0, 0, 0]	n/a	FR1	2	R1378T
393.063	2.797	406950	REC_WORD	2.797	n/a	NIGHT	9	3	[0, 0, 0]	n/a	FR1	2	R1378T
395.86	4.769	409746	REC_WORD_VV	4.769	n/a	<>	-999	3	[0, 0, 0]	n/a	FR1	2	R1378T
400.629	8.4	414515	REC_WORD	8.4	n/a	LIGHT	-999	3	[0, 0, 0]	n/a	FR1	2	R1378T
409.029	8.912	422915	REC_WORD	8.912	n/a	DARK	-999	3	[0, 0, 0]	n/a	FR1	2	R1378T
417.941	1.593	431824	REC_END	n/a	n/a	n/a	-999	3	[0, 0, 0]	n/a	FR1	2	R1378T
419.534	10.35	433427	COUNTDOWN_START	n/a	n/a	n/a	-999	4	[0, 0, 0]	n/a	FR1	2	R1378T
429.884	0.0	443767	COUNTDOWN_END	n/a	n/a	n/a	-999	4	[0, 0, 0]	n/a	FR1	2	R1378T
429.884	2.183	443767	ENCODING_START	n/a	n/a	n/a	-999	4	[0, 0, 0]	n/a	FR1	2	R1378T
432.067	1.616	445954	WORD	n/a	wordpools/wordpool_short_EN.txt	SHIP	1	4	[0, 0, 0]	n/a	FR1	2	R1378T
433.683	0.833	447569	WORD_OFF	n/a	n/a	SHIP	1	4	[0, 0, 0]	n/a	FR1	2	R1378T
434.516	1.6	448396	WORD	n/a	wordpools/wordpool_short_EN.txt	PRIZE	2	4	[0, 0, 0]	n/a	FR1	2	R1378T
436.116	0.934	449998	WORD_OFF	n/a	n/a	PRIZE	2	4	[0, 0, 0]	n/a	FR1	2	R1378T
437.05	1.617	450939	WORD	n/a	wordpools/wordpool_short_EN.txt	POOL	3	4	[0, 0, 0]	n/a	FR1	2	R1378T
438.667	0.999	452555	WORD_OFF	n/a	n/a	POOL	3	4	[0, 0, 0]	n/a	FR1	2	R1378T
439.666	1.6	453547	WORD	n/a	wordpools/wordpool_short_EN.txt	JAR	4	4	[0, 0, 0]	n/a	FR1	2	R1378T
441.266	0.784	455149	WORD_OFF	n/a	n/a	JAR	4	4	[0, 0, 0]	n/a	FR1	2	R1378T
442.05	1.616	455938	WORD	n/a	wordpools/wordpool_short_EN.txt	SWORD	5	4	[0, 0, 0]	n/a	FR1	2	R1378T
443.666	0.95	457553	WORD_OFF	n/a	n/a	SWORD	5	4	[0, 0, 0]	n/a	FR1	2	R1378T
444.616	1.6	458507	WORD	n/a	wordpools/wordpool_short_EN.txt	SLIME	6	4	[0, 0, 0]	n/a	FR1	2	R1378T
446.216	0.933	460096	WORD_OFF	n/a	n/a	SLIME	6	4	[0, 0, 0]	n/a	FR1	2	R1378T
447.149	1.601	461038	WORD	n/a	wordpools/wordpool_short_EN.txt	CAPE	7	4	[0, 0, 0]	n/a	FR1	2	R1378T
448.75	0.849	462640	WORD_OFF	n/a	n/a	CAPE	7	4	[0, 0, 0]	n/a	FR1	2	R1378T
449.599	1.6	463479	WORD	n/a	wordpools/wordpool_short_EN.txt	VINE	8	4	[0, 0, 0]	n/a	FR1	2	R1378T
451.199	0.933	465082	WORD_OFF	n/a	n/a	VINE	8	4	[0, 0, 0]	n/a	FR1	2	R1378T
452.132	1.618	466010	WORD	n/a	wordpools/wordpool_short_EN.txt	PHONE	9	4	[0, 0, 0]	n/a	FR1	2	R1378T
453.75	0.882	467638	WORD_OFF	n/a	n/a	PHONE	9	4	[0, 0, 0]	n/a	FR1	2	R1378T
454.632	1.6	468516	WORD	n/a	wordpools/wordpool_short_EN.txt	DIME	10	4	[0, 0, 0]	n/a	FR1	2	R1378T
456.232	0.834	470118	WORD_OFF	n/a	n/a	DIME	10	4	[0, 0, 0]	n/a	FR1	2	R1378T
457.066	1.6	470945	WORD	n/a	wordpools/wordpool_short_EN.txt	TROUT	11	4	[0, 0, 0]	n/a	FR1	2	R1378T
458.666	0.934	472547	WORD_OFF	n/a	n/a	TROUT	11	4	[0, 0, 0]	n/a	FR1	2	R1378T
459.6	1.6	473488	WORD	n/a	wordpools/wordpool_short_EN.txt	RICE	12	4	[0, 0, 0]	n/a	FR1	2	R1378T
461.2	0.001	475078	WORD_OFF	n/a	n/a	RICE	12	4	[0, 0, 0]	n/a	FR1	2	R1378T
461.201	0.001	475084	PROB	0.001	n/a	n/a	-999	4	[7, 1, 3]	11	FR1	2	R1378T
461.202	0.0	475085	START	n/a	n/a	n/a	-999	4	[-999, -999, -999]	n/a	FR1	2	R1378T
461.202	0.0	475091	ENCODING_END	n/a	n/a	n/a	-999	4	[0, 0, 0]	n/a	FR1	2	R1378T
461.202	2.616	475091	DISTRACT_START	n/a	n/a	n/a	-999	4	[0, 0, 0]	n/a	FR1	2	R1378T
463.818	4.3	477701	PROB	4.3	n/a	n/a	-999	4	[7, 1, 3]	11	FR1	2	R1378T
468.118	4.565	482001	PROB	4.565	n/a	n/a	-999	4	[5, 8, 3]	16	FR1	2	R1378T
472.683	2.217	486566	PROB	2.217	n/a	n/a	-999	4	[3, 1, 7]	11	FR1	2	R1378T
474.9	2.601	488782	PROB	2.601	n/a	n/a	-999	4	[2, 6, 4]	12	FR1	2	R1378T
477.501	3.765	491383	PROB	3.765	n/a	n/a	-999	4	[1, 4, 4]	9	FR1	2	R1378T
481.266	0.0	495147	DISTRACT_END	n/a	n/a	n/a	-999	4	[0, 0, 0]	n/a	FR1	2	R1378T
481.266	1.067	495148	STOP	n/a	n/a	n/a	-999	4	[-999, -999, -999]	n/a	FR1	2	R1378T
482.333	2.148	496215	REC_START	n/a	n/a	n/a	-999	4	[0, 0, 0]	n/a	FR1	2	R1378T
484.481	1.067	498363	REC_WORD	1.067	n/a	SAIL	-999	4	[0, 0, 0]	n/a	FR1	2	R1378T
485.548	11.021	499430	REC_WORD	11.021	n/a	CAPE	7	4	[0, 0, 0]	n/a	FR1	2	R1378T
496.569	1.756	510450	REC_WORD	1.756	n/a	RICE	12	4	[0, 0, 0]	n/a	FR1	2	R1378T
498.325	5.06	512206	REC_WORD	5.06	n/a	SEA	-999	4	[0, 0, 0]	n/a	FR1	2	R1378T
503.385	9.202	517266	REC_WORD_VV	9.202	n/a	<>	-999	4	[0, 0, 0]	n/a	FR1	2	R1378T
512.587	2.363	526471	REC_END	n/a	n/a	n/a	-999	4	[0, 0, 0]	n/a	FR1	2	R1378T
514.95	10.35	528837	COUNTDOWN_START	n/a	n/a	n/a	-999	5	[0, 0, 0]	n/a	FR1	2	R1378T
525.3	0.0	539177	COUNTDOWN_END	n/a	n/a	n/a	-999	5	[0, 0, 0]	n/a	FR1	2	R1378T
525.3	2.133	539177	ENCODING_START	n/a	n/a	n/a	-999	5	[0, 0, 0]	n/a	FR1	2	R1378T
527.433	1.617	541313	WORD	n/a	wordpools/wordpool_short_EN.txt	OWL	1	5	[0, 0, 0]	n/a	FR1	2	R1378T
529.05	0.8	542928	WORD_OFF	n/a	n/a	OWL	1	5	[0, 0, 0]	n/a	FR1	2	R1378T
529.85	1.6	543730	WORD	n/a	wordpools/wordpool_short_EN.txt	BEEF	2	5	[0, 0, 0]	n/a	FR1	2	R1378T
531.45	0.866	545332	WORD_OFF	n/a	n/a	BEEF	2	5	[0, 0, 0]	n/a	FR1	2	R1378T
532.316	1.6	546197	WORD	n/a	wordpools/wordpool_short_EN.txt	GUN	3	5	[0, 0, 0]	n/a	FR1	2	R1378T
533.916	1.0	547799	WORD_OFF	n/a	n/a	GUN	3	5	[0, 0, 0]	n/a	FR1	2	R1378T
534.916	1.6	548791	WORD	n/a	wordpools/wordpool_short_EN.txt	SHED	4	5	[0, 0, 0]	n/a	FR1	2	R1378T
536.516	0.8	550394	WORD_OFF	n/a	n/a	SHED	4	5	[0, 0, 0]	n/a	FR1	2	R1378T
537.316	1.6	551195	WORD	n/a	wordpools/wordpool_short_EN.txt	CAMP	5	5	[0, 0, 0]	n/a	FR1	2	R1378T
538.916	0.9	552797	WORD_OFF	n/a	n/a	CAMP	5	5	[0, 0, 0]	n/a	FR1	2	R1378T
539.816	1.6	553700	WORD	n/a	wordpools/wordpool_short_EN.txt	LEAF	6	5	[0, 0, 0]	n/a	FR1	2	R1378T
541.416	0.786	555290	WORD_OFF	n/a	n/a	LEAF	6	5	[0, 0, 0]	n/a	FR1	2	R1378T
542.202	1.614	556079	WORD	n/a	wordpools/wordpool_short_EN.txt	BENCH	7	5	[0, 0, 0]	n/a	FR1	2	R1378T
543.816	0.9	557694	WORD_OFF	n/a	n/a	BENCH	7	5	[0, 0, 0]	n/a	FR1	2	R1378T
544.716	1.6	558597	WORD	n/a	wordpools/wordpool_short_EN.txt	MAP	8	5	[0, 0, 0]	n/a	FR1	2	R1378T
546.316	0.9	560199	WORD_OFF	n/a	n/a	MAP	8	5	[0, 0, 0]	n/a	FR1	2	R1378T
547.216	1.601	561090	WORD	n/a	wordpools/wordpool_short_EN.txt	FARM	9	5	[0, 0, 0]	n/a	FR1	2	R1378T
548.817	0.933	562692	WORD_OFF	n/a	n/a	FARM	9	5	[0, 0, 0]	n/a	FR1	2	R1378T
549.75	1.6	563633	WORD	n/a	wordpools/wordpool_short_EN.txt	SPEAR	10	5	[0, 0, 0]	n/a	FR1	2	R1378T
551.35	0.833	565223	WORD_OFF	n/a	n/a	SPEAR	10	5	[0, 0, 0]	n/a	FR1	2	R1378T
552.183	1.604	566062	WORD	n/a	wordpools/wordpool_short_EN.txt	MINK	11	5	[0, 0, 0]	n/a	FR1	2	R1378T
553.787	0.864	567665	WORD_OFF	n/a	n/a	MINK	11	5	[0, 0, 0]	n/a	FR1	2	R1378T
554.651	1.601	568530	WORD	n/a	wordpools/wordpool_short_EN.txt	BOY	12	5	[0, 0, 0]	n/a	FR1	2	R1378T
556.252	0.001	570130	PROB	0.001	n/a	n/a	-999	5	[4, 8, 3]	15	FR1	2	R1378T
556.253	0.0	570131	START	n/a	n/a	n/a	-999	5	[-999, -999, -999]	n/a	FR1	2	R1378T
556.251	0.002	570132	WORD_OFF	n/a	n/a	BOY	12	5	[0, 0, 0]	n/a	FR1	2	R1378T
556.253	0.0	570132	ENCODING_END	n/a	n/a	n/a	-999	5	[0, 0, 0]	n/a	FR1	2	R1378T
556.253	2.931	570132	DISTRACT_START	n/a	n/a	n/a	-999	5	[0, 0, 0]	n/a	FR1	2	R1378T
559.184	2.434	573062	PROB	2.434	n/a	n/a	-999	5	[2, 4, 3]	9	FR1	2	R1378T
561.618	3.816	575496	PROB	3.816	n/a	n/a	-999	5	[5, 3, 6]	14	FR1	2	R1378T
565.434	2.316	579312	PROB	2.316	n/a	n/a	-999	5	[6, 3, 3]	12	FR1	2	R1378T
567.75	2.851	581628	PROB	2.851	n/a	n/a	-999	5	[8, 7, 3]	18	FR1	2	R1378T
570.601	3.216	584479	PROB	3.216	n/a	n/a	-999	5	[7, 5, 7]	19	FR1	2	R1378T
573.817	2.017	587694	PROB	2.017	n/a	n/a	-999	5	[4, 7, 1]	12	FR1	2	R1378T
575.834	4.448	589711	PROB	4.448	n/a	n/a	-999	5	[8, 6, 8]	22	FR1	2	R1378T
580.282	0.0	594156	DISTRACT_END	n/a	n/a	n/a	-999	5	[0, 0, 0]	n/a	FR1	2	R1378T
580.282	1.234	594159	STOP	n/a	n/a	n/a	-999	5	[-999, -999, -999]	n/a	FR1	2	R1378T
581.516	2.187	595390	REC_START	n/a	n/a	n/a	-999	5	[0, 0, 0]	n/a	FR1	2	R1378T
583.703	1.251	597580	REC_WORD	1.251	n/a	OWL	1	5	[0, 0, 0]	n/a	FR1	2	R1378T
584.954	3.734	598831	REC_WORD	3.734	n/a	BEEF	2	5	[0, 0, 0]	n/a	FR1	2	R1378T
588.688	2.423	602565	REC_WORD	2.423	n/a	GUN	3	5	[0, 0, 0]	n/a	FR1	2	R1378T
591.111	1.872	604988	REC_WORD	1.872	n/a	SHED	4	5	[0, 0, 0]	n/a	FR1	2	R1378T
592.983	5.311	606859	REC_WORD	5.311	n/a	BOY	12	5	[0, 0, 0]	n/a	FR1	2	R1378T
598.294	7.101	612170	REC_WORD	7.101	n/a	MINK	11	5	[0, 0, 0]	n/a	FR1	2	R1378T
605.395	6.379	619271	REC_WORD	6.379	n/a	CAMP	5	5	[0, 0, 0]	n/a	FR1	2	R1378T
611.774	1.676	625646	REC_END	n/a	n/a	n/a	-999	5	[0, 0, 0]	n/a	FR1	2	R1378T
613.45	10.35	627325	COUNTDOWN_START	n/a	n/a	n/a	-999	6	[0, 0, 0]	n/a	FR1	2	R1378T
623.8	0.0	637677	COUNTDOWN_END	n/a	n/a	n/a	-999	6	[0, 0, 0]	n/a	FR1	2	R1378T
623.8	2.083	637677	ENCODING_START	n/a	n/a	n/a	-999	6	[0, 0, 0]	n/a	FR1	2	R1378T
625.883	1.6	639763	WORD	n/a	wordpools/wordpool_short_EN.txt	PAN	1	6	[0, 0, 0]	n/a	FR1	2	R1378T
627.483	0.884	641352	WORD_OFF	n/a	n/a	PAN	1	6	[0, 0, 0]	n/a	FR1	2	R1378T
628.367	1.616	642243	WORD	n/a	wordpools/wordpool_short_EN.txt	ROPE	2	6	[0, 0, 0]	n/a	FR1	2	R1378T
629.983	0.884	643858	WORD_OFF	n/a	n/a	ROPE	2	6	[0, 0, 0]	n/a	FR1	2	R1378T
630.867	1.616	644743	WORD	n/a	wordpools/wordpool_short_EN.txt	PURSE	3	6	[0, 0, 0]	n/a	FR1	2	R1378T
632.483	0.95	646363	WORD_OFF	n/a	n/a	PURSE	3	6	[0, 0, 0]	n/a	FR1	2	R1378T
633.433	1.617	647304	WORD	n/a	wordpools/wordpool_short_EN.txt	PAGE	4	6	[0, 0, 0]	n/a	FR1	2	R1378T
635.05	0.833	648920	WORD_OFF	n/a	n/a	PAGE	4	6	[0, 0, 0]	n/a	FR1	2	R1378T
635.883	1.616	649759	WORD	n/a	wordpools/wordpool_short_EN.txt	POND	5	6	[0, 0, 0]	n/a	FR1	2	R1378T
637.499	0.917	651374	WORD_OFF	n/a	n/a	POND	5	6	[0, 0, 0]	n/a	FR1	2	R1378T
638.416	1.6	652290	WORD	n/a	wordpools/wordpool_short_EN.txt	TAIL	6	6	[0, 0, 0]	n/a	FR1	2	R1378T
640.016	0.95	653892	WORD_OFF	n/a	n/a	TAIL	6	6	[0, 0, 0]	n/a	FR1	2	R1378T
640.966	1.6	654846	WORD	n/a	wordpools/wordpool_short_EN.txt	STEW	7	6	[0, 0, 0]	n/a	FR1	2	R1378T
642.566	0.817	656436	WORD_OFF	n/a	n/a	STEW	7	6	[0, 0, 0]	n/a	FR1	2	R1378T
643.383	1.6	657263	WORD	n/a	wordpools/wordpool_short_EN.txt	WOOD	8	6	[0, 0, 0]	n/a	FR1	2	R1378T
644.983	0.884	658852	WORD_OFF	n/a	n/a	WOOD	8	6	[0, 0, 0]	n/a	FR1	2	R1378T
645.867	1.6	659743	WORD	n/a	wordpools/wordpool_short_EN.txt	BLOOM	9	6	[0, 0, 0]	n/a	FR1	2	R1378T
647.467	0.783	661345	WORD_OFF	n/a	n/a	BLOOM	9	6	[0, 0, 0]	n/a	FR1	2	R1378T
648.25	1.617	662121	WORD	n/a	wordpools/wordpool_short_EN.txt	WORM	10	6	[0, 0, 0]	n/a	FR1	2	R1378T
649.867	0.816	663736	WORD_OFF	n/a	n/a	WORM	10	6	[0, 0, 0]	n/a	FR1	2	R1378T
650.683	1.6	664563	WORD	n/a	wordpools/wordpool_short_EN.txt	DRAIN	11	6	[0, 0, 0]	n/a	FR1	2	R1378T
652.283	0.866	666152	WORD_OFF	n/a	n/a	DRAIN	11	6	[0, 0, 0]	n/a	FR1	2	R1378T
653.149	1.601	667017	WORD	n/a	wordpools/wordpool_short_EN.txt	MOUSE	12	6	[0, 0, 0]	n/a	FR1	2	R1378T
654.75	0.002	668620	WORD_OFF	n/a	n/a	MOUSE	12	6	[0, 0, 0]	n/a	FR1	2	R1378T
654.752	0.0	668620	ENCODING_END	n/a	n/a	n/a	-999	6	[0, 0, 0]	n/a	FR1	2	R1378T
654.751	0.001	668624	PROB	0.001	n/a	n/a	-999	6	[7, 4, 3]	14	FR1	2	R1378T
654.752	0.0	668625	START	n/a	n/a	n/a	-999	6	[-999, -999, -999]	n/a	FR1	2	R1378T
654.752	3.115	668632	DISTRACT_START	n/a	n/a	n/a	-999	6	[0, 0, 0]	n/a	FR1	2	R1378T
657.867	2.767	671740	PROB	2.767	n/a	n/a	-999	6	[4, 8, 4]	16	FR1	2	R1378T
660.634	2.25	674507	PROB	2.25	n/a	n/a	-999	6	[5, 7, 5]	17	FR1	2	R1378T
662.884	2.5	676757	PROB	2.5	n/a	n/a	-999	6	[2, 2, 4]	8	FR1	2	R1378T
665.384	3.017	679257	PROB	3.017	n/a	n/a	-999	6	[3, 8, 8]	19	FR1	2	R1378T
668.401	2.833	682274	PROB	2.833	n/a	n/a	-999	6	[4, 4, 5]	13	FR1	2	R1378T
671.234	1.883	685106	PROB	1.883	n/a	n/a	-999	6	[2, 2, 2]	6	FR1	2	R1378T
673.117	2.983	686989	PROB	2.983	n/a	n/a	-999	6	[6, 5, 8]	19	FR1	2	R1378T
676.1	0.0	689972	STOP	n/a	n/a	n/a	-999	6	[-999, -999, -999]	n/a	FR1	2	R1378T
676.1	1.183	689973	DISTRACT_END	n/a	n/a	n/a	-999	6	[0, 0, 0]	n/a	FR1	2	R1378T
677.283	2.316	691156	REC_START	n/a	n/a	n/a	-999	6	[0, 0, 0]	n/a	FR1	2	R1378T
679.599	0.355	693471	REC_WORD_VV	0.355	n/a	<>	-999	6	[0, 0, 0]	n/a	FR1	2	R1378T
679.954	3.09	693826	REC_WORD	3.09	n/a	TAIL	6	6	[0, 0, 0]	n/a	FR1	2	R1378T
683.044	5.895	696916	REC_WORD_VV	5.895	n/a	<>	-999	6	[0, 0, 0]	n/a	FR1	2	R1378T
688.939	0.922	702811	REC_WORD	0.922	n/a	BEAN	-999	6	[0, 0, 0]	n/a	FR1	2	R1378T
689.861	2.021	703732	REC_WORD_VV	2.021	n/a	<>	-999	6	[0, 0, 0]	n/a	FR1	2	R1378T
691.882	1.59	705753	REC_WORD	1.59	n/a	BARN	-999	6	[0, 0, 0]	n/a	FR1	2	R1378T
693.472	4.694	707343	REC_WORD	4.694	n/a	SHED	-999	6	[0, 0, 0]	n/a	FR1	2	R1378T
698.166	8.267	712037	REC_WORD	8.267	n/a	OWL	-999	6	[0, 0, 0]	n/a	FR1	2	R1378T
706.433	1.105	720304	REC_WORD	1.105	n/a	WORM	10	6	[0, 0, 0]	n/a	FR1	2	R1378T
707.538	1.862	721412	REC_END	n/a	n/a	n/a	-999	6	[0, 0, 0]	n/a	FR1	2	R1378T
709.4	10.351	723269	COUNTDOWN_START	n/a	n/a	n/a	-999	7	[0, 0, 0]	n/a	FR1	2	R1378T
719.751	0.0	733621	COUNTDOWN_END	n/a	n/a	n/a	-999	7	[0, 0, 0]	n/a	FR1	2	R1378T
719.751	2.048	733621	ENCODING_START	n/a	n/a	n/a	-999	7	[0, 0, 0]	n/a	FR1	2	R1378T
721.799	1.601	735669	WORD	n/a	wordpools/wordpool_short_EN.txt	STORE	1	7	[0, 0, 0]	n/a	FR1	2	R1378T
723.4	0.9	737271	WORD_OFF	n/a	n/a	STORE	1	7	[0, 0, 0]	n/a	FR1	2	R1378T
724.3	1.6	738174	WORD	n/a	wordpools/wordpool_short_EN.txt	GOLD	2	7	[0, 0, 0]	n/a	FR1	2	R1378T
725.9	0.883	739764	WORD_OFF	n/a	n/a	GOLD	2	7	[0, 0, 0]	n/a	FR1	2	R1378T
726.783	1.616	740654	WORD	n/a	wordpools/wordpool_short_EN.txt	BIN	3	7	[0, 0, 0]	n/a	FR1	2	R1378T
728.399	0.767	742269	WORD_OFF	n/a	n/a	BIN	3	7	[0, 0, 0]	n/a	FR1	2	R1378T
729.166	1.6	743032	WORD	n/a	wordpools/wordpool_short_EN.txt	SHEET	4	7	[0, 0, 0]	n/a	FR1	2	R1378T
730.766	0.984	744635	WORD_OFF	n/a	n/a	SHEET	4	7	[0, 0, 0]	n/a	FR1	2	R1378T
731.75	1.6	745614	WORD	n/a	wordpools/wordpool_short_EN.txt	CLAY	5	7	[0, 0, 0]	n/a	FR1	2	R1378T
733.35	0.966	747217	WORD_OFF	n/a	n/a	CLAY	5	7	[0, 0, 0]	n/a	FR1	2	R1378T
734.316	1.601	748183	WORD	n/a	wordpools/wordpool_short_EN.txt	GLOBE	6	7	[0, 0, 0]	n/a	FR1	2	R1378T
735.917	0.916	749786	WORD_OFF	n/a	n/a	GLOBE	6	7	[0, 0, 0]	n/a	FR1	2	R1378T
736.833	1.6	750701	WORD	n/a	wordpools/wordpool_short_EN.txt	BOARD	7	7	[0, 0, 0]	n/a	FR1	2	R1378T
738.433	0.817	752304	WORD_OFF	n/a	n/a	BOARD	7	7	[0, 0, 0]	n/a	FR1	2	R1378T
739.25	1.6	753118	WORD	n/a	wordpools/wordpool_short_EN.txt	BATH	8	7	[0, 0, 0]	n/a	FR1	2	R1378T
740.85	0.917	754720	WORD_OFF	n/a	n/a	BATH	8	7	[0, 0, 0]	n/a	FR1	2	R1378T
741.767	1.615	755636	WORD	n/a	wordpools/wordpool_short_EN.txt	THORN	9	7	[0, 0, 0]	n/a	FR1	2	R1378T
743.382	0.935	757251	WORD_OFF	n/a	n/a	THORN	9	7	[0, 0, 0]	n/a	FR1	2	R1378T
744.317	1.616	758192	WORD	n/a	wordpools/wordpool_short_EN.txt	MULE	10	7	[0, 0, 0]	n/a	FR1	2	R1378T
745.933	0.8	759807	WORD_OFF	n/a	n/a	MULE	10	7	[0, 0, 0]	n/a	FR1	2	R1378T
746.733	1.6	760596	WORD	n/a	wordpools/wordpool_short_EN.txt	POT	11	7	[0, 0, 0]	n/a	FR1	2	R1378T
748.333	0.901	762198	WORD_OFF	n/a	n/a	POT	11	7	[0, 0, 0]	n/a	FR1	2	R1378T
749.234	1.6	763101	WORD	n/a	wordpools/wordpool_short_EN.txt	SPICE	12	7	[0, 0, 0]	n/a	FR1	2	R1378T
750.834	0.001	764702	PROB	0.001	n/a	n/a	-999	7	[4, 8, 3]	15	FR1	2	R1378T
750.835	0.0	764703	START	n/a	n/a	n/a	-999	7	[-999, -999, -999]	n/a	FR1	2	R1378T
750.834	0.001	764704	WORD_OFF	n/a	n/a	SPICE	12	7	[0, 0, 0]	n/a	FR1	2	R1378T
750.835	0.0	764704	ENCODING_END	n/a	n/a	n/a	-999	7	[0, 0, 0]	n/a	FR1	2	R1378T
750.835	4.032	764704	DISTRACT_START	n/a	n/a	n/a	-999	7	[0, 0, 0]	n/a	FR1	2	R1378T
754.867	3.051	768735	PROB	3.051	n/a	n/a	-999	7	[6, 5, 8]	19	FR1	2	R1378T
757.918	2.716	771786	PROB	2.716	n/a	n/a	-999	7	[7, 1, 7]	15	FR1	2	R1378T
760.634	2.483	774502	PROB	2.483	n/a	n/a	-999	7	[2, 8, 2]	12	FR1	2	R1378T
763.117	2.616	776985	PROB	2.616	n/a	n/a	-999	7	[3, 6, 6]	15	FR1	2	R1378T
765.733	2.651	779601	PROB	2.651	n/a	n/a	-999	7	[7, 1, 3]	11	FR1	2	R1378T
768.384	4.983	782251	PROB	4.983	n/a	n/a	-999	7	[4, 4, 5]	17	FR1	2	R1378T
773.367	0.0	787234	STOP	n/a	n/a	n/a	-999	7	[-999, -999, -999]	n/a	FR1	2	R1378T
773.367	1.25	787240	DISTRACT_END	n/a	n/a	n/a	-999	7	[0, 0, 0]	n/a	FR1	2	R1378T
774.617	3.634	788486	REC_START	n/a	n/a	n/a	-999	7	[0, 0, 0]	n/a	FR1	2	R1378T
778.251	1.758	792118	REC_WORD	1.758	n/a	BATH	8	7	[0, 0, 0]	n/a	FR1	2	R1378T
780.009	3.606	793876	REC_WORD	3.606	n/a	BARN	-999	7	[0, 0, 0]	n/a	FR1	2	R1378T
783.615	3.402	797482	REC_WORD_VV	3.402	n/a	<>	-999	7	[0, 0, 0]	n/a	FR1	2	R1378T
787.017	4.219	800884	REC_WORD	4.219	n/a	DIRT	-999	7	[0, 0, 0]	n/a	FR1	2	R1378T
791.236	0.294	805102	REC_WORD_VV	0.294	n/a	<>	-999	7	[0, 0, 0]	n/a	FR1	2	R1378T
791.53	7.11	805396	REC_WORD	7.11	n/a	SHEET	4	7	[0, 0, 0]	n/a	FR1	2	R1378T
798.64	1.712	812506	REC_WORD_VV	1.712	n/a	<>	-999	7	[0, 0, 0]	n/a	FR1	2	R1378T
800.352	4.523	814218	REC_WORD	4.523	n/a	WOOL	-999	7	[0, 0, 0]	n/a	FR1	2	R1378T
804.875	1.575	818742	REC_END	n/a	n/a	n/a	-999	7	[0, 0, 0]	n/a	FR1	2	R1378T
806.45	10.351	820319	COUNTDOWN_START	n/a	n/a	n/a	-999	8	[0, 0, 0]	n/a	FR1	2	R1378T
816.801	0.0	830672	COUNTDOWN_END	n/a	n/a	n/a	-999	8	[0, 0, 0]	n/a	FR1	2	R1378T
816.801	2.165	830672	ENCODING_START	n/a	n/a	n/a	-999	8	[0, 0, 0]	n/a	FR1	2	R1378T
818.966	1.617	832834	WORD	n/a	wordpools/wordpool_short_EN.txt	INK	1	8	[0, 0, 0]	n/a	FR1	2	R1378T
820.583	0.983	834449	WORD_OFF	n/a	n/a	INK	1	8	[0, 0, 0]	n/a	FR1	2	R1378T
821.566	1.617	835428	WORD	n/a	wordpools/wordpool_short_EN.txt	BRANCH	2	8	[0, 0, 0]	n/a	FR1	2	R1378T
823.183	0.9	837043	WORD_OFF	n/a	n/a	BRANCH	2	8	[0, 0, 0]	n/a	FR1	2	R1378T
824.083	1.617	837946	WORD	n/a	wordpools/wordpool_short_EN.txt	FORT	3	8	[0, 0, 0]	n/a	FR1	2	R1378T
825.7	0.967	839562	WORD_OFF	n/a	n/a	FORT	3	8	[0, 0, 0]	n/a	FR1	2	R1378T
826.667	1.617	840528	WORD	n/a	wordpools/wordpool_short_EN.txt	WAX	4	8	[0, 0, 0]	n/a	FR1	2	R1378T
828.284	0.783	842143	WORD_OFF	n/a	n/a	WAX	4	8	[0, 0, 0]	n/a	FR1	2	R1378T
829.067	1.6	842932	WORD	n/a	wordpools/wordpool_short_EN.txt	SALT	5	8	[0, 0, 0]	n/a	FR1	2	R1378T
830.667	0.983	844534	WORD_OFF	n/a	n/a	SALT	5	8	[0, 0, 0]	n/a	FR1	2	R1378T
831.65	1.6	845513	WORD	n/a	wordpools/wordpool_short_EN.txt	JAW	6	8	[0, 0, 0]	n/a	FR1	2	R1378T
833.25	0.833	847116	WORD_OFF	n/a	n/a	JAW	6	8	[0, 0, 0]	n/a	FR1	2	R1378T
834.083	1.6	847943	WORD	n/a	wordpools/wordpool_short_EN.txt	CHILD	7	8	[0, 0, 0]	n/a	FR1	2	R1378T
835.683	0.834	849545	WORD_OFF	n/a	n/a	CHILD	7	8	[0, 0, 0]	n/a	FR1	2	R1378T
836.517	1.6	850384	WORD	n/a	wordpools/wordpool_short_EN.txt	OIL	8	8	[0, 0, 0]	n/a	FR1	2	R1378T
838.117	0.967	851987	WORD_OFF	n/a	n/a	OIL	8	8	[0, 0, 0]	n/a	FR1	2	R1378T
839.084	1.599	852953	WORD	n/a	wordpools/wordpool_short_EN.txt	HEART	9	8	[0, 0, 0]	n/a	FR1	2	R1378T
840.683	0.984	854543	WORD_OFF	n/a	n/a	HEART	9	8	[0, 0, 0]	n/a	FR1	2	R1378T
841.667	1.617	855535	WORD	n/a	wordpools/wordpool_short_EN.txt	COURT	10	8	[0, 0, 0]	n/a	FR1	2	R1378T
843.284	0.8	857150	WORD_OFF	n/a	n/a	COURT	10	8	[0, 0, 0]	n/a	FR1	2	R1378T
844.084	1.599	857952	WORD	n/a	wordpools/wordpool_short_EN.txt	BRICK	11	8	[0, 0, 0]	n/a	FR1	2	R1378T
845.683	0.967	859541	WORD_OFF	n/a	n/a	BRICK	11	8	[0, 0, 0]	n/a	FR1	2	R1378T
846.65	1.6	860508	WORD	n/a	wordpools/wordpool_short_EN.txt	LIMB	12	8	[0, 0, 0]	n/a	FR1	2	R1378T
848.25	0.002	862110	WORD_OFF	n/a	n/a	LIMB	12	8	[0, 0, 0]	n/a	FR1	2	R1378T
848.252	0.0	862110	ENCODING_END	n/a	n/a	n/a	-999	8	[0, 0, 0]	n/a	FR1	2	R1378T
848.251	0.001	862114	PROB	0.001	n/a	n/a	-999	8	[7, 5, 1]	13	FR1	2	R1378T
848.252	0.0	862115	START	n/a	n/a	n/a	-999	8	[-999, -999, -999]	n/a	FR1	2	R1378T
848.252	2.882	862123	DISTRACT_START	n/a	n/a	n/a	-999	8	[0, 0, 0]	n/a	FR1	2	R1378T
851.134	2.483	864997	PROB	2.483	n/a	n/a	-999	8	[1, 5, 8]	14	FR1	2	R1378T
853.617	3.267	867480	PROB	3.267	n/a	n/a	-999	8	[8, 3, 8]	19	FR1	2	R1378T
856.884	2.65	870747	PROB	2.65	n/a	n/a	-999	8	[8, 4, 6]	18	FR1	2	R1378T
859.534	2.283	873397	PROB	2.283	n/a	n/a	-999	8	[3, 5, 1]	9	FR1	2	R1378T
861.817	3.984	875680	PROB	3.984	n/a	n/a	-999	8	[1, 2, 4]	7	FR1	2	R1378T
865.801	2.499	879664	PROB	2.499	n/a	n/a	-999	8	[5, 6, 7]	18	FR1	2	R1378T
868.3	0.0	882162	STOP	n/a	n/a	n/a	-999	8	[-999, -999, -999]	n/a	FR1	2	R1378T
868.3	1.267	882167	DISTRACT_END	n/a	n/a	n/a	-999	8	[0, 0, 0]	n/a	FR1	2	R1378T
869.567	3.847	883426	REC_START	n/a	n/a	n/a	-999	8	[0, 0, 0]	n/a	FR1	2	R1378T
873.414	3.423	887276	REC_WORD_VV	3.423	n/a	<>	-999	8	[0, 0, 0]	n/a	FR1	2	R1378T
876.837	2.821	890699	REC_WORD	2.821	n/a	LIMB	12	8	[0, 0, 0]	n/a	FR1	2	R1378T
879.658	7.835	893520	REC_WORD_VV	7.835	n/a	<>	-999	8	[0, 0, 0]	n/a	FR1	2	R1378T
887.493	6.856	901354	REC_WORD	6.856	n/a	COW	-999	8	[0, 0, 0]	n/a	FR1	2	R1378T
894.349	5.465	908210	REC_WORD	5.465	n/a	BRANCH	2	8	[0, 0, 0]	n/a	FR1	2	R1378T
899.814	1.536	913669	REC_END	n/a	n/a	n/a	-999	8	[0, 0, 0]	n/a	FR1	2	R1378T
901.35	10.35	915208	COUNTDOWN_START	n/a	n/a	n/a	-999	9	[0, 0, 0]	n/a	FR1	2	R1378T
911.7	0.0	925560	COUNTDOWN_END	n/a	n/a	n/a	-999	9	[0, 0, 0]	n/a	FR1	2	R1378T
911.7	1.883	925560	ENCODING_START	n/a	n/a	n/a	-999	9	[0, 0, 0]	n/a	FR1	2	R1378T
913.583	1.6	927442	WORD	n/a	wordpools/wordpool_short_EN.txt	STEAM	1	9	[0, 0, 0]	n/a	FR1	2	R1378T
915.183	0.867	929045	WORD_OFF	n/a	n/a	STEAM	1	9	[0, 0, 0]	n/a	FR1	2	R1378T
916.05	1.601	929910	WORD	n/a	wordpools/wordpool_short_EN.txt	STONE	2	9	[0, 0, 0]	n/a	FR1	2	R1378T
917.651	1.015	931512	WORD_OFF	n/a	n/a	STONE	2	9	[0, 0, 0]	n/a	FR1	2	R1378T
918.666	1.601	932530	WORD	n/a	wordpools/wordpool_short_EN.txt	FROG	3	9	[0, 0, 0]	n/a	FR1	2	R1378T
920.267	0.95	934132	WORD_OFF	n/a	n/a	FROG	3	9	[0, 0, 0]	n/a	FR1	2	R1378T
921.217	1.616	935073	WORD	n/a	wordpools/wordpool_short_EN.txt	SPARK	4	9	[0, 0, 0]	n/a	FR1	2	R1378T
922.833	0.934	936688	WORD_OFF	n/a	n/a	SPARK	4	9	[0, 0, 0]	n/a	FR1	2	R1378T
923.767	1.6	937630	WORD	n/a	wordpools/wordpool_short_EN.txt	TIE	5	9	[0, 0, 0]	n/a	FR1	2	R1378T
925.367	0.933	939232	WORD_OFF	n/a	n/a	TIE	5	9	[0, 0, 0]	n/a	FR1	2	R1378T
926.3	1.616	940160	WORD	n/a	wordpools/wordpool_short_EN.txt	PLANT	6	9	[0, 0, 0]	n/a	FR1	2	R1378T
927.916	0.984	941776	WORD_OFF	n/a	n/a	PLANT	6	9	[0, 0, 0]	n/a	FR1	2	R1378T
928.9	1.6	942768	WORD	n/a	wordpools/wordpool_short_EN.txt	TOAD	7	9	[0, 0, 0]	n/a	FR1	2	R1378T
930.5	0.9	944357	WORD_OFF	n/a	n/a	TOAD	7	9	[0, 0, 0]	n/a	FR1	2	R1378T
931.4	1.6	945260	WORD	n/a	wordpools/wordpool_short_EN.txt	SLEEVE	8	9	[0, 0, 0]	n/a	FR1	2	R1378T
933.0	0.9	946863	WORD_OFF	n/a	n/a	SLEEVE	8	9	[0, 0, 0]	n/a	FR1	2	R1378T
933.9	1.6	947753	WORD	n/a	wordpools/wordpool_short_EN.txt	PORK	9	9	[0, 0, 0]	n/a	FR1	2	R1378T
935.5	0.85	949355	WORD_OFF	n/a	n/a	PORK	9	9	[0, 0, 0]	n/a	FR1	2	R1378T
936.35	1.6	950208	WORD	n/a	wordpools/wordpool_short_EN.txt	STAR	10	9	[0, 0, 0]	n/a	FR1	2	R1378T
937.95	0.901	951810	WORD_OFF	n/a	n/a	STAR	10	9	[0, 0, 0]	n/a	FR1	2	R1378T
938.851	1.616	952713	WORD	n/a	wordpools/wordpool_short_EN.txt	STREET	11	9	[0, 0, 0]	n/a	FR1	2	R1378T
940.467	0.783	954328	WORD_OFF	n/a	n/a	STREET	11	9	[0, 0, 0]	n/a	FR1	2	R1378T
941.25	1.601	955104	WORD	n/a	wordpools/wordpool_short_EN.txt	PET	12	9	[0, 0, 0]	n/a	FR1	2	R1378T
942.851	0.001	956706	WORD_OFF	n/a	n/a	PET	12	9	[0, 0, 0]	n/a	FR1	2	R1378T
942.852	0.0	956706	ENCODING_END	n/a	n/a	n/a	-999	9	[0, 0, 0]	n/a	FR1	2	R1378T
942.852	0.0	956706	DISTRACT_START	n/a	n/a	n/a	-999	9	[0, 0, 0]	n/a	FR1	2	R1378T
942.851	0.001	956710	PROB	0.001	n/a	n/a	-999	9	[6, 4, 8]	18	FR1	2	R1378T
942.852	3.866	956711	START	n/a	n/a	n/a	-999	9	[-999, -999, -999]	n/a	FR1	2	R1378T
946.718	2.332	960576	PROB	2.332	n/a	n/a	-999	9	[5, 3, 7]	15	FR1	2	R1378T
949.05	2.167	962908	PROB	2.167	n/a	n/a	-999	9	[8, 4, 7]	19	FR1	2	R1378T
951.217	3.334	965075	PROB	3.334	n/a	n/a	-999	9	[8, 7, 8]	23	FR1	2	R1378T
954.551	2.333	968409	PROB	2.333	n/a	n/a	-999	9	[3, 1, 6]	10	FR1	2	R1378T
956.884	2.4	970742	PROB	2.4	n/a	n/a	-999	9	[2, 6, 2]	10	FR1	2	R1378T
959.284	2.484	973142	PROB	2.484	n/a	n/a	-999	9	[7, 3, 7]	17	FR1	2	R1378T
961.768	2.865	975626	PROB	2.865	n/a	n/a	-999	9	[6, 8, 5]	19	FR1	2	R1378T
964.633	0.0	978490	STOP	n/a	n/a	n/a	-999	9	[-999, -999, -999]	n/a	FR1	2	R1378T
964.633	1.384	978492	DISTRACT_END	n/a	n/a	n/a	-999	9	[0, 0, 0]	n/a	FR1	2	R1378T
966.017	4.574	979878	REC_START	n/a	n/a	n/a	-999	9	[0, 0, 0]	n/a	FR1	2	R1378T
970.591	7.095	984448	REC_WORD_VV	7.095	n/a	<>	-999	9	[0, 0, 0]	n/a	FR1	2	R1378T
977.686	4.71	991543	REC_WORD	4.71	n/a	BRANCH	-999	9	[0, 0, 0]	n/a	FR1	2	R1378T
982.396	3.739	996253	REC_WORD	3.739	n/a	STEAM	1	9	[0, 0, 0]	n/a	FR1	2	R1378T
986.135	1.446	999991	REC_WORD_VV	1.446	n/a	<>	-999	9	[0, 0, 0]	n/a	FR1	2	R1378T
987.581	1.045	1001437	REC_WORD	1.045	n/a	TOAD	7	9	[0, 0, 0]	n/a	FR1	2	R1378T
988.626	6.634	1002482	REC_WORD	6.634	n/a	FROG	3	9	[0, 0, 0]	n/a	FR1	2	R1378T
995.26	1.001	1009116	REC_WORD	1.001	n/a	WOLF	-999	9	[0, 0, 0]	n/a	FR1	2	R1378T
996.261	1.972	1010122	REC_END	n/a	n/a	n/a	-999	9	[0, 0, 0]	n/a	FR1	2	R1378T
998.233	10.351	1012093	COUNTDOWN_START	n/a	n/a	n/a	-999	10	[0, 0, 0]	n/a	FR1	2	R1378T
1008.584	0.0	1022445	COUNTDOWN_END	n/a	n/a	n/a	-999	10	[0, 0, 0]	n/a	FR1	2	R1378T
1008.584	1.999	1022445	ENCODING_START	n/a	n/a	n/a	-999	10	[0, 0, 0]	n/a	FR1	2	R1378T
1010.583	1.601	1024442	WORD	n/a	wordpools/wordpool_short_EN.txt	WAND	1	10	[0, 0, 0]	n/a	FR1	2	R1378T
1012.184	1.0	1026032	WORD_OFF	n/a	n/a	WAND	1	10	[0, 0, 0]	n/a	FR1	2	R1378T
1013.184	1.6	1027037	WORD	n/a	wordpools/wordpool_short_EN.txt	JUDGE	2	10	[0, 0, 0]	n/a	FR1	2	R1378T
1014.784	0.916	1028639	WORD_OFF	n/a	n/a	JUDGE	2	10	[0, 0, 0]	n/a	FR1	2	R1378T
1015.7	1.617	1029555	WORD	n/a	wordpools/wordpool_short_EN.txt	MOLE	3	10	[0, 0, 0]	n/a	FR1	2	R1378T
1017.317	0.9	1031170	WORD_OFF	n/a	n/a	MOLE	3	10	[0, 0, 0]	n/a	FR1	2	R1378T
1018.217	1.6	1032073	WORD	n/a	wordpools/wordpool_short_EN.txt	DOG	4	10	[0, 0, 0]	n/a	FR1	2	R1378T
1019.817	0.966	1033675	WORD_OFF	n/a	n/a	DOG	4	10	[0, 0, 0]	n/a	FR1	2	R1378T
1020.783	1.617	1034642	WORD	n/a	wordpools/wordpool_short_EN.txt	WHEEL	5	10	[0, 0, 0]	n/a	FR1	2	R1378T
1022.4	0.817	1036257	WORD_OFF	n/a	n/a	WHEEL	5	10	[0, 0, 0]	n/a	FR1	2	R1378T
1023.217	1.6	1037071	WORD	n/a	wordpools/wordpool_short_EN.txt	PIN	6	10	[0, 0, 0]	n/a	FR1	2	R1378T
1024.817	0.9	1038674	WORD_OFF	n/a	n/a	PIN	6	10	[0, 0, 0]	n/a	FR1	2	R1378T
1025.717	1.6	1039576	WORD	n/a	wordpools/wordpool_short_EN.txt	OAR	7	10	[0, 0, 0]	n/a	FR1	2	R1378T
1027.317	0.883	1041166	WORD_OFF	n/a	n/a	OAR	7	10	[0, 0, 0]	n/a	FR1	2	R1378T
1028.2	1.6	1042056	WORD	n/a	wordpools/wordpool_short_EN.txt	FLAG	8	10	[0, 0, 0]	n/a	FR1	2	R1378T
1029.8	0.816	1043659	WORD_OFF	n/a	n/a	FLAG	8	10	[0, 0, 0]	n/a	FR1	2	R1378T
1030.616	1.601	1044473	WORD	n/a	wordpools/wordpool_short_EN.txt	EGG	9	10	[0, 0, 0]	n/a	FR1	2	R1378T
1032.217	0.999	1046075	WORD_OFF	n/a	n/a	EGG	9	10	[0, 0, 0]	n/a	FR1	2	R1378T
1033.216	1.601	1047067	WORD	n/a	wordpools/wordpool_short_EN.txt	ELF	10	10	[0, 0, 0]	n/a	FR1	2	R1378T
1034.817	0.766	1048670	WORD_OFF	n/a	n/a	ELF	10	10	[0, 0, 0]	n/a	FR1	2	R1378T
1035.583	1.617	1049433	WORD	n/a	wordpools/wordpool_short_EN.txt	CONE	11	10	[0, 0, 0]	n/a	FR1	2	R1378T
1037.2	1.0	1051048	WORD_OFF	n/a	n/a	CONE	11	10	[0, 0, 0]	n/a	FR1	2	R1378T
1038.2	1.6	1052053	WORD	n/a	wordpools/wordpool_short_EN.txt	PRINCE	12	10	[0, 0, 0]	n/a	FR1	2	R1378T
1039.8	0.001	1053655	WORD_OFF	n/a	n/a	PRINCE	12	10	[0, 0, 0]	n/a	FR1	2	R1378T
1039.801	0.001	1053655	ENCODING_END	n/a	n/a	n/a	-999	10	[0, 0, 0]	n/a	FR1	2	R1378T
1039.802	0.0	1053655	DISTRACT_START	n/a	n/a	n/a	-999	10	[0, 0, 0]	n/a	FR1	2	R1378T
1039.801	0.001	1053655	PROB	0.001	n/a	n/a	-999	10	[3, 6, 6]	15	FR1	2	R1378T
1039.802	3.082	1053656	START	n/a	n/a	n/a	-999	10	[-999, -999, -999]	n/a	FR1	2	R1378T
1042.884	2.584	1056737	PROB	2.584	n/a	n/a	-999	10	[8, 5, 3]	16	FR1	2	R1378T
1045.468	1.866	1059321	PROB	1.866	n/a	n/a	-999	10	[1, 1, 1]	3	FR1	2	R1378T
1047.334	1.849	1061187	PROB	1.849	n/a	n/a	-999	10	[7, 5, 1]	13	FR1	2	R1378T
1049.183	1.501	1063036	PROB	1.501	n/a	n/a	-999	10	[1, 1, 1]	3	FR1	2	R1378T
1050.684	3.967	1064537	PROB	3.967	n/a	n/a	-999	10	[8, 2, 3]	13	FR1	2	R1378T
1054.651	2.533	1068504	PROB	2.533	n/a	n/a	-999	10	[6, 4, 3]	13	FR1	2	R1378T
1057.184	2.999	1071037	PROB	2.999	n/a	n/a	-999	10	[2, 2, 6]	10	FR1	2	R1378T
1060.183	0.0	1074029	DISTRACT_END	n/a	n/a	n/a	-999	10	[0, 0, 0]	n/a	FR1	2	R1378T
1060.183	1.317	1074036	STOP	n/a	n/a	n/a	-999	10	[-999, -999, -999]	n/a	FR1	2	R1378T
1061.5	2.744	1075352	REC_START	n/a	n/a	n/a	-999	10	[0, 0, 0]	n/a	FR1	2	R1378T
1064.244	1.081	1078096	REC_WORD	1.081	n/a	FLAG	8	10	[0, 0, 0]	n/a	FR1	2	R1378T
1065.325	0.926	1079177	REC_WORD	0.926	n/a	OAR	7	10	[0, 0, 0]	n/a	FR1	2	R1378T
1066.251	1.048	1080103	REC_WORD_VV	1.048	n/a	<>	-999	10	[0, 0, 0]	n/a	FR1	2	R1378T
1067.299	1.805	1081151	REC_WORD	1.805	n/a	JUDGE	2	10	[0, 0, 0]	n/a	FR1	2	R1378T
1069.104	4.54	1082956	REC_WORD_VV	4.54	n/a	<>	-999	10	[0, 0, 0]	n/a	FR1	2	R1378T
1073.644	4.536	1087496	REC_WORD_VV	4.536	n/a	<>	-999	10	[0, 0, 0]	n/a	FR1	2	R1378T
1078.18	0.718	1092032	REC_WORD	0.718	n/a	PADDLE	-999	10	[0, 0, 0]	n/a	FR1	2	R1378T
1078.898	7.862	1092750	REC_WORD_VV	7.862	n/a	<>	-999	10	[0, 0, 0]	n/a	FR1	2	R1378T
1086.76	4.975	1100611	REC_WORD	4.975	n/a	ELF	10	10	[0, 0, 0]	n/a	FR1	2	R1378T
1091.735	1.865	1105583	REC_END	n/a	n/a	n/a	-999	10	[0, 0, 0]	n/a	FR1	2	R1378T
1093.6	10.351	1107452	COUNTDOWN_START	n/a	n/a	n/a	-999	11	[0, 0, 0]	n/a	FR1	2	R1378T
1103.951	0.0	1117805	COUNTDOWN_END	n/a	n/a	n/a	-999	11	[0, 0, 0]	n/a	FR1	2	R1378T
1103.951	2.348	1117805	ENCODING_START	n/a	n/a	n/a	-999	11	[0, 0, 0]	n/a	FR1	2	R1378T
1106.299	1.601	1120145	WORD	n/a	wordpools/wordpool_short_EN.txt	SOIL	1	11	[0, 0, 0]	n/a	FR1	2	R1378T
1107.9	0.917	1121747	WORD_OFF	n/a	n/a	SOIL	1	11	[0, 0, 0]	n/a	FR1	2	R1378T
1108.817	1.616	1122663	WORD	n/a	wordpools/wordpool_short_EN.txt	HOLE	2	11	[0, 0, 0]	n/a	FR1	2	R1378T
1110.433	0.851	1124278	WORD_OFF	n/a	n/a	HOLE	2	11	[0, 0, 0]	n/a	FR1	2	R1378T
1111.284	1.599	1125130	WORD	n/a	wordpools/wordpool_short_EN.txt	RAT	3	11	[0, 0, 0]	n/a	FR1	2	R1378T
1112.883	0.834	1126733	WORD_OFF	n/a	n/a	RAT	3	11	[0, 0, 0]	n/a	FR1	2	R1378T
1113.717	1.616	1127572	WORD	n/a	wordpools/wordpool_short_EN.txt	MEAL	4	11	[0, 0, 0]	n/a	FR1	2	R1378T
1115.333	0.951	1129187	WORD_OFF	n/a	n/a	MEAL	4	11	[0, 0, 0]	n/a	FR1	2	R1378T
1116.284	1.599	1130128	WORD	n/a	wordpools/wordpool_short_EN.txt	MEN	5	11	[0, 0, 0]	n/a	FR1	2	R1378T
1117.883	0.901	1131731	WORD_OFF	n/a	n/a	MEN	5	11	[0, 0, 0]	n/a	FR1	2	R1378T
1118.784	1.615	1132634	WORD	n/a	wordpools/wordpool_short_EN.txt	MIST	6	11	[0, 0, 0]	n/a	FR1	2	R1378T
1120.399	0.984	1134249	WORD_OFF	n/a	n/a	MIST	6	11	[0, 0, 0]	n/a	FR1	2	R1378T
1121.383	1.6	1135228	WORD	n/a	wordpools/wordpool_short_EN.txt	BOMB	7	11	[0, 0, 0]	n/a	FR1	2	R1378T
1122.983	0.934	1136831	WORD_OFF	n/a	n/a	BOMB	7	11	[0, 0, 0]	n/a	FR1	2	R1378T
1123.917	1.6	1137772	WORD	n/a	wordpools/wordpool_short_EN.txt	WORLD	8	11	[0, 0, 0]	n/a	FR1	2	R1378T
1125.517	0.883	1139361	WORD_OFF	n/a	n/a	WORLD	8	11	[0, 0, 0]	n/a	FR1	2	R1378T
1126.4	1.6	1140252	WORD	n/a	wordpools/wordpool_short_EN.txt	POLE	9	11	[0, 0, 0]	n/a	FR1	2	R1378T
1128.0	1.0	1141854	WORD_OFF	n/a	n/a	POLE	9	11	[0, 0, 0]	n/a	FR1	2	R1378T
1129.0	1.617	1142846	WORD	n/a	wordpools/wordpool_short_EN.txt	TOOL	10	11	[0, 0, 0]	n/a	FR1	2	R1378T
1130.617	0.866	1144461	WORD_OFF	n/a	n/a	TOOL	10	11	[0, 0, 0]	n/a	FR1	2	R1378T
1131.483	1.617	1145326	WORD	n/a	wordpools/wordpool_short_EN.txt	SHIELD	11	11	[0, 0, 0]	n/a	FR1	2	R1378T
1133.1	0.917	1146954	WORD_OFF	n/a	n/a	SHIELD	11	11	[0, 0, 0]	n/a	FR1	2	R1378T
1134.017	1.617	1147870	WORD	n/a	wordpools/wordpool_short_EN.txt	SWAMP	12	11	[0, 0, 0]	n/a	FR1	2	R1378T
1135.634	0.001	1149483	START	n/a	n/a	n/a	-999	11	[-999, -999, -999]	n/a	FR1	2	R1378T
1135.635	0.0	1149484	PROB	0.0	n/a	n/a	-999	11	[4, 8, 6]	18	FR1	2	R1378T
1135.633	0.001	1149485	WORD_OFF	n/a	n/a	SWAMP	12	11	[0, 0, 0]	n/a	FR1	2	R1378T
1135.634	0.0	1149485	ENCODING_END	n/a	n/a	n/a	-999	11	[0, 0, 0]	n/a	FR1	2	R1378T
1135.634	5.167	1149485	DISTRACT_START	n/a	n/a	n/a	-999	11	[0, 0, 0]	n/a	FR1	2	R1378T
1140.801	2.832	1154649	PROB	2.832	n/a	n/a	-999	11	[2, 5, 2]	9	FR1	2	R1378T
1143.633	4.217	1157481	PROB	4.217	n/a	n/a	-999	11	[3, 6, 7]	16	FR1	2	R1378T
1147.85	3.384	1161698	PROB	3.384	n/a	n/a	-999	11	[7, 8, 3]	18	FR1	2	R1378T
1151.234	2.95	1165082	PROB	2.95	n/a	n/a	-999	11	[3, 5, 8]	16	FR1	2	R1378T
1154.184	2.432	1168032	PROB	2.432	n/a	n/a	-999	11	[2, 4, 4]	10	FR1	2	R1378T
1156.616	0.0	1170464	STOP	n/a	n/a	n/a	-999	11	[-999, -999, -999]	n/a	FR1	2	R1378T
1156.616	1.067	1170470	DISTRACT_END	n/a	n/a	n/a	-999	11	[0, 0, 0]	n/a	FR1	2	R1378T
1157.683	2.28	1171525	REC_START	n/a	n/a	n/a	-999	11	[0, 0, 0]	n/a	FR1	2	R1378T
1159.963	0.792	1173811	REC_WORD	0.792	n/a	MEN	5	11	[0, 0, 0]	n/a	FR1	2	R1378T
1160.755	0.591	1174602	REC_WORD	0.591	n/a	BOMB	7	11	[0, 0, 0]	n/a	FR1	2	R1378T
1161.346	0.712	1175193	REC_WORD	0.712	n/a	WORLD	8	11	[0, 0, 0]	n/a	FR1	2	R1378T
1162.058	3.024	1175905	REC_WORD	3.024	n/a	SHIELD	11	11	[0, 0, 0]	n/a	FR1	2	R1378T
1165.082	4.541	1178929	REC_WORD	4.541	n/a	SWAMP	12	11	[0, 0, 0]	n/a	FR1	2	R1378T
1169.623	8.617	1183470	REC_WORD	8.617	n/a	MIST	6	11	[0, 0, 0]	n/a	FR1	2	R1378T
1178.24	3.261	1192087	REC_WORD	3.261	n/a	SPARK	-999	11	[0, 0, 0]	n/a	FR1	2	R1378T
1181.501	6.424	1195347	REC_WORD	6.424	n/a	FLAME	-999	11	[0, 0, 0]	n/a	FR1	2	R1378T
1187.925	1.825	1201768	REC_END	n/a	n/a	n/a	-999	11	[0, 0, 0]	n/a	FR1	2	R1378T
1189.75	10.351	1203600	COUNTDOWN_START	n/a	n/a	n/a	-999	12	[0, 0, 0]	n/a	FR1	2	R1378T
1200.101	0.0	1213952	COUNTDOWN_END	n/a	n/a	n/a	-999	12	[0, 0, 0]	n/a	FR1	2	R1378T
1200.101	1.882	1213952	ENCODING_START	n/a	n/a	n/a	-999	12	[0, 0, 0]	n/a	FR1	2	R1378T
1201.983	1.6	1215834	WORD	n/a	wordpools/wordpool_short_EN.txt	DART	1	12	[0, 0, 0]	n/a	FR1	2	R1378T
1203.583	0.883	1217424	WORD_OFF	n/a	n/a	DART	1	12	[0, 0, 0]	n/a	FR1	2	R1378T
1204.466	1.601	1218314	WORD	n/a	wordpools/wordpool_short_EN.txt	LENS	2	12	[0, 0, 0]	n/a	FR1	2	R1378T
1206.067	0.816	1219917	WORD_OFF	n/a	n/a	LENS	2	12	[0, 0, 0]	n/a	FR1	2	R1378T
1206.883	1.6	1220731	WORD	n/a	wordpools/wordpool_short_EN.txt	EEL	3	12	[0, 0, 0]	n/a	FR1	2	R1378T
1208.483	0.767	1222333	WORD_OFF	n/a	n/a	EEL	3	12	[0, 0, 0]	n/a	FR1	2	R1378T
1209.25	1.6	1223096	WORD	n/a	wordpools/wordpool_short_EN.txt	CRANE	4	12	[0, 0, 0]	n/a	FR1	2	R1378T
1210.85	0.8	1224699	WORD_OFF	n/a	n/a	CRANE	4	12	[0, 0, 0]	n/a	FR1	2	R1378T
1211.65	1.616	1225500	WORD	n/a	wordpools/wordpool_short_EN.txt	SNAKE	5	12	[0, 0, 0]	n/a	FR1	2	R1378T
1213.266	0.867	1227115	WORD_OFF	n/a	n/a	SNAKE	5	12	[0, 0, 0]	n/a	FR1	2	R1378T
1214.133	1.6	1227980	WORD	n/a	wordpools/wordpool_short_EN.txt	HOUSE	6	12	[0, 0, 0]	n/a	FR1	2	R1378T
1215.733	0.834	1229582	WORD_OFF	n/a	n/a	HOUSE	6	12	[0, 0, 0]	n/a	FR1	2	R1378T
1216.567	1.6	1230409	WORD	n/a	wordpools/wordpool_short_EN.txt	MOUTH	7	12	[0, 0, 0]	n/a	FR1	2	R1378T
1218.167	0.767	1232012	WORD_OFF	n/a	n/a	MOUTH	7	12	[0, 0, 0]	n/a	FR1	2	R1378T
1218.934	1.6	1232775	WORD	n/a	wordpools/wordpool_short_EN.txt	CUBE	8	12	[0, 0, 0]	n/a	FR1	2	R1378T
1220.534	0.799	1234377	WORD_OFF	n/a	n/a	CUBE	8	12	[0, 0, 0]	n/a	FR1	2	R1378T
1221.333	1.616	1235191	WORD	n/a	wordpools/wordpool_short_EN.txt	MOSS	9	12	[0, 0, 0]	n/a	FR1	2	R1378T
1222.949	0.933	1236794	WORD_OFF	n/a	n/a	MOSS	9	12	[0, 0, 0]	n/a	FR1	2	R1378T
1223.882	1.601	1237722	WORD	n/a	wordpools/wordpool_short_EN.txt	JET	10	12	[0, 0, 0]	n/a	FR1	2	R1378T
1225.483	0.817	1239324	WORD_OFF	n/a	n/a	JET	10	12	[0, 0, 0]	n/a	FR1	2	R1378T
1226.3	1.6	1240138	WORD	n/a	wordpools/wordpool_short_EN.txt	BAY	11	12	[0, 0, 0]	n/a	FR1	2	R1378T
1227.9	0.95	1241741	WORD_OFF	n/a	n/a	BAY	11	12	[0, 0, 0]	n/a	FR1	2	R1378T
1228.85	1.601	1242695	WORD	n/a	wordpools/wordpool_short_EN.txt	TREE	12	12	[0, 0, 0]	n/a	FR1	2	R1378T
1230.451	0.001	1244295	PROB	0.001	n/a	n/a	-999	12	[6, 8, 7]	21	FR1	2	R1378T
1230.452	0.0	1244296	START	n/a	n/a	n/a	-999	12	[-999, -999, -999]	n/a	FR1	2	R1378T
1230.45	0.002	1244297	WORD_OFF	n/a	n/a	TREE	12	12	[0, 0, 0]	n/a	FR1	2	R1378T
1230.452	0.0	1244297	ENCODING_END	n/a	n/a	n/a	-999	12	[0, 0, 0]	n/a	FR1	2	R1378T
1230.452	3.248	1244297	DISTRACT_START	n/a	n/a	n/a	-999	12	[0, 0, 0]	n/a	FR1	2	R1378T
1233.7	2.351	1247544	PROB	2.351	n/a	n/a	-999	12	[6, 6, 6]	18	FR1	2	R1378T
1236.051	3.299	1249895	PROB	3.299	n/a	n/a	-999	12	[7, 8, 4]	19	FR1	2	R1378T
1239.35	2.517	1253193	PROB	2.517	n/a	n/a	-999	12	[3, 2, 2]	7	FR1	2	R1378T
1241.867	2.084	1255710	PROB	2.084	n/a	n/a	-999	12	[4, 6, 2]	12	FR1	2	R1378T
1243.951	2.466	1257794	PROB	2.466	n/a	n/a	-999	12	[6, 7, 1]	14	FR1	2	R1378T
1246.417	2.7	1260260	PROB	2.7	n/a	n/a	-999	12	[4, 8, 2]	14	FR1	2	R1378T
1249.117	3.349	1262960	PROB	3.349	n/a	n/a	-999	12	[3, 8, 8]	19	FR1	2	R1378T
1252.466	0.0	1266309	STOP	n/a	n/a	n/a	-999	12	[-999, -999, -999]	n/a	FR1	2	R1378T
1252.466	1.067	1266312	DISTRACT_END	n/a	n/a	n/a	-999	12	[0, 0, 0]	n/a	FR1	2	R1378T
1253.533	3.589	1267380	REC_START	n/a	n/a	n/a	-999	12	[0, 0, 0]	n/a	FR1	2	R1378T
1257.122	2.09	1270965	REC_WORD_VV	2.09	n/a	<>	-999	12	[0, 0, 0]	n/a	FR1	2	R1378T
1259.212	1.219	1273054	REC_WORD	1.219	n/a	SNAKE	5	12	[0, 0, 0]	n/a	FR1	2	R1378T
1260.431	1.968	1274273	REC_WORD	1.968	n/a	EEL	3	12	[0, 0, 0]	n/a	FR1	2	R1378T
1262.399	2.12	1276241	REC_WORD_VV	2.12	n/a	<>	-999	12	[0, 0, 0]	n/a	FR1	2	R1378T
1264.519	4.591	1278361	REC_WORD	4.591	n/a	CRANE	4	12	[0, 0, 0]	n/a	FR1	2	R1378T
1269.11	2.041	1282952	REC_WORD_VV	2.041	n/a	<>	-999	12	[0, 0, 0]	n/a	FR1	2	R1378T
1271.151	12.625	1284993	REC_WORD	12.625	n/a	SHOCK	-999	12	[0, 0, 0]	n/a	FR1	2	R1378T
1283.776	0.0	1297623	REC_END	n/a	n/a	n/a	-999	12	[0, 0, 0]	n/a	FR1	2	R1378T
