onset	duration	sample	trial_type	response_time	stim_file	item_name	serialpos	list	test	answer	experiment	session	subject
0.0	0.0	6149	INSTRUCT_START	n/a	n/a	n/a	-999	-999	[0, 0, 0]	n/a	FR1	1	R1174T
0.0	11.083	6149	INSTRUCT_END	n/a	n/a	n/a	-999	-999	[0, 0, 0]	n/a	FR1	1	R1174T
11.083	0.0	17231	SESS_START	n/a	n/a	n/a	-999	-999	[0, 0, 0]	n/a	FR1	1	R1174T
11.083	9.001	17231	MIC_TEST	n/a	n/a	n/a	-999	-999	[0, 0, 0]	n/a	FR1	1	R1174T
20.084	5.77	26232	PRACTICE_TRIAL	n/a	n/a	n/a	-999	-1	[0, 0, 0]	n/a	FR1	1	R1174T
25.854	10.428	32001	COUNTDOWN_START	n/a	n/a	n/a	-999	-1	[0, 0, 0]	n/a	FR1	1	R1174T
36.282	0.009	42429	COUNTDOWN_END	n/a	n/a	n/a	-999	-1	[0, 0, 0]	n/a	FR1	1	R1174T
36.291	1.616	42438	PRACTICE_ORIENT	n/a	n/a	n/a	-999	-1	[0, 0, 0]	n/a	FR1	1	R1174T
37.907	2.017	44053	PRACTICE_ORIENT_OFF	n/a	n/a	n/a	-999	-1	[0, 0, 0]	n/a	FR1	1	R1174T
39.924	1.617	46070	PRACTICE_WORD	n/a	n/a	RHINO	1	-1	[0, 0, 0]	n/a	FR1	1	R1174T
41.541	0.85	47687	PRACTICE_WORD_OFF	n/a	n/a	RHINO	-999	-1	[0, 0, 0]	n/a	FR1	1	R1174T
42.391	1.617	48537	PRACTICE_WORD	n/a	n/a	WAGON	2	-1	[0, 0, 0]	n/a	FR1	1	R1174T
44.008	0.9	50154	PRACTICE_WORD_OFF	n/a	n/a	WAGON	-999	-1	[0, 0, 0]	n/a	FR1	1	R1174T
44.908	1.617	51054	PRACTICE_WORD	n/a	n/a	WATCH	3	-1	[0, 0, 0]	n/a	FR1	1	R1174T
46.525	0.768	52671	PRACTICE_WORD_OFF	n/a	n/a	WATCH	-999	-1	[0, 0, 0]	n/a	FR1	1	R1174T
47.293	1.616	53439	PRACTICE_WORD	n/a	n/a	RING	4	-1	[0, 0, 0]	n/a	FR1	1	R1174T
48.909	0.783	55055	PRACTICE_WORD_OFF	n/a	n/a	RING	-999	-1	[0, 0, 0]	n/a	FR1	1	R1174T
49.692	1.618	55838	PRACTICE_WORD	n/a	n/a	CAMEL	5	-1	[0, 0, 0]	n/a	FR1	1	R1174T
51.31	1.0	57456	PRACTICE_WORD_OFF	n/a	n/a	CAMEL	-999	-1	[0, 0, 0]	n/a	FR1	1	R1174T
52.31	1.616	58456	PRACTICE_WORD	n/a	n/a	ATTIC	6	-1	[0, 0, 0]	n/a	FR1	1	R1174T
53.926	0.767	60072	PRACTICE_WORD_OFF	n/a	n/a	ATTIC	-999	-1	[0, 0, 0]	n/a	FR1	1	R1174T
54.693	1.618	60838	PRACTICE_WORD	n/a	n/a	CHEST	7	-1	[0, 0, 0]	n/a	FR1	1	R1174T
56.311	0.883	62456	PRACTICE_WORD_OFF	n/a	n/a	CHEST	-999	-1	[0, 0, 0]	n/a	FR1	1	R1174T
57.194	1.616	63339	PRACTICE_WORD	n/a	n/a	FLOOD	8	-1	[0, 0, 0]	n/a	FR1	1	R1174T
58.81	0.767	64955	PRACTICE_WORD_OFF	n/a	n/a	FLOOD	-999	-1	[0, 0, 0]	n/a	FR1	1	R1174T
59.577	1.601	65722	PRACTICE_WORD	n/a	n/a	BEAM	9	-1	[0, 0, 0]	n/a	FR1	1	R1174T
61.178	0.901	67323	PRACTICE_WORD_OFF	n/a	n/a	BEAM	-999	-1	[0, 0, 0]	n/a	FR1	1	R1174T
62.079	1.616	68224	PRACTICE_WORD	n/a	n/a	IRON	10	-1	[0, 0, 0]	n/a	FR1	1	R1174T
63.695	1.0	69840	PRACTICE_WORD_OFF	n/a	n/a	IRON	-999	-1	[0, 0, 0]	n/a	FR1	1	R1174T
64.695	1.618	70840	PRACTICE_WORD	n/a	n/a	TONGUE	11	-1	[0, 0, 0]	n/a	FR1	1	R1174T
66.313	0.867	72458	PRACTICE_WORD_OFF	n/a	n/a	TONGUE	-999	-1	[0, 0, 0]	n/a	FR1	1	R1174T
67.18	1.616	73325	PRACTICE_WORD	n/a	n/a	COTTON	12	-1	[0, 0, 0]	n/a	FR1	1	R1174T
68.796	0.0	74941	PRACTICE_WORD_OFF	n/a	n/a	COTTON	-999	-1	[0, 0, 0]	n/a	FR1	1	R1174T
68.796	0.0	74941	DISTRACT_START	n/a	n/a	n/a	-999	-1	[0, 0, 0]	n/a	FR1	1	R1174T
68.796	0.016	74941	START	n/a	n/a	n/a	-999	-1	[-999, -999, -999]	n/a	FR1	1	R1174T
68.812	5.885	74957	PROB	5.885	n/a	n/a	-999	-1	[5, 8, 3]	16	FR1	1	R1174T
74.697	4.75	80841	PROB	4.75	n/a	n/a	-999	-1	[4, 7, 8]	19	FR1	1	R1174T
79.447	7.569	85591	PROB	7.569	n/a	n/a	-999	-1	[2, 7, 4]	13	FR1	1	R1174T
87.016	7.309	93160	PROB	7.309	n/a	n/a	-999	-1	[3, 5, 6]	14	FR1	1	R1174T
94.325	0.009	100468	STOP	n/a	n/a	n/a	-999	-1	[-999, -999, -999]	n/a	FR1	1	R1174T
94.334	0.65	100477	DISTRACT_END	n/a	n/a	n/a	-999	-1	[0, 0, 0]	n/a	FR1	1	R1174T
94.984	0.517	101127	RETRIEVAL_ORIENT	n/a	n/a	n/a	-999	-1	[0, 0, 0]	n/a	FR1	1	R1174T
95.501	30.01	101644	PRACTICE_REC_START	n/a	n/a	n/a	-999	-1	[0, 0, 0]	n/a	FR1	1	R1174T
125.511	16.582	131652	PRACTICE_REC_END	n/a	n/a	n/a	-999	-1	[0, 0, 0]	n/a	FR1	1	R1174T
142.093	0.5	148233	TRIAL	n/a	n/a	n/a	-999	1	[0, 0, 0]	n/a	FR1	1	R1174T
142.593	10.428	148733	COUNTDOWN_START	n/a	n/a	n/a	-999	1	[0, 0, 0]	n/a	FR1	1	R1174T
153.021	0.006	159161	COUNTDOWN_END	n/a	n/a	n/a	-999	1	[0, 0, 0]	n/a	FR1	1	R1174T
153.027	1.617	159167	ORIENT	n/a	n/a	n/a	-999	1	[0, 0, 0]	n/a	FR1	1	R1174T
154.644	2.101	160784	ORIENT_OFF	n/a	n/a	n/a	-999	1	[0, 0, 0]	n/a	FR1	1	R1174T
156.745	1.617	162884	WORD	n/a	wordpools/wordpool_EN.txt	WING	1	1	[0, 0, 0]	n/a	FR1	1	R1174T
158.362	0.834	164501	WORD_OFF	n/a	n/a	WING	1	1	[0, 0, 0]	n/a	FR1	1	R1174T
159.196	1.616	165335	WORD	n/a	wordpools/wordpool_EN.txt	SHRIMP	2	1	[0, 0, 0]	n/a	FR1	1	R1174T
160.812	0.9	166951	WORD_OFF	n/a	n/a	SHRIMP	2	1	[0, 0, 0]	n/a	FR1	1	R1174T
161.712	1.617	167851	WORD	n/a	wordpools/wordpool_EN.txt	BEACH	3	1	[0, 0, 0]	n/a	FR1	1	R1174T
163.329	0.768	169468	WORD_OFF	n/a	n/a	BEACH	3	1	[0, 0, 0]	n/a	FR1	1	R1174T
164.097	1.616	170236	WORD	n/a	wordpools/wordpool_EN.txt	BOAT	4	1	[0, 0, 0]	n/a	FR1	1	R1174T
165.713	0.884	171852	WORD_OFF	n/a	n/a	BOAT	4	1	[0, 0, 0]	n/a	FR1	1	R1174T
166.597	1.618	172736	WORD	n/a	wordpools/wordpool_EN.txt	TANK	5	1	[0, 0, 0]	n/a	FR1	1	R1174T
168.215	0.85	174354	WORD_OFF	n/a	n/a	TANK	5	1	[0, 0, 0]	n/a	FR1	1	R1174T
169.065	1.616	175204	WORD	n/a	wordpools/wordpool_EN.txt	FISH	6	1	[0, 0, 0]	n/a	FR1	1	R1174T
170.681	0.95	176820	WORD_OFF	n/a	n/a	FISH	6	1	[0, 0, 0]	n/a	FR1	1	R1174T
171.631	1.618	177770	WORD	n/a	wordpools/wordpool_EN.txt	SKY	7	1	[0, 0, 0]	n/a	FR1	1	R1174T
173.249	0.933	179388	WORD_OFF	n/a	n/a	SKY	7	1	[0, 0, 0]	n/a	FR1	1	R1174T
174.182	1.616	180320	WORD	n/a	wordpools/wordpool_EN.txt	FLAG	8	1	[0, 0, 0]	n/a	FR1	1	R1174T
175.798	0.85	181936	WORD_OFF	n/a	n/a	FLAG	8	1	[0, 0, 0]	n/a	FR1	1	R1174T
176.648	1.601	182786	WORD	n/a	wordpools/wordpool_EN.txt	SAIL	9	1	[0, 0, 0]	n/a	FR1	1	R1174T
178.249	0.868	184387	WORD_OFF	n/a	n/a	SAIL	9	1	[0, 0, 0]	n/a	FR1	1	R1174T
179.117	1.616	185255	WORD	n/a	wordpools/wordpool_EN.txt	SUN	10	1	[0, 0, 0]	n/a	FR1	1	R1174T
180.733	0.766	186871	WORD_OFF	n/a	n/a	SUN	10	1	[0, 0, 0]	n/a	FR1	1	R1174T
181.499	1.618	187637	WORD	n/a	wordpools/wordpool_EN.txt	DART	11	1	[0, 0, 0]	n/a	FR1	1	R1174T
183.117	0.95	189255	WORD_OFF	n/a	n/a	DART	11	1	[0, 0, 0]	n/a	FR1	1	R1174T
184.067	1.616	190205	WORD	n/a	wordpools/wordpool_EN.txt	FOAM	12	1	[0, 0, 0]	n/a	FR1	1	R1174T
185.683	0.0	191821	WORD_OFF	n/a	n/a	FOAM	12	1	[0, 0, 0]	n/a	FR1	1	R1174T
185.683	0.001	191821	DISTRACT_START	n/a	n/a	n/a	-999	1	[0, 0, 0]	n/a	FR1	1	R1174T
185.684	0.016	191822	START	n/a	n/a	n/a	-999	1	[-999, -999, -999]	n/a	FR1	1	R1174T
185.7	10.635	191838	PROB	10.635	n/a	n/a	-999	1	[8, 9, 3]	20	FR1	1	R1174T
196.335	5.451	202472	PROB	5.451	n/a	n/a	-999	1	[3, 5, 1]	9	FR1	1	R1174T
201.786	9.443	207923	PROB	9.443	n/a	n/a	-999	1	[8, 5, 3]	16	FR1	1	R1174T
211.229	0.01	217365	STOP	n/a	n/a	n/a	-999	1	[-999, -999, -999]	n/a	FR1	1	R1174T
211.239	0.599	217375	DISTRACT_END	n/a	n/a	n/a	-999	1	[0, 0, 0]	n/a	FR1	1	R1174T
211.838	0.518	217974	RETRIEVAL_ORIENT	n/a	n/a	n/a	-999	1	[0, 0, 0]	n/a	FR1	1	R1174T
212.356	0.538	218492	REC_START	n/a	n/a	n/a	-999	1	[0, 0, 0]	n/a	FR1	1	R1174T
212.894	1.918	219030	REC_WORD_VV	1.918	n/a	<>	-999	1	[0, 0, 0]	n/a	FR1	1	R1174T
214.812	0.506	220948	REC_WORD	0.506	n/a	BOAT	-999	1	[0, 0, 0]	n/a	FR1	1	R1174T
215.318	1.39	221454	REC_WORD	1.39	n/a	SKY	-999	1	[0, 0, 0]	n/a	FR1	1	R1174T
216.708	1.501	222844	REC_WORD	1.501	n/a	SHRIMP	-999	1	[0, 0, 0]	n/a	FR1	1	R1174T
218.209	7.905	224345	REC_WORD	7.905	n/a	WING	-999	1	[0, 0, 0]	n/a	FR1	1	R1174T
226.114	16.25	232249	REC_WORD	16.25	n/a	IRON	-999	1	[0, 0, 0]	n/a	FR1	1	R1174T
242.364	6.782	248498	REC_END	n/a	n/a	n/a	-999	1	[0, 0, 0]	n/a	FR1	1	R1174T
249.146	0.5	255280	TRIAL	n/a	n/a	n/a	-999	2	[0, 0, 0]	n/a	FR1	1	R1174T
249.646	10.428	255780	COUNTDOWN_START	n/a	n/a	n/a	-999	2	[0, 0, 0]	n/a	FR1	1	R1174T
260.074	0.007	266207	COUNTDOWN_END	n/a	n/a	n/a	-999	2	[0, 0, 0]	n/a	FR1	1	R1174T
260.081	1.616	266214	ORIENT	n/a	n/a	n/a	-999	2	[0, 0, 0]	n/a	FR1	1	R1174T
261.697	2.034	267830	ORIENT_OFF	n/a	n/a	n/a	-999	2	[0, 0, 0]	n/a	FR1	1	R1174T
263.731	1.617	269864	WORD	n/a	wordpools/wordpool_EN.txt	DIME	1	2	[0, 0, 0]	n/a	FR1	1	R1174T
265.348	0.901	271481	WORD_OFF	n/a	n/a	DIME	1	2	[0, 0, 0]	n/a	FR1	1	R1174T
266.249	1.616	272382	WORD	n/a	wordpools/wordpool_EN.txt	RICE	2	2	[0, 0, 0]	n/a	FR1	1	R1174T
267.865	0.95	273998	WORD_OFF	n/a	n/a	RICE	2	2	[0, 0, 0]	n/a	FR1	1	R1174T
268.815	1.617	274948	WORD	n/a	wordpools/wordpool_EN.txt	TOE	3	2	[0, 0, 0]	n/a	FR1	1	R1174T
270.432	0.967	276565	WORD_OFF	n/a	n/a	TOE	3	2	[0, 0, 0]	n/a	FR1	1	R1174T
271.399	1.617	277532	WORD	n/a	wordpools/wordpool_EN.txt	PEA	4	2	[0, 0, 0]	n/a	FR1	1	R1174T
273.016	0.9	279149	WORD_OFF	n/a	n/a	PEA	4	2	[0, 0, 0]	n/a	FR1	1	R1174T
273.916	1.617	280049	WORD	n/a	wordpools/wordpool_EN.txt	TEA	5	2	[0, 0, 0]	n/a	FR1	1	R1174T
275.533	0.967	281666	WORD_OFF	n/a	n/a	TEA	5	2	[0, 0, 0]	n/a	FR1	1	R1174T
276.5	1.618	282632	WORD	n/a	wordpools/wordpool_EN.txt	LAMP	6	2	[0, 0, 0]	n/a	FR1	1	R1174T
278.118	0.916	284250	WORD_OFF	n/a	n/a	LAMP	6	2	[0, 0, 0]	n/a	FR1	1	R1174T
279.034	1.617	285166	WORD	n/a	wordpools/wordpool_EN.txt	MOUTH	7	2	[0, 0, 0]	n/a	FR1	1	R1174T
280.651	0.783	286783	WORD_OFF	n/a	n/a	MOUTH	7	2	[0, 0, 0]	n/a	FR1	1	R1174T
281.434	1.617	287566	WORD	n/a	wordpools/wordpool_EN.txt	WALL	8	2	[0, 0, 0]	n/a	FR1	1	R1174T
283.051	0.817	289183	WORD_OFF	n/a	n/a	WALL	8	2	[0, 0, 0]	n/a	FR1	1	R1174T
283.868	1.617	290000	WORD	n/a	wordpools/wordpool_EN.txt	TIE	9	2	[0, 0, 0]	n/a	FR1	1	R1174T
285.485	0.983	291617	WORD_OFF	n/a	n/a	TIE	9	2	[0, 0, 0]	n/a	FR1	1	R1174T
286.468	1.618	292600	WORD	n/a	wordpools/wordpool_EN.txt	LIP	10	2	[0, 0, 0]	n/a	FR1	1	R1174T
288.086	0.933	294218	WORD_OFF	n/a	n/a	LIP	10	2	[0, 0, 0]	n/a	FR1	1	R1174T
289.019	1.617	295151	WORD	n/a	wordpools/wordpool_EN.txt	COUCH	11	2	[0, 0, 0]	n/a	FR1	1	R1174T
290.636	0.817	296768	WORD_OFF	n/a	n/a	COUCH	11	2	[0, 0, 0]	n/a	FR1	1	R1174T
291.453	1.618	297585	WORD	n/a	wordpools/wordpool_EN.txt	FLOOR	12	2	[0, 0, 0]	n/a	FR1	1	R1174T
293.071	0.0	299202	DISTRACT_START	n/a	n/a	n/a	-999	2	[0, 0, 0]	n/a	FR1	1	R1174T
293.071	0.0	299202	WORD_OFF	n/a	n/a	FLOOR	12	2	[0, 0, 0]	n/a	FR1	1	R1174T
293.071	0.016	299202	START	n/a	n/a	n/a	-999	2	[-999, -999, -999]	n/a	FR1	1	R1174T
293.087	5.168	299218	PROB	5.168	n/a	n/a	-999	2	[4, 1, 4]	9	FR1	1	R1174T
298.255	4.951	304386	PROB	4.951	n/a	n/a	-999	2	[1, 1, 3]	5	FR1	1	R1174T
303.206	5.901	309337	PROB	5.901	n/a	n/a	-999	2	[5, 4, 4]	13	FR1	1	R1174T
309.107	6.68	315238	PROB	6.68	n/a	n/a	-999	2	[4, 7, 8]	19	FR1	1	R1174T
315.787	0.02	321917	STOP	n/a	n/a	n/a	-999	2	[-999, -999, -999]	n/a	FR1	1	R1174T
315.807	0.7	321937	DISTRACT_END	n/a	n/a	n/a	-999	2	[0, 0, 0]	n/a	FR1	1	R1174T
316.507	0.518	322637	RETRIEVAL_ORIENT	n/a	n/a	n/a	-999	2	[0, 0, 0]	n/a	FR1	1	R1174T
317.025	3.238	323155	REC_START	n/a	n/a	n/a	-999	2	[0, 0, 0]	n/a	FR1	1	R1174T
320.263	3.478	326393	REC_WORD	3.478	n/a	DIME	-999	2	[0, 0, 0]	n/a	FR1	1	R1174T
323.741	0.939	329871	REC_WORD	0.939	n/a	FLOOR	-999	2	[0, 0, 0]	n/a	FR1	1	R1174T
324.68	8.691	330810	REC_WORD	8.691	n/a	COUCH	-999	2	[0, 0, 0]	n/a	FR1	1	R1174T
333.371	0.471	339500	REC_WORD	0.471	n/a	TOE	-999	2	[0, 0, 0]	n/a	FR1	1	R1174T
333.842	9.358	339971	REC_WORD	9.358	n/a	TIE	-999	2	[0, 0, 0]	n/a	FR1	1	R1174T
343.2	0.512	349329	REC_WORD	0.512	n/a	ROOM	-999	2	[0, 0, 0]	n/a	FR1	1	R1174T
343.712	3.324	349840	REC_WORD	3.324	n/a	WALL	-999	2	[0, 0, 0]	n/a	FR1	1	R1174T
347.036	6.045	353164	REC_END	n/a	n/a	n/a	-999	2	[0, 0, 0]	n/a	FR1	1	R1174T
353.081	0.5	359209	TRIAL	n/a	n/a	n/a	-999	3	[0, 0, 0]	n/a	FR1	1	R1174T
353.581	10.428	359709	COUNTDOWN_START	n/a	n/a	n/a	-999	3	[0, 0, 0]	n/a	FR1	1	R1174T
364.009	0.007	370136	COUNTDOWN_END	n/a	n/a	n/a	-999	3	[0, 0, 0]	n/a	FR1	1	R1174T
364.016	1.617	370143	ORIENT	n/a	n/a	n/a	-999	3	[0, 0, 0]	n/a	FR1	1	R1174T
365.633	1.933	371760	ORIENT_OFF	n/a	n/a	n/a	-999	3	[0, 0, 0]	n/a	FR1	1	R1174T
367.566	1.602	373693	WORD	n/a	wordpools/wordpool_EN.txt	BLOOM	1	3	[0, 0, 0]	n/a	FR1	1	R1174T
369.168	0.849	375295	WORD_OFF	n/a	n/a	BLOOM	1	3	[0, 0, 0]	n/a	FR1	1	R1174T
370.017	1.617	376144	WORD	n/a	wordpools/wordpool_EN.txt	FRUIT	2	3	[0, 0, 0]	n/a	FR1	1	R1174T
371.634	0.933	377761	WORD_OFF	n/a	n/a	FRUIT	2	3	[0, 0, 0]	n/a	FR1	1	R1174T
372.567	1.601	378694	WORD	n/a	wordpools/wordpool_EN.txt	OAK	3	3	[0, 0, 0]	n/a	FR1	1	R1174T
374.168	0.8	380295	WORD_OFF	n/a	n/a	OAK	3	3	[0, 0, 0]	n/a	FR1	1	R1174T
374.968	1.617	381095	WORD	n/a	wordpools/wordpool_EN.txt	MOTH	4	3	[0, 0, 0]	n/a	FR1	1	R1174T
376.585	1.0	382712	WORD_OFF	n/a	n/a	MOTH	4	3	[0, 0, 0]	n/a	FR1	1	R1174T
377.585	1.618	383712	WORD	n/a	wordpools/wordpool_EN.txt	CUBE	5	3	[0, 0, 0]	n/a	FR1	1	R1174T
379.203	0.832	385329	WORD_OFF	n/a	n/a	CUBE	5	3	[0, 0, 0]	n/a	FR1	1	R1174T
380.035	1.617	386161	WORD	n/a	wordpools/wordpool_EN.txt	SNOW	6	3	[0, 0, 0]	n/a	FR1	1	R1174T
381.652	0.917	387778	WORD_OFF	n/a	n/a	SNOW	6	3	[0, 0, 0]	n/a	FR1	1	R1174T
382.569	1.618	388695	WORD	n/a	wordpools/wordpool_EN.txt	FOG	7	3	[0, 0, 0]	n/a	FR1	1	R1174T
384.187	0.799	390313	WORD_OFF	n/a	n/a	FOG	7	3	[0, 0, 0]	n/a	FR1	1	R1174T
384.986	1.617	391112	WORD	n/a	wordpools/wordpool_EN.txt	BUSH	8	3	[0, 0, 0]	n/a	FR1	1	R1174T
386.603	0.934	392729	WORD_OFF	n/a	n/a	BUSH	8	3	[0, 0, 0]	n/a	FR1	1	R1174T
387.537	1.618	393663	WORD	n/a	wordpools/wordpool_EN.txt	SPRING	9	3	[0, 0, 0]	n/a	FR1	1	R1174T
389.155	0.782	395281	WORD_OFF	n/a	n/a	SPRING	9	3	[0, 0, 0]	n/a	FR1	1	R1174T
389.937	1.617	396063	WORD	n/a	wordpools/wordpool_EN.txt	DEER	10	3	[0, 0, 0]	n/a	FR1	1	R1174T
391.554	0.8	397680	WORD_OFF	n/a	n/a	DEER	10	3	[0, 0, 0]	n/a	FR1	1	R1174T
392.354	1.617	398480	WORD	n/a	wordpools/wordpool_EN.txt	SWAMP	11	3	[0, 0, 0]	n/a	FR1	1	R1174T
393.971	0.85	400097	WORD_OFF	n/a	n/a	SWAMP	11	3	[0, 0, 0]	n/a	FR1	1	R1174T
394.821	1.617	400946	WORD	n/a	wordpools/wordpool_EN.txt	BOOT	12	3	[0, 0, 0]	n/a	FR1	1	R1174T
396.438	0.0	402563	WORD_OFF	n/a	n/a	BOOT	12	3	[0, 0, 0]	n/a	FR1	1	R1174T
396.438	0.001	402563	DISTRACT_START	n/a	n/a	n/a	-999	3	[0, 0, 0]	n/a	FR1	1	R1174T
396.439	0.016	402564	START	n/a	n/a	n/a	-999	3	[-999, -999, -999]	n/a	FR1	1	R1174T
396.455	9.786	402580	PROB	9.786	n/a	n/a	-999	3	[5, 8, 7]	20	FR1	1	R1174T
406.241	7.051	412366	PROB	7.051	n/a	n/a	-999	3	[3, 3, 5]	11	FR1	1	R1174T
413.292	6.103	419416	PROB	6.103	n/a	n/a	-999	3	[6, 5, 2]	13	FR1	1	R1174T
419.395	0.014	425519	STOP	n/a	n/a	n/a	-999	3	[-999, -999, -999]	n/a	FR1	1	R1174T
419.409	0.701	425533	DISTRACT_END	n/a	n/a	n/a	-999	3	[0, 0, 0]	n/a	FR1	1	R1174T
420.11	0.517	426234	RETRIEVAL_ORIENT	n/a	n/a	n/a	-999	3	[0, 0, 0]	n/a	FR1	1	R1174T
420.627	20.332	426751	REC_START	n/a	n/a	n/a	-999	3	[0, 0, 0]	n/a	FR1	1	R1174T
440.959	9.679	447082	REC_WORD	9.679	n/a	BLOOM	-999	3	[0, 0, 0]	n/a	FR1	1	R1174T
450.638	12.43	456760	REC_END	n/a	n/a	n/a	-999	3	[0, 0, 0]	n/a	FR1	1	R1174T
463.068	0.5	469189	TRIAL	n/a	n/a	n/a	-999	4	[0, 0, 0]	n/a	FR1	1	R1174T
463.568	10.428	469689	COUNTDOWN_START	n/a	n/a	n/a	-999	4	[0, 0, 0]	n/a	FR1	1	R1174T
473.996	0.007	480117	COUNTDOWN_END	n/a	n/a	n/a	-999	4	[0, 0, 0]	n/a	FR1	1	R1174T
474.003	1.617	480124	ORIENT	n/a	n/a	n/a	-999	4	[0, 0, 0]	n/a	FR1	1	R1174T
475.62	1.95	481741	ORIENT_OFF	n/a	n/a	n/a	-999	4	[0, 0, 0]	n/a	FR1	1	R1174T
477.57	1.618	483691	WORD	n/a	wordpools/wordpool_EN.txt	PASTE	1	4	[0, 0, 0]	n/a	FR1	1	R1174T
479.188	0.799	485309	WORD_OFF	n/a	n/a	PASTE	1	4	[0, 0, 0]	n/a	FR1	1	R1174T
479.987	1.617	486107	WORD	n/a	wordpools/wordpool_EN.txt	DESK	2	4	[0, 0, 0]	n/a	FR1	1	R1174T
481.604	0.783	487724	WORD_OFF	n/a	n/a	DESK	2	4	[0, 0, 0]	n/a	FR1	1	R1174T
482.387	1.617	488507	WORD	n/a	wordpools/wordpool_EN.txt	TOOTH	3	4	[0, 0, 0]	n/a	FR1	1	R1174T
484.004	0.884	490124	WORD_OFF	n/a	n/a	TOOTH	3	4	[0, 0, 0]	n/a	FR1	1	R1174T
484.888	1.617	491008	WORD	n/a	wordpools/wordpool_EN.txt	DOOR	4	4	[0, 0, 0]	n/a	FR1	1	R1174T
486.505	0.801	492625	WORD_OFF	n/a	n/a	DOOR	4	4	[0, 0, 0]	n/a	FR1	1	R1174T
487.306	1.616	493426	WORD	n/a	wordpools/wordpool_EN.txt	GLOVE	5	4	[0, 0, 0]	n/a	FR1	1	R1174T
488.922	0.85	495042	WORD_OFF	n/a	n/a	GLOVE	5	4	[0, 0, 0]	n/a	FR1	1	R1174T
489.772	1.617	495892	WORD	n/a	wordpools/wordpool_EN.txt	HAWK	6	4	[0, 0, 0]	n/a	FR1	1	R1174T
491.389	0.934	497509	WORD_OFF	n/a	n/a	HAWK	6	4	[0, 0, 0]	n/a	FR1	1	R1174T
492.323	1.616	498443	WORD	n/a	wordpools/wordpool_EN.txt	CLOWN	7	4	[0, 0, 0]	n/a	FR1	1	R1174T
493.939	0.817	500059	WORD_OFF	n/a	n/a	CLOWN	7	4	[0, 0, 0]	n/a	FR1	1	R1174T
494.756	1.617	500876	WORD	n/a	wordpools/wordpool_EN.txt	TOY	8	4	[0, 0, 0]	n/a	FR1	1	R1174T
496.373	0.868	502493	WORD_OFF	n/a	n/a	TOY	8	4	[0, 0, 0]	n/a	FR1	1	R1174T
497.241	1.616	503360	WORD	n/a	wordpools/wordpool_EN.txt	DUCK	9	4	[0, 0, 0]	n/a	FR1	1	R1174T
498.857	0.95	504976	WORD_OFF	n/a	n/a	DUCK	9	4	[0, 0, 0]	n/a	FR1	1	R1174T
499.807	1.617	505926	WORD	n/a	wordpools/wordpool_EN.txt	ROPE	10	4	[0, 0, 0]	n/a	FR1	1	R1174T
501.424	0.785	507543	WORD_OFF	n/a	n/a	ROPE	10	4	[0, 0, 0]	n/a	FR1	1	R1174T
502.209	1.616	508328	WORD	n/a	wordpools/wordpool_EN.txt	SMILE	11	4	[0, 0, 0]	n/a	FR1	1	R1174T
503.825	0.983	509944	WORD_OFF	n/a	n/a	SMILE	11	4	[0, 0, 0]	n/a	FR1	1	R1174T
504.808	1.617	510927	WORD	n/a	wordpools/wordpool_EN.txt	BADGE	12	4	[0, 0, 0]	n/a	FR1	1	R1174T
506.425	0.0	512544	DISTRACT_START	n/a	n/a	n/a	-999	4	[0, 0, 0]	n/a	FR1	1	R1174T
506.425	0.001	512544	WORD_OFF	n/a	n/a	BADGE	12	4	[0, 0, 0]	n/a	FR1	1	R1174T
506.426	0.016	512545	START	n/a	n/a	n/a	-999	4	[-999, -999, -999]	n/a	FR1	1	R1174T
506.442	6.401	512561	PROB	6.401	n/a	n/a	-999	4	[8, 1, 6]	15	FR1	1	R1174T
512.843	7.084	518962	PROB	7.084	n/a	n/a	-999	4	[5, 7, 8]	20	FR1	1	R1174T
519.927	6.153	526045	PROB	6.153	n/a	n/a	-999	4	[2, 1, 9]	12	FR1	1	R1174T
526.08	6.211	532198	PROB	6.211	n/a	n/a	-999	4	[9, 8, 2]	19	FR1	1	R1174T
532.291	0.006	538408	STOP	n/a	n/a	n/a	-999	4	[-999, -999, -999]	n/a	FR1	1	R1174T
532.297	0.616	538414	DISTRACT_END	n/a	n/a	n/a	-999	4	[0, 0, 0]	n/a	FR1	1	R1174T
532.913	0.52	539030	RETRIEVAL_ORIENT	n/a	n/a	n/a	-999	4	[0, 0, 0]	n/a	FR1	1	R1174T
533.433	3.754	539550	REC_START	n/a	n/a	n/a	-999	4	[0, 0, 0]	n/a	FR1	1	R1174T
537.187	26.253	543304	REC_WORD	26.253	n/a	DESK	-999	4	[0, 0, 0]	n/a	FR1	1	R1174T
563.44	47.471	569556	REC_END	n/a	n/a	n/a	-999	4	[0, 0, 0]	n/a	FR1	1	R1174T
610.911	0.5	617024	TRIAL	n/a	n/a	n/a	-999	5	[0, 0, 0]	n/a	FR1	1	R1174T
611.411	10.428	617524	COUNTDOWN_START	n/a	n/a	n/a	-999	5	[0, 0, 0]	n/a	FR1	1	R1174T
621.839	0.007	627951	COUNTDOWN_END	n/a	n/a	n/a	-999	5	[0, 0, 0]	n/a	FR1	1	R1174T
621.846	1.617	627958	ORIENT	n/a	n/a	n/a	-999	5	[0, 0, 0]	n/a	FR1	1	R1174T
623.463	1.95	629575	ORIENT_OFF	n/a	n/a	n/a	-999	5	[0, 0, 0]	n/a	FR1	1	R1174T
625.413	1.617	631525	WORD	n/a	wordpools/wordpool_EN.txt	MOON	1	5	[0, 0, 0]	n/a	FR1	1	R1174T
627.03	0.951	633142	WORD_OFF	n/a	n/a	MOON	1	5	[0, 0, 0]	n/a	FR1	1	R1174T
627.981	1.616	634093	WORD	n/a	wordpools/wordpool_EN.txt	BEE	2	5	[0, 0, 0]	n/a	FR1	1	R1174T
629.597	0.817	635709	WORD_OFF	n/a	n/a	BEE	2	5	[0, 0, 0]	n/a	FR1	1	R1174T
630.414	1.617	636526	WORD	n/a	wordpools/wordpool_EN.txt	CORD	3	5	[0, 0, 0]	n/a	FR1	1	R1174T
632.031	0.767	638143	WORD_OFF	n/a	n/a	CORD	3	5	[0, 0, 0]	n/a	FR1	1	R1174T
632.798	1.617	638910	WORD	n/a	wordpools/wordpool_EN.txt	STAR	4	5	[0, 0, 0]	n/a	FR1	1	R1174T
634.415	0.868	640526	WORD_OFF	n/a	n/a	STAR	4	5	[0, 0, 0]	n/a	FR1	1	R1174T
635.283	1.616	641394	WORD	n/a	wordpools/wordpool_EN.txt	SNAIL	5	5	[0, 0, 0]	n/a	FR1	1	R1174T
636.899	0.883	643010	WORD_OFF	n/a	n/a	SNAIL	5	5	[0, 0, 0]	n/a	FR1	1	R1174T
637.782	1.617	643893	WORD	n/a	wordpools/wordpool_EN.txt	HEART	6	5	[0, 0, 0]	n/a	FR1	1	R1174T
639.399	0.967	645510	WORD_OFF	n/a	n/a	HEART	6	5	[0, 0, 0]	n/a	FR1	1	R1174T
640.366	1.617	646477	WORD	n/a	wordpools/wordpool_EN.txt	TOAD	7	5	[0, 0, 0]	n/a	FR1	1	R1174T
641.983	0.783	648094	WORD_OFF	n/a	n/a	TOAD	7	5	[0, 0, 0]	n/a	FR1	1	R1174T
642.766	1.617	648877	WORD	n/a	wordpools/wordpool_EN.txt	JUICE	8	5	[0, 0, 0]	n/a	FR1	1	R1174T
644.383	0.835	650494	WORD_OFF	n/a	n/a	JUICE	8	5	[0, 0, 0]	n/a	FR1	1	R1174T
645.218	1.616	651329	WORD	n/a	wordpools/wordpool_EN.txt	HOOF	9	5	[0, 0, 0]	n/a	FR1	1	R1174T
646.834	0.783	652945	WORD_OFF	n/a	n/a	HOOF	9	5	[0, 0, 0]	n/a	FR1	1	R1174T
647.617	1.601	653728	WORD	n/a	wordpools/wordpool_EN.txt	EGG	10	5	[0, 0, 0]	n/a	FR1	1	R1174T
649.218	0.851	655329	WORD_OFF	n/a	n/a	EGG	10	5	[0, 0, 0]	n/a	FR1	1	R1174T
650.069	1.616	656179	WORD	n/a	wordpools/wordpool_EN.txt	CLOCK	11	5	[0, 0, 0]	n/a	FR1	1	R1174T
651.685	0.85	657795	WORD_OFF	n/a	n/a	CLOCK	11	5	[0, 0, 0]	n/a	FR1	1	R1174T
652.535	1.618	658645	WORD	n/a	wordpools/wordpool_EN.txt	POLE	12	5	[0, 0, 0]	n/a	FR1	1	R1174T
654.153	0.0	660263	WORD_OFF	n/a	n/a	POLE	12	5	[0, 0, 0]	n/a	FR1	1	R1174T
654.153	0.0	660263	DISTRACT_START	n/a	n/a	n/a	-999	5	[0, 0, 0]	n/a	FR1	1	R1174T
654.153	0.017	660263	START	n/a	n/a	n/a	-999	5	[-999, -999, -999]	n/a	FR1	1	R1174T
654.17	7.783	660280	PROB	7.783	n/a	n/a	-999	5	[7, 8, 8]	22	FR1	1	R1174T
661.953	8.969	668063	PROB	8.969	n/a	n/a	-999	5	[8, 5, 5]	18	FR1	1	R1174T
670.922	7.577	677031	PROB	7.577	n/a	n/a	-999	5	[4, 9, 4]	17	FR1	1	R1174T
678.499	0.007	684608	STOP	n/a	n/a	n/a	-999	5	[-999, -999, -999]	n/a	FR1	1	R1174T
678.506	0.601	684615	DISTRACT_END	n/a	n/a	n/a	-999	5	[0, 0, 0]	n/a	FR1	1	R1174T
679.107	0.517	685216	RETRIEVAL_ORIENT	n/a	n/a	n/a	-999	5	[0, 0, 0]	n/a	FR1	1	R1174T
679.624	2.795	685733	REC_START	n/a	n/a	n/a	-999	5	[0, 0, 0]	n/a	FR1	1	R1174T
682.419	1.172	688528	REC_WORD	1.172	n/a	BEE	-999	5	[0, 0, 0]	n/a	FR1	1	R1174T
683.591	7.822	689700	REC_WORD	7.822	n/a	EGG	-999	5	[0, 0, 0]	n/a	FR1	1	R1174T
691.413	8.818	697521	REC_WORD	8.818	n/a	TOAD	-999	5	[0, 0, 0]	n/a	FR1	1	R1174T
700.231	9.402	706339	REC_WORD	9.402	n/a	CLOCK	-999	5	[0, 0, 0]	n/a	FR1	1	R1174T
709.633	5.38	715740	REC_END	n/a	n/a	n/a	-999	5	[0, 0, 0]	n/a	FR1	1	R1174T
715.013	0.5	721120	TRIAL	n/a	n/a	n/a	-999	6	[0, 0, 0]	n/a	FR1	1	R1174T
715.513	10.428	721620	COUNTDOWN_START	n/a	n/a	n/a	-999	6	[0, 0, 0]	n/a	FR1	1	R1174T
725.941	0.007	732047	COUNTDOWN_END	n/a	n/a	n/a	-999	6	[0, 0, 0]	n/a	FR1	1	R1174T
725.948	1.617	732054	ORIENT	n/a	n/a	n/a	-999	6	[0, 0, 0]	n/a	FR1	1	R1174T
727.565	2.201	733671	ORIENT_OFF	n/a	n/a	n/a	-999	6	[0, 0, 0]	n/a	FR1	1	R1174T
729.766	1.617	735872	WORD	n/a	wordpools/wordpool_EN.txt	LAKE	1	6	[0, 0, 0]	n/a	FR1	1	R1174T
731.383	0.884	737489	WORD_OFF	n/a	n/a	LAKE	1	6	[0, 0, 0]	n/a	FR1	1	R1174T
732.267	1.616	738373	WORD	n/a	wordpools/wordpool_EN.txt	EEL	2	6	[0, 0, 0]	n/a	FR1	1	R1174T
733.883	1.0	739989	WORD_OFF	n/a	n/a	EEL	2	6	[0, 0, 0]	n/a	FR1	1	R1174T
734.883	1.617	740989	WORD	n/a	wordpools/wordpool_EN.txt	CALF	3	6	[0, 0, 0]	n/a	FR1	1	R1174T
736.5	0.95	742605	WORD_OFF	n/a	n/a	CALF	3	6	[0, 0, 0]	n/a	FR1	1	R1174T
737.45	1.618	743555	WORD	n/a	wordpools/wordpool_EN.txt	PIG	4	6	[0, 0, 0]	n/a	FR1	1	R1174T
739.068	0.95	745173	WORD_OFF	n/a	n/a	PIG	4	6	[0, 0, 0]	n/a	FR1	1	R1174T
740.018	1.616	746123	WORD	n/a	wordpools/wordpool_EN.txt	STEAK	5	6	[0, 0, 0]	n/a	FR1	1	R1174T
741.634	1.0	747739	WORD_OFF	n/a	n/a	STEAK	5	6	[0, 0, 0]	n/a	FR1	1	R1174T
742.634	1.602	748739	WORD	n/a	wordpools/wordpool_EN.txt	GOLD	6	6	[0, 0, 0]	n/a	FR1	1	R1174T
744.236	1.0	750341	WORD_OFF	n/a	n/a	GOLD	6	6	[0, 0, 0]	n/a	FR1	1	R1174T
745.236	1.616	751341	WORD	n/a	wordpools/wordpool_EN.txt	HORSE	7	6	[0, 0, 0]	n/a	FR1	1	R1174T
746.852	0.867	752957	WORD_OFF	n/a	n/a	HORSE	7	6	[0, 0, 0]	n/a	FR1	1	R1174T
747.719	1.617	753824	WORD	n/a	wordpools/wordpool_EN.txt	PRINCE	8	6	[0, 0, 0]	n/a	FR1	1	R1174T
749.336	0.968	755441	WORD_OFF	n/a	n/a	PRINCE	8	6	[0, 0, 0]	n/a	FR1	1	R1174T
750.304	1.616	756409	WORD	n/a	wordpools/wordpool_EN.txt	PARK	9	6	[0, 0, 0]	n/a	FR1	1	R1174T
751.92	1.0	758025	WORD_OFF	n/a	n/a	PARK	9	6	[0, 0, 0]	n/a	FR1	1	R1174T
752.92	1.617	759024	WORD	n/a	wordpools/wordpool_EN.txt	ROCK	10	6	[0, 0, 0]	n/a	FR1	1	R1174T
754.537	0.917	760641	WORD_OFF	n/a	n/a	ROCK	10	6	[0, 0, 0]	n/a	FR1	1	R1174T
755.454	1.618	761558	WORD	n/a	wordpools/wordpool_EN.txt	GEESE	11	6	[0, 0, 0]	n/a	FR1	1	R1174T
757.072	0.932	763176	WORD_OFF	n/a	n/a	GEESE	11	6	[0, 0, 0]	n/a	FR1	1	R1174T
758.004	1.617	764108	WORD	n/a	wordpools/wordpool_EN.txt	SEA	12	6	[0, 0, 0]	n/a	FR1	1	R1174T
759.621	0.0	765725	WORD_OFF	n/a	n/a	SEA	12	6	[0, 0, 0]	n/a	FR1	1	R1174T
759.621	0.001	765725	DISTRACT_START	n/a	n/a	n/a	-999	6	[0, 0, 0]	n/a	FR1	1	R1174T
759.622	0.016	765726	START	n/a	n/a	n/a	-999	6	[-999, -999, -999]	n/a	FR1	1	R1174T
759.638	6.818	765742	PROB	6.818	n/a	n/a	-999	6	[9, 2, 2]	13	FR1	1	R1174T
766.456	8.501	772560	PROB	8.501	n/a	n/a	-999	6	[6, 8, 7]	21	FR1	1	R1174T
774.957	7.207	781060	PROB	7.207	n/a	n/a	-999	6	[8, 6, 6]	20	FR1	1	R1174T
782.164	0.012	788267	STOP	n/a	n/a	n/a	-999	6	[-999, -999, -999]	n/a	FR1	1	R1174T
782.176	0.549	788279	DISTRACT_END	n/a	n/a	n/a	-999	6	[0, 0, 0]	n/a	FR1	1	R1174T
782.725	0.519	788828	RETRIEVAL_ORIENT	n/a	n/a	n/a	-999	6	[0, 0, 0]	n/a	FR1	1	R1174T
783.244	3.196	789347	REC_START	n/a	n/a	n/a	-999	6	[0, 0, 0]	n/a	FR1	1	R1174T
786.44	2.181	792542	REC_WORD	2.181	n/a	EEL	-999	6	[0, 0, 0]	n/a	FR1	1	R1174T
788.621	1.003	794723	REC_WORD	1.003	n/a	CALF	-999	6	[0, 0, 0]	n/a	FR1	1	R1174T
789.624	2.327	795726	REC_WORD	2.327	n/a	HORSE	-999	6	[0, 0, 0]	n/a	FR1	1	R1174T
791.951	5.396	798053	REC_WORD	5.396	n/a	STEAK	-999	6	[0, 0, 0]	n/a	FR1	1	R1174T
797.347	1.331	803449	REC_WORD	1.331	n/a	SEA	-999	6	[0, 0, 0]	n/a	FR1	1	R1174T
798.678	14.574	804780	REC_WORD	14.574	n/a	POND	-999	6	[0, 0, 0]	n/a	FR1	1	R1174T
813.252	6.08	819353	REC_END	n/a	n/a	n/a	-999	6	[0, 0, 0]	n/a	FR1	1	R1174T
819.332	0.5	825433	TRIAL	n/a	n/a	n/a	-999	7	[0, 0, 0]	n/a	FR1	1	R1174T
819.832	10.428	825933	COUNTDOWN_START	n/a	n/a	n/a	-999	7	[0, 0, 0]	n/a	FR1	1	R1174T
830.26	0.008	836360	COUNTDOWN_END	n/a	n/a	n/a	-999	7	[0, 0, 0]	n/a	FR1	1	R1174T
830.268	1.616	836368	ORIENT	n/a	n/a	n/a	-999	7	[0, 0, 0]	n/a	FR1	1	R1174T
831.884	2.101	837984	ORIENT_OFF	n/a	n/a	n/a	-999	7	[0, 0, 0]	n/a	FR1	1	R1174T
833.985	1.617	840085	WORD	n/a	wordpools/wordpool_EN.txt	MAT	1	7	[0, 0, 0]	n/a	FR1	1	R1174T
835.602	0.95	841702	WORD_OFF	n/a	n/a	MAT	1	7	[0, 0, 0]	n/a	FR1	1	R1174T
836.552	1.618	842652	WORD	n/a	wordpools/wordpool_EN.txt	CAGE	2	7	[0, 0, 0]	n/a	FR1	1	R1174T
838.17	0.917	844269	WORD_OFF	n/a	n/a	CAGE	2	7	[0, 0, 0]	n/a	FR1	1	R1174T
839.087	1.616	845186	WORD	n/a	wordpools/wordpool_EN.txt	LEG	3	7	[0, 0, 0]	n/a	FR1	1	R1174T
840.703	0.983	846802	WORD_OFF	n/a	n/a	LEG	3	7	[0, 0, 0]	n/a	FR1	1	R1174T
841.686	1.618	847785	WORD	n/a	wordpools/wordpool_EN.txt	GRAPE	4	7	[0, 0, 0]	n/a	FR1	1	R1174T
843.304	0.967	849403	WORD_OFF	n/a	n/a	GRAPE	4	7	[0, 0, 0]	n/a	FR1	1	R1174T
844.271	1.616	850370	WORD	n/a	wordpools/wordpool_EN.txt	CROW	5	7	[0, 0, 0]	n/a	FR1	1	R1174T
845.887	0.9	851986	WORD_OFF	n/a	n/a	CROW	5	7	[0, 0, 0]	n/a	FR1	1	R1174T
846.787	1.617	852886	WORD	n/a	wordpools/wordpool_EN.txt	CART	6	7	[0, 0, 0]	n/a	FR1	1	R1174T
848.404	0.784	854503	WORD_OFF	n/a	n/a	CART	6	7	[0, 0, 0]	n/a	FR1	1	R1174T
849.188	1.616	855287	WORD	n/a	wordpools/wordpool_EN.txt	ROAD	7	7	[0, 0, 0]	n/a	FR1	1	R1174T
850.804	0.817	856903	WORD_OFF	n/a	n/a	ROAD	7	7	[0, 0, 0]	n/a	FR1	1	R1174T
851.621	1.618	857720	WORD	n/a	wordpools/wordpool_EN.txt	FARM	8	7	[0, 0, 0]	n/a	FR1	1	R1174T
853.239	0.85	859338	WORD_OFF	n/a	n/a	FARM	8	7	[0, 0, 0]	n/a	FR1	1	R1174T
854.089	1.616	860188	WORD	n/a	wordpools/wordpool_EN.txt	FORT	9	7	[0, 0, 0]	n/a	FR1	1	R1174T
855.705	0.984	861803	WORD_OFF	n/a	n/a	FORT	9	7	[0, 0, 0]	n/a	FR1	1	R1174T
856.689	1.601	862787	WORD	n/a	wordpools/wordpool_EN.txt	DOCK	10	7	[0, 0, 0]	n/a	FR1	1	R1174T
858.29	0.834	864388	WORD_OFF	n/a	n/a	DOCK	10	7	[0, 0, 0]	n/a	FR1	1	R1174T
859.124	1.616	865222	WORD	n/a	wordpools/wordpool_EN.txt	OWL	11	7	[0, 0, 0]	n/a	FR1	1	R1174T
860.74	0.85	866838	WORD_OFF	n/a	n/a	OWL	11	7	[0, 0, 0]	n/a	FR1	1	R1174T
861.59	1.618	867688	WORD	n/a	wordpools/wordpool_EN.txt	SLIME	12	7	[0, 0, 0]	n/a	FR1	1	R1174T
863.208	0.0	869306	WORD_OFF	n/a	n/a	SLIME	12	7	[0, 0, 0]	n/a	FR1	1	R1174T
863.208	0.0	869306	DISTRACT_START	n/a	n/a	n/a	-999	7	[0, 0, 0]	n/a	FR1	1	R1174T
863.208	0.016	869306	START	n/a	n/a	n/a	-999	7	[-999, -999, -999]	n/a	FR1	1	R1174T
863.224	5.284	869322	PROB	5.284	n/a	n/a	-999	7	[2, 2, 1]	5	FR1	1	R1174T
868.508	6.267	874606	PROB	6.267	n/a	n/a	-999	7	[5, 2, 4]	11	FR1	1	R1174T
874.775	7.152	880872	PROB	7.152	n/a	n/a	-999	7	[4, 9, 8]	21	FR1	1	R1174T
881.927	7.796	888024	PROB	7.796	n/a	n/a	-999	7	[2, 9, 4]	15	FR1	1	R1174T
889.723	0.022	895819	STOP	n/a	n/a	n/a	-999	7	[-999, -999, -999]	n/a	FR1	1	R1174T
889.745	0.568	895841	DISTRACT_END	n/a	n/a	n/a	-999	7	[0, 0, 0]	n/a	FR1	1	R1174T
890.313	0.516	896409	RETRIEVAL_ORIENT	n/a	n/a	n/a	-999	7	[0, 0, 0]	n/a	FR1	1	R1174T
890.829	13.557	896925	REC_START	n/a	n/a	n/a	-999	7	[0, 0, 0]	n/a	FR1	1	R1174T
904.386	0.699	910482	REC_WORD	0.699	n/a	CAGE	-999	7	[0, 0, 0]	n/a	FR1	1	R1174T
905.085	1.521	911181	REC_WORD	1.521	n/a	FARM	-999	7	[0, 0, 0]	n/a	FR1	1	R1174T
906.606	14.233	912701	REC_WORD	14.233	n/a	MAT	-999	7	[0, 0, 0]	n/a	FR1	1	R1174T
920.839	6.663	926934	REC_END	n/a	n/a	n/a	-999	7	[0, 0, 0]	n/a	FR1	1	R1174T
927.502	0.5	933596	TRIAL	n/a	n/a	n/a	-999	8	[0, 0, 0]	n/a	FR1	1	R1174T
928.002	10.428	934096	COUNTDOWN_START	n/a	n/a	n/a	-999	8	[0, 0, 0]	n/a	FR1	1	R1174T
938.43	0.007	944524	COUNTDOWN_END	n/a	n/a	n/a	-999	8	[0, 0, 0]	n/a	FR1	1	R1174T
938.437	1.617	944531	ORIENT	n/a	n/a	n/a	-999	8	[0, 0, 0]	n/a	FR1	1	R1174T
940.054	2.018	946147	ORIENT_OFF	n/a	n/a	n/a	-999	8	[0, 0, 0]	n/a	FR1	1	R1174T
942.072	1.616	948165	WORD	n/a	wordpools/wordpool_EN.txt	OAR	1	8	[0, 0, 0]	n/a	FR1	1	R1174T
943.688	0.867	949781	WORD_OFF	n/a	n/a	OAR	1	8	[0, 0, 0]	n/a	FR1	1	R1174T
944.555	1.618	950648	WORD	n/a	wordpools/wordpool_EN.txt	JEEP	2	8	[0, 0, 0]	n/a	FR1	1	R1174T
946.173	0.799	952266	WORD_OFF	n/a	n/a	JEEP	2	8	[0, 0, 0]	n/a	FR1	1	R1174T
946.972	1.617	953065	WORD	n/a	wordpools/wordpool_EN.txt	NOSE	3	8	[0, 0, 0]	n/a	FR1	1	R1174T
948.589	0.983	954682	WORD_OFF	n/a	n/a	NOSE	3	8	[0, 0, 0]	n/a	FR1	1	R1174T
949.572	1.601	955665	WORD	n/a	wordpools/wordpool_EN.txt	BRUSH	4	8	[0, 0, 0]	n/a	FR1	1	R1174T
951.173	0.951	957266	WORD_OFF	n/a	n/a	BRUSH	4	8	[0, 0, 0]	n/a	FR1	1	R1174T
952.124	1.616	958217	WORD	n/a	wordpools/wordpool_EN.txt	SLEEVE	5	8	[0, 0, 0]	n/a	FR1	1	R1174T
953.74	0.9	959833	WORD_OFF	n/a	n/a	SLEEVE	5	8	[0, 0, 0]	n/a	FR1	1	R1174T
954.64	1.618	960733	WORD	n/a	wordpools/wordpool_EN.txt	PEN	6	8	[0, 0, 0]	n/a	FR1	1	R1174T
956.258	0.883	962351	WORD_OFF	n/a	n/a	PEN	6	8	[0, 0, 0]	n/a	FR1	1	R1174T
957.141	1.616	963233	WORD	n/a	wordpools/wordpool_EN.txt	CHALK	7	8	[0, 0, 0]	n/a	FR1	1	R1174T
958.757	0.951	964849	WORD_OFF	n/a	n/a	CHALK	7	8	[0, 0, 0]	n/a	FR1	1	R1174T
959.708	1.618	965800	WORD	n/a	wordpools/wordpool_EN.txt	TREE	8	8	[0, 0, 0]	n/a	FR1	1	R1174T
961.326	0.883	967418	WORD_OFF	n/a	n/a	TREE	8	8	[0, 0, 0]	n/a	FR1	1	R1174T
962.209	1.616	968301	WORD	n/a	wordpools/wordpool_EN.txt	DOLL	9	8	[0, 0, 0]	n/a	FR1	1	R1174T
963.825	0.8	969917	WORD_OFF	n/a	n/a	DOLL	9	8	[0, 0, 0]	n/a	FR1	1	R1174T
964.625	1.601	970717	WORD	n/a	wordpools/wordpool_EN.txt	DRUM	10	8	[0, 0, 0]	n/a	FR1	1	R1174T
966.226	0.984	972318	WORD_OFF	n/a	n/a	DRUM	10	8	[0, 0, 0]	n/a	FR1	1	R1174T
967.21	1.616	973302	WORD	n/a	wordpools/wordpool_EN.txt	VEST	11	8	[0, 0, 0]	n/a	FR1	1	R1174T
968.826	0.9	974918	WORD_OFF	n/a	n/a	VEST	11	8	[0, 0, 0]	n/a	FR1	1	R1174T
969.726	1.617	975818	WORD	n/a	wordpools/wordpool_EN.txt	HOSE	12	8	[0, 0, 0]	n/a	FR1	1	R1174T
971.343	0.0	977435	WORD_OFF	n/a	n/a	HOSE	12	8	[0, 0, 0]	n/a	FR1	1	R1174T
971.343	0.001	977435	DISTRACT_START	n/a	n/a	n/a	-999	8	[0, 0, 0]	n/a	FR1	1	R1174T
971.344	0.016	977436	START	n/a	n/a	n/a	-999	8	[-999, -999, -999]	n/a	FR1	1	R1174T
971.36	8.736	977452	PROB	8.736	n/a	n/a	-999	8	[9, 2, 1]	12	FR1	1	R1174T
980.096	6.816	986187	PROB	6.816	n/a	n/a	-999	8	[3, 3, 9]	15	FR1	1	R1174T
986.912	7.908	993003	PROB	7.908	n/a	n/a	-999	8	[5, 7, 2]	14	FR1	1	R1174T
994.82	0.011	1000910	STOP	n/a	n/a	n/a	-999	8	[-999, -999, -999]	n/a	FR1	1	R1174T
994.831	0.566	1000921	DISTRACT_END	n/a	n/a	n/a	-999	8	[0, 0, 0]	n/a	FR1	1	R1174T
995.397	0.518	1001487	RETRIEVAL_ORIENT	n/a	n/a	n/a	-999	8	[0, 0, 0]	n/a	FR1	1	R1174T
995.915	3.828	1002005	REC_START	n/a	n/a	n/a	-999	8	[0, 0, 0]	n/a	FR1	1	R1174T
999.743	1.792	1005833	REC_WORD	1.792	n/a	TREE	-999	8	[0, 0, 0]	n/a	FR1	1	R1174T
1001.535	24.39	1007625	REC_WORD	24.39	n/a	BRUSH	-999	8	[0, 0, 0]	n/a	FR1	1	R1174T
1025.925	7.979	1032013	REC_END	n/a	n/a	n/a	-999	8	[0, 0, 0]	n/a	FR1	1	R1174T
1033.904	0.5	1039992	TRIAL	n/a	n/a	n/a	-999	9	[0, 0, 0]	n/a	FR1	1	R1174T
1034.404	10.428	1040492	COUNTDOWN_START	n/a	n/a	n/a	-999	9	[0, 0, 0]	n/a	FR1	1	R1174T
1044.832	0.008	1050919	COUNTDOWN_END	n/a	n/a	n/a	-999	9	[0, 0, 0]	n/a	FR1	1	R1174T
1044.84	1.617	1050927	ORIENT	n/a	n/a	n/a	-999	9	[0, 0, 0]	n/a	FR1	1	R1174T
1046.457	2.033	1052544	ORIENT_OFF	n/a	n/a	n/a	-999	9	[0, 0, 0]	n/a	FR1	1	R1174T
1048.49	1.601	1054577	WORD	n/a	wordpools/wordpool_EN.txt	THREAD	1	9	[0, 0, 0]	n/a	FR1	1	R1174T
1050.091	0.967	1056178	WORD_OFF	n/a	n/a	THREAD	1	9	[0, 0, 0]	n/a	FR1	1	R1174T
1051.058	1.617	1057145	WORD	n/a	wordpools/wordpool_EN.txt	BENCH	2	9	[0, 0, 0]	n/a	FR1	1	R1174T
1052.675	0.916	1058762	WORD_OFF	n/a	n/a	BENCH	2	9	[0, 0, 0]	n/a	FR1	1	R1174T
1053.591	1.601	1059678	WORD	n/a	wordpools/wordpool_EN.txt	POOL	3	9	[0, 0, 0]	n/a	FR1	1	R1174T
1055.192	0.85	1061279	WORD_OFF	n/a	n/a	POOL	3	9	[0, 0, 0]	n/a	FR1	1	R1174T
1056.042	1.617	1062129	WORD	n/a	wordpools/wordpool_EN.txt	VASE	4	9	[0, 0, 0]	n/a	FR1	1	R1174T
1057.659	1.0	1063746	WORD_OFF	n/a	n/a	VASE	4	9	[0, 0, 0]	n/a	FR1	1	R1174T
1058.659	1.618	1064745	WORD	n/a	wordpools/wordpool_EN.txt	SHIELD	5	9	[0, 0, 0]	n/a	FR1	1	R1174T
1060.277	1.0	1066363	WORD_OFF	n/a	n/a	SHIELD	5	9	[0, 0, 0]	n/a	FR1	1	R1174T
1061.277	1.616	1067363	WORD	n/a	wordpools/wordpool_EN.txt	CLOTH	6	9	[0, 0, 0]	n/a	FR1	1	R1174T
1062.893	0.95	1068979	WORD_OFF	n/a	n/a	CLOTH	6	9	[0, 0, 0]	n/a	FR1	1	R1174T
1063.843	1.617	1069929	WORD	n/a	wordpools/wordpool_EN.txt	NAIL	7	9	[0, 0, 0]	n/a	FR1	1	R1174T
1065.46	0.835	1071546	WORD_OFF	n/a	n/a	NAIL	7	9	[0, 0, 0]	n/a	FR1	1	R1174T
1066.295	1.616	1072381	WORD	n/a	wordpools/wordpool_EN.txt	YARD	8	9	[0, 0, 0]	n/a	FR1	1	R1174T
1067.911	0.9	1073997	WORD_OFF	n/a	n/a	YARD	8	9	[0, 0, 0]	n/a	FR1	1	R1174T
1068.811	1.617	1074897	WORD	n/a	wordpools/wordpool_EN.txt	FAN	9	9	[0, 0, 0]	n/a	FR1	1	R1174T
1070.428	0.9	1076514	WORD_OFF	n/a	n/a	FAN	9	9	[0, 0, 0]	n/a	FR1	1	R1174T
1071.328	1.617	1077414	WORD	n/a	wordpools/wordpool_EN.txt	DRESS	10	9	[0, 0, 0]	n/a	FR1	1	R1174T
1072.945	0.917	1079031	WORD_OFF	n/a	n/a	DRESS	10	9	[0, 0, 0]	n/a	FR1	1	R1174T
1073.862	1.617	1079948	WORD	n/a	wordpools/wordpool_EN.txt	GATE	11	9	[0, 0, 0]	n/a	FR1	1	R1174T
1075.479	0.883	1081564	WORD_OFF	n/a	n/a	GATE	11	9	[0, 0, 0]	n/a	FR1	1	R1174T
1076.362	1.617	1082447	WORD	n/a	wordpools/wordpool_EN.txt	FLUTE	12	9	[0, 0, 0]	n/a	FR1	1	R1174T
1077.979	0.0	1084064	DISTRACT_START	n/a	n/a	n/a	-999	9	[0, 0, 0]	n/a	FR1	1	R1174T
1077.979	0.001	1084064	WORD_OFF	n/a	n/a	FLUTE	12	9	[0, 0, 0]	n/a	FR1	1	R1174T
1077.98	0.016	1084065	START	n/a	n/a	n/a	-999	9	[-999, -999, -999]	n/a	FR1	1	R1174T
1077.996	8.086	1084081	PROB	8.086	n/a	n/a	-999	9	[2, 7, 4]	13	FR1	1	R1174T
1086.082	5.316	1092167	PROB	5.316	n/a	n/a	-999	9	[4, 3, 4]	11	FR1	1	R1174T
1091.398	10.15	1097483	PROB	10.15	n/a	n/a	-999	9	[9, 9, 7]	25	FR1	1	R1174T
1101.548	0.019	1107632	STOP	n/a	n/a	n/a	-999	9	[-999, -999, -999]	n/a	FR1	1	R1174T
1101.567	0.567	1107651	DISTRACT_END	n/a	n/a	n/a	-999	9	[0, 0, 0]	n/a	FR1	1	R1174T
1102.134	0.517	1108218	RETRIEVAL_ORIENT	n/a	n/a	n/a	-999	9	[0, 0, 0]	n/a	FR1	1	R1174T
1102.651	5.276	1108735	REC_START	n/a	n/a	n/a	-999	9	[0, 0, 0]	n/a	FR1	1	R1174T
1107.927	2.514	1114011	REC_WORD	2.514	n/a	YARD	-999	9	[0, 0, 0]	n/a	FR1	1	R1174T
1110.441	22.22	1116524	REC_WORD	22.22	n/a	PIN	-999	9	[0, 0, 0]	n/a	FR1	1	R1174T
1132.661	6.913	1138743	REC_END	n/a	n/a	n/a	-999	9	[0, 0, 0]	n/a	FR1	1	R1174T
1139.574	0.5	1145656	TRIAL	n/a	n/a	n/a	-999	10	[0, 0, 0]	n/a	FR1	1	R1174T
1140.074	10.428	1146156	COUNTDOWN_START	n/a	n/a	n/a	-999	10	[0, 0, 0]	n/a	FR1	1	R1174T
1150.502	0.007	1156583	COUNTDOWN_END	n/a	n/a	n/a	-999	10	[0, 0, 0]	n/a	FR1	1	R1174T
1150.509	1.618	1156590	ORIENT	n/a	n/a	n/a	-999	10	[0, 0, 0]	n/a	FR1	1	R1174T
1152.127	1.984	1158208	ORIENT_OFF	n/a	n/a	n/a	-999	10	[0, 0, 0]	n/a	FR1	1	R1174T
1154.111	1.616	1160192	WORD	n/a	wordpools/wordpool_EN.txt	TEETH	1	10	[0, 0, 0]	n/a	FR1	1	R1174T
1155.727	0.933	1161808	WORD_OFF	n/a	n/a	TEETH	1	10	[0, 0, 0]	n/a	FR1	1	R1174T
1156.66	1.618	1162741	WORD	n/a	wordpools/wordpool_EN.txt	FLAME	2	10	[0, 0, 0]	n/a	FR1	1	R1174T
1158.278	0.9	1164359	WORD_OFF	n/a	n/a	FLAME	2	10	[0, 0, 0]	n/a	FR1	1	R1174T
1159.178	1.616	1165259	WORD	n/a	wordpools/wordpool_EN.txt	TOOL	3	10	[0, 0, 0]	n/a	FR1	1	R1174T
1160.794	0.95	1166874	WORD_OFF	n/a	n/a	TOOL	3	10	[0, 0, 0]	n/a	FR1	1	R1174T
1161.744	1.617	1167824	WORD	n/a	wordpools/wordpool_EN.txt	MAZE	4	10	[0, 0, 0]	n/a	FR1	1	R1174T
1163.361	0.851	1169441	WORD_OFF	n/a	n/a	MAZE	4	10	[0, 0, 0]	n/a	FR1	1	R1174T
1164.212	1.616	1170292	WORD	n/a	wordpools/wordpool_EN.txt	CROWN	5	10	[0, 0, 0]	n/a	FR1	1	R1174T
1165.828	0.817	1171908	WORD_OFF	n/a	n/a	CROWN	5	10	[0, 0, 0]	n/a	FR1	1	R1174T
1166.645	1.618	1172725	WORD	n/a	wordpools/wordpool_EN.txt	PLANE	6	10	[0, 0, 0]	n/a	FR1	1	R1174T
1168.263	0.934	1174343	WORD_OFF	n/a	n/a	PLANE	6	10	[0, 0, 0]	n/a	FR1	1	R1174T
1169.197	1.616	1175277	WORD	n/a	wordpools/wordpool_EN.txt	WAVE	7	10	[0, 0, 0]	n/a	FR1	1	R1174T
1170.813	0.983	1176893	WORD_OFF	n/a	n/a	WAVE	7	10	[0, 0, 0]	n/a	FR1	1	R1174T
1171.796	1.617	1177876	WORD	n/a	wordpools/wordpool_EN.txt	CHEEK	8	10	[0, 0, 0]	n/a	FR1	1	R1174T
1173.413	0.835	1179493	WORD_OFF	n/a	n/a	CHEEK	8	10	[0, 0, 0]	n/a	FR1	1	R1174T
1174.248	1.616	1180328	WORD	n/a	wordpools/wordpool_EN.txt	FROG	9	10	[0, 0, 0]	n/a	FR1	1	R1174T
1175.864	0.916	1181944	WORD_OFF	n/a	n/a	FROG	9	10	[0, 0, 0]	n/a	FR1	1	R1174T
1176.78	1.617	1182860	WORD	n/a	wordpools/wordpool_EN.txt	STRING	10	10	[0, 0, 0]	n/a	FR1	1	R1174T
1178.397	0.902	1184476	WORD_OFF	n/a	n/a	STRING	10	10	[0, 0, 0]	n/a	FR1	1	R1174T
1179.299	1.616	1185378	WORD	n/a	wordpools/wordpool_EN.txt	SWORD	11	10	[0, 0, 0]	n/a	FR1	1	R1174T
1180.915	0.783	1186994	WORD_OFF	n/a	n/a	SWORD	11	10	[0, 0, 0]	n/a	FR1	1	R1174T
1181.698	1.618	1187777	WORD	n/a	wordpools/wordpool_EN.txt	SHEET	12	10	[0, 0, 0]	n/a	FR1	1	R1174T
1183.316	0.0	1189395	WORD_OFF	n/a	n/a	SHEET	12	10	[0, 0, 0]	n/a	FR1	1	R1174T
1183.316	0.001	1189395	DISTRACT_START	n/a	n/a	n/a	-999	10	[0, 0, 0]	n/a	FR1	1	R1174T
1183.317	0.015	1189396	START	n/a	n/a	n/a	-999	10	[-999, -999, -999]	n/a	FR1	1	R1174T
1183.332	4.35	1189411	PROB	4.35	n/a	n/a	-999	10	[2, 1, 2]	5	FR1	1	R1174T
1187.682	6.952	1193761	PROB	6.952	n/a	n/a	-999	10	[3, 6, 5]	14	FR1	1	R1174T
1194.634	6.318	1200712	PROB	6.318	n/a	n/a	-999	10	[8, 2, 4]	14	FR1	1	R1174T
1200.952	5.556	1207030	PROB	5.556	n/a	n/a	-999	10	[3, 3, 4]	10	FR1	1	R1174T
1206.508	0.011	1212586	STOP	n/a	n/a	n/a	-999	10	[-999, -999, -999]	n/a	FR1	1	R1174T
1206.519	0.585	1212597	DISTRACT_END	n/a	n/a	n/a	-999	10	[0, 0, 0]	n/a	FR1	1	R1174T
1207.104	0.516	1213182	RETRIEVAL_ORIENT	n/a	n/a	n/a	-999	10	[0, 0, 0]	n/a	FR1	1	R1174T
1207.62	15.804	1213698	REC_START	n/a	n/a	n/a	-999	10	[0, 0, 0]	n/a	FR1	1	R1174T
1223.424	7.017	1229501	REC_WORD	7.017	n/a	SHEET	-999	10	[0, 0, 0]	n/a	FR1	1	R1174T
1230.441	7.19	1236517	REC_WORD	7.19	n/a	CROWN	-999	10	[0, 0, 0]	n/a	FR1	1	R1174T
1237.631	16.814	1243707	REC_END	n/a	n/a	n/a	-999	10	[0, 0, 0]	n/a	FR1	1	R1174T
1254.445	0.5	1260520	TRIAL	n/a	n/a	n/a	-999	11	[0, 0, 0]	n/a	FR1	1	R1174T
1254.945	10.428	1261020	COUNTDOWN_START	n/a	n/a	n/a	-999	11	[0, 0, 0]	n/a	FR1	1	R1174T
1265.373	0.007	1271447	COUNTDOWN_END	n/a	n/a	n/a	-999	11	[0, 0, 0]	n/a	FR1	1	R1174T
1265.38	1.617	1271454	ORIENT	n/a	n/a	n/a	-999	11	[0, 0, 0]	n/a	FR1	1	R1174T
1266.997	1.933	1273071	ORIENT_OFF	n/a	n/a	n/a	-999	11	[0, 0, 0]	n/a	FR1	1	R1174T
1268.93	1.618	1275004	WORD	n/a	wordpools/wordpool_EN.txt	BOY	1	11	[0, 0, 0]	n/a	FR1	1	R1174T
1270.548	0.783	1276622	WORD_OFF	n/a	n/a	BOY	1	11	[0, 0, 0]	n/a	FR1	1	R1174T
1271.331	1.617	1277405	WORD	n/a	wordpools/wordpool_EN.txt	HEN	2	11	[0, 0, 0]	n/a	FR1	1	R1174T
1272.948	0.9	1279022	WORD_OFF	n/a	n/a	HEN	2	11	[0, 0, 0]	n/a	FR1	1	R1174T
1273.848	1.617	1279922	WORD	n/a	wordpools/wordpool_EN.txt	BIRD	3	11	[0, 0, 0]	n/a	FR1	1	R1174T
1275.465	0.934	1281539	WORD_OFF	n/a	n/a	BIRD	3	11	[0, 0, 0]	n/a	FR1	1	R1174T
1276.399	1.617	1282473	WORD	n/a	wordpools/wordpool_EN.txt	FOX	4	11	[0, 0, 0]	n/a	FR1	1	R1174T
1278.016	0.816	1284090	WORD_OFF	n/a	n/a	FOX	4	11	[0, 0, 0]	n/a	FR1	1	R1174T
1278.832	1.617	1284906	WORD	n/a	wordpools/wordpool_EN.txt	LAMB	5	11	[0, 0, 0]	n/a	FR1	1	R1174T
1280.449	0.95	1286522	WORD_OFF	n/a	n/a	LAMB	5	11	[0, 0, 0]	n/a	FR1	1	R1174T
1281.399	1.617	1287472	WORD	n/a	wordpools/wordpool_EN.txt	WOLF	6	11	[0, 0, 0]	n/a	FR1	1	R1174T
1283.016	0.767	1289089	WORD_OFF	n/a	n/a	WOLF	6	11	[0, 0, 0]	n/a	FR1	1	R1174T
1283.783	1.617	1289856	WORD	n/a	wordpools/wordpool_EN.txt	TAIL	7	11	[0, 0, 0]	n/a	FR1	1	R1174T
1285.4	0.835	1291473	WORD_OFF	n/a	n/a	TAIL	7	11	[0, 0, 0]	n/a	FR1	1	R1174T
1286.235	1.616	1292308	WORD	n/a	wordpools/wordpool_EN.txt	BEAR	8	11	[0, 0, 0]	n/a	FR1	1	R1174T
1287.851	0.95	1293924	WORD_OFF	n/a	n/a	BEAR	8	11	[0, 0, 0]	n/a	FR1	1	R1174T
1288.801	1.617	1294874	WORD	n/a	wordpools/wordpool_EN.txt	BEAN	9	11	[0, 0, 0]	n/a	FR1	1	R1174T
1290.418	0.933	1296491	WORD_OFF	n/a	n/a	BEAN	9	11	[0, 0, 0]	n/a	FR1	1	R1174T
1291.351	1.617	1297424	WORD	n/a	wordpools/wordpool_EN.txt	KITE	10	11	[0, 0, 0]	n/a	FR1	1	R1174T
1292.968	0.867	1299041	WORD_OFF	n/a	n/a	KITE	10	11	[0, 0, 0]	n/a	FR1	1	R1174T
1293.835	1.617	1299908	WORD	n/a	wordpools/wordpool_EN.txt	MOUSE	11	11	[0, 0, 0]	n/a	FR1	1	R1174T
1295.452	0.784	1301525	WORD_OFF	n/a	n/a	MOUSE	11	11	[0, 0, 0]	n/a	FR1	1	R1174T
1296.236	1.616	1302309	WORD	n/a	wordpools/wordpool_EN.txt	SKUNK	12	11	[0, 0, 0]	n/a	FR1	1	R1174T
1297.852	0.0	1303924	WORD_OFF	n/a	n/a	SKUNK	12	11	[0, 0, 0]	n/a	FR1	1	R1174T
1297.852	0.001	1303924	DISTRACT_START	n/a	n/a	n/a	-999	11	[0, 0, 0]	n/a	FR1	1	R1174T
1297.853	0.016	1303925	START	n/a	n/a	n/a	-999	11	[-999, -999, -999]	n/a	FR1	1	R1174T
1297.869	6.818	1303941	PROB	6.818	n/a	n/a	-999	11	[2, 7, 8]	17	FR1	1	R1174T
1304.687	5.334	1310759	PROB	5.334	n/a	n/a	-999	11	[6, 8, 2]	16	FR1	1	R1174T
1310.021	5.501	1316093	PROB	5.501	n/a	n/a	-999	11	[7, 3, 3]	13	FR1	1	R1174T
1315.522	5.289	1321593	PROB	5.289	n/a	n/a	-999	11	[9, 2, 7]	18	FR1	1	R1174T
1320.811	0.012	1326882	STOP	n/a	n/a	n/a	-999	11	[-999, -999, -999]	n/a	FR1	1	R1174T
1320.823	0.701	1326894	DISTRACT_END	n/a	n/a	n/a	-999	11	[0, 0, 0]	n/a	FR1	1	R1174T
1321.524	0.517	1327595	RETRIEVAL_ORIENT	n/a	n/a	n/a	-999	11	[0, 0, 0]	n/a	FR1	1	R1174T
1322.041	3.708	1328112	REC_START	n/a	n/a	n/a	-999	11	[0, 0, 0]	n/a	FR1	1	R1174T
1325.749	1.707	1331820	REC_WORD	1.707	n/a	BOY	-999	11	[0, 0, 0]	n/a	FR1	1	R1174T
1327.456	0.531	1333527	REC_WORD	0.531	n/a	WOLF	-999	11	[0, 0, 0]	n/a	FR1	1	R1174T
1327.987	9.875	1334058	REC_WORD	9.875	n/a	HEN	-999	11	[0, 0, 0]	n/a	FR1	1	R1174T
1337.862	14.187	1343932	REC_WORD	14.187	n/a	GOAT	-999	11	[0, 0, 0]	n/a	FR1	1	R1174T
1352.049	7.315	1358118	REC_END	n/a	n/a	n/a	-999	11	[0, 0, 0]	n/a	FR1	1	R1174T
1359.364	0.5	1365433	TRIAL	n/a	n/a	n/a	-999	12	[0, 0, 0]	n/a	FR1	1	R1174T
1359.864	10.428	1365933	COUNTDOWN_START	n/a	n/a	n/a	-999	12	[0, 0, 0]	n/a	FR1	1	R1174T
1370.292	0.008	1376360	COUNTDOWN_END	n/a	n/a	n/a	-999	12	[0, 0, 0]	n/a	FR1	1	R1174T
1370.3	1.616	1376368	ORIENT	n/a	n/a	n/a	-999	12	[0, 0, 0]	n/a	FR1	1	R1174T
1371.916	2.1	1377984	ORIENT_OFF	n/a	n/a	n/a	-999	12	[0, 0, 0]	n/a	FR1	1	R1174T
1374.016	1.617	1380084	WORD	n/a	wordpools/wordpool_EN.txt	HAND	1	12	[0, 0, 0]	n/a	FR1	1	R1174T
1375.633	0.801	1381701	WORD_OFF	n/a	n/a	HAND	1	12	[0, 0, 0]	n/a	FR1	1	R1174T
1376.434	1.616	1382502	WORD	n/a	wordpools/wordpool_EN.txt	SHOE	2	12	[0, 0, 0]	n/a	FR1	1	R1174T
1378.05	0.784	1384118	WORD_OFF	n/a	n/a	SHOE	2	12	[0, 0, 0]	n/a	FR1	1	R1174T
1378.834	1.617	1384902	WORD	n/a	wordpools/wordpool_EN.txt	BLUSH	3	12	[0, 0, 0]	n/a	FR1	1	R1174T
1380.451	0.967	1386519	WORD_OFF	n/a	n/a	BLUSH	3	12	[0, 0, 0]	n/a	FR1	1	R1174T
1381.418	1.617	1387486	WORD	n/a	wordpools/wordpool_EN.txt	HOLE	4	12	[0, 0, 0]	n/a	FR1	1	R1174T
1383.035	0.766	1389102	WORD_OFF	n/a	n/a	HOLE	4	12	[0, 0, 0]	n/a	FR1	1	R1174T
1383.801	1.601	1389868	WORD	n/a	wordpools/wordpool_EN.txt	BED	5	12	[0, 0, 0]	n/a	FR1	1	R1174T
1385.402	0.983	1391469	WORD_OFF	n/a	n/a	BED	5	12	[0, 0, 0]	n/a	FR1	1	R1174T
1386.385	1.617	1392452	WORD	n/a	wordpools/wordpool_EN.txt	TENT	6	12	[0, 0, 0]	n/a	FR1	1	R1174T
1388.002	0.95	1394069	WORD_OFF	n/a	n/a	TENT	6	12	[0, 0, 0]	n/a	FR1	1	R1174T
1388.952	1.617	1395019	WORD	n/a	wordpools/wordpool_EN.txt	HILL	7	12	[0, 0, 0]	n/a	FR1	1	R1174T
1390.569	0.867	1396636	WORD_OFF	n/a	n/a	HILL	7	12	[0, 0, 0]	n/a	FR1	1	R1174T
1391.436	1.617	1397503	WORD	n/a	wordpools/wordpool_EN.txt	CHAIR	8	12	[0, 0, 0]	n/a	FR1	1	R1174T
1393.053	0.8	1399120	WORD_OFF	n/a	n/a	CHAIR	8	12	[0, 0, 0]	n/a	FR1	1	R1174T
1393.853	1.617	1399920	WORD	n/a	wordpools/wordpool_EN.txt	STICK	9	12	[0, 0, 0]	n/a	FR1	1	R1174T
1395.47	0.9	1401537	WORD_OFF	n/a	n/a	STICK	9	12	[0, 0, 0]	n/a	FR1	1	R1174T
1396.37	1.617	1402437	WORD	n/a	wordpools/wordpool_EN.txt	BROOM	10	12	[0, 0, 0]	n/a	FR1	1	R1174T
1397.987	0.951	1404054	WORD_OFF	n/a	n/a	BROOM	10	12	[0, 0, 0]	n/a	FR1	1	R1174T
1398.938	1.617	1405004	WORD	n/a	wordpools/wordpool_EN.txt	TRUCK	11	12	[0, 0, 0]	n/a	FR1	1	R1174T
1400.555	0.849	1406621	WORD_OFF	n/a	n/a	TRUCK	11	12	[0, 0, 0]	n/a	FR1	1	R1174T
1401.404	1.601	1407470	WORD	n/a	wordpools/wordpool_EN.txt	GUARD	12	12	[0, 0, 0]	n/a	FR1	1	R1174T
1403.005	0.0	1409071	WORD_OFF	n/a	n/a	GUARD	12	12	[0, 0, 0]	n/a	FR1	1	R1174T
1403.005	0.0	1409071	DISTRACT_START	n/a	n/a	n/a	-999	12	[0, 0, 0]	n/a	FR1	1	R1174T
1403.005	0.017	1409071	START	n/a	n/a	n/a	-999	12	[-999, -999, -999]	n/a	FR1	1	R1174T
1403.022	5.152	1409088	PROB	5.152	n/a	n/a	-999	12	[1, 8, 3]	12	FR1	1	R1174T
1408.174	11.135	1414240	PROB	11.135	n/a	n/a	-999	12	[7, 6, 8]	21	FR1	1	R1174T
1419.309	5.911	1425374	PROB	5.911	n/a	n/a	-999	12	[2, 9, 1]	12	FR1	1	R1174T
1425.22	0.007	1431285	STOP	n/a	n/a	n/a	-999	12	[-999, -999, -999]	n/a	FR1	1	R1174T
1425.227	0.549	1431292	DISTRACT_END	n/a	n/a	n/a	-999	12	[0, 0, 0]	n/a	FR1	1	R1174T
1425.776	0.519	1431841	RETRIEVAL_ORIENT	n/a	n/a	n/a	-999	12	[0, 0, 0]	n/a	FR1	1	R1174T
1426.295	2.868	1432360	REC_START	n/a	n/a	n/a	-999	12	[0, 0, 0]	n/a	FR1	1	R1174T
1429.163	0.873	1435228	REC_WORD	0.873	n/a	HAND	-999	12	[0, 0, 0]	n/a	FR1	1	R1174T
1430.036	1.995	1436101	REC_WORD	1.995	n/a	BED	-999	12	[0, 0, 0]	n/a	FR1	1	R1174T
1432.031	1.297	1438096	REC_WORD	1.297	n/a	SHOE	-999	12	[0, 0, 0]	n/a	FR1	1	R1174T
1433.328	5.263	1439392	REC_WORD	5.263	n/a	CHAIR	-999	12	[0, 0, 0]	n/a	FR1	1	R1174T
1438.591	3.143	1444655	REC_WORD	3.143	n/a	HILL	-999	12	[0, 0, 0]	n/a	FR1	1	R1174T
1441.734	14.57	1447798	REC_WORD	14.57	n/a	BROOM	-999	12	[0, 0, 0]	n/a	FR1	1	R1174T
1456.304	6.629	1462367	REC_END	n/a	n/a	n/a	-999	12	[0, 0, 0]	n/a	FR1	1	R1174T
1462.933	0.5	1468996	TRIAL	n/a	n/a	n/a	-999	13	[0, 0, 0]	n/a	FR1	1	R1174T
1463.433	10.428	1469496	COUNTDOWN_START	n/a	n/a	n/a	-999	13	[0, 0, 0]	n/a	FR1	1	R1174T
1473.861	0.007	1479923	COUNTDOWN_END	n/a	n/a	n/a	-999	13	[0, 0, 0]	n/a	FR1	1	R1174T
1473.868	1.617	1479930	ORIENT	n/a	n/a	n/a	-999	13	[0, 0, 0]	n/a	FR1	1	R1174T
1475.485	2.167	1481547	ORIENT_OFF	n/a	n/a	n/a	-999	13	[0, 0, 0]	n/a	FR1	1	R1174T
1477.652	1.618	1483714	WORD	n/a	wordpools/wordpool_EN.txt	CLOUD	1	13	[0, 0, 0]	n/a	FR1	1	R1174T
1479.27	0.817	1485332	WORD_OFF	n/a	n/a	CLOUD	1	13	[0, 0, 0]	n/a	FR1	1	R1174T
1480.087	1.616	1486149	WORD	n/a	wordpools/wordpool_EN.txt	WORLD	2	13	[0, 0, 0]	n/a	FR1	1	R1174T
1481.703	0.816	1487765	WORD_OFF	n/a	n/a	WORLD	2	13	[0, 0, 0]	n/a	FR1	1	R1174T
1482.519	1.602	1488581	WORD	n/a	wordpools/wordpool_EN.txt	ICE	3	13	[0, 0, 0]	n/a	FR1	1	R1174T
1484.121	0.916	1490182	WORD_OFF	n/a	n/a	ICE	3	13	[0, 0, 0]	n/a	FR1	1	R1174T
1485.037	1.617	1491098	WORD	n/a	wordpools/wordpool_EN.txt	SPARK	4	13	[0, 0, 0]	n/a	FR1	1	R1174T
1486.654	0.916	1492715	WORD_OFF	n/a	n/a	SPARK	4	13	[0, 0, 0]	n/a	FR1	1	R1174T
1487.57	1.618	1493631	WORD	n/a	wordpools/wordpool_EN.txt	CAR	5	13	[0, 0, 0]	n/a	FR1	1	R1174T
1489.188	0.783	1495249	WORD_OFF	n/a	n/a	CAR	5	13	[0, 0, 0]	n/a	FR1	1	R1174T
1489.971	1.617	1496032	WORD	n/a	wordpools/wordpool_EN.txt	SMOKE	6	13	[0, 0, 0]	n/a	FR1	1	R1174T
1491.588	1.0	1497649	WORD_OFF	n/a	n/a	SMOKE	6	13	[0, 0, 0]	n/a	FR1	1	R1174T
1492.588	1.618	1498649	WORD	n/a	wordpools/wordpool_EN.txt	CONE	7	13	[0, 0, 0]	n/a	FR1	1	R1174T
1494.206	0.967	1500267	WORD_OFF	n/a	n/a	CONE	7	13	[0, 0, 0]	n/a	FR1	1	R1174T
1495.173	1.616	1501234	WORD	n/a	wordpools/wordpool_EN.txt	BOMB	8	13	[0, 0, 0]	n/a	FR1	1	R1174T
1496.789	1.0	1502850	WORD_OFF	n/a	n/a	BOMB	8	13	[0, 0, 0]	n/a	FR1	1	R1174T
1497.789	1.617	1503850	WORD	n/a	wordpools/wordpool_EN.txt	BRIDGE	9	13	[0, 0, 0]	n/a	FR1	1	R1174T
1499.406	1.017	1505467	WORD_OFF	n/a	n/a	BRIDGE	9	13	[0, 0, 0]	n/a	FR1	1	R1174T
1500.423	1.617	1506484	WORD	n/a	wordpools/wordpool_EN.txt	WHEEL	10	13	[0, 0, 0]	n/a	FR1	1	R1174T
1502.04	1.0	1508100	WORD_OFF	n/a	n/a	WHEEL	10	13	[0, 0, 0]	n/a	FR1	1	R1174T
1503.04	1.617	1509100	WORD	n/a	wordpools/wordpool_EN.txt	STEAM	11	13	[0, 0, 0]	n/a	FR1	1	R1174T
1504.657	0.9	1510717	WORD_OFF	n/a	n/a	STEAM	11	13	[0, 0, 0]	n/a	FR1	1	R1174T
1505.557	1.601	1511617	WORD	n/a	wordpools/wordpool_EN.txt	RAIN	12	13	[0, 0, 0]	n/a	FR1	1	R1174T
1507.158	0.0	1513218	WORD_OFF	n/a	n/a	RAIN	12	13	[0, 0, 0]	n/a	FR1	1	R1174T
1507.158	0.001	1513218	DISTRACT_START	n/a	n/a	n/a	-999	13	[0, 0, 0]	n/a	FR1	1	R1174T
1507.159	0.016	1513219	START	n/a	n/a	n/a	-999	13	[-999, -999, -999]	n/a	FR1	1	R1174T
1507.175	4.433	1513235	PROB	4.433	n/a	n/a	-999	13	[4, 1, 5]	10	FR1	1	R1174T
1511.608	7.285	1517668	PROB	7.285	n/a	n/a	-999	13	[1, 6, 9]	16	FR1	1	R1174T
1518.893	5.567	1524952	PROB	5.567	n/a	n/a	-999	13	[2, 8, 4]	14	FR1	1	R1174T
1524.46	13.351	1530519	PROB	13.351	n/a	n/a	-999	13	[7, 7, 9]	23	FR1	1	R1174T
1537.811	0.019	1543869	STOP	n/a	n/a	n/a	-999	13	[-999, -999, -999]	n/a	FR1	1	R1174T
1537.83	0.599	1543888	DISTRACT_END	n/a	n/a	n/a	-999	13	[0, 0, 0]	n/a	FR1	1	R1174T
1538.429	0.518	1544487	RETRIEVAL_ORIENT	n/a	n/a	n/a	-999	13	[0, 0, 0]	n/a	FR1	1	R1174T
1538.947	2.006	1545005	REC_START	n/a	n/a	n/a	-999	13	[0, 0, 0]	n/a	FR1	1	R1174T
1540.953	1.346	1547011	REC_WORD	1.346	n/a	WORLD	-999	13	[0, 0, 0]	n/a	FR1	1	R1174T
1542.299	1.723	1548357	REC_WORD	1.723	n/a	ICE	-999	13	[0, 0, 0]	n/a	FR1	1	R1174T
1544.022	1.801	1550080	REC_WORD	1.801	n/a	TRUCK	-999	13	[0, 0, 0]	n/a	FR1	1	R1174T
1545.823	10.362	1551881	REC_WORD	10.362	n/a	WHEEL	-999	13	[0, 0, 0]	n/a	FR1	1	R1174T
1556.185	6.143	1562242	REC_WORD	6.143	n/a	CLOUD	-999	13	[0, 0, 0]	n/a	FR1	1	R1174T
1562.328	6.628	1568385	REC_WORD	6.628	n/a	ICE	-999	13	[0, 0, 0]	n/a	FR1	1	R1174T
1568.956	792.09	1575012	REC_END	n/a	n/a	n/a	-999	13	[0, 0, 0]	n/a	FR1	1	R1174T
2361.046	0.5	2367056	TRIAL	n/a	n/a	n/a	-999	14	[0, 0, 0]	n/a	FR1	1	R1174T
2361.546	10.428	2367556	COUNTDOWN_START	n/a	n/a	n/a	-999	14	[0, 0, 0]	n/a	FR1	1	R1174T
2371.974	0.007	2377983	COUNTDOWN_END	n/a	n/a	n/a	-999	14	[0, 0, 0]	n/a	FR1	1	R1174T
2371.981	1.617	2377990	ORIENT	n/a	n/a	n/a	-999	14	[0, 0, 0]	n/a	FR1	1	R1174T
2373.598	2.151	2379607	ORIENT_OFF	n/a	n/a	n/a	-999	14	[0, 0, 0]	n/a	FR1	1	R1174T
2375.749	1.617	2381758	WORD	n/a	wordpools/wordpool_EN.txt	CANE	1	14	[0, 0, 0]	n/a	FR1	1	R1174T
2377.366	1.017	2383375	WORD_OFF	n/a	n/a	CANE	1	14	[0, 0, 0]	n/a	FR1	1	R1174T
2378.383	1.617	2384392	WORD	n/a	wordpools/wordpool_EN.txt	SOAP	2	14	[0, 0, 0]	n/a	FR1	1	R1174T
2380.0	0.783	2386009	WORD_OFF	n/a	n/a	SOAP	2	14	[0, 0, 0]	n/a	FR1	1	R1174T
2380.783	1.617	2386792	WORD	n/a	wordpools/wordpool_EN.txt	STONE	3	14	[0, 0, 0]	n/a	FR1	1	R1174T
2382.4	0.901	2388409	WORD_OFF	n/a	n/a	STONE	3	14	[0, 0, 0]	n/a	FR1	1	R1174T
2383.301	1.616	2389310	WORD	n/a	wordpools/wordpool_EN.txt	CAKE	4	14	[0, 0, 0]	n/a	FR1	1	R1174T
2384.917	0.867	2390926	WORD_OFF	n/a	n/a	CAKE	4	14	[0, 0, 0]	n/a	FR1	1	R1174T
2385.784	1.617	2391792	WORD	n/a	wordpools/wordpool_EN.txt	GOAT	5	14	[0, 0, 0]	n/a	FR1	1	R1174T
2387.401	0.768	2393409	WORD_OFF	n/a	n/a	GOAT	5	14	[0, 0, 0]	n/a	FR1	1	R1174T
2388.169	1.616	2394177	WORD	n/a	wordpools/wordpool_EN.txt	MOOSE	6	14	[0, 0, 0]	n/a	FR1	1	R1174T
2389.785	1.0	2395793	WORD_OFF	n/a	n/a	MOOSE	6	14	[0, 0, 0]	n/a	FR1	1	R1174T
2390.785	1.617	2396793	WORD	n/a	wordpools/wordpool_EN.txt	SOUP	7	14	[0, 0, 0]	n/a	FR1	1	R1174T
2392.402	0.967	2398410	WORD_OFF	n/a	n/a	SOUP	7	14	[0, 0, 0]	n/a	FR1	1	R1174T
2393.369	1.617	2399377	WORD	n/a	wordpools/wordpool_EN.txt	CHIN	8	14	[0, 0, 0]	n/a	FR1	1	R1174T
2394.986	0.85	2400994	WORD_OFF	n/a	n/a	CHIN	8	14	[0, 0, 0]	n/a	FR1	1	R1174T
2395.836	1.617	2401844	WORD	n/a	wordpools/wordpool_EN.txt	STRAW	9	14	[0, 0, 0]	n/a	FR1	1	R1174T
2397.453	0.917	2403461	WORD_OFF	n/a	n/a	STRAW	9	14	[0, 0, 0]	n/a	FR1	1	R1174T
2398.37	1.617	2404378	WORD	n/a	wordpools/wordpool_EN.txt	PEACH	10	14	[0, 0, 0]	n/a	FR1	1	R1174T
2399.987	0.966	2405995	WORD_OFF	n/a	n/a	PEACH	10	14	[0, 0, 0]	n/a	FR1	1	R1174T
2400.953	1.617	2406961	WORD	n/a	wordpools/wordpool_EN.txt	CLAY	11	14	[0, 0, 0]	n/a	FR1	1	R1174T
2402.57	1.001	2408578	WORD_OFF	n/a	n/a	CLAY	11	14	[0, 0, 0]	n/a	FR1	1	R1174T
2403.571	1.617	2409578	WORD	n/a	wordpools/wordpool_EN.txt	SALT	12	14	[0, 0, 0]	n/a	FR1	1	R1174T
2405.188	0.0	2411195	WORD_OFF	n/a	n/a	SALT	12	14	[0, 0, 0]	n/a	FR1	1	R1174T
2405.188	0.001	2411195	DISTRACT_START	n/a	n/a	n/a	-999	14	[0, 0, 0]	n/a	FR1	1	R1174T
2405.189	0.016	2411196	START	n/a	n/a	n/a	-999	14	[-999, -999, -999]	n/a	FR1	1	R1174T
2405.205	5.283	2411212	PROB	5.283	n/a	n/a	-999	14	[9, 1, 9]	19	FR1	1	R1174T
2410.488	6.085	2416495	PROB	6.085	n/a	n/a	-999	14	[9, 2, 1]	12	FR1	1	R1174T
2416.573	6.835	2422580	PROB	6.835	n/a	n/a	-999	14	[9, 3, 6]	18	FR1	1	R1174T
2423.408	7.859	2429414	PROB	7.859	n/a	n/a	-999	14	[9, 5, 7]	21	FR1	1	R1174T
2431.267	0.01	2437273	STOP	n/a	n/a	n/a	-999	14	[-999, -999, -999]	n/a	FR1	1	R1174T
2431.277	0.699	2437283	DISTRACT_END	n/a	n/a	n/a	-999	14	[0, 0, 0]	n/a	FR1	1	R1174T
2431.976	0.517	2437982	RETRIEVAL_ORIENT	n/a	n/a	n/a	-999	14	[0, 0, 0]	n/a	FR1	1	R1174T
2432.493	2.949	2438499	REC_START	n/a	n/a	n/a	-999	14	[0, 0, 0]	n/a	FR1	1	R1174T
2435.442	0.595	2441448	REC_WORD	0.595	n/a	CLAY	-999	14	[0, 0, 0]	n/a	FR1	1	R1174T
2436.037	2.854	2442043	REC_WORD	2.854	n/a	CANE	-999	14	[0, 0, 0]	n/a	FR1	1	R1174T
2438.891	11.463	2444896	REC_WORD	11.463	n/a	STRAW	-999	14	[0, 0, 0]	n/a	FR1	1	R1174T
2450.354	3.536	2456359	REC_WORD	3.536	n/a	MOOSE	-999	14	[0, 0, 0]	n/a	FR1	1	R1174T
2453.89	8.615	2459894	REC_WORD	8.615	n/a	SOUP	-999	14	[0, 0, 0]	n/a	FR1	1	R1174T
2462.505	8.978	2468509	REC_END	n/a	n/a	n/a	-999	14	[0, 0, 0]	n/a	FR1	1	R1174T
2471.483	0.5	2477486	TRIAL	n/a	n/a	n/a	-999	15	[0, 0, 0]	n/a	FR1	1	R1174T
2471.983	10.428	2477986	COUNTDOWN_START	n/a	n/a	n/a	-999	15	[0, 0, 0]	n/a	FR1	1	R1174T
2482.411	0.007	2488414	COUNTDOWN_END	n/a	n/a	n/a	-999	15	[0, 0, 0]	n/a	FR1	1	R1174T
2482.418	1.617	2488421	ORIENT	n/a	n/a	n/a	-999	15	[0, 0, 0]	n/a	FR1	1	R1174T
2484.035	2.035	2490038	ORIENT_OFF	n/a	n/a	n/a	-999	15	[0, 0, 0]	n/a	FR1	1	R1174T
2486.07	1.616	2492073	WORD	n/a	wordpools/wordpool_EN.txt	JAR	1	15	[0, 0, 0]	n/a	FR1	1	R1174T
2487.686	0.767	2493689	WORD_OFF	n/a	n/a	JAR	1	15	[0, 0, 0]	n/a	FR1	1	R1174T
2488.453	1.618	2494455	WORD	n/a	wordpools/wordpool_EN.txt	STORE	2	15	[0, 0, 0]	n/a	FR1	1	R1174T
2490.071	0.916	2496073	WORD_OFF	n/a	n/a	STORE	2	15	[0, 0, 0]	n/a	FR1	1	R1174T
2490.987	1.616	2496989	WORD	n/a	wordpools/wordpool_EN.txt	THUMB	3	15	[0, 0, 0]	n/a	FR1	1	R1174T
2492.603	0.951	2498605	WORD_OFF	n/a	n/a	THUMB	3	15	[0, 0, 0]	n/a	FR1	1	R1174T
2493.554	1.618	2499556	WORD	n/a	wordpools/wordpool_EN.txt	BEAK	4	15	[0, 0, 0]	n/a	FR1	1	R1174T
2495.172	0.916	2501174	WORD_OFF	n/a	n/a	BEAK	4	15	[0, 0, 0]	n/a	FR1	1	R1174T
2496.088	1.616	2502090	WORD	n/a	wordpools/wordpool_EN.txt	PURSE	5	15	[0, 0, 0]	n/a	FR1	1	R1174T
2497.704	0.901	2503706	WORD_OFF	n/a	n/a	PURSE	5	15	[0, 0, 0]	n/a	FR1	1	R1174T
2498.605	1.618	2504607	WORD	n/a	wordpools/wordpool_EN.txt	SHIRT	6	15	[0, 0, 0]	n/a	FR1	1	R1174T
2500.223	0.798	2506225	WORD_OFF	n/a	n/a	SHIRT	6	15	[0, 0, 0]	n/a	FR1	1	R1174T
2501.021	1.618	2507023	WORD	n/a	wordpools/wordpool_EN.txt	STREET	7	15	[0, 0, 0]	n/a	FR1	1	R1174T
2502.639	0.783	2508641	WORD_OFF	n/a	n/a	STREET	7	15	[0, 0, 0]	n/a	FR1	1	R1174T
2503.422	1.617	2509424	WORD	n/a	wordpools/wordpool_EN.txt	COIN	8	15	[0, 0, 0]	n/a	FR1	1	R1174T
2505.039	0.867	2511040	WORD_OFF	n/a	n/a	COIN	8	15	[0, 0, 0]	n/a	FR1	1	R1174T
2505.906	1.617	2511907	WORD	n/a	wordpools/wordpool_EN.txt	GLASS	9	15	[0, 0, 0]	n/a	FR1	1	R1174T
2507.523	0.9	2513524	WORD_OFF	n/a	n/a	GLASS	9	15	[0, 0, 0]	n/a	FR1	1	R1174T
2508.423	1.617	2514424	WORD	n/a	wordpools/wordpool_EN.txt	STEM	10	15	[0, 0, 0]	n/a	FR1	1	R1174T
2510.04	0.917	2516041	WORD_OFF	n/a	n/a	STEM	10	15	[0, 0, 0]	n/a	FR1	1	R1174T
2510.957	1.617	2516958	WORD	n/a	wordpools/wordpool_EN.txt	FLEA	11	15	[0, 0, 0]	n/a	FR1	1	R1174T
2512.574	0.967	2518575	WORD_OFF	n/a	n/a	FLEA	11	15	[0, 0, 0]	n/a	FR1	1	R1174T
2513.541	1.618	2519542	WORD	n/a	wordpools/wordpool_EN.txt	SEED	12	15	[0, 0, 0]	n/a	FR1	1	R1174T
2515.159	0.0	2521160	WORD_OFF	n/a	n/a	SEED	12	15	[0, 0, 0]	n/a	FR1	1	R1174T
2515.159	0.0	2521160	DISTRACT_START	n/a	n/a	n/a	-999	15	[0, 0, 0]	n/a	FR1	1	R1174T
2515.159	0.016	2521160	START	n/a	n/a	n/a	-999	15	[-999, -999, -999]	n/a	FR1	1	R1174T
2515.175	7.184	2521176	PROB	7.184	n/a	n/a	-999	15	[4, 1, 9]	14	FR1	1	R1174T
2522.359	5.885	2528359	PROB	5.885	n/a	n/a	-999	15	[5, 5, 9]	19	FR1	1	R1174T
2528.244	5.6	2534244	PROB	5.6	n/a	n/a	-999	15	[7, 3, 7]	17	FR1	1	R1174T
2533.844	6.456	2539844	PROB	6.456	n/a	n/a	-999	15	[5, 6, 3]	14	FR1	1	R1174T
2540.3	0.013	2546299	STOP	n/a	n/a	n/a	-999	15	[-999, -999, -999]	n/a	FR1	1	R1174T
2540.313	0.582	2546312	DISTRACT_END	n/a	n/a	n/a	-999	15	[0, 0, 0]	n/a	FR1	1	R1174T
2540.895	0.518	2546894	RETRIEVAL_ORIENT	n/a	n/a	n/a	-999	15	[0, 0, 0]	n/a	FR1	1	R1174T
2541.413	4.014	2547412	REC_START	n/a	n/a	n/a	-999	15	[0, 0, 0]	n/a	FR1	1	R1174T
2545.427	0.974	2551426	REC_WORD	0.974	n/a	STREET	-999	15	[0, 0, 0]	n/a	FR1	1	R1174T
2546.401	0.254	2552400	REC_WORD	0.254	n/a	PURSE	-999	15	[0, 0, 0]	n/a	FR1	1	R1174T
2546.655	21.67	2552654	REC_WORD	21.67	n/a	SHIRT	-999	15	[0, 0, 0]	n/a	FR1	1	R1174T
2568.325	3.096	2574323	REC_WORD	3.096	n/a	THUMB	-999	15	[0, 0, 0]	n/a	FR1	1	R1174T
2571.421	8.232	2577419	REC_END	n/a	n/a	n/a	-999	15	[0, 0, 0]	n/a	FR1	1	R1174T
2579.653	0.5	2585650	TRIAL	n/a	n/a	n/a	-999	16	[0, 0, 0]	n/a	FR1	1	R1174T
2580.153	10.428	2586150	COUNTDOWN_START	n/a	n/a	n/a	-999	16	[0, 0, 0]	n/a	FR1	1	R1174T
2590.581	0.007	2596577	COUNTDOWN_END	n/a	n/a	n/a	-999	16	[0, 0, 0]	n/a	FR1	1	R1174T
2590.588	1.618	2596584	ORIENT	n/a	n/a	n/a	-999	16	[0, 0, 0]	n/a	FR1	1	R1174T
2592.206	2.199	2598202	ORIENT_OFF	n/a	n/a	n/a	-999	16	[0, 0, 0]	n/a	FR1	1	R1174T
2594.405	1.617	2600401	WORD	n/a	wordpools/wordpool_EN.txt	JAIL	1	16	[0, 0, 0]	n/a	FR1	1	R1174T
2596.022	0.884	2602018	WORD_OFF	n/a	n/a	JAIL	1	16	[0, 0, 0]	n/a	FR1	1	R1174T
2596.906	1.617	2602902	WORD	n/a	wordpools/wordpool_EN.txt	PLANT	2	16	[0, 0, 0]	n/a	FR1	1	R1174T
2598.523	0.916	2604519	WORD_OFF	n/a	n/a	PLANT	2	16	[0, 0, 0]	n/a	FR1	1	R1174T
2599.439	1.617	2605435	WORD	n/a	wordpools/wordpool_EN.txt	MAP	3	16	[0, 0, 0]	n/a	FR1	1	R1174T
2601.056	0.934	2607052	WORD_OFF	n/a	n/a	MAP	3	16	[0, 0, 0]	n/a	FR1	1	R1174T
2601.99	1.617	2607986	WORD	n/a	wordpools/wordpool_EN.txt	DOG	4	16	[0, 0, 0]	n/a	FR1	1	R1174T
2603.607	0.85	2609603	WORD_OFF	n/a	n/a	DOG	4	16	[0, 0, 0]	n/a	FR1	1	R1174T
2604.457	1.618	2610453	WORD	n/a	wordpools/wordpool_EN.txt	TRASH	5	16	[0, 0, 0]	n/a	FR1	1	R1174T
2606.075	0.866	2612071	WORD_OFF	n/a	n/a	TRASH	5	16	[0, 0, 0]	n/a	FR1	1	R1174T
2606.941	1.617	2612936	WORD	n/a	wordpools/wordpool_EN.txt	CORN	6	16	[0, 0, 0]	n/a	FR1	1	R1174T
2608.558	0.85	2614553	WORD_OFF	n/a	n/a	CORN	6	16	[0, 0, 0]	n/a	FR1	1	R1174T
2609.408	1.617	2615403	WORD	n/a	wordpools/wordpool_EN.txt	LAND	7	16	[0, 0, 0]	n/a	FR1	1	R1174T
2611.025	0.784	2617020	WORD_OFF	n/a	n/a	LAND	7	16	[0, 0, 0]	n/a	FR1	1	R1174T
2611.809	1.617	2617804	WORD	n/a	wordpools/wordpool_EN.txt	SLUSH	8	16	[0, 0, 0]	n/a	FR1	1	R1174T
2613.426	0.834	2619421	WORD_OFF	n/a	n/a	SLUSH	8	16	[0, 0, 0]	n/a	FR1	1	R1174T
2614.26	1.616	2620255	WORD	n/a	wordpools/wordpool_EN.txt	BAND	9	16	[0, 0, 0]	n/a	FR1	1	R1174T
2615.876	0.85	2621871	WORD_OFF	n/a	n/a	BAND	9	16	[0, 0, 0]	n/a	FR1	1	R1174T
2616.726	1.617	2622721	WORD	n/a	wordpools/wordpool_EN.txt	SKI	10	16	[0, 0, 0]	n/a	FR1	1	R1174T
2618.343	0.968	2624338	WORD_OFF	n/a	n/a	SKI	10	16	[0, 0, 0]	n/a	FR1	1	R1174T
2619.311	1.616	2625306	WORD	n/a	wordpools/wordpool_EN.txt	CAT	11	16	[0, 0, 0]	n/a	FR1	1	R1174T
2620.927	0.783	2626922	WORD_OFF	n/a	n/a	CAT	11	16	[0, 0, 0]	n/a	FR1	1	R1174T
2621.71	1.601	2627705	WORD	n/a	wordpools/wordpool_EN.txt	BREAD	12	16	[0, 0, 0]	n/a	FR1	1	R1174T
2623.311	0.0	2629306	WORD_OFF	n/a	n/a	BREAD	12	16	[0, 0, 0]	n/a	FR1	1	R1174T
2623.311	0.001	2629306	DISTRACT_START	n/a	n/a	n/a	-999	16	[0, 0, 0]	n/a	FR1	1	R1174T
2623.312	0.015	2629307	START	n/a	n/a	n/a	-999	16	[-999, -999, -999]	n/a	FR1	1	R1174T
2623.327	15.47	2629322	PROB	15.47	n/a	n/a	-999	16	[8, 2, 7]	17	FR1	1	R1174T
2638.797	5.014	2644791	PROB	5.014	n/a	n/a	-999	16	[3, 2, 7]	12	FR1	1	R1174T
2643.811	0.02	2649804	STOP	n/a	n/a	n/a	-999	16	[-999, -999, -999]	n/a	FR1	1	R1174T
2643.831	0.7	2649824	DISTRACT_END	n/a	n/a	n/a	-999	16	[0, 0, 0]	n/a	FR1	1	R1174T
2644.531	0.521	2650524	RETRIEVAL_ORIENT	n/a	n/a	n/a	-999	16	[0, 0, 0]	n/a	FR1	1	R1174T
2645.052	30.0	2651045	REC_START	n/a	n/a	n/a	-999	16	[0, 0, 0]	n/a	FR1	1	R1174T
2675.052	0.007	2681043	REC_WORD_VV	0.007	n/a	<>	-999	16	[0, 0, 0]	n/a	FR1	1	R1174T
2675.059	25.299	2681050	REC_END	n/a	n/a	n/a	-999	16	[0, 0, 0]	n/a	FR1	1	R1174T
2700.358	0.5	2706348	TRIAL	n/a	n/a	n/a	-999	17	[0, 0, 0]	n/a	FR1	1	R1174T
2700.858	10.428	2706848	COUNTDOWN_START	n/a	n/a	n/a	-999	17	[0, 0, 0]	n/a	FR1	1	R1174T
2711.286	0.008	2717275	COUNTDOWN_END	n/a	n/a	n/a	-999	17	[0, 0, 0]	n/a	FR1	1	R1174T
2711.294	1.616	2717283	ORIENT	n/a	n/a	n/a	-999	17	[0, 0, 0]	n/a	FR1	1	R1174T
2712.91	2.202	2718899	ORIENT_OFF	n/a	n/a	n/a	-999	17	[0, 0, 0]	n/a	FR1	1	R1174T
2715.112	1.616	2721101	WORD	n/a	wordpools/wordpool_EN.txt	ROSE	1	17	[0, 0, 0]	n/a	FR1	1	R1174T
2716.728	0.933	2722717	WORD_OFF	n/a	n/a	ROSE	1	17	[0, 0, 0]	n/a	FR1	1	R1174T
2717.661	1.618	2723650	WORD	n/a	wordpools/wordpool_EN.txt	HAT	2	17	[0, 0, 0]	n/a	FR1	1	R1174T
2719.279	0.9	2725268	WORD_OFF	n/a	n/a	HAT	2	17	[0, 0, 0]	n/a	FR1	1	R1174T
2720.179	1.616	2726168	WORD	n/a	wordpools/wordpool_EN.txt	PET	3	17	[0, 0, 0]	n/a	FR1	1	R1174T
2721.795	0.917	2727784	WORD_OFF	n/a	n/a	PET	3	17	[0, 0, 0]	n/a	FR1	1	R1174T
2722.712	1.617	2728701	WORD	n/a	wordpools/wordpool_EN.txt	ELF	4	17	[0, 0, 0]	n/a	FR1	1	R1174T
2724.329	0.851	2730318	WORD_OFF	n/a	n/a	ELF	4	17	[0, 0, 0]	n/a	FR1	1	R1174T
2725.18	1.616	2731169	WORD	n/a	wordpools/wordpool_EN.txt	STOOL	5	17	[0, 0, 0]	n/a	FR1	1	R1174T
2726.796	0.85	2732784	WORD_OFF	n/a	n/a	STOOL	5	17	[0, 0, 0]	n/a	FR1	1	R1174T
2727.646	1.618	2733634	WORD	n/a	wordpools/wordpool_EN.txt	BARN	6	17	[0, 0, 0]	n/a	FR1	1	R1174T
2729.264	0.967	2735252	WORD_OFF	n/a	n/a	BARN	6	17	[0, 0, 0]	n/a	FR1	1	R1174T
2730.231	1.616	2736219	WORD	n/a	wordpools/wordpool_EN.txt	EAR	7	17	[0, 0, 0]	n/a	FR1	1	R1174T
2731.847	0.917	2737835	WORD_OFF	n/a	n/a	EAR	7	17	[0, 0, 0]	n/a	FR1	1	R1174T
2732.764	1.617	2738752	WORD	n/a	wordpools/wordpool_EN.txt	FENCE	8	17	[0, 0, 0]	n/a	FR1	1	R1174T
2734.381	0.851	2740369	WORD_OFF	n/a	n/a	FENCE	8	17	[0, 0, 0]	n/a	FR1	1	R1174T
2735.232	1.616	2741220	WORD	n/a	wordpools/wordpool_EN.txt	HORN	9	17	[0, 0, 0]	n/a	FR1	1	R1174T
2736.848	0.767	2742836	WORD_OFF	n/a	n/a	HORN	9	17	[0, 0, 0]	n/a	FR1	1	R1174T
2737.615	1.618	2743603	WORD	n/a	wordpools/wordpool_EN.txt	FUR	10	17	[0, 0, 0]	n/a	FR1	1	R1174T
2739.233	0.85	2745221	WORD_OFF	n/a	n/a	FUR	10	17	[0, 0, 0]	n/a	FR1	1	R1174T
2740.083	1.616	2746071	WORD	n/a	wordpools/wordpool_EN.txt	RAT	11	17	[0, 0, 0]	n/a	FR1	1	R1174T
2741.699	0.867	2747687	WORD_OFF	n/a	n/a	RAT	11	17	[0, 0, 0]	n/a	FR1	1	R1174T
2742.566	1.618	2748554	WORD	n/a	wordpools/wordpool_EN.txt	PANTS	12	17	[0, 0, 0]	n/a	FR1	1	R1174T
2744.184	0.0	2750171	WORD_OFF	n/a	n/a	PANTS	12	17	[0, 0, 0]	n/a	FR1	1	R1174T
2744.184	0.0	2750171	DISTRACT_START	n/a	n/a	n/a	-999	17	[0, 0, 0]	n/a	FR1	1	R1174T
2744.184	0.016	2750171	START	n/a	n/a	n/a	-999	17	[-999, -999, -999]	n/a	FR1	1	R1174T
2744.2	14.402	2750187	PROB	14.402	n/a	n/a	-999	17	[6, 5, 4]	14	FR1	1	R1174T
2758.602	6.993	2764589	PROB	6.993	n/a	n/a	-999	17	[2, 9, 6]	17	FR1	1	R1174T
2765.595	0.008	2771581	STOP	n/a	n/a	n/a	-999	17	[-999, -999, -999]	n/a	FR1	1	R1174T
2765.603	0.551	2771589	DISTRACT_END	n/a	n/a	n/a	-999	17	[0, 0, 0]	n/a	FR1	1	R1174T
2766.154	0.519	2772140	RETRIEVAL_ORIENT	n/a	n/a	n/a	-999	17	[0, 0, 0]	n/a	FR1	1	R1174T
2766.673	3.081	2772659	REC_START	n/a	n/a	n/a	-999	17	[0, 0, 0]	n/a	FR1	1	R1174T
2769.754	4.351	2775740	REC_WORD	4.351	n/a	RAT	-999	17	[0, 0, 0]	n/a	FR1	1	R1174T
2774.105	1.538	2780091	REC_WORD	1.538	n/a	CAT	-999	17	[0, 0, 0]	n/a	FR1	1	R1174T
2775.643	2.269	2781629	REC_WORD	2.269	n/a	STOOL	-999	17	[0, 0, 0]	n/a	FR1	1	R1174T
2777.912	18.767	2783897	REC_WORD	18.767	n/a	JAIL	-999	17	[0, 0, 0]	n/a	FR1	1	R1174T
2796.679	7.881	2802663	REC_END	n/a	n/a	n/a	-999	17	[0, 0, 0]	n/a	FR1	1	R1174T
2804.56	0.5	2810544	TRIAL	n/a	n/a	n/a	-999	18	[0, 0, 0]	n/a	FR1	1	R1174T
2805.06	10.428	2811044	COUNTDOWN_START	n/a	n/a	n/a	-999	18	[0, 0, 0]	n/a	FR1	1	R1174T
2815.488	0.008	2821471	COUNTDOWN_END	n/a	n/a	n/a	-999	18	[0, 0, 0]	n/a	FR1	1	R1174T
2815.496	1.618	2821479	ORIENT	n/a	n/a	n/a	-999	18	[0, 0, 0]	n/a	FR1	1	R1174T
2817.114	1.967	2823097	ORIENT_OFF	n/a	n/a	n/a	-999	18	[0, 0, 0]	n/a	FR1	1	R1174T
2819.081	1.615	2825064	WORD	n/a	wordpools/wordpool_EN.txt	SHELL	1	18	[0, 0, 0]	n/a	FR1	1	R1174T
2820.696	0.884	2826679	WORD_OFF	n/a	n/a	SHELL	1	18	[0, 0, 0]	n/a	FR1	1	R1174T
2821.58	1.618	2827563	WORD	n/a	wordpools/wordpool_EN.txt	FUDGE	2	18	[0, 0, 0]	n/a	FR1	1	R1174T
2823.198	0.883	2829181	WORD_OFF	n/a	n/a	FUDGE	2	18	[0, 0, 0]	n/a	FR1	1	R1174T
2824.081	1.617	2830064	WORD	n/a	wordpools/wordpool_EN.txt	CAVE	3	18	[0, 0, 0]	n/a	FR1	1	R1174T
2825.698	0.8	2831681	WORD_OFF	n/a	n/a	CAVE	3	18	[0, 0, 0]	n/a	FR1	1	R1174T
2826.498	1.618	2832481	WORD	n/a	wordpools/wordpool_EN.txt	WORM	4	18	[0, 0, 0]	n/a	FR1	1	R1174T
2828.116	0.782	2834098	WORD_OFF	n/a	n/a	WORM	4	18	[0, 0, 0]	n/a	FR1	1	R1174T
2828.898	1.617	2834880	WORD	n/a	wordpools/wordpool_EN.txt	SNAKE	5	18	[0, 0, 0]	n/a	FR1	1	R1174T
2830.515	0.768	2836497	WORD_OFF	n/a	n/a	SNAKE	5	18	[0, 0, 0]	n/a	FR1	1	R1174T
2831.283	1.616	2837265	WORD	n/a	wordpools/wordpool_EN.txt	WEB	6	18	[0, 0, 0]	n/a	FR1	1	R1174T
2832.899	0.867	2838881	WORD_OFF	n/a	n/a	WEB	6	18	[0, 0, 0]	n/a	FR1	1	R1174T
2833.766	1.617	2839748	WORD	n/a	wordpools/wordpool_EN.txt	SEAL	7	18	[0, 0, 0]	n/a	FR1	1	R1174T
2835.383	0.767	2841365	WORD_OFF	n/a	n/a	SEAL	7	18	[0, 0, 0]	n/a	FR1	1	R1174T
2836.15	1.616	2842132	WORD	n/a	wordpools/wordpool_EN.txt	MUD	8	18	[0, 0, 0]	n/a	FR1	1	R1174T
2837.766	0.951	2843748	WORD_OFF	n/a	n/a	MUD	8	18	[0, 0, 0]	n/a	FR1	1	R1174T
2838.717	1.616	2844699	WORD	n/a	wordpools/wordpool_EN.txt	FOOD	9	18	[0, 0, 0]	n/a	FR1	1	R1174T
2840.333	0.835	2846315	WORD_OFF	n/a	n/a	FOOD	9	18	[0, 0, 0]	n/a	FR1	1	R1174T
2841.168	1.616	2847150	WORD	n/a	wordpools/wordpool_EN.txt	MOLE	10	18	[0, 0, 0]	n/a	FR1	1	R1174T
2842.784	0.967	2848766	WORD_OFF	n/a	n/a	MOLE	10	18	[0, 0, 0]	n/a	FR1	1	R1174T
2843.751	1.617	2849733	WORD	n/a	wordpools/wordpool_EN.txt	ZOO	11	18	[0, 0, 0]	n/a	FR1	1	R1174T
2845.368	0.767	2851349	WORD_OFF	n/a	n/a	ZOO	11	18	[0, 0, 0]	n/a	FR1	1	R1174T
2846.135	1.617	2852116	WORD	n/a	wordpools/wordpool_EN.txt	SPONGE	12	18	[0, 0, 0]	n/a	FR1	1	R1174T
2847.752	0.0	2853733	WORD_OFF	n/a	n/a	SPONGE	12	18	[0, 0, 0]	n/a	FR1	1	R1174T
2847.752	0.0	2853733	DISTRACT_START	n/a	n/a	n/a	-999	18	[0, 0, 0]	n/a	FR1	1	R1174T
2847.752	0.016	2853733	START	n/a	n/a	n/a	-999	18	[-999, -999, -999]	n/a	FR1	1	R1174T
2847.768	14.269	2853749	PROB	14.269	n/a	n/a	-999	18	[8, 6, 9]	23	FR1	1	R1174T
2862.037	6.032	2868018	PROB	6.032	n/a	n/a	-999	18	[2, 8, 6]	16	FR1	1	R1174T
2868.069	0.02	2874049	STOP	n/a	n/a	n/a	-999	18	[-999, -999, -999]	n/a	FR1	1	R1174T
2868.089	0.616	2874069	DISTRACT_END	n/a	n/a	n/a	-999	18	[0, 0, 0]	n/a	FR1	1	R1174T
2868.705	0.519	2874685	RETRIEVAL_ORIENT	n/a	n/a	n/a	-999	18	[0, 0, 0]	n/a	FR1	1	R1174T
2869.224	3.649	2875204	REC_START	n/a	n/a	n/a	-999	18	[0, 0, 0]	n/a	FR1	1	R1174T
2872.873	7.616	2878853	REC_WORD	7.616	n/a	CAVE	-999	18	[0, 0, 0]	n/a	FR1	1	R1174T
2880.489	2.046	2886468	REC_WORD	2.046	n/a	SNAKE	-999	18	[0, 0, 0]	n/a	FR1	1	R1174T
2882.535	4.317	2888514	REC_WORD	4.317	n/a	ZOO	-999	18	[0, 0, 0]	n/a	FR1	1	R1174T
2886.852	1.664	2892831	REC_WORD	1.664	n/a	MOLE	-999	18	[0, 0, 0]	n/a	FR1	1	R1174T
2888.516	10.718	2894495	REC_WORD	10.718	n/a	HOLE	-999	18	[0, 0, 0]	n/a	FR1	1	R1174T
2899.234	7.879	2905212	REC_END	n/a	n/a	n/a	-999	18	[0, 0, 0]	n/a	FR1	1	R1174T
2907.113	0.5	2913091	TRIAL	n/a	n/a	n/a	-999	19	[0, 0, 0]	n/a	FR1	1	R1174T
2907.613	10.428	2913591	COUNTDOWN_START	n/a	n/a	n/a	-999	19	[0, 0, 0]	n/a	FR1	1	R1174T
2918.041	0.007	2924018	COUNTDOWN_END	n/a	n/a	n/a	-999	19	[0, 0, 0]	n/a	FR1	1	R1174T
2918.048	1.617	2924025	ORIENT	n/a	n/a	n/a	-999	19	[0, 0, 0]	n/a	FR1	1	R1174T
2919.665	2.1	2925642	ORIENT_OFF	n/a	n/a	n/a	-999	19	[0, 0, 0]	n/a	FR1	1	R1174T
2921.765	1.617	2927742	WORD	n/a	wordpools/wordpool_EN.txt	PIPE	1	19	[0, 0, 0]	n/a	FR1	1	R1174T
2923.382	0.801	2929359	WORD_OFF	n/a	n/a	PIPE	1	19	[0, 0, 0]	n/a	FR1	1	R1174T
2924.183	1.616	2930160	WORD	n/a	wordpools/wordpool_EN.txt	BATH	2	19	[0, 0, 0]	n/a	FR1	1	R1174T
2925.799	0.984	2931776	WORD_OFF	n/a	n/a	BATH	2	19	[0, 0, 0]	n/a	FR1	1	R1174T
2926.783	1.617	2932760	WORD	n/a	wordpools/wordpool_EN.txt	BOX	3	19	[0, 0, 0]	n/a	FR1	1	R1174T
2928.4	0.884	2934377	WORD_OFF	n/a	n/a	BOX	3	19	[0, 0, 0]	n/a	FR1	1	R1174T
2929.284	1.616	2935261	WORD	n/a	wordpools/wordpool_EN.txt	SEAT	4	19	[0, 0, 0]	n/a	FR1	1	R1174T
2930.9	0.784	2936876	WORD_OFF	n/a	n/a	SEAT	4	19	[0, 0, 0]	n/a	FR1	1	R1174T
2931.684	1.618	2937660	WORD	n/a	wordpools/wordpool_EN.txt	PIN	5	19	[0, 0, 0]	n/a	FR1	1	R1174T
2933.302	0.833	2939278	WORD_OFF	n/a	n/a	PIN	5	19	[0, 0, 0]	n/a	FR1	1	R1174T
2934.135	1.616	2940111	WORD	n/a	wordpools/wordpool_EN.txt	STOVE	6	19	[0, 0, 0]	n/a	FR1	1	R1174T
2935.751	1.017	2941727	WORD_OFF	n/a	n/a	STOVE	6	19	[0, 0, 0]	n/a	FR1	1	R1174T
2936.768	1.617	2942744	WORD	n/a	wordpools/wordpool_EN.txt	CUP	7	19	[0, 0, 0]	n/a	FR1	1	R1174T
2938.385	0.801	2944361	WORD_OFF	n/a	n/a	CUP	7	19	[0, 0, 0]	n/a	FR1	1	R1174T
2939.186	1.616	2945162	WORD	n/a	wordpools/wordpool_EN.txt	APE	8	19	[0, 0, 0]	n/a	FR1	1	R1174T
2940.802	1.0	2946778	WORD_OFF	n/a	n/a	APE	8	19	[0, 0, 0]	n/a	FR1	1	R1174T
2941.802	1.617	2947778	WORD	n/a	wordpools/wordpool_EN.txt	BALL	9	19	[0, 0, 0]	n/a	FR1	1	R1174T
2943.419	0.834	2949395	WORD_OFF	n/a	n/a	BALL	9	19	[0, 0, 0]	n/a	FR1	1	R1174T
2944.253	1.616	2950229	WORD	n/a	wordpools/wordpool_EN.txt	SQUARE	10	19	[0, 0, 0]	n/a	FR1	1	R1174T
2945.869	0.8	2951845	WORD_OFF	n/a	n/a	SQUARE	10	19	[0, 0, 0]	n/a	FR1	1	R1174T
2946.669	1.618	2952645	WORD	n/a	wordpools/wordpool_EN.txt	SIGN	11	19	[0, 0, 0]	n/a	FR1	1	R1174T
2948.287	0.801	2954262	WORD_OFF	n/a	n/a	SIGN	11	19	[0, 0, 0]	n/a	FR1	1	R1174T
2949.088	1.616	2955063	WORD	n/a	wordpools/wordpool_EN.txt	VAN	12	19	[0, 0, 0]	n/a	FR1	1	R1174T
2950.704	0.0	2956679	WORD_OFF	n/a	n/a	VAN	12	19	[0, 0, 0]	n/a	FR1	1	R1174T
2950.704	0.0	2956679	DISTRACT_START	n/a	n/a	n/a	-999	19	[0, 0, 0]	n/a	FR1	1	R1174T
2950.704	0.016	2956679	START	n/a	n/a	n/a	-999	19	[-999, -999, -999]	n/a	FR1	1	R1174T
2950.72	5.502	2956695	PROB	5.502	n/a	n/a	-999	19	[1, 4, 5]	10	FR1	1	R1174T
2956.222	5.834	2962197	PROB	5.834	n/a	n/a	-999	19	[5, 2, 1]	8	FR1	1	R1174T
2962.056	6.551	2968031	PROB	6.551	n/a	n/a	-999	19	[2, 4, 7]	13	FR1	1	R1174T
2968.607	6.501	2974581	PROB	6.501	n/a	n/a	-999	19	[2, 7, 7]	16	FR1	1	R1174T
2975.108	0.018	2981082	STOP	n/a	n/a	n/a	-999	19	[-999, -999, -999]	n/a	FR1	1	R1174T
2975.126	0.582	2981100	DISTRACT_END	n/a	n/a	n/a	-999	19	[0, 0, 0]	n/a	FR1	1	R1174T
2975.708	0.521	2981682	RETRIEVAL_ORIENT	n/a	n/a	n/a	-999	19	[0, 0, 0]	n/a	FR1	1	R1174T
2976.229	11.958	2982203	REC_START	n/a	n/a	n/a	-999	19	[0, 0, 0]	n/a	FR1	1	R1174T
2988.187	1.431	2994160	REC_WORD	1.431	n/a	SEAT	-999	19	[0, 0, 0]	n/a	FR1	1	R1174T
2989.618	11.349	2995591	REC_WORD	11.349	n/a	CUP	-999	19	[0, 0, 0]	n/a	FR1	1	R1174T
3000.967	5.269	3006939	REC_WORD	5.269	n/a	SQUARE	-999	19	[0, 0, 0]	n/a	FR1	1	R1174T
3006.236	6.612	3012208	REC_END	n/a	n/a	n/a	-999	19	[0, 0, 0]	n/a	FR1	1	R1174T
3012.848	0.5	3018820	TRIAL	n/a	n/a	n/a	-999	20	[0, 0, 0]	n/a	FR1	1	R1174T
3013.348	10.428	3019320	COUNTDOWN_START	n/a	n/a	n/a	-999	20	[0, 0, 0]	n/a	FR1	1	R1174T
3023.776	0.008	3029747	COUNTDOWN_END	n/a	n/a	n/a	-999	20	[0, 0, 0]	n/a	FR1	1	R1174T
3023.784	1.617	3029755	ORIENT	n/a	n/a	n/a	-999	20	[0, 0, 0]	n/a	FR1	1	R1174T
3025.401	1.851	3031372	ORIENT_OFF	n/a	n/a	n/a	-999	20	[0, 0, 0]	n/a	FR1	1	R1174T
3027.252	1.616	3033223	WORD	n/a	wordpools/wordpool_EN.txt	SOCK	1	20	[0, 0, 0]	n/a	FR1	1	R1174T
3028.868	0.85	3034839	WORD_OFF	n/a	n/a	SOCK	1	20	[0, 0, 0]	n/a	FR1	1	R1174T
3029.718	1.601	3035689	WORD	n/a	wordpools/wordpool_EN.txt	BOARD	2	20	[0, 0, 0]	n/a	FR1	1	R1174T
3031.319	0.8	3037290	WORD_OFF	n/a	n/a	BOARD	2	20	[0, 0, 0]	n/a	FR1	1	R1174T
3032.119	1.616	3038090	WORD	n/a	wordpools/wordpool_EN.txt	TRAIN	3	20	[0, 0, 0]	n/a	FR1	1	R1174T
3033.735	0.867	3039705	WORD_OFF	n/a	n/a	TRAIN	3	20	[0, 0, 0]	n/a	FR1	1	R1174T
3034.602	1.601	3040572	WORD	n/a	wordpools/wordpool_EN.txt	TOAST	4	20	[0, 0, 0]	n/a	FR1	1	R1174T
3036.203	0.816	3042173	WORD_OFF	n/a	n/a	TOAST	4	20	[0, 0, 0]	n/a	FR1	1	R1174T
3037.019	1.617	3042989	WORD	n/a	wordpools/wordpool_EN.txt	JET	5	20	[0, 0, 0]	n/a	FR1	1	R1174T
3038.636	0.9	3044606	WORD_OFF	n/a	n/a	JET	5	20	[0, 0, 0]	n/a	FR1	1	R1174T
3039.536	1.601	3045506	WORD	n/a	wordpools/wordpool_EN.txt	HOOK	6	20	[0, 0, 0]	n/a	FR1	1	R1174T
3041.137	0.816	3047107	WORD_OFF	n/a	n/a	HOOK	6	20	[0, 0, 0]	n/a	FR1	1	R1174T
3041.953	1.618	3047923	WORD	n/a	wordpools/wordpool_EN.txt	FORK	7	20	[0, 0, 0]	n/a	FR1	1	R1174T
3043.571	0.8	3049541	WORD_OFF	n/a	n/a	FORK	7	20	[0, 0, 0]	n/a	FR1	1	R1174T
3044.371	1.617	3050341	WORD	n/a	wordpools/wordpool_EN.txt	SUIT	8	20	[0, 0, 0]	n/a	FR1	1	R1174T
3045.988	0.883	3051958	WORD_OFF	n/a	n/a	SUIT	8	20	[0, 0, 0]	n/a	FR1	1	R1174T
3046.871	1.617	3052841	WORD	n/a	wordpools/wordpool_EN.txt	ARK	9	20	[0, 0, 0]	n/a	FR1	1	R1174T
3048.488	0.785	3054458	WORD_OFF	n/a	n/a	ARK	9	20	[0, 0, 0]	n/a	FR1	1	R1174T
3049.273	1.615	3055243	WORD	n/a	wordpools/wordpool_EN.txt	RUG	10	20	[0, 0, 0]	n/a	FR1	1	R1174T
3050.888	0.967	3056857	WORD_OFF	n/a	n/a	RUG	10	20	[0, 0, 0]	n/a	FR1	1	R1174T
3051.855	1.617	3057824	WORD	n/a	wordpools/wordpool_EN.txt	LOCK	11	20	[0, 0, 0]	n/a	FR1	1	R1174T
3053.472	0.851	3059441	WORD_OFF	n/a	n/a	LOCK	11	20	[0, 0, 0]	n/a	FR1	1	R1174T
3054.323	1.616	3060292	WORD	n/a	wordpools/wordpool_EN.txt	PEAR	12	20	[0, 0, 0]	n/a	FR1	1	R1174T
3055.939	0.0	3061908	WORD_OFF	n/a	n/a	PEAR	12	20	[0, 0, 0]	n/a	FR1	1	R1174T
3055.939	0.001	3061908	DISTRACT_START	n/a	n/a	n/a	-999	20	[0, 0, 0]	n/a	FR1	1	R1174T
3055.94	0.016	3061909	START	n/a	n/a	n/a	-999	20	[-999, -999, -999]	n/a	FR1	1	R1174T
3055.956	5.968	3061925	PROB	5.968	n/a	n/a	-999	20	[2, 5, 1]	8	FR1	1	R1174T
3061.924	13.536	3067893	PROB	13.536	n/a	n/a	-999	20	[4, 7, 4]	15	FR1	1	R1174T
3075.46	6.544	3081428	PROB	6.544	n/a	n/a	-999	20	[5, 3, 2]	10	FR1	1	R1174T
3082.004	0.007	3087972	STOP	n/a	n/a	n/a	-999	20	[-999, -999, -999]	n/a	FR1	1	R1174T
3082.011	0.683	3087979	DISTRACT_END	n/a	n/a	n/a	-999	20	[0, 0, 0]	n/a	FR1	1	R1174T
3082.694	0.519	3088662	RETRIEVAL_ORIENT	n/a	n/a	n/a	-999	20	[0, 0, 0]	n/a	FR1	1	R1174T
3083.213	3.71	3089181	REC_START	n/a	n/a	n/a	-999	20	[0, 0, 0]	n/a	FR1	1	R1174T
3086.923	1.002	3092890	REC_WORD	1.002	n/a	SOCK	-999	20	[0, 0, 0]	n/a	FR1	1	R1174T
3087.925	2.842	3093892	REC_WORD	2.842	n/a	SUIT	-999	20	[0, 0, 0]	n/a	FR1	1	R1174T
3090.767	7.759	3096734	REC_WORD	7.759	n/a	JET	-999	20	[0, 0, 0]	n/a	FR1	1	R1174T
3098.526	14.698	3104493	REC_WORD	14.698	n/a	BOARD	-999	20	[0, 0, 0]	n/a	FR1	1	R1174T
3113.224	5.444	3119190	REC_END	n/a	n/a	n/a	-999	20	[0, 0, 0]	n/a	FR1	1	R1174T
3118.668	0.5	3124633	TRIAL	n/a	n/a	n/a	-999	21	[0, 0, 0]	n/a	FR1	1	R1174T
3119.168	10.428	3125133	COUNTDOWN_START	n/a	n/a	n/a	-999	21	[0, 0, 0]	n/a	FR1	1	R1174T
3129.596	0.007	3135561	COUNTDOWN_END	n/a	n/a	n/a	-999	21	[0, 0, 0]	n/a	FR1	1	R1174T
3129.603	1.618	3135568	ORIENT	n/a	n/a	n/a	-999	21	[0, 0, 0]	n/a	FR1	1	R1174T
3131.221	2.0	3137186	ORIENT_OFF	n/a	n/a	n/a	-999	21	[0, 0, 0]	n/a	FR1	1	R1174T
3133.221	1.616	3139186	WORD	n/a	wordpools/wordpool_EN.txt	ARM	1	21	[0, 0, 0]	n/a	FR1	1	R1174T
3134.837	0.85	3140801	WORD_OFF	n/a	n/a	ARM	1	21	[0, 0, 0]	n/a	FR1	1	R1174T
3135.687	1.618	3141651	WORD	n/a	wordpools/wordpool_EN.txt	PLATE	2	21	[0, 0, 0]	n/a	FR1	1	R1174T
3137.305	0.9	3143269	WORD_OFF	n/a	n/a	PLATE	2	21	[0, 0, 0]	n/a	FR1	1	R1174T
3138.205	1.616	3144169	WORD	n/a	wordpools/wordpool_EN.txt	PALM	3	21	[0, 0, 0]	n/a	FR1	1	R1174T
3139.821	0.984	3145785	WORD_OFF	n/a	n/a	PALM	3	21	[0, 0, 0]	n/a	FR1	1	R1174T
3140.805	1.617	3146769	WORD	n/a	wordpools/wordpool_EN.txt	SINK	4	21	[0, 0, 0]	n/a	FR1	1	R1174T
3142.422	0.868	3148386	WORD_OFF	n/a	n/a	SINK	4	21	[0, 0, 0]	n/a	FR1	1	R1174T
3143.29	1.616	3149254	WORD	n/a	wordpools/wordpool_EN.txt	BOWL	5	21	[0, 0, 0]	n/a	FR1	1	R1174T
3144.906	1.0	3150870	WORD_OFF	n/a	n/a	BOWL	5	21	[0, 0, 0]	n/a	FR1	1	R1174T
3145.906	1.617	3151870	WORD	n/a	wordpools/wordpool_EN.txt	PIT	6	21	[0, 0, 0]	n/a	FR1	1	R1174T
3147.523	0.95	3153487	WORD_OFF	n/a	n/a	PIT	6	21	[0, 0, 0]	n/a	FR1	1	R1174T
3148.473	1.618	3154437	WORD	n/a	wordpools/wordpool_EN.txt	VINE	7	21	[0, 0, 0]	n/a	FR1	1	R1174T
3150.091	0.882	3156055	WORD_OFF	n/a	n/a	VINE	7	21	[0, 0, 0]	n/a	FR1	1	R1174T
3150.973	1.617	3156937	WORD	n/a	wordpools/wordpool_EN.txt	ROOF	8	21	[0, 0, 0]	n/a	FR1	1	R1174T
3152.59	0.9	3158553	WORD_OFF	n/a	n/a	ROOF	8	21	[0, 0, 0]	n/a	FR1	1	R1174T
3153.49	1.618	3159453	WORD	n/a	wordpools/wordpool_EN.txt	WHALE	9	21	[0, 0, 0]	n/a	FR1	1	R1174T
3155.108	0.9	3161071	WORD_OFF	n/a	n/a	WHALE	9	21	[0, 0, 0]	n/a	FR1	1	R1174T
3156.008	1.617	3161971	WORD	n/a	wordpools/wordpool_EN.txt	NET	10	21	[0, 0, 0]	n/a	FR1	1	R1174T
3157.625	0.766	3163588	WORD_OFF	n/a	n/a	NET	10	21	[0, 0, 0]	n/a	FR1	1	R1174T
3158.391	1.617	3164354	WORD	n/a	wordpools/wordpool_EN.txt	FACE	11	21	[0, 0, 0]	n/a	FR1	1	R1174T
3160.008	0.884	3165971	WORD_OFF	n/a	n/a	FACE	11	21	[0, 0, 0]	n/a	FR1	1	R1174T
3160.892	1.617	3166855	WORD	n/a	wordpools/wordpool_EN.txt	BAT	12	21	[0, 0, 0]	n/a	FR1	1	R1174T
3162.509	0.0	3168472	WORD_OFF	n/a	n/a	BAT	12	21	[0, 0, 0]	n/a	FR1	1	R1174T
3162.509	0.0	3168472	DISTRACT_START	n/a	n/a	n/a	-999	21	[0, 0, 0]	n/a	FR1	1	R1174T
3162.509	0.016	3168472	START	n/a	n/a	n/a	-999	21	[-999, -999, -999]	n/a	FR1	1	R1174T
3162.525	7.435	3168488	PROB	7.435	n/a	n/a	-999	21	[7, 2, 7]	16	FR1	1	R1174T
3169.96	6.785	3175922	PROB	6.785	n/a	n/a	-999	21	[3, 6, 6]	15	FR1	1	R1174T
3176.745	6.291	3182707	PROB	6.291	n/a	n/a	-999	21	[7, 3, 2]	12	FR1	1	R1174T
3183.036	0.01	3188998	STOP	n/a	n/a	n/a	-999	21	[-999, -999, -999]	n/a	FR1	1	R1174T
3183.046	0.633	3189008	DISTRACT_END	n/a	n/a	n/a	-999	21	[0, 0, 0]	n/a	FR1	1	R1174T
3183.679	0.519	3189641	RETRIEVAL_ORIENT	n/a	n/a	n/a	-999	21	[0, 0, 0]	n/a	FR1	1	R1174T
3184.198	4.559	3190160	REC_START	n/a	n/a	n/a	-999	21	[0, 0, 0]	n/a	FR1	1	R1174T
3188.757	0.729	3194718	REC_WORD	0.729	n/a	WHALE	-999	21	[0, 0, 0]	n/a	FR1	1	R1174T
3189.486	2.367	3195447	REC_WORD	2.367	n/a	FACE	-999	21	[0, 0, 0]	n/a	FR1	1	R1174T
3191.853	6.363	3197814	REC_WORD	6.363	n/a	SINK	-999	21	[0, 0, 0]	n/a	FR1	1	R1174T
3198.216	15.993	3204177	REC_WORD	15.993	n/a	ROOF	-999	21	[0, 0, 0]	n/a	FR1	1	R1174T
3214.209	6.56	3220169	REC_END	n/a	n/a	n/a	-999	21	[0, 0, 0]	n/a	FR1	1	R1174T
3220.769	0.5	3226728	TRIAL	n/a	n/a	n/a	-999	22	[0, 0, 0]	n/a	FR1	1	R1174T
3221.269	10.428	3227228	COUNTDOWN_START	n/a	n/a	n/a	-999	22	[0, 0, 0]	n/a	FR1	1	R1174T
3231.697	0.008	3237656	COUNTDOWN_END	n/a	n/a	n/a	-999	22	[0, 0, 0]	n/a	FR1	1	R1174T
3231.705	1.618	3237664	ORIENT	n/a	n/a	n/a	-999	22	[0, 0, 0]	n/a	FR1	1	R1174T
3233.323	2.349	3239282	ORIENT_OFF	n/a	n/a	n/a	-999	22	[0, 0, 0]	n/a	FR1	1	R1174T
3235.672	1.618	3241631	WORD	n/a	wordpools/wordpool_EN.txt	MILK	1	22	[0, 0, 0]	n/a	FR1	1	R1174T
3237.29	0.883	3243248	WORD_OFF	n/a	n/a	MILK	1	22	[0, 0, 0]	n/a	FR1	1	R1174T
3238.173	1.617	3244131	WORD	n/a	wordpools/wordpool_EN.txt	WAND	2	22	[0, 0, 0]	n/a	FR1	1	R1174T
3239.79	0.933	3245748	WORD_OFF	n/a	n/a	WAND	2	22	[0, 0, 0]	n/a	FR1	1	R1174T
3240.723	1.617	3246681	WORD	n/a	wordpools/wordpool_EN.txt	ROOT	3	22	[0, 0, 0]	n/a	FR1	1	R1174T
3242.34	1.0	3248298	WORD_OFF	n/a	n/a	ROOT	3	22	[0, 0, 0]	n/a	FR1	1	R1174T
3243.34	1.617	3249298	WORD	n/a	wordpools/wordpool_EN.txt	BRANCH	4	22	[0, 0, 0]	n/a	FR1	1	R1174T
3244.957	0.884	3250915	WORD_OFF	n/a	n/a	BRANCH	4	22	[0, 0, 0]	n/a	FR1	1	R1174T
3245.841	1.617	3251799	WORD	n/a	wordpools/wordpool_EN.txt	ANT	5	22	[0, 0, 0]	n/a	FR1	1	R1174T
3247.458	0.867	3253416	WORD_OFF	n/a	n/a	ANT	5	22	[0, 0, 0]	n/a	FR1	1	R1174T
3248.325	1.616	3254283	WORD	n/a	wordpools/wordpool_EN.txt	COW	6	22	[0, 0, 0]	n/a	FR1	1	R1174T
3249.941	0.817	3255899	WORD_OFF	n/a	n/a	COW	6	22	[0, 0, 0]	n/a	FR1	1	R1174T
3250.758	1.617	3256716	WORD	n/a	wordpools/wordpool_EN.txt	POND	7	22	[0, 0, 0]	n/a	FR1	1	R1174T
3252.375	0.951	3258333	WORD_OFF	n/a	n/a	POND	7	22	[0, 0, 0]	n/a	FR1	1	R1174T
3253.326	1.616	3259284	WORD	n/a	wordpools/wordpool_EN.txt	CHIEF	8	22	[0, 0, 0]	n/a	FR1	1	R1174T
3254.942	0.817	3260899	WORD_OFF	n/a	n/a	CHIEF	8	22	[0, 0, 0]	n/a	FR1	1	R1174T
3255.759	1.617	3261716	WORD	n/a	wordpools/wordpool_EN.txt	SHEEP	9	22	[0, 0, 0]	n/a	FR1	1	R1174T
3257.376	0.851	3263333	WORD_OFF	n/a	n/a	SHEEP	9	22	[0, 0, 0]	n/a	FR1	1	R1174T
3258.227	1.616	3264184	WORD	n/a	wordpools/wordpool_EN.txt	NEST	10	22	[0, 0, 0]	n/a	FR1	1	R1174T
3259.843	0.934	3265800	WORD_OFF	n/a	n/a	NEST	10	22	[0, 0, 0]	n/a	FR1	1	R1174T
3260.777	1.617	3266734	WORD	n/a	wordpools/wordpool_EN.txt	LEAF	11	22	[0, 0, 0]	n/a	FR1	1	R1174T
3262.394	0.933	3268351	WORD_OFF	n/a	n/a	LEAF	11	22	[0, 0, 0]	n/a	FR1	1	R1174T
3263.327	1.617	3269284	WORD	n/a	wordpools/wordpool_EN.txt	SPEAR	12	22	[0, 0, 0]	n/a	FR1	1	R1174T
3264.944	0.0	3270901	DISTRACT_START	n/a	n/a	n/a	-999	22	[0, 0, 0]	n/a	FR1	1	R1174T
3264.944	0.001	3270901	WORD_OFF	n/a	n/a	SPEAR	12	22	[0, 0, 0]	n/a	FR1	1	R1174T
3264.945	0.016	3270902	START	n/a	n/a	n/a	-999	22	[-999, -999, -999]	n/a	FR1	1	R1174T
3264.961	5.984	3270918	PROB	5.984	n/a	n/a	-999	22	[4, 9, 1]	14	FR1	1	R1174T
3270.945	7.068	3276901	PROB	7.068	n/a	n/a	-999	22	[3, 9, 5]	17	FR1	1	R1174T
3278.013	6.102	3283969	PROB	6.102	n/a	n/a	-999	22	[7, 3, 2]	12	FR1	1	R1174T
3284.115	8.041	3290071	PROB	8.041	n/a	n/a	-999	22	[6, 1, 3]	10	FR1	1	R1174T
3292.156	0.011	3298111	STOP	n/a	n/a	n/a	-999	22	[-999, -999, -999]	n/a	FR1	1	R1174T
3292.167	0.532	3298122	DISTRACT_END	n/a	n/a	n/a	-999	22	[0, 0, 0]	n/a	FR1	1	R1174T
3292.699	0.519	3298654	RETRIEVAL_ORIENT	n/a	n/a	n/a	-999	22	[0, 0, 0]	n/a	FR1	1	R1174T
3293.218	2.17	3299173	REC_START	n/a	n/a	n/a	-999	22	[0, 0, 0]	n/a	FR1	1	R1174T
3295.388	0.813	3301343	REC_WORD	0.813	n/a	MILK	-999	22	[0, 0, 0]	n/a	FR1	1	R1174T
3296.201	0.875	3302156	REC_WORD	0.875	n/a	COW	-999	22	[0, 0, 0]	n/a	FR1	1	R1174T
3297.076	3.119	3303031	REC_WORD	3.119	n/a	ANT	-999	22	[0, 0, 0]	n/a	FR1	1	R1174T
3300.195	23.031	3306150	REC_WORD	23.031	n/a	SHEEP	-999	22	[0, 0, 0]	n/a	FR1	1	R1174T
3323.226	5.696	3329179	REC_END	n/a	n/a	n/a	-999	22	[0, 0, 0]	n/a	FR1	1	R1174T
3328.922	0.5	3334875	TRIAL	n/a	n/a	n/a	-999	23	[0, 0, 0]	n/a	FR1	1	R1174T
3329.422	10.428	3335375	COUNTDOWN_START	n/a	n/a	n/a	-999	23	[0, 0, 0]	n/a	FR1	1	R1174T
3339.85	0.008	3345802	COUNTDOWN_END	n/a	n/a	n/a	-999	23	[0, 0, 0]	n/a	FR1	1	R1174T
3339.858	1.617	3345810	ORIENT	n/a	n/a	n/a	-999	23	[0, 0, 0]	n/a	FR1	1	R1174T
3341.475	2.217	3347427	ORIENT_OFF	n/a	n/a	n/a	-999	23	[0, 0, 0]	n/a	FR1	1	R1174T
3343.692	1.618	3349644	WORD	n/a	wordpools/wordpool_EN.txt	DITCH	1	23	[0, 0, 0]	n/a	FR1	1	R1174T
3345.31	0.966	3351262	WORD_OFF	n/a	n/a	DITCH	1	23	[0, 0, 0]	n/a	FR1	1	R1174T
3346.276	1.616	3352228	WORD	n/a	wordpools/wordpool_EN.txt	GRASS	2	23	[0, 0, 0]	n/a	FR1	1	R1174T
3347.892	1.001	3353844	WORD_OFF	n/a	n/a	GRASS	2	23	[0, 0, 0]	n/a	FR1	1	R1174T
3348.893	1.617	3354845	WORD	n/a	wordpools/wordpool_EN.txt	SHIP	3	23	[0, 0, 0]	n/a	FR1	1	R1174T
3350.51	0.983	3356462	WORD_OFF	n/a	n/a	SHIP	3	23	[0, 0, 0]	n/a	FR1	1	R1174T
3351.493	1.618	3357445	WORD	n/a	wordpools/wordpool_EN.txt	SHARK	4	23	[0, 0, 0]	n/a	FR1	1	R1174T
3353.111	0.783	3359063	WORD_OFF	n/a	n/a	SHARK	4	23	[0, 0, 0]	n/a	FR1	1	R1174T
3353.894	1.616	3359846	WORD	n/a	wordpools/wordpool_EN.txt	CLIFF	5	23	[0, 0, 0]	n/a	FR1	1	R1174T
3355.51	0.834	3361462	WORD_OFF	n/a	n/a	CLIFF	5	23	[0, 0, 0]	n/a	FR1	1	R1174T
3356.344	1.617	3362295	WORD	n/a	wordpools/wordpool_EN.txt	RAKE	6	23	[0, 0, 0]	n/a	FR1	1	R1174T
3357.961	0.867	3363912	WORD_OFF	n/a	n/a	RAKE	6	23	[0, 0, 0]	n/a	FR1	1	R1174T
3358.828	1.617	3364779	WORD	n/a	wordpools/wordpool_EN.txt	MULE	7	23	[0, 0, 0]	n/a	FR1	1	R1174T
3360.445	0.933	3366396	WORD_OFF	n/a	n/a	MULE	7	23	[0, 0, 0]	n/a	FR1	1	R1174T
3361.378	1.617	3367329	WORD	n/a	wordpools/wordpool_EN.txt	STORM	8	23	[0, 0, 0]	n/a	FR1	1	R1174T
3362.995	0.867	3368946	WORD_OFF	n/a	n/a	STORM	8	23	[0, 0, 0]	n/a	FR1	1	R1174T
3363.862	1.617	3369813	WORD	n/a	wordpools/wordpool_EN.txt	CAPE	9	23	[0, 0, 0]	n/a	FR1	1	R1174T
3365.479	0.784	3371430	WORD_OFF	n/a	n/a	CAPE	9	23	[0, 0, 0]	n/a	FR1	1	R1174T
3366.263	1.616	3372214	WORD	n/a	wordpools/wordpool_EN.txt	CRANE	10	23	[0, 0, 0]	n/a	FR1	1	R1174T
3367.879	0.801	3373830	WORD_OFF	n/a	n/a	CRANE	10	23	[0, 0, 0]	n/a	FR1	1	R1174T
3368.68	1.618	3374631	WORD	n/a	wordpools/wordpool_EN.txt	HOUSE	11	23	[0, 0, 0]	n/a	FR1	1	R1174T
3370.298	0.9	3376249	WORD_OFF	n/a	n/a	HOUSE	11	23	[0, 0, 0]	n/a	FR1	1	R1174T
3371.198	1.616	3377149	WORD	n/a	wordpools/wordpool_EN.txt	LAWN	12	23	[0, 0, 0]	n/a	FR1	1	R1174T
3372.814	0.0	3378764	WORD_OFF	n/a	n/a	LAWN	12	23	[0, 0, 0]	n/a	FR1	1	R1174T
3372.814	0.0	3378764	DISTRACT_START	n/a	n/a	n/a	-999	23	[0, 0, 0]	n/a	FR1	1	R1174T
3372.814	0.016	3378764	START	n/a	n/a	n/a	-999	23	[-999, -999, -999]	n/a	FR1	1	R1174T
3372.83	6.035	3378780	PROB	6.035	n/a	n/a	-999	23	[1, 5, 7]	13	FR1	1	R1174T
3378.865	9.252	3384815	PROB	9.252	n/a	n/a	-999	23	[4, 5, 7]	16	FR1	1	R1174T
3388.117	3.051	3394067	PROB	3.051	n/a	n/a	-999	23	[1, 9, 4]	14	FR1	1	R1174T
3391.168	3.892	3397117	PROB	3.892	n/a	n/a	-999	23	[4, 5, 2]	11	FR1	1	R1174T
3395.06	0.009	3401009	STOP	n/a	n/a	n/a	-999	23	[-999, -999, -999]	n/a	FR1	1	R1174T
3395.069	0.565	3401018	DISTRACT_END	n/a	n/a	n/a	-999	23	[0, 0, 0]	n/a	FR1	1	R1174T
3395.634	0.519	3401583	RETRIEVAL_ORIENT	n/a	n/a	n/a	-999	23	[0, 0, 0]	n/a	FR1	1	R1174T
3396.153	30.0	3402102	REC_START	n/a	n/a	n/a	-999	23	[0, 0, 0]	n/a	FR1	1	R1174T
3426.153	0.009	3432100	REC_WORD_VV	0.009	n/a	<>	-999	23	[0, 0, 0]	n/a	FR1	1	R1174T
3426.162	14.764	3432109	REC_END	n/a	n/a	n/a	-999	23	[0, 0, 0]	n/a	FR1	1	R1174T
3440.926	0.5	3446872	TRIAL	n/a	n/a	n/a	-999	24	[0, 0, 0]	n/a	FR1	1	R1174T
3441.426	10.428	3447372	COUNTDOWN_START	n/a	n/a	n/a	-999	24	[0, 0, 0]	n/a	FR1	1	R1174T
3451.854	0.007	3457800	COUNTDOWN_END	n/a	n/a	n/a	-999	24	[0, 0, 0]	n/a	FR1	1	R1174T
3451.861	1.617	3457807	ORIENT	n/a	n/a	n/a	-999	24	[0, 0, 0]	n/a	FR1	1	R1174T
3453.478	2.217	3459424	ORIENT_OFF	n/a	n/a	n/a	-999	24	[0, 0, 0]	n/a	FR1	1	R1174T
3455.695	1.618	3461641	WORD	n/a	wordpools/wordpool_EN.txt	ROOM	1	24	[0, 0, 0]	n/a	FR1	1	R1174T
3457.313	0.934	3463259	WORD_OFF	n/a	n/a	ROOM	1	24	[0, 0, 0]	n/a	FR1	1	R1174T
3458.247	1.616	3464192	WORD	n/a	wordpools/wordpool_EN.txt	BAG	2	24	[0, 0, 0]	n/a	FR1	1	R1174T
3459.863	0.983	3465808	WORD_OFF	n/a	n/a	BAG	2	24	[0, 0, 0]	n/a	FR1	1	R1174T
3460.846	1.617	3466791	WORD	n/a	wordpools/wordpool_EN.txt	RIB	3	24	[0, 0, 0]	n/a	FR1	1	R1174T
3462.463	0.934	3468408	WORD_OFF	n/a	n/a	RIB	3	24	[0, 0, 0]	n/a	FR1	1	R1174T
3463.397	1.617	3469342	WORD	n/a	wordpools/wordpool_EN.txt	BRICK	4	24	[0, 0, 0]	n/a	FR1	1	R1174T
3465.014	0.883	3470959	WORD_OFF	n/a	n/a	BRICK	4	24	[0, 0, 0]	n/a	FR1	1	R1174T
3465.897	1.617	3471842	WORD	n/a	wordpools/wordpool_EN.txt	PIE	5	24	[0, 0, 0]	n/a	FR1	1	R1174T
3467.514	1.0	3473459	WORD_OFF	n/a	n/a	PIE	5	24	[0, 0, 0]	n/a	FR1	1	R1174T
3468.514	1.618	3474459	WORD	n/a	wordpools/wordpool_EN.txt	FOOT	6	24	[0, 0, 0]	n/a	FR1	1	R1174T
3470.132	0.899	3476077	WORD_OFF	n/a	n/a	FOOT	6	24	[0, 0, 0]	n/a	FR1	1	R1174T
3471.031	1.617	3476976	WORD	n/a	wordpools/wordpool_EN.txt	AXE	7	24	[0, 0, 0]	n/a	FR1	1	R1174T
3472.648	0.951	3478593	WORD_OFF	n/a	n/a	AXE	7	24	[0, 0, 0]	n/a	FR1	1	R1174T
3473.599	1.618	3479544	WORD	n/a	wordpools/wordpool_EN.txt	SPOON	8	24	[0, 0, 0]	n/a	FR1	1	R1174T
3475.217	1.0	3481161	WORD_OFF	n/a	n/a	SPOON	8	24	[0, 0, 0]	n/a	FR1	1	R1174T
3476.217	1.616	3482161	WORD	n/a	wordpools/wordpool_EN.txt	MUG	9	24	[0, 0, 0]	n/a	FR1	1	R1174T
3477.833	0.866	3483777	WORD_OFF	n/a	n/a	MUG	9	24	[0, 0, 0]	n/a	FR1	1	R1174T
3478.699	1.618	3484643	WORD	n/a	wordpools/wordpool_EN.txt	STAIR	10	24	[0, 0, 0]	n/a	FR1	1	R1174T
3480.317	0.917	3486261	WORD_OFF	n/a	n/a	STAIR	10	24	[0, 0, 0]	n/a	FR1	1	R1174T
3481.234	1.616	3487178	WORD	n/a	wordpools/wordpool_EN.txt	WOOD	11	24	[0, 0, 0]	n/a	FR1	1	R1174T
3482.85	0.801	3488794	WORD_OFF	n/a	n/a	WOOD	11	24	[0, 0, 0]	n/a	FR1	1	R1174T
3483.651	1.617	3489595	WORD	n/a	wordpools/wordpool_EN.txt	TRAY	12	24	[0, 0, 0]	n/a	FR1	1	R1174T
3485.268	0.0	3491212	WORD_OFF	n/a	n/a	TRAY	12	24	[0, 0, 0]	n/a	FR1	1	R1174T
3485.268	0.001	3491212	DISTRACT_START	n/a	n/a	n/a	-999	24	[0, 0, 0]	n/a	FR1	1	R1174T
3485.269	0.016	3491213	START	n/a	n/a	n/a	-999	24	[-999, -999, -999]	n/a	FR1	1	R1174T
3485.285	3.867	3491229	PROB	3.867	n/a	n/a	-999	24	[3, 3, 1]	7	FR1	1	R1174T
3489.152	6.001	3495096	PROB	6.001	n/a	n/a	-999	24	[6, 9, 4]	18	FR1	1	R1174T
3495.153	10.577	3501096	PROB	10.577	n/a	n/a	-999	24	[9, 6, 6]	21	FR1	1	R1174T
3505.73	0.008	3511673	STOP	n/a	n/a	n/a	-999	24	[-999, -999, -999]	n/a	FR1	1	R1174T
3505.738	0.633	3511681	DISTRACT_END	n/a	n/a	n/a	-999	24	[0, 0, 0]	n/a	FR1	1	R1174T
3506.371	0.518	3512314	RETRIEVAL_ORIENT	n/a	n/a	n/a	-999	24	[0, 0, 0]	n/a	FR1	1	R1174T
3506.889	3.48	3512832	REC_START	n/a	n/a	n/a	-999	24	[0, 0, 0]	n/a	FR1	1	R1174T
3510.369	1.481	3516311	REC_WORD	1.481	n/a	STAIR	-999	24	[0, 0, 0]	n/a	FR1	1	R1174T
3511.85	5.272	3517792	REC_WORD	5.272	n/a	TRAY	-999	24	[0, 0, 0]	n/a	FR1	1	R1174T
3517.122	0.812	3523064	REC_WORD	0.812	n/a	BOARD	-999	24	[0, 0, 0]	n/a	FR1	1	R1174T
3517.934	8.621	3523876	REC_WORD	8.621	n/a	WOOD	-999	24	[0, 0, 0]	n/a	FR1	1	R1174T
3526.555	1.586	3532496	REC_WORD	1.586	n/a	CUP	-999	24	[0, 0, 0]	n/a	FR1	1	R1174T
3528.141	2.258	3534082	REC_WORD	2.258	n/a	MUG	-999	24	[0, 0, 0]	n/a	FR1	1	R1174T
3530.399	6.501	3536340	REC_WORD	6.501	n/a	ROOM	-999	24	[0, 0, 0]	n/a	FR1	1	R1174T
3536.9	8.246	3542841	REC_END	n/a	n/a	n/a	-999	24	[0, 0, 0]	n/a	FR1	1	R1174T
3545.146	0.5	3551086	TRIAL	n/a	n/a	n/a	-999	25	[0, 0, 0]	n/a	FR1	1	R1174T
3545.646	10.428	3551586	COUNTDOWN_START	n/a	n/a	n/a	-999	25	[0, 0, 0]	n/a	FR1	1	R1174T
3556.074	0.007	3562014	COUNTDOWN_END	n/a	n/a	n/a	-999	25	[0, 0, 0]	n/a	FR1	1	R1174T
3556.081	1.616	3562021	ORIENT	n/a	n/a	n/a	-999	25	[0, 0, 0]	n/a	FR1	1	R1174T
3557.697	2.067	3563637	ORIENT_OFF	n/a	n/a	n/a	-999	25	[0, 0, 0]	n/a	FR1	1	R1174T
3559.764	1.617	3565704	WORD	n/a	wordpools/wordpool_EN.txt	BOOK	1	25	[0, 0, 0]	n/a	FR1	1	R1174T
3561.381	0.918	3567320	WORD_OFF	n/a	n/a	BOOK	1	25	[0, 0, 0]	n/a	FR1	1	R1174T
3562.299	1.616	3568238	WORD	n/a	wordpools/wordpool_EN.txt	BANK	2	25	[0, 0, 0]	n/a	FR1	1	R1174T
3563.915	0.9	3569854	WORD_OFF	n/a	n/a	BANK	2	25	[0, 0, 0]	n/a	FR1	1	R1174T
3564.815	1.617	3570754	WORD	n/a	wordpools/wordpool_EN.txt	PHONE	3	25	[0, 0, 0]	n/a	FR1	1	R1174T
3566.432	0.868	3572371	WORD_OFF	n/a	n/a	PHONE	3	25	[0, 0, 0]	n/a	FR1	1	R1174T
3567.3	1.616	3573239	WORD	n/a	wordpools/wordpool_EN.txt	KEY	4	25	[0, 0, 0]	n/a	FR1	1	R1174T
3568.916	0.9	3574855	WORD_OFF	n/a	n/a	KEY	4	25	[0, 0, 0]	n/a	FR1	1	R1174T
3569.816	1.617	3575755	WORD	n/a	wordpools/wordpool_EN.txt	FILM	5	25	[0, 0, 0]	n/a	FR1	1	R1174T
3571.433	0.851	3577372	WORD_OFF	n/a	n/a	FILM	5	25	[0, 0, 0]	n/a	FR1	1	R1174T
3572.284	1.616	3578223	WORD	n/a	wordpools/wordpool_EN.txt	INK	6	25	[0, 0, 0]	n/a	FR1	1	R1174T
3573.9	1.017	3579839	WORD_OFF	n/a	n/a	INK	6	25	[0, 0, 0]	n/a	FR1	1	R1174T
3574.917	1.617	3580856	WORD	n/a	wordpools/wordpool_EN.txt	PEARL	7	25	[0, 0, 0]	n/a	FR1	1	R1174T
3576.534	0.85	3582473	WORD_OFF	n/a	n/a	PEARL	7	25	[0, 0, 0]	n/a	FR1	1	R1174T
3577.384	1.617	3583322	WORD	n/a	wordpools/wordpool_EN.txt	WEED	8	25	[0, 0, 0]	n/a	FR1	1	R1174T
3579.001	0.884	3584939	WORD_OFF	n/a	n/a	WEED	8	25	[0, 0, 0]	n/a	FR1	1	R1174T
3579.885	1.617	3585823	WORD	n/a	wordpools/wordpool_EN.txt	MAIL	9	25	[0, 0, 0]	n/a	FR1	1	R1174T
3581.502	0.801	3587440	WORD_OFF	n/a	n/a	MAIL	9	25	[0, 0, 0]	n/a	FR1	1	R1174T
3582.303	1.616	3588241	WORD	n/a	wordpools/wordpool_EN.txt	SCHOOL	10	25	[0, 0, 0]	n/a	FR1	1	R1174T
3583.919	1.0	3589857	WORD_OFF	n/a	n/a	SCHOOL	10	25	[0, 0, 0]	n/a	FR1	1	R1174T
3584.919	1.617	3590857	WORD	n/a	wordpools/wordpool_EN.txt	CASH	11	25	[0, 0, 0]	n/a	FR1	1	R1174T
3586.536	0.867	3592474	WORD_OFF	n/a	n/a	CASH	11	25	[0, 0, 0]	n/a	FR1	1	R1174T
3587.403	1.617	3593341	WORD	n/a	wordpools/wordpool_EN.txt	JUDGE	12	25	[0, 0, 0]	n/a	FR1	1	R1174T
3589.02	0.0	3594958	WORD_OFF	n/a	n/a	JUDGE	12	25	[0, 0, 0]	n/a	FR1	1	R1174T
3589.02	0.0	3594958	DISTRACT_START	n/a	n/a	n/a	-999	25	[0, 0, 0]	n/a	FR1	1	R1174T
3589.02	0.016	3594958	START	n/a	n/a	n/a	-999	25	[-999, -999, -999]	n/a	FR1	1	R1174T
3589.036	6.102	3594974	PROB	6.102	n/a	n/a	-999	25	[4, 8, 2]	14	FR1	1	R1174T
3595.138	2.8	3601075	PROB	2.8	n/a	n/a	-999	25	[1, 9, 5]	15	FR1	1	R1174T
3597.938	7.851	3603875	PROB	7.851	n/a	n/a	-999	25	[5, 7, 9]	21	FR1	1	R1174T
3605.789	4.287	3611726	PROB	4.287	n/a	n/a	-999	25	[3, 5, 4]	12	FR1	1	R1174T
3610.076	0.015	3616013	STOP	n/a	n/a	n/a	-999	25	[-999, -999, -999]	n/a	FR1	1	R1174T
3610.091	0.599	3616028	DISTRACT_END	n/a	n/a	n/a	-999	25	[0, 0, 0]	n/a	FR1	1	R1174T
3610.69	0.519	3616627	RETRIEVAL_ORIENT	n/a	n/a	n/a	-999	25	[0, 0, 0]	n/a	FR1	1	R1174T
3611.209	2.95	3617145	REC_START	n/a	n/a	n/a	-999	25	[0, 0, 0]	n/a	FR1	1	R1174T
3614.159	1.265	3620095	REC_WORD	1.265	n/a	BOOK	-999	25	[0, 0, 0]	n/a	FR1	1	R1174T
3615.424	1.157	3621360	REC_WORD	1.157	n/a	BANK	-999	25	[0, 0, 0]	n/a	FR1	1	R1174T
3616.581	1.11	3622517	REC_WORD	1.11	n/a	PHONE	-999	25	[0, 0, 0]	n/a	FR1	1	R1174T
3617.691	2.248	3623627	REC_WORD	2.248	n/a	INK	-999	25	[0, 0, 0]	n/a	FR1	1	R1174T
3619.939	21.282	3625875	REC_WORD	21.282	n/a	MONEY	-999	25	[0, 0, 0]	n/a	FR1	1	R1174T
3641.221	0.0	3647156	REC_END	n/a	n/a	n/a	-999	25	[0, 0, 0]	n/a	FR1	1	R1174T
