onset	duration	sample	trial_type	response_time	stim_file	item_name	serialpos	list	test	answer	experiment	session	subject
0.0	166527.208	-1	INSTRUCT_START	n/a	n/a	n/a	-999	-999	[0, 0, 0]	n/a	FR1	2	R1309M
166527.208	177.712	281	INSTRUCT_START	n/a	n/a	n/a	-999	-999	[0, 0, 0]	n/a	FR1	2	R1309M
166704.92	4.451	177985	INSTRUCT_END	n/a	n/a	n/a	-999	-999	[0, 0, 0]	n/a	FR1	2	R1309M
166709.371	15.895	182436	MIC TEST_START	n/a	n/a	n/a	-999	-999	[0, 0, 0]	n/a	FR1	2	R1309M
166725.266	0.012	198330	MIC TEST_END	n/a	n/a	n/a	-999	-999	[0, 0, 0]	n/a	FR1	2	R1309M
166725.278	0.0	198342	TRIAL_START	n/a	n/a	n/a	-999	-1	[0, 0, 0]	n/a	FR1	2	R1309M
166725.278	0.0	198342	TRIAL	n/a	n/a	n/a	-999	-1	[0, 0, 0]	n/a	FR1	2	R1309M
166725.278	4.813	198342	WAITING_START	n/a	n/a	n/a	-999	-1	[0, 0, 0]	n/a	FR1	2	R1309M
166730.091	0.001	203155	WAITING_END	n/a	n/a	n/a	-999	-1	[0, 0, 0]	n/a	FR1	2	R1309M
166730.092	10.43	203156	COUNTDOWN_START	n/a	n/a	n/a	-999	-1	[0, 0, 0]	n/a	FR1	2	R1309M
166740.522	0.0	213585	ORIENT_START	n/a	n/a	n/a	-999	-1	[0, 0, 0]	n/a	FR1	2	R1309M
166740.522	1.138	213585	COUNTDOWN_END	n/a	n/a	n/a	-999	-1	[0, 0, 0]	n/a	FR1	2	R1309M
166741.66	0.001	214723	ORIENT_END	n/a	n/a	n/a	-999	-1	[0, 0, 0]	n/a	FR1	2	R1309M
166741.661	0.929	214724	ENCODING_START	n/a	n/a	n/a	-999	-1	[0, 0, 0]	n/a	FR1	2	R1309M
166742.59	1.638	215653	WORD	n/a	n/a	WATCH	1	-1	[0, 0, 0]	n/a	FR1	2	R1309M
166744.228	1.084	217291	WORD_OFF	n/a	n/a	WATCH	1	-1	[0, 0, 0]	n/a	FR1	2	R1309M
166745.312	1.633	218375	WORD	n/a	n/a	IMAGE	2	-1	[0, 0, 0]	n/a	FR1	2	R1309M
166746.945	0.863	220008	WORD_OFF	n/a	n/a	IMAGE	2	-1	[0, 0, 0]	n/a	FR1	2	R1309M
166747.808	1.638	220871	WORD	n/a	n/a	BABY	3	-1	[0, 0, 0]	n/a	FR1	2	R1309M
166749.446	1.098	222509	WORD_OFF	n/a	n/a	BABY	3	-1	[0, 0, 0]	n/a	FR1	2	R1309M
166750.544	1.635	223607	WORD	n/a	n/a	CAMEL	4	-1	[0, 0, 0]	n/a	FR1	2	R1309M
166752.179	0.773	225242	WORD_OFF	n/a	n/a	CAMEL	4	-1	[0, 0, 0]	n/a	FR1	2	R1309M
166752.952	1.628	226015	WORD	n/a	n/a	FLOOD	5	-1	[0, 0, 0]	n/a	FR1	2	R1309M
166754.58	0.84	227643	WORD_OFF	n/a	n/a	FLOOD	5	-1	[0, 0, 0]	n/a	FR1	2	R1309M
166755.42	1.627	228482	WORD	n/a	n/a	RING	6	-1	[0, 0, 0]	n/a	FR1	2	R1309M
166757.047	0.822	230109	WORD_OFF	n/a	n/a	RING	6	-1	[0, 0, 0]	n/a	FR1	2	R1309M
166757.869	1.629	230931	WORD	n/a	n/a	CHEST	7	-1	[0, 0, 0]	n/a	FR1	2	R1309M
166759.498	1.022	232560	WORD_OFF	n/a	n/a	CHEST	7	-1	[0, 0, 0]	n/a	FR1	2	R1309M
166760.52	1.628	233582	WORD	n/a	n/a	RHINO	8	-1	[0, 0, 0]	n/a	FR1	2	R1309M
166762.148	0.988	235210	WORD_OFF	n/a	n/a	RHINO	8	-1	[0, 0, 0]	n/a	FR1	2	R1309M
166763.136	1.629	236198	WORD	n/a	n/a	BEAM	9	-1	[0, 0, 0]	n/a	FR1	2	R1309M
166764.765	0.869	237827	WORD_OFF	n/a	n/a	BEAM	9	-1	[0, 0, 0]	n/a	FR1	2	R1309M
166765.634	1.631	238696	WORD	n/a	n/a	TONGUE	10	-1	[0, 0, 0]	n/a	FR1	2	R1309M
166767.265	0.984	240327	WORD_OFF	n/a	n/a	TONGUE	10	-1	[0, 0, 0]	n/a	FR1	2	R1309M
166768.249	1.633	241311	WORD	n/a	n/a	WAGON	11	-1	[0, 0, 0]	n/a	FR1	2	R1309M
166769.882	0.818	242944	WORD_OFF	n/a	n/a	WAGON	11	-1	[0, 0, 0]	n/a	FR1	2	R1309M
166770.7	1.633	243762	WORD	n/a	n/a	COTTON	12	-1	[0, 0, 0]	n/a	FR1	2	R1309M
166772.333	0.0	245395	WORD_OFF	n/a	n/a	COTTON	12	-1	[0, 0, 0]	n/a	FR1	2	R1309M
166772.333	0.0	245395	ENCODING_END	n/a	n/a	n/a	-999	-1	[0, 0, 0]	n/a	FR1	2	R1309M
166772.333	0.001	245395	DISTRACT_START	n/a	n/a	n/a	-999	-1	[0, 0, 0]	n/a	FR1	2	R1309M
166772.334	0.015	245396	START	n/a	n/a	n/a	-999	-1	[-999, -999, -999]	n/a	FR1	2	R1309M
166772.349	5.401	245411	PROB	5.401	n/a	n/a	-999	-1	[3, 1, 3]	7	FR1	2	R1309M
166777.75	4.034	250811	PROB	4.034	n/a	n/a	-999	-1	[6, 3, 3]	12	FR1	2	R1309M
166781.784	6.468	254845	PROB	6.468	n/a	n/a	-999	-1	[6, 8, 3]	17	FR1	2	R1309M
166788.252	4.995	261313	PROB	4.995	n/a	n/a	-999	-1	[5, 6, 6]	17	FR1	2	R1309M
166793.247	0.007	266308	STOP	n/a	n/a	n/a	-999	-1	[-999, -999, -999]	n/a	FR1	2	R1309M
166793.254	0.527	266315	DISTRACT_END	n/a	n/a	n/a	-999	-1	[0, 0, 0]	n/a	FR1	2	R1309M
166793.781	1.59	266842	RETRIEVAL_ORIENT_START	n/a	n/a	n/a	-999	-1	[0, 0, 0]	n/a	FR1	2	R1309M
166795.371	0.0	268432	RETRIEVAL_ORIENT_END	n/a	n/a	n/a	-999	-1	[0, 0, 0]	n/a	FR1	2	R1309M
166795.371	0.82	268432	REC_START	n/a	n/a	n/a	-999	-1	[0, 0, 0]	n/a	FR1	2	R1309M
166796.191	1.709	269252	REC_WORD	1.709	n/a	WATCH	1	-1	[0, 0, 0]	n/a	FR1	2	R1309M
166797.9	1.113	270961	REC_WORD	1.113	n/a	BABY	3	-1	[0, 0, 0]	n/a	FR1	2	R1309M
166799.013	2.313	272073	REC_WORD	2.313	n/a	RHINO	8	-1	[0, 0, 0]	n/a	FR1	2	R1309M
166801.326	4.11	274386	REC_WORD	4.11	n/a	IMAGE	2	-1	[0, 0, 0]	n/a	FR1	2	R1309M
166805.436	15.453	278496	REC_WORD_VV	15.453	n/a	<>	-999	-1	[0, 0, 0]	n/a	FR1	2	R1309M
166820.889	4.492	293948	REC_WORD_VV	4.492	n/a	<>	-999	-1	[0, 0, 0]	n/a	FR1	2	R1309M
166825.381	0.0	298440	REC_END	n/a	n/a	n/a	-999	-1	[0, 0, 0]	n/a	FR1	2	R1309M
166825.381	4.714	298440	PRACTICE_POST_INSTRUCT_START	n/a	n/a	n/a	-999	-1	[0, 0, 0]	n/a	FR1	2	R1309M
166830.095	0.0	303154	PRACTICE_POST_INSTRUCT_END	n/a	n/a	n/a	-999	-1	[0, 0, 0]	n/a	FR1	2	R1309M
166830.095	0.018	303154	TRIAL_END	n/a	n/a	n/a	-999	-1	[0, 0, 0]	n/a	FR1	2	R1309M
166830.113	0.0	303172	WAITING_START	n/a	n/a	n/a	-999	1	[0, 0, 0]	n/a	FR1	2	R1309M
166830.113	0.0	303172	TRIAL	n/a	n/a	n/a	-999	1	[0, 0, 0]	n/a	FR1	2	R1309M
166830.113	1.631	303172	TRIAL_START	n/a	n/a	n/a	-999	1	[0, 0, 0]	n/a	FR1	2	R1309M
166831.744	0.001	304803	WAITING_END	n/a	n/a	n/a	-999	1	[0, 0, 0]	n/a	FR1	2	R1309M
166831.745	10.431	304804	COUNTDOWN_START	n/a	n/a	n/a	-999	1	[0, 0, 0]	n/a	FR1	2	R1309M
166842.176	0.0	315234	COUNTDOWN_END	n/a	n/a	n/a	-999	1	[0, 0, 0]	n/a	FR1	2	R1309M
166842.176	1.204	315234	ORIENT_START	n/a	n/a	n/a	-999	1	[0, 0, 0]	n/a	FR1	2	R1309M
166843.38	0.0	316438	ORIENT_END	n/a	n/a	n/a	-999	1	[0, 0, 0]	n/a	FR1	2	R1309M
166843.38	1.088	316438	ENCODING_START	n/a	n/a	n/a	-999	1	[0, 0, 0]	n/a	FR1	2	R1309M
166844.468	1.629	317526	WORD	n/a	n/a	ROAD	1	1	[0, 0, 0]	n/a	FR1	2	R1309M
166846.097	0.82	319155	WORD_OFF	n/a	n/a	ROAD	1	1	[0, 0, 0]	n/a	FR1	2	R1309M
166846.917	1.615	319975	WORD	n/a	n/a	SHRIMP	2	1	[0, 0, 0]	n/a	FR1	2	R1309M
166848.532	1.078	321590	WORD_OFF	n/a	n/a	SHRIMP	2	1	[0, 0, 0]	n/a	FR1	2	R1309M
166849.61	1.621	322668	WORD	n/a	n/a	PEA	3	1	[0, 0, 0]	n/a	FR1	2	R1309M
166851.231	0.793	324289	WORD_OFF	n/a	n/a	PEA	3	1	[0, 0, 0]	n/a	FR1	2	R1309M
166852.024	1.625	325082	WORD	n/a	n/a	FOOT	4	1	[0, 0, 0]	n/a	FR1	2	R1309M
166853.649	0.893	326707	WORD_OFF	n/a	n/a	FOOT	4	1	[0, 0, 0]	n/a	FR1	2	R1309M
166854.542	1.624	327600	WORD	n/a	n/a	TAIL	5	1	[0, 0, 0]	n/a	FR1	2	R1309M
166856.166	1.134	329224	WORD_OFF	n/a	n/a	TAIL	5	1	[0, 0, 0]	n/a	FR1	2	R1309M
166857.3	1.633	330358	WORD	n/a	n/a	RUG	6	1	[0, 0, 0]	n/a	FR1	2	R1309M
166858.933	0.981	331991	WORD_OFF	n/a	n/a	RUG	6	1	[0, 0, 0]	n/a	FR1	2	R1309M
166859.914	1.637	332972	WORD	n/a	n/a	RIB	7	1	[0, 0, 0]	n/a	FR1	2	R1309M
166861.551	1.002	334609	WORD_OFF	n/a	n/a	RIB	7	1	[0, 0, 0]	n/a	FR1	2	R1309M
166862.553	1.631	335611	WORD	n/a	n/a	SEA	8	1	[0, 0, 0]	n/a	FR1	2	R1309M
166864.184	1.041	337241	WORD_OFF	n/a	n/a	SEA	8	1	[0, 0, 0]	n/a	FR1	2	R1309M
166865.225	1.626	338282	WORD	n/a	n/a	BEAN	9	1	[0, 0, 0]	n/a	FR1	2	R1309M
166866.851	1.095	339908	WORD_OFF	n/a	n/a	BEAN	9	1	[0, 0, 0]	n/a	FR1	2	R1309M
166867.946	1.622	341003	WORD	n/a	n/a	BED	10	1	[0, 0, 0]	n/a	FR1	2	R1309M
166869.568	0.779	342625	WORD_OFF	n/a	n/a	BED	10	1	[0, 0, 0]	n/a	FR1	2	R1309M
166870.347	1.622	343404	WORD	n/a	n/a	TRUCK	11	1	[0, 0, 0]	n/a	FR1	2	R1309M
166871.969	1.143	345026	WORD_OFF	n/a	n/a	TRUCK	11	1	[0, 0, 0]	n/a	FR1	2	R1309M
166873.112	1.624	346169	WORD	n/a	n/a	STAIR	12	1	[0, 0, 0]	n/a	FR1	2	R1309M
166874.736	0.001	347793	WORD_OFF	n/a	n/a	STAIR	12	1	[0, 0, 0]	n/a	FR1	2	R1309M
166874.737	0.0	347794	ENCODING_END	n/a	n/a	n/a	-999	1	[0, 0, 0]	n/a	FR1	2	R1309M
166874.737	0.0	347794	DISTRACT_START	n/a	n/a	n/a	-999	1	[0, 0, 0]	n/a	FR1	2	R1309M
166874.737	0.015	347794	START	n/a	n/a	n/a	-999	1	[-999, -999, -999]	n/a	FR1	2	R1309M
166874.752	4.635	347809	PROB	4.635	n/a	n/a	-999	1	[4, 9, 4]	17	FR1	2	R1309M
166879.387	6.102	352444	PROB	6.102	n/a	n/a	-999	1	[4, 4, 2]	8	FR1	2	R1309M
166885.489	7.283	358545	PROB	7.283	n/a	n/a	-999	1	[3, 5, 9]	17	FR1	2	R1309M
166892.772	9.84	365828	PROB	9.84	n/a	n/a	-999	1	[6, 9, 8]	24	FR1	2	R1309M
166902.612	0.013	375668	STOP	n/a	n/a	n/a	-999	1	[-999, -999, -999]	n/a	FR1	2	R1309M
166902.625	0.512	375681	DISTRACT_END	n/a	n/a	n/a	-999	1	[0, 0, 0]	n/a	FR1	2	R1309M
166903.137	1.571	376193	RETRIEVAL_ORIENT_START	n/a	n/a	n/a	-999	1	[0, 0, 0]	n/a	FR1	2	R1309M
166904.708	0.001	377764	RETRIEVAL_ORIENT_END	n/a	n/a	n/a	-999	1	[0, 0, 0]	n/a	FR1	2	R1309M
166904.709	5.248	377765	REC_START	n/a	n/a	n/a	-999	1	[0, 0, 0]	n/a	FR1	2	R1309M
166909.957	3.636	383012	REC_WORD	3.636	n/a	SHRIMP	2	1	[0, 0, 0]	n/a	FR1	2	R1309M
166913.593	0.91	386648	REC_WORD	0.91	n/a	TAIL	5	1	[0, 0, 0]	n/a	FR1	2	R1309M
166914.503	1.07	387558	REC_WORD	1.07	n/a	PEA	3	1	[0, 0, 0]	n/a	FR1	2	R1309M
166915.573	1.422	388628	REC_WORD	1.422	n/a	RUG	6	1	[0, 0, 0]	n/a	FR1	2	R1309M
166916.995	5.518	390050	REC_WORD	5.518	n/a	RENT	-999	1	[0, 0, 0]	n/a	FR1	2	R1309M
166922.513	12.208	395568	REC_WORD	12.208	n/a	BEAN	9	1	[0, 0, 0]	n/a	FR1	2	R1309M
166934.721	0.0	407775	REC_END	n/a	n/a	n/a	-999	1	[0, 0, 0]	n/a	FR1	2	R1309M
166934.721	0.016	407775	TRIAL_END	n/a	n/a	n/a	-999	1	[0, 0, 0]	n/a	FR1	2	R1309M
166934.737	0.0	407791	WAITING_START	n/a	n/a	n/a	-999	2	[0, 0, 0]	n/a	FR1	2	R1309M
166934.737	0.0	407791	TRIAL_START	n/a	n/a	n/a	-999	2	[0, 0, 0]	n/a	FR1	2	R1309M
166934.737	18.197	407791	TRIAL	n/a	n/a	n/a	-999	2	[0, 0, 0]	n/a	FR1	2	R1309M
166952.934	0.001	425987	WAITING_END	n/a	n/a	n/a	-999	2	[0, 0, 0]	n/a	FR1	2	R1309M
166952.935	10.429	425988	COUNTDOWN_START	n/a	n/a	n/a	-999	2	[0, 0, 0]	n/a	FR1	2	R1309M
166963.364	0.0	436417	COUNTDOWN_END	n/a	n/a	n/a	-999	2	[0, 0, 0]	n/a	FR1	2	R1309M
166963.364	1.039	436417	ORIENT_START	n/a	n/a	n/a	-999	2	[0, 0, 0]	n/a	FR1	2	R1309M
166964.403	0.001	437456	ORIENT_END	n/a	n/a	n/a	-999	2	[0, 0, 0]	n/a	FR1	2	R1309M
166964.404	0.953	437457	ENCODING_START	n/a	n/a	n/a	-999	2	[0, 0, 0]	n/a	FR1	2	R1309M
166965.357	1.63	438410	WORD	n/a	n/a	COIN	1	2	[0, 0, 0]	n/a	FR1	2	R1309M
166966.987	1.03	440040	WORD_OFF	n/a	n/a	COIN	1	2	[0, 0, 0]	n/a	FR1	2	R1309M
166968.017	1.604	441070	WORD	n/a	n/a	SAIL	2	2	[0, 0, 0]	n/a	FR1	2	R1309M
166969.621	1.075	442674	WORD_OFF	n/a	n/a	SAIL	2	2	[0, 0, 0]	n/a	FR1	2	R1309M
166970.696	1.625	443748	WORD	n/a	n/a	STONE	3	2	[0, 0, 0]	n/a	FR1	2	R1309M
166972.321	0.775	445373	WORD_OFF	n/a	n/a	STONE	3	2	[0, 0, 0]	n/a	FR1	2	R1309M
166973.096	1.626	446148	WORD	n/a	n/a	FLEA	4	2	[0, 0, 0]	n/a	FR1	2	R1309M
166974.722	1.056	447774	WORD_OFF	n/a	n/a	FLEA	4	2	[0, 0, 0]	n/a	FR1	2	R1309M
166975.778	1.627	448830	WORD	n/a	n/a	WORLD	5	2	[0, 0, 0]	n/a	FR1	2	R1309M
166977.405	1.018	450457	WORD_OFF	n/a	n/a	WORLD	5	2	[0, 0, 0]	n/a	FR1	2	R1309M
166978.423	1.633	451475	WORD	n/a	n/a	ICE	6	2	[0, 0, 0]	n/a	FR1	2	R1309M
166980.056	0.838	453108	WORD_OFF	n/a	n/a	ICE	6	2	[0, 0, 0]	n/a	FR1	2	R1309M
166980.894	1.63	453946	WORD	n/a	n/a	HORSE	7	2	[0, 0, 0]	n/a	FR1	2	R1309M
166982.524	1.136	455576	WORD_OFF	n/a	n/a	HORSE	7	2	[0, 0, 0]	n/a	FR1	2	R1309M
166983.66	1.631	456712	WORD	n/a	n/a	CHAIR	8	2	[0, 0, 0]	n/a	FR1	2	R1309M
166985.291	1.137	458343	WORD_OFF	n/a	n/a	CHAIR	8	2	[0, 0, 0]	n/a	FR1	2	R1309M
166986.428	1.63	459480	WORD	n/a	n/a	DOLL	9	2	[0, 0, 0]	n/a	FR1	2	R1309M
166988.058	1.02	461110	WORD_OFF	n/a	n/a	DOLL	9	2	[0, 0, 0]	n/a	FR1	2	R1309M
166989.078	1.63	462130	WORD	n/a	n/a	FAN	10	2	[0, 0, 0]	n/a	FR1	2	R1309M
166990.708	1.018	463760	WORD_OFF	n/a	n/a	FAN	10	2	[0, 0, 0]	n/a	FR1	2	R1309M
166991.726	1.633	464778	WORD	n/a	n/a	CHIEF	11	2	[0, 0, 0]	n/a	FR1	2	R1309M
166993.359	0.848	466410	WORD_OFF	n/a	n/a	CHIEF	11	2	[0, 0, 0]	n/a	FR1	2	R1309M
166994.207	1.636	467258	WORD	n/a	n/a	STRAW	12	2	[0, 0, 0]	n/a	FR1	2	R1309M
166995.843	0.0	468894	WORD_OFF	n/a	n/a	STRAW	12	2	[0, 0, 0]	n/a	FR1	2	R1309M
166995.843	0.0	468894	ENCODING_END	n/a	n/a	n/a	-999	2	[0, 0, 0]	n/a	FR1	2	R1309M
166995.843	0.001	468894	DISTRACT_START	n/a	n/a	n/a	-999	2	[0, 0, 0]	n/a	FR1	2	R1309M
166995.844	0.015	468895	START	n/a	n/a	n/a	-999	2	[-999, -999, -999]	n/a	FR1	2	R1309M
166995.859	7.385	468910	PROB	7.385	n/a	n/a	-999	2	[5, 6, 6]	17	FR1	2	R1309M
167003.244	3.901	476295	PROB	3.901	n/a	n/a	-999	2	[9, 4, 6]	19	FR1	2	R1309M
167007.145	4.9	480196	PROB	4.9	n/a	n/a	-999	2	[8, 4, 2]	14	FR1	2	R1309M
167012.045	4.328	485096	PROB	4.328	n/a	n/a	-999	2	[2, 9, 1]	12	FR1	2	R1309M
167016.373	0.007	489423	STOP	n/a	n/a	n/a	-999	2	[-999, -999, -999]	n/a	FR1	2	R1309M
167016.38	0.624	489430	DISTRACT_END	n/a	n/a	n/a	-999	2	[0, 0, 0]	n/a	FR1	2	R1309M
167017.004	1.576	490054	RETRIEVAL_ORIENT_START	n/a	n/a	n/a	-999	2	[0, 0, 0]	n/a	FR1	2	R1309M
167018.58	0.001	491630	RETRIEVAL_ORIENT_END	n/a	n/a	n/a	-999	2	[0, 0, 0]	n/a	FR1	2	R1309M
167018.581	0.064	491631	REC_START	n/a	n/a	n/a	-999	2	[0, 0, 0]	n/a	FR1	2	R1309M
167018.645	29.947	491695	REC_WORD	29.947	n/a	STRAW	12	2	[0, 0, 0]	n/a	FR1	2	R1309M
167048.592	0.0	521641	REC_END	n/a	n/a	n/a	-999	2	[0, 0, 0]	n/a	FR1	2	R1309M
167048.592	0.014	521641	TRIAL_END	n/a	n/a	n/a	-999	2	[0, 0, 0]	n/a	FR1	2	R1309M
167048.606	0.0	521655	TRIAL_START	n/a	n/a	n/a	-999	3	[0, 0, 0]	n/a	FR1	2	R1309M
167048.606	0.0	521655	TRIAL	n/a	n/a	n/a	-999	3	[0, 0, 0]	n/a	FR1	2	R1309M
167048.606	2.614	521655	WAITING_START	n/a	n/a	n/a	-999	3	[0, 0, 0]	n/a	FR1	2	R1309M
167051.22	0.001	524269	WAITING_END	n/a	n/a	n/a	-999	3	[0, 0, 0]	n/a	FR1	2	R1309M
167051.221	10.429	524270	COUNTDOWN_START	n/a	n/a	n/a	-999	3	[0, 0, 0]	n/a	FR1	2	R1309M
167061.65	0.001	534698	COUNTDOWN_END	n/a	n/a	n/a	-999	3	[0, 0, 0]	n/a	FR1	2	R1309M
167061.651	1.155	534699	ORIENT_START	n/a	n/a	n/a	-999	3	[0, 0, 0]	n/a	FR1	2	R1309M
167062.806	0.0	535854	ORIENT_END	n/a	n/a	n/a	-999	3	[0, 0, 0]	n/a	FR1	2	R1309M
167062.806	0.998	535854	ENCODING_START	n/a	n/a	n/a	-999	3	[0, 0, 0]	n/a	FR1	2	R1309M
167063.804	1.635	536852	WORD	n/a	n/a	BROOM	1	3	[0, 0, 0]	n/a	FR1	2	R1309M
167065.439	0.818	538487	WORD_OFF	n/a	n/a	BROOM	1	3	[0, 0, 0]	n/a	FR1	2	R1309M
167066.257	1.633	539305	WORD	n/a	n/a	ROCK	2	3	[0, 0, 0]	n/a	FR1	2	R1309M
167067.89	0.882	540938	WORD_OFF	n/a	n/a	ROCK	2	3	[0, 0, 0]	n/a	FR1	2	R1309M
167068.772	1.635	541820	WORD	n/a	n/a	TOAST	3	3	[0, 0, 0]	n/a	FR1	2	R1309M
167070.407	0.769	543455	WORD_OFF	n/a	n/a	TOAST	3	3	[0, 0, 0]	n/a	FR1	2	R1309M
167071.176	1.632	544224	WORD	n/a	n/a	LEAF	4	3	[0, 0, 0]	n/a	FR1	2	R1309M
167072.808	0.943	545856	WORD_OFF	n/a	n/a	LEAF	4	3	[0, 0, 0]	n/a	FR1	2	R1309M
167073.751	1.624	546799	WORD	n/a	n/a	WOOD	5	3	[0, 0, 0]	n/a	FR1	2	R1309M
167075.375	0.841	548423	WORD_OFF	n/a	n/a	WOOD	5	3	[0, 0, 0]	n/a	FR1	2	R1309M
167076.216	1.626	549264	WORD	n/a	n/a	CLIFF	6	3	[0, 0, 0]	n/a	FR1	2	R1309M
167077.842	0.821	550890	WORD_OFF	n/a	n/a	CLIFF	6	3	[0, 0, 0]	n/a	FR1	2	R1309M
167078.663	1.629	551710	WORD	n/a	n/a	WOLF	7	3	[0, 0, 0]	n/a	FR1	2	R1309M
167080.292	0.968	553339	WORD_OFF	n/a	n/a	WOLF	7	3	[0, 0, 0]	n/a	FR1	2	R1309M
167081.26	1.633	554307	WORD	n/a	n/a	FUDGE	8	3	[0, 0, 0]	n/a	FR1	2	R1309M
167082.893	0.812	555940	WORD_OFF	n/a	n/a	FUDGE	8	3	[0, 0, 0]	n/a	FR1	2	R1309M
167083.705	1.638	556752	WORD	n/a	n/a	BRIDGE	9	3	[0, 0, 0]	n/a	FR1	2	R1309M
167085.343	1.071	558390	WORD_OFF	n/a	n/a	BRIDGE	9	3	[0, 0, 0]	n/a	FR1	2	R1309M
167086.414	1.63	559461	WORD	n/a	n/a	SPONGE	10	3	[0, 0, 0]	n/a	FR1	2	R1309M
167088.044	0.79	561091	WORD_OFF	n/a	n/a	SPONGE	10	3	[0, 0, 0]	n/a	FR1	2	R1309M
167088.834	1.628	561881	WORD	n/a	n/a	SUIT	11	3	[0, 0, 0]	n/a	FR1	2	R1309M
167090.462	0.838	563509	WORD_OFF	n/a	n/a	SUIT	11	3	[0, 0, 0]	n/a	FR1	2	R1309M
167091.3	1.628	564347	WORD	n/a	n/a	CAPE	12	3	[0, 0, 0]	n/a	FR1	2	R1309M
167092.928	0.001	565975	WORD_OFF	n/a	n/a	CAPE	12	3	[0, 0, 0]	n/a	FR1	2	R1309M
167092.929	0.0	565976	ENCODING_END	n/a	n/a	n/a	-999	3	[0, 0, 0]	n/a	FR1	2	R1309M
167092.929	0.0	565976	DISTRACT_START	n/a	n/a	n/a	-999	3	[0, 0, 0]	n/a	FR1	2	R1309M
167092.929	0.015	565976	START	n/a	n/a	n/a	-999	3	[-999, -999, -999]	n/a	FR1	2	R1309M
167092.944	4.602	565991	PROB	4.602	n/a	n/a	-999	3	[9, 6, 3]	18	FR1	2	R1309M
167097.546	6.267	570593	PROB	6.267	n/a	n/a	-999	3	[3, 5, 6]	17	FR1	2	R1309M
167103.813	16.253	576859	PROB	16.253	n/a	n/a	-999	3	[8, 7, 4]	19	FR1	2	R1309M
167120.066	0.017	593112	STOP	n/a	n/a	n/a	-999	3	[-999, -999, -999]	n/a	FR1	2	R1309M
167120.083	0.575	593129	DISTRACT_END	n/a	n/a	n/a	-999	3	[0, 0, 0]	n/a	FR1	2	R1309M
167120.658	1.593	593704	RETRIEVAL_ORIENT_START	n/a	n/a	n/a	-999	3	[0, 0, 0]	n/a	FR1	2	R1309M
167122.251	0.0	595296	RETRIEVAL_ORIENT_END	n/a	n/a	n/a	-999	3	[0, 0, 0]	n/a	FR1	2	R1309M
167122.251	1.493	595296	REC_START	n/a	n/a	n/a	-999	3	[0, 0, 0]	n/a	FR1	2	R1309M
167123.744	1.441	596789	REC_WORD	1.441	n/a	WOLF	7	3	[0, 0, 0]	n/a	FR1	2	R1309M
167125.185	1.695	598230	REC_WORD	1.695	n/a	BRIDGE	9	3	[0, 0, 0]	n/a	FR1	2	R1309M
167126.88	1.224	599925	REC_WORD	1.224	n/a	SUIT	11	3	[0, 0, 0]	n/a	FR1	2	R1309M
167128.104	3.246	601149	REC_WORD	3.246	n/a	SPONGE	10	3	[0, 0, 0]	n/a	FR1	2	R1309M
167131.35	1.619	604395	REC_WORD	1.619	n/a	LEAF	4	3	[0, 0, 0]	n/a	FR1	2	R1309M
167132.969	1.367	606014	REC_WORD	1.367	n/a	TOAST	3	3	[0, 0, 0]	n/a	FR1	2	R1309M
167134.336	17.925	607381	REC_WORD	17.925	n/a	BROOM	1	3	[0, 0, 0]	n/a	FR1	2	R1309M
167152.261	0.0	625305	REC_END	n/a	n/a	n/a	-999	3	[0, 0, 0]	n/a	FR1	2	R1309M
167152.261	0.014	625305	TRIAL_END	n/a	n/a	n/a	-999	3	[0, 0, 0]	n/a	FR1	2	R1309M
167152.275	0.001	625319	TRIAL_START	n/a	n/a	n/a	-999	4	[0, 0, 0]	n/a	FR1	2	R1309M
167152.276	0.0	625320	WAITING_START	n/a	n/a	n/a	-999	4	[0, 0, 0]	n/a	FR1	2	R1309M
167152.276	4.199	625320	TRIAL	n/a	n/a	n/a	-999	4	[0, 0, 0]	n/a	FR1	2	R1309M
167156.475	0.0	629519	WAITING_END	n/a	n/a	n/a	-999	4	[0, 0, 0]	n/a	FR1	2	R1309M
167156.475	10.428	629519	COUNTDOWN_START	n/a	n/a	n/a	-999	4	[0, 0, 0]	n/a	FR1	2	R1309M
167166.903	0.0	639946	COUNTDOWN_END	n/a	n/a	n/a	-999	4	[0, 0, 0]	n/a	FR1	2	R1309M
167166.903	1.156	639946	ORIENT_START	n/a	n/a	n/a	-999	4	[0, 0, 0]	n/a	FR1	2	R1309M
167168.059	0.001	641102	ORIENT_END	n/a	n/a	n/a	-999	4	[0, 0, 0]	n/a	FR1	2	R1309M
167168.06	0.793	641103	ENCODING_START	n/a	n/a	n/a	-999	4	[0, 0, 0]	n/a	FR1	2	R1309M
167168.853	1.624	641896	WORD	n/a	n/a	ELF	1	4	[0, 0, 0]	n/a	FR1	2	R1309M
167170.477	1.116	643520	WORD_OFF	n/a	n/a	ELF	1	4	[0, 0, 0]	n/a	FR1	2	R1309M
167171.593	1.634	644636	WORD	n/a	n/a	TOY	2	4	[0, 0, 0]	n/a	FR1	2	R1309M
167173.227	0.828	646270	WORD_OFF	n/a	n/a	TOY	2	4	[0, 0, 0]	n/a	FR1	2	R1309M
167174.055	1.622	647098	WORD	n/a	n/a	BREAD	3	4	[0, 0, 0]	n/a	FR1	2	R1309M
167175.677	0.767	648720	WORD_OFF	n/a	n/a	BREAD	3	4	[0, 0, 0]	n/a	FR1	2	R1309M
167176.444	1.634	649487	WORD	n/a	n/a	THUMB	4	4	[0, 0, 0]	n/a	FR1	2	R1309M
167178.078	1.125	651121	WORD_OFF	n/a	n/a	THUMB	4	4	[0, 0, 0]	n/a	FR1	2	R1309M
167179.203	1.625	652246	WORD	n/a	n/a	CLAY	5	4	[0, 0, 0]	n/a	FR1	2	R1309M
167180.828	0.918	653871	WORD_OFF	n/a	n/a	CLAY	5	4	[0, 0, 0]	n/a	FR1	2	R1309M
167181.746	1.633	654789	WORD	n/a	n/a	STORM	6	4	[0, 0, 0]	n/a	FR1	2	R1309M
167183.379	1.108	656422	WORD_OFF	n/a	n/a	STORM	6	4	[0, 0, 0]	n/a	FR1	2	R1309M
167184.487	1.626	657530	WORD	n/a	n/a	STAR	7	4	[0, 0, 0]	n/a	FR1	2	R1309M
167186.113	1.096	659156	WORD_OFF	n/a	n/a	STAR	7	4	[0, 0, 0]	n/a	FR1	2	R1309M
167187.209	1.638	660251	WORD	n/a	n/a	GATE	8	4	[0, 0, 0]	n/a	FR1	2	R1309M
167188.847	0.864	661889	WORD_OFF	n/a	n/a	GATE	8	4	[0, 0, 0]	n/a	FR1	2	R1309M
167189.711	1.636	662753	WORD	n/a	n/a	HOOK	9	4	[0, 0, 0]	n/a	FR1	2	R1309M
167191.347	1.009	664389	WORD_OFF	n/a	n/a	HOOK	9	4	[0, 0, 0]	n/a	FR1	2	R1309M
167192.356	1.625	665398	WORD	n/a	n/a	TREE	10	4	[0, 0, 0]	n/a	FR1	2	R1309M
167193.981	0.8	667023	WORD_OFF	n/a	n/a	TREE	10	4	[0, 0, 0]	n/a	FR1	2	R1309M
167194.781	1.634	667823	WORD	n/a	n/a	GLASS	11	4	[0, 0, 0]	n/a	FR1	2	R1309M
167196.415	0.846	669457	WORD_OFF	n/a	n/a	GLASS	11	4	[0, 0, 0]	n/a	FR1	2	R1309M
167197.261	1.621	670303	WORD	n/a	n/a	STOOL	12	4	[0, 0, 0]	n/a	FR1	2	R1309M
167198.882	0.001	671924	WORD_OFF	n/a	n/a	STOOL	12	4	[0, 0, 0]	n/a	FR1	2	R1309M
167198.883	0.0	671925	ENCODING_END	n/a	n/a	n/a	-999	4	[0, 0, 0]	n/a	FR1	2	R1309M
167198.883	0.0	671925	DISTRACT_START	n/a	n/a	n/a	-999	4	[0, 0, 0]	n/a	FR1	2	R1309M
167198.883	0.015	671925	START	n/a	n/a	n/a	-999	4	[-999, -999, -999]	n/a	FR1	2	R1309M
167198.898	6.068	671940	PROB	6.068	n/a	n/a	-999	4	[4, 3, 3]	10	FR1	2	R1309M
167204.966	6.502	678008	PROB	6.502	n/a	n/a	-999	4	[5, 6, 8]	19	FR1	2	R1309M
167211.468	10.074	684509	PROB	10.074	n/a	n/a	-999	4	[8, 5, 7]	20	FR1	2	R1309M
167221.542	0.012	694583	STOP	n/a	n/a	n/a	-999	4	[-999, -999, -999]	n/a	FR1	2	R1309M
167221.554	0.562	694595	DISTRACT_END	n/a	n/a	n/a	-999	4	[0, 0, 0]	n/a	FR1	2	R1309M
167222.116	1.554	695157	RETRIEVAL_ORIENT_START	n/a	n/a	n/a	-999	4	[0, 0, 0]	n/a	FR1	2	R1309M
167223.67	0.0	696711	REC_START	n/a	n/a	n/a	-999	4	[0, 0, 0]	n/a	FR1	2	R1309M
167223.67	0.129	696711	RETRIEVAL_ORIENT_END	n/a	n/a	n/a	-999	4	[0, 0, 0]	n/a	FR1	2	R1309M
167223.799	3.913	696840	REC_WORD	3.913	n/a	ELF	1	4	[0, 0, 0]	n/a	FR1	2	R1309M
167227.712	3.0	700753	REC_WORD	3.0	n/a	HOOK	9	4	[0, 0, 0]	n/a	FR1	2	R1309M
167230.712	2.046	703752	REC_WORD	2.046	n/a	GLASS	11	4	[0, 0, 0]	n/a	FR1	2	R1309M
167232.758	2.578	705798	REC_WORD	2.578	n/a	CLAY	5	4	[0, 0, 0]	n/a	FR1	2	R1309M
167235.336	18.344	708376	REC_WORD	18.344	n/a	STORM	6	4	[0, 0, 0]	n/a	FR1	2	R1309M
167253.68	0.001	726719	REC_END	n/a	n/a	n/a	-999	4	[0, 0, 0]	n/a	FR1	2	R1309M
167253.681	0.014	726720	TRIAL_END	n/a	n/a	n/a	-999	4	[0, 0, 0]	n/a	FR1	2	R1309M
167253.695	0.0	726734	TRIAL_START	n/a	n/a	n/a	-999	5	[0, 0, 0]	n/a	FR1	2	R1309M
167253.695	0.0	726734	TRIAL	n/a	n/a	n/a	-999	5	[0, 0, 0]	n/a	FR1	2	R1309M
167253.695	4.332	726734	WAITING_START	n/a	n/a	n/a	-999	5	[0, 0, 0]	n/a	FR1	2	R1309M
167258.027	0.0	731066	COUNTDOWN_START	n/a	n/a	n/a	-999	5	[0, 0, 0]	n/a	FR1	2	R1309M
167258.027	10.428	731066	WAITING_END	n/a	n/a	n/a	-999	5	[0, 0, 0]	n/a	FR1	2	R1309M
167268.455	0.001	741494	COUNTDOWN_END	n/a	n/a	n/a	-999	5	[0, 0, 0]	n/a	FR1	2	R1309M
167268.456	1.024	741495	ORIENT_START	n/a	n/a	n/a	-999	5	[0, 0, 0]	n/a	FR1	2	R1309M
167269.48	0.0	742519	ORIENT_END	n/a	n/a	n/a	-999	5	[0, 0, 0]	n/a	FR1	2	R1309M
167269.48	0.888	742519	ENCODING_START	n/a	n/a	n/a	-999	5	[0, 0, 0]	n/a	FR1	2	R1309M
167270.368	1.628	743407	WORD	n/a	n/a	DITCH	1	5	[0, 0, 0]	n/a	FR1	2	R1309M
167271.996	0.778	745035	WORD_OFF	n/a	n/a	DITCH	1	5	[0, 0, 0]	n/a	FR1	2	R1309M
167272.774	1.639	745812	WORD	n/a	n/a	GUARD	2	5	[0, 0, 0]	n/a	FR1	2	R1309M
167274.413	1.081	747451	WORD_OFF	n/a	n/a	GUARD	2	5	[0, 0, 0]	n/a	FR1	2	R1309M
167275.494	1.636	748532	WORD	n/a	n/a	BENCH	3	5	[0, 0, 0]	n/a	FR1	2	R1309M
167277.13	0.958	750168	WORD_OFF	n/a	n/a	BENCH	3	5	[0, 0, 0]	n/a	FR1	2	R1309M
167278.088	1.626	751126	WORD	n/a	n/a	HOUSE	4	5	[0, 0, 0]	n/a	FR1	2	R1309M
167279.714	1.138	752752	WORD_OFF	n/a	n/a	HOUSE	4	5	[0, 0, 0]	n/a	FR1	2	R1309M
167280.852	1.614	753890	WORD	n/a	n/a	HOSE	5	5	[0, 0, 0]	n/a	FR1	2	R1309M
167282.466	1.007	755504	WORD_OFF	n/a	n/a	HOSE	5	5	[0, 0, 0]	n/a	FR1	2	R1309M
167283.473	1.626	756511	WORD	n/a	n/a	SPARK	6	5	[0, 0, 0]	n/a	FR1	2	R1309M
167285.099	1.149	758137	WORD_OFF	n/a	n/a	SPARK	6	5	[0, 0, 0]	n/a	FR1	2	R1309M
167286.248	1.634	759286	WORD	n/a	n/a	ROOM	7	5	[0, 0, 0]	n/a	FR1	2	R1309M
167287.882	0.915	760920	WORD_OFF	n/a	n/a	ROOM	7	5	[0, 0, 0]	n/a	FR1	2	R1309M
167288.797	1.636	761835	WORD	n/a	n/a	TEA	8	5	[0, 0, 0]	n/a	FR1	2	R1309M
167290.433	0.891	763471	WORD_OFF	n/a	n/a	TEA	8	5	[0, 0, 0]	n/a	FR1	2	R1309M
167291.324	1.626	764362	WORD	n/a	n/a	TOE	9	5	[0, 0, 0]	n/a	FR1	2	R1309M
167292.95	1.025	765988	WORD_OFF	n/a	n/a	TOE	9	5	[0, 0, 0]	n/a	FR1	2	R1309M
167293.975	1.625	767013	WORD	n/a	n/a	OAK	10	5	[0, 0, 0]	n/a	FR1	2	R1309M
167295.6	1.09	768637	WORD_OFF	n/a	n/a	OAK	10	5	[0, 0, 0]	n/a	FR1	2	R1309M
167296.69	1.628	769727	WORD	n/a	n/a	TRAY	11	5	[0, 0, 0]	n/a	FR1	2	R1309M
167298.318	0.84	771355	WORD_OFF	n/a	n/a	TRAY	11	5	[0, 0, 0]	n/a	FR1	2	R1309M
167299.158	1.627	772195	WORD	n/a	n/a	SOCK	12	5	[0, 0, 0]	n/a	FR1	2	R1309M
167300.785	0.0	773822	WORD_OFF	n/a	n/a	SOCK	12	5	[0, 0, 0]	n/a	FR1	2	R1309M
167300.785	0.001	773822	ENCODING_END	n/a	n/a	n/a	-999	5	[0, 0, 0]	n/a	FR1	2	R1309M
167300.786	0.0	773823	DISTRACT_START	n/a	n/a	n/a	-999	5	[0, 0, 0]	n/a	FR1	2	R1309M
167300.786	0.015	773823	START	n/a	n/a	n/a	-999	5	[-999, -999, -999]	n/a	FR1	2	R1309M
167300.801	7.385	773838	PROB	7.385	n/a	n/a	-999	5	[5, 6, 1]	12	FR1	2	R1309M
167308.186	15.437	781223	PROB	15.437	n/a	n/a	-999	5	[8, 9, 8]	27	FR1	2	R1309M
167323.623	0.016	796659	STOP	n/a	n/a	n/a	-999	5	[-999, -999, -999]	n/a	FR1	2	R1309M
167323.639	0.615	796675	DISTRACT_END	n/a	n/a	n/a	-999	5	[0, 0, 0]	n/a	FR1	2	R1309M
167324.254	1.536	797290	RETRIEVAL_ORIENT_START	n/a	n/a	n/a	-999	5	[0, 0, 0]	n/a	FR1	2	R1309M
167325.79	0.0	798826	REC_START	n/a	n/a	n/a	-999	5	[0, 0, 0]	n/a	FR1	2	R1309M
167325.79	1.219	798826	RETRIEVAL_ORIENT_END	n/a	n/a	n/a	-999	5	[0, 0, 0]	n/a	FR1	2	R1309M
167327.009	2.178	800045	REC_WORD	2.178	n/a	TRAY	11	5	[0, 0, 0]	n/a	FR1	2	R1309M
167329.187	21.142	802223	REC_WORD	21.142	n/a	SOCK	12	5	[0, 0, 0]	n/a	FR1	2	R1309M
167350.329	5.472	823364	REC_WORD_VV	5.472	n/a	<>	-999	5	[0, 0, 0]	n/a	FR1	2	R1309M
167355.801	0.001	828836	REC_END	n/a	n/a	n/a	-999	5	[0, 0, 0]	n/a	FR1	2	R1309M
167355.802	0.015	828837	TRIAL_END	n/a	n/a	n/a	-999	5	[0, 0, 0]	n/a	FR1	2	R1309M
167355.817	0.001	828852	TRIAL_START	n/a	n/a	n/a	-999	6	[0, 0, 0]	n/a	FR1	2	R1309M
167355.818	0.0	828853	TRIAL	n/a	n/a	n/a	-999	6	[0, 0, 0]	n/a	FR1	2	R1309M
167355.818	5.179	828853	WAITING_START	n/a	n/a	n/a	-999	6	[0, 0, 0]	n/a	FR1	2	R1309M
167360.997	0.0	834031	WAITING_END	n/a	n/a	n/a	-999	6	[0, 0, 0]	n/a	FR1	2	R1309M
167360.997	10.429	834031	COUNTDOWN_START	n/a	n/a	n/a	-999	6	[0, 0, 0]	n/a	FR1	2	R1309M
167371.426	0.0	844460	ORIENT_START	n/a	n/a	n/a	-999	6	[0, 0, 0]	n/a	FR1	2	R1309M
167371.426	1.124	844460	COUNTDOWN_END	n/a	n/a	n/a	-999	6	[0, 0, 0]	n/a	FR1	2	R1309M
167372.55	0.0	845584	ORIENT_END	n/a	n/a	n/a	-999	6	[0, 0, 0]	n/a	FR1	2	R1309M
167372.55	0.845	845584	ENCODING_START	n/a	n/a	n/a	-999	6	[0, 0, 0]	n/a	FR1	2	R1309M
167373.395	1.638	846429	WORD	n/a	n/a	OAR	1	6	[0, 0, 0]	n/a	FR1	2	R1309M
167375.033	0.875	848067	WORD_OFF	n/a	n/a	OAR	1	6	[0, 0, 0]	n/a	FR1	2	R1309M
167375.908	1.609	848942	WORD	n/a	n/a	ROSE	2	6	[0, 0, 0]	n/a	FR1	2	R1309M
167377.517	0.846	850551	WORD_OFF	n/a	n/a	ROSE	2	6	[0, 0, 0]	n/a	FR1	2	R1309M
167378.363	1.637	851397	WORD	n/a	n/a	FLOOR	3	6	[0, 0, 0]	n/a	FR1	2	R1309M
167380.0	1.146	853034	WORD_OFF	n/a	n/a	FLOOR	3	6	[0, 0, 0]	n/a	FR1	2	R1309M
167381.146	1.621	854179	WORD	n/a	n/a	NAIL	4	6	[0, 0, 0]	n/a	FR1	2	R1309M
167382.767	0.825	855800	WORD_OFF	n/a	n/a	NAIL	4	6	[0, 0, 0]	n/a	FR1	2	R1309M
167383.592	1.626	856625	WORD	n/a	n/a	OWL	5	6	[0, 0, 0]	n/a	FR1	2	R1309M
167385.218	1.03	858251	WORD_OFF	n/a	n/a	OWL	5	6	[0, 0, 0]	n/a	FR1	2	R1309M
167386.248	1.637	859281	WORD	n/a	n/a	GOAT	6	6	[0, 0, 0]	n/a	FR1	2	R1309M
167387.885	0.781	860918	WORD_OFF	n/a	n/a	GOAT	6	6	[0, 0, 0]	n/a	FR1	2	R1309M
167388.666	1.636	861699	WORD	n/a	n/a	MUD	7	6	[0, 0, 0]	n/a	FR1	2	R1309M
167390.302	1.119	863335	WORD_OFF	n/a	n/a	MUD	7	6	[0, 0, 0]	n/a	FR1	2	R1309M
167391.421	1.632	864454	WORD	n/a	n/a	BEAK	8	6	[0, 0, 0]	n/a	FR1	2	R1309M
167393.053	0.812	866086	WORD_OFF	n/a	n/a	BEAK	8	6	[0, 0, 0]	n/a	FR1	2	R1309M
167393.865	1.606	866898	WORD	n/a	n/a	MOUTH	9	6	[0, 0, 0]	n/a	FR1	2	R1309M
167395.471	0.82	868504	WORD_OFF	n/a	n/a	MOUTH	9	6	[0, 0, 0]	n/a	FR1	2	R1309M
167396.291	1.629	869324	WORD	n/a	n/a	FRUIT	10	6	[0, 0, 0]	n/a	FR1	2	R1309M
167397.92	1.106	870953	WORD_OFF	n/a	n/a	FRUIT	10	6	[0, 0, 0]	n/a	FR1	2	R1309M
167399.026	1.628	872059	WORD	n/a	n/a	DOG	11	6	[0, 0, 0]	n/a	FR1	2	R1309M
167400.654	0.886	873687	WORD_OFF	n/a	n/a	DOG	11	6	[0, 0, 0]	n/a	FR1	2	R1309M
167401.54	1.631	874573	WORD	n/a	n/a	SKY	12	6	[0, 0, 0]	n/a	FR1	2	R1309M
167403.171	0.001	876203	WORD_OFF	n/a	n/a	SKY	12	6	[0, 0, 0]	n/a	FR1	2	R1309M
167403.172	0.0	876204	ENCODING_END	n/a	n/a	n/a	-999	6	[0, 0, 0]	n/a	FR1	2	R1309M
167403.172	0.0	876204	DISTRACT_START	n/a	n/a	n/a	-999	6	[0, 0, 0]	n/a	FR1	2	R1309M
167403.172	0.016	876204	START	n/a	n/a	n/a	-999	6	[-999, -999, -999]	n/a	FR1	2	R1309M
167403.188	3.751	876220	PROB	3.751	n/a	n/a	-999	6	[7, 3, 5]	15	FR1	2	R1309M
167406.939	2.917	879971	PROB	2.917	n/a	n/a	-999	6	[7, 7, 6]	22	FR1	2	R1309M
167409.856	2.8	882888	PROB	2.8	n/a	n/a	-999	6	[2, 8, 3]	13	FR1	2	R1309M
167412.656	3.584	885688	PROB	3.584	n/a	n/a	-999	6	[6, 1, 3]	10	FR1	2	R1309M
167416.24	7.334	889272	PROB	7.334	n/a	n/a	-999	6	[6, 8, 8]	20	FR1	2	R1309M
167423.574	0.018	896605	STOP	n/a	n/a	n/a	-999	6	[-999, -999, -999]	n/a	FR1	2	R1309M
167423.592	0.566	896623	DISTRACT_END	n/a	n/a	n/a	-999	6	[0, 0, 0]	n/a	FR1	2	R1309M
167424.158	1.718	897189	RETRIEVAL_ORIENT_START	n/a	n/a	n/a	-999	6	[0, 0, 0]	n/a	FR1	2	R1309M
167425.876	0.0	898907	RETRIEVAL_ORIENT_END	n/a	n/a	n/a	-999	6	[0, 0, 0]	n/a	FR1	2	R1309M
167425.876	1.627	898907	REC_START	n/a	n/a	n/a	-999	6	[0, 0, 0]	n/a	FR1	2	R1309M
167427.503	1.539	900534	REC_WORD_VV	1.539	n/a	<>	-999	6	[0, 0, 0]	n/a	FR1	2	R1309M
167429.042	4.058	902073	REC_WORD	4.058	n/a	OAR	1	6	[0, 0, 0]	n/a	FR1	2	R1309M
167433.1	3.613	906131	REC_WORD_VV	3.613	n/a	<>	-999	6	[0, 0, 0]	n/a	FR1	2	R1309M
167436.713	5.184	909744	REC_WORD	5.184	n/a	FLOOR	3	6	[0, 0, 0]	n/a	FR1	2	R1309M
167441.897	4.95	914928	REC_WORD_VV	4.95	n/a	<>	-999	6	[0, 0, 0]	n/a	FR1	2	R1309M
167446.847	9.039	919877	REC_WORD	9.039	n/a	GOAT	6	6	[0, 0, 0]	n/a	FR1	2	R1309M
167455.886	0.0	928916	REC_END	n/a	n/a	n/a	-999	6	[0, 0, 0]	n/a	FR1	2	R1309M
167455.886	0.017	928916	TRIAL_END	n/a	n/a	n/a	-999	6	[0, 0, 0]	n/a	FR1	2	R1309M
167455.903	0.0	928933	TRIAL_START	n/a	n/a	n/a	-999	7	[0, 0, 0]	n/a	FR1	2	R1309M
167455.903	0.001	928933	TRIAL	n/a	n/a	n/a	-999	7	[0, 0, 0]	n/a	FR1	2	R1309M
167455.904	2.861	928934	WAITING_START	n/a	n/a	n/a	-999	7	[0, 0, 0]	n/a	FR1	2	R1309M
167458.765	0.001	931795	WAITING_END	n/a	n/a	n/a	-999	7	[0, 0, 0]	n/a	FR1	2	R1309M
167458.766	10.428	931796	COUNTDOWN_START	n/a	n/a	n/a	-999	7	[0, 0, 0]	n/a	FR1	2	R1309M
167469.194	0.0	942223	COUNTDOWN_END	n/a	n/a	n/a	-999	7	[0, 0, 0]	n/a	FR1	2	R1309M
167469.194	1.258	942223	ORIENT_START	n/a	n/a	n/a	-999	7	[0, 0, 0]	n/a	FR1	2	R1309M
167470.452	0.001	943481	ORIENT_END	n/a	n/a	n/a	-999	7	[0, 0, 0]	n/a	FR1	2	R1309M
167470.453	1.123	943482	ENCODING_START	n/a	n/a	n/a	-999	7	[0, 0, 0]	n/a	FR1	2	R1309M
167471.576	1.626	944605	WORD	n/a	n/a	POND	1	7	[0, 0, 0]	n/a	FR1	2	R1309M
167473.202	0.851	946231	WORD_OFF	n/a	n/a	POND	1	7	[0, 0, 0]	n/a	FR1	2	R1309M
167474.053	1.632	947082	WORD	n/a	n/a	CART	2	7	[0, 0, 0]	n/a	FR1	2	R1309M
167475.685	0.949	948714	WORD_OFF	n/a	n/a	CART	2	7	[0, 0, 0]	n/a	FR1	2	R1309M
167476.634	1.635	949663	WORD	n/a	n/a	GEESE	3	7	[0, 0, 0]	n/a	FR1	2	R1309M
167478.269	0.766	951298	WORD_OFF	n/a	n/a	GEESE	3	7	[0, 0, 0]	n/a	FR1	2	R1309M
167479.035	1.635	952064	WORD	n/a	n/a	TOOL	4	7	[0, 0, 0]	n/a	FR1	2	R1309M
167480.67	1.085	953699	WORD_OFF	n/a	n/a	TOOL	4	7	[0, 0, 0]	n/a	FR1	2	R1309M
167481.755	1.632	954784	WORD	n/a	n/a	POLE	5	7	[0, 0, 0]	n/a	FR1	2	R1309M
167483.387	0.775	956416	WORD_OFF	n/a	n/a	POLE	5	7	[0, 0, 0]	n/a	FR1	2	R1309M
167484.162	1.625	957191	WORD	n/a	n/a	INK	6	7	[0, 0, 0]	n/a	FR1	2	R1309M
167485.787	1.118	958816	WORD_OFF	n/a	n/a	INK	6	7	[0, 0, 0]	n/a	FR1	2	R1309M
167486.905	1.634	959934	WORD	n/a	n/a	MOLE	7	7	[0, 0, 0]	n/a	FR1	2	R1309M
167488.539	1.121	961567	WORD_OFF	n/a	n/a	MOLE	7	7	[0, 0, 0]	n/a	FR1	2	R1309M
167489.66	1.628	962688	WORD	n/a	n/a	BOX	8	7	[0, 0, 0]	n/a	FR1	2	R1309M
167491.288	0.93	964316	WORD_OFF	n/a	n/a	BOX	8	7	[0, 0, 0]	n/a	FR1	2	R1309M
167492.218	1.638	965246	WORD	n/a	n/a	BOARD	9	7	[0, 0, 0]	n/a	FR1	2	R1309M
167493.856	1.097	966884	WORD_OFF	n/a	n/a	BOARD	9	7	[0, 0, 0]	n/a	FR1	2	R1309M
167494.953	1.636	967981	WORD	n/a	n/a	BARN	10	7	[0, 0, 0]	n/a	FR1	2	R1309M
167496.589	1.046	969617	WORD_OFF	n/a	n/a	BARN	10	7	[0, 0, 0]	n/a	FR1	2	R1309M
167497.635	1.622	970663	WORD	n/a	n/a	BOOK	11	7	[0, 0, 0]	n/a	FR1	2	R1309M
167499.257	1.054	972285	WORD_OFF	n/a	n/a	BOOK	11	7	[0, 0, 0]	n/a	FR1	2	R1309M
167500.311	1.629	973339	WORD	n/a	n/a	CHEEK	12	7	[0, 0, 0]	n/a	FR1	2	R1309M
167501.94	0.001	974968	WORD_OFF	n/a	n/a	CHEEK	12	7	[0, 0, 0]	n/a	FR1	2	R1309M
167501.941	0.0	974969	ENCODING_END	n/a	n/a	n/a	-999	7	[0, 0, 0]	n/a	FR1	2	R1309M
167501.941	0.0	974969	DISTRACT_START	n/a	n/a	n/a	-999	7	[0, 0, 0]	n/a	FR1	2	R1309M
167501.941	0.016	974969	START	n/a	n/a	n/a	-999	7	[-999, -999, -999]	n/a	FR1	2	R1309M
167501.957	3.851	974985	PROB	3.851	n/a	n/a	-999	7	[3, 7, 7]	17	FR1	2	R1309M
167505.808	4.284	978836	PROB	4.284	n/a	n/a	-999	7	[2, 6, 2]	10	FR1	2	R1309M
167510.092	4.534	983119	PROB	4.534	n/a	n/a	-999	7	[4, 9, 4]	17	FR1	2	R1309M
167514.626	3.284	987653	PROB	3.284	n/a	n/a	-999	7	[1, 5, 8]	14	FR1	2	R1309M
167517.91	3.618	990937	PROB	3.618	n/a	n/a	-999	7	[3, 8, 7]	18	FR1	2	R1309M
167521.528	3.395	994555	PROB	3.395	n/a	n/a	-999	7	[1, 4, 4]	9	FR1	2	R1309M
167524.923	0.022	997950	STOP	n/a	n/a	n/a	-999	7	[-999, -999, -999]	n/a	FR1	2	R1309M
167524.945	0.631	997972	DISTRACT_END	n/a	n/a	n/a	-999	7	[0, 0, 0]	n/a	FR1	2	R1309M
167525.576	1.586	998603	RETRIEVAL_ORIENT_START	n/a	n/a	n/a	-999	7	[0, 0, 0]	n/a	FR1	2	R1309M
167527.162	0.0	1000189	REC_START	n/a	n/a	n/a	-999	7	[0, 0, 0]	n/a	FR1	2	R1309M
167527.162	0.981	1000189	RETRIEVAL_ORIENT_END	n/a	n/a	n/a	-999	7	[0, 0, 0]	n/a	FR1	2	R1309M
167528.143	2.006	1001170	REC_WORD	2.006	n/a	BARN	10	7	[0, 0, 0]	n/a	FR1	2	R1309M
167530.149	2.274	1003176	REC_WORD	2.274	n/a	BOOK	11	7	[0, 0, 0]	n/a	FR1	2	R1309M
167532.423	24.751	1005449	REC_WORD_VV	24.751	n/a	<>	-999	7	[0, 0, 0]	n/a	FR1	2	R1309M
167557.174	0.0	1030199	REC_END	n/a	n/a	n/a	-999	7	[0, 0, 0]	n/a	FR1	2	R1309M
167557.174	0.015	1030199	TRIAL_END	n/a	n/a	n/a	-999	7	[0, 0, 0]	n/a	FR1	2	R1309M
167557.189	0.0	1030214	TRIAL_START	n/a	n/a	n/a	-999	8	[0, 0, 0]	n/a	FR1	2	R1309M
167557.189	0.0	1030214	TRIAL	n/a	n/a	n/a	-999	8	[0, 0, 0]	n/a	FR1	2	R1309M
167557.189	3.046	1030214	WAITING_START	n/a	n/a	n/a	-999	8	[0, 0, 0]	n/a	FR1	2	R1309M
167560.235	0.0	1033260	WAITING_END	n/a	n/a	n/a	-999	8	[0, 0, 0]	n/a	FR1	2	R1309M
167560.235	10.43	1033260	COUNTDOWN_START	n/a	n/a	n/a	-999	8	[0, 0, 0]	n/a	FR1	2	R1309M
167570.665	0.0	1043690	ORIENT_START	n/a	n/a	n/a	-999	8	[0, 0, 0]	n/a	FR1	2	R1309M
167570.665	1.055	1043690	COUNTDOWN_END	n/a	n/a	n/a	-999	8	[0, 0, 0]	n/a	FR1	2	R1309M
167571.72	0.001	1044745	ORIENT_END	n/a	n/a	n/a	-999	8	[0, 0, 0]	n/a	FR1	2	R1309M
167571.721	1.099	1044746	ENCODING_START	n/a	n/a	n/a	-999	8	[0, 0, 0]	n/a	FR1	2	R1309M
167572.82	1.635	1045845	WORD	n/a	n/a	SOUP	1	8	[0, 0, 0]	n/a	FR1	2	R1309M
167574.455	0.858	1047480	WORD_OFF	n/a	n/a	SOUP	1	8	[0, 0, 0]	n/a	FR1	2	R1309M
167575.313	1.625	1048337	WORD	n/a	n/a	SWORD	2	8	[0, 0, 0]	n/a	FR1	2	R1309M
167576.938	1.011	1049962	WORD_OFF	n/a	n/a	SWORD	2	8	[0, 0, 0]	n/a	FR1	2	R1309M
167577.949	1.607	1050973	WORD	n/a	n/a	THREAD	3	8	[0, 0, 0]	n/a	FR1	2	R1309M
167579.556	0.995	1052580	WORD_OFF	n/a	n/a	THREAD	3	8	[0, 0, 0]	n/a	FR1	2	R1309M
167580.551	1.622	1053575	WORD	n/a	n/a	CUP	4	8	[0, 0, 0]	n/a	FR1	2	R1309M
167582.173	0.898	1055197	WORD_OFF	n/a	n/a	CUP	4	8	[0, 0, 0]	n/a	FR1	2	R1309M
167583.071	1.636	1056095	WORD	n/a	n/a	BAND	5	8	[0, 0, 0]	n/a	FR1	2	R1309M
167584.707	0.847	1057731	WORD_OFF	n/a	n/a	BAND	5	8	[0, 0, 0]	n/a	FR1	2	R1309M
167585.554	1.636	1058578	WORD	n/a	n/a	FOOD	6	8	[0, 0, 0]	n/a	FR1	2	R1309M
167587.19	1.139	1060214	WORD_OFF	n/a	n/a	FOOD	6	8	[0, 0, 0]	n/a	FR1	2	R1309M
167588.329	1.628	1061353	WORD	n/a	n/a	LAWN	7	8	[0, 0, 0]	n/a	FR1	2	R1309M
167589.957	1.031	1062981	WORD_OFF	n/a	n/a	LAWN	7	8	[0, 0, 0]	n/a	FR1	2	R1309M
167590.988	1.637	1064012	WORD	n/a	n/a	FLAG	8	8	[0, 0, 0]	n/a	FR1	2	R1309M
167592.625	0.916	1065649	WORD_OFF	n/a	n/a	FLAG	8	8	[0, 0, 0]	n/a	FR1	2	R1309M
167593.541	1.634	1066565	WORD	n/a	n/a	PIE	9	8	[0, 0, 0]	n/a	FR1	2	R1309M
167595.175	0.816	1068199	WORD_OFF	n/a	n/a	PIE	9	8	[0, 0, 0]	n/a	FR1	2	R1309M
167595.991	1.635	1069015	WORD	n/a	n/a	EGG	10	8	[0, 0, 0]	n/a	FR1	2	R1309M
167597.626	1.035	1070649	WORD_OFF	n/a	n/a	EGG	10	8	[0, 0, 0]	n/a	FR1	2	R1309M
167598.661	1.632	1071684	WORD	n/a	n/a	VAN	11	8	[0, 0, 0]	n/a	FR1	2	R1309M
167600.293	0.953	1073316	WORD_OFF	n/a	n/a	VAN	11	8	[0, 0, 0]	n/a	FR1	2	R1309M
167601.246	1.631	1074269	WORD	n/a	n/a	PIPE	12	8	[0, 0, 0]	n/a	FR1	2	R1309M
167602.877	0.0	1075900	WORD_OFF	n/a	n/a	PIPE	12	8	[0, 0, 0]	n/a	FR1	2	R1309M
167602.877	0.0	1075900	ENCODING_END	n/a	n/a	n/a	-999	8	[0, 0, 0]	n/a	FR1	2	R1309M
167602.877	0.0	1075900	DISTRACT_START	n/a	n/a	n/a	-999	8	[0, 0, 0]	n/a	FR1	2	R1309M
167602.877	0.016	1075900	START	n/a	n/a	n/a	-999	8	[-999, -999, -999]	n/a	FR1	2	R1309M
167602.893	4.518	1075916	PROB	4.518	n/a	n/a	-999	8	[7, 7, 1]	15	FR1	2	R1309M
167607.411	4.184	1080434	PROB	4.184	n/a	n/a	-999	8	[7, 3, 9]	19	FR1	2	R1309M
167611.595	4.251	1084618	PROB	4.251	n/a	n/a	-999	8	[5, 7, 1]	13	FR1	2	R1309M
167615.846	3.384	1088869	PROB	3.384	n/a	n/a	-999	8	[9, 4, 6]	19	FR1	2	R1309M
167619.23	6.81	1092252	PROB	6.81	n/a	n/a	-999	8	[7, 9, 5]	21	FR1	2	R1309M
167626.04	0.007	1099062	STOP	n/a	n/a	n/a	-999	8	[-999, -999, -999]	n/a	FR1	2	R1309M
167626.047	0.68	1099069	DISTRACT_END	n/a	n/a	n/a	-999	8	[0, 0, 0]	n/a	FR1	2	R1309M
167626.727	1.588	1099749	RETRIEVAL_ORIENT_START	n/a	n/a	n/a	-999	8	[0, 0, 0]	n/a	FR1	2	R1309M
167628.315	0.0	1101337	RETRIEVAL_ORIENT_END	n/a	n/a	n/a	-999	8	[0, 0, 0]	n/a	FR1	2	R1309M
167628.315	0.114	1101337	REC_START	n/a	n/a	n/a	-999	8	[0, 0, 0]	n/a	FR1	2	R1309M
167628.429	2.248	1101451	REC_WORD	2.248	n/a	SOUP	1	8	[0, 0, 0]	n/a	FR1	2	R1309M
167630.677	2.002	1103699	REC_WORD	2.002	n/a	SWORD	2	8	[0, 0, 0]	n/a	FR1	2	R1309M
167632.679	3.731	1105701	REC_WORD	3.731	n/a	FLAG	8	8	[0, 0, 0]	n/a	FR1	2	R1309M
167636.41	5.35	1109432	REC_WORD_VV	5.35	n/a	<>	-999	8	[0, 0, 0]	n/a	FR1	2	R1309M
167641.76	1.004	1114781	REC_WORD_VV	1.004	n/a	<>	-999	8	[0, 0, 0]	n/a	FR1	2	R1309M
167642.764	15.562	1115785	REC_WORD_VV	15.562	n/a	<>	-999	8	[0, 0, 0]	n/a	FR1	2	R1309M
167658.326	0.0	1131347	REC_END	n/a	n/a	n/a	-999	8	[0, 0, 0]	n/a	FR1	2	R1309M
167658.326	0.017	1131347	TRIAL_END	n/a	n/a	n/a	-999	8	[0, 0, 0]	n/a	FR1	2	R1309M
167658.343	0.0	1131364	TRIAL_START	n/a	n/a	n/a	-999	9	[0, 0, 0]	n/a	FR1	2	R1309M
167658.343	0.0	1131364	TRIAL	n/a	n/a	n/a	-999	9	[0, 0, 0]	n/a	FR1	2	R1309M
167658.343	1.528	1131364	WAITING_START	n/a	n/a	n/a	-999	9	[0, 0, 0]	n/a	FR1	2	R1309M
167659.871	0.0	1132892	COUNTDOWN_START	n/a	n/a	n/a	-999	9	[0, 0, 0]	n/a	FR1	2	R1309M
167659.871	10.429	1132892	WAITING_END	n/a	n/a	n/a	-999	9	[0, 0, 0]	n/a	FR1	2	R1309M
167670.3	0.0	1143320	COUNTDOWN_END	n/a	n/a	n/a	-999	9	[0, 0, 0]	n/a	FR1	2	R1309M
167670.3	1.158	1143320	ORIENT_START	n/a	n/a	n/a	-999	9	[0, 0, 0]	n/a	FR1	2	R1309M
167671.458	0.0	1144478	ORIENT_END	n/a	n/a	n/a	-999	9	[0, 0, 0]	n/a	FR1	2	R1309M
167671.458	0.801	1144478	ENCODING_START	n/a	n/a	n/a	-999	9	[0, 0, 0]	n/a	FR1	2	R1309M
167672.259	1.631	1145279	WORD	n/a	n/a	LOCK	1	9	[0, 0, 0]	n/a	FR1	2	R1309M
167673.89	1.057	1146910	WORD_OFF	n/a	n/a	LOCK	1	9	[0, 0, 0]	n/a	FR1	2	R1309M
167674.947	1.627	1147967	WORD	n/a	n/a	APE	2	9	[0, 0, 0]	n/a	FR1	2	R1309M
167676.574	0.833	1149594	WORD_OFF	n/a	n/a	APE	2	9	[0, 0, 0]	n/a	FR1	2	R1309M
167677.407	1.634	1150427	WORD	n/a	n/a	YARD	3	9	[0, 0, 0]	n/a	FR1	2	R1309M
167679.041	0.975	1152061	WORD_OFF	n/a	n/a	YARD	3	9	[0, 0, 0]	n/a	FR1	2	R1309M
167680.016	1.626	1153036	WORD	n/a	n/a	BOAT	4	9	[0, 0, 0]	n/a	FR1	2	R1309M
167681.642	1.012	1154662	WORD_OFF	n/a	n/a	BOAT	4	9	[0, 0, 0]	n/a	FR1	2	R1309M
167682.654	1.622	1155673	WORD	n/a	n/a	TOOTH	5	9	[0, 0, 0]	n/a	FR1	2	R1309M
167684.276	0.862	1157295	WORD_OFF	n/a	n/a	TOOTH	5	9	[0, 0, 0]	n/a	FR1	2	R1309M
167685.138	1.622	1158157	WORD	n/a	n/a	MUG	6	9	[0, 0, 0]	n/a	FR1	2	R1309M
167686.76	0.863	1159779	WORD_OFF	n/a	n/a	MUG	6	9	[0, 0, 0]	n/a	FR1	2	R1309M
167687.623	1.637	1160642	WORD	n/a	n/a	SPEAR	7	9	[0, 0, 0]	n/a	FR1	2	R1309M
167689.26	0.904	1162279	WORD_OFF	n/a	n/a	SPEAR	7	9	[0, 0, 0]	n/a	FR1	2	R1309M
167690.164	1.63	1163183	WORD	n/a	n/a	WEED	8	9	[0, 0, 0]	n/a	FR1	2	R1309M
167691.794	0.964	1164813	WORD_OFF	n/a	n/a	WEED	8	9	[0, 0, 0]	n/a	FR1	2	R1309M
167692.758	1.636	1165777	WORD	n/a	n/a	CRANE	9	9	[0, 0, 0]	n/a	FR1	2	R1309M
167694.394	1.06	1167413	WORD_OFF	n/a	n/a	CRANE	9	9	[0, 0, 0]	n/a	FR1	2	R1309M
167695.454	1.624	1168473	WORD	n/a	n/a	DUCK	10	9	[0, 0, 0]	n/a	FR1	2	R1309M
167697.078	0.853	1170097	WORD_OFF	n/a	n/a	DUCK	10	9	[0, 0, 0]	n/a	FR1	2	R1309M
167697.931	1.631	1170950	WORD	n/a	n/a	SHIELD	11	9	[0, 0, 0]	n/a	FR1	2	R1309M
167699.562	0.813	1172581	WORD_OFF	n/a	n/a	SHIELD	11	9	[0, 0, 0]	n/a	FR1	2	R1309M
167700.375	1.638	1173394	WORD	n/a	n/a	CAVE	12	9	[0, 0, 0]	n/a	FR1	2	R1309M
167702.013	0.0	1175032	WORD_OFF	n/a	n/a	CAVE	12	9	[0, 0, 0]	n/a	FR1	2	R1309M
167702.013	0.0	1175032	ENCODING_END	n/a	n/a	n/a	-999	9	[0, 0, 0]	n/a	FR1	2	R1309M
167702.013	0.0	1175032	DISTRACT_START	n/a	n/a	n/a	-999	9	[0, 0, 0]	n/a	FR1	2	R1309M
167702.013	0.016	1175032	START	n/a	n/a	n/a	-999	9	[-999, -999, -999]	n/a	FR1	2	R1309M
167702.029	3.967	1175048	PROB	3.967	n/a	n/a	-999	9	[9, 3, 1]	13	FR1	2	R1309M
167705.996	3.918	1179014	PROB	3.918	n/a	n/a	-999	9	[3, 7, 2]	12	FR1	2	R1309M
167709.914	3.535	1182932	PROB	3.535	n/a	n/a	-999	9	[6, 1, 3]	10	FR1	2	R1309M
167713.449	5.167	1186467	PROB	5.167	n/a	n/a	-999	9	[9, 2, 6]	17	FR1	2	R1309M
167718.616	3.679	1191634	PROB	3.679	n/a	n/a	-999	9	[4, 2, 6]	12	FR1	2	R1309M
167722.295	0.021	1195313	STOP	n/a	n/a	n/a	-999	9	[-999, -999, -999]	n/a	FR1	2	R1309M
167722.316	0.691	1195334	DISTRACT_END	n/a	n/a	n/a	-999	9	[0, 0, 0]	n/a	FR1	2	R1309M
167723.007	1.593	1196025	RETRIEVAL_ORIENT_START	n/a	n/a	n/a	-999	9	[0, 0, 0]	n/a	FR1	2	R1309M
167724.6	0.001	1197618	RETRIEVAL_ORIENT_END	n/a	n/a	n/a	-999	9	[0, 0, 0]	n/a	FR1	2	R1309M
167724.601	22.289	1197619	REC_START	n/a	n/a	n/a	-999	9	[0, 0, 0]	n/a	FR1	2	R1309M
167746.89	7.705	1219907	REC_WORD_VV	7.705	n/a	<>	-999	9	[0, 0, 0]	n/a	FR1	2	R1309M
167754.595	0.017	1227611	REC_WORD_VV	0.017	n/a	<>	-999	9	[0, 0, 0]	n/a	FR1	2	R1309M
167754.612	0.0	1227628	REC_END	n/a	n/a	n/a	-999	9	[0, 0, 0]	n/a	FR1	2	R1309M
167754.612	0.018	1227628	TRIAL_END	n/a	n/a	n/a	-999	9	[0, 0, 0]	n/a	FR1	2	R1309M
167754.63	0.0	1227646	TRIAL_START	n/a	n/a	n/a	-999	10	[0, 0, 0]	n/a	FR1	2	R1309M
167754.63	0.0	1227646	TRIAL	n/a	n/a	n/a	-999	10	[0, 0, 0]	n/a	FR1	2	R1309M
167754.63	7.178	1227646	WAITING_START	n/a	n/a	n/a	-999	10	[0, 0, 0]	n/a	FR1	2	R1309M
167761.808	0.0	1234824	WAITING_END	n/a	n/a	n/a	-999	10	[0, 0, 0]	n/a	FR1	2	R1309M
167761.808	10.428	1234824	COUNTDOWN_START	n/a	n/a	n/a	-999	10	[0, 0, 0]	n/a	FR1	2	R1309M
167772.236	0.0	1245251	COUNTDOWN_END	n/a	n/a	n/a	-999	10	[0, 0, 0]	n/a	FR1	2	R1309M
167772.236	1.208	1245251	ORIENT_START	n/a	n/a	n/a	-999	10	[0, 0, 0]	n/a	FR1	2	R1309M
167773.444	0.001	1246459	ORIENT_END	n/a	n/a	n/a	-999	10	[0, 0, 0]	n/a	FR1	2	R1309M
167773.445	1.084	1246460	ENCODING_START	n/a	n/a	n/a	-999	10	[0, 0, 0]	n/a	FR1	2	R1309M
167774.529	1.631	1247544	WORD	n/a	n/a	PARK	1	10	[0, 0, 0]	n/a	FR1	2	R1309M
167776.16	0.98	1249175	WORD_OFF	n/a	n/a	PARK	1	10	[0, 0, 0]	n/a	FR1	2	R1309M
167777.14	1.637	1250155	WORD	n/a	n/a	STEM	2	10	[0, 0, 0]	n/a	FR1	2	R1309M
167778.777	0.851	1251792	WORD_OFF	n/a	n/a	STEM	2	10	[0, 0, 0]	n/a	FR1	2	R1309M
167779.628	1.633	1252643	WORD	n/a	n/a	FLAME	3	10	[0, 0, 0]	n/a	FR1	2	R1309M
167781.261	0.83	1254276	WORD_OFF	n/a	n/a	FLAME	3	10	[0, 0, 0]	n/a	FR1	2	R1309M
167782.091	1.637	1255106	WORD	n/a	n/a	ANT	4	10	[0, 0, 0]	n/a	FR1	2	R1309M
167783.728	0.849	1256743	WORD_OFF	n/a	n/a	ANT	4	10	[0, 0, 0]	n/a	FR1	2	R1309M
167784.577	1.635	1257592	WORD	n/a	n/a	STICK	5	10	[0, 0, 0]	n/a	FR1	2	R1309M
167786.212	1.109	1259227	WORD_OFF	n/a	n/a	STICK	5	10	[0, 0, 0]	n/a	FR1	2	R1309M
167787.321	1.625	1260336	WORD	n/a	n/a	WEB	6	10	[0, 0, 0]	n/a	FR1	2	R1309M
167788.946	0.815	1261961	WORD_OFF	n/a	n/a	WEB	6	10	[0, 0, 0]	n/a	FR1	2	R1309M
167789.761	1.636	1262776	WORD	n/a	n/a	FROG	7	10	[0, 0, 0]	n/a	FR1	2	R1309M
167791.397	1.017	1264411	WORD_OFF	n/a	n/a	FROG	7	10	[0, 0, 0]	n/a	FR1	2	R1309M
167792.414	1.633	1265428	WORD	n/a	n/a	TRASH	8	10	[0, 0, 0]	n/a	FR1	2	R1309M
167794.047	0.977	1267061	WORD_OFF	n/a	n/a	TRASH	8	10	[0, 0, 0]	n/a	FR1	2	R1309M
167795.024	1.623	1268038	WORD	n/a	n/a	MAZE	9	10	[0, 0, 0]	n/a	FR1	2	R1309M
167796.647	1.143	1269661	WORD_OFF	n/a	n/a	MAZE	9	10	[0, 0, 0]	n/a	FR1	2	R1309M
167797.79	1.625	1270804	WORD	n/a	n/a	PIG	10	10	[0, 0, 0]	n/a	FR1	2	R1309M
167799.415	0.751	1272429	WORD_OFF	n/a	n/a	PIG	10	10	[0, 0, 0]	n/a	FR1	2	R1309M
167800.166	1.633	1273180	WORD	n/a	n/a	SPOON	11	10	[0, 0, 0]	n/a	FR1	2	R1309M
167801.799	0.944	1274813	WORD_OFF	n/a	n/a	SPOON	11	10	[0, 0, 0]	n/a	FR1	2	R1309M
167802.743	1.623	1275757	WORD	n/a	n/a	MAT	12	10	[0, 0, 0]	n/a	FR1	2	R1309M
167804.366	0.0	1277380	WORD_OFF	n/a	n/a	MAT	12	10	[0, 0, 0]	n/a	FR1	2	R1309M
167804.366	0.0	1277380	ENCODING_END	n/a	n/a	n/a	-999	10	[0, 0, 0]	n/a	FR1	2	R1309M
167804.366	0.0	1277380	DISTRACT_START	n/a	n/a	n/a	-999	10	[0, 0, 0]	n/a	FR1	2	R1309M
167804.366	0.016	1277380	START	n/a	n/a	n/a	-999	10	[-999, -999, -999]	n/a	FR1	2	R1309M
167804.382	4.251	1277396	PROB	4.251	n/a	n/a	-999	10	[1, 2, 6]	9	FR1	2	R1309M
167808.633	3.984	1281647	PROB	3.984	n/a	n/a	-999	10	[3, 4, 8]	16	FR1	2	R1309M
167812.617	4.051	1285630	PROB	4.051	n/a	n/a	-999	10	[3, 8, 6]	17	FR1	2	R1309M
167816.668	6.168	1289681	PROB	6.168	n/a	n/a	-999	10	[7, 4, 8]	19	FR1	2	R1309M
167822.836	4.025	1295849	PROB	4.025	n/a	n/a	-999	10	[2, 4, 4]	10	FR1	2	R1309M
167826.861	0.009	1299874	STOP	n/a	n/a	n/a	-999	10	[-999, -999, -999]	n/a	FR1	2	R1309M
167826.87	0.507	1299883	DISTRACT_END	n/a	n/a	n/a	-999	10	[0, 0, 0]	n/a	FR1	2	R1309M
167827.377	1.543	1300390	RETRIEVAL_ORIENT_START	n/a	n/a	n/a	-999	10	[0, 0, 0]	n/a	FR1	2	R1309M
167828.92	0.001	1301933	RETRIEVAL_ORIENT_END	n/a	n/a	n/a	-999	10	[0, 0, 0]	n/a	FR1	2	R1309M
167828.921	14.614	1301934	REC_START	n/a	n/a	n/a	-999	10	[0, 0, 0]	n/a	FR1	2	R1309M
167843.535	15.374	1316547	REC_WORD_VV	15.374	n/a	<>	-999	10	[0, 0, 0]	n/a	FR1	2	R1309M
167858.909	0.022	1331920	REC_WORD_VV	0.022	n/a	<>	-999	10	[0, 0, 0]	n/a	FR1	2	R1309M
167858.931	0.0	1331942	TRIAL_END	n/a	n/a	n/a	-999	10	[0, 0, 0]	n/a	FR1	2	R1309M
167858.931	0.016	1331942	REC_END	n/a	n/a	n/a	-999	10	[0, 0, 0]	n/a	FR1	2	R1309M
167858.947	0.0	1331958	TRIAL_START	n/a	n/a	n/a	-999	11	[0, 0, 0]	n/a	FR1	2	R1309M
167858.947	0.001	1331958	TRIAL	n/a	n/a	n/a	-999	11	[0, 0, 0]	n/a	FR1	2	R1309M
167858.948	22.316	1331959	WAITING_START	n/a	n/a	n/a	-999	11	[0, 0, 0]	n/a	FR1	2	R1309M
167881.264	0.0	1354274	WAITING_END	n/a	n/a	n/a	-999	11	[0, 0, 0]	n/a	FR1	2	R1309M
167881.264	10.43	1354274	COUNTDOWN_START	n/a	n/a	n/a	-999	11	[0, 0, 0]	n/a	FR1	2	R1309M
167891.694	0.0	1364704	COUNTDOWN_END	n/a	n/a	n/a	-999	11	[0, 0, 0]	n/a	FR1	2	R1309M
167891.694	1.056	1364704	ORIENT_START	n/a	n/a	n/a	-999	11	[0, 0, 0]	n/a	FR1	2	R1309M
167892.75	0.0	1365760	ORIENT_END	n/a	n/a	n/a	-999	11	[0, 0, 0]	n/a	FR1	2	R1309M
167892.75	0.758	1365760	ENCODING_START	n/a	n/a	n/a	-999	11	[0, 0, 0]	n/a	FR1	2	R1309M
167893.508	1.625	1366518	WORD	n/a	n/a	DOCK	1	11	[0, 0, 0]	n/a	FR1	2	R1309M
167895.133	0.868	1368143	WORD_OFF	n/a	n/a	DOCK	1	11	[0, 0, 0]	n/a	FR1	2	R1309M
167896.001	1.633	1369011	WORD	n/a	n/a	SHIP	2	11	[0, 0, 0]	n/a	FR1	2	R1309M
167897.634	0.837	1370644	WORD_OFF	n/a	n/a	SHIP	2	11	[0, 0, 0]	n/a	FR1	2	R1309M
167898.471	1.63	1371480	WORD	n/a	n/a	JUICE	3	11	[0, 0, 0]	n/a	FR1	2	R1309M
167900.101	0.859	1373110	WORD_OFF	n/a	n/a	JUICE	3	11	[0, 0, 0]	n/a	FR1	2	R1309M
167900.96	1.625	1373969	WORD	n/a	n/a	CROW	4	11	[0, 0, 0]	n/a	FR1	2	R1309M
167902.585	0.781	1375594	WORD_OFF	n/a	n/a	CROW	4	11	[0, 0, 0]	n/a	FR1	2	R1309M
167903.366	1.636	1376375	WORD	n/a	n/a	PASTE	5	11	[0, 0, 0]	n/a	FR1	2	R1309M
167905.002	0.959	1378011	WORD_OFF	n/a	n/a	PASTE	5	11	[0, 0, 0]	n/a	FR1	2	R1309M
167905.961	1.625	1378970	WORD	n/a	n/a	PEAR	6	11	[0, 0, 0]	n/a	FR1	2	R1309M
167907.586	1.142	1380595	WORD_OFF	n/a	n/a	PEAR	6	11	[0, 0, 0]	n/a	FR1	2	R1309M
167908.728	1.625	1381737	WORD	n/a	n/a	LEG	7	11	[0, 0, 0]	n/a	FR1	2	R1309M
167910.353	0.912	1383362	WORD_OFF	n/a	n/a	LEG	7	11	[0, 0, 0]	n/a	FR1	2	R1309M
167911.265	1.622	1384274	WORD	n/a	n/a	PALM	8	11	[0, 0, 0]	n/a	FR1	2	R1309M
167912.887	0.905	1385896	WORD_OFF	n/a	n/a	PALM	8	11	[0, 0, 0]	n/a	FR1	2	R1309M
167913.792	1.628	1386801	WORD	n/a	n/a	EEL	9	11	[0, 0, 0]	n/a	FR1	2	R1309M
167915.42	0.911	1388429	WORD_OFF	n/a	n/a	EEL	9	11	[0, 0, 0]	n/a	FR1	2	R1309M
167916.331	1.623	1389340	WORD	n/a	n/a	MULE	10	11	[0, 0, 0]	n/a	FR1	2	R1309M
167917.954	0.931	1390963	WORD_OFF	n/a	n/a	MULE	10	11	[0, 0, 0]	n/a	FR1	2	R1309M
167918.885	1.621	1391894	WORD	n/a	n/a	SHOE	11	11	[0, 0, 0]	n/a	FR1	2	R1309M
167920.506	0.96	1393514	WORD_OFF	n/a	n/a	SHOE	11	11	[0, 0, 0]	n/a	FR1	2	R1309M
167921.466	1.622	1394474	WORD	n/a	n/a	FACE	12	11	[0, 0, 0]	n/a	FR1	2	R1309M
167923.088	0.001	1396096	WORD_OFF	n/a	n/a	FACE	12	11	[0, 0, 0]	n/a	FR1	2	R1309M
167923.089	0.0	1396097	ENCODING_END	n/a	n/a	n/a	-999	11	[0, 0, 0]	n/a	FR1	2	R1309M
167923.089	0.0	1396097	DISTRACT_START	n/a	n/a	n/a	-999	11	[0, 0, 0]	n/a	FR1	2	R1309M
167923.089	0.016	1396097	START	n/a	n/a	n/a	-999	11	[-999, -999, -999]	n/a	FR1	2	R1309M
167923.105	4.284	1396113	PROB	4.284	n/a	n/a	-999	11	[2, 6, 8]	16	FR1	2	R1309M
167927.389	2.351	1400397	PROB	2.351	n/a	n/a	-999	11	[6, 4, 2]	12	FR1	2	R1309M
167929.74	4.117	1402748	PROB	4.117	n/a	n/a	-999	11	[5, 4, 6]	15	FR1	2	R1309M
167933.857	3.868	1406865	PROB	3.868	n/a	n/a	-999	11	[5, 6, 9]	20	FR1	2	R1309M
167937.725	6.672	1410733	PROB	6.672	n/a	n/a	-999	11	[4, 1, 4]	9	FR1	2	R1309M
167944.397	0.012	1417404	STOP	n/a	n/a	n/a	-999	11	[-999, -999, -999]	n/a	FR1	2	R1309M
167944.409	0.579	1417416	DISTRACT_END	n/a	n/a	n/a	-999	11	[0, 0, 0]	n/a	FR1	2	R1309M
167944.988	1.722	1417995	RETRIEVAL_ORIENT_START	n/a	n/a	n/a	-999	11	[0, 0, 0]	n/a	FR1	2	R1309M
167946.71	0.0	1419717	RETRIEVAL_ORIENT_END	n/a	n/a	n/a	-999	11	[0, 0, 0]	n/a	FR1	2	R1309M
167946.71	6.89	1419717	REC_START	n/a	n/a	n/a	-999	11	[0, 0, 0]	n/a	FR1	2	R1309M
167953.6	10.171	1426607	REC_WORD_VV	10.171	n/a	<>	-999	11	[0, 0, 0]	n/a	FR1	2	R1309M
167963.771	12.933	1436777	REC_WORD_VV	12.933	n/a	<>	-999	11	[0, 0, 0]	n/a	FR1	2	R1309M
167976.704	0.019	1449710	REC_WORD_VV	0.019	n/a	<>	-999	11	[0, 0, 0]	n/a	FR1	2	R1309M
167976.723	0.0	1449729	TRIAL_END	n/a	n/a	n/a	-999	11	[0, 0, 0]	n/a	FR1	2	R1309M
167976.723	0.014	1449729	REC_END	n/a	n/a	n/a	-999	11	[0, 0, 0]	n/a	FR1	2	R1309M
167976.737	0.0	1449743	WAITING_START	n/a	n/a	n/a	-999	12	[0, 0, 0]	n/a	FR1	2	R1309M
167976.737	0.0	1449743	TRIAL_START	n/a	n/a	n/a	-999	12	[0, 0, 0]	n/a	FR1	2	R1309M
167976.737	11.281	1449743	TRIAL	n/a	n/a	n/a	-999	12	[0, 0, 0]	n/a	FR1	2	R1309M
167988.018	0.0	1461023	WAITING_END	n/a	n/a	n/a	-999	12	[0, 0, 0]	n/a	FR1	2	R1309M
167988.018	10.43	1461023	COUNTDOWN_START	n/a	n/a	n/a	-999	12	[0, 0, 0]	n/a	FR1	2	R1309M
167998.448	0.0	1471453	COUNTDOWN_END	n/a	n/a	n/a	-999	12	[0, 0, 0]	n/a	FR1	2	R1309M
167998.448	1.107	1471453	ORIENT_START	n/a	n/a	n/a	-999	12	[0, 0, 0]	n/a	FR1	2	R1309M
167999.555	0.0	1472560	ORIENT_END	n/a	n/a	n/a	-999	12	[0, 0, 0]	n/a	FR1	2	R1309M
167999.555	0.981	1472560	ENCODING_START	n/a	n/a	n/a	-999	12	[0, 0, 0]	n/a	FR1	2	R1309M
168000.536	1.635	1473541	WORD	n/a	n/a	HORN	1	12	[0, 0, 0]	n/a	FR1	2	R1309M
168002.171	0.804	1475176	WORD_OFF	n/a	n/a	HORN	1	12	[0, 0, 0]	n/a	FR1	2	R1309M
168002.975	1.629	1475980	WORD	n/a	n/a	BALL	2	12	[0, 0, 0]	n/a	FR1	2	R1309M
168004.604	0.919	1477609	WORD_OFF	n/a	n/a	BALL	2	12	[0, 0, 0]	n/a	FR1	2	R1309M
168005.523	1.632	1478528	WORD	n/a	n/a	SIGN	3	12	[0, 0, 0]	n/a	FR1	2	R1309M
168007.155	1.089	1480159	WORD_OFF	n/a	n/a	SIGN	3	12	[0, 0, 0]	n/a	FR1	2	R1309M
168008.244	1.628	1481248	WORD	n/a	n/a	FOX	4	12	[0, 0, 0]	n/a	FR1	2	R1309M
168009.872	0.787	1482876	WORD_OFF	n/a	n/a	FOX	4	12	[0, 0, 0]	n/a	FR1	2	R1309M
168010.659	1.63	1483663	WORD	n/a	n/a	FOG	5	12	[0, 0, 0]	n/a	FR1	2	R1309M
168012.289	1.089	1485293	WORD_OFF	n/a	n/a	FOG	5	12	[0, 0, 0]	n/a	FR1	2	R1309M
168013.378	1.629	1486382	WORD	n/a	n/a	HAT	6	12	[0, 0, 0]	n/a	FR1	2	R1309M
168015.007	0.98	1488011	WORD_OFF	n/a	n/a	HAT	6	12	[0, 0, 0]	n/a	FR1	2	R1309M
168015.987	1.637	1488991	WORD	n/a	n/a	MAIL	7	12	[0, 0, 0]	n/a	FR1	2	R1309M
168017.624	1.048	1490628	WORD_OFF	n/a	n/a	MAIL	7	12	[0, 0, 0]	n/a	FR1	2	R1309M
168018.672	1.636	1491676	WORD	n/a	n/a	WHEEL	8	12	[0, 0, 0]	n/a	FR1	2	R1309M
168020.308	0.916	1493312	WORD_OFF	n/a	n/a	WHEEL	8	12	[0, 0, 0]	n/a	FR1	2	R1309M
168021.224	1.634	1494228	WORD	n/a	n/a	HEART	9	12	[0, 0, 0]	n/a	FR1	2	R1309M
168022.858	0.912	1495862	WORD_OFF	n/a	n/a	HEART	9	12	[0, 0, 0]	n/a	FR1	2	R1309M
168023.77	1.622	1496774	WORD	n/a	n/a	VASE	10	12	[0, 0, 0]	n/a	FR1	2	R1309M
168025.392	1.072	1498396	WORD_OFF	n/a	n/a	VASE	10	12	[0, 0, 0]	n/a	FR1	2	R1309M
168026.464	1.628	1499468	WORD	n/a	n/a	MOTH	11	12	[0, 0, 0]	n/a	FR1	2	R1309M
168028.092	1.151	1501095	WORD_OFF	n/a	n/a	MOTH	11	12	[0, 0, 0]	n/a	FR1	2	R1309M
168029.243	1.633	1502246	WORD	n/a	n/a	HOOF	12	12	[0, 0, 0]	n/a	FR1	2	R1309M
168030.876	0.001	1503879	WORD_OFF	n/a	n/a	HOOF	12	12	[0, 0, 0]	n/a	FR1	2	R1309M
168030.877	0.0	1503880	ENCODING_END	n/a	n/a	n/a	-999	12	[0, 0, 0]	n/a	FR1	2	R1309M
168030.877	0.0	1503880	DISTRACT_START	n/a	n/a	n/a	-999	12	[0, 0, 0]	n/a	FR1	2	R1309M
168030.877	0.016	1503880	START	n/a	n/a	n/a	-999	12	[-999, -999, -999]	n/a	FR1	2	R1309M
168030.893	3.334	1503896	PROB	3.334	n/a	n/a	-999	12	[2, 6, 8]	16	FR1	2	R1309M
168034.227	3.617	1507230	PROB	3.617	n/a	n/a	-999	12	[7, 1, 2]	10	FR1	2	R1309M
168037.844	9.819	1510847	PROB	9.819	n/a	n/a	-999	12	[4, 5, 2]	11	FR1	2	R1309M
168047.663	3.848	1520666	PROB	3.848	n/a	n/a	-999	12	[6, 5, 5]	16	FR1	2	R1309M
168051.511	0.02	1524513	STOP	n/a	n/a	n/a	-999	12	[-999, -999, -999]	n/a	FR1	2	R1309M
168051.531	0.652	1524533	DISTRACT_END	n/a	n/a	n/a	-999	12	[0, 0, 0]	n/a	FR1	2	R1309M
168052.183	1.614	1525185	RETRIEVAL_ORIENT_START	n/a	n/a	n/a	-999	12	[0, 0, 0]	n/a	FR1	2	R1309M
168053.797	0.001	1526799	RETRIEVAL_ORIENT_END	n/a	n/a	n/a	-999	12	[0, 0, 0]	n/a	FR1	2	R1309M
168053.798	3.385	1526800	REC_START	n/a	n/a	n/a	-999	12	[0, 0, 0]	n/a	FR1	2	R1309M
168057.183	2.621	1530185	REC_WORD	2.621	n/a	MOTH	11	12	[0, 0, 0]	n/a	FR1	2	R1309M
168059.804	4.826	1532806	REC_WORD_VV	4.826	n/a	<>	-999	12	[0, 0, 0]	n/a	FR1	2	R1309M
168064.63	4.913	1537632	REC_WORD_VV	4.913	n/a	<>	-999	12	[0, 0, 0]	n/a	FR1	2	R1309M
168069.543	3.07	1542545	REC_WORD	3.07	n/a	WHEEL	8	12	[0, 0, 0]	n/a	FR1	2	R1309M
168072.613	8.862	1545614	REC_WORD	8.862	n/a	SIGN	3	12	[0, 0, 0]	n/a	FR1	2	R1309M
168081.475	2.332	1554476	REC_WORD_VV	2.332	n/a	<>	-999	12	[0, 0, 0]	n/a	FR1	2	R1309M
168083.807	0.001	1556808	REC_END	n/a	n/a	n/a	-999	12	[0, 0, 0]	n/a	FR1	2	R1309M
168083.808	0.014	1556809	TRIAL_END	n/a	n/a	n/a	-999	12	[0, 0, 0]	n/a	FR1	2	R1309M
168083.822	0.0	1556823	WAITING_START	n/a	n/a	n/a	-999	13	[0, 0, 0]	n/a	FR1	2	R1309M
168083.822	0.0	1556823	TRIAL_START	n/a	n/a	n/a	-999	13	[0, 0, 0]	n/a	FR1	2	R1309M
168083.822	3.232	1556823	TRIAL	n/a	n/a	n/a	-999	13	[0, 0, 0]	n/a	FR1	2	R1309M
168087.054	0.0	1560055	WAITING_END	n/a	n/a	n/a	-999	13	[0, 0, 0]	n/a	FR1	2	R1309M
168087.054	10.43	1560055	COUNTDOWN_START	n/a	n/a	n/a	-999	13	[0, 0, 0]	n/a	FR1	2	R1309M
168097.484	0.0	1570484	COUNTDOWN_END	n/a	n/a	n/a	-999	13	[0, 0, 0]	n/a	FR1	2	R1309M
168097.484	1.023	1570484	ORIENT_START	n/a	n/a	n/a	-999	13	[0, 0, 0]	n/a	FR1	2	R1309M
168098.507	0.001	1571507	ORIENT_END	n/a	n/a	n/a	-999	13	[0, 0, 0]	n/a	FR1	2	R1309M
168098.508	0.826	1571508	ENCODING_START	n/a	n/a	n/a	-999	13	[0, 0, 0]	n/a	FR1	2	R1309M
168099.334	1.623	1572334	WORD	n/a	n/a	RAT	1	13	[0, 0, 0]	n/a	FR1	2	R1309M
168100.957	1.116	1573957	WORD_OFF	n/a	n/a	RAT	1	13	[0, 0, 0]	n/a	FR1	2	R1309M
168102.073	1.634	1575073	WORD	n/a	n/a	FLUTE	2	13	[0, 0, 0]	n/a	FR1	2	R1309M
168103.707	0.943	1576707	WORD_OFF	n/a	n/a	FLUTE	2	13	[0, 0, 0]	n/a	FR1	2	R1309M
168104.65	1.624	1577650	WORD	n/a	n/a	RAIN	3	13	[0, 0, 0]	n/a	FR1	2	R1309M
168106.274	1.131	1579274	WORD_OFF	n/a	n/a	RAIN	3	13	[0, 0, 0]	n/a	FR1	2	R1309M
168107.405	1.636	1580405	WORD	n/a	n/a	JAR	4	13	[0, 0, 0]	n/a	FR1	2	R1309M
168109.041	0.958	1582041	WORD_OFF	n/a	n/a	JAR	4	13	[0, 0, 0]	n/a	FR1	2	R1309M
168109.999	1.626	1582999	WORD	n/a	n/a	NEST	5	13	[0, 0, 0]	n/a	FR1	2	R1309M
168111.625	1.062	1584625	WORD_OFF	n/a	n/a	NEST	5	13	[0, 0, 0]	n/a	FR1	2	R1309M
168112.687	1.622	1585687	WORD	n/a	n/a	COUCH	6	13	[0, 0, 0]	n/a	FR1	2	R1309M
168114.309	0.999	1587308	WORD_OFF	n/a	n/a	COUCH	6	13	[0, 0, 0]	n/a	FR1	2	R1309M
168115.308	1.635	1588307	WORD	n/a	n/a	ARK	7	13	[0, 0, 0]	n/a	FR1	2	R1309M
168116.943	1.03	1589942	WORD_OFF	n/a	n/a	ARK	7	13	[0, 0, 0]	n/a	FR1	2	R1309M
168117.973	1.637	1590972	WORD	n/a	n/a	LAKE	8	13	[0, 0, 0]	n/a	FR1	2	R1309M
168119.61	0.864	1592609	WORD_OFF	n/a	n/a	LAKE	8	13	[0, 0, 0]	n/a	FR1	2	R1309M
168120.474	1.62	1593473	WORD	n/a	n/a	TOAD	9	13	[0, 0, 0]	n/a	FR1	2	R1309M
168122.094	1.093	1595093	WORD_OFF	n/a	n/a	TOAD	9	13	[0, 0, 0]	n/a	FR1	2	R1309M
168123.187	1.624	1596186	WORD	n/a	n/a	PLATE	10	13	[0, 0, 0]	n/a	FR1	2	R1309M
168124.811	0.91	1597810	WORD_OFF	n/a	n/a	PLATE	10	13	[0, 0, 0]	n/a	FR1	2	R1309M
168125.721	1.624	1598720	WORD	n/a	n/a	COW	11	13	[0, 0, 0]	n/a	FR1	2	R1309M
168127.345	1.12	1600344	WORD_OFF	n/a	n/a	COW	11	13	[0, 0, 0]	n/a	FR1	2	R1309M
168128.465	1.631	1601464	WORD	n/a	n/a	NOSE	12	13	[0, 0, 0]	n/a	FR1	2	R1309M
168130.096	0.0	1603095	DISTRACT_START	n/a	n/a	n/a	-999	13	[0, 0, 0]	n/a	FR1	2	R1309M
168130.096	0.0	1603095	ENCODING_END	n/a	n/a	n/a	-999	13	[0, 0, 0]	n/a	FR1	2	R1309M
168130.096	0.001	1603095	WORD_OFF	n/a	n/a	NOSE	12	13	[0, 0, 0]	n/a	FR1	2	R1309M
168130.097	0.015	1603096	START	n/a	n/a	n/a	-999	13	[-999, -999, -999]	n/a	FR1	2	R1309M
168130.112	4.151	1603111	PROB	4.151	n/a	n/a	-999	13	[7, 7, 8]	22	FR1	2	R1309M
168134.263	5.351	1607262	PROB	5.351	n/a	n/a	-999	13	[5, 1, 2]	8	FR1	2	R1309M
168139.614	2.567	1612612	PROB	2.567	n/a	n/a	-999	13	[4, 6, 6]	16	FR1	2	R1309M
168142.181	4.117	1615179	PROB	4.117	n/a	n/a	-999	13	[1, 4, 1]	6	FR1	2	R1309M
168146.298	4.691	1619296	PROB	4.691	n/a	n/a	-999	13	[1, 4, 6]	11	FR1	2	R1309M
168150.989	0.011	1623987	STOP	n/a	n/a	n/a	-999	13	[-999, -999, -999]	n/a	FR1	2	R1309M
168151.0	0.653	1623998	DISTRACT_END	n/a	n/a	n/a	-999	13	[0, 0, 0]	n/a	FR1	2	R1309M
168151.653	1.647	1624651	RETRIEVAL_ORIENT_START	n/a	n/a	n/a	-999	13	[0, 0, 0]	n/a	FR1	2	R1309M
168153.3	0.0	1626298	RETRIEVAL_ORIENT_END	n/a	n/a	n/a	-999	13	[0, 0, 0]	n/a	FR1	2	R1309M
168153.3	0.695	1626298	REC_START	n/a	n/a	n/a	-999	13	[0, 0, 0]	n/a	FR1	2	R1309M
168153.995	1.31	1626993	REC_WORD	1.31	n/a	RAT	1	13	[0, 0, 0]	n/a	FR1	2	R1309M
168155.305	1.185	1628303	REC_WORD	1.185	n/a	ARK	7	13	[0, 0, 0]	n/a	FR1	2	R1309M
168156.49	6.665	1629488	REC_WORD	6.665	n/a	NEST	5	13	[0, 0, 0]	n/a	FR1	2	R1309M
168163.155	20.155	1636152	REC_WORD_VV	20.155	n/a	<>	-999	13	[0, 0, 0]	n/a	FR1	2	R1309M
168183.31	0.001	1656306	REC_END	n/a	n/a	n/a	-999	13	[0, 0, 0]	n/a	FR1	2	R1309M
168183.311	0.014	1656307	TRIAL_END	n/a	n/a	n/a	-999	13	[0, 0, 0]	n/a	FR1	2	R1309M
168183.325	0.0	1656321	WAITING_START	n/a	n/a	n/a	-999	14	[0, 0, 0]	n/a	FR1	2	R1309M
168183.325	0.0	1656321	TRIAL_START	n/a	n/a	n/a	-999	14	[0, 0, 0]	n/a	FR1	2	R1309M
168183.325	3.565	1656321	TRIAL	n/a	n/a	n/a	-999	14	[0, 0, 0]	n/a	FR1	2	R1309M
168186.89	0.0	1659886	WAITING_END	n/a	n/a	n/a	-999	14	[0, 0, 0]	n/a	FR1	2	R1309M
168186.89	10.43	1659886	COUNTDOWN_START	n/a	n/a	n/a	-999	14	[0, 0, 0]	n/a	FR1	2	R1309M
168197.32	0.0	1670316	COUNTDOWN_END	n/a	n/a	n/a	-999	14	[0, 0, 0]	n/a	FR1	2	R1309M
168197.32	1.055	1670316	ORIENT_START	n/a	n/a	n/a	-999	14	[0, 0, 0]	n/a	FR1	2	R1309M
168198.375	0.001	1671371	ORIENT_END	n/a	n/a	n/a	-999	14	[0, 0, 0]	n/a	FR1	2	R1309M
168198.376	0.847	1671372	ENCODING_START	n/a	n/a	n/a	-999	14	[0, 0, 0]	n/a	FR1	2	R1309M
168199.223	1.636	1672219	WORD	n/a	n/a	JAIL	1	14	[0, 0, 0]	n/a	FR1	2	R1309M
168200.859	0.905	1673854	WORD_OFF	n/a	n/a	JAIL	1	14	[0, 0, 0]	n/a	FR1	2	R1309M
168201.764	1.629	1674759	WORD	n/a	n/a	CANE	2	14	[0, 0, 0]	n/a	FR1	2	R1309M
168203.393	1.118	1676388	WORD_OFF	n/a	n/a	CANE	2	14	[0, 0, 0]	n/a	FR1	2	R1309M
168204.511	1.632	1677506	WORD	n/a	n/a	DART	3	14	[0, 0, 0]	n/a	FR1	2	R1309M
168206.143	1.105	1679138	WORD_OFF	n/a	n/a	DART	3	14	[0, 0, 0]	n/a	FR1	2	R1309M
168207.248	1.629	1680243	WORD	n/a	n/a	TIE	4	14	[0, 0, 0]	n/a	FR1	2	R1309M
168208.877	1.033	1681872	WORD_OFF	n/a	n/a	TIE	4	14	[0, 0, 0]	n/a	FR1	2	R1309M
168209.91	1.619	1682905	WORD	n/a	n/a	POOL	5	14	[0, 0, 0]	n/a	FR1	2	R1309M
168211.529	0.864	1684524	WORD_OFF	n/a	n/a	POOL	5	14	[0, 0, 0]	n/a	FR1	2	R1309M
168212.393	1.635	1685388	WORD	n/a	n/a	GRAPE	6	14	[0, 0, 0]	n/a	FR1	2	R1309M
168214.028	1.045	1687023	WORD_OFF	n/a	n/a	GRAPE	6	14	[0, 0, 0]	n/a	FR1	2	R1309M
168215.073	1.623	1688068	WORD	n/a	n/a	TANK	7	14	[0, 0, 0]	n/a	FR1	2	R1309M
168216.696	0.768	1689691	WORD_OFF	n/a	n/a	TANK	7	14	[0, 0, 0]	n/a	FR1	2	R1309M
168217.464	1.632	1690459	WORD	n/a	n/a	BANK	8	14	[0, 0, 0]	n/a	FR1	2	R1309M
168219.096	0.973	1692091	WORD_OFF	n/a	n/a	BANK	8	14	[0, 0, 0]	n/a	FR1	2	R1309M
168220.069	1.628	1693064	WORD	n/a	n/a	CHIN	9	14	[0, 0, 0]	n/a	FR1	2	R1309M
168221.697	1.007	1694691	WORD_OFF	n/a	n/a	CHIN	9	14	[0, 0, 0]	n/a	FR1	2	R1309M
168222.704	1.627	1695698	WORD	n/a	n/a	CAKE	10	14	[0, 0, 0]	n/a	FR1	2	R1309M
168224.331	0.752	1697325	WORD_OFF	n/a	n/a	CAKE	10	14	[0, 0, 0]	n/a	FR1	2	R1309M
168225.083	1.631	1698077	WORD	n/a	n/a	MOUSE	11	14	[0, 0, 0]	n/a	FR1	2	R1309M
168226.714	0.975	1699708	WORD_OFF	n/a	n/a	MOUSE	11	14	[0, 0, 0]	n/a	FR1	2	R1309M
168227.689	1.626	1700683	WORD	n/a	n/a	BATH	12	14	[0, 0, 0]	n/a	FR1	2	R1309M
168229.315	0.0	1702309	ENCODING_END	n/a	n/a	n/a	-999	14	[0, 0, 0]	n/a	FR1	2	R1309M
168229.315	0.001	1702309	WORD_OFF	n/a	n/a	BATH	12	14	[0, 0, 0]	n/a	FR1	2	R1309M
168229.316	0.0	1702310	DISTRACT_START	n/a	n/a	n/a	-999	14	[0, 0, 0]	n/a	FR1	2	R1309M
168229.316	0.015	1702310	START	n/a	n/a	n/a	-999	14	[-999, -999, -999]	n/a	FR1	2	R1309M
168229.331	4.951	1702325	PROB	4.951	n/a	n/a	-999	14	[7, 2, 6]	15	FR1	2	R1309M
168234.282	3.518	1707276	PROB	3.518	n/a	n/a	-999	14	[3, 6, 5]	14	FR1	2	R1309M
168237.8	2.567	1710794	PROB	2.567	n/a	n/a	-999	14	[3, 1, 9]	13	FR1	2	R1309M
168240.367	8.001	1713361	PROB	8.001	n/a	n/a	-999	14	[9, 5, 8]	21	FR1	2	R1309M
168248.368	3.565	1721361	PROB	3.565	n/a	n/a	-999	14	[8, 7, 1]	16	FR1	2	R1309M
168251.933	0.019	1724926	STOP	n/a	n/a	n/a	-999	14	[-999, -999, -999]	n/a	FR1	2	R1309M
168251.952	0.545	1724945	DISTRACT_END	n/a	n/a	n/a	-999	14	[0, 0, 0]	n/a	FR1	2	R1309M
168252.497	1.523	1725490	RETRIEVAL_ORIENT_START	n/a	n/a	n/a	-999	14	[0, 0, 0]	n/a	FR1	2	R1309M
168254.02	0.0	1727013	RETRIEVAL_ORIENT_END	n/a	n/a	n/a	-999	14	[0, 0, 0]	n/a	FR1	2	R1309M
168254.02	1.178	1727013	REC_START	n/a	n/a	n/a	-999	14	[0, 0, 0]	n/a	FR1	2	R1309M
168255.198	1.937	1728191	REC_WORD	1.937	n/a	TANK	7	14	[0, 0, 0]	n/a	FR1	2	R1309M
168257.135	26.895	1730128	REC_WORD	26.895	n/a	BANK	8	14	[0, 0, 0]	n/a	FR1	2	R1309M
168284.03	0.001	1757022	REC_END	n/a	n/a	n/a	-999	14	[0, 0, 0]	n/a	FR1	2	R1309M
168284.031	0.014	1757023	TRIAL_END	n/a	n/a	n/a	-999	14	[0, 0, 0]	n/a	FR1	2	R1309M
168284.045	0.0	1757037	WAITING_START	n/a	n/a	n/a	-999	15	[0, 0, 0]	n/a	FR1	2	R1309M
168284.045	0.0	1757037	TRIAL_START	n/a	n/a	n/a	-999	15	[0, 0, 0]	n/a	FR1	2	R1309M
168284.045	2.281	1757037	TRIAL	n/a	n/a	n/a	-999	15	[0, 0, 0]	n/a	FR1	2	R1309M
168286.326	0.0	1759318	WAITING_END	n/a	n/a	n/a	-999	15	[0, 0, 0]	n/a	FR1	2	R1309M
168286.326	10.43	1759318	COUNTDOWN_START	n/a	n/a	n/a	-999	15	[0, 0, 0]	n/a	FR1	2	R1309M
168296.756	0.001	1769747	COUNTDOWN_END	n/a	n/a	n/a	-999	15	[0, 0, 0]	n/a	FR1	2	R1309M
168296.757	1.171	1769748	ORIENT_START	n/a	n/a	n/a	-999	15	[0, 0, 0]	n/a	FR1	2	R1309M
168297.928	0.0	1770919	ORIENT_END	n/a	n/a	n/a	-999	15	[0, 0, 0]	n/a	FR1	2	R1309M
168297.928	1.111	1770919	ENCODING_START	n/a	n/a	n/a	-999	15	[0, 0, 0]	n/a	FR1	2	R1309M
168299.039	1.623	1772030	WORD	n/a	n/a	SNOW	1	15	[0, 0, 0]	n/a	FR1	2	R1309M
168300.662	0.824	1773653	WORD_OFF	n/a	n/a	SNOW	1	15	[0, 0, 0]	n/a	FR1	2	R1309M
168301.486	1.626	1774477	WORD	n/a	n/a	PHONE	2	15	[0, 0, 0]	n/a	FR1	2	R1309M
168303.112	1.121	1776103	WORD_OFF	n/a	n/a	PHONE	2	15	[0, 0, 0]	n/a	FR1	2	R1309M
168304.233	1.63	1777224	WORD	n/a	n/a	BLOOM	3	15	[0, 0, 0]	n/a	FR1	2	R1309M
168305.863	0.862	1778854	WORD_OFF	n/a	n/a	BLOOM	3	15	[0, 0, 0]	n/a	FR1	2	R1309M
168306.725	1.622	1779716	WORD	n/a	n/a	LAMB	4	15	[0, 0, 0]	n/a	FR1	2	R1309M
168308.347	0.922	1781337	WORD_OFF	n/a	n/a	LAMB	4	15	[0, 0, 0]	n/a	FR1	2	R1309M
168309.269	1.628	1782259	WORD	n/a	n/a	WING	5	15	[0, 0, 0]	n/a	FR1	2	R1309M
168310.897	0.929	1783887	WORD_OFF	n/a	n/a	WING	5	15	[0, 0, 0]	n/a	FR1	2	R1309M
168311.826	1.623	1784816	WORD	n/a	n/a	GLOVE	6	15	[0, 0, 0]	n/a	FR1	2	R1309M
168313.449	1.051	1786439	WORD_OFF	n/a	n/a	GLOVE	6	15	[0, 0, 0]	n/a	FR1	2	R1309M
168314.5	1.632	1787490	WORD	n/a	n/a	STREET	7	15	[0, 0, 0]	n/a	FR1	2	R1309M
168316.132	0.925	1789122	WORD_OFF	n/a	n/a	STREET	7	15	[0, 0, 0]	n/a	FR1	2	R1309M
168317.057	1.625	1790047	WORD	n/a	n/a	PLANE	8	15	[0, 0, 0]	n/a	FR1	2	R1309M
168318.682	0.792	1791672	WORD_OFF	n/a	n/a	PLANE	8	15	[0, 0, 0]	n/a	FR1	2	R1309M
168319.474	1.625	1792464	WORD	n/a	n/a	BOWL	9	15	[0, 0, 0]	n/a	FR1	2	R1309M
168321.099	1.038	1794089	WORD_OFF	n/a	n/a	BOWL	9	15	[0, 0, 0]	n/a	FR1	2	R1309M
168322.137	1.629	1795127	WORD	n/a	n/a	FENCE	10	15	[0, 0, 0]	n/a	FR1	2	R1309M
168323.766	0.998	1796756	WORD_OFF	n/a	n/a	FENCE	10	15	[0, 0, 0]	n/a	FR1	2	R1309M
168324.764	1.636	1797754	WORD	n/a	n/a	PET	11	15	[0, 0, 0]	n/a	FR1	2	R1309M
168326.4	0.89	1799390	WORD_OFF	n/a	n/a	PET	11	15	[0, 0, 0]	n/a	FR1	2	R1309M
168327.29	1.627	1800280	WORD	n/a	n/a	SOAP	12	15	[0, 0, 0]	n/a	FR1	2	R1309M
168328.917	0.001	1801907	WORD_OFF	n/a	n/a	SOAP	12	15	[0, 0, 0]	n/a	FR1	2	R1309M
168328.918	0.0	1801908	ENCODING_END	n/a	n/a	n/a	-999	15	[0, 0, 0]	n/a	FR1	2	R1309M
168328.918	0.0	1801908	DISTRACT_START	n/a	n/a	n/a	-999	15	[0, 0, 0]	n/a	FR1	2	R1309M
168328.918	0.016	1801908	START	n/a	n/a	n/a	-999	15	[-999, -999, -999]	n/a	FR1	2	R1309M
168328.934	3.4	1801924	PROB	3.4	n/a	n/a	-999	15	[3, 2, 5]	10	FR1	2	R1309M
168332.334	2.451	1805323	PROB	2.451	n/a	n/a	-999	15	[9, 1, 1]	11	FR1	2	R1309M
168334.785	3.584	1807774	PROB	3.584	n/a	n/a	-999	15	[5, 5, 2]	12	FR1	2	R1309M
168338.369	3.701	1811358	PROB	3.701	n/a	n/a	-999	15	[9, 3, 1]	13	FR1	2	R1309M
168342.07	3.801	1815059	PROB	3.801	n/a	n/a	-999	15	[7, 2, 9]	18	FR1	2	R1309M
168345.871	2.833	1818860	PROB	2.833	n/a	n/a	-999	15	[7, 4, 6]	17	FR1	2	R1309M
168348.704	4.32	1821693	PROB	4.32	n/a	n/a	-999	15	[1, 6, 8]	15	FR1	2	R1309M
168353.024	0.015	1826012	STOP	n/a	n/a	n/a	-999	15	[-999, -999, -999]	n/a	FR1	2	R1309M
168353.039	0.674	1826027	DISTRACT_END	n/a	n/a	n/a	-999	15	[0, 0, 0]	n/a	FR1	2	R1309M
168353.713	1.593	1826701	RETRIEVAL_ORIENT_START	n/a	n/a	n/a	-999	15	[0, 0, 0]	n/a	FR1	2	R1309M
168355.306	0.0	1828294	RETRIEVAL_ORIENT_END	n/a	n/a	n/a	-999	15	[0, 0, 0]	n/a	FR1	2	R1309M
168355.306	0.0	1828294	REC_START	n/a	n/a	n/a	-999	15	[0, 0, 0]	n/a	FR1	2	R1309M
168355.306	1.404	1828294	REC_WORD	1.404	n/a	SNOW	1	15	[0, 0, 0]	n/a	FR1	2	R1309M
168356.71	3.647	1829698	REC_WORD	3.647	n/a	BLOOM	3	15	[0, 0, 0]	n/a	FR1	2	R1309M
168360.357	6.219	1833345	REC_WORD_VV	6.219	n/a	<>	-999	15	[0, 0, 0]	n/a	FR1	2	R1309M
168366.576	18.742	1839564	REC_WORD	18.742	n/a	LAMB	4	15	[0, 0, 0]	n/a	FR1	2	R1309M
168385.318	0.0	1858305	TRIAL_END	n/a	n/a	n/a	-999	15	[0, 0, 0]	n/a	FR1	2	R1309M
168385.318	0.016	1858305	REC_END	n/a	n/a	n/a	-999	15	[0, 0, 0]	n/a	FR1	2	R1309M
168385.334	0.001	1858321	TRIAL_START	n/a	n/a	n/a	-999	16	[0, 0, 0]	n/a	FR1	2	R1309M
168385.335	0.0	1858322	TRIAL	n/a	n/a	n/a	-999	16	[0, 0, 0]	n/a	FR1	2	R1309M
168385.335	0.0	1858322	WAITING_START	n/a	n/a	n/a	-999	16	[0, 0, 0]	n/a	FR1	2	R1309M
