onset	duration	sample	trial_type	response_time	stim_file	item_name	serialpos	list	test	answer	experiment	session	subject
0.0	22.964	81164	SESS_START	n/a	n/a	n/a	-999	-999	[0, 0, 0]	n/a	FR1	0	R1032D
22.964	10.428	117904	COUNTDOWN_START	n/a	n/a	n/a	-999	-999	[0, 0, 0]	n/a	FR1	0	R1032D
33.392	3.692	134588	COUNTDOWN_END	n/a	n/a	n/a	-999	-999	[0, 0, 0]	n/a	FR1	0	R1032D
37.084	2.499	140495	PRACTICE_WORD	n/a	n/a	WATCH	1	-1	[0, 0, 0]	n/a	FR1	0	R1032D
39.583	2.435	144493	PRACTICE_WORD	n/a	n/a	CHEST	2	-1	[0, 0, 0]	n/a	FR1	0	R1032D
42.018	2.383	148389	PRACTICE_WORD	n/a	n/a	CAMEL	3	-1	[0, 0, 0]	n/a	FR1	0	R1032D
44.401	2.4	152202	PRACTICE_WORD	n/a	n/a	ATTIC	4	-1	[0, 0, 0]	n/a	FR1	0	R1032D
46.801	2.517	156041	PRACTICE_WORD	n/a	n/a	RING	5	-1	[0, 0, 0]	n/a	FR1	0	R1032D
49.318	2.618	160068	PRACTICE_WORD	n/a	n/a	BEAM	6	-1	[0, 0, 0]	n/a	FR1	0	R1032D
51.936	2.584	164257	PRACTICE_WORD	n/a	n/a	COTTON	7	-1	[0, 0, 0]	n/a	FR1	0	R1032D
54.52	2.4	168391	PRACTICE_WORD	n/a	n/a	FLOOD	8	-1	[0, 0, 0]	n/a	FR1	0	R1032D
56.92	2.467	172231	PRACTICE_WORD	n/a	n/a	TONGUE	9	-1	[0, 0, 0]	n/a	FR1	0	R1032D
59.387	2.517	176178	PRACTICE_WORD	n/a	n/a	WAGON	10	-1	[0, 0, 0]	n/a	FR1	0	R1032D
61.904	2.584	180205	PRACTICE_WORD	n/a	n/a	IRON	11	-1	[0, 0, 0]	n/a	FR1	0	R1032D
64.488	1.601	184339	PRACTICE_WORD	n/a	n/a	RHINO	12	-1	[0, 0, 0]	n/a	FR1	0	R1032D
66.089	0.001	186901	PRACTICE_DISTRACT_START	n/a	n/a	n/a	-999	-1	[0, 0, 0]	n/a	FR1	0	R1032D
66.09	0.016	186902	START	n/a	n/a	n/a	-999	-1	[-999, -999, -999]	n/a	FR1	0	R1032D
66.106	5.55	186928	PROB	5.55	n/a	n/a	-999	-1	[7, 8, 7]	22	FR1	0	R1032D
71.656	4.369	195807	PROB	4.369	n/a	n/a	-999	-1	[5, 2, 9]	16	FR1	0	R1032D
76.025	3.633	202798	PROB	3.633	n/a	n/a	-999	-1	[4, 9, 8]	21	FR1	0	R1032D
79.658	3.717	208610	PROB	3.717	n/a	n/a	-999	-1	[2, 2, 3]	7	FR1	0	R1032D
83.375	3.521	214557	PROB	3.521	n/a	n/a	-999	-1	[8, 5, 6]	19	FR1	0	R1032D
86.896	0.013	220190	STOP	n/a	n/a	n/a	-999	-1	[-999, -999, -999]	n/a	FR1	0	R1032D
86.909	0.586	220211	PRACTICE_DISTRACT_END	n/a	n/a	n/a	-999	-1	[0, 0, 0]	n/a	FR1	0	R1032D
87.495	30.515	221149	PRACTICE_REC_START	n/a	n/a	n/a	-999	-1	[0, 0, 0]	n/a	FR1	0	R1032D
118.01	9.091	269970	PRACTICE_REC_END	n/a	n/a	n/a	-999	-1	[0, 0, 0]	n/a	FR1	0	R1032D
127.101	0.0	284515	TRIAL	n/a	n/a	n/a	-999	1	[0, 0, 0]	n/a	FR1	0	R1032D
127.101	10.428	284515	COUNTDOWN_START	n/a	n/a	n/a	-999	1	[0, 0, 0]	n/a	FR1	0	R1032D
137.529	0.006	301199	COUNTDOWN_END	n/a	n/a	n/a	-999	1	[0, 0, 0]	n/a	FR1	0	R1032D
137.535	2.518	301209	ORIENT	n/a	n/a	n/a	-999	1	[0, 0, 0]	n/a	FR1	0	R1032D
140.053	2.616	305237	WORD	n/a	wordpools/wordpool_EN.txt	STOOL	1	1	[0, 0, 0]	n/a	FR1	0	R1032D
142.669	2.584	309423	WORD	n/a	wordpools/wordpool_EN.txt	SOCK	2	1	[0, 0, 0]	n/a	FR1	0	R1032D
145.253	2.4	313557	WORD	n/a	wordpools/wordpool_EN.txt	LOCK	3	1	[0, 0, 0]	n/a	FR1	0	R1032D
147.653	2.601	317397	WORD	n/a	wordpools/wordpool_EN.txt	PALM	4	1	[0, 0, 0]	n/a	FR1	0	R1032D
150.254	2.45	321558	WORD	n/a	wordpools/wordpool_EN.txt	BOWL	5	1	[0, 0, 0]	n/a	FR1	0	R1032D
152.704	2.568	325478	WORD	n/a	wordpools/wordpool_EN.txt	WALL	6	1	[0, 0, 0]	n/a	FR1	0	R1032D
155.272	2.583	329586	WORD	n/a	wordpools/wordpool_EN.txt	STEAK	7	1	[0, 0, 0]	n/a	FR1	0	R1032D
157.855	2.617	333719	WORD	n/a	wordpools/wordpool_EN.txt	LAMP	8	1	[0, 0, 0]	n/a	FR1	0	R1032D
160.472	2.502	337906	WORD	n/a	wordpools/wordpool_EN.txt	CHAIR	9	1	[0, 0, 0]	n/a	FR1	0	R1032D
162.974	2.433	341909	WORD	n/a	wordpools/wordpool_EN.txt	JUICE	10	1	[0, 0, 0]	n/a	FR1	0	R1032D
165.407	2.383	345802	WORD	n/a	wordpools/wordpool_EN.txt	WEED	11	1	[0, 0, 0]	n/a	FR1	0	R1032D
167.79	1.617	349614	WORD	n/a	wordpools/wordpool_EN.txt	DOLL	12	1	[0, 0, 0]	n/a	FR1	0	R1032D
169.407	0.001	352201	DISTRACT_START	n/a	n/a	n/a	-999	1	[0, 0, 0]	n/a	FR1	0	R1032D
169.408	0.016	352203	START	n/a	n/a	n/a	-999	1	[-999, -999, -999]	n/a	FR1	0	R1032D
169.424	3.217	352228	PROB	3.217	n/a	n/a	-999	1	[2, 2, 1]	5	FR1	0	R1032D
172.641	3.651	357375	PROB	3.651	n/a	n/a	-999	1	[6, 3, 6]	15	FR1	0	R1032D
176.292	3.017	363217	PROB	3.017	n/a	n/a	-999	1	[4, 8, 9]	21	FR1	0	R1032D
179.309	2.884	368044	PROB	2.884	n/a	n/a	-999	1	[8, 2, 4]	14	FR1	0	R1032D
182.193	3.001	372658	PROB	3.001	n/a	n/a	-999	1	[3, 6, 3]	12	FR1	0	R1032D
185.194	2.968	377459	PROB	2.968	n/a	n/a	-999	1	[7, 1, 8]	16	FR1	0	R1032D
188.162	3.126	382208	PROB	3.126	n/a	n/a	-999	1	[2, 9, 7]	18	FR1	0	R1032D
191.288	0.007	387209	STOP	n/a	n/a	n/a	-999	1	[-999, -999, -999]	n/a	FR1	0	R1032D
191.295	1.054	387220	DISTRACT_END	n/a	n/a	n/a	-999	1	[0, 0, 0]	n/a	FR1	0	R1032D
192.349	10.383	388907	REC_START	n/a	n/a	n/a	-999	1	[0, 0, 0]	n/a	FR1	0	R1032D
202.732	2.418	405519	REC_WORD	2.418	n/a	SOCK	-999	1	[0, 0, 0]	n/a	FR1	0	R1032D
205.15	3.013	409387	REC_WORD	3.013	n/a	ROCK	-999	1	[0, 0, 0]	n/a	FR1	0	R1032D
208.163	1.441	414208	REC_WORD	1.441	n/a	WALL	-999	1	[0, 0, 0]	n/a	FR1	0	R1032D
209.604	2.736	416513	REC_WORD	2.736	n/a	STEAK	-999	1	[0, 0, 0]	n/a	FR1	0	R1032D
212.34	10.016	420891	REC_WORD	10.016	n/a	BOWL	-999	1	[0, 0, 0]	n/a	FR1	0	R1032D
222.356	2.945	436915	REC_END	n/a	n/a	n/a	-999	1	[0, 0, 0]	n/a	FR1	0	R1032D
225.301	0.0	441627	TRIAL	n/a	n/a	n/a	-999	2	[0, 0, 0]	n/a	FR1	0	R1032D
225.301	10.428	441627	COUNTDOWN_START	n/a	n/a	n/a	-999	2	[0, 0, 0]	n/a	FR1	0	R1032D
235.729	0.007	458311	COUNTDOWN_END	n/a	n/a	n/a	-999	2	[0, 0, 0]	n/a	FR1	0	R1032D
235.736	2.518	458322	ORIENT	n/a	n/a	n/a	-999	2	[0, 0, 0]	n/a	FR1	0	R1032D
238.254	2.483	462351	WORD	n/a	wordpools/wordpool_EN.txt	BRUSH	1	2	[0, 0, 0]	n/a	FR1	0	R1032D
240.737	2.418	466324	WORD	n/a	wordpools/wordpool_EN.txt	STRING	2	2	[0, 0, 0]	n/a	FR1	0	R1032D
243.155	2.483	470192	WORD	n/a	wordpools/wordpool_EN.txt	DOCK	3	2	[0, 0, 0]	n/a	FR1	0	R1032D
245.638	2.617	474165	WORD	n/a	wordpools/wordpool_EN.txt	STORM	4	2	[0, 0, 0]	n/a	FR1	0	R1032D
248.255	2.434	478352	WORD	n/a	wordpools/wordpool_EN.txt	BRIDGE	5	2	[0, 0, 0]	n/a	FR1	0	R1032D
250.689	2.402	482246	WORD	n/a	wordpools/wordpool_EN.txt	ROAD	6	2	[0, 0, 0]	n/a	FR1	0	R1032D
253.091	2.516	486089	WORD	n/a	wordpools/wordpool_EN.txt	BAG	7	2	[0, 0, 0]	n/a	FR1	0	R1032D
255.607	2.6	490114	WORD	n/a	wordpools/wordpool_EN.txt	ROOF	8	2	[0, 0, 0]	n/a	FR1	0	R1032D
258.207	2.467	494274	WORD	n/a	wordpools/wordpool_EN.txt	PEACH	9	2	[0, 0, 0]	n/a	FR1	0	R1032D
260.674	2.534	498221	WORD	n/a	wordpools/wordpool_EN.txt	STAIR	10	2	[0, 0, 0]	n/a	FR1	0	R1032D
263.208	2.517	502275	WORD	n/a	wordpools/wordpool_EN.txt	MUD	11	2	[0, 0, 0]	n/a	FR1	0	R1032D
265.725	1.617	506302	WORD	n/a	wordpools/wordpool_EN.txt	CUBE	12	2	[0, 0, 0]	n/a	FR1	0	R1032D
267.342	0.001	508890	DISTRACT_START	n/a	n/a	n/a	-999	2	[0, 0, 0]	n/a	FR1	0	R1032D
267.343	0.016	508891	START	n/a	n/a	n/a	-999	2	[-999, -999, -999]	n/a	FR1	0	R1032D
267.359	3.217	508917	PROB	3.217	n/a	n/a	-999	2	[7, 6, 2]	15	FR1	0	R1032D
270.576	3.284	514064	PROB	3.284	n/a	n/a	-999	2	[5, 4, 8]	17	FR1	0	R1032D
273.86	2.318	519318	PROB	2.318	n/a	n/a	-999	2	[7, 1, 3]	11	FR1	0	R1032D
276.178	2.851	523026	PROB	2.851	n/a	n/a	-999	2	[6, 3, 4]	13	FR1	0	R1032D
279.029	5.366	527588	PROB	5.366	n/a	n/a	-999	2	[6, 7, 5]	18	FR1	0	R1032D
284.395	3.15	536173	PROB	3.15	n/a	n/a	-999	2	[3, 6, 6]	15	FR1	0	R1032D
287.545	0.017	541213	STOP	n/a	n/a	n/a	-999	2	[-999, -999, -999]	n/a	FR1	0	R1032D
287.562	1.052	541240	DISTRACT_END	n/a	n/a	n/a	-999	2	[0, 0, 0]	n/a	FR1	0	R1032D
288.614	16.495	542923	REC_START	n/a	n/a	n/a	-999	2	[0, 0, 0]	n/a	FR1	0	R1032D
305.109	6.745	569314	REC_WORD	6.745	n/a	BUSH	-999	2	[0, 0, 0]	n/a	FR1	0	R1032D
311.854	1.234	580105	REC_WORD	1.234	n/a	BRIDGE	-999	2	[0, 0, 0]	n/a	FR1	0	R1032D
313.088	5.536	582079	REC_WORD	5.536	n/a	ROAD	-999	2	[0, 0, 0]	n/a	FR1	0	R1032D
318.624	6.345	590937	REC_END	n/a	n/a	n/a	-999	2	[0, 0, 0]	n/a	FR1	0	R1032D
324.969	0.001	601088	COUNTDOWN_START	n/a	n/a	n/a	-999	3	[0, 0, 0]	n/a	FR1	0	R1032D
324.97	10.427	601090	TRIAL	n/a	n/a	n/a	-999	3	[0, 0, 0]	n/a	FR1	0	R1032D
335.397	0.008	617772	COUNTDOWN_END	n/a	n/a	n/a	-999	3	[0, 0, 0]	n/a	FR1	0	R1032D
335.405	2.45	617785	ORIENT	n/a	n/a	n/a	-999	3	[0, 0, 0]	n/a	FR1	0	R1032D
337.855	2.484	621705	WORD	n/a	wordpools/wordpool_EN.txt	CAPE	1	3	[0, 0, 0]	n/a	FR1	0	R1032D
340.339	2.484	625679	WORD	n/a	wordpools/wordpool_EN.txt	PLANE	2	3	[0, 0, 0]	n/a	FR1	0	R1032D
342.823	2.4	629653	WORD	n/a	wordpools/wordpool_EN.txt	PEARL	3	3	[0, 0, 0]	n/a	FR1	0	R1032D
345.223	2.567	633493	WORD	n/a	wordpools/wordpool_EN.txt	CLOUD	4	3	[0, 0, 0]	n/a	FR1	0	R1032D
347.79	2.385	637600	WORD	n/a	wordpools/wordpool_EN.txt	SPARK	5	3	[0, 0, 0]	n/a	FR1	0	R1032D
350.175	2.55	641416	WORD	n/a	wordpools/wordpool_EN.txt	DOOR	6	3	[0, 0, 0]	n/a	FR1	0	R1032D
352.725	2.401	645496	WORD	n/a	wordpools/wordpool_EN.txt	VAN	7	3	[0, 0, 0]	n/a	FR1	0	R1032D
355.126	2.466	649337	WORD	n/a	wordpools/wordpool_EN.txt	FUDGE	8	3	[0, 0, 0]	n/a	FR1	0	R1032D
357.592	2.418	653282	WORD	n/a	wordpools/wordpool_EN.txt	SHIP	9	3	[0, 0, 0]	n/a	FR1	0	R1032D
360.01	2.416	657151	WORD	n/a	wordpools/wordpool_EN.txt	SKY	10	3	[0, 0, 0]	n/a	FR1	0	R1032D
362.426	2.417	661016	WORD	n/a	wordpools/wordpool_EN.txt	STAR	11	3	[0, 0, 0]	n/a	FR1	0	R1032D
364.843	1.617	664883	WORD	n/a	wordpools/wordpool_EN.txt	DRUM	12	3	[0, 0, 0]	n/a	FR1	0	R1032D
366.46	0.001	667470	DISTRACT_START	n/a	n/a	n/a	-999	3	[0, 0, 0]	n/a	FR1	0	R1032D
366.461	0.016	667472	START	n/a	n/a	n/a	-999	3	[-999, -999, -999]	n/a	FR1	0	R1032D
366.477	3.367	667498	PROB	3.367	n/a	n/a	-999	3	[1, 3, 4]	8	FR1	0	R1032D
369.844	3.051	672885	PROB	3.051	n/a	n/a	-999	3	[5, 4, 4]	13	FR1	0	R1032D
372.895	4.085	677766	PROB	4.085	n/a	n/a	-999	3	[8, 9, 7]	24	FR1	0	R1032D
376.98	2.933	684302	PROB	2.933	n/a	n/a	-999	3	[9, 6, 1]	16	FR1	0	R1032D
379.913	3.351	688994	PROB	3.351	n/a	n/a	-999	3	[4, 6, 4]	14	FR1	0	R1032D
383.264	3.704	694356	PROB	3.704	n/a	n/a	-999	3	[3, 9, 2]	14	FR1	0	R1032D
386.968	0.014	700282	STOP	n/a	n/a	n/a	-999	3	[-999, -999, -999]	n/a	FR1	0	R1032D
386.982	1.051	700304	DISTRACT_END	n/a	n/a	n/a	-999	3	[0, 0, 0]	n/a	FR1	0	R1032D
388.033	2.028	701986	REC_START	n/a	n/a	n/a	-999	3	[0, 0, 0]	n/a	FR1	0	R1032D
390.061	1.567	705230	REC_WORD	1.567	n/a	CAPE	-999	3	[0, 0, 0]	n/a	FR1	0	R1032D
391.628	3.233	707737	REC_WORD	3.233	n/a	PLANE	-999	3	[0, 0, 0]	n/a	FR1	0	R1032D
394.861	23.182	712910	REC_WORD	23.182	n/a	CLOUD	-999	3	[0, 0, 0]	n/a	FR1	0	R1032D
418.043	2.644	749999	REC_END	n/a	n/a	n/a	-999	3	[0, 0, 0]	n/a	FR1	0	R1032D
420.687	0.0	754229	TRIAL	n/a	n/a	n/a	-999	4	[0, 0, 0]	n/a	FR1	0	R1032D
420.687	10.428	754229	COUNTDOWN_START	n/a	n/a	n/a	-999	4	[0, 0, 0]	n/a	FR1	0	R1032D
431.115	0.008	770913	COUNTDOWN_END	n/a	n/a	n/a	-999	4	[0, 0, 0]	n/a	FR1	0	R1032D
431.123	2.5	770926	ORIENT	n/a	n/a	n/a	-999	4	[0, 0, 0]	n/a	FR1	0	R1032D
433.623	2.584	774926	WORD	n/a	wordpools/wordpool_EN.txt	CROWN	1	4	[0, 0, 0]	n/a	FR1	0	R1032D
436.207	2.45	779060	WORD	n/a	wordpools/wordpool_EN.txt	TEETH	2	4	[0, 0, 0]	n/a	FR1	0	R1032D
438.657	2.385	782980	WORD	n/a	wordpools/wordpool_EN.txt	TREE	3	4	[0, 0, 0]	n/a	FR1	0	R1032D
441.042	2.533	786796	WORD	n/a	wordpools/wordpool_EN.txt	HOOF	4	4	[0, 0, 0]	n/a	FR1	0	R1032D
443.575	2.484	790848	WORD	n/a	wordpools/wordpool_EN.txt	BEE	5	4	[0, 0, 0]	n/a	FR1	0	R1032D
446.059	2.566	794823	WORD	n/a	wordpools/wordpool_EN.txt	DOG	6	4	[0, 0, 0]	n/a	FR1	0	R1032D
448.625	2.618	798928	WORD	n/a	wordpools/wordpool_EN.txt	BUSH	7	4	[0, 0, 0]	n/a	FR1	0	R1032D
451.243	2.467	803117	WORD	n/a	wordpools/wordpool_EN.txt	SEAL	8	4	[0, 0, 0]	n/a	FR1	0	R1032D
453.71	2.5	807064	WORD	n/a	wordpools/wordpool_EN.txt	GRAPE	9	4	[0, 0, 0]	n/a	FR1	0	R1032D
456.21	2.401	811063	WORD	n/a	wordpools/wordpool_EN.txt	WORM	10	4	[0, 0, 0]	n/a	FR1	0	R1032D
458.611	2.6	814905	WORD	n/a	wordpools/wordpool_EN.txt	SEED	11	4	[0, 0, 0]	n/a	FR1	0	R1032D
461.211	1.617	819065	WORD	n/a	wordpools/wordpool_EN.txt	COW	12	4	[0, 0, 0]	n/a	FR1	0	R1032D
462.828	0.001	821652	DISTRACT_START	n/a	n/a	n/a	-999	4	[0, 0, 0]	n/a	FR1	0	R1032D
462.829	0.016	821653	START	n/a	n/a	n/a	-999	4	[-999, -999, -999]	n/a	FR1	0	R1032D
462.845	3.335	821679	PROB	3.335	n/a	n/a	-999	4	[2, 7, 1]	10	FR1	0	R1032D
466.18	3.399	827015	PROB	3.399	n/a	n/a	-999	4	[6, 6, 2]	14	FR1	0	R1032D
469.579	3.419	832453	PROB	3.419	n/a	n/a	-999	4	[8, 6, 7]	21	FR1	0	R1032D
472.998	2.566	837923	PROB	2.566	n/a	n/a	-999	4	[3, 7, 1]	11	FR1	0	R1032D
475.564	4.751	842028	PROB	4.751	n/a	n/a	-999	4	[3, 6, 8]	17	FR1	0	R1032D
480.315	3.222	849629	PROB	3.222	n/a	n/a	-999	4	[5, 2, 6]	13	FR1	0	R1032D
483.537	0.012	854784	STOP	n/a	n/a	n/a	-999	4	[-999, -999, -999]	n/a	FR1	0	R1032D
483.549	1.084	854804	DISTRACT_END	n/a	n/a	n/a	-999	4	[0, 0, 0]	n/a	FR1	0	R1032D
484.633	3.235	856538	REC_START	n/a	n/a	n/a	-999	4	[0, 0, 0]	n/a	FR1	0	R1032D
487.868	1.297	861714	REC_WORD	1.297	n/a	COW	-999	4	[0, 0, 0]	n/a	FR1	0	R1032D
489.165	1.353	863789	REC_WORD	1.353	n/a	BEE	-999	4	[0, 0, 0]	n/a	FR1	0	R1032D
490.518	2.122	865953	REC_WORD	2.122	n/a	SEAL	-999	4	[0, 0, 0]	n/a	FR1	0	R1032D
492.64	10.681	869348	REC_WORD	10.681	n/a	BUSH	-999	4	[0, 0, 0]	n/a	FR1	0	R1032D
503.321	11.322	886437	REC_WORD	11.322	n/a	TEETH	-999	4	[0, 0, 0]	n/a	FR1	0	R1032D
514.643	2.728	904552	REC_END	n/a	n/a	n/a	-999	4	[0, 0, 0]	n/a	FR1	0	R1032D
517.371	0.001	908916	COUNTDOWN_START	n/a	n/a	n/a	-999	5	[0, 0, 0]	n/a	FR1	0	R1032D
517.372	10.427	908918	TRIAL	n/a	n/a	n/a	-999	5	[0, 0, 0]	n/a	FR1	0	R1032D
527.799	0.008	925600	COUNTDOWN_END	n/a	n/a	n/a	-999	5	[0, 0, 0]	n/a	FR1	0	R1032D
527.807	2.6	925613	ORIENT	n/a	n/a	n/a	-999	5	[0, 0, 0]	n/a	FR1	0	R1032D
530.407	2.501	929773	WORD	n/a	wordpools/wordpool_EN.txt	LEG	1	5	[0, 0, 0]	n/a	FR1	0	R1032D
532.908	2.4	933774	WORD	n/a	wordpools/wordpool_EN.txt	CORD	2	5	[0, 0, 0]	n/a	FR1	0	R1032D
535.308	2.384	937614	WORD	n/a	wordpools/wordpool_EN.txt	BOX	3	5	[0, 0, 0]	n/a	FR1	0	R1032D
537.692	2.5	941428	WORD	n/a	wordpools/wordpool_EN.txt	HORN	4	5	[0, 0, 0]	n/a	FR1	0	R1032D
540.192	2.584	945428	WORD	n/a	wordpools/wordpool_EN.txt	FENCE	5	5	[0, 0, 0]	n/a	FR1	0	R1032D
542.776	2.434	949562	WORD	n/a	wordpools/wordpool_EN.txt	BENCH	6	5	[0, 0, 0]	n/a	FR1	0	R1032D
545.21	2.45	953456	WORD	n/a	wordpools/wordpool_EN.txt	TRAY	7	5	[0, 0, 0]	n/a	FR1	0	R1032D
547.66	2.469	957376	WORD	n/a	wordpools/wordpool_EN.txt	TOY	8	5	[0, 0, 0]	n/a	FR1	0	R1032D
550.129	2.565	961326	WORD	n/a	wordpools/wordpool_EN.txt	HOLE	9	5	[0, 0, 0]	n/a	FR1	0	R1032D
552.694	2.385	965430	WORD	n/a	wordpools/wordpool_EN.txt	BATH	10	5	[0, 0, 0]	n/a	FR1	0	R1032D
555.079	2.517	969246	WORD	n/a	wordpools/wordpool_EN.txt	JAR	11	5	[0, 0, 0]	n/a	FR1	0	R1032D
557.596	1.616	973273	WORD	n/a	wordpools/wordpool_EN.txt	HOSE	12	5	[0, 0, 0]	n/a	FR1	0	R1032D
559.212	0.001	975858	DISTRACT_START	n/a	n/a	n/a	-999	5	[0, 0, 0]	n/a	FR1	0	R1032D
559.213	0.016	975860	START	n/a	n/a	n/a	-999	5	[-999, -999, -999]	n/a	FR1	0	R1032D
559.229	3.251	975886	PROB	3.251	n/a	n/a	-999	5	[3, 2, 9]	14	FR1	0	R1032D
562.48	2.917	981087	PROB	2.917	n/a	n/a	-999	5	[3, 5, 5]	13	FR1	0	R1032D
565.397	2.618	985754	PROB	2.618	n/a	n/a	-999	5	[1, 6, 1]	8	FR1	0	R1032D
568.015	3.134	989942	PROB	3.134	n/a	n/a	-999	5	[8, 3, 7]	18	FR1	0	R1032D
571.149	2.984	994957	PROB	2.984	n/a	n/a	-999	5	[7, 7, 5]	19	FR1	0	R1032D
574.133	2.649	999731	PROB	2.649	n/a	n/a	-999	5	[6, 3, 2]	11	FR1	0	R1032D
576.782	4.058	1003969	PROB	4.058	n/a	n/a	-999	5	[7, 8, 9]	24	FR1	0	R1032D
580.84	0.01	1010461	STOP	n/a	n/a	n/a	-999	5	[-999, -999, -999]	n/a	FR1	0	R1032D
580.85	1.185	1010477	DISTRACT_END	n/a	n/a	n/a	-999	5	[0, 0, 0]	n/a	FR1	0	R1032D
582.035	12.095	1012373	REC_START	n/a	n/a	n/a	-999	5	[0, 0, 0]	n/a	FR1	0	R1032D
594.13	1.539	1031724	REC_WORD	1.539	n/a	LEG	-999	5	[0, 0, 0]	n/a	FR1	0	R1032D
595.669	2.0	1034187	REC_WORD	2.0	n/a	HORN	-999	5	[0, 0, 0]	n/a	FR1	0	R1032D
597.669	1.954	1037387	REC_WORD	1.954	n/a	FENCE	-999	5	[0, 0, 0]	n/a	FR1	0	R1032D
599.623	10.412	1040513	REC_WORD	10.412	n/a	BENCH	-999	5	[0, 0, 0]	n/a	FR1	0	R1032D
610.035	2.01	1057171	REC_WORD_VV	2.01	n/a	<>	-999	5	[0, 0, 0]	n/a	FR1	0	R1032D
612.045	2.811	1060387	REC_END	n/a	n/a	n/a	-999	5	[0, 0, 0]	n/a	FR1	0	R1032D
614.856	0.0	1064884	TRIAL	n/a	n/a	n/a	-999	6	[0, 0, 0]	n/a	FR1	0	R1032D
614.856	10.428	1064884	COUNTDOWN_START	n/a	n/a	n/a	-999	6	[0, 0, 0]	n/a	FR1	0	R1032D
625.284	0.007	1081568	COUNTDOWN_END	n/a	n/a	n/a	-999	6	[0, 0, 0]	n/a	FR1	0	R1032D
625.291	2.401	1081580	ORIENT	n/a	n/a	n/a	-999	6	[0, 0, 0]	n/a	FR1	0	R1032D
627.692	2.418	1085421	WORD	n/a	wordpools/wordpool_EN.txt	SHIRT	1	6	[0, 0, 0]	n/a	FR1	0	R1032D
630.11	2.399	1089290	WORD	n/a	wordpools/wordpool_EN.txt	ROPE	2	6	[0, 0, 0]	n/a	FR1	0	R1032D
632.509	2.468	1093128	WORD	n/a	wordpools/wordpool_EN.txt	EEL	3	6	[0, 0, 0]	n/a	FR1	0	R1032D
634.977	2.4	1097076	WORD	n/a	wordpools/wordpool_EN.txt	BAND	4	6	[0, 0, 0]	n/a	FR1	0	R1032D
637.377	2.484	1100916	WORD	n/a	wordpools/wordpool_EN.txt	GOAT	5	6	[0, 0, 0]	n/a	FR1	0	R1032D
639.861	2.483	1104890	WORD	n/a	wordpools/wordpool_EN.txt	YARD	6	6	[0, 0, 0]	n/a	FR1	0	R1032D
642.344	2.618	1108863	WORD	n/a	wordpools/wordpool_EN.txt	FOAM	7	6	[0, 0, 0]	n/a	FR1	0	R1032D
644.962	2.617	1113052	WORD	n/a	wordpools/wordpool_EN.txt	GATE	8	6	[0, 0, 0]	n/a	FR1	0	R1032D
647.579	2.568	1117239	WORD	n/a	wordpools/wordpool_EN.txt	POOL	9	6	[0, 0, 0]	n/a	FR1	0	R1032D
650.147	2.449	1121347	WORD	n/a	wordpools/wordpool_EN.txt	LAKE	10	6	[0, 0, 0]	n/a	FR1	0	R1032D
652.596	2.502	1125265	WORD	n/a	wordpools/wordpool_EN.txt	GUARD	11	6	[0, 0, 0]	n/a	FR1	0	R1032D
655.098	1.616	1129268	WORD	n/a	wordpools/wordpool_EN.txt	RUG	12	6	[0, 0, 0]	n/a	FR1	0	R1032D
656.714	0.001	1131854	DISTRACT_START	n/a	n/a	n/a	-999	6	[0, 0, 0]	n/a	FR1	0	R1032D
656.715	0.015	1131855	START	n/a	n/a	n/a	-999	6	[-999, -999, -999]	n/a	FR1	0	R1032D
656.73	3.884	1131879	PROB	3.884	n/a	n/a	-999	6	[2, 5, 2]	9	FR1	0	R1032D
660.614	4.436	1138094	PROB	4.436	n/a	n/a	-999	6	[1, 4, 1]	6	FR1	0	R1032D
665.05	2.983	1145191	PROB	2.983	n/a	n/a	-999	6	[8, 7, 5]	20	FR1	0	R1032D
668.033	3.283	1149963	PROB	3.283	n/a	n/a	-999	6	[1, 6, 3]	10	FR1	0	R1032D
671.316	3.852	1155216	PROB	3.852	n/a	n/a	-999	6	[2, 5, 5]	12	FR1	0	R1032D
675.168	4.384	1161379	PROB	4.384	n/a	n/a	-999	6	[5, 2, 7]	14	FR1	0	R1032D
679.552	0.016	1168393	STOP	n/a	n/a	n/a	-999	6	[-999, -999, -999]	n/a	FR1	0	R1032D
679.568	1.034	1168418	DISTRACT_END	n/a	n/a	n/a	-999	6	[0, 0, 0]	n/a	FR1	0	R1032D
680.602	30.0	1170073	REC_START	n/a	n/a	n/a	-999	6	[0, 0, 0]	n/a	FR1	0	R1032D
710.602	0.01	1218070	REC_WORD_VV	0.01	n/a	<>	-999	6	[0, 0, 0]	n/a	FR1	0	R1032D
710.612	3.712	1218086	REC_END	n/a	n/a	n/a	-999	6	[0, 0, 0]	n/a	FR1	0	R1032D
714.324	0.0	1224025	TRIAL	n/a	n/a	n/a	-999	7	[0, 0, 0]	n/a	FR1	0	R1032D
714.324	10.428	1224025	COUNTDOWN_START	n/a	n/a	n/a	-999	7	[0, 0, 0]	n/a	FR1	0	R1032D
724.752	0.008	1240709	COUNTDOWN_END	n/a	n/a	n/a	-999	7	[0, 0, 0]	n/a	FR1	0	R1032D
724.76	2.418	1240722	ORIENT	n/a	n/a	n/a	-999	7	[0, 0, 0]	n/a	FR1	0	R1032D
727.178	2.399	1244591	WORD	n/a	wordpools/wordpool_EN.txt	STORE	1	7	[0, 0, 0]	n/a	FR1	0	R1032D
729.577	2.552	1248429	WORD	n/a	wordpools/wordpool_EN.txt	BEAR	2	7	[0, 0, 0]	n/a	FR1	0	R1032D
732.129	2.532	1252512	WORD	n/a	wordpools/wordpool_EN.txt	BLOOM	3	7	[0, 0, 0]	n/a	FR1	0	R1032D
734.661	2.617	1256563	WORD	n/a	wordpools/wordpool_EN.txt	SHEEP	4	7	[0, 0, 0]	n/a	FR1	0	R1032D
737.278	2.468	1260750	WORD	n/a	wordpools/wordpool_EN.txt	DEER	5	7	[0, 0, 0]	n/a	FR1	0	R1032D
739.746	2.617	1264698	WORD	n/a	wordpools/wordpool_EN.txt	SMOKE	6	7	[0, 0, 0]	n/a	FR1	0	R1032D
742.363	2.55	1268885	WORD	n/a	wordpools/wordpool_EN.txt	BREAD	7	7	[0, 0, 0]	n/a	FR1	0	R1032D
744.913	2.601	1272965	WORD	n/a	wordpools/wordpool_EN.txt	FLUTE	8	7	[0, 0, 0]	n/a	FR1	0	R1032D
747.514	2.468	1277127	WORD	n/a	wordpools/wordpool_EN.txt	FARM	9	7	[0, 0, 0]	n/a	FR1	0	R1032D
749.982	2.499	1281075	WORD	n/a	wordpools/wordpool_EN.txt	HORSE	10	7	[0, 0, 0]	n/a	FR1	0	R1032D
752.481	2.401	1285073	WORD	n/a	wordpools/wordpool_EN.txt	HEART	11	7	[0, 0, 0]	n/a	FR1	0	R1032D
754.882	1.617	1288915	WORD	n/a	wordpools/wordpool_EN.txt	PRINCE	12	7	[0, 0, 0]	n/a	FR1	0	R1032D
756.499	0.001	1291502	DISTRACT_START	n/a	n/a	n/a	-999	7	[0, 0, 0]	n/a	FR1	0	R1032D
756.5	0.015	1291504	START	n/a	n/a	n/a	-999	7	[-999, -999, -999]	n/a	FR1	0	R1032D
756.515	3.201	1291528	PROB	3.201	n/a	n/a	-999	7	[3, 2, 2]	7	FR1	0	R1032D
759.716	3.051	1296649	PROB	3.051	n/a	n/a	-999	7	[8, 3, 9]	20	FR1	0	R1032D
762.767	2.817	1301530	PROB	2.817	n/a	n/a	-999	7	[2, 1, 4]	7	FR1	0	R1032D
765.584	3.867	1306037	PROB	3.867	n/a	n/a	-999	7	[1, 9, 9]	19	FR1	0	R1032D
769.451	3.818	1312224	PROB	3.818	n/a	n/a	-999	7	[9, 4, 3]	16	FR1	0	R1032D
773.269	3.532	1318333	PROB	3.532	n/a	n/a	-999	7	[8, 1, 1]	10	FR1	0	R1032D
776.801	0.018	1323983	STOP	n/a	n/a	n/a	-999	7	[-999, -999, -999]	n/a	FR1	0	R1032D
776.819	1.151	1324012	DISTRACT_END	n/a	n/a	n/a	-999	7	[0, 0, 0]	n/a	FR1	0	R1032D
777.97	1.818	1325854	REC_START	n/a	n/a	n/a	-999	7	[0, 0, 0]	n/a	FR1	0	R1032D
779.788	1.374	1328762	REC_WORD	1.374	n/a	BEAR	-999	7	[0, 0, 0]	n/a	FR1	0	R1032D
781.162	1.504	1330961	REC_WORD	1.504	n/a	SHEEP	-999	7	[0, 0, 0]	n/a	FR1	0	R1032D
782.666	1.81	1333367	REC_WORD	1.81	n/a	FARM	-999	7	[0, 0, 0]	n/a	FR1	0	R1032D
784.476	23.505	1336263	REC_WORD	23.505	n/a	HORSE	-999	7	[0, 0, 0]	n/a	FR1	0	R1032D
807.981	2.828	1373869	REC_END	n/a	n/a	n/a	-999	7	[0, 0, 0]	n/a	FR1	0	R1032D
810.809	0.0	1378394	TRIAL	n/a	n/a	n/a	-999	8	[0, 0, 0]	n/a	FR1	0	R1032D
810.809	10.428	1378394	COUNTDOWN_START	n/a	n/a	n/a	-999	8	[0, 0, 0]	n/a	FR1	0	R1032D
821.237	0.007	1395078	COUNTDOWN_END	n/a	n/a	n/a	-999	8	[0, 0, 0]	n/a	FR1	0	R1032D
821.244	2.534	1395089	ORIENT	n/a	n/a	n/a	-999	8	[0, 0, 0]	n/a	FR1	0	R1032D
823.778	2.385	1399143	WORD	n/a	wordpools/wordpool_EN.txt	CAT	1	8	[0, 0, 0]	n/a	FR1	0	R1032D
826.163	2.516	1402959	WORD	n/a	wordpools/wordpool_EN.txt	KEY	2	8	[0, 0, 0]	n/a	FR1	0	R1032D
828.679	2.468	1406984	WORD	n/a	wordpools/wordpool_EN.txt	WHALE	3	8	[0, 0, 0]	n/a	FR1	0	R1032D
831.147	2.566	1410933	WORD	n/a	wordpools/wordpool_EN.txt	SIGN	4	8	[0, 0, 0]	n/a	FR1	0	R1032D
833.713	2.451	1415038	WORD	n/a	wordpools/wordpool_EN.txt	CAR	5	8	[0, 0, 0]	n/a	FR1	0	R1032D
836.164	2.466	1418960	WORD	n/a	wordpools/wordpool_EN.txt	WAVE	6	8	[0, 0, 0]	n/a	FR1	0	R1032D
838.63	2.502	1422905	WORD	n/a	wordpools/wordpool_EN.txt	JAIL	7	8	[0, 0, 0]	n/a	FR1	0	R1032D
841.132	2.483	1426908	WORD	n/a	wordpools/wordpool_EN.txt	JUDGE	8	8	[0, 0, 0]	n/a	FR1	0	R1032D
843.615	2.451	1430881	WORD	n/a	wordpools/wordpool_EN.txt	DRESS	9	8	[0, 0, 0]	n/a	FR1	0	R1032D
846.066	2.466	1434802	WORD	n/a	wordpools/wordpool_EN.txt	EAR	10	8	[0, 0, 0]	n/a	FR1	0	R1032D
848.532	2.518	1438747	WORD	n/a	wordpools/wordpool_EN.txt	SKI	11	8	[0, 0, 0]	n/a	FR1	0	R1032D
851.05	1.616	1442776	WORD	n/a	wordpools/wordpool_EN.txt	TRAIN	12	8	[0, 0, 0]	n/a	FR1	0	R1032D
852.666	0.001	1445361	DISTRACT_START	n/a	n/a	n/a	-999	8	[0, 0, 0]	n/a	FR1	0	R1032D
852.667	0.016	1445363	START	n/a	n/a	n/a	-999	8	[-999, -999, -999]	n/a	FR1	0	R1032D
852.683	3.251	1445389	PROB	3.251	n/a	n/a	-999	8	[4, 1, 5]	10	FR1	0	R1032D
855.934	2.85	1450590	PROB	2.85	n/a	n/a	-999	8	[5, 2, 8]	15	FR1	0	R1032D
858.784	3.184	1455150	PROB	3.184	n/a	n/a	-999	8	[2, 2, 9]	13	FR1	0	R1032D
861.968	4.651	1460244	PROB	4.651	n/a	n/a	-999	8	[8, 9, 8]	25	FR1	0	R1032D
866.619	2.617	1467685	PROB	2.617	n/a	n/a	-999	8	[1, 1, 9]	11	FR1	0	R1032D
869.236	6.076	1471872	PROB	6.076	n/a	n/a	-999	8	[2, 7, 5]	14	FR1	0	R1032D
875.312	0.009	1481593	STOP	n/a	n/a	n/a	-999	8	[-999, -999, -999]	n/a	FR1	0	R1032D
875.321	1.05	1481608	DISTRACT_END	n/a	n/a	n/a	-999	8	[0, 0, 0]	n/a	FR1	0	R1032D
876.371	2.395	1483288	REC_START	n/a	n/a	n/a	-999	8	[0, 0, 0]	n/a	FR1	0	R1032D
878.766	1.442	1487119	REC_WORD	1.442	n/a	WHALE	-999	8	[0, 0, 0]	n/a	FR1	0	R1032D
880.208	1.395	1489426	REC_WORD	1.395	n/a	JAIL	-999	8	[0, 0, 0]	n/a	FR1	0	R1032D
881.603	1.751	1491658	REC_WORD	1.751	n/a	DRESS	-999	8	[0, 0, 0]	n/a	FR1	0	R1032D
883.354	2.03	1494460	REC_WORD	2.03	n/a	EAR	-999	8	[0, 0, 0]	n/a	FR1	0	R1032D
885.384	4.998	1497708	REC_WORD	4.998	n/a	CAT	-999	8	[0, 0, 0]	n/a	FR1	0	R1032D
890.382	16.002	1505704	REC_WORD	16.002	n/a	SIGN	-999	8	[0, 0, 0]	n/a	FR1	0	R1032D
906.384	2.409	1531306	REC_END	n/a	n/a	n/a	-999	8	[0, 0, 0]	n/a	FR1	0	R1032D
908.793	0.001	1535160	COUNTDOWN_START	n/a	n/a	n/a	-999	9	[0, 0, 0]	n/a	FR1	0	R1032D
908.794	10.427	1535162	TRIAL	n/a	n/a	n/a	-999	9	[0, 0, 0]	n/a	FR1	0	R1032D
919.221	0.008	1551844	COUNTDOWN_END	n/a	n/a	n/a	-999	9	[0, 0, 0]	n/a	FR1	0	R1032D
919.229	2.483	1551857	ORIENT	n/a	n/a	n/a	-999	9	[0, 0, 0]	n/a	FR1	0	R1032D
921.712	2.435	1555830	WORD	n/a	wordpools/wordpool_EN.txt	GRASS	1	9	[0, 0, 0]	n/a	FR1	0	R1032D
924.147	2.383	1559725	WORD	n/a	wordpools/wordpool_EN.txt	CLOWN	2	9	[0, 0, 0]	n/a	FR1	0	R1032D
926.53	2.4	1563538	WORD	n/a	wordpools/wordpool_EN.txt	WOOD	3	9	[0, 0, 0]	n/a	FR1	0	R1032D
928.93	2.534	1567378	WORD	n/a	wordpools/wordpool_EN.txt	CALF	4	9	[0, 0, 0]	n/a	FR1	0	R1032D
931.464	2.401	1571432	WORD	n/a	wordpools/wordpool_EN.txt	FORK	5	9	[0, 0, 0]	n/a	FR1	0	R1032D
933.865	2.567	1575273	WORD	n/a	wordpools/wordpool_EN.txt	ARM	6	9	[0, 0, 0]	n/a	FR1	0	R1032D
936.432	2.585	1579380	WORD	n/a	wordpools/wordpool_EN.txt	SPOON	7	9	[0, 0, 0]	n/a	FR1	0	R1032D
939.017	2.416	1583516	WORD	n/a	wordpools/wordpool_EN.txt	PEAR	8	9	[0, 0, 0]	n/a	FR1	0	R1032D
941.433	2.568	1587382	WORD	n/a	wordpools/wordpool_EN.txt	SPONGE	9	9	[0, 0, 0]	n/a	FR1	0	R1032D
944.001	2.499	1591490	WORD	n/a	wordpools/wordpool_EN.txt	FISH	10	9	[0, 0, 0]	n/a	FR1	0	R1032D
946.5	2.602	1595488	WORD	n/a	wordpools/wordpool_EN.txt	EGG	11	9	[0, 0, 0]	n/a	FR1	0	R1032D
949.102	1.616	1599651	WORD	n/a	wordpools/wordpool_EN.txt	WORLD	12	9	[0, 0, 0]	n/a	FR1	0	R1032D
950.718	0.001	1602237	DISTRACT_START	n/a	n/a	n/a	-999	9	[0, 0, 0]	n/a	FR1	0	R1032D
950.719	0.015	1602238	START	n/a	n/a	n/a	-999	9	[-999, -999, -999]	n/a	FR1	0	R1032D
950.734	4.801	1602262	PROB	4.801	n/a	n/a	-999	9	[1, 6, 5]	12	FR1	0	R1032D
955.535	2.984	1609944	PROB	2.984	n/a	n/a	-999	9	[6, 5, 3]	14	FR1	0	R1032D
958.519	4.068	1614718	PROB	4.068	n/a	n/a	-999	9	[7, 6, 3]	16	FR1	0	R1032D
962.587	3.25	1621226	PROB	3.25	n/a	n/a	-999	9	[9, 5, 2]	16	FR1	0	R1032D
965.837	2.601	1626426	PROB	2.601	n/a	n/a	-999	9	[6, 3, 3]	12	FR1	0	R1032D
968.438	2.93	1630587	PROB	2.93	n/a	n/a	-999	9	[8, 8, 6]	22	FR1	0	R1032D
971.368	0.003	1635275	STOP	n/a	n/a	n/a	-999	9	[-999, -999, -999]	n/a	FR1	0	R1032D
971.371	1.052	1635280	DISTRACT_END	n/a	n/a	n/a	-999	9	[0, 0, 0]	n/a	FR1	0	R1032D
972.423	3.711	1636963	REC_START	n/a	n/a	n/a	-999	9	[0, 0, 0]	n/a	FR1	0	R1032D
976.134	7.228	1642900	REC_WORD	7.228	n/a	WHALE	-999	9	[0, 0, 0]	n/a	FR1	0	R1032D
983.362	1.216	1654465	REC_WORD	1.216	n/a	EGG	-999	9	[0, 0, 0]	n/a	FR1	0	R1032D
984.578	6.06	1656410	REC_WORD	6.06	n/a	WORLD	-999	9	[0, 0, 0]	n/a	FR1	0	R1032D
990.638	1.176	1666106	REC_WORD	1.176	n/a	FORK	-999	9	[0, 0, 0]	n/a	FR1	0	R1032D
991.814	10.621	1667987	REC_WORD	10.621	n/a	SPOON	-999	9	[0, 0, 0]	n/a	FR1	0	R1032D
1002.435	2.109	1684980	REC_END	n/a	n/a	n/a	-999	9	[0, 0, 0]	n/a	FR1	0	R1032D
1004.544	0.0	1688354	COUNTDOWN_START	n/a	n/a	n/a	-999	10	[0, 0, 0]	n/a	FR1	0	R1032D
1004.544	10.428	1688354	TRIAL	n/a	n/a	n/a	-999	10	[0, 0, 0]	n/a	FR1	0	R1032D
1014.972	0.009	1705038	COUNTDOWN_END	n/a	n/a	n/a	-999	10	[0, 0, 0]	n/a	FR1	0	R1032D
1014.981	2.566	1705053	ORIENT	n/a	n/a	n/a	-999	10	[0, 0, 0]	n/a	FR1	0	R1032D
1017.547	2.451	1709158	WORD	n/a	wordpools/wordpool_EN.txt	SPRING	1	10	[0, 0, 0]	n/a	FR1	0	R1032D
1019.998	2.533	1713079	WORD	n/a	wordpools/wordpool_EN.txt	SALT	2	10	[0, 0, 0]	n/a	FR1	0	R1032D
1022.531	2.585	1717132	WORD	n/a	wordpools/wordpool_EN.txt	FOOT	3	10	[0, 0, 0]	n/a	FR1	0	R1032D
1025.116	2.399	1721268	WORD	n/a	wordpools/wordpool_EN.txt	FLEA	4	10	[0, 0, 0]	n/a	FR1	0	R1032D
1027.515	2.485	1725106	WORD	n/a	wordpools/wordpool_EN.txt	SHRIMP	5	10	[0, 0, 0]	n/a	FR1	0	R1032D
1030.0	2.616	1729082	WORD	n/a	wordpools/wordpool_EN.txt	STEAM	6	10	[0, 0, 0]	n/a	FR1	0	R1032D
1032.616	2.617	1733267	WORD	n/a	wordpools/wordpool_EN.txt	ELF	7	10	[0, 0, 0]	n/a	FR1	0	R1032D
1035.233	2.401	1737454	WORD	n/a	wordpools/wordpool_EN.txt	MOLE	8	10	[0, 0, 0]	n/a	FR1	0	R1032D
1037.634	2.518	1741296	WORD	n/a	wordpools/wordpool_EN.txt	THUMB	9	10	[0, 0, 0]	n/a	FR1	0	R1032D
1040.152	2.383	1745324	WORD	n/a	wordpools/wordpool_EN.txt	POND	10	10	[0, 0, 0]	n/a	FR1	0	R1032D
1042.535	2.534	1749137	WORD	n/a	wordpools/wordpool_EN.txt	DITCH	11	10	[0, 0, 0]	n/a	FR1	0	R1032D
1045.069	1.616	1753191	WORD	n/a	wordpools/wordpool_EN.txt	RAT	12	10	[0, 0, 0]	n/a	FR1	0	R1032D
1046.685	0.001	1755776	DISTRACT_START	n/a	n/a	n/a	-999	10	[0, 0, 0]	n/a	FR1	0	R1032D
1046.686	0.016	1755778	START	n/a	n/a	n/a	-999	10	[-999, -999, -999]	n/a	FR1	0	R1032D
1046.702	5.285	1755804	PROB	5.285	n/a	n/a	-999	10	[1, 6, 3]	10	FR1	0	R1032D
1051.987	3.333	1764259	PROB	3.333	n/a	n/a	-999	10	[6, 7, 6]	19	FR1	0	R1032D
1055.32	5.201	1769592	PROB	5.201	n/a	n/a	-999	10	[8, 9, 7]	24	FR1	0	R1032D
1060.521	3.585	1777913	PROB	3.585	n/a	n/a	-999	10	[1, 7, 7]	15	FR1	0	R1032D
1064.106	3.415	1783649	PROB	3.415	n/a	n/a	-999	10	[5, 7, 8]	20	FR1	0	R1032D
1067.521	0.018	1789112	STOP	n/a	n/a	n/a	-999	10	[-999, -999, -999]	n/a	FR1	0	R1032D
1067.539	1.051	1789141	DISTRACT_END	n/a	n/a	n/a	-999	10	[0, 0, 0]	n/a	FR1	0	R1032D
1068.59	8.025	1790823	REC_START	n/a	n/a	n/a	-999	10	[0, 0, 0]	n/a	FR1	0	R1032D
1076.615	8.498	1803662	REC_WORD	8.498	n/a	MOLE	-999	10	[0, 0, 0]	n/a	FR1	0	R1032D
1085.113	4.866	1817258	REC_WORD	4.866	n/a	BRIDGE	-999	10	[0, 0, 0]	n/a	FR1	0	R1032D
1089.979	8.623	1825043	REC_WORD	8.623	n/a	THUMB	-999	10	[0, 0, 0]	n/a	FR1	0	R1032D
1098.602	3.26	1838840	REC_END	n/a	n/a	n/a	-999	10	[0, 0, 0]	n/a	FR1	0	R1032D
1101.862	0.0	1844055	TRIAL	n/a	n/a	n/a	-999	11	[0, 0, 0]	n/a	FR1	0	R1032D
1101.862	10.428	1844055	COUNTDOWN_START	n/a	n/a	n/a	-999	11	[0, 0, 0]	n/a	FR1	0	R1032D
1112.29	0.007	1860739	COUNTDOWN_END	n/a	n/a	n/a	-999	11	[0, 0, 0]	n/a	FR1	0	R1032D
1112.297	2.484	1860750	ORIENT	n/a	n/a	n/a	-999	11	[0, 0, 0]	n/a	FR1	0	R1032D
1114.781	2.601	1864725	WORD	n/a	wordpools/wordpool_EN.txt	SNAIL	1	11	[0, 0, 0]	n/a	FR1	0	R1032D
1117.382	2.433	1868886	WORD	n/a	wordpools/wordpool_EN.txt	CROW	2	11	[0, 0, 0]	n/a	FR1	0	R1032D
1119.815	2.618	1872779	WORD	n/a	wordpools/wordpool_EN.txt	MOTH	3	11	[0, 0, 0]	n/a	FR1	0	R1032D
1122.433	2.617	1876967	WORD	n/a	wordpools/wordpool_EN.txt	BRANCH	4	11	[0, 0, 0]	n/a	FR1	0	R1032D
1125.05	2.55	1881154	WORD	n/a	wordpools/wordpool_EN.txt	MOUSE	5	11	[0, 0, 0]	n/a	FR1	0	R1032D
1127.6	2.502	1885234	WORD	n/a	wordpools/wordpool_EN.txt	WEB	6	11	[0, 0, 0]	n/a	FR1	0	R1032D
1130.102	2.382	1889237	WORD	n/a	wordpools/wordpool_EN.txt	RAKE	7	11	[0, 0, 0]	n/a	FR1	0	R1032D
1132.484	2.451	1893048	WORD	n/a	wordpools/wordpool_EN.txt	KITE	8	11	[0, 0, 0]	n/a	FR1	0	R1032D
1134.935	2.6	1896969	WORD	n/a	wordpools/wordpool_EN.txt	HAWK	9	11	[0, 0, 0]	n/a	FR1	0	R1032D
1137.535	2.485	1901129	WORD	n/a	wordpools/wordpool_EN.txt	SNAKE	10	11	[0, 0, 0]	n/a	FR1	0	R1032D
1140.02	2.416	1905105	WORD	n/a	wordpools/wordpool_EN.txt	OWL	11	11	[0, 0, 0]	n/a	FR1	0	R1032D
1142.436	1.601	1908970	WORD	n/a	wordpools/wordpool_EN.txt	TENT	12	11	[0, 0, 0]	n/a	FR1	0	R1032D
1144.037	0.001	1911532	DISTRACT_START	n/a	n/a	n/a	-999	11	[0, 0, 0]	n/a	FR1	0	R1032D
1144.038	0.016	1911534	START	n/a	n/a	n/a	-999	11	[-999, -999, -999]	n/a	FR1	0	R1032D
1144.054	3.517	1911559	PROB	3.517	n/a	n/a	-999	11	[2, 3, 8]	13	FR1	0	R1032D
1147.571	3.601	1917186	PROB	3.601	n/a	n/a	-999	11	[6, 4, 8]	18	FR1	0	R1032D
1151.172	4.633	1922947	PROB	4.633	n/a	n/a	-999	11	[1, 8, 8]	17	FR1	0	R1032D
1155.805	4.568	1930360	PROB	4.568	n/a	n/a	-999	11	[9, 8, 4]	21	FR1	0	R1032D
1160.373	3.001	1937668	PROB	3.001	n/a	n/a	-999	11	[7, 1, 4]	12	FR1	0	R1032D
1163.374	2.283	1942470	PROB	2.283	n/a	n/a	-999	11	[3, 3, 3]	9	FR1	0	R1032D
1165.657	0.017	1946122	STOP	n/a	n/a	n/a	-999	11	[-999, -999, -999]	n/a	FR1	0	R1032D
1165.674	1.241	1946149	DISTRACT_END	n/a	n/a	n/a	-999	11	[0, 0, 0]	n/a	FR1	0	R1032D
1166.915	1.573	1948135	REC_START	n/a	n/a	n/a	-999	11	[0, 0, 0]	n/a	FR1	0	R1032D
1168.488	1.908	1950652	REC_WORD	1.908	n/a	SNAIL	-999	11	[0, 0, 0]	n/a	FR1	0	R1032D
1170.396	1.767	1953704	REC_WORD	1.767	n/a	CROW	-999	11	[0, 0, 0]	n/a	FR1	0	R1032D
1172.163	1.189	1956531	REC_WORD	1.189	n/a	MOTH	-999	11	[0, 0, 0]	n/a	FR1	0	R1032D
1173.352	1.463	1958434	REC_WORD	1.463	n/a	MOUSE	-999	11	[0, 0, 0]	n/a	FR1	0	R1032D
1174.815	5.395	1960774	REC_WORD	5.395	n/a	SNAKE	-999	11	[0, 0, 0]	n/a	FR1	0	R1032D
1180.21	16.71	1969406	REC_WORD	16.71	n/a	HAWK	-999	11	[0, 0, 0]	n/a	FR1	0	R1032D
1196.92	2.56	1996141	REC_END	n/a	n/a	n/a	-999	11	[0, 0, 0]	n/a	FR1	0	R1032D
1199.48	0.0	2000236	COUNTDOWN_START	n/a	n/a	n/a	-999	12	[0, 0, 0]	n/a	FR1	0	R1032D
1199.48	10.428	2000236	TRIAL	n/a	n/a	n/a	-999	12	[0, 0, 0]	n/a	FR1	0	R1032D
1209.908	0.007	2016920	COUNTDOWN_END	n/a	n/a	n/a	-999	12	[0, 0, 0]	n/a	FR1	0	R1032D
1209.915	2.601	2016932	ORIENT	n/a	n/a	n/a	-999	12	[0, 0, 0]	n/a	FR1	0	R1032D
1212.516	2.384	2021093	WORD	n/a	wordpools/wordpool_EN.txt	GOLD	1	12	[0, 0, 0]	n/a	FR1	0	R1032D
1214.9	2.617	2024907	WORD	n/a	wordpools/wordpool_EN.txt	JET	2	12	[0, 0, 0]	n/a	FR1	0	R1032D
1217.517	2.45	2029094	WORD	n/a	wordpools/wordpool_EN.txt	CASH	3	12	[0, 0, 0]	n/a	FR1	0	R1032D
1219.967	2.484	2033014	WORD	n/a	wordpools/wordpool_EN.txt	BANK	4	12	[0, 0, 0]	n/a	FR1	0	R1032D
1222.451	2.484	2036988	WORD	n/a	wordpools/wordpool_EN.txt	BOMB	5	12	[0, 0, 0]	n/a	FR1	0	R1032D
1224.935	2.567	2040962	WORD	n/a	wordpools/wordpool_EN.txt	MAIL	6	12	[0, 0, 0]	n/a	FR1	0	R1032D
1227.502	2.601	2045069	WORD	n/a	wordpools/wordpool_EN.txt	BOOK	7	12	[0, 0, 0]	n/a	FR1	0	R1032D
1230.103	2.533	2049231	WORD	n/a	wordpools/wordpool_EN.txt	DART	8	12	[0, 0, 0]	n/a	FR1	0	R1032D
1232.636	2.567	2053283	WORD	n/a	wordpools/wordpool_EN.txt	MAP	9	12	[0, 0, 0]	n/a	FR1	0	R1032D
1235.203	2.418	2057390	WORD	n/a	wordpools/wordpool_EN.txt	FORT	10	12	[0, 0, 0]	n/a	FR1	0	R1032D
1237.621	2.484	2061259	WORD	n/a	wordpools/wordpool_EN.txt	TOAD	11	12	[0, 0, 0]	n/a	FR1	0	R1032D
1240.105	1.616	2065233	WORD	n/a	wordpools/wordpool_EN.txt	FILM	12	12	[0, 0, 0]	n/a	FR1	0	R1032D
1241.721	0.001	2067819	DISTRACT_START	n/a	n/a	n/a	-999	12	[0, 0, 0]	n/a	FR1	0	R1032D
1241.722	0.016	2067820	START	n/a	n/a	n/a	-999	12	[-999, -999, -999]	n/a	FR1	0	R1032D
1241.738	4.501	2067846	PROB	4.501	n/a	n/a	-999	12	[3, 9, 8]	20	FR1	0	R1032D
1246.239	3.284	2075047	PROB	3.284	n/a	n/a	-999	12	[9, 5, 7]	21	FR1	0	R1032D
1249.523	5.635	2080301	PROB	5.635	n/a	n/a	-999	12	[5, 6, 7]	17	FR1	0	R1032D
1255.158	5.717	2089317	PROB	5.717	n/a	n/a	-999	12	[4, 2, 8]	14	FR1	0	R1032D
1260.875	3.238	2098463	PROB	3.238	n/a	n/a	-999	12	[1, 1, 8]	10	FR1	0	R1032D
1264.113	0.013	2103644	STOP	n/a	n/a	n/a	-999	12	[-999, -999, -999]	n/a	FR1	0	R1032D
1264.126	1.074	2103665	DISTRACT_END	n/a	n/a	n/a	-999	12	[0, 0, 0]	n/a	FR1	0	R1032D
1265.2	4.613	2105383	REC_START	n/a	n/a	n/a	-999	12	[0, 0, 0]	n/a	FR1	0	R1032D
1269.813	2.454	2112764	REC_WORD	2.454	n/a	GOLD	-999	12	[0, 0, 0]	n/a	FR1	0	R1032D
1272.267	1.272	2116690	REC_WORD	1.272	n/a	BANK	-999	12	[0, 0, 0]	n/a	FR1	0	R1032D
1273.539	7.909	2118725	REC_WORD	7.909	n/a	CASH	-999	12	[0, 0, 0]	n/a	FR1	0	R1032D
1281.448	13.756	2131379	REC_WORD	13.756	n/a	FILM	-999	12	[0, 0, 0]	n/a	FR1	0	R1032D
1295.204	2.378	2153387	REC_END	n/a	n/a	n/a	-999	12	[0, 0, 0]	n/a	FR1	0	R1032D
1297.582	0.0	2157192	TRIAL	n/a	n/a	n/a	-999	13	[0, 0, 0]	n/a	FR1	0	R1032D
1297.582	10.428	2157192	COUNTDOWN_START	n/a	n/a	n/a	-999	13	[0, 0, 0]	n/a	FR1	0	R1032D
1308.01	0.008	2173876	COUNTDOWN_END	n/a	n/a	n/a	-999	13	[0, 0, 0]	n/a	FR1	0	R1032D
1308.018	2.616	2173889	ORIENT	n/a	n/a	n/a	-999	13	[0, 0, 0]	n/a	FR1	0	R1032D
1310.634	2.617	2178074	WORD	n/a	wordpools/wordpool_EN.txt	BED	1	13	[0, 0, 0]	n/a	FR1	0	R1032D
1313.251	2.6	2182261	WORD	n/a	wordpools/wordpool_EN.txt	AXE	2	13	[0, 0, 0]	n/a	FR1	0	R1032D
1315.851	2.601	2186421	WORD	n/a	wordpools/wordpool_EN.txt	PANTS	3	13	[0, 0, 0]	n/a	FR1	0	R1032D
1318.452	2.585	2190582	WORD	n/a	wordpools/wordpool_EN.txt	CLOCK	4	13	[0, 0, 0]	n/a	FR1	0	R1032D
1321.037	2.483	2194718	WORD	n/a	wordpools/wordpool_EN.txt	THREAD	5	13	[0, 0, 0]	n/a	FR1	0	R1032D
1323.52	2.584	2198691	WORD	n/a	wordpools/wordpool_EN.txt	FLAG	6	13	[0, 0, 0]	n/a	FR1	0	R1032D
1326.104	2.5	2202825	WORD	n/a	wordpools/wordpool_EN.txt	SUIT	7	13	[0, 0, 0]	n/a	FR1	0	R1032D
1328.604	2.401	2206825	WORD	n/a	wordpools/wordpool_EN.txt	CLIFF	8	13	[0, 0, 0]	n/a	FR1	0	R1032D
1331.005	2.483	2210666	WORD	n/a	wordpools/wordpool_EN.txt	CLOTH	9	13	[0, 0, 0]	n/a	FR1	0	R1032D
1333.488	2.434	2214639	WORD	n/a	wordpools/wordpool_EN.txt	BOAT	10	13	[0, 0, 0]	n/a	FR1	0	R1032D
1335.922	2.55	2218533	WORD	n/a	wordpools/wordpool_EN.txt	RIB	11	13	[0, 0, 0]	n/a	FR1	0	R1032D
1338.472	1.602	2222613	WORD	n/a	wordpools/wordpool_EN.txt	SOAP	12	13	[0, 0, 0]	n/a	FR1	0	R1032D
1340.074	0.0	2225176	DISTRACT_START	n/a	n/a	n/a	-999	13	[0, 0, 0]	n/a	FR1	0	R1032D
1340.074	0.016	2225176	START	n/a	n/a	n/a	-999	13	[-999, -999, -999]	n/a	FR1	0	R1032D
1340.09	3.8	2225201	PROB	3.8	n/a	n/a	-999	13	[9, 9, 8]	26	FR1	0	R1032D
1343.89	4.168	2231281	PROB	4.168	n/a	n/a	-999	13	[3, 8, 5]	16	FR1	0	R1032D
1348.058	2.883	2237949	PROB	2.883	n/a	n/a	-999	13	[6, 9, 5]	20	FR1	0	R1032D
1350.941	2.567	2242562	PROB	2.567	n/a	n/a	-999	13	[7, 7, 1]	15	FR1	0	R1032D
1353.508	3.535	2246669	PROB	3.535	n/a	n/a	-999	13	[3, 6, 3]	12	FR1	0	R1032D
1357.043	4.662	2252325	PROB	4.662	n/a	n/a	-999	13	[8, 4, 3]	15	FR1	0	R1032D
1361.705	0.005	2259783	STOP	n/a	n/a	n/a	-999	13	[-999, -999, -999]	n/a	FR1	0	R1032D
1361.71	1.051	2259791	DISTRACT_END	n/a	n/a	n/a	-999	13	[0, 0, 0]	n/a	FR1	0	R1032D
1362.761	3.159	2261473	REC_START	n/a	n/a	n/a	-999	13	[0, 0, 0]	n/a	FR1	0	R1032D
1365.92	3.951	2266527	REC_WORD	3.951	n/a	GOLD	-999	13	[0, 0, 0]	n/a	FR1	0	R1032D
1369.871	22.902	2272848	REC_WORD_VV	22.902	n/a	<>	-999	13	[0, 0, 0]	n/a	FR1	0	R1032D
1392.773	2.693	2309490	REC_END	n/a	n/a	n/a	-999	13	[0, 0, 0]	n/a	FR1	0	R1032D
1395.466	0.0	2313798	TRIAL	n/a	n/a	n/a	-999	14	[0, 0, 0]	n/a	FR1	0	R1032D
1395.466	10.428	2313798	COUNTDOWN_START	n/a	n/a	n/a	-999	14	[0, 0, 0]	n/a	FR1	0	R1032D
1405.894	0.007	2330482	COUNTDOWN_END	n/a	n/a	n/a	-999	14	[0, 0, 0]	n/a	FR1	0	R1032D
1405.901	2.434	2330494	ORIENT	n/a	n/a	n/a	-999	14	[0, 0, 0]	n/a	FR1	0	R1032D
1408.335	2.434	2334388	WORD	n/a	wordpools/wordpool_EN.txt	HEN	1	14	[0, 0, 0]	n/a	FR1	0	R1032D
1410.769	2.55	2338282	WORD	n/a	wordpools/wordpool_EN.txt	SINK	2	14	[0, 0, 0]	n/a	FR1	0	R1032D
1413.319	2.534	2342362	WORD	n/a	wordpools/wordpool_EN.txt	BOOT	3	14	[0, 0, 0]	n/a	FR1	0	R1032D
1415.853	2.601	2346416	WORD	n/a	wordpools/wordpool_EN.txt	CART	4	14	[0, 0, 0]	n/a	FR1	0	R1032D
1418.454	2.383	2350577	WORD	n/a	wordpools/wordpool_EN.txt	POLE	5	14	[0, 0, 0]	n/a	FR1	0	R1032D
1420.837	2.484	2354390	WORD	n/a	wordpools/wordpool_EN.txt	PIG	6	14	[0, 0, 0]	n/a	FR1	0	R1032D
1423.321	2.417	2358364	WORD	n/a	wordpools/wordpool_EN.txt	NOSE	7	14	[0, 0, 0]	n/a	FR1	0	R1032D
1425.738	2.601	2362231	WORD	n/a	wordpools/wordpool_EN.txt	MILK	8	14	[0, 0, 0]	n/a	FR1	0	R1032D
1428.339	2.417	2366393	WORD	n/a	wordpools/wordpool_EN.txt	BEAN	9	14	[0, 0, 0]	n/a	FR1	0	R1032D
1430.756	2.5	2370260	WORD	n/a	wordpools/wordpool_EN.txt	HAT	10	14	[0, 0, 0]	n/a	FR1	0	R1032D
1433.256	2.434	2374259	WORD	n/a	wordpools/wordpool_EN.txt	PIE	11	14	[0, 0, 0]	n/a	FR1	0	R1032D
1435.69	1.617	2378154	WORD	n/a	wordpools/wordpool_EN.txt	SLUSH	12	14	[0, 0, 0]	n/a	FR1	0	R1032D
1437.307	0.001	2380741	DISTRACT_START	n/a	n/a	n/a	-999	14	[0, 0, 0]	n/a	FR1	0	R1032D
1437.308	0.016	2380742	START	n/a	n/a	n/a	-999	14	[-999, -999, -999]	n/a	FR1	0	R1032D
1437.324	4.084	2380768	PROB	4.084	n/a	n/a	-999	14	[2, 9, 9]	20	FR1	0	R1032D
1441.408	2.167	2387302	PROB	2.167	n/a	n/a	-999	14	[8, 8, 4]	20	FR1	0	R1032D
1443.575	3.184	2390769	PROB	3.184	n/a	n/a	-999	14	[4, 8, 9]	21	FR1	0	R1032D
1446.759	2.65	2395863	PROB	2.65	n/a	n/a	-999	14	[2, 8, 1]	11	FR1	0	R1032D
1449.409	3.518	2400103	PROB	3.518	n/a	n/a	-999	14	[8, 8, 2]	18	FR1	0	R1032D
1452.927	3.5	2405731	PROB	3.5	n/a	n/a	-999	14	[2, 8, 4]	14	FR1	0	R1032D
1456.427	2.55	2411331	PROB	2.55	n/a	n/a	-999	14	[9, 6, 2]	17	FR1	0	R1032D
1458.977	0.018	2415411	STOP	n/a	n/a	n/a	-999	14	[-999, -999, -999]	n/a	FR1	0	R1032D
1458.995	1.101	2415440	DISTRACT_END	n/a	n/a	n/a	-999	14	[0, 0, 0]	n/a	FR1	0	R1032D
1460.096	1.764	2417201	REC_START	n/a	n/a	n/a	-999	14	[0, 0, 0]	n/a	FR1	0	R1032D
1461.86	1.556	2420024	REC_WORD	1.556	n/a	HEN	-999	14	[0, 0, 0]	n/a	FR1	0	R1032D
1463.416	1.599	2422513	REC_WORD	1.599	n/a	PIG	-999	14	[0, 0, 0]	n/a	FR1	0	R1032D
1465.015	1.657	2425071	REC_WORD	1.657	n/a	MILK	-999	14	[0, 0, 0]	n/a	FR1	0	R1032D
1466.672	1.52	2427722	REC_WORD	1.52	n/a	BEAN	-999	14	[0, 0, 0]	n/a	FR1	0	R1032D
1468.192	21.921	2430154	REC_WORD	21.921	n/a	PIE	-999	14	[0, 0, 0]	n/a	FR1	0	R1032D
1490.113	8.555	2465226	REC_END	n/a	n/a	n/a	-999	14	[0, 0, 0]	n/a	FR1	0	R1032D
1498.668	0.001	2478913	COUNTDOWN_START	n/a	n/a	n/a	-999	15	[0, 0, 0]	n/a	FR1	0	R1032D
1498.669	10.427	2478915	TRIAL	n/a	n/a	n/a	-999	15	[0, 0, 0]	n/a	FR1	0	R1032D
1509.096	0.009	2495597	COUNTDOWN_END	n/a	n/a	n/a	-999	15	[0, 0, 0]	n/a	FR1	0	R1032D
1509.105	2.466	2495612	ORIENT	n/a	n/a	n/a	-999	15	[0, 0, 0]	n/a	FR1	0	R1032D
1511.571	2.451	2499557	WORD	n/a	wordpools/wordpool_EN.txt	MULE	1	15	[0, 0, 0]	n/a	FR1	0	R1032D
1514.022	2.566	2503479	WORD	n/a	wordpools/wordpool_EN.txt	SEAT	2	15	[0, 0, 0]	n/a	FR1	0	R1032D
1516.588	2.535	2507584	WORD	n/a	wordpools/wordpool_EN.txt	OAR	3	15	[0, 0, 0]	n/a	FR1	0	R1032D
1519.123	2.6	2511640	WORD	n/a	wordpools/wordpool_EN.txt	SUN	4	15	[0, 0, 0]	n/a	FR1	0	R1032D
1521.723	2.468	2515800	WORD	n/a	wordpools/wordpool_EN.txt	ICE	5	15	[0, 0, 0]	n/a	FR1	0	R1032D
1524.191	2.533	2519748	WORD	n/a	wordpools/wordpool_EN.txt	CONE	6	15	[0, 0, 0]	n/a	FR1	0	R1032D
1526.724	2.384	2523801	WORD	n/a	wordpools/wordpool_EN.txt	PLATE	7	15	[0, 0, 0]	n/a	FR1	0	R1032D
1529.108	2.583	2527615	WORD	n/a	wordpools/wordpool_EN.txt	WHEEL	8	15	[0, 0, 0]	n/a	FR1	0	R1032D
1531.691	2.501	2531748	WORD	n/a	wordpools/wordpool_EN.txt	SCHOOL	9	15	[0, 0, 0]	n/a	FR1	0	R1032D
1534.192	2.55	2535749	WORD	n/a	wordpools/wordpool_EN.txt	ROOT	10	15	[0, 0, 0]	n/a	FR1	0	R1032D
1536.742	2.551	2539829	WORD	n/a	wordpools/wordpool_EN.txt	FOG	11	15	[0, 0, 0]	n/a	FR1	0	R1032D
1539.293	1.616	2543910	WORD	n/a	wordpools/wordpool_EN.txt	NAIL	12	15	[0, 0, 0]	n/a	FR1	0	R1032D
1540.909	0.001	2546496	DISTRACT_START	n/a	n/a	n/a	-999	15	[0, 0, 0]	n/a	FR1	0	R1032D
1540.91	0.016	2546497	START	n/a	n/a	n/a	-999	15	[-999, -999, -999]	n/a	FR1	0	R1032D
1540.926	2.917	2546523	PROB	2.917	n/a	n/a	-999	15	[3, 3, 8]	14	FR1	0	R1032D
1543.843	2.302	2551190	PROB	2.302	n/a	n/a	-999	15	[6, 3, 3]	12	FR1	0	R1032D
1546.145	3.834	2554873	PROB	3.834	n/a	n/a	-999	15	[6, 9, 8]	23	FR1	0	R1032D
1549.979	4.816	2561007	PROB	4.816	n/a	n/a	-999	15	[3, 9, 4]	16	FR1	0	R1032D
1554.795	2.501	2568712	PROB	2.501	n/a	n/a	-999	15	[1, 6, 8]	15	FR1	0	R1032D
1557.296	2.467	2572714	PROB	2.467	n/a	n/a	-999	15	[3, 7, 4]	14	FR1	0	R1032D
1559.763	1.973	2576661	PROB	1.973	n/a	n/a	-999	15	[1, 7, 1]	9	FR1	0	R1032D
1561.736	0.011	2579817	STOP	n/a	n/a	n/a	-999	15	[-999, -999, -999]	n/a	FR1	0	R1032D
1561.747	1.084	2579835	DISTRACT_END	n/a	n/a	n/a	-999	15	[0, 0, 0]	n/a	FR1	0	R1032D
1562.831	5.41	2581569	REC_START	n/a	n/a	n/a	-999	15	[0, 0, 0]	n/a	FR1	0	R1032D
1568.241	2.407	2590225	REC_WORD	2.407	n/a	ICE	-999	15	[0, 0, 0]	n/a	FR1	0	R1032D
1570.648	2.461	2594076	REC_WORD	2.461	n/a	BANK	-999	15	[0, 0, 0]	n/a	FR1	0	R1032D
1573.109	1.762	2598013	REC_WORD	1.762	n/a	BOWL	-999	15	[0, 0, 0]	n/a	FR1	0	R1032D
1574.871	17.972	2600832	REC_WORD	17.972	n/a	PLATE	-999	15	[0, 0, 0]	n/a	FR1	0	R1032D
1592.843	2.294	2629586	REC_END	n/a	n/a	n/a	-999	15	[0, 0, 0]	n/a	FR1	0	R1032D
1595.137	0.0	2633256	TRIAL	n/a	n/a	n/a	-999	16	[0, 0, 0]	n/a	FR1	0	R1032D
1595.137	10.428	2633256	COUNTDOWN_START	n/a	n/a	n/a	-999	16	[0, 0, 0]	n/a	FR1	0	R1032D
1605.565	0.006	2649940	COUNTDOWN_END	n/a	n/a	n/a	-999	16	[0, 0, 0]	n/a	FR1	0	R1032D
1605.571	2.569	2649950	ORIENT	n/a	n/a	n/a	-999	16	[0, 0, 0]	n/a	FR1	0	R1032D
1608.14	2.549	2654060	WORD	n/a	wordpools/wordpool_EN.txt	HAND	1	16	[0, 0, 0]	n/a	FR1	0	R1032D
1610.689	2.468	2658138	WORD	n/a	wordpools/wordpool_EN.txt	LIP	2	16	[0, 0, 0]	n/a	FR1	0	R1032D
1613.157	2.616	2662087	WORD	n/a	wordpools/wordpool_EN.txt	GLOVE	3	16	[0, 0, 0]	n/a	FR1	0	R1032D
1615.773	2.601	2666272	WORD	n/a	wordpools/wordpool_EN.txt	FLAME	4	16	[0, 0, 0]	n/a	FR1	0	R1032D
1618.374	2.5	2670434	WORD	n/a	wordpools/wordpool_EN.txt	BOARD	5	16	[0, 0, 0]	n/a	FR1	0	R1032D
1620.874	2.584	2674433	WORD	n/a	wordpools/wordpool_EN.txt	SWORD	6	16	[0, 0, 0]	n/a	FR1	0	R1032D
1623.458	2.434	2678568	WORD	n/a	wordpools/wordpool_EN.txt	TIE	7	16	[0, 0, 0]	n/a	FR1	0	R1032D
1625.892	2.584	2682462	WORD	n/a	wordpools/wordpool_EN.txt	HOOK	8	16	[0, 0, 0]	n/a	FR1	0	R1032D
1628.476	2.501	2686596	WORD	n/a	wordpools/wordpool_EN.txt	PIN	9	16	[0, 0, 0]	n/a	FR1	0	R1032D
1630.977	2.433	2690597	WORD	n/a	wordpools/wordpool_EN.txt	MOUTH	10	16	[0, 0, 0]	n/a	FR1	0	R1032D
1633.41	2.45	2694490	WORD	n/a	wordpools/wordpool_EN.txt	BADGE	11	16	[0, 0, 0]	n/a	FR1	0	R1032D
1635.86	1.617	2698410	WORD	n/a	wordpools/wordpool_EN.txt	ARK	12	16	[0, 0, 0]	n/a	FR1	0	R1032D
1637.477	0.001	2700997	DISTRACT_START	n/a	n/a	n/a	-999	16	[0, 0, 0]	n/a	FR1	0	R1032D
1637.478	0.016	2700998	START	n/a	n/a	n/a	-999	16	[-999, -999, -999]	n/a	FR1	0	R1032D
1637.494	3.217	2701024	PROB	3.217	n/a	n/a	-999	16	[8, 8, 8]	24	FR1	0	R1032D
1640.711	2.184	2706171	PROB	2.184	n/a	n/a	-999	16	[5, 6, 1]	12	FR1	0	R1032D
1642.895	6.551	2709665	PROB	6.551	n/a	n/a	-999	16	[2, 6, 1]	9	FR1	0	R1032D
1649.446	2.351	2720146	PROB	2.351	n/a	n/a	-999	16	[5, 5, 2]	12	FR1	0	R1032D
1651.797	4.385	2723908	PROB	4.385	n/a	n/a	-999	16	[4, 5, 3]	12	FR1	0	R1032D
1656.182	2.506	2730923	PROB	2.506	n/a	n/a	-999	16	[9, 2, 1]	12	FR1	0	R1032D
1658.688	0.01	2734933	STOP	n/a	n/a	n/a	-999	16	[-999, -999, -999]	n/a	FR1	0	R1032D
1658.698	1.051	2734949	DISTRACT_END	n/a	n/a	n/a	-999	16	[0, 0, 0]	n/a	FR1	0	R1032D
1659.749	3.672	2736630	REC_START	n/a	n/a	n/a	-999	16	[0, 0, 0]	n/a	FR1	0	R1032D
1663.421	1.563	2742505	REC_WORD	1.563	n/a	GLOVE	-999	16	[0, 0, 0]	n/a	FR1	0	R1032D
1664.984	1.664	2745006	REC_WORD	1.664	n/a	HAND	-999	16	[0, 0, 0]	n/a	FR1	0	R1032D
1666.648	1.44	2747668	REC_WORD	1.44	n/a	LIP	-999	16	[0, 0, 0]	n/a	FR1	0	R1032D
1668.088	2.73	2749972	REC_WORD	2.73	n/a	MOUTH	-999	16	[0, 0, 0]	n/a	FR1	0	R1032D
1670.818	1.097	2754340	REC_WORD_VV	1.097	n/a	<>	-999	16	[0, 0, 0]	n/a	FR1	0	R1032D
1671.915	7.213	2756095	REC_WORD	7.213	n/a	FLAME	-999	16	[0, 0, 0]	n/a	FR1	0	R1032D
1679.128	10.633	2767635	REC_WORD	10.633	n/a	TIE	-999	16	[0, 0, 0]	n/a	FR1	0	R1032D
1689.761	1.993	2784647	REC_END	n/a	n/a	n/a	-999	16	[0, 0, 0]	n/a	FR1	0	R1032D
1691.754	0.0	2787836	TRIAL	n/a	n/a	n/a	-999	17	[0, 0, 0]	n/a	FR1	0	R1032D
1691.754	10.428	2787836	COUNTDOWN_START	n/a	n/a	n/a	-999	17	[0, 0, 0]	n/a	FR1	0	R1032D
1702.182	0.008	2804520	COUNTDOWN_END	n/a	n/a	n/a	-999	17	[0, 0, 0]	n/a	FR1	0	R1032D
1702.19	2.466	2804532	ORIENT	n/a	n/a	n/a	-999	17	[0, 0, 0]	n/a	FR1	0	R1032D
1704.656	2.418	2808478	WORD	n/a	wordpools/wordpool_EN.txt	PURSE	1	17	[0, 0, 0]	n/a	FR1	0	R1032D
1707.074	2.6	2812346	WORD	n/a	wordpools/wordpool_EN.txt	OAK	2	17	[0, 0, 0]	n/a	FR1	0	R1032D
1709.674	2.55	2816506	WORD	n/a	wordpools/wordpool_EN.txt	CHEEK	3	17	[0, 0, 0]	n/a	FR1	0	R1032D
1712.224	2.468	2820586	WORD	n/a	wordpools/wordpool_EN.txt	CANE	4	17	[0, 0, 0]	n/a	FR1	0	R1032D
1714.692	2.617	2824535	WORD	n/a	wordpools/wordpool_EN.txt	MAZE	5	17	[0, 0, 0]	n/a	FR1	0	R1032D
1717.309	2.583	2828722	WORD	n/a	wordpools/wordpool_EN.txt	CHIN	6	17	[0, 0, 0]	n/a	FR1	0	R1032D
1719.892	2.568	2832854	WORD	n/a	wordpools/wordpool_EN.txt	SMILE	7	17	[0, 0, 0]	n/a	FR1	0	R1032D
1722.46	2.467	2836963	WORD	n/a	wordpools/wordpool_EN.txt	FROG	8	17	[0, 0, 0]	n/a	FR1	0	R1032D
1724.927	2.55	2840910	WORD	n/a	wordpools/wordpool_EN.txt	ROSE	9	17	[0, 0, 0]	n/a	FR1	0	R1032D
1727.477	2.45	2844990	WORD	n/a	wordpools/wordpool_EN.txt	COUCH	10	17	[0, 0, 0]	n/a	FR1	0	R1032D
1729.927	2.418	2848909	WORD	n/a	wordpools/wordpool_EN.txt	LAWN	11	17	[0, 0, 0]	n/a	FR1	0	R1032D
1732.345	1.617	2852778	WORD	n/a	wordpools/wordpool_EN.txt	MAT	12	17	[0, 0, 0]	n/a	FR1	0	R1032D
1733.962	0.001	2855365	DISTRACT_START	n/a	n/a	n/a	-999	17	[0, 0, 0]	n/a	FR1	0	R1032D
1733.963	0.016	2855367	START	n/a	n/a	n/a	-999	17	[-999, -999, -999]	n/a	FR1	0	R1032D
1733.979	3.667	2855392	PROB	3.667	n/a	n/a	-999	17	[8, 4, 7]	19	FR1	0	R1032D
1737.646	3.083	2861259	PROB	3.083	n/a	n/a	-999	17	[8, 1, 4]	13	FR1	0	R1032D
1740.729	4.118	2866192	PROB	4.118	n/a	n/a	-999	17	[7, 5, 9]	21	FR1	0	R1032D
1744.847	3.367	2872780	PROB	3.367	n/a	n/a	-999	17	[8, 9, 2]	19	FR1	0	R1032D
1748.214	3.401	2878167	PROB	3.401	n/a	n/a	-999	17	[7, 6, 6]	19	FR1	0	R1032D
1751.615	3.826	2883609	PROB	3.826	n/a	n/a	-999	17	[8, 9, 3]	20	FR1	0	R1032D
1755.441	0.008	2889730	STOP	n/a	n/a	n/a	-999	17	[-999, -999, -999]	n/a	FR1	0	R1032D
1755.449	1.151	2889743	DISTRACT_END	n/a	n/a	n/a	-999	17	[0, 0, 0]	n/a	FR1	0	R1032D
1756.6	2.137	2891584	REC_START	n/a	n/a	n/a	-999	17	[0, 0, 0]	n/a	FR1	0	R1032D
1758.737	1.651	2895003	REC_WORD	1.651	n/a	CHEEK	-999	17	[0, 0, 0]	n/a	FR1	0	R1032D
1760.388	3.363	2897645	REC_WORD	3.363	n/a	CANE	-999	17	[0, 0, 0]	n/a	FR1	0	R1032D
1763.751	1.802	2903025	REC_WORD	1.802	n/a	CHIN	-999	17	[0, 0, 0]	n/a	FR1	0	R1032D
1765.553	21.059	2905908	REC_WORD	21.059	n/a	COUGH	-999	17	[0, 0, 0]	n/a	FR1	0	R1032D
1786.612	3.528	2939601	REC_END	n/a	n/a	n/a	-999	17	[0, 0, 0]	n/a	FR1	0	R1032D
1790.14	0.0	2945245	TRIAL	n/a	n/a	n/a	-999	18	[0, 0, 0]	n/a	FR1	0	R1032D
1790.14	10.428	2945245	COUNTDOWN_START	n/a	n/a	n/a	-999	18	[0, 0, 0]	n/a	FR1	0	R1032D
1800.568	0.006	2961929	COUNTDOWN_END	n/a	n/a	n/a	-999	18	[0, 0, 0]	n/a	FR1	0	R1032D
1800.574	2.535	2961939	ORIENT	n/a	n/a	n/a	-999	18	[0, 0, 0]	n/a	FR1	0	R1032D
1803.109	2.549	2965995	WORD	n/a	wordpools/wordpool_EN.txt	PLANT	1	18	[0, 0, 0]	n/a	FR1	0	R1032D
1805.658	2.402	2970073	WORD	n/a	wordpools/wordpool_EN.txt	BIRD	2	18	[0, 0, 0]	n/a	FR1	0	R1032D
1808.06	2.482	2973916	WORD	n/a	wordpools/wordpool_EN.txt	SHELL	3	18	[0, 0, 0]	n/a	FR1	0	R1032D
1810.542	2.519	2977887	WORD	n/a	wordpools/wordpool_EN.txt	FOOD	4	18	[0, 0, 0]	n/a	FR1	0	R1032D
1813.061	2.482	2981917	WORD	n/a	wordpools/wordpool_EN.txt	TAIL	5	18	[0, 0, 0]	n/a	FR1	0	R1032D
1815.543	2.602	2985888	WORD	n/a	wordpools/wordpool_EN.txt	SWAMP	6	18	[0, 0, 0]	n/a	FR1	0	R1032D
1818.145	2.466	2990051	WORD	n/a	wordpools/wordpool_EN.txt	GEESE	7	18	[0, 0, 0]	n/a	FR1	0	R1032D
1820.611	2.468	2993997	WORD	n/a	wordpools/wordpool_EN.txt	BEACH	8	18	[0, 0, 0]	n/a	FR1	0	R1032D
1823.079	2.466	2997945	WORD	n/a	wordpools/wordpool_EN.txt	DUCK	9	18	[0, 0, 0]	n/a	FR1	0	R1032D
1825.545	2.384	3001891	WORD	n/a	wordpools/wordpool_EN.txt	FUR	10	18	[0, 0, 0]	n/a	FR1	0	R1032D
1827.929	2.601	3005705	WORD	n/a	wordpools/wordpool_EN.txt	BLUSH	11	18	[0, 0, 0]	n/a	FR1	0	R1032D
1830.53	1.617	3009866	WORD	n/a	wordpools/wordpool_EN.txt	WING	12	18	[0, 0, 0]	n/a	FR1	0	R1032D
1832.147	0.001	3012453	DISTRACT_START	n/a	n/a	n/a	-999	18	[0, 0, 0]	n/a	FR1	0	R1032D
1832.148	0.016	3012455	START	n/a	n/a	n/a	-999	18	[-999, -999, -999]	n/a	FR1	0	R1032D
1832.164	4.4	3012481	PROB	4.4	n/a	n/a	-999	18	[2, 7, 5]	14	FR1	0	R1032D
1836.564	3.217	3019520	PROB	3.217	n/a	n/a	-999	18	[8, 4, 3]	15	FR1	0	R1032D
1839.781	2.484	3024667	PROB	2.484	n/a	n/a	-999	18	[9, 7, 1]	17	FR1	0	R1032D
1842.265	2.467	3028641	PROB	2.467	n/a	n/a	-999	18	[4, 9, 1]	14	FR1	0	R1032D
1844.732	3.667	3032588	PROB	3.667	n/a	n/a	-999	18	[7, 9, 2]	18	FR1	0	R1032D
1848.399	3.151	3038455	PROB	3.151	n/a	n/a	-999	18	[8, 4, 9]	21	FR1	0	R1032D
1851.55	2.979	3043497	PROB	2.979	n/a	n/a	-999	18	[4, 3, 8]	15	FR1	0	R1032D
1854.529	0.005	3048263	STOP	n/a	n/a	n/a	-999	18	[-999, -999, -999]	n/a	FR1	0	R1032D
1854.534	1.167	3048271	DISTRACT_END	n/a	n/a	n/a	-999	18	[0, 0, 0]	n/a	FR1	0	R1032D
1855.701	2.227	3050138	REC_START	n/a	n/a	n/a	-999	18	[0, 0, 0]	n/a	FR1	0	R1032D
1857.928	1.254	3053701	REC_WORD	1.254	n/a	GEESE	-999	18	[0, 0, 0]	n/a	FR1	0	R1032D
1859.182	1.825	3055707	REC_WORD	1.825	n/a	DUCK	-999	18	[0, 0, 0]	n/a	FR1	0	R1032D
1861.007	1.828	3058627	REC_WORD	1.828	n/a	EGG	-999	18	[0, 0, 0]	n/a	FR1	0	R1032D
1862.835	1.922	3061552	REC_WORD	1.922	n/a	BEACH	-999	18	[0, 0, 0]	n/a	FR1	0	R1032D
1864.757	4.81	3064627	REC_WORD	4.81	n/a	CLOWN	-999	18	[0, 0, 0]	n/a	FR1	0	R1032D
1869.567	16.147	3072322	REC_WORD	16.147	n/a	PLANT	-999	18	[0, 0, 0]	n/a	FR1	0	R1032D
1885.714	1.826	3098156	REC_END	n/a	n/a	n/a	-999	18	[0, 0, 0]	n/a	FR1	0	R1032D
1887.54	0.0	3101078	TRIAL	n/a	n/a	n/a	-999	19	[0, 0, 0]	n/a	FR1	0	R1032D
1887.54	10.428	3101078	COUNTDOWN_START	n/a	n/a	n/a	-999	19	[0, 0, 0]	n/a	FR1	0	R1032D
1897.968	0.008	3117762	COUNTDOWN_END	n/a	n/a	n/a	-999	19	[0, 0, 0]	n/a	FR1	0	R1032D
1897.976	2.566	3117775	ORIENT	n/a	n/a	n/a	-999	19	[0, 0, 0]	n/a	FR1	0	R1032D
1900.542	2.585	3121880	WORD	n/a	wordpools/wordpool_EN.txt	PARK	1	19	[0, 0, 0]	n/a	FR1	0	R1032D
1903.127	2.483	3126016	WORD	n/a	wordpools/wordpool_EN.txt	BALL	2	19	[0, 0, 0]	n/a	FR1	0	R1032D
1905.61	2.468	3129988	WORD	n/a	wordpools/wordpool_EN.txt	FACE	3	19	[0, 0, 0]	n/a	FR1	0	R1032D
1908.078	2.616	3133937	WORD	n/a	wordpools/wordpool_EN.txt	FAN	4	19	[0, 0, 0]	n/a	FR1	0	R1032D
1910.694	2.485	3138122	WORD	n/a	wordpools/wordpool_EN.txt	SQUARE	5	19	[0, 0, 0]	n/a	FR1	0	R1032D
1913.179	2.433	3142098	WORD	n/a	wordpools/wordpool_EN.txt	BAT	6	19	[0, 0, 0]	n/a	FR1	0	R1032D
1915.612	2.584	3145991	WORD	n/a	wordpools/wordpool_EN.txt	SLIME	7	19	[0, 0, 0]	n/a	FR1	0	R1032D
1918.196	2.5	3150125	WORD	n/a	wordpools/wordpool_EN.txt	STONE	8	19	[0, 0, 0]	n/a	FR1	0	R1032D
1920.696	2.517	3154125	WORD	n/a	wordpools/wordpool_EN.txt	CLAY	9	19	[0, 0, 0]	n/a	FR1	0	R1032D
1923.213	2.434	3158152	WORD	n/a	wordpools/wordpool_EN.txt	MOON	10	19	[0, 0, 0]	n/a	FR1	0	R1032D
1925.647	2.55	3162046	WORD	n/a	wordpools/wordpool_EN.txt	STOVE	11	19	[0, 0, 0]	n/a	FR1	0	R1032D
1928.197	1.617	3166126	WORD	n/a	wordpools/wordpool_EN.txt	BROOM	12	19	[0, 0, 0]	n/a	FR1	0	R1032D
1929.814	0.001	3168713	DISTRACT_START	n/a	n/a	n/a	-999	19	[0, 0, 0]	n/a	FR1	0	R1032D
1929.815	0.016	3168714	START	n/a	n/a	n/a	-999	19	[-999, -999, -999]	n/a	FR1	0	R1032D
1929.831	3.401	3168740	PROB	3.401	n/a	n/a	-999	19	[9, 4, 8]	16	FR1	0	R1032D
1933.232	4.451	3174181	PROB	4.451	n/a	n/a	-999	19	[5, 5, 7]	17	FR1	0	R1032D
1937.683	2.883	3181303	PROB	2.883	n/a	n/a	-999	19	[8, 5, 5]	18	FR1	0	R1032D
1940.566	2.767	3185915	PROB	2.767	n/a	n/a	-999	19	[5, 3, 3]	11	FR1	0	R1032D
1943.333	2.934	3190342	PROB	2.934	n/a	n/a	-999	19	[6, 6, 2]	14	FR1	0	R1032D
1946.267	4.957	3195036	PROB	4.957	n/a	n/a	-999	19	[8, 1, 9]	18	FR1	0	R1032D
1951.224	0.011	3202967	STOP	n/a	n/a	n/a	-999	19	[-999, -999, -999]	n/a	FR1	0	R1032D
1951.235	1.168	3202985	DISTRACT_END	n/a	n/a	n/a	-999	19	[0, 0, 0]	n/a	FR1	0	R1032D
1952.403	2.159	3204853	REC_START	n/a	n/a	n/a	-999	19	[0, 0, 0]	n/a	FR1	0	R1032D
1954.562	1.227	3208308	REC_WORD	1.227	n/a	BALL	-999	19	[0, 0, 0]	n/a	FR1	0	R1032D
1955.789	1.759	3210271	REC_WORD	1.759	n/a	PARK	-999	19	[0, 0, 0]	n/a	FR1	0	R1032D
1957.548	2.02	3213085	REC_WORD	2.02	n/a	FAN	-999	19	[0, 0, 0]	n/a	FR1	0	R1032D
1959.568	2.314	3216317	REC_WORD	2.314	n/a	FACE	-999	19	[0, 0, 0]	n/a	FR1	0	R1032D
1961.882	20.533	3220019	REC_WORD	20.533	n/a	SQUARE	-999	19	[0, 0, 0]	n/a	FR1	0	R1032D
1982.415	3.193	3252870	REC_END	n/a	n/a	n/a	-999	19	[0, 0, 0]	n/a	FR1	0	R1032D
1985.608	0.0	3257979	COUNTDOWN_START	n/a	n/a	n/a	-999	20	[0, 0, 0]	n/a	FR1	0	R1032D
1985.608	10.428	3257979	TRIAL	n/a	n/a	n/a	-999	20	[0, 0, 0]	n/a	FR1	0	R1032D
1996.036	0.008	3274663	COUNTDOWN_END	n/a	n/a	n/a	-999	20	[0, 0, 0]	n/a	FR1	0	R1032D
1996.044	2.55	3274676	ORIENT	n/a	n/a	n/a	-999	20	[0, 0, 0]	n/a	FR1	0	R1032D
1998.594	2.6	3278755	WORD	n/a	wordpools/wordpool_EN.txt	BRICK	1	20	[0, 0, 0]	n/a	FR1	0	R1032D
2001.194	2.617	3282915	WORD	n/a	wordpools/wordpool_EN.txt	CAKE	2	20	[0, 0, 0]	n/a	FR1	0	R1032D
2003.811	2.584	3287102	WORD	n/a	wordpools/wordpool_EN.txt	RAIN	3	20	[0, 0, 0]	n/a	FR1	0	R1032D
2006.395	2.501	3291236	WORD	n/a	wordpools/wordpool_EN.txt	SOUP	4	20	[0, 0, 0]	n/a	FR1	0	R1032D
2008.896	2.5	3295238	WORD	n/a	wordpools/wordpool_EN.txt	FLOOR	5	20	[0, 0, 0]	n/a	FR1	0	R1032D
2011.396	2.484	3299238	WORD	n/a	wordpools/wordpool_EN.txt	SNOW	6	20	[0, 0, 0]	n/a	FR1	0	R1032D
2013.88	2.55	3303212	WORD	n/a	wordpools/wordpool_EN.txt	SHARK	7	20	[0, 0, 0]	n/a	FR1	0	R1032D
2016.43	2.401	3307292	WORD	n/a	wordpools/wordpool_EN.txt	CHALK	8	20	[0, 0, 0]	n/a	FR1	0	R1032D
2018.831	2.5	3311133	WORD	n/a	wordpools/wordpool_EN.txt	TOAST	9	20	[0, 0, 0]	n/a	FR1	0	R1032D
2021.331	2.584	3315133	WORD	n/a	wordpools/wordpool_EN.txt	TRASH	10	20	[0, 0, 0]	n/a	FR1	0	R1032D
2023.915	2.417	3319267	WORD	n/a	wordpools/wordpool_EN.txt	PHONE	11	20	[0, 0, 0]	n/a	FR1	0	R1032D
2026.332	1.617	3323134	WORD	n/a	wordpools/wordpool_EN.txt	LAMB	12	20	[0, 0, 0]	n/a	FR1	0	R1032D
2027.949	0.001	3325721	DISTRACT_START	n/a	n/a	n/a	-999	20	[0, 0, 0]	n/a	FR1	0	R1032D
2027.95	0.016	3325723	START	n/a	n/a	n/a	-999	20	[-999, -999, -999]	n/a	FR1	0	R1032D
2027.966	3.617	3325748	PROB	3.617	n/a	n/a	-999	20	[1, 8, 7]	16	FR1	0	R1032D
2031.583	2.468	3331535	PROB	2.468	n/a	n/a	-999	20	[1, 7, 8]	16	FR1	0	R1032D
2034.051	2.733	3335484	PROB	2.733	n/a	n/a	-999	20	[7, 9, 3]	19	FR1	0	R1032D
2036.784	3.034	3339856	PROB	3.034	n/a	n/a	-999	20	[9, 4, 6]	19	FR1	0	R1032D
2039.818	4.218	3344710	PROB	4.218	n/a	n/a	-999	20	[5, 9, 3]	17	FR1	0	R1032D
2044.036	3.517	3351459	PROB	3.517	n/a	n/a	-999	20	[6, 2, 6]	14	FR1	0	R1032D
2047.553	4.007	3357086	PROB	4.007	n/a	n/a	-999	20	[7, 1, 5]	13	FR1	0	R1032D
2051.56	0.01	3363497	STOP	n/a	n/a	n/a	-999	20	[-999, -999, -999]	n/a	FR1	0	R1032D
2051.57	1.118	3363513	DISTRACT_END	n/a	n/a	n/a	-999	20	[0, 0, 0]	n/a	FR1	0	R1032D
2052.688	6.381	3365301	REC_START	n/a	n/a	n/a	-999	20	[0, 0, 0]	n/a	FR1	0	R1032D
2059.069	1.481	3375511	REC_WORD	1.481	n/a	SOUP	-999	20	[0, 0, 0]	n/a	FR1	0	R1032D
2060.55	1.939	3377880	REC_WORD	1.939	n/a	CAKE	-999	20	[0, 0, 0]	n/a	FR1	0	R1032D
2062.489	20.211	3380982	REC_WORD	20.211	n/a	TOAST	-999	20	[0, 0, 0]	n/a	FR1	0	R1032D
2082.7	5.077	3413318	REC_END	n/a	n/a	n/a	-999	20	[0, 0, 0]	n/a	FR1	0	R1032D
2087.777	0.0	3421441	TRIAL	n/a	n/a	n/a	-999	21	[0, 0, 0]	n/a	FR1	0	R1032D
2087.777	10.428	3421441	COUNTDOWN_START	n/a	n/a	n/a	-999	21	[0, 0, 0]	n/a	FR1	0	R1032D
2098.205	0.007	3438125	COUNTDOWN_END	n/a	n/a	n/a	-999	21	[0, 0, 0]	n/a	FR1	0	R1032D
2098.212	2.617	3438136	ORIENT	n/a	n/a	n/a	-999	21	[0, 0, 0]	n/a	FR1	0	R1032D
2100.829	2.501	3442323	WORD	n/a	wordpools/wordpool_EN.txt	LEAF	1	21	[0, 0, 0]	n/a	FR1	0	R1032D
2103.33	2.467	3446325	WORD	n/a	wordpools/wordpool_EN.txt	SAIL	2	21	[0, 0, 0]	n/a	FR1	0	R1032D
2105.797	2.45	3450272	WORD	n/a	wordpools/wordpool_EN.txt	SPEAR	3	21	[0, 0, 0]	n/a	FR1	0	R1032D
2108.247	2.517	3454191	WORD	n/a	wordpools/wordpool_EN.txt	VINE	4	21	[0, 0, 0]	n/a	FR1	0	R1032D
2110.764	2.551	3458218	WORD	n/a	wordpools/wordpool_EN.txt	LAND	5	21	[0, 0, 0]	n/a	FR1	0	R1032D
2113.315	2.433	3462300	WORD	n/a	wordpools/wordpool_EN.txt	TEA	6	21	[0, 0, 0]	n/a	FR1	0	R1032D
2115.748	2.584	3466192	WORD	n/a	wordpools/wordpool_EN.txt	CAVE	7	21	[0, 0, 0]	n/a	FR1	0	R1032D
2118.332	2.451	3470327	WORD	n/a	wordpools/wordpool_EN.txt	PEA	8	21	[0, 0, 0]	n/a	FR1	0	R1032D
2120.783	2.533	3474248	WORD	n/a	wordpools/wordpool_EN.txt	BOY	9	21	[0, 0, 0]	n/a	FR1	0	R1032D
2123.316	2.434	3478301	WORD	n/a	wordpools/wordpool_EN.txt	CORN	10	21	[0, 0, 0]	n/a	FR1	0	R1032D
2125.75	2.451	3482195	WORD	n/a	wordpools/wordpool_EN.txt	SEA	11	21	[0, 0, 0]	n/a	FR1	0	R1032D
2128.201	1.617	3486116	WORD	n/a	wordpools/wordpool_EN.txt	CHIEF	12	21	[0, 0, 0]	n/a	FR1	0	R1032D
2129.818	0.001	3488703	DISTRACT_START	n/a	n/a	n/a	-999	21	[0, 0, 0]	n/a	FR1	0	R1032D
2129.819	0.016	3488705	START	n/a	n/a	n/a	-999	21	[-999, -999, -999]	n/a	FR1	0	R1032D
2129.835	3.334	3488731	PROB	3.334	n/a	n/a	-999	21	[5, 2, 8]	15	FR1	0	R1032D
2133.169	2.066	3494065	PROB	2.066	n/a	n/a	-999	21	[9, 1, 2]	12	FR1	0	R1032D
2135.235	4.018	3497370	PROB	4.018	n/a	n/a	-999	21	[2, 9, 3]	14	FR1	0	R1032D
2139.253	2.234	3503799	PROB	2.234	n/a	n/a	-999	21	[9, 7, 3]	19	FR1	0	R1032D
2141.487	2.551	3507373	PROB	2.551	n/a	n/a	-999	21	[7, 4, 4]	15	FR1	0	R1032D
2144.038	3.516	3511454	PROB	3.516	n/a	n/a	-999	21	[3, 7, 8]	18	FR1	0	R1032D
2147.554	3.151	3517080	PROB	3.151	n/a	n/a	-999	21	[5, 5, 1]	11	FR1	0	R1032D
2150.705	0.017	3522121	STOP	n/a	n/a	n/a	-999	21	[-999, -999, -999]	n/a	FR1	0	R1032D
2150.722	1.117	3522148	DISTRACT_END	n/a	n/a	n/a	-999	21	[0, 0, 0]	n/a	FR1	0	R1032D
2151.839	1.834	3523935	REC_START	n/a	n/a	n/a	-999	21	[0, 0, 0]	n/a	FR1	0	R1032D
2153.673	1.517	3526869	REC_WORD	1.517	n/a	LEAF	-999	21	[0, 0, 0]	n/a	FR1	0	R1032D
2155.19	1.309	3529297	REC_WORD	1.309	n/a	VINE	-999	21	[0, 0, 0]	n/a	FR1	0	R1032D
2156.499	1.633	3531391	REC_WORD	1.633	n/a	LAND	-999	21	[0, 0, 0]	n/a	FR1	0	R1032D
2158.132	1.668	3534003	REC_WORD	1.668	n/a	CAVE	-999	21	[0, 0, 0]	n/a	FR1	0	R1032D
2159.8	1.967	3536672	REC_WORD	1.967	n/a	CORN	-999	21	[0, 0, 0]	n/a	FR1	0	R1032D
2161.767	20.084	3539819	REC_WORD	20.084	n/a	TEA	-999	21	[0, 0, 0]	n/a	FR1	0	R1032D
2181.851	2.777	3571952	REC_END	n/a	n/a	n/a	-999	21	[0, 0, 0]	n/a	FR1	0	R1032D
2184.628	0.0	3576395	COUNTDOWN_START	n/a	n/a	n/a	-999	22	[0, 0, 0]	n/a	FR1	0	R1032D
2184.628	10.428	3576395	TRIAL	n/a	n/a	n/a	-999	22	[0, 0, 0]	n/a	FR1	0	R1032D
2195.056	0.008	3593079	COUNTDOWN_END	n/a	n/a	n/a	-999	22	[0, 0, 0]	n/a	FR1	0	R1032D
2195.064	2.383	3593092	ORIENT	n/a	n/a	n/a	-999	22	[0, 0, 0]	n/a	FR1	0	R1032D
2197.447	2.4	3596904	WORD	n/a	wordpools/wordpool_EN.txt	STICK	1	22	[0, 0, 0]	n/a	FR1	0	R1032D
2199.847	2.534	3600744	WORD	n/a	wordpools/wordpool_EN.txt	DIME	2	22	[0, 0, 0]	n/a	FR1	0	R1032D
2202.381	2.384	3604798	WORD	n/a	wordpools/wordpool_EN.txt	JEEP	3	22	[0, 0, 0]	n/a	FR1	0	R1032D
2204.765	2.517	3608613	WORD	n/a	wordpools/wordpool_EN.txt	PIT	4	22	[0, 0, 0]	n/a	FR1	0	R1032D
2207.282	2.567	3612640	WORD	n/a	wordpools/wordpool_EN.txt	FOX	5	22	[0, 0, 0]	n/a	FR1	0	R1032D
2209.849	2.534	3616747	WORD	n/a	wordpools/wordpool_EN.txt	WOLF	6	22	[0, 0, 0]	n/a	FR1	0	R1032D
2212.383	2.602	3620801	WORD	n/a	wordpools/wordpool_EN.txt	ANT	7	22	[0, 0, 0]	n/a	FR1	0	R1032D
2214.985	2.432	3624964	WORD	n/a	wordpools/wordpool_EN.txt	SHIELD	8	22	[0, 0, 0]	n/a	FR1	0	R1032D
2217.417	2.401	3628855	WORD	n/a	wordpools/wordpool_EN.txt	ROCK	9	22	[0, 0, 0]	n/a	FR1	0	R1032D
2219.818	2.383	3632696	WORD	n/a	wordpools/wordpool_EN.txt	CRANE	10	22	[0, 0, 0]	n/a	FR1	0	R1032D
2222.201	2.434	3636509	WORD	n/a	wordpools/wordpool_EN.txt	NEST	11	22	[0, 0, 0]	n/a	FR1	0	R1032D
2224.635	1.617	3640403	WORD	n/a	wordpools/wordpool_EN.txt	BEAK	12	22	[0, 0, 0]	n/a	FR1	0	R1032D
2226.252	0.001	3642990	DISTRACT_START	n/a	n/a	n/a	-999	22	[0, 0, 0]	n/a	FR1	0	R1032D
2226.253	0.016	3642992	START	n/a	n/a	n/a	-999	22	[-999, -999, -999]	n/a	FR1	0	R1032D
2226.269	2.6	3643017	PROB	2.6	n/a	n/a	-999	22	[2, 5, 5]	12	FR1	0	R1032D
2228.869	2.218	3647177	PROB	2.218	n/a	n/a	-999	22	[7, 3, 9]	19	FR1	0	R1032D
2231.087	2.583	3650726	PROB	2.583	n/a	n/a	-999	22	[1, 5, 9]	15	FR1	0	R1032D
2233.67	2.217	3654858	PROB	2.217	n/a	n/a	-999	22	[1, 7, 4]	12	FR1	0	R1032D
2235.887	1.901	3658405	PROB	1.901	n/a	n/a	-999	22	[1, 7, 7]	15	FR1	0	R1032D
2237.788	3.567	3661447	PROB	3.567	n/a	n/a	-999	22	[6, 9, 9]	24	FR1	0	R1032D
2241.355	3.702	3667154	PROB	3.702	n/a	n/a	-999	22	[7, 1, 9]	17	FR1	0	R1032D
2245.057	2.343	3673077	PROB	2.343	n/a	n/a	-999	22	[5, 6, 5]	16	FR1	0	R1032D
2247.4	0.006	3676825	STOP	n/a	n/a	n/a	-999	22	[-999, -999, -999]	n/a	FR1	0	R1032D
2247.406	1.168	3676835	DISTRACT_END	n/a	n/a	n/a	-999	22	[0, 0, 0]	n/a	FR1	0	R1032D
2248.574	1.694	3678704	REC_START	n/a	n/a	n/a	-999	22	[0, 0, 0]	n/a	FR1	0	R1032D
2250.268	1.547	3681414	REC_WORD	1.547	n/a	WOLF	-999	22	[0, 0, 0]	n/a	FR1	0	R1032D
2251.815	1.817	3683889	REC_WORD	1.817	n/a	FOX	-999	22	[0, 0, 0]	n/a	FR1	0	R1032D
2253.632	1.692	3686796	REC_WORD	1.692	n/a	ANT	-999	22	[0, 0, 0]	n/a	FR1	0	R1032D
2255.324	1.803	3689503	REC_WORD	1.803	n/a	NEST	-999	22	[0, 0, 0]	n/a	FR1	0	R1032D
2257.127	21.459	3692388	REC_WORD	21.459	n/a	BEAK	-999	22	[0, 0, 0]	n/a	FR1	0	R1032D
2278.586	2.66	3726720	REC_END	n/a	n/a	n/a	-999	22	[0, 0, 0]	n/a	FR1	0	R1032D
2281.246	0.0	3730976	TRIAL	n/a	n/a	n/a	-999	23	[0, 0, 0]	n/a	FR1	0	R1032D
2281.246	10.428	3730976	COUNTDOWN_START	n/a	n/a	n/a	-999	23	[0, 0, 0]	n/a	FR1	0	R1032D
2291.674	0.007	3747660	COUNTDOWN_END	n/a	n/a	n/a	-999	23	[0, 0, 0]	n/a	FR1	0	R1032D
2291.681	2.451	3747671	ORIENT	n/a	n/a	n/a	-999	23	[0, 0, 0]	n/a	FR1	0	R1032D
2294.132	2.566	3751593	WORD	n/a	wordpools/wordpool_EN.txt	VASE	1	23	[0, 0, 0]	n/a	FR1	0	R1032D
2296.698	2.402	3755698	WORD	n/a	wordpools/wordpool_EN.txt	HOUSE	2	23	[0, 0, 0]	n/a	FR1	0	R1032D
2299.1	2.483	3759541	WORD	n/a	wordpools/wordpool_EN.txt	ROOM	3	23	[0, 0, 0]	n/a	FR1	0	R1032D
2301.583	2.501	3763514	WORD	n/a	wordpools/wordpool_EN.txt	VEST	4	23	[0, 0, 0]	n/a	FR1	0	R1032D
2304.084	2.6	3767515	WORD	n/a	wordpools/wordpool_EN.txt	HILL	5	23	[0, 0, 0]	n/a	FR1	0	R1032D
2306.684	2.434	3771675	WORD	n/a	wordpools/wordpool_EN.txt	CAGE	6	23	[0, 0, 0]	n/a	FR1	0	R1032D
2309.118	2.617	3775569	WORD	n/a	wordpools/wordpool_EN.txt	WAND	7	23	[0, 0, 0]	n/a	FR1	0	R1032D
2311.735	2.617	3779756	WORD	n/a	wordpools/wordpool_EN.txt	STRAW	8	23	[0, 0, 0]	n/a	FR1	0	R1032D
2314.352	2.5	3783943	WORD	n/a	wordpools/wordpool_EN.txt	BARN	9	23	[0, 0, 0]	n/a	FR1	0	R1032D
2316.852	2.501	3787943	WORD	n/a	wordpools/wordpool_EN.txt	TOE	10	23	[0, 0, 0]	n/a	FR1	0	R1032D
2319.353	2.467	3791944	WORD	n/a	wordpools/wordpool_EN.txt	DESK	11	23	[0, 0, 0]	n/a	FR1	0	R1032D
2321.82	1.617	3795891	WORD	n/a	wordpools/wordpool_EN.txt	MUG	12	23	[0, 0, 0]	n/a	FR1	0	R1032D
2323.437	0.001	3798478	DISTRACT_START	n/a	n/a	n/a	-999	23	[0, 0, 0]	n/a	FR1	0	R1032D
2323.438	0.015	3798480	START	n/a	n/a	n/a	-999	23	[-999, -999, -999]	n/a	FR1	0	R1032D
2323.453	3.201	3798504	PROB	3.201	n/a	n/a	-999	23	[8, 3, 6]	17	FR1	0	R1032D
2326.654	2.134	3803625	PROB	2.134	n/a	n/a	-999	23	[8, 2, 1]	12	FR1	0	R1032D
2328.788	2.767	3807040	PROB	2.767	n/a	n/a	-999	23	[9, 1, 4]	14	FR1	0	R1032D
2331.555	4.134	3811467	PROB	4.134	n/a	n/a	-999	23	[9, 2, 6]	17	FR1	0	R1032D
2335.689	6.868	3818081	PROB	6.868	n/a	n/a	-999	23	[7, 3, 6]	16	FR1	0	R1032D
2342.557	2.971	3829069	PROB	2.971	n/a	n/a	-999	23	[9, 6, 4]	19	FR1	0	R1032D
2345.528	0.013	3833822	STOP	n/a	n/a	n/a	-999	23	[-999, -999, -999]	n/a	FR1	0	R1032D
2345.541	1.167	3833843	DISTRACT_END	n/a	n/a	n/a	-999	23	[0, 0, 0]	n/a	FR1	0	R1032D
2346.708	2.944	3835710	REC_START	n/a	n/a	n/a	-999	23	[0, 0, 0]	n/a	FR1	0	R1032D
2349.652	3.235	3840420	REC_WORD	3.235	n/a	HOUSE	-999	23	[0, 0, 0]	n/a	FR1	0	R1032D
2352.887	1.361	3845596	REC_WORD	1.361	n/a	BARN	-999	23	[0, 0, 0]	n/a	FR1	0	R1032D
2354.248	2.075	3847774	REC_WORD	2.075	n/a	CAGE	-999	23	[0, 0, 0]	n/a	FR1	0	R1032D
2356.323	20.403	3851093	REC_WORD	20.403	n/a	ROOM	-999	23	[0, 0, 0]	n/a	FR1	0	R1032D
2376.726	2.688	3883737	REC_END	n/a	n/a	n/a	-999	23	[0, 0, 0]	n/a	FR1	0	R1032D
2379.414	0.0	3888037	COUNTDOWN_START	n/a	n/a	n/a	-999	24	[0, 0, 0]	n/a	FR1	0	R1032D
2379.414	10.428	3888037	TRIAL	n/a	n/a	n/a	-999	24	[0, 0, 0]	n/a	FR1	0	R1032D
2389.842	0.007	3904721	COUNTDOWN_END	n/a	n/a	n/a	-999	24	[0, 0, 0]	n/a	FR1	0	R1032D
2389.849	2.433	3904732	ORIENT	n/a	n/a	n/a	-999	24	[0, 0, 0]	n/a	FR1	0	R1032D
2392.282	2.468	3908625	WORD	n/a	wordpools/wordpool_EN.txt	PASTE	1	24	[0, 0, 0]	n/a	FR1	0	R1032D
2394.75	2.517	3912574	WORD	n/a	wordpools/wordpool_EN.txt	SHEET	2	24	[0, 0, 0]	n/a	FR1	0	R1032D
2397.267	2.434	3916601	WORD	n/a	wordpools/wordpool_EN.txt	TOOL	3	24	[0, 0, 0]	n/a	FR1	0	R1032D
2399.701	2.6	3920495	WORD	n/a	wordpools/wordpool_EN.txt	TANK	4	24	[0, 0, 0]	n/a	FR1	0	R1032D
2402.301	2.584	3924655	WORD	n/a	wordpools/wordpool_EN.txt	COIN	5	24	[0, 0, 0]	n/a	FR1	0	R1032D
2404.885	2.601	3928789	WORD	n/a	wordpools/wordpool_EN.txt	STEM	6	24	[0, 0, 0]	n/a	FR1	0	R1032D
2407.486	2.618	3932950	WORD	n/a	wordpools/wordpool_EN.txt	NET	7	24	[0, 0, 0]	n/a	FR1	0	R1032D
2410.104	2.449	3937139	WORD	n/a	wordpools/wordpool_EN.txt	MOOSE	8	24	[0, 0, 0]	n/a	FR1	0	R1032D
2412.553	2.518	3941057	WORD	n/a	wordpools/wordpool_EN.txt	INK	9	24	[0, 0, 0]	n/a	FR1	0	R1032D
2415.071	2.466	3945085	WORD	n/a	wordpools/wordpool_EN.txt	TOOTH	10	24	[0, 0, 0]	n/a	FR1	0	R1032D
2417.537	2.535	3949031	WORD	n/a	wordpools/wordpool_EN.txt	FRUIT	11	24	[0, 0, 0]	n/a	FR1	0	R1032D
2420.072	1.616	3953087	WORD	n/a	wordpools/wordpool_EN.txt	RICE	12	24	[0, 0, 0]	n/a	FR1	0	R1032D
2421.688	0.001	3955672	DISTRACT_START	n/a	n/a	n/a	-999	24	[0, 0, 0]	n/a	FR1	0	R1032D
2421.689	0.016	3955674	START	n/a	n/a	n/a	-999	24	[-999, -999, -999]	n/a	FR1	0	R1032D
2421.705	3.084	3955699	PROB	3.084	n/a	n/a	-999	24	[8, 8, 5]	21	FR1	0	R1032D
2424.789	2.0	3960634	PROB	2.0	n/a	n/a	-999	24	[5, 5, 1]	11	FR1	0	R1032D
2426.789	2.867	3963833	PROB	2.867	n/a	n/a	-999	24	[5, 6, 6]	17	FR1	0	R1032D
2429.656	2.684	3968420	PROB	2.684	n/a	n/a	-999	24	[8, 4, 6]	18	FR1	0	R1032D
2432.34	2.934	3972715	PROB	2.934	n/a	n/a	-999	24	[2, 8, 8]	18	FR1	0	R1032D
2435.274	1.684	3977409	PROB	1.684	n/a	n/a	-999	24	[5, 5, 2]	12	FR1	0	R1032D
2436.958	2.8	3980103	PROB	2.8	n/a	n/a	-999	24	[9, 3, 8]	20	FR1	0	R1032D
2439.758	2.42	3984583	PROB	2.42	n/a	n/a	-999	24	[5, 9, 1]	15	FR1	0	R1032D
2442.178	0.014	3988455	STOP	n/a	n/a	n/a	-999	24	[-999, -999, -999]	n/a	FR1	0	R1032D
2442.192	1.218	3988477	DISTRACT_END	n/a	n/a	n/a	-999	24	[0, 0, 0]	n/a	FR1	0	R1032D
2443.41	2.236	3990426	REC_START	n/a	n/a	n/a	-999	24	[0, 0, 0]	n/a	FR1	0	R1032D
2445.646	5.789	3994003	REC_WORD	5.789	n/a	MOOSE	-999	24	[0, 0, 0]	n/a	FR1	0	R1032D
2451.435	2.249	4003265	REC_WORD	2.249	n/a	INK	-999	24	[0, 0, 0]	n/a	FR1	0	R1032D
2453.684	2.977	4006863	REC_WORD_VV	2.977	n/a	<>	-999	24	[0, 0, 0]	n/a	FR1	0	R1032D
2456.661	7.084	4011626	REC_WORD_VV	7.084	n/a	<>	-999	24	[0, 0, 0]	n/a	FR1	0	R1032D
2463.745	9.677	4022960	REC_WORD	9.677	n/a	FRUIT	-999	24	[0, 0, 0]	n/a	FR1	0	R1032D
2473.422	2.326	4038442	REC_END	n/a	n/a	n/a	-999	24	[0, 0, 0]	n/a	FR1	0	R1032D
2475.748	0.0	4042164	TRIAL	n/a	n/a	n/a	-999	25	[0, 0, 0]	n/a	FR1	0	R1032D
2475.748	10.428	4042164	COUNTDOWN_START	n/a	n/a	n/a	-999	25	[0, 0, 0]	n/a	FR1	0	R1032D
2486.176	0.008	4058848	COUNTDOWN_END	n/a	n/a	n/a	-999	25	[0, 0, 0]	n/a	FR1	0	R1032D
2486.184	2.433	4058861	ORIENT	n/a	n/a	n/a	-999	25	[0, 0, 0]	n/a	FR1	0	R1032D
2488.617	2.452	4062753	WORD	n/a	wordpools/wordpool_EN.txt	TRUCK	1	25	[0, 0, 0]	n/a	FR1	0	R1032D
2491.069	2.382	4066676	WORD	n/a	wordpools/wordpool_EN.txt	SLEEVE	2	25	[0, 0, 0]	n/a	FR1	0	R1032D
2493.451	2.401	4070487	WORD	n/a	wordpools/wordpool_EN.txt	PET	3	25	[0, 0, 0]	n/a	FR1	0	R1032D
2495.852	2.534	4074329	WORD	n/a	wordpools/wordpool_EN.txt	APE	4	25	[0, 0, 0]	n/a	FR1	0	R1032D
2498.386	2.55	4078383	WORD	n/a	wordpools/wordpool_EN.txt	GLASS	5	25	[0, 0, 0]	n/a	FR1	0	R1032D
2500.936	2.584	4082463	WORD	n/a	wordpools/wordpool_EN.txt	SHOE	6	25	[0, 0, 0]	n/a	FR1	0	R1032D
2503.52	2.384	4086597	WORD	n/a	wordpools/wordpool_EN.txt	ZOO	7	25	[0, 0, 0]	n/a	FR1	0	R1032D
2505.904	2.483	4090411	WORD	n/a	wordpools/wordpool_EN.txt	CUP	8	25	[0, 0, 0]	n/a	FR1	0	R1032D
2508.387	2.551	4094384	WORD	n/a	wordpools/wordpool_EN.txt	PIPE	9	25	[0, 0, 0]	n/a	FR1	0	R1032D
2510.938	2.567	4098465	WORD	n/a	wordpools/wordpool_EN.txt	PEN	10	25	[0, 0, 0]	n/a	FR1	0	R1032D
2513.505	2.568	4102572	WORD	n/a	wordpools/wordpool_EN.txt	SKUNK	11	25	[0, 0, 0]	n/a	FR1	0	R1032D
2516.073	1.616	4106681	WORD	n/a	wordpools/wordpool_EN.txt	STREET	12	25	[0, 0, 0]	n/a	FR1	0	R1032D
2517.689	0.001	4109266	DISTRACT_START	n/a	n/a	n/a	-999	25	[0, 0, 0]	n/a	FR1	0	R1032D
2517.69	0.016	4109268	START	n/a	n/a	n/a	-999	25	[-999, -999, -999]	n/a	FR1	0	R1032D
2517.706	4.817	4109293	PROB	4.817	n/a	n/a	-999	25	[1, 7, 5]	13	FR1	0	R1032D
2522.523	4.018	4117000	PROB	4.018	n/a	n/a	-999	25	[3, 9, 2]	14	FR1	0	R1032D
2526.541	2.734	4123429	PROB	2.734	n/a	n/a	-999	25	[9, 2, 8]	19	FR1	0	R1032D
2529.275	3.25	4127803	PROB	3.25	n/a	n/a	-999	25	[2, 3, 8]	13	FR1	0	R1032D
2532.525	2.784	4133003	PROB	2.784	n/a	n/a	-999	25	[1, 6, 5]	12	FR1	0	R1032D
2535.309	3.02	4137457	PROB	3.02	n/a	n/a	-999	25	[7, 4, 3]	14	FR1	0	R1032D
2538.329	0.014	4142289	STOP	n/a	n/a	n/a	-999	25	[-999, -999, -999]	n/a	FR1	0	R1032D
2538.343	1.201	4142311	DISTRACT_END	n/a	n/a	n/a	-999	25	[0, 0, 0]	n/a	FR1	0	R1032D
2539.544	1.883	4144232	REC_START	n/a	n/a	n/a	-999	25	[0, 0, 0]	n/a	FR1	0	R1032D
2541.427	1.959	4147245	REC_WORD	1.959	n/a	SHOE	-999	25	[0, 0, 0]	n/a	FR1	0	R1032D
2543.386	2.23	4150379	REC_WORD	2.23	n/a	ZOO	-999	25	[0, 0, 0]	n/a	FR1	0	R1032D
2545.616	2.125	4153947	REC_WORD	2.125	n/a	PIPE	-999	25	[0, 0, 0]	n/a	FR1	0	R1032D
2547.741	1.906	4157347	REC_WORD	1.906	n/a	PEN	-999	25	[0, 0, 0]	n/a	FR1	0	R1032D
2549.647	19.907	4160396	REC_WORD	19.907	n/a	SKUNK	-999	25	[0, 0, 0]	n/a	FR1	0	R1032D
2569.554	8.481	4192246	REC_END	n/a	n/a	n/a	-999	25	[0, 0, 0]	n/a	FR1	0	R1032D
2578.035	0.0	4205815	SESS_END	n/a	n/a	n/a	-999	25	[0, 0, 0]	n/a	FR1	0	R1032D
