onset	duration	sample	trial_type	response_time	stim_file	item_name	serialpos	list	test	answer	experiment	session	subject
0.0	0.0	21112	INSTRUCT_START	n/a	n/a	n/a	-999	-999	[0, 0, 0]	n/a	FR1	1	R1201P
0.0	10.933	21112	INSTRUCT_END	n/a	n/a	n/a	-999	-999	[0, 0, 0]	n/a	FR1	1	R1201P
10.933	0.0	32044	SESS_START	n/a	n/a	n/a	-999	-999	[0, 0, 0]	n/a	FR1	1	R1201P
10.933	79.044	32044	MIC_TEST	n/a	n/a	n/a	-999	-999	[0, 0, 0]	n/a	FR1	1	R1201P
89.977	4.574	111084	PRACTICE_TRIAL	n/a	n/a	n/a	-999	-1	[0, 0, 0]	n/a	FR1	1	R1201P
94.551	10.428	115658	COUNTDOWN_START	n/a	n/a	n/a	-999	-1	[0, 0, 0]	n/a	FR1	1	R1201P
104.979	0.008	126085	COUNTDOWN_END	n/a	n/a	n/a	-999	-1	[0, 0, 0]	n/a	FR1	1	R1201P
104.987	1.618	126093	PRACTICE_ORIENT	n/a	n/a	n/a	-999	-1	[0, 0, 0]	n/a	FR1	1	R1201P
106.605	2.083	127711	PRACTICE_ORIENT_OFF	n/a	n/a	n/a	-999	-1	[0, 0, 0]	n/a	FR1	1	R1201P
108.688	1.617	129794	PRACTICE_WORD	n/a	n/a	BEAM	1	-1	[0, 0, 0]	n/a	FR1	1	R1201P
110.305	1.0	131411	PRACTICE_WORD_OFF	n/a	n/a	BEAM	-999	-1	[0, 0, 0]	n/a	FR1	1	R1201P
111.305	1.616	132411	PRACTICE_WORD	n/a	n/a	CHEST	2	-1	[0, 0, 0]	n/a	FR1	1	R1201P
112.921	0.951	134027	PRACTICE_WORD_OFF	n/a	n/a	CHEST	-999	-1	[0, 0, 0]	n/a	FR1	1	R1201P
113.872	1.618	134978	PRACTICE_WORD	n/a	n/a	WAGON	3	-1	[0, 0, 0]	n/a	FR1	1	R1201P
115.49	0.883	136596	PRACTICE_WORD_OFF	n/a	n/a	WAGON	-999	-1	[0, 0, 0]	n/a	FR1	1	R1201P
116.373	1.616	137479	PRACTICE_WORD	n/a	n/a	RHINO	4	-1	[0, 0, 0]	n/a	FR1	1	R1201P
117.989	0.984	139095	PRACTICE_WORD_OFF	n/a	n/a	RHINO	-999	-1	[0, 0, 0]	n/a	FR1	1	R1201P
118.973	1.618	140079	PRACTICE_WORD	n/a	n/a	ATTIC	5	-1	[0, 0, 0]	n/a	FR1	1	R1201P
120.591	0.866	141697	PRACTICE_WORD_OFF	n/a	n/a	ATTIC	-999	-1	[0, 0, 0]	n/a	FR1	1	R1201P
121.457	1.616	142563	PRACTICE_WORD	n/a	n/a	IRON	6	-1	[0, 0, 0]	n/a	FR1	1	R1201P
123.073	0.984	144178	PRACTICE_WORD_OFF	n/a	n/a	IRON	-999	-1	[0, 0, 0]	n/a	FR1	1	R1201P
124.057	1.618	145162	PRACTICE_WORD	n/a	n/a	COTTON	7	-1	[0, 0, 0]	n/a	FR1	1	R1201P
125.675	0.967	146780	PRACTICE_WORD_OFF	n/a	n/a	COTTON	-999	-1	[0, 0, 0]	n/a	FR1	1	R1201P
126.642	1.617	147747	PRACTICE_WORD	n/a	n/a	RING	8	-1	[0, 0, 0]	n/a	FR1	1	R1201P
128.259	0.765	149364	PRACTICE_WORD_OFF	n/a	n/a	RING	-999	-1	[0, 0, 0]	n/a	FR1	1	R1201P
129.024	1.601	150129	PRACTICE_WORD	n/a	n/a	WATCH	9	-1	[0, 0, 0]	n/a	FR1	1	R1201P
130.625	0.884	151730	PRACTICE_WORD_OFF	n/a	n/a	WATCH	-999	-1	[0, 0, 0]	n/a	FR1	1	R1201P
131.509	1.616	152614	PRACTICE_WORD	n/a	n/a	FLOOD	10	-1	[0, 0, 0]	n/a	FR1	1	R1201P
133.125	0.834	154230	PRACTICE_WORD_OFF	n/a	n/a	FLOOD	-999	-1	[0, 0, 0]	n/a	FR1	1	R1201P
133.959	1.618	155064	PRACTICE_WORD	n/a	n/a	TONGUE	11	-1	[0, 0, 0]	n/a	FR1	1	R1201P
135.577	0.983	156682	PRACTICE_WORD_OFF	n/a	n/a	TONGUE	-999	-1	[0, 0, 0]	n/a	FR1	1	R1201P
136.56	1.617	157665	PRACTICE_WORD	n/a	n/a	CAMEL	12	-1	[0, 0, 0]	n/a	FR1	1	R1201P
138.177	0.0	159282	PRACTICE_WORD_OFF	n/a	n/a	CAMEL	-999	-1	[0, 0, 0]	n/a	FR1	1	R1201P
138.177	0.001	159282	DISTRACT_START	n/a	n/a	n/a	-999	-1	[0, 0, 0]	n/a	FR1	1	R1201P
138.178	0.016	159283	START	n/a	n/a	n/a	-999	-1	[-999, -999, -999]	n/a	FR1	1	R1201P
138.194	6.617	159299	PROB	6.617	n/a	n/a	-999	-1	[9, 4, 5]	18	FR1	1	R1201P
144.811	4.318	165915	PROB	4.318	n/a	n/a	-999	-1	[7, 5, 7]	19	FR1	1	R1201P
149.129	6.834	170233	PROB	6.834	n/a	n/a	-999	-1	[9, 5, 7]	21	FR1	1	R1201P
155.963	3.195	177067	PROB	3.195	n/a	n/a	-999	-1	[1, 9, 7]	17	FR1	1	R1201P
159.158	0.006	180262	STOP	n/a	n/a	n/a	-999	-1	[-999, -999, -999]	n/a	FR1	1	R1201P
159.164	0.566	180268	DISTRACT_END	n/a	n/a	n/a	-999	-1	[0, 0, 0]	n/a	FR1	1	R1201P
159.73	0.519	180834	RETRIEVAL_ORIENT	n/a	n/a	n/a	-999	-1	[0, 0, 0]	n/a	FR1	1	R1201P
160.249	30.012	181353	PRACTICE_REC_START	n/a	n/a	n/a	-999	-1	[0, 0, 0]	n/a	FR1	1	R1201P
190.261	12.744	211363	PRACTICE_REC_END	n/a	n/a	n/a	-999	-1	[0, 0, 0]	n/a	FR1	1	R1201P
203.005	0.5	224106	TRIAL	n/a	n/a	n/a	-999	1	[0, 0, 0]	n/a	FR1	1	R1201P
203.505	10.428	224606	COUNTDOWN_START	n/a	n/a	n/a	-999	1	[0, 0, 0]	n/a	FR1	1	R1201P
213.933	0.007	235034	COUNTDOWN_END	n/a	n/a	n/a	-999	1	[0, 0, 0]	n/a	FR1	1	R1201P
213.94	1.618	235041	ORIENT	n/a	n/a	n/a	-999	1	[0, 0, 0]	n/a	FR1	1	R1201P
215.558	2.017	236659	ORIENT_OFF	n/a	n/a	n/a	-999	1	[0, 0, 0]	n/a	FR1	1	R1201P
217.575	1.617	238676	WORD	n/a	wordpools/wordpool_EN.txt	MAIL	1	1	[0, 0, 0]	n/a	FR1	1	R1201P
219.192	0.933	240293	WORD_OFF	n/a	n/a	MAIL	1	1	[0, 0, 0]	n/a	FR1	1	R1201P
220.125	1.601	241226	WORD	n/a	wordpools/wordpool_EN.txt	BANK	2	1	[0, 0, 0]	n/a	FR1	1	R1201P
221.726	0.85	242826	WORD_OFF	n/a	n/a	BANK	2	1	[0, 0, 0]	n/a	FR1	1	R1201P
222.576	1.617	243676	WORD	n/a	wordpools/wordpool_EN.txt	STAR	3	1	[0, 0, 0]	n/a	FR1	1	R1201P
224.193	0.933	245293	WORD_OFF	n/a	n/a	STAR	3	1	[0, 0, 0]	n/a	FR1	1	R1201P
225.126	1.617	246226	WORD	n/a	wordpools/wordpool_EN.txt	ROOT	4	1	[0, 0, 0]	n/a	FR1	1	R1201P
226.743	0.901	247843	WORD_OFF	n/a	n/a	ROOT	4	1	[0, 0, 0]	n/a	FR1	1	R1201P
227.644	1.617	248744	WORD	n/a	wordpools/wordpool_EN.txt	MOON	5	1	[0, 0, 0]	n/a	FR1	1	R1201P
229.261	0.866	250361	WORD_OFF	n/a	n/a	MOON	5	1	[0, 0, 0]	n/a	FR1	1	R1201P
230.127	1.617	251227	WORD	n/a	wordpools/wordpool_EN.txt	POLE	6	1	[0, 0, 0]	n/a	FR1	1	R1201P
231.744	0.834	252844	WORD_OFF	n/a	n/a	POLE	6	1	[0, 0, 0]	n/a	FR1	1	R1201P
232.578	1.617	253678	WORD	n/a	wordpools/wordpool_EN.txt	BALL	7	1	[0, 0, 0]	n/a	FR1	1	R1201P
234.195	0.916	255295	WORD_OFF	n/a	n/a	BALL	7	1	[0, 0, 0]	n/a	FR1	1	R1201P
235.111	1.618	256211	WORD	n/a	wordpools/wordpool_EN.txt	HOOF	8	1	[0, 0, 0]	n/a	FR1	1	R1201P
236.729	0.784	257829	WORD_OFF	n/a	n/a	HOOF	8	1	[0, 0, 0]	n/a	FR1	1	R1201P
237.513	1.616	258613	WORD	n/a	wordpools/wordpool_EN.txt	MAP	9	1	[0, 0, 0]	n/a	FR1	1	R1201P
239.129	0.916	260229	WORD_OFF	n/a	n/a	MAP	9	1	[0, 0, 0]	n/a	FR1	1	R1201P
240.045	1.601	261144	WORD	n/a	wordpools/wordpool_EN.txt	CORD	10	1	[0, 0, 0]	n/a	FR1	1	R1201P
241.646	1.017	262745	WORD_OFF	n/a	n/a	CORD	10	1	[0, 0, 0]	n/a	FR1	1	R1201P
242.663	1.617	263762	WORD	n/a	wordpools/wordpool_EN.txt	CASH	11	1	[0, 0, 0]	n/a	FR1	1	R1201P
244.28	0.917	265379	WORD_OFF	n/a	n/a	CASH	11	1	[0, 0, 0]	n/a	FR1	1	R1201P
245.197	1.616	266296	WORD	n/a	wordpools/wordpool_EN.txt	FILM	12	1	[0, 0, 0]	n/a	FR1	1	R1201P
246.813	0.0	267912	WORD_OFF	n/a	n/a	FILM	12	1	[0, 0, 0]	n/a	FR1	1	R1201P
246.813	0.001	267912	DISTRACT_START	n/a	n/a	n/a	-999	1	[0, 0, 0]	n/a	FR1	1	R1201P
246.814	0.016	267913	START	n/a	n/a	n/a	-999	1	[-999, -999, -999]	n/a	FR1	1	R1201P
246.83	8.051	267929	PROB	8.051	n/a	n/a	-999	1	[4, 4, 7]	15	FR1	1	R1201P
254.881	3.635	275980	PROB	3.635	n/a	n/a	-999	1	[9, 9, 9]	24	FR1	1	R1201P
258.516	9.202	279615	PROB	9.202	n/a	n/a	-999	1	[3, 9, 5]	17	FR1	1	R1201P
267.718	0.016	288816	STOP	n/a	n/a	n/a	-999	1	[-999, -999, -999]	n/a	FR1	1	R1201P
267.734	0.651	288832	DISTRACT_END	n/a	n/a	n/a	-999	1	[0, 0, 0]	n/a	FR1	1	R1201P
268.385	0.521	289483	RETRIEVAL_ORIENT	n/a	n/a	n/a	-999	1	[0, 0, 0]	n/a	FR1	1	R1201P
268.906	1.679	290004	REC_START	n/a	n/a	n/a	-999	1	[0, 0, 0]	n/a	FR1	1	R1201P
270.585	1.009	291683	REC_WORD	1.009	n/a	MAIL	1	1	[0, 0, 0]	n/a	FR1	1	R1201P
271.594	0.692	292692	REC_WORD	0.692	n/a	BANK	2	1	[0, 0, 0]	n/a	FR1	1	R1201P
272.286	7.712	293384	REC_WORD	7.712	n/a	STAR	3	1	[0, 0, 0]	n/a	FR1	1	R1201P
279.998	18.914	301095	REC_WORD	18.914	n/a	HOOF	8	1	[0, 0, 0]	n/a	FR1	1	R1201P
298.912	10.747	320008	REC_END	n/a	n/a	n/a	-999	1	[0, 0, 0]	n/a	FR1	1	R1201P
309.659	0.5	330755	TRIAL	n/a	n/a	n/a	-999	2	[0, 0, 0]	n/a	FR1	1	R1201P
310.159	10.428	331255	COUNTDOWN_START	n/a	n/a	n/a	-999	2	[0, 0, 0]	n/a	FR1	1	R1201P
320.587	0.008	341682	COUNTDOWN_END	n/a	n/a	n/a	-999	2	[0, 0, 0]	n/a	FR1	1	R1201P
320.595	1.617	341690	ORIENT	n/a	n/a	n/a	-999	2	[0, 0, 0]	n/a	FR1	1	R1201P
322.212	2.2	343307	ORIENT_OFF	n/a	n/a	n/a	-999	2	[0, 0, 0]	n/a	FR1	1	R1201P
324.412	1.616	345507	WORD	n/a	wordpools/wordpool_EN.txt	PIE	1	2	[0, 0, 0]	n/a	FR1	1	R1201P
326.028	0.917	347123	WORD_OFF	n/a	n/a	PIE	1	2	[0, 0, 0]	n/a	FR1	1	R1201P
326.945	1.618	348040	WORD	n/a	wordpools/wordpool_EN.txt	TRAY	2	2	[0, 0, 0]	n/a	FR1	1	R1201P
328.563	0.767	349658	WORD_OFF	n/a	n/a	TRAY	2	2	[0, 0, 0]	n/a	FR1	1	R1201P
329.33	1.616	350425	WORD	n/a	wordpools/wordpool_EN.txt	PEACH	3	2	[0, 0, 0]	n/a	FR1	1	R1201P
330.946	0.85	352041	WORD_OFF	n/a	n/a	PEACH	3	2	[0, 0, 0]	n/a	FR1	1	R1201P
331.796	1.618	352891	WORD	n/a	wordpools/wordpool_EN.txt	SOCK	4	2	[0, 0, 0]	n/a	FR1	1	R1201P
333.414	0.883	354509	WORD_OFF	n/a	n/a	SOCK	4	2	[0, 0, 0]	n/a	FR1	1	R1201P
334.297	1.616	355392	WORD	n/a	wordpools/wordpool_EN.txt	MUG	5	2	[0, 0, 0]	n/a	FR1	1	R1201P
335.913	0.817	357008	WORD_OFF	n/a	n/a	MUG	5	2	[0, 0, 0]	n/a	FR1	1	R1201P
336.73	1.601	357825	WORD	n/a	wordpools/wordpool_EN.txt	PLATE	6	2	[0, 0, 0]	n/a	FR1	1	R1201P
338.331	0.801	359425	WORD_OFF	n/a	n/a	PLATE	6	2	[0, 0, 0]	n/a	FR1	1	R1201P
339.132	1.616	360226	WORD	n/a	wordpools/wordpool_EN.txt	SUIT	7	2	[0, 0, 0]	n/a	FR1	1	R1201P
340.748	0.834	361842	WORD_OFF	n/a	n/a	SUIT	7	2	[0, 0, 0]	n/a	FR1	1	R1201P
341.582	1.617	362676	WORD	n/a	wordpools/wordpool_EN.txt	DART	8	2	[0, 0, 0]	n/a	FR1	1	R1201P
343.199	0.899	364293	WORD_OFF	n/a	n/a	DART	8	2	[0, 0, 0]	n/a	FR1	1	R1201P
344.098	1.618	365192	WORD	n/a	wordpools/wordpool_EN.txt	FLOOR	9	2	[0, 0, 0]	n/a	FR1	1	R1201P
345.716	0.9	366810	WORD_OFF	n/a	n/a	FLOOR	9	2	[0, 0, 0]	n/a	FR1	1	R1201P
346.616	1.617	367710	WORD	n/a	wordpools/wordpool_EN.txt	CANE	10	2	[0, 0, 0]	n/a	FR1	1	R1201P
348.233	0.9	369327	WORD_OFF	n/a	n/a	CANE	10	2	[0, 0, 0]	n/a	FR1	1	R1201P
349.133	1.616	370227	WORD	n/a	wordpools/wordpool_EN.txt	DOLL	11	2	[0, 0, 0]	n/a	FR1	1	R1201P
350.749	0.785	371843	WORD_OFF	n/a	n/a	DOLL	11	2	[0, 0, 0]	n/a	FR1	1	R1201P
351.534	1.617	372628	WORD	n/a	wordpools/wordpool_EN.txt	CHAIR	12	2	[0, 0, 0]	n/a	FR1	1	R1201P
353.151	0.0	374245	DISTRACT_START	n/a	n/a	n/a	-999	2	[0, 0, 0]	n/a	FR1	1	R1201P
353.151	0.001	374245	WORD_OFF	n/a	n/a	CHAIR	12	2	[0, 0, 0]	n/a	FR1	1	R1201P
353.152	0.016	374246	START	n/a	n/a	n/a	-999	2	[-999, -999, -999]	n/a	FR1	1	R1201P
353.168	4.883	374262	PROB	4.883	n/a	n/a	-999	2	[5, 9, 6]	20	FR1	1	R1201P
358.051	4.218	379144	PROB	4.218	n/a	n/a	-999	2	[1, 7, 7]	15	FR1	1	R1201P
362.269	3.418	383362	PROB	3.418	n/a	n/a	-999	2	[6, 3, 6]	15	FR1	1	R1201P
365.687	4.166	386780	PROB	4.166	n/a	n/a	-999	2	[5, 9, 7]	21	FR1	1	R1201P
369.853	3.017	390946	PROB	3.017	n/a	n/a	-999	2	[5, 5, 7]	17	FR1	1	R1201P
372.87	6.064	393963	PROB	6.064	n/a	n/a	-999	2	[8, 8, 7]	23	FR1	1	R1201P
378.934	0.021	400026	STOP	n/a	n/a	n/a	-999	2	[-999, -999, -999]	n/a	FR1	1	R1201P
378.955	0.617	400047	DISTRACT_END	n/a	n/a	n/a	-999	2	[0, 0, 0]	n/a	FR1	1	R1201P
379.572	0.517	400664	RETRIEVAL_ORIENT	n/a	n/a	n/a	-999	2	[0, 0, 0]	n/a	FR1	1	R1201P
380.089	1.41	401181	REC_START	n/a	n/a	n/a	-999	2	[0, 0, 0]	n/a	FR1	1	R1201P
381.499	0.729	402591	REC_WORD	0.729	n/a	PIE	1	2	[0, 0, 0]	n/a	FR1	1	R1201P
382.228	3.76	403320	REC_WORD	3.76	n/a	TRAY	2	2	[0, 0, 0]	n/a	FR1	1	R1201P
385.988	24.112	407080	REC_WORD	24.112	n/a	STOOL	-999	2	[0, 0, 0]	n/a	FR1	1	R1201P
410.1	5.312	431191	REC_END	n/a	n/a	n/a	-999	2	[0, 0, 0]	n/a	FR1	1	R1201P
415.412	0.5	436503	TRIAL	n/a	n/a	n/a	-999	3	[0, 0, 0]	n/a	FR1	1	R1201P
415.912	10.428	437003	COUNTDOWN_START	n/a	n/a	n/a	-999	3	[0, 0, 0]	n/a	FR1	1	R1201P
426.34	0.008	447430	COUNTDOWN_END	n/a	n/a	n/a	-999	3	[0, 0, 0]	n/a	FR1	1	R1201P
426.348	1.616	447438	ORIENT	n/a	n/a	n/a	-999	3	[0, 0, 0]	n/a	FR1	1	R1201P
427.964	1.867	449054	ORIENT_OFF	n/a	n/a	n/a	-999	3	[0, 0, 0]	n/a	FR1	1	R1201P
429.831	1.618	450921	WORD	n/a	wordpools/wordpool_EN.txt	FUR	1	3	[0, 0, 0]	n/a	FR1	1	R1201P
431.449	0.833	452539	WORD_OFF	n/a	n/a	FUR	1	3	[0, 0, 0]	n/a	FR1	1	R1201P
432.282	1.616	453372	WORD	n/a	wordpools/wordpool_EN.txt	SKI	2	3	[0, 0, 0]	n/a	FR1	1	R1201P
433.898	0.934	454988	WORD_OFF	n/a	n/a	SKI	2	3	[0, 0, 0]	n/a	FR1	1	R1201P
434.832	1.601	455922	WORD	n/a	wordpools/wordpool_EN.txt	CLOWN	3	3	[0, 0, 0]	n/a	FR1	1	R1201P
436.433	0.9	457522	WORD_OFF	n/a	n/a	CLOWN	3	3	[0, 0, 0]	n/a	FR1	1	R1201P
437.333	1.616	458422	WORD	n/a	wordpools/wordpool_EN.txt	BEAR	4	3	[0, 0, 0]	n/a	FR1	1	R1201P
438.949	1.0	460038	WORD_OFF	n/a	n/a	BEAR	4	3	[0, 0, 0]	n/a	FR1	1	R1201P
439.949	1.602	461038	WORD	n/a	wordpools/wordpool_EN.txt	DOOR	5	3	[0, 0, 0]	n/a	FR1	1	R1201P
441.551	0.966	462640	WORD_OFF	n/a	n/a	DOOR	5	3	[0, 0, 0]	n/a	FR1	1	R1201P
442.517	1.618	463606	WORD	n/a	wordpools/wordpool_EN.txt	GEESE	6	3	[0, 0, 0]	n/a	FR1	1	R1201P
444.135	1.0	465224	WORD_OFF	n/a	n/a	GEESE	6	3	[0, 0, 0]	n/a	FR1	1	R1201P
445.135	1.616	466224	WORD	n/a	wordpools/wordpool_EN.txt	DOCK	7	3	[0, 0, 0]	n/a	FR1	1	R1201P
446.751	0.851	467840	WORD_OFF	n/a	n/a	DOCK	7	3	[0, 0, 0]	n/a	FR1	1	R1201P
447.602	1.617	468691	WORD	n/a	wordpools/wordpool_EN.txt	SAIL	8	3	[0, 0, 0]	n/a	FR1	1	R1201P
449.219	1.0	470308	WORD_OFF	n/a	n/a	SAIL	8	3	[0, 0, 0]	n/a	FR1	1	R1201P
450.219	1.616	471308	WORD	n/a	wordpools/wordpool_EN.txt	RUG	9	3	[0, 0, 0]	n/a	FR1	1	R1201P
451.835	1.0	472924	WORD_OFF	n/a	n/a	RUG	9	3	[0, 0, 0]	n/a	FR1	1	R1201P
452.835	1.601	473924	WORD	n/a	wordpools/wordpool_EN.txt	WHALE	10	3	[0, 0, 0]	n/a	FR1	1	R1201P
454.436	0.867	475525	WORD_OFF	n/a	n/a	WHALE	10	3	[0, 0, 0]	n/a	FR1	1	R1201P
455.303	1.616	476391	WORD	n/a	wordpools/wordpool_EN.txt	PANTS	11	3	[0, 0, 0]	n/a	FR1	1	R1201P
456.919	1.001	478007	WORD_OFF	n/a	n/a	PANTS	11	3	[0, 0, 0]	n/a	FR1	1	R1201P
457.92	1.618	479008	WORD	n/a	wordpools/wordpool_EN.txt	WOLF	12	3	[0, 0, 0]	n/a	FR1	1	R1201P
459.538	0.0	480626	WORD_OFF	n/a	n/a	WOLF	12	3	[0, 0, 0]	n/a	FR1	1	R1201P
459.538	0.0	480626	DISTRACT_START	n/a	n/a	n/a	-999	3	[0, 0, 0]	n/a	FR1	1	R1201P
459.538	0.016	480626	START	n/a	n/a	n/a	-999	3	[-999, -999, -999]	n/a	FR1	1	R1201P
459.554	3.483	480642	PROB	3.483	n/a	n/a	-999	3	[2, 3, 2]	7	FR1	1	R1201P
463.037	9.702	484125	PROB	9.702	n/a	n/a	-999	3	[9, 7, 5]	21	FR1	1	R1201P
472.739	3.402	493827	PROB	3.402	n/a	n/a	-999	3	[3, 8, 7]	18	FR1	1	R1201P
476.141	4.145	497228	PROB	4.145	n/a	n/a	-999	3	[6, 1, 8]	15	FR1	1	R1201P
480.286	0.005	501373	STOP	n/a	n/a	n/a	-999	3	[-999, -999, -999]	n/a	FR1	1	R1201P
480.291	0.566	501378	DISTRACT_END	n/a	n/a	n/a	-999	3	[0, 0, 0]	n/a	FR1	1	R1201P
480.857	0.523	501944	RETRIEVAL_ORIENT	n/a	n/a	n/a	-999	3	[0, 0, 0]	n/a	FR1	1	R1201P
481.38	1.54	502467	REC_START	n/a	n/a	n/a	-999	3	[0, 0, 0]	n/a	FR1	1	R1201P
482.92	1.483	504007	REC_WORD	1.483	n/a	FUR	1	3	[0, 0, 0]	n/a	FR1	1	R1201P
484.403	3.161	505490	REC_WORD	3.161	n/a	PLANT	-999	3	[0, 0, 0]	n/a	FR1	1	R1201P
487.564	4.593	508651	REC_WORD_VV	4.593	n/a	<>	-999	3	[0, 0, 0]	n/a	FR1	1	R1201P
492.157	19.231	513244	REC_WORD	19.231	n/a	BEAR	4	3	[0, 0, 0]	n/a	FR1	1	R1201P
511.388	89.976	532474	REC_END	n/a	n/a	n/a	-999	3	[0, 0, 0]	n/a	FR1	1	R1201P
601.364	0.5	622445	TRIAL	n/a	n/a	n/a	-999	4	[0, 0, 0]	n/a	FR1	1	R1201P
601.864	10.428	622945	COUNTDOWN_START	n/a	n/a	n/a	-999	4	[0, 0, 0]	n/a	FR1	1	R1201P
612.292	0.008	633372	COUNTDOWN_END	n/a	n/a	n/a	-999	4	[0, 0, 0]	n/a	FR1	1	R1201P
612.3	1.616	633380	ORIENT	n/a	n/a	n/a	-999	4	[0, 0, 0]	n/a	FR1	1	R1201P
613.916	2.167	634996	ORIENT_OFF	n/a	n/a	n/a	-999	4	[0, 0, 0]	n/a	FR1	1	R1201P
616.083	1.618	637163	WORD	n/a	wordpools/wordpool_EN.txt	BROOM	1	4	[0, 0, 0]	n/a	FR1	1	R1201P
617.701	0.833	638781	WORD_OFF	n/a	n/a	BROOM	1	4	[0, 0, 0]	n/a	FR1	1	R1201P
618.534	1.617	639614	WORD	n/a	wordpools/wordpool_EN.txt	LIP	2	4	[0, 0, 0]	n/a	FR1	1	R1201P
620.151	0.916	641231	WORD_OFF	n/a	n/a	LIP	2	4	[0, 0, 0]	n/a	FR1	1	R1201P
621.067	1.618	642147	WORD	n/a	wordpools/wordpool_EN.txt	DESK	3	4	[0, 0, 0]	n/a	FR1	1	R1201P
622.685	0.983	643765	WORD_OFF	n/a	n/a	DESK	3	4	[0, 0, 0]	n/a	FR1	1	R1201P
623.668	1.617	644748	WORD	n/a	wordpools/wordpool_EN.txt	TIE	4	4	[0, 0, 0]	n/a	FR1	1	R1201P
625.285	1.0	646365	WORD_OFF	n/a	n/a	TIE	4	4	[0, 0, 0]	n/a	FR1	1	R1201P
626.285	1.617	647365	WORD	n/a	wordpools/wordpool_EN.txt	ELF	5	4	[0, 0, 0]	n/a	FR1	1	R1201P
627.902	0.767	648982	WORD_OFF	n/a	n/a	ELF	5	4	[0, 0, 0]	n/a	FR1	1	R1201P
628.669	1.617	649749	WORD	n/a	wordpools/wordpool_EN.txt	GATE	6	4	[0, 0, 0]	n/a	FR1	1	R1201P
630.286	0.766	651366	WORD_OFF	n/a	n/a	GATE	6	4	[0, 0, 0]	n/a	FR1	1	R1201P
631.052	1.618	652132	WORD	n/a	wordpools/wordpool_EN.txt	STICK	7	4	[0, 0, 0]	n/a	FR1	1	R1201P
632.67	0.95	653749	WORD_OFF	n/a	n/a	STICK	7	4	[0, 0, 0]	n/a	FR1	1	R1201P
633.62	1.617	654699	WORD	n/a	wordpools/wordpool_EN.txt	SEAT	8	4	[0, 0, 0]	n/a	FR1	1	R1201P
635.237	0.849	656316	WORD_OFF	n/a	n/a	SEAT	8	4	[0, 0, 0]	n/a	FR1	1	R1201P
636.086	1.618	657165	WORD	n/a	wordpools/wordpool_EN.txt	STAIR	9	4	[0, 0, 0]	n/a	FR1	1	R1201P
637.704	0.95	658783	WORD_OFF	n/a	n/a	STAIR	9	4	[0, 0, 0]	n/a	FR1	1	R1201P
638.654	1.618	659733	WORD	n/a	wordpools/wordpool_EN.txt	TRUCK	10	4	[0, 0, 0]	n/a	FR1	1	R1201P
640.272	0.848	661351	WORD_OFF	n/a	n/a	TRUCK	10	4	[0, 0, 0]	n/a	FR1	1	R1201P
641.12	1.602	662199	WORD	n/a	wordpools/wordpool_EN.txt	VEST	11	4	[0, 0, 0]	n/a	FR1	1	R1201P
642.722	0.9	663801	WORD_OFF	n/a	n/a	VEST	11	4	[0, 0, 0]	n/a	FR1	1	R1201P
643.622	1.617	664701	WORD	n/a	wordpools/wordpool_EN.txt	ROOM	12	4	[0, 0, 0]	n/a	FR1	1	R1201P
645.239	0.0	666318	WORD_OFF	n/a	n/a	ROOM	12	4	[0, 0, 0]	n/a	FR1	1	R1201P
645.239	0.001	666318	DISTRACT_START	n/a	n/a	n/a	-999	4	[0, 0, 0]	n/a	FR1	1	R1201P
645.24	0.016	666319	START	n/a	n/a	n/a	-999	4	[-999, -999, -999]	n/a	FR1	1	R1201P
645.256	4.051	666335	PROB	4.051	n/a	n/a	-999	4	[3, 1, 8]	12	FR1	1	R1201P
649.307	4.0	670386	PROB	4.0	n/a	n/a	-999	4	[3, 8, 3]	14	FR1	1	R1201P
653.307	3.533	674385	PROB	3.533	n/a	n/a	-999	4	[6, 2, 4]	12	FR1	1	R1201P
656.84	2.951	677918	PROB	2.951	n/a	n/a	-999	4	[5, 2, 7]	14	FR1	1	R1201P
659.791	4.635	680869	PROB	4.635	n/a	n/a	-999	4	[4, 9, 2]	15	FR1	1	R1201P
664.426	3.054	685504	PROB	3.054	n/a	n/a	-999	4	[2, 5, 8]	15	FR1	1	R1201P
667.48	0.013	688558	STOP	n/a	n/a	n/a	-999	4	[-999, -999, -999]	n/a	FR1	1	R1201P
667.493	0.616	688571	DISTRACT_END	n/a	n/a	n/a	-999	4	[0, 0, 0]	n/a	FR1	1	R1201P
668.109	0.519	689187	RETRIEVAL_ORIENT	n/a	n/a	n/a	-999	4	[0, 0, 0]	n/a	FR1	1	R1201P
668.628	0.518	689706	REC_START	n/a	n/a	n/a	-999	4	[0, 0, 0]	n/a	FR1	1	R1201P
669.146	1.143	690224	REC_WORD	1.143	n/a	LIP	2	4	[0, 0, 0]	n/a	FR1	1	R1201P
670.289	1.0	691367	REC_WORD	1.0	n/a	STICK	7	4	[0, 0, 0]	n/a	FR1	1	R1201P
671.289	21.527	692366	REC_WORD_VV	21.527	n/a	<>	-999	4	[0, 0, 0]	n/a	FR1	1	R1201P
692.816	5.822	713892	REC_WORD	5.822	n/a	STAIR	9	4	[0, 0, 0]	n/a	FR1	1	R1201P
698.638	4.779	719714	REC_END	n/a	n/a	n/a	-999	4	[0, 0, 0]	n/a	FR1	1	R1201P
703.417	0.5	724493	TRIAL	n/a	n/a	n/a	-999	5	[0, 0, 0]	n/a	FR1	1	R1201P
703.917	10.428	724993	COUNTDOWN_START	n/a	n/a	n/a	-999	5	[0, 0, 0]	n/a	FR1	1	R1201P
714.345	0.007	735420	COUNTDOWN_END	n/a	n/a	n/a	-999	5	[0, 0, 0]	n/a	FR1	1	R1201P
714.352	1.616	735427	ORIENT	n/a	n/a	n/a	-999	5	[0, 0, 0]	n/a	FR1	1	R1201P
715.968	2.1	737043	ORIENT_OFF	n/a	n/a	n/a	-999	5	[0, 0, 0]	n/a	FR1	1	R1201P
718.068	1.618	739143	WORD	n/a	wordpools/wordpool_EN.txt	GOAT	1	5	[0, 0, 0]	n/a	FR1	1	R1201P
719.686	0.884	740761	WORD_OFF	n/a	n/a	GOAT	1	5	[0, 0, 0]	n/a	FR1	1	R1201P
720.57	1.617	741645	WORD	n/a	wordpools/wordpool_EN.txt	HOLE	2	5	[0, 0, 0]	n/a	FR1	1	R1201P
722.187	0.866	743262	WORD_OFF	n/a	n/a	HOLE	2	5	[0, 0, 0]	n/a	FR1	1	R1201P
723.053	1.618	744128	WORD	n/a	wordpools/wordpool_EN.txt	BUSH	3	5	[0, 0, 0]	n/a	FR1	1	R1201P
724.671	0.917	745746	WORD_OFF	n/a	n/a	BUSH	3	5	[0, 0, 0]	n/a	FR1	1	R1201P
725.588	1.616	746663	WORD	n/a	wordpools/wordpool_EN.txt	HOOK	4	5	[0, 0, 0]	n/a	FR1	1	R1201P
727.204	0.783	748279	WORD_OFF	n/a	n/a	HOOK	4	5	[0, 0, 0]	n/a	FR1	1	R1201P
727.987	1.618	749062	WORD	n/a	wordpools/wordpool_EN.txt	BRANCH	5	5	[0, 0, 0]	n/a	FR1	1	R1201P
729.605	0.983	750679	WORD_OFF	n/a	n/a	BRANCH	5	5	[0, 0, 0]	n/a	FR1	1	R1201P
730.588	1.617	751662	WORD	n/a	wordpools/wordpool_EN.txt	KITE	6	5	[0, 0, 0]	n/a	FR1	1	R1201P
732.205	0.916	753279	WORD_OFF	n/a	n/a	KITE	6	5	[0, 0, 0]	n/a	FR1	1	R1201P
733.121	1.601	754195	WORD	n/a	wordpools/wordpool_EN.txt	TREE	7	5	[0, 0, 0]	n/a	FR1	1	R1201P
734.722	0.984	755796	WORD_OFF	n/a	n/a	TREE	7	5	[0, 0, 0]	n/a	FR1	1	R1201P
735.706	1.617	756780	WORD	n/a	wordpools/wordpool_EN.txt	VINE	8	5	[0, 0, 0]	n/a	FR1	1	R1201P
737.323	1.0	758397	WORD_OFF	n/a	n/a	VINE	8	5	[0, 0, 0]	n/a	FR1	1	R1201P
738.323	1.616	759397	WORD	n/a	wordpools/wordpool_EN.txt	BARN	9	5	[0, 0, 0]	n/a	FR1	1	R1201P
739.939	0.9	761013	WORD_OFF	n/a	n/a	BARN	9	5	[0, 0, 0]	n/a	FR1	1	R1201P
740.839	1.602	761913	WORD	n/a	wordpools/wordpool_EN.txt	ROOF	10	5	[0, 0, 0]	n/a	FR1	1	R1201P
742.441	0.833	763515	WORD_OFF	n/a	n/a	ROOF	10	5	[0, 0, 0]	n/a	FR1	1	R1201P
743.274	1.616	764348	WORD	n/a	wordpools/wordpool_EN.txt	PIN	11	5	[0, 0, 0]	n/a	FR1	1	R1201P
744.89	0.785	765964	WORD_OFF	n/a	n/a	PIN	11	5	[0, 0, 0]	n/a	FR1	1	R1201P
745.675	1.617	766749	WORD	n/a	wordpools/wordpool_EN.txt	SEAL	12	5	[0, 0, 0]	n/a	FR1	1	R1201P
747.292	0.0	768366	WORD_OFF	n/a	n/a	SEAL	12	5	[0, 0, 0]	n/a	FR1	1	R1201P
747.292	0.0	768366	DISTRACT_START	n/a	n/a	n/a	-999	5	[0, 0, 0]	n/a	FR1	1	R1201P
747.292	0.016	768366	START	n/a	n/a	n/a	-999	5	[-999, -999, -999]	n/a	FR1	1	R1201P
747.308	5.218	768382	PROB	5.218	n/a	n/a	-999	5	[8, 7, 1]	16	FR1	1	R1201P
752.526	3.249	773599	PROB	3.249	n/a	n/a	-999	5	[8, 3, 7]	18	FR1	1	R1201P
755.775	4.486	776848	PROB	4.486	n/a	n/a	-999	5	[6, 3, 1]	10	FR1	1	R1201P
760.261	4.5	781334	PROB	4.5	n/a	n/a	-999	5	[6, 3, 5]	14	FR1	1	R1201P
764.761	2.862	785834	PROB	2.862	n/a	n/a	-999	5	[4, 3, 4]	11	FR1	1	R1201P
767.623	0.005	788696	STOP	n/a	n/a	n/a	-999	5	[-999, -999, -999]	n/a	FR1	1	R1201P
767.628	0.551	788701	DISTRACT_END	n/a	n/a	n/a	-999	5	[0, 0, 0]	n/a	FR1	1	R1201P
768.179	0.517	789252	RETRIEVAL_ORIENT	n/a	n/a	n/a	-999	5	[0, 0, 0]	n/a	FR1	1	R1201P
768.696	9.943	789768	REC_START	n/a	n/a	n/a	-999	5	[0, 0, 0]	n/a	FR1	1	R1201P
778.639	14.401	799711	REC_WORD	14.401	n/a	ELF	-999	5	[0, 0, 0]	n/a	FR1	1	R1201P
793.04	5.667	814111	REC_WORD	5.667	n/a	EYE	-999	5	[0, 0, 0]	n/a	FR1	1	R1201P
798.707	33.767	819778	REC_END	n/a	n/a	n/a	-999	5	[0, 0, 0]	n/a	FR1	1	R1201P
832.474	0.5	853543	TRIAL	n/a	n/a	n/a	-999	6	[0, 0, 0]	n/a	FR1	1	R1201P
832.974	10.428	854043	COUNTDOWN_START	n/a	n/a	n/a	-999	6	[0, 0, 0]	n/a	FR1	1	R1201P
843.402	0.008	864471	COUNTDOWN_END	n/a	n/a	n/a	-999	6	[0, 0, 0]	n/a	FR1	1	R1201P
843.41	1.616	864479	ORIENT	n/a	n/a	n/a	-999	6	[0, 0, 0]	n/a	FR1	1	R1201P
845.026	2.218	866095	ORIENT_OFF	n/a	n/a	n/a	-999	6	[0, 0, 0]	n/a	FR1	1	R1201P
847.244	1.616	868312	WORD	n/a	wordpools/wordpool_EN.txt	FLUTE	1	6	[0, 0, 0]	n/a	FR1	1	R1201P
848.86	0.851	869928	WORD_OFF	n/a	n/a	FLUTE	1	6	[0, 0, 0]	n/a	FR1	1	R1201P
849.711	1.617	870779	WORD	n/a	wordpools/wordpool_EN.txt	INK	2	6	[0, 0, 0]	n/a	FR1	1	R1201P
851.328	0.833	872396	WORD_OFF	n/a	n/a	INK	2	6	[0, 0, 0]	n/a	FR1	1	R1201P
852.161	1.616	873229	WORD	n/a	wordpools/wordpool_EN.txt	DIME	3	6	[0, 0, 0]	n/a	FR1	1	R1201P
853.777	0.951	874845	WORD_OFF	n/a	n/a	DIME	3	6	[0, 0, 0]	n/a	FR1	1	R1201P
854.728	1.618	875796	WORD	n/a	wordpools/wordpool_EN.txt	BOX	4	6	[0, 0, 0]	n/a	FR1	1	R1201P
856.346	0.966	877414	WORD_OFF	n/a	n/a	BOX	4	6	[0, 0, 0]	n/a	FR1	1	R1201P
857.312	1.616	878380	WORD	n/a	wordpools/wordpool_EN.txt	WOOD	5	6	[0, 0, 0]	n/a	FR1	1	R1201P
858.928	1.0	879996	WORD_OFF	n/a	n/a	WOOD	5	6	[0, 0, 0]	n/a	FR1	1	R1201P
859.928	1.602	880996	WORD	n/a	wordpools/wordpool_EN.txt	SPARK	6	6	[0, 0, 0]	n/a	FR1	1	R1201P
861.53	0.95	882598	WORD_OFF	n/a	n/a	SPARK	6	6	[0, 0, 0]	n/a	FR1	1	R1201P
862.48	1.616	883548	WORD	n/a	wordpools/wordpool_EN.txt	SOAP	7	6	[0, 0, 0]	n/a	FR1	1	R1201P
864.096	0.833	885164	WORD_OFF	n/a	n/a	SOAP	7	6	[0, 0, 0]	n/a	FR1	1	R1201P
864.929	1.618	885997	WORD	n/a	wordpools/wordpool_EN.txt	COIN	8	6	[0, 0, 0]	n/a	FR1	1	R1201P
866.547	0.784	887614	WORD_OFF	n/a	n/a	COIN	8	6	[0, 0, 0]	n/a	FR1	1	R1201P
867.331	1.616	888398	WORD	n/a	wordpools/wordpool_EN.txt	HOSE	9	6	[0, 0, 0]	n/a	FR1	1	R1201P
868.947	0.933	890014	WORD_OFF	n/a	n/a	HOSE	9	6	[0, 0, 0]	n/a	FR1	1	R1201P
869.88	1.601	890947	WORD	n/a	wordpools/wordpool_EN.txt	CLOTH	10	6	[0, 0, 0]	n/a	FR1	1	R1201P
871.481	0.884	892548	WORD_OFF	n/a	n/a	CLOTH	10	6	[0, 0, 0]	n/a	FR1	1	R1201P
872.365	1.616	893432	WORD	n/a	wordpools/wordpool_EN.txt	SCHOOL	11	6	[0, 0, 0]	n/a	FR1	1	R1201P
873.981	0.934	895048	WORD_OFF	n/a	n/a	SCHOOL	11	6	[0, 0, 0]	n/a	FR1	1	R1201P
874.915	1.618	895982	WORD	n/a	wordpools/wordpool_EN.txt	TANK	12	6	[0, 0, 0]	n/a	FR1	1	R1201P
876.533	0.0	897600	WORD_OFF	n/a	n/a	TANK	12	6	[0, 0, 0]	n/a	FR1	1	R1201P
876.533	0.0	897600	DISTRACT_START	n/a	n/a	n/a	-999	6	[0, 0, 0]	n/a	FR1	1	R1201P
876.533	0.016	897600	START	n/a	n/a	n/a	-999	6	[-999, -999, -999]	n/a	FR1	1	R1201P
876.549	5.2	897616	PROB	5.2	n/a	n/a	-999	6	[1, 5, 3]	9	FR1	1	R1201P
881.749	3.835	902816	PROB	3.835	n/a	n/a	-999	6	[8, 8, 3]	19	FR1	1	R1201P
885.584	3.618	906651	PROB	3.618	n/a	n/a	-999	6	[7, 6, 7]	20	FR1	1	R1201P
889.202	2.283	910268	PROB	2.283	n/a	n/a	-999	6	[1, 6, 4]	11	FR1	1	R1201P
891.485	3.984	912551	PROB	3.984	n/a	n/a	-999	6	[5, 6, 3]	14	FR1	1	R1201P
895.469	4.545	916535	PROB	4.545	n/a	n/a	-999	6	[4, 2, 9]	17	FR1	1	R1201P
900.014	0.022	921080	STOP	n/a	n/a	n/a	-999	6	[-999, -999, -999]	n/a	FR1	1	R1201P
900.036	0.634	921102	DISTRACT_END	n/a	n/a	n/a	-999	6	[0, 0, 0]	n/a	FR1	1	R1201P
900.67	0.518	921736	RETRIEVAL_ORIENT	n/a	n/a	n/a	-999	6	[0, 0, 0]	n/a	FR1	1	R1201P
901.188	2.602	922254	REC_START	n/a	n/a	n/a	-999	6	[0, 0, 0]	n/a	FR1	1	R1201P
903.79	0.505	924856	REC_WORD	0.505	n/a	INK	2	6	[0, 0, 0]	n/a	FR1	1	R1201P
904.295	0.64	925361	REC_WORD	0.64	n/a	DIME	3	6	[0, 0, 0]	n/a	FR1	1	R1201P
904.935	0.759	926001	REC_WORD	0.759	n/a	FLAME	-999	6	[0, 0, 0]	n/a	FR1	1	R1201P
905.694	6.588	926759	REC_WORD	6.588	n/a	SPARK	6	6	[0, 0, 0]	n/a	FR1	1	R1201P
912.282	18.918	933347	REC_WORD	18.918	n/a	CLOTH	10	6	[0, 0, 0]	n/a	FR1	1	R1201P
931.2	5.91	952264	REC_END	n/a	n/a	n/a	-999	6	[0, 0, 0]	n/a	FR1	1	R1201P
937.11	0.5	958174	TRIAL	n/a	n/a	n/a	-999	7	[0, 0, 0]	n/a	FR1	1	R1201P
937.61	10.428	958674	COUNTDOWN_START	n/a	n/a	n/a	-999	7	[0, 0, 0]	n/a	FR1	1	R1201P
948.038	0.007	969101	COUNTDOWN_END	n/a	n/a	n/a	-999	7	[0, 0, 0]	n/a	FR1	1	R1201P
948.045	1.618	969108	ORIENT	n/a	n/a	n/a	-999	7	[0, 0, 0]	n/a	FR1	1	R1201P
949.663	1.967	970726	ORIENT_OFF	n/a	n/a	n/a	-999	7	[0, 0, 0]	n/a	FR1	1	R1201P
951.63	1.617	972693	WORD	n/a	wordpools/wordpool_EN.txt	SHARK	1	7	[0, 0, 0]	n/a	FR1	1	R1201P
953.247	0.9	974310	WORD_OFF	n/a	n/a	SHARK	1	7	[0, 0, 0]	n/a	FR1	1	R1201P
954.147	1.616	975210	WORD	n/a	wordpools/wordpool_EN.txt	MUD	2	7	[0, 0, 0]	n/a	FR1	1	R1201P
955.763	0.935	976826	WORD_OFF	n/a	n/a	MUD	2	7	[0, 0, 0]	n/a	FR1	1	R1201P
956.698	1.617	977761	WORD	n/a	wordpools/wordpool_EN.txt	SHIRT	3	7	[0, 0, 0]	n/a	FR1	1	R1201P
958.315	0.9	979378	WORD_OFF	n/a	n/a	SHIRT	3	7	[0, 0, 0]	n/a	FR1	1	R1201P
959.215	1.616	980278	WORD	n/a	wordpools/wordpool_EN.txt	SMILE	4	7	[0, 0, 0]	n/a	FR1	1	R1201P
960.831	1.0	981894	WORD_OFF	n/a	n/a	SMILE	4	7	[0, 0, 0]	n/a	FR1	1	R1201P
961.831	1.601	982894	WORD	n/a	wordpools/wordpool_EN.txt	PIT	5	7	[0, 0, 0]	n/a	FR1	1	R1201P
963.432	0.917	984495	WORD_OFF	n/a	n/a	PIT	5	7	[0, 0, 0]	n/a	FR1	1	R1201P
964.349	1.616	985411	WORD	n/a	wordpools/wordpool_EN.txt	MAT	6	7	[0, 0, 0]	n/a	FR1	1	R1201P
965.965	0.867	987027	WORD_OFF	n/a	n/a	MAT	6	7	[0, 0, 0]	n/a	FR1	1	R1201P
966.832	1.618	987894	WORD	n/a	wordpools/wordpool_EN.txt	FORK	7	7	[0, 0, 0]	n/a	FR1	1	R1201P
968.45	0.766	989512	WORD_OFF	n/a	n/a	FORK	7	7	[0, 0, 0]	n/a	FR1	1	R1201P
969.216	1.617	990278	WORD	n/a	wordpools/wordpool_EN.txt	GRAPE	8	7	[0, 0, 0]	n/a	FR1	1	R1201P
970.833	0.916	991895	WORD_OFF	n/a	n/a	GRAPE	8	7	[0, 0, 0]	n/a	FR1	1	R1201P
971.749	1.601	992811	WORD	n/a	wordpools/wordpool_EN.txt	CUP	9	7	[0, 0, 0]	n/a	FR1	1	R1201P
973.35	0.767	994412	WORD_OFF	n/a	n/a	CUP	9	7	[0, 0, 0]	n/a	FR1	1	R1201P
974.117	1.616	995179	WORD	n/a	wordpools/wordpool_EN.txt	EAR	10	7	[0, 0, 0]	n/a	FR1	1	R1201P
975.733	0.952	996795	WORD_OFF	n/a	n/a	EAR	10	7	[0, 0, 0]	n/a	FR1	1	R1201P
976.685	1.617	997747	WORD	n/a	wordpools/wordpool_EN.txt	CHIN	11	7	[0, 0, 0]	n/a	FR1	1	R1201P
978.302	0.85	999364	WORD_OFF	n/a	n/a	CHIN	11	7	[0, 0, 0]	n/a	FR1	1	R1201P
979.152	1.616	1000214	WORD	n/a	wordpools/wordpool_EN.txt	CAVE	12	7	[0, 0, 0]	n/a	FR1	1	R1201P
980.768	0.0	1001830	WORD_OFF	n/a	n/a	CAVE	12	7	[0, 0, 0]	n/a	FR1	1	R1201P
980.768	0.0	1001830	DISTRACT_START	n/a	n/a	n/a	-999	7	[0, 0, 0]	n/a	FR1	1	R1201P
980.768	0.016	1001830	START	n/a	n/a	n/a	-999	7	[-999, -999, -999]	n/a	FR1	1	R1201P
980.784	3.001	1001846	PROB	3.001	n/a	n/a	-999	7	[5, 1, 1]	7	FR1	1	R1201P
983.785	5.786	1004846	PROB	5.786	n/a	n/a	-999	7	[6, 8, 9]	23	FR1	1	R1201P
989.571	3.117	1010632	PROB	3.117	n/a	n/a	-999	7	[2, 9, 6]	17	FR1	1	R1201P
992.688	4.917	1013749	PROB	4.917	n/a	n/a	-999	7	[4, 2, 6]	12	FR1	1	R1201P
997.605	15.641	1018666	PROB	15.641	n/a	n/a	-999	7	[7, 9, 5]	21	FR1	1	R1201P
1013.246	0.012	1034306	STOP	n/a	n/a	n/a	-999	7	[-999, -999, -999]	n/a	FR1	1	R1201P
1013.258	0.516	1034318	DISTRACT_END	n/a	n/a	n/a	-999	7	[0, 0, 0]	n/a	FR1	1	R1201P
1013.774	0.518	1034834	RETRIEVAL_ORIENT	n/a	n/a	n/a	-999	7	[0, 0, 0]	n/a	FR1	1	R1201P
1014.292	1.411	1035352	REC_START	n/a	n/a	n/a	-999	7	[0, 0, 0]	n/a	FR1	1	R1201P
1015.703	3.366	1036763	REC_WORD	3.366	n/a	SHARK	1	7	[0, 0, 0]	n/a	FR1	1	R1201P
1019.069	0.759	1040129	REC_WORD	0.759	n/a	EAR	10	7	[0, 0, 0]	n/a	FR1	1	R1201P
1019.828	6.316	1040888	REC_WORD	6.316	n/a	CHIN	11	7	[0, 0, 0]	n/a	FR1	1	R1201P
1026.144	18.159	1047203	REC_WORD	18.159	n/a	SWIM	-999	7	[0, 0, 0]	n/a	FR1	1	R1201P
1044.303	5.012	1065361	REC_END	n/a	n/a	n/a	-999	7	[0, 0, 0]	n/a	FR1	1	R1201P
1049.315	0.5	1070373	TRIAL	n/a	n/a	n/a	-999	8	[0, 0, 0]	n/a	FR1	1	R1201P
1049.815	10.428	1070873	COUNTDOWN_START	n/a	n/a	n/a	-999	8	[0, 0, 0]	n/a	FR1	1	R1201P
1060.243	0.007	1081301	COUNTDOWN_END	n/a	n/a	n/a	-999	8	[0, 0, 0]	n/a	FR1	1	R1201P
1060.25	1.616	1081308	ORIENT	n/a	n/a	n/a	-999	8	[0, 0, 0]	n/a	FR1	1	R1201P
1061.866	2.017	1082923	ORIENT_OFF	n/a	n/a	n/a	-999	8	[0, 0, 0]	n/a	FR1	1	R1201P
1063.883	1.618	1084940	WORD	n/a	wordpools/wordpool_EN.txt	CLOCK	1	8	[0, 0, 0]	n/a	FR1	1	R1201P
1065.501	0.951	1086558	WORD_OFF	n/a	n/a	CLOCK	1	8	[0, 0, 0]	n/a	FR1	1	R1201P
1066.452	1.616	1087509	WORD	n/a	wordpools/wordpool_EN.txt	BOY	2	8	[0, 0, 0]	n/a	FR1	1	R1201P
1068.068	0.766	1089125	WORD_OFF	n/a	n/a	BOY	2	8	[0, 0, 0]	n/a	FR1	1	R1201P
1068.834	1.618	1089891	WORD	n/a	wordpools/wordpool_EN.txt	ROSE	3	8	[0, 0, 0]	n/a	FR1	1	R1201P
1070.452	0.951	1091509	WORD_OFF	n/a	n/a	ROSE	3	8	[0, 0, 0]	n/a	FR1	1	R1201P
1071.403	1.615	1092460	WORD	n/a	wordpools/wordpool_EN.txt	PIPE	4	8	[0, 0, 0]	n/a	FR1	1	R1201P
1073.018	1.001	1094075	WORD_OFF	n/a	n/a	PIPE	4	8	[0, 0, 0]	n/a	FR1	1	R1201P
1074.019	1.618	1095076	WORD	n/a	wordpools/wordpool_EN.txt	BATH	5	8	[0, 0, 0]	n/a	FR1	1	R1201P
1075.637	0.933	1096694	WORD_OFF	n/a	n/a	BATH	5	8	[0, 0, 0]	n/a	FR1	1	R1201P
1076.57	1.617	1097627	WORD	n/a	wordpools/wordpool_EN.txt	MULE	6	8	[0, 0, 0]	n/a	FR1	1	R1201P
1078.187	0.95	1099244	WORD_OFF	n/a	n/a	MULE	6	8	[0, 0, 0]	n/a	FR1	1	R1201P
1079.137	1.616	1100194	WORD	n/a	wordpools/wordpool_EN.txt	PEN	7	8	[0, 0, 0]	n/a	FR1	1	R1201P
1080.753	0.835	1101810	WORD_OFF	n/a	n/a	PEN	7	8	[0, 0, 0]	n/a	FR1	1	R1201P
1081.588	1.617	1102644	WORD	n/a	wordpools/wordpool_EN.txt	ROAD	8	8	[0, 0, 0]	n/a	FR1	1	R1201P
1083.205	0.865	1104261	WORD_OFF	n/a	n/a	ROAD	8	8	[0, 0, 0]	n/a	FR1	1	R1201P
1084.07	1.618	1105126	WORD	n/a	wordpools/wordpool_EN.txt	CAR	9	8	[0, 0, 0]	n/a	FR1	1	R1201P
1085.688	0.817	1106744	WORD_OFF	n/a	n/a	CAR	9	8	[0, 0, 0]	n/a	FR1	1	R1201P
1086.505	1.616	1107561	WORD	n/a	wordpools/wordpool_EN.txt	BEAK	10	8	[0, 0, 0]	n/a	FR1	1	R1201P
1088.121	0.934	1109177	WORD_OFF	n/a	n/a	BEAK	10	8	[0, 0, 0]	n/a	FR1	1	R1201P
1089.055	1.618	1110111	WORD	n/a	wordpools/wordpool_EN.txt	FOX	11	8	[0, 0, 0]	n/a	FR1	1	R1201P
1090.673	0.85	1111729	WORD_OFF	n/a	n/a	FOX	11	8	[0, 0, 0]	n/a	FR1	1	R1201P
1091.523	1.617	1112579	WORD	n/a	wordpools/wordpool_EN.txt	HOUSE	12	8	[0, 0, 0]	n/a	FR1	1	R1201P
1093.14	0.0	1114196	WORD_OFF	n/a	n/a	HOUSE	12	8	[0, 0, 0]	n/a	FR1	1	R1201P
1093.14	0.001	1114196	DISTRACT_START	n/a	n/a	n/a	-999	8	[0, 0, 0]	n/a	FR1	1	R1201P
1093.141	0.016	1114197	START	n/a	n/a	n/a	-999	8	[-999, -999, -999]	n/a	FR1	1	R1201P
1093.157	7.284	1114213	PROB	7.284	n/a	n/a	-999	8	[5, 9, 7]	21	FR1	1	R1201P
1100.441	3.017	1121497	PROB	3.017	n/a	n/a	-999	8	[2, 4, 4]	10	FR1	1	R1201P
1103.458	1.6	1124513	PROB	1.6	n/a	n/a	-999	8	[9, 1, 1]	11	FR1	1	R1201P
1105.058	2.668	1126113	PROB	2.668	n/a	n/a	-999	8	[2, 7, 1]	10	FR1	1	R1201P
1107.726	2.784	1128781	PROB	2.784	n/a	n/a	-999	8	[1, 5, 6]	12	FR1	1	R1201P
1110.51	3.464	1131565	PROB	3.464	n/a	n/a	-999	8	[9, 1, 7]	17	FR1	1	R1201P
1113.974	0.019	1135029	STOP	n/a	n/a	n/a	-999	8	[-999, -999, -999]	n/a	FR1	1	R1201P
1113.993	0.534	1135048	DISTRACT_END	n/a	n/a	n/a	-999	8	[0, 0, 0]	n/a	FR1	1	R1201P
1114.527	0.517	1135582	RETRIEVAL_ORIENT	n/a	n/a	n/a	-999	8	[0, 0, 0]	n/a	FR1	1	R1201P
1115.044	2.572	1136099	REC_START	n/a	n/a	n/a	-999	8	[0, 0, 0]	n/a	FR1	1	R1201P
1117.616	25.957	1138671	REC_WORD	25.957	n/a	BOY	2	8	[0, 0, 0]	n/a	FR1	1	R1201P
1143.573	1.483	1164626	REC_WORD	1.483	n/a	HOUSE	12	8	[0, 0, 0]	n/a	FR1	1	R1201P
1145.056	6.628	1166109	REC_END	n/a	n/a	n/a	-999	8	[0, 0, 0]	n/a	FR1	1	R1201P
1151.684	0.5	1172737	TRIAL	n/a	n/a	n/a	-999	9	[0, 0, 0]	n/a	FR1	1	R1201P
1152.184	10.428	1173237	COUNTDOWN_START	n/a	n/a	n/a	-999	9	[0, 0, 0]	n/a	FR1	1	R1201P
1162.612	0.008	1183664	COUNTDOWN_END	n/a	n/a	n/a	-999	9	[0, 0, 0]	n/a	FR1	1	R1201P
1162.62	1.617	1183672	ORIENT	n/a	n/a	n/a	-999	9	[0, 0, 0]	n/a	FR1	1	R1201P
1164.237	2.1	1185289	ORIENT_OFF	n/a	n/a	n/a	-999	9	[0, 0, 0]	n/a	FR1	1	R1201P
1166.337	1.616	1187389	WORD	n/a	wordpools/wordpool_EN.txt	ROPE	1	9	[0, 0, 0]	n/a	FR1	1	R1201P
1167.953	0.784	1189005	WORD_OFF	n/a	n/a	ROPE	1	9	[0, 0, 0]	n/a	FR1	1	R1201P
1168.737	1.617	1189789	WORD	n/a	wordpools/wordpool_EN.txt	SEA	2	9	[0, 0, 0]	n/a	FR1	1	R1201P
1170.354	0.784	1191406	WORD_OFF	n/a	n/a	SEA	2	9	[0, 0, 0]	n/a	FR1	1	R1201P
1171.138	1.616	1192190	WORD	n/a	wordpools/wordpool_EN.txt	SHELL	3	9	[0, 0, 0]	n/a	FR1	1	R1201P
1172.754	0.784	1193806	WORD_OFF	n/a	n/a	SHELL	3	9	[0, 0, 0]	n/a	FR1	1	R1201P
1173.538	1.617	1194590	WORD	n/a	wordpools/wordpool_EN.txt	BRICK	4	9	[0, 0, 0]	n/a	FR1	1	R1201P
1175.155	0.783	1196207	WORD_OFF	n/a	n/a	BRICK	4	9	[0, 0, 0]	n/a	FR1	1	R1201P
1175.938	1.601	1196990	WORD	n/a	wordpools/wordpool_EN.txt	SUN	5	9	[0, 0, 0]	n/a	FR1	1	R1201P
1177.539	0.784	1198591	WORD_OFF	n/a	n/a	SUN	5	9	[0, 0, 0]	n/a	FR1	1	R1201P
1178.323	1.616	1199375	WORD	n/a	wordpools/wordpool_EN.txt	STONE	6	9	[0, 0, 0]	n/a	FR1	1	R1201P
1179.939	0.767	1200990	WORD_OFF	n/a	n/a	STONE	6	9	[0, 0, 0]	n/a	FR1	1	R1201P
1180.706	1.617	1201757	WORD	n/a	wordpools/wordpool_EN.txt	SNAIL	7	9	[0, 0, 0]	n/a	FR1	1	R1201P
1182.323	0.817	1203374	WORD_OFF	n/a	n/a	SNAIL	7	9	[0, 0, 0]	n/a	FR1	1	R1201P
1183.14	1.616	1204191	WORD	n/a	wordpools/wordpool_EN.txt	BEACH	8	9	[0, 0, 0]	n/a	FR1	1	R1201P
1184.756	0.868	1205807	WORD_OFF	n/a	n/a	BEACH	8	9	[0, 0, 0]	n/a	FR1	1	R1201P
1185.624	1.617	1206675	WORD	n/a	wordpools/wordpool_EN.txt	APE	9	9	[0, 0, 0]	n/a	FR1	1	R1201P
1187.241	0.766	1208292	WORD_OFF	n/a	n/a	APE	9	9	[0, 0, 0]	n/a	FR1	1	R1201P
1188.007	1.618	1209058	WORD	n/a	wordpools/wordpool_EN.txt	BRIDGE	10	9	[0, 0, 0]	n/a	FR1	1	R1201P
1189.625	0.917	1210676	WORD_OFF	n/a	n/a	BRIDGE	10	9	[0, 0, 0]	n/a	FR1	1	R1201P
1190.542	1.617	1211593	WORD	n/a	wordpools/wordpool_EN.txt	ROCK	11	9	[0, 0, 0]	n/a	FR1	1	R1201P
1192.159	0.849	1213210	WORD_OFF	n/a	n/a	ROCK	11	9	[0, 0, 0]	n/a	FR1	1	R1201P
1193.008	1.618	1214059	WORD	n/a	wordpools/wordpool_EN.txt	SHIELD	12	9	[0, 0, 0]	n/a	FR1	1	R1201P
1194.626	0.0	1215677	WORD_OFF	n/a	n/a	SHIELD	12	9	[0, 0, 0]	n/a	FR1	1	R1201P
1194.626	0.0	1215677	DISTRACT_START	n/a	n/a	n/a	-999	9	[0, 0, 0]	n/a	FR1	1	R1201P
1194.626	0.016	1215677	START	n/a	n/a	n/a	-999	9	[-999, -999, -999]	n/a	FR1	1	R1201P
1194.642	4.167	1215693	PROB	4.167	n/a	n/a	-999	9	[1, 2, 5]	8	FR1	1	R1201P
1198.809	5.134	1219859	PROB	5.134	n/a	n/a	-999	9	[2, 9, 4]	15	FR1	1	R1201P
1203.943	3.752	1224993	PROB	3.752	n/a	n/a	-999	9	[6, 9, 5]	20	FR1	1	R1201P
1207.695	2.75	1228745	PROB	2.75	n/a	n/a	-999	9	[9, 3, 2]	14	FR1	1	R1201P
1210.445	3.517	1231495	PROB	3.517	n/a	n/a	-999	9	[9, 2, 7]	18	FR1	1	R1201P
1213.962	3.749	1235012	PROB	3.749	n/a	n/a	-999	9	[6, 7, 8]	21	FR1	1	R1201P
1217.711	0.019	1238761	STOP	n/a	n/a	n/a	-999	9	[-999, -999, -999]	n/a	FR1	1	R1201P
1217.73	0.617	1238780	DISTRACT_END	n/a	n/a	n/a	-999	9	[0, 0, 0]	n/a	FR1	1	R1201P
1218.347	0.516	1239396	RETRIEVAL_ORIENT	n/a	n/a	n/a	-999	9	[0, 0, 0]	n/a	FR1	1	R1201P
1218.863	1.726	1239912	REC_START	n/a	n/a	n/a	-999	9	[0, 0, 0]	n/a	FR1	1	R1201P
1220.589	0.461	1241638	REC_WORD	0.461	n/a	SEA	2	9	[0, 0, 0]	n/a	FR1	1	R1201P
1221.05	1.68	1242099	REC_WORD	1.68	n/a	SHELL	3	9	[0, 0, 0]	n/a	FR1	1	R1201P
1222.73	5.933	1243779	REC_WORD	5.933	n/a	SNAIL	7	9	[0, 0, 0]	n/a	FR1	1	R1201P
1228.663	2.83	1249712	REC_WORD	2.83	n/a	ROPE	1	9	[0, 0, 0]	n/a	FR1	1	R1201P
1231.493	2.218	1252542	REC_WORD	2.218	n/a	BRIDGE	10	9	[0, 0, 0]	n/a	FR1	1	R1201P
1233.711	15.163	1254760	REC_WORD	15.163	n/a	ROCK	11	9	[0, 0, 0]	n/a	FR1	1	R1201P
1248.874	5.945	1269922	REC_END	n/a	n/a	n/a	-999	9	[0, 0, 0]	n/a	FR1	1	R1201P
1254.819	0.5	1275867	TRIAL	n/a	n/a	n/a	-999	10	[0, 0, 0]	n/a	FR1	1	R1201P
1255.319	10.428	1276367	COUNTDOWN_START	n/a	n/a	n/a	-999	10	[0, 0, 0]	n/a	FR1	1	R1201P
1265.747	0.008	1286794	COUNTDOWN_END	n/a	n/a	n/a	-999	10	[0, 0, 0]	n/a	FR1	1	R1201P
1265.755	1.618	1286802	ORIENT	n/a	n/a	n/a	-999	10	[0, 0, 0]	n/a	FR1	1	R1201P
1267.373	2.083	1288420	ORIENT_OFF	n/a	n/a	n/a	-999	10	[0, 0, 0]	n/a	FR1	1	R1201P
1269.456	1.616	1290503	WORD	n/a	wordpools/wordpool_EN.txt	SLIME	1	10	[0, 0, 0]	n/a	FR1	1	R1201P
1271.072	0.967	1292119	WORD_OFF	n/a	n/a	SLIME	1	10	[0, 0, 0]	n/a	FR1	1	R1201P
1272.039	1.618	1293086	WORD	n/a	wordpools/wordpool_EN.txt	GUARD	2	10	[0, 0, 0]	n/a	FR1	1	R1201P
1273.657	0.867	1294704	WORD_OFF	n/a	n/a	GUARD	2	10	[0, 0, 0]	n/a	FR1	1	R1201P
1274.524	1.617	1295571	WORD	n/a	wordpools/wordpool_EN.txt	LEG	3	10	[0, 0, 0]	n/a	FR1	1	R1201P
1276.141	0.899	1297188	WORD_OFF	n/a	n/a	LEG	3	10	[0, 0, 0]	n/a	FR1	1	R1201P
1277.04	1.618	1298086	WORD	n/a	wordpools/wordpool_EN.txt	WORM	4	10	[0, 0, 0]	n/a	FR1	1	R1201P
1278.658	1.0	1299704	WORD_OFF	n/a	n/a	WORM	4	10	[0, 0, 0]	n/a	FR1	1	R1201P
1279.658	1.617	1300704	WORD	n/a	wordpools/wordpool_EN.txt	GLOVE	5	10	[0, 0, 0]	n/a	FR1	1	R1201P
1281.275	0.967	1302321	WORD_OFF	n/a	n/a	GLOVE	5	10	[0, 0, 0]	n/a	FR1	1	R1201P
1282.242	1.616	1303288	WORD	n/a	wordpools/wordpool_EN.txt	DITCH	6	10	[0, 0, 0]	n/a	FR1	1	R1201P
1283.858	0.801	1304904	WORD_OFF	n/a	n/a	DITCH	6	10	[0, 0, 0]	n/a	FR1	1	R1201P
1284.659	1.617	1305705	WORD	n/a	wordpools/wordpool_EN.txt	TOOL	7	10	[0, 0, 0]	n/a	FR1	1	R1201P
1286.276	0.95	1307322	WORD_OFF	n/a	n/a	TOOL	7	10	[0, 0, 0]	n/a	FR1	1	R1201P
1287.226	1.616	1308272	WORD	n/a	wordpools/wordpool_EN.txt	THREAD	8	10	[0, 0, 0]	n/a	FR1	1	R1201P
1288.842	0.868	1309888	WORD_OFF	n/a	n/a	THREAD	8	10	[0, 0, 0]	n/a	FR1	1	R1201P
1289.71	1.617	1310756	WORD	n/a	wordpools/wordpool_EN.txt	BAT	9	10	[0, 0, 0]	n/a	FR1	1	R1201P
1291.327	0.9	1312373	WORD_OFF	n/a	n/a	BAT	9	10	[0, 0, 0]	n/a	FR1	1	R1201P
1292.227	1.616	1313273	WORD	n/a	wordpools/wordpool_EN.txt	BRUSH	10	10	[0, 0, 0]	n/a	FR1	1	R1201P
1293.843	1.0	1314889	WORD_OFF	n/a	n/a	BRUSH	10	10	[0, 0, 0]	n/a	FR1	1	R1201P
1294.843	1.602	1315889	WORD	n/a	wordpools/wordpool_EN.txt	CLIFF	11	10	[0, 0, 0]	n/a	FR1	1	R1201P
1296.445	0.933	1317491	WORD_OFF	n/a	n/a	CLIFF	11	10	[0, 0, 0]	n/a	FR1	1	R1201P
1297.378	1.616	1318423	WORD	n/a	wordpools/wordpool_EN.txt	STRING	12	10	[0, 0, 0]	n/a	FR1	1	R1201P
1298.994	0.0	1320039	WORD_OFF	n/a	n/a	STRING	12	10	[0, 0, 0]	n/a	FR1	1	R1201P
1298.994	0.001	1320039	DISTRACT_START	n/a	n/a	n/a	-999	10	[0, 0, 0]	n/a	FR1	1	R1201P
1298.995	0.016	1320040	START	n/a	n/a	n/a	-999	10	[-999, -999, -999]	n/a	FR1	1	R1201P
1299.011	5.302	1320056	PROB	5.302	n/a	n/a	-999	10	[7, 7, 4]	18	FR1	1	R1201P
1304.313	3.151	1325358	PROB	3.151	n/a	n/a	-999	10	[7, 5, 6]	18	FR1	1	R1201P
1307.464	3.7	1328509	PROB	3.7	n/a	n/a	-999	10	[5, 5, 4]	14	FR1	1	R1201P
1311.164	2.883	1332209	PROB	2.883	n/a	n/a	-999	10	[7, 2, 2]	11	FR1	1	R1201P
1314.047	1.717	1335092	PROB	1.717	n/a	n/a	-999	10	[4, 6, 1]	11	FR1	1	R1201P
1315.764	3.387	1336809	PROB	3.387	n/a	n/a	-999	10	[9, 2, 2]	13	FR1	1	R1201P
1319.151	0.015	1340195	STOP	n/a	n/a	n/a	-999	10	[-999, -999, -999]	n/a	FR1	1	R1201P
1319.166	0.666	1340210	DISTRACT_END	n/a	n/a	n/a	-999	10	[0, 0, 0]	n/a	FR1	1	R1201P
1319.832	0.524	1340876	RETRIEVAL_ORIENT	n/a	n/a	n/a	-999	10	[0, 0, 0]	n/a	FR1	1	R1201P
1320.356	1.004	1341400	REC_START	n/a	n/a	n/a	-999	10	[0, 0, 0]	n/a	FR1	1	R1201P
1321.36	1.339	1342404	REC_WORD	1.339	n/a	SLIME	1	10	[0, 0, 0]	n/a	FR1	1	R1201P
1322.699	17.754	1343743	REC_WORD	17.754	n/a	WORM	4	10	[0, 0, 0]	n/a	FR1	1	R1201P
1340.453	8.018	1361496	REC_WORD	8.018	n/a	BAT	9	10	[0, 0, 0]	n/a	FR1	1	R1201P
1348.471	1.89	1369514	REC_WORD	1.89	n/a	BRUSH	10	10	[0, 0, 0]	n/a	FR1	1	R1201P
1350.361	7.444	1371404	REC_END	n/a	n/a	n/a	-999	10	[0, 0, 0]	n/a	FR1	1	R1201P
1357.805	0.5	1378847	TRIAL	n/a	n/a	n/a	-999	11	[0, 0, 0]	n/a	FR1	1	R1201P
1358.305	10.428	1379347	COUNTDOWN_START	n/a	n/a	n/a	-999	11	[0, 0, 0]	n/a	FR1	1	R1201P
1368.733	0.008	1389775	COUNTDOWN_END	n/a	n/a	n/a	-999	11	[0, 0, 0]	n/a	FR1	1	R1201P
1368.741	1.601	1389783	ORIENT	n/a	n/a	n/a	-999	11	[0, 0, 0]	n/a	FR1	1	R1201P
1370.342	1.95	1391384	ORIENT_OFF	n/a	n/a	n/a	-999	11	[0, 0, 0]	n/a	FR1	1	R1201P
1372.292	1.616	1393334	WORD	n/a	wordpools/wordpool_EN.txt	SPOON	1	11	[0, 0, 0]	n/a	FR1	1	R1201P
1373.908	0.785	1394950	WORD_OFF	n/a	n/a	SPOON	1	11	[0, 0, 0]	n/a	FR1	1	R1201P
1374.693	1.617	1395735	WORD	n/a	wordpools/wordpool_EN.txt	BEE	2	11	[0, 0, 0]	n/a	FR1	1	R1201P
1376.31	0.95	1397351	WORD_OFF	n/a	n/a	BEE	2	11	[0, 0, 0]	n/a	FR1	1	R1201P
1377.26	1.616	1398301	WORD	n/a	wordpools/wordpool_EN.txt	GLASS	3	11	[0, 0, 0]	n/a	FR1	1	R1201P
1378.876	0.801	1399917	WORD_OFF	n/a	n/a	GLASS	3	11	[0, 0, 0]	n/a	FR1	1	R1201P
1379.677	1.617	1400718	WORD	n/a	wordpools/wordpool_EN.txt	STOVE	4	11	[0, 0, 0]	n/a	FR1	1	R1201P
1381.294	0.884	1402335	WORD_OFF	n/a	n/a	STOVE	4	11	[0, 0, 0]	n/a	FR1	1	R1201P
1382.178	1.616	1403219	WORD	n/a	wordpools/wordpool_EN.txt	POND	5	11	[0, 0, 0]	n/a	FR1	1	R1201P
1383.794	0.901	1404835	WORD_OFF	n/a	n/a	POND	5	11	[0, 0, 0]	n/a	FR1	1	R1201P
1384.695	1.617	1405736	WORD	n/a	wordpools/wordpool_EN.txt	JAR	6	11	[0, 0, 0]	n/a	FR1	1	R1201P
1386.312	0.917	1407353	WORD_OFF	n/a	n/a	JAR	6	11	[0, 0, 0]	n/a	FR1	1	R1201P
1387.229	1.616	1408270	WORD	n/a	wordpools/wordpool_EN.txt	CHALK	7	11	[0, 0, 0]	n/a	FR1	1	R1201P
1388.845	0.784	1409886	WORD_OFF	n/a	n/a	CHALK	7	11	[0, 0, 0]	n/a	FR1	1	R1201P
1389.629	1.617	1410670	WORD	n/a	wordpools/wordpool_EN.txt	CAKE	8	11	[0, 0, 0]	n/a	FR1	1	R1201P
1391.246	0.766	1412287	WORD_OFF	n/a	n/a	CAKE	8	11	[0, 0, 0]	n/a	FR1	1	R1201P
1392.012	1.618	1413053	WORD	n/a	wordpools/wordpool_EN.txt	ARK	9	11	[0, 0, 0]	n/a	FR1	1	R1201P
1393.63	0.85	1414671	WORD_OFF	n/a	n/a	ARK	9	11	[0, 0, 0]	n/a	FR1	1	R1201P
1394.48	1.616	1415520	WORD	n/a	wordpools/wordpool_EN.txt	FLAME	10	11	[0, 0, 0]	n/a	FR1	1	R1201P
1396.096	0.917	1417136	WORD_OFF	n/a	n/a	FLAME	10	11	[0, 0, 0]	n/a	FR1	1	R1201P
1397.013	1.618	1418053	WORD	n/a	wordpools/wordpool_EN.txt	SHRIMP	11	11	[0, 0, 0]	n/a	FR1	1	R1201P
1398.631	0.967	1419671	WORD_OFF	n/a	n/a	SHRIMP	11	11	[0, 0, 0]	n/a	FR1	1	R1201P
1399.598	1.616	1420638	WORD	n/a	wordpools/wordpool_EN.txt	FOAM	12	11	[0, 0, 0]	n/a	FR1	1	R1201P
1401.214	0.0	1422254	WORD_OFF	n/a	n/a	FOAM	12	11	[0, 0, 0]	n/a	FR1	1	R1201P
1401.214	0.001	1422254	DISTRACT_START	n/a	n/a	n/a	-999	11	[0, 0, 0]	n/a	FR1	1	R1201P
1401.215	0.016	1422255	START	n/a	n/a	n/a	-999	11	[-999, -999, -999]	n/a	FR1	1	R1201P
1401.231	9.618	1422271	PROB	9.618	n/a	n/a	-999	11	[8, 7, 5]	20	FR1	1	R1201P
1410.849	2.95	1431889	PROB	2.95	n/a	n/a	-999	11	[3, 8, 6]	17	FR1	1	R1201P
1413.799	4.284	1434839	PROB	4.284	n/a	n/a	-999	11	[3, 9, 4]	16	FR1	1	R1201P
1418.083	2.252	1439122	PROB	2.252	n/a	n/a	-999	11	[5, 4, 1]	10	FR1	1	R1201P
1420.335	2.438	1441374	PROB	2.438	n/a	n/a	-999	11	[1, 4, 7]	12	FR1	1	R1201P
1422.773	0.011	1443812	STOP	n/a	n/a	n/a	-999	11	[-999, -999, -999]	n/a	FR1	1	R1201P
1422.784	0.568	1443823	DISTRACT_END	n/a	n/a	n/a	-999	11	[0, 0, 0]	n/a	FR1	1	R1201P
1423.352	0.517	1444391	RETRIEVAL_ORIENT	n/a	n/a	n/a	-999	11	[0, 0, 0]	n/a	FR1	1	R1201P
1423.869	1.047	1444908	REC_START	n/a	n/a	n/a	-999	11	[0, 0, 0]	n/a	FR1	1	R1201P
1424.916	2.485	1445955	REC_WORD	2.485	n/a	GLASS	3	11	[0, 0, 0]	n/a	FR1	1	R1201P
1427.401	0.717	1448440	REC_WORD	0.717	n/a	JAR	6	11	[0, 0, 0]	n/a	FR1	1	R1201P
1428.118	25.762	1449157	REC_WORD	25.762	n/a	BEE	2	11	[0, 0, 0]	n/a	FR1	1	R1201P
1453.88	5.512	1474917	REC_END	n/a	n/a	n/a	-999	11	[0, 0, 0]	n/a	FR1	1	R1201P
1459.392	0.5	1480429	TRIAL	n/a	n/a	n/a	-999	12	[0, 0, 0]	n/a	FR1	1	R1201P
1459.892	10.428	1480929	COUNTDOWN_START	n/a	n/a	n/a	-999	12	[0, 0, 0]	n/a	FR1	1	R1201P
1470.32	0.008	1491357	COUNTDOWN_END	n/a	n/a	n/a	-999	12	[0, 0, 0]	n/a	FR1	1	R1201P
1470.328	1.616	1491365	ORIENT	n/a	n/a	n/a	-999	12	[0, 0, 0]	n/a	FR1	1	R1201P
1471.944	1.833	1492981	ORIENT_OFF	n/a	n/a	n/a	-999	12	[0, 0, 0]	n/a	FR1	1	R1201P
1473.777	1.618	1494813	WORD	n/a	wordpools/wordpool_EN.txt	FROG	1	12	[0, 0, 0]	n/a	FR1	1	R1201P
1475.395	0.784	1496431	WORD_OFF	n/a	n/a	FROG	1	12	[0, 0, 0]	n/a	FR1	1	R1201P
1476.179	1.616	1497215	WORD	n/a	wordpools/wordpool_EN.txt	TEA	2	12	[0, 0, 0]	n/a	FR1	1	R1201P
1477.795	0.884	1498831	WORD_OFF	n/a	n/a	TEA	2	12	[0, 0, 0]	n/a	FR1	1	R1201P
1478.679	1.617	1499715	WORD	n/a	wordpools/wordpool_EN.txt	FOOD	3	12	[0, 0, 0]	n/a	FR1	1	R1201P
1480.296	0.816	1501332	WORD_OFF	n/a	n/a	FOOD	3	12	[0, 0, 0]	n/a	FR1	1	R1201P
1481.112	1.618	1502148	WORD	n/a	wordpools/wordpool_EN.txt	PEARL	4	12	[0, 0, 0]	n/a	FR1	1	R1201P
1482.73	0.917	1503766	WORD_OFF	n/a	n/a	PEARL	4	12	[0, 0, 0]	n/a	FR1	1	R1201P
1483.647	1.617	1504683	WORD	n/a	wordpools/wordpool_EN.txt	LAMB	5	12	[0, 0, 0]	n/a	FR1	1	R1201P
1485.264	0.782	1506300	WORD_OFF	n/a	n/a	LAMB	5	12	[0, 0, 0]	n/a	FR1	1	R1201P
1486.046	1.618	1507082	WORD	n/a	wordpools/wordpool_EN.txt	CROW	6	12	[0, 0, 0]	n/a	FR1	1	R1201P
1487.664	0.784	1508700	WORD_OFF	n/a	n/a	CROW	6	12	[0, 0, 0]	n/a	FR1	1	R1201P
1488.448	1.616	1509484	WORD	n/a	wordpools/wordpool_EN.txt	LAMP	7	12	[0, 0, 0]	n/a	FR1	1	R1201P
1490.064	0.916	1511100	WORD_OFF	n/a	n/a	LAMP	7	12	[0, 0, 0]	n/a	FR1	1	R1201P
1490.98	1.618	1512016	WORD	n/a	wordpools/wordpool_EN.txt	SWORD	8	12	[0, 0, 0]	n/a	FR1	1	R1201P
1492.598	0.801	1513633	WORD_OFF	n/a	n/a	SWORD	8	12	[0, 0, 0]	n/a	FR1	1	R1201P
1493.399	1.615	1514434	WORD	n/a	wordpools/wordpool_EN.txt	DRESS	9	12	[0, 0, 0]	n/a	FR1	1	R1201P
1495.014	0.817	1516049	WORD_OFF	n/a	n/a	DRESS	9	12	[0, 0, 0]	n/a	FR1	1	R1201P
1495.831	1.601	1516866	WORD	n/a	wordpools/wordpool_EN.txt	LAND	10	12	[0, 0, 0]	n/a	FR1	1	R1201P
1497.432	0.867	1518467	WORD_OFF	n/a	n/a	LAND	10	12	[0, 0, 0]	n/a	FR1	1	R1201P
1498.299	1.616	1519334	WORD	n/a	wordpools/wordpool_EN.txt	CHIEF	11	12	[0, 0, 0]	n/a	FR1	1	R1201P
1499.915	0.884	1520950	WORD_OFF	n/a	n/a	CHIEF	11	12	[0, 0, 0]	n/a	FR1	1	R1201P
1500.799	1.618	1521834	WORD	n/a	wordpools/wordpool_EN.txt	RICE	12	12	[0, 0, 0]	n/a	FR1	1	R1201P
1502.417	0.0	1523452	WORD_OFF	n/a	n/a	RICE	12	12	[0, 0, 0]	n/a	FR1	1	R1201P
1502.417	0.001	1523452	DISTRACT_START	n/a	n/a	n/a	-999	12	[0, 0, 0]	n/a	FR1	1	R1201P
1502.418	0.016	1523453	START	n/a	n/a	n/a	-999	12	[-999, -999, -999]	n/a	FR1	1	R1201P
1502.434	5.701	1523469	PROB	5.701	n/a	n/a	-999	12	[3, 4, 2]	9	FR1	1	R1201P
1508.135	3.649	1529170	PROB	3.649	n/a	n/a	-999	12	[4, 7, 5]	16	FR1	1	R1201P
1511.784	2.267	1532818	PROB	2.267	n/a	n/a	-999	12	[2, 5, 7]	14	FR1	1	R1201P
1514.051	4.768	1535085	PROB	4.768	n/a	n/a	-999	12	[2, 3, 3]	8	FR1	1	R1201P
1518.819	7.764	1539853	PROB	7.764	n/a	n/a	-999	12	[7, 5, 6]	18	FR1	1	R1201P
1526.583	0.022	1547617	STOP	n/a	n/a	n/a	-999	12	[-999, -999, -999]	n/a	FR1	1	R1201P
1526.605	0.567	1547639	DISTRACT_END	n/a	n/a	n/a	-999	12	[0, 0, 0]	n/a	FR1	1	R1201P
1527.172	0.517	1548206	RETRIEVAL_ORIENT	n/a	n/a	n/a	-999	12	[0, 0, 0]	n/a	FR1	1	R1201P
1527.689	0.805	1548723	REC_START	n/a	n/a	n/a	-999	12	[0, 0, 0]	n/a	FR1	1	R1201P
1528.494	5.618	1549528	REC_WORD	5.618	n/a	SWORD	8	12	[0, 0, 0]	n/a	FR1	1	R1201P
1534.112	23.586	1555145	REC_WORD	23.586	n/a	FROG	1	12	[0, 0, 0]	n/a	FR1	1	R1201P
1557.698	6.046	1578730	REC_END	n/a	n/a	n/a	-999	12	[0, 0, 0]	n/a	FR1	1	R1201P
1563.744	0.5	1584776	TRIAL	n/a	n/a	n/a	-999	13	[0, 0, 0]	n/a	FR1	1	R1201P
1564.244	10.428	1585276	COUNTDOWN_START	n/a	n/a	n/a	-999	13	[0, 0, 0]	n/a	FR1	1	R1201P
1574.672	0.009	1595703	COUNTDOWN_END	n/a	n/a	n/a	-999	13	[0, 0, 0]	n/a	FR1	1	R1201P
1574.681	1.617	1595712	ORIENT	n/a	n/a	n/a	-999	13	[0, 0, 0]	n/a	FR1	1	R1201P
1576.298	1.916	1597329	ORIENT_OFF	n/a	n/a	n/a	-999	13	[0, 0, 0]	n/a	FR1	1	R1201P
1578.214	1.616	1599245	WORD	n/a	wordpools/wordpool_EN.txt	BOOK	1	13	[0, 0, 0]	n/a	FR1	1	R1201P
1579.83	0.885	1600861	WORD_OFF	n/a	n/a	BOOK	1	13	[0, 0, 0]	n/a	FR1	1	R1201P
1580.715	1.617	1601746	WORD	n/a	wordpools/wordpool_EN.txt	PHONE	2	13	[0, 0, 0]	n/a	FR1	1	R1201P
1582.332	0.833	1603363	WORD_OFF	n/a	n/a	PHONE	2	13	[0, 0, 0]	n/a	FR1	1	R1201P
1583.165	1.616	1604196	WORD	n/a	wordpools/wordpool_EN.txt	WHEEL	3	13	[0, 0, 0]	n/a	FR1	1	R1201P
1584.781	0.802	1605812	WORD_OFF	n/a	n/a	WHEEL	3	13	[0, 0, 0]	n/a	FR1	1	R1201P
1585.583	1.617	1606614	WORD	n/a	wordpools/wordpool_EN.txt	SHEET	4	13	[0, 0, 0]	n/a	FR1	1	R1201P
1587.2	0.865	1608231	WORD_OFF	n/a	n/a	SHEET	4	13	[0, 0, 0]	n/a	FR1	1	R1201P
1588.065	1.618	1609096	WORD	n/a	wordpools/wordpool_EN.txt	WING	5	13	[0, 0, 0]	n/a	FR1	1	R1201P
1589.683	0.784	1610714	WORD_OFF	n/a	n/a	WING	5	13	[0, 0, 0]	n/a	FR1	1	R1201P
1590.467	1.616	1611497	WORD	n/a	wordpools/wordpool_EN.txt	HEART	6	13	[0, 0, 0]	n/a	FR1	1	R1201P
1592.083	0.867	1613113	WORD_OFF	n/a	n/a	HEART	6	13	[0, 0, 0]	n/a	FR1	1	R1201P
1592.95	1.618	1613980	WORD	n/a	wordpools/wordpool_EN.txt	KEY	7	13	[0, 0, 0]	n/a	FR1	1	R1201P
1594.568	0.933	1615598	WORD_OFF	n/a	n/a	KEY	7	13	[0, 0, 0]	n/a	FR1	1	R1201P
1595.501	1.616	1616531	WORD	n/a	wordpools/wordpool_EN.txt	WAVE	8	13	[0, 0, 0]	n/a	FR1	1	R1201P
1597.117	0.85	1618147	WORD_OFF	n/a	n/a	WAVE	8	13	[0, 0, 0]	n/a	FR1	1	R1201P
1597.967	1.618	1618997	WORD	n/a	wordpools/wordpool_EN.txt	PEA	9	13	[0, 0, 0]	n/a	FR1	1	R1201P
1599.585	0.834	1620615	WORD_OFF	n/a	n/a	PEA	9	13	[0, 0, 0]	n/a	FR1	1	R1201P
1600.419	1.616	1621449	WORD	n/a	wordpools/wordpool_EN.txt	STEAM	10	13	[0, 0, 0]	n/a	FR1	1	R1201P
1602.035	0.9	1623065	WORD_OFF	n/a	n/a	STEAM	10	13	[0, 0, 0]	n/a	FR1	1	R1201P
1602.935	1.618	1623965	WORD	n/a	wordpools/wordpool_EN.txt	BOMB	11	13	[0, 0, 0]	n/a	FR1	1	R1201P
1604.553	0.767	1625583	WORD_OFF	n/a	n/a	BOMB	11	13	[0, 0, 0]	n/a	FR1	1	R1201P
1605.32	1.616	1626350	WORD	n/a	wordpools/wordpool_EN.txt	DRUM	12	13	[0, 0, 0]	n/a	FR1	1	R1201P
1606.936	0.0	1627966	WORD_OFF	n/a	n/a	DRUM	12	13	[0, 0, 0]	n/a	FR1	1	R1201P
1606.936	0.0	1627966	DISTRACT_START	n/a	n/a	n/a	-999	13	[0, 0, 0]	n/a	FR1	1	R1201P
1606.936	0.016	1627966	START	n/a	n/a	n/a	-999	13	[-999, -999, -999]	n/a	FR1	1	R1201P
1606.952	7.885	1627982	PROB	7.885	n/a	n/a	-999	13	[2, 2, 6]	10	FR1	1	R1201P
1614.837	5.819	1635866	PROB	5.819	n/a	n/a	-999	13	[5, 9, 8]	22	FR1	1	R1201P
1620.656	3.249	1641685	PROB	3.249	n/a	n/a	-999	13	[3, 9, 3]	15	FR1	1	R1201P
1623.905	5.335	1644934	PROB	5.335	n/a	n/a	-999	13	[3, 7, 8]	18	FR1	1	R1201P
1629.24	0.017	1650268	STOP	n/a	n/a	n/a	-999	13	[-999, -999, -999]	n/a	FR1	1	R1201P
1629.257	0.533	1650285	DISTRACT_END	n/a	n/a	n/a	-999	13	[0, 0, 0]	n/a	FR1	1	R1201P
1629.79	0.519	1650818	RETRIEVAL_ORIENT	n/a	n/a	n/a	-999	13	[0, 0, 0]	n/a	FR1	1	R1201P
1630.309	1.28	1651337	REC_START	n/a	n/a	n/a	-999	13	[0, 0, 0]	n/a	FR1	1	R1201P
1631.589	0.945	1652617	REC_WORD	0.945	n/a	PHONE	2	13	[0, 0, 0]	n/a	FR1	1	R1201P
1632.534	0.961	1653562	REC_WORD	0.961	n/a	BOOK	1	13	[0, 0, 0]	n/a	FR1	1	R1201P
1633.495	8.098	1654523	REC_WORD	8.098	n/a	WHEEL	3	13	[0, 0, 0]	n/a	FR1	1	R1201P
1641.593	2.72	1662621	REC_WORD	2.72	n/a	WING	5	13	[0, 0, 0]	n/a	FR1	1	R1201P
1644.313	16.006	1665341	REC_WORD	16.006	n/a	BOMB	11	13	[0, 0, 0]	n/a	FR1	1	R1201P
1660.319	4.378	1681346	REC_END	n/a	n/a	n/a	-999	13	[0, 0, 0]	n/a	FR1	1	R1201P
1664.697	0.5	1685724	TRIAL	n/a	n/a	n/a	-999	14	[0, 0, 0]	n/a	FR1	1	R1201P
1665.197	10.428	1686224	COUNTDOWN_START	n/a	n/a	n/a	-999	14	[0, 0, 0]	n/a	FR1	1	R1201P
1675.625	0.008	1696651	COUNTDOWN_END	n/a	n/a	n/a	-999	14	[0, 0, 0]	n/a	FR1	1	R1201P
1675.633	1.617	1696659	ORIENT	n/a	n/a	n/a	-999	14	[0, 0, 0]	n/a	FR1	1	R1201P
1677.25	2.083	1698276	ORIENT_OFF	n/a	n/a	n/a	-999	14	[0, 0, 0]	n/a	FR1	1	R1201P
1679.333	1.616	1700359	WORD	n/a	wordpools/wordpool_EN.txt	RAKE	1	14	[0, 0, 0]	n/a	FR1	1	R1201P
1680.949	0.851	1701975	WORD_OFF	n/a	n/a	RAKE	1	14	[0, 0, 0]	n/a	FR1	1	R1201P
1681.8	1.618	1702826	WORD	n/a	wordpools/wordpool_EN.txt	WEB	2	14	[0, 0, 0]	n/a	FR1	1	R1201P
1683.418	0.883	1704444	WORD_OFF	n/a	n/a	WEB	2	14	[0, 0, 0]	n/a	FR1	1	R1201P
1684.301	1.616	1705327	WORD	n/a	wordpools/wordpool_EN.txt	BEAN	3	14	[0, 0, 0]	n/a	FR1	1	R1201P
1685.917	0.967	1706943	WORD_OFF	n/a	n/a	BEAN	3	14	[0, 0, 0]	n/a	FR1	1	R1201P
1686.884	1.601	1707910	WORD	n/a	wordpools/wordpool_EN.txt	SINK	4	14	[0, 0, 0]	n/a	FR1	1	R1201P
1688.485	0.95	1709510	WORD_OFF	n/a	n/a	SINK	4	14	[0, 0, 0]	n/a	FR1	1	R1201P
1689.435	1.616	1710460	WORD	n/a	wordpools/wordpool_EN.txt	TOAD	5	14	[0, 0, 0]	n/a	FR1	1	R1201P
1691.051	0.884	1712076	WORD_OFF	n/a	n/a	TOAD	5	14	[0, 0, 0]	n/a	FR1	1	R1201P
1691.935	1.618	1712960	WORD	n/a	wordpools/wordpool_EN.txt	CLAY	6	14	[0, 0, 0]	n/a	FR1	1	R1201P
1693.553	0.85	1714578	WORD_OFF	n/a	n/a	CLAY	6	14	[0, 0, 0]	n/a	FR1	1	R1201P
1694.403	1.616	1715428	WORD	n/a	wordpools/wordpool_EN.txt	JUICE	7	14	[0, 0, 0]	n/a	FR1	1	R1201P
1696.019	0.817	1717044	WORD_OFF	n/a	n/a	JUICE	7	14	[0, 0, 0]	n/a	FR1	1	R1201P
1696.836	1.618	1717861	WORD	n/a	wordpools/wordpool_EN.txt	TAIL	8	14	[0, 0, 0]	n/a	FR1	1	R1201P
1698.454	0.867	1719479	WORD_OFF	n/a	n/a	TAIL	8	14	[0, 0, 0]	n/a	FR1	1	R1201P
1699.321	1.616	1720346	WORD	n/a	wordpools/wordpool_EN.txt	DUCK	9	14	[0, 0, 0]	n/a	FR1	1	R1201P
1700.937	1.0	1721962	WORD_OFF	n/a	n/a	DUCK	9	14	[0, 0, 0]	n/a	FR1	1	R1201P
1701.937	1.601	1722962	WORD	n/a	wordpools/wordpool_EN.txt	RAT	10	14	[0, 0, 0]	n/a	FR1	1	R1201P
1703.538	0.95	1724563	WORD_OFF	n/a	n/a	RAT	10	14	[0, 0, 0]	n/a	FR1	1	R1201P
1704.488	1.616	1725513	WORD	n/a	wordpools/wordpool_EN.txt	CUBE	11	14	[0, 0, 0]	n/a	FR1	1	R1201P
1706.104	0.834	1727129	WORD_OFF	n/a	n/a	CUBE	11	14	[0, 0, 0]	n/a	FR1	1	R1201P
1706.938	1.618	1727963	WORD	n/a	wordpools/wordpool_EN.txt	SOUP	12	14	[0, 0, 0]	n/a	FR1	1	R1201P
1708.556	0.0	1729580	WORD_OFF	n/a	n/a	SOUP	12	14	[0, 0, 0]	n/a	FR1	1	R1201P
1708.556	0.0	1729580	DISTRACT_START	n/a	n/a	n/a	-999	14	[0, 0, 0]	n/a	FR1	1	R1201P
1708.556	0.016	1729580	START	n/a	n/a	n/a	-999	14	[-999, -999, -999]	n/a	FR1	1	R1201P
1708.572	5.4	1729596	PROB	5.4	n/a	n/a	-999	14	[9, 3, 9]	21	FR1	1	R1201P
1713.972	5.885	1734996	PROB	5.885	n/a	n/a	-999	14	[2, 5, 6]	13	FR1	1	R1201P
1719.857	7.018	1740881	PROB	7.018	n/a	n/a	-999	14	[1, 3, 2]	6	FR1	1	R1201P
1726.875	3.987	1747899	PROB	3.987	n/a	n/a	-999	14	[3, 6, 3]	12	FR1	1	R1201P
1730.862	0.014	1751885	STOP	n/a	n/a	n/a	-999	14	[-999, -999, -999]	n/a	FR1	1	R1201P
1730.876	0.701	1751899	DISTRACT_END	n/a	n/a	n/a	-999	14	[0, 0, 0]	n/a	FR1	1	R1201P
1731.577	0.516	1752600	RETRIEVAL_ORIENT	n/a	n/a	n/a	-999	14	[0, 0, 0]	n/a	FR1	1	R1201P
1732.093	1.83	1753116	REC_START	n/a	n/a	n/a	-999	14	[0, 0, 0]	n/a	FR1	1	R1201P
1733.923	4.584	1754946	REC_WORD	4.584	n/a	DUCK	9	14	[0, 0, 0]	n/a	FR1	1	R1201P
1738.507	13.553	1759530	REC_WORD	13.553	n/a	CLAY	6	14	[0, 0, 0]	n/a	FR1	1	R1201P
1752.06	10.043	1773082	REC_WORD	10.043	n/a	PHONE	-999	14	[0, 0, 0]	n/a	FR1	1	R1201P
1762.103	5.214	1783125	REC_END	n/a	n/a	n/a	-999	14	[0, 0, 0]	n/a	FR1	1	R1201P
1767.317	0.5	1788338	TRIAL	n/a	n/a	n/a	-999	15	[0, 0, 0]	n/a	FR1	1	R1201P
1767.817	10.428	1788838	COUNTDOWN_START	n/a	n/a	n/a	-999	15	[0, 0, 0]	n/a	FR1	1	R1201P
1778.245	0.007	1799266	COUNTDOWN_END	n/a	n/a	n/a	-999	15	[0, 0, 0]	n/a	FR1	1	R1201P
1778.252	1.616	1799273	ORIENT	n/a	n/a	n/a	-999	15	[0, 0, 0]	n/a	FR1	1	R1201P
1779.868	1.984	1800889	ORIENT_OFF	n/a	n/a	n/a	-999	15	[0, 0, 0]	n/a	FR1	1	R1201P
1781.852	1.601	1802873	WORD	n/a	wordpools/wordpool_EN.txt	FENCE	1	15	[0, 0, 0]	n/a	FR1	1	R1201P
1783.453	0.984	1804474	WORD_OFF	n/a	n/a	FENCE	1	15	[0, 0, 0]	n/a	FR1	1	R1201P
1784.437	1.616	1805458	WORD	n/a	wordpools/wordpool_EN.txt	LAWN	2	15	[0, 0, 0]	n/a	FR1	1	R1201P
1786.053	0.85	1807073	WORD_OFF	n/a	n/a	LAWN	2	15	[0, 0, 0]	n/a	FR1	1	R1201P
1786.903	1.618	1807923	WORD	n/a	wordpools/wordpool_EN.txt	PARK	3	15	[0, 0, 0]	n/a	FR1	1	R1201P
1788.521	0.95	1809541	WORD_OFF	n/a	n/a	PARK	3	15	[0, 0, 0]	n/a	FR1	1	R1201P
1789.471	1.616	1810491	WORD	n/a	wordpools/wordpool_EN.txt	DEER	4	15	[0, 0, 0]	n/a	FR1	1	R1201P
1791.087	0.817	1812107	WORD_OFF	n/a	n/a	DEER	4	15	[0, 0, 0]	n/a	FR1	1	R1201P
1791.904	1.618	1812924	WORD	n/a	wordpools/wordpool_EN.txt	OAK	5	15	[0, 0, 0]	n/a	FR1	1	R1201P
1793.522	0.917	1814542	WORD_OFF	n/a	n/a	OAK	5	15	[0, 0, 0]	n/a	FR1	1	R1201P
1794.439	1.615	1815459	WORD	n/a	wordpools/wordpool_EN.txt	OWL	6	15	[0, 0, 0]	n/a	FR1	1	R1201P
1796.054	0.951	1817074	WORD_OFF	n/a	n/a	OWL	6	15	[0, 0, 0]	n/a	FR1	1	R1201P
1797.005	1.618	1818025	WORD	n/a	wordpools/wordpool_EN.txt	OAR	7	15	[0, 0, 0]	n/a	FR1	1	R1201P
1798.623	0.9	1819643	WORD_OFF	n/a	n/a	OAR	7	15	[0, 0, 0]	n/a	FR1	1	R1201P
1799.523	1.617	1820543	WORD	n/a	wordpools/wordpool_EN.txt	STORM	8	15	[0, 0, 0]	n/a	FR1	1	R1201P
1801.14	0.932	1822160	WORD_OFF	n/a	n/a	STORM	8	15	[0, 0, 0]	n/a	FR1	1	R1201P
1802.072	1.618	1823092	WORD	n/a	wordpools/wordpool_EN.txt	SKY	9	15	[0, 0, 0]	n/a	FR1	1	R1201P
1803.69	0.984	1824710	WORD_OFF	n/a	n/a	SKY	9	15	[0, 0, 0]	n/a	FR1	1	R1201P
1804.674	1.617	1825694	WORD	n/a	wordpools/wordpool_EN.txt	FLEA	10	15	[0, 0, 0]	n/a	FR1	1	R1201P
1806.291	0.867	1827310	WORD_OFF	n/a	n/a	FLEA	10	15	[0, 0, 0]	n/a	FR1	1	R1201P
1807.158	1.616	1828177	WORD	n/a	wordpools/wordpool_EN.txt	PET	11	15	[0, 0, 0]	n/a	FR1	1	R1201P
1808.774	1.016	1829793	WORD_OFF	n/a	n/a	PET	11	15	[0, 0, 0]	n/a	FR1	1	R1201P
1809.79	1.618	1830809	WORD	n/a	wordpools/wordpool_EN.txt	PIG	12	15	[0, 0, 0]	n/a	FR1	1	R1201P
1811.408	0.0	1832427	WORD_OFF	n/a	n/a	PIG	12	15	[0, 0, 0]	n/a	FR1	1	R1201P
1811.408	0.001	1832427	DISTRACT_START	n/a	n/a	n/a	-999	15	[0, 0, 0]	n/a	FR1	1	R1201P
1811.409	0.016	1832428	START	n/a	n/a	n/a	-999	15	[-999, -999, -999]	n/a	FR1	1	R1201P
1811.425	5.4	1832444	PROB	5.4	n/a	n/a	-999	15	[6, 4, 5]	15	FR1	1	R1201P
1816.825	2.602	1837844	PROB	2.602	n/a	n/a	-999	15	[5, 1, 6]	12	FR1	1	R1201P
1819.427	3.067	1840446	PROB	3.067	n/a	n/a	-999	15	[7, 4, 5]	16	FR1	1	R1201P
1822.494	8.267	1843513	PROB	8.267	n/a	n/a	-999	15	[7, 5, 8]	20	FR1	1	R1201P
1830.761	2.108	1851779	PROB	2.108	n/a	n/a	-999	15	[7, 6, 4]	17	FR1	1	R1201P
1832.869	0.009	1853887	STOP	n/a	n/a	n/a	-999	15	[-999, -999, -999]	n/a	FR1	1	R1201P
1832.878	0.534	1853896	DISTRACT_END	n/a	n/a	n/a	-999	15	[0, 0, 0]	n/a	FR1	1	R1201P
1833.412	0.517	1854430	RETRIEVAL_ORIENT	n/a	n/a	n/a	-999	15	[0, 0, 0]	n/a	FR1	1	R1201P
1833.929	1.11	1854947	REC_START	n/a	n/a	n/a	-999	15	[0, 0, 0]	n/a	FR1	1	R1201P
1835.039	0.675	1856057	REC_WORD	0.675	n/a	PARK	3	15	[0, 0, 0]	n/a	FR1	1	R1201P
1835.714	19.858	1856732	REC_WORD	19.858	n/a	FENCE	1	15	[0, 0, 0]	n/a	FR1	1	R1201P
1855.572	8.367	1876589	REC_WORD	8.367	n/a	DEER	4	15	[0, 0, 0]	n/a	FR1	1	R1201P
1863.939	4.197	1884955	REC_END	n/a	n/a	n/a	-999	15	[0, 0, 0]	n/a	FR1	1	R1201P
1868.136	0.5	1889152	TRIAL	n/a	n/a	n/a	-999	16	[0, 0, 0]	n/a	FR1	1	R1201P
1868.636	10.428	1889652	COUNTDOWN_START	n/a	n/a	n/a	-999	16	[0, 0, 0]	n/a	FR1	1	R1201P
1879.064	0.006	1900080	COUNTDOWN_END	n/a	n/a	n/a	-999	16	[0, 0, 0]	n/a	FR1	1	R1201P
1879.07	1.618	1900086	ORIENT	n/a	n/a	n/a	-999	16	[0, 0, 0]	n/a	FR1	1	R1201P
1880.688	2.266	1901704	ORIENT_OFF	n/a	n/a	n/a	-999	16	[0, 0, 0]	n/a	FR1	1	R1201P
1882.954	1.618	1903970	WORD	n/a	wordpools/wordpool_EN.txt	STEM	1	16	[0, 0, 0]	n/a	FR1	1	R1201P
1884.572	0.917	1905587	WORD_OFF	n/a	n/a	STEM	1	16	[0, 0, 0]	n/a	FR1	1	R1201P
1885.489	1.616	1906504	WORD	n/a	wordpools/wordpool_EN.txt	LEAF	2	16	[0, 0, 0]	n/a	FR1	1	R1201P
1887.105	0.9	1908120	WORD_OFF	n/a	n/a	LEAF	2	16	[0, 0, 0]	n/a	FR1	1	R1201P
1888.005	1.618	1909020	WORD	n/a	wordpools/wordpool_EN.txt	ARM	3	16	[0, 0, 0]	n/a	FR1	1	R1201P
1889.623	0.917	1910638	WORD_OFF	n/a	n/a	ARM	3	16	[0, 0, 0]	n/a	FR1	1	R1201P
1890.54	1.617	1911555	WORD	n/a	wordpools/wordpool_EN.txt	FRUIT	4	16	[0, 0, 0]	n/a	FR1	1	R1201P
1892.157	0.899	1913172	WORD_OFF	n/a	n/a	FRUIT	4	16	[0, 0, 0]	n/a	FR1	1	R1201P
1893.056	1.618	1914071	WORD	n/a	wordpools/wordpool_EN.txt	TOE	5	16	[0, 0, 0]	n/a	FR1	1	R1201P
1894.674	1.0	1915689	WORD_OFF	n/a	n/a	TOE	5	16	[0, 0, 0]	n/a	FR1	1	R1201P
1895.674	1.617	1916689	WORD	n/a	wordpools/wordpool_EN.txt	THUMB	6	16	[0, 0, 0]	n/a	FR1	1	R1201P
1897.291	0.95	1918306	WORD_OFF	n/a	n/a	THUMB	6	16	[0, 0, 0]	n/a	FR1	1	R1201P
1898.241	1.616	1919256	WORD	n/a	wordpools/wordpool_EN.txt	MOTH	7	16	[0, 0, 0]	n/a	FR1	1	R1201P
1899.857	0.802	1920872	WORD_OFF	n/a	n/a	MOTH	7	16	[0, 0, 0]	n/a	FR1	1	R1201P
1900.659	1.616	1921674	WORD	n/a	wordpools/wordpool_EN.txt	PASTE	8	16	[0, 0, 0]	n/a	FR1	1	R1201P
1902.275	0.766	1923290	WORD_OFF	n/a	n/a	PASTE	8	16	[0, 0, 0]	n/a	FR1	1	R1201P
1903.041	1.618	1924056	WORD	n/a	wordpools/wordpool_EN.txt	TOAST	9	16	[0, 0, 0]	n/a	FR1	1	R1201P
1904.659	0.967	1925673	WORD_OFF	n/a	n/a	TOAST	9	16	[0, 0, 0]	n/a	FR1	1	R1201P
1905.626	1.617	1926640	WORD	n/a	wordpools/wordpool_EN.txt	BLOOM	10	16	[0, 0, 0]	n/a	FR1	1	R1201P
1907.243	0.816	1928257	WORD_OFF	n/a	n/a	BLOOM	10	16	[0, 0, 0]	n/a	FR1	1	R1201P
1908.059	1.618	1929073	WORD	n/a	wordpools/wordpool_EN.txt	CONE	11	16	[0, 0, 0]	n/a	FR1	1	R1201P
1909.677	0.883	1930691	WORD_OFF	n/a	n/a	CONE	11	16	[0, 0, 0]	n/a	FR1	1	R1201P
1910.56	1.617	1931574	WORD	n/a	wordpools/wordpool_EN.txt	WEED	12	16	[0, 0, 0]	n/a	FR1	1	R1201P
1912.177	0.0	1933191	WORD_OFF	n/a	n/a	WEED	12	16	[0, 0, 0]	n/a	FR1	1	R1201P
1912.177	0.001	1933191	DISTRACT_START	n/a	n/a	n/a	-999	16	[0, 0, 0]	n/a	FR1	1	R1201P
1912.178	0.016	1933192	START	n/a	n/a	n/a	-999	16	[-999, -999, -999]	n/a	FR1	1	R1201P
1912.194	6.567	1933208	PROB	6.567	n/a	n/a	-999	16	[1, 9, 3]	13	FR1	1	R1201P
1918.761	2.885	1939775	PROB	2.885	n/a	n/a	-999	16	[9, 5, 4]	18	FR1	1	R1201P
1921.646	2.55	1942660	PROB	2.55	n/a	n/a	-999	16	[5, 4, 1]	10	FR1	1	R1201P
1924.196	4.018	1945209	PROB	4.018	n/a	n/a	-999	16	[9, 8, 4]	21	FR1	1	R1201P
1928.214	4.033	1949227	PROB	4.033	n/a	n/a	-999	16	[3, 6, 8]	17	FR1	1	R1201P
1932.247	0.017	1953260	STOP	n/a	n/a	n/a	-999	16	[-999, -999, -999]	n/a	FR1	1	R1201P
1932.264	0.566	1953277	DISTRACT_END	n/a	n/a	n/a	-999	16	[0, 0, 0]	n/a	FR1	1	R1201P
1932.83	0.519	1953843	RETRIEVAL_ORIENT	n/a	n/a	n/a	-999	16	[0, 0, 0]	n/a	FR1	1	R1201P
1933.349	10.133	1954362	REC_START	n/a	n/a	n/a	-999	16	[0, 0, 0]	n/a	FR1	1	R1201P
1943.482	19.876	1964494	REC_WORD	19.876	n/a	CONE	11	16	[0, 0, 0]	n/a	FR1	1	R1201P
1963.358	5.379	1984369	REC_END	n/a	n/a	n/a	-999	16	[0, 0, 0]	n/a	FR1	1	R1201P
1968.737	0.5	1989748	TRIAL	n/a	n/a	n/a	-999	17	[0, 0, 0]	n/a	FR1	1	R1201P
1969.237	10.428	1990248	COUNTDOWN_START	n/a	n/a	n/a	-999	17	[0, 0, 0]	n/a	FR1	1	R1201P
1979.665	0.008	2000676	COUNTDOWN_END	n/a	n/a	n/a	-999	17	[0, 0, 0]	n/a	FR1	1	R1201P
1979.673	1.617	2000684	ORIENT	n/a	n/a	n/a	-999	17	[0, 0, 0]	n/a	FR1	1	R1201P
1981.29	2.334	2002301	ORIENT_OFF	n/a	n/a	n/a	-999	17	[0, 0, 0]	n/a	FR1	1	R1201P
1983.624	1.617	2004634	WORD	n/a	wordpools/wordpool_EN.txt	GOLD	1	17	[0, 0, 0]	n/a	FR1	1	R1201P
1985.241	0.9	2006251	WORD_OFF	n/a	n/a	GOLD	1	17	[0, 0, 0]	n/a	FR1	1	R1201P
1986.141	1.616	2007151	WORD	n/a	wordpools/wordpool_EN.txt	SHIP	2	17	[0, 0, 0]	n/a	FR1	1	R1201P
1987.757	0.851	2008767	WORD_OFF	n/a	n/a	SHIP	2	17	[0, 0, 0]	n/a	FR1	1	R1201P
1988.608	1.617	2009618	WORD	n/a	wordpools/wordpool_EN.txt	COW	3	17	[0, 0, 0]	n/a	FR1	1	R1201P
1990.225	0.85	2011235	WORD_OFF	n/a	n/a	COW	3	17	[0, 0, 0]	n/a	FR1	1	R1201P
1991.075	1.617	2012085	WORD	n/a	wordpools/wordpool_EN.txt	NAIL	4	17	[0, 0, 0]	n/a	FR1	1	R1201P
1992.692	0.951	2013702	WORD_OFF	n/a	n/a	NAIL	4	17	[0, 0, 0]	n/a	FR1	1	R1201P
1993.643	1.617	2014653	WORD	n/a	wordpools/wordpool_EN.txt	TOOTH	5	17	[0, 0, 0]	n/a	FR1	1	R1201P
1995.26	0.95	2016270	WORD_OFF	n/a	n/a	TOOTH	5	17	[0, 0, 0]	n/a	FR1	1	R1201P
1996.21	1.616	2017220	WORD	n/a	wordpools/wordpool_EN.txt	CROWN	6	17	[0, 0, 0]	n/a	FR1	1	R1201P
1997.826	0.933	2018836	WORD_OFF	n/a	n/a	CROWN	6	17	[0, 0, 0]	n/a	FR1	1	R1201P
1998.759	1.618	2019769	WORD	n/a	wordpools/wordpool_EN.txt	WALL	7	17	[0, 0, 0]	n/a	FR1	1	R1201P
2000.377	0.85	2021387	WORD_OFF	n/a	n/a	WALL	7	17	[0, 0, 0]	n/a	FR1	1	R1201P
2001.227	1.616	2022236	WORD	n/a	wordpools/wordpool_EN.txt	TRASH	8	17	[0, 0, 0]	n/a	FR1	1	R1201P
2002.843	0.835	2023852	WORD_OFF	n/a	n/a	TRASH	8	17	[0, 0, 0]	n/a	FR1	1	R1201P
2003.678	1.617	2024687	WORD	n/a	wordpools/wordpool_EN.txt	FORT	9	17	[0, 0, 0]	n/a	FR1	1	R1201P
2005.295	0.832	2026304	WORD_OFF	n/a	n/a	FORT	9	17	[0, 0, 0]	n/a	FR1	1	R1201P
2006.127	1.601	2027136	WORD	n/a	wordpools/wordpool_EN.txt	SHEEP	10	17	[0, 0, 0]	n/a	FR1	1	R1201P
2007.728	0.984	2028737	WORD_OFF	n/a	n/a	SHEEP	10	17	[0, 0, 0]	n/a	FR1	1	R1201P
2008.712	1.617	2029721	WORD	n/a	wordpools/wordpool_EN.txt	WORLD	11	17	[0, 0, 0]	n/a	FR1	1	R1201P
2010.329	0.9	2031338	WORD_OFF	n/a	n/a	WORLD	11	17	[0, 0, 0]	n/a	FR1	1	R1201P
2011.229	1.616	2032238	WORD	n/a	wordpools/wordpool_EN.txt	PRINCE	12	17	[0, 0, 0]	n/a	FR1	1	R1201P
2012.845	0.0	2033854	WORD_OFF	n/a	n/a	PRINCE	12	17	[0, 0, 0]	n/a	FR1	1	R1201P
2012.845	0.001	2033854	DISTRACT_START	n/a	n/a	n/a	-999	17	[0, 0, 0]	n/a	FR1	1	R1201P
2012.846	0.016	2033855	START	n/a	n/a	n/a	-999	17	[-999, -999, -999]	n/a	FR1	1	R1201P
2012.862	6.218	2033871	PROB	6.218	n/a	n/a	-999	17	[3, 2, 9]	14	FR1	1	R1201P
2019.08	4.701	2040089	PROB	4.701	n/a	n/a	-999	17	[9, 8, 7]	24	FR1	1	R1201P
2023.781	3.618	2044789	PROB	3.618	n/a	n/a	-999	17	[2, 6, 4]	12	FR1	1	R1201P
2027.399	12.313	2048407	PROB	12.313	n/a	n/a	-999	17	[6, 8, 5]	17	FR1	1	R1201P
2039.712	0.006	2060720	STOP	n/a	n/a	n/a	-999	17	[-999, -999, -999]	n/a	FR1	1	R1201P
2039.718	0.533	2060726	DISTRACT_END	n/a	n/a	n/a	-999	17	[0, 0, 0]	n/a	FR1	1	R1201P
2040.251	0.517	2061258	RETRIEVAL_ORIENT	n/a	n/a	n/a	-999	17	[0, 0, 0]	n/a	FR1	1	R1201P
2040.768	1.126	2061775	REC_START	n/a	n/a	n/a	-999	17	[0, 0, 0]	n/a	FR1	1	R1201P
2041.894	28.886	2062901	REC_WORD	28.886	n/a	SHIP	2	17	[0, 0, 0]	n/a	FR1	1	R1201P
2070.78	4.395	2091786	REC_END	n/a	n/a	n/a	-999	17	[0, 0, 0]	n/a	FR1	1	R1201P
2075.175	0.5	2096181	TRIAL	n/a	n/a	n/a	-999	18	[0, 0, 0]	n/a	FR1	1	R1201P
2075.675	10.428	2096681	COUNTDOWN_START	n/a	n/a	n/a	-999	18	[0, 0, 0]	n/a	FR1	1	R1201P
2086.103	0.006	2107108	COUNTDOWN_END	n/a	n/a	n/a	-999	18	[0, 0, 0]	n/a	FR1	1	R1201P
2086.109	1.618	2107114	ORIENT	n/a	n/a	n/a	-999	18	[0, 0, 0]	n/a	FR1	1	R1201P
2087.727	2.132	2108732	ORIENT_OFF	n/a	n/a	n/a	-999	18	[0, 0, 0]	n/a	FR1	1	R1201P
2089.859	1.619	2110864	WORD	n/a	wordpools/wordpool_EN.txt	JAIL	1	18	[0, 0, 0]	n/a	FR1	1	R1201P
2091.478	0.9	2112483	WORD_OFF	n/a	n/a	JAIL	1	18	[0, 0, 0]	n/a	FR1	1	R1201P
2092.378	1.616	2113383	WORD	n/a	wordpools/wordpool_EN.txt	BAND	2	18	[0, 0, 0]	n/a	FR1	1	R1201P
2093.994	0.817	2114999	WORD_OFF	n/a	n/a	BAND	2	18	[0, 0, 0]	n/a	FR1	1	R1201P
2094.811	1.601	2115816	WORD	n/a	wordpools/wordpool_EN.txt	SIGN	3	18	[0, 0, 0]	n/a	FR1	1	R1201P
2096.412	1.017	2117417	WORD_OFF	n/a	n/a	SIGN	3	18	[0, 0, 0]	n/a	FR1	1	R1201P
2097.429	1.616	2118434	WORD	n/a	wordpools/wordpool_EN.txt	SLUSH	4	18	[0, 0, 0]	n/a	FR1	1	R1201P
2099.045	0.833	2120049	WORD_OFF	n/a	n/a	SLUSH	4	18	[0, 0, 0]	n/a	FR1	1	R1201P
2099.878	1.601	2120882	WORD	n/a	wordpools/wordpool_EN.txt	STREET	5	18	[0, 0, 0]	n/a	FR1	1	R1201P
2101.479	0.934	2122483	WORD_OFF	n/a	n/a	STREET	5	18	[0, 0, 0]	n/a	FR1	1	R1201P
2102.413	1.616	2123417	WORD	n/a	wordpools/wordpool_EN.txt	FACE	6	18	[0, 0, 0]	n/a	FR1	1	R1201P
2104.029	0.8	2125033	WORD_OFF	n/a	n/a	FACE	6	18	[0, 0, 0]	n/a	FR1	1	R1201P
2104.829	1.618	2125833	WORD	n/a	wordpools/wordpool_EN.txt	JUDGE	7	18	[0, 0, 0]	n/a	FR1	1	R1201P
2106.447	0.967	2127451	WORD_OFF	n/a	n/a	JUDGE	7	18	[0, 0, 0]	n/a	FR1	1	R1201P
2107.414	1.616	2128418	WORD	n/a	wordpools/wordpool_EN.txt	FLAG	8	18	[0, 0, 0]	n/a	FR1	1	R1201P
2109.03	1.0	2130034	WORD_OFF	n/a	n/a	FLAG	8	18	[0, 0, 0]	n/a	FR1	1	R1201P
2110.03	1.618	2131034	WORD	n/a	wordpools/wordpool_EN.txt	CRANE	9	18	[0, 0, 0]	n/a	FR1	1	R1201P
2111.648	0.934	2132652	WORD_OFF	n/a	n/a	CRANE	9	18	[0, 0, 0]	n/a	FR1	1	R1201P
2112.582	1.617	2133586	WORD	n/a	wordpools/wordpool_EN.txt	BADGE	10	18	[0, 0, 0]	n/a	FR1	1	R1201P
2114.199	0.95	2135203	WORD_OFF	n/a	n/a	BADGE	10	18	[0, 0, 0]	n/a	FR1	1	R1201P
2115.149	1.616	2136153	WORD	n/a	wordpools/wordpool_EN.txt	HAT	11	18	[0, 0, 0]	n/a	FR1	1	R1201P
2116.765	0.967	2137769	WORD_OFF	n/a	n/a	HAT	11	18	[0, 0, 0]	n/a	FR1	1	R1201P
2117.732	1.618	2138736	WORD	n/a	wordpools/wordpool_EN.txt	POOL	12	18	[0, 0, 0]	n/a	FR1	1	R1201P
2119.35	0.0	2140353	WORD_OFF	n/a	n/a	POOL	12	18	[0, 0, 0]	n/a	FR1	1	R1201P
2119.35	0.0	2140353	DISTRACT_START	n/a	n/a	n/a	-999	18	[0, 0, 0]	n/a	FR1	1	R1201P
2119.35	0.016	2140353	START	n/a	n/a	n/a	-999	18	[-999, -999, -999]	n/a	FR1	1	R1201P
2119.366	4.951	2140369	PROB	4.951	n/a	n/a	-999	18	[4, 5, 9]	18	FR1	1	R1201P
2124.317	4.334	2145320	PROB	4.334	n/a	n/a	-999	18	[4, 6, 9]	19	FR1	1	R1201P
2128.651	3.3	2149654	PROB	3.3	n/a	n/a	-999	18	[7, 6, 7]	20	FR1	1	R1201P
2131.951	5.269	2152954	PROB	5.269	n/a	n/a	-999	18	[8, 9, 8]	24	FR1	1	R1201P
2137.22	3.338	2158223	PROB	3.338	n/a	n/a	-999	18	[6, 5, 9]	20	FR1	1	R1201P
2140.558	0.012	2161560	STOP	n/a	n/a	n/a	-999	18	[-999, -999, -999]	n/a	FR1	1	R1201P
2140.57	0.617	2161572	DISTRACT_END	n/a	n/a	n/a	-999	18	[0, 0, 0]	n/a	FR1	1	R1201P
2141.187	0.518	2162189	RETRIEVAL_ORIENT	n/a	n/a	n/a	-999	18	[0, 0, 0]	n/a	FR1	1	R1201P
2141.705	1.721	2162707	REC_START	n/a	n/a	n/a	-999	18	[0, 0, 0]	n/a	FR1	1	R1201P
2143.426	0.735	2164428	REC_WORD	0.735	n/a	JAIL	1	18	[0, 0, 0]	n/a	FR1	1	R1201P
2144.161	0.77	2165163	REC_WORD	0.77	n/a	JUDGE	7	18	[0, 0, 0]	n/a	FR1	1	R1201P
2144.931	0.94	2165933	REC_WORD	0.94	n/a	STREET	5	18	[0, 0, 0]	n/a	FR1	1	R1201P
2145.871	22.96	2166873	REC_WORD	22.96	n/a	SIGN	3	18	[0, 0, 0]	n/a	FR1	1	R1201P
2168.831	2.884	2189832	REC_WORD	2.884	n/a	POOL	12	18	[0, 0, 0]	n/a	FR1	1	R1201P
2171.715	5.562	2192716	REC_END	n/a	n/a	n/a	-999	18	[0, 0, 0]	n/a	FR1	1	R1201P
2177.277	0.5	2198277	TRIAL	n/a	n/a	n/a	-999	19	[0, 0, 0]	n/a	FR1	1	R1201P
2177.777	10.428	2198777	COUNTDOWN_START	n/a	n/a	n/a	-999	19	[0, 0, 0]	n/a	FR1	1	R1201P
2188.205	0.008	2209205	COUNTDOWN_END	n/a	n/a	n/a	-999	19	[0, 0, 0]	n/a	FR1	1	R1201P
2188.213	1.616	2209213	ORIENT	n/a	n/a	n/a	-999	19	[0, 0, 0]	n/a	FR1	1	R1201P
2189.829	2.183	2210829	ORIENT_OFF	n/a	n/a	n/a	-999	19	[0, 0, 0]	n/a	FR1	1	R1201P
2192.012	1.618	2213012	WORD	n/a	wordpools/wordpool_EN.txt	VASE	1	19	[0, 0, 0]	n/a	FR1	1	R1201P
2193.63	1.001	2214630	WORD_OFF	n/a	n/a	VASE	1	19	[0, 0, 0]	n/a	FR1	1	R1201P
2194.631	1.617	2215631	WORD	n/a	wordpools/wordpool_EN.txt	PALM	2	19	[0, 0, 0]	n/a	FR1	1	R1201P
2196.248	0.799	2217248	WORD_OFF	n/a	n/a	PALM	2	19	[0, 0, 0]	n/a	FR1	1	R1201P
2197.047	1.618	2218046	WORD	n/a	wordpools/wordpool_EN.txt	CAPE	3	19	[0, 0, 0]	n/a	FR1	1	R1201P
2198.665	0.8	2219664	WORD_OFF	n/a	n/a	CAPE	3	19	[0, 0, 0]	n/a	FR1	1	R1201P
2199.465	1.616	2220464	WORD	n/a	wordpools/wordpool_EN.txt	SQUARE	4	19	[0, 0, 0]	n/a	FR1	1	R1201P
2201.081	0.883	2222080	WORD_OFF	n/a	n/a	SQUARE	4	19	[0, 0, 0]	n/a	FR1	1	R1201P
2201.964	1.618	2222963	WORD	n/a	wordpools/wordpool_EN.txt	VAN	5	19	[0, 0, 0]	n/a	FR1	1	R1201P
2203.582	0.917	2224581	WORD_OFF	n/a	n/a	VAN	5	19	[0, 0, 0]	n/a	FR1	1	R1201P
2204.499	1.616	2225498	WORD	n/a	wordpools/wordpool_EN.txt	NOSE	6	19	[0, 0, 0]	n/a	FR1	1	R1201P
2206.115	0.783	2227114	WORD_OFF	n/a	n/a	NOSE	6	19	[0, 0, 0]	n/a	FR1	1	R1201P
2206.898	1.618	2227897	WORD	n/a	wordpools/wordpool_EN.txt	WAND	7	19	[0, 0, 0]	n/a	FR1	1	R1201P
2208.516	0.901	2229515	WORD_OFF	n/a	n/a	WAND	7	19	[0, 0, 0]	n/a	FR1	1	R1201P
2209.417	1.616	2230416	WORD	n/a	wordpools/wordpool_EN.txt	CAGE	8	19	[0, 0, 0]	n/a	FR1	1	R1201P
2211.033	0.983	2232032	WORD_OFF	n/a	n/a	CAGE	8	19	[0, 0, 0]	n/a	FR1	1	R1201P
2212.016	1.618	2233015	WORD	n/a	wordpools/wordpool_EN.txt	SLEEVE	9	19	[0, 0, 0]	n/a	FR1	1	R1201P
2213.634	0.8	2234633	WORD_OFF	n/a	n/a	SLEEVE	9	19	[0, 0, 0]	n/a	FR1	1	R1201P
2214.434	1.616	2235433	WORD	n/a	wordpools/wordpool_EN.txt	PLANE	10	19	[0, 0, 0]	n/a	FR1	1	R1201P
2216.05	0.95	2237049	WORD_OFF	n/a	n/a	PLANE	10	19	[0, 0, 0]	n/a	FR1	1	R1201P
2217.0	1.601	2237998	WORD	n/a	wordpools/wordpool_EN.txt	COUCH	11	19	[0, 0, 0]	n/a	FR1	1	R1201P
2218.601	0.768	2239599	WORD_OFF	n/a	n/a	COUCH	11	19	[0, 0, 0]	n/a	FR1	1	R1201P
2219.369	1.615	2240367	WORD	n/a	wordpools/wordpool_EN.txt	FAN	12	19	[0, 0, 0]	n/a	FR1	1	R1201P
2220.984	0.0	2241982	WORD_OFF	n/a	n/a	FAN	12	19	[0, 0, 0]	n/a	FR1	1	R1201P
2220.984	0.001	2241982	DISTRACT_START	n/a	n/a	n/a	-999	19	[0, 0, 0]	n/a	FR1	1	R1201P
2220.985	0.016	2241983	START	n/a	n/a	n/a	-999	19	[-999, -999, -999]	n/a	FR1	1	R1201P
2221.001	4.452	2241999	PROB	4.452	n/a	n/a	-999	19	[8, 9, 2]	19	FR1	1	R1201P
2225.453	2.951	2246451	PROB	2.951	n/a	n/a	-999	19	[1, 2, 3]	6	FR1	1	R1201P
2228.404	5.117	2249402	PROB	5.117	n/a	n/a	-999	19	[6, 9, 8]	23	FR1	1	R1201P
2233.521	1.967	2254519	PROB	1.967	n/a	n/a	-999	19	[1, 9, 1]	11	FR1	1	R1201P
2235.488	3.734	2256486	PROB	3.734	n/a	n/a	-999	19	[9, 4, 5]	18	FR1	1	R1201P
2239.222	4.288	2260219	PROB	4.288	n/a	n/a	-999	19	[5, 6, 7]	18	FR1	1	R1201P
2243.51	0.013	2264507	STOP	n/a	n/a	n/a	-999	19	[-999, -999, -999]	n/a	FR1	1	R1201P
2243.523	0.566	2264520	DISTRACT_END	n/a	n/a	n/a	-999	19	[0, 0, 0]	n/a	FR1	1	R1201P
2244.089	0.518	2265086	RETRIEVAL_ORIENT	n/a	n/a	n/a	-999	19	[0, 0, 0]	n/a	FR1	1	R1201P
2244.607	21.712	2265604	REC_START	n/a	n/a	n/a	-999	19	[0, 0, 0]	n/a	FR1	1	R1201P
2266.319	0.684	2287315	REC_WORD	0.684	n/a	NAIL	-999	19	[0, 0, 0]	n/a	FR1	1	R1201P
2267.003	7.616	2287999	REC_WORD	7.616	n/a	VASE	1	19	[0, 0, 0]	n/a	FR1	1	R1201P
2274.619	5.393	2295615	REC_END	n/a	n/a	n/a	-999	19	[0, 0, 0]	n/a	FR1	1	R1201P
2280.012	0.5	2301007	TRIAL	n/a	n/a	n/a	-999	20	[0, 0, 0]	n/a	FR1	1	R1201P
2280.512	10.428	2301507	COUNTDOWN_START	n/a	n/a	n/a	-999	20	[0, 0, 0]	n/a	FR1	1	R1201P
2290.94	0.008	2311935	COUNTDOWN_END	n/a	n/a	n/a	-999	20	[0, 0, 0]	n/a	FR1	1	R1201P
2290.948	1.618	2311943	ORIENT	n/a	n/a	n/a	-999	20	[0, 0, 0]	n/a	FR1	1	R1201P
2292.566	2.15	2313561	ORIENT_OFF	n/a	n/a	n/a	-999	20	[0, 0, 0]	n/a	FR1	1	R1201P
2294.716	1.617	2315710	WORD	n/a	wordpools/wordpool_EN.txt	MOLE	1	20	[0, 0, 0]	n/a	FR1	1	R1201P
2296.333	0.867	2317327	WORD_OFF	n/a	n/a	MOLE	1	20	[0, 0, 0]	n/a	FR1	1	R1201P
2297.2	1.616	2318194	WORD	n/a	wordpools/wordpool_EN.txt	NET	2	20	[0, 0, 0]	n/a	FR1	1	R1201P
2298.816	0.884	2319810	WORD_OFF	n/a	n/a	NET	2	20	[0, 0, 0]	n/a	FR1	1	R1201P
2299.7	1.617	2320694	WORD	n/a	wordpools/wordpool_EN.txt	EGG	3	20	[0, 0, 0]	n/a	FR1	1	R1201P
2301.317	0.85	2322311	WORD_OFF	n/a	n/a	EGG	3	20	[0, 0, 0]	n/a	FR1	1	R1201P
2302.167	1.616	2323161	WORD	n/a	wordpools/wordpool_EN.txt	SALT	4	20	[0, 0, 0]	n/a	FR1	1	R1201P
2303.783	0.768	2324777	WORD_OFF	n/a	n/a	SALT	4	20	[0, 0, 0]	n/a	FR1	1	R1201P
2304.551	1.617	2325545	WORD	n/a	wordpools/wordpool_EN.txt	EEL	5	20	[0, 0, 0]	n/a	FR1	1	R1201P
2306.168	1.0	2327162	WORD_OFF	n/a	n/a	EEL	5	20	[0, 0, 0]	n/a	FR1	1	R1201P
2307.168	1.616	2328162	WORD	n/a	wordpools/wordpool_EN.txt	FISH	6	20	[0, 0, 0]	n/a	FR1	1	R1201P
2308.784	0.935	2329778	WORD_OFF	n/a	n/a	FISH	6	20	[0, 0, 0]	n/a	FR1	1	R1201P
2309.719	1.617	2330713	WORD	n/a	wordpools/wordpool_EN.txt	SEED	7	20	[0, 0, 0]	n/a	FR1	1	R1201P
2311.336	0.95	2332330	WORD_OFF	n/a	n/a	SEED	7	20	[0, 0, 0]	n/a	FR1	1	R1201P
2312.286	1.616	2333280	WORD	n/a	wordpools/wordpool_EN.txt	ICE	8	20	[0, 0, 0]	n/a	FR1	1	R1201P
2313.902	0.917	2334896	WORD_OFF	n/a	n/a	ICE	8	20	[0, 0, 0]	n/a	FR1	1	R1201P
2314.819	1.618	2335812	WORD	n/a	wordpools/wordpool_EN.txt	SPONGE	9	20	[0, 0, 0]	n/a	FR1	1	R1201P
2316.437	0.833	2337430	WORD_OFF	n/a	n/a	SPONGE	9	20	[0, 0, 0]	n/a	FR1	1	R1201P
2317.27	1.616	2338263	WORD	n/a	wordpools/wordpool_EN.txt	STORE	10	20	[0, 0, 0]	n/a	FR1	1	R1201P
2318.886	0.917	2339879	WORD_OFF	n/a	n/a	STORE	10	20	[0, 0, 0]	n/a	FR1	1	R1201P
2319.803	1.618	2340796	WORD	n/a	wordpools/wordpool_EN.txt	ANT	11	20	[0, 0, 0]	n/a	FR1	1	R1201P
2321.421	0.967	2342414	WORD_OFF	n/a	n/a	ANT	11	20	[0, 0, 0]	n/a	FR1	1	R1201P
2322.388	1.616	2343381	WORD	n/a	wordpools/wordpool_EN.txt	PLANT	12	20	[0, 0, 0]	n/a	FR1	1	R1201P
2324.004	0.0	2344997	WORD_OFF	n/a	n/a	PLANT	12	20	[0, 0, 0]	n/a	FR1	1	R1201P
2324.004	0.0	2344997	DISTRACT_START	n/a	n/a	n/a	-999	20	[0, 0, 0]	n/a	FR1	1	R1201P
2324.004	0.017	2344997	START	n/a	n/a	n/a	-999	20	[-999, -999, -999]	n/a	FR1	1	R1201P
2324.021	6.352	2345014	PROB	6.352	n/a	n/a	-999	20	[5, 4, 5]	14	FR1	1	R1201P
2330.373	2.884	2351366	PROB	2.884	n/a	n/a	-999	20	[1, 1, 8]	10	FR1	1	R1201P
2333.257	4.533	2354250	PROB	4.533	n/a	n/a	-999	20	[5, 6, 9]	20	FR1	1	R1201P
2337.79	4.468	2358782	PROB	4.468	n/a	n/a	-999	20	[7, 6, 6]	19	FR1	1	R1201P
2342.258	3.132	2363250	PROB	3.132	n/a	n/a	-999	20	[9, 2, 9]	20	FR1	1	R1201P
2345.39	0.019	2366382	STOP	n/a	n/a	n/a	-999	20	[-999, -999, -999]	n/a	FR1	1	R1201P
2345.409	0.649	2366401	DISTRACT_END	n/a	n/a	n/a	-999	20	[0, 0, 0]	n/a	FR1	1	R1201P
2346.058	0.521	2367050	RETRIEVAL_ORIENT	n/a	n/a	n/a	-999	20	[0, 0, 0]	n/a	FR1	1	R1201P
2346.579	1.248	2367571	REC_START	n/a	n/a	n/a	-999	20	[0, 0, 0]	n/a	FR1	1	R1201P
2347.827	0.635	2368819	REC_WORD	0.635	n/a	EEL	5	20	[0, 0, 0]	n/a	FR1	1	R1201P
2348.462	28.127	2369454	REC_WORD	28.127	n/a	PLANT	12	20	[0, 0, 0]	n/a	FR1	1	R1201P
2376.589	5.96	2397579	REC_END	n/a	n/a	n/a	-999	20	[0, 0, 0]	n/a	FR1	1	R1201P
2382.549	0.5	2403539	TRIAL	n/a	n/a	n/a	-999	21	[0, 0, 0]	n/a	FR1	1	R1201P
2383.049	10.428	2404039	COUNTDOWN_START	n/a	n/a	n/a	-999	21	[0, 0, 0]	n/a	FR1	1	R1201P
2393.477	0.008	2414466	COUNTDOWN_END	n/a	n/a	n/a	-999	21	[0, 0, 0]	n/a	FR1	1	R1201P
2393.485	1.616	2414474	ORIENT	n/a	n/a	n/a	-999	21	[0, 0, 0]	n/a	FR1	1	R1201P
2395.101	2.134	2416090	ORIENT_OFF	n/a	n/a	n/a	-999	21	[0, 0, 0]	n/a	FR1	1	R1201P
2397.235	1.616	2418224	WORD	n/a	wordpools/wordpool_EN.txt	JET	1	21	[0, 0, 0]	n/a	FR1	1	R1201P
2398.851	0.768	2419840	WORD_OFF	n/a	n/a	JET	1	21	[0, 0, 0]	n/a	FR1	1	R1201P
2399.619	1.617	2420608	WORD	n/a	wordpools/wordpool_EN.txt	RAIN	2	21	[0, 0, 0]	n/a	FR1	1	R1201P
2401.236	0.849	2422225	WORD_OFF	n/a	n/a	RAIN	2	21	[0, 0, 0]	n/a	FR1	1	R1201P
2402.085	1.618	2423074	WORD	n/a	wordpools/wordpool_EN.txt	DOG	3	21	[0, 0, 0]	n/a	FR1	1	R1201P
2403.703	0.834	2424692	WORD_OFF	n/a	n/a	DOG	3	21	[0, 0, 0]	n/a	FR1	1	R1201P
2404.537	1.617	2425526	WORD	n/a	wordpools/wordpool_EN.txt	FOG	4	21	[0, 0, 0]	n/a	FR1	1	R1201P
2406.154	0.799	2427143	WORD_OFF	n/a	n/a	FOG	4	21	[0, 0, 0]	n/a	FR1	1	R1201P
2406.953	1.601	2427942	WORD	n/a	wordpools/wordpool_EN.txt	BOAT	5	21	[0, 0, 0]	n/a	FR1	1	R1201P
2408.554	1.017	2429543	WORD_OFF	n/a	n/a	BOAT	5	21	[0, 0, 0]	n/a	FR1	1	R1201P
2409.571	1.617	2430560	WORD	n/a	wordpools/wordpool_EN.txt	LAKE	6	21	[0, 0, 0]	n/a	FR1	1	R1201P
2411.188	0.832	2432177	WORD_OFF	n/a	n/a	LAKE	6	21	[0, 0, 0]	n/a	FR1	1	R1201P
2412.02	1.601	2433008	WORD	n/a	wordpools/wordpool_EN.txt	TRAIN	7	21	[0, 0, 0]	n/a	FR1	1	R1201P
2413.621	0.984	2434609	WORD_OFF	n/a	n/a	TRAIN	7	21	[0, 0, 0]	n/a	FR1	1	R1201P
2414.605	1.617	2435593	WORD	n/a	wordpools/wordpool_EN.txt	MOOSE	8	21	[0, 0, 0]	n/a	FR1	1	R1201P
2416.222	0.799	2437210	WORD_OFF	n/a	n/a	MOOSE	8	21	[0, 0, 0]	n/a	FR1	1	R1201P
2417.021	1.618	2438009	WORD	n/a	wordpools/wordpool_EN.txt	SNOW	9	21	[0, 0, 0]	n/a	FR1	1	R1201P
2418.639	0.817	2439627	WORD_OFF	n/a	n/a	SNOW	9	21	[0, 0, 0]	n/a	FR1	1	R1201P
2419.456	1.616	2440444	WORD	n/a	wordpools/wordpool_EN.txt	HILL	10	21	[0, 0, 0]	n/a	FR1	1	R1201P
2421.072	0.934	2442060	WORD_OFF	n/a	n/a	HILL	10	21	[0, 0, 0]	n/a	FR1	1	R1201P
2422.006	1.618	2442994	WORD	n/a	wordpools/wordpool_EN.txt	SMOKE	11	21	[0, 0, 0]	n/a	FR1	1	R1201P
2423.624	0.8	2444612	WORD_OFF	n/a	n/a	SMOKE	11	21	[0, 0, 0]	n/a	FR1	1	R1201P
2424.424	1.616	2445412	WORD	n/a	wordpools/wordpool_EN.txt	HEN	12	21	[0, 0, 0]	n/a	FR1	1	R1201P
2426.04	0.0	2447028	WORD_OFF	n/a	n/a	HEN	12	21	[0, 0, 0]	n/a	FR1	1	R1201P
2426.04	0.0	2447028	DISTRACT_START	n/a	n/a	n/a	-999	21	[0, 0, 0]	n/a	FR1	1	R1201P
2426.04	0.016	2447028	START	n/a	n/a	n/a	-999	21	[-999, -999, -999]	n/a	FR1	1	R1201P
2426.056	4.169	2447044	PROB	4.169	n/a	n/a	-999	21	[2, 3, 5]	10	FR1	1	R1201P
2430.225	4.101	2451213	PROB	4.101	n/a	n/a	-999	21	[5, 1, 6]	12	FR1	1	R1201P
2434.326	3.566	2455313	PROB	3.566	n/a	n/a	-999	21	[3, 2, 5]	10	FR1	1	R1201P
2437.892	2.867	2458879	PROB	2.867	n/a	n/a	-999	21	[3, 2, 9]	14	FR1	1	R1201P
2440.759	2.435	2461746	PROB	2.435	n/a	n/a	-999	21	[8, 3, 2]	13	FR1	1	R1201P
2443.194	6.084	2464181	PROB	6.084	n/a	n/a	-999	21	[9, 2, 6]	17	FR1	1	R1201P
2449.278	0.017	2470265	STOP	n/a	n/a	n/a	-999	21	[-999, -999, -999]	n/a	FR1	1	R1201P
2449.295	0.649	2470282	DISTRACT_END	n/a	n/a	n/a	-999	21	[0, 0, 0]	n/a	FR1	1	R1201P
2449.944	0.519	2470931	RETRIEVAL_ORIENT	n/a	n/a	n/a	-999	21	[0, 0, 0]	n/a	FR1	1	R1201P
2450.463	2.005	2471450	REC_START	n/a	n/a	n/a	-999	21	[0, 0, 0]	n/a	FR1	1	R1201P
2452.468	0.722	2473454	REC_WORD	0.722	n/a	JET	1	21	[0, 0, 0]	n/a	FR1	1	R1201P
2453.19	0.934	2474176	REC_WORD	0.934	n/a	TRAIN	7	21	[0, 0, 0]	n/a	FR1	1	R1201P
2454.124	2.057	2475110	REC_WORD	2.057	n/a	PLANE	-999	21	[0, 0, 0]	n/a	FR1	1	R1201P
2456.181	24.293	2477167	REC_WORD	24.293	n/a	FOG	4	21	[0, 0, 0]	n/a	FR1	1	R1201P
2480.474	4.627	2501459	REC_END	n/a	n/a	n/a	-999	21	[0, 0, 0]	n/a	FR1	1	R1201P
2485.101	0.5	2506086	TRIAL	n/a	n/a	n/a	-999	22	[0, 0, 0]	n/a	FR1	1	R1201P
2485.601	10.428	2506586	COUNTDOWN_START	n/a	n/a	n/a	-999	22	[0, 0, 0]	n/a	FR1	1	R1201P
2496.029	0.007	2517013	COUNTDOWN_END	n/a	n/a	n/a	-999	22	[0, 0, 0]	n/a	FR1	1	R1201P
2496.036	1.618	2517020	ORIENT	n/a	n/a	n/a	-999	22	[0, 0, 0]	n/a	FR1	1	R1201P
2497.654	2.35	2518638	ORIENT_OFF	n/a	n/a	n/a	-999	22	[0, 0, 0]	n/a	FR1	1	R1201P
2500.004	1.618	2520988	WORD	n/a	wordpools/wordpool_EN.txt	HAWK	1	22	[0, 0, 0]	n/a	FR1	1	R1201P
2501.622	0.8	2522606	WORD_OFF	n/a	n/a	HAWK	1	22	[0, 0, 0]	n/a	FR1	1	R1201P
2502.422	1.616	2523406	WORD	n/a	wordpools/wordpool_EN.txt	NEST	2	22	[0, 0, 0]	n/a	FR1	1	R1201P
2504.038	0.8	2525022	WORD_OFF	n/a	n/a	NEST	2	22	[0, 0, 0]	n/a	FR1	1	R1201P
2504.838	1.618	2525822	WORD	n/a	wordpools/wordpool_EN.txt	CAT	3	22	[0, 0, 0]	n/a	FR1	1	R1201P
2506.456	0.967	2527440	WORD_OFF	n/a	n/a	CAT	3	22	[0, 0, 0]	n/a	FR1	1	R1201P
2507.423	1.616	2528407	WORD	n/a	wordpools/wordpool_EN.txt	GRASS	4	22	[0, 0, 0]	n/a	FR1	1	R1201P
2509.039	0.9	2530023	WORD_OFF	n/a	n/a	GRASS	4	22	[0, 0, 0]	n/a	FR1	1	R1201P
2509.939	1.618	2530922	WORD	n/a	wordpools/wordpool_EN.txt	RIB	5	22	[0, 0, 0]	n/a	FR1	1	R1201P
2511.557	0.933	2532540	WORD_OFF	n/a	n/a	RIB	5	22	[0, 0, 0]	n/a	FR1	1	R1201P
2512.49	1.616	2533473	WORD	n/a	wordpools/wordpool_EN.txt	HORSE	6	22	[0, 0, 0]	n/a	FR1	1	R1201P
2514.106	0.934	2535089	WORD_OFF	n/a	n/a	HORSE	6	22	[0, 0, 0]	n/a	FR1	1	R1201P
2515.04	1.618	2536023	WORD	n/a	wordpools/wordpool_EN.txt	ZOO	7	22	[0, 0, 0]	n/a	FR1	1	R1201P
2516.658	0.783	2537641	WORD_OFF	n/a	n/a	ZOO	7	22	[0, 0, 0]	n/a	FR1	1	R1201P
2517.441	1.616	2538424	WORD	n/a	wordpools/wordpool_EN.txt	SNAKE	8	22	[0, 0, 0]	n/a	FR1	1	R1201P
2519.057	0.867	2540040	WORD_OFF	n/a	n/a	SNAKE	8	22	[0, 0, 0]	n/a	FR1	1	R1201P
2519.924	1.618	2540907	WORD	n/a	wordpools/wordpool_EN.txt	BIRD	9	22	[0, 0, 0]	n/a	FR1	1	R1201P
2521.542	0.867	2542525	WORD_OFF	n/a	n/a	BIRD	9	22	[0, 0, 0]	n/a	FR1	1	R1201P
2522.409	1.616	2543392	WORD	n/a	wordpools/wordpool_EN.txt	CLOUD	10	22	[0, 0, 0]	n/a	FR1	1	R1201P
2524.025	0.883	2545008	WORD_OFF	n/a	n/a	CLOUD	10	22	[0, 0, 0]	n/a	FR1	1	R1201P
2524.908	1.618	2545891	WORD	n/a	wordpools/wordpool_EN.txt	MOUSE	11	22	[0, 0, 0]	n/a	FR1	1	R1201P
2526.526	1.001	2547509	WORD_OFF	n/a	n/a	MOUSE	11	22	[0, 0, 0]	n/a	FR1	1	R1201P
2527.527	1.616	2548510	WORD	n/a	wordpools/wordpool_EN.txt	SKUNK	12	22	[0, 0, 0]	n/a	FR1	1	R1201P
2529.143	0.0	2550126	WORD_OFF	n/a	n/a	SKUNK	12	22	[0, 0, 0]	n/a	FR1	1	R1201P
2529.143	0.001	2550126	DISTRACT_START	n/a	n/a	n/a	-999	22	[0, 0, 0]	n/a	FR1	1	R1201P
2529.144	0.016	2550127	START	n/a	n/a	n/a	-999	22	[-999, -999, -999]	n/a	FR1	1	R1201P
2529.16	5.95	2550143	PROB	5.95	n/a	n/a	-999	22	[2, 5, 2]	9	FR1	1	R1201P
2535.11	4.851	2556092	PROB	4.851	n/a	n/a	-999	22	[9, 6, 9]	24	FR1	1	R1201P
2539.961	3.268	2560943	PROB	3.268	n/a	n/a	-999	22	[9, 1, 4]	14	FR1	1	R1201P
2543.229	3.018	2564211	PROB	3.018	n/a	n/a	-999	22	[1, 8, 9]	18	FR1	1	R1201P
2546.247	4.025	2567229	PROB	4.025	n/a	n/a	-999	22	[6, 8, 9]	23	FR1	1	R1201P
2550.272	0.009	2571253	STOP	n/a	n/a	n/a	-999	22	[-999, -999, -999]	n/a	FR1	1	R1201P
2550.281	0.682	2571262	DISTRACT_END	n/a	n/a	n/a	-999	22	[0, 0, 0]	n/a	FR1	1	R1201P
2550.963	0.519	2571944	RETRIEVAL_ORIENT	n/a	n/a	n/a	-999	22	[0, 0, 0]	n/a	FR1	1	R1201P
2551.482	0.735	2572463	REC_START	n/a	n/a	n/a	-999	22	[0, 0, 0]	n/a	FR1	1	R1201P
2552.217	0.614	2573198	REC_WORD	0.614	n/a	HAWK	1	22	[0, 0, 0]	n/a	FR1	1	R1201P
2552.831	1.017	2573812	REC_WORD	1.017	n/a	NEST	2	22	[0, 0, 0]	n/a	FR1	1	R1201P
2553.848	4.968	2574829	REC_WORD	4.968	n/a	RIB	5	22	[0, 0, 0]	n/a	FR1	1	R1201P
2558.816	3.867	2579797	REC_WORD	3.867	n/a	HORSE	6	22	[0, 0, 0]	n/a	FR1	1	R1201P
2562.683	18.809	2583664	REC_WORD	18.809	n/a	COW	-999	22	[0, 0, 0]	n/a	FR1	1	R1201P
2581.492	5.046	2602472	REC_END	n/a	n/a	n/a	-999	22	[0, 0, 0]	n/a	FR1	1	R1201P
2586.538	0.5	2607518	TRIAL	n/a	n/a	n/a	-999	23	[0, 0, 0]	n/a	FR1	1	R1201P
2587.038	10.428	2608018	COUNTDOWN_START	n/a	n/a	n/a	-999	23	[0, 0, 0]	n/a	FR1	1	R1201P
2597.466	0.007	2618445	COUNTDOWN_END	n/a	n/a	n/a	-999	23	[0, 0, 0]	n/a	FR1	1	R1201P
2597.473	1.616	2618452	ORIENT	n/a	n/a	n/a	-999	23	[0, 0, 0]	n/a	FR1	1	R1201P
2599.089	1.984	2620068	ORIENT_OFF	n/a	n/a	n/a	-999	23	[0, 0, 0]	n/a	FR1	1	R1201P
2601.073	1.618	2622052	WORD	n/a	wordpools/wordpool_EN.txt	PURSE	1	23	[0, 0, 0]	n/a	FR1	1	R1201P
2602.691	0.816	2623670	WORD_OFF	n/a	n/a	PURSE	1	23	[0, 0, 0]	n/a	FR1	1	R1201P
2603.507	1.616	2624486	WORD	n/a	wordpools/wordpool_EN.txt	STEAK	2	23	[0, 0, 0]	n/a	FR1	1	R1201P
2605.123	0.901	2626102	WORD_OFF	n/a	n/a	STEAK	2	23	[0, 0, 0]	n/a	FR1	1	R1201P
2606.024	1.618	2627003	WORD	n/a	wordpools/wordpool_EN.txt	MAZE	3	23	[0, 0, 0]	n/a	FR1	1	R1201P
2607.642	0.966	2628620	WORD_OFF	n/a	n/a	MAZE	3	23	[0, 0, 0]	n/a	FR1	1	R1201P
2608.608	1.617	2629586	WORD	n/a	wordpools/wordpool_EN.txt	PEAR	4	23	[0, 0, 0]	n/a	FR1	1	R1201P
2610.225	0.967	2631203	WORD_OFF	n/a	n/a	PEAR	4	23	[0, 0, 0]	n/a	FR1	1	R1201P
2611.192	1.616	2632170	WORD	n/a	wordpools/wordpool_EN.txt	SPEAR	5	23	[0, 0, 0]	n/a	FR1	1	R1201P
2612.808	0.818	2633786	WORD_OFF	n/a	n/a	SPEAR	5	23	[0, 0, 0]	n/a	FR1	1	R1201P
2613.626	1.617	2634604	WORD	n/a	wordpools/wordpool_EN.txt	FUDGE	6	23	[0, 0, 0]	n/a	FR1	1	R1201P
2615.243	0.95	2636221	WORD_OFF	n/a	n/a	FUDGE	6	23	[0, 0, 0]	n/a	FR1	1	R1201P
2616.193	1.616	2637171	WORD	n/a	wordpools/wordpool_EN.txt	BREAD	7	23	[0, 0, 0]	n/a	FR1	1	R1201P
2617.809	0.768	2638787	WORD_OFF	n/a	n/a	BREAD	7	23	[0, 0, 0]	n/a	FR1	1	R1201P
2618.577	1.617	2639555	WORD	n/a	wordpools/wordpool_EN.txt	TENT	8	23	[0, 0, 0]	n/a	FR1	1	R1201P
2620.194	0.95	2641172	WORD_OFF	n/a	n/a	TENT	8	23	[0, 0, 0]	n/a	FR1	1	R1201P
2621.144	1.616	2642122	WORD	n/a	wordpools/wordpool_EN.txt	SWAMP	9	23	[0, 0, 0]	n/a	FR1	1	R1201P
2622.76	0.885	2643738	WORD_OFF	n/a	n/a	SWAMP	9	23	[0, 0, 0]	n/a	FR1	1	R1201P
2623.645	1.617	2644623	WORD	n/a	wordpools/wordpool_EN.txt	CHEEK	10	23	[0, 0, 0]	n/a	FR1	1	R1201P
2625.262	0.983	2646240	WORD_OFF	n/a	n/a	CHEEK	10	23	[0, 0, 0]	n/a	FR1	1	R1201P
2626.245	1.616	2647223	WORD	n/a	wordpools/wordpool_EN.txt	MOUTH	11	23	[0, 0, 0]	n/a	FR1	1	R1201P
2627.861	0.934	2648838	WORD_OFF	n/a	n/a	MOUTH	11	23	[0, 0, 0]	n/a	FR1	1	R1201P
2628.795	1.618	2649772	WORD	n/a	wordpools/wordpool_EN.txt	HAND	12	23	[0, 0, 0]	n/a	FR1	1	R1201P
2630.413	0.0	2651390	WORD_OFF	n/a	n/a	HAND	12	23	[0, 0, 0]	n/a	FR1	1	R1201P
2630.413	0.0	2651390	DISTRACT_START	n/a	n/a	n/a	-999	23	[0, 0, 0]	n/a	FR1	1	R1201P
2630.413	0.016	2651390	START	n/a	n/a	n/a	-999	23	[-999, -999, -999]	n/a	FR1	1	R1201P
2630.429	9.202	2651406	PROB	9.202	n/a	n/a	-999	23	[6, 8, 5]	19	FR1	1	R1201P
2639.631	2.249	2660608	PROB	2.249	n/a	n/a	-999	23	[6, 8, 2]	16	FR1	1	R1201P
2641.88	3.951	2662857	PROB	3.951	n/a	n/a	-999	23	[7, 8, 3]	18	FR1	1	R1201P
2645.831	5.487	2666808	PROB	5.487	n/a	n/a	-999	23	[2, 6, 5]	13	FR1	1	R1201P
2651.318	0.015	2672294	STOP	n/a	n/a	n/a	-999	23	[-999, -999, -999]	n/a	FR1	1	R1201P
2651.333	0.649	2672309	DISTRACT_END	n/a	n/a	n/a	-999	23	[0, 0, 0]	n/a	FR1	1	R1201P
2651.982	0.519	2672958	RETRIEVAL_ORIENT	n/a	n/a	n/a	-999	23	[0, 0, 0]	n/a	FR1	1	R1201P
2652.501	1.626	2673477	REC_START	n/a	n/a	n/a	-999	23	[0, 0, 0]	n/a	FR1	1	R1201P
2654.127	0.965	2675103	REC_WORD	0.965	n/a	MOUTH	11	23	[0, 0, 0]	n/a	FR1	1	R1201P
2655.092	4.461	2676068	REC_WORD	4.461	n/a	HAND	12	23	[0, 0, 0]	n/a	FR1	1	R1201P
2659.553	9.968	2680529	REC_WORD	9.968	n/a	FACE	-999	23	[0, 0, 0]	n/a	FR1	1	R1201P
2669.521	4.071	2690496	REC_WORD	4.071	n/a	COW	-999	23	[0, 0, 0]	n/a	FR1	1	R1201P
2673.592	1.0	2694567	REC_WORD	1.0	n/a	STEAK	2	23	[0, 0, 0]	n/a	FR1	1	R1201P
2674.592	7.921	2695567	REC_WORD_VV	7.921	n/a	<>	-999	23	[0, 0, 0]	n/a	FR1	1	R1201P
2682.513	4.627	2703488	REC_END	n/a	n/a	n/a	-999	23	[0, 0, 0]	n/a	FR1	1	R1201P
2687.14	0.5	2708114	TRIAL	n/a	n/a	n/a	-999	24	[0, 0, 0]	n/a	FR1	1	R1201P
2687.64	10.428	2708614	COUNTDOWN_START	n/a	n/a	n/a	-999	24	[0, 0, 0]	n/a	FR1	1	R1201P
2698.068	0.006	2719042	COUNTDOWN_END	n/a	n/a	n/a	-999	24	[0, 0, 0]	n/a	FR1	1	R1201P
2698.074	1.601	2719048	ORIENT	n/a	n/a	n/a	-999	24	[0, 0, 0]	n/a	FR1	1	R1201P
2699.675	2.233	2720649	ORIENT_OFF	n/a	n/a	n/a	-999	24	[0, 0, 0]	n/a	FR1	1	R1201P
2701.908	1.618	2722882	WORD	n/a	wordpools/wordpool_EN.txt	CORN	1	24	[0, 0, 0]	n/a	FR1	1	R1201P
2703.526	0.834	2724500	WORD_OFF	n/a	n/a	CORN	1	24	[0, 0, 0]	n/a	FR1	1	R1201P
2704.36	1.616	2725334	WORD	n/a	wordpools/wordpool_EN.txt	BAG	2	24	[0, 0, 0]	n/a	FR1	1	R1201P
2705.976	0.85	2726949	WORD_OFF	n/a	n/a	BAG	2	24	[0, 0, 0]	n/a	FR1	1	R1201P
2706.826	1.618	2727799	WORD	n/a	wordpools/wordpool_EN.txt	MILK	3	24	[0, 0, 0]	n/a	FR1	1	R1201P
2708.444	0.917	2729417	WORD_OFF	n/a	n/a	MILK	3	24	[0, 0, 0]	n/a	FR1	1	R1201P
2709.361	1.616	2730334	WORD	n/a	wordpools/wordpool_EN.txt	CART	4	24	[0, 0, 0]	n/a	FR1	1	R1201P
2710.977	0.867	2731950	WORD_OFF	n/a	n/a	CART	4	24	[0, 0, 0]	n/a	FR1	1	R1201P
2711.844	1.617	2732817	WORD	n/a	wordpools/wordpool_EN.txt	BOWL	5	24	[0, 0, 0]	n/a	FR1	1	R1201P
2713.461	0.851	2734434	WORD_OFF	n/a	n/a	BOWL	5	24	[0, 0, 0]	n/a	FR1	1	R1201P
2714.312	1.616	2735285	WORD	n/a	wordpools/wordpool_EN.txt	JEEP	6	24	[0, 0, 0]	n/a	FR1	1	R1201P
2715.928	0.9	2736901	WORD_OFF	n/a	n/a	JEEP	6	24	[0, 0, 0]	n/a	FR1	1	R1201P
2716.828	1.601	2737801	WORD	n/a	wordpools/wordpool_EN.txt	CALF	7	24	[0, 0, 0]	n/a	FR1	1	R1201P
2718.429	0.984	2739402	WORD_OFF	n/a	n/a	CALF	7	24	[0, 0, 0]	n/a	FR1	1	R1201P
2719.413	1.616	2740386	WORD	n/a	wordpools/wordpool_EN.txt	BOARD	8	24	[0, 0, 0]	n/a	FR1	1	R1201P
2721.029	1.0	2742002	WORD_OFF	n/a	n/a	BOARD	8	24	[0, 0, 0]	n/a	FR1	1	R1201P
2722.029	1.618	2743002	WORD	n/a	wordpools/wordpool_EN.txt	SPRING	9	24	[0, 0, 0]	n/a	FR1	1	R1201P
2723.647	1.0	2744620	WORD_OFF	n/a	n/a	SPRING	9	24	[0, 0, 0]	n/a	FR1	1	R1201P
2724.647	1.617	2745620	WORD	n/a	wordpools/wordpool_EN.txt	FARM	10	24	[0, 0, 0]	n/a	FR1	1	R1201P
2726.264	0.832	2747236	WORD_OFF	n/a	n/a	FARM	10	24	[0, 0, 0]	n/a	FR1	1	R1201P
2727.096	1.618	2748068	WORD	n/a	wordpools/wordpool_EN.txt	BLUSH	11	24	[0, 0, 0]	n/a	FR1	1	R1201P
2728.714	0.867	2749686	WORD_OFF	n/a	n/a	BLUSH	11	24	[0, 0, 0]	n/a	FR1	1	R1201P
2729.581	1.617	2750553	WORD	n/a	wordpools/wordpool_EN.txt	HORN	12	24	[0, 0, 0]	n/a	FR1	1	R1201P
2731.198	0.0	2752170	WORD_OFF	n/a	n/a	HORN	12	24	[0, 0, 0]	n/a	FR1	1	R1201P
2731.198	0.001	2752170	DISTRACT_START	n/a	n/a	n/a	-999	24	[0, 0, 0]	n/a	FR1	1	R1201P
2731.199	0.016	2752171	START	n/a	n/a	n/a	-999	24	[-999, -999, -999]	n/a	FR1	1	R1201P
2731.215	3.883	2752187	PROB	3.883	n/a	n/a	-999	24	[4, 4, 3]	11	FR1	1	R1201P
2735.098	3.268	2756070	PROB	3.268	n/a	n/a	-999	24	[9, 4, 4]	17	FR1	1	R1201P
2738.366	2.75	2759338	PROB	2.75	n/a	n/a	-999	24	[4, 5, 3]	12	FR1	1	R1201P
2741.116	2.817	2762088	PROB	2.817	n/a	n/a	-999	24	[4, 7, 1]	12	FR1	1	R1201P
2743.933	3.05	2764905	PROB	3.05	n/a	n/a	-999	24	[6, 2, 5]	13	FR1	1	R1201P
2746.983	2.569	2767954	PROB	2.569	n/a	n/a	-999	24	[7, 3, 3]	13	FR1	1	R1201P
2749.552	5.198	2770523	PROB	5.198	n/a	n/a	-999	24	[4, 2, 3]	9	FR1	1	R1201P
2754.75	0.018	2775721	STOP	n/a	n/a	n/a	-999	24	[-999, -999, -999]	n/a	FR1	1	R1201P
2754.768	0.651	2775739	DISTRACT_END	n/a	n/a	n/a	-999	24	[0, 0, 0]	n/a	FR1	1	R1201P
2755.419	0.517	2776390	RETRIEVAL_ORIENT	n/a	n/a	n/a	-999	24	[0, 0, 0]	n/a	FR1	1	R1201P
2755.936	1.786	2776907	REC_START	n/a	n/a	n/a	-999	24	[0, 0, 0]	n/a	FR1	1	R1201P
2757.722	19.627	2778693	REC_WORD	19.627	n/a	CALF	7	24	[0, 0, 0]	n/a	FR1	1	R1201P
2777.349	0.54	2798319	REC_WORD	0.54	n/a	HORSE	-999	24	[0, 0, 0]	n/a	FR1	1	R1201P
2777.889	8.059	2798859	REC_WORD	8.059	n/a	FARM	10	24	[0, 0, 0]	n/a	FR1	1	R1201P
2785.948	5.211	2806917	REC_END	n/a	n/a	n/a	-999	24	[0, 0, 0]	n/a	FR1	1	R1201P
2791.159	0.5	2812128	TRIAL	n/a	n/a	n/a	-999	25	[0, 0, 0]	n/a	FR1	1	R1201P
2791.659	10.428	2812628	COUNTDOWN_START	n/a	n/a	n/a	-999	25	[0, 0, 0]	n/a	FR1	1	R1201P
2802.087	0.007	2823056	COUNTDOWN_END	n/a	n/a	n/a	-999	25	[0, 0, 0]	n/a	FR1	1	R1201P
2802.094	1.601	2823063	ORIENT	n/a	n/a	n/a	-999	25	[0, 0, 0]	n/a	FR1	1	R1201P
2803.695	2.266	2824663	ORIENT_OFF	n/a	n/a	n/a	-999	25	[0, 0, 0]	n/a	FR1	1	R1201P
2805.961	1.618	2826929	WORD	n/a	wordpools/wordpool_EN.txt	AXE	1	25	[0, 0, 0]	n/a	FR1	1	R1201P
2807.579	0.817	2828547	WORD_OFF	n/a	n/a	AXE	1	25	[0, 0, 0]	n/a	FR1	1	R1201P
2808.396	1.616	2829364	WORD	n/a	wordpools/wordpool_EN.txt	TEETH	2	25	[0, 0, 0]	n/a	FR1	1	R1201P
2810.012	0.85	2830980	WORD_OFF	n/a	n/a	TEETH	2	25	[0, 0, 0]	n/a	FR1	1	R1201P
2810.862	1.601	2831830	WORD	n/a	wordpools/wordpool_EN.txt	FOOT	3	25	[0, 0, 0]	n/a	FR1	1	R1201P
2812.463	0.884	2833431	WORD_OFF	n/a	n/a	FOOT	3	25	[0, 0, 0]	n/a	FR1	1	R1201P
2813.347	1.616	2834315	WORD	n/a	wordpools/wordpool_EN.txt	YARD	4	25	[0, 0, 0]	n/a	FR1	1	R1201P
2814.963	0.933	2835931	WORD_OFF	n/a	n/a	YARD	4	25	[0, 0, 0]	n/a	FR1	1	R1201P
2815.896	1.618	2836864	WORD	n/a	wordpools/wordpool_EN.txt	BENCH	5	25	[0, 0, 0]	n/a	FR1	1	R1201P
2817.514	1.001	2838482	WORD_OFF	n/a	n/a	BENCH	5	25	[0, 0, 0]	n/a	FR1	1	R1201P
2818.515	1.617	2839483	WORD	n/a	wordpools/wordpool_EN.txt	SHOE	6	25	[0, 0, 0]	n/a	FR1	1	R1201P
2820.132	1.0	2841100	WORD_OFF	n/a	n/a	SHOE	6	25	[0, 0, 0]	n/a	FR1	1	R1201P
2821.132	1.616	2842100	WORD	n/a	wordpools/wordpool_EN.txt	STRAW	7	25	[0, 0, 0]	n/a	FR1	1	R1201P
2822.748	0.901	2843715	WORD_OFF	n/a	n/a	STRAW	7	25	[0, 0, 0]	n/a	FR1	1	R1201P
2823.649	1.617	2844616	WORD	n/a	wordpools/wordpool_EN.txt	STOOL	8	25	[0, 0, 0]	n/a	FR1	1	R1201P
2825.266	0.917	2846233	WORD_OFF	n/a	n/a	STOOL	8	25	[0, 0, 0]	n/a	FR1	1	R1201P
2826.183	1.616	2847150	WORD	n/a	wordpools/wordpool_EN.txt	LOCK	9	25	[0, 0, 0]	n/a	FR1	1	R1201P
2827.799	0.784	2848766	WORD_OFF	n/a	n/a	LOCK	9	25	[0, 0, 0]	n/a	FR1	1	R1201P
2828.583	1.617	2849550	WORD	n/a	wordpools/wordpool_EN.txt	BED	10	25	[0, 0, 0]	n/a	FR1	1	R1201P
2830.2	0.916	2851167	WORD_OFF	n/a	n/a	BED	10	25	[0, 0, 0]	n/a	FR1	1	R1201P
2831.116	1.617	2852083	WORD	n/a	wordpools/wordpool_EN.txt	TOY	11	25	[0, 0, 0]	n/a	FR1	1	R1201P
2832.733	0.934	2853700	WORD_OFF	n/a	n/a	TOY	11	25	[0, 0, 0]	n/a	FR1	1	R1201P
2833.667	1.617	2854634	WORD	n/a	wordpools/wordpool_EN.txt	BOOT	12	25	[0, 0, 0]	n/a	FR1	1	R1201P
2835.284	0.0	2856251	WORD_OFF	n/a	n/a	BOOT	12	25	[0, 0, 0]	n/a	FR1	1	R1201P
2835.284	0.001	2856251	DISTRACT_START	n/a	n/a	n/a	-999	25	[0, 0, 0]	n/a	FR1	1	R1201P
2835.285	0.016	2856252	START	n/a	n/a	n/a	-999	25	[-999, -999, -999]	n/a	FR1	1	R1201P
2835.301	7.068	2856268	PROB	7.068	n/a	n/a	-999	25	[6, 1, 8]	15	FR1	1	R1201P
2842.369	2.716	2863335	PROB	2.716	n/a	n/a	-999	25	[8, 1, 3]	12	FR1	1	R1201P
2845.085	5.069	2866051	PROB	5.069	n/a	n/a	-999	25	[2, 6, 3]	11	FR1	1	R1201P
2850.154	4.201	2871120	PROB	4.201	n/a	n/a	-999	25	[4, 7, 5]	16	FR1	1	R1201P
2854.355	3.787	2875321	PROB	3.787	n/a	n/a	-999	25	[6, 4, 7]	17	FR1	1	R1201P
2858.142	0.013	2879108	STOP	n/a	n/a	n/a	-999	25	[-999, -999, -999]	n/a	FR1	1	R1201P
2858.155	0.551	2879121	DISTRACT_END	n/a	n/a	n/a	-999	25	[0, 0, 0]	n/a	FR1	1	R1201P
2858.706	0.52	2879672	RETRIEVAL_ORIENT	n/a	n/a	n/a	-999	25	[0, 0, 0]	n/a	FR1	1	R1201P
2859.226	0.72	2880192	REC_START	n/a	n/a	n/a	-999	25	[0, 0, 0]	n/a	FR1	1	R1201P
2859.946	29.287	2880912	REC_WORD	29.287	n/a	AXE	1	25	[0, 0, 0]	n/a	FR1	1	R1201P
2889.233	37.302	2910197	REC_END	n/a	n/a	n/a	-999	25	[0, 0, 0]	n/a	FR1	1	R1201P
2926.535	0.0	2947497	SESS_END	n/a	n/a	n/a	-999	25	[0, 0, 0]	n/a	FR1	1	R1201P
