onset	duration	sample	trial_type	response_time	stim_file	item_name	serialpos	list	test	answer	experiment	session	subject
0.0	0.0	6585	INSTRUCT_START	n/a	n/a	n/a	-999	-999	[0, 0, 0]	n/a	FR1	1	R1173J
0.0	10.995	6585	INSTRUCT_END	n/a	n/a	n/a	-999	-999	[0, 0, 0]	n/a	FR1	1	R1173J
10.995	0.0	17580	SESS_START	n/a	n/a	n/a	-999	-999	[0, 0, 0]	n/a	FR1	1	R1173J
10.995	74.601	17580	MIC_TEST	n/a	n/a	n/a	-999	-999	[0, 0, 0]	n/a	FR1	1	R1173J
85.596	26.568	92181	PRACTICE_TRIAL	n/a	n/a	n/a	-999	-1	[0, 0, 0]	n/a	FR1	1	R1173J
112.164	10.428	118749	COUNTDOWN_START	n/a	n/a	n/a	-999	-1	[0, 0, 0]	n/a	FR1	1	R1173J
122.592	0.022	129176	COUNTDOWN_END	n/a	n/a	n/a	-999	-1	[0, 0, 0]	n/a	FR1	1	R1173J
122.614	1.618	129198	PRACTICE_ORIENT	n/a	n/a	n/a	-999	-1	[0, 0, 0]	n/a	FR1	1	R1173J
124.232	2.1	130816	PRACTICE_ORIENT_OFF	n/a	n/a	n/a	-999	-1	[0, 0, 0]	n/a	FR1	1	R1173J
126.332	1.617	132916	PRACTICE_WORD	n/a	n/a	RING	1	-1	[0, 0, 0]	n/a	FR1	1	R1173J
127.949	0.834	134533	PRACTICE_WORD_OFF	n/a	n/a	RING	-999	-1	[0, 0, 0]	n/a	FR1	1	R1173J
128.783	1.616	135367	PRACTICE_WORD	n/a	n/a	WAGON	2	-1	[0, 0, 0]	n/a	FR1	1	R1173J
130.399	0.901	136983	PRACTICE_WORD_OFF	n/a	n/a	WAGON	-999	-1	[0, 0, 0]	n/a	FR1	1	R1173J
131.3	1.616	137884	PRACTICE_WORD	n/a	n/a	TONGUE	3	-1	[0, 0, 0]	n/a	FR1	1	R1173J
132.916	0.801	139500	PRACTICE_WORD_OFF	n/a	n/a	TONGUE	-999	-1	[0, 0, 0]	n/a	FR1	1	R1173J
133.717	1.616	140301	PRACTICE_WORD	n/a	n/a	FLOOD	4	-1	[0, 0, 0]	n/a	FR1	1	R1173J
135.333	0.867	141917	PRACTICE_WORD_OFF	n/a	n/a	FLOOD	-999	-1	[0, 0, 0]	n/a	FR1	1	R1173J
136.2	1.617	142784	PRACTICE_WORD	n/a	n/a	RHINO	5	-1	[0, 0, 0]	n/a	FR1	1	R1173J
137.817	0.967	144401	PRACTICE_WORD_OFF	n/a	n/a	RHINO	-999	-1	[0, 0, 0]	n/a	FR1	1	R1173J
138.784	1.616	145368	PRACTICE_WORD	n/a	n/a	CHEST	6	-1	[0, 0, 0]	n/a	FR1	1	R1173J
140.4	0.801	146984	PRACTICE_WORD_OFF	n/a	n/a	CHEST	-999	-1	[0, 0, 0]	n/a	FR1	1	R1173J
141.201	1.617	147785	PRACTICE_WORD	n/a	n/a	WATCH	7	-1	[0, 0, 0]	n/a	FR1	1	R1173J
142.818	0.883	149402	PRACTICE_WORD_OFF	n/a	n/a	WATCH	-999	-1	[0, 0, 0]	n/a	FR1	1	R1173J
143.701	1.617	150285	PRACTICE_WORD	n/a	n/a	ATTIC	8	-1	[0, 0, 0]	n/a	FR1	1	R1173J
145.318	0.85	151902	PRACTICE_WORD_OFF	n/a	n/a	ATTIC	-999	-1	[0, 0, 0]	n/a	FR1	1	R1173J
146.168	1.617	152752	PRACTICE_WORD	n/a	n/a	BEAM	9	-1	[0, 0, 0]	n/a	FR1	1	R1173J
147.785	0.799	154369	PRACTICE_WORD_OFF	n/a	n/a	BEAM	-999	-1	[0, 0, 0]	n/a	FR1	1	R1173J
148.584	1.618	155168	PRACTICE_WORD	n/a	n/a	COTTON	10	-1	[0, 0, 0]	n/a	FR1	1	R1173J
150.202	0.95	156786	PRACTICE_WORD_OFF	n/a	n/a	COTTON	-999	-1	[0, 0, 0]	n/a	FR1	1	R1173J
151.152	1.617	157736	PRACTICE_WORD	n/a	n/a	CAMEL	11	-1	[0, 0, 0]	n/a	FR1	1	R1173J
152.769	1.0	159353	PRACTICE_WORD_OFF	n/a	n/a	CAMEL	-999	-1	[0, 0, 0]	n/a	FR1	1	R1173J
153.769	1.616	160353	PRACTICE_WORD	n/a	n/a	IRON	12	-1	[0, 0, 0]	n/a	FR1	1	R1173J
155.385	0.0	161969	PRACTICE_WORD_OFF	n/a	n/a	IRON	-999	-1	[0, 0, 0]	n/a	FR1	1	R1173J
155.385	0.001	161969	DISTRACT_START	n/a	n/a	n/a	-999	-1	[0, 0, 0]	n/a	FR1	1	R1173J
155.386	0.016	161970	START	n/a	n/a	n/a	-999	-1	[-999, -999, -999]	n/a	FR1	1	R1173J
155.402	4.067	161986	PROB	4.067	n/a	n/a	-999	-1	[5, 7, 2]	14	FR1	1	R1173J
159.469	3.151	166053	PROB	3.151	n/a	n/a	-999	-1	[8, 2, 2]	12	FR1	1	R1173J
162.62	3.783	169204	PROB	3.783	n/a	n/a	-999	-1	[6, 8, 6]	20	FR1	1	R1173J
166.403	3.535	172987	PROB	3.535	n/a	n/a	-999	-1	[6, 3, 6]	15	FR1	1	R1173J
169.938	4.084	176522	PROB	4.084	n/a	n/a	-999	-1	[5, 8, 7]	20	FR1	1	R1173J
174.022	3.741	180606	PROB	3.741	n/a	n/a	-999	-1	[2, 4, 1]	7	FR1	1	R1173J
177.763	0.009	184347	STOP	n/a	n/a	n/a	-999	-1	[-999, -999, -999]	n/a	FR1	1	R1173J
177.772	0.583	184356	DISTRACT_END	n/a	n/a	n/a	-999	-1	[0, 0, 0]	n/a	FR1	1	R1173J
178.355	0.518	184939	RETRIEVAL_ORIENT	n/a	n/a	n/a	-999	-1	[0, 0, 0]	n/a	FR1	1	R1173J
178.873	30.011	185457	PRACTICE_REC_START	n/a	n/a	n/a	-999	-1	[0, 0, 0]	n/a	FR1	1	R1173J
208.884	42.898	215468	PRACTICE_REC_END	n/a	n/a	n/a	-999	-1	[0, 0, 0]	n/a	FR1	1	R1173J
251.782	0.5	258365	TRIAL	n/a	n/a	n/a	-999	1	[0, 0, 0]	n/a	FR1	1	R1173J
252.282	10.428	258865	COUNTDOWN_START	n/a	n/a	n/a	-999	1	[0, 0, 0]	n/a	FR1	1	R1173J
262.71	0.006	269293	COUNTDOWN_END	n/a	n/a	n/a	-999	1	[0, 0, 0]	n/a	FR1	1	R1173J
262.716	1.617	269299	ORIENT	n/a	n/a	n/a	-999	1	[0, 0, 0]	n/a	FR1	1	R1173J
264.333	2.0	270916	ORIENT_OFF	n/a	n/a	n/a	-999	1	[0, 0, 0]	n/a	FR1	1	R1173J
266.333	1.618	272916	WORD	n/a	wordpools/wordpool_EN.txt	STREET	1	1	[0, 0, 0]	n/a	FR1	1	R1173J
267.951	0.95	274534	WORD_OFF	n/a	n/a	STREET	1	1	[0, 0, 0]	n/a	FR1	1	R1173J
268.901	1.616	275484	WORD	n/a	wordpools/wordpool_EN.txt	BOY	2	1	[0, 0, 0]	n/a	FR1	1	R1173J
270.517	0.834	277100	WORD_OFF	n/a	n/a	BOY	2	1	[0, 0, 0]	n/a	FR1	1	R1173J
271.351	1.617	277934	WORD	n/a	wordpools/wordpool_EN.txt	CASH	3	1	[0, 0, 0]	n/a	FR1	1	R1173J
272.968	0.816	279551	WORD_OFF	n/a	n/a	CASH	3	1	[0, 0, 0]	n/a	FR1	1	R1173J
273.784	1.616	280367	WORD	n/a	wordpools/wordpool_EN.txt	SCHOOL	4	1	[0, 0, 0]	n/a	FR1	1	R1173J
275.4	0.935	281983	WORD_OFF	n/a	n/a	SCHOOL	4	1	[0, 0, 0]	n/a	FR1	1	R1173J
276.335	1.617	282918	WORD	n/a	wordpools/wordpool_EN.txt	CHIEF	5	1	[0, 0, 0]	n/a	FR1	1	R1173J
277.952	0.933	284535	WORD_OFF	n/a	n/a	CHIEF	5	1	[0, 0, 0]	n/a	FR1	1	R1173J
278.885	1.616	285468	WORD	n/a	wordpools/wordpool_EN.txt	FOG	6	1	[0, 0, 0]	n/a	FR1	1	R1173J
280.501	0.85	287084	WORD_OFF	n/a	n/a	FOG	6	1	[0, 0, 0]	n/a	FR1	1	R1173J
281.351	1.618	287934	WORD	n/a	wordpools/wordpool_EN.txt	FLEA	7	1	[0, 0, 0]	n/a	FR1	1	R1173J
282.969	0.85	289552	WORD_OFF	n/a	n/a	FLEA	7	1	[0, 0, 0]	n/a	FR1	1	R1173J
283.819	1.616	290402	WORD	n/a	wordpools/wordpool_EN.txt	DRUM	8	1	[0, 0, 0]	n/a	FR1	1	R1173J
285.435	0.818	292018	WORD_OFF	n/a	n/a	DRUM	8	1	[0, 0, 0]	n/a	FR1	1	R1173J
286.253	1.617	292836	WORD	n/a	wordpools/wordpool_EN.txt	WEED	9	1	[0, 0, 0]	n/a	FR1	1	R1173J
287.87	0.9	294453	WORD_OFF	n/a	n/a	WEED	9	1	[0, 0, 0]	n/a	FR1	1	R1173J
288.77	1.616	295353	WORD	n/a	wordpools/wordpool_EN.txt	GLASS	10	1	[0, 0, 0]	n/a	FR1	1	R1173J
290.386	0.934	296969	WORD_OFF	n/a	n/a	GLASS	10	1	[0, 0, 0]	n/a	FR1	1	R1173J
291.32	1.617	297903	WORD	n/a	wordpools/wordpool_EN.txt	COIN	11	1	[0, 0, 0]	n/a	FR1	1	R1173J
292.937	0.783	299520	WORD_OFF	n/a	n/a	COIN	11	1	[0, 0, 0]	n/a	FR1	1	R1173J
293.72	1.617	300303	WORD	n/a	wordpools/wordpool_EN.txt	VAN	12	1	[0, 0, 0]	n/a	FR1	1	R1173J
295.337	0.0	301920	WORD_OFF	n/a	n/a	VAN	12	1	[0, 0, 0]	n/a	FR1	1	R1173J
295.337	0.001	301920	DISTRACT_START	n/a	n/a	n/a	-999	1	[0, 0, 0]	n/a	FR1	1	R1173J
295.338	0.015	301921	START	n/a	n/a	n/a	-999	1	[-999, -999, -999]	n/a	FR1	1	R1173J
295.353	4.1	301936	PROB	4.1	n/a	n/a	-999	1	[1, 1, 6]	8	FR1	1	R1173J
299.453	4.185	306036	PROB	4.185	n/a	n/a	-999	1	[5, 9, 3]	17	FR1	1	R1173J
303.638	7.784	310221	PROB	7.784	n/a	n/a	-999	1	[5, 3, 3]	11	FR1	1	R1173J
311.422	3.501	318005	PROB	3.501	n/a	n/a	-999	1	[1, 3, 2]	6	FR1	1	R1173J
314.923	4.7	321506	PROB	4.7	n/a	n/a	-999	1	[1, 4, 1]	6	FR1	1	R1173J
319.623	0.017	326206	STOP	n/a	n/a	n/a	-999	1	[-999, -999, -999]	n/a	FR1	1	R1173J
319.64	0.634	326223	DISTRACT_END	n/a	n/a	n/a	-999	1	[0, 0, 0]	n/a	FR1	1	R1173J
320.274	0.518	326857	RETRIEVAL_ORIENT	n/a	n/a	n/a	-999	1	[0, 0, 0]	n/a	FR1	1	R1173J
320.792	1.249	327375	REC_START	n/a	n/a	n/a	-999	1	[0, 0, 0]	n/a	FR1	1	R1173J
322.041	0.807	328624	REC_WORD	0.807	n/a	FLEA	-999	1	[0, 0, 0]	n/a	FR1	1	R1173J
322.848	3.479	329431	REC_WORD	3.479	n/a	FOG	-999	1	[0, 0, 0]	n/a	FR1	1	R1173J
326.327	1.329	332910	REC_WORD	1.329	n/a	DRUM	-999	1	[0, 0, 0]	n/a	FR1	1	R1173J
327.656	3.176	334239	REC_WORD	3.176	n/a	BOY	-999	1	[0, 0, 0]	n/a	FR1	1	R1173J
330.832	10.278	337415	REC_WORD	10.278	n/a	CASH	-999	1	[0, 0, 0]	n/a	FR1	1	R1173J
341.11	1.068	347693	REC_WORD_VV	1.068	n/a	<>	-999	1	[0, 0, 0]	n/a	FR1	1	R1173J
342.178	8.626	348761	REC_WORD_VV	8.626	n/a	<>	-999	1	[0, 0, 0]	n/a	FR1	1	R1173J
350.804	6.024	357387	REC_END	n/a	n/a	n/a	-999	1	[0, 0, 0]	n/a	FR1	1	R1173J
356.828	0.5	363411	TRIAL	n/a	n/a	n/a	-999	2	[0, 0, 0]	n/a	FR1	1	R1173J
357.328	10.428	363911	COUNTDOWN_START	n/a	n/a	n/a	-999	2	[0, 0, 0]	n/a	FR1	1	R1173J
367.756	0.007	374339	COUNTDOWN_END	n/a	n/a	n/a	-999	2	[0, 0, 0]	n/a	FR1	1	R1173J
367.763	1.616	374346	ORIENT	n/a	n/a	n/a	-999	2	[0, 0, 0]	n/a	FR1	1	R1173J
369.379	2.067	375961	ORIENT_OFF	n/a	n/a	n/a	-999	2	[0, 0, 0]	n/a	FR1	1	R1173J
371.446	1.618	378028	WORD	n/a	wordpools/wordpool_EN.txt	FORT	1	2	[0, 0, 0]	n/a	FR1	1	R1173J
373.064	0.95	379646	WORD_OFF	n/a	n/a	FORT	1	2	[0, 0, 0]	n/a	FR1	1	R1173J
374.014	1.617	380596	WORD	n/a	wordpools/wordpool_EN.txt	GOLD	2	2	[0, 0, 0]	n/a	FR1	1	R1173J
375.631	0.966	382213	WORD_OFF	n/a	n/a	GOLD	2	2	[0, 0, 0]	n/a	FR1	1	R1173J
376.597	1.617	383179	WORD	n/a	wordpools/wordpool_EN.txt	TRASH	3	2	[0, 0, 0]	n/a	FR1	1	R1173J
378.214	0.984	384796	WORD_OFF	n/a	n/a	TRASH	3	2	[0, 0, 0]	n/a	FR1	1	R1173J
379.198	1.617	385780	WORD	n/a	wordpools/wordpool_EN.txt	MOUSE	4	2	[0, 0, 0]	n/a	FR1	1	R1173J
380.815	0.833	387397	WORD_OFF	n/a	n/a	MOUSE	4	2	[0, 0, 0]	n/a	FR1	1	R1173J
381.648	1.617	388230	WORD	n/a	wordpools/wordpool_EN.txt	MOON	5	2	[0, 0, 0]	n/a	FR1	1	R1173J
383.265	0.767	389847	WORD_OFF	n/a	n/a	MOON	5	2	[0, 0, 0]	n/a	FR1	1	R1173J
384.032	1.617	390614	WORD	n/a	wordpools/wordpool_EN.txt	TRAIN	6	2	[0, 0, 0]	n/a	FR1	1	R1173J
385.649	0.882	392231	WORD_OFF	n/a	n/a	TRAIN	6	2	[0, 0, 0]	n/a	FR1	1	R1173J
386.531	1.618	393113	WORD	n/a	wordpools/wordpool_EN.txt	SHEEP	7	2	[0, 0, 0]	n/a	FR1	1	R1173J
388.149	0.934	394731	WORD_OFF	n/a	n/a	SHEEP	7	2	[0, 0, 0]	n/a	FR1	1	R1173J
389.083	1.616	395665	WORD	n/a	wordpools/wordpool_EN.txt	WAVE	8	2	[0, 0, 0]	n/a	FR1	1	R1173J
390.699	0.934	397281	WORD_OFF	n/a	n/a	WAVE	8	2	[0, 0, 0]	n/a	FR1	1	R1173J
391.633	1.617	398215	WORD	n/a	wordpools/wordpool_EN.txt	BOMB	9	2	[0, 0, 0]	n/a	FR1	1	R1173J
393.25	0.783	399832	WORD_OFF	n/a	n/a	BOMB	9	2	[0, 0, 0]	n/a	FR1	1	R1173J
394.033	1.617	400615	WORD	n/a	wordpools/wordpool_EN.txt	APE	10	2	[0, 0, 0]	n/a	FR1	1	R1173J
395.65	0.933	402232	WORD_OFF	n/a	n/a	APE	10	2	[0, 0, 0]	n/a	FR1	1	R1173J
396.583	1.617	403165	WORD	n/a	wordpools/wordpool_EN.txt	BANK	11	2	[0, 0, 0]	n/a	FR1	1	R1173J
398.2	0.867	404782	WORD_OFF	n/a	n/a	BANK	11	2	[0, 0, 0]	n/a	FR1	1	R1173J
399.067	1.617	405649	WORD	n/a	wordpools/wordpool_EN.txt	BOOK	12	2	[0, 0, 0]	n/a	FR1	1	R1173J
400.684	0.0	407266	DISTRACT_START	n/a	n/a	n/a	-999	2	[0, 0, 0]	n/a	FR1	1	R1173J
400.684	0.001	407266	WORD_OFF	n/a	n/a	BOOK	12	2	[0, 0, 0]	n/a	FR1	1	R1173J
400.685	0.016	407267	START	n/a	n/a	n/a	-999	2	[-999, -999, -999]	n/a	FR1	1	R1173J
400.701	7.101	407283	PROB	7.101	n/a	n/a	-999	2	[9, 4, 5]	18	FR1	1	R1173J
407.802	5.45	414384	PROB	5.45	n/a	n/a	-999	2	[9, 6, 9]	24	FR1	1	R1173J
413.252	4.116	419834	PROB	4.116	n/a	n/a	-999	2	[5, 7, 7]	19	FR1	1	R1173J
417.368	2.984	423950	PROB	2.984	n/a	n/a	-999	2	[8, 1, 3]	12	FR1	1	R1173J
420.352	2.954	426934	PROB	2.954	n/a	n/a	-999	2	[6, 6, 1]	13	FR1	1	R1173J
423.306	0.014	429888	STOP	n/a	n/a	n/a	-999	2	[-999, -999, -999]	n/a	FR1	1	R1173J
423.32	0.55	429902	DISTRACT_END	n/a	n/a	n/a	-999	2	[0, 0, 0]	n/a	FR1	1	R1173J
423.87	0.517	430452	RETRIEVAL_ORIENT	n/a	n/a	n/a	-999	2	[0, 0, 0]	n/a	FR1	1	R1173J
424.387	1.879	430969	REC_START	n/a	n/a	n/a	-999	2	[0, 0, 0]	n/a	FR1	1	R1173J
426.266	2.345	432848	REC_WORD	2.345	n/a	BOMB	-999	2	[0, 0, 0]	n/a	FR1	1	R1173J
428.611	1.667	435193	REC_WORD	1.667	n/a	WAVE	-999	2	[0, 0, 0]	n/a	FR1	1	R1173J
430.278	1.885	436860	REC_WORD	1.885	n/a	TRAIN	-999	2	[0, 0, 0]	n/a	FR1	1	R1173J
432.163	7.432	438745	REC_WORD	7.432	n/a	MOUSE	-999	2	[0, 0, 0]	n/a	FR1	1	R1173J
439.595	1.7	446177	REC_WORD	1.7	n/a	FORT	-999	2	[0, 0, 0]	n/a	FR1	1	R1173J
441.295	9.989	447877	REC_WORD	9.989	n/a	GOLD	-999	2	[0, 0, 0]	n/a	FR1	1	R1173J
451.284	3.115	457866	REC_WORD_VV	3.115	n/a	<>	-999	2	[0, 0, 0]	n/a	FR1	1	R1173J
454.399	5.743	460981	REC_END	n/a	n/a	n/a	-999	2	[0, 0, 0]	n/a	FR1	1	R1173J
460.142	0.5	466724	TRIAL	n/a	n/a	n/a	-999	3	[0, 0, 0]	n/a	FR1	1	R1173J
460.642	10.428	467224	COUNTDOWN_START	n/a	n/a	n/a	-999	3	[0, 0, 0]	n/a	FR1	1	R1173J
471.07	0.006	477652	COUNTDOWN_END	n/a	n/a	n/a	-999	3	[0, 0, 0]	n/a	FR1	1	R1173J
471.076	1.617	477658	ORIENT	n/a	n/a	n/a	-999	3	[0, 0, 0]	n/a	FR1	1	R1173J
472.693	1.866	479275	ORIENT_OFF	n/a	n/a	n/a	-999	3	[0, 0, 0]	n/a	FR1	1	R1173J
474.559	1.601	481141	WORD	n/a	wordpools/wordpool_EN.txt	SNOW	1	3	[0, 0, 0]	n/a	FR1	1	R1173J
476.16	0.867	482742	WORD_OFF	n/a	n/a	SNOW	1	3	[0, 0, 0]	n/a	FR1	1	R1173J
477.027	1.617	483609	WORD	n/a	wordpools/wordpool_EN.txt	FISH	2	3	[0, 0, 0]	n/a	FR1	1	R1173J
478.644	0.882	485226	WORD_OFF	n/a	n/a	FISH	2	3	[0, 0, 0]	n/a	FR1	1	R1173J
479.526	1.618	486108	WORD	n/a	wordpools/wordpool_EN.txt	SALT	3	3	[0, 0, 0]	n/a	FR1	1	R1173J
481.144	0.95	487726	WORD_OFF	n/a	n/a	SALT	3	3	[0, 0, 0]	n/a	FR1	1	R1173J
482.094	1.617	488676	WORD	n/a	wordpools/wordpool_EN.txt	POND	4	3	[0, 0, 0]	n/a	FR1	1	R1173J
483.711	1.0	490293	WORD_OFF	n/a	n/a	POND	4	3	[0, 0, 0]	n/a	FR1	1	R1173J
484.711	1.617	491293	WORD	n/a	wordpools/wordpool_EN.txt	TREE	5	3	[0, 0, 0]	n/a	FR1	1	R1173J
486.328	0.95	492910	WORD_OFF	n/a	n/a	TREE	5	3	[0, 0, 0]	n/a	FR1	1	R1173J
487.278	1.617	493860	WORD	n/a	wordpools/wordpool_EN.txt	BEACH	6	3	[0, 0, 0]	n/a	FR1	1	R1173J
488.895	0.884	495477	WORD_OFF	n/a	n/a	BEACH	6	3	[0, 0, 0]	n/a	FR1	1	R1173J
489.779	1.616	496361	WORD	n/a	wordpools/wordpool_EN.txt	SHRIMP	7	3	[0, 0, 0]	n/a	FR1	1	R1173J
491.395	0.867	497977	WORD_OFF	n/a	n/a	SHRIMP	7	3	[0, 0, 0]	n/a	FR1	1	R1173J
492.262	1.617	498844	WORD	n/a	wordpools/wordpool_EN.txt	SHELL	8	3	[0, 0, 0]	n/a	FR1	1	R1173J
493.879	0.784	500460	WORD_OFF	n/a	n/a	SHELL	8	3	[0, 0, 0]	n/a	FR1	1	R1173J
494.663	1.616	501244	WORD	n/a	wordpools/wordpool_EN.txt	SNAIL	9	3	[0, 0, 0]	n/a	FR1	1	R1173J
496.279	0.884	502860	WORD_OFF	n/a	n/a	SNAIL	9	3	[0, 0, 0]	n/a	FR1	1	R1173J
497.163	1.617	503744	WORD	n/a	wordpools/wordpool_EN.txt	BLOOM	10	3	[0, 0, 0]	n/a	FR1	1	R1173J
498.78	0.782	505361	WORD_OFF	n/a	n/a	BLOOM	10	3	[0, 0, 0]	n/a	FR1	1	R1173J
499.562	1.618	506143	WORD	n/a	wordpools/wordpool_EN.txt	WAND	11	3	[0, 0, 0]	n/a	FR1	1	R1173J
501.18	0.967	507761	WORD_OFF	n/a	n/a	WAND	11	3	[0, 0, 0]	n/a	FR1	1	R1173J
502.147	1.617	508728	WORD	n/a	wordpools/wordpool_EN.txt	POLE	12	3	[0, 0, 0]	n/a	FR1	1	R1173J
503.764	0.0	510345	WORD_OFF	n/a	n/a	POLE	12	3	[0, 0, 0]	n/a	FR1	1	R1173J
503.764	0.0	510345	DISTRACT_START	n/a	n/a	n/a	-999	3	[0, 0, 0]	n/a	FR1	1	R1173J
503.764	0.016	510345	START	n/a	n/a	n/a	-999	3	[-999, -999, -999]	n/a	FR1	1	R1173J
503.78	3.051	510361	PROB	3.051	n/a	n/a	-999	3	[3, 5, 2]	10	FR1	1	R1173J
506.831	4.533	513412	PROB	4.533	n/a	n/a	-999	3	[3, 6, 9]	18	FR1	1	R1173J
511.364	3.885	517945	PROB	3.885	n/a	n/a	-999	3	[3, 9, 5]	17	FR1	1	R1173J
515.249	5.133	521830	PROB	5.133	n/a	n/a	-999	3	[6, 9, 4]	19	FR1	1	R1173J
520.382	4.999	526963	PROB	4.999	n/a	n/a	-999	3	[6, 3, 2]	11	FR1	1	R1173J
525.381	0.018	531962	STOP	n/a	n/a	n/a	-999	3	[-999, -999, -999]	n/a	FR1	1	R1173J
525.399	0.701	531980	DISTRACT_END	n/a	n/a	n/a	-999	3	[0, 0, 0]	n/a	FR1	1	R1173J
526.1	0.517	532681	RETRIEVAL_ORIENT	n/a	n/a	n/a	-999	3	[0, 0, 0]	n/a	FR1	1	R1173J
526.617	1.942	533198	REC_START	n/a	n/a	n/a	-999	3	[0, 0, 0]	n/a	FR1	1	R1173J
528.559	3.441	535140	REC_WORD_VV	3.441	n/a	<>	-999	3	[0, 0, 0]	n/a	FR1	1	R1173J
532.0	0.804	538581	REC_WORD	0.804	n/a	BEACH	-999	3	[0, 0, 0]	n/a	FR1	1	R1173J
532.804	1.853	539385	REC_WORD	1.853	n/a	SHRIMP	-999	3	[0, 0, 0]	n/a	FR1	1	R1173J
534.657	2.67	541238	REC_WORD	2.67	n/a	SALT	-999	3	[0, 0, 0]	n/a	FR1	1	R1173J
537.327	3.456	543908	REC_WORD	3.456	n/a	FISH	-999	3	[0, 0, 0]	n/a	FR1	1	R1173J
540.783	1.178	547364	REC_WORD	1.178	n/a	WAND	-999	3	[0, 0, 0]	n/a	FR1	1	R1173J
541.961	2.067	548542	REC_WORD	2.067	n/a	BLOOM	-999	3	[0, 0, 0]	n/a	FR1	1	R1173J
544.028	1.349	550609	REC_WORD	1.349	n/a	POND	-999	3	[0, 0, 0]	n/a	FR1	1	R1173J
545.377	8.821	551958	REC_WORD	8.821	n/a	TREE	-999	3	[0, 0, 0]	n/a	FR1	1	R1173J
554.198	2.433	560779	REC_WORD	2.433	n/a	MOON	-999	3	[0, 0, 0]	n/a	FR1	1	R1173J
556.631	8.624	563212	REC_END	n/a	n/a	n/a	-999	3	[0, 0, 0]	n/a	FR1	1	R1173J
565.255	0.5	571836	TRIAL	n/a	n/a	n/a	-999	4	[0, 0, 0]	n/a	FR1	1	R1173J
565.755	10.428	572336	COUNTDOWN_START	n/a	n/a	n/a	-999	4	[0, 0, 0]	n/a	FR1	1	R1173J
576.183	0.007	582764	COUNTDOWN_END	n/a	n/a	n/a	-999	4	[0, 0, 0]	n/a	FR1	1	R1173J
576.19	1.617	582771	ORIENT	n/a	n/a	n/a	-999	4	[0, 0, 0]	n/a	FR1	1	R1173J
577.807	2.183	584388	ORIENT_OFF	n/a	n/a	n/a	-999	4	[0, 0, 0]	n/a	FR1	1	R1173J
579.99	1.616	586571	WORD	n/a	wordpools/wordpool_EN.txt	BATH	1	4	[0, 0, 0]	n/a	FR1	1	R1173J
581.606	0.9	588187	WORD_OFF	n/a	n/a	BATH	1	4	[0, 0, 0]	n/a	FR1	1	R1173J
582.506	1.618	589087	WORD	n/a	wordpools/wordpool_EN.txt	SHIRT	2	4	[0, 0, 0]	n/a	FR1	1	R1173J
584.124	0.983	590705	WORD_OFF	n/a	n/a	SHIRT	2	4	[0, 0, 0]	n/a	FR1	1	R1173J
585.107	1.617	591688	WORD	n/a	wordpools/wordpool_EN.txt	CROWN	3	4	[0, 0, 0]	n/a	FR1	1	R1173J
586.724	0.766	593305	WORD_OFF	n/a	n/a	CROWN	3	4	[0, 0, 0]	n/a	FR1	1	R1173J
587.49	1.601	594071	WORD	n/a	wordpools/wordpool_EN.txt	CART	4	4	[0, 0, 0]	n/a	FR1	1	R1173J
589.091	1.017	595672	WORD_OFF	n/a	n/a	CART	4	4	[0, 0, 0]	n/a	FR1	1	R1173J
590.108	1.617	596689	WORD	n/a	wordpools/wordpool_EN.txt	VEST	5	4	[0, 0, 0]	n/a	FR1	1	R1173J
591.725	0.782	598306	WORD_OFF	n/a	n/a	VEST	5	4	[0, 0, 0]	n/a	FR1	1	R1173J
592.507	1.618	599088	WORD	n/a	wordpools/wordpool_EN.txt	HAND	6	4	[0, 0, 0]	n/a	FR1	1	R1173J
594.125	0.9	600706	WORD_OFF	n/a	n/a	HAND	6	4	[0, 0, 0]	n/a	FR1	1	R1173J
595.025	1.617	601606	WORD	n/a	wordpools/wordpool_EN.txt	BLUSH	7	4	[0, 0, 0]	n/a	FR1	1	R1173J
596.642	1.0	603223	WORD_OFF	n/a	n/a	BLUSH	7	4	[0, 0, 0]	n/a	FR1	1	R1173J
597.642	1.617	604223	WORD	n/a	wordpools/wordpool_EN.txt	LAMP	8	4	[0, 0, 0]	n/a	FR1	1	R1173J
599.259	0.834	605840	WORD_OFF	n/a	n/a	LAMP	8	4	[0, 0, 0]	n/a	FR1	1	R1173J
600.093	1.617	606674	WORD	n/a	wordpools/wordpool_EN.txt	BADGE	9	4	[0, 0, 0]	n/a	FR1	1	R1173J
601.71	0.799	608291	WORD_OFF	n/a	n/a	BADGE	9	4	[0, 0, 0]	n/a	FR1	1	R1173J
602.509	1.618	609090	WORD	n/a	wordpools/wordpool_EN.txt	CHEEK	10	4	[0, 0, 0]	n/a	FR1	1	R1173J
604.127	0.95	610708	WORD_OFF	n/a	n/a	CHEEK	10	4	[0, 0, 0]	n/a	FR1	1	R1173J
605.077	1.617	611658	WORD	n/a	wordpools/wordpool_EN.txt	PEARL	11	4	[0, 0, 0]	n/a	FR1	1	R1173J
606.694	0.95	613275	WORD_OFF	n/a	n/a	PEARL	11	4	[0, 0, 0]	n/a	FR1	1	R1173J
607.644	1.617	614225	WORD	n/a	wordpools/wordpool_EN.txt	SHIELD	12	4	[0, 0, 0]	n/a	FR1	1	R1173J
609.261	0.0	615842	WORD_OFF	n/a	n/a	SHIELD	12	4	[0, 0, 0]	n/a	FR1	1	R1173J
609.261	0.0	615842	DISTRACT_START	n/a	n/a	n/a	-999	4	[0, 0, 0]	n/a	FR1	1	R1173J
609.261	0.016	615842	START	n/a	n/a	n/a	-999	4	[-999, -999, -999]	n/a	FR1	1	R1173J
609.277	3.316	615858	PROB	3.316	n/a	n/a	-999	4	[8, 8, 2]	18	FR1	1	R1173J
612.593	3.801	619174	PROB	3.801	n/a	n/a	-999	4	[7, 4, 2]	13	FR1	1	R1173J
616.394	4.935	622975	PROB	4.935	n/a	n/a	-999	4	[4, 8, 6]	18	FR1	1	R1173J
621.329	5.199	627909	PROB	5.199	n/a	n/a	-999	4	[5, 4, 7]	15	FR1	1	R1173J
626.528	3.065	633108	PROB	3.065	n/a	n/a	-999	4	[1, 9, 5]	15	FR1	1	R1173J
629.593	0.019	636173	STOP	n/a	n/a	n/a	-999	4	[-999, -999, -999]	n/a	FR1	1	R1173J
629.612	0.685	636192	DISTRACT_END	n/a	n/a	n/a	-999	4	[0, 0, 0]	n/a	FR1	1	R1173J
630.297	0.517	636877	RETRIEVAL_ORIENT	n/a	n/a	n/a	-999	4	[0, 0, 0]	n/a	FR1	1	R1173J
630.814	0.894	637394	REC_START	n/a	n/a	n/a	-999	4	[0, 0, 0]	n/a	FR1	1	R1173J
631.708	1.171	638288	REC_WORD	1.171	n/a	SHIRT	-999	4	[0, 0, 0]	n/a	FR1	1	R1173J
632.879	7.182	639459	REC_WORD	7.182	n/a	CART	-999	4	[0, 0, 0]	n/a	FR1	1	R1173J
640.061	1.991	646641	REC_WORD	1.991	n/a	LAMP	-999	4	[0, 0, 0]	n/a	FR1	1	R1173J
642.052	0.406	648632	REC_WORD_VV	0.406	n/a	<>	-999	4	[0, 0, 0]	n/a	FR1	1	R1173J
642.458	1.145	649038	REC_WORD	1.145	n/a	HAND	-999	4	[0, 0, 0]	n/a	FR1	1	R1173J
643.603	3.454	650183	REC_WORD	3.454	n/a	BLUSH	-999	4	[0, 0, 0]	n/a	FR1	1	R1173J
647.057	13.77	653637	REC_WORD	13.77	n/a	BATH	-999	4	[0, 0, 0]	n/a	FR1	1	R1173J
660.827	7.674	667407	REC_END	n/a	n/a	n/a	-999	4	[0, 0, 0]	n/a	FR1	1	R1173J
668.501	0.5	675081	TRIAL	n/a	n/a	n/a	-999	5	[0, 0, 0]	n/a	FR1	1	R1173J
669.001	10.428	675581	COUNTDOWN_START	n/a	n/a	n/a	-999	5	[0, 0, 0]	n/a	FR1	1	R1173J
679.429	0.006	686009	COUNTDOWN_END	n/a	n/a	n/a	-999	5	[0, 0, 0]	n/a	FR1	1	R1173J
679.435	1.618	686015	ORIENT	n/a	n/a	n/a	-999	5	[0, 0, 0]	n/a	FR1	1	R1173J
681.053	1.967	687633	ORIENT_OFF	n/a	n/a	n/a	-999	5	[0, 0, 0]	n/a	FR1	1	R1173J
683.02	1.617	689600	WORD	n/a	wordpools/wordpool_EN.txt	GLOVE	1	5	[0, 0, 0]	n/a	FR1	1	R1173J
684.637	0.983	691217	WORD_OFF	n/a	n/a	GLOVE	1	5	[0, 0, 0]	n/a	FR1	1	R1173J
685.62	1.617	692200	WORD	n/a	wordpools/wordpool_EN.txt	WEB	2	5	[0, 0, 0]	n/a	FR1	1	R1173J
687.237	0.934	693817	WORD_OFF	n/a	n/a	WEB	2	5	[0, 0, 0]	n/a	FR1	1	R1173J
688.171	1.617	694751	WORD	n/a	wordpools/wordpool_EN.txt	PET	3	5	[0, 0, 0]	n/a	FR1	1	R1173J
689.788	0.966	696368	WORD_OFF	n/a	n/a	PET	3	5	[0, 0, 0]	n/a	FR1	1	R1173J
690.754	1.616	697334	WORD	n/a	wordpools/wordpool_EN.txt	HEN	4	5	[0, 0, 0]	n/a	FR1	1	R1173J
692.37	0.934	698950	WORD_OFF	n/a	n/a	HEN	4	5	[0, 0, 0]	n/a	FR1	1	R1173J
693.304	1.617	699884	WORD	n/a	wordpools/wordpool_EN.txt	ROAD	5	5	[0, 0, 0]	n/a	FR1	1	R1173J
694.921	0.884	701501	WORD_OFF	n/a	n/a	ROAD	5	5	[0, 0, 0]	n/a	FR1	1	R1173J
695.805	1.616	702385	WORD	n/a	wordpools/wordpool_EN.txt	DOG	6	5	[0, 0, 0]	n/a	FR1	1	R1173J
697.421	0.983	704001	WORD_OFF	n/a	n/a	DOG	6	5	[0, 0, 0]	n/a	FR1	1	R1173J
698.404	1.602	704984	WORD	n/a	wordpools/wordpool_EN.txt	MULE	7	5	[0, 0, 0]	n/a	FR1	1	R1173J
700.006	0.9	706586	WORD_OFF	n/a	n/a	MULE	7	5	[0, 0, 0]	n/a	FR1	1	R1173J
700.906	1.615	707486	WORD	n/a	wordpools/wordpool_EN.txt	CAT	8	5	[0, 0, 0]	n/a	FR1	1	R1173J
702.521	0.818	709101	WORD_OFF	n/a	n/a	CAT	8	5	[0, 0, 0]	n/a	FR1	1	R1173J
703.339	1.617	709919	WORD	n/a	wordpools/wordpool_EN.txt	OAR	9	5	[0, 0, 0]	n/a	FR1	1	R1173J
704.956	0.9	711536	WORD_OFF	n/a	n/a	OAR	9	5	[0, 0, 0]	n/a	FR1	1	R1173J
705.856	1.616	712436	WORD	n/a	wordpools/wordpool_EN.txt	FACE	10	5	[0, 0, 0]	n/a	FR1	1	R1173J
707.472	0.95	714052	WORD_OFF	n/a	n/a	FACE	10	5	[0, 0, 0]	n/a	FR1	1	R1173J
708.422	1.601	715002	WORD	n/a	wordpools/wordpool_EN.txt	BIRD	11	5	[0, 0, 0]	n/a	FR1	1	R1173J
710.023	0.767	716603	WORD_OFF	n/a	n/a	BIRD	11	5	[0, 0, 0]	n/a	FR1	1	R1173J
710.79	1.616	717370	WORD	n/a	wordpools/wordpool_EN.txt	BAT	12	5	[0, 0, 0]	n/a	FR1	1	R1173J
712.406	0.0	718986	DISTRACT_START	n/a	n/a	n/a	-999	5	[0, 0, 0]	n/a	FR1	1	R1173J
712.406	0.001	718986	WORD_OFF	n/a	n/a	BAT	12	5	[0, 0, 0]	n/a	FR1	1	R1173J
712.407	0.016	718987	START	n/a	n/a	n/a	-999	5	[-999, -999, -999]	n/a	FR1	1	R1173J
712.423	5.017	719003	PROB	5.017	n/a	n/a	-999	5	[6, 7, 3]	16	FR1	1	R1173J
717.44	5.635	724020	PROB	5.635	n/a	n/a	-999	5	[7, 6, 6]	19	FR1	1	R1173J
723.075	2.117	729655	PROB	2.117	n/a	n/a	-999	5	[6, 4, 2]	12	FR1	1	R1173J
725.192	3.701	731772	PROB	3.701	n/a	n/a	-999	5	[7, 3, 7]	17	FR1	1	R1173J
728.893	4.359	735473	PROB	4.359	n/a	n/a	-999	5	[6, 8, 3]	17	FR1	1	R1173J
733.252	0.007	739832	STOP	n/a	n/a	n/a	-999	5	[-999, -999, -999]	n/a	FR1	1	R1173J
733.259	0.617	739839	DISTRACT_END	n/a	n/a	n/a	-999	5	[0, 0, 0]	n/a	FR1	1	R1173J
733.876	0.517	740456	RETRIEVAL_ORIENT	n/a	n/a	n/a	-999	5	[0, 0, 0]	n/a	FR1	1	R1173J
734.393	0.916	740973	REC_START	n/a	n/a	n/a	-999	5	[0, 0, 0]	n/a	FR1	1	R1173J
735.309	2.883	741889	REC_WORD	2.883	n/a	ROAD	-999	5	[0, 0, 0]	n/a	FR1	1	R1173J
738.192	0.949	744772	REC_WORD	0.949	n/a	DOG	-999	5	[0, 0, 0]	n/a	FR1	1	R1173J
739.141	1.523	745721	REC_WORD	1.523	n/a	CAT	-999	5	[0, 0, 0]	n/a	FR1	1	R1173J
740.664	0.524	747244	REC_WORD_VV	0.524	n/a	<>	-999	5	[0, 0, 0]	n/a	FR1	1	R1173J
741.188	6.363	747768	REC_WORD	6.363	n/a	OAR	-999	5	[0, 0, 0]	n/a	FR1	1	R1173J
747.551	2.003	754130	REC_WORD	2.003	n/a	BIRD	-999	5	[0, 0, 0]	n/a	FR1	1	R1173J
749.554	4.427	756133	REC_WORD	4.427	n/a	PET	-999	5	[0, 0, 0]	n/a	FR1	1	R1173J
753.981	7.571	760560	REC_WORD	7.571	n/a	MULE	-999	5	[0, 0, 0]	n/a	FR1	1	R1173J
761.552	2.853	768131	REC_WORD	2.853	n/a	WEB	-999	5	[0, 0, 0]	n/a	FR1	1	R1173J
764.405	6.51	770984	REC_END	n/a	n/a	n/a	-999	5	[0, 0, 0]	n/a	FR1	1	R1173J
770.915	0.5	777494	TRIAL	n/a	n/a	n/a	-999	6	[0, 0, 0]	n/a	FR1	1	R1173J
771.415	10.428	777994	COUNTDOWN_START	n/a	n/a	n/a	-999	6	[0, 0, 0]	n/a	FR1	1	R1173J
781.843	0.006	788422	COUNTDOWN_END	n/a	n/a	n/a	-999	6	[0, 0, 0]	n/a	FR1	1	R1173J
781.849	1.616	788428	ORIENT	n/a	n/a	n/a	-999	6	[0, 0, 0]	n/a	FR1	1	R1173J
783.465	1.967	790044	ORIENT_OFF	n/a	n/a	n/a	-999	6	[0, 0, 0]	n/a	FR1	1	R1173J
785.432	1.618	792011	WORD	n/a	wordpools/wordpool_EN.txt	LOCK	1	6	[0, 0, 0]	n/a	FR1	1	R1173J
787.05	0.9	793629	WORD_OFF	n/a	n/a	LOCK	1	6	[0, 0, 0]	n/a	FR1	1	R1173J
787.95	1.616	794529	WORD	n/a	wordpools/wordpool_EN.txt	PARK	2	6	[0, 0, 0]	n/a	FR1	1	R1173J
789.566	0.817	796145	WORD_OFF	n/a	n/a	PARK	2	6	[0, 0, 0]	n/a	FR1	1	R1173J
790.383	1.617	796962	WORD	n/a	wordpools/wordpool_EN.txt	HORN	3	6	[0, 0, 0]	n/a	FR1	1	R1173J
792.0	0.867	798579	WORD_OFF	n/a	n/a	HORN	3	6	[0, 0, 0]	n/a	FR1	1	R1173J
792.867	1.616	799446	WORD	n/a	wordpools/wordpool_EN.txt	AXE	4	6	[0, 0, 0]	n/a	FR1	1	R1173J
794.483	0.768	801062	WORD_OFF	n/a	n/a	AXE	4	6	[0, 0, 0]	n/a	FR1	1	R1173J
795.251	1.617	801830	WORD	n/a	wordpools/wordpool_EN.txt	LAWN	5	6	[0, 0, 0]	n/a	FR1	1	R1173J
796.868	0.9	803447	WORD_OFF	n/a	n/a	LAWN	5	6	[0, 0, 0]	n/a	FR1	1	R1173J
797.768	1.616	804347	WORD	n/a	wordpools/wordpool_EN.txt	PEAR	6	6	[0, 0, 0]	n/a	FR1	1	R1173J
799.384	0.885	805963	WORD_OFF	n/a	n/a	PEAR	6	6	[0, 0, 0]	n/a	FR1	1	R1173J
800.269	1.616	806848	WORD	n/a	wordpools/wordpool_EN.txt	LIP	7	6	[0, 0, 0]	n/a	FR1	1	R1173J
801.885	0.833	808464	WORD_OFF	n/a	n/a	LIP	7	6	[0, 0, 0]	n/a	FR1	1	R1173J
802.718	1.617	809297	WORD	n/a	wordpools/wordpool_EN.txt	TOE	8	6	[0, 0, 0]	n/a	FR1	1	R1173J
804.335	0.834	810914	WORD_OFF	n/a	n/a	TOE	8	6	[0, 0, 0]	n/a	FR1	1	R1173J
805.169	1.617	811748	WORD	n/a	wordpools/wordpool_EN.txt	KEY	9	6	[0, 0, 0]	n/a	FR1	1	R1173J
806.786	0.917	813365	WORD_OFF	n/a	n/a	KEY	9	6	[0, 0, 0]	n/a	FR1	1	R1173J
807.703	1.617	814282	WORD	n/a	wordpools/wordpool_EN.txt	WHALE	10	6	[0, 0, 0]	n/a	FR1	1	R1173J
809.32	0.916	815899	WORD_OFF	n/a	n/a	WHALE	10	6	[0, 0, 0]	n/a	FR1	1	R1173J
810.236	1.617	816815	WORD	n/a	wordpools/wordpool_EN.txt	JUDGE	11	6	[0, 0, 0]	n/a	FR1	1	R1173J
811.853	0.767	818432	WORD_OFF	n/a	n/a	JUDGE	11	6	[0, 0, 0]	n/a	FR1	1	R1173J
812.62	1.617	819199	WORD	n/a	wordpools/wordpool_EN.txt	BRANCH	12	6	[0, 0, 0]	n/a	FR1	1	R1173J
814.237	0.0	820816	WORD_OFF	n/a	n/a	BRANCH	12	6	[0, 0, 0]	n/a	FR1	1	R1173J
814.237	0.001	820816	DISTRACT_START	n/a	n/a	n/a	-999	6	[0, 0, 0]	n/a	FR1	1	R1173J
814.238	0.015	820817	START	n/a	n/a	n/a	-999	6	[-999, -999, -999]	n/a	FR1	1	R1173J
814.253	2.834	820832	PROB	2.834	n/a	n/a	-999	6	[6, 4, 5]	15	FR1	1	R1173J
817.087	2.184	823666	PROB	2.184	n/a	n/a	-999	6	[3, 7, 1]	11	FR1	1	R1173J
819.271	7.451	825850	PROB	7.451	n/a	n/a	-999	6	[9, 2, 7]	18	FR1	1	R1173J
826.722	8.231	833301	PROB	8.231	n/a	n/a	-999	6	[5, 8, 7]	20	FR1	1	R1173J
834.953	0.02	841532	STOP	n/a	n/a	n/a	-999	6	[-999, -999, -999]	n/a	FR1	1	R1173J
834.973	0.65	841552	DISTRACT_END	n/a	n/a	n/a	-999	6	[0, 0, 0]	n/a	FR1	1	R1173J
835.623	0.517	842202	RETRIEVAL_ORIENT	n/a	n/a	n/a	-999	6	[0, 0, 0]	n/a	FR1	1	R1173J
836.14	0.392	842719	REC_START	n/a	n/a	n/a	-999	6	[0, 0, 0]	n/a	FR1	1	R1173J
836.532	6.186	843111	REC_WORD	6.186	n/a	BRANCH	-999	6	[0, 0, 0]	n/a	FR1	1	R1173J
842.718	1.129	849297	REC_WORD	1.129	n/a	PARK	-999	6	[0, 0, 0]	n/a	FR1	1	R1173J
843.847	11.584	850426	REC_WORD	11.584	n/a	ROAD	-999	6	[0, 0, 0]	n/a	FR1	1	R1173J
855.431	2.22	862010	REC_WORD	2.22	n/a	HORN	-999	6	[0, 0, 0]	n/a	FR1	1	R1173J
857.651	1.599	864230	REC_WORD	1.599	n/a	AXE	-999	6	[0, 0, 0]	n/a	FR1	1	R1173J
859.25	6.904	865829	REC_WORD	6.904	n/a	LAWN	-999	6	[0, 0, 0]	n/a	FR1	1	R1173J
866.154	6.339	872733	REC_END	n/a	n/a	n/a	-999	6	[0, 0, 0]	n/a	FR1	1	R1173J
872.493	0.5	879071	TRIAL	n/a	n/a	n/a	-999	7	[0, 0, 0]	n/a	FR1	1	R1173J
872.993	10.428	879571	COUNTDOWN_START	n/a	n/a	n/a	-999	7	[0, 0, 0]	n/a	FR1	1	R1173J
883.421	0.007	889999	COUNTDOWN_END	n/a	n/a	n/a	-999	7	[0, 0, 0]	n/a	FR1	1	R1173J
883.428	1.618	890006	ORIENT	n/a	n/a	n/a	-999	7	[0, 0, 0]	n/a	FR1	1	R1173J
885.046	2.217	891624	ORIENT_OFF	n/a	n/a	n/a	-999	7	[0, 0, 0]	n/a	FR1	1	R1173J
887.263	1.617	893841	WORD	n/a	wordpools/wordpool_EN.txt	SOAP	1	7	[0, 0, 0]	n/a	FR1	1	R1173J
888.88	0.817	895458	WORD_OFF	n/a	n/a	SOAP	1	7	[0, 0, 0]	n/a	FR1	1	R1173J
889.697	1.616	896275	WORD	n/a	wordpools/wordpool_EN.txt	BRICK	2	7	[0, 0, 0]	n/a	FR1	1	R1173J
891.313	0.95	897891	WORD_OFF	n/a	n/a	BRICK	2	7	[0, 0, 0]	n/a	FR1	1	R1173J
892.263	1.617	898841	WORD	n/a	wordpools/wordpool_EN.txt	FRUIT	3	7	[0, 0, 0]	n/a	FR1	1	R1173J
893.88	0.967	900458	WORD_OFF	n/a	n/a	FRUIT	3	7	[0, 0, 0]	n/a	FR1	1	R1173J
894.847	1.616	901425	WORD	n/a	wordpools/wordpool_EN.txt	RICE	4	7	[0, 0, 0]	n/a	FR1	1	R1173J
896.463	0.868	903041	WORD_OFF	n/a	n/a	RICE	4	7	[0, 0, 0]	n/a	FR1	1	R1173J
897.331	1.617	903909	WORD	n/a	wordpools/wordpool_EN.txt	ROCK	5	7	[0, 0, 0]	n/a	FR1	1	R1173J
898.948	0.967	905526	WORD_OFF	n/a	n/a	ROCK	5	7	[0, 0, 0]	n/a	FR1	1	R1173J
899.915	1.615	906493	WORD	n/a	wordpools/wordpool_EN.txt	CLOTH	6	7	[0, 0, 0]	n/a	FR1	1	R1173J
901.53	0.867	908108	WORD_OFF	n/a	n/a	CLOTH	6	7	[0, 0, 0]	n/a	FR1	1	R1173J
902.397	1.618	908975	WORD	n/a	wordpools/wordpool_EN.txt	SEED	7	7	[0, 0, 0]	n/a	FR1	1	R1173J
904.015	0.817	910593	WORD_OFF	n/a	n/a	SEED	7	7	[0, 0, 0]	n/a	FR1	1	R1173J
904.832	1.616	911410	WORD	n/a	wordpools/wordpool_EN.txt	WORLD	8	7	[0, 0, 0]	n/a	FR1	1	R1173J
906.448	0.933	913026	WORD_OFF	n/a	n/a	WORLD	8	7	[0, 0, 0]	n/a	FR1	1	R1173J
907.381	1.618	913959	WORD	n/a	wordpools/wordpool_EN.txt	WOOD	9	7	[0, 0, 0]	n/a	FR1	1	R1173J
908.999	0.767	915577	WORD_OFF	n/a	n/a	WOOD	9	7	[0, 0, 0]	n/a	FR1	1	R1173J
909.766	1.616	916344	WORD	n/a	wordpools/wordpool_EN.txt	TANK	10	7	[0, 0, 0]	n/a	FR1	1	R1173J
911.382	0.801	917960	WORD_OFF	n/a	n/a	TANK	10	7	[0, 0, 0]	n/a	FR1	1	R1173J
912.183	1.616	918761	WORD	n/a	wordpools/wordpool_EN.txt	HOSE	11	7	[0, 0, 0]	n/a	FR1	1	R1173J
913.799	0.85	920377	WORD_OFF	n/a	n/a	HOSE	11	7	[0, 0, 0]	n/a	FR1	1	R1173J
914.649	1.617	921227	WORD	n/a	wordpools/wordpool_EN.txt	CLAY	12	7	[0, 0, 0]	n/a	FR1	1	R1173J
916.266	0.0	922844	WORD_OFF	n/a	n/a	CLAY	12	7	[0, 0, 0]	n/a	FR1	1	R1173J
916.266	0.001	922844	DISTRACT_START	n/a	n/a	n/a	-999	7	[0, 0, 0]	n/a	FR1	1	R1173J
916.267	0.016	922845	START	n/a	n/a	n/a	-999	7	[-999, -999, -999]	n/a	FR1	1	R1173J
916.283	3.233	922861	PROB	3.233	n/a	n/a	-999	7	[9, 2, 5]	16	FR1	1	R1173J
919.516	6.618	926094	PROB	6.618	n/a	n/a	-999	7	[5, 7, 6]	18	FR1	1	R1173J
926.134	3.751	932712	PROB	3.751	n/a	n/a	-999	7	[7, 4, 4]	15	FR1	1	R1173J
929.885	3.183	936463	PROB	3.183	n/a	n/a	-999	7	[1, 2, 8]	11	FR1	1	R1173J
933.068	4.296	939646	PROB	4.296	n/a	n/a	-999	7	[4, 9, 4]	17	FR1	1	R1173J
937.364	0.021	943942	STOP	n/a	n/a	n/a	-999	7	[-999, -999, -999]	n/a	FR1	1	R1173J
937.385	0.584	943963	DISTRACT_END	n/a	n/a	n/a	-999	7	[0, 0, 0]	n/a	FR1	1	R1173J
937.969	0.517	944547	RETRIEVAL_ORIENT	n/a	n/a	n/a	-999	7	[0, 0, 0]	n/a	FR1	1	R1173J
938.486	0.978	945064	REC_START	n/a	n/a	n/a	-999	7	[0, 0, 0]	n/a	FR1	1	R1173J
939.464	8.599	946042	REC_WORD	8.599	n/a	SOAP	-999	7	[0, 0, 0]	n/a	FR1	1	R1173J
948.063	20.434	954641	REC_WORD_VV	20.434	n/a	<>	-999	7	[0, 0, 0]	n/a	FR1	1	R1173J
968.497	10.244	975075	REC_END	n/a	n/a	n/a	-999	7	[0, 0, 0]	n/a	FR1	1	R1173J
978.741	0.5	985319	TRIAL	n/a	n/a	n/a	-999	8	[0, 0, 0]	n/a	FR1	1	R1173J
979.241	10.428	985819	COUNTDOWN_START	n/a	n/a	n/a	-999	8	[0, 0, 0]	n/a	FR1	1	R1173J
989.669	0.007	996247	COUNTDOWN_END	n/a	n/a	n/a	-999	8	[0, 0, 0]	n/a	FR1	1	R1173J
989.676	1.617	996254	ORIENT	n/a	n/a	n/a	-999	8	[0, 0, 0]	n/a	FR1	1	R1173J
991.293	2.0	997871	ORIENT_OFF	n/a	n/a	n/a	-999	8	[0, 0, 0]	n/a	FR1	1	R1173J
993.293	1.617	999871	WORD	n/a	wordpools/wordpool_EN.txt	JUICE	1	8	[0, 0, 0]	n/a	FR1	1	R1173J
994.91	0.967	1001487	WORD_OFF	n/a	n/a	JUICE	1	8	[0, 0, 0]	n/a	FR1	1	R1173J
995.877	1.616	1002454	WORD	n/a	wordpools/wordpool_EN.txt	STORE	2	8	[0, 0, 0]	n/a	FR1	1	R1173J
997.493	0.983	1004070	WORD_OFF	n/a	n/a	STORE	2	8	[0, 0, 0]	n/a	FR1	1	R1173J
998.476	1.601	1005053	WORD	n/a	wordpools/wordpool_EN.txt	MAIL	3	8	[0, 0, 0]	n/a	FR1	1	R1173J
1000.077	0.884	1006654	WORD_OFF	n/a	n/a	MAIL	3	8	[0, 0, 0]	n/a	FR1	1	R1173J
1000.961	1.615	1007538	WORD	n/a	wordpools/wordpool_EN.txt	FROG	4	8	[0, 0, 0]	n/a	FR1	1	R1173J
1002.576	0.867	1009153	WORD_OFF	n/a	n/a	FROG	4	8	[0, 0, 0]	n/a	FR1	1	R1173J
1003.443	1.618	1010020	WORD	n/a	wordpools/wordpool_EN.txt	FILM	5	8	[0, 0, 0]	n/a	FR1	1	R1173J
1005.061	0.767	1011638	WORD_OFF	n/a	n/a	FILM	5	8	[0, 0, 0]	n/a	FR1	1	R1173J
1005.828	1.616	1012405	WORD	n/a	wordpools/wordpool_EN.txt	PASTE	6	8	[0, 0, 0]	n/a	FR1	1	R1173J
1007.444	0.768	1014021	WORD_OFF	n/a	n/a	PASTE	6	8	[0, 0, 0]	n/a	FR1	1	R1173J
1008.212	1.617	1014789	WORD	n/a	wordpools/wordpool_EN.txt	SHEET	7	8	[0, 0, 0]	n/a	FR1	1	R1173J
1009.829	0.833	1016406	WORD_OFF	n/a	n/a	SHEET	7	8	[0, 0, 0]	n/a	FR1	1	R1173J
1010.662	1.617	1017239	WORD	n/a	wordpools/wordpool_EN.txt	CORD	8	8	[0, 0, 0]	n/a	FR1	1	R1173J
1012.279	0.816	1018856	WORD_OFF	n/a	n/a	CORD	8	8	[0, 0, 0]	n/a	FR1	1	R1173J
1013.095	1.617	1019672	WORD	n/a	wordpools/wordpool_EN.txt	INK	9	8	[0, 0, 0]	n/a	FR1	1	R1173J
1014.712	0.934	1021289	WORD_OFF	n/a	n/a	INK	9	8	[0, 0, 0]	n/a	FR1	1	R1173J
1015.646	1.616	1022223	WORD	n/a	wordpools/wordpool_EN.txt	BOARD	10	8	[0, 0, 0]	n/a	FR1	1	R1173J
1017.262	1.001	1023839	WORD_OFF	n/a	n/a	BOARD	10	8	[0, 0, 0]	n/a	FR1	1	R1173J
1018.263	1.617	1024840	WORD	n/a	wordpools/wordpool_EN.txt	SPONGE	11	8	[0, 0, 0]	n/a	FR1	1	R1173J
1019.88	0.9	1026457	WORD_OFF	n/a	n/a	SPONGE	11	8	[0, 0, 0]	n/a	FR1	1	R1173J
1020.78	1.616	1027357	WORD	n/a	wordpools/wordpool_EN.txt	EGG	12	8	[0, 0, 0]	n/a	FR1	1	R1173J
1022.396	0.0	1028973	WORD_OFF	n/a	n/a	EGG	12	8	[0, 0, 0]	n/a	FR1	1	R1173J
1022.396	0.0	1028973	DISTRACT_START	n/a	n/a	n/a	-999	8	[0, 0, 0]	n/a	FR1	1	R1173J
1022.396	0.016	1028973	START	n/a	n/a	n/a	-999	8	[-999, -999, -999]	n/a	FR1	1	R1173J
1022.412	4.569	1028989	PROB	4.569	n/a	n/a	-999	8	[8, 9, 4]	21	FR1	1	R1173J
1026.981	4.317	1033558	PROB	4.317	n/a	n/a	-999	8	[7, 2, 8]	15	FR1	1	R1173J
1031.298	3.934	1037875	PROB	3.934	n/a	n/a	-999	8	[1, 3, 7]	11	FR1	1	R1173J
1035.232	3.767	1041809	PROB	3.767	n/a	n/a	-999	8	[3, 9, 6]	18	FR1	1	R1173J
1038.999	7.313	1045576	PROB	7.313	n/a	n/a	-999	8	[3, 5, 9]	17	FR1	1	R1173J
1046.312	0.021	1052889	STOP	n/a	n/a	n/a	-999	8	[-999, -999, -999]	n/a	FR1	1	R1173J
1046.333	0.584	1052910	DISTRACT_END	n/a	n/a	n/a	-999	8	[0, 0, 0]	n/a	FR1	1	R1173J
1046.917	0.516	1053494	RETRIEVAL_ORIENT	n/a	n/a	n/a	-999	8	[0, 0, 0]	n/a	FR1	1	R1173J
1047.433	0.925	1054010	REC_START	n/a	n/a	n/a	-999	8	[0, 0, 0]	n/a	FR1	1	R1173J
1048.358	1.397	1054935	REC_WORD	1.397	n/a	SPONGE	-999	8	[0, 0, 0]	n/a	FR1	1	R1173J
1049.755	5.505	1056332	REC_WORD	5.505	n/a	INK	-999	8	[0, 0, 0]	n/a	FR1	1	R1173J
1055.26	16.614	1061837	REC_WORD	16.614	n/a	FROG	-999	8	[0, 0, 0]	n/a	FR1	1	R1173J
1071.874	5.572	1078451	REC_WORD	5.572	n/a	STORE	-999	8	[0, 0, 0]	n/a	FR1	1	R1173J
1077.446	5.392	1084023	REC_END	n/a	n/a	n/a	-999	8	[0, 0, 0]	n/a	FR1	1	R1173J
1082.838	0.5	1089415	TRIAL	n/a	n/a	n/a	-999	9	[0, 0, 0]	n/a	FR1	1	R1173J
1083.338	10.428	1089915	COUNTDOWN_START	n/a	n/a	n/a	-999	9	[0, 0, 0]	n/a	FR1	1	R1173J
1093.766	0.006	1100343	COUNTDOWN_END	n/a	n/a	n/a	-999	9	[0, 0, 0]	n/a	FR1	1	R1173J
1093.772	1.616	1100349	ORIENT	n/a	n/a	n/a	-999	9	[0, 0, 0]	n/a	FR1	1	R1173J
1095.388	2.001	1101965	ORIENT_OFF	n/a	n/a	n/a	-999	9	[0, 0, 0]	n/a	FR1	1	R1173J
1097.389	1.618	1103966	WORD	n/a	wordpools/wordpool_EN.txt	FOOT	1	9	[0, 0, 0]	n/a	FR1	1	R1173J
1099.007	0.8	1105584	WORD_OFF	n/a	n/a	FOOT	1	9	[0, 0, 0]	n/a	FR1	1	R1173J
1099.807	1.616	1106384	WORD	n/a	wordpools/wordpool_EN.txt	PEN	2	9	[0, 0, 0]	n/a	FR1	1	R1173J
1101.423	0.949	1108000	WORD_OFF	n/a	n/a	PEN	2	9	[0, 0, 0]	n/a	FR1	1	R1173J
1102.372	1.601	1108949	WORD	n/a	wordpools/wordpool_EN.txt	CALF	3	9	[0, 0, 0]	n/a	FR1	1	R1173J
1103.973	0.984	1110550	WORD_OFF	n/a	n/a	CALF	3	9	[0, 0, 0]	n/a	FR1	1	R1173J
1104.957	1.616	1111534	WORD	n/a	wordpools/wordpool_EN.txt	BARN	4	9	[0, 0, 0]	n/a	FR1	1	R1173J
1106.573	0.867	1113150	WORD_OFF	n/a	n/a	BARN	4	9	[0, 0, 0]	n/a	FR1	1	R1173J
1107.44	1.618	1114017	WORD	n/a	wordpools/wordpool_EN.txt	SINK	5	9	[0, 0, 0]	n/a	FR1	1	R1173J
1109.058	0.867	1115635	WORD_OFF	n/a	n/a	SINK	5	9	[0, 0, 0]	n/a	FR1	1	R1173J
1109.925	1.616	1116502	WORD	n/a	wordpools/wordpool_EN.txt	PEA	6	9	[0, 0, 0]	n/a	FR1	1	R1173J
1111.541	0.833	1118118	WORD_OFF	n/a	n/a	PEA	6	9	[0, 0, 0]	n/a	FR1	1	R1173J
1112.374	1.601	1118951	WORD	n/a	wordpools/wordpool_EN.txt	SMILE	7	9	[0, 0, 0]	n/a	FR1	1	R1173J
1113.975	0.934	1120552	WORD_OFF	n/a	n/a	SMILE	7	9	[0, 0, 0]	n/a	FR1	1	R1173J
1114.909	1.615	1121486	WORD	n/a	wordpools/wordpool_EN.txt	FOX	8	9	[0, 0, 0]	n/a	FR1	1	R1173J
1116.524	0.967	1123101	WORD_OFF	n/a	n/a	FOX	8	9	[0, 0, 0]	n/a	FR1	1	R1173J
1117.491	1.618	1124068	WORD	n/a	wordpools/wordpool_EN.txt	THUMB	9	9	[0, 0, 0]	n/a	FR1	1	R1173J
1119.109	1.017	1125685	WORD_OFF	n/a	n/a	THUMB	9	9	[0, 0, 0]	n/a	FR1	1	R1173J
1120.126	1.617	1126702	WORD	n/a	wordpools/wordpool_EN.txt	BENCH	10	9	[0, 0, 0]	n/a	FR1	1	R1173J
1121.743	0.849	1128319	WORD_OFF	n/a	n/a	BENCH	10	9	[0, 0, 0]	n/a	FR1	1	R1173J
1122.592	1.618	1129168	WORD	n/a	wordpools/wordpool_EN.txt	TAIL	11	9	[0, 0, 0]	n/a	FR1	1	R1173J
1124.21	0.8	1130786	WORD_OFF	n/a	n/a	TAIL	11	9	[0, 0, 0]	n/a	FR1	1	R1173J
1125.01	1.617	1131586	WORD	n/a	wordpools/wordpool_EN.txt	SKUNK	12	9	[0, 0, 0]	n/a	FR1	1	R1173J
1126.627	0.0	1133203	WORD_OFF	n/a	n/a	SKUNK	12	9	[0, 0, 0]	n/a	FR1	1	R1173J
1126.627	0.0	1133203	DISTRACT_START	n/a	n/a	n/a	-999	9	[0, 0, 0]	n/a	FR1	1	R1173J
1126.627	0.016	1133203	START	n/a	n/a	n/a	-999	9	[-999, -999, -999]	n/a	FR1	1	R1173J
1126.643	9.068	1133219	PROB	9.068	n/a	n/a	-999	9	[8, 8, 9]	25	FR1	1	R1173J
1135.711	3.666	1142287	PROB	3.666	n/a	n/a	-999	9	[7, 7, 2]	16	FR1	1	R1173J
1139.377	6.252	1145953	PROB	6.252	n/a	n/a	-999	9	[9, 5, 9]	23	FR1	1	R1173J
1145.629	3.007	1152205	PROB	3.007	n/a	n/a	-999	9	[7, 7, 7]	21	FR1	1	R1173J
1148.636	0.01	1155212	STOP	n/a	n/a	n/a	-999	9	[-999, -999, -999]	n/a	FR1	1	R1173J
1148.646	0.6	1155222	DISTRACT_END	n/a	n/a	n/a	-999	9	[0, 0, 0]	n/a	FR1	1	R1173J
1149.246	0.518	1155822	RETRIEVAL_ORIENT	n/a	n/a	n/a	-999	9	[0, 0, 0]	n/a	FR1	1	R1173J
1149.764	1.153	1156340	REC_START	n/a	n/a	n/a	-999	9	[0, 0, 0]	n/a	FR1	1	R1173J
1150.917	7.655	1157493	REC_WORD	7.655	n/a	THUMB	-999	9	[0, 0, 0]	n/a	FR1	1	R1173J
1158.572	1.463	1165148	REC_WORD	1.463	n/a	CALF	-999	9	[0, 0, 0]	n/a	FR1	1	R1173J
1160.035	3.576	1166611	REC_WORD	3.576	n/a	BARN	-999	9	[0, 0, 0]	n/a	FR1	1	R1173J
1163.611	16.165	1170187	REC_WORD	16.165	n/a	PEN	-999	9	[0, 0, 0]	n/a	FR1	1	R1173J
1179.776	9.608	1186352	REC_END	n/a	n/a	n/a	-999	9	[0, 0, 0]	n/a	FR1	1	R1173J
1189.384	0.5	1195960	TRIAL	n/a	n/a	n/a	-999	10	[0, 0, 0]	n/a	FR1	1	R1173J
1189.884	10.428	1196460	COUNTDOWN_START	n/a	n/a	n/a	-999	10	[0, 0, 0]	n/a	FR1	1	R1173J
1200.312	0.008	1206888	COUNTDOWN_END	n/a	n/a	n/a	-999	10	[0, 0, 0]	n/a	FR1	1	R1173J
1200.32	1.616	1206896	ORIENT	n/a	n/a	n/a	-999	10	[0, 0, 0]	n/a	FR1	1	R1173J
1201.936	2.101	1208512	ORIENT_OFF	n/a	n/a	n/a	-999	10	[0, 0, 0]	n/a	FR1	1	R1173J
1204.037	1.616	1210613	WORD	n/a	wordpools/wordpool_EN.txt	SEA	1	10	[0, 0, 0]	n/a	FR1	1	R1173J
1205.653	0.783	1212229	WORD_OFF	n/a	n/a	SEA	1	10	[0, 0, 0]	n/a	FR1	1	R1173J
1206.436	1.618	1213012	WORD	n/a	wordpools/wordpool_EN.txt	MAP	2	10	[0, 0, 0]	n/a	FR1	1	R1173J
1208.054	0.9	1214630	WORD_OFF	n/a	n/a	MAP	2	10	[0, 0, 0]	n/a	FR1	1	R1173J
1208.954	1.616	1215530	WORD	n/a	wordpools/wordpool_EN.txt	STICK	3	10	[0, 0, 0]	n/a	FR1	1	R1173J
1210.57	0.768	1217146	WORD_OFF	n/a	n/a	STICK	3	10	[0, 0, 0]	n/a	FR1	1	R1173J
1211.338	1.616	1217914	WORD	n/a	wordpools/wordpool_EN.txt	STORM	4	10	[0, 0, 0]	n/a	FR1	1	R1173J
1212.954	1.0	1219530	WORD_OFF	n/a	n/a	STORM	4	10	[0, 0, 0]	n/a	FR1	1	R1173J
1213.954	1.616	1220530	WORD	n/a	wordpools/wordpool_EN.txt	FARM	5	10	[0, 0, 0]	n/a	FR1	1	R1173J
1215.57	0.834	1222146	WORD_OFF	n/a	n/a	FARM	5	10	[0, 0, 0]	n/a	FR1	1	R1173J
1216.404	1.601	1222980	WORD	n/a	wordpools/wordpool_EN.txt	MUD	6	10	[0, 0, 0]	n/a	FR1	1	R1173J
1218.005	0.85	1224581	WORD_OFF	n/a	n/a	MUD	6	10	[0, 0, 0]	n/a	FR1	1	R1173J
1218.855	1.616	1225431	WORD	n/a	wordpools/wordpool_EN.txt	LAND	7	10	[0, 0, 0]	n/a	FR1	1	R1173J
1220.471	0.785	1227047	WORD_OFF	n/a	n/a	LAND	7	10	[0, 0, 0]	n/a	FR1	1	R1173J
1221.256	1.616	1227832	WORD	n/a	wordpools/wordpool_EN.txt	CAPE	8	10	[0, 0, 0]	n/a	FR1	1	R1173J
1222.872	0.867	1229448	WORD_OFF	n/a	n/a	CAPE	8	10	[0, 0, 0]	n/a	FR1	1	R1173J
1223.739	1.616	1230315	WORD	n/a	wordpools/wordpool_EN.txt	ELF	9	10	[0, 0, 0]	n/a	FR1	1	R1173J
1225.355	0.968	1231931	WORD_OFF	n/a	n/a	ELF	9	10	[0, 0, 0]	n/a	FR1	1	R1173J
1226.323	1.617	1232899	WORD	n/a	wordpools/wordpool_EN.txt	STRAW	10	10	[0, 0, 0]	n/a	FR1	1	R1173J
1227.94	0.783	1234516	WORD_OFF	n/a	n/a	STRAW	10	10	[0, 0, 0]	n/a	FR1	1	R1173J
1228.723	1.617	1235299	WORD	n/a	wordpools/wordpool_EN.txt	BOAT	11	10	[0, 0, 0]	n/a	FR1	1	R1173J
1230.34	0.767	1236916	WORD_OFF	n/a	n/a	BOAT	11	10	[0, 0, 0]	n/a	FR1	1	R1173J
1231.107	1.616	1237683	WORD	n/a	wordpools/wordpool_EN.txt	HOOK	12	10	[0, 0, 0]	n/a	FR1	1	R1173J
1232.723	0.0	1239299	WORD_OFF	n/a	n/a	HOOK	12	10	[0, 0, 0]	n/a	FR1	1	R1173J
1232.723	0.001	1239299	DISTRACT_START	n/a	n/a	n/a	-999	10	[0, 0, 0]	n/a	FR1	1	R1173J
1232.724	0.016	1239300	START	n/a	n/a	n/a	-999	10	[-999, -999, -999]	n/a	FR1	1	R1173J
1232.74	4.167	1239316	PROB	4.167	n/a	n/a	-999	10	[9, 1, 7]	17	FR1	1	R1173J
1236.907	5.001	1243483	PROB	5.001	n/a	n/a	-999	10	[2, 5, 9]	16	FR1	1	R1173J
1241.908	4.217	1248484	PROB	4.217	n/a	n/a	-999	10	[9, 8, 1]	18	FR1	1	R1173J
1246.125	3.367	1252700	PROB	3.367	n/a	n/a	-999	10	[3, 2, 4]	9	FR1	1	R1173J
1249.492	4.292	1256067	PROB	4.292	n/a	n/a	-999	10	[4, 2, 1]	7	FR1	1	R1173J
1253.784	0.009	1260359	STOP	n/a	n/a	n/a	-999	10	[-999, -999, -999]	n/a	FR1	1	R1173J
1253.793	0.632	1260368	DISTRACT_END	n/a	n/a	n/a	-999	10	[0, 0, 0]	n/a	FR1	1	R1173J
1254.425	0.519	1261000	RETRIEVAL_ORIENT	n/a	n/a	n/a	-999	10	[0, 0, 0]	n/a	FR1	1	R1173J
1254.944	1.859	1261519	REC_START	n/a	n/a	n/a	-999	10	[0, 0, 0]	n/a	FR1	1	R1173J
1256.803	3.115	1263378	REC_WORD	3.115	n/a	MAP	-999	10	[0, 0, 0]	n/a	FR1	1	R1173J
1259.918	1.065	1266493	REC_WORD	1.065	n/a	LAND	-999	10	[0, 0, 0]	n/a	FR1	1	R1173J
1260.983	1.842	1267558	REC_WORD	1.842	n/a	FARM	-999	10	[0, 0, 0]	n/a	FR1	1	R1173J
1262.825	7.007	1269400	REC_WORD	7.007	n/a	STORM	-999	10	[0, 0, 0]	n/a	FR1	1	R1173J
1269.832	15.126	1276407	REC_WORD	15.126	n/a	STICK	-999	10	[0, 0, 0]	n/a	FR1	1	R1173J
1284.958	6.973	1291533	REC_END	n/a	n/a	n/a	-999	10	[0, 0, 0]	n/a	FR1	1	R1173J
1291.931	0.5	1298506	TRIAL	n/a	n/a	n/a	-999	11	[0, 0, 0]	n/a	FR1	1	R1173J
1292.431	10.428	1299006	COUNTDOWN_START	n/a	n/a	n/a	-999	11	[0, 0, 0]	n/a	FR1	1	R1173J
1302.859	0.007	1309434	COUNTDOWN_END	n/a	n/a	n/a	-999	11	[0, 0, 0]	n/a	FR1	1	R1173J
1302.866	1.616	1309441	ORIENT	n/a	n/a	n/a	-999	11	[0, 0, 0]	n/a	FR1	1	R1173J
1304.482	1.933	1311057	ORIENT_OFF	n/a	n/a	n/a	-999	11	[0, 0, 0]	n/a	FR1	1	R1173J
1306.415	1.618	1312990	WORD	n/a	wordpools/wordpool_EN.txt	FORK	1	11	[0, 0, 0]	n/a	FR1	1	R1173J
1308.033	0.917	1314608	WORD_OFF	n/a	n/a	FORK	1	11	[0, 0, 0]	n/a	FR1	1	R1173J
1308.95	1.616	1315525	WORD	n/a	wordpools/wordpool_EN.txt	STONE	2	11	[0, 0, 0]	n/a	FR1	1	R1173J
1310.566	0.884	1317141	WORD_OFF	n/a	n/a	STONE	2	11	[0, 0, 0]	n/a	FR1	1	R1173J
1311.45	1.617	1318025	WORD	n/a	wordpools/wordpool_EN.txt	BALL	3	11	[0, 0, 0]	n/a	FR1	1	R1173J
1313.067	0.933	1319642	WORD_OFF	n/a	n/a	BALL	3	11	[0, 0, 0]	n/a	FR1	1	R1173J
1314.0	1.616	1320575	WORD	n/a	wordpools/wordpool_EN.txt	STEAK	4	11	[0, 0, 0]	n/a	FR1	1	R1173J
1315.616	0.801	1322191	WORD_OFF	n/a	n/a	STEAK	4	11	[0, 0, 0]	n/a	FR1	1	R1173J
1316.417	1.618	1322992	WORD	n/a	wordpools/wordpool_EN.txt	CUP	5	11	[0, 0, 0]	n/a	FR1	1	R1173J
1318.035	1.0	1324610	WORD_OFF	n/a	n/a	CUP	5	11	[0, 0, 0]	n/a	FR1	1	R1173J
1319.035	1.617	1325610	WORD	n/a	wordpools/wordpool_EN.txt	SOUP	6	11	[0, 0, 0]	n/a	FR1	1	R1173J
1320.652	0.899	1327227	WORD_OFF	n/a	n/a	SOUP	6	11	[0, 0, 0]	n/a	FR1	1	R1173J
1321.551	1.617	1328126	WORD	n/a	wordpools/wordpool_EN.txt	FENCE	7	11	[0, 0, 0]	n/a	FR1	1	R1173J
1323.168	0.967	1329743	WORD_OFF	n/a	n/a	FENCE	7	11	[0, 0, 0]	n/a	FR1	1	R1173J
1324.135	1.617	1330710	WORD	n/a	wordpools/wordpool_EN.txt	SHARK	8	11	[0, 0, 0]	n/a	FR1	1	R1173J
1325.752	0.849	1332327	WORD_OFF	n/a	n/a	SHARK	8	11	[0, 0, 0]	n/a	FR1	1	R1173J
1326.601	1.618	1333176	WORD	n/a	wordpools/wordpool_EN.txt	STRING	9	11	[0, 0, 0]	n/a	FR1	1	R1173J
1328.219	0.95	1334794	WORD_OFF	n/a	n/a	STRING	9	11	[0, 0, 0]	n/a	FR1	1	R1173J
1329.169	1.617	1335744	WORD	n/a	wordpools/wordpool_EN.txt	CORN	10	11	[0, 0, 0]	n/a	FR1	1	R1173J
1330.786	0.851	1337361	WORD_OFF	n/a	n/a	CORN	10	11	[0, 0, 0]	n/a	FR1	1	R1173J
1331.637	1.616	1338212	WORD	n/a	wordpools/wordpool_EN.txt	FLAME	11	11	[0, 0, 0]	n/a	FR1	1	R1173J
1333.253	0.9	1339828	WORD_OFF	n/a	n/a	FLAME	11	11	[0, 0, 0]	n/a	FR1	1	R1173J
1334.153	1.617	1340728	WORD	n/a	wordpools/wordpool_EN.txt	SUN	12	11	[0, 0, 0]	n/a	FR1	1	R1173J
1335.77	0.0	1342345	DISTRACT_START	n/a	n/a	n/a	-999	11	[0, 0, 0]	n/a	FR1	1	R1173J
1335.77	0.001	1342345	WORD_OFF	n/a	n/a	SUN	12	11	[0, 0, 0]	n/a	FR1	1	R1173J
1335.771	0.016	1342346	START	n/a	n/a	n/a	-999	11	[-999, -999, -999]	n/a	FR1	1	R1173J
1335.787	3.85	1342362	PROB	3.85	n/a	n/a	-999	11	[8, 1, 3]	12	FR1	1	R1173J
1339.637	2.684	1346212	PROB	2.684	n/a	n/a	-999	11	[2, 1, 7]	10	FR1	1	R1173J
1342.321	4.367	1348896	PROB	4.367	n/a	n/a	-999	11	[9, 2, 4]	15	FR1	1	R1173J
1346.688	2.284	1353263	PROB	2.284	n/a	n/a	-999	11	[6, 4, 1]	11	FR1	1	R1173J
1348.972	3.333	1355547	PROB	3.333	n/a	n/a	-999	11	[2, 1, 1]	4	FR1	1	R1173J
1352.305	5.026	1358880	PROB	5.026	n/a	n/a	-999	11	[3, 8, 4]	15	FR1	1	R1173J
1357.331	0.009	1363906	STOP	n/a	n/a	n/a	-999	11	[-999, -999, -999]	n/a	FR1	1	R1173J
1357.34	0.633	1363915	DISTRACT_END	n/a	n/a	n/a	-999	11	[0, 0, 0]	n/a	FR1	1	R1173J
1357.973	0.517	1364548	RETRIEVAL_ORIENT	n/a	n/a	n/a	-999	11	[0, 0, 0]	n/a	FR1	1	R1173J
1358.49	0.807	1365065	REC_START	n/a	n/a	n/a	-999	11	[0, 0, 0]	n/a	FR1	1	R1173J
1359.297	2.542	1365872	REC_WORD	2.542	n/a	STRING	-999	11	[0, 0, 0]	n/a	FR1	1	R1173J
1361.839	4.43	1368414	REC_WORD	4.43	n/a	FORK	-999	11	[0, 0, 0]	n/a	FR1	1	R1173J
1366.269	8.734	1372844	REC_WORD	8.734	n/a	MUD	-999	11	[0, 0, 0]	n/a	FR1	1	R1173J
1375.003	4.571	1381577	REC_WORD	4.571	n/a	SHARK	-999	11	[0, 0, 0]	n/a	FR1	1	R1173J
1379.574	0.87	1386148	REC_WORD	0.87	n/a	SOUP	-999	11	[0, 0, 0]	n/a	FR1	1	R1173J
1380.444	1.551	1387018	REC_WORD	1.551	n/a	STEAK	-999	11	[0, 0, 0]	n/a	FR1	1	R1173J
1381.995	5.475	1388569	REC_WORD	5.475	n/a	STONE	-999	11	[0, 0, 0]	n/a	FR1	1	R1173J
1387.47	1.033	1394044	REC_WORD	1.033	n/a	FENCE	-999	11	[0, 0, 0]	n/a	FR1	1	R1173J
1388.503	5.624	1395077	REC_END	n/a	n/a	n/a	-999	11	[0, 0, 0]	n/a	FR1	1	R1173J
1394.127	0.5	1400701	TRIAL	n/a	n/a	n/a	-999	12	[0, 0, 0]	n/a	FR1	1	R1173J
1394.627	10.428	1401201	COUNTDOWN_START	n/a	n/a	n/a	-999	12	[0, 0, 0]	n/a	FR1	1	R1173J
1405.055	0.007	1411629	COUNTDOWN_END	n/a	n/a	n/a	-999	12	[0, 0, 0]	n/a	FR1	1	R1173J
1405.062	1.617	1411636	ORIENT	n/a	n/a	n/a	-999	12	[0, 0, 0]	n/a	FR1	1	R1173J
1406.679	1.816	1413253	ORIENT_OFF	n/a	n/a	n/a	-999	12	[0, 0, 0]	n/a	FR1	1	R1173J
1408.495	1.618	1415069	WORD	n/a	wordpools/wordpool_EN.txt	SWORD	1	12	[0, 0, 0]	n/a	FR1	1	R1173J
1410.113	0.984	1416687	WORD_OFF	n/a	n/a	SWORD	1	12	[0, 0, 0]	n/a	FR1	1	R1173J
1411.097	1.616	1417671	WORD	n/a	wordpools/wordpool_EN.txt	SKY	2	12	[0, 0, 0]	n/a	FR1	1	R1173J
1412.713	0.984	1419287	WORD_OFF	n/a	n/a	SKY	2	12	[0, 0, 0]	n/a	FR1	1	R1173J
1413.697	1.617	1420271	WORD	n/a	wordpools/wordpool_EN.txt	SIGN	3	12	[0, 0, 0]	n/a	FR1	1	R1173J
1415.314	0.85	1421888	WORD_OFF	n/a	n/a	SIGN	3	12	[0, 0, 0]	n/a	FR1	1	R1173J
1416.164	1.617	1422738	WORD	n/a	wordpools/wordpool_EN.txt	MOOSE	4	12	[0, 0, 0]	n/a	FR1	1	R1173J
1417.781	0.95	1424355	WORD_OFF	n/a	n/a	MOOSE	4	12	[0, 0, 0]	n/a	FR1	1	R1173J
1418.731	1.617	1425305	WORD	n/a	wordpools/wordpool_EN.txt	ARM	5	12	[0, 0, 0]	n/a	FR1	1	R1173J
1420.348	0.783	1426922	WORD_OFF	n/a	n/a	ARM	5	12	[0, 0, 0]	n/a	FR1	1	R1173J
1421.131	1.617	1427705	WORD	n/a	wordpools/wordpool_EN.txt	SAIL	6	12	[0, 0, 0]	n/a	FR1	1	R1173J
1422.748	0.9	1429322	WORD_OFF	n/a	n/a	SAIL	6	12	[0, 0, 0]	n/a	FR1	1	R1173J
1423.648	1.617	1430222	WORD	n/a	wordpools/wordpool_EN.txt	PALM	7	12	[0, 0, 0]	n/a	FR1	1	R1173J
1425.265	0.783	1431839	WORD_OFF	n/a	n/a	PALM	7	12	[0, 0, 0]	n/a	FR1	1	R1173J
1426.048	1.617	1432622	WORD	n/a	wordpools/wordpool_EN.txt	STAR	8	12	[0, 0, 0]	n/a	FR1	1	R1173J
1427.665	0.984	1434239	WORD_OFF	n/a	n/a	STAR	8	12	[0, 0, 0]	n/a	FR1	1	R1173J
1428.649	1.617	1435223	WORD	n/a	wordpools/wordpool_EN.txt	RAIN	9	12	[0, 0, 0]	n/a	FR1	1	R1173J
1430.266	0.917	1436840	WORD_OFF	n/a	n/a	RAIN	9	12	[0, 0, 0]	n/a	FR1	1	R1173J
1431.183	1.616	1437757	WORD	n/a	wordpools/wordpool_EN.txt	DOCK	10	12	[0, 0, 0]	n/a	FR1	1	R1173J
1432.799	0.867	1439373	WORD_OFF	n/a	n/a	DOCK	10	12	[0, 0, 0]	n/a	FR1	1	R1173J
1433.666	1.617	1440240	WORD	n/a	wordpools/wordpool_EN.txt	SHIP	11	12	[0, 0, 0]	n/a	FR1	1	R1173J
1435.283	0.967	1441857	WORD_OFF	n/a	n/a	SHIP	11	12	[0, 0, 0]	n/a	FR1	1	R1173J
1436.25	1.617	1442824	WORD	n/a	wordpools/wordpool_EN.txt	FOAM	12	12	[0, 0, 0]	n/a	FR1	1	R1173J
1437.867	0.0	1444441	WORD_OFF	n/a	n/a	FOAM	12	12	[0, 0, 0]	n/a	FR1	1	R1173J
1437.867	0.0	1444441	DISTRACT_START	n/a	n/a	n/a	-999	12	[0, 0, 0]	n/a	FR1	1	R1173J
1437.867	0.016	1444441	START	n/a	n/a	n/a	-999	12	[-999, -999, -999]	n/a	FR1	1	R1173J
1437.883	5.034	1444457	PROB	5.034	n/a	n/a	-999	12	[9, 5, 1]	15	FR1	1	R1173J
1442.917	7.001	1449491	PROB	7.001	n/a	n/a	-999	12	[9, 8, 7]	24	FR1	1	R1173J
1449.918	2.8	1456492	PROB	2.8	n/a	n/a	-999	12	[2, 7, 1]	10	FR1	1	R1173J
1452.718	4.168	1459292	PROB	4.168	n/a	n/a	-999	12	[8, 9, 5]	22	FR1	1	R1173J
1456.886	6.928	1463460	PROB	6.928	n/a	n/a	-999	12	[2, 6, 2]	10	FR1	1	R1173J
1463.814	0.022	1470388	STOP	n/a	n/a	n/a	-999	12	[-999, -999, -999]	n/a	FR1	1	R1173J
1463.836	0.633	1470410	DISTRACT_END	n/a	n/a	n/a	-999	12	[0, 0, 0]	n/a	FR1	1	R1173J
1464.469	0.518	1471043	RETRIEVAL_ORIENT	n/a	n/a	n/a	-999	12	[0, 0, 0]	n/a	FR1	1	R1173J
1464.987	12.061	1471561	REC_START	n/a	n/a	n/a	-999	12	[0, 0, 0]	n/a	FR1	1	R1173J
1477.048	17.952	1483622	REC_WORD	17.952	n/a	STAR	-999	12	[0, 0, 0]	n/a	FR1	1	R1173J
1495.0	7.574	1501573	REC_END	n/a	n/a	n/a	-999	12	[0, 0, 0]	n/a	FR1	1	R1173J
1502.574	0.5	1509147	TRIAL	n/a	n/a	n/a	-999	13	[0, 0, 0]	n/a	FR1	1	R1173J
1503.074	10.428	1509647	COUNTDOWN_START	n/a	n/a	n/a	-999	13	[0, 0, 0]	n/a	FR1	1	R1173J
1513.502	0.006	1520075	COUNTDOWN_END	n/a	n/a	n/a	-999	13	[0, 0, 0]	n/a	FR1	1	R1173J
1513.508	1.618	1520081	ORIENT	n/a	n/a	n/a	-999	13	[0, 0, 0]	n/a	FR1	1	R1173J
1515.126	2.067	1521699	ORIENT_OFF	n/a	n/a	n/a	-999	13	[0, 0, 0]	n/a	FR1	1	R1173J
1517.193	1.617	1523766	WORD	n/a	wordpools/wordpool_EN.txt	TEA	1	13	[0, 0, 0]	n/a	FR1	1	R1173J
1518.81	0.951	1525383	WORD_OFF	n/a	n/a	TEA	1	13	[0, 0, 0]	n/a	FR1	1	R1173J
1519.761	1.615	1526334	WORD	n/a	wordpools/wordpool_EN.txt	GRASS	2	13	[0, 0, 0]	n/a	FR1	1	R1173J
1521.376	0.918	1527949	WORD_OFF	n/a	n/a	GRASS	2	13	[0, 0, 0]	n/a	FR1	1	R1173J
1522.294	1.617	1528867	WORD	n/a	wordpools/wordpool_EN.txt	SPRING	3	13	[0, 0, 0]	n/a	FR1	1	R1173J
1523.911	0.983	1530484	WORD_OFF	n/a	n/a	SPRING	3	13	[0, 0, 0]	n/a	FR1	1	R1173J
1524.894	1.616	1531467	WORD	n/a	wordpools/wordpool_EN.txt	BUSH	4	13	[0, 0, 0]	n/a	FR1	1	R1173J
1526.51	0.834	1533083	WORD_OFF	n/a	n/a	BUSH	4	13	[0, 0, 0]	n/a	FR1	1	R1173J
1527.344	1.618	1533917	WORD	n/a	wordpools/wordpool_EN.txt	HOOF	5	13	[0, 0, 0]	n/a	FR1	1	R1173J
1528.962	0.9	1535535	WORD_OFF	n/a	n/a	HOOF	5	13	[0, 0, 0]	n/a	FR1	1	R1173J
1529.862	1.616	1536435	WORD	n/a	wordpools/wordpool_EN.txt	PLANT	6	13	[0, 0, 0]	n/a	FR1	1	R1173J
1531.478	0.817	1538051	WORD_OFF	n/a	n/a	PLANT	6	13	[0, 0, 0]	n/a	FR1	1	R1173J
1532.295	1.617	1538868	WORD	n/a	wordpools/wordpool_EN.txt	VINE	7	13	[0, 0, 0]	n/a	FR1	1	R1173J
1533.912	0.9	1540485	WORD_OFF	n/a	n/a	VINE	7	13	[0, 0, 0]	n/a	FR1	1	R1173J
1534.812	1.616	1541385	WORD	n/a	wordpools/wordpool_EN.txt	BEAN	8	13	[0, 0, 0]	n/a	FR1	1	R1173J
1536.428	0.785	1543001	WORD_OFF	n/a	n/a	BEAN	8	13	[0, 0, 0]	n/a	FR1	1	R1173J
1537.213	1.616	1543786	WORD	n/a	wordpools/wordpool_EN.txt	COW	9	13	[0, 0, 0]	n/a	FR1	1	R1173J
1538.829	0.967	1545402	WORD_OFF	n/a	n/a	COW	9	13	[0, 0, 0]	n/a	FR1	1	R1173J
1539.796	1.616	1546369	WORD	n/a	wordpools/wordpool_EN.txt	DITCH	10	13	[0, 0, 0]	n/a	FR1	1	R1173J
1541.412	0.901	1547985	WORD_OFF	n/a	n/a	DITCH	10	13	[0, 0, 0]	n/a	FR1	1	R1173J
1542.313	1.617	1548886	WORD	n/a	wordpools/wordpool_EN.txt	JEEP	11	13	[0, 0, 0]	n/a	FR1	1	R1173J
1543.93	0.917	1550503	WORD_OFF	n/a	n/a	JEEP	11	13	[0, 0, 0]	n/a	FR1	1	R1173J
1544.847	1.616	1551420	WORD	n/a	wordpools/wordpool_EN.txt	LAMB	12	13	[0, 0, 0]	n/a	FR1	1	R1173J
1546.463	0.0	1553036	DISTRACT_START	n/a	n/a	n/a	-999	13	[0, 0, 0]	n/a	FR1	1	R1173J
1546.463	0.0	1553036	WORD_OFF	n/a	n/a	LAMB	12	13	[0, 0, 0]	n/a	FR1	1	R1173J
1546.463	0.016	1553036	START	n/a	n/a	n/a	-999	13	[-999, -999, -999]	n/a	FR1	1	R1173J
1546.479	4.469	1553052	PROB	4.469	n/a	n/a	-999	13	[8, 6, 6]	20	FR1	1	R1173J
1550.948	3.582	1557521	PROB	3.582	n/a	n/a	-999	13	[4, 3, 5]	12	FR1	1	R1173J
1554.53	3.834	1561103	PROB	3.834	n/a	n/a	-999	13	[3, 6, 4]	13	FR1	1	R1173J
1558.364	4.752	1564937	PROB	4.752	n/a	n/a	-999	13	[7, 1, 6]	14	FR1	1	R1173J
1563.116	3.958	1569689	PROB	3.958	n/a	n/a	-999	13	[5, 2, 3]	10	FR1	1	R1173J
1567.074	0.009	1573647	STOP	n/a	n/a	n/a	-999	13	[-999, -999, -999]	n/a	FR1	1	R1173J
1567.083	0.683	1573656	DISTRACT_END	n/a	n/a	n/a	-999	13	[0, 0, 0]	n/a	FR1	1	R1173J
1567.766	0.518	1574339	RETRIEVAL_ORIENT	n/a	n/a	n/a	-999	13	[0, 0, 0]	n/a	FR1	1	R1173J
1568.284	3.019	1574857	REC_START	n/a	n/a	n/a	-999	13	[0, 0, 0]	n/a	FR1	1	R1173J
1571.303	26.993	1577876	REC_WORD	26.993	n/a	HOOF	-999	13	[0, 0, 0]	n/a	FR1	1	R1173J
1598.296	18.059	1604869	REC_END	n/a	n/a	n/a	-999	13	[0, 0, 0]	n/a	FR1	1	R1173J
1616.355	0.5	1622928	TRIAL	n/a	n/a	n/a	-999	14	[0, 0, 0]	n/a	FR1	1	R1173J
1616.855	10.428	1623428	COUNTDOWN_START	n/a	n/a	n/a	-999	14	[0, 0, 0]	n/a	FR1	1	R1173J
1627.283	0.008	1633855	COUNTDOWN_END	n/a	n/a	n/a	-999	14	[0, 0, 0]	n/a	FR1	1	R1173J
1627.291	1.617	1633863	ORIENT	n/a	n/a	n/a	-999	14	[0, 0, 0]	n/a	FR1	1	R1173J
1628.908	2.35	1635480	ORIENT_OFF	n/a	n/a	n/a	-999	14	[0, 0, 0]	n/a	FR1	1	R1173J
1631.258	1.617	1637830	WORD	n/a	wordpools/wordpool_EN.txt	WOLF	1	14	[0, 0, 0]	n/a	FR1	1	R1173J
1632.875	0.8	1639447	WORD_OFF	n/a	n/a	WOLF	1	14	[0, 0, 0]	n/a	FR1	1	R1173J
1633.675	1.617	1640247	WORD	n/a	wordpools/wordpool_EN.txt	GEESE	2	14	[0, 0, 0]	n/a	FR1	1	R1173J
1635.292	0.95	1641864	WORD_OFF	n/a	n/a	GEESE	2	14	[0, 0, 0]	n/a	FR1	1	R1173J
1636.242	1.617	1642814	WORD	n/a	wordpools/wordpool_EN.txt	MILK	3	14	[0, 0, 0]	n/a	FR1	1	R1173J
1637.859	0.817	1644431	WORD_OFF	n/a	n/a	MILK	3	14	[0, 0, 0]	n/a	FR1	1	R1173J
1638.676	1.617	1645248	WORD	n/a	wordpools/wordpool_EN.txt	FOOD	4	14	[0, 0, 0]	n/a	FR1	1	R1173J
1640.293	0.816	1646865	WORD_OFF	n/a	n/a	FOOD	4	14	[0, 0, 0]	n/a	FR1	1	R1173J
1641.109	1.617	1647681	WORD	n/a	wordpools/wordpool_EN.txt	BREAD	5	14	[0, 0, 0]	n/a	FR1	1	R1173J
1642.726	0.832	1649298	WORD_OFF	n/a	n/a	BREAD	5	14	[0, 0, 0]	n/a	FR1	1	R1173J
1643.558	1.618	1650130	WORD	n/a	wordpools/wordpool_EN.txt	PEACH	6	14	[0, 0, 0]	n/a	FR1	1	R1173J
1645.176	1.017	1651748	WORD_OFF	n/a	n/a	PEACH	6	14	[0, 0, 0]	n/a	FR1	1	R1173J
1646.193	1.617	1652765	WORD	n/a	wordpools/wordpool_EN.txt	CROW	7	14	[0, 0, 0]	n/a	FR1	1	R1173J
1647.81	0.834	1654382	WORD_OFF	n/a	n/a	CROW	7	14	[0, 0, 0]	n/a	FR1	1	R1173J
1648.644	1.617	1655216	WORD	n/a	wordpools/wordpool_EN.txt	PIT	8	14	[0, 0, 0]	n/a	FR1	1	R1173J
1650.261	0.9	1656833	WORD_OFF	n/a	n/a	PIT	8	14	[0, 0, 0]	n/a	FR1	1	R1173J
1651.161	1.616	1657733	WORD	n/a	wordpools/wordpool_EN.txt	PRINCE	9	14	[0, 0, 0]	n/a	FR1	1	R1173J
1652.777	0.783	1659349	WORD_OFF	n/a	n/a	PRINCE	9	14	[0, 0, 0]	n/a	FR1	1	R1173J
1653.56	1.618	1660132	WORD	n/a	wordpools/wordpool_EN.txt	DEER	10	14	[0, 0, 0]	n/a	FR1	1	R1173J
1655.178	1.0	1661750	WORD_OFF	n/a	n/a	DEER	10	14	[0, 0, 0]	n/a	FR1	1	R1173J
1656.178	1.617	1662750	WORD	n/a	wordpools/wordpool_EN.txt	NEST	11	14	[0, 0, 0]	n/a	FR1	1	R1173J
1657.795	0.799	1664367	WORD_OFF	n/a	n/a	NEST	11	14	[0, 0, 0]	n/a	FR1	1	R1173J
1658.594	1.618	1665166	WORD	n/a	wordpools/wordpool_EN.txt	EEL	12	14	[0, 0, 0]	n/a	FR1	1	R1173J
1660.212	0.0	1666784	WORD_OFF	n/a	n/a	EEL	12	14	[0, 0, 0]	n/a	FR1	1	R1173J
1660.212	0.0	1666784	DISTRACT_START	n/a	n/a	n/a	-999	14	[0, 0, 0]	n/a	FR1	1	R1173J
1660.212	0.017	1666784	START	n/a	n/a	n/a	-999	14	[-999, -999, -999]	n/a	FR1	1	R1173J
1660.229	4.332	1666801	PROB	4.332	n/a	n/a	-999	14	[7, 3, 8]	18	FR1	1	R1173J
1664.561	6.968	1671133	PROB	6.968	n/a	n/a	-999	14	[9, 9, 1]	19	FR1	1	R1173J
1671.529	3.601	1678101	PROB	3.601	n/a	n/a	-999	14	[7, 5, 7]	19	FR1	1	R1173J
1675.13	8.996	1681702	PROB	8.996	n/a	n/a	-999	14	[4, 8, 7]	19	FR1	1	R1173J
1684.126	0.022	1690698	STOP	n/a	n/a	n/a	-999	14	[-999, -999, -999]	n/a	FR1	1	R1173J
1684.148	0.6	1690720	DISTRACT_END	n/a	n/a	n/a	-999	14	[0, 0, 0]	n/a	FR1	1	R1173J
1684.748	0.518	1691320	RETRIEVAL_ORIENT	n/a	n/a	n/a	-999	14	[0, 0, 0]	n/a	FR1	1	R1173J
1685.266	1.1	1691838	REC_START	n/a	n/a	n/a	-999	14	[0, 0, 0]	n/a	FR1	1	R1173J
1686.366	3.833	1692938	REC_WORD	3.833	n/a	EEL	-999	14	[0, 0, 0]	n/a	FR1	1	R1173J
1690.199	0.992	1696771	REC_WORD_VV	0.992	n/a	<>	-999	14	[0, 0, 0]	n/a	FR1	1	R1173J
1691.191	0.99	1697763	REC_WORD_VV	0.99	n/a	<>	-999	14	[0, 0, 0]	n/a	FR1	1	R1173J
1692.181	5.708	1698753	REC_WORD_VV	5.708	n/a	<>	-999	14	[0, 0, 0]	n/a	FR1	1	R1173J
1697.889	6.049	1704461	REC_WORD	6.049	n/a	MILK	-999	14	[0, 0, 0]	n/a	FR1	1	R1173J
1703.938	11.342	1710510	REC_WORD	11.342	n/a	NEST	-999	14	[0, 0, 0]	n/a	FR1	1	R1173J
1715.28	9.657	1721852	REC_END	n/a	n/a	n/a	-999	14	[0, 0, 0]	n/a	FR1	1	R1173J
1724.937	0.5	1731509	TRIAL	n/a	n/a	n/a	-999	15	[0, 0, 0]	n/a	FR1	1	R1173J
1725.437	10.428	1732009	COUNTDOWN_START	n/a	n/a	n/a	-999	15	[0, 0, 0]	n/a	FR1	1	R1173J
1735.865	0.006	1742437	COUNTDOWN_END	n/a	n/a	n/a	-999	15	[0, 0, 0]	n/a	FR1	1	R1173J
1735.871	1.616	1742443	ORIENT	n/a	n/a	n/a	-999	15	[0, 0, 0]	n/a	FR1	1	R1173J
1737.487	2.302	1744059	ORIENT_OFF	n/a	n/a	n/a	-999	15	[0, 0, 0]	n/a	FR1	1	R1173J
1739.789	1.616	1746361	WORD	n/a	wordpools/wordpool_EN.txt	GATE	1	15	[0, 0, 0]	n/a	FR1	1	R1173J
1741.405	0.834	1747977	WORD_OFF	n/a	n/a	GATE	1	15	[0, 0, 0]	n/a	FR1	1	R1173J
1742.239	1.617	1748811	WORD	n/a	wordpools/wordpool_EN.txt	SOCK	2	15	[0, 0, 0]	n/a	FR1	1	R1173J
1743.856	0.9	1750427	WORD_OFF	n/a	n/a	SOCK	2	15	[0, 0, 0]	n/a	FR1	1	R1173J
1744.756	1.616	1751327	WORD	n/a	wordpools/wordpool_EN.txt	FLUTE	3	15	[0, 0, 0]	n/a	FR1	1	R1173J
1746.372	0.901	1752943	WORD_OFF	n/a	n/a	FLUTE	3	15	[0, 0, 0]	n/a	FR1	1	R1173J
1747.273	1.617	1753844	WORD	n/a	wordpools/wordpool_EN.txt	TOAST	4	15	[0, 0, 0]	n/a	FR1	1	R1173J
1748.89	0.933	1755461	WORD_OFF	n/a	n/a	TOAST	4	15	[0, 0, 0]	n/a	FR1	1	R1173J
1749.823	1.616	1756394	WORD	n/a	wordpools/wordpool_EN.txt	MOUTH	5	15	[0, 0, 0]	n/a	FR1	1	R1173J
1751.439	0.784	1758010	WORD_OFF	n/a	n/a	MOUTH	5	15	[0, 0, 0]	n/a	FR1	1	R1173J
1752.223	1.617	1758794	WORD	n/a	wordpools/wordpool_EN.txt	VASE	6	15	[0, 0, 0]	n/a	FR1	1	R1173J
1753.84	0.95	1760411	WORD_OFF	n/a	n/a	VASE	6	15	[0, 0, 0]	n/a	FR1	1	R1173J
1754.79	1.616	1761361	WORD	n/a	wordpools/wordpool_EN.txt	BOOT	7	15	[0, 0, 0]	n/a	FR1	1	R1173J
1756.406	0.918	1762977	WORD_OFF	n/a	n/a	BOOT	7	15	[0, 0, 0]	n/a	FR1	1	R1173J
1757.324	1.617	1763895	WORD	n/a	wordpools/wordpool_EN.txt	ROOF	8	15	[0, 0, 0]	n/a	FR1	1	R1173J
1758.941	0.817	1765512	WORD_OFF	n/a	n/a	ROOF	8	15	[0, 0, 0]	n/a	FR1	1	R1173J
1759.758	1.616	1766329	WORD	n/a	wordpools/wordpool_EN.txt	DOOR	9	15	[0, 0, 0]	n/a	FR1	1	R1173J
1761.374	0.983	1767945	WORD_OFF	n/a	n/a	DOOR	9	15	[0, 0, 0]	n/a	FR1	1	R1173J
1762.357	1.618	1768928	WORD	n/a	wordpools/wordpool_EN.txt	POOL	10	15	[0, 0, 0]	n/a	FR1	1	R1173J
1763.975	1.017	1770546	WORD_OFF	n/a	n/a	POOL	10	15	[0, 0, 0]	n/a	FR1	1	R1173J
1764.992	1.616	1771563	WORD	n/a	wordpools/wordpool_EN.txt	BROOM	11	15	[0, 0, 0]	n/a	FR1	1	R1173J
1766.608	0.883	1773179	WORD_OFF	n/a	n/a	BROOM	11	15	[0, 0, 0]	n/a	FR1	1	R1173J
1767.491	1.601	1774062	WORD	n/a	wordpools/wordpool_EN.txt	HILL	12	15	[0, 0, 0]	n/a	FR1	1	R1173J
1769.092	0.0	1775663	WORD_OFF	n/a	n/a	HILL	12	15	[0, 0, 0]	n/a	FR1	1	R1173J
1769.092	0.001	1775663	DISTRACT_START	n/a	n/a	n/a	-999	15	[0, 0, 0]	n/a	FR1	1	R1173J
1769.093	0.016	1775664	START	n/a	n/a	n/a	-999	15	[-999, -999, -999]	n/a	FR1	1	R1173J
1769.109	4.9	1775680	PROB	4.9	n/a	n/a	-999	15	[2, 9, 7]	18	FR1	1	R1173J
1774.009	2.651	1780580	PROB	2.651	n/a	n/a	-999	15	[1, 5, 3]	9	FR1	1	R1173J
1776.66	4.134	1783231	PROB	4.134	n/a	n/a	-999	15	[4, 1, 7]	12	FR1	1	R1173J
1780.794	6.067	1787365	PROB	6.067	n/a	n/a	-999	15	[9, 7, 5]	21	FR1	1	R1173J
1786.861	2.556	1793432	PROB	2.556	n/a	n/a	-999	15	[4, 2, 2]	8	FR1	1	R1173J
1789.417	0.01	1795988	STOP	n/a	n/a	n/a	-999	15	[-999, -999, -999]	n/a	FR1	1	R1173J
1789.427	0.635	1795998	DISTRACT_END	n/a	n/a	n/a	-999	15	[0, 0, 0]	n/a	FR1	1	R1173J
1790.062	0.517	1796633	RETRIEVAL_ORIENT	n/a	n/a	n/a	-999	15	[0, 0, 0]	n/a	FR1	1	R1173J
1790.579	4.259	1797150	REC_START	n/a	n/a	n/a	-999	15	[0, 0, 0]	n/a	FR1	1	R1173J
1794.838	2.651	1801409	REC_WORD	2.651	n/a	DOOR	-999	15	[0, 0, 0]	n/a	FR1	1	R1173J
1797.489	6.883	1804060	REC_WORD	6.883	n/a	BROOM	-999	15	[0, 0, 0]	n/a	FR1	1	R1173J
1804.372	1.0	1810943	REC_WORD_VV	1.0	n/a	<>	-999	15	[0, 0, 0]	n/a	FR1	1	R1173J
1805.372	15.219	1811943	REC_WORD_VV	15.219	n/a	<>	-999	15	[0, 0, 0]	n/a	FR1	1	R1173J
1820.591	16.61	1827162	REC_END	n/a	n/a	n/a	-999	15	[0, 0, 0]	n/a	FR1	1	R1173J
1837.201	0.5	1843772	TRIAL	n/a	n/a	n/a	-999	16	[0, 0, 0]	n/a	FR1	1	R1173J
1837.701	10.428	1844272	COUNTDOWN_START	n/a	n/a	n/a	-999	16	[0, 0, 0]	n/a	FR1	1	R1173J
1848.129	0.006	1854700	COUNTDOWN_END	n/a	n/a	n/a	-999	16	[0, 0, 0]	n/a	FR1	1	R1173J
1848.135	1.617	1854706	ORIENT	n/a	n/a	n/a	-999	16	[0, 0, 0]	n/a	FR1	1	R1173J
1849.752	2.201	1856323	ORIENT_OFF	n/a	n/a	n/a	-999	16	[0, 0, 0]	n/a	FR1	1	R1173J
1851.953	1.616	1858524	WORD	n/a	wordpools/wordpool_EN.txt	BAND	1	16	[0, 0, 0]	n/a	FR1	1	R1173J
1853.569	0.916	1860140	WORD_OFF	n/a	n/a	BAND	1	16	[0, 0, 0]	n/a	FR1	1	R1173J
1854.485	1.601	1861056	WORD	n/a	wordpools/wordpool_EN.txt	CHALK	2	16	[0, 0, 0]	n/a	FR1	1	R1173J
1856.086	0.868	1862657	WORD_OFF	n/a	n/a	CHALK	2	16	[0, 0, 0]	n/a	FR1	1	R1173J
1856.954	1.615	1863525	WORD	n/a	wordpools/wordpool_EN.txt	RIB	3	16	[0, 0, 0]	n/a	FR1	1	R1173J
1858.569	0.934	1865140	WORD_OFF	n/a	n/a	RIB	3	16	[0, 0, 0]	n/a	FR1	1	R1173J
1859.503	1.618	1866074	WORD	n/a	wordpools/wordpool_EN.txt	YARD	4	16	[0, 0, 0]	n/a	FR1	1	R1173J
1861.121	0.95	1867692	WORD_OFF	n/a	n/a	YARD	4	16	[0, 0, 0]	n/a	FR1	1	R1173J
1862.071	1.617	1868642	WORD	n/a	wordpools/wordpool_EN.txt	SQUARE	5	16	[0, 0, 0]	n/a	FR1	1	R1173J
1863.688	0.849	1870259	WORD_OFF	n/a	n/a	SQUARE	5	16	[0, 0, 0]	n/a	FR1	1	R1173J
1864.537	1.618	1871108	WORD	n/a	wordpools/wordpool_EN.txt	THREAD	6	16	[0, 0, 0]	n/a	FR1	1	R1173J
1866.155	0.783	1872726	WORD_OFF	n/a	n/a	THREAD	6	16	[0, 0, 0]	n/a	FR1	1	R1173J
1866.938	1.616	1873509	WORD	n/a	wordpools/wordpool_EN.txt	CRANE	7	16	[0, 0, 0]	n/a	FR1	1	R1173J
1868.554	0.8	1875124	WORD_OFF	n/a	n/a	CRANE	7	16	[0, 0, 0]	n/a	FR1	1	R1173J
1869.354	1.618	1875924	WORD	n/a	wordpools/wordpool_EN.txt	SEAL	8	16	[0, 0, 0]	n/a	FR1	1	R1173J
1870.972	0.917	1877542	WORD_OFF	n/a	n/a	SEAL	8	16	[0, 0, 0]	n/a	FR1	1	R1173J
1871.889	1.616	1878459	WORD	n/a	wordpools/wordpool_EN.txt	WORM	9	16	[0, 0, 0]	n/a	FR1	1	R1173J
1873.505	0.866	1880075	WORD_OFF	n/a	n/a	WORM	9	16	[0, 0, 0]	n/a	FR1	1	R1173J
1874.371	1.601	1880941	WORD	n/a	wordpools/wordpool_EN.txt	TOOL	10	16	[0, 0, 0]	n/a	FR1	1	R1173J
1875.972	0.867	1882542	WORD_OFF	n/a	n/a	TOOL	10	16	[0, 0, 0]	n/a	FR1	1	R1173J
1876.839	1.616	1883409	WORD	n/a	wordpools/wordpool_EN.txt	FUR	11	16	[0, 0, 0]	n/a	FR1	1	R1173J
1878.455	0.934	1885025	WORD_OFF	n/a	n/a	FUR	11	16	[0, 0, 0]	n/a	FR1	1	R1173J
1879.389	1.618	1885959	WORD	n/a	wordpools/wordpool_EN.txt	HOLE	12	16	[0, 0, 0]	n/a	FR1	1	R1173J
1881.007	0.0	1887577	WORD_OFF	n/a	n/a	HOLE	12	16	[0, 0, 0]	n/a	FR1	1	R1173J
1881.007	0.0	1887577	DISTRACT_START	n/a	n/a	n/a	-999	16	[0, 0, 0]	n/a	FR1	1	R1173J
1881.007	0.016	1887577	START	n/a	n/a	n/a	-999	16	[-999, -999, -999]	n/a	FR1	1	R1173J
1881.023	5.533	1887593	PROB	5.533	n/a	n/a	-999	16	[5, 6, 4]	15	FR1	1	R1173J
1886.556	2.967	1893126	PROB	2.967	n/a	n/a	-999	16	[1, 8, 9]	18	FR1	1	R1173J
1889.523	3.102	1896093	PROB	3.102	n/a	n/a	-999	16	[7, 3, 9]	19	FR1	1	R1173J
1892.625	5.85	1899195	PROB	5.85	n/a	n/a	-999	16	[5, 8, 7]	20	FR1	1	R1173J
1898.475	3.874	1905045	PROB	3.874	n/a	n/a	-999	16	[8, 3, 2]	13	FR1	1	R1173J
1902.349	0.009	1908919	STOP	n/a	n/a	n/a	-999	16	[-999, -999, -999]	n/a	FR1	1	R1173J
1902.358	0.651	1908928	DISTRACT_END	n/a	n/a	n/a	-999	16	[0, 0, 0]	n/a	FR1	1	R1173J
1903.009	0.517	1909579	RETRIEVAL_ORIENT	n/a	n/a	n/a	-999	16	[0, 0, 0]	n/a	FR1	1	R1173J
1903.526	8.487	1910096	REC_START	n/a	n/a	n/a	-999	16	[0, 0, 0]	n/a	FR1	1	R1173J
1912.013	0.993	1918583	REC_WORD	0.993	n/a	YARD	-999	16	[0, 0, 0]	n/a	FR1	1	R1173J
1913.006	1.021	1919576	REC_WORD	1.021	n/a	SQUARE	-999	16	[0, 0, 0]	n/a	FR1	1	R1173J
1914.027	9.825	1920597	REC_WORD	9.825	n/a	THREAD	-999	16	[0, 0, 0]	n/a	FR1	1	R1173J
1923.852	9.686	1930422	REC_WORD	9.686	n/a	SWORD	-999	16	[0, 0, 0]	n/a	FR1	1	R1173J
1933.538	8.892	1940108	REC_END	n/a	n/a	n/a	-999	16	[0, 0, 0]	n/a	FR1	1	R1173J
1942.43	0.5	1949000	TRIAL	n/a	n/a	n/a	-999	17	[0, 0, 0]	n/a	FR1	1	R1173J
1942.93	10.428	1949500	COUNTDOWN_START	n/a	n/a	n/a	-999	17	[0, 0, 0]	n/a	FR1	1	R1173J
1953.358	0.007	1959928	COUNTDOWN_END	n/a	n/a	n/a	-999	17	[0, 0, 0]	n/a	FR1	1	R1173J
1953.365	1.618	1959935	ORIENT	n/a	n/a	n/a	-999	17	[0, 0, 0]	n/a	FR1	1	R1173J
1954.983	2.05	1961553	ORIENT_OFF	n/a	n/a	n/a	-999	17	[0, 0, 0]	n/a	FR1	1	R1173J
1957.033	1.617	1963603	WORD	n/a	wordpools/wordpool_EN.txt	ARK	1	17	[0, 0, 0]	n/a	FR1	1	R1173J
1958.65	0.866	1965220	WORD_OFF	n/a	n/a	ARK	1	17	[0, 0, 0]	n/a	FR1	1	R1173J
1959.516	1.618	1966086	WORD	n/a	wordpools/wordpool_EN.txt	MUG	2	17	[0, 0, 0]	n/a	FR1	1	R1173J
1961.134	0.799	1967704	WORD_OFF	n/a	n/a	MUG	2	17	[0, 0, 0]	n/a	FR1	1	R1173J
1961.933	1.616	1968503	WORD	n/a	wordpools/wordpool_EN.txt	GRAPE	3	17	[0, 0, 0]	n/a	FR1	1	R1173J
1963.549	0.884	1970119	WORD_OFF	n/a	n/a	GRAPE	3	17	[0, 0, 0]	n/a	FR1	1	R1173J
1964.433	1.618	1971003	WORD	n/a	wordpools/wordpool_EN.txt	MOTH	4	17	[0, 0, 0]	n/a	FR1	1	R1173J
1966.051	0.85	1972621	WORD_OFF	n/a	n/a	MOTH	4	17	[0, 0, 0]	n/a	FR1	1	R1173J
1966.901	1.616	1973471	WORD	n/a	wordpools/wordpool_EN.txt	PIPE	5	17	[0, 0, 0]	n/a	FR1	1	R1173J
1968.517	0.983	1975087	WORD_OFF	n/a	n/a	PIPE	5	17	[0, 0, 0]	n/a	FR1	1	R1173J
1969.5	1.618	1976070	WORD	n/a	wordpools/wordpool_EN.txt	BEE	6	17	[0, 0, 0]	n/a	FR1	1	R1173J
1971.118	0.817	1977688	WORD_OFF	n/a	n/a	BEE	6	17	[0, 0, 0]	n/a	FR1	1	R1173J
1971.935	1.616	1978505	WORD	n/a	wordpools/wordpool_EN.txt	PIE	7	17	[0, 0, 0]	n/a	FR1	1	R1173J
1973.551	0.9	1980121	WORD_OFF	n/a	n/a	PIE	7	17	[0, 0, 0]	n/a	FR1	1	R1173J
1974.451	1.618	1981021	WORD	n/a	wordpools/wordpool_EN.txt	CHIN	8	17	[0, 0, 0]	n/a	FR1	1	R1173J
1976.069	1.017	1982639	WORD_OFF	n/a	n/a	CHIN	8	17	[0, 0, 0]	n/a	FR1	1	R1173J
1977.086	1.617	1983656	WORD	n/a	wordpools/wordpool_EN.txt	CAVE	9	17	[0, 0, 0]	n/a	FR1	1	R1173J
1978.703	0.915	1985273	WORD_OFF	n/a	n/a	CAVE	9	17	[0, 0, 0]	n/a	FR1	1	R1173J
1979.618	1.618	1986188	WORD	n/a	wordpools/wordpool_EN.txt	NAIL	10	17	[0, 0, 0]	n/a	FR1	1	R1173J
1981.236	1.0	1987806	WORD_OFF	n/a	n/a	NAIL	10	17	[0, 0, 0]	n/a	FR1	1	R1173J
1982.236	1.617	1988806	WORD	n/a	wordpools/wordpool_EN.txt	JAR	11	17	[0, 0, 0]	n/a	FR1	1	R1173J
1983.853	0.8	1990423	WORD_OFF	n/a	n/a	JAR	11	17	[0, 0, 0]	n/a	FR1	1	R1173J
1984.653	1.617	1991223	WORD	n/a	wordpools/wordpool_EN.txt	TIE	12	17	[0, 0, 0]	n/a	FR1	1	R1173J
1986.27	0.0	1992840	WORD_OFF	n/a	n/a	TIE	12	17	[0, 0, 0]	n/a	FR1	1	R1173J
1986.27	0.001	1992840	DISTRACT_START	n/a	n/a	n/a	-999	17	[0, 0, 0]	n/a	FR1	1	R1173J
1986.271	0.016	1992841	START	n/a	n/a	n/a	-999	17	[-999, -999, -999]	n/a	FR1	1	R1173J
1986.287	5.567	1992857	PROB	5.567	n/a	n/a	-999	17	[7, 4, 5]	16	FR1	1	R1173J
1991.854	3.633	1998424	PROB	3.633	n/a	n/a	-999	17	[1, 4, 5]	10	FR1	1	R1173J
1995.487	5.752	2002056	PROB	5.752	n/a	n/a	-999	17	[7, 7, 6]	20	FR1	1	R1173J
2001.239	3.667	2007808	PROB	3.667	n/a	n/a	-999	17	[8, 4, 2]	14	FR1	1	R1173J
2004.906	2.958	2011475	PROB	2.958	n/a	n/a	-999	17	[3, 1, 4]	8	FR1	1	R1173J
2007.864	0.009	2014433	STOP	n/a	n/a	n/a	-999	17	[-999, -999, -999]	n/a	FR1	1	R1173J
2007.873	0.699	2014442	DISTRACT_END	n/a	n/a	n/a	-999	17	[0, 0, 0]	n/a	FR1	1	R1173J
2008.572	0.519	2015141	RETRIEVAL_ORIENT	n/a	n/a	n/a	-999	17	[0, 0, 0]	n/a	FR1	1	R1173J
2009.091	20.832	2015660	REC_START	n/a	n/a	n/a	-999	17	[0, 0, 0]	n/a	FR1	1	R1173J
2029.923	9.181	2036492	REC_WORD	9.181	n/a	TIE	-999	17	[0, 0, 0]	n/a	FR1	1	R1173J
2039.104	23.609	2045673	REC_END	n/a	n/a	n/a	-999	17	[0, 0, 0]	n/a	FR1	1	R1173J
2062.713	0.5	2069282	TRIAL	n/a	n/a	n/a	-999	18	[0, 0, 0]	n/a	FR1	1	R1173J
2063.213	10.428	2069782	COUNTDOWN_START	n/a	n/a	n/a	-999	18	[0, 0, 0]	n/a	FR1	1	R1173J
2073.641	0.007	2080210	COUNTDOWN_END	n/a	n/a	n/a	-999	18	[0, 0, 0]	n/a	FR1	1	R1173J
2073.648	1.617	2080217	ORIENT	n/a	n/a	n/a	-999	18	[0, 0, 0]	n/a	FR1	1	R1173J
2075.265	2.033	2081834	ORIENT_OFF	n/a	n/a	n/a	-999	18	[0, 0, 0]	n/a	FR1	1	R1173J
2077.298	1.617	2083867	WORD	n/a	wordpools/wordpool_EN.txt	SPARK	1	18	[0, 0, 0]	n/a	FR1	1	R1173J
2078.915	0.951	2085484	WORD_OFF	n/a	n/a	SPARK	1	18	[0, 0, 0]	n/a	FR1	1	R1173J
2079.866	1.615	2086435	WORD	n/a	wordpools/wordpool_EN.txt	BEAR	2	18	[0, 0, 0]	n/a	FR1	1	R1173J
2081.481	0.884	2088050	WORD_OFF	n/a	n/a	BEAR	2	18	[0, 0, 0]	n/a	FR1	1	R1173J
2082.365	1.617	2088934	WORD	n/a	wordpools/wordpool_EN.txt	WHEEL	3	18	[0, 0, 0]	n/a	FR1	1	R1173J
2083.982	0.984	2090551	WORD_OFF	n/a	n/a	WHEEL	3	18	[0, 0, 0]	n/a	FR1	1	R1173J
2084.966	1.616	2091535	WORD	n/a	wordpools/wordpool_EN.txt	CLOUD	4	18	[0, 0, 0]	n/a	FR1	1	R1173J
2086.582	0.933	2093151	WORD_OFF	n/a	n/a	CLOUD	4	18	[0, 0, 0]	n/a	FR1	1	R1173J
2087.515	1.618	2094084	WORD	n/a	wordpools/wordpool_EN.txt	NET	5	18	[0, 0, 0]	n/a	FR1	1	R1173J
2089.133	0.884	2095702	WORD_OFF	n/a	n/a	NET	5	18	[0, 0, 0]	n/a	FR1	1	R1173J
2090.017	1.617	2096586	WORD	n/a	wordpools/wordpool_EN.txt	MOLE	6	18	[0, 0, 0]	n/a	FR1	1	R1173J
2091.634	0.965	2098203	WORD_OFF	n/a	n/a	MOLE	6	18	[0, 0, 0]	n/a	FR1	1	R1173J
2092.599	1.601	2099168	WORD	n/a	wordpools/wordpool_EN.txt	SKI	7	18	[0, 0, 0]	n/a	FR1	1	R1173J
2094.2	0.817	2100769	WORD_OFF	n/a	n/a	SKI	7	18	[0, 0, 0]	n/a	FR1	1	R1173J
2095.017	1.617	2101586	WORD	n/a	wordpools/wordpool_EN.txt	SLIME	8	18	[0, 0, 0]	n/a	FR1	1	R1173J
2096.634	0.966	2103203	WORD_OFF	n/a	n/a	SLIME	8	18	[0, 0, 0]	n/a	FR1	1	R1173J
2097.6	1.618	2104169	WORD	n/a	wordpools/wordpool_EN.txt	JET	9	18	[0, 0, 0]	n/a	FR1	1	R1173J
2099.218	0.867	2105787	WORD_OFF	n/a	n/a	JET	9	18	[0, 0, 0]	n/a	FR1	1	R1173J
2100.085	1.617	2106654	WORD	n/a	wordpools/wordpool_EN.txt	ICE	10	18	[0, 0, 0]	n/a	FR1	1	R1173J
2101.702	0.949	2108271	WORD_OFF	n/a	n/a	ICE	10	18	[0, 0, 0]	n/a	FR1	1	R1173J
2102.651	1.617	2109220	WORD	n/a	wordpools/wordpool_EN.txt	PLANE	11	18	[0, 0, 0]	n/a	FR1	1	R1173J
2104.268	0.951	2110837	WORD_OFF	n/a	n/a	PLANE	11	18	[0, 0, 0]	n/a	FR1	1	R1173J
2105.219	1.616	2111788	WORD	n/a	wordpools/wordpool_EN.txt	ZOO	12	18	[0, 0, 0]	n/a	FR1	1	R1173J
2106.835	0.0	2113404	WORD_OFF	n/a	n/a	ZOO	12	18	[0, 0, 0]	n/a	FR1	1	R1173J
2106.835	0.001	2113404	DISTRACT_START	n/a	n/a	n/a	-999	18	[0, 0, 0]	n/a	FR1	1	R1173J
2106.836	0.016	2113405	START	n/a	n/a	n/a	-999	18	[-999, -999, -999]	n/a	FR1	1	R1173J
2106.852	4.951	2113421	PROB	4.951	n/a	n/a	-999	18	[5, 6, 8]	19	FR1	1	R1173J
2111.803	4.317	2118372	PROB	4.317	n/a	n/a	-999	18	[5, 2, 9]	16	FR1	1	R1173J
2116.12	5.383	2122689	PROB	5.383	n/a	n/a	-999	18	[4, 8, 6]	18	FR1	1	R1173J
2121.503	6.212	2128071	PROB	6.212	n/a	n/a	-999	18	[7, 9, 3]	19	FR1	1	R1173J
2127.715	0.006	2134283	STOP	n/a	n/a	n/a	-999	18	[-999, -999, -999]	n/a	FR1	1	R1173J
2127.721	0.65	2134289	DISTRACT_END	n/a	n/a	n/a	-999	18	[0, 0, 0]	n/a	FR1	1	R1173J
2128.371	0.518	2134939	RETRIEVAL_ORIENT	n/a	n/a	n/a	-999	18	[0, 0, 0]	n/a	FR1	1	R1173J
2128.889	0.592	2135457	REC_START	n/a	n/a	n/a	-999	18	[0, 0, 0]	n/a	FR1	1	R1173J
2129.481	1.084	2136049	REC_WORD	1.084	n/a	ZOO	-999	18	[0, 0, 0]	n/a	FR1	1	R1173J
2130.565	28.334	2137133	REC_WORD	28.334	n/a	CLOUD	-999	18	[0, 0, 0]	n/a	FR1	1	R1173J
2158.899	17.329	2165467	REC_END	n/a	n/a	n/a	-999	18	[0, 0, 0]	n/a	FR1	1	R1173J
2176.228	0.5	2182796	TRIAL	n/a	n/a	n/a	-999	19	[0, 0, 0]	n/a	FR1	1	R1173J
2176.728	10.428	2183296	COUNTDOWN_START	n/a	n/a	n/a	-999	19	[0, 0, 0]	n/a	FR1	1	R1173J
2187.156	0.007	2193724	COUNTDOWN_END	n/a	n/a	n/a	-999	19	[0, 0, 0]	n/a	FR1	1	R1173J
2187.163	1.616	2193731	ORIENT	n/a	n/a	n/a	-999	19	[0, 0, 0]	n/a	FR1	1	R1173J
2188.779	2.084	2195347	ORIENT_OFF	n/a	n/a	n/a	-999	19	[0, 0, 0]	n/a	FR1	1	R1173J
2190.863	1.616	2197431	WORD	n/a	wordpools/wordpool_EN.txt	HOUSE	1	19	[0, 0, 0]	n/a	FR1	1	R1173J
2192.479	0.916	2199047	WORD_OFF	n/a	n/a	HOUSE	1	19	[0, 0, 0]	n/a	FR1	1	R1173J
2193.395	1.618	2199963	WORD	n/a	wordpools/wordpool_EN.txt	CHAIR	2	19	[0, 0, 0]	n/a	FR1	1	R1173J
2195.013	0.834	2201581	WORD_OFF	n/a	n/a	CHAIR	2	19	[0, 0, 0]	n/a	FR1	1	R1173J
2195.847	1.616	2202415	WORD	n/a	wordpools/wordpool_EN.txt	COUCH	3	19	[0, 0, 0]	n/a	FR1	1	R1173J
2197.463	0.884	2204031	WORD_OFF	n/a	n/a	COUCH	3	19	[0, 0, 0]	n/a	FR1	1	R1173J
2198.347	1.617	2204915	WORD	n/a	wordpools/wordpool_EN.txt	SLEEVE	4	19	[0, 0, 0]	n/a	FR1	1	R1173J
2199.964	0.817	2206532	WORD_OFF	n/a	n/a	SLEEVE	4	19	[0, 0, 0]	n/a	FR1	1	R1173J
2200.781	1.616	2207349	WORD	n/a	wordpools/wordpool_EN.txt	DESK	5	19	[0, 0, 0]	n/a	FR1	1	R1173J
2202.397	0.801	2208965	WORD_OFF	n/a	n/a	DESK	5	19	[0, 0, 0]	n/a	FR1	1	R1173J
2203.198	1.617	2209766	WORD	n/a	wordpools/wordpool_EN.txt	EAR	6	19	[0, 0, 0]	n/a	FR1	1	R1173J
2204.815	0.765	2211383	WORD_OFF	n/a	n/a	EAR	6	19	[0, 0, 0]	n/a	FR1	1	R1173J
2205.58	1.601	2212148	WORD	n/a	wordpools/wordpool_EN.txt	GUARD	7	19	[0, 0, 0]	n/a	FR1	1	R1173J
2207.181	0.968	2213749	WORD_OFF	n/a	n/a	GUARD	7	19	[0, 0, 0]	n/a	FR1	1	R1173J
2208.149	1.616	2214717	WORD	n/a	wordpools/wordpool_EN.txt	OWL	8	19	[0, 0, 0]	n/a	FR1	1	R1173J
2209.765	0.884	2216333	WORD_OFF	n/a	n/a	OWL	8	19	[0, 0, 0]	n/a	FR1	1	R1173J
2210.649	1.617	2217217	WORD	n/a	wordpools/wordpool_EN.txt	CLOCK	9	19	[0, 0, 0]	n/a	FR1	1	R1173J
2212.266	0.999	2218834	WORD_OFF	n/a	n/a	CLOCK	9	19	[0, 0, 0]	n/a	FR1	1	R1173J
2213.265	1.617	2219833	WORD	n/a	wordpools/wordpool_EN.txt	STOOL	10	19	[0, 0, 0]	n/a	FR1	1	R1173J
2214.882	0.85	2221450	WORD_OFF	n/a	n/a	STOOL	10	19	[0, 0, 0]	n/a	FR1	1	R1173J
2215.732	1.618	2222300	WORD	n/a	wordpools/wordpool_EN.txt	DART	11	19	[0, 0, 0]	n/a	FR1	1	R1173J
2217.35	0.85	2223918	WORD_OFF	n/a	n/a	DART	11	19	[0, 0, 0]	n/a	FR1	1	R1173J
2218.2	1.617	2224768	WORD	n/a	wordpools/wordpool_EN.txt	RAT	12	19	[0, 0, 0]	n/a	FR1	1	R1173J
2219.817	0.0	2226385	WORD_OFF	n/a	n/a	RAT	12	19	[0, 0, 0]	n/a	FR1	1	R1173J
2219.817	0.0	2226385	DISTRACT_START	n/a	n/a	n/a	-999	19	[0, 0, 0]	n/a	FR1	1	R1173J
2219.817	0.016	2226385	START	n/a	n/a	n/a	-999	19	[-999, -999, -999]	n/a	FR1	1	R1173J
2219.833	5.583	2226401	PROB	5.583	n/a	n/a	-999	19	[5, 4, 4]	13	FR1	1	R1173J
2225.416	3.285	2231984	PROB	3.285	n/a	n/a	-999	19	[3, 7, 6]	16	FR1	1	R1173J
2228.701	4.2	2235269	PROB	4.2	n/a	n/a	-999	19	[7, 5, 7]	19	FR1	1	R1173J
2232.901	3.334	2239469	PROB	3.334	n/a	n/a	-999	19	[7, 3, 8]	18	FR1	1	R1173J
2236.235	3.2	2242803	PROB	3.2	n/a	n/a	-999	19	[2, 2, 2]	6	FR1	1	R1173J
2239.435	5.892	2246003	PROB	5.892	n/a	n/a	-999	19	[1, 7, 8]	16	FR1	1	R1173J
2245.327	0.009	2251894	STOP	n/a	n/a	n/a	-999	19	[-999, -999, -999]	n/a	FR1	1	R1173J
2245.336	0.701	2251903	DISTRACT_END	n/a	n/a	n/a	-999	19	[0, 0, 0]	n/a	FR1	1	R1173J
2246.037	0.516	2252604	RETRIEVAL_ORIENT	n/a	n/a	n/a	-999	19	[0, 0, 0]	n/a	FR1	1	R1173J
2246.553	0.746	2253120	REC_START	n/a	n/a	n/a	-999	19	[0, 0, 0]	n/a	FR1	1	R1173J
2247.299	1.678	2253866	REC_WORD	1.678	n/a	CLOCK	-999	19	[0, 0, 0]	n/a	FR1	1	R1173J
2248.977	4.325	2255544	REC_WORD	4.325	n/a	DART	-999	19	[0, 0, 0]	n/a	FR1	1	R1173J
2253.302	5.647	2259869	REC_WORD	5.647	n/a	OWL	-999	19	[0, 0, 0]	n/a	FR1	1	R1173J
2258.949	1.652	2265516	REC_WORD	1.652	n/a	HOUSE	-999	19	[0, 0, 0]	n/a	FR1	1	R1173J
2260.601	1.0	2267168	REC_WORD_VV	1.0	n/a	<>	-999	19	[0, 0, 0]	n/a	FR1	1	R1173J
2261.601	10.49	2268168	REC_WORD_VV	10.49	n/a	<>	-999	19	[0, 0, 0]	n/a	FR1	1	R1173J
2272.091	4.475	2278658	REC_WORD	4.475	n/a	COUCH	-999	19	[0, 0, 0]	n/a	FR1	1	R1173J
2276.566	21.993	2283133	REC_END	n/a	n/a	n/a	-999	19	[0, 0, 0]	n/a	FR1	1	R1173J
2298.559	0.5	2305126	TRIAL	n/a	n/a	n/a	-999	20	[0, 0, 0]	n/a	FR1	1	R1173J
2299.059	10.428	2305626	COUNTDOWN_START	n/a	n/a	n/a	-999	20	[0, 0, 0]	n/a	FR1	1	R1173J
2309.487	0.007	2316054	COUNTDOWN_END	n/a	n/a	n/a	-999	20	[0, 0, 0]	n/a	FR1	1	R1173J
2309.494	1.618	2316061	ORIENT	n/a	n/a	n/a	-999	20	[0, 0, 0]	n/a	FR1	1	R1173J
2311.112	2.282	2317679	ORIENT_OFF	n/a	n/a	n/a	-999	20	[0, 0, 0]	n/a	FR1	1	R1173J
2313.394	1.618	2319961	WORD	n/a	wordpools/wordpool_EN.txt	TENT	1	20	[0, 0, 0]	n/a	FR1	1	R1173J
2315.012	0.917	2321579	WORD_OFF	n/a	n/a	TENT	1	20	[0, 0, 0]	n/a	FR1	1	R1173J
2315.929	1.616	2322496	WORD	n/a	wordpools/wordpool_EN.txt	TOOTH	2	20	[0, 0, 0]	n/a	FR1	1	R1173J
2317.545	0.85	2324112	WORD_OFF	n/a	n/a	TOOTH	2	20	[0, 0, 0]	n/a	FR1	1	R1173J
2318.395	1.618	2324962	WORD	n/a	wordpools/wordpool_EN.txt	TRUCK	3	20	[0, 0, 0]	n/a	FR1	1	R1173J
2320.013	0.783	2326580	WORD_OFF	n/a	n/a	TRUCK	3	20	[0, 0, 0]	n/a	FR1	1	R1173J
2320.796	1.616	2327363	WORD	n/a	wordpools/wordpool_EN.txt	SNAKE	4	20	[0, 0, 0]	n/a	FR1	1	R1173J
2322.412	0.918	2328979	WORD_OFF	n/a	n/a	SNAKE	4	20	[0, 0, 0]	n/a	FR1	1	R1173J
2323.33	1.617	2329897	WORD	n/a	wordpools/wordpool_EN.txt	DUCK	5	20	[0, 0, 0]	n/a	FR1	1	R1173J
2324.947	0.916	2331514	WORD_OFF	n/a	n/a	DUCK	5	20	[0, 0, 0]	n/a	FR1	1	R1173J
2325.863	1.616	2332430	WORD	n/a	wordpools/wordpool_EN.txt	PANTS	6	20	[0, 0, 0]	n/a	FR1	1	R1173J
2327.479	0.917	2334046	WORD_OFF	n/a	n/a	PANTS	6	20	[0, 0, 0]	n/a	FR1	1	R1173J
2328.396	1.601	2334963	WORD	n/a	wordpools/wordpool_EN.txt	BRUSH	7	20	[0, 0, 0]	n/a	FR1	1	R1173J
2329.997	0.884	2336564	WORD_OFF	n/a	n/a	BRUSH	7	20	[0, 0, 0]	n/a	FR1	1	R1173J
2330.881	1.616	2337448	WORD	n/a	wordpools/wordpool_EN.txt	PIG	8	20	[0, 0, 0]	n/a	FR1	1	R1173J
2332.497	0.883	2339064	WORD_OFF	n/a	n/a	PIG	8	20	[0, 0, 0]	n/a	FR1	1	R1173J
2333.38	1.601	2339947	WORD	n/a	wordpools/wordpool_EN.txt	TOAD	9	20	[0, 0, 0]	n/a	FR1	1	R1173J
2334.981	0.9	2341548	WORD_OFF	n/a	n/a	TOAD	9	20	[0, 0, 0]	n/a	FR1	1	R1173J
2335.881	1.616	2342448	WORD	n/a	wordpools/wordpool_EN.txt	TOY	10	20	[0, 0, 0]	n/a	FR1	1	R1173J
2337.497	0.9	2344064	WORD_OFF	n/a	n/a	TOY	10	20	[0, 0, 0]	n/a	FR1	1	R1173J
2338.397	1.602	2344964	WORD	n/a	wordpools/wordpool_EN.txt	TEETH	11	20	[0, 0, 0]	n/a	FR1	1	R1173J
2339.999	0.983	2346566	WORD_OFF	n/a	n/a	TEETH	11	20	[0, 0, 0]	n/a	FR1	1	R1173J
2340.982	1.616	2347549	WORD	n/a	wordpools/wordpool_EN.txt	CAGE	12	20	[0, 0, 0]	n/a	FR1	1	R1173J
2342.598	0.0	2349165	WORD_OFF	n/a	n/a	CAGE	12	20	[0, 0, 0]	n/a	FR1	1	R1173J
2342.598	0.001	2349165	DISTRACT_START	n/a	n/a	n/a	-999	20	[0, 0, 0]	n/a	FR1	1	R1173J
2342.599	0.015	2349166	START	n/a	n/a	n/a	-999	20	[-999, -999, -999]	n/a	FR1	1	R1173J
2342.614	5.169	2349181	PROB	5.169	n/a	n/a	-999	20	[3, 4, 7]	14	FR1	1	R1173J
2347.783	3.417	2354350	PROB	3.417	n/a	n/a	-999	20	[4, 5, 5]	14	FR1	1	R1173J
2351.2	4.834	2357767	PROB	4.834	n/a	n/a	-999	20	[9, 4, 7]	20	FR1	1	R1173J
2356.034	3.067	2362601	PROB	3.067	n/a	n/a	-999	20	[5, 1, 1]	7	FR1	1	R1173J
2359.101	3.813	2365668	PROB	3.813	n/a	n/a	-999	20	[4, 2, 4]	10	FR1	1	R1173J
2362.914	0.021	2369481	STOP	n/a	n/a	n/a	-999	20	[-999, -999, -999]	n/a	FR1	1	R1173J
2362.935	0.582	2369502	DISTRACT_END	n/a	n/a	n/a	-999	20	[0, 0, 0]	n/a	FR1	1	R1173J
2363.517	0.519	2370084	RETRIEVAL_ORIENT	n/a	n/a	n/a	-999	20	[0, 0, 0]	n/a	FR1	1	R1173J
2364.036	1.511	2370603	REC_START	n/a	n/a	n/a	-999	20	[0, 0, 0]	n/a	FR1	1	R1173J
2365.547	1.2	2372114	REC_WORD	1.2	n/a	TEETH	-999	20	[0, 0, 0]	n/a	FR1	1	R1173J
2366.747	2.901	2373314	REC_WORD	2.901	n/a	TOOTH	-999	20	[0, 0, 0]	n/a	FR1	1	R1173J
2369.648	3.315	2376214	REC_WORD	3.315	n/a	DUCK	-999	20	[0, 0, 0]	n/a	FR1	1	R1173J
2372.963	21.085	2379529	REC_WORD	21.085	n/a	TENT	-999	20	[0, 0, 0]	n/a	FR1	1	R1173J
2394.048	5.758	2400614	REC_END	n/a	n/a	n/a	-999	20	[0, 0, 0]	n/a	FR1	1	R1173J
2399.806	0.5	2406372	TRIAL	n/a	n/a	n/a	-999	21	[0, 0, 0]	n/a	FR1	1	R1173J
2400.306	10.428	2406872	COUNTDOWN_START	n/a	n/a	n/a	-999	21	[0, 0, 0]	n/a	FR1	1	R1173J
2410.734	0.007	2417300	COUNTDOWN_END	n/a	n/a	n/a	-999	21	[0, 0, 0]	n/a	FR1	1	R1173J
2410.741	1.616	2417307	ORIENT	n/a	n/a	n/a	-999	21	[0, 0, 0]	n/a	FR1	1	R1173J
2412.357	1.818	2418923	ORIENT_OFF	n/a	n/a	n/a	-999	21	[0, 0, 0]	n/a	FR1	1	R1173J
2414.175	1.617	2420741	WORD	n/a	wordpools/wordpool_EN.txt	SPOON	1	21	[0, 0, 0]	n/a	FR1	1	R1173J
2415.792	0.799	2422358	WORD_OFF	n/a	n/a	SPOON	1	21	[0, 0, 0]	n/a	FR1	1	R1173J
2416.591	1.618	2423157	WORD	n/a	wordpools/wordpool_EN.txt	LEG	2	21	[0, 0, 0]	n/a	FR1	1	R1173J
2418.209	0.833	2424775	WORD_OFF	n/a	n/a	LEG	2	21	[0, 0, 0]	n/a	FR1	1	R1173J
2419.042	1.617	2425608	WORD	n/a	wordpools/wordpool_EN.txt	TRAY	3	21	[0, 0, 0]	n/a	FR1	1	R1173J
2420.659	0.783	2427225	WORD_OFF	n/a	n/a	TRAY	3	21	[0, 0, 0]	n/a	FR1	1	R1173J
2421.442	1.617	2428008	WORD	n/a	wordpools/wordpool_EN.txt	MAT	4	21	[0, 0, 0]	n/a	FR1	1	R1173J
2423.059	0.917	2429625	WORD_OFF	n/a	n/a	MAT	4	21	[0, 0, 0]	n/a	FR1	1	R1173J
2423.976	1.616	2430542	WORD	n/a	wordpools/wordpool_EN.txt	SEAT	5	21	[0, 0, 0]	n/a	FR1	1	R1173J
2425.592	0.767	2432158	WORD_OFF	n/a	n/a	SEAT	5	21	[0, 0, 0]	n/a	FR1	1	R1173J
2426.359	1.618	2432925	WORD	n/a	wordpools/wordpool_EN.txt	CUBE	6	21	[0, 0, 0]	n/a	FR1	1	R1173J
2427.977	0.95	2434543	WORD_OFF	n/a	n/a	CUBE	6	21	[0, 0, 0]	n/a	FR1	1	R1173J
2428.927	1.616	2435493	WORD	n/a	wordpools/wordpool_EN.txt	BAG	7	21	[0, 0, 0]	n/a	FR1	1	R1173J
2430.543	0.966	2437109	WORD_OFF	n/a	n/a	BAG	7	21	[0, 0, 0]	n/a	FR1	1	R1173J
2431.509	1.618	2438075	WORD	n/a	wordpools/wordpool_EN.txt	STOVE	8	21	[0, 0, 0]	n/a	FR1	1	R1173J
2433.127	0.95	2439693	WORD_OFF	n/a	n/a	STOVE	8	21	[0, 0, 0]	n/a	FR1	1	R1173J
2434.077	1.617	2440643	WORD	n/a	wordpools/wordpool_EN.txt	DOLL	9	21	[0, 0, 0]	n/a	FR1	1	R1173J
2435.694	0.916	2442260	WORD_OFF	n/a	n/a	DOLL	9	21	[0, 0, 0]	n/a	FR1	1	R1173J
2436.61	1.618	2443176	WORD	n/a	wordpools/wordpool_EN.txt	CANE	10	21	[0, 0, 0]	n/a	FR1	1	R1173J
2438.228	0.817	2444794	WORD_OFF	n/a	n/a	CANE	10	21	[0, 0, 0]	n/a	FR1	1	R1173J
2439.045	1.617	2445611	WORD	n/a	wordpools/wordpool_EN.txt	NOSE	11	21	[0, 0, 0]	n/a	FR1	1	R1173J
2440.662	0.866	2447228	WORD_OFF	n/a	n/a	NOSE	11	21	[0, 0, 0]	n/a	FR1	1	R1173J
2441.528	1.617	2448094	WORD	n/a	wordpools/wordpool_EN.txt	PURSE	12	21	[0, 0, 0]	n/a	FR1	1	R1173J
2443.145	0.0	2449711	WORD_OFF	n/a	n/a	PURSE	12	21	[0, 0, 0]	n/a	FR1	1	R1173J
2443.145	0.0	2449711	DISTRACT_START	n/a	n/a	n/a	-999	21	[0, 0, 0]	n/a	FR1	1	R1173J
2443.145	0.017	2449711	START	n/a	n/a	n/a	-999	21	[-999, -999, -999]	n/a	FR1	1	R1173J
2443.162	3.5	2449728	PROB	3.5	n/a	n/a	-999	21	[8, 1, 3]	12	FR1	1	R1173J
2446.662	6.75	2453228	PROB	6.75	n/a	n/a	-999	21	[8, 6, 6]	20	FR1	1	R1173J
2453.412	9.502	2459978	PROB	9.502	n/a	n/a	-999	21	[7, 5, 9]	21	FR1	1	R1173J
2462.914	3.412	2469480	PROB	3.412	n/a	n/a	-999	21	[2, 1, 1]	4	FR1	1	R1173J
2466.326	0.022	2472892	STOP	n/a	n/a	n/a	-999	21	[-999, -999, -999]	n/a	FR1	1	R1173J
2466.348	0.567	2472914	DISTRACT_END	n/a	n/a	n/a	-999	21	[0, 0, 0]	n/a	FR1	1	R1173J
2466.915	0.517	2473481	RETRIEVAL_ORIENT	n/a	n/a	n/a	-999	21	[0, 0, 0]	n/a	FR1	1	R1173J
2467.432	0.814	2473998	REC_START	n/a	n/a	n/a	-999	21	[0, 0, 0]	n/a	FR1	1	R1173J
2468.246	29.198	2474812	REC_WORD	29.198	n/a	DOLL	-999	21	[0, 0, 0]	n/a	FR1	1	R1173J
2497.444	7.158	2504009	REC_END	n/a	n/a	n/a	-999	21	[0, 0, 0]	n/a	FR1	1	R1173J
2504.602	0.5	2511167	TRIAL	n/a	n/a	n/a	-999	22	[0, 0, 0]	n/a	FR1	1	R1173J
2505.102	10.428	2511667	COUNTDOWN_START	n/a	n/a	n/a	-999	22	[0, 0, 0]	n/a	FR1	1	R1173J
2515.53	0.007	2522095	COUNTDOWN_END	n/a	n/a	n/a	-999	22	[0, 0, 0]	n/a	FR1	1	R1173J
2515.537	1.618	2522102	ORIENT	n/a	n/a	n/a	-999	22	[0, 0, 0]	n/a	FR1	1	R1173J
2517.155	2.067	2523720	ORIENT_OFF	n/a	n/a	n/a	-999	22	[0, 0, 0]	n/a	FR1	1	R1173J
2519.222	1.617	2525787	WORD	n/a	wordpools/wordpool_EN.txt	GOAT	1	22	[0, 0, 0]	n/a	FR1	1	R1173J
2520.839	1.0	2527404	WORD_OFF	n/a	n/a	GOAT	1	22	[0, 0, 0]	n/a	FR1	1	R1173J
2521.839	1.615	2528404	WORD	n/a	wordpools/wordpool_EN.txt	SWAMP	2	22	[0, 0, 0]	n/a	FR1	1	R1173J
2523.454	1.0	2530019	WORD_OFF	n/a	n/a	SWAMP	2	22	[0, 0, 0]	n/a	FR1	1	R1173J
2524.454	1.602	2531019	WORD	n/a	wordpools/wordpool_EN.txt	RAKE	3	22	[0, 0, 0]	n/a	FR1	1	R1173J
2526.056	0.9	2532621	WORD_OFF	n/a	n/a	RAKE	3	22	[0, 0, 0]	n/a	FR1	1	R1173J
2526.956	1.616	2533521	WORD	n/a	wordpools/wordpool_EN.txt	HORSE	4	22	[0, 0, 0]	n/a	FR1	1	R1173J
2528.572	0.867	2535137	WORD_OFF	n/a	n/a	HORSE	4	22	[0, 0, 0]	n/a	FR1	1	R1173J
2529.439	1.618	2536004	WORD	n/a	wordpools/wordpool_EN.txt	STEAM	5	22	[0, 0, 0]	n/a	FR1	1	R1173J
2531.057	0.983	2537622	WORD_OFF	n/a	n/a	STEAM	5	22	[0, 0, 0]	n/a	FR1	1	R1173J
2532.04	1.617	2538605	WORD	n/a	wordpools/wordpool_EN.txt	CONE	6	22	[0, 0, 0]	n/a	FR1	1	R1173J
2533.657	0.932	2540222	WORD_OFF	n/a	n/a	CONE	6	22	[0, 0, 0]	n/a	FR1	1	R1173J
2534.589	1.618	2541154	WORD	n/a	wordpools/wordpool_EN.txt	ROPE	7	22	[0, 0, 0]	n/a	FR1	1	R1173J
2536.207	0.967	2542772	WORD_OFF	n/a	n/a	ROPE	7	22	[0, 0, 0]	n/a	FR1	1	R1173J
2537.174	1.617	2543739	WORD	n/a	wordpools/wordpool_EN.txt	LAKE	8	22	[0, 0, 0]	n/a	FR1	1	R1173J
2538.791	0.765	2545356	WORD_OFF	n/a	n/a	LAKE	8	22	[0, 0, 0]	n/a	FR1	1	R1173J
2539.556	1.602	2546121	WORD	n/a	wordpools/wordpool_EN.txt	SPEAR	9	22	[0, 0, 0]	n/a	FR1	1	R1173J
2541.158	0.783	2547723	WORD_OFF	n/a	n/a	SPEAR	9	22	[0, 0, 0]	n/a	FR1	1	R1173J
2541.941	1.616	2548506	WORD	n/a	wordpools/wordpool_EN.txt	ROSE	10	22	[0, 0, 0]	n/a	FR1	1	R1173J
2543.557	0.9	2550122	WORD_OFF	n/a	n/a	ROSE	10	22	[0, 0, 0]	n/a	FR1	1	R1173J
2544.457	1.618	2551022	WORD	n/a	wordpools/wordpool_EN.txt	BRIDGE	11	22	[0, 0, 0]	n/a	FR1	1	R1173J
2546.075	0.917	2552640	WORD_OFF	n/a	n/a	BRIDGE	11	22	[0, 0, 0]	n/a	FR1	1	R1173J
2546.992	1.616	2553557	WORD	n/a	wordpools/wordpool_EN.txt	BEAK	12	22	[0, 0, 0]	n/a	FR1	1	R1173J
2548.608	0.0	2555173	WORD_OFF	n/a	n/a	BEAK	12	22	[0, 0, 0]	n/a	FR1	1	R1173J
2548.608	0.0	2555173	DISTRACT_START	n/a	n/a	n/a	-999	22	[0, 0, 0]	n/a	FR1	1	R1173J
2548.608	0.017	2555173	START	n/a	n/a	n/a	-999	22	[-999, -999, -999]	n/a	FR1	1	R1173J
2548.625	5.518	2555190	PROB	5.518	n/a	n/a	-999	22	[9, 4, 6]	19	FR1	1	R1173J
2554.143	4.067	2560708	PROB	4.067	n/a	n/a	-999	22	[7, 7, 3]	17	FR1	1	R1173J
2558.21	3.067	2564775	PROB	3.067	n/a	n/a	-999	22	[2, 8, 5]	15	FR1	1	R1173J
2561.277	5.283	2567842	PROB	5.283	n/a	n/a	-999	22	[5, 8, 6]	19	FR1	1	R1173J
2566.56	3.137	2573125	PROB	3.137	n/a	n/a	-999	22	[2, 6, 3]	11	FR1	1	R1173J
2569.697	0.015	2576262	STOP	n/a	n/a	n/a	-999	22	[-999, -999, -999]	n/a	FR1	1	R1173J
2569.712	0.583	2576277	DISTRACT_END	n/a	n/a	n/a	-999	22	[0, 0, 0]	n/a	FR1	1	R1173J
2570.295	0.518	2576860	RETRIEVAL_ORIENT	n/a	n/a	n/a	-999	22	[0, 0, 0]	n/a	FR1	1	R1173J
2570.813	0.829	2577378	REC_START	n/a	n/a	n/a	-999	22	[0, 0, 0]	n/a	FR1	1	R1173J
2571.642	16.548	2578207	REC_WORD	16.548	n/a	BEAK	-999	22	[0, 0, 0]	n/a	FR1	1	R1173J
2588.19	12.637	2594755	REC_WORD	12.637	n/a	BRIDGE	-999	22	[0, 0, 0]	n/a	FR1	1	R1173J
2600.827	6.122	2607392	REC_END	n/a	n/a	n/a	-999	22	[0, 0, 0]	n/a	FR1	1	R1173J
2606.949	0.5	2613514	TRIAL	n/a	n/a	n/a	-999	23	[0, 0, 0]	n/a	FR1	1	R1173J
2607.449	10.428	2614014	COUNTDOWN_START	n/a	n/a	n/a	-999	23	[0, 0, 0]	n/a	FR1	1	R1173J
2617.877	0.007	2624442	COUNTDOWN_END	n/a	n/a	n/a	-999	23	[0, 0, 0]	n/a	FR1	1	R1173J
2617.884	1.616	2624449	ORIENT	n/a	n/a	n/a	-999	23	[0, 0, 0]	n/a	FR1	1	R1173J
2619.5	2.067	2626064	ORIENT_OFF	n/a	n/a	n/a	-999	23	[0, 0, 0]	n/a	FR1	1	R1173J
2621.567	1.618	2628131	WORD	n/a	wordpools/wordpool_EN.txt	SLUSH	1	23	[0, 0, 0]	n/a	FR1	1	R1173J
2623.185	0.95	2629749	WORD_OFF	n/a	n/a	SLUSH	1	23	[0, 0, 0]	n/a	FR1	1	R1173J
2624.135	1.617	2630699	WORD	n/a	wordpools/wordpool_EN.txt	OAK	2	23	[0, 0, 0]	n/a	FR1	1	R1173J
2625.752	0.832	2632316	WORD_OFF	n/a	n/a	OAK	2	23	[0, 0, 0]	n/a	FR1	1	R1173J
2626.584	1.618	2633148	WORD	n/a	wordpools/wordpool_EN.txt	BED	3	23	[0, 0, 0]	n/a	FR1	1	R1173J
2628.202	0.817	2634766	WORD_OFF	n/a	n/a	BED	3	23	[0, 0, 0]	n/a	FR1	1	R1173J
2629.019	1.617	2635583	WORD	n/a	wordpools/wordpool_EN.txt	LEAF	4	23	[0, 0, 0]	n/a	FR1	1	R1173J
2630.636	0.916	2637200	WORD_OFF	n/a	n/a	LEAF	4	23	[0, 0, 0]	n/a	FR1	1	R1173J
2631.552	1.617	2638116	WORD	n/a	wordpools/wordpool_EN.txt	CLIFF	5	23	[0, 0, 0]	n/a	FR1	1	R1173J
2633.169	0.884	2639733	WORD_OFF	n/a	n/a	CLIFF	5	23	[0, 0, 0]	n/a	FR1	1	R1173J
2634.053	1.617	2640617	WORD	n/a	wordpools/wordpool_EN.txt	HAWK	6	23	[0, 0, 0]	n/a	FR1	1	R1173J
2635.67	0.95	2642234	WORD_OFF	n/a	n/a	HAWK	6	23	[0, 0, 0]	n/a	FR1	1	R1173J
2636.62	1.617	2643184	WORD	n/a	wordpools/wordpool_EN.txt	ROOM	7	23	[0, 0, 0]	n/a	FR1	1	R1173J
2638.237	0.933	2644801	WORD_OFF	n/a	n/a	ROOM	7	23	[0, 0, 0]	n/a	FR1	1	R1173J
2639.17	1.617	2645734	WORD	n/a	wordpools/wordpool_EN.txt	ROOT	8	23	[0, 0, 0]	n/a	FR1	1	R1173J
2640.787	0.934	2647351	WORD_OFF	n/a	n/a	ROOT	8	23	[0, 0, 0]	n/a	FR1	1	R1173J
2641.721	1.616	2648285	WORD	n/a	wordpools/wordpool_EN.txt	STEM	9	23	[0, 0, 0]	n/a	FR1	1	R1173J
2643.337	0.917	2649901	WORD_OFF	n/a	n/a	STEM	9	23	[0, 0, 0]	n/a	FR1	1	R1173J
2644.254	1.617	2650818	WORD	n/a	wordpools/wordpool_EN.txt	FLOOR	10	23	[0, 0, 0]	n/a	FR1	1	R1173J
2645.871	0.9	2652435	WORD_OFF	n/a	n/a	FLOOR	10	23	[0, 0, 0]	n/a	FR1	1	R1173J
2646.771	1.616	2653335	WORD	n/a	wordpools/wordpool_EN.txt	ANT	11	23	[0, 0, 0]	n/a	FR1	1	R1173J
2648.387	0.967	2654951	WORD_OFF	n/a	n/a	ANT	11	23	[0, 0, 0]	n/a	FR1	1	R1173J
2649.354	1.618	2655918	WORD	n/a	wordpools/wordpool_EN.txt	WING	12	23	[0, 0, 0]	n/a	FR1	1	R1173J
2650.972	0.0	2657536	WORD_OFF	n/a	n/a	WING	12	23	[0, 0, 0]	n/a	FR1	1	R1173J
2650.972	0.001	2657536	DISTRACT_START	n/a	n/a	n/a	-999	23	[0, 0, 0]	n/a	FR1	1	R1173J
2650.973	0.016	2657537	START	n/a	n/a	n/a	-999	23	[-999, -999, -999]	n/a	FR1	1	R1173J
2650.989	3.399	2657553	PROB	3.399	n/a	n/a	-999	23	[8, 1, 9]	18	FR1	1	R1173J
2654.388	3.285	2660952	PROB	3.285	n/a	n/a	-999	23	[5, 7, 5]	17	FR1	1	R1173J
2657.673	4.832	2664237	PROB	4.832	n/a	n/a	-999	23	[9, 3, 3]	5	FR1	1	R1173J
2662.505	4.885	2669069	PROB	4.885	n/a	n/a	-999	23	[7, 8, 7]	22	FR1	1	R1173J
2667.39	5.576	2673954	PROB	5.576	n/a	n/a	-999	23	[3, 3, 9]	15	FR1	1	R1173J
2672.966	0.008	2679530	STOP	n/a	n/a	n/a	-999	23	[-999, -999, -999]	n/a	FR1	1	R1173J
2672.974	0.651	2679538	DISTRACT_END	n/a	n/a	n/a	-999	23	[0, 0, 0]	n/a	FR1	1	R1173J
2673.625	0.517	2680189	RETRIEVAL_ORIENT	n/a	n/a	n/a	-999	23	[0, 0, 0]	n/a	FR1	1	R1173J
2674.142	20.663	2680706	REC_START	n/a	n/a	n/a	-999	23	[0, 0, 0]	n/a	FR1	1	R1173J
2694.805	9.349	2701369	REC_WORD_VV	9.349	n/a	<>	-999	23	[0, 0, 0]	n/a	FR1	1	R1173J
2704.154	10.726	2710718	REC_END	n/a	n/a	n/a	-999	23	[0, 0, 0]	n/a	FR1	1	R1173J
2714.88	0.5	2721444	TRIAL	n/a	n/a	n/a	-999	24	[0, 0, 0]	n/a	FR1	1	R1173J
2715.38	10.428	2721944	COUNTDOWN_START	n/a	n/a	n/a	-999	24	[0, 0, 0]	n/a	FR1	1	R1173J
2725.808	0.007	2732372	COUNTDOWN_END	n/a	n/a	n/a	-999	24	[0, 0, 0]	n/a	FR1	1	R1173J
2725.815	1.616	2732379	ORIENT	n/a	n/a	n/a	-999	24	[0, 0, 0]	n/a	FR1	1	R1173J
2727.431	2.234	2733995	ORIENT_OFF	n/a	n/a	n/a	-999	24	[0, 0, 0]	n/a	FR1	1	R1173J
2729.665	1.617	2736229	WORD	n/a	wordpools/wordpool_EN.txt	PLATE	1	24	[0, 0, 0]	n/a	FR1	1	R1173J
2731.282	1.0	2737846	WORD_OFF	n/a	n/a	PLATE	1	24	[0, 0, 0]	n/a	FR1	1	R1173J
2732.282	1.617	2738846	WORD	n/a	wordpools/wordpool_EN.txt	CAKE	2	24	[0, 0, 0]	n/a	FR1	1	R1173J
2733.899	0.917	2740463	WORD_OFF	n/a	n/a	CAKE	2	24	[0, 0, 0]	n/a	FR1	1	R1173J
2734.816	1.616	2741380	WORD	n/a	wordpools/wordpool_EN.txt	KITE	3	24	[0, 0, 0]	n/a	FR1	1	R1173J
2736.432	0.851	2742996	WORD_OFF	n/a	n/a	KITE	3	24	[0, 0, 0]	n/a	FR1	1	R1173J
2737.283	1.617	2743847	WORD	n/a	wordpools/wordpool_EN.txt	RUG	4	24	[0, 0, 0]	n/a	FR1	1	R1173J
2738.9	0.933	2745464	WORD_OFF	n/a	n/a	RUG	4	24	[0, 0, 0]	n/a	FR1	1	R1173J
2739.833	1.616	2746397	WORD	n/a	wordpools/wordpool_EN.txt	SHOE	5	24	[0, 0, 0]	n/a	FR1	1	R1173J
2741.449	0.95	2748013	WORD_OFF	n/a	n/a	SHOE	5	24	[0, 0, 0]	n/a	FR1	1	R1173J
2742.399	1.618	2748963	WORD	n/a	wordpools/wordpool_EN.txt	CLOWN	6	24	[0, 0, 0]	n/a	FR1	1	R1173J
2744.017	0.9	2750580	WORD_OFF	n/a	n/a	CLOWN	6	24	[0, 0, 0]	n/a	FR1	1	R1173J
2744.917	1.616	2751480	WORD	n/a	wordpools/wordpool_EN.txt	BOWL	7	24	[0, 0, 0]	n/a	FR1	1	R1173J
2746.533	0.967	2753096	WORD_OFF	n/a	n/a	BOWL	7	24	[0, 0, 0]	n/a	FR1	1	R1173J
2747.5	1.601	2754063	WORD	n/a	wordpools/wordpool_EN.txt	FAN	8	24	[0, 0, 0]	n/a	FR1	1	R1173J
2749.101	0.917	2755664	WORD_OFF	n/a	n/a	FAN	8	24	[0, 0, 0]	n/a	FR1	1	R1173J
2750.018	1.617	2756581	WORD	n/a	wordpools/wordpool_EN.txt	BOX	9	24	[0, 0, 0]	n/a	FR1	1	R1173J
2751.635	0.932	2758198	WORD_OFF	n/a	n/a	BOX	9	24	[0, 0, 0]	n/a	FR1	1	R1173J
2752.567	1.618	2759130	WORD	n/a	wordpools/wordpool_EN.txt	DIME	10	24	[0, 0, 0]	n/a	FR1	1	R1173J
2754.185	1.017	2760748	WORD_OFF	n/a	n/a	DIME	10	24	[0, 0, 0]	n/a	FR1	1	R1173J
2755.202	1.617	2761765	WORD	n/a	wordpools/wordpool_EN.txt	PIN	11	24	[0, 0, 0]	n/a	FR1	1	R1173J
2756.819	0.916	2763382	WORD_OFF	n/a	n/a	PIN	11	24	[0, 0, 0]	n/a	FR1	1	R1173J
2757.735	1.617	2764298	WORD	n/a	wordpools/wordpool_EN.txt	DRESS	12	24	[0, 0, 0]	n/a	FR1	1	R1173J
2759.352	0.0	2765915	DISTRACT_START	n/a	n/a	n/a	-999	24	[0, 0, 0]	n/a	FR1	1	R1173J
2759.352	0.0	2765915	WORD_OFF	n/a	n/a	DRESS	12	24	[0, 0, 0]	n/a	FR1	1	R1173J
2759.352	0.016	2765915	START	n/a	n/a	n/a	-999	24	[-999, -999, -999]	n/a	FR1	1	R1173J
2759.368	5.001	2765931	PROB	5.001	n/a	n/a	-999	24	[7, 3, 4]	14	FR1	1	R1173J
2764.369	5.352	2770932	PROB	5.352	n/a	n/a	-999	24	[3, 8, 3]	14	FR1	1	R1173J
2769.721	2.966	2776284	PROB	2.966	n/a	n/a	-999	24	[1, 1, 3]	5	FR1	1	R1173J
2772.687	5.884	2779250	PROB	5.884	n/a	n/a	-999	24	[8, 4, 5]	17	FR1	1	R1173J
2778.571	4.885	2785134	PROB	4.885	n/a	n/a	-999	24	[5, 8, 8]	21	FR1	1	R1173J
2783.456	0.015	2790019	STOP	n/a	n/a	n/a	-999	24	[-999, -999, -999]	n/a	FR1	1	R1173J
2783.471	0.551	2790034	DISTRACT_END	n/a	n/a	n/a	-999	24	[0, 0, 0]	n/a	FR1	1	R1173J
2784.022	0.517	2790585	RETRIEVAL_ORIENT	n/a	n/a	n/a	-999	24	[0, 0, 0]	n/a	FR1	1	R1173J
2784.539	0.729	2791102	REC_START	n/a	n/a	n/a	-999	24	[0, 0, 0]	n/a	FR1	1	R1173J
2785.268	29.284	2791831	REC_WORD	29.284	n/a	CAKE	-999	24	[0, 0, 0]	n/a	FR1	1	R1173J
2814.552	6.508	2821115	REC_END	n/a	n/a	n/a	-999	24	[0, 0, 0]	n/a	FR1	1	R1173J
2821.06	0.5	2827623	TRIAL	n/a	n/a	n/a	-999	25	[0, 0, 0]	n/a	FR1	1	R1173J
2821.56	10.428	2828123	COUNTDOWN_START	n/a	n/a	n/a	-999	25	[0, 0, 0]	n/a	FR1	1	R1173J
2831.988	0.007	2838551	COUNTDOWN_END	n/a	n/a	n/a	-999	25	[0, 0, 0]	n/a	FR1	1	R1173J
2831.995	1.616	2838558	ORIENT	n/a	n/a	n/a	-999	25	[0, 0, 0]	n/a	FR1	1	R1173J
2833.611	2.034	2840174	ORIENT_OFF	n/a	n/a	n/a	-999	25	[0, 0, 0]	n/a	FR1	1	R1173J
2835.645	1.617	2842208	WORD	n/a	wordpools/wordpool_EN.txt	STAIR	1	25	[0, 0, 0]	n/a	FR1	1	R1173J
2837.262	0.917	2843825	WORD_OFF	n/a	n/a	STAIR	1	25	[0, 0, 0]	n/a	FR1	1	R1173J
2838.179	1.617	2844742	WORD	n/a	wordpools/wordpool_EN.txt	WALL	2	25	[0, 0, 0]	n/a	FR1	1	R1173J
2839.796	0.9	2846359	WORD_OFF	n/a	n/a	WALL	2	25	[0, 0, 0]	n/a	FR1	1	R1173J
2840.696	1.617	2847259	WORD	n/a	wordpools/wordpool_EN.txt	FUDGE	3	25	[0, 0, 0]	n/a	FR1	1	R1173J
2842.313	0.8	2848876	WORD_OFF	n/a	n/a	FUDGE	3	25	[0, 0, 0]	n/a	FR1	1	R1173J
2843.113	1.617	2849676	WORD	n/a	wordpools/wordpool_EN.txt	JAIL	4	25	[0, 0, 0]	n/a	FR1	1	R1173J
2844.73	0.983	2851293	WORD_OFF	n/a	n/a	JAIL	4	25	[0, 0, 0]	n/a	FR1	1	R1173J
2845.713	1.617	2852276	WORD	n/a	wordpools/wordpool_EN.txt	SMOKE	5	25	[0, 0, 0]	n/a	FR1	1	R1173J
2847.33	0.917	2853893	WORD_OFF	n/a	n/a	SMOKE	5	25	[0, 0, 0]	n/a	FR1	1	R1173J
2848.247	1.617	2854810	WORD	n/a	wordpools/wordpool_EN.txt	FLAG	6	25	[0, 0, 0]	n/a	FR1	1	R1173J
2849.864	0.95	2856427	WORD_OFF	n/a	n/a	FLAG	6	25	[0, 0, 0]	n/a	FR1	1	R1173J
2850.814	1.616	2857377	WORD	n/a	wordpools/wordpool_EN.txt	CAR	7	25	[0, 0, 0]	n/a	FR1	1	R1173J
2852.43	0.884	2858993	WORD_OFF	n/a	n/a	CAR	7	25	[0, 0, 0]	n/a	FR1	1	R1173J
2853.314	1.617	2859877	WORD	n/a	wordpools/wordpool_EN.txt	SUIT	8	25	[0, 0, 0]	n/a	FR1	1	R1173J
2854.931	1.017	2861494	WORD_OFF	n/a	n/a	SUIT	8	25	[0, 0, 0]	n/a	FR1	1	R1173J
2855.948	1.616	2862511	WORD	n/a	wordpools/wordpool_EN.txt	HEART	9	25	[0, 0, 0]	n/a	FR1	1	R1173J
2857.564	0.817	2864127	WORD_OFF	n/a	n/a	HEART	9	25	[0, 0, 0]	n/a	FR1	1	R1173J
2858.381	1.618	2864944	WORD	n/a	wordpools/wordpool_EN.txt	MAZE	10	25	[0, 0, 0]	n/a	FR1	1	R1173J
2859.999	0.9	2866562	WORD_OFF	n/a	n/a	MAZE	10	25	[0, 0, 0]	n/a	FR1	1	R1173J
2860.899	1.615	2867462	WORD	n/a	wordpools/wordpool_EN.txt	PHONE	11	25	[0, 0, 0]	n/a	FR1	1	R1173J
2862.514	0.967	2869077	WORD_OFF	n/a	n/a	PHONE	11	25	[0, 0, 0]	n/a	FR1	1	R1173J
2863.481	1.618	2870044	WORD	n/a	wordpools/wordpool_EN.txt	HAT	12	25	[0, 0, 0]	n/a	FR1	1	R1173J
2865.099	0.0	2871662	WORD_OFF	n/a	n/a	HAT	12	25	[0, 0, 0]	n/a	FR1	1	R1173J
2865.099	0.001	2871662	DISTRACT_START	n/a	n/a	n/a	-999	25	[0, 0, 0]	n/a	FR1	1	R1173J
2865.1	0.016	2871663	START	n/a	n/a	n/a	-999	25	[-999, -999, -999]	n/a	FR1	1	R1173J
2865.116	3.584	2871679	PROB	3.584	n/a	n/a	-999	25	[9, 9, 3]	21	FR1	1	R1173J
2868.7	4.467	2875262	PROB	4.467	n/a	n/a	-999	25	[2, 8, 6]	16	FR1	1	R1173J
2873.167	5.4	2879729	PROB	5.4	n/a	n/a	-999	25	[9, 4, 9]	22	FR1	1	R1173J
2878.567	2.9	2885129	PROB	2.9	n/a	n/a	-999	25	[6, 2, 6]	14	FR1	1	R1173J
2881.467	3.268	2888029	PROB	3.268	n/a	n/a	-999	25	[3, 1, 4]	8	FR1	1	R1173J
2884.735	3.252	2891297	PROB	3.252	n/a	n/a	-999	25	[5, 3, 7]	15	FR1	1	R1173J
2887.987	0.015	2894549	STOP	n/a	n/a	n/a	-999	25	[-999, -999, -999]	n/a	FR1	1	R1173J
2888.002	0.549	2894564	DISTRACT_END	n/a	n/a	n/a	-999	25	[0, 0, 0]	n/a	FR1	1	R1173J
2888.551	0.519	2895113	RETRIEVAL_ORIENT	n/a	n/a	n/a	-999	25	[0, 0, 0]	n/a	FR1	1	R1173J
2889.07	0.718	2895632	REC_START	n/a	n/a	n/a	-999	25	[0, 0, 0]	n/a	FR1	1	R1173J
2889.788	1.163	2896350	REC_WORD	1.163	n/a	MAZE	-999	25	[0, 0, 0]	n/a	FR1	1	R1173J
2890.951	0.806	2897513	REC_WORD	0.806	n/a	WALL	-999	25	[0, 0, 0]	n/a	FR1	1	R1173J
2891.757	1.063	2898319	REC_WORD	1.063	n/a	STAIR	-999	25	[0, 0, 0]	n/a	FR1	1	R1173J
2892.82	4.061	2899382	REC_WORD	4.061	n/a	SMOKE	-999	25	[0, 0, 0]	n/a	FR1	1	R1173J
2896.881	9.258	2903443	REC_WORD_VV	9.258	n/a	<>	-999	25	[0, 0, 0]	n/a	FR1	1	R1173J
2906.139	12.944	2912701	REC_WORD_VV	12.944	n/a	<>	-999	25	[0, 0, 0]	n/a	FR1	1	R1173J
2919.083	19.542	2925645	REC_END	n/a	n/a	n/a	-999	25	[0, 0, 0]	n/a	FR1	1	R1173J
2938.625	0.0	2945187	SESS_END	n/a	n/a	n/a	-999	25	[0, 0, 0]	n/a	FR1	1	R1173J
