onset	duration	sample	trial_type	response_time	stim_file	item_name	serialpos	list	test	answer	experiment	session	subject
0.0	192.846	2013	INSTRUCT_START	n/a	n/a	n/a	-999	-999	[0, 0, 0]	n/a	FR1	3	R1339D
192.846	5.018	194849	INSTRUCT_END	n/a	n/a	n/a	-999	-999	[0, 0, 0]	n/a	FR1	3	R1339D
197.864	12.227	199867	MIC TEST_START	n/a	n/a	n/a	-999	-999	[0, 0, 0]	n/a	FR1	3	R1339D
210.091	0.011	212093	MIC TEST_END	n/a	n/a	n/a	-999	-999	[0, 0, 0]	n/a	FR1	3	R1339D
210.102	0.0	212104	TRIAL_START	n/a	n/a	n/a	-999	-1	[0, 0, 0]	n/a	FR1	3	R1339D
210.102	0.001	212104	TRIAL	n/a	n/a	n/a	-999	-1	[0, 0, 0]	n/a	FR1	3	R1339D
210.103	2.547	212105	WAITING_START	n/a	n/a	n/a	-999	-1	[0, 0, 0]	n/a	FR1	3	R1339D
212.65	0.001	214652	WAITING_END	n/a	n/a	n/a	-999	-1	[0, 0, 0]	n/a	FR1	3	R1339D
212.651	10.429	214653	COUNTDOWN_START	n/a	n/a	n/a	-999	-1	[0, 0, 0]	n/a	FR1	3	R1339D
223.08	0.0	225082	COUNTDOWN_END	n/a	n/a	n/a	-999	-1	[0, 0, 0]	n/a	FR1	3	R1339D
223.08	1.139	225082	ORIENT_START	n/a	n/a	n/a	-999	-1	[0, 0, 0]	n/a	FR1	3	R1339D
224.219	0.001	226221	ORIENT_END	n/a	n/a	n/a	-999	-1	[0, 0, 0]	n/a	FR1	3	R1339D
224.22	0.833	226222	ENCODING_START	n/a	n/a	n/a	-999	-1	[0, 0, 0]	n/a	FR1	3	R1339D
225.053	1.633	227055	WORD	n/a	n/a	IMAGE	1	-1	[0, 0, 0]	n/a	FR1	3	R1339D
226.686	0.89	228688	WORD_OFF	n/a	n/a	IMAGE	1	-1	[0, 0, 0]	n/a	FR1	3	R1339D
227.576	1.627	229578	WORD	n/a	n/a	RING	2	-1	[0, 0, 0]	n/a	FR1	3	R1339D
229.203	1.079	231204	WORD_OFF	n/a	n/a	RING	2	-1	[0, 0, 0]	n/a	FR1	3	R1339D
230.282	1.639	232283	WORD	n/a	n/a	FLOOD	3	-1	[0, 0, 0]	n/a	FR1	3	R1339D
231.921	1.088	233922	WORD_OFF	n/a	n/a	FLOOD	3	-1	[0, 0, 0]	n/a	FR1	3	R1339D
233.009	1.629	235010	WORD	n/a	n/a	RHINO	4	-1	[0, 0, 0]	n/a	FR1	3	R1339D
234.638	1.073	236639	WORD_OFF	n/a	n/a	RHINO	4	-1	[0, 0, 0]	n/a	FR1	3	R1339D
235.711	1.627	237712	WORD	n/a	n/a	CHEST	5	-1	[0, 0, 0]	n/a	FR1	3	R1339D
237.338	0.821	239339	WORD_OFF	n/a	n/a	CHEST	5	-1	[0, 0, 0]	n/a	FR1	3	R1339D
238.159	1.63	240160	WORD	n/a	n/a	BABY	6	-1	[0, 0, 0]	n/a	FR1	3	R1339D
239.789	0.803	241790	WORD_OFF	n/a	n/a	BABY	6	-1	[0, 0, 0]	n/a	FR1	3	R1339D
240.592	1.63	242593	WORD	n/a	n/a	TONGUE	7	-1	[0, 0, 0]	n/a	FR1	3	R1339D
242.222	0.814	244223	WORD_OFF	n/a	n/a	TONGUE	7	-1	[0, 0, 0]	n/a	FR1	3	R1339D
243.036	1.637	245037	WORD	n/a	n/a	WAGON	8	-1	[0, 0, 0]	n/a	FR1	3	R1339D
244.673	0.939	246674	WORD_OFF	n/a	n/a	WAGON	8	-1	[0, 0, 0]	n/a	FR1	3	R1339D
245.612	1.628	247613	WORD	n/a	n/a	BEAM	9	-1	[0, 0, 0]	n/a	FR1	3	R1339D
247.24	1.139	249241	WORD_OFF	n/a	n/a	BEAM	9	-1	[0, 0, 0]	n/a	FR1	3	R1339D
248.379	1.628	250380	WORD	n/a	n/a	COTTON	10	-1	[0, 0, 0]	n/a	FR1	3	R1339D
250.007	0.765	252007	WORD_OFF	n/a	n/a	COTTON	10	-1	[0, 0, 0]	n/a	FR1	3	R1339D
250.772	1.636	252772	WORD	n/a	n/a	WATCH	11	-1	[0, 0, 0]	n/a	FR1	3	R1339D
252.408	0.83	254408	WORD_OFF	n/a	n/a	WATCH	11	-1	[0, 0, 0]	n/a	FR1	3	R1339D
253.238	1.636	255238	WORD	n/a	n/a	CAMEL	12	-1	[0, 0, 0]	n/a	FR1	3	R1339D
254.874	0.0	256874	WORD_OFF	n/a	n/a	CAMEL	12	-1	[0, 0, 0]	n/a	FR1	3	R1339D
254.874	0.001	256874	ENCODING_END	n/a	n/a	n/a	-999	-1	[0, 0, 0]	n/a	FR1	3	R1339D
254.875	0.0	256875	DISTRACT_START	n/a	n/a	n/a	-999	-1	[0, 0, 0]	n/a	FR1	3	R1339D
254.875	0.016	256875	START	n/a	n/a	n/a	-999	-1	[-999, -999, -999]	n/a	FR1	3	R1339D
254.891	5.868	256891	PROB	5.868	n/a	n/a	-999	-1	[3, 6, 6]	9	FR1	3	R1339D
260.759	1.017	262759	PROB	1.017	n/a	n/a	-999	-1	[8, 2, 1]	9	FR1	3	R1339D
261.776	0.65	263776	PROB	0.65	n/a	n/a	-999	-1	[8, 8, 5]	9	FR1	3	R1339D
262.426	0.867	264426	PROB	0.867	n/a	n/a	-999	-1	[5, 7, 1]	9	FR1	3	R1339D
263.293	0.516	265293	PROB	0.516	n/a	n/a	-999	-1	[2, 1, 7]	9	FR1	3	R1339D
263.809	0.834	265809	PROB	0.834	n/a	n/a	-999	-1	[8, 9, 9]	99	FR1	3	R1339D
264.643	0.717	266643	PROB	0.717	n/a	n/a	-999	-1	[1, 5, 6]	9	FR1	3	R1339D
265.36	0.467	267360	PROB	0.467	n/a	n/a	-999	-1	[6, 2, 8]	9	FR1	3	R1339D
265.827	0.416	267827	PROB	0.416	n/a	n/a	-999	-1	[5, 4, 1]	9	FR1	3	R1339D
266.243	0.467	268243	PROB	0.467	n/a	n/a	-999	-1	[8, 6, 4]	9	FR1	3	R1339D
266.71	0.467	268710	PROB	0.467	n/a	n/a	-999	-1	[6, 2, 9]	9	FR1	3	R1339D
267.177	0.516	269177	PROB	0.516	n/a	n/a	-999	-1	[9, 1, 6]	9	FR1	3	R1339D
267.693	0.401	269693	PROB	0.401	n/a	n/a	-999	-1	[2, 4, 9]	9	FR1	3	R1339D
268.094	0.4	270093	PROB	0.4	n/a	n/a	-999	-1	[7, 8, 9]	9	FR1	3	R1339D
268.494	0.416	270493	PROB	0.416	n/a	n/a	-999	-1	[8, 5, 3]	9	FR1	3	R1339D
268.91	0.4	270909	PROB	0.4	n/a	n/a	-999	-1	[3, 6, 1]	9	FR1	3	R1339D
269.31	0.417	271309	PROB	0.417	n/a	n/a	-999	-1	[4, 5, 8]	9	FR1	3	R1339D
269.727	0.4	271726	PROB	0.4	n/a	n/a	-999	-1	[6, 8, 3]	9	FR1	3	R1339D
270.127	0.917	272126	PROB	0.917	n/a	n/a	-999	-1	[9, 6, 4]	9	FR1	3	R1339D
271.044	5.585	273043	PROB	5.585	n/a	n/a	-999	-1	[7, 6, 1]	14	FR1	3	R1339D
276.629	0.016	278628	STOP	n/a	n/a	n/a	-999	-1	[-999, -999, -999]	n/a	FR1	3	R1339D
276.645	0.688	278644	DISTRACT_END	n/a	n/a	n/a	-999	-1	[0, 0, 0]	n/a	FR1	3	R1339D
277.333	1.528	279332	RETRIEVAL_ORIENT_START	n/a	n/a	n/a	-999	-1	[0, 0, 0]	n/a	FR1	3	R1339D
278.861	0.001	280860	RETRIEVAL_ORIENT_END	n/a	n/a	n/a	-999	-1	[0, 0, 0]	n/a	FR1	3	R1339D
278.862	0.0	280861	REC_START	n/a	n/a	n/a	-999	-1	[0, 0, 0]	n/a	FR1	3	R1339D
278.862	30.011	280861	REC_WORD_VV	30.011	n/a	<>	-999	-1	[0, 0, 0]	n/a	FR1	3	R1339D
308.873	0.001	310870	REC_END	n/a	n/a	n/a	-999	-1	[0, 0, 0]	n/a	FR1	3	R1339D
308.874	3.845	310871	PRACTICE_POST_INSTRUCT_START	n/a	n/a	n/a	-999	-1	[0, 0, 0]	n/a	FR1	3	R1339D
312.719	0.0	314716	PRACTICE_POST_INSTRUCT_END	n/a	n/a	n/a	-999	-1	[0, 0, 0]	n/a	FR1	3	R1339D
312.719	0.017	314716	TRIAL_END	n/a	n/a	n/a	-999	-1	[0, 0, 0]	n/a	FR1	3	R1339D
312.736	0.0	314733	TRIAL_START	n/a	n/a	n/a	-999	1	[0, 0, 0]	n/a	FR1	3	R1339D
312.736	0.0	314733	TRIAL	n/a	n/a	n/a	-999	1	[0, 0, 0]	n/a	FR1	3	R1339D
312.736	277.966	314733	WAITING_START	n/a	n/a	n/a	-999	1	[0, 0, 0]	n/a	FR1	3	R1339D
590.702	0.001	592685	WAITING_END	n/a	n/a	n/a	-999	1	[0, 0, 0]	n/a	FR1	3	R1339D
590.703	10.429	592686	COUNTDOWN_START	n/a	n/a	n/a	-999	1	[0, 0, 0]	n/a	FR1	3	R1339D
601.132	0.0	603114	ORIENT_START	n/a	n/a	n/a	-999	1	[0, 0, 0]	n/a	FR1	3	R1339D
601.132	1.056	603114	COUNTDOWN_END	n/a	n/a	n/a	-999	1	[0, 0, 0]	n/a	FR1	3	R1339D
602.188	0.0	604170	ORIENT_END	n/a	n/a	n/a	-999	1	[0, 0, 0]	n/a	FR1	3	R1339D
602.188	1.038	604170	ENCODING_START	n/a	n/a	n/a	-999	1	[0, 0, 0]	n/a	FR1	3	R1339D
603.226	1.628	605208	WORD	n/a	n/a	YARD	1	1	[0, 0, 0]	n/a	FR1	3	R1339D
604.854	0.85	606836	WORD_OFF	n/a	n/a	YARD	1	1	[0, 0, 0]	n/a	FR1	3	R1339D
605.704	1.635	607686	WORD	n/a	n/a	MULE	2	1	[0, 0, 0]	n/a	FR1	3	R1339D
607.339	1.109	609321	WORD_OFF	n/a	n/a	MULE	2	1	[0, 0, 0]	n/a	FR1	3	R1339D
608.448	1.624	610430	WORD	n/a	n/a	RAT	3	1	[0, 0, 0]	n/a	FR1	3	R1339D
610.072	0.943	612054	WORD_OFF	n/a	n/a	RAT	3	1	[0, 0, 0]	n/a	FR1	3	R1339D
611.015	1.624	612997	WORD	n/a	n/a	LAMB	4	1	[0, 0, 0]	n/a	FR1	3	R1339D
612.639	0.857	614621	WORD_OFF	n/a	n/a	LAMB	4	1	[0, 0, 0]	n/a	FR1	3	R1339D
613.496	1.627	615478	WORD	n/a	n/a	WEB	5	1	[0, 0, 0]	n/a	FR1	3	R1339D
615.123	0.877	617105	WORD_OFF	n/a	n/a	WEB	5	1	[0, 0, 0]	n/a	FR1	3	R1339D
616.0	1.624	617981	WORD	n/a	n/a	WOOD	6	1	[0, 0, 0]	n/a	FR1	3	R1339D
617.624	1.054	619605	WORD_OFF	n/a	n/a	WOOD	6	1	[0, 0, 0]	n/a	FR1	3	R1339D
618.678	1.63	620659	WORD	n/a	n/a	BAG	7	1	[0, 0, 0]	n/a	FR1	3	R1339D
620.308	1.078	622289	WORD_OFF	n/a	n/a	BAG	7	1	[0, 0, 0]	n/a	FR1	3	R1339D
621.386	1.622	623367	WORD	n/a	n/a	BOX	8	1	[0, 0, 0]	n/a	FR1	3	R1339D
623.008	0.867	624989	WORD_OFF	n/a	n/a	BOX	8	1	[0, 0, 0]	n/a	FR1	3	R1339D
623.875	1.634	625856	WORD	n/a	n/a	ANT	9	1	[0, 0, 0]	n/a	FR1	3	R1339D
625.509	0.787	627490	WORD_OFF	n/a	n/a	ANT	9	1	[0, 0, 0]	n/a	FR1	3	R1339D
626.296	1.63	628277	WORD	n/a	n/a	FORK	10	1	[0, 0, 0]	n/a	FR1	3	R1339D
627.926	1.068	629907	WORD_OFF	n/a	n/a	FORK	10	1	[0, 0, 0]	n/a	FR1	3	R1339D
628.994	1.632	630975	WORD	n/a	n/a	SKI	11	1	[0, 0, 0]	n/a	FR1	3	R1339D
630.626	0.89	632607	WORD_OFF	n/a	n/a	SKI	11	1	[0, 0, 0]	n/a	FR1	3	R1339D
631.516	1.627	633497	WORD	n/a	n/a	SPONGE	12	1	[0, 0, 0]	n/a	FR1	3	R1339D
633.143	0.001	635124	WORD_OFF	n/a	n/a	SPONGE	12	1	[0, 0, 0]	n/a	FR1	3	R1339D
633.144	0.0	635125	DISTRACT_START	n/a	n/a	n/a	-999	1	[0, 0, 0]	n/a	FR1	3	R1339D
633.144	0.0	635125	ENCODING_END	n/a	n/a	n/a	-999	1	[0, 0, 0]	n/a	FR1	3	R1339D
633.144	0.016	635125	START	n/a	n/a	n/a	-999	1	[-999, -999, -999]	n/a	FR1	3	R1339D
633.16	5.601	635141	PROB	5.601	n/a	n/a	-999	1	[8, 7, 2]	17	FR1	3	R1339D
638.761	2.434	640741	PROB	2.434	n/a	n/a	-999	1	[7, 1, 6]	14	FR1	3	R1339D
641.195	5.683	643175	PROB	5.683	n/a	n/a	-999	1	[9, 6, 7]	22	FR1	3	R1339D
646.878	2.235	648858	PROB	2.235	n/a	n/a	-999	1	[2, 5, 5]	12	FR1	3	R1339D
649.113	2.333	651093	PROB	2.333	n/a	n/a	-999	1	[1, 5, 7]	12	FR1	3	R1339D
651.446	8.341	653426	PROB	8.341	n/a	n/a	-999	1	[9, 4, 4]	17	FR1	3	R1339D
659.787	0.011	661766	STOP	n/a	n/a	n/a	-999	1	[-999, -999, -999]	n/a	FR1	3	R1339D
659.798	0.507	661777	DISTRACT_END	n/a	n/a	n/a	-999	1	[0, 0, 0]	n/a	FR1	3	R1339D
660.305	1.71	662284	RETRIEVAL_ORIENT_START	n/a	n/a	n/a	-999	1	[0, 0, 0]	n/a	FR1	3	R1339D
662.015	0.001	663994	RETRIEVAL_ORIENT_END	n/a	n/a	n/a	-999	1	[0, 0, 0]	n/a	FR1	3	R1339D
662.016	0.225	663995	REC_START	n/a	n/a	n/a	-999	1	[0, 0, 0]	n/a	FR1	3	R1339D
662.241	0.769	664220	REC_WORD	0.769	n/a	YARD	1	1	[0, 0, 0]	n/a	FR1	3	R1339D
663.01	1.915	664989	REC_WORD	1.915	n/a	WOOL	-999	1	[0, 0, 0]	n/a	FR1	3	R1339D
664.925	2.31	666904	REC_WORD	2.31	n/a	RUG	-999	1	[0, 0, 0]	n/a	FR1	3	R1339D
667.235	4.209	669214	REC_WORD	4.209	n/a	MULE	2	1	[0, 0, 0]	n/a	FR1	3	R1339D
671.444	1.0	673423	REC_WORD_VV	1.0	n/a	<>	-999	1	[0, 0, 0]	n/a	FR1	3	R1339D
672.444	1.846	674423	REC_WORD_VV	1.846	n/a	<>	-999	1	[0, 0, 0]	n/a	FR1	3	R1339D
674.29	17.736	676268	REC_WORD	17.736	n/a	OIL	-999	1	[0, 0, 0]	n/a	FR1	3	R1339D
692.026	0.0	694004	TRIAL_END	n/a	n/a	n/a	-999	1	[0, 0, 0]	n/a	FR1	3	R1339D
692.026	0.015	694004	REC_END	n/a	n/a	n/a	-999	1	[0, 0, 0]	n/a	FR1	3	R1339D
692.041	0.0	694019	TRIAL_START	n/a	n/a	n/a	-999	2	[0, 0, 0]	n/a	FR1	3	R1339D
692.041	0.0	694019	TRIAL	n/a	n/a	n/a	-999	2	[0, 0, 0]	n/a	FR1	3	R1339D
692.041	15.332	694019	WAITING_START	n/a	n/a	n/a	-999	2	[0, 0, 0]	n/a	FR1	3	R1339D
707.373	0.001	709350	WAITING_END	n/a	n/a	n/a	-999	2	[0, 0, 0]	n/a	FR1	3	R1339D
707.374	10.429	709351	COUNTDOWN_START	n/a	n/a	n/a	-999	2	[0, 0, 0]	n/a	FR1	3	R1339D
717.803	0.0	719779	COUNTDOWN_END	n/a	n/a	n/a	-999	2	[0, 0, 0]	n/a	FR1	3	R1339D
717.803	1.189	719779	ORIENT_START	n/a	n/a	n/a	-999	2	[0, 0, 0]	n/a	FR1	3	R1339D
718.992	0.001	720968	ORIENT_END	n/a	n/a	n/a	-999	2	[0, 0, 0]	n/a	FR1	3	R1339D
718.993	0.996	720969	ENCODING_START	n/a	n/a	n/a	-999	2	[0, 0, 0]	n/a	FR1	3	R1339D
719.989	1.637	721965	WORD	n/a	n/a	BAT	1	2	[0, 0, 0]	n/a	FR1	3	R1339D
721.626	0.75	723602	WORD_OFF	n/a	n/a	BAT	1	2	[0, 0, 0]	n/a	FR1	3	R1339D
722.376	1.634	724352	WORD	n/a	n/a	LEG	2	2	[0, 0, 0]	n/a	FR1	3	R1339D
724.01	0.948	725986	WORD_OFF	n/a	n/a	LEG	2	2	[0, 0, 0]	n/a	FR1	3	R1339D
724.958	1.636	726934	WORD	n/a	n/a	SWAMP	3	2	[0, 0, 0]	n/a	FR1	3	R1339D
726.594	0.759	728570	WORD_OFF	n/a	n/a	SWAMP	3	2	[0, 0, 0]	n/a	FR1	3	R1339D
727.353	1.624	729329	WORD	n/a	n/a	WALL	4	2	[0, 0, 0]	n/a	FR1	3	R1339D
728.977	0.994	730953	WORD_OFF	n/a	n/a	WALL	4	2	[0, 0, 0]	n/a	FR1	3	R1339D
729.971	1.624	731947	WORD	n/a	n/a	SLEEVE	5	2	[0, 0, 0]	n/a	FR1	3	R1339D
731.595	0.957	733571	WORD_OFF	n/a	n/a	SLEEVE	5	2	[0, 0, 0]	n/a	FR1	3	R1339D
732.552	1.626	734527	WORD	n/a	n/a	CLOWN	6	2	[0, 0, 0]	n/a	FR1	3	R1339D
734.178	0.866	736153	WORD_OFF	n/a	n/a	CLOWN	6	2	[0, 0, 0]	n/a	FR1	3	R1339D
735.044	1.635	737019	WORD	n/a	n/a	BROOM	7	2	[0, 0, 0]	n/a	FR1	3	R1339D
736.679	1.108	738654	WORD_OFF	n/a	n/a	BROOM	7	2	[0, 0, 0]	n/a	FR1	3	R1339D
737.787	1.626	739762	WORD	n/a	n/a	THREAD	8	2	[0, 0, 0]	n/a	FR1	3	R1339D
739.413	0.885	741388	WORD_OFF	n/a	n/a	THREAD	8	2	[0, 0, 0]	n/a	FR1	3	R1339D
740.298	1.632	742273	WORD	n/a	n/a	BREAD	9	2	[0, 0, 0]	n/a	FR1	3	R1339D
741.93	1.01	743905	WORD_OFF	n/a	n/a	BREAD	9	2	[0, 0, 0]	n/a	FR1	3	R1339D
742.94	1.624	744915	WORD	n/a	n/a	SHIP	10	2	[0, 0, 0]	n/a	FR1	3	R1339D
744.564	0.982	746539	WORD_OFF	n/a	n/a	SHIP	10	2	[0, 0, 0]	n/a	FR1	3	R1339D
745.546	1.635	747521	WORD	n/a	n/a	WORM	11	2	[0, 0, 0]	n/a	FR1	3	R1339D
747.181	1.122	749156	WORD_OFF	n/a	n/a	WORM	11	2	[0, 0, 0]	n/a	FR1	3	R1339D
748.303	1.628	750278	WORD	n/a	n/a	CAGE	12	2	[0, 0, 0]	n/a	FR1	3	R1339D
749.931	0.001	751906	WORD_OFF	n/a	n/a	CAGE	12	2	[0, 0, 0]	n/a	FR1	3	R1339D
749.932	0.0	751907	ENCODING_END	n/a	n/a	n/a	-999	2	[0, 0, 0]	n/a	FR1	3	R1339D
749.932	0.0	751907	DISTRACT_START	n/a	n/a	n/a	-999	2	[0, 0, 0]	n/a	FR1	3	R1339D
749.932	0.016	751907	START	n/a	n/a	n/a	-999	2	[-999, -999, -999]	n/a	FR1	3	R1339D
749.948	5.784	751923	PROB	5.784	n/a	n/a	-999	2	[9, 8, 5]	22	FR1	3	R1339D
755.732	3.484	757706	PROB	3.484	n/a	n/a	-999	2	[4, 8, 3]	15	FR1	3	R1339D
759.216	2.884	761190	PROB	2.884	n/a	n/a	-999	2	[9, 2, 9]	20	FR1	3	R1339D
762.1	4.051	764074	PROB	4.051	n/a	n/a	-999	2	[4, 6, 8]	18	FR1	3	R1339D
766.151	3.017	768125	PROB	3.017	n/a	n/a	-999	2	[9, 1, 9]	19	FR1	3	R1339D
769.168	2.409	771142	PROB	2.409	n/a	n/a	-999	2	[4, 1, 4]	7	FR1	3	R1339D
771.577	0.008	773550	STOP	n/a	n/a	n/a	-999	2	[-999, -999, -999]	n/a	FR1	3	R1339D
771.585	0.519	773558	DISTRACT_END	n/a	n/a	n/a	-999	2	[0, 0, 0]	n/a	FR1	3	R1339D
772.104	1.548	774077	RETRIEVAL_ORIENT_START	n/a	n/a	n/a	-999	2	[0, 0, 0]	n/a	FR1	3	R1339D
773.652	0.001	775625	RETRIEVAL_ORIENT_END	n/a	n/a	n/a	-999	2	[0, 0, 0]	n/a	FR1	3	R1339D
773.653	27.12	775626	REC_START	n/a	n/a	n/a	-999	2	[0, 0, 0]	n/a	FR1	3	R1339D
800.773	2.892	802745	REC_WORD_VV	2.892	n/a	<>	-999	2	[0, 0, 0]	n/a	FR1	3	R1339D
803.665	0.0	805637	TRIAL_END	n/a	n/a	n/a	-999	2	[0, 0, 0]	n/a	FR1	3	R1339D
803.665	0.017	805637	REC_END	n/a	n/a	n/a	-999	2	[0, 0, 0]	n/a	FR1	3	R1339D
803.682	0.0	805654	TRIAL_START	n/a	n/a	n/a	-999	3	[0, 0, 0]	n/a	FR1	3	R1339D
803.682	0.0	805654	TRIAL	n/a	n/a	n/a	-999	3	[0, 0, 0]	n/a	FR1	3	R1339D
803.682	17.446	805654	WAITING_START	n/a	n/a	n/a	-999	3	[0, 0, 0]	n/a	FR1	3	R1339D
821.128	0.0	823099	WAITING_END	n/a	n/a	n/a	-999	3	[0, 0, 0]	n/a	FR1	3	R1339D
821.128	10.429	823099	COUNTDOWN_START	n/a	n/a	n/a	-999	3	[0, 0, 0]	n/a	FR1	3	R1339D
831.557	0.0	833527	COUNTDOWN_END	n/a	n/a	n/a	-999	3	[0, 0, 0]	n/a	FR1	3	R1339D
831.557	1.156	833527	ORIENT_START	n/a	n/a	n/a	-999	3	[0, 0, 0]	n/a	FR1	3	R1339D
832.713	0.001	834683	ORIENT_END	n/a	n/a	n/a	-999	3	[0, 0, 0]	n/a	FR1	3	R1339D
832.714	0.883	834684	ENCODING_START	n/a	n/a	n/a	-999	3	[0, 0, 0]	n/a	FR1	3	R1339D
833.597	1.633	835567	WORD	n/a	n/a	HOOF	1	3	[0, 0, 0]	n/a	FR1	3	R1339D
835.23	0.92	837200	WORD_OFF	n/a	n/a	HOOF	1	3	[0, 0, 0]	n/a	FR1	3	R1339D
836.15	1.63	838120	WORD	n/a	n/a	GRAPE	2	3	[0, 0, 0]	n/a	FR1	3	R1339D
837.78	0.826	839750	WORD_OFF	n/a	n/a	GRAPE	2	3	[0, 0, 0]	n/a	FR1	3	R1339D
838.606	1.625	840576	WORD	n/a	n/a	SHRIMP	3	3	[0, 0, 0]	n/a	FR1	3	R1339D
840.231	1.122	842201	WORD_OFF	n/a	n/a	SHRIMP	3	3	[0, 0, 0]	n/a	FR1	3	R1339D
841.353	1.629	843323	WORD	n/a	n/a	COUCH	4	3	[0, 0, 0]	n/a	FR1	3	R1339D
842.982	0.882	844952	WORD_OFF	n/a	n/a	COUCH	4	3	[0, 0, 0]	n/a	FR1	3	R1339D
843.864	1.634	845834	WORD	n/a	n/a	FUDGE	5	3	[0, 0, 0]	n/a	FR1	3	R1339D
845.498	0.77	847468	WORD_OFF	n/a	n/a	FUDGE	5	3	[0, 0, 0]	n/a	FR1	3	R1339D
846.268	1.631	848238	WORD	n/a	n/a	BRUSH	6	3	[0, 0, 0]	n/a	FR1	3	R1339D
847.899	1.009	849868	WORD_OFF	n/a	n/a	BRUSH	6	3	[0, 0, 0]	n/a	FR1	3	R1339D
848.908	1.625	850877	WORD	n/a	n/a	SHIELD	7	3	[0, 0, 0]	n/a	FR1	3	R1339D
850.533	0.981	852502	WORD_OFF	n/a	n/a	SHIELD	7	3	[0, 0, 0]	n/a	FR1	3	R1339D
851.514	1.636	853483	WORD	n/a	n/a	MAZE	8	3	[0, 0, 0]	n/a	FR1	3	R1339D
853.15	1.04	855119	WORD_OFF	n/a	n/a	MAZE	8	3	[0, 0, 0]	n/a	FR1	3	R1339D
854.19	1.627	856159	WORD	n/a	n/a	SNAIL	9	3	[0, 0, 0]	n/a	FR1	3	R1339D
855.817	0.906	857786	WORD_OFF	n/a	n/a	SNAIL	9	3	[0, 0, 0]	n/a	FR1	3	R1339D
856.723	1.628	858692	WORD	n/a	n/a	LAND	10	3	[0, 0, 0]	n/a	FR1	3	R1339D
858.351	1.112	860320	WORD_OFF	n/a	n/a	LAND	10	3	[0, 0, 0]	n/a	FR1	3	R1339D
859.463	1.605	861432	WORD	n/a	n/a	DOCK	11	3	[0, 0, 0]	n/a	FR1	3	R1339D
861.068	1.076	863037	WORD_OFF	n/a	n/a	DOCK	11	3	[0, 0, 0]	n/a	FR1	3	R1339D
862.144	1.625	864113	WORD	n/a	n/a	BEE	12	3	[0, 0, 0]	n/a	FR1	3	R1339D
863.769	0.0	865738	WORD_OFF	n/a	n/a	BEE	12	3	[0, 0, 0]	n/a	FR1	3	R1339D
863.769	0.0	865738	ENCODING_END	n/a	n/a	n/a	-999	3	[0, 0, 0]	n/a	FR1	3	R1339D
863.769	0.0	865738	DISTRACT_START	n/a	n/a	n/a	-999	3	[0, 0, 0]	n/a	FR1	3	R1339D
863.769	0.016	865738	START	n/a	n/a	n/a	-999	3	[-999, -999, -999]	n/a	FR1	3	R1339D
863.785	5.434	865754	PROB	5.434	n/a	n/a	-999	3	[8, 4, 1]	13	FR1	3	R1339D
869.219	2.367	871187	PROB	2.367	n/a	n/a	-999	3	[9, 2, 9]	20	FR1	3	R1339D
871.586	3.784	873554	PROB	3.784	n/a	n/a	-999	3	[6, 9, 7]	22	FR1	3	R1339D
875.37	3.984	877338	PROB	3.984	n/a	n/a	-999	3	[1, 8, 7]	16	FR1	3	R1339D
879.354	8.974	881322	PROB	8.974	n/a	n/a	-999	3	[8, 9, 8]	25	FR1	3	R1339D
888.328	0.012	890295	STOP	n/a	n/a	n/a	-999	3	[-999, -999, -999]	n/a	FR1	3	R1339D
888.34	0.528	890307	DISTRACT_END	n/a	n/a	n/a	-999	3	[0, 0, 0]	n/a	FR1	3	R1339D
888.868	1.605	890835	RETRIEVAL_ORIENT_START	n/a	n/a	n/a	-999	3	[0, 0, 0]	n/a	FR1	3	R1339D
890.473	0.001	892440	RETRIEVAL_ORIENT_END	n/a	n/a	n/a	-999	3	[0, 0, 0]	n/a	FR1	3	R1339D
890.474	4.446	892441	REC_START	n/a	n/a	n/a	-999	3	[0, 0, 0]	n/a	FR1	3	R1339D
894.92	4.913	896887	REC_WORD	4.913	n/a	SNAIL	9	3	[0, 0, 0]	n/a	FR1	3	R1339D
899.833	3.64	901800	REC_WORD	3.64	n/a	SHRIMP	3	3	[0, 0, 0]	n/a	FR1	3	R1339D
903.473	17.011	905440	REC_WORD	17.011	n/a	SAIL	-999	3	[0, 0, 0]	n/a	FR1	3	R1339D
920.484	0.0	922450	REC_END	n/a	n/a	n/a	-999	3	[0, 0, 0]	n/a	FR1	3	R1339D
920.484	0.015	922450	TRIAL_END	n/a	n/a	n/a	-999	3	[0, 0, 0]	n/a	FR1	3	R1339D
920.499	0.001	922465	TRIAL_START	n/a	n/a	n/a	-999	4	[0, 0, 0]	n/a	FR1	3	R1339D
920.5	0.0	922466	TRIAL	n/a	n/a	n/a	-999	4	[0, 0, 0]	n/a	FR1	3	R1339D
920.5	85.544	922466	WAITING_START	n/a	n/a	n/a	-999	4	[0, 0, 0]	n/a	FR1	3	R1339D
1006.044	0.001	1008005	WAITING_END	n/a	n/a	n/a	-999	4	[0, 0, 0]	n/a	FR1	3	R1339D
1006.045	10.428	1008006	COUNTDOWN_START	n/a	n/a	n/a	-999	4	[0, 0, 0]	n/a	FR1	3	R1339D
1016.473	0.0	1018434	COUNTDOWN_END	n/a	n/a	n/a	-999	4	[0, 0, 0]	n/a	FR1	3	R1339D
1016.473	1.023	1018434	ORIENT_START	n/a	n/a	n/a	-999	4	[0, 0, 0]	n/a	FR1	3	R1339D
1017.496	0.001	1019457	ORIENT_END	n/a	n/a	n/a	-999	4	[0, 0, 0]	n/a	FR1	3	R1339D
1017.497	0.759	1019458	ENCODING_START	n/a	n/a	n/a	-999	4	[0, 0, 0]	n/a	FR1	3	R1339D
1018.256	1.624	1020217	WORD	n/a	n/a	BEAN	1	4	[0, 0, 0]	n/a	FR1	3	R1339D
1019.88	0.789	1021841	WORD_OFF	n/a	n/a	BEAN	1	4	[0, 0, 0]	n/a	FR1	3	R1339D
1020.669	1.628	1022630	WORD	n/a	n/a	NAIL	2	4	[0, 0, 0]	n/a	FR1	3	R1339D
1022.297	0.88	1024257	WORD_OFF	n/a	n/a	NAIL	2	4	[0, 0, 0]	n/a	FR1	3	R1339D
1023.177	1.621	1025137	WORD	n/a	n/a	KEY	3	4	[0, 0, 0]	n/a	FR1	3	R1339D
1024.798	1.0	1026758	WORD_OFF	n/a	n/a	KEY	3	4	[0, 0, 0]	n/a	FR1	3	R1339D
1025.798	1.634	1027758	WORD	n/a	n/a	WOLF	4	4	[0, 0, 0]	n/a	FR1	3	R1339D
1027.432	0.878	1029392	WORD_OFF	n/a	n/a	WOLF	4	4	[0, 0, 0]	n/a	FR1	3	R1339D
1028.31	1.622	1030270	WORD	n/a	n/a	EAR	5	4	[0, 0, 0]	n/a	FR1	3	R1339D
1029.932	1.06	1031892	WORD_OFF	n/a	n/a	EAR	5	4	[0, 0, 0]	n/a	FR1	3	R1339D
1030.992	1.624	1032952	WORD	n/a	n/a	ARM	6	4	[0, 0, 0]	n/a	FR1	3	R1339D
1032.616	0.896	1034576	WORD_OFF	n/a	n/a	ARM	6	4	[0, 0, 0]	n/a	FR1	3	R1339D
1033.512	1.638	1035472	WORD	n/a	n/a	MOUTH	7	4	[0, 0, 0]	n/a	FR1	3	R1339D
1035.15	0.893	1037110	WORD_OFF	n/a	n/a	MOUTH	7	4	[0, 0, 0]	n/a	FR1	3	R1339D
1036.043	1.624	1038003	WORD	n/a	n/a	FOOD	8	4	[0, 0, 0]	n/a	FR1	3	R1339D
1037.667	0.897	1039627	WORD_OFF	n/a	n/a	FOOD	8	4	[0, 0, 0]	n/a	FR1	3	R1339D
1038.564	1.637	1040524	WORD	n/a	n/a	MUG	9	4	[0, 0, 0]	n/a	FR1	3	R1339D
1040.201	0.94	1042161	WORD_OFF	n/a	n/a	MUG	9	4	[0, 0, 0]	n/a	FR1	3	R1339D
1041.141	1.627	1043101	WORD	n/a	n/a	TIE	10	4	[0, 0, 0]	n/a	FR1	3	R1339D
1042.768	0.75	1044727	WORD_OFF	n/a	n/a	TIE	10	4	[0, 0, 0]	n/a	FR1	3	R1339D
1043.518	1.633	1045477	WORD	n/a	n/a	CORD	11	4	[0, 0, 0]	n/a	FR1	3	R1339D
1045.151	1.02	1047110	WORD_OFF	n/a	n/a	CORD	11	4	[0, 0, 0]	n/a	FR1	3	R1339D
1046.171	1.631	1048130	WORD	n/a	n/a	INK	12	4	[0, 0, 0]	n/a	FR1	3	R1339D
1047.802	0.001	1049761	WORD_OFF	n/a	n/a	INK	12	4	[0, 0, 0]	n/a	FR1	3	R1339D
1047.803	0.0	1049762	ENCODING_END	n/a	n/a	n/a	-999	4	[0, 0, 0]	n/a	FR1	3	R1339D
1047.803	0.0	1049762	DISTRACT_START	n/a	n/a	n/a	-999	4	[0, 0, 0]	n/a	FR1	3	R1339D
1047.803	0.015	1049762	START	n/a	n/a	n/a	-999	4	[-999, -999, -999]	n/a	FR1	3	R1339D
1047.818	2.784	1049777	PROB	2.784	n/a	n/a	-999	4	[1, 2, 2]	5	FR1	3	R1339D
1050.602	3.718	1052561	PROB	3.718	n/a	n/a	-999	4	[5, 2, 7]	14	FR1	3	R1339D
1054.32	3.484	1056279	PROB	3.484	n/a	n/a	-999	4	[6, 9, 4]	19	FR1	3	R1339D
1057.804	2.5	1059763	PROB	2.5	n/a	n/a	-999	4	[3, 1, 2]	6	FR1	3	R1339D
1060.304	2.917	1062263	PROB	2.917	n/a	n/a	-999	4	[6, 4, 2]	12	FR1	3	R1339D
1063.221	3.601	1065179	PROB	3.601	n/a	n/a	-999	4	[9, 5, 3]	17	FR1	3	R1339D
1066.822	2.305	1068780	PROB	2.305	n/a	n/a	-999	4	[4, 8, 2]	14	FR1	3	R1339D
1069.127	0.012	1071085	STOP	n/a	n/a	n/a	-999	4	[-999, -999, -999]	n/a	FR1	3	R1339D
1069.139	0.66	1071097	DISTRACT_END	n/a	n/a	n/a	-999	4	[0, 0, 0]	n/a	FR1	3	R1339D
1069.799	1.641	1071757	RETRIEVAL_ORIENT_START	n/a	n/a	n/a	-999	4	[0, 0, 0]	n/a	FR1	3	R1339D
1071.44	0.0	1073398	RETRIEVAL_ORIENT_END	n/a	n/a	n/a	-999	4	[0, 0, 0]	n/a	FR1	3	R1339D
1071.44	0.328	1073398	REC_START	n/a	n/a	n/a	-999	4	[0, 0, 0]	n/a	FR1	3	R1339D
1071.768	0.845	1073726	REC_WORD	0.845	n/a	MOUTH	7	4	[0, 0, 0]	n/a	FR1	3	R1339D
1072.613	1.399	1074571	REC_WORD	1.399	n/a	RUG	-999	4	[0, 0, 0]	n/a	FR1	3	R1339D
1074.012	22.489	1075970	REC_WORD	22.489	n/a	WOLF	4	4	[0, 0, 0]	n/a	FR1	3	R1339D
1096.501	4.948	1098458	REC_WORD_VV	4.948	n/a	<>	-999	4	[0, 0, 0]	n/a	FR1	3	R1339D
1101.449	0.001	1103405	REC_END	n/a	n/a	n/a	-999	4	[0, 0, 0]	n/a	FR1	3	R1339D
1101.45	0.016	1103406	TRIAL_END	n/a	n/a	n/a	-999	4	[0, 0, 0]	n/a	FR1	3	R1339D
1101.466	0.0	1103422	TRIAL_START	n/a	n/a	n/a	-999	5	[0, 0, 0]	n/a	FR1	3	R1339D
1101.466	0.0	1103422	TRIAL	n/a	n/a	n/a	-999	5	[0, 0, 0]	n/a	FR1	3	R1339D
1101.466	31.768	1103422	WAITING_START	n/a	n/a	n/a	-999	5	[0, 0, 0]	n/a	FR1	3	R1339D
1133.234	0.001	1135189	WAITING_END	n/a	n/a	n/a	-999	5	[0, 0, 0]	n/a	FR1	3	R1339D
1133.235	10.428	1135190	COUNTDOWN_START	n/a	n/a	n/a	-999	5	[0, 0, 0]	n/a	FR1	3	R1339D
1143.663	0.0	1145617	COUNTDOWN_END	n/a	n/a	n/a	-999	5	[0, 0, 0]	n/a	FR1	3	R1339D
1143.663	1.073	1145617	ORIENT_START	n/a	n/a	n/a	-999	5	[0, 0, 0]	n/a	FR1	3	R1339D
1144.736	0.001	1146690	ORIENT_END	n/a	n/a	n/a	-999	5	[0, 0, 0]	n/a	FR1	3	R1339D
1144.737	1.105	1146691	ENCODING_START	n/a	n/a	n/a	-999	5	[0, 0, 0]	n/a	FR1	3	R1339D
1145.842	1.628	1147796	WORD	n/a	n/a	PIN	1	5	[0, 0, 0]	n/a	FR1	3	R1339D
1147.47	0.981	1149424	WORD_OFF	n/a	n/a	PIN	1	5	[0, 0, 0]	n/a	FR1	3	R1339D
1148.451	1.636	1150405	WORD	n/a	n/a	PEAR	2	5	[0, 0, 0]	n/a	FR1	3	R1339D
1150.087	0.846	1152041	WORD_OFF	n/a	n/a	PEAR	2	5	[0, 0, 0]	n/a	FR1	3	R1339D
1150.933	1.621	1152887	WORD	n/a	n/a	BLOOM	3	5	[0, 0, 0]	n/a	FR1	3	R1339D
1152.554	0.806	1154508	WORD_OFF	n/a	n/a	BLOOM	3	5	[0, 0, 0]	n/a	FR1	3	R1339D
1153.36	1.628	1155314	WORD	n/a	n/a	SEAL	4	5	[0, 0, 0]	n/a	FR1	3	R1339D
1154.988	0.907	1156942	WORD_OFF	n/a	n/a	SEAL	4	5	[0, 0, 0]	n/a	FR1	3	R1339D
1155.895	1.627	1157849	WORD	n/a	n/a	TENT	5	5	[0, 0, 0]	n/a	FR1	3	R1339D
1157.522	0.943	1159475	WORD_OFF	n/a	n/a	TENT	5	5	[0, 0, 0]	n/a	FR1	3	R1339D
1158.465	1.624	1160418	WORD	n/a	n/a	PEA	6	5	[0, 0, 0]	n/a	FR1	3	R1339D
1160.089	1.037	1162042	WORD_OFF	n/a	n/a	PEA	6	5	[0, 0, 0]	n/a	FR1	3	R1339D
1161.126	1.63	1163079	WORD	n/a	n/a	SLIME	7	5	[0, 0, 0]	n/a	FR1	3	R1339D
1162.756	0.834	1164709	WORD_OFF	n/a	n/a	SLIME	7	5	[0, 0, 0]	n/a	FR1	3	R1339D
1163.59	1.634	1165543	WORD	n/a	n/a	CLAY	8	5	[0, 0, 0]	n/a	FR1	3	R1339D
1165.224	0.814	1167177	WORD_OFF	n/a	n/a	CLAY	8	5	[0, 0, 0]	n/a	FR1	3	R1339D
1166.038	1.636	1167991	WORD	n/a	n/a	HORN	9	5	[0, 0, 0]	n/a	FR1	3	R1339D
1167.674	1.0	1169627	WORD_OFF	n/a	n/a	HORN	9	5	[0, 0, 0]	n/a	FR1	3	R1339D
1168.674	1.634	1170627	WORD	n/a	n/a	HAWK	10	5	[0, 0, 0]	n/a	FR1	3	R1339D
1170.308	1.003	1172261	WORD_OFF	n/a	n/a	HAWK	10	5	[0, 0, 0]	n/a	FR1	3	R1339D
1171.311	1.631	1173264	WORD	n/a	n/a	BARN	11	5	[0, 0, 0]	n/a	FR1	3	R1339D
1172.942	0.77	1174895	WORD_OFF	n/a	n/a	BARN	11	5	[0, 0, 0]	n/a	FR1	3	R1339D
1173.712	1.63	1175665	WORD	n/a	n/a	BATH	12	5	[0, 0, 0]	n/a	FR1	3	R1339D
1175.342	0.0	1177295	WORD_OFF	n/a	n/a	BATH	12	5	[0, 0, 0]	n/a	FR1	3	R1339D
1175.342	0.001	1177295	ENCODING_END	n/a	n/a	n/a	-999	5	[0, 0, 0]	n/a	FR1	3	R1339D
1175.343	0.0	1177296	DISTRACT_START	n/a	n/a	n/a	-999	5	[0, 0, 0]	n/a	FR1	3	R1339D
1175.343	0.015	1177296	START	n/a	n/a	n/a	-999	5	[-999, -999, -999]	n/a	FR1	3	R1339D
1175.358	3.168	1177311	PROB	3.168	n/a	n/a	-999	5	[5, 2, 3]	10	FR1	3	R1339D
1178.526	4.55	1180478	PROB	4.55	n/a	n/a	-999	5	[2, 7, 8]	17	FR1	3	R1339D
1183.076	5.835	1185028	PROB	5.835	n/a	n/a	-999	5	[6, 3, 7]	16	FR1	3	R1339D
1188.911	4.601	1190863	PROB	4.601	n/a	n/a	-999	5	[4, 4, 5]	13	FR1	3	R1339D
1193.512	3.766	1195464	PROB	3.766	n/a	n/a	-999	5	[1, 2, 4]	7	FR1	3	R1339D
1197.278	0.018	1199229	STOP	n/a	n/a	n/a	-999	5	[-999, -999, -999]	n/a	FR1	3	R1339D
1197.296	0.533	1199247	DISTRACT_END	n/a	n/a	n/a	-999	5	[0, 0, 0]	n/a	FR1	3	R1339D
1197.829	1.701	1199780	RETRIEVAL_ORIENT_START	n/a	n/a	n/a	-999	5	[0, 0, 0]	n/a	FR1	3	R1339D
1199.53	0.0	1201481	RETRIEVAL_ORIENT_END	n/a	n/a	n/a	-999	5	[0, 0, 0]	n/a	FR1	3	R1339D
1199.53	3.972	1201481	REC_START	n/a	n/a	n/a	-999	5	[0, 0, 0]	n/a	FR1	3	R1339D
1203.502	4.257	1205453	REC_WORD	4.257	n/a	PIN	1	5	[0, 0, 0]	n/a	FR1	3	R1339D
1207.759	5.238	1209710	REC_WORD	5.238	n/a	ARM	-999	5	[0, 0, 0]	n/a	FR1	3	R1339D
1212.997	16.545	1214948	REC_WORD	16.545	n/a	PEN	-999	5	[0, 0, 0]	n/a	FR1	3	R1339D
1229.542	0.0	1231492	REC_END	n/a	n/a	n/a	-999	5	[0, 0, 0]	n/a	FR1	3	R1339D
1229.542	0.015	1231492	TRIAL_END	n/a	n/a	n/a	-999	5	[0, 0, 0]	n/a	FR1	3	R1339D
1229.557	0.0	1231507	TRIAL_START	n/a	n/a	n/a	-999	6	[0, 0, 0]	n/a	FR1	3	R1339D
1229.557	0.0	1231507	TRIAL	n/a	n/a	n/a	-999	6	[0, 0, 0]	n/a	FR1	3	R1339D
1229.557	2.379	1231507	WAITING_START	n/a	n/a	n/a	-999	6	[0, 0, 0]	n/a	FR1	3	R1339D
1231.936	0.0	1233886	WAITING_END	n/a	n/a	n/a	-999	6	[0, 0, 0]	n/a	FR1	3	R1339D
1231.936	10.429	1233886	COUNTDOWN_START	n/a	n/a	n/a	-999	6	[0, 0, 0]	n/a	FR1	3	R1339D
1242.365	0.0	1244314	ORIENT_START	n/a	n/a	n/a	-999	6	[0, 0, 0]	n/a	FR1	3	R1339D
1242.365	1.056	1244314	COUNTDOWN_END	n/a	n/a	n/a	-999	6	[0, 0, 0]	n/a	FR1	3	R1339D
1243.421	0.001	1245370	ORIENT_END	n/a	n/a	n/a	-999	6	[0, 0, 0]	n/a	FR1	3	R1339D
1243.422	0.843	1245371	ENCODING_START	n/a	n/a	n/a	-999	6	[0, 0, 0]	n/a	FR1	3	R1339D
1244.265	1.623	1246214	WORD	n/a	n/a	CAR	1	6	[0, 0, 0]	n/a	FR1	3	R1339D
1245.888	1.118	1247837	WORD_OFF	n/a	n/a	CAR	1	6	[0, 0, 0]	n/a	FR1	3	R1339D
1247.006	1.633	1248955	WORD	n/a	n/a	TRAIN	2	6	[0, 0, 0]	n/a	FR1	3	R1339D
1248.639	0.82	1250588	WORD_OFF	n/a	n/a	TRAIN	2	6	[0, 0, 0]	n/a	FR1	3	R1339D
1249.459	1.63	1251408	WORD	n/a	n/a	FILM	3	6	[0, 0, 0]	n/a	FR1	3	R1339D
1251.089	1.051	1253038	WORD_OFF	n/a	n/a	FILM	3	6	[0, 0, 0]	n/a	FR1	3	R1339D
1252.14	1.633	1254089	WORD	n/a	n/a	PLATE	4	6	[0, 0, 0]	n/a	FR1	3	R1339D
1253.773	0.903	1255722	WORD_OFF	n/a	n/a	PLATE	4	6	[0, 0, 0]	n/a	FR1	3	R1339D
1254.676	1.631	1256624	WORD	n/a	n/a	ROOT	5	6	[0, 0, 0]	n/a	FR1	3	R1339D
1256.307	0.832	1258255	WORD_OFF	n/a	n/a	ROOT	5	6	[0, 0, 0]	n/a	FR1	3	R1339D
1257.139	1.635	1259087	WORD	n/a	n/a	CHALK	6	6	[0, 0, 0]	n/a	FR1	3	R1339D
1258.774	0.877	1260722	WORD_OFF	n/a	n/a	CHALK	6	6	[0, 0, 0]	n/a	FR1	3	R1339D
1259.651	1.623	1261599	WORD	n/a	n/a	LAKE	7	6	[0, 0, 0]	n/a	FR1	3	R1339D
1261.274	0.783	1263222	WORD_OFF	n/a	n/a	LAKE	7	6	[0, 0, 0]	n/a	FR1	3	R1339D
1262.057	1.634	1264005	WORD	n/a	n/a	BRANCH	8	6	[0, 0, 0]	n/a	FR1	3	R1339D
1263.691	0.805	1265639	WORD_OFF	n/a	n/a	BRANCH	8	6	[0, 0, 0]	n/a	FR1	3	R1339D
1264.496	1.629	1266444	WORD	n/a	n/a	SEED	9	6	[0, 0, 0]	n/a	FR1	3	R1339D
1266.125	0.788	1268073	WORD_OFF	n/a	n/a	SEED	9	6	[0, 0, 0]	n/a	FR1	3	R1339D
1266.913	1.629	1268861	WORD	n/a	n/a	PET	10	6	[0, 0, 0]	n/a	FR1	3	R1339D
1268.542	0.751	1270490	WORD_OFF	n/a	n/a	PET	10	6	[0, 0, 0]	n/a	FR1	3	R1339D
1269.293	1.633	1271241	WORD	n/a	n/a	ICE	11	6	[0, 0, 0]	n/a	FR1	3	R1339D
1270.926	0.809	1272874	WORD_OFF	n/a	n/a	ICE	11	6	[0, 0, 0]	n/a	FR1	3	R1339D
1271.735	1.625	1273683	WORD	n/a	n/a	TEETH	12	6	[0, 0, 0]	n/a	FR1	3	R1339D
1273.36	0.0	1275307	ENCODING_END	n/a	n/a	n/a	-999	6	[0, 0, 0]	n/a	FR1	3	R1339D
1273.36	0.001	1275307	WORD_OFF	n/a	n/a	TEETH	12	6	[0, 0, 0]	n/a	FR1	3	R1339D
1273.361	0.0	1275308	DISTRACT_START	n/a	n/a	n/a	-999	6	[0, 0, 0]	n/a	FR1	3	R1339D
1273.361	0.015	1275308	START	n/a	n/a	n/a	-999	6	[-999, -999, -999]	n/a	FR1	3	R1339D
1273.376	3.884	1275323	PROB	3.884	n/a	n/a	-999	6	[7, 3, 3]	13	FR1	3	R1339D
1277.26	3.401	1279207	PROB	3.401	n/a	n/a	-999	6	[3, 3, 7]	13	FR1	3	R1339D
1280.661	2.784	1282608	PROB	2.784	n/a	n/a	-999	6	[2, 1, 2]	5	FR1	3	R1339D
1283.445	6.651	1285392	PROB	6.651	n/a	n/a	-999	6	[9, 7, 5]	21	FR1	3	R1339D
1290.096	3.067	1292043	PROB	3.067	n/a	n/a	-999	6	[3, 1, 9]	13	FR1	3	R1339D
1293.163	2.791	1295109	PROB	2.791	n/a	n/a	-999	6	[5, 7, 5]	17	FR1	3	R1339D
1295.954	0.01	1297900	STOP	n/a	n/a	n/a	-999	6	[-999, -999, -999]	n/a	FR1	3	R1339D
1295.964	0.618	1297910	DISTRACT_END	n/a	n/a	n/a	-999	6	[0, 0, 0]	n/a	FR1	3	R1339D
1296.582	1.566	1298528	RETRIEVAL_ORIENT_START	n/a	n/a	n/a	-999	6	[0, 0, 0]	n/a	FR1	3	R1339D
1298.148	0.0	1300094	RETRIEVAL_ORIENT_END	n/a	n/a	n/a	-999	6	[0, 0, 0]	n/a	FR1	3	R1339D
1298.148	29.988	1300094	REC_START	n/a	n/a	n/a	-999	6	[0, 0, 0]	n/a	FR1	3	R1339D
1328.136	0.022	1330081	REC_WORD_VV	0.022	n/a	<>	-999	6	[0, 0, 0]	n/a	FR1	3	R1339D
1328.158	0.0	1330103	REC_END	n/a	n/a	n/a	-999	6	[0, 0, 0]	n/a	FR1	3	R1339D
1328.158	0.014	1330103	TRIAL_END	n/a	n/a	n/a	-999	6	[0, 0, 0]	n/a	FR1	3	R1339D
1328.172	0.001	1330117	TRIAL_START	n/a	n/a	n/a	-999	7	[0, 0, 0]	n/a	FR1	3	R1339D
1328.173	0.0	1330118	TRIAL	n/a	n/a	n/a	-999	7	[0, 0, 0]	n/a	FR1	3	R1339D
1328.173	15.682	1330118	WAITING_START	n/a	n/a	n/a	-999	7	[0, 0, 0]	n/a	FR1	3	R1339D
1343.855	0.0	1345799	COUNTDOWN_START	n/a	n/a	n/a	-999	7	[0, 0, 0]	n/a	FR1	3	R1339D
1343.855	10.429	1345799	WAITING_END	n/a	n/a	n/a	-999	7	[0, 0, 0]	n/a	FR1	3	R1339D
1354.284	0.001	1356227	COUNTDOWN_END	n/a	n/a	n/a	-999	7	[0, 0, 0]	n/a	FR1	3	R1339D
1354.285	1.156	1356228	ORIENT_START	n/a	n/a	n/a	-999	7	[0, 0, 0]	n/a	FR1	3	R1339D
1355.441	0.001	1357384	ORIENT_END	n/a	n/a	n/a	-999	7	[0, 0, 0]	n/a	FR1	3	R1339D
1355.442	0.79	1357385	ENCODING_START	n/a	n/a	n/a	-999	7	[0, 0, 0]	n/a	FR1	3	R1339D
1356.232	1.625	1358175	WORD	n/a	n/a	HOLE	1	7	[0, 0, 0]	n/a	FR1	3	R1339D
1357.857	1.061	1359800	WORD_OFF	n/a	n/a	HOLE	1	7	[0, 0, 0]	n/a	FR1	3	R1339D
1358.918	1.624	1360861	WORD	n/a	n/a	CROWN	2	7	[0, 0, 0]	n/a	FR1	3	R1339D
1360.542	1.024	1362485	WORD_OFF	n/a	n/a	CROWN	2	7	[0, 0, 0]	n/a	FR1	3	R1339D
1361.566	1.627	1363509	WORD	n/a	n/a	WEED	3	7	[0, 0, 0]	n/a	FR1	3	R1339D
1363.193	1.076	1365136	WORD_OFF	n/a	n/a	WEED	3	7	[0, 0, 0]	n/a	FR1	3	R1339D
1364.269	1.624	1366212	WORD	n/a	n/a	STICK	4	7	[0, 0, 0]	n/a	FR1	3	R1339D
1365.893	0.799	1367836	WORD_OFF	n/a	n/a	STICK	4	7	[0, 0, 0]	n/a	FR1	3	R1339D
1366.692	1.635	1368635	WORD	n/a	n/a	CUBE	5	7	[0, 0, 0]	n/a	FR1	3	R1339D
1368.327	0.814	1370270	WORD_OFF	n/a	n/a	CUBE	5	7	[0, 0, 0]	n/a	FR1	3	R1339D
1369.141	1.637	1371084	WORD	n/a	n/a	CRANE	6	7	[0, 0, 0]	n/a	FR1	3	R1339D
1370.778	1.136	1372720	WORD_OFF	n/a	n/a	CRANE	6	7	[0, 0, 0]	n/a	FR1	3	R1339D
1371.914	1.631	1373856	WORD	n/a	n/a	BRICK	7	7	[0, 0, 0]	n/a	FR1	3	R1339D
1373.545	0.869	1375487	WORD_OFF	n/a	n/a	BRICK	7	7	[0, 0, 0]	n/a	FR1	3	R1339D
1374.414	1.631	1376356	WORD	n/a	n/a	ROSE	8	7	[0, 0, 0]	n/a	FR1	3	R1339D
1376.045	1.111	1377987	WORD_OFF	n/a	n/a	ROSE	8	7	[0, 0, 0]	n/a	FR1	3	R1339D
1377.156	1.623	1379098	WORD	n/a	n/a	PIT	9	7	[0, 0, 0]	n/a	FR1	3	R1339D
1378.779	0.926	1380721	WORD_OFF	n/a	n/a	PIT	9	7	[0, 0, 0]	n/a	FR1	3	R1339D
1379.705	1.624	1381647	WORD	n/a	n/a	FISH	10	7	[0, 0, 0]	n/a	FR1	3	R1339D
1381.329	0.792	1383271	WORD_OFF	n/a	n/a	FISH	10	7	[0, 0, 0]	n/a	FR1	3	R1339D
1382.121	1.626	1384063	WORD	n/a	n/a	PLANE	11	7	[0, 0, 0]	n/a	FR1	3	R1339D
1383.747	0.975	1385689	WORD_OFF	n/a	n/a	PLANE	11	7	[0, 0, 0]	n/a	FR1	3	R1339D
1384.722	1.625	1386664	WORD	n/a	n/a	STONE	12	7	[0, 0, 0]	n/a	FR1	3	R1339D
1386.347	0.0	1388289	ENCODING_END	n/a	n/a	n/a	-999	7	[0, 0, 0]	n/a	FR1	3	R1339D
1386.347	0.001	1388289	WORD_OFF	n/a	n/a	STONE	12	7	[0, 0, 0]	n/a	FR1	3	R1339D
1386.348	0.0	1388290	DISTRACT_START	n/a	n/a	n/a	-999	7	[0, 0, 0]	n/a	FR1	3	R1339D
1386.348	0.016	1388290	START	n/a	n/a	n/a	-999	7	[-999, -999, -999]	n/a	FR1	3	R1339D
1386.364	4.499	1388306	PROB	4.499	n/a	n/a	-999	7	[6, 4, 7]	17	FR1	3	R1339D
1390.863	3.035	1392804	PROB	3.035	n/a	n/a	-999	7	[6, 2, 4]	12	FR1	3	R1339D
1393.898	4.318	1395839	PROB	4.318	n/a	n/a	-999	7	[9, 8, 9]	26	FR1	3	R1339D
1398.216	4.717	1400157	PROB	4.717	n/a	n/a	-999	7	[7, 5, 1]	13	FR1	3	R1339D
1402.933	3.234	1404874	PROB	3.234	n/a	n/a	-999	7	[6, 5, 4]	15	FR1	3	R1339D
1406.167	4.509	1408108	PROB	4.509	n/a	n/a	-999	7	[6, 8, 4]	18	FR1	3	R1339D
1410.676	0.009	1412616	STOP	n/a	n/a	n/a	-999	7	[-999, -999, -999]	n/a	FR1	3	R1339D
1410.685	0.609	1412625	DISTRACT_END	n/a	n/a	n/a	-999	7	[0, 0, 0]	n/a	FR1	3	R1339D
1411.294	1.54	1413234	RETRIEVAL_ORIENT_START	n/a	n/a	n/a	-999	7	[0, 0, 0]	n/a	FR1	3	R1339D
1412.834	0.0	1414774	RETRIEVAL_ORIENT_END	n/a	n/a	n/a	-999	7	[0, 0, 0]	n/a	FR1	3	R1339D
1412.834	1.19	1414774	REC_START	n/a	n/a	n/a	-999	7	[0, 0, 0]	n/a	FR1	3	R1339D
1414.024	0.821	1415964	REC_WORD	0.821	n/a	WEED	3	7	[0, 0, 0]	n/a	FR1	3	R1339D
1414.845	1.518	1416785	REC_WORD	1.518	n/a	STONE	12	7	[0, 0, 0]	n/a	FR1	3	R1339D
1416.363	4.591	1418303	REC_WORD	4.591	n/a	JET	-999	7	[0, 0, 0]	n/a	FR1	3	R1339D
1420.954	11.709	1422894	REC_WORD	11.709	n/a	PEN	-999	7	[0, 0, 0]	n/a	FR1	3	R1339D
1432.663	10.182	1434602	REC_WORD	10.182	n/a	INK	-999	7	[0, 0, 0]	n/a	FR1	3	R1339D
1442.845	0.0	1444784	TRIAL_END	n/a	n/a	n/a	-999	7	[0, 0, 0]	n/a	FR1	3	R1339D
1442.845	0.015	1444784	REC_END	n/a	n/a	n/a	-999	7	[0, 0, 0]	n/a	FR1	3	R1339D
1442.86	0.0	1444799	WAITING_START	n/a	n/a	n/a	-999	8	[0, 0, 0]	n/a	FR1	3	R1339D
1442.86	0.0	1444799	TRIAL_START	n/a	n/a	n/a	-999	8	[0, 0, 0]	n/a	FR1	3	R1339D
1442.86	9.616	1444799	TRIAL	n/a	n/a	n/a	-999	8	[0, 0, 0]	n/a	FR1	3	R1339D
1452.476	0.0	1454414	WAITING_END	n/a	n/a	n/a	-999	8	[0, 0, 0]	n/a	FR1	3	R1339D
1452.476	10.428	1454414	COUNTDOWN_START	n/a	n/a	n/a	-999	8	[0, 0, 0]	n/a	FR1	3	R1339D
1462.904	0.001	1464842	COUNTDOWN_END	n/a	n/a	n/a	-999	8	[0, 0, 0]	n/a	FR1	3	R1339D
1462.905	1.223	1464843	ORIENT_START	n/a	n/a	n/a	-999	8	[0, 0, 0]	n/a	FR1	3	R1339D
1464.128	0.0	1466066	ORIENT_END	n/a	n/a	n/a	-999	8	[0, 0, 0]	n/a	FR1	3	R1339D
1464.128	1.087	1466066	ENCODING_START	n/a	n/a	n/a	-999	8	[0, 0, 0]	n/a	FR1	3	R1339D
1465.215	1.629	1467153	WORD	n/a	n/a	PIG	1	8	[0, 0, 0]	n/a	FR1	3	R1339D
1466.844	0.801	1468781	WORD_OFF	n/a	n/a	PIG	1	8	[0, 0, 0]	n/a	FR1	3	R1339D
1467.645	1.634	1469582	WORD	n/a	n/a	HAT	2	8	[0, 0, 0]	n/a	FR1	3	R1339D
1469.279	0.787	1471216	WORD_OFF	n/a	n/a	HAT	2	8	[0, 0, 0]	n/a	FR1	3	R1339D
1470.066	1.63	1472003	WORD	n/a	n/a	JUICE	3	8	[0, 0, 0]	n/a	FR1	3	R1339D
1471.696	0.879	1473633	WORD_OFF	n/a	n/a	JUICE	3	8	[0, 0, 0]	n/a	FR1	3	R1339D
1472.575	1.638	1474512	WORD	n/a	n/a	HOOK	4	8	[0, 0, 0]	n/a	FR1	3	R1339D
1474.213	0.892	1476150	WORD_OFF	n/a	n/a	HOOK	4	8	[0, 0, 0]	n/a	FR1	3	R1339D
1475.105	1.625	1477042	WORD	n/a	n/a	DIME	5	8	[0, 0, 0]	n/a	FR1	3	R1339D
1476.73	1.0	1478667	WORD_OFF	n/a	n/a	DIME	5	8	[0, 0, 0]	n/a	FR1	3	R1339D
1477.73	1.634	1479667	WORD	n/a	n/a	SMILE	6	8	[0, 0, 0]	n/a	FR1	3	R1339D
1479.364	1.003	1481301	WORD_OFF	n/a	n/a	SMILE	6	8	[0, 0, 0]	n/a	FR1	3	R1339D
1480.367	1.631	1482304	WORD	n/a	n/a	PURSE	7	8	[0, 0, 0]	n/a	FR1	3	R1339D
1481.998	0.838	1483935	WORD_OFF	n/a	n/a	PURSE	7	8	[0, 0, 0]	n/a	FR1	3	R1339D
1482.836	1.629	1484773	WORD	n/a	n/a	FACE	8	8	[0, 0, 0]	n/a	FR1	3	R1339D
1484.465	0.905	1486402	WORD_OFF	n/a	n/a	FACE	8	8	[0, 0, 0]	n/a	FR1	3	R1339D
1485.37	1.629	1487307	WORD	n/a	n/a	BEAK	9	8	[0, 0, 0]	n/a	FR1	3	R1339D
1486.999	0.791	1488935	WORD_OFF	n/a	n/a	BEAK	9	8	[0, 0, 0]	n/a	FR1	3	R1339D
1487.79	1.626	1489726	WORD	n/a	n/a	CONE	10	8	[0, 0, 0]	n/a	FR1	3	R1339D
1489.416	0.946	1491352	WORD_OFF	n/a	n/a	CONE	10	8	[0, 0, 0]	n/a	FR1	3	R1339D
1490.362	1.638	1492298	WORD	n/a	n/a	TOAST	11	8	[0, 0, 0]	n/a	FR1	3	R1339D
1492.0	1.054	1493936	WORD_OFF	n/a	n/a	TOAST	11	8	[0, 0, 0]	n/a	FR1	3	R1339D
1493.054	1.629	1494990	WORD	n/a	n/a	SLUSH	12	8	[0, 0, 0]	n/a	FR1	3	R1339D
1494.683	0.001	1496619	WORD_OFF	n/a	n/a	SLUSH	12	8	[0, 0, 0]	n/a	FR1	3	R1339D
1494.684	0.0	1496620	ENCODING_END	n/a	n/a	n/a	-999	8	[0, 0, 0]	n/a	FR1	3	R1339D
1494.684	0.0	1496620	DISTRACT_START	n/a	n/a	n/a	-999	8	[0, 0, 0]	n/a	FR1	3	R1339D
1494.684	0.016	1496620	START	n/a	n/a	n/a	-999	8	[-999, -999, -999]	n/a	FR1	3	R1339D
1494.7	6.501	1496636	PROB	6.501	n/a	n/a	-999	8	[4, 9, 9]	22	FR1	3	R1339D
1501.201	3.134	1503137	PROB	3.134	n/a	n/a	-999	8	[6, 4, 2]	12	FR1	3	R1339D
1504.335	5.118	1506271	PROB	5.118	n/a	n/a	-999	8	[6, 5, 4]	15	FR1	3	R1339D
1509.453	5.824	1511388	PROB	5.824	n/a	n/a	-999	8	[9, 8, 5]	22	FR1	3	R1339D
1515.277	0.01	1517212	STOP	n/a	n/a	n/a	-999	8	[-999, -999, -999]	n/a	FR1	3	R1339D
1515.287	0.586	1517222	DISTRACT_END	n/a	n/a	n/a	-999	8	[0, 0, 0]	n/a	FR1	3	R1339D
1515.873	1.648	1517808	RETRIEVAL_ORIENT_START	n/a	n/a	n/a	-999	8	[0, 0, 0]	n/a	FR1	3	R1339D
1517.521	0.0	1519456	RETRIEVAL_ORIENT_END	n/a	n/a	n/a	-999	8	[0, 0, 0]	n/a	FR1	3	R1339D
1517.521	7.271	1519456	REC_START	n/a	n/a	n/a	-999	8	[0, 0, 0]	n/a	FR1	3	R1339D
1524.792	5.752	1526726	REC_WORD	5.752	n/a	CONE	10	8	[0, 0, 0]	n/a	FR1	3	R1339D
1530.544	1.248	1532478	REC_WORD	1.248	n/a	HOOK	4	8	[0, 0, 0]	n/a	FR1	3	R1339D
1531.792	15.74	1533726	REC_WORD	15.74	n/a	BONE	-999	8	[0, 0, 0]	n/a	FR1	3	R1339D
1547.532	0.0	1549465	TRIAL_END	n/a	n/a	n/a	-999	8	[0, 0, 0]	n/a	FR1	3	R1339D
1547.532	0.015	1549465	REC_END	n/a	n/a	n/a	-999	8	[0, 0, 0]	n/a	FR1	3	R1339D
1547.547	0.0	1549480	TRIAL_START	n/a	n/a	n/a	-999	9	[0, 0, 0]	n/a	FR1	3	R1339D
1547.547	0.001	1549480	TRIAL	n/a	n/a	n/a	-999	9	[0, 0, 0]	n/a	FR1	3	R1339D
1547.548	3.162	1549481	WAITING_START	n/a	n/a	n/a	-999	9	[0, 0, 0]	n/a	FR1	3	R1339D
1550.71	0.001	1552643	WAITING_END	n/a	n/a	n/a	-999	9	[0, 0, 0]	n/a	FR1	3	R1339D
1550.711	10.428	1552644	COUNTDOWN_START	n/a	n/a	n/a	-999	9	[0, 0, 0]	n/a	FR1	3	R1339D
1561.139	0.0	1563072	COUNTDOWN_END	n/a	n/a	n/a	-999	9	[0, 0, 0]	n/a	FR1	3	R1339D
1561.139	1.056	1563072	ORIENT_START	n/a	n/a	n/a	-999	9	[0, 0, 0]	n/a	FR1	3	R1339D
1562.195	0.001	1564128	ORIENT_END	n/a	n/a	n/a	-999	9	[0, 0, 0]	n/a	FR1	3	R1339D
1562.196	0.834	1564129	ENCODING_START	n/a	n/a	n/a	-999	9	[0, 0, 0]	n/a	FR1	3	R1339D
1563.03	1.633	1564963	WORD	n/a	n/a	BOOK	1	9	[0, 0, 0]	n/a	FR1	3	R1339D
1564.663	0.844	1566595	WORD_OFF	n/a	n/a	BOOK	1	9	[0, 0, 0]	n/a	FR1	3	R1339D
1565.507	1.623	1567439	WORD	n/a	n/a	RUG	2	9	[0, 0, 0]	n/a	FR1	3	R1339D
1567.13	0.907	1569062	WORD_OFF	n/a	n/a	RUG	2	9	[0, 0, 0]	n/a	FR1	3	R1339D
1568.037	1.627	1569969	WORD	n/a	n/a	TAIL	3	9	[0, 0, 0]	n/a	FR1	3	R1339D
1569.664	0.849	1571596	WORD_OFF	n/a	n/a	TAIL	3	9	[0, 0, 0]	n/a	FR1	3	R1339D
1570.513	1.618	1572445	WORD	n/a	n/a	FOX	4	9	[0, 0, 0]	n/a	FR1	3	R1339D
1572.131	1.14	1574063	WORD_OFF	n/a	n/a	FOX	4	9	[0, 0, 0]	n/a	FR1	3	R1339D
1573.271	1.627	1575203	WORD	n/a	n/a	GOAT	5	9	[0, 0, 0]	n/a	FR1	3	R1339D
1574.898	0.991	1576830	WORD_OFF	n/a	n/a	GOAT	5	9	[0, 0, 0]	n/a	FR1	3	R1339D
1575.889	1.626	1577821	WORD	n/a	n/a	WHEEL	6	9	[0, 0, 0]	n/a	FR1	3	R1339D
1577.515	1.048	1579447	WORD_OFF	n/a	n/a	WHEEL	6	9	[0, 0, 0]	n/a	FR1	3	R1339D
1578.563	1.636	1580495	WORD	n/a	n/a	BOARD	7	9	[0, 0, 0]	n/a	FR1	3	R1339D
1580.199	0.991	1582131	WORD_OFF	n/a	n/a	BOARD	7	9	[0, 0, 0]	n/a	FR1	3	R1339D
1581.19	1.626	1583122	WORD	n/a	n/a	AXE	8	9	[0, 0, 0]	n/a	FR1	3	R1339D
1582.816	0.825	1584747	WORD_OFF	n/a	n/a	AXE	8	9	[0, 0, 0]	n/a	FR1	3	R1339D
1583.641	1.626	1585572	WORD	n/a	n/a	HILL	9	9	[0, 0, 0]	n/a	FR1	3	R1339D
1585.267	0.994	1587198	WORD_OFF	n/a	n/a	HILL	9	9	[0, 0, 0]	n/a	FR1	3	R1339D
1586.261	1.623	1588192	WORD	n/a	n/a	MAT	10	9	[0, 0, 0]	n/a	FR1	3	R1339D
1587.884	0.813	1589815	WORD_OFF	n/a	n/a	MAT	10	9	[0, 0, 0]	n/a	FR1	3	R1339D
1588.697	1.637	1590628	WORD	n/a	n/a	PALM	11	9	[0, 0, 0]	n/a	FR1	3	R1339D
1590.334	0.953	1592265	WORD_OFF	n/a	n/a	PALM	11	9	[0, 0, 0]	n/a	FR1	3	R1339D
1591.287	1.631	1593218	WORD	n/a	n/a	PEACH	12	9	[0, 0, 0]	n/a	FR1	3	R1339D
1592.918	0.0	1594849	WORD_OFF	n/a	n/a	PEACH	12	9	[0, 0, 0]	n/a	FR1	3	R1339D
1592.918	0.001	1594849	ENCODING_END	n/a	n/a	n/a	-999	9	[0, 0, 0]	n/a	FR1	3	R1339D
1592.919	0.0	1594850	DISTRACT_START	n/a	n/a	n/a	-999	9	[0, 0, 0]	n/a	FR1	3	R1339D
1592.919	0.015	1594850	START	n/a	n/a	n/a	-999	9	[-999, -999, -999]	n/a	FR1	3	R1339D
1592.934	10.369	1594865	PROB	10.369	n/a	n/a	-999	9	[9, 8, 6]	23	FR1	3	R1339D
1603.303	5.334	1605233	PROB	5.334	n/a	n/a	-999	9	[8, 5, 8]	21	FR1	3	R1339D
1608.637	4.018	1610567	PROB	4.018	n/a	n/a	-999	9	[9, 2, 4]	15	FR1	3	R1339D
1612.655	2.993	1614585	PROB	2.993	n/a	n/a	-999	9	[1, 5, 6]	12	FR1	3	R1339D
1615.648	0.007	1617578	STOP	n/a	n/a	n/a	-999	9	[-999, -999, -999]	n/a	FR1	3	R1339D
1615.655	0.606	1617585	DISTRACT_END	n/a	n/a	n/a	-999	9	[0, 0, 0]	n/a	FR1	3	R1339D
1616.261	1.528	1618191	RETRIEVAL_ORIENT_START	n/a	n/a	n/a	-999	9	[0, 0, 0]	n/a	FR1	3	R1339D
1617.789	0.001	1619719	RETRIEVAL_ORIENT_END	n/a	n/a	n/a	-999	9	[0, 0, 0]	n/a	FR1	3	R1339D
1617.79	0.353	1619720	REC_START	n/a	n/a	n/a	-999	9	[0, 0, 0]	n/a	FR1	3	R1339D
1618.143	0.94	1620073	REC_WORD	0.94	n/a	PALM	11	9	[0, 0, 0]	n/a	FR1	3	R1339D
1619.083	3.459	1621013	REC_WORD	3.459	n/a	PEACH	12	9	[0, 0, 0]	n/a	FR1	3	R1339D
1622.542	25.259	1624471	REC_WORD	25.259	n/a	TREE	-999	9	[0, 0, 0]	n/a	FR1	3	R1339D
1647.801	0.001	1649729	REC_END	n/a	n/a	n/a	-999	9	[0, 0, 0]	n/a	FR1	3	R1339D
1647.802	0.016	1649730	TRIAL_END	n/a	n/a	n/a	-999	9	[0, 0, 0]	n/a	FR1	3	R1339D
1647.818	0.0	1649746	TRIAL_START	n/a	n/a	n/a	-999	10	[0, 0, 0]	n/a	FR1	3	R1339D
1647.818	0.001	1649746	TRIAL	n/a	n/a	n/a	-999	10	[0, 0, 0]	n/a	FR1	3	R1339D
1647.819	13.595	1649747	WAITING_START	n/a	n/a	n/a	-999	10	[0, 0, 0]	n/a	FR1	3	R1339D
1661.414	0.0	1663341	WAITING_END	n/a	n/a	n/a	-999	10	[0, 0, 0]	n/a	FR1	3	R1339D
1661.414	10.429	1663341	COUNTDOWN_START	n/a	n/a	n/a	-999	10	[0, 0, 0]	n/a	FR1	3	R1339D
1671.843	0.0	1673770	COUNTDOWN_END	n/a	n/a	n/a	-999	10	[0, 0, 0]	n/a	FR1	3	R1339D
1671.843	1.022	1673770	ORIENT_START	n/a	n/a	n/a	-999	10	[0, 0, 0]	n/a	FR1	3	R1339D
1672.865	0.0	1674792	ORIENT_END	n/a	n/a	n/a	-999	10	[0, 0, 0]	n/a	FR1	3	R1339D
1672.865	1.11	1674792	ENCODING_START	n/a	n/a	n/a	-999	10	[0, 0, 0]	n/a	FR1	3	R1339D
1673.975	1.625	1675902	WORD	n/a	n/a	SPRING	1	10	[0, 0, 0]	n/a	FR1	3	R1339D
1675.6	1.052	1677527	WORD_OFF	n/a	n/a	SPRING	1	10	[0, 0, 0]	n/a	FR1	3	R1339D
1676.652	1.632	1678579	WORD	n/a	n/a	JAR	2	10	[0, 0, 0]	n/a	FR1	3	R1339D
1678.284	0.964	1680211	WORD_OFF	n/a	n/a	JAR	2	10	[0, 0, 0]	n/a	FR1	3	R1339D
1679.248	1.636	1681174	WORD	n/a	n/a	LOCK	3	10	[0, 0, 0]	n/a	FR1	3	R1339D
1680.884	0.864	1682810	WORD_OFF	n/a	n/a	LOCK	3	10	[0, 0, 0]	n/a	FR1	3	R1339D
1681.748	1.636	1683674	WORD	n/a	n/a	TRASH	4	10	[0, 0, 0]	n/a	FR1	3	R1339D
1683.384	1.136	1685310	WORD_OFF	n/a	n/a	TRASH	4	10	[0, 0, 0]	n/a	FR1	3	R1339D
1684.52	1.632	1686446	WORD	n/a	n/a	STOOL	5	10	[0, 0, 0]	n/a	FR1	3	R1339D
1686.152	0.802	1688078	WORD_OFF	n/a	n/a	STOOL	5	10	[0, 0, 0]	n/a	FR1	3	R1339D
1686.954	1.631	1688880	WORD	n/a	n/a	SHARK	6	10	[0, 0, 0]	n/a	FR1	3	R1339D
1688.585	0.895	1690511	WORD_OFF	n/a	n/a	SHARK	6	10	[0, 0, 0]	n/a	FR1	3	R1339D
1689.48	1.623	1691406	WORD	n/a	n/a	DESK	7	10	[0, 0, 0]	n/a	FR1	3	R1339D
1691.103	0.839	1693029	WORD_OFF	n/a	n/a	DESK	7	10	[0, 0, 0]	n/a	FR1	3	R1339D
1691.942	1.628	1693868	WORD	n/a	n/a	BEAR	8	10	[0, 0, 0]	n/a	FR1	3	R1339D
1693.57	1.003	1695496	WORD_OFF	n/a	n/a	BEAR	8	10	[0, 0, 0]	n/a	FR1	3	R1339D
1694.573	1.631	1696499	WORD	n/a	n/a	SKUNK	9	10	[0, 0, 0]	n/a	FR1	3	R1339D
1696.204	0.871	1698130	WORD_OFF	n/a	n/a	SKUNK	9	10	[0, 0, 0]	n/a	FR1	3	R1339D
1697.075	1.629	1699001	WORD	n/a	n/a	POOL	10	10	[0, 0, 0]	n/a	FR1	3	R1339D
1698.704	1.026	1700629	WORD_OFF	n/a	n/a	POOL	10	10	[0, 0, 0]	n/a	FR1	3	R1339D
1699.73	1.624	1701655	WORD	n/a	n/a	FAN	11	10	[0, 0, 0]	n/a	FR1	3	R1339D
1701.354	0.977	1703279	WORD_OFF	n/a	n/a	FAN	11	10	[0, 0, 0]	n/a	FR1	3	R1339D
1702.331	1.624	1704256	WORD	n/a	n/a	JUDGE	12	10	[0, 0, 0]	n/a	FR1	3	R1339D
1703.955	0.0	1705880	WORD_OFF	n/a	n/a	JUDGE	12	10	[0, 0, 0]	n/a	FR1	3	R1339D
1703.955	0.001	1705880	ENCODING_END	n/a	n/a	n/a	-999	10	[0, 0, 0]	n/a	FR1	3	R1339D
1703.956	0.0	1705881	DISTRACT_START	n/a	n/a	n/a	-999	10	[0, 0, 0]	n/a	FR1	3	R1339D
1703.956	0.015	1705881	START	n/a	n/a	n/a	-999	10	[-999, -999, -999]	n/a	FR1	3	R1339D
1703.971	3.9	1705896	PROB	3.9	n/a	n/a	-999	10	[2, 9, 4]	15	FR1	3	R1339D
1707.871	4.302	1709796	PROB	4.302	n/a	n/a	-999	10	[6, 2, 6]	14	FR1	3	R1339D
1712.173	3.784	1714098	PROB	3.784	n/a	n/a	-999	10	[3, 5, 2]	10	FR1	3	R1339D
1715.957	5.051	1717882	PROB	5.051	n/a	n/a	-999	10	[6, 8, 6]	20	FR1	3	R1339D
1721.008	7.49	1722932	PROB	7.49	n/a	n/a	-999	10	[3, 8, 9]	20	FR1	3	R1339D
1728.498	0.011	1730422	STOP	n/a	n/a	n/a	-999	10	[-999, -999, -999]	n/a	FR1	3	R1339D
1728.509	0.679	1730433	DISTRACT_END	n/a	n/a	n/a	-999	10	[0, 0, 0]	n/a	FR1	3	R1339D
1729.188	1.555	1731112	RETRIEVAL_ORIENT_START	n/a	n/a	n/a	-999	10	[0, 0, 0]	n/a	FR1	3	R1339D
1730.743	0.0	1732667	RETRIEVAL_ORIENT_END	n/a	n/a	n/a	-999	10	[0, 0, 0]	n/a	FR1	3	R1339D
1730.743	5.174	1732667	REC_START	n/a	n/a	n/a	-999	10	[0, 0, 0]	n/a	FR1	3	R1339D
1735.917	1.057	1737841	REC_WORD	1.057	n/a	PEN	-999	10	[0, 0, 0]	n/a	FR1	3	R1339D
1736.974	23.782	1738898	REC_WORD	23.782	n/a	POOL	10	10	[0, 0, 0]	n/a	FR1	3	R1339D
1760.756	0.0	1762678	REC_END	n/a	n/a	n/a	-999	10	[0, 0, 0]	n/a	FR1	3	R1339D
1760.756	0.015	1762678	TRIAL_END	n/a	n/a	n/a	-999	10	[0, 0, 0]	n/a	FR1	3	R1339D
1760.771	0.0	1762693	TRIAL_START	n/a	n/a	n/a	-999	11	[0, 0, 0]	n/a	FR1	3	R1339D
1760.771	0.0	1762693	TRIAL	n/a	n/a	n/a	-999	11	[0, 0, 0]	n/a	FR1	3	R1339D
1760.771	2.028	1762693	WAITING_START	n/a	n/a	n/a	-999	11	[0, 0, 0]	n/a	FR1	3	R1339D
1762.799	0.0	1764721	WAITING_END	n/a	n/a	n/a	-999	11	[0, 0, 0]	n/a	FR1	3	R1339D
1762.799	10.429	1764721	COUNTDOWN_START	n/a	n/a	n/a	-999	11	[0, 0, 0]	n/a	FR1	3	R1339D
1773.228	0.001	1775150	COUNTDOWN_END	n/a	n/a	n/a	-999	11	[0, 0, 0]	n/a	FR1	3	R1339D
1773.229	1.039	1775151	ORIENT_START	n/a	n/a	n/a	-999	11	[0, 0, 0]	n/a	FR1	3	R1339D
1774.268	0.0	1776190	ENCODING_START	n/a	n/a	n/a	-999	11	[0, 0, 0]	n/a	FR1	3	R1339D
1774.268	0.921	1776190	ORIENT_END	n/a	n/a	n/a	-999	11	[0, 0, 0]	n/a	FR1	3	R1339D
1775.189	1.629	1777111	WORD	n/a	n/a	MILK	1	11	[0, 0, 0]	n/a	FR1	3	R1339D
1776.818	0.766	1778739	WORD_OFF	n/a	n/a	MILK	1	11	[0, 0, 0]	n/a	FR1	3	R1339D
1777.584	1.635	1779505	WORD	n/a	n/a	BANK	2	11	[0, 0, 0]	n/a	FR1	3	R1339D
1779.219	1.103	1781140	WORD_OFF	n/a	n/a	BANK	2	11	[0, 0, 0]	n/a	FR1	3	R1339D
1780.322	1.63	1782243	WORD	n/a	n/a	WAND	3	11	[0, 0, 0]	n/a	FR1	3	R1339D
1781.952	1.053	1783873	WORD_OFF	n/a	n/a	WAND	3	11	[0, 0, 0]	n/a	FR1	3	R1339D
1783.005	1.631	1784926	WORD	n/a	n/a	STAIR	4	11	[0, 0, 0]	n/a	FR1	3	R1339D
1784.636	0.765	1786557	WORD_OFF	n/a	n/a	STAIR	4	11	[0, 0, 0]	n/a	FR1	3	R1339D
1785.401	1.636	1787322	WORD	n/a	n/a	FROG	5	11	[0, 0, 0]	n/a	FR1	3	R1339D
1787.037	1.133	1788958	WORD_OFF	n/a	n/a	FROG	5	11	[0, 0, 0]	n/a	FR1	3	R1339D
1788.17	1.634	1790091	WORD	n/a	n/a	PLANT	6	11	[0, 0, 0]	n/a	FR1	3	R1339D
1789.804	1.084	1791725	WORD_OFF	n/a	n/a	PLANT	6	11	[0, 0, 0]	n/a	FR1	3	R1339D
1790.888	1.633	1792809	WORD	n/a	n/a	PANTS	7	11	[0, 0, 0]	n/a	FR1	3	R1339D
1792.521	1.09	1794442	WORD_OFF	n/a	n/a	PANTS	7	11	[0, 0, 0]	n/a	FR1	3	R1339D
1793.611	1.627	1795532	WORD	n/a	n/a	CLIFF	8	11	[0, 0, 0]	n/a	FR1	3	R1339D
1795.238	0.962	1797159	WORD_OFF	n/a	n/a	CLIFF	8	11	[0, 0, 0]	n/a	FR1	3	R1339D
1796.2	1.622	1798120	WORD	n/a	n/a	ROOF	9	11	[0, 0, 0]	n/a	FR1	3	R1339D
1797.822	1.111	1799742	WORD_OFF	n/a	n/a	ROOF	9	11	[0, 0, 0]	n/a	FR1	3	R1339D
1798.933	1.623	1800853	WORD	n/a	n/a	SPARK	10	11	[0, 0, 0]	n/a	FR1	3	R1339D
1800.556	1.081	1802476	WORD_OFF	n/a	n/a	SPARK	10	11	[0, 0, 0]	n/a	FR1	3	R1339D
1801.637	1.636	1803557	WORD	n/a	n/a	DOOR	11	11	[0, 0, 0]	n/a	FR1	3	R1339D
1803.273	0.959	1805193	WORD_OFF	n/a	n/a	DOOR	11	11	[0, 0, 0]	n/a	FR1	3	R1339D
1804.232	1.624	1806152	WORD	n/a	n/a	ZOO	12	11	[0, 0, 0]	n/a	FR1	3	R1339D
1805.856	0.0	1807776	WORD_OFF	n/a	n/a	ZOO	12	11	[0, 0, 0]	n/a	FR1	3	R1339D
1805.856	0.0	1807776	ENCODING_END	n/a	n/a	n/a	-999	11	[0, 0, 0]	n/a	FR1	3	R1339D
1805.856	0.001	1807776	DISTRACT_START	n/a	n/a	n/a	-999	11	[0, 0, 0]	n/a	FR1	3	R1339D
1805.857	0.015	1807777	START	n/a	n/a	n/a	-999	11	[-999, -999, -999]	n/a	FR1	3	R1339D
1805.872	3.652	1807792	PROB	3.652	n/a	n/a	-999	11	[8, 6, 6]	20	FR1	3	R1339D
1809.524	2.15	1811444	PROB	2.15	n/a	n/a	-999	11	[1, 1, 7]	9	FR1	3	R1339D
1811.674	4.001	1813594	PROB	4.001	n/a	n/a	-999	11	[4, 3, 2]	9	FR1	3	R1339D
1815.675	8.002	1817594	PROB	8.002	n/a	n/a	-999	11	[8, 7, 8]	23	FR1	3	R1339D
1823.677	3.44	1825596	PROB	3.44	n/a	n/a	-999	11	[9, 4, 1]	14	FR1	3	R1339D
1827.117	0.01	1829036	STOP	n/a	n/a	n/a	-999	11	[-999, -999, -999]	n/a	FR1	3	R1339D
1827.127	0.67	1829046	DISTRACT_END	n/a	n/a	n/a	-999	11	[0, 0, 0]	n/a	FR1	3	R1339D
1827.797	1.731	1829716	RETRIEVAL_ORIENT_START	n/a	n/a	n/a	-999	11	[0, 0, 0]	n/a	FR1	3	R1339D
1829.528	0.0	1831447	RETRIEVAL_ORIENT_END	n/a	n/a	n/a	-999	11	[0, 0, 0]	n/a	FR1	3	R1339D
1829.528	0.311	1831447	REC_START	n/a	n/a	n/a	-999	11	[0, 0, 0]	n/a	FR1	3	R1339D
1829.839	0.689	1831758	REC_WORD	0.689	n/a	DESK	-999	11	[0, 0, 0]	n/a	FR1	3	R1339D
1830.528	29.012	1832447	REC_WORD	29.012	n/a	STOOL	-999	11	[0, 0, 0]	n/a	FR1	3	R1339D
1859.54	0.0	1861457	REC_END	n/a	n/a	n/a	-999	11	[0, 0, 0]	n/a	FR1	3	R1339D
1859.54	0.044	1861457	TRIAL_END	n/a	n/a	n/a	-999	11	[0, 0, 0]	n/a	FR1	3	R1339D
1859.584	0.0	1861501	TRIAL_START	n/a	n/a	n/a	-999	12	[0, 0, 0]	n/a	FR1	3	R1339D
1859.584	0.0	1861501	TRIAL	n/a	n/a	n/a	-999	12	[0, 0, 0]	n/a	FR1	3	R1339D
1859.584	223.64	1861501	WAITING_START	n/a	n/a	n/a	-999	12	[0, 0, 0]	n/a	FR1	3	R1339D
2083.224	0.001	2085130	WAITING_END	n/a	n/a	n/a	-999	12	[0, 0, 0]	n/a	FR1	3	R1339D
2083.225	10.429	2085131	COUNTDOWN_START	n/a	n/a	n/a	-999	12	[0, 0, 0]	n/a	FR1	3	R1339D
2093.654	0.0	2095559	ORIENT_START	n/a	n/a	n/a	-999	12	[0, 0, 0]	n/a	FR1	3	R1339D
2093.654	1.039	2095559	COUNTDOWN_END	n/a	n/a	n/a	-999	12	[0, 0, 0]	n/a	FR1	3	R1339D
2094.693	0.0	2096598	ORIENT_END	n/a	n/a	n/a	-999	12	[0, 0, 0]	n/a	FR1	3	R1339D
2094.693	0.846	2096598	ENCODING_START	n/a	n/a	n/a	-999	12	[0, 0, 0]	n/a	FR1	3	R1339D
2095.539	1.638	2097444	WORD	n/a	n/a	STORM	1	12	[0, 0, 0]	n/a	FR1	3	R1339D
2097.177	0.846	2099082	WORD_OFF	n/a	n/a	STORM	1	12	[0, 0, 0]	n/a	FR1	3	R1339D
2098.023	1.637	2099928	WORD	n/a	n/a	CAPE	2	12	[0, 0, 0]	n/a	FR1	3	R1339D
2099.66	1.063	2101565	WORD_OFF	n/a	n/a	CAPE	2	12	[0, 0, 0]	n/a	FR1	3	R1339D
2100.723	1.621	2102628	WORD	n/a	n/a	TOY	3	12	[0, 0, 0]	n/a	FR1	3	R1339D
2102.344	1.137	2104249	WORD_OFF	n/a	n/a	TOY	3	12	[0, 0, 0]	n/a	FR1	3	R1339D
2103.481	1.631	2105386	WORD	n/a	n/a	COW	4	12	[0, 0, 0]	n/a	FR1	3	R1339D
2105.112	0.758	2107016	WORD_OFF	n/a	n/a	COW	4	12	[0, 0, 0]	n/a	FR1	3	R1339D
2105.87	1.625	2107774	WORD	n/a	n/a	GUARD	5	12	[0, 0, 0]	n/a	FR1	3	R1339D
2107.495	0.988	2109399	WORD_OFF	n/a	n/a	GUARD	5	12	[0, 0, 0]	n/a	FR1	3	R1339D
2108.483	1.629	2110387	WORD	n/a	n/a	STOVE	6	12	[0, 0, 0]	n/a	FR1	3	R1339D
2110.112	1.117	2112016	WORD_OFF	n/a	n/a	STOVE	6	12	[0, 0, 0]	n/a	FR1	3	R1339D
2111.229	1.633	2113133	WORD	n/a	n/a	ELF	7	12	[0, 0, 0]	n/a	FR1	3	R1339D
2112.862	0.998	2114766	WORD_OFF	n/a	n/a	ELF	7	12	[0, 0, 0]	n/a	FR1	3	R1339D
2113.86	1.637	2115764	WORD	n/a	n/a	STEAM	8	12	[0, 0, 0]	n/a	FR1	3	R1339D
2115.497	0.875	2117401	WORD_OFF	n/a	n/a	STEAM	8	12	[0, 0, 0]	n/a	FR1	3	R1339D
2116.372	1.625	2118276	WORD	n/a	n/a	NOSE	9	12	[0, 0, 0]	n/a	FR1	3	R1339D
2117.997	1.123	2119901	WORD_OFF	n/a	n/a	NOSE	9	12	[0, 0, 0]	n/a	FR1	3	R1339D
2119.12	1.628	2121024	WORD	n/a	n/a	SHEET	10	12	[0, 0, 0]	n/a	FR1	3	R1339D
2120.748	0.973	2122652	WORD_OFF	n/a	n/a	SHEET	10	12	[0, 0, 0]	n/a	FR1	3	R1339D
2121.721	1.627	2123625	WORD	n/a	n/a	VEST	11	12	[0, 0, 0]	n/a	FR1	3	R1339D
2123.348	1.025	2125252	WORD_OFF	n/a	n/a	VEST	11	12	[0, 0, 0]	n/a	FR1	3	R1339D
2124.373	1.625	2126276	WORD	n/a	n/a	HEN	12	12	[0, 0, 0]	n/a	FR1	3	R1339D
2125.998	0.001	2127901	WORD_OFF	n/a	n/a	HEN	12	12	[0, 0, 0]	n/a	FR1	3	R1339D
2125.999	0.0	2127902	DISTRACT_START	n/a	n/a	n/a	-999	12	[0, 0, 0]	n/a	FR1	3	R1339D
2125.999	0.0	2127902	ENCODING_END	n/a	n/a	n/a	-999	12	[0, 0, 0]	n/a	FR1	3	R1339D
2125.999	0.016	2127902	START	n/a	n/a	n/a	-999	12	[-999, -999, -999]	n/a	FR1	3	R1339D
2126.015	3.567	2127918	PROB	3.567	n/a	n/a	-999	12	[9, 5, 4]	18	FR1	3	R1339D
2129.582	2.317	2131485	PROB	2.317	n/a	n/a	-999	12	[1, 3, 4]	8	FR1	3	R1339D
2131.899	4.451	2133802	PROB	4.451	n/a	n/a	-999	12	[4, 6, 3]	13	FR1	3	R1339D
2136.35	6.585	2138253	PROB	6.585	n/a	n/a	-999	12	[6, 1, 8]	15	FR1	3	R1339D
2142.935	3.69	2144838	PROB	3.69	n/a	n/a	-999	12	[7, 2, 7]	16	FR1	3	R1339D
2146.625	0.011	2148527	STOP	n/a	n/a	n/a	-999	12	[-999, -999, -999]	n/a	FR1	3	R1339D
2146.636	0.63	2148538	DISTRACT_END	n/a	n/a	n/a	-999	12	[0, 0, 0]	n/a	FR1	3	R1339D
2147.266	1.602	2149168	RETRIEVAL_ORIENT_START	n/a	n/a	n/a	-999	12	[0, 0, 0]	n/a	FR1	3	R1339D
2148.868	0.001	2150770	RETRIEVAL_ORIENT_END	n/a	n/a	n/a	-999	12	[0, 0, 0]	n/a	FR1	3	R1339D
2148.869	29.994	2150771	REC_START	n/a	n/a	n/a	-999	12	[0, 0, 0]	n/a	FR1	3	R1339D
2178.863	0.018	2180764	REC_WORD_VV	0.018	n/a	<>	-999	12	[0, 0, 0]	n/a	FR1	3	R1339D
2178.881	0.0	2180782	REC_END	n/a	n/a	n/a	-999	12	[0, 0, 0]	n/a	FR1	3	R1339D
2178.881	0.019	2180782	TRIAL_END	n/a	n/a	n/a	-999	12	[0, 0, 0]	n/a	FR1	3	R1339D
2178.9	0.0	2180801	TRIAL_START	n/a	n/a	n/a	-999	13	[0, 0, 0]	n/a	FR1	3	R1339D
2178.9	0.001	2180801	TRIAL	n/a	n/a	n/a	-999	13	[0, 0, 0]	n/a	FR1	3	R1339D
2178.901	7.842	2180802	WAITING_START	n/a	n/a	n/a	-999	13	[0, 0, 0]	n/a	FR1	3	R1339D
2186.743	0.0	2188643	WAITING_END	n/a	n/a	n/a	-999	13	[0, 0, 0]	n/a	FR1	3	R1339D
2186.743	10.43	2188643	COUNTDOWN_START	n/a	n/a	n/a	-999	13	[0, 0, 0]	n/a	FR1	3	R1339D
2197.173	0.0	2199073	ORIENT_START	n/a	n/a	n/a	-999	13	[0, 0, 0]	n/a	FR1	3	R1339D
2197.173	1.172	2199073	COUNTDOWN_END	n/a	n/a	n/a	-999	13	[0, 0, 0]	n/a	FR1	3	R1339D
2198.345	0.0	2200245	ORIENT_END	n/a	n/a	n/a	-999	13	[0, 0, 0]	n/a	FR1	3	R1339D
2198.345	1.072	2200245	ENCODING_START	n/a	n/a	n/a	-999	13	[0, 0, 0]	n/a	FR1	3	R1339D
2199.417	1.628	2201317	WORD	n/a	n/a	SMOKE	1	13	[0, 0, 0]	n/a	FR1	3	R1339D
2201.045	0.932	2202945	WORD_OFF	n/a	n/a	SMOKE	1	13	[0, 0, 0]	n/a	FR1	3	R1339D
2201.977	1.636	2203876	WORD	n/a	n/a	FUR	2	13	[0, 0, 0]	n/a	FR1	3	R1339D
2203.613	0.96	2205512	WORD_OFF	n/a	n/a	FUR	2	13	[0, 0, 0]	n/a	FR1	3	R1339D
2204.573	1.623	2206472	WORD	n/a	n/a	SCHOOL	3	13	[0, 0, 0]	n/a	FR1	3	R1339D
2206.196	1.085	2208095	WORD_OFF	n/a	n/a	SCHOOL	3	13	[0, 0, 0]	n/a	FR1	3	R1339D
2207.281	1.633	2209180	WORD	n/a	n/a	LAWN	4	13	[0, 0, 0]	n/a	FR1	3	R1339D
2208.914	1.144	2210813	WORD_OFF	n/a	n/a	LAWN	4	13	[0, 0, 0]	n/a	FR1	3	R1339D
2210.058	1.623	2211957	WORD	n/a	n/a	STORE	5	13	[0, 0, 0]	n/a	FR1	3	R1339D
2211.681	1.011	2213580	WORD_OFF	n/a	n/a	STORE	5	13	[0, 0, 0]	n/a	FR1	3	R1339D
2212.692	1.623	2214591	WORD	n/a	n/a	CLOUD	6	13	[0, 0, 0]	n/a	FR1	3	R1339D
2214.315	0.861	2216214	WORD_OFF	n/a	n/a	CLOUD	6	13	[0, 0, 0]	n/a	FR1	3	R1339D
2215.176	1.622	2217075	WORD	n/a	n/a	SUIT	7	13	[0, 0, 0]	n/a	FR1	3	R1339D
2216.798	0.859	2218697	WORD_OFF	n/a	n/a	SUIT	7	13	[0, 0, 0]	n/a	FR1	3	R1339D
2217.657	1.625	2219556	WORD	n/a	n/a	FOG	8	13	[0, 0, 0]	n/a	FR1	3	R1339D
2219.282	0.983	2221181	WORD_OFF	n/a	n/a	FOG	8	13	[0, 0, 0]	n/a	FR1	3	R1339D
2220.265	1.634	2222164	WORD	n/a	n/a	LEAF	9	13	[0, 0, 0]	n/a	FR1	3	R1339D
2221.899	0.994	2223797	WORD_OFF	n/a	n/a	LEAF	9	13	[0, 0, 0]	n/a	FR1	3	R1339D
2222.893	1.623	2224791	WORD	n/a	n/a	DART	10	13	[0, 0, 0]	n/a	FR1	3	R1339D
2224.516	1.025	2226414	WORD_OFF	n/a	n/a	DART	10	13	[0, 0, 0]	n/a	FR1	3	R1339D
2225.541	1.626	2227439	WORD	n/a	n/a	GEESE	11	13	[0, 0, 0]	n/a	FR1	3	R1339D
2227.167	0.865	2229065	WORD_OFF	n/a	n/a	GEESE	11	13	[0, 0, 0]	n/a	FR1	3	R1339D
2228.032	1.635	2229930	WORD	n/a	n/a	GLOVE	12	13	[0, 0, 0]	n/a	FR1	3	R1339D
2229.667	0.001	2231565	WORD_OFF	n/a	n/a	GLOVE	12	13	[0, 0, 0]	n/a	FR1	3	R1339D
2229.668	0.0	2231566	DISTRACT_START	n/a	n/a	n/a	-999	13	[0, 0, 0]	n/a	FR1	3	R1339D
2229.668	0.0	2231566	ENCODING_END	n/a	n/a	n/a	-999	13	[0, 0, 0]	n/a	FR1	3	R1339D
2229.668	0.016	2231566	START	n/a	n/a	n/a	-999	13	[-999, -999, -999]	n/a	FR1	3	R1339D
2229.684	3.417	2231582	PROB	3.417	n/a	n/a	-999	13	[6, 6, 2]	14	FR1	3	R1339D
2233.101	13.936	2234999	PROB	13.936	n/a	n/a	-999	13	[7, 9, 3]	18	FR1	3	R1339D
2247.037	5.203	2248934	PROB	5.203	n/a	n/a	-999	13	[2, 4, 2]	8	FR1	3	R1339D
2252.24	0.015	2254137	STOP	n/a	n/a	n/a	-999	13	[-999, -999, -999]	n/a	FR1	3	R1339D
2252.255	0.573	2254152	DISTRACT_END	n/a	n/a	n/a	-999	13	[0, 0, 0]	n/a	FR1	3	R1339D
2252.828	1.661	2254725	RETRIEVAL_ORIENT_START	n/a	n/a	n/a	-999	13	[0, 0, 0]	n/a	FR1	3	R1339D
2254.489	0.0	2256386	RETRIEVAL_ORIENT_END	n/a	n/a	n/a	-999	13	[0, 0, 0]	n/a	FR1	3	R1339D
2254.489	5.457	2256386	REC_START	n/a	n/a	n/a	-999	13	[0, 0, 0]	n/a	FR1	3	R1339D
2259.946	0.897	2261842	REC_WORD	0.897	n/a	FUR	2	13	[0, 0, 0]	n/a	FR1	3	R1339D
2260.843	23.657	2262739	REC_WORD	23.657	n/a	STOVE	-999	13	[0, 0, 0]	n/a	FR1	3	R1339D
2284.5	0.0	2286395	REC_END	n/a	n/a	n/a	-999	13	[0, 0, 0]	n/a	FR1	3	R1339D
2284.5	0.015	2286395	TRIAL_END	n/a	n/a	n/a	-999	13	[0, 0, 0]	n/a	FR1	3	R1339D
2284.515	0.0	2286410	TRIAL_START	n/a	n/a	n/a	-999	14	[0, 0, 0]	n/a	FR1	3	R1339D
2284.515	0.0	2286410	TRIAL	n/a	n/a	n/a	-999	14	[0, 0, 0]	n/a	FR1	3	R1339D
2284.515	13.748	2286410	WAITING_START	n/a	n/a	n/a	-999	14	[0, 0, 0]	n/a	FR1	3	R1339D
2298.263	0.001	2300157	WAITING_END	n/a	n/a	n/a	-999	14	[0, 0, 0]	n/a	FR1	3	R1339D
2298.264	10.428	2300158	COUNTDOWN_START	n/a	n/a	n/a	-999	14	[0, 0, 0]	n/a	FR1	3	R1339D
2308.692	0.001	2310586	COUNTDOWN_END	n/a	n/a	n/a	-999	14	[0, 0, 0]	n/a	FR1	3	R1339D
2308.693	1.222	2310587	ORIENT_START	n/a	n/a	n/a	-999	14	[0, 0, 0]	n/a	FR1	3	R1339D
2309.915	0.001	2311809	ORIENT_END	n/a	n/a	n/a	-999	14	[0, 0, 0]	n/a	FR1	3	R1339D
2309.916	0.933	2311810	ENCODING_START	n/a	n/a	n/a	-999	14	[0, 0, 0]	n/a	FR1	3	R1339D
2310.849	1.634	2312743	WORD	n/a	n/a	SAIL	1	14	[0, 0, 0]	n/a	FR1	3	R1339D
2312.483	0.951	2314377	WORD_OFF	n/a	n/a	SAIL	1	14	[0, 0, 0]	n/a	FR1	3	R1339D
2313.434	1.632	2315328	WORD	n/a	n/a	MAP	2	14	[0, 0, 0]	n/a	FR1	3	R1339D
2315.066	1.09	2316960	WORD_OFF	n/a	n/a	MAP	2	14	[0, 0, 0]	n/a	FR1	3	R1339D
2316.156	1.628	2318050	WORD	n/a	n/a	FOOT	3	14	[0, 0, 0]	n/a	FR1	3	R1339D
2317.784	1.137	2319677	WORD_OFF	n/a	n/a	FOOT	3	14	[0, 0, 0]	n/a	FR1	3	R1339D
2318.921	1.63	2320814	WORD	n/a	n/a	TOE	4	14	[0, 0, 0]	n/a	FR1	3	R1339D
2320.551	0.793	2322444	WORD_OFF	n/a	n/a	TOE	4	14	[0, 0, 0]	n/a	FR1	3	R1339D
2321.344	1.624	2323237	WORD	n/a	n/a	MOUSE	5	14	[0, 0, 0]	n/a	FR1	3	R1339D
2322.968	0.839	2324861	WORD_OFF	n/a	n/a	MOUSE	5	14	[0, 0, 0]	n/a	FR1	3	R1339D
2323.807	1.628	2325700	WORD	n/a	n/a	VASE	6	14	[0, 0, 0]	n/a	FR1	3	R1339D
2325.435	0.815	2327328	WORD_OFF	n/a	n/a	VASE	6	14	[0, 0, 0]	n/a	FR1	3	R1339D
2326.25	1.635	2328143	WORD	n/a	n/a	BOY	7	14	[0, 0, 0]	n/a	FR1	3	R1339D
2327.885	0.95	2329778	WORD_OFF	n/a	n/a	BOY	7	14	[0, 0, 0]	n/a	FR1	3	R1339D
2328.835	1.634	2330728	WORD	n/a	n/a	CAKE	8	14	[0, 0, 0]	n/a	FR1	3	R1339D
2330.469	0.769	2332362	WORD_OFF	n/a	n/a	CAKE	8	14	[0, 0, 0]	n/a	FR1	3	R1339D
2331.238	1.631	2333131	WORD	n/a	n/a	RAKE	9	14	[0, 0, 0]	n/a	FR1	3	R1339D
2332.869	0.806	2334762	WORD_OFF	n/a	n/a	RAKE	9	14	[0, 0, 0]	n/a	FR1	3	R1339D
2333.675	1.628	2335568	WORD	n/a	n/a	CHEEK	10	14	[0, 0, 0]	n/a	FR1	3	R1339D
2335.303	1.051	2337196	WORD_OFF	n/a	n/a	CHEEK	10	14	[0, 0, 0]	n/a	FR1	3	R1339D
2336.354	1.633	2338247	WORD	n/a	n/a	WORLD	11	14	[0, 0, 0]	n/a	FR1	3	R1339D
2337.987	0.966	2339879	WORD_OFF	n/a	n/a	WORLD	11	14	[0, 0, 0]	n/a	FR1	3	R1339D
2338.953	1.635	2340845	WORD	n/a	n/a	SHIRT	12	14	[0, 0, 0]	n/a	FR1	3	R1339D
2340.588	0.0	2342480	WORD_OFF	n/a	n/a	SHIRT	12	14	[0, 0, 0]	n/a	FR1	3	R1339D
2340.588	0.0	2342480	ENCODING_END	n/a	n/a	n/a	-999	14	[0, 0, 0]	n/a	FR1	3	R1339D
2340.588	0.0	2342480	DISTRACT_START	n/a	n/a	n/a	-999	14	[0, 0, 0]	n/a	FR1	3	R1339D
2340.588	0.016	2342480	START	n/a	n/a	n/a	-999	14	[-999, -999, -999]	n/a	FR1	3	R1339D
2340.604	4.034	2342496	PROB	4.034	n/a	n/a	-999	14	[8, 2, 6]	16	FR1	3	R1339D
2344.638	18.032	2346530	PROB	18.032	n/a	n/a	-999	14	[8, 6, 7]	21	FR1	3	R1339D
2362.67	0.022	2364561	STOP	n/a	n/a	n/a	-999	14	[-999, -999, -999]	n/a	FR1	3	R1339D
2362.692	0.69	2364583	DISTRACT_END	n/a	n/a	n/a	-999	14	[0, 0, 0]	n/a	FR1	3	R1339D
2363.382	1.527	2365273	RETRIEVAL_ORIENT_START	n/a	n/a	n/a	-999	14	[0, 0, 0]	n/a	FR1	3	R1339D
2364.909	0.0	2366800	RETRIEVAL_ORIENT_END	n/a	n/a	n/a	-999	14	[0, 0, 0]	n/a	FR1	3	R1339D
2364.909	6.448	2366800	REC_START	n/a	n/a	n/a	-999	14	[0, 0, 0]	n/a	FR1	3	R1339D
2371.357	3.091	2373248	REC_WORD	3.091	n/a	GLOVE	-999	14	[0, 0, 0]	n/a	FR1	3	R1339D
2374.448	20.472	2376339	REC_WORD	20.472	n/a	FIRE	-999	14	[0, 0, 0]	n/a	FR1	3	R1339D
2394.92	0.0	2396809	REC_END	n/a	n/a	n/a	-999	14	[0, 0, 0]	n/a	FR1	3	R1339D
2394.92	0.014	2396809	TRIAL_END	n/a	n/a	n/a	-999	14	[0, 0, 0]	n/a	FR1	3	R1339D
2394.934	0.0	2396823	TRIAL_START	n/a	n/a	n/a	-999	15	[0, 0, 0]	n/a	FR1	3	R1339D
2394.934	0.001	2396823	TRIAL	n/a	n/a	n/a	-999	15	[0, 0, 0]	n/a	FR1	3	R1339D
2394.935	7.047	2396824	WAITING_START	n/a	n/a	n/a	-999	15	[0, 0, 0]	n/a	FR1	3	R1339D
2401.982	0.001	2403871	WAITING_END	n/a	n/a	n/a	-999	15	[0, 0, 0]	n/a	FR1	3	R1339D
2401.983	10.429	2403872	COUNTDOWN_START	n/a	n/a	n/a	-999	15	[0, 0, 0]	n/a	FR1	3	R1339D
2412.412	0.0	2414301	COUNTDOWN_END	n/a	n/a	n/a	-999	15	[0, 0, 0]	n/a	FR1	3	R1339D
2412.412	1.056	2414301	ORIENT_START	n/a	n/a	n/a	-999	15	[0, 0, 0]	n/a	FR1	3	R1339D
2413.468	0.0	2415357	ORIENT_END	n/a	n/a	n/a	-999	15	[0, 0, 0]	n/a	FR1	3	R1339D
2413.468	0.971	2415357	ENCODING_START	n/a	n/a	n/a	-999	15	[0, 0, 0]	n/a	FR1	3	R1339D
2414.439	1.629	2416327	WORD	n/a	n/a	CART	1	15	[0, 0, 0]	n/a	FR1	3	R1339D
2416.068	0.822	2417956	WORD_OFF	n/a	n/a	CART	1	15	[0, 0, 0]	n/a	FR1	3	R1339D
2416.89	1.628	2418778	WORD	n/a	n/a	DOG	2	15	[0, 0, 0]	n/a	FR1	3	R1339D
2418.518	0.766	2420406	WORD_OFF	n/a	n/a	DOG	2	15	[0, 0, 0]	n/a	FR1	3	R1339D
2419.284	1.635	2421172	WORD	n/a	n/a	PEARL	3	15	[0, 0, 0]	n/a	FR1	3	R1339D
2420.919	1.003	2422807	WORD_OFF	n/a	n/a	PEARL	3	15	[0, 0, 0]	n/a	FR1	3	R1339D
2421.922	1.631	2423810	WORD	n/a	n/a	LAMP	4	15	[0, 0, 0]	n/a	FR1	3	R1339D
2423.553	1.032	2425441	WORD_OFF	n/a	n/a	LAMP	4	15	[0, 0, 0]	n/a	FR1	3	R1339D
2424.585	1.635	2426473	WORD	n/a	n/a	RICE	5	15	[0, 0, 0]	n/a	FR1	3	R1339D
2426.22	1.099	2428108	WORD_OFF	n/a	n/a	RICE	5	15	[0, 0, 0]	n/a	FR1	3	R1339D
2427.319	1.635	2429207	WORD	n/a	n/a	BAND	6	15	[0, 0, 0]	n/a	FR1	3	R1339D
2428.954	0.824	2430842	WORD_OFF	n/a	n/a	BAND	6	15	[0, 0, 0]	n/a	FR1	3	R1339D
2429.778	1.626	2431666	WORD	n/a	n/a	CALF	7	15	[0, 0, 0]	n/a	FR1	3	R1339D
2431.404	0.874	2433292	WORD_OFF	n/a	n/a	CALF	7	15	[0, 0, 0]	n/a	FR1	3	R1339D
2432.278	1.627	2434166	WORD	n/a	n/a	TRUCK	8	15	[0, 0, 0]	n/a	FR1	3	R1339D
2433.905	0.922	2435792	WORD_OFF	n/a	n/a	TRUCK	8	15	[0, 0, 0]	n/a	FR1	3	R1339D
2434.827	1.628	2436714	WORD	n/a	n/a	HAND	9	15	[0, 0, 0]	n/a	FR1	3	R1339D
2436.455	0.973	2438342	WORD_OFF	n/a	n/a	HAND	9	15	[0, 0, 0]	n/a	FR1	3	R1339D
2437.428	1.628	2439315	WORD	n/a	n/a	BRIDGE	10	15	[0, 0, 0]	n/a	FR1	3	R1339D
2439.056	1.007	2440943	WORD_OFF	n/a	n/a	BRIDGE	10	15	[0, 0, 0]	n/a	FR1	3	R1339D
2440.063	1.626	2441950	WORD	n/a	n/a	SIGN	11	15	[0, 0, 0]	n/a	FR1	3	R1339D
2441.689	0.758	2443576	WORD_OFF	n/a	n/a	SIGN	11	15	[0, 0, 0]	n/a	FR1	3	R1339D
2442.447	1.626	2444334	WORD	n/a	n/a	TOOTH	12	15	[0, 0, 0]	n/a	FR1	3	R1339D
2444.073	0.001	2445960	WORD_OFF	n/a	n/a	TOOTH	12	15	[0, 0, 0]	n/a	FR1	3	R1339D
2444.074	0.0	2445961	ENCODING_END	n/a	n/a	n/a	-999	15	[0, 0, 0]	n/a	FR1	3	R1339D
2444.074	0.0	2445961	DISTRACT_START	n/a	n/a	n/a	-999	15	[0, 0, 0]	n/a	FR1	3	R1339D
2444.074	0.016	2445961	START	n/a	n/a	n/a	-999	15	[-999, -999, -999]	n/a	FR1	3	R1339D
2444.09	3.284	2445977	PROB	3.284	n/a	n/a	-999	15	[6, 3, 3]	12	FR1	3	R1339D
2447.374	4.3	2449261	PROB	4.3	n/a	n/a	-999	15	[7, 8, 9]	21	FR1	3	R1339D
2451.674	5.268	2453561	PROB	5.268	n/a	n/a	-999	15	[1, 6, 7]	14	FR1	3	R1339D
2456.942	3.933	2458828	PROB	3.933	n/a	n/a	-999	15	[1, 4, 7]	12	FR1	3	R1339D
2460.875	2.535	2462761	PROB	2.535	n/a	n/a	-999	15	[5, 1, 5]	11	FR1	3	R1339D
2463.41	2.824	2465296	PROB	2.824	n/a	n/a	-999	15	[9, 3, 1]	13	FR1	3	R1339D
2466.234	0.01	2468120	STOP	n/a	n/a	n/a	-999	15	[-999, -999, -999]	n/a	FR1	3	R1339D
2466.244	0.5	2468130	DISTRACT_END	n/a	n/a	n/a	-999	15	[0, 0, 0]	n/a	FR1	3	R1339D
2466.744	1.65	2468630	RETRIEVAL_ORIENT_START	n/a	n/a	n/a	-999	15	[0, 0, 0]	n/a	FR1	3	R1339D
2468.394	0.0	2470280	RETRIEVAL_ORIENT_END	n/a	n/a	n/a	-999	15	[0, 0, 0]	n/a	FR1	3	R1339D
2468.394	15.537	2470280	REC_START	n/a	n/a	n/a	-999	15	[0, 0, 0]	n/a	FR1	3	R1339D
2483.931	1.375	2485816	REC_WORD	1.375	n/a	BRICK	-999	15	[0, 0, 0]	n/a	FR1	3	R1339D
2485.306	0.756	2487191	REC_WORD	0.756	n/a	OVEN	-999	15	[0, 0, 0]	n/a	FR1	3	R1339D
2486.062	12.344	2487947	REC_WORD	12.344	n/a	STOVE	-999	15	[0, 0, 0]	n/a	FR1	3	R1339D
2498.406	0.0	2500290	REC_END	n/a	n/a	n/a	-999	15	[0, 0, 0]	n/a	FR1	3	R1339D
2498.406	0.016	2500290	TRIAL_END	n/a	n/a	n/a	-999	15	[0, 0, 0]	n/a	FR1	3	R1339D
2498.422	0.0	2500306	TRIAL	n/a	n/a	n/a	-999	16	[0, 0, 0]	n/a	FR1	3	R1339D
2498.422	0.001	2500306	TRIAL_START	n/a	n/a	n/a	-999	16	[0, 0, 0]	n/a	FR1	3	R1339D
2498.423	6.778	2500307	WAITING_START	n/a	n/a	n/a	-999	16	[0, 0, 0]	n/a	FR1	3	R1339D
2505.201	0.0	2507085	WAITING_END	n/a	n/a	n/a	-999	16	[0, 0, 0]	n/a	FR1	3	R1339D
2505.201	10.43	2507085	COUNTDOWN_START	n/a	n/a	n/a	-999	16	[0, 0, 0]	n/a	FR1	3	R1339D
2515.631	0.0	2517514	COUNTDOWN_END	n/a	n/a	n/a	-999	16	[0, 0, 0]	n/a	FR1	3	R1339D
2515.631	1.139	2517514	ORIENT_START	n/a	n/a	n/a	-999	16	[0, 0, 0]	n/a	FR1	3	R1339D
2516.77	0.0	2518653	ORIENT_END	n/a	n/a	n/a	-999	16	[0, 0, 0]	n/a	FR1	3	R1339D
2516.77	0.834	2518653	ENCODING_START	n/a	n/a	n/a	-999	16	[0, 0, 0]	n/a	FR1	3	R1339D
2517.604	1.633	2519487	WORD	n/a	n/a	MOOSE	1	16	[0, 0, 0]	n/a	FR1	3	R1339D
2519.237	0.921	2521120	WORD_OFF	n/a	n/a	MOOSE	1	16	[0, 0, 0]	n/a	FR1	3	R1339D
2520.158	1.629	2522041	WORD	n/a	n/a	PEN	2	16	[0, 0, 0]	n/a	FR1	3	R1339D
2521.787	1.021	2523670	WORD_OFF	n/a	n/a	PEN	2	16	[0, 0, 0]	n/a	FR1	3	R1339D
2522.808	1.63	2524691	WORD	n/a	n/a	SHOE	3	16	[0, 0, 0]	n/a	FR1	3	R1339D
2524.438	0.967	2526321	WORD_OFF	n/a	n/a	SHOE	3	16	[0, 0, 0]	n/a	FR1	3	R1339D
2525.405	1.633	2527288	WORD	n/a	n/a	TRAY	4	16	[0, 0, 0]	n/a	FR1	3	R1339D
2527.038	1.02	2528921	WORD_OFF	n/a	n/a	TRAY	4	16	[0, 0, 0]	n/a	FR1	3	R1339D
2528.058	1.631	2529941	WORD	n/a	n/a	VINE	5	16	[0, 0, 0]	n/a	FR1	3	R1339D
2529.689	0.797	2531572	WORD_OFF	n/a	n/a	VINE	5	16	[0, 0, 0]	n/a	FR1	3	R1339D
2530.486	1.636	2532368	WORD	n/a	n/a	PIPE	6	16	[0, 0, 0]	n/a	FR1	3	R1339D
2532.122	0.961	2534004	WORD_OFF	n/a	n/a	PIPE	6	16	[0, 0, 0]	n/a	FR1	3	R1339D
2533.083	1.623	2534965	WORD	n/a	n/a	BLUSH	7	16	[0, 0, 0]	n/a	FR1	3	R1339D
2534.706	0.915	2536588	WORD_OFF	n/a	n/a	BLUSH	7	16	[0, 0, 0]	n/a	FR1	3	R1339D
2535.621	1.636	2537503	WORD	n/a	n/a	SALT	8	16	[0, 0, 0]	n/a	FR1	3	R1339D
2537.257	1.05	2539139	WORD_OFF	n/a	n/a	SALT	8	16	[0, 0, 0]	n/a	FR1	3	R1339D
2538.307	1.634	2540189	WORD	n/a	n/a	KITE	9	16	[0, 0, 0]	n/a	FR1	3	R1339D
2539.941	0.818	2541823	WORD_OFF	n/a	n/a	KITE	9	16	[0, 0, 0]	n/a	FR1	3	R1339D
2540.759	1.632	2542641	WORD	n/a	n/a	SEA	10	16	[0, 0, 0]	n/a	FR1	3	R1339D
2542.391	1.018	2544273	WORD_OFF	n/a	n/a	SEA	10	16	[0, 0, 0]	n/a	FR1	3	R1339D
2543.409	1.633	2545291	WORD	n/a	n/a	DRUM	11	16	[0, 0, 0]	n/a	FR1	3	R1339D
2545.042	1.062	2546924	WORD_OFF	n/a	n/a	DRUM	11	16	[0, 0, 0]	n/a	FR1	3	R1339D
2546.104	1.621	2547986	WORD	n/a	n/a	CAVE	12	16	[0, 0, 0]	n/a	FR1	3	R1339D
2547.725	0.001	2549607	WORD_OFF	n/a	n/a	CAVE	12	16	[0, 0, 0]	n/a	FR1	3	R1339D
2547.726	0.0	2549608	ENCODING_END	n/a	n/a	n/a	-999	16	[0, 0, 0]	n/a	FR1	3	R1339D
2547.726	0.0	2549608	DISTRACT_START	n/a	n/a	n/a	-999	16	[0, 0, 0]	n/a	FR1	3	R1339D
2547.726	0.016	2549608	START	n/a	n/a	n/a	-999	16	[-999, -999, -999]	n/a	FR1	3	R1339D
2547.742	3.951	2549624	PROB	3.951	n/a	n/a	-999	16	[1, 1, 9]	11	FR1	3	R1339D
2551.693	4.584	2553574	PROB	4.584	n/a	n/a	-999	16	[1, 8, 9]	18	FR1	3	R1339D
2556.277	3.5	2558158	PROB	3.5	n/a	n/a	-999	16	[9, 2, 2]	13	FR1	3	R1339D
2559.777	2.968	2561658	PROB	2.968	n/a	n/a	-999	16	[3, 4, 7]	14	FR1	3	R1339D
2562.745	5.476	2564626	PROB	5.476	n/a	n/a	-999	16	[6, 7, 9]	22	FR1	3	R1339D
2568.221	0.008	2570102	STOP	n/a	n/a	n/a	-999	16	[-999, -999, -999]	n/a	FR1	3	R1339D
2568.229	0.532	2570110	DISTRACT_END	n/a	n/a	n/a	-999	16	[0, 0, 0]	n/a	FR1	3	R1339D
2568.761	1.685	2570641	RETRIEVAL_ORIENT_START	n/a	n/a	n/a	-999	16	[0, 0, 0]	n/a	FR1	3	R1339D
2570.446	0.001	2572326	RETRIEVAL_ORIENT_END	n/a	n/a	n/a	-999	16	[0, 0, 0]	n/a	FR1	3	R1339D
2570.447	23.058	2572327	REC_START	n/a	n/a	n/a	-999	16	[0, 0, 0]	n/a	FR1	3	R1339D
2593.505	0.72	2595384	REC_WORD	0.72	n/a	BUCKLE	-999	16	[0, 0, 0]	n/a	FR1	3	R1339D
2594.225	1.125	2596104	REC_WORD	1.125	n/a	HANDLE	-999	16	[0, 0, 0]	n/a	FR1	3	R1339D
2595.35	5.107	2597229	REC_WORD	5.107	n/a	WOOL	-999	16	[0, 0, 0]	n/a	FR1	3	R1339D
2600.457	0.001	2602336	REC_END	n/a	n/a	n/a	-999	16	[0, 0, 0]	n/a	FR1	3	R1339D
2600.458	0.016	2602337	TRIAL_END	n/a	n/a	n/a	-999	16	[0, 0, 0]	n/a	FR1	3	R1339D
2600.474	0.0	2602353	TRIAL_START	n/a	n/a	n/a	-999	17	[0, 0, 0]	n/a	FR1	3	R1339D
2600.474	0.0	2602353	TRIAL	n/a	n/a	n/a	-999	17	[0, 0, 0]	n/a	FR1	3	R1339D
2600.474	48.186	2602353	WAITING_START	n/a	n/a	n/a	-999	17	[0, 0, 0]	n/a	FR1	3	R1339D
2648.66	0.001	2650536	WAITING_END	n/a	n/a	n/a	-999	17	[0, 0, 0]	n/a	FR1	3	R1339D
2648.661	10.428	2650537	COUNTDOWN_START	n/a	n/a	n/a	-999	17	[0, 0, 0]	n/a	FR1	3	R1339D
2659.089	0.001	2660965	COUNTDOWN_END	n/a	n/a	n/a	-999	17	[0, 0, 0]	n/a	FR1	3	R1339D
2659.09	1.223	2660966	ORIENT_START	n/a	n/a	n/a	-999	17	[0, 0, 0]	n/a	FR1	3	R1339D
2660.313	0.0	2662189	ORIENT_END	n/a	n/a	n/a	-999	17	[0, 0, 0]	n/a	FR1	3	R1339D
2660.313	1.06	2662189	ENCODING_START	n/a	n/a	n/a	-999	17	[0, 0, 0]	n/a	FR1	3	R1339D
2661.373	1.623	2663249	WORD	n/a	n/a	CHIN	1	17	[0, 0, 0]	n/a	FR1	3	R1339D
2662.996	0.753	2664872	WORD_OFF	n/a	n/a	CHIN	1	17	[0, 0, 0]	n/a	FR1	3	R1339D
2663.749	1.631	2665625	WORD	n/a	n/a	WHALE	2	17	[0, 0, 0]	n/a	FR1	3	R1339D
2665.38	1.129	2667255	WORD_OFF	n/a	n/a	WHALE	2	17	[0, 0, 0]	n/a	FR1	3	R1339D
2666.509	1.622	2668384	WORD	n/a	n/a	LIP	3	17	[0, 0, 0]	n/a	FR1	3	R1339D
2668.131	1.121	2670006	WORD_OFF	n/a	n/a	LIP	3	17	[0, 0, 0]	n/a	FR1	3	R1339D
2669.252	1.629	2671127	WORD	n/a	n/a	CHIEF	4	17	[0, 0, 0]	n/a	FR1	3	R1339D
2670.881	1.095	2672756	WORD_OFF	n/a	n/a	CHIEF	4	17	[0, 0, 0]	n/a	FR1	3	R1339D
2671.976	1.622	2673851	WORD	n/a	n/a	BUSH	5	17	[0, 0, 0]	n/a	FR1	3	R1339D
2673.598	1.099	2675473	WORD_OFF	n/a	n/a	BUSH	5	17	[0, 0, 0]	n/a	FR1	3	R1339D
2674.697	1.635	2676572	WORD	n/a	n/a	SNOW	6	17	[0, 0, 0]	n/a	FR1	3	R1339D
2676.332	0.764	2678207	WORD_OFF	n/a	n/a	SNOW	6	17	[0, 0, 0]	n/a	FR1	3	R1339D
2677.096	1.62	2678971	WORD	n/a	n/a	DOLL	7	17	[0, 0, 0]	n/a	FR1	3	R1339D
2678.716	1.002	2680591	WORD_OFF	n/a	n/a	DOLL	7	17	[0, 0, 0]	n/a	FR1	3	R1339D
2679.718	1.632	2681593	WORD	n/a	n/a	BOMB	8	17	[0, 0, 0]	n/a	FR1	3	R1339D
2681.35	1.048	2683225	WORD_OFF	n/a	n/a	BOMB	8	17	[0, 0, 0]	n/a	FR1	3	R1339D
2682.398	1.636	2684273	WORD	n/a	n/a	FENCE	9	17	[0, 0, 0]	n/a	FR1	3	R1339D
2684.034	1.072	2685909	WORD_OFF	n/a	n/a	FENCE	9	17	[0, 0, 0]	n/a	FR1	3	R1339D
2685.106	1.628	2686980	WORD	n/a	n/a	GRASS	10	17	[0, 0, 0]	n/a	FR1	3	R1339D
2686.734	0.775	2688608	WORD_OFF	n/a	n/a	GRASS	10	17	[0, 0, 0]	n/a	FR1	3	R1339D
2687.509	1.626	2689383	WORD	n/a	n/a	MOLE	11	17	[0, 0, 0]	n/a	FR1	3	R1339D
2689.135	1.132	2691009	WORD_OFF	n/a	n/a	MOLE	11	17	[0, 0, 0]	n/a	FR1	3	R1339D
2690.267	1.635	2692141	WORD	n/a	n/a	ROCK	12	17	[0, 0, 0]	n/a	FR1	3	R1339D
2691.902	0.0	2693776	WORD_OFF	n/a	n/a	ROCK	12	17	[0, 0, 0]	n/a	FR1	3	R1339D
2691.902	0.001	2693776	ENCODING_END	n/a	n/a	n/a	-999	17	[0, 0, 0]	n/a	FR1	3	R1339D
2691.903	0.0	2693777	DISTRACT_START	n/a	n/a	n/a	-999	17	[0, 0, 0]	n/a	FR1	3	R1339D
2691.903	0.015	2693777	START	n/a	n/a	n/a	-999	17	[-999, -999, -999]	n/a	FR1	3	R1339D
2691.918	4.933	2693792	PROB	4.933	n/a	n/a	-999	17	[8, 3, 3]	14	FR1	3	R1339D
2696.851	4.135	2698725	PROB	4.135	n/a	n/a	-999	17	[6, 6, 7]	19	FR1	3	R1339D
2700.986	3.118	2702860	PROB	3.118	n/a	n/a	-999	17	[5, 3, 7]	15	FR1	3	R1339D
2704.104	4.05	2705977	PROB	4.05	n/a	n/a	-999	17	[3, 6, 1]	10	FR1	3	R1339D
2708.154	2.751	2710027	PROB	2.751	n/a	n/a	-999	17	[1, 5, 1]	7	FR1	3	R1339D
2710.905	5.478	2712778	PROB	5.478	n/a	n/a	-999	17	[6, 9, 6]	21	FR1	3	R1339D
2716.383	0.006	2718256	STOP	n/a	n/a	n/a	-999	17	[-999, -999, -999]	n/a	FR1	3	R1339D
2716.389	0.529	2718262	DISTRACT_END	n/a	n/a	n/a	-999	17	[0, 0, 0]	n/a	FR1	3	R1339D
2716.918	1.655	2718791	RETRIEVAL_ORIENT_START	n/a	n/a	n/a	-999	17	[0, 0, 0]	n/a	FR1	3	R1339D
2718.573	0.0	2720446	RETRIEVAL_ORIENT_END	n/a	n/a	n/a	-999	17	[0, 0, 0]	n/a	FR1	3	R1339D
2718.573	1.691	2720446	REC_START	n/a	n/a	n/a	-999	17	[0, 0, 0]	n/a	FR1	3	R1339D
2720.264	0.991	2722137	REC_WORD	0.991	n/a	MOLE	11	17	[0, 0, 0]	n/a	FR1	3	R1339D
2721.255	27.328	2723128	REC_WORD	27.328	n/a	ROCK	12	17	[0, 0, 0]	n/a	FR1	3	R1339D
2748.583	0.001	2750454	REC_END	n/a	n/a	n/a	-999	17	[0, 0, 0]	n/a	FR1	3	R1339D
2748.584	0.016	2750455	TRIAL_END	n/a	n/a	n/a	-999	17	[0, 0, 0]	n/a	FR1	3	R1339D
2748.6	0.0	2750471	TRIAL_START	n/a	n/a	n/a	-999	18	[0, 0, 0]	n/a	FR1	3	R1339D
2748.6	0.0	2750471	TRIAL	n/a	n/a	n/a	-999	18	[0, 0, 0]	n/a	FR1	3	R1339D
2748.6	2.863	2750471	WAITING_START	n/a	n/a	n/a	-999	18	[0, 0, 0]	n/a	FR1	3	R1339D
2751.463	0.0	2753334	WAITING_END	n/a	n/a	n/a	-999	18	[0, 0, 0]	n/a	FR1	3	R1339D
2751.463	10.428	2753334	COUNTDOWN_START	n/a	n/a	n/a	-999	18	[0, 0, 0]	n/a	FR1	3	R1339D
2761.891	0.0	2763762	COUNTDOWN_END	n/a	n/a	n/a	-999	18	[0, 0, 0]	n/a	FR1	3	R1339D
2761.891	1.241	2763762	ORIENT_START	n/a	n/a	n/a	-999	18	[0, 0, 0]	n/a	FR1	3	R1339D
2763.132	0.0	2765002	ORIENT_END	n/a	n/a	n/a	-999	18	[0, 0, 0]	n/a	FR1	3	R1339D
2763.132	0.768	2765002	ENCODING_START	n/a	n/a	n/a	-999	18	[0, 0, 0]	n/a	FR1	3	R1339D
2763.9	1.632	2765770	WORD	n/a	n/a	TOAD	1	18	[0, 0, 0]	n/a	FR1	3	R1339D
2765.532	0.8	2767402	WORD_OFF	n/a	n/a	TOAD	1	18	[0, 0, 0]	n/a	FR1	3	R1339D
2766.332	1.634	2768202	WORD	n/a	n/a	SOUP	2	18	[0, 0, 0]	n/a	FR1	3	R1339D
2767.966	0.808	2769836	WORD_OFF	n/a	n/a	SOUP	2	18	[0, 0, 0]	n/a	FR1	3	R1339D
2768.774	1.625	2770644	WORD	n/a	n/a	STREET	3	18	[0, 0, 0]	n/a	FR1	3	R1339D
2770.399	1.013	2772269	WORD_OFF	n/a	n/a	STREET	3	18	[0, 0, 0]	n/a	FR1	3	R1339D
2771.412	1.621	2773282	WORD	n/a	n/a	OAR	4	18	[0, 0, 0]	n/a	FR1	3	R1339D
2773.033	0.872	2774903	WORD_OFF	n/a	n/a	OAR	4	18	[0, 0, 0]	n/a	FR1	3	R1339D
2773.905	1.612	2775775	WORD	n/a	n/a	SHEEP	5	18	[0, 0, 0]	n/a	FR1	3	R1339D
2775.517	1.094	2777387	WORD_OFF	n/a	n/a	SHEEP	5	18	[0, 0, 0]	n/a	FR1	3	R1339D
2776.611	1.623	2778481	WORD	n/a	n/a	TOOL	6	18	[0, 0, 0]	n/a	FR1	3	R1339D
2778.234	1.13	2780104	WORD_OFF	n/a	n/a	TOOL	6	18	[0, 0, 0]	n/a	FR1	3	R1339D
2779.364	1.637	2781234	WORD	n/a	n/a	THUMB	7	18	[0, 0, 0]	n/a	FR1	3	R1339D
2781.001	1.024	2782871	WORD_OFF	n/a	n/a	THUMB	7	18	[0, 0, 0]	n/a	FR1	3	R1339D
2782.025	1.627	2783894	WORD	n/a	n/a	BOAT	8	18	[0, 0, 0]	n/a	FR1	3	R1339D
2783.652	0.838	2785521	WORD_OFF	n/a	n/a	BOAT	8	18	[0, 0, 0]	n/a	FR1	3	R1339D
2784.49	1.629	2786359	WORD	n/a	n/a	CUP	9	18	[0, 0, 0]	n/a	FR1	3	R1339D
2786.119	1.095	2787988	WORD_OFF	n/a	n/a	CUP	9	18	[0, 0, 0]	n/a	FR1	3	R1339D
2787.214	1.621	2789083	WORD	n/a	n/a	HEART	10	18	[0, 0, 0]	n/a	FR1	3	R1339D
2788.835	0.903	2790704	WORD_OFF	n/a	n/a	HEART	10	18	[0, 0, 0]	n/a	FR1	3	R1339D
2789.738	1.632	2791607	WORD	n/a	n/a	JET	11	18	[0, 0, 0]	n/a	FR1	3	R1339D
2791.37	1.072	2793239	WORD_OFF	n/a	n/a	JET	11	18	[0, 0, 0]	n/a	FR1	3	R1339D
2792.442	1.628	2794311	WORD	n/a	n/a	ROOM	12	18	[0, 0, 0]	n/a	FR1	3	R1339D
2794.07	0.001	2795939	WORD_OFF	n/a	n/a	ROOM	12	18	[0, 0, 0]	n/a	FR1	3	R1339D
2794.071	0.0	2795940	ENCODING_END	n/a	n/a	n/a	-999	18	[0, 0, 0]	n/a	FR1	3	R1339D
2794.071	0.0	2795940	DISTRACT_START	n/a	n/a	n/a	-999	18	[0, 0, 0]	n/a	FR1	3	R1339D
2794.071	0.016	2795940	START	n/a	n/a	n/a	-999	18	[-999, -999, -999]	n/a	FR1	3	R1339D
2794.087	8.151	2795956	PROB	8.151	n/a	n/a	-999	18	[3, 8, 4]	15	FR1	3	R1339D
2802.238	3.968	2804106	PROB	3.968	n/a	n/a	-999	18	[2, 7, 9]	18	FR1	3	R1339D
2806.206	3.484	2808074	PROB	3.484	n/a	n/a	-999	18	[9, 1, 1]	11	FR1	3	R1339D
2809.69	8.332	2811558	PROB	8.332	n/a	n/a	-999	18	[8, 4, 8]	20	FR1	3	R1339D
2818.022	0.019	2819890	STOP	n/a	n/a	n/a	-999	18	[-999, -999, -999]	n/a	FR1	3	R1339D
2818.041	0.6	2819909	DISTRACT_END	n/a	n/a	n/a	-999	18	[0, 0, 0]	n/a	FR1	3	R1339D
2818.641	1.551	2820509	RETRIEVAL_ORIENT_START	n/a	n/a	n/a	-999	18	[0, 0, 0]	n/a	FR1	3	R1339D
2820.192	0.0	2822059	RETRIEVAL_ORIENT_END	n/a	n/a	n/a	-999	18	[0, 0, 0]	n/a	FR1	3	R1339D
2820.192	29.994	2822059	REC_START	n/a	n/a	n/a	-999	18	[0, 0, 0]	n/a	FR1	3	R1339D
2850.186	0.016	2852052	REC_WORD_VV	0.016	n/a	<>	-999	18	[0, 0, 0]	n/a	FR1	3	R1339D
2850.202	0.001	2852068	REC_END	n/a	n/a	n/a	-999	18	[0, 0, 0]	n/a	FR1	3	R1339D
2850.203	0.014	2852069	TRIAL_END	n/a	n/a	n/a	-999	18	[0, 0, 0]	n/a	FR1	3	R1339D
2850.217	0.0	2852083	TRIAL_START	n/a	n/a	n/a	-999	19	[0, 0, 0]	n/a	FR1	3	R1339D
2850.217	0.0	2852083	TRIAL	n/a	n/a	n/a	-999	19	[0, 0, 0]	n/a	FR1	3	R1339D
2850.217	2.314	2852083	WAITING_START	n/a	n/a	n/a	-999	19	[0, 0, 0]	n/a	FR1	3	R1339D
2852.531	0.001	2854397	WAITING_END	n/a	n/a	n/a	-999	19	[0, 0, 0]	n/a	FR1	3	R1339D
2852.532	10.428	2854398	COUNTDOWN_START	n/a	n/a	n/a	-999	19	[0, 0, 0]	n/a	FR1	3	R1339D
2862.96	0.0	2864825	COUNTDOWN_END	n/a	n/a	n/a	-999	19	[0, 0, 0]	n/a	FR1	3	R1339D
2862.96	1.057	2864825	ORIENT_START	n/a	n/a	n/a	-999	19	[0, 0, 0]	n/a	FR1	3	R1339D
2864.017	0.0	2865882	ORIENT_END	n/a	n/a	n/a	-999	19	[0, 0, 0]	n/a	FR1	3	R1339D
2864.017	1.126	2865882	ENCODING_START	n/a	n/a	n/a	-999	19	[0, 0, 0]	n/a	FR1	3	R1339D
2865.143	1.624	2867008	WORD	n/a	n/a	FORT	1	19	[0, 0, 0]	n/a	FR1	3	R1339D
2866.767	0.789	2868632	WORD_OFF	n/a	n/a	FORT	1	19	[0, 0, 0]	n/a	FR1	3	R1339D
2867.556	1.628	2869421	WORD	n/a	n/a	TREE	2	19	[0, 0, 0]	n/a	FR1	3	R1339D
2869.184	1.001	2871049	WORD_OFF	n/a	n/a	TREE	2	19	[0, 0, 0]	n/a	FR1	3	R1339D
2870.185	1.633	2872050	WORD	n/a	n/a	ARK	3	19	[0, 0, 0]	n/a	FR1	3	R1339D
2871.818	0.967	2873683	WORD_OFF	n/a	n/a	ARK	3	19	[0, 0, 0]	n/a	FR1	3	R1339D
2872.785	1.633	2874650	WORD	n/a	n/a	WING	4	19	[0, 0, 0]	n/a	FR1	3	R1339D
2874.418	0.901	2876283	WORD_OFF	n/a	n/a	WING	4	19	[0, 0, 0]	n/a	FR1	3	R1339D
2875.319	1.633	2877184	WORD	n/a	n/a	HORSE	5	19	[0, 0, 0]	n/a	FR1	3	R1339D
2876.952	0.867	2878817	WORD_OFF	n/a	n/a	HORSE	5	19	[0, 0, 0]	n/a	FR1	3	R1339D
2877.819	1.634	2879684	WORD	n/a	n/a	FARM	6	19	[0, 0, 0]	n/a	FR1	3	R1339D
2879.453	0.903	2881317	WORD_OFF	n/a	n/a	FARM	6	19	[0, 0, 0]	n/a	FR1	3	R1339D
2880.356	1.63	2882220	WORD	n/a	n/a	WAVE	7	19	[0, 0, 0]	n/a	FR1	3	R1339D
2881.986	0.988	2883850	WORD_OFF	n/a	n/a	WAVE	7	19	[0, 0, 0]	n/a	FR1	3	R1339D
2882.974	1.63	2884838	WORD	n/a	n/a	FLAME	8	19	[0, 0, 0]	n/a	FR1	3	R1339D
2884.604	0.823	2886468	WORD_OFF	n/a	n/a	FLAME	8	19	[0, 0, 0]	n/a	FR1	3	R1339D
2885.427	1.627	2887291	WORD	n/a	n/a	FLEA	9	19	[0, 0, 0]	n/a	FR1	3	R1339D
2887.054	1.096	2888918	WORD_OFF	n/a	n/a	FLEA	9	19	[0, 0, 0]	n/a	FR1	3	R1339D
2888.15	1.638	2890014	WORD	n/a	n/a	SPEAR	10	19	[0, 0, 0]	n/a	FR1	3	R1339D
2889.788	0.789	2891652	WORD_OFF	n/a	n/a	SPEAR	10	19	[0, 0, 0]	n/a	FR1	3	R1339D
2890.577	1.628	2892441	WORD	n/a	n/a	EEL	11	19	[0, 0, 0]	n/a	FR1	3	R1339D
2892.205	1.053	2894069	WORD_OFF	n/a	n/a	EEL	11	19	[0, 0, 0]	n/a	FR1	3	R1339D
2893.258	1.631	2895122	WORD	n/a	n/a	ROPE	12	19	[0, 0, 0]	n/a	FR1	3	R1339D
2894.889	0.0	2896753	WORD_OFF	n/a	n/a	ROPE	12	19	[0, 0, 0]	n/a	FR1	3	R1339D
2894.889	0.001	2896753	ENCODING_END	n/a	n/a	n/a	-999	19	[0, 0, 0]	n/a	FR1	3	R1339D
2894.89	0.0	2896754	DISTRACT_START	n/a	n/a	n/a	-999	19	[0, 0, 0]	n/a	FR1	3	R1339D
2894.89	0.015	2896754	START	n/a	n/a	n/a	-999	19	[-999, -999, -999]	n/a	FR1	3	R1339D
2894.905	4.784	2896769	PROB	4.784	n/a	n/a	-999	19	[9, 3, 9]	21	FR1	3	R1339D
2899.689	8.168	2901552	PROB	8.168	n/a	n/a	-999	19	[8, 4, 9]	21	FR1	3	R1339D
2907.857	5.185	2909720	PROB	5.185	n/a	n/a	-999	19	[6, 3, 6]	15	FR1	3	R1339D
2913.042	3.365	2914905	PROB	3.365	n/a	n/a	-999	19	[9, 3, 9]	21	FR1	3	R1339D
2916.407	0.019	2918270	STOP	n/a	n/a	n/a	-999	19	[-999, -999, -999]	n/a	FR1	3	R1339D
2916.426	0.531	2918289	DISTRACT_END	n/a	n/a	n/a	-999	19	[0, 0, 0]	n/a	FR1	3	R1339D
2916.957	1.719	2918819	RETRIEVAL_ORIENT_START	n/a	n/a	n/a	-999	19	[0, 0, 0]	n/a	FR1	3	R1339D
2918.676	0.001	2920538	RETRIEVAL_ORIENT_END	n/a	n/a	n/a	-999	19	[0, 0, 0]	n/a	FR1	3	R1339D
2918.677	1.59	2920539	REC_START	n/a	n/a	n/a	-999	19	[0, 0, 0]	n/a	FR1	3	R1339D
2920.267	1.713	2922129	REC_WORD	1.713	n/a	FLEA	9	19	[0, 0, 0]	n/a	FR1	3	R1339D
2921.98	1.261	2923842	REC_WORD	1.261	n/a	WOOL	-999	19	[0, 0, 0]	n/a	FR1	3	R1339D
2923.241	1.82	2925103	REC_WORD	1.82	n/a	OAR	-999	19	[0, 0, 0]	n/a	FR1	3	R1339D
2925.061	1.97	2926923	REC_WORD_VV	1.97	n/a	<>	-999	19	[0, 0, 0]	n/a	FR1	3	R1339D
2927.031	0.44	2928893	REC_WORD	0.44	n/a	FLEA	9	19	[0, 0, 0]	n/a	FR1	3	R1339D
2927.471	0.616	2929333	REC_WORD	0.616	n/a	WOOD	-999	19	[0, 0, 0]	n/a	FR1	3	R1339D
2928.087	2.498	2929949	REC_WORD	2.498	n/a	OAR	-999	19	[0, 0, 0]	n/a	FR1	3	R1339D
2930.585	2.094	2932447	REC_WORD	2.094	n/a	FIRE	-999	19	[0, 0, 0]	n/a	FR1	3	R1339D
2932.679	9.938	2934541	REC_WORD	9.938	n/a	ARK	3	19	[0, 0, 0]	n/a	FR1	3	R1339D
2942.617	6.071	2944478	REC_WORD	6.071	n/a	ARM	-999	19	[0, 0, 0]	n/a	FR1	3	R1339D
2948.688	0.0	2950549	REC_END	n/a	n/a	n/a	-999	19	[0, 0, 0]	n/a	FR1	3	R1339D
2948.688	0.015	2950549	TRIAL_END	n/a	n/a	n/a	-999	19	[0, 0, 0]	n/a	FR1	3	R1339D
2948.703	0.0	2950564	TRIAL_START	n/a	n/a	n/a	-999	20	[0, 0, 0]	n/a	FR1	3	R1339D
2948.703	0.0	2950564	TRIAL	n/a	n/a	n/a	-999	20	[0, 0, 0]	n/a	FR1	3	R1339D
2948.703	0.0	2950564	WAITING_START	n/a	n/a	n/a	-999	20	[0, 0, 0]	n/a	FR1	3	R1339D
