onset	duration	sample	trial_type	response_time	stim_file	item_name	serialpos	list	test	answer	experiment	session	subject
0.0	19.309	28986	SESS_START	n/a	n/a	n/a	-999	-999	[0, 0, 0]	n/a	FR1	1	R1111M
19.309	10.428	38640	COUNTDOWN_START	n/a	n/a	n/a	-999	-999	[0, 0, 0]	n/a	FR1	1	R1111M
29.737	3.775	43853	COUNTDOWN_END	n/a	n/a	n/a	-999	-999	[0, 0, 0]	n/a	FR1	1	R1111M
33.512	2.416	45741	PRACTICE_WORD	n/a	n/a	COTTON	1	-1	[0, 0, 0]	n/a	FR1	1	R1111M
35.928	2.418	46949	PRACTICE_WORD	n/a	n/a	CAMEL	2	-1	[0, 0, 0]	n/a	FR1	1	R1111M
38.346	2.6	48158	PRACTICE_WORD	n/a	n/a	BEAM	3	-1	[0, 0, 0]	n/a	FR1	1	R1111M
40.946	2.401	49458	PRACTICE_WORD	n/a	n/a	CHEST	4	-1	[0, 0, 0]	n/a	FR1	1	R1111M
43.347	2.583	50658	PRACTICE_WORD	n/a	n/a	ATTIC	5	-1	[0, 0, 0]	n/a	FR1	1	R1111M
45.93	2.468	51949	PRACTICE_WORD	n/a	n/a	RHINO	6	-1	[0, 0, 0]	n/a	FR1	1	R1111M
48.398	2.549	53183	PRACTICE_WORD	n/a	n/a	WATCH	7	-1	[0, 0, 0]	n/a	FR1	1	R1111M
50.947	2.369	54458	PRACTICE_WORD	n/a	n/a	RING	8	-1	[0, 0, 0]	n/a	FR1	1	R1111M
53.316	2.516	55642	PRACTICE_WORD	n/a	n/a	WAGON	9	-1	[0, 0, 0]	n/a	FR1	1	R1111M
55.832	2.585	56900	PRACTICE_WORD	n/a	n/a	TONGUE	10	-1	[0, 0, 0]	n/a	FR1	1	R1111M
58.417	2.549	58193	PRACTICE_WORD	n/a	n/a	IRON	11	-1	[0, 0, 0]	n/a	FR1	1	R1111M
60.966	1.601	59467	PRACTICE_WORD	n/a	n/a	FLOOD	12	-1	[0, 0, 0]	n/a	FR1	1	R1111M
62.567	0.0	60267	PRACTICE_DISTRACT_START	n/a	n/a	n/a	-999	-1	[0, 0, 0]	n/a	FR1	1	R1111M
62.567	0.017	60267	START	n/a	n/a	n/a	-999	-1	[-999, -999, -999]	n/a	FR1	1	R1111M
62.584	6.55	60276	PROB	6.55	n/a	n/a	-999	-1	[6, 8, 9]	1	FR1	1	R1111M
69.134	1.302	63551	PROB	1.302	n/a	n/a	-999	-1	[6, 1, 7]	1	FR1	1	R1111M
70.436	0.866	64202	PROB	0.866	n/a	n/a	-999	-1	[9, 9, 9]	1	FR1	1	R1111M
71.302	0.8	64635	PROB	0.8	n/a	n/a	-999	-1	[2, 3, 2]	1	FR1	1	R1111M
72.102	0.75	65035	PROB	0.75	n/a	n/a	-999	-1	[2, 9, 2]	1	FR1	1	R1111M
72.852	0.718	65410	PROB	0.718	n/a	n/a	-999	-1	[9, 1, 2]	1	FR1	1	R1111M
73.57	2.366	65769	PROB	2.366	n/a	n/a	-999	-1	[9, 5, 5]	1	FR1	1	R1111M
75.936	1.301	66952	PROB	1.301	n/a	n/a	-999	-1	[7, 8, 5]	1	FR1	1	R1111M
77.237	1.084	67602	PROB	1.084	n/a	n/a	-999	-1	[5, 3, 3]	1	FR1	1	R1111M
78.321	2.167	68144	PROB	2.167	n/a	n/a	-999	-1	[8, 8, 7]	1	FR1	1	R1111M
80.488	2.232	69227	PROB	2.232	n/a	n/a	-999	-1	[5, 5, 9]	19	FR1	1	R1111M
82.72	0.017	70343	STOP	n/a	n/a	n/a	-999	-1	[-999, -999, -999]	n/a	FR1	1	R1111M
82.737	0.52	70352	PRACTICE_DISTRACT_END	n/a	n/a	n/a	-999	-1	[0, 0, 0]	n/a	FR1	1	R1111M
83.257	30.514	70612	PRACTICE_REC_START	n/a	n/a	n/a	-999	-1	[0, 0, 0]	n/a	FR1	1	R1111M
113.771	21.076	85868	PRACTICE_REC_END	n/a	n/a	n/a	-999	-1	[0, 0, 0]	n/a	FR1	1	R1111M
134.847	0.0	96405	TRIAL	n/a	n/a	n/a	-999	1	[0, 0, 0]	n/a	FR1	1	R1111M
134.847	10.428	96405	COUNTDOWN_START	n/a	n/a	n/a	-999	1	[0, 0, 0]	n/a	FR1	1	R1111M
145.275	0.008	101619	COUNTDOWN_END	n/a	n/a	n/a	-999	1	[0, 0, 0]	n/a	FR1	1	R1111M
145.283	2.517	101623	ORIENT	n/a	n/a	n/a	-999	1	[0, 0, 0]	n/a	FR1	1	R1111M
147.8	2.451	102882	WORD	n/a	wordpools/wordpool_EN.txt	FOOD	1	1	[0, 0, 0]	n/a	FR1	1	R1111M
150.251	2.5	104107	WORD	n/a	wordpools/wordpool_EN.txt	BRICK	2	1	[0, 0, 0]	n/a	FR1	1	R1111M
152.751	2.518	105357	WORD	n/a	wordpools/wordpool_EN.txt	PRINCE	3	1	[0, 0, 0]	n/a	FR1	1	R1111M
155.269	2.416	106616	WORD	n/a	wordpools/wordpool_EN.txt	WALL	4	1	[0, 0, 0]	n/a	FR1	1	R1111M
157.685	2.434	107824	WORD	n/a	wordpools/wordpool_EN.txt	SHIELD	5	1	[0, 0, 0]	n/a	FR1	1	R1111M
160.119	2.451	109041	WORD	n/a	wordpools/wordpool_EN.txt	PIE	6	1	[0, 0, 0]	n/a	FR1	1	R1111M
162.57	2.4	110266	WORD	n/a	wordpools/wordpool_EN.txt	FRUIT	7	1	[0, 0, 0]	n/a	FR1	1	R1111M
164.97	2.468	111466	WORD	n/a	wordpools/wordpool_EN.txt	CLAY	8	1	[0, 0, 0]	n/a	FR1	1	R1111M
167.438	2.566	112700	WORD	n/a	wordpools/wordpool_EN.txt	SHELL	9	1	[0, 0, 0]	n/a	FR1	1	R1111M
170.004	2.551	113983	WORD	n/a	wordpools/wordpool_EN.txt	SPEAR	10	1	[0, 0, 0]	n/a	FR1	1	R1111M
172.555	2.533	115258	WORD	n/a	wordpools/wordpool_EN.txt	CLOTH	11	1	[0, 0, 0]	n/a	FR1	1	R1111M
175.088	1.617	116525	WORD	n/a	wordpools/wordpool_EN.txt	FROG	12	1	[0, 0, 0]	n/a	FR1	1	R1111M
176.705	0.001	117333	DISTRACT_START	n/a	n/a	n/a	-999	1	[0, 0, 0]	n/a	FR1	1	R1111M
176.706	0.016	117334	START	n/a	n/a	n/a	-999	1	[-999, -999, -999]	n/a	FR1	1	R1111M
176.722	4.151	117342	PROB	4.151	n/a	n/a	-999	1	[6, 1, 4]	11	FR1	1	R1111M
180.873	8.552	119417	PROB	8.552	n/a	n/a	-999	1	[6, 3, 6]	15	FR1	1	R1111M
189.425	3.885	123693	PROB	3.885	n/a	n/a	-999	1	[1, 3, 7]	11	FR1	1	R1111M
193.31	4.418	125635	PROB	4.418	n/a	n/a	-999	1	[3, 7, 2]	12	FR1	1	R1111M
197.728	0.015	127844	STOP	n/a	n/a	n/a	-999	1	[-999, -999, -999]	n/a	FR1	1	R1111M
197.743	1.15	127852	DISTRACT_END	n/a	n/a	n/a	-999	1	[0, 0, 0]	n/a	FR1	1	R1111M
198.893	1.585	128427	REC_START	n/a	n/a	n/a	-999	1	[0, 0, 0]	n/a	FR1	1	R1111M
200.478	0.812	129219	REC_WORD	0.812	n/a	FOOD	-999	1	[0, 0, 0]	n/a	FR1	1	R1111M
201.29	1.064	129625	REC_WORD	1.064	n/a	BRICK	-999	1	[0, 0, 0]	n/a	FR1	1	R1111M
202.354	1.815	130157	REC_WORD	1.815	n/a	PRINCE	-999	1	[0, 0, 0]	n/a	FR1	1	R1111M
204.169	0.922	131064	REC_WORD	0.922	n/a	SHIELD	-999	1	[0, 0, 0]	n/a	FR1	1	R1111M
205.091	2.978	131525	REC_WORD	2.978	n/a	FROG	-999	1	[0, 0, 0]	n/a	FR1	1	R1111M
208.069	6.013	133014	REC_WORD	6.013	n/a	SPEAR	-999	1	[0, 0, 0]	n/a	FR1	1	R1111M
214.082	14.828	136021	REC_WORD	14.828	n/a	PIE	-999	1	[0, 0, 0]	n/a	FR1	1	R1111M
228.91	6.99	143434	REC_END	n/a	n/a	n/a	-999	1	[0, 0, 0]	n/a	FR1	1	R1111M
235.9	0.0	146929	TRIAL	n/a	n/a	n/a	-999	2	[0, 0, 0]	n/a	FR1	1	R1111M
235.9	10.428	146929	COUNTDOWN_START	n/a	n/a	n/a	-999	2	[0, 0, 0]	n/a	FR1	1	R1111M
246.328	0.008	152143	COUNTDOWN_END	n/a	n/a	n/a	-999	2	[0, 0, 0]	n/a	FR1	1	R1111M
246.336	2.55	152147	ORIENT	n/a	n/a	n/a	-999	2	[0, 0, 0]	n/a	FR1	1	R1111M
248.886	2.535	153422	WORD	n/a	wordpools/wordpool_EN.txt	BUSH	1	2	[0, 0, 0]	n/a	FR1	1	R1111M
251.421	2.499	154689	WORD	n/a	wordpools/wordpool_EN.txt	HAND	2	2	[0, 0, 0]	n/a	FR1	1	R1111M
253.92	2.402	155939	WORD	n/a	wordpools/wordpool_EN.txt	CHALK	3	2	[0, 0, 0]	n/a	FR1	1	R1111M
256.322	2.382	157139	WORD	n/a	wordpools/wordpool_EN.txt	FENCE	4	2	[0, 0, 0]	n/a	FR1	1	R1111M
258.704	2.585	158330	WORD	n/a	wordpools/wordpool_EN.txt	DEER	5	2	[0, 0, 0]	n/a	FR1	1	R1111M
261.289	2.45	159623	WORD	n/a	wordpools/wordpool_EN.txt	SKI	6	2	[0, 0, 0]	n/a	FR1	1	R1111M
263.739	2.435	160848	WORD	n/a	wordpools/wordpool_EN.txt	MULE	7	2	[0, 0, 0]	n/a	FR1	1	R1111M
266.174	2.45	162065	WORD	n/a	wordpools/wordpool_EN.txt	STORM	8	2	[0, 0, 0]	n/a	FR1	1	R1111M
268.624	2.499	163290	WORD	n/a	wordpools/wordpool_EN.txt	HILL	9	2	[0, 0, 0]	n/a	FR1	1	R1111M
271.123	2.452	164540	WORD	n/a	wordpools/wordpool_EN.txt	BRUSH	10	2	[0, 0, 0]	n/a	FR1	1	R1111M
273.575	2.617	165765	WORD	n/a	wordpools/wordpool_EN.txt	WAND	11	2	[0, 0, 0]	n/a	FR1	1	R1111M
276.192	1.616	167074	WORD	n/a	wordpools/wordpool_EN.txt	FOOT	12	2	[0, 0, 0]	n/a	FR1	1	R1111M
277.808	0.001	167882	DISTRACT_START	n/a	n/a	n/a	-999	2	[0, 0, 0]	n/a	FR1	1	R1111M
277.809	0.016	167882	START	n/a	n/a	n/a	-999	2	[-999, -999, -999]	n/a	FR1	1	R1111M
277.825	12.453	167890	PROB	12.453	n/a	n/a	-999	2	[6, 5, 2]	13	FR1	1	R1111M
290.278	7.467	174117	PROB	7.467	n/a	n/a	-999	2	[4, 1, 9]	14	FR1	1	R1111M
297.745	8.432	177850	PROB	8.432	n/a	n/a	-999	2	[3, 6, 5]	12	FR1	1	R1111M
306.177	0.004	182066	STOP	n/a	n/a	n/a	-999	2	[-999, -999, -999]	n/a	FR1	1	R1111M
306.181	1.185	182068	DISTRACT_END	n/a	n/a	n/a	-999	2	[0, 0, 0]	n/a	FR1	1	R1111M
307.366	2.538	182660	REC_START	n/a	n/a	n/a	-999	2	[0, 0, 0]	n/a	FR1	1	R1111M
309.904	2.13	183929	REC_WORD	2.13	n/a	DEER	-999	2	[0, 0, 0]	n/a	FR1	1	R1111M
312.034	2.108	184994	REC_WORD	2.108	n/a	FENCE	-999	2	[0, 0, 0]	n/a	FR1	1	R1111M
314.142	2.409	186048	REC_WORD	2.409	n/a	SKI	-999	2	[0, 0, 0]	n/a	FR1	1	R1111M
316.551	1.342	187252	REC_WORD	1.342	n/a	MULE	-999	2	[0, 0, 0]	n/a	FR1	1	R1111M
317.893	2.003	187923	REC_WORD	2.003	n/a	WAND	-999	2	[0, 0, 0]	n/a	FR1	1	R1111M
319.896	0.806	188925	REC_WORD	0.806	n/a	BUSH	-999	2	[0, 0, 0]	n/a	FR1	1	R1111M
320.702	16.674	189328	REC_WORD	16.674	n/a	HAND	-999	2	[0, 0, 0]	n/a	FR1	1	R1111M
337.376	5.212	197664	REC_END	n/a	n/a	n/a	-999	2	[0, 0, 0]	n/a	FR1	1	R1111M
342.588	0.001	200270	COUNTDOWN_START	n/a	n/a	n/a	-999	3	[0, 0, 0]	n/a	FR1	1	R1111M
342.589	10.427	200271	TRIAL	n/a	n/a	n/a	-999	3	[0, 0, 0]	n/a	FR1	1	R1111M
353.016	0.007	205484	COUNTDOWN_END	n/a	n/a	n/a	-999	3	[0, 0, 0]	n/a	FR1	1	R1111M
353.023	2.468	205487	ORIENT	n/a	n/a	n/a	-999	3	[0, 0, 0]	n/a	FR1	1	R1111M
355.491	2.616	206721	WORD	n/a	wordpools/wordpool_EN.txt	SUIT	1	3	[0, 0, 0]	n/a	FR1	1	R1111M
358.107	2.468	208029	WORD	n/a	wordpools/wordpool_EN.txt	EAR	2	3	[0, 0, 0]	n/a	FR1	1	R1111M
360.575	2.617	209263	WORD	n/a	wordpools/wordpool_EN.txt	SWORD	3	3	[0, 0, 0]	n/a	FR1	1	R1111M
363.192	2.45	210571	WORD	n/a	wordpools/wordpool_EN.txt	CLOCK	4	3	[0, 0, 0]	n/a	FR1	1	R1111M
365.642	2.467	211796	WORD	n/a	wordpools/wordpool_EN.txt	PHONE	5	3	[0, 0, 0]	n/a	FR1	1	R1111M
368.109	2.617	213030	WORD	n/a	wordpools/wordpool_EN.txt	GATE	6	3	[0, 0, 0]	n/a	FR1	1	R1111M
370.726	2.485	214338	WORD	n/a	wordpools/wordpool_EN.txt	BOOK	7	3	[0, 0, 0]	n/a	FR1	1	R1111M
373.211	2.384	215581	WORD	n/a	wordpools/wordpool_EN.txt	MOUTH	8	3	[0, 0, 0]	n/a	FR1	1	R1111M
375.595	2.449	216773	WORD	n/a	wordpools/wordpool_EN.txt	BOY	9	3	[0, 0, 0]	n/a	FR1	1	R1111M
378.044	2.601	217997	WORD	n/a	wordpools/wordpool_EN.txt	HOUSE	10	3	[0, 0, 0]	n/a	FR1	1	R1111M
380.645	2.4	219297	WORD	n/a	wordpools/wordpool_EN.txt	BLUSH	11	3	[0, 0, 0]	n/a	FR1	1	R1111M
383.045	1.617	220497	WORD	n/a	wordpools/wordpool_EN.txt	VAN	12	3	[0, 0, 0]	n/a	FR1	1	R1111M
384.662	0.001	221306	DISTRACT_START	n/a	n/a	n/a	-999	3	[0, 0, 0]	n/a	FR1	1	R1111M
384.663	0.016	221306	START	n/a	n/a	n/a	-999	3	[-999, -999, -999]	n/a	FR1	1	R1111M
384.679	10.352	221314	PROB	10.352	n/a	n/a	-999	3	[3, 9, 8]	20	FR1	1	R1111M
395.031	13.394	226490	PROB	13.394	n/a	n/a	-999	3	[9, 7, 6]	22	FR1	1	R1111M
408.425	0.009	233187	STOP	n/a	n/a	n/a	-999	3	[-999, -999, -999]	n/a	FR1	1	R1111M
408.434	1.118	233191	DISTRACT_END	n/a	n/a	n/a	-999	3	[0, 0, 0]	n/a	FR1	1	R1111M
409.552	2.24	233750	REC_START	n/a	n/a	n/a	-999	3	[0, 0, 0]	n/a	FR1	1	R1111M
411.792	1.458	234870	REC_WORD	1.458	n/a	BLUSH	-999	3	[0, 0, 0]	n/a	FR1	1	R1111M
413.25	2.968	235599	REC_WORD	2.968	n/a	BOY	-999	3	[0, 0, 0]	n/a	FR1	1	R1111M
416.218	1.169	237083	REC_WORD	1.169	n/a	SWORD	-999	3	[0, 0, 0]	n/a	FR1	1	R1111M
417.387	1.115	237667	REC_WORD	1.115	n/a	SUIT	-999	3	[0, 0, 0]	n/a	FR1	1	R1111M
418.502	1.353	238225	REC_WORD	1.353	n/a	VAN	-999	3	[0, 0, 0]	n/a	FR1	1	R1111M
419.855	19.707	238901	REC_WORD	19.707	n/a	CLOCK	-999	3	[0, 0, 0]	n/a	FR1	1	R1111M
439.562	5.046	248754	REC_END	n/a	n/a	n/a	-999	3	[0, 0, 0]	n/a	FR1	1	R1111M
444.608	0.0	251277	TRIAL	n/a	n/a	n/a	-999	4	[0, 0, 0]	n/a	FR1	1	R1111M
444.608	10.428	251277	COUNTDOWN_START	n/a	n/a	n/a	-999	4	[0, 0, 0]	n/a	FR1	1	R1111M
455.036	0.006	256491	COUNTDOWN_END	n/a	n/a	n/a	-999	4	[0, 0, 0]	n/a	FR1	1	R1111M
455.042	2.601	256494	ORIENT	n/a	n/a	n/a	-999	4	[0, 0, 0]	n/a	FR1	1	R1111M
457.643	2.601	257794	WORD	n/a	wordpools/wordpool_EN.txt	DESK	1	4	[0, 0, 0]	n/a	FR1	1	R1111M
460.244	2.5	259095	WORD	n/a	wordpools/wordpool_EN.txt	PEARL	2	4	[0, 0, 0]	n/a	FR1	1	R1111M
462.744	2.518	260345	WORD	n/a	wordpools/wordpool_EN.txt	DOG	3	4	[0, 0, 0]	n/a	FR1	1	R1111M
465.262	2.533	261604	WORD	n/a	wordpools/wordpool_EN.txt	KEY	4	4	[0, 0, 0]	n/a	FR1	1	R1111M
467.795	2.601	262870	WORD	n/a	wordpools/wordpool_EN.txt	JUDGE	5	4	[0, 0, 0]	n/a	FR1	1	R1111M
470.396	2.4	264170	WORD	n/a	wordpools/wordpool_EN.txt	MAZE	6	4	[0, 0, 0]	n/a	FR1	1	R1111M
472.796	2.568	265370	WORD	n/a	wordpools/wordpool_EN.txt	SHARK	7	4	[0, 0, 0]	n/a	FR1	1	R1111M
475.364	2.599	266654	WORD	n/a	wordpools/wordpool_EN.txt	RUG	8	4	[0, 0, 0]	n/a	FR1	1	R1111M
477.963	2.585	267954	WORD	n/a	wordpools/wordpool_EN.txt	BADGE	9	4	[0, 0, 0]	n/a	FR1	1	R1111M
480.548	2.4	269246	WORD	n/a	wordpools/wordpool_EN.txt	COUCH	10	4	[0, 0, 0]	n/a	FR1	1	R1111M
482.948	2.401	270446	WORD	n/a	wordpools/wordpool_EN.txt	SUN	11	4	[0, 0, 0]	n/a	FR1	1	R1111M
485.349	1.616	271647	WORD	n/a	wordpools/wordpool_EN.txt	MAIL	12	4	[0, 0, 0]	n/a	FR1	1	R1111M
486.965	0.001	272454	DISTRACT_START	n/a	n/a	n/a	-999	4	[0, 0, 0]	n/a	FR1	1	R1111M
486.966	0.016	272455	START	n/a	n/a	n/a	-999	4	[-999, -999, -999]	n/a	FR1	1	R1111M
486.982	12.22	272463	PROB	12.22	n/a	n/a	-999	4	[9, 9, 8]	26	FR1	1	R1111M
499.202	9.287	278573	PROB	9.287	n/a	n/a	-999	4	[5, 4, 4]	13	FR1	1	R1111M
508.489	0.015	283216	STOP	n/a	n/a	n/a	-999	4	[-999, -999, -999]	n/a	FR1	1	R1111M
508.504	1.183	283223	DISTRACT_END	n/a	n/a	n/a	-999	4	[0, 0, 0]	n/a	FR1	1	R1111M
509.687	3.68	283815	REC_START	n/a	n/a	n/a	-999	4	[0, 0, 0]	n/a	FR1	1	R1111M
513.367	1.707	285655	REC_WORD	1.707	n/a	MAZE	-999	4	[0, 0, 0]	n/a	FR1	1	R1111M
515.074	1.675	286508	REC_WORD	1.675	n/a	SHARK	-999	4	[0, 0, 0]	n/a	FR1	1	R1111M
516.749	1.022	287346	REC_WORD	1.022	n/a	DESK	-999	4	[0, 0, 0]	n/a	FR1	1	R1111M
517.771	0.525	287857	REC_WORD	0.525	n/a	PEARL	-999	4	[0, 0, 0]	n/a	FR1	1	R1111M
518.296	0.948	288119	REC_WORD	0.948	n/a	DOG	-999	4	[0, 0, 0]	n/a	FR1	1	R1111M
519.244	20.453	288593	REC_WORD	20.453	n/a	KEY	-999	4	[0, 0, 0]	n/a	FR1	1	R1111M
539.697	19.683	298819	REC_END	n/a	n/a	n/a	-999	4	[0, 0, 0]	n/a	FR1	1	R1111M
559.38	0.0	308660	TRIAL	n/a	n/a	n/a	-999	5	[0, 0, 0]	n/a	FR1	1	R1111M
559.38	10.428	308660	COUNTDOWN_START	n/a	n/a	n/a	-999	5	[0, 0, 0]	n/a	FR1	1	R1111M
569.808	0.007	313874	COUNTDOWN_END	n/a	n/a	n/a	-999	5	[0, 0, 0]	n/a	FR1	1	R1111M
569.815	2.584	313877	ORIENT	n/a	n/a	n/a	-999	5	[0, 0, 0]	n/a	FR1	1	R1111M
572.399	2.383	315169	WORD	n/a	wordpools/wordpool_EN.txt	MOLE	1	5	[0, 0, 0]	n/a	FR1	1	R1111M
574.782	2.585	316361	WORD	n/a	wordpools/wordpool_EN.txt	DUCK	2	5	[0, 0, 0]	n/a	FR1	1	R1111M
577.367	2.383	317653	WORD	n/a	wordpools/wordpool_EN.txt	TOOTH	3	5	[0, 0, 0]	n/a	FR1	1	R1111M
579.75	2.384	318844	WORD	n/a	wordpools/wordpool_EN.txt	SHIRT	4	5	[0, 0, 0]	n/a	FR1	1	R1111M
582.134	2.401	320036	WORD	n/a	wordpools/wordpool_EN.txt	BOAT	5	5	[0, 0, 0]	n/a	FR1	1	R1111M
584.535	2.433	321237	WORD	n/a	wordpools/wordpool_EN.txt	BOOT	6	5	[0, 0, 0]	n/a	FR1	1	R1111M
586.968	2.418	322453	WORD	n/a	wordpools/wordpool_EN.txt	SKUNK	7	5	[0, 0, 0]	n/a	FR1	1	R1111M
589.386	2.433	323662	WORD	n/a	wordpools/wordpool_EN.txt	TEETH	8	5	[0, 0, 0]	n/a	FR1	1	R1111M
591.819	2.518	324879	WORD	n/a	wordpools/wordpool_EN.txt	LOCK	9	5	[0, 0, 0]	n/a	FR1	1	R1111M
594.337	2.449	326137	WORD	n/a	wordpools/wordpool_EN.txt	SNAKE	10	5	[0, 0, 0]	n/a	FR1	1	R1111M
596.786	2.602	327362	WORD	n/a	wordpools/wordpool_EN.txt	ARK	11	5	[0, 0, 0]	n/a	FR1	1	R1111M
599.388	1.616	328663	WORD	n/a	wordpools/wordpool_EN.txt	CALF	12	5	[0, 0, 0]	n/a	FR1	1	R1111M
601.004	0.001	329471	DISTRACT_START	n/a	n/a	n/a	-999	5	[0, 0, 0]	n/a	FR1	1	R1111M
601.005	0.016	329471	START	n/a	n/a	n/a	-999	5	[-999, -999, -999]	n/a	FR1	1	R1111M
601.021	12.102	329479	PROB	12.102	n/a	n/a	-999	5	[4, 2, 9]	15	FR1	1	R1111M
613.123	14.589	335530	PROB	14.589	n/a	n/a	-999	5	[9, 5, 1]	15	FR1	1	R1111M
627.712	0.014	342824	STOP	n/a	n/a	n/a	-999	5	[-999, -999, -999]	n/a	FR1	1	R1111M
627.726	1.034	342831	DISTRACT_END	n/a	n/a	n/a	-999	5	[0, 0, 0]	n/a	FR1	1	R1111M
628.76	2.899	343348	REC_START	n/a	n/a	n/a	-999	5	[0, 0, 0]	n/a	FR1	1	R1111M
631.659	1.107	344797	REC_WORD	1.107	n/a	MOLE	-999	5	[0, 0, 0]	n/a	FR1	1	R1111M
632.766	6.2	345351	REC_WORD	6.2	n/a	DUCK	-999	5	[0, 0, 0]	n/a	FR1	1	R1111M
638.966	1.211	348451	REC_WORD	1.211	n/a	TEETH	-999	5	[0, 0, 0]	n/a	FR1	1	R1111M
640.177	1.996	349056	REC_WORD	1.996	n/a	TOOTH	-999	5	[0, 0, 0]	n/a	FR1	1	R1111M
642.173	2.446	350054	REC_WORD	2.446	n/a	SKUNK	-999	5	[0, 0, 0]	n/a	FR1	1	R1111M
644.619	2.263	351277	REC_WORD	2.263	n/a	ARK	-999	5	[0, 0, 0]	n/a	FR1	1	R1111M
646.882	1.029	352408	REC_WORD	1.029	n/a	BOAT	-999	5	[0, 0, 0]	n/a	FR1	1	R1111M
647.911	10.858	352923	REC_WORD	10.858	n/a	BOOT	-999	5	[0, 0, 0]	n/a	FR1	1	R1111M
658.769	79.429	358352	REC_END	n/a	n/a	n/a	-999	5	[0, 0, 0]	n/a	FR1	1	R1111M
738.198	0.0	398064	TRIAL	n/a	n/a	n/a	-999	6	[0, 0, 0]	n/a	FR1	1	R1111M
738.198	10.428	398064	COUNTDOWN_START	n/a	n/a	n/a	-999	6	[0, 0, 0]	n/a	FR1	1	R1111M
748.626	0.006	403278	COUNTDOWN_END	n/a	n/a	n/a	-999	6	[0, 0, 0]	n/a	FR1	1	R1111M
748.632	2.384	403281	ORIENT	n/a	n/a	n/a	-999	6	[0, 0, 0]	n/a	FR1	1	R1111M
751.016	2.418	404473	WORD	n/a	wordpools/wordpool_EN.txt	CAPE	1	6	[0, 0, 0]	n/a	FR1	1	R1111M
753.434	2.4	405681	WORD	n/a	wordpools/wordpool_EN.txt	FLOOR	2	6	[0, 0, 0]	n/a	FR1	1	R1111M
755.834	2.551	406881	WORD	n/a	wordpools/wordpool_EN.txt	ROCK	3	6	[0, 0, 0]	n/a	FR1	1	R1111M
758.385	2.55	408157	WORD	n/a	wordpools/wordpool_EN.txt	EEL	4	6	[0, 0, 0]	n/a	FR1	1	R1111M
760.935	2.568	409432	WORD	n/a	wordpools/wordpool_EN.txt	NEST	5	6	[0, 0, 0]	n/a	FR1	1	R1111M
763.503	2.449	410716	WORD	n/a	wordpools/wordpool_EN.txt	MOTH	6	6	[0, 0, 0]	n/a	FR1	1	R1111M
765.952	2.418	411940	WORD	n/a	wordpools/wordpool_EN.txt	WING	7	6	[0, 0, 0]	n/a	FR1	1	R1111M
768.37	2.433	413149	WORD	n/a	wordpools/wordpool_EN.txt	ROOM	8	6	[0, 0, 0]	n/a	FR1	1	R1111M
770.803	2.418	414366	WORD	n/a	wordpools/wordpool_EN.txt	BEACH	9	6	[0, 0, 0]	n/a	FR1	1	R1111M
773.221	2.467	415574	WORD	n/a	wordpools/wordpool_EN.txt	WHEEL	10	6	[0, 0, 0]	n/a	FR1	1	R1111M
775.688	2.501	416808	WORD	n/a	wordpools/wordpool_EN.txt	RAIN	11	6	[0, 0, 0]	n/a	FR1	1	R1111M
778.189	1.616	418058	WORD	n/a	wordpools/wordpool_EN.txt	GRASS	12	6	[0, 0, 0]	n/a	FR1	1	R1111M
779.805	0.001	418866	DISTRACT_START	n/a	n/a	n/a	-999	6	[0, 0, 0]	n/a	FR1	1	R1111M
779.806	0.016	418867	START	n/a	n/a	n/a	-999	6	[-999, -999, -999]	n/a	FR1	1	R1111M
779.822	7.001	418875	PROB	7.001	n/a	n/a	-999	6	[9, 3, 9]	21	FR1	1	R1111M
786.823	4.168	422375	PROB	4.168	n/a	n/a	-999	6	[1, 7, 1]	9	FR1	1	R1111M
790.991	9.57	424459	PROB	9.57	n/a	n/a	-999	6	[6, 9, 3]	18	FR1	1	R1111M
800.561	0.016	429244	STOP	n/a	n/a	n/a	-999	6	[-999, -999, -999]	n/a	FR1	1	R1111M
800.577	1.066	429252	DISTRACT_END	n/a	n/a	n/a	-999	6	[0, 0, 0]	n/a	FR1	1	R1111M
801.643	2.797	429785	REC_START	n/a	n/a	n/a	-999	6	[0, 0, 0]	n/a	FR1	1	R1111M
804.44	0.713	431183	REC_WORD	0.713	n/a	CAPE	-999	6	[0, 0, 0]	n/a	FR1	1	R1111M
805.153	1.521	431540	REC_WORD	1.521	n/a	FLOOR	-999	6	[0, 0, 0]	n/a	FR1	1	R1111M
806.674	2.116	432300	REC_WORD	2.116	n/a	ROCK	-999	6	[0, 0, 0]	n/a	FR1	1	R1111M
808.79	1.629	433358	REC_WORD	1.629	n/a	ROOM	-999	6	[0, 0, 0]	n/a	FR1	1	R1111M
810.419	7.043	434172	REC_WORD	7.043	n/a	BEACH	-999	6	[0, 0, 0]	n/a	FR1	1	R1111M
817.462	14.196	437694	REC_WORD	14.196	n/a	WHEEL	-999	6	[0, 0, 0]	n/a	FR1	1	R1111M
831.658	79.022	444791	REC_END	n/a	n/a	n/a	-999	6	[0, 0, 0]	n/a	FR1	1	R1111M
910.68	0.001	484300	COUNTDOWN_START	n/a	n/a	n/a	-999	7	[0, 0, 0]	n/a	FR1	1	R1111M
910.681	10.427	484301	TRIAL	n/a	n/a	n/a	-999	7	[0, 0, 0]	n/a	FR1	1	R1111M
921.108	0.008	489514	COUNTDOWN_END	n/a	n/a	n/a	-999	7	[0, 0, 0]	n/a	FR1	1	R1111M
921.116	2.434	489518	ORIENT	n/a	n/a	n/a	-999	7	[0, 0, 0]	n/a	FR1	1	R1111M
923.55	2.4	490735	WORD	n/a	wordpools/wordpool_EN.txt	INK	1	7	[0, 0, 0]	n/a	FR1	1	R1111M
925.95	2.435	491935	WORD	n/a	wordpools/wordpool_EN.txt	BREAD	2	7	[0, 0, 0]	n/a	FR1	1	R1111M
928.385	2.516	493152	WORD	n/a	wordpools/wordpool_EN.txt	PEACH	3	7	[0, 0, 0]	n/a	FR1	1	R1111M
930.901	2.451	494410	WORD	n/a	wordpools/wordpool_EN.txt	CART	4	7	[0, 0, 0]	n/a	FR1	1	R1111M
933.352	2.383	495635	WORD	n/a	wordpools/wordpool_EN.txt	SIGN	5	7	[0, 0, 0]	n/a	FR1	1	R1111M
935.735	2.417	496827	WORD	n/a	wordpools/wordpool_EN.txt	LAWN	6	7	[0, 0, 0]	n/a	FR1	1	R1111M
938.152	2.567	498035	WORD	n/a	wordpools/wordpool_EN.txt	WHALE	7	7	[0, 0, 0]	n/a	FR1	1	R1111M
940.719	2.502	499319	WORD	n/a	wordpools/wordpool_EN.txt	STREET	8	7	[0, 0, 0]	n/a	FR1	1	R1111M
943.221	2.549	500570	WORD	n/a	wordpools/wordpool_EN.txt	STOVE	9	7	[0, 0, 0]	n/a	FR1	1	R1111M
945.77	2.585	501844	WORD	n/a	wordpools/wordpool_EN.txt	GOLD	10	7	[0, 0, 0]	n/a	FR1	1	R1111M
948.355	2.483	503137	WORD	n/a	wordpools/wordpool_EN.txt	STONE	11	7	[0, 0, 0]	n/a	FR1	1	R1111M
950.838	1.618	504378	WORD	n/a	wordpools/wordpool_EN.txt	COIN	12	7	[0, 0, 0]	n/a	FR1	1	R1111M
952.456	0.001	505187	DISTRACT_START	n/a	n/a	n/a	-999	7	[0, 0, 0]	n/a	FR1	1	R1111M
952.457	0.016	505187	START	n/a	n/a	n/a	-999	7	[-999, -999, -999]	n/a	FR1	1	R1111M
952.473	10.885	505195	PROB	10.885	n/a	n/a	-999	7	[5, 2, 4]	11	FR1	1	R1111M
963.358	5.168	510638	PROB	5.168	n/a	n/a	-999	7	[3, 4, 7]	14	FR1	1	R1111M
968.526	7.755	513221	PROB	7.755	n/a	n/a	-999	7	[9, 5, 3]	17	FR1	1	R1111M
976.281	0.013	517099	STOP	n/a	n/a	n/a	-999	7	[-999, -999, -999]	n/a	FR1	1	R1111M
976.294	1.184	517105	DISTRACT_END	n/a	n/a	n/a	-999	7	[0, 0, 0]	n/a	FR1	1	R1111M
977.478	2.337	517697	REC_START	n/a	n/a	n/a	-999	7	[0, 0, 0]	n/a	FR1	1	R1111M
979.815	1.054	518866	REC_WORD	1.054	n/a	WHALE	-999	7	[0, 0, 0]	n/a	FR1	1	R1111M
980.869	1.715	519393	REC_WORD	1.715	n/a	STREET	-999	7	[0, 0, 0]	n/a	FR1	1	R1111M
982.584	0.888	520250	REC_WORD	0.888	n/a	PEACH	-999	7	[0, 0, 0]	n/a	FR1	1	R1111M
983.472	2.917	520694	REC_WORD	2.917	n/a	CART	-999	7	[0, 0, 0]	n/a	FR1	1	R1111M
986.389	0.768	522152	REC_WORD	0.768	n/a	GOLD	-999	7	[0, 0, 0]	n/a	FR1	1	R1111M
987.157	4.072	522536	REC_WORD	4.072	n/a	STOVE	-999	7	[0, 0, 0]	n/a	FR1	1	R1111M
991.229	0.83	524572	REC_WORD	0.83	n/a	STONE	-999	7	[0, 0, 0]	n/a	FR1	1	R1111M
992.059	15.43	524987	REC_WORD	15.43	n/a	COIN	-999	7	[0, 0, 0]	n/a	FR1	1	R1111M
1007.489	4.511	532702	REC_END	n/a	n/a	n/a	-999	7	[0, 0, 0]	n/a	FR1	1	R1111M
1012.0	0.0	534957	COUNTDOWN_START	n/a	n/a	n/a	-999	8	[0, 0, 0]	n/a	FR1	1	R1111M
1012.0	10.428	534957	TRIAL	n/a	n/a	n/a	-999	8	[0, 0, 0]	n/a	FR1	1	R1111M
1022.428	0.008	540171	COUNTDOWN_END	n/a	n/a	n/a	-999	8	[0, 0, 0]	n/a	FR1	1	R1111M
1022.436	2.566	540175	ORIENT	n/a	n/a	n/a	-999	8	[0, 0, 0]	n/a	FR1	1	R1111M
1025.002	2.385	541458	WORD	n/a	wordpools/wordpool_EN.txt	ARM	1	8	[0, 0, 0]	n/a	FR1	1	R1111M
1027.387	2.416	542650	WORD	n/a	wordpools/wordpool_EN.txt	CHEEK	2	8	[0, 0, 0]	n/a	FR1	1	R1111M
1029.803	2.402	543858	WORD	n/a	wordpools/wordpool_EN.txt	TOE	3	8	[0, 0, 0]	n/a	FR1	1	R1111M
1032.205	2.483	545059	WORD	n/a	wordpools/wordpool_EN.txt	PET	4	8	[0, 0, 0]	n/a	FR1	1	R1111M
1034.688	2.383	546301	WORD	n/a	wordpools/wordpool_EN.txt	TENT	5	8	[0, 0, 0]	n/a	FR1	1	R1111M
1037.071	2.601	547492	WORD	n/a	wordpools/wordpool_EN.txt	PURSE	6	8	[0, 0, 0]	n/a	FR1	1	R1111M
1039.672	2.501	548792	WORD	n/a	wordpools/wordpool_EN.txt	CAGE	7	8	[0, 0, 0]	n/a	FR1	1	R1111M
1042.173	2.6	550043	WORD	n/a	wordpools/wordpool_EN.txt	PALM	8	8	[0, 0, 0]	n/a	FR1	1	R1111M
1044.773	2.568	551343	WORD	n/a	wordpools/wordpool_EN.txt	GUARD	9	8	[0, 0, 0]	n/a	FR1	1	R1111M
1047.341	2.549	552627	WORD	n/a	wordpools/wordpool_EN.txt	HORN	10	8	[0, 0, 0]	n/a	FR1	1	R1111M
1049.89	2.502	553901	WORD	n/a	wordpools/wordpool_EN.txt	TOY	11	8	[0, 0, 0]	n/a	FR1	1	R1111M
1052.392	1.616	555152	WORD	n/a	wordpools/wordpool_EN.txt	TAIL	12	8	[0, 0, 0]	n/a	FR1	1	R1111M
1054.008	0.001	555960	DISTRACT_START	n/a	n/a	n/a	-999	8	[0, 0, 0]	n/a	FR1	1	R1111M
1054.009	0.016	555961	START	n/a	n/a	n/a	-999	8	[-999, -999, -999]	n/a	FR1	1	R1111M
1054.025	13.553	555969	PROB	13.553	n/a	n/a	-999	8	[8, 9, 9]	26	FR1	1	R1111M
1067.578	7.206	562745	PROB	7.206	n/a	n/a	-999	8	[7, 1, 2]	10	FR1	1	R1111M
1074.784	0.011	566347	STOP	n/a	n/a	n/a	-999	8	[-999, -999, -999]	n/a	FR1	1	R1111M
1074.795	1.168	566353	DISTRACT_END	n/a	n/a	n/a	-999	8	[0, 0, 0]	n/a	FR1	1	R1111M
1075.963	2.567	566937	REC_START	n/a	n/a	n/a	-999	8	[0, 0, 0]	n/a	FR1	1	R1111M
1078.53	3.516	568220	REC_WORD	3.516	n/a	CHEEK	-999	8	[0, 0, 0]	n/a	FR1	1	R1111M
1082.046	1.689	569978	REC_WORD	1.689	n/a	GUARD	-999	8	[0, 0, 0]	n/a	FR1	1	R1111M
1083.735	1.371	570823	REC_WORD	1.371	n/a	ARM	-999	8	[0, 0, 0]	n/a	FR1	1	R1111M
1085.106	2.101	571508	REC_WORD	2.101	n/a	TOE	-999	8	[0, 0, 0]	n/a	FR1	1	R1111M
1087.207	1.619	572559	REC_WORD	1.619	n/a	PET	-999	8	[0, 0, 0]	n/a	FR1	1	R1111M
1088.826	1.807	573368	REC_WORD	1.807	n/a	CAGE	-999	8	[0, 0, 0]	n/a	FR1	1	R1111M
1090.633	1.089	574272	REC_WORD	1.089	n/a	TENT	-999	8	[0, 0, 0]	n/a	FR1	1	R1111M
1091.722	14.252	574816	REC_WORD	14.252	n/a	PURSE	-999	8	[0, 0, 0]	n/a	FR1	1	R1111M
1105.974	8.162	581942	REC_END	n/a	n/a	n/a	-999	8	[0, 0, 0]	n/a	FR1	1	R1111M
1114.136	0.0	586022	TRIAL	n/a	n/a	n/a	-999	9	[0, 0, 0]	n/a	FR1	1	R1111M
1114.136	10.428	586022	COUNTDOWN_START	n/a	n/a	n/a	-999	9	[0, 0, 0]	n/a	FR1	1	R1111M
1124.564	0.009	591236	COUNTDOWN_END	n/a	n/a	n/a	-999	9	[0, 0, 0]	n/a	FR1	1	R1111M
1124.573	2.482	591241	ORIENT	n/a	n/a	n/a	-999	9	[0, 0, 0]	n/a	FR1	1	R1111M
1127.055	2.502	592481	WORD	n/a	wordpools/wordpool_EN.txt	CORD	1	9	[0, 0, 0]	n/a	FR1	1	R1111M
1129.557	2.617	593732	WORD	n/a	wordpools/wordpool_EN.txt	WAVE	2	9	[0, 0, 0]	n/a	FR1	1	R1111M
1132.174	2.566	595041	WORD	n/a	wordpools/wordpool_EN.txt	JUICE	3	9	[0, 0, 0]	n/a	FR1	1	R1111M
1134.74	2.367	596324	WORD	n/a	wordpools/wordpool_EN.txt	SHEEP	4	9	[0, 0, 0]	n/a	FR1	1	R1111M
1137.107	2.567	597507	WORD	n/a	wordpools/wordpool_EN.txt	MAP	5	9	[0, 0, 0]	n/a	FR1	1	R1111M
1139.674	2.384	598791	WORD	n/a	wordpools/wordpool_EN.txt	PLANE	6	9	[0, 0, 0]	n/a	FR1	1	R1111M
1142.058	2.552	599983	WORD	n/a	wordpools/wordpool_EN.txt	CONE	7	9	[0, 0, 0]	n/a	FR1	1	R1111M
1144.61	2.399	601258	WORD	n/a	wordpools/wordpool_EN.txt	SHIP	8	9	[0, 0, 0]	n/a	FR1	1	R1111M
1147.009	2.368	602458	WORD	n/a	wordpools/wordpool_EN.txt	BOMB	9	9	[0, 0, 0]	n/a	FR1	1	R1111M
1149.377	2.45	603642	WORD	n/a	wordpools/wordpool_EN.txt	POLE	10	9	[0, 0, 0]	n/a	FR1	1	R1111M
1151.827	2.468	604867	WORD	n/a	wordpools/wordpool_EN.txt	ELF	11	9	[0, 0, 0]	n/a	FR1	1	R1111M
1154.295	1.616	606101	WORD	n/a	wordpools/wordpool_EN.txt	MOON	12	9	[0, 0, 0]	n/a	FR1	1	R1111M
1155.911	0.001	606909	DISTRACT_START	n/a	n/a	n/a	-999	9	[0, 0, 0]	n/a	FR1	1	R1111M
1155.912	0.016	606909	START	n/a	n/a	n/a	-999	9	[-999, -999, -999]	n/a	FR1	1	R1111M
1155.928	14.253	606917	PROB	14.253	n/a	n/a	-999	9	[7, 9, 6]	22	FR1	1	R1111M
1170.181	3.985	614043	PROB	3.985	n/a	n/a	-999	9	[1, 3, 5]	9	FR1	1	R1111M
1174.166	8.506	616036	PROB	8.506	n/a	n/a	-999	9	[9, 5, 9]	23	FR1	1	R1111M
1182.672	0.011	620288	STOP	n/a	n/a	n/a	-999	9	[-999, -999, -999]	n/a	FR1	1	R1111M
1182.683	1.101	620294	DISTRACT_END	n/a	n/a	n/a	-999	9	[0, 0, 0]	n/a	FR1	1	R1111M
1183.784	2.227	620844	REC_START	n/a	n/a	n/a	-999	9	[0, 0, 0]	n/a	FR1	1	R1111M
1186.011	1.047	621958	REC_WORD	1.047	n/a	CORD	-999	9	[0, 0, 0]	n/a	FR1	1	R1111M
1187.058	2.319	622481	REC_WORD	2.319	n/a	WAVE	-999	9	[0, 0, 0]	n/a	FR1	1	R1111M
1189.377	5.681	623641	REC_WORD	5.681	n/a	SHEEP	-999	9	[0, 0, 0]	n/a	FR1	1	R1111M
1195.058	1.928	626481	REC_WORD	1.928	n/a	JUICE	-999	9	[0, 0, 0]	n/a	FR1	1	R1111M
1196.986	1.173	627445	REC_WORD	1.173	n/a	MAP	-999	9	[0, 0, 0]	n/a	FR1	1	R1111M
1198.159	0.965	628031	REC_WORD	0.965	n/a	PLANE	-999	9	[0, 0, 0]	n/a	FR1	1	R1111M
1199.124	1.001	628514	REC_WORD	1.001	n/a	CONE	-999	9	[0, 0, 0]	n/a	FR1	1	R1111M
1200.125	1.178	629014	REC_WORD	1.178	n/a	SHIP	-999	9	[0, 0, 0]	n/a	FR1	1	R1111M
1201.303	12.491	629603	REC_WORD	12.491	n/a	BOMB	-999	9	[0, 0, 0]	n/a	FR1	1	R1111M
1213.794	31.819	635849	REC_END	n/a	n/a	n/a	-999	9	[0, 0, 0]	n/a	FR1	1	R1111M
1245.613	0.0	651757	TRIAL	n/a	n/a	n/a	-999	10	[0, 0, 0]	n/a	FR1	1	R1111M
1245.613	10.428	651757	COUNTDOWN_START	n/a	n/a	n/a	-999	10	[0, 0, 0]	n/a	FR1	1	R1111M
1256.041	0.006	656971	COUNTDOWN_END	n/a	n/a	n/a	-999	10	[0, 0, 0]	n/a	FR1	1	R1111M
1256.047	2.568	656974	ORIENT	n/a	n/a	n/a	-999	10	[0, 0, 0]	n/a	FR1	1	R1111M
1258.615	2.551	658258	WORD	n/a	wordpools/wordpool_EN.txt	AXE	1	10	[0, 0, 0]	n/a	FR1	1	R1111M
1261.166	2.566	659533	WORD	n/a	wordpools/wordpool_EN.txt	ICE	2	10	[0, 0, 0]	n/a	FR1	1	R1111M
1263.732	2.551	660816	WORD	n/a	wordpools/wordpool_EN.txt	PLATE	3	10	[0, 0, 0]	n/a	FR1	1	R1111M
1266.283	2.566	662092	WORD	n/a	wordpools/wordpool_EN.txt	SHEET	4	10	[0, 0, 0]	n/a	FR1	1	R1111M
1268.849	2.369	663374	WORD	n/a	wordpools/wordpool_EN.txt	JAIL	5	10	[0, 0, 0]	n/a	FR1	1	R1111M
1271.218	2.599	664559	WORD	n/a	wordpools/wordpool_EN.txt	FILM	6	10	[0, 0, 0]	n/a	FR1	1	R1111M
1273.817	2.485	665858	WORD	n/a	wordpools/wordpool_EN.txt	MOOSE	7	10	[0, 0, 0]	n/a	FR1	1	R1111M
1276.302	2.516	667101	WORD	n/a	wordpools/wordpool_EN.txt	ROOT	8	10	[0, 0, 0]	n/a	FR1	1	R1111M
1278.818	2.485	668359	WORD	n/a	wordpools/wordpool_EN.txt	CROWN	9	10	[0, 0, 0]	n/a	FR1	1	R1111M
1281.303	2.499	669601	WORD	n/a	wordpools/wordpool_EN.txt	NAIL	10	10	[0, 0, 0]	n/a	FR1	1	R1111M
1283.802	2.502	670851	WORD	n/a	wordpools/wordpool_EN.txt	TOOL	11	10	[0, 0, 0]	n/a	FR1	1	R1111M
1286.304	1.616	672102	WORD	n/a	wordpools/wordpool_EN.txt	SEED	12	10	[0, 0, 0]	n/a	FR1	1	R1111M
1287.92	0.001	672909	DISTRACT_START	n/a	n/a	n/a	-999	10	[0, 0, 0]	n/a	FR1	1	R1111M
1287.921	0.015	672910	START	n/a	n/a	n/a	-999	10	[-999, -999, -999]	n/a	FR1	1	R1111M
1287.936	4.452	672917	PROB	4.452	n/a	n/a	-999	10	[7, 5, 5]	17	FR1	1	R1111M
1292.388	9.618	675143	PROB	9.618	n/a	n/a	-999	10	[8, 5, 2]	17	FR1	1	R1111M
1302.006	6.786	679952	PROB	6.786	n/a	n/a	-999	10	[3, 8, 2]	13	FR1	1	R1111M
1308.792	0.015	683345	STOP	n/a	n/a	n/a	-999	10	[-999, -999, -999]	n/a	FR1	1	R1111M
1308.807	1.101	683352	DISTRACT_END	n/a	n/a	n/a	-999	10	[0, 0, 0]	n/a	FR1	1	R1111M
1309.908	7.136	683903	REC_START	n/a	n/a	n/a	-999	10	[0, 0, 0]	n/a	FR1	1	R1111M
1317.044	0.718	687471	REC_WORD	0.718	n/a	ROOT	-999	10	[0, 0, 0]	n/a	FR1	1	R1111M
1317.762	1.486	687830	REC_WORD	1.486	n/a	SEED	-999	10	[0, 0, 0]	n/a	FR1	1	R1111M
1319.248	0.901	688573	REC_WORD	0.901	n/a	MOOSE	-999	10	[0, 0, 0]	n/a	FR1	1	R1111M
1320.149	2.558	689023	REC_WORD	2.558	n/a	FILM	-999	10	[0, 0, 0]	n/a	FR1	1	R1111M
1322.707	0.797	690302	REC_WORD	0.797	n/a	AXE	-999	10	[0, 0, 0]	n/a	FR1	1	R1111M
1323.504	0.925	690700	REC_WORD	0.925	n/a	ICE	-999	10	[0, 0, 0]	n/a	FR1	1	R1111M
1324.429	1.259	691163	REC_WORD	1.259	n/a	SHEET	-999	10	[0, 0, 0]	n/a	FR1	1	R1111M
1325.688	14.228	691792	REC_WORD	14.228	n/a	PLATE	-999	10	[0, 0, 0]	n/a	FR1	1	R1111M
1339.916	44.573	698906	REC_END	n/a	n/a	n/a	-999	10	[0, 0, 0]	n/a	FR1	1	R1111M
1384.489	0.001	721191	COUNTDOWN_START	n/a	n/a	n/a	-999	11	[0, 0, 0]	n/a	FR1	1	R1111M
1384.49	10.427	721192	TRIAL	n/a	n/a	n/a	-999	11	[0, 0, 0]	n/a	FR1	1	R1111M
1394.917	0.007	726405	COUNTDOWN_END	n/a	n/a	n/a	-999	11	[0, 0, 0]	n/a	FR1	1	R1111M
1394.924	2.585	726408	ORIENT	n/a	n/a	n/a	-999	11	[0, 0, 0]	n/a	FR1	1	R1111M
1397.509	2.616	727701	WORD	n/a	wordpools/wordpool_EN.txt	STOOL	1	11	[0, 0, 0]	n/a	FR1	1	R1111M
1400.125	2.468	729009	WORD	n/a	wordpools/wordpool_EN.txt	TEA	2	11	[0, 0, 0]	n/a	FR1	1	R1111M
1402.593	2.516	730243	WORD	n/a	wordpools/wordpool_EN.txt	GEESE	3	11	[0, 0, 0]	n/a	FR1	1	R1111M
1405.109	2.584	731501	WORD	n/a	wordpools/wordpool_EN.txt	SOCK	4	11	[0, 0, 0]	n/a	FR1	1	R1111M
1407.693	2.585	732793	WORD	n/a	wordpools/wordpool_EN.txt	CLOWN	5	11	[0, 0, 0]	n/a	FR1	1	R1111M
1410.278	2.399	734085	WORD	n/a	wordpools/wordpool_EN.txt	PIG	6	11	[0, 0, 0]	n/a	FR1	1	R1111M
1412.677	2.417	735284	WORD	n/a	wordpools/wordpool_EN.txt	FLUTE	7	11	[0, 0, 0]	n/a	FR1	1	R1111M
1415.094	2.568	736493	WORD	n/a	wordpools/wordpool_EN.txt	BARN	8	11	[0, 0, 0]	n/a	FR1	1	R1111M
1417.662	2.584	737777	WORD	n/a	wordpools/wordpool_EN.txt	TRUCK	9	11	[0, 0, 0]	n/a	FR1	1	R1111M
1420.246	2.55	739069	WORD	n/a	wordpools/wordpool_EN.txt	FAN	10	11	[0, 0, 0]	n/a	FR1	1	R1111M
1422.796	2.418	740344	WORD	n/a	wordpools/wordpool_EN.txt	HAT	11	11	[0, 0, 0]	n/a	FR1	1	R1111M
1425.214	1.616	741553	WORD	n/a	wordpools/wordpool_EN.txt	MUG	12	11	[0, 0, 0]	n/a	FR1	1	R1111M
1426.83	0.001	742361	DISTRACT_START	n/a	n/a	n/a	-999	11	[0, 0, 0]	n/a	FR1	1	R1111M
1426.831	0.016	742361	START	n/a	n/a	n/a	-999	11	[-999, -999, -999]	n/a	FR1	1	R1111M
1426.847	7.352	742369	PROB	7.352	n/a	n/a	-999	11	[1, 4, 9]	14	FR1	1	R1111M
1434.199	9.484	746045	PROB	9.484	n/a	n/a	-999	11	[4, 7, 7]	18	FR1	1	R1111M
1443.683	5.55	750787	PROB	5.55	n/a	n/a	-999	11	[8, 9, 9]	26	FR1	1	R1111M
1449.233	0.019	753561	STOP	n/a	n/a	n/a	-999	11	[-999, -999, -999]	n/a	FR1	1	R1111M
1449.252	1.1	753571	DISTRACT_END	n/a	n/a	n/a	-999	11	[0, 0, 0]	n/a	FR1	1	R1111M
1450.352	3.322	754121	REC_START	n/a	n/a	n/a	-999	11	[0, 0, 0]	n/a	FR1	1	R1111M
1453.674	1.148	755782	REC_WORD	1.148	n/a	PIG	-999	11	[0, 0, 0]	n/a	FR1	1	R1111M
1454.822	2.591	756356	REC_WORD	2.591	n/a	CLOWN	-999	11	[0, 0, 0]	n/a	FR1	1	R1111M
1457.413	1.141	757651	REC_WORD	1.141	n/a	STOOL	-999	11	[0, 0, 0]	n/a	FR1	1	R1111M
1458.554	7.263	758222	REC_WORD	7.263	n/a	TEA	-999	11	[0, 0, 0]	n/a	FR1	1	R1111M
1465.817	14.55	761853	REC_WORD	14.55	n/a	HAT	-999	11	[0, 0, 0]	n/a	FR1	1	R1111M
1480.367	60.552	769128	REC_END	n/a	n/a	n/a	-999	11	[0, 0, 0]	n/a	FR1	1	R1111M
1540.919	0.0	799402	COUNTDOWN_START	n/a	n/a	n/a	-999	12	[0, 0, 0]	n/a	FR1	1	R1111M
1540.919	10.428	799402	TRIAL	n/a	n/a	n/a	-999	12	[0, 0, 0]	n/a	FR1	1	R1111M
1551.347	0.008	804616	COUNTDOWN_END	n/a	n/a	n/a	-999	12	[0, 0, 0]	n/a	FR1	1	R1111M
1551.355	2.533	804620	ORIENT	n/a	n/a	n/a	-999	12	[0, 0, 0]	n/a	FR1	1	R1111M
1553.888	2.535	805886	WORD	n/a	wordpools/wordpool_EN.txt	TOAD	1	12	[0, 0, 0]	n/a	FR1	1	R1111M
1556.423	2.516	807153	WORD	n/a	wordpools/wordpool_EN.txt	MUD	2	12	[0, 0, 0]	n/a	FR1	1	R1111M
1558.939	2.568	808411	WORD	n/a	wordpools/wordpool_EN.txt	PLANT	3	12	[0, 0, 0]	n/a	FR1	1	R1111M
1561.507	2.433	809695	WORD	n/a	wordpools/wordpool_EN.txt	FUDGE	4	12	[0, 0, 0]	n/a	FR1	1	R1111M
1563.94	2.535	810912	WORD	n/a	wordpools/wordpool_EN.txt	TANK	5	12	[0, 0, 0]	n/a	FR1	1	R1111M
1566.475	2.616	812179	WORD	n/a	wordpools/wordpool_EN.txt	BOARD	6	12	[0, 0, 0]	n/a	FR1	1	R1111M
1569.091	2.418	813487	WORD	n/a	wordpools/wordpool_EN.txt	SAIL	7	12	[0, 0, 0]	n/a	FR1	1	R1111M
1571.509	2.499	814696	WORD	n/a	wordpools/wordpool_EN.txt	SPONGE	8	12	[0, 0, 0]	n/a	FR1	1	R1111M
1574.008	2.402	815945	WORD	n/a	wordpools/wordpool_EN.txt	JET	9	12	[0, 0, 0]	n/a	FR1	1	R1111M
1576.41	2.433	817146	WORD	n/a	wordpools/wordpool_EN.txt	SPARK	10	12	[0, 0, 0]	n/a	FR1	1	R1111M
1578.843	2.434	818363	WORD	n/a	wordpools/wordpool_EN.txt	SEA	11	12	[0, 0, 0]	n/a	FR1	1	R1111M
1581.277	1.616	819580	WORD	n/a	wordpools/wordpool_EN.txt	STEAM	12	12	[0, 0, 0]	n/a	FR1	1	R1111M
1582.893	0.001	820388	DISTRACT_START	n/a	n/a	n/a	-999	12	[0, 0, 0]	n/a	FR1	1	R1111M
1582.894	0.016	820388	START	n/a	n/a	n/a	-999	12	[-999, -999, -999]	n/a	FR1	1	R1111M
1582.91	9.57	820396	PROB	9.57	n/a	n/a	-999	12	[2, 5, 3]	10	FR1	1	R1111M
1592.48	9.517	825181	PROB	9.517	n/a	n/a	-999	12	[3, 9, 8]	22	FR1	1	R1111M
1601.997	5.228	829939	PROB	5.228	n/a	n/a	-999	12	[7, 7, 2]	16	FR1	1	R1111M
1607.225	0.007	832553	STOP	n/a	n/a	n/a	-999	12	[-999, -999, -999]	n/a	FR1	1	R1111M
1607.232	1.184	832556	DISTRACT_END	n/a	n/a	n/a	-999	12	[0, 0, 0]	n/a	FR1	1	R1111M
1608.416	2.013	833148	REC_START	n/a	n/a	n/a	-999	12	[0, 0, 0]	n/a	FR1	1	R1111M
1610.429	0.525	834155	REC_WORD	0.525	n/a	TOAD	-999	12	[0, 0, 0]	n/a	FR1	1	R1111M
1610.954	0.614	834417	REC_WORD	0.614	n/a	MUD	-999	12	[0, 0, 0]	n/a	FR1	1	R1111M
1611.568	0.869	834724	REC_WORD	0.869	n/a	PLANT	-999	12	[0, 0, 0]	n/a	FR1	1	R1111M
1612.437	0.822	835159	REC_WORD	0.822	n/a	FUDGE	-999	12	[0, 0, 0]	n/a	FR1	1	R1111M
1613.259	0.777	835570	REC_WORD	0.777	n/a	TANK	-999	12	[0, 0, 0]	n/a	FR1	1	R1111M
1614.036	24.391	835958	REC_WORD	24.391	n/a	BOARD	-999	12	[0, 0, 0]	n/a	FR1	1	R1111M
1638.427	6.462	848153	REC_END	n/a	n/a	n/a	-999	12	[0, 0, 0]	n/a	FR1	1	R1111M
1644.889	0.0	851384	TRIAL	n/a	n/a	n/a	-999	13	[0, 0, 0]	n/a	FR1	1	R1111M
1644.889	10.428	851384	COUNTDOWN_START	n/a	n/a	n/a	-999	13	[0, 0, 0]	n/a	FR1	1	R1111M
1655.317	0.008	856598	COUNTDOWN_END	n/a	n/a	n/a	-999	13	[0, 0, 0]	n/a	FR1	1	R1111M
1655.325	2.566	856602	ORIENT	n/a	n/a	n/a	-999	13	[0, 0, 0]	n/a	FR1	1	R1111M
1657.891	2.418	857885	WORD	n/a	wordpools/wordpool_EN.txt	CAVE	1	13	[0, 0, 0]	n/a	FR1	1	R1111M
1660.309	2.617	859093	WORD	n/a	wordpools/wordpool_EN.txt	STAIR	2	13	[0, 0, 0]	n/a	FR1	1	R1111M
1662.926	2.401	860402	WORD	n/a	wordpools/wordpool_EN.txt	SWAMP	3	13	[0, 0, 0]	n/a	FR1	1	R1111M
1665.327	2.449	861602	WORD	n/a	wordpools/wordpool_EN.txt	WOOD	4	13	[0, 0, 0]	n/a	FR1	1	R1111M
1667.776	2.419	862827	WORD	n/a	wordpools/wordpool_EN.txt	CRANE	5	13	[0, 0, 0]	n/a	FR1	1	R1111M
1670.195	2.516	864036	WORD	n/a	wordpools/wordpool_EN.txt	RAKE	6	13	[0, 0, 0]	n/a	FR1	1	R1111M
1672.711	2.45	865294	WORD	n/a	wordpools/wordpool_EN.txt	HAWK	7	13	[0, 0, 0]	n/a	FR1	1	R1111M
1675.161	2.617	866519	WORD	n/a	wordpools/wordpool_EN.txt	PIPE	8	13	[0, 0, 0]	n/a	FR1	1	R1111M
1677.778	2.535	867827	WORD	n/a	wordpools/wordpool_EN.txt	HORSE	9	13	[0, 0, 0]	n/a	FR1	1	R1111M
1680.313	2.5	869095	WORD	n/a	wordpools/wordpool_EN.txt	TREE	10	13	[0, 0, 0]	n/a	FR1	1	R1111M
1682.813	2.585	870345	WORD	n/a	wordpools/wordpool_EN.txt	DART	11	13	[0, 0, 0]	n/a	FR1	1	R1111M
1685.398	1.616	871637	WORD	n/a	wordpools/wordpool_EN.txt	BOX	12	13	[0, 0, 0]	n/a	FR1	1	R1111M
1687.014	0.0	872445	DISTRACT_START	n/a	n/a	n/a	-999	13	[0, 0, 0]	n/a	FR1	1	R1111M
1687.014	0.016	872445	START	n/a	n/a	n/a	-999	13	[-999, -999, -999]	n/a	FR1	1	R1111M
1687.03	4.402	872453	PROB	4.402	n/a	n/a	-999	13	[1, 7, 8]	16	FR1	1	R1111M
1691.432	4.835	874654	PROB	4.835	n/a	n/a	-999	13	[3, 8, 1]	12	FR1	1	R1111M
1696.267	3.699	877071	PROB	3.699	n/a	n/a	-999	13	[6, 1, 5]	12	FR1	1	R1111M
1699.966	3.151	878921	PROB	3.151	n/a	n/a	-999	13	[5, 2, 5]	12	FR1	1	R1111M
1703.117	4.324	880496	PROB	4.324	n/a	n/a	-999	13	[3, 2, 5]	10	FR1	1	R1111M
1707.441	0.011	882658	STOP	n/a	n/a	n/a	-999	13	[-999, -999, -999]	n/a	FR1	1	R1111M
1707.452	1.034	882664	DISTRACT_END	n/a	n/a	n/a	-999	13	[0, 0, 0]	n/a	FR1	1	R1111M
1708.486	4.434	883181	REC_START	n/a	n/a	n/a	-999	13	[0, 0, 0]	n/a	FR1	1	R1111M
1712.92	1.202	885398	REC_WORD	1.202	n/a	HORSE	-999	13	[0, 0, 0]	n/a	FR1	1	R1111M
1714.122	24.373	885998	REC_WORD	24.373	n/a	PIPE	-999	13	[0, 0, 0]	n/a	FR1	1	R1111M
1738.495	22.734	898184	REC_END	n/a	n/a	n/a	-999	13	[0, 0, 0]	n/a	FR1	1	R1111M
1761.229	0.0	909551	TRIAL	n/a	n/a	n/a	-999	14	[0, 0, 0]	n/a	FR1	1	R1111M
1761.229	10.428	909551	COUNTDOWN_START	n/a	n/a	n/a	-999	14	[0, 0, 0]	n/a	FR1	1	R1111M
1771.657	0.006	914764	COUNTDOWN_END	n/a	n/a	n/a	-999	14	[0, 0, 0]	n/a	FR1	1	R1111M
1771.663	2.568	914767	ORIENT	n/a	n/a	n/a	-999	14	[0, 0, 0]	n/a	FR1	1	R1111M
1774.231	2.467	916051	WORD	n/a	wordpools/wordpool_EN.txt	CORN	1	14	[0, 0, 0]	n/a	FR1	1	R1111M
1776.698	2.584	917285	WORD	n/a	wordpools/wordpool_EN.txt	SMILE	2	14	[0, 0, 0]	n/a	FR1	1	R1111M
1779.282	2.45	918577	WORD	n/a	wordpools/wordpool_EN.txt	SKY	3	14	[0, 0, 0]	n/a	FR1	1	R1111M
1781.732	2.551	919802	WORD	n/a	wordpools/wordpool_EN.txt	VASE	4	14	[0, 0, 0]	n/a	FR1	1	R1111M
1784.283	2.567	921077	WORD	n/a	wordpools/wordpool_EN.txt	BOWL	5	14	[0, 0, 0]	n/a	FR1	1	R1111M
1786.85	2.451	922360	WORD	n/a	wordpools/wordpool_EN.txt	BAND	6	14	[0, 0, 0]	n/a	FR1	1	R1111M
1789.301	2.516	923586	WORD	n/a	wordpools/wordpool_EN.txt	OAR	7	14	[0, 0, 0]	n/a	FR1	1	R1111M
1791.817	2.518	924844	WORD	n/a	wordpools/wordpool_EN.txt	CHAIR	8	14	[0, 0, 0]	n/a	FR1	1	R1111M
1794.335	2.416	926103	WORD	n/a	wordpools/wordpool_EN.txt	STEAK	9	14	[0, 0, 0]	n/a	FR1	1	R1111M
1796.751	2.368	927311	WORD	n/a	wordpools/wordpool_EN.txt	BENCH	10	14	[0, 0, 0]	n/a	FR1	1	R1111M
1799.119	2.484	928495	WORD	n/a	wordpools/wordpool_EN.txt	LAMP	11	14	[0, 0, 0]	n/a	FR1	1	R1111M
1801.603	1.617	929737	WORD	n/a	wordpools/wordpool_EN.txt	HOOK	12	14	[0, 0, 0]	n/a	FR1	1	R1111M
1803.22	0.001	930545	DISTRACT_START	n/a	n/a	n/a	-999	14	[0, 0, 0]	n/a	FR1	1	R1111M
1803.221	0.016	930545	START	n/a	n/a	n/a	-999	14	[-999, -999, -999]	n/a	FR1	1	R1111M
1803.237	11.885	930553	PROB	11.885	n/a	n/a	-999	14	[3, 3, 8]	14	FR1	1	R1111M
1815.122	7.085	936496	PROB	7.085	n/a	n/a	-999	14	[8, 1, 5]	14	FR1	1	R1111M
1822.207	5.537	940038	PROB	5.537	n/a	n/a	-999	14	[3, 2, 9]	14	FR1	1	R1111M
1827.744	0.013	942806	STOP	n/a	n/a	n/a	-999	14	[-999, -999, -999]	n/a	FR1	1	R1111M
1827.757	1.068	942813	DISTRACT_END	n/a	n/a	n/a	-999	14	[0, 0, 0]	n/a	FR1	1	R1111M
1828.825	2.076	943347	REC_START	n/a	n/a	n/a	-999	14	[0, 0, 0]	n/a	FR1	1	R1111M
1830.901	2.328	944385	REC_WORD	2.328	n/a	CORN	-999	14	[0, 0, 0]	n/a	FR1	1	R1111M
1833.229	1.439	945549	REC_WORD	1.439	n/a	SMILE	-999	14	[0, 0, 0]	n/a	FR1	1	R1111M
1834.668	0.847	946268	REC_WORD	0.847	n/a	SKY	-999	14	[0, 0, 0]	n/a	FR1	1	R1111M
1835.515	1.932	946692	REC_WORD	1.932	n/a	VASE	-999	14	[0, 0, 0]	n/a	FR1	1	R1111M
1837.447	1.741	947658	REC_WORD	1.741	n/a	BOWL	-999	14	[0, 0, 0]	n/a	FR1	1	R1111M
1839.188	1.235	948528	REC_WORD	1.235	n/a	OAR	-999	14	[0, 0, 0]	n/a	FR1	1	R1111M
1840.423	1.387	949145	REC_WORD	1.387	n/a	CHAIR	-999	14	[0, 0, 0]	n/a	FR1	1	R1111M
1841.81	2.397	949839	REC_WORD	2.397	n/a	BAND	-999	14	[0, 0, 0]	n/a	FR1	1	R1111M
1844.207	14.628	951037	REC_WORD	14.628	n/a	HOOK	-999	14	[0, 0, 0]	n/a	FR1	1	R1111M
1858.835	7.481	958351	REC_END	n/a	n/a	n/a	-999	14	[0, 0, 0]	n/a	FR1	1	R1111M
1866.316	0.0	962091	TRIAL	n/a	n/a	n/a	-999	15	[0, 0, 0]	n/a	FR1	1	R1111M
1866.316	10.428	962091	COUNTDOWN_START	n/a	n/a	n/a	-999	15	[0, 0, 0]	n/a	FR1	1	R1111M
1876.744	0.006	967305	COUNTDOWN_END	n/a	n/a	n/a	-999	15	[0, 0, 0]	n/a	FR1	1	R1111M
1876.75	2.501	967308	ORIENT	n/a	n/a	n/a	-999	15	[0, 0, 0]	n/a	FR1	1	R1111M
1879.251	2.417	968558	WORD	n/a	wordpools/wordpool_EN.txt	BEE	1	15	[0, 0, 0]	n/a	FR1	1	R1111M
1881.668	2.417	969767	WORD	n/a	wordpools/wordpool_EN.txt	STORE	2	15	[0, 0, 0]	n/a	FR1	1	R1111M
1884.085	2.55	970975	WORD	n/a	wordpools/wordpool_EN.txt	TRASH	3	15	[0, 0, 0]	n/a	FR1	1	R1111M
1886.635	2.535	972250	WORD	n/a	wordpools/wordpool_EN.txt	APE	4	15	[0, 0, 0]	n/a	FR1	1	R1111M
1889.17	2.401	973518	WORD	n/a	wordpools/wordpool_EN.txt	SMOKE	5	15	[0, 0, 0]	n/a	FR1	1	R1111M
1891.571	2.6	974718	WORD	n/a	wordpools/wordpool_EN.txt	MOUSE	6	15	[0, 0, 0]	n/a	FR1	1	R1111M
1894.171	2.55	976018	WORD	n/a	wordpools/wordpool_EN.txt	BANK	7	15	[0, 0, 0]	n/a	FR1	1	R1111M
1896.721	2.451	977293	WORD	n/a	wordpools/wordpool_EN.txt	NET	8	15	[0, 0, 0]	n/a	FR1	1	R1111M
1899.172	2.466	978518	WORD	n/a	wordpools/wordpool_EN.txt	MILK	9	15	[0, 0, 0]	n/a	FR1	1	R1111M
1901.638	2.501	979751	WORD	n/a	wordpools/wordpool_EN.txt	CAT	10	15	[0, 0, 0]	n/a	FR1	1	R1111M
1904.139	2.385	981002	WORD	n/a	wordpools/wordpool_EN.txt	CASH	11	15	[0, 0, 0]	n/a	FR1	1	R1111M
1906.524	1.616	982194	WORD	n/a	wordpools/wordpool_EN.txt	HEART	12	15	[0, 0, 0]	n/a	FR1	1	R1111M
1908.14	0.0	983002	DISTRACT_START	n/a	n/a	n/a	-999	15	[0, 0, 0]	n/a	FR1	1	R1111M
1908.14	0.016	983002	START	n/a	n/a	n/a	-999	15	[-999, -999, -999]	n/a	FR1	1	R1111M
1908.156	11.454	983010	PROB	11.454	n/a	n/a	-999	15	[9, 8, 5]	22	FR1	1	R1111M
1919.61	3.967	988737	PROB	3.967	n/a	n/a	-999	15	[8, 3, 1]	12	FR1	1	R1111M
1923.577	4.083	990720	PROB	4.083	n/a	n/a	-999	15	[3, 5, 1]	9	FR1	1	R1111M
1927.66	5.925	992761	PROB	5.925	n/a	n/a	-999	15	[9, 3, 3]	15	FR1	1	R1111M
1933.585	0.011	995724	STOP	n/a	n/a	n/a	-999	15	[-999, -999, -999]	n/a	FR1	1	R1111M
1933.596	1.116	995729	DISTRACT_END	n/a	n/a	n/a	-999	15	[0, 0, 0]	n/a	FR1	1	R1111M
1934.712	2.771	996287	REC_START	n/a	n/a	n/a	-999	15	[0, 0, 0]	n/a	FR1	1	R1111M
1937.483	0.722	997673	REC_WORD	0.722	n/a	TRASH	-999	15	[0, 0, 0]	n/a	FR1	1	R1111M
1938.205	0.701	998034	REC_WORD	0.701	n/a	APE	-999	15	[0, 0, 0]	n/a	FR1	1	R1111M
1938.906	0.348	998384	REC_WORD	0.348	n/a	BEE	-999	15	[0, 0, 0]	n/a	FR1	1	R1111M
1939.254	5.336	998558	REC_WORD	5.336	n/a	STORE	-999	15	[0, 0, 0]	n/a	FR1	1	R1111M
1944.59	0.758	1001226	REC_WORD	0.758	n/a	SMOKE	-999	15	[0, 0, 0]	n/a	FR1	1	R1111M
1945.348	19.374	1001605	REC_WORD	19.374	n/a	MOUSE	-999	15	[0, 0, 0]	n/a	FR1	1	R1111M
1964.722	10.515	1011291	REC_END	n/a	n/a	n/a	-999	15	[0, 0, 0]	n/a	FR1	1	R1111M
1975.237	0.0	1016549	TRIAL	n/a	n/a	n/a	-999	16	[0, 0, 0]	n/a	FR1	1	R1111M
1975.237	10.428	1016549	COUNTDOWN_START	n/a	n/a	n/a	-999	16	[0, 0, 0]	n/a	FR1	1	R1111M
1985.665	0.023	1021762	COUNTDOWN_END	n/a	n/a	n/a	-999	16	[0, 0, 0]	n/a	FR1	1	R1111M
1985.688	2.535	1021774	ORIENT	n/a	n/a	n/a	-999	16	[0, 0, 0]	n/a	FR1	1	R1111M
1988.223	2.516	1023041	WORD	n/a	wordpools/wordpool_EN.txt	SLEEVE	1	16	[0, 0, 0]	n/a	FR1	1	R1111M
1990.739	2.485	1024299	WORD	n/a	wordpools/wordpool_EN.txt	TIE	2	16	[0, 0, 0]	n/a	FR1	1	R1111M
1993.224	2.599	1025542	WORD	n/a	wordpools/wordpool_EN.txt	HOSE	3	16	[0, 0, 0]	n/a	FR1	1	R1111M
1995.823	2.552	1026841	WORD	n/a	wordpools/wordpool_EN.txt	CANE	4	16	[0, 0, 0]	n/a	FR1	1	R1111M
1998.375	2.383	1028117	WORD	n/a	wordpools/wordpool_EN.txt	TRAY	5	16	[0, 0, 0]	n/a	FR1	1	R1111M
2000.758	2.484	1029308	WORD	n/a	wordpools/wordpool_EN.txt	FARM	6	16	[0, 0, 0]	n/a	FR1	1	R1111M
2003.242	2.583	1030550	WORD	n/a	wordpools/wordpool_EN.txt	WEED	7	16	[0, 0, 0]	n/a	FR1	1	R1111M
2005.825	2.502	1031842	WORD	n/a	wordpools/wordpool_EN.txt	CAKE	8	16	[0, 0, 0]	n/a	FR1	1	R1111M
2008.327	2.483	1033093	WORD	n/a	wordpools/wordpool_EN.txt	STICK	9	16	[0, 0, 0]	n/a	FR1	1	R1111M
2010.81	2.484	1034334	WORD	n/a	wordpools/wordpool_EN.txt	SEAL	10	16	[0, 0, 0]	n/a	FR1	1	R1111M
2013.294	2.45	1035576	WORD	n/a	wordpools/wordpool_EN.txt	LAMB	11	16	[0, 0, 0]	n/a	FR1	1	R1111M
2015.744	1.618	1036801	WORD	n/a	wordpools/wordpool_EN.txt	POOL	12	16	[0, 0, 0]	n/a	FR1	1	R1111M
2017.362	0.001	1037610	DISTRACT_START	n/a	n/a	n/a	-999	16	[0, 0, 0]	n/a	FR1	1	R1111M
2017.363	0.015	1037610	START	n/a	n/a	n/a	-999	16	[-999, -999, -999]	n/a	FR1	1	R1111M
2017.378	10.568	1037618	PROB	10.568	n/a	n/a	-999	16	[3, 1, 5]	8	FR1	1	R1111M
2027.946	7.052	1042902	PROB	7.052	n/a	n/a	-999	16	[9, 1, 7]	17	FR1	1	R1111M
2034.998	3.714	1046427	PROB	3.714	n/a	n/a	-999	16	[8, 4, 1]	13	FR1	1	R1111M
2038.712	0.02	1048284	STOP	n/a	n/a	n/a	-999	16	[-999, -999, -999]	n/a	FR1	1	R1111M
2038.732	1.2	1048294	DISTRACT_END	n/a	n/a	n/a	-999	16	[0, 0, 0]	n/a	FR1	1	R1111M
2039.932	0.0	1048894	REC_START	n/a	n/a	n/a	-999	16	[0, 0, 0]	n/a	FR1	1	R1111M
2039.932	30.015	1048894	REC_WORD_VV	30.015	n/a	<>	-999	16	[0, 0, 0]	n/a	FR1	1	R1111M
2069.947	144.168	1063901	REC_END	n/a	n/a	n/a	-999	16	[0, 0, 0]	n/a	FR1	1	R1111M
2214.115	0.001	1135981	COUNTDOWN_START	n/a	n/a	n/a	-999	17	[0, 0, 0]	n/a	FR1	1	R1111M
2214.116	0.0	1135981	TRIAL	n/a	n/a	n/a	-999	17	[0, 0, 0]	n/a	FR1	1	R1111M
