onset	duration	sample	trial_type	response_time	stim_file	item_name	serialpos	list	test	answer	experiment	session	subject
0.0	147.314	14908	INSTRUCT_START	n/a	n/a	n/a	-999	-999	[0, 0, 0]	n/a	FR1	1	R1449T
147.314	40.167	162220	INSTRUCT_END	n/a	n/a	n/a	-999	-999	[0, 0, 0]	n/a	FR1	1	R1449T
187.481	10.35	202382	COUNTDOWN_START	n/a	n/a	n/a	-999	-999	[0, 0, 0]	n/a	FR1	1	R1449T
197.831	0.0	212727	COUNTDOWN_END	n/a	n/a	n/a	-999	-999	[0, 0, 0]	n/a	FR1	1	R1449T
197.831	2.134	212727	ENCODING_START	n/a	n/a	n/a	-999	-1	[0, 0, 0]	n/a	FR1	1	R1449T
199.965	1.6	214867	WORD	n/a	n/a	HEDGE	1	-1	[0, 0, 0]	n/a	FR1	1	R1449T
201.565	0.949	216468	WORD_OFF	n/a	n/a	HEDGE	1	-1	[0, 0, 0]	n/a	FR1	1	R1449T
202.514	1.601	217417	WORD	n/a	n/a	POND	2	-1	[0, 0, 0]	n/a	FR1	1	R1449T
204.115	0.966	219019	WORD_OFF	n/a	n/a	POND	2	-1	[0, 0, 0]	n/a	FR1	1	R1449T
205.081	1.601	219982	WORD	n/a	n/a	PORK	3	-1	[0, 0, 0]	n/a	FR1	1	R1449T
206.682	0.9	221584	WORD_OFF	n/a	n/a	PORK	3	-1	[0, 0, 0]	n/a	FR1	1	R1449T
207.582	1.615	222477	WORD	n/a	n/a	LACE	4	-1	[0, 0, 0]	n/a	FR1	1	R1449T
209.197	0.901	224092	WORD_OFF	n/a	n/a	LACE	4	-1	[0, 0, 0]	n/a	FR1	1	R1449T
210.098	1.6	224999	WORD	n/a	n/a	YARN	5	-1	[0, 0, 0]	n/a	FR1	1	R1449T
211.698	0.833	226600	WORD_OFF	n/a	n/a	YARN	5	-1	[0, 0, 0]	n/a	FR1	1	R1449T
212.531	1.6	227437	WORD	n/a	n/a	CUP	6	-1	[0, 0, 0]	n/a	FR1	1	R1449T
214.131	0.85	229024	WORD_OFF	n/a	n/a	CUP	6	-1	[0, 0, 0]	n/a	FR1	1	R1449T
214.981	1.617	229874	WORD	n/a	n/a	BENCH	7	-1	[0, 0, 0]	n/a	FR1	1	R1449T
216.598	0.967	231490	WORD_OFF	n/a	n/a	BENCH	7	-1	[0, 0, 0]	n/a	FR1	1	R1449T
217.565	1.6	232467	WORD	n/a	n/a	HAT	8	-1	[0, 0, 0]	n/a	FR1	1	R1449T
219.165	0.816	234069	WORD_OFF	n/a	n/a	HAT	8	-1	[0, 0, 0]	n/a	FR1	1	R1449T
219.981	1.617	234877	WORD	n/a	n/a	BEEF	9	-1	[0, 0, 0]	n/a	FR1	1	R1449T
221.598	0.816	236492	WORD_OFF	n/a	n/a	BEEF	9	-1	[0, 0, 0]	n/a	FR1	1	R1449T
222.414	1.601	237314	WORD	n/a	n/a	MAP	10	-1	[0, 0, 0]	n/a	FR1	1	R1449T
224.015	0.966	238915	WORD_OFF	n/a	n/a	MAP	10	-1	[0, 0, 0]	n/a	FR1	1	R1449T
224.981	1.6	239879	WORD	n/a	n/a	JUDGE	11	-1	[0, 0, 0]	n/a	FR1	1	R1449T
226.581	0.983	241480	WORD_OFF	n/a	n/a	JUDGE	11	-1	[0, 0, 0]	n/a	FR1	1	R1449T
227.564	1.601	242458	WORD	n/a	n/a	RAFT	12	-1	[0, 0, 0]	n/a	FR1	1	R1449T
229.165	0.001	244060	WORD_OFF	n/a	n/a	RAFT	12	-1	[0, 0, 0]	n/a	FR1	1	R1449T
229.166	0.0	244060	ENCODING_END	n/a	n/a	n/a	-999	-1	[0, 0, 0]	n/a	FR1	1	R1449T
229.166	0.0	244060	DISTRACT_START	n/a	n/a	n/a	-999	-1	[0, 0, 0]	n/a	FR1	1	R1449T
229.166	0.0	244060	START	n/a	n/a	n/a	-999	-1	[-999, -999, -999]	n/a	FR1	1	R1449T
229.166	3.183	244060	PROB	3.183	n/a	n/a	-999	-1	[8, 5, 5]	18	FR1	1	R1449T
232.349	3.383	247243	PROB	3.383	n/a	n/a	-999	-1	[5, 2, 5]	12	FR1	1	R1449T
235.732	2.45	250625	PROB	2.45	n/a	n/a	-999	-1	[3, 4, 5]	12	FR1	1	R1449T
238.182	3.016	253075	PROB	3.016	n/a	n/a	-999	-1	[4, 3, 1]	8	FR1	1	R1449T
241.198	3.617	256091	PROB	3.617	n/a	n/a	-999	-1	[5, 2, 5]	12	FR1	1	R1449T
244.815	4.233	259708	PROB	4.233	n/a	n/a	-999	-1	[4, 5, 3]	12	FR1	1	R1449T
249.048	5.3	263941	PROB	5.3	n/a	n/a	-999	-1	[6, 7, 3]	16	FR1	1	R1449T
254.348	0.0	269240	STOP	n/a	n/a	n/a	-999	-1	[-999, -999, -999]	n/a	FR1	1	R1449T
254.348	2.266	269242	DISTRACT_END	n/a	n/a	n/a	-999	-1	[0, 0, 0]	n/a	FR1	1	R1449T
256.614	1.314	271504	REC_START	n/a	n/a	n/a	-999	-1	[0, 0, 0]	n/a	FR1	1	R1449T
257.928	2.236	272820	REC_WORD	2.236	n/a	POND	2	-1	[0, 0, 0]	n/a	FR1	1	R1449T
260.164	2.086	275056	REC_WORD	2.086	n/a	LAKE	-999	-1	[0, 0, 0]	n/a	FR1	1	R1449T
262.25	2.19	277142	REC_WORD	2.19	n/a	PORK	3	-1	[0, 0, 0]	n/a	FR1	1	R1449T
264.44	22.371	279332	REC_WORD	22.371	n/a	BEEF	9	-1	[0, 0, 0]	n/a	FR1	1	R1449T
286.811	14.17	301709	REC_END	n/a	n/a	n/a	-999	-1	[0, 0, 0]	n/a	FR1	1	R1449T
300.981	10.35	315880	COUNTDOWN_START	n/a	n/a	n/a	-999	1	[0, 0, 0]	n/a	FR1	1	R1449T
311.331	0.0	326226	COUNTDOWN_END	n/a	n/a	n/a	-999	1	[0, 0, 0]	n/a	FR1	1	R1449T
311.331	1.917	326226	ENCODING_START	n/a	n/a	n/a	-999	1	[0, 0, 0]	n/a	FR1	1	R1449T
313.248	1.601	328139	WORD	n/a	wordpools/wordpool_long_EN.txt	BRANCH	1	1	[0, 0, 0]	n/a	FR1	1	R1449T
314.849	0.948	329740	WORD_OFF	n/a	n/a	BRANCH	1	1	[0, 0, 0]	n/a	FR1	1	R1449T
315.797	1.601	330690	WORD	n/a	wordpools/wordpool_long_EN.txt	BROOM	2	1	[0, 0, 0]	n/a	FR1	1	R1449T
317.398	0.85	332291	WORD_OFF	n/a	n/a	BROOM	2	1	[0, 0, 0]	n/a	FR1	1	R1449T
318.248	1.6	333141	WORD	n/a	wordpools/wordpool_long_EN.txt	PET	3	1	[0, 0, 0]	n/a	FR1	1	R1449T
319.848	1.0	334743	WORD_OFF	n/a	n/a	PET	3	1	[0, 0, 0]	n/a	FR1	1	R1449T
320.848	1.616	335735	WORD	n/a	wordpools/wordpool_long_EN.txt	STRING	4	1	[0, 0, 0]	n/a	FR1	1	R1449T
322.464	0.817	337364	WORD_OFF	n/a	n/a	STRING	4	1	[0, 0, 0]	n/a	FR1	1	R1449T
323.281	1.6	338172	WORD	n/a	wordpools/wordpool_long_EN.txt	PRINCE	5	1	[0, 0, 0]	n/a	FR1	1	R1449T
324.881	0.901	339773	WORD_OFF	n/a	n/a	PRINCE	5	1	[0, 0, 0]	n/a	FR1	1	R1449T
325.782	1.616	340680	WORD	n/a	wordpools/wordpool_long_EN.txt	GRASS	6	1	[0, 0, 0]	n/a	FR1	1	R1449T
327.398	0.833	342296	WORD_OFF	n/a	n/a	GRASS	6	1	[0, 0, 0]	n/a	FR1	1	R1449T
328.231	1.6	343118	WORD	n/a	wordpools/wordpool_long_EN.txt	ICE	7	1	[0, 0, 0]	n/a	FR1	1	R1449T
329.831	0.834	344719	WORD_OFF	n/a	n/a	ICE	7	1	[0, 0, 0]	n/a	FR1	1	R1449T
330.665	1.615	345555	WORD	n/a	wordpools/wordpool_long_EN.txt	MAZE	8	1	[0, 0, 0]	n/a	FR1	1	R1449T
332.28	0.785	347171	WORD_OFF	n/a	n/a	MAZE	8	1	[0, 0, 0]	n/a	FR1	1	R1449T
333.065	1.615	347964	WORD	n/a	wordpools/wordpool_long_EN.txt	TROUT	9	1	[0, 0, 0]	n/a	FR1	1	R1449T
334.68	0.851	349566	WORD_OFF	n/a	n/a	TROUT	9	1	[0, 0, 0]	n/a	FR1	1	R1449T
335.531	1.6	350416	WORD	n/a	wordpools/wordpool_long_EN.txt	BOARD	10	1	[0, 0, 0]	n/a	FR1	1	R1449T
337.131	0.934	352032	WORD_OFF	n/a	n/a	BOARD	10	1	[0, 0, 0]	n/a	FR1	1	R1449T
338.065	1.616	352953	WORD	n/a	wordpools/wordpool_long_EN.txt	SMILE	11	1	[0, 0, 0]	n/a	FR1	1	R1449T
339.681	0.917	354568	WORD_OFF	n/a	n/a	SMILE	11	1	[0, 0, 0]	n/a	FR1	1	R1449T
340.598	1.617	355490	WORD	n/a	wordpools/wordpool_long_EN.txt	TILE	12	1	[0, 0, 0]	n/a	FR1	1	R1449T
342.215	0.001	357103	PROB	0.001	n/a	n/a	-999	1	[3, 5, 3]	11	FR1	1	R1449T
342.216	0.0	357104	START	n/a	n/a	n/a	-999	1	[-999, -999, -999]	n/a	FR1	1	R1449T
342.215	0.001	357105	WORD_OFF	n/a	n/a	TILE	12	1	[0, 0, 0]	n/a	FR1	1	R1449T
342.216	0.0	357105	ENCODING_END	n/a	n/a	n/a	-999	1	[0, 0, 0]	n/a	FR1	1	R1449T
342.216	4.9	357105	DISTRACT_START	n/a	n/a	n/a	-999	1	[0, 0, 0]	n/a	FR1	1	R1449T
347.116	5.282	362004	PROB	5.282	n/a	n/a	-999	1	[6, 5, 7]	18	FR1	1	R1449T
352.398	4.617	367285	PROB	4.617	n/a	n/a	-999	1	[6, 1, 6]	13	FR1	1	R1449T
357.015	3.918	371902	PROB	3.918	n/a	n/a	-999	1	[4, 5, 4]	13	FR1	1	R1449T
360.933	3.365	375820	PROB	3.365	n/a	n/a	-999	1	[5, 1, 7]	13	FR1	1	R1449T
364.298	0.0	379184	DISTRACT_END	n/a	n/a	n/a	-999	1	[0, 0, 0]	n/a	FR1	1	R1449T
364.298	2.167	379185	STOP	n/a	n/a	n/a	-999	1	[-999, -999, -999]	n/a	FR1	1	R1449T
366.465	1.673	381360	REC_START	n/a	n/a	n/a	-999	1	[0, 0, 0]	n/a	FR1	1	R1449T
368.138	2.226	383025	REC_WORD	2.226	n/a	BRANCH	1	1	[0, 0, 0]	n/a	FR1	1	R1449T
370.364	2.249	385251	REC_WORD	2.249	n/a	TOOL	-999	1	[0, 0, 0]	n/a	FR1	1	R1449T
372.613	4.835	387499	REC_WORD	4.835	n/a	LAKE	-999	1	[0, 0, 0]	n/a	FR1	1	R1449T
377.448	19.207	392334	REC_WORD	19.207	n/a	CABIN	-999	1	[0, 0, 0]	n/a	FR1	1	R1449T
396.655	1.477	411537	REC_END	n/a	n/a	n/a	-999	1	[0, 0, 0]	n/a	FR1	1	R1449T
398.132	10.35	413025	COUNTDOWN_START	n/a	n/a	n/a	-999	2	[0, 0, 0]	n/a	FR1	1	R1449T
408.482	0.0	423371	COUNTDOWN_END	n/a	n/a	n/a	-999	2	[0, 0, 0]	n/a	FR1	1	R1449T
408.482	2.066	423371	ENCODING_START	n/a	n/a	n/a	-999	2	[0, 0, 0]	n/a	FR1	1	R1449T
410.548	1.6	425440	WORD	n/a	wordpools/wordpool_long_EN.txt	RAIL	1	2	[0, 0, 0]	n/a	FR1	1	R1449T
412.148	0.967	427041	WORD_OFF	n/a	n/a	RAIL	1	2	[0, 0, 0]	n/a	FR1	1	R1449T
413.115	1.616	428005	WORD	n/a	wordpools/wordpool_long_EN.txt	STOOL	2	2	[0, 0, 0]	n/a	FR1	1	R1449T
414.731	0.85	429620	WORD_OFF	n/a	n/a	STOOL	2	2	[0, 0, 0]	n/a	FR1	1	R1449T
415.581	1.6	430470	WORD	n/a	wordpools/wordpool_long_EN.txt	PIN	3	2	[0, 0, 0]	n/a	FR1	1	R1449T
417.181	0.8	432072	WORD_OFF	n/a	n/a	PIN	3	2	[0, 0, 0]	n/a	FR1	1	R1449T
417.981	1.601	432865	WORD	n/a	wordpools/wordpool_long_EN.txt	LIP	4	2	[0, 0, 0]	n/a	FR1	1	R1449T
419.582	0.933	434467	WORD_OFF	n/a	n/a	LIP	4	2	[0, 0, 0]	n/a	FR1	1	R1449T
420.515	1.616	435402	WORD	n/a	wordpools/wordpool_long_EN.txt	CASH	5	2	[0, 0, 0]	n/a	FR1	1	R1449T
422.131	0.817	437018	WORD_OFF	n/a	n/a	CASH	5	2	[0, 0, 0]	n/a	FR1	1	R1449T
422.948	1.6	437840	WORD	n/a	wordpools/wordpool_long_EN.txt	SOCK	6	2	[0, 0, 0]	n/a	FR1	1	R1449T
424.548	0.849	439441	WORD_OFF	n/a	n/a	SOCK	6	2	[0, 0, 0]	n/a	FR1	1	R1449T
425.397	1.601	440291	WORD	n/a	wordpools/wordpool_long_EN.txt	BADGE	7	2	[0, 0, 0]	n/a	FR1	1	R1449T
426.998	0.9	441878	WORD_OFF	n/a	n/a	BADGE	7	2	[0, 0, 0]	n/a	FR1	1	R1449T
427.898	1.617	442785	WORD	n/a	wordpools/wordpool_long_EN.txt	PEARL	8	2	[0, 0, 0]	n/a	FR1	1	R1449T
429.515	0.966	444401	WORD_OFF	n/a	n/a	PEARL	8	2	[0, 0, 0]	n/a	FR1	1	R1449T
430.481	1.6	445365	WORD	n/a	wordpools/wordpool_long_EN.txt	BOY	9	2	[0, 0, 0]	n/a	FR1	1	R1449T
432.081	0.767	446966	WORD_OFF	n/a	n/a	BOY	9	2	[0, 0, 0]	n/a	FR1	1	R1449T
432.848	1.6	447731	WORD	n/a	wordpools/wordpool_long_EN.txt	ZOO	10	2	[0, 0, 0]	n/a	FR1	1	R1449T
434.448	0.917	449333	WORD_OFF	n/a	n/a	ZOO	10	2	[0, 0, 0]	n/a	FR1	1	R1449T
435.365	1.6	450254	WORD	n/a	wordpools/wordpool_long_EN.txt	SNACK	11	2	[0, 0, 0]	n/a	FR1	1	R1449T
436.965	0.949	451855	WORD_OFF	n/a	n/a	SNACK	11	2	[0, 0, 0]	n/a	FR1	1	R1449T
437.914	1.602	452805	WORD	n/a	wordpools/wordpool_long_EN.txt	PARK	12	2	[0, 0, 0]	n/a	FR1	1	R1449T
439.516	0.0	454399	START	n/a	n/a	n/a	-999	2	[-999, -999, -999]	n/a	FR1	1	R1449T
439.516	0.0	454399	PROB	0.0	n/a	n/a	-999	2	[8, 6, 8]	22	FR1	1	R1449T
439.515	0.001	454406	WORD_OFF	n/a	n/a	PARK	12	2	[0, 0, 0]	n/a	FR1	1	R1449T
439.516	0.0	454406	ENCODING_END	n/a	n/a	n/a	-999	2	[0, 0, 0]	n/a	FR1	1	R1449T
439.516	9.799	454406	DISTRACT_START	n/a	n/a	n/a	-999	2	[0, 0, 0]	n/a	FR1	1	R1449T
449.315	2.166	464197	PROB	2.166	n/a	n/a	-999	2	[2, 3, 1]	6	FR1	1	R1449T
451.481	4.217	466363	PROB	4.217	n/a	n/a	-999	2	[2, 3, 6]	11	FR1	1	R1449T
455.698	5.166	470580	PROB	5.166	n/a	n/a	-999	2	[8, 1, 5]	14	FR1	1	R1449T
460.864	0.0	475746	STOP	n/a	n/a	n/a	-999	2	[-999, -999, -999]	n/a	FR1	1	R1449T
460.864	2.1	475748	DISTRACT_END	n/a	n/a	n/a	-999	2	[0, 0, 0]	n/a	FR1	1	R1449T
462.964	0.989	477854	REC_START	n/a	n/a	n/a	-999	2	[0, 0, 0]	n/a	FR1	1	R1449T
463.953	3.45	478835	REC_WORD	3.45	n/a	POOL	-999	2	[0, 0, 0]	n/a	FR1	1	R1449T
467.403	25.769	482285	REC_WORD	25.769	n/a	BOY	9	2	[0, 0, 0]	n/a	FR1	1	R1449T
493.172	1.993	508059	REC_END	n/a	n/a	n/a	-999	2	[0, 0, 0]	n/a	FR1	1	R1449T
495.165	10.349	510057	COUNTDOWN_START	n/a	n/a	n/a	-999	3	[0, 0, 0]	n/a	FR1	1	R1449T
505.514	0.0	520402	COUNTDOWN_END	n/a	n/a	n/a	-999	3	[0, 0, 0]	n/a	FR1	1	R1449T
505.514	2.034	520402	ENCODING_START	n/a	n/a	n/a	-999	3	[0, 0, 0]	n/a	FR1	1	R1449T
507.548	1.617	522429	WORD	n/a	wordpools/wordpool_long_EN.txt	CROWN	1	3	[0, 0, 0]	n/a	FR1	1	R1449T
509.165	1.0	524044	WORD_OFF	n/a	n/a	CROWN	1	3	[0, 0, 0]	n/a	FR1	1	R1449T
510.165	1.6	525050	WORD	n/a	wordpools/wordpool_long_EN.txt	FLEA	2	3	[0, 0, 0]	n/a	FR1	1	R1449T
511.765	0.85	526652	WORD_OFF	n/a	n/a	FLEA	2	3	[0, 0, 0]	n/a	FR1	1	R1449T
512.615	1.603	527502	WORD	n/a	wordpools/wordpool_long_EN.txt	BRIDGE	3	3	[0, 0, 0]	n/a	FR1	1	R1449T
514.218	0.879	529104	WORD_OFF	n/a	n/a	BRIDGE	3	3	[0, 0, 0]	n/a	FR1	1	R1449T
515.097	1.601	529982	WORD	n/a	wordpools/wordpool_long_EN.txt	STORE	4	3	[0, 0, 0]	n/a	FR1	1	R1449T
516.698	0.917	531584	WORD_OFF	n/a	n/a	STORE	4	3	[0, 0, 0]	n/a	FR1	1	R1449T
517.615	1.601	532490	WORD	n/a	wordpools/wordpool_long_EN.txt	FROG	5	3	[0, 0, 0]	n/a	FR1	1	R1449T
519.216	0.832	534093	WORD_OFF	n/a	n/a	FROG	5	3	[0, 0, 0]	n/a	FR1	1	R1449T
520.048	1.617	534928	WORD	n/a	wordpools/wordpool_long_EN.txt	TRENCH	6	3	[0, 0, 0]	n/a	FR1	1	R1449T
521.665	0.983	536544	WORD_OFF	n/a	n/a	TRENCH	6	3	[0, 0, 0]	n/a	FR1	1	R1449T
522.648	1.786	537536	WORD	n/a	wordpools/wordpool_long_EN.txt	SOUP	7	3	[0, 0, 0]	n/a	FR1	1	R1449T
524.434	0.947	539321	WORD_OFF	n/a	n/a	SOUP	7	3	[0, 0, 0]	n/a	FR1	1	R1449T
525.381	1.6	540256	WORD	n/a	wordpools/wordpool_long_EN.txt	SHOE	8	3	[0, 0, 0]	n/a	FR1	1	R1449T
526.981	0.951	541858	WORD_OFF	n/a	n/a	SHOE	8	3	[0, 0, 0]	n/a	FR1	1	R1449T
527.932	1.615	542812	WORD	n/a	wordpools/wordpool_long_EN.txt	DRINK	9	3	[0, 0, 0]	n/a	FR1	1	R1449T
529.547	0.951	544423	WORD_OFF	n/a	n/a	DRINK	9	3	[0, 0, 0]	n/a	FR1	1	R1449T
530.498	1.616	545386	WORD	n/a	wordpools/wordpool_long_EN.txt	MUD	10	3	[0, 0, 0]	n/a	FR1	1	R1449T
532.114	0.867	547002	WORD_OFF	n/a	n/a	MUD	10	3	[0, 0, 0]	n/a	FR1	1	R1449T
532.981	1.616	547866	WORD	n/a	wordpools/wordpool_long_EN.txt	FOOD	11	3	[0, 0, 0]	n/a	FR1	1	R1449T
534.597	0.817	549482	WORD_OFF	n/a	n/a	FOOD	11	3	[0, 0, 0]	n/a	FR1	1	R1449T
535.414	1.601	550290	WORD	n/a	wordpools/wordpool_long_EN.txt	HOLE	12	3	[0, 0, 0]	n/a	FR1	1	R1449T
537.015	0.001	551891	WORD_OFF	n/a	n/a	HOLE	12	3	[0, 0, 0]	n/a	FR1	1	R1449T
537.016	0.0	551891	ENCODING_END	n/a	n/a	n/a	-999	3	[0, 0, 0]	n/a	FR1	1	R1449T
537.015	0.001	551893	PROB	0.001	n/a	n/a	-999	3	[1, 4, 1]	6	FR1	1	R1449T
537.016	0.0	551894	START	n/a	n/a	n/a	-999	3	[-999, -999, -999]	n/a	FR1	1	R1449T
537.016	4.166	551905	DISTRACT_START	n/a	n/a	n/a	-999	3	[0, 0, 0]	n/a	FR1	1	R1449T
541.182	3.582	556060	PROB	3.582	n/a	n/a	-999	3	[5, 4, 1]	10	FR1	1	R1449T
544.764	3.451	559642	PROB	3.451	n/a	n/a	-999	3	[8, 2, 4]	14	FR1	1	R1449T
548.215	3.166	563092	PROB	3.166	n/a	n/a	-999	3	[1, 3, 6]	10	FR1	1	R1449T
551.381	3.267	566258	PROB	3.267	n/a	n/a	-999	3	[4, 5, 1]	10	FR1	1	R1449T
554.648	2.916	569525	PROB	2.916	n/a	n/a	-999	3	[2, 2, 8]	12	FR1	1	R1449T
557.564	0.0	572440	DISTRACT_END	n/a	n/a	n/a	-999	3	[0, 0, 0]	n/a	FR1	1	R1449T
557.564	2.101	572441	STOP	n/a	n/a	n/a	-999	3	[-999, -999, -999]	n/a	FR1	1	R1449T
559.665	0.827	574545	REC_START	n/a	n/a	n/a	-999	3	[0, 0, 0]	n/a	FR1	1	R1449T
560.492	1.399	575369	REC_WORD	1.399	n/a	CROWN	1	3	[0, 0, 0]	n/a	FR1	1	R1449T
561.891	1.127	576768	REC_WORD	1.127	n/a	BRIDGE	3	3	[0, 0, 0]	n/a	FR1	1	R1449T
563.018	1.808	577895	REC_WORD	1.808	n/a	FOOD	11	3	[0, 0, 0]	n/a	FR1	1	R1449T
564.826	1.622	579703	REC_WORD	1.622	n/a	SOAP	-999	3	[0, 0, 0]	n/a	FR1	1	R1449T
566.448	23.437	581325	REC_WORD	23.437	n/a	STORE	4	3	[0, 0, 0]	n/a	FR1	1	R1449T
589.885	4.396	604765	REC_END	n/a	n/a	n/a	-999	3	[0, 0, 0]	n/a	FR1	1	R1449T
594.281	10.35	609158	COUNTDOWN_START	n/a	n/a	n/a	-999	4	[0, 0, 0]	n/a	FR1	1	R1449T
604.631	0.0	619503	COUNTDOWN_END	n/a	n/a	n/a	-999	4	[0, 0, 0]	n/a	FR1	1	R1449T
604.631	1.833	619517	ENCODING_START	n/a	n/a	n/a	-999	4	[0, 0, 0]	n/a	FR1	1	R1449T
606.464	1.6	621345	WORD	n/a	wordpools/wordpool_long_EN.txt	LUNCH	1	4	[0, 0, 0]	n/a	FR1	1	R1449T
608.064	0.884	622947	WORD_OFF	n/a	n/a	LUNCH	1	4	[0, 0, 0]	n/a	FR1	1	R1449T
608.948	1.6	623825	WORD	n/a	wordpools/wordpool_long_EN.txt	SEA	2	4	[0, 0, 0]	n/a	FR1	1	R1449T
610.548	0.817	625427	WORD_OFF	n/a	n/a	SEA	2	4	[0, 0, 0]	n/a	FR1	1	R1449T
611.365	1.616	626249	WORD	n/a	wordpools/wordpool_long_EN.txt	OWL	3	4	[0, 0, 0]	n/a	FR1	1	R1449T
612.981	0.867	627864	WORD_OFF	n/a	n/a	OWL	3	4	[0, 0, 0]	n/a	FR1	1	R1449T
613.848	1.617	628729	WORD	n/a	wordpools/wordpool_long_EN.txt	DART	4	4	[0, 0, 0]	n/a	FR1	1	R1449T
615.465	0.933	630344	WORD_OFF	n/a	n/a	DART	4	4	[0, 0, 0]	n/a	FR1	1	R1449T
616.398	1.6	631279	WORD	n/a	wordpools/wordpool_long_EN.txt	TEETH	5	4	[0, 0, 0]	n/a	FR1	1	R1449T
617.998	0.833	632881	WORD_OFF	n/a	n/a	TEETH	5	4	[0, 0, 0]	n/a	FR1	1	R1449T
618.831	1.616	633703	WORD	n/a	wordpools/wordpool_long_EN.txt	TOOTH	6	4	[0, 0, 0]	n/a	FR1	1	R1449T
620.447	0.951	635318	WORD_OFF	n/a	n/a	TOOTH	6	4	[0, 0, 0]	n/a	FR1	1	R1449T
621.398	1.617	636282	WORD	n/a	wordpools/wordpool_long_EN.txt	VEST	7	4	[0, 0, 0]	n/a	FR1	1	R1449T
623.015	0.949	637897	WORD_OFF	n/a	n/a	VEST	7	4	[0, 0, 0]	n/a	FR1	1	R1449T
623.964	1.601	638847	WORD	n/a	wordpools/wordpool_long_EN.txt	SCHOOL	8	4	[0, 0, 0]	n/a	FR1	1	R1449T
625.565	0.817	640448	WORD_OFF	n/a	n/a	SCHOOL	8	4	[0, 0, 0]	n/a	FR1	1	R1449T
626.382	1.616	641256	WORD	n/a	wordpools/wordpool_long_EN.txt	SWAMP	9	4	[0, 0, 0]	n/a	FR1	1	R1449T
627.998	0.95	642872	WORD_OFF	n/a	n/a	SWAMP	9	4	[0, 0, 0]	n/a	FR1	1	R1449T
628.948	1.616	643821	WORD	n/a	wordpools/wordpool_long_EN.txt	WEB	10	4	[0, 0, 0]	n/a	FR1	1	R1449T
630.564	1.001	645437	WORD_OFF	n/a	n/a	WEB	10	4	[0, 0, 0]	n/a	FR1	1	R1449T
631.565	1.616	646443	WORD	n/a	wordpools/wordpool_long_EN.txt	WING	11	4	[0, 0, 0]	n/a	FR1	1	R1449T
633.181	0.934	648058	WORD_OFF	n/a	n/a	WING	11	4	[0, 0, 0]	n/a	FR1	1	R1449T
634.115	1.601	648994	WORD	n/a	wordpools/wordpool_long_EN.txt	YACHT	12	4	[0, 0, 0]	n/a	FR1	1	R1449T
635.716	0.0	650589	START	n/a	n/a	n/a	-999	4	[-999, -999, -999]	n/a	FR1	1	R1449T
635.716	0.0	650589	PROB	0.0	n/a	n/a	-999	4	[4, 2, 6]	12	FR1	1	R1449T
635.715	0.001	650595	WORD_OFF	n/a	n/a	YACHT	12	4	[0, 0, 0]	n/a	FR1	1	R1449T
635.716	0.0	650595	ENCODING_END	n/a	n/a	n/a	-999	4	[0, 0, 0]	n/a	FR1	1	R1449T
635.716	5.866	650595	DISTRACT_START	n/a	n/a	n/a	-999	4	[0, 0, 0]	n/a	FR1	1	R1449T
641.582	4.9	656455	PROB	4.9	n/a	n/a	-999	4	[6, 6, 8]	20	FR1	1	R1449T
646.482	3.35	661354	PROB	3.35	n/a	n/a	-999	4	[4, 8, 2]	14	FR1	1	R1449T
649.832	6.616	664704	PROB	6.616	n/a	n/a	-999	4	[5, 8, 3]	16	FR1	1	R1449T
656.448	0.0	671320	STOP	n/a	n/a	n/a	-999	4	[-999, -999, -999]	n/a	FR1	1	R1449T
656.448	2.216	671328	DISTRACT_END	n/a	n/a	n/a	-999	4	[0, 0, 0]	n/a	FR1	1	R1449T
658.664	1.026	673532	REC_START	n/a	n/a	n/a	-999	4	[0, 0, 0]	n/a	FR1	1	R1449T
659.69	1.322	674562	REC_WORD	1.322	n/a	TOOTH	6	4	[0, 0, 0]	n/a	FR1	1	R1449T
661.012	1.326	675884	REC_WORD	1.326	n/a	TEETH	5	4	[0, 0, 0]	n/a	FR1	1	R1449T
662.338	1.742	677210	REC_WORD	1.742	n/a	YACHT	12	4	[0, 0, 0]	n/a	FR1	1	R1449T
664.08	24.815	678952	REC_WORD	24.815	n/a	SAIL	-999	4	[0, 0, 0]	n/a	FR1	1	R1449T
688.895	1.62	703766	REC_END	n/a	n/a	n/a	-999	4	[0, 0, 0]	n/a	FR1	1	R1449T
690.515	10.35	705396	COUNTDOWN_START	n/a	n/a	n/a	-999	5	[0, 0, 0]	n/a	FR1	1	R1449T
700.865	0.0	715741	COUNTDOWN_END	n/a	n/a	n/a	-999	5	[0, 0, 0]	n/a	FR1	1	R1449T
700.865	2.099	715741	ENCODING_START	n/a	n/a	n/a	-999	5	[0, 0, 0]	n/a	FR1	1	R1449T
702.964	1.601	717838	WORD	n/a	wordpools/wordpool_long_EN.txt	MULE	1	5	[0, 0, 0]	n/a	FR1	1	R1449T
704.565	0.933	719440	WORD_OFF	n/a	n/a	MULE	1	5	[0, 0, 0]	n/a	FR1	1	R1449T
705.498	1.617	720375	WORD	n/a	wordpools/wordpool_long_EN.txt	RUST	2	5	[0, 0, 0]	n/a	FR1	1	R1449T
707.115	0.899	721991	WORD_OFF	n/a	n/a	RUST	2	5	[0, 0, 0]	n/a	FR1	1	R1449T
708.014	1.601	722883	WORD	n/a	wordpools/wordpool_long_EN.txt	FLAME	3	5	[0, 0, 0]	n/a	FR1	1	R1449T
709.615	0.767	724485	WORD_OFF	n/a	n/a	FLAME	3	5	[0, 0, 0]	n/a	FR1	1	R1449T
710.382	1.616	725250	WORD	n/a	wordpools/wordpool_long_EN.txt	SMOKE	4	5	[0, 0, 0]	n/a	FR1	1	R1449T
711.998	0.9	726866	WORD_OFF	n/a	n/a	SMOKE	4	5	[0, 0, 0]	n/a	FR1	1	R1449T
712.898	1.617	727773	WORD	n/a	wordpools/wordpool_long_EN.txt	FRUIT	5	5	[0, 0, 0]	n/a	FR1	1	R1449T
714.515	0.9	729388	WORD_OFF	n/a	n/a	FRUIT	5	5	[0, 0, 0]	n/a	FR1	1	R1449T
715.415	1.616	730284	WORD	n/a	wordpools/wordpool_long_EN.txt	BRUSH	6	5	[0, 0, 0]	n/a	FR1	1	R1449T
717.031	0.816	731911	WORD_OFF	n/a	n/a	BRUSH	6	5	[0, 0, 0]	n/a	FR1	1	R1449T
717.847	1.618	732718	WORD	n/a	wordpools/wordpool_long_EN.txt	JAIL	7	5	[0, 0, 0]	n/a	FR1	1	R1449T
719.465	0.783	734334	WORD_OFF	n/a	n/a	JAIL	7	5	[0, 0, 0]	n/a	FR1	1	R1449T
720.248	1.617	735128	WORD	n/a	wordpools/wordpool_long_EN.txt	BAT	8	5	[0, 0, 0]	n/a	FR1	1	R1449T
721.865	0.916	736743	WORD_OFF	n/a	n/a	BAT	8	5	[0, 0, 0]	n/a	FR1	1	R1449T
722.781	1.617	737650	WORD	n/a	wordpools/wordpool_long_EN.txt	MOUTH	9	5	[0, 0, 0]	n/a	FR1	1	R1449T
724.398	0.883	739266	WORD_OFF	n/a	n/a	MOUTH	9	5	[0, 0, 0]	n/a	FR1	1	R1449T
725.281	1.617	740158	WORD	n/a	wordpools/wordpool_long_EN.txt	SLUSH	10	5	[0, 0, 0]	n/a	FR1	1	R1449T
726.898	0.883	741774	WORD_OFF	n/a	n/a	SLUSH	10	5	[0, 0, 0]	n/a	FR1	1	R1449T
727.781	1.617	742653	WORD	n/a	wordpools/wordpool_long_EN.txt	CHILD	11	5	[0, 0, 0]	n/a	FR1	1	R1449T
729.398	0.833	744268	WORD_OFF	n/a	n/a	CHILD	11	5	[0, 0, 0]	n/a	FR1	1	R1449T
730.231	1.602	745104	WORD	n/a	wordpools/wordpool_long_EN.txt	TOWN	12	5	[0, 0, 0]	n/a	FR1	1	R1449T
731.833	0.0	746701	START	n/a	n/a	n/a	-999	5	[-999, -999, -999]	n/a	FR1	1	R1449T
731.833	0.0	746701	PROB	0.0	n/a	n/a	-999	5	[3, 4, 1]	8	FR1	1	R1449T
731.832	0.001	746706	WORD_OFF	n/a	n/a	TOWN	12	5	[0, 0, 0]	n/a	FR1	1	R1449T
731.833	0.0	746706	ENCODING_END	n/a	n/a	n/a	-999	5	[0, 0, 0]	n/a	FR1	1	R1449T
731.833	4.815	746706	DISTRACT_START	n/a	n/a	n/a	-999	5	[0, 0, 0]	n/a	FR1	1	R1449T
736.648	3.484	751516	PROB	3.484	n/a	n/a	-999	5	[8, 7, 1]	6	FR1	1	R1449T
740.132	4.083	755000	PROB	4.083	n/a	n/a	-999	5	[2, 2, 6]	10	FR1	1	R1449T
744.215	3.049	759082	PROB	3.049	n/a	n/a	-999	5	[3, 7, 5]	15	FR1	1	R1449T
747.264	3.084	762131	PROB	3.084	n/a	n/a	-999	5	[2, 1, 4]	7	FR1	1	R1449T
750.348	4.216	765215	PROB	4.216	n/a	n/a	-999	5	[1, 3, 8]	12	FR1	1	R1449T
754.564	0.0	769431	STOP	n/a	n/a	n/a	-999	5	[-999, -999, -999]	n/a	FR1	1	R1449T
754.564	2.3	769437	DISTRACT_END	n/a	n/a	n/a	-999	5	[0, 0, 0]	n/a	FR1	1	R1449T
756.864	0.636	771740	REC_START	n/a	n/a	n/a	-999	5	[0, 0, 0]	n/a	FR1	1	R1449T
757.5	1.417	772367	REC_WORD	1.417	n/a	MOUTH	9	5	[0, 0, 0]	n/a	FR1	1	R1449T
758.917	1.969	773784	REC_WORD	1.969	n/a	TOOL	-999	5	[0, 0, 0]	n/a	FR1	1	R1449T
760.886	26.233	775753	REC_WORD	26.233	n/a	CHILD	11	5	[0, 0, 0]	n/a	FR1	1	R1449T
787.119	2.212	801988	REC_END	n/a	n/a	n/a	-999	5	[0, 0, 0]	n/a	FR1	1	R1449T
789.331	10.35	804199	COUNTDOWN_START	n/a	n/a	n/a	-999	6	[0, 0, 0]	n/a	FR1	1	R1449T
799.681	0.0	814544	COUNTDOWN_END	n/a	n/a	n/a	-999	6	[0, 0, 0]	n/a	FR1	1	R1449T
799.681	1.967	814558	ENCODING_START	n/a	n/a	n/a	-999	6	[0, 0, 0]	n/a	FR1	1	R1449T
801.648	1.617	816514	WORD	n/a	wordpools/wordpool_long_EN.txt	PURSE	1	6	[0, 0, 0]	n/a	FR1	1	R1449T
803.265	0.85	818130	WORD_OFF	n/a	n/a	PURSE	1	6	[0, 0, 0]	n/a	FR1	1	R1449T
804.115	1.6	818980	WORD	n/a	wordpools/wordpool_long_EN.txt	SNAIL	2	6	[0, 0, 0]	n/a	FR1	1	R1449T
805.715	0.9	820581	WORD_OFF	n/a	n/a	SNAIL	2	6	[0, 0, 0]	n/a	FR1	1	R1449T
806.615	1.616	821488	WORD	n/a	wordpools/wordpool_long_EN.txt	BAND	3	6	[0, 0, 0]	n/a	FR1	1	R1449T
808.231	0.85	823104	WORD_OFF	n/a	n/a	BAND	3	6	[0, 0, 0]	n/a	FR1	1	R1449T
809.081	1.6	823954	WORD	n/a	wordpools/wordpool_long_EN.txt	TREE	4	6	[0, 0, 0]	n/a	FR1	1	R1449T
810.681	0.817	825555	WORD_OFF	n/a	n/a	TREE	4	6	[0, 0, 0]	n/a	FR1	1	R1449T
811.498	1.617	826363	WORD	n/a	wordpools/wordpool_long_EN.txt	MAT	5	6	[0, 0, 0]	n/a	FR1	1	R1449T
813.115	0.783	827979	WORD_OFF	n/a	n/a	MAT	5	6	[0, 0, 0]	n/a	FR1	1	R1449T
813.898	1.616	828772	WORD	n/a	wordpools/wordpool_long_EN.txt	FRAME	6	6	[0, 0, 0]	n/a	FR1	1	R1449T
815.514	0.984	830388	WORD_OFF	n/a	n/a	FRAME	6	6	[0, 0, 0]	n/a	FR1	1	R1449T
816.498	1.6	831366	WORD	n/a	wordpools/wordpool_long_EN.txt	GLOBE	7	6	[0, 0, 0]	n/a	FR1	1	R1449T
818.098	0.917	832967	WORD_OFF	n/a	n/a	GLOBE	7	6	[0, 0, 0]	n/a	FR1	1	R1449T
819.015	1.616	833888	WORD	n/a	wordpools/wordpool_long_EN.txt	CHIEF	8	6	[0, 0, 0]	n/a	FR1	1	R1449T
820.631	0.8	835504	WORD_OFF	n/a	n/a	CHIEF	8	6	[0, 0, 0]	n/a	FR1	1	R1449T
821.431	1.601	836297	WORD	n/a	wordpools/wordpool_long_EN.txt	FLAG	9	6	[0, 0, 0]	n/a	FR1	1	R1449T
823.032	0.933	837899	WORD_OFF	n/a	n/a	FLAG	9	6	[0, 0, 0]	n/a	FR1	1	R1449T
823.965	1.6	838834	WORD	n/a	wordpools/wordpool_long_EN.txt	THUMB	10	6	[0, 0, 0]	n/a	FR1	1	R1449T
825.565	0.766	840435	WORD_OFF	n/a	n/a	THUMB	10	6	[0, 0, 0]	n/a	FR1	1	R1449T
826.331	1.601	841201	WORD	n/a	wordpools/wordpool_long_EN.txt	TOAST	11	6	[0, 0, 0]	n/a	FR1	1	R1449T
827.932	0.866	842802	WORD_OFF	n/a	n/a	TOAST	11	6	[0, 0, 0]	n/a	FR1	1	R1449T
828.798	1.618	843666	WORD	n/a	wordpools/wordpool_long_EN.txt	KITE	12	6	[0, 0, 0]	n/a	FR1	1	R1449T
830.416	0.0	845279	PROB	0.0	n/a	n/a	-999	6	[4, 8, 3]	15	FR1	1	R1449T
830.416	0.0	845279	START	n/a	n/a	n/a	-999	6	[-999, -999, -999]	n/a	FR1	1	R1449T
830.415	0.001	845282	WORD_OFF	n/a	n/a	KITE	12	6	[0, 0, 0]	n/a	FR1	1	R1449T
830.416	0.0	845282	ENCODING_END	n/a	n/a	n/a	-999	6	[0, 0, 0]	n/a	FR1	1	R1449T
830.416	5.599	845282	DISTRACT_START	n/a	n/a	n/a	-999	6	[0, 0, 0]	n/a	FR1	1	R1449T
836.015	8.365	850878	PROB	8.365	n/a	n/a	-999	6	[6, 8, 4]	18	FR1	1	R1449T
844.38	2.952	859242	PROB	2.952	n/a	n/a	-999	6	[5, 3, 8]	16	FR1	1	R1449T
847.332	3.183	862194	PROB	3.183	n/a	n/a	-999	6	[8, 3, 2]	13	FR1	1	R1449T
850.515	0.0	865377	DISTRACT_END	n/a	n/a	n/a	-999	6	[0, 0, 0]	n/a	FR1	1	R1449T
850.515	2.3	865377	STOP	n/a	n/a	n/a	-999	6	[-999, -999, -999]	n/a	FR1	1	R1449T
852.815	2.83	867681	REC_START	n/a	n/a	n/a	-999	6	[0, 0, 0]	n/a	FR1	1	R1449T
855.645	4.745	870507	REC_WORD	4.745	n/a	PURSE	1	6	[0, 0, 0]	n/a	FR1	1	R1449T
860.39	22.663	875252	REC_WORD	22.663	n/a	TREE	4	6	[0, 0, 0]	n/a	FR1	1	R1449T
883.053	9.578	897915	REC_END	n/a	n/a	n/a	-999	6	[0, 0, 0]	n/a	FR1	1	R1449T
892.631	10.35	907494	COUNTDOWN_START	n/a	n/a	n/a	-999	7	[0, 0, 0]	n/a	FR1	1	R1449T
902.981	0.0	917840	COUNTDOWN_END	n/a	n/a	n/a	-999	7	[0, 0, 0]	n/a	FR1	1	R1449T
902.981	2.183	917840	ENCODING_START	n/a	n/a	n/a	-999	7	[0, 0, 0]	n/a	FR1	1	R1449T
905.164	1.601	920022	WORD	n/a	wordpools/wordpool_long_EN.txt	MASK	1	7	[0, 0, 0]	n/a	FR1	1	R1449T
906.765	0.983	921623	WORD_OFF	n/a	n/a	MASK	1	7	[0, 0, 0]	n/a	FR1	1	R1449T
907.748	1.6	922615	WORD	n/a	wordpools/wordpool_long_EN.txt	GEESE	2	7	[0, 0, 0]	n/a	FR1	1	R1449T
909.348	0.983	924217	WORD_OFF	n/a	n/a	GEESE	2	7	[0, 0, 0]	n/a	FR1	1	R1449T
910.331	1.616	925195	WORD	n/a	wordpools/wordpool_long_EN.txt	KEY	3	7	[0, 0, 0]	n/a	FR1	1	R1449T
911.947	0.8	926810	WORD_OFF	n/a	n/a	KEY	3	7	[0, 0, 0]	n/a	FR1	1	R1449T
912.747	1.601	927604	WORD	n/a	wordpools/wordpool_long_EN.txt	STEAK	4	7	[0, 0, 0]	n/a	FR1	1	R1449T
914.348	0.933	929205	WORD_OFF	n/a	n/a	STEAK	4	7	[0, 0, 0]	n/a	FR1	1	R1449T
915.281	1.6	930140	WORD	n/a	wordpools/wordpool_long_EN.txt	CART	5	7	[0, 0, 0]	n/a	FR1	1	R1449T
916.881	0.817	931742	WORD_OFF	n/a	n/a	CART	5	7	[0, 0, 0]	n/a	FR1	1	R1449T
917.698	1.6	932564	WORD	n/a	wordpools/wordpool_long_EN.txt	PIT	6	7	[0, 0, 0]	n/a	FR1	1	R1449T
919.298	0.866	934165	WORD_OFF	n/a	n/a	PIT	6	7	[0, 0, 0]	n/a	FR1	1	R1449T
920.164	1.601	935030	WORD	n/a	wordpools/wordpool_long_EN.txt	NET	7	7	[0, 0, 0]	n/a	FR1	1	R1449T
921.765	0.949	936631	WORD_OFF	n/a	n/a	NET	7	7	[0, 0, 0]	n/a	FR1	1	R1449T
922.714	1.601	937580	WORD	n/a	wordpools/wordpool_long_EN.txt	SKI	8	7	[0, 0, 0]	n/a	FR1	1	R1449T
924.315	0.832	939182	WORD_OFF	n/a	n/a	SKI	8	7	[0, 0, 0]	n/a	FR1	1	R1449T
925.147	1.601	940004	WORD	n/a	wordpools/wordpool_long_EN.txt	SIGN	9	7	[0, 0, 0]	n/a	FR1	1	R1449T
926.748	0.8	941605	WORD_OFF	n/a	n/a	SIGN	9	7	[0, 0, 0]	n/a	FR1	1	R1449T
927.548	1.617	942413	WORD	n/a	wordpools/wordpool_long_EN.txt	ROD	10	7	[0, 0, 0]	n/a	FR1	1	R1449T
929.165	0.983	944028	WORD_OFF	n/a	n/a	ROD	10	7	[0, 0, 0]	n/a	FR1	1	R1449T
930.148	1.6	945006	WORD	n/a	wordpools/wordpool_long_EN.txt	PIPE	11	7	[0, 0, 0]	n/a	FR1	1	R1449T
931.748	0.983	946608	WORD_OFF	n/a	n/a	PIPE	11	7	[0, 0, 0]	n/a	FR1	1	R1449T
932.731	1.601	947600	WORD	n/a	wordpools/wordpool_long_EN.txt	ROOT	12	7	[0, 0, 0]	n/a	FR1	1	R1449T
934.332	0.003	949190	PROB	0.003	n/a	n/a	-999	7	[5, 5, 1]	11	FR1	1	R1449T
934.335	0.0	949193	START	n/a	n/a	n/a	-999	7	[-999, -999, -999]	n/a	FR1	1	R1449T
934.332	0.003	949201	WORD_OFF	n/a	n/a	ROOT	12	7	[0, 0, 0]	n/a	FR1	1	R1449T
934.335	0.0	949201	ENCODING_END	n/a	n/a	n/a	-999	7	[0, 0, 0]	n/a	FR1	1	R1449T
934.335	4.748	949201	DISTRACT_START	n/a	n/a	n/a	-999	7	[0, 0, 0]	n/a	FR1	1	R1449T
939.083	5.916	953940	PROB	5.916	n/a	n/a	-999	7	[8, 1, 4]	13	FR1	1	R1449T
944.999	3.766	959856	PROB	3.766	n/a	n/a	-999	7	[3, 7, 6]	16	FR1	1	R1449T
948.765	3.967	963622	PROB	3.967	n/a	n/a	-999	7	[4, 1, 7]	12	FR1	1	R1449T
952.732	3.299	967589	PROB	3.299	n/a	n/a	-999	7	[6, 2, 7]	15	FR1	1	R1449T
956.031	0.0	970888	STOP	n/a	n/a	n/a	-999	7	[-999, -999, -999]	n/a	FR1	1	R1449T
956.031	2.383	970897	DISTRACT_END	n/a	n/a	n/a	-999	7	[0, 0, 0]	n/a	FR1	1	R1449T
958.414	1.442	973272	REC_START	n/a	n/a	n/a	-999	7	[0, 0, 0]	n/a	FR1	1	R1449T
959.856	2.714	974712	REC_WORD	2.714	n/a	NET	7	7	[0, 0, 0]	n/a	FR1	1	R1449T
962.57	4.139	977426	REC_WORD	4.139	n/a	SEA	-999	7	[0, 0, 0]	n/a	FR1	1	R1449T
966.709	3.359	981565	REC_WORD	3.359	n/a	SIGN	9	7	[0, 0, 0]	n/a	FR1	1	R1449T
970.068	18.562	984924	REC_WORD	18.562	n/a	FLAG	-999	7	[0, 0, 0]	n/a	FR1	1	R1449T
988.63	1.817	1003492	REC_END	n/a	n/a	n/a	-999	7	[0, 0, 0]	n/a	FR1	1	R1449T
990.447	10.351	1005306	COUNTDOWN_START	n/a	n/a	n/a	-999	8	[0, 0, 0]	n/a	FR1	1	R1449T
1000.798	0.0	1015651	COUNTDOWN_END	n/a	n/a	n/a	-999	8	[0, 0, 0]	n/a	FR1	1	R1449T
1000.798	2.266	1015665	ENCODING_START	n/a	n/a	n/a	-999	8	[0, 0, 0]	n/a	FR1	1	R1449T
1003.064	1.601	1017918	WORD	n/a	wordpools/wordpool_long_EN.txt	SHEET	1	8	[0, 0, 0]	n/a	FR1	1	R1449T
1004.665	0.85	1019520	WORD_OFF	n/a	n/a	SHEET	1	8	[0, 0, 0]	n/a	FR1	1	R1449T
1005.515	1.6	1020370	WORD	n/a	wordpools/wordpool_long_EN.txt	STICK	2	8	[0, 0, 0]	n/a	FR1	1	R1449T
1007.115	0.9	1021971	WORD_OFF	n/a	n/a	STICK	2	8	[0, 0, 0]	n/a	FR1	1	R1449T
1008.015	1.616	1022878	WORD	n/a	wordpools/wordpool_long_EN.txt	FLASK	3	8	[0, 0, 0]	n/a	FR1	1	R1449T
1009.631	0.901	1024494	WORD_OFF	n/a	n/a	FLASK	3	8	[0, 0, 0]	n/a	FR1	1	R1449T
1010.532	1.616	1025386	WORD	n/a	wordpools/wordpool_long_EN.txt	MOP	4	8	[0, 0, 0]	n/a	FR1	1	R1449T
1012.148	0.917	1027002	WORD_OFF	n/a	n/a	MOP	4	8	[0, 0, 0]	n/a	FR1	1	R1449T
1013.065	1.616	1027923	WORD	n/a	wordpools/wordpool_long_EN.txt	MOLE	5	8	[0, 0, 0]	n/a	FR1	1	R1449T
1014.681	0.783	1029539	WORD_OFF	n/a	n/a	MOLE	5	8	[0, 0, 0]	n/a	FR1	1	R1449T
1015.464	1.601	1030318	WORD	n/a	wordpools/wordpool_long_EN.txt	BOOK	6	8	[0, 0, 0]	n/a	FR1	1	R1449T
1017.065	0.8	1031919	WORD_OFF	n/a	n/a	BOOK	6	8	[0, 0, 0]	n/a	FR1	1	R1449T
1017.865	1.616	1032727	WORD	n/a	wordpools/wordpool_long_EN.txt	FORT	7	8	[0, 0, 0]	n/a	FR1	1	R1449T
1019.481	0.934	1034343	WORD_OFF	n/a	n/a	FORT	7	8	[0, 0, 0]	n/a	FR1	1	R1449T
1020.415	1.6	1035278	WORD	n/a	wordpools/wordpool_long_EN.txt	RICE	8	8	[0, 0, 0]	n/a	FR1	1	R1449T
1022.015	0.933	1036865	WORD_OFF	n/a	n/a	RICE	8	8	[0, 0, 0]	n/a	FR1	1	R1449T
1022.948	1.617	1037801	WORD	n/a	wordpools/wordpool_long_EN.txt	LODGE	9	8	[0, 0, 0]	n/a	FR1	1	R1449T
1024.565	0.983	1039416	WORD_OFF	n/a	n/a	LODGE	9	8	[0, 0, 0]	n/a	FR1	1	R1449T
1025.548	1.6	1040408	WORD	n/a	wordpools/wordpool_long_EN.txt	CLIFF	10	8	[0, 0, 0]	n/a	FR1	1	R1449T
1027.148	0.933	1042010	WORD_OFF	n/a	n/a	CLIFF	10	8	[0, 0, 0]	n/a	FR1	1	R1449T
1028.081	1.617	1042945	WORD	n/a	wordpools/wordpool_long_EN.txt	LOFT	11	8	[0, 0, 0]	n/a	FR1	1	R1449T
1029.698	1.0	1044560	WORD_OFF	n/a	n/a	LOFT	11	8	[0, 0, 0]	n/a	FR1	1	R1449T
1030.698	1.617	1045552	WORD	n/a	wordpools/wordpool_long_EN.txt	CAT	12	8	[0, 0, 0]	n/a	FR1	1	R1449T
1032.315	0.001	1047168	WORD_OFF	n/a	n/a	CAT	12	8	[0, 0, 0]	n/a	FR1	1	R1449T
1032.316	0.0	1047168	ENCODING_END	n/a	n/a	n/a	-999	8	[0, 0, 0]	n/a	FR1	1	R1449T
1032.315	0.001	1047168	PROB	0.001	n/a	n/a	-999	8	[8, 2, 1]	11	FR1	1	R1449T
1032.316	0.0	1047169	START	n/a	n/a	n/a	-999	8	[-999, -999, -999]	n/a	FR1	1	R1449T
1032.316	4.149	1047182	DISTRACT_START	n/a	n/a	n/a	-999	8	[0, 0, 0]	n/a	FR1	1	R1449T
1036.465	4.7	1051318	PROB	4.7	n/a	n/a	-999	8	[4, 4, 3]	12	FR1	1	R1449T
1041.165	3.666	1056017	PROB	3.666	n/a	n/a	-999	8	[7, 4, 2]	13	FR1	1	R1449T
1044.831	5.267	1059683	PROB	5.267	n/a	n/a	-999	8	[8, 8, 6]	22	FR1	1	R1449T
1050.098	2.766	1064950	PROB	2.766	n/a	n/a	-999	8	[7, 5, 1]	13	FR1	1	R1449T
1052.864	0.0	1067716	DISTRACT_END	n/a	n/a	n/a	-999	8	[0, 0, 0]	n/a	FR1	1	R1449T
1052.864	2.134	1067716	STOP	n/a	n/a	n/a	-999	8	[-999, -999, -999]	n/a	FR1	1	R1449T
1054.998	0.538	1069850	REC_START	n/a	n/a	n/a	-999	8	[0, 0, 0]	n/a	FR1	1	R1449T
1055.536	12.82	1070388	REC_WORD	12.82	n/a	CAT	12	8	[0, 0, 0]	n/a	FR1	1	R1449T
1068.356	5.23	1083207	REC_WORD	5.23	n/a	LOOK	-999	8	[0, 0, 0]	n/a	FR1	1	R1449T
1073.586	11.631	1088437	REC_WORD	11.631	n/a	MOP	4	8	[0, 0, 0]	n/a	FR1	1	R1449T
1085.217	2.464	1100070	REC_END	n/a	n/a	n/a	-999	8	[0, 0, 0]	n/a	FR1	1	R1449T
1087.681	10.35	1102536	COUNTDOWN_START	n/a	n/a	n/a	-999	9	[0, 0, 0]	n/a	FR1	1	R1449T
1098.031	0.0	1112881	COUNTDOWN_END	n/a	n/a	n/a	-999	9	[0, 0, 0]	n/a	FR1	1	R1449T
1098.031	1.933	1112881	ENCODING_START	n/a	n/a	n/a	-999	9	[0, 0, 0]	n/a	FR1	1	R1449T
1099.964	1.601	1114822	WORD	n/a	wordpools/wordpool_long_EN.txt	CHALK	1	9	[0, 0, 0]	n/a	FR1	1	R1449T
1101.565	0.766	1116424	WORD_OFF	n/a	n/a	CHALK	1	9	[0, 0, 0]	n/a	FR1	1	R1449T
1102.331	1.601	1117189	WORD	n/a	wordpools/wordpool_long_EN.txt	PEA	2	9	[0, 0, 0]	n/a	FR1	1	R1449T
1103.932	0.816	1118790	WORD_OFF	n/a	n/a	PEA	2	9	[0, 0, 0]	n/a	FR1	1	R1449T
1104.748	1.616	1119598	WORD	n/a	wordpools/wordpool_long_EN.txt	FRIEND	3	9	[0, 0, 0]	n/a	FR1	1	R1449T
1106.364	0.901	1121214	WORD_OFF	n/a	n/a	FRIEND	3	9	[0, 0, 0]	n/a	FR1	1	R1449T
1107.265	1.6	1122121	WORD	n/a	wordpools/wordpool_long_EN.txt	CAVE	4	9	[0, 0, 0]	n/a	FR1	1	R1449T
1108.865	0.883	1123722	WORD_OFF	n/a	n/a	CAVE	4	9	[0, 0, 0]	n/a	FR1	1	R1449T
1109.748	1.617	1124601	WORD	n/a	wordpools/wordpool_long_EN.txt	THREAD	5	9	[0, 0, 0]	n/a	FR1	1	R1449T
1111.365	0.967	1126216	WORD_OFF	n/a	n/a	THREAD	5	9	[0, 0, 0]	n/a	FR1	1	R1449T
1112.332	1.616	1127180	WORD	n/a	wordpools/wordpool_long_EN.txt	CAGE	6	9	[0, 0, 0]	n/a	FR1	1	R1449T
1113.948	0.933	1128795	WORD_OFF	n/a	n/a	CAGE	6	9	[0, 0, 0]	n/a	FR1	1	R1449T
1114.881	1.6	1129731	WORD	n/a	wordpools/wordpool_long_EN.txt	OX	7	9	[0, 0, 0]	n/a	FR1	1	R1449T
1116.481	0.801	1131332	WORD_OFF	n/a	n/a	OX	7	9	[0, 0, 0]	n/a	FR1	1	R1449T
1117.282	1.599	1132140	WORD	n/a	wordpools/wordpool_long_EN.txt	CHEST	8	9	[0, 0, 0]	n/a	FR1	1	R1449T
1118.881	0.767	1133727	WORD_OFF	n/a	n/a	CHEST	8	9	[0, 0, 0]	n/a	FR1	1	R1449T
1119.648	1.617	1134506	WORD	n/a	wordpools/wordpool_long_EN.txt	MOON	9	9	[0, 0, 0]	n/a	FR1	1	R1449T
1121.265	0.917	1136122	WORD_OFF	n/a	n/a	MOON	9	9	[0, 0, 0]	n/a	FR1	1	R1449T
1122.182	1.616	1137029	WORD	n/a	wordpools/wordpool_long_EN.txt	PASTE	10	9	[0, 0, 0]	n/a	FR1	1	R1449T
1123.798	0.784	1138644	WORD_OFF	n/a	n/a	PASTE	10	9	[0, 0, 0]	n/a	FR1	1	R1449T
1124.582	1.616	1139438	WORD	n/a	wordpools/wordpool_long_EN.txt	SUIT	11	9	[0, 0, 0]	n/a	FR1	1	R1449T
1126.198	0.984	1141054	WORD_OFF	n/a	n/a	SUIT	11	9	[0, 0, 0]	n/a	FR1	1	R1449T
1127.182	1.616	1142031	WORD	n/a	wordpools/wordpool_long_EN.txt	CRIB	12	9	[0, 0, 0]	n/a	FR1	1	R1449T
1128.798	0.001	1143647	WORD_OFF	n/a	n/a	CRIB	12	9	[0, 0, 0]	n/a	FR1	1	R1449T
1128.799	0.0	1143647	ENCODING_END	n/a	n/a	n/a	-999	9	[0, 0, 0]	n/a	FR1	1	R1449T
1128.799	0.0	1143647	START	n/a	n/a	n/a	-999	9	[-999, -999, -999]	n/a	FR1	1	R1449T
1128.799	0.0	1143647	PROB	0.0	n/a	n/a	-999	9	[7, 3, 4]	14	FR1	1	R1449T
1128.799	4.483	1143661	DISTRACT_START	n/a	n/a	n/a	-999	9	[0, 0, 0]	n/a	FR1	1	R1449T
1133.282	6.416	1148130	PROB	6.416	n/a	n/a	-999	9	[5, 6, 7]	18	FR1	1	R1449T
1139.698	2.351	1154545	PROB	2.351	n/a	n/a	-999	9	[2, 8, 2]	12	FR1	1	R1449T
1142.049	3.899	1156896	PROB	3.899	n/a	n/a	-999	9	[2, 2, 3]	7	FR1	1	R1449T
1145.948	3.05	1160795	PROB	3.05	n/a	n/a	-999	9	[1, 6, 5]	12	FR1	1	R1449T
1148.998	0.0	1163845	STOP	n/a	n/a	n/a	-999	9	[-999, -999, -999]	n/a	FR1	1	R1449T
1148.998	2.117	1163855	DISTRACT_END	n/a	n/a	n/a	-999	9	[0, 0, 0]	n/a	FR1	1	R1449T
1151.115	0.802	1165961	REC_START	n/a	n/a	n/a	-999	9	[0, 0, 0]	n/a	FR1	1	R1449T
1151.917	1.759	1166764	REC_WORD	1.759	n/a	CHALK	1	9	[0, 0, 0]	n/a	FR1	1	R1449T
1153.676	4.487	1168523	REC_WORD	4.487	n/a	CAVE	4	9	[0, 0, 0]	n/a	FR1	1	R1449T
1158.163	23.189	1173009	REC_WORD	23.189	n/a	CHEST	8	9	[0, 0, 0]	n/a	FR1	1	R1449T
1181.352	2.312	1196195	REC_END	n/a	n/a	n/a	-999	9	[0, 0, 0]	n/a	FR1	1	R1449T
1183.664	10.35	1198519	COUNTDOWN_START	n/a	n/a	n/a	-999	10	[0, 0, 0]	n/a	FR1	1	R1449T
1194.014	0.0	1208864	COUNTDOWN_END	n/a	n/a	n/a	-999	10	[0, 0, 0]	n/a	FR1	1	R1449T
1194.014	2.034	1208864	ENCODING_START	n/a	n/a	n/a	-999	10	[0, 0, 0]	n/a	FR1	1	R1449T
1196.048	1.617	1210890	WORD	n/a	wordpools/wordpool_long_EN.txt	SPRING	1	10	[0, 0, 0]	n/a	FR1	1	R1449T
1197.665	0.999	1212520	WORD_OFF	n/a	n/a	SPRING	1	10	[0, 0, 0]	n/a	FR1	1	R1449T
1198.664	1.601	1213512	WORD	n/a	wordpools/wordpool_long_EN.txt	BIRD	2	10	[0, 0, 0]	n/a	FR1	1	R1449T
1200.265	0.933	1215113	WORD_OFF	n/a	n/a	BIRD	2	10	[0, 0, 0]	n/a	FR1	1	R1449T
1201.198	1.617	1216049	WORD	n/a	wordpools/wordpool_long_EN.txt	RAKE	3	10	[0, 0, 0]	n/a	FR1	1	R1449T
1202.815	0.966	1217664	WORD_OFF	n/a	n/a	RAKE	3	10	[0, 0, 0]	n/a	FR1	1	R1449T
1203.781	1.617	1218628	WORD	n/a	wordpools/wordpool_long_EN.txt	LEAF	4	10	[0, 0, 0]	n/a	FR1	1	R1449T
1205.398	0.883	1220243	WORD_OFF	n/a	n/a	LEAF	4	10	[0, 0, 0]	n/a	FR1	1	R1449T
1206.281	1.601	1221136	WORD	n/a	wordpools/wordpool_long_EN.txt	GREASE	5	10	[0, 0, 0]	n/a	FR1	1	R1449T
1207.882	0.783	1222723	WORD_OFF	n/a	n/a	GREASE	5	10	[0, 0, 0]	n/a	FR1	1	R1449T
1208.665	1.617	1223517	WORD	n/a	wordpools/wordpool_long_EN.txt	SPONGE	6	10	[0, 0, 0]	n/a	FR1	1	R1449T
1210.282	0.983	1225133	WORD_OFF	n/a	n/a	SPONGE	6	10	[0, 0, 0]	n/a	FR1	1	R1449T
1211.265	1.616	1226110	WORD	n/a	wordpools/wordpool_long_EN.txt	BRICK	7	10	[0, 0, 0]	n/a	FR1	1	R1449T
1212.881	0.867	1227726	WORD_OFF	n/a	n/a	BRICK	7	10	[0, 0, 0]	n/a	FR1	1	R1449T
1213.748	1.616	1228590	WORD	n/a	wordpools/wordpool_long_EN.txt	BUSH	8	10	[0, 0, 0]	n/a	FR1	1	R1449T
1215.364	0.951	1230206	WORD_OFF	n/a	n/a	BUSH	8	10	[0, 0, 0]	n/a	FR1	1	R1449T
1216.315	1.6	1231155	WORD	n/a	wordpools/wordpool_long_EN.txt	SEAL	9	10	[0, 0, 0]	n/a	FR1	1	R1449T
1217.915	0.932	1232757	WORD_OFF	n/a	n/a	SEAL	9	10	[0, 0, 0]	n/a	FR1	1	R1449T
1218.847	1.601	1233692	WORD	n/a	wordpools/wordpool_long_EN.txt	TOOL	10	10	[0, 0, 0]	n/a	FR1	1	R1449T
1220.448	0.933	1235293	WORD_OFF	n/a	n/a	TOOL	10	10	[0, 0, 0]	n/a	FR1	1	R1449T
1221.381	1.617	1236229	WORD	n/a	wordpools/wordpool_long_EN.txt	MEAT	11	10	[0, 0, 0]	n/a	FR1	1	R1449T
1222.998	0.834	1237844	WORD_OFF	n/a	n/a	MEAT	11	10	[0, 0, 0]	n/a	FR1	1	R1449T
1223.832	1.616	1238680	WORD	n/a	wordpools/wordpool_long_EN.txt	STEM	12	10	[0, 0, 0]	n/a	FR1	1	R1449T
1225.448	0.001	1240291	PROB	0.001	n/a	n/a	-999	10	[7, 4, 5]	16	FR1	1	R1449T
1225.449	0.0	1240292	START	n/a	n/a	n/a	-999	10	[-999, -999, -999]	n/a	FR1	1	R1449T
1225.448	0.001	1240296	WORD_OFF	n/a	n/a	STEM	12	10	[0, 0, 0]	n/a	FR1	1	R1449T
1225.449	0.0	1240296	ENCODING_END	n/a	n/a	n/a	-999	10	[0, 0, 0]	n/a	FR1	1	R1449T
1225.449	7.382	1240296	DISTRACT_START	n/a	n/a	n/a	-999	10	[0, 0, 0]	n/a	FR1	1	R1449T
1232.831	2.934	1247673	PROB	2.934	n/a	n/a	-999	10	[2, 6, 6]	14	FR1	1	R1449T
1235.765	2.617	1250607	PROB	2.617	n/a	n/a	-999	10	[6, 8, 1]	15	FR1	1	R1449T
1238.382	6.516	1253224	PROB	6.516	n/a	n/a	-999	10	[5, 6, 2]	13	FR1	1	R1449T
1244.898	3.467	1259740	PROB	3.467	n/a	n/a	-999	10	[3, 6, 6]	15	FR1	1	R1449T
1248.365	0.0	1263207	STOP	n/a	n/a	n/a	-999	10	[-999, -999, -999]	n/a	FR1	1	R1449T
1248.365	2.233	1263211	DISTRACT_END	n/a	n/a	n/a	-999	10	[0, 0, 0]	n/a	FR1	1	R1449T
1250.598	1.145	1265444	REC_START	n/a	n/a	n/a	-999	10	[0, 0, 0]	n/a	FR1	1	R1449T
1251.743	1.878	1266585	REC_WORD	1.878	n/a	MEAT	11	10	[0, 0, 0]	n/a	FR1	1	R1449T
1253.621	2.038	1268462	REC_WORD	2.038	n/a	STEM	12	10	[0, 0, 0]	n/a	FR1	1	R1449T
1255.659	2.334	1270500	REC_WORD	2.334	n/a	GREASE	5	10	[0, 0, 0]	n/a	FR1	1	R1449T
1257.993	4.339	1272834	REC_WORD	4.339	n/a	BIRD	2	10	[0, 0, 0]	n/a	FR1	1	R1449T
1262.332	2.78	1277173	REC_WORD	2.78	n/a	LEAVE	-999	10	[0, 0, 0]	n/a	FR1	1	R1449T
1265.112	15.723	1279953	REC_WORD	15.723	n/a	LEAF	4	10	[0, 0, 0]	n/a	FR1	1	R1449T
1280.835	1.93	1295678	REC_END	n/a	n/a	n/a	-999	10	[0, 0, 0]	n/a	FR1	1	R1449T
1282.765	10.349	1297605	COUNTDOWN_START	n/a	n/a	n/a	-999	11	[0, 0, 0]	n/a	FR1	1	R1449T
1293.114	0.0	1307964	COUNTDOWN_END	n/a	n/a	n/a	-999	11	[0, 0, 0]	n/a	FR1	1	R1449T
1293.114	2.25	1307964	ENCODING_START	n/a	n/a	n/a	-999	11	[0, 0, 0]	n/a	FR1	1	R1449T
1295.364	1.601	1310204	WORD	n/a	wordpools/wordpool_long_EN.txt	CHIN	1	11	[0, 0, 0]	n/a	FR1	1	R1449T
1296.965	0.8	1311805	WORD_OFF	n/a	n/a	CHIN	1	11	[0, 0, 0]	n/a	FR1	1	R1449T
1297.765	1.6	1312613	WORD	n/a	wordpools/wordpool_long_EN.txt	FUR	2	11	[0, 0, 0]	n/a	FR1	1	R1449T
1299.365	0.85	1314214	WORD_OFF	n/a	n/a	FUR	2	11	[0, 0, 0]	n/a	FR1	1	R1449T
1300.215	1.6	1315064	WORD	n/a	wordpools/wordpool_long_EN.txt	CANE	3	11	[0, 0, 0]	n/a	FR1	1	R1449T
1301.815	0.967	1316652	WORD_OFF	n/a	n/a	CANE	3	11	[0, 0, 0]	n/a	FR1	1	R1449T
1302.782	1.616	1317629	WORD	n/a	wordpools/wordpool_long_EN.txt	SHIELD	4	11	[0, 0, 0]	n/a	FR1	1	R1449T
1304.398	0.785	1319245	WORD_OFF	n/a	n/a	SHIELD	4	11	[0, 0, 0]	n/a	FR1	1	R1449T
1305.183	1.598	1320024	WORD	n/a	wordpools/wordpool_long_EN.txt	BOOT	5	11	[0, 0, 0]	n/a	FR1	1	R1449T
1306.781	0.934	1321626	WORD_OFF	n/a	n/a	BOOT	5	11	[0, 0, 0]	n/a	FR1	1	R1449T
1307.715	1.6	1322561	WORD	n/a	wordpools/wordpool_long_EN.txt	BATH	6	11	[0, 0, 0]	n/a	FR1	1	R1449T
1309.315	0.766	1324162	WORD_OFF	n/a	n/a	BATH	6	11	[0, 0, 0]	n/a	FR1	1	R1449T
1310.081	1.617	1324928	WORD	n/a	wordpools/wordpool_long_EN.txt	THRONE	7	11	[0, 0, 0]	n/a	FR1	1	R1449T
1311.698	0.849	1326543	WORD_OFF	n/a	n/a	THRONE	7	11	[0, 0, 0]	n/a	FR1	1	R1449T
1312.547	1.601	1327393	WORD	n/a	wordpools/wordpool_long_EN.txt	NEST	8	11	[0, 0, 0]	n/a	FR1	1	R1449T
1314.148	0.767	1328995	WORD_OFF	n/a	n/a	NEST	8	11	[0, 0, 0]	n/a	FR1	1	R1449T
1314.915	1.6	1329760	WORD	n/a	wordpools/wordpool_long_EN.txt	BEAN	9	11	[0, 0, 0]	n/a	FR1	1	R1449T
1316.515	0.933	1331361	WORD_OFF	n/a	n/a	BEAN	9	11	[0, 0, 0]	n/a	FR1	1	R1449T
1317.448	1.6	1332297	WORD	n/a	wordpools/wordpool_long_EN.txt	VINE	10	11	[0, 0, 0]	n/a	FR1	1	R1449T
1319.048	0.883	1333884	WORD_OFF	n/a	n/a	VINE	10	11	[0, 0, 0]	n/a	FR1	1	R1449T
1319.931	1.615	1334777	WORD	n/a	wordpools/wordpool_long_EN.txt	LINT	11	11	[0, 0, 0]	n/a	FR1	1	R1449T
1321.546	0.969	1336392	WORD_OFF	n/a	n/a	LINT	11	11	[0, 0, 0]	n/a	FR1	1	R1449T
1322.515	1.616	1337356	WORD	n/a	wordpools/wordpool_long_EN.txt	WOLF	12	11	[0, 0, 0]	n/a	FR1	1	R1449T
1324.131	0.002	1338969	PROB	0.002	n/a	n/a	-999	11	[7, 7, 1]	15	FR1	1	R1449T
1324.133	0.0	1338971	START	n/a	n/a	n/a	-999	11	[-999, -999, -999]	n/a	FR1	1	R1449T
1324.131	0.002	1338972	WORD_OFF	n/a	n/a	WOLF	12	11	[0, 0, 0]	n/a	FR1	1	R1449T
1324.133	0.0	1338972	ENCODING_END	n/a	n/a	n/a	-999	11	[0, 0, 0]	n/a	FR1	1	R1449T
1324.133	5.349	1338972	DISTRACT_START	n/a	n/a	n/a	-999	11	[0, 0, 0]	n/a	FR1	1	R1449T
1329.482	3.084	1344320	PROB	3.084	n/a	n/a	-999	11	[6, 4, 4]	14	FR1	1	R1449T
1332.566	4.832	1347403	PROB	4.832	n/a	n/a	-999	11	[8, 5, 1]	14	FR1	1	R1449T
1337.398	4.718	1352235	PROB	4.718	n/a	n/a	-999	11	[6, 1, 8]	15	FR1	1	R1449T
1342.116	3.665	1356953	PROB	3.665	n/a	n/a	-999	11	[2, 5, 3]	10	FR1	1	R1449T
1345.781	0.0	1360618	STOP	n/a	n/a	n/a	-999	11	[-999, -999, -999]	n/a	FR1	1	R1449T
1345.781	2.201	1360625	DISTRACT_END	n/a	n/a	n/a	-999	11	[0, 0, 0]	n/a	FR1	1	R1449T
1347.982	1.366	1362816	REC_START	n/a	n/a	n/a	-999	11	[0, 0, 0]	n/a	FR1	1	R1449T
1349.348	2.958	1364185	REC_WORD	2.958	n/a	LINT	11	11	[0, 0, 0]	n/a	FR1	1	R1449T
1352.306	25.907	1367142	REC_WORD	25.907	n/a	THRONE	7	11	[0, 0, 0]	n/a	FR1	1	R1449T
1378.213	3.001	1393050	REC_END	n/a	n/a	n/a	-999	11	[0, 0, 0]	n/a	FR1	1	R1449T
1381.214	10.35	1396054	COUNTDOWN_START	n/a	n/a	n/a	-999	12	[0, 0, 0]	n/a	FR1	1	R1449T
1391.564	0.0	1406399	COUNTDOWN_END	n/a	n/a	n/a	-999	12	[0, 0, 0]	n/a	FR1	1	R1449T
1391.564	2.2	1406399	ENCODING_START	n/a	n/a	n/a	-999	12	[0, 0, 0]	n/a	FR1	1	R1449T
1393.764	1.601	1408596	WORD	n/a	wordpools/wordpool_long_EN.txt	COD	1	12	[0, 0, 0]	n/a	FR1	1	R1449T
1395.365	0.915	1410197	WORD_OFF	n/a	n/a	COD	1	12	[0, 0, 0]	n/a	FR1	1	R1449T
1396.28	1.601	1411118	WORD	n/a	wordpools/wordpool_long_EN.txt	WRIST	2	12	[0, 0, 0]	n/a	FR1	1	R1449T
1397.881	0.934	1412720	WORD_OFF	n/a	n/a	WRIST	2	12	[0, 0, 0]	n/a	FR1	1	R1449T
1398.815	1.6	1413655	WORD	n/a	wordpools/wordpool_long_EN.txt	FAN	3	12	[0, 0, 0]	n/a	FR1	1	R1449T
1400.415	0.817	1415256	WORD_OFF	n/a	n/a	FAN	3	12	[0, 0, 0]	n/a	FR1	1	R1449T
1401.232	1.6	1416064	WORD	n/a	wordpools/wordpool_long_EN.txt	SLOPE	4	12	[0, 0, 0]	n/a	FR1	1	R1449T
1402.832	0.9	1417665	WORD_OFF	n/a	n/a	SLOPE	4	12	[0, 0, 0]	n/a	FR1	1	R1449T
1403.732	1.616	1418572	WORD	n/a	wordpools/wordpool_long_EN.txt	TIE	5	12	[0, 0, 0]	n/a	FR1	1	R1449T
1405.348	0.917	1420188	WORD_OFF	n/a	n/a	TIE	5	12	[0, 0, 0]	n/a	FR1	1	R1449T
1406.265	1.6	1421109	WORD	n/a	wordpools/wordpool_long_EN.txt	SCARF	6	12	[0, 0, 0]	n/a	FR1	1	R1449T
1407.865	0.883	1422696	WORD_OFF	n/a	n/a	SCARF	6	12	[0, 0, 0]	n/a	FR1	1	R1449T
1408.748	1.617	1423589	WORD	n/a	wordpools/wordpool_long_EN.txt	RUG	7	12	[0, 0, 0]	n/a	FR1	1	R1449T
1410.365	0.883	1425205	WORD_OFF	n/a	n/a	RUG	7	12	[0, 0, 0]	n/a	FR1	1	R1449T
1411.248	1.6	1426083	WORD	n/a	wordpools/wordpool_long_EN.txt	SKUNK	8	12	[0, 0, 0]	n/a	FR1	1	R1449T
1412.848	0.783	1427685	WORD_OFF	n/a	n/a	SKUNK	8	12	[0, 0, 0]	n/a	FR1	1	R1449T
1413.631	1.601	1428464	WORD	n/a	wordpools/wordpool_long_EN.txt	FOAM	9	12	[0, 0, 0]	n/a	FR1	1	R1449T
1415.232	0.799	1430065	WORD_OFF	n/a	n/a	FOAM	9	12	[0, 0, 0]	n/a	FR1	1	R1449T
1416.031	1.617	1430873	WORD	n/a	wordpools/wordpool_long_EN.txt	SLUG	10	12	[0, 0, 0]	n/a	FR1	1	R1449T
1417.648	0.783	1432489	WORD_OFF	n/a	n/a	SLUG	10	12	[0, 0, 0]	n/a	FR1	1	R1449T
1418.431	1.617	1433268	WORD	n/a	wordpools/wordpool_long_EN.txt	COOK	11	12	[0, 0, 0]	n/a	FR1	1	R1449T
1420.048	0.95	1434884	WORD_OFF	n/a	n/a	COOK	11	12	[0, 0, 0]	n/a	FR1	1	R1449T
1420.998	1.617	1435833	WORD	n/a	wordpools/wordpool_long_EN.txt	CROSS	12	12	[0, 0, 0]	n/a	FR1	1	R1449T
1422.615	0.0	1437448	PROB	0.0	n/a	n/a	-999	12	[4, 3, 7]	17	FR1	1	R1449T
1422.615	0.001	1437449	WORD_OFF	n/a	n/a	CROSS	12	12	[0, 0, 0]	n/a	FR1	1	R1449T
1422.616	0.0	1437449	ENCODING_END	n/a	n/a	n/a	-999	12	[0, 0, 0]	n/a	FR1	1	R1449T
1422.616	0.0	1437449	DISTRACT_START	n/a	n/a	n/a	-999	12	[0, 0, 0]	n/a	FR1	1	R1449T
1422.616	4.183	1437449	START	n/a	n/a	n/a	-999	12	[-999, -999, -999]	n/a	FR1	1	R1449T
1426.799	6.283	1441632	PROB	6.283	n/a	n/a	-999	12	[7, 6, 7]	20	FR1	1	R1449T
1433.082	3.583	1447914	PROB	3.583	n/a	n/a	-999	12	[1, 5, 7]	13	FR1	1	R1449T
1436.665	4.0	1451497	PROB	4.0	n/a	n/a	-999	12	[3, 4, 8]	15	FR1	1	R1449T
1440.665	3.699	1455497	PROB	3.699	n/a	n/a	-999	12	[8, 1, 7]	16	FR1	1	R1449T
1444.364	0.0	1459196	STOP	n/a	n/a	n/a	-999	12	[-999, -999, -999]	n/a	FR1	1	R1449T
1444.364	2.117	1459202	DISTRACT_END	n/a	n/a	n/a	-999	12	[0, 0, 0]	n/a	FR1	1	R1449T
1446.481	1.585	1461321	REC_START	n/a	n/a	n/a	-999	12	[0, 0, 0]	n/a	FR1	1	R1449T
1448.066	6.951	1462898	REC_WORD	6.951	n/a	SLUG	10	12	[0, 0, 0]	n/a	FR1	1	R1449T
1455.017	3.342	1469848	REC_WORD	3.342	n/a	WRIST	2	12	[0, 0, 0]	n/a	FR1	1	R1449T
1458.359	18.354	1473190	REC_WORD	18.354	n/a	SLOPE	4	12	[0, 0, 0]	n/a	FR1	1	R1449T
1476.713	0.0	1491541	REC_END	n/a	n/a	n/a	-999	12	[0, 0, 0]	n/a	FR1	1	R1449T
