onset	duration	sample	trial_type	response_time	stim_file	item_name	serialpos	list	test	answer	experiment	session	subject
0.0	32.305	202500	SESS_START	n/a	n/a	n/a	-999	-999	[0, 0, 0]	n/a	FR1	0	R1052E
32.305	10.428	218652	COUNTDOWN_START	n/a	n/a	n/a	-999	-999	[0, 0, 0]	n/a	FR1	0	R1052E
42.733	3.742	223865	COUNTDOWN_END	n/a	n/a	n/a	-999	-999	[0, 0, 0]	n/a	FR1	0	R1052E
46.475	2.533	225736	PRACTICE_WORD	n/a	n/a	COTTON	1	-1	[0, 0, 0]	n/a	FR1	0	R1052E
49.008	2.534	227002	PRACTICE_WORD	n/a	n/a	BEAM	2	-1	[0, 0, 0]	n/a	FR1	0	R1052E
51.542	2.451	228269	PRACTICE_WORD	n/a	n/a	RING	3	-1	[0, 0, 0]	n/a	FR1	0	R1052E
53.993	2.55	229495	PRACTICE_WORD	n/a	n/a	TONGUE	4	-1	[0, 0, 0]	n/a	FR1	0	R1052E
56.543	2.534	230770	PRACTICE_WORD	n/a	n/a	IRON	5	-1	[0, 0, 0]	n/a	FR1	0	R1052E
59.077	2.383	232037	PRACTICE_WORD	n/a	n/a	WAGON	6	-1	[0, 0, 0]	n/a	FR1	0	R1052E
61.46	2.551	233228	PRACTICE_WORD	n/a	n/a	RHINO	7	-1	[0, 0, 0]	n/a	FR1	0	R1052E
64.011	2.5	234503	PRACTICE_WORD	n/a	n/a	FLOOD	8	-1	[0, 0, 0]	n/a	FR1	0	R1052E
66.511	2.401	235753	PRACTICE_WORD	n/a	n/a	ATTIC	9	-1	[0, 0, 0]	n/a	FR1	0	R1052E
68.912	2.434	236954	PRACTICE_WORD	n/a	n/a	CAMEL	10	-1	[0, 0, 0]	n/a	FR1	0	R1052E
71.346	2.4	238171	PRACTICE_WORD	n/a	n/a	CHEST	11	-1	[0, 0, 0]	n/a	FR1	0	R1052E
73.746	1.617	239371	PRACTICE_WORD	n/a	n/a	WATCH	12	-1	[0, 0, 0]	n/a	FR1	0	R1052E
75.363	0.0	240179	PRACTICE_DISTRACT_START	n/a	n/a	n/a	-999	-1	[0, 0, 0]	n/a	FR1	0	R1052E
75.363	0.017	240179	START	n/a	n/a	n/a	-999	-1	[-999, -999, -999]	n/a	FR1	0	R1052E
75.38	8.651	240188	PROB	8.651	n/a	n/a	-999	-1	[3, 7, 2]	12	FR1	0	R1052E
84.031	17.505	244513	PROB	17.505	n/a	n/a	-999	-1	[6, 5, 3]	14	FR1	0	R1052E
101.536	0.015	253265	STOP	n/a	n/a	n/a	-999	-1	[-999, -999, -999]	n/a	FR1	0	R1052E
101.551	0.718	253272	PRACTICE_DISTRACT_END	n/a	n/a	n/a	-999	-1	[0, 0, 0]	n/a	FR1	0	R1052E
102.269	30.515	253631	PRACTICE_REC_START	n/a	n/a	n/a	-999	-1	[0, 0, 0]	n/a	FR1	0	R1052E
132.784	83.687	268888	PRACTICE_REC_END	n/a	n/a	n/a	-999	-1	[0, 0, 0]	n/a	FR1	0	R1052E
216.471	0.0	310728	COUNTDOWN_START	n/a	n/a	n/a	-999	1	[0, 0, 0]	n/a	FR1	0	R1052E
216.471	10.428	310728	TRIAL	n/a	n/a	n/a	-999	1	[0, 0, 0]	n/a	FR1	0	R1052E
226.899	0.007	315942	COUNTDOWN_END	n/a	n/a	n/a	-999	1	[0, 0, 0]	n/a	FR1	0	R1052E
226.906	2.518	315945	ORIENT	n/a	n/a	n/a	-999	1	[0, 0, 0]	n/a	FR1	0	R1052E
229.424	2.516	317204	WORD	n/a	wordpools/wordpool_EN.txt	COW	1	1	[0, 0, 0]	n/a	FR1	0	R1052E
231.94	2.401	318462	WORD	n/a	wordpools/wordpool_EN.txt	DOLL	2	1	[0, 0, 0]	n/a	FR1	0	R1052E
234.341	2.584	319663	WORD	n/a	wordpools/wordpool_EN.txt	HOOF	3	1	[0, 0, 0]	n/a	FR1	0	R1052E
236.925	2.583	320955	WORD	n/a	wordpools/wordpool_EN.txt	SOUP	4	1	[0, 0, 0]	n/a	FR1	0	R1052E
239.508	2.417	322246	WORD	n/a	wordpools/wordpool_EN.txt	STRAW	5	1	[0, 0, 0]	n/a	FR1	0	R1052E
241.925	2.601	323454	WORD	n/a	wordpools/wordpool_EN.txt	PASTE	6	1	[0, 0, 0]	n/a	FR1	0	R1052E
244.526	2.417	324755	WORD	n/a	wordpools/wordpool_EN.txt	OAK	7	1	[0, 0, 0]	n/a	FR1	0	R1052E
246.943	2.584	325963	WORD	n/a	wordpools/wordpool_EN.txt	CUP	8	1	[0, 0, 0]	n/a	FR1	0	R1052E
249.527	2.5	327255	WORD	n/a	wordpools/wordpool_EN.txt	TOAST	9	1	[0, 0, 0]	n/a	FR1	0	R1052E
252.027	2.402	328505	WORD	n/a	wordpools/wordpool_EN.txt	VINE	10	1	[0, 0, 0]	n/a	FR1	0	R1052E
254.429	2.482	329706	WORD	n/a	wordpools/wordpool_EN.txt	DOOR	11	1	[0, 0, 0]	n/a	FR1	0	R1052E
256.911	1.617	330947	WORD	n/a	wordpools/wordpool_EN.txt	PEAR	12	1	[0, 0, 0]	n/a	FR1	0	R1052E
258.528	0.001	331755	DISTRACT_START	n/a	n/a	n/a	-999	1	[0, 0, 0]	n/a	FR1	0	R1052E
258.529	0.016	331756	START	n/a	n/a	n/a	-999	1	[-999, -999, -999]	n/a	FR1	0	R1052E
258.545	10.902	331764	PROB	10.902	n/a	n/a	-999	1	[4, 7, 8]	19	FR1	0	R1052E
269.447	13.275	337215	PROB	13.275	n/a	n/a	-999	1	[4, 6, 7]	17	FR1	0	R1052E
282.722	0.011	343852	STOP	n/a	n/a	n/a	-999	1	[-999, -999, -999]	n/a	FR1	0	R1052E
282.733	1.156	343857	DISTRACT_END	n/a	n/a	n/a	-999	1	[0, 0, 0]	n/a	FR1	0	R1052E
283.889	0.898	344435	REC_START	n/a	n/a	n/a	-999	1	[0, 0, 0]	n/a	FR1	0	R1052E
284.787	1.218	344884	REC_WORD	1.218	n/a	COW	-999	1	[0, 0, 0]	n/a	FR1	0	R1052E
286.005	1.007	345493	REC_WORD	1.007	n/a	DOLL	-999	1	[0, 0, 0]	n/a	FR1	0	R1052E
287.012	1.701	345996	REC_WORD	1.701	n/a	HOOF	-999	1	[0, 0, 0]	n/a	FR1	0	R1052E
288.713	16.358	346847	REC_WORD	16.358	n/a	OAK	-999	1	[0, 0, 0]	n/a	FR1	0	R1052E
305.071	2.956	355025	REC_WORD	2.956	n/a	BOOK	-999	1	[0, 0, 0]	n/a	FR1	0	R1052E
308.027	5.865	356503	REC_WORD_VV	5.865	n/a	<>	-999	1	[0, 0, 0]	n/a	FR1	0	R1052E
313.892	9.847	359436	REC_END	n/a	n/a	n/a	-999	1	[0, 0, 0]	n/a	FR1	0	R1052E
323.739	0.001	364359	COUNTDOWN_START	n/a	n/a	n/a	-999	2	[0, 0, 0]	n/a	FR1	0	R1052E
323.74	10.427	364359	TRIAL	n/a	n/a	n/a	-999	2	[0, 0, 0]	n/a	FR1	0	R1052E
334.167	0.008	369572	COUNTDOWN_END	n/a	n/a	n/a	-999	2	[0, 0, 0]	n/a	FR1	0	R1052E
334.175	2.5	369576	ORIENT	n/a	n/a	n/a	-999	2	[0, 0, 0]	n/a	FR1	0	R1052E
336.675	2.384	370826	WORD	n/a	wordpools/wordpool_EN.txt	SUIT	1	2	[0, 0, 0]	n/a	FR1	0	R1052E
339.059	2.467	372018	WORD	n/a	wordpools/wordpool_EN.txt	EAR	2	2	[0, 0, 0]	n/a	FR1	0	R1052E
341.526	2.517	373252	WORD	n/a	wordpools/wordpool_EN.txt	SWORD	3	2	[0, 0, 0]	n/a	FR1	0	R1052E
344.043	2.451	374510	WORD	n/a	wordpools/wordpool_EN.txt	CLOCK	4	2	[0, 0, 0]	n/a	FR1	0	R1052E
346.494	2.5	375735	WORD	n/a	wordpools/wordpool_EN.txt	PHONE	5	2	[0, 0, 0]	n/a	FR1	0	R1052E
348.994	2.534	376985	WORD	n/a	wordpools/wordpool_EN.txt	GATE	6	2	[0, 0, 0]	n/a	FR1	0	R1052E
351.528	2.617	378252	WORD	n/a	wordpools/wordpool_EN.txt	BOOK	7	2	[0, 0, 0]	n/a	FR1	0	R1052E
354.145	2.484	379561	WORD	n/a	wordpools/wordpool_EN.txt	MOUTH	8	2	[0, 0, 0]	n/a	FR1	0	R1052E
356.629	2.617	380803	WORD	n/a	wordpools/wordpool_EN.txt	BOY	9	2	[0, 0, 0]	n/a	FR1	0	R1052E
359.246	2.534	382111	WORD	n/a	wordpools/wordpool_EN.txt	HOUSE	10	2	[0, 0, 0]	n/a	FR1	0	R1052E
361.78	2.467	383378	WORD	n/a	wordpools/wordpool_EN.txt	BLUSH	11	2	[0, 0, 0]	n/a	FR1	0	R1052E
364.247	1.617	384611	WORD	n/a	wordpools/wordpool_EN.txt	VAN	12	2	[0, 0, 0]	n/a	FR1	0	R1052E
365.864	0.0	385420	DISTRACT_START	n/a	n/a	n/a	-999	2	[0, 0, 0]	n/a	FR1	0	R1052E
365.864	0.016	385420	START	n/a	n/a	n/a	-999	2	[-999, -999, -999]	n/a	FR1	0	R1052E
365.88	8.368	385428	PROB	8.368	n/a	n/a	-999	2	[5, 5, 4]	14	FR1	0	R1052E
374.248	12.003	389611	PROB	12.003	n/a	n/a	-999	2	[9, 4, 1]	14	FR1	0	R1052E
386.251	0.016	395613	STOP	n/a	n/a	n/a	-999	2	[-999, -999, -999]	n/a	FR1	0	R1052E
386.267	1.218	395621	DISTRACT_END	n/a	n/a	n/a	-999	2	[0, 0, 0]	n/a	FR1	0	R1052E
387.485	0.858	396230	REC_START	n/a	n/a	n/a	-999	2	[0, 0, 0]	n/a	FR1	0	R1052E
388.343	1.415	396659	REC_WORD	1.415	n/a	HOUSE	-999	2	[0, 0, 0]	n/a	FR1	0	R1052E
389.758	0.811	397366	REC_WORD	0.811	n/a	BOY	-999	2	[0, 0, 0]	n/a	FR1	0	R1052E
390.569	0.814	397771	REC_WORD	0.814	n/a	SUIT	-999	2	[0, 0, 0]	n/a	FR1	0	R1052E
391.383	5.735	398178	REC_WORD	5.735	n/a	SWORD	-999	2	[0, 0, 0]	n/a	FR1	0	R1052E
397.118	4.726	401046	REC_WORD	4.726	n/a	MOUTH	-999	2	[0, 0, 0]	n/a	FR1	0	R1052E
401.844	15.649	403409	REC_WORD	15.649	n/a	EAR	-999	2	[0, 0, 0]	n/a	FR1	0	R1052E
417.493	3.38	411233	REC_END	n/a	n/a	n/a	-999	2	[0, 0, 0]	n/a	FR1	0	R1052E
420.873	0.001	412922	COUNTDOWN_START	n/a	n/a	n/a	-999	3	[0, 0, 0]	n/a	FR1	0	R1052E
420.874	10.427	412923	TRIAL	n/a	n/a	n/a	-999	3	[0, 0, 0]	n/a	FR1	0	R1052E
431.301	0.008	418136	COUNTDOWN_END	n/a	n/a	n/a	-999	3	[0, 0, 0]	n/a	FR1	0	R1052E
431.309	2.567	418140	ORIENT	n/a	n/a	n/a	-999	3	[0, 0, 0]	n/a	FR1	0	R1052E
433.876	2.517	419423	WORD	n/a	wordpools/wordpool_EN.txt	BEAR	1	3	[0, 0, 0]	n/a	FR1	0	R1052E
436.393	2.583	420682	WORD	n/a	wordpools/wordpool_EN.txt	ZOO	2	3	[0, 0, 0]	n/a	FR1	0	R1052E
438.976	2.418	421973	WORD	n/a	wordpools/wordpool_EN.txt	PIN	3	3	[0, 0, 0]	n/a	FR1	0	R1052E
441.394	2.55	423182	WORD	n/a	wordpools/wordpool_EN.txt	WORM	4	3	[0, 0, 0]	n/a	FR1	0	R1052E
443.944	2.485	424457	WORD	n/a	wordpools/wordpool_EN.txt	BED	5	3	[0, 0, 0]	n/a	FR1	0	R1052E
446.429	2.616	425700	WORD	n/a	wordpools/wordpool_EN.txt	BIRD	6	3	[0, 0, 0]	n/a	FR1	0	R1052E
449.045	2.584	427007	WORD	n/a	wordpools/wordpool_EN.txt	SLIME	7	3	[0, 0, 0]	n/a	FR1	0	R1052E
451.629	2.383	428299	WORD	n/a	wordpools/wordpool_EN.txt	BRANCH	8	3	[0, 0, 0]	n/a	FR1	0	R1052E
454.012	2.618	429491	WORD	n/a	wordpools/wordpool_EN.txt	BALL	9	3	[0, 0, 0]	n/a	FR1	0	R1052E
456.63	2.617	430800	WORD	n/a	wordpools/wordpool_EN.txt	BAT	10	3	[0, 0, 0]	n/a	FR1	0	R1052E
459.247	2.533	432108	WORD	n/a	wordpools/wordpool_EN.txt	WOLF	11	3	[0, 0, 0]	n/a	FR1	0	R1052E
461.78	1.617	433375	WORD	n/a	wordpools/wordpool_EN.txt	FUR	12	3	[0, 0, 0]	n/a	FR1	0	R1052E
463.397	0.001	434183	DISTRACT_START	n/a	n/a	n/a	-999	3	[0, 0, 0]	n/a	FR1	0	R1052E
463.398	0.016	434183	START	n/a	n/a	n/a	-999	3	[-999, -999, -999]	n/a	FR1	0	R1052E
463.414	6.868	434191	PROB	6.868	n/a	n/a	-999	3	[3, 6, 4]	13	FR1	0	R1052E
470.282	6.401	437625	PROB	6.401	n/a	n/a	-999	3	[5, 1, 6]	12	FR1	0	R1052E
476.683	12.855	440826	PROB	12.855	n/a	n/a	-999	3	[7, 7, 9]	24	FR1	0	R1052E
489.538	0.014	447253	STOP	n/a	n/a	n/a	-999	3	[-999, -999, -999]	n/a	FR1	0	R1052E
489.552	1.084	447260	DISTRACT_END	n/a	n/a	n/a	-999	3	[0, 0, 0]	n/a	FR1	0	R1052E
490.636	2.43	447802	REC_START	n/a	n/a	n/a	-999	3	[0, 0, 0]	n/a	FR1	0	R1052E
493.066	1.02	449016	REC_WORD	1.02	n/a	BED	-999	3	[0, 0, 0]	n/a	FR1	0	R1052E
494.086	2.03	449526	REC_WORD	2.03	n/a	BEAR	-999	3	[0, 0, 0]	n/a	FR1	0	R1052E
496.116	5.427	450541	REC_WORD	5.427	n/a	ZOO	-999	3	[0, 0, 0]	n/a	FR1	0	R1052E
501.543	11.289	453255	REC_WORD	11.289	n/a	BIRD	-999	3	[0, 0, 0]	n/a	FR1	0	R1052E
512.832	7.812	458899	REC_WORD	7.812	n/a	HOUSE	-999	3	[0, 0, 0]	n/a	FR1	0	R1052E
520.644	23.034	462805	REC_END	n/a	n/a	n/a	-999	3	[0, 0, 0]	n/a	FR1	0	R1052E
543.678	0.0	474321	TRIAL	n/a	n/a	n/a	-999	4	[0, 0, 0]	n/a	FR1	0	R1052E
543.678	10.428	474321	COUNTDOWN_START	n/a	n/a	n/a	-999	4	[0, 0, 0]	n/a	FR1	0	R1052E
554.106	0.007	479534	COUNTDOWN_END	n/a	n/a	n/a	-999	4	[0, 0, 0]	n/a	FR1	0	R1052E
554.113	2.634	479538	ORIENT	n/a	n/a	n/a	-999	4	[0, 0, 0]	n/a	FR1	0	R1052E
556.747	2.484	480855	WORD	n/a	wordpools/wordpool_EN.txt	STAR	1	4	[0, 0, 0]	n/a	FR1	0	R1052E
559.231	2.384	482097	WORD	n/a	wordpools/wordpool_EN.txt	SCHOOL	2	4	[0, 0, 0]	n/a	FR1	0	R1052E
561.615	2.45	483289	WORD	n/a	wordpools/wordpool_EN.txt	FLAG	3	4	[0, 0, 0]	n/a	FR1	0	R1052E
564.065	2.484	484514	WORD	n/a	wordpools/wordpool_EN.txt	VEST	4	4	[0, 0, 0]	n/a	FR1	0	R1052E
566.549	2.584	485756	WORD	n/a	wordpools/wordpool_EN.txt	BRIDGE	5	4	[0, 0, 0]	n/a	FR1	0	R1052E
569.133	2.5	487047	WORD	n/a	wordpools/wordpool_EN.txt	CLIFF	6	4	[0, 0, 0]	n/a	FR1	0	R1052E
571.633	2.434	488297	WORD	n/a	wordpools/wordpool_EN.txt	FACE	7	4	[0, 0, 0]	n/a	FR1	0	R1052E
574.067	2.383	489514	WORD	n/a	wordpools/wordpool_EN.txt	FORT	8	4	[0, 0, 0]	n/a	FR1	0	R1052E
576.45	2.468	490706	WORD	n/a	wordpools/wordpool_EN.txt	LAND	9	4	[0, 0, 0]	n/a	FR1	0	R1052E
578.918	2.567	491940	WORD	n/a	wordpools/wordpool_EN.txt	CHIEF	10	4	[0, 0, 0]	n/a	FR1	0	R1052E
581.485	2.567	493223	WORD	n/a	wordpools/wordpool_EN.txt	PEA	11	4	[0, 0, 0]	n/a	FR1	0	R1052E
584.052	1.617	494506	WORD	n/a	wordpools/wordpool_EN.txt	ROAD	12	4	[0, 0, 0]	n/a	FR1	0	R1052E
585.669	0.001	495315	DISTRACT_START	n/a	n/a	n/a	-999	4	[0, 0, 0]	n/a	FR1	0	R1052E
585.67	0.015	495315	START	n/a	n/a	n/a	-999	4	[-999, -999, -999]	n/a	FR1	0	R1052E
585.685	4.951	495323	PROB	4.951	n/a	n/a	-999	4	[4, 1, 1]	6	FR1	0	R1052E
590.636	11.002	497798	PROB	11.002	n/a	n/a	-999	4	[5, 2, 6]	13	FR1	0	R1052E
601.638	19.249	503299	PROB	19.249	n/a	n/a	-999	4	[5, 9, 9]	23	FR1	0	R1052E
620.887	0.004	512923	STOP	n/a	n/a	n/a	-999	4	[-999, -999, -999]	n/a	FR1	0	R1052E
620.891	1.135	512925	DISTRACT_END	n/a	n/a	n/a	-999	4	[0, 0, 0]	n/a	FR1	0	R1052E
622.026	0.709	513492	REC_START	n/a	n/a	n/a	-999	4	[0, 0, 0]	n/a	FR1	0	R1052E
622.735	1.172	513847	REC_WORD	1.172	n/a	STAR	-999	4	[0, 0, 0]	n/a	FR1	0	R1052E
623.907	1.126	514433	REC_WORD	1.126	n/a	FLAG	-999	4	[0, 0, 0]	n/a	FR1	0	R1052E
625.033	3.361	514996	REC_WORD	3.361	n/a	SCHOOL	-999	4	[0, 0, 0]	n/a	FR1	0	R1052E
628.394	10.717	516676	REC_WORD_VV	10.717	n/a	<>	-999	4	[0, 0, 0]	n/a	FR1	0	R1052E
639.111	12.923	522034	REC_WORD	12.923	n/a	BED	-999	4	[0, 0, 0]	n/a	FR1	0	R1052E
652.034	3.614	528495	REC_END	n/a	n/a	n/a	-999	4	[0, 0, 0]	n/a	FR1	0	R1052E
655.648	0.0	530302	TRIAL	n/a	n/a	n/a	-999	5	[0, 0, 0]	n/a	FR1	0	R1052E
655.648	10.428	530302	COUNTDOWN_START	n/a	n/a	n/a	-999	5	[0, 0, 0]	n/a	FR1	0	R1052E
666.076	0.007	535516	COUNTDOWN_END	n/a	n/a	n/a	-999	5	[0, 0, 0]	n/a	FR1	0	R1052E
666.083	2.6	535519	ORIENT	n/a	n/a	n/a	-999	5	[0, 0, 0]	n/a	FR1	0	R1052E
668.683	2.517	536819	WORD	n/a	wordpools/wordpool_EN.txt	AXE	1	5	[0, 0, 0]	n/a	FR1	0	R1052E
671.2	2.451	538077	WORD	n/a	wordpools/wordpool_EN.txt	ICE	2	5	[0, 0, 0]	n/a	FR1	0	R1052E
673.651	2.55	539303	WORD	n/a	wordpools/wordpool_EN.txt	PLATE	3	5	[0, 0, 0]	n/a	FR1	0	R1052E
676.201	2.551	540578	WORD	n/a	wordpools/wordpool_EN.txt	SHEET	4	5	[0, 0, 0]	n/a	FR1	0	R1052E
678.752	2.533	541853	WORD	n/a	wordpools/wordpool_EN.txt	JAIL	5	5	[0, 0, 0]	n/a	FR1	0	R1052E
681.285	2.418	543120	WORD	n/a	wordpools/wordpool_EN.txt	FILM	6	5	[0, 0, 0]	n/a	FR1	0	R1052E
683.703	2.5	544329	WORD	n/a	wordpools/wordpool_EN.txt	MOOSE	7	5	[0, 0, 0]	n/a	FR1	0	R1052E
686.203	2.4	545578	WORD	n/a	wordpools/wordpool_EN.txt	ROOT	8	5	[0, 0, 0]	n/a	FR1	0	R1052E
688.603	2.568	546778	WORD	n/a	wordpools/wordpool_EN.txt	CROWN	9	5	[0, 0, 0]	n/a	FR1	0	R1052E
691.171	2.6	548062	WORD	n/a	wordpools/wordpool_EN.txt	NAIL	10	5	[0, 0, 0]	n/a	FR1	0	R1052E
693.771	2.517	549362	WORD	n/a	wordpools/wordpool_EN.txt	TOOL	11	5	[0, 0, 0]	n/a	FR1	0	R1052E
696.288	1.617	550621	WORD	n/a	wordpools/wordpool_EN.txt	SEED	12	5	[0, 0, 0]	n/a	FR1	0	R1052E
697.905	0.001	551429	DISTRACT_START	n/a	n/a	n/a	-999	5	[0, 0, 0]	n/a	FR1	0	R1052E
697.906	0.016	551430	START	n/a	n/a	n/a	-999	5	[-999, -999, -999]	n/a	FR1	0	R1052E
697.922	7.884	551438	PROB	7.884	n/a	n/a	-999	5	[5, 8, 1]	14	FR1	0	R1052E
705.806	8.118	555379	PROB	8.118	n/a	n/a	-999	5	[2, 7, 8]	17	FR1	0	R1052E
713.924	11.162	559438	PROB	11.162	n/a	n/a	-999	5	[5, 6, 1]	12	FR1	0	R1052E
725.086	0.007	565019	STOP	n/a	n/a	n/a	-999	5	[-999, -999, -999]	n/a	FR1	0	R1052E
725.093	1.051	565022	DISTRACT_END	n/a	n/a	n/a	-999	5	[0, 0, 0]	n/a	FR1	0	R1052E
726.144	0.923	565548	REC_START	n/a	n/a	n/a	-999	5	[0, 0, 0]	n/a	FR1	0	R1052E
727.067	1.283	566009	REC_WORD	1.283	n/a	ICE	-999	5	[0, 0, 0]	n/a	FR1	0	R1052E
728.35	11.394	566651	REC_WORD	11.394	n/a	AXE	-999	5	[0, 0, 0]	n/a	FR1	0	R1052E
739.744	16.408	572347	REC_WORD	16.408	n/a	PLATE	-999	5	[0, 0, 0]	n/a	FR1	0	R1052E
756.152	2.68	580551	REC_END	n/a	n/a	n/a	-999	5	[0, 0, 0]	n/a	FR1	0	R1052E
758.832	0.0	581891	TRIAL	n/a	n/a	n/a	-999	6	[0, 0, 0]	n/a	FR1	0	R1052E
758.832	10.428	581891	COUNTDOWN_START	n/a	n/a	n/a	-999	6	[0, 0, 0]	n/a	FR1	0	R1052E
769.26	0.007	587104	COUNTDOWN_END	n/a	n/a	n/a	-999	6	[0, 0, 0]	n/a	FR1	0	R1052E
769.267	2.568	587108	ORIENT	n/a	n/a	n/a	-999	6	[0, 0, 0]	n/a	FR1	0	R1052E
771.835	2.467	588392	WORD	n/a	wordpools/wordpool_EN.txt	EGG	1	6	[0, 0, 0]	n/a	FR1	0	R1052E
774.302	2.417	589625	WORD	n/a	wordpools/wordpool_EN.txt	FORK	2	6	[0, 0, 0]	n/a	FR1	0	R1052E
776.719	2.6	590833	WORD	n/a	wordpools/wordpool_EN.txt	SLUSH	3	6	[0, 0, 0]	n/a	FR1	0	R1052E
779.319	2.501	592133	WORD	n/a	wordpools/wordpool_EN.txt	SEAT	4	6	[0, 0, 0]	n/a	FR1	0	R1052E
781.82	2.484	593384	WORD	n/a	wordpools/wordpool_EN.txt	PARK	5	6	[0, 0, 0]	n/a	FR1	0	R1052E
784.304	2.45	594626	WORD	n/a	wordpools/wordpool_EN.txt	CAR	6	6	[0, 0, 0]	n/a	FR1	0	R1052E
786.754	2.567	595851	WORD	n/a	wordpools/wordpool_EN.txt	DITCH	7	6	[0, 0, 0]	n/a	FR1	0	R1052E
789.321	2.467	597134	WORD	n/a	wordpools/wordpool_EN.txt	GLOVE	8	6	[0, 0, 0]	n/a	FR1	0	R1052E
791.788	2.384	598367	WORD	n/a	wordpools/wordpool_EN.txt	PANTS	9	6	[0, 0, 0]	n/a	FR1	0	R1052E
794.172	2.617	599559	WORD	n/a	wordpools/wordpool_EN.txt	SQUARE	10	6	[0, 0, 0]	n/a	FR1	0	R1052E
796.789	2.417	600868	WORD	n/a	wordpools/wordpool_EN.txt	LEG	11	6	[0, 0, 0]	n/a	FR1	0	R1052E
799.206	1.617	602076	WORD	n/a	wordpools/wordpool_EN.txt	TRAIN	12	6	[0, 0, 0]	n/a	FR1	0	R1052E
800.823	0.001	602885	DISTRACT_START	n/a	n/a	n/a	-999	6	[0, 0, 0]	n/a	FR1	0	R1052E
800.824	0.016	602885	START	n/a	n/a	n/a	-999	6	[-999, -999, -999]	n/a	FR1	0	R1052E
800.84	4.967	602893	PROB	4.967	n/a	n/a	-999	6	[1, 2, 9]	12	FR1	0	R1052E
805.807	10.769	605376	PROB	10.769	n/a	n/a	-999	6	[6, 4, 6]	16	FR1	0	R1052E
816.576	14.12	610761	PROB	14.12	n/a	n/a	-999	6	[5, 8, 4]	17	FR1	0	R1052E
830.696	0.016	617820	STOP	n/a	n/a	n/a	-999	6	[-999, -999, -999]	n/a	FR1	0	R1052E
830.712	1.05	617828	DISTRACT_END	n/a	n/a	n/a	-999	6	[0, 0, 0]	n/a	FR1	0	R1052E
831.762	1.009	618353	REC_START	n/a	n/a	n/a	-999	6	[0, 0, 0]	n/a	FR1	0	R1052E
832.771	0.97	618858	REC_WORD	0.97	n/a	DITCH	-999	6	[0, 0, 0]	n/a	FR1	0	R1052E
833.741	3.151	619342	REC_WORD	3.151	n/a	EGG	-999	6	[0, 0, 0]	n/a	FR1	0	R1052E
836.892	4.305	620918	REC_WORD_VV	4.305	n/a	<>	-999	6	[0, 0, 0]	n/a	FR1	0	R1052E
841.197	2.954	623070	REC_WORD	2.954	n/a	PLATE	-999	6	[0, 0, 0]	n/a	FR1	0	R1052E
844.151	2.91	624547	REC_WORD	2.91	n/a	PANTS	-999	6	[0, 0, 0]	n/a	FR1	0	R1052E
847.061	14.714	626002	REC_WORD	14.714	n/a	GLOVE	-999	6	[0, 0, 0]	n/a	FR1	0	R1052E
861.775	2.66	633359	REC_END	n/a	n/a	n/a	-999	6	[0, 0, 0]	n/a	FR1	0	R1052E
864.435	0.0	634688	COUNTDOWN_START	n/a	n/a	n/a	-999	7	[0, 0, 0]	n/a	FR1	0	R1052E
864.435	10.428	634688	TRIAL	n/a	n/a	n/a	-999	7	[0, 0, 0]	n/a	FR1	0	R1052E
874.863	0.006	639902	COUNTDOWN_END	n/a	n/a	n/a	-999	7	[0, 0, 0]	n/a	FR1	0	R1052E
874.869	2.434	639905	ORIENT	n/a	n/a	n/a	-999	7	[0, 0, 0]	n/a	FR1	0	R1052E
877.303	2.584	641122	WORD	n/a	wordpools/wordpool_EN.txt	BEE	1	7	[0, 0, 0]	n/a	FR1	0	R1052E
879.887	2.551	642414	WORD	n/a	wordpools/wordpool_EN.txt	STORE	2	7	[0, 0, 0]	n/a	FR1	0	R1052E
882.438	2.45	643689	WORD	n/a	wordpools/wordpool_EN.txt	TRASH	3	7	[0, 0, 0]	n/a	FR1	0	R1052E
884.888	2.567	644914	WORD	n/a	wordpools/wordpool_EN.txt	APE	4	7	[0, 0, 0]	n/a	FR1	0	R1052E
887.455	2.384	646198	WORD	n/a	wordpools/wordpool_EN.txt	SMOKE	5	7	[0, 0, 0]	n/a	FR1	0	R1052E
889.839	2.4	647390	WORD	n/a	wordpools/wordpool_EN.txt	MOUSE	6	7	[0, 0, 0]	n/a	FR1	0	R1052E
892.239	2.484	648590	WORD	n/a	wordpools/wordpool_EN.txt	BANK	7	7	[0, 0, 0]	n/a	FR1	0	R1052E
894.723	2.467	649831	WORD	n/a	wordpools/wordpool_EN.txt	NET	8	7	[0, 0, 0]	n/a	FR1	0	R1052E
897.19	2.417	651065	WORD	n/a	wordpools/wordpool_EN.txt	MILK	9	7	[0, 0, 0]	n/a	FR1	0	R1052E
899.607	2.517	652273	WORD	n/a	wordpools/wordpool_EN.txt	CAT	10	7	[0, 0, 0]	n/a	FR1	0	R1052E
902.124	2.601	653532	WORD	n/a	wordpools/wordpool_EN.txt	CASH	11	7	[0, 0, 0]	n/a	FR1	0	R1052E
904.725	1.616	654832	WORD	n/a	wordpools/wordpool_EN.txt	HEART	12	7	[0, 0, 0]	n/a	FR1	0	R1052E
906.341	0.001	655640	DISTRACT_START	n/a	n/a	n/a	-999	7	[0, 0, 0]	n/a	FR1	0	R1052E
906.342	0.016	655641	START	n/a	n/a	n/a	-999	7	[-999, -999, -999]	n/a	FR1	0	R1052E
906.358	11.685	655649	PROB	11.685	n/a	n/a	-999	7	[2, 7, 6]	15	FR1	0	R1052E
918.043	9.354	661491	PROB	9.354	n/a	n/a	-999	7	[9, 2, 6]	15	FR1	0	R1052E
927.397	0.015	666167	STOP	n/a	n/a	n/a	-999	7	[-999, -999, -999]	n/a	FR1	0	R1052E
927.412	1.117	666175	DISTRACT_END	n/a	n/a	n/a	-999	7	[0, 0, 0]	n/a	FR1	0	R1052E
928.529	2.012	666733	REC_START	n/a	n/a	n/a	-999	7	[0, 0, 0]	n/a	FR1	0	R1052E
930.541	2.971	667739	REC_WORD	2.971	n/a	SMOKE	-999	7	[0, 0, 0]	n/a	FR1	0	R1052E
933.512	1.0	669225	REC_WORD	1.0	n/a	SMASH	-999	7	[0, 0, 0]	n/a	FR1	0	R1052E
934.512	3.865	669725	REC_WORD_VV	3.865	n/a	<>	-999	7	[0, 0, 0]	n/a	FR1	0	R1052E
938.377	10.99	671657	REC_WORD_VV	10.99	n/a	<>	-999	7	[0, 0, 0]	n/a	FR1	0	R1052E
949.367	9.175	677152	REC_WORD	9.175	n/a	TRASH	-999	7	[0, 0, 0]	n/a	FR1	0	R1052E
958.542	11.827	681739	REC_END	n/a	n/a	n/a	-999	7	[0, 0, 0]	n/a	FR1	0	R1052E
970.369	0.001	687652	COUNTDOWN_START	n/a	n/a	n/a	-999	8	[0, 0, 0]	n/a	FR1	0	R1052E
970.37	10.427	687652	TRIAL	n/a	n/a	n/a	-999	8	[0, 0, 0]	n/a	FR1	0	R1052E
980.797	0.008	692866	COUNTDOWN_END	n/a	n/a	n/a	-999	8	[0, 0, 0]	n/a	FR1	0	R1052E
980.805	2.618	692870	ORIENT	n/a	n/a	n/a	-999	8	[0, 0, 0]	n/a	FR1	0	R1052E
983.423	2.466	694178	WORD	n/a	wordpools/wordpool_EN.txt	TOAD	1	8	[0, 0, 0]	n/a	FR1	0	R1052E
985.889	2.383	695411	WORD	n/a	wordpools/wordpool_EN.txt	MUD	2	8	[0, 0, 0]	n/a	FR1	0	R1052E
988.272	2.501	696603	WORD	n/a	wordpools/wordpool_EN.txt	PLANT	3	8	[0, 0, 0]	n/a	FR1	0	R1052E
990.773	2.517	697853	WORD	n/a	wordpools/wordpool_EN.txt	FUDGE	4	8	[0, 0, 0]	n/a	FR1	0	R1052E
993.29	2.584	699112	WORD	n/a	wordpools/wordpool_EN.txt	TANK	5	8	[0, 0, 0]	n/a	FR1	0	R1052E
995.874	2.584	700404	WORD	n/a	wordpools/wordpool_EN.txt	BOARD	6	8	[0, 0, 0]	n/a	FR1	0	R1052E
998.458	2.616	701695	WORD	n/a	wordpools/wordpool_EN.txt	SAIL	7	8	[0, 0, 0]	n/a	FR1	0	R1052E
1001.074	2.468	703003	WORD	n/a	wordpools/wordpool_EN.txt	SPONGE	8	8	[0, 0, 0]	n/a	FR1	0	R1052E
1003.542	2.517	704237	WORD	n/a	wordpools/wordpool_EN.txt	JET	9	8	[0, 0, 0]	n/a	FR1	0	R1052E
1006.059	2.517	705496	WORD	n/a	wordpools/wordpool_EN.txt	SPARK	10	8	[0, 0, 0]	n/a	FR1	0	R1052E
1008.576	2.5	706754	WORD	n/a	wordpools/wordpool_EN.txt	SEA	11	8	[0, 0, 0]	n/a	FR1	0	R1052E
1011.076	1.617	708004	WORD	n/a	wordpools/wordpool_EN.txt	STEAM	12	8	[0, 0, 0]	n/a	FR1	0	R1052E
1012.693	0.001	708812	DISTRACT_START	n/a	n/a	n/a	-999	8	[0, 0, 0]	n/a	FR1	0	R1052E
1012.694	0.016	708813	START	n/a	n/a	n/a	-999	8	[-999, -999, -999]	n/a	FR1	0	R1052E
1012.71	9.885	708821	PROB	9.885	n/a	n/a	-999	8	[4, 8, 1]	13	FR1	0	R1052E
1022.595	6.768	713763	PROB	6.768	n/a	n/a	-999	8	[8, 2, 3]	13	FR1	0	R1052E
1029.363	6.507	717147	PROB	6.507	n/a	n/a	-999	8	[5, 4, 1]	10	FR1	0	R1052E
1035.87	0.011	720400	STOP	n/a	n/a	n/a	-999	8	[-999, -999, -999]	n/a	FR1	0	R1052E
1035.881	1.151	720406	DISTRACT_END	n/a	n/a	n/a	-999	8	[0, 0, 0]	n/a	FR1	0	R1052E
1037.032	0.55	720981	REC_START	n/a	n/a	n/a	-999	8	[0, 0, 0]	n/a	FR1	0	R1052E
1037.582	1.462	721256	REC_WORD	1.462	n/a	SAIL	-999	8	[0, 0, 0]	n/a	FR1	0	R1052E
1039.044	2.938	721987	REC_WORD	2.938	n/a	SPARK	-999	8	[0, 0, 0]	n/a	FR1	0	R1052E
1041.982	3.743	723456	REC_WORD	3.743	n/a	SEA	-999	8	[0, 0, 0]	n/a	FR1	0	R1052E
1045.725	4.35	725327	REC_WORD	4.35	n/a	STREAM	-999	8	[0, 0, 0]	n/a	FR1	0	R1052E
1050.075	16.968	727502	REC_WORD_VV	16.968	n/a	<>	-999	8	[0, 0, 0]	n/a	FR1	0	R1052E
1067.043	2.427	735986	REC_END	n/a	n/a	n/a	-999	8	[0, 0, 0]	n/a	FR1	0	R1052E
1069.47	0.0	737199	COUNTDOWN_START	n/a	n/a	n/a	-999	9	[0, 0, 0]	n/a	FR1	0	R1052E
1069.47	10.428	737199	TRIAL	n/a	n/a	n/a	-999	9	[0, 0, 0]	n/a	FR1	0	R1052E
1079.898	0.007	742413	COUNTDOWN_END	n/a	n/a	n/a	-999	9	[0, 0, 0]	n/a	FR1	0	R1052E
1079.905	2.417	742416	ORIENT	n/a	n/a	n/a	-999	9	[0, 0, 0]	n/a	FR1	0	R1052E
1082.322	2.501	743625	WORD	n/a	wordpools/wordpool_EN.txt	CAVE	1	9	[0, 0, 0]	n/a	FR1	0	R1052E
1084.823	2.45	744875	WORD	n/a	wordpools/wordpool_EN.txt	STAIR	2	9	[0, 0, 0]	n/a	FR1	0	R1052E
1087.273	2.451	746100	WORD	n/a	wordpools/wordpool_EN.txt	SWAMP	3	9	[0, 0, 0]	n/a	FR1	0	R1052E
1089.724	2.4	747325	WORD	n/a	wordpools/wordpool_EN.txt	WOOD	4	9	[0, 0, 0]	n/a	FR1	0	R1052E
1092.124	2.5	748525	WORD	n/a	wordpools/wordpool_EN.txt	CRANE	5	9	[0, 0, 0]	n/a	FR1	0	R1052E
1094.624	2.518	749775	WORD	n/a	wordpools/wordpool_EN.txt	RAKE	6	9	[0, 0, 0]	n/a	FR1	0	R1052E
1097.142	2.417	751034	WORD	n/a	wordpools/wordpool_EN.txt	HAWK	7	9	[0, 0, 0]	n/a	FR1	0	R1052E
1099.559	2.633	752243	WORD	n/a	wordpools/wordpool_EN.txt	PIPE	8	9	[0, 0, 0]	n/a	FR1	0	R1052E
1102.192	2.551	753559	WORD	n/a	wordpools/wordpool_EN.txt	HORSE	9	9	[0, 0, 0]	n/a	FR1	0	R1052E
1104.743	2.417	754834	WORD	n/a	wordpools/wordpool_EN.txt	TREE	10	9	[0, 0, 0]	n/a	FR1	0	R1052E
1107.16	2.467	756043	WORD	n/a	wordpools/wordpool_EN.txt	DART	11	9	[0, 0, 0]	n/a	FR1	0	R1052E
1109.627	1.617	757276	WORD	n/a	wordpools/wordpool_EN.txt	BOX	12	9	[0, 0, 0]	n/a	FR1	0	R1052E
1111.244	0.001	758085	DISTRACT_START	n/a	n/a	n/a	-999	9	[0, 0, 0]	n/a	FR1	0	R1052E
1111.245	0.016	758085	START	n/a	n/a	n/a	-999	9	[-999, -999, -999]	n/a	FR1	0	R1052E
1111.261	5.551	758093	PROB	5.551	n/a	n/a	-999	9	[2, 3, 1]	6	FR1	0	R1052E
1116.812	12.285	760868	PROB	12.285	n/a	n/a	-999	9	[8, 4, 7]	19	FR1	0	R1052E
1129.097	9.378	767011	PROB	9.378	n/a	n/a	-999	9	[4, 6, 4]	15	FR1	0	R1052E
1138.475	0.007	771699	STOP	n/a	n/a	n/a	-999	9	[-999, -999, -999]	n/a	FR1	0	R1052E
1138.482	1.217	771703	DISTRACT_END	n/a	n/a	n/a	-999	9	[0, 0, 0]	n/a	FR1	0	R1052E
1139.699	1.203	772311	REC_START	n/a	n/a	n/a	-999	9	[0, 0, 0]	n/a	FR1	0	R1052E
1140.902	1.482	772913	REC_WORD	1.482	n/a	STAIR	-999	9	[0, 0, 0]	n/a	FR1	0	R1052E
1142.384	2.491	773654	REC_WORD	2.491	n/a	SWAMP	-999	9	[0, 0, 0]	n/a	FR1	0	R1052E
1144.875	1.125	774899	REC_WORD	1.125	n/a	BOOK	-999	9	[0, 0, 0]	n/a	FR1	0	R1052E
1146.0	3.383	775461	REC_WORD	3.383	n/a	PIPE	-999	9	[0, 0, 0]	n/a	FR1	0	R1052E
1149.383	3.576	777153	REC_WORD_VV	3.576	n/a	<>	-999	9	[0, 0, 0]	n/a	FR1	0	R1052E
1152.959	6.794	778941	REC_WORD	6.794	n/a	RAKE	-999	9	[0, 0, 0]	n/a	FR1	0	R1052E
1159.753	9.962	782338	REC_WORD_VV	9.962	n/a	<>	-999	9	[0, 0, 0]	n/a	FR1	0	R1052E
1169.715	3.773	787318	REC_END	n/a	n/a	n/a	-999	9	[0, 0, 0]	n/a	FR1	0	R1052E
1173.488	0.0	789205	TRIAL	n/a	n/a	n/a	-999	10	[0, 0, 0]	n/a	FR1	0	R1052E
1173.488	10.428	789205	COUNTDOWN_START	n/a	n/a	n/a	-999	10	[0, 0, 0]	n/a	FR1	0	R1052E
1183.916	0.007	794418	COUNTDOWN_END	n/a	n/a	n/a	-999	10	[0, 0, 0]	n/a	FR1	0	R1052E
1183.923	2.534	794422	ORIENT	n/a	n/a	n/a	-999	10	[0, 0, 0]	n/a	FR1	0	R1052E
1186.457	2.584	795689	WORD	n/a	wordpools/wordpool_EN.txt	SLEEVE	1	10	[0, 0, 0]	n/a	FR1	0	R1052E
1189.041	2.534	796981	WORD	n/a	wordpools/wordpool_EN.txt	TIE	2	10	[0, 0, 0]	n/a	FR1	0	R1052E
1191.575	2.5	798247	WORD	n/a	wordpools/wordpool_EN.txt	HOSE	3	10	[0, 0, 0]	n/a	FR1	0	R1052E
1194.075	2.617	799497	WORD	n/a	wordpools/wordpool_EN.txt	CANE	4	10	[0, 0, 0]	n/a	FR1	0	R1052E
1196.692	2.401	800806	WORD	n/a	wordpools/wordpool_EN.txt	TRAY	5	10	[0, 0, 0]	n/a	FR1	0	R1052E
1199.093	2.5	802006	WORD	n/a	wordpools/wordpool_EN.txt	FARM	6	10	[0, 0, 0]	n/a	FR1	0	R1052E
1201.593	2.551	803256	WORD	n/a	wordpools/wordpool_EN.txt	WEED	7	10	[0, 0, 0]	n/a	FR1	0	R1052E
1204.144	2.483	804532	WORD	n/a	wordpools/wordpool_EN.txt	CAKE	8	10	[0, 0, 0]	n/a	FR1	0	R1052E
1206.627	2.451	805773	WORD	n/a	wordpools/wordpool_EN.txt	STICK	9	10	[0, 0, 0]	n/a	FR1	0	R1052E
1209.078	2.417	806998	WORD	n/a	wordpools/wordpool_EN.txt	SEAL	10	10	[0, 0, 0]	n/a	FR1	0	R1052E
1211.495	2.584	808207	WORD	n/a	wordpools/wordpool_EN.txt	LAMB	11	10	[0, 0, 0]	n/a	FR1	0	R1052E
1214.079	1.617	809499	WORD	n/a	wordpools/wordpool_EN.txt	POOL	12	10	[0, 0, 0]	n/a	FR1	0	R1052E
1215.696	0.0	810307	DISTRACT_START	n/a	n/a	n/a	-999	10	[0, 0, 0]	n/a	FR1	0	R1052E
1215.696	0.016	810307	START	n/a	n/a	n/a	-999	10	[-999, -999, -999]	n/a	FR1	0	R1052E
1215.712	12.452	810315	PROB	12.452	n/a	n/a	-999	10	[6, 1, 8]	1	FR1	0	R1052E
1228.164	24.279	816541	PROB	24.279	n/a	n/a	-999	10	[1, 7, 7]	15	FR1	0	R1052E
1252.443	0.009	828679	STOP	n/a	n/a	n/a	-999	10	[-999, -999, -999]	n/a	FR1	0	R1052E
1252.452	1.151	828684	DISTRACT_END	n/a	n/a	n/a	-999	10	[0, 0, 0]	n/a	FR1	0	R1052E
1253.603	0.979	829259	REC_START	n/a	n/a	n/a	-999	10	[0, 0, 0]	n/a	FR1	0	R1052E
1254.582	1.231	829749	REC_WORD	1.231	n/a	STICK	-999	10	[0, 0, 0]	n/a	FR1	0	R1052E
1255.813	1.28	830364	REC_WORD	1.28	n/a	STEEL	-999	10	[0, 0, 0]	n/a	FR1	0	R1052E
1257.093	5.983	831004	REC_WORD	5.983	n/a	LAMB	-999	10	[0, 0, 0]	n/a	FR1	0	R1052E
1263.076	20.538	833996	REC_WORD	20.538	n/a	WEED	-999	10	[0, 0, 0]	n/a	FR1	0	R1052E
1283.614	3.294	844264	REC_END	n/a	n/a	n/a	-999	10	[0, 0, 0]	n/a	FR1	0	R1052E
1286.908	0.0	845911	COUNTDOWN_START	n/a	n/a	n/a	-999	11	[0, 0, 0]	n/a	FR1	0	R1052E
1286.908	10.428	845911	TRIAL	n/a	n/a	n/a	-999	11	[0, 0, 0]	n/a	FR1	0	R1052E
1297.336	0.007	851124	COUNTDOWN_END	n/a	n/a	n/a	-999	11	[0, 0, 0]	n/a	FR1	0	R1052E
1297.343	2.384	851128	ORIENT	n/a	n/a	n/a	-999	11	[0, 0, 0]	n/a	FR1	0	R1052E
1299.727	2.55	852320	WORD	n/a	wordpools/wordpool_EN.txt	ARM	1	11	[0, 0, 0]	n/a	FR1	0	R1052E
1302.277	2.418	853595	WORD	n/a	wordpools/wordpool_EN.txt	CHEEK	2	11	[0, 0, 0]	n/a	FR1	0	R1052E
1304.695	2.4	854804	WORD	n/a	wordpools/wordpool_EN.txt	TOE	3	11	[0, 0, 0]	n/a	FR1	0	R1052E
1307.095	2.6	856004	WORD	n/a	wordpools/wordpool_EN.txt	PET	4	11	[0, 0, 0]	n/a	FR1	0	R1052E
1309.695	2.501	857303	WORD	n/a	wordpools/wordpool_EN.txt	TENT	5	11	[0, 0, 0]	n/a	FR1	0	R1052E
1312.196	2.45	858554	WORD	n/a	wordpools/wordpool_EN.txt	PURSE	6	11	[0, 0, 0]	n/a	FR1	0	R1052E
1314.646	2.467	859779	WORD	n/a	wordpools/wordpool_EN.txt	CAGE	7	11	[0, 0, 0]	n/a	FR1	0	R1052E
1317.113	2.517	861012	WORD	n/a	wordpools/wordpool_EN.txt	PALM	8	11	[0, 0, 0]	n/a	FR1	0	R1052E
1319.63	2.568	862271	WORD	n/a	wordpools/wordpool_EN.txt	GUARD	9	11	[0, 0, 0]	n/a	FR1	0	R1052E
1322.198	2.6	863555	WORD	n/a	wordpools/wordpool_EN.txt	HORN	10	11	[0, 0, 0]	n/a	FR1	0	R1052E
1324.798	2.517	864854	WORD	n/a	wordpools/wordpool_EN.txt	TOY	11	11	[0, 0, 0]	n/a	FR1	0	R1052E
1327.315	1.617	866113	WORD	n/a	wordpools/wordpool_EN.txt	TAIL	12	11	[0, 0, 0]	n/a	FR1	0	R1052E
1328.932	0.001	866921	DISTRACT_START	n/a	n/a	n/a	-999	11	[0, 0, 0]	n/a	FR1	0	R1052E
1328.933	0.016	866922	START	n/a	n/a	n/a	-999	11	[-999, -999, -999]	n/a	FR1	0	R1052E
1328.949	9.585	866930	PROB	9.585	n/a	n/a	-999	11	[7, 5, 5]	17	FR1	0	R1052E
1338.534	4.551	871722	PROB	4.551	n/a	n/a	-999	11	[1, 4, 2]	7	FR1	0	R1052E
1343.085	12.366	873997	PROB	12.366	n/a	n/a	-999	11	[3, 8, 8]	19	FR1	0	R1052E
1355.451	0.019	880180	STOP	n/a	n/a	n/a	-999	11	[-999, -999, -999]	n/a	FR1	0	R1052E
1355.47	1.134	880189	DISTRACT_END	n/a	n/a	n/a	-999	11	[0, 0, 0]	n/a	FR1	0	R1052E
1356.604	0.614	880756	REC_START	n/a	n/a	n/a	-999	11	[0, 0, 0]	n/a	FR1	0	R1052E
1357.218	1.117	881063	REC_WORD	1.117	n/a	ARM	-999	11	[0, 0, 0]	n/a	FR1	0	R1052E
1358.335	1.106	881622	REC_WORD	1.106	n/a	CHEEK	-999	11	[0, 0, 0]	n/a	FR1	0	R1052E
1359.441	3.522	882175	REC_WORD	3.522	n/a	TOE	-999	11	[0, 0, 0]	n/a	FR1	0	R1052E
1362.963	23.658	883936	REC_WORD	23.658	n/a	CAGE	-999	11	[0, 0, 0]	n/a	FR1	0	R1052E
1386.621	2.988	895764	REC_END	n/a	n/a	n/a	-999	11	[0, 0, 0]	n/a	FR1	0	R1052E
1389.609	0.001	897258	COUNTDOWN_START	n/a	n/a	n/a	-999	12	[0, 0, 0]	n/a	FR1	0	R1052E
1389.61	10.427	897258	TRIAL	n/a	n/a	n/a	-999	12	[0, 0, 0]	n/a	FR1	0	R1052E
1400.037	0.008	902471	COUNTDOWN_END	n/a	n/a	n/a	-999	12	[0, 0, 0]	n/a	FR1	0	R1052E
1400.045	2.416	902475	ORIENT	n/a	n/a	n/a	-999	12	[0, 0, 0]	n/a	FR1	0	R1052E
1402.461	2.401	903683	WORD	n/a	wordpools/wordpool_EN.txt	BUSH	1	12	[0, 0, 0]	n/a	FR1	0	R1052E
1404.862	2.6	904884	WORD	n/a	wordpools/wordpool_EN.txt	HAND	2	12	[0, 0, 0]	n/a	FR1	0	R1052E
1407.462	2.534	906184	WORD	n/a	wordpools/wordpool_EN.txt	CHALK	3	12	[0, 0, 0]	n/a	FR1	0	R1052E
1409.996	2.534	907451	WORD	n/a	wordpools/wordpool_EN.txt	FENCE	4	12	[0, 0, 0]	n/a	FR1	0	R1052E
1412.53	2.567	908717	WORD	n/a	wordpools/wordpool_EN.txt	DEER	5	12	[0, 0, 0]	n/a	FR1	0	R1052E
1415.097	2.617	910001	WORD	n/a	wordpools/wordpool_EN.txt	SKI	6	12	[0, 0, 0]	n/a	FR1	0	R1052E
1417.714	2.517	911309	WORD	n/a	wordpools/wordpool_EN.txt	MULE	7	12	[0, 0, 0]	n/a	FR1	0	R1052E
1420.231	2.534	912568	WORD	n/a	wordpools/wordpool_EN.txt	STORM	8	12	[0, 0, 0]	n/a	FR1	0	R1052E
1422.765	2.4	913835	WORD	n/a	wordpools/wordpool_EN.txt	HILL	9	12	[0, 0, 0]	n/a	FR1	0	R1052E
1425.165	2.401	915035	WORD	n/a	wordpools/wordpool_EN.txt	BRUSH	10	12	[0, 0, 0]	n/a	FR1	0	R1052E
1427.566	2.517	916235	WORD	n/a	wordpools/wordpool_EN.txt	WAND	11	12	[0, 0, 0]	n/a	FR1	0	R1052E
1430.083	1.617	917493	WORD	n/a	wordpools/wordpool_EN.txt	FOOT	12	12	[0, 0, 0]	n/a	FR1	0	R1052E
1431.7	0.001	918302	DISTRACT_START	n/a	n/a	n/a	-999	12	[0, 0, 0]	n/a	FR1	0	R1052E
1431.701	0.016	918302	START	n/a	n/a	n/a	-999	12	[-999, -999, -999]	n/a	FR1	0	R1052E
1431.717	19.92	918310	PROB	19.92	n/a	n/a	-999	12	[7, 7, 9]	23	FR1	0	R1052E
1451.637	6.445	928270	PROB	6.445	n/a	n/a	-999	12	[8, 2, 3]	13	FR1	0	R1052E
1458.082	0.006	931492	STOP	n/a	n/a	n/a	-999	12	[-999, -999, -999]	n/a	FR1	0	R1052E
1458.088	1.134	931495	DISTRACT_END	n/a	n/a	n/a	-999	12	[0, 0, 0]	n/a	FR1	0	R1052E
1459.222	4.9	932062	REC_START	n/a	n/a	n/a	-999	12	[0, 0, 0]	n/a	FR1	0	R1052E
1464.122	2.572	934512	REC_WORD	2.572	n/a	STORM	-999	12	[0, 0, 0]	n/a	FR1	0	R1052E
1466.694	4.094	935798	REC_WORD	4.094	n/a	BUSH	-999	12	[0, 0, 0]	n/a	FR1	0	R1052E
1470.788	10.938	937845	REC_WORD	10.938	n/a	PALM	-999	12	[0, 0, 0]	n/a	FR1	0	R1052E
1481.726	7.507	943313	REC_WORD	7.507	n/a	HAND	-999	12	[0, 0, 0]	n/a	FR1	0	R1052E
1489.233	8.779	947066	REC_END	n/a	n/a	n/a	-999	12	[0, 0, 0]	n/a	FR1	0	R1052E
1498.012	0.0	951456	TRIAL	n/a	n/a	n/a	-999	13	[0, 0, 0]	n/a	FR1	0	R1052E
1498.012	10.428	951456	COUNTDOWN_START	n/a	n/a	n/a	-999	13	[0, 0, 0]	n/a	FR1	0	R1052E
1508.44	0.007	956669	COUNTDOWN_END	n/a	n/a	n/a	-999	13	[0, 0, 0]	n/a	FR1	0	R1052E
1508.447	2.617	956673	ORIENT	n/a	n/a	n/a	-999	13	[0, 0, 0]	n/a	FR1	0	R1052E
1511.064	2.517	957981	WORD	n/a	wordpools/wordpool_EN.txt	CORN	1	13	[0, 0, 0]	n/a	FR1	0	R1052E
1513.581	2.567	959240	WORD	n/a	wordpools/wordpool_EN.txt	SMILE	2	13	[0, 0, 0]	n/a	FR1	0	R1052E
1516.148	2.534	960523	WORD	n/a	wordpools/wordpool_EN.txt	SKY	3	13	[0, 0, 0]	n/a	FR1	0	R1052E
1518.682	2.45	961790	WORD	n/a	wordpools/wordpool_EN.txt	VASE	4	13	[0, 0, 0]	n/a	FR1	0	R1052E
1521.132	2.501	963015	WORD	n/a	wordpools/wordpool_EN.txt	BOWL	5	13	[0, 0, 0]	n/a	FR1	0	R1052E
1523.633	2.55	964265	WORD	n/a	wordpools/wordpool_EN.txt	BAND	6	13	[0, 0, 0]	n/a	FR1	0	R1052E
1526.183	2.534	965540	WORD	n/a	wordpools/wordpool_EN.txt	OAR	7	13	[0, 0, 0]	n/a	FR1	0	R1052E
1528.717	2.417	966807	WORD	n/a	wordpools/wordpool_EN.txt	CHAIR	8	13	[0, 0, 0]	n/a	FR1	0	R1052E
1531.134	2.551	968015	WORD	n/a	wordpools/wordpool_EN.txt	STEAK	9	13	[0, 0, 0]	n/a	FR1	0	R1052E
1533.685	2.45	969291	WORD	n/a	wordpools/wordpool_EN.txt	BENCH	10	13	[0, 0, 0]	n/a	FR1	0	R1052E
1536.135	2.517	970516	WORD	n/a	wordpools/wordpool_EN.txt	LAMP	11	13	[0, 0, 0]	n/a	FR1	0	R1052E
1538.652	1.617	971774	WORD	n/a	wordpools/wordpool_EN.txt	HOOK	12	13	[0, 0, 0]	n/a	FR1	0	R1052E
1540.269	0.001	972583	DISTRACT_START	n/a	n/a	n/a	-999	13	[0, 0, 0]	n/a	FR1	0	R1052E
1540.27	0.016	972583	START	n/a	n/a	n/a	-999	13	[-999, -999, -999]	n/a	FR1	0	R1052E
1540.286	16.137	972591	PROB	16.137	n/a	n/a	-999	13	[1, 6, 3]	10	FR1	0	R1052E
1556.423	11.214	980659	PROB	11.214	n/a	n/a	-999	13	[5, 8, 5]	18	FR1	0	R1052E
1567.637	0.02	986266	STOP	n/a	n/a	n/a	-999	13	[-999, -999, -999]	n/a	FR1	0	R1052E
1567.657	1.118	986276	DISTRACT_END	n/a	n/a	n/a	-999	13	[0, 0, 0]	n/a	FR1	0	R1052E
1568.775	2.867	986835	REC_START	n/a	n/a	n/a	-999	13	[0, 0, 0]	n/a	FR1	0	R1052E
1571.642	6.641	988268	REC_WORD_VV	6.641	n/a	<>	-999	13	[0, 0, 0]	n/a	FR1	0	R1052E
1578.283	3.398	991588	REC_WORD	3.398	n/a	BUSH	-999	13	[0, 0, 0]	n/a	FR1	0	R1052E
1581.681	9.782	993287	REC_WORD	9.782	n/a	OAR	-999	13	[0, 0, 0]	n/a	FR1	0	R1052E
1591.463	4.526	998178	REC_WORD_VV	4.526	n/a	<>	-999	13	[0, 0, 0]	n/a	FR1	0	R1052E
1595.989	2.796	1000441	REC_WORD	2.796	n/a	STEAK	-999	13	[0, 0, 0]	n/a	FR1	0	R1052E
1598.785	2.661	1001839	REC_END	n/a	n/a	n/a	-999	13	[0, 0, 0]	n/a	FR1	0	R1052E
1601.446	0.001	1003169	COUNTDOWN_START	n/a	n/a	n/a	-999	14	[0, 0, 0]	n/a	FR1	0	R1052E
1601.447	10.427	1003170	TRIAL	n/a	n/a	n/a	-999	14	[0, 0, 0]	n/a	FR1	0	R1052E
1611.874	0.008	1008383	COUNTDOWN_END	n/a	n/a	n/a	-999	14	[0, 0, 0]	n/a	FR1	0	R1052E
1611.882	2.483	1008387	ORIENT	n/a	n/a	n/a	-999	14	[0, 0, 0]	n/a	FR1	0	R1052E
1614.365	2.601	1009628	WORD	n/a	wordpools/wordpool_EN.txt	SNOW	1	14	[0, 0, 0]	n/a	FR1	0	R1052E
1616.966	2.468	1010929	WORD	n/a	wordpools/wordpool_EN.txt	BLOOM	2	14	[0, 0, 0]	n/a	FR1	0	R1052E
1619.434	2.399	1012162	WORD	n/a	wordpools/wordpool_EN.txt	FLAME	3	14	[0, 0, 0]	n/a	FR1	0	R1052E
1621.833	2.484	1013362	WORD	n/a	wordpools/wordpool_EN.txt	FOG	4	14	[0, 0, 0]	n/a	FR1	0	R1052E
1624.317	2.584	1014604	WORD	n/a	wordpools/wordpool_EN.txt	CLOUD	5	14	[0, 0, 0]	n/a	FR1	0	R1052E
1626.901	2.55	1015896	WORD	n/a	wordpools/wordpool_EN.txt	PIT	6	14	[0, 0, 0]	n/a	FR1	0	R1052E
1629.451	2.567	1017171	WORD	n/a	wordpools/wordpool_EN.txt	POND	7	14	[0, 0, 0]	n/a	FR1	0	R1052E
1632.018	2.419	1018454	WORD	n/a	wordpools/wordpool_EN.txt	CROW	8	14	[0, 0, 0]	n/a	FR1	0	R1052E
1634.437	2.449	1019663	WORD	n/a	wordpools/wordpool_EN.txt	LAKE	9	14	[0, 0, 0]	n/a	FR1	0	R1052E
1636.886	2.4	1020888	WORD	n/a	wordpools/wordpool_EN.txt	MAT	10	14	[0, 0, 0]	n/a	FR1	0	R1052E
1639.286	2.484	1022088	WORD	n/a	wordpools/wordpool_EN.txt	CUBE	11	14	[0, 0, 0]	n/a	FR1	0	R1052E
1641.77	1.617	1023330	WORD	n/a	wordpools/wordpool_EN.txt	JEEP	12	14	[0, 0, 0]	n/a	FR1	0	R1052E
1643.387	0.001	1024138	DISTRACT_START	n/a	n/a	n/a	-999	14	[0, 0, 0]	n/a	FR1	0	R1052E
1643.388	0.016	1024139	START	n/a	n/a	n/a	-999	14	[-999, -999, -999]	n/a	FR1	0	R1052E
1643.404	9.651	1024147	PROB	9.651	n/a	n/a	-999	14	[4, 6, 2]	12	FR1	0	R1052E
1653.055	10.086	1028972	PROB	10.086	n/a	n/a	-999	14	[8, 6, 2]	16	FR1	0	R1052E
1663.141	7.003	1034015	PROB	7.003	n/a	n/a	-999	14	[4, 1, 7]	12	FR1	0	R1052E
1670.144	0.015	1037516	STOP	n/a	n/a	n/a	-999	14	[-999, -999, -999]	n/a	FR1	0	R1052E
1670.159	1.033	1037523	DISTRACT_END	n/a	n/a	n/a	-999	14	[0, 0, 0]	n/a	FR1	0	R1052E
1671.192	1.522	1038040	REC_START	n/a	n/a	n/a	-999	14	[0, 0, 0]	n/a	FR1	0	R1052E
1672.714	3.077	1038801	REC_WORD	3.077	n/a	SNOW	-999	14	[0, 0, 0]	n/a	FR1	0	R1052E
1675.791	1.68	1040339	REC_WORD	1.68	n/a	CLOUD	-999	14	[0, 0, 0]	n/a	FR1	0	R1052E
1677.471	5.756	1041179	REC_WORD	5.756	n/a	FOG	-999	14	[0, 0, 0]	n/a	FR1	0	R1052E
1683.227	3.034	1044057	REC_WORD	3.034	n/a	POND	-999	14	[0, 0, 0]	n/a	FR1	0	R1052E
1686.261	4.207	1045574	REC_WORD	4.207	n/a	LAKE	-999	14	[0, 0, 0]	n/a	FR1	0	R1052E
1690.468	10.741	1047677	REC_WORD_VV	10.741	n/a	<>	-999	14	[0, 0, 0]	n/a	FR1	0	R1052E
1701.209	3.622	1053047	REC_END	n/a	n/a	n/a	-999	14	[0, 0, 0]	n/a	FR1	0	R1052E
1704.831	0.0	1054858	TRIAL	n/a	n/a	n/a	-999	15	[0, 0, 0]	n/a	FR1	0	R1052E
1704.831	10.428	1054858	COUNTDOWN_START	n/a	n/a	n/a	-999	15	[0, 0, 0]	n/a	FR1	0	R1052E
1715.259	0.007	1060072	COUNTDOWN_END	n/a	n/a	n/a	-999	15	[0, 0, 0]	n/a	FR1	0	R1052E
1715.266	2.401	1060075	ORIENT	n/a	n/a	n/a	-999	15	[0, 0, 0]	n/a	FR1	0	R1052E
1717.667	2.6	1061276	WORD	n/a	wordpools/wordpool_EN.txt	DESK	1	15	[0, 0, 0]	n/a	FR1	0	R1052E
1720.267	2.617	1062576	WORD	n/a	wordpools/wordpool_EN.txt	PEARL	2	15	[0, 0, 0]	n/a	FR1	0	R1052E
1722.884	2.617	1063884	WORD	n/a	wordpools/wordpool_EN.txt	DOG	3	15	[0, 0, 0]	n/a	FR1	0	R1052E
1725.501	2.568	1065192	WORD	n/a	wordpools/wordpool_EN.txt	KEY	4	15	[0, 0, 0]	n/a	FR1	0	R1052E
1728.069	2.517	1066476	WORD	n/a	wordpools/wordpool_EN.txt	JUDGE	5	15	[0, 0, 0]	n/a	FR1	0	R1052E
1730.586	2.534	1067735	WORD	n/a	wordpools/wordpool_EN.txt	MAZE	6	15	[0, 0, 0]	n/a	FR1	0	R1052E
1733.12	2.583	1069002	WORD	n/a	wordpools/wordpool_EN.txt	SHARK	7	15	[0, 0, 0]	n/a	FR1	0	R1052E
1735.703	2.534	1070293	WORD	n/a	wordpools/wordpool_EN.txt	RUG	8	15	[0, 0, 0]	n/a	FR1	0	R1052E
1738.237	2.384	1071560	WORD	n/a	wordpools/wordpool_EN.txt	BADGE	9	15	[0, 0, 0]	n/a	FR1	0	R1052E
1740.621	2.45	1072752	WORD	n/a	wordpools/wordpool_EN.txt	COUCH	10	15	[0, 0, 0]	n/a	FR1	0	R1052E
1743.071	2.534	1073977	WORD	n/a	wordpools/wordpool_EN.txt	SUN	11	15	[0, 0, 0]	n/a	FR1	0	R1052E
1745.605	1.617	1075244	WORD	n/a	wordpools/wordpool_EN.txt	MAIL	12	15	[0, 0, 0]	n/a	FR1	0	R1052E
1747.222	0.001	1076052	DISTRACT_START	n/a	n/a	n/a	-999	15	[0, 0, 0]	n/a	FR1	0	R1052E
1747.223	0.016	1076053	START	n/a	n/a	n/a	-999	15	[-999, -999, -999]	n/a	FR1	0	R1052E
1747.239	12.118	1076061	PROB	12.118	n/a	n/a	-999	15	[5, 2, 9]	16	FR1	0	R1052E
1759.357	21.336	1082119	PROB	21.336	n/a	n/a	-999	15	[8, 7, 4]	19	FR1	0	R1052E
1780.693	0.018	1092787	STOP	n/a	n/a	n/a	-999	15	[-999, -999, -999]	n/a	FR1	0	R1052E
1780.711	1.051	1092796	DISTRACT_END	n/a	n/a	n/a	-999	15	[0, 0, 0]	n/a	FR1	0	R1052E
1781.762	2.24	1093321	REC_START	n/a	n/a	n/a	-999	15	[0, 0, 0]	n/a	FR1	0	R1052E
1784.002	1.336	1094441	REC_WORD	1.336	n/a	DESK	-999	15	[0, 0, 0]	n/a	FR1	0	R1052E
1785.338	1.756	1095109	REC_WORD	1.756	n/a	DOG	-999	15	[0, 0, 0]	n/a	FR1	0	R1052E
1787.094	4.163	1095987	REC_WORD	4.163	n/a	SUN	-999	15	[0, 0, 0]	n/a	FR1	0	R1052E
1791.257	11.347	1098068	REC_WORD	11.347	n/a	RUG	-999	15	[0, 0, 0]	n/a	FR1	0	R1052E
1802.604	9.169	1103741	REC_WORD_VV	9.169	n/a	<>	-999	15	[0, 0, 0]	n/a	FR1	0	R1052E
1811.773	2.127	1108326	REC_END	n/a	n/a	n/a	-999	15	[0, 0, 0]	n/a	FR1	0	R1052E
1813.9	0.0	1109389	TRIAL	n/a	n/a	n/a	-999	16	[0, 0, 0]	n/a	FR1	0	R1052E
1813.9	10.428	1109389	COUNTDOWN_START	n/a	n/a	n/a	-999	16	[0, 0, 0]	n/a	FR1	0	R1052E
1824.328	0.008	1114603	COUNTDOWN_END	n/a	n/a	n/a	-999	16	[0, 0, 0]	n/a	FR1	0	R1052E
1824.336	2.533	1114607	ORIENT	n/a	n/a	n/a	-999	16	[0, 0, 0]	n/a	FR1	0	R1052E
1826.869	2.568	1115873	WORD	n/a	wordpools/wordpool_EN.txt	BAG	1	16	[0, 0, 0]	n/a	FR1	0	R1052E
1829.437	2.516	1117157	WORD	n/a	wordpools/wordpool_EN.txt	GOAT	2	16	[0, 0, 0]	n/a	FR1	0	R1052E
1831.953	2.451	1118415	WORD	n/a	wordpools/wordpool_EN.txt	YARD	3	16	[0, 0, 0]	n/a	FR1	0	R1052E
1834.404	2.384	1119640	WORD	n/a	wordpools/wordpool_EN.txt	SNAIL	4	16	[0, 0, 0]	n/a	FR1	0	R1052E
1836.788	2.516	1120832	WORD	n/a	wordpools/wordpool_EN.txt	SHOE	5	16	[0, 0, 0]	n/a	FR1	0	R1052E
1839.304	2.535	1122090	WORD	n/a	wordpools/wordpool_EN.txt	FLEA	6	16	[0, 0, 0]	n/a	FR1	0	R1052E
1841.839	2.417	1123358	WORD	n/a	wordpools/wordpool_EN.txt	DRUM	7	16	[0, 0, 0]	n/a	FR1	0	R1052E
1844.256	2.433	1124566	WORD	n/a	wordpools/wordpool_EN.txt	GLASS	8	16	[0, 0, 0]	n/a	FR1	0	R1052E
1846.689	2.618	1125782	WORD	n/a	wordpools/wordpool_EN.txt	NOSE	9	16	[0, 0, 0]	n/a	FR1	0	R1052E
1849.307	2.617	1127091	WORD	n/a	wordpools/wordpool_EN.txt	WEB	10	16	[0, 0, 0]	n/a	FR1	0	R1052E
1851.924	2.467	1128400	WORD	n/a	wordpools/wordpool_EN.txt	WORLD	11	16	[0, 0, 0]	n/a	FR1	0	R1052E
1854.391	1.617	1129633	WORD	n/a	wordpools/wordpool_EN.txt	PEN	12	16	[0, 0, 0]	n/a	FR1	0	R1052E
1856.008	0.0	1130442	DISTRACT_START	n/a	n/a	n/a	-999	16	[0, 0, 0]	n/a	FR1	0	R1052E
1856.008	0.016	1130442	START	n/a	n/a	n/a	-999	16	[-999, -999, -999]	n/a	FR1	0	R1052E
1856.024	12.736	1130450	PROB	12.736	n/a	n/a	-999	16	[3, 6, 2]	11	FR1	0	R1052E
1868.76	3.751	1136817	PROB	3.751	n/a	n/a	-999	16	[5, 5, 1]	11	FR1	0	R1052E
1872.511	21.318	1138692	PROB	21.318	n/a	n/a	-999	16	[2, 8, 8]	18	FR1	0	R1052E
1893.829	0.019	1149351	STOP	n/a	n/a	n/a	-999	16	[-999, -999, -999]	n/a	FR1	0	R1052E
1893.848	1.05	1149360	DISTRACT_END	n/a	n/a	n/a	-999	16	[0, 0, 0]	n/a	FR1	0	R1052E
1894.898	10.67	1149885	REC_START	n/a	n/a	n/a	-999	16	[0, 0, 0]	n/a	FR1	0	R1052E
1905.568	1.483	1155220	REC_WORD	1.483	n/a	GOAT	-999	16	[0, 0, 0]	n/a	FR1	0	R1052E
1907.051	4.075	1155961	REC_WORD	4.075	n/a	DOG	-999	16	[0, 0, 0]	n/a	FR1	0	R1052E
1911.126	2.546	1157999	REC_WORD	2.546	n/a	PEN	-999	16	[0, 0, 0]	n/a	FR1	0	R1052E
1913.672	11.239	1159272	REC_WORD	11.239	n/a	FLEA	-999	16	[0, 0, 0]	n/a	FR1	0	R1052E
1924.911	3.493	1164891	REC_END	n/a	n/a	n/a	-999	16	[0, 0, 0]	n/a	FR1	0	R1052E
1928.404	0.0	1166637	TRIAL	n/a	n/a	n/a	-999	17	[0, 0, 0]	n/a	FR1	0	R1052E
1928.404	10.428	1166637	COUNTDOWN_START	n/a	n/a	n/a	-999	17	[0, 0, 0]	n/a	FR1	0	R1052E
1938.832	0.007	1171851	COUNTDOWN_END	n/a	n/a	n/a	-999	17	[0, 0, 0]	n/a	FR1	0	R1052E
1938.839	2.584	1171854	ORIENT	n/a	n/a	n/a	-999	17	[0, 0, 0]	n/a	FR1	0	R1052E
1941.423	2.383	1173146	WORD	n/a	wordpools/wordpool_EN.txt	CAPE	1	17	[0, 0, 0]	n/a	FR1	0	R1052E
1943.806	2.619	1174338	WORD	n/a	wordpools/wordpool_EN.txt	FLOOR	2	17	[0, 0, 0]	n/a	FR1	0	R1052E
1946.425	2.466	1175647	WORD	n/a	wordpools/wordpool_EN.txt	ROCK	3	17	[0, 0, 0]	n/a	FR1	0	R1052E
1948.891	2.551	1176880	WORD	n/a	wordpools/wordpool_EN.txt	EEL	4	17	[0, 0, 0]	n/a	FR1	0	R1052E
1951.442	2.416	1178155	WORD	n/a	wordpools/wordpool_EN.txt	NEST	5	17	[0, 0, 0]	n/a	FR1	0	R1052E
1953.858	2.534	1179363	WORD	n/a	wordpools/wordpool_EN.txt	MOTH	6	17	[0, 0, 0]	n/a	FR1	0	R1052E
1956.392	2.517	1180630	WORD	n/a	wordpools/wordpool_EN.txt	WING	7	17	[0, 0, 0]	n/a	FR1	0	R1052E
1958.909	2.55	1181889	WORD	n/a	wordpools/wordpool_EN.txt	ROOM	8	17	[0, 0, 0]	n/a	FR1	0	R1052E
1961.459	2.584	1183163	WORD	n/a	wordpools/wordpool_EN.txt	BEACH	9	17	[0, 0, 0]	n/a	FR1	0	R1052E
1964.043	2.401	1184455	WORD	n/a	wordpools/wordpool_EN.txt	WHEEL	10	17	[0, 0, 0]	n/a	FR1	0	R1052E
1966.444	2.433	1185656	WORD	n/a	wordpools/wordpool_EN.txt	RAIN	11	17	[0, 0, 0]	n/a	FR1	0	R1052E
1968.877	1.617	1186872	WORD	n/a	wordpools/wordpool_EN.txt	GRASS	12	17	[0, 0, 0]	n/a	FR1	0	R1052E
1970.494	0.001	1187681	DISTRACT_START	n/a	n/a	n/a	-999	17	[0, 0, 0]	n/a	FR1	0	R1052E
1970.495	0.016	1187681	START	n/a	n/a	n/a	-999	17	[-999, -999, -999]	n/a	FR1	0	R1052E
1970.511	14.703	1187689	PROB	14.703	n/a	n/a	-999	17	[6, 4, 9]	19	FR1	0	R1052E
1985.214	19.09	1195040	PROB	19.09	n/a	n/a	-999	17	[6, 8, 3]	17	FR1	0	R1052E
2004.304	0.013	1204585	STOP	n/a	n/a	n/a	-999	17	[-999, -999, -999]	n/a	FR1	0	R1052E
2004.317	1.034	1204591	DISTRACT_END	n/a	n/a	n/a	-999	17	[0, 0, 0]	n/a	FR1	0	R1052E
2005.351	13.611	1205108	REC_START	n/a	n/a	n/a	-999	17	[0, 0, 0]	n/a	FR1	0	R1052E
2018.962	6.784	1211913	REC_WORD	6.784	n/a	GOAT	-999	17	[0, 0, 0]	n/a	FR1	0	R1052E
2025.746	1.266	1215305	REC_WORD	1.266	n/a	MOTH	-999	17	[0, 0, 0]	n/a	FR1	0	R1052E
2027.012	8.351	1215938	REC_WORD	8.351	n/a	NEST	-999	17	[0, 0, 0]	n/a	FR1	0	R1052E
2035.363	2.81	1220113	REC_END	n/a	n/a	n/a	-999	17	[0, 0, 0]	n/a	FR1	0	R1052E
2038.173	0.0	1221518	COUNTDOWN_START	n/a	n/a	n/a	-999	18	[0, 0, 0]	n/a	FR1	0	R1052E
2038.173	10.428	1221518	TRIAL	n/a	n/a	n/a	-999	18	[0, 0, 0]	n/a	FR1	0	R1052E
2048.601	0.007	1226732	COUNTDOWN_END	n/a	n/a	n/a	-999	18	[0, 0, 0]	n/a	FR1	0	R1052E
2048.608	2.634	1226735	ORIENT	n/a	n/a	n/a	-999	18	[0, 0, 0]	n/a	FR1	0	R1052E
2051.242	2.534	1228052	WORD	n/a	wordpools/wordpool_EN.txt	RAT	1	18	[0, 0, 0]	n/a	FR1	0	R1052E
2053.776	2.617	1229319	WORD	n/a	wordpools/wordpool_EN.txt	BROOM	2	18	[0, 0, 0]	n/a	FR1	0	R1052E
2056.393	2.584	1230627	WORD	n/a	wordpools/wordpool_EN.txt	OWL	3	18	[0, 0, 0]	n/a	FR1	0	R1052E
2058.977	2.617	1231919	WORD	n/a	wordpools/wordpool_EN.txt	HEN	4	18	[0, 0, 0]	n/a	FR1	0	R1052E
2061.594	2.583	1233228	WORD	n/a	wordpools/wordpool_EN.txt	ANT	5	18	[0, 0, 0]	n/a	FR1	0	R1052E
2064.177	2.468	1234519	WORD	n/a	wordpools/wordpool_EN.txt	ROPE	6	18	[0, 0, 0]	n/a	FR1	0	R1052E
2066.645	2.55	1235753	WORD	n/a	wordpools/wordpool_EN.txt	STRING	7	18	[0, 0, 0]	n/a	FR1	0	R1052E
2069.195	2.5	1237028	WORD	n/a	wordpools/wordpool_EN.txt	KITE	8	18	[0, 0, 0]	n/a	FR1	0	R1052E
2071.695	2.618	1238278	WORD	n/a	wordpools/wordpool_EN.txt	FOX	9	18	[0, 0, 0]	n/a	FR1	0	R1052E
2074.313	2.4	1239587	WORD	n/a	wordpools/wordpool_EN.txt	CHIN	10	18	[0, 0, 0]	n/a	FR1	0	R1052E
2076.713	2.45	1240787	WORD	n/a	wordpools/wordpool_EN.txt	ROOF	11	18	[0, 0, 0]	n/a	FR1	0	R1052E
2079.163	1.617	1242011	WORD	n/a	wordpools/wordpool_EN.txt	THUMB	12	18	[0, 0, 0]	n/a	FR1	0	R1052E
2080.78	0.001	1242820	DISTRACT_START	n/a	n/a	n/a	-999	18	[0, 0, 0]	n/a	FR1	0	R1052E
2080.781	0.016	1242820	START	n/a	n/a	n/a	-999	18	[-999, -999, -999]	n/a	FR1	0	R1052E
2080.797	12.136	1242828	PROB	12.136	n/a	n/a	-999	18	[1, 5, 8]	14	FR1	0	R1052E
2092.933	21.889	1248896	PROB	21.889	n/a	n/a	-999	18	[4, 6, 9]	19	FR1	0	R1052E
2114.822	0.014	1259840	STOP	n/a	n/a	n/a	-999	18	[-999, -999, -999]	n/a	FR1	0	R1052E
2114.836	1.168	1259847	DISTRACT_END	n/a	n/a	n/a	-999	18	[0, 0, 0]	n/a	FR1	0	R1052E
2116.004	6.276	1260431	REC_START	n/a	n/a	n/a	-999	18	[0, 0, 0]	n/a	FR1	0	R1052E
2122.28	2.055	1263569	REC_WORD	2.055	n/a	RAT	-999	18	[0, 0, 0]	n/a	FR1	0	R1052E
2124.335	2.214	1264596	REC_WORD	2.214	n/a	OWL	-999	18	[0, 0, 0]	n/a	FR1	0	R1052E
2126.549	2.219	1265703	REC_WORD	2.219	n/a	BROOM	-999	18	[0, 0, 0]	n/a	FR1	0	R1052E
2128.768	2.9	1266812	REC_WORD	2.9	n/a	STRING	-999	18	[0, 0, 0]	n/a	FR1	0	R1052E
2131.668	14.347	1268262	REC_WORD	14.347	n/a	ROOF	-999	18	[0, 0, 0]	n/a	FR1	0	R1052E
2146.015	2.727	1275435	REC_END	n/a	n/a	n/a	-999	18	[0, 0, 0]	n/a	FR1	0	R1052E
2148.742	0.0	1276799	TRIAL	n/a	n/a	n/a	-999	19	[0, 0, 0]	n/a	FR1	0	R1052E
2148.742	10.428	1276799	COUNTDOWN_START	n/a	n/a	n/a	-999	19	[0, 0, 0]	n/a	FR1	0	R1052E
2159.17	0.007	1282012	COUNTDOWN_END	n/a	n/a	n/a	-999	19	[0, 0, 0]	n/a	FR1	0	R1052E
2159.177	2.568	1282016	ORIENT	n/a	n/a	n/a	-999	19	[0, 0, 0]	n/a	FR1	0	R1052E
2161.745	2.383	1283300	WORD	n/a	wordpools/wordpool_EN.txt	STOOL	1	19	[0, 0, 0]	n/a	FR1	0	R1052E
2164.128	2.601	1284491	WORD	n/a	wordpools/wordpool_EN.txt	TEA	2	19	[0, 0, 0]	n/a	FR1	0	R1052E
2166.729	2.384	1285792	WORD	n/a	wordpools/wordpool_EN.txt	GEESE	3	19	[0, 0, 0]	n/a	FR1	0	R1052E
2169.113	2.433	1286983	WORD	n/a	wordpools/wordpool_EN.txt	SOCK	4	19	[0, 0, 0]	n/a	FR1	0	R1052E
2171.546	2.517	1288200	WORD	n/a	wordpools/wordpool_EN.txt	CLOWN	5	19	[0, 0, 0]	n/a	FR1	0	R1052E
2174.063	2.468	1289458	WORD	n/a	wordpools/wordpool_EN.txt	PIG	6	19	[0, 0, 0]	n/a	FR1	0	R1052E
2176.531	2.5	1290692	WORD	n/a	wordpools/wordpool_EN.txt	FLUTE	7	19	[0, 0, 0]	n/a	FR1	0	R1052E
2179.031	2.567	1291942	WORD	n/a	wordpools/wordpool_EN.txt	BARN	8	19	[0, 0, 0]	n/a	FR1	0	R1052E
2181.598	2.601	1293226	WORD	n/a	wordpools/wordpool_EN.txt	TRUCK	9	19	[0, 0, 0]	n/a	FR1	0	R1052E
2184.199	2.467	1294526	WORD	n/a	wordpools/wordpool_EN.txt	FAN	10	19	[0, 0, 0]	n/a	FR1	0	R1052E
2186.666	2.433	1295759	WORD	n/a	wordpools/wordpool_EN.txt	HAT	11	19	[0, 0, 0]	n/a	FR1	0	R1052E
2189.099	1.617	1296976	WORD	n/a	wordpools/wordpool_EN.txt	MUG	12	19	[0, 0, 0]	n/a	FR1	0	R1052E
2190.716	0.001	1297784	DISTRACT_START	n/a	n/a	n/a	-999	19	[0, 0, 0]	n/a	FR1	0	R1052E
2190.717	0.016	1297785	START	n/a	n/a	n/a	-999	19	[-999, -999, -999]	n/a	FR1	0	R1052E
2190.733	16.636	1297793	PROB	16.636	n/a	n/a	-999	19	[3, 8, 3]	14	FR1	0	R1052E
2207.369	12.18	1306110	PROB	12.18	n/a	n/a	-999	19	[3, 1, 2]	6	FR1	0	R1052E
2219.549	0.006	1312200	STOP	n/a	n/a	n/a	-999	19	[-999, -999, -999]	n/a	FR1	0	R1052E
2219.555	1.1	1312203	DISTRACT_END	n/a	n/a	n/a	-999	19	[0, 0, 0]	n/a	FR1	0	R1052E
2220.655	3.126	1312753	REC_START	n/a	n/a	n/a	-999	19	[0, 0, 0]	n/a	FR1	0	R1052E
2223.781	2.318	1314316	REC_WORD	2.318	n/a	PIG	-999	19	[0, 0, 0]	n/a	FR1	0	R1052E
2226.099	2.353	1315475	REC_WORD	2.353	n/a	TEA	-999	19	[0, 0, 0]	n/a	FR1	0	R1052E
2228.452	2.72	1316651	REC_WORD	2.72	n/a	MUG	-999	19	[0, 0, 0]	n/a	FR1	0	R1052E
2231.172	5.439	1318011	REC_WORD	5.439	n/a	FLUTE	-999	19	[0, 0, 0]	n/a	FR1	0	R1052E
2236.611	14.061	1320730	REC_WORD	14.061	n/a	BARN	-999	19	[0, 0, 0]	n/a	FR1	0	R1052E
2250.672	2.789	1327760	REC_END	n/a	n/a	n/a	-999	19	[0, 0, 0]	n/a	FR1	0	R1052E
2253.461	0.0	1329155	COUNTDOWN_START	n/a	n/a	n/a	-999	20	[0, 0, 0]	n/a	FR1	0	R1052E
2253.461	10.428	1329155	TRIAL	n/a	n/a	n/a	-999	20	[0, 0, 0]	n/a	FR1	0	R1052E
2263.889	0.007	1334368	COUNTDOWN_END	n/a	n/a	n/a	-999	20	[0, 0, 0]	n/a	FR1	0	R1052E
2263.896	2.4	1334372	ORIENT	n/a	n/a	n/a	-999	20	[0, 0, 0]	n/a	FR1	0	R1052E
2266.296	2.434	1335572	WORD	n/a	wordpools/wordpool_EN.txt	INK	1	20	[0, 0, 0]	n/a	FR1	0	R1052E
2268.73	2.45	1336789	WORD	n/a	wordpools/wordpool_EN.txt	BREAD	2	20	[0, 0, 0]	n/a	FR1	0	R1052E
2271.18	2.517	1338014	WORD	n/a	wordpools/wordpool_EN.txt	PEACH	3	20	[0, 0, 0]	n/a	FR1	0	R1052E
2273.697	2.568	1339272	WORD	n/a	wordpools/wordpool_EN.txt	CART	4	20	[0, 0, 0]	n/a	FR1	0	R1052E
2276.265	2.617	1340556	WORD	n/a	wordpools/wordpool_EN.txt	SIGN	5	20	[0, 0, 0]	n/a	FR1	0	R1052E
2278.882	2.5	1341864	WORD	n/a	wordpools/wordpool_EN.txt	LAWN	6	20	[0, 0, 0]	n/a	FR1	0	R1052E
2281.382	2.584	1343114	WORD	n/a	wordpools/wordpool_EN.txt	WHALE	7	20	[0, 0, 0]	n/a	FR1	0	R1052E
2283.966	2.45	1344406	WORD	n/a	wordpools/wordpool_EN.txt	STREET	8	20	[0, 0, 0]	n/a	FR1	0	R1052E
2286.416	2.584	1345631	WORD	n/a	wordpools/wordpool_EN.txt	STOVE	9	20	[0, 0, 0]	n/a	FR1	0	R1052E
2289.0	2.601	1346923	WORD	n/a	wordpools/wordpool_EN.txt	GOLD	10	20	[0, 0, 0]	n/a	FR1	0	R1052E
2291.601	2.6	1348223	WORD	n/a	wordpools/wordpool_EN.txt	STONE	11	20	[0, 0, 0]	n/a	FR1	0	R1052E
2294.201	1.617	1349523	WORD	n/a	wordpools/wordpool_EN.txt	COIN	12	20	[0, 0, 0]	n/a	FR1	0	R1052E
2295.818	0.001	1350332	DISTRACT_START	n/a	n/a	n/a	-999	20	[0, 0, 0]	n/a	FR1	0	R1052E
2295.819	0.016	1350332	START	n/a	n/a	n/a	-999	20	[-999, -999, -999]	n/a	FR1	0	R1052E
2295.835	14.086	1350340	PROB	14.086	n/a	n/a	-999	20	[2, 3, 2]	7	FR1	0	R1052E
2309.921	9.707	1357383	PROB	9.707	n/a	n/a	-999	20	[5, 7, 1]	13	FR1	0	R1052E
2319.628	0.011	1362236	STOP	n/a	n/a	n/a	-999	20	[-999, -999, -999]	n/a	FR1	0	R1052E
2319.639	1.134	1362241	DISTRACT_END	n/a	n/a	n/a	-999	20	[0, 0, 0]	n/a	FR1	0	R1052E
2320.773	4.339	1362808	REC_START	n/a	n/a	n/a	-999	20	[0, 0, 0]	n/a	FR1	0	R1052E
2325.112	2.312	1364978	REC_WORD	2.312	n/a	INK	-999	20	[0, 0, 0]	n/a	FR1	0	R1052E
2327.424	2.714	1366134	REC_WORD	2.714	n/a	BREAD	-999	20	[0, 0, 0]	n/a	FR1	0	R1052E
2330.138	1.657	1367491	REC_WORD	1.657	n/a	PEACH	-999	20	[0, 0, 0]	n/a	FR1	0	R1052E
2331.795	2.388	1368319	REC_WORD	2.388	n/a	STOVE	-999	20	[0, 0, 0]	n/a	FR1	0	R1052E
2334.183	16.601	1369513	REC_WORD	16.601	n/a	STONE	-999	20	[0, 0, 0]	n/a	FR1	0	R1052E
2350.784	2.511	1377813	REC_END	n/a	n/a	n/a	-999	20	[0, 0, 0]	n/a	FR1	0	R1052E
2353.295	0.0	1379068	TRIAL	n/a	n/a	n/a	-999	21	[0, 0, 0]	n/a	FR1	0	R1052E
2353.295	10.428	1379068	COUNTDOWN_START	n/a	n/a	n/a	-999	21	[0, 0, 0]	n/a	FR1	0	R1052E
2363.723	0.007	1384282	COUNTDOWN_END	n/a	n/a	n/a	-999	21	[0, 0, 0]	n/a	FR1	0	R1052E
2363.73	2.467	1384285	ORIENT	n/a	n/a	n/a	-999	21	[0, 0, 0]	n/a	FR1	0	R1052E
2366.197	2.484	1385519	WORD	n/a	wordpools/wordpool_EN.txt	GRAPE	1	21	[0, 0, 0]	n/a	FR1	0	R1052E
2368.681	2.467	1386761	WORD	n/a	wordpools/wordpool_EN.txt	SOAP	2	21	[0, 0, 0]	n/a	FR1	0	R1052E
2371.148	2.467	1387994	WORD	n/a	wordpools/wordpool_EN.txt	FISH	3	21	[0, 0, 0]	n/a	FR1	0	R1052E
2373.615	2.45	1389228	WORD	n/a	wordpools/wordpool_EN.txt	SHRIMP	4	21	[0, 0, 0]	n/a	FR1	0	R1052E
2376.065	2.601	1390452	WORD	n/a	wordpools/wordpool_EN.txt	BEAN	5	21	[0, 0, 0]	n/a	FR1	0	R1052E
2378.666	2.617	1391753	WORD	n/a	wordpools/wordpool_EN.txt	SPRING	6	21	[0, 0, 0]	n/a	FR1	0	R1052E
2381.283	2.384	1393061	WORD	n/a	wordpools/wordpool_EN.txt	LIP	7	21	[0, 0, 0]	n/a	FR1	0	R1052E
2383.667	2.467	1394253	WORD	n/a	wordpools/wordpool_EN.txt	RIB	8	21	[0, 0, 0]	n/a	FR1	0	R1052E
2386.134	2.634	1395487	WORD	n/a	wordpools/wordpool_EN.txt	RICE	9	21	[0, 0, 0]	n/a	FR1	0	R1052E
2388.768	2.467	1396804	WORD	n/a	wordpools/wordpool_EN.txt	DIME	10	21	[0, 0, 0]	n/a	FR1	0	R1052E
2391.235	2.534	1398037	WORD	n/a	wordpools/wordpool_EN.txt	STEM	11	21	[0, 0, 0]	n/a	FR1	0	R1052E
2393.769	1.617	1399304	WORD	n/a	wordpools/wordpool_EN.txt	LEAF	12	21	[0, 0, 0]	n/a	FR1	0	R1052E
2395.386	0.0	1400112	DISTRACT_START	n/a	n/a	n/a	-999	21	[0, 0, 0]	n/a	FR1	0	R1052E
2395.386	0.016	1400112	START	n/a	n/a	n/a	-999	21	[-999, -999, -999]	n/a	FR1	0	R1052E
2395.402	11.969	1400120	PROB	11.969	n/a	n/a	-999	21	[5, 7, 4]	16	FR1	0	R1052E
2407.371	16.432	1406104	PROB	16.432	n/a	n/a	-999	21	[5, 8, 5]	18	FR1	0	R1052E
2423.803	0.004	1414320	STOP	n/a	n/a	n/a	-999	21	[-999, -999, -999]	n/a	FR1	0	R1052E
2423.807	1.034	1414322	DISTRACT_END	n/a	n/a	n/a	-999	21	[0, 0, 0]	n/a	FR1	0	R1052E
2424.841	0.995	1414839	REC_START	n/a	n/a	n/a	-999	21	[0, 0, 0]	n/a	FR1	0	R1052E
2425.836	2.449	1415336	REC_WORD	2.449	n/a	GRAPE	-999	21	[0, 0, 0]	n/a	FR1	0	R1052E
2428.285	1.958	1416561	REC_WORD	1.958	n/a	SOAP	-999	21	[0, 0, 0]	n/a	FR1	0	R1052E
2430.243	2.351	1417540	REC_WORD	2.351	n/a	LIP	-999	21	[0, 0, 0]	n/a	FR1	0	R1052E
2432.594	1.441	1418715	REC_WORD	1.441	n/a	SHRIMP	-999	21	[0, 0, 0]	n/a	FR1	0	R1052E
2434.035	20.823	1419436	REC_WORD	20.823	n/a	DIME	-999	21	[0, 0, 0]	n/a	FR1	0	R1052E
2454.858	2.455	1429846	REC_END	n/a	n/a	n/a	-999	21	[0, 0, 0]	n/a	FR1	0	R1052E
2457.313	0.0	1431074	COUNTDOWN_START	n/a	n/a	n/a	-999	22	[0, 0, 0]	n/a	FR1	0	R1052E
2457.313	10.428	1431074	TRIAL	n/a	n/a	n/a	-999	22	[0, 0, 0]	n/a	FR1	0	R1052E
2467.741	0.007	1436287	COUNTDOWN_END	n/a	n/a	n/a	-999	22	[0, 0, 0]	n/a	FR1	0	R1052E
2467.748	2.434	1436291	ORIENT	n/a	n/a	n/a	-999	22	[0, 0, 0]	n/a	FR1	0	R1052E
2470.182	2.55	1437508	WORD	n/a	wordpools/wordpool_EN.txt	FOOD	1	22	[0, 0, 0]	n/a	FR1	0	R1052E
2472.732	2.434	1438783	WORD	n/a	wordpools/wordpool_EN.txt	BRICK	2	22	[0, 0, 0]	n/a	FR1	0	R1052E
2475.166	2.434	1440000	WORD	n/a	wordpools/wordpool_EN.txt	PRINCE	3	22	[0, 0, 0]	n/a	FR1	0	R1052E
2477.6	2.483	1441217	WORD	n/a	wordpools/wordpool_EN.txt	WALL	4	22	[0, 0, 0]	n/a	FR1	0	R1052E
2480.083	2.451	1442458	WORD	n/a	wordpools/wordpool_EN.txt	SHIELD	5	22	[0, 0, 0]	n/a	FR1	0	R1052E
2482.534	2.617	1443683	WORD	n/a	wordpools/wordpool_EN.txt	PIE	6	22	[0, 0, 0]	n/a	FR1	0	R1052E
2485.151	2.601	1444992	WORD	n/a	wordpools/wordpool_EN.txt	FRUIT	7	22	[0, 0, 0]	n/a	FR1	0	R1052E
2487.752	2.483	1446292	WORD	n/a	wordpools/wordpool_EN.txt	CLAY	8	22	[0, 0, 0]	n/a	FR1	0	R1052E
2490.235	2.568	1447534	WORD	n/a	wordpools/wordpool_EN.txt	SHELL	9	22	[0, 0, 0]	n/a	FR1	0	R1052E
2492.803	2.5	1448818	WORD	n/a	wordpools/wordpool_EN.txt	SPEAR	10	22	[0, 0, 0]	n/a	FR1	0	R1052E
2495.303	2.434	1450067	WORD	n/a	wordpools/wordpool_EN.txt	CLOTH	11	22	[0, 0, 0]	n/a	FR1	0	R1052E
2497.737	1.617	1451284	WORD	n/a	wordpools/wordpool_EN.txt	FROG	12	22	[0, 0, 0]	n/a	FR1	0	R1052E
2499.354	0.0	1452093	DISTRACT_START	n/a	n/a	n/a	-999	22	[0, 0, 0]	n/a	FR1	0	R1052E
2499.354	0.016	1452093	START	n/a	n/a	n/a	-999	22	[-999, -999, -999]	n/a	FR1	0	R1052E
2499.37	24.024	1452101	PROB	24.024	n/a	n/a	-999	22	[8, 7, 2]	17	FR1	0	R1052E
2523.394	0.014	1464112	STOP	n/a	n/a	n/a	-999	22	[-999, -999, -999]	n/a	FR1	0	R1052E
2523.408	1.184	1464119	DISTRACT_END	n/a	n/a	n/a	-999	22	[0, 0, 0]	n/a	FR1	0	R1052E
2524.592	3.885	1464711	REC_START	n/a	n/a	n/a	-999	22	[0, 0, 0]	n/a	FR1	0	R1052E
2528.477	2.706	1466653	REC_WORD	2.706	n/a	FOOD	-999	22	[0, 0, 0]	n/a	FR1	0	R1052E
2531.183	1.831	1468006	REC_WORD	1.831	n/a	BRICK	-999	22	[0, 0, 0]	n/a	FR1	0	R1052E
2533.014	3.044	1468922	REC_WORD	3.044	n/a	WALL	-999	22	[0, 0, 0]	n/a	FR1	0	R1052E
2536.058	4.086	1470444	REC_WORD_VV	4.086	n/a	<>	-999	22	[0, 0, 0]	n/a	FR1	0	R1052E
2540.144	3.808	1472486	REC_WORD	3.808	n/a	FRUIT	-999	22	[0, 0, 0]	n/a	FR1	0	R1052E
2543.952	10.654	1474390	REC_WORD	10.654	n/a	SHIELD	-999	22	[0, 0, 0]	n/a	FR1	0	R1052E
2554.606	5.292	1479717	REC_END	n/a	n/a	n/a	-999	22	[0, 0, 0]	n/a	FR1	0	R1052E
2559.898	0.0	1482363	TRIAL	n/a	n/a	n/a	-999	23	[0, 0, 0]	n/a	FR1	0	R1052E
2559.898	10.428	1482363	COUNTDOWN_START	n/a	n/a	n/a	-999	23	[0, 0, 0]	n/a	FR1	0	R1052E
2570.326	0.007	1487576	COUNTDOWN_END	n/a	n/a	n/a	-999	23	[0, 0, 0]	n/a	FR1	0	R1052E
2570.333	2.417	1487580	ORIENT	n/a	n/a	n/a	-999	23	[0, 0, 0]	n/a	FR1	0	R1052E
2572.75	2.567	1488788	WORD	n/a	wordpools/wordpool_EN.txt	CORD	1	23	[0, 0, 0]	n/a	FR1	0	R1052E
2575.317	2.5	1490072	WORD	n/a	wordpools/wordpool_EN.txt	WAVE	2	23	[0, 0, 0]	n/a	FR1	0	R1052E
2577.817	2.518	1491322	WORD	n/a	wordpools/wordpool_EN.txt	JUICE	3	23	[0, 0, 0]	n/a	FR1	0	R1052E
2580.335	2.4	1492581	WORD	n/a	wordpools/wordpool_EN.txt	SHEEP	4	23	[0, 0, 0]	n/a	FR1	0	R1052E
2582.735	2.384	1493781	WORD	n/a	wordpools/wordpool_EN.txt	MAP	5	23	[0, 0, 0]	n/a	FR1	0	R1052E
2585.119	2.567	1494972	WORD	n/a	wordpools/wordpool_EN.txt	PLANE	6	23	[0, 0, 0]	n/a	FR1	0	R1052E
2587.686	2.617	1496256	WORD	n/a	wordpools/wordpool_EN.txt	CONE	7	23	[0, 0, 0]	n/a	FR1	0	R1052E
2590.303	2.6	1497564	WORD	n/a	wordpools/wordpool_EN.txt	SHIP	8	23	[0, 0, 0]	n/a	FR1	0	R1052E
2592.903	2.451	1498864	WORD	n/a	wordpools/wordpool_EN.txt	BOMB	9	23	[0, 0, 0]	n/a	FR1	0	R1052E
2595.354	2.484	1500090	WORD	n/a	wordpools/wordpool_EN.txt	POLE	10	23	[0, 0, 0]	n/a	FR1	0	R1052E
2597.838	2.466	1501332	WORD	n/a	wordpools/wordpool_EN.txt	ELF	11	23	[0, 0, 0]	n/a	FR1	0	R1052E
2600.304	1.601	1502564	WORD	n/a	wordpools/wordpool_EN.txt	MOON	12	23	[0, 0, 0]	n/a	FR1	0	R1052E
2601.905	0.001	1503365	DISTRACT_START	n/a	n/a	n/a	-999	23	[0, 0, 0]	n/a	FR1	0	R1052E
2601.906	0.016	1503365	START	n/a	n/a	n/a	-999	23	[-999, -999, -999]	n/a	FR1	0	R1052E
2601.922	23.301	1503373	PROB	23.301	n/a	n/a	-999	23	[4, 9, 9]	22	FR1	0	R1052E
2625.223	0.002	1515023	STOP	n/a	n/a	n/a	-999	23	[-999, -999, -999]	n/a	FR1	0	R1052E
2625.225	1.185	1515024	DISTRACT_END	n/a	n/a	n/a	-999	23	[0, 0, 0]	n/a	FR1	0	R1052E
2626.41	1.226	1515617	REC_START	n/a	n/a	n/a	-999	23	[0, 0, 0]	n/a	FR1	0	R1052E
2627.636	1.508	1516230	REC_WORD	1.508	n/a	CORD	-999	23	[0, 0, 0]	n/a	FR1	0	R1052E
2629.144	1.786	1516983	REC_WORD	1.786	n/a	WAVE	-999	23	[0, 0, 0]	n/a	FR1	0	R1052E
2630.93	3.99	1517876	REC_WORD	3.99	n/a	MAP	-999	23	[0, 0, 0]	n/a	FR1	0	R1052E
2634.92	8.864	1519871	REC_WORD	8.864	n/a	PLANE	-999	23	[0, 0, 0]	n/a	FR1	0	R1052E
2643.784	4.677	1524303	REC_WORD	4.677	n/a	SHIELD	-999	23	[0, 0, 0]	n/a	FR1	0	R1052E
2648.461	7.96	1526641	REC_WORD	7.96	n/a	SHIELD	-999	23	[0, 0, 0]	n/a	FR1	0	R1052E
2656.421	2.494	1530621	REC_END	n/a	n/a	n/a	-999	23	[0, 0, 0]	n/a	FR1	0	R1052E
2658.915	0.0	1531868	COUNTDOWN_START	n/a	n/a	n/a	-999	24	[0, 0, 0]	n/a	FR1	0	R1052E
2658.915	10.428	1531868	TRIAL	n/a	n/a	n/a	-999	24	[0, 0, 0]	n/a	FR1	0	R1052E
2669.343	0.007	1537082	COUNTDOWN_END	n/a	n/a	n/a	-999	24	[0, 0, 0]	n/a	FR1	0	R1052E
2669.35	2.567	1537085	ORIENT	n/a	n/a	n/a	-999	24	[0, 0, 0]	n/a	FR1	0	R1052E
2671.917	2.551	1538369	WORD	n/a	wordpools/wordpool_EN.txt	DOCK	1	24	[0, 0, 0]	n/a	FR1	0	R1052E
2674.468	2.55	1539644	WORD	n/a	wordpools/wordpool_EN.txt	FOAM	2	24	[0, 0, 0]	n/a	FR1	0	R1052E
2677.018	2.534	1540919	WORD	n/a	wordpools/wordpool_EN.txt	DRESS	3	24	[0, 0, 0]	n/a	FR1	0	R1052E
2679.552	2.384	1542186	WORD	n/a	wordpools/wordpool_EN.txt	HOLE	4	24	[0, 0, 0]	n/a	FR1	0	R1052E
2681.936	2.567	1543378	WORD	n/a	wordpools/wordpool_EN.txt	SALT	5	24	[0, 0, 0]	n/a	FR1	0	R1052E
2684.503	2.467	1544661	WORD	n/a	wordpools/wordpool_EN.txt	JAR	6	24	[0, 0, 0]	n/a	FR1	0	R1052E
2686.97	2.617	1545895	WORD	n/a	wordpools/wordpool_EN.txt	ROSE	7	24	[0, 0, 0]	n/a	FR1	0	R1052E
2689.587	2.417	1547203	WORD	n/a	wordpools/wordpool_EN.txt	BEAK	8	24	[0, 0, 0]	n/a	FR1	0	R1052E
2692.004	2.4	1548411	WORD	n/a	wordpools/wordpool_EN.txt	SPOON	9	24	[0, 0, 0]	n/a	FR1	0	R1052E
2694.404	2.551	1549611	WORD	n/a	wordpools/wordpool_EN.txt	SINK	10	24	[0, 0, 0]	n/a	FR1	0	R1052E
2696.955	2.4	1550887	WORD	n/a	wordpools/wordpool_EN.txt	BATH	11	24	[0, 0, 0]	n/a	FR1	0	R1052E
2699.355	1.617	1552087	WORD	n/a	wordpools/wordpool_EN.txt	THREAD	12	24	[0, 0, 0]	n/a	FR1	0	R1052E
2700.972	0.001	1552895	DISTRACT_START	n/a	n/a	n/a	-999	24	[0, 0, 0]	n/a	FR1	0	R1052E
2700.973	0.016	1552896	START	n/a	n/a	n/a	-999	24	[-999, -999, -999]	n/a	FR1	0	R1052E
2700.989	23.782	1552904	PROB	23.782	n/a	n/a	-999	24	[8, 9, 6]	23	FR1	0	R1052E
2724.771	0.005	1564794	STOP	n/a	n/a	n/a	-999	24	[-999, -999, -999]	n/a	FR1	0	R1052E
2724.776	1.068	1564796	DISTRACT_END	n/a	n/a	n/a	-999	24	[0, 0, 0]	n/a	FR1	0	R1052E
2725.844	1.001	1565330	REC_START	n/a	n/a	n/a	-999	24	[0, 0, 0]	n/a	FR1	0	R1052E
2726.845	2.206	1565831	REC_WORD	2.206	n/a	DRESS	-999	24	[0, 0, 0]	n/a	FR1	0	R1052E
2729.051	2.307	1566934	REC_WORD	2.307	n/a	HOLE	-999	24	[0, 0, 0]	n/a	FR1	0	R1052E
2731.358	4.066	1568087	REC_WORD	4.066	n/a	JAR	-999	24	[0, 0, 0]	n/a	FR1	0	R1052E
2735.424	20.43	1570120	REC_WORD_VV	20.43	n/a	<>	-999	24	[0, 0, 0]	n/a	FR1	0	R1052E
2755.854	2.445	1580334	REC_END	n/a	n/a	n/a	-999	24	[0, 0, 0]	n/a	FR1	0	R1052E
2758.299	0.0	1581557	TRIAL	n/a	n/a	n/a	-999	25	[0, 0, 0]	n/a	FR1	0	R1052E
2758.299	10.428	1581557	COUNTDOWN_START	n/a	n/a	n/a	-999	25	[0, 0, 0]	n/a	FR1	0	R1052E
2768.727	0.007	1586770	COUNTDOWN_END	n/a	n/a	n/a	-999	25	[0, 0, 0]	n/a	FR1	0	R1052E
2768.734	2.517	1586774	ORIENT	n/a	n/a	n/a	-999	25	[0, 0, 0]	n/a	FR1	0	R1052E
2771.251	2.401	1588032	WORD	n/a	wordpools/wordpool_EN.txt	MOLE	1	25	[0, 0, 0]	n/a	FR1	0	R1052E
2773.652	2.4	1589233	WORD	n/a	wordpools/wordpool_EN.txt	DUCK	2	25	[0, 0, 0]	n/a	FR1	0	R1052E
2776.052	2.434	1590432	WORD	n/a	wordpools/wordpool_EN.txt	TOOTH	3	25	[0, 0, 0]	n/a	FR1	0	R1052E
2778.486	2.5	1591649	WORD	n/a	wordpools/wordpool_EN.txt	SHIRT	4	25	[0, 0, 0]	n/a	FR1	0	R1052E
2780.986	2.551	1592899	WORD	n/a	wordpools/wordpool_EN.txt	BOAT	5	25	[0, 0, 0]	n/a	FR1	0	R1052E
2783.537	2.517	1594175	WORD	n/a	wordpools/wordpool_EN.txt	BOOT	6	25	[0, 0, 0]	n/a	FR1	0	R1052E
2786.054	2.517	1595433	WORD	n/a	wordpools/wordpool_EN.txt	SKUNK	7	25	[0, 0, 0]	n/a	FR1	0	R1052E
2788.571	2.417	1596692	WORD	n/a	wordpools/wordpool_EN.txt	TEETH	8	25	[0, 0, 0]	n/a	FR1	0	R1052E
2790.988	2.601	1597900	WORD	n/a	wordpools/wordpool_EN.txt	LOCK	9	25	[0, 0, 0]	n/a	FR1	0	R1052E
2793.589	2.617	1599200	WORD	n/a	wordpools/wordpool_EN.txt	SNAKE	10	25	[0, 0, 0]	n/a	FR1	0	R1052E
2796.206	2.484	1600509	WORD	n/a	wordpools/wordpool_EN.txt	ARK	11	25	[0, 0, 0]	n/a	FR1	0	R1052E
2798.69	1.616	1601751	WORD	n/a	wordpools/wordpool_EN.txt	CALF	12	25	[0, 0, 0]	n/a	FR1	0	R1052E
2800.306	0.001	1602559	DISTRACT_START	n/a	n/a	n/a	-999	25	[0, 0, 0]	n/a	FR1	0	R1052E
2800.307	0.016	1602559	START	n/a	n/a	n/a	-999	25	[-999, -999, -999]	n/a	FR1	0	R1052E
2800.323	13.103	1602567	PROB	13.103	n/a	n/a	-999	25	[6, 1, 6]	12	FR1	0	R1052E
2813.426	9.559	1609118	PROB	9.559	n/a	n/a	-999	25	[7, 1, 3]	11	FR1	0	R1052E
2822.985	0.009	1613897	STOP	n/a	n/a	n/a	-999	25	[-999, -999, -999]	n/a	FR1	0	R1052E
2822.994	1.084	1613902	DISTRACT_END	n/a	n/a	n/a	-999	25	[0, 0, 0]	n/a	FR1	0	R1052E
2824.078	1.648	1614444	REC_START	n/a	n/a	n/a	-999	25	[0, 0, 0]	n/a	FR1	0	R1052E
2825.726	4.136	1615268	REC_WORD	4.136	n/a	MOLE	-999	25	[0, 0, 0]	n/a	FR1	0	R1052E
2829.862	1.618	1617336	REC_WORD	1.618	n/a	BATH	-999	25	[0, 0, 0]	n/a	FR1	0	R1052E
2831.48	2.732	1618145	REC_WORD	2.732	n/a	DUCK	-999	25	[0, 0, 0]	n/a	FR1	0	R1052E
2834.212	3.081	1619511	REC_WORD_VV	3.081	n/a	<>	-999	25	[0, 0, 0]	n/a	FR1	0	R1052E
2837.293	7.494	1621051	REC_WORD	7.494	n/a	ARK	-999	25	[0, 0, 0]	n/a	FR1	0	R1052E
2844.787	9.302	1624798	REC_WORD	9.302	n/a	BOAT	-999	25	[0, 0, 0]	n/a	FR1	0	R1052E
2854.089	187.06	1629448	REC_END	n/a	n/a	n/a	-999	25	[0, 0, 0]	n/a	FR1	0	R1052E
3041.149	0.0	1722972	SESS_END	n/a	n/a	n/a	-999	25	[0, 0, 0]	n/a	FR1	0	R1052E
