onset	duration	sample	trial_type	response_time	stim_file	item_name	serialpos	list	test	answer	experiment	session	subject
0.0	0.0	-1	INSTRUCT_START	n/a	n/a	n/a	-999	-999	[0, 0, 0]	n/a	FR1	0	R1286J
0.0	0.0	-1	INSTRUCT_END	n/a	n/a	n/a	-999	-999	[0, 0, 0]	n/a	FR1	0	R1286J
0.0	0.0	-1	SESS_START	n/a	n/a	n/a	-999	-999	[0, 0, 0]	n/a	FR1	0	R1286J
0.0	721.149	-1	MIC_TEST	n/a	n/a	n/a	-999	-999	[0, 0, 0]	n/a	FR1	0	R1286J
721.149	2.489	684815	PRACTICE_TRIAL	n/a	n/a	n/a	-999	-1	[0, 0, 0]	n/a	FR1	0	R1286J
723.638	10.428	687304	COUNTDOWN_START	n/a	n/a	n/a	-999	-1	[0, 0, 0]	n/a	FR1	0	R1286J
734.066	0.006	697732	COUNTDOWN_END	n/a	n/a	n/a	-999	-1	[0, 0, 0]	n/a	FR1	0	R1286J
734.072	1.618	697738	PRACTICE_ORIENT	n/a	n/a	n/a	-999	-1	[0, 0, 0]	n/a	FR1	0	R1286J
735.69	2.199	699356	PRACTICE_ORIENT_OFF	n/a	n/a	n/a	-999	-1	[0, 0, 0]	n/a	FR1	0	R1286J
737.889	1.601	701555	PRACTICE_WORD	n/a	n/a	WAGON	1	-1	[0, 0, 0]	n/a	FR1	0	R1286J
739.49	0.934	703156	PRACTICE_WORD_OFF	n/a	n/a	WAGON	-999	-1	[0, 0, 0]	n/a	FR1	0	R1286J
740.424	1.616	704090	PRACTICE_WORD	n/a	n/a	CHEST	2	-1	[0, 0, 0]	n/a	FR1	0	R1286J
742.04	1.0	705706	PRACTICE_WORD_OFF	n/a	n/a	CHEST	-999	-1	[0, 0, 0]	n/a	FR1	0	R1286J
743.04	1.618	706706	PRACTICE_WORD	n/a	n/a	FLOOD	3	-1	[0, 0, 0]	n/a	FR1	0	R1286J
744.658	0.917	708324	PRACTICE_WORD_OFF	n/a	n/a	FLOOD	-999	-1	[0, 0, 0]	n/a	FR1	0	R1286J
745.575	1.616	709241	PRACTICE_WORD	n/a	n/a	TONGUE	4	-1	[0, 0, 0]	n/a	FR1	0	R1286J
747.191	0.867	710856	PRACTICE_WORD_OFF	n/a	n/a	TONGUE	-999	-1	[0, 0, 0]	n/a	FR1	0	R1286J
748.058	1.618	711723	PRACTICE_WORD	n/a	n/a	RHINO	5	-1	[0, 0, 0]	n/a	FR1	0	R1286J
749.676	0.883	713341	PRACTICE_WORD_OFF	n/a	n/a	RHINO	-999	-1	[0, 0, 0]	n/a	FR1	0	R1286J
750.559	1.616	714224	PRACTICE_WORD	n/a	n/a	IRON	6	-1	[0, 0, 0]	n/a	FR1	0	R1286J
752.175	0.867	715840	PRACTICE_WORD_OFF	n/a	n/a	IRON	-999	-1	[0, 0, 0]	n/a	FR1	0	R1286J
753.042	1.618	716707	PRACTICE_WORD	n/a	n/a	BEAM	7	-1	[0, 0, 0]	n/a	FR1	0	R1286J
754.66	0.783	718325	PRACTICE_WORD_OFF	n/a	n/a	BEAM	-999	-1	[0, 0, 0]	n/a	FR1	0	R1286J
755.443	1.616	719108	PRACTICE_WORD	n/a	n/a	ATTIC	8	-1	[0, 0, 0]	n/a	FR1	0	R1286J
757.059	1.017	720724	PRACTICE_WORD_OFF	n/a	n/a	ATTIC	-999	-1	[0, 0, 0]	n/a	FR1	0	R1286J
758.076	1.618	721741	PRACTICE_WORD	n/a	n/a	WATCH	9	-1	[0, 0, 0]	n/a	FR1	0	R1286J
759.694	0.983	723359	PRACTICE_WORD_OFF	n/a	n/a	WATCH	-999	-1	[0, 0, 0]	n/a	FR1	0	R1286J
760.677	1.617	724342	PRACTICE_WORD	n/a	n/a	COTTON	10	-1	[0, 0, 0]	n/a	FR1	0	R1286J
762.294	0.816	725959	PRACTICE_WORD_OFF	n/a	n/a	COTTON	-999	-1	[0, 0, 0]	n/a	FR1	0	R1286J
763.11	1.602	726775	PRACTICE_WORD	n/a	n/a	CAMEL	11	-1	[0, 0, 0]	n/a	FR1	0	R1286J
764.712	0.783	728377	PRACTICE_WORD_OFF	n/a	n/a	CAMEL	-999	-1	[0, 0, 0]	n/a	FR1	0	R1286J
765.495	1.616	729160	PRACTICE_WORD	n/a	n/a	RING	12	-1	[0, 0, 0]	n/a	FR1	0	R1286J
767.111	0.0	730776	PRACTICE_WORD_OFF	n/a	n/a	RING	-999	-1	[0, 0, 0]	n/a	FR1	0	R1286J
767.111	0.001	730776	DISTRACT_START	n/a	n/a	n/a	-999	-1	[0, 0, 0]	n/a	FR1	0	R1286J
767.112	0.016	730777	START	n/a	n/a	n/a	-999	-1	[-999, -999, -999]	n/a	FR1	0	R1286J
767.128	6.385	730793	PROB	6.385	n/a	n/a	-999	-1	[7, 4, 2]	13	FR1	0	R1286J
773.513	7.517	737178	PROB	7.517	n/a	n/a	-999	-1	[4, 6, 7]	17	FR1	0	R1286J
781.03	4.984	744694	PROB	4.984	n/a	n/a	-999	-1	[4, 5, 3]	12	FR1	0	R1286J
786.014	4.649	749678	PROB	4.649	n/a	n/a	-999	-1	[3, 3, 6]	12	FR1	0	R1286J
790.663	0.02	754327	STOP	n/a	n/a	n/a	-999	-1	[-999, -999, -999]	n/a	FR1	0	R1286J
790.683	0.582	754347	DISTRACT_END	n/a	n/a	n/a	-999	-1	[0, 0, 0]	n/a	FR1	0	R1286J
791.265	0.523	754929	RETRIEVAL_ORIENT	n/a	n/a	n/a	-999	-1	[0, 0, 0]	n/a	FR1	0	R1286J
791.788	30.01	755452	PRACTICE_REC_START	n/a	n/a	n/a	-999	-1	[0, 0, 0]	n/a	FR1	0	R1286J
821.798	16.026	785461	PRACTICE_REC_END	n/a	n/a	n/a	-999	-1	[0, 0, 0]	n/a	FR1	0	R1286J
837.824	0.0	801486	TRIAL	n/a	n/a	n/a	-999	1	[0, 0, 0]	n/a	FR1	0	R1286J
837.824	10.428	801486	COUNTDOWN_START	n/a	n/a	n/a	-999	1	[0, 0, 0]	n/a	FR1	0	R1286J
848.252	0.006	811914	COUNTDOWN_END	n/a	n/a	n/a	-999	1	[0, 0, 0]	n/a	FR1	0	R1286J
848.258	1.617	811920	ORIENT	n/a	n/a	n/a	-999	1	[0, 0, 0]	n/a	FR1	0	R1286J
849.875	2.201	813537	ORIENT_OFF	n/a	n/a	n/a	-999	1	[0, 0, 0]	n/a	FR1	0	R1286J
852.076	1.617	815738	WORD	n/a	wordpools/wordpool_EN.txt	PANTS	1	1	[0, 0, 0]	n/a	FR1	0	R1286J
853.693	0.884	817355	WORD_OFF	n/a	n/a	PANTS	1	1	[0, 0, 0]	n/a	FR1	0	R1286J
854.577	1.616	818239	WORD	n/a	wordpools/wordpool_EN.txt	BOY	2	1	[0, 0, 0]	n/a	FR1	0	R1286J
856.193	0.817	819855	WORD_OFF	n/a	n/a	BOY	2	1	[0, 0, 0]	n/a	FR1	0	R1286J
857.01	1.618	820672	WORD	n/a	wordpools/wordpool_EN.txt	PLANT	3	1	[0, 0, 0]	n/a	FR1	0	R1286J
858.628	0.816	822290	WORD_OFF	n/a	n/a	PLANT	3	1	[0, 0, 0]	n/a	FR1	0	R1286J
859.444	1.616	823106	WORD	n/a	wordpools/wordpool_EN.txt	TRASH	4	1	[0, 0, 0]	n/a	FR1	0	R1286J
861.06	0.851	824722	WORD_OFF	n/a	n/a	TRASH	4	1	[0, 0, 0]	n/a	FR1	0	R1286J
861.911	1.618	825573	WORD	n/a	wordpools/wordpool_EN.txt	STORE	5	1	[0, 0, 0]	n/a	FR1	0	R1286J
863.529	0.865	827190	WORD_OFF	n/a	n/a	STORE	5	1	[0, 0, 0]	n/a	FR1	0	R1286J
864.394	1.617	828055	WORD	n/a	wordpools/wordpool_EN.txt	OWL	6	1	[0, 0, 0]	n/a	FR1	0	R1286J
866.011	0.984	829672	WORD_OFF	n/a	n/a	OWL	6	1	[0, 0, 0]	n/a	FR1	0	R1286J
866.995	1.618	830656	WORD	n/a	wordpools/wordpool_EN.txt	WALL	7	1	[0, 0, 0]	n/a	FR1	0	R1286J
868.613	0.866	832274	WORD_OFF	n/a	n/a	WALL	7	1	[0, 0, 0]	n/a	FR1	0	R1286J
869.479	1.616	833140	WORD	n/a	wordpools/wordpool_EN.txt	PHONE	8	1	[0, 0, 0]	n/a	FR1	0	R1286J
871.095	0.901	834756	WORD_OFF	n/a	n/a	PHONE	8	1	[0, 0, 0]	n/a	FR1	0	R1286J
871.996	1.618	835657	WORD	n/a	wordpools/wordpool_EN.txt	SHIELD	9	1	[0, 0, 0]	n/a	FR1	0	R1286J
873.614	0.9	837275	WORD_OFF	n/a	n/a	SHIELD	9	1	[0, 0, 0]	n/a	FR1	0	R1286J
874.514	1.616	838175	WORD	n/a	wordpools/wordpool_EN.txt	PEARL	10	1	[0, 0, 0]	n/a	FR1	0	R1286J
876.13	0.983	839791	WORD_OFF	n/a	n/a	PEARL	10	1	[0, 0, 0]	n/a	FR1	0	R1286J
877.113	1.618	840774	WORD	n/a	wordpools/wordpool_EN.txt	WEED	11	1	[0, 0, 0]	n/a	FR1	0	R1286J
878.731	0.867	842392	WORD_OFF	n/a	n/a	WEED	11	1	[0, 0, 0]	n/a	FR1	0	R1286J
879.598	1.616	843259	WORD	n/a	wordpools/wordpool_EN.txt	POLE	12	1	[0, 0, 0]	n/a	FR1	0	R1286J
881.214	0.0	844875	WORD_OFF	n/a	n/a	POLE	12	1	[0, 0, 0]	n/a	FR1	0	R1286J
881.214	0.0	844875	DISTRACT_START	n/a	n/a	n/a	-999	1	[0, 0, 0]	n/a	FR1	0	R1286J
881.214	0.016	844875	START	n/a	n/a	n/a	-999	1	[-999, -999, -999]	n/a	FR1	0	R1286J
881.23	8.135	844891	PROB	8.135	n/a	n/a	-999	1	[2, 5, 9]	16	FR1	0	R1286J
889.365	4.185	853026	PROB	4.185	n/a	n/a	-999	1	[6, 7, 3]	15	FR1	0	R1286J
893.55	8.608	857210	PROB	8.608	n/a	n/a	-999	1	[6, 2, 4]	12	FR1	0	R1286J
902.158	0.009	865818	STOP	n/a	n/a	n/a	-999	1	[-999, -999, -999]	n/a	FR1	0	R1286J
902.167	0.7	865827	DISTRACT_END	n/a	n/a	n/a	-999	1	[0, 0, 0]	n/a	FR1	0	R1286J
902.867	0.518	866527	RETRIEVAL_ORIENT	n/a	n/a	n/a	-999	1	[0, 0, 0]	n/a	FR1	0	R1286J
903.385	2.848	867045	REC_START	n/a	n/a	n/a	-999	1	[0, 0, 0]	n/a	FR1	0	R1286J
906.233	7.516	869893	REC_WORD	7.516	n/a	RHINO	-999	1	[0, 0, 0]	n/a	FR1	0	R1286J
913.749	1.151	877409	REC_WORD	1.151	n/a	FOOT	-999	1	[0, 0, 0]	n/a	FR1	0	R1286J
914.9	0.767	878560	REC_WORD	0.767	n/a	TONGUE	-999	1	[0, 0, 0]	n/a	FR1	0	R1286J
915.667	3.728	879327	REC_WORD	3.728	n/a	CHEST	-999	1	[0, 0, 0]	n/a	FR1	0	R1286J
919.395	14.002	883055	REC_WORD_VV	14.002	n/a	<>	-999	1	[0, 0, 0]	n/a	FR1	0	R1286J
933.397	1.859	897056	REC_END	n/a	n/a	n/a	-999	1	[0, 0, 0]	n/a	FR1	0	R1286J
935.256	0.0	898915	COUNTDOWN_START	n/a	n/a	n/a	-999	2	[0, 0, 0]	n/a	FR1	0	R1286J
935.256	10.428	898915	TRIAL	n/a	n/a	n/a	-999	2	[0, 0, 0]	n/a	FR1	0	R1286J
945.684	0.009	909343	COUNTDOWN_END	n/a	n/a	n/a	-999	2	[0, 0, 0]	n/a	FR1	0	R1286J
945.693	1.615	909352	ORIENT	n/a	n/a	n/a	-999	2	[0, 0, 0]	n/a	FR1	0	R1286J
947.308	2.235	910967	ORIENT_OFF	n/a	n/a	n/a	-999	2	[0, 0, 0]	n/a	FR1	0	R1286J
949.543	1.616	913202	WORD	n/a	wordpools/wordpool_EN.txt	SHARK	1	2	[0, 0, 0]	n/a	FR1	0	R1286J
951.159	0.917	914817	WORD_OFF	n/a	n/a	SHARK	1	2	[0, 0, 0]	n/a	FR1	0	R1286J
952.076	1.618	915734	WORD	n/a	wordpools/wordpool_EN.txt	BOWL	2	2	[0, 0, 0]	n/a	FR1	0	R1286J
953.694	0.767	917352	WORD_OFF	n/a	n/a	BOWL	2	2	[0, 0, 0]	n/a	FR1	0	R1286J
954.461	1.615	918119	WORD	n/a	wordpools/wordpool_EN.txt	LEG	3	2	[0, 0, 0]	n/a	FR1	0	R1286J
956.076	0.884	919734	WORD_OFF	n/a	n/a	LEG	3	2	[0, 0, 0]	n/a	FR1	0	R1286J
956.96	1.618	920618	WORD	n/a	wordpools/wordpool_EN.txt	HILL	4	2	[0, 0, 0]	n/a	FR1	0	R1286J
958.578	0.883	922236	WORD_OFF	n/a	n/a	HILL	4	2	[0, 0, 0]	n/a	FR1	0	R1286J
959.461	1.616	923119	WORD	n/a	wordpools/wordpool_EN.txt	FOOD	5	2	[0, 0, 0]	n/a	FR1	0	R1286J
961.077	0.884	924735	WORD_OFF	n/a	n/a	FOOD	5	2	[0, 0, 0]	n/a	FR1	0	R1286J
961.961	1.618	925619	WORD	n/a	wordpools/wordpool_EN.txt	WORM	6	2	[0, 0, 0]	n/a	FR1	0	R1286J
963.579	0.883	927237	WORD_OFF	n/a	n/a	WORM	6	2	[0, 0, 0]	n/a	FR1	0	R1286J
964.462	1.616	928120	WORD	n/a	wordpools/wordpool_EN.txt	FACE	7	2	[0, 0, 0]	n/a	FR1	0	R1286J
966.078	0.8	929736	WORD_OFF	n/a	n/a	FACE	7	2	[0, 0, 0]	n/a	FR1	0	R1286J
966.878	1.602	930536	WORD	n/a	wordpools/wordpool_EN.txt	BED	8	2	[0, 0, 0]	n/a	FR1	0	R1286J
968.48	0.832	932138	WORD_OFF	n/a	n/a	BED	8	2	[0, 0, 0]	n/a	FR1	0	R1286J
969.312	1.617	932970	WORD	n/a	wordpools/wordpool_EN.txt	NOSE	9	2	[0, 0, 0]	n/a	FR1	0	R1286J
970.929	0.868	934587	WORD_OFF	n/a	n/a	NOSE	9	2	[0, 0, 0]	n/a	FR1	0	R1286J
971.797	1.617	935455	WORD	n/a	wordpools/wordpool_EN.txt	MUD	10	2	[0, 0, 0]	n/a	FR1	0	R1286J
973.414	0.832	937072	WORD_OFF	n/a	n/a	MUD	10	2	[0, 0, 0]	n/a	FR1	0	R1286J
974.246	1.617	937904	WORD	n/a	wordpools/wordpool_EN.txt	GLASS	11	2	[0, 0, 0]	n/a	FR1	0	R1286J
975.863	0.801	939521	WORD_OFF	n/a	n/a	GLASS	11	2	[0, 0, 0]	n/a	FR1	0	R1286J
976.664	1.616	940322	WORD	n/a	wordpools/wordpool_EN.txt	BENCH	12	2	[0, 0, 0]	n/a	FR1	0	R1286J
978.28	0.0	941938	WORD_OFF	n/a	n/a	BENCH	12	2	[0, 0, 0]	n/a	FR1	0	R1286J
978.28	0.001	941938	DISTRACT_START	n/a	n/a	n/a	-999	2	[0, 0, 0]	n/a	FR1	0	R1286J
978.281	0.016	941939	START	n/a	n/a	n/a	-999	2	[-999, -999, -999]	n/a	FR1	0	R1286J
978.297	13.17	941955	PROB	13.17	n/a	n/a	-999	2	[3, 8, 9]	20	FR1	0	R1286J
991.467	5.783	955124	PROB	5.783	n/a	n/a	-999	2	[9, 2, 3]	14	FR1	0	R1286J
997.25	12.176	960907	PROB	12.176	n/a	n/a	-999	2	[3, 9, 5]	17	FR1	0	R1286J
1009.426	0.01	973082	STOP	n/a	n/a	n/a	-999	2	[-999, -999, -999]	n/a	FR1	0	R1286J
1009.436	0.55	973092	DISTRACT_END	n/a	n/a	n/a	-999	2	[0, 0, 0]	n/a	FR1	0	R1286J
1009.986	0.518	973642	RETRIEVAL_ORIENT	n/a	n/a	n/a	-999	2	[0, 0, 0]	n/a	FR1	0	R1286J
1010.504	1.298	974160	REC_START	n/a	n/a	n/a	-999	2	[0, 0, 0]	n/a	FR1	0	R1286J
1011.802	1.487	975458	REC_WORD	1.487	n/a	SHARK	-999	2	[0, 0, 0]	n/a	FR1	0	R1286J
1013.289	0.814	976945	REC_WORD	0.814	n/a	BOWL	-999	2	[0, 0, 0]	n/a	FR1	0	R1286J
1014.103	1.358	977759	REC_WORD	1.358	n/a	HILL	-999	2	[0, 0, 0]	n/a	FR1	0	R1286J
1015.461	2.716	979117	REC_WORD	2.716	n/a	FACE	-999	2	[0, 0, 0]	n/a	FR1	0	R1286J
1018.177	11.953	981833	REC_WORD	11.953	n/a	NOSE	-999	2	[0, 0, 0]	n/a	FR1	0	R1286J
1030.13	10.388	993786	REC_WORD	10.388	n/a	FUSE	-999	2	[0, 0, 0]	n/a	FR1	0	R1286J
1040.518	1.84	1004173	REC_END	n/a	n/a	n/a	-999	2	[0, 0, 0]	n/a	FR1	0	R1286J
1042.358	0.0	1006013	TRIAL	n/a	n/a	n/a	-999	3	[0, 0, 0]	n/a	FR1	0	R1286J
1042.358	10.428	1006013	COUNTDOWN_START	n/a	n/a	n/a	-999	3	[0, 0, 0]	n/a	FR1	0	R1286J
1052.786	0.008	1016441	COUNTDOWN_END	n/a	n/a	n/a	-999	3	[0, 0, 0]	n/a	FR1	0	R1286J
1052.794	1.617	1016449	ORIENT	n/a	n/a	n/a	-999	3	[0, 0, 0]	n/a	FR1	0	R1286J
1054.411	2.084	1018066	ORIENT_OFF	n/a	n/a	n/a	-999	3	[0, 0, 0]	n/a	FR1	0	R1286J
1056.495	1.616	1020150	WORD	n/a	wordpools/wordpool_EN.txt	CAT	1	3	[0, 0, 0]	n/a	FR1	0	R1286J
1058.111	0.8	1021766	WORD_OFF	n/a	n/a	CAT	1	3	[0, 0, 0]	n/a	FR1	0	R1286J
1058.911	1.617	1022566	WORD	n/a	wordpools/wordpool_EN.txt	DOOR	2	3	[0, 0, 0]	n/a	FR1	0	R1286J
1060.528	0.934	1024183	WORD_OFF	n/a	n/a	DOOR	2	3	[0, 0, 0]	n/a	FR1	0	R1286J
1061.462	1.616	1025117	WORD	n/a	wordpools/wordpool_EN.txt	SEA	3	3	[0, 0, 0]	n/a	FR1	0	R1286J
1063.078	0.9	1026733	WORD_OFF	n/a	n/a	SEA	3	3	[0, 0, 0]	n/a	FR1	0	R1286J
1063.978	1.601	1027633	WORD	n/a	wordpools/wordpool_EN.txt	STEAK	4	3	[0, 0, 0]	n/a	FR1	0	R1286J
1065.579	0.901	1029234	WORD_OFF	n/a	n/a	STEAK	4	3	[0, 0, 0]	n/a	FR1	0	R1286J
1066.48	1.616	1030135	WORD	n/a	wordpools/wordpool_EN.txt	PASTE	5	3	[0, 0, 0]	n/a	FR1	0	R1286J
1068.096	0.9	1031750	WORD_OFF	n/a	n/a	PASTE	5	3	[0, 0, 0]	n/a	FR1	0	R1286J
1068.996	1.618	1032650	WORD	n/a	wordpools/wordpool_EN.txt	CROWN	6	3	[0, 0, 0]	n/a	FR1	0	R1286J
1070.614	1.0	1034268	WORD_OFF	n/a	n/a	CROWN	6	3	[0, 0, 0]	n/a	FR1	0	R1286J
1071.614	1.616	1035268	WORD	n/a	wordpools/wordpool_EN.txt	LEAF	7	3	[0, 0, 0]	n/a	FR1	0	R1286J
1073.23	0.816	1036884	WORD_OFF	n/a	n/a	LEAF	7	3	[0, 0, 0]	n/a	FR1	0	R1286J
1074.046	1.618	1037700	WORD	n/a	wordpools/wordpool_EN.txt	OAR	8	3	[0, 0, 0]	n/a	FR1	0	R1286J
1075.664	0.884	1039318	WORD_OFF	n/a	n/a	OAR	8	3	[0, 0, 0]	n/a	FR1	0	R1286J
1076.548	1.616	1040202	WORD	n/a	wordpools/wordpool_EN.txt	TRAIN	9	3	[0, 0, 0]	n/a	FR1	0	R1286J
1078.164	0.85	1041818	WORD_OFF	n/a	n/a	TRAIN	9	3	[0, 0, 0]	n/a	FR1	0	R1286J
1079.014	1.618	1042668	WORD	n/a	wordpools/wordpool_EN.txt	TANK	10	3	[0, 0, 0]	n/a	FR1	0	R1286J
1080.632	0.766	1044286	WORD_OFF	n/a	n/a	TANK	10	3	[0, 0, 0]	n/a	FR1	0	R1286J
1081.398	1.617	1045052	WORD	n/a	wordpools/wordpool_EN.txt	DOCK	11	3	[0, 0, 0]	n/a	FR1	0	R1286J
1083.015	0.883	1046669	WORD_OFF	n/a	n/a	DOCK	11	3	[0, 0, 0]	n/a	FR1	0	R1286J
1083.898	1.602	1047552	WORD	n/a	wordpools/wordpool_EN.txt	TOAST	12	3	[0, 0, 0]	n/a	FR1	0	R1286J
1085.5	0.0	1049154	WORD_OFF	n/a	n/a	TOAST	12	3	[0, 0, 0]	n/a	FR1	0	R1286J
1085.5	0.0	1049154	DISTRACT_START	n/a	n/a	n/a	-999	3	[0, 0, 0]	n/a	FR1	0	R1286J
1085.5	0.016	1049154	START	n/a	n/a	n/a	-999	3	[-999, -999, -999]	n/a	FR1	0	R1286J
1085.516	8.617	1049170	PROB	8.617	n/a	n/a	-999	3	[9, 9, 4]	22	FR1	0	R1286J
1094.133	5.751	1057787	PROB	5.751	n/a	n/a	-999	3	[4, 1, 8]	13	FR1	0	R1286J
1099.884	8.459	1063537	PROB	8.459	n/a	n/a	-999	3	[4, 5, 1]	10	FR1	0	R1286J
1108.343	0.009	1071996	STOP	n/a	n/a	n/a	-999	3	[-999, -999, -999]	n/a	FR1	0	R1286J
1108.352	0.617	1072005	DISTRACT_END	n/a	n/a	n/a	-999	3	[0, 0, 0]	n/a	FR1	0	R1286J
1108.969	0.519	1072622	RETRIEVAL_ORIENT	n/a	n/a	n/a	-999	3	[0, 0, 0]	n/a	FR1	0	R1286J
1109.488	1.833	1073141	REC_START	n/a	n/a	n/a	-999	3	[0, 0, 0]	n/a	FR1	0	R1286J
1111.321	1.159	1074974	REC_WORD	1.159	n/a	CAT	-999	3	[0, 0, 0]	n/a	FR1	0	R1286J
1112.48	1.073	1076133	REC_WORD	1.073	n/a	SORE	-999	3	[0, 0, 0]	n/a	FR1	0	R1286J
1113.553	1.764	1077206	REC_WORD	1.764	n/a	SEA	-999	3	[0, 0, 0]	n/a	FR1	0	R1286J
1115.317	2.424	1078970	REC_WORD	2.424	n/a	STEAK	-999	3	[0, 0, 0]	n/a	FR1	0	R1286J
1117.741	1.446	1081394	REC_WORD	1.446	n/a	FOOD	-999	3	[0, 0, 0]	n/a	FR1	0	R1286J
1119.187	20.313	1082840	REC_WORD	20.313	n/a	PASTE	-999	3	[0, 0, 0]	n/a	FR1	0	R1286J
1139.5	0.908	1103152	REC_END	n/a	n/a	n/a	-999	3	[0, 0, 0]	n/a	FR1	0	R1286J
1140.408	0.0	1104060	COUNTDOWN_START	n/a	n/a	n/a	-999	4	[0, 0, 0]	n/a	FR1	0	R1286J
1140.408	10.428	1104060	TRIAL	n/a	n/a	n/a	-999	4	[0, 0, 0]	n/a	FR1	0	R1286J
1150.836	0.007	1114488	COUNTDOWN_END	n/a	n/a	n/a	-999	4	[0, 0, 0]	n/a	FR1	0	R1286J
1150.843	1.618	1114495	ORIENT	n/a	n/a	n/a	-999	4	[0, 0, 0]	n/a	FR1	0	R1286J
1152.461	2.067	1116113	ORIENT_OFF	n/a	n/a	n/a	-999	4	[0, 0, 0]	n/a	FR1	0	R1286J
1154.528	1.616	1118180	WORD	n/a	wordpools/wordpool_EN.txt	SKY	1	4	[0, 0, 0]	n/a	FR1	0	R1286J
1156.144	0.883	1119795	WORD_OFF	n/a	n/a	SKY	1	4	[0, 0, 0]	n/a	FR1	0	R1286J
1157.027	1.618	1120678	WORD	n/a	wordpools/wordpool_EN.txt	INK	2	4	[0, 0, 0]	n/a	FR1	0	R1286J
1158.645	0.834	1122296	WORD_OFF	n/a	n/a	INK	2	4	[0, 0, 0]	n/a	FR1	0	R1286J
1159.479	1.616	1123130	WORD	n/a	wordpools/wordpool_EN.txt	BIRD	3	4	[0, 0, 0]	n/a	FR1	0	R1286J
1161.095	0.983	1124746	WORD_OFF	n/a	n/a	BIRD	3	4	[0, 0, 0]	n/a	FR1	0	R1286J
1162.078	1.618	1125729	WORD	n/a	wordpools/wordpool_EN.txt	LAND	4	4	[0, 0, 0]	n/a	FR1	0	R1286J
1163.696	0.95	1127347	WORD_OFF	n/a	n/a	LAND	4	4	[0, 0, 0]	n/a	FR1	0	R1286J
1164.646	1.616	1128297	WORD	n/a	wordpools/wordpool_EN.txt	RUG	5	4	[0, 0, 0]	n/a	FR1	0	R1286J
1166.262	1.0	1129913	WORD_OFF	n/a	n/a	RUG	5	4	[0, 0, 0]	n/a	FR1	0	R1286J
1167.262	1.617	1130913	WORD	n/a	wordpools/wordpool_EN.txt	DOG	6	4	[0, 0, 0]	n/a	FR1	0	R1286J
1168.879	0.885	1132530	WORD_OFF	n/a	n/a	DOG	6	4	[0, 0, 0]	n/a	FR1	0	R1286J
1169.764	1.616	1133415	WORD	n/a	wordpools/wordpool_EN.txt	EEL	7	4	[0, 0, 0]	n/a	FR1	0	R1286J
1171.38	0.833	1135031	WORD_OFF	n/a	n/a	EEL	7	4	[0, 0, 0]	n/a	FR1	0	R1286J
1172.213	1.618	1135864	WORD	n/a	wordpools/wordpool_EN.txt	TOOTH	8	4	[0, 0, 0]	n/a	FR1	0	R1286J
1173.831	0.867	1137482	WORD_OFF	n/a	n/a	TOOTH	8	4	[0, 0, 0]	n/a	FR1	0	R1286J
1174.698	1.616	1138349	WORD	n/a	wordpools/wordpool_EN.txt	ICE	9	4	[0, 0, 0]	n/a	FR1	0	R1286J
1176.314	0.85	1139965	WORD_OFF	n/a	n/a	ICE	9	4	[0, 0, 0]	n/a	FR1	0	R1286J
1177.164	1.618	1140815	WORD	n/a	wordpools/wordpool_EN.txt	CLOCK	10	4	[0, 0, 0]	n/a	FR1	0	R1286J
1178.782	0.9	1142433	WORD_OFF	n/a	n/a	CLOCK	10	4	[0, 0, 0]	n/a	FR1	0	R1286J
1179.682	1.616	1143333	WORD	n/a	wordpools/wordpool_EN.txt	NET	11	4	[0, 0, 0]	n/a	FR1	0	R1286J
1181.298	0.967	1144949	WORD_OFF	n/a	n/a	NET	11	4	[0, 0, 0]	n/a	FR1	0	R1286J
1182.265	1.617	1145916	WORD	n/a	wordpools/wordpool_EN.txt	STORM	12	4	[0, 0, 0]	n/a	FR1	0	R1286J
1183.882	0.0	1147533	WORD_OFF	n/a	n/a	STORM	12	4	[0, 0, 0]	n/a	FR1	0	R1286J
1183.882	0.001	1147533	DISTRACT_START	n/a	n/a	n/a	-999	4	[0, 0, 0]	n/a	FR1	0	R1286J
1183.883	0.016	1147534	START	n/a	n/a	n/a	-999	4	[-999, -999, -999]	n/a	FR1	0	R1286J
1183.899	8.268	1147550	PROB	8.268	n/a	n/a	-999	4	[2, 4, 5]	11	FR1	0	R1286J
1192.167	6.318	1155817	PROB	6.318	n/a	n/a	-999	4	[2, 4, 5]	11	FR1	0	R1286J
1198.485	3.984	1162135	PROB	3.984	n/a	n/a	-999	4	[8, 2, 3]	13	FR1	0	R1286J
1202.469	9.839	1166119	PROB	9.839	n/a	n/a	-999	4	[6, 8, 6]	20	FR1	0	R1286J
1212.308	0.012	1175958	STOP	n/a	n/a	n/a	-999	4	[-999, -999, -999]	n/a	FR1	0	R1286J
1212.32	0.567	1175970	DISTRACT_END	n/a	n/a	n/a	-999	4	[0, 0, 0]	n/a	FR1	0	R1286J
1212.887	0.517	1176537	RETRIEVAL_ORIENT	n/a	n/a	n/a	-999	4	[0, 0, 0]	n/a	FR1	0	R1286J
1213.404	0.695	1177053	REC_START	n/a	n/a	n/a	-999	4	[0, 0, 0]	n/a	FR1	0	R1286J
1214.099	1.594	1177748	REC_WORD	1.594	n/a	SKY	-999	4	[0, 0, 0]	n/a	FR1	0	R1286J
1215.693	1.3	1179342	REC_WORD	1.3	n/a	INK	-999	4	[0, 0, 0]	n/a	FR1	0	R1286J
1216.993	1.587	1180642	REC_WORD	1.587	n/a	BIRD	-999	4	[0, 0, 0]	n/a	FR1	0	R1286J
1218.58	1.946	1182229	REC_WORD	1.946	n/a	DOG	-999	4	[0, 0, 0]	n/a	FR1	0	R1286J
1220.526	7.762	1184175	REC_WORD	7.762	n/a	PASTE	-999	4	[0, 0, 0]	n/a	FR1	0	R1286J
1228.288	15.13	1191937	REC_WORD	15.13	n/a	CLOUD	-999	4	[0, 0, 0]	n/a	FR1	0	R1286J
1243.418	2.225	1207066	REC_END	n/a	n/a	n/a	-999	4	[0, 0, 0]	n/a	FR1	0	R1286J
1245.643	0.0	1209291	TRIAL	n/a	n/a	n/a	-999	5	[0, 0, 0]	n/a	FR1	0	R1286J
1245.643	10.428	1209291	COUNTDOWN_START	n/a	n/a	n/a	-999	5	[0, 0, 0]	n/a	FR1	0	R1286J
1256.071	0.007	1219719	COUNTDOWN_END	n/a	n/a	n/a	-999	5	[0, 0, 0]	n/a	FR1	0	R1286J
1256.078	1.617	1219726	ORIENT	n/a	n/a	n/a	-999	5	[0, 0, 0]	n/a	FR1	0	R1286J
1257.695	2.3	1221343	ORIENT_OFF	n/a	n/a	n/a	-999	5	[0, 0, 0]	n/a	FR1	0	R1286J
1259.995	1.601	1223643	WORD	n/a	wordpools/wordpool_EN.txt	RAT	1	5	[0, 0, 0]	n/a	FR1	0	R1286J
1261.596	0.834	1225244	WORD_OFF	n/a	n/a	RAT	1	5	[0, 0, 0]	n/a	FR1	0	R1286J
1262.43	1.616	1226078	WORD	n/a	wordpools/wordpool_EN.txt	HOOF	2	5	[0, 0, 0]	n/a	FR1	0	R1286J
1264.046	0.916	1227694	WORD_OFF	n/a	n/a	HOOF	2	5	[0, 0, 0]	n/a	FR1	0	R1286J
1264.962	1.601	1228610	WORD	n/a	wordpools/wordpool_EN.txt	TEETH	3	5	[0, 0, 0]	n/a	FR1	0	R1286J
1266.563	1.001	1230211	WORD_OFF	n/a	n/a	TEETH	3	5	[0, 0, 0]	n/a	FR1	0	R1286J
1267.564	1.616	1231212	WORD	n/a	wordpools/wordpool_EN.txt	SPARK	4	5	[0, 0, 0]	n/a	FR1	0	R1286J
1269.18	0.817	1232828	WORD_OFF	n/a	n/a	SPARK	4	5	[0, 0, 0]	n/a	FR1	0	R1286J
1269.997	1.617	1233645	WORD	n/a	wordpools/wordpool_EN.txt	ANT	5	5	[0, 0, 0]	n/a	FR1	0	R1286J
1271.614	0.783	1235262	WORD_OFF	n/a	n/a	ANT	5	5	[0, 0, 0]	n/a	FR1	0	R1286J
1272.397	1.617	1236044	WORD	n/a	wordpools/wordpool_EN.txt	SOUP	6	5	[0, 0, 0]	n/a	FR1	0	R1286J
1274.014	0.9	1237661	WORD_OFF	n/a	n/a	SOUP	6	5	[0, 0, 0]	n/a	FR1	0	R1286J
1274.914	1.601	1238561	WORD	n/a	wordpools/wordpool_EN.txt	HOLE	7	5	[0, 0, 0]	n/a	FR1	0	R1286J
1276.515	0.783	1240162	WORD_OFF	n/a	n/a	HOLE	7	5	[0, 0, 0]	n/a	FR1	0	R1286J
1277.298	1.617	1240945	WORD	n/a	wordpools/wordpool_EN.txt	GATE	8	5	[0, 0, 0]	n/a	FR1	0	R1286J
1278.915	0.95	1242562	WORD_OFF	n/a	n/a	GATE	8	5	[0, 0, 0]	n/a	FR1	0	R1286J
1279.865	1.618	1243512	WORD	n/a	wordpools/wordpool_EN.txt	HAWK	9	5	[0, 0, 0]	n/a	FR1	0	R1286J
1281.483	0.983	1245130	WORD_OFF	n/a	n/a	HAWK	9	5	[0, 0, 0]	n/a	FR1	0	R1286J
1282.466	1.616	1246113	WORD	n/a	wordpools/wordpool_EN.txt	BRICK	10	5	[0, 0, 0]	n/a	FR1	0	R1286J
1284.082	0.901	1247729	WORD_OFF	n/a	n/a	BRICK	10	5	[0, 0, 0]	n/a	FR1	0	R1286J
1284.983	1.617	1248630	WORD	n/a	wordpools/wordpool_EN.txt	MOON	11	5	[0, 0, 0]	n/a	FR1	0	R1286J
1286.6	0.884	1250247	WORD_OFF	n/a	n/a	MOON	11	5	[0, 0, 0]	n/a	FR1	0	R1286J
1287.484	1.616	1251131	WORD	n/a	wordpools/wordpool_EN.txt	CLIFF	12	5	[0, 0, 0]	n/a	FR1	0	R1286J
1289.1	0.0	1252747	WORD_OFF	n/a	n/a	CLIFF	12	5	[0, 0, 0]	n/a	FR1	0	R1286J
1289.1	0.0	1252747	DISTRACT_START	n/a	n/a	n/a	-999	5	[0, 0, 0]	n/a	FR1	0	R1286J
1289.1	0.016	1252747	START	n/a	n/a	n/a	-999	5	[-999, -999, -999]	n/a	FR1	0	R1286J
1289.116	7.919	1252763	PROB	7.919	n/a	n/a	-999	5	[6, 6, 3]	15	FR1	0	R1286J
1297.035	4.184	1260682	PROB	4.184	n/a	n/a	-999	5	[2, 3, 1]	6	FR1	0	R1286J
1301.219	5.234	1264865	PROB	5.234	n/a	n/a	-999	5	[1, 8, 3]	12	FR1	0	R1286J
1306.453	7.55	1270099	PROB	7.55	n/a	n/a	-999	5	[5, 7, 8]	20	FR1	0	R1286J
1314.003	0.018	1277649	STOP	n/a	n/a	n/a	-999	5	[-999, -999, -999]	n/a	FR1	0	R1286J
1314.021	0.584	1277667	DISTRACT_END	n/a	n/a	n/a	-999	5	[0, 0, 0]	n/a	FR1	0	R1286J
1314.605	0.516	1278251	RETRIEVAL_ORIENT	n/a	n/a	n/a	-999	5	[0, 0, 0]	n/a	FR1	0	R1286J
1315.121	2.19	1278767	REC_START	n/a	n/a	n/a	-999	5	[0, 0, 0]	n/a	FR1	0	R1286J
1317.311	1.055	1280957	REC_WORD	1.055	n/a	RAT	-999	5	[0, 0, 0]	n/a	FR1	0	R1286J
1318.366	1.581	1282012	REC_WORD	1.581	n/a	DOG	-999	5	[0, 0, 0]	n/a	FR1	0	R1286J
1319.947	1.682	1283593	REC_WORD	1.682	n/a	ANT	-999	5	[0, 0, 0]	n/a	FR1	0	R1286J
1321.629	10.538	1285275	REC_WORD	10.538	n/a	BRICK	-999	5	[0, 0, 0]	n/a	FR1	0	R1286J
1332.167	12.966	1295812	REC_WORD	12.966	n/a	NOSE	-999	5	[0, 0, 0]	n/a	FR1	0	R1286J
1345.133	2.428	1308778	REC_END	n/a	n/a	n/a	-999	5	[0, 0, 0]	n/a	FR1	0	R1286J
1347.561	0.0	1311206	TRIAL	n/a	n/a	n/a	-999	6	[0, 0, 0]	n/a	FR1	0	R1286J
1347.561	10.428	1311206	COUNTDOWN_START	n/a	n/a	n/a	-999	6	[0, 0, 0]	n/a	FR1	0	R1286J
1357.989	0.006	1321634	COUNTDOWN_END	n/a	n/a	n/a	-999	6	[0, 0, 0]	n/a	FR1	0	R1286J
1357.995	1.601	1321640	ORIENT	n/a	n/a	n/a	-999	6	[0, 0, 0]	n/a	FR1	0	R1286J
1359.596	2.416	1323240	ORIENT_OFF	n/a	n/a	n/a	-999	6	[0, 0, 0]	n/a	FR1	0	R1286J
1362.012	1.618	1325656	WORD	n/a	wordpools/wordpool_EN.txt	HORSE	1	6	[0, 0, 0]	n/a	FR1	0	R1286J
1363.63	1.0	1327274	WORD_OFF	n/a	n/a	HORSE	1	6	[0, 0, 0]	n/a	FR1	0	R1286J
1364.63	1.616	1328274	WORD	n/a	wordpools/wordpool_EN.txt	CLOTH	2	6	[0, 0, 0]	n/a	FR1	0	R1286J
1366.246	0.85	1329890	WORD_OFF	n/a	n/a	CLOTH	2	6	[0, 0, 0]	n/a	FR1	0	R1286J
1367.096	1.618	1330740	WORD	n/a	wordpools/wordpool_EN.txt	STONE	3	6	[0, 0, 0]	n/a	FR1	0	R1286J
1368.714	0.867	1332358	WORD_OFF	n/a	n/a	STONE	3	6	[0, 0, 0]	n/a	FR1	0	R1286J
1369.581	1.616	1333225	WORD	n/a	wordpools/wordpool_EN.txt	PEA	4	6	[0, 0, 0]	n/a	FR1	0	R1286J
1371.197	0.784	1334841	WORD_OFF	n/a	n/a	PEA	4	6	[0, 0, 0]	n/a	FR1	0	R1286J
1371.981	1.601	1335625	WORD	n/a	wordpools/wordpool_EN.txt	WOLF	5	6	[0, 0, 0]	n/a	FR1	0	R1286J
1373.582	0.9	1337226	WORD_OFF	n/a	n/a	WOLF	5	6	[0, 0, 0]	n/a	FR1	0	R1286J
1374.482	1.616	1338126	WORD	n/a	wordpools/wordpool_EN.txt	SAIL	6	6	[0, 0, 0]	n/a	FR1	0	R1286J
1376.098	0.85	1339742	WORD_OFF	n/a	n/a	SAIL	6	6	[0, 0, 0]	n/a	FR1	0	R1286J
1376.948	1.618	1340592	WORD	n/a	wordpools/wordpool_EN.txt	CLOWN	7	6	[0, 0, 0]	n/a	FR1	0	R1286J
1378.566	0.867	1342210	WORD_OFF	n/a	n/a	CLOWN	7	6	[0, 0, 0]	n/a	FR1	0	R1286J
1379.433	1.616	1343077	WORD	n/a	wordpools/wordpool_EN.txt	MOLE	8	6	[0, 0, 0]	n/a	FR1	0	R1286J
1381.049	0.967	1344693	WORD_OFF	n/a	n/a	MOLE	8	6	[0, 0, 0]	n/a	FR1	0	R1286J
1382.016	1.618	1345660	WORD	n/a	wordpools/wordpool_EN.txt	ROOT	9	6	[0, 0, 0]	n/a	FR1	0	R1286J
1383.634	0.95	1347278	WORD_OFF	n/a	n/a	ROOT	9	6	[0, 0, 0]	n/a	FR1	0	R1286J
1384.584	1.616	1348228	WORD	n/a	wordpools/wordpool_EN.txt	FORT	10	6	[0, 0, 0]	n/a	FR1	0	R1286J
1386.2	0.983	1349844	WORD_OFF	n/a	n/a	FORT	10	6	[0, 0, 0]	n/a	FR1	0	R1286J
1387.183	1.618	1350827	WORD	n/a	wordpools/wordpool_EN.txt	WHEEL	11	6	[0, 0, 0]	n/a	FR1	0	R1286J
1388.801	0.934	1352444	WORD_OFF	n/a	n/a	WHEEL	11	6	[0, 0, 0]	n/a	FR1	0	R1286J
1389.735	1.616	1353378	WORD	n/a	wordpools/wordpool_EN.txt	THUMB	12	6	[0, 0, 0]	n/a	FR1	0	R1286J
1391.351	0.0	1354994	WORD_OFF	n/a	n/a	THUMB	12	6	[0, 0, 0]	n/a	FR1	0	R1286J
1391.351	0.0	1354994	DISTRACT_START	n/a	n/a	n/a	-999	6	[0, 0, 0]	n/a	FR1	0	R1286J
1391.351	0.016	1354994	START	n/a	n/a	n/a	-999	6	[-999, -999, -999]	n/a	FR1	0	R1286J
1391.367	7.802	1355010	PROB	7.802	n/a	n/a	-999	6	[8, 4, 1]	13	FR1	0	R1286J
1399.169	3.917	1362812	PROB	3.917	n/a	n/a	-999	6	[6, 4, 1]	11	FR1	0	R1286J
1403.086	5.234	1366729	PROB	5.234	n/a	n/a	-999	6	[6, 1, 2]	9	FR1	0	R1286J
1408.32	8.327	1371963	PROB	8.327	n/a	n/a	-999	6	[9, 4, 8]	21	FR1	0	R1286J
1416.647	0.009	1380290	STOP	n/a	n/a	n/a	-999	6	[-999, -999, -999]	n/a	FR1	0	R1286J
1416.656	0.532	1380299	DISTRACT_END	n/a	n/a	n/a	-999	6	[0, 0, 0]	n/a	FR1	0	R1286J
1417.188	0.519	1380831	RETRIEVAL_ORIENT	n/a	n/a	n/a	-999	6	[0, 0, 0]	n/a	FR1	0	R1286J
1417.707	2.61	1381350	REC_START	n/a	n/a	n/a	-999	6	[0, 0, 0]	n/a	FR1	0	R1286J
1420.317	1.28	1383959	REC_WORD	1.28	n/a	SAIL	-999	6	[0, 0, 0]	n/a	FR1	0	R1286J
1421.597	0.882	1385239	REC_WORD	0.882	n/a	CLOTH	-999	6	[0, 0, 0]	n/a	FR1	0	R1286J
1422.479	1.529	1386121	REC_WORD	1.529	n/a	BIRD	-999	6	[0, 0, 0]	n/a	FR1	0	R1286J
1424.008	1.523	1387650	REC_WORD	1.523	n/a	DOG	-999	6	[0, 0, 0]	n/a	FR1	0	R1286J
1425.531	10.211	1389173	REC_WORD	10.211	n/a	PAINT	-999	6	[0, 0, 0]	n/a	FR1	0	R1286J
1435.742	11.977	1399384	REC_WORD	11.977	n/a	WHEEL	-999	6	[0, 0, 0]	n/a	FR1	0	R1286J
1447.719	1.792	1411360	REC_END	n/a	n/a	n/a	-999	6	[0, 0, 0]	n/a	FR1	0	R1286J
1449.511	0.0	1413152	TRIAL	n/a	n/a	n/a	-999	7	[0, 0, 0]	n/a	FR1	0	R1286J
1449.511	10.428	1413152	COUNTDOWN_START	n/a	n/a	n/a	-999	7	[0, 0, 0]	n/a	FR1	0	R1286J
1459.939	0.006	1423580	COUNTDOWN_END	n/a	n/a	n/a	-999	7	[0, 0, 0]	n/a	FR1	0	R1286J
1459.945	1.618	1423586	ORIENT	n/a	n/a	n/a	-999	7	[0, 0, 0]	n/a	FR1	0	R1286J
1461.563	2.251	1425204	ORIENT_OFF	n/a	n/a	n/a	-999	7	[0, 0, 0]	n/a	FR1	0	R1286J
1463.814	1.617	1427455	WORD	n/a	wordpools/wordpool_EN.txt	BEACH	1	7	[0, 0, 0]	n/a	FR1	0	R1286J
1465.431	0.816	1429072	WORD_OFF	n/a	n/a	BEACH	1	7	[0, 0, 0]	n/a	FR1	0	R1286J
1466.247	1.616	1429888	WORD	n/a	wordpools/wordpool_EN.txt	PIG	2	7	[0, 0, 0]	n/a	FR1	0	R1286J
1467.863	0.952	1431504	WORD_OFF	n/a	n/a	PIG	2	7	[0, 0, 0]	n/a	FR1	0	R1286J
1468.815	1.617	1432456	WORD	n/a	wordpools/wordpool_EN.txt	HAND	3	7	[0, 0, 0]	n/a	FR1	0	R1286J
1470.432	0.949	1434073	WORD_OFF	n/a	n/a	HAND	3	7	[0, 0, 0]	n/a	FR1	0	R1286J
1471.381	1.617	1435022	WORD	n/a	wordpools/wordpool_EN.txt	CAR	4	7	[0, 0, 0]	n/a	FR1	0	R1286J
1472.998	0.801	1436639	WORD_OFF	n/a	n/a	CAR	4	7	[0, 0, 0]	n/a	FR1	0	R1286J
1473.799	1.617	1437440	WORD	n/a	wordpools/wordpool_EN.txt	BREAD	5	7	[0, 0, 0]	n/a	FR1	0	R1286J
1475.416	0.882	1439057	WORD_OFF	n/a	n/a	BREAD	5	7	[0, 0, 0]	n/a	FR1	0	R1286J
1476.298	1.617	1439938	WORD	n/a	wordpools/wordpool_EN.txt	STAR	6	7	[0, 0, 0]	n/a	FR1	0	R1286J
1477.915	0.768	1441555	WORD_OFF	n/a	n/a	STAR	6	7	[0, 0, 0]	n/a	FR1	0	R1286J
1478.683	1.616	1442323	WORD	n/a	wordpools/wordpool_EN.txt	MAP	7	7	[0, 0, 0]	n/a	FR1	0	R1286J
1480.299	0.917	1443939	WORD_OFF	n/a	n/a	MAP	7	7	[0, 0, 0]	n/a	FR1	0	R1286J
1481.216	1.618	1444856	WORD	n/a	wordpools/wordpool_EN.txt	MOUTH	8	7	[0, 0, 0]	n/a	FR1	0	R1286J
1482.834	0.967	1446474	WORD_OFF	n/a	n/a	MOUTH	8	7	[0, 0, 0]	n/a	FR1	0	R1286J
1483.801	1.616	1447441	WORD	n/a	wordpools/wordpool_EN.txt	SNAIL	9	7	[0, 0, 0]	n/a	FR1	0	R1286J
1485.417	1.001	1449057	WORD_OFF	n/a	n/a	SNAIL	9	7	[0, 0, 0]	n/a	FR1	0	R1286J
1486.418	1.616	1450058	WORD	n/a	wordpools/wordpool_EN.txt	COIN	10	7	[0, 0, 0]	n/a	FR1	0	R1286J
1488.034	0.866	1451674	WORD_OFF	n/a	n/a	COIN	10	7	[0, 0, 0]	n/a	FR1	0	R1286J
1488.9	1.601	1452540	WORD	n/a	wordpools/wordpool_EN.txt	SHELL	11	7	[0, 0, 0]	n/a	FR1	0	R1286J
1490.501	0.984	1454141	WORD_OFF	n/a	n/a	SHELL	11	7	[0, 0, 0]	n/a	FR1	0	R1286J
1491.485	1.616	1455125	WORD	n/a	wordpools/wordpool_EN.txt	FROG	12	7	[0, 0, 0]	n/a	FR1	0	R1286J
1493.101	0.0	1456741	WORD_OFF	n/a	n/a	FROG	12	7	[0, 0, 0]	n/a	FR1	0	R1286J
1493.101	0.001	1456741	DISTRACT_START	n/a	n/a	n/a	-999	7	[0, 0, 0]	n/a	FR1	0	R1286J
1493.102	0.016	1456742	START	n/a	n/a	n/a	-999	7	[-999, -999, -999]	n/a	FR1	0	R1286J
1493.118	9.251	1456758	PROB	9.251	n/a	n/a	-999	7	[9, 7, 2]	18	FR1	0	R1286J
1502.369	7.885	1466009	PROB	7.885	n/a	n/a	-999	7	[3, 2, 5]	10	FR1	0	R1286J
1510.254	4.008	1473893	PROB	4.008	n/a	n/a	-999	7	[2, 2, 7]	11	FR1	0	R1286J
1514.262	0.009	1477901	STOP	n/a	n/a	n/a	-999	7	[-999, -999, -999]	n/a	FR1	0	R1286J
1514.271	0.535	1477910	DISTRACT_END	n/a	n/a	n/a	-999	7	[0, 0, 0]	n/a	FR1	0	R1286J
1514.806	0.516	1478445	RETRIEVAL_ORIENT	n/a	n/a	n/a	-999	7	[0, 0, 0]	n/a	FR1	0	R1286J
1515.322	2.275	1478961	REC_START	n/a	n/a	n/a	-999	7	[0, 0, 0]	n/a	FR1	0	R1286J
1517.597	1.542	1481236	REC_WORD	1.542	n/a	BEACH	-999	7	[0, 0, 0]	n/a	FR1	0	R1286J
1519.139	1.627	1482778	REC_WORD	1.627	n/a	PIG	-999	7	[0, 0, 0]	n/a	FR1	0	R1286J
1520.766	7.644	1484405	REC_WORD	7.644	n/a	HAND	-999	7	[0, 0, 0]	n/a	FR1	0	R1286J
1528.41	16.925	1492049	REC_WORD	16.925	n/a	WHEEL	-999	7	[0, 0, 0]	n/a	FR1	0	R1286J
1545.335	1.243	1508973	REC_END	n/a	n/a	n/a	-999	7	[0, 0, 0]	n/a	FR1	0	R1286J
1546.578	0.0	1510216	TRIAL	n/a	n/a	n/a	-999	8	[0, 0, 0]	n/a	FR1	0	R1286J
1546.578	10.428	1510216	COUNTDOWN_START	n/a	n/a	n/a	-999	8	[0, 0, 0]	n/a	FR1	0	R1286J
1557.006	0.006	1520644	COUNTDOWN_END	n/a	n/a	n/a	-999	8	[0, 0, 0]	n/a	FR1	0	R1286J
1557.012	1.618	1520650	ORIENT	n/a	n/a	n/a	-999	8	[0, 0, 0]	n/a	FR1	0	R1286J
1558.63	2.1	1522268	ORIENT_OFF	n/a	n/a	n/a	-999	8	[0, 0, 0]	n/a	FR1	0	R1286J
1560.73	1.616	1524368	WORD	n/a	wordpools/wordpool_EN.txt	BRIDGE	1	8	[0, 0, 0]	n/a	FR1	0	R1286J
1562.346	0.917	1525984	WORD_OFF	n/a	n/a	BRIDGE	1	8	[0, 0, 0]	n/a	FR1	0	R1286J
1563.263	1.617	1526901	WORD	n/a	wordpools/wordpool_EN.txt	ARM	2	8	[0, 0, 0]	n/a	FR1	0	R1286J
1564.88	0.801	1528517	WORD_OFF	n/a	n/a	ARM	2	8	[0, 0, 0]	n/a	FR1	0	R1286J
1565.681	1.616	1529318	WORD	n/a	wordpools/wordpool_EN.txt	HEN	3	8	[0, 0, 0]	n/a	FR1	0	R1286J
1567.297	1.0	1530934	WORD_OFF	n/a	n/a	HEN	3	8	[0, 0, 0]	n/a	FR1	0	R1286J
1568.297	1.617	1531934	WORD	n/a	wordpools/wordpool_EN.txt	APE	4	8	[0, 0, 0]	n/a	FR1	0	R1286J
1569.914	1.0	1533551	WORD_OFF	n/a	n/a	APE	4	8	[0, 0, 0]	n/a	FR1	0	R1286J
1570.914	1.618	1534551	WORD	n/a	wordpools/wordpool_EN.txt	PET	5	8	[0, 0, 0]	n/a	FR1	0	R1286J
1572.532	0.917	1536169	WORD_OFF	n/a	n/a	PET	5	8	[0, 0, 0]	n/a	FR1	0	R1286J
1573.449	1.616	1537086	WORD	n/a	wordpools/wordpool_EN.txt	EGG	6	8	[0, 0, 0]	n/a	FR1	0	R1286J
1575.065	0.934	1538702	WORD_OFF	n/a	n/a	EGG	6	8	[0, 0, 0]	n/a	FR1	0	R1286J
1575.999	1.617	1539636	WORD	n/a	wordpools/wordpool_EN.txt	SWAMP	7	8	[0, 0, 0]	n/a	FR1	0	R1286J
1577.616	0.801	1541253	WORD_OFF	n/a	n/a	SWAMP	7	8	[0, 0, 0]	n/a	FR1	0	R1286J
1578.417	1.616	1542054	WORD	n/a	wordpools/wordpool_EN.txt	BOOK	8	8	[0, 0, 0]	n/a	FR1	0	R1286J
1580.033	0.983	1543670	WORD_OFF	n/a	n/a	BOOK	8	8	[0, 0, 0]	n/a	FR1	0	R1286J
1581.016	1.601	1544653	WORD	n/a	wordpools/wordpool_EN.txt	SKI	9	8	[0, 0, 0]	n/a	FR1	0	R1286J
1582.617	0.783	1546254	WORD_OFF	n/a	n/a	SKI	9	8	[0, 0, 0]	n/a	FR1	0	R1286J
1583.4	1.617	1547037	WORD	n/a	wordpools/wordpool_EN.txt	PURSE	10	8	[0, 0, 0]	n/a	FR1	0	R1286J
1585.017	0.983	1548654	WORD_OFF	n/a	n/a	PURSE	10	8	[0, 0, 0]	n/a	FR1	0	R1286J
1586.0	1.618	1549637	WORD	n/a	wordpools/wordpool_EN.txt	ROCK	11	8	[0, 0, 0]	n/a	FR1	0	R1286J
1587.618	0.85	1551255	WORD_OFF	n/a	n/a	ROCK	11	8	[0, 0, 0]	n/a	FR1	0	R1286J
1588.468	1.616	1552105	WORD	n/a	wordpools/wordpool_EN.txt	SPONGE	12	8	[0, 0, 0]	n/a	FR1	0	R1286J
1590.084	0.0	1553721	WORD_OFF	n/a	n/a	SPONGE	12	8	[0, 0, 0]	n/a	FR1	0	R1286J
1590.084	0.001	1553721	DISTRACT_START	n/a	n/a	n/a	-999	8	[0, 0, 0]	n/a	FR1	0	R1286J
1590.085	0.016	1553722	START	n/a	n/a	n/a	-999	8	[-999, -999, -999]	n/a	FR1	0	R1286J
1590.101	7.652	1553738	PROB	7.652	n/a	n/a	-999	8	[4, 4, 1]	9	FR1	0	R1286J
1597.753	8.501	1561389	PROB	8.501	n/a	n/a	-999	8	[9, 4, 2]	15	FR1	0	R1286J
1606.254	6.551	1569890	PROB	6.551	n/a	n/a	-999	8	[2, 3, 5]	10	FR1	0	R1286J
1612.805	0.017	1576441	STOP	n/a	n/a	n/a	-999	8	[-999, -999, -999]	n/a	FR1	0	R1286J
1612.822	0.684	1576458	DISTRACT_END	n/a	n/a	n/a	-999	8	[0, 0, 0]	n/a	FR1	0	R1286J
1613.506	0.516	1577142	RETRIEVAL_ORIENT	n/a	n/a	n/a	-999	8	[0, 0, 0]	n/a	FR1	0	R1286J
1614.022	1.532	1577658	REC_START	n/a	n/a	n/a	-999	8	[0, 0, 0]	n/a	FR1	0	R1286J
1615.554	1.521	1579190	REC_WORD	1.521	n/a	BRIDGE	-999	8	[0, 0, 0]	n/a	FR1	0	R1286J
1617.075	1.641	1580711	REC_WORD	1.641	n/a	ARM	-999	8	[0, 0, 0]	n/a	FR1	0	R1286J
1618.716	2.175	1582352	REC_WORD	2.175	n/a	PEN	-999	8	[0, 0, 0]	n/a	FR1	0	R1286J
1620.891	13.352	1584527	REC_WORD	13.352	n/a	HEN	-999	8	[0, 0, 0]	n/a	FR1	0	R1286J
1634.243	9.79	1597878	REC_WORD	9.79	n/a	LOCK	-999	8	[0, 0, 0]	n/a	FR1	0	R1286J
1644.033	2.927	1607668	REC_END	n/a	n/a	n/a	-999	8	[0, 0, 0]	n/a	FR1	0	R1286J
1646.96	0.0	1610595	TRIAL	n/a	n/a	n/a	-999	9	[0, 0, 0]	n/a	FR1	0	R1286J
1646.96	10.428	1610595	COUNTDOWN_START	n/a	n/a	n/a	-999	9	[0, 0, 0]	n/a	FR1	0	R1286J
1657.388	0.008	1621022	COUNTDOWN_END	n/a	n/a	n/a	-999	9	[0, 0, 0]	n/a	FR1	0	R1286J
1657.396	1.617	1621030	ORIENT	n/a	n/a	n/a	-999	9	[0, 0, 0]	n/a	FR1	0	R1286J
1659.013	2.25	1622647	ORIENT_OFF	n/a	n/a	n/a	-999	9	[0, 0, 0]	n/a	FR1	0	R1286J
1661.263	1.617	1624897	WORD	n/a	wordpools/wordpool_EN.txt	DITCH	1	9	[0, 0, 0]	n/a	FR1	0	R1286J
1662.88	0.868	1626514	WORD_OFF	n/a	n/a	DITCH	1	9	[0, 0, 0]	n/a	FR1	0	R1286J
1663.748	1.616	1627382	WORD	n/a	wordpools/wordpool_EN.txt	SQUARE	2	9	[0, 0, 0]	n/a	FR1	0	R1286J
1665.364	0.817	1628998	WORD_OFF	n/a	n/a	SQUARE	2	9	[0, 0, 0]	n/a	FR1	0	R1286J
1666.181	1.617	1629815	WORD	n/a	wordpools/wordpool_EN.txt	CLAY	3	9	[0, 0, 0]	n/a	FR1	0	R1286J
1667.798	0.851	1631432	WORD_OFF	n/a	n/a	CLAY	3	9	[0, 0, 0]	n/a	FR1	0	R1286J
1668.649	1.616	1632283	WORD	n/a	wordpools/wordpool_EN.txt	FLAG	4	9	[0, 0, 0]	n/a	FR1	0	R1286J
1670.265	0.866	1633899	WORD_OFF	n/a	n/a	FLAG	4	9	[0, 0, 0]	n/a	FR1	0	R1286J
1671.131	1.618	1634765	WORD	n/a	wordpools/wordpool_EN.txt	TRUCK	5	9	[0, 0, 0]	n/a	FR1	0	R1286J
1672.749	0.8	1636383	WORD_OFF	n/a	n/a	TRUCK	5	9	[0, 0, 0]	n/a	FR1	0	R1286J
1673.549	1.616	1637183	WORD	n/a	wordpools/wordpool_EN.txt	FLOOR	6	9	[0, 0, 0]	n/a	FR1	0	R1286J
1675.165	0.934	1638799	WORD_OFF	n/a	n/a	FLOOR	6	9	[0, 0, 0]	n/a	FR1	0	R1286J
1676.099	1.601	1639733	WORD	n/a	wordpools/wordpool_EN.txt	JUDGE	7	9	[0, 0, 0]	n/a	FR1	0	R1286J
1677.7	0.917	1641334	WORD_OFF	n/a	n/a	JUDGE	7	9	[0, 0, 0]	n/a	FR1	0	R1286J
1678.617	1.616	1642251	WORD	n/a	wordpools/wordpool_EN.txt	TREE	8	9	[0, 0, 0]	n/a	FR1	0	R1286J
1680.233	0.916	1643867	WORD_OFF	n/a	n/a	TREE	8	9	[0, 0, 0]	n/a	FR1	0	R1286J
1681.149	1.619	1644782	WORD	n/a	wordpools/wordpool_EN.txt	FOX	9	9	[0, 0, 0]	n/a	FR1	0	R1286J
1682.768	0.967	1646401	WORD_OFF	n/a	n/a	FOX	9	9	[0, 0, 0]	n/a	FR1	0	R1286J
1683.735	1.615	1647368	WORD	n/a	wordpools/wordpool_EN.txt	TAIL	10	9	[0, 0, 0]	n/a	FR1	0	R1286J
1685.35	0.967	1648983	WORD_OFF	n/a	n/a	TAIL	10	9	[0, 0, 0]	n/a	FR1	0	R1286J
1686.317	1.617	1649950	WORD	n/a	wordpools/wordpool_EN.txt	PLANE	11	9	[0, 0, 0]	n/a	FR1	0	R1286J
1687.934	0.818	1651567	WORD_OFF	n/a	n/a	PLANE	11	9	[0, 0, 0]	n/a	FR1	0	R1286J
1688.752	1.616	1652385	WORD	n/a	wordpools/wordpool_EN.txt	ELF	12	9	[0, 0, 0]	n/a	FR1	0	R1286J
1690.368	0.0	1654001	DISTRACT_START	n/a	n/a	n/a	-999	9	[0, 0, 0]	n/a	FR1	0	R1286J
1690.368	0.0	1654001	WORD_OFF	n/a	n/a	ELF	12	9	[0, 0, 0]	n/a	FR1	0	R1286J
1690.368	0.017	1654001	START	n/a	n/a	n/a	-999	9	[-999, -999, -999]	n/a	FR1	0	R1286J
1690.385	7.968	1654018	PROB	7.968	n/a	n/a	-999	9	[2, 5, 2]	14	FR1	0	R1286J
1698.353	12.244	1661986	PROB	12.244	n/a	n/a	-999	9	[2, 9, 2]	13	FR1	0	R1286J
1710.597	0.009	1674229	STOP	n/a	n/a	n/a	-999	9	[-999, -999, -999]	n/a	FR1	0	R1286J
1710.606	0.582	1674238	DISTRACT_END	n/a	n/a	n/a	-999	9	[0, 0, 0]	n/a	FR1	0	R1286J
1711.188	0.52	1674820	RETRIEVAL_ORIENT	n/a	n/a	n/a	-999	9	[0, 0, 0]	n/a	FR1	0	R1286J
1711.708	2.401	1675340	REC_START	n/a	n/a	n/a	-999	9	[0, 0, 0]	n/a	FR1	0	R1286J
1714.109	2.15	1677741	REC_WORD	2.15	n/a	PLANE	-999	9	[0, 0, 0]	n/a	FR1	0	R1286J
1716.259	8.761	1679891	REC_WORD	8.761	n/a	PORCH	-999	9	[0, 0, 0]	n/a	FR1	0	R1286J
1725.02	2.151	1688652	REC_WORD	2.151	n/a	TRUCK	-999	9	[0, 0, 0]	n/a	FR1	0	R1286J
1727.171	14.549	1690803	REC_WORD	14.549	n/a	CLOCK	-999	9	[0, 0, 0]	n/a	FR1	0	R1286J
1741.72	2.257	1705351	REC_END	n/a	n/a	n/a	-999	9	[0, 0, 0]	n/a	FR1	0	R1286J
1743.977	0.0	1707608	TRIAL	n/a	n/a	n/a	-999	10	[0, 0, 0]	n/a	FR1	0	R1286J
1743.977	10.428	1707608	COUNTDOWN_START	n/a	n/a	n/a	-999	10	[0, 0, 0]	n/a	FR1	0	R1286J
1754.405	0.008	1718036	COUNTDOWN_END	n/a	n/a	n/a	-999	10	[0, 0, 0]	n/a	FR1	0	R1286J
1754.413	1.616	1718044	ORIENT	n/a	n/a	n/a	-999	10	[0, 0, 0]	n/a	FR1	0	R1286J
1756.029	2.084	1719660	ORIENT_OFF	n/a	n/a	n/a	-999	10	[0, 0, 0]	n/a	FR1	0	R1286J
1758.113	1.618	1721744	WORD	n/a	wordpools/wordpool_EN.txt	SHEEP	1	10	[0, 0, 0]	n/a	FR1	0	R1286J
1759.731	0.95	1723362	WORD_OFF	n/a	n/a	SHEEP	1	10	[0, 0, 0]	n/a	FR1	0	R1286J
1760.681	1.616	1724312	WORD	n/a	wordpools/wordpool_EN.txt	GEESE	2	10	[0, 0, 0]	n/a	FR1	0	R1286J
1762.297	0.817	1725928	WORD_OFF	n/a	n/a	GEESE	2	10	[0, 0, 0]	n/a	FR1	0	R1286J
1763.114	1.618	1726745	WORD	n/a	wordpools/wordpool_EN.txt	PEAR	3	10	[0, 0, 0]	n/a	FR1	0	R1286J
1764.732	1.0	1728363	WORD_OFF	n/a	n/a	PEAR	3	10	[0, 0, 0]	n/a	FR1	0	R1286J
1765.732	1.616	1729363	WORD	n/a	wordpools/wordpool_EN.txt	FRUIT	4	10	[0, 0, 0]	n/a	FR1	0	R1286J
1767.348	0.833	1730979	WORD_OFF	n/a	n/a	FRUIT	4	10	[0, 0, 0]	n/a	FR1	0	R1286J
1768.181	1.618	1731812	WORD	n/a	wordpools/wordpool_EN.txt	WING	5	10	[0, 0, 0]	n/a	FR1	0	R1286J
1769.799	0.9	1733429	WORD_OFF	n/a	n/a	WING	5	10	[0, 0, 0]	n/a	FR1	0	R1286J
1770.699	1.616	1734329	WORD	n/a	wordpools/wordpool_EN.txt	WHALE	6	10	[0, 0, 0]	n/a	FR1	0	R1286J
1772.315	0.8	1735945	WORD_OFF	n/a	n/a	WHALE	6	10	[0, 0, 0]	n/a	FR1	0	R1286J
1773.115	1.618	1736745	WORD	n/a	wordpools/wordpool_EN.txt	NEST	7	10	[0, 0, 0]	n/a	FR1	0	R1286J
1774.733	0.767	1738363	WORD_OFF	n/a	n/a	NEST	7	10	[0, 0, 0]	n/a	FR1	0	R1286J
1775.5	1.616	1739130	WORD	n/a	wordpools/wordpool_EN.txt	BLOOM	8	10	[0, 0, 0]	n/a	FR1	0	R1286J
1777.116	0.85	1740746	WORD_OFF	n/a	n/a	BLOOM	8	10	[0, 0, 0]	n/a	FR1	0	R1286J
1777.966	1.618	1741596	WORD	n/a	wordpools/wordpool_EN.txt	BALL	9	10	[0, 0, 0]	n/a	FR1	0	R1286J
1779.584	1.0	1743214	WORD_OFF	n/a	n/a	BALL	9	10	[0, 0, 0]	n/a	FR1	0	R1286J
1780.584	1.616	1744214	WORD	n/a	wordpools/wordpool_EN.txt	SUN	10	10	[0, 0, 0]	n/a	FR1	0	R1286J
1782.2	0.917	1745830	WORD_OFF	n/a	n/a	SUN	10	10	[0, 0, 0]	n/a	FR1	0	R1286J
1783.117	1.618	1746747	WORD	n/a	wordpools/wordpool_EN.txt	LAWN	11	10	[0, 0, 0]	n/a	FR1	0	R1286J
1784.735	0.9	1748365	WORD_OFF	n/a	n/a	LAWN	11	10	[0, 0, 0]	n/a	FR1	0	R1286J
1785.635	1.616	1749265	WORD	n/a	wordpools/wordpool_EN.txt	SNAKE	12	10	[0, 0, 0]	n/a	FR1	0	R1286J
1787.251	0.0	1750881	WORD_OFF	n/a	n/a	SNAKE	12	10	[0, 0, 0]	n/a	FR1	0	R1286J
1787.251	0.001	1750881	DISTRACT_START	n/a	n/a	n/a	-999	10	[0, 0, 0]	n/a	FR1	0	R1286J
1787.252	0.016	1750882	START	n/a	n/a	n/a	-999	10	[-999, -999, -999]	n/a	FR1	0	R1286J
1787.268	6.435	1750898	PROB	6.435	n/a	n/a	-999	10	[4, 1, 3]	8	FR1	0	R1286J
1793.703	6.751	1757333	PROB	6.751	n/a	n/a	-999	10	[9, 4, 3]	16	FR1	0	R1286J
1800.454	5.934	1764083	PROB	5.934	n/a	n/a	-999	10	[2, 4, 8]	14	FR1	0	R1286J
1806.388	6.508	1770017	PROB	6.508	n/a	n/a	-999	10	[9, 5, 2]	16	FR1	0	R1286J
1812.896	0.009	1776525	STOP	n/a	n/a	n/a	-999	10	[-999, -999, -999]	n/a	FR1	0	R1286J
1812.905	0.601	1776534	DISTRACT_END	n/a	n/a	n/a	-999	10	[0, 0, 0]	n/a	FR1	0	R1286J
1813.506	0.517	1777135	RETRIEVAL_ORIENT	n/a	n/a	n/a	-999	10	[0, 0, 0]	n/a	FR1	0	R1286J
1814.023	1.752	1777652	REC_START	n/a	n/a	n/a	-999	10	[0, 0, 0]	n/a	FR1	0	R1286J
1815.775	1.828	1779404	REC_WORD	1.828	n/a	SHEEP	-999	10	[0, 0, 0]	n/a	FR1	0	R1286J
1817.603	2.027	1781232	REC_WORD	2.027	n/a	GEESE	-999	10	[0, 0, 0]	n/a	FR1	0	R1286J
1819.63	8.968	1783259	REC_WORD	8.968	n/a	ARM	-999	10	[0, 0, 0]	n/a	FR1	0	R1286J
1828.598	1.985	1792226	REC_WORD	1.985	n/a	TRUCK	-999	10	[0, 0, 0]	n/a	FR1	0	R1286J
1830.583	13.453	1794211	REC_WORD	13.453	n/a	CLOCK	-999	10	[0, 0, 0]	n/a	FR1	0	R1286J
1844.036	2.543	1807664	REC_END	n/a	n/a	n/a	-999	10	[0, 0, 0]	n/a	FR1	0	R1286J
1846.579	0.0	1810207	TRIAL	n/a	n/a	n/a	-999	11	[0, 0, 0]	n/a	FR1	0	R1286J
1846.579	10.428	1810207	COUNTDOWN_START	n/a	n/a	n/a	-999	11	[0, 0, 0]	n/a	FR1	0	R1286J
1857.007	0.006	1820634	COUNTDOWN_END	n/a	n/a	n/a	-999	11	[0, 0, 0]	n/a	FR1	0	R1286J
1857.013	1.618	1820640	ORIENT	n/a	n/a	n/a	-999	11	[0, 0, 0]	n/a	FR1	0	R1286J
1858.631	2.333	1822258	ORIENT_OFF	n/a	n/a	n/a	-999	11	[0, 0, 0]	n/a	FR1	0	R1286J
1860.964	1.618	1824591	WORD	n/a	wordpools/wordpool_EN.txt	VAN	1	11	[0, 0, 0]	n/a	FR1	0	R1286J
1862.582	0.966	1826209	WORD_OFF	n/a	n/a	VAN	1	11	[0, 0, 0]	n/a	FR1	0	R1286J
1863.548	1.616	1827175	WORD	n/a	wordpools/wordpool_EN.txt	BANK	2	11	[0, 0, 0]	n/a	FR1	0	R1286J
1865.164	0.934	1828791	WORD_OFF	n/a	n/a	BANK	2	11	[0, 0, 0]	n/a	FR1	0	R1286J
1866.098	1.618	1829725	WORD	n/a	wordpools/wordpool_EN.txt	SUIT	3	11	[0, 0, 0]	n/a	FR1	0	R1286J
1867.716	0.983	1831343	WORD_OFF	n/a	n/a	SUIT	3	11	[0, 0, 0]	n/a	FR1	0	R1286J
1868.699	1.616	1832326	WORD	n/a	wordpools/wordpool_EN.txt	MUG	4	11	[0, 0, 0]	n/a	FR1	0	R1286J
1870.315	0.8	1833942	WORD_OFF	n/a	n/a	MUG	4	11	[0, 0, 0]	n/a	FR1	0	R1286J
1871.115	1.618	1834742	WORD	n/a	wordpools/wordpool_EN.txt	ROAD	5	11	[0, 0, 0]	n/a	FR1	0	R1286J
1872.733	0.85	1836360	WORD_OFF	n/a	n/a	ROAD	5	11	[0, 0, 0]	n/a	FR1	0	R1286J
1873.583	1.616	1837210	WORD	n/a	wordpools/wordpool_EN.txt	POND	6	11	[0, 0, 0]	n/a	FR1	0	R1286J
1875.199	0.767	1838826	WORD_OFF	n/a	n/a	POND	6	11	[0, 0, 0]	n/a	FR1	0	R1286J
1875.966	1.601	1839593	WORD	n/a	wordpools/wordpool_EN.txt	JAR	7	11	[0, 0, 0]	n/a	FR1	0	R1286J
1877.567	0.884	1841194	WORD_OFF	n/a	n/a	JAR	7	11	[0, 0, 0]	n/a	FR1	0	R1286J
1878.451	1.616	1842078	WORD	n/a	wordpools/wordpool_EN.txt	STAIR	8	11	[0, 0, 0]	n/a	FR1	0	R1286J
1880.067	0.9	1843694	WORD_OFF	n/a	n/a	STAIR	8	11	[0, 0, 0]	n/a	FR1	0	R1286J
1880.967	1.618	1844594	WORD	n/a	wordpools/wordpool_EN.txt	WEB	9	11	[0, 0, 0]	n/a	FR1	0	R1286J
1882.585	0.95	1846212	WORD_OFF	n/a	n/a	WEB	9	11	[0, 0, 0]	n/a	FR1	0	R1286J
1883.535	1.616	1847162	WORD	n/a	wordpools/wordpool_EN.txt	TOY	10	11	[0, 0, 0]	n/a	FR1	0	R1286J
1885.151	0.767	1848777	WORD_OFF	n/a	n/a	TOY	10	11	[0, 0, 0]	n/a	FR1	0	R1286J
1885.918	1.618	1849544	WORD	n/a	wordpools/wordpool_EN.txt	CONE	11	11	[0, 0, 0]	n/a	FR1	0	R1286J
1887.536	0.816	1851162	WORD_OFF	n/a	n/a	CONE	11	11	[0, 0, 0]	n/a	FR1	0	R1286J
1888.352	1.617	1851978	WORD	n/a	wordpools/wordpool_EN.txt	YARD	12	11	[0, 0, 0]	n/a	FR1	0	R1286J
1889.969	0.0	1853595	WORD_OFF	n/a	n/a	YARD	12	11	[0, 0, 0]	n/a	FR1	0	R1286J
1889.969	0.0	1853595	DISTRACT_START	n/a	n/a	n/a	-999	11	[0, 0, 0]	n/a	FR1	0	R1286J
1889.969	0.016	1853595	START	n/a	n/a	n/a	-999	11	[-999, -999, -999]	n/a	FR1	0	R1286J
1889.985	8.736	1853611	PROB	8.736	n/a	n/a	-999	11	[9, 6, 1]	16	FR1	0	R1286J
1898.721	7.034	1862347	PROB	7.034	n/a	n/a	-999	11	[6, 7, 8]	21	FR1	0	R1286J
1905.755	13.954	1869381	PROB	13.954	n/a	n/a	-999	11	[9, 9, 5]	23	FR1	0	R1286J
1919.709	0.016	1883334	STOP	n/a	n/a	n/a	-999	11	[-999, -999, -999]	n/a	FR1	0	R1286J
1919.725	0.665	1883350	DISTRACT_END	n/a	n/a	n/a	-999	11	[0, 0, 0]	n/a	FR1	0	R1286J
1920.39	0.519	1884015	RETRIEVAL_ORIENT	n/a	n/a	n/a	-999	11	[0, 0, 0]	n/a	FR1	0	R1286J
1920.909	1.376	1884534	REC_START	n/a	n/a	n/a	-999	11	[0, 0, 0]	n/a	FR1	0	R1286J
1922.285	1.373	1885910	REC_WORD	1.373	n/a	MUD	-999	11	[0, 0, 0]	n/a	FR1	0	R1286J
1923.658	1.929	1887283	REC_WORD	1.929	n/a	ROAD	-999	11	[0, 0, 0]	n/a	FR1	0	R1286J
1925.587	6.816	1889212	REC_WORD	6.816	n/a	COIN	-999	11	[0, 0, 0]	n/a	FR1	0	R1286J
1932.403	16.364	1896028	REC_WORD	16.364	n/a	STAMP	-999	11	[0, 0, 0]	n/a	FR1	0	R1286J
1948.767	2.155	1912391	REC_WORD	2.155	n/a	PAGE	-999	11	[0, 0, 0]	n/a	FR1	0	R1286J
1950.922	1.924	1914546	REC_END	n/a	n/a	n/a	-999	11	[0, 0, 0]	n/a	FR1	0	R1286J
1952.846	0.0	1916470	TRIAL	n/a	n/a	n/a	-999	12	[0, 0, 0]	n/a	FR1	0	R1286J
1952.846	10.428	1916470	COUNTDOWN_START	n/a	n/a	n/a	-999	12	[0, 0, 0]	n/a	FR1	0	R1286J
1963.274	0.007	1926898	COUNTDOWN_END	n/a	n/a	n/a	-999	12	[0, 0, 0]	n/a	FR1	0	R1286J
1963.281	1.617	1926905	ORIENT	n/a	n/a	n/a	-999	12	[0, 0, 0]	n/a	FR1	0	R1286J
1964.898	2.317	1928522	ORIENT_OFF	n/a	n/a	n/a	-999	12	[0, 0, 0]	n/a	FR1	0	R1286J
1967.215	1.601	1930839	WORD	n/a	wordpools/wordpool_EN.txt	BRUSH	1	12	[0, 0, 0]	n/a	FR1	0	R1286J
1968.816	0.967	1932440	WORD_OFF	n/a	n/a	BRUSH	1	12	[0, 0, 0]	n/a	FR1	0	R1286J
1969.783	1.616	1933407	WORD	n/a	wordpools/wordpool_EN.txt	CAGE	2	12	[0, 0, 0]	n/a	FR1	0	R1286J
1971.399	0.984	1935023	WORD_OFF	n/a	n/a	CAGE	2	12	[0, 0, 0]	n/a	FR1	0	R1286J
1972.383	1.616	1936007	WORD	n/a	wordpools/wordpool_EN.txt	PIN	3	12	[0, 0, 0]	n/a	FR1	0	R1286J
1973.999	0.951	1937622	WORD_OFF	n/a	n/a	PIN	3	12	[0, 0, 0]	n/a	FR1	0	R1286J
1974.95	1.618	1938573	WORD	n/a	wordpools/wordpool_EN.txt	TRAY	4	12	[0, 0, 0]	n/a	FR1	0	R1286J
1976.568	0.983	1940191	WORD_OFF	n/a	n/a	TRAY	4	12	[0, 0, 0]	n/a	FR1	0	R1286J
1977.551	1.616	1941174	WORD	n/a	wordpools/wordpool_EN.txt	RIB	5	12	[0, 0, 0]	n/a	FR1	0	R1286J
1979.167	0.933	1942790	WORD_OFF	n/a	n/a	RIB	5	12	[0, 0, 0]	n/a	FR1	0	R1286J
1980.1	1.602	1943723	WORD	n/a	wordpools/wordpool_EN.txt	CHAIR	6	12	[0, 0, 0]	n/a	FR1	0	R1286J
1981.702	0.8	1945325	WORD_OFF	n/a	n/a	CHAIR	6	12	[0, 0, 0]	n/a	FR1	0	R1286J
1982.502	1.616	1946125	WORD	n/a	wordpools/wordpool_EN.txt	PALM	7	12	[0, 0, 0]	n/a	FR1	0	R1286J
1984.118	0.9	1947741	WORD_OFF	n/a	n/a	PALM	7	12	[0, 0, 0]	n/a	FR1	0	R1286J
1985.018	1.618	1948641	WORD	n/a	wordpools/wordpool_EN.txt	DUCK	8	12	[0, 0, 0]	n/a	FR1	0	R1286J
1986.636	1.017	1950259	WORD_OFF	n/a	n/a	DUCK	8	12	[0, 0, 0]	n/a	FR1	0	R1286J
1987.653	1.616	1951276	WORD	n/a	wordpools/wordpool_EN.txt	SMILE	9	12	[0, 0, 0]	n/a	FR1	0	R1286J
1989.269	0.8	1952892	WORD_OFF	n/a	n/a	SMILE	9	12	[0, 0, 0]	n/a	FR1	0	R1286J
1990.069	1.601	1953692	WORD	n/a	wordpools/wordpool_EN.txt	CUP	10	12	[0, 0, 0]	n/a	FR1	0	R1286J
1991.67	0.984	1955293	WORD_OFF	n/a	n/a	CUP	10	12	[0, 0, 0]	n/a	FR1	0	R1286J
1992.654	1.616	1956277	WORD	n/a	wordpools/wordpool_EN.txt	BAND	11	12	[0, 0, 0]	n/a	FR1	0	R1286J
1994.27	0.966	1957893	WORD_OFF	n/a	n/a	BAND	11	12	[0, 0, 0]	n/a	FR1	0	R1286J
1995.236	1.617	1958859	WORD	n/a	wordpools/wordpool_EN.txt	SINK	12	12	[0, 0, 0]	n/a	FR1	0	R1286J
1996.853	0.0	1960476	WORD_OFF	n/a	n/a	SINK	12	12	[0, 0, 0]	n/a	FR1	0	R1286J
1996.853	0.001	1960476	DISTRACT_START	n/a	n/a	n/a	-999	12	[0, 0, 0]	n/a	FR1	0	R1286J
1996.854	0.016	1960477	START	n/a	n/a	n/a	-999	12	[-999, -999, -999]	n/a	FR1	0	R1286J
1996.87	7.401	1960493	PROB	7.401	n/a	n/a	-999	12	[5, 5, 3]	13	FR1	0	R1286J
2004.271	6.252	1967893	PROB	6.252	n/a	n/a	-999	12	[1, 9, 9]	19	FR1	0	R1286J
2010.523	6.268	1974145	PROB	6.268	n/a	n/a	-999	12	[8, 6, 4]	18	FR1	0	R1286J
2016.791	5.044	1980413	PROB	5.044	n/a	n/a	-999	12	[2, 2, 4]	8	FR1	0	R1286J
2021.835	0.023	1985457	STOP	n/a	n/a	n/a	-999	12	[-999, -999, -999]	n/a	FR1	0	R1286J
2021.858	0.567	1985480	DISTRACT_END	n/a	n/a	n/a	-999	12	[0, 0, 0]	n/a	FR1	0	R1286J
2022.425	0.517	1986047	RETRIEVAL_ORIENT	n/a	n/a	n/a	-999	12	[0, 0, 0]	n/a	FR1	0	R1286J
2022.942	1.101	1986564	REC_START	n/a	n/a	n/a	-999	12	[0, 0, 0]	n/a	FR1	0	R1286J
2024.043	1.238	1987665	REC_WORD	1.238	n/a	RIB	-999	12	[0, 0, 0]	n/a	FR1	0	R1286J
2025.281	1.242	1988903	REC_WORD	1.242	n/a	DUCK	-999	12	[0, 0, 0]	n/a	FR1	0	R1286J
2026.523	1.68	1990145	REC_WORD	1.68	n/a	CUP	-999	12	[0, 0, 0]	n/a	FR1	0	R1286J
2028.203	15.422	1991825	REC_WORD	15.422	n/a	SMILE	-999	12	[0, 0, 0]	n/a	FR1	0	R1286J
2043.625	9.329	2007246	REC_WORD_VV	9.329	n/a	<>	-999	12	[0, 0, 0]	n/a	FR1	0	R1286J
2052.954	1.409	2016575	REC_END	n/a	n/a	n/a	-999	12	[0, 0, 0]	n/a	FR1	0	R1286J
2054.363	0.0	2017984	TRIAL	n/a	n/a	n/a	-999	13	[0, 0, 0]	n/a	FR1	0	R1286J
2054.363	10.428	2017984	COUNTDOWN_START	n/a	n/a	n/a	-999	13	[0, 0, 0]	n/a	FR1	0	R1286J
2064.791	0.008	2028411	COUNTDOWN_END	n/a	n/a	n/a	-999	13	[0, 0, 0]	n/a	FR1	0	R1286J
2064.799	1.617	2028419	ORIENT	n/a	n/a	n/a	-999	13	[0, 0, 0]	n/a	FR1	0	R1286J
2066.416	2.0	2030036	ORIENT_OFF	n/a	n/a	n/a	-999	13	[0, 0, 0]	n/a	FR1	0	R1286J
2068.416	1.616	2032036	WORD	n/a	wordpools/wordpool_EN.txt	FUDGE	1	13	[0, 0, 0]	n/a	FR1	0	R1286J
2070.032	1.001	2033652	WORD_OFF	n/a	n/a	FUDGE	1	13	[0, 0, 0]	n/a	FR1	0	R1286J
2071.033	1.618	2034653	WORD	n/a	wordpools/wordpool_EN.txt	TOE	2	13	[0, 0, 0]	n/a	FR1	0	R1286J
2072.651	0.983	2036271	WORD_OFF	n/a	n/a	TOE	2	13	[0, 0, 0]	n/a	FR1	0	R1286J
2073.634	1.616	2037254	WORD	n/a	wordpools/wordpool_EN.txt	CORD	3	13	[0, 0, 0]	n/a	FR1	0	R1286J
2075.25	0.867	2038870	WORD_OFF	n/a	n/a	CORD	3	13	[0, 0, 0]	n/a	FR1	0	R1286J
2076.117	1.618	2039737	WORD	n/a	wordpools/wordpool_EN.txt	PRINCE	4	13	[0, 0, 0]	n/a	FR1	0	R1286J
2077.735	0.967	2041355	WORD_OFF	n/a	n/a	PRINCE	4	13	[0, 0, 0]	n/a	FR1	0	R1286J
2078.702	1.615	2042322	WORD	n/a	wordpools/wordpool_EN.txt	LAMP	5	13	[0, 0, 0]	n/a	FR1	0	R1286J
2080.317	0.984	2043937	WORD_OFF	n/a	n/a	LAMP	5	13	[0, 0, 0]	n/a	FR1	0	R1286J
2081.301	1.617	2044921	WORD	n/a	wordpools/wordpool_EN.txt	CLOUD	6	13	[0, 0, 0]	n/a	FR1	0	R1286J
2082.918	0.984	2046538	WORD_OFF	n/a	n/a	CLOUD	6	13	[0, 0, 0]	n/a	FR1	0	R1286J
2083.902	1.617	2047522	WORD	n/a	wordpools/wordpool_EN.txt	FILM	7	13	[0, 0, 0]	n/a	FR1	0	R1286J
2085.519	0.85	2049139	WORD_OFF	n/a	n/a	FILM	7	13	[0, 0, 0]	n/a	FR1	0	R1286J
2086.369	1.616	2049989	WORD	n/a	wordpools/wordpool_EN.txt	MULE	8	13	[0, 0, 0]	n/a	FR1	0	R1286J
2087.985	0.884	2051605	WORD_OFF	n/a	n/a	MULE	8	13	[0, 0, 0]	n/a	FR1	0	R1286J
2088.869	1.618	2052489	WORD	n/a	wordpools/wordpool_EN.txt	BOAT	9	13	[0, 0, 0]	n/a	FR1	0	R1286J
2090.487	0.967	2054106	WORD_OFF	n/a	n/a	BOAT	9	13	[0, 0, 0]	n/a	FR1	0	R1286J
2091.454	1.616	2055073	WORD	n/a	wordpools/wordpool_EN.txt	PEN	10	13	[0, 0, 0]	n/a	FR1	0	R1286J
2093.07	0.8	2056689	WORD_OFF	n/a	n/a	PEN	10	13	[0, 0, 0]	n/a	FR1	0	R1286J
2093.87	1.618	2057489	WORD	n/a	wordpools/wordpool_EN.txt	ZOO	11	13	[0, 0, 0]	n/a	FR1	0	R1286J
2095.488	0.899	2059107	WORD_OFF	n/a	n/a	ZOO	11	13	[0, 0, 0]	n/a	FR1	0	R1286J
2096.387	1.617	2060006	WORD	n/a	wordpools/wordpool_EN.txt	ROSE	12	13	[0, 0, 0]	n/a	FR1	0	R1286J
2098.004	0.0	2061623	WORD_OFF	n/a	n/a	ROSE	12	13	[0, 0, 0]	n/a	FR1	0	R1286J
2098.004	0.0	2061623	DISTRACT_START	n/a	n/a	n/a	-999	13	[0, 0, 0]	n/a	FR1	0	R1286J
2098.004	0.016	2061623	START	n/a	n/a	n/a	-999	13	[-999, -999, -999]	n/a	FR1	0	R1286J
2098.02	7.968	2061639	PROB	7.968	n/a	n/a	-999	13	[5, 9, 5]	19	FR1	0	R1286J
2105.988	7.869	2069607	PROB	7.869	n/a	n/a	-999	13	[7, 7, 8]	22	FR1	0	R1286J
2113.857	6.511	2077476	PROB	6.511	n/a	n/a	-999	13	[2, 8, 7]	17	FR1	0	R1286J
2120.368	0.023	2083986	STOP	n/a	n/a	n/a	-999	13	[-999, -999, -999]	n/a	FR1	0	R1286J
2120.391	0.617	2084009	DISTRACT_END	n/a	n/a	n/a	-999	13	[0, 0, 0]	n/a	FR1	0	R1286J
2121.008	0.518	2084626	RETRIEVAL_ORIENT	n/a	n/a	n/a	-999	13	[0, 0, 0]	n/a	FR1	0	R1286J
2121.526	1.757	2085144	REC_START	n/a	n/a	n/a	-999	13	[0, 0, 0]	n/a	FR1	0	R1286J
2123.283	1.773	2086901	REC_WORD	1.773	n/a	RIB	-999	13	[0, 0, 0]	n/a	FR1	0	R1286J
2125.056	1.38	2088674	REC_WORD	1.38	n/a	BOAT	-999	13	[0, 0, 0]	n/a	FR1	0	R1286J
2126.436	1.642	2090054	REC_WORD	1.642	n/a	PEN	-999	13	[0, 0, 0]	n/a	FR1	0	R1286J
2128.078	5.912	2091696	REC_WORD	5.912	n/a	ZOO	-999	13	[0, 0, 0]	n/a	FR1	0	R1286J
2133.99	17.548	2097608	REC_WORD	17.548	n/a	SMILE	-999	13	[0, 0, 0]	n/a	FR1	0	R1286J
2151.538	2.026	2115155	REC_END	n/a	n/a	n/a	-999	13	[0, 0, 0]	n/a	FR1	0	R1286J
2153.564	0.0	2117181	TRIAL	n/a	n/a	n/a	-999	14	[0, 0, 0]	n/a	FR1	0	R1286J
2153.564	10.428	2117181	COUNTDOWN_START	n/a	n/a	n/a	-999	14	[0, 0, 0]	n/a	FR1	0	R1286J
2163.992	0.006	2127609	COUNTDOWN_END	n/a	n/a	n/a	-999	14	[0, 0, 0]	n/a	FR1	0	R1286J
2163.998	1.602	2127615	ORIENT	n/a	n/a	n/a	-999	14	[0, 0, 0]	n/a	FR1	0	R1286J
2165.6	1.933	2129217	ORIENT_OFF	n/a	n/a	n/a	-999	14	[0, 0, 0]	n/a	FR1	0	R1286J
2167.533	1.616	2131150	WORD	n/a	wordpools/wordpool_EN.txt	JUICE	1	14	[0, 0, 0]	n/a	FR1	0	R1286J
2169.149	0.867	2132766	WORD_OFF	n/a	n/a	JUICE	1	14	[0, 0, 0]	n/a	FR1	0	R1286J
2170.016	1.601	2133633	WORD	n/a	wordpools/wordpool_EN.txt	LOCK	2	14	[0, 0, 0]	n/a	FR1	0	R1286J
2171.617	0.9	2135234	WORD_OFF	n/a	n/a	LOCK	2	14	[0, 0, 0]	n/a	FR1	0	R1286J
2172.517	1.616	2136134	WORD	n/a	wordpools/wordpool_EN.txt	WAND	3	14	[0, 0, 0]	n/a	FR1	0	R1286J
2174.133	0.984	2137750	WORD_OFF	n/a	n/a	WAND	3	14	[0, 0, 0]	n/a	FR1	0	R1286J
2175.117	1.601	2138734	WORD	n/a	wordpools/wordpool_EN.txt	SLEEVE	4	14	[0, 0, 0]	n/a	FR1	0	R1286J
2176.718	0.767	2140335	WORD_OFF	n/a	n/a	SLEEVE	4	14	[0, 0, 0]	n/a	FR1	0	R1286J
2177.485	1.616	2141101	WORD	n/a	wordpools/wordpool_EN.txt	FARM	5	14	[0, 0, 0]	n/a	FR1	0	R1286J
2179.101	0.867	2142717	WORD_OFF	n/a	n/a	FARM	5	14	[0, 0, 0]	n/a	FR1	0	R1286J
2179.968	1.618	2143584	WORD	n/a	wordpools/wordpool_EN.txt	EAR	6	14	[0, 0, 0]	n/a	FR1	0	R1286J
2181.586	0.866	2145202	WORD_OFF	n/a	n/a	EAR	6	14	[0, 0, 0]	n/a	FR1	0	R1286J
2182.452	1.616	2146068	WORD	n/a	wordpools/wordpool_EN.txt	CORN	7	14	[0, 0, 0]	n/a	FR1	0	R1286J
2184.068	0.917	2147684	WORD_OFF	n/a	n/a	CORN	7	14	[0, 0, 0]	n/a	FR1	0	R1286J
2184.985	1.601	2148601	WORD	n/a	wordpools/wordpool_EN.txt	GRAPE	8	14	[0, 0, 0]	n/a	FR1	0	R1286J
2186.586	0.8	2150202	WORD_OFF	n/a	n/a	GRAPE	8	14	[0, 0, 0]	n/a	FR1	0	R1286J
2187.386	1.617	2151002	WORD	n/a	wordpools/wordpool_EN.txt	CAVE	9	14	[0, 0, 0]	n/a	FR1	0	R1286J
2189.003	0.833	2152619	WORD_OFF	n/a	n/a	CAVE	9	14	[0, 0, 0]	n/a	FR1	0	R1286J
2189.836	1.618	2153452	WORD	n/a	wordpools/wordpool_EN.txt	COUCH	10	14	[0, 0, 0]	n/a	FR1	0	R1286J
2191.454	0.949	2155070	WORD_OFF	n/a	n/a	COUCH	10	14	[0, 0, 0]	n/a	FR1	0	R1286J
2192.403	1.617	2156019	WORD	n/a	wordpools/wordpool_EN.txt	SEAT	11	14	[0, 0, 0]	n/a	FR1	0	R1286J
2194.02	0.801	2157636	WORD_OFF	n/a	n/a	SEAT	11	14	[0, 0, 0]	n/a	FR1	0	R1286J
2194.821	1.617	2158437	WORD	n/a	wordpools/wordpool_EN.txt	CRANE	12	14	[0, 0, 0]	n/a	FR1	0	R1286J
2196.438	0.0	2160054	WORD_OFF	n/a	n/a	CRANE	12	14	[0, 0, 0]	n/a	FR1	0	R1286J
2196.438	0.001	2160054	DISTRACT_START	n/a	n/a	n/a	-999	14	[0, 0, 0]	n/a	FR1	0	R1286J
2196.439	0.016	2160055	START	n/a	n/a	n/a	-999	14	[-999, -999, -999]	n/a	FR1	0	R1286J
2196.455	7.567	2160071	PROB	7.567	n/a	n/a	-999	14	[1, 9, 2]	12	FR1	0	R1286J
2204.022	7.251	2167638	PROB	7.251	n/a	n/a	-999	14	[6, 7, 4]	17	FR1	0	R1286J
2211.273	8.079	2174888	PROB	8.079	n/a	n/a	-999	14	[3, 6, 6]	15	FR1	0	R1286J
2219.352	0.022	2182967	STOP	n/a	n/a	n/a	-999	14	[-999, -999, -999]	n/a	FR1	0	R1286J
2219.374	0.567	2182989	DISTRACT_END	n/a	n/a	n/a	-999	14	[0, 0, 0]	n/a	FR1	0	R1286J
2219.941	0.52	2183556	RETRIEVAL_ORIENT	n/a	n/a	n/a	-999	14	[0, 0, 0]	n/a	FR1	0	R1286J
2220.461	0.79	2184076	REC_START	n/a	n/a	n/a	-999	14	[0, 0, 0]	n/a	FR1	0	R1286J
2221.251	1.745	2184866	REC_WORD	1.745	n/a	JUICE	-999	14	[0, 0, 0]	n/a	FR1	0	R1286J
2222.996	1.887	2186611	REC_WORD	1.887	n/a	LOCK	-999	14	[0, 0, 0]	n/a	FR1	0	R1286J
2224.883	2.226	2188498	REC_WORD	2.226	n/a	SLEEVE	-999	14	[0, 0, 0]	n/a	FR1	0	R1286J
2227.109	1.594	2190724	REC_WORD	1.594	n/a	CAPE	-999	14	[0, 0, 0]	n/a	FR1	0	R1286J
2228.703	12.277	2192318	REC_WORD	12.277	n/a	CRANE	-999	14	[0, 0, 0]	n/a	FR1	0	R1286J
2240.98	2.029	2204594	REC_WORD	2.029	n/a	SLEEVE	-999	14	[0, 0, 0]	n/a	FR1	0	R1286J
2243.009	1.212	2206623	REC_WORD	1.212	n/a	CAPE	-999	14	[0, 0, 0]	n/a	FR1	0	R1286J
2244.221	5.08	2207835	REC_WORD	5.08	n/a	CRANE	-999	14	[0, 0, 0]	n/a	FR1	0	R1286J
2249.301	1.173	2212915	REC_WORD	1.173	n/a	SLEEVE	-999	14	[0, 0, 0]	n/a	FR1	0	R1286J
2250.474	2.04	2214088	REC_END	n/a	n/a	n/a	-999	14	[0, 0, 0]	n/a	FR1	0	R1286J
2252.514	0.0	2216128	COUNTDOWN_START	n/a	n/a	n/a	-999	15	[0, 0, 0]	n/a	FR1	0	R1286J
2252.514	10.428	2216128	TRIAL	n/a	n/a	n/a	-999	15	[0, 0, 0]	n/a	FR1	0	R1286J
2262.942	0.007	2226556	COUNTDOWN_END	n/a	n/a	n/a	-999	15	[0, 0, 0]	n/a	FR1	0	R1286J
2262.949	1.617	2226563	ORIENT	n/a	n/a	n/a	-999	15	[0, 0, 0]	n/a	FR1	0	R1286J
2264.566	1.816	2228180	ORIENT_OFF	n/a	n/a	n/a	-999	15	[0, 0, 0]	n/a	FR1	0	R1286J
2266.382	1.617	2229995	WORD	n/a	wordpools/wordpool_EN.txt	BLUSH	1	15	[0, 0, 0]	n/a	FR1	0	R1286J
2267.999	0.9	2231612	WORD_OFF	n/a	n/a	BLUSH	1	15	[0, 0, 0]	n/a	FR1	0	R1286J
2268.899	1.618	2232512	WORD	n/a	wordpools/wordpool_EN.txt	MILK	2	15	[0, 0, 0]	n/a	FR1	0	R1286J
2270.517	0.783	2234130	WORD_OFF	n/a	n/a	MILK	2	15	[0, 0, 0]	n/a	FR1	0	R1286J
2271.3	1.617	2234913	WORD	n/a	wordpools/wordpool_EN.txt	FLAME	3	15	[0, 0, 0]	n/a	FR1	0	R1286J
2272.917	1.0	2236530	WORD_OFF	n/a	n/a	FLAME	3	15	[0, 0, 0]	n/a	FR1	0	R1286J
2273.917	1.601	2237530	WORD	n/a	wordpools/wordpool_EN.txt	MOUSE	4	15	[0, 0, 0]	n/a	FR1	0	R1286J
2275.518	0.782	2239131	WORD_OFF	n/a	n/a	MOUSE	4	15	[0, 0, 0]	n/a	FR1	0	R1286J
2276.3	1.618	2239913	WORD	n/a	wordpools/wordpool_EN.txt	CART	5	15	[0, 0, 0]	n/a	FR1	0	R1286J
2277.918	0.917	2241531	WORD_OFF	n/a	n/a	CART	5	15	[0, 0, 0]	n/a	FR1	0	R1286J
2278.835	1.618	2242448	WORD	n/a	wordpools/wordpool_EN.txt	SHOE	6	15	[0, 0, 0]	n/a	FR1	0	R1286J
2280.453	0.882	2244066	WORD_OFF	n/a	n/a	SHOE	6	15	[0, 0, 0]	n/a	FR1	0	R1286J
2281.335	1.617	2244948	WORD	n/a	wordpools/wordpool_EN.txt	PIT	7	15	[0, 0, 0]	n/a	FR1	0	R1286J
2282.952	0.9	2246565	WORD_OFF	n/a	n/a	PIT	7	15	[0, 0, 0]	n/a	FR1	0	R1286J
2283.852	1.618	2247465	WORD	n/a	wordpools/wordpool_EN.txt	AXE	8	15	[0, 0, 0]	n/a	FR1	0	R1286J
2285.47	0.95	2249083	WORD_OFF	n/a	n/a	AXE	8	15	[0, 0, 0]	n/a	FR1	0	R1286J
2286.42	1.616	2250033	WORD	n/a	wordpools/wordpool_EN.txt	SIGN	9	15	[0, 0, 0]	n/a	FR1	0	R1286J
2288.036	1.0	2251649	WORD_OFF	n/a	n/a	SIGN	9	15	[0, 0, 0]	n/a	FR1	0	R1286J
2289.036	1.618	2252649	WORD	n/a	wordpools/wordpool_EN.txt	ROOF	10	15	[0, 0, 0]	n/a	FR1	0	R1286J
2290.654	0.867	2254267	WORD_OFF	n/a	n/a	ROOF	10	15	[0, 0, 0]	n/a	FR1	0	R1286J
2291.521	1.616	2255134	WORD	n/a	wordpools/wordpool_EN.txt	FENCE	11	15	[0, 0, 0]	n/a	FR1	0	R1286J
2293.137	0.783	2256750	WORD_OFF	n/a	n/a	FENCE	11	15	[0, 0, 0]	n/a	FR1	0	R1286J
2293.92	1.602	2257532	WORD	n/a	wordpools/wordpool_EN.txt	VASE	12	15	[0, 0, 0]	n/a	FR1	0	R1286J
2295.522	0.0	2259134	WORD_OFF	n/a	n/a	VASE	12	15	[0, 0, 0]	n/a	FR1	0	R1286J
2295.522	0.0	2259134	DISTRACT_START	n/a	n/a	n/a	-999	15	[0, 0, 0]	n/a	FR1	0	R1286J
2295.522	0.016	2259134	START	n/a	n/a	n/a	-999	15	[-999, -999, -999]	n/a	FR1	0	R1286J
2295.538	35.153	2259150	PROB	35.153	n/a	n/a	-999	15	[8, 8, 9]	23	FR1	0	R1286J
2330.691	0.02	2294302	STOP	n/a	n/a	n/a	-999	15	[-999, -999, -999]	n/a	FR1	0	R1286J
2330.711	0.7	2294322	DISTRACT_END	n/a	n/a	n/a	-999	15	[0, 0, 0]	n/a	FR1	0	R1286J
2331.411	0.517	2295022	RETRIEVAL_ORIENT	n/a	n/a	n/a	-999	15	[0, 0, 0]	n/a	FR1	0	R1286J
2331.928	2.95	2295539	REC_START	n/a	n/a	n/a	-999	15	[0, 0, 0]	n/a	FR1	0	R1286J
2334.878	1.195	2298489	REC_WORD	1.195	n/a	AXE	-999	15	[0, 0, 0]	n/a	FR1	0	R1286J
2336.073	1.737	2299684	REC_WORD	1.737	n/a	MOUSE	-999	15	[0, 0, 0]	n/a	FR1	0	R1286J
2337.81	1.738	2301421	REC_WORD	1.738	n/a	CART	-999	15	[0, 0, 0]	n/a	FR1	0	R1286J
2339.548	2.044	2303159	REC_WORD	2.044	n/a	SHOE	-999	15	[0, 0, 0]	n/a	FR1	0	R1286J
2341.592	2.957	2305203	REC_WORD	2.957	n/a	CRANE	-999	15	[0, 0, 0]	n/a	FR1	0	R1286J
2344.549	17.393	2308160	REC_WORD	17.393	n/a	PIT	-999	15	[0, 0, 0]	n/a	FR1	0	R1286J
2361.942	9.308	2325552	REC_END	n/a	n/a	n/a	-999	15	[0, 0, 0]	n/a	FR1	0	R1286J
2371.25	0.0	2334860	TRIAL	n/a	n/a	n/a	-999	16	[0, 0, 0]	n/a	FR1	0	R1286J
2371.25	10.428	2334860	COUNTDOWN_START	n/a	n/a	n/a	-999	16	[0, 0, 0]	n/a	FR1	0	R1286J
2381.678	0.008	2345287	COUNTDOWN_END	n/a	n/a	n/a	-999	16	[0, 0, 0]	n/a	FR1	0	R1286J
2381.686	1.616	2345295	ORIENT	n/a	n/a	n/a	-999	16	[0, 0, 0]	n/a	FR1	0	R1286J
2383.302	1.934	2346911	ORIENT_OFF	n/a	n/a	n/a	-999	16	[0, 0, 0]	n/a	FR1	0	R1286J
2385.236	1.617	2348845	WORD	n/a	wordpools/wordpool_EN.txt	STEM	1	16	[0, 0, 0]	n/a	FR1	0	R1286J
2386.853	1.0	2350462	WORD_OFF	n/a	n/a	STEM	1	16	[0, 0, 0]	n/a	FR1	0	R1286J
2387.853	1.618	2351462	WORD	n/a	wordpools/wordpool_EN.txt	BEAR	2	16	[0, 0, 0]	n/a	FR1	0	R1286J
2389.471	0.882	2353080	WORD_OFF	n/a	n/a	BEAR	2	16	[0, 0, 0]	n/a	FR1	0	R1286J
2390.353	1.617	2353962	WORD	n/a	wordpools/wordpool_EN.txt	COW	3	16	[0, 0, 0]	n/a	FR1	0	R1286J
2391.97	0.867	2355579	WORD_OFF	n/a	n/a	COW	3	16	[0, 0, 0]	n/a	FR1	0	R1286J
2392.837	1.618	2356446	WORD	n/a	wordpools/wordpool_EN.txt	SNOW	4	16	[0, 0, 0]	n/a	FR1	0	R1286J
2394.455	0.866	2358064	WORD_OFF	n/a	n/a	SNOW	4	16	[0, 0, 0]	n/a	FR1	0	R1286J
2395.321	1.617	2358930	WORD	n/a	wordpools/wordpool_EN.txt	WOOD	5	16	[0, 0, 0]	n/a	FR1	0	R1286J
2396.938	0.983	2360547	WORD_OFF	n/a	n/a	WOOD	5	16	[0, 0, 0]	n/a	FR1	0	R1286J
2397.921	1.618	2361530	WORD	n/a	wordpools/wordpool_EN.txt	MAZE	6	16	[0, 0, 0]	n/a	FR1	0	R1286J
2399.539	0.766	2363148	WORD_OFF	n/a	n/a	MAZE	6	16	[0, 0, 0]	n/a	FR1	0	R1286J
2400.305	1.617	2363914	WORD	n/a	wordpools/wordpool_EN.txt	HOUSE	7	16	[0, 0, 0]	n/a	FR1	0	R1286J
2401.922	0.885	2365531	WORD_OFF	n/a	n/a	HOUSE	7	16	[0, 0, 0]	n/a	FR1	0	R1286J
2402.807	1.616	2366416	WORD	n/a	wordpools/wordpool_EN.txt	SEED	8	16	[0, 0, 0]	n/a	FR1	0	R1286J
2404.423	0.883	2368032	WORD_OFF	n/a	n/a	SEED	8	16	[0, 0, 0]	n/a	FR1	0	R1286J
2405.306	1.617	2368915	WORD	n/a	wordpools/wordpool_EN.txt	HEART	9	16	[0, 0, 0]	n/a	FR1	0	R1286J
2406.923	0.967	2370532	WORD_OFF	n/a	n/a	HEART	9	16	[0, 0, 0]	n/a	FR1	0	R1286J
2407.89	1.618	2371499	WORD	n/a	wordpools/wordpool_EN.txt	MOOSE	10	16	[0, 0, 0]	n/a	FR1	0	R1286J
2409.508	0.899	2373117	WORD_OFF	n/a	n/a	MOOSE	10	16	[0, 0, 0]	n/a	FR1	0	R1286J
2410.407	1.617	2374016	WORD	n/a	wordpools/wordpool_EN.txt	ROPE	11	16	[0, 0, 0]	n/a	FR1	0	R1286J
2412.024	0.983	2375632	WORD_OFF	n/a	n/a	ROPE	11	16	[0, 0, 0]	n/a	FR1	0	R1286J
2413.007	1.618	2376615	WORD	n/a	wordpools/wordpool_EN.txt	LAKE	12	16	[0, 0, 0]	n/a	FR1	0	R1286J
2414.625	0.0	2378233	WORD_OFF	n/a	n/a	LAKE	12	16	[0, 0, 0]	n/a	FR1	0	R1286J
2414.625	0.001	2378233	DISTRACT_START	n/a	n/a	n/a	-999	16	[0, 0, 0]	n/a	FR1	0	R1286J
2414.626	0.016	2378234	START	n/a	n/a	n/a	-999	16	[-999, -999, -999]	n/a	FR1	0	R1286J
2414.642	8.234	2378250	PROB	8.234	n/a	n/a	-999	16	[5, 9, 8]	22	FR1	0	R1286J
2422.876	4.568	2386484	PROB	4.568	n/a	n/a	-999	16	[5, 8, 2]	15	FR1	0	R1286J
2427.444	5.917	2391052	PROB	5.917	n/a	n/a	-999	16	[3, 2, 1]	6	FR1	0	R1286J
2433.361	4.311	2396969	PROB	4.311	n/a	n/a	-999	16	[5, 2, 5]	12	FR1	0	R1286J
2437.672	0.007	2401280	STOP	n/a	n/a	n/a	-999	16	[-999, -999, -999]	n/a	FR1	0	R1286J
2437.679	0.633	2401287	DISTRACT_END	n/a	n/a	n/a	-999	16	[0, 0, 0]	n/a	FR1	0	R1286J
2438.312	0.518	2401920	RETRIEVAL_ORIENT	n/a	n/a	n/a	-999	16	[0, 0, 0]	n/a	FR1	0	R1286J
2438.83	1.528	2402438	REC_START	n/a	n/a	n/a	-999	16	[0, 0, 0]	n/a	FR1	0	R1286J
2440.358	1.798	2403965	REC_WORD	1.798	n/a	STEM	-999	16	[0, 0, 0]	n/a	FR1	0	R1286J
2442.156	1.691	2405763	REC_WORD	1.691	n/a	BEAR	-999	16	[0, 0, 0]	n/a	FR1	0	R1286J
2443.847	4.383	2407454	REC_WORD	4.383	n/a	HOUSE	-999	16	[0, 0, 0]	n/a	FR1	0	R1286J
2448.23	8.85	2411837	REC_WORD	8.85	n/a	ROOF	-999	16	[0, 0, 0]	n/a	FR1	0	R1286J
2457.08	1.697	2420687	REC_WORD	1.697	n/a	MOOSE	-999	16	[0, 0, 0]	n/a	FR1	0	R1286J
2458.777	10.065	2422384	REC_WORD	10.065	n/a	ROPE	-999	16	[0, 0, 0]	n/a	FR1	0	R1286J
2468.842	1.676	2432449	REC_END	n/a	n/a	n/a	-999	16	[0, 0, 0]	n/a	FR1	0	R1286J
2470.518	0.0	2434124	COUNTDOWN_START	n/a	n/a	n/a	-999	17	[0, 0, 0]	n/a	FR1	0	R1286J
2470.518	10.428	2434124	TRIAL	n/a	n/a	n/a	-999	17	[0, 0, 0]	n/a	FR1	0	R1286J
2480.946	0.006	2444552	COUNTDOWN_END	n/a	n/a	n/a	-999	17	[0, 0, 0]	n/a	FR1	0	R1286J
2480.952	1.618	2444558	ORIENT	n/a	n/a	n/a	-999	17	[0, 0, 0]	n/a	FR1	0	R1286J
2482.57	1.967	2446176	ORIENT_OFF	n/a	n/a	n/a	-999	17	[0, 0, 0]	n/a	FR1	0	R1286J
2484.537	1.616	2448143	WORD	n/a	wordpools/wordpool_EN.txt	BEE	1	17	[0, 0, 0]	n/a	FR1	0	R1286J
2486.153	0.833	2449759	WORD_OFF	n/a	n/a	BEE	1	17	[0, 0, 0]	n/a	FR1	0	R1286J
2486.986	1.618	2450592	WORD	n/a	wordpools/wordpool_EN.txt	SLUSH	2	17	[0, 0, 0]	n/a	FR1	0	R1286J
2488.604	1.001	2452210	WORD_OFF	n/a	n/a	SLUSH	2	17	[0, 0, 0]	n/a	FR1	0	R1286J
2489.605	1.616	2453211	WORD	n/a	wordpools/wordpool_EN.txt	GUARD	3	17	[0, 0, 0]	n/a	FR1	0	R1286J
2491.221	0.833	2454827	WORD_OFF	n/a	n/a	GUARD	3	17	[0, 0, 0]	n/a	FR1	0	R1286J
2492.054	1.618	2455660	WORD	n/a	wordpools/wordpool_EN.txt	STREET	4	17	[0, 0, 0]	n/a	FR1	0	R1286J
2493.672	0.833	2457278	WORD_OFF	n/a	n/a	STREET	4	17	[0, 0, 0]	n/a	FR1	0	R1286J
2494.505	1.616	2458111	WORD	n/a	wordpools/wordpool_EN.txt	SCHOOL	5	17	[0, 0, 0]	n/a	FR1	0	R1286J
2496.121	0.867	2459727	WORD_OFF	n/a	n/a	SCHOOL	5	17	[0, 0, 0]	n/a	FR1	0	R1286J
2496.988	1.601	2460594	WORD	n/a	wordpools/wordpool_EN.txt	BOARD	6	17	[0, 0, 0]	n/a	FR1	0	R1286J
2498.589	0.934	2462194	WORD_OFF	n/a	n/a	BOARD	6	17	[0, 0, 0]	n/a	FR1	0	R1286J
2499.523	1.616	2463128	WORD	n/a	wordpools/wordpool_EN.txt	SWORD	7	17	[0, 0, 0]	n/a	FR1	0	R1286J
2501.139	0.783	2464744	WORD_OFF	n/a	n/a	SWORD	7	17	[0, 0, 0]	n/a	FR1	0	R1286J
2501.922	1.618	2465527	WORD	n/a	wordpools/wordpool_EN.txt	FOAM	8	17	[0, 0, 0]	n/a	FR1	0	R1286J
2503.54	0.816	2467145	WORD_OFF	n/a	n/a	FOAM	8	17	[0, 0, 0]	n/a	FR1	0	R1286J
2504.356	1.617	2467961	WORD	n/a	wordpools/wordpool_EN.txt	STRING	9	17	[0, 0, 0]	n/a	FR1	0	R1286J
2505.973	0.768	2469578	WORD_OFF	n/a	n/a	STRING	9	17	[0, 0, 0]	n/a	FR1	0	R1286J
2506.741	1.616	2470346	WORD	n/a	wordpools/wordpool_EN.txt	PIE	10	17	[0, 0, 0]	n/a	FR1	0	R1286J
2508.357	0.983	2471962	WORD_OFF	n/a	n/a	PIE	10	17	[0, 0, 0]	n/a	FR1	0	R1286J
2509.34	1.617	2472945	WORD	n/a	wordpools/wordpool_EN.txt	CALF	11	17	[0, 0, 0]	n/a	FR1	0	R1286J
2510.957	0.835	2474562	WORD_OFF	n/a	n/a	CALF	11	17	[0, 0, 0]	n/a	FR1	0	R1286J
2511.792	1.616	2475397	WORD	n/a	wordpools/wordpool_EN.txt	SOCK	12	17	[0, 0, 0]	n/a	FR1	0	R1286J
2513.408	0.0	2477013	WORD_OFF	n/a	n/a	SOCK	12	17	[0, 0, 0]	n/a	FR1	0	R1286J
2513.408	0.0	2477013	DISTRACT_START	n/a	n/a	n/a	-999	17	[0, 0, 0]	n/a	FR1	0	R1286J
2513.408	0.017	2477013	START	n/a	n/a	n/a	-999	17	[-999, -999, -999]	n/a	FR1	0	R1286J
2513.425	10.069	2477030	PROB	10.069	n/a	n/a	-999	17	[7, 1, 7]	15	FR1	0	R1286J
2523.494	9.185	2487099	PROB	9.185	n/a	n/a	-999	17	[7, 4, 6]	17	FR1	0	R1286J
2532.679	14.145	2496283	PROB	14.145	n/a	n/a	-999	17	[2, 7, 8]	17	FR1	0	R1286J
2546.824	0.007	2510428	STOP	n/a	n/a	n/a	-999	17	[-999, -999, -999]	n/a	FR1	0	R1286J
2546.831	0.667	2510435	DISTRACT_END	n/a	n/a	n/a	-999	17	[0, 0, 0]	n/a	FR1	0	R1286J
2547.498	0.516	2511102	RETRIEVAL_ORIENT	n/a	n/a	n/a	-999	17	[0, 0, 0]	n/a	FR1	0	R1286J
2548.014	1.64	2511618	REC_START	n/a	n/a	n/a	-999	17	[0, 0, 0]	n/a	FR1	0	R1286J
2549.654	1.262	2513258	REC_WORD	1.262	n/a	BEE	-999	17	[0, 0, 0]	n/a	FR1	0	R1286J
2550.916	1.262	2514520	REC_WORD	1.262	n/a	GUARD	-999	17	[0, 0, 0]	n/a	FR1	0	R1286J
2552.178	2.039	2515782	REC_WORD	2.039	n/a	SCHOOL	-999	17	[0, 0, 0]	n/a	FR1	0	R1286J
2554.217	6.093	2517821	REC_WORD	6.093	n/a	ROPE	-999	17	[0, 0, 0]	n/a	FR1	0	R1286J
2560.31	3.511	2523913	REC_WORD	3.511	n/a	STRING	-999	17	[0, 0, 0]	n/a	FR1	0	R1286J
2563.821	9.038	2527424	REC_WORD	9.038	n/a	FOAM	-999	17	[0, 0, 0]	n/a	FR1	0	R1286J
2572.859	5.17	2536462	REC_WORD	5.17	n/a	SCHOOL	-999	17	[0, 0, 0]	n/a	FR1	0	R1286J
2578.029	2.173	2541632	REC_END	n/a	n/a	n/a	-999	17	[0, 0, 0]	n/a	FR1	0	R1286J
2580.202	0.0	2543805	TRIAL	n/a	n/a	n/a	-999	18	[0, 0, 0]	n/a	FR1	0	R1286J
2580.202	10.428	2543805	COUNTDOWN_START	n/a	n/a	n/a	-999	18	[0, 0, 0]	n/a	FR1	0	R1286J
2590.63	0.009	2554232	COUNTDOWN_END	n/a	n/a	n/a	-999	18	[0, 0, 0]	n/a	FR1	0	R1286J
2590.639	1.615	2554241	ORIENT	n/a	n/a	n/a	-999	18	[0, 0, 0]	n/a	FR1	0	R1286J
2592.254	1.834	2555856	ORIENT_OFF	n/a	n/a	n/a	-999	18	[0, 0, 0]	n/a	FR1	0	R1286J
2594.088	1.618	2557690	WORD	n/a	wordpools/wordpool_EN.txt	CAPE	1	18	[0, 0, 0]	n/a	FR1	0	R1286J
2595.706	1.017	2559308	WORD_OFF	n/a	n/a	CAPE	1	18	[0, 0, 0]	n/a	FR1	0	R1286J
2596.723	1.616	2560325	WORD	n/a	wordpools/wordpool_EN.txt	VINE	2	18	[0, 0, 0]	n/a	FR1	0	R1286J
2598.339	0.767	2561941	WORD_OFF	n/a	n/a	VINE	2	18	[0, 0, 0]	n/a	FR1	0	R1286J
2599.106	1.618	2562708	WORD	n/a	wordpools/wordpool_EN.txt	FOOT	3	18	[0, 0, 0]	n/a	FR1	0	R1286J
2600.724	0.916	2564326	WORD_OFF	n/a	n/a	FOOT	3	18	[0, 0, 0]	n/a	FR1	0	R1286J
2601.64	1.616	2565242	WORD	n/a	wordpools/wordpool_EN.txt	STOOL	4	18	[0, 0, 0]	n/a	FR1	0	R1286J
2603.256	0.934	2566858	WORD_OFF	n/a	n/a	STOOL	4	18	[0, 0, 0]	n/a	FR1	0	R1286J
2604.19	1.618	2567792	WORD	n/a	wordpools/wordpool_EN.txt	PEACH	5	18	[0, 0, 0]	n/a	FR1	0	R1286J
2605.808	0.967	2569410	WORD_OFF	n/a	n/a	PEACH	5	18	[0, 0, 0]	n/a	FR1	0	R1286J
2606.775	1.615	2570377	WORD	n/a	wordpools/wordpool_EN.txt	HORN	6	18	[0, 0, 0]	n/a	FR1	0	R1286J
2608.39	0.851	2571992	WORD_OFF	n/a	n/a	HORN	6	18	[0, 0, 0]	n/a	FR1	0	R1286J
2609.241	1.617	2572843	WORD	n/a	wordpools/wordpool_EN.txt	BROOM	7	18	[0, 0, 0]	n/a	FR1	0	R1286J
2610.858	1.016	2574460	WORD_OFF	n/a	n/a	BROOM	7	18	[0, 0, 0]	n/a	FR1	0	R1286J
2611.874	1.602	2575476	WORD	n/a	wordpools/wordpool_EN.txt	STOVE	8	18	[0, 0, 0]	n/a	FR1	0	R1286J
2613.476	0.899	2577078	WORD_OFF	n/a	n/a	STOVE	8	18	[0, 0, 0]	n/a	FR1	0	R1286J
2614.375	1.617	2577977	WORD	n/a	wordpools/wordpool_EN.txt	KITE	9	18	[0, 0, 0]	n/a	FR1	0	R1286J
2615.992	1.0	2579593	WORD_OFF	n/a	n/a	KITE	9	18	[0, 0, 0]	n/a	FR1	0	R1286J
2616.992	1.618	2580593	WORD	n/a	wordpools/wordpool_EN.txt	GLOVE	10	18	[0, 0, 0]	n/a	FR1	0	R1286J
2618.61	0.9	2582211	WORD_OFF	n/a	n/a	GLOVE	10	18	[0, 0, 0]	n/a	FR1	0	R1286J
2619.51	1.616	2583111	WORD	n/a	wordpools/wordpool_EN.txt	HOSE	11	18	[0, 0, 0]	n/a	FR1	0	R1286J
2621.126	0.783	2584727	WORD_OFF	n/a	n/a	HOSE	11	18	[0, 0, 0]	n/a	FR1	0	R1286J
2621.909	1.602	2585510	WORD	n/a	wordpools/wordpool_EN.txt	PLATE	12	18	[0, 0, 0]	n/a	FR1	0	R1286J
2623.511	0.0	2587112	WORD_OFF	n/a	n/a	PLATE	12	18	[0, 0, 0]	n/a	FR1	0	R1286J
2623.511	0.0	2587112	DISTRACT_START	n/a	n/a	n/a	-999	18	[0, 0, 0]	n/a	FR1	0	R1286J
2623.511	0.016	2587112	START	n/a	n/a	n/a	-999	18	[-999, -999, -999]	n/a	FR1	0	R1286J
2623.527	8.969	2587128	PROB	8.969	n/a	n/a	-999	18	[4, 3, 7]	14	FR1	0	R1286J
2632.496	6.101	2596097	PROB	6.101	n/a	n/a	-999	18	[9, 3, 5]	17	FR1	0	R1286J
2638.597	14.275	2602198	PROB	14.275	n/a	n/a	-999	18	[9, 9, 6]	24	FR1	0	R1286J
2652.872	0.009	2616472	STOP	n/a	n/a	n/a	-999	18	[-999, -999, -999]	n/a	FR1	0	R1286J
2652.881	0.585	2616481	DISTRACT_END	n/a	n/a	n/a	-999	18	[0, 0, 0]	n/a	FR1	0	R1286J
2653.466	0.516	2617066	RETRIEVAL_ORIENT	n/a	n/a	n/a	-999	18	[0, 0, 0]	n/a	FR1	0	R1286J
2653.982	5.453	2617582	REC_START	n/a	n/a	n/a	-999	18	[0, 0, 0]	n/a	FR1	0	R1286J
2659.435	1.487	2623035	REC_WORD	1.487	n/a	VINE	-999	18	[0, 0, 0]	n/a	FR1	0	R1286J
2660.922	1.227	2624522	REC_WORD	1.227	n/a	CAPE	-999	18	[0, 0, 0]	n/a	FR1	0	R1286J
2662.149	1.568	2625749	REC_WORD	1.568	n/a	HOSE	-999	18	[0, 0, 0]	n/a	FR1	0	R1286J
2663.717	1.59	2627317	REC_WORD	1.59	n/a	PLATE	-999	18	[0, 0, 0]	n/a	FR1	0	R1286J
2665.307	18.688	2628907	REC_WORD	18.688	n/a	STRING	-999	18	[0, 0, 0]	n/a	FR1	0	R1286J
2683.995	1.676	2647594	REC_END	n/a	n/a	n/a	-999	18	[0, 0, 0]	n/a	FR1	0	R1286J
2685.671	0.0	2649270	COUNTDOWN_START	n/a	n/a	n/a	-999	19	[0, 0, 0]	n/a	FR1	0	R1286J
2685.671	10.428	2649270	TRIAL	n/a	n/a	n/a	-999	19	[0, 0, 0]	n/a	FR1	0	R1286J
2696.099	0.006	2659698	COUNTDOWN_END	n/a	n/a	n/a	-999	19	[0, 0, 0]	n/a	FR1	0	R1286J
2696.105	1.618	2659704	ORIENT	n/a	n/a	n/a	-999	19	[0, 0, 0]	n/a	FR1	0	R1286J
2697.723	2.001	2661322	ORIENT_OFF	n/a	n/a	n/a	-999	19	[0, 0, 0]	n/a	FR1	0	R1286J
2699.724	1.616	2663323	WORD	n/a	wordpools/wordpool_EN.txt	SLIME	1	19	[0, 0, 0]	n/a	FR1	0	R1286J
2701.34	0.8	2664939	WORD_OFF	n/a	n/a	SLIME	1	19	[0, 0, 0]	n/a	FR1	0	R1286J
2702.14	1.618	2665739	WORD	n/a	wordpools/wordpool_EN.txt	JEEP	2	19	[0, 0, 0]	n/a	FR1	0	R1286J
2703.758	1.017	2667356	WORD_OFF	n/a	n/a	JEEP	2	19	[0, 0, 0]	n/a	FR1	0	R1286J
2704.775	1.615	2668373	WORD	n/a	wordpools/wordpool_EN.txt	BRANCH	3	19	[0, 0, 0]	n/a	FR1	0	R1286J
2706.39	0.934	2669988	WORD_OFF	n/a	n/a	BRANCH	3	19	[0, 0, 0]	n/a	FR1	0	R1286J
2707.324	1.617	2670922	WORD	n/a	wordpools/wordpool_EN.txt	SOAP	4	19	[0, 0, 0]	n/a	FR1	0	R1286J
2708.941	0.884	2672539	WORD_OFF	n/a	n/a	SOAP	4	19	[0, 0, 0]	n/a	FR1	0	R1286J
2709.825	1.617	2673423	WORD	n/a	wordpools/wordpool_EN.txt	SHEET	5	19	[0, 0, 0]	n/a	FR1	0	R1286J
2711.442	0.816	2675040	WORD_OFF	n/a	n/a	SHEET	5	19	[0, 0, 0]	n/a	FR1	0	R1286J
2712.258	1.617	2675856	WORD	n/a	wordpools/wordpool_EN.txt	STEAM	6	19	[0, 0, 0]	n/a	FR1	0	R1286J
2713.875	0.885	2677473	WORD_OFF	n/a	n/a	STEAM	6	19	[0, 0, 0]	n/a	FR1	0	R1286J
2714.76	1.616	2678358	WORD	n/a	wordpools/wordpool_EN.txt	GOLD	7	19	[0, 0, 0]	n/a	FR1	0	R1286J
2716.376	0.9	2679974	WORD_OFF	n/a	n/a	GOLD	7	19	[0, 0, 0]	n/a	FR1	0	R1286J
2717.276	1.617	2680874	WORD	n/a	wordpools/wordpool_EN.txt	RAKE	8	19	[0, 0, 0]	n/a	FR1	0	R1286J
2718.893	0.917	2682491	WORD_OFF	n/a	n/a	RAKE	8	19	[0, 0, 0]	n/a	FR1	0	R1286J
2719.81	1.617	2683408	WORD	n/a	wordpools/wordpool_EN.txt	DRUM	9	19	[0, 0, 0]	n/a	FR1	0	R1286J
2721.427	0.984	2685025	WORD_OFF	n/a	n/a	DRUM	9	19	[0, 0, 0]	n/a	FR1	0	R1286J
2722.411	1.616	2686009	WORD	n/a	wordpools/wordpool_EN.txt	OAK	10	19	[0, 0, 0]	n/a	FR1	0	R1286J
2724.027	0.768	2687625	WORD_OFF	n/a	n/a	OAK	10	19	[0, 0, 0]	n/a	FR1	0	R1286J
2724.795	1.617	2688393	WORD	n/a	wordpools/wordpool_EN.txt	SHIRT	11	19	[0, 0, 0]	n/a	FR1	0	R1286J
2726.412	0.932	2690010	WORD_OFF	n/a	n/a	SHIRT	11	19	[0, 0, 0]	n/a	FR1	0	R1286J
2727.344	1.617	2690942	WORD	n/a	wordpools/wordpool_EN.txt	BAG	12	19	[0, 0, 0]	n/a	FR1	0	R1286J
2728.961	0.0	2692559	WORD_OFF	n/a	n/a	BAG	12	19	[0, 0, 0]	n/a	FR1	0	R1286J
2728.961	0.0	2692559	DISTRACT_START	n/a	n/a	n/a	-999	19	[0, 0, 0]	n/a	FR1	0	R1286J
2728.961	0.016	2692559	START	n/a	n/a	n/a	-999	19	[-999, -999, -999]	n/a	FR1	0	R1286J
2728.977	11.737	2692575	PROB	11.737	n/a	n/a	-999	19	[9, 3, 1]	13	FR1	0	R1286J
2740.714	11.579	2704311	PROB	11.579	n/a	n/a	-999	19	[2, 4, 3]	9	FR1	0	R1286J
2752.293	0.022	2715890	STOP	n/a	n/a	n/a	-999	19	[-999, -999, -999]	n/a	FR1	0	R1286J
2752.315	0.533	2715912	DISTRACT_END	n/a	n/a	n/a	-999	19	[0, 0, 0]	n/a	FR1	0	R1286J
2752.848	0.518	2716445	RETRIEVAL_ORIENT	n/a	n/a	n/a	-999	19	[0, 0, 0]	n/a	FR1	0	R1286J
2753.366	2.71	2716963	REC_START	n/a	n/a	n/a	-999	19	[0, 0, 0]	n/a	FR1	0	R1286J
2756.076	1.632	2719673	REC_WORD	1.632	n/a	SOAP	-999	19	[0, 0, 0]	n/a	FR1	0	R1286J
2757.708	3.467	2721305	REC_WORD	3.467	n/a	SHEET	-999	19	[0, 0, 0]	n/a	FR1	0	R1286J
2761.175	22.205	2724771	REC_WORD	22.205	n/a	SLEEP	-999	19	[0, 0, 0]	n/a	FR1	0	R1286J
2783.38	2.192	2746976	REC_END	n/a	n/a	n/a	-999	19	[0, 0, 0]	n/a	FR1	0	R1286J
2785.572	0.0	2749168	TRIAL	n/a	n/a	n/a	-999	20	[0, 0, 0]	n/a	FR1	0	R1286J
2785.572	10.428	2749168	COUNTDOWN_START	n/a	n/a	n/a	-999	20	[0, 0, 0]	n/a	FR1	0	R1286J
2796.0	0.006	2759595	COUNTDOWN_END	n/a	n/a	n/a	-999	20	[0, 0, 0]	n/a	FR1	0	R1286J
2796.006	1.601	2759601	ORIENT	n/a	n/a	n/a	-999	20	[0, 0, 0]	n/a	FR1	0	R1286J
2797.607	2.15	2761202	ORIENT_OFF	n/a	n/a	n/a	-999	20	[0, 0, 0]	n/a	FR1	0	R1286J
2799.757	1.616	2763352	WORD	n/a	wordpools/wordpool_EN.txt	FLUTE	1	20	[0, 0, 0]	n/a	FR1	0	R1286J
2801.373	1.0	2764968	WORD_OFF	n/a	n/a	FLUTE	1	20	[0, 0, 0]	n/a	FR1	0	R1286J
2802.373	1.617	2765968	WORD	n/a	wordpools/wordpool_EN.txt	TOAD	2	20	[0, 0, 0]	n/a	FR1	0	R1286J
2803.99	0.95	2767585	WORD_OFF	n/a	n/a	TOAD	2	20	[0, 0, 0]	n/a	FR1	0	R1286J
2804.94	1.618	2768535	WORD	n/a	wordpools/wordpool_EN.txt	BOOT	3	20	[0, 0, 0]	n/a	FR1	0	R1286J
2806.558	0.8	2770153	WORD_OFF	n/a	n/a	BOOT	3	20	[0, 0, 0]	n/a	FR1	0	R1286J
2807.358	1.616	2770953	WORD	n/a	wordpools/wordpool_EN.txt	LIP	4	20	[0, 0, 0]	n/a	FR1	0	R1286J
2808.974	0.901	2772569	WORD_OFF	n/a	n/a	LIP	4	20	[0, 0, 0]	n/a	FR1	0	R1286J
2809.875	1.618	2773470	WORD	n/a	wordpools/wordpool_EN.txt	BAT	5	20	[0, 0, 0]	n/a	FR1	0	R1286J
2811.493	0.983	2775088	WORD_OFF	n/a	n/a	BAT	5	20	[0, 0, 0]	n/a	FR1	0	R1286J
2812.476	1.616	2776071	WORD	n/a	wordpools/wordpool_EN.txt	FORK	6	20	[0, 0, 0]	n/a	FR1	0	R1286J
2814.092	0.817	2777687	WORD_OFF	n/a	n/a	FORK	6	20	[0, 0, 0]	n/a	FR1	0	R1286J
2814.909	1.618	2778504	WORD	n/a	wordpools/wordpool_EN.txt	GOAT	7	20	[0, 0, 0]	n/a	FR1	0	R1286J
2816.527	0.799	2780122	WORD_OFF	n/a	n/a	GOAT	7	20	[0, 0, 0]	n/a	FR1	0	R1286J
2817.326	1.617	2780921	WORD	n/a	wordpools/wordpool_EN.txt	FAN	8	20	[0, 0, 0]	n/a	FR1	0	R1286J
2818.943	0.967	2782538	WORD_OFF	n/a	n/a	FAN	8	20	[0, 0, 0]	n/a	FR1	0	R1286J
2819.91	1.618	2783504	WORD	n/a	wordpools/wordpool_EN.txt	DOLL	9	20	[0, 0, 0]	n/a	FR1	0	R1286J
2821.528	0.9	2785122	WORD_OFF	n/a	n/a	DOLL	9	20	[0, 0, 0]	n/a	FR1	0	R1286J
2822.428	1.616	2786022	WORD	n/a	wordpools/wordpool_EN.txt	LAMB	10	20	[0, 0, 0]	n/a	FR1	0	R1286J
2824.044	0.883	2787638	WORD_OFF	n/a	n/a	LAMB	10	20	[0, 0, 0]	n/a	FR1	0	R1286J
2824.927	1.601	2788521	WORD	n/a	wordpools/wordpool_EN.txt	CROW	11	20	[0, 0, 0]	n/a	FR1	0	R1286J
2826.528	0.901	2790122	WORD_OFF	n/a	n/a	CROW	11	20	[0, 0, 0]	n/a	FR1	0	R1286J
2827.429	1.616	2791023	WORD	n/a	wordpools/wordpool_EN.txt	SPEAR	12	20	[0, 0, 0]	n/a	FR1	0	R1286J
2829.045	0.0	2792639	WORD_OFF	n/a	n/a	SPEAR	12	20	[0, 0, 0]	n/a	FR1	0	R1286J
2829.045	0.0	2792639	DISTRACT_START	n/a	n/a	n/a	-999	20	[0, 0, 0]	n/a	FR1	0	R1286J
2829.045	0.016	2792639	START	n/a	n/a	n/a	-999	20	[-999, -999, -999]	n/a	FR1	0	R1286J
2829.061	7.703	2792655	PROB	7.703	n/a	n/a	-999	20	[8, 9, 2]	19	FR1	0	R1286J
2836.764	8.851	2800358	PROB	8.851	n/a	n/a	-999	20	[8, 9, 3]	20	FR1	0	R1286J
2845.615	4.96	2809209	PROB	4.96	n/a	n/a	-999	20	[4, 3, 1]	8	FR1	0	R1286J
2850.575	0.008	2814168	STOP	n/a	n/a	n/a	-999	20	[-999, -999, -999]	n/a	FR1	0	R1286J
2850.583	0.699	2814176	DISTRACT_END	n/a	n/a	n/a	-999	20	[0, 0, 0]	n/a	FR1	0	R1286J
2851.282	0.519	2814875	RETRIEVAL_ORIENT	n/a	n/a	n/a	-999	20	[0, 0, 0]	n/a	FR1	0	R1286J
2851.801	2.283	2815394	REC_START	n/a	n/a	n/a	-999	20	[0, 0, 0]	n/a	FR1	0	R1286J
2854.084	2.073	2817677	REC_WORD	2.073	n/a	FLUTE	-999	20	[0, 0, 0]	n/a	FR1	0	R1286J
2856.157	1.892	2819750	REC_WORD	1.892	n/a	GOAT	-999	20	[0, 0, 0]	n/a	FR1	0	R1286J
2858.049	3.315	2821642	REC_WORD	3.315	n/a	LIP	-999	20	[0, 0, 0]	n/a	FR1	0	R1286J
2861.364	6.373	2824957	REC_WORD	6.373	n/a	BOAT	-999	20	[0, 0, 0]	n/a	FR1	0	R1286J
2867.737	12.898	2831330	REC_WORD	12.898	n/a	SNAKE	-999	20	[0, 0, 0]	n/a	FR1	0	R1286J
2880.635	1.178	2844227	REC_WORD	1.178	n/a	SNAKE	-999	20	[0, 0, 0]	n/a	FR1	0	R1286J
2881.813	2.591	2845405	REC_END	n/a	n/a	n/a	-999	20	[0, 0, 0]	n/a	FR1	0	R1286J
2884.404	0.0	2847996	TRIAL	n/a	n/a	n/a	-999	21	[0, 0, 0]	n/a	FR1	0	R1286J
2884.404	10.428	2847996	COUNTDOWN_START	n/a	n/a	n/a	-999	21	[0, 0, 0]	n/a	FR1	0	R1286J
2894.832	0.007	2858424	COUNTDOWN_END	n/a	n/a	n/a	-999	21	[0, 0, 0]	n/a	FR1	0	R1286J
2894.839	1.618	2858431	ORIENT	n/a	n/a	n/a	-999	21	[0, 0, 0]	n/a	FR1	0	R1286J
2896.457	2.084	2860049	ORIENT_OFF	n/a	n/a	n/a	-999	21	[0, 0, 0]	n/a	FR1	0	R1286J
2898.541	1.616	2862133	WORD	n/a	wordpools/wordpool_EN.txt	STRAW	1	21	[0, 0, 0]	n/a	FR1	0	R1286J
2900.157	0.917	2863749	WORD_OFF	n/a	n/a	STRAW	1	21	[0, 0, 0]	n/a	FR1	0	R1286J
2901.074	1.617	2864666	WORD	n/a	wordpools/wordpool_EN.txt	JAIL	2	21	[0, 0, 0]	n/a	FR1	0	R1286J
2902.691	1.001	2866283	WORD_OFF	n/a	n/a	JAIL	2	21	[0, 0, 0]	n/a	FR1	0	R1286J
2903.692	1.616	2867284	WORD	n/a	wordpools/wordpool_EN.txt	TOOL	3	21	[0, 0, 0]	n/a	FR1	0	R1286J
2905.308	0.95	2868900	WORD_OFF	n/a	n/a	TOOL	3	21	[0, 0, 0]	n/a	FR1	0	R1286J
2906.258	1.617	2869850	WORD	n/a	wordpools/wordpool_EN.txt	CUBE	4	21	[0, 0, 0]	n/a	FR1	0	R1286J
2907.875	0.784	2871466	WORD_OFF	n/a	n/a	CUBE	4	21	[0, 0, 0]	n/a	FR1	0	R1286J
2908.659	1.616	2872250	WORD	n/a	wordpools/wordpool_EN.txt	CHIN	5	21	[0, 0, 0]	n/a	FR1	0	R1286J
2910.275	1.0	2873866	WORD_OFF	n/a	n/a	CHIN	5	21	[0, 0, 0]	n/a	FR1	0	R1286J
2911.275	1.617	2874866	WORD	n/a	wordpools/wordpool_EN.txt	VEST	6	21	[0, 0, 0]	n/a	FR1	0	R1286J
2912.892	0.785	2876483	WORD_OFF	n/a	n/a	VEST	6	21	[0, 0, 0]	n/a	FR1	0	R1286J
2913.677	1.616	2877268	WORD	n/a	wordpools/wordpool_EN.txt	SEAL	7	21	[0, 0, 0]	n/a	FR1	0	R1286J
2915.293	0.983	2878884	WORD_OFF	n/a	n/a	SEAL	7	21	[0, 0, 0]	n/a	FR1	0	R1286J
2916.276	1.617	2879867	WORD	n/a	wordpools/wordpool_EN.txt	BUSH	8	21	[0, 0, 0]	n/a	FR1	0	R1286J
2917.893	0.868	2881484	WORD_OFF	n/a	n/a	BUSH	8	21	[0, 0, 0]	n/a	FR1	0	R1286J
2918.761	1.616	2882352	WORD	n/a	wordpools/wordpool_EN.txt	SALT	9	21	[0, 0, 0]	n/a	FR1	0	R1286J
2920.377	0.917	2883968	WORD_OFF	n/a	n/a	SALT	9	21	[0, 0, 0]	n/a	FR1	0	R1286J
2921.294	1.617	2884885	WORD	n/a	wordpools/wordpool_EN.txt	DEER	10	21	[0, 0, 0]	n/a	FR1	0	R1286J
2922.911	0.966	2886502	WORD_OFF	n/a	n/a	DEER	10	21	[0, 0, 0]	n/a	FR1	0	R1286J
2923.877	1.602	2887468	WORD	n/a	wordpools/wordpool_EN.txt	ROOM	11	21	[0, 0, 0]	n/a	FR1	0	R1286J
2925.479	0.832	2889070	WORD_OFF	n/a	n/a	ROOM	11	21	[0, 0, 0]	n/a	FR1	0	R1286J
2926.311	1.617	2889902	WORD	n/a	wordpools/wordpool_EN.txt	PIPE	12	21	[0, 0, 0]	n/a	FR1	0	R1286J
2927.928	0.0	2891519	WORD_OFF	n/a	n/a	PIPE	12	21	[0, 0, 0]	n/a	FR1	0	R1286J
2927.928	0.001	2891519	DISTRACT_START	n/a	n/a	n/a	-999	21	[0, 0, 0]	n/a	FR1	0	R1286J
2927.929	0.016	2891520	START	n/a	n/a	n/a	-999	21	[-999, -999, -999]	n/a	FR1	0	R1286J
2927.945	7.318	2891536	PROB	7.318	n/a	n/a	-999	21	[3, 3, 5]	11	FR1	0	R1286J
2935.263	5.568	2898854	PROB	5.568	n/a	n/a	-999	21	[5, 9, 1]	15	FR1	0	R1286J
2940.831	6.2	2904421	PROB	6.2	n/a	n/a	-999	21	[1, 5, 8]	14	FR1	0	R1286J
2947.031	11.624	2910621	PROB	11.624	n/a	n/a	-999	21	[6, 7, 9]	22	FR1	0	R1286J
2958.655	0.013	2922245	STOP	n/a	n/a	n/a	-999	21	[-999, -999, -999]	n/a	FR1	0	R1286J
2958.668	0.599	2922258	DISTRACT_END	n/a	n/a	n/a	-999	21	[0, 0, 0]	n/a	FR1	0	R1286J
2959.267	0.518	2922857	RETRIEVAL_ORIENT	n/a	n/a	n/a	-999	21	[0, 0, 0]	n/a	FR1	0	R1286J
2959.785	5.068	2923375	REC_START	n/a	n/a	n/a	-999	21	[0, 0, 0]	n/a	FR1	0	R1286J
2964.853	1.563	2928443	REC_WORD	1.563	n/a	CUBE	-999	21	[0, 0, 0]	n/a	FR1	0	R1286J
2966.416	1.965	2930005	REC_WORD	1.965	n/a	TOAD	-999	21	[0, 0, 0]	n/a	FR1	0	R1286J
2968.381	21.417	2931970	REC_WORD	21.417	n/a	ROPE	-999	21	[0, 0, 0]	n/a	FR1	0	R1286J
2989.798	1.842	2953387	REC_END	n/a	n/a	n/a	-999	21	[0, 0, 0]	n/a	FR1	0	R1286J
2991.64	0.0	2955229	TRIAL	n/a	n/a	n/a	-999	22	[0, 0, 0]	n/a	FR1	0	R1286J
2991.64	10.428	2955229	COUNTDOWN_START	n/a	n/a	n/a	-999	22	[0, 0, 0]	n/a	FR1	0	R1286J
3002.068	0.006	2965656	COUNTDOWN_END	n/a	n/a	n/a	-999	22	[0, 0, 0]	n/a	FR1	0	R1286J
3002.074	1.618	2965662	ORIENT	n/a	n/a	n/a	-999	22	[0, 0, 0]	n/a	FR1	0	R1286J
3003.692	2.0	2967280	ORIENT_OFF	n/a	n/a	n/a	-999	22	[0, 0, 0]	n/a	FR1	0	R1286J
3005.692	1.616	2969280	WORD	n/a	wordpools/wordpool_EN.txt	DIME	1	22	[0, 0, 0]	n/a	FR1	0	R1286J
3007.308	0.85	2970896	WORD_OFF	n/a	n/a	DIME	1	22	[0, 0, 0]	n/a	FR1	0	R1286J
3008.158	1.618	2971746	WORD	n/a	wordpools/wordpool_EN.txt	HOOK	2	22	[0, 0, 0]	n/a	FR1	0	R1286J
3009.776	0.884	2973364	WORD_OFF	n/a	n/a	HOOK	2	22	[0, 0, 0]	n/a	FR1	0	R1286J
3010.66	1.616	2974248	WORD	n/a	wordpools/wordpool_EN.txt	SHRIMP	3	22	[0, 0, 0]	n/a	FR1	0	R1286J
3012.276	0.917	2975864	WORD_OFF	n/a	n/a	SHRIMP	3	22	[0, 0, 0]	n/a	FR1	0	R1286J
3013.193	1.617	2976781	WORD	n/a	wordpools/wordpool_EN.txt	ARK	4	22	[0, 0, 0]	n/a	FR1	0	R1286J
3014.81	0.934	2978398	WORD_OFF	n/a	n/a	ARK	4	22	[0, 0, 0]	n/a	FR1	0	R1286J
3015.744	1.616	2979332	WORD	n/a	wordpools/wordpool_EN.txt	MOTH	5	22	[0, 0, 0]	n/a	FR1	0	R1286J
3017.36	0.783	2980948	WORD_OFF	n/a	n/a	MOTH	5	22	[0, 0, 0]	n/a	FR1	0	R1286J
3018.143	1.618	2981731	WORD	n/a	wordpools/wordpool_EN.txt	HAT	6	22	[0, 0, 0]	n/a	FR1	0	R1286J
3019.761	0.834	2983349	WORD_OFF	n/a	n/a	HAT	6	22	[0, 0, 0]	n/a	FR1	0	R1286J
3020.595	1.616	2984183	WORD	n/a	wordpools/wordpool_EN.txt	FUR	7	22	[0, 0, 0]	n/a	FR1	0	R1286J
3022.211	0.933	2985799	WORD_OFF	n/a	n/a	FUR	7	22	[0, 0, 0]	n/a	FR1	0	R1286J
3023.144	1.618	2986732	WORD	n/a	wordpools/wordpool_EN.txt	DESK	8	22	[0, 0, 0]	n/a	FR1	0	R1286J
3024.762	0.984	2988349	WORD_OFF	n/a	n/a	DESK	8	22	[0, 0, 0]	n/a	FR1	0	R1286J
3025.746	1.616	2989333	WORD	n/a	wordpools/wordpool_EN.txt	CHALK	9	22	[0, 0, 0]	n/a	FR1	0	R1286J
3027.362	0.85	2990949	WORD_OFF	n/a	n/a	CHALK	9	22	[0, 0, 0]	n/a	FR1	0	R1286J
3028.212	1.618	2991799	WORD	n/a	wordpools/wordpool_EN.txt	FLEA	10	22	[0, 0, 0]	n/a	FR1	0	R1286J
3029.83	0.783	2993417	WORD_OFF	n/a	n/a	FLEA	10	22	[0, 0, 0]	n/a	FR1	0	R1286J
3030.613	1.616	2994200	WORD	n/a	wordpools/wordpool_EN.txt	POOL	11	22	[0, 0, 0]	n/a	FR1	0	R1286J
3032.229	0.817	2995816	WORD_OFF	n/a	n/a	POOL	11	22	[0, 0, 0]	n/a	FR1	0	R1286J
3033.046	1.618	2996633	WORD	n/a	wordpools/wordpool_EN.txt	BADGE	12	22	[0, 0, 0]	n/a	FR1	0	R1286J
3034.664	0.0	2998251	WORD_OFF	n/a	n/a	BADGE	12	22	[0, 0, 0]	n/a	FR1	0	R1286J
3034.664	0.0	2998251	DISTRACT_START	n/a	n/a	n/a	-999	22	[0, 0, 0]	n/a	FR1	0	R1286J
3034.664	0.016	2998251	START	n/a	n/a	n/a	-999	22	[-999, -999, -999]	n/a	FR1	0	R1286J
3034.68	15.535	2998267	PROB	15.535	n/a	n/a	-999	22	[3, 7, 3]	13	FR1	0	R1286J
3050.215	5.845	3013802	PROB	5.845	n/a	n/a	-999	22	[8, 4, 6]	18	FR1	0	R1286J
3056.06	0.023	3019646	STOP	n/a	n/a	n/a	-999	22	[-999, -999, -999]	n/a	FR1	0	R1286J
3056.083	0.685	3019669	DISTRACT_END	n/a	n/a	n/a	-999	22	[0, 0, 0]	n/a	FR1	0	R1286J
3056.768	0.516	3020354	RETRIEVAL_ORIENT	n/a	n/a	n/a	-999	22	[0, 0, 0]	n/a	FR1	0	R1286J
3057.284	5.07	3020870	REC_START	n/a	n/a	n/a	-999	22	[0, 0, 0]	n/a	FR1	0	R1286J
3062.354	2.824	3025940	REC_WORD	2.824	n/a	ARK	-999	22	[0, 0, 0]	n/a	FR1	0	R1286J
3065.178	2.594	3028764	REC_WORD	2.594	n/a	CUBE	-999	22	[0, 0, 0]	n/a	FR1	0	R1286J
3067.772	6.176	3031358	REC_WORD	6.176	n/a	ROAST	-999	22	[0, 0, 0]	n/a	FR1	0	R1286J
3073.948	13.35	3037534	REC_WORD	13.35	n/a	TOOTH	-999	22	[0, 0, 0]	n/a	FR1	0	R1286J
3087.298	2.691	3050883	REC_END	n/a	n/a	n/a	-999	22	[0, 0, 0]	n/a	FR1	0	R1286J
3089.989	0.0	3053574	TRIAL	n/a	n/a	n/a	-999	23	[0, 0, 0]	n/a	FR1	0	R1286J
3089.989	10.428	3053574	COUNTDOWN_START	n/a	n/a	n/a	-999	23	[0, 0, 0]	n/a	FR1	0	R1286J
3100.417	0.008	3064002	COUNTDOWN_END	n/a	n/a	n/a	-999	23	[0, 0, 0]	n/a	FR1	0	R1286J
3100.425	1.616	3064010	ORIENT	n/a	n/a	n/a	-999	23	[0, 0, 0]	n/a	FR1	0	R1286J
3102.041	1.8	3065626	ORIENT_OFF	n/a	n/a	n/a	-999	23	[0, 0, 0]	n/a	FR1	0	R1286J
3103.841	1.601	3067426	WORD	n/a	wordpools/wordpool_EN.txt	GRASS	1	23	[0, 0, 0]	n/a	FR1	0	R1286J
3105.442	1.017	3069027	WORD_OFF	n/a	n/a	GRASS	1	23	[0, 0, 0]	n/a	FR1	0	R1286J
3106.459	1.616	3070044	WORD	n/a	wordpools/wordpool_EN.txt	BEAK	2	23	[0, 0, 0]	n/a	FR1	0	R1286J
3108.075	0.934	3071660	WORD_OFF	n/a	n/a	BEAK	2	23	[0, 0, 0]	n/a	FR1	0	R1286J
3109.009	1.618	3072594	WORD	n/a	wordpools/wordpool_EN.txt	TEA	3	23	[0, 0, 0]	n/a	FR1	0	R1286J
3110.627	0.967	3074212	WORD_OFF	n/a	n/a	TEA	3	23	[0, 0, 0]	n/a	FR1	0	R1286J
3111.594	1.616	3075178	WORD	n/a	wordpools/wordpool_EN.txt	WAVE	4	23	[0, 0, 0]	n/a	FR1	0	R1286J
3113.21	0.916	3076794	WORD_OFF	n/a	n/a	WAVE	4	23	[0, 0, 0]	n/a	FR1	0	R1286J
3114.126	1.602	3077710	WORD	n/a	wordpools/wordpool_EN.txt	BATH	5	23	[0, 0, 0]	n/a	FR1	0	R1286J
3115.728	0.85	3079312	WORD_OFF	n/a	n/a	BATH	5	23	[0, 0, 0]	n/a	FR1	0	R1286J
3116.578	1.616	3080162	WORD	n/a	wordpools/wordpool_EN.txt	RICE	6	23	[0, 0, 0]	n/a	FR1	0	R1286J
3118.194	0.967	3081778	WORD_OFF	n/a	n/a	RICE	6	23	[0, 0, 0]	n/a	FR1	0	R1286J
3119.161	1.618	3082745	WORD	n/a	wordpools/wordpool_EN.txt	JET	7	23	[0, 0, 0]	n/a	FR1	0	R1286J
3120.779	0.816	3084363	WORD_OFF	n/a	n/a	JET	7	23	[0, 0, 0]	n/a	FR1	0	R1286J
3121.595	1.616	3085179	WORD	n/a	wordpools/wordpool_EN.txt	BOMB	8	23	[0, 0, 0]	n/a	FR1	0	R1286J
3123.211	0.9	3086795	WORD_OFF	n/a	n/a	BOMB	8	23	[0, 0, 0]	n/a	FR1	0	R1286J
3124.111	1.618	3087695	WORD	n/a	wordpools/wordpool_EN.txt	DRESS	9	23	[0, 0, 0]	n/a	FR1	0	R1286J
3125.729	0.984	3089313	WORD_OFF	n/a	n/a	DRESS	9	23	[0, 0, 0]	n/a	FR1	0	R1286J
3126.713	1.616	3090297	WORD	n/a	wordpools/wordpool_EN.txt	BOX	10	23	[0, 0, 0]	n/a	FR1	0	R1286J
3128.329	0.817	3091913	WORD_OFF	n/a	n/a	BOX	10	23	[0, 0, 0]	n/a	FR1	0	R1286J
3129.146	1.617	3092730	WORD	n/a	wordpools/wordpool_EN.txt	FOG	11	23	[0, 0, 0]	n/a	FR1	0	R1286J
3130.763	0.784	3094347	WORD_OFF	n/a	n/a	FOG	11	23	[0, 0, 0]	n/a	FR1	0	R1286J
3131.547	1.616	3095131	WORD	n/a	wordpools/wordpool_EN.txt	SMOKE	12	23	[0, 0, 0]	n/a	FR1	0	R1286J
3133.163	0.0	3096747	WORD_OFF	n/a	n/a	SMOKE	12	23	[0, 0, 0]	n/a	FR1	0	R1286J
3133.163	0.0	3096747	DISTRACT_START	n/a	n/a	n/a	-999	23	[0, 0, 0]	n/a	FR1	0	R1286J
3133.163	0.017	3096747	START	n/a	n/a	n/a	-999	23	[-999, -999, -999]	n/a	FR1	0	R1286J
3133.18	20.794	3096764	PROB	20.794	n/a	n/a	-999	23	[3, 9, 8]	20	FR1	0	R1286J
3153.974	0.009	3117557	STOP	n/a	n/a	n/a	-999	23	[-999, -999, -999]	n/a	FR1	0	R1286J
3153.983	0.535	3117566	DISTRACT_END	n/a	n/a	n/a	-999	23	[0, 0, 0]	n/a	FR1	0	R1286J
3154.518	0.516	3118101	RETRIEVAL_ORIENT	n/a	n/a	n/a	-999	23	[0, 0, 0]	n/a	FR1	0	R1286J
3155.034	2.652	3118617	REC_START	n/a	n/a	n/a	-999	23	[0, 0, 0]	n/a	FR1	0	R1286J
3157.686	1.753	3121269	REC_WORD	1.753	n/a	GRASS	-999	23	[0, 0, 0]	n/a	FR1	0	R1286J
3159.439	2.663	3123022	REC_WORD	2.663	n/a	SMOKE	-999	23	[0, 0, 0]	n/a	FR1	0	R1286J
3162.102	3.088	3125685	REC_WORD	3.088	n/a	CUBE	-999	23	[0, 0, 0]	n/a	FR1	0	R1286J
3165.19	1.099	3128773	REC_WORD	1.099	n/a	TOOTH	-999	23	[0, 0, 0]	n/a	FR1	0	R1286J
3166.289	3.606	3129872	REC_WORD	3.606	n/a	CUBE	-999	23	[0, 0, 0]	n/a	FR1	0	R1286J
3169.895	15.151	3133478	REC_WORD	15.151	n/a	CLOUD	-999	23	[0, 0, 0]	n/a	FR1	0	R1286J
3185.046	2.81	3148628	REC_END	n/a	n/a	n/a	-999	23	[0, 0, 0]	n/a	FR1	0	R1286J
3187.856	0.0	3151438	COUNTDOWN_START	n/a	n/a	n/a	-999	24	[0, 0, 0]	n/a	FR1	0	R1286J
3187.856	10.428	3151438	TRIAL	n/a	n/a	n/a	-999	24	[0, 0, 0]	n/a	FR1	0	R1286J
3198.284	0.007	3161866	COUNTDOWN_END	n/a	n/a	n/a	-999	24	[0, 0, 0]	n/a	FR1	0	R1286J
3198.291	1.617	3161873	ORIENT	n/a	n/a	n/a	-999	24	[0, 0, 0]	n/a	FR1	0	R1286J
3199.908	2.167	3163489	ORIENT_OFF	n/a	n/a	n/a	-999	24	[0, 0, 0]	n/a	FR1	0	R1286J
3202.075	1.617	3165656	WORD	n/a	wordpools/wordpool_EN.txt	PARK	1	24	[0, 0, 0]	n/a	FR1	0	R1286J
3203.692	0.851	3167273	WORD_OFF	n/a	n/a	PARK	1	24	[0, 0, 0]	n/a	FR1	0	R1286J
3204.543	1.616	3168124	WORD	n/a	wordpools/wordpool_EN.txt	KEY	2	24	[0, 0, 0]	n/a	FR1	0	R1286J
3206.159	0.8	3169740	WORD_OFF	n/a	n/a	KEY	2	24	[0, 0, 0]	n/a	FR1	0	R1286J
3206.959	1.618	3170540	WORD	n/a	wordpools/wordpool_EN.txt	SKUNK	3	24	[0, 0, 0]	n/a	FR1	0	R1286J
3208.577	0.9	3172158	WORD_OFF	n/a	n/a	SKUNK	3	24	[0, 0, 0]	n/a	FR1	0	R1286J
3209.477	1.616	3173058	WORD	n/a	wordpools/wordpool_EN.txt	CHEEK	4	24	[0, 0, 0]	n/a	FR1	0	R1286J
3211.093	0.9	3174674	WORD_OFF	n/a	n/a	CHEEK	4	24	[0, 0, 0]	n/a	FR1	0	R1286J
3211.993	1.618	3175574	WORD	n/a	wordpools/wordpool_EN.txt	CHIEF	5	24	[0, 0, 0]	n/a	FR1	0	R1286J
3213.611	0.782	3177192	WORD_OFF	n/a	n/a	CHIEF	5	24	[0, 0, 0]	n/a	FR1	0	R1286J
3214.393	1.617	3177974	WORD	n/a	wordpools/wordpool_EN.txt	MAIL	6	24	[0, 0, 0]	n/a	FR1	0	R1286J
3216.01	0.768	3179591	WORD_OFF	n/a	n/a	MAIL	6	24	[0, 0, 0]	n/a	FR1	0	R1286J
3216.778	1.616	3180359	WORD	n/a	wordpools/wordpool_EN.txt	SHIP	7	24	[0, 0, 0]	n/a	FR1	0	R1286J
3218.394	0.834	3181975	WORD_OFF	n/a	n/a	SHIP	7	24	[0, 0, 0]	n/a	FR1	0	R1286J
3219.228	1.616	3182809	WORD	n/a	wordpools/wordpool_EN.txt	CASH	8	24	[0, 0, 0]	n/a	FR1	0	R1286J
3220.844	0.885	3184425	WORD_OFF	n/a	n/a	CASH	8	24	[0, 0, 0]	n/a	FR1	0	R1286J
3221.729	1.616	3185310	WORD	n/a	wordpools/wordpool_EN.txt	WORLD	9	24	[0, 0, 0]	n/a	FR1	0	R1286J
3223.345	0.917	3186926	WORD_OFF	n/a	n/a	WORLD	9	24	[0, 0, 0]	n/a	FR1	0	R1286J
3224.262	1.617	3187843	WORD	n/a	wordpools/wordpool_EN.txt	RAIN	10	24	[0, 0, 0]	n/a	FR1	0	R1286J
3225.879	0.834	3189460	WORD_OFF	n/a	n/a	RAIN	10	24	[0, 0, 0]	n/a	FR1	0	R1286J
3226.713	1.616	3190294	WORD	n/a	wordpools/wordpool_EN.txt	FISH	11	24	[0, 0, 0]	n/a	FR1	0	R1286J
3228.329	0.9	3191910	WORD_OFF	n/a	n/a	FISH	11	24	[0, 0, 0]	n/a	FR1	0	R1286J
3229.229	1.601	3192809	WORD	n/a	wordpools/wordpool_EN.txt	TENT	12	24	[0, 0, 0]	n/a	FR1	0	R1286J
3230.83	0.0	3194410	WORD_OFF	n/a	n/a	TENT	12	24	[0, 0, 0]	n/a	FR1	0	R1286J
3230.83	0.001	3194410	DISTRACT_START	n/a	n/a	n/a	-999	24	[0, 0, 0]	n/a	FR1	0	R1286J
3230.831	0.015	3194411	START	n/a	n/a	n/a	-999	24	[-999, -999, -999]	n/a	FR1	0	R1286J
3230.846	10.435	3194426	PROB	10.435	n/a	n/a	-999	24	[9, 3, 7]	19	FR1	0	R1286J
3241.281	5.735	3204861	PROB	5.735	n/a	n/a	-999	24	[4, 1, 9]	14	FR1	0	R1286J
3247.016	4.826	3210596	PROB	4.826	n/a	n/a	-999	24	[1, 4, 4]	9	FR1	0	R1286J
3251.842	0.008	3215422	STOP	n/a	n/a	n/a	-999	24	[-999, -999, -999]	n/a	FR1	0	R1286J
3251.85	0.567	3215430	DISTRACT_END	n/a	n/a	n/a	-999	24	[0, 0, 0]	n/a	FR1	0	R1286J
3252.417	0.517	3215997	RETRIEVAL_ORIENT	n/a	n/a	n/a	-999	24	[0, 0, 0]	n/a	FR1	0	R1286J
3252.934	2.766	3216514	REC_START	n/a	n/a	n/a	-999	24	[0, 0, 0]	n/a	FR1	0	R1286J
3255.7	1.446	3219280	REC_WORD	1.446	n/a	FORK	-999	24	[0, 0, 0]	n/a	FR1	0	R1286J
3257.146	1.852	3220726	REC_WORD	1.852	n/a	SKI	-999	24	[0, 0, 0]	n/a	FR1	0	R1286J
3258.998	0.486	3222577	REC_WORD_VV	0.486	n/a	<>	-999	24	[0, 0, 0]	n/a	FR1	0	R1286J
3259.484	1.863	3223063	REC_WORD	1.863	n/a	SKY	-999	24	[0, 0, 0]	n/a	FR1	0	R1286J
3261.347	2.638	3224926	REC_WORD	2.638	n/a	CHIEF	-999	24	[0, 0, 0]	n/a	FR1	0	R1286J
3263.985	3.269	3227564	REC_WORD	3.269	n/a	LODGE	-999	24	[0, 0, 0]	n/a	FR1	0	R1286J
3267.254	15.692	3230833	REC_WORD	15.692	n/a	CLOUD	-999	24	[0, 0, 0]	n/a	FR1	0	R1286J
3282.946	2.727	3246525	REC_END	n/a	n/a	n/a	-999	24	[0, 0, 0]	n/a	FR1	0	R1286J
3285.673	0.0	3249252	TRIAL	n/a	n/a	n/a	-999	25	[0, 0, 0]	n/a	FR1	0	R1286J
3285.673	10.428	3249252	COUNTDOWN_START	n/a	n/a	n/a	-999	25	[0, 0, 0]	n/a	FR1	0	R1286J
3296.101	0.006	3259679	COUNTDOWN_END	n/a	n/a	n/a	-999	25	[0, 0, 0]	n/a	FR1	0	R1286J
3296.107	1.618	3259685	ORIENT	n/a	n/a	n/a	-999	25	[0, 0, 0]	n/a	FR1	0	R1286J
3297.725	1.934	3261303	ORIENT_OFF	n/a	n/a	n/a	-999	25	[0, 0, 0]	n/a	FR1	0	R1286J
3299.659	1.616	3263237	WORD	n/a	wordpools/wordpool_EN.txt	NAIL	1	25	[0, 0, 0]	n/a	FR1	0	R1286J
3301.275	0.783	3264853	WORD_OFF	n/a	n/a	NAIL	1	25	[0, 0, 0]	n/a	FR1	0	R1286J
3302.058	1.618	3265636	WORD	n/a	wordpools/wordpool_EN.txt	DART	2	25	[0, 0, 0]	n/a	FR1	0	R1286J
3303.676	0.95	3267254	WORD_OFF	n/a	n/a	DART	2	25	[0, 0, 0]	n/a	FR1	0	R1286J
3304.626	1.616	3268204	WORD	n/a	wordpools/wordpool_EN.txt	THREAD	3	25	[0, 0, 0]	n/a	FR1	0	R1286J
3306.242	0.984	3269820	WORD_OFF	n/a	n/a	THREAD	3	25	[0, 0, 0]	n/a	FR1	0	R1286J
3307.226	1.617	3270804	WORD	n/a	wordpools/wordpool_EN.txt	SPRING	4	25	[0, 0, 0]	n/a	FR1	0	R1286J
3308.843	0.818	3272421	WORD_OFF	n/a	n/a	SPRING	4	25	[0, 0, 0]	n/a	FR1	0	R1286J
3309.661	1.615	3273239	WORD	n/a	wordpools/wordpool_EN.txt	BEAN	5	25	[0, 0, 0]	n/a	FR1	0	R1286J
3311.276	0.867	3274854	WORD_OFF	n/a	n/a	BEAN	5	25	[0, 0, 0]	n/a	FR1	0	R1286J
3312.143	1.618	3275721	WORD	n/a	wordpools/wordpool_EN.txt	CANE	6	25	[0, 0, 0]	n/a	FR1	0	R1286J
3313.761	0.85	3277339	WORD_OFF	n/a	n/a	CANE	6	25	[0, 0, 0]	n/a	FR1	0	R1286J
3314.611	1.616	3278189	WORD	n/a	wordpools/wordpool_EN.txt	STICK	7	25	[0, 0, 0]	n/a	FR1	0	R1286J
3316.227	0.817	3279804	WORD_OFF	n/a	n/a	STICK	7	25	[0, 0, 0]	n/a	FR1	0	R1286J
3317.044	1.618	3280621	WORD	n/a	wordpools/wordpool_EN.txt	BARN	8	25	[0, 0, 0]	n/a	FR1	0	R1286J
3318.662	0.967	3282239	WORD_OFF	n/a	n/a	BARN	8	25	[0, 0, 0]	n/a	FR1	0	R1286J
3319.629	1.616	3283206	WORD	n/a	wordpools/wordpool_EN.txt	SPOON	9	25	[0, 0, 0]	n/a	FR1	0	R1286J
3321.245	0.8	3284822	WORD_OFF	n/a	n/a	SPOON	9	25	[0, 0, 0]	n/a	FR1	0	R1286J
3322.045	1.601	3285622	WORD	n/a	wordpools/wordpool_EN.txt	CAKE	10	25	[0, 0, 0]	n/a	FR1	0	R1286J
3323.646	0.85	3287223	WORD_OFF	n/a	n/a	CAKE	10	25	[0, 0, 0]	n/a	FR1	0	R1286J
3324.496	1.616	3288073	WORD	n/a	wordpools/wordpool_EN.txt	TIE	11	25	[0, 0, 0]	n/a	FR1	0	R1286J
3326.112	0.784	3289689	WORD_OFF	n/a	n/a	TIE	11	25	[0, 0, 0]	n/a	FR1	0	R1286J
3326.896	1.618	3290473	WORD	n/a	wordpools/wordpool_EN.txt	MAT	12	25	[0, 0, 0]	n/a	FR1	0	R1286J
3328.514	0.0	3292091	WORD_OFF	n/a	n/a	MAT	12	25	[0, 0, 0]	n/a	FR1	0	R1286J
3328.514	0.0	3292091	DISTRACT_START	n/a	n/a	n/a	-999	25	[0, 0, 0]	n/a	FR1	0	R1286J
3328.514	0.016	3292091	START	n/a	n/a	n/a	-999	25	[-999, -999, -999]	n/a	FR1	0	R1286J
3328.53	10.351	3292107	PROB	10.351	n/a	n/a	-999	25	[4, 8, 2]	14	FR1	0	R1286J
3338.881	6.752	3302458	PROB	6.752	n/a	n/a	-999	25	[5, 9, 5]	19	FR1	0	R1286J
3345.633	5.735	3309209	PROB	5.735	n/a	n/a	-999	25	[9, 3, 8]	20	FR1	0	R1286J
3351.368	0.015	3314944	STOP	n/a	n/a	n/a	-999	25	[-999, -999, -999]	n/a	FR1	0	R1286J
3351.383	0.55	3314959	DISTRACT_END	n/a	n/a	n/a	-999	25	[0, 0, 0]	n/a	FR1	0	R1286J
3351.933	0.519	3315509	RETRIEVAL_ORIENT	n/a	n/a	n/a	-999	25	[0, 0, 0]	n/a	FR1	0	R1286J
3352.452	3.218	3316028	REC_START	n/a	n/a	n/a	-999	25	[0, 0, 0]	n/a	FR1	0	R1286J
3355.67	1.986	3319246	REC_WORD	1.986	n/a	SPRING	-999	25	[0, 0, 0]	n/a	FR1	0	R1286J
3357.656	9.178	3321232	REC_WORD	9.178	n/a	NAIL	-999	25	[0, 0, 0]	n/a	FR1	0	R1286J
3366.834	7.82	3330410	REC_WORD	7.82	n/a	DART	-999	25	[0, 0, 0]	n/a	FR1	0	R1286J
3374.654	7.809	3338229	REC_WORD	7.809	n/a	CANE	-999	25	[0, 0, 0]	n/a	FR1	0	R1286J
3382.463	3.21	3346038	REC_END	n/a	n/a	n/a	-999	25	[0, 0, 0]	n/a	FR1	0	R1286J
3385.673	0.0	3349248	SESS_END	n/a	n/a	n/a	-999	25	[0, 0, 0]	n/a	FR1	0	R1286J
