onset	duration	sample	trial_type	response_time	stim_file	item_name	serialpos	list	test	answer	experiment	session	subject
0.0	7451.891	-1	INSTRUCT_START	n/a	n/a	n/a	-999	-999	[0, 0, 0]	n/a	FR1	0	R1299T
7451.891	258.958	1509	INSTRUCT_START	n/a	n/a	n/a	-999	-999	[0, 0, 0]	n/a	FR1	0	R1299T
7710.849	14.836	260455	INSTRUCT_END	n/a	n/a	n/a	-999	-999	[0, 0, 0]	n/a	FR1	0	R1299T
7725.685	9.665	275291	MIC TEST_START	n/a	n/a	n/a	-999	-999	[0, 0, 0]	n/a	FR1	0	R1299T
7735.35	0.01	284955	MIC TEST_END	n/a	n/a	n/a	-999	-999	[0, 0, 0]	n/a	FR1	0	R1299T
7735.36	0.0	284965	TRIAL_START	n/a	n/a	n/a	-999	-1	[0, 0, 0]	n/a	FR1	0	R1299T
7735.36	0.001	284965	TRIAL	n/a	n/a	n/a	-999	-1	[0, 0, 0]	n/a	FR1	0	R1299T
7735.361	13.395	284966	WAITING_START	n/a	n/a	n/a	-999	-1	[0, 0, 0]	n/a	FR1	0	R1299T
7748.756	0.0	298361	COUNTDOWN_START	n/a	n/a	n/a	-999	-1	[0, 0, 0]	n/a	FR1	0	R1299T
7748.756	10.428	298361	WAITING_END	n/a	n/a	n/a	-999	-1	[0, 0, 0]	n/a	FR1	0	R1299T
7759.184	0.001	308788	COUNTDOWN_END	n/a	n/a	n/a	-999	-1	[0, 0, 0]	n/a	FR1	0	R1299T
7759.185	1.173	308789	ORIENT_START	n/a	n/a	n/a	-999	-1	[0, 0, 0]	n/a	FR1	0	R1299T
7760.358	0.001	309962	ORIENT_END	n/a	n/a	n/a	-999	-1	[0, 0, 0]	n/a	FR1	0	R1299T
7760.359	1.045	309963	ENCODING_START	n/a	n/a	n/a	-999	-1	[0, 0, 0]	n/a	FR1	0	R1299T
7761.404	1.621	311008	WORD	n/a	n/a	ATTIC	1	-1	[0, 0, 0]	n/a	FR1	0	R1299T
7763.025	0.979	312629	WORD_OFF	n/a	n/a	ATTIC	1	-1	[0, 0, 0]	n/a	FR1	0	R1299T
7764.004	1.638	313608	WORD	n/a	n/a	BEAM	2	-1	[0, 0, 0]	n/a	FR1	0	R1299T
7765.642	0.949	315246	WORD_OFF	n/a	n/a	BEAM	2	-1	[0, 0, 0]	n/a	FR1	0	R1299T
7766.591	1.619	316195	WORD	n/a	n/a	CAMEL	3	-1	[0, 0, 0]	n/a	FR1	0	R1299T
7768.21	0.892	317814	WORD_OFF	n/a	n/a	CAMEL	3	-1	[0, 0, 0]	n/a	FR1	0	R1299T
7769.102	1.624	318706	WORD	n/a	n/a	CHEST	4	-1	[0, 0, 0]	n/a	FR1	0	R1299T
7770.726	0.842	320330	WORD_OFF	n/a	n/a	CHEST	4	-1	[0, 0, 0]	n/a	FR1	0	R1299T
7771.568	1.609	321172	WORD	n/a	n/a	COTTON	5	-1	[0, 0, 0]	n/a	FR1	0	R1299T
7773.177	1.122	322781	WORD_OFF	n/a	n/a	COTTON	5	-1	[0, 0, 0]	n/a	FR1	0	R1299T
7774.299	1.628	323903	WORD	n/a	n/a	FLOOD	6	-1	[0, 0, 0]	n/a	FR1	0	R1299T
7775.927	1.128	325530	WORD_OFF	n/a	n/a	FLOOD	6	-1	[0, 0, 0]	n/a	FR1	0	R1299T
7777.055	1.623	326658	WORD	n/a	n/a	IRON	7	-1	[0, 0, 0]	n/a	FR1	0	R1299T
7778.678	0.878	328281	WORD_OFF	n/a	n/a	IRON	7	-1	[0, 0, 0]	n/a	FR1	0	R1299T
7779.556	1.623	329159	WORD	n/a	n/a	RHINO	8	-1	[0, 0, 0]	n/a	FR1	0	R1299T
7781.179	0.962	330782	WORD_OFF	n/a	n/a	RHINO	8	-1	[0, 0, 0]	n/a	FR1	0	R1299T
7782.141	1.621	331744	WORD	n/a	n/a	RING	9	-1	[0, 0, 0]	n/a	FR1	0	R1299T
7783.762	1.126	333365	WORD_OFF	n/a	n/a	RING	9	-1	[0, 0, 0]	n/a	FR1	0	R1299T
7784.888	1.625	334491	WORD	n/a	n/a	TONGUE	10	-1	[0, 0, 0]	n/a	FR1	0	R1299T
7786.513	0.929	336116	WORD_OFF	n/a	n/a	TONGUE	10	-1	[0, 0, 0]	n/a	FR1	0	R1299T
7787.442	1.621	337045	WORD	n/a	n/a	WAGON	11	-1	[0, 0, 0]	n/a	FR1	0	R1299T
7789.063	0.908	338666	WORD_OFF	n/a	n/a	WAGON	11	-1	[0, 0, 0]	n/a	FR1	0	R1299T
7789.971	1.625	339574	WORD	n/a	n/a	WATCH	12	-1	[0, 0, 0]	n/a	FR1	0	R1299T
7791.596	0.001	341199	WORD_OFF	n/a	n/a	WATCH	12	-1	[0, 0, 0]	n/a	FR1	0	R1299T
7791.597	0.0	341200	ENCODING_END	n/a	n/a	n/a	-999	-1	[0, 0, 0]	n/a	FR1	0	R1299T
7791.597	0.001	341200	DISTRACT_START	n/a	n/a	n/a	-999	-1	[0, 0, 0]	n/a	FR1	0	R1299T
7791.598	0.015	341201	START	n/a	n/a	n/a	-999	-1	[-999, -999, -999]	n/a	FR1	0	R1299T
7791.613	14.486	341216	PROB	14.486	n/a	n/a	-999	-1	[2, 7, 7]	16	FR1	0	R1299T
7806.099	8.732	355701	PROB	8.732	n/a	n/a	-999	-1	[6, 4, 4]	14	FR1	0	R1299T
7814.831	0.02	364433	STOP	n/a	n/a	n/a	-999	-1	[-999, -999, -999]	n/a	FR1	0	R1299T
7814.851	0.611	364453	DISTRACT_END	n/a	n/a	n/a	-999	-1	[0, 0, 0]	n/a	FR1	0	R1299T
7815.462	1.622	365064	RETRIEVAL_ORIENT_START	n/a	n/a	n/a	-999	-1	[0, 0, 0]	n/a	FR1	0	R1299T
7817.084	0.001	366686	RETRIEVAL_ORIENT_END	n/a	n/a	n/a	-999	-1	[0, 0, 0]	n/a	FR1	0	R1299T
7817.085	4.511	366687	REC_START	n/a	n/a	n/a	-999	-1	[0, 0, 0]	n/a	FR1	0	R1299T
7821.596	1.354	371197	REC_WORD_VV	1.354	n/a	<>	-999	-1	[0, 0, 0]	n/a	FR1	0	R1299T
7822.95	1.353	372551	REC_WORD_VV	1.353	n/a	<>	-999	-1	[0, 0, 0]	n/a	FR1	0	R1299T
7824.303	1.254	373904	REC_WORD_VV	1.254	n/a	<>	-999	-1	[0, 0, 0]	n/a	FR1	0	R1299T
7825.557	0.724	375158	REC_WORD_VV	0.724	n/a	<>	-999	-1	[0, 0, 0]	n/a	FR1	0	R1299T
7826.281	1.866	375882	REC_WORD	1.866	n/a	WAGON	-999	-1	[0, 0, 0]	n/a	FR1	0	R1299T
7828.147	2.576	377748	REC_WORD	2.576	n/a	RHINO	-999	-1	[0, 0, 0]	n/a	FR1	0	R1299T
7830.723	2.155	380324	REC_WORD_VV	2.155	n/a	<>	-999	-1	[0, 0, 0]	n/a	FR1	0	R1299T
7832.878	1.679	382479	REC_WORD_VV	1.679	n/a	<>	-999	-1	[0, 0, 0]	n/a	FR1	0	R1299T
7834.557	0.284	384158	REC_WORD	0.284	n/a	LOOP	-999	-1	[0, 0, 0]	n/a	FR1	0	R1299T
7834.841	5.327	384442	REC_WORD_VV	5.327	n/a	<>	-999	-1	[0, 0, 0]	n/a	FR1	0	R1299T
7840.168	4.54	389769	REC_WORD_VV	4.54	n/a	<>	-999	-1	[0, 0, 0]	n/a	FR1	0	R1299T
7844.708	2.39	394308	REC_WORD_VV	2.39	n/a	<>	-999	-1	[0, 0, 0]	n/a	FR1	0	R1299T
7847.098	0.001	396698	REC_END	n/a	n/a	n/a	-999	-1	[0, 0, 0]	n/a	FR1	0	R1299T
7847.099	100.294	396699	PRACTICE_POST_INSTRUCT_START	n/a	n/a	n/a	-999	-1	[0, 0, 0]	n/a	FR1	0	R1299T
7947.393	0.0	496989	PRACTICE_POST_INSTRUCT_END	n/a	n/a	n/a	-999	-1	[0, 0, 0]	n/a	FR1	0	R1299T
7947.393	0.016	496989	TRIAL_END	n/a	n/a	n/a	-999	-1	[0, 0, 0]	n/a	FR1	0	R1299T
7947.409	0.0	497005	TRIAL_START	n/a	n/a	n/a	-999	1	[0, 0, 0]	n/a	FR1	0	R1299T
7947.409	0.0	497005	TRIAL	n/a	n/a	n/a	-999	1	[0, 0, 0]	n/a	FR1	0	R1299T
7947.409	13.136	497005	WAITING_START	n/a	n/a	n/a	-999	1	[0, 0, 0]	n/a	FR1	0	R1299T
7960.545	0.0	510140	COUNTDOWN_START	n/a	n/a	n/a	-999	1	[0, 0, 0]	n/a	FR1	0	R1299T
7960.545	10.43	510140	WAITING_END	n/a	n/a	n/a	-999	1	[0, 0, 0]	n/a	FR1	0	R1299T
7970.975	0.001	520570	COUNTDOWN_END	n/a	n/a	n/a	-999	1	[0, 0, 0]	n/a	FR1	0	R1299T
7970.976	1.254	520571	ORIENT_START	n/a	n/a	n/a	-999	1	[0, 0, 0]	n/a	FR1	0	R1299T
7972.23	0.001	521825	ORIENT_END	n/a	n/a	n/a	-999	1	[0, 0, 0]	n/a	FR1	0	R1299T
7972.231	1.089	521826	ENCODING_START	n/a	n/a	n/a	-999	1	[0, 0, 0]	n/a	FR1	0	R1299T
7973.32	1.626	522915	WORD	n/a	n/a	EAR	1	1	[0, 0, 0]	n/a	FR1	0	R1299T
7974.946	1.131	524541	WORD_OFF	n/a	n/a	EAR	1	1	[0, 0, 0]	n/a	FR1	0	R1299T
7976.077	1.637	525672	WORD	n/a	n/a	SWORD	2	1	[0, 0, 0]	n/a	FR1	0	R1299T
7977.714	0.813	527309	WORD_OFF	n/a	n/a	SWORD	2	1	[0, 0, 0]	n/a	FR1	0	R1299T
7978.527	1.638	528122	WORD	n/a	n/a	MILK	3	1	[0, 0, 0]	n/a	FR1	0	R1299T
7980.165	1.05	529759	WORD_OFF	n/a	n/a	MILK	3	1	[0, 0, 0]	n/a	FR1	0	R1299T
7981.215	1.633	530809	WORD	n/a	n/a	SPOON	4	1	[0, 0, 0]	n/a	FR1	0	R1299T
7982.848	0.92	532442	WORD_OFF	n/a	n/a	SPOON	4	1	[0, 0, 0]	n/a	FR1	0	R1299T
7983.768	1.615	533362	WORD	n/a	n/a	CART	5	1	[0, 0, 0]	n/a	FR1	0	R1299T
7985.383	0.879	534977	WORD_OFF	n/a	n/a	CART	5	1	[0, 0, 0]	n/a	FR1	0	R1299T
7986.262	1.637	535856	WORD	n/a	n/a	CROWN	6	1	[0, 0, 0]	n/a	FR1	0	R1299T
7987.899	0.878	537493	WORD_OFF	n/a	n/a	CROWN	6	1	[0, 0, 0]	n/a	FR1	0	R1299T
7988.777	1.64	538371	WORD	n/a	n/a	SLUSH	7	1	[0, 0, 0]	n/a	FR1	0	R1299T
7990.417	1.073	540011	WORD_OFF	n/a	n/a	SLUSH	7	1	[0, 0, 0]	n/a	FR1	0	R1299T
7991.49	1.626	541084	WORD	n/a	n/a	SAIL	8	1	[0, 0, 0]	n/a	FR1	0	R1299T
7993.116	0.764	542710	WORD_OFF	n/a	n/a	SAIL	8	1	[0, 0, 0]	n/a	FR1	0	R1299T
7993.88	1.638	543474	WORD	n/a	n/a	WOLF	9	1	[0, 0, 0]	n/a	FR1	0	R1299T
7995.518	0.818	545112	WORD_OFF	n/a	n/a	WOLF	9	1	[0, 0, 0]	n/a	FR1	0	R1299T
7996.336	1.631	545930	WORD	n/a	n/a	HOOK	10	1	[0, 0, 0]	n/a	FR1	0	R1299T
7997.967	1.02	547561	WORD_OFF	n/a	n/a	HOOK	10	1	[0, 0, 0]	n/a	FR1	0	R1299T
7998.987	1.631	548581	WORD	n/a	n/a	LAMB	11	1	[0, 0, 0]	n/a	FR1	0	R1299T
8000.618	1.003	550212	WORD_OFF	n/a	n/a	LAMB	11	1	[0, 0, 0]	n/a	FR1	0	R1299T
8001.621	1.615	551215	WORD	n/a	n/a	LEG	12	1	[0, 0, 0]	n/a	FR1	0	R1299T
8003.236	0.001	552829	WORD_OFF	n/a	n/a	LEG	12	1	[0, 0, 0]	n/a	FR1	0	R1299T
8003.237	0.0	552830	DISTRACT_START	n/a	n/a	n/a	-999	1	[0, 0, 0]	n/a	FR1	0	R1299T
8003.237	0.0	552830	ENCODING_END	n/a	n/a	n/a	-999	1	[0, 0, 0]	n/a	FR1	0	R1299T
8003.237	0.015	552830	START	n/a	n/a	n/a	-999	1	[-999, -999, -999]	n/a	FR1	0	R1299T
8003.252	10.685	552845	PROB	10.685	n/a	n/a	-999	1	[1, 9, 9]	19	FR1	0	R1299T
8013.937	6.619	563530	PROB	6.619	n/a	n/a	-999	1	[7, 3, 5]	15	FR1	0	R1299T
8020.556	6.561	570149	PROB	6.561	n/a	n/a	-999	1	[1, 3, 6]	10	FR1	0	R1299T
8027.117	0.023	576709	STOP	n/a	n/a	n/a	-999	1	[-999, -999, -999]	n/a	FR1	0	R1299T
8027.14	0.535	576732	DISTRACT_END	n/a	n/a	n/a	-999	1	[0, 0, 0]	n/a	FR1	0	R1299T
8027.675	1.716	577267	RETRIEVAL_ORIENT_START	n/a	n/a	n/a	-999	1	[0, 0, 0]	n/a	FR1	0	R1299T
8029.391	0.0	578983	RETRIEVAL_ORIENT_END	n/a	n/a	n/a	-999	1	[0, 0, 0]	n/a	FR1	0	R1299T
8029.391	6.597	578983	REC_START	n/a	n/a	n/a	-999	1	[0, 0, 0]	n/a	FR1	0	R1299T
8035.988	2.502	585580	REC_WORD_VV	2.502	n/a	<>	-999	1	[0, 0, 0]	n/a	FR1	0	R1299T
8038.49	0.352	588082	REC_WORD_VV	0.352	n/a	<>	-999	1	[0, 0, 0]	n/a	FR1	0	R1299T
8038.842	2.642	588434	REC_WORD	2.642	n/a	EAR	1	1	[0, 0, 0]	n/a	FR1	0	R1299T
8041.484	5.005	591076	REC_WORD	5.005	n/a	SLUSH	7	1	[0, 0, 0]	n/a	FR1	0	R1299T
8046.489	6.503	596081	REC_WORD_VV	6.503	n/a	<>	-999	1	[0, 0, 0]	n/a	FR1	0	R1299T
8052.992	6.412	602583	REC_WORD	6.412	n/a	SLUSH	7	1	[0, 0, 0]	n/a	FR1	0	R1299T
8059.404	0.0	608995	REC_END	n/a	n/a	n/a	-999	1	[0, 0, 0]	n/a	FR1	0	R1299T
8059.404	0.015	608995	TRIAL_END	n/a	n/a	n/a	-999	1	[0, 0, 0]	n/a	FR1	0	R1299T
8059.419	0.0	609010	TRIAL_START	n/a	n/a	n/a	-999	2	[0, 0, 0]	n/a	FR1	0	R1299T
8059.419	0.0	609010	TRIAL	n/a	n/a	n/a	-999	2	[0, 0, 0]	n/a	FR1	0	R1299T
8059.419	22.697	609010	WAITING_START	n/a	n/a	n/a	-999	2	[0, 0, 0]	n/a	FR1	0	R1299T
8082.116	0.0	631706	WAITING_END	n/a	n/a	n/a	-999	2	[0, 0, 0]	n/a	FR1	0	R1299T
8082.116	10.43	631706	COUNTDOWN_START	n/a	n/a	n/a	-999	2	[0, 0, 0]	n/a	FR1	0	R1299T
8092.546	0.0	642136	ORIENT_START	n/a	n/a	n/a	-999	2	[0, 0, 0]	n/a	FR1	0	R1299T
8092.546	1.222	642136	COUNTDOWN_END	n/a	n/a	n/a	-999	2	[0, 0, 0]	n/a	FR1	0	R1299T
8093.768	0.0	643357	ORIENT_END	n/a	n/a	n/a	-999	2	[0, 0, 0]	n/a	FR1	0	R1299T
8093.768	0.998	643357	ENCODING_START	n/a	n/a	n/a	-999	2	[0, 0, 0]	n/a	FR1	0	R1299T
8094.766	1.62	644355	WORD	n/a	n/a	TOOL	1	2	[0, 0, 0]	n/a	FR1	0	R1299T
8096.386	1.078	645975	WORD_OFF	n/a	n/a	TOOL	1	2	[0, 0, 0]	n/a	FR1	0	R1299T
8097.464	1.622	647053	WORD	n/a	n/a	BRICK	2	2	[0, 0, 0]	n/a	FR1	0	R1299T
8099.086	0.818	648675	WORD_OFF	n/a	n/a	BRICK	2	2	[0, 0, 0]	n/a	FR1	0	R1299T
8099.904	1.633	649493	WORD	n/a	n/a	TANK	3	2	[0, 0, 0]	n/a	FR1	0	R1299T
8101.537	0.954	651126	WORD_OFF	n/a	n/a	TANK	3	2	[0, 0, 0]	n/a	FR1	0	R1299T
8102.491	1.629	652080	WORD	n/a	n/a	SQUARE	4	2	[0, 0, 0]	n/a	FR1	0	R1299T
8104.12	0.943	653709	WORD_OFF	n/a	n/a	SQUARE	4	2	[0, 0, 0]	n/a	FR1	0	R1299T
8105.063	1.624	654652	WORD	n/a	n/a	RAIN	5	2	[0, 0, 0]	n/a	FR1	0	R1299T
8106.687	1.042	656276	WORD_OFF	n/a	n/a	RAIN	5	2	[0, 0, 0]	n/a	FR1	0	R1299T
8107.729	1.626	657318	WORD	n/a	n/a	POOL	6	2	[0, 0, 0]	n/a	FR1	0	R1299T
8109.355	0.784	658944	WORD_OFF	n/a	n/a	POOL	6	2	[0, 0, 0]	n/a	FR1	0	R1299T
8110.139	1.632	659728	WORD	n/a	n/a	CLOCK	7	2	[0, 0, 0]	n/a	FR1	0	R1299T
8111.771	1.087	661360	WORD_OFF	n/a	n/a	CLOCK	7	2	[0, 0, 0]	n/a	FR1	0	R1299T
8112.858	1.631	662447	WORD	n/a	n/a	MOOSE	8	2	[0, 0, 0]	n/a	FR1	0	R1299T
8114.489	0.839	664078	WORD_OFF	n/a	n/a	MOOSE	8	2	[0, 0, 0]	n/a	FR1	0	R1299T
8115.328	1.628	664917	WORD	n/a	n/a	POND	9	2	[0, 0, 0]	n/a	FR1	0	R1299T
8116.956	1.083	666544	WORD_OFF	n/a	n/a	POND	9	2	[0, 0, 0]	n/a	FR1	0	R1299T
8118.039	1.634	667627	WORD	n/a	n/a	BENCH	10	2	[0, 0, 0]	n/a	FR1	0	R1299T
8119.673	0.957	669261	WORD_OFF	n/a	n/a	BENCH	10	2	[0, 0, 0]	n/a	FR1	0	R1299T
8120.63	1.611	670218	WORD	n/a	n/a	PURSE	11	2	[0, 0, 0]	n/a	FR1	0	R1299T
8122.241	1.108	671829	WORD_OFF	n/a	n/a	PURSE	11	2	[0, 0, 0]	n/a	FR1	0	R1299T
8123.349	1.625	672937	WORD	n/a	n/a	LEAF	12	2	[0, 0, 0]	n/a	FR1	0	R1299T
8124.974	0.0	674562	DISTRACT_START	n/a	n/a	n/a	-999	2	[0, 0, 0]	n/a	FR1	0	R1299T
8124.974	0.0	674562	ENCODING_END	n/a	n/a	n/a	-999	2	[0, 0, 0]	n/a	FR1	0	R1299T
8124.974	0.001	674562	WORD_OFF	n/a	n/a	LEAF	12	2	[0, 0, 0]	n/a	FR1	0	R1299T
8124.975	0.015	674563	START	n/a	n/a	n/a	-999	2	[-999, -999, -999]	n/a	FR1	0	R1299T
8124.99	10.186	674578	PROB	10.186	n/a	n/a	-999	2	[8, 9, 2]	19	FR1	0	R1299T
8135.176	6.151	684764	PROB	6.151	n/a	n/a	-999	2	[9, 8, 2]	19	FR1	0	R1299T
8141.327	6.321	690914	PROB	6.321	n/a	n/a	-999	2	[8, 3, 4]	15	FR1	0	R1299T
8147.648	0.013	697235	STOP	n/a	n/a	n/a	-999	2	[-999, -999, -999]	n/a	FR1	0	R1299T
8147.661	0.52	697248	DISTRACT_END	n/a	n/a	n/a	-999	2	[0, 0, 0]	n/a	FR1	0	R1299T
8148.181	1.531	697768	RETRIEVAL_ORIENT_START	n/a	n/a	n/a	-999	2	[0, 0, 0]	n/a	FR1	0	R1299T
8149.712	0.0	699299	RETRIEVAL_ORIENT_END	n/a	n/a	n/a	-999	2	[0, 0, 0]	n/a	FR1	0	R1299T
8149.712	1.803	699299	REC_START	n/a	n/a	n/a	-999	2	[0, 0, 0]	n/a	FR1	0	R1299T
8151.515	0.315	701102	REC_WORD_VV	0.315	n/a	<>	-999	2	[0, 0, 0]	n/a	FR1	0	R1299T
8151.83	2.299	701417	REC_WORD	2.299	n/a	POND	9	2	[0, 0, 0]	n/a	FR1	0	R1299T
8154.129	5.35	703716	REC_WORD	5.35	n/a	PURSE	11	2	[0, 0, 0]	n/a	FR1	0	R1299T
8159.479	0.47	709066	REC_WORD	0.47	n/a	BENCH	10	2	[0, 0, 0]	n/a	FR1	0	R1299T
8159.949	0.818	709536	REC_WORD_VV	0.818	n/a	<>	-999	2	[0, 0, 0]	n/a	FR1	0	R1299T
8160.767	11.272	710354	REC_WORD	11.272	n/a	LEAF	12	2	[0, 0, 0]	n/a	FR1	0	R1299T
8172.039	3.325	721625	REC_WORD	3.325	n/a	EAR	-999	2	[0, 0, 0]	n/a	FR1	0	R1299T
8175.364	1.0	724950	REC_WORD	1.0	n/a	SLUSH	-999	2	[0, 0, 0]	n/a	FR1	0	R1299T
8176.364	1.0	725950	REC_WORD_VV	1.0	n/a	<>	-999	2	[0, 0, 0]	n/a	FR1	0	R1299T
8177.364	2.361	726950	REC_WORD_VV	2.361	n/a	<>	-999	2	[0, 0, 0]	n/a	FR1	0	R1299T
8179.725	0.0	729311	REC_END	n/a	n/a	n/a	-999	2	[0, 0, 0]	n/a	FR1	0	R1299T
8179.725	0.014	729311	TRIAL_END	n/a	n/a	n/a	-999	2	[0, 0, 0]	n/a	FR1	0	R1299T
8179.739	0.0	729325	WAITING_START	n/a	n/a	n/a	-999	3	[0, 0, 0]	n/a	FR1	0	R1299T
8179.739	0.0	729325	TRIAL	n/a	n/a	n/a	-999	3	[0, 0, 0]	n/a	FR1	0	R1299T
8179.739	6.564	729325	TRIAL_START	n/a	n/a	n/a	-999	3	[0, 0, 0]	n/a	FR1	0	R1299T
8186.303	0.0	735888	WAITING_END	n/a	n/a	n/a	-999	3	[0, 0, 0]	n/a	FR1	0	R1299T
8186.303	10.429	735888	COUNTDOWN_START	n/a	n/a	n/a	-999	3	[0, 0, 0]	n/a	FR1	0	R1299T
8196.732	0.0	746317	COUNTDOWN_END	n/a	n/a	n/a	-999	3	[0, 0, 0]	n/a	FR1	0	R1299T
8196.732	1.238	746317	ORIENT_START	n/a	n/a	n/a	-999	3	[0, 0, 0]	n/a	FR1	0	R1299T
8197.97	0.001	747555	ORIENT_END	n/a	n/a	n/a	-999	3	[0, 0, 0]	n/a	FR1	0	R1299T
8197.971	0.808	747556	ENCODING_START	n/a	n/a	n/a	-999	3	[0, 0, 0]	n/a	FR1	0	R1299T
8198.779	1.609	748364	WORD	n/a	n/a	EEL	1	3	[0, 0, 0]	n/a	FR1	0	R1299T
8200.388	1.119	749973	WORD_OFF	n/a	n/a	EEL	1	3	[0, 0, 0]	n/a	FR1	0	R1299T
8201.507	1.632	751092	WORD	n/a	n/a	FLOOR	2	3	[0, 0, 0]	n/a	FR1	0	R1299T
8203.139	1.083	752724	WORD_OFF	n/a	n/a	FLOOR	2	3	[0, 0, 0]	n/a	FR1	0	R1299T
8204.222	1.633	753807	WORD	n/a	n/a	BAT	3	3	[0, 0, 0]	n/a	FR1	0	R1299T
8205.855	0.819	755440	WORD_OFF	n/a	n/a	BAT	3	3	[0, 0, 0]	n/a	FR1	0	R1299T
8206.674	1.616	756258	WORD	n/a	n/a	FENCE	4	3	[0, 0, 0]	n/a	FR1	0	R1299T
8208.29	1.084	757874	WORD_OFF	n/a	n/a	FENCE	4	3	[0, 0, 0]	n/a	FR1	0	R1299T
8209.374	1.632	758958	WORD	n/a	n/a	STORM	5	3	[0, 0, 0]	n/a	FR1	0	R1299T
8211.006	1.115	760590	WORD_OFF	n/a	n/a	STORM	5	3	[0, 0, 0]	n/a	FR1	0	R1299T
8212.121	1.635	761705	WORD	n/a	n/a	BIRD	6	3	[0, 0, 0]	n/a	FR1	0	R1299T
8213.756	0.931	763340	WORD_OFF	n/a	n/a	BIRD	6	3	[0, 0, 0]	n/a	FR1	0	R1299T
8214.687	1.638	764271	WORD	n/a	n/a	CORN	7	3	[0, 0, 0]	n/a	FR1	0	R1299T
8216.325	1.057	765909	WORD_OFF	n/a	n/a	CORN	7	3	[0, 0, 0]	n/a	FR1	0	R1299T
8217.382	1.626	766966	WORD	n/a	n/a	FOOT	8	3	[0, 0, 0]	n/a	FR1	0	R1299T
8219.008	0.984	768592	WORD_OFF	n/a	n/a	FOOT	8	3	[0, 0, 0]	n/a	FR1	0	R1299T
8219.992	1.633	769576	WORD	n/a	n/a	TOAD	9	3	[0, 0, 0]	n/a	FR1	0	R1299T
8221.625	0.8	771209	WORD_OFF	n/a	n/a	TOAD	9	3	[0, 0, 0]	n/a	FR1	0	R1299T
8222.425	1.633	772009	WORD	n/a	n/a	OWL	10	3	[0, 0, 0]	n/a	FR1	0	R1299T
8224.058	1.065	773642	WORD_OFF	n/a	n/a	OWL	10	3	[0, 0, 0]	n/a	FR1	0	R1299T
8225.123	1.636	774707	WORD	n/a	n/a	TOAST	11	3	[0, 0, 0]	n/a	FR1	0	R1299T
8226.759	1.044	776343	WORD_OFF	n/a	n/a	TOAST	11	3	[0, 0, 0]	n/a	FR1	0	R1299T
8227.803	1.624	777387	WORD	n/a	n/a	BOOT	12	3	[0, 0, 0]	n/a	FR1	0	R1299T
8229.427	0.0	779010	WORD_OFF	n/a	n/a	BOOT	12	3	[0, 0, 0]	n/a	FR1	0	R1299T
8229.427	0.001	779010	ENCODING_END	n/a	n/a	n/a	-999	3	[0, 0, 0]	n/a	FR1	0	R1299T
8229.428	0.0	779011	DISTRACT_START	n/a	n/a	n/a	-999	3	[0, 0, 0]	n/a	FR1	0	R1299T
8229.428	0.015	779011	START	n/a	n/a	n/a	-999	3	[-999, -999, -999]	n/a	FR1	0	R1299T
8229.443	8.684	779026	PROB	8.684	n/a	n/a	-999	3	[5, 1, 2]	8	FR1	0	R1299T
8238.127	9.519	787710	PROB	9.519	n/a	n/a	-999	3	[7, 5, 3]	15	FR1	0	R1299T
8247.646	7.959	797229	PROB	7.959	n/a	n/a	-999	3	[9, 1, 2]	12	FR1	0	R1299T
8255.605	0.009	805187	STOP	n/a	n/a	n/a	-999	3	[-999, -999, -999]	n/a	FR1	0	R1299T
8255.614	0.538	805196	DISTRACT_END	n/a	n/a	n/a	-999	3	[0, 0, 0]	n/a	FR1	0	R1299T
8256.152	1.729	805734	RETRIEVAL_ORIENT_START	n/a	n/a	n/a	-999	3	[0, 0, 0]	n/a	FR1	0	R1299T
8257.881	0.0	807463	REC_START	n/a	n/a	n/a	-999	3	[0, 0, 0]	n/a	FR1	0	R1299T
8257.881	4.093	807463	RETRIEVAL_ORIENT_END	n/a	n/a	n/a	-999	3	[0, 0, 0]	n/a	FR1	0	R1299T
8261.974	0.216	811556	REC_WORD_VV	0.216	n/a	<>	-999	3	[0, 0, 0]	n/a	FR1	0	R1299T
8262.19	4.951	811772	REC_WORD	4.951	n/a	POND	-999	3	[0, 0, 0]	n/a	FR1	0	R1299T
8267.141	10.606	816723	REC_WORD	10.606	n/a	EEL	1	3	[0, 0, 0]	n/a	FR1	0	R1299T
8277.747	10.148	827328	REC_WORD	10.148	n/a	BRICK	-999	3	[0, 0, 0]	n/a	FR1	0	R1299T
8287.895	0.0	837476	REC_END	n/a	n/a	n/a	-999	3	[0, 0, 0]	n/a	FR1	0	R1299T
8287.895	0.014	837476	TRIAL_END	n/a	n/a	n/a	-999	3	[0, 0, 0]	n/a	FR1	0	R1299T
8287.909	0.0	837490	TRIAL	n/a	n/a	n/a	-999	4	[0, 0, 0]	n/a	FR1	0	R1299T
8287.909	0.0	837490	TRIAL_START	n/a	n/a	n/a	-999	4	[0, 0, 0]	n/a	FR1	0	R1299T
8287.909	5.446	837490	WAITING_START	n/a	n/a	n/a	-999	4	[0, 0, 0]	n/a	FR1	0	R1299T
8293.355	0.001	842936	WAITING_END	n/a	n/a	n/a	-999	4	[0, 0, 0]	n/a	FR1	0	R1299T
8293.356	10.428	842937	COUNTDOWN_START	n/a	n/a	n/a	-999	4	[0, 0, 0]	n/a	FR1	0	R1299T
8303.784	0.0	853364	COUNTDOWN_END	n/a	n/a	n/a	-999	4	[0, 0, 0]	n/a	FR1	0	R1299T
8303.784	1.106	853364	ORIENT_START	n/a	n/a	n/a	-999	4	[0, 0, 0]	n/a	FR1	0	R1299T
8304.89	0.0	854470	ORIENT_END	n/a	n/a	n/a	-999	4	[0, 0, 0]	n/a	FR1	0	R1299T
8304.89	0.753	854470	ENCODING_START	n/a	n/a	n/a	-999	4	[0, 0, 0]	n/a	FR1	0	R1299T
8305.643	1.615	855223	WORD	n/a	n/a	FARM	1	4	[0, 0, 0]	n/a	FR1	0	R1299T
8307.258	1.15	856838	WORD_OFF	n/a	n/a	FARM	1	4	[0, 0, 0]	n/a	FR1	0	R1299T
8308.408	1.633	857988	WORD	n/a	n/a	SOUP	2	4	[0, 0, 0]	n/a	FR1	0	R1299T
8310.041	0.832	859621	WORD_OFF	n/a	n/a	SOUP	2	4	[0, 0, 0]	n/a	FR1	0	R1299T
8310.873	1.636	860453	WORD	n/a	n/a	TOE	3	4	[0, 0, 0]	n/a	FR1	0	R1299T
8312.509	1.079	862089	WORD_OFF	n/a	n/a	TOE	3	4	[0, 0, 0]	n/a	FR1	0	R1299T
8313.588	1.638	863168	WORD	n/a	n/a	TREE	4	4	[0, 0, 0]	n/a	FR1	0	R1299T
8315.226	0.851	864806	WORD_OFF	n/a	n/a	TREE	4	4	[0, 0, 0]	n/a	FR1	0	R1299T
8316.077	1.632	865657	WORD	n/a	n/a	STEAM	5	4	[0, 0, 0]	n/a	FR1	0	R1299T
8317.709	0.946	867289	WORD_OFF	n/a	n/a	STEAM	5	4	[0, 0, 0]	n/a	FR1	0	R1299T
8318.655	1.605	868235	WORD	n/a	n/a	JUICE	6	4	[0, 0, 0]	n/a	FR1	0	R1299T
8320.26	1.126	869839	WORD_OFF	n/a	n/a	JUICE	6	4	[0, 0, 0]	n/a	FR1	0	R1299T
8321.386	1.624	870965	WORD	n/a	n/a	STREET	7	4	[0, 0, 0]	n/a	FR1	0	R1299T
8323.01	0.826	872589	WORD_OFF	n/a	n/a	STREET	7	4	[0, 0, 0]	n/a	FR1	0	R1299T
8323.836	1.625	873415	WORD	n/a	n/a	ARM	8	4	[0, 0, 0]	n/a	FR1	0	R1299T
8325.461	0.88	875040	WORD_OFF	n/a	n/a	ARM	8	4	[0, 0, 0]	n/a	FR1	0	R1299T
8326.341	1.636	875920	WORD	n/a	n/a	HEART	9	4	[0, 0, 0]	n/a	FR1	0	R1299T
8327.977	0.997	877556	WORD_OFF	n/a	n/a	HEART	9	4	[0, 0, 0]	n/a	FR1	0	R1299T
8328.974	1.637	878553	WORD	n/a	n/a	FOX	10	4	[0, 0, 0]	n/a	FR1	0	R1299T
8330.611	1.026	880190	WORD_OFF	n/a	n/a	FOX	10	4	[0, 0, 0]	n/a	FR1	0	R1299T
8331.637	1.609	881216	WORD	n/a	n/a	MUG	11	4	[0, 0, 0]	n/a	FR1	0	R1299T
8333.246	0.813	882825	WORD_OFF	n/a	n/a	MUG	11	4	[0, 0, 0]	n/a	FR1	0	R1299T
8334.059	1.636	883638	WORD	n/a	n/a	MOUSE	12	4	[0, 0, 0]	n/a	FR1	0	R1299T
8335.695	0.001	885274	WORD_OFF	n/a	n/a	MOUSE	12	4	[0, 0, 0]	n/a	FR1	0	R1299T
8335.696	0.0	885275	ENCODING_END	n/a	n/a	n/a	-999	4	[0, 0, 0]	n/a	FR1	0	R1299T
8335.696	0.0	885275	DISTRACT_START	n/a	n/a	n/a	-999	4	[0, 0, 0]	n/a	FR1	0	R1299T
8335.696	0.016	885275	START	n/a	n/a	n/a	-999	4	[-999, -999, -999]	n/a	FR1	0	R1299T
8335.712	6.251	885291	PROB	6.251	n/a	n/a	-999	4	[6, 4, 1]	11	FR1	0	R1299T
8341.963	6.885	891542	PROB	6.885	n/a	n/a	-999	4	[1, 5, 7]	13	FR1	0	R1299T
8348.848	7.403	898426	PROB	7.403	n/a	n/a	-999	4	[1, 7, 6]	14	FR1	0	R1299T
8356.251	0.016	905829	STOP	n/a	n/a	n/a	-999	4	[-999, -999, -999]	n/a	FR1	0	R1299T
8356.267	0.678	905845	DISTRACT_END	n/a	n/a	n/a	-999	4	[0, 0, 0]	n/a	FR1	0	R1299T
8356.945	1.721	906523	RETRIEVAL_ORIENT_START	n/a	n/a	n/a	-999	4	[0, 0, 0]	n/a	FR1	0	R1299T
8358.666	0.0	908244	RETRIEVAL_ORIENT_END	n/a	n/a	n/a	-999	4	[0, 0, 0]	n/a	FR1	0	R1299T
8358.666	5.144	908244	REC_START	n/a	n/a	n/a	-999	4	[0, 0, 0]	n/a	FR1	0	R1299T
8363.81	15.825	913388	REC_WORD	15.825	n/a	POND	-999	4	[0, 0, 0]	n/a	FR1	0	R1299T
8379.635	5.198	929212	REC_WORD	5.198	n/a	MOUSE	12	4	[0, 0, 0]	n/a	FR1	0	R1299T
8384.833	3.846	934410	REC_WORD	3.846	n/a	LEAF	-999	4	[0, 0, 0]	n/a	FR1	0	R1299T
8388.679	0.0	938255	REC_END	n/a	n/a	n/a	-999	4	[0, 0, 0]	n/a	FR1	0	R1299T
8388.679	0.017	938255	TRIAL_END	n/a	n/a	n/a	-999	4	[0, 0, 0]	n/a	FR1	0	R1299T
8388.696	0.001	938272	TRIAL_START	n/a	n/a	n/a	-999	5	[0, 0, 0]	n/a	FR1	0	R1299T
8388.697	0.0	938273	TRIAL	n/a	n/a	n/a	-999	5	[0, 0, 0]	n/a	FR1	0	R1299T
8388.697	5.593	938273	WAITING_START	n/a	n/a	n/a	-999	5	[0, 0, 0]	n/a	FR1	0	R1299T
8394.29	0.001	943866	WAITING_END	n/a	n/a	n/a	-999	5	[0, 0, 0]	n/a	FR1	0	R1299T
8394.291	10.429	943867	COUNTDOWN_START	n/a	n/a	n/a	-999	5	[0, 0, 0]	n/a	FR1	0	R1299T
8404.72	0.0	954296	ORIENT_START	n/a	n/a	n/a	-999	5	[0, 0, 0]	n/a	FR1	0	R1299T
8404.72	1.188	954296	COUNTDOWN_END	n/a	n/a	n/a	-999	5	[0, 0, 0]	n/a	FR1	0	R1299T
8405.908	0.0	955484	ORIENT_END	n/a	n/a	n/a	-999	5	[0, 0, 0]	n/a	FR1	0	R1299T
8405.908	1.103	955484	ENCODING_START	n/a	n/a	n/a	-999	5	[0, 0, 0]	n/a	FR1	0	R1299T
8407.011	1.631	956587	WORD	n/a	n/a	DOCK	1	5	[0, 0, 0]	n/a	FR1	0	R1299T
8408.642	0.867	958218	WORD_OFF	n/a	n/a	DOCK	1	5	[0, 0, 0]	n/a	FR1	0	R1299T
8409.509	1.634	959085	WORD	n/a	n/a	CLOWN	2	5	[0, 0, 0]	n/a	FR1	0	R1299T
8411.143	1.099	960718	WORD_OFF	n/a	n/a	CLOWN	2	5	[0, 0, 0]	n/a	FR1	0	R1299T
8412.242	1.634	961817	WORD	n/a	n/a	PEAR	3	5	[0, 0, 0]	n/a	FR1	0	R1299T
8413.876	1.058	963451	WORD_OFF	n/a	n/a	PEAR	3	5	[0, 0, 0]	n/a	FR1	0	R1299T
8414.934	1.627	964509	WORD	n/a	n/a	TRAY	4	5	[0, 0, 0]	n/a	FR1	0	R1299T
8416.561	0.95	966136	WORD_OFF	n/a	n/a	TRAY	4	5	[0, 0, 0]	n/a	FR1	0	R1299T
8417.511	1.634	967086	WORD	n/a	n/a	HORSE	5	5	[0, 0, 0]	n/a	FR1	0	R1299T
8419.145	1.126	968720	WORD_OFF	n/a	n/a	HORSE	5	5	[0, 0, 0]	n/a	FR1	0	R1299T
8420.271	1.623	969846	WORD	n/a	n/a	THUMB	6	5	[0, 0, 0]	n/a	FR1	0	R1299T
8421.894	1.063	971469	WORD_OFF	n/a	n/a	THUMB	6	5	[0, 0, 0]	n/a	FR1	0	R1299T
8422.957	1.621	972532	WORD	n/a	n/a	BEAR	7	5	[0, 0, 0]	n/a	FR1	0	R1299T
8424.578	0.86	974153	WORD_OFF	n/a	n/a	BEAR	7	5	[0, 0, 0]	n/a	FR1	0	R1299T
8425.438	1.624	975013	WORD	n/a	n/a	TEETH	8	5	[0, 0, 0]	n/a	FR1	0	R1299T
8427.062	0.973	976637	WORD_OFF	n/a	n/a	TEETH	8	5	[0, 0, 0]	n/a	FR1	0	R1299T
8428.035	1.627	977610	WORD	n/a	n/a	DEER	9	5	[0, 0, 0]	n/a	FR1	0	R1299T
8429.662	1.051	979237	WORD_OFF	n/a	n/a	DEER	9	5	[0, 0, 0]	n/a	FR1	0	R1299T
8430.713	1.618	980288	WORD	n/a	n/a	BEE	10	5	[0, 0, 0]	n/a	FR1	0	R1299T
8432.331	1.136	981906	WORD_OFF	n/a	n/a	BEE	10	5	[0, 0, 0]	n/a	FR1	0	R1299T
8433.467	1.63	983042	WORD	n/a	n/a	DOG	11	5	[0, 0, 0]	n/a	FR1	0	R1299T
8435.097	1.072	984671	WORD_OFF	n/a	n/a	DOG	11	5	[0, 0, 0]	n/a	FR1	0	R1299T
8436.169	1.628	985743	WORD	n/a	n/a	BLUSH	12	5	[0, 0, 0]	n/a	FR1	0	R1299T
8437.797	0.001	987371	WORD_OFF	n/a	n/a	BLUSH	12	5	[0, 0, 0]	n/a	FR1	0	R1299T
8437.798	0.0	987372	ENCODING_END	n/a	n/a	n/a	-999	5	[0, 0, 0]	n/a	FR1	0	R1299T
8437.798	0.0	987372	DISTRACT_START	n/a	n/a	n/a	-999	5	[0, 0, 0]	n/a	FR1	0	R1299T
8437.798	0.016	987372	START	n/a	n/a	n/a	-999	5	[-999, -999, -999]	n/a	FR1	0	R1299T
8437.814	8.201	987388	PROB	8.201	n/a	n/a	-999	5	[2, 4, 6]	12	FR1	0	R1299T
8446.015	10.336	995589	PROB	10.336	n/a	n/a	-999	5	[4, 9, 8]	21	FR1	0	R1299T
8456.351	9.744	1005925	PROB	9.744	n/a	n/a	-999	5	[2, 5, 3]	10	FR1	0	R1299T
8466.095	0.007	1015668	STOP	n/a	n/a	n/a	-999	5	[-999, -999, -999]	n/a	FR1	0	R1299T
8466.102	0.677	1015675	DISTRACT_END	n/a	n/a	n/a	-999	5	[0, 0, 0]	n/a	FR1	0	R1299T
8466.779	1.608	1016352	RETRIEVAL_ORIENT_START	n/a	n/a	n/a	-999	5	[0, 0, 0]	n/a	FR1	0	R1299T
8468.387	0.0	1017960	RETRIEVAL_ORIENT_END	n/a	n/a	n/a	-999	5	[0, 0, 0]	n/a	FR1	0	R1299T
8468.387	1.343	1017960	REC_START	n/a	n/a	n/a	-999	5	[0, 0, 0]	n/a	FR1	0	R1299T
8469.73	1.831	1019303	REC_WORD_VV	1.831	n/a	<>	-999	5	[0, 0, 0]	n/a	FR1	0	R1299T
8471.561	1.97	1021134	REC_WORD	1.97	n/a	PEAR	3	5	[0, 0, 0]	n/a	FR1	0	R1299T
8473.531	3.826	1023104	REC_WORD	3.826	n/a	DOG	11	5	[0, 0, 0]	n/a	FR1	0	R1299T
8477.357	3.738	1026930	REC_WORD	3.738	n/a	BLUSH	12	5	[0, 0, 0]	n/a	FR1	0	R1299T
8481.095	8.569	1030667	REC_WORD	8.569	n/a	TEETH	8	5	[0, 0, 0]	n/a	FR1	0	R1299T
8489.664	8.735	1039236	REC_WORD	8.735	n/a	BRICK	-999	5	[0, 0, 0]	n/a	FR1	0	R1299T
8498.399	0.0	1047971	REC_END	n/a	n/a	n/a	-999	5	[0, 0, 0]	n/a	FR1	0	R1299T
8498.399	0.014	1047971	TRIAL_END	n/a	n/a	n/a	-999	5	[0, 0, 0]	n/a	FR1	0	R1299T
8498.413	0.0	1047985	TRIAL_START	n/a	n/a	n/a	-999	6	[0, 0, 0]	n/a	FR1	0	R1299T
8498.413	0.0	1047985	TRIAL	n/a	n/a	n/a	-999	6	[0, 0, 0]	n/a	FR1	0	R1299T
8498.413	4.864	1047985	WAITING_START	n/a	n/a	n/a	-999	6	[0, 0, 0]	n/a	FR1	0	R1299T
8503.277	0.0	1052848	WAITING_END	n/a	n/a	n/a	-999	6	[0, 0, 0]	n/a	FR1	0	R1299T
8503.277	10.43	1052848	COUNTDOWN_START	n/a	n/a	n/a	-999	6	[0, 0, 0]	n/a	FR1	0	R1299T
8513.707	0.0	1063278	COUNTDOWN_END	n/a	n/a	n/a	-999	6	[0, 0, 0]	n/a	FR1	0	R1299T
8513.707	1.221	1063278	ORIENT_START	n/a	n/a	n/a	-999	6	[0, 0, 0]	n/a	FR1	0	R1299T
8514.928	0.0	1064499	ENCODING_START	n/a	n/a	n/a	-999	6	[0, 0, 0]	n/a	FR1	0	R1299T
8514.928	0.965	1064499	ORIENT_END	n/a	n/a	n/a	-999	6	[0, 0, 0]	n/a	FR1	0	R1299T
8515.893	1.62	1065464	WORD	n/a	n/a	HOOF	1	6	[0, 0, 0]	n/a	FR1	0	R1299T
8517.513	0.946	1067084	WORD_OFF	n/a	n/a	HOOF	1	6	[0, 0, 0]	n/a	FR1	0	R1299T
8518.459	1.636	1068030	WORD	n/a	n/a	PANTS	2	6	[0, 0, 0]	n/a	FR1	0	R1299T
8520.095	1.054	1069666	WORD_OFF	n/a	n/a	PANTS	2	6	[0, 0, 0]	n/a	FR1	0	R1299T
8521.149	1.63	1070720	WORD	n/a	n/a	STRAW	3	6	[0, 0, 0]	n/a	FR1	0	R1299T
8522.779	0.834	1072350	WORD_OFF	n/a	n/a	STRAW	3	6	[0, 0, 0]	n/a	FR1	0	R1299T
8523.613	1.618	1073184	WORD	n/a	n/a	CAVE	4	6	[0, 0, 0]	n/a	FR1	0	R1299T
8525.231	0.816	1074801	WORD_OFF	n/a	n/a	CAVE	4	6	[0, 0, 0]	n/a	FR1	0	R1299T
8526.047	1.633	1075617	WORD	n/a	n/a	TOY	5	6	[0, 0, 0]	n/a	FR1	0	R1299T
8527.68	1.071	1077250	WORD_OFF	n/a	n/a	TOY	5	6	[0, 0, 0]	n/a	FR1	0	R1299T
8528.751	1.631	1078321	WORD	n/a	n/a	PRINCE	6	6	[0, 0, 0]	n/a	FR1	0	R1299T
8530.382	0.966	1079952	WORD_OFF	n/a	n/a	PRINCE	6	6	[0, 0, 0]	n/a	FR1	0	R1299T
8531.348	1.633	1080918	WORD	n/a	n/a	STOVE	7	6	[0, 0, 0]	n/a	FR1	0	R1299T
8532.981	0.986	1082551	WORD_OFF	n/a	n/a	STOVE	7	6	[0, 0, 0]	n/a	FR1	0	R1299T
8533.967	1.631	1083537	WORD	n/a	n/a	LAMP	8	6	[0, 0, 0]	n/a	FR1	0	R1299T
8535.598	0.816	1085168	WORD_OFF	n/a	n/a	LAMP	8	6	[0, 0, 0]	n/a	FR1	0	R1299T
8536.414	1.635	1085984	WORD	n/a	n/a	SHELL	9	6	[0, 0, 0]	n/a	FR1	0	R1299T
8538.049	1.027	1087619	WORD_OFF	n/a	n/a	SHELL	9	6	[0, 0, 0]	n/a	FR1	0	R1299T
8539.076	1.623	1088646	WORD	n/a	n/a	CLAY	10	6	[0, 0, 0]	n/a	FR1	0	R1299T
8540.699	0.938	1090269	WORD_OFF	n/a	n/a	CLAY	10	6	[0, 0, 0]	n/a	FR1	0	R1299T
8541.637	1.614	1091207	WORD	n/a	n/a	PARK	11	6	[0, 0, 0]	n/a	FR1	0	R1299T
8543.251	0.818	1092821	WORD_OFF	n/a	n/a	PARK	11	6	[0, 0, 0]	n/a	FR1	0	R1299T
8544.069	1.631	1093639	WORD	n/a	n/a	BRANCH	12	6	[0, 0, 0]	n/a	FR1	0	R1299T
8545.7	0.001	1095270	WORD_OFF	n/a	n/a	BRANCH	12	6	[0, 0, 0]	n/a	FR1	0	R1299T
8545.701	0.0	1095271	ENCODING_END	n/a	n/a	n/a	-999	6	[0, 0, 0]	n/a	FR1	0	R1299T
8545.701	0.0	1095271	DISTRACT_START	n/a	n/a	n/a	-999	6	[0, 0, 0]	n/a	FR1	0	R1299T
8545.701	0.016	1095271	START	n/a	n/a	n/a	-999	6	[-999, -999, -999]	n/a	FR1	0	R1299T
8545.717	6.984	1095287	PROB	6.984	n/a	n/a	-999	6	[4, 3, 8]	15	FR1	0	R1299T
8552.701	5.135	1102270	PROB	5.135	n/a	n/a	-999	6	[4, 6, 1]	11	FR1	0	R1299T
8557.836	5.718	1107405	PROB	5.718	n/a	n/a	-999	6	[2, 1, 2]	5	FR1	0	R1299T
8563.554	5.724	1113123	PROB	5.724	n/a	n/a	-999	6	[6, 4, 1]	11	FR1	0	R1299T
8569.278	0.011	1118847	STOP	n/a	n/a	n/a	-999	6	[-999, -999, -999]	n/a	FR1	0	R1299T
8569.289	0.562	1118858	DISTRACT_END	n/a	n/a	n/a	-999	6	[0, 0, 0]	n/a	FR1	0	R1299T
8569.851	1.705	1119420	RETRIEVAL_ORIENT_START	n/a	n/a	n/a	-999	6	[0, 0, 0]	n/a	FR1	0	R1299T
8571.556	0.0	1121124	RETRIEVAL_ORIENT_END	n/a	n/a	n/a	-999	6	[0, 0, 0]	n/a	FR1	0	R1299T
8571.556	4.565	1121124	REC_START	n/a	n/a	n/a	-999	6	[0, 0, 0]	n/a	FR1	0	R1299T
8576.121	6.748	1125689	REC_WORD	6.748	n/a	STOVE	7	6	[0, 0, 0]	n/a	FR1	0	R1299T
8582.869	13.114	1132437	REC_WORD	13.114	n/a	CLAY	10	6	[0, 0, 0]	n/a	FR1	0	R1299T
8595.983	5.586	1145550	REC_WORD_VV	5.586	n/a	<>	-999	6	[0, 0, 0]	n/a	FR1	0	R1299T
8601.569	0.0	1151136	REC_END	n/a	n/a	n/a	-999	6	[0, 0, 0]	n/a	FR1	0	R1299T
8601.569	0.013	1151136	TRIAL_END	n/a	n/a	n/a	-999	6	[0, 0, 0]	n/a	FR1	0	R1299T
8601.582	0.0	1151149	WAITING_START	n/a	n/a	n/a	-999	7	[0, 0, 0]	n/a	FR1	0	R1299T
8601.582	0.0	1151149	TRIAL	n/a	n/a	n/a	-999	7	[0, 0, 0]	n/a	FR1	0	R1299T
8601.582	5.363	1151149	TRIAL_START	n/a	n/a	n/a	-999	7	[0, 0, 0]	n/a	FR1	0	R1299T
8606.945	0.0	1156512	WAITING_END	n/a	n/a	n/a	-999	7	[0, 0, 0]	n/a	FR1	0	R1299T
8606.945	10.428	1156512	COUNTDOWN_START	n/a	n/a	n/a	-999	7	[0, 0, 0]	n/a	FR1	0	R1299T
8617.373	0.001	1166939	COUNTDOWN_END	n/a	n/a	n/a	-999	7	[0, 0, 0]	n/a	FR1	0	R1299T
8617.374	1.174	1166940	ORIENT_START	n/a	n/a	n/a	-999	7	[0, 0, 0]	n/a	FR1	0	R1299T
8618.548	0.0	1168114	ORIENT_END	n/a	n/a	n/a	-999	7	[0, 0, 0]	n/a	FR1	0	R1299T
8618.548	0.794	1168114	ENCODING_START	n/a	n/a	n/a	-999	7	[0, 0, 0]	n/a	FR1	0	R1299T
8619.342	1.622	1168908	WORD	n/a	n/a	STAR	1	7	[0, 0, 0]	n/a	FR1	0	R1299T
8620.964	1.016	1170530	WORD_OFF	n/a	n/a	STAR	1	7	[0, 0, 0]	n/a	FR1	0	R1299T
8621.98	1.634	1171546	WORD	n/a	n/a	FACE	2	7	[0, 0, 0]	n/a	FR1	0	R1299T
8623.614	1.025	1173180	WORD_OFF	n/a	n/a	FACE	2	7	[0, 0, 0]	n/a	FR1	0	R1299T
8624.639	1.627	1174205	WORD	n/a	n/a	VEST	3	7	[0, 0, 0]	n/a	FR1	0	R1299T
8626.266	0.878	1175832	WORD_OFF	n/a	n/a	VEST	3	7	[0, 0, 0]	n/a	FR1	0	R1299T
8627.144	1.621	1176710	WORD	n/a	n/a	PHONE	4	7	[0, 0, 0]	n/a	FR1	0	R1299T
8628.765	0.884	1178331	WORD_OFF	n/a	n/a	PHONE	4	7	[0, 0, 0]	n/a	FR1	0	R1299T
8629.649	1.634	1179215	WORD	n/a	n/a	STAIR	5	7	[0, 0, 0]	n/a	FR1	0	R1299T
8631.283	1.134	1180849	WORD_OFF	n/a	n/a	STAIR	5	7	[0, 0, 0]	n/a	FR1	0	R1299T
8632.417	1.633	1181983	WORD	n/a	n/a	JEEP	6	7	[0, 0, 0]	n/a	FR1	0	R1299T
8634.05	0.943	1183616	WORD_OFF	n/a	n/a	JEEP	6	7	[0, 0, 0]	n/a	FR1	0	R1299T
8634.993	1.624	1184559	WORD	n/a	n/a	BUSH	7	7	[0, 0, 0]	n/a	FR1	0	R1299T
8636.617	0.977	1186183	WORD_OFF	n/a	n/a	BUSH	7	7	[0, 0, 0]	n/a	FR1	0	R1299T
8637.594	1.608	1187160	WORD	n/a	n/a	SPONGE	8	7	[0, 0, 0]	n/a	FR1	0	R1299T
8639.202	0.756	1188767	WORD_OFF	n/a	n/a	SPONGE	8	7	[0, 0, 0]	n/a	FR1	0	R1299T
8639.958	1.611	1189523	WORD	n/a	n/a	HOSE	9	7	[0, 0, 0]	n/a	FR1	0	R1299T
8641.569	0.764	1191134	WORD_OFF	n/a	n/a	HOSE	9	7	[0, 0, 0]	n/a	FR1	0	R1299T
8642.333	1.635	1191898	WORD	n/a	n/a	CLIFF	10	7	[0, 0, 0]	n/a	FR1	0	R1299T
8643.968	1.065	1193533	WORD_OFF	n/a	n/a	CLIFF	10	7	[0, 0, 0]	n/a	FR1	0	R1299T
8645.033	1.636	1194598	WORD	n/a	n/a	SOCK	11	7	[0, 0, 0]	n/a	FR1	0	R1299T
8646.669	0.754	1196234	WORD_OFF	n/a	n/a	SOCK	11	7	[0, 0, 0]	n/a	FR1	0	R1299T
8647.423	1.629	1196988	WORD	n/a	n/a	COIN	12	7	[0, 0, 0]	n/a	FR1	0	R1299T
8649.052	0.0	1198617	WORD_OFF	n/a	n/a	COIN	12	7	[0, 0, 0]	n/a	FR1	0	R1299T
8649.052	0.001	1198617	ENCODING_END	n/a	n/a	n/a	-999	7	[0, 0, 0]	n/a	FR1	0	R1299T
8649.053	0.0	1198618	DISTRACT_START	n/a	n/a	n/a	-999	7	[0, 0, 0]	n/a	FR1	0	R1299T
8649.053	0.016	1198618	START	n/a	n/a	n/a	-999	7	[-999, -999, -999]	n/a	FR1	0	R1299T
8649.069	11.635	1198634	PROB	11.635	n/a	n/a	-999	7	[3, 5, 6]	14	FR1	0	R1299T
8660.704	6.602	1210269	PROB	6.602	n/a	n/a	-999	7	[3, 1, 9]	13	FR1	0	R1299T
8667.306	7.12	1216870	PROB	7.12	n/a	n/a	-999	7	[2, 8, 3]	13	FR1	0	R1299T
8674.426	0.015	1223990	STOP	n/a	n/a	n/a	-999	7	[-999, -999, -999]	n/a	FR1	0	R1299T
8674.441	0.55	1224005	DISTRACT_END	n/a	n/a	n/a	-999	7	[0, 0, 0]	n/a	FR1	0	R1299T
8674.991	1.616	1224555	RETRIEVAL_ORIENT_START	n/a	n/a	n/a	-999	7	[0, 0, 0]	n/a	FR1	0	R1299T
8676.607	0.001	1226171	RETRIEVAL_ORIENT_END	n/a	n/a	n/a	-999	7	[0, 0, 0]	n/a	FR1	0	R1299T
8676.608	2.853	1226172	REC_START	n/a	n/a	n/a	-999	7	[0, 0, 0]	n/a	FR1	0	R1299T
8679.461	0.93	1229025	REC_WORD_VV	0.93	n/a	<>	-999	7	[0, 0, 0]	n/a	FR1	0	R1299T
8680.391	4.383	1229955	REC_WORD	4.383	n/a	BUSH	7	7	[0, 0, 0]	n/a	FR1	0	R1299T
8684.774	1.0	1234337	REC_WORD	1.0	n/a	STOVE	-999	7	[0, 0, 0]	n/a	FR1	0	R1299T
8685.774	1.0	1235337	REC_WORD_VV	1.0	n/a	<>	-999	7	[0, 0, 0]	n/a	FR1	0	R1299T
8686.774	8.318	1236337	REC_WORD_VV	8.318	n/a	<>	-999	7	[0, 0, 0]	n/a	FR1	0	R1299T
8695.092	5.684	1244655	REC_WORD	5.684	n/a	SPONGE	8	7	[0, 0, 0]	n/a	FR1	0	R1299T
8700.776	5.846	1250339	REC_WORD	5.846	n/a	HOOK	-999	7	[0, 0, 0]	n/a	FR1	0	R1299T
8706.622	0.0	1256184	REC_END	n/a	n/a	n/a	-999	7	[0, 0, 0]	n/a	FR1	0	R1299T
8706.622	0.015	1256184	TRIAL_END	n/a	n/a	n/a	-999	7	[0, 0, 0]	n/a	FR1	0	R1299T
8706.637	0.0	1256199	WAITING_START	n/a	n/a	n/a	-999	8	[0, 0, 0]	n/a	FR1	0	R1299T
8706.637	0.0	1256199	TRIAL_START	n/a	n/a	n/a	-999	8	[0, 0, 0]	n/a	FR1	0	R1299T
8706.637	4.26	1256199	TRIAL	n/a	n/a	n/a	-999	8	[0, 0, 0]	n/a	FR1	0	R1299T
8710.897	0.0	1260459	WAITING_END	n/a	n/a	n/a	-999	8	[0, 0, 0]	n/a	FR1	0	R1299T
8710.897	10.429	1260459	COUNTDOWN_START	n/a	n/a	n/a	-999	8	[0, 0, 0]	n/a	FR1	0	R1299T
8721.326	0.0	1270888	COUNTDOWN_END	n/a	n/a	n/a	-999	8	[0, 0, 0]	n/a	FR1	0	R1299T
8721.326	1.241	1270888	ORIENT_START	n/a	n/a	n/a	-999	8	[0, 0, 0]	n/a	FR1	0	R1299T
8722.567	0.0	1272129	ENCODING_START	n/a	n/a	n/a	-999	8	[0, 0, 0]	n/a	FR1	0	R1299T
8722.567	0.829	1272129	ORIENT_END	n/a	n/a	n/a	-999	8	[0, 0, 0]	n/a	FR1	0	R1299T
8723.396	1.62	1272958	WORD	n/a	n/a	APE	1	8	[0, 0, 0]	n/a	FR1	0	R1299T
8725.016	1.063	1274578	WORD_OFF	n/a	n/a	APE	1	8	[0, 0, 0]	n/a	FR1	0	R1299T
8726.079	1.621	1275641	WORD	n/a	n/a	ANT	2	8	[0, 0, 0]	n/a	FR1	0	R1299T
8727.7	1.063	1277262	WORD_OFF	n/a	n/a	ANT	2	8	[0, 0, 0]	n/a	FR1	0	R1299T
8728.763	1.622	1278325	WORD	n/a	n/a	FOAM	3	8	[0, 0, 0]	n/a	FR1	0	R1299T
8730.385	0.939	1279946	WORD_OFF	n/a	n/a	FOAM	3	8	[0, 0, 0]	n/a	FR1	0	R1299T
8731.324	1.627	1280885	WORD	n/a	n/a	BOX	4	8	[0, 0, 0]	n/a	FR1	0	R1299T
8732.951	0.966	1282512	WORD_OFF	n/a	n/a	BOX	4	8	[0, 0, 0]	n/a	FR1	0	R1299T
8733.917	1.636	1283478	WORD	n/a	n/a	BEAN	5	8	[0, 0, 0]	n/a	FR1	0	R1299T
8735.553	0.997	1285114	WORD_OFF	n/a	n/a	BEAN	5	8	[0, 0, 0]	n/a	FR1	0	R1299T
8736.55	1.636	1286111	WORD	n/a	n/a	FRUIT	6	8	[0, 0, 0]	n/a	FR1	0	R1299T
8738.186	0.755	1287747	WORD_OFF	n/a	n/a	FRUIT	6	8	[0, 0, 0]	n/a	FR1	0	R1299T
8738.941	1.629	1288502	WORD	n/a	n/a	SINK	7	8	[0, 0, 0]	n/a	FR1	0	R1299T
8740.57	0.867	1290131	WORD_OFF	n/a	n/a	SINK	7	8	[0, 0, 0]	n/a	FR1	0	R1299T
8741.437	1.632	1290998	WORD	n/a	n/a	CAKE	8	8	[0, 0, 0]	n/a	FR1	0	R1299T
8743.069	1.001	1292630	WORD_OFF	n/a	n/a	CAKE	8	8	[0, 0, 0]	n/a	FR1	0	R1299T
8744.07	1.633	1293631	WORD	n/a	n/a	SEAL	9	8	[0, 0, 0]	n/a	FR1	0	R1299T
8745.703	0.876	1295264	WORD_OFF	n/a	n/a	SEAL	9	8	[0, 0, 0]	n/a	FR1	0	R1299T
8746.579	1.626	1296140	WORD	n/a	n/a	PEN	10	8	[0, 0, 0]	n/a	FR1	0	R1299T
8748.205	1.005	1297766	WORD_OFF	n/a	n/a	PEN	10	8	[0, 0, 0]	n/a	FR1	0	R1299T
8749.21	1.628	1298771	WORD	n/a	n/a	DOLL	11	8	[0, 0, 0]	n/a	FR1	0	R1299T
8750.838	1.072	1300399	WORD_OFF	n/a	n/a	DOLL	11	8	[0, 0, 0]	n/a	FR1	0	R1299T
8751.91	1.612	1301470	WORD	n/a	n/a	BOARD	12	8	[0, 0, 0]	n/a	FR1	0	R1299T
8753.522	0.001	1303082	WORD_OFF	n/a	n/a	BOARD	12	8	[0, 0, 0]	n/a	FR1	0	R1299T
8753.523	0.0	1303083	ENCODING_END	n/a	n/a	n/a	-999	8	[0, 0, 0]	n/a	FR1	0	R1299T
8753.523	0.0	1303083	DISTRACT_START	n/a	n/a	n/a	-999	8	[0, 0, 0]	n/a	FR1	0	R1299T
8753.523	0.016	1303083	START	n/a	n/a	n/a	-999	8	[-999, -999, -999]	n/a	FR1	0	R1299T
8753.539	7.033	1303099	PROB	7.033	n/a	n/a	-999	8	[6, 2, 5]	13	FR1	0	R1299T
8760.572	8.185	1310132	PROB	8.185	n/a	n/a	-999	8	[7, 6, 5]	18	FR1	0	R1299T
8768.757	7.987	1318317	PROB	7.987	n/a	n/a	-999	8	[8, 1, 5]	14	FR1	0	R1299T
8776.744	0.015	1326303	STOP	n/a	n/a	n/a	-999	8	[-999, -999, -999]	n/a	FR1	0	R1299T
8776.759	0.596	1326318	DISTRACT_END	n/a	n/a	n/a	-999	8	[0, 0, 0]	n/a	FR1	0	R1299T
8777.355	1.638	1326914	RETRIEVAL_ORIENT_START	n/a	n/a	n/a	-999	8	[0, 0, 0]	n/a	FR1	0	R1299T
8778.993	0.0	1328552	RETRIEVAL_ORIENT_END	n/a	n/a	n/a	-999	8	[0, 0, 0]	n/a	FR1	0	R1299T
8778.993	4.289	1328552	REC_START	n/a	n/a	n/a	-999	8	[0, 0, 0]	n/a	FR1	0	R1299T
8783.282	6.971	1332841	REC_WORD	6.971	n/a	DOLL	11	8	[0, 0, 0]	n/a	FR1	0	R1299T
8790.253	0.615	1339812	REC_WORD_VV	0.615	n/a	<>	-999	8	[0, 0, 0]	n/a	FR1	0	R1299T
8790.868	8.039	1340427	REC_WORD	8.039	n/a	ANT	2	8	[0, 0, 0]	n/a	FR1	0	R1299T
8798.907	10.099	1348465	REC_WORD	10.099	n/a	PEAR	-999	8	[0, 0, 0]	n/a	FR1	0	R1299T
8809.006	0.0	1358564	REC_END	n/a	n/a	n/a	-999	8	[0, 0, 0]	n/a	FR1	0	R1299T
8809.006	0.014	1358564	TRIAL_END	n/a	n/a	n/a	-999	8	[0, 0, 0]	n/a	FR1	0	R1299T
8809.02	0.0	1358578	TRIAL_START	n/a	n/a	n/a	-999	9	[0, 0, 0]	n/a	FR1	0	R1299T
8809.02	0.0	1358578	TRIAL	n/a	n/a	n/a	-999	9	[0, 0, 0]	n/a	FR1	0	R1299T
8809.02	4.397	1358578	WAITING_START	n/a	n/a	n/a	-999	9	[0, 0, 0]	n/a	FR1	0	R1299T
8813.417	0.0	1362975	COUNTDOWN_START	n/a	n/a	n/a	-999	9	[0, 0, 0]	n/a	FR1	0	R1299T
8813.417	10.429	1362975	WAITING_END	n/a	n/a	n/a	-999	9	[0, 0, 0]	n/a	FR1	0	R1299T
8823.846	0.0	1373403	COUNTDOWN_END	n/a	n/a	n/a	-999	9	[0, 0, 0]	n/a	FR1	0	R1299T
8823.846	1.088	1373403	ORIENT_START	n/a	n/a	n/a	-999	9	[0, 0, 0]	n/a	FR1	0	R1299T
8824.934	0.001	1374491	ORIENT_END	n/a	n/a	n/a	-999	9	[0, 0, 0]	n/a	FR1	0	R1299T
8824.935	0.985	1374492	ENCODING_START	n/a	n/a	n/a	-999	9	[0, 0, 0]	n/a	FR1	0	R1299T
8825.92	1.616	1375477	WORD	n/a	n/a	BEAK	1	9	[0, 0, 0]	n/a	FR1	0	R1299T
8827.536	1.122	1377093	WORD_OFF	n/a	n/a	BEAK	1	9	[0, 0, 0]	n/a	FR1	0	R1299T
8828.658	1.611	1378215	WORD	n/a	n/a	FLAG	2	9	[0, 0, 0]	n/a	FR1	0	R1299T
8830.269	1.124	1379826	WORD_OFF	n/a	n/a	FLAG	2	9	[0, 0, 0]	n/a	FR1	0	R1299T
8831.393	1.626	1380950	WORD	n/a	n/a	PLANE	3	9	[0, 0, 0]	n/a	FR1	0	R1299T
8833.019	1.063	1382576	WORD_OFF	n/a	n/a	PLANE	3	9	[0, 0, 0]	n/a	FR1	0	R1299T
8834.082	1.621	1383639	WORD	n/a	n/a	SUN	4	9	[0, 0, 0]	n/a	FR1	0	R1299T
8835.703	0.791	1385260	WORD_OFF	n/a	n/a	SUN	4	9	[0, 0, 0]	n/a	FR1	0	R1299T
8836.494	1.626	1386051	WORD	n/a	n/a	GLASS	5	9	[0, 0, 0]	n/a	FR1	0	R1299T
8838.12	0.869	1387677	WORD_OFF	n/a	n/a	GLASS	5	9	[0, 0, 0]	n/a	FR1	0	R1299T
8838.989	1.632	1388546	WORD	n/a	n/a	SPRING	6	9	[0, 0, 0]	n/a	FR1	0	R1299T
8840.621	0.797	1390178	WORD_OFF	n/a	n/a	SPRING	6	9	[0, 0, 0]	n/a	FR1	0	R1299T
8841.418	1.636	1390975	WORD	n/a	n/a	SLIME	7	9	[0, 0, 0]	n/a	FR1	0	R1299T
8843.054	1.07	1392610	WORD_OFF	n/a	n/a	SLIME	7	9	[0, 0, 0]	n/a	FR1	0	R1299T
8844.124	1.631	1393680	WORD	n/a	n/a	WEED	8	9	[0, 0, 0]	n/a	FR1	0	R1299T
8845.755	0.809	1395311	WORD_OFF	n/a	n/a	WEED	8	9	[0, 0, 0]	n/a	FR1	0	R1299T
8846.564	1.609	1396120	WORD	n/a	n/a	DOOR	9	9	[0, 0, 0]	n/a	FR1	0	R1299T
8848.173	0.869	1397729	WORD_OFF	n/a	n/a	DOOR	9	9	[0, 0, 0]	n/a	FR1	0	R1299T
8849.042	1.63	1398598	WORD	n/a	n/a	CLOUD	10	9	[0, 0, 0]	n/a	FR1	0	R1299T
8850.672	0.899	1400228	WORD_OFF	n/a	n/a	CLOUD	10	9	[0, 0, 0]	n/a	FR1	0	R1299T
8851.571	1.636	1401127	WORD	n/a	n/a	MOTH	11	9	[0, 0, 0]	n/a	FR1	0	R1299T
8853.207	0.917	1402763	WORD_OFF	n/a	n/a	MOTH	11	9	[0, 0, 0]	n/a	FR1	0	R1299T
8854.124	1.633	1403680	WORD	n/a	n/a	BOAT	12	9	[0, 0, 0]	n/a	FR1	0	R1299T
8855.757	0.0	1405313	WORD_OFF	n/a	n/a	BOAT	12	9	[0, 0, 0]	n/a	FR1	0	R1299T
8855.757	0.0	1405313	ENCODING_END	n/a	n/a	n/a	-999	9	[0, 0, 0]	n/a	FR1	0	R1299T
8855.757	0.0	1405313	DISTRACT_START	n/a	n/a	n/a	-999	9	[0, 0, 0]	n/a	FR1	0	R1299T
8855.757	0.016	1405313	START	n/a	n/a	n/a	-999	9	[-999, -999, -999]	n/a	FR1	0	R1299T
8855.773	13.67	1405329	PROB	13.67	n/a	n/a	-999	9	[1, 6, 2]	9	FR1	0	R1299T
8869.443	12.148	1418998	PROB	12.148	n/a	n/a	-999	9	[4, 9, 7]	20	FR1	0	R1299T
8881.591	0.02	1431146	STOP	n/a	n/a	n/a	-999	9	[-999, -999, -999]	n/a	FR1	0	R1299T
8881.611	0.508	1431166	DISTRACT_END	n/a	n/a	n/a	-999	9	[0, 0, 0]	n/a	FR1	0	R1299T
8882.119	1.576	1431674	RETRIEVAL_ORIENT_START	n/a	n/a	n/a	-999	9	[0, 0, 0]	n/a	FR1	0	R1299T
8883.695	0.0	1433250	RETRIEVAL_ORIENT_END	n/a	n/a	n/a	-999	9	[0, 0, 0]	n/a	FR1	0	R1299T
8883.695	1.746	1433250	REC_START	n/a	n/a	n/a	-999	9	[0, 0, 0]	n/a	FR1	0	R1299T
8885.441	0.361	1434996	REC_WORD_VV	0.361	n/a	<>	-999	9	[0, 0, 0]	n/a	FR1	0	R1299T
8885.802	11.725	1435357	REC_WORD	11.725	n/a	MOTH	11	9	[0, 0, 0]	n/a	FR1	0	R1299T
8897.527	11.034	1447081	REC_WORD_VV	11.034	n/a	<>	-999	9	[0, 0, 0]	n/a	FR1	0	R1299T
8908.561	0.511	1458115	REC_WORD_VV	0.511	n/a	<>	-999	9	[0, 0, 0]	n/a	FR1	0	R1299T
8909.072	0.291	1458626	REC_WORD	0.291	n/a	APE	-999	9	[0, 0, 0]	n/a	FR1	0	R1299T
8909.363	1.012	1458917	REC_WORD_VV	1.012	n/a	<>	-999	9	[0, 0, 0]	n/a	FR1	0	R1299T
8910.375	3.333	1459929	REC_WORD	3.333	n/a	APE	-999	9	[0, 0, 0]	n/a	FR1	0	R1299T
8913.708	0.0	1463261	REC_END	n/a	n/a	n/a	-999	9	[0, 0, 0]	n/a	FR1	0	R1299T
8913.708	0.014	1463261	TRIAL_END	n/a	n/a	n/a	-999	9	[0, 0, 0]	n/a	FR1	0	R1299T
8913.722	0.0	1463275	WAITING_START	n/a	n/a	n/a	-999	10	[0, 0, 0]	n/a	FR1	0	R1299T
8913.722	0.0	1463275	TRIAL	n/a	n/a	n/a	-999	10	[0, 0, 0]	n/a	FR1	0	R1299T
8913.722	3.714	1463275	TRIAL_START	n/a	n/a	n/a	-999	10	[0, 0, 0]	n/a	FR1	0	R1299T
8917.436	0.0	1466989	WAITING_END	n/a	n/a	n/a	-999	10	[0, 0, 0]	n/a	FR1	0	R1299T
8917.436	10.429	1466989	COUNTDOWN_START	n/a	n/a	n/a	-999	10	[0, 0, 0]	n/a	FR1	0	R1299T
8927.865	0.001	1477418	COUNTDOWN_END	n/a	n/a	n/a	-999	10	[0, 0, 0]	n/a	FR1	0	R1299T
8927.866	1.254	1477419	ORIENT_START	n/a	n/a	n/a	-999	10	[0, 0, 0]	n/a	FR1	0	R1299T
8929.12	0.001	1478673	ORIENT_END	n/a	n/a	n/a	-999	10	[0, 0, 0]	n/a	FR1	0	R1299T
8929.121	0.901	1478674	ENCODING_START	n/a	n/a	n/a	-999	10	[0, 0, 0]	n/a	FR1	0	R1299T
8930.022	1.632	1479575	WORD	n/a	n/a	COUCH	1	10	[0, 0, 0]	n/a	FR1	0	R1299T
8931.654	0.976	1481207	WORD_OFF	n/a	n/a	COUCH	1	10	[0, 0, 0]	n/a	FR1	0	R1299T
8932.63	1.625	1482183	WORD	n/a	n/a	TRUCK	2	10	[0, 0, 0]	n/a	FR1	0	R1299T
8934.255	1.094	1483807	WORD_OFF	n/a	n/a	TRUCK	2	10	[0, 0, 0]	n/a	FR1	0	R1299T
8935.349	1.622	1484901	WORD	n/a	n/a	TRASH	3	10	[0, 0, 0]	n/a	FR1	0	R1299T
8936.971	1.124	1486523	WORD_OFF	n/a	n/a	TRASH	3	10	[0, 0, 0]	n/a	FR1	0	R1299T
8938.095	1.627	1487647	WORD	n/a	n/a	WHEEL	4	10	[0, 0, 0]	n/a	FR1	0	R1299T
8939.722	0.968	1489274	WORD_OFF	n/a	n/a	WHEEL	4	10	[0, 0, 0]	n/a	FR1	0	R1299T
8940.69	1.617	1490242	WORD	n/a	n/a	MAZE	5	10	[0, 0, 0]	n/a	FR1	0	R1299T
8942.307	1.086	1491859	WORD_OFF	n/a	n/a	MAZE	5	10	[0, 0, 0]	n/a	FR1	0	R1299T
8943.393	1.63	1492945	WORD	n/a	n/a	PIT	6	10	[0, 0, 0]	n/a	FR1	0	R1299T
8945.023	0.969	1494575	WORD_OFF	n/a	n/a	PIT	6	10	[0, 0, 0]	n/a	FR1	0	R1299T
8945.992	1.631	1495544	WORD	n/a	n/a	SPEAR	7	10	[0, 0, 0]	n/a	FR1	0	R1299T
8947.623	1.082	1497175	WORD_OFF	n/a	n/a	SPEAR	7	10	[0, 0, 0]	n/a	FR1	0	R1299T
8948.705	1.637	1498257	WORD	n/a	n/a	PIN	8	10	[0, 0, 0]	n/a	FR1	0	R1299T
8950.342	0.884	1499894	WORD_OFF	n/a	n/a	PIN	8	10	[0, 0, 0]	n/a	FR1	0	R1299T
8951.226	1.632	1500778	WORD	n/a	n/a	CHALK	9	10	[0, 0, 0]	n/a	FR1	0	R1299T
8952.858	0.933	1502410	WORD_OFF	n/a	n/a	CHALK	9	10	[0, 0, 0]	n/a	FR1	0	R1299T
8953.791	1.635	1503343	WORD	n/a	n/a	ROOF	10	10	[0, 0, 0]	n/a	FR1	0	R1299T
8955.426	0.943	1504978	WORD_OFF	n/a	n/a	ROOF	10	10	[0, 0, 0]	n/a	FR1	0	R1299T
8956.369	1.623	1505921	WORD	n/a	n/a	PEARL	11	10	[0, 0, 0]	n/a	FR1	0	R1299T
8957.992	0.973	1507543	WORD_OFF	n/a	n/a	PEARL	11	10	[0, 0, 0]	n/a	FR1	0	R1299T
8958.965	1.627	1508516	WORD	n/a	n/a	GRASS	12	10	[0, 0, 0]	n/a	FR1	0	R1299T
8960.592	0.001	1510143	WORD_OFF	n/a	n/a	GRASS	12	10	[0, 0, 0]	n/a	FR1	0	R1299T
8960.593	0.0	1510144	ENCODING_END	n/a	n/a	n/a	-999	10	[0, 0, 0]	n/a	FR1	0	R1299T
8960.593	0.0	1510144	DISTRACT_START	n/a	n/a	n/a	-999	10	[0, 0, 0]	n/a	FR1	0	R1299T
8960.593	0.016	1510144	START	n/a	n/a	n/a	-999	10	[-999, -999, -999]	n/a	FR1	0	R1299T
8960.609	6.401	1510160	PROB	6.401	n/a	n/a	-999	10	[3, 7, 8]	18	FR1	0	R1299T
8967.01	8.752	1516561	PROB	8.752	n/a	n/a	-999	10	[7, 7, 3]	17	FR1	0	R1299T
8975.762	8.03	1525313	PROB	8.03	n/a	n/a	-999	10	[2, 6, 6]	14	FR1	0	R1299T
8983.792	0.021	1533342	STOP	n/a	n/a	n/a	-999	10	[-999, -999, -999]	n/a	FR1	0	R1299T
8983.813	0.534	1533363	DISTRACT_END	n/a	n/a	n/a	-999	10	[0, 0, 0]	n/a	FR1	0	R1299T
8984.347	1.683	1533897	RETRIEVAL_ORIENT_START	n/a	n/a	n/a	-999	10	[0, 0, 0]	n/a	FR1	0	R1299T
8986.03	0.001	1535580	RETRIEVAL_ORIENT_END	n/a	n/a	n/a	-999	10	[0, 0, 0]	n/a	FR1	0	R1299T
8986.031	1.978	1535581	REC_START	n/a	n/a	n/a	-999	10	[0, 0, 0]	n/a	FR1	0	R1299T
8988.009	1.832	1537559	REC_WORD	1.832	n/a	TRUCK	2	10	[0, 0, 0]	n/a	FR1	0	R1299T
8989.841	6.67	1539391	REC_WORD	6.67	n/a	COUCH	1	10	[0, 0, 0]	n/a	FR1	0	R1299T
8996.511	1.505	1546061	REC_WORD_VV	1.505	n/a	<>	-999	10	[0, 0, 0]	n/a	FR1	0	R1299T
8998.016	0.938	1547566	REC_WORD	0.938	n/a	SPEAR	7	10	[0, 0, 0]	n/a	FR1	0	R1299T
8998.954	14.09	1548504	REC_WORD_VV	14.09	n/a	<>	-999	10	[0, 0, 0]	n/a	FR1	0	R1299T
9013.044	2.998	1562593	REC_WORD_VV	2.998	n/a	<>	-999	10	[0, 0, 0]	n/a	FR1	0	R1299T
9016.042	0.001	1565591	REC_END	n/a	n/a	n/a	-999	10	[0, 0, 0]	n/a	FR1	0	R1299T
9016.043	0.013	1565592	TRIAL_END	n/a	n/a	n/a	-999	10	[0, 0, 0]	n/a	FR1	0	R1299T
9016.056	0.0	1565605	TRIAL	n/a	n/a	n/a	-999	11	[0, 0, 0]	n/a	FR1	0	R1299T
9016.056	0.0	1565605	WAITING_START	n/a	n/a	n/a	-999	11	[0, 0, 0]	n/a	FR1	0	R1299T
9016.056	2.414	1565605	TRIAL_START	n/a	n/a	n/a	-999	11	[0, 0, 0]	n/a	FR1	0	R1299T
9018.47	0.001	1568019	WAITING_END	n/a	n/a	n/a	-999	11	[0, 0, 0]	n/a	FR1	0	R1299T
9018.471	10.428	1568020	COUNTDOWN_START	n/a	n/a	n/a	-999	11	[0, 0, 0]	n/a	FR1	0	R1299T
9028.899	0.0	1578447	COUNTDOWN_END	n/a	n/a	n/a	-999	11	[0, 0, 0]	n/a	FR1	0	R1299T
9028.899	1.156	1578447	ORIENT_START	n/a	n/a	n/a	-999	11	[0, 0, 0]	n/a	FR1	0	R1299T
9030.055	0.001	1579603	ORIENT_END	n/a	n/a	n/a	-999	11	[0, 0, 0]	n/a	FR1	0	R1299T
9030.056	0.939	1579604	ENCODING_START	n/a	n/a	n/a	-999	11	[0, 0, 0]	n/a	FR1	0	R1299T
9030.995	1.627	1580543	WORD	n/a	n/a	CHIN	1	11	[0, 0, 0]	n/a	FR1	0	R1299T
9032.622	1.146	1582170	WORD_OFF	n/a	n/a	CHIN	1	11	[0, 0, 0]	n/a	FR1	0	R1299T
9033.768	1.622	1583316	WORD	n/a	n/a	SNOW	2	11	[0, 0, 0]	n/a	FR1	0	R1299T
9035.39	0.812	1584938	WORD_OFF	n/a	n/a	SNOW	2	11	[0, 0, 0]	n/a	FR1	0	R1299T
9036.202	1.621	1585750	WORD	n/a	n/a	NET	3	11	[0, 0, 0]	n/a	FR1	0	R1299T
9037.823	1.11	1587371	WORD_OFF	n/a	n/a	NET	3	11	[0, 0, 0]	n/a	FR1	0	R1299T
9038.933	1.608	1588481	WORD	n/a	n/a	CHAIR	4	11	[0, 0, 0]	n/a	FR1	0	R1299T
9040.541	0.974	1590089	WORD_OFF	n/a	n/a	CHAIR	4	11	[0, 0, 0]	n/a	FR1	0	R1299T
9041.515	1.627	1591063	WORD	n/a	n/a	FORK	5	11	[0, 0, 0]	n/a	FR1	0	R1299T
9043.142	1.007	1592690	WORD_OFF	n/a	n/a	FORK	5	11	[0, 0, 0]	n/a	FR1	0	R1299T
9044.149	1.626	1593697	WORD	n/a	n/a	ZOO	6	11	[0, 0, 0]	n/a	FR1	0	R1299T
9045.775	0.902	1595323	WORD_OFF	n/a	n/a	ZOO	6	11	[0, 0, 0]	n/a	FR1	0	R1299T
9046.677	1.616	1596225	WORD	n/a	n/a	SHEET	7	11	[0, 0, 0]	n/a	FR1	0	R1299T
9048.293	1.096	1597840	WORD_OFF	n/a	n/a	SHEET	7	11	[0, 0, 0]	n/a	FR1	0	R1299T
9049.389	1.62	1598936	WORD	n/a	n/a	GOAT	8	11	[0, 0, 0]	n/a	FR1	0	R1299T
9051.009	0.952	1600556	WORD_OFF	n/a	n/a	GOAT	8	11	[0, 0, 0]	n/a	FR1	0	R1299T
9051.961	1.632	1601508	WORD	n/a	n/a	DUCK	9	11	[0, 0, 0]	n/a	FR1	0	R1299T
9053.593	1.082	1603140	WORD_OFF	n/a	n/a	DUCK	9	11	[0, 0, 0]	n/a	FR1	0	R1299T
9054.675	1.636	1604222	WORD	n/a	n/a	PIPE	10	11	[0, 0, 0]	n/a	FR1	0	R1299T
9056.311	0.844	1605858	WORD_OFF	n/a	n/a	PIPE	10	11	[0, 0, 0]	n/a	FR1	0	R1299T
9057.155	1.622	1606702	WORD	n/a	n/a	FOG	11	11	[0, 0, 0]	n/a	FR1	0	R1299T
9058.777	0.927	1608324	WORD_OFF	n/a	n/a	FOG	11	11	[0, 0, 0]	n/a	FR1	0	R1299T
9059.704	1.608	1609251	WORD	n/a	n/a	DIME	12	11	[0, 0, 0]	n/a	FR1	0	R1299T
9061.312	0.0	1610859	WORD_OFF	n/a	n/a	DIME	12	11	[0, 0, 0]	n/a	FR1	0	R1299T
9061.312	0.001	1610859	ENCODING_END	n/a	n/a	n/a	-999	11	[0, 0, 0]	n/a	FR1	0	R1299T
9061.313	0.0	1610860	DISTRACT_START	n/a	n/a	n/a	-999	11	[0, 0, 0]	n/a	FR1	0	R1299T
9061.313	0.015	1610860	START	n/a	n/a	n/a	-999	11	[-999, -999, -999]	n/a	FR1	0	R1299T
9061.328	9.368	1610875	PROB	9.368	n/a	n/a	-999	11	[9, 8, 4]	21	FR1	0	R1299T
9070.696	10.748	1620242	PROB	10.748	n/a	n/a	-999	11	[3, 9, 6]	18	FR1	0	R1299T
9081.444	0.021	1630990	STOP	n/a	n/a	n/a	-999	11	[-999, -999, -999]	n/a	FR1	0	R1299T
9081.465	0.533	1631011	DISTRACT_END	n/a	n/a	n/a	-999	11	[0, 0, 0]	n/a	FR1	0	R1299T
9081.998	1.568	1631544	RETRIEVAL_ORIENT_START	n/a	n/a	n/a	-999	11	[0, 0, 0]	n/a	FR1	0	R1299T
9083.566	0.0	1633112	RETRIEVAL_ORIENT_END	n/a	n/a	n/a	-999	11	[0, 0, 0]	n/a	FR1	0	R1299T
9083.566	1.519	1633112	REC_START	n/a	n/a	n/a	-999	11	[0, 0, 0]	n/a	FR1	0	R1299T
9085.085	0.386	1634631	REC_WORD_VV	0.386	n/a	<>	-999	11	[0, 0, 0]	n/a	FR1	0	R1299T
9085.471	0.636	1635017	REC_WORD	0.636	n/a	CHIN	1	11	[0, 0, 0]	n/a	FR1	0	R1299T
9086.107	0.924	1635653	REC_WORD_VV	0.924	n/a	<>	-999	11	[0, 0, 0]	n/a	FR1	0	R1299T
9087.031	13.77	1636577	REC_WORD	13.77	n/a	CHIN	1	11	[0, 0, 0]	n/a	FR1	0	R1299T
9100.801	0.587	1650346	REC_WORD	0.587	n/a	DUCK	9	11	[0, 0, 0]	n/a	FR1	0	R1299T
9101.388	0.685	1650933	REC_WORD_VV	0.685	n/a	<>	-999	11	[0, 0, 0]	n/a	FR1	0	R1299T
9102.073	1.059	1651618	REC_WORD	1.059	n/a	DUCK	9	11	[0, 0, 0]	n/a	FR1	0	R1299T
9103.132	5.169	1652677	REC_WORD_VV	5.169	n/a	<>	-999	11	[0, 0, 0]	n/a	FR1	0	R1299T
9108.301	5.277	1657846	REC_WORD	5.277	n/a	SNOW	2	11	[0, 0, 0]	n/a	FR1	0	R1299T
9113.578	0.0	1663123	TRIAL_END	n/a	n/a	n/a	-999	11	[0, 0, 0]	n/a	FR1	0	R1299T
9113.578	0.014	1663123	REC_END	n/a	n/a	n/a	-999	11	[0, 0, 0]	n/a	FR1	0	R1299T
9113.592	0.0	1663137	TRIAL_START	n/a	n/a	n/a	-999	12	[0, 0, 0]	n/a	FR1	0	R1299T
9113.592	0.0	1663137	TRIAL	n/a	n/a	n/a	-999	12	[0, 0, 0]	n/a	FR1	0	R1299T
9113.592	10.53	1663137	WAITING_START	n/a	n/a	n/a	-999	12	[0, 0, 0]	n/a	FR1	0	R1299T
9124.122	0.001	1673666	WAITING_END	n/a	n/a	n/a	-999	12	[0, 0, 0]	n/a	FR1	0	R1299T
9124.123	10.428	1673667	COUNTDOWN_START	n/a	n/a	n/a	-999	12	[0, 0, 0]	n/a	FR1	0	R1299T
9134.551	0.0	1684095	COUNTDOWN_END	n/a	n/a	n/a	-999	12	[0, 0, 0]	n/a	FR1	0	R1299T
9134.551	1.09	1684095	ORIENT_START	n/a	n/a	n/a	-999	12	[0, 0, 0]	n/a	FR1	0	R1299T
9135.641	0.0	1685185	ENCODING_START	n/a	n/a	n/a	-999	12	[0, 0, 0]	n/a	FR1	0	R1299T
9135.641	1.132	1685185	ORIENT_END	n/a	n/a	n/a	-999	12	[0, 0, 0]	n/a	FR1	0	R1299T
9136.773	1.636	1686317	WORD	n/a	n/a	CASH	1	12	[0, 0, 0]	n/a	FR1	0	R1299T
9138.409	0.967	1687952	WORD_OFF	n/a	n/a	CASH	1	12	[0, 0, 0]	n/a	FR1	0	R1299T
9139.376	1.633	1688919	WORD	n/a	n/a	FOOD	2	12	[0, 0, 0]	n/a	FR1	0	R1299T
9141.009	0.819	1690552	WORD_OFF	n/a	n/a	FOOD	2	12	[0, 0, 0]	n/a	FR1	0	R1299T
9141.828	1.615	1691371	WORD	n/a	n/a	JAIL	3	12	[0, 0, 0]	n/a	FR1	0	R1299T
9143.443	1.056	1692986	WORD_OFF	n/a	n/a	JAIL	3	12	[0, 0, 0]	n/a	FR1	0	R1299T
9144.499	1.627	1694042	WORD	n/a	n/a	MAIL	4	12	[0, 0, 0]	n/a	FR1	0	R1299T
9146.126	0.908	1695669	WORD_OFF	n/a	n/a	MAIL	4	12	[0, 0, 0]	n/a	FR1	0	R1299T
9147.034	1.626	1696577	WORD	n/a	n/a	PIG	5	12	[0, 0, 0]	n/a	FR1	0	R1299T
9148.66	0.837	1698203	WORD_OFF	n/a	n/a	PIG	5	12	[0, 0, 0]	n/a	FR1	0	R1299T
9149.497	1.63	1699040	WORD	n/a	n/a	THREAD	6	12	[0, 0, 0]	n/a	FR1	0	R1299T
9151.127	1.065	1700670	WORD_OFF	n/a	n/a	THREAD	6	12	[0, 0, 0]	n/a	FR1	0	R1299T
9152.192	1.636	1701735	WORD	n/a	n/a	SIGN	7	12	[0, 0, 0]	n/a	FR1	0	R1299T
9153.828	0.812	1703371	WORD_OFF	n/a	n/a	SIGN	7	12	[0, 0, 0]	n/a	FR1	0	R1299T
9154.64	1.605	1704183	WORD	n/a	n/a	KITE	8	12	[0, 0, 0]	n/a	FR1	0	R1299T
9156.245	1.001	1705788	WORD_OFF	n/a	n/a	KITE	8	12	[0, 0, 0]	n/a	FR1	0	R1299T
9157.246	1.632	1706789	WORD	n/a	n/a	BOOK	9	12	[0, 0, 0]	n/a	FR1	0	R1299T
9158.878	0.96	1708421	WORD_OFF	n/a	n/a	BOOK	9	12	[0, 0, 0]	n/a	FR1	0	R1299T
9159.838	1.609	1709381	WORD	n/a	n/a	RUG	10	12	[0, 0, 0]	n/a	FR1	0	R1299T
9161.447	0.761	1710989	WORD_OFF	n/a	n/a	RUG	10	12	[0, 0, 0]	n/a	FR1	0	R1299T
9162.208	1.621	1711750	WORD	n/a	n/a	MOUTH	11	12	[0, 0, 0]	n/a	FR1	0	R1299T
9163.829	0.985	1713371	WORD_OFF	n/a	n/a	MOUTH	11	12	[0, 0, 0]	n/a	FR1	0	R1299T
9164.814	1.634	1714356	WORD	n/a	n/a	SHARK	12	12	[0, 0, 0]	n/a	FR1	0	R1299T
9166.448	0.0	1715990	WORD_OFF	n/a	n/a	SHARK	12	12	[0, 0, 0]	n/a	FR1	0	R1299T
9166.448	0.0	1715990	ENCODING_END	n/a	n/a	n/a	-999	12	[0, 0, 0]	n/a	FR1	0	R1299T
9166.448	0.0	1715990	DISTRACT_START	n/a	n/a	n/a	-999	12	[0, 0, 0]	n/a	FR1	0	R1299T
9166.448	0.016	1715990	START	n/a	n/a	n/a	-999	12	[-999, -999, -999]	n/a	FR1	0	R1299T
9166.464	8.534	1716006	PROB	8.534	n/a	n/a	-999	12	[9, 4, 3]	16	FR1	0	R1299T
9174.998	4.535	1724540	PROB	4.535	n/a	n/a	-999	12	[7, 3, 1]	11	FR1	0	R1299T
9179.533	9.292	1729075	PROB	9.292	n/a	n/a	-999	12	[9, 3, 8]	20	FR1	0	R1299T
9188.825	0.009	1738366	STOP	n/a	n/a	n/a	-999	12	[-999, -999, -999]	n/a	FR1	0	R1299T
9188.834	0.619	1738375	DISTRACT_END	n/a	n/a	n/a	-999	12	[0, 0, 0]	n/a	FR1	0	R1299T
9189.453	1.699	1738994	RETRIEVAL_ORIENT_START	n/a	n/a	n/a	-999	12	[0, 0, 0]	n/a	FR1	0	R1299T
9191.152	0.0	1740693	REC_START	n/a	n/a	n/a	-999	12	[0, 0, 0]	n/a	FR1	0	R1299T
9191.152	1.58	1740693	RETRIEVAL_ORIENT_END	n/a	n/a	n/a	-999	12	[0, 0, 0]	n/a	FR1	0	R1299T
9192.732	2.058	1742273	REC_WORD	2.058	n/a	CASH	1	12	[0, 0, 0]	n/a	FR1	0	R1299T
9194.79	2.937	1744331	REC_WORD	2.937	n/a	JAIL	3	12	[0, 0, 0]	n/a	FR1	0	R1299T
9197.727	8.903	1747268	REC_WORD	8.903	n/a	BOOK	9	12	[0, 0, 0]	n/a	FR1	0	R1299T
9206.63	14.534	1756170	REC_WORD	14.534	n/a	MAIL	4	12	[0, 0, 0]	n/a	FR1	0	R1299T
9221.164	0.0	1770704	REC_END	n/a	n/a	n/a	-999	12	[0, 0, 0]	n/a	FR1	0	R1299T
9221.164	0.015	1770704	TRIAL_END	n/a	n/a	n/a	-999	12	[0, 0, 0]	n/a	FR1	0	R1299T
9221.179	0.0	1770719	TRIAL_START	n/a	n/a	n/a	-999	13	[0, 0, 0]	n/a	FR1	0	R1299T
9221.179	0.001	1770719	TRIAL	n/a	n/a	n/a	-999	13	[0, 0, 0]	n/a	FR1	0	R1299T
9221.18	5.428	1770720	WAITING_START	n/a	n/a	n/a	-999	13	[0, 0, 0]	n/a	FR1	0	R1299T
9226.608	0.0	1776148	WAITING_END	n/a	n/a	n/a	-999	13	[0, 0, 0]	n/a	FR1	0	R1299T
9226.608	10.429	1776148	COUNTDOWN_START	n/a	n/a	n/a	-999	13	[0, 0, 0]	n/a	FR1	0	R1299T
9237.037	0.0	1786576	COUNTDOWN_END	n/a	n/a	n/a	-999	13	[0, 0, 0]	n/a	FR1	0	R1299T
9237.037	1.056	1786576	ORIENT_START	n/a	n/a	n/a	-999	13	[0, 0, 0]	n/a	FR1	0	R1299T
9238.093	0.0	1787632	ORIENT_END	n/a	n/a	n/a	-999	13	[0, 0, 0]	n/a	FR1	0	R1299T
9238.093	0.988	1787632	ENCODING_START	n/a	n/a	n/a	-999	13	[0, 0, 0]	n/a	FR1	0	R1299T
9239.081	1.629	1788620	WORD	n/a	n/a	BOMB	1	13	[0, 0, 0]	n/a	FR1	0	R1299T
9240.71	0.891	1790249	WORD_OFF	n/a	n/a	BOMB	1	13	[0, 0, 0]	n/a	FR1	0	R1299T
9241.601	1.61	1791140	WORD	n/a	n/a	ROPE	2	13	[0, 0, 0]	n/a	FR1	0	R1299T
9243.211	1.102	1792750	WORD_OFF	n/a	n/a	ROPE	2	13	[0, 0, 0]	n/a	FR1	0	R1299T
9244.313	1.631	1793852	WORD	n/a	n/a	PET	3	13	[0, 0, 0]	n/a	FR1	0	R1299T
9245.944	1.033	1795483	WORD_OFF	n/a	n/a	PET	3	13	[0, 0, 0]	n/a	FR1	0	R1299T
9246.977	1.634	1796516	WORD	n/a	n/a	STONE	4	13	[0, 0, 0]	n/a	FR1	0	R1299T
9248.611	0.869	1798150	WORD_OFF	n/a	n/a	STONE	4	13	[0, 0, 0]	n/a	FR1	0	R1299T
9249.48	1.632	1799019	WORD	n/a	n/a	CALF	5	13	[0, 0, 0]	n/a	FR1	0	R1299T
9251.112	0.974	1800651	WORD_OFF	n/a	n/a	CALF	5	13	[0, 0, 0]	n/a	FR1	0	R1299T
9252.086	1.626	1801624	WORD	n/a	n/a	SKUNK	6	13	[0, 0, 0]	n/a	FR1	0	R1299T
9253.712	1.077	1803250	WORD_OFF	n/a	n/a	SKUNK	6	13	[0, 0, 0]	n/a	FR1	0	R1299T
9254.789	1.625	1804327	WORD	n/a	n/a	SNAKE	7	13	[0, 0, 0]	n/a	FR1	0	R1299T
9256.414	1.028	1805952	WORD_OFF	n/a	n/a	SNAKE	7	13	[0, 0, 0]	n/a	FR1	0	R1299T
9257.442	1.621	1806980	WORD	n/a	n/a	FROG	8	13	[0, 0, 0]	n/a	FR1	0	R1299T
9259.063	0.813	1808601	WORD_OFF	n/a	n/a	FROG	8	13	[0, 0, 0]	n/a	FR1	0	R1299T
9259.876	1.606	1809414	WORD	n/a	n/a	GUARD	9	13	[0, 0, 0]	n/a	FR1	0	R1299T
9261.482	0.84	1811020	WORD_OFF	n/a	n/a	GUARD	9	13	[0, 0, 0]	n/a	FR1	0	R1299T
9262.322	1.626	1811860	WORD	n/a	n/a	ARK	10	13	[0, 0, 0]	n/a	FR1	0	R1299T
9263.948	1.034	1813486	WORD_OFF	n/a	n/a	ARK	10	13	[0, 0, 0]	n/a	FR1	0	R1299T
9264.982	1.633	1814520	WORD	n/a	n/a	KEY	11	13	[0, 0, 0]	n/a	FR1	0	R1299T
9266.615	1.135	1816153	WORD_OFF	n/a	n/a	KEY	11	13	[0, 0, 0]	n/a	FR1	0	R1299T
9267.75	1.616	1817288	WORD	n/a	n/a	WORLD	12	13	[0, 0, 0]	n/a	FR1	0	R1299T
9269.366	0.0	1818904	WORD_OFF	n/a	n/a	WORLD	12	13	[0, 0, 0]	n/a	FR1	0	R1299T
9269.366	0.001	1818904	ENCODING_END	n/a	n/a	n/a	-999	13	[0, 0, 0]	n/a	FR1	0	R1299T
9269.367	0.0	1818905	DISTRACT_START	n/a	n/a	n/a	-999	13	[0, 0, 0]	n/a	FR1	0	R1299T
9269.367	0.016	1818905	START	n/a	n/a	n/a	-999	13	[-999, -999, -999]	n/a	FR1	0	R1299T
9269.383	8.885	1818921	PROB	8.885	n/a	n/a	-999	13	[9, 5, 7]	21	FR1	0	R1299T
9278.268	8.584	1827805	PROB	8.584	n/a	n/a	-999	13	[8, 4, 7]	19	FR1	0	R1299T
9286.852	8.409	1836389	PROB	8.409	n/a	n/a	-999	13	[5, 9, 9]	23	FR1	0	R1299T
9295.261	0.01	1844798	STOP	n/a	n/a	n/a	-999	13	[-999, -999, -999]	n/a	FR1	0	R1299T
9295.271	0.523	1844808	DISTRACT_END	n/a	n/a	n/a	-999	13	[0, 0, 0]	n/a	FR1	0	R1299T
9295.794	1.527	1845331	RETRIEVAL_ORIENT_START	n/a	n/a	n/a	-999	13	[0, 0, 0]	n/a	FR1	0	R1299T
9297.321	0.001	1846857	RETRIEVAL_ORIENT_END	n/a	n/a	n/a	-999	13	[0, 0, 0]	n/a	FR1	0	R1299T
9297.322	1.23	1846858	REC_START	n/a	n/a	n/a	-999	13	[0, 0, 0]	n/a	FR1	0	R1299T
9298.552	0.525	1848088	REC_WORD_VV	0.525	n/a	<>	-999	13	[0, 0, 0]	n/a	FR1	0	R1299T
9299.077	2.726	1848613	REC_WORD	2.726	n/a	PET	3	13	[0, 0, 0]	n/a	FR1	0	R1299T
9301.803	0.065	1851339	REC_WORD_VV	0.065	n/a	<>	-999	13	[0, 0, 0]	n/a	FR1	0	R1299T
9301.868	25.466	1851404	REC_WORD	25.466	n/a	SKUNK	6	13	[0, 0, 0]	n/a	FR1	0	R1299T
9327.334	0.001	1876869	REC_END	n/a	n/a	n/a	-999	13	[0, 0, 0]	n/a	FR1	0	R1299T
9327.335	0.014	1876870	TRIAL_END	n/a	n/a	n/a	-999	13	[0, 0, 0]	n/a	FR1	0	R1299T
9327.349	0.001	1876884	TRIAL_START	n/a	n/a	n/a	-999	14	[0, 0, 0]	n/a	FR1	0	R1299T
9327.35	0.0	1876885	TRIAL	n/a	n/a	n/a	-999	14	[0, 0, 0]	n/a	FR1	0	R1299T
9327.35	4.31	1876885	WAITING_START	n/a	n/a	n/a	-999	14	[0, 0, 0]	n/a	FR1	0	R1299T
9331.66	0.0	1881195	COUNTDOWN_START	n/a	n/a	n/a	-999	14	[0, 0, 0]	n/a	FR1	0	R1299T
9331.66	10.428	1881195	WAITING_END	n/a	n/a	n/a	-999	14	[0, 0, 0]	n/a	FR1	0	R1299T
9342.088	0.001	1891623	COUNTDOWN_END	n/a	n/a	n/a	-999	14	[0, 0, 0]	n/a	FR1	0	R1299T
9342.089	1.207	1891624	ORIENT_START	n/a	n/a	n/a	-999	14	[0, 0, 0]	n/a	FR1	0	R1299T
9343.296	0.001	1892830	ORIENT_END	n/a	n/a	n/a	-999	14	[0, 0, 0]	n/a	FR1	0	R1299T
9343.297	0.756	1892831	ENCODING_START	n/a	n/a	n/a	-999	14	[0, 0, 0]	n/a	FR1	0	R1299T
9344.053	1.626	1893587	WORD	n/a	n/a	BROOM	1	14	[0, 0, 0]	n/a	FR1	0	R1299T
9345.679	0.916	1895213	WORD_OFF	n/a	n/a	BROOM	1	14	[0, 0, 0]	n/a	FR1	0	R1299T
9346.595	1.619	1896129	WORD	n/a	n/a	SMOKE	2	14	[0, 0, 0]	n/a	FR1	0	R1299T
9348.214	0.844	1897748	WORD_OFF	n/a	n/a	SMOKE	2	14	[0, 0, 0]	n/a	FR1	0	R1299T
9349.058	1.622	1898592	WORD	n/a	n/a	STEAK	3	14	[0, 0, 0]	n/a	FR1	0	R1299T
9350.68	0.917	1900214	WORD_OFF	n/a	n/a	STEAK	3	14	[0, 0, 0]	n/a	FR1	0	R1299T
9351.597	1.635	1901131	WORD	n/a	n/a	BAG	4	14	[0, 0, 0]	n/a	FR1	0	R1299T
9353.232	0.92	1902766	WORD_OFF	n/a	n/a	BAG	4	14	[0, 0, 0]	n/a	FR1	0	R1299T
9354.152	1.629	1903686	WORD	n/a	n/a	STICK	5	14	[0, 0, 0]	n/a	FR1	0	R1299T
9355.781	0.95	1905315	WORD_OFF	n/a	n/a	STICK	5	14	[0, 0, 0]	n/a	FR1	0	R1299T
9356.731	1.635	1906265	WORD	n/a	n/a	PALM	6	14	[0, 0, 0]	n/a	FR1	0	R1299T
9358.366	1.002	1907900	WORD_OFF	n/a	n/a	PALM	6	14	[0, 0, 0]	n/a	FR1	0	R1299T
9359.368	1.631	1908902	WORD	n/a	n/a	SHIP	7	14	[0, 0, 0]	n/a	FR1	0	R1299T
9360.999	0.867	1910533	WORD_OFF	n/a	n/a	SHIP	7	14	[0, 0, 0]	n/a	FR1	0	R1299T
9361.866	1.634	1911400	WORD	n/a	n/a	SMILE	8	14	[0, 0, 0]	n/a	FR1	0	R1299T
9363.5	0.914	1913034	WORD_OFF	n/a	n/a	SMILE	8	14	[0, 0, 0]	n/a	FR1	0	R1299T
9364.414	1.635	1913948	WORD	n/a	n/a	WAND	9	14	[0, 0, 0]	n/a	FR1	0	R1299T
9366.049	1.071	1915582	WORD_OFF	n/a	n/a	WAND	9	14	[0, 0, 0]	n/a	FR1	0	R1299T
9367.12	1.63	1916653	WORD	n/a	n/a	POLE	10	14	[0, 0, 0]	n/a	FR1	0	R1299T
9368.75	1.116	1918283	WORD_OFF	n/a	n/a	POLE	10	14	[0, 0, 0]	n/a	FR1	0	R1299T
9369.866	1.619	1919399	WORD	n/a	n/a	FUDGE	11	14	[0, 0, 0]	n/a	FR1	0	R1299T
9371.485	1.003	1921018	WORD_OFF	n/a	n/a	FUDGE	11	14	[0, 0, 0]	n/a	FR1	0	R1299T
9372.488	1.63	1922021	WORD	n/a	n/a	WAVE	12	14	[0, 0, 0]	n/a	FR1	0	R1299T
9374.118	0.0	1923651	DISTRACT_START	n/a	n/a	n/a	-999	14	[0, 0, 0]	n/a	FR1	0	R1299T
9374.118	0.0	1923651	ENCODING_END	n/a	n/a	n/a	-999	14	[0, 0, 0]	n/a	FR1	0	R1299T
9374.118	0.001	1923651	WORD_OFF	n/a	n/a	WAVE	12	14	[0, 0, 0]	n/a	FR1	0	R1299T
9374.119	0.016	1923652	START	n/a	n/a	n/a	-999	14	[-999, -999, -999]	n/a	FR1	0	R1299T
9374.135	8.418	1923668	PROB	8.418	n/a	n/a	-999	14	[9, 3, 8]	20	FR1	0	R1299T
9382.553	8.567	1932086	PROB	8.567	n/a	n/a	-999	14	[7, 8, 8]	23	FR1	0	R1299T
9391.12	14.402	1940652	PROB	14.402	n/a	n/a	-999	14	[5, 9, 7]	21	FR1	0	R1299T
9405.522	0.019	1955054	STOP	n/a	n/a	n/a	-999	14	[-999, -999, -999]	n/a	FR1	0	R1299T
9405.541	0.543	1955073	DISTRACT_END	n/a	n/a	n/a	-999	14	[0, 0, 0]	n/a	FR1	0	R1299T
9406.084	1.706	1955616	RETRIEVAL_ORIENT_START	n/a	n/a	n/a	-999	14	[0, 0, 0]	n/a	FR1	0	R1299T
9407.79	0.001	1957322	RETRIEVAL_ORIENT_END	n/a	n/a	n/a	-999	14	[0, 0, 0]	n/a	FR1	0	R1299T
9407.791	2.959	1957323	REC_START	n/a	n/a	n/a	-999	14	[0, 0, 0]	n/a	FR1	0	R1299T
9410.75	3.487	1960282	REC_WORD_VV	3.487	n/a	<>	-999	14	[0, 0, 0]	n/a	FR1	0	R1299T
9414.237	1.0	1963768	REC_WORD	1.0	n/a	STICK	5	14	[0, 0, 0]	n/a	FR1	0	R1299T
9415.237	1.0	1964768	REC_WORD_VV	1.0	n/a	<>	-999	14	[0, 0, 0]	n/a	FR1	0	R1299T
9416.237	4.247	1965768	REC_WORD_VV	4.247	n/a	<>	-999	14	[0, 0, 0]	n/a	FR1	0	R1299T
9420.484	9.335	1970015	REC_WORD	9.335	n/a	WAND	9	14	[0, 0, 0]	n/a	FR1	0	R1299T
9429.819	0.275	1979350	REC_WORD_VV	0.275	n/a	<>	-999	14	[0, 0, 0]	n/a	FR1	0	R1299T
9430.094	1.209	1979625	REC_WORD_VV	1.209	n/a	<>	-999	14	[0, 0, 0]	n/a	FR1	0	R1299T
9431.303	6.5	1980834	REC_WORD	6.5	n/a	SMOKE	2	14	[0, 0, 0]	n/a	FR1	0	R1299T
9437.803	0.0	1987333	REC_END	n/a	n/a	n/a	-999	14	[0, 0, 0]	n/a	FR1	0	R1299T
9437.803	0.015	1987333	TRIAL_END	n/a	n/a	n/a	-999	14	[0, 0, 0]	n/a	FR1	0	R1299T
9437.818	0.0	1987348	TRIAL_START	n/a	n/a	n/a	-999	15	[0, 0, 0]	n/a	FR1	0	R1299T
9437.818	0.0	1987348	TRIAL	n/a	n/a	n/a	-999	15	[0, 0, 0]	n/a	FR1	0	R1299T
9437.818	4.73	1987348	WAITING_START	n/a	n/a	n/a	-999	15	[0, 0, 0]	n/a	FR1	0	R1299T
9442.548	0.0	1992078	COUNTDOWN_START	n/a	n/a	n/a	-999	15	[0, 0, 0]	n/a	FR1	0	R1299T
9442.548	10.429	1992078	WAITING_END	n/a	n/a	n/a	-999	15	[0, 0, 0]	n/a	FR1	0	R1299T
9452.977	0.0	2002507	COUNTDOWN_END	n/a	n/a	n/a	-999	15	[0, 0, 0]	n/a	FR1	0	R1299T
9452.977	1.089	2002507	ORIENT_START	n/a	n/a	n/a	-999	15	[0, 0, 0]	n/a	FR1	0	R1299T
9454.066	0.0	2003596	ORIENT_END	n/a	n/a	n/a	-999	15	[0, 0, 0]	n/a	FR1	0	R1299T
9454.066	0.894	2003596	ENCODING_START	n/a	n/a	n/a	-999	15	[0, 0, 0]	n/a	FR1	0	R1299T
9454.96	1.607	2004490	WORD	n/a	n/a	JAR	1	15	[0, 0, 0]	n/a	FR1	0	R1299T
9456.567	0.945	2006096	WORD_OFF	n/a	n/a	JAR	1	15	[0, 0, 0]	n/a	FR1	0	R1299T
9457.512	1.621	2007041	WORD	n/a	n/a	FAN	2	15	[0, 0, 0]	n/a	FR1	0	R1299T
9459.133	0.77	2008662	WORD_OFF	n/a	n/a	FAN	2	15	[0, 0, 0]	n/a	FR1	0	R1299T
9459.903	1.615	2009432	WORD	n/a	n/a	HORN	3	15	[0, 0, 0]	n/a	FR1	0	R1299T
9461.518	0.887	2011047	WORD_OFF	n/a	n/a	HORN	3	15	[0, 0, 0]	n/a	FR1	0	R1299T
9462.405	1.629	2011934	WORD	n/a	n/a	GRAPE	4	15	[0, 0, 0]	n/a	FR1	0	R1299T
9464.034	0.851	2013563	WORD_OFF	n/a	n/a	GRAPE	4	15	[0, 0, 0]	n/a	FR1	0	R1299T
9464.885	1.634	2014414	WORD	n/a	n/a	MOON	5	15	[0, 0, 0]	n/a	FR1	0	R1299T
9466.519	1.006	2016048	WORD_OFF	n/a	n/a	MOON	5	15	[0, 0, 0]	n/a	FR1	0	R1299T
9467.525	1.628	2017054	WORD	n/a	n/a	CROW	6	15	[0, 0, 0]	n/a	FR1	0	R1299T
9469.153	0.837	2018682	WORD_OFF	n/a	n/a	CROW	6	15	[0, 0, 0]	n/a	FR1	0	R1299T
9469.99	1.629	2019519	WORD	n/a	n/a	GATE	7	15	[0, 0, 0]	n/a	FR1	0	R1299T
9471.619	1.072	2021148	WORD_OFF	n/a	n/a	GATE	7	15	[0, 0, 0]	n/a	FR1	0	R1299T
9472.691	1.629	2022220	WORD	n/a	n/a	BLOOM	8	15	[0, 0, 0]	n/a	FR1	0	R1299T
9474.32	0.906	2023849	WORD_OFF	n/a	n/a	BLOOM	8	15	[0, 0, 0]	n/a	FR1	0	R1299T
9475.226	1.627	2024755	WORD	n/a	n/a	CRANE	9	15	[0, 0, 0]	n/a	FR1	0	R1299T
9476.853	0.954	2026382	WORD_OFF	n/a	n/a	CRANE	9	15	[0, 0, 0]	n/a	FR1	0	R1299T
9477.807	1.631	2027336	WORD	n/a	n/a	HAND	10	15	[0, 0, 0]	n/a	FR1	0	R1299T
9479.438	0.833	2028966	WORD_OFF	n/a	n/a	HAND	10	15	[0, 0, 0]	n/a	FR1	0	R1299T
9480.271	1.633	2029799	WORD	n/a	n/a	VINE	11	15	[0, 0, 0]	n/a	FR1	0	R1299T
9481.904	0.847	2031432	WORD_OFF	n/a	n/a	VINE	11	15	[0, 0, 0]	n/a	FR1	0	R1299T
9482.751	1.621	2032279	WORD	n/a	n/a	CONE	12	15	[0, 0, 0]	n/a	FR1	0	R1299T
9484.372	0.0	2033900	WORD_OFF	n/a	n/a	CONE	12	15	[0, 0, 0]	n/a	FR1	0	R1299T
9484.372	0.001	2033900	ENCODING_END	n/a	n/a	n/a	-999	15	[0, 0, 0]	n/a	FR1	0	R1299T
9484.373	0.0	2033901	DISTRACT_START	n/a	n/a	n/a	-999	15	[0, 0, 0]	n/a	FR1	0	R1299T
9484.373	0.015	2033901	START	n/a	n/a	n/a	-999	15	[-999, -999, -999]	n/a	FR1	0	R1299T
9484.388	9.485	2033916	PROB	9.485	n/a	n/a	-999	15	[4, 8, 3]	15	FR1	0	R1299T
9493.873	8.184	2043401	PROB	8.184	n/a	n/a	-999	15	[6, 2, 7]	15	FR1	0	R1299T
9502.057	6.656	2051584	PROB	6.656	n/a	n/a	-999	15	[8, 4, 7]	19	FR1	0	R1299T
9508.713	0.012	2058240	STOP	n/a	n/a	n/a	-999	15	[-999, -999, -999]	n/a	FR1	0	R1299T
9508.725	0.6	2058252	DISTRACT_END	n/a	n/a	n/a	-999	15	[0, 0, 0]	n/a	FR1	0	R1299T
9509.325	1.534	2058852	RETRIEVAL_ORIENT_START	n/a	n/a	n/a	-999	15	[0, 0, 0]	n/a	FR1	0	R1299T
9510.859	0.001	2060386	RETRIEVAL_ORIENT_END	n/a	n/a	n/a	-999	15	[0, 0, 0]	n/a	FR1	0	R1299T
9510.86	1.589	2060387	REC_START	n/a	n/a	n/a	-999	15	[0, 0, 0]	n/a	FR1	0	R1299T
9512.449	0.32	2061976	REC_WORD_VV	0.32	n/a	<>	-999	15	[0, 0, 0]	n/a	FR1	0	R1299T
9512.769	2.498	2062296	REC_WORD	2.498	n/a	JAR	1	15	[0, 0, 0]	n/a	FR1	0	R1299T
9515.267	2.837	2064794	REC_WORD	2.837	n/a	BLOOM	8	15	[0, 0, 0]	n/a	FR1	0	R1299T
9518.104	3.05	2067631	REC_WORD	3.05	n/a	CRANE	9	15	[0, 0, 0]	n/a	FR1	0	R1299T
9521.154	0.295	2070681	REC_WORD_VV	0.295	n/a	<>	-999	15	[0, 0, 0]	n/a	FR1	0	R1299T
9521.449	19.422	2070976	REC_WORD	19.422	n/a	VAN	-999	15	[0, 0, 0]	n/a	FR1	0	R1299T
9540.871	0.001	2090397	REC_END	n/a	n/a	n/a	-999	15	[0, 0, 0]	n/a	FR1	0	R1299T
9540.872	0.013	2090398	TRIAL_END	n/a	n/a	n/a	-999	15	[0, 0, 0]	n/a	FR1	0	R1299T
9540.885	0.001	2090411	TRIAL_START	n/a	n/a	n/a	-999	16	[0, 0, 0]	n/a	FR1	0	R1299T
9540.886	0.0	2090412	TRIAL	n/a	n/a	n/a	-999	16	[0, 0, 0]	n/a	FR1	0	R1299T
9540.886	4.83	2090412	WAITING_START	n/a	n/a	n/a	-999	16	[0, 0, 0]	n/a	FR1	0	R1299T
9545.716	0.0	2095242	COUNTDOWN_START	n/a	n/a	n/a	-999	16	[0, 0, 0]	n/a	FR1	0	R1299T
9545.716	10.429	2095242	WAITING_END	n/a	n/a	n/a	-999	16	[0, 0, 0]	n/a	FR1	0	R1299T
9556.145	0.001	2105670	COUNTDOWN_END	n/a	n/a	n/a	-999	16	[0, 0, 0]	n/a	FR1	0	R1299T
9556.146	1.239	2105671	ORIENT_START	n/a	n/a	n/a	-999	16	[0, 0, 0]	n/a	FR1	0	R1299T
9557.385	0.001	2106910	ORIENT_END	n/a	n/a	n/a	-999	16	[0, 0, 0]	n/a	FR1	0	R1299T
9557.386	0.819	2106911	ENCODING_START	n/a	n/a	n/a	-999	16	[0, 0, 0]	n/a	FR1	0	R1299T
9558.205	1.63	2107730	WORD	n/a	n/a	FLAME	1	16	[0, 0, 0]	n/a	FR1	0	R1299T
9559.835	0.964	2109360	WORD_OFF	n/a	n/a	FLAME	1	16	[0, 0, 0]	n/a	FR1	0	R1299T
9560.799	1.637	2110324	WORD	n/a	n/a	TOOTH	2	16	[0, 0, 0]	n/a	FR1	0	R1299T
9562.436	0.875	2111961	WORD_OFF	n/a	n/a	TOOTH	2	16	[0, 0, 0]	n/a	FR1	0	R1299T
9563.311	1.625	2112836	WORD	n/a	n/a	ELF	3	16	[0, 0, 0]	n/a	FR1	0	R1299T
9564.936	1.072	2114461	WORD_OFF	n/a	n/a	ELF	3	16	[0, 0, 0]	n/a	FR1	0	R1299T
9566.008	1.628	2115533	WORD	n/a	n/a	TEA	4	16	[0, 0, 0]	n/a	FR1	0	R1299T
9567.636	1.136	2117161	WORD_OFF	n/a	n/a	TEA	4	16	[0, 0, 0]	n/a	FR1	0	R1299T
9568.772	1.632	2118297	WORD	n/a	n/a	NOSE	5	16	[0, 0, 0]	n/a	FR1	0	R1299T
9570.404	1.074	2119928	WORD_OFF	n/a	n/a	NOSE	5	16	[0, 0, 0]	n/a	FR1	0	R1299T
9571.478	1.626	2121002	WORD	n/a	n/a	TENT	6	16	[0, 0, 0]	n/a	FR1	0	R1299T
9573.104	0.881	2122628	WORD_OFF	n/a	n/a	TENT	6	16	[0, 0, 0]	n/a	FR1	0	R1299T
9573.985	1.636	2123509	WORD	n/a	n/a	RAT	7	16	[0, 0, 0]	n/a	FR1	0	R1299T
9575.621	1.011	2125145	WORD_OFF	n/a	n/a	RAT	7	16	[0, 0, 0]	n/a	FR1	0	R1299T
9576.632	1.624	2126156	WORD	n/a	n/a	FLUTE	8	16	[0, 0, 0]	n/a	FR1	0	R1299T
9578.256	1.014	2127780	WORD_OFF	n/a	n/a	FLUTE	8	16	[0, 0, 0]	n/a	FR1	0	R1299T
9579.27	1.635	2128794	WORD	n/a	n/a	FLEA	9	16	[0, 0, 0]	n/a	FR1	0	R1299T
9580.905	1.109	2130429	WORD_OFF	n/a	n/a	FLEA	9	16	[0, 0, 0]	n/a	FR1	0	R1299T
9582.014	1.625	2131538	WORD	n/a	n/a	FILM	10	16	[0, 0, 0]	n/a	FR1	0	R1299T
9583.639	1.089	2133163	WORD_OFF	n/a	n/a	FILM	10	16	[0, 0, 0]	n/a	FR1	0	R1299T
9584.728	1.612	2134252	WORD	n/a	n/a	PEACH	11	16	[0, 0, 0]	n/a	FR1	0	R1299T
9586.34	0.879	2135864	WORD_OFF	n/a	n/a	PEACH	11	16	[0, 0, 0]	n/a	FR1	0	R1299T
9587.219	1.621	2136743	WORD	n/a	n/a	BADGE	12	16	[0, 0, 0]	n/a	FR1	0	R1299T
9588.84	0.0	2138364	ENCODING_END	n/a	n/a	n/a	-999	16	[0, 0, 0]	n/a	FR1	0	R1299T
9588.84	0.001	2138364	WORD_OFF	n/a	n/a	BADGE	12	16	[0, 0, 0]	n/a	FR1	0	R1299T
9588.841	0.0	2138365	DISTRACT_START	n/a	n/a	n/a	-999	16	[0, 0, 0]	n/a	FR1	0	R1299T
9588.841	0.015	2138365	START	n/a	n/a	n/a	-999	16	[-999, -999, -999]	n/a	FR1	0	R1299T
9588.856	5.686	2138380	PROB	5.686	n/a	n/a	-999	16	[8, 2, 7]	17	FR1	0	R1299T
9594.542	8.117	2144065	PROB	8.117	n/a	n/a	-999	16	[4, 5, 9]	18	FR1	0	R1299T
9602.659	7.971	2152182	PROB	7.971	n/a	n/a	-999	16	[4, 4, 4]	12	FR1	0	R1299T
9610.63	0.014	2160153	STOP	n/a	n/a	n/a	-999	16	[-999, -999, -999]	n/a	FR1	0	R1299T
9610.644	0.633	2160167	DISTRACT_END	n/a	n/a	n/a	-999	16	[0, 0, 0]	n/a	FR1	0	R1299T
9611.277	1.717	2160800	RETRIEVAL_ORIENT_START	n/a	n/a	n/a	-999	16	[0, 0, 0]	n/a	FR1	0	R1299T
9612.994	0.001	2162517	RETRIEVAL_ORIENT_END	n/a	n/a	n/a	-999	16	[0, 0, 0]	n/a	FR1	0	R1299T
9612.995	1.912	2162518	REC_START	n/a	n/a	n/a	-999	16	[0, 0, 0]	n/a	FR1	0	R1299T
9614.907	3.035	2164430	REC_WORD	3.035	n/a	FLAME	1	16	[0, 0, 0]	n/a	FR1	0	R1299T
9617.942	3.911	2167464	REC_WORD	3.911	n/a	LIP	-999	16	[0, 0, 0]	n/a	FR1	0	R1299T
9621.853	4.852	2171375	REC_WORD	4.852	n/a	TOOTH	2	16	[0, 0, 0]	n/a	FR1	0	R1299T
9626.705	9.277	2176227	REC_WORD	9.277	n/a	CRANE	-999	16	[0, 0, 0]	n/a	FR1	0	R1299T
9635.982	7.024	2185504	REC_WORD	7.024	n/a	JAR	-999	16	[0, 0, 0]	n/a	FR1	0	R1299T
9643.006	0.0	2192527	REC_END	n/a	n/a	n/a	-999	16	[0, 0, 0]	n/a	FR1	0	R1299T
9643.006	0.014	2192527	TRIAL_END	n/a	n/a	n/a	-999	16	[0, 0, 0]	n/a	FR1	0	R1299T
9643.02	0.0	2192541	TRIAL_START	n/a	n/a	n/a	-999	17	[0, 0, 0]	n/a	FR1	0	R1299T
9643.02	0.0	2192541	TRIAL	n/a	n/a	n/a	-999	17	[0, 0, 0]	n/a	FR1	0	R1299T
9643.02	4.581	2192541	WAITING_START	n/a	n/a	n/a	-999	17	[0, 0, 0]	n/a	FR1	0	R1299T
9647.601	0.0	2197122	WAITING_END	n/a	n/a	n/a	-999	17	[0, 0, 0]	n/a	FR1	0	R1299T
9647.601	10.429	2197122	COUNTDOWN_START	n/a	n/a	n/a	-999	17	[0, 0, 0]	n/a	FR1	0	R1299T
9658.03	0.0	2207551	ORIENT_START	n/a	n/a	n/a	-999	17	[0, 0, 0]	n/a	FR1	0	R1299T
9658.03	1.073	2207551	COUNTDOWN_END	n/a	n/a	n/a	-999	17	[0, 0, 0]	n/a	FR1	0	R1299T
9659.103	0.0	2208624	ORIENT_END	n/a	n/a	n/a	-999	17	[0, 0, 0]	n/a	FR1	0	R1299T
9659.103	0.784	2208624	ENCODING_START	n/a	n/a	n/a	-999	17	[0, 0, 0]	n/a	FR1	0	R1299T
9659.887	1.634	2209408	WORD	n/a	n/a	SHIELD	1	17	[0, 0, 0]	n/a	FR1	0	R1299T
9661.521	1.048	2211041	WORD_OFF	n/a	n/a	SHIELD	1	17	[0, 0, 0]	n/a	FR1	0	R1299T
9662.569	1.636	2212089	WORD	n/a	n/a	HAT	2	17	[0, 0, 0]	n/a	FR1	0	R1299T
9664.205	0.851	2213725	WORD_OFF	n/a	n/a	HAT	2	17	[0, 0, 0]	n/a	FR1	0	R1299T
9665.056	1.631	2214576	WORD	n/a	n/a	BEACH	3	17	[0, 0, 0]	n/a	FR1	0	R1299T
9666.687	0.814	2216207	WORD_OFF	n/a	n/a	BEACH	3	17	[0, 0, 0]	n/a	FR1	0	R1299T
9667.501	1.62	2217021	WORD	n/a	n/a	SEED	4	17	[0, 0, 0]	n/a	FR1	0	R1299T
9669.121	0.996	2218641	WORD_OFF	n/a	n/a	SEED	4	17	[0, 0, 0]	n/a	FR1	0	R1299T
9670.117	1.621	2219637	WORD	n/a	n/a	BRIDGE	5	17	[0, 0, 0]	n/a	FR1	0	R1299T
9671.738	0.939	2221258	WORD_OFF	n/a	n/a	BRIDGE	5	17	[0, 0, 0]	n/a	FR1	0	R1299T
9672.677	1.613	2222197	WORD	n/a	n/a	FUR	6	17	[0, 0, 0]	n/a	FR1	0	R1299T
9674.29	1.013	2223810	WORD_OFF	n/a	n/a	FUR	6	17	[0, 0, 0]	n/a	FR1	0	R1299T
9675.303	1.636	2224823	WORD	n/a	n/a	ROOT	7	17	[0, 0, 0]	n/a	FR1	0	R1299T
9676.939	0.896	2226459	WORD_OFF	n/a	n/a	ROOT	7	17	[0, 0, 0]	n/a	FR1	0	R1299T
9677.835	1.606	2227355	WORD	n/a	n/a	GOLD	8	17	[0, 0, 0]	n/a	FR1	0	R1299T
9679.441	0.769	2228961	WORD_OFF	n/a	n/a	GOLD	8	17	[0, 0, 0]	n/a	FR1	0	R1299T
9680.21	1.63	2229730	WORD	n/a	n/a	LAND	9	17	[0, 0, 0]	n/a	FR1	0	R1299T
9681.84	0.791	2231360	WORD_OFF	n/a	n/a	LAND	9	17	[0, 0, 0]	n/a	FR1	0	R1299T
9682.631	1.611	2232151	WORD	n/a	n/a	SPARK	10	17	[0, 0, 0]	n/a	FR1	0	R1299T
9684.242	0.941	2233761	WORD_OFF	n/a	n/a	SPARK	10	17	[0, 0, 0]	n/a	FR1	0	R1299T
9685.183	1.625	2234702	WORD	n/a	n/a	CLOTH	11	17	[0, 0, 0]	n/a	FR1	0	R1299T
9686.808	0.856	2236327	WORD_OFF	n/a	n/a	CLOTH	11	17	[0, 0, 0]	n/a	FR1	0	R1299T
9687.664	1.612	2237183	WORD	n/a	n/a	HAWK	12	17	[0, 0, 0]	n/a	FR1	0	R1299T
9689.276	0.001	2238795	WORD_OFF	n/a	n/a	HAWK	12	17	[0, 0, 0]	n/a	FR1	0	R1299T
9689.277	0.0	2238796	DISTRACT_START	n/a	n/a	n/a	-999	17	[0, 0, 0]	n/a	FR1	0	R1299T
9689.277	0.0	2238796	ENCODING_END	n/a	n/a	n/a	-999	17	[0, 0, 0]	n/a	FR1	0	R1299T
9689.277	0.015	2238796	START	n/a	n/a	n/a	-999	17	[-999, -999, -999]	n/a	FR1	0	R1299T
9689.292	7.052	2238811	PROB	7.052	n/a	n/a	-999	17	[6, 9, 1]	16	FR1	0	R1299T
9696.344	10.202	2245863	PROB	10.202	n/a	n/a	-999	17	[8, 7, 6]	21	FR1	0	R1299T
9706.546	7.677	2256064	PROB	7.677	n/a	n/a	-999	17	[1, 8, 2]	11	FR1	0	R1299T
9714.223	0.007	2263741	STOP	n/a	n/a	n/a	-999	17	[-999, -999, -999]	n/a	FR1	0	R1299T
9714.23	0.629	2263748	DISTRACT_END	n/a	n/a	n/a	-999	17	[0, 0, 0]	n/a	FR1	0	R1299T
9714.859	1.572	2264377	RETRIEVAL_ORIENT_START	n/a	n/a	n/a	-999	17	[0, 0, 0]	n/a	FR1	0	R1299T
9716.431	0.0	2265949	RETRIEVAL_ORIENT_END	n/a	n/a	n/a	-999	17	[0, 0, 0]	n/a	FR1	0	R1299T
9716.431	2.916	2265949	REC_START	n/a	n/a	n/a	-999	17	[0, 0, 0]	n/a	FR1	0	R1299T
9719.347	0.382	2268865	REC_WORD_VV	0.382	n/a	<>	-999	17	[0, 0, 0]	n/a	FR1	0	R1299T
9719.729	21.152	2269247	REC_WORD	21.152	n/a	HAWK	12	17	[0, 0, 0]	n/a	FR1	0	R1299T
9740.881	5.563	2290398	REC_WORD	5.563	n/a	FALL	-999	17	[0, 0, 0]	n/a	FR1	0	R1299T
9746.444	0.0	2295961	TRIAL_END	n/a	n/a	n/a	-999	17	[0, 0, 0]	n/a	FR1	0	R1299T
9746.444	0.015	2295961	REC_END	n/a	n/a	n/a	-999	17	[0, 0, 0]	n/a	FR1	0	R1299T
9746.459	0.0	2295976	TRIAL_START	n/a	n/a	n/a	-999	18	[0, 0, 0]	n/a	FR1	0	R1299T
9746.459	0.0	2295976	TRIAL	n/a	n/a	n/a	-999	18	[0, 0, 0]	n/a	FR1	0	R1299T
9746.459	5.661	2295976	WAITING_START	n/a	n/a	n/a	-999	18	[0, 0, 0]	n/a	FR1	0	R1299T
9752.12	0.0	2301636	WAITING_END	n/a	n/a	n/a	-999	18	[0, 0, 0]	n/a	FR1	0	R1299T
9752.12	10.429	2301636	COUNTDOWN_START	n/a	n/a	n/a	-999	18	[0, 0, 0]	n/a	FR1	0	R1299T
9762.549	0.0	2312065	COUNTDOWN_END	n/a	n/a	n/a	-999	18	[0, 0, 0]	n/a	FR1	0	R1299T
9762.549	1.223	2312065	ORIENT_START	n/a	n/a	n/a	-999	18	[0, 0, 0]	n/a	FR1	0	R1299T
9763.772	0.0	2313288	ENCODING_START	n/a	n/a	n/a	-999	18	[0, 0, 0]	n/a	FR1	0	R1299T
9763.772	1.123	2313288	ORIENT_END	n/a	n/a	n/a	-999	18	[0, 0, 0]	n/a	FR1	0	R1299T
9764.895	1.611	2314411	WORD	n/a	n/a	DRUM	1	18	[0, 0, 0]	n/a	FR1	0	R1299T
9766.506	0.873	2316022	WORD_OFF	n/a	n/a	DRUM	1	18	[0, 0, 0]	n/a	FR1	0	R1299T
9767.379	1.627	2316895	WORD	n/a	n/a	LOCK	2	18	[0, 0, 0]	n/a	FR1	0	R1299T
9769.006	0.83	2318522	WORD_OFF	n/a	n/a	LOCK	2	18	[0, 0, 0]	n/a	FR1	0	R1299T
9769.836	1.638	2319352	WORD	n/a	n/a	DRESS	3	18	[0, 0, 0]	n/a	FR1	0	R1299T
9771.474	1.013	2320990	WORD_OFF	n/a	n/a	DRESS	3	18	[0, 0, 0]	n/a	FR1	0	R1299T
9772.487	1.637	2322003	WORD	n/a	n/a	WALL	4	18	[0, 0, 0]	n/a	FR1	0	R1299T
9774.124	0.919	2323640	WORD_OFF	n/a	n/a	WALL	4	18	[0, 0, 0]	n/a	FR1	0	R1299T
9775.043	1.631	2324558	WORD	n/a	n/a	CANE	5	18	[0, 0, 0]	n/a	FR1	0	R1299T
9776.674	0.953	2326189	WORD_OFF	n/a	n/a	CANE	5	18	[0, 0, 0]	n/a	FR1	0	R1299T
9777.627	1.632	2327142	WORD	n/a	n/a	BALL	6	18	[0, 0, 0]	n/a	FR1	0	R1299T
9779.259	0.959	2328774	WORD_OFF	n/a	n/a	BALL	6	18	[0, 0, 0]	n/a	FR1	0	R1299T
9780.218	1.624	2329733	WORD	n/a	n/a	INK	7	18	[0, 0, 0]	n/a	FR1	0	R1299T
9781.842	1.052	2331357	WORD_OFF	n/a	n/a	INK	7	18	[0, 0, 0]	n/a	FR1	0	R1299T
9782.894	1.616	2332409	WORD	n/a	n/a	SCHOOL	8	18	[0, 0, 0]	n/a	FR1	0	R1299T
9784.51	1.037	2334025	WORD_OFF	n/a	n/a	SCHOOL	8	18	[0, 0, 0]	n/a	FR1	0	R1299T
9785.547	1.63	2335062	WORD	n/a	n/a	HEN	9	18	[0, 0, 0]	n/a	FR1	0	R1299T
9787.177	0.85	2336692	WORD_OFF	n/a	n/a	HEN	9	18	[0, 0, 0]	n/a	FR1	0	R1299T
9788.027	1.633	2337542	WORD	n/a	n/a	RICE	10	18	[0, 0, 0]	n/a	FR1	0	R1299T
9789.66	0.872	2339175	WORD_OFF	n/a	n/a	RICE	10	18	[0, 0, 0]	n/a	FR1	0	R1299T
9790.532	1.629	2340047	WORD	n/a	n/a	STEM	11	18	[0, 0, 0]	n/a	FR1	0	R1299T
9792.161	0.868	2341676	WORD_OFF	n/a	n/a	STEM	11	18	[0, 0, 0]	n/a	FR1	0	R1299T
9793.029	1.632	2342544	WORD	n/a	n/a	SEA	12	18	[0, 0, 0]	n/a	FR1	0	R1299T
9794.661	0.0	2344176	WORD_OFF	n/a	n/a	SEA	12	18	[0, 0, 0]	n/a	FR1	0	R1299T
9794.661	0.0	2344176	ENCODING_END	n/a	n/a	n/a	-999	18	[0, 0, 0]	n/a	FR1	0	R1299T
9794.661	0.001	2344176	DISTRACT_START	n/a	n/a	n/a	-999	18	[0, 0, 0]	n/a	FR1	0	R1299T
9794.662	0.015	2344177	START	n/a	n/a	n/a	-999	18	[-999, -999, -999]	n/a	FR1	0	R1299T
9794.677	10.737	2344192	PROB	10.737	n/a	n/a	-999	18	[9, 8, 9]	26	FR1	0	R1299T
9805.414	8.985	2354928	PROB	8.985	n/a	n/a	-999	18	[1, 3, 3]	7	FR1	0	R1299T
9814.399	8.495	2363913	PROB	8.495	n/a	n/a	-999	18	[3, 9, 2]	14	FR1	0	R1299T
9822.894	0.022	2372407	STOP	n/a	n/a	n/a	-999	18	[-999, -999, -999]	n/a	FR1	0	R1299T
9822.916	0.695	2372429	DISTRACT_END	n/a	n/a	n/a	-999	18	[0, 0, 0]	n/a	FR1	0	R1299T
9823.611	1.64	2373124	RETRIEVAL_ORIENT_START	n/a	n/a	n/a	-999	18	[0, 0, 0]	n/a	FR1	0	R1299T
9825.251	0.0	2374764	REC_START	n/a	n/a	n/a	-999	18	[0, 0, 0]	n/a	FR1	0	R1299T
9825.251	1.536	2374764	RETRIEVAL_ORIENT_END	n/a	n/a	n/a	-999	18	[0, 0, 0]	n/a	FR1	0	R1299T
9826.787	2.287	2376300	REC_WORD	2.287	n/a	DRUM	1	18	[0, 0, 0]	n/a	FR1	0	R1299T
9829.074	26.188	2378587	REC_WORD	26.188	n/a	SCHOOL	8	18	[0, 0, 0]	n/a	FR1	0	R1299T
9855.262	0.001	2404774	REC_END	n/a	n/a	n/a	-999	18	[0, 0, 0]	n/a	FR1	0	R1299T
9855.263	0.014	2404775	TRIAL_END	n/a	n/a	n/a	-999	18	[0, 0, 0]	n/a	FR1	0	R1299T
9855.277	0.001	2404789	TRIAL_START	n/a	n/a	n/a	-999	19	[0, 0, 0]	n/a	FR1	0	R1299T
9855.278	0.0	2404790	TRIAL	n/a	n/a	n/a	-999	19	[0, 0, 0]	n/a	FR1	0	R1299T
9855.278	4.979	2404790	WAITING_START	n/a	n/a	n/a	-999	19	[0, 0, 0]	n/a	FR1	0	R1299T
9860.257	0.0	2409769	COUNTDOWN_START	n/a	n/a	n/a	-999	19	[0, 0, 0]	n/a	FR1	0	R1299T
9860.257	10.43	2409769	WAITING_END	n/a	n/a	n/a	-999	19	[0, 0, 0]	n/a	FR1	0	R1299T
9870.687	0.0	2420198	COUNTDOWN_END	n/a	n/a	n/a	-999	19	[0, 0, 0]	n/a	FR1	0	R1299T
9870.687	1.054	2420198	ORIENT_START	n/a	n/a	n/a	-999	19	[0, 0, 0]	n/a	FR1	0	R1299T
9871.741	0.001	2421252	ORIENT_END	n/a	n/a	n/a	-999	19	[0, 0, 0]	n/a	FR1	0	R1299T
9871.742	0.825	2421253	ENCODING_START	n/a	n/a	n/a	-999	19	[0, 0, 0]	n/a	FR1	0	R1299T
9872.567	1.609	2422078	WORD	n/a	n/a	FORT	1	19	[0, 0, 0]	n/a	FR1	0	R1299T
9874.176	1.125	2423687	WORD_OFF	n/a	n/a	FORT	1	19	[0, 0, 0]	n/a	FR1	0	R1299T
9875.301	1.625	2424812	WORD	n/a	n/a	ROOM	2	19	[0, 0, 0]	n/a	FR1	0	R1299T
9876.926	1.137	2426437	WORD_OFF	n/a	n/a	ROOM	2	19	[0, 0, 0]	n/a	FR1	0	R1299T
9878.063	1.63	2427574	WORD	n/a	n/a	SHOE	3	19	[0, 0, 0]	n/a	FR1	0	R1299T
9879.693	0.784	2429204	WORD_OFF	n/a	n/a	SHOE	3	19	[0, 0, 0]	n/a	FR1	0	R1299T
9880.477	1.633	2429988	WORD	n/a	n/a	CAT	4	19	[0, 0, 0]	n/a	FR1	0	R1299T
9882.11	0.851	2431621	WORD_OFF	n/a	n/a	CAT	4	19	[0, 0, 0]	n/a	FR1	0	R1299T
9882.961	1.633	2432472	WORD	n/a	n/a	LAKE	5	19	[0, 0, 0]	n/a	FR1	0	R1299T
9884.594	1.044	2434105	WORD_OFF	n/a	n/a	LAKE	5	19	[0, 0, 0]	n/a	FR1	0	R1299T
9885.638	1.624	2435149	WORD	n/a	n/a	MUD	6	19	[0, 0, 0]	n/a	FR1	0	R1299T
9887.262	0.981	2436773	WORD_OFF	n/a	n/a	MUD	6	19	[0, 0, 0]	n/a	FR1	0	R1299T
9888.243	1.635	2437753	WORD	n/a	n/a	WORM	7	19	[0, 0, 0]	n/a	FR1	0	R1299T
9889.878	0.814	2439388	WORD_OFF	n/a	n/a	WORM	7	19	[0, 0, 0]	n/a	FR1	0	R1299T
9890.692	1.621	2440202	WORD	n/a	n/a	ROCK	8	19	[0, 0, 0]	n/a	FR1	0	R1299T
9892.313	1.113	2441823	WORD_OFF	n/a	n/a	ROCK	8	19	[0, 0, 0]	n/a	FR1	0	R1299T
9893.426	1.636	2442936	WORD	n/a	n/a	DESK	9	19	[0, 0, 0]	n/a	FR1	0	R1299T
9895.062	1.004	2444572	WORD_OFF	n/a	n/a	DESK	9	19	[0, 0, 0]	n/a	FR1	0	R1299T
9896.066	1.63	2445576	WORD	n/a	n/a	RIB	10	19	[0, 0, 0]	n/a	FR1	0	R1299T
9897.696	1.127	2447206	WORD_OFF	n/a	n/a	RIB	10	19	[0, 0, 0]	n/a	FR1	0	R1299T
9898.823	1.625	2448333	WORD	n/a	n/a	TRAIN	11	19	[0, 0, 0]	n/a	FR1	0	R1299T
9900.448	0.996	2449958	WORD_OFF	n/a	n/a	TRAIN	11	19	[0, 0, 0]	n/a	FR1	0	R1299T
9901.444	1.62	2450954	WORD	n/a	n/a	BED	12	19	[0, 0, 0]	n/a	FR1	0	R1299T
9903.064	0.0	2452574	ENCODING_END	n/a	n/a	n/a	-999	19	[0, 0, 0]	n/a	FR1	0	R1299T
9903.064	0.001	2452574	WORD_OFF	n/a	n/a	BED	12	19	[0, 0, 0]	n/a	FR1	0	R1299T
9903.065	0.0	2452575	DISTRACT_START	n/a	n/a	n/a	-999	19	[0, 0, 0]	n/a	FR1	0	R1299T
9903.065	0.015	2452575	START	n/a	n/a	n/a	-999	19	[-999, -999, -999]	n/a	FR1	0	R1299T
9903.08	7.568	2452590	PROB	7.568	n/a	n/a	-999	19	[3, 2, 8]	13	FR1	0	R1299T
9910.648	11.62	2460158	PROB	11.62	n/a	n/a	-999	19	[3, 8, 6]	17	FR1	0	R1299T
9922.268	9.968	2471777	PROB	9.968	n/a	n/a	-999	19	[7, 2, 1]	10	FR1	0	R1299T
9932.236	0.018	2481745	STOP	n/a	n/a	n/a	-999	19	[-999, -999, -999]	n/a	FR1	0	R1299T
9932.254	0.6	2481763	DISTRACT_END	n/a	n/a	n/a	-999	19	[0, 0, 0]	n/a	FR1	0	R1299T
9932.854	1.667	2482363	RETRIEVAL_ORIENT_START	n/a	n/a	n/a	-999	19	[0, 0, 0]	n/a	FR1	0	R1299T
9934.521	0.0	2484029	RETRIEVAL_ORIENT_END	n/a	n/a	n/a	-999	19	[0, 0, 0]	n/a	FR1	0	R1299T
9934.521	1.336	2484029	REC_START	n/a	n/a	n/a	-999	19	[0, 0, 0]	n/a	FR1	0	R1299T
9935.857	0.779	2485365	REC_WORD_VV	0.779	n/a	<>	-999	19	[0, 0, 0]	n/a	FR1	0	R1299T
9936.636	1.0	2486144	REC_WORD	1.0	n/a	FORT	1	19	[0, 0, 0]	n/a	FR1	0	R1299T
9937.636	8.502	2487144	REC_WORD_VV	8.502	n/a	<>	-999	19	[0, 0, 0]	n/a	FR1	0	R1299T
9946.138	8.547	2495646	REC_WORD_VV	8.547	n/a	<>	-999	19	[0, 0, 0]	n/a	FR1	0	R1299T
9954.685	9.848	2504193	REC_WORD	9.848	n/a	WORM	7	19	[0, 0, 0]	n/a	FR1	0	R1299T
9964.533	0.0	2514040	REC_END	n/a	n/a	n/a	-999	19	[0, 0, 0]	n/a	FR1	0	R1299T
9964.533	0.013	2514040	TRIAL_END	n/a	n/a	n/a	-999	19	[0, 0, 0]	n/a	FR1	0	R1299T
9964.546	0.001	2514053	TRIAL_START	n/a	n/a	n/a	-999	20	[0, 0, 0]	n/a	FR1	0	R1299T
9964.547	0.0	2514054	TRIAL	n/a	n/a	n/a	-999	20	[0, 0, 0]	n/a	FR1	0	R1299T
9964.547	6.714	2514054	WAITING_START	n/a	n/a	n/a	-999	20	[0, 0, 0]	n/a	FR1	0	R1299T
9971.261	0.0	2520768	WAITING_END	n/a	n/a	n/a	-999	20	[0, 0, 0]	n/a	FR1	0	R1299T
9971.261	10.429	2520768	COUNTDOWN_START	n/a	n/a	n/a	-999	20	[0, 0, 0]	n/a	FR1	0	R1299T
9981.69	0.0	2531196	ORIENT_START	n/a	n/a	n/a	-999	20	[0, 0, 0]	n/a	FR1	0	R1299T
9981.69	1.172	2531196	COUNTDOWN_END	n/a	n/a	n/a	-999	20	[0, 0, 0]	n/a	FR1	0	R1299T
9982.862	0.0	2532368	ORIENT_END	n/a	n/a	n/a	-999	20	[0, 0, 0]	n/a	FR1	0	R1299T
9982.862	1.027	2532368	ENCODING_START	n/a	n/a	n/a	-999	20	[0, 0, 0]	n/a	FR1	0	R1299T
9983.889	1.624	2533395	WORD	n/a	n/a	SLEEVE	1	20	[0, 0, 0]	n/a	FR1	0	R1299T
9985.513	0.786	2535019	WORD_OFF	n/a	n/a	SLEEVE	1	20	[0, 0, 0]	n/a	FR1	0	R1299T
9986.299	1.63	2535805	WORD	n/a	n/a	MULE	2	20	[0, 0, 0]	n/a	FR1	0	R1299T
9987.929	0.976	2537435	WORD_OFF	n/a	n/a	MULE	2	20	[0, 0, 0]	n/a	FR1	0	R1299T
9988.905	1.626	2538411	WORD	n/a	n/a	BARN	3	20	[0, 0, 0]	n/a	FR1	0	R1299T
9990.531	0.797	2540037	WORD_OFF	n/a	n/a	BARN	3	20	[0, 0, 0]	n/a	FR1	0	R1299T
9991.328	1.636	2540834	WORD	n/a	n/a	BREAD	4	20	[0, 0, 0]	n/a	FR1	0	R1299T
9992.964	1.074	2542470	WORD_OFF	n/a	n/a	BREAD	4	20	[0, 0, 0]	n/a	FR1	0	R1299T
9994.038	1.626	2543544	WORD	n/a	n/a	WHALE	5	20	[0, 0, 0]	n/a	FR1	0	R1299T
9995.664	0.79	2545170	WORD_OFF	n/a	n/a	WHALE	5	20	[0, 0, 0]	n/a	FR1	0	R1299T
9996.454	1.627	2545960	WORD	n/a	n/a	CAPE	6	20	[0, 0, 0]	n/a	FR1	0	R1299T
9998.081	1.026	2547587	WORD_OFF	n/a	n/a	CAPE	6	20	[0, 0, 0]	n/a	FR1	0	R1299T
9999.107	1.625	2548613	WORD	n/a	n/a	JUDGE	7	20	[0, 0, 0]	n/a	FR1	0	R1299T
10000.732	0.77	2550238	WORD_OFF	n/a	n/a	JUDGE	7	20	[0, 0, 0]	n/a	FR1	0	R1299T
10001.502	1.63	2551008	WORD	n/a	n/a	FISH	8	20	[0, 0, 0]	n/a	FR1	0	R1299T
10003.132	0.941	2552637	WORD_OFF	n/a	n/a	FISH	8	20	[0, 0, 0]	n/a	FR1	0	R1299T
10004.073	1.626	2553578	WORD	n/a	n/a	MAT	9	20	[0, 0, 0]	n/a	FR1	0	R1299T
10005.699	0.818	2555204	WORD_OFF	n/a	n/a	MAT	9	20	[0, 0, 0]	n/a	FR1	0	R1299T
10006.517	1.634	2556022	WORD	n/a	n/a	STORE	10	20	[0, 0, 0]	n/a	FR1	0	R1299T
10008.151	0.81	2557656	WORD_OFF	n/a	n/a	STORE	10	20	[0, 0, 0]	n/a	FR1	0	R1299T
10008.961	1.607	2558466	WORD	n/a	n/a	WEB	11	20	[0, 0, 0]	n/a	FR1	0	R1299T
10010.568	0.805	2560073	WORD_OFF	n/a	n/a	WEB	11	20	[0, 0, 0]	n/a	FR1	0	R1299T
10011.373	1.628	2560878	WORD	n/a	n/a	AXE	12	20	[0, 0, 0]	n/a	FR1	0	R1299T
10013.001	0.0	2562506	ENCODING_END	n/a	n/a	n/a	-999	20	[0, 0, 0]	n/a	FR1	0	R1299T
10013.001	0.0	2562506	DISTRACT_START	n/a	n/a	n/a	-999	20	[0, 0, 0]	n/a	FR1	0	R1299T
10013.001	0.0	2562506	WORD_OFF	n/a	n/a	AXE	12	20	[0, 0, 0]	n/a	FR1	0	R1299T
10013.001	0.016	2562506	START	n/a	n/a	n/a	-999	20	[-999, -999, -999]	n/a	FR1	0	R1299T
10013.017	5.751	2562522	PROB	5.751	n/a	n/a	-999	20	[9, 5, 1]	15	FR1	0	R1299T
10018.768	9.519	2568273	PROB	9.519	n/a	n/a	-999	20	[9, 3, 8]	20	FR1	0	R1299T
10028.287	9.134	2577791	PROB	9.134	n/a	n/a	-999	20	[3, 9, 5]	17	FR1	0	R1299T
10037.421	0.018	2586925	STOP	n/a	n/a	n/a	-999	20	[-999, -999, -999]	n/a	FR1	0	R1299T
10037.439	0.579	2586943	DISTRACT_END	n/a	n/a	n/a	-999	20	[0, 0, 0]	n/a	FR1	0	R1299T
10038.018	1.604	2587522	RETRIEVAL_ORIENT_START	n/a	n/a	n/a	-999	20	[0, 0, 0]	n/a	FR1	0	R1299T
10039.622	0.0	2589126	RETRIEVAL_ORIENT_END	n/a	n/a	n/a	-999	20	[0, 0, 0]	n/a	FR1	0	R1299T
10039.622	1.397	2589126	REC_START	n/a	n/a	n/a	-999	20	[0, 0, 0]	n/a	FR1	0	R1299T
10041.019	0.652	2590523	REC_WORD_VV	0.652	n/a	<>	-999	20	[0, 0, 0]	n/a	FR1	0	R1299T
10041.671	21.993	2591175	REC_WORD	21.993	n/a	JUDGE	7	20	[0, 0, 0]	n/a	FR1	0	R1299T
10063.664	1.0	2613167	REC_WORD	1.0	n/a	SCHOOL	-999	20	[0, 0, 0]	n/a	FR1	0	R1299T
10064.664	4.972	2614167	REC_WORD_VV	4.972	n/a	<>	-999	20	[0, 0, 0]	n/a	FR1	0	R1299T
10069.636	0.0	2619139	TRIAL_END	n/a	n/a	n/a	-999	20	[0, 0, 0]	n/a	FR1	0	R1299T
10069.636	0.015	2619139	REC_END	n/a	n/a	n/a	-999	20	[0, 0, 0]	n/a	FR1	0	R1299T
10069.651	0.0	2619154	TRIAL_START	n/a	n/a	n/a	-999	21	[0, 0, 0]	n/a	FR1	0	R1299T
10069.651	0.0	2619154	TRIAL	n/a	n/a	n/a	-999	21	[0, 0, 0]	n/a	FR1	0	R1299T
10069.651	6.779	2619154	WAITING_START	n/a	n/a	n/a	-999	21	[0, 0, 0]	n/a	FR1	0	R1299T
10076.43	0.0	2625932	WAITING_END	n/a	n/a	n/a	-999	21	[0, 0, 0]	n/a	FR1	0	R1299T
10076.43	10.428	2625932	COUNTDOWN_START	n/a	n/a	n/a	-999	21	[0, 0, 0]	n/a	FR1	0	R1299T
10086.858	0.0	2636360	COUNTDOWN_END	n/a	n/a	n/a	-999	21	[0, 0, 0]	n/a	FR1	0	R1299T
10086.858	1.073	2636360	ORIENT_START	n/a	n/a	n/a	-999	21	[0, 0, 0]	n/a	FR1	0	R1299T
10087.931	0.0	2637433	ENCODING_START	n/a	n/a	n/a	-999	21	[0, 0, 0]	n/a	FR1	0	R1299T
10087.931	0.836	2637433	ORIENT_END	n/a	n/a	n/a	-999	21	[0, 0, 0]	n/a	FR1	0	R1299T
10088.767	1.632	2638269	WORD	n/a	n/a	BAND	1	21	[0, 0, 0]	n/a	FR1	0	R1299T
10090.399	1.05	2639901	WORD_OFF	n/a	n/a	BAND	1	21	[0, 0, 0]	n/a	FR1	0	R1299T
10091.449	1.633	2640951	WORD	n/a	n/a	CAR	2	21	[0, 0, 0]	n/a	FR1	0	R1299T
10093.082	1.079	2642583	WORD_OFF	n/a	n/a	CAR	2	21	[0, 0, 0]	n/a	FR1	0	R1299T
10094.161	1.621	2643662	WORD	n/a	n/a	WOOD	3	21	[0, 0, 0]	n/a	FR1	0	R1299T
10095.782	0.899	2645283	WORD_OFF	n/a	n/a	WOOD	3	21	[0, 0, 0]	n/a	FR1	0	R1299T
10096.681	1.619	2646182	WORD	n/a	n/a	LIP	4	21	[0, 0, 0]	n/a	FR1	0	R1299T
10098.3	0.786	2647801	WORD_OFF	n/a	n/a	LIP	4	21	[0, 0, 0]	n/a	FR1	0	R1299T
10099.086	1.631	2648587	WORD	n/a	n/a	HOUSE	5	21	[0, 0, 0]	n/a	FR1	0	R1299T
10100.717	1.013	2650218	WORD_OFF	n/a	n/a	HOUSE	5	21	[0, 0, 0]	n/a	FR1	0	R1299T
10101.73	1.621	2651231	WORD	n/a	n/a	ICE	6	21	[0, 0, 0]	n/a	FR1	0	R1299T
10103.351	1.024	2652852	WORD_OFF	n/a	n/a	ICE	6	21	[0, 0, 0]	n/a	FR1	0	R1299T
10104.375	1.626	2653876	WORD	n/a	n/a	BRUSH	7	21	[0, 0, 0]	n/a	FR1	0	R1299T
10106.001	0.813	2655502	WORD_OFF	n/a	n/a	BRUSH	7	21	[0, 0, 0]	n/a	FR1	0	R1299T
10106.814	1.638	2656315	WORD	n/a	n/a	EGG	8	21	[0, 0, 0]	n/a	FR1	0	R1299T
10108.452	0.949	2657953	WORD_OFF	n/a	n/a	EGG	8	21	[0, 0, 0]	n/a	FR1	0	R1299T
10109.401	1.634	2658902	WORD	n/a	n/a	SKI	9	21	[0, 0, 0]	n/a	FR1	0	R1299T
10111.035	1.134	2660536	WORD_OFF	n/a	n/a	SKI	9	21	[0, 0, 0]	n/a	FR1	0	R1299T
10112.169	1.633	2661670	WORD	n/a	n/a	SKY	10	21	[0, 0, 0]	n/a	FR1	0	R1299T
10113.802	1.044	2663303	WORD_OFF	n/a	n/a	SKY	10	21	[0, 0, 0]	n/a	FR1	0	R1299T
10114.846	1.608	2664347	WORD	n/a	n/a	COW	11	21	[0, 0, 0]	n/a	FR1	0	R1299T
10116.454	0.768	2665954	WORD_OFF	n/a	n/a	COW	11	21	[0, 0, 0]	n/a	FR1	0	R1299T
10117.222	1.631	2666722	WORD	n/a	n/a	GLOVE	12	21	[0, 0, 0]	n/a	FR1	0	R1299T
10118.853	0.0	2668353	WORD_OFF	n/a	n/a	GLOVE	12	21	[0, 0, 0]	n/a	FR1	0	R1299T
10118.853	0.001	2668353	ENCODING_END	n/a	n/a	n/a	-999	21	[0, 0, 0]	n/a	FR1	0	R1299T
10118.854	0.0	2668354	DISTRACT_START	n/a	n/a	n/a	-999	21	[0, 0, 0]	n/a	FR1	0	R1299T
10118.854	0.016	2668354	START	n/a	n/a	n/a	-999	21	[-999, -999, -999]	n/a	FR1	0	R1299T
10118.87	5.302	2668370	PROB	5.302	n/a	n/a	-999	21	[5, 2, 1]	8	FR1	0	R1299T
10124.172	6.516	2673672	PROB	6.516	n/a	n/a	-999	21	[1, 9, 8]	18	FR1	0	R1299T
10130.688	9.442	2680188	PROB	9.442	n/a	n/a	-999	21	[4, 2, 9]	15	FR1	0	R1299T
10140.13	0.011	2689629	STOP	n/a	n/a	n/a	-999	21	[-999, -999, -999]	n/a	FR1	0	R1299T
10140.141	0.599	2689640	DISTRACT_END	n/a	n/a	n/a	-999	21	[0, 0, 0]	n/a	FR1	0	R1299T
10140.74	1.685	2690239	RETRIEVAL_ORIENT_START	n/a	n/a	n/a	-999	21	[0, 0, 0]	n/a	FR1	0	R1299T
10142.425	0.0	2691924	RETRIEVAL_ORIENT_END	n/a	n/a	n/a	-999	21	[0, 0, 0]	n/a	FR1	0	R1299T
10142.425	1.868	2691924	REC_START	n/a	n/a	n/a	-999	21	[0, 0, 0]	n/a	FR1	0	R1299T
10144.293	0.44	2693792	REC_WORD_VV	0.44	n/a	<>	-999	21	[0, 0, 0]	n/a	FR1	0	R1299T
10144.733	2.676	2694232	REC_WORD	2.676	n/a	BAND	1	21	[0, 0, 0]	n/a	FR1	0	R1299T
10147.409	9.032	2696908	REC_WORD	9.032	n/a	LIP	4	21	[0, 0, 0]	n/a	FR1	0	R1299T
10156.441	12.865	2705940	REC_WORD	12.865	n/a	WOOD	3	21	[0, 0, 0]	n/a	FR1	0	R1299T
10169.306	3.132	2718804	REC_WORD	3.132	n/a	CAR	2	21	[0, 0, 0]	n/a	FR1	0	R1299T
10172.438	0.0	2721936	TRIAL_END	n/a	n/a	n/a	-999	21	[0, 0, 0]	n/a	FR1	0	R1299T
10172.438	0.014	2721936	REC_END	n/a	n/a	n/a	-999	21	[0, 0, 0]	n/a	FR1	0	R1299T
10172.452	0.0	2721950	TRIAL_START	n/a	n/a	n/a	-999	22	[0, 0, 0]	n/a	FR1	0	R1299T
10172.452	0.0	2721950	TRIAL	n/a	n/a	n/a	-999	22	[0, 0, 0]	n/a	FR1	0	R1299T
10172.452	5.079	2721950	WAITING_START	n/a	n/a	n/a	-999	22	[0, 0, 0]	n/a	FR1	0	R1299T
10177.531	0.001	2727029	WAITING_END	n/a	n/a	n/a	-999	22	[0, 0, 0]	n/a	FR1	0	R1299T
10177.532	10.429	2727030	COUNTDOWN_START	n/a	n/a	n/a	-999	22	[0, 0, 0]	n/a	FR1	0	R1299T
10187.961	0.0	2737458	COUNTDOWN_END	n/a	n/a	n/a	-999	22	[0, 0, 0]	n/a	FR1	0	R1299T
10187.961	1.038	2737458	ORIENT_START	n/a	n/a	n/a	-999	22	[0, 0, 0]	n/a	FR1	0	R1299T
10188.999	0.001	2738496	ORIENT_END	n/a	n/a	n/a	-999	22	[0, 0, 0]	n/a	FR1	0	R1299T
10189.0	0.977	2738497	ENCODING_START	n/a	n/a	n/a	-999	22	[0, 0, 0]	n/a	FR1	0	R1299T
10189.977	1.623	2739474	WORD	n/a	n/a	CUP	1	22	[0, 0, 0]	n/a	FR1	0	R1299T
10191.6	0.828	2741097	WORD_OFF	n/a	n/a	CUP	1	22	[0, 0, 0]	n/a	FR1	0	R1299T
10192.428	1.622	2741925	WORD	n/a	n/a	SOAP	2	22	[0, 0, 0]	n/a	FR1	0	R1299T
10194.05	1.065	2743547	WORD_OFF	n/a	n/a	SOAP	2	22	[0, 0, 0]	n/a	FR1	0	R1299T
10195.115	1.636	2744612	WORD	n/a	n/a	CUBE	3	22	[0, 0, 0]	n/a	FR1	0	R1299T
10196.751	0.821	2746248	WORD_OFF	n/a	n/a	CUBE	3	22	[0, 0, 0]	n/a	FR1	0	R1299T
10197.572	1.63	2747069	WORD	n/a	n/a	SHEEP	4	22	[0, 0, 0]	n/a	FR1	0	R1299T
10199.202	1.129	2748699	WORD_OFF	n/a	n/a	SHEEP	4	22	[0, 0, 0]	n/a	FR1	0	R1299T
10200.331	1.621	2749828	WORD	n/a	n/a	PLATE	5	22	[0, 0, 0]	n/a	FR1	0	R1299T
10201.952	1.067	2751449	WORD_OFF	n/a	n/a	PLATE	5	22	[0, 0, 0]	n/a	FR1	0	R1299T
10203.019	1.633	2752516	WORD	n/a	n/a	PEA	6	22	[0, 0, 0]	n/a	FR1	0	R1299T
10204.652	0.821	2754149	WORD_OFF	n/a	n/a	PEA	6	22	[0, 0, 0]	n/a	FR1	0	R1299T
10205.473	1.63	2754970	WORD	n/a	n/a	ROAD	7	22	[0, 0, 0]	n/a	FR1	0	R1299T
10207.103	1.091	2756599	WORD_OFF	n/a	n/a	ROAD	7	22	[0, 0, 0]	n/a	FR1	0	R1299T
10208.194	1.626	2757690	WORD	n/a	n/a	NEST	8	22	[0, 0, 0]	n/a	FR1	0	R1299T
10209.82	0.78	2759316	WORD_OFF	n/a	n/a	NEST	8	22	[0, 0, 0]	n/a	FR1	0	R1299T
10210.6	1.638	2760096	WORD	n/a	n/a	VASE	9	22	[0, 0, 0]	n/a	FR1	0	R1299T
10212.238	0.954	2761734	WORD_OFF	n/a	n/a	VASE	9	22	[0, 0, 0]	n/a	FR1	0	R1299T
10213.192	1.629	2762688	WORD	n/a	n/a	BOY	10	22	[0, 0, 0]	n/a	FR1	0	R1299T
10214.821	0.855	2764317	WORD_OFF	n/a	n/a	BOY	10	22	[0, 0, 0]	n/a	FR1	0	R1299T
10215.676	1.629	2765172	WORD	n/a	n/a	DITCH	11	22	[0, 0, 0]	n/a	FR1	0	R1299T
10217.305	0.913	2766801	WORD_OFF	n/a	n/a	DITCH	11	22	[0, 0, 0]	n/a	FR1	0	R1299T
10218.218	1.62	2767714	WORD	n/a	n/a	OAR	12	22	[0, 0, 0]	n/a	FR1	0	R1299T
10219.838	0.001	2769334	WORD_OFF	n/a	n/a	OAR	12	22	[0, 0, 0]	n/a	FR1	0	R1299T
10219.839	0.0	2769335	ENCODING_END	n/a	n/a	n/a	-999	22	[0, 0, 0]	n/a	FR1	0	R1299T
10219.839	0.0	2769335	DISTRACT_START	n/a	n/a	n/a	-999	22	[0, 0, 0]	n/a	FR1	0	R1299T
10219.839	0.016	2769335	START	n/a	n/a	n/a	-999	22	[-999, -999, -999]	n/a	FR1	0	R1299T
10219.855	5.884	2769351	PROB	5.884	n/a	n/a	-999	22	[8, 1, 7]	16	FR1	0	R1299T
10225.739	8.503	2775235	PROB	8.503	n/a	n/a	-999	22	[9, 6, 6]	21	FR1	0	R1299T
10234.242	10.171	2783737	PROB	10.171	n/a	n/a	-999	22	[9, 4, 8]	21	FR1	0	R1299T
10244.413	0.014	2793908	STOP	n/a	n/a	n/a	-999	22	[-999, -999, -999]	n/a	FR1	0	R1299T
10244.427	0.561	2793922	DISTRACT_END	n/a	n/a	n/a	-999	22	[0, 0, 0]	n/a	FR1	0	R1299T
10244.988	1.705	2794483	RETRIEVAL_ORIENT_START	n/a	n/a	n/a	-999	22	[0, 0, 0]	n/a	FR1	0	R1299T
10246.693	0.0	2796188	REC_START	n/a	n/a	n/a	-999	22	[0, 0, 0]	n/a	FR1	0	R1299T
10246.693	5.527	2796188	RETRIEVAL_ORIENT_END	n/a	n/a	n/a	-999	22	[0, 0, 0]	n/a	FR1	0	R1299T
10252.22	8.261	2801714	REC_WORD_VV	8.261	n/a	<>	-999	22	[0, 0, 0]	n/a	FR1	0	R1299T
10260.481	1.0	2809975	REC_WORD	1.0	n/a	SHIELD	-999	22	[0, 0, 0]	n/a	FR1	0	R1299T
10261.481	1.474	2810975	REC_WORD_VV	1.474	n/a	<>	-999	22	[0, 0, 0]	n/a	FR1	0	R1299T
10262.955	13.752	2812449	REC_WORD_VV	13.752	n/a	<>	-999	22	[0, 0, 0]	n/a	FR1	0	R1299T
10276.707	0.0	2826200	REC_END	n/a	n/a	n/a	-999	22	[0, 0, 0]	n/a	FR1	0	R1299T
10276.707	0.013	2826200	TRIAL_END	n/a	n/a	n/a	-999	22	[0, 0, 0]	n/a	FR1	0	R1299T
10276.72	0.001	2826213	TRIAL_START	n/a	n/a	n/a	-999	23	[0, 0, 0]	n/a	FR1	0	R1299T
10276.721	0.0	2826214	WAITING_START	n/a	n/a	n/a	-999	23	[0, 0, 0]	n/a	FR1	0	R1299T
10276.721	16.314	2826214	TRIAL	n/a	n/a	n/a	-999	23	[0, 0, 0]	n/a	FR1	0	R1299T
10293.035	0.0	2842528	WAITING_END	n/a	n/a	n/a	-999	23	[0, 0, 0]	n/a	FR1	0	R1299T
10293.035	10.43	2842528	COUNTDOWN_START	n/a	n/a	n/a	-999	23	[0, 0, 0]	n/a	FR1	0	R1299T
10303.465	0.001	2852957	COUNTDOWN_END	n/a	n/a	n/a	-999	23	[0, 0, 0]	n/a	FR1	0	R1299T
10303.466	1.254	2852958	ORIENT_START	n/a	n/a	n/a	-999	23	[0, 0, 0]	n/a	FR1	0	R1299T
10304.72	0.001	2854212	ORIENT_END	n/a	n/a	n/a	-999	23	[0, 0, 0]	n/a	FR1	0	R1299T
10304.721	0.799	2854213	ENCODING_START	n/a	n/a	n/a	-999	23	[0, 0, 0]	n/a	FR1	0	R1299T
10305.52	1.635	2855012	WORD	n/a	n/a	WING	1	23	[0, 0, 0]	n/a	FR1	0	R1299T
10307.155	1.091	2856647	WORD_OFF	n/a	n/a	WING	1	23	[0, 0, 0]	n/a	FR1	0	R1299T
10308.246	1.625	2857738	WORD	n/a	n/a	CHIEF	2	23	[0, 0, 0]	n/a	FR1	0	R1299T
10309.871	0.845	2859363	WORD_OFF	n/a	n/a	CHIEF	2	23	[0, 0, 0]	n/a	FR1	0	R1299T
10310.716	1.606	2860208	WORD	n/a	n/a	GEESE	3	23	[0, 0, 0]	n/a	FR1	0	R1299T
10312.322	0.984	2861814	WORD_OFF	n/a	n/a	GEESE	3	23	[0, 0, 0]	n/a	FR1	0	R1299T
10313.306	1.633	2862798	WORD	n/a	n/a	STRING	4	23	[0, 0, 0]	n/a	FR1	0	R1299T
10314.939	0.769	2864431	WORD_OFF	n/a	n/a	STRING	4	23	[0, 0, 0]	n/a	FR1	0	R1299T
10315.708	1.616	2865200	WORD	n/a	n/a	PASTE	5	23	[0, 0, 0]	n/a	FR1	0	R1299T
10317.324	0.893	2866816	WORD_OFF	n/a	n/a	PASTE	5	23	[0, 0, 0]	n/a	FR1	0	R1299T
10318.217	1.623	2867709	WORD	n/a	n/a	RAKE	6	23	[0, 0, 0]	n/a	FR1	0	R1299T
10319.84	0.922	2869332	WORD_OFF	n/a	n/a	RAKE	6	23	[0, 0, 0]	n/a	FR1	0	R1299T
10320.762	1.629	2870253	WORD	n/a	n/a	JET	7	23	[0, 0, 0]	n/a	FR1	0	R1299T
10322.391	0.837	2871882	WORD_OFF	n/a	n/a	JET	7	23	[0, 0, 0]	n/a	FR1	0	R1299T
10323.228	1.629	2872719	WORD	n/a	n/a	SWAMP	8	23	[0, 0, 0]	n/a	FR1	0	R1299T
10324.857	0.769	2874348	WORD_OFF	n/a	n/a	SWAMP	8	23	[0, 0, 0]	n/a	FR1	0	R1299T
10325.626	1.633	2875117	WORD	n/a	n/a	BOWL	9	23	[0, 0, 0]	n/a	FR1	0	R1299T
10327.259	0.809	2876750	WORD_OFF	n/a	n/a	BOWL	9	23	[0, 0, 0]	n/a	FR1	0	R1299T
10328.068	1.624	2877559	WORD	n/a	n/a	OAK	10	23	[0, 0, 0]	n/a	FR1	0	R1299T
10329.692	1.034	2879183	WORD_OFF	n/a	n/a	OAK	10	23	[0, 0, 0]	n/a	FR1	0	R1299T
10330.726	1.634	2880217	WORD	n/a	n/a	HOLE	11	23	[0, 0, 0]	n/a	FR1	0	R1299T
10332.36	1.047	2881851	WORD_OFF	n/a	n/a	HOLE	11	23	[0, 0, 0]	n/a	FR1	0	R1299T
10333.407	1.635	2882898	WORD	n/a	n/a	SHIRT	12	23	[0, 0, 0]	n/a	FR1	0	R1299T
10335.042	0.001	2884533	WORD_OFF	n/a	n/a	SHIRT	12	23	[0, 0, 0]	n/a	FR1	0	R1299T
10335.043	0.0	2884534	ENCODING_END	n/a	n/a	n/a	-999	23	[0, 0, 0]	n/a	FR1	0	R1299T
10335.043	0.0	2884534	DISTRACT_START	n/a	n/a	n/a	-999	23	[0, 0, 0]	n/a	FR1	0	R1299T
10335.043	0.016	2884534	START	n/a	n/a	n/a	-999	23	[-999, -999, -999]	n/a	FR1	0	R1299T
10335.059	6.518	2884550	PROB	6.518	n/a	n/a	-999	23	[6, 5, 1]	12	FR1	0	R1299T
10341.577	5.768	2891068	PROB	5.768	n/a	n/a	-999	23	[1, 1, 5]	7	FR1	0	R1299T
10347.345	6.534	2896835	PROB	6.534	n/a	n/a	-999	23	[8, 9, 7]	24	FR1	0	R1299T
10353.879	8.583	2903369	PROB	8.583	n/a	n/a	-999	23	[4, 1, 2]	7	FR1	0	R1299T
10362.462	0.02	2911952	STOP	n/a	n/a	n/a	-999	23	[-999, -999, -999]	n/a	FR1	0	R1299T
10362.482	0.641	2911972	DISTRACT_END	n/a	n/a	n/a	-999	23	[0, 0, 0]	n/a	FR1	0	R1299T
10363.123	1.575	2912613	RETRIEVAL_ORIENT_START	n/a	n/a	n/a	-999	23	[0, 0, 0]	n/a	FR1	0	R1299T
10364.698	0.0	2914188	RETRIEVAL_ORIENT_END	n/a	n/a	n/a	-999	23	[0, 0, 0]	n/a	FR1	0	R1299T
10364.698	1.226	2914188	REC_START	n/a	n/a	n/a	-999	23	[0, 0, 0]	n/a	FR1	0	R1299T
10365.924	2.247	2915413	REC_WORD	2.247	n/a	SWAMP	8	23	[0, 0, 0]	n/a	FR1	0	R1299T
10368.171	2.215	2917660	REC_WORD	2.215	n/a	HOLE	11	23	[0, 0, 0]	n/a	FR1	0	R1299T
10370.386	24.324	2919875	REC_WORD	24.324	n/a	SHIRT	12	23	[0, 0, 0]	n/a	FR1	0	R1299T
10394.71	0.0	2944198	REC_END	n/a	n/a	n/a	-999	23	[0, 0, 0]	n/a	FR1	0	R1299T
10394.71	0.015	2944198	TRIAL_END	n/a	n/a	n/a	-999	23	[0, 0, 0]	n/a	FR1	0	R1299T
10394.725	0.001	2944213	TRIAL_START	n/a	n/a	n/a	-999	24	[0, 0, 0]	n/a	FR1	0	R1299T
10394.726	0.0	2944214	TRIAL	n/a	n/a	n/a	-999	24	[0, 0, 0]	n/a	FR1	0	R1299T
10394.726	2.995	2944214	WAITING_START	n/a	n/a	n/a	-999	24	[0, 0, 0]	n/a	FR1	0	R1299T
10397.721	0.0	2947209	WAITING_END	n/a	n/a	n/a	-999	24	[0, 0, 0]	n/a	FR1	0	R1299T
10397.721	10.429	2947209	COUNTDOWN_START	n/a	n/a	n/a	-999	24	[0, 0, 0]	n/a	FR1	0	R1299T
10408.15	0.0	2957638	ORIENT_START	n/a	n/a	n/a	-999	24	[0, 0, 0]	n/a	FR1	0	R1299T
10408.15	1.024	2957638	COUNTDOWN_END	n/a	n/a	n/a	-999	24	[0, 0, 0]	n/a	FR1	0	R1299T
10409.174	0.0	2958662	ORIENT_END	n/a	n/a	n/a	-999	24	[0, 0, 0]	n/a	FR1	0	R1299T
10409.174	0.871	2958662	ENCODING_START	n/a	n/a	n/a	-999	24	[0, 0, 0]	n/a	FR1	0	R1299T
10410.045	1.628	2959533	WORD	n/a	n/a	TIE	1	24	[0, 0, 0]	n/a	FR1	0	R1299T
10411.673	1.026	2961160	WORD_OFF	n/a	n/a	TIE	1	24	[0, 0, 0]	n/a	FR1	0	R1299T
10412.699	1.626	2962186	WORD	n/a	n/a	CAGE	2	24	[0, 0, 0]	n/a	FR1	0	R1299T
10414.325	0.936	2963812	WORD_OFF	n/a	n/a	CAGE	2	24	[0, 0, 0]	n/a	FR1	0	R1299T
10415.261	1.63	2964748	WORD	n/a	n/a	CORD	3	24	[0, 0, 0]	n/a	FR1	0	R1299T
10416.891	0.987	2966378	WORD_OFF	n/a	n/a	CORD	3	24	[0, 0, 0]	n/a	FR1	0	R1299T
10417.878	1.631	2967365	WORD	n/a	n/a	SHRIMP	4	24	[0, 0, 0]	n/a	FR1	0	R1299T
10419.509	0.844	2968996	WORD_OFF	n/a	n/a	SHRIMP	4	24	[0, 0, 0]	n/a	FR1	0	R1299T
10420.353	1.622	2969840	WORD	n/a	n/a	PLANT	5	24	[0, 0, 0]	n/a	FR1	0	R1299T
10421.975	0.88	2971462	WORD_OFF	n/a	n/a	PLANT	5	24	[0, 0, 0]	n/a	FR1	0	R1299T
10422.855	1.638	2972342	WORD	n/a	n/a	MOLE	6	24	[0, 0, 0]	n/a	FR1	0	R1299T
10424.493	0.956	2973980	WORD_OFF	n/a	n/a	MOLE	6	24	[0, 0, 0]	n/a	FR1	0	R1299T
10425.449	1.627	2974936	WORD	n/a	n/a	VAN	7	24	[0, 0, 0]	n/a	FR1	0	R1299T
10427.076	0.92	2976563	WORD_OFF	n/a	n/a	VAN	7	24	[0, 0, 0]	n/a	FR1	0	R1299T
10427.996	1.63	2977483	WORD	n/a	n/a	YARD	8	24	[0, 0, 0]	n/a	FR1	0	R1299T
10429.626	1.056	2979113	WORD_OFF	n/a	n/a	YARD	8	24	[0, 0, 0]	n/a	FR1	0	R1299T
10430.682	1.629	2980169	WORD	n/a	n/a	TAIL	9	24	[0, 0, 0]	n/a	FR1	0	R1299T
10432.311	0.948	2981798	WORD_OFF	n/a	n/a	TAIL	9	24	[0, 0, 0]	n/a	FR1	0	R1299T
10433.259	1.635	2982746	WORD	n/a	n/a	PIE	10	24	[0, 0, 0]	n/a	FR1	0	R1299T
10434.894	0.93	2984380	WORD_OFF	n/a	n/a	PIE	10	24	[0, 0, 0]	n/a	FR1	0	R1299T
10435.824	1.638	2985310	WORD	n/a	n/a	ROSE	11	24	[0, 0, 0]	n/a	FR1	0	R1299T
10437.462	1.104	2986948	WORD_OFF	n/a	n/a	ROSE	11	24	[0, 0, 0]	n/a	FR1	0	R1299T
10438.566	1.63	2988052	WORD	n/a	n/a	HILL	12	24	[0, 0, 0]	n/a	FR1	0	R1299T
10440.196	0.0	2989682	ENCODING_END	n/a	n/a	n/a	-999	24	[0, 0, 0]	n/a	FR1	0	R1299T
10440.196	0.001	2989682	WORD_OFF	n/a	n/a	HILL	12	24	[0, 0, 0]	n/a	FR1	0	R1299T
10440.197	0.0	2989683	DISTRACT_START	n/a	n/a	n/a	-999	24	[0, 0, 0]	n/a	FR1	0	R1299T
10440.197	0.015	2989683	START	n/a	n/a	n/a	-999	24	[-999, -999, -999]	n/a	FR1	0	R1299T
