onset	duration	sample	trial_type	response_time	stim_file	item_name	serialpos	list	test	answer	experiment	session	subject
0.0	39.269	574273	SESS_START	n/a	n/a	n/a	-999	-999	[0, 0, 0]	n/a	FR1	1	R1096E
39.269	10.428	613540	COUNTDOWN_START	n/a	n/a	n/a	-999	-999	[0, 0, 0]	n/a	FR1	1	R1096E
49.697	3.658	623967	COUNTDOWN_END	n/a	n/a	n/a	-999	-999	[0, 0, 0]	n/a	FR1	1	R1096E
53.355	2.552	627625	PRACTICE_WORD	n/a	n/a	COTTON	1	-1	[0, 0, 0]	n/a	FR1	1	R1096E
55.907	2.516	630177	PRACTICE_WORD	n/a	n/a	RING	2	-1	[0, 0, 0]	n/a	FR1	1	R1096E
58.423	2.468	632693	PRACTICE_WORD	n/a	n/a	CHEST	3	-1	[0, 0, 0]	n/a	FR1	1	R1096E
60.891	2.399	635161	PRACTICE_WORD	n/a	n/a	RHINO	4	-1	[0, 0, 0]	n/a	FR1	1	R1096E
63.29	2.485	637560	PRACTICE_WORD	n/a	n/a	ATTIC	5	-1	[0, 0, 0]	n/a	FR1	1	R1096E
65.775	2.633	640044	PRACTICE_WORD	n/a	n/a	TONGUE	6	-1	[0, 0, 0]	n/a	FR1	1	R1096E
68.408	2.418	642677	PRACTICE_WORD	n/a	n/a	FLOOD	7	-1	[0, 0, 0]	n/a	FR1	1	R1096E
70.826	2.599	645095	PRACTICE_WORD	n/a	n/a	IRON	8	-1	[0, 0, 0]	n/a	FR1	1	R1096E
73.425	2.468	647694	PRACTICE_WORD	n/a	n/a	WAGON	9	-1	[0, 0, 0]	n/a	FR1	1	R1096E
75.893	2.516	650162	PRACTICE_WORD	n/a	n/a	WATCH	10	-1	[0, 0, 0]	n/a	FR1	1	R1096E
78.409	2.602	652678	PRACTICE_WORD	n/a	n/a	CAMEL	11	-1	[0, 0, 0]	n/a	FR1	1	R1096E
81.011	1.617	655280	PRACTICE_WORD	n/a	n/a	BEAM	12	-1	[0, 0, 0]	n/a	FR1	1	R1096E
82.628	0.0	656896	PRACTICE_DISTRACT_START	n/a	n/a	n/a	-999	-1	[0, 0, 0]	n/a	FR1	1	R1096E
82.628	0.017	656896	START	n/a	n/a	n/a	-999	-1	[-999, -999, -999]	n/a	FR1	1	R1096E
82.645	5.766	656913	PROB	5.766	n/a	n/a	-999	-1	[1, 7, 8]	16	FR1	1	R1096E
88.411	2.735	662679	PROB	2.735	n/a	n/a	-999	-1	[1, 3, 3]	7	FR1	1	R1096E
91.146	2.701	665414	PROB	2.701	n/a	n/a	-999	-1	[5, 7, 3]	13	FR1	1	R1096E
93.847	2.867	668115	PROB	2.867	n/a	n/a	-999	-1	[1, 1, 7]	9	FR1	1	R1096E
96.714	6.809	670982	PROB	6.809	n/a	n/a	-999	-1	[4, 8, 5]	17	FR1	1	R1096E
103.523	0.008	677790	STOP	n/a	n/a	n/a	-999	-1	[-999, -999, -999]	n/a	FR1	1	R1096E
103.531	0.585	677798	PRACTICE_DISTRACT_END	n/a	n/a	n/a	-999	-1	[0, 0, 0]	n/a	FR1	1	R1096E
104.116	30.516	678383	PRACTICE_REC_START	n/a	n/a	n/a	-999	-1	[0, 0, 0]	n/a	FR1	1	R1096E
134.632	10.54	708898	PRACTICE_REC_END	n/a	n/a	n/a	-999	-1	[0, 0, 0]	n/a	FR1	1	R1096E
145.172	0.0	719437	COUNTDOWN_START	n/a	n/a	n/a	-999	1	[0, 0, 0]	n/a	FR1	1	R1096E
145.172	10.428	719437	TRIAL	n/a	n/a	n/a	-999	1	[0, 0, 0]	n/a	FR1	1	R1096E
155.6	0.006	729864	COUNTDOWN_END	n/a	n/a	n/a	-999	1	[0, 0, 0]	n/a	FR1	1	R1096E
155.606	2.535	729870	ORIENT	n/a	n/a	n/a	-999	1	[0, 0, 0]	n/a	FR1	1	R1096E
158.141	2.5	732405	WORD	n/a	wordpools/wordpool_EN.txt	HOSE	1	1	[0, 0, 0]	n/a	FR1	1	R1096E
160.641	2.518	734905	WORD	n/a	wordpools/wordpool_EN.txt	TRASH	2	1	[0, 0, 0]	n/a	FR1	1	R1096E
163.159	2.449	737423	WORD	n/a	wordpools/wordpool_EN.txt	TRUCK	3	1	[0, 0, 0]	n/a	FR1	1	R1096E
165.608	2.518	739872	WORD	n/a	wordpools/wordpool_EN.txt	SOUP	4	1	[0, 0, 0]	n/a	FR1	1	R1096E
168.126	2.466	742390	WORD	n/a	wordpools/wordpool_EN.txt	DRUM	5	1	[0, 0, 0]	n/a	FR1	1	R1096E
170.592	2.468	744856	WORD	n/a	wordpools/wordpool_EN.txt	SUN	6	1	[0, 0, 0]	n/a	FR1	1	R1096E
173.06	2.601	747324	WORD	n/a	wordpools/wordpool_EN.txt	PLATE	7	1	[0, 0, 0]	n/a	FR1	1	R1096E
175.661	2.55	749924	WORD	n/a	wordpools/wordpool_EN.txt	PIG	8	1	[0, 0, 0]	n/a	FR1	1	R1096E
178.211	2.451	752474	WORD	n/a	wordpools/wordpool_EN.txt	SALT	9	1	[0, 0, 0]	n/a	FR1	1	R1096E
180.662	2.433	754925	WORD	n/a	wordpools/wordpool_EN.txt	STONE	10	1	[0, 0, 0]	n/a	FR1	1	R1096E
183.095	2.5	757358	WORD	n/a	wordpools/wordpool_EN.txt	GRAPE	11	1	[0, 0, 0]	n/a	FR1	1	R1096E
185.595	1.618	759858	WORD	n/a	wordpools/wordpool_EN.txt	ELF	12	1	[0, 0, 0]	n/a	FR1	1	R1096E
187.213	0.0	761476	DISTRACT_START	n/a	n/a	n/a	-999	1	[0, 0, 0]	n/a	FR1	1	R1096E
187.213	0.016	761476	START	n/a	n/a	n/a	-999	1	[-999, -999, -999]	n/a	FR1	1	R1096E
187.229	6.535	761492	PROB	6.535	n/a	n/a	-999	1	[4, 8, 6]	18	FR1	1	R1096E
193.764	4.251	768026	PROB	4.251	n/a	n/a	-999	1	[3, 2, 5]	10	FR1	1	R1096E
198.015	4.233	772277	PROB	4.233	n/a	n/a	-999	1	[6, 5, 4]	15	FR1	1	R1096E
202.248	6.068	776510	PROB	6.068	n/a	n/a	-999	1	[7, 3, 3]	13	FR1	1	R1096E
208.316	0.016	782578	STOP	n/a	n/a	n/a	-999	1	[-999, -999, -999]	n/a	FR1	1	R1096E
208.332	1.173	782594	DISTRACT_END	n/a	n/a	n/a	-999	1	[0, 0, 0]	n/a	FR1	1	R1096E
209.505	1.848	783767	REC_START	n/a	n/a	n/a	-999	1	[0, 0, 0]	n/a	FR1	1	R1096E
211.353	0.764	785614	REC_WORD	0.764	n/a	ELF	-999	1	[0, 0, 0]	n/a	FR1	1	R1096E
212.117	4.209	786378	REC_WORD	4.209	n/a	SUN	-999	1	[0, 0, 0]	n/a	FR1	1	R1096E
216.326	1.459	790587	REC_WORD	1.459	n/a	TRUCK	-999	1	[0, 0, 0]	n/a	FR1	1	R1096E
217.785	5.08	792046	REC_WORD	5.08	n/a	TRASH	-999	1	[0, 0, 0]	n/a	FR1	1	R1096E
222.865	12.007	797126	REC_WORD_VV	12.007	n/a	<>	-999	1	[0, 0, 0]	n/a	FR1	1	R1096E
234.872	4.636	809132	REC_WORD_VV	4.636	n/a	<>	-999	1	[0, 0, 0]	n/a	FR1	1	R1096E
239.508	2.964	813768	REC_END	n/a	n/a	n/a	-999	1	[0, 0, 0]	n/a	FR1	1	R1096E
242.472	0.0	816732	TRIAL	n/a	n/a	n/a	-999	2	[0, 0, 0]	n/a	FR1	1	R1096E
242.472	10.428	816732	COUNTDOWN_START	n/a	n/a	n/a	-999	2	[0, 0, 0]	n/a	FR1	1	R1096E
252.9	0.008	827159	COUNTDOWN_END	n/a	n/a	n/a	-999	2	[0, 0, 0]	n/a	FR1	1	R1096E
252.908	2.499	827167	ORIENT	n/a	n/a	n/a	-999	2	[0, 0, 0]	n/a	FR1	1	R1096E
255.407	2.401	829666	WORD	n/a	wordpools/wordpool_EN.txt	SHEET	1	2	[0, 0, 0]	n/a	FR1	1	R1096E
257.808	2.433	832067	WORD	n/a	wordpools/wordpool_EN.txt	NET	2	2	[0, 0, 0]	n/a	FR1	1	R1096E
260.241	2.435	834500	WORD	n/a	wordpools/wordpool_EN.txt	WORLD	3	2	[0, 0, 0]	n/a	FR1	1	R1096E
262.676	2.451	836935	WORD	n/a	wordpools/wordpool_EN.txt	LIP	4	2	[0, 0, 0]	n/a	FR1	1	R1096E
265.127	2.416	839385	WORD	n/a	wordpools/wordpool_EN.txt	SCHOOL	5	2	[0, 0, 0]	n/a	FR1	1	R1096E
267.543	2.468	841801	WORD	n/a	wordpools/wordpool_EN.txt	WING	6	2	[0, 0, 0]	n/a	FR1	1	R1096E
270.011	2.416	844269	WORD	n/a	wordpools/wordpool_EN.txt	SWAMP	7	2	[0, 0, 0]	n/a	FR1	1	R1096E
272.427	2.451	846685	WORD	n/a	wordpools/wordpool_EN.txt	BAT	8	2	[0, 0, 0]	n/a	FR1	1	R1096E
274.878	2.616	849136	WORD	n/a	wordpools/wordpool_EN.txt	MAZE	9	2	[0, 0, 0]	n/a	FR1	1	R1096E
277.494	2.485	851752	WORD	n/a	wordpools/wordpool_EN.txt	TANK	10	2	[0, 0, 0]	n/a	FR1	1	R1096E
279.979	2.483	854237	WORD	n/a	wordpools/wordpool_EN.txt	BADGE	11	2	[0, 0, 0]	n/a	FR1	1	R1096E
282.462	1.618	856720	WORD	n/a	wordpools/wordpool_EN.txt	JET	12	2	[0, 0, 0]	n/a	FR1	1	R1096E
284.08	0.001	858337	DISTRACT_START	n/a	n/a	n/a	-999	2	[0, 0, 0]	n/a	FR1	1	R1096E
284.081	0.015	858338	START	n/a	n/a	n/a	-999	2	[-999, -999, -999]	n/a	FR1	1	R1096E
284.096	8.619	858353	PROB	8.619	n/a	n/a	-999	2	[4, 5, 9]	18	FR1	1	R1096E
292.715	6.367	866972	PROB	6.367	n/a	n/a	-999	2	[9, 6, 9]	24	FR1	1	R1096E
299.082	3.718	873339	PROB	3.718	n/a	n/a	-999	2	[3, 3, 2]	8	FR1	1	R1096E
302.8	3.682	877056	PROB	3.682	n/a	n/a	-999	2	[7, 3, 8]	18	FR1	1	R1096E
306.482	0.017	880738	STOP	n/a	n/a	n/a	-999	2	[-999, -999, -999]	n/a	FR1	1	R1096E
306.499	1.101	880755	DISTRACT_END	n/a	n/a	n/a	-999	2	[0, 0, 0]	n/a	FR1	1	R1096E
307.6	1.934	881856	REC_START	n/a	n/a	n/a	-999	2	[0, 0, 0]	n/a	FR1	1	R1096E
309.534	1.364	883790	REC_WORD	1.364	n/a	BADGE	-999	2	[0, 0, 0]	n/a	FR1	1	R1096E
310.898	3.036	885154	REC_WORD	3.036	n/a	WING	-999	2	[0, 0, 0]	n/a	FR1	1	R1096E
313.934	3.687	888190	REC_WORD_VV	3.687	n/a	<>	-999	2	[0, 0, 0]	n/a	FR1	1	R1096E
317.621	2.07	891877	REC_WORD	2.07	n/a	NET	-999	2	[0, 0, 0]	n/a	FR1	1	R1096E
319.691	1.75	893946	REC_WORD	1.75	n/a	WORLD	-999	2	[0, 0, 0]	n/a	FR1	1	R1096E
321.441	7.633	895696	REC_WORD	7.633	n/a	LIP	-999	2	[0, 0, 0]	n/a	FR1	1	R1096E
329.074	1.979	903329	REC_WORD	1.979	n/a	SWAMP	-999	2	[0, 0, 0]	n/a	FR1	1	R1096E
331.053	6.556	905308	REC_WORD	6.556	n/a	MAZE	-999	2	[0, 0, 0]	n/a	FR1	1	R1096E
337.609	3.663	911863	REC_END	n/a	n/a	n/a	-999	2	[0, 0, 0]	n/a	FR1	1	R1096E
341.272	0.0	915526	TRIAL	n/a	n/a	n/a	-999	3	[0, 0, 0]	n/a	FR1	1	R1096E
341.272	10.428	915526	COUNTDOWN_START	n/a	n/a	n/a	-999	3	[0, 0, 0]	n/a	FR1	1	R1096E
351.7	0.008	925954	COUNTDOWN_END	n/a	n/a	n/a	-999	3	[0, 0, 0]	n/a	FR1	1	R1096E
351.708	2.451	925962	ORIENT	n/a	n/a	n/a	-999	3	[0, 0, 0]	n/a	FR1	1	R1096E
354.159	2.416	928413	WORD	n/a	wordpools/wordpool_EN.txt	KEY	1	3	[0, 0, 0]	n/a	FR1	1	R1096E
356.575	2.585	930828	WORD	n/a	wordpools/wordpool_EN.txt	GOLD	2	3	[0, 0, 0]	n/a	FR1	1	R1096E
359.16	2.399	933413	WORD	n/a	wordpools/wordpool_EN.txt	FILM	3	3	[0, 0, 0]	n/a	FR1	1	R1096E
361.559	2.451	935812	WORD	n/a	wordpools/wordpool_EN.txt	BOMB	4	3	[0, 0, 0]	n/a	FR1	1	R1096E
364.01	2.583	938263	WORD	n/a	wordpools/wordpool_EN.txt	PRINCE	5	3	[0, 0, 0]	n/a	FR1	1	R1096E
366.593	2.552	940846	WORD	n/a	wordpools/wordpool_EN.txt	EAR	6	3	[0, 0, 0]	n/a	FR1	1	R1096E
369.145	2.483	943398	WORD	n/a	wordpools/wordpool_EN.txt	DART	7	3	[0, 0, 0]	n/a	FR1	1	R1096E
371.628	2.384	945881	WORD	n/a	wordpools/wordpool_EN.txt	BALL	8	3	[0, 0, 0]	n/a	FR1	1	R1096E
374.012	2.601	948264	WORD	n/a	wordpools/wordpool_EN.txt	PLANE	9	3	[0, 0, 0]	n/a	FR1	1	R1096E
376.613	2.616	950865	WORD	n/a	wordpools/wordpool_EN.txt	SPARK	10	3	[0, 0, 0]	n/a	FR1	1	R1096E
379.229	2.568	953481	WORD	n/a	wordpools/wordpool_EN.txt	COIN	11	3	[0, 0, 0]	n/a	FR1	1	R1096E
381.797	1.616	956049	WORD	n/a	wordpools/wordpool_EN.txt	SPOON	12	3	[0, 0, 0]	n/a	FR1	1	R1096E
383.413	0.001	957665	DISTRACT_START	n/a	n/a	n/a	-999	3	[0, 0, 0]	n/a	FR1	1	R1096E
383.414	0.015	957666	START	n/a	n/a	n/a	-999	3	[-999, -999, -999]	n/a	FR1	1	R1096E
383.429	5.336	957681	PROB	5.336	n/a	n/a	-999	3	[7, 6, 2]	15	FR1	1	R1096E
388.765	10.368	963017	PROB	10.368	n/a	n/a	-999	3	[8, 4, 9]	21	FR1	1	R1096E
399.133	7.647	973384	PROB	7.647	n/a	n/a	-999	3	[7, 6, 2]	15	FR1	1	R1096E
406.78	0.005	981031	STOP	n/a	n/a	n/a	-999	3	[-999, -999, -999]	n/a	FR1	1	R1096E
406.785	1.05	981036	DISTRACT_END	n/a	n/a	n/a	-999	3	[0, 0, 0]	n/a	FR1	1	R1096E
407.835	1.84	982086	REC_START	n/a	n/a	n/a	-999	3	[0, 0, 0]	n/a	FR1	1	R1096E
409.675	0.874	983926	REC_WORD	0.874	n/a	EAR	-999	3	[0, 0, 0]	n/a	FR1	1	R1096E
410.549	0.968	984799	REC_WORD	0.968	n/a	RING	-999	3	[0, 0, 0]	n/a	FR1	1	R1096E
411.517	0.923	985767	REC_WORD	0.923	n/a	GOLD	-999	3	[0, 0, 0]	n/a	FR1	1	R1096E
412.44	1.719	986690	REC_WORD	1.719	n/a	COIN	-999	3	[0, 0, 0]	n/a	FR1	1	R1096E
414.159	5.829	988409	REC_WORD	5.829	n/a	DART	-999	3	[0, 0, 0]	n/a	FR1	1	R1096E
419.988	13.139	994238	REC_WORD	13.139	n/a	PLANE	-999	3	[0, 0, 0]	n/a	FR1	1	R1096E
433.127	4.72	1007376	REC_WORD	4.72	n/a	GOLD	-999	3	[0, 0, 0]	n/a	FR1	1	R1096E
437.847	2.777	1012096	REC_END	n/a	n/a	n/a	-999	3	[0, 0, 0]	n/a	FR1	1	R1096E
440.624	0.0	1014873	TRIAL	n/a	n/a	n/a	-999	4	[0, 0, 0]	n/a	FR1	1	R1096E
440.624	10.428	1014873	COUNTDOWN_START	n/a	n/a	n/a	-999	4	[0, 0, 0]	n/a	FR1	1	R1096E
451.052	0.007	1025300	COUNTDOWN_END	n/a	n/a	n/a	-999	4	[0, 0, 0]	n/a	FR1	1	R1096E
451.059	2.433	1025307	ORIENT	n/a	n/a	n/a	-999	4	[0, 0, 0]	n/a	FR1	1	R1096E
453.492	2.568	1027740	WORD	n/a	wordpools/wordpool_EN.txt	BEE	1	4	[0, 0, 0]	n/a	FR1	1	R1096E
456.06	2.416	1030308	WORD	n/a	wordpools/wordpool_EN.txt	STORE	2	4	[0, 0, 0]	n/a	FR1	1	R1096E
458.476	2.435	1032724	WORD	n/a	wordpools/wordpool_EN.txt	MOLE	3	4	[0, 0, 0]	n/a	FR1	1	R1096E
460.911	2.466	1035159	WORD	n/a	wordpools/wordpool_EN.txt	ROCK	4	4	[0, 0, 0]	n/a	FR1	1	R1096E
463.377	2.368	1037625	WORD	n/a	wordpools/wordpool_EN.txt	BIRD	5	4	[0, 0, 0]	n/a	FR1	1	R1096E
465.745	2.483	1039992	WORD	n/a	wordpools/wordpool_EN.txt	BEAR	6	4	[0, 0, 0]	n/a	FR1	1	R1096E
468.228	2.484	1042475	WORD	n/a	wordpools/wordpool_EN.txt	RAIN	7	4	[0, 0, 0]	n/a	FR1	1	R1096E
470.712	2.583	1044959	WORD	n/a	wordpools/wordpool_EN.txt	APE	8	4	[0, 0, 0]	n/a	FR1	1	R1096E
473.295	2.385	1047542	WORD	n/a	wordpools/wordpool_EN.txt	ANT	9	4	[0, 0, 0]	n/a	FR1	1	R1096E
475.68	2.384	1049927	WORD	n/a	wordpools/wordpool_EN.txt	NEST	10	4	[0, 0, 0]	n/a	FR1	1	R1096E
478.064	2.399	1052311	WORD	n/a	wordpools/wordpool_EN.txt	JAIL	11	4	[0, 0, 0]	n/a	FR1	1	R1096E
480.463	1.601	1054710	WORD	n/a	wordpools/wordpool_EN.txt	RAT	12	4	[0, 0, 0]	n/a	FR1	1	R1096E
482.064	0.001	1056311	DISTRACT_START	n/a	n/a	n/a	-999	4	[0, 0, 0]	n/a	FR1	1	R1096E
482.065	0.016	1056312	START	n/a	n/a	n/a	-999	4	[-999, -999, -999]	n/a	FR1	1	R1096E
482.081	4.25	1056328	PROB	4.25	n/a	n/a	-999	4	[4, 3, 2]	9	FR1	1	R1096E
486.331	5.535	1060577	PROB	5.535	n/a	n/a	-999	4	[7, 8, 4]	19	FR1	1	R1096E
491.866	4.617	1066112	PROB	4.617	n/a	n/a	-999	4	[7, 4, 3]	14	FR1	1	R1096E
496.483	5.084	1070729	PROB	5.084	n/a	n/a	-999	4	[6, 6, 3]	15	FR1	1	R1096E
501.567	4.422	1075812	PROB	4.422	n/a	n/a	-999	4	[5, 7, 4]	16	FR1	1	R1096E
505.989	0.013	1080234	STOP	n/a	n/a	n/a	-999	4	[-999, -999, -999]	n/a	FR1	1	R1096E
506.002	1.034	1080247	DISTRACT_END	n/a	n/a	n/a	-999	4	[0, 0, 0]	n/a	FR1	1	R1096E
507.036	2.616	1081281	REC_START	n/a	n/a	n/a	-999	4	[0, 0, 0]	n/a	FR1	1	R1096E
509.652	1.144	1083897	REC_WORD	1.144	n/a	BEE	-999	4	[0, 0, 0]	n/a	FR1	1	R1096E
510.796	0.967	1085041	REC_WORD	0.967	n/a	BIRD	-999	4	[0, 0, 0]	n/a	FR1	1	R1096E
511.763	2.109	1086008	REC_WORD	2.109	n/a	STORE	-999	4	[0, 0, 0]	n/a	FR1	1	R1096E
513.872	1.427	1088117	REC_WORD	1.427	n/a	ANT	-999	4	[0, 0, 0]	n/a	FR1	1	R1096E
515.299	21.745	1089544	REC_WORD	21.745	n/a	APE	-999	4	[0, 0, 0]	n/a	FR1	1	R1096E
537.044	2.08	1111288	REC_END	n/a	n/a	n/a	-999	4	[0, 0, 0]	n/a	FR1	1	R1096E
539.124	0.0	1113367	TRIAL	n/a	n/a	n/a	-999	5	[0, 0, 0]	n/a	FR1	1	R1096E
539.124	10.428	1113367	COUNTDOWN_START	n/a	n/a	n/a	-999	5	[0, 0, 0]	n/a	FR1	1	R1096E
549.552	0.007	1123795	COUNTDOWN_END	n/a	n/a	n/a	-999	5	[0, 0, 0]	n/a	FR1	1	R1096E
549.559	2.451	1123802	ORIENT	n/a	n/a	n/a	-999	5	[0, 0, 0]	n/a	FR1	1	R1096E
552.01	2.533	1126253	WORD	n/a	wordpools/wordpool_EN.txt	BRIDGE	1	5	[0, 0, 0]	n/a	FR1	1	R1096E
554.543	2.484	1128786	WORD	n/a	wordpools/wordpool_EN.txt	CAGE	2	5	[0, 0, 0]	n/a	FR1	1	R1096E
557.027	2.618	1131269	WORD	n/a	wordpools/wordpool_EN.txt	BOOT	3	5	[0, 0, 0]	n/a	FR1	1	R1096E
559.645	2.45	1133887	WORD	n/a	wordpools/wordpool_EN.txt	GEESE	4	5	[0, 0, 0]	n/a	FR1	1	R1096E
562.095	2.617	1136337	WORD	n/a	wordpools/wordpool_EN.txt	SKUNK	5	5	[0, 0, 0]	n/a	FR1	1	R1096E
564.712	2.566	1138954	WORD	n/a	wordpools/wordpool_EN.txt	CLOCK	6	5	[0, 0, 0]	n/a	FR1	1	R1096E
567.278	2.485	1141520	WORD	n/a	wordpools/wordpool_EN.txt	ICE	7	5	[0, 0, 0]	n/a	FR1	1	R1096E
569.763	2.483	1144005	WORD	n/a	wordpools/wordpool_EN.txt	LAND	8	5	[0, 0, 0]	n/a	FR1	1	R1096E
572.246	2.451	1146488	WORD	n/a	wordpools/wordpool_EN.txt	FARM	9	5	[0, 0, 0]	n/a	FR1	1	R1096E
574.697	2.55	1148938	WORD	n/a	wordpools/wordpool_EN.txt	MAP	10	5	[0, 0, 0]	n/a	FR1	1	R1096E
577.247	2.551	1151488	WORD	n/a	wordpools/wordpool_EN.txt	ARK	11	5	[0, 0, 0]	n/a	FR1	1	R1096E
579.798	1.616	1154039	WORD	n/a	wordpools/wordpool_EN.txt	SKY	12	5	[0, 0, 0]	n/a	FR1	1	R1096E
581.414	0.001	1155655	DISTRACT_START	n/a	n/a	n/a	-999	5	[0, 0, 0]	n/a	FR1	1	R1096E
581.415	0.016	1155656	START	n/a	n/a	n/a	-999	5	[-999, -999, -999]	n/a	FR1	1	R1096E
581.431	7.984	1155672	PROB	7.984	n/a	n/a	-999	5	[8, 3, 5]	16	FR1	1	R1096E
589.415	5.018	1163656	PROB	5.018	n/a	n/a	-999	5	[9, 1, 3]	13	FR1	1	R1096E
594.433	4.167	1168673	PROB	4.167	n/a	n/a	-999	5	[4, 6, 9]	19	FR1	1	R1096E
598.6	5.398	1172840	PROB	5.398	n/a	n/a	-999	5	[3, 5, 7]	15	FR1	1	R1096E
603.998	0.004	1178238	STOP	n/a	n/a	n/a	-999	5	[-999, -999, -999]	n/a	FR1	1	R1096E
604.002	1.035	1178242	DISTRACT_END	n/a	n/a	n/a	-999	5	[0, 0, 0]	n/a	FR1	1	R1096E
605.037	1.549	1179277	REC_START	n/a	n/a	n/a	-999	5	[0, 0, 0]	n/a	FR1	1	R1096E
606.586	1.561	1180826	REC_WORD	1.561	n/a	CLOCK	-999	5	[0, 0, 0]	n/a	FR1	1	R1096E
608.147	2.983	1182387	REC_WORD	2.983	n/a	ICE	-999	5	[0, 0, 0]	n/a	FR1	1	R1096E
611.13	1.128	1185369	REC_WORD	1.128	n/a	LAND	-999	5	[0, 0, 0]	n/a	FR1	1	R1096E
612.258	3.485	1186497	REC_WORD	3.485	n/a	SKY	-999	5	[0, 0, 0]	n/a	FR1	1	R1096E
615.743	4.42	1189982	REC_WORD	4.42	n/a	CAGE	-999	5	[0, 0, 0]	n/a	FR1	1	R1096E
620.163	6.099	1194402	REC_WORD	6.099	n/a	GEESE	-999	5	[0, 0, 0]	n/a	FR1	1	R1096E
626.262	7.732	1200501	REC_WORD	7.732	n/a	MAP	-999	5	[0, 0, 0]	n/a	FR1	1	R1096E
633.994	1.051	1208232	REC_WORD	1.051	n/a	ICE	-999	5	[0, 0, 0]	n/a	FR1	1	R1096E
635.045	3.03	1209283	REC_END	n/a	n/a	n/a	-999	5	[0, 0, 0]	n/a	FR1	1	R1096E
638.075	0.0	1212313	TRIAL	n/a	n/a	n/a	-999	6	[0, 0, 0]	n/a	FR1	1	R1096E
638.075	10.428	1212313	COUNTDOWN_START	n/a	n/a	n/a	-999	6	[0, 0, 0]	n/a	FR1	1	R1096E
648.503	0.006	1222740	COUNTDOWN_END	n/a	n/a	n/a	-999	6	[0, 0, 0]	n/a	FR1	1	R1096E
648.509	2.485	1222746	ORIENT	n/a	n/a	n/a	-999	6	[0, 0, 0]	n/a	FR1	1	R1096E
650.994	2.566	1225231	WORD	n/a	wordpools/wordpool_EN.txt	JAR	1	6	[0, 0, 0]	n/a	FR1	1	R1096E
653.56	2.452	1227797	WORD	n/a	wordpools/wordpool_EN.txt	STRAW	2	6	[0, 0, 0]	n/a	FR1	1	R1096E
656.012	2.599	1230249	WORD	n/a	wordpools/wordpool_EN.txt	CHIN	3	6	[0, 0, 0]	n/a	FR1	1	R1096E
658.611	2.601	1232848	WORD	n/a	wordpools/wordpool_EN.txt	BEAK	4	6	[0, 0, 0]	n/a	FR1	1	R1096E
661.212	2.517	1235449	WORD	n/a	wordpools/wordpool_EN.txt	FACE	5	6	[0, 0, 0]	n/a	FR1	1	R1096E
663.729	2.434	1237966	WORD	n/a	wordpools/wordpool_EN.txt	DOLL	6	6	[0, 0, 0]	n/a	FR1	1	R1096E
666.163	2.551	1240399	WORD	n/a	wordpools/wordpool_EN.txt	YARD	7	6	[0, 0, 0]	n/a	FR1	1	R1096E
668.714	2.4	1242950	WORD	n/a	wordpools/wordpool_EN.txt	CHEEK	8	6	[0, 0, 0]	n/a	FR1	1	R1096E
671.114	2.551	1245350	WORD	n/a	wordpools/wordpool_EN.txt	TEA	9	6	[0, 0, 0]	n/a	FR1	1	R1096E
673.665	2.467	1247901	WORD	n/a	wordpools/wordpool_EN.txt	SINK	10	6	[0, 0, 0]	n/a	FR1	1	R1096E
676.132	2.483	1250368	WORD	n/a	wordpools/wordpool_EN.txt	CHAIR	11	6	[0, 0, 0]	n/a	FR1	1	R1096E
678.615	1.616	1252851	WORD	n/a	wordpools/wordpool_EN.txt	BAG	12	6	[0, 0, 0]	n/a	FR1	1	R1096E
680.231	0.001	1254467	DISTRACT_START	n/a	n/a	n/a	-999	6	[0, 0, 0]	n/a	FR1	1	R1096E
680.232	0.016	1254468	START	n/a	n/a	n/a	-999	6	[-999, -999, -999]	n/a	FR1	1	R1096E
680.248	8.953	1254484	PROB	8.953	n/a	n/a	-999	6	[2, 3, 8]	13	FR1	1	R1096E
689.201	4.116	1263436	PROB	4.116	n/a	n/a	-999	6	[9, 4, 9]	22	FR1	1	R1096E
693.317	6.068	1267552	PROB	6.068	n/a	n/a	-999	6	[2, 5, 9]	16	FR1	1	R1096E
699.385	6.602	1273620	PROB	6.602	n/a	n/a	-999	6	[8, 7, 8]	23	FR1	1	R1096E
705.987	0.017	1280221	STOP	n/a	n/a	n/a	-999	6	[-999, -999, -999]	n/a	FR1	1	R1096E
706.004	1.067	1280238	DISTRACT_END	n/a	n/a	n/a	-999	6	[0, 0, 0]	n/a	FR1	1	R1096E
707.071	1.487	1281305	REC_START	n/a	n/a	n/a	-999	6	[0, 0, 0]	n/a	FR1	1	R1096E
708.558	0.689	1282792	REC_WORD	0.689	n/a	DOG	-999	6	[0, 0, 0]	n/a	FR1	1	R1096E
709.247	0.949	1283481	REC_WORD	0.949	n/a	CHAIR	-999	6	[0, 0, 0]	n/a	FR1	1	R1096E
710.196	1.519	1284430	REC_WORD	1.519	n/a	SINK	-999	6	[0, 0, 0]	n/a	FR1	1	R1096E
711.715	0.76	1285949	REC_WORD	0.76	n/a	BEAK	-999	6	[0, 0, 0]	n/a	FR1	1	R1096E
712.475	6.831	1286709	REC_WORD	6.831	n/a	FACE	-999	6	[0, 0, 0]	n/a	FR1	1	R1096E
719.306	17.773	1293540	REC_WORD	17.773	n/a	CHIN	-999	6	[0, 0, 0]	n/a	FR1	1	R1096E
737.079	12.348	1311312	REC_END	n/a	n/a	n/a	-999	6	[0, 0, 0]	n/a	FR1	1	R1096E
749.427	0.0	1323659	TRIAL	n/a	n/a	n/a	-999	7	[0, 0, 0]	n/a	FR1	1	R1096E
749.427	10.428	1323659	COUNTDOWN_START	n/a	n/a	n/a	-999	7	[0, 0, 0]	n/a	FR1	1	R1096E
759.855	0.008	1334086	COUNTDOWN_END	n/a	n/a	n/a	-999	7	[0, 0, 0]	n/a	FR1	1	R1096E
759.863	2.466	1334094	ORIENT	n/a	n/a	n/a	-999	7	[0, 0, 0]	n/a	FR1	1	R1096E
762.329	2.552	1336560	WORD	n/a	wordpools/wordpool_EN.txt	AXE	1	7	[0, 0, 0]	n/a	FR1	1	R1096E
764.881	2.466	1339112	WORD	n/a	wordpools/wordpool_EN.txt	CLOTH	2	7	[0, 0, 0]	n/a	FR1	1	R1096E
767.347	2.551	1341578	WORD	n/a	wordpools/wordpool_EN.txt	SPRING	3	7	[0, 0, 0]	n/a	FR1	1	R1096E
769.898	2.399	1344129	WORD	n/a	wordpools/wordpool_EN.txt	CROWN	4	7	[0, 0, 0]	n/a	FR1	1	R1096E
772.297	2.569	1346528	WORD	n/a	wordpools/wordpool_EN.txt	BED	5	7	[0, 0, 0]	n/a	FR1	1	R1096E
774.866	2.432	1349097	WORD	n/a	wordpools/wordpool_EN.txt	HEART	6	7	[0, 0, 0]	n/a	FR1	1	R1096E
777.298	2.368	1351528	WORD	n/a	wordpools/wordpool_EN.txt	BOARD	7	7	[0, 0, 0]	n/a	FR1	1	R1096E
779.666	2.434	1353896	WORD	n/a	wordpools/wordpool_EN.txt	TOOTH	8	7	[0, 0, 0]	n/a	FR1	1	R1096E
782.1	2.45	1356330	WORD	n/a	wordpools/wordpool_EN.txt	CUP	9	7	[0, 0, 0]	n/a	FR1	1	R1096E
784.55	2.468	1358780	WORD	n/a	wordpools/wordpool_EN.txt	MUD	10	7	[0, 0, 0]	n/a	FR1	1	R1096E
787.018	2.483	1361248	WORD	n/a	wordpools/wordpool_EN.txt	OAR	11	7	[0, 0, 0]	n/a	FR1	1	R1096E
789.501	1.617	1363731	WORD	n/a	wordpools/wordpool_EN.txt	LAMB	12	7	[0, 0, 0]	n/a	FR1	1	R1096E
791.118	0.001	1365348	DISTRACT_START	n/a	n/a	n/a	-999	7	[0, 0, 0]	n/a	FR1	1	R1096E
791.119	0.016	1365349	START	n/a	n/a	n/a	-999	7	[-999, -999, -999]	n/a	FR1	1	R1096E
791.135	9.568	1365365	PROB	9.568	n/a	n/a	-999	7	[7, 4, 8]	19	FR1	1	R1096E
800.703	5.817	1374932	PROB	5.817	n/a	n/a	-999	7	[3, 3, 8]	14	FR1	1	R1096E
806.52	3.817	1380749	PROB	3.817	n/a	n/a	-999	7	[9, 3, 6]	18	FR1	1	R1096E
810.337	3.887	1384566	PROB	3.887	n/a	n/a	-999	7	[9, 6, 3]	18	FR1	1	R1096E
814.224	0.014	1388452	STOP	n/a	n/a	n/a	-999	7	[-999, -999, -999]	n/a	FR1	1	R1096E
814.238	1.051	1388466	DISTRACT_END	n/a	n/a	n/a	-999	7	[0, 0, 0]	n/a	FR1	1	R1096E
815.289	2.648	1389517	REC_START	n/a	n/a	n/a	-999	7	[0, 0, 0]	n/a	FR1	1	R1096E
817.937	0.838	1392165	REC_WORD	0.838	n/a	BED	-999	7	[0, 0, 0]	n/a	FR1	1	R1096E
818.775	0.876	1393003	REC_WORD	0.876	n/a	MUD	-999	7	[0, 0, 0]	n/a	FR1	1	R1096E
819.651	1.025	1393879	REC_WORD	1.025	n/a	CUP	-999	7	[0, 0, 0]	n/a	FR1	1	R1096E
820.676	0.84	1394904	REC_WORD	0.84	n/a	HEART	-999	7	[0, 0, 0]	n/a	FR1	1	R1096E
821.516	1.077	1395744	REC_WORD	1.077	n/a	OAR	-999	7	[0, 0, 0]	n/a	FR1	1	R1096E
822.593	3.06	1396821	REC_WORD	3.06	n/a	CLOTH	-999	7	[0, 0, 0]	n/a	FR1	1	R1096E
825.653	7.18	1399881	REC_WORD	7.18	n/a	AXE	-999	7	[0, 0, 0]	n/a	FR1	1	R1096E
832.833	4.402	1407060	REC_WORD	4.402	n/a	CUP	-999	7	[0, 0, 0]	n/a	FR1	1	R1096E
837.235	6.562	1411462	REC_WORD	6.562	n/a	SPRING	-999	7	[0, 0, 0]	n/a	FR1	1	R1096E
843.797	1.501	1418024	REC_WORD	1.501	n/a	AXE	-999	7	[0, 0, 0]	n/a	FR1	1	R1096E
845.298	2.43	1419525	REC_END	n/a	n/a	n/a	-999	7	[0, 0, 0]	n/a	FR1	1	R1096E
847.728	0.0	1421955	TRIAL	n/a	n/a	n/a	-999	8	[0, 0, 0]	n/a	FR1	1	R1096E
847.728	10.428	1421955	COUNTDOWN_START	n/a	n/a	n/a	-999	8	[0, 0, 0]	n/a	FR1	1	R1096E
858.156	0.024	1432382	COUNTDOWN_END	n/a	n/a	n/a	-999	8	[0, 0, 0]	n/a	FR1	1	R1096E
858.18	2.584	1432406	ORIENT	n/a	n/a	n/a	-999	8	[0, 0, 0]	n/a	FR1	1	R1096E
860.764	2.434	1434990	WORD	n/a	wordpools/wordpool_EN.txt	SHIRT	1	8	[0, 0, 0]	n/a	FR1	1	R1096E
863.198	2.417	1437424	WORD	n/a	wordpools/wordpool_EN.txt	FUR	2	8	[0, 0, 0]	n/a	FR1	1	R1096E
865.615	2.6	1439841	WORD	n/a	wordpools/wordpool_EN.txt	RIB	3	8	[0, 0, 0]	n/a	FR1	1	R1096E
868.215	2.534	1442440	WORD	n/a	wordpools/wordpool_EN.txt	POOL	4	8	[0, 0, 0]	n/a	FR1	1	R1096E
870.749	2.467	1444974	WORD	n/a	wordpools/wordpool_EN.txt	SWORD	5	8	[0, 0, 0]	n/a	FR1	1	R1096E
873.216	2.383	1447441	WORD	n/a	wordpools/wordpool_EN.txt	ARM	6	8	[0, 0, 0]	n/a	FR1	1	R1096E
875.599	2.568	1449824	WORD	n/a	wordpools/wordpool_EN.txt	FAN	7	8	[0, 0, 0]	n/a	FR1	1	R1096E
878.167	2.584	1452392	WORD	n/a	wordpools/wordpool_EN.txt	BOY	8	8	[0, 0, 0]	n/a	FR1	1	R1096E
880.751	2.384	1454976	WORD	n/a	wordpools/wordpool_EN.txt	PURSE	9	8	[0, 0, 0]	n/a	FR1	1	R1096E
883.135	2.567	1457360	WORD	n/a	wordpools/wordpool_EN.txt	ROPE	10	8	[0, 0, 0]	n/a	FR1	1	R1096E
885.702	2.566	1459926	WORD	n/a	wordpools/wordpool_EN.txt	BUSH	11	8	[0, 0, 0]	n/a	FR1	1	R1096E
888.268	1.618	1462492	WORD	n/a	wordpools/wordpool_EN.txt	FOOT	12	8	[0, 0, 0]	n/a	FR1	1	R1096E
889.886	0.0	1464110	DISTRACT_START	n/a	n/a	n/a	-999	8	[0, 0, 0]	n/a	FR1	1	R1096E
889.886	0.016	1464110	START	n/a	n/a	n/a	-999	8	[-999, -999, -999]	n/a	FR1	1	R1096E
889.902	4.517	1464126	PROB	4.517	n/a	n/a	-999	8	[4, 6, 2]	12	FR1	1	R1096E
894.419	9.619	1468643	PROB	9.619	n/a	n/a	-999	8	[4, 9, 6]	19	FR1	1	R1096E
904.038	2.601	1478261	PROB	2.601	n/a	n/a	-999	8	[1, 2, 7]	10	FR1	1	R1096E
906.639	3.05	1480862	PROB	3.05	n/a	n/a	-999	8	[3, 3, 3]	9	FR1	1	R1096E
909.689	3.314	1483912	PROB	3.314	n/a	n/a	-999	8	[2, 6, 9]	17	FR1	1	R1096E
913.003	0.003	1487226	STOP	n/a	n/a	n/a	-999	8	[-999, -999, -999]	n/a	FR1	1	R1096E
913.006	1.217	1487229	DISTRACT_END	n/a	n/a	n/a	-999	8	[0, 0, 0]	n/a	FR1	1	R1096E
914.223	1.55	1488446	REC_START	n/a	n/a	n/a	-999	8	[0, 0, 0]	n/a	FR1	1	R1096E
915.773	1.155	1489996	REC_WORD	1.155	n/a	SWORD	-999	8	[0, 0, 0]	n/a	FR1	1	R1096E
916.928	1.3	1491151	REC_WORD	1.3	n/a	ARM	-999	8	[0, 0, 0]	n/a	FR1	1	R1096E
918.228	1.291	1492451	REC_WORD	1.291	n/a	PURSE	-999	8	[0, 0, 0]	n/a	FR1	1	R1096E
919.519	24.712	1493742	REC_WORD	24.712	n/a	BOY	-999	8	[0, 0, 0]	n/a	FR1	1	R1096E
944.231	3.632	1518452	REC_END	n/a	n/a	n/a	-999	8	[0, 0, 0]	n/a	FR1	1	R1096E
947.863	0.0	1522084	TRIAL	n/a	n/a	n/a	-999	9	[0, 0, 0]	n/a	FR1	1	R1096E
947.863	10.428	1522084	COUNTDOWN_START	n/a	n/a	n/a	-999	9	[0, 0, 0]	n/a	FR1	1	R1096E
958.291	0.006	1532511	COUNTDOWN_END	n/a	n/a	n/a	-999	9	[0, 0, 0]	n/a	FR1	1	R1096E
958.297	2.518	1532517	ORIENT	n/a	n/a	n/a	-999	9	[0, 0, 0]	n/a	FR1	1	R1096E
960.815	2.533	1535035	WORD	n/a	wordpools/wordpool_EN.txt	FORK	1	9	[0, 0, 0]	n/a	FR1	1	R1096E
963.348	2.434	1537568	WORD	n/a	wordpools/wordpool_EN.txt	BANK	2	9	[0, 0, 0]	n/a	FR1	1	R1096E
965.782	2.5	1540002	WORD	n/a	wordpools/wordpool_EN.txt	SLEEVE	3	9	[0, 0, 0]	n/a	FR1	1	R1096E
968.282	2.451	1542502	WORD	n/a	wordpools/wordpool_EN.txt	WAND	4	9	[0, 0, 0]	n/a	FR1	1	R1096E
970.733	2.533	1544953	WORD	n/a	wordpools/wordpool_EN.txt	TOE	5	9	[0, 0, 0]	n/a	FR1	1	R1096E
973.266	2.485	1547486	WORD	n/a	wordpools/wordpool_EN.txt	COUCH	6	9	[0, 0, 0]	n/a	FR1	1	R1096E
975.751	2.599	1549970	WORD	n/a	wordpools/wordpool_EN.txt	GATE	7	9	[0, 0, 0]	n/a	FR1	1	R1096E
978.35	2.568	1552569	WORD	n/a	wordpools/wordpool_EN.txt	STRING	8	9	[0, 0, 0]	n/a	FR1	1	R1096E
980.918	2.533	1555137	WORD	n/a	wordpools/wordpool_EN.txt	VINE	9	9	[0, 0, 0]	n/a	FR1	1	R1096E
983.451	2.451	1557670	WORD	n/a	wordpools/wordpool_EN.txt	SPEAR	10	9	[0, 0, 0]	n/a	FR1	1	R1096E
985.902	2.433	1560121	WORD	n/a	wordpools/wordpool_EN.txt	TIE	11	9	[0, 0, 0]	n/a	FR1	1	R1096E
988.335	1.618	1562554	WORD	n/a	wordpools/wordpool_EN.txt	PALM	12	9	[0, 0, 0]	n/a	FR1	1	R1096E
989.953	0.001	1564172	DISTRACT_START	n/a	n/a	n/a	-999	9	[0, 0, 0]	n/a	FR1	1	R1096E
989.954	0.016	1564173	START	n/a	n/a	n/a	-999	9	[-999, -999, -999]	n/a	FR1	1	R1096E
989.97	5.684	1564189	PROB	5.684	n/a	n/a	-999	9	[5, 7, 7]	19	FR1	1	R1096E
995.654	7.168	1569872	PROB	7.168	n/a	n/a	-999	9	[7, 4, 9]	20	FR1	1	R1096E
1002.822	4.483	1577040	PROB	4.483	n/a	n/a	-999	9	[6, 6, 3]	15	FR1	1	R1096E
1007.305	7.247	1581523	PROB	7.247	n/a	n/a	-999	9	[8, 6, 1]	15	FR1	1	R1096E
1014.552	0.004	1588769	STOP	n/a	n/a	n/a	-999	9	[-999, -999, -999]	n/a	FR1	1	R1096E
1014.556	1.12	1588773	DISTRACT_END	n/a	n/a	n/a	-999	9	[0, 0, 0]	n/a	FR1	1	R1096E
1015.676	1.526	1589893	REC_START	n/a	n/a	n/a	-999	9	[0, 0, 0]	n/a	FR1	1	R1096E
1017.202	1.082	1591419	REC_WORD	1.082	n/a	FORK	-999	9	[0, 0, 0]	n/a	FR1	1	R1096E
1018.284	0.714	1592501	REC_WORD	0.714	n/a	BANK	-999	9	[0, 0, 0]	n/a	FR1	1	R1096E
1018.998	2.363	1593215	REC_WORD	2.363	n/a	TIE	-999	9	[0, 0, 0]	n/a	FR1	1	R1096E
1021.361	2.042	1595578	REC_WORD	2.042	n/a	COUCH	-999	9	[0, 0, 0]	n/a	FR1	1	R1096E
1023.403	1.088	1597620	REC_WORD	1.088	n/a	PALM	-999	9	[0, 0, 0]	n/a	FR1	1	R1096E
1024.491	11.045	1598708	REC_WORD	11.045	n/a	SWORD	-999	9	[0, 0, 0]	n/a	FR1	1	R1096E
1035.536	5.588	1609752	REC_WORD	5.588	n/a	TIE	-999	9	[0, 0, 0]	n/a	FR1	1	R1096E
1041.124	4.559	1615340	REC_WORD	4.559	n/a	SLEEVE	-999	9	[0, 0, 0]	n/a	FR1	1	R1096E
1045.683	2.846	1619899	REC_END	n/a	n/a	n/a	-999	9	[0, 0, 0]	n/a	FR1	1	R1096E
1048.529	0.0	1622744	COUNTDOWN_START	n/a	n/a	n/a	-999	10	[0, 0, 0]	n/a	FR1	1	R1096E
1048.529	10.428	1622744	TRIAL	n/a	n/a	n/a	-999	10	[0, 0, 0]	n/a	FR1	1	R1096E
1058.957	0.008	1633172	COUNTDOWN_END	n/a	n/a	n/a	-999	10	[0, 0, 0]	n/a	FR1	1	R1096E
1058.965	2.483	1633180	ORIENT	n/a	n/a	n/a	-999	10	[0, 0, 0]	n/a	FR1	1	R1096E
1061.448	2.552	1635663	WORD	n/a	wordpools/wordpool_EN.txt	THREAD	1	10	[0, 0, 0]	n/a	FR1	1	R1096E
1064.0	2.617	1638215	WORD	n/a	wordpools/wordpool_EN.txt	PIE	2	10	[0, 0, 0]	n/a	FR1	1	R1096E
1066.617	2.483	1640832	WORD	n/a	wordpools/wordpool_EN.txt	WALL	3	10	[0, 0, 0]	n/a	FR1	1	R1096E
1069.1	2.584	1643314	WORD	n/a	wordpools/wordpool_EN.txt	SUIT	4	10	[0, 0, 0]	n/a	FR1	1	R1096E
1071.684	2.6	1645898	WORD	n/a	wordpools/wordpool_EN.txt	STEAK	5	10	[0, 0, 0]	n/a	FR1	1	R1096E
1074.284	2.468	1648498	WORD	n/a	wordpools/wordpool_EN.txt	VASE	6	10	[0, 0, 0]	n/a	FR1	1	R1096E
1076.752	2.499	1650966	WORD	n/a	wordpools/wordpool_EN.txt	SLUSH	7	10	[0, 0, 0]	n/a	FR1	1	R1096E
1079.251	2.568	1653465	WORD	n/a	wordpools/wordpool_EN.txt	TOAST	8	10	[0, 0, 0]	n/a	FR1	1	R1096E
1081.819	2.633	1656033	WORD	n/a	wordpools/wordpool_EN.txt	PHONE	9	10	[0, 0, 0]	n/a	FR1	1	R1096E
1084.452	2.568	1658666	WORD	n/a	wordpools/wordpool_EN.txt	BAND	10	10	[0, 0, 0]	n/a	FR1	1	R1096E
1087.02	2.516	1661233	WORD	n/a	wordpools/wordpool_EN.txt	MAIL	11	10	[0, 0, 0]	n/a	FR1	1	R1096E
1089.536	1.601	1663749	WORD	n/a	wordpools/wordpool_EN.txt	SHRIMP	12	10	[0, 0, 0]	n/a	FR1	1	R1096E
1091.137	0.001	1665350	DISTRACT_START	n/a	n/a	n/a	-999	10	[0, 0, 0]	n/a	FR1	1	R1096E
1091.138	0.016	1665351	START	n/a	n/a	n/a	-999	10	[-999, -999, -999]	n/a	FR1	1	R1096E
1091.154	4.884	1665367	PROB	4.884	n/a	n/a	-999	10	[6, 5, 3]	14	FR1	1	R1096E
1096.038	3.5	1670251	PROB	3.5	n/a	n/a	-999	10	[1, 4, 2]	7	FR1	1	R1096E
1099.538	5.519	1673751	PROB	5.519	n/a	n/a	-999	10	[6, 3, 9]	18	FR1	1	R1096E
1105.057	3.216	1679269	PROB	3.216	n/a	n/a	-999	10	[1, 3, 5]	9	FR1	1	R1096E
1108.273	3.5	1682485	PROB	3.5	n/a	n/a	-999	10	[7, 3, 6]	16	FR1	1	R1096E
1111.773	0.018	1685985	STOP	n/a	n/a	n/a	-999	10	[-999, -999, -999]	n/a	FR1	1	R1096E
1111.791	1.084	1686003	DISTRACT_END	n/a	n/a	n/a	-999	10	[0, 0, 0]	n/a	FR1	1	R1096E
1112.875	5.838	1687087	REC_START	n/a	n/a	n/a	-999	10	[0, 0, 0]	n/a	FR1	1	R1096E
1118.713	2.988	1692925	REC_WORD	2.988	n/a	SLUSH	-999	10	[0, 0, 0]	n/a	FR1	1	R1096E
1121.701	2.772	1695912	REC_WORD	2.772	n/a	SUIT	-999	10	[0, 0, 0]	n/a	FR1	1	R1096E
1124.473	5.702	1698684	REC_WORD	5.702	n/a	THREAD	-999	10	[0, 0, 0]	n/a	FR1	1	R1096E
1130.175	12.717	1704386	REC_WORD	12.717	n/a	TONGUE	-999	10	[0, 0, 0]	n/a	FR1	1	R1096E
1142.892	12.857	1717102	REC_END	n/a	n/a	n/a	-999	10	[0, 0, 0]	n/a	FR1	1	R1096E
1155.749	0.0	1729959	TRIAL	n/a	n/a	n/a	-999	11	[0, 0, 0]	n/a	FR1	1	R1096E
1155.749	10.428	1729959	COUNTDOWN_START	n/a	n/a	n/a	-999	11	[0, 0, 0]	n/a	FR1	1	R1096E
1166.177	0.007	1740386	COUNTDOWN_END	n/a	n/a	n/a	-999	11	[0, 0, 0]	n/a	FR1	1	R1096E
1166.184	2.484	1740393	ORIENT	n/a	n/a	n/a	-999	11	[0, 0, 0]	n/a	FR1	1	R1096E
1168.668	2.384	1742877	WORD	n/a	wordpools/wordpool_EN.txt	DOG	1	11	[0, 0, 0]	n/a	FR1	1	R1096E
1171.052	2.6	1745261	WORD	n/a	wordpools/wordpool_EN.txt	PEAR	2	11	[0, 0, 0]	n/a	FR1	1	R1096E
1173.652	2.384	1747861	WORD	n/a	wordpools/wordpool_EN.txt	BREAD	3	11	[0, 0, 0]	n/a	FR1	1	R1096E
1176.036	2.466	1750245	WORD	n/a	wordpools/wordpool_EN.txt	TAIL	4	11	[0, 0, 0]	n/a	FR1	1	R1096E
1178.502	2.468	1752710	WORD	n/a	wordpools/wordpool_EN.txt	BRANCH	5	11	[0, 0, 0]	n/a	FR1	1	R1096E
1180.97	2.533	1755178	WORD	n/a	wordpools/wordpool_EN.txt	BEAN	6	11	[0, 0, 0]	n/a	FR1	1	R1096E
1183.503	2.501	1757711	WORD	n/a	wordpools/wordpool_EN.txt	BLOOM	7	11	[0, 0, 0]	n/a	FR1	1	R1096E
1186.004	2.45	1760212	WORD	n/a	wordpools/wordpool_EN.txt	FOOD	8	11	[0, 0, 0]	n/a	FR1	1	R1096E
1188.454	2.484	1762662	WORD	n/a	wordpools/wordpool_EN.txt	LAWN	9	11	[0, 0, 0]	n/a	FR1	1	R1096E
1190.938	2.533	1765146	WORD	n/a	wordpools/wordpool_EN.txt	RICE	10	11	[0, 0, 0]	n/a	FR1	1	R1096E
1193.471	2.418	1767679	WORD	n/a	wordpools/wordpool_EN.txt	EEL	11	11	[0, 0, 0]	n/a	FR1	1	R1096E
1195.889	1.616	1770096	WORD	n/a	wordpools/wordpool_EN.txt	MOTH	12	11	[0, 0, 0]	n/a	FR1	1	R1096E
1197.505	0.001	1771712	DISTRACT_START	n/a	n/a	n/a	-999	11	[0, 0, 0]	n/a	FR1	1	R1096E
1197.506	0.016	1771713	START	n/a	n/a	n/a	-999	11	[-999, -999, -999]	n/a	FR1	1	R1096E
1197.522	8.169	1771729	PROB	8.169	n/a	n/a	-999	11	[8, 8, 2]	18	FR1	1	R1096E
1205.691	8.634	1779898	PROB	8.634	n/a	n/a	-999	11	[8, 8, 7]	23	FR1	1	R1096E
1214.325	7.083	1788531	PROB	7.083	n/a	n/a	-999	11	[4, 8, 3]	15	FR1	1	R1096E
1221.408	0.018	1795614	STOP	n/a	n/a	n/a	-999	11	[-999, -999, -999]	n/a	FR1	1	R1096E
1221.426	1.202	1795632	DISTRACT_END	n/a	n/a	n/a	-999	11	[0, 0, 0]	n/a	FR1	1	R1096E
1222.628	1.772	1796834	REC_START	n/a	n/a	n/a	-999	11	[0, 0, 0]	n/a	FR1	1	R1096E
1224.4	0.721	1798606	REC_WORD	0.721	n/a	DOG	-999	11	[0, 0, 0]	n/a	FR1	1	R1096E
1225.121	1.08	1799327	REC_WORD	1.08	n/a	TAIL	-999	11	[0, 0, 0]	n/a	FR1	1	R1096E
1226.201	1.006	1800407	REC_WORD	1.006	n/a	BLOOM	-999	11	[0, 0, 0]	n/a	FR1	1	R1096E
1227.207	1.177	1801413	REC_WORD	1.177	n/a	BRANCH	-999	11	[0, 0, 0]	n/a	FR1	1	R1096E
1228.384	5.197	1802590	REC_WORD	5.197	n/a	EEL	-999	11	[0, 0, 0]	n/a	FR1	1	R1096E
1233.581	5.41	1807786	REC_WORD_VV	5.41	n/a	<>	-999	11	[0, 0, 0]	n/a	FR1	1	R1096E
1238.991	10.372	1813196	REC_WORD	10.372	n/a	LAWN	-999	11	[0, 0, 0]	n/a	FR1	1	R1096E
1249.363	3.275	1823567	REC_WORD	3.275	n/a	TIE	-999	11	[0, 0, 0]	n/a	FR1	1	R1096E
1252.638	2.362	1826842	REC_END	n/a	n/a	n/a	-999	11	[0, 0, 0]	n/a	FR1	1	R1096E
1255.0	0.0	1829204	TRIAL	n/a	n/a	n/a	-999	12	[0, 0, 0]	n/a	FR1	1	R1096E
1255.0	10.428	1829204	COUNTDOWN_START	n/a	n/a	n/a	-999	12	[0, 0, 0]	n/a	FR1	1	R1096E
1265.428	0.006	1839632	COUNTDOWN_END	n/a	n/a	n/a	-999	12	[0, 0, 0]	n/a	FR1	1	R1096E
1265.434	2.601	1839638	ORIENT	n/a	n/a	n/a	-999	12	[0, 0, 0]	n/a	FR1	1	R1096E
1268.035	2.566	1842238	WORD	n/a	wordpools/wordpool_EN.txt	ROAD	1	12	[0, 0, 0]	n/a	FR1	1	R1096E
1270.601	2.435	1844804	WORD	n/a	wordpools/wordpool_EN.txt	ROOF	2	12	[0, 0, 0]	n/a	FR1	1	R1096E
1273.036	2.416	1847239	WORD	n/a	wordpools/wordpool_EN.txt	PARK	3	12	[0, 0, 0]	n/a	FR1	1	R1096E
1275.452	2.552	1849655	WORD	n/a	wordpools/wordpool_EN.txt	KITE	4	12	[0, 0, 0]	n/a	FR1	1	R1096E
1278.004	2.449	1852207	WORD	n/a	wordpools/wordpool_EN.txt	BOX	5	12	[0, 0, 0]	n/a	FR1	1	R1096E
1280.453	2.485	1854656	WORD	n/a	wordpools/wordpool_EN.txt	FOG	6	12	[0, 0, 0]	n/a	FR1	1	R1096E
1282.938	2.383	1857141	WORD	n/a	wordpools/wordpool_EN.txt	SMILE	7	12	[0, 0, 0]	n/a	FR1	1	R1096E
1285.321	2.401	1859524	WORD	n/a	wordpools/wordpool_EN.txt	VAN	8	12	[0, 0, 0]	n/a	FR1	1	R1096E
1287.722	2.417	1861924	WORD	n/a	wordpools/wordpool_EN.txt	CAR	9	12	[0, 0, 0]	n/a	FR1	1	R1096E
1290.139	2.45	1864341	WORD	n/a	wordpools/wordpool_EN.txt	RUG	10	12	[0, 0, 0]	n/a	FR1	1	R1096E
1292.589	2.434	1866791	WORD	n/a	wordpools/wordpool_EN.txt	CLOWN	11	12	[0, 0, 0]	n/a	FR1	1	R1096E
1295.023	1.617	1869225	WORD	n/a	wordpools/wordpool_EN.txt	LAMP	12	12	[0, 0, 0]	n/a	FR1	1	R1096E
1296.64	0.001	1870842	DISTRACT_START	n/a	n/a	n/a	-999	12	[0, 0, 0]	n/a	FR1	1	R1096E
1296.641	0.016	1870843	START	n/a	n/a	n/a	-999	12	[-999, -999, -999]	n/a	FR1	1	R1096E
1296.657	5.068	1870859	PROB	5.068	n/a	n/a	-999	12	[3, 7, 8]	18	FR1	1	R1096E
1301.725	10.5	1875927	PROB	10.5	n/a	n/a	-999	12	[9, 8, 6]	23	FR1	1	R1096E
1312.225	4.251	1886426	PROB	4.251	n/a	n/a	-999	12	[9, 3, 2]	14	FR1	1	R1096E
1316.476	4.482	1890677	PROB	4.482	n/a	n/a	-999	12	[2, 6, 6]	14	FR1	1	R1096E
1320.958	0.003	1895159	STOP	n/a	n/a	n/a	-999	12	[-999, -999, -999]	n/a	FR1	1	R1096E
1320.961	1.151	1895162	DISTRACT_END	n/a	n/a	n/a	-999	12	[0, 0, 0]	n/a	FR1	1	R1096E
1322.112	2.439	1896312	REC_START	n/a	n/a	n/a	-999	12	[0, 0, 0]	n/a	FR1	1	R1096E
1324.551	0.968	1898751	REC_WORD	0.968	n/a	VAN	-999	12	[0, 0, 0]	n/a	FR1	1	R1096E
1325.519	0.971	1899719	REC_WORD	0.971	n/a	CAR	-999	12	[0, 0, 0]	n/a	FR1	1	R1096E
1326.49	1.564	1900690	REC_WORD	1.564	n/a	ROAD	-999	12	[0, 0, 0]	n/a	FR1	1	R1096E
1328.054	1.243	1902254	REC_WORD	1.243	n/a	ROOF	-999	12	[0, 0, 0]	n/a	FR1	1	R1096E
1329.297	1.366	1903497	REC_WORD	1.366	n/a	BOX	-999	12	[0, 0, 0]	n/a	FR1	1	R1096E
1330.663	1.592	1904863	REC_WORD	1.592	n/a	PARK	-999	12	[0, 0, 0]	n/a	FR1	1	R1096E
1332.255	5.478	1906455	REC_WORD	5.478	n/a	KITE	-999	12	[0, 0, 0]	n/a	FR1	1	R1096E
1337.733	7.938	1911933	REC_WORD_VV	7.938	n/a	<>	-999	12	[0, 0, 0]	n/a	FR1	1	R1096E
1345.671	2.804	1919870	REC_WORD	2.804	n/a	WHEEL	-999	12	[0, 0, 0]	n/a	FR1	1	R1096E
1348.475	3.646	1922674	REC_WORD	3.646	n/a	FOG	-999	12	[0, 0, 0]	n/a	FR1	1	R1096E
1352.121	3.696	1926320	REC_END	n/a	n/a	n/a	-999	12	[0, 0, 0]	n/a	FR1	1	R1096E
1355.817	0.001	1930016	COUNTDOWN_START	n/a	n/a	n/a	-999	13	[0, 0, 0]	n/a	FR1	1	R1096E
1355.818	10.427	1930017	TRIAL	n/a	n/a	n/a	-999	13	[0, 0, 0]	n/a	FR1	1	R1096E
1366.245	0.007	1940443	COUNTDOWN_END	n/a	n/a	n/a	-999	13	[0, 0, 0]	n/a	FR1	1	R1096E
1366.252	2.468	1940450	ORIENT	n/a	n/a	n/a	-999	13	[0, 0, 0]	n/a	FR1	1	R1096E
1368.72	2.516	1942918	WORD	n/a	wordpools/wordpool_EN.txt	MULE	1	13	[0, 0, 0]	n/a	FR1	1	R1096E
1371.236	2.468	1945434	WORD	n/a	wordpools/wordpool_EN.txt	FORT	2	13	[0, 0, 0]	n/a	FR1	1	R1096E
1373.704	2.5	1947902	WORD	n/a	wordpools/wordpool_EN.txt	PEA	3	13	[0, 0, 0]	n/a	FR1	1	R1096E
1376.204	2.501	1950402	WORD	n/a	wordpools/wordpool_EN.txt	HILL	4	13	[0, 0, 0]	n/a	FR1	1	R1096E
1378.705	2.532	1952902	WORD	n/a	wordpools/wordpool_EN.txt	HEN	5	13	[0, 0, 0]	n/a	FR1	1	R1096E
1381.237	2.368	1955434	WORD	n/a	wordpools/wordpool_EN.txt	MAT	6	13	[0, 0, 0]	n/a	FR1	1	R1096E
1383.605	2.384	1957802	WORD	n/a	wordpools/wordpool_EN.txt	PANTS	7	13	[0, 0, 0]	n/a	FR1	1	R1096E
1385.989	2.616	1960186	WORD	n/a	wordpools/wordpool_EN.txt	FOX	8	13	[0, 0, 0]	n/a	FR1	1	R1096E
1388.605	2.452	1962802	WORD	n/a	wordpools/wordpool_EN.txt	FLAG	9	13	[0, 0, 0]	n/a	FR1	1	R1096E
1391.057	2.433	1965254	WORD	n/a	wordpools/wordpool_EN.txt	SIGN	10	13	[0, 0, 0]	n/a	FR1	1	R1096E
1393.49	2.551	1967687	WORD	n/a	wordpools/wordpool_EN.txt	GUARD	11	13	[0, 0, 0]	n/a	FR1	1	R1096E
1396.041	1.617	1970237	WORD	n/a	wordpools/wordpool_EN.txt	HAWK	12	13	[0, 0, 0]	n/a	FR1	1	R1096E
1397.658	0.001	1971854	DISTRACT_START	n/a	n/a	n/a	-999	13	[0, 0, 0]	n/a	FR1	1	R1096E
1397.659	0.016	1971855	START	n/a	n/a	n/a	-999	13	[-999, -999, -999]	n/a	FR1	1	R1096E
1397.675	9.068	1971871	PROB	9.068	n/a	n/a	-999	13	[8, 6, 8]	22	FR1	1	R1096E
1406.743	3.217	1980939	PROB	3.217	n/a	n/a	-999	13	[3, 6, 3]	12	FR1	1	R1096E
1409.96	3.201	1984156	PROB	3.201	n/a	n/a	-999	13	[4, 2, 2]	8	FR1	1	R1096E
1413.161	3.266	1987357	PROB	3.266	n/a	n/a	-999	13	[6, 3, 7]	16	FR1	1	R1096E
1416.427	2.712	1990622	PROB	2.712	n/a	n/a	-999	13	[2, 6, 3]	11	FR1	1	R1096E
1419.139	0.006	1993334	STOP	n/a	n/a	n/a	-999	13	[-999, -999, -999]	n/a	FR1	1	R1096E
1419.145	1.202	1993340	DISTRACT_END	n/a	n/a	n/a	-999	13	[0, 0, 0]	n/a	FR1	1	R1096E
1420.347	2.525	1994542	REC_START	n/a	n/a	n/a	-999	13	[0, 0, 0]	n/a	FR1	1	R1096E
1422.872	1.712	1997067	REC_WORD	1.712	n/a	FOX	-999	13	[0, 0, 0]	n/a	FR1	1	R1096E
1424.584	0.771	1998779	REC_WORD	0.771	n/a	FLAG	-999	13	[0, 0, 0]	n/a	FR1	1	R1096E
1425.355	1.259	1999550	REC_WORD	1.259	n/a	SIGN	-999	13	[0, 0, 0]	n/a	FR1	1	R1096E
1426.614	1.413	2000809	REC_WORD	1.413	n/a	MULE	-999	13	[0, 0, 0]	n/a	FR1	1	R1096E
1428.027	2.69	2002222	REC_WORD	2.69	n/a	PANTS	-999	13	[0, 0, 0]	n/a	FR1	1	R1096E
1430.717	3.667	2004912	REC_WORD_VV	3.667	n/a	<>	-999	13	[0, 0, 0]	n/a	FR1	1	R1096E
1434.384	2.738	2008578	REC_WORD	2.738	n/a	HEN	-999	13	[0, 0, 0]	n/a	FR1	1	R1096E
1437.122	13.233	2011316	REC_WORD	13.233	n/a	PEA	-999	13	[0, 0, 0]	n/a	FR1	1	R1096E
1450.355	1.729	2024548	REC_END	n/a	n/a	n/a	-999	13	[0, 0, 0]	n/a	FR1	1	R1096E
1452.084	0.0	2026277	TRIAL	n/a	n/a	n/a	-999	14	[0, 0, 0]	n/a	FR1	1	R1096E
1452.084	10.428	2026277	COUNTDOWN_START	n/a	n/a	n/a	-999	14	[0, 0, 0]	n/a	FR1	1	R1096E
1462.512	0.006	2036705	COUNTDOWN_END	n/a	n/a	n/a	-999	14	[0, 0, 0]	n/a	FR1	1	R1096E
1462.518	2.452	2036711	ORIENT	n/a	n/a	n/a	-999	14	[0, 0, 0]	n/a	FR1	1	R1096E
1464.97	2.583	2039163	WORD	n/a	wordpools/wordpool_EN.txt	JEEP	1	14	[0, 0, 0]	n/a	FR1	1	R1096E
1467.553	2.568	2041746	WORD	n/a	wordpools/wordpool_EN.txt	MOUTH	2	14	[0, 0, 0]	n/a	FR1	1	R1096E
1470.121	2.399	2044313	WORD	n/a	wordpools/wordpool_EN.txt	OAK	3	14	[0, 0, 0]	n/a	FR1	1	R1096E
1472.52	2.468	2046712	WORD	n/a	wordpools/wordpool_EN.txt	CUBE	4	14	[0, 0, 0]	n/a	FR1	1	R1096E
1474.988	2.383	2049180	WORD	n/a	wordpools/wordpool_EN.txt	RAKE	5	14	[0, 0, 0]	n/a	FR1	1	R1096E
1477.371	2.585	2051563	WORD	n/a	wordpools/wordpool_EN.txt	TENT	6	14	[0, 0, 0]	n/a	FR1	1	R1096E
1479.956	2.549	2054148	WORD	n/a	wordpools/wordpool_EN.txt	PET	7	14	[0, 0, 0]	n/a	FR1	1	R1096E
1482.505	2.435	2056697	WORD	n/a	wordpools/wordpool_EN.txt	TRAIN	8	14	[0, 0, 0]	n/a	FR1	1	R1096E
1484.94	2.533	2059132	WORD	n/a	wordpools/wordpool_EN.txt	HAT	9	14	[0, 0, 0]	n/a	FR1	1	R1096E
1487.473	2.551	2061664	WORD	n/a	wordpools/wordpool_EN.txt	CAPE	10	14	[0, 0, 0]	n/a	FR1	1	R1096E
1490.024	2.45	2064215	WORD	n/a	wordpools/wordpool_EN.txt	CAT	11	14	[0, 0, 0]	n/a	FR1	1	R1096E
1492.474	1.618	2066665	WORD	n/a	wordpools/wordpool_EN.txt	COW	12	14	[0, 0, 0]	n/a	FR1	1	R1096E
1494.092	0.0	2068283	DISTRACT_START	n/a	n/a	n/a	-999	14	[0, 0, 0]	n/a	FR1	1	R1096E
1494.092	0.016	2068283	START	n/a	n/a	n/a	-999	14	[-999, -999, -999]	n/a	FR1	1	R1096E
1494.108	4.068	2068299	PROB	4.068	n/a	n/a	-999	14	[2, 2, 8]	12	FR1	1	R1096E
1498.176	4.083	2072367	PROB	4.083	n/a	n/a	-999	14	[4, 4, 8]	16	FR1	1	R1096E
1502.259	4.502	2076450	PROB	4.502	n/a	n/a	-999	14	[5, 6, 5]	16	FR1	1	R1096E
1506.761	3.9	2080951	PROB	3.9	n/a	n/a	-999	14	[8, 2, 4]	14	FR1	1	R1096E
1510.661	3.067	2084851	PROB	3.067	n/a	n/a	-999	14	[8, 5, 5]	18	FR1	1	R1096E
1513.728	4.345	2087918	PROB	4.345	n/a	n/a	-999	14	[1, 9, 5]	15	FR1	1	R1096E
1518.073	0.006	2092263	STOP	n/a	n/a	n/a	-999	14	[-999, -999, -999]	n/a	FR1	1	R1096E
1518.079	1.217	2092269	DISTRACT_END	n/a	n/a	n/a	-999	14	[0, 0, 0]	n/a	FR1	1	R1096E
1519.296	1.804	2093486	REC_START	n/a	n/a	n/a	-999	14	[0, 0, 0]	n/a	FR1	1	R1096E
1521.1	0.907	2095290	REC_WORD	0.907	n/a	JEEP	-999	14	[0, 0, 0]	n/a	FR1	1	R1096E
1522.007	2.344	2096197	REC_WORD	2.344	n/a	COW	-999	14	[0, 0, 0]	n/a	FR1	1	R1096E
1524.351	2.343	2098540	REC_WORD	2.343	n/a	CUBE	-999	14	[0, 0, 0]	n/a	FR1	1	R1096E
1526.694	3.363	2100883	REC_WORD	3.363	n/a	TRAIN	-999	14	[0, 0, 0]	n/a	FR1	1	R1096E
1530.057	3.329	2104246	REC_WORD	3.329	n/a	TENT	-999	14	[0, 0, 0]	n/a	FR1	1	R1096E
1533.386	15.921	2107575	REC_WORD	15.921	n/a	PET	-999	14	[0, 0, 0]	n/a	FR1	1	R1096E
1549.307	2.645	2123495	REC_END	n/a	n/a	n/a	-999	14	[0, 0, 0]	n/a	FR1	1	R1096E
1551.952	0.0	2126140	TRIAL	n/a	n/a	n/a	-999	15	[0, 0, 0]	n/a	FR1	1	R1096E
1551.952	10.428	2126140	COUNTDOWN_START	n/a	n/a	n/a	-999	15	[0, 0, 0]	n/a	FR1	1	R1096E
1562.38	0.006	2136567	COUNTDOWN_END	n/a	n/a	n/a	-999	15	[0, 0, 0]	n/a	FR1	1	R1096E
1562.386	2.585	2136573	ORIENT	n/a	n/a	n/a	-999	15	[0, 0, 0]	n/a	FR1	1	R1096E
1564.971	2.566	2139158	WORD	n/a	wordpools/wordpool_EN.txt	SHELL	1	15	[0, 0, 0]	n/a	FR1	1	R1096E
1567.537	2.484	2141724	WORD	n/a	wordpools/wordpool_EN.txt	GLASS	2	15	[0, 0, 0]	n/a	FR1	1	R1096E
1570.021	2.601	2144208	WORD	n/a	wordpools/wordpool_EN.txt	HOOF	3	15	[0, 0, 0]	n/a	FR1	1	R1096E
1572.622	2.484	2146809	WORD	n/a	wordpools/wordpool_EN.txt	ZOO	4	15	[0, 0, 0]	n/a	FR1	1	R1096E
1575.106	2.383	2149293	WORD	n/a	wordpools/wordpool_EN.txt	FLEA	5	15	[0, 0, 0]	n/a	FR1	1	R1096E
1577.489	2.618	2151675	WORD	n/a	wordpools/wordpool_EN.txt	SEA	6	15	[0, 0, 0]	n/a	FR1	1	R1096E
1580.107	2.449	2154293	WORD	n/a	wordpools/wordpool_EN.txt	CONE	7	15	[0, 0, 0]	n/a	FR1	1	R1096E
1582.556	2.535	2156742	WORD	n/a	wordpools/wordpool_EN.txt	BEACH	8	15	[0, 0, 0]	n/a	FR1	1	R1096E
1585.091	2.567	2159277	WORD	n/a	wordpools/wordpool_EN.txt	SNAIL	9	15	[0, 0, 0]	n/a	FR1	1	R1096E
1587.658	2.55	2161844	WORD	n/a	wordpools/wordpool_EN.txt	CLAY	10	15	[0, 0, 0]	n/a	FR1	1	R1096E
1590.208	2.618	2164394	WORD	n/a	wordpools/wordpool_EN.txt	SPONGE	11	15	[0, 0, 0]	n/a	FR1	1	R1096E
1592.826	1.615	2167012	WORD	n/a	wordpools/wordpool_EN.txt	WAVE	12	15	[0, 0, 0]	n/a	FR1	1	R1096E
1594.441	0.001	2168627	DISTRACT_START	n/a	n/a	n/a	-999	15	[0, 0, 0]	n/a	FR1	1	R1096E
1594.442	0.016	2168628	START	n/a	n/a	n/a	-999	15	[-999, -999, -999]	n/a	FR1	1	R1096E
1594.458	5.452	2168644	PROB	5.452	n/a	n/a	-999	15	[2, 5, 4]	11	FR1	1	R1096E
1599.91	5.666	2174095	PROB	5.666	n/a	n/a	-999	15	[6, 6, 4]	16	FR1	1	R1096E
1605.576	4.286	2179761	PROB	4.286	n/a	n/a	-999	15	[6, 8, 2]	16	FR1	1	R1096E
1609.862	5.447	2184047	PROB	5.447	n/a	n/a	-999	15	[3, 2, 2]	7	FR1	1	R1096E
1615.309	0.02	2189493	STOP	n/a	n/a	n/a	-999	15	[-999, -999, -999]	n/a	FR1	1	R1096E
1615.329	1.15	2189513	DISTRACT_END	n/a	n/a	n/a	-999	15	[0, 0, 0]	n/a	FR1	1	R1096E
1616.479	1.896	2190663	REC_START	n/a	n/a	n/a	-999	15	[0, 0, 0]	n/a	FR1	1	R1096E
1618.375	0.688	2192559	REC_WORD	0.688	n/a	BEACH	-999	15	[0, 0, 0]	n/a	FR1	1	R1096E
1619.063	1.85	2193247	REC_WORD	1.85	n/a	SNAIL	-999	15	[0, 0, 0]	n/a	FR1	1	R1096E
1620.913	1.398	2195097	REC_WORD	1.398	n/a	HOOF	-999	15	[0, 0, 0]	n/a	FR1	1	R1096E
1622.311	1.613	2196495	REC_WORD	1.613	n/a	CLAY	-999	15	[0, 0, 0]	n/a	FR1	1	R1096E
1623.924	1.901	2198108	REC_WORD	1.901	n/a	WAVE	-999	15	[0, 0, 0]	n/a	FR1	1	R1096E
1625.825	3.636	2200009	REC_WORD	3.636	n/a	ZOO	-999	15	[0, 0, 0]	n/a	FR1	1	R1096E
1629.461	4.494	2203645	REC_WORD_VV	4.494	n/a	<>	-999	15	[0, 0, 0]	n/a	FR1	1	R1096E
1633.955	1.741	2208138	REC_WORD	1.741	n/a	SHELL	-999	15	[0, 0, 0]	n/a	FR1	1	R1096E
1635.696	3.655	2209879	REC_WORD	3.655	n/a	GLASS	-999	15	[0, 0, 0]	n/a	FR1	1	R1096E
1639.351	7.139	2213534	REC_WORD	7.139	n/a	SEA	-999	15	[0, 0, 0]	n/a	FR1	1	R1096E
1646.49	2.479	2220673	REC_END	n/a	n/a	n/a	-999	15	[0, 0, 0]	n/a	FR1	1	R1096E
1648.969	0.0	2223152	TRIAL	n/a	n/a	n/a	-999	16	[0, 0, 0]	n/a	FR1	1	R1096E
1648.969	10.428	2223152	COUNTDOWN_START	n/a	n/a	n/a	-999	16	[0, 0, 0]	n/a	FR1	1	R1096E
1659.397	0.006	2233579	COUNTDOWN_END	n/a	n/a	n/a	-999	16	[0, 0, 0]	n/a	FR1	1	R1096E
1659.403	2.485	2233585	ORIENT	n/a	n/a	n/a	-999	16	[0, 0, 0]	n/a	FR1	1	R1096E
1661.888	2.616	2236070	WORD	n/a	wordpools/wordpool_EN.txt	PIT	1	16	[0, 0, 0]	n/a	FR1	1	R1096E
1664.504	2.551	2238686	WORD	n/a	wordpools/wordpool_EN.txt	PEACH	2	16	[0, 0, 0]	n/a	FR1	1	R1096E
1667.055	2.516	2241237	WORD	n/a	wordpools/wordpool_EN.txt	FLUTE	3	16	[0, 0, 0]	n/a	FR1	1	R1096E
1669.571	2.485	2243752	WORD	n/a	wordpools/wordpool_EN.txt	CORN	4	16	[0, 0, 0]	n/a	FR1	1	R1096E
1672.056	2.55	2246237	WORD	n/a	wordpools/wordpool_EN.txt	JUDGE	5	16	[0, 0, 0]	n/a	FR1	1	R1096E
1674.606	2.534	2248787	WORD	n/a	wordpools/wordpool_EN.txt	CART	6	16	[0, 0, 0]	n/a	FR1	1	R1096E
1677.14	2.484	2251321	WORD	n/a	wordpools/wordpool_EN.txt	TREE	7	16	[0, 0, 0]	n/a	FR1	1	R1096E
1679.624	2.551	2253805	WORD	n/a	wordpools/wordpool_EN.txt	ROOM	8	16	[0, 0, 0]	n/a	FR1	1	R1096E
1682.175	2.45	2256356	WORD	n/a	wordpools/wordpool_EN.txt	STREET	9	16	[0, 0, 0]	n/a	FR1	1	R1096E
1684.625	2.616	2258806	WORD	n/a	wordpools/wordpool_EN.txt	BENCH	10	16	[0, 0, 0]	n/a	FR1	1	R1096E
1687.241	2.418	2261421	WORD	n/a	wordpools/wordpool_EN.txt	BOWL	11	16	[0, 0, 0]	n/a	FR1	1	R1096E
1689.659	1.616	2263839	WORD	n/a	wordpools/wordpool_EN.txt	FRUIT	12	16	[0, 0, 0]	n/a	FR1	1	R1096E
1691.275	0.001	2265455	DISTRACT_START	n/a	n/a	n/a	-999	16	[0, 0, 0]	n/a	FR1	1	R1096E
1691.276	0.016	2265456	START	n/a	n/a	n/a	-999	16	[-999, -999, -999]	n/a	FR1	1	R1096E
1691.292	5.835	2265472	PROB	5.835	n/a	n/a	-999	16	[2, 4, 4]	10	FR1	1	R1096E
1697.127	4.984	2271307	PROB	4.984	n/a	n/a	-999	16	[4, 1, 1]	6	FR1	1	R1096E
1702.111	5.035	2276291	PROB	5.035	n/a	n/a	-999	16	[4, 5, 1]	10	FR1	1	R1096E
1707.146	7.864	2281325	PROB	7.864	n/a	n/a	-999	16	[8, 5, 6]	19	FR1	1	R1096E
1715.01	0.003	2289189	STOP	n/a	n/a	n/a	-999	16	[-999, -999, -999]	n/a	FR1	1	R1096E
1715.013	1.085	2289192	DISTRACT_END	n/a	n/a	n/a	-999	16	[0, 0, 0]	n/a	FR1	1	R1096E
1716.098	1.865	2290277	REC_START	n/a	n/a	n/a	-999	16	[0, 0, 0]	n/a	FR1	1	R1096E
1717.963	1.814	2292142	REC_WORD	1.814	n/a	STREET	-999	16	[0, 0, 0]	n/a	FR1	1	R1096E
1719.777	1.228	2293956	REC_WORD	1.228	n/a	ROOM	-999	16	[0, 0, 0]	n/a	FR1	1	R1096E
1721.005	1.205	2295184	REC_WORD	1.205	n/a	PEACH	-999	16	[0, 0, 0]	n/a	FR1	1	R1096E
1722.21	1.193	2296389	REC_WORD	1.193	n/a	PIT	-999	16	[0, 0, 0]	n/a	FR1	1	R1096E
1723.403	12.979	2297581	REC_WORD	12.979	n/a	CORN	-999	16	[0, 0, 0]	n/a	FR1	1	R1096E
1736.382	3.795	2310560	REC_WORD	3.795	n/a	SAIL	-999	16	[0, 0, 0]	n/a	FR1	1	R1096E
1740.177	5.931	2314355	REC_WORD	5.931	n/a	BENCH	-999	16	[0, 0, 0]	n/a	FR1	1	R1096E
1746.108	2.712	2320285	REC_END	n/a	n/a	n/a	-999	16	[0, 0, 0]	n/a	FR1	1	R1096E
1748.82	0.0	2322997	TRIAL	n/a	n/a	n/a	-999	17	[0, 0, 0]	n/a	FR1	1	R1096E
1748.82	10.428	2322997	COUNTDOWN_START	n/a	n/a	n/a	-999	17	[0, 0, 0]	n/a	FR1	1	R1096E
1759.248	0.006	2333425	COUNTDOWN_END	n/a	n/a	n/a	-999	17	[0, 0, 0]	n/a	FR1	1	R1096E
1759.254	2.568	2333431	ORIENT	n/a	n/a	n/a	-999	17	[0, 0, 0]	n/a	FR1	1	R1096E
1761.822	2.449	2335998	WORD	n/a	wordpools/wordpool_EN.txt	SAIL	1	17	[0, 0, 0]	n/a	FR1	1	R1096E
1764.271	2.452	2338447	WORD	n/a	wordpools/wordpool_EN.txt	SHIP	2	17	[0, 0, 0]	n/a	FR1	1	R1096E
1766.723	2.45	2340899	WORD	n/a	wordpools/wordpool_EN.txt	WORM	3	17	[0, 0, 0]	n/a	FR1	1	R1096E
1769.173	2.383	2343349	WORD	n/a	wordpools/wordpool_EN.txt	SLIME	4	17	[0, 0, 0]	n/a	FR1	1	R1096E
1771.556	2.401	2345732	WORD	n/a	wordpools/wordpool_EN.txt	STEAM	5	17	[0, 0, 0]	n/a	FR1	1	R1096E
1773.957	2.616	2348133	WORD	n/a	wordpools/wordpool_EN.txt	BOAT	6	17	[0, 0, 0]	n/a	FR1	1	R1096E
1776.573	2.369	2350749	WORD	n/a	wordpools/wordpool_EN.txt	HOOK	7	17	[0, 0, 0]	n/a	FR1	1	R1096E
1778.942	2.582	2353117	WORD	n/a	wordpools/wordpool_EN.txt	DESK	8	17	[0, 0, 0]	n/a	FR1	1	R1096E
1781.524	2.418	2355699	WORD	n/a	wordpools/wordpool_EN.txt	PEARL	9	17	[0, 0, 0]	n/a	FR1	1	R1096E
1783.942	2.583	2358117	WORD	n/a	wordpools/wordpool_EN.txt	WHEEL	10	17	[0, 0, 0]	n/a	FR1	1	R1096E
1786.525	2.568	2360700	WORD	n/a	wordpools/wordpool_EN.txt	FISH	11	17	[0, 0, 0]	n/a	FR1	1	R1096E
1789.093	1.617	2363268	WORD	n/a	wordpools/wordpool_EN.txt	DRESS	12	17	[0, 0, 0]	n/a	FR1	1	R1096E
1790.71	0.001	2364885	DISTRACT_START	n/a	n/a	n/a	-999	17	[0, 0, 0]	n/a	FR1	1	R1096E
1790.711	0.016	2364886	START	n/a	n/a	n/a	-999	17	[-999, -999, -999]	n/a	FR1	1	R1096E
1790.727	5.301	2364902	PROB	5.301	n/a	n/a	-999	17	[2, 8, 4]	14	FR1	1	R1096E
1796.028	4.266	2370203	PROB	4.266	n/a	n/a	-999	17	[1, 7, 7]	15	FR1	1	R1096E
1800.294	3.251	2374468	PROB	3.251	n/a	n/a	-999	17	[3, 3, 2]	8	FR1	1	R1096E
1803.545	4.135	2377719	PROB	4.135	n/a	n/a	-999	17	[3, 5, 1]	9	FR1	1	R1096E
1807.68	3.412	2381854	PROB	3.412	n/a	n/a	-999	17	[2, 1, 1]	4	FR1	1	R1096E
1811.092	0.005	2385266	STOP	n/a	n/a	n/a	-999	17	[-999, -999, -999]	n/a	FR1	1	R1096E
1811.097	1.167	2385271	DISTRACT_END	n/a	n/a	n/a	-999	17	[0, 0, 0]	n/a	FR1	1	R1096E
1812.264	1.329	2386438	REC_START	n/a	n/a	n/a	-999	17	[0, 0, 0]	n/a	FR1	1	R1096E
1813.593	0.991	2387767	REC_WORD	0.991	n/a	DRESS	-999	17	[0, 0, 0]	n/a	FR1	1	R1096E
1814.584	0.732	2388757	REC_WORD	0.732	n/a	PEARL	-999	17	[0, 0, 0]	n/a	FR1	1	R1096E
1815.316	1.291	2389489	REC_WORD	1.291	n/a	SLIME	-999	17	[0, 0, 0]	n/a	FR1	1	R1096E
1816.607	0.737	2390780	REC_WORD	0.737	n/a	BOAT	-999	17	[0, 0, 0]	n/a	FR1	1	R1096E
1817.344	0.805	2391517	REC_WORD	0.805	n/a	SAIL	-999	17	[0, 0, 0]	n/a	FR1	1	R1096E
1818.149	1.899	2392322	REC_WORD	1.899	n/a	SHIP	-999	17	[0, 0, 0]	n/a	FR1	1	R1096E
1820.048	3.604	2394221	REC_WORD	3.604	n/a	WORM	-999	17	[0, 0, 0]	n/a	FR1	1	R1096E
1823.652	0.739	2397825	REC_WORD	0.739	n/a	PEARL	-999	17	[0, 0, 0]	n/a	FR1	1	R1096E
1824.391	16.689	2398564	REC_WORD	16.689	n/a	DRESS	-999	17	[0, 0, 0]	n/a	FR1	1	R1096E
1841.08	1.196	2415252	REC_WORD	1.196	n/a	WAVE	-999	17	[0, 0, 0]	n/a	FR1	1	R1096E
1842.276	3.326	2416448	REC_END	n/a	n/a	n/a	-999	17	[0, 0, 0]	n/a	FR1	1	R1096E
1845.602	0.0	2419774	TRIAL	n/a	n/a	n/a	-999	18	[0, 0, 0]	n/a	FR1	1	R1096E
1845.602	10.428	2419774	COUNTDOWN_START	n/a	n/a	n/a	-999	18	[0, 0, 0]	n/a	FR1	1	R1096E
1856.03	0.008	2430201	COUNTDOWN_END	n/a	n/a	n/a	-999	18	[0, 0, 0]	n/a	FR1	1	R1096E
1856.038	2.483	2430209	ORIENT	n/a	n/a	n/a	-999	18	[0, 0, 0]	n/a	FR1	1	R1096E
1858.521	2.435	2432692	WORD	n/a	wordpools/wordpool_EN.txt	LEG	1	18	[0, 0, 0]	n/a	FR1	1	R1096E
1860.956	2.416	2435127	WORD	n/a	wordpools/wordpool_EN.txt	SNAKE	2	18	[0, 0, 0]	n/a	FR1	1	R1096E
1863.372	2.568	2437543	WORD	n/a	wordpools/wordpool_EN.txt	NOSE	3	18	[0, 0, 0]	n/a	FR1	1	R1096E
1865.94	2.616	2440111	WORD	n/a	wordpools/wordpool_EN.txt	MOOSE	4	18	[0, 0, 0]	n/a	FR1	1	R1096E
1868.556	2.602	2442727	WORD	n/a	wordpools/wordpool_EN.txt	GOAT	5	18	[0, 0, 0]	n/a	FR1	1	R1096E
1871.158	2.467	2445328	WORD	n/a	wordpools/wordpool_EN.txt	MILK	6	18	[0, 0, 0]	n/a	FR1	1	R1096E
1873.625	2.584	2447795	WORD	n/a	wordpools/wordpool_EN.txt	CLIFF	7	18	[0, 0, 0]	n/a	FR1	1	R1096E
1876.209	2.45	2450379	WORD	n/a	wordpools/wordpool_EN.txt	MOUSE	8	18	[0, 0, 0]	n/a	FR1	1	R1096E
1878.659	2.633	2452829	WORD	n/a	wordpools/wordpool_EN.txt	GRASS	9	18	[0, 0, 0]	n/a	FR1	1	R1096E
1881.292	2.601	2455462	WORD	n/a	wordpools/wordpool_EN.txt	STOOL	10	18	[0, 0, 0]	n/a	FR1	1	R1096E
1883.893	2.466	2458063	WORD	n/a	wordpools/wordpool_EN.txt	CALF	11	18	[0, 0, 0]	n/a	FR1	1	R1096E
1886.359	1.601	2460529	WORD	n/a	wordpools/wordpool_EN.txt	WEB	12	18	[0, 0, 0]	n/a	FR1	1	R1096E
1887.96	0.001	2462129	DISTRACT_START	n/a	n/a	n/a	-999	18	[0, 0, 0]	n/a	FR1	1	R1096E
1887.961	0.016	2462130	START	n/a	n/a	n/a	-999	18	[-999, -999, -999]	n/a	FR1	1	R1096E
1887.977	20.904	2462146	PROB	20.904	n/a	n/a	-999	18	[4, 8, 9]	21	FR1	1	R1096E
1908.881	0.017	2483049	STOP	n/a	n/a	n/a	-999	18	[-999, -999, -999]	n/a	FR1	1	R1096E
1908.898	1.184	2483066	DISTRACT_END	n/a	n/a	n/a	-999	18	[0, 0, 0]	n/a	FR1	1	R1096E
1910.082	1.945	2484250	REC_START	n/a	n/a	n/a	-999	18	[0, 0, 0]	n/a	FR1	1	R1096E
1912.027	0.995	2486195	REC_WORD	0.995	n/a	MOOSE	-999	18	[0, 0, 0]	n/a	FR1	1	R1096E
1913.022	1.136	2487190	REC_WORD	1.136	n/a	MOUSE	-999	18	[0, 0, 0]	n/a	FR1	1	R1096E
1914.158	1.67	2488326	REC_WORD	1.67	n/a	GOAT	-999	18	[0, 0, 0]	n/a	FR1	1	R1096E
1915.828	1.101	2489996	REC_WORD	1.101	n/a	MILK	-999	18	[0, 0, 0]	n/a	FR1	1	R1096E
1916.929	3.318	2491097	REC_WORD	3.318	n/a	CALF	-999	18	[0, 0, 0]	n/a	FR1	1	R1096E
1920.247	17.52	2494415	REC_WORD_VV	17.52	n/a	<>	-999	18	[0, 0, 0]	n/a	FR1	1	R1096E
1937.767	2.325	2511934	REC_WORD	2.325	n/a	GRASS	-999	18	[0, 0, 0]	n/a	FR1	1	R1096E
1940.092	3.545	2514259	REC_END	n/a	n/a	n/a	-999	18	[0, 0, 0]	n/a	FR1	1	R1096E
1943.637	0.0	2517803	TRIAL	n/a	n/a	n/a	-999	19	[0, 0, 0]	n/a	FR1	1	R1096E
1943.637	10.428	2517803	COUNTDOWN_START	n/a	n/a	n/a	-999	19	[0, 0, 0]	n/a	FR1	1	R1096E
1954.065	0.024	2528231	COUNTDOWN_END	n/a	n/a	n/a	-999	19	[0, 0, 0]	n/a	FR1	1	R1096E
1954.089	2.55	2528255	ORIENT	n/a	n/a	n/a	-999	19	[0, 0, 0]	n/a	FR1	1	R1096E
1956.639	2.6	2530805	WORD	n/a	wordpools/wordpool_EN.txt	STAR	1	19	[0, 0, 0]	n/a	FR1	1	R1096E
1959.239	2.568	2533405	WORD	n/a	wordpools/wordpool_EN.txt	PIPE	2	19	[0, 0, 0]	n/a	FR1	1	R1096E
1961.807	2.449	2535972	WORD	n/a	wordpools/wordpool_EN.txt	OWL	3	19	[0, 0, 0]	n/a	FR1	1	R1096E
1964.256	2.552	2538421	WORD	n/a	wordpools/wordpool_EN.txt	WOOD	4	19	[0, 0, 0]	n/a	FR1	1	R1096E
1966.808	2.516	2540973	WORD	n/a	wordpools/wordpool_EN.txt	DUCK	5	19	[0, 0, 0]	n/a	FR1	1	R1096E
1969.324	2.535	2543489	WORD	n/a	wordpools/wordpool_EN.txt	POND	6	19	[0, 0, 0]	n/a	FR1	1	R1096E
1971.859	2.466	2546024	WORD	n/a	wordpools/wordpool_EN.txt	CLOUD	7	19	[0, 0, 0]	n/a	FR1	1	R1096E
1974.325	2.551	2548490	WORD	n/a	wordpools/wordpool_EN.txt	FLOOR	8	19	[0, 0, 0]	n/a	FR1	1	R1096E
1976.876	2.4	2551041	WORD	n/a	wordpools/wordpool_EN.txt	DEER	9	19	[0, 0, 0]	n/a	FR1	1	R1096E
1979.276	2.551	2553440	WORD	n/a	wordpools/wordpool_EN.txt	SKI	10	19	[0, 0, 0]	n/a	FR1	1	R1096E
1981.827	2.45	2555991	WORD	n/a	wordpools/wordpool_EN.txt	TOY	11	19	[0, 0, 0]	n/a	FR1	1	R1096E
1984.277	1.618	2558441	WORD	n/a	wordpools/wordpool_EN.txt	WOLF	12	19	[0, 0, 0]	n/a	FR1	1	R1096E
1985.895	0.0	2560059	DISTRACT_START	n/a	n/a	n/a	-999	19	[0, 0, 0]	n/a	FR1	1	R1096E
1985.895	0.016	2560059	START	n/a	n/a	n/a	-999	19	[-999, -999, -999]	n/a	FR1	1	R1096E
1985.911	5.835	2560075	PROB	5.835	n/a	n/a	-999	19	[5, 7, 4]	16	FR1	1	R1096E
1991.746	4.2	2565910	PROB	4.2	n/a	n/a	-999	19	[1, 4, 3]	8	FR1	1	R1096E
1995.946	5.168	2570110	PROB	5.168	n/a	n/a	-999	19	[3, 1, 8]	12	FR1	1	R1096E
2001.114	5.455	2575277	PROB	5.455	n/a	n/a	-999	19	[9, 3, 4]	16	FR1	1	R1096E
2006.569	0.012	2580732	STOP	n/a	n/a	n/a	-999	19	[-999, -999, -999]	n/a	FR1	1	R1096E
2006.581	1.151	2580744	DISTRACT_END	n/a	n/a	n/a	-999	19	[0, 0, 0]	n/a	FR1	1	R1096E
2007.732	1.451	2581895	REC_START	n/a	n/a	n/a	-999	19	[0, 0, 0]	n/a	FR1	1	R1096E
2009.183	0.952	2583346	REC_WORD	0.952	n/a	OWL	-999	19	[0, 0, 0]	n/a	FR1	1	R1096E
2010.135	1.119	2584298	REC_WORD	1.119	n/a	WOOD	-999	19	[0, 0, 0]	n/a	FR1	1	R1096E
2011.254	1.575	2585417	REC_WORD	1.575	n/a	DUCK	-999	19	[0, 0, 0]	n/a	FR1	1	R1096E
2012.829	2.491	2586992	REC_WORD	2.491	n/a	POND	-999	19	[0, 0, 0]	n/a	FR1	1	R1096E
2015.32	8.33	2589482	REC_WORD	8.33	n/a	STOVE	-999	19	[0, 0, 0]	n/a	FR1	1	R1096E
2023.65	2.685	2597812	REC_WORD	2.685	n/a	GLASS	-999	19	[0, 0, 0]	n/a	FR1	1	R1096E
2026.335	11.413	2600497	REC_WORD	11.413	n/a	PIPE	-999	19	[0, 0, 0]	n/a	FR1	1	R1096E
2037.748	2.788	2611909	REC_END	n/a	n/a	n/a	-999	19	[0, 0, 0]	n/a	FR1	1	R1096E
2040.536	0.001	2614697	COUNTDOWN_START	n/a	n/a	n/a	-999	20	[0, 0, 0]	n/a	FR1	1	R1096E
2040.537	10.427	2614698	TRIAL	n/a	n/a	n/a	-999	20	[0, 0, 0]	n/a	FR1	1	R1096E
2050.964	0.009	2625125	COUNTDOWN_END	n/a	n/a	n/a	-999	20	[0, 0, 0]	n/a	FR1	1	R1096E
2050.973	2.449	2625134	ORIENT	n/a	n/a	n/a	-999	20	[0, 0, 0]	n/a	FR1	1	R1096E
2053.422	2.518	2627582	WORD	n/a	wordpools/wordpool_EN.txt	SQUARE	1	20	[0, 0, 0]	n/a	FR1	1	R1096E
2055.94	2.6	2630100	WORD	n/a	wordpools/wordpool_EN.txt	BRICK	2	20	[0, 0, 0]	n/a	FR1	1	R1096E
2058.54	2.384	2632700	WORD	n/a	wordpools/wordpool_EN.txt	SMOKE	3	20	[0, 0, 0]	n/a	FR1	1	R1096E
2060.924	2.4	2635084	WORD	n/a	wordpools/wordpool_EN.txt	NAIL	4	20	[0, 0, 0]	n/a	FR1	1	R1096E
2063.324	2.618	2637484	WORD	n/a	wordpools/wordpool_EN.txt	PIN	5	20	[0, 0, 0]	n/a	FR1	1	R1096E
2065.942	2.449	2640102	WORD	n/a	wordpools/wordpool_EN.txt	VEST	6	20	[0, 0, 0]	n/a	FR1	1	R1096E
2068.391	2.552	2642551	WORD	n/a	wordpools/wordpool_EN.txt	WHALE	7	20	[0, 0, 0]	n/a	FR1	1	R1096E
2070.943	2.449	2645102	WORD	n/a	wordpools/wordpool_EN.txt	SNOW	8	20	[0, 0, 0]	n/a	FR1	1	R1096E
2073.392	2.385	2647551	WORD	n/a	wordpools/wordpool_EN.txt	FLAME	9	20	[0, 0, 0]	n/a	FR1	1	R1096E
2075.777	2.616	2649936	WORD	n/a	wordpools/wordpool_EN.txt	DOCK	10	20	[0, 0, 0]	n/a	FR1	1	R1096E
2078.393	2.535	2652552	WORD	n/a	wordpools/wordpool_EN.txt	STORM	11	20	[0, 0, 0]	n/a	FR1	1	R1096E
2080.928	1.616	2655087	WORD	n/a	wordpools/wordpool_EN.txt	LAKE	12	20	[0, 0, 0]	n/a	FR1	1	R1096E
2082.544	0.0	2656703	DISTRACT_START	n/a	n/a	n/a	-999	20	[0, 0, 0]	n/a	FR1	1	R1096E
2082.544	0.017	2656703	START	n/a	n/a	n/a	-999	20	[-999, -999, -999]	n/a	FR1	1	R1096E
2082.561	6.385	2656720	PROB	6.385	n/a	n/a	-999	20	[5, 6, 8]	19	FR1	1	R1096E
2088.946	4.184	2663104	PROB	4.184	n/a	n/a	-999	20	[4, 6, 7]	17	FR1	1	R1096E
2093.13	6.835	2667288	PROB	6.835	n/a	n/a	-999	20	[9, 7, 8]	24	FR1	1	R1096E
2099.965	6.85	2674123	PROB	6.85	n/a	n/a	-999	20	[2, 7, 6]	15	FR1	1	R1096E
2106.815	0.017	2680972	STOP	n/a	n/a	n/a	-999	20	[-999, -999, -999]	n/a	FR1	1	R1096E
2106.832	1.118	2680989	DISTRACT_END	n/a	n/a	n/a	-999	20	[0, 0, 0]	n/a	FR1	1	R1096E
2107.95	4.327	2682107	REC_START	n/a	n/a	n/a	-999	20	[0, 0, 0]	n/a	FR1	1	R1096E
2112.277	16.191	2686434	REC_WORD_VV	16.191	n/a	<>	-999	20	[0, 0, 0]	n/a	FR1	1	R1096E
2128.468	2.133	2702624	REC_WORD	2.133	n/a	WHALE	-999	20	[0, 0, 0]	n/a	FR1	1	R1096E
2130.601	7.359	2704757	REC_WORD_VV	7.359	n/a	<>	-999	20	[0, 0, 0]	n/a	FR1	1	R1096E
2137.96	78.242	2712116	REC_END	n/a	n/a	n/a	-999	20	[0, 0, 0]	n/a	FR1	1	R1096E
2216.202	0.0	2790353	TRIAL	n/a	n/a	n/a	-999	21	[0, 0, 0]	n/a	FR1	1	R1096E
2216.202	10.428	2790353	COUNTDOWN_START	n/a	n/a	n/a	-999	21	[0, 0, 0]	n/a	FR1	1	R1096E
2226.63	0.007	2800781	COUNTDOWN_END	n/a	n/a	n/a	-999	21	[0, 0, 0]	n/a	FR1	1	R1096E
2226.637	2.567	2800788	ORIENT	n/a	n/a	n/a	-999	21	[0, 0, 0]	n/a	FR1	1	R1096E
2229.204	2.45	2803355	WORD	n/a	wordpools/wordpool_EN.txt	STEM	1	21	[0, 0, 0]	n/a	FR1	1	R1096E
2231.654	2.401	2805805	WORD	n/a	wordpools/wordpool_EN.txt	MOON	2	21	[0, 0, 0]	n/a	FR1	1	R1096E
2234.055	2.416	2808205	WORD	n/a	wordpools/wordpool_EN.txt	EGG	3	21	[0, 0, 0]	n/a	FR1	1	R1096E
2236.471	2.401	2810621	WORD	n/a	wordpools/wordpool_EN.txt	TOAD	4	21	[0, 0, 0]	n/a	FR1	1	R1096E
2238.872	2.433	2813022	WORD	n/a	wordpools/wordpool_EN.txt	LEAF	5	21	[0, 0, 0]	n/a	FR1	1	R1096E
2241.305	2.485	2815455	WORD	n/a	wordpools/wordpool_EN.txt	HORSE	6	21	[0, 0, 0]	n/a	FR1	1	R1096E
2243.79	2.4	2817940	WORD	n/a	wordpools/wordpool_EN.txt	CASH	7	21	[0, 0, 0]	n/a	FR1	1	R1096E
2246.19	2.584	2820340	WORD	n/a	wordpools/wordpool_EN.txt	POLE	8	21	[0, 0, 0]	n/a	FR1	1	R1096E
2248.774	2.466	2822924	WORD	n/a	wordpools/wordpool_EN.txt	CORD	9	21	[0, 0, 0]	n/a	FR1	1	R1096E
2251.24	2.435	2825390	WORD	n/a	wordpools/wordpool_EN.txt	BOOK	10	21	[0, 0, 0]	n/a	FR1	1	R1096E
2253.675	2.517	2827824	WORD	n/a	wordpools/wordpool_EN.txt	FUDGE	11	21	[0, 0, 0]	n/a	FR1	1	R1096E
2256.192	1.617	2830341	WORD	n/a	wordpools/wordpool_EN.txt	SEED	12	21	[0, 0, 0]	n/a	FR1	1	R1096E
2257.809	0.001	2831958	DISTRACT_START	n/a	n/a	n/a	-999	21	[0, 0, 0]	n/a	FR1	1	R1096E
2257.81	0.016	2831959	START	n/a	n/a	n/a	-999	21	[-999, -999, -999]	n/a	FR1	1	R1096E
2257.826	9.051	2831975	PROB	9.051	n/a	n/a	-999	21	[8, 4, 6]	18	FR1	1	R1096E
2266.877	4.118	2841026	PROB	4.118	n/a	n/a	-999	21	[9, 5, 1]	15	FR1	1	R1096E
2270.995	7.088	2845143	PROB	7.088	n/a	n/a	-999	21	[8, 9, 7]	21	FR1	1	R1096E
2278.083	0.013	2852231	STOP	n/a	n/a	n/a	-999	21	[-999, -999, -999]	n/a	FR1	1	R1096E
2278.096	1.084	2852244	DISTRACT_END	n/a	n/a	n/a	-999	21	[0, 0, 0]	n/a	FR1	1	R1096E
2279.18	1.781	2853328	REC_START	n/a	n/a	n/a	-999	21	[0, 0, 0]	n/a	FR1	1	R1096E
2280.961	0.994	2855109	REC_WORD	0.994	n/a	STEM	-999	21	[0, 0, 0]	n/a	FR1	1	R1096E
2281.955	0.918	2856103	REC_WORD	0.918	n/a	SEED	-999	21	[0, 0, 0]	n/a	FR1	1	R1096E
2282.873	1.005	2857021	REC_WORD	1.005	n/a	EGG	-999	21	[0, 0, 0]	n/a	FR1	1	R1096E
2283.878	0.907	2858026	REC_WORD	0.907	n/a	FUDGE	-999	21	[0, 0, 0]	n/a	FR1	1	R1096E
2284.785	1.364	2858933	REC_WORD	1.364	n/a	CORD	-999	21	[0, 0, 0]	n/a	FR1	1	R1096E
2286.149	5.898	2860297	REC_WORD	5.898	n/a	LEAF	-999	21	[0, 0, 0]	n/a	FR1	1	R1096E
2292.047	2.662	2866194	REC_WORD	2.662	n/a	MOON	-999	21	[0, 0, 0]	n/a	FR1	1	R1096E
2294.709	11.442	2868856	REC_WORD	11.442	n/a	EGG	-999	21	[0, 0, 0]	n/a	FR1	1	R1096E
2306.151	3.039	2880298	REC_WORD	3.039	n/a	ROPE	-999	21	[0, 0, 0]	n/a	FR1	1	R1096E
2309.19	2.127	2883336	REC_END	n/a	n/a	n/a	-999	21	[0, 0, 0]	n/a	FR1	1	R1096E
2311.317	0.0	2885463	TRIAL	n/a	n/a	n/a	-999	22	[0, 0, 0]	n/a	FR1	1	R1096E
2311.317	10.428	2885463	COUNTDOWN_START	n/a	n/a	n/a	-999	22	[0, 0, 0]	n/a	FR1	1	R1096E
2321.745	0.008	2895891	COUNTDOWN_END	n/a	n/a	n/a	-999	22	[0, 0, 0]	n/a	FR1	1	R1096E
2321.753	2.5	2895899	ORIENT	n/a	n/a	n/a	-999	22	[0, 0, 0]	n/a	FR1	1	R1096E
2324.253	2.451	2898399	WORD	n/a	wordpools/wordpool_EN.txt	JUICE	1	22	[0, 0, 0]	n/a	FR1	1	R1096E
2326.704	2.501	2900849	WORD	n/a	wordpools/wordpool_EN.txt	DIME	2	22	[0, 0, 0]	n/a	FR1	1	R1096E
2329.205	2.5	2903350	WORD	n/a	wordpools/wordpool_EN.txt	BLUSH	3	22	[0, 0, 0]	n/a	FR1	1	R1096E
2331.705	2.55	2905850	WORD	n/a	wordpools/wordpool_EN.txt	DITCH	4	22	[0, 0, 0]	n/a	FR1	1	R1096E
2334.255	2.484	2908400	WORD	n/a	wordpools/wordpool_EN.txt	HOLE	5	22	[0, 0, 0]	n/a	FR1	1	R1096E
2336.739	2.6	2910884	WORD	n/a	wordpools/wordpool_EN.txt	STOVE	6	22	[0, 0, 0]	n/a	FR1	1	R1096E
2339.339	2.385	2913484	WORD	n/a	wordpools/wordpool_EN.txt	CAKE	7	22	[0, 0, 0]	n/a	FR1	1	R1096E
2341.724	2.599	2915869	WORD	n/a	wordpools/wordpool_EN.txt	BATH	8	22	[0, 0, 0]	n/a	FR1	1	R1096E
2344.323	2.535	2918467	WORD	n/a	wordpools/wordpool_EN.txt	GLOVE	9	22	[0, 0, 0]	n/a	FR1	1	R1096E
2346.858	2.549	2921002	WORD	n/a	wordpools/wordpool_EN.txt	SOAP	10	22	[0, 0, 0]	n/a	FR1	1	R1096E
2349.407	2.585	2923551	WORD	n/a	wordpools/wordpool_EN.txt	SOCK	11	22	[0, 0, 0]	n/a	FR1	1	R1096E
2351.992	1.616	2926136	WORD	n/a	wordpools/wordpool_EN.txt	CHALK	12	22	[0, 0, 0]	n/a	FR1	1	R1096E
2353.608	0.001	2927752	DISTRACT_START	n/a	n/a	n/a	-999	22	[0, 0, 0]	n/a	FR1	1	R1096E
2353.609	0.017	2927753	START	n/a	n/a	n/a	-999	22	[-999, -999, -999]	n/a	FR1	1	R1096E
2353.626	10.285	2927770	PROB	10.285	n/a	n/a	-999	22	[3, 8, 6]	17	FR1	1	R1096E
2363.911	6.65	2938054	PROB	6.65	n/a	n/a	-999	22	[6, 3, 4]	13	FR1	1	R1096E
2370.561	5.318	2944704	PROB	5.318	n/a	n/a	-999	22	[9, 7, 3]	19	FR1	1	R1096E
2375.879	0.017	2950022	STOP	n/a	n/a	n/a	-999	22	[-999, -999, -999]	n/a	FR1	1	R1096E
2375.896	1.151	2950039	DISTRACT_END	n/a	n/a	n/a	-999	22	[0, 0, 0]	n/a	FR1	1	R1096E
2377.047	1.629	2951190	REC_START	n/a	n/a	n/a	-999	22	[0, 0, 0]	n/a	FR1	1	R1096E
2378.676	0.757	2952819	REC_WORD	0.757	n/a	BATH	-999	22	[0, 0, 0]	n/a	FR1	1	R1096E
2379.433	4.011	2953576	REC_WORD	4.011	n/a	SOAP	-999	22	[0, 0, 0]	n/a	FR1	1	R1096E
2383.444	10.765	2957586	REC_WORD	10.765	n/a	SOCK	-999	22	[0, 0, 0]	n/a	FR1	1	R1096E
2394.209	0.813	2968351	REC_WORD	0.813	n/a	CAKE	-999	22	[0, 0, 0]	n/a	FR1	1	R1096E
2395.022	0.996	2969164	REC_WORD	0.996	n/a	BLUSH	-999	22	[0, 0, 0]	n/a	FR1	1	R1096E
2396.018	1.304	2970160	REC_WORD	1.304	n/a	DITCH	-999	22	[0, 0, 0]	n/a	FR1	1	R1096E
2397.322	2.098	2971464	REC_WORD	2.098	n/a	HOLE	-999	22	[0, 0, 0]	n/a	FR1	1	R1096E
2399.42	1.271	2973561	REC_WORD	1.271	n/a	PIT	-999	22	[0, 0, 0]	n/a	FR1	1	R1096E
2400.691	6.366	2974832	REC_WORD	6.366	n/a	STOVE	-999	22	[0, 0, 0]	n/a	FR1	1	R1096E
2407.057	2.745	2981198	REC_END	n/a	n/a	n/a	-999	22	[0, 0, 0]	n/a	FR1	1	R1096E
2409.802	0.0	2983943	TRIAL	n/a	n/a	n/a	-999	23	[0, 0, 0]	n/a	FR1	1	R1096E
2409.802	10.428	2983943	COUNTDOWN_START	n/a	n/a	n/a	-999	23	[0, 0, 0]	n/a	FR1	1	R1096E
2420.23	0.007	2994370	COUNTDOWN_END	n/a	n/a	n/a	-999	23	[0, 0, 0]	n/a	FR1	1	R1096E
2420.237	2.384	2994377	ORIENT	n/a	n/a	n/a	-999	23	[0, 0, 0]	n/a	FR1	1	R1096E
2422.621	2.434	2996761	WORD	n/a	wordpools/wordpool_EN.txt	INK	1	23	[0, 0, 0]	n/a	FR1	1	R1096E
2425.055	2.617	2999195	WORD	n/a	wordpools/wordpool_EN.txt	FENCE	2	23	[0, 0, 0]	n/a	FR1	1	R1096E
2427.672	2.549	3001812	WORD	n/a	wordpools/wordpool_EN.txt	TRAY	3	23	[0, 0, 0]	n/a	FR1	1	R1096E
2430.221	2.535	3004361	WORD	n/a	wordpools/wordpool_EN.txt	STICK	4	23	[0, 0, 0]	n/a	FR1	1	R1096E
2432.756	2.617	3006896	WORD	n/a	wordpools/wordpool_EN.txt	STAIR	5	23	[0, 0, 0]	n/a	FR1	1	R1096E
2435.373	2.418	3009512	WORD	n/a	wordpools/wordpool_EN.txt	SHEEP	6	23	[0, 0, 0]	n/a	FR1	1	R1096E
2437.791	2.4	3011930	WORD	n/a	wordpools/wordpool_EN.txt	MUG	7	23	[0, 0, 0]	n/a	FR1	1	R1096E
2440.191	2.5	3014330	WORD	n/a	wordpools/wordpool_EN.txt	SHARK	8	23	[0, 0, 0]	n/a	FR1	1	R1096E
2442.691	2.567	3016830	WORD	n/a	wordpools/wordpool_EN.txt	ROSE	9	23	[0, 0, 0]	n/a	FR1	1	R1096E
2445.258	2.434	3019397	WORD	n/a	wordpools/wordpool_EN.txt	CANE	10	23	[0, 0, 0]	n/a	FR1	1	R1096E
2447.692	2.583	3021831	WORD	n/a	wordpools/wordpool_EN.txt	BARN	11	23	[0, 0, 0]	n/a	FR1	1	R1096E
2450.275	1.601	3024414	WORD	n/a	wordpools/wordpool_EN.txt	PEN	12	23	[0, 0, 0]	n/a	FR1	1	R1096E
2451.876	0.001	3026015	DISTRACT_START	n/a	n/a	n/a	-999	23	[0, 0, 0]	n/a	FR1	1	R1096E
2451.877	0.016	3026016	START	n/a	n/a	n/a	-999	23	[-999, -999, -999]	n/a	FR1	1	R1096E
2451.893	3.901	3026032	PROB	3.901	n/a	n/a	-999	23	[5, 3, 7]	15	FR1	1	R1096E
2455.794	5.184	3029932	PROB	5.184	n/a	n/a	-999	23	[3, 8, 9]	20	FR1	1	R1096E
2460.978	4.151	3035116	PROB	4.151	n/a	n/a	-999	23	[6, 3, 1]	10	FR1	1	R1096E
2465.129	4.149	3039267	PROB	4.149	n/a	n/a	-999	23	[4, 9, 9]	22	FR1	1	R1096E
2469.278	3.925	3043416	PROB	3.925	n/a	n/a	-999	23	[8, 3, 1]	12	FR1	1	R1096E
2473.203	0.01	3047340	STOP	n/a	n/a	n/a	-999	23	[-999, -999, -999]	n/a	FR1	1	R1096E
2473.213	1.05	3047350	DISTRACT_END	n/a	n/a	n/a	-999	23	[0, 0, 0]	n/a	FR1	1	R1096E
2474.263	1.486	3048400	REC_START	n/a	n/a	n/a	-999	23	[0, 0, 0]	n/a	FR1	1	R1096E
2475.749	1.139	3049886	REC_WORD	1.139	n/a	INK	-999	23	[0, 0, 0]	n/a	FR1	1	R1096E
2476.888	1.701	3051025	REC_WORD	1.701	n/a	MUG	-999	23	[0, 0, 0]	n/a	FR1	1	R1096E
2478.589	2.767	3052726	REC_WORD	2.767	n/a	ROSE	-999	23	[0, 0, 0]	n/a	FR1	1	R1096E
2481.356	11.684	3055493	REC_WORD	11.684	n/a	STAIR	-999	23	[0, 0, 0]	n/a	FR1	1	R1096E
2493.04	4.605	3067176	REC_WORD	4.605	n/a	ROAD	-999	23	[0, 0, 0]	n/a	FR1	1	R1096E
2497.645	3.484	3071781	REC_WORD	3.484	n/a	SHARK	-999	23	[0, 0, 0]	n/a	FR1	1	R1096E
2501.129	3.144	3075265	REC_WORD	3.144	n/a	MUD	-999	23	[0, 0, 0]	n/a	FR1	1	R1096E
2504.273	5.764	3078409	REC_END	n/a	n/a	n/a	-999	23	[0, 0, 0]	n/a	FR1	1	R1096E
2510.037	0.0	3084172	TRIAL	n/a	n/a	n/a	-999	24	[0, 0, 0]	n/a	FR1	1	R1096E
2510.037	10.428	3084172	COUNTDOWN_START	n/a	n/a	n/a	-999	24	[0, 0, 0]	n/a	FR1	1	R1096E
2520.465	0.006	3094600	COUNTDOWN_END	n/a	n/a	n/a	-999	24	[0, 0, 0]	n/a	FR1	1	R1096E
2520.471	2.568	3094606	ORIENT	n/a	n/a	n/a	-999	24	[0, 0, 0]	n/a	FR1	1	R1096E
2523.039	2.466	3097174	WORD	n/a	wordpools/wordpool_EN.txt	SEAT	1	24	[0, 0, 0]	n/a	FR1	1	R1096E
2525.505	2.551	3099640	WORD	n/a	wordpools/wordpool_EN.txt	DOOR	2	24	[0, 0, 0]	n/a	FR1	1	R1096E
2528.056	2.467	3102190	WORD	n/a	wordpools/wordpool_EN.txt	THUMB	3	24	[0, 0, 0]	n/a	FR1	1	R1096E
2530.523	2.518	3104657	WORD	n/a	wordpools/wordpool_EN.txt	BROOM	4	24	[0, 0, 0]	n/a	FR1	1	R1096E
2533.041	2.466	3107175	WORD	n/a	wordpools/wordpool_EN.txt	HAND	5	24	[0, 0, 0]	n/a	FR1	1	R1096E
2535.507	2.418	3109641	WORD	n/a	wordpools/wordpool_EN.txt	CRANE	6	24	[0, 0, 0]	n/a	FR1	1	R1096E
2537.925	2.516	3112059	WORD	n/a	wordpools/wordpool_EN.txt	TOOL	7	24	[0, 0, 0]	n/a	FR1	1	R1096E
2540.441	2.451	3114575	WORD	n/a	wordpools/wordpool_EN.txt	HOUSE	8	24	[0, 0, 0]	n/a	FR1	1	R1096E
2542.892	2.433	3117026	WORD	n/a	wordpools/wordpool_EN.txt	SHOE	9	24	[0, 0, 0]	n/a	FR1	1	R1096E
2545.325	2.418	3119458	WORD	n/a	wordpools/wordpool_EN.txt	HORN	10	24	[0, 0, 0]	n/a	FR1	1	R1096E
2547.743	2.5	3121876	WORD	n/a	wordpools/wordpool_EN.txt	LOCK	11	24	[0, 0, 0]	n/a	FR1	1	R1096E
2550.243	1.618	3124376	WORD	n/a	wordpools/wordpool_EN.txt	FROG	12	24	[0, 0, 0]	n/a	FR1	1	R1096E
2551.861	0.0	3125994	DISTRACT_START	n/a	n/a	n/a	-999	24	[0, 0, 0]	n/a	FR1	1	R1096E
2551.861	0.016	3125994	START	n/a	n/a	n/a	-999	24	[-999, -999, -999]	n/a	FR1	1	R1096E
2551.877	5.384	3126010	PROB	5.384	n/a	n/a	-999	24	[1, 1, 8]	10	FR1	1	R1096E
2557.261	6.485	3131394	PROB	6.485	n/a	n/a	-999	24	[5, 4, 5]	14	FR1	1	R1096E
2563.746	5.483	3137878	PROB	5.483	n/a	n/a	-999	24	[7, 4, 6]	17	FR1	1	R1096E
2569.229	4.152	3143361	PROB	4.152	n/a	n/a	-999	24	[4, 4, 9]	17	FR1	1	R1096E
2573.381	0.016	3147513	STOP	n/a	n/a	n/a	-999	24	[-999, -999, -999]	n/a	FR1	1	R1096E
2573.397	1.117	3147529	DISTRACT_END	n/a	n/a	n/a	-999	24	[0, 0, 0]	n/a	FR1	1	R1096E
2574.514	2.038	3148646	REC_START	n/a	n/a	n/a	-999	24	[0, 0, 0]	n/a	FR1	1	R1096E
2576.552	1.407	3150684	REC_WORD	1.407	n/a	FROG	-999	24	[0, 0, 0]	n/a	FR1	1	R1096E
2577.959	1.784	3152091	REC_WORD	1.784	n/a	LOCK	-999	24	[0, 0, 0]	n/a	FR1	1	R1096E
2579.743	1.1	3153875	REC_WORD	1.1	n/a	THUMB	-999	24	[0, 0, 0]	n/a	FR1	1	R1096E
2580.843	1.014	3154974	REC_WORD	1.014	n/a	TOOL	-999	24	[0, 0, 0]	n/a	FR1	1	R1096E
2581.857	3.331	3155988	REC_WORD	3.331	n/a	HAND	-999	24	[0, 0, 0]	n/a	FR1	1	R1096E
2585.188	11.115	3159319	REC_WORD	11.115	n/a	CRANE	-999	24	[0, 0, 0]	n/a	FR1	1	R1096E
2596.303	8.23	3170434	REC_WORD	8.23	n/a	HOUSE	-999	24	[0, 0, 0]	n/a	FR1	1	R1096E
2604.533	3.437	3178663	REC_END	n/a	n/a	n/a	-999	24	[0, 0, 0]	n/a	FR1	1	R1096E
2607.97	0.001	3182100	COUNTDOWN_START	n/a	n/a	n/a	-999	25	[0, 0, 0]	n/a	FR1	1	R1096E
2607.971	10.427	3182101	TRIAL	n/a	n/a	n/a	-999	25	[0, 0, 0]	n/a	FR1	1	R1096E
2618.398	0.007	3192527	COUNTDOWN_END	n/a	n/a	n/a	-999	25	[0, 0, 0]	n/a	FR1	1	R1096E
2618.405	2.501	3192534	ORIENT	n/a	n/a	n/a	-999	25	[0, 0, 0]	n/a	FR1	1	R1096E
2620.906	2.533	3195035	WORD	n/a	wordpools/wordpool_EN.txt	CROW	1	25	[0, 0, 0]	n/a	FR1	1	R1096E
2623.439	2.485	3197568	WORD	n/a	wordpools/wordpool_EN.txt	ROOT	2	25	[0, 0, 0]	n/a	FR1	1	R1096E
2625.924	2.399	3200053	WORD	n/a	wordpools/wordpool_EN.txt	PLANT	3	25	[0, 0, 0]	n/a	FR1	1	R1096E
2628.323	2.518	3202452	WORD	n/a	wordpools/wordpool_EN.txt	CHIEF	4	25	[0, 0, 0]	n/a	FR1	1	R1096E
2630.841	2.583	3204970	WORD	n/a	wordpools/wordpool_EN.txt	TEETH	5	25	[0, 0, 0]	n/a	FR1	1	R1096E
2633.424	2.401	3207553	WORD	n/a	wordpools/wordpool_EN.txt	SHIELD	6	25	[0, 0, 0]	n/a	FR1	1	R1096E
2635.825	2.616	3209953	WORD	n/a	wordpools/wordpool_EN.txt	CAVE	7	25	[0, 0, 0]	n/a	FR1	1	R1096E
2638.441	2.485	3212569	WORD	n/a	wordpools/wordpool_EN.txt	WEED	8	25	[0, 0, 0]	n/a	FR1	1	R1096E
2640.926	2.416	3215054	WORD	n/a	wordpools/wordpool_EN.txt	BRUSH	9	25	[0, 0, 0]	n/a	FR1	1	R1096E
2643.342	2.468	3217470	WORD	n/a	wordpools/wordpool_EN.txt	PASTE	10	25	[0, 0, 0]	n/a	FR1	1	R1096E
2645.81	2.583	3219938	WORD	n/a	wordpools/wordpool_EN.txt	SEAL	11	25	[0, 0, 0]	n/a	FR1	1	R1096E
2648.393	1.618	3222521	WORD	n/a	wordpools/wordpool_EN.txt	FOAM	12	25	[0, 0, 0]	n/a	FR1	1	R1096E
2650.011	0.001	3224139	DISTRACT_START	n/a	n/a	n/a	-999	25	[0, 0, 0]	n/a	FR1	1	R1096E
2650.012	0.016	3224140	START	n/a	n/a	n/a	-999	25	[-999, -999, -999]	n/a	FR1	1	R1096E
2650.028	6.018	3224156	PROB	6.018	n/a	n/a	-999	25	[1, 3, 4]	8	FR1	1	R1096E
2656.046	4.8	3230173	PROB	4.8	n/a	n/a	-999	25	[2, 4, 5]	11	FR1	1	R1096E
2660.846	4.251	3234973	PROB	4.251	n/a	n/a	-999	25	[8, 6, 2]	16	FR1	1	R1096E
2665.097	7.458	3239224	PROB	7.458	n/a	n/a	-999	25	[4, 6, 9]	19	FR1	1	R1096E
2672.555	0.009	3246681	STOP	n/a	n/a	n/a	-999	25	[-999, -999, -999]	n/a	FR1	1	R1096E
2672.564	1.085	3246690	DISTRACT_END	n/a	n/a	n/a	-999	25	[0, 0, 0]	n/a	FR1	1	R1096E
2673.649	1.68	3247775	REC_START	n/a	n/a	n/a	-999	25	[0, 0, 0]	n/a	FR1	1	R1096E
2675.329	0.995	3249455	REC_WORD	0.995	n/a	BRUSH	-999	25	[0, 0, 0]	n/a	FR1	1	R1096E
2676.324	0.987	3250450	REC_WORD	0.987	n/a	PASTE	-999	25	[0, 0, 0]	n/a	FR1	1	R1096E
2677.311	2.456	3251437	REC_WORD	2.456	n/a	FOAM	-999	25	[0, 0, 0]	n/a	FR1	1	R1096E
2679.767	0.852	3253893	REC_WORD	0.852	n/a	ROOT	-999	25	[0, 0, 0]	n/a	FR1	1	R1096E
2680.619	3.849	3254745	REC_WORD	3.849	n/a	STEM	-999	25	[0, 0, 0]	n/a	FR1	1	R1096E
2684.468	19.197	3258594	REC_WORD	19.197	n/a	CROW	-999	25	[0, 0, 0]	n/a	FR1	1	R1096E
2703.665	0.0	3277790	REC_END	n/a	n/a	n/a	-999	25	[0, 0, 0]	n/a	FR1	1	R1096E
