onset	duration	sample	trial_type	response_time	stim_file	item_name	serialpos	list	test	answer	experiment	session	subject
0.0	19.492	229832	SESS_START	n/a	n/a	n/a	-999	-999	[0, 0, 0]	n/a	FR1	0	R1571T
19.492	10.428	249323	COUNTDOWN_START	n/a	n/a	n/a	-999	-999	[0, 0, 0]	n/a	FR1	0	R1571T
29.92	3.891	259751	COUNTDOWN_END	n/a	n/a	n/a	-999	-999	[0, 0, 0]	n/a	FR1	0	R1571T
33.811	2.484	263641	PRACTICE_WORD	n/a	n/a	RHINO	1	-1	[0, 0, 0]	n/a	FR1	0	R1571T
36.295	2.4	266125	PRACTICE_WORD	n/a	n/a	WATCH	2	-1	[0, 0, 0]	n/a	FR1	0	R1571T
38.695	2.401	268525	PRACTICE_WORD	n/a	n/a	COTTON	3	-1	[0, 0, 0]	n/a	FR1	0	R1571T
41.096	2.616	270926	PRACTICE_WORD	n/a	n/a	BEAM	4	-1	[0, 0, 0]	n/a	FR1	0	R1571T
43.712	2.552	273542	PRACTICE_WORD	n/a	n/a	ATTIC	5	-1	[0, 0, 0]	n/a	FR1	0	R1571T
46.264	2.482	276094	PRACTICE_WORD	n/a	n/a	CAMEL	6	-1	[0, 0, 0]	n/a	FR1	0	R1571T
48.746	2.535	278576	PRACTICE_WORD	n/a	n/a	TONGUE	7	-1	[0, 0, 0]	n/a	FR1	0	R1571T
51.281	2.549	281111	PRACTICE_WORD	n/a	n/a	CHEST	8	-1	[0, 0, 0]	n/a	FR1	0	R1571T
53.83	2.552	283660	PRACTICE_WORD	n/a	n/a	RING	9	-1	[0, 0, 0]	n/a	FR1	0	R1571T
56.382	2.6	286212	PRACTICE_WORD	n/a	n/a	IRON	10	-1	[0, 0, 0]	n/a	FR1	0	R1571T
58.982	2.6	288812	PRACTICE_WORD	n/a	n/a	FLOOD	11	-1	[0, 0, 0]	n/a	FR1	0	R1571T
61.582	1.618	291412	PRACTICE_WORD	n/a	n/a	WAGON	12	-1	[0, 0, 0]	n/a	FR1	0	R1571T
63.2	0.0	293029	PRACTICE_DISTRACT_START	n/a	n/a	n/a	-999	-1	[0, 0, 0]	n/a	FR1	0	R1571T
63.2	0.016	293029	START	n/a	n/a	n/a	-999	-1	[-999, -999, -999]	n/a	FR1	0	R1571T
63.216	6.55	293045	PROB	6.55	n/a	n/a	-999	-1	[2, 8, 9]	19	FR1	0	R1571T
69.766	5.252	299595	PROB	5.252	n/a	n/a	-999	-1	[4, 4, 5]	13	FR1	0	R1571T
75.018	2.034	304847	PROB	2.034	n/a	n/a	-999	-1	[6, 4, 2]	12	FR1	0	R1571T
77.052	5.816	306881	PROB	5.816	n/a	n/a	-999	-1	[9, 5, 2]	16	FR1	0	R1571T
82.868	2.299	312697	PROB	2.299	n/a	n/a	-999	-1	[5, 2, 5]	12	FR1	0	R1571T
85.167	0.019	314996	STOP	n/a	n/a	n/a	-999	-1	[-999, -999, -999]	n/a	FR1	0	R1571T
85.186	0.634	315015	PRACTICE_DISTRACT_END	n/a	n/a	n/a	-999	-1	[0, 0, 0]	n/a	FR1	0	R1571T
85.82	30.517	315649	PRACTICE_REC_START	n/a	n/a	n/a	-999	-1	[0, 0, 0]	n/a	FR1	0	R1571T
116.337	34.843	346165	PRACTICE_REC_END	n/a	n/a	n/a	-999	-1	[0, 0, 0]	n/a	FR1	0	R1571T
151.18	0.0	381007	TRIAL	n/a	n/a	n/a	-999	1	[0, 0, 0]	n/a	FR1	0	R1571T
151.18	10.428	381007	COUNTDOWN_START	n/a	n/a	n/a	-999	1	[0, 0, 0]	n/a	FR1	0	R1571T
161.608	0.006	391434	COUNTDOWN_END	n/a	n/a	n/a	-999	1	[0, 0, 0]	n/a	FR1	0	R1571T
161.614	2.518	391440	ORIENT	n/a	n/a	n/a	-999	1	[0, 0, 0]	n/a	FR1	0	R1571T
164.132	2.466	393958	WORD	n/a	wordpools/wordpool_EN.txt	PEAR	1	1	[0, 0, 0]	n/a	FR1	0	R1571T
166.598	2.452	396424	WORD	n/a	wordpools/wordpool_EN.txt	CALF	2	1	[0, 0, 0]	n/a	FR1	0	R1571T
169.05	2.416	398876	WORD	n/a	wordpools/wordpool_EN.txt	FOX	3	1	[0, 0, 0]	n/a	FR1	0	R1571T
171.466	2.635	401292	WORD	n/a	wordpools/wordpool_EN.txt	EEL	4	1	[0, 0, 0]	n/a	FR1	0	R1571T
174.101	2.432	403927	WORD	n/a	wordpools/wordpool_EN.txt	MOUTH	5	1	[0, 0, 0]	n/a	FR1	0	R1571T
176.533	2.535	406359	WORD	n/a	wordpools/wordpool_EN.txt	ROOT	6	1	[0, 0, 0]	n/a	FR1	0	R1571T
179.068	2.516	408894	WORD	n/a	wordpools/wordpool_EN.txt	CHIEF	7	1	[0, 0, 0]	n/a	FR1	0	R1571T
181.584	2.551	411410	WORD	n/a	wordpools/wordpool_EN.txt	LEAF	8	1	[0, 0, 0]	n/a	FR1	0	R1571T
184.135	2.433	413960	WORD	n/a	wordpools/wordpool_EN.txt	TOOTH	9	1	[0, 0, 0]	n/a	FR1	0	R1571T
186.568	2.418	416393	WORD	n/a	wordpools/wordpool_EN.txt	WEB	10	1	[0, 0, 0]	n/a	FR1	0	R1571T
188.986	2.516	418811	WORD	n/a	wordpools/wordpool_EN.txt	CHALK	11	1	[0, 0, 0]	n/a	FR1	0	R1571T
191.502	1.601	421327	WORD	n/a	wordpools/wordpool_EN.txt	BRANCH	12	1	[0, 0, 0]	n/a	FR1	0	R1571T
193.103	0.001	422928	DISTRACT_START	n/a	n/a	n/a	-999	1	[0, 0, 0]	n/a	FR1	0	R1571T
193.104	0.016	422929	START	n/a	n/a	n/a	-999	1	[-999, -999, -999]	n/a	FR1	0	R1571T
193.12	9.617	422945	PROB	9.617	n/a	n/a	-999	1	[7, 5, 4]	16	FR1	0	R1571T
202.737	3.619	432562	PROB	3.619	n/a	n/a	-999	1	[1, 6, 9]	16	FR1	0	R1571T
206.356	13.191	436181	PROB	13.191	n/a	n/a	-999	1	[6, 9, 6]	21	FR1	0	R1571T
219.547	0.01	449371	STOP	n/a	n/a	n/a	-999	1	[-999, -999, -999]	n/a	FR1	0	R1571T
219.557	1.222	449381	DISTRACT_END	n/a	n/a	n/a	-999	1	[0, 0, 0]	n/a	FR1	0	R1571T
220.779	2.543	450603	REC_START	n/a	n/a	n/a	-999	1	[0, 0, 0]	n/a	FR1	0	R1571T
223.322	2.494	453146	REC_WORD_VV	2.494	n/a	<>	-999	1	[0, 0, 0]	n/a	FR1	0	R1571T
225.816	0.521	455640	REC_WORD_VV	0.521	n/a	<>	-999	1	[0, 0, 0]	n/a	FR1	0	R1571T
226.337	1.907	456161	REC_WORD	1.907	n/a	CALF	2	1	[0, 0, 0]	n/a	FR1	0	R1571T
228.244	2.795	458068	REC_WORD	2.795	n/a	EEL	4	1	[0, 0, 0]	n/a	FR1	0	R1571T
231.039	2.755	460863	REC_WORD	2.755	n/a	MOUTH	5	1	[0, 0, 0]	n/a	FR1	0	R1571T
233.794	1.695	463618	REC_WORD_VV	1.695	n/a	<>	-999	1	[0, 0, 0]	n/a	FR1	0	R1571T
235.489	2.553	465313	REC_WORD_VV	2.553	n/a	<>	-999	1	[0, 0, 0]	n/a	FR1	0	R1571T
238.042	0.757	467866	REC_WORD_VV	0.757	n/a	<>	-999	1	[0, 0, 0]	n/a	FR1	0	R1571T
238.799	0.863	468623	REC_WORD	0.863	n/a	MOUTH	5	1	[0, 0, 0]	n/a	FR1	0	R1571T
239.662	2.043	469486	REC_WORD_VV	2.043	n/a	<>	-999	1	[0, 0, 0]	n/a	FR1	0	R1571T
241.705	2.863	471529	REC_WORD	2.863	n/a	EEL	4	1	[0, 0, 0]	n/a	FR1	0	R1571T
244.568	1.0	474391	REC_WORD	1.0	n/a	EEL	4	1	[0, 0, 0]	n/a	FR1	0	R1571T
245.568	0.156	475391	REC_WORD_VV	0.156	n/a	<>	-999	1	[0, 0, 0]	n/a	FR1	0	R1571T
245.724	3.604	475547	REC_WORD	3.604	n/a	MOUTH	5	1	[0, 0, 0]	n/a	FR1	0	R1571T
249.328	1.459	479151	REC_WORD	1.459	n/a	WEB	10	1	[0, 0, 0]	n/a	FR1	0	R1571T
250.787	19.728	480610	REC_END	n/a	n/a	n/a	-999	1	[0, 0, 0]	n/a	FR1	0	R1571T
270.515	0.0	500338	TRIAL	n/a	n/a	n/a	-999	2	[0, 0, 0]	n/a	FR1	0	R1571T
270.515	10.428	500338	COUNTDOWN_START	n/a	n/a	n/a	-999	2	[0, 0, 0]	n/a	FR1	0	R1571T
280.943	0.008	510765	COUNTDOWN_END	n/a	n/a	n/a	-999	2	[0, 0, 0]	n/a	FR1	0	R1571T
280.951	2.599	510773	ORIENT	n/a	n/a	n/a	-999	2	[0, 0, 0]	n/a	FR1	0	R1571T
283.55	2.385	513372	WORD	n/a	wordpools/wordpool_EN.txt	NAIL	1	2	[0, 0, 0]	n/a	FR1	0	R1571T
285.935	2.433	515757	WORD	n/a	wordpools/wordpool_EN.txt	PIT	2	2	[0, 0, 0]	n/a	FR1	0	R1571T
288.368	2.466	518190	WORD	n/a	wordpools/wordpool_EN.txt	FOOT	3	2	[0, 0, 0]	n/a	FR1	0	R1571T
290.834	2.568	520656	WORD	n/a	wordpools/wordpool_EN.txt	FACE	4	2	[0, 0, 0]	n/a	FR1	0	R1571T
293.402	2.601	523224	WORD	n/a	wordpools/wordpool_EN.txt	HILL	5	2	[0, 0, 0]	n/a	FR1	0	R1571T
296.003	2.466	525825	WORD	n/a	wordpools/wordpool_EN.txt	STICK	6	2	[0, 0, 0]	n/a	FR1	0	R1571T
298.469	2.485	528291	WORD	n/a	wordpools/wordpool_EN.txt	SOCK	7	2	[0, 0, 0]	n/a	FR1	0	R1571T
300.954	2.417	530776	WORD	n/a	wordpools/wordpool_EN.txt	DRESS	8	2	[0, 0, 0]	n/a	FR1	0	R1571T
303.371	2.383	533193	WORD	n/a	wordpools/wordpool_EN.txt	CONE	9	2	[0, 0, 0]	n/a	FR1	0	R1571T
305.754	2.551	535575	WORD	n/a	wordpools/wordpool_EN.txt	FLAME	10	2	[0, 0, 0]	n/a	FR1	0	R1571T
308.305	2.466	538126	WORD	n/a	wordpools/wordpool_EN.txt	BAG	11	2	[0, 0, 0]	n/a	FR1	0	R1571T
310.771	1.601	540592	WORD	n/a	wordpools/wordpool_EN.txt	FUDGE	12	2	[0, 0, 0]	n/a	FR1	0	R1571T
312.372	0.001	542193	DISTRACT_START	n/a	n/a	n/a	-999	2	[0, 0, 0]	n/a	FR1	0	R1571T
312.373	0.016	542194	START	n/a	n/a	n/a	-999	2	[-999, -999, -999]	n/a	FR1	0	R1571T
312.389	7.701	542210	PROB	7.701	n/a	n/a	-999	2	[5, 8, 7]	20	FR1	0	R1571T
320.09	6.084	549911	PROB	6.084	n/a	n/a	-999	2	[2, 7, 1]	10	FR1	0	R1571T
326.174	7.482	555995	PROB	7.482	n/a	n/a	-999	2	[8, 7, 7]	22	FR1	0	R1571T
333.656	0.018	563477	STOP	n/a	n/a	n/a	-999	2	[-999, -999, -999]	n/a	FR1	0	R1571T
333.674	1.035	563495	DISTRACT_END	n/a	n/a	n/a	-999	2	[0, 0, 0]	n/a	FR1	0	R1571T
334.709	3.476	564530	REC_START	n/a	n/a	n/a	-999	2	[0, 0, 0]	n/a	FR1	0	R1571T
338.185	3.056	568005	REC_WORD_VV	3.056	n/a	<>	-999	2	[0, 0, 0]	n/a	FR1	0	R1571T
341.241	1.0	571061	REC_WORD_VV	1.0	n/a	<>	-999	2	[0, 0, 0]	n/a	FR1	0	R1571T
342.241	3.766	572061	REC_WORD_VV	3.766	n/a	<>	-999	2	[0, 0, 0]	n/a	FR1	0	R1571T
346.007	1.0	575827	REC_WORD	1.0	n/a	FUDGE	12	2	[0, 0, 0]	n/a	FR1	0	R1571T
347.007	1.631	576827	REC_WORD_VV	1.631	n/a	<>	-999	2	[0, 0, 0]	n/a	FR1	0	R1571T
348.638	3.07	578458	REC_WORD	3.07	n/a	EEL	-999	2	[0, 0, 0]	n/a	FR1	0	R1571T
351.708	1.0	581528	REC_WORD_VV	1.0	n/a	<>	-999	2	[0, 0, 0]	n/a	FR1	0	R1571T
352.708	0.528	582528	REC_WORD_VV	0.528	n/a	<>	-999	2	[0, 0, 0]	n/a	FR1	0	R1571T
353.236	0.418	583056	REC_WORD	0.418	n/a	VINE	-999	2	[0, 0, 0]	n/a	FR1	0	R1571T
353.654	1.128	583474	REC_WORD_VV	1.128	n/a	<>	-999	2	[0, 0, 0]	n/a	FR1	0	R1571T
354.782	1.94	584602	REC_WORD_VV	1.94	n/a	<>	-999	2	[0, 0, 0]	n/a	FR1	0	R1571T
356.722	1.0	586542	REC_WORD_VV	1.0	n/a	<>	-999	2	[0, 0, 0]	n/a	FR1	0	R1571T
357.722	1.47	587542	REC_WORD_VV	1.47	n/a	<>	-999	2	[0, 0, 0]	n/a	FR1	0	R1571T
359.192	1.0	589012	REC_WORD_VV	1.0	n/a	<>	-999	2	[0, 0, 0]	n/a	FR1	0	R1571T
360.192	1.0	590012	REC_WORD_VV	1.0	n/a	<>	-999	2	[0, 0, 0]	n/a	FR1	0	R1571T
361.192	2.917	591012	REC_WORD_VV	2.917	n/a	<>	-999	2	[0, 0, 0]	n/a	FR1	0	R1571T
364.109	0.61	593929	REC_WORD_VV	0.61	n/a	<>	-999	2	[0, 0, 0]	n/a	FR1	0	R1571T
364.719	9.296	594539	REC_END	n/a	n/a	n/a	-999	2	[0, 0, 0]	n/a	FR1	0	R1571T
374.015	0.0	603834	TRIAL	n/a	n/a	n/a	-999	3	[0, 0, 0]	n/a	FR1	0	R1571T
374.015	10.428	603834	COUNTDOWN_START	n/a	n/a	n/a	-999	3	[0, 0, 0]	n/a	FR1	0	R1571T
384.443	0.006	614262	COUNTDOWN_END	n/a	n/a	n/a	-999	3	[0, 0, 0]	n/a	FR1	0	R1571T
384.449	2.535	614268	ORIENT	n/a	n/a	n/a	-999	3	[0, 0, 0]	n/a	FR1	0	R1571T
386.984	2.599	616803	WORD	n/a	wordpools/wordpool_EN.txt	BRICK	1	3	[0, 0, 0]	n/a	FR1	0	R1571T
389.583	2.452	619402	WORD	n/a	wordpools/wordpool_EN.txt	MAIL	2	3	[0, 0, 0]	n/a	FR1	0	R1571T
392.035	2.432	621854	WORD	n/a	wordpools/wordpool_EN.txt	FILM	3	3	[0, 0, 0]	n/a	FR1	0	R1571T
394.467	2.485	624286	WORD	n/a	wordpools/wordpool_EN.txt	JUDGE	4	3	[0, 0, 0]	n/a	FR1	0	R1571T
396.952	2.401	626770	WORD	n/a	wordpools/wordpool_EN.txt	DOOR	5	3	[0, 0, 0]	n/a	FR1	0	R1571T
399.353	2.449	629171	WORD	n/a	wordpools/wordpool_EN.txt	CAR	6	3	[0, 0, 0]	n/a	FR1	0	R1571T
401.802	2.518	631620	WORD	n/a	wordpools/wordpool_EN.txt	BOOK	7	3	[0, 0, 0]	n/a	FR1	0	R1571T
404.32	2.583	634138	WORD	n/a	wordpools/wordpool_EN.txt	KITE	8	3	[0, 0, 0]	n/a	FR1	0	R1571T
406.903	2.401	636721	WORD	n/a	wordpools/wordpool_EN.txt	INK	9	3	[0, 0, 0]	n/a	FR1	0	R1571T
409.304	2.617	639122	WORD	n/a	wordpools/wordpool_EN.txt	SKI	10	3	[0, 0, 0]	n/a	FR1	0	R1571T
411.921	2.566	641739	WORD	n/a	wordpools/wordpool_EN.txt	BANK	11	3	[0, 0, 0]	n/a	FR1	0	R1571T
414.487	1.618	644305	WORD	n/a	wordpools/wordpool_EN.txt	JAIL	12	3	[0, 0, 0]	n/a	FR1	0	R1571T
416.105	0.001	645923	DISTRACT_START	n/a	n/a	n/a	-999	3	[0, 0, 0]	n/a	FR1	0	R1571T
416.106	0.016	645924	START	n/a	n/a	n/a	-999	3	[-999, -999, -999]	n/a	FR1	0	R1571T
416.122	3.549	645940	PROB	3.549	n/a	n/a	-999	3	[1, 1, 8]	10	FR1	0	R1571T
419.671	8.085	649489	PROB	8.085	n/a	n/a	-999	3	[9, 7, 7]	23	FR1	0	R1571T
427.756	4.117	657573	PROB	4.117	n/a	n/a	-999	3	[6, 2, 4]	12	FR1	0	R1571T
431.873	4.629	661690	PROB	4.629	n/a	n/a	-999	3	[6, 7, 1]	14	FR1	0	R1571T
436.502	0.005	666319	STOP	n/a	n/a	n/a	-999	3	[-999, -999, -999]	n/a	FR1	0	R1571T
436.507	1.168	666324	DISTRACT_END	n/a	n/a	n/a	-999	3	[0, 0, 0]	n/a	FR1	0	R1571T
437.675	1.869	667492	REC_START	n/a	n/a	n/a	-999	3	[0, 0, 0]	n/a	FR1	0	R1571T
439.544	2.326	669361	REC_WORD	2.326	n/a	BRICK	1	3	[0, 0, 0]	n/a	FR1	0	R1571T
441.87	2.651	671687	REC_WORD_VV	2.651	n/a	<>	-999	3	[0, 0, 0]	n/a	FR1	0	R1571T
444.521	4.69	674338	REC_WORD_VV	4.69	n/a	<>	-999	3	[0, 0, 0]	n/a	FR1	0	R1571T
449.211	1.0	679028	REC_WORD	1.0	n/a	MAIL	2	3	[0, 0, 0]	n/a	FR1	0	R1571T
450.211	4.081	680028	REC_WORD_VV	4.081	n/a	<>	-999	3	[0, 0, 0]	n/a	FR1	0	R1571T
454.292	1.204	684109	REC_WORD	1.204	n/a	MAIL	2	3	[0, 0, 0]	n/a	FR1	0	R1571T
455.496	1.367	685313	REC_WORD_VV	1.367	n/a	<>	-999	3	[0, 0, 0]	n/a	FR1	0	R1571T
456.863	1.0	686679	REC_WORD	1.0	n/a	FAIL	-999	3	[0, 0, 0]	n/a	FR1	0	R1571T
457.863	2.398	687679	REC_WORD_VV	2.398	n/a	<>	-999	3	[0, 0, 0]	n/a	FR1	0	R1571T
460.261	2.317	690077	REC_WORD_VV	2.317	n/a	<>	-999	3	[0, 0, 0]	n/a	FR1	0	R1571T
462.578	1.0	692394	REC_WORD_VV	1.0	n/a	<>	-999	3	[0, 0, 0]	n/a	FR1	0	R1571T
463.578	2.165	693394	REC_WORD_VV	2.165	n/a	<>	-999	3	[0, 0, 0]	n/a	FR1	0	R1571T
465.743	1.0	695559	REC_WORD_VV	1.0	n/a	<>	-999	3	[0, 0, 0]	n/a	FR1	0	R1571T
466.743	0.943	696559	REC_WORD_VV	0.943	n/a	<>	-999	3	[0, 0, 0]	n/a	FR1	0	R1571T
467.686	41.883	697502	REC_END	n/a	n/a	n/a	-999	3	[0, 0, 0]	n/a	FR1	0	R1571T
509.569	0.0	739384	COUNTDOWN_START	n/a	n/a	n/a	-999	4	[0, 0, 0]	n/a	FR1	0	R1571T
509.569	10.428	739384	TRIAL	n/a	n/a	n/a	-999	4	[0, 0, 0]	n/a	FR1	0	R1571T
519.997	0.008	749811	COUNTDOWN_END	n/a	n/a	n/a	-999	4	[0, 0, 0]	n/a	FR1	0	R1571T
520.005	2.384	749819	ORIENT	n/a	n/a	n/a	-999	4	[0, 0, 0]	n/a	FR1	0	R1571T
522.389	2.399	752203	WORD	n/a	wordpools/wordpool_EN.txt	JUICE	1	4	[0, 0, 0]	n/a	FR1	0	R1571T
524.788	2.535	754602	WORD	n/a	wordpools/wordpool_EN.txt	CORN	2	4	[0, 0, 0]	n/a	FR1	0	R1571T
527.323	2.532	757137	WORD	n/a	wordpools/wordpool_EN.txt	CAGE	3	4	[0, 0, 0]	n/a	FR1	0	R1571T
529.855	2.502	759669	WORD	n/a	wordpools/wordpool_EN.txt	MUG	4	4	[0, 0, 0]	n/a	FR1	0	R1571T
532.357	2.382	762171	WORD	n/a	wordpools/wordpool_EN.txt	HORSE	5	4	[0, 0, 0]	n/a	FR1	0	R1571T
534.739	2.469	764553	WORD	n/a	wordpools/wordpool_EN.txt	ARM	6	4	[0, 0, 0]	n/a	FR1	0	R1571T
537.208	2.416	767022	WORD	n/a	wordpools/wordpool_EN.txt	STEAK	7	4	[0, 0, 0]	n/a	FR1	0	R1571T
539.624	2.434	769438	WORD	n/a	wordpools/wordpool_EN.txt	TOAST	8	4	[0, 0, 0]	n/a	FR1	0	R1571T
542.058	2.533	771872	WORD	n/a	wordpools/wordpool_EN.txt	CAVE	9	4	[0, 0, 0]	n/a	FR1	0	R1571T
544.591	2.618	774405	WORD	n/a	wordpools/wordpool_EN.txt	GLASS	10	4	[0, 0, 0]	n/a	FR1	0	R1571T
547.209	2.533	777022	WORD	n/a	wordpools/wordpool_EN.txt	HOOF	11	4	[0, 0, 0]	n/a	FR1	0	R1571T
549.742	1.618	779555	WORD	n/a	wordpools/wordpool_EN.txt	PLATE	12	4	[0, 0, 0]	n/a	FR1	0	R1571T
551.36	0.0	781173	DISTRACT_START	n/a	n/a	n/a	-999	4	[0, 0, 0]	n/a	FR1	0	R1571T
551.36	0.016	781173	START	n/a	n/a	n/a	-999	4	[-999, -999, -999]	n/a	FR1	0	R1571T
551.376	4.601	781189	PROB	4.601	n/a	n/a	-999	4	[8, 2, 8]	18	FR1	0	R1571T
555.977	3.184	785790	PROB	3.184	n/a	n/a	-999	4	[5, 3, 2]	10	FR1	0	R1571T
559.161	3.217	788974	PROB	3.217	n/a	n/a	-999	4	[2, 8, 6]	16	FR1	0	R1571T
562.378	7.15	792191	PROB	7.15	n/a	n/a	-999	4	[5, 8, 6]	19	FR1	0	R1571T
569.528	3.667	799341	PROB	3.667	n/a	n/a	-999	4	[6, 4, 4]	14	FR1	0	R1571T
573.195	0.018	803008	STOP	n/a	n/a	n/a	-999	4	[-999, -999, -999]	n/a	FR1	0	R1571T
573.213	1.167	803026	DISTRACT_END	n/a	n/a	n/a	-999	4	[0, 0, 0]	n/a	FR1	0	R1571T
574.38	5.039	804193	REC_START	n/a	n/a	n/a	-999	4	[0, 0, 0]	n/a	FR1	0	R1571T
579.419	2.867	809231	REC_WORD	2.867	n/a	PLATE	12	4	[0, 0, 0]	n/a	FR1	0	R1571T
582.286	0.631	812098	REC_WORD	0.631	n/a	LEAF	-999	4	[0, 0, 0]	n/a	FR1	0	R1571T
582.917	2.676	812729	REC_WORD_VV	2.676	n/a	<>	-999	4	[0, 0, 0]	n/a	FR1	0	R1571T
585.593	3.752	815405	REC_WORD_VV	3.752	n/a	<>	-999	4	[0, 0, 0]	n/a	FR1	0	R1571T
589.345	2.103	819157	REC_WORD	2.103	n/a	CORN	2	4	[0, 0, 0]	n/a	FR1	0	R1571T
591.448	3.128	821260	REC_WORD	3.128	n/a	CORN	2	4	[0, 0, 0]	n/a	FR1	0	R1571T
594.576	1.0	824388	REC_WORD_VV	1.0	n/a	<>	-999	4	[0, 0, 0]	n/a	FR1	0	R1571T
595.576	2.258	825388	REC_WORD_VV	2.258	n/a	<>	-999	4	[0, 0, 0]	n/a	FR1	0	R1571T
597.834	3.404	827646	REC_WORD_VV	3.404	n/a	<>	-999	4	[0, 0, 0]	n/a	FR1	0	R1571T
601.238	1.0	831050	REC_WORD_VV	1.0	n/a	<>	-999	4	[0, 0, 0]	n/a	FR1	0	R1571T
602.238	1.562	832050	REC_WORD_VV	1.562	n/a	<>	-999	4	[0, 0, 0]	n/a	FR1	0	R1571T
603.8	0.594	833612	REC_WORD_VV	0.594	n/a	<>	-999	4	[0, 0, 0]	n/a	FR1	0	R1571T
604.394	6.357	834206	REC_END	n/a	n/a	n/a	-999	4	[0, 0, 0]	n/a	FR1	0	R1571T
610.751	0.001	840562	COUNTDOWN_START	n/a	n/a	n/a	-999	5	[0, 0, 0]	n/a	FR1	0	R1571T
610.752	10.427	840563	TRIAL	n/a	n/a	n/a	-999	5	[0, 0, 0]	n/a	FR1	0	R1571T
621.179	0.008	850990	COUNTDOWN_END	n/a	n/a	n/a	-999	5	[0, 0, 0]	n/a	FR1	0	R1571T
621.187	2.567	850998	ORIENT	n/a	n/a	n/a	-999	5	[0, 0, 0]	n/a	FR1	0	R1571T
623.754	2.384	853565	WORD	n/a	wordpools/wordpool_EN.txt	SCHOOL	1	5	[0, 0, 0]	n/a	FR1	0	R1571T
626.138	2.566	855949	WORD	n/a	wordpools/wordpool_EN.txt	RAT	2	5	[0, 0, 0]	n/a	FR1	0	R1571T
628.704	2.385	858515	WORD	n/a	wordpools/wordpool_EN.txt	VAN	3	5	[0, 0, 0]	n/a	FR1	0	R1571T
631.089	2.466	860900	WORD	n/a	wordpools/wordpool_EN.txt	PET	4	5	[0, 0, 0]	n/a	FR1	0	R1571T
633.555	2.568	863366	WORD	n/a	wordpools/wordpool_EN.txt	HAWK	5	5	[0, 0, 0]	n/a	FR1	0	R1571T
636.123	2.583	865934	WORD	n/a	wordpools/wordpool_EN.txt	SKUNK	6	5	[0, 0, 0]	n/a	FR1	0	R1571T
638.706	2.601	868516	WORD	n/a	wordpools/wordpool_EN.txt	POND	7	5	[0, 0, 0]	n/a	FR1	0	R1571T
641.307	2.5	871117	WORD	n/a	wordpools/wordpool_EN.txt	DUCK	8	5	[0, 0, 0]	n/a	FR1	0	R1571T
643.807	2.6	873617	WORD	n/a	wordpools/wordpool_EN.txt	BOARD	9	5	[0, 0, 0]	n/a	FR1	0	R1571T
646.407	2.585	876217	WORD	n/a	wordpools/wordpool_EN.txt	DOCK	10	5	[0, 0, 0]	n/a	FR1	0	R1571T
648.992	2.466	878802	WORD	n/a	wordpools/wordpool_EN.txt	STORE	11	5	[0, 0, 0]	n/a	FR1	0	R1571T
651.458	1.601	881268	WORD	n/a	wordpools/wordpool_EN.txt	APE	12	5	[0, 0, 0]	n/a	FR1	0	R1571T
653.059	0.001	882869	DISTRACT_START	n/a	n/a	n/a	-999	5	[0, 0, 0]	n/a	FR1	0	R1571T
653.06	0.016	882870	START	n/a	n/a	n/a	-999	5	[-999, -999, -999]	n/a	FR1	0	R1571T
653.076	3.25	882886	PROB	3.25	n/a	n/a	-999	5	[6, 4, 7]	17	FR1	0	R1571T
656.326	5.133	886136	PROB	5.133	n/a	n/a	-999	5	[8, 8, 6]	22	FR1	0	R1571T
661.459	5.085	891269	PROB	5.085	n/a	n/a	-999	5	[1, 7, 8]	16	FR1	0	R1571T
666.544	2.983	896354	PROB	2.983	n/a	n/a	-999	5	[2, 5, 1]	8	FR1	0	R1571T
669.527	4.562	899336	PROB	4.562	n/a	n/a	-999	5	[9, 2, 3]	14	FR1	0	R1571T
674.089	0.007	903898	STOP	n/a	n/a	n/a	-999	5	[-999, -999, -999]	n/a	FR1	0	R1571T
674.096	1.184	903905	DISTRACT_END	n/a	n/a	n/a	-999	5	[0, 0, 0]	n/a	FR1	0	R1571T
675.28	0.778	905089	REC_START	n/a	n/a	n/a	-999	5	[0, 0, 0]	n/a	FR1	0	R1571T
676.058	0.477	905867	REC_WORD_VV	0.477	n/a	<>	-999	5	[0, 0, 0]	n/a	FR1	0	R1571T
676.535	1.667	906344	REC_WORD	1.667	n/a	SCHOOL	1	5	[0, 0, 0]	n/a	FR1	0	R1571T
678.202	1.497	908011	REC_WORD_VV	1.497	n/a	<>	-999	5	[0, 0, 0]	n/a	FR1	0	R1571T
679.699	3.196	909508	REC_WORD	3.196	n/a	APE	12	5	[0, 0, 0]	n/a	FR1	0	R1571T
682.895	0.801	912704	REC_WORD	0.801	n/a	SCHOOL	1	5	[0, 0, 0]	n/a	FR1	0	R1571T
683.696	0.615	913505	REC_WORD	0.615	n/a	SCHOOL	1	5	[0, 0, 0]	n/a	FR1	0	R1571T
684.311	0.899	914120	REC_WORD	0.899	n/a	RAT	2	5	[0, 0, 0]	n/a	FR1	0	R1571T
685.21	2.389	915019	REC_WORD	2.389	n/a	APE	12	5	[0, 0, 0]	n/a	FR1	0	R1571T
687.599	6.105	917408	REC_WORD	6.105	n/a	HAWK	5	5	[0, 0, 0]	n/a	FR1	0	R1571T
693.704	2.696	923513	REC_WORD_VV	2.696	n/a	<>	-999	5	[0, 0, 0]	n/a	FR1	0	R1571T
696.4	1.0	926209	REC_WORD	1.0	n/a	CAGE	-999	5	[0, 0, 0]	n/a	FR1	0	R1571T
697.4	7.892	927209	REC_WORD_VV	7.892	n/a	<>	-999	5	[0, 0, 0]	n/a	FR1	0	R1571T
705.292	6.542	935100	REC_END	n/a	n/a	n/a	-999	5	[0, 0, 0]	n/a	FR1	0	R1571T
711.834	0.0	941642	TRIAL	n/a	n/a	n/a	-999	6	[0, 0, 0]	n/a	FR1	0	R1571T
711.834	10.428	941642	COUNTDOWN_START	n/a	n/a	n/a	-999	6	[0, 0, 0]	n/a	FR1	0	R1571T
722.262	0.008	952070	COUNTDOWN_END	n/a	n/a	n/a	-999	6	[0, 0, 0]	n/a	FR1	0	R1571T
722.27	2.449	952078	ORIENT	n/a	n/a	n/a	-999	6	[0, 0, 0]	n/a	FR1	0	R1571T
724.719	2.585	954527	WORD	n/a	wordpools/wordpool_EN.txt	VINE	1	6	[0, 0, 0]	n/a	FR1	0	R1571T
727.304	2.483	957112	WORD	n/a	wordpools/wordpool_EN.txt	EAR	2	6	[0, 0, 0]	n/a	FR1	0	R1571T
729.787	2.518	959594	WORD	n/a	wordpools/wordpool_EN.txt	FOOD	3	6	[0, 0, 0]	n/a	FR1	0	R1571T
732.305	2.416	962112	WORD	n/a	wordpools/wordpool_EN.txt	HEART	4	6	[0, 0, 0]	n/a	FR1	0	R1571T
734.721	2.501	964528	WORD	n/a	wordpools/wordpool_EN.txt	BED	5	6	[0, 0, 0]	n/a	FR1	0	R1571T
737.222	2.416	967029	WORD	n/a	wordpools/wordpool_EN.txt	HOSE	6	6	[0, 0, 0]	n/a	FR1	0	R1571T
739.638	2.618	969445	WORD	n/a	wordpools/wordpool_EN.txt	TRAIN	7	6	[0, 0, 0]	n/a	FR1	0	R1571T
742.256	2.483	972063	WORD	n/a	wordpools/wordpool_EN.txt	MOUSE	8	6	[0, 0, 0]	n/a	FR1	0	R1571T
744.739	2.401	974546	WORD	n/a	wordpools/wordpool_EN.txt	SMOKE	9	6	[0, 0, 0]	n/a	FR1	0	R1571T
747.14	2.467	976947	WORD	n/a	wordpools/wordpool_EN.txt	ROOM	10	6	[0, 0, 0]	n/a	FR1	0	R1571T
749.607	2.518	979414	WORD	n/a	wordpools/wordpool_EN.txt	MOOSE	11	6	[0, 0, 0]	n/a	FR1	0	R1571T
752.125	1.616	981932	WORD	n/a	wordpools/wordpool_EN.txt	CAKE	12	6	[0, 0, 0]	n/a	FR1	0	R1571T
753.741	0.0	983548	DISTRACT_START	n/a	n/a	n/a	-999	6	[0, 0, 0]	n/a	FR1	0	R1571T
753.741	0.016	983548	START	n/a	n/a	n/a	-999	6	[-999, -999, -999]	n/a	FR1	0	R1571T
753.757	5.084	983564	PROB	5.084	n/a	n/a	-999	6	[3, 8, 5]	16	FR1	0	R1571T
758.841	4.051	988647	PROB	4.051	n/a	n/a	-999	6	[5, 8, 1]	14	FR1	0	R1571T
762.892	2.95	992698	PROB	2.95	n/a	n/a	-999	6	[2, 6, 6]	14	FR1	0	R1571T
765.842	2.918	995648	PROB	2.918	n/a	n/a	-999	6	[1, 3, 5]	9	FR1	0	R1571T
768.76	1.75	998566	PROB	1.75	n/a	n/a	-999	6	[3, 3, 3]	9	FR1	0	R1571T
770.51	2.518	1000316	PROB	2.518	n/a	n/a	-999	6	[5, 9, 1]	15	FR1	0	R1571T
773.028	3.283	1002834	PROB	3.283	n/a	n/a	-999	6	[4, 1, 8]	15	FR1	0	R1571T
776.311	0.017	1006117	STOP	n/a	n/a	n/a	-999	6	[-999, -999, -999]	n/a	FR1	0	R1571T
776.328	1.15	1006134	DISTRACT_END	n/a	n/a	n/a	-999	6	[0, 0, 0]	n/a	FR1	0	R1571T
777.478	3.958	1007284	REC_START	n/a	n/a	n/a	-999	6	[0, 0, 0]	n/a	FR1	0	R1571T
781.436	1.0	1011242	REC_WORD	1.0	n/a	MOOSE	11	6	[0, 0, 0]	n/a	FR1	0	R1571T
782.436	3.265	1012242	REC_WORD_VV	3.265	n/a	<>	-999	6	[0, 0, 0]	n/a	FR1	0	R1571T
785.701	1.0	1015507	REC_WORD_VV	1.0	n/a	<>	-999	6	[0, 0, 0]	n/a	FR1	0	R1571T
786.701	1.837	1016507	REC_WORD_VV	1.837	n/a	<>	-999	6	[0, 0, 0]	n/a	FR1	0	R1571T
788.538	1.0	1018343	REC_WORD_VV	1.0	n/a	<>	-999	6	[0, 0, 0]	n/a	FR1	0	R1571T
789.538	3.751	1019343	REC_WORD_VV	3.751	n/a	<>	-999	6	[0, 0, 0]	n/a	FR1	0	R1571T
793.289	4.376	1023094	REC_WORD_VV	4.376	n/a	<>	-999	6	[0, 0, 0]	n/a	FR1	0	R1571T
797.665	1.0	1027470	REC_WORD_VV	1.0	n/a	<>	-999	6	[0, 0, 0]	n/a	FR1	0	R1571T
798.665	2.809	1028470	REC_WORD_VV	2.809	n/a	<>	-999	6	[0, 0, 0]	n/a	FR1	0	R1571T
801.474	3.164	1031279	REC_WORD	3.164	n/a	RAT	-999	6	[0, 0, 0]	n/a	FR1	0	R1571T
804.638	1.208	1034443	REC_WORD_VV	1.208	n/a	<>	-999	6	[0, 0, 0]	n/a	FR1	0	R1571T
805.846	1.648	1035651	REC_WORD_VV	1.648	n/a	<>	-999	6	[0, 0, 0]	n/a	FR1	0	R1571T
807.494	9.99	1037299	REC_END	n/a	n/a	n/a	-999	6	[0, 0, 0]	n/a	FR1	0	R1571T
817.484	0.0	1047289	TRIAL	n/a	n/a	n/a	-999	7	[0, 0, 0]	n/a	FR1	0	R1571T
817.484	10.428	1047289	COUNTDOWN_START	n/a	n/a	n/a	-999	7	[0, 0, 0]	n/a	FR1	0	R1571T
827.912	0.008	1057716	COUNTDOWN_END	n/a	n/a	n/a	-999	7	[0, 0, 0]	n/a	FR1	0	R1571T
827.92	2.4	1057724	ORIENT	n/a	n/a	n/a	-999	7	[0, 0, 0]	n/a	FR1	0	R1571T
830.32	2.583	1060124	WORD	n/a	wordpools/wordpool_EN.txt	MOON	1	7	[0, 0, 0]	n/a	FR1	0	R1571T
832.903	2.6	1062707	WORD	n/a	wordpools/wordpool_EN.txt	GRAPE	2	7	[0, 0, 0]	n/a	FR1	0	R1571T
835.503	2.552	1065307	WORD	n/a	wordpools/wordpool_EN.txt	ICE	3	7	[0, 0, 0]	n/a	FR1	0	R1571T
838.055	2.533	1067859	WORD	n/a	wordpools/wordpool_EN.txt	PLANE	4	7	[0, 0, 0]	n/a	FR1	0	R1571T
840.588	2.484	1070392	WORD	n/a	wordpools/wordpool_EN.txt	JET	5	7	[0, 0, 0]	n/a	FR1	0	R1571T
843.072	2.516	1072876	WORD	n/a	wordpools/wordpool_EN.txt	CAPE	6	7	[0, 0, 0]	n/a	FR1	0	R1571T
845.588	2.468	1075392	WORD	n/a	wordpools/wordpool_EN.txt	SLUSH	7	7	[0, 0, 0]	n/a	FR1	0	R1571T
848.056	2.4	1077860	WORD	n/a	wordpools/wordpool_EN.txt	ROCK	8	7	[0, 0, 0]	n/a	FR1	0	R1571T
850.456	2.468	1080259	WORD	n/a	wordpools/wordpool_EN.txt	DOG	9	7	[0, 0, 0]	n/a	FR1	0	R1571T
852.924	2.467	1082727	WORD	n/a	wordpools/wordpool_EN.txt	STAR	10	7	[0, 0, 0]	n/a	FR1	0	R1571T
855.391	2.433	1085194	WORD	n/a	wordpools/wordpool_EN.txt	PRINCE	11	7	[0, 0, 0]	n/a	FR1	0	R1571T
857.824	1.616	1087627	WORD	n/a	wordpools/wordpool_EN.txt	FISH	12	7	[0, 0, 0]	n/a	FR1	0	R1571T
859.44	0.001	1089243	DISTRACT_START	n/a	n/a	n/a	-999	7	[0, 0, 0]	n/a	FR1	0	R1571T
859.441	0.016	1089244	START	n/a	n/a	n/a	-999	7	[-999, -999, -999]	n/a	FR1	0	R1571T
859.457	4.067	1089260	PROB	4.067	n/a	n/a	-999	7	[8, 4, 6]	18	FR1	0	R1571T
863.524	3.318	1093327	PROB	3.318	n/a	n/a	-999	7	[1, 8, 9]	18	FR1	0	R1571T
866.842	7.418	1096645	PROB	7.418	n/a	n/a	-999	7	[8, 3, 4]	15	FR1	0	R1571T
874.26	5.672	1104063	PROB	5.672	n/a	n/a	-999	7	[4, 3, 4]	11	FR1	0	R1571T
879.932	0.013	1109734	STOP	n/a	n/a	n/a	-999	7	[-999, -999, -999]	n/a	FR1	0	R1571T
879.945	1.167	1109747	DISTRACT_END	n/a	n/a	n/a	-999	7	[0, 0, 0]	n/a	FR1	0	R1571T
881.112	1.805	1110914	REC_START	n/a	n/a	n/a	-999	7	[0, 0, 0]	n/a	FR1	0	R1571T
882.917	1.0	1112719	REC_WORD	1.0	n/a	MOON	1	7	[0, 0, 0]	n/a	FR1	0	R1571T
883.917	2.348	1113719	REC_WORD_VV	2.348	n/a	<>	-999	7	[0, 0, 0]	n/a	FR1	0	R1571T
886.265	1.0	1116067	REC_WORD_VV	1.0	n/a	<>	-999	7	[0, 0, 0]	n/a	FR1	0	R1571T
887.265	2.271	1117067	REC_WORD_VV	2.271	n/a	<>	-999	7	[0, 0, 0]	n/a	FR1	0	R1571T
889.536	1.0	1119338	REC_WORD_VV	1.0	n/a	<>	-999	7	[0, 0, 0]	n/a	FR1	0	R1571T
890.536	4.75	1120338	REC_WORD_VV	4.75	n/a	<>	-999	7	[0, 0, 0]	n/a	FR1	0	R1571T
895.286	4.281	1125088	REC_WORD_VV	4.281	n/a	<>	-999	7	[0, 0, 0]	n/a	FR1	0	R1571T
899.567	2.177	1129369	REC_WORD	2.177	n/a	PLAY	-999	7	[0, 0, 0]	n/a	FR1	0	R1571T
901.744	1.0	1131546	REC_WORD	1.0	n/a	JET	5	7	[0, 0, 0]	n/a	FR1	0	R1571T
902.744	4.752	1132546	REC_WORD_VV	4.752	n/a	<>	-999	7	[0, 0, 0]	n/a	FR1	0	R1571T
907.496	1.0	1137298	REC_WORD	1.0	n/a	LOOP	-999	7	[0, 0, 0]	n/a	FR1	0	R1571T
908.496	2.631	1138298	REC_WORD_VV	2.631	n/a	<>	-999	7	[0, 0, 0]	n/a	FR1	0	R1571T
911.127	12.324	1140928	REC_END	n/a	n/a	n/a	-999	7	[0, 0, 0]	n/a	FR1	0	R1571T
923.451	0.0	1153252	TRIAL	n/a	n/a	n/a	-999	8	[0, 0, 0]	n/a	FR1	0	R1571T
923.451	10.428	1153252	COUNTDOWN_START	n/a	n/a	n/a	-999	8	[0, 0, 0]	n/a	FR1	0	R1571T
933.879	0.007	1163680	COUNTDOWN_END	n/a	n/a	n/a	-999	8	[0, 0, 0]	n/a	FR1	0	R1571T
933.886	2.516	1163687	ORIENT	n/a	n/a	n/a	-999	8	[0, 0, 0]	n/a	FR1	0	R1571T
936.402	2.602	1166203	WORD	n/a	wordpools/wordpool_EN.txt	MAT	1	8	[0, 0, 0]	n/a	FR1	0	R1571T
939.004	2.466	1168805	WORD	n/a	wordpools/wordpool_EN.txt	COW	2	8	[0, 0, 0]	n/a	FR1	0	R1571T
941.47	2.417	1171270	WORD	n/a	wordpools/wordpool_EN.txt	PIE	3	8	[0, 0, 0]	n/a	FR1	0	R1571T
943.887	2.55	1173687	WORD	n/a	wordpools/wordpool_EN.txt	BREAD	4	8	[0, 0, 0]	n/a	FR1	0	R1571T
946.437	2.467	1176237	WORD	n/a	wordpools/wordpool_EN.txt	DOLL	5	8	[0, 0, 0]	n/a	FR1	0	R1571T
948.904	2.469	1178704	WORD	n/a	wordpools/wordpool_EN.txt	VASE	6	8	[0, 0, 0]	n/a	FR1	0	R1571T
951.373	2.532	1181173	WORD	n/a	wordpools/wordpool_EN.txt	SPRING	7	8	[0, 0, 0]	n/a	FR1	0	R1571T
953.905	2.567	1183705	WORD	n/a	wordpools/wordpool_EN.txt	SINK	8	8	[0, 0, 0]	n/a	FR1	0	R1571T
956.472	2.518	1186272	WORD	n/a	wordpools/wordpool_EN.txt	SEAT	9	8	[0, 0, 0]	n/a	FR1	0	R1571T
958.99	2.483	1188790	WORD	n/a	wordpools/wordpool_EN.txt	SHEEP	10	8	[0, 0, 0]	n/a	FR1	0	R1571T
961.473	2.502	1191273	WORD	n/a	wordpools/wordpool_EN.txt	CLOTH	11	8	[0, 0, 0]	n/a	FR1	0	R1571T
963.975	1.616	1193775	WORD	n/a	wordpools/wordpool_EN.txt	BLUSH	12	8	[0, 0, 0]	n/a	FR1	0	R1571T
965.591	0.0	1195391	DISTRACT_START	n/a	n/a	n/a	-999	8	[0, 0, 0]	n/a	FR1	0	R1571T
965.591	0.016	1195391	START	n/a	n/a	n/a	-999	8	[-999, -999, -999]	n/a	FR1	0	R1571T
965.607	3.718	1195407	PROB	3.718	n/a	n/a	-999	8	[1, 2, 5]	8	FR1	0	R1571T
969.325	3.433	1199125	PROB	3.433	n/a	n/a	-999	8	[9, 9, 1]	19	FR1	0	R1571T
972.758	3.784	1202557	PROB	3.784	n/a	n/a	-999	8	[7, 6, 3]	16	FR1	0	R1571T
976.542	4.051	1206341	PROB	4.051	n/a	n/a	-999	8	[5, 5, 6]	16	FR1	0	R1571T
980.593	4.718	1210392	PROB	4.718	n/a	n/a	-999	8	[2, 9, 4]	15	FR1	0	R1571T
985.311	4.643	1215110	PROB	4.643	n/a	n/a	-999	8	[7, 6, 1]	16	FR1	0	R1571T
989.954	0.008	1219753	STOP	n/a	n/a	n/a	-999	8	[-999, -999, -999]	n/a	FR1	0	R1571T
989.962	1.151	1219761	DISTRACT_END	n/a	n/a	n/a	-999	8	[0, 0, 0]	n/a	FR1	0	R1571T
991.113	2.864	1220912	REC_START	n/a	n/a	n/a	-999	8	[0, 0, 0]	n/a	FR1	0	R1571T
993.977	1.638	1223776	REC_WORD	1.638	n/a	MOOD	-999	8	[0, 0, 0]	n/a	FR1	0	R1571T
995.615	4.56	1225414	REC_WORD	4.56	n/a	RAT	-999	8	[0, 0, 0]	n/a	FR1	0	R1571T
1000.175	1.0	1229974	REC_WORD	1.0	n/a	PLACE	-999	8	[0, 0, 0]	n/a	FR1	0	R1571T
1001.175	6.222	1230973	REC_WORD_VV	6.222	n/a	<>	-999	8	[0, 0, 0]	n/a	FR1	0	R1571T
1007.397	1.0	1237195	REC_WORD_VV	1.0	n/a	<>	-999	8	[0, 0, 0]	n/a	FR1	0	R1571T
1008.397	12.375	1238195	REC_WORD_VV	12.375	n/a	<>	-999	8	[0, 0, 0]	n/a	FR1	0	R1571T
1020.772	0.351	1250570	REC_WORD_VV	0.351	n/a	<>	-999	8	[0, 0, 0]	n/a	FR1	0	R1571T
1021.123	4.228	1250921	REC_END	n/a	n/a	n/a	-999	8	[0, 0, 0]	n/a	FR1	0	R1571T
1025.351	0.0	1255149	TRIAL	n/a	n/a	n/a	-999	9	[0, 0, 0]	n/a	FR1	0	R1571T
1025.351	10.428	1255149	COUNTDOWN_START	n/a	n/a	n/a	-999	9	[0, 0, 0]	n/a	FR1	0	R1571T
1035.779	0.006	1265576	COUNTDOWN_END	n/a	n/a	n/a	-999	9	[0, 0, 0]	n/a	FR1	0	R1571T
1035.785	2.418	1265582	ORIENT	n/a	n/a	n/a	-999	9	[0, 0, 0]	n/a	FR1	0	R1571T
1038.203	2.549	1268000	WORD	n/a	wordpools/wordpool_EN.txt	YARD	1	9	[0, 0, 0]	n/a	FR1	0	R1571T
1040.752	2.502	1270549	WORD	n/a	wordpools/wordpool_EN.txt	HOLE	2	9	[0, 0, 0]	n/a	FR1	0	R1571T
1043.254	2.499	1273051	WORD	n/a	wordpools/wordpool_EN.txt	BUSH	3	9	[0, 0, 0]	n/a	FR1	0	R1571T
1045.753	2.451	1275550	WORD	n/a	wordpools/wordpool_EN.txt	OWL	4	9	[0, 0, 0]	n/a	FR1	0	R1571T
1048.204	2.617	1278001	WORD	n/a	wordpools/wordpool_EN.txt	BRUSH	5	9	[0, 0, 0]	n/a	FR1	0	R1571T
1050.821	2.451	1280618	WORD	n/a	wordpools/wordpool_EN.txt	PIPE	6	9	[0, 0, 0]	n/a	FR1	0	R1571T
1053.272	2.416	1283069	WORD	n/a	wordpools/wordpool_EN.txt	CLIFF	7	9	[0, 0, 0]	n/a	FR1	0	R1571T
1055.688	2.518	1285485	WORD	n/a	wordpools/wordpool_EN.txt	MULE	8	9	[0, 0, 0]	n/a	FR1	0	R1571T
1058.206	2.466	1288003	WORD	n/a	wordpools/wordpool_EN.txt	SPEAR	9	9	[0, 0, 0]	n/a	FR1	0	R1571T
1060.672	2.518	1290469	WORD	n/a	wordpools/wordpool_EN.txt	BAND	10	9	[0, 0, 0]	n/a	FR1	0	R1571T
1063.19	2.566	1292986	WORD	n/a	wordpools/wordpool_EN.txt	FROG	11	9	[0, 0, 0]	n/a	FR1	0	R1571T
1065.756	1.618	1295552	WORD	n/a	wordpools/wordpool_EN.txt	ROOF	12	9	[0, 0, 0]	n/a	FR1	0	R1571T
1067.374	0.001	1297170	DISTRACT_START	n/a	n/a	n/a	-999	9	[0, 0, 0]	n/a	FR1	0	R1571T
1067.375	0.016	1297171	START	n/a	n/a	n/a	-999	9	[-999, -999, -999]	n/a	FR1	0	R1571T
1067.391	5.516	1297187	PROB	5.516	n/a	n/a	-999	9	[5, 3, 8]	16	FR1	0	R1571T
1072.907	2.968	1302703	PROB	2.968	n/a	n/a	-999	9	[1, 9, 9]	19	FR1	0	R1571T
1075.875	9.452	1305671	PROB	9.452	n/a	n/a	-999	9	[9, 6, 9]	24	FR1	0	R1571T
1085.327	2.968	1315123	PROB	2.968	n/a	n/a	-999	9	[9, 1, 9]	19	FR1	0	R1571T
1088.295	0.016	1318091	STOP	n/a	n/a	n/a	-999	9	[-999, -999, -999]	n/a	FR1	0	R1571T
1088.311	1.166	1318107	DISTRACT_END	n/a	n/a	n/a	-999	9	[0, 0, 0]	n/a	FR1	0	R1571T
1089.477	7.804	1319273	REC_START	n/a	n/a	n/a	-999	9	[0, 0, 0]	n/a	FR1	0	R1571T
1097.281	1.0	1327076	REC_WORD	1.0	n/a	BRACE	-999	9	[0, 0, 0]	n/a	FR1	0	R1571T
1098.281	1.109	1328076	REC_WORD_VV	1.109	n/a	<>	-999	9	[0, 0, 0]	n/a	FR1	0	R1571T
1099.39	2.971	1329185	REC_WORD_VV	2.971	n/a	<>	-999	9	[0, 0, 0]	n/a	FR1	0	R1571T
1102.361	6.164	1332156	REC_WORD	6.164	n/a	FROG	11	9	[0, 0, 0]	n/a	FR1	0	R1571T
1108.525	1.0	1338320	REC_WORD	1.0	n/a	EEL	-999	9	[0, 0, 0]	n/a	FR1	0	R1571T
1109.525	7.779	1339320	REC_WORD_VV	7.779	n/a	<>	-999	9	[0, 0, 0]	n/a	FR1	0	R1571T
1117.304	0.802	1347099	REC_WORD_VV	0.802	n/a	<>	-999	9	[0, 0, 0]	n/a	FR1	0	R1571T
1118.106	1.387	1347901	REC_WORD	1.387	n/a	JAR	-999	9	[0, 0, 0]	n/a	FR1	0	R1571T
1119.493	41.912	1349288	REC_END	n/a	n/a	n/a	-999	9	[0, 0, 0]	n/a	FR1	0	R1571T
1161.405	0.0	1391198	TRIAL	n/a	n/a	n/a	-999	10	[0, 0, 0]	n/a	FR1	0	R1571T
1161.405	10.428	1391198	COUNTDOWN_START	n/a	n/a	n/a	-999	10	[0, 0, 0]	n/a	FR1	0	R1571T
1171.833	0.007	1401626	COUNTDOWN_END	n/a	n/a	n/a	-999	10	[0, 0, 0]	n/a	FR1	0	R1571T
1171.84	2.434	1401633	ORIENT	n/a	n/a	n/a	-999	10	[0, 0, 0]	n/a	FR1	0	R1571T
1174.274	2.55	1404067	WORD	n/a	wordpools/wordpool_EN.txt	BAT	1	10	[0, 0, 0]	n/a	FR1	0	R1571T
1176.824	2.518	1406617	WORD	n/a	wordpools/wordpool_EN.txt	FLEA	2	10	[0, 0, 0]	n/a	FR1	0	R1571T
1179.342	2.549	1409135	WORD	n/a	wordpools/wordpool_EN.txt	NEST	3	10	[0, 0, 0]	n/a	FR1	0	R1571T
1181.891	2.534	1411683	WORD	n/a	wordpools/wordpool_EN.txt	WHALE	4	10	[0, 0, 0]	n/a	FR1	0	R1571T
1184.425	2.367	1414217	WORD	n/a	wordpools/wordpool_EN.txt	HORN	5	10	[0, 0, 0]	n/a	FR1	0	R1571T
1186.792	2.451	1416584	WORD	n/a	wordpools/wordpool_EN.txt	PIG	6	10	[0, 0, 0]	n/a	FR1	0	R1571T
1189.243	2.466	1419035	WORD	n/a	wordpools/wordpool_EN.txt	ANT	7	10	[0, 0, 0]	n/a	FR1	0	R1571T
1191.709	2.502	1421501	WORD	n/a	wordpools/wordpool_EN.txt	SNAIL	8	10	[0, 0, 0]	n/a	FR1	0	R1571T
1194.211	2.399	1424003	WORD	n/a	wordpools/wordpool_EN.txt	TAIL	9	10	[0, 0, 0]	n/a	FR1	0	R1571T
1196.61	2.602	1426402	WORD	n/a	wordpools/wordpool_EN.txt	WORM	10	10	[0, 0, 0]	n/a	FR1	0	R1571T
1199.212	2.499	1429004	WORD	n/a	wordpools/wordpool_EN.txt	BALL	11	10	[0, 0, 0]	n/a	FR1	0	R1571T
1201.711	1.618	1431503	WORD	n/a	wordpools/wordpool_EN.txt	BEE	12	10	[0, 0, 0]	n/a	FR1	0	R1571T
1203.329	0.001	1433121	DISTRACT_START	n/a	n/a	n/a	-999	10	[0, 0, 0]	n/a	FR1	0	R1571T
1203.33	0.016	1433122	START	n/a	n/a	n/a	-999	10	[-999, -999, -999]	n/a	FR1	0	R1571T
1203.346	5.383	1433138	PROB	5.383	n/a	n/a	-999	10	[7, 5, 7]	19	FR1	0	R1571T
1208.729	6.667	1438521	PROB	6.667	n/a	n/a	-999	10	[4, 8, 3]	15	FR1	0	R1571T
1215.396	7.803	1445187	PROB	7.803	n/a	n/a	-999	10	[5, 4, 8]	17	FR1	0	R1571T
1223.199	3.869	1452990	PROB	3.869	n/a	n/a	-999	10	[9, 7, 2]	18	FR1	0	R1571T
1227.068	0.015	1456859	STOP	n/a	n/a	n/a	-999	10	[-999, -999, -999]	n/a	FR1	0	R1571T
1227.083	1.034	1456874	DISTRACT_END	n/a	n/a	n/a	-999	10	[0, 0, 0]	n/a	FR1	0	R1571T
1228.117	2.686	1457908	REC_START	n/a	n/a	n/a	-999	10	[0, 0, 0]	n/a	FR1	0	R1571T
1230.803	1.0	1460594	REC_WORD	1.0	n/a	WHALE	4	10	[0, 0, 0]	n/a	FR1	0	R1571T
1231.803	0.712	1461594	REC_WORD_VV	0.712	n/a	<>	-999	10	[0, 0, 0]	n/a	FR1	0	R1571T
1232.515	1.712	1462306	REC_WORD	1.712	n/a	PIG	6	10	[0, 0, 0]	n/a	FR1	0	R1571T
1234.227	6.078	1464018	REC_WORD	6.078	n/a	BEE	12	10	[0, 0, 0]	n/a	FR1	0	R1571T
1240.305	5.925	1470096	REC_WORD	5.925	n/a	NAIL	-999	10	[0, 0, 0]	n/a	FR1	0	R1571T
1246.23	1.0	1476020	REC_WORD	1.0	n/a	SNAIL	8	10	[0, 0, 0]	n/a	FR1	0	R1571T
1247.23	10.898	1477020	REC_WORD_VV	10.898	n/a	<>	-999	10	[0, 0, 0]	n/a	FR1	0	R1571T
1258.128	49.117	1487918	REC_END	n/a	n/a	n/a	-999	10	[0, 0, 0]	n/a	FR1	0	R1571T
1307.245	0.0	1537033	TRIAL	n/a	n/a	n/a	-999	11	[0, 0, 0]	n/a	FR1	0	R1571T
1307.245	10.428	1537033	COUNTDOWN_START	n/a	n/a	n/a	-999	11	[0, 0, 0]	n/a	FR1	0	R1571T
1317.673	0.006	1547461	COUNTDOWN_END	n/a	n/a	n/a	-999	11	[0, 0, 0]	n/a	FR1	0	R1571T
1317.679	2.418	1547467	ORIENT	n/a	n/a	n/a	-999	11	[0, 0, 0]	n/a	FR1	0	R1571T
1320.097	2.533	1549885	WORD	n/a	wordpools/wordpool_EN.txt	SPARK	1	11	[0, 0, 0]	n/a	FR1	0	R1571T
1322.63	2.468	1552418	WORD	n/a	wordpools/wordpool_EN.txt	SEAL	2	11	[0, 0, 0]	n/a	FR1	0	R1571T
1325.098	2.566	1554886	WORD	n/a	wordpools/wordpool_EN.txt	THREAD	3	11	[0, 0, 0]	n/a	FR1	0	R1571T
1327.664	2.418	1557452	WORD	n/a	wordpools/wordpool_EN.txt	DITCH	4	11	[0, 0, 0]	n/a	FR1	0	R1571T
1330.082	2.6	1559870	WORD	n/a	wordpools/wordpool_EN.txt	FLAG	5	11	[0, 0, 0]	n/a	FR1	0	R1571T
1332.682	2.618	1562470	WORD	n/a	wordpools/wordpool_EN.txt	SAIL	6	11	[0, 0, 0]	n/a	FR1	0	R1571T
1335.3	2.466	1565087	WORD	n/a	wordpools/wordpool_EN.txt	TANK	7	11	[0, 0, 0]	n/a	FR1	0	R1571T
1337.766	2.568	1567553	WORD	n/a	wordpools/wordpool_EN.txt	TOY	8	11	[0, 0, 0]	n/a	FR1	0	R1571T
1340.334	2.633	1570121	WORD	n/a	wordpools/wordpool_EN.txt	GRASS	9	11	[0, 0, 0]	n/a	FR1	0	R1571T
1342.967	2.45	1572754	WORD	n/a	wordpools/wordpool_EN.txt	SEA	10	11	[0, 0, 0]	n/a	FR1	0	R1571T
1345.417	2.45	1575204	WORD	n/a	wordpools/wordpool_EN.txt	SHIP	11	11	[0, 0, 0]	n/a	FR1	0	R1571T
1347.867	1.617	1577654	WORD	n/a	wordpools/wordpool_EN.txt	PIN	12	11	[0, 0, 0]	n/a	FR1	0	R1571T
1349.484	0.001	1579271	DISTRACT_START	n/a	n/a	n/a	-999	11	[0, 0, 0]	n/a	FR1	0	R1571T
1349.485	0.016	1579272	START	n/a	n/a	n/a	-999	11	[-999, -999, -999]	n/a	FR1	0	R1571T
1349.501	2.785	1579288	PROB	2.785	n/a	n/a	-999	11	[1, 4, 4]	9	FR1	0	R1571T
1352.286	1.817	1582073	PROB	1.817	n/a	n/a	-999	11	[1, 1, 1]	3	FR1	0	R1571T
1354.103	8.201	1583890	PROB	8.201	n/a	n/a	-999	11	[7, 8, 6]	21	FR1	0	R1571T
1362.304	7.464	1592091	PROB	7.464	n/a	n/a	-999	11	[4, 5, 4]	13	FR1	0	R1571T
1369.768	0.019	1599554	STOP	n/a	n/a	n/a	-999	11	[-999, -999, -999]	n/a	FR1	0	R1571T
1369.787	1.169	1599573	DISTRACT_END	n/a	n/a	n/a	-999	11	[0, 0, 0]	n/a	FR1	0	R1571T
1370.956	2.569	1600742	REC_START	n/a	n/a	n/a	-999	11	[0, 0, 0]	n/a	FR1	0	R1571T
1373.525	1.0	1603311	REC_WORD	1.0	n/a	SAIL	6	11	[0, 0, 0]	n/a	FR1	0	R1571T
1374.525	2.529	1604311	REC_WORD_VV	2.529	n/a	<>	-999	11	[0, 0, 0]	n/a	FR1	0	R1571T
1377.054	3.603	1606840	REC_WORD	3.603	n/a	WEEK	-999	11	[0, 0, 0]	n/a	FR1	0	R1571T
1380.657	3.772	1610443	REC_WORD	3.772	n/a	NAIL	-999	11	[0, 0, 0]	n/a	FR1	0	R1571T
1384.429	2.94	1614215	REC_WORD	2.94	n/a	SHEEP	-999	11	[0, 0, 0]	n/a	FR1	0	R1571T
1387.369	1.0	1617155	REC_WORD	1.0	n/a	FLAG	5	11	[0, 0, 0]	n/a	FR1	0	R1571T
1388.369	5.313	1618155	REC_WORD_VV	5.313	n/a	<>	-999	11	[0, 0, 0]	n/a	FR1	0	R1571T
1393.682	1.0	1623467	REC_WORD_VV	1.0	n/a	<>	-999	11	[0, 0, 0]	n/a	FR1	0	R1571T
1394.682	0.464	1624467	REC_WORD_VV	0.464	n/a	<>	-999	11	[0, 0, 0]	n/a	FR1	0	R1571T
1395.146	1.788	1624931	REC_WORD	1.788	n/a	FLAG	5	11	[0, 0, 0]	n/a	FR1	0	R1571T
1396.934	4.032	1626719	REC_WORD_VV	4.032	n/a	<>	-999	11	[0, 0, 0]	n/a	FR1	0	R1571T
1400.966	23.947	1630751	REC_END	n/a	n/a	n/a	-999	11	[0, 0, 0]	n/a	FR1	0	R1571T
1424.913	0.0	1654697	TRIAL	n/a	n/a	n/a	-999	12	[0, 0, 0]	n/a	FR1	0	R1571T
1424.913	10.428	1654697	COUNTDOWN_START	n/a	n/a	n/a	-999	12	[0, 0, 0]	n/a	FR1	0	R1571T
1435.341	0.008	1665125	COUNTDOWN_END	n/a	n/a	n/a	-999	12	[0, 0, 0]	n/a	FR1	0	R1571T
1435.349	2.449	1665133	ORIENT	n/a	n/a	n/a	-999	12	[0, 0, 0]	n/a	FR1	0	R1571T
1437.798	2.535	1667582	WORD	n/a	wordpools/wordpool_EN.txt	LAMB	1	12	[0, 0, 0]	n/a	FR1	0	R1571T
1440.333	2.449	1670117	WORD	n/a	wordpools/wordpool_EN.txt	DEER	2	12	[0, 0, 0]	n/a	FR1	0	R1571T
1442.782	2.502	1672566	WORD	n/a	wordpools/wordpool_EN.txt	WAND	3	12	[0, 0, 0]	n/a	FR1	0	R1571T
1445.284	2.616	1675068	WORD	n/a	wordpools/wordpool_EN.txt	WOLF	4	12	[0, 0, 0]	n/a	FR1	0	R1571T
1447.9	2.55	1677684	WORD	n/a	wordpools/wordpool_EN.txt	RAKE	5	12	[0, 0, 0]	n/a	FR1	0	R1571T
1450.45	2.434	1680234	WORD	n/a	wordpools/wordpool_EN.txt	SNOW	6	12	[0, 0, 0]	n/a	FR1	0	R1571T
1452.884	2.385	1682668	WORD	n/a	wordpools/wordpool_EN.txt	ROAD	7	12	[0, 0, 0]	n/a	FR1	0	R1571T
1455.269	2.566	1685052	WORD	n/a	wordpools/wordpool_EN.txt	STONE	8	12	[0, 0, 0]	n/a	FR1	0	R1571T
1457.835	2.534	1687618	WORD	n/a	wordpools/wordpool_EN.txt	FORK	9	12	[0, 0, 0]	n/a	FR1	0	R1571T
1460.369	2.466	1690152	WORD	n/a	wordpools/wordpool_EN.txt	CRANE	10	12	[0, 0, 0]	n/a	FR1	0	R1571T
1462.835	2.502	1692618	WORD	n/a	wordpools/wordpool_EN.txt	BEAR	11	12	[0, 0, 0]	n/a	FR1	0	R1571T
1465.337	1.617	1695120	WORD	n/a	wordpools/wordpool_EN.txt	MOLE	12	12	[0, 0, 0]	n/a	FR1	0	R1571T
1466.954	0.0	1696737	DISTRACT_START	n/a	n/a	n/a	-999	12	[0, 0, 0]	n/a	FR1	0	R1571T
1466.954	0.016	1696737	START	n/a	n/a	n/a	-999	12	[-999, -999, -999]	n/a	FR1	0	R1571T
1466.97	5.018	1696753	PROB	5.018	n/a	n/a	-999	12	[4, 1, 8]	13	FR1	0	R1571T
1471.988	5.301	1701771	PROB	5.301	n/a	n/a	-999	12	[9, 4, 2]	15	FR1	0	R1571T
1477.289	4.9	1707072	PROB	4.9	n/a	n/a	-999	12	[2, 6, 5]	13	FR1	0	R1571T
1482.189	3.367	1711972	PROB	3.367	n/a	n/a	-999	12	[4, 3, 1]	8	FR1	0	R1571T
1485.556	19.912	1715338	PROB	19.912	n/a	n/a	-999	12	[5, 7, 2]	14	FR1	0	R1571T
1505.468	0.007	1735250	STOP	n/a	n/a	n/a	-999	12	[-999, -999, -999]	n/a	FR1	0	R1571T
1505.475	1.101	1735257	DISTRACT_END	n/a	n/a	n/a	-999	12	[0, 0, 0]	n/a	FR1	0	R1571T
1506.576	1.977	1736358	REC_START	n/a	n/a	n/a	-999	12	[0, 0, 0]	n/a	FR1	0	R1571T
1508.553	0.347	1738335	REC_WORD_VV	0.347	n/a	<>	-999	12	[0, 0, 0]	n/a	FR1	0	R1571T
1508.9	2.29	1738682	REC_WORD	2.29	n/a	DEER	2	12	[0, 0, 0]	n/a	FR1	0	R1571T
1511.19	1.0	1740972	REC_WORD	1.0	n/a	BEAR	11	12	[0, 0, 0]	n/a	FR1	0	R1571T
1512.19	1.768	1741972	REC_WORD_VV	1.768	n/a	<>	-999	12	[0, 0, 0]	n/a	FR1	0	R1571T
1513.958	0.914	1743740	REC_WORD	0.914	n/a	DEER	2	12	[0, 0, 0]	n/a	FR1	0	R1571T
1514.872	1.223	1744653	REC_WORD	1.223	n/a	BEAR	11	12	[0, 0, 0]	n/a	FR1	0	R1571T
1516.095	0.83	1745876	REC_WORD_VV	0.83	n/a	<>	-999	12	[0, 0, 0]	n/a	FR1	0	R1571T
1516.925	2.358	1746706	REC_WORD	2.358	n/a	LAMB	1	12	[0, 0, 0]	n/a	FR1	0	R1571T
1519.283	2.525	1749064	REC_WORD	2.525	n/a	WOLF	4	12	[0, 0, 0]	n/a	FR1	0	R1571T
1521.808	1.493	1751589	REC_WORD_VV	1.493	n/a	<>	-999	12	[0, 0, 0]	n/a	FR1	0	R1571T
1523.301	1.0	1753082	REC_WORD_VV	1.0	n/a	<>	-999	12	[0, 0, 0]	n/a	FR1	0	R1571T
1524.301	1.984	1754082	REC_WORD_VV	1.984	n/a	<>	-999	12	[0, 0, 0]	n/a	FR1	0	R1571T
1526.285	1.0	1756066	REC_WORD_VV	1.0	n/a	<>	-999	12	[0, 0, 0]	n/a	FR1	0	R1571T
1527.285	2.918	1757066	REC_WORD_VV	2.918	n/a	<>	-999	12	[0, 0, 0]	n/a	FR1	0	R1571T
1530.203	1.009	1759984	REC_WORD	1.009	n/a	TOY	-999	12	[0, 0, 0]	n/a	FR1	0	R1571T
1531.212	3.473	1760993	REC_WORD_VV	3.473	n/a	<>	-999	12	[0, 0, 0]	n/a	FR1	0	R1571T
1534.685	1.907	1764466	REC_WORD	1.907	n/a	TOY	-999	12	[0, 0, 0]	n/a	FR1	0	R1571T
1536.592	23.925	1766373	REC_END	n/a	n/a	n/a	-999	12	[0, 0, 0]	n/a	FR1	0	R1571T
1560.517	0.001	1790297	COUNTDOWN_START	n/a	n/a	n/a	-999	13	[0, 0, 0]	n/a	FR1	0	R1571T
1560.518	10.427	1790298	TRIAL	n/a	n/a	n/a	-999	13	[0, 0, 0]	n/a	FR1	0	R1571T
1570.945	0.008	1800725	COUNTDOWN_END	n/a	n/a	n/a	-999	13	[0, 0, 0]	n/a	FR1	0	R1571T
1570.953	2.45	1800733	ORIENT	n/a	n/a	n/a	-999	13	[0, 0, 0]	n/a	FR1	0	R1571T
1573.403	2.634	1803183	WORD	n/a	wordpools/wordpool_EN.txt	STOVE	1	13	[0, 0, 0]	n/a	FR1	0	R1571T
1576.037	2.4	1805816	WORD	n/a	wordpools/wordpool_EN.txt	TRUCK	2	13	[0, 0, 0]	n/a	FR1	0	R1571T
1578.437	2.618	1808216	WORD	n/a	wordpools/wordpool_EN.txt	PARK	3	13	[0, 0, 0]	n/a	FR1	0	R1571T
1581.055	2.383	1810834	WORD	n/a	wordpools/wordpool_EN.txt	SIGN	4	13	[0, 0, 0]	n/a	FR1	0	R1571T
1583.438	2.584	1813217	WORD	n/a	wordpools/wordpool_EN.txt	BATH	5	13	[0, 0, 0]	n/a	FR1	0	R1571T
1586.022	2.433	1815801	WORD	n/a	wordpools/wordpool_EN.txt	STAIR	6	13	[0, 0, 0]	n/a	FR1	0	R1571T
1588.455	2.434	1818234	WORD	n/a	wordpools/wordpool_EN.txt	STRAW	7	13	[0, 0, 0]	n/a	FR1	0	R1571T
1590.889	2.584	1820668	WORD	n/a	wordpools/wordpool_EN.txt	MILK	8	13	[0, 0, 0]	n/a	FR1	0	R1571T
1593.473	2.534	1823252	WORD	n/a	wordpools/wordpool_EN.txt	VEST	9	13	[0, 0, 0]	n/a	FR1	0	R1571T
1596.007	2.533	1825786	WORD	n/a	wordpools/wordpool_EN.txt	SWAMP	10	13	[0, 0, 0]	n/a	FR1	0	R1571T
1598.54	2.468	1828319	WORD	n/a	wordpools/wordpool_EN.txt	FARM	11	13	[0, 0, 0]	n/a	FR1	0	R1571T
1601.008	1.616	1830787	WORD	n/a	wordpools/wordpool_EN.txt	WEED	12	13	[0, 0, 0]	n/a	FR1	0	R1571T
1602.624	0.001	1832403	DISTRACT_START	n/a	n/a	n/a	-999	13	[0, 0, 0]	n/a	FR1	0	R1571T
1602.625	0.016	1832404	START	n/a	n/a	n/a	-999	13	[-999, -999, -999]	n/a	FR1	0	R1571T
1602.641	4.2	1832420	PROB	4.2	n/a	n/a	-999	13	[8, 5, 8]	21	FR1	0	R1571T
1606.841	6.068	1836619	PROB	6.068	n/a	n/a	-999	13	[5, 6, 2]	13	FR1	0	R1571T
1612.909	3.634	1842687	PROB	3.634	n/a	n/a	-999	13	[9, 4, 5]	18	FR1	0	R1571T
1616.543	3.535	1846321	PROB	3.535	n/a	n/a	-999	13	[1, 6, 3]	10	FR1	0	R1571T
1620.078	2.449	1849856	PROB	2.449	n/a	n/a	-999	13	[6, 4, 1]	11	FR1	0	R1571T
1622.527	2.596	1852305	PROB	2.596	n/a	n/a	-999	13	[9, 8, 1]	18	FR1	0	R1571T
1625.123	0.006	1854901	STOP	n/a	n/a	n/a	-999	13	[-999, -999, -999]	n/a	FR1	0	R1571T
1625.129	1.067	1854907	DISTRACT_END	n/a	n/a	n/a	-999	13	[0, 0, 0]	n/a	FR1	0	R1571T
1626.196	3.43	1855974	REC_START	n/a	n/a	n/a	-999	13	[0, 0, 0]	n/a	FR1	0	R1571T
1629.626	3.973	1859404	REC_WORD	3.973	n/a	TRUCK	2	13	[0, 0, 0]	n/a	FR1	0	R1571T
1633.599	0.569	1863377	REC_WORD	0.569	n/a	TRUCK	2	13	[0, 0, 0]	n/a	FR1	0	R1571T
1634.168	0.184	1863946	REC_WORD_VV	0.184	n/a	<>	-999	13	[0, 0, 0]	n/a	FR1	0	R1571T
1634.352	2.457	1864130	REC_WORD	2.457	n/a	SIGN	4	13	[0, 0, 0]	n/a	FR1	0	R1571T
1636.809	1.0	1866586	REC_WORD_VV	1.0	n/a	<>	-999	13	[0, 0, 0]	n/a	FR1	0	R1571T
1637.809	0.29	1867586	REC_WORD_VV	0.29	n/a	<>	-999	13	[0, 0, 0]	n/a	FR1	0	R1571T
1638.099	1.0	1867876	REC_WORD	1.0	n/a	SIGN	4	13	[0, 0, 0]	n/a	FR1	0	R1571T
1639.099	2.909	1868876	REC_WORD_VV	2.909	n/a	<>	-999	13	[0, 0, 0]	n/a	FR1	0	R1571T
1642.008	0.509	1871785	REC_WORD	0.509	n/a	TRUCK	2	13	[0, 0, 0]	n/a	FR1	0	R1571T
1642.517	1.0	1872294	REC_WORD	1.0	n/a	SIGN	4	13	[0, 0, 0]	n/a	FR1	0	R1571T
1643.517	1.0	1873294	REC_WORD_VV	1.0	n/a	<>	-999	13	[0, 0, 0]	n/a	FR1	0	R1571T
1644.517	2.194	1874294	REC_WORD_VV	2.194	n/a	<>	-999	13	[0, 0, 0]	n/a	FR1	0	R1571T
1646.711	1.0	1876488	REC_WORD_VV	1.0	n/a	<>	-999	13	[0, 0, 0]	n/a	FR1	0	R1571T
1647.711	0.15	1877488	REC_WORD_VV	0.15	n/a	<>	-999	13	[0, 0, 0]	n/a	FR1	0	R1571T
1647.861	1.0	1877638	REC_WORD	1.0	n/a	SIGN	4	13	[0, 0, 0]	n/a	FR1	0	R1571T
1648.861	5.93	1878638	REC_WORD_VV	5.93	n/a	<>	-999	13	[0, 0, 0]	n/a	FR1	0	R1571T
1654.791	1.0	1884568	REC_WORD_VV	1.0	n/a	<>	-999	13	[0, 0, 0]	n/a	FR1	0	R1571T
1655.791	0.417	1885568	REC_WORD_VV	0.417	n/a	<>	-999	13	[0, 0, 0]	n/a	FR1	0	R1571T
1656.208	12.794	1885985	REC_END	n/a	n/a	n/a	-999	13	[0, 0, 0]	n/a	FR1	0	R1571T
1669.002	0.0	1898778	TRIAL	n/a	n/a	n/a	-999	14	[0, 0, 0]	n/a	FR1	0	R1571T
1669.002	10.428	1898778	COUNTDOWN_START	n/a	n/a	n/a	-999	14	[0, 0, 0]	n/a	FR1	0	R1571T
1679.43	0.006	1909206	COUNTDOWN_END	n/a	n/a	n/a	-999	14	[0, 0, 0]	n/a	FR1	0	R1571T
1679.436	2.535	1909212	ORIENT	n/a	n/a	n/a	-999	14	[0, 0, 0]	n/a	FR1	0	R1571T
1681.971	2.533	1911747	WORD	n/a	wordpools/wordpool_EN.txt	BOMB	1	14	[0, 0, 0]	n/a	FR1	0	R1571T
1684.504	2.518	1914280	WORD	n/a	wordpools/wordpool_EN.txt	FORT	2	14	[0, 0, 0]	n/a	FR1	0	R1571T
1687.022	2.582	1916798	WORD	n/a	wordpools/wordpool_EN.txt	STEAM	3	14	[0, 0, 0]	n/a	FR1	0	R1571T
1689.604	2.435	1919380	WORD	n/a	wordpools/wordpool_EN.txt	DRUM	4	14	[0, 0, 0]	n/a	FR1	0	R1571T
1692.039	2.533	1921815	WORD	n/a	wordpools/wordpool_EN.txt	BARN	5	14	[0, 0, 0]	n/a	FR1	0	R1571T
1694.572	2.485	1924348	WORD	n/a	wordpools/wordpool_EN.txt	TRASH	6	14	[0, 0, 0]	n/a	FR1	0	R1571T
1697.057	2.466	1926832	WORD	n/a	wordpools/wordpool_EN.txt	FLUTE	7	14	[0, 0, 0]	n/a	FR1	0	R1571T
1699.523	2.568	1929298	WORD	n/a	wordpools/wordpool_EN.txt	WHEEL	8	14	[0, 0, 0]	n/a	FR1	0	R1571T
1702.091	2.549	1931866	WORD	n/a	wordpools/wordpool_EN.txt	RAIN	9	14	[0, 0, 0]	n/a	FR1	0	R1571T
1704.64	2.368	1934415	WORD	n/a	wordpools/wordpool_EN.txt	BRIDGE	10	14	[0, 0, 0]	n/a	FR1	0	R1571T
1707.008	2.433	1936783	WORD	n/a	wordpools/wordpool_EN.txt	LAND	11	14	[0, 0, 0]	n/a	FR1	0	R1571T
1709.441	1.601	1939216	WORD	n/a	wordpools/wordpool_EN.txt	FOG	12	14	[0, 0, 0]	n/a	FR1	0	R1571T
1711.042	0.001	1940817	DISTRACT_START	n/a	n/a	n/a	-999	14	[0, 0, 0]	n/a	FR1	0	R1571T
1711.043	0.016	1940818	START	n/a	n/a	n/a	-999	14	[-999, -999, -999]	n/a	FR1	0	R1571T
1711.059	4.117	1940834	PROB	4.117	n/a	n/a	-999	14	[8, 1, 3]	12	FR1	0	R1571T
1715.176	2.117	1944951	PROB	2.117	n/a	n/a	-999	14	[1, 2, 2]	5	FR1	0	R1571T
1717.293	4.483	1947068	PROB	4.483	n/a	n/a	-999	14	[7, 1, 4]	12	FR1	0	R1571T
1721.776	3.734	1951551	PROB	3.734	n/a	n/a	-999	14	[4, 3, 5]	12	FR1	0	R1571T
1725.51	3.618	1955285	PROB	3.618	n/a	n/a	-999	14	[2, 3, 3]	8	FR1	0	R1571T
1729.128	5.287	1958902	PROB	5.287	n/a	n/a	-999	14	[5, 6, 1]	12	FR1	0	R1571T
1734.415	0.013	1964189	STOP	n/a	n/a	n/a	-999	14	[-999, -999, -999]	n/a	FR1	0	R1571T
1734.428	1.134	1964202	DISTRACT_END	n/a	n/a	n/a	-999	14	[0, 0, 0]	n/a	FR1	0	R1571T
1735.562	3.332	1965336	REC_START	n/a	n/a	n/a	-999	14	[0, 0, 0]	n/a	FR1	0	R1571T
1738.894	1.0	1968668	REC_WORD_VV	1.0	n/a	<>	-999	14	[0, 0, 0]	n/a	FR1	0	R1571T
1739.894	1.0	1969668	REC_WORD_VV	1.0	n/a	<>	-999	14	[0, 0, 0]	n/a	FR1	0	R1571T
1740.894	3.559	1970668	REC_WORD_VV	3.559	n/a	<>	-999	14	[0, 0, 0]	n/a	FR1	0	R1571T
1744.453	1.0	1974227	REC_WORD_VV	1.0	n/a	<>	-999	14	[0, 0, 0]	n/a	FR1	0	R1571T
1745.453	7.344	1975227	REC_WORD_VV	7.344	n/a	<>	-999	14	[0, 0, 0]	n/a	FR1	0	R1571T
1752.797	1.0	1982571	REC_WORD_VV	1.0	n/a	<>	-999	14	[0, 0, 0]	n/a	FR1	0	R1571T
1753.797	1.0	1983571	REC_WORD_VV	1.0	n/a	<>	-999	14	[0, 0, 0]	n/a	FR1	0	R1571T
1754.797	1.758	1984571	REC_WORD_VV	1.758	n/a	<>	-999	14	[0, 0, 0]	n/a	FR1	0	R1571T
1756.555	1.0	1986329	REC_WORD_VV	1.0	n/a	<>	-999	14	[0, 0, 0]	n/a	FR1	0	R1571T
1757.555	1.0	1987328	REC_WORD_VV	1.0	n/a	<>	-999	14	[0, 0, 0]	n/a	FR1	0	R1571T
1758.555	2.557	1988328	REC_WORD_VV	2.557	n/a	<>	-999	14	[0, 0, 0]	n/a	FR1	0	R1571T
1761.112	1.0	1990885	REC_WORD_VV	1.0	n/a	<>	-999	14	[0, 0, 0]	n/a	FR1	0	R1571T
1762.112	3.464	1991885	REC_WORD_VV	3.464	n/a	<>	-999	14	[0, 0, 0]	n/a	FR1	0	R1571T
1765.576	2.675	1995349	REC_END	n/a	n/a	n/a	-999	14	[0, 0, 0]	n/a	FR1	0	R1571T
1768.251	0.0	1998024	TRIAL	n/a	n/a	n/a	-999	15	[0, 0, 0]	n/a	FR1	0	R1571T
1768.251	10.428	1998024	COUNTDOWN_START	n/a	n/a	n/a	-999	15	[0, 0, 0]	n/a	FR1	0	R1571T
1778.679	0.006	2008452	COUNTDOWN_END	n/a	n/a	n/a	-999	15	[0, 0, 0]	n/a	FR1	0	R1571T
1778.685	2.601	2008458	ORIENT	n/a	n/a	n/a	-999	15	[0, 0, 0]	n/a	FR1	0	R1571T
1781.286	2.517	2011059	WORD	n/a	wordpools/wordpool_EN.txt	SHRIMP	1	15	[0, 0, 0]	n/a	FR1	0	R1571T
1783.803	2.434	2013576	WORD	n/a	wordpools/wordpool_EN.txt	SALT	2	15	[0, 0, 0]	n/a	FR1	0	R1571T
1786.237	2.55	2016010	WORD	n/a	wordpools/wordpool_EN.txt	STRING	3	15	[0, 0, 0]	n/a	FR1	0	R1571T
1788.787	2.384	2018559	WORD	n/a	wordpools/wordpool_EN.txt	DIME	4	15	[0, 0, 0]	n/a	FR1	0	R1571T
1791.171	2.55	2020943	WORD	n/a	wordpools/wordpool_EN.txt	SPOON	5	15	[0, 0, 0]	n/a	FR1	0	R1571T
1793.721	2.418	2023493	WORD	n/a	wordpools/wordpool_EN.txt	SPONGE	6	15	[0, 0, 0]	n/a	FR1	0	R1571T
1796.139	2.399	2025911	WORD	n/a	wordpools/wordpool_EN.txt	ZOO	7	15	[0, 0, 0]	n/a	FR1	0	R1571T
1798.538	2.618	2028310	WORD	n/a	wordpools/wordpool_EN.txt	CLOWN	8	15	[0, 0, 0]	n/a	FR1	0	R1571T
1801.156	2.583	2030928	WORD	n/a	wordpools/wordpool_EN.txt	PASTE	9	15	[0, 0, 0]	n/a	FR1	0	R1571T
1803.739	2.618	2033511	WORD	n/a	wordpools/wordpool_EN.txt	TOOL	10	15	[0, 0, 0]	n/a	FR1	0	R1571T
1806.357	2.567	2036129	WORD	n/a	wordpools/wordpool_EN.txt	TEETH	11	15	[0, 0, 0]	n/a	FR1	0	R1571T
1808.924	1.616	2038696	WORD	n/a	wordpools/wordpool_EN.txt	ELF	12	15	[0, 0, 0]	n/a	FR1	0	R1571T
1810.54	0.001	2040312	DISTRACT_START	n/a	n/a	n/a	-999	15	[0, 0, 0]	n/a	FR1	0	R1571T
1810.541	0.016	2040313	START	n/a	n/a	n/a	-999	15	[-999, -999, -999]	n/a	FR1	0	R1571T
1810.557	6.585	2040329	PROB	6.585	n/a	n/a	-999	15	[5, 8, 1]	14	FR1	0	R1571T
1817.142	5.517	2046913	PROB	5.517	n/a	n/a	-999	15	[5, 1, 7]	13	FR1	0	R1571T
1822.659	3.384	2052430	PROB	3.384	n/a	n/a	-999	15	[2, 4, 2]	8	FR1	0	R1571T
1826.043	5.353	2055814	PROB	5.353	n/a	n/a	-999	15	[3, 1, 4]	8	FR1	0	R1571T
1831.396	0.014	2061167	STOP	n/a	n/a	n/a	-999	15	[-999, -999, -999]	n/a	FR1	0	R1571T
1831.41	1.151	2061181	DISTRACT_END	n/a	n/a	n/a	-999	15	[0, 0, 0]	n/a	FR1	0	R1571T
1832.561	2.487	2062332	REC_START	n/a	n/a	n/a	-999	15	[0, 0, 0]	n/a	FR1	0	R1571T
1835.048	4.235	2064819	REC_WORD_VV	4.235	n/a	<>	-999	15	[0, 0, 0]	n/a	FR1	0	R1571T
1839.283	6.335	2069054	REC_WORD	6.335	n/a	SHRIMP	1	15	[0, 0, 0]	n/a	FR1	0	R1571T
1845.618	1.0	2075389	REC_WORD	1.0	n/a	SHRIMP	1	15	[0, 0, 0]	n/a	FR1	0	R1571T
1846.618	1.803	2076389	REC_WORD_VV	1.803	n/a	<>	-999	15	[0, 0, 0]	n/a	FR1	0	R1571T
1848.421	3.324	2078191	REC_WORD_VV	3.324	n/a	<>	-999	15	[0, 0, 0]	n/a	FR1	0	R1571T
1851.745	1.0	2081515	REC_WORD_VV	1.0	n/a	<>	-999	15	[0, 0, 0]	n/a	FR1	0	R1571T
1852.745	1.178	2082515	REC_WORD_VV	1.178	n/a	<>	-999	15	[0, 0, 0]	n/a	FR1	0	R1571T
1853.923	7.676	2083693	REC_WORD	7.676	n/a	TOOL	10	15	[0, 0, 0]	n/a	FR1	0	R1571T
1861.599	0.973	2091369	REC_WORD_VV	0.973	n/a	<>	-999	15	[0, 0, 0]	n/a	FR1	0	R1571T
1862.572	28.348	2092342	REC_END	n/a	n/a	n/a	-999	15	[0, 0, 0]	n/a	FR1	0	R1571T
1890.92	0.001	2120689	COUNTDOWN_START	n/a	n/a	n/a	-999	16	[0, 0, 0]	n/a	FR1	0	R1571T
1890.921	10.427	2120690	TRIAL	n/a	n/a	n/a	-999	16	[0, 0, 0]	n/a	FR1	0	R1571T
1901.348	0.007	2131117	COUNTDOWN_END	n/a	n/a	n/a	-999	16	[0, 0, 0]	n/a	FR1	0	R1571T
1901.355	2.4	2131124	ORIENT	n/a	n/a	n/a	-999	16	[0, 0, 0]	n/a	FR1	0	R1571T
1903.755	2.585	2133524	WORD	n/a	wordpools/wordpool_EN.txt	LAMP	1	16	[0, 0, 0]	n/a	FR1	0	R1571T
1906.34	2.482	2136109	WORD	n/a	wordpools/wordpool_EN.txt	BOX	2	16	[0, 0, 0]	n/a	FR1	0	R1571T
1908.822	2.518	2138590	WORD	n/a	wordpools/wordpool_EN.txt	CHAIR	3	16	[0, 0, 0]	n/a	FR1	0	R1571T
1911.34	2.566	2141108	WORD	n/a	wordpools/wordpool_EN.txt	PHONE	4	16	[0, 0, 0]	n/a	FR1	0	R1571T
1913.906	2.584	2143674	WORD	n/a	wordpools/wordpool_EN.txt	GATE	5	16	[0, 0, 0]	n/a	FR1	0	R1571T
1916.49	2.468	2146258	WORD	n/a	wordpools/wordpool_EN.txt	OAK	6	16	[0, 0, 0]	n/a	FR1	0	R1571T
1918.958	2.466	2148726	WORD	n/a	wordpools/wordpool_EN.txt	SHARK	7	16	[0, 0, 0]	n/a	FR1	0	R1571T
1921.424	2.552	2151192	WORD	n/a	wordpools/wordpool_EN.txt	LOCK	8	16	[0, 0, 0]	n/a	FR1	0	R1571T
1923.976	2.432	2153744	WORD	n/a	wordpools/wordpool_EN.txt	STREET	9	16	[0, 0, 0]	n/a	FR1	0	R1571T
1926.408	2.518	2156176	WORD	n/a	wordpools/wordpool_EN.txt	MAZE	10	16	[0, 0, 0]	n/a	FR1	0	R1571T
1928.926	2.566	2158694	WORD	n/a	wordpools/wordpool_EN.txt	CLOCK	11	16	[0, 0, 0]	n/a	FR1	0	R1571T
1931.492	1.601	2161260	WORD	n/a	wordpools/wordpool_EN.txt	LAWN	12	16	[0, 0, 0]	n/a	FR1	0	R1571T
1933.093	0.001	2162861	DISTRACT_START	n/a	n/a	n/a	-999	16	[0, 0, 0]	n/a	FR1	0	R1571T
1933.094	0.016	2162862	START	n/a	n/a	n/a	-999	16	[-999, -999, -999]	n/a	FR1	0	R1571T
1933.11	6.784	2162878	PROB	6.784	n/a	n/a	-999	16	[7, 9, 5]	21	FR1	0	R1571T
1939.894	2.451	2169661	PROB	2.451	n/a	n/a	-999	16	[9, 5, 5]	19	FR1	0	R1571T
1942.345	7.985	2172112	PROB	7.985	n/a	n/a	-999	16	[8, 9, 4]	21	FR1	0	R1571T
1950.33	4.897	2180097	PROB	4.897	n/a	n/a	-999	16	[6, 6, 4]	16	FR1	0	R1571T
1955.227	0.02	2184994	STOP	n/a	n/a	n/a	-999	16	[-999, -999, -999]	n/a	FR1	0	R1571T
1955.247	1.183	2185014	DISTRACT_END	n/a	n/a	n/a	-999	16	[0, 0, 0]	n/a	FR1	0	R1571T
1956.43	9.665	2186197	REC_START	n/a	n/a	n/a	-999	16	[0, 0, 0]	n/a	FR1	0	R1571T
1966.095	2.583	2195862	REC_WORD	2.583	n/a	OAK	6	16	[0, 0, 0]	n/a	FR1	0	R1571T
1968.678	2.061	2198444	REC_WORD_VV	2.061	n/a	<>	-999	16	[0, 0, 0]	n/a	FR1	0	R1571T
1970.739	1.695	2200505	REC_WORD	1.695	n/a	OAK	6	16	[0, 0, 0]	n/a	FR1	0	R1571T
1972.434	6.089	2202200	REC_WORD_VV	6.089	n/a	<>	-999	16	[0, 0, 0]	n/a	FR1	0	R1571T
1978.523	1.041	2208289	REC_WORD_VV	1.041	n/a	<>	-999	16	[0, 0, 0]	n/a	FR1	0	R1571T
1979.564	0.764	2209330	REC_WORD	0.764	n/a	OAK	6	16	[0, 0, 0]	n/a	FR1	0	R1571T
1980.328	6.118	2210094	REC_WORD_VV	6.118	n/a	<>	-999	16	[0, 0, 0]	n/a	FR1	0	R1571T
1986.446	23.626	2216212	REC_END	n/a	n/a	n/a	-999	16	[0, 0, 0]	n/a	FR1	0	R1571T
2010.072	0.001	2239837	COUNTDOWN_START	n/a	n/a	n/a	-999	17	[0, 0, 0]	n/a	FR1	0	R1571T
2010.073	10.427	2239838	TRIAL	n/a	n/a	n/a	-999	17	[0, 0, 0]	n/a	FR1	0	R1571T
2020.5	0.006	2250265	COUNTDOWN_END	n/a	n/a	n/a	-999	17	[0, 0, 0]	n/a	FR1	0	R1571T
2020.506	2.602	2250271	ORIENT	n/a	n/a	n/a	-999	17	[0, 0, 0]	n/a	FR1	0	R1571T
2023.108	2.566	2252873	WORD	n/a	wordpools/wordpool_EN.txt	TOE	1	17	[0, 0, 0]	n/a	FR1	0	R1571T
2025.674	2.435	2255439	WORD	n/a	wordpools/wordpool_EN.txt	CHIN	2	17	[0, 0, 0]	n/a	FR1	0	R1571T
2028.109	2.482	2257874	WORD	n/a	wordpools/wordpool_EN.txt	WING	3	17	[0, 0, 0]	n/a	FR1	0	R1571T
2030.591	2.552	2260355	WORD	n/a	wordpools/wordpool_EN.txt	GLOVE	4	17	[0, 0, 0]	n/a	FR1	0	R1571T
2033.143	2.583	2262907	WORD	n/a	wordpools/wordpool_EN.txt	NOSE	5	17	[0, 0, 0]	n/a	FR1	0	R1571T
2035.726	2.584	2265490	WORD	n/a	wordpools/wordpool_EN.txt	CAT	6	17	[0, 0, 0]	n/a	FR1	0	R1571T
2038.31	2.583	2268074	WORD	n/a	wordpools/wordpool_EN.txt	FUR	7	17	[0, 0, 0]	n/a	FR1	0	R1571T
2040.893	2.418	2270657	WORD	n/a	wordpools/wordpool_EN.txt	OAR	8	17	[0, 0, 0]	n/a	FR1	0	R1571T
2043.311	2.433	2273075	WORD	n/a	wordpools/wordpool_EN.txt	TREE	9	17	[0, 0, 0]	n/a	FR1	0	R1571T
2045.744	2.551	2275508	WORD	n/a	wordpools/wordpool_EN.txt	SHIELD	10	17	[0, 0, 0]	n/a	FR1	0	R1571T
2048.295	2.466	2278059	WORD	n/a	wordpools/wordpool_EN.txt	ROPE	11	17	[0, 0, 0]	n/a	FR1	0	R1571T
2050.761	1.602	2280525	WORD	n/a	wordpools/wordpool_EN.txt	BLOOM	12	17	[0, 0, 0]	n/a	FR1	0	R1571T
2052.363	0.0	2282127	DISTRACT_START	n/a	n/a	n/a	-999	17	[0, 0, 0]	n/a	FR1	0	R1571T
2052.363	0.016	2282127	START	n/a	n/a	n/a	-999	17	[-999, -999, -999]	n/a	FR1	0	R1571T
2052.379	7.134	2282143	PROB	7.134	n/a	n/a	-999	17	[3, 2, 8]	13	FR1	0	R1571T
2059.513	4.033	2289276	PROB	4.033	n/a	n/a	-999	17	[5, 1, 3]	9	FR1	0	R1571T
2063.546	4.201	2293309	PROB	4.201	n/a	n/a	-999	17	[4, 5, 3]	12	FR1	0	R1571T
2067.747	2.485	2297510	PROB	2.485	n/a	n/a	-999	17	[8, 3, 7]	18	FR1	0	R1571T
2070.232	5.936	2299995	PROB	5.936	n/a	n/a	-999	17	[4, 9, 3]	16	FR1	0	R1571T
2076.168	0.015	2305931	STOP	n/a	n/a	n/a	-999	17	[-999, -999, -999]	n/a	FR1	0	R1571T
2076.183	1.117	2305946	DISTRACT_END	n/a	n/a	n/a	-999	17	[0, 0, 0]	n/a	FR1	0	R1571T
2077.3	1.889	2307063	REC_START	n/a	n/a	n/a	-999	17	[0, 0, 0]	n/a	FR1	0	R1571T
2079.189	1.0	2308952	REC_WORD_VV	1.0	n/a	<>	-999	17	[0, 0, 0]	n/a	FR1	0	R1571T
2080.189	3.108	2309952	REC_WORD_VV	3.108	n/a	<>	-999	17	[0, 0, 0]	n/a	FR1	0	R1571T
2083.297	1.0	2313060	REC_WORD_VV	1.0	n/a	<>	-999	17	[0, 0, 0]	n/a	FR1	0	R1571T
2084.297	1.0	2314060	REC_WORD_VV	1.0	n/a	<>	-999	17	[0, 0, 0]	n/a	FR1	0	R1571T
2085.297	4.555	2315060	REC_WORD_VV	4.555	n/a	<>	-999	17	[0, 0, 0]	n/a	FR1	0	R1571T
2089.852	1.494	2319614	REC_WORD_VV	1.494	n/a	<>	-999	17	[0, 0, 0]	n/a	FR1	0	R1571T
2091.346	0.179	2321108	REC_WORD_VV	0.179	n/a	<>	-999	17	[0, 0, 0]	n/a	FR1	0	R1571T
2091.525	2.743	2321287	REC_WORD	2.743	n/a	GLOW	-999	17	[0, 0, 0]	n/a	FR1	0	R1571T
2094.268	0.945	2324030	REC_WORD	0.945	n/a	CAT	6	17	[0, 0, 0]	n/a	FR1	0	R1571T
2095.213	1.0	2324975	REC_WORD	1.0	n/a	FUR	7	17	[0, 0, 0]	n/a	FR1	0	R1571T
2096.213	0.824	2325975	REC_WORD_VV	0.824	n/a	<>	-999	17	[0, 0, 0]	n/a	FR1	0	R1571T
2097.037	2.064	2326799	REC_WORD	2.064	n/a	OAK	-999	17	[0, 0, 0]	n/a	FR1	0	R1571T
2099.101	2.193	2328863	REC_WORD	2.193	n/a	CHIN	2	17	[0, 0, 0]	n/a	FR1	0	R1571T
2101.294	5.401	2331056	REC_WORD	5.401	n/a	NOSE	5	17	[0, 0, 0]	n/a	FR1	0	R1571T
2106.695	0.614	2336457	REC_WORD_VV	0.614	n/a	<>	-999	17	[0, 0, 0]	n/a	FR1	0	R1571T
2107.309	63.171	2337071	REC_END	n/a	n/a	n/a	-999	17	[0, 0, 0]	n/a	FR1	0	R1571T
2170.48	0.001	2400240	COUNTDOWN_START	n/a	n/a	n/a	-999	18	[0, 0, 0]	n/a	FR1	0	R1571T
2170.481	10.427	2400241	TRIAL	n/a	n/a	n/a	-999	18	[0, 0, 0]	n/a	FR1	0	R1571T
2180.908	0.007	2410667	COUNTDOWN_END	n/a	n/a	n/a	-999	18	[0, 0, 0]	n/a	FR1	0	R1571T
2180.915	2.534	2410674	ORIENT	n/a	n/a	n/a	-999	18	[0, 0, 0]	n/a	FR1	0	R1571T
2183.449	2.484	2413208	WORD	n/a	wordpools/wordpool_EN.txt	FOAM	1	18	[0, 0, 0]	n/a	FR1	0	R1571T
2185.933	2.533	2415692	WORD	n/a	wordpools/wordpool_EN.txt	PEARL	2	18	[0, 0, 0]	n/a	FR1	0	R1571T
2188.466	2.585	2418225	WORD	n/a	wordpools/wordpool_EN.txt	PEACH	3	18	[0, 0, 0]	n/a	FR1	0	R1571T
2191.051	2.616	2420810	WORD	n/a	wordpools/wordpool_EN.txt	BEAN	4	18	[0, 0, 0]	n/a	FR1	0	R1571T
2193.667	2.568	2423426	WORD	n/a	wordpools/wordpool_EN.txt	JAR	5	18	[0, 0, 0]	n/a	FR1	0	R1571T
2196.235	2.416	2425994	WORD	n/a	wordpools/wordpool_EN.txt	DESK	6	18	[0, 0, 0]	n/a	FR1	0	R1571T
2198.651	2.502	2428410	WORD	n/a	wordpools/wordpool_EN.txt	SLIME	7	18	[0, 0, 0]	n/a	FR1	0	R1571T
2201.153	2.599	2430912	WORD	n/a	wordpools/wordpool_EN.txt	CUP	8	18	[0, 0, 0]	n/a	FR1	0	R1571T
2203.752	2.535	2433511	WORD	n/a	wordpools/wordpool_EN.txt	HOOK	9	18	[0, 0, 0]	n/a	FR1	0	R1571T
2206.287	2.466	2436046	WORD	n/a	wordpools/wordpool_EN.txt	SOUP	10	18	[0, 0, 0]	n/a	FR1	0	R1571T
2208.753	2.618	2438512	WORD	n/a	wordpools/wordpool_EN.txt	STOOL	11	18	[0, 0, 0]	n/a	FR1	0	R1571T
2211.371	1.617	2441129	WORD	n/a	wordpools/wordpool_EN.txt	FRUIT	12	18	[0, 0, 0]	n/a	FR1	0	R1571T
2212.988	0.002	2442746	DISTRACT_START	n/a	n/a	n/a	-999	18	[0, 0, 0]	n/a	FR1	0	R1571T
2212.99	0.014	2442748	START	n/a	n/a	n/a	-999	18	[-999, -999, -999]	n/a	FR1	0	R1571T
2213.004	7.451	2442762	PROB	7.451	n/a	n/a	-999	18	[7, 5, 7]	19	FR1	0	R1571T
2220.455	11.786	2450213	PROB	11.786	n/a	n/a	-999	18	[8, 9, 4]	21	FR1	0	R1571T
2232.241	2.907	2461999	PROB	2.907	n/a	n/a	-999	18	[7, 3, 8]	18	FR1	0	R1571T
2235.148	0.01	2464906	STOP	n/a	n/a	n/a	-999	18	[-999, -999, -999]	n/a	FR1	0	R1571T
2235.158	1.101	2464916	DISTRACT_END	n/a	n/a	n/a	-999	18	[0, 0, 0]	n/a	FR1	0	R1571T
2236.259	9.223	2466017	REC_START	n/a	n/a	n/a	-999	18	[0, 0, 0]	n/a	FR1	0	R1571T
2245.482	1.0	2475239	REC_WORD_VV	1.0	n/a	<>	-999	18	[0, 0, 0]	n/a	FR1	0	R1571T
2246.482	1.0	2476239	REC_WORD_VV	1.0	n/a	<>	-999	18	[0, 0, 0]	n/a	FR1	0	R1571T
2247.482	1.0	2477239	REC_WORD_VV	1.0	n/a	<>	-999	18	[0, 0, 0]	n/a	FR1	0	R1571T
2248.482	3.078	2478239	REC_WORD_VV	3.078	n/a	<>	-999	18	[0, 0, 0]	n/a	FR1	0	R1571T
2251.56	1.0	2481317	REC_WORD	1.0	n/a	BEAN	4	18	[0, 0, 0]	n/a	FR1	0	R1571T
2252.56	4.158	2482317	REC_WORD_VV	4.158	n/a	<>	-999	18	[0, 0, 0]	n/a	FR1	0	R1571T
2256.718	1.426	2486475	REC_WORD_VV	1.426	n/a	<>	-999	18	[0, 0, 0]	n/a	FR1	0	R1571T
2258.144	2.477	2487901	REC_WORD_VV	2.477	n/a	<>	-999	18	[0, 0, 0]	n/a	FR1	0	R1571T
2260.621	1.0	2490378	REC_WORD	1.0	n/a	SOAP	-999	18	[0, 0, 0]	n/a	FR1	0	R1571T
2261.621	4.648	2491378	REC_WORD_VV	4.648	n/a	<>	-999	18	[0, 0, 0]	n/a	FR1	0	R1571T
2266.269	5.861	2496026	REC_END	n/a	n/a	n/a	-999	18	[0, 0, 0]	n/a	FR1	0	R1571T
2272.13	0.001	2501886	COUNTDOWN_START	n/a	n/a	n/a	-999	19	[0, 0, 0]	n/a	FR1	0	R1571T
2272.131	10.427	2501887	TRIAL	n/a	n/a	n/a	-999	19	[0, 0, 0]	n/a	FR1	0	R1571T
2282.558	0.006	2512314	COUNTDOWN_END	n/a	n/a	n/a	-999	19	[0, 0, 0]	n/a	FR1	0	R1571T
2282.564	2.518	2512320	ORIENT	n/a	n/a	n/a	-999	19	[0, 0, 0]	n/a	FR1	0	R1571T
2285.082	2.5	2514838	WORD	n/a	wordpools/wordpool_EN.txt	BENCH	1	19	[0, 0, 0]	n/a	FR1	0	R1571T
2287.582	2.435	2517338	WORD	n/a	wordpools/wordpool_EN.txt	COUCH	2	19	[0, 0, 0]	n/a	FR1	0	R1571T
2290.017	2.416	2519773	WORD	n/a	wordpools/wordpool_EN.txt	POOL	3	19	[0, 0, 0]	n/a	FR1	0	R1571T
2292.433	2.618	2522189	WORD	n/a	wordpools/wordpool_EN.txt	AXE	4	19	[0, 0, 0]	n/a	FR1	0	R1571T
2295.051	2.549	2524807	WORD	n/a	wordpools/wordpool_EN.txt	TEA	5	19	[0, 0, 0]	n/a	FR1	0	R1571T
2297.6	2.452	2527356	WORD	n/a	wordpools/wordpool_EN.txt	FLOOR	6	19	[0, 0, 0]	n/a	FR1	0	R1571T
2300.052	2.599	2529808	WORD	n/a	wordpools/wordpool_EN.txt	LEG	7	19	[0, 0, 0]	n/a	FR1	0	R1571T
2302.651	2.401	2532406	WORD	n/a	wordpools/wordpool_EN.txt	HOUSE	8	19	[0, 0, 0]	n/a	FR1	0	R1571T
2305.052	2.616	2534807	WORD	n/a	wordpools/wordpool_EN.txt	PURSE	9	19	[0, 0, 0]	n/a	FR1	0	R1571T
2307.668	2.368	2537423	WORD	n/a	wordpools/wordpool_EN.txt	PALM	10	19	[0, 0, 0]	n/a	FR1	0	R1571T
2310.036	2.583	2539791	WORD	n/a	wordpools/wordpool_EN.txt	DART	11	19	[0, 0, 0]	n/a	FR1	0	R1571T
2312.619	1.601	2542374	WORD	n/a	wordpools/wordpool_EN.txt	SHOE	12	19	[0, 0, 0]	n/a	FR1	0	R1571T
2314.22	0.001	2543975	DISTRACT_START	n/a	n/a	n/a	-999	19	[0, 0, 0]	n/a	FR1	0	R1571T
2314.221	0.016	2543976	START	n/a	n/a	n/a	-999	19	[-999, -999, -999]	n/a	FR1	0	R1571T
2314.237	3.483	2543992	PROB	3.483	n/a	n/a	-999	19	[9, 5, 5]	19	FR1	0	R1571T
2317.72	2.335	2547475	PROB	2.335	n/a	n/a	-999	19	[2, 5, 5]	12	FR1	0	R1571T
2320.055	2.499	2549810	PROB	2.499	n/a	n/a	-999	19	[4, 7, 3]	14	FR1	0	R1571T
2322.554	5.134	2552309	PROB	5.134	n/a	n/a	-999	19	[4, 2, 9]	15	FR1	0	R1571T
2327.688	3.184	2557443	PROB	3.184	n/a	n/a	-999	19	[5, 3, 1]	9	FR1	0	R1571T
2330.872	9.321	2560627	PROB	9.321	n/a	n/a	-999	19	[9, 6, 7]	22	FR1	0	R1571T
2340.193	0.015	2569947	STOP	n/a	n/a	n/a	-999	19	[-999, -999, -999]	n/a	FR1	0	R1571T
2340.208	1.067	2569962	DISTRACT_END	n/a	n/a	n/a	-999	19	[0, 0, 0]	n/a	FR1	0	R1571T
2341.275	1.301	2571029	REC_START	n/a	n/a	n/a	-999	19	[0, 0, 0]	n/a	FR1	0	R1571T
2342.576	2.231	2572330	REC_WORD	2.231	n/a	DART	11	19	[0, 0, 0]	n/a	FR1	0	R1571T
2344.807	6.1	2574561	REC_WORD	6.1	n/a	SHOE	12	19	[0, 0, 0]	n/a	FR1	0	R1571T
2350.907	7.367	2580661	REC_WORD_VV	7.367	n/a	<>	-999	19	[0, 0, 0]	n/a	FR1	0	R1571T
2358.274	1.0	2588028	REC_WORD_VV	1.0	n/a	<>	-999	19	[0, 0, 0]	n/a	FR1	0	R1571T
2359.274	1.188	2589028	REC_WORD_VV	1.188	n/a	<>	-999	19	[0, 0, 0]	n/a	FR1	0	R1571T
2360.462	0.533	2590216	REC_WORD	0.533	n/a	DART	11	19	[0, 0, 0]	n/a	FR1	0	R1571T
2360.995	1.0	2590749	REC_WORD	1.0	n/a	BEAN	-999	19	[0, 0, 0]	n/a	FR1	0	R1571T
2361.995	6.947	2591748	REC_WORD_VV	6.947	n/a	<>	-999	19	[0, 0, 0]	n/a	FR1	0	R1571T
2368.942	2.348	2598695	REC_WORD_VV	2.348	n/a	<>	-999	19	[0, 0, 0]	n/a	FR1	0	R1571T
2371.29	3.873	2601043	REC_END	n/a	n/a	n/a	-999	19	[0, 0, 0]	n/a	FR1	0	R1571T
2375.163	0.0	2604916	TRIAL	n/a	n/a	n/a	-999	20	[0, 0, 0]	n/a	FR1	0	R1571T
2375.163	10.428	2604916	COUNTDOWN_START	n/a	n/a	n/a	-999	20	[0, 0, 0]	n/a	FR1	0	R1571T
2385.591	0.006	2615344	COUNTDOWN_END	n/a	n/a	n/a	-999	20	[0, 0, 0]	n/a	FR1	0	R1571T
2385.597	2.468	2615350	ORIENT	n/a	n/a	n/a	-999	20	[0, 0, 0]	n/a	FR1	0	R1571T
2388.065	2.416	2617818	WORD	n/a	wordpools/wordpool_EN.txt	CROW	1	20	[0, 0, 0]	n/a	FR1	0	R1571T
2390.481	2.367	2620234	WORD	n/a	wordpools/wordpool_EN.txt	SOAP	2	20	[0, 0, 0]	n/a	FR1	0	R1571T
2392.848	2.485	2622600	WORD	n/a	wordpools/wordpool_EN.txt	RUG	3	20	[0, 0, 0]	n/a	FR1	0	R1571T
2395.333	2.634	2625085	WORD	n/a	wordpools/wordpool_EN.txt	SUIT	4	20	[0, 0, 0]	n/a	FR1	0	R1571T
2397.967	2.516	2627719	WORD	n/a	wordpools/wordpool_EN.txt	FAN	5	20	[0, 0, 0]	n/a	FR1	0	R1571T
2400.483	2.518	2630235	WORD	n/a	wordpools/wordpool_EN.txt	GOAT	6	20	[0, 0, 0]	n/a	FR1	0	R1571T
2403.001	2.483	2632753	WORD	n/a	wordpools/wordpool_EN.txt	RIB	7	20	[0, 0, 0]	n/a	FR1	0	R1571T
2405.484	2.601	2635236	WORD	n/a	wordpools/wordpool_EN.txt	BOOT	8	20	[0, 0, 0]	n/a	FR1	0	R1571T
2408.085	2.449	2637837	WORD	n/a	wordpools/wordpool_EN.txt	SHIRT	9	20	[0, 0, 0]	n/a	FR1	0	R1571T
2410.534	2.585	2640286	WORD	n/a	wordpools/wordpool_EN.txt	FENCE	10	20	[0, 0, 0]	n/a	FR1	0	R1571T
2413.119	2.433	2642871	WORD	n/a	wordpools/wordpool_EN.txt	BROOM	11	20	[0, 0, 0]	n/a	FR1	0	R1571T
2415.552	1.601	2645304	WORD	n/a	wordpools/wordpool_EN.txt	PANTS	12	20	[0, 0, 0]	n/a	FR1	0	R1571T
2417.153	0.001	2646905	DISTRACT_START	n/a	n/a	n/a	-999	20	[0, 0, 0]	n/a	FR1	0	R1571T
2417.154	0.016	2646906	START	n/a	n/a	n/a	-999	20	[-999, -999, -999]	n/a	FR1	0	R1571T
2417.17	9.7	2646922	PROB	9.7	n/a	n/a	-999	20	[4, 8, 3]	15	FR1	0	R1571T
2426.87	4.502	2656621	PROB	4.502	n/a	n/a	-999	20	[5, 3, 3]	11	FR1	0	R1571T
2431.372	6.538	2661123	PROB	6.538	n/a	n/a	-999	20	[6, 9, 9]	24	FR1	0	R1571T
2437.91	0.013	2667661	STOP	n/a	n/a	n/a	-999	20	[-999, -999, -999]	n/a	FR1	0	R1571T
2437.923	1.184	2667674	DISTRACT_END	n/a	n/a	n/a	-999	20	[0, 0, 0]	n/a	FR1	0	R1571T
2439.107	12.722	2668858	REC_START	n/a	n/a	n/a	-999	20	[0, 0, 0]	n/a	FR1	0	R1571T
2451.829	8.303	2681580	REC_WORD	8.303	n/a	SHOE	-999	20	[0, 0, 0]	n/a	FR1	0	R1571T
2460.132	5.109	2689882	REC_WORD	5.109	n/a	GOAT	6	20	[0, 0, 0]	n/a	FR1	0	R1571T
2465.241	1.0	2694991	REC_WORD_VV	1.0	n/a	<>	-999	20	[0, 0, 0]	n/a	FR1	0	R1571T
2466.241	2.323	2695991	REC_WORD_VV	2.323	n/a	<>	-999	20	[0, 0, 0]	n/a	FR1	0	R1571T
2468.564	0.559	2698314	REC_WORD_VV	0.559	n/a	<>	-999	20	[0, 0, 0]	n/a	FR1	0	R1571T
2469.123	7.689	2698873	REC_END	n/a	n/a	n/a	-999	20	[0, 0, 0]	n/a	FR1	0	R1571T
2476.812	0.0	2706562	TRIAL	n/a	n/a	n/a	-999	21	[0, 0, 0]	n/a	FR1	0	R1571T
2476.812	10.428	2706562	COUNTDOWN_START	n/a	n/a	n/a	-999	21	[0, 0, 0]	n/a	FR1	0	R1571T
2487.24	0.008	2716989	COUNTDOWN_END	n/a	n/a	n/a	-999	21	[0, 0, 0]	n/a	FR1	0	R1571T
2487.248	2.599	2716997	ORIENT	n/a	n/a	n/a	-999	21	[0, 0, 0]	n/a	FR1	0	R1571T
2489.847	2.418	2719596	WORD	n/a	wordpools/wordpool_EN.txt	SQUARE	1	21	[0, 0, 0]	n/a	FR1	0	R1571T
2492.265	2.416	2722014	WORD	n/a	wordpools/wordpool_EN.txt	CART	2	21	[0, 0, 0]	n/a	FR1	0	R1571T
2494.681	2.451	2724430	WORD	n/a	wordpools/wordpool_EN.txt	BOWL	3	21	[0, 0, 0]	n/a	FR1	0	R1571T
2497.132	2.483	2726881	WORD	n/a	wordpools/wordpool_EN.txt	BOY	4	21	[0, 0, 0]	n/a	FR1	0	R1571T
2499.615	2.402	2729364	WORD	n/a	wordpools/wordpool_EN.txt	WOOD	5	21	[0, 0, 0]	n/a	FR1	0	R1571T
2502.017	2.482	2731766	WORD	n/a	wordpools/wordpool_EN.txt	BOAT	6	21	[0, 0, 0]	n/a	FR1	0	R1571T
2504.499	2.552	2734248	WORD	n/a	wordpools/wordpool_EN.txt	CROWN	7	21	[0, 0, 0]	n/a	FR1	0	R1571T
2507.051	2.599	2736800	WORD	n/a	wordpools/wordpool_EN.txt	CLAY	8	21	[0, 0, 0]	n/a	FR1	0	R1571T
2509.65	2.468	2739399	WORD	n/a	wordpools/wordpool_EN.txt	CANE	9	21	[0, 0, 0]	n/a	FR1	0	R1571T
2512.118	2.533	2741867	WORD	n/a	wordpools/wordpool_EN.txt	SLEEVE	10	21	[0, 0, 0]	n/a	FR1	0	R1571T
2514.651	2.568	2744399	WORD	n/a	wordpools/wordpool_EN.txt	SWORD	11	21	[0, 0, 0]	n/a	FR1	0	R1571T
2517.219	1.616	2746967	WORD	n/a	wordpools/wordpool_EN.txt	CUBE	12	21	[0, 0, 0]	n/a	FR1	0	R1571T
2518.835	0.001	2748583	DISTRACT_START	n/a	n/a	n/a	-999	21	[0, 0, 0]	n/a	FR1	0	R1571T
2518.836	0.016	2748584	START	n/a	n/a	n/a	-999	21	[-999, -999, -999]	n/a	FR1	0	R1571T
2518.852	3.734	2748600	PROB	3.734	n/a	n/a	-999	21	[9, 9, 1]	19	FR1	0	R1571T
2522.586	3.133	2752334	PROB	3.133	n/a	n/a	-999	21	[3, 6, 4]	13	FR1	0	R1571T
2525.719	3.218	2755467	PROB	3.218	n/a	n/a	-999	21	[4, 1, 8]	13	FR1	0	R1571T
2528.937	4.351	2758685	PROB	4.351	n/a	n/a	-999	21	[1, 3, 2]	6	FR1	0	R1571T
2533.288	5.4	2763036	PROB	5.4	n/a	n/a	-999	21	[7, 4, 9]	20	FR1	0	R1571T
2538.688	2.685	2768436	PROB	2.685	n/a	n/a	-999	21	[4, 4, 3]	11	FR1	0	R1571T
2541.373	0.016	2771121	STOP	n/a	n/a	n/a	-999	21	[-999, -999, -999]	n/a	FR1	0	R1571T
2541.389	1.1	2771137	DISTRACT_END	n/a	n/a	n/a	-999	21	[0, 0, 0]	n/a	FR1	0	R1571T
2542.489	2.327	2772237	REC_START	n/a	n/a	n/a	-999	21	[0, 0, 0]	n/a	FR1	0	R1571T
2544.816	1.0	2774563	REC_WORD	1.0	n/a	SQUARE	1	21	[0, 0, 0]	n/a	FR1	0	R1571T
2545.816	3.012	2775563	REC_WORD_VV	3.012	n/a	<>	-999	21	[0, 0, 0]	n/a	FR1	0	R1571T
2548.828	1.0	2778575	REC_WORD	1.0	n/a	SQUARE	1	21	[0, 0, 0]	n/a	FR1	0	R1571T
2549.828	2.508	2779575	REC_WORD_VV	2.508	n/a	<>	-999	21	[0, 0, 0]	n/a	FR1	0	R1571T
2552.336	4.338	2782083	REC_WORD	4.338	n/a	CUBE	12	21	[0, 0, 0]	n/a	FR1	0	R1571T
2556.674	1.0	2786421	REC_WORD	1.0	n/a	SWORD	11	21	[0, 0, 0]	n/a	FR1	0	R1571T
2557.674	2.555	2787421	REC_WORD_VV	2.555	n/a	<>	-999	21	[0, 0, 0]	n/a	FR1	0	R1571T
2560.229	1.0	2789976	REC_WORD_VV	1.0	n/a	<>	-999	21	[0, 0, 0]	n/a	FR1	0	R1571T
2561.229	7.968	2790976	REC_WORD_VV	7.968	n/a	<>	-999	21	[0, 0, 0]	n/a	FR1	0	R1571T
2569.197	2.568	2798944	REC_WORD_VV	2.568	n/a	<>	-999	21	[0, 0, 0]	n/a	FR1	0	R1571T
2571.765	0.739	2801512	REC_WORD_VV	0.739	n/a	<>	-999	21	[0, 0, 0]	n/a	FR1	0	R1571T
2572.504	35.713	2802251	REC_END	n/a	n/a	n/a	-999	21	[0, 0, 0]	n/a	FR1	0	R1571T
2608.217	0.0	2837962	COUNTDOWN_START	n/a	n/a	n/a	-999	22	[0, 0, 0]	n/a	FR1	0	R1571T
2608.217	10.428	2837962	TRIAL	n/a	n/a	n/a	-999	22	[0, 0, 0]	n/a	FR1	0	R1571T
2618.645	0.006	2848390	COUNTDOWN_END	n/a	n/a	n/a	-999	22	[0, 0, 0]	n/a	FR1	0	R1571T
2618.651	2.418	2848396	ORIENT	n/a	n/a	n/a	-999	22	[0, 0, 0]	n/a	FR1	0	R1571T
2621.069	2.399	2850814	WORD	n/a	wordpools/wordpool_EN.txt	TENT	1	22	[0, 0, 0]	n/a	FR1	0	R1571T
2623.468	2.585	2853213	WORD	n/a	wordpools/wordpool_EN.txt	GUARD	2	22	[0, 0, 0]	n/a	FR1	0	R1571T
2626.053	2.532	2855798	WORD	n/a	wordpools/wordpool_EN.txt	JEEP	3	22	[0, 0, 0]	n/a	FR1	0	R1571T
2628.585	2.435	2858330	WORD	n/a	wordpools/wordpool_EN.txt	ARK	4	22	[0, 0, 0]	n/a	FR1	0	R1571T
2631.02	2.383	2860765	WORD	n/a	wordpools/wordpool_EN.txt	LIP	5	22	[0, 0, 0]	n/a	FR1	0	R1571T
2633.403	2.467	2863148	WORD	n/a	wordpools/wordpool_EN.txt	PEN	6	22	[0, 0, 0]	n/a	FR1	0	R1571T
2635.87	2.401	2865614	WORD	n/a	wordpools/wordpool_EN.txt	CHEEK	7	22	[0, 0, 0]	n/a	FR1	0	R1571T
2638.271	2.6	2868015	WORD	n/a	wordpools/wordpool_EN.txt	BADGE	8	22	[0, 0, 0]	n/a	FR1	0	R1571T
2640.871	2.451	2870615	WORD	n/a	wordpools/wordpool_EN.txt	HAT	9	22	[0, 0, 0]	n/a	FR1	0	R1571T
2643.322	2.583	2873066	WORD	n/a	wordpools/wordpool_EN.txt	MUD	10	22	[0, 0, 0]	n/a	FR1	0	R1571T
2645.905	2.584	2875649	WORD	n/a	wordpools/wordpool_EN.txt	GEESE	11	22	[0, 0, 0]	n/a	FR1	0	R1571T
2648.489	1.618	2878233	WORD	n/a	wordpools/wordpool_EN.txt	HAND	12	22	[0, 0, 0]	n/a	FR1	0	R1571T
2650.107	0.0	2879851	DISTRACT_START	n/a	n/a	n/a	-999	22	[0, 0, 0]	n/a	FR1	0	R1571T
2650.107	0.016	2879851	START	n/a	n/a	n/a	-999	22	[-999, -999, -999]	n/a	FR1	0	R1571T
2650.123	3.234	2879867	PROB	3.234	n/a	n/a	-999	22	[3, 3, 7]	13	FR1	0	R1571T
2653.357	2.584	2883101	PROB	2.584	n/a	n/a	-999	22	[9, 5, 5]	19	FR1	0	R1571T
2655.941	5.966	2885685	PROB	5.966	n/a	n/a	-999	22	[7, 8, 8]	23	FR1	0	R1571T
2661.907	8.302	2891651	PROB	8.302	n/a	n/a	-999	22	[7, 9, 6]	22	FR1	0	R1571T
2670.209	0.017	2899952	STOP	n/a	n/a	n/a	-999	22	[-999, -999, -999]	n/a	FR1	0	R1571T
2670.226	1.217	2899969	DISTRACT_END	n/a	n/a	n/a	-999	22	[0, 0, 0]	n/a	FR1	0	R1571T
2671.443	2.546	2901186	REC_START	n/a	n/a	n/a	-999	22	[0, 0, 0]	n/a	FR1	0	R1571T
2673.989	1.0	2903732	REC_WORD_VV	1.0	n/a	<>	-999	22	[0, 0, 0]	n/a	FR1	0	R1571T
2674.989	2.857	2904732	REC_WORD_VV	2.857	n/a	<>	-999	22	[0, 0, 0]	n/a	FR1	0	R1571T
2677.846	1.0	2907589	REC_WORD_VV	1.0	n/a	<>	-999	22	[0, 0, 0]	n/a	FR1	0	R1571T
2678.846	6.292	2908589	REC_WORD_VV	6.292	n/a	<>	-999	22	[0, 0, 0]	n/a	FR1	0	R1571T
2685.138	0.872	2914881	REC_WORD	0.872	n/a	JEEP	3	22	[0, 0, 0]	n/a	FR1	0	R1571T
2686.01	1.0	2915753	REC_WORD	1.0	n/a	GUARD	2	22	[0, 0, 0]	n/a	FR1	0	R1571T
2687.01	2.663	2916753	REC_WORD_VV	2.663	n/a	<>	-999	22	[0, 0, 0]	n/a	FR1	0	R1571T
2689.673	1.332	2919416	REC_WORD	1.332	n/a	ARK	4	22	[0, 0, 0]	n/a	FR1	0	R1571T
2691.005	4.744	2920748	REC_WORD	4.744	n/a	LIP	5	22	[0, 0, 0]	n/a	FR1	0	R1571T
2695.749	1.0	2925491	REC_WORD_VV	1.0	n/a	<>	-999	22	[0, 0, 0]	n/a	FR1	0	R1571T
2696.749	2.371	2926491	REC_WORD_VV	2.371	n/a	<>	-999	22	[0, 0, 0]	n/a	FR1	0	R1571T
2699.12	1.863	2928862	REC_WORD_VV	1.863	n/a	<>	-999	22	[0, 0, 0]	n/a	FR1	0	R1571T
2700.983	0.47	2930725	REC_WORD_VV	0.47	n/a	<>	-999	22	[0, 0, 0]	n/a	FR1	0	R1571T
2701.453	4.879	2931195	REC_END	n/a	n/a	n/a	-999	22	[0, 0, 0]	n/a	FR1	0	R1571T
2706.332	0.0	2936074	TRIAL	n/a	n/a	n/a	-999	23	[0, 0, 0]	n/a	FR1	0	R1571T
2706.332	10.428	2936074	COUNTDOWN_START	n/a	n/a	n/a	-999	23	[0, 0, 0]	n/a	FR1	0	R1571T
2716.76	0.006	2946502	COUNTDOWN_END	n/a	n/a	n/a	-999	23	[0, 0, 0]	n/a	FR1	0	R1571T
2716.766	2.568	2946508	ORIENT	n/a	n/a	n/a	-999	23	[0, 0, 0]	n/a	FR1	0	R1571T
2719.334	2.433	2949076	WORD	n/a	wordpools/wordpool_EN.txt	RICE	1	23	[0, 0, 0]	n/a	FR1	0	R1571T
2721.767	2.618	2951509	WORD	n/a	wordpools/wordpool_EN.txt	EGG	2	23	[0, 0, 0]	n/a	FR1	0	R1571T
2724.385	2.416	2954127	WORD	n/a	wordpools/wordpool_EN.txt	CORD	3	23	[0, 0, 0]	n/a	FR1	0	R1571T
2726.801	2.385	2956542	WORD	n/a	wordpools/wordpool_EN.txt	NET	4	23	[0, 0, 0]	n/a	FR1	0	R1571T
2729.186	2.499	2958927	WORD	n/a	wordpools/wordpool_EN.txt	WAVE	5	23	[0, 0, 0]	n/a	FR1	0	R1571T
2731.685	2.585	2961426	WORD	n/a	wordpools/wordpool_EN.txt	POLE	6	23	[0, 0, 0]	n/a	FR1	0	R1571T
2734.27	2.399	2964011	WORD	n/a	wordpools/wordpool_EN.txt	PEA	7	23	[0, 0, 0]	n/a	FR1	0	R1571T
2736.669	2.501	2966410	WORD	n/a	wordpools/wordpool_EN.txt	TOAD	8	23	[0, 0, 0]	n/a	FR1	0	R1571T
2739.17	2.533	2968911	WORD	n/a	wordpools/wordpool_EN.txt	SHEET	9	23	[0, 0, 0]	n/a	FR1	0	R1571T
2741.703	2.535	2971444	WORD	n/a	wordpools/wordpool_EN.txt	CASH	10	23	[0, 0, 0]	n/a	FR1	0	R1571T
2744.238	2.566	2973979	WORD	n/a	wordpools/wordpool_EN.txt	HEN	11	23	[0, 0, 0]	n/a	FR1	0	R1571T
2746.804	1.617	2976545	WORD	n/a	wordpools/wordpool_EN.txt	COIN	12	23	[0, 0, 0]	n/a	FR1	0	R1571T
2748.421	0.001	2978162	DISTRACT_START	n/a	n/a	n/a	-999	23	[0, 0, 0]	n/a	FR1	0	R1571T
2748.422	0.016	2978163	START	n/a	n/a	n/a	-999	23	[-999, -999, -999]	n/a	FR1	0	R1571T
2748.438	3.951	2978179	PROB	3.951	n/a	n/a	-999	23	[1, 1, 8]	10	FR1	0	R1571T
2752.389	2.534	2982130	PROB	2.534	n/a	n/a	-999	23	[7, 2, 8]	17	FR1	0	R1571T
2754.923	3.616	2984663	PROB	3.616	n/a	n/a	-999	23	[4, 3, 2]	9	FR1	0	R1571T
2758.539	1.718	2988279	PROB	1.718	n/a	n/a	-999	23	[9, 2, 1]	12	FR1	0	R1571T
2760.257	4.118	2989997	PROB	4.118	n/a	n/a	-999	23	[6, 9, 4]	19	FR1	0	R1571T
2764.375	3.0	2994115	PROB	3.0	n/a	n/a	-999	23	[8, 6, 2]	16	FR1	0	R1571T
2767.375	5.055	2997115	PROB	5.055	n/a	n/a	-999	23	[5, 3, 9]	17	FR1	0	R1571T
2772.43	0.011	3002170	STOP	n/a	n/a	n/a	-999	23	[-999, -999, -999]	n/a	FR1	0	R1571T
2772.441	1.118	3002181	DISTRACT_END	n/a	n/a	n/a	-999	23	[0, 0, 0]	n/a	FR1	0	R1571T
2773.559	1.448	3003299	REC_START	n/a	n/a	n/a	-999	23	[0, 0, 0]	n/a	FR1	0	R1571T
2775.007	1.255	3004747	REC_WORD	1.255	n/a	CASH	10	23	[0, 0, 0]	n/a	FR1	0	R1571T
2776.262	2.622	3006002	REC_WORD	2.622	n/a	COIN	12	23	[0, 0, 0]	n/a	FR1	0	R1571T
2778.884	6.36	3008624	REC_WORD	6.36	n/a	HEN	11	23	[0, 0, 0]	n/a	FR1	0	R1571T
2785.244	3.231	3014983	REC_WORD	3.231	n/a	GUARD	-999	23	[0, 0, 0]	n/a	FR1	0	R1571T
2788.475	3.316	3018214	REC_WORD_VV	3.316	n/a	<>	-999	23	[0, 0, 0]	n/a	FR1	0	R1571T
2791.791	1.0	3021530	REC_WORD_VV	1.0	n/a	<>	-999	23	[0, 0, 0]	n/a	FR1	0	R1571T
2792.791	10.778	3022530	REC_WORD_VV	10.778	n/a	<>	-999	23	[0, 0, 0]	n/a	FR1	0	R1571T
2803.569	4.045	3033308	REC_END	n/a	n/a	n/a	-999	23	[0, 0, 0]	n/a	FR1	0	R1571T
2807.614	0.0	3037353	TRIAL	n/a	n/a	n/a	-999	24	[0, 0, 0]	n/a	FR1	0	R1571T
2807.614	10.428	3037353	COUNTDOWN_START	n/a	n/a	n/a	-999	24	[0, 0, 0]	n/a	FR1	0	R1571T
2818.042	0.008	3047780	COUNTDOWN_END	n/a	n/a	n/a	-999	24	[0, 0, 0]	n/a	FR1	0	R1571T
2818.05	2.582	3047788	ORIENT	n/a	n/a	n/a	-999	24	[0, 0, 0]	n/a	FR1	0	R1571T
2820.632	2.568	3050370	WORD	n/a	wordpools/wordpool_EN.txt	MAP	1	24	[0, 0, 0]	n/a	FR1	0	R1571T
2823.2	2.383	3052938	WORD	n/a	wordpools/wordpool_EN.txt	SEED	2	24	[0, 0, 0]	n/a	FR1	0	R1571T
2825.583	2.502	3055321	WORD	n/a	wordpools/wordpool_EN.txt	SHELL	3	24	[0, 0, 0]	n/a	FR1	0	R1571T
2828.085	2.532	3057823	WORD	n/a	wordpools/wordpool_EN.txt	GOLD	4	24	[0, 0, 0]	n/a	FR1	0	R1571T
2830.617	2.468	3060355	WORD	n/a	wordpools/wordpool_EN.txt	SNAKE	5	24	[0, 0, 0]	n/a	FR1	0	R1571T
2833.085	2.55	3062823	WORD	n/a	wordpools/wordpool_EN.txt	PLANT	6	24	[0, 0, 0]	n/a	FR1	0	R1571T
2835.635	2.518	3065373	WORD	n/a	wordpools/wordpool_EN.txt	WORLD	7	24	[0, 0, 0]	n/a	FR1	0	R1571T
2838.153	2.383	3067891	WORD	n/a	wordpools/wordpool_EN.txt	STEM	8	24	[0, 0, 0]	n/a	FR1	0	R1571T
2840.536	2.401	3070274	WORD	n/a	wordpools/wordpool_EN.txt	ROSE	9	24	[0, 0, 0]	n/a	FR1	0	R1571T
2842.937	2.417	3072675	WORD	n/a	wordpools/wordpool_EN.txt	MOTH	10	24	[0, 0, 0]	n/a	FR1	0	R1571T
2845.354	2.449	3075092	WORD	n/a	wordpools/wordpool_EN.txt	CLOUD	11	24	[0, 0, 0]	n/a	FR1	0	R1571T
2847.803	1.617	3077540	WORD	n/a	wordpools/wordpool_EN.txt	KEY	12	24	[0, 0, 0]	n/a	FR1	0	R1571T
2849.42	0.001	3079157	DISTRACT_START	n/a	n/a	n/a	-999	24	[0, 0, 0]	n/a	FR1	0	R1571T
2849.421	0.016	3079158	START	n/a	n/a	n/a	-999	24	[-999, -999, -999]	n/a	FR1	0	R1571T
2849.437	2.935	3079174	PROB	2.935	n/a	n/a	-999	24	[1, 2, 8]	11	FR1	0	R1571T
2852.372	5.0	3082109	PROB	5.0	n/a	n/a	-999	24	[8, 9, 2]	19	FR1	0	R1571T
2857.372	4.951	3087109	PROB	4.951	n/a	n/a	-999	24	[4, 9, 5]	18	FR1	0	R1571T
2862.323	1.817	3092060	PROB	1.817	n/a	n/a	-999	24	[4, 4, 4]	12	FR1	0	R1571T
2864.14	1.901	3093877	PROB	1.901	n/a	n/a	-999	24	[1, 4, 6]	11	FR1	0	R1571T
2866.041	3.699	3095778	PROB	3.699	n/a	n/a	-999	24	[3, 1, 4]	8	FR1	0	R1571T
2869.74	0.017	3099477	STOP	n/a	n/a	n/a	-999	24	[-999, -999, -999]	n/a	FR1	0	R1571T
2869.757	1.102	3099494	DISTRACT_END	n/a	n/a	n/a	-999	24	[0, 0, 0]	n/a	FR1	0	R1571T
2870.859	1.781	3100596	REC_START	n/a	n/a	n/a	-999	24	[0, 0, 0]	n/a	FR1	0	R1571T
2872.64	1.03	3102377	REC_WORD	1.03	n/a	MOTH	10	24	[0, 0, 0]	n/a	FR1	0	R1571T
2873.67	1.0	3103407	REC_WORD_VV	1.0	n/a	<>	-999	24	[0, 0, 0]	n/a	FR1	0	R1571T
2874.67	1.315	3104407	REC_WORD_VV	1.315	n/a	<>	-999	24	[0, 0, 0]	n/a	FR1	0	R1571T
2875.985	1.0	3105721	REC_WORD_VV	1.0	n/a	<>	-999	24	[0, 0, 0]	n/a	FR1	0	R1571T
2876.985	1.0	3106721	REC_WORD_VV	1.0	n/a	<>	-999	24	[0, 0, 0]	n/a	FR1	0	R1571T
2877.985	2.628	3107721	REC_WORD_VV	2.628	n/a	<>	-999	24	[0, 0, 0]	n/a	FR1	0	R1571T
2880.613	1.0	3110349	REC_WORD_VV	1.0	n/a	<>	-999	24	[0, 0, 0]	n/a	FR1	0	R1571T
2881.613	5.798	3111349	REC_WORD_VV	5.798	n/a	<>	-999	24	[0, 0, 0]	n/a	FR1	0	R1571T
2887.411	1.046	3117147	REC_WORD	1.046	n/a	KEY	12	24	[0, 0, 0]	n/a	FR1	0	R1571T
2888.457	2.162	3118193	REC_WORD_VV	2.162	n/a	<>	-999	24	[0, 0, 0]	n/a	FR1	0	R1571T
2890.619	1.0	3120355	REC_WORD_VV	1.0	n/a	<>	-999	24	[0, 0, 0]	n/a	FR1	0	R1571T
2891.619	1.785	3121355	REC_WORD_VV	1.785	n/a	<>	-999	24	[0, 0, 0]	n/a	FR1	0	R1571T
2893.404	1.0	3123140	REC_WORD_VV	1.0	n/a	<>	-999	24	[0, 0, 0]	n/a	FR1	0	R1571T
2894.404	0.889	3124140	REC_WORD_VV	0.889	n/a	<>	-999	24	[0, 0, 0]	n/a	FR1	0	R1571T
2895.293	1.667	3125029	REC_WORD	1.667	n/a	CLAY	-999	24	[0, 0, 0]	n/a	FR1	0	R1571T
2896.96	0.882	3126696	REC_WORD	0.882	n/a	CLAY	-999	24	[0, 0, 0]	n/a	FR1	0	R1571T
2897.842	0.546	3127578	REC_WORD_VV	0.546	n/a	<>	-999	24	[0, 0, 0]	n/a	FR1	0	R1571T
2898.388	0.636	3128124	REC_WORD	0.636	n/a	CLAY	-999	24	[0, 0, 0]	n/a	FR1	0	R1571T
2899.024	1.844	3128760	REC_WORD_VV	1.844	n/a	<>	-999	24	[0, 0, 0]	n/a	FR1	0	R1571T
2900.868	3.811	3130604	REC_END	n/a	n/a	n/a	-999	24	[0, 0, 0]	n/a	FR1	0	R1571T
2904.679	0.0	3134415	TRIAL	n/a	n/a	n/a	-999	25	[0, 0, 0]	n/a	FR1	0	R1571T
2904.679	10.428	3134415	COUNTDOWN_START	n/a	n/a	n/a	-999	25	[0, 0, 0]	n/a	FR1	0	R1571T
2915.107	0.008	3144842	COUNTDOWN_END	n/a	n/a	n/a	-999	25	[0, 0, 0]	n/a	FR1	0	R1571T
2915.115	2.383	3144850	ORIENT	n/a	n/a	n/a	-999	25	[0, 0, 0]	n/a	FR1	0	R1571T
2917.498	2.417	3147233	WORD	n/a	wordpools/wordpool_EN.txt	SMILE	1	25	[0, 0, 0]	n/a	FR1	0	R1571T
2919.915	2.451	3149650	WORD	n/a	wordpools/wordpool_EN.txt	LAKE	2	25	[0, 0, 0]	n/a	FR1	0	R1571T
2922.366	2.516	3152101	WORD	n/a	wordpools/wordpool_EN.txt	TRAY	3	25	[0, 0, 0]	n/a	FR1	0	R1571T
2924.882	2.601	3154617	WORD	n/a	wordpools/wordpool_EN.txt	SUN	4	25	[0, 0, 0]	n/a	FR1	0	R1571T
2927.483	2.618	3157218	WORD	n/a	wordpools/wordpool_EN.txt	THUMB	5	25	[0, 0, 0]	n/a	FR1	0	R1571T
2930.101	2.399	3159836	WORD	n/a	wordpools/wordpool_EN.txt	SKY	6	25	[0, 0, 0]	n/a	FR1	0	R1571T
2932.5	2.435	3162235	WORD	n/a	wordpools/wordpool_EN.txt	BEACH	7	25	[0, 0, 0]	n/a	FR1	0	R1571T
2934.935	2.433	3164670	WORD	n/a	wordpools/wordpool_EN.txt	BEAK	8	25	[0, 0, 0]	n/a	FR1	0	R1571T
2937.368	2.383	3167102	WORD	n/a	wordpools/wordpool_EN.txt	WALL	9	25	[0, 0, 0]	n/a	FR1	0	R1571T
2939.751	2.418	3169485	WORD	n/a	wordpools/wordpool_EN.txt	STORM	10	25	[0, 0, 0]	n/a	FR1	0	R1571T
2942.169	2.45	3171903	WORD	n/a	wordpools/wordpool_EN.txt	BIRD	11	25	[0, 0, 0]	n/a	FR1	0	R1571T
2944.619	1.617	3174353	WORD	n/a	wordpools/wordpool_EN.txt	TIE	12	25	[0, 0, 0]	n/a	FR1	0	R1571T
2946.236	0.001	3175970	DISTRACT_START	n/a	n/a	n/a	-999	25	[0, 0, 0]	n/a	FR1	0	R1571T
2946.237	0.016	3175971	START	n/a	n/a	n/a	-999	25	[-999, -999, -999]	n/a	FR1	0	R1571T
2946.253	4.516	3175987	PROB	4.516	n/a	n/a	-999	25	[4, 3, 8]	15	FR1	0	R1571T
2950.769	5.868	3180503	PROB	5.868	n/a	n/a	-999	25	[6, 8, 8]	22	FR1	0	R1571T
2956.637	6.068	3186371	PROB	6.068	n/a	n/a	-999	25	[8, 8, 4]	20	FR1	0	R1571T
2962.705	2.734	3192439	PROB	2.734	n/a	n/a	-999	25	[2, 1, 2]	5	FR1	0	R1571T
2965.439	3.002	3195173	PROB	3.002	n/a	n/a	-999	25	[3, 8, 1]	12	FR1	0	R1571T
2968.441	0.015	3198174	STOP	n/a	n/a	n/a	-999	25	[-999, -999, -999]	n/a	FR1	0	R1571T
2968.456	1.1	3198189	DISTRACT_END	n/a	n/a	n/a	-999	25	[0, 0, 0]	n/a	FR1	0	R1571T
2969.556	1.947	3199289	REC_START	n/a	n/a	n/a	-999	25	[0, 0, 0]	n/a	FR1	0	R1571T
2971.503	1.0	3201236	REC_WORD	1.0	n/a	SKY	6	25	[0, 0, 0]	n/a	FR1	0	R1571T
2972.503	0.713	3202236	REC_WORD_VV	0.713	n/a	<>	-999	25	[0, 0, 0]	n/a	FR1	0	R1571T
2973.216	1.0	3202949	REC_WORD	1.0	n/a	SUN	4	25	[0, 0, 0]	n/a	FR1	0	R1571T
2974.216	2.263	3203949	REC_WORD_VV	2.263	n/a	<>	-999	25	[0, 0, 0]	n/a	FR1	0	R1571T
2976.479	9.471	3206212	REC_WORD_VV	9.471	n/a	<>	-999	25	[0, 0, 0]	n/a	FR1	0	R1571T
2985.95	4.141	3215683	REC_WORD_VV	4.141	n/a	<>	-999	25	[0, 0, 0]	n/a	FR1	0	R1571T
2990.091	1.0	3219824	REC_WORD	1.0	n/a	SKY	6	25	[0, 0, 0]	n/a	FR1	0	R1571T
2991.091	5.546	3220824	REC_WORD_VV	5.546	n/a	<>	-999	25	[0, 0, 0]	n/a	FR1	0	R1571T
2996.637	2.93	3226370	REC_WORD_VV	2.93	n/a	<>	-999	25	[0, 0, 0]	n/a	FR1	0	R1571T
2999.567	230.847	3229299	REC_END	n/a	n/a	n/a	-999	25	[0, 0, 0]	n/a	FR1	0	R1571T
3230.414	0.0	3460139	SESS_END	n/a	n/a	n/a	-999	25	[0, 0, 0]	n/a	FR1	0	R1571T
