onset	duration	sample	trial_type	response_time	stim_file	item_name	serialpos	list	test	answer	experiment	session	subject
0.0	0.482	80626	INSTRUCT_START	n/a	n/a	n/a	-999	-999	[0, 0, 0]	n/a	FR1	2	R1427T
0.482	46.935	81104	INSTRUCT_END	n/a	n/a	n/a	-999	-999	[0, 0, 0]	n/a	FR1	2	R1427T
47.417	10.382	128038	COUNTDOWN_START	n/a	n/a	n/a	-999	-999	[0, 0, 0]	n/a	FR1	2	R1427T
57.799	0.0	138419	COUNTDOWN_END	n/a	n/a	n/a	-999	-999	[0, 0, 0]	n/a	FR1	2	R1427T
57.799	2.15	138419	ENCODING_START	n/a	n/a	n/a	-999	-1	[0, 0, 0]	n/a	FR1	2	R1427T
59.949	1.6	140571	WORD	n/a	n/a	RAFT	1	-1	[0, 0, 0]	n/a	FR1	2	R1427T
61.549	0.816	142165	WORD_OFF	n/a	n/a	RAFT	1	-1	[0, 0, 0]	n/a	FR1	2	R1427T
62.365	1.6	142980	WORD	n/a	n/a	WORLD	2	-1	[0, 0, 0]	n/a	FR1	2	R1427T
63.965	0.967	144583	WORD_OFF	n/a	n/a	WORLD	2	-1	[0, 0, 0]	n/a	FR1	2	R1427T
64.932	1.616	145549	WORD	n/a	n/a	TRIBE	3	-1	[0, 0, 0]	n/a	FR1	2	R1427T
66.548	0.8	147170	WORD_OFF	n/a	n/a	TRIBE	3	-1	[0, 0, 0]	n/a	FR1	2	R1427T
67.348	1.601	147967	WORD	n/a	n/a	BOARD	4	-1	[0, 0, 0]	n/a	FR1	2	R1427T
68.949	0.883	149570	WORD_OFF	n/a	n/a	BOARD	4	-1	[0, 0, 0]	n/a	FR1	2	R1427T
69.832	1.617	150447	WORD	n/a	n/a	SUN	5	-1	[0, 0, 0]	n/a	FR1	2	R1427T
71.449	0.883	152068	WORD_OFF	n/a	n/a	SUN	5	-1	[0, 0, 0]	n/a	FR1	2	R1427T
72.332	1.616	152953	WORD	n/a	n/a	HOUSE	6	-1	[0, 0, 0]	n/a	FR1	2	R1427T
73.948	0.917	154565	WORD_OFF	n/a	n/a	HOUSE	6	-1	[0, 0, 0]	n/a	FR1	2	R1427T
74.865	1.617	155487	WORD	n/a	n/a	SINK	7	-1	[0, 0, 0]	n/a	FR1	2	R1427T
76.482	0.783	157099	WORD_OFF	n/a	n/a	SINK	7	-1	[0, 0, 0]	n/a	FR1	2	R1427T
77.265	1.6	157887	WORD	n/a	n/a	TROUT	8	-1	[0, 0, 0]	n/a	FR1	2	R1427T
78.865	0.817	159481	WORD_OFF	n/a	n/a	TROUT	8	-1	[0, 0, 0]	n/a	FR1	2	R1427T
79.682	1.616	160305	WORD	n/a	n/a	SLOPE	9	-1	[0, 0, 0]	n/a	FR1	2	R1427T
81.298	0.8	161917	WORD_OFF	n/a	n/a	SLOPE	9	-1	[0, 0, 0]	n/a	FR1	2	R1427T
82.098	1.617	162714	WORD	n/a	n/a	VEST	10	-1	[0, 0, 0]	n/a	FR1	2	R1427T
83.715	0.816	164335	WORD_OFF	n/a	n/a	VEST	10	-1	[0, 0, 0]	n/a	FR1	2	R1427T
84.531	1.617	165150	WORD	n/a	n/a	GRASS	11	-1	[0, 0, 0]	n/a	FR1	2	R1427T
86.148	0.767	166771	WORD_OFF	n/a	n/a	GRASS	11	-1	[0, 0, 0]	n/a	FR1	2	R1427T
86.915	1.617	167532	WORD	n/a	n/a	GATE	12	-1	[0, 0, 0]	n/a	FR1	2	R1427T
88.532	0.001	169150	PROB	0.001	n/a	n/a	-999	-1	[4, 4, 7]	17	FR1	2	R1427T
88.533	0.0	169151	START	n/a	n/a	n/a	-999	-1	[-999, -999, -999]	n/a	FR1	2	R1427T
88.531	0.002	169153	WORD_OFF	n/a	n/a	GATE	12	-1	[0, 0, 0]	n/a	FR1	2	R1427T
88.533	0.0	169153	ENCODING_END	n/a	n/a	n/a	-999	-1	[0, 0, 0]	n/a	FR1	2	R1427T
88.533	8.649	169153	DISTRACT_START	n/a	n/a	n/a	-999	-1	[0, 0, 0]	n/a	FR1	2	R1427T
97.182	10.267	177800	PROB	10.267	n/a	n/a	-999	-1	[7, 7, 6]	20	FR1	2	R1427T
107.449	5.682	188066	PROB	5.682	n/a	n/a	-999	-1	[7, 4, 8]	19	FR1	2	R1427T
113.131	0.0	193748	STOP	n/a	n/a	n/a	-999	-1	[-999, -999, -999]	n/a	FR1	2	R1427T
113.131	2.268	193749	DISTRACT_END	n/a	n/a	n/a	-999	-1	[0, 0, 0]	n/a	FR1	2	R1427T
115.399	1.388	196016	REC_START	n/a	n/a	n/a	-999	-1	[0, 0, 0]	n/a	FR1	2	R1427T
116.787	0.87	197404	REC_WORD_VV	0.87	n/a	<>	-999	-1	[0, 0, 0]	n/a	FR1	2	R1427T
117.657	1.257	198274	REC_WORD	1.257	n/a	RAFT	1	-1	[0, 0, 0]	n/a	FR1	2	R1427T
118.914	26.706	199531	REC_WORD	26.706	n/a	HOUSE	6	-1	[0, 0, 0]	n/a	FR1	2	R1427T
145.62	5.629	226237	REC_END	n/a	n/a	n/a	-999	-1	[0, 0, 0]	n/a	FR1	2	R1427T
151.249	10.35	231862	COUNTDOWN_START	n/a	n/a	n/a	-999	1	[0, 0, 0]	n/a	FR1	2	R1427T
161.599	0.0	242216	COUNTDOWN_END	n/a	n/a	n/a	-999	1	[0, 0, 0]	n/a	FR1	2	R1427T
161.599	1.966	242216	ENCODING_START	n/a	n/a	n/a	-999	1	[0, 0, 0]	n/a	FR1	2	R1427T
163.565	1.617	244182	WORD	n/a	wordpools/wordpool_long_EN.txt	PLATE	1	1	[0, 0, 0]	n/a	FR1	2	R1427T
165.182	0.933	245794	WORD_OFF	n/a	n/a	PLATE	1	1	[0, 0, 0]	n/a	FR1	2	R1427T
166.115	1.617	246733	WORD	n/a	wordpools/wordpool_long_EN.txt	WASP	2	1	[0, 0, 0]	n/a	FR1	2	R1427T
167.732	0.85	248345	WORD_OFF	n/a	n/a	WASP	2	1	[0, 0, 0]	n/a	FR1	2	R1427T
168.582	1.6	249195	WORD	n/a	wordpools/wordpool_long_EN.txt	INK	3	1	[0, 0, 0]	n/a	FR1	2	R1427T
170.182	0.8	250798	WORD_OFF	n/a	n/a	INK	3	1	[0, 0, 0]	n/a	FR1	2	R1427T
170.982	1.616	251595	WORD	n/a	wordpools/wordpool_long_EN.txt	TAIL	4	1	[0, 0, 0]	n/a	FR1	2	R1427T
172.598	0.917	253216	WORD_OFF	n/a	n/a	TAIL	4	1	[0, 0, 0]	n/a	FR1	2	R1427T
173.515	1.617	254129	WORD	n/a	wordpools/wordpool_long_EN.txt	PLAID	5	1	[0, 0, 0]	n/a	FR1	2	R1427T
175.132	0.766	255749	WORD_OFF	n/a	n/a	PLAID	5	1	[0, 0, 0]	n/a	FR1	2	R1427T
175.898	1.6	256511	WORD	n/a	wordpools/wordpool_long_EN.txt	JAR	6	1	[0, 0, 0]	n/a	FR1	2	R1427T
177.498	0.9	258114	WORD_OFF	n/a	n/a	JAR	6	1	[0, 0, 0]	n/a	FR1	2	R1427T
178.398	1.6	259009	WORD	n/a	wordpools/wordpool_long_EN.txt	CROSS	7	1	[0, 0, 0]	n/a	FR1	2	R1427T
179.998	0.85	260612	WORD_OFF	n/a	n/a	CROSS	7	1	[0, 0, 0]	n/a	FR1	2	R1427T
180.848	1.6	261462	WORD	n/a	wordpools/wordpool_long_EN.txt	ELF	8	1	[0, 0, 0]	n/a	FR1	2	R1427T
182.448	1.0	263065	WORD_OFF	n/a	n/a	ELF	8	1	[0, 0, 0]	n/a	FR1	2	R1427T
183.448	1.616	264057	WORD	n/a	wordpools/wordpool_long_EN.txt	LINT	9	1	[0, 0, 0]	n/a	FR1	2	R1427T
185.064	0.817	265678	WORD_OFF	n/a	n/a	LINT	9	1	[0, 0, 0]	n/a	FR1	2	R1427T
185.881	1.6	266493	WORD	n/a	wordpools/wordpool_long_EN.txt	SWAMP	10	1	[0, 0, 0]	n/a	FR1	2	R1427T
187.481	0.883	268096	WORD_OFF	n/a	n/a	SWAMP	10	1	[0, 0, 0]	n/a	FR1	2	R1427T
188.364	1.601	268982	WORD	n/a	wordpools/wordpool_long_EN.txt	STRING	11	1	[0, 0, 0]	n/a	FR1	2	R1427T
189.965	0.899	270576	WORD_OFF	n/a	n/a	STRING	11	1	[0, 0, 0]	n/a	FR1	2	R1427T
190.864	1.617	271480	WORD	n/a	wordpools/wordpool_long_EN.txt	EGG	12	1	[0, 0, 0]	n/a	FR1	2	R1427T
192.481	0.001	273092	WORD_OFF	n/a	n/a	EGG	12	1	[0, 0, 0]	n/a	FR1	2	R1427T
192.482	0.001	273095	START	n/a	n/a	n/a	-999	1	[-999, -999, -999]	n/a	FR1	2	R1427T
192.483	0.0	273096	PROB	0.0	n/a	n/a	-999	1	[1, 3, 3]	7	FR1	2	R1427T
192.482	0.0	273101	ENCODING_END	n/a	n/a	n/a	-999	1	[0, 0, 0]	n/a	FR1	2	R1427T
192.482	2.933	273101	DISTRACT_START	n/a	n/a	n/a	-999	1	[0, 0, 0]	n/a	FR1	2	R1427T
195.415	5.251	276028	PROB	5.251	n/a	n/a	-999	1	[7, 2, 4]	13	FR1	2	R1427T
200.666	9.183	281278	PROB	9.183	n/a	n/a	-999	1	[3, 6, 5]	14	FR1	2	R1427T
209.849	5.95	290461	PROB	5.95	n/a	n/a	-999	1	[1, 6, 8]	15	FR1	2	R1427T
215.799	0.0	296411	STOP	n/a	n/a	n/a	-999	1	[-999, -999, -999]	n/a	FR1	2	R1427T
215.799	2.233	296413	DISTRACT_END	n/a	n/a	n/a	-999	1	[0, 0, 0]	n/a	FR1	2	R1427T
218.032	0.49	298644	REC_START	n/a	n/a	n/a	-999	1	[0, 0, 0]	n/a	FR1	2	R1427T
218.522	0.838	299134	REC_WORD_VV	0.838	n/a	<>	-999	1	[0, 0, 0]	n/a	FR1	2	R1427T
219.36	2.045	299972	REC_WORD	2.045	n/a	CROSS	7	1	[0, 0, 0]	n/a	FR1	2	R1427T
221.405	26.935	302016	REC_WORD	26.935	n/a	WASP	2	1	[0, 0, 0]	n/a	FR1	2	R1427T
248.34	814.392	328954	REC_END	n/a	n/a	n/a	-999	1	[0, 0, 0]	n/a	FR1	2	R1427T
1062.732	10.35	1143305	COUNTDOWN_START	n/a	n/a	n/a	-999	2	[0, 0, 0]	n/a	FR1	2	R1427T
1073.082	0.001	1153651	COUNTDOWN_END	n/a	n/a	n/a	-999	2	[0, 0, 0]	n/a	FR1	2	R1427T
1073.083	2.132	1153651	ENCODING_START	n/a	n/a	n/a	-999	2	[0, 0, 0]	n/a	FR1	2	R1427T
1075.215	1.6	1155785	WORD	n/a	wordpools/wordpool_long_EN.txt	MUD	1	2	[0, 0, 0]	n/a	FR1	2	R1427T
1076.815	0.933	1157379	WORD_OFF	n/a	n/a	MUD	1	2	[0, 0, 0]	n/a	FR1	2	R1427T
1077.748	1.6	1158318	WORD	n/a	wordpools/wordpool_long_EN.txt	TWIG	2	2	[0, 0, 0]	n/a	FR1	2	R1427T
1079.348	0.85	1159913	WORD_OFF	n/a	n/a	TWIG	2	2	[0, 0, 0]	n/a	FR1	2	R1427T
1080.198	1.6	1160763	WORD	n/a	wordpools/wordpool_long_EN.txt	BENCH	3	2	[0, 0, 0]	n/a	FR1	2	R1427T
1081.798	1.0	1162366	WORD_OFF	n/a	n/a	BENCH	3	2	[0, 0, 0]	n/a	FR1	2	R1427T
1082.798	1.6	1163367	WORD	n/a	wordpools/wordpool_long_EN.txt	SWORD	4	2	[0, 0, 0]	n/a	FR1	2	R1427T
1084.398	0.817	1164970	WORD_OFF	n/a	n/a	SWORD	4	2	[0, 0, 0]	n/a	FR1	2	R1427T
1085.215	1.6	1165785	WORD	n/a	wordpools/wordpool_long_EN.txt	YARD	5	2	[0, 0, 0]	n/a	FR1	2	R1427T
1086.815	0.966	1167379	WORD_OFF	n/a	n/a	YARD	5	2	[0, 0, 0]	n/a	FR1	2	R1427T
1087.781	1.6	1168345	WORD	n/a	wordpools/wordpool_long_EN.txt	RUST	6	2	[0, 0, 0]	n/a	FR1	2	R1427T
1089.381	0.867	1169948	WORD_OFF	n/a	n/a	RUST	6	2	[0, 0, 0]	n/a	FR1	2	R1427T
1090.248	1.616	1170816	WORD	n/a	wordpools/wordpool_long_EN.txt	JUDGE	7	2	[0, 0, 0]	n/a	FR1	2	R1427T
1091.864	0.834	1172428	WORD_OFF	n/a	n/a	JUDGE	7	2	[0, 0, 0]	n/a	FR1	2	R1427T
1092.698	1.6	1173269	WORD	n/a	wordpools/wordpool_long_EN.txt	BROOK	8	2	[0, 0, 0]	n/a	FR1	2	R1427T
1094.298	0.8	1174863	WORD_OFF	n/a	n/a	BROOK	8	2	[0, 0, 0]	n/a	FR1	2	R1427T
1095.098	1.6	1175669	WORD	n/a	wordpools/wordpool_long_EN.txt	LEAF	9	2	[0, 0, 0]	n/a	FR1	2	R1427T
1096.698	0.917	1177264	WORD_OFF	n/a	n/a	LEAF	9	2	[0, 0, 0]	n/a	FR1	2	R1427T
1097.615	1.6	1178185	WORD	n/a	wordpools/wordpool_long_EN.txt	FROG	10	2	[0, 0, 0]	n/a	FR1	2	R1427T
1099.215	0.9	1179779	WORD_OFF	n/a	n/a	FROG	10	2	[0, 0, 0]	n/a	FR1	2	R1427T
1100.115	1.6	1180683	WORD	n/a	wordpools/wordpool_long_EN.txt	SALT	11	2	[0, 0, 0]	n/a	FR1	2	R1427T
1101.715	1.0	1182286	WORD_OFF	n/a	n/a	SALT	11	2	[0, 0, 0]	n/a	FR1	2	R1427T
1102.715	1.601	1183278	WORD	n/a	wordpools/wordpool_long_EN.txt	DOG	12	2	[0, 0, 0]	n/a	FR1	2	R1427T
1104.316	0.001	1184881	WORD_OFF	n/a	n/a	DOG	12	2	[0, 0, 0]	n/a	FR1	2	R1427T
1104.317	0.0	1184881	ENCODING_END	n/a	n/a	n/a	-999	2	[0, 0, 0]	n/a	FR1	2	R1427T
1104.316	0.001	1184882	PROB	0.001	n/a	n/a	-999	2	[5, 4, 8]	19	FR1	2	R1427T
1104.317	0.0	1184883	START	n/a	n/a	n/a	-999	2	[-999, -999, -999]	n/a	FR1	2	R1427T
1104.317	5.614	1184890	DISTRACT_START	n/a	n/a	n/a	-999	2	[0, 0, 0]	n/a	FR1	2	R1427T
1109.931	2.95	1190497	PROB	2.95	n/a	n/a	-999	2	[7, 7, 1]	15	FR1	2	R1427T
1112.881	3.151	1193447	PROB	3.151	n/a	n/a	-999	2	[1, 2, 3]	6	FR1	2	R1427T
1116.032	3.351	1196598	PROB	3.351	n/a	n/a	-999	2	[3, 5, 3]	11	FR1	2	R1427T
1119.383	2.098	1199949	PROB	2.098	n/a	n/a	-999	2	[5, 4, 2]	11	FR1	2	R1427T
1121.481	4.251	1202046	PROB	4.251	n/a	n/a	-999	2	[3, 7, 8]	18	FR1	2	R1427T
1125.732	0.0	1206297	DISTRACT_END	n/a	n/a	n/a	-999	2	[0, 0, 0]	n/a	FR1	2	R1427T
1125.732	2.217	1206297	STOP	n/a	n/a	n/a	-999	2	[-999, -999, -999]	n/a	FR1	2	R1427T
1127.949	0.289	1208511	REC_START	n/a	n/a	n/a	-999	2	[0, 0, 0]	n/a	FR1	2	R1427T
1128.238	1.183	1208803	REC_WORD	1.183	n/a	MUD	1	2	[0, 0, 0]	n/a	FR1	2	R1427T
1129.421	0.938	1209986	REC_WORD	0.938	n/a	BUG	-999	2	[0, 0, 0]	n/a	FR1	2	R1427T
1130.359	18.17	1210924	REC_WORD	18.17	n/a	BRICK	-999	2	[0, 0, 0]	n/a	FR1	2	R1427T
1148.529	9.727	1229093	REC_WORD	9.727	n/a	STICK	-999	2	[0, 0, 0]	n/a	FR1	2	R1427T
1158.256	2.309	1238821	REC_END	n/a	n/a	n/a	-999	2	[0, 0, 0]	n/a	FR1	2	R1427T
1160.565	10.351	1241133	COUNTDOWN_START	n/a	n/a	n/a	-999	3	[0, 0, 0]	n/a	FR1	2	R1427T
1170.916	0.0	1251478	COUNTDOWN_END	n/a	n/a	n/a	-999	3	[0, 0, 0]	n/a	FR1	2	R1427T
1170.916	2.282	1251478	ENCODING_START	n/a	n/a	n/a	-999	3	[0, 0, 0]	n/a	FR1	2	R1427T
1173.198	1.6	1253763	WORD	n/a	wordpools/wordpool_long_EN.txt	STAKE	1	3	[0, 0, 0]	n/a	FR1	2	R1427T
1174.798	0.783	1255357	WORD_OFF	n/a	n/a	STAKE	1	3	[0, 0, 0]	n/a	FR1	2	R1427T
1175.581	1.6	1256145	WORD	n/a	wordpools/wordpool_long_EN.txt	BEAST	2	3	[0, 0, 0]	n/a	FR1	2	R1427T
1177.181	0.917	1257740	WORD_OFF	n/a	n/a	BEAST	2	3	[0, 0, 0]	n/a	FR1	2	R1427T
1178.098	1.6	1258661	WORD	n/a	wordpools/wordpool_long_EN.txt	WORM	3	3	[0, 0, 0]	n/a	FR1	2	R1427T
1179.698	0.783	1260264	WORD_OFF	n/a	n/a	WORM	3	3	[0, 0, 0]	n/a	FR1	2	R1427T
1180.481	1.617	1261043	WORD	n/a	wordpools/wordpool_long_EN.txt	KITE	4	3	[0, 0, 0]	n/a	FR1	2	R1427T
1182.098	0.933	1262664	WORD_OFF	n/a	n/a	KITE	4	3	[0, 0, 0]	n/a	FR1	2	R1427T
1183.031	1.6	1263594	WORD	n/a	wordpools/wordpool_long_EN.txt	FENCE	5	3	[0, 0, 0]	n/a	FR1	2	R1427T
1184.631	0.767	1265197	WORD_OFF	n/a	n/a	FENCE	5	3	[0, 0, 0]	n/a	FR1	2	R1427T
1185.398	1.6	1265959	WORD	n/a	wordpools/wordpool_long_EN.txt	DART	6	3	[0, 0, 0]	n/a	FR1	2	R1427T
1186.998	0.816	1267562	WORD_OFF	n/a	n/a	DART	6	3	[0, 0, 0]	n/a	FR1	2	R1427T
1187.814	1.601	1268377	WORD	n/a	wordpools/wordpool_long_EN.txt	PIN	7	3	[0, 0, 0]	n/a	FR1	2	R1427T
1189.415	0.866	1269980	WORD_OFF	n/a	n/a	PIN	7	3	[0, 0, 0]	n/a	FR1	2	R1427T
1190.281	1.6	1270839	WORD	n/a	wordpools/wordpool_long_EN.txt	QUAIL	8	3	[0, 0, 0]	n/a	FR1	2	R1427T
1191.881	0.884	1272442	WORD_OFF	n/a	n/a	QUAIL	8	3	[0, 0, 0]	n/a	FR1	2	R1427T
1192.765	1.6	1273328	WORD	n/a	wordpools/wordpool_long_EN.txt	ROPE	9	3	[0, 0, 0]	n/a	FR1	2	R1427T
1194.365	0.767	1274931	WORD_OFF	n/a	n/a	ROPE	9	3	[0, 0, 0]	n/a	FR1	2	R1427T
1195.132	1.601	1275693	WORD	n/a	wordpools/wordpool_long_EN.txt	CHEST	10	3	[0, 0, 0]	n/a	FR1	2	R1427T
1196.733	1.0	1277296	WORD_OFF	n/a	n/a	CHEST	10	3	[0, 0, 0]	n/a	FR1	2	R1427T
1197.733	1.616	1278297	WORD	n/a	wordpools/wordpool_long_EN.txt	TRENCH	11	3	[0, 0, 0]	n/a	FR1	2	R1427T
1199.349	0.866	1279909	WORD_OFF	n/a	n/a	TRENCH	11	3	[0, 0, 0]	n/a	FR1	2	R1427T
1200.215	1.601	1280777	WORD	n/a	wordpools/wordpool_long_EN.txt	SPEAR	12	3	[0, 0, 0]	n/a	FR1	2	R1427T
1201.816	0.001	1282377	PROB	0.001	n/a	n/a	-999	3	[8, 6, 1]	15	FR1	2	R1427T
1201.817	0.0	1282378	START	n/a	n/a	n/a	-999	3	[-999, -999, -999]	n/a	FR1	2	R1427T
1201.815	0.002	1282380	WORD_OFF	n/a	n/a	SPEAR	12	3	[0, 0, 0]	n/a	FR1	2	R1427T
1201.817	0.0	1282380	ENCODING_END	n/a	n/a	n/a	-999	3	[0, 0, 0]	n/a	FR1	2	R1427T
1201.817	5.299	1282380	DISTRACT_START	n/a	n/a	n/a	-999	3	[0, 0, 0]	n/a	FR1	2	R1427T
1207.116	2.883	1287677	PROB	2.883	n/a	n/a	-999	3	[1, 5, 2]	8	FR1	2	R1427T
1209.999	3.9	1290560	PROB	3.9	n/a	n/a	-999	3	[4, 7, 3]	14	FR1	2	R1427T
1213.899	4.983	1294460	PROB	4.983	n/a	n/a	-999	3	[6, 2, 7]	15	FR1	2	R1427T
1218.882	7.0	1299443	PROB	7.0	n/a	n/a	-999	3	[8, 1, 4]	13	FR1	2	R1427T
1225.882	0.0	1306442	STOP	n/a	n/a	n/a	-999	3	[-999, -999, -999]	n/a	FR1	2	R1427T
1225.882	2.033	1306445	DISTRACT_END	n/a	n/a	n/a	-999	3	[0, 0, 0]	n/a	FR1	2	R1427T
1227.915	1.066	1308472	REC_START	n/a	n/a	n/a	-999	3	[0, 0, 0]	n/a	FR1	2	R1427T
1228.981	3.351	1309541	REC_WORD	3.351	n/a	STEAK	-999	3	[0, 0, 0]	n/a	FR1	2	R1427T
1232.332	1.0	1312892	REC_WORD_VV	1.0	n/a	<>	-999	3	[0, 0, 0]	n/a	FR1	2	R1427T
1233.332	24.879	1313892	REC_WORD_VV	24.879	n/a	<>	-999	3	[0, 0, 0]	n/a	FR1	2	R1427T
1258.211	8.07	1338765	REC_END	n/a	n/a	n/a	-999	3	[0, 0, 0]	n/a	FR1	2	R1427T
1266.281	10.351	1346842	COUNTDOWN_START	n/a	n/a	n/a	-999	4	[0, 0, 0]	n/a	FR1	2	R1427T
1276.632	0.0	1357188	COUNTDOWN_END	n/a	n/a	n/a	-999	4	[0, 0, 0]	n/a	FR1	2	R1427T
1276.632	2.066	1357188	ENCODING_START	n/a	n/a	n/a	-999	4	[0, 0, 0]	n/a	FR1	2	R1427T
1278.698	1.616	1359251	WORD	n/a	wordpools/wordpool_long_EN.txt	GEESE	1	4	[0, 0, 0]	n/a	FR1	2	R1427T
1280.314	0.967	1360872	WORD_OFF	n/a	n/a	GEESE	1	4	[0, 0, 0]	n/a	FR1	2	R1427T
1281.281	1.601	1361838	WORD	n/a	wordpools/wordpool_long_EN.txt	CAVE	2	4	[0, 0, 0]	n/a	FR1	2	R1427T
1282.882	0.85	1363441	WORD_OFF	n/a	n/a	CAVE	2	4	[0, 0, 0]	n/a	FR1	2	R1427T
1283.732	1.6	1364291	WORD	n/a	wordpools/wordpool_long_EN.txt	BUG	3	4	[0, 0, 0]	n/a	FR1	2	R1427T
1285.332	0.9	1365885	WORD_OFF	n/a	n/a	BUG	3	4	[0, 0, 0]	n/a	FR1	2	R1427T
1286.232	1.601	1366789	WORD	n/a	wordpools/wordpool_long_EN.txt	NAIL	4	4	[0, 0, 0]	n/a	FR1	2	R1427T
1287.833	0.882	1368392	WORD_OFF	n/a	n/a	NAIL	4	4	[0, 0, 0]	n/a	FR1	2	R1427T
1288.715	1.6	1369269	WORD	n/a	wordpools/wordpool_long_EN.txt	SPHINX	5	4	[0, 0, 0]	n/a	FR1	2	R1427T
1290.315	0.817	1370881	WORD_OFF	n/a	n/a	SPHINX	5	4	[0, 0, 0]	n/a	FR1	2	R1427T
1291.132	1.6	1371687	WORD	n/a	wordpools/wordpool_long_EN.txt	PIT	6	4	[0, 0, 0]	n/a	FR1	2	R1427T
1292.732	0.833	1373290	WORD_OFF	n/a	n/a	PIT	6	4	[0, 0, 0]	n/a	FR1	2	R1427T
1293.565	1.618	1374122	WORD	n/a	wordpools/wordpool_long_EN.txt	SPOUSE	7	4	[0, 0, 0]	n/a	FR1	2	R1427T
1295.183	0.815	1375743	WORD_OFF	n/a	n/a	SPOUSE	7	4	[0, 0, 0]	n/a	FR1	2	R1427T
1295.998	1.617	1376558	WORD	n/a	wordpools/wordpool_long_EN.txt	FOX	8	4	[0, 0, 0]	n/a	FR1	2	R1427T
1297.615	0.867	1378170	WORD_OFF	n/a	n/a	FOX	8	4	[0, 0, 0]	n/a	FR1	2	R1427T
1298.482	1.6	1379038	WORD	n/a	wordpools/wordpool_long_EN.txt	STEAM	9	4	[0, 0, 0]	n/a	FR1	2	R1427T
1300.082	0.817	1380641	WORD_OFF	n/a	n/a	STEAM	9	4	[0, 0, 0]	n/a	FR1	2	R1427T
1300.899	1.616	1381456	WORD	n/a	wordpools/wordpool_long_EN.txt	RICE	10	4	[0, 0, 0]	n/a	FR1	2	R1427T
1302.515	0.816	1383068	WORD_OFF	n/a	n/a	RICE	10	4	[0, 0, 0]	n/a	FR1	2	R1427T
1303.331	1.601	1383892	WORD	n/a	wordpools/wordpool_long_EN.txt	RAT	11	4	[0, 0, 0]	n/a	FR1	2	R1427T
1304.932	0.883	1385486	WORD_OFF	n/a	n/a	RAT	11	4	[0, 0, 0]	n/a	FR1	2	R1427T
1305.815	1.601	1386372	WORD	n/a	wordpools/wordpool_long_EN.txt	CLAM	12	4	[0, 0, 0]	n/a	FR1	2	R1427T
1307.416	0.001	1387972	PROB	0.001	n/a	n/a	-999	4	[8, 1, 2]	11	FR1	2	R1427T
1307.417	0.0	1387973	START	n/a	n/a	n/a	-999	4	[-999, -999, -999]	n/a	FR1	2	R1427T
1307.415	0.002	1387975	WORD_OFF	n/a	n/a	CLAM	12	4	[0, 0, 0]	n/a	FR1	2	R1427T
1307.417	0.0	1387975	ENCODING_END	n/a	n/a	n/a	-999	4	[0, 0, 0]	n/a	FR1	2	R1427T
1307.417	2.598	1387975	DISTRACT_START	n/a	n/a	n/a	-999	4	[0, 0, 0]	n/a	FR1	2	R1427T
1310.015	2.367	1390571	PROB	2.367	n/a	n/a	-999	4	[1, 1, 3]	5	FR1	2	R1427T
1312.382	2.567	1392938	PROB	2.567	n/a	n/a	-999	4	[1, 3, 8]	12	FR1	2	R1427T
1314.949	3.95	1395505	PROB	3.95	n/a	n/a	-999	4	[2, 7, 6]	15	FR1	2	R1427T
1318.899	2.25	1399454	PROB	2.25	n/a	n/a	-999	4	[3, 3, 6]	12	FR1	2	R1427T
1321.149	6.5	1401704	PROB	6.5	n/a	n/a	-999	4	[5, 6, 4]	15	FR1	2	R1427T
1327.649	0.0	1408204	STOP	n/a	n/a	n/a	-999	4	[-999, -999, -999]	n/a	FR1	2	R1427T
1327.649	2.083	1408205	DISTRACT_END	n/a	n/a	n/a	-999	4	[0, 0, 0]	n/a	FR1	2	R1427T
1329.732	0.336	1410285	REC_START	n/a	n/a	n/a	-999	4	[0, 0, 0]	n/a	FR1	2	R1427T
1330.068	2.133	1410623	REC_WORD	2.133	n/a	STICK	-999	4	[0, 0, 0]	n/a	FR1	2	R1427T
1332.201	0.611	1412756	REC_WORD	0.611	n/a	BEAST	-999	4	[0, 0, 0]	n/a	FR1	2	R1427T
1332.812	0.565	1413367	REC_WORD	0.565	n/a	MUD	-999	4	[0, 0, 0]	n/a	FR1	2	R1427T
1333.377	1.964	1413932	REC_WORD	1.964	n/a	CAVE	2	4	[0, 0, 0]	n/a	FR1	2	R1427T
1335.341	2.465	1415896	REC_WORD	2.465	n/a	NAIL	4	4	[0, 0, 0]	n/a	FR1	2	R1427T
1337.806	22.223	1418360	REC_WORD	22.223	n/a	RAT	11	4	[0, 0, 0]	n/a	FR1	2	R1427T
1360.029	2.052	1440586	REC_END	n/a	n/a	n/a	-999	4	[0, 0, 0]	n/a	FR1	2	R1427T
1362.081	10.351	1442639	COUNTDOWN_START	n/a	n/a	n/a	-999	5	[0, 0, 0]	n/a	FR1	2	R1427T
1372.432	0.0	1452986	COUNTDOWN_END	n/a	n/a	n/a	-999	5	[0, 0, 0]	n/a	FR1	2	R1427T
1372.432	1.967	1452986	ENCODING_START	n/a	n/a	n/a	-999	5	[0, 0, 0]	n/a	FR1	2	R1427T
1374.399	1.6	1454953	WORD	n/a	wordpools/wordpool_long_EN.txt	STREET	1	5	[0, 0, 0]	n/a	FR1	2	R1427T
1375.999	1.0	1456556	WORD_OFF	n/a	n/a	STREET	1	5	[0, 0, 0]	n/a	FR1	2	R1427T
1376.999	1.601	1457548	WORD	n/a	wordpools/wordpool_long_EN.txt	SHARK	2	5	[0, 0, 0]	n/a	FR1	2	R1427T
1378.6	0.814	1459151	WORD_OFF	n/a	n/a	SHARK	2	5	[0, 0, 0]	n/a	FR1	2	R1427T
1379.414	1.601	1459966	WORD	n/a	wordpools/wordpool_long_EN.txt	STEAK	3	5	[0, 0, 0]	n/a	FR1	2	R1427T
1381.015	1.0	1461569	WORD_OFF	n/a	n/a	STEAK	3	5	[0, 0, 0]	n/a	FR1	2	R1427T
1382.015	1.6	1462570	WORD	n/a	wordpools/wordpool_long_EN.txt	GLOVE	4	5	[0, 0, 0]	n/a	FR1	2	R1427T
1383.615	0.934	1464164	WORD_OFF	n/a	n/a	GLOVE	4	5	[0, 0, 0]	n/a	FR1	2	R1427T
1384.549	1.6	1465103	WORD	n/a	wordpools/wordpool_long_EN.txt	PIPE	5	5	[0, 0, 0]	n/a	FR1	2	R1427T
1386.149	0.833	1466697	WORD_OFF	n/a	n/a	PIPE	5	5	[0, 0, 0]	n/a	FR1	2	R1427T
1386.982	1.616	1467530	WORD	n/a	wordpools/wordpool_long_EN.txt	GREASE	6	5	[0, 0, 0]	n/a	FR1	2	R1427T
1388.598	0.95	1469151	WORD_OFF	n/a	n/a	GREASE	6	5	[0, 0, 0]	n/a	FR1	2	R1427T
1389.548	1.601	1470098	WORD	n/a	wordpools/wordpool_long_EN.txt	SHELL	7	5	[0, 0, 0]	n/a	FR1	2	R1427T
1391.149	0.9	1471702	WORD_OFF	n/a	n/a	SHELL	7	5	[0, 0, 0]	n/a	FR1	2	R1427T
1392.049	1.615	1472596	WORD	n/a	wordpools/wordpool_long_EN.txt	PEA	8	5	[0, 0, 0]	n/a	FR1	2	R1427T
1393.664	0.951	1474217	WORD_OFF	n/a	n/a	PEA	8	5	[0, 0, 0]	n/a	FR1	2	R1427T
1394.615	1.617	1475165	WORD	n/a	wordpools/wordpool_long_EN.txt	APE	9	5	[0, 0, 0]	n/a	FR1	2	R1427T
1396.232	0.833	1476786	WORD_OFF	n/a	n/a	APE	9	5	[0, 0, 0]	n/a	FR1	2	R1427T
1397.065	1.617	1477618	WORD	n/a	wordpools/wordpool_long_EN.txt	CUP	10	5	[0, 0, 0]	n/a	FR1	2	R1427T
1398.682	0.95	1479230	WORD_OFF	n/a	n/a	CUP	10	5	[0, 0, 0]	n/a	FR1	2	R1427T
1399.632	1.617	1480187	WORD	n/a	wordpools/wordpool_long_EN.txt	HAZE	11	5	[0, 0, 0]	n/a	FR1	2	R1427T
1401.249	0.783	1481799	WORD_OFF	n/a	n/a	HAZE	11	5	[0, 0, 0]	n/a	FR1	2	R1427T
1402.032	1.6	1482587	WORD	n/a	wordpools/wordpool_long_EN.txt	SCHOOL	12	5	[0, 0, 0]	n/a	FR1	2	R1427T
1403.632	0.001	1484181	WORD_OFF	n/a	n/a	SCHOOL	12	5	[0, 0, 0]	n/a	FR1	2	R1427T
1403.633	0.0	1484181	ENCODING_END	n/a	n/a	n/a	-999	5	[0, 0, 0]	n/a	FR1	2	R1427T
1403.632	0.001	1484183	PROB	0.001	n/a	n/a	-999	5	[2, 3, 6]	11	FR1	2	R1427T
1403.633	0.0	1484184	START	n/a	n/a	n/a	-999	5	[-999, -999, -999]	n/a	FR1	2	R1427T
1403.633	4.45	1484190	DISTRACT_START	n/a	n/a	n/a	-999	5	[0, 0, 0]	n/a	FR1	2	R1427T
1408.083	2.966	1488634	PROB	2.966	n/a	n/a	-999	5	[1, 1, 2]	4	FR1	2	R1427T
1411.049	2.499	1491600	PROB	2.499	n/a	n/a	-999	5	[2, 3, 5]	10	FR1	2	R1427T
1413.548	2.185	1494099	PROB	2.185	n/a	n/a	-999	5	[3, 3, 2]	8	FR1	2	R1427T
1415.733	4.083	1496283	PROB	4.083	n/a	n/a	-999	5	[7, 8, 4]	19	FR1	2	R1427T
1419.816	4.033	1500366	PROB	4.033	n/a	n/a	-999	5	[8, 1, 4]	12	FR1	2	R1427T
1423.849	0.0	1504399	STOP	n/a	n/a	n/a	-999	5	[-999, -999, -999]	n/a	FR1	2	R1427T
1423.849	2.133	1504402	DISTRACT_END	n/a	n/a	n/a	-999	5	[0, 0, 0]	n/a	FR1	2	R1427T
1425.982	6.446	1506536	REC_START	n/a	n/a	n/a	-999	5	[0, 0, 0]	n/a	FR1	2	R1427T
1432.428	6.915	1512978	REC_WORD	6.915	n/a	SHARK	2	5	[0, 0, 0]	n/a	FR1	2	R1427T
1439.343	16.93	1519892	REC_WORD	16.93	n/a	STEAK	3	5	[0, 0, 0]	n/a	FR1	2	R1427T
1456.273	2.526	1536819	REC_END	n/a	n/a	n/a	-999	5	[0, 0, 0]	n/a	FR1	2	R1427T
1458.799	10.35	1539352	COUNTDOWN_START	n/a	n/a	n/a	-999	6	[0, 0, 0]	n/a	FR1	2	R1427T
1469.149	0.0	1549697	COUNTDOWN_END	n/a	n/a	n/a	-999	6	[0, 0, 0]	n/a	FR1	2	R1427T
1469.149	2.083	1549697	ENCODING_START	n/a	n/a	n/a	-999	6	[0, 0, 0]	n/a	FR1	2	R1427T
1471.232	1.6	1551779	WORD	n/a	wordpools/wordpool_long_EN.txt	SPOOL	1	6	[0, 0, 0]	n/a	FR1	2	R1427T
1472.832	0.783	1553382	WORD_OFF	n/a	n/a	SPOOL	1	6	[0, 0, 0]	n/a	FR1	2	R1427T
1473.615	1.602	1554161	WORD	n/a	wordpools/wordpool_long_EN.txt	CHEEK	2	6	[0, 0, 0]	n/a	FR1	2	R1427T
1475.217	0.765	1555765	WORD_OFF	n/a	n/a	CHEEK	2	6	[0, 0, 0]	n/a	FR1	2	R1427T
1475.982	1.6	1556526	WORD	n/a	wordpools/wordpool_long_EN.txt	ROD	3	6	[0, 0, 0]	n/a	FR1	2	R1427T
1477.582	0.799	1558129	WORD_OFF	n/a	n/a	ROD	3	6	[0, 0, 0]	n/a	FR1	2	R1427T
1478.381	1.601	1558927	WORD	n/a	wordpools/wordpool_long_EN.txt	MOUSE	4	6	[0, 0, 0]	n/a	FR1	2	R1427T
1479.982	1.0	1560530	WORD_OFF	n/a	n/a	MOUSE	4	6	[0, 0, 0]	n/a	FR1	2	R1427T
1480.982	1.617	1561531	WORD	n/a	wordpools/wordpool_long_EN.txt	HEDGE	5	6	[0, 0, 0]	n/a	FR1	2	R1427T
1482.599	0.933	1563143	WORD_OFF	n/a	n/a	HEDGE	5	6	[0, 0, 0]	n/a	FR1	2	R1427T
1483.532	1.616	1564081	WORD	n/a	wordpools/wordpool_long_EN.txt	PASTE	6	6	[0, 0, 0]	n/a	FR1	2	R1427T
1485.148	0.833	1565693	WORD_OFF	n/a	n/a	PASTE	6	6	[0, 0, 0]	n/a	FR1	2	R1427T
1485.981	1.601	1566526	WORD	n/a	wordpools/wordpool_long_EN.txt	SEED	7	6	[0, 0, 0]	n/a	FR1	2	R1427T
1487.582	0.8	1568129	WORD_OFF	n/a	n/a	SEED	7	6	[0, 0, 0]	n/a	FR1	2	R1427T
1488.382	1.6	1568926	WORD	n/a	wordpools/wordpool_long_EN.txt	SLEEVE	8	6	[0, 0, 0]	n/a	FR1	2	R1427T
1489.982	0.817	1570529	WORD_OFF	n/a	n/a	SLEEVE	8	6	[0, 0, 0]	n/a	FR1	2	R1427T
1490.799	1.616	1571344	WORD	n/a	wordpools/wordpool_long_EN.txt	BREAD	9	6	[0, 0, 0]	n/a	FR1	2	R1427T
1492.415	0.95	1572965	WORD_OFF	n/a	n/a	BREAD	9	6	[0, 0, 0]	n/a	FR1	2	R1427T
1493.365	1.617	1573913	WORD	n/a	wordpools/wordpool_long_EN.txt	SKY	10	6	[0, 0, 0]	n/a	FR1	2	R1427T
1494.982	0.867	1575525	WORD_OFF	n/a	n/a	SKY	10	6	[0, 0, 0]	n/a	FR1	2	R1427T
1495.849	1.6	1576393	WORD	n/a	wordpools/wordpool_long_EN.txt	TEETH	11	6	[0, 0, 0]	n/a	FR1	2	R1427T
1497.449	0.883	1577996	WORD_OFF	n/a	n/a	TEETH	11	6	[0, 0, 0]	n/a	FR1	2	R1427T
1498.332	1.6	1578882	WORD	n/a	wordpools/wordpool_long_EN.txt	TOAD	12	6	[0, 0, 0]	n/a	FR1	2	R1427T
1499.932	0.001	1580476	WORD_OFF	n/a	n/a	TOAD	12	6	[0, 0, 0]	n/a	FR1	2	R1427T
1499.933	0.0	1580476	ENCODING_END	n/a	n/a	n/a	-999	6	[0, 0, 0]	n/a	FR1	2	R1427T
1499.932	0.001	1580478	PROB	0.001	n/a	n/a	-999	6	[3, 2, 5]	10	FR1	2	R1427T
1499.933	0.0	1580479	START	n/a	n/a	n/a	-999	6	[-999, -999, -999]	n/a	FR1	2	R1427T
1499.933	3.899	1580485	DISTRACT_START	n/a	n/a	n/a	-999	6	[0, 0, 0]	n/a	FR1	2	R1427T
1503.832	6.1	1584378	PROB	6.1	n/a	n/a	-999	6	[8, 3, 2]	13	FR1	2	R1427T
1509.932	4.456	1590478	PROB	4.456	n/a	n/a	-999	6	[2, 6, 8]	16	FR1	2	R1427T
1514.388	3.844	1594933	PROB	3.844	n/a	n/a	-999	6	[3, 4, 3]	10	FR1	2	R1427T
1518.232	5.733	1598777	PROB	5.733	n/a	n/a	-999	6	[8, 6, 4]	18	FR1	2	R1427T
1523.965	0.0	1604510	STOP	n/a	n/a	n/a	-999	6	[-999, -999, -999]	n/a	FR1	2	R1427T
1523.965	2.083	1604514	DISTRACT_END	n/a	n/a	n/a	-999	6	[0, 0, 0]	n/a	FR1	2	R1427T
1526.048	1.444	1606595	REC_START	n/a	n/a	n/a	-999	6	[0, 0, 0]	n/a	FR1	2	R1427T
1527.492	1.942	1608037	REC_WORD	1.942	n/a	CHEEK	2	6	[0, 0, 0]	n/a	FR1	2	R1427T
1529.434	10.427	1609979	REC_WORD	10.427	n/a	TEETH	11	6	[0, 0, 0]	n/a	FR1	2	R1427T
1539.861	16.458	1620405	REC_WORD	16.458	n/a	SLEEVE	8	6	[0, 0, 0]	n/a	FR1	2	R1427T
1556.319	1.296	1636861	REC_END	n/a	n/a	n/a	-999	6	[0, 0, 0]	n/a	FR1	2	R1427T
1557.615	10.351	1638163	COUNTDOWN_START	n/a	n/a	n/a	-999	7	[0, 0, 0]	n/a	FR1	2	R1427T
1567.966	0.0	1648508	COUNTDOWN_END	n/a	n/a	n/a	-999	7	[0, 0, 0]	n/a	FR1	2	R1427T
1567.966	2.149	1648508	ENCODING_START	n/a	n/a	n/a	-999	7	[0, 0, 0]	n/a	FR1	2	R1427T
1570.115	1.6	1650660	WORD	n/a	wordpools/wordpool_long_EN.txt	TART	1	7	[0, 0, 0]	n/a	FR1	2	R1427T
1571.715	0.934	1652263	WORD_OFF	n/a	n/a	TART	1	7	[0, 0, 0]	n/a	FR1	2	R1427T
1572.649	1.6	1653193	WORD	n/a	wordpools/wordpool_long_EN.txt	BOOT	2	7	[0, 0, 0]	n/a	FR1	2	R1427T
1574.249	0.916	1654787	WORD_OFF	n/a	n/a	BOOT	2	7	[0, 0, 0]	n/a	FR1	2	R1427T
1575.165	1.6	1655709	WORD	n/a	wordpools/wordpool_long_EN.txt	SEA	3	7	[0, 0, 0]	n/a	FR1	2	R1427T
1576.765	0.867	1657312	WORD_OFF	n/a	n/a	SEA	3	7	[0, 0, 0]	n/a	FR1	2	R1427T
1577.632	1.6	1658171	WORD	n/a	wordpools/wordpool_long_EN.txt	RAKE	4	7	[0, 0, 0]	n/a	FR1	2	R1427T
1579.232	0.867	1659774	WORD_OFF	n/a	n/a	RAKE	4	7	[0, 0, 0]	n/a	FR1	2	R1427T
1580.099	1.6	1660642	WORD	n/a	wordpools/wordpool_long_EN.txt	FRAME	5	7	[0, 0, 0]	n/a	FR1	2	R1427T
1581.699	0.9	1662236	WORD_OFF	n/a	n/a	FRAME	5	7	[0, 0, 0]	n/a	FR1	2	R1427T
1582.599	1.6	1663140	WORD	n/a	wordpools/wordpool_long_EN.txt	SHEET	6	7	[0, 0, 0]	n/a	FR1	2	R1427T
1584.199	0.833	1664743	WORD_OFF	n/a	n/a	SHEET	6	7	[0, 0, 0]	n/a	FR1	2	R1427T
1585.032	1.6	1665575	WORD	n/a	wordpools/wordpool_long_EN.txt	CHILD	7	7	[0, 0, 0]	n/a	FR1	2	R1427T
1586.632	0.983	1667170	WORD_OFF	n/a	n/a	CHILD	7	7	[0, 0, 0]	n/a	FR1	2	R1427T
1587.615	1.6	1668153	WORD	n/a	wordpools/wordpool_long_EN.txt	OX	8	7	[0, 0, 0]	n/a	FR1	2	R1427T
1589.215	1.0	1669756	WORD_OFF	n/a	n/a	OX	8	7	[0, 0, 0]	n/a	FR1	2	R1427T
1590.215	1.6	1670757	WORD	n/a	wordpools/wordpool_long_EN.txt	RAIL	9	7	[0, 0, 0]	n/a	FR1	2	R1427T
1591.815	0.867	1672360	WORD_OFF	n/a	n/a	RAIL	9	7	[0, 0, 0]	n/a	FR1	2	R1427T
1592.682	1.617	1673219	WORD	n/a	wordpools/wordpool_long_EN.txt	ROAD	10	7	[0, 0, 0]	n/a	FR1	2	R1427T
1594.299	0.782	1674840	WORD_OFF	n/a	n/a	ROAD	10	7	[0, 0, 0]	n/a	FR1	2	R1427T
1595.081	1.601	1675619	WORD	n/a	wordpools/wordpool_long_EN.txt	CAPE	11	7	[0, 0, 0]	n/a	FR1	2	R1427T
1596.682	0.867	1677223	WORD_OFF	n/a	n/a	CAPE	11	7	[0, 0, 0]	n/a	FR1	2	R1427T
1597.549	1.6	1678091	WORD	n/a	wordpools/wordpool_long_EN.txt	PRINCE	12	7	[0, 0, 0]	n/a	FR1	2	R1427T
1599.149	0.001	1679690	PROB	0.001	n/a	n/a	-999	7	[6, 5, 4]	15	FR1	2	R1427T
1599.15	0.0	1679691	START	n/a	n/a	n/a	-999	7	[-999, -999, -999]	n/a	FR1	2	R1427T
1599.149	0.001	1679694	WORD_OFF	n/a	n/a	PRINCE	12	7	[0, 0, 0]	n/a	FR1	2	R1427T
1599.15	0.0	1679694	ENCODING_END	n/a	n/a	n/a	-999	7	[0, 0, 0]	n/a	FR1	2	R1427T
1599.15	5.216	1679694	DISTRACT_START	n/a	n/a	n/a	-999	7	[0, 0, 0]	n/a	FR1	2	R1427T
1604.366	3.402	1684907	PROB	3.402	n/a	n/a	-999	7	[2, 3, 5]	10	FR1	2	R1427T
1607.768	8.231	1688309	PROB	8.231	n/a	n/a	-999	7	[8, 6, 8]	22	FR1	2	R1427T
1615.999	4.416	1696539	PROB	4.416	n/a	n/a	-999	7	[3, 5, 8]	16	FR1	2	R1427T
1620.415	0.0	1700951	DISTRACT_END	n/a	n/a	n/a	-999	7	[0, 0, 0]	n/a	FR1	2	R1427T
1620.415	2.3	1700955	STOP	n/a	n/a	n/a	-999	7	[-999, -999, -999]	n/a	FR1	2	R1427T
1622.715	0.075	1703253	REC_START	n/a	n/a	n/a	-999	7	[0, 0, 0]	n/a	FR1	2	R1427T
1622.79	3.142	1703330	REC_WORD	3.142	n/a	PRINCE	12	7	[0, 0, 0]	n/a	FR1	2	R1427T
1625.932	27.076	1706472	REC_WORD	27.076	n/a	SEA	3	7	[0, 0, 0]	n/a	FR1	2	R1427T
1653.008	1.091	1733545	REC_END	n/a	n/a	n/a	-999	7	[0, 0, 0]	n/a	FR1	2	R1427T
1654.099	10.35	1734643	COUNTDOWN_START	n/a	n/a	n/a	-999	8	[0, 0, 0]	n/a	FR1	2	R1427T
1664.449	0.0	1744988	COUNTDOWN_END	n/a	n/a	n/a	-999	8	[0, 0, 0]	n/a	FR1	2	R1427T
1664.449	2.016	1744988	ENCODING_START	n/a	n/a	n/a	-999	8	[0, 0, 0]	n/a	FR1	2	R1427T
1666.465	1.6	1746999	WORD	n/a	wordpools/wordpool_long_EN.txt	BEAN	1	8	[0, 0, 0]	n/a	FR1	2	R1427T
1668.065	1.0	1748611	WORD_OFF	n/a	n/a	BEAN	1	8	[0, 0, 0]	n/a	FR1	2	R1427T
1669.065	1.6	1749603	WORD	n/a	wordpools/wordpool_long_EN.txt	FLEET	2	8	[0, 0, 0]	n/a	FR1	2	R1427T
1670.665	0.967	1751206	WORD_OFF	n/a	n/a	FLEET	2	8	[0, 0, 0]	n/a	FR1	2	R1427T
1671.632	1.617	1752172	WORD	n/a	wordpools/wordpool_long_EN.txt	CLOWN	3	8	[0, 0, 0]	n/a	FR1	2	R1427T
1673.249	0.766	1753784	WORD_OFF	n/a	n/a	CLOWN	3	8	[0, 0, 0]	n/a	FR1	2	R1427T
1674.015	1.6	1754554	WORD	n/a	wordpools/wordpool_long_EN.txt	CLOCK	4	8	[0, 0, 0]	n/a	FR1	2	R1427T
1675.615	0.884	1756157	WORD_OFF	n/a	n/a	CLOCK	4	8	[0, 0, 0]	n/a	FR1	2	R1427T
1676.499	1.6	1757034	WORD	n/a	wordpools/wordpool_long_EN.txt	SPARK	5	8	[0, 0, 0]	n/a	FR1	2	R1427T
1678.099	0.95	1758637	WORD_OFF	n/a	n/a	SPARK	5	8	[0, 0, 0]	n/a	FR1	2	R1427T
1679.049	1.616	1759585	WORD	n/a	wordpools/wordpool_long_EN.txt	FILM	6	8	[0, 0, 0]	n/a	FR1	2	R1427T
1680.665	0.95	1761206	WORD_OFF	n/a	n/a	FILM	6	8	[0, 0, 0]	n/a	FR1	2	R1427T
1681.615	1.6	1762154	WORD	n/a	wordpools/wordpool_long_EN.txt	POOL	7	8	[0, 0, 0]	n/a	FR1	2	R1427T
1683.215	0.884	1763748	WORD_OFF	n/a	n/a	POOL	7	8	[0, 0, 0]	n/a	FR1	2	R1427T
1684.099	1.616	1764634	WORD	n/a	wordpools/wordpool_long_EN.txt	STICK	8	8	[0, 0, 0]	n/a	FR1	2	R1427T
1685.715	0.834	1766254	WORD_OFF	n/a	n/a	STICK	8	8	[0, 0, 0]	n/a	FR1	2	R1427T
1686.549	1.6	1767087	WORD	n/a	wordpools/wordpool_long_EN.txt	CAT	9	8	[0, 0, 0]	n/a	FR1	2	R1427T
1688.149	0.866	1768681	WORD_OFF	n/a	n/a	CAT	9	8	[0, 0, 0]	n/a	FR1	2	R1427T
1689.015	1.6	1769549	WORD	n/a	wordpools/wordpool_long_EN.txt	SQUARE	10	8	[0, 0, 0]	n/a	FR1	2	R1427T
1690.615	0.834	1771161	WORD_OFF	n/a	n/a	SQUARE	10	8	[0, 0, 0]	n/a	FR1	2	R1427T
1691.449	1.616	1771985	WORD	n/a	wordpools/wordpool_long_EN.txt	CHIN	11	8	[0, 0, 0]	n/a	FR1	2	R1427T
1693.065	0.966	1773597	WORD_OFF	n/a	n/a	CHIN	11	8	[0, 0, 0]	n/a	FR1	2	R1427T
1694.031	1.6	1774571	WORD	n/a	wordpools/wordpool_long_EN.txt	HAT	12	8	[0, 0, 0]	n/a	FR1	2	R1427T
1695.631	0.001	1776166	WORD_OFF	n/a	n/a	HAT	12	8	[0, 0, 0]	n/a	FR1	2	R1427T
1695.632	0.001	1776168	PROB	0.001	n/a	n/a	-999	8	[3, 7, 8]	18	FR1	2	R1427T
1695.633	0.0	1776169	START	n/a	n/a	n/a	-999	8	[-999, -999, -999]	n/a	FR1	2	R1427T
1695.633	0.0	1776174	ENCODING_END	n/a	n/a	n/a	-999	8	[0, 0, 0]	n/a	FR1	2	R1427T
1695.633	4.516	1776174	DISTRACT_START	n/a	n/a	n/a	-999	8	[0, 0, 0]	n/a	FR1	2	R1427T
1700.149	4.084	1780685	PROB	4.084	n/a	n/a	-999	8	[3, 8, 5]	16	FR1	2	R1427T
1704.233	2.332	1784769	PROB	2.332	n/a	n/a	-999	8	[4, 5, 5]	14	FR1	2	R1427T
1706.565	2.567	1787101	PROB	2.567	n/a	n/a	-999	8	[2, 5, 4]	11	FR1	2	R1427T
1709.132	2.983	1789667	PROB	2.983	n/a	n/a	-999	8	[3, 1, 3]	7	FR1	2	R1427T
1712.115	2.317	1792650	PROB	2.317	n/a	n/a	-999	8	[5, 5, 4]	14	FR1	2	R1427T
1714.432	5.616	1794967	PROB	5.616	n/a	n/a	-999	8	[1, 5, 7]	13	FR1	2	R1427T
1720.048	0.0	1800583	STOP	n/a	n/a	n/a	-999	8	[-999, -999, -999]	n/a	FR1	2	R1427T
1720.048	2.066	1800585	DISTRACT_END	n/a	n/a	n/a	-999	8	[0, 0, 0]	n/a	FR1	2	R1427T
1722.114	0.352	1802648	REC_START	n/a	n/a	n/a	-999	8	[0, 0, 0]	n/a	FR1	2	R1427T
1722.466	2.864	1803001	REC_WORD	2.864	n/a	CHIN	11	8	[0, 0, 0]	n/a	FR1	2	R1427T
1725.33	27.097	1805865	REC_WORD	27.097	n/a	CLOCK	4	8	[0, 0, 0]	n/a	FR1	2	R1427T
1752.427	1.271	1832958	REC_END	n/a	n/a	n/a	-999	8	[0, 0, 0]	n/a	FR1	2	R1427T
1753.698	10.351	1834233	COUNTDOWN_START	n/a	n/a	n/a	-999	9	[0, 0, 0]	n/a	FR1	2	R1427T
1764.049	0.0	1844578	COUNTDOWN_END	n/a	n/a	n/a	-999	9	[0, 0, 0]	n/a	FR1	2	R1427T
1764.049	1.933	1844587	ENCODING_START	n/a	n/a	n/a	-999	9	[0, 0, 0]	n/a	FR1	2	R1427T
1765.982	1.617	1846518	WORD	n/a	wordpools/wordpool_long_EN.txt	WIFE	1	9	[0, 0, 0]	n/a	FR1	2	R1427T
1767.599	0.966	1848130	WORD_OFF	n/a	n/a	WIFE	1	9	[0, 0, 0]	n/a	FR1	2	R1427T
1768.565	1.601	1849095	WORD	n/a	wordpools/wordpool_long_EN.txt	MUG	2	9	[0, 0, 0]	n/a	FR1	2	R1427T
1770.166	0.883	1850698	WORD_OFF	n/a	n/a	MUG	2	9	[0, 0, 0]	n/a	FR1	2	R1427T
1771.049	1.616	1851584	WORD	n/a	wordpools/wordpool_long_EN.txt	HOSE	3	9	[0, 0, 0]	n/a	FR1	2	R1427T
1772.665	0.917	1853196	WORD_OFF	n/a	n/a	HOSE	3	9	[0, 0, 0]	n/a	FR1	2	R1427T
1773.582	1.6	1854117	WORD	n/a	wordpools/wordpool_long_EN.txt	CASH	4	9	[0, 0, 0]	n/a	FR1	2	R1427T
1775.182	0.917	1855712	WORD_OFF	n/a	n/a	CASH	4	9	[0, 0, 0]	n/a	FR1	2	R1427T
1776.099	1.616	1856633	WORD	n/a	wordpools/wordpool_long_EN.txt	POLE	5	9	[0, 0, 0]	n/a	FR1	2	R1427T
1777.715	0.917	1858245	WORD_OFF	n/a	n/a	POLE	5	9	[0, 0, 0]	n/a	FR1	2	R1427T
1778.632	1.6	1859166	WORD	n/a	wordpools/wordpool_long_EN.txt	MAZE	6	9	[0, 0, 0]	n/a	FR1	2	R1427T
1780.232	0.766	1860760	WORD_OFF	n/a	n/a	MAZE	6	9	[0, 0, 0]	n/a	FR1	2	R1427T
1780.998	1.6	1861531	WORD	n/a	wordpools/wordpool_long_EN.txt	SIGN	7	9	[0, 0, 0]	n/a	FR1	2	R1427T
1782.598	0.783	1863134	WORD_OFF	n/a	n/a	SIGN	7	9	[0, 0, 0]	n/a	FR1	2	R1427T
1783.381	1.601	1863913	WORD	n/a	wordpools/wordpool_long_EN.txt	MEAT	8	9	[0, 0, 0]	n/a	FR1	2	R1427T
1784.982	0.9	1865516	WORD_OFF	n/a	n/a	MEAT	8	9	[0, 0, 0]	n/a	FR1	2	R1427T
1785.882	1.617	1866411	WORD	n/a	wordpools/wordpool_long_EN.txt	PLANT	9	9	[0, 0, 0]	n/a	FR1	2	R1427T
1787.499	0.966	1868032	WORD_OFF	n/a	n/a	PLANT	9	9	[0, 0, 0]	n/a	FR1	2	R1427T
1788.465	1.617	1868997	WORD	n/a	wordpools/wordpool_long_EN.txt	TANK	10	9	[0, 0, 0]	n/a	FR1	2	R1427T
1790.082	0.783	1870609	WORD_OFF	n/a	n/a	TANK	10	9	[0, 0, 0]	n/a	FR1	2	R1427T
1790.865	1.616	1871398	WORD	n/a	wordpools/wordpool_long_EN.txt	DIME	11	9	[0, 0, 0]	n/a	FR1	2	R1427T
1792.481	1.001	1873010	WORD_OFF	n/a	n/a	DIME	11	9	[0, 0, 0]	n/a	FR1	2	R1427T
1793.482	1.616	1874010	WORD	n/a	wordpools/wordpool_long_EN.txt	FACE	12	9	[0, 0, 0]	n/a	FR1	2	R1427T
1795.098	0.001	1875629	PROB	0.001	n/a	n/a	-999	9	[8, 5, 1]	14	FR1	2	R1427T
1795.099	0.0	1875630	START	n/a	n/a	n/a	-999	9	[-999, -999, -999]	n/a	FR1	2	R1427T
1795.098	0.001	1875631	WORD_OFF	n/a	n/a	FACE	12	9	[0, 0, 0]	n/a	FR1	2	R1427T
1795.099	0.0	1875631	ENCODING_END	n/a	n/a	n/a	-999	9	[0, 0, 0]	n/a	FR1	2	R1427T
1795.099	6.117	1875631	DISTRACT_START	n/a	n/a	n/a	-999	9	[0, 0, 0]	n/a	FR1	2	R1427T
1801.216	4.866	1881747	PROB	4.866	n/a	n/a	-999	9	[3, 4, 7]	14	FR1	2	R1427T
1806.082	7.133	1886613	PROB	7.133	n/a	n/a	-999	9	[4, 7, 8]	19	FR1	2	R1427T
1813.215	2.55	1893745	PROB	2.55	n/a	n/a	-999	9	[1, 3, 1]	5	FR1	2	R1427T
1815.765	0.0	1896295	DISTRACT_END	n/a	n/a	n/a	-999	9	[0, 0, 0]	n/a	FR1	2	R1427T
1815.765	2.4	1896295	STOP	n/a	n/a	n/a	-999	9	[-999, -999, -999]	n/a	FR1	2	R1427T
1818.165	0.621	1898694	REC_START	n/a	n/a	n/a	-999	9	[0, 0, 0]	n/a	FR1	2	R1427T
1818.786	1.534	1899316	REC_WORD	1.534	n/a	WIFE	1	9	[0, 0, 0]	n/a	FR1	2	R1427T
1820.32	1.662	1900850	REC_WORD	1.662	n/a	TANK	10	9	[0, 0, 0]	n/a	FR1	2	R1427T
1821.982	1.304	1902512	REC_WORD	1.304	n/a	FACE	12	9	[0, 0, 0]	n/a	FR1	2	R1427T
1823.286	10.166	1903816	REC_WORD	10.166	n/a	MUG	2	9	[0, 0, 0]	n/a	FR1	2	R1427T
1833.452	14.999	1913981	REC_WORD	14.999	n/a	HAT	-999	9	[0, 0, 0]	n/a	FR1	2	R1427T
1848.451	1.714	1928978	REC_END	n/a	n/a	n/a	-999	9	[0, 0, 0]	n/a	FR1	2	R1427T
1850.165	10.351	1930696	COUNTDOWN_START	n/a	n/a	n/a	-999	10	[0, 0, 0]	n/a	FR1	2	R1427T
1860.516	0.0	1941041	COUNTDOWN_END	n/a	n/a	n/a	-999	10	[0, 0, 0]	n/a	FR1	2	R1427T
1860.516	1.999	1941050	ENCODING_START	n/a	n/a	n/a	-999	10	[0, 0, 0]	n/a	FR1	2	R1427T
1862.515	1.6	1943043	WORD	n/a	wordpools/wordpool_long_EN.txt	THUMB	1	10	[0, 0, 0]	n/a	FR1	2	R1427T
1864.115	1.0	1944646	WORD_OFF	n/a	n/a	THUMB	1	10	[0, 0, 0]	n/a	FR1	2	R1427T
1865.115	1.6	1945647	WORD	n/a	wordpools/wordpool_long_EN.txt	VINE	2	10	[0, 0, 0]	n/a	FR1	2	R1427T
1866.715	0.933	1947241	WORD_OFF	n/a	n/a	VINE	2	10	[0, 0, 0]	n/a	FR1	2	R1427T
1867.648	1.6	1948171	WORD	n/a	wordpools/wordpool_long_EN.txt	COD	3	10	[0, 0, 0]	n/a	FR1	2	R1427T
1869.248	0.901	1949774	WORD_OFF	n/a	n/a	COD	3	10	[0, 0, 0]	n/a	FR1	2	R1427T
1870.149	1.616	1950678	WORD	n/a	wordpools/wordpool_long_EN.txt	KEY	4	10	[0, 0, 0]	n/a	FR1	2	R1427T
1871.765	0.817	1952290	WORD_OFF	n/a	n/a	KEY	4	10	[0, 0, 0]	n/a	FR1	2	R1427T
1872.582	1.615	1953114	WORD	n/a	wordpools/wordpool_long_EN.txt	SHIELD	5	10	[0, 0, 0]	n/a	FR1	2	R1427T
1874.197	0.951	1954726	WORD_OFF	n/a	n/a	SHIELD	5	10	[0, 0, 0]	n/a	FR1	2	R1427T
1875.148	1.601	1955673	WORD	n/a	wordpools/wordpool_long_EN.txt	COOK	6	10	[0, 0, 0]	n/a	FR1	2	R1427T
1876.749	0.833	1957276	WORD_OFF	n/a	n/a	COOK	6	10	[0, 0, 0]	n/a	FR1	2	R1427T
1877.582	1.6	1958109	WORD	n/a	wordpools/wordpool_long_EN.txt	BAND	7	10	[0, 0, 0]	n/a	FR1	2	R1427T
1879.182	0.833	1959712	WORD_OFF	n/a	n/a	BAND	7	10	[0, 0, 0]	n/a	FR1	2	R1427T
1880.015	1.617	1960545	WORD	n/a	wordpools/wordpool_long_EN.txt	CRANE	8	10	[0, 0, 0]	n/a	FR1	2	R1427T
1881.632	1.0	1962157	WORD_OFF	n/a	n/a	CRANE	8	10	[0, 0, 0]	n/a	FR1	2	R1427T
1882.632	1.617	1963158	WORD	n/a	wordpools/wordpool_long_EN.txt	MOUTH	9	10	[0, 0, 0]	n/a	FR1	2	R1427T
1884.249	0.883	1964778	WORD_OFF	n/a	n/a	MOUTH	9	10	[0, 0, 0]	n/a	FR1	2	R1427T
1885.132	1.616	1965655	WORD	n/a	wordpools/wordpool_long_EN.txt	GIFT	10	10	[0, 0, 0]	n/a	FR1	2	R1427T
1886.748	0.867	1967276	WORD_OFF	n/a	n/a	GIFT	10	10	[0, 0, 0]	n/a	FR1	2	R1427T
1887.615	1.6	1968144	WORD	n/a	wordpools/wordpool_long_EN.txt	FLAG	11	10	[0, 0, 0]	n/a	FR1	2	R1427T
1889.215	0.917	1969738	WORD_OFF	n/a	n/a	FLAG	11	10	[0, 0, 0]	n/a	FR1	2	R1427T
1890.132	1.6	1970660	WORD	n/a	wordpools/wordpool_long_EN.txt	TOY	12	10	[0, 0, 0]	n/a	FR1	2	R1427T
1891.732	0.0	1972254	WORD_OFF	n/a	n/a	TOY	12	10	[0, 0, 0]	n/a	FR1	2	R1427T
1891.732	0.001	1972258	PROB	0.001	n/a	n/a	-999	10	[4, 2, 7]	13	FR1	2	R1427T
1891.733	0.0	1972259	START	n/a	n/a	n/a	-999	10	[-999, -999, -999]	n/a	FR1	2	R1427T
1891.733	0.0	1972263	ENCODING_END	n/a	n/a	n/a	-999	10	[0, 0, 0]	n/a	FR1	2	R1427T
1891.733	3.932	1972263	DISTRACT_START	n/a	n/a	n/a	-999	10	[0, 0, 0]	n/a	FR1	2	R1427T
1895.665	4.184	1976191	PROB	4.184	n/a	n/a	-999	10	[1, 2, 7]	10	FR1	2	R1427T
1899.849	6.882	1980375	PROB	6.882	n/a	n/a	-999	10	[4, 7, 5]	16	FR1	2	R1427T
1906.731	2.117	1987256	PROB	2.117	n/a	n/a	-999	10	[3, 3, 6]	12	FR1	2	R1427T
1908.848	3.6	1989373	PROB	3.6	n/a	n/a	-999	10	[3, 7, 3]	13	FR1	2	R1427T
1912.448	0.0	1992971	DISTRACT_END	n/a	n/a	n/a	-999	10	[0, 0, 0]	n/a	FR1	2	R1427T
1912.448	2.184	1992973	STOP	n/a	n/a	n/a	-999	10	[-999, -999, -999]	n/a	FR1	2	R1427T
1914.632	1.131	1995157	REC_START	n/a	n/a	n/a	-999	10	[0, 0, 0]	n/a	FR1	2	R1427T
1915.763	1.415	1996288	REC_WORD	1.415	n/a	FLAG	11	10	[0, 0, 0]	n/a	FR1	2	R1427T
1917.178	20.162	1997703	REC_WORD	20.162	n/a	SHEET	-999	10	[0, 0, 0]	n/a	FR1	2	R1427T
1937.34	1.091	2017864	REC_WORD	1.091	n/a	THUMBS	-999	10	[0, 0, 0]	n/a	FR1	2	R1427T
1938.431	6.481	2018955	REC_WORD	6.481	n/a	MOUSE	-999	10	[0, 0, 0]	n/a	FR1	2	R1427T
1944.912	1.336	2025432	REC_END	n/a	n/a	n/a	-999	10	[0, 0, 0]	n/a	FR1	2	R1427T
1946.248	10.35	2026769	COUNTDOWN_START	n/a	n/a	n/a	-999	11	[0, 0, 0]	n/a	FR1	2	R1427T
1956.598	0.001	2037123	COUNTDOWN_END	n/a	n/a	n/a	-999	11	[0, 0, 0]	n/a	FR1	2	R1427T
1956.599	2.199	2037123	ENCODING_START	n/a	n/a	n/a	-999	11	[0, 0, 0]	n/a	FR1	2	R1427T
1958.798	1.601	2039320	WORD	n/a	wordpools/wordpool_long_EN.txt	BRANCH	1	11	[0, 0, 0]	n/a	FR1	2	R1427T
1960.399	0.8	2040923	WORD_OFF	n/a	n/a	BRANCH	1	11	[0, 0, 0]	n/a	FR1	2	R1427T
1961.199	1.616	2041720	WORD	n/a	wordpools/wordpool_long_EN.txt	FLEA	2	11	[0, 0, 0]	n/a	FR1	2	R1427T
1962.815	0.917	2043341	WORD_OFF	n/a	n/a	FLEA	2	11	[0, 0, 0]	n/a	FR1	2	R1427T
1963.732	1.6	2044253	WORD	n/a	wordpools/wordpool_long_EN.txt	STEM	3	11	[0, 0, 0]	n/a	FR1	2	R1427T
1965.332	0.816	2045857	WORD_OFF	n/a	n/a	STEM	3	11	[0, 0, 0]	n/a	FR1	2	R1427T
1966.148	1.601	2046671	WORD	n/a	wordpools/wordpool_long_EN.txt	WING	4	11	[0, 0, 0]	n/a	FR1	2	R1427T
1967.749	0.766	2048275	WORD_OFF	n/a	n/a	WING	4	11	[0, 0, 0]	n/a	FR1	2	R1427T
1968.515	1.6	2049036	WORD	n/a	wordpools/wordpool_long_EN.txt	SUIT	5	11	[0, 0, 0]	n/a	FR1	2	R1427T
1970.115	0.784	2050648	WORD_OFF	n/a	n/a	SUIT	5	11	[0, 0, 0]	n/a	FR1	2	R1427T
1970.899	1.616	2051419	WORD	n/a	wordpools/wordpool_long_EN.txt	BARN	6	11	[0, 0, 0]	n/a	FR1	2	R1427T
1972.515	0.834	2053040	WORD_OFF	n/a	n/a	BARN	6	11	[0, 0, 0]	n/a	FR1	2	R1427T
1973.349	1.616	2053872	WORD	n/a	wordpools/wordpool_long_EN.txt	YARN	7	11	[0, 0, 0]	n/a	FR1	2	R1427T
1974.965	1.0	2055484	WORD_OFF	n/a	n/a	YARN	7	11	[0, 0, 0]	n/a	FR1	2	R1427T
1975.965	1.6	2056485	WORD	n/a	wordpools/wordpool_long_EN.txt	THRONE	8	11	[0, 0, 0]	n/a	FR1	2	R1427T
1977.565	0.8	2058088	WORD_OFF	n/a	n/a	THRONE	8	11	[0, 0, 0]	n/a	FR1	2	R1427T
1978.365	1.617	2058885	WORD	n/a	wordpools/wordpool_long_EN.txt	TOOL	9	11	[0, 0, 0]	n/a	FR1	2	R1427T
1979.982	0.966	2060506	WORD_OFF	n/a	n/a	TOOL	9	11	[0, 0, 0]	n/a	FR1	2	R1427T
1980.948	1.601	2061472	WORD	n/a	wordpools/wordpool_long_EN.txt	HEART	10	11	[0, 0, 0]	n/a	FR1	2	R1427T
1982.549	0.983	2063075	WORD_OFF	n/a	n/a	HEART	10	11	[0, 0, 0]	n/a	FR1	2	R1427T
1983.532	1.616	2064049	WORD	n/a	wordpools/wordpool_long_EN.txt	CART	11	11	[0, 0, 0]	n/a	FR1	2	R1427T
1985.148	0.767	2065670	WORD_OFF	n/a	n/a	CART	11	11	[0, 0, 0]	n/a	FR1	2	R1427T
1985.915	1.616	2066432	WORD	n/a	wordpools/wordpool_long_EN.txt	CLOTH	12	11	[0, 0, 0]	n/a	FR1	2	R1427T
1987.531	0.002	2068053	WORD_OFF	n/a	n/a	CLOTH	12	11	[0, 0, 0]	n/a	FR1	2	R1427T
1987.533	0.0	2068053	ENCODING_END	n/a	n/a	n/a	-999	11	[0, 0, 0]	n/a	FR1	2	R1427T
1987.532	0.001	2068053	PROB	0.001	n/a	n/a	-999	11	[5, 6, 7]	18	FR1	2	R1427T
1987.533	0.0	2068054	START	n/a	n/a	n/a	-999	11	[-999, -999, -999]	n/a	FR1	2	R1427T
1987.533	9.016	2068061	DISTRACT_START	n/a	n/a	n/a	-999	11	[0, 0, 0]	n/a	FR1	2	R1427T
1996.549	6.633	2077070	PROB	6.633	n/a	n/a	-999	11	[2, 7, 3]	12	FR1	2	R1427T
2003.182	6.617	2083702	PROB	6.617	n/a	n/a	-999	11	[4, 5, 3]	12	FR1	2	R1427T
2009.799	0.0	2090319	DISTRACT_END	n/a	n/a	n/a	-999	11	[0, 0, 0]	n/a	FR1	2	R1427T
2009.799	2.2	2090319	STOP	n/a	n/a	n/a	-999	11	[-999, -999, -999]	n/a	FR1	2	R1427T
2011.999	0.748	2092524	REC_START	n/a	n/a	n/a	-999	11	[0, 0, 0]	n/a	FR1	2	R1427T
2012.747	0.802	2093267	REC_WORD	0.802	n/a	BARN	6	11	[0, 0, 0]	n/a	FR1	2	R1427T
2013.549	2.04	2094069	REC_WORD	2.04	n/a	YARN	7	11	[0, 0, 0]	n/a	FR1	2	R1427T
2015.589	26.699	2096109	REC_WORD	26.699	n/a	THRONE	8	11	[0, 0, 0]	n/a	FR1	2	R1427T
2042.288	1.494	2122807	REC_END	n/a	n/a	n/a	-999	11	[0, 0, 0]	n/a	FR1	2	R1427T
2043.782	10.351	2124304	COUNTDOWN_START	n/a	n/a	n/a	-999	12	[0, 0, 0]	n/a	FR1	2	R1427T
2054.133	0.0	2134649	COUNTDOWN_END	n/a	n/a	n/a	-999	12	[0, 0, 0]	n/a	FR1	2	R1427T
2054.133	2.082	2134649	ENCODING_START	n/a	n/a	n/a	-999	12	[0, 0, 0]	n/a	FR1	2	R1427T
2056.215	1.617	2136731	WORD	n/a	wordpools/wordpool_long_EN.txt	TREE	1	12	[0, 0, 0]	n/a	FR1	2	R1427T
2057.832	0.867	2138352	WORD_OFF	n/a	n/a	TREE	1	12	[0, 0, 0]	n/a	FR1	2	R1427T
2058.699	1.617	2139220	WORD	n/a	wordpools/wordpool_long_EN.txt	FORT	2	12	[0, 0, 0]	n/a	FR1	2	R1427T
2060.316	0.782	2140832	WORD_OFF	n/a	n/a	FORT	2	12	[0, 0, 0]	n/a	FR1	2	R1427T
2061.098	1.617	2141620	WORD	n/a	wordpools/wordpool_long_EN.txt	WEB	3	12	[0, 0, 0]	n/a	FR1	2	R1427T
2062.715	0.799	2143232	WORD_OFF	n/a	n/a	WEB	3	12	[0, 0, 0]	n/a	FR1	2	R1427T
2063.514	1.601	2144029	WORD	n/a	wordpools/wordpool_long_EN.txt	MOP	4	12	[0, 0, 0]	n/a	FR1	2	R1427T
2065.115	0.783	2145632	WORD_OFF	n/a	n/a	MOP	4	12	[0, 0, 0]	n/a	FR1	2	R1427T
2065.898	1.617	2146412	WORD	n/a	wordpools/wordpool_long_EN.txt	HOOK	5	12	[0, 0, 0]	n/a	FR1	2	R1427T
2067.515	0.817	2148033	WORD_OFF	n/a	n/a	HOOK	5	12	[0, 0, 0]	n/a	FR1	2	R1427T
2068.332	1.616	2148847	WORD	n/a	wordpools/wordpool_long_EN.txt	WHEEL	6	12	[0, 0, 0]	n/a	FR1	2	R1427T
2069.948	0.917	2150468	WORD_OFF	n/a	n/a	WHEEL	6	12	[0, 0, 0]	n/a	FR1	2	R1427T
2070.865	1.6	2151381	WORD	n/a	wordpools/wordpool_long_EN.txt	SLUSH	7	12	[0, 0, 0]	n/a	FR1	2	R1427T
2072.465	0.833	2152984	WORD_OFF	n/a	n/a	SLUSH	7	12	[0, 0, 0]	n/a	FR1	2	R1427T
2073.298	1.616	2153816	WORD	n/a	wordpools/wordpool_long_EN.txt	TOOTH	8	12	[0, 0, 0]	n/a	FR1	2	R1427T
2074.914	0.918	2155428	WORD_OFF	n/a	n/a	TOOTH	8	12	[0, 0, 0]	n/a	FR1	2	R1427T
2075.832	1.6	2156349	WORD	n/a	wordpools/wordpool_long_EN.txt	THIEF	9	12	[0, 0, 0]	n/a	FR1	2	R1427T
2077.432	0.833	2157944	WORD_OFF	n/a	n/a	THIEF	9	12	[0, 0, 0]	n/a	FR1	2	R1427T
2078.265	1.616	2158785	WORD	n/a	wordpools/wordpool_long_EN.txt	STOOL	10	12	[0, 0, 0]	n/a	FR1	2	R1427T
2079.881	1.0	2160397	WORD_OFF	n/a	n/a	STOOL	10	12	[0, 0, 0]	n/a	FR1	2	R1427T
2080.881	1.617	2161398	WORD	n/a	wordpools/wordpool_long_EN.txt	SEAT	11	12	[0, 0, 0]	n/a	FR1	2	R1427T
2082.498	0.933	2163013	WORD_OFF	n/a	n/a	SEAT	11	12	[0, 0, 0]	n/a	FR1	2	R1427T
2083.431	1.6	2163949	WORD	n/a	wordpools/wordpool_long_EN.txt	DEER	12	12	[0, 0, 0]	n/a	FR1	2	R1427T
2085.031	0.001	2165543	WORD_OFF	n/a	n/a	DEER	12	12	[0, 0, 0]	n/a	FR1	2	R1427T
2085.032	0.001	2165548	PROB	0.001	n/a	n/a	-999	12	[8, 1, 4]	13	FR1	2	R1427T
2085.033	0.0	2165549	START	n/a	n/a	n/a	-999	12	[-999, -999, -999]	n/a	FR1	2	R1427T
2085.033	0.0	2165552	ENCODING_END	n/a	n/a	n/a	-999	12	[0, 0, 0]	n/a	FR1	2	R1427T
2085.033	4.548	2165552	DISTRACT_START	n/a	n/a	n/a	-999	12	[0, 0, 0]	n/a	FR1	2	R1427T
2089.581	4.301	2170097	PROB	4.301	n/a	n/a	-999	12	[7, 2, 2]	11	FR1	2	R1427T
2093.882	4.016	2174398	PROB	4.016	n/a	n/a	-999	12	[3, 8, 5]	16	FR1	2	R1427T
2097.898	3.952	2178414	PROB	3.952	n/a	n/a	-999	12	[2, 3, 5]	10	FR1	2	R1427T
2101.85	2.916	2182365	PROB	2.916	n/a	n/a	-999	12	[8, 1, 4]	13	FR1	2	R1427T
2104.766	3.716	2185281	PROB	3.716	n/a	n/a	-999	12	[7, 7, 5]	19	FR1	2	R1427T
2108.482	0.0	2188997	DISTRACT_END	n/a	n/a	n/a	-999	12	[0, 0, 0]	n/a	FR1	2	R1427T
2108.482	2.3	2188997	STOP	n/a	n/a	n/a	-999	12	[-999, -999, -999]	n/a	FR1	2	R1427T
2110.782	2.317	2191299	REC_START	n/a	n/a	n/a	-999	12	[0, 0, 0]	n/a	FR1	2	R1427T
2113.099	2.563	2193614	REC_WORD	2.563	n/a	MOP	4	12	[0, 0, 0]	n/a	FR1	2	R1427T
2115.662	2.169	2196177	REC_WORD	2.169	n/a	TREE	1	12	[0, 0, 0]	n/a	FR1	2	R1427T
2117.831	23.246	2198346	REC_WORD	23.246	n/a	STOOL	10	12	[0, 0, 0]	n/a	FR1	2	R1427T
2141.077	0.0	2221591	REC_END	n/a	n/a	n/a	-999	12	[0, 0, 0]	n/a	FR1	2	R1427T
