onset	duration	sample	trial_type	response_time	stim_file	item_name	serialpos	list	test	answer	experiment	session	subject
0.0	161.938	15999	INSTRUCT_START	n/a	n/a	n/a	-999	-999	[0, 0, 0]	n/a	FR1	0	R1416T
161.938	50.409	177938	INSTRUCT_END	n/a	n/a	n/a	-999	-999	[0, 0, 0]	n/a	FR1	0	R1416T
212.347	10.352	228352	COUNTDOWN_START	n/a	n/a	n/a	-999	-999	[0, 0, 0]	n/a	FR1	0	R1416T
222.699	0.0	238699	COUNTDOWN_END	n/a	n/a	n/a	-999	-999	[0, 0, 0]	n/a	FR1	0	R1416T
222.699	2.016	238704	ENCODING_START	n/a	n/a	n/a	-999	-1	[0, 0, 0]	n/a	FR1	0	R1416T
224.715	1.616	240714	WORD	n/a	n/a	TILE	1	-1	[0, 0, 0]	n/a	FR1	0	R1416T
226.331	0.934	242316	WORD_OFF	n/a	n/a	TILE	1	-1	[0, 0, 0]	n/a	FR1	0	R1416T
227.265	1.6	243257	WORD	n/a	n/a	MOOSE	2	-1	[0, 0, 0]	n/a	FR1	0	R1416T
228.865	0.916	244860	WORD_OFF	n/a	n/a	MOOSE	2	-1	[0, 0, 0]	n/a	FR1	0	R1416T
229.781	1.6	245775	WORD	n/a	n/a	CLAY	3	-1	[0, 0, 0]	n/a	FR1	0	R1416T
231.381	0.85	247378	WORD_OFF	n/a	n/a	CLAY	3	-1	[0, 0, 0]	n/a	FR1	0	R1416T
232.231	1.617	248217	WORD	n/a	n/a	BATH	4	-1	[0, 0, 0]	n/a	FR1	0	R1416T
233.848	1.0	249845	WORD_OFF	n/a	n/a	BATH	4	-1	[0, 0, 0]	n/a	FR1	0	R1416T
234.848	1.617	250837	WORD	n/a	n/a	FOX	5	-1	[0, 0, 0]	n/a	FR1	0	R1416T
236.465	1.0	252465	WORD_OFF	n/a	n/a	FOX	5	-1	[0, 0, 0]	n/a	FR1	0	R1416T
237.465	1.6	253457	WORD	n/a	n/a	GOLD	6	-1	[0, 0, 0]	n/a	FR1	0	R1416T
239.065	0.816	255059	WORD_OFF	n/a	n/a	GOLD	6	-1	[0, 0, 0]	n/a	FR1	0	R1416T
239.881	1.6	255873	WORD	n/a	n/a	INN	7	-1	[0, 0, 0]	n/a	FR1	0	R1416T
241.481	0.884	257476	WORD_OFF	n/a	n/a	INN	7	-1	[0, 0, 0]	n/a	FR1	0	R1416T
242.365	1.6	258366	WORD	n/a	n/a	SIGN	8	-1	[0, 0, 0]	n/a	FR1	0	R1416T
243.965	0.833	259963	WORD_OFF	n/a	n/a	SIGN	8	-1	[0, 0, 0]	n/a	FR1	0	R1416T
244.798	1.617	260783	WORD	n/a	n/a	SUIT	9	-1	[0, 0, 0]	n/a	FR1	0	R1416T
246.415	0.85	262410	WORD_OFF	n/a	n/a	SUIT	9	-1	[0, 0, 0]	n/a	FR1	0	R1416T
247.265	1.616	263250	WORD	n/a	n/a	FAN	10	-1	[0, 0, 0]	n/a	FR1	0	R1416T
248.881	0.817	264872	WORD_OFF	n/a	n/a	FAN	10	-1	[0, 0, 0]	n/a	FR1	0	R1416T
249.698	1.617	265692	WORD	n/a	n/a	SQUARE	11	-1	[0, 0, 0]	n/a	FR1	0	R1416T
251.315	0.999	267314	WORD_OFF	n/a	n/a	SQUARE	11	-1	[0, 0, 0]	n/a	FR1	0	R1416T
252.314	1.602	268312	WORD	n/a	n/a	HORN	12	-1	[0, 0, 0]	n/a	FR1	0	R1416T
253.916	0.0	269907	START	n/a	n/a	n/a	-999	-1	[-999, -999, -999]	n/a	FR1	0	R1416T
253.916	0.0	269907	PROB	0.0	n/a	n/a	-999	-1	[6, 6, 4]	16	FR1	0	R1416T
253.915	0.001	269914	WORD_OFF	n/a	n/a	HORN	12	-1	[0, 0, 0]	n/a	FR1	0	R1416T
253.916	0.0	269914	ENCODING_END	n/a	n/a	n/a	-999	-1	[0, 0, 0]	n/a	FR1	0	R1416T
253.916	19.116	269914	DISTRACT_START	n/a	n/a	n/a	-999	-1	[0, 0, 0]	n/a	FR1	0	R1416T
273.032	15.049	289022	PROB	15.049	n/a	n/a	-999	-1	[5, 2, 8]	15	FR1	0	R1416T
288.081	0.0	304070	STOP	n/a	n/a	n/a	-999	-1	[-999, -999, -999]	n/a	FR1	0	R1416T
288.081	2.2	304074	DISTRACT_END	n/a	n/a	n/a	-999	-1	[0, 0, 0]	n/a	FR1	0	R1416T
290.281	5.925	306270	REC_START	n/a	n/a	n/a	-999	-1	[0, 0, 0]	n/a	FR1	0	R1416T
296.206	4.268	312195	REC_WORD_VV	4.268	n/a	<>	-999	-1	[0, 0, 0]	n/a	FR1	0	R1416T
300.474	2.436	316463	REC_WORD_VV	2.436	n/a	<>	-999	-1	[0, 0, 0]	n/a	FR1	0	R1416T
302.91	3.226	318899	REC_WORD	3.226	n/a	TILE	1	-1	[0, 0, 0]	n/a	FR1	0	R1416T
306.136	5.412	322125	REC_WORD	5.412	n/a	MOOSE	2	-1	[0, 0, 0]	n/a	FR1	0	R1416T
311.548	0.499	327536	REC_WORD	0.499	n/a	TILE	1	-1	[0, 0, 0]	n/a	FR1	0	R1416T
312.047	4.157	328035	REC_WORD	4.157	n/a	MOOSE	2	-1	[0, 0, 0]	n/a	FR1	0	R1416T
316.204	4.338	332192	REC_WORD	4.338	n/a	BACK	-999	-1	[0, 0, 0]	n/a	FR1	0	R1416T
320.542	19.74	336531	REC_END	n/a	n/a	n/a	-999	-1	[0, 0, 0]	n/a	FR1	0	R1416T
340.282	10.35	356269	COUNTDOWN_START	n/a	n/a	n/a	-999	1	[0, 0, 0]	n/a	FR1	0	R1416T
350.632	0.0	366621	COUNTDOWN_END	n/a	n/a	n/a	-999	1	[0, 0, 0]	n/a	FR1	0	R1416T
350.632	2.2	366621	ENCODING_START	n/a	n/a	n/a	-999	1	[0, 0, 0]	n/a	FR1	0	R1416T
352.832	1.616	368809	WORD	n/a	wordpools/wordpool_long_EN.txt	THRONE	1	1	[0, 0, 0]	n/a	FR1	0	R1416T
354.448	0.884	370437	WORD_OFF	n/a	n/a	THRONE	1	1	[0, 0, 0]	n/a	FR1	0	R1416T
355.332	1.616	371327	WORD	n/a	wordpools/wordpool_long_EN.txt	BOOT	2	1	[0, 0, 0]	n/a	FR1	0	R1416T
356.948	0.9	372929	WORD_OFF	n/a	n/a	BOOT	2	1	[0, 0, 0]	n/a	FR1	0	R1416T
357.848	1.6	373839	WORD	n/a	wordpools/wordpool_long_EN.txt	PURSE	3	1	[0, 0, 0]	n/a	FR1	0	R1416T
359.448	0.868	375442	WORD_OFF	n/a	n/a	PURSE	3	1	[0, 0, 0]	n/a	FR1	0	R1416T
360.316	1.615	376307	WORD	n/a	wordpools/wordpool_long_EN.txt	STREET	4	1	[0, 0, 0]	n/a	FR1	0	R1416T
361.931	0.967	377915	WORD_OFF	n/a	n/a	STREET	4	1	[0, 0, 0]	n/a	FR1	0	R1416T
362.898	1.617	378881	WORD	n/a	wordpools/wordpool_long_EN.txt	CARD	5	1	[0, 0, 0]	n/a	FR1	0	R1416T
364.515	0.982	380509	WORD_OFF	n/a	n/a	CARD	5	1	[0, 0, 0]	n/a	FR1	0	R1416T
365.497	1.601	381476	WORD	n/a	wordpools/wordpool_long_EN.txt	FOOD	6	1	[0, 0, 0]	n/a	FR1	0	R1416T
367.098	0.95	383078	WORD_OFF	n/a	n/a	FOOD	6	1	[0, 0, 0]	n/a	FR1	0	R1416T
368.048	1.617	384039	WORD	n/a	wordpools/wordpool_long_EN.txt	SEA	7	1	[0, 0, 0]	n/a	FR1	0	R1416T
369.665	0.85	385647	WORD_OFF	n/a	n/a	SEA	7	1	[0, 0, 0]	n/a	FR1	0	R1416T
370.515	1.6	386512	WORD	n/a	wordpools/wordpool_long_EN.txt	INK	8	1	[0, 0, 0]	n/a	FR1	0	R1416T
372.115	1.0	388109	WORD_OFF	n/a	n/a	INK	8	1	[0, 0, 0]	n/a	FR1	0	R1416T
373.115	1.6	389106	WORD	n/a	wordpools/wordpool_long_EN.txt	STAIR	9	1	[0, 0, 0]	n/a	FR1	0	R1416T
374.715	0.783	390709	WORD_OFF	n/a	n/a	STAIR	9	1	[0, 0, 0]	n/a	FR1	0	R1416T
375.498	1.6	391491	WORD	n/a	wordpools/wordpool_long_EN.txt	MARSH	10	1	[0, 0, 0]	n/a	FR1	0	R1416T
377.098	0.9	393074	WORD_OFF	n/a	n/a	MARSH	10	1	[0, 0, 0]	n/a	FR1	0	R1416T
377.998	1.617	393990	WORD	n/a	wordpools/wordpool_long_EN.txt	FACE	11	1	[0, 0, 0]	n/a	FR1	0	R1416T
379.615	0.983	395593	WORD_OFF	n/a	n/a	FACE	11	1	[0, 0, 0]	n/a	FR1	0	R1416T
380.598	1.616	396585	WORD	n/a	wordpools/wordpool_long_EN.txt	STEAK	12	1	[0, 0, 0]	n/a	FR1	0	R1416T
382.214	0.002	398198	PROB	0.002	n/a	n/a	-999	1	[5, 3, 5]	12	FR1	0	R1416T
382.216	0.0	398200	START	n/a	n/a	n/a	-999	1	[-999, -999, -999]	n/a	FR1	0	R1416T
382.214	0.001	398213	WORD_OFF	n/a	n/a	STEAK	12	1	[0, 0, 0]	n/a	FR1	0	R1416T
382.215	0.001	398213	ENCODING_END	n/a	n/a	n/a	-999	1	[0, 0, 0]	n/a	FR1	0	R1416T
382.216	6.233	398213	DISTRACT_START	n/a	n/a	n/a	-999	1	[0, 0, 0]	n/a	FR1	0	R1416T
388.449	18.748	404433	PROB	18.748	n/a	n/a	-999	1	[3, 8, 3]	14	FR1	0	R1416T
407.197	0.0	423180	STOP	n/a	n/a	n/a	-999	1	[-999, -999, -999]	n/a	FR1	0	R1416T
407.197	2.367	423190	DISTRACT_END	n/a	n/a	n/a	-999	1	[0, 0, 0]	n/a	FR1	0	R1416T
409.564	0.999	425539	REC_START	n/a	n/a	n/a	-999	1	[0, 0, 0]	n/a	FR1	0	R1416T
410.563	2.394	426546	REC_WORD	2.394	n/a	THRONE	1	1	[0, 0, 0]	n/a	FR1	0	R1416T
412.957	0.851	428940	REC_WORD	0.851	n/a	BOOT	2	1	[0, 0, 0]	n/a	FR1	0	R1416T
413.808	2.373	429791	REC_WORD	2.373	n/a	PURSE	3	1	[0, 0, 0]	n/a	FR1	0	R1416T
416.181	3.551	432164	REC_WORD	3.551	n/a	STREET	4	1	[0, 0, 0]	n/a	FR1	0	R1416T
419.732	4.448	435715	REC_WORD_VV	4.448	n/a	<>	-999	1	[0, 0, 0]	n/a	FR1	0	R1416T
424.18	4.163	440162	REC_WORD	4.163	n/a	INK	8	1	[0, 0, 0]	n/a	FR1	0	R1416T
428.343	7.993	444325	REC_WORD_VV	7.993	n/a	<>	-999	1	[0, 0, 0]	n/a	FR1	0	R1416T
436.336	3.493	452318	REC_WORD_VV	3.493	n/a	<>	-999	1	[0, 0, 0]	n/a	FR1	0	R1416T
439.829	2.553	455819	REC_END	n/a	n/a	n/a	-999	1	[0, 0, 0]	n/a	FR1	0	R1416T
442.382	10.35	458368	COUNTDOWN_START	n/a	n/a	n/a	-999	2	[0, 0, 0]	n/a	FR1	0	R1416T
452.732	0.0	468721	COUNTDOWN_END	n/a	n/a	n/a	-999	2	[0, 0, 0]	n/a	FR1	0	R1416T
452.732	1.816	468721	ENCODING_START	n/a	n/a	n/a	-999	2	[0, 0, 0]	n/a	FR1	0	R1416T
454.548	1.617	470527	WORD	n/a	wordpools/wordpool_long_EN.txt	SMOKE	1	2	[0, 0, 0]	n/a	FR1	0	R1416T
456.165	0.783	472155	WORD_OFF	n/a	n/a	SMOKE	1	2	[0, 0, 0]	n/a	FR1	0	R1416T
456.948	1.617	472938	WORD	n/a	wordpools/wordpool_long_EN.txt	BOMB	2	2	[0, 0, 0]	n/a	FR1	0	R1416T
458.565	0.867	474546	WORD_OFF	n/a	n/a	BOMB	2	2	[0, 0, 0]	n/a	FR1	0	R1416T
459.432	1.616	475410	WORD	n/a	wordpools/wordpool_long_EN.txt	HOOF	3	2	[0, 0, 0]	n/a	FR1	0	R1416T
461.048	0.817	477033	WORD_OFF	n/a	n/a	HOOF	3	2	[0, 0, 0]	n/a	FR1	0	R1416T
461.865	1.6	477852	WORD	n/a	wordpools/wordpool_long_EN.txt	TOAST	4	2	[0, 0, 0]	n/a	FR1	0	R1416T
463.465	0.916	479455	WORD_OFF	n/a	n/a	TOAST	4	2	[0, 0, 0]	n/a	FR1	0	R1416T
464.381	1.6	480370	WORD	n/a	wordpools/wordpool_long_EN.txt	CART	5	2	[0, 0, 0]	n/a	FR1	0	R1416T
465.981	0.917	481973	WORD_OFF	n/a	n/a	CART	5	2	[0, 0, 0]	n/a	FR1	0	R1416T
466.898	1.6	482883	WORD	n/a	wordpools/wordpool_long_EN.txt	CHIEF	6	2	[0, 0, 0]	n/a	FR1	0	R1416T
468.498	0.867	484485	WORD_OFF	n/a	n/a	CHIEF	6	2	[0, 0, 0]	n/a	FR1	0	R1416T
469.365	1.6	485350	WORD	n/a	wordpools/wordpool_long_EN.txt	SPRING	7	2	[0, 0, 0]	n/a	FR1	0	R1416T
470.965	0.8	486953	WORD_OFF	n/a	n/a	SPRING	7	2	[0, 0, 0]	n/a	FR1	0	R1416T
471.765	1.616	487747	WORD	n/a	wordpools/wordpool_long_EN.txt	FRIEND	8	2	[0, 0, 0]	n/a	FR1	0	R1416T
473.381	0.934	489369	WORD_OFF	n/a	n/a	FRIEND	8	2	[0, 0, 0]	n/a	FR1	0	R1416T
474.315	1.617	490290	WORD	n/a	wordpools/wordpool_long_EN.txt	BENCH	9	2	[0, 0, 0]	n/a	FR1	0	R1416T
475.932	0.782	491913	WORD_OFF	n/a	n/a	BENCH	9	2	[0, 0, 0]	n/a	FR1	0	R1416T
476.714	1.617	492701	WORD	n/a	wordpools/wordpool_long_EN.txt	TREE	10	2	[0, 0, 0]	n/a	FR1	0	R1416T
478.331	0.85	494309	WORD_OFF	n/a	n/a	TREE	10	2	[0, 0, 0]	n/a	FR1	0	R1416T
479.181	1.6	495169	WORD	n/a	wordpools/wordpool_long_EN.txt	SPOUSE	11	2	[0, 0, 0]	n/a	FR1	0	R1416T
480.781	0.767	496751	WORD_OFF	n/a	n/a	SPOUSE	11	2	[0, 0, 0]	n/a	FR1	0	R1416T
481.548	1.617	497534	WORD	n/a	wordpools/wordpool_long_EN.txt	FARM	12	2	[0, 0, 0]	n/a	FR1	0	R1416T
483.165	0.001	499142	WORD_OFF	n/a	n/a	FARM	12	2	[0, 0, 0]	n/a	FR1	0	R1416T
483.166	0.0	499142	ENCODING_END	n/a	n/a	n/a	-999	2	[0, 0, 0]	n/a	FR1	0	R1416T
483.166	0.0	499142	DISTRACT_START	n/a	n/a	n/a	-999	2	[0, 0, 0]	n/a	FR1	0	R1416T
483.166	0.0	499145	START	n/a	n/a	n/a	-999	2	[-999, -999, -999]	n/a	FR1	0	R1416T
483.166	5.883	499145	PROB	5.883	n/a	n/a	-999	2	[3, 2, 7]	13	FR1	0	R1416T
489.049	9.383	505028	PROB	9.383	n/a	n/a	-999	2	[2, 6, 4]	12	FR1	0	R1416T
498.432	11.149	514410	PROB	11.149	n/a	n/a	-999	2	[8, 8, 2]	18	FR1	0	R1416T
509.581	0.0	525559	STOP	n/a	n/a	n/a	-999	2	[-999, -999, -999]	n/a	FR1	0	R1416T
509.581	2.267	525564	DISTRACT_END	n/a	n/a	n/a	-999	2	[0, 0, 0]	n/a	FR1	0	R1416T
511.848	2.556	527816	REC_START	n/a	n/a	n/a	-999	2	[0, 0, 0]	n/a	FR1	0	R1416T
514.404	1.419	530382	REC_WORD	1.419	n/a	SMOKE	1	2	[0, 0, 0]	n/a	FR1	0	R1416T
515.823	2.063	531800	REC_WORD	2.063	n/a	BOMB	2	2	[0, 0, 0]	n/a	FR1	0	R1416T
517.886	1.209	533863	REC_WORD	1.209	n/a	TREE	10	2	[0, 0, 0]	n/a	FR1	0	R1416T
519.095	2.115	535072	REC_WORD	2.115	n/a	HOUSE	-999	2	[0, 0, 0]	n/a	FR1	0	R1416T
521.21	3.818	537187	REC_WORD	3.818	n/a	PURSE	-999	2	[0, 0, 0]	n/a	FR1	0	R1416T
525.028	4.463	541005	REC_WORD	4.463	n/a	LIFE	-999	2	[0, 0, 0]	n/a	FR1	0	R1416T
529.491	9.847	545468	REC_WORD_VV	9.847	n/a	<>	-999	2	[0, 0, 0]	n/a	FR1	0	R1416T
539.338	0.5	555314	REC_WORD_VV	0.5	n/a	<>	-999	2	[0, 0, 0]	n/a	FR1	0	R1416T
539.838	0.5	555814	REC_WORD_VV	0.5	n/a	<>	-999	2	[0, 0, 0]	n/a	FR1	0	R1416T
540.338	1.742	556314	REC_WORD_VV	1.742	n/a	<>	-999	2	[0, 0, 0]	n/a	FR1	0	R1416T
542.08	4.202	558051	REC_END	n/a	n/a	n/a	-999	2	[0, 0, 0]	n/a	FR1	0	R1416T
546.282	10.35	562268	COUNTDOWN_START	n/a	n/a	n/a	-999	3	[0, 0, 0]	n/a	FR1	0	R1416T
556.632	0.0	572601	COUNTDOWN_END	n/a	n/a	n/a	-999	3	[0, 0, 0]	n/a	FR1	0	R1416T
556.632	2.183	572601	ENCODING_START	n/a	n/a	n/a	-999	3	[0, 0, 0]	n/a	FR1	0	R1416T
558.815	1.6	574788	WORD	n/a	wordpools/wordpool_long_EN.txt	WOLF	1	3	[0, 0, 0]	n/a	FR1	0	R1416T
560.415	0.967	576391	WORD_OFF	n/a	n/a	WOLF	1	3	[0, 0, 0]	n/a	FR1	0	R1416T
561.382	1.616	577357	WORD	n/a	wordpools/wordpool_long_EN.txt	FRAME	2	3	[0, 0, 0]	n/a	FR1	0	R1416T
562.998	0.917	578980	WORD_OFF	n/a	n/a	FRAME	2	3	[0, 0, 0]	n/a	FR1	0	R1416T
563.915	1.6	579895	WORD	n/a	wordpools/wordpool_long_EN.txt	FENCE	3	3	[0, 0, 0]	n/a	FR1	0	R1416T
565.515	0.916	581498	WORD_OFF	n/a	n/a	FENCE	3	3	[0, 0, 0]	n/a	FR1	0	R1416T
566.431	1.6	582419	WORD	n/a	wordpools/wordpool_long_EN.txt	HILL	4	3	[0, 0, 0]	n/a	FR1	0	R1416T
568.031	0.901	583996	WORD_OFF	n/a	n/a	HILL	4	3	[0, 0, 0]	n/a	FR1	0	R1416T
568.932	1.599	584912	WORD	n/a	wordpools/wordpool_long_EN.txt	RIB	5	3	[0, 0, 0]	n/a	FR1	0	R1416T
570.531	0.933	586514	WORD_OFF	n/a	n/a	RIB	5	3	[0, 0, 0]	n/a	FR1	0	R1416T
571.464	1.6	587430	WORD	n/a	wordpools/wordpool_long_EN.txt	KEY	6	3	[0, 0, 0]	n/a	FR1	0	R1416T
573.064	0.766	589032	WORD_OFF	n/a	n/a	KEY	6	3	[0, 0, 0]	n/a	FR1	0	R1416T
573.83	1.602	589795	WORD	n/a	wordpools/wordpool_long_EN.txt	WEB	7	3	[0, 0, 0]	n/a	FR1	0	R1416T
575.432	0.949	591398	WORD_OFF	n/a	n/a	WEB	7	3	[0, 0, 0]	n/a	FR1	0	R1416T
576.381	1.6	592364	WORD	n/a	wordpools/wordpool_long_EN.txt	PAIL	8	3	[0, 0, 0]	n/a	FR1	0	R1416T
577.981	0.834	593961	WORD_OFF	n/a	n/a	PAIL	8	3	[0, 0, 0]	n/a	FR1	0	R1416T
578.815	1.616	594781	WORD	n/a	wordpools/wordpool_long_EN.txt	RICE	9	3	[0, 0, 0]	n/a	FR1	0	R1416T
580.431	0.95	596409	WORD_OFF	n/a	n/a	RICE	9	3	[0, 0, 0]	n/a	FR1	0	R1416T
581.381	1.617	597350	WORD	n/a	wordpools/wordpool_long_EN.txt	TOAD	10	3	[0, 0, 0]	n/a	FR1	0	R1416T
582.998	0.8	598978	WORD_OFF	n/a	n/a	TOAD	10	3	[0, 0, 0]	n/a	FR1	0	R1416T
583.798	1.617	599766	WORD	n/a	wordpools/wordpool_long_EN.txt	CHILD	11	3	[0, 0, 0]	n/a	FR1	0	R1416T
585.415	0.85	601394	WORD_OFF	n/a	n/a	CHILD	11	3	[0, 0, 0]	n/a	FR1	0	R1416T
586.265	1.6	602233	WORD	n/a	wordpools/wordpool_long_EN.txt	TENT	12	3	[0, 0, 0]	n/a	FR1	0	R1416T
587.865	0.001	603836	WORD_OFF	n/a	n/a	TENT	12	3	[0, 0, 0]	n/a	FR1	0	R1416T
587.866	0.0	603836	ENCODING_END	n/a	n/a	n/a	-999	3	[0, 0, 0]	n/a	FR1	0	R1416T
587.866	0.0	603836	DISTRACT_START	n/a	n/a	n/a	-999	3	[0, 0, 0]	n/a	FR1	0	R1416T
587.865	0.001	603839	PROB	0.001	n/a	n/a	-999	3	[3, 7, 2]	12	FR1	0	R1416T
587.866	4.532	603840	START	n/a	n/a	n/a	-999	3	[-999, -999, -999]	n/a	FR1	0	R1416T
592.398	3.45	608371	PROB	3.45	n/a	n/a	-999	3	[1, 7, 1]	9	FR1	0	R1416T
595.848	4.517	611821	PROB	4.517	n/a	n/a	-999	3	[3, 1, 8]	12	FR1	0	R1416T
600.365	8.734	616338	PROB	8.734	n/a	n/a	-999	3	[8, 6, 3]	17	FR1	0	R1416T
609.099	0.0	625072	STOP	n/a	n/a	n/a	-999	3	[-999, -999, -999]	n/a	FR1	0	R1416T
609.099	2.248	625075	DISTRACT_END	n/a	n/a	n/a	-999	3	[0, 0, 0]	n/a	FR1	0	R1416T
611.347	3.208	627321	REC_START	n/a	n/a	n/a	-999	3	[0, 0, 0]	n/a	FR1	0	R1416T
614.555	1.487	630527	REC_WORD	1.487	n/a	WOLF	1	3	[0, 0, 0]	n/a	FR1	0	R1416T
616.042	1.965	632014	REC_WORD	1.965	n/a	FRAME	2	3	[0, 0, 0]	n/a	FR1	0	R1416T
618.007	3.823	633979	REC_WORD	3.823	n/a	PRINCE	-999	3	[0, 0, 0]	n/a	FR1	0	R1416T
621.83	5.151	637802	REC_WORD	5.151	n/a	STILL	-999	3	[0, 0, 0]	n/a	FR1	0	R1416T
626.981	5.173	642953	REC_WORD	5.173	n/a	HILL	4	3	[0, 0, 0]	n/a	FR1	0	R1416T
632.154	4.804	648125	REC_WORD_VV	4.804	n/a	<>	-999	3	[0, 0, 0]	n/a	FR1	0	R1416T
636.958	0.5	652929	REC_WORD_VV	0.5	n/a	<>	-999	3	[0, 0, 0]	n/a	FR1	0	R1416T
637.458	0.5	653429	REC_WORD_VV	0.5	n/a	<>	-999	3	[0, 0, 0]	n/a	FR1	0	R1416T
637.958	2.515	653929	REC_WORD_VV	2.515	n/a	<>	-999	3	[0, 0, 0]	n/a	FR1	0	R1416T
640.473	1.118	656444	REC_WORD	1.118	n/a	WEB	7	3	[0, 0, 0]	n/a	FR1	0	R1416T
641.591	8.624	657557	REC_END	n/a	n/a	n/a	-999	3	[0, 0, 0]	n/a	FR1	0	R1416T
650.215	10.351	666179	COUNTDOWN_START	n/a	n/a	n/a	-999	4	[0, 0, 0]	n/a	FR1	0	R1416T
660.566	0.0	676532	COUNTDOWN_END	n/a	n/a	n/a	-999	4	[0, 0, 0]	n/a	FR1	0	R1416T
660.566	2.165	676532	ENCODING_START	n/a	n/a	n/a	-999	4	[0, 0, 0]	n/a	FR1	0	R1416T
662.731	1.6	678694	WORD	n/a	wordpools/wordpool_long_EN.txt	MOON	1	4	[0, 0, 0]	n/a	FR1	0	R1416T
664.331	0.984	680296	WORD_OFF	n/a	n/a	MOON	1	4	[0, 0, 0]	n/a	FR1	0	R1416T
665.315	1.6	681288	WORD	n/a	wordpools/wordpool_long_EN.txt	CRANE	2	4	[0, 0, 0]	n/a	FR1	0	R1416T
666.915	0.85	682891	WORD_OFF	n/a	n/a	CRANE	2	4	[0, 0, 0]	n/a	FR1	0	R1416T
667.765	1.6	683730	WORD	n/a	wordpools/wordpool_long_EN.txt	TART	3	4	[0, 0, 0]	n/a	FR1	0	R1416T
669.365	0.766	685332	WORD_OFF	n/a	n/a	TART	3	4	[0, 0, 0]	n/a	FR1	0	R1416T
670.131	1.617	686095	WORD	n/a	wordpools/wordpool_long_EN.txt	BUG	4	4	[0, 0, 0]	n/a	FR1	0	R1416T
671.748	0.8	687723	WORD_OFF	n/a	n/a	BUG	4	4	[0, 0, 0]	n/a	FR1	0	R1416T
672.548	1.617	688512	WORD	n/a	wordpools/wordpool_long_EN.txt	QUAIL	5	4	[0, 0, 0]	n/a	FR1	0	R1416T
674.165	0.799	690140	WORD_OFF	n/a	n/a	QUAIL	5	4	[0, 0, 0]	n/a	FR1	0	R1416T
674.964	1.601	690928	WORD	n/a	wordpools/wordpool_long_EN.txt	PLATE	6	4	[0, 0, 0]	n/a	FR1	0	R1416T
676.565	0.899	692531	WORD_OFF	n/a	n/a	PLATE	6	4	[0, 0, 0]	n/a	FR1	0	R1416T
677.464	1.6	693441	WORD	n/a	wordpools/wordpool_long_EN.txt	TOY	7	4	[0, 0, 0]	n/a	FR1	0	R1416T
679.064	0.884	695023	WORD_OFF	n/a	n/a	TOY	7	4	[0, 0, 0]	n/a	FR1	0	R1416T
679.948	1.6	695914	WORD	n/a	wordpools/wordpool_long_EN.txt	ZOO	8	4	[0, 0, 0]	n/a	FR1	0	R1416T
681.548	1.001	697516	WORD_OFF	n/a	n/a	ZOO	8	4	[0, 0, 0]	n/a	FR1	0	R1416T
682.549	1.616	698508	WORD	n/a	wordpools/wordpool_long_EN.txt	COD	9	4	[0, 0, 0]	n/a	FR1	0	R1416T
684.165	0.883	700136	WORD_OFF	n/a	n/a	COD	9	4	[0, 0, 0]	n/a	FR1	0	R1416T
685.048	1.6	701021	WORD	n/a	wordpools/wordpool_long_EN.txt	RUST	10	4	[0, 0, 0]	n/a	FR1	0	R1416T
686.648	0.934	702623	WORD_OFF	n/a	n/a	RUST	10	4	[0, 0, 0]	n/a	FR1	0	R1416T
687.582	1.599	703545	WORD	n/a	wordpools/wordpool_long_EN.txt	SOUP	11	4	[0, 0, 0]	n/a	FR1	0	R1416T
689.181	0.967	705147	WORD_OFF	n/a	n/a	SOUP	11	4	[0, 0, 0]	n/a	FR1	0	R1416T
690.148	1.617	706114	WORD	n/a	wordpools/wordpool_long_EN.txt	RAFT	12	4	[0, 0, 0]	n/a	FR1	0	R1416T
691.765	0.001	707733	PROB	0.001	n/a	n/a	-999	4	[5, 3, 6]	14	FR1	0	R1416T
691.766	0.0	707734	START	n/a	n/a	n/a	-999	4	[-999, -999, -999]	n/a	FR1	0	R1416T
691.765	0.001	707741	WORD_OFF	n/a	n/a	RAFT	12	4	[0, 0, 0]	n/a	FR1	0	R1416T
691.766	0.0	707741	ENCODING_END	n/a	n/a	n/a	-999	4	[0, 0, 0]	n/a	FR1	0	R1416T
691.766	9.516	707741	DISTRACT_START	n/a	n/a	n/a	-999	4	[0, 0, 0]	n/a	FR1	0	R1416T
701.282	7.649	717250	PROB	7.649	n/a	n/a	-999	4	[4, 5, 6]	15	FR1	0	R1416T
708.931	14.267	724898	PROB	14.267	n/a	n/a	-999	4	[6, 8, 1]	15	FR1	0	R1416T
723.198	0.0	739155	DISTRACT_END	n/a	n/a	n/a	-999	4	[0, 0, 0]	n/a	FR1	0	R1416T
723.198	2.249	739165	STOP	n/a	n/a	n/a	-999	4	[-999, -999, -999]	n/a	FR1	0	R1416T
725.447	1.837	741421	REC_START	n/a	n/a	n/a	-999	4	[0, 0, 0]	n/a	FR1	0	R1416T
727.284	1.178	743250	REC_WORD	1.178	n/a	MOON	1	4	[0, 0, 0]	n/a	FR1	0	R1416T
728.462	1.469	744428	REC_WORD	1.469	n/a	CRANE	2	4	[0, 0, 0]	n/a	FR1	0	R1416T
729.931	11.512	745897	REC_WORD	11.512	n/a	STILL	-999	4	[0, 0, 0]	n/a	FR1	0	R1416T
741.443	14.231	757409	REC_WORD_VV	14.231	n/a	<>	-999	4	[0, 0, 0]	n/a	FR1	0	R1416T
755.674	17.058	771636	REC_END	n/a	n/a	n/a	-999	4	[0, 0, 0]	n/a	FR1	0	R1416T
772.732	10.349	788704	COUNTDOWN_START	n/a	n/a	n/a	-999	5	[0, 0, 0]	n/a	FR1	0	R1416T
783.081	0.001	799056	COUNTDOWN_END	n/a	n/a	n/a	-999	5	[0, 0, 0]	n/a	FR1	0	R1416T
783.082	2.315	799056	ENCODING_START	n/a	n/a	n/a	-999	5	[0, 0, 0]	n/a	FR1	0	R1416T
785.397	1.601	801365	WORD	n/a	wordpools/wordpool_long_EN.txt	CLAM	1	5	[0, 0, 0]	n/a	FR1	0	R1416T
786.998	0.85	802968	WORD_OFF	n/a	n/a	CLAM	1	5	[0, 0, 0]	n/a	FR1	0	R1416T
787.848	1.6	803813	WORD	n/a	wordpools/wordpool_long_EN.txt	CUBE	2	5	[0, 0, 0]	n/a	FR1	0	R1416T
789.448	0.95	805415	WORD_OFF	n/a	n/a	CUBE	2	5	[0, 0, 0]	n/a	FR1	0	R1416T
790.398	1.6	806356	WORD	n/a	wordpools/wordpool_long_EN.txt	GIRL	3	5	[0, 0, 0]	n/a	FR1	0	R1416T
791.998	0.817	807959	WORD_OFF	n/a	n/a	GIRL	3	5	[0, 0, 0]	n/a	FR1	0	R1416T
792.815	1.6	808773	WORD	n/a	wordpools/wordpool_long_EN.txt	FLASK	4	5	[0, 0, 0]	n/a	FR1	0	R1416T
794.415	0.816	810375	WORD_OFF	n/a	n/a	FLASK	4	5	[0, 0, 0]	n/a	FR1	0	R1416T
795.231	1.617	811189	WORD	n/a	wordpools/wordpool_long_EN.txt	SPEAR	5	5	[0, 0, 0]	n/a	FR1	0	R1416T
796.848	0.983	812817	WORD_OFF	n/a	n/a	SPEAR	5	5	[0, 0, 0]	n/a	FR1	0	R1416T
797.831	1.6	813783	WORD	n/a	wordpools/wordpool_long_EN.txt	WAND	6	5	[0, 0, 0]	n/a	FR1	0	R1416T
799.431	0.816	815386	WORD_OFF	n/a	n/a	WAND	6	5	[0, 0, 0]	n/a	FR1	0	R1416T
800.247	1.601	816200	WORD	n/a	wordpools/wordpool_long_EN.txt	SKUNK	7	5	[0, 0, 0]	n/a	FR1	0	R1416T
801.848	0.834	817802	WORD_OFF	n/a	n/a	SKUNK	7	5	[0, 0, 0]	n/a	FR1	0	R1416T
802.682	1.599	818642	WORD	n/a	wordpools/wordpool_long_EN.txt	POOL	8	5	[0, 0, 0]	n/a	FR1	0	R1416T
804.281	0.916	820244	WORD_OFF	n/a	n/a	POOL	8	5	[0, 0, 0]	n/a	FR1	0	R1416T
805.197	1.601	821160	WORD	n/a	wordpools/wordpool_long_EN.txt	DIME	9	5	[0, 0, 0]	n/a	FR1	0	R1416T
806.798	0.85	822762	WORD_OFF	n/a	n/a	DIME	9	5	[0, 0, 0]	n/a	FR1	0	R1416T
807.648	1.616	823602	WORD	n/a	wordpools/wordpool_long_EN.txt	FORT	10	5	[0, 0, 0]	n/a	FR1	0	R1416T
809.264	0.816	825230	WORD_OFF	n/a	n/a	FORT	10	5	[0, 0, 0]	n/a	FR1	0	R1416T
810.08	1.601	826044	WORD	n/a	wordpools/wordpool_long_EN.txt	BAG	11	5	[0, 0, 0]	n/a	FR1	0	R1416T
811.681	0.85	827646	WORD_OFF	n/a	n/a	BAG	11	5	[0, 0, 0]	n/a	FR1	0	R1416T
812.531	1.6	828485	WORD	n/a	wordpools/wordpool_long_EN.txt	WORM	12	5	[0, 0, 0]	n/a	FR1	0	R1416T
814.131	0.001	830088	WORD_OFF	n/a	n/a	WORM	12	5	[0, 0, 0]	n/a	FR1	0	R1416T
814.132	0.0	830088	ENCODING_END	n/a	n/a	n/a	-999	5	[0, 0, 0]	n/a	FR1	0	R1416T
814.132	0.0	830088	DISTRACT_START	n/a	n/a	n/a	-999	5	[0, 0, 0]	n/a	FR1	0	R1416T
814.131	0.001	830093	PROB	0.001	n/a	n/a	-999	5	[4, 4, 4]	12	FR1	0	R1416T
814.132	4.883	830094	START	n/a	n/a	n/a	-999	5	[-999, -999, -999]	n/a	FR1	0	R1416T
819.015	4.083	834976	PROB	4.083	n/a	n/a	-999	5	[3, 3, 2]	8	FR1	0	R1416T
823.098	8.283	839059	PROB	8.283	n/a	n/a	-999	5	[4, 5, 4]	13	FR1	0	R1416T
831.381	9.934	847342	PROB	9.934	n/a	n/a	-999	5	[2, 3, 8]	13	FR1	0	R1416T
841.315	0.0	857275	STOP	n/a	n/a	n/a	-999	5	[-999, -999, -999]	n/a	FR1	0	R1416T
841.315	2.083	857279	DISTRACT_END	n/a	n/a	n/a	-999	5	[0, 0, 0]	n/a	FR1	0	R1416T
843.398	2.468	859367	REC_START	n/a	n/a	n/a	-999	5	[0, 0, 0]	n/a	FR1	0	R1416T
845.866	1.631	861826	REC_WORD	1.631	n/a	CLAM	1	5	[0, 0, 0]	n/a	FR1	0	R1416T
847.497	2.177	863457	REC_WORD	2.177	n/a	CUBE	2	5	[0, 0, 0]	n/a	FR1	0	R1416T
849.674	1.048	865634	REC_WORD	1.048	n/a	GIRL	3	5	[0, 0, 0]	n/a	FR1	0	R1416T
850.722	0.727	866682	REC_WORD	0.727	n/a	SHED	-999	5	[0, 0, 0]	n/a	FR1	0	R1416T
851.449	22.201	867409	REC_WORD	22.201	n/a	STINK	-999	5	[0, 0, 0]	n/a	FR1	0	R1416T
873.65	28.415	889608	REC_END	n/a	n/a	n/a	-999	5	[0, 0, 0]	n/a	FR1	0	R1416T
902.065	10.35	918020	COUNTDOWN_START	n/a	n/a	n/a	-999	6	[0, 0, 0]	n/a	FR1	0	R1416T
912.415	0.0	928372	COUNTDOWN_END	n/a	n/a	n/a	-999	6	[0, 0, 0]	n/a	FR1	0	R1416T
912.415	2.016	928372	ENCODING_START	n/a	n/a	n/a	-999	6	[0, 0, 0]	n/a	FR1	0	R1416T
914.431	1.6	930381	WORD	n/a	wordpools/wordpool_long_EN.txt	CHALK	1	6	[0, 0, 0]	n/a	FR1	0	R1416T
916.031	0.9	931984	WORD_OFF	n/a	n/a	CHALK	1	6	[0, 0, 0]	n/a	FR1	0	R1416T
916.931	1.6	932894	WORD	n/a	wordpools/wordpool_long_EN.txt	TIE	2	6	[0, 0, 0]	n/a	FR1	0	R1416T
918.531	0.866	934477	WORD_OFF	n/a	n/a	TIE	2	6	[0, 0, 0]	n/a	FR1	0	R1416T
919.397	1.6	935361	WORD	n/a	wordpools/wordpool_long_EN.txt	TOOL	3	6	[0, 0, 0]	n/a	FR1	0	R1416T
920.997	0.784	936944	WORD_OFF	n/a	n/a	TOOL	3	6	[0, 0, 0]	n/a	FR1	0	R1416T
921.781	1.616	937732	WORD	n/a	wordpools/wordpool_long_EN.txt	LUNCH	4	6	[0, 0, 0]	n/a	FR1	0	R1416T
923.397	0.834	939360	WORD_OFF	n/a	n/a	LUNCH	4	6	[0, 0, 0]	n/a	FR1	0	R1416T
924.231	1.6	940194	WORD	n/a	wordpools/wordpool_long_EN.txt	CLOTH	5	6	[0, 0, 0]	n/a	FR1	0	R1416T
925.831	0.983	941777	WORD_OFF	n/a	n/a	CLOTH	5	6	[0, 0, 0]	n/a	FR1	0	R1416T
926.814	1.6	942769	WORD	n/a	wordpools/wordpool_long_EN.txt	MAT	6	6	[0, 0, 0]	n/a	FR1	0	R1416T
928.414	0.983	944371	WORD_OFF	n/a	n/a	MAT	6	6	[0, 0, 0]	n/a	FR1	0	R1416T
929.397	1.617	945363	WORD	n/a	wordpools/wordpool_long_EN.txt	CAPE	7	6	[0, 0, 0]	n/a	FR1	0	R1416T
931.014	0.983	946966	WORD_OFF	n/a	n/a	CAPE	7	6	[0, 0, 0]	n/a	FR1	0	R1416T
931.997	1.601	947958	WORD	n/a	wordpools/wordpool_long_EN.txt	BLADE	8	6	[0, 0, 0]	n/a	FR1	0	R1416T
933.598	0.882	949560	WORD_OFF	n/a	n/a	BLADE	8	6	[0, 0, 0]	n/a	FR1	0	R1416T
934.48	1.601	950445	WORD	n/a	wordpools/wordpool_long_EN.txt	JET	9	6	[0, 0, 0]	n/a	FR1	0	R1416T
936.081	1.0	952027	WORD_OFF	n/a	n/a	JET	9	6	[0, 0, 0]	n/a	FR1	0	R1416T
937.081	1.601	953039	WORD	n/a	wordpools/wordpool_long_EN.txt	SNAKE	10	6	[0, 0, 0]	n/a	FR1	0	R1416T
938.682	0.883	954642	WORD_OFF	n/a	n/a	SNAKE	10	6	[0, 0, 0]	n/a	FR1	0	R1416T
939.565	1.6	955512	WORD	n/a	wordpools/wordpool_long_EN.txt	BEAK	11	6	[0, 0, 0]	n/a	FR1	0	R1416T
941.165	0.967	957115	WORD_OFF	n/a	n/a	BEAK	11	6	[0, 0, 0]	n/a	FR1	0	R1416T
942.132	1.617	958081	WORD	n/a	wordpools/wordpool_long_EN.txt	ROD	12	6	[0, 0, 0]	n/a	FR1	0	R1416T
943.749	0.001	959704	PROB	0.001	n/a	n/a	-999	6	[7, 1, 3]	11	FR1	0	R1416T
943.75	0.0	959705	START	n/a	n/a	n/a	-999	6	[-999, -999, -999]	n/a	FR1	0	R1416T
943.748	0.002	959709	WORD_OFF	n/a	n/a	ROD	12	6	[0, 0, 0]	n/a	FR1	0	R1416T
943.75	0.0	959709	ENCODING_END	n/a	n/a	n/a	-999	6	[0, 0, 0]	n/a	FR1	0	R1416T
943.75	8.032	959709	DISTRACT_START	n/a	n/a	n/a	-999	6	[0, 0, 0]	n/a	FR1	0	R1416T
951.782	16.016	967736	PROB	16.016	n/a	n/a	-999	6	[8, 5, 7]	20	FR1	0	R1416T
967.798	0.0	983746	DISTRACT_END	n/a	n/a	n/a	-999	6	[0, 0, 0]	n/a	FR1	0	R1416T
967.798	2.25	983752	STOP	n/a	n/a	n/a	-999	6	[-999, -999, -999]	n/a	FR1	0	R1416T
970.048	4.808	985992	REC_START	n/a	n/a	n/a	-999	6	[0, 0, 0]	n/a	FR1	0	R1416T
974.856	2.181	990809	REC_WORD	2.181	n/a	CHALK	1	6	[0, 0, 0]	n/a	FR1	0	R1416T
977.037	0.618	992990	REC_WORD	0.618	n/a	TIE	2	6	[0, 0, 0]	n/a	FR1	0	R1416T
977.655	4.707	993608	REC_WORD	4.707	n/a	CUBE	-999	6	[0, 0, 0]	n/a	FR1	0	R1416T
982.362	14.916	998315	REC_WORD	14.916	n/a	SOCK	-999	6	[0, 0, 0]	n/a	FR1	0	R1416T
997.278	0.5	1013230	REC_WORD_VV	0.5	n/a	<>	-999	6	[0, 0, 0]	n/a	FR1	0	R1416T
997.778	0.5	1013730	REC_WORD_VV	0.5	n/a	<>	-999	6	[0, 0, 0]	n/a	FR1	0	R1416T
998.278	0.5	1014230	REC_WORD_VV	0.5	n/a	<>	-999	6	[0, 0, 0]	n/a	FR1	0	R1416T
998.778	1.502	1014730	REC_WORD_VV	1.502	n/a	<>	-999	6	[0, 0, 0]	n/a	FR1	0	R1416T
1000.28	11.835	1016227	REC_END	n/a	n/a	n/a	-999	6	[0, 0, 0]	n/a	FR1	0	R1416T
1012.115	10.351	1028081	COUNTDOWN_START	n/a	n/a	n/a	-999	7	[0, 0, 0]	n/a	FR1	0	R1416T
1022.466	0.0	1038407	COUNTDOWN_END	n/a	n/a	n/a	-999	7	[0, 0, 0]	n/a	FR1	0	R1416T
1022.466	2.298	1038407	ENCODING_START	n/a	n/a	n/a	-999	7	[0, 0, 0]	n/a	FR1	0	R1416T
1024.764	1.601	1040722	WORD	n/a	wordpools/wordpool_long_EN.txt	SEED	1	7	[0, 0, 0]	n/a	FR1	0	R1416T
1026.365	0.883	1042325	WORD_OFF	n/a	n/a	SEED	1	7	[0, 0, 0]	n/a	FR1	0	R1416T
1027.248	1.616	1043189	WORD	n/a	wordpools/wordpool_long_EN.txt	GIFT	2	7	[0, 0, 0]	n/a	FR1	0	R1416T
1028.864	0.951	1044817	WORD_OFF	n/a	n/a	GIFT	2	7	[0, 0, 0]	n/a	FR1	0	R1416T
1029.815	1.601	1045758	WORD	n/a	wordpools/wordpool_long_EN.txt	TWIG	3	7	[0, 0, 0]	n/a	FR1	0	R1416T
1031.416	0.931	1047361	WORD_OFF	n/a	n/a	TWIG	3	7	[0, 0, 0]	n/a	FR1	0	R1416T
1032.347	1.601	1048302	WORD	n/a	wordpools/wordpool_long_EN.txt	FLAME	4	7	[0, 0, 0]	n/a	FR1	0	R1416T
1033.948	0.966	1049905	WORD_OFF	n/a	n/a	FLAME	4	7	[0, 0, 0]	n/a	FR1	0	R1416T
1034.914	1.6	1050871	WORD	n/a	wordpools/wordpool_long_EN.txt	OX	5	7	[0, 0, 0]	n/a	FR1	0	R1416T
1036.514	0.884	1052474	WORD_OFF	n/a	n/a	OX	5	7	[0, 0, 0]	n/a	FR1	0	R1416T
1037.398	1.616	1053338	WORD	n/a	wordpools/wordpool_long_EN.txt	POLE	6	7	[0, 0, 0]	n/a	FR1	0	R1416T
1039.014	0.9	1054966	WORD_OFF	n/a	n/a	POLE	6	7	[0, 0, 0]	n/a	FR1	0	R1416T
1039.914	1.601	1055857	WORD	n/a	wordpools/wordpool_long_EN.txt	CLOCK	7	7	[0, 0, 0]	n/a	FR1	0	R1416T
1041.515	0.916	1057459	WORD_OFF	n/a	n/a	CLOCK	7	7	[0, 0, 0]	n/a	FR1	0	R1416T
1042.431	1.6	1058375	WORD	n/a	wordpools/wordpool_long_EN.txt	HAT	8	7	[0, 0, 0]	n/a	FR1	0	R1416T
1044.031	0.85	1059977	WORD_OFF	n/a	n/a	HAT	8	7	[0, 0, 0]	n/a	FR1	0	R1416T
1044.881	1.6	1060837	WORD	n/a	wordpools/wordpool_long_EN.txt	SCARF	9	7	[0, 0, 0]	n/a	FR1	0	R1416T
1046.481	0.95	1062439	WORD_OFF	n/a	n/a	SCARF	9	7	[0, 0, 0]	n/a	FR1	0	R1416T
1047.431	1.6	1063386	WORD	n/a	wordpools/wordpool_long_EN.txt	YACHT	10	7	[0, 0, 0]	n/a	FR1	0	R1416T
1049.031	0.984	1064988	WORD_OFF	n/a	n/a	YACHT	10	7	[0, 0, 0]	n/a	FR1	0	R1416T
1050.015	1.615	1065955	WORD	n/a	wordpools/wordpool_long_EN.txt	GATE	11	7	[0, 0, 0]	n/a	FR1	0	R1416T
1051.63	0.801	1067582	WORD_OFF	n/a	n/a	GATE	11	7	[0, 0, 0]	n/a	FR1	0	R1416T
1052.431	1.601	1068371	WORD	n/a	wordpools/wordpool_long_EN.txt	YARD	12	7	[0, 0, 0]	n/a	FR1	0	R1416T
1054.032	0.001	1069981	PROB	0.001	n/a	n/a	-999	7	[1, 5, 8]	14	FR1	0	R1416T
1054.033	0.0	1069982	START	n/a	n/a	n/a	-999	7	[-999, -999, -999]	n/a	FR1	0	R1416T
1054.031	0.002	1069993	WORD_OFF	n/a	n/a	YARD	12	7	[0, 0, 0]	n/a	FR1	0	R1416T
1054.033	0.0	1069999	ENCODING_END	n/a	n/a	n/a	-999	7	[0, 0, 0]	n/a	FR1	0	R1416T
1054.033	8.799	1069999	DISTRACT_START	n/a	n/a	n/a	-999	7	[0, 0, 0]	n/a	FR1	0	R1416T
1062.832	5.566	1078781	PROB	5.566	n/a	n/a	-999	7	[4, 1, 6]	11	FR1	0	R1416T
1068.398	5.4	1084346	PROB	5.4	n/a	n/a	-999	7	[3, 4, 7]	14	FR1	0	R1416T
1073.798	5.834	1089746	PROB	5.834	n/a	n/a	-999	7	[7, 7, 2]	16	FR1	0	R1416T
1079.632	0.0	1095580	STOP	n/a	n/a	n/a	-999	7	[-999, -999, -999]	n/a	FR1	0	R1416T
1079.632	2.133	1095587	DISTRACT_END	n/a	n/a	n/a	-999	7	[0, 0, 0]	n/a	FR1	0	R1416T
1081.765	1.79	1097706	REC_START	n/a	n/a	n/a	-999	7	[0, 0, 0]	n/a	FR1	0	R1416T
1083.555	2.024	1099503	REC_WORD	2.024	n/a	GIFT	2	7	[0, 0, 0]	n/a	FR1	0	R1416T
1085.579	1.878	1101527	REC_WORD	1.878	n/a	WEED	-999	7	[0, 0, 0]	n/a	FR1	0	R1416T
1087.457	1.604	1103404	REC_WORD	1.604	n/a	GIRL	-999	7	[0, 0, 0]	n/a	FR1	0	R1416T
1089.061	22.951	1105008	REC_WORD	22.951	n/a	SHOP	-999	7	[0, 0, 0]	n/a	FR1	0	R1416T
1112.012	8.386	1127967	REC_END	n/a	n/a	n/a	-999	7	[0, 0, 0]	n/a	FR1	0	R1416T
1120.398	10.35	1136336	COUNTDOWN_START	n/a	n/a	n/a	-999	8	[0, 0, 0]	n/a	FR1	0	R1416T
1130.748	0.0	1146688	COUNTDOWN_END	n/a	n/a	n/a	-999	8	[0, 0, 0]	n/a	FR1	0	R1416T
1130.748	2.166	1146688	ENCODING_START	n/a	n/a	n/a	-999	8	[0, 0, 0]	n/a	FR1	0	R1416T
1132.914	1.6	1148850	WORD	n/a	wordpools/wordpool_long_EN.txt	STAKE	1	8	[0, 0, 0]	n/a	FR1	0	R1416T
1134.514	0.816	1150452	WORD_OFF	n/a	n/a	STAKE	1	8	[0, 0, 0]	n/a	FR1	0	R1416T
1135.33	1.601	1151266	WORD	n/a	wordpools/wordpool_long_EN.txt	HUT	2	8	[0, 0, 0]	n/a	FR1	0	R1416T
1136.931	0.983	1152869	WORD_OFF	n/a	n/a	HUT	2	8	[0, 0, 0]	n/a	FR1	0	R1416T
1137.914	1.6	1153861	WORD	n/a	wordpools/wordpool_long_EN.txt	STEAM	3	8	[0, 0, 0]	n/a	FR1	0	R1416T
1139.514	0.784	1155463	WORD_OFF	n/a	n/a	STEAM	3	8	[0, 0, 0]	n/a	FR1	0	R1416T
1140.298	1.617	1156252	WORD	n/a	wordpools/wordpool_long_EN.txt	MAZE	4	8	[0, 0, 0]	n/a	FR1	0	R1416T
1141.915	0.8	1157854	WORD_OFF	n/a	n/a	MAZE	4	8	[0, 0, 0]	n/a	FR1	0	R1416T
1142.715	1.601	1158668	WORD	n/a	wordpools/wordpool_long_EN.txt	HOUND	5	8	[0, 0, 0]	n/a	FR1	0	R1416T
1144.316	0.782	1160271	WORD_OFF	n/a	n/a	HOUND	5	8	[0, 0, 0]	n/a	FR1	0	R1416T
1145.098	1.601	1161034	WORD	n/a	wordpools/wordpool_long_EN.txt	OAR	6	8	[0, 0, 0]	n/a	FR1	0	R1416T
1146.699	0.817	1162636	WORD_OFF	n/a	n/a	OAR	6	8	[0, 0, 0]	n/a	FR1	0	R1416T
1147.516	1.615	1163450	WORD	n/a	wordpools/wordpool_long_EN.txt	STAR	7	8	[0, 0, 0]	n/a	FR1	0	R1416T
1149.131	0.834	1165078	WORD_OFF	n/a	n/a	STAR	7	8	[0, 0, 0]	n/a	FR1	0	R1416T
1149.965	1.6	1165917	WORD	n/a	wordpools/wordpool_long_EN.txt	MOP	8	8	[0, 0, 0]	n/a	FR1	0	R1416T
1151.565	0.816	1167520	WORD_OFF	n/a	n/a	MOP	8	8	[0, 0, 0]	n/a	FR1	0	R1416T
1152.381	1.6	1168328	WORD	n/a	wordpools/wordpool_long_EN.txt	CROWN	9	8	[0, 0, 0]	n/a	FR1	0	R1416T
1153.981	0.867	1169931	WORD_OFF	n/a	n/a	CROWN	9	8	[0, 0, 0]	n/a	FR1	0	R1416T
1154.848	1.6	1170801	WORD	n/a	wordpools/wordpool_long_EN.txt	WRIST	10	8	[0, 0, 0]	n/a	FR1	0	R1416T
1156.448	0.917	1172398	WORD_OFF	n/a	n/a	WRIST	10	8	[0, 0, 0]	n/a	FR1	0	R1416T
1157.365	1.616	1173319	WORD	n/a	wordpools/wordpool_long_EN.txt	FLAG	11	8	[0, 0, 0]	n/a	FR1	0	R1416T
1158.981	0.95	1174922	WORD_OFF	n/a	n/a	FLAG	11	8	[0, 0, 0]	n/a	FR1	0	R1416T
1159.931	1.617	1175883	WORD	n/a	wordpools/wordpool_long_EN.txt	WAVE	12	8	[0, 0, 0]	n/a	FR1	0	R1416T
1161.548	0.002	1177491	WORD_OFF	n/a	n/a	WAVE	12	8	[0, 0, 0]	n/a	FR1	0	R1416T
1161.55	0.0	1177491	ENCODING_END	n/a	n/a	n/a	-999	8	[0, 0, 0]	n/a	FR1	0	R1416T
1161.55	0.0	1177491	DISTRACT_START	n/a	n/a	n/a	-999	8	[0, 0, 0]	n/a	FR1	0	R1416T
1161.549	0.001	1177492	PROB	0.001	n/a	n/a	-999	8	[8, 8, 8]	24	FR1	0	R1416T
1161.55	14.115	1177493	START	n/a	n/a	n/a	-999	8	[-999, -999, -999]	n/a	FR1	0	R1416T
1175.665	13.7	1191608	PROB	13.7	n/a	n/a	-999	8	[3, 5, 8]	16	FR1	0	R1416T
1189.365	0.0	1205307	STOP	n/a	n/a	n/a	-999	8	[-999, -999, -999]	n/a	FR1	0	R1416T
1189.365	2.333	1205312	DISTRACT_END	n/a	n/a	n/a	-999	8	[0, 0, 0]	n/a	FR1	0	R1416T
1191.698	2.112	1207640	REC_START	n/a	n/a	n/a	-999	8	[0, 0, 0]	n/a	FR1	0	R1416T
1193.81	2.365	1209752	REC_WORD	2.365	n/a	CROWN	9	8	[0, 0, 0]	n/a	FR1	0	R1416T
1196.175	1.437	1212117	REC_WORD	1.437	n/a	WRIST	10	8	[0, 0, 0]	n/a	FR1	0	R1416T
1197.612	0.615	1213554	REC_WORD	0.615	n/a	FILE	-999	8	[0, 0, 0]	n/a	FR1	0	R1416T
1198.227	23.707	1214169	REC_WORD	23.707	n/a	FLEA	-999	8	[0, 0, 0]	n/a	FR1	0	R1416T
1221.934	2.898	1237875	REC_END	n/a	n/a	n/a	-999	8	[0, 0, 0]	n/a	FR1	0	R1416T
1224.832	10.35	1240775	COUNTDOWN_START	n/a	n/a	n/a	-999	9	[0, 0, 0]	n/a	FR1	0	R1416T
1235.182	0.0	1251128	COUNTDOWN_END	n/a	n/a	n/a	-999	9	[0, 0, 0]	n/a	FR1	0	R1416T
1235.182	1.999	1251128	ENCODING_START	n/a	n/a	n/a	-999	9	[0, 0, 0]	n/a	FR1	0	R1416T
1237.181	1.617	1253112	WORD	n/a	wordpools/wordpool_long_EN.txt	TRENCH	1	9	[0, 0, 0]	n/a	FR1	0	R1416T
1238.798	0.883	1254739	WORD_OFF	n/a	n/a	TRENCH	1	9	[0, 0, 0]	n/a	FR1	0	R1416T
1239.681	1.617	1255630	WORD	n/a	wordpools/wordpool_long_EN.txt	CAT	2	9	[0, 0, 0]	n/a	FR1	0	R1416T
1241.298	0.9	1257232	WORD_OFF	n/a	n/a	CAT	2	9	[0, 0, 0]	n/a	FR1	0	R1416T
1242.198	1.616	1258142	WORD	n/a	wordpools/wordpool_long_EN.txt	HAZE	3	9	[0, 0, 0]	n/a	FR1	0	R1416T
1243.814	0.884	1259750	WORD_OFF	n/a	n/a	HAZE	3	9	[0, 0, 0]	n/a	FR1	0	R1416T
1244.698	1.616	1260641	WORD	n/a	wordpools/wordpool_long_EN.txt	STICK	4	9	[0, 0, 0]	n/a	FR1	0	R1416T
1246.314	0.884	1262243	WORD_OFF	n/a	n/a	STICK	4	9	[0, 0, 0]	n/a	FR1	0	R1416T
1247.198	1.6	1263133	WORD	n/a	wordpools/wordpool_long_EN.txt	DOCK	5	9	[0, 0, 0]	n/a	FR1	0	R1416T
1248.798	0.917	1264736	WORD_OFF	n/a	n/a	DOCK	5	9	[0, 0, 0]	n/a	FR1	0	R1416T
1249.715	1.6	1265651	WORD	n/a	wordpools/wordpool_long_EN.txt	WING	6	9	[0, 0, 0]	n/a	FR1	0	R1416T
1251.315	0.799	1267254	WORD_OFF	n/a	n/a	WING	6	9	[0, 0, 0]	n/a	FR1	0	R1416T
1252.114	1.601	1268062	WORD	n/a	wordpools/wordpool_long_EN.txt	FUR	7	9	[0, 0, 0]	n/a	FR1	0	R1416T
1253.715	0.999	1269645	WORD_OFF	n/a	n/a	FUR	7	9	[0, 0, 0]	n/a	FR1	0	R1416T
1254.714	1.6	1270662	WORD	n/a	wordpools/wordpool_long_EN.txt	VASE	8	9	[0, 0, 0]	n/a	FR1	0	R1416T
1256.314	0.851	1272265	WORD_OFF	n/a	n/a	VASE	8	9	[0, 0, 0]	n/a	FR1	0	R1416T
1257.165	1.6	1273104	WORD	n/a	wordpools/wordpool_long_EN.txt	SHIP	9	9	[0, 0, 0]	n/a	FR1	0	R1416T
1258.765	0.85	1274707	WORD_OFF	n/a	n/a	SHIP	9	9	[0, 0, 0]	n/a	FR1	0	R1416T
1259.615	1.616	1275546	WORD	n/a	wordpools/wordpool_long_EN.txt	MEAT	10	9	[0, 0, 0]	n/a	FR1	0	R1416T
1261.231	0.867	1277174	WORD_OFF	n/a	n/a	MEAT	10	9	[0, 0, 0]	n/a	FR1	0	R1416T
1262.098	1.617	1278039	WORD	n/a	wordpools/wordpool_long_EN.txt	ELF	11	9	[0, 0, 0]	n/a	FR1	0	R1416T
1263.715	0.899	1279661	WORD_OFF	n/a	n/a	ELF	11	9	[0, 0, 0]	n/a	FR1	0	R1416T
1264.614	1.601	1280557	WORD	n/a	wordpools/wordpool_long_EN.txt	SPOOL	12	9	[0, 0, 0]	n/a	FR1	0	R1416T
1266.215	0.001	1282153	PROB	0.001	n/a	n/a	-999	9	[6, 8, 3]	17	FR1	0	R1416T
1266.216	0.0	1282154	START	n/a	n/a	n/a	-999	9	[-999, -999, -999]	n/a	FR1	0	R1416T
1266.214	0.002	1282159	WORD_OFF	n/a	n/a	SPOOL	12	9	[0, 0, 0]	n/a	FR1	0	R1416T
1266.216	0.0	1282159	ENCODING_END	n/a	n/a	n/a	-999	9	[0, 0, 0]	n/a	FR1	0	R1416T
1266.216	17.4	1282159	DISTRACT_START	n/a	n/a	n/a	-999	9	[0, 0, 0]	n/a	FR1	0	R1416T
1283.616	24.465	1299553	PROB	24.465	n/a	n/a	-999	9	[8, 6, 3]	17	FR1	0	R1416T
1308.081	0.0	1324017	STOP	n/a	n/a	n/a	-999	9	[-999, -999, -999]	n/a	FR1	0	R1416T
1308.081	2.066	1324027	DISTRACT_END	n/a	n/a	n/a	-999	9	[0, 0, 0]	n/a	FR1	0	R1416T
1310.147	20.002	1326090	REC_START	n/a	n/a	n/a	-999	9	[0, 0, 0]	n/a	FR1	0	R1416T
1330.149	3.752	1346084	REC_WORD	3.752	n/a	WAGON	-999	9	[0, 0, 0]	n/a	FR1	0	R1416T
1333.901	4.333	1349835	REC_WORD_VV	4.333	n/a	<>	-999	9	[0, 0, 0]	n/a	FR1	0	R1416T
1338.234	2.144	1354168	REC_WORD	2.144	n/a	STOP	-999	9	[0, 0, 0]	n/a	FR1	0	R1416T
1340.378	7.887	1356305	REC_END	n/a	n/a	n/a	-999	9	[0, 0, 0]	n/a	FR1	0	R1416T
1348.265	10.349	1364210	COUNTDOWN_START	n/a	n/a	n/a	-999	10	[0, 0, 0]	n/a	FR1	0	R1416T
1358.614	0.001	1374542	COUNTDOWN_END	n/a	n/a	n/a	-999	10	[0, 0, 0]	n/a	FR1	0	R1416T
1358.615	2.149	1374542	ENCODING_START	n/a	n/a	n/a	-999	10	[0, 0, 0]	n/a	FR1	0	R1416T
1360.764	1.601	1376704	WORD	n/a	wordpools/wordpool_long_EN.txt	PEARL	1	10	[0, 0, 0]	n/a	FR1	0	R1416T
1362.365	0.95	1378307	WORD_OFF	n/a	n/a	PEARL	1	10	[0, 0, 0]	n/a	FR1	0	R1416T
1363.315	1.616	1379248	WORD	n/a	wordpools/wordpool_long_EN.txt	CROSS	2	10	[0, 0, 0]	n/a	FR1	0	R1416T
1364.931	0.833	1380870	WORD_OFF	n/a	n/a	CROSS	2	10	[0, 0, 0]	n/a	FR1	0	R1416T
1365.764	1.601	1381690	WORD	n/a	wordpools/wordpool_long_EN.txt	LIP	3	10	[0, 0, 0]	n/a	FR1	0	R1416T
1367.365	0.966	1383292	WORD_OFF	n/a	n/a	LIP	3	10	[0, 0, 0]	n/a	FR1	0	R1416T
1368.331	1.6	1384259	WORD	n/a	wordpools/wordpool_long_EN.txt	GRILL	4	10	[0, 0, 0]	n/a	FR1	0	R1416T
1369.931	0.917	1385861	WORD_OFF	n/a	n/a	GRILL	4	10	[0, 0, 0]	n/a	FR1	0	R1416T
1370.848	1.6	1386777	WORD	n/a	wordpools/wordpool_long_EN.txt	HOLE	5	10	[0, 0, 0]	n/a	FR1	0	R1416T
1372.448	1.0	1388379	WORD_OFF	n/a	n/a	HOLE	5	10	[0, 0, 0]	n/a	FR1	0	R1416T
1373.448	1.6	1389371	WORD	n/a	wordpools/wordpool_long_EN.txt	NET	6	10	[0, 0, 0]	n/a	FR1	0	R1416T
1375.048	0.9	1390974	WORD_OFF	n/a	n/a	NET	6	10	[0, 0, 0]	n/a	FR1	0	R1416T
1375.948	1.6	1391890	WORD	n/a	wordpools/wordpool_long_EN.txt	CLIFF	7	10	[0, 0, 0]	n/a	FR1	0	R1416T
1377.548	0.8	1393487	WORD_OFF	n/a	n/a	CLIFF	7	10	[0, 0, 0]	n/a	FR1	0	R1416T
1378.348	1.617	1394281	WORD	n/a	wordpools/wordpool_long_EN.txt	SNACK	8	10	[0, 0, 0]	n/a	FR1	0	R1416T
1379.965	0.95	1395908	WORD_OFF	n/a	n/a	SNACK	8	10	[0, 0, 0]	n/a	FR1	0	R1416T
1380.915	1.617	1396850	WORD	n/a	wordpools/wordpool_long_EN.txt	VINE	9	10	[0, 0, 0]	n/a	FR1	0	R1416T
1382.532	0.933	1398472	WORD_OFF	n/a	n/a	VINE	9	10	[0, 0, 0]	n/a	FR1	0	R1416T
1383.465	1.6	1399393	WORD	n/a	wordpools/wordpool_long_EN.txt	FLEA	10	10	[0, 0, 0]	n/a	FR1	0	R1416T
1385.065	0.933	1400996	WORD_OFF	n/a	n/a	FLEA	10	10	[0, 0, 0]	n/a	FR1	0	R1416T
1385.998	1.6	1401937	WORD	n/a	wordpools/wordpool_long_EN.txt	MULE	11	10	[0, 0, 0]	n/a	FR1	0	R1416T
1387.598	0.817	1403539	WORD_OFF	n/a	n/a	MULE	11	10	[0, 0, 0]	n/a	FR1	0	R1416T
1388.415	1.617	1404353	WORD	n/a	wordpools/wordpool_long_EN.txt	CUP	12	10	[0, 0, 0]	n/a	FR1	0	R1416T
1390.032	0.0	1405956	WORD_OFF	n/a	n/a	CUP	12	10	[0, 0, 0]	n/a	FR1	0	R1416T
1390.032	0.001	1405963	PROB	0.001	n/a	n/a	-999	10	[4, 4, 7]	14	FR1	0	R1416T
1390.033	0.0	1405964	START	n/a	n/a	n/a	-999	10	[-999, -999, -999]	n/a	FR1	0	R1416T
1390.033	0.0	1405981	ENCODING_END	n/a	n/a	n/a	-999	10	[0, 0, 0]	n/a	FR1	0	R1416T
1390.033	34.565	1405981	DISTRACT_START	n/a	n/a	n/a	-999	10	[0, 0, 0]	n/a	FR1	0	R1416T
1424.598	0.0	1440523	DISTRACT_END	n/a	n/a	n/a	-999	10	[0, 0, 0]	n/a	FR1	0	R1416T
1424.598	2.116	1440528	STOP	n/a	n/a	n/a	-999	10	[-999, -999, -999]	n/a	FR1	0	R1416T
1426.714	0.0	1442642	REC_START	n/a	n/a	n/a	-999	10	[0, 0, 0]	n/a	FR1	0	R1416T
1426.714	2.263	1442644	REC_WORD_VV	2.263	n/a	<>	-999	10	[0, 0, 0]	n/a	FR1	0	R1416T
1428.977	0.859	1444906	REC_WORD	0.859	n/a	PEARL	1	10	[0, 0, 0]	n/a	FR1	0	R1416T
1429.836	2.171	1445765	REC_WORD	2.171	n/a	CROSS	2	10	[0, 0, 0]	n/a	FR1	0	R1416T
1432.007	2.974	1447936	REC_WORD	2.974	n/a	LIP	3	10	[0, 0, 0]	n/a	FR1	0	R1416T
1434.981	14.709	1450910	REC_WORD	14.709	n/a	SHELL	-999	10	[0, 0, 0]	n/a	FR1	0	R1416T
1449.69	7.256	1465618	REC_WORD_VV	7.256	n/a	<>	-999	10	[0, 0, 0]	n/a	FR1	0	R1416T
1456.946	2.635	1472877	REC_END	n/a	n/a	n/a	-999	10	[0, 0, 0]	n/a	FR1	0	R1416T
1459.581	10.351	1475523	COUNTDOWN_START	n/a	n/a	n/a	-999	11	[0, 0, 0]	n/a	FR1	0	R1416T
1469.932	0.0	1485870	COUNTDOWN_END	n/a	n/a	n/a	-999	11	[0, 0, 0]	n/a	FR1	0	R1416T
1469.932	2.233	1485875	ENCODING_START	n/a	n/a	n/a	-999	11	[0, 0, 0]	n/a	FR1	0	R1416T
1472.165	1.6	1488088	WORD	n/a	wordpools/wordpool_long_EN.txt	YOLK	1	11	[0, 0, 0]	n/a	FR1	0	R1416T
1473.765	0.883	1489690	WORD_OFF	n/a	n/a	YOLK	1	11	[0, 0, 0]	n/a	FR1	0	R1416T
1474.648	1.601	1490581	WORD	n/a	wordpools/wordpool_long_EN.txt	FRUIT	2	11	[0, 0, 0]	n/a	FR1	0	R1416T
1476.249	0.866	1492183	WORD_OFF	n/a	n/a	FRUIT	2	11	[0, 0, 0]	n/a	FR1	0	R1416T
1477.115	1.616	1493048	WORD	n/a	wordpools/wordpool_long_EN.txt	CANE	3	11	[0, 0, 0]	n/a	FR1	0	R1416T
1478.731	0.933	1494650	WORD_OFF	n/a	n/a	CANE	3	11	[0, 0, 0]	n/a	FR1	0	R1416T
1479.664	1.601	1495592	WORD	n/a	wordpools/wordpool_long_EN.txt	BAND	4	11	[0, 0, 0]	n/a	FR1	0	R1416T
1481.265	0.9	1497194	WORD_OFF	n/a	n/a	BAND	4	11	[0, 0, 0]	n/a	FR1	0	R1416T
1482.165	1.6	1498084	WORD	n/a	wordpools/wordpool_long_EN.txt	BEEF	5	11	[0, 0, 0]	n/a	FR1	0	R1416T
1483.765	0.918	1499687	WORD_OFF	n/a	n/a	BEEF	5	11	[0, 0, 0]	n/a	FR1	0	R1416T
1484.683	1.615	1500602	WORD	n/a	wordpools/wordpool_long_EN.txt	SUN	6	11	[0, 0, 0]	n/a	FR1	0	R1416T
1486.298	0.767	1502230	WORD_OFF	n/a	n/a	SUN	6	11	[0, 0, 0]	n/a	FR1	0	R1416T
1487.065	1.6	1502993	WORD	n/a	wordpools/wordpool_long_EN.txt	TEETH	7	11	[0, 0, 0]	n/a	FR1	0	R1416T
1488.665	0.816	1504596	WORD_OFF	n/a	n/a	TEETH	7	11	[0, 0, 0]	n/a	FR1	0	R1416T
1489.481	1.6	1505410	WORD	n/a	wordpools/wordpool_long_EN.txt	GLASS	8	11	[0, 0, 0]	n/a	FR1	0	R1416T
1491.081	0.917	1507012	WORD_OFF	n/a	n/a	GLASS	8	11	[0, 0, 0]	n/a	FR1	0	R1416T
1491.998	1.6	1507928	WORD	n/a	wordpools/wordpool_long_EN.txt	LAMP	9	11	[0, 0, 0]	n/a	FR1	0	R1416T
1493.598	0.766	1509530	WORD_OFF	n/a	n/a	LAMP	9	11	[0, 0, 0]	n/a	FR1	0	R1416T
1494.364	1.601	1510293	WORD	n/a	wordpools/wordpool_long_EN.txt	APE	10	11	[0, 0, 0]	n/a	FR1	0	R1416T
1495.965	0.915	1511896	WORD_OFF	n/a	n/a	APE	10	11	[0, 0, 0]	n/a	FR1	0	R1416T
1496.88	1.601	1512812	WORD	n/a	wordpools/wordpool_long_EN.txt	PRINCE	11	11	[0, 0, 0]	n/a	FR1	0	R1416T
1498.481	0.9	1514414	WORD_OFF	n/a	n/a	PRINCE	11	11	[0, 0, 0]	n/a	FR1	0	R1416T
1499.381	1.601	1515304	WORD	n/a	wordpools/wordpool_long_EN.txt	FLEET	12	11	[0, 0, 0]	n/a	FR1	0	R1416T
1500.982	0.001	1516907	WORD_OFF	n/a	n/a	FLEET	12	11	[0, 0, 0]	n/a	FR1	0	R1416T
1500.983	0.0	1516907	ENCODING_END	n/a	n/a	n/a	-999	11	[0, 0, 0]	n/a	FR1	0	R1416T
1500.983	0.0	1516907	DISTRACT_START	n/a	n/a	n/a	-999	11	[0, 0, 0]	n/a	FR1	0	R1416T
1500.983	0.0	1516909	START	n/a	n/a	n/a	-999	11	[-999, -999, -999]	n/a	FR1	0	R1416T
1500.983	8.065	1516909	PROB	8.065	n/a	n/a	-999	11	[4, 8, 3]	15	FR1	0	R1416T
1509.048	28.349	1524973	PROB	28.349	n/a	n/a	-999	11	[2, 4, 8]	14	FR1	0	R1416T
1537.397	0.0	1553321	STOP	n/a	n/a	n/a	-999	11	[-999, -999, -999]	n/a	FR1	0	R1416T
1537.397	2.25	1553331	DISTRACT_END	n/a	n/a	n/a	-999	11	[0, 0, 0]	n/a	FR1	0	R1416T
1539.647	4.793	1555577	REC_START	n/a	n/a	n/a	-999	11	[0, 0, 0]	n/a	FR1	0	R1416T
1544.44	2.951	1560363	REC_WORD_VV	2.951	n/a	<>	-999	11	[0, 0, 0]	n/a	FR1	0	R1416T
1547.391	4.755	1563314	REC_WORD	4.755	n/a	SMIRK	-999	11	[0, 0, 0]	n/a	FR1	0	R1416T
1552.146	17.736	1568069	REC_WORD	17.736	n/a	CROSS	-999	11	[0, 0, 0]	n/a	FR1	0	R1416T
1569.882	2.115	1585804	REC_END	n/a	n/a	n/a	-999	11	[0, 0, 0]	n/a	FR1	0	R1416T
1571.997	10.352	1587915	COUNTDOWN_START	n/a	n/a	n/a	-999	12	[0, 0, 0]	n/a	FR1	0	R1416T
1582.349	0.0	1598267	COUNTDOWN_END	n/a	n/a	n/a	-999	12	[0, 0, 0]	n/a	FR1	0	R1416T
1582.349	2.182	1598267	ENCODING_START	n/a	n/a	n/a	-999	12	[0, 0, 0]	n/a	FR1	0	R1416T
1584.531	1.617	1600455	WORD	n/a	wordpools/wordpool_long_EN.txt	OWL	1	12	[0, 0, 0]	n/a	FR1	0	R1416T
1586.148	0.933	1602077	WORD_OFF	n/a	n/a	OWL	1	12	[0, 0, 0]	n/a	FR1	0	R1416T
1587.081	1.6	1602998	WORD	n/a	wordpools/wordpool_long_EN.txt	BREAD	2	12	[0, 0, 0]	n/a	FR1	0	R1416T
1588.681	0.767	1604601	WORD_OFF	n/a	n/a	BREAD	2	12	[0, 0, 0]	n/a	FR1	0	R1416T
1589.448	1.6	1605364	WORD	n/a	wordpools/wordpool_long_EN.txt	CONE	3	12	[0, 0, 0]	n/a	FR1	0	R1416T
1591.048	0.767	1606966	WORD_OFF	n/a	n/a	CONE	3	12	[0, 0, 0]	n/a	FR1	0	R1416T
1591.815	1.6	1607730	WORD	n/a	wordpools/wordpool_long_EN.txt	ROPE	4	12	[0, 0, 0]	n/a	FR1	0	R1416T
1593.415	0.767	1609332	WORD_OFF	n/a	n/a	ROPE	4	12	[0, 0, 0]	n/a	FR1	0	R1416T
1594.182	1.615	1610095	WORD	n/a	wordpools/wordpool_long_EN.txt	LODGE	5	12	[0, 0, 0]	n/a	FR1	0	R1416T
1595.797	0.951	1611723	WORD_OFF	n/a	n/a	LODGE	5	12	[0, 0, 0]	n/a	FR1	0	R1416T
1596.748	1.6	1612664	WORD	n/a	wordpools/wordpool_long_EN.txt	HOUSE	6	12	[0, 0, 0]	n/a	FR1	0	R1416T
1598.348	0.799	1614267	WORD_OFF	n/a	n/a	HOUSE	6	12	[0, 0, 0]	n/a	FR1	0	R1416T
1599.147	1.601	1615075	WORD	n/a	wordpools/wordpool_long_EN.txt	DITCH	7	12	[0, 0, 0]	n/a	FR1	0	R1416T
1600.748	0.967	1616678	WORD_OFF	n/a	n/a	DITCH	7	12	[0, 0, 0]	n/a	FR1	0	R1416T
1601.715	1.6	1617650	WORD	n/a	wordpools/wordpool_long_EN.txt	DART	8	12	[0, 0, 0]	n/a	FR1	0	R1416T
1603.315	0.783	1619227	WORD_OFF	n/a	n/a	DART	8	12	[0, 0, 0]	n/a	FR1	0	R1416T
1604.098	1.6	1620015	WORD	n/a	wordpools/wordpool_long_EN.txt	BUSH	9	12	[0, 0, 0]	n/a	FR1	0	R1416T
1605.698	0.866	1621617	WORD_OFF	n/a	n/a	BUSH	9	12	[0, 0, 0]	n/a	FR1	0	R1416T
1606.564	1.601	1622482	WORD	n/a	wordpools/wordpool_long_EN.txt	BROOK	10	12	[0, 0, 0]	n/a	FR1	0	R1416T
1608.165	0.783	1624085	WORD_OFF	n/a	n/a	BROOK	10	12	[0, 0, 0]	n/a	FR1	0	R1416T
1608.948	1.6	1624873	WORD	n/a	wordpools/wordpool_long_EN.txt	ARK	11	12	[0, 0, 0]	n/a	FR1	0	R1416T
1610.548	0.999	1626476	WORD_OFF	n/a	n/a	ARK	11	12	[0, 0, 0]	n/a	FR1	0	R1416T
1611.547	1.601	1627468	WORD	n/a	wordpools/wordpool_long_EN.txt	TAIL	12	12	[0, 0, 0]	n/a	FR1	0	R1416T
1613.148	0.001	1629068	PROB	0.001	n/a	n/a	-999	12	[3, 7, 4]	14	FR1	0	R1416T
1613.149	0.0	1629069	START	n/a	n/a	n/a	-999	12	[-999, -999, -999]	n/a	FR1	0	R1416T
1613.148	0.001	1629070	WORD_OFF	n/a	n/a	TAIL	12	12	[0, 0, 0]	n/a	FR1	0	R1416T
1613.149	0.0	1629070	ENCODING_END	n/a	n/a	n/a	-999	12	[0, 0, 0]	n/a	FR1	0	R1416T
1613.149	5.749	1629070	DISTRACT_START	n/a	n/a	n/a	-999	12	[0, 0, 0]	n/a	FR1	0	R1416T
1618.898	5.367	1634817	PROB	5.367	n/a	n/a	-999	12	[7, 2, 1]	10	FR1	0	R1416T
1624.265	3.733	1640184	PROB	3.733	n/a	n/a	-999	12	[1, 5, 1]	7	FR1	0	R1416T
1627.998	4.233	1643917	PROB	4.233	n/a	n/a	-999	12	[3, 2, 3]	8	FR1	0	R1416T
1632.231	3.033	1648150	PROB	3.033	n/a	n/a	-999	12	[6, 8, 1]	9	FR1	0	R1416T
1635.264	0.0	1651174	DISTRACT_END	n/a	n/a	n/a	-999	12	[0, 0, 0]	n/a	FR1	0	R1416T
1635.264	2.3	1651183	STOP	n/a	n/a	n/a	-999	12	[-999, -999, -999]	n/a	FR1	0	R1416T
1637.564	2.394	1653491	REC_START	n/a	n/a	n/a	-999	12	[0, 0, 0]	n/a	FR1	0	R1416T
1639.958	1.354	1655876	REC_WORD	1.354	n/a	OWL	1	12	[0, 0, 0]	n/a	FR1	0	R1416T
1641.312	3.46	1657230	REC_WORD	3.46	n/a	CLOCK	-999	12	[0, 0, 0]	n/a	FR1	0	R1416T
1644.772	13.592	1660690	REC_WORD	13.592	n/a	BRIDGE	-999	12	[0, 0, 0]	n/a	FR1	0	R1416T
1658.364	3.065	1674281	REC_WORD_VV	3.065	n/a	<>	-999	12	[0, 0, 0]	n/a	FR1	0	R1416T
1661.429	0.5	1677346	REC_WORD_VV	0.5	n/a	<>	-999	12	[0, 0, 0]	n/a	FR1	0	R1416T
1661.929	0.5	1677846	REC_WORD_VV	0.5	n/a	<>	-999	12	[0, 0, 0]	n/a	FR1	0	R1416T
1662.429	5.4	1678346	REC_WORD_VV	5.4	n/a	<>	-999	12	[0, 0, 0]	n/a	FR1	0	R1416T
1667.829	0.0	1683757	REC_END	n/a	n/a	n/a	-999	12	[0, 0, 0]	n/a	FR1	0	R1416T
