onset	duration	sample	trial_type	response_time	stim_file	item_name	serialpos	list	test	answer	experiment	session	subject
0.0	2.297	334593	INSTRUCT_START	n/a	n/a	n/a	-999	-999	[0, 0, 0]	n/a	FR1	4	R1395M
2.297	60.4	336886	INSTRUCT_END	n/a	n/a	n/a	-999	-999	[0, 0, 0]	n/a	FR1	4	R1395M
62.697	10.35	397286	COUNTDOWN_START	n/a	n/a	n/a	-999	-999	[0, 0, 0]	n/a	FR1	4	R1395M
73.047	0.0	407636	COUNTDOWN_END	n/a	n/a	n/a	-999	-999	[0, 0, 0]	n/a	FR1	4	R1395M
73.047	2.05	407636	ENCODING_START	n/a	n/a	n/a	-999	-1	[0, 0, 0]	n/a	FR1	4	R1395M
75.097	1.599	409686	WORD	n/a	n/a	MEAT	1	-1	[0, 0, 0]	n/a	FR1	4	R1395M
76.696	0.917	411286	WORD_OFF	n/a	n/a	MEAT	1	-1	[0, 0, 0]	n/a	FR1	4	R1395M
77.613	1.6	412203	WORD	n/a	n/a	YOLK	2	-1	[0, 0, 0]	n/a	FR1	4	R1395M
79.213	0.966	413804	WORD_OFF	n/a	n/a	YOLK	2	-1	[0, 0, 0]	n/a	FR1	4	R1395M
80.179	1.6	414768	WORD	n/a	n/a	RICE	3	-1	[0, 0, 0]	n/a	FR1	4	R1395M
81.779	0.934	416368	WORD_OFF	n/a	n/a	RICE	3	-1	[0, 0, 0]	n/a	FR1	4	R1395M
82.713	1.616	417304	WORD	n/a	n/a	FLASK	4	-1	[0, 0, 0]	n/a	FR1	4	R1395M
84.329	0.983	418923	WORD_OFF	n/a	n/a	FLASK	4	-1	[0, 0, 0]	n/a	FR1	4	R1395M
85.312	1.6	419905	WORD	n/a	n/a	SHEET	5	-1	[0, 0, 0]	n/a	FR1	4	R1395M
86.912	0.85	421506	WORD_OFF	n/a	n/a	SHEET	5	-1	[0, 0, 0]	n/a	FR1	4	R1395M
87.762	1.617	422348	WORD	n/a	n/a	POOL	6	-1	[0, 0, 0]	n/a	FR1	4	R1395M
89.379	0.833	423967	WORD_OFF	n/a	n/a	POOL	6	-1	[0, 0, 0]	n/a	FR1	4	R1395M
90.212	1.6	424800	WORD	n/a	n/a	RAKE	7	-1	[0, 0, 0]	n/a	FR1	4	R1395M
91.812	0.967	426400	WORD_OFF	n/a	n/a	RAKE	7	-1	[0, 0, 0]	n/a	FR1	4	R1395M
92.779	1.6	427373	WORD	n/a	n/a	STREET	8	-1	[0, 0, 0]	n/a	FR1	4	R1395M
94.379	0.95	428964	WORD_OFF	n/a	n/a	STREET	8	-1	[0, 0, 0]	n/a	FR1	4	R1395M
95.329	1.601	429919	WORD	n/a	n/a	PAIL	9	-1	[0, 0, 0]	n/a	FR1	4	R1395M
96.93	0.767	431519	WORD_OFF	n/a	n/a	PAIL	9	-1	[0, 0, 0]	n/a	FR1	4	R1395M
97.697	1.6	432287	WORD	n/a	n/a	SNACK	10	-1	[0, 0, 0]	n/a	FR1	4	R1395M
99.297	0.866	433887	WORD_OFF	n/a	n/a	SNACK	10	-1	[0, 0, 0]	n/a	FR1	4	R1395M
100.163	1.617	434748	WORD	n/a	n/a	HILL	11	-1	[0, 0, 0]	n/a	FR1	4	R1395M
101.78	0.784	436367	WORD_OFF	n/a	n/a	HILL	11	-1	[0, 0, 0]	n/a	FR1	4	R1395M
102.564	1.617	437153	WORD	n/a	n/a	MOOSE	12	-1	[0, 0, 0]	n/a	FR1	4	R1395M
104.181	0.001	438772	WORD_OFF	n/a	n/a	MOOSE	12	-1	[0, 0, 0]	n/a	FR1	4	R1395M
104.182	0.001	438772	ENCODING_END	n/a	n/a	n/a	-999	-1	[0, 0, 0]	n/a	FR1	4	R1395M
104.183	0.0	438772	DISTRACT_START	n/a	n/a	n/a	-999	-1	[0, 0, 0]	n/a	FR1	4	R1395M
104.183	0.0	438770	START	n/a	n/a	n/a	-999	-1	[-999, -999, -999]	n/a	FR1	4	R1395M
104.183	4.864	438770	PROB	4.864	n/a	n/a	-999	-1	[5, 2, 7]	14	FR1	4	R1395M
109.047	3.283	443634	PROB	3.283	n/a	n/a	-999	-1	[8, 1, 6]	14	FR1	4	R1395M
112.33	6.217	446916	PROB	6.217	n/a	n/a	-999	-1	[7, 4, 8]	18	FR1	4	R1395M
118.547	4.084	453133	PROB	4.084	n/a	n/a	-999	-1	[2, 6, 8]	16	FR1	4	R1395M
122.631	3.981	457217	PROB	3.981	n/a	n/a	-999	-1	[8, 8, 5]	21	FR1	4	R1395M
126.612	0.0	461195	DISTRACT_END	n/a	n/a	n/a	-999	-1	[0, 0, 0]	n/a	FR1	4	R1395M
126.612	2.368	461198	STOP	n/a	n/a	n/a	-999	-1	[-999, -999, -999]	n/a	FR1	4	R1395M
128.98	3.256	463571	REC_START	n/a	n/a	n/a	-999	-1	[0, 0, 0]	n/a	FR1	4	R1395M
132.236	2.603	466821	REC_WORD	2.603	n/a	MEAT	1	-1	[0, 0, 0]	n/a	FR1	4	R1395M
134.839	1.891	469424	REC_WORD	1.891	n/a	FLASK	4	-1	[0, 0, 0]	n/a	FR1	4	R1395M
136.73	2.838	471315	REC_WORD	2.838	n/a	SHEET	5	-1	[0, 0, 0]	n/a	FR1	4	R1395M
139.568	7.932	474153	REC_WORD	7.932	n/a	PAIL	9	-1	[0, 0, 0]	n/a	FR1	4	R1395M
147.5	6.703	482085	REC_WORD_VV	6.703	n/a	<>	-999	-1	[0, 0, 0]	n/a	FR1	4	R1395M
154.203	1.493	488787	REC_WORD	1.493	n/a	RICE	3	-1	[0, 0, 0]	n/a	FR1	4	R1395M
155.696	3.54	490280	REC_WORD	3.54	n/a	YOLK	2	-1	[0, 0, 0]	n/a	FR1	4	R1395M
159.236	12.21	493819	REC_END	n/a	n/a	n/a	-999	-1	[0, 0, 0]	n/a	FR1	4	R1395M
171.446	10.351	506032	COUNTDOWN_START	n/a	n/a	n/a	-999	1	[0, 0, 0]	n/a	FR1	4	R1395M
181.797	0.0	516382	COUNTDOWN_END	n/a	n/a	n/a	-999	1	[0, 0, 0]	n/a	FR1	4	R1395M
181.797	2.15	516382	ENCODING_START	n/a	n/a	n/a	-999	1	[0, 0, 0]	n/a	FR1	4	R1395M
183.947	1.6	518534	WORD	n/a	wordpools/wordpool_long_EN.txt	PIPE	1	1	[0, 0, 0]	n/a	FR1	4	R1395M
185.547	0.982	520125	WORD_OFF	n/a	n/a	PIPE	1	1	[0, 0, 0]	n/a	FR1	4	R1395M
186.529	1.601	521108	WORD	n/a	wordpools/wordpool_long_EN.txt	STICK	2	1	[0, 0, 0]	n/a	FR1	4	R1395M
188.13	0.916	522708	WORD_OFF	n/a	n/a	STICK	2	1	[0, 0, 0]	n/a	FR1	4	R1395M
189.046	1.601	523625	WORD	n/a	wordpools/wordpool_long_EN.txt	ROOT	3	1	[0, 0, 0]	n/a	FR1	4	R1395M
190.647	0.8	525226	WORD_OFF	n/a	n/a	ROOT	3	1	[0, 0, 0]	n/a	FR1	4	R1395M
191.447	1.6	526031	WORD	n/a	wordpools/wordpool_long_EN.txt	MOLE	4	1	[0, 0, 0]	n/a	FR1	4	R1395M
193.047	0.849	527631	WORD_OFF	n/a	n/a	MOLE	4	1	[0, 0, 0]	n/a	FR1	4	R1395M
193.896	1.617	528483	WORD	n/a	wordpools/wordpool_long_EN.txt	COD	5	1	[0, 0, 0]	n/a	FR1	4	R1395M
195.513	0.766	530092	WORD_OFF	n/a	n/a	COD	5	1	[0, 0, 0]	n/a	FR1	4	R1395M
196.279	1.601	530860	WORD	n/a	wordpools/wordpool_long_EN.txt	SPHINX	6	1	[0, 0, 0]	n/a	FR1	4	R1395M
197.88	0.816	532460	WORD_OFF	n/a	n/a	SPHINX	6	1	[0, 0, 0]	n/a	FR1	4	R1395M
198.696	1.617	533283	WORD	n/a	wordpools/wordpool_long_EN.txt	BAR	7	1	[0, 0, 0]	n/a	FR1	4	R1395M
200.313	0.983	534893	WORD_OFF	n/a	n/a	BAR	7	1	[0, 0, 0]	n/a	FR1	4	R1395M
201.296	1.6	535876	WORD	n/a	wordpools/wordpool_long_EN.txt	SLUSH	8	1	[0, 0, 0]	n/a	FR1	4	R1395M
202.896	0.95	537476	WORD_OFF	n/a	n/a	SLUSH	8	1	[0, 0, 0]	n/a	FR1	4	R1395M
203.846	1.6	538431	WORD	n/a	wordpools/wordpool_long_EN.txt	PORK	9	1	[0, 0, 0]	n/a	FR1	4	R1395M
205.446	0.967	540031	WORD_OFF	n/a	n/a	PORK	9	1	[0, 0, 0]	n/a	FR1	4	R1395M
206.413	1.617	540995	WORD	n/a	wordpools/wordpool_long_EN.txt	WOOD	10	1	[0, 0, 0]	n/a	FR1	4	R1395M
208.03	0.967	542614	WORD_OFF	n/a	n/a	WOOD	10	1	[0, 0, 0]	n/a	FR1	4	R1395M
208.997	1.6	543578	WORD	n/a	wordpools/wordpool_long_EN.txt	BAT	11	1	[0, 0, 0]	n/a	FR1	4	R1395M
210.597	0.783	545178	WORD_OFF	n/a	n/a	BAT	11	1	[0, 0, 0]	n/a	FR1	4	R1395M
211.38	1.6	545964	WORD	n/a	wordpools/wordpool_long_EN.txt	GIFT	12	1	[0, 0, 0]	n/a	FR1	4	R1395M
212.98	0.001	547564	WORD_OFF	n/a	n/a	GIFT	12	1	[0, 0, 0]	n/a	FR1	4	R1395M
212.981	0.0	547564	ENCODING_END	n/a	n/a	n/a	-999	1	[0, 0, 0]	n/a	FR1	4	R1395M
212.981	0.0	547564	DISTRACT_START	n/a	n/a	n/a	-999	1	[0, 0, 0]	n/a	FR1	4	R1395M
212.981	0.0	547562	START	n/a	n/a	n/a	-999	1	[-999, -999, -999]	n/a	FR1	4	R1395M
212.981	5.5	547562	PROB	5.5	n/a	n/a	-999	1	[6, 6, 4]	16	FR1	4	R1395M
218.481	2.733	553062	PROB	2.733	n/a	n/a	-999	1	[8, 4, 4]	16	FR1	4	R1395M
221.214	2.799	555795	PROB	2.799	n/a	n/a	-999	1	[7, 4, 3]	14	FR1	4	R1395M
224.013	2.417	558593	PROB	2.417	n/a	n/a	-999	1	[2, 2, 6]	10	FR1	4	R1395M
226.43	2.75	561010	PROB	2.75	n/a	n/a	-999	1	[3, 5, 7]	15	FR1	4	R1395M
229.18	2.851	563760	PROB	2.851	n/a	n/a	-999	1	[3, 7, 5]	15	FR1	4	R1395M
232.031	1.982	566611	PROB	1.982	n/a	n/a	-999	1	[3, 1, 7]	11	FR1	4	R1395M
234.013	0.0	568593	DISTRACT_END	n/a	n/a	n/a	-999	1	[0, 0, 0]	n/a	FR1	4	R1395M
234.013	2.05	568593	STOP	n/a	n/a	n/a	-999	1	[-999, -999, -999]	n/a	FR1	4	R1395M
236.063	3.622	570641	REC_START	n/a	n/a	n/a	-999	1	[0, 0, 0]	n/a	FR1	4	R1395M
239.685	3.296	574265	REC_WORD	3.296	n/a	STICK	2	1	[0, 0, 0]	n/a	FR1	4	R1395M
242.981	2.544	577560	REC_WORD	2.544	n/a	WOOD	10	1	[0, 0, 0]	n/a	FR1	4	R1395M
245.525	6.199	580104	REC_WORD	6.199	n/a	BAT	11	1	[0, 0, 0]	n/a	FR1	4	R1395M
251.724	2.064	586303	REC_WORD	2.064	n/a	SPHINX	6	1	[0, 0, 0]	n/a	FR1	4	R1395M
253.788	12.518	588367	REC_WORD	12.518	n/a	MOLE	4	1	[0, 0, 0]	n/a	FR1	4	R1395M
266.306	2.057	600889	REC_END	n/a	n/a	n/a	-999	1	[0, 0, 0]	n/a	FR1	4	R1395M
268.363	10.35	602948	COUNTDOWN_START	n/a	n/a	n/a	-999	2	[0, 0, 0]	n/a	FR1	4	R1395M
278.713	0.0	613289	COUNTDOWN_END	n/a	n/a	n/a	-999	2	[0, 0, 0]	n/a	FR1	4	R1395M
278.713	2.25	613298	ENCODING_START	n/a	n/a	n/a	-999	2	[0, 0, 0]	n/a	FR1	4	R1395M
280.963	1.6	615544	WORD	n/a	wordpools/wordpool_long_EN.txt	QUEEN	1	2	[0, 0, 0]	n/a	FR1	4	R1395M
282.563	0.833	617145	WORD_OFF	n/a	n/a	QUEEN	1	2	[0, 0, 0]	n/a	FR1	4	R1395M
283.396	1.617	617978	WORD	n/a	wordpools/wordpool_long_EN.txt	LOCK	2	2	[0, 0, 0]	n/a	FR1	4	R1395M
285.013	0.916	619587	WORD_OFF	n/a	n/a	LOCK	2	2	[0, 0, 0]	n/a	FR1	4	R1395M
285.929	1.6	620504	WORD	n/a	wordpools/wordpool_long_EN.txt	GATE	3	2	[0, 0, 0]	n/a	FR1	4	R1395M
287.529	0.917	622105	WORD_OFF	n/a	n/a	GATE	3	2	[0, 0, 0]	n/a	FR1	4	R1395M
288.446	1.6	623022	WORD	n/a	wordpools/wordpool_long_EN.txt	ELF	4	2	[0, 0, 0]	n/a	FR1	4	R1395M
290.046	0.933	624622	WORD_OFF	n/a	n/a	ELF	4	2	[0, 0, 0]	n/a	FR1	4	R1395M
290.979	1.6	625558	WORD	n/a	wordpools/wordpool_long_EN.txt	SPEAR	5	2	[0, 0, 0]	n/a	FR1	4	R1395M
292.579	0.95	627158	WORD_OFF	n/a	n/a	SPEAR	5	2	[0, 0, 0]	n/a	FR1	4	R1395M
293.529	1.6	628104	WORD	n/a	wordpools/wordpool_long_EN.txt	TOOL	6	2	[0, 0, 0]	n/a	FR1	4	R1395M
295.129	0.9	629704	WORD_OFF	n/a	n/a	TOOL	6	2	[0, 0, 0]	n/a	FR1	4	R1395M
296.029	1.617	630602	WORD	n/a	wordpools/wordpool_long_EN.txt	BEAK	7	2	[0, 0, 0]	n/a	FR1	4	R1395M
297.646	0.933	632221	WORD_OFF	n/a	n/a	BEAK	7	2	[0, 0, 0]	n/a	FR1	4	R1395M
298.579	1.6	633157	WORD	n/a	wordpools/wordpool_long_EN.txt	CROSS	8	2	[0, 0, 0]	n/a	FR1	4	R1395M
300.179	0.867	634757	WORD_OFF	n/a	n/a	CROSS	8	2	[0, 0, 0]	n/a	FR1	4	R1395M
301.046	1.6	635628	WORD	n/a	wordpools/wordpool_long_EN.txt	DEER	9	2	[0, 0, 0]	n/a	FR1	4	R1395M
302.646	0.767	637228	WORD_OFF	n/a	n/a	DEER	9	2	[0, 0, 0]	n/a	FR1	4	R1395M
303.413	1.6	637986	WORD	n/a	wordpools/wordpool_long_EN.txt	FORT	10	2	[0, 0, 0]	n/a	FR1	4	R1395M
305.013	0.867	639596	WORD_OFF	n/a	n/a	FORT	10	2	[0, 0, 0]	n/a	FR1	4	R1395M
305.88	1.617	640457	WORD	n/a	wordpools/wordpool_long_EN.txt	TAIL	11	2	[0, 0, 0]	n/a	FR1	4	R1395M
307.497	0.817	642076	WORD_OFF	n/a	n/a	TAIL	11	2	[0, 0, 0]	n/a	FR1	4	R1395M
308.314	1.6	642890	WORD	n/a	wordpools/wordpool_long_EN.txt	CAT	12	2	[0, 0, 0]	n/a	FR1	4	R1395M
309.914	0.001	644490	WORD_OFF	n/a	n/a	CAT	12	2	[0, 0, 0]	n/a	FR1	4	R1395M
309.915	0.0	644490	ENCODING_END	n/a	n/a	n/a	-999	2	[0, 0, 0]	n/a	FR1	4	R1395M
309.915	0.001	644491	PROB	0.001	n/a	n/a	-999	2	[6, 6, 7]	19	FR1	4	R1395M
309.916	0.0	644500	DISTRACT_START	n/a	n/a	n/a	-999	2	[0, 0, 0]	n/a	FR1	4	R1395M
309.916	3.198	644492	START	n/a	n/a	n/a	-999	2	[-999, -999, -999]	n/a	FR1	4	R1395M
313.114	2.733	647690	PROB	2.733	n/a	n/a	-999	2	[1, 7, 3]	11	FR1	4	R1395M
315.847	2.434	650423	PROB	2.434	n/a	n/a	-999	2	[1, 8, 2]	11	FR1	4	R1395M
318.281	2.383	652856	PROB	2.383	n/a	n/a	-999	2	[2, 2, 2]	6	FR1	4	R1395M
320.664	2.2	655239	PROB	2.2	n/a	n/a	-999	2	[3, 1, 4]	8	FR1	4	R1395M
322.864	2.932	657439	PROB	2.932	n/a	n/a	-999	2	[7, 2, 5]	14	FR1	4	R1395M
325.796	3.885	660371	PROB	3.885	n/a	n/a	-999	2	[8, 4, 7]	19	FR1	4	R1395M
329.681	3.016	664256	PROB	3.016	n/a	n/a	-999	2	[1, 8, 3]	12	FR1	4	R1395M
332.697	0.0	667269	DISTRACT_END	n/a	n/a	n/a	-999	2	[0, 0, 0]	n/a	FR1	4	R1395M
332.697	2.166	667272	STOP	n/a	n/a	n/a	-999	2	[-999, -999, -999]	n/a	FR1	4	R1395M
334.863	2.218	669439	REC_START	n/a	n/a	n/a	-999	2	[0, 0, 0]	n/a	FR1	4	R1395M
337.081	1.92	671656	REC_WORD	1.92	n/a	ELF	4	2	[0, 0, 0]	n/a	FR1	4	R1395M
339.001	1.433	673575	REC_WORD	1.433	n/a	LOCK	2	2	[0, 0, 0]	n/a	FR1	4	R1395M
340.434	1.768	675008	REC_WORD	1.768	n/a	GATE	3	2	[0, 0, 0]	n/a	FR1	4	R1395M
342.202	9.92	676776	REC_WORD	9.92	n/a	SPEAR	5	2	[0, 0, 0]	n/a	FR1	4	R1395M
352.122	12.97	686696	REC_WORD_VV	12.97	n/a	<>	-999	2	[0, 0, 0]	n/a	FR1	4	R1395M
365.092	1.938	699668	REC_END	n/a	n/a	n/a	-999	2	[0, 0, 0]	n/a	FR1	4	R1395M
367.03	10.35	701605	COUNTDOWN_START	n/a	n/a	n/a	-999	3	[0, 0, 0]	n/a	FR1	4	R1395M
377.38	0.0	711956	COUNTDOWN_END	n/a	n/a	n/a	-999	3	[0, 0, 0]	n/a	FR1	4	R1395M
377.38	1.983	711956	ENCODING_START	n/a	n/a	n/a	-999	3	[0, 0, 0]	n/a	FR1	4	R1395M
379.363	1.616	713940	WORD	n/a	wordpools/wordpool_long_EN.txt	WAND	1	3	[0, 0, 0]	n/a	FR1	4	R1395M
380.979	0.967	715549	WORD_OFF	n/a	n/a	WAND	1	3	[0, 0, 0]	n/a	FR1	4	R1395M
381.946	1.617	716523	WORD	n/a	wordpools/wordpool_long_EN.txt	FUR	2	3	[0, 0, 0]	n/a	FR1	4	R1395M
383.563	0.866	718132	WORD_OFF	n/a	n/a	FUR	2	3	[0, 0, 0]	n/a	FR1	4	R1395M
384.429	1.6	719003	WORD	n/a	wordpools/wordpool_long_EN.txt	LAND	3	3	[0, 0, 0]	n/a	FR1	4	R1395M
386.029	0.884	720603	WORD_OFF	n/a	n/a	LAND	3	3	[0, 0, 0]	n/a	FR1	4	R1395M
386.913	1.6	721483	WORD	n/a	wordpools/wordpool_long_EN.txt	CHIEF	4	3	[0, 0, 0]	n/a	FR1	4	R1395M
388.513	1.0	723083	WORD_OFF	n/a	n/a	CHIEF	4	3	[0, 0, 0]	n/a	FR1	4	R1395M
389.513	1.6	724084	WORD	n/a	wordpools/wordpool_long_EN.txt	ROAD	5	3	[0, 0, 0]	n/a	FR1	4	R1395M
391.113	0.766	725684	WORD_OFF	n/a	n/a	ROAD	5	3	[0, 0, 0]	n/a	FR1	4	R1395M
391.879	1.616	726452	WORD	n/a	wordpools/wordpool_long_EN.txt	BANK	6	3	[0, 0, 0]	n/a	FR1	4	R1395M
393.495	0.884	728071	WORD_OFF	n/a	n/a	BANK	6	3	[0, 0, 0]	n/a	FR1	4	R1395M
394.379	1.6	728951	WORD	n/a	wordpools/wordpool_long_EN.txt	CARD	7	3	[0, 0, 0]	n/a	FR1	4	R1395M
395.979	0.9	730551	WORD_OFF	n/a	n/a	CARD	7	3	[0, 0, 0]	n/a	FR1	4	R1395M
396.879	1.617	731449	WORD	n/a	wordpools/wordpool_long_EN.txt	SEED	8	3	[0, 0, 0]	n/a	FR1	4	R1395M
398.496	0.8	733068	WORD_OFF	n/a	n/a	SEED	8	3	[0, 0, 0]	n/a	FR1	4	R1395M
399.296	1.6	733864	WORD	n/a	wordpools/wordpool_long_EN.txt	LAWN	9	3	[0, 0, 0]	n/a	FR1	4	R1395M
400.896	0.8	735464	WORD_OFF	n/a	n/a	LAWN	9	3	[0, 0, 0]	n/a	FR1	4	R1395M
401.696	1.6	736269	WORD	n/a	wordpools/wordpool_long_EN.txt	CLOWN	10	3	[0, 0, 0]	n/a	FR1	4	R1395M
403.296	0.9	737869	WORD_OFF	n/a	n/a	CLOWN	10	3	[0, 0, 0]	n/a	FR1	4	R1395M
404.196	1.617	738768	WORD	n/a	wordpools/wordpool_long_EN.txt	BOX	11	3	[0, 0, 0]	n/a	FR1	4	R1395M
405.813	0.817	740387	WORD_OFF	n/a	n/a	BOX	11	3	[0, 0, 0]	n/a	FR1	4	R1395M
406.63	1.6	741201	WORD	n/a	wordpools/wordpool_long_EN.txt	YARD	12	3	[0, 0, 0]	n/a	FR1	4	R1395M
408.23	0.001	742801	WORD_OFF	n/a	n/a	YARD	12	3	[0, 0, 0]	n/a	FR1	4	R1395M
408.231	0.0	742801	ENCODING_END	n/a	n/a	n/a	-999	3	[0, 0, 0]	n/a	FR1	4	R1395M
408.231	0.001	742802	PROB	0.001	n/a	n/a	-999	3	[1, 3, 2]	6	FR1	4	R1395M
408.232	0.0	742801	DISTRACT_START	n/a	n/a	n/a	-999	3	[0, 0, 0]	n/a	FR1	4	R1395M
408.232	3.282	742803	START	n/a	n/a	n/a	-999	3	[-999, -999, -999]	n/a	FR1	4	R1395M
411.514	3.416	746085	PROB	3.416	n/a	n/a	-999	3	[6, 5, 4]	15	FR1	4	R1395M
414.93	4.383	749500	PROB	4.383	n/a	n/a	-999	3	[7, 6, 8]	21	FR1	4	R1395M
419.313	2.568	753883	PROB	2.568	n/a	n/a	-999	3	[2, 2, 3]	7	FR1	4	R1395M
421.881	2.732	756451	PROB	2.732	n/a	n/a	-999	3	[6, 4, 7]	17	FR1	4	R1395M
424.613	2.334	759183	PROB	2.334	n/a	n/a	-999	3	[4, 4, 4]	12	FR1	4	R1395M
426.947	2.416	761517	PROB	2.416	n/a	n/a	-999	3	[2, 7, 1]	10	FR1	4	R1395M
429.363	0.0	763933	DISTRACT_END	n/a	n/a	n/a	-999	3	[0, 0, 0]	n/a	FR1	4	R1395M
429.363	2.267	763933	STOP	n/a	n/a	n/a	-999	3	[-999, -999, -999]	n/a	FR1	4	R1395M
431.63	2.993	766196	REC_START	n/a	n/a	n/a	-999	3	[0, 0, 0]	n/a	FR1	4	R1395M
434.623	1.469	769192	REC_WORD	1.469	n/a	BANK	6	3	[0, 0, 0]	n/a	FR1	4	R1395M
436.092	5.276	770661	REC_WORD	5.276	n/a	CARD	7	3	[0, 0, 0]	n/a	FR1	4	R1395M
441.368	20.485	775937	REC_WORD	20.485	n/a	SLEEP	-999	3	[0, 0, 0]	n/a	FR1	4	R1395M
461.853	19.777	796425	REC_END	n/a	n/a	n/a	-999	3	[0, 0, 0]	n/a	FR1	4	R1395M
481.63	10.35	816200	COUNTDOWN_START	n/a	n/a	n/a	-999	4	[0, 0, 0]	n/a	FR1	4	R1395M
491.98	0.0	826550	COUNTDOWN_END	n/a	n/a	n/a	-999	4	[0, 0, 0]	n/a	FR1	4	R1395M
491.98	1.816	826550	ENCODING_START	n/a	n/a	n/a	-999	4	[0, 0, 0]	n/a	FR1	4	R1395M
493.796	1.617	828366	WORD	n/a	wordpools/wordpool_long_EN.txt	DRINK	1	4	[0, 0, 0]	n/a	FR1	4	R1395M
495.413	0.833	829975	WORD_OFF	n/a	n/a	DRINK	1	4	[0, 0, 0]	n/a	FR1	4	R1395M
496.246	1.6	830808	WORD	n/a	wordpools/wordpool_long_EN.txt	SUIT	2	4	[0, 0, 0]	n/a	FR1	4	R1395M
497.846	0.916	832409	WORD_OFF	n/a	n/a	SUIT	2	4	[0, 0, 0]	n/a	FR1	4	R1395M
498.762	1.6	833326	WORD	n/a	wordpools/wordpool_long_EN.txt	WING	3	4	[0, 0, 0]	n/a	FR1	4	R1395M
500.362	0.834	834926	WORD_OFF	n/a	n/a	WING	3	4	[0, 0, 0]	n/a	FR1	4	R1395M
501.196	1.616	835759	WORD	n/a	wordpools/wordpool_long_EN.txt	DIME	4	4	[0, 0, 0]	n/a	FR1	4	R1395M
502.812	0.917	837378	WORD_OFF	n/a	n/a	DIME	4	4	[0, 0, 0]	n/a	FR1	4	R1395M
503.729	1.617	838295	WORD	n/a	wordpools/wordpool_long_EN.txt	BUSH	5	4	[0, 0, 0]	n/a	FR1	4	R1395M
505.346	0.95	839914	WORD_OFF	n/a	n/a	BUSH	5	4	[0, 0, 0]	n/a	FR1	4	R1395M
506.296	1.617	840859	WORD	n/a	wordpools/wordpool_long_EN.txt	DOG	6	4	[0, 0, 0]	n/a	FR1	4	R1395M
507.913	0.952	842478	WORD_OFF	n/a	n/a	DOG	6	4	[0, 0, 0]	n/a	FR1	4	R1395M
508.865	1.599	843433	WORD	n/a	wordpools/wordpool_long_EN.txt	VEST	7	4	[0, 0, 0]	n/a	FR1	4	R1395M
510.464	0.866	845033	WORD_OFF	n/a	n/a	VEST	7	4	[0, 0, 0]	n/a	FR1	4	R1395M
511.33	1.601	845894	WORD	n/a	wordpools/wordpool_long_EN.txt	CROWN	8	4	[0, 0, 0]	n/a	FR1	4	R1395M
512.931	0.85	847495	WORD_OFF	n/a	n/a	CROWN	8	4	[0, 0, 0]	n/a	FR1	4	R1395M
513.781	1.617	848346	WORD	n/a	wordpools/wordpool_long_EN.txt	APE	9	4	[0, 0, 0]	n/a	FR1	4	R1395M
515.398	0.882	849965	WORD_OFF	n/a	n/a	APE	9	4	[0, 0, 0]	n/a	FR1	4	R1395M
516.28	1.6	850845	WORD	n/a	wordpools/wordpool_long_EN.txt	THUMB	10	4	[0, 0, 0]	n/a	FR1	4	R1395M
517.88	1.0	852445	WORD_OFF	n/a	n/a	THUMB	10	4	[0, 0, 0]	n/a	FR1	4	R1395M
518.88	1.6	853447	WORD	n/a	wordpools/wordpool_long_EN.txt	HOLE	11	4	[0, 0, 0]	n/a	FR1	4	R1395M
520.48	0.783	855047	WORD_OFF	n/a	n/a	HOLE	11	4	[0, 0, 0]	n/a	FR1	4	R1395M
521.263	1.601	855833	WORD	n/a	wordpools/wordpool_long_EN.txt	TOAD	12	4	[0, 0, 0]	n/a	FR1	4	R1395M
522.864	0.0	857433	WORD_OFF	n/a	n/a	TOAD	12	4	[0, 0, 0]	n/a	FR1	4	R1395M
522.864	0.002	857429	PROB	0.002	n/a	n/a	-999	4	[8, 4, 6]	18	FR1	4	R1395M
522.866	0.0	857433	ENCODING_END	n/a	n/a	n/a	-999	4	[0, 0, 0]	n/a	FR1	4	R1395M
522.866	0.0	857433	DISTRACT_START	n/a	n/a	n/a	-999	4	[0, 0, 0]	n/a	FR1	4	R1395M
522.866	3.648	857431	START	n/a	n/a	n/a	-999	4	[-999, -999, -999]	n/a	FR1	4	R1395M
526.514	2.666	861078	PROB	2.666	n/a	n/a	-999	4	[8, 6, 1]	15	FR1	4	R1395M
529.18	3.401	863744	PROB	3.401	n/a	n/a	-999	4	[8, 5, 8]	21	FR1	4	R1395M
532.581	1.916	867145	PROB	1.916	n/a	n/a	-999	4	[4, 7, 1]	12	FR1	4	R1395M
534.497	2.617	869061	PROB	2.617	n/a	n/a	-999	4	[3, 1, 1]	5	FR1	4	R1395M
537.114	2.8	871678	PROB	2.8	n/a	n/a	-999	4	[6, 7, 7]	20	FR1	4	R1395M
539.914	3.916	874478	PROB	3.916	n/a	n/a	-999	4	[6, 8, 6]	20	FR1	4	R1395M
543.83	0.0	878396	DISTRACT_END	n/a	n/a	n/a	-999	4	[0, 0, 0]	n/a	FR1	4	R1395M
543.83	2.017	878393	STOP	n/a	n/a	n/a	-999	4	[-999, -999, -999]	n/a	FR1	4	R1395M
545.847	1.213	880407	REC_START	n/a	n/a	n/a	-999	4	[0, 0, 0]	n/a	FR1	4	R1395M
547.06	1.118	881623	REC_WORD	1.118	n/a	THUMB	10	4	[0, 0, 0]	n/a	FR1	4	R1395M
548.178	1.967	882741	REC_WORD	1.967	n/a	HOLE	11	4	[0, 0, 0]	n/a	FR1	4	R1395M
550.145	0.145	884708	REC_WORD_VV	0.145	n/a	<>	-999	4	[0, 0, 0]	n/a	FR1	4	R1395M
550.29	2.005	884853	REC_WORD	2.005	n/a	VEST	7	4	[0, 0, 0]	n/a	FR1	4	R1395M
552.295	8.485	886858	REC_WORD	8.485	n/a	CROWN	8	4	[0, 0, 0]	n/a	FR1	4	R1395M
560.78	15.29	895343	REC_WORD	15.29	n/a	DRINK	1	4	[0, 0, 0]	n/a	FR1	4	R1395M
576.07	2.443	910636	REC_END	n/a	n/a	n/a	-999	4	[0, 0, 0]	n/a	FR1	4	R1395M
578.513	10.35	913079	COUNTDOWN_START	n/a	n/a	n/a	-999	5	[0, 0, 0]	n/a	FR1	4	R1395M
588.863	0.0	923420	COUNTDOWN_END	n/a	n/a	n/a	-999	5	[0, 0, 0]	n/a	FR1	4	R1395M
588.863	2.033	923429	ENCODING_START	n/a	n/a	n/a	-999	5	[0, 0, 0]	n/a	FR1	4	R1395M
590.896	1.6	925460	WORD	n/a	wordpools/wordpool_long_EN.txt	SOAP	1	5	[0, 0, 0]	n/a	FR1	4	R1395M
592.496	0.934	927060	WORD_OFF	n/a	n/a	SOAP	1	5	[0, 0, 0]	n/a	FR1	4	R1395M
593.43	1.6	927996	WORD	n/a	wordpools/wordpool_long_EN.txt	BARN	2	5	[0, 0, 0]	n/a	FR1	4	R1395M
595.03	0.983	929587	WORD_OFF	n/a	n/a	BARN	2	5	[0, 0, 0]	n/a	FR1	4	R1395M
596.013	1.6	930579	WORD	n/a	wordpools/wordpool_long_EN.txt	CLOCK	3	5	[0, 0, 0]	n/a	FR1	4	R1395M
597.613	0.834	932179	WORD_OFF	n/a	n/a	CLOCK	3	5	[0, 0, 0]	n/a	FR1	4	R1395M
598.447	1.616	933012	WORD	n/a	wordpools/wordpool_long_EN.txt	TROUT	4	5	[0, 0, 0]	n/a	FR1	4	R1395M
600.063	0.8	934622	WORD_OFF	n/a	n/a	TROUT	4	5	[0, 0, 0]	n/a	FR1	4	R1395M
600.863	1.6	935427	WORD	n/a	wordpools/wordpool_long_EN.txt	SHOE	5	5	[0, 0, 0]	n/a	FR1	4	R1395M
602.463	1.0	937027	WORD_OFF	n/a	n/a	SHOE	5	5	[0, 0, 0]	n/a	FR1	4	R1395M
603.463	1.6	938029	WORD	n/a	wordpools/wordpool_long_EN.txt	SHARK	6	5	[0, 0, 0]	n/a	FR1	4	R1395M
605.063	0.999	939619	WORD_OFF	n/a	n/a	SHARK	6	5	[0, 0, 0]	n/a	FR1	4	R1395M
606.062	1.601	940621	WORD	n/a	wordpools/wordpool_long_EN.txt	RUST	7	5	[0, 0, 0]	n/a	FR1	4	R1395M
607.663	0.8	942221	WORD_OFF	n/a	n/a	RUST	7	5	[0, 0, 0]	n/a	FR1	4	R1395M
608.463	1.616	943026	WORD	n/a	wordpools/wordpool_long_EN.txt	CASH	8	5	[0, 0, 0]	n/a	FR1	4	R1395M
610.079	0.967	944636	WORD_OFF	n/a	n/a	CASH	8	5	[0, 0, 0]	n/a	FR1	4	R1395M
611.046	1.6	945609	WORD	n/a	wordpools/wordpool_long_EN.txt	SPOOL	9	5	[0, 0, 0]	n/a	FR1	4	R1395M
612.646	0.918	947209	WORD_OFF	n/a	n/a	SPOOL	9	5	[0, 0, 0]	n/a	FR1	4	R1395M
613.564	1.615	948126	WORD	n/a	wordpools/wordpool_long_EN.txt	ZOO	10	5	[0, 0, 0]	n/a	FR1	4	R1395M
615.179	0.8	949736	WORD_OFF	n/a	n/a	ZOO	10	5	[0, 0, 0]	n/a	FR1	4	R1395M
615.979	1.601	950541	WORD	n/a	wordpools/wordpool_long_EN.txt	BOARD	11	5	[0, 0, 0]	n/a	FR1	4	R1395M
617.58	0.866	952141	WORD_OFF	n/a	n/a	BOARD	11	5	[0, 0, 0]	n/a	FR1	4	R1395M
618.446	1.601	953002	WORD	n/a	wordpools/wordpool_long_EN.txt	BATH	12	5	[0, 0, 0]	n/a	FR1	4	R1395M
620.047	0.0	954602	WORD_OFF	n/a	n/a	BATH	12	5	[0, 0, 0]	n/a	FR1	4	R1395M
620.047	0.001	954606	PROB	0.001	n/a	n/a	-999	5	[6, 2, 7]	15	FR1	4	R1395M
620.048	0.0	954612	ENCODING_END	n/a	n/a	n/a	-999	5	[0, 0, 0]	n/a	FR1	4	R1395M
620.048	0.0	954612	DISTRACT_START	n/a	n/a	n/a	-999	5	[0, 0, 0]	n/a	FR1	4	R1395M
620.048	4.316	954607	START	n/a	n/a	n/a	-999	5	[-999, -999, -999]	n/a	FR1	4	R1395M
624.364	2.699	958923	PROB	2.699	n/a	n/a	-999	5	[1, 5, 3]	9	FR1	4	R1395M
627.063	2.969	961622	PROB	2.969	n/a	n/a	-999	5	[7, 6, 3]	16	FR1	4	R1395M
630.032	2.548	964591	PROB	2.548	n/a	n/a	-999	5	[7, 3, 8]	18	FR1	4	R1395M
632.58	2.266	967139	PROB	2.266	n/a	n/a	-999	5	[5, 4, 2]	11	FR1	4	R1395M
634.846	3.284	969405	PROB	3.284	n/a	n/a	-999	5	[7, 2, 6]	15	FR1	4	R1395M
638.13	2.5	972688	PROB	2.5	n/a	n/a	-999	5	[4, 5, 2]	11	FR1	4	R1395M
640.63	0.0	975191	DISTRACT_END	n/a	n/a	n/a	-999	5	[0, 0, 0]	n/a	FR1	4	R1395M
640.63	2.083	975188	STOP	n/a	n/a	n/a	-999	5	[-999, -999, -999]	n/a	FR1	4	R1395M
642.713	3.814	977267	REC_START	n/a	n/a	n/a	-999	5	[0, 0, 0]	n/a	FR1	4	R1395M
646.527	1.041	981085	REC_WORD_VV	1.041	n/a	<>	-999	5	[0, 0, 0]	n/a	FR1	4	R1395M
647.568	1.773	982126	REC_WORD	1.773	n/a	SCHOOL	-999	5	[0, 0, 0]	n/a	FR1	4	R1395M
649.341	7.006	983899	REC_WORD	7.006	n/a	CLASH	-999	5	[0, 0, 0]	n/a	FR1	4	R1395M
656.347	10.993	990905	REC_WORD	10.993	n/a	CLOCK	3	5	[0, 0, 0]	n/a	FR1	4	R1395M
667.34	5.601	1001897	REC_WORD	5.601	n/a	SHARK	6	5	[0, 0, 0]	n/a	FR1	4	R1395M
672.941	38.571	1007497	REC_END	n/a	n/a	n/a	-999	5	[0, 0, 0]	n/a	FR1	4	R1395M
711.512	10.352	1046072	COUNTDOWN_START	n/a	n/a	n/a	-999	6	[0, 0, 0]	n/a	FR1	4	R1395M
721.864	0.0	1056423	COUNTDOWN_END	n/a	n/a	n/a	-999	6	[0, 0, 0]	n/a	FR1	4	R1395M
721.864	1.799	1056423	ENCODING_START	n/a	n/a	n/a	-999	6	[0, 0, 0]	n/a	FR1	4	R1395M
723.663	1.617	1058220	WORD	n/a	wordpools/wordpool_long_EN.txt	EGG	1	6	[0, 0, 0]	n/a	FR1	4	R1395M
725.28	0.883	1059839	WORD_OFF	n/a	n/a	EGG	1	6	[0, 0, 0]	n/a	FR1	4	R1395M
726.163	1.616	1060718	WORD	n/a	wordpools/wordpool_long_EN.txt	MOON	2	6	[0, 0, 0]	n/a	FR1	4	R1395M
727.779	0.868	1062337	WORD_OFF	n/a	n/a	MOON	2	6	[0, 0, 0]	n/a	FR1	4	R1395M
728.647	1.616	1063198	WORD	n/a	wordpools/wordpool_long_EN.txt	BENCH	3	6	[0, 0, 0]	n/a	FR1	4	R1395M
730.263	0.8	1064817	WORD_OFF	n/a	n/a	BENCH	3	6	[0, 0, 0]	n/a	FR1	4	R1395M
731.063	1.6	1065622	WORD	n/a	wordpools/wordpool_long_EN.txt	STRING	4	6	[0, 0, 0]	n/a	FR1	4	R1395M
732.663	0.967	1067222	WORD_OFF	n/a	n/a	STRING	4	6	[0, 0, 0]	n/a	FR1	4	R1395M
733.63	1.6	1068186	WORD	n/a	wordpools/wordpool_long_EN.txt	THIEF	5	6	[0, 0, 0]	n/a	FR1	4	R1395M
735.23	0.816	1069787	WORD_OFF	n/a	n/a	THIEF	5	6	[0, 0, 0]	n/a	FR1	4	R1395M
736.046	1.6	1070601	WORD	n/a	wordpools/wordpool_long_EN.txt	SMILE	6	6	[0, 0, 0]	n/a	FR1	4	R1395M
737.646	0.983	1072201	WORD_OFF	n/a	n/a	SMILE	6	6	[0, 0, 0]	n/a	FR1	4	R1395M
738.629	1.601	1073184	WORD	n/a	wordpools/wordpool_long_EN.txt	GREASE	7	6	[0, 0, 0]	n/a	FR1	4	R1395M
740.23	0.817	1074784	WORD_OFF	n/a	n/a	GREASE	7	6	[0, 0, 0]	n/a	FR1	4	R1395M
741.047	1.6	1075598	WORD	n/a	wordpools/wordpool_long_EN.txt	BREAD	8	6	[0, 0, 0]	n/a	FR1	4	R1395M
742.647	0.966	1077199	WORD_OFF	n/a	n/a	BREAD	8	6	[0, 0, 0]	n/a	FR1	4	R1395M
743.613	1.617	1078162	WORD	n/a	wordpools/wordpool_long_EN.txt	PARK	9	6	[0, 0, 0]	n/a	FR1	4	R1395M
745.23	0.816	1079782	WORD_OFF	n/a	n/a	PARK	9	6	[0, 0, 0]	n/a	FR1	4	R1395M
746.046	1.617	1080596	WORD	n/a	wordpools/wordpool_long_EN.txt	SUN	10	6	[0, 0, 0]	n/a	FR1	4	R1395M
747.663	0.95	1082215	WORD_OFF	n/a	n/a	SUN	10	6	[0, 0, 0]	n/a	FR1	4	R1395M
748.613	1.6	1083169	WORD	n/a	wordpools/wordpool_long_EN.txt	HEDGE	11	6	[0, 0, 0]	n/a	FR1	4	R1395M
750.213	0.967	1084770	WORD_OFF	n/a	n/a	HEDGE	11	6	[0, 0, 0]	n/a	FR1	4	R1395M
751.18	1.617	1085733	WORD	n/a	wordpools/wordpool_long_EN.txt	CRIB	12	6	[0, 0, 0]	n/a	FR1	4	R1395M
752.797	0.0	1087352	WORD_OFF	n/a	n/a	CRIB	12	6	[0, 0, 0]	n/a	FR1	4	R1395M
752.797	0.001	1087349	PROB	0.001	n/a	n/a	-999	6	[6, 8, 4]	18	FR1	4	R1395M
752.798	0.0	1087352	ENCODING_END	n/a	n/a	n/a	-999	6	[0, 0, 0]	n/a	FR1	4	R1395M
752.798	0.0	1087352	DISTRACT_START	n/a	n/a	n/a	-999	6	[0, 0, 0]	n/a	FR1	4	R1395M
752.798	4.483	1087350	START	n/a	n/a	n/a	-999	6	[-999, -999, -999]	n/a	FR1	4	R1395M
757.281	5.665	1091833	PROB	5.665	n/a	n/a	-999	6	[7, 6, 7]	20	FR1	4	R1395M
762.946	2.734	1097498	PROB	2.734	n/a	n/a	-999	6	[5, 5, 8]	18	FR1	4	R1395M
765.68	2.167	1100232	PROB	2.167	n/a	n/a	-999	6	[4, 4, 3]	11	FR1	4	R1395M
767.847	3.15	1102399	PROB	3.15	n/a	n/a	-999	6	[4, 7, 2]	13	FR1	4	R1395M
770.997	2.366	1105548	PROB	2.366	n/a	n/a	-999	6	[1, 5, 7]	13	FR1	4	R1395M
773.363	0.0	1107913	DISTRACT_END	n/a	n/a	n/a	-999	6	[0, 0, 0]	n/a	FR1	4	R1395M
773.363	2.233	1107914	STOP	n/a	n/a	n/a	-999	6	[-999, -999, -999]	n/a	FR1	4	R1395M
775.596	4.776	1110148	REC_START	n/a	n/a	n/a	-999	6	[0, 0, 0]	n/a	FR1	4	R1395M
780.372	2.277	1114923	REC_WORD	2.277	n/a	PARK	9	6	[0, 0, 0]	n/a	FR1	4	R1395M
782.649	2.346	1117200	REC_WORD	2.346	n/a	SUN	10	6	[0, 0, 0]	n/a	FR1	4	R1395M
784.995	3.764	1119546	REC_WORD	3.764	n/a	HEDGE	11	6	[0, 0, 0]	n/a	FR1	4	R1395M
788.759	17.06	1123310	REC_WORD	17.06	n/a	STRING	4	6	[0, 0, 0]	n/a	FR1	4	R1395M
805.819	2.944	1140368	REC_END	n/a	n/a	n/a	-999	6	[0, 0, 0]	n/a	FR1	4	R1395M
808.763	10.35	1143316	COUNTDOWN_START	n/a	n/a	n/a	-999	7	[0, 0, 0]	n/a	FR1	4	R1395M
819.113	0.0	1153667	COUNTDOWN_END	n/a	n/a	n/a	-999	7	[0, 0, 0]	n/a	FR1	4	R1395M
819.113	2.216	1153667	ENCODING_START	n/a	n/a	n/a	-999	7	[0, 0, 0]	n/a	FR1	4	R1395M
821.329	1.601	1155875	WORD	n/a	wordpools/wordpool_long_EN.txt	MUD	1	7	[0, 0, 0]	n/a	FR1	4	R1395M
822.93	0.917	1157476	WORD_OFF	n/a	n/a	MUD	1	7	[0, 0, 0]	n/a	FR1	4	R1395M
823.847	1.617	1158393	WORD	n/a	wordpools/wordpool_long_EN.txt	LEAF	2	7	[0, 0, 0]	n/a	FR1	4	R1395M
825.464	0.982	1160012	WORD_OFF	n/a	n/a	LEAF	2	7	[0, 0, 0]	n/a	FR1	4	R1395M
826.446	1.617	1160994	WORD	n/a	wordpools/wordpool_long_EN.txt	WASP	3	7	[0, 0, 0]	n/a	FR1	4	R1395M
828.063	0.967	1162613	WORD_OFF	n/a	n/a	WASP	3	7	[0, 0, 0]	n/a	FR1	4	R1395M
829.03	1.6	1163577	WORD	n/a	wordpools/wordpool_long_EN.txt	SQUARE	4	7	[0, 0, 0]	n/a	FR1	4	R1395M
830.63	0.799	1165178	WORD_OFF	n/a	n/a	SQUARE	4	7	[0, 0, 0]	n/a	FR1	4	R1395M
831.429	1.601	1165982	WORD	n/a	wordpools/wordpool_long_EN.txt	FOX	5	7	[0, 0, 0]	n/a	FR1	4	R1395M
833.03	0.949	1167583	WORD_OFF	n/a	n/a	FOX	5	7	[0, 0, 0]	n/a	FR1	4	R1395M
833.979	1.6	1168528	WORD	n/a	wordpools/wordpool_long_EN.txt	WRIST	6	7	[0, 0, 0]	n/a	FR1	4	R1395M
835.579	0.984	1170128	WORD_OFF	n/a	n/a	WRIST	6	7	[0, 0, 0]	n/a	FR1	4	R1395M
836.563	1.616	1171111	WORD	n/a	wordpools/wordpool_long_EN.txt	FACE	7	7	[0, 0, 0]	n/a	FR1	4	R1395M
838.179	0.901	1172730	WORD_OFF	n/a	n/a	FACE	7	7	[0, 0, 0]	n/a	FR1	4	R1395M
839.08	1.6	1173628	WORD	n/a	wordpools/wordpool_long_EN.txt	GRILL	8	7	[0, 0, 0]	n/a	FR1	4	R1395M
840.68	0.883	1175229	WORD_OFF	n/a	n/a	GRILL	8	7	[0, 0, 0]	n/a	FR1	4	R1395M
841.563	1.6	1176108	WORD	n/a	wordpools/wordpool_long_EN.txt	CART	9	7	[0, 0, 0]	n/a	FR1	4	R1395M
843.163	0.8	1177709	WORD_OFF	n/a	n/a	CART	9	7	[0, 0, 0]	n/a	FR1	4	R1395M
843.963	1.6	1178514	WORD	n/a	wordpools/wordpool_long_EN.txt	BAND	10	7	[0, 0, 0]	n/a	FR1	4	R1395M
845.563	0.95	1180114	WORD_OFF	n/a	n/a	BAND	10	7	[0, 0, 0]	n/a	FR1	4	R1395M
846.513	1.617	1181059	WORD	n/a	wordpools/wordpool_long_EN.txt	SLIME	11	7	[0, 0, 0]	n/a	FR1	4	R1395M
848.13	1.0	1182678	WORD_OFF	n/a	n/a	SLIME	11	7	[0, 0, 0]	n/a	FR1	4	R1395M
849.13	1.6	1183679	WORD	n/a	wordpools/wordpool_long_EN.txt	BEAST	12	7	[0, 0, 0]	n/a	FR1	4	R1395M
850.73	0.001	1185280	WORD_OFF	n/a	n/a	BEAST	12	7	[0, 0, 0]	n/a	FR1	4	R1395M
850.731	0.0	1185280	ENCODING_END	n/a	n/a	n/a	-999	7	[0, 0, 0]	n/a	FR1	4	R1395M
850.731	0.001	1185278	PROB	0.001	n/a	n/a	-999	7	[1, 1, 4]	6	FR1	4	R1395M
850.732	0.0	1185280	DISTRACT_START	n/a	n/a	n/a	-999	7	[0, 0, 0]	n/a	FR1	4	R1395M
850.732	2.981	1185279	START	n/a	n/a	n/a	-999	7	[-999, -999, -999]	n/a	FR1	4	R1395M
853.713	3.518	1188260	PROB	3.518	n/a	n/a	-999	7	[5, 2, 8]	15	FR1	4	R1395M
857.231	3.066	1191778	PROB	3.066	n/a	n/a	-999	7	[1, 4, 8]	13	FR1	4	R1395M
860.297	3.582	1194844	PROB	3.582	n/a	n/a	-999	7	[8, 8, 3]	19	FR1	4	R1395M
863.879	2.968	1198426	PROB	2.968	n/a	n/a	-999	7	[5, 7, 7]	19	FR1	4	R1395M
866.847	2.383	1201393	PROB	2.383	n/a	n/a	-999	7	[3, 3, 1]	7	FR1	4	R1395M
869.23	2.4	1203776	PROB	2.4	n/a	n/a	-999	7	[1, 2, 2]	5	FR1	4	R1395M
871.63	0.0	1206177	DISTRACT_END	n/a	n/a	n/a	-999	7	[0, 0, 0]	n/a	FR1	4	R1395M
871.63	2.183	1206176	STOP	n/a	n/a	n/a	-999	7	[-999, -999, -999]	n/a	FR1	4	R1395M
873.813	2.915	1208356	REC_START	n/a	n/a	n/a	-999	7	[0, 0, 0]	n/a	FR1	4	R1395M
876.728	2.214	1211274	REC_WORD	2.214	n/a	MUD	1	7	[0, 0, 0]	n/a	FR1	4	R1395M
878.942	5.749	1213488	REC_WORD	5.749	n/a	LEAF	2	7	[0, 0, 0]	n/a	FR1	4	R1395M
884.691	1.177	1219236	REC_WORD_VV	1.177	n/a	<>	-999	7	[0, 0, 0]	n/a	FR1	4	R1395M
885.868	1.566	1220413	REC_WORD	1.566	n/a	WRIST	6	7	[0, 0, 0]	n/a	FR1	4	R1395M
887.434	16.621	1221979	REC_WORD	16.621	n/a	FACE	7	7	[0, 0, 0]	n/a	FR1	4	R1395M
904.055	1.758	1238604	REC_END	n/a	n/a	n/a	-999	7	[0, 0, 0]	n/a	FR1	4	R1395M
905.813	10.35	1240364	COUNTDOWN_START	n/a	n/a	n/a	-999	8	[0, 0, 0]	n/a	FR1	4	R1395M
916.163	0.0	1250714	ENCODING_START	n/a	n/a	n/a	-999	8	[0, 0, 0]	n/a	FR1	4	R1395M
916.163	2.267	1250705	COUNTDOWN_END	n/a	n/a	n/a	-999	8	[0, 0, 0]	n/a	FR1	4	R1395M
918.43	1.616	1252979	WORD	n/a	wordpools/wordpool_long_EN.txt	SKI	1	8	[0, 0, 0]	n/a	FR1	4	R1395M
920.046	0.783	1254589	WORD_OFF	n/a	n/a	SKI	1	8	[0, 0, 0]	n/a	FR1	4	R1395M
920.829	1.601	1255375	WORD	n/a	wordpools/wordpool_long_EN.txt	BRICK	2	8	[0, 0, 0]	n/a	FR1	4	R1395M
922.43	0.966	1256975	WORD_OFF	n/a	n/a	BRICK	2	8	[0, 0, 0]	n/a	FR1	4	R1395M
923.396	1.617	1257939	WORD	n/a	wordpools/wordpool_long_EN.txt	VASE	3	8	[0, 0, 0]	n/a	FR1	4	R1395M
925.013	0.817	1259558	WORD_OFF	n/a	n/a	VASE	3	8	[0, 0, 0]	n/a	FR1	4	R1395M
925.83	1.617	1260372	WORD	n/a	wordpools/wordpool_long_EN.txt	SPOUSE	4	8	[0, 0, 0]	n/a	FR1	4	R1395M
927.447	0.933	1261991	WORD_OFF	n/a	n/a	SPOUSE	4	8	[0, 0, 0]	n/a	FR1	4	R1395M
928.38	1.6	1262927	WORD	n/a	wordpools/wordpool_long_EN.txt	GIRL	5	8	[0, 0, 0]	n/a	FR1	4	R1395M
929.98	0.817	1264527	WORD_OFF	n/a	n/a	GIRL	5	8	[0, 0, 0]	n/a	FR1	4	R1395M
930.797	1.6	1265342	WORD	n/a	wordpools/wordpool_long_EN.txt	CAGE	6	8	[0, 0, 0]	n/a	FR1	4	R1395M
932.397	0.766	1266942	WORD_OFF	n/a	n/a	CAGE	6	8	[0, 0, 0]	n/a	FR1	4	R1395M
933.163	1.601	1267709	WORD	n/a	wordpools/wordpool_long_EN.txt	MASK	7	8	[0, 0, 0]	n/a	FR1	4	R1395M
934.764	0.999	1269310	WORD_OFF	n/a	n/a	MASK	7	8	[0, 0, 0]	n/a	FR1	4	R1395M
935.763	1.617	1270311	WORD	n/a	wordpools/wordpool_long_EN.txt	TRENCH	8	8	[0, 0, 0]	n/a	FR1	4	R1395M
937.38	0.866	1271921	WORD_OFF	n/a	n/a	TRENCH	8	8	[0, 0, 0]	n/a	FR1	4	R1395M
938.246	1.6	1272791	WORD	n/a	wordpools/wordpool_long_EN.txt	HOSE	9	8	[0, 0, 0]	n/a	FR1	4	R1395M
939.846	0.751	1274391	WORD_OFF	n/a	n/a	HOSE	9	8	[0, 0, 0]	n/a	FR1	4	R1395M
940.597	1.6	1275140	WORD	n/a	wordpools/wordpool_long_EN.txt	CANE	10	8	[0, 0, 0]	n/a	FR1	4	R1395M
942.197	0.983	1276740	WORD_OFF	n/a	n/a	CANE	10	8	[0, 0, 0]	n/a	FR1	4	R1395M
943.18	1.6	1277723	WORD	n/a	wordpools/wordpool_long_EN.txt	WEED	11	8	[0, 0, 0]	n/a	FR1	4	R1395M
944.78	0.883	1279323	WORD_OFF	n/a	n/a	WEED	11	8	[0, 0, 0]	n/a	FR1	4	R1395M
945.663	1.6	1280203	WORD	n/a	wordpools/wordpool_long_EN.txt	LODGE	12	8	[0, 0, 0]	n/a	FR1	4	R1395M
947.263	0.001	1281803	WORD_OFF	n/a	n/a	LODGE	12	8	[0, 0, 0]	n/a	FR1	4	R1395M
947.264	0.001	1281806	PROB	0.001	n/a	n/a	-999	8	[2, 4, 5]	11	FR1	4	R1395M
947.265	0.0	1281812	ENCODING_END	n/a	n/a	n/a	-999	8	[0, 0, 0]	n/a	FR1	4	R1395M
947.265	0.0	1281812	DISTRACT_START	n/a	n/a	n/a	-999	8	[0, 0, 0]	n/a	FR1	4	R1395M
947.265	3.55	1281807	START	n/a	n/a	n/a	-999	8	[-999, -999, -999]	n/a	FR1	4	R1395M
950.815	2.416	1285357	PROB	2.416	n/a	n/a	-999	8	[1, 7, 5]	13	FR1	4	R1395M
953.231	2.233	1287773	PROB	2.233	n/a	n/a	-999	8	[1, 4, 1]	6	FR1	4	R1395M
955.464	2.084	1290006	PROB	2.084	n/a	n/a	-999	8	[3, 8, 2]	13	FR1	4	R1395M
957.548	2.466	1292090	PROB	2.466	n/a	n/a	-999	8	[7, 8, 2]	17	FR1	4	R1395M
960.014	3.699	1294555	PROB	3.699	n/a	n/a	-999	8	[5, 3, 8]	16	FR1	4	R1395M
963.713	2.801	1298254	PROB	2.801	n/a	n/a	-999	8	[4, 2, 5]	11	FR1	4	R1395M
966.514	2.749	1301055	PROB	2.749	n/a	n/a	-999	8	[4, 8, 4]	16	FR1	4	R1395M
969.263	0.0	1303805	DISTRACT_END	n/a	n/a	n/a	-999	8	[0, 0, 0]	n/a	FR1	4	R1395M
969.263	2.3	1303804	STOP	n/a	n/a	n/a	-999	8	[-999, -999, -999]	n/a	FR1	4	R1395M
971.563	1.439	1306106	REC_START	n/a	n/a	n/a	-999	8	[0, 0, 0]	n/a	FR1	4	R1395M
973.002	1.199	1307543	REC_WORD	1.199	n/a	TRENCH	8	8	[0, 0, 0]	n/a	FR1	4	R1395M
974.201	2.244	1308742	REC_WORD	2.244	n/a	HOSE	9	8	[0, 0, 0]	n/a	FR1	4	R1395M
976.445	1.029	1310986	REC_WORD	1.029	n/a	CANE	10	8	[0, 0, 0]	n/a	FR1	4	R1395M
977.474	1.598	1312015	REC_WORD	1.598	n/a	WEED	11	8	[0, 0, 0]	n/a	FR1	4	R1395M
979.072	1.219	1313612	REC_WORD	1.219	n/a	SPOUSE	4	8	[0, 0, 0]	n/a	FR1	4	R1395M
980.291	21.495	1314831	REC_WORD	21.495	n/a	GIRL	5	8	[0, 0, 0]	n/a	FR1	4	R1395M
1001.786	2.093	1336326	REC_END	n/a	n/a	n/a	-999	8	[0, 0, 0]	n/a	FR1	4	R1395M
1003.879	10.351	1338422	COUNTDOWN_START	n/a	n/a	n/a	-999	9	[0, 0, 0]	n/a	FR1	4	R1395M
1014.23	0.001	1348772	COUNTDOWN_END	n/a	n/a	n/a	-999	9	[0, 0, 0]	n/a	FR1	4	R1395M
1014.231	2.032	1348772	ENCODING_START	n/a	n/a	n/a	-999	9	[0, 0, 0]	n/a	FR1	4	R1395M
1016.263	1.616	1350803	WORD	n/a	wordpools/wordpool_long_EN.txt	HUT	1	9	[0, 0, 0]	n/a	FR1	4	R1395M
1017.879	0.883	1352422	WORD_OFF	n/a	n/a	HUT	1	9	[0, 0, 0]	n/a	FR1	4	R1395M
1018.762	1.6	1353302	WORD	n/a	wordpools/wordpool_long_EN.txt	SALT	2	9	[0, 0, 0]	n/a	FR1	4	R1395M
1020.362	0.884	1354902	WORD_OFF	n/a	n/a	SALT	2	9	[0, 0, 0]	n/a	FR1	4	R1395M
1021.246	1.601	1355782	WORD	n/a	wordpools/wordpool_long_EN.txt	BEAN	3	9	[0, 0, 0]	n/a	FR1	4	R1395M
1022.847	0.782	1357382	WORD_OFF	n/a	n/a	BEAN	3	9	[0, 0, 0]	n/a	FR1	4	R1395M
1023.629	1.6	1358168	WORD	n/a	wordpools/wordpool_long_EN.txt	FLEET	4	9	[0, 0, 0]	n/a	FR1	4	R1395M
1025.229	0.767	1359769	WORD_OFF	n/a	n/a	FLEET	4	9	[0, 0, 0]	n/a	FR1	4	R1395M
1025.996	1.6	1360536	WORD	n/a	wordpools/wordpool_long_EN.txt	CAVE	5	9	[0, 0, 0]	n/a	FR1	4	R1395M
1027.596	0.917	1362136	WORD_OFF	n/a	n/a	CAVE	5	9	[0, 0, 0]	n/a	FR1	4	R1395M
1028.513	1.617	1363053	WORD	n/a	wordpools/wordpool_long_EN.txt	PASTE	6	9	[0, 0, 0]	n/a	FR1	4	R1395M
1030.13	0.933	1364672	WORD_OFF	n/a	n/a	PASTE	6	9	[0, 0, 0]	n/a	FR1	4	R1395M
1031.063	1.6	1365599	WORD	n/a	wordpools/wordpool_long_EN.txt	SKATE	7	9	[0, 0, 0]	n/a	FR1	4	R1395M
1032.663	1.0	1367199	WORD_OFF	n/a	n/a	SKATE	7	9	[0, 0, 0]	n/a	FR1	4	R1395M
1033.663	1.6	1368201	WORD	n/a	wordpools/wordpool_long_EN.txt	INN	8	9	[0, 0, 0]	n/a	FR1	4	R1395M
1035.263	0.934	1369801	WORD_OFF	n/a	n/a	INN	8	9	[0, 0, 0]	n/a	FR1	4	R1395M
1036.197	1.6	1370737	WORD	n/a	wordpools/wordpool_long_EN.txt	BAG	9	9	[0, 0, 0]	n/a	FR1	4	R1395M
1037.797	0.783	1372337	WORD_OFF	n/a	n/a	BAG	9	9	[0, 0, 0]	n/a	FR1	4	R1395M
1038.58	1.6	1373114	WORD	n/a	wordpools/wordpool_long_EN.txt	EEL	10	9	[0, 0, 0]	n/a	FR1	4	R1395M
1040.18	0.966	1374714	WORD_OFF	n/a	n/a	EEL	10	9	[0, 0, 0]	n/a	FR1	4	R1395M
1041.146	1.601	1375687	WORD	n/a	wordpools/wordpool_long_EN.txt	SIGN	11	9	[0, 0, 0]	n/a	FR1	4	R1395M
1042.747	0.866	1377288	WORD_OFF	n/a	n/a	SIGN	11	9	[0, 0, 0]	n/a	FR1	4	R1395M
1043.613	1.6	1378149	WORD	n/a	wordpools/wordpool_long_EN.txt	WORM	12	9	[0, 0, 0]	n/a	FR1	4	R1395M
1045.213	0.001	1379749	WORD_OFF	n/a	n/a	WORM	12	9	[0, 0, 0]	n/a	FR1	4	R1395M
1045.214	0.001	1379751	PROB	0.001	n/a	n/a	-999	9	[2, 8, 4]	14	FR1	4	R1395M
1045.215	0.0	1379749	ENCODING_END	n/a	n/a	n/a	-999	9	[0, 0, 0]	n/a	FR1	4	R1395M
1045.215	0.0	1379758	DISTRACT_START	n/a	n/a	n/a	-999	9	[0, 0, 0]	n/a	FR1	4	R1395M
1045.215	4.382	1379752	START	n/a	n/a	n/a	-999	9	[-999, -999, -999]	n/a	FR1	4	R1395M
1049.597	2.783	1384134	PROB	2.783	n/a	n/a	-999	9	[2, 1, 8]	11	FR1	4	R1395M
1052.38	2.7	1386917	PROB	2.7	n/a	n/a	-999	9	[1, 8, 7]	16	FR1	4	R1395M
1055.08	1.968	1389616	PROB	1.968	n/a	n/a	-999	9	[8, 2, 2]	12	FR1	4	R1395M
1057.048	2.465	1391584	PROB	2.465	n/a	n/a	-999	9	[7, 5, 4]	16	FR1	4	R1395M
1059.513	1.884	1394049	PROB	1.884	n/a	n/a	-999	9	[5, 4, 2]	11	FR1	4	R1395M
1061.397	2.117	1395933	PROB	2.117	n/a	n/a	-999	9	[7, 4, 1]	12	FR1	4	R1395M
1063.514	2.299	1398050	PROB	2.299	n/a	n/a	-999	9	[5, 4, 3]	12	FR1	4	R1395M
1065.813	0.0	1400347	DISTRACT_END	n/a	n/a	n/a	-999	9	[0, 0, 0]	n/a	FR1	4	R1395M
1065.813	2.084	1400349	STOP	n/a	n/a	n/a	-999	9	[-999, -999, -999]	n/a	FR1	4	R1395M
1067.897	1.52	1402433	REC_START	n/a	n/a	n/a	-999	9	[0, 0, 0]	n/a	FR1	4	R1395M
1069.417	1.219	1403953	REC_WORD	1.219	n/a	SALT	2	9	[0, 0, 0]	n/a	FR1	4	R1395M
1070.636	1.963	1405172	REC_WORD	1.963	n/a	CAVE	5	9	[0, 0, 0]	n/a	FR1	4	R1395M
1072.599	1.206	1407134	REC_WORD	1.206	n/a	HUT	1	9	[0, 0, 0]	n/a	FR1	4	R1395M
1073.805	2.986	1408340	REC_WORD	2.986	n/a	INN	8	9	[0, 0, 0]	n/a	FR1	4	R1395M
1076.791	21.346	1411326	REC_WORD	21.346	n/a	EEL	10	9	[0, 0, 0]	n/a	FR1	4	R1395M
1098.137	3.26	1432671	REC_END	n/a	n/a	n/a	-999	9	[0, 0, 0]	n/a	FR1	4	R1395M
1101.397	10.349	1435937	COUNTDOWN_START	n/a	n/a	n/a	-999	10	[0, 0, 0]	n/a	FR1	4	R1395M
1111.746	0.0	1446278	COUNTDOWN_END	n/a	n/a	n/a	-999	10	[0, 0, 0]	n/a	FR1	4	R1395M
1111.746	1.901	1446278	ENCODING_START	n/a	n/a	n/a	-999	10	[0, 0, 0]	n/a	FR1	4	R1395M
1113.647	1.6	1448178	WORD	n/a	wordpools/wordpool_long_EN.txt	WEB	1	10	[0, 0, 0]	n/a	FR1	4	R1395M
1115.247	0.8	1449779	WORD_OFF	n/a	n/a	WEB	1	10	[0, 0, 0]	n/a	FR1	4	R1395M
1116.047	1.615	1450583	WORD	n/a	wordpools/wordpool_long_EN.txt	PRINCE	2	10	[0, 0, 0]	n/a	FR1	4	R1395M
1117.662	0.935	1452193	WORD_OFF	n/a	n/a	PRINCE	2	10	[0, 0, 0]	n/a	FR1	4	R1395M
1118.597	1.6	1453129	WORD	n/a	wordpools/wordpool_long_EN.txt	ICE	3	10	[0, 0, 0]	n/a	FR1	4	R1395M
1120.197	0.915	1454729	WORD_OFF	n/a	n/a	ICE	3	10	[0, 0, 0]	n/a	FR1	4	R1395M
1121.112	1.601	1455646	WORD	n/a	wordpools/wordpool_long_EN.txt	SMOG	4	10	[0, 0, 0]	n/a	FR1	4	R1395M
1122.713	0.966	1457247	WORD_OFF	n/a	n/a	SMOG	4	10	[0, 0, 0]	n/a	FR1	4	R1395M
1123.679	1.6	1458211	WORD	n/a	wordpools/wordpool_long_EN.txt	SLUG	5	10	[0, 0, 0]	n/a	FR1	4	R1395M
1125.279	0.917	1459811	WORD_OFF	n/a	n/a	SLUG	5	10	[0, 0, 0]	n/a	FR1	4	R1395M
1126.196	1.617	1460728	WORD	n/a	wordpools/wordpool_long_EN.txt	TEETH	6	10	[0, 0, 0]	n/a	FR1	4	R1395M
1127.813	0.783	1462347	WORD_OFF	n/a	n/a	TEETH	6	10	[0, 0, 0]	n/a	FR1	4	R1395M
1128.596	1.616	1463133	WORD	n/a	wordpools/wordpool_long_EN.txt	SHELL	7	10	[0, 0, 0]	n/a	FR1	4	R1395M
1130.212	0.851	1464743	WORD_OFF	n/a	n/a	SHELL	7	10	[0, 0, 0]	n/a	FR1	4	R1395M
1131.063	1.6	1465594	WORD	n/a	wordpools/wordpool_long_EN.txt	HEART	8	10	[0, 0, 0]	n/a	FR1	4	R1395M
1132.663	0.917	1467195	WORD_OFF	n/a	n/a	HEART	8	10	[0, 0, 0]	n/a	FR1	4	R1395M
1133.58	1.6	1468112	WORD	n/a	wordpools/wordpool_long_EN.txt	GRASS	9	10	[0, 0, 0]	n/a	FR1	4	R1395M
1135.18	0.767	1469712	WORD_OFF	n/a	n/a	GRASS	9	10	[0, 0, 0]	n/a	FR1	4	R1395M
1135.947	1.6	1470480	WORD	n/a	wordpools/wordpool_long_EN.txt	FLAG	10	10	[0, 0, 0]	n/a	FR1	4	R1395M
1137.547	0.915	1472080	WORD_OFF	n/a	n/a	FLAG	10	10	[0, 0, 0]	n/a	FR1	4	R1395M
1138.462	1.601	1472997	WORD	n/a	wordpools/wordpool_long_EN.txt	TREE	11	10	[0, 0, 0]	n/a	FR1	4	R1395M
1140.063	0.784	1474597	WORD_OFF	n/a	n/a	TREE	11	10	[0, 0, 0]	n/a	FR1	4	R1395M
1140.847	1.6	1475383	WORD	n/a	wordpools/wordpool_long_EN.txt	TRASH	12	10	[0, 0, 0]	n/a	FR1	4	R1395M
1142.447	0.001	1476974	WORD_OFF	n/a	n/a	TRASH	12	10	[0, 0, 0]	n/a	FR1	4	R1395M
1142.448	0.0	1476984	ENCODING_END	n/a	n/a	n/a	-999	10	[0, 0, 0]	n/a	FR1	4	R1395M
1142.448	0.0	1476984	DISTRACT_START	n/a	n/a	n/a	-999	10	[0, 0, 0]	n/a	FR1	4	R1395M
1142.448	0.0	1476980	START	n/a	n/a	n/a	-999	10	[-999, -999, -999]	n/a	FR1	4	R1395M
1142.448	6.215	1476980	PROB	6.215	n/a	n/a	-999	10	[7, 4, 7]	18	FR1	4	R1395M
1148.663	2.317	1483194	PROB	2.317	n/a	n/a	-999	10	[5, 3, 2]	10	FR1	4	R1395M
1150.98	5.551	1485511	PROB	5.551	n/a	n/a	-999	10	[7, 3, 3]	13	FR1	4	R1395M
1156.531	2.532	1491062	PROB	2.532	n/a	n/a	-999	10	[3, 2, 5]	10	FR1	4	R1395M
1159.063	2.518	1493594	PROB	2.518	n/a	n/a	-999	10	[2, 4, 3]	9	FR1	4	R1395M
1161.581	2.732	1496112	PROB	2.732	n/a	n/a	-999	10	[4, 4, 8]	16	FR1	4	R1395M
1164.313	0.0	1498845	DISTRACT_END	n/a	n/a	n/a	-999	10	[0, 0, 0]	n/a	FR1	4	R1395M
1164.313	2.017	1498844	STOP	n/a	n/a	n/a	-999	10	[-999, -999, -999]	n/a	FR1	4	R1395M
1166.33	1.809	1500865	REC_START	n/a	n/a	n/a	-999	10	[0, 0, 0]	n/a	FR1	4	R1395M
1168.139	1.193	1502669	REC_WORD	1.193	n/a	WEB	1	10	[0, 0, 0]	n/a	FR1	4	R1395M
1169.332	2.24	1503862	REC_WORD	2.24	n/a	PRINCE	2	10	[0, 0, 0]	n/a	FR1	4	R1395M
1171.572	1.605	1506102	REC_WORD	1.605	n/a	ICE	3	10	[0, 0, 0]	n/a	FR1	4	R1395M
1173.177	23.378	1507707	REC_WORD	23.378	n/a	SMOG	4	10	[0, 0, 0]	n/a	FR1	4	R1395M
1196.555	3.708	1531085	REC_END	n/a	n/a	n/a	-999	10	[0, 0, 0]	n/a	FR1	4	R1395M
1200.263	10.35	1534791	COUNTDOWN_START	n/a	n/a	n/a	-999	11	[0, 0, 0]	n/a	FR1	4	R1395M
1210.613	0.0	1545142	COUNTDOWN_END	n/a	n/a	n/a	-999	11	[0, 0, 0]	n/a	FR1	4	R1395M
1210.613	2.016	1545142	ENCODING_START	n/a	n/a	n/a	-999	11	[0, 0, 0]	n/a	FR1	4	R1395M
1212.629	1.617	1547154	WORD	n/a	wordpools/wordpool_long_EN.txt	YACHT	1	11	[0, 0, 0]	n/a	FR1	4	R1395M
1214.246	1.0	1548773	WORD_OFF	n/a	n/a	YACHT	1	11	[0, 0, 0]	n/a	FR1	4	R1395M
1215.246	1.6	1549774	WORD	n/a	wordpools/wordpool_long_EN.txt	BROOM	2	11	[0, 0, 0]	n/a	FR1	4	R1395M
1216.846	0.968	1551374	WORD_OFF	n/a	n/a	BROOM	2	11	[0, 0, 0]	n/a	FR1	4	R1395M
1217.814	1.615	1552338	WORD	n/a	wordpools/wordpool_long_EN.txt	SEAT	3	11	[0, 0, 0]	n/a	FR1	4	R1395M
1219.429	0.933	1553957	WORD_OFF	n/a	n/a	SEAT	3	11	[0, 0, 0]	n/a	FR1	4	R1395M
1220.362	1.617	1554893	WORD	n/a	wordpools/wordpool_long_EN.txt	INK	4	11	[0, 0, 0]	n/a	FR1	4	R1395M
1221.979	0.883	1556503	WORD_OFF	n/a	n/a	INK	4	11	[0, 0, 0]	n/a	FR1	4	R1395M
1222.862	1.601	1557392	WORD	n/a	wordpools/wordpool_long_EN.txt	BADGE	5	11	[0, 0, 0]	n/a	FR1	4	R1395M
1224.463	0.816	1558992	WORD_OFF	n/a	n/a	BADGE	5	11	[0, 0, 0]	n/a	FR1	4	R1395M
1225.279	1.6	1559806	WORD	n/a	wordpools/wordpool_long_EN.txt	MOUTH	6	11	[0, 0, 0]	n/a	FR1	4	R1395M
1226.879	0.867	1561407	WORD_OFF	n/a	n/a	MOUTH	6	11	[0, 0, 0]	n/a	FR1	4	R1395M
1227.746	1.618	1562277	WORD	n/a	wordpools/wordpool_long_EN.txt	SCHOOL	7	11	[0, 0, 0]	n/a	FR1	4	R1395M
1229.364	0.95	1563896	WORD_OFF	n/a	n/a	SCHOOL	7	11	[0, 0, 0]	n/a	FR1	4	R1395M
1230.314	1.6	1564841	WORD	n/a	wordpools/wordpool_long_EN.txt	CLOTH	8	11	[0, 0, 0]	n/a	FR1	4	R1395M
1231.914	0.933	1566441	WORD_OFF	n/a	n/a	CLOTH	8	11	[0, 0, 0]	n/a	FR1	4	R1395M
1232.847	1.6	1567377	WORD	n/a	wordpools/wordpool_long_EN.txt	STONE	9	11	[0, 0, 0]	n/a	FR1	4	R1395M
1234.447	0.866	1568978	WORD_OFF	n/a	n/a	STONE	9	11	[0, 0, 0]	n/a	FR1	4	R1395M
1235.313	1.6	1569839	WORD	n/a	wordpools/wordpool_long_EN.txt	LIP	10	11	[0, 0, 0]	n/a	FR1	4	R1395M
1236.913	0.999	1571439	WORD_OFF	n/a	n/a	LIP	10	11	[0, 0, 0]	n/a	FR1	4	R1395M
1237.912	1.601	1572440	WORD	n/a	wordpools/wordpool_long_EN.txt	STAKE	11	11	[0, 0, 0]	n/a	FR1	4	R1395M
1239.513	0.784	1574040	WORD_OFF	n/a	n/a	STAKE	11	11	[0, 0, 0]	n/a	FR1	4	R1395M
1240.297	1.6	1574827	WORD	n/a	wordpools/wordpool_long_EN.txt	CHALK	12	11	[0, 0, 0]	n/a	FR1	4	R1395M
1241.897	0.001	1576427	WORD_OFF	n/a	n/a	CHALK	12	11	[0, 0, 0]	n/a	FR1	4	R1395M
1241.898	0.0	1576427	DISTRACT_START	n/a	n/a	n/a	-999	11	[0, 0, 0]	n/a	FR1	4	R1395M
1241.898	0.0	1576427	ENCODING_END	n/a	n/a	n/a	-999	11	[0, 0, 0]	n/a	FR1	4	R1395M
1241.898	0.0	1576424	START	n/a	n/a	n/a	-999	11	[-999, -999, -999]	n/a	FR1	4	R1395M
1241.898	4.432	1576424	PROB	4.432	n/a	n/a	-999	11	[2, 5, 8]	15	FR1	4	R1395M
1246.33	2.584	1580856	PROB	2.584	n/a	n/a	-999	11	[3, 7, 4]	14	FR1	4	R1395M
1248.914	2.433	1583440	PROB	2.433	n/a	n/a	-999	11	[2, 2, 8]	12	FR1	4	R1395M
1251.347	2.366	1585873	PROB	2.366	n/a	n/a	-999	11	[8, 4, 3]	15	FR1	4	R1395M
1253.713	2.351	1588239	PROB	2.351	n/a	n/a	-999	11	[5, 4, 1]	10	FR1	4	R1395M
1256.064	2.749	1590590	PROB	2.749	n/a	n/a	-999	11	[2, 1, 2]	5	FR1	4	R1395M
1258.813	2.484	1593339	PROB	2.484	n/a	n/a	-999	11	[4, 1, 8]	13	FR1	4	R1395M
1261.297	2.466	1595822	PROB	2.466	n/a	n/a	-999	11	[8, 2, 3]	13	FR1	4	R1395M
1263.763	0.0	1598288	DISTRACT_END	n/a	n/a	n/a	-999	11	[0, 0, 0]	n/a	FR1	4	R1395M
1263.763	2.299	1598288	STOP	n/a	n/a	n/a	-999	11	[-999, -999, -999]	n/a	FR1	4	R1395M
1266.062	3.719	1600589	REC_START	n/a	n/a	n/a	-999	11	[0, 0, 0]	n/a	FR1	4	R1395M
1269.781	1.099	1604306	REC_WORD	1.099	n/a	MOUTH	6	11	[0, 0, 0]	n/a	FR1	4	R1395M
1270.88	8.473	1605405	REC_WORD	8.473	n/a	SCHOOL	7	11	[0, 0, 0]	n/a	FR1	4	R1395M
1279.353	16.942	1613878	REC_WORD	16.942	n/a	CLEAN	-999	11	[0, 0, 0]	n/a	FR1	4	R1395M
1296.295	8.668	1630818	REC_END	n/a	n/a	n/a	-999	11	[0, 0, 0]	n/a	FR1	4	R1395M
1304.963	10.351	1639484	COUNTDOWN_START	n/a	n/a	n/a	-999	12	[0, 0, 0]	n/a	FR1	4	R1395M
1315.314	0.0	1649835	COUNTDOWN_END	n/a	n/a	n/a	-999	12	[0, 0, 0]	n/a	FR1	4	R1395M
1315.314	2.033	1649844	ENCODING_START	n/a	n/a	n/a	-999	12	[0, 0, 0]	n/a	FR1	4	R1395M
1317.347	1.6	1651866	WORD	n/a	wordpools/wordpool_long_EN.txt	DUST	1	12	[0, 0, 0]	n/a	FR1	4	R1395M
1318.947	0.783	1653466	WORD_OFF	n/a	n/a	DUST	1	12	[0, 0, 0]	n/a	FR1	4	R1395M
1319.73	1.6	1654252	WORD	n/a	wordpools/wordpool_long_EN.txt	DOCK	2	12	[0, 0, 0]	n/a	FR1	4	R1395M
1321.33	0.9	1655852	WORD_OFF	n/a	n/a	DOCK	2	12	[0, 0, 0]	n/a	FR1	4	R1395M
1322.23	1.617	1656751	WORD	n/a	wordpools/wordpool_long_EN.txt	JAIL	3	12	[0, 0, 0]	n/a	FR1	4	R1395M
1323.847	0.866	1658370	WORD_OFF	n/a	n/a	JAIL	3	12	[0, 0, 0]	n/a	FR1	4	R1395M
1324.713	1.6	1659240	WORD	n/a	wordpools/wordpool_long_EN.txt	ARK	4	12	[0, 0, 0]	n/a	FR1	4	R1395M
1326.313	1.0	1660831	WORD_OFF	n/a	n/a	ARK	4	12	[0, 0, 0]	n/a	FR1	4	R1395M
1327.313	1.616	1661832	WORD	n/a	wordpools/wordpool_long_EN.txt	HAZE	5	12	[0, 0, 0]	n/a	FR1	4	R1395M
1328.929	0.8	1663451	WORD_OFF	n/a	n/a	HAZE	5	12	[0, 0, 0]	n/a	FR1	4	R1395M
1329.729	1.6	1664256	WORD	n/a	wordpools/wordpool_long_EN.txt	SCARF	6	12	[0, 0, 0]	n/a	FR1	4	R1395M
1331.329	1.001	1665847	WORD_OFF	n/a	n/a	SCARF	6	12	[0, 0, 0]	n/a	FR1	4	R1395M
1332.33	1.616	1666849	WORD	n/a	wordpools/wordpool_long_EN.txt	WAVE	7	12	[0, 0, 0]	n/a	FR1	4	R1395M
1333.946	0.934	1668468	WORD_OFF	n/a	n/a	WAVE	7	12	[0, 0, 0]	n/a	FR1	4	R1395M
1334.88	1.6	1669403	WORD	n/a	wordpools/wordpool_long_EN.txt	LACE	8	12	[0, 0, 0]	n/a	FR1	4	R1395M
1336.48	0.883	1671004	WORD_OFF	n/a	n/a	LACE	8	12	[0, 0, 0]	n/a	FR1	4	R1395M
1337.363	1.6	1671883	WORD	n/a	wordpools/wordpool_long_EN.txt	FLEA	9	12	[0, 0, 0]	n/a	FR1	4	R1395M
1338.963	0.933	1673484	WORD_OFF	n/a	n/a	FLEA	9	12	[0, 0, 0]	n/a	FR1	4	R1395M
1339.896	1.617	1674420	WORD	n/a	wordpools/wordpool_long_EN.txt	TOAST	10	12	[0, 0, 0]	n/a	FR1	4	R1395M
1341.513	0.767	1676039	WORD_OFF	n/a	n/a	TOAST	10	12	[0, 0, 0]	n/a	FR1	4	R1395M
1342.28	1.6	1676806	WORD	n/a	wordpools/wordpool_long_EN.txt	PEA	11	12	[0, 0, 0]	n/a	FR1	4	R1395M
1343.88	0.767	1678406	WORD_OFF	n/a	n/a	PEA	11	12	[0, 0, 0]	n/a	FR1	4	R1395M
1344.647	1.616	1679164	WORD	n/a	wordpools/wordpool_long_EN.txt	KEY	12	12	[0, 0, 0]	n/a	FR1	4	R1395M
1346.263	0.001	1680783	WORD_OFF	n/a	n/a	KEY	12	12	[0, 0, 0]	n/a	FR1	4	R1395M
1346.264	0.001	1680785	PROB	0.001	n/a	n/a	-999	12	[4, 7, 3]	14	FR1	4	R1395M
1346.265	0.0	1680783	ENCODING_END	n/a	n/a	n/a	-999	12	[0, 0, 0]	n/a	FR1	4	R1395M
1346.265	0.0	1680783	DISTRACT_START	n/a	n/a	n/a	-999	12	[0, 0, 0]	n/a	FR1	4	R1395M
1346.265	5.331	1680786	START	n/a	n/a	n/a	-999	12	[-999, -999, -999]	n/a	FR1	4	R1395M
1351.596	2.551	1686117	PROB	2.551	n/a	n/a	-999	12	[5, 5, 7]	17	FR1	4	R1395M
1354.147	3.101	1688668	PROB	3.101	n/a	n/a	-999	12	[8, 3, 6]	17	FR1	4	R1395M
1357.248	3.081	1691768	PROB	3.081	n/a	n/a	-999	12	[6, 6, 5]	17	FR1	4	R1395M
1360.329	2.652	1694849	PROB	2.652	n/a	n/a	-999	12	[6, 1, 3]	10	FR1	4	R1395M
1362.981	2.549	1697501	PROB	2.549	n/a	n/a	-999	12	[1, 8, 3]	12	FR1	4	R1395M
1365.53	1.833	1700050	PROB	1.833	n/a	n/a	-999	12	[7, 4, 1]	12	FR1	4	R1395M
1367.363	0.0	1701887	DISTRACT_END	n/a	n/a	n/a	-999	12	[0, 0, 0]	n/a	FR1	4	R1395M
1367.363	2.15	1701883	STOP	n/a	n/a	n/a	-999	12	[-999, -999, -999]	n/a	FR1	4	R1395M
1369.513	4.658	1704038	REC_START	n/a	n/a	n/a	-999	12	[0, 0, 0]	n/a	FR1	4	R1395M
1374.171	2.034	1708690	REC_WORD_VV	2.034	n/a	<>	-999	12	[0, 0, 0]	n/a	FR1	4	R1395M
1376.205	3.085	1710724	REC_WORD	3.085	n/a	STARK	-999	12	[0, 0, 0]	n/a	FR1	4	R1395M
1379.29	1.868	1713809	REC_WORD	1.868	n/a	WAVE	7	12	[0, 0, 0]	n/a	FR1	4	R1395M
1381.158	1.305	1715677	REC_WORD	1.305	n/a	DOCK	2	12	[0, 0, 0]	n/a	FR1	4	R1395M
1382.463	13.648	1716982	REC_WORD	13.648	n/a	YACHT	-999	12	[0, 0, 0]	n/a	FR1	4	R1395M
1396.111	3.631	1730629	REC_WORD	3.631	n/a	PEA	11	12	[0, 0, 0]	n/a	FR1	4	R1395M
1399.742	0.0	1734258	REC_END	n/a	n/a	n/a	-999	12	[0, 0, 0]	n/a	FR1	4	R1395M
