onset	duration	sample	trial_type	response_time	stim_file	item_name	serialpos	list	test	answer	experiment	session	subject
0.0	0.0	15006	INSTRUCT_START	n/a	n/a	n/a	-999	-999	[0, 0, 0]	n/a	FR1	0	R1243T
0.0	11.053	15006	INSTRUCT_END	n/a	n/a	n/a	-999	-999	[0, 0, 0]	n/a	FR1	0	R1243T
11.053	0.0	26058	SESS_START	n/a	n/a	n/a	-999	-999	[0, 0, 0]	n/a	FR1	0	R1243T
11.053	20.5	26058	MIC_TEST	n/a	n/a	n/a	-999	-999	[0, 0, 0]	n/a	FR1	0	R1243T
31.553	9.671	46557	PRACTICE_TRIAL	n/a	n/a	n/a	-999	-1	[0, 0, 0]	n/a	FR1	0	R1243T
41.224	10.428	56227	COUNTDOWN_START	n/a	n/a	n/a	-999	-1	[0, 0, 0]	n/a	FR1	0	R1243T
51.652	0.007	66654	COUNTDOWN_END	n/a	n/a	n/a	-999	-1	[0, 0, 0]	n/a	FR1	0	R1243T
51.659	1.616	66661	PRACTICE_ORIENT	n/a	n/a	n/a	-999	-1	[0, 0, 0]	n/a	FR1	0	R1243T
53.275	2.168	68277	PRACTICE_ORIENT_OFF	n/a	n/a	n/a	-999	-1	[0, 0, 0]	n/a	FR1	0	R1243T
55.443	1.617	70445	PRACTICE_WORD	n/a	n/a	BEAM	1	-1	[0, 0, 0]	n/a	FR1	0	R1243T
57.06	0.834	72062	PRACTICE_WORD_OFF	n/a	n/a	BEAM	-999	-1	[0, 0, 0]	n/a	FR1	0	R1243T
57.894	1.617	72896	PRACTICE_WORD	n/a	n/a	RHINO	2	-1	[0, 0, 0]	n/a	FR1	0	R1243T
59.511	1.017	74513	PRACTICE_WORD_OFF	n/a	n/a	RHINO	-999	-1	[0, 0, 0]	n/a	FR1	0	R1243T
60.528	1.616	75530	PRACTICE_WORD	n/a	n/a	CHEST	3	-1	[0, 0, 0]	n/a	FR1	0	R1243T
62.144	0.784	77146	PRACTICE_WORD_OFF	n/a	n/a	CHEST	-999	-1	[0, 0, 0]	n/a	FR1	0	R1243T
62.928	1.617	77930	PRACTICE_WORD	n/a	n/a	WATCH	4	-1	[0, 0, 0]	n/a	FR1	0	R1243T
64.545	0.85	79547	PRACTICE_WORD_OFF	n/a	n/a	WATCH	-999	-1	[0, 0, 0]	n/a	FR1	0	R1243T
65.395	1.617	80397	PRACTICE_WORD	n/a	n/a	CAMEL	5	-1	[0, 0, 0]	n/a	FR1	0	R1243T
67.012	0.85	82014	PRACTICE_WORD_OFF	n/a	n/a	CAMEL	-999	-1	[0, 0, 0]	n/a	FR1	0	R1243T
67.862	1.617	82863	PRACTICE_WORD	n/a	n/a	RING	6	-1	[0, 0, 0]	n/a	FR1	0	R1243T
69.479	0.967	84480	PRACTICE_WORD_OFF	n/a	n/a	RING	-999	-1	[0, 0, 0]	n/a	FR1	0	R1243T
70.446	1.617	85447	PRACTICE_WORD	n/a	n/a	IRON	7	-1	[0, 0, 0]	n/a	FR1	0	R1243T
72.063	0.783	87064	PRACTICE_WORD_OFF	n/a	n/a	IRON	-999	-1	[0, 0, 0]	n/a	FR1	0	R1243T
72.846	1.617	87847	PRACTICE_WORD	n/a	n/a	FLOOD	8	-1	[0, 0, 0]	n/a	FR1	0	R1243T
74.463	0.8	89464	PRACTICE_WORD_OFF	n/a	n/a	FLOOD	-999	-1	[0, 0, 0]	n/a	FR1	0	R1243T
75.263	1.618	90264	PRACTICE_WORD	n/a	n/a	TONGUE	9	-1	[0, 0, 0]	n/a	FR1	0	R1243T
76.881	0.8	91882	PRACTICE_WORD_OFF	n/a	n/a	TONGUE	-999	-1	[0, 0, 0]	n/a	FR1	0	R1243T
77.681	1.616	92682	PRACTICE_WORD	n/a	n/a	ATTIC	10	-1	[0, 0, 0]	n/a	FR1	0	R1243T
79.297	0.983	94298	PRACTICE_WORD_OFF	n/a	n/a	ATTIC	-999	-1	[0, 0, 0]	n/a	FR1	0	R1243T
80.28	1.618	95281	PRACTICE_WORD	n/a	n/a	WAGON	11	-1	[0, 0, 0]	n/a	FR1	0	R1243T
81.898	0.767	96899	PRACTICE_WORD_OFF	n/a	n/a	WAGON	-999	-1	[0, 0, 0]	n/a	FR1	0	R1243T
82.665	1.616	97666	PRACTICE_WORD	n/a	n/a	COTTON	12	-1	[0, 0, 0]	n/a	FR1	0	R1243T
84.281	0.0	99281	PRACTICE_WORD_OFF	n/a	n/a	COTTON	-999	-1	[0, 0, 0]	n/a	FR1	0	R1243T
84.281	0.001	99281	DISTRACT_START	n/a	n/a	n/a	-999	-1	[0, 0, 0]	n/a	FR1	0	R1243T
84.282	0.016	99282	START	n/a	n/a	n/a	-999	-1	[-999, -999, -999]	n/a	FR1	0	R1243T
84.298	9.719	99298	PROB	9.719	n/a	n/a	-999	-1	[1, 1, 2]	4	FR1	0	R1243T
94.017	9.802	109017	PROB	9.802	n/a	n/a	-999	-1	[7, 2, 4]	13	FR1	0	R1243T
103.819	19.424	118818	PROB	19.424	n/a	n/a	-999	-1	[8, 9, 6]	23	FR1	0	R1243T
123.243	0.012	138241	STOP	n/a	n/a	n/a	-999	-1	[-999, -999, -999]	n/a	FR1	0	R1243T
123.255	0.517	138253	DISTRACT_END	n/a	n/a	n/a	-999	-1	[0, 0, 0]	n/a	FR1	0	R1243T
123.772	0.517	138770	RETRIEVAL_ORIENT	n/a	n/a	n/a	-999	-1	[0, 0, 0]	n/a	FR1	0	R1243T
124.289	30.009	139287	PRACTICE_REC_START	n/a	n/a	n/a	-999	-1	[0, 0, 0]	n/a	FR1	0	R1243T
154.298	58.191	169294	PRACTICE_REC_END	n/a	n/a	n/a	-999	-1	[0, 0, 0]	n/a	FR1	0	R1243T
212.489	0.5	227482	TRIAL	n/a	n/a	n/a	-999	1	[0, 0, 0]	n/a	FR1	0	R1243T
212.989	10.428	227982	COUNTDOWN_START	n/a	n/a	n/a	-999	1	[0, 0, 0]	n/a	FR1	0	R1243T
223.417	0.007	238409	COUNTDOWN_END	n/a	n/a	n/a	-999	1	[0, 0, 0]	n/a	FR1	0	R1243T
223.424	1.617	238416	ORIENT	n/a	n/a	n/a	-999	1	[0, 0, 0]	n/a	FR1	0	R1243T
225.041	2.067	240033	ORIENT_OFF	n/a	n/a	n/a	-999	1	[0, 0, 0]	n/a	FR1	0	R1243T
227.108	1.617	242100	WORD	n/a	wordpools/wordpool_EN.txt	CORD	1	1	[0, 0, 0]	n/a	FR1	0	R1243T
228.725	0.983	243717	WORD_OFF	n/a	n/a	CORD	1	1	[0, 0, 0]	n/a	FR1	0	R1243T
229.708	1.616	244700	WORD	n/a	wordpools/wordpool_EN.txt	PEARL	2	1	[0, 0, 0]	n/a	FR1	0	R1243T
231.324	0.967	246316	WORD_OFF	n/a	n/a	PEARL	2	1	[0, 0, 0]	n/a	FR1	0	R1243T
232.291	1.618	247282	WORD	n/a	wordpools/wordpool_EN.txt	STEAM	3	1	[0, 0, 0]	n/a	FR1	0	R1243T
233.909	0.95	248900	WORD_OFF	n/a	n/a	STEAM	3	1	[0, 0, 0]	n/a	FR1	0	R1243T
234.859	1.617	249850	WORD	n/a	wordpools/wordpool_EN.txt	FROG	4	1	[0, 0, 0]	n/a	FR1	0	R1243T
236.476	0.95	251467	WORD_OFF	n/a	n/a	FROG	4	1	[0, 0, 0]	n/a	FR1	0	R1243T
237.426	1.617	252417	WORD	n/a	wordpools/wordpool_EN.txt	BRANCH	5	1	[0, 0, 0]	n/a	FR1	0	R1243T
239.043	0.767	254034	WORD_OFF	n/a	n/a	BRANCH	5	1	[0, 0, 0]	n/a	FR1	0	R1243T
239.81	1.617	254801	WORD	n/a	wordpools/wordpool_EN.txt	FILM	6	1	[0, 0, 0]	n/a	FR1	0	R1243T
241.427	0.933	256418	WORD_OFF	n/a	n/a	FILM	6	1	[0, 0, 0]	n/a	FR1	0	R1243T
242.36	1.617	257351	WORD	n/a	wordpools/wordpool_EN.txt	WEB	7	1	[0, 0, 0]	n/a	FR1	0	R1243T
243.977	1.001	258968	WORD_OFF	n/a	n/a	WEB	7	1	[0, 0, 0]	n/a	FR1	0	R1243T
244.978	1.617	259969	WORD	n/a	wordpools/wordpool_EN.txt	PLANT	8	1	[0, 0, 0]	n/a	FR1	0	R1243T
246.595	0.816	261586	WORD_OFF	n/a	n/a	PLANT	8	1	[0, 0, 0]	n/a	FR1	0	R1243T
247.411	1.618	262402	WORD	n/a	wordpools/wordpool_EN.txt	SUN	9	1	[0, 0, 0]	n/a	FR1	0	R1243T
249.029	0.949	264019	WORD_OFF	n/a	n/a	SUN	9	1	[0, 0, 0]	n/a	FR1	0	R1243T
249.978	1.618	264968	WORD	n/a	wordpools/wordpool_EN.txt	SPOON	10	1	[0, 0, 0]	n/a	FR1	0	R1243T
251.596	0.866	266586	WORD_OFF	n/a	n/a	SPOON	10	1	[0, 0, 0]	n/a	FR1	0	R1243T
252.462	1.617	267452	WORD	n/a	wordpools/wordpool_EN.txt	SMOKE	11	1	[0, 0, 0]	n/a	FR1	0	R1243T
254.079	1.001	269069	WORD_OFF	n/a	n/a	SMOKE	11	1	[0, 0, 0]	n/a	FR1	0	R1243T
255.08	1.616	270070	WORD	n/a	wordpools/wordpool_EN.txt	PIG	12	1	[0, 0, 0]	n/a	FR1	0	R1243T
256.696	0.0	271686	WORD_OFF	n/a	n/a	PIG	12	1	[0, 0, 0]	n/a	FR1	0	R1243T
256.696	0.001	271686	DISTRACT_START	n/a	n/a	n/a	-999	1	[0, 0, 0]	n/a	FR1	0	R1243T
256.697	0.016	271687	START	n/a	n/a	n/a	-999	1	[-999, -999, -999]	n/a	FR1	0	R1243T
256.713	9.235	271703	PROB	9.235	n/a	n/a	-999	1	[8, 5, 6]	19	FR1	0	R1243T
265.948	6.968	280937	PROB	6.968	n/a	n/a	-999	1	[6, 2, 2]	16	FR1	0	R1243T
272.916	7.657	287905	PROB	7.657	n/a	n/a	-999	1	[3, 6, 6]	15	FR1	0	R1243T
280.573	0.011	295562	STOP	n/a	n/a	n/a	-999	1	[-999, -999, -999]	n/a	FR1	0	R1243T
280.584	0.633	295573	DISTRACT_END	n/a	n/a	n/a	-999	1	[0, 0, 0]	n/a	FR1	0	R1243T
281.217	0.518	296206	RETRIEVAL_ORIENT	n/a	n/a	n/a	-999	1	[0, 0, 0]	n/a	FR1	0	R1243T
281.735	1.717	296723	REC_START	n/a	n/a	n/a	-999	1	[0, 0, 0]	n/a	FR1	0	R1243T
283.452	3.22	298440	REC_WORD_VV	3.22	n/a	<>	-999	1	[0, 0, 0]	n/a	FR1	0	R1243T
286.672	0.65	301660	REC_WORD	0.65	n/a	FROG	-999	1	[0, 0, 0]	n/a	FR1	0	R1243T
287.322	4.135	302310	REC_WORD	4.135	n/a	STEAM	-999	1	[0, 0, 0]	n/a	FR1	0	R1243T
291.457	13.272	306445	REC_WORD	13.272	n/a	ATTIC	-999	1	[0, 0, 0]	n/a	FR1	0	R1243T
304.729	7.018	319716	REC_WORD	7.018	n/a	PEARL	-999	1	[0, 0, 0]	n/a	FR1	0	R1243T
311.747	50.969	326734	REC_END	n/a	n/a	n/a	-999	1	[0, 0, 0]	n/a	FR1	0	R1243T
362.716	0.5	377700	TRIAL	n/a	n/a	n/a	-999	2	[0, 0, 0]	n/a	FR1	0	R1243T
363.216	10.428	378200	COUNTDOWN_START	n/a	n/a	n/a	-999	2	[0, 0, 0]	n/a	FR1	0	R1243T
373.644	0.007	388627	COUNTDOWN_END	n/a	n/a	n/a	-999	2	[0, 0, 0]	n/a	FR1	0	R1243T
373.651	1.616	388634	ORIENT	n/a	n/a	n/a	-999	2	[0, 0, 0]	n/a	FR1	0	R1243T
375.267	1.835	390250	ORIENT_OFF	n/a	n/a	n/a	-999	2	[0, 0, 0]	n/a	FR1	0	R1243T
377.102	1.617	392085	WORD	n/a	wordpools/wordpool_EN.txt	STEM	1	2	[0, 0, 0]	n/a	FR1	0	R1243T
378.719	0.867	393702	WORD_OFF	n/a	n/a	STEM	1	2	[0, 0, 0]	n/a	FR1	0	R1243T
379.586	1.615	394569	WORD	n/a	wordpools/wordpool_EN.txt	BIRD	2	2	[0, 0, 0]	n/a	FR1	0	R1243T
381.201	0.951	396183	WORD_OFF	n/a	n/a	BIRD	2	2	[0, 0, 0]	n/a	FR1	0	R1243T
382.152	1.618	397134	WORD	n/a	wordpools/wordpool_EN.txt	WHEEL	3	2	[0, 0, 0]	n/a	FR1	0	R1243T
383.77	0.866	398752	WORD_OFF	n/a	n/a	WHEEL	3	2	[0, 0, 0]	n/a	FR1	0	R1243T
384.636	1.616	399618	WORD	n/a	wordpools/wordpool_EN.txt	RAKE	4	2	[0, 0, 0]	n/a	FR1	0	R1243T
386.252	0.852	401234	WORD_OFF	n/a	n/a	RAKE	4	2	[0, 0, 0]	n/a	FR1	0	R1243T
387.104	1.617	402086	WORD	n/a	wordpools/wordpool_EN.txt	SLIME	5	2	[0, 0, 0]	n/a	FR1	0	R1243T
388.721	0.816	403703	WORD_OFF	n/a	n/a	SLIME	5	2	[0, 0, 0]	n/a	FR1	0	R1243T
389.537	1.616	404519	WORD	n/a	wordpools/wordpool_EN.txt	STONE	6	2	[0, 0, 0]	n/a	FR1	0	R1243T
391.153	1.001	406135	WORD_OFF	n/a	n/a	STONE	6	2	[0, 0, 0]	n/a	FR1	0	R1243T
392.154	1.617	407136	WORD	n/a	wordpools/wordpool_EN.txt	HORN	7	2	[0, 0, 0]	n/a	FR1	0	R1243T
393.771	0.801	408753	WORD_OFF	n/a	n/a	HORN	7	2	[0, 0, 0]	n/a	FR1	0	R1243T
394.572	1.616	409554	WORD	n/a	wordpools/wordpool_EN.txt	HEART	8	2	[0, 0, 0]	n/a	FR1	0	R1243T
396.188	0.834	411170	WORD_OFF	n/a	n/a	HEART	8	2	[0, 0, 0]	n/a	FR1	0	R1243T
397.022	1.617	412004	WORD	n/a	wordpools/wordpool_EN.txt	SEAL	9	2	[0, 0, 0]	n/a	FR1	0	R1243T
398.639	0.934	413620	WORD_OFF	n/a	n/a	SEAL	9	2	[0, 0, 0]	n/a	FR1	0	R1243T
399.573	1.615	414554	WORD	n/a	wordpools/wordpool_EN.txt	CLOWN	10	2	[0, 0, 0]	n/a	FR1	0	R1243T
401.188	0.885	416169	WORD_OFF	n/a	n/a	CLOWN	10	2	[0, 0, 0]	n/a	FR1	0	R1243T
402.073	1.617	417054	WORD	n/a	wordpools/wordpool_EN.txt	CRANE	11	2	[0, 0, 0]	n/a	FR1	0	R1243T
403.69	0.783	418671	WORD_OFF	n/a	n/a	CRANE	11	2	[0, 0, 0]	n/a	FR1	0	R1243T
404.473	1.617	419454	WORD	n/a	wordpools/wordpool_EN.txt	SAIL	12	2	[0, 0, 0]	n/a	FR1	0	R1243T
406.09	0.0	421071	WORD_OFF	n/a	n/a	SAIL	12	2	[0, 0, 0]	n/a	FR1	0	R1243T
406.09	0.001	421071	DISTRACT_START	n/a	n/a	n/a	-999	2	[0, 0, 0]	n/a	FR1	0	R1243T
406.091	0.016	421072	START	n/a	n/a	n/a	-999	2	[-999, -999, -999]	n/a	FR1	0	R1243T
406.107	6.385	421088	PROB	6.385	n/a	n/a	-999	2	[3, 8, 1]	12	FR1	0	R1243T
412.492	18.528	427473	PROB	18.528	n/a	n/a	-999	2	[7, 2, 8]	16	FR1	0	R1243T
431.02	0.008	445999	STOP	n/a	n/a	n/a	-999	2	[-999, -999, -999]	n/a	FR1	0	R1243T
431.028	0.55	446007	DISTRACT_END	n/a	n/a	n/a	-999	2	[0, 0, 0]	n/a	FR1	0	R1243T
431.578	0.518	446557	RETRIEVAL_ORIENT	n/a	n/a	n/a	-999	2	[0, 0, 0]	n/a	FR1	0	R1243T
432.096	6.651	447075	REC_START	n/a	n/a	n/a	-999	2	[0, 0, 0]	n/a	FR1	0	R1243T
438.747	0.879	453726	REC_WORD_VV	0.879	n/a	<>	-999	2	[0, 0, 0]	n/a	FR1	0	R1243T
439.626	5.861	454605	REC_WORD	5.861	n/a	WATER	-999	2	[0, 0, 0]	n/a	FR1	0	R1243T
445.487	0.603	460466	REC_WORD_VV	0.603	n/a	<>	-999	2	[0, 0, 0]	n/a	FR1	0	R1243T
446.09	0.53	461069	REC_WORD_VV	0.53	n/a	<>	-999	2	[0, 0, 0]	n/a	FR1	0	R1243T
446.62	4.114	461598	REC_WORD_VV	4.114	n/a	<>	-999	2	[0, 0, 0]	n/a	FR1	0	R1243T
450.734	3.476	465712	REC_WORD	3.476	n/a	STEAM	-999	2	[0, 0, 0]	n/a	FR1	0	R1243T
454.21	4.209	469188	REC_WORD	4.209	n/a	FROG	-999	2	[0, 0, 0]	n/a	FR1	0	R1243T
458.419	3.688	473397	REC_WORD	3.688	n/a	SEAM	-999	2	[0, 0, 0]	n/a	FR1	0	R1243T
462.107	7.211	477085	REC_END	n/a	n/a	n/a	-999	2	[0, 0, 0]	n/a	FR1	0	R1243T
469.318	0.5	484295	TRIAL	n/a	n/a	n/a	-999	3	[0, 0, 0]	n/a	FR1	0	R1243T
469.818	10.428	484795	COUNTDOWN_START	n/a	n/a	n/a	-999	3	[0, 0, 0]	n/a	FR1	0	R1243T
480.246	0.007	495222	COUNTDOWN_END	n/a	n/a	n/a	-999	3	[0, 0, 0]	n/a	FR1	0	R1243T
480.253	1.618	495229	ORIENT	n/a	n/a	n/a	-999	3	[0, 0, 0]	n/a	FR1	0	R1243T
481.871	2.05	496847	ORIENT_OFF	n/a	n/a	n/a	-999	3	[0, 0, 0]	n/a	FR1	0	R1243T
483.921	1.617	498897	WORD	n/a	wordpools/wordpool_EN.txt	CLOUD	1	3	[0, 0, 0]	n/a	FR1	0	R1243T
485.538	0.816	500514	WORD_OFF	n/a	n/a	CLOUD	1	3	[0, 0, 0]	n/a	FR1	0	R1243T
486.354	1.601	501330	WORD	n/a	wordpools/wordpool_EN.txt	SPONGE	2	3	[0, 0, 0]	n/a	FR1	0	R1243T
487.955	0.767	502931	WORD_OFF	n/a	n/a	SPONGE	2	3	[0, 0, 0]	n/a	FR1	0	R1243T
488.722	1.616	503698	WORD	n/a	wordpools/wordpool_EN.txt	LIP	3	3	[0, 0, 0]	n/a	FR1	0	R1243T
490.338	0.817	505314	WORD_OFF	n/a	n/a	LIP	3	3	[0, 0, 0]	n/a	FR1	0	R1243T
491.155	1.618	506131	WORD	n/a	wordpools/wordpool_EN.txt	VINE	4	3	[0, 0, 0]	n/a	FR1	0	R1243T
492.773	0.817	507749	WORD_OFF	n/a	n/a	VINE	4	3	[0, 0, 0]	n/a	FR1	0	R1243T
493.59	1.616	508566	WORD	n/a	wordpools/wordpool_EN.txt	TOY	5	3	[0, 0, 0]	n/a	FR1	0	R1243T
495.206	0.784	510182	WORD_OFF	n/a	n/a	TOY	5	3	[0, 0, 0]	n/a	FR1	0	R1243T
495.99	1.617	510965	WORD	n/a	wordpools/wordpool_EN.txt	JAR	6	3	[0, 0, 0]	n/a	FR1	0	R1243T
497.607	0.817	512582	WORD_OFF	n/a	n/a	JAR	6	3	[0, 0, 0]	n/a	FR1	0	R1243T
498.424	1.617	513399	WORD	n/a	wordpools/wordpool_EN.txt	CORN	7	3	[0, 0, 0]	n/a	FR1	0	R1243T
500.041	0.967	515016	WORD_OFF	n/a	n/a	CORN	7	3	[0, 0, 0]	n/a	FR1	0	R1243T
501.008	1.617	515983	WORD	n/a	wordpools/wordpool_EN.txt	COUCH	8	3	[0, 0, 0]	n/a	FR1	0	R1243T
502.625	0.9	517600	WORD_OFF	n/a	n/a	COUCH	8	3	[0, 0, 0]	n/a	FR1	0	R1243T
503.525	1.617	518500	WORD	n/a	wordpools/wordpool_EN.txt	DESK	9	3	[0, 0, 0]	n/a	FR1	0	R1243T
505.142	0.917	520117	WORD_OFF	n/a	n/a	DESK	9	3	[0, 0, 0]	n/a	FR1	0	R1243T
506.059	1.616	521034	WORD	n/a	wordpools/wordpool_EN.txt	SINK	10	3	[0, 0, 0]	n/a	FR1	0	R1243T
507.675	0.767	522650	WORD_OFF	n/a	n/a	SINK	10	3	[0, 0, 0]	n/a	FR1	0	R1243T
508.442	1.617	523417	WORD	n/a	wordpools/wordpool_EN.txt	TOE	11	3	[0, 0, 0]	n/a	FR1	0	R1243T
510.059	0.817	525034	WORD_OFF	n/a	n/a	TOE	11	3	[0, 0, 0]	n/a	FR1	0	R1243T
510.876	1.617	525851	WORD	n/a	wordpools/wordpool_EN.txt	BARN	12	3	[0, 0, 0]	n/a	FR1	0	R1243T
512.493	0.0	527467	WORD_OFF	n/a	n/a	BARN	12	3	[0, 0, 0]	n/a	FR1	0	R1243T
512.493	0.001	527467	DISTRACT_START	n/a	n/a	n/a	-999	3	[0, 0, 0]	n/a	FR1	0	R1243T
512.494	0.016	527468	START	n/a	n/a	n/a	-999	3	[-999, -999, -999]	n/a	FR1	0	R1243T
512.51	7.568	527484	PROB	7.568	n/a	n/a	-999	3	[4, 7, 4]	15	FR1	0	R1243T
520.078	6.051	535052	PROB	6.051	n/a	n/a	-999	3	[4, 8, 1]	13	FR1	0	R1243T
526.129	5.166	541103	PROB	5.166	n/a	n/a	-999	3	[5, 4, 1]	10	FR1	0	R1243T
531.295	4.11	546268	PROB	4.11	n/a	n/a	-999	3	[5, 1, 5]	11	FR1	0	R1243T
535.405	0.009	550378	STOP	n/a	n/a	n/a	-999	3	[-999, -999, -999]	n/a	FR1	0	R1243T
535.414	0.65	550387	DISTRACT_END	n/a	n/a	n/a	-999	3	[0, 0, 0]	n/a	FR1	0	R1243T
536.064	0.517	551037	RETRIEVAL_ORIENT	n/a	n/a	n/a	-999	3	[0, 0, 0]	n/a	FR1	0	R1243T
536.581	3.855	551554	REC_START	n/a	n/a	n/a	-999	3	[0, 0, 0]	n/a	FR1	0	R1243T
540.436	4.794	555409	REC_WORD_VV	4.794	n/a	<>	-999	3	[0, 0, 0]	n/a	FR1	0	R1243T
545.23	2.899	560203	REC_WORD	2.899	n/a	LIP	-999	3	[0, 0, 0]	n/a	FR1	0	R1243T
548.129	10.401	563101	REC_WORD	10.401	n/a	COUCH	-999	3	[0, 0, 0]	n/a	FR1	0	R1243T
558.53	1.1	573502	REC_WORD	1.1	n/a	LIPS	-999	3	[0, 0, 0]	n/a	FR1	0	R1243T
559.63	0.999	574602	REC_WORD_VV	0.999	n/a	<>	-999	3	[0, 0, 0]	n/a	FR1	0	R1243T
560.629	1.142	575601	REC_WORD_VV	1.142	n/a	<>	-999	3	[0, 0, 0]	n/a	FR1	0	R1243T
561.771	1.511	576743	REC_WORD	1.511	n/a	LIPS	-999	3	[0, 0, 0]	n/a	FR1	0	R1243T
563.282	0.721	578253	REC_WORD_VV	0.721	n/a	<>	-999	3	[0, 0, 0]	n/a	FR1	0	R1243T
564.003	2.591	578974	REC_WORD	2.591	n/a	MOW	-999	3	[0, 0, 0]	n/a	FR1	0	R1243T
566.594	8.427	581565	REC_END	n/a	n/a	n/a	-999	3	[0, 0, 0]	n/a	FR1	0	R1243T
575.021	0.5	589992	TRIAL	n/a	n/a	n/a	-999	4	[0, 0, 0]	n/a	FR1	0	R1243T
575.521	10.428	590492	COUNTDOWN_START	n/a	n/a	n/a	-999	4	[0, 0, 0]	n/a	FR1	0	R1243T
585.949	0.007	600919	COUNTDOWN_END	n/a	n/a	n/a	-999	4	[0, 0, 0]	n/a	FR1	0	R1243T
585.956	1.617	600926	ORIENT	n/a	n/a	n/a	-999	4	[0, 0, 0]	n/a	FR1	0	R1243T
587.573	1.984	602543	ORIENT_OFF	n/a	n/a	n/a	-999	4	[0, 0, 0]	n/a	FR1	0	R1243T
589.557	1.616	604527	WORD	n/a	wordpools/wordpool_EN.txt	TOOTH	1	4	[0, 0, 0]	n/a	FR1	0	R1243T
591.173	0.835	606143	WORD_OFF	n/a	n/a	TOOTH	1	4	[0, 0, 0]	n/a	FR1	0	R1243T
592.008	1.617	606978	WORD	n/a	wordpools/wordpool_EN.txt	FLAG	2	4	[0, 0, 0]	n/a	FR1	0	R1243T
593.625	0.983	608595	WORD_OFF	n/a	n/a	FLAG	2	4	[0, 0, 0]	n/a	FR1	0	R1243T
594.608	1.616	609578	WORD	n/a	wordpools/wordpool_EN.txt	TANK	3	4	[0, 0, 0]	n/a	FR1	0	R1243T
596.224	0.784	611193	WORD_OFF	n/a	n/a	TANK	3	4	[0, 0, 0]	n/a	FR1	0	R1243T
597.008	1.617	611977	WORD	n/a	wordpools/wordpool_EN.txt	EGG	4	4	[0, 0, 0]	n/a	FR1	0	R1243T
598.625	0.867	613594	WORD_OFF	n/a	n/a	EGG	4	4	[0, 0, 0]	n/a	FR1	0	R1243T
599.492	1.617	614461	WORD	n/a	wordpools/wordpool_EN.txt	WORM	5	4	[0, 0, 0]	n/a	FR1	0	R1243T
601.109	0.95	616078	WORD_OFF	n/a	n/a	WORM	5	4	[0, 0, 0]	n/a	FR1	0	R1243T
602.059	1.617	617028	WORD	n/a	wordpools/wordpool_EN.txt	CUBE	6	4	[0, 0, 0]	n/a	FR1	0	R1243T
603.676	0.784	618645	WORD_OFF	n/a	n/a	CUBE	6	4	[0, 0, 0]	n/a	FR1	0	R1243T
604.46	1.617	619429	WORD	n/a	wordpools/wordpool_EN.txt	SWORD	7	4	[0, 0, 0]	n/a	FR1	0	R1243T
606.077	0.85	621046	WORD_OFF	n/a	n/a	SWORD	7	4	[0, 0, 0]	n/a	FR1	0	R1243T
606.927	1.617	621896	WORD	n/a	wordpools/wordpool_EN.txt	NOSE	8	4	[0, 0, 0]	n/a	FR1	0	R1243T
608.544	0.95	623513	WORD_OFF	n/a	n/a	NOSE	8	4	[0, 0, 0]	n/a	FR1	0	R1243T
609.494	1.617	624463	WORD	n/a	wordpools/wordpool_EN.txt	CART	9	4	[0, 0, 0]	n/a	FR1	0	R1243T
611.111	1.0	626080	WORD_OFF	n/a	n/a	CART	9	4	[0, 0, 0]	n/a	FR1	0	R1243T
612.111	1.617	627079	WORD	n/a	wordpools/wordpool_EN.txt	HOOK	10	4	[0, 0, 0]	n/a	FR1	0	R1243T
613.728	0.967	628696	WORD_OFF	n/a	n/a	HOOK	10	4	[0, 0, 0]	n/a	FR1	0	R1243T
614.695	1.616	629663	WORD	n/a	wordpools/wordpool_EN.txt	DOLL	11	4	[0, 0, 0]	n/a	FR1	0	R1243T
616.311	1.0	631279	WORD_OFF	n/a	n/a	DOLL	11	4	[0, 0, 0]	n/a	FR1	0	R1243T
617.311	1.618	632279	WORD	n/a	wordpools/wordpool_EN.txt	LAWN	12	4	[0, 0, 0]	n/a	FR1	0	R1243T
618.929	0.0	633897	WORD_OFF	n/a	n/a	LAWN	12	4	[0, 0, 0]	n/a	FR1	0	R1243T
618.929	0.001	633897	DISTRACT_START	n/a	n/a	n/a	-999	4	[0, 0, 0]	n/a	FR1	0	R1243T
618.93	0.016	633898	START	n/a	n/a	n/a	-999	4	[-999, -999, -999]	n/a	FR1	0	R1243T
618.946	5.584	633914	PROB	5.584	n/a	n/a	-999	4	[4, 6, 3]	13	FR1	0	R1243T
624.53	4.65	639498	PROB	4.65	n/a	n/a	-999	4	[1, 6, 7]	14	FR1	0	R1243T
629.18	5.852	644147	PROB	5.852	n/a	n/a	-999	4	[6, 7, 4]	17	FR1	0	R1243T
635.032	4.436	649999	PROB	4.436	n/a	n/a	-999	4	[6, 2, 3]	11	FR1	0	R1243T
639.468	0.015	654435	STOP	n/a	n/a	n/a	-999	4	[-999, -999, -999]	n/a	FR1	0	R1243T
639.483	0.633	654450	DISTRACT_END	n/a	n/a	n/a	-999	4	[0, 0, 0]	n/a	FR1	0	R1243T
640.116	0.518	655083	RETRIEVAL_ORIENT	n/a	n/a	n/a	-999	4	[0, 0, 0]	n/a	FR1	0	R1243T
640.634	4.634	655601	REC_START	n/a	n/a	n/a	-999	4	[0, 0, 0]	n/a	FR1	0	R1243T
645.268	4.741	660234	REC_WORD	4.741	n/a	YARD	-999	4	[0, 0, 0]	n/a	FR1	0	R1243T
650.009	2.316	664975	REC_WORD	2.316	n/a	MOW	-999	4	[0, 0, 0]	n/a	FR1	0	R1243T
652.325	2.442	667291	REC_WORD	2.442	n/a	WORM	-999	4	[0, 0, 0]	n/a	FR1	0	R1243T
654.767	8.279	669733	REC_WORD	8.279	n/a	SINK	-999	4	[0, 0, 0]	n/a	FR1	0	R1243T
663.046	5.416	678011	REC_WORD	5.416	n/a	COW	-999	4	[0, 0, 0]	n/a	FR1	0	R1243T
668.462	2.183	683427	REC_WORD	2.183	n/a	ATTIC	-999	4	[0, 0, 0]	n/a	FR1	0	R1243T
670.645	43.6	685610	REC_END	n/a	n/a	n/a	-999	4	[0, 0, 0]	n/a	FR1	0	R1243T
714.245	0.5	729207	TRIAL	n/a	n/a	n/a	-999	5	[0, 0, 0]	n/a	FR1	0	R1243T
714.745	10.428	729707	COUNTDOWN_START	n/a	n/a	n/a	-999	5	[0, 0, 0]	n/a	FR1	0	R1243T
725.173	0.008	740135	COUNTDOWN_END	n/a	n/a	n/a	-999	5	[0, 0, 0]	n/a	FR1	0	R1243T
725.181	1.618	740143	ORIENT	n/a	n/a	n/a	-999	5	[0, 0, 0]	n/a	FR1	0	R1243T
726.799	2.05	741761	ORIENT_OFF	n/a	n/a	n/a	-999	5	[0, 0, 0]	n/a	FR1	0	R1243T
728.849	1.617	743810	WORD	n/a	wordpools/wordpool_EN.txt	STICK	1	5	[0, 0, 0]	n/a	FR1	0	R1243T
730.466	0.766	745427	WORD_OFF	n/a	n/a	STICK	1	5	[0, 0, 0]	n/a	FR1	0	R1243T
731.232	1.601	746193	WORD	n/a	wordpools/wordpool_EN.txt	ROSE	2	5	[0, 0, 0]	n/a	FR1	0	R1243T
732.833	0.8	747794	WORD_OFF	n/a	n/a	ROSE	2	5	[0, 0, 0]	n/a	FR1	0	R1243T
733.633	1.616	748594	WORD	n/a	wordpools/wordpool_EN.txt	JEEP	3	5	[0, 0, 0]	n/a	FR1	0	R1243T
735.249	1.001	750210	WORD_OFF	n/a	n/a	JEEP	3	5	[0, 0, 0]	n/a	FR1	0	R1243T
736.25	1.617	751211	WORD	n/a	wordpools/wordpool_EN.txt	WORLD	4	5	[0, 0, 0]	n/a	FR1	0	R1243T
737.867	0.951	752828	WORD_OFF	n/a	n/a	WORLD	4	5	[0, 0, 0]	n/a	FR1	0	R1243T
738.818	1.617	753779	WORD	n/a	wordpools/wordpool_EN.txt	WOLF	5	5	[0, 0, 0]	n/a	FR1	0	R1243T
740.435	0.832	755396	WORD_OFF	n/a	n/a	WOLF	5	5	[0, 0, 0]	n/a	FR1	0	R1243T
741.267	1.618	756228	WORD	n/a	wordpools/wordpool_EN.txt	STRING	6	5	[0, 0, 0]	n/a	FR1	0	R1243T
742.885	0.983	757846	WORD_OFF	n/a	n/a	STRING	6	5	[0, 0, 0]	n/a	FR1	0	R1243T
743.868	1.617	758828	WORD	n/a	wordpools/wordpool_EN.txt	PEN	7	5	[0, 0, 0]	n/a	FR1	0	R1243T
745.485	0.917	760445	WORD_OFF	n/a	n/a	PEN	7	5	[0, 0, 0]	n/a	FR1	0	R1243T
746.402	1.617	761362	WORD	n/a	wordpools/wordpool_EN.txt	FUR	8	5	[0, 0, 0]	n/a	FR1	0	R1243T
748.019	0.817	762979	WORD_OFF	n/a	n/a	FUR	8	5	[0, 0, 0]	n/a	FR1	0	R1243T
748.836	1.617	763796	WORD	n/a	wordpools/wordpool_EN.txt	FAN	9	5	[0, 0, 0]	n/a	FR1	0	R1243T
750.453	0.967	765413	WORD_OFF	n/a	n/a	FAN	9	5	[0, 0, 0]	n/a	FR1	0	R1243T
751.42	1.617	766380	WORD	n/a	wordpools/wordpool_EN.txt	VAN	10	5	[0, 0, 0]	n/a	FR1	0	R1243T
753.037	0.95	767997	WORD_OFF	n/a	n/a	VAN	10	5	[0, 0, 0]	n/a	FR1	0	R1243T
753.987	1.617	768947	WORD	n/a	wordpools/wordpool_EN.txt	CLIFF	11	5	[0, 0, 0]	n/a	FR1	0	R1243T
755.604	0.867	770564	WORD_OFF	n/a	n/a	CLIFF	11	5	[0, 0, 0]	n/a	FR1	0	R1243T
756.471	1.617	771431	WORD	n/a	wordpools/wordpool_EN.txt	POOL	12	5	[0, 0, 0]	n/a	FR1	0	R1243T
758.088	0.0	773048	WORD_OFF	n/a	n/a	POOL	12	5	[0, 0, 0]	n/a	FR1	0	R1243T
758.088	0.0	773048	DISTRACT_START	n/a	n/a	n/a	-999	5	[0, 0, 0]	n/a	FR1	0	R1243T
758.088	0.016	773048	START	n/a	n/a	n/a	-999	5	[-999, -999, -999]	n/a	FR1	0	R1243T
758.104	6.018	773064	PROB	6.018	n/a	n/a	-999	5	[3, 6, 2]	11	FR1	0	R1243T
764.122	7.201	779081	PROB	7.201	n/a	n/a	-999	5	[9, 2, 5]	16	FR1	0	R1243T
771.323	4.85	786282	PROB	4.85	n/a	n/a	-999	5	[9, 9, 2]	20	FR1	0	R1243T
776.173	6.998	791132	PROB	6.998	n/a	n/a	-999	5	[7, 9, 7]	23	FR1	0	R1243T
783.171	0.02	798129	STOP	n/a	n/a	n/a	-999	5	[-999, -999, -999]	n/a	FR1	0	R1243T
783.191	0.635	798149	DISTRACT_END	n/a	n/a	n/a	-999	5	[0, 0, 0]	n/a	FR1	0	R1243T
783.826	0.516	798784	RETRIEVAL_ORIENT	n/a	n/a	n/a	-999	5	[0, 0, 0]	n/a	FR1	0	R1243T
784.342	3.272	799300	REC_START	n/a	n/a	n/a	-999	5	[0, 0, 0]	n/a	FR1	0	R1243T
787.614	1.073	802572	REC_WORD	1.073	n/a	JEEP	-999	5	[0, 0, 0]	n/a	FR1	0	R1243T
788.687	5.572	803645	REC_WORD	5.572	n/a	WORLD	-999	5	[0, 0, 0]	n/a	FR1	0	R1243T
794.259	8.54	809216	REC_WORD	8.54	n/a	STRING	-999	5	[0, 0, 0]	n/a	FR1	0	R1243T
802.799	8.464	817756	REC_WORD	8.464	n/a	POSTS	-999	5	[0, 0, 0]	n/a	FR1	0	R1243T
811.263	0.443	826219	REC_WORD_VV	0.443	n/a	<>	-999	5	[0, 0, 0]	n/a	FR1	0	R1243T
811.706	2.648	826662	REC_WORD	2.648	n/a	POLE	-999	5	[0, 0, 0]	n/a	FR1	0	R1243T
814.354	6.027	829310	REC_END	n/a	n/a	n/a	-999	5	[0, 0, 0]	n/a	FR1	0	R1243T
820.381	0.5	835337	TRIAL	n/a	n/a	n/a	-999	6	[0, 0, 0]	n/a	FR1	0	R1243T
820.881	10.428	835837	COUNTDOWN_START	n/a	n/a	n/a	-999	6	[0, 0, 0]	n/a	FR1	0	R1243T
831.309	0.008	846264	COUNTDOWN_END	n/a	n/a	n/a	-999	6	[0, 0, 0]	n/a	FR1	0	R1243T
831.317	1.601	846272	ORIENT	n/a	n/a	n/a	-999	6	[0, 0, 0]	n/a	FR1	0	R1243T
832.918	1.934	847873	ORIENT_OFF	n/a	n/a	n/a	-999	6	[0, 0, 0]	n/a	FR1	0	R1243T
834.852	1.617	849807	WORD	n/a	wordpools/wordpool_EN.txt	JET	1	6	[0, 0, 0]	n/a	FR1	0	R1243T
836.469	0.916	851424	WORD_OFF	n/a	n/a	JET	1	6	[0, 0, 0]	n/a	FR1	0	R1243T
837.385	1.617	852340	WORD	n/a	wordpools/wordpool_EN.txt	BALL	2	6	[0, 0, 0]	n/a	FR1	0	R1243T
839.002	0.8	853957	WORD_OFF	n/a	n/a	BALL	2	6	[0, 0, 0]	n/a	FR1	0	R1243T
839.802	1.618	854757	WORD	n/a	wordpools/wordpool_EN.txt	SHIP	3	6	[0, 0, 0]	n/a	FR1	0	R1243T
841.42	0.832	856375	WORD_OFF	n/a	n/a	SHIP	3	6	[0, 0, 0]	n/a	FR1	0	R1243T
842.252	1.618	857206	WORD	n/a	wordpools/wordpool_EN.txt	STEAK	4	6	[0, 0, 0]	n/a	FR1	0	R1243T
843.87	0.884	858824	WORD_OFF	n/a	n/a	STEAK	4	6	[0, 0, 0]	n/a	FR1	0	R1243T
844.754	1.615	859708	WORD	n/a	wordpools/wordpool_EN.txt	BOMB	5	6	[0, 0, 0]	n/a	FR1	0	R1243T
846.369	0.784	861323	WORD_OFF	n/a	n/a	BOMB	5	6	[0, 0, 0]	n/a	FR1	0	R1243T
847.153	1.601	862107	WORD	n/a	wordpools/wordpool_EN.txt	RAIN	6	6	[0, 0, 0]	n/a	FR1	0	R1243T
848.754	0.817	863708	WORD_OFF	n/a	n/a	RAIN	6	6	[0, 0, 0]	n/a	FR1	0	R1243T
849.571	1.616	864525	WORD	n/a	wordpools/wordpool_EN.txt	TEA	7	6	[0, 0, 0]	n/a	FR1	0	R1243T
851.187	0.951	866141	WORD_OFF	n/a	n/a	TEA	7	6	[0, 0, 0]	n/a	FR1	0	R1243T
852.138	1.617	867092	WORD	n/a	wordpools/wordpool_EN.txt	BLOOM	8	6	[0, 0, 0]	n/a	FR1	0	R1243T
853.755	0.934	868709	WORD_OFF	n/a	n/a	BLOOM	8	6	[0, 0, 0]	n/a	FR1	0	R1243T
854.689	1.616	869643	WORD	n/a	wordpools/wordpool_EN.txt	WEED	9	6	[0, 0, 0]	n/a	FR1	0	R1243T
856.305	0.95	871259	WORD_OFF	n/a	n/a	WEED	9	6	[0, 0, 0]	n/a	FR1	0	R1243T
857.255	1.618	872209	WORD	n/a	wordpools/wordpool_EN.txt	MOTH	10	6	[0, 0, 0]	n/a	FR1	0	R1243T
858.873	0.967	873826	WORD_OFF	n/a	n/a	MOTH	10	6	[0, 0, 0]	n/a	FR1	0	R1243T
859.84	1.617	874793	WORD	n/a	wordpools/wordpool_EN.txt	STORM	11	6	[0, 0, 0]	n/a	FR1	0	R1243T
861.457	0.782	876410	WORD_OFF	n/a	n/a	STORM	11	6	[0, 0, 0]	n/a	FR1	0	R1243T
862.239	1.618	877192	WORD	n/a	wordpools/wordpool_EN.txt	MOUSE	12	6	[0, 0, 0]	n/a	FR1	0	R1243T
863.857	0.0	878810	WORD_OFF	n/a	n/a	MOUSE	12	6	[0, 0, 0]	n/a	FR1	0	R1243T
863.857	0.001	878810	DISTRACT_START	n/a	n/a	n/a	-999	6	[0, 0, 0]	n/a	FR1	0	R1243T
863.858	0.016	878811	START	n/a	n/a	n/a	-999	6	[-999, -999, -999]	n/a	FR1	0	R1243T
863.874	6.417	878827	PROB	6.417	n/a	n/a	-999	6	[6, 9, 1]	16	FR1	0	R1243T
870.291	5.418	885244	PROB	5.418	n/a	n/a	-999	6	[3, 2, 7]	11	FR1	0	R1243T
875.709	5.985	890661	PROB	5.985	n/a	n/a	-999	6	[4, 8, 3]	15	FR1	0	R1243T
881.694	4.51	896646	PROB	4.51	n/a	n/a	-999	6	[3, 2, 1]	6	FR1	0	R1243T
886.204	0.006	901156	STOP	n/a	n/a	n/a	-999	6	[-999, -999, -999]	n/a	FR1	0	R1243T
886.21	0.518	901162	DISTRACT_END	n/a	n/a	n/a	-999	6	[0, 0, 0]	n/a	FR1	0	R1243T
886.728	0.516	901680	RETRIEVAL_ORIENT	n/a	n/a	n/a	-999	6	[0, 0, 0]	n/a	FR1	0	R1243T
887.244	3.035	902196	REC_START	n/a	n/a	n/a	-999	6	[0, 0, 0]	n/a	FR1	0	R1243T
890.279	1.097	905231	REC_WORD	1.097	n/a	JET	-999	6	[0, 0, 0]	n/a	FR1	0	R1243T
891.376	18.316	906328	REC_WORD	18.316	n/a	BALL	-999	6	[0, 0, 0]	n/a	FR1	0	R1243T
909.692	4.048	924642	REC_WORD	4.048	n/a	PLANE	-999	6	[0, 0, 0]	n/a	FR1	0	R1243T
913.74	3.249	928690	REC_WORD	3.249	n/a	STEAK	-999	6	[0, 0, 0]	n/a	FR1	0	R1243T
916.989	0.269	931939	REC_WORD_VV	0.269	n/a	<>	-999	6	[0, 0, 0]	n/a	FR1	0	R1243T
917.258	10.026	932208	REC_END	n/a	n/a	n/a	-999	6	[0, 0, 0]	n/a	FR1	0	R1243T
927.284	0.5	942233	TRIAL	n/a	n/a	n/a	-999	7	[0, 0, 0]	n/a	FR1	0	R1243T
927.784	10.428	942733	COUNTDOWN_START	n/a	n/a	n/a	-999	7	[0, 0, 0]	n/a	FR1	0	R1243T
938.212	0.008	953161	COUNTDOWN_END	n/a	n/a	n/a	-999	7	[0, 0, 0]	n/a	FR1	0	R1243T
938.22	1.618	953169	ORIENT	n/a	n/a	n/a	-999	7	[0, 0, 0]	n/a	FR1	0	R1243T
939.838	2.266	954787	ORIENT_OFF	n/a	n/a	n/a	-999	7	[0, 0, 0]	n/a	FR1	0	R1243T
942.104	1.618	957052	WORD	n/a	wordpools/wordpool_EN.txt	THUMB	1	7	[0, 0, 0]	n/a	FR1	0	R1243T
943.722	0.85	958670	WORD_OFF	n/a	n/a	THUMB	1	7	[0, 0, 0]	n/a	FR1	0	R1243T
944.572	1.616	959520	WORD	n/a	wordpools/wordpool_EN.txt	TENT	2	7	[0, 0, 0]	n/a	FR1	0	R1243T
946.188	0.834	961136	WORD_OFF	n/a	n/a	TENT	2	7	[0, 0, 0]	n/a	FR1	0	R1243T
947.022	1.617	961970	WORD	n/a	wordpools/wordpool_EN.txt	MILK	3	7	[0, 0, 0]	n/a	FR1	0	R1243T
948.639	0.984	963587	WORD_OFF	n/a	n/a	MILK	3	7	[0, 0, 0]	n/a	FR1	0	R1243T
949.623	1.616	964571	WORD	n/a	wordpools/wordpool_EN.txt	VEST	4	7	[0, 0, 0]	n/a	FR1	0	R1243T
951.239	0.983	966187	WORD_OFF	n/a	n/a	VEST	4	7	[0, 0, 0]	n/a	FR1	0	R1243T
952.222	1.618	967170	WORD	n/a	wordpools/wordpool_EN.txt	JUICE	5	7	[0, 0, 0]	n/a	FR1	0	R1243T
953.84	0.867	968788	WORD_OFF	n/a	n/a	JUICE	5	7	[0, 0, 0]	n/a	FR1	0	R1243T
954.707	1.616	969655	WORD	n/a	wordpools/wordpool_EN.txt	PASTE	6	7	[0, 0, 0]	n/a	FR1	0	R1243T
956.323	0.784	971271	WORD_OFF	n/a	n/a	PASTE	6	7	[0, 0, 0]	n/a	FR1	0	R1243T
957.107	1.617	972055	WORD	n/a	wordpools/wordpool_EN.txt	GATE	7	7	[0, 0, 0]	n/a	FR1	0	R1243T
958.724	0.95	973671	WORD_OFF	n/a	n/a	GATE	7	7	[0, 0, 0]	n/a	FR1	0	R1243T
959.674	1.616	974621	WORD	n/a	wordpools/wordpool_EN.txt	CUP	8	7	[0, 0, 0]	n/a	FR1	0	R1243T
961.29	0.768	976237	WORD_OFF	n/a	n/a	CUP	8	7	[0, 0, 0]	n/a	FR1	0	R1243T
962.058	1.617	977005	WORD	n/a	wordpools/wordpool_EN.txt	HOSE	9	7	[0, 0, 0]	n/a	FR1	0	R1243T
963.675	0.784	978622	WORD_OFF	n/a	n/a	HOSE	9	7	[0, 0, 0]	n/a	FR1	0	R1243T
964.459	1.617	979406	WORD	n/a	wordpools/wordpool_EN.txt	HOOF	10	7	[0, 0, 0]	n/a	FR1	0	R1243T
966.076	0.917	981023	WORD_OFF	n/a	n/a	HOOF	10	7	[0, 0, 0]	n/a	FR1	0	R1243T
966.993	1.616	981940	WORD	n/a	wordpools/wordpool_EN.txt	SPARK	11	7	[0, 0, 0]	n/a	FR1	0	R1243T
968.609	0.851	983556	WORD_OFF	n/a	n/a	SPARK	11	7	[0, 0, 0]	n/a	FR1	0	R1243T
969.46	1.617	984407	WORD	n/a	wordpools/wordpool_EN.txt	DEER	12	7	[0, 0, 0]	n/a	FR1	0	R1243T
971.077	0.0	986024	WORD_OFF	n/a	n/a	DEER	12	7	[0, 0, 0]	n/a	FR1	0	R1243T
971.077	0.0	986024	DISTRACT_START	n/a	n/a	n/a	-999	7	[0, 0, 0]	n/a	FR1	0	R1243T
971.077	0.016	986024	START	n/a	n/a	n/a	-999	7	[-999, -999, -999]	n/a	FR1	0	R1243T
971.093	6.485	986040	PROB	6.485	n/a	n/a	-999	7	[9, 7, 3]	19	FR1	0	R1243T
977.578	5.001	992524	PROB	5.001	n/a	n/a	-999	7	[8, 6, 8]	24	FR1	0	R1243T
982.579	4.15	997525	PROB	4.15	n/a	n/a	-999	7	[1, 1, 6]	8	FR1	0	R1243T
986.729	5.53	1001675	PROB	5.53	n/a	n/a	-999	7	[7, 5, 5]	17	FR1	0	R1243T
992.259	0.02	1007204	STOP	n/a	n/a	n/a	-999	7	[-999, -999, -999]	n/a	FR1	0	R1243T
992.279	0.535	1007224	DISTRACT_END	n/a	n/a	n/a	-999	7	[0, 0, 0]	n/a	FR1	0	R1243T
992.814	0.516	1007759	RETRIEVAL_ORIENT	n/a	n/a	n/a	-999	7	[0, 0, 0]	n/a	FR1	0	R1243T
993.33	5.811	1008275	REC_START	n/a	n/a	n/a	-999	7	[0, 0, 0]	n/a	FR1	0	R1243T
999.141	0.518	1014086	REC_WORD	0.518	n/a	HOOK	-999	7	[0, 0, 0]	n/a	FR1	0	R1243T
999.659	5.354	1014604	REC_WORD	5.354	n/a	HOOF	-999	7	[0, 0, 0]	n/a	FR1	0	R1243T
1005.013	3.506	1019958	REC_WORD	3.506	n/a	DEER	-999	7	[0, 0, 0]	n/a	FR1	0	R1243T
1008.519	1.075	1023463	REC_WORD	1.075	n/a	JUICE	-999	7	[0, 0, 0]	n/a	FR1	0	R1243T
1009.594	1.468	1024538	REC_WORD	1.468	n/a	TENT	-999	7	[0, 0, 0]	n/a	FR1	0	R1243T
1011.062	1.597	1026006	REC_WORD	1.597	n/a	THUMB	-999	7	[0, 0, 0]	n/a	FR1	0	R1243T
1012.659	10.683	1027603	REC_WORD	10.683	n/a	FIST	-999	7	[0, 0, 0]	n/a	FR1	0	R1243T
1023.342	40.435	1038286	REC_END	n/a	n/a	n/a	-999	7	[0, 0, 0]	n/a	FR1	0	R1243T
1063.777	0.5	1078718	TRIAL	n/a	n/a	n/a	-999	8	[0, 0, 0]	n/a	FR1	0	R1243T
1064.277	10.428	1079218	COUNTDOWN_START	n/a	n/a	n/a	-999	8	[0, 0, 0]	n/a	FR1	0	R1243T
1074.705	0.007	1089645	COUNTDOWN_END	n/a	n/a	n/a	-999	8	[0, 0, 0]	n/a	FR1	0	R1243T
1074.712	1.616	1089652	ORIENT	n/a	n/a	n/a	-999	8	[0, 0, 0]	n/a	FR1	0	R1243T
1076.328	1.85	1091268	ORIENT_OFF	n/a	n/a	n/a	-999	8	[0, 0, 0]	n/a	FR1	0	R1243T
1078.178	1.601	1093118	WORD	n/a	wordpools/wordpool_EN.txt	RAT	1	8	[0, 0, 0]	n/a	FR1	0	R1243T
1079.779	1.018	1094719	WORD_OFF	n/a	n/a	RAT	1	8	[0, 0, 0]	n/a	FR1	0	R1243T
1080.797	1.617	1095737	WORD	n/a	wordpools/wordpool_EN.txt	DIME	2	8	[0, 0, 0]	n/a	FR1	0	R1243T
1082.414	0.799	1097354	WORD_OFF	n/a	n/a	DIME	2	8	[0, 0, 0]	n/a	FR1	0	R1243T
1083.213	1.618	1098153	WORD	n/a	wordpools/wordpool_EN.txt	BENCH	3	8	[0, 0, 0]	n/a	FR1	0	R1243T
1084.831	0.916	1099771	WORD_OFF	n/a	n/a	BENCH	3	8	[0, 0, 0]	n/a	FR1	0	R1243T
1085.747	1.616	1100687	WORD	n/a	wordpools/wordpool_EN.txt	ROAD	4	8	[0, 0, 0]	n/a	FR1	0	R1243T
1087.363	0.768	1102303	WORD_OFF	n/a	n/a	ROAD	4	8	[0, 0, 0]	n/a	FR1	0	R1243T
1088.131	1.617	1103071	WORD	n/a	wordpools/wordpool_EN.txt	SHIRT	5	8	[0, 0, 0]	n/a	FR1	0	R1243T
1089.748	0.967	1104687	WORD_OFF	n/a	n/a	SHIRT	5	8	[0, 0, 0]	n/a	FR1	0	R1243T
1090.715	1.616	1105654	WORD	n/a	wordpools/wordpool_EN.txt	BAG	6	8	[0, 0, 0]	n/a	FR1	0	R1243T
1092.331	0.768	1107270	WORD_OFF	n/a	n/a	BAG	6	8	[0, 0, 0]	n/a	FR1	0	R1243T
1093.099	1.617	1108038	WORD	n/a	wordpools/wordpool_EN.txt	BAT	7	8	[0, 0, 0]	n/a	FR1	0	R1243T
1094.716	0.967	1109655	WORD_OFF	n/a	n/a	BAT	7	8	[0, 0, 0]	n/a	FR1	0	R1243T
1095.683	1.616	1110622	WORD	n/a	wordpools/wordpool_EN.txt	TAIL	8	8	[0, 0, 0]	n/a	FR1	0	R1243T
1097.299	0.784	1112238	WORD_OFF	n/a	n/a	TAIL	8	8	[0, 0, 0]	n/a	FR1	0	R1243T
1098.083	1.617	1113022	WORD	n/a	wordpools/wordpool_EN.txt	HAND	9	8	[0, 0, 0]	n/a	FR1	0	R1243T
1099.7	0.9	1114639	WORD_OFF	n/a	n/a	HAND	9	8	[0, 0, 0]	n/a	FR1	0	R1243T
1100.6	1.616	1115539	WORD	n/a	wordpools/wordpool_EN.txt	FLEA	10	8	[0, 0, 0]	n/a	FR1	0	R1243T
1102.216	0.835	1117155	WORD_OFF	n/a	n/a	FLEA	10	8	[0, 0, 0]	n/a	FR1	0	R1243T
1103.051	1.617	1117990	WORD	n/a	wordpools/wordpool_EN.txt	ELF	11	8	[0, 0, 0]	n/a	FR1	0	R1243T
1104.668	1.0	1119607	WORD_OFF	n/a	n/a	ELF	11	8	[0, 0, 0]	n/a	FR1	0	R1243T
1105.668	1.616	1120607	WORD	n/a	wordpools/wordpool_EN.txt	STAIR	12	8	[0, 0, 0]	n/a	FR1	0	R1243T
1107.284	0.0	1122222	WORD_OFF	n/a	n/a	STAIR	12	8	[0, 0, 0]	n/a	FR1	0	R1243T
1107.284	0.0	1122222	DISTRACT_START	n/a	n/a	n/a	-999	8	[0, 0, 0]	n/a	FR1	0	R1243T
1107.284	0.016	1122222	START	n/a	n/a	n/a	-999	8	[-999, -999, -999]	n/a	FR1	0	R1243T
1107.3	7.068	1122238	PROB	7.068	n/a	n/a	-999	8	[3, 6, 7]	16	FR1	0	R1243T
1114.368	5.486	1129306	PROB	5.486	n/a	n/a	-999	8	[9, 8, 3]	20	FR1	0	R1243T
1119.854	4.634	1134792	PROB	4.634	n/a	n/a	-999	8	[1, 6, 7]	14	FR1	0	R1243T
1124.488	12.173	1139425	PROB	12.173	n/a	n/a	-999	8	[7, 4, 7]	18	FR1	0	R1243T
1136.661	0.012	1151598	STOP	n/a	n/a	n/a	-999	8	[-999, -999, -999]	n/a	FR1	0	R1243T
1136.673	0.65	1151610	DISTRACT_END	n/a	n/a	n/a	-999	8	[0, 0, 0]	n/a	FR1	0	R1243T
1137.323	0.518	1152260	RETRIEVAL_ORIENT	n/a	n/a	n/a	-999	8	[0, 0, 0]	n/a	FR1	0	R1243T
1137.841	5.204	1152778	REC_START	n/a	n/a	n/a	-999	8	[0, 0, 0]	n/a	FR1	0	R1243T
1143.045	0.523	1157981	REC_WORD	0.523	n/a	RAT	-999	8	[0, 0, 0]	n/a	FR1	0	R1243T
1143.568	16.232	1158504	REC_WORD	16.232	n/a	BAT	-999	8	[0, 0, 0]	n/a	FR1	0	R1243T
1159.8	8.053	1174735	REC_WORD	8.053	n/a	BOUNCE	-999	8	[0, 0, 0]	n/a	FR1	0	R1243T
1167.853	5.71	1182788	REC_END	n/a	n/a	n/a	-999	8	[0, 0, 0]	n/a	FR1	0	R1243T
1173.563	0.5	1188497	TRIAL	n/a	n/a	n/a	-999	9	[0, 0, 0]	n/a	FR1	0	R1243T
1174.063	10.428	1188997	COUNTDOWN_START	n/a	n/a	n/a	-999	9	[0, 0, 0]	n/a	FR1	0	R1243T
1184.491	0.008	1199425	COUNTDOWN_END	n/a	n/a	n/a	-999	9	[0, 0, 0]	n/a	FR1	0	R1243T
1184.499	1.617	1199433	ORIENT	n/a	n/a	n/a	-999	9	[0, 0, 0]	n/a	FR1	0	R1243T
1186.116	2.0	1201050	ORIENT_OFF	n/a	n/a	n/a	-999	9	[0, 0, 0]	n/a	FR1	0	R1243T
1188.116	1.617	1203050	WORD	n/a	wordpools/wordpool_EN.txt	CAKE	1	9	[0, 0, 0]	n/a	FR1	0	R1243T
1189.733	0.767	1204666	WORD_OFF	n/a	n/a	CAKE	1	9	[0, 0, 0]	n/a	FR1	0	R1243T
1190.5	1.617	1205433	WORD	n/a	wordpools/wordpool_EN.txt	ARM	2	9	[0, 0, 0]	n/a	FR1	0	R1243T
1192.117	0.933	1207050	WORD_OFF	n/a	n/a	ARM	2	9	[0, 0, 0]	n/a	FR1	0	R1243T
1193.05	1.617	1207983	WORD	n/a	wordpools/wordpool_EN.txt	STREET	3	9	[0, 0, 0]	n/a	FR1	0	R1243T
1194.667	0.851	1209600	WORD_OFF	n/a	n/a	STREET	3	9	[0, 0, 0]	n/a	FR1	0	R1243T
1195.518	1.616	1210451	WORD	n/a	wordpools/wordpool_EN.txt	FOOD	4	9	[0, 0, 0]	n/a	FR1	0	R1243T
1197.134	0.951	1212067	WORD_OFF	n/a	n/a	FOOD	4	9	[0, 0, 0]	n/a	FR1	0	R1243T
1198.085	1.617	1213018	WORD	n/a	wordpools/wordpool_EN.txt	TOOL	5	9	[0, 0, 0]	n/a	FR1	0	R1243T
1199.702	0.9	1214635	WORD_OFF	n/a	n/a	TOOL	5	9	[0, 0, 0]	n/a	FR1	0	R1243T
1200.602	1.616	1215535	WORD	n/a	wordpools/wordpool_EN.txt	WAND	6	9	[0, 0, 0]	n/a	FR1	0	R1243T
1202.218	0.834	1217151	WORD_OFF	n/a	n/a	WAND	6	9	[0, 0, 0]	n/a	FR1	0	R1243T
1203.052	1.617	1217985	WORD	n/a	wordpools/wordpool_EN.txt	FACE	7	9	[0, 0, 0]	n/a	FR1	0	R1243T
1204.669	1.0	1219602	WORD_OFF	n/a	n/a	FACE	7	9	[0, 0, 0]	n/a	FR1	0	R1243T
1205.669	1.616	1220601	WORD	n/a	wordpools/wordpool_EN.txt	MAT	8	9	[0, 0, 0]	n/a	FR1	0	R1243T
1207.285	0.835	1222217	WORD_OFF	n/a	n/a	MAT	8	9	[0, 0, 0]	n/a	FR1	0	R1243T
1208.12	1.617	1223052	WORD	n/a	wordpools/wordpool_EN.txt	SKUNK	9	9	[0, 0, 0]	n/a	FR1	0	R1243T
1209.737	0.95	1224669	WORD_OFF	n/a	n/a	SKUNK	9	9	[0, 0, 0]	n/a	FR1	0	R1243T
1210.687	1.616	1225619	WORD	n/a	wordpools/wordpool_EN.txt	BROOM	10	9	[0, 0, 0]	n/a	FR1	0	R1243T
1212.303	0.784	1227235	WORD_OFF	n/a	n/a	BROOM	10	9	[0, 0, 0]	n/a	FR1	0	R1243T
1213.087	1.617	1228019	WORD	n/a	wordpools/wordpool_EN.txt	STORE	11	9	[0, 0, 0]	n/a	FR1	0	R1243T
1214.704	1.017	1229636	WORD_OFF	n/a	n/a	STORE	11	9	[0, 0, 0]	n/a	FR1	0	R1243T
1215.721	1.616	1230653	WORD	n/a	wordpools/wordpool_EN.txt	WING	12	9	[0, 0, 0]	n/a	FR1	0	R1243T
1217.337	0.0	1232269	WORD_OFF	n/a	n/a	WING	12	9	[0, 0, 0]	n/a	FR1	0	R1243T
1217.337	0.001	1232269	DISTRACT_START	n/a	n/a	n/a	-999	9	[0, 0, 0]	n/a	FR1	0	R1243T
1217.338	0.016	1232270	START	n/a	n/a	n/a	-999	9	[-999, -999, -999]	n/a	FR1	0	R1243T
1217.354	6.934	1232286	PROB	6.934	n/a	n/a	-999	9	[6, 7, 2]	15	FR1	0	R1243T
1224.288	5.286	1239219	PROB	5.286	n/a	n/a	-999	9	[1, 6, 9]	16	FR1	0	R1243T
1229.574	5.467	1244505	PROB	5.467	n/a	n/a	-999	9	[9, 4, 9]	22	FR1	0	R1243T
1235.041	8.108	1249972	PROB	8.108	n/a	n/a	-999	9	[2, 6, 5]	13	FR1	0	R1243T
1243.149	0.01	1258079	STOP	n/a	n/a	n/a	-999	9	[-999, -999, -999]	n/a	FR1	0	R1243T
1243.159	0.617	1258089	DISTRACT_END	n/a	n/a	n/a	-999	9	[0, 0, 0]	n/a	FR1	0	R1243T
1243.776	0.517	1258706	RETRIEVAL_ORIENT	n/a	n/a	n/a	-999	9	[0, 0, 0]	n/a	FR1	0	R1243T
1244.293	9.054	1259223	REC_START	n/a	n/a	n/a	-999	9	[0, 0, 0]	n/a	FR1	0	R1243T
1253.347	0.589	1268277	REC_WORD	0.589	n/a	ARM	-999	9	[0, 0, 0]	n/a	FR1	0	R1243T
1253.936	1.35	1268866	REC_WORD	1.35	n/a	CAKE	-999	9	[0, 0, 0]	n/a	FR1	0	R1243T
1255.286	7.667	1270215	REC_WORD	7.667	n/a	BAKE	-999	9	[0, 0, 0]	n/a	FR1	0	R1243T
1262.953	6.98	1277882	REC_WORD	6.98	n/a	TOOL	-999	9	[0, 0, 0]	n/a	FR1	0	R1243T
1269.933	4.3	1284862	REC_WORD	4.3	n/a	FOOD	-999	9	[0, 0, 0]	n/a	FR1	0	R1243T
1274.233	0.071	1289161	REC_WORD_VV	0.071	n/a	<>	-999	9	[0, 0, 0]	n/a	FR1	0	R1243T
1274.304	7.696	1289232	REC_END	n/a	n/a	n/a	-999	9	[0, 0, 0]	n/a	FR1	0	R1243T
1282.0	0.5	1296928	TRIAL	n/a	n/a	n/a	-999	10	[0, 0, 0]	n/a	FR1	0	R1243T
1282.5	10.428	1297428	COUNTDOWN_START	n/a	n/a	n/a	-999	10	[0, 0, 0]	n/a	FR1	0	R1243T
1292.928	0.007	1307855	COUNTDOWN_END	n/a	n/a	n/a	-999	10	[0, 0, 0]	n/a	FR1	0	R1243T
1292.935	1.617	1307862	ORIENT	n/a	n/a	n/a	-999	10	[0, 0, 0]	n/a	FR1	0	R1243T
1294.552	2.001	1309479	ORIENT_OFF	n/a	n/a	n/a	-999	10	[0, 0, 0]	n/a	FR1	0	R1243T
1296.553	1.615	1311480	WORD	n/a	wordpools/wordpool_EN.txt	BUSH	1	10	[0, 0, 0]	n/a	FR1	0	R1243T
1298.168	0.785	1313095	WORD_OFF	n/a	n/a	BUSH	1	10	[0, 0, 0]	n/a	FR1	0	R1243T
1298.953	1.617	1313880	WORD	n/a	wordpools/wordpool_EN.txt	SPRING	2	10	[0, 0, 0]	n/a	FR1	0	R1243T
1300.57	0.883	1315497	WORD_OFF	n/a	n/a	SPRING	2	10	[0, 0, 0]	n/a	FR1	0	R1243T
1301.453	1.617	1316380	WORD	n/a	wordpools/wordpool_EN.txt	PIT	3	10	[0, 0, 0]	n/a	FR1	0	R1243T
1303.07	1.001	1317997	WORD_OFF	n/a	n/a	PIT	3	10	[0, 0, 0]	n/a	FR1	0	R1243T
1304.071	1.617	1318997	WORD	n/a	wordpools/wordpool_EN.txt	ROOM	4	10	[0, 0, 0]	n/a	FR1	0	R1243T
1305.688	0.816	1320614	WORD_OFF	n/a	n/a	ROOM	4	10	[0, 0, 0]	n/a	FR1	0	R1243T
1306.504	1.617	1321430	WORD	n/a	wordpools/wordpool_EN.txt	SIGN	5	10	[0, 0, 0]	n/a	FR1	0	R1243T
1308.121	0.884	1323047	WORD_OFF	n/a	n/a	SIGN	5	10	[0, 0, 0]	n/a	FR1	0	R1243T
1309.005	1.617	1323931	WORD	n/a	wordpools/wordpool_EN.txt	TOAST	6	10	[0, 0, 0]	n/a	FR1	0	R1243T
1310.622	0.8	1325548	WORD_OFF	n/a	n/a	TOAST	6	10	[0, 0, 0]	n/a	FR1	0	R1243T
1311.422	1.617	1326348	WORD	n/a	wordpools/wordpool_EN.txt	FLOOR	7	10	[0, 0, 0]	n/a	FR1	0	R1243T
1313.039	0.767	1327965	WORD_OFF	n/a	n/a	FLOOR	7	10	[0, 0, 0]	n/a	FR1	0	R1243T
1313.806	1.617	1328732	WORD	n/a	wordpools/wordpool_EN.txt	SEA	8	10	[0, 0, 0]	n/a	FR1	0	R1243T
1315.423	0.832	1330349	WORD_OFF	n/a	n/a	SEA	8	10	[0, 0, 0]	n/a	FR1	0	R1243T
1316.255	1.618	1331181	WORD	n/a	wordpools/wordpool_EN.txt	STAR	9	10	[0, 0, 0]	n/a	FR1	0	R1243T
1317.873	0.884	1332799	WORD_OFF	n/a	n/a	STAR	9	10	[0, 0, 0]	n/a	FR1	0	R1243T
1318.757	1.616	1333683	WORD	n/a	wordpools/wordpool_EN.txt	OAR	10	10	[0, 0, 0]	n/a	FR1	0	R1243T
1320.373	0.916	1335299	WORD_OFF	n/a	n/a	OAR	10	10	[0, 0, 0]	n/a	FR1	0	R1243T
1321.289	1.601	1336214	WORD	n/a	wordpools/wordpool_EN.txt	BRUSH	11	10	[0, 0, 0]	n/a	FR1	0	R1243T
1322.89	0.934	1337815	WORD_OFF	n/a	n/a	BRUSH	11	10	[0, 0, 0]	n/a	FR1	0	R1243T
1323.824	1.617	1338749	WORD	n/a	wordpools/wordpool_EN.txt	ROOT	12	10	[0, 0, 0]	n/a	FR1	0	R1243T
1325.441	0.0	1340366	DISTRACT_START	n/a	n/a	n/a	-999	10	[0, 0, 0]	n/a	FR1	0	R1243T
1325.441	0.001	1340366	WORD_OFF	n/a	n/a	ROOT	12	10	[0, 0, 0]	n/a	FR1	0	R1243T
1325.442	0.016	1340367	START	n/a	n/a	n/a	-999	10	[-999, -999, -999]	n/a	FR1	0	R1243T
1325.458	6.984	1340383	PROB	6.984	n/a	n/a	-999	10	[2, 7, 9]	18	FR1	0	R1243T
1332.442	5.951	1347367	PROB	5.951	n/a	n/a	-999	10	[5, 4, 8]	17	FR1	0	R1243T
1338.393	5.285	1353317	PROB	5.285	n/a	n/a	-999	10	[6, 7, 1]	14	FR1	0	R1243T
1343.678	7.174	1358602	PROB	7.174	n/a	n/a	-999	10	[5, 8, 8]	21	FR1	0	R1243T
1350.852	0.01	1365776	STOP	n/a	n/a	n/a	-999	10	[-999, -999, -999]	n/a	FR1	0	R1243T
1350.862	0.634	1365786	DISTRACT_END	n/a	n/a	n/a	-999	10	[0, 0, 0]	n/a	FR1	0	R1243T
1351.496	0.517	1366420	RETRIEVAL_ORIENT	n/a	n/a	n/a	-999	10	[0, 0, 0]	n/a	FR1	0	R1243T
1352.013	8.921	1366937	REC_START	n/a	n/a	n/a	-999	10	[0, 0, 0]	n/a	FR1	0	R1243T
1360.934	1.265	1375857	REC_WORD	1.265	n/a	BUSH	-999	10	[0, 0, 0]	n/a	FR1	0	R1243T
1362.199	1.738	1377122	REC_WORD	1.738	n/a	SPRING	-999	10	[0, 0, 0]	n/a	FR1	0	R1243T
1363.937	6.339	1378860	REC_WORD	6.339	n/a	PIT	-999	10	[0, 0, 0]	n/a	FR1	0	R1243T
1370.276	11.749	1385198	REC_WORD	11.749	n/a	BRUSH	-999	10	[0, 0, 0]	n/a	FR1	0	R1243T
1382.025	14.762	1396947	REC_END	n/a	n/a	n/a	-999	10	[0, 0, 0]	n/a	FR1	0	R1243T
1396.787	0.5	1411708	TRIAL	n/a	n/a	n/a	-999	11	[0, 0, 0]	n/a	FR1	0	R1243T
1397.287	10.428	1412208	COUNTDOWN_START	n/a	n/a	n/a	-999	11	[0, 0, 0]	n/a	FR1	0	R1243T
1407.715	0.008	1422635	COUNTDOWN_END	n/a	n/a	n/a	-999	11	[0, 0, 0]	n/a	FR1	0	R1243T
1407.723	1.616	1422643	ORIENT	n/a	n/a	n/a	-999	11	[0, 0, 0]	n/a	FR1	0	R1243T
1409.339	2.084	1424259	ORIENT_OFF	n/a	n/a	n/a	-999	11	[0, 0, 0]	n/a	FR1	0	R1243T
1411.423	1.618	1426343	WORD	n/a	wordpools/wordpool_EN.txt	YARD	1	11	[0, 0, 0]	n/a	FR1	0	R1243T
1413.041	0.866	1427961	WORD_OFF	n/a	n/a	YARD	1	11	[0, 0, 0]	n/a	FR1	0	R1243T
1413.907	1.617	1428827	WORD	n/a	wordpools/wordpool_EN.txt	SLEEVE	2	11	[0, 0, 0]	n/a	FR1	0	R1243T
1415.524	0.934	1430444	WORD_OFF	n/a	n/a	SLEEVE	2	11	[0, 0, 0]	n/a	FR1	0	R1243T
1416.458	1.617	1431378	WORD	n/a	wordpools/wordpool_EN.txt	FLUTE	3	11	[0, 0, 0]	n/a	FR1	0	R1243T
1418.075	0.783	1432995	WORD_OFF	n/a	n/a	FLUTE	3	11	[0, 0, 0]	n/a	FR1	0	R1243T
1418.858	1.617	1433778	WORD	n/a	wordpools/wordpool_EN.txt	SUIT	4	11	[0, 0, 0]	n/a	FR1	0	R1243T
1420.475	0.816	1435394	WORD_OFF	n/a	n/a	SUIT	4	11	[0, 0, 0]	n/a	FR1	0	R1243T
1421.291	1.618	1436210	WORD	n/a	wordpools/wordpool_EN.txt	BOOT	5	11	[0, 0, 0]	n/a	FR1	0	R1243T
1422.909	0.916	1437828	WORD_OFF	n/a	n/a	BOOT	5	11	[0, 0, 0]	n/a	FR1	0	R1243T
1423.825	1.618	1438744	WORD	n/a	wordpools/wordpool_EN.txt	ICE	6	11	[0, 0, 0]	n/a	FR1	0	R1243T
1425.443	0.832	1440362	WORD_OFF	n/a	n/a	ICE	6	11	[0, 0, 0]	n/a	FR1	0	R1243T
1426.275	1.601	1441194	WORD	n/a	wordpools/wordpool_EN.txt	GUARD	7	11	[0, 0, 0]	n/a	FR1	0	R1243T
1427.876	1.001	1442795	WORD_OFF	n/a	n/a	GUARD	7	11	[0, 0, 0]	n/a	FR1	0	R1243T
1428.877	1.617	1443796	WORD	n/a	wordpools/wordpool_EN.txt	SOAP	8	11	[0, 0, 0]	n/a	FR1	0	R1243T
1430.494	1.0	1445413	WORD_OFF	n/a	n/a	SOAP	8	11	[0, 0, 0]	n/a	FR1	0	R1243T
1431.494	1.617	1446413	WORD	n/a	wordpools/wordpool_EN.txt	PET	9	11	[0, 0, 0]	n/a	FR1	0	R1243T
1433.111	0.783	1448030	WORD_OFF	n/a	n/a	PET	9	11	[0, 0, 0]	n/a	FR1	0	R1243T
1433.894	1.617	1448813	WORD	n/a	wordpools/wordpool_EN.txt	BADGE	10	11	[0, 0, 0]	n/a	FR1	0	R1243T
1435.511	0.95	1450430	WORD_OFF	n/a	n/a	BADGE	10	11	[0, 0, 0]	n/a	FR1	0	R1243T
1436.461	1.617	1451379	WORD	n/a	wordpools/wordpool_EN.txt	DOG	11	11	[0, 0, 0]	n/a	FR1	0	R1243T
1438.078	0.934	1452996	WORD_OFF	n/a	n/a	DOG	11	11	[0, 0, 0]	n/a	FR1	0	R1243T
1439.012	1.617	1453930	WORD	n/a	wordpools/wordpool_EN.txt	SOCK	12	11	[0, 0, 0]	n/a	FR1	0	R1243T
1440.629	0.0	1455547	WORD_OFF	n/a	n/a	SOCK	12	11	[0, 0, 0]	n/a	FR1	0	R1243T
1440.629	0.0	1455547	DISTRACT_START	n/a	n/a	n/a	-999	11	[0, 0, 0]	n/a	FR1	0	R1243T
1440.629	0.016	1455547	START	n/a	n/a	n/a	-999	11	[-999, -999, -999]	n/a	FR1	0	R1243T
1440.645	5.667	1455563	PROB	5.667	n/a	n/a	-999	11	[2, 3, 6]	11	FR1	0	R1243T
1446.312	5.619	1461230	PROB	5.619	n/a	n/a	-999	11	[6, 8, 4]	18	FR1	0	R1243T
1451.931	4.316	1466849	PROB	4.316	n/a	n/a	-999	11	[3, 7, 5]	15	FR1	0	R1243T
1456.247	4.185	1471164	PROB	4.185	n/a	n/a	-999	11	[3, 5, 1]	9	FR1	0	R1243T
1460.432	4.355	1475349	PROB	4.355	n/a	n/a	-999	11	[9, 5, 5]	19	FR1	0	R1243T
1464.787	0.013	1479704	STOP	n/a	n/a	n/a	-999	11	[-999, -999, -999]	n/a	FR1	0	R1243T
1464.8	0.549	1479717	DISTRACT_END	n/a	n/a	n/a	-999	11	[0, 0, 0]	n/a	FR1	0	R1243T
1465.349	0.518	1480266	RETRIEVAL_ORIENT	n/a	n/a	n/a	-999	11	[0, 0, 0]	n/a	FR1	0	R1243T
1465.867	12.97	1480784	REC_START	n/a	n/a	n/a	-999	11	[0, 0, 0]	n/a	FR1	0	R1243T
1478.837	1.423	1493753	REC_WORD	1.423	n/a	YARD	-999	11	[0, 0, 0]	n/a	FR1	0	R1243T
1480.26	10.904	1495176	REC_WORD	10.904	n/a	ARM	-999	11	[0, 0, 0]	n/a	FR1	0	R1243T
1491.164	3.442	1506079	REC_WORD	3.442	n/a	PACK	-999	11	[0, 0, 0]	n/a	FR1	0	R1243T
1494.606	1.272	1509521	REC_WORD	1.272	n/a	CUT	-999	11	[0, 0, 0]	n/a	FR1	0	R1243T
1495.878	5.595	1510793	REC_END	n/a	n/a	n/a	-999	11	[0, 0, 0]	n/a	FR1	0	R1243T
1501.473	0.5	1516388	TRIAL	n/a	n/a	n/a	-999	12	[0, 0, 0]	n/a	FR1	0	R1243T
1501.973	10.428	1516887	COUNTDOWN_START	n/a	n/a	n/a	-999	12	[0, 0, 0]	n/a	FR1	0	R1243T
1512.401	0.008	1527315	COUNTDOWN_END	n/a	n/a	n/a	-999	12	[0, 0, 0]	n/a	FR1	0	R1243T
1512.409	1.616	1527323	ORIENT	n/a	n/a	n/a	-999	12	[0, 0, 0]	n/a	FR1	0	R1243T
1514.025	2.133	1528939	ORIENT_OFF	n/a	n/a	n/a	-999	12	[0, 0, 0]	n/a	FR1	0	R1243T
1516.158	1.618	1531072	WORD	n/a	wordpools/wordpool_EN.txt	CHEEK	1	12	[0, 0, 0]	n/a	FR1	0	R1243T
1517.776	0.984	1532690	WORD_OFF	n/a	n/a	CHEEK	1	12	[0, 0, 0]	n/a	FR1	0	R1243T
1518.76	1.616	1533673	WORD	n/a	wordpools/wordpool_EN.txt	CALF	2	12	[0, 0, 0]	n/a	FR1	0	R1243T
1520.376	0.933	1535289	WORD_OFF	n/a	n/a	CALF	2	12	[0, 0, 0]	n/a	FR1	0	R1243T
1521.309	1.601	1536222	WORD	n/a	wordpools/wordpool_EN.txt	NAIL	3	12	[0, 0, 0]	n/a	FR1	0	R1243T
1522.91	0.801	1537823	WORD_OFF	n/a	n/a	NAIL	3	12	[0, 0, 0]	n/a	FR1	0	R1243T
1523.711	1.616	1538624	WORD	n/a	wordpools/wordpool_EN.txt	COIN	4	12	[0, 0, 0]	n/a	FR1	0	R1243T
1525.327	0.833	1540240	WORD_OFF	n/a	n/a	COIN	4	12	[0, 0, 0]	n/a	FR1	0	R1243T
1526.16	1.618	1541073	WORD	n/a	wordpools/wordpool_EN.txt	ROPE	5	12	[0, 0, 0]	n/a	FR1	0	R1243T
1527.778	0.917	1542691	WORD_OFF	n/a	n/a	ROPE	5	12	[0, 0, 0]	n/a	FR1	0	R1243T
1528.695	1.616	1543608	WORD	n/a	wordpools/wordpool_EN.txt	PEACH	6	12	[0, 0, 0]	n/a	FR1	0	R1243T
1530.311	0.883	1545224	WORD_OFF	n/a	n/a	PEACH	6	12	[0, 0, 0]	n/a	FR1	0	R1243T
1531.194	1.618	1546107	WORD	n/a	wordpools/wordpool_EN.txt	DART	7	12	[0, 0, 0]	n/a	FR1	0	R1243T
1532.812	0.967	1547725	WORD_OFF	n/a	n/a	DART	7	12	[0, 0, 0]	n/a	FR1	0	R1243T
1533.779	1.617	1548692	WORD	n/a	wordpools/wordpool_EN.txt	PANTS	8	12	[0, 0, 0]	n/a	FR1	0	R1243T
1535.396	0.799	1550308	WORD_OFF	n/a	n/a	PANTS	8	12	[0, 0, 0]	n/a	FR1	0	R1243T
1536.195	1.618	1551107	WORD	n/a	wordpools/wordpool_EN.txt	FOX	9	12	[0, 0, 0]	n/a	FR1	0	R1243T
1537.813	0.967	1552725	WORD_OFF	n/a	n/a	FOX	9	12	[0, 0, 0]	n/a	FR1	0	R1243T
1538.78	1.617	1553692	WORD	n/a	wordpools/wordpool_EN.txt	SEED	10	12	[0, 0, 0]	n/a	FR1	0	R1243T
1540.397	0.782	1555309	WORD_OFF	n/a	n/a	SEED	10	12	[0, 0, 0]	n/a	FR1	0	R1243T
1541.179	1.618	1556091	WORD	n/a	wordpools/wordpool_EN.txt	SPEAR	11	12	[0, 0, 0]	n/a	FR1	0	R1243T
1542.797	1.017	1557709	WORD_OFF	n/a	n/a	SPEAR	11	12	[0, 0, 0]	n/a	FR1	0	R1243T
1543.814	1.617	1558726	WORD	n/a	wordpools/wordpool_EN.txt	BOX	12	12	[0, 0, 0]	n/a	FR1	0	R1243T
1545.431	0.0	1560343	WORD_OFF	n/a	n/a	BOX	12	12	[0, 0, 0]	n/a	FR1	0	R1243T
1545.431	0.001	1560343	DISTRACT_START	n/a	n/a	n/a	-999	12	[0, 0, 0]	n/a	FR1	0	R1243T
1545.432	0.016	1560344	START	n/a	n/a	n/a	-999	12	[-999, -999, -999]	n/a	FR1	0	R1243T
1545.448	8.468	1560360	PROB	8.468	n/a	n/a	-999	12	[3, 3, 7]	11	FR1	0	R1243T
1553.916	4.718	1568827	PROB	4.718	n/a	n/a	-999	12	[3, 1, 7]	11	FR1	0	R1243T
1558.634	6.923	1573545	PROB	6.923	n/a	n/a	-999	12	[5, 7, 5]	17	FR1	0	R1243T
1565.557	0.011	1580468	STOP	n/a	n/a	n/a	-999	12	[-999, -999, -999]	n/a	FR1	0	R1243T
1565.568	0.55	1580479	DISTRACT_END	n/a	n/a	n/a	-999	12	[0, 0, 0]	n/a	FR1	0	R1243T
1566.118	0.518	1581029	RETRIEVAL_ORIENT	n/a	n/a	n/a	-999	12	[0, 0, 0]	n/a	FR1	0	R1243T
1566.636	3.775	1581547	REC_START	n/a	n/a	n/a	-999	12	[0, 0, 0]	n/a	FR1	0	R1243T
1570.411	2.488	1585321	REC_WORD_VV	2.488	n/a	<>	-999	12	[0, 0, 0]	n/a	FR1	0	R1243T
1572.899	9.713	1587809	REC_WORD_VV	9.713	n/a	<>	-999	12	[0, 0, 0]	n/a	FR1	0	R1243T
1582.612	3.021	1597522	REC_WORD	3.021	n/a	CHEEK	-999	12	[0, 0, 0]	n/a	FR1	0	R1243T
1585.633	2.637	1600542	REC_WORD	2.637	n/a	FOX	-999	12	[0, 0, 0]	n/a	FR1	0	R1243T
1588.27	5.448	1603179	REC_WORD	5.448	n/a	SPIKE	-999	12	[0, 0, 0]	n/a	FR1	0	R1243T
1593.718	2.929	1608627	REC_WORD	2.929	n/a	HERE	-999	12	[0, 0, 0]	n/a	FR1	0	R1243T
1596.647	5.911	1611556	REC_END	n/a	n/a	n/a	-999	12	[0, 0, 0]	n/a	FR1	0	R1243T
1602.558	0.5	1617466	TRIAL	n/a	n/a	n/a	-999	13	[0, 0, 0]	n/a	FR1	0	R1243T
1603.058	10.428	1617966	COUNTDOWN_START	n/a	n/a	n/a	-999	13	[0, 0, 0]	n/a	FR1	0	R1243T
1613.486	0.008	1628394	COUNTDOWN_END	n/a	n/a	n/a	-999	13	[0, 0, 0]	n/a	FR1	0	R1243T
1613.494	1.617	1628402	ORIENT	n/a	n/a	n/a	-999	13	[0, 0, 0]	n/a	FR1	0	R1243T
1615.111	2.316	1630019	ORIENT_OFF	n/a	n/a	n/a	-999	13	[0, 0, 0]	n/a	FR1	0	R1243T
1617.427	1.601	1632334	WORD	n/a	wordpools/wordpool_EN.txt	CROWN	1	13	[0, 0, 0]	n/a	FR1	0	R1243T
1619.028	0.983	1633935	WORD_OFF	n/a	n/a	CROWN	1	13	[0, 0, 0]	n/a	FR1	0	R1243T
1620.011	1.617	1634918	WORD	n/a	wordpools/wordpool_EN.txt	NEST	2	13	[0, 0, 0]	n/a	FR1	0	R1243T
1621.628	0.767	1636535	WORD_OFF	n/a	n/a	NEST	2	13	[0, 0, 0]	n/a	FR1	0	R1243T
1622.395	1.617	1637302	WORD	n/a	wordpools/wordpool_EN.txt	PEAR	3	13	[0, 0, 0]	n/a	FR1	0	R1243T
1624.012	1.0	1638919	WORD_OFF	n/a	n/a	PEAR	3	13	[0, 0, 0]	n/a	FR1	0	R1243T
1625.012	1.617	1639919	WORD	n/a	wordpools/wordpool_EN.txt	KEY	4	13	[0, 0, 0]	n/a	FR1	0	R1243T
1626.629	0.8	1641536	WORD_OFF	n/a	n/a	KEY	4	13	[0, 0, 0]	n/a	FR1	0	R1243T
1627.429	1.617	1642336	WORD	n/a	wordpools/wordpool_EN.txt	INK	5	13	[0, 0, 0]	n/a	FR1	0	R1243T
1629.046	0.9	1643953	WORD_OFF	n/a	n/a	INK	5	13	[0, 0, 0]	n/a	FR1	0	R1243T
1629.946	1.618	1644853	WORD	n/a	wordpools/wordpool_EN.txt	BOARD	6	13	[0, 0, 0]	n/a	FR1	0	R1243T
1631.564	0.866	1646471	WORD_OFF	n/a	n/a	BOARD	6	13	[0, 0, 0]	n/a	FR1	0	R1243T
1632.43	1.617	1647337	WORD	n/a	wordpools/wordpool_EN.txt	MOUTH	7	13	[0, 0, 0]	n/a	FR1	0	R1243T
1634.047	0.9	1648953	WORD_OFF	n/a	n/a	MOUTH	7	13	[0, 0, 0]	n/a	FR1	0	R1243T
1634.947	1.617	1649853	WORD	n/a	wordpools/wordpool_EN.txt	PRINCE	8	13	[0, 0, 0]	n/a	FR1	0	R1243T
1636.564	1.001	1651470	WORD_OFF	n/a	n/a	PRINCE	8	13	[0, 0, 0]	n/a	FR1	0	R1243T
1637.565	1.616	1652471	WORD	n/a	wordpools/wordpool_EN.txt	CLAY	9	13	[0, 0, 0]	n/a	FR1	0	R1243T
1639.181	0.917	1654087	WORD_OFF	n/a	n/a	CLAY	9	13	[0, 0, 0]	n/a	FR1	0	R1243T
1640.098	1.617	1655004	WORD	n/a	wordpools/wordpool_EN.txt	FRUIT	10	13	[0, 0, 0]	n/a	FR1	0	R1243T
1641.715	0.884	1656621	WORD_OFF	n/a	n/a	FRUIT	10	13	[0, 0, 0]	n/a	FR1	0	R1243T
1642.599	1.616	1657505	WORD	n/a	wordpools/wordpool_EN.txt	HORSE	11	13	[0, 0, 0]	n/a	FR1	0	R1243T
1644.215	0.801	1659121	WORD_OFF	n/a	n/a	HORSE	11	13	[0, 0, 0]	n/a	FR1	0	R1243T
1645.016	1.617	1659922	WORD	n/a	wordpools/wordpool_EN.txt	RIB	12	13	[0, 0, 0]	n/a	FR1	0	R1243T
1646.633	0.0	1661539	WORD_OFF	n/a	n/a	RIB	12	13	[0, 0, 0]	n/a	FR1	0	R1243T
1646.633	0.0	1661539	DISTRACT_START	n/a	n/a	n/a	-999	13	[0, 0, 0]	n/a	FR1	0	R1243T
1646.633	0.017	1661539	START	n/a	n/a	n/a	-999	13	[-999, -999, -999]	n/a	FR1	0	R1243T
1646.65	6.666	1661556	PROB	6.666	n/a	n/a	-999	13	[9, 1, 6]	16	FR1	0	R1243T
1653.316	6.436	1668221	PROB	6.436	n/a	n/a	-999	13	[5, 8, 4]	17	FR1	0	R1243T
1659.752	3.483	1674657	PROB	3.483	n/a	n/a	-999	13	[8, 2, 1]	11	FR1	0	R1243T
1663.235	5.274	1678140	PROB	5.274	n/a	n/a	-999	13	[2, 5, 2]	9	FR1	0	R1243T
1668.509	0.011	1683413	STOP	n/a	n/a	n/a	-999	13	[-999, -999, -999]	n/a	FR1	0	R1243T
1668.52	0.683	1683424	DISTRACT_END	n/a	n/a	n/a	-999	13	[0, 0, 0]	n/a	FR1	0	R1243T
1669.203	0.518	1684107	RETRIEVAL_ORIENT	n/a	n/a	n/a	-999	13	[0, 0, 0]	n/a	FR1	0	R1243T
1669.721	11.034	1684625	REC_START	n/a	n/a	n/a	-999	13	[0, 0, 0]	n/a	FR1	0	R1243T
1680.755	3.305	1695659	REC_WORD	3.305	n/a	PEAR	-999	13	[0, 0, 0]	n/a	FR1	0	R1243T
1684.06	2.692	1698963	REC_WORD	2.692	n/a	PEACH	-999	13	[0, 0, 0]	n/a	FR1	0	R1243T
1686.752	10.983	1701655	REC_WORD	10.983	n/a	MAY	-999	13	[0, 0, 0]	n/a	FR1	0	R1243T
1697.735	0.424	1712638	REC_WORD	0.424	n/a	PEAR	-999	13	[0, 0, 0]	n/a	FR1	0	R1243T
1698.159	1.573	1713062	REC_WORD_VV	1.573	n/a	<>	-999	13	[0, 0, 0]	n/a	FR1	0	R1243T
1699.732	4.828	1714634	REC_END	n/a	n/a	n/a	-999	13	[0, 0, 0]	n/a	FR1	0	R1243T
1704.56	0.5	1719462	TRIAL	n/a	n/a	n/a	-999	14	[0, 0, 0]	n/a	FR1	0	R1243T
1705.06	10.428	1719962	COUNTDOWN_START	n/a	n/a	n/a	-999	14	[0, 0, 0]	n/a	FR1	0	R1243T
1715.488	0.007	1730390	COUNTDOWN_END	n/a	n/a	n/a	-999	14	[0, 0, 0]	n/a	FR1	0	R1243T
1715.495	1.617	1730397	ORIENT	n/a	n/a	n/a	-999	14	[0, 0, 0]	n/a	FR1	0	R1243T
1717.112	2.301	1732013	ORIENT_OFF	n/a	n/a	n/a	-999	14	[0, 0, 0]	n/a	FR1	0	R1243T
1719.413	1.617	1734314	WORD	n/a	wordpools/wordpool_EN.txt	BATH	1	14	[0, 0, 0]	n/a	FR1	0	R1243T
1721.03	0.85	1735931	WORD_OFF	n/a	n/a	BATH	1	14	[0, 0, 0]	n/a	FR1	0	R1243T
1721.88	1.617	1736781	WORD	n/a	wordpools/wordpool_EN.txt	SCHOOL	2	14	[0, 0, 0]	n/a	FR1	0	R1243T
1723.497	0.967	1738398	WORD_OFF	n/a	n/a	SCHOOL	2	14	[0, 0, 0]	n/a	FR1	0	R1243T
1724.464	1.617	1739365	WORD	n/a	wordpools/wordpool_EN.txt	DUCK	3	14	[0, 0, 0]	n/a	FR1	0	R1243T
1726.081	0.8	1740982	WORD_OFF	n/a	n/a	DUCK	3	14	[0, 0, 0]	n/a	FR1	0	R1243T
1726.881	1.617	1741782	WORD	n/a	wordpools/wordpool_EN.txt	CANE	4	14	[0, 0, 0]	n/a	FR1	0	R1243T
1728.498	1.0	1743399	WORD_OFF	n/a	n/a	CANE	4	14	[0, 0, 0]	n/a	FR1	0	R1243T
1729.498	1.617	1744399	WORD	n/a	wordpools/wordpool_EN.txt	BOY	5	14	[0, 0, 0]	n/a	FR1	0	R1243T
1731.115	1.017	1746016	WORD_OFF	n/a	n/a	BOY	5	14	[0, 0, 0]	n/a	FR1	0	R1243T
1732.132	1.617	1747033	WORD	n/a	wordpools/wordpool_EN.txt	FORK	6	14	[0, 0, 0]	n/a	FR1	0	R1243T
1733.749	0.833	1748649	WORD_OFF	n/a	n/a	FORK	6	14	[0, 0, 0]	n/a	FR1	0	R1243T
1734.582	1.616	1749482	WORD	n/a	wordpools/wordpool_EN.txt	SLUSH	7	14	[0, 0, 0]	n/a	FR1	0	R1243T
1736.198	0.984	1751098	WORD_OFF	n/a	n/a	SLUSH	7	14	[0, 0, 0]	n/a	FR1	0	R1243T
1737.182	1.618	1752082	WORD	n/a	wordpools/wordpool_EN.txt	DRESS	8	14	[0, 0, 0]	n/a	FR1	0	R1243T
1738.8	0.833	1753700	WORD_OFF	n/a	n/a	DRESS	8	14	[0, 0, 0]	n/a	FR1	0	R1243T
1739.633	1.616	1754533	WORD	n/a	wordpools/wordpool_EN.txt	BREAD	9	14	[0, 0, 0]	n/a	FR1	0	R1243T
1741.249	0.901	1756149	WORD_OFF	n/a	n/a	BREAD	9	14	[0, 0, 0]	n/a	FR1	0	R1243T
1742.15	1.617	1757050	WORD	n/a	wordpools/wordpool_EN.txt	FOOT	10	14	[0, 0, 0]	n/a	FR1	0	R1243T
1743.767	0.917	1758667	WORD_OFF	n/a	n/a	FOOT	10	14	[0, 0, 0]	n/a	FR1	0	R1243T
1744.684	1.616	1759584	WORD	n/a	wordpools/wordpool_EN.txt	LOCK	11	14	[0, 0, 0]	n/a	FR1	0	R1243T
1746.3	0.818	1761200	WORD_OFF	n/a	n/a	LOCK	11	14	[0, 0, 0]	n/a	FR1	0	R1243T
1747.118	1.617	1762018	WORD	n/a	wordpools/wordpool_EN.txt	ROCK	12	14	[0, 0, 0]	n/a	FR1	0	R1243T
1748.735	0.0	1763635	WORD_OFF	n/a	n/a	ROCK	12	14	[0, 0, 0]	n/a	FR1	0	R1243T
1748.735	0.0	1763635	DISTRACT_START	n/a	n/a	n/a	-999	14	[0, 0, 0]	n/a	FR1	0	R1243T
1748.735	0.017	1763635	START	n/a	n/a	n/a	-999	14	[-999, -999, -999]	n/a	FR1	0	R1243T
1748.752	5.134	1763652	PROB	5.134	n/a	n/a	-999	14	[2, 3, 7]	11	FR1	0	R1243T
1753.886	5.151	1768785	PROB	5.151	n/a	n/a	-999	14	[4, 6, 8]	18	FR1	0	R1243T
1759.037	5.001	1773936	PROB	5.001	n/a	n/a	-999	14	[3, 1, 2]	6	FR1	0	R1243T
1764.038	6.269	1778937	PROB	6.269	n/a	n/a	-999	14	[5, 9, 3]	17	FR1	0	R1243T
1770.307	0.014	1785205	STOP	n/a	n/a	n/a	-999	14	[-999, -999, -999]	n/a	FR1	0	R1243T
1770.321	0.551	1785219	DISTRACT_END	n/a	n/a	n/a	-999	14	[0, 0, 0]	n/a	FR1	0	R1243T
1770.872	0.517	1785770	RETRIEVAL_ORIENT	n/a	n/a	n/a	-999	14	[0, 0, 0]	n/a	FR1	0	R1243T
1771.389	1.588	1786287	REC_START	n/a	n/a	n/a	-999	14	[0, 0, 0]	n/a	FR1	0	R1243T
1772.977	0.939	1787875	REC_WORD	0.939	n/a	BATH	-999	14	[0, 0, 0]	n/a	FR1	0	R1243T
1773.916	2.119	1788814	REC_WORD	2.119	n/a	SCHOOL	-999	14	[0, 0, 0]	n/a	FR1	0	R1243T
1776.035	7.505	1790933	REC_WORD	7.505	n/a	DUCK	-999	14	[0, 0, 0]	n/a	FR1	0	R1243T
1783.54	10.344	1798437	REC_WORD	10.344	n/a	TASTE	-999	14	[0, 0, 0]	n/a	FR1	0	R1243T
1793.884	7.155	1808781	REC_WORD	7.155	n/a	SLUDGE	-999	14	[0, 0, 0]	n/a	FR1	0	R1243T
1801.039	0.362	1815935	REC_WORD	0.362	n/a	BATH	-999	14	[0, 0, 0]	n/a	FR1	0	R1243T
1801.401	5.994	1816297	REC_END	n/a	n/a	n/a	-999	14	[0, 0, 0]	n/a	FR1	0	R1243T
1807.395	0.5	1822291	TRIAL	n/a	n/a	n/a	-999	15	[0, 0, 0]	n/a	FR1	0	R1243T
1807.895	10.428	1822791	COUNTDOWN_START	n/a	n/a	n/a	-999	15	[0, 0, 0]	n/a	FR1	0	R1243T
1818.323	0.007	1833218	COUNTDOWN_END	n/a	n/a	n/a	-999	15	[0, 0, 0]	n/a	FR1	0	R1243T
1818.33	1.601	1833225	ORIENT	n/a	n/a	n/a	-999	15	[0, 0, 0]	n/a	FR1	0	R1243T
1819.931	2.05	1834826	ORIENT_OFF	n/a	n/a	n/a	-999	15	[0, 0, 0]	n/a	FR1	0	R1243T
1821.981	1.617	1836876	WORD	n/a	wordpools/wordpool_EN.txt	HEN	1	15	[0, 0, 0]	n/a	FR1	0	R1243T
1823.598	1.017	1838493	WORD_OFF	n/a	n/a	HEN	1	15	[0, 0, 0]	n/a	FR1	0	R1243T
1824.615	1.616	1839510	WORD	n/a	wordpools/wordpool_EN.txt	TRAY	2	15	[0, 0, 0]	n/a	FR1	0	R1243T
1826.231	0.885	1841126	WORD_OFF	n/a	n/a	TRAY	2	15	[0, 0, 0]	n/a	FR1	0	R1243T
1827.116	1.617	1842011	WORD	n/a	wordpools/wordpool_EN.txt	SHOE	3	15	[0, 0, 0]	n/a	FR1	0	R1243T
1828.733	0.883	1843628	WORD_OFF	n/a	n/a	SHOE	3	15	[0, 0, 0]	n/a	FR1	0	R1243T
1829.616	1.616	1844511	WORD	n/a	wordpools/wordpool_EN.txt	TRUCK	4	15	[0, 0, 0]	n/a	FR1	0	R1243T
1831.232	0.901	1846127	WORD_OFF	n/a	n/a	TRUCK	4	15	[0, 0, 0]	n/a	FR1	0	R1243T
1832.133	1.617	1847027	WORD	n/a	wordpools/wordpool_EN.txt	TOAD	5	15	[0, 0, 0]	n/a	FR1	0	R1243T
1833.75	0.984	1848644	WORD_OFF	n/a	n/a	TOAD	5	15	[0, 0, 0]	n/a	FR1	0	R1243T
1834.734	1.616	1849628	WORD	n/a	wordpools/wordpool_EN.txt	TIE	6	15	[0, 0, 0]	n/a	FR1	0	R1243T
1836.35	0.867	1851244	WORD_OFF	n/a	n/a	TIE	6	15	[0, 0, 0]	n/a	FR1	0	R1243T
1837.217	1.617	1852111	WORD	n/a	wordpools/wordpool_EN.txt	LAND	7	15	[0, 0, 0]	n/a	FR1	0	R1243T
1838.834	0.934	1853728	WORD_OFF	n/a	n/a	LAND	7	15	[0, 0, 0]	n/a	FR1	0	R1243T
1839.768	1.616	1854662	WORD	n/a	wordpools/wordpool_EN.txt	SNAKE	8	15	[0, 0, 0]	n/a	FR1	0	R1243T
1841.384	0.833	1856278	WORD_OFF	n/a	n/a	SNAKE	8	15	[0, 0, 0]	n/a	FR1	0	R1243T
1842.217	1.618	1857111	WORD	n/a	wordpools/wordpool_EN.txt	SNAIL	9	15	[0, 0, 0]	n/a	FR1	0	R1243T
1843.835	0.867	1858729	WORD_OFF	n/a	n/a	SNAIL	9	15	[0, 0, 0]	n/a	FR1	0	R1243T
1844.702	1.616	1859596	WORD	n/a	wordpools/wordpool_EN.txt	BRICK	10	15	[0, 0, 0]	n/a	FR1	0	R1243T
1846.318	0.785	1861212	WORD_OFF	n/a	n/a	BRICK	10	15	[0, 0, 0]	n/a	FR1	0	R1243T
1847.103	1.617	1861997	WORD	n/a	wordpools/wordpool_EN.txt	BLUSH	11	15	[0, 0, 0]	n/a	FR1	0	R1243T
1848.72	0.8	1863613	WORD_OFF	n/a	n/a	BLUSH	11	15	[0, 0, 0]	n/a	FR1	0	R1243T
1849.52	1.617	1864413	WORD	n/a	wordpools/wordpool_EN.txt	SHEET	12	15	[0, 0, 0]	n/a	FR1	0	R1243T
1851.137	0.0	1866030	WORD_OFF	n/a	n/a	SHEET	12	15	[0, 0, 0]	n/a	FR1	0	R1243T
1851.137	0.0	1866030	DISTRACT_START	n/a	n/a	n/a	-999	15	[0, 0, 0]	n/a	FR1	0	R1243T
1851.137	0.015	1866030	START	n/a	n/a	n/a	-999	15	[-999, -999, -999]	n/a	FR1	0	R1243T
1851.152	6.035	1866045	PROB	6.035	n/a	n/a	-999	15	[7, 6, 1]	14	FR1	0	R1243T
1857.187	5.101	1872080	PROB	5.101	n/a	n/a	-999	15	[9, 3, 7]	19	FR1	0	R1243T
1862.288	6.202	1877181	PROB	6.202	n/a	n/a	-999	15	[6, 7, 2]	15	FR1	0	R1243T
1868.49	7.259	1883382	PROB	7.259	n/a	n/a	-999	15	[7, 2, 9]	18	FR1	0	R1243T
1875.749	0.009	1890641	STOP	n/a	n/a	n/a	-999	15	[-999, -999, -999]	n/a	FR1	0	R1243T
1875.758	0.65	1890650	DISTRACT_END	n/a	n/a	n/a	-999	15	[0, 0, 0]	n/a	FR1	0	R1243T
1876.408	0.518	1891300	RETRIEVAL_ORIENT	n/a	n/a	n/a	-999	15	[0, 0, 0]	n/a	FR1	0	R1243T
1876.926	3.595	1891818	REC_START	n/a	n/a	n/a	-999	15	[0, 0, 0]	n/a	FR1	0	R1243T
1880.521	0.469	1895413	REC_WORD	0.469	n/a	TRUCK	-999	15	[0, 0, 0]	n/a	FR1	0	R1243T
1880.99	1.456	1895882	REC_WORD	1.456	n/a	SUIT	-999	15	[0, 0, 0]	n/a	FR1	0	R1243T
1882.446	11.522	1897337	REC_WORD	11.522	n/a	TIE	-999	15	[0, 0, 0]	n/a	FR1	0	R1243T
1893.968	12.692	1908859	REC_WORD	12.692	n/a	HAIL	-999	15	[0, 0, 0]	n/a	FR1	0	R1243T
1906.66	0.277	1921550	REC_WORD_VV	0.277	n/a	<>	-999	15	[0, 0, 0]	n/a	FR1	0	R1243T
1906.937	5.844	1921827	REC_END	n/a	n/a	n/a	-999	15	[0, 0, 0]	n/a	FR1	0	R1243T
1912.781	0.5	1927671	TRIAL	n/a	n/a	n/a	-999	16	[0, 0, 0]	n/a	FR1	0	R1243T
1913.281	10.428	1928171	COUNTDOWN_START	n/a	n/a	n/a	-999	16	[0, 0, 0]	n/a	FR1	0	R1243T
1923.709	0.008	1938598	COUNTDOWN_END	n/a	n/a	n/a	-999	16	[0, 0, 0]	n/a	FR1	0	R1243T
1923.717	1.616	1938606	ORIENT	n/a	n/a	n/a	-999	16	[0, 0, 0]	n/a	FR1	0	R1243T
1925.333	2.117	1940222	ORIENT_OFF	n/a	n/a	n/a	-999	16	[0, 0, 0]	n/a	FR1	0	R1243T
1927.45	1.601	1942339	WORD	n/a	wordpools/wordpool_EN.txt	CASH	1	16	[0, 0, 0]	n/a	FR1	0	R1243T
1929.051	0.933	1943940	WORD_OFF	n/a	n/a	CASH	1	16	[0, 0, 0]	n/a	FR1	0	R1243T
1929.984	1.617	1944873	WORD	n/a	wordpools/wordpool_EN.txt	TRASH	2	16	[0, 0, 0]	n/a	FR1	0	R1243T
1931.601	0.951	1946489	WORD_OFF	n/a	n/a	TRASH	2	16	[0, 0, 0]	n/a	FR1	0	R1243T
1932.552	1.615	1947440	WORD	n/a	wordpools/wordpool_EN.txt	BEAN	3	16	[0, 0, 0]	n/a	FR1	0	R1243T
1934.167	0.802	1949055	WORD_OFF	n/a	n/a	BEAN	3	16	[0, 0, 0]	n/a	FR1	0	R1243T
1934.969	1.617	1949857	WORD	n/a	wordpools/wordpool_EN.txt	CAT	4	16	[0, 0, 0]	n/a	FR1	0	R1243T
1936.586	0.782	1951474	WORD_OFF	n/a	n/a	CAT	4	16	[0, 0, 0]	n/a	FR1	0	R1243T
1937.368	1.618	1952256	WORD	n/a	wordpools/wordpool_EN.txt	TREE	5	16	[0, 0, 0]	n/a	FR1	0	R1243T
1938.986	0.85	1953874	WORD_OFF	n/a	n/a	TREE	5	16	[0, 0, 0]	n/a	FR1	0	R1243T
1939.836	1.617	1954724	WORD	n/a	wordpools/wordpool_EN.txt	FOAM	6	16	[0, 0, 0]	n/a	FR1	0	R1243T
1941.453	0.967	1956341	WORD_OFF	n/a	n/a	FOAM	6	16	[0, 0, 0]	n/a	FR1	0	R1243T
1942.42	1.617	1957308	WORD	n/a	wordpools/wordpool_EN.txt	DOCK	7	16	[0, 0, 0]	n/a	FR1	0	R1243T
1944.037	0.85	1958925	WORD_OFF	n/a	n/a	DOCK	7	16	[0, 0, 0]	n/a	FR1	0	R1243T
1944.887	1.617	1959775	WORD	n/a	wordpools/wordpool_EN.txt	SHIELD	8	16	[0, 0, 0]	n/a	FR1	0	R1243T
1946.504	0.849	1961392	WORD_OFF	n/a	n/a	SHIELD	8	16	[0, 0, 0]	n/a	FR1	0	R1243T
1947.353	1.618	1962240	WORD	n/a	wordpools/wordpool_EN.txt	BAND	9	16	[0, 0, 0]	n/a	FR1	0	R1243T
1948.971	1.0	1963858	WORD_OFF	n/a	n/a	BAND	9	16	[0, 0, 0]	n/a	FR1	0	R1243T
1949.971	1.617	1964858	WORD	n/a	wordpools/wordpool_EN.txt	EAR	10	16	[0, 0, 0]	n/a	FR1	0	R1243T
1951.588	0.884	1966475	WORD_OFF	n/a	n/a	EAR	10	16	[0, 0, 0]	n/a	FR1	0	R1243T
1952.472	1.617	1967359	WORD	n/a	wordpools/wordpool_EN.txt	MOOSE	11	16	[0, 0, 0]	n/a	FR1	0	R1243T
1954.089	0.9	1968976	WORD_OFF	n/a	n/a	MOOSE	11	16	[0, 0, 0]	n/a	FR1	0	R1243T
1954.989	1.617	1969876	WORD	n/a	wordpools/wordpool_EN.txt	OWL	12	16	[0, 0, 0]	n/a	FR1	0	R1243T
1956.606	0.0	1971493	WORD_OFF	n/a	n/a	OWL	12	16	[0, 0, 0]	n/a	FR1	0	R1243T
1956.606	0.0	1971493	DISTRACT_START	n/a	n/a	n/a	-999	16	[0, 0, 0]	n/a	FR1	0	R1243T
1956.606	0.017	1971493	START	n/a	n/a	n/a	-999	16	[-999, -999, -999]	n/a	FR1	0	R1243T
1956.623	5.15	1971510	PROB	5.15	n/a	n/a	-999	16	[3, 3, 5]	11	FR1	0	R1243T
1961.773	6.534	1976660	PROB	6.534	n/a	n/a	-999	16	[7, 2, 1]	10	FR1	0	R1243T
1968.307	4.619	1983193	PROB	4.619	n/a	n/a	-999	16	[4, 6, 2]	12	FR1	0	R1243T
1972.926	4.781	1987812	PROB	4.781	n/a	n/a	-999	16	[8, 2, 7]	17	FR1	0	R1243T
1977.707	0.019	1992593	STOP	n/a	n/a	n/a	-999	16	[-999, -999, -999]	n/a	FR1	0	R1243T
1977.726	0.684	1992612	DISTRACT_END	n/a	n/a	n/a	-999	16	[0, 0, 0]	n/a	FR1	0	R1243T
1978.41	0.517	1993296	RETRIEVAL_ORIENT	n/a	n/a	n/a	-999	16	[0, 0, 0]	n/a	FR1	0	R1243T
1978.927	2.165	1993813	REC_START	n/a	n/a	n/a	-999	16	[0, 0, 0]	n/a	FR1	0	R1243T
1981.092	1.042	1995977	REC_WORD	1.042	n/a	CAT	-999	16	[0, 0, 0]	n/a	FR1	0	R1243T
1982.134	2.254	1997019	REC_WORD	2.254	n/a	TRASH	-999	16	[0, 0, 0]	n/a	FR1	0	R1243T
1984.388	7.655	1999273	REC_WORD	7.655	n/a	MOW	-999	16	[0, 0, 0]	n/a	FR1	0	R1243T
1992.043	2.572	2006928	REC_WORD	2.572	n/a	PLANE	-999	16	[0, 0, 0]	n/a	FR1	0	R1243T
1994.615	7.842	2009500	REC_WORD	7.842	n/a	TRIP	-999	16	[0, 0, 0]	n/a	FR1	0	R1243T
2002.457	5.424	2017341	REC_WORD	5.424	n/a	PEN	-999	16	[0, 0, 0]	n/a	FR1	0	R1243T
2007.881	1.059	2022765	REC_WORD	1.059	n/a	BALL	-999	16	[0, 0, 0]	n/a	FR1	0	R1243T
2008.94	4.976	2023824	REC_END	n/a	n/a	n/a	-999	16	[0, 0, 0]	n/a	FR1	0	R1243T
2013.916	0.5	2028799	TRIAL	n/a	n/a	n/a	-999	17	[0, 0, 0]	n/a	FR1	0	R1243T
2014.416	10.428	2029299	COUNTDOWN_START	n/a	n/a	n/a	-999	17	[0, 0, 0]	n/a	FR1	0	R1243T
2024.844	0.008	2039727	COUNTDOWN_END	n/a	n/a	n/a	-999	17	[0, 0, 0]	n/a	FR1	0	R1243T
2024.852	1.617	2039735	ORIENT	n/a	n/a	n/a	-999	17	[0, 0, 0]	n/a	FR1	0	R1243T
2026.469	2.133	2041352	ORIENT_OFF	n/a	n/a	n/a	-999	17	[0, 0, 0]	n/a	FR1	0	R1243T
2028.602	1.616	2043485	WORD	n/a	wordpools/wordpool_EN.txt	FLAME	1	17	[0, 0, 0]	n/a	FR1	0	R1243T
2030.218	0.885	2045100	WORD_OFF	n/a	n/a	FLAME	1	17	[0, 0, 0]	n/a	FR1	0	R1243T
2031.103	1.617	2045985	WORD	n/a	wordpools/wordpool_EN.txt	MUD	2	17	[0, 0, 0]	n/a	FR1	0	R1243T
2032.72	0.783	2047602	WORD_OFF	n/a	n/a	MUD	2	17	[0, 0, 0]	n/a	FR1	0	R1243T
2033.503	1.617	2048385	WORD	n/a	wordpools/wordpool_EN.txt	MOLE	3	17	[0, 0, 0]	n/a	FR1	0	R1243T
2035.12	0.9	2050002	WORD_OFF	n/a	n/a	MOLE	3	17	[0, 0, 0]	n/a	FR1	0	R1243T
2036.02	1.617	2050902	WORD	n/a	wordpools/wordpool_EN.txt	BEE	4	17	[0, 0, 0]	n/a	FR1	0	R1243T
2037.637	0.834	2052519	WORD_OFF	n/a	n/a	BEE	4	17	[0, 0, 0]	n/a	FR1	0	R1243T
2038.471	1.617	2053353	WORD	n/a	wordpools/wordpool_EN.txt	CONE	5	17	[0, 0, 0]	n/a	FR1	0	R1243T
2040.088	0.783	2054970	WORD_OFF	n/a	n/a	CONE	5	17	[0, 0, 0]	n/a	FR1	0	R1243T
2040.871	1.617	2055753	WORD	n/a	wordpools/wordpool_EN.txt	ARK	6	17	[0, 0, 0]	n/a	FR1	0	R1243T
2042.488	0.967	2057370	WORD_OFF	n/a	n/a	ARK	6	17	[0, 0, 0]	n/a	FR1	0	R1243T
2043.455	1.617	2058337	WORD	n/a	wordpools/wordpool_EN.txt	WOOD	7	17	[0, 0, 0]	n/a	FR1	0	R1243T
2045.072	0.817	2059954	WORD_OFF	n/a	n/a	WOOD	7	17	[0, 0, 0]	n/a	FR1	0	R1243T
2045.889	1.617	2060771	WORD	n/a	wordpools/wordpool_EN.txt	CHIEF	8	17	[0, 0, 0]	n/a	FR1	0	R1243T
2047.506	0.917	2062387	WORD_OFF	n/a	n/a	CHIEF	8	17	[0, 0, 0]	n/a	FR1	0	R1243T
2048.423	1.617	2063304	WORD	n/a	wordpools/wordpool_EN.txt	ANT	9	17	[0, 0, 0]	n/a	FR1	0	R1243T
2050.04	0.883	2064921	WORD_OFF	n/a	n/a	ANT	9	17	[0, 0, 0]	n/a	FR1	0	R1243T
2050.923	1.617	2065804	WORD	n/a	wordpools/wordpool_EN.txt	SKI	10	17	[0, 0, 0]	n/a	FR1	0	R1243T
2052.54	0.983	2067421	WORD_OFF	n/a	n/a	SKI	10	17	[0, 0, 0]	n/a	FR1	0	R1243T
2053.523	1.617	2068404	WORD	n/a	wordpools/wordpool_EN.txt	MUG	11	17	[0, 0, 0]	n/a	FR1	0	R1243T
2055.14	0.834	2070021	WORD_OFF	n/a	n/a	MUG	11	17	[0, 0, 0]	n/a	FR1	0	R1243T
2055.974	1.617	2070855	WORD	n/a	wordpools/wordpool_EN.txt	GLOVE	12	17	[0, 0, 0]	n/a	FR1	0	R1243T
2057.591	0.0	2072472	WORD_OFF	n/a	n/a	GLOVE	12	17	[0, 0, 0]	n/a	FR1	0	R1243T
2057.591	0.0	2072472	DISTRACT_START	n/a	n/a	n/a	-999	17	[0, 0, 0]	n/a	FR1	0	R1243T
2057.591	0.017	2072472	START	n/a	n/a	n/a	-999	17	[-999, -999, -999]	n/a	FR1	0	R1243T
2057.608	6.834	2072489	PROB	6.834	n/a	n/a	-999	17	[5, 8, 3]	16	FR1	0	R1243T
2064.442	5.9	2079322	PROB	5.9	n/a	n/a	-999	17	[4, 2, 7]	16	FR1	0	R1243T
2070.342	6.419	2085222	PROB	6.419	n/a	n/a	-999	17	[3, 6, 9]	18	FR1	0	R1243T
2076.761	14.347	2091641	PROB	14.347	n/a	n/a	-999	17	[9, 9, 7]	25	FR1	0	R1243T
2091.108	0.022	2105987	STOP	n/a	n/a	n/a	-999	17	[-999, -999, -999]	n/a	FR1	0	R1243T
2091.13	0.517	2106009	DISTRACT_END	n/a	n/a	n/a	-999	17	[0, 0, 0]	n/a	FR1	0	R1243T
2091.647	0.516	2106526	RETRIEVAL_ORIENT	n/a	n/a	n/a	-999	17	[0, 0, 0]	n/a	FR1	0	R1243T
2092.163	4.252	2107042	REC_START	n/a	n/a	n/a	-999	17	[0, 0, 0]	n/a	FR1	0	R1243T
2096.415	1.172	2111293	REC_WORD	1.172	n/a	FIRE	-999	17	[0, 0, 0]	n/a	FR1	0	R1243T
2097.587	1.43	2112465	REC_WORD	1.43	n/a	CHIEF	-999	17	[0, 0, 0]	n/a	FR1	0	R1243T
2099.017	4.211	2113895	REC_WORD	4.211	n/a	MUD	-999	17	[0, 0, 0]	n/a	FR1	0	R1243T
2103.228	18.949	2118106	REC_WORD	18.949	n/a	SCHOOL	-999	17	[0, 0, 0]	n/a	FR1	0	R1243T
2122.177	4.71	2137054	REC_END	n/a	n/a	n/a	-999	17	[0, 0, 0]	n/a	FR1	0	R1243T
2126.887	0.5	2141764	TRIAL	n/a	n/a	n/a	-999	18	[0, 0, 0]	n/a	FR1	0	R1243T
2127.387	10.428	2142264	COUNTDOWN_START	n/a	n/a	n/a	-999	18	[0, 0, 0]	n/a	FR1	0	R1243T
2137.815	0.007	2152691	COUNTDOWN_END	n/a	n/a	n/a	-999	18	[0, 0, 0]	n/a	FR1	0	R1243T
2137.822	1.617	2152698	ORIENT	n/a	n/a	n/a	-999	18	[0, 0, 0]	n/a	FR1	0	R1243T
2139.439	2.384	2154315	ORIENT_OFF	n/a	n/a	n/a	-999	18	[0, 0, 0]	n/a	FR1	0	R1243T
2141.823	1.617	2156699	WORD	n/a	wordpools/wordpool_EN.txt	PIE	1	18	[0, 0, 0]	n/a	FR1	0	R1243T
2143.44	1.0	2158316	WORD_OFF	n/a	n/a	PIE	1	18	[0, 0, 0]	n/a	FR1	0	R1243T
2144.44	1.617	2159316	WORD	n/a	wordpools/wordpool_EN.txt	LEG	2	18	[0, 0, 0]	n/a	FR1	0	R1243T
2146.057	0.817	2160932	WORD_OFF	n/a	n/a	LEG	2	18	[0, 0, 0]	n/a	FR1	0	R1243T
2146.874	1.617	2161749	WORD	n/a	wordpools/wordpool_EN.txt	VASE	3	18	[0, 0, 0]	n/a	FR1	0	R1243T
2148.491	0.933	2163366	WORD_OFF	n/a	n/a	VASE	3	18	[0, 0, 0]	n/a	FR1	0	R1243T
2149.424	1.617	2164299	WORD	n/a	wordpools/wordpool_EN.txt	PALM	4	18	[0, 0, 0]	n/a	FR1	0	R1243T
2151.041	0.867	2165916	WORD_OFF	n/a	n/a	PALM	4	18	[0, 0, 0]	n/a	FR1	0	R1243T
2151.908	1.617	2166783	WORD	n/a	wordpools/wordpool_EN.txt	DITCH	5	18	[0, 0, 0]	n/a	FR1	0	R1243T
2153.525	1.017	2168400	WORD_OFF	n/a	n/a	DITCH	5	18	[0, 0, 0]	n/a	FR1	0	R1243T
2154.542	1.616	2169417	WORD	n/a	wordpools/wordpool_EN.txt	SHARK	6	18	[0, 0, 0]	n/a	FR1	0	R1243T
2156.158	0.868	2171033	WORD_OFF	n/a	n/a	SHARK	6	18	[0, 0, 0]	n/a	FR1	0	R1243T
2157.026	1.617	2171901	WORD	n/a	wordpools/wordpool_EN.txt	GEESE	7	18	[0, 0, 0]	n/a	FR1	0	R1243T
2158.643	1.016	2173518	WORD_OFF	n/a	n/a	GEESE	7	18	[0, 0, 0]	n/a	FR1	0	R1243T
2159.659	1.616	2174534	WORD	n/a	wordpools/wordpool_EN.txt	TEETH	8	18	[0, 0, 0]	n/a	FR1	0	R1243T
2161.275	0.95	2176150	WORD_OFF	n/a	n/a	TEETH	8	18	[0, 0, 0]	n/a	FR1	0	R1243T
2162.225	1.619	2177099	WORD	n/a	wordpools/wordpool_EN.txt	PLATE	9	18	[0, 0, 0]	n/a	FR1	0	R1243T
2163.844	0.85	2178718	WORD_OFF	n/a	n/a	PLATE	9	18	[0, 0, 0]	n/a	FR1	0	R1243T
2164.694	1.616	2179568	WORD	n/a	wordpools/wordpool_EN.txt	POND	10	18	[0, 0, 0]	n/a	FR1	0	R1243T
2166.31	0.966	2181184	WORD_OFF	n/a	n/a	POND	10	18	[0, 0, 0]	n/a	FR1	0	R1243T
2167.276	1.601	2182150	WORD	n/a	wordpools/wordpool_EN.txt	FORT	11	18	[0, 0, 0]	n/a	FR1	0	R1243T
2168.877	0.768	2183751	WORD_OFF	n/a	n/a	FORT	11	18	[0, 0, 0]	n/a	FR1	0	R1243T
2169.645	1.615	2184519	WORD	n/a	wordpools/wordpool_EN.txt	RUG	12	18	[0, 0, 0]	n/a	FR1	0	R1243T
2171.26	0.0	2186134	WORD_OFF	n/a	n/a	RUG	12	18	[0, 0, 0]	n/a	FR1	0	R1243T
2171.26	0.001	2186134	DISTRACT_START	n/a	n/a	n/a	-999	18	[0, 0, 0]	n/a	FR1	0	R1243T
2171.261	0.016	2186135	START	n/a	n/a	n/a	-999	18	[-999, -999, -999]	n/a	FR1	0	R1243T
2171.277	6.968	2186151	PROB	6.968	n/a	n/a	-999	18	[8, 2, 7]	17	FR1	0	R1243T
2178.245	10.887	2193118	PROB	10.887	n/a	n/a	-999	18	[9, 7, 6]	22	FR1	0	R1243T
2189.132	6.017	2204005	PROB	6.017	n/a	n/a	-999	18	[5, 8, 2]	15	FR1	0	R1243T
2195.149	0.016	2210021	STOP	n/a	n/a	n/a	-999	18	[-999, -999, -999]	n/a	FR1	0	R1243T
2195.165	0.701	2210037	DISTRACT_END	n/a	n/a	n/a	-999	18	[0, 0, 0]	n/a	FR1	0	R1243T
2195.866	0.516	2210738	RETRIEVAL_ORIENT	n/a	n/a	n/a	-999	18	[0, 0, 0]	n/a	FR1	0	R1243T
2196.382	3.922	2211254	REC_START	n/a	n/a	n/a	-999	18	[0, 0, 0]	n/a	FR1	0	R1243T
2200.304	0.839	2215176	REC_WORD	0.839	n/a	GEESE	-999	18	[0, 0, 0]	n/a	FR1	0	R1243T
2201.143	1.07	2216015	REC_WORD	1.07	n/a	PLATE	-999	18	[0, 0, 0]	n/a	FR1	0	R1243T
2202.213	3.051	2217085	REC_WORD	3.051	n/a	TEETH	-999	18	[0, 0, 0]	n/a	FR1	0	R1243T
2205.264	21.131	2220136	REC_WORD	21.131	n/a	HOLE	-999	18	[0, 0, 0]	n/a	FR1	0	R1243T
2226.395	4.976	2241266	REC_END	n/a	n/a	n/a	-999	18	[0, 0, 0]	n/a	FR1	0	R1243T
2231.371	0.5	2246241	TRIAL	n/a	n/a	n/a	-999	19	[0, 0, 0]	n/a	FR1	0	R1243T
2231.871	10.428	2246741	COUNTDOWN_START	n/a	n/a	n/a	-999	19	[0, 0, 0]	n/a	FR1	0	R1243T
2242.299	0.008	2257169	COUNTDOWN_END	n/a	n/a	n/a	-999	19	[0, 0, 0]	n/a	FR1	0	R1243T
2242.307	1.618	2257177	ORIENT	n/a	n/a	n/a	-999	19	[0, 0, 0]	n/a	FR1	0	R1243T
2243.925	2.05	2258794	ORIENT_OFF	n/a	n/a	n/a	-999	19	[0, 0, 0]	n/a	FR1	0	R1243T
2245.975	1.617	2260844	WORD	n/a	wordpools/wordpool_EN.txt	POLE	1	19	[0, 0, 0]	n/a	FR1	0	R1243T
2247.592	0.8	2262461	WORD_OFF	n/a	n/a	POLE	1	19	[0, 0, 0]	n/a	FR1	0	R1243T
2248.392	1.617	2263261	WORD	n/a	wordpools/wordpool_EN.txt	FOG	2	19	[0, 0, 0]	n/a	FR1	0	R1243T
2250.009	0.984	2264878	WORD_OFF	n/a	n/a	FOG	2	19	[0, 0, 0]	n/a	FR1	0	R1243T
2250.993	1.617	2265862	WORD	n/a	wordpools/wordpool_EN.txt	JAIL	3	19	[0, 0, 0]	n/a	FR1	0	R1243T
2252.61	0.916	2267479	WORD_OFF	n/a	n/a	JAIL	3	19	[0, 0, 0]	n/a	FR1	0	R1243T
2253.526	1.617	2268395	WORD	n/a	wordpools/wordpool_EN.txt	GRAPE	4	19	[0, 0, 0]	n/a	FR1	0	R1243T
2255.143	0.951	2270012	WORD_OFF	n/a	n/a	GRAPE	4	19	[0, 0, 0]	n/a	FR1	0	R1243T
2256.094	1.617	2270963	WORD	n/a	wordpools/wordpool_EN.txt	JUDGE	5	19	[0, 0, 0]	n/a	FR1	0	R1243T
2257.711	0.783	2272580	WORD_OFF	n/a	n/a	JUDGE	5	19	[0, 0, 0]	n/a	FR1	0	R1243T
2258.494	1.617	2273363	WORD	n/a	wordpools/wordpool_EN.txt	PIPE	6	19	[0, 0, 0]	n/a	FR1	0	R1243T
2260.111	0.984	2274980	WORD_OFF	n/a	n/a	PIPE	6	19	[0, 0, 0]	n/a	FR1	0	R1243T
2261.095	1.616	2275963	WORD	n/a	wordpools/wordpool_EN.txt	THREAD	7	19	[0, 0, 0]	n/a	FR1	0	R1243T
2262.711	0.801	2277579	WORD_OFF	n/a	n/a	THREAD	7	19	[0, 0, 0]	n/a	FR1	0	R1243T
2263.512	1.617	2278380	WORD	n/a	wordpools/wordpool_EN.txt	FISH	8	19	[0, 0, 0]	n/a	FR1	0	R1243T
2265.129	0.9	2279997	WORD_OFF	n/a	n/a	FISH	8	19	[0, 0, 0]	n/a	FR1	0	R1243T
2266.029	1.617	2280897	WORD	n/a	wordpools/wordpool_EN.txt	WHALE	9	19	[0, 0, 0]	n/a	FR1	0	R1243T
2267.646	0.883	2282514	WORD_OFF	n/a	n/a	WHALE	9	19	[0, 0, 0]	n/a	FR1	0	R1243T
2268.529	1.617	2283397	WORD	n/a	wordpools/wordpool_EN.txt	BOAT	10	19	[0, 0, 0]	n/a	FR1	0	R1243T
2270.146	0.767	2285014	WORD_OFF	n/a	n/a	BOAT	10	19	[0, 0, 0]	n/a	FR1	0	R1243T
2270.913	1.617	2285781	WORD	n/a	wordpools/wordpool_EN.txt	HAT	11	19	[0, 0, 0]	n/a	FR1	0	R1243T
2272.53	0.799	2287398	WORD_OFF	n/a	n/a	HAT	11	19	[0, 0, 0]	n/a	FR1	0	R1243T
2273.329	1.618	2288197	WORD	n/a	wordpools/wordpool_EN.txt	HOUSE	12	19	[0, 0, 0]	n/a	FR1	0	R1243T
2274.947	0.0	2289815	WORD_OFF	n/a	n/a	HOUSE	12	19	[0, 0, 0]	n/a	FR1	0	R1243T
2274.947	0.001	2289815	DISTRACT_START	n/a	n/a	n/a	-999	19	[0, 0, 0]	n/a	FR1	0	R1243T
2274.948	0.016	2289816	START	n/a	n/a	n/a	-999	19	[-999, -999, -999]	n/a	FR1	0	R1243T
2274.964	5.017	2289832	PROB	5.017	n/a	n/a	-999	19	[5, 3, 3]	11	FR1	0	R1243T
2279.981	7.201	2294848	PROB	7.201	n/a	n/a	-999	19	[9, 8, 2]	19	FR1	0	R1243T
2287.182	6.151	2302049	PROB	6.151	n/a	n/a	-999	19	[8, 2, 4]	14	FR1	0	R1243T
2293.333	6.295	2308199	PROB	6.295	n/a	n/a	-999	19	[2, 1, 4]	7	FR1	0	R1243T
2299.628	0.007	2314494	STOP	n/a	n/a	n/a	-999	19	[-999, -999, -999]	n/a	FR1	0	R1243T
2299.635	0.699	2314501	DISTRACT_END	n/a	n/a	n/a	-999	19	[0, 0, 0]	n/a	FR1	0	R1243T
2300.334	0.518	2315200	RETRIEVAL_ORIENT	n/a	n/a	n/a	-999	19	[0, 0, 0]	n/a	FR1	0	R1243T
2300.852	8.167	2315718	REC_START	n/a	n/a	n/a	-999	19	[0, 0, 0]	n/a	FR1	0	R1243T
2309.019	0.923	2323885	REC_WORD	0.923	n/a	FOG	-999	19	[0, 0, 0]	n/a	FR1	0	R1243T
2309.942	3.862	2324807	REC_WORD	3.862	n/a	BOWL	-999	19	[0, 0, 0]	n/a	FR1	0	R1243T
2313.804	4.644	2328669	REC_WORD	4.644	n/a	PLATE	-999	19	[0, 0, 0]	n/a	FR1	0	R1243T
2318.448	12.418	2333313	REC_WORD	12.418	n/a	FISH	-999	19	[0, 0, 0]	n/a	FR1	0	R1243T
2330.866	7.391	2345730	REC_END	n/a	n/a	n/a	-999	19	[0, 0, 0]	n/a	FR1	0	R1243T
2338.257	0.5	2353121	TRIAL	n/a	n/a	n/a	-999	20	[0, 0, 0]	n/a	FR1	0	R1243T
2338.757	10.428	2353621	COUNTDOWN_START	n/a	n/a	n/a	-999	20	[0, 0, 0]	n/a	FR1	0	R1243T
2349.185	0.008	2364048	COUNTDOWN_END	n/a	n/a	n/a	-999	20	[0, 0, 0]	n/a	FR1	0	R1243T
2349.193	1.618	2364056	ORIENT	n/a	n/a	n/a	-999	20	[0, 0, 0]	n/a	FR1	0	R1243T
2350.811	2.067	2365674	ORIENT_OFF	n/a	n/a	n/a	-999	20	[0, 0, 0]	n/a	FR1	0	R1243T
2352.878	1.617	2367741	WORD	n/a	wordpools/wordpool_EN.txt	BEACH	1	20	[0, 0, 0]	n/a	FR1	0	R1243T
2354.495	0.766	2369358	WORD_OFF	n/a	n/a	BEACH	1	20	[0, 0, 0]	n/a	FR1	0	R1243T
2355.261	1.618	2370124	WORD	n/a	wordpools/wordpool_EN.txt	SHEEP	2	20	[0, 0, 0]	n/a	FR1	0	R1243T
2356.879	0.933	2371742	WORD_OFF	n/a	n/a	SHEEP	2	20	[0, 0, 0]	n/a	FR1	0	R1243T
2357.812	1.617	2372675	WORD	n/a	wordpools/wordpool_EN.txt	GOLD	3	20	[0, 0, 0]	n/a	FR1	0	R1243T
2359.429	0.799	2374291	WORD_OFF	n/a	n/a	GOLD	3	20	[0, 0, 0]	n/a	FR1	0	R1243T
2360.228	1.618	2375090	WORD	n/a	wordpools/wordpool_EN.txt	COW	4	20	[0, 0, 0]	n/a	FR1	0	R1243T
2361.846	0.867	2376708	WORD_OFF	n/a	n/a	COW	4	20	[0, 0, 0]	n/a	FR1	0	R1243T
2362.713	1.616	2377575	WORD	n/a	wordpools/wordpool_EN.txt	SHRIMP	5	20	[0, 0, 0]	n/a	FR1	0	R1243T
2364.329	0.933	2379191	WORD_OFF	n/a	n/a	SHRIMP	5	20	[0, 0, 0]	n/a	FR1	0	R1243T
2365.262	1.618	2380124	WORD	n/a	wordpools/wordpool_EN.txt	SMILE	6	20	[0, 0, 0]	n/a	FR1	0	R1243T
2366.88	0.867	2381742	WORD_OFF	n/a	n/a	SMILE	6	20	[0, 0, 0]	n/a	FR1	0	R1243T
2367.747	1.616	2382609	WORD	n/a	wordpools/wordpool_EN.txt	PLANE	7	20	[0, 0, 0]	n/a	FR1	0	R1243T
2369.363	0.934	2384225	WORD_OFF	n/a	n/a	PLANE	7	20	[0, 0, 0]	n/a	FR1	0	R1243T
2370.297	1.618	2385159	WORD	n/a	wordpools/wordpool_EN.txt	CAVE	8	20	[0, 0, 0]	n/a	FR1	0	R1243T
2371.915	0.933	2386777	WORD_OFF	n/a	n/a	CAVE	8	20	[0, 0, 0]	n/a	FR1	0	R1243T
2372.848	1.617	2387710	WORD	n/a	wordpools/wordpool_EN.txt	FUDGE	9	20	[0, 0, 0]	n/a	FR1	0	R1243T
2374.465	0.783	2389327	WORD_OFF	n/a	n/a	FUDGE	9	20	[0, 0, 0]	n/a	FR1	0	R1243T
2375.248	1.618	2390110	WORD	n/a	wordpools/wordpool_EN.txt	SQUARE	10	20	[0, 0, 0]	n/a	FR1	0	R1243T
2376.866	0.95	2391727	WORD_OFF	n/a	n/a	SQUARE	10	20	[0, 0, 0]	n/a	FR1	0	R1243T
2377.816	1.617	2392677	WORD	n/a	wordpools/wordpool_EN.txt	MAIL	11	20	[0, 0, 0]	n/a	FR1	0	R1243T
2379.433	0.815	2394294	WORD_OFF	n/a	n/a	MAIL	11	20	[0, 0, 0]	n/a	FR1	0	R1243T
2380.248	1.601	2395109	WORD	n/a	wordpools/wordpool_EN.txt	AXE	12	20	[0, 0, 0]	n/a	FR1	0	R1243T
2381.849	0.0	2396710	WORD_OFF	n/a	n/a	AXE	12	20	[0, 0, 0]	n/a	FR1	0	R1243T
2381.849	0.001	2396710	DISTRACT_START	n/a	n/a	n/a	-999	20	[0, 0, 0]	n/a	FR1	0	R1243T
2381.85	0.016	2396711	START	n/a	n/a	n/a	-999	20	[-999, -999, -999]	n/a	FR1	0	R1243T
2381.866	8.535	2396727	PROB	8.535	n/a	n/a	-999	20	[7, 6, 4]	17	FR1	0	R1243T
2390.401	6.917	2405262	PROB	6.917	n/a	n/a	-999	20	[9, 2, 1]	12	FR1	0	R1243T
2397.318	6.886	2412178	PROB	6.886	n/a	n/a	-999	20	[5, 3, 3]	11	FR1	0	R1243T
2404.204	0.015	2419064	STOP	n/a	n/a	n/a	-999	20	[-999, -999, -999]	n/a	FR1	0	R1243T
2404.219	0.535	2419079	DISTRACT_END	n/a	n/a	n/a	-999	20	[0, 0, 0]	n/a	FR1	0	R1243T
2404.754	0.516	2419614	RETRIEVAL_ORIENT	n/a	n/a	n/a	-999	20	[0, 0, 0]	n/a	FR1	0	R1243T
2405.27	7.097	2420130	REC_START	n/a	n/a	n/a	-999	20	[0, 0, 0]	n/a	FR1	0	R1243T
2412.367	5.001	2427226	REC_WORD	5.001	n/a	SHRIMP	-999	20	[0, 0, 0]	n/a	FR1	0	R1243T
2417.368	0.745	2432227	REC_WORD	0.745	n/a	SHIP	-999	20	[0, 0, 0]	n/a	FR1	0	R1243T
2418.113	3.373	2432972	REC_WORD	3.373	n/a	BOWL	-999	20	[0, 0, 0]	n/a	FR1	0	R1243T
2421.486	13.09	2436345	REC_WORD	13.09	n/a	YARD	-999	20	[0, 0, 0]	n/a	FR1	0	R1243T
2434.576	0.707	2449434	REC_WORD	0.707	n/a	PIE	-999	20	[0, 0, 0]	n/a	FR1	0	R1243T
2435.283	8.194	2450141	REC_END	n/a	n/a	n/a	-999	20	[0, 0, 0]	n/a	FR1	0	R1243T
2443.477	0.5	2458334	TRIAL	n/a	n/a	n/a	-999	21	[0, 0, 0]	n/a	FR1	0	R1243T
2443.977	10.428	2458834	COUNTDOWN_START	n/a	n/a	n/a	-999	21	[0, 0, 0]	n/a	FR1	0	R1243T
2454.405	0.008	2469262	COUNTDOWN_END	n/a	n/a	n/a	-999	21	[0, 0, 0]	n/a	FR1	0	R1243T
2454.413	1.617	2469270	ORIENT	n/a	n/a	n/a	-999	21	[0, 0, 0]	n/a	FR1	0	R1243T
2456.03	2.183	2470887	ORIENT_OFF	n/a	n/a	n/a	-999	21	[0, 0, 0]	n/a	FR1	0	R1243T
2458.213	1.618	2473069	WORD	n/a	wordpools/wordpool_EN.txt	BEAR	1	21	[0, 0, 0]	n/a	FR1	0	R1243T
2459.831	0.816	2474687	WORD_OFF	n/a	n/a	BEAR	1	21	[0, 0, 0]	n/a	FR1	0	R1243T
2460.647	1.616	2475503	WORD	n/a	wordpools/wordpool_EN.txt	BANK	2	21	[0, 0, 0]	n/a	FR1	0	R1243T
2462.263	1.001	2477119	WORD_OFF	n/a	n/a	BANK	2	21	[0, 0, 0]	n/a	FR1	0	R1243T
2463.264	1.618	2478120	WORD	n/a	wordpools/wordpool_EN.txt	MOON	3	21	[0, 0, 0]	n/a	FR1	0	R1243T
2464.882	0.983	2479738	WORD_OFF	n/a	n/a	MOON	3	21	[0, 0, 0]	n/a	FR1	0	R1243T
2465.865	1.617	2480721	WORD	n/a	wordpools/wordpool_EN.txt	BOOK	4	21	[0, 0, 0]	n/a	FR1	0	R1243T
2467.482	0.799	2482338	WORD_OFF	n/a	n/a	BOOK	4	21	[0, 0, 0]	n/a	FR1	0	R1243T
2468.281	1.618	2483137	WORD	n/a	wordpools/wordpool_EN.txt	SKY	5	21	[0, 0, 0]	n/a	FR1	0	R1243T
2469.899	0.884	2484755	WORD_OFF	n/a	n/a	SKY	5	21	[0, 0, 0]	n/a	FR1	0	R1243T
2470.783	1.617	2485639	WORD	n/a	wordpools/wordpool_EN.txt	TRAIN	6	21	[0, 0, 0]	n/a	FR1	0	R1243T
2472.4	0.932	2487256	WORD_OFF	n/a	n/a	TRAIN	6	21	[0, 0, 0]	n/a	FR1	0	R1243T
2473.332	1.618	2488188	WORD	n/a	wordpools/wordpool_EN.txt	PARK	7	21	[0, 0, 0]	n/a	FR1	0	R1243T
2474.95	0.8	2489805	WORD_OFF	n/a	n/a	PARK	7	21	[0, 0, 0]	n/a	FR1	0	R1243T
2475.75	1.616	2490605	WORD	n/a	wordpools/wordpool_EN.txt	MULE	8	21	[0, 0, 0]	n/a	FR1	0	R1243T
2477.366	0.9	2492221	WORD_OFF	n/a	n/a	MULE	8	21	[0, 0, 0]	n/a	FR1	0	R1243T
2478.266	1.601	2493121	WORD	n/a	wordpools/wordpool_EN.txt	KITE	9	21	[0, 0, 0]	n/a	FR1	0	R1243T
2479.867	0.851	2494722	WORD_OFF	n/a	n/a	KITE	9	21	[0, 0, 0]	n/a	FR1	0	R1243T
2480.718	1.616	2495573	WORD	n/a	wordpools/wordpool_EN.txt	NET	10	21	[0, 0, 0]	n/a	FR1	0	R1243T
2482.334	0.95	2497189	WORD_OFF	n/a	n/a	NET	10	21	[0, 0, 0]	n/a	FR1	0	R1243T
2483.284	1.618	2498139	WORD	n/a	wordpools/wordpool_EN.txt	HAWK	11	21	[0, 0, 0]	n/a	FR1	0	R1243T
2484.902	1.0	2499757	WORD_OFF	n/a	n/a	HAWK	11	21	[0, 0, 0]	n/a	FR1	0	R1243T
2485.902	1.617	2500757	WORD	n/a	wordpools/wordpool_EN.txt	SHELL	12	21	[0, 0, 0]	n/a	FR1	0	R1243T
2487.519	0.0	2502374	WORD_OFF	n/a	n/a	SHELL	12	21	[0, 0, 0]	n/a	FR1	0	R1243T
2487.519	0.0	2502374	DISTRACT_START	n/a	n/a	n/a	-999	21	[0, 0, 0]	n/a	FR1	0	R1243T
2487.519	0.017	2502374	START	n/a	n/a	n/a	-999	21	[-999, -999, -999]	n/a	FR1	0	R1243T
2487.536	8.885	2502391	PROB	8.885	n/a	n/a	-999	21	[9, 3, 8]	20	FR1	0	R1243T
2496.421	6.733	2511275	PROB	6.733	n/a	n/a	-999	21	[9, 6, 7]	23	FR1	0	R1243T
2503.154	9.738	2518008	PROB	9.738	n/a	n/a	-999	21	[9, 8, 3]	19	FR1	0	R1243T
2512.892	0.015	2527745	STOP	n/a	n/a	n/a	-999	21	[-999, -999, -999]	n/a	FR1	0	R1243T
2512.907	0.517	2527760	DISTRACT_END	n/a	n/a	n/a	-999	21	[0, 0, 0]	n/a	FR1	0	R1243T
2513.424	0.517	2528277	RETRIEVAL_ORIENT	n/a	n/a	n/a	-999	21	[0, 0, 0]	n/a	FR1	0	R1243T
2513.941	22.537	2528794	REC_START	n/a	n/a	n/a	-999	21	[0, 0, 0]	n/a	FR1	0	R1243T
2536.478	7.476	2551330	REC_WORD	7.476	n/a	HAWK	-999	21	[0, 0, 0]	n/a	FR1	0	R1243T
2543.954	32.881	2558805	REC_END	n/a	n/a	n/a	-999	21	[0, 0, 0]	n/a	FR1	0	R1243T
2576.835	0.5	2591684	TRIAL	n/a	n/a	n/a	-999	22	[0, 0, 0]	n/a	FR1	0	R1243T
2577.335	10.428	2592184	COUNTDOWN_START	n/a	n/a	n/a	-999	22	[0, 0, 0]	n/a	FR1	0	R1243T
2587.763	0.008	2602612	COUNTDOWN_END	n/a	n/a	n/a	-999	22	[0, 0, 0]	n/a	FR1	0	R1243T
2587.771	1.616	2602620	ORIENT	n/a	n/a	n/a	-999	22	[0, 0, 0]	n/a	FR1	0	R1243T
2589.387	2.101	2604236	ORIENT_OFF	n/a	n/a	n/a	-999	22	[0, 0, 0]	n/a	FR1	0	R1243T
2591.488	1.617	2606336	WORD	n/a	wordpools/wordpool_EN.txt	MAP	1	22	[0, 0, 0]	n/a	FR1	0	R1243T
2593.105	0.783	2607953	WORD_OFF	n/a	n/a	MAP	1	22	[0, 0, 0]	n/a	FR1	0	R1243T
2593.888	1.617	2608736	WORD	n/a	wordpools/wordpool_EN.txt	CROW	2	22	[0, 0, 0]	n/a	FR1	0	R1243T
2595.505	0.9	2610353	WORD_OFF	n/a	n/a	CROW	2	22	[0, 0, 0]	n/a	FR1	0	R1243T
2596.405	1.617	2611253	WORD	n/a	wordpools/wordpool_EN.txt	GRASS	3	22	[0, 0, 0]	n/a	FR1	0	R1243T
2598.022	1.017	2612870	WORD_OFF	n/a	n/a	GRASS	3	22	[0, 0, 0]	n/a	FR1	0	R1243T
2599.039	1.617	2613887	WORD	n/a	wordpools/wordpool_EN.txt	SNOW	4	22	[0, 0, 0]	n/a	FR1	0	R1243T
2600.656	0.767	2615504	WORD_OFF	n/a	n/a	SNOW	4	22	[0, 0, 0]	n/a	FR1	0	R1243T
2601.423	1.617	2616271	WORD	n/a	wordpools/wordpool_EN.txt	DRUM	5	22	[0, 0, 0]	n/a	FR1	0	R1243T
2603.04	1.0	2617888	WORD_OFF	n/a	n/a	DRUM	5	22	[0, 0, 0]	n/a	FR1	0	R1243T
2604.04	1.617	2618888	WORD	n/a	wordpools/wordpool_EN.txt	LAKE	6	22	[0, 0, 0]	n/a	FR1	0	R1243T
2605.657	0.95	2620505	WORD_OFF	n/a	n/a	LAKE	6	22	[0, 0, 0]	n/a	FR1	0	R1243T
2606.607	1.616	2621454	WORD	n/a	wordpools/wordpool_EN.txt	LAMB	7	22	[0, 0, 0]	n/a	FR1	0	R1243T
2608.223	0.885	2623070	WORD_OFF	n/a	n/a	LAMB	7	22	[0, 0, 0]	n/a	FR1	0	R1243T
2609.108	1.617	2623955	WORD	n/a	wordpools/wordpool_EN.txt	RICE	8	22	[0, 0, 0]	n/a	FR1	0	R1243T
2610.725	0.916	2625572	WORD_OFF	n/a	n/a	RICE	8	22	[0, 0, 0]	n/a	FR1	0	R1243T
2611.641	1.616	2626488	WORD	n/a	wordpools/wordpool_EN.txt	CHAIR	9	22	[0, 0, 0]	n/a	FR1	0	R1243T
2613.257	1.017	2628104	WORD_OFF	n/a	n/a	CHAIR	9	22	[0, 0, 0]	n/a	FR1	0	R1243T
2614.274	1.601	2629121	WORD	n/a	wordpools/wordpool_EN.txt	PIN	10	22	[0, 0, 0]	n/a	FR1	0	R1243T
2615.875	0.801	2630722	WORD_OFF	n/a	n/a	PIN	10	22	[0, 0, 0]	n/a	FR1	0	R1243T
2616.676	1.616	2631523	WORD	n/a	wordpools/wordpool_EN.txt	CHIN	11	22	[0, 0, 0]	n/a	FR1	0	R1243T
2618.292	0.767	2633139	WORD_OFF	n/a	n/a	CHIN	11	22	[0, 0, 0]	n/a	FR1	0	R1243T
2619.059	1.617	2633906	WORD	n/a	wordpools/wordpool_EN.txt	APE	12	22	[0, 0, 0]	n/a	FR1	0	R1243T
2620.676	0.0	2635523	WORD_OFF	n/a	n/a	APE	12	22	[0, 0, 0]	n/a	FR1	0	R1243T
2620.676	0.001	2635523	DISTRACT_START	n/a	n/a	n/a	-999	22	[0, 0, 0]	n/a	FR1	0	R1243T
2620.677	0.016	2635524	START	n/a	n/a	n/a	-999	22	[-999, -999, -999]	n/a	FR1	0	R1243T
2620.693	6.584	2635540	PROB	6.584	n/a	n/a	-999	22	[7, 1, 9]	17	FR1	0	R1243T
2627.277	5.602	2642123	PROB	5.602	n/a	n/a	-999	22	[9, 3, 7]	19	FR1	0	R1243T
2632.879	6.134	2647725	PROB	6.134	n/a	n/a	-999	22	[5, 6, 6]	17	FR1	0	R1243T
2639.013	7.15	2653859	PROB	7.15	n/a	n/a	-999	22	[9, 6, 1]	16	FR1	0	R1243T
2646.163	0.017	2661008	STOP	n/a	n/a	n/a	-999	22	[-999, -999, -999]	n/a	FR1	0	R1243T
2646.18	0.618	2661025	DISTRACT_END	n/a	n/a	n/a	-999	22	[0, 0, 0]	n/a	FR1	0	R1243T
2646.798	0.516	2661643	RETRIEVAL_ORIENT	n/a	n/a	n/a	-999	22	[0, 0, 0]	n/a	FR1	0	R1243T
2647.314	2.95	2662159	REC_START	n/a	n/a	n/a	-999	22	[0, 0, 0]	n/a	FR1	0	R1243T
2650.264	0.893	2665109	REC_WORD	0.893	n/a	GRASS	-999	22	[0, 0, 0]	n/a	FR1	0	R1243T
2651.157	6.816	2666002	REC_WORD	6.816	n/a	GRAPE	-999	22	[0, 0, 0]	n/a	FR1	0	R1243T
2657.973	8.186	2672817	REC_WORD	8.186	n/a	SKY	-999	22	[0, 0, 0]	n/a	FR1	0	R1243T
2666.159	0.949	2681003	REC_WORD	0.949	n/a	YARD	-999	22	[0, 0, 0]	n/a	FR1	0	R1243T
2667.108	5.357	2681952	REC_WORD	5.357	n/a	MOW	-999	22	[0, 0, 0]	n/a	FR1	0	R1243T
2672.465	4.861	2687309	REC_WORD	4.861	n/a	GRASS	-999	22	[0, 0, 0]	n/a	FR1	0	R1243T
2677.326	6.662	2692169	REC_END	n/a	n/a	n/a	-999	22	[0, 0, 0]	n/a	FR1	0	R1243T
2683.988	0.5	2698831	TRIAL	n/a	n/a	n/a	-999	23	[0, 0, 0]	n/a	FR1	0	R1243T
2684.488	10.428	2699331	COUNTDOWN_START	n/a	n/a	n/a	-999	23	[0, 0, 0]	n/a	FR1	0	R1243T
2694.916	0.007	2709758	COUNTDOWN_END	n/a	n/a	n/a	-999	23	[0, 0, 0]	n/a	FR1	0	R1243T
2694.923	1.617	2709765	ORIENT	n/a	n/a	n/a	-999	23	[0, 0, 0]	n/a	FR1	0	R1243T
2696.54	2.05	2711382	ORIENT_OFF	n/a	n/a	n/a	-999	23	[0, 0, 0]	n/a	FR1	0	R1243T
2698.59	1.617	2713432	WORD	n/a	wordpools/wordpool_EN.txt	ROOF	1	23	[0, 0, 0]	n/a	FR1	0	R1243T
2700.207	0.901	2715049	WORD_OFF	n/a	n/a	ROOF	1	23	[0, 0, 0]	n/a	FR1	0	R1243T
2701.108	1.617	2715950	WORD	n/a	wordpools/wordpool_EN.txt	BOWL	2	23	[0, 0, 0]	n/a	FR1	0	R1243T
2702.725	0.966	2717567	WORD_OFF	n/a	n/a	BOWL	2	23	[0, 0, 0]	n/a	FR1	0	R1243T
2703.691	1.617	2718533	WORD	n/a	wordpools/wordpool_EN.txt	CLOCK	3	23	[0, 0, 0]	n/a	FR1	0	R1243T
2705.308	0.784	2720150	WORD_OFF	n/a	n/a	CLOCK	3	23	[0, 0, 0]	n/a	FR1	0	R1243T
2706.092	1.617	2720933	WORD	n/a	wordpools/wordpool_EN.txt	FARM	4	23	[0, 0, 0]	n/a	FR1	0	R1243T
2707.709	0.8	2722550	WORD_OFF	n/a	n/a	FARM	4	23	[0, 0, 0]	n/a	FR1	0	R1243T
2708.509	1.617	2723350	WORD	n/a	wordpools/wordpool_EN.txt	BED	5	23	[0, 0, 0]	n/a	FR1	0	R1243T
2710.126	0.85	2724967	WORD_OFF	n/a	n/a	BED	5	23	[0, 0, 0]	n/a	FR1	0	R1243T
2710.976	1.617	2725817	WORD	n/a	wordpools/wordpool_EN.txt	HILL	6	23	[0, 0, 0]	n/a	FR1	0	R1243T
2712.593	0.9	2727434	WORD_OFF	n/a	n/a	HILL	6	23	[0, 0, 0]	n/a	FR1	0	R1243T
2713.493	1.617	2728334	WORD	n/a	wordpools/wordpool_EN.txt	GLASS	7	23	[0, 0, 0]	n/a	FR1	0	R1243T
2715.11	0.834	2729951	WORD_OFF	n/a	n/a	GLASS	7	23	[0, 0, 0]	n/a	FR1	0	R1243T
2715.944	1.617	2730785	WORD	n/a	wordpools/wordpool_EN.txt	STRAW	8	23	[0, 0, 0]	n/a	FR1	0	R1243T
2717.561	0.983	2732402	WORD_OFF	n/a	n/a	STRAW	8	23	[0, 0, 0]	n/a	FR1	0	R1243T
2718.544	1.616	2733385	WORD	n/a	wordpools/wordpool_EN.txt	EEL	9	23	[0, 0, 0]	n/a	FR1	0	R1243T
2720.16	0.901	2735001	WORD_OFF	n/a	n/a	EEL	9	23	[0, 0, 0]	n/a	FR1	0	R1243T
2721.061	1.617	2735902	WORD	n/a	wordpools/wordpool_EN.txt	MAZE	10	23	[0, 0, 0]	n/a	FR1	0	R1243T
2722.678	0.834	2737518	WORD_OFF	n/a	n/a	MAZE	10	23	[0, 0, 0]	n/a	FR1	0	R1243T
2723.512	1.617	2738352	WORD	n/a	wordpools/wordpool_EN.txt	WALL	11	23	[0, 0, 0]	n/a	FR1	0	R1243T
2725.129	0.933	2739969	WORD_OFF	n/a	n/a	WALL	11	23	[0, 0, 0]	n/a	FR1	0	R1243T
2726.062	1.617	2740902	WORD	n/a	wordpools/wordpool_EN.txt	BRIDGE	12	23	[0, 0, 0]	n/a	FR1	0	R1243T
2727.679	0.0	2742519	WORD_OFF	n/a	n/a	BRIDGE	12	23	[0, 0, 0]	n/a	FR1	0	R1243T
2727.679	0.001	2742519	DISTRACT_START	n/a	n/a	n/a	-999	23	[0, 0, 0]	n/a	FR1	0	R1243T
2727.68	0.016	2742520	START	n/a	n/a	n/a	-999	23	[-999, -999, -999]	n/a	FR1	0	R1243T
2727.696	7.201	2742536	PROB	7.201	n/a	n/a	-999	23	[8, 5, 3]	16	FR1	0	R1243T
2734.897	7.218	2749737	PROB	7.218	n/a	n/a	-999	23	[4, 2, 1]	7	FR1	0	R1243T
2742.115	6.626	2756954	PROB	6.626	n/a	n/a	-999	23	[8, 7, 7]	24	FR1	0	R1243T
2748.741	0.009	2763580	STOP	n/a	n/a	n/a	-999	23	[-999, -999, -999]	n/a	FR1	0	R1243T
2748.75	0.532	2763589	DISTRACT_END	n/a	n/a	n/a	-999	23	[0, 0, 0]	n/a	FR1	0	R1243T
2749.282	0.518	2764121	RETRIEVAL_ORIENT	n/a	n/a	n/a	-999	23	[0, 0, 0]	n/a	FR1	0	R1243T
2749.8	8.322	2764639	REC_START	n/a	n/a	n/a	-999	23	[0, 0, 0]	n/a	FR1	0	R1243T
2758.122	0.662	2772960	REC_WORD	0.662	n/a	FARM	-999	23	[0, 0, 0]	n/a	FR1	0	R1243T
2758.784	1.947	2773622	REC_WORD	1.947	n/a	HILL	-999	23	[0, 0, 0]	n/a	FR1	0	R1243T
2760.731	4.856	2775569	REC_WORD	4.856	n/a	GLASS	-999	23	[0, 0, 0]	n/a	FR1	0	R1243T
2765.587	8.448	2780425	REC_WORD	8.448	n/a	DOOR	-999	23	[0, 0, 0]	n/a	FR1	0	R1243T
2774.035	2.278	2788872	REC_WORD	2.278	n/a	EEL	-999	23	[0, 0, 0]	n/a	FR1	0	R1243T
2776.313	3.5	2791150	REC_WORD	3.5	n/a	MAZE	-999	23	[0, 0, 0]	n/a	FR1	0	R1243T
2779.813	13.045	2794650	REC_END	n/a	n/a	n/a	-999	23	[0, 0, 0]	n/a	FR1	0	R1243T
2792.858	0.5	2807694	TRIAL	n/a	n/a	n/a	-999	24	[0, 0, 0]	n/a	FR1	0	R1243T
2793.358	10.428	2808194	COUNTDOWN_START	n/a	n/a	n/a	-999	24	[0, 0, 0]	n/a	FR1	0	R1243T
2803.786	0.007	2818622	COUNTDOWN_END	n/a	n/a	n/a	-999	24	[0, 0, 0]	n/a	FR1	0	R1243T
2803.793	1.617	2818629	ORIENT	n/a	n/a	n/a	-999	24	[0, 0, 0]	n/a	FR1	0	R1243T
2805.41	2.1	2820245	ORIENT_OFF	n/a	n/a	n/a	-999	24	[0, 0, 0]	n/a	FR1	0	R1243T
2807.51	1.617	2822345	WORD	n/a	wordpools/wordpool_EN.txt	PURSE	1	24	[0, 0, 0]	n/a	FR1	0	R1243T
2809.127	0.85	2823962	WORD_OFF	n/a	n/a	PURSE	1	24	[0, 0, 0]	n/a	FR1	0	R1243T
2809.977	1.617	2824812	WORD	n/a	wordpools/wordpool_EN.txt	PHONE	2	24	[0, 0, 0]	n/a	FR1	0	R1243T
2811.594	0.984	2826429	WORD_OFF	n/a	n/a	PHONE	2	24	[0, 0, 0]	n/a	FR1	0	R1243T
2812.578	1.616	2827413	WORD	n/a	wordpools/wordpool_EN.txt	HOLE	3	24	[0, 0, 0]	n/a	FR1	0	R1243T
2814.194	0.801	2829029	WORD_OFF	n/a	n/a	HOLE	3	24	[0, 0, 0]	n/a	FR1	0	R1243T
2814.995	1.617	2829830	WORD	n/a	wordpools/wordpool_EN.txt	SOUP	4	24	[0, 0, 0]	n/a	FR1	0	R1243T
2816.612	0.967	2831447	WORD_OFF	n/a	n/a	SOUP	4	24	[0, 0, 0]	n/a	FR1	0	R1243T
2817.579	1.616	2832414	WORD	n/a	wordpools/wordpool_EN.txt	CHALK	5	24	[0, 0, 0]	n/a	FR1	0	R1243T
2819.195	0.851	2834030	WORD_OFF	n/a	n/a	CHALK	5	24	[0, 0, 0]	n/a	FR1	0	R1243T
2820.046	1.617	2834881	WORD	n/a	wordpools/wordpool_EN.txt	DOOR	6	24	[0, 0, 0]	n/a	FR1	0	R1243T
2821.663	0.917	2836497	WORD_OFF	n/a	n/a	DOOR	6	24	[0, 0, 0]	n/a	FR1	0	R1243T
2822.58	1.616	2837414	WORD	n/a	wordpools/wordpool_EN.txt	ZOO	7	24	[0, 0, 0]	n/a	FR1	0	R1243T
2824.196	0.918	2839030	WORD_OFF	n/a	n/a	ZOO	7	24	[0, 0, 0]	n/a	FR1	0	R1243T
2825.114	1.617	2839948	WORD	n/a	wordpools/wordpool_EN.txt	FENCE	8	24	[0, 0, 0]	n/a	FR1	0	R1243T
2826.731	0.883	2841565	WORD_OFF	n/a	n/a	FENCE	8	24	[0, 0, 0]	n/a	FR1	0	R1243T
2827.614	1.616	2842448	WORD	n/a	wordpools/wordpool_EN.txt	BEAK	9	24	[0, 0, 0]	n/a	FR1	0	R1243T
2829.23	0.901	2844064	WORD_OFF	n/a	n/a	BEAK	9	24	[0, 0, 0]	n/a	FR1	0	R1243T
2830.131	1.617	2844965	WORD	n/a	wordpools/wordpool_EN.txt	LEAF	10	24	[0, 0, 0]	n/a	FR1	0	R1243T
2831.748	0.934	2846582	WORD_OFF	n/a	n/a	LEAF	10	24	[0, 0, 0]	n/a	FR1	0	R1243T
2832.682	1.616	2847516	WORD	n/a	wordpools/wordpool_EN.txt	CLOTH	11	24	[0, 0, 0]	n/a	FR1	0	R1243T
2834.298	0.95	2849132	WORD_OFF	n/a	n/a	CLOTH	11	24	[0, 0, 0]	n/a	FR1	0	R1243T
2835.248	1.618	2850082	WORD	n/a	wordpools/wordpool_EN.txt	WAVE	12	24	[0, 0, 0]	n/a	FR1	0	R1243T
2836.866	0.0	2851700	WORD_OFF	n/a	n/a	WAVE	12	24	[0, 0, 0]	n/a	FR1	0	R1243T
2836.866	0.0	2851700	DISTRACT_START	n/a	n/a	n/a	-999	24	[0, 0, 0]	n/a	FR1	0	R1243T
2836.866	0.016	2851700	START	n/a	n/a	n/a	-999	24	[-999, -999, -999]	n/a	FR1	0	R1243T
2836.882	5.467	2851716	PROB	5.467	n/a	n/a	-999	24	[8, 3, 1]	12	FR1	0	R1243T
2842.349	7.286	2857182	PROB	7.286	n/a	n/a	-999	24	[4, 7, 2]	13	FR1	0	R1243T
2849.635	5.666	2864468	PROB	5.666	n/a	n/a	-999	24	[6, 8, 3]	17	FR1	0	R1243T
2855.301	4.949	2870133	PROB	4.949	n/a	n/a	-999	24	[8, 6, 2]	16	FR1	0	R1243T
2860.25	0.019	2875082	STOP	n/a	n/a	n/a	-999	24	[-999, -999, -999]	n/a	FR1	0	R1243T
2860.269	0.684	2875101	DISTRACT_END	n/a	n/a	n/a	-999	24	[0, 0, 0]	n/a	FR1	0	R1243T
2860.953	0.518	2875785	RETRIEVAL_ORIENT	n/a	n/a	n/a	-999	24	[0, 0, 0]	n/a	FR1	0	R1243T
2861.471	23.425	2876303	REC_START	n/a	n/a	n/a	-999	24	[0, 0, 0]	n/a	FR1	0	R1243T
2884.896	2.973	2899727	REC_WORD	2.973	n/a	PURSE	-999	24	[0, 0, 0]	n/a	FR1	0	R1243T
2887.869	1.454	2902699	REC_WORD	1.454	n/a	SCHOOL	-999	24	[0, 0, 0]	n/a	FR1	0	R1243T
2889.323	2.162	2904153	REC_WORD	2.162	n/a	HOLE	-999	24	[0, 0, 0]	n/a	FR1	0	R1243T
2891.485	6.042	2906315	REC_END	n/a	n/a	n/a	-999	24	[0, 0, 0]	n/a	FR1	0	R1243T
2897.527	0.5	2912357	TRIAL	n/a	n/a	n/a	-999	25	[0, 0, 0]	n/a	FR1	0	R1243T
2898.027	10.428	2912857	COUNTDOWN_START	n/a	n/a	n/a	-999	25	[0, 0, 0]	n/a	FR1	0	R1243T
2908.455	0.007	2923284	COUNTDOWN_END	n/a	n/a	n/a	-999	25	[0, 0, 0]	n/a	FR1	0	R1243T
2908.462	1.617	2923291	ORIENT	n/a	n/a	n/a	-999	25	[0, 0, 0]	n/a	FR1	0	R1243T
2910.079	2.017	2924908	ORIENT_OFF	n/a	n/a	n/a	-999	25	[0, 0, 0]	n/a	FR1	0	R1243T
2912.096	1.617	2926925	WORD	n/a	wordpools/wordpool_EN.txt	CAPE	1	25	[0, 0, 0]	n/a	FR1	0	R1243T
2913.713	0.883	2928542	WORD_OFF	n/a	n/a	CAPE	1	25	[0, 0, 0]	n/a	FR1	0	R1243T
2914.596	1.616	2929425	WORD	n/a	wordpools/wordpool_EN.txt	LAMP	2	25	[0, 0, 0]	n/a	FR1	0	R1243T
2916.212	0.902	2931041	WORD_OFF	n/a	n/a	LAMP	2	25	[0, 0, 0]	n/a	FR1	0	R1243T
2917.114	1.617	2931943	WORD	n/a	wordpools/wordpool_EN.txt	SEAT	3	25	[0, 0, 0]	n/a	FR1	0	R1243T
2918.731	0.95	2933560	WORD_OFF	n/a	n/a	SEAT	3	25	[0, 0, 0]	n/a	FR1	0	R1243T
2919.681	1.616	2934510	WORD	n/a	wordpools/wordpool_EN.txt	GOAT	4	25	[0, 0, 0]	n/a	FR1	0	R1243T
2921.297	0.933	2936125	WORD_OFF	n/a	n/a	GOAT	4	25	[0, 0, 0]	n/a	FR1	0	R1243T
2922.23	1.618	2937058	WORD	n/a	wordpools/wordpool_EN.txt	SWAMP	5	25	[0, 0, 0]	n/a	FR1	0	R1243T
2923.848	0.784	2938676	WORD_OFF	n/a	n/a	SWAMP	5	25	[0, 0, 0]	n/a	FR1	0	R1243T
2924.632	1.616	2939460	WORD	n/a	wordpools/wordpool_EN.txt	STOOL	6	25	[0, 0, 0]	n/a	FR1	0	R1243T
2926.248	0.884	2941076	WORD_OFF	n/a	n/a	STOOL	6	25	[0, 0, 0]	n/a	FR1	0	R1243T
2927.132	1.617	2941960	WORD	n/a	wordpools/wordpool_EN.txt	PEA	7	25	[0, 0, 0]	n/a	FR1	0	R1243T
2928.749	0.817	2943577	WORD_OFF	n/a	n/a	PEA	7	25	[0, 0, 0]	n/a	FR1	0	R1243T
2929.566	1.616	2944394	WORD	n/a	wordpools/wordpool_EN.txt	OAK	8	25	[0, 0, 0]	n/a	FR1	0	R1243T
2931.182	0.951	2946010	WORD_OFF	n/a	n/a	OAK	8	25	[0, 0, 0]	n/a	FR1	0	R1243T
2932.133	1.617	2946961	WORD	n/a	wordpools/wordpool_EN.txt	CAGE	9	25	[0, 0, 0]	n/a	FR1	0	R1243T
2933.75	0.934	2948578	WORD_OFF	n/a	n/a	CAGE	9	25	[0, 0, 0]	n/a	FR1	0	R1243T
2934.684	1.615	2949512	WORD	n/a	wordpools/wordpool_EN.txt	STOVE	10	25	[0, 0, 0]	n/a	FR1	0	R1243T
2936.299	0.768	2951126	WORD_OFF	n/a	n/a	STOVE	10	25	[0, 0, 0]	n/a	FR1	0	R1243T
2937.067	1.617	2951894	WORD	n/a	wordpools/wordpool_EN.txt	SALT	11	25	[0, 0, 0]	n/a	FR1	0	R1243T
2938.684	0.917	2953511	WORD_OFF	n/a	n/a	SALT	11	25	[0, 0, 0]	n/a	FR1	0	R1243T
2939.601	1.616	2954428	WORD	n/a	wordpools/wordpool_EN.txt	CAR	12	25	[0, 0, 0]	n/a	FR1	0	R1243T
2941.217	0.0	2956044	WORD_OFF	n/a	n/a	CAR	12	25	[0, 0, 0]	n/a	FR1	0	R1243T
2941.217	0.001	2956044	DISTRACT_START	n/a	n/a	n/a	-999	25	[0, 0, 0]	n/a	FR1	0	R1243T
2941.218	0.016	2956045	START	n/a	n/a	n/a	-999	25	[-999, -999, -999]	n/a	FR1	0	R1243T
2941.234	5.335	2956061	PROB	5.335	n/a	n/a	-999	25	[8, 2, 1]	11	FR1	0	R1243T
2946.569	4.301	2961396	PROB	4.301	n/a	n/a	-999	25	[2, 9, 9]	21	FR1	0	R1243T
2950.87	7.884	2965697	PROB	7.884	n/a	n/a	-999	25	[9, 4, 4]	17	FR1	0	R1243T
2958.754	5.538	2973580	PROB	5.538	n/a	n/a	-999	25	[6, 2, 7]	15	FR1	0	R1243T
2964.292	0.012	2979118	STOP	n/a	n/a	n/a	-999	25	[-999, -999, -999]	n/a	FR1	0	R1243T
2964.304	0.685	2979130	DISTRACT_END	n/a	n/a	n/a	-999	25	[0, 0, 0]	n/a	FR1	0	R1243T
2964.989	0.518	2979815	RETRIEVAL_ORIENT	n/a	n/a	n/a	-999	25	[0, 0, 0]	n/a	FR1	0	R1243T
2965.507	27.265	2980333	REC_START	n/a	n/a	n/a	-999	25	[0, 0, 0]	n/a	FR1	0	R1243T
2992.772	0.763	3007596	REC_WORD	0.763	n/a	CAMP	-999	25	[0, 0, 0]	n/a	FR1	0	R1243T
2993.535	1.711	3008359	REC_WORD	1.711	n/a	POT	-999	25	[0, 0, 0]	n/a	FR1	0	R1243T
2995.246	0.271	3010070	REC_WORD_VV	0.271	n/a	<>	-999	25	[0, 0, 0]	n/a	FR1	0	R1243T
2995.517	43.668	3010341	REC_END	n/a	n/a	n/a	-999	25	[0, 0, 0]	n/a	FR1	0	R1243T
3039.185	0.0	3054006	SESS_END	n/a	n/a	n/a	-999	25	[0, 0, 0]	n/a	FR1	0	R1243T
