onset	duration	sample	trial_type	response_time	stim_file	item_name	serialpos	list	test	answer	experiment	session	subject
0.0	147.364	23952	INSTRUCT_START	n/a	n/a	n/a	-999	-999	[0, 0, 0]	n/a	FR1	1	R1420T
147.364	46.983	171309	INSTRUCT_END	n/a	n/a	n/a	-999	-999	[0, 0, 0]	n/a	FR1	1	R1420T
194.347	10.401	218284	COUNTDOWN_START	n/a	n/a	n/a	-999	-999	[0, 0, 0]	n/a	FR1	1	R1420T
204.748	0.0	228682	COUNTDOWN_END	n/a	n/a	n/a	-999	-999	[0, 0, 0]	n/a	FR1	1	R1420T
204.748	2.183	228691	ENCODING_START	n/a	n/a	n/a	-999	-1	[0, 0, 0]	n/a	FR1	1	R1420T
206.931	1.599	230865	WORD	n/a	n/a	STAKE	1	-1	[0, 0, 0]	n/a	FR1	1	R1420T
208.53	0.884	232470	WORD_OFF	n/a	n/a	STAKE	1	-1	[0, 0, 0]	n/a	FR1	1	R1420T
209.414	1.616	233354	WORD	n/a	n/a	YACHT	2	-1	[0, 0, 0]	n/a	FR1	1	R1420T
211.03	0.85	234968	WORD_OFF	n/a	n/a	YACHT	2	-1	[0, 0, 0]	n/a	FR1	1	R1420T
211.88	1.6	235816	WORD	n/a	n/a	RAIL	3	-1	[0, 0, 0]	n/a	FR1	1	R1420T
213.48	0.817	237421	WORD_OFF	n/a	n/a	RAIL	3	-1	[0, 0, 0]	n/a	FR1	1	R1420T
214.297	1.6	238233	WORD	n/a	n/a	JAIL	4	-1	[0, 0, 0]	n/a	FR1	1	R1420T
215.897	0.917	239838	WORD_OFF	n/a	n/a	JAIL	4	-1	[0, 0, 0]	n/a	FR1	1	R1420T
216.814	1.616	240749	WORD	n/a	n/a	SALT	5	-1	[0, 0, 0]	n/a	FR1	1	R1420T
218.43	0.816	242363	WORD_OFF	n/a	n/a	SALT	5	-1	[0, 0, 0]	n/a	FR1	1	R1420T
219.246	1.6	243184	WORD	n/a	n/a	CONE	6	-1	[0, 0, 0]	n/a	FR1	1	R1420T
220.846	0.8	244780	WORD_OFF	n/a	n/a	CONE	6	-1	[0, 0, 0]	n/a	FR1	1	R1420T
221.646	1.601	245582	WORD	n/a	n/a	YOLK	7	-1	[0, 0, 0]	n/a	FR1	1	R1420T
223.247	0.816	247188	WORD_OFF	n/a	n/a	YOLK	7	-1	[0, 0, 0]	n/a	FR1	1	R1420T
224.063	1.617	247999	WORD	n/a	n/a	PLATE	8	-1	[0, 0, 0]	n/a	FR1	1	R1420T
225.68	0.766	249614	WORD_OFF	n/a	n/a	PLATE	8	-1	[0, 0, 0]	n/a	FR1	1	R1420T
226.446	1.601	250389	WORD	n/a	n/a	CROWN	9	-1	[0, 0, 0]	n/a	FR1	1	R1420T
228.047	0.9	251985	WORD_OFF	n/a	n/a	CROWN	9	-1	[0, 0, 0]	n/a	FR1	1	R1420T
228.947	1.616	252887	WORD	n/a	n/a	SWAMP	10	-1	[0, 0, 0]	n/a	FR1	1	R1420T
230.563	0.851	254501	WORD_OFF	n/a	n/a	SWAMP	10	-1	[0, 0, 0]	n/a	FR1	1	R1420T
231.414	1.6	255349	WORD	n/a	n/a	WIFE	11	-1	[0, 0, 0]	n/a	FR1	1	R1420T
233.014	0.799	256954	WORD_OFF	n/a	n/a	WIFE	11	-1	[0, 0, 0]	n/a	FR1	1	R1420T
233.813	1.601	257748	WORD	n/a	n/a	NEST	12	-1	[0, 0, 0]	n/a	FR1	1	R1420T
235.414	0.001	259350	PROB	0.001	n/a	n/a	-999	-1	[6, 3, 2]	12	FR1	1	R1420T
235.415	0.0	259351	START	n/a	n/a	n/a	-999	-1	[-999, -999, -999]	n/a	FR1	1	R1420T
235.414	0.001	259353	WORD_OFF	n/a	n/a	NEST	12	-1	[0, 0, 0]	n/a	FR1	1	R1420T
235.415	0.0	259353	ENCODING_END	n/a	n/a	n/a	-999	-1	[0, 0, 0]	n/a	FR1	1	R1420T
235.415	5.666	259353	DISTRACT_START	n/a	n/a	n/a	-999	-1	[0, 0, 0]	n/a	FR1	1	R1420T
241.081	9.75	265016	PROB	9.75	n/a	n/a	-999	-1	[8, 6, 7]	21	FR1	1	R1420T
250.831	7.833	274766	PROB	7.833	n/a	n/a	-999	-1	[5, 8, 5]	18	FR1	1	R1420T
258.664	0.0	282598	STOP	n/a	n/a	n/a	-999	-1	[-999, -999, -999]	n/a	FR1	1	R1420T
258.664	1.233	282602	DISTRACT_END	n/a	n/a	n/a	-999	-1	[0, 0, 0]	n/a	FR1	1	R1420T
259.897	4.828	283829	REC_START	n/a	n/a	n/a	-999	-1	[0, 0, 0]	n/a	FR1	1	R1420T
264.725	1.645	288659	REC_WORD	1.645	n/a	YACHT	2	-1	[0, 0, 0]	n/a	FR1	1	R1420T
266.37	1.751	290304	REC_WORD	1.751	n/a	CONE	6	-1	[0, 0, 0]	n/a	FR1	1	R1420T
268.121	23.076	292055	REC_WORD_VV	23.076	n/a	<>	-999	-1	[0, 0, 0]	n/a	FR1	1	R1420T
291.197	8.95	315131	REC_END	n/a	n/a	n/a	-999	-1	[0, 0, 0]	n/a	FR1	1	R1420T
300.147	10.35	324077	COUNTDOWN_START	n/a	n/a	n/a	-999	1	[0, 0, 0]	n/a	FR1	1	R1420T
310.497	0.0	334430	COUNTDOWN_END	n/a	n/a	n/a	-999	1	[0, 0, 0]	n/a	FR1	1	R1420T
310.497	1.949	334430	ENCODING_START	n/a	n/a	n/a	-999	1	[0, 0, 0]	n/a	FR1	1	R1420T
312.446	1.6	336378	WORD	n/a	wordpools/wordpool_long_EN.txt	RICE	1	1	[0, 0, 0]	n/a	FR1	1	R1420T
314.046	0.967	337983	WORD_OFF	n/a	n/a	RICE	1	1	[0, 0, 0]	n/a	FR1	1	R1420T
315.013	1.617	338948	WORD	n/a	wordpools/wordpool_long_EN.txt	WEED	2	1	[0, 0, 0]	n/a	FR1	1	R1420T
316.63	0.9	340562	WORD_OFF	n/a	n/a	WEED	2	1	[0, 0, 0]	n/a	FR1	1	R1420T
317.53	1.6	341464	WORD	n/a	wordpools/wordpool_long_EN.txt	PALM	3	1	[0, 0, 0]	n/a	FR1	1	R1420T
319.13	0.867	343060	WORD_OFF	n/a	n/a	PALM	3	1	[0, 0, 0]	n/a	FR1	1	R1420T
319.997	1.6	343926	WORD	n/a	wordpools/wordpool_long_EN.txt	BRICK	4	1	[0, 0, 0]	n/a	FR1	1	R1420T
321.597	0.867	345531	WORD_OFF	n/a	n/a	BRICK	4	1	[0, 0, 0]	n/a	FR1	1	R1420T
322.464	1.616	346397	WORD	n/a	wordpools/wordpool_long_EN.txt	BADGE	5	1	[0, 0, 0]	n/a	FR1	1	R1420T
324.08	0.784	348011	WORD_OFF	n/a	n/a	BADGE	5	1	[0, 0, 0]	n/a	FR1	1	R1420T
324.864	1.6	348796	WORD	n/a	wordpools/wordpool_long_EN.txt	THUMB	6	1	[0, 0, 0]	n/a	FR1	1	R1420T
326.464	0.916	350392	WORD_OFF	n/a	n/a	THUMB	6	1	[0, 0, 0]	n/a	FR1	1	R1420T
327.38	1.6	351312	WORD	n/a	wordpools/wordpool_long_EN.txt	ARCH	7	1	[0, 0, 0]	n/a	FR1	1	R1420T
328.98	0.867	352908	WORD_OFF	n/a	n/a	ARCH	7	1	[0, 0, 0]	n/a	FR1	1	R1420T
329.847	1.6	353774	WORD	n/a	wordpools/wordpool_long_EN.txt	SPOOL	8	1	[0, 0, 0]	n/a	FR1	1	R1420T
331.447	0.866	355379	WORD_OFF	n/a	n/a	SPOOL	8	1	[0, 0, 0]	n/a	FR1	1	R1420T
332.313	1.601	356245	WORD	n/a	wordpools/wordpool_long_EN.txt	LIP	9	1	[0, 0, 0]	n/a	FR1	1	R1420T
333.914	0.9	357841	WORD_OFF	n/a	n/a	LIP	9	1	[0, 0, 0]	n/a	FR1	1	R1420T
334.814	1.6	358743	WORD	n/a	wordpools/wordpool_long_EN.txt	BARN	10	1	[0, 0, 0]	n/a	FR1	1	R1420T
336.414	0.766	360348	WORD_OFF	n/a	n/a	BARN	10	1	[0, 0, 0]	n/a	FR1	1	R1420T
337.18	1.6	361114	WORD	n/a	wordpools/wordpool_long_EN.txt	SKATE	11	1	[0, 0, 0]	n/a	FR1	1	R1420T
338.78	0.95	362711	WORD_OFF	n/a	n/a	SKATE	11	1	[0, 0, 0]	n/a	FR1	1	R1420T
339.73	1.601	363657	WORD	n/a	wordpools/wordpool_long_EN.txt	BIRD	12	1	[0, 0, 0]	n/a	FR1	1	R1420T
341.331	0.001	365261	PROB	0.001	n/a	n/a	-999	1	[3, 8, 8]	19	FR1	1	R1420T
341.332	0.0	365262	START	n/a	n/a	n/a	-999	1	[-999, -999, -999]	n/a	FR1	1	R1420T
341.33	0.002	365263	WORD_OFF	n/a	n/a	BIRD	12	1	[0, 0, 0]	n/a	FR1	1	R1420T
341.332	0.0	365263	ENCODING_END	n/a	n/a	n/a	-999	1	[0, 0, 0]	n/a	FR1	1	R1420T
341.332	6.547	365263	DISTRACT_START	n/a	n/a	n/a	-999	1	[0, 0, 0]	n/a	FR1	1	R1420T
347.879	5.018	371809	PROB	5.018	n/a	n/a	-999	1	[7, 3, 5]	15	FR1	1	R1420T
352.897	8.117	376827	PROB	8.117	n/a	n/a	-999	1	[6, 3, 1]	10	FR1	1	R1420T
361.014	6.851	384943	PROB	6.851	n/a	n/a	-999	1	[6, 2, 6]	14	FR1	1	R1420T
367.865	0.0	391794	DISTRACT_END	n/a	n/a	n/a	-999	1	[0, 0, 0]	n/a	FR1	1	R1420T
367.865	1.298	391794	STOP	n/a	n/a	n/a	-999	1	[-999, -999, -999]	n/a	FR1	1	R1420T
369.163	5.461	393093	REC_START	n/a	n/a	n/a	-999	1	[0, 0, 0]	n/a	FR1	1	R1420T
374.624	3.037	398552	REC_WORD	3.037	n/a	SKATE	11	1	[0, 0, 0]	n/a	FR1	1	R1420T
377.661	9.244	401589	REC_WORD	9.244	n/a	BRIDGE	-999	1	[0, 0, 0]	n/a	FR1	1	R1420T
386.905	13.493	410833	REC_WORD_VV	13.493	n/a	<>	-999	1	[0, 0, 0]	n/a	FR1	1	R1420T
400.398	2.648	424323	REC_END	n/a	n/a	n/a	-999	1	[0, 0, 0]	n/a	FR1	1	R1420T
403.046	10.351	426974	COUNTDOWN_START	n/a	n/a	n/a	-999	1	[0, 0, 0]	n/a	FR1	1	R1420T
413.397	0.0	437327	COUNTDOWN_END	n/a	n/a	n/a	-999	1	[0, 0, 0]	n/a	FR1	1	R1420T
413.397	2.133	437327	ENCODING_START	n/a	n/a	n/a	-999	2	[0, 0, 0]	n/a	FR1	1	R1420T
415.53	1.617	439455	WORD	n/a	wordpools/wordpool_long_EN.txt	DART	1	2	[0, 0, 0]	n/a	FR1	1	R1420T
417.147	0.766	441070	WORD_OFF	n/a	n/a	DART	1	2	[0, 0, 0]	n/a	FR1	1	R1420T
417.913	1.601	441836	WORD	n/a	wordpools/wordpool_long_EN.txt	SLUG	2	2	[0, 0, 0]	n/a	FR1	1	R1420T
419.514	0.982	443441	WORD_OFF	n/a	n/a	SLUG	2	2	[0, 0, 0]	n/a	FR1	1	R1420T
420.496	1.601	444424	WORD	n/a	wordpools/wordpool_long_EN.txt	CLAM	3	2	[0, 0, 0]	n/a	FR1	1	R1420T
422.097	0.767	446020	WORD_OFF	n/a	n/a	CLAM	3	2	[0, 0, 0]	n/a	FR1	1	R1420T
422.864	1.615	446787	WORD	n/a	wordpools/wordpool_long_EN.txt	OWL	4	2	[0, 0, 0]	n/a	FR1	1	R1420T
424.479	1.001	448410	WORD_OFF	n/a	n/a	OWL	4	2	[0, 0, 0]	n/a	FR1	1	R1420T
425.48	1.6	449402	WORD	n/a	wordpools/wordpool_long_EN.txt	FOOD	5	2	[0, 0, 0]	n/a	FR1	1	R1420T
427.08	0.9	451008	WORD_OFF	n/a	n/a	FOOD	5	2	[0, 0, 0]	n/a	FR1	1	R1420T
427.98	1.601	451909	WORD	n/a	wordpools/wordpool_long_EN.txt	TOWN	6	2	[0, 0, 0]	n/a	FR1	1	R1420T
429.581	0.933	453506	WORD_OFF	n/a	n/a	TOWN	6	2	[0, 0, 0]	n/a	FR1	1	R1420T
430.514	1.615	454443	WORD	n/a	wordpools/wordpool_long_EN.txt	ROOT	7	2	[0, 0, 0]	n/a	FR1	1	R1420T
432.129	0.918	456058	WORD_OFF	n/a	n/a	ROOT	7	2	[0, 0, 0]	n/a	FR1	1	R1420T
433.047	1.6	456969	WORD	n/a	wordpools/wordpool_long_EN.txt	CHEEK	8	2	[0, 0, 0]	n/a	FR1	1	R1420T
434.647	0.867	458574	WORD_OFF	n/a	n/a	CHEEK	8	2	[0, 0, 0]	n/a	FR1	1	R1420T
435.514	1.6	459440	WORD	n/a	wordpools/wordpool_long_EN.txt	QUEEN	9	2	[0, 0, 0]	n/a	FR1	1	R1420T
437.114	0.816	461036	WORD_OFF	n/a	n/a	QUEEN	9	2	[0, 0, 0]	n/a	FR1	1	R1420T
437.93	1.6	461856	WORD	n/a	wordpools/wordpool_long_EN.txt	GIFT	10	2	[0, 0, 0]	n/a	FR1	1	R1420T
439.53	0.884	463453	WORD_OFF	n/a	n/a	GIFT	10	2	[0, 0, 0]	n/a	FR1	1	R1420T
440.414	1.6	464336	WORD	n/a	wordpools/wordpool_long_EN.txt	TEETH	11	2	[0, 0, 0]	n/a	FR1	1	R1420T
442.014	1.0	465942	WORD_OFF	n/a	n/a	TEETH	11	2	[0, 0, 0]	n/a	FR1	1	R1420T
443.014	1.6	466943	WORD	n/a	wordpools/wordpool_long_EN.txt	CROSS	12	2	[0, 0, 0]	n/a	FR1	1	R1420T
444.614	0.001	468539	WORD_OFF	n/a	n/a	CROSS	12	2	[0, 0, 0]	n/a	FR1	1	R1420T
444.615	0.0	468539	ENCODING_END	n/a	n/a	n/a	-999	2	[0, 0, 0]	n/a	FR1	1	R1420T
444.614	0.001	468539	PROB	0.001	n/a	n/a	-999	2	[5, 3, 7]	15	FR1	1	R1420T
444.615	0.0	468540	START	n/a	n/a	n/a	-999	2	[-999, -999, -999]	n/a	FR1	1	R1420T
444.615	8.582	468548	DISTRACT_START	n/a	n/a	n/a	-999	2	[0, 0, 0]	n/a	FR1	1	R1420T
453.197	5.266	477121	PROB	5.266	n/a	n/a	-999	2	[6, 8, 2]	16	FR1	1	R1420T
458.463	5.168	482387	PROB	5.168	n/a	n/a	-999	2	[3, 1, 7]	11	FR1	1	R1420T
463.631	4.766	487555	PROB	4.766	n/a	n/a	-999	2	[3, 3, 5]	11	FR1	1	R1420T
468.397	0.0	492320	DISTRACT_END	n/a	n/a	n/a	-999	2	[0, 0, 0]	n/a	FR1	1	R1420T
468.397	1.199	492321	STOP	n/a	n/a	n/a	-999	2	[-999, -999, -999]	n/a	FR1	1	R1420T
469.596	3.679	493519	REC_START	n/a	n/a	n/a	-999	2	[0, 0, 0]	n/a	FR1	1	R1420T
473.275	0.628	497198	REC_WORD_VV	0.628	n/a	<>	-999	2	[0, 0, 0]	n/a	FR1	1	R1420T
473.903	1.777	497826	REC_WORD	1.777	n/a	DART	1	2	[0, 0, 0]	n/a	FR1	1	R1420T
475.68	17.394	499603	REC_WORD	17.394	n/a	ARCH	-999	2	[0, 0, 0]	n/a	FR1	1	R1420T
493.074	7.776	516996	REC_WORD	7.776	n/a	SLUG	2	2	[0, 0, 0]	n/a	FR1	1	R1420T
500.85	2.965	524776	REC_END	n/a	n/a	n/a	-999	2	[0, 0, 0]	n/a	FR1	1	R1420T
503.815	10.349	527734	COUNTDOWN_START	n/a	n/a	n/a	-999	2	[0, 0, 0]	n/a	FR1	1	R1420T
514.164	0.0	538087	COUNTDOWN_END	n/a	n/a	n/a	-999	2	[0, 0, 0]	n/a	FR1	1	R1420T
514.164	1.966	538087	ENCODING_START	n/a	n/a	n/a	-999	3	[0, 0, 0]	n/a	FR1	1	R1420T
516.13	1.617	540062	WORD	n/a	wordpools/wordpool_long_EN.txt	JET	1	3	[0, 0, 0]	n/a	FR1	1	R1420T
517.747	0.766	541667	WORD_OFF	n/a	n/a	JET	1	3	[0, 0, 0]	n/a	FR1	1	R1420T
518.513	1.601	542434	WORD	n/a	wordpools/wordpool_long_EN.txt	CLOWN	2	3	[0, 0, 0]	n/a	FR1	1	R1420T
520.114	0.916	544039	WORD_OFF	n/a	n/a	CLOWN	2	3	[0, 0, 0]	n/a	FR1	1	R1420T
521.03	1.6	544950	WORD	n/a	wordpools/wordpool_long_EN.txt	SLEEVE	3	3	[0, 0, 0]	n/a	FR1	1	R1420T
522.63	0.817	546555	WORD_OFF	n/a	n/a	SLEEVE	3	3	[0, 0, 0]	n/a	FR1	1	R1420T
523.447	1.6	547367	WORD	n/a	wordpools/wordpool_long_EN.txt	SHOE	4	3	[0, 0, 0]	n/a	FR1	1	R1420T
525.047	0.85	548972	WORD_OFF	n/a	n/a	SHOE	4	3	[0, 0, 0]	n/a	FR1	1	R1420T
525.897	1.617	549820	WORD	n/a	wordpools/wordpool_long_EN.txt	SOUP	5	3	[0, 0, 0]	n/a	FR1	1	R1420T
527.514	0.816	551434	WORD_OFF	n/a	n/a	SOUP	5	3	[0, 0, 0]	n/a	FR1	1	R1420T
528.33	1.6	552255	WORD	n/a	wordpools/wordpool_long_EN.txt	FLEET	6	3	[0, 0, 0]	n/a	FR1	1	R1420T
529.93	0.967	553851	WORD_OFF	n/a	n/a	FLEET	6	3	[0, 0, 0]	n/a	FR1	1	R1420T
530.897	1.617	554816	WORD	n/a	wordpools/wordpool_long_EN.txt	SPARK	7	3	[0, 0, 0]	n/a	FR1	1	R1420T
532.514	0.966	556439	WORD_OFF	n/a	n/a	SPARK	7	3	[0, 0, 0]	n/a	FR1	1	R1420T
533.48	1.6	557404	WORD	n/a	wordpools/wordpool_long_EN.txt	SAIL	8	3	[0, 0, 0]	n/a	FR1	1	R1420T
535.08	1.0	559000	WORD_OFF	n/a	n/a	SAIL	8	3	[0, 0, 0]	n/a	FR1	1	R1420T
536.08	1.6	560001	WORD	n/a	wordpools/wordpool_long_EN.txt	BAT	9	3	[0, 0, 0]	n/a	FR1	1	R1420T
537.68	0.95	561597	WORD_OFF	n/a	n/a	BAT	9	3	[0, 0, 0]	n/a	FR1	1	R1420T
538.63	1.617	562553	WORD	n/a	wordpools/wordpool_long_EN.txt	SMILE	10	3	[0, 0, 0]	n/a	FR1	1	R1420T
540.247	0.9	564168	WORD_OFF	n/a	n/a	SMILE	10	3	[0, 0, 0]	n/a	FR1	1	R1420T
541.147	1.6	565069	WORD	n/a	wordpools/wordpool_long_EN.txt	GREASE	11	3	[0, 0, 0]	n/a	FR1	1	R1420T
542.747	0.933	566666	WORD_OFF	n/a	n/a	GREASE	11	3	[0, 0, 0]	n/a	FR1	1	R1420T
543.68	1.617	567604	WORD	n/a	wordpools/wordpool_long_EN.txt	CHEST	12	3	[0, 0, 0]	n/a	FR1	1	R1420T
545.297	0.001	569218	WORD_OFF	n/a	n/a	CHEST	12	3	[0, 0, 0]	n/a	FR1	1	R1420T
545.298	0.0	569218	ENCODING_END	n/a	n/a	n/a	-999	3	[0, 0, 0]	n/a	FR1	1	R1420T
545.298	0.0	569218	DISTRACT_START	n/a	n/a	n/a	-999	3	[0, 0, 0]	n/a	FR1	1	R1420T
545.298	0.0	569218	PROB	0.0	n/a	n/a	-999	3	[5, 2, 3]	10	FR1	1	R1420T
545.298	6.883	569218	START	n/a	n/a	n/a	-999	3	[-999, -999, -999]	n/a	FR1	1	R1420T
552.181	5.083	576100	PROB	5.083	n/a	n/a	-999	3	[5, 6, 7]	18	FR1	1	R1420T
557.264	6.7	581183	PROB	6.7	n/a	n/a	-999	3	[2, 7, 8]	17	FR1	1	R1420T
563.964	8.482	587883	PROB	8.482	n/a	n/a	-999	3	[1, 2, 7]	10	FR1	1	R1420T
572.446	0.0	596363	DISTRACT_END	n/a	n/a	n/a	-999	3	[0, 0, 0]	n/a	FR1	1	R1420T
572.446	1.367	596364	STOP	n/a	n/a	n/a	-999	3	[-999, -999, -999]	n/a	FR1	1	R1420T
573.813	6.355	597733	REC_START	n/a	n/a	n/a	-999	3	[0, 0, 0]	n/a	FR1	1	R1420T
580.168	4.036	604086	REC_WORD_VV	4.036	n/a	<>	-999	3	[0, 0, 0]	n/a	FR1	1	R1420T
584.204	6.886	608122	REC_WORD	6.886	n/a	DART	-999	3	[0, 0, 0]	n/a	FR1	1	R1420T
591.09	14.033	615007	REC_WORD	14.033	n/a	CROWN	-999	3	[0, 0, 0]	n/a	FR1	1	R1420T
605.123	1.274	629044	REC_END	n/a	n/a	n/a	-999	3	[0, 0, 0]	n/a	FR1	1	R1420T
606.397	10.351	630316	COUNTDOWN_START	n/a	n/a	n/a	-999	3	[0, 0, 0]	n/a	FR1	1	R1420T
616.748	0.0	640660	COUNTDOWN_END	n/a	n/a	n/a	-999	3	[0, 0, 0]	n/a	FR1	1	R1420T
616.748	2.199	640669	ENCODING_START	n/a	n/a	n/a	-999	4	[0, 0, 0]	n/a	FR1	1	R1420T
618.947	1.6	642860	WORD	n/a	wordpools/wordpool_long_EN.txt	LUNCH	1	4	[0, 0, 0]	n/a	FR1	1	R1420T
620.547	0.917	644465	WORD_OFF	n/a	n/a	LUNCH	1	4	[0, 0, 0]	n/a	FR1	1	R1420T
621.464	1.6	645376	WORD	n/a	wordpools/wordpool_long_EN.txt	SPOUSE	2	4	[0, 0, 0]	n/a	FR1	1	R1420T
623.064	0.983	646982	WORD_OFF	n/a	n/a	SPOUSE	2	4	[0, 0, 0]	n/a	FR1	1	R1420T
624.047	1.617	647965	WORD	n/a	wordpools/wordpool_long_EN.txt	GRILL	3	4	[0, 0, 0]	n/a	FR1	1	R1420T
625.664	0.783	649579	WORD_OFF	n/a	n/a	GRILL	3	4	[0, 0, 0]	n/a	FR1	1	R1420T
626.447	1.6	650363	WORD	n/a	wordpools/wordpool_long_EN.txt	MULE	4	4	[0, 0, 0]	n/a	FR1	1	R1420T
628.047	0.817	651960	WORD_OFF	n/a	n/a	MULE	4	4	[0, 0, 0]	n/a	FR1	1	R1420T
628.864	1.6	652780	WORD	n/a	wordpools/wordpool_long_EN.txt	BANK	5	4	[0, 0, 0]	n/a	FR1	1	R1420T
630.464	0.983	654376	WORD_OFF	n/a	n/a	BANK	5	4	[0, 0, 0]	n/a	FR1	1	R1420T
631.447	1.6	655359	WORD	n/a	wordpools/wordpool_long_EN.txt	YARN	6	4	[0, 0, 0]	n/a	FR1	1	R1420T
633.047	0.9	656965	WORD_OFF	n/a	n/a	YARN	6	4	[0, 0, 0]	n/a	FR1	1	R1420T
633.947	1.6	657866	WORD	n/a	wordpools/wordpool_long_EN.txt	SPACE	7	4	[0, 0, 0]	n/a	FR1	1	R1420T
635.547	0.817	659463	WORD_OFF	n/a	n/a	SPACE	7	4	[0, 0, 0]	n/a	FR1	1	R1420T
636.364	1.616	660283	WORD	n/a	wordpools/wordpool_long_EN.txt	HOUSE	8	4	[0, 0, 0]	n/a	FR1	1	R1420T
637.98	0.867	661898	WORD_OFF	n/a	n/a	HOUSE	8	4	[0, 0, 0]	n/a	FR1	1	R1420T
638.847	1.6	662763	WORD	n/a	wordpools/wordpool_long_EN.txt	SUIT	9	4	[0, 0, 0]	n/a	FR1	1	R1420T
640.447	0.782	664360	WORD_OFF	n/a	n/a	SUIT	9	4	[0, 0, 0]	n/a	FR1	1	R1420T
641.229	1.601	665144	WORD	n/a	wordpools/wordpool_long_EN.txt	VASE	10	4	[0, 0, 0]	n/a	FR1	1	R1420T
642.83	0.933	666749	WORD_OFF	n/a	n/a	VASE	10	4	[0, 0, 0]	n/a	FR1	1	R1420T
643.763	1.6	667678	WORD	n/a	wordpools/wordpool_long_EN.txt	STOOL	11	4	[0, 0, 0]	n/a	FR1	1	R1420T
645.363	0.9	669274	WORD_OFF	n/a	n/a	STOOL	11	4	[0, 0, 0]	n/a	FR1	1	R1420T
646.263	1.601	670176	WORD	n/a	wordpools/wordpool_long_EN.txt	SEA	12	4	[0, 0, 0]	n/a	FR1	1	R1420T
647.864	0.001	671779	PROB	0.001	n/a	n/a	-999	4	[5, 1, 6]	12	FR1	1	R1420T
647.865	0.0	671780	START	n/a	n/a	n/a	-999	4	[-999, -999, -999]	n/a	FR1	1	R1420T
647.863	0.002	671782	WORD_OFF	n/a	n/a	SEA	12	4	[0, 0, 0]	n/a	FR1	1	R1420T
647.865	0.0	671782	ENCODING_END	n/a	n/a	n/a	-999	4	[0, 0, 0]	n/a	FR1	1	R1420T
647.865	6.615	671782	DISTRACT_START	n/a	n/a	n/a	-999	4	[0, 0, 0]	n/a	FR1	1	R1420T
654.48	4.235	678394	PROB	4.235	n/a	n/a	-999	4	[5, 3, 7]	17	FR1	1	R1420T
658.715	3.932	682629	PROB	3.932	n/a	n/a	-999	4	[6, 3, 2]	11	FR1	1	R1420T
662.647	4.55	686561	PROB	4.55	n/a	n/a	-999	4	[6, 2, 7]	15	FR1	1	R1420T
667.197	10.816	691111	PROB	10.816	n/a	n/a	-999	4	[8, 2, 4]	14	FR1	1	R1420T
678.013	0.0	701926	STOP	n/a	n/a	n/a	-999	4	[-999, -999, -999]	n/a	FR1	1	R1420T
678.013	1.334	701929	DISTRACT_END	n/a	n/a	n/a	-999	4	[0, 0, 0]	n/a	FR1	1	R1420T
679.347	4.318	703264	REC_START	n/a	n/a	n/a	-999	4	[0, 0, 0]	n/a	FR1	1	R1420T
683.665	2.049	707578	REC_WORD	2.049	n/a	MULE	4	4	[0, 0, 0]	n/a	FR1	1	R1420T
685.714	24.911	709627	REC_WORD_VV	24.911	n/a	<>	-999	4	[0, 0, 0]	n/a	FR1	1	R1420T
710.625	1.938	734539	REC_END	n/a	n/a	n/a	-999	4	[0, 0, 0]	n/a	FR1	1	R1420T
712.563	10.351	736478	COUNTDOWN_START	n/a	n/a	n/a	-999	4	[0, 0, 0]	n/a	FR1	1	R1420T
722.914	0.0	746822	COUNTDOWN_END	n/a	n/a	n/a	-999	4	[0, 0, 0]	n/a	FR1	1	R1420T
722.914	2.266	746831	ENCODING_START	n/a	n/a	n/a	-999	5	[0, 0, 0]	n/a	FR1	1	R1420T
725.18	1.6	749094	WORD	n/a	wordpools/wordpool_long_EN.txt	SMOKE	1	5	[0, 0, 0]	n/a	FR1	1	R1420T
726.78	0.817	750691	WORD_OFF	n/a	n/a	SMOKE	1	5	[0, 0, 0]	n/a	FR1	1	R1420T
727.597	1.6	751511	WORD	n/a	wordpools/wordpool_long_EN.txt	ICE	2	5	[0, 0, 0]	n/a	FR1	1	R1420T
729.197	0.767	753107	WORD_OFF	n/a	n/a	ICE	2	5	[0, 0, 0]	n/a	FR1	1	R1420T
729.964	1.6	753874	WORD	n/a	wordpools/wordpool_long_EN.txt	CLOCK	3	5	[0, 0, 0]	n/a	FR1	1	R1420T
731.564	0.849	755470	WORD_OFF	n/a	n/a	CLOCK	3	5	[0, 0, 0]	n/a	FR1	1	R1420T
732.413	1.6	756327	WORD	n/a	wordpools/wordpool_long_EN.txt	HOLE	4	5	[0, 0, 0]	n/a	FR1	1	R1420T
734.013	1.0	757923	WORD_OFF	n/a	n/a	HOLE	4	5	[0, 0, 0]	n/a	FR1	1	R1420T
735.013	1.617	758924	WORD	n/a	wordpools/wordpool_long_EN.txt	SHIP	5	5	[0, 0, 0]	n/a	FR1	1	R1420T
736.63	0.999	760538	WORD_OFF	n/a	n/a	SHIP	5	5	[0, 0, 0]	n/a	FR1	1	R1420T
737.629	1.601	761539	WORD	n/a	wordpools/wordpool_long_EN.txt	PLAID	6	5	[0, 0, 0]	n/a	FR1	1	R1420T
739.23	0.833	763145	WORD_OFF	n/a	n/a	PLAID	6	5	[0, 0, 0]	n/a	FR1	1	R1420T
740.063	1.6	763974	WORD	n/a	wordpools/wordpool_long_EN.txt	TANK	7	5	[0, 0, 0]	n/a	FR1	1	R1420T
741.663	0.85	765571	WORD_OFF	n/a	n/a	TANK	7	5	[0, 0, 0]	n/a	FR1	1	R1420T
742.513	1.617	766427	WORD	n/a	wordpools/wordpool_long_EN.txt	FILM	8	5	[0, 0, 0]	n/a	FR1	1	R1420T
744.13	0.95	768042	WORD_OFF	n/a	n/a	FILM	8	5	[0, 0, 0]	n/a	FR1	1	R1420T
745.08	1.616	768988	WORD	n/a	wordpools/wordpool_long_EN.txt	HOOF	9	5	[0, 0, 0]	n/a	FR1	1	R1420T
746.696	0.95	770603	WORD_OFF	n/a	n/a	HOOF	9	5	[0, 0, 0]	n/a	FR1	1	R1420T
747.646	1.617	771559	WORD	n/a	wordpools/wordpool_long_EN.txt	BAG	10	5	[0, 0, 0]	n/a	FR1	1	R1420T
749.263	0.8	773173	WORD_OFF	n/a	n/a	BAG	10	5	[0, 0, 0]	n/a	FR1	1	R1420T
750.063	1.6	773976	WORD	n/a	wordpools/wordpool_long_EN.txt	TOY	11	5	[0, 0, 0]	n/a	FR1	1	R1420T
751.663	0.883	775572	WORD_OFF	n/a	n/a	TOY	11	5	[0, 0, 0]	n/a	FR1	1	R1420T
752.546	1.6	776456	WORD	n/a	wordpools/wordpool_long_EN.txt	THREAD	12	5	[0, 0, 0]	n/a	FR1	1	R1420T
754.146	0.001	778052	WORD_OFF	n/a	n/a	THREAD	12	5	[0, 0, 0]	n/a	FR1	1	R1420T
754.147	0.001	778056	PROB	0.001	n/a	n/a	-999	5	[6, 6, 6]	18	FR1	1	R1420T
754.148	0.0	778057	START	n/a	n/a	n/a	-999	5	[-999, -999, -999]	n/a	FR1	1	R1420T
754.148	0.0	778061	ENCODING_END	n/a	n/a	n/a	-999	5	[0, 0, 0]	n/a	FR1	1	R1420T
754.148	4.466	778061	DISTRACT_START	n/a	n/a	n/a	-999	5	[0, 0, 0]	n/a	FR1	1	R1420T
758.614	5.333	782523	PROB	5.333	n/a	n/a	-999	5	[4, 7, 7]	18	FR1	1	R1420T
763.947	10.067	787856	PROB	10.067	n/a	n/a	-999	5	[2, 7, 4]	13	FR1	1	R1420T
774.014	7.05	797922	PROB	7.05	n/a	n/a	-999	5	[3, 6, 6]	15	FR1	1	R1420T
781.064	0.0	804971	DISTRACT_END	n/a	n/a	n/a	-999	5	[0, 0, 0]	n/a	FR1	1	R1420T
781.064	1.016	804972	STOP	n/a	n/a	n/a	-999	5	[-999, -999, -999]	n/a	FR1	1	R1420T
782.08	4.221	805990	REC_START	n/a	n/a	n/a	-999	5	[0, 0, 0]	n/a	FR1	1	R1420T
786.301	2.855	810208	REC_WORD_VV	2.855	n/a	<>	-999	5	[0, 0, 0]	n/a	FR1	1	R1420T
789.156	1.0	813063	REC_WORD_VV	1.0	n/a	<>	-999	5	[0, 0, 0]	n/a	FR1	1	R1420T
790.156	23.201	814063	REC_WORD_VV	23.201	n/a	<>	-999	5	[0, 0, 0]	n/a	FR1	1	R1420T
813.357	1.739	837265	REC_END	n/a	n/a	n/a	-999	5	[0, 0, 0]	n/a	FR1	1	R1420T
815.096	10.351	839006	COUNTDOWN_START	n/a	n/a	n/a	-999	5	[0, 0, 0]	n/a	FR1	1	R1420T
825.447	0.0	849349	COUNTDOWN_END	n/a	n/a	n/a	-999	5	[0, 0, 0]	n/a	FR1	1	R1420T
825.447	2.033	849358	ENCODING_START	n/a	n/a	n/a	-999	6	[0, 0, 0]	n/a	FR1	1	R1420T
827.48	1.617	851388	WORD	n/a	wordpools/wordpool_long_EN.txt	HILL	1	6	[0, 0, 0]	n/a	FR1	1	R1420T
829.097	0.9	853002	WORD_OFF	n/a	n/a	HILL	1	6	[0, 0, 0]	n/a	FR1	1	R1420T
829.997	1.6	853904	WORD	n/a	wordpools/wordpool_long_EN.txt	INK	2	6	[0, 0, 0]	n/a	FR1	1	R1420T
831.597	0.816	855500	WORD_OFF	n/a	n/a	INK	2	6	[0, 0, 0]	n/a	FR1	1	R1420T
832.413	1.6	856320	WORD	n/a	wordpools/wordpool_long_EN.txt	YARD	3	6	[0, 0, 0]	n/a	FR1	1	R1420T
834.013	0.95	857917	WORD_OFF	n/a	n/a	YARD	3	6	[0, 0, 0]	n/a	FR1	1	R1420T
834.963	1.6	858873	WORD	n/a	wordpools/wordpool_long_EN.txt	TOAST	4	6	[0, 0, 0]	n/a	FR1	1	R1420T
836.563	0.767	860469	WORD_OFF	n/a	n/a	TOAST	4	6	[0, 0, 0]	n/a	FR1	1	R1420T
837.33	1.616	861235	WORD	n/a	wordpools/wordpool_long_EN.txt	GLOBE	5	6	[0, 0, 0]	n/a	FR1	1	R1420T
838.946	0.784	862850	WORD_OFF	n/a	n/a	GLOBE	5	6	[0, 0, 0]	n/a	FR1	1	R1420T
839.73	1.616	863634	WORD	n/a	wordpools/wordpool_long_EN.txt	KEY	6	6	[0, 0, 0]	n/a	FR1	1	R1420T
841.346	0.785	865248	WORD_OFF	n/a	n/a	KEY	6	6	[0, 0, 0]	n/a	FR1	1	R1420T
842.131	1.599	866033	WORD	n/a	wordpools/wordpool_long_EN.txt	SOCK	7	6	[0, 0, 0]	n/a	FR1	1	R1420T
843.73	0.833	867638	WORD_OFF	n/a	n/a	SOCK	7	6	[0, 0, 0]	n/a	FR1	1	R1420T
844.563	1.6	868468	WORD	n/a	wordpools/wordpool_long_EN.txt	TREE	8	6	[0, 0, 0]	n/a	FR1	1	R1420T
846.163	0.866	870064	WORD_OFF	n/a	n/a	TREE	8	6	[0, 0, 0]	n/a	FR1	1	R1420T
847.029	1.602	870930	WORD	n/a	wordpools/wordpool_long_EN.txt	TIE	9	6	[0, 0, 0]	n/a	FR1	1	R1420T
848.631	0.932	872535	WORD_OFF	n/a	n/a	TIE	9	6	[0, 0, 0]	n/a	FR1	1	R1420T
849.563	1.616	873464	WORD	n/a	wordpools/wordpool_long_EN.txt	THRONE	10	6	[0, 0, 0]	n/a	FR1	1	R1420T
851.179	1.0	875087	WORD_OFF	n/a	n/a	THRONE	10	6	[0, 0, 0]	n/a	FR1	1	R1420T
852.179	1.6	876079	WORD	n/a	wordpools/wordpool_long_EN.txt	PIN	11	6	[0, 0, 0]	n/a	FR1	1	R1420T
853.779	0.784	877685	WORD_OFF	n/a	n/a	PIN	11	6	[0, 0, 0]	n/a	FR1	1	R1420T
854.563	1.617	878469	WORD	n/a	wordpools/wordpool_long_EN.txt	LOFT	12	6	[0, 0, 0]	n/a	FR1	1	R1420T
856.18	0.001	880083	WORD_OFF	n/a	n/a	LOFT	12	6	[0, 0, 0]	n/a	FR1	1	R1420T
856.181	0.0	880083	ENCODING_END	n/a	n/a	n/a	-999	6	[0, 0, 0]	n/a	FR1	1	R1420T
856.181	0.0	880083	DISTRACT_START	n/a	n/a	n/a	-999	6	[0, 0, 0]	n/a	FR1	1	R1420T
856.18	0.001	880084	PROB	0.001	n/a	n/a	-999	6	[2, 7, 8]	17	FR1	1	R1420T
856.181	4.818	880085	START	n/a	n/a	n/a	-999	6	[-999, -999, -999]	n/a	FR1	1	R1420T
860.999	4.148	884903	PROB	4.148	n/a	n/a	-999	6	[6, 4, 6]	16	FR1	1	R1420T
865.147	3.551	889050	PROB	3.551	n/a	n/a	-999	6	[1, 3, 4]	8	FR1	1	R1420T
868.698	6.449	892601	PROB	6.449	n/a	n/a	-999	6	[8, 1, 7]	16	FR1	1	R1420T
875.147	7.985	899050	PROB	7.985	n/a	n/a	-999	6	[8, 4, 3]	15	FR1	1	R1420T
883.132	0.0	907035	STOP	n/a	n/a	n/a	-999	6	[-999, -999, -999]	n/a	FR1	1	R1420T
883.132	1.365	907039	DISTRACT_END	n/a	n/a	n/a	-999	6	[0, 0, 0]	n/a	FR1	1	R1420T
884.497	4.302	908400	REC_START	n/a	n/a	n/a	-999	6	[0, 0, 0]	n/a	FR1	1	R1420T
888.799	9.732	912701	REC_WORD_VV	9.732	n/a	<>	-999	6	[0, 0, 0]	n/a	FR1	1	R1420T
898.531	1.0	922433	REC_WORD_VV	1.0	n/a	<>	-999	6	[0, 0, 0]	n/a	FR1	1	R1420T
899.531	16.265	923433	REC_WORD_VV	16.265	n/a	<>	-999	6	[0, 0, 0]	n/a	FR1	1	R1420T
915.796	1.884	939694	REC_END	n/a	n/a	n/a	-999	6	[0, 0, 0]	n/a	FR1	1	R1420T
917.68	10.351	941587	COUNTDOWN_START	n/a	n/a	n/a	-999	6	[0, 0, 0]	n/a	FR1	1	R1420T
928.031	0.0	951931	COUNTDOWN_END	n/a	n/a	n/a	-999	6	[0, 0, 0]	n/a	FR1	1	R1420T
928.031	1.983	951931	ENCODING_START	n/a	n/a	n/a	-999	7	[0, 0, 0]	n/a	FR1	1	R1420T
930.014	1.616	953915	WORD	n/a	wordpools/wordpool_long_EN.txt	PLANT	1	7	[0, 0, 0]	n/a	FR1	1	R1420T
931.63	0.8	955529	WORD_OFF	n/a	n/a	PLANT	1	7	[0, 0, 0]	n/a	FR1	1	R1420T
932.43	1.6	956332	WORD	n/a	wordpools/wordpool_long_EN.txt	TART	2	7	[0, 0, 0]	n/a	FR1	1	R1420T
934.03	0.833	957928	WORD_OFF	n/a	n/a	TART	2	7	[0, 0, 0]	n/a	FR1	1	R1420T
934.863	1.6	958767	WORD	n/a	wordpools/wordpool_long_EN.txt	DITCH	3	7	[0, 0, 0]	n/a	FR1	1	R1420T
936.463	0.867	960363	WORD_OFF	n/a	n/a	DITCH	3	7	[0, 0, 0]	n/a	FR1	1	R1420T
937.33	1.6	961229	WORD	n/a	wordpools/wordpool_long_EN.txt	LODGE	4	7	[0, 0, 0]	n/a	FR1	1	R1420T
938.93	0.85	962834	WORD_OFF	n/a	n/a	LODGE	4	7	[0, 0, 0]	n/a	FR1	1	R1420T
939.78	1.6	963682	WORD	n/a	wordpools/wordpool_long_EN.txt	SIGN	5	7	[0, 0, 0]	n/a	FR1	1	R1420T
941.38	0.916	965278	WORD_OFF	n/a	n/a	SIGN	5	7	[0, 0, 0]	n/a	FR1	1	R1420T
942.296	1.601	966198	WORD	n/a	wordpools/wordpool_long_EN.txt	STEAK	6	7	[0, 0, 0]	n/a	FR1	1	R1420T
943.897	0.916	967794	WORD_OFF	n/a	n/a	STEAK	6	7	[0, 0, 0]	n/a	FR1	1	R1420T
944.813	1.601	968714	WORD	n/a	wordpools/wordpool_long_EN.txt	COOK	7	7	[0, 0, 0]	n/a	FR1	1	R1420T
946.414	0.865	970310	WORD_OFF	n/a	n/a	COOK	7	7	[0, 0, 0]	n/a	FR1	1	R1420T
947.279	1.618	971176	WORD	n/a	wordpools/wordpool_long_EN.txt	TRAY	8	7	[0, 0, 0]	n/a	FR1	1	R1420T
948.897	0.85	972799	WORD_OFF	n/a	n/a	TRAY	8	7	[0, 0, 0]	n/a	FR1	1	R1420T
949.747	1.6	973647	WORD	n/a	wordpools/wordpool_long_EN.txt	DOCK	9	7	[0, 0, 0]	n/a	FR1	1	R1420T
951.347	0.982	975243	WORD_OFF	n/a	n/a	DOCK	9	7	[0, 0, 0]	n/a	FR1	1	R1420T
952.329	1.601	976226	WORD	n/a	wordpools/wordpool_long_EN.txt	MARSH	10	7	[0, 0, 0]	n/a	FR1	1	R1420T
953.93	1.0	977831	WORD_OFF	n/a	n/a	MARSH	10	7	[0, 0, 0]	n/a	FR1	1	R1420T
954.93	1.6	978832	WORD	n/a	wordpools/wordpool_long_EN.txt	MUD	11	7	[0, 0, 0]	n/a	FR1	1	R1420T
956.53	0.884	980429	WORD_OFF	n/a	n/a	MUD	11	7	[0, 0, 0]	n/a	FR1	1	R1420T
957.414	1.616	981312	WORD	n/a	wordpools/wordpool_long_EN.txt	SEAT	12	7	[0, 0, 0]	n/a	FR1	1	R1420T
959.03	0.002	982927	WORD_OFF	n/a	n/a	SEAT	12	7	[0, 0, 0]	n/a	FR1	1	R1420T
959.032	0.0	982931	START	n/a	n/a	n/a	-999	7	[-999, -999, -999]	n/a	FR1	1	R1420T
959.032	0.0	982931	PROB	0.0	n/a	n/a	-999	7	[8, 1, 6]	15	FR1	1	R1420T
959.032	0.0	982936	ENCODING_END	n/a	n/a	n/a	-999	7	[0, 0, 0]	n/a	FR1	1	R1420T
959.032	8.382	982936	DISTRACT_START	n/a	n/a	n/a	-999	7	[0, 0, 0]	n/a	FR1	1	R1420T
967.414	3.45	991312	PROB	3.45	n/a	n/a	-999	7	[1, 2, 3]	6	FR1	1	R1420T
970.864	5.25	994762	PROB	5.25	n/a	n/a	-999	7	[5, 6, 5]	16	FR1	1	R1420T
976.114	5.599	1000012	PROB	5.599	n/a	n/a	-999	7	[1, 1, 4]	6	FR1	1	R1420T
981.713	0.0	1005607	DISTRACT_END	n/a	n/a	n/a	-999	7	[0, 0, 0]	n/a	FR1	1	R1420T
981.713	1.284	1005611	STOP	n/a	n/a	n/a	-999	7	[-999, -999, -999]	n/a	FR1	1	R1420T
982.997	2.164	1006897	REC_START	n/a	n/a	n/a	-999	7	[0, 0, 0]	n/a	FR1	1	R1420T
985.161	2.842	1009058	REC_WORD_VV	2.842	n/a	<>	-999	7	[0, 0, 0]	n/a	FR1	1	R1420T
988.003	26.274	1011900	REC_WORD	26.274	n/a	MUD	11	7	[0, 0, 0]	n/a	FR1	1	R1420T
1014.277	1.336	1038172	REC_END	n/a	n/a	n/a	-999	7	[0, 0, 0]	n/a	FR1	1	R1420T
1015.613	10.35	1039516	COUNTDOWN_START	n/a	n/a	n/a	-999	7	[0, 0, 0]	n/a	FR1	1	R1420T
1025.963	0.0	1049860	COUNTDOWN_END	n/a	n/a	n/a	-999	7	[0, 0, 0]	n/a	FR1	1	R1420T
1025.963	2.35	1049860	ENCODING_START	n/a	n/a	n/a	-999	8	[0, 0, 0]	n/a	FR1	1	R1420T
1028.313	1.6	1052204	WORD	n/a	wordpools/wordpool_long_EN.txt	CAT	1	8	[0, 0, 0]	n/a	FR1	1	R1420T
1029.913	0.816	1053810	WORD_OFF	n/a	n/a	CAT	1	8	[0, 0, 0]	n/a	FR1	1	R1420T
1030.729	1.6	1054621	WORD	n/a	wordpools/wordpool_long_EN.txt	DEER	2	8	[0, 0, 0]	n/a	FR1	1	R1420T
1032.329	0.934	1056226	WORD_OFF	n/a	n/a	DEER	2	8	[0, 0, 0]	n/a	FR1	1	R1420T
1033.263	1.6	1057155	WORD	n/a	wordpools/wordpool_long_EN.txt	MOLE	3	8	[0, 0, 0]	n/a	FR1	1	R1420T
1034.863	0.933	1058760	WORD_OFF	n/a	n/a	MOLE	3	8	[0, 0, 0]	n/a	FR1	1	R1420T
1035.796	1.6	1059689	WORD	n/a	wordpools/wordpool_long_EN.txt	GUARD	4	8	[0, 0, 0]	n/a	FR1	1	R1420T
1037.396	0.784	1061295	WORD_OFF	n/a	n/a	GUARD	4	8	[0, 0, 0]	n/a	FR1	1	R1420T
1038.18	1.6	1062079	WORD	n/a	wordpools/wordpool_long_EN.txt	TRIBE	5	8	[0, 0, 0]	n/a	FR1	1	R1420T
1039.78	0.9	1063675	WORD_OFF	n/a	n/a	TRIBE	5	8	[0, 0, 0]	n/a	FR1	1	R1420T
1040.68	1.601	1064577	WORD	n/a	wordpools/wordpool_long_EN.txt	BAR	6	8	[0, 0, 0]	n/a	FR1	1	R1420T
1042.281	0.816	1066173	WORD_OFF	n/a	n/a	BAR	6	8	[0, 0, 0]	n/a	FR1	1	R1420T
1043.097	1.601	1066994	WORD	n/a	wordpools/wordpool_long_EN.txt	MAZE	7	8	[0, 0, 0]	n/a	FR1	1	R1420T
1044.698	0.867	1068599	WORD_OFF	n/a	n/a	MAZE	7	8	[0, 0, 0]	n/a	FR1	1	R1420T
1045.565	1.615	1069456	WORD	n/a	wordpools/wordpool_long_EN.txt	WORLD	8	8	[0, 0, 0]	n/a	FR1	1	R1420T
1047.18	1.0	1071070	WORD_OFF	n/a	n/a	WORLD	8	8	[0, 0, 0]	n/a	FR1	1	R1420T
1048.18	1.616	1072071	WORD	n/a	wordpools/wordpool_long_EN.txt	SUN	9	8	[0, 0, 0]	n/a	FR1	1	R1420T
1049.796	1.001	1073686	WORD_OFF	n/a	n/a	SUN	9	8	[0, 0, 0]	n/a	FR1	1	R1420T
1050.797	1.6	1074696	WORD	n/a	wordpools/wordpool_long_EN.txt	CAVE	10	8	[0, 0, 0]	n/a	FR1	1	R1420T
1052.397	0.949	1076292	WORD_OFF	n/a	n/a	CAVE	10	8	[0, 0, 0]	n/a	FR1	1	R1420T
1053.346	1.6	1077239	WORD	n/a	wordpools/wordpool_long_EN.txt	RUST	11	8	[0, 0, 0]	n/a	FR1	1	R1420T
1054.946	0.917	1078844	WORD_OFF	n/a	n/a	RUST	11	8	[0, 0, 0]	n/a	FR1	1	R1420T
1055.863	1.602	1079755	WORD	n/a	wordpools/wordpool_long_EN.txt	BLOOM	12	8	[0, 0, 0]	n/a	FR1	1	R1420T
1057.465	0.0	1081359	START	n/a	n/a	n/a	-999	8	[-999, -999, -999]	n/a	FR1	1	R1420T
1057.465	0.0	1081359	PROB	0.0	n/a	n/a	-999	8	[4, 4, 3]	11	FR1	1	R1420T
1057.464	0.001	1081360	WORD_OFF	n/a	n/a	BLOOM	12	8	[0, 0, 0]	n/a	FR1	1	R1420T
1057.465	0.0	1081360	ENCODING_END	n/a	n/a	n/a	-999	8	[0, 0, 0]	n/a	FR1	1	R1420T
1057.465	4.433	1081360	DISTRACT_START	n/a	n/a	n/a	-999	8	[0, 0, 0]	n/a	FR1	1	R1420T
1061.898	6.166	1085791	PROB	6.166	n/a	n/a	-999	8	[8, 4, 6]	18	FR1	1	R1420T
1068.064	5.749	1091957	PROB	5.749	n/a	n/a	-999	8	[4, 4, 6]	14	FR1	1	R1420T
1073.813	8.484	1097706	PROB	8.484	n/a	n/a	-999	8	[7, 3, 6]	16	FR1	1	R1420T
1082.297	0.0	1106187	DISTRACT_END	n/a	n/a	n/a	-999	8	[0, 0, 0]	n/a	FR1	1	R1420T
1082.297	1.399	1106189	STOP	n/a	n/a	n/a	-999	8	[-999, -999, -999]	n/a	FR1	1	R1420T
1083.696	4.181	1107585	REC_START	n/a	n/a	n/a	-999	8	[0, 0, 0]	n/a	FR1	1	R1420T
1087.877	27.089	1111769	REC_WORD_VV	27.089	n/a	<>	-999	8	[0, 0, 0]	n/a	FR1	1	R1420T
1114.966	2.23	1138860	REC_END	n/a	n/a	n/a	-999	8	[0, 0, 0]	n/a	FR1	1	R1420T
1117.196	10.351	1141087	COUNTDOWN_START	n/a	n/a	n/a	-999	8	[0, 0, 0]	n/a	FR1	1	R1420T
1127.547	0.0	1151440	COUNTDOWN_END	n/a	n/a	n/a	-999	8	[0, 0, 0]	n/a	FR1	1	R1420T
1127.547	2.233	1151440	ENCODING_START	n/a	n/a	n/a	-999	9	[0, 0, 0]	n/a	FR1	1	R1420T
1129.78	1.6	1153668	WORD	n/a	wordpools/wordpool_long_EN.txt	EGG	1	9	[0, 0, 0]	n/a	FR1	1	R1420T
1131.38	0.833	1155273	WORD_OFF	n/a	n/a	EGG	1	9	[0, 0, 0]	n/a	FR1	1	R1420T
1132.213	1.617	1156103	WORD	n/a	wordpools/wordpool_long_EN.txt	OX	2	9	[0, 0, 0]	n/a	FR1	1	R1420T
1133.83	0.867	1157717	WORD_OFF	n/a	n/a	OX	2	9	[0, 0, 0]	n/a	FR1	1	R1420T
1134.697	1.6	1158583	WORD	n/a	wordpools/wordpool_long_EN.txt	SPRING	3	9	[0, 0, 0]	n/a	FR1	1	R1420T
1136.297	0.883	1160188	WORD_OFF	n/a	n/a	SPRING	3	9	[0, 0, 0]	n/a	FR1	1	R1420T
1137.18	1.6	1161072	WORD	n/a	wordpools/wordpool_long_EN.txt	TOAD	4	9	[0, 0, 0]	n/a	FR1	1	R1420T
1138.78	1.0	1162668	WORD_OFF	n/a	n/a	TOAD	4	9	[0, 0, 0]	n/a	FR1	1	R1420T
1139.78	1.6	1163669	WORD	n/a	wordpools/wordpool_long_EN.txt	STRING	5	9	[0, 0, 0]	n/a	FR1	1	R1420T
1141.38	0.917	1165274	WORD_OFF	n/a	n/a	STRING	5	9	[0, 0, 0]	n/a	FR1	1	R1420T
1142.297	1.616	1166185	WORD	n/a	wordpools/wordpool_long_EN.txt	SEED	6	9	[0, 0, 0]	n/a	FR1	1	R1420T
1143.913	0.833	1167799	WORD_OFF	n/a	n/a	SEED	6	9	[0, 0, 0]	n/a	FR1	1	R1420T
1144.746	1.601	1168638	WORD	n/a	wordpools/wordpool_long_EN.txt	WAND	7	9	[0, 0, 0]	n/a	FR1	1	R1420T
1146.347	0.933	1170234	WORD_OFF	n/a	n/a	WAND	7	9	[0, 0, 0]	n/a	FR1	1	R1420T
1147.28	1.6	1171172	WORD	n/a	wordpools/wordpool_long_EN.txt	TAIL	8	9	[0, 0, 0]	n/a	FR1	1	R1420T
1148.88	0.917	1172768	WORD_OFF	n/a	n/a	TAIL	8	9	[0, 0, 0]	n/a	FR1	1	R1420T
1149.797	1.616	1173688	WORD	n/a	wordpools/wordpool_long_EN.txt	SHIELD	9	9	[0, 0, 0]	n/a	FR1	1	R1420T
1151.413	0.8	1175302	WORD_OFF	n/a	n/a	SHIELD	9	9	[0, 0, 0]	n/a	FR1	1	R1420T
1152.213	1.6	1176105	WORD	n/a	wordpools/wordpool_long_EN.txt	NAIL	10	9	[0, 0, 0]	n/a	FR1	1	R1420T
1153.813	0.9	1177701	WORD_OFF	n/a	n/a	NAIL	10	9	[0, 0, 0]	n/a	FR1	1	R1420T
1154.713	1.617	1178603	WORD	n/a	wordpools/wordpool_long_EN.txt	LACE	11	9	[0, 0, 0]	n/a	FR1	1	R1420T
1156.33	0.817	1180217	WORD_OFF	n/a	n/a	LACE	11	9	[0, 0, 0]	n/a	FR1	1	R1420T
1157.147	1.6	1181038	WORD	n/a	wordpools/wordpool_long_EN.txt	GOLD	12	9	[0, 0, 0]	n/a	FR1	1	R1420T
1158.747	0.001	1182634	WORD_OFF	n/a	n/a	GOLD	12	9	[0, 0, 0]	n/a	FR1	1	R1420T
1158.748	0.0	1182634	ENCODING_END	n/a	n/a	n/a	-999	9	[0, 0, 0]	n/a	FR1	1	R1420T
1158.748	0.0	1182636	PROB	0.0	n/a	n/a	-999	9	[8, 4, 5]	16	FR1	1	R1420T
1158.748	0.0	1182636	START	n/a	n/a	n/a	-999	9	[-999, -999, -999]	n/a	FR1	1	R1420T
1158.748	9.416	1182643	DISTRACT_START	n/a	n/a	n/a	-999	9	[0, 0, 0]	n/a	FR1	1	R1420T
1168.164	4.016	1192052	PROB	4.016	n/a	n/a	-999	9	[4, 4, 4]	12	FR1	1	R1420T
1172.18	15.983	1196068	PROB	15.983	n/a	n/a	-999	9	[5, 1, 8]	14	FR1	1	R1420T
1188.163	0.0	1212050	STOP	n/a	n/a	n/a	-999	9	[-999, -999, -999]	n/a	FR1	1	R1420T
1188.163	1.017	1212051	DISTRACT_END	n/a	n/a	n/a	-999	9	[0, 0, 0]	n/a	FR1	1	R1420T
1189.18	3.5	1213070	REC_START	n/a	n/a	n/a	-999	9	[0, 0, 0]	n/a	FR1	1	R1420T
1192.68	0.437	1216567	REC_WORD_VV	0.437	n/a	<>	-999	9	[0, 0, 0]	n/a	FR1	1	R1420T
1193.117	1.0	1217004	REC_WORD	1.0	n/a	OX	2	9	[0, 0, 0]	n/a	FR1	1	R1420T
1194.117	1.678	1218004	REC_WORD_VV	1.678	n/a	<>	-999	9	[0, 0, 0]	n/a	FR1	1	R1420T
1195.795	2.768	1219682	REC_WORD_VV	2.768	n/a	<>	-999	9	[0, 0, 0]	n/a	FR1	1	R1420T
1198.563	21.84	1222449	REC_WORD	21.84	n/a	GUARD	-999	9	[0, 0, 0]	n/a	FR1	1	R1420T
1220.403	1.793	1244291	REC_END	n/a	n/a	n/a	-999	9	[0, 0, 0]	n/a	FR1	1	R1420T
1222.196	10.351	1246086	COUNTDOWN_START	n/a	n/a	n/a	-999	9	[0, 0, 0]	n/a	FR1	1	R1420T
1232.547	0.001	1256430	COUNTDOWN_END	n/a	n/a	n/a	-999	9	[0, 0, 0]	n/a	FR1	1	R1420T
1232.548	1.932	1256439	ENCODING_START	n/a	n/a	n/a	-999	10	[0, 0, 0]	n/a	FR1	1	R1420T
1234.48	1.617	1258369	WORD	n/a	wordpools/wordpool_long_EN.txt	RAT	1	10	[0, 0, 0]	n/a	FR1	1	R1420T
1236.097	0.917	1259983	WORD_OFF	n/a	n/a	RAT	1	10	[0, 0, 0]	n/a	FR1	1	R1420T
1237.014	1.6	1260903	WORD	n/a	wordpools/wordpool_long_EN.txt	SWORD	2	10	[0, 0, 0]	n/a	FR1	1	R1420T
1238.614	1.0	1262499	WORD_OFF	n/a	n/a	SWORD	2	10	[0, 0, 0]	n/a	FR1	1	R1420T
1239.614	1.599	1263500	WORD	n/a	wordpools/wordpool_long_EN.txt	BENCH	3	10	[0, 0, 0]	n/a	FR1	1	R1420T
1241.213	0.951	1265096	WORD_OFF	n/a	n/a	BENCH	3	10	[0, 0, 0]	n/a	FR1	1	R1420T
1242.164	1.6	1266052	WORD	n/a	wordpools/wordpool_long_EN.txt	FLEA	4	10	[0, 0, 0]	n/a	FR1	1	R1420T
1243.764	0.983	1267648	WORD_OFF	n/a	n/a	FLEA	4	10	[0, 0, 0]	n/a	FR1	1	R1420T
1244.747	1.617	1268631	WORD	n/a	wordpools/wordpool_long_EN.txt	SQUARE	5	10	[0, 0, 0]	n/a	FR1	1	R1420T
1246.364	0.866	1270246	WORD_OFF	n/a	n/a	SQUARE	5	10	[0, 0, 0]	n/a	FR1	1	R1420T
1247.23	1.617	1271111	WORD	n/a	wordpools/wordpool_long_EN.txt	FORT	6	10	[0, 0, 0]	n/a	FR1	1	R1420T
1248.847	0.767	1272735	WORD_OFF	n/a	n/a	FORT	6	10	[0, 0, 0]	n/a	FR1	1	R1420T
1249.614	1.616	1273501	WORD	n/a	wordpools/wordpool_long_EN.txt	MEAT	7	10	[0, 0, 0]	n/a	FR1	1	R1420T
1251.23	0.8	1275116	WORD_OFF	n/a	n/a	MEAT	7	10	[0, 0, 0]	n/a	FR1	1	R1420T
1252.03	1.618	1275918	WORD	n/a	wordpools/wordpool_long_EN.txt	MOON	8	10	[0, 0, 0]	n/a	FR1	1	R1420T
1253.648	0.899	1277532	WORD_OFF	n/a	n/a	MOON	8	10	[0, 0, 0]	n/a	FR1	1	R1420T
1254.547	1.601	1278434	WORD	n/a	wordpools/wordpool_long_EN.txt	BOX	9	10	[0, 0, 0]	n/a	FR1	1	R1420T
1256.148	0.982	1280030	WORD_OFF	n/a	n/a	BOX	9	10	[0, 0, 0]	n/a	FR1	1	R1420T
1257.13	1.6	1281013	WORD	n/a	wordpools/wordpool_long_EN.txt	POLE	10	10	[0, 0, 0]	n/a	FR1	1	R1420T
1258.73	0.95	1282617	WORD_OFF	n/a	n/a	POLE	10	10	[0, 0, 0]	n/a	FR1	1	R1420T
1259.68	1.6	1283566	WORD	n/a	wordpools/wordpool_long_EN.txt	COIN	11	10	[0, 0, 0]	n/a	FR1	1	R1420T
1261.28	0.934	1285162	WORD_OFF	n/a	n/a	COIN	11	10	[0, 0, 0]	n/a	FR1	1	R1420T
1262.214	1.6	1286100	WORD	n/a	wordpools/wordpool_long_EN.txt	FROG	12	10	[0, 0, 0]	n/a	FR1	1	R1420T
1263.814	0.001	1287696	WORD_OFF	n/a	n/a	FROG	12	10	[0, 0, 0]	n/a	FR1	1	R1420T
1263.815	0.0	1287696	ENCODING_END	n/a	n/a	n/a	-999	10	[0, 0, 0]	n/a	FR1	1	R1420T
1263.815	0.0	1287696	DISTRACT_START	n/a	n/a	n/a	-999	10	[0, 0, 0]	n/a	FR1	1	R1420T
1263.814	0.001	1287697	PROB	0.001	n/a	n/a	-999	10	[3, 2, 8]	13	FR1	1	R1420T
1263.815	7.965	1287698	START	n/a	n/a	n/a	-999	10	[-999, -999, -999]	n/a	FR1	1	R1420T
1271.78	5.102	1295663	PROB	5.102	n/a	n/a	-999	10	[8, 8, 3]	19	FR1	1	R1420T
1276.882	8.281	1300764	PROB	8.281	n/a	n/a	-999	10	[4, 8, 8]	20	FR1	1	R1420T
1285.163	0.0	1309042	DISTRACT_END	n/a	n/a	n/a	-999	10	[0, 0, 0]	n/a	FR1	1	R1420T
1285.163	1.25	1309045	STOP	n/a	n/a	n/a	-999	10	[-999, -999, -999]	n/a	FR1	1	R1420T
1286.413	3.138	1310295	REC_START	n/a	n/a	n/a	-999	10	[0, 0, 0]	n/a	FR1	1	R1420T
1289.551	1.633	1313433	REC_WORD	1.633	n/a	SWORD	2	10	[0, 0, 0]	n/a	FR1	1	R1420T
1291.184	26.447	1315066	REC_WORD	26.447	n/a	CAT	-999	10	[0, 0, 0]	n/a	FR1	1	R1420T
1317.631	1.832	1341507	REC_END	n/a	n/a	n/a	-999	10	[0, 0, 0]	n/a	FR1	1	R1420T
1319.463	10.35	1343347	COUNTDOWN_START	n/a	n/a	n/a	-999	10	[0, 0, 0]	n/a	FR1	1	R1420T
1329.813	0.001	1353691	COUNTDOWN_END	n/a	n/a	n/a	-999	10	[0, 0, 0]	n/a	FR1	1	R1420T
1329.814	1.966	1353691	ENCODING_START	n/a	n/a	n/a	-999	11	[0, 0, 0]	n/a	FR1	1	R1420T
1331.78	1.6	1355657	WORD	n/a	wordpools/wordpool_long_EN.txt	LINT	1	11	[0, 0, 0]	n/a	FR1	1	R1420T
1333.38	0.867	1357262	WORD_OFF	n/a	n/a	LINT	1	11	[0, 0, 0]	n/a	FR1	1	R1420T
1334.247	1.6	1358128	WORD	n/a	wordpools/wordpool_long_EN.txt	SPHINX	2	11	[0, 0, 0]	n/a	FR1	1	R1420T
1335.847	0.967	1359724	WORD_OFF	n/a	n/a	SPHINX	2	11	[0, 0, 0]	n/a	FR1	1	R1420T
1336.814	1.616	1360698	WORD	n/a	wordpools/wordpool_long_EN.txt	POOL	3	11	[0, 0, 0]	n/a	FR1	1	R1420T
1338.43	0.767	1362312	WORD_OFF	n/a	n/a	POOL	3	11	[0, 0, 0]	n/a	FR1	1	R1420T
1339.197	1.616	1363079	WORD	n/a	wordpools/wordpool_long_EN.txt	SMOG	4	11	[0, 0, 0]	n/a	FR1	1	R1420T
1340.813	0.851	1364693	WORD_OFF	n/a	n/a	SMOG	4	11	[0, 0, 0]	n/a	FR1	1	R1420T
1341.664	1.616	1365541	WORD	n/a	wordpools/wordpool_long_EN.txt	WASP	5	11	[0, 0, 0]	n/a	FR1	1	R1420T
1343.28	0.817	1367155	WORD_OFF	n/a	n/a	WASP	5	11	[0, 0, 0]	n/a	FR1	1	R1420T
1344.097	1.6	1367976	WORD	n/a	wordpools/wordpool_long_EN.txt	WING	6	11	[0, 0, 0]	n/a	FR1	1	R1420T
1345.697	0.783	1369572	WORD_OFF	n/a	n/a	WING	6	11	[0, 0, 0]	n/a	FR1	1	R1420T
1346.48	1.6	1370357	WORD	n/a	wordpools/wordpool_long_EN.txt	SNAIL	7	11	[0, 0, 0]	n/a	FR1	1	R1420T
1348.08	0.784	1371971	WORD_OFF	n/a	n/a	SNAIL	7	11	[0, 0, 0]	n/a	FR1	1	R1420T
1348.864	1.616	1372746	WORD	n/a	wordpools/wordpool_long_EN.txt	CHIN	8	11	[0, 0, 0]	n/a	FR1	1	R1420T
1350.48	0.85	1374361	WORD_OFF	n/a	n/a	CHIN	8	11	[0, 0, 0]	n/a	FR1	1	R1420T
1351.33	1.6	1375208	WORD	n/a	wordpools/wordpool_long_EN.txt	PIT	9	11	[0, 0, 0]	n/a	FR1	1	R1420T
1352.93	0.917	1376806	WORD_OFF	n/a	n/a	PIT	9	11	[0, 0, 0]	n/a	FR1	1	R1420T
1353.847	1.6	1377724	WORD	n/a	wordpools/wordpool_long_EN.txt	BEAK	10	11	[0, 0, 0]	n/a	FR1	1	R1420T
1355.447	0.782	1379330	WORD_OFF	n/a	n/a	BEAK	10	11	[0, 0, 0]	n/a	FR1	1	R1420T
1356.229	1.601	1380105	WORD	n/a	wordpools/wordpool_long_EN.txt	WOOD	11	11	[0, 0, 0]	n/a	FR1	1	R1420T
1357.83	0.784	1381710	WORD_OFF	n/a	n/a	WOOD	11	11	[0, 0, 0]	n/a	FR1	1	R1420T
1358.614	1.616	1382495	WORD	n/a	wordpools/wordpool_long_EN.txt	FACE	12	11	[0, 0, 0]	n/a	FR1	1	R1420T
1360.23	0.002	1384109	WORD_OFF	n/a	n/a	FACE	12	11	[0, 0, 0]	n/a	FR1	1	R1420T
1360.232	0.0	1384109	ENCODING_END	n/a	n/a	n/a	-999	11	[0, 0, 0]	n/a	FR1	1	R1420T
1360.232	0.0	1384109	DISTRACT_START	n/a	n/a	n/a	-999	11	[0, 0, 0]	n/a	FR1	1	R1420T
1360.231	0.001	1384109	PROB	0.001	n/a	n/a	-999	11	[6, 4, 1]	11	FR1	1	R1420T
1360.232	3.315	1384110	START	n/a	n/a	n/a	-999	11	[-999, -999, -999]	n/a	FR1	1	R1420T
1363.547	7.499	1387425	PROB	7.499	n/a	n/a	-999	11	[8, 6, 8]	22	FR1	1	R1420T
1371.046	8.467	1394924	PROB	8.467	n/a	n/a	-999	11	[7, 1, 3]	12	FR1	1	R1420T
1379.513	6.683	1403390	PROB	6.683	n/a	n/a	-999	11	[4, 8, 7]	19	FR1	1	R1420T
1386.196	0.0	1410073	DISTRACT_END	n/a	n/a	n/a	-999	11	[0, 0, 0]	n/a	FR1	1	R1420T
1386.196	1.217	1410073	STOP	n/a	n/a	n/a	-999	11	[-999, -999, -999]	n/a	FR1	1	R1420T
1387.413	4.499	1411290	REC_START	n/a	n/a	n/a	-999	11	[0, 0, 0]	n/a	FR1	1	R1420T
1391.912	26.755	1415789	REC_WORD	26.755	n/a	WING	6	11	[0, 0, 0]	n/a	FR1	1	R1420T
1418.667	1.48	1442547	REC_END	n/a	n/a	n/a	-999	11	[0, 0, 0]	n/a	FR1	1	R1420T
1420.147	10.35	1444026	COUNTDOWN_START	n/a	n/a	n/a	-999	11	[0, 0, 0]	n/a	FR1	1	R1420T
1430.497	0.001	1454370	COUNTDOWN_END	n/a	n/a	n/a	-999	11	[0, 0, 0]	n/a	FR1	1	R1420T
1430.498	1.982	1454379	ENCODING_START	n/a	n/a	n/a	-999	12	[0, 0, 0]	n/a	FR1	1	R1420T
1432.48	1.601	1456354	WORD	n/a	wordpools/wordpool_long_EN.txt	BOOT	1	12	[0, 0, 0]	n/a	FR1	1	R1420T
1434.081	0.933	1457959	WORD_OFF	n/a	n/a	BOOT	1	12	[0, 0, 0]	n/a	FR1	1	R1420T
1435.014	1.6	1458888	WORD	n/a	wordpools/wordpool_long_EN.txt	JUDGE	2	12	[0, 0, 0]	n/a	FR1	1	R1420T
1436.614	0.916	1460484	WORD_OFF	n/a	n/a	JUDGE	2	12	[0, 0, 0]	n/a	FR1	1	R1420T
1437.53	1.6	1461404	WORD	n/a	wordpools/wordpool_long_EN.txt	SEAL	3	12	[0, 0, 0]	n/a	FR1	1	R1420T
1439.13	0.767	1463007	WORD_OFF	n/a	n/a	SEAL	3	12	[0, 0, 0]	n/a	FR1	1	R1420T
1439.897	1.616	1463776	WORD	n/a	wordpools/wordpool_long_EN.txt	POND	4	12	[0, 0, 0]	n/a	FR1	1	R1420T
1441.513	0.934	1465390	WORD_OFF	n/a	n/a	POND	4	12	[0, 0, 0]	n/a	FR1	1	R1420T
1442.447	1.6	1466319	WORD	n/a	wordpools/wordpool_long_EN.txt	BEAST	5	12	[0, 0, 0]	n/a	FR1	1	R1420T
1444.047	0.85	1467924	WORD_OFF	n/a	n/a	BEAST	5	12	[0, 0, 0]	n/a	FR1	1	R1420T
1444.897	1.6	1468772	WORD	n/a	wordpools/wordpool_long_EN.txt	GLOVE	6	12	[0, 0, 0]	n/a	FR1	1	R1420T
1446.497	0.867	1470368	WORD_OFF	n/a	n/a	GLOVE	6	12	[0, 0, 0]	n/a	FR1	1	R1420T
1447.364	1.599	1471234	WORD	n/a	wordpools/wordpool_long_EN.txt	CUBE	7	12	[0, 0, 0]	n/a	FR1	1	R1420T
1448.963	0.967	1472839	WORD_OFF	n/a	n/a	CUBE	7	12	[0, 0, 0]	n/a	FR1	1	R1420T
1449.93	1.6	1473804	WORD	n/a	wordpools/wordpool_long_EN.txt	PIPE	8	12	[0, 0, 0]	n/a	FR1	1	R1420T
1451.53	0.884	1475400	WORD_OFF	n/a	n/a	PIPE	8	12	[0, 0, 0]	n/a	FR1	1	R1420T
1452.414	1.616	1476284	WORD	n/a	wordpools/wordpool_long_EN.txt	FUR	9	12	[0, 0, 0]	n/a	FR1	1	R1420T
1454.03	0.884	1477907	WORD_OFF	n/a	n/a	FUR	9	12	[0, 0, 0]	n/a	FR1	1	R1420T
1454.914	1.6	1478791	WORD	n/a	wordpools/wordpool_long_EN.txt	MOP	10	12	[0, 0, 0]	n/a	FR1	1	R1420T
1456.514	0.949	1480387	WORD_OFF	n/a	n/a	MOP	10	12	[0, 0, 0]	n/a	FR1	1	R1420T
1457.463	1.6	1481334	WORD	n/a	wordpools/wordpool_long_EN.txt	BROOK	11	12	[0, 0, 0]	n/a	FR1	1	R1420T
1459.063	0.767	1482939	WORD_OFF	n/a	n/a	BROOK	11	12	[0, 0, 0]	n/a	FR1	1	R1420T
1459.83	1.616	1483706	WORD	n/a	wordpools/wordpool_long_EN.txt	SNAKE	12	12	[0, 0, 0]	n/a	FR1	1	R1420T
1461.446	0.002	1485320	WORD_OFF	n/a	n/a	SNAKE	12	12	[0, 0, 0]	n/a	FR1	1	R1420T
1461.448	0.0	1485320	ENCODING_END	n/a	n/a	n/a	-999	12	[0, 0, 0]	n/a	FR1	1	R1420T
1461.448	0.0	1485320	DISTRACT_START	n/a	n/a	n/a	-999	12	[0, 0, 0]	n/a	FR1	1	R1420T
1461.447	0.001	1485320	PROB	0.001	n/a	n/a	-999	12	[3, 5, 8]	16	FR1	1	R1420T
1461.448	8.334	1485321	START	n/a	n/a	n/a	-999	12	[-999, -999, -999]	n/a	FR1	1	R1420T
1469.782	10.315	1493655	PROB	10.315	n/a	n/a	-999	12	[8, 1, 7]	16	FR1	1	R1420T
1480.097	7.366	1503969	PROB	7.366	n/a	n/a	-999	12	[7, 8, 5]	20	FR1	1	R1420T
1487.463	0.0	1511335	STOP	n/a	n/a	n/a	-999	12	[-999, -999, -999]	n/a	FR1	1	R1420T
1487.463	1.283	1511338	DISTRACT_END	n/a	n/a	n/a	-999	12	[0, 0, 0]	n/a	FR1	1	R1420T
1488.746	3.025	1512618	REC_START	n/a	n/a	n/a	-999	12	[0, 0, 0]	n/a	FR1	1	R1420T
1491.771	0.252	1515643	REC_WORD_VV	0.252	n/a	<>	-999	12	[0, 0, 0]	n/a	FR1	1	R1420T
1492.023	6.692	1515895	REC_WORD	6.692	n/a	BEAST	5	12	[0, 0, 0]	n/a	FR1	1	R1420T
1498.715	21.285	1522586	REC_WORD	21.285	n/a	JUDGE	2	12	[0, 0, 0]	n/a	FR1	1	R1420T
1520.0	0.0	1543875	REC_END	n/a	n/a	n/a	-999	12	[0, 0, 0]	n/a	FR1	1	R1420T
