onset	duration	sample	trial_type	response_time	stim_file	item_name	serialpos	list	test	answer	experiment	session	subject
0.0	161.848	2837	INSTRUCT_START	n/a	n/a	n/a	-999	-999	[0, 0, 0]	n/a	FR1	0	R1379E
161.848	69.2	164671	INSTRUCT_END	n/a	n/a	n/a	-999	-999	[0, 0, 0]	n/a	FR1	0	R1379E
231.048	10.35	233877	COUNTDOWN_START	n/a	n/a	n/a	-999	-999	[0, 0, 0]	n/a	FR1	0	R1379E
241.398	0.001	244223	COUNTDOWN_END	n/a	n/a	n/a	-999	-999	[0, 0, 0]	n/a	FR1	0	R1379E
241.399	2.199	244223	ENCODING_START	n/a	n/a	n/a	-999	-1	[0, 0, 0]	n/a	FR1	0	R1379E
243.598	1.616	246421	WORD	n/a	n/a	CAMEL	1	-1	[0, 0, 0]	n/a	FR1	0	R1379E
245.214	0.817	248042	WORD_OFF	n/a	n/a	CAMEL	1	-1	[0, 0, 0]	n/a	FR1	0	R1379E
246.031	1.617	248853	WORD	n/a	n/a	TONGUE	2	-1	[0, 0, 0]	n/a	FR1	0	R1379E
247.648	0.999	250474	WORD_OFF	n/a	n/a	TONGUE	2	-1	[0, 0, 0]	n/a	FR1	0	R1379E
248.647	1.602	251466	WORD	n/a	n/a	BEAM	3	-1	[0, 0, 0]	n/a	FR1	0	R1379E
250.249	0.782	253077	WORD_OFF	n/a	n/a	BEAM	3	-1	[0, 0, 0]	n/a	FR1	0	R1379E
251.031	1.6	253855	WORD	n/a	n/a	COTTON	4	-1	[0, 0, 0]	n/a	FR1	0	R1379E
252.631	0.817	255455	WORD_OFF	n/a	n/a	COTTON	4	-1	[0, 0, 0]	n/a	FR1	0	R1379E
253.448	1.616	256266	WORD	n/a	n/a	RING	5	-1	[0, 0, 0]	n/a	FR1	0	R1379E
255.064	0.95	257887	WORD_OFF	n/a	n/a	RING	5	-1	[0, 0, 0]	n/a	FR1	0	R1379E
256.014	1.6	258837	WORD	n/a	n/a	IMAGE	6	-1	[0, 0, 0]	n/a	FR1	0	R1379E
257.614	0.967	260437	WORD_OFF	n/a	n/a	IMAGE	6	-1	[0, 0, 0]	n/a	FR1	0	R1379E
258.581	1.616	261407	WORD	n/a	n/a	WAGON	7	-1	[0, 0, 0]	n/a	FR1	0	R1379E
260.197	0.817	263018	WORD_OFF	n/a	n/a	WAGON	7	-1	[0, 0, 0]	n/a	FR1	0	R1379E
261.014	1.617	263839	WORD	n/a	n/a	WATCH	8	-1	[0, 0, 0]	n/a	FR1	0	R1379E
262.631	0.883	265450	WORD_OFF	n/a	n/a	WATCH	8	-1	[0, 0, 0]	n/a	FR1	0	R1379E
263.514	1.6	266335	WORD	n/a	n/a	FLOOD	9	-1	[0, 0, 0]	n/a	FR1	0	R1379E
265.114	0.783	267935	WORD_OFF	n/a	n/a	FLOOD	9	-1	[0, 0, 0]	n/a	FR1	0	R1379E
265.897	1.6	268725	WORD	n/a	n/a	CHEST	10	-1	[0, 0, 0]	n/a	FR1	0	R1379E
267.497	0.883	270314	WORD_OFF	n/a	n/a	CHEST	10	-1	[0, 0, 0]	n/a	FR1	0	R1379E
268.38	1.617	271199	WORD	n/a	n/a	RHINO	11	-1	[0, 0, 0]	n/a	FR1	0	R1379E
269.997	0.983	272821	WORD_OFF	n/a	n/a	RHINO	11	-1	[0, 0, 0]	n/a	FR1	0	R1379E
270.98	1.6	273802	WORD	n/a	n/a	BABY	12	-1	[0, 0, 0]	n/a	FR1	0	R1379E
272.58	0.002	275402	WORD_OFF	n/a	n/a	BABY	12	-1	[0, 0, 0]	n/a	FR1	0	R1379E
272.582	0.0	275402	ENCODING_END	n/a	n/a	n/a	-999	-1	[0, 0, 0]	n/a	FR1	0	R1379E
272.581	0.002	275402	PROB	0.002	n/a	n/a	-999	-1	[4, 7, 1]	12	FR1	0	R1379E
272.583	0.0	275404	START	n/a	n/a	n/a	-999	-1	[-999, -999, -999]	n/a	FR1	0	R1379E
272.583	6.798	275413	DISTRACT_START	n/a	n/a	n/a	-999	-1	[0, 0, 0]	n/a	FR1	0	R1379E
279.381	4.067	282202	PROB	4.067	n/a	n/a	-999	-1	[5, 5, 5]	15	FR1	0	R1379E
283.448	4.266	286269	PROB	4.266	n/a	n/a	-999	-1	[1, 5, 8]	14	FR1	0	R1379E
287.714	3.935	290535	PROB	3.935	n/a	n/a	-999	-1	[7, 4, 5]	14	FR1	0	R1379E
291.649	4.449	294469	PROB	4.449	n/a	n/a	-999	-1	[2, 5, 4]	11	FR1	0	R1379E
296.098	0.0	298918	STOP	n/a	n/a	n/a	-999	-1	[-999, -999, -999]	n/a	FR1	0	R1379E
296.098	1.567	298922	DISTRACT_END	n/a	n/a	n/a	-999	-1	[0, 0, 0]	n/a	FR1	0	R1379E
297.665	29.999	300489	REC_START	n/a	n/a	n/a	-999	-1	[0, 0, 0]	n/a	FR1	0	R1379E
327.664	0.285	330483	REC_WORD_VV	0.285	n/a	<>	-999	-1	[0, 0, 0]	n/a	FR1	0	R1379E
327.949	61.515	330771	REC_END	n/a	n/a	n/a	-999	-1	[0, 0, 0]	n/a	FR1	0	R1379E
389.464	10.351	392287	COUNTDOWN_START	n/a	n/a	n/a	-999	1	[0, 0, 0]	n/a	FR1	0	R1379E
399.815	0.0	402634	COUNTDOWN_END	n/a	n/a	n/a	-999	1	[0, 0, 0]	n/a	FR1	0	R1379E
399.815	1.965	402634	ENCODING_START	n/a	n/a	n/a	-999	1	[0, 0, 0]	n/a	FR1	0	R1379E
401.78	1.601	404597	WORD	n/a	n/a	MUG	1	1	[0, 0, 0]	n/a	FR1	0	R1379E
403.381	0.833	406197	WORD_OFF	n/a	n/a	MUG	1	1	[0, 0, 0]	n/a	FR1	0	R1379E
404.214	1.6	407029	WORD	n/a	n/a	HAIR	2	1	[0, 0, 0]	n/a	FR1	0	R1379E
405.814	0.767	408629	WORD_OFF	n/a	n/a	HAIR	2	1	[0, 0, 0]	n/a	FR1	0	R1379E
406.581	1.6	409397	WORD	n/a	n/a	GOWN	3	1	[0, 0, 0]	n/a	FR1	0	R1379E
408.181	0.9	410997	WORD_OFF	n/a	n/a	GOWN	3	1	[0, 0, 0]	n/a	FR1	0	R1379E
409.081	1.617	411903	WORD	n/a	n/a	RICE	4	1	[0, 0, 0]	n/a	FR1	0	R1379E
410.698	0.966	413514	WORD_OFF	n/a	n/a	RICE	4	1	[0, 0, 0]	n/a	FR1	0	R1379E
411.664	1.617	414485	WORD	n/a	n/a	CORD	5	1	[0, 0, 0]	n/a	FR1	0	R1379E
413.281	0.767	416095	WORD_OFF	n/a	n/a	CORD	5	1	[0, 0, 0]	n/a	FR1	0	R1379E
414.048	1.6	416863	WORD	n/a	n/a	EEL	6	1	[0, 0, 0]	n/a	FR1	0	R1379E
415.648	0.999	418463	WORD_OFF	n/a	n/a	EEL	6	1	[0, 0, 0]	n/a	FR1	0	R1379E
416.647	1.601	419466	WORD	n/a	n/a	FARM	7	1	[0, 0, 0]	n/a	FR1	0	R1379E
418.248	0.783	421066	WORD_OFF	n/a	n/a	FARM	7	1	[0, 0, 0]	n/a	FR1	0	R1379E
419.031	1.6	421845	WORD	n/a	n/a	STONE	8	1	[0, 0, 0]	n/a	FR1	0	R1379E
420.631	0.85	423445	WORD_OFF	n/a	n/a	STONE	8	1	[0, 0, 0]	n/a	FR1	0	R1379E
421.481	1.6	424298	WORD	n/a	n/a	SHARK	9	1	[0, 0, 0]	n/a	FR1	0	R1379E
423.081	0.8	425898	WORD_OFF	n/a	n/a	SHARK	9	1	[0, 0, 0]	n/a	FR1	0	R1379E
423.881	1.617	426698	WORD	n/a	n/a	TREE	10	1	[0, 0, 0]	n/a	FR1	0	R1379E
425.498	0.766	428319	WORD_OFF	n/a	n/a	TREE	10	1	[0, 0, 0]	n/a	FR1	0	R1379E
426.264	1.6	429077	WORD	n/a	n/a	PASTE	11	1	[0, 0, 0]	n/a	FR1	0	R1379E
427.864	0.767	430677	WORD_OFF	n/a	n/a	PASTE	11	1	[0, 0, 0]	n/a	FR1	0	R1379E
428.631	1.6	431445	WORD	n/a	n/a	KITE	12	1	[0, 0, 0]	n/a	FR1	0	R1379E
430.231	0.001	433045	WORD_OFF	n/a	n/a	KITE	12	1	[0, 0, 0]	n/a	FR1	0	R1379E
430.232	0.0	433045	ENCODING_END	n/a	n/a	n/a	-999	1	[0, 0, 0]	n/a	FR1	0	R1379E
430.232	0.0	433048	START	n/a	n/a	n/a	-999	1	[-999, -999, -999]	n/a	FR1	0	R1379E
430.232	0.0	433048	PROB	0.0	n/a	n/a	-999	1	[4, 7, 7]	18	FR1	0	R1379E
430.232	5.915	433055	DISTRACT_START	n/a	n/a	n/a	-999	1	[0, 0, 0]	n/a	FR1	0	R1379E
436.147	4.951	438962	PROB	4.951	n/a	n/a	-999	1	[5, 5, 8]	18	FR1	0	R1379E
441.098	2.583	443913	PROB	2.583	n/a	n/a	-999	1	[2, 5, 1]	8	FR1	0	R1379E
443.681	3.667	446496	PROB	3.667	n/a	n/a	-999	1	[5, 1, 7]	13	FR1	0	R1379E
447.348	4.05	450163	PROB	4.05	n/a	n/a	-999	1	[2, 8, 8]	18	FR1	0	R1379E
451.398	0.0	454213	STOP	n/a	n/a	n/a	-999	1	[-999, -999, -999]	n/a	FR1	0	R1379E
451.398	1.866	454218	DISTRACT_END	n/a	n/a	n/a	-999	1	[0, 0, 0]	n/a	FR1	0	R1379E
453.264	1.454	456083	REC_START	n/a	n/a	n/a	-999	1	[0, 0, 0]	n/a	FR1	0	R1379E
454.718	1.629	457533	REC_WORD_VV	1.629	n/a	<>	-999	1	[0, 0, 0]	n/a	FR1	0	R1379E
456.347	1.0	459162	REC_WORD_VV	1.0	n/a	<>	-999	1	[0, 0, 0]	n/a	FR1	0	R1379E
457.347	1.362	460162	REC_WORD_VV	1.362	n/a	<>	-999	1	[0, 0, 0]	n/a	FR1	0	R1379E
458.709	0.426	461524	REC_WORD	0.426	n/a	MUG	1	1	[0, 0, 0]	n/a	FR1	0	R1379E
459.135	1.009	461950	REC_WORD	1.009	n/a	TREE	10	1	[0, 0, 0]	n/a	FR1	0	R1379E
460.144	2.972	462959	REC_WORD	2.972	n/a	QUAIL	-999	1	[0, 0, 0]	n/a	FR1	0	R1379E
463.116	3.104	465930	REC_WORD	3.104	n/a	SHARK	9	1	[0, 0, 0]	n/a	FR1	0	R1379E
466.22	1.529	469034	REC_WORD_VV	1.529	n/a	<>	-999	1	[0, 0, 0]	n/a	FR1	0	R1379E
467.749	1.351	470563	REC_WORD	1.351	n/a	TREE	10	1	[0, 0, 0]	n/a	FR1	0	R1379E
469.1	7.772	471914	REC_WORD	7.772	n/a	EEL	6	1	[0, 0, 0]	n/a	FR1	0	R1379E
476.872	1.0	479686	REC_WORD_VV	1.0	n/a	<>	-999	1	[0, 0, 0]	n/a	FR1	0	R1379E
477.872	5.683	480686	REC_WORD_VV	5.683	n/a	<>	-999	1	[0, 0, 0]	n/a	FR1	0	R1379E
483.555	16.159	486366	REC_END	n/a	n/a	n/a	-999	1	[0, 0, 0]	n/a	FR1	0	R1379E
499.714	10.351	502527	COUNTDOWN_START	n/a	n/a	n/a	-999	2	[0, 0, 0]	n/a	FR1	0	R1379E
510.065	0.0	512874	COUNTDOWN_END	n/a	n/a	n/a	-999	2	[0, 0, 0]	n/a	FR1	0	R1379E
510.065	1.866	512885	ENCODING_START	n/a	n/a	n/a	-999	2	[0, 0, 0]	n/a	FR1	0	R1379E
511.931	1.6	514741	WORD	n/a	n/a	ROCK	1	2	[0, 0, 0]	n/a	FR1	0	R1379E
513.531	0.933	516341	WORD_OFF	n/a	n/a	ROCK	1	2	[0, 0, 0]	n/a	FR1	0	R1379E
514.464	1.6	517279	WORD	n/a	n/a	FROG	2	2	[0, 0, 0]	n/a	FR1	0	R1379E
516.064	0.966	518879	WORD_OFF	n/a	n/a	FROG	2	2	[0, 0, 0]	n/a	FR1	0	R1379E
517.03	1.601	519839	WORD	n/a	n/a	TAIL	3	2	[0, 0, 0]	n/a	FR1	0	R1379E
518.631	0.899	521450	WORD_OFF	n/a	n/a	TAIL	3	2	[0, 0, 0]	n/a	FR1	0	R1379E
519.53	1.601	522346	WORD	n/a	n/a	THROAT	4	2	[0, 0, 0]	n/a	FR1	0	R1379E
521.131	0.783	523946	WORD_OFF	n/a	n/a	THROAT	4	2	[0, 0, 0]	n/a	FR1	0	R1379E
521.914	1.616	524725	WORD	n/a	n/a	CLOCK	5	2	[0, 0, 0]	n/a	FR1	0	R1379E
523.53	0.968	526346	WORD_OFF	n/a	n/a	CLOCK	5	2	[0, 0, 0]	n/a	FR1	0	R1379E
524.498	1.616	527306	WORD	n/a	n/a	MIST	6	2	[0, 0, 0]	n/a	FR1	0	R1379E
526.114	0.95	528927	WORD_OFF	n/a	n/a	MIST	6	2	[0, 0, 0]	n/a	FR1	0	R1379E
527.064	1.6	529877	WORD	n/a	n/a	BOOK	7	2	[0, 0, 0]	n/a	FR1	0	R1379E
528.664	0.784	531477	WORD_OFF	n/a	n/a	BOOK	7	2	[0, 0, 0]	n/a	FR1	0	R1379E
529.448	1.6	532266	WORD	n/a	n/a	SKY	8	2	[0, 0, 0]	n/a	FR1	0	R1379E
531.048	0.799	533855	WORD_OFF	n/a	n/a	SKY	8	2	[0, 0, 0]	n/a	FR1	0	R1379E
531.847	1.601	534655	WORD	n/a	n/a	MEAL	9	2	[0, 0, 0]	n/a	FR1	0	R1379E
533.448	0.95	536255	WORD_OFF	n/a	n/a	MEAL	9	2	[0, 0, 0]	n/a	FR1	0	R1379E
534.398	1.6	537215	WORD	n/a	n/a	MAZE	10	2	[0, 0, 0]	n/a	FR1	0	R1379E
535.998	0.966	538815	WORD_OFF	n/a	n/a	MAZE	10	2	[0, 0, 0]	n/a	FR1	0	R1379E
536.964	1.617	539775	WORD	n/a	n/a	STRING	11	2	[0, 0, 0]	n/a	FR1	0	R1379E
538.581	0.933	541397	WORD_OFF	n/a	n/a	STRING	11	2	[0, 0, 0]	n/a	FR1	0	R1379E
539.514	1.617	542325	WORD	n/a	n/a	VEST	12	2	[0, 0, 0]	n/a	FR1	0	R1379E
541.131	0.001	543943	PROB	0.001	n/a	n/a	-999	2	[1, 1, 2]	4	FR1	0	R1379E
541.132	0.0	543944	START	n/a	n/a	n/a	-999	2	[-999, -999, -999]	n/a	FR1	0	R1379E
541.131	0.001	543946	WORD_OFF	n/a	n/a	VEST	12	2	[0, 0, 0]	n/a	FR1	0	R1379E
541.132	0.0	543946	ENCODING_END	n/a	n/a	n/a	-999	2	[0, 0, 0]	n/a	FR1	0	R1379E
541.132	3.5	543946	DISTRACT_START	n/a	n/a	n/a	-999	2	[0, 0, 0]	n/a	FR1	0	R1379E
544.632	4.683	547444	PROB	4.683	n/a	n/a	-999	2	[2, 7, 6]	15	FR1	0	R1379E
549.315	2.866	552126	PROB	2.866	n/a	n/a	-999	2	[7, 3, 8]	18	FR1	0	R1379E
552.181	3.637	554992	PROB	3.637	n/a	n/a	-999	2	[6, 8, 6]	20	FR1	0	R1379E
555.818	2.98	558629	PROB	2.98	n/a	n/a	-999	2	[1, 5, 4]	10	FR1	0	R1379E
558.798	2.383	561609	PROB	2.383	n/a	n/a	-999	2	[1, 7, 1]	9	FR1	0	R1379E
561.181	0.0	563989	DISTRACT_END	n/a	n/a	n/a	-999	2	[0, 0, 0]	n/a	FR1	0	R1379E
561.181	1.583	563992	STOP	n/a	n/a	n/a	-999	2	[-999, -999, -999]	n/a	FR1	0	R1379E
562.764	1.81	565577	REC_START	n/a	n/a	n/a	-999	2	[0, 0, 0]	n/a	FR1	0	R1379E
564.574	0.55	567385	REC_WORD	0.55	n/a	ROCK	1	2	[0, 0, 0]	n/a	FR1	0	R1379E
565.124	1.921	567935	REC_WORD	1.921	n/a	FROG	2	2	[0, 0, 0]	n/a	FR1	0	R1379E
567.045	5.545	569856	REC_WORD	5.545	n/a	EEL	-999	2	[0, 0, 0]	n/a	FR1	0	R1379E
572.59	5.25	575401	REC_WORD	5.25	n/a	THROAT	4	2	[0, 0, 0]	n/a	FR1	0	R1379E
577.84	15.221	580650	REC_WORD	15.221	n/a	MASK	-999	2	[0, 0, 0]	n/a	FR1	0	R1379E
593.061	3.537	595870	REC_END	n/a	n/a	n/a	-999	2	[0, 0, 0]	n/a	FR1	0	R1379E
596.598	10.35	599413	COUNTDOWN_START	n/a	n/a	n/a	-999	3	[0, 0, 0]	n/a	FR1	0	R1379E
606.948	0.001	609759	COUNTDOWN_END	n/a	n/a	n/a	-999	3	[0, 0, 0]	n/a	FR1	0	R1379E
606.949	1.881	609759	ENCODING_START	n/a	n/a	n/a	-999	3	[0, 0, 0]	n/a	FR1	0	R1379E
608.83	1.601	611636	WORD	n/a	n/a	SMOKE	1	3	[0, 0, 0]	n/a	FR1	0	R1379E
610.431	0.883	613241	WORD_OFF	n/a	n/a	SMOKE	1	3	[0, 0, 0]	n/a	FR1	0	R1379E
611.314	1.6	614122	WORD	n/a	n/a	WEB	2	3	[0, 0, 0]	n/a	FR1	0	R1379E
612.914	0.884	615722	WORD_OFF	n/a	n/a	WEB	2	3	[0, 0, 0]	n/a	FR1	0	R1379E
613.798	1.616	616607	WORD	n/a	n/a	SINK	3	3	[0, 0, 0]	n/a	FR1	0	R1379E
615.414	0.834	618228	WORD_OFF	n/a	n/a	SINK	3	3	[0, 0, 0]	n/a	FR1	0	R1379E
616.248	1.6	619060	WORD	n/a	n/a	WIG	4	3	[0, 0, 0]	n/a	FR1	0	R1379E
617.848	1.0	620660	WORD_OFF	n/a	n/a	WIG	4	3	[0, 0, 0]	n/a	FR1	0	R1379E
618.848	1.6	621663	WORD	n/a	n/a	HARP	5	3	[0, 0, 0]	n/a	FR1	0	R1379E
620.448	0.849	623263	WORD_OFF	n/a	n/a	HARP	5	3	[0, 0, 0]	n/a	FR1	0	R1379E
621.297	1.601	624106	WORD	n/a	n/a	WEED	6	3	[0, 0, 0]	n/a	FR1	0	R1379E
622.898	0.883	625706	WORD_OFF	n/a	n/a	WEED	6	3	[0, 0, 0]	n/a	FR1	0	R1379E
623.781	1.6	626591	WORD	n/a	n/a	BRANCH	7	3	[0, 0, 0]	n/a	FR1	0	R1379E
625.381	0.833	628191	WORD_OFF	n/a	n/a	BRANCH	7	3	[0, 0, 0]	n/a	FR1	0	R1379E
626.214	1.6	629023	WORD	n/a	n/a	FROST	8	3	[0, 0, 0]	n/a	FR1	0	R1379E
627.814	0.917	630623	WORD_OFF	n/a	n/a	FROST	8	3	[0, 0, 0]	n/a	FR1	0	R1379E
628.731	1.6	631540	WORD	n/a	n/a	DEW	9	3	[0, 0, 0]	n/a	FR1	0	R1379E
630.331	0.867	633140	WORD_OFF	n/a	n/a	DEW	9	3	[0, 0, 0]	n/a	FR1	0	R1379E
631.198	1.616	634004	WORD	n/a	n/a	AISLE	10	3	[0, 0, 0]	n/a	FR1	0	R1379E
632.814	0.884	635626	WORD_OFF	n/a	n/a	AISLE	10	3	[0, 0, 0]	n/a	FR1	0	R1379E
633.698	1.616	636511	WORD	n/a	n/a	PIPE	11	3	[0, 0, 0]	n/a	FR1	0	R1379E
635.314	0.8	638122	WORD_OFF	n/a	n/a	PIPE	11	3	[0, 0, 0]	n/a	FR1	0	R1379E
636.114	1.6	638922	WORD	n/a	n/a	MOLE	12	3	[0, 0, 0]	n/a	FR1	0	R1379E
637.714	0.002	640522	WORD_OFF	n/a	n/a	MOLE	12	3	[0, 0, 0]	n/a	FR1	0	R1379E
637.716	0.0	640522	ENCODING_END	n/a	n/a	n/a	-999	3	[0, 0, 0]	n/a	FR1	0	R1379E
637.715	0.001	640523	PROB	0.001	n/a	n/a	-999	3	[2, 3, 4]	9	FR1	0	R1379E
637.716	0.0	640524	START	n/a	n/a	n/a	-999	3	[-999, -999, -999]	n/a	FR1	0	R1379E
637.716	3.099	640532	DISTRACT_START	n/a	n/a	n/a	-999	3	[0, 0, 0]	n/a	FR1	0	R1379E
640.815	3.799	643623	PROB	3.799	n/a	n/a	-999	3	[3, 7, 6]	16	FR1	0	R1379E
644.614	2.717	647422	PROB	2.717	n/a	n/a	-999	3	[5, 5, 5]	15	FR1	0	R1379E
647.331	2.301	650139	PROB	2.301	n/a	n/a	-999	3	[1, 3, 7]	11	FR1	0	R1379E
649.632	2.532	652440	PROB	2.532	n/a	n/a	-999	3	[7, 5, 4]	16	FR1	0	R1379E
652.164	3.751	654972	PROB	3.751	n/a	n/a	-999	3	[6, 8, 4]	18	FR1	0	R1379E
655.915	3.316	658723	PROB	3.316	n/a	n/a	-999	3	[7, 8, 6]	19	FR1	0	R1379E
659.231	0.0	662036	DISTRACT_END	n/a	n/a	n/a	-999	3	[0, 0, 0]	n/a	FR1	0	R1379E
659.231	1.7	662039	STOP	n/a	n/a	n/a	-999	3	[-999, -999, -999]	n/a	FR1	0	R1379E
660.931	4.194	663742	REC_START	n/a	n/a	n/a	-999	3	[0, 0, 0]	n/a	FR1	0	R1379E
665.125	0.777	667932	REC_WORD	0.777	n/a	SMOKE	1	3	[0, 0, 0]	n/a	FR1	0	R1379E
665.902	5.78	668709	REC_WORD	5.78	n/a	WEB	2	3	[0, 0, 0]	n/a	FR1	0	R1379E
671.682	7.555	674489	REC_WORD	7.555	n/a	MOLE	12	3	[0, 0, 0]	n/a	FR1	0	R1379E
679.237	9.429	682044	REC_WORD	9.429	n/a	MASK	-999	3	[0, 0, 0]	n/a	FR1	0	R1379E
688.666	2.542	691473	REC_WORD	2.542	n/a	SINK	3	3	[0, 0, 0]	n/a	FR1	0	R1379E
691.208	3.076	694014	REC_END	n/a	n/a	n/a	-999	3	[0, 0, 0]	n/a	FR1	0	R1379E
694.284	10.347	697098	COUNTDOWN_START	n/a	n/a	n/a	-999	4	[0, 0, 0]	n/a	FR1	0	R1379E
704.631	0.0	707434	COUNTDOWN_END	n/a	n/a	n/a	-999	4	[0, 0, 0]	n/a	FR1	0	R1379E
704.631	1.983	707444	ENCODING_START	n/a	n/a	n/a	-999	4	[0, 0, 0]	n/a	FR1	0	R1379E
706.614	1.6	709418	WORD	n/a	n/a	PORK	1	4	[0, 0, 0]	n/a	FR1	0	R1379E
708.214	0.934	711018	WORD_OFF	n/a	n/a	PORK	1	4	[0, 0, 0]	n/a	FR1	0	R1379E
709.148	1.616	711956	WORD	n/a	n/a	SKIN	2	4	[0, 0, 0]	n/a	FR1	0	R1379E
710.764	0.967	713567	WORD_OFF	n/a	n/a	SKIN	2	4	[0, 0, 0]	n/a	FR1	0	R1379E
711.731	1.6	714538	WORD	n/a	n/a	STAIR	3	4	[0, 0, 0]	n/a	FR1	0	R1379E
713.331	0.917	716138	WORD_OFF	n/a	n/a	STAIR	3	4	[0, 0, 0]	n/a	FR1	0	R1379E
714.248	1.6	717055	WORD	n/a	n/a	CURB	4	4	[0, 0, 0]	n/a	FR1	0	R1379E
715.848	0.833	718655	WORD_OFF	n/a	n/a	CURB	4	4	[0, 0, 0]	n/a	FR1	0	R1379E
716.681	1.617	719487	WORD	n/a	n/a	WORLD	5	4	[0, 0, 0]	n/a	FR1	0	R1379E
718.298	0.8	721108	WORD_OFF	n/a	n/a	WORLD	5	4	[0, 0, 0]	n/a	FR1	0	R1379E
719.098	1.6	721908	WORD	n/a	n/a	FLEA	6	4	[0, 0, 0]	n/a	FR1	0	R1379E
720.698	0.983	723508	WORD_OFF	n/a	n/a	FLEA	6	4	[0, 0, 0]	n/a	FR1	0	R1379E
721.681	1.617	724490	WORD	n/a	n/a	PHONE	7	4	[0, 0, 0]	n/a	FR1	0	R1379E
723.298	0.816	726100	WORD_OFF	n/a	n/a	PHONE	7	4	[0, 0, 0]	n/a	FR1	0	R1379E
724.114	1.617	726922	WORD	n/a	n/a	CROWN	8	4	[0, 0, 0]	n/a	FR1	0	R1379E
725.731	0.833	728532	WORD_OFF	n/a	n/a	CROWN	8	4	[0, 0, 0]	n/a	FR1	0	R1379E
726.564	1.6	729375	WORD	n/a	n/a	SHED	9	4	[0, 0, 0]	n/a	FR1	0	R1379E
728.164	0.9	730975	WORD_OFF	n/a	n/a	SHED	9	4	[0, 0, 0]	n/a	FR1	0	R1379E
729.064	1.6	731871	WORD	n/a	n/a	DOG	10	4	[0, 0, 0]	n/a	FR1	0	R1379E
730.664	0.85	733471	WORD_OFF	n/a	n/a	DOG	10	4	[0, 0, 0]	n/a	FR1	0	R1379E
731.514	1.6	734324	WORD	n/a	n/a	JET	11	4	[0, 0, 0]	n/a	FR1	0	R1379E
733.114	0.984	735924	WORD_OFF	n/a	n/a	JET	11	4	[0, 0, 0]	n/a	FR1	0	R1379E
734.098	1.616	736906	WORD	n/a	n/a	SWORD	12	4	[0, 0, 0]	n/a	FR1	0	R1379E
735.714	0.001	738516	WORD_OFF	n/a	n/a	SWORD	12	4	[0, 0, 0]	n/a	FR1	0	R1379E
735.715	0.001	738520	PROB	0.001	n/a	n/a	-999	4	[8, 5, 1]	14	FR1	0	R1379E
735.716	0.0	738521	START	n/a	n/a	n/a	-999	4	[-999, -999, -999]	n/a	FR1	0	R1379E
735.716	0.0	738527	ENCODING_END	n/a	n/a	n/a	-999	4	[0, 0, 0]	n/a	FR1	0	R1379E
735.716	5.431	738527	DISTRACT_START	n/a	n/a	n/a	-999	4	[0, 0, 0]	n/a	FR1	0	R1379E
741.147	3.501	743952	PROB	3.501	n/a	n/a	-999	4	[6, 2, 2]	10	FR1	0	R1379E
744.648	2.917	747453	PROB	2.917	n/a	n/a	-999	4	[4, 4, 2]	10	FR1	0	R1379E
747.565	2.5	750369	PROB	2.5	n/a	n/a	-999	4	[6, 6, 1]	13	FR1	0	R1379E
750.065	3.133	752869	PROB	3.133	n/a	n/a	-999	4	[3, 3, 7]	13	FR1	0	R1379E
753.198	4.349	756002	PROB	4.349	n/a	n/a	-999	4	[4, 3, 3]	10	FR1	0	R1379E
757.547	0.0	760351	DISTRACT_END	n/a	n/a	n/a	-999	4	[0, 0, 0]	n/a	FR1	0	R1379E
757.547	1.883	760351	STOP	n/a	n/a	n/a	-999	4	[-999, -999, -999]	n/a	FR1	0	R1379E
759.43	2.968	762238	REC_START	n/a	n/a	n/a	-999	4	[0, 0, 0]	n/a	FR1	0	R1379E
762.398	0.566	765202	REC_WORD	0.566	n/a	SMOKE	-999	4	[0, 0, 0]	n/a	FR1	0	R1379E
762.964	1.0	765768	REC_WORD	1.0	n/a	STAIR	3	4	[0, 0, 0]	n/a	FR1	0	R1379E
763.964	0.876	766768	REC_WORD_VV	0.876	n/a	<>	-999	4	[0, 0, 0]	n/a	FR1	0	R1379E
764.84	0.949	767644	REC_WORD	0.949	n/a	MASK	-999	4	[0, 0, 0]	n/a	FR1	0	R1379E
765.789	1.471	768593	REC_WORD	1.471	n/a	DOG	10	4	[0, 0, 0]	n/a	FR1	0	R1379E
767.26	16.899	770064	REC_WORD	16.899	n/a	SHED	9	4	[0, 0, 0]	n/a	FR1	0	R1379E
784.159	5.549	786962	REC_WORD	5.549	n/a	SMOKE	-999	4	[0, 0, 0]	n/a	FR1	0	R1379E
789.708	2.539	792510	REC_END	n/a	n/a	n/a	-999	4	[0, 0, 0]	n/a	FR1	0	R1379E
792.247	10.351	795050	COUNTDOWN_START	n/a	n/a	n/a	-999	5	[0, 0, 0]	n/a	FR1	0	R1379E
802.598	0.0	805407	COUNTDOWN_END	n/a	n/a	n/a	-999	5	[0, 0, 0]	n/a	FR1	0	R1379E
802.598	2.3	805407	ENCODING_START	n/a	n/a	n/a	-999	5	[0, 0, 0]	n/a	FR1	0	R1379E
804.898	1.617	807700	WORD	n/a	n/a	THUMB	1	5	[0, 0, 0]	n/a	FR1	0	R1379E
806.515	0.95	809322	WORD_OFF	n/a	n/a	THUMB	1	5	[0, 0, 0]	n/a	FR1	0	R1379E
807.465	1.6	810271	WORD	n/a	n/a	TROUT	2	5	[0, 0, 0]	n/a	FR1	0	R1379E
809.065	0.966	811871	WORD_OFF	n/a	n/a	TROUT	2	5	[0, 0, 0]	n/a	FR1	0	R1379E
810.031	1.6	812831	WORD	n/a	n/a	LAND	3	5	[0, 0, 0]	n/a	FR1	0	R1379E
811.631	0.967	814431	WORD_OFF	n/a	n/a	LAND	3	5	[0, 0, 0]	n/a	FR1	0	R1379E
812.598	1.6	815402	WORD	n/a	n/a	BARN	4	5	[0, 0, 0]	n/a	FR1	0	R1379E
814.198	0.866	817002	WORD_OFF	n/a	n/a	BARN	4	5	[0, 0, 0]	n/a	FR1	0	R1379E
815.064	1.6	817866	WORD	n/a	n/a	SOCK	5	5	[0, 0, 0]	n/a	FR1	0	R1379E
816.664	0.8	819466	WORD_OFF	n/a	n/a	SOCK	5	5	[0, 0, 0]	n/a	FR1	0	R1379E
817.464	1.617	820266	WORD	n/a	n/a	PEA	6	5	[0, 0, 0]	n/a	FR1	0	R1379E
819.081	0.783	821887	WORD_OFF	n/a	n/a	PEA	6	5	[0, 0, 0]	n/a	FR1	0	R1379E
819.864	1.617	822666	WORD	n/a	n/a	BOARD	7	5	[0, 0, 0]	n/a	FR1	0	R1379E
821.481	0.767	824287	WORD_OFF	n/a	n/a	BOARD	7	5	[0, 0, 0]	n/a	FR1	0	R1379E
822.248	1.6	825055	WORD	n/a	n/a	SHIP	8	5	[0, 0, 0]	n/a	FR1	0	R1379E
823.848	0.933	826655	WORD_OFF	n/a	n/a	SHIP	8	5	[0, 0, 0]	n/a	FR1	0	R1379E
824.781	1.6	827583	WORD	n/a	n/a	STRAW	9	5	[0, 0, 0]	n/a	FR1	0	R1379E
826.381	0.8	829183	WORD_OFF	n/a	n/a	STRAW	9	5	[0, 0, 0]	n/a	FR1	0	R1379E
827.181	1.617	829983	WORD	n/a	n/a	STICK	10	5	[0, 0, 0]	n/a	FR1	0	R1379E
828.798	0.85	831604	WORD_OFF	n/a	n/a	STICK	10	5	[0, 0, 0]	n/a	FR1	0	R1379E
829.648	1.616	832447	WORD	n/a	n/a	DRAIN	11	5	[0, 0, 0]	n/a	FR1	0	R1379E
831.264	0.834	834068	WORD_OFF	n/a	n/a	DRAIN	11	5	[0, 0, 0]	n/a	FR1	0	R1379E
832.098	1.617	834900	WORD	n/a	n/a	TOAD	12	5	[0, 0, 0]	n/a	FR1	0	R1379E
833.715	0.001	836516	PROB	0.001	n/a	n/a	-999	5	[1, 1, 2]	4	FR1	0	R1379E
833.716	0.0	836517	START	n/a	n/a	n/a	-999	5	[-999, -999, -999]	n/a	FR1	0	R1379E
833.714	0.002	836522	WORD_OFF	n/a	n/a	TOAD	12	5	[0, 0, 0]	n/a	FR1	0	R1379E
833.716	0.0	836522	ENCODING_END	n/a	n/a	n/a	-999	5	[0, 0, 0]	n/a	FR1	0	R1379E
833.716	2.915	836522	DISTRACT_START	n/a	n/a	n/a	-999	5	[0, 0, 0]	n/a	FR1	0	R1379E
836.631	2.851	839432	PROB	2.851	n/a	n/a	-999	5	[5, 6, 5]	16	FR1	0	R1379E
839.482	4.582	842283	PROB	4.582	n/a	n/a	-999	5	[6, 1, 8]	15	FR1	0	R1379E
844.064	2.267	846865	PROB	2.267	n/a	n/a	-999	5	[8, 2, 5]	15	FR1	0	R1379E
846.331	2.1	849132	PROB	2.1	n/a	n/a	-999	5	[8, 3, 1]	12	FR1	0	R1379E
848.431	2.666	851232	PROB	2.666	n/a	n/a	-999	5	[6, 6, 3]	15	FR1	0	R1379E
851.097	3.034	853898	PROB	3.034	n/a	n/a	-999	5	[5, 6, 1]	12	FR1	0	R1379E
854.131	0.0	856932	STOP	n/a	n/a	n/a	-999	5	[-999, -999, -999]	n/a	FR1	0	R1379E
854.131	1.783	856938	DISTRACT_END	n/a	n/a	n/a	-999	5	[0, 0, 0]	n/a	FR1	0	R1379E
855.914	3.089	858718	REC_START	n/a	n/a	n/a	-999	5	[0, 0, 0]	n/a	FR1	0	R1379E
859.003	8.61	861804	REC_WORD	8.61	n/a	SHED	-999	5	[0, 0, 0]	n/a	FR1	0	R1379E
867.613	6.638	870413	REC_WORD	6.638	n/a	THUMB	1	5	[0, 0, 0]	n/a	FR1	0	R1379E
874.251	7.297	877051	REC_WORD	7.297	n/a	BARN	4	5	[0, 0, 0]	n/a	FR1	0	R1379E
881.548	4.646	884348	REC_WORD	4.646	n/a	SINK	-999	5	[0, 0, 0]	n/a	FR1	0	R1379E
886.194	2.737	889000	REC_END	n/a	n/a	n/a	-999	5	[0, 0, 0]	n/a	FR1	0	R1379E
888.931	10.352	891732	COUNTDOWN_START	n/a	n/a	n/a	-999	6	[0, 0, 0]	n/a	FR1	0	R1379E
899.283	0.0	902079	COUNTDOWN_END	n/a	n/a	n/a	-999	6	[0, 0, 0]	n/a	FR1	0	R1379E
899.283	2.014	902079	ENCODING_START	n/a	n/a	n/a	-999	6	[0, 0, 0]	n/a	FR1	0	R1379E
901.297	1.601	904095	WORD	n/a	n/a	OIL	1	6	[0, 0, 0]	n/a	FR1	0	R1379E
902.898	0.916	905695	WORD_OFF	n/a	n/a	OIL	1	6	[0, 0, 0]	n/a	FR1	0	R1379E
903.814	1.601	906612	WORD	n/a	n/a	HOSE	2	6	[0, 0, 0]	n/a	FR1	0	R1379E
905.415	0.799	908212	WORD_OFF	n/a	n/a	HOSE	2	6	[0, 0, 0]	n/a	FR1	0	R1379E
906.214	1.601	909012	WORD	n/a	n/a	STEM	3	6	[0, 0, 0]	n/a	FR1	0	R1379E
907.815	0.817	910612	WORD_OFF	n/a	n/a	STEM	3	6	[0, 0, 0]	n/a	FR1	0	R1379E
908.632	1.6	911434	WORD	n/a	n/a	POT	4	6	[0, 0, 0]	n/a	FR1	0	R1379E
910.232	0.817	913034	WORD_OFF	n/a	n/a	POT	4	6	[0, 0, 0]	n/a	FR1	0	R1379E
911.049	1.614	913844	WORD	n/a	n/a	COAL	5	6	[0, 0, 0]	n/a	FR1	0	R1379E
912.663	0.951	915466	WORD_OFF	n/a	n/a	COAL	5	6	[0, 0, 0]	n/a	FR1	0	R1379E
913.614	1.617	916415	WORD	n/a	n/a	BLADE	6	6	[0, 0, 0]	n/a	FR1	0	R1379E
915.231	0.983	918036	WORD_OFF	n/a	n/a	BLADE	6	6	[0, 0, 0]	n/a	FR1	0	R1379E
916.214	1.6	919018	WORD	n/a	n/a	PAN	7	6	[0, 0, 0]	n/a	FR1	0	R1379E
917.814	0.867	920618	WORD_OFF	n/a	n/a	PAN	7	6	[0, 0, 0]	n/a	FR1	0	R1379E
918.681	1.617	921482	WORD	n/a	n/a	THORN	8	6	[0, 0, 0]	n/a	FR1	0	R1379E
920.298	0.9	923092	WORD_OFF	n/a	n/a	THORN	8	6	[0, 0, 0]	n/a	FR1	0	R1379E
921.198	1.616	923999	WORD	n/a	n/a	GATE	9	6	[0, 0, 0]	n/a	FR1	0	R1379E
922.814	0.817	925610	WORD_OFF	n/a	n/a	GATE	9	6	[0, 0, 0]	n/a	FR1	0	R1379E
923.631	1.617	926431	WORD	n/a	n/a	DITCH	10	6	[0, 0, 0]	n/a	FR1	0	R1379E
925.248	0.866	928052	WORD_OFF	n/a	n/a	DITCH	10	6	[0, 0, 0]	n/a	FR1	0	R1379E
926.114	1.6	928916	WORD	n/a	n/a	CLOWN	11	6	[0, 0, 0]	n/a	FR1	0	R1379E
927.714	0.95	930516	WORD_OFF	n/a	n/a	CLOWN	11	6	[0, 0, 0]	n/a	FR1	0	R1379E
928.664	1.601	931466	WORD	n/a	n/a	SMILE	12	6	[0, 0, 0]	n/a	FR1	0	R1379E
930.265	0.001	933063	PROB	0.001	n/a	n/a	-999	6	[3, 6, 2]	11	FR1	0	R1379E
930.266	0.0	933064	START	n/a	n/a	n/a	-999	6	[-999, -999, -999]	n/a	FR1	0	R1379E
930.264	0.002	933066	WORD_OFF	n/a	n/a	SMILE	12	6	[0, 0, 0]	n/a	FR1	0	R1379E
930.266	0.0	933066	ENCODING_END	n/a	n/a	n/a	-999	6	[0, 0, 0]	n/a	FR1	0	R1379E
930.266	3.299	933066	DISTRACT_START	n/a	n/a	n/a	-999	6	[0, 0, 0]	n/a	FR1	0	R1379E
933.565	2.949	936363	PROB	2.949	n/a	n/a	-999	6	[7, 7, 3]	17	FR1	0	R1379E
936.514	7.468	939312	PROB	7.468	n/a	n/a	-999	6	[2, 2, 8]	12	FR1	0	R1379E
943.982	2.016	946780	PROB	2.016	n/a	n/a	-999	6	[7, 7, 7]	21	FR1	0	R1379E
945.998	10.083	948796	PROB	10.083	n/a	n/a	-999	6	[8, 8, 7]	23	FR1	0	R1379E
956.081	0.0	958878	STOP	n/a	n/a	n/a	-999	6	[-999, -999, -999]	n/a	FR1	0	R1379E
956.081	1.6	958879	DISTRACT_END	n/a	n/a	n/a	-999	6	[0, 0, 0]	n/a	FR1	0	R1379E
957.681	2.889	960478	REC_START	n/a	n/a	n/a	-999	6	[0, 0, 0]	n/a	FR1	0	R1379E
960.57	2.575	963367	REC_WORD	2.575	n/a	OIL	1	6	[0, 0, 0]	n/a	FR1	0	R1379E
963.145	18.189	965942	REC_WORD	18.189	n/a	PAN	7	6	[0, 0, 0]	n/a	FR1	0	R1379E
981.334	6.626	984130	REC_WORD	6.626	n/a	SHED	-999	6	[0, 0, 0]	n/a	FR1	0	R1379E
987.96	2.12	990760	REC_END	n/a	n/a	n/a	-999	6	[0, 0, 0]	n/a	FR1	0	R1379E
990.08	10.351	992884	COUNTDOWN_START	n/a	n/a	n/a	-999	7	[0, 0, 0]	n/a	FR1	0	R1379E
1000.431	0.0	1003231	COUNTDOWN_END	n/a	n/a	n/a	-999	7	[0, 0, 0]	n/a	FR1	0	R1379E
1000.431	2.115	1003231	ENCODING_START	n/a	n/a	n/a	-999	7	[0, 0, 0]	n/a	FR1	0	R1379E
1002.546	1.601	1005343	WORD	n/a	n/a	LAWN	1	7	[0, 0, 0]	n/a	FR1	0	R1379E
1004.147	0.95	1006943	WORD_OFF	n/a	n/a	LAWN	1	7	[0, 0, 0]	n/a	FR1	0	R1379E
1005.097	1.601	1007892	WORD	n/a	n/a	BOLT	2	7	[0, 0, 0]	n/a	FR1	0	R1379E
1006.698	1.0	1009492	WORD_OFF	n/a	n/a	BOLT	2	7	[0, 0, 0]	n/a	FR1	0	R1379E
1007.698	1.617	1010495	WORD	n/a	n/a	WORM	3	7	[0, 0, 0]	n/a	FR1	0	R1379E
1009.315	0.933	1012116	WORD_OFF	n/a	n/a	WORM	3	7	[0, 0, 0]	n/a	FR1	0	R1379E
1010.248	1.616	1013044	WORD	n/a	n/a	MAIL	4	7	[0, 0, 0]	n/a	FR1	0	R1379E
1011.864	0.851	1014666	WORD_OFF	n/a	n/a	MAIL	4	7	[0, 0, 0]	n/a	FR1	0	R1379E
1012.715	1.601	1015508	WORD	n/a	n/a	SHOE	5	7	[0, 0, 0]	n/a	FR1	0	R1379E
1014.316	0.998	1017108	WORD_OFF	n/a	n/a	SHOE	5	7	[0, 0, 0]	n/a	FR1	0	R1379E
1015.314	1.617	1018111	WORD	n/a	n/a	LEAF	6	7	[0, 0, 0]	n/a	FR1	0	R1379E
1016.931	0.9	1019732	WORD_OFF	n/a	n/a	LEAF	6	7	[0, 0, 0]	n/a	FR1	0	R1379E
1017.831	1.615	1020628	WORD	n/a	n/a	FENCE	7	7	[0, 0, 0]	n/a	FR1	0	R1379E
1019.446	0.769	1022239	WORD_OFF	n/a	n/a	FENCE	7	7	[0, 0, 0]	n/a	FR1	0	R1379E
1020.215	1.616	1023007	WORD	n/a	n/a	STORE	8	7	[0, 0, 0]	n/a	FR1	0	R1379E
1021.831	0.95	1024628	WORD_OFF	n/a	n/a	STORE	8	7	[0, 0, 0]	n/a	FR1	0	R1379E
1022.781	1.6	1025578	WORD	n/a	n/a	VINE	9	7	[0, 0, 0]	n/a	FR1	0	R1379E
1024.381	0.85	1027178	WORD_OFF	n/a	n/a	VINE	9	7	[0, 0, 0]	n/a	FR1	0	R1379E
1025.231	1.617	1028031	WORD	n/a	n/a	ROAD	10	7	[0, 0, 0]	n/a	FR1	0	R1379E
1026.848	0.916	1029642	WORD_OFF	n/a	n/a	ROAD	10	7	[0, 0, 0]	n/a	FR1	0	R1379E
1027.764	1.6	1030559	WORD	n/a	n/a	TIN	11	7	[0, 0, 0]	n/a	FR1	0	R1379E
1029.364	0.817	1032159	WORD_OFF	n/a	n/a	TIN	11	7	[0, 0, 0]	n/a	FR1	0	R1379E
1030.181	1.6	1032980	WORD	n/a	n/a	SPEAR	12	7	[0, 0, 0]	n/a	FR1	0	R1379E
1031.781	0.001	1034576	PROB	0.001	n/a	n/a	-999	7	[5, 5, 7]	17	FR1	0	R1379E
1031.782	0.0	1034577	START	n/a	n/a	n/a	-999	7	[-999, -999, -999]	n/a	FR1	0	R1379E
1031.781	0.001	1034580	WORD_OFF	n/a	n/a	SPEAR	12	7	[0, 0, 0]	n/a	FR1	0	R1379E
1031.782	0.0	1034580	ENCODING_END	n/a	n/a	n/a	-999	7	[0, 0, 0]	n/a	FR1	0	R1379E
1031.782	4.199	1034580	DISTRACT_START	n/a	n/a	n/a	-999	7	[0, 0, 0]	n/a	FR1	0	R1379E
1035.981	1.716	1038775	PROB	1.716	n/a	n/a	-999	7	[5, 4, 2]	11	FR1	0	R1379E
1037.697	2.285	1040491	PROB	2.285	n/a	n/a	-999	7	[4, 3, 5]	12	FR1	0	R1379E
1039.982	3.332	1042776	PROB	3.332	n/a	n/a	-999	7	[3, 5, 1]	9	FR1	0	R1379E
1043.314	2.9	1046108	PROB	2.9	n/a	n/a	-999	7	[5, 2, 3]	10	FR1	0	R1379E
1046.214	4.401	1049008	PROB	4.401	n/a	n/a	-999	7	[8, 2, 3]	13	FR1	0	R1379E
1050.615	3.282	1053409	PROB	3.282	n/a	n/a	-999	7	[7, 4, 5]	16	FR1	0	R1379E
1053.897	0.0	1056691	STOP	n/a	n/a	n/a	-999	7	[-999, -999, -999]	n/a	FR1	0	R1379E
1053.897	1.734	1056692	DISTRACT_END	n/a	n/a	n/a	-999	7	[0, 0, 0]	n/a	FR1	0	R1379E
1055.631	2.692	1058430	REC_START	n/a	n/a	n/a	-999	7	[0, 0, 0]	n/a	FR1	0	R1379E
1058.323	0.548	1061117	REC_WORD	0.548	n/a	LAWN	1	7	[0, 0, 0]	n/a	FR1	0	R1379E
1058.871	7.5	1061665	REC_WORD	7.5	n/a	SHED	-999	7	[0, 0, 0]	n/a	FR1	0	R1379E
1066.371	11.951	1069164	REC_WORD	11.951	n/a	FENCE	7	7	[0, 0, 0]	n/a	FR1	0	R1379E
1078.322	3.818	1081115	REC_WORD	3.818	n/a	OIL	-999	7	[0, 0, 0]	n/a	FR1	0	R1379E
1082.14	3.794	1084933	REC_WORD	3.794	n/a	SPEAR	12	7	[0, 0, 0]	n/a	FR1	0	R1379E
1085.934	3.197	1088733	REC_END	n/a	n/a	n/a	-999	7	[0, 0, 0]	n/a	FR1	0	R1379E
1089.131	10.351	1091924	COUNTDOWN_START	n/a	n/a	n/a	-999	8	[0, 0, 0]	n/a	FR1	0	R1379E
1099.482	0.0	1102271	COUNTDOWN_END	n/a	n/a	n/a	-999	8	[0, 0, 0]	n/a	FR1	0	R1379E
1099.482	2.281	1102281	ENCODING_START	n/a	n/a	n/a	-999	8	[0, 0, 0]	n/a	FR1	0	R1379E
1101.763	1.6	1104553	WORD	n/a	n/a	BAY	1	8	[0, 0, 0]	n/a	FR1	0	R1379E
1103.363	0.851	1106153	WORD_OFF	n/a	n/a	BAY	1	8	[0, 0, 0]	n/a	FR1	0	R1379E
1104.214	1.617	1107007	WORD	n/a	n/a	KEY	2	8	[0, 0, 0]	n/a	FR1	0	R1379E
1105.831	0.983	1108628	WORD_OFF	n/a	n/a	KEY	2	8	[0, 0, 0]	n/a	FR1	0	R1379E
1106.814	1.616	1109609	WORD	n/a	n/a	BOX	3	8	[0, 0, 0]	n/a	FR1	0	R1379E
1108.43	0.784	1111220	WORD_OFF	n/a	n/a	BOX	3	8	[0, 0, 0]	n/a	FR1	0	R1379E
1109.214	1.617	1112009	WORD	n/a	n/a	MUD	4	8	[0, 0, 0]	n/a	FR1	0	R1379E
1110.831	0.816	1113620	WORD_OFF	n/a	n/a	MUD	4	8	[0, 0, 0]	n/a	FR1	0	R1379E
1111.647	1.617	1114441	WORD	n/a	n/a	OAR	5	8	[0, 0, 0]	n/a	FR1	0	R1379E
1113.264	0.933	1116052	WORD_OFF	n/a	n/a	OAR	5	8	[0, 0, 0]	n/a	FR1	0	R1379E
1114.197	1.601	1116991	WORD	n/a	n/a	SPARK	6	8	[0, 0, 0]	n/a	FR1	0	R1379E
1115.798	0.95	1118591	WORD_OFF	n/a	n/a	SPARK	6	8	[0, 0, 0]	n/a	FR1	0	R1379E
1116.748	1.6	1119540	WORD	n/a	n/a	HOG	7	8	[0, 0, 0]	n/a	FR1	0	R1379E
1118.348	0.952	1121140	WORD_OFF	n/a	n/a	HOG	7	8	[0, 0, 0]	n/a	FR1	0	R1379E
1119.3	1.598	1122089	WORD	n/a	n/a	ROOT	8	8	[0, 0, 0]	n/a	FR1	0	R1379E
1120.898	0.833	1123689	WORD_OFF	n/a	n/a	ROOT	8	8	[0, 0, 0]	n/a	FR1	0	R1379E
1121.731	1.6	1124521	WORD	n/a	n/a	SWAMP	9	8	[0, 0, 0]	n/a	FR1	0	R1379E
1123.331	0.983	1126121	WORD_OFF	n/a	n/a	SWAMP	9	8	[0, 0, 0]	n/a	FR1	0	R1379E
1124.314	1.6	1127103	WORD	n/a	n/a	CRANE	10	8	[0, 0, 0]	n/a	FR1	0	R1379E
1125.914	0.817	1128703	WORD_OFF	n/a	n/a	CRANE	10	8	[0, 0, 0]	n/a	FR1	0	R1379E
1126.731	1.617	1129524	WORD	n/a	n/a	RIB	11	8	[0, 0, 0]	n/a	FR1	0	R1379E
1128.348	0.832	1131135	WORD_OFF	n/a	n/a	RIB	11	8	[0, 0, 0]	n/a	FR1	0	R1379E
1129.18	1.601	1131977	WORD	n/a	n/a	MEAT	12	8	[0, 0, 0]	n/a	FR1	0	R1379E
1130.781	0.001	1133572	PROB	0.001	n/a	n/a	-999	8	[4, 1, 5]	10	FR1	0	R1379E
1130.782	0.0	1133573	START	n/a	n/a	n/a	-999	8	[-999, -999, -999]	n/a	FR1	0	R1379E
1130.781	0.001	1133577	WORD_OFF	n/a	n/a	MEAT	12	8	[0, 0, 0]	n/a	FR1	0	R1379E
1130.782	0.0	1133577	ENCODING_END	n/a	n/a	n/a	-999	8	[0, 0, 0]	n/a	FR1	0	R1379E
1130.782	5.05	1133577	DISTRACT_START	n/a	n/a	n/a	-999	8	[0, 0, 0]	n/a	FR1	0	R1379E
1135.832	2.866	1138623	PROB	2.866	n/a	n/a	-999	8	[6, 6, 7]	20	FR1	0	R1379E
1138.698	3.335	1141489	PROB	3.335	n/a	n/a	-999	8	[2, 1, 3]	6	FR1	0	R1379E
1142.033	3.782	1144824	PROB	3.782	n/a	n/a	-999	8	[5, 6, 3]	14	FR1	0	R1379E
1145.815	2.632	1148606	PROB	2.632	n/a	n/a	-999	8	[3, 2, 2]	7	FR1	0	R1379E
1148.447	4.451	1151237	PROB	4.451	n/a	n/a	-999	8	[6, 2, 6]	14	FR1	0	R1379E
1152.898	0.0	1155688	STOP	n/a	n/a	n/a	-999	8	[-999, -999, -999]	n/a	FR1	0	R1379E
1152.898	1.65	1155689	DISTRACT_END	n/a	n/a	n/a	-999	8	[0, 0, 0]	n/a	FR1	0	R1379E
1154.548	4.92	1157341	REC_START	n/a	n/a	n/a	-999	8	[0, 0, 0]	n/a	FR1	0	R1379E
1159.468	2.683	1162258	REC_WORD	2.683	n/a	SPEAR	-999	8	[0, 0, 0]	n/a	FR1	0	R1379E
1162.151	13.798	1164941	REC_WORD	13.798	n/a	SMOKE	-999	8	[0, 0, 0]	n/a	FR1	0	R1379E
1175.949	8.896	1178738	REC_WORD	8.896	n/a	HEEL	-999	8	[0, 0, 0]	n/a	FR1	0	R1379E
1184.845	5.436	1187635	REC_END	n/a	n/a	n/a	-999	8	[0, 0, 0]	n/a	FR1	0	R1379E
1190.281	10.35	1193076	COUNTDOWN_START	n/a	n/a	n/a	-999	9	[0, 0, 0]	n/a	FR1	0	R1379E
1200.631	0.0	1203423	COUNTDOWN_END	n/a	n/a	n/a	-999	9	[0, 0, 0]	n/a	FR1	0	R1379E
1200.631	1.966	1203423	ENCODING_START	n/a	n/a	n/a	-999	9	[0, 0, 0]	n/a	FR1	0	R1379E
1202.597	1.6	1205385	WORD	n/a	n/a	NET	1	9	[0, 0, 0]	n/a	FR1	0	R1379E
1204.197	0.917	1206985	WORD_OFF	n/a	n/a	NET	1	9	[0, 0, 0]	n/a	FR1	0	R1379E
1205.114	1.616	1207903	WORD	n/a	n/a	WHEEL	2	9	[0, 0, 0]	n/a	FR1	0	R1379E
1206.73	0.8	1209524	WORD_OFF	n/a	n/a	WHEEL	2	9	[0, 0, 0]	n/a	FR1	0	R1379E
1207.53	1.6	1210324	WORD	n/a	n/a	SLEEVE	3	9	[0, 0, 0]	n/a	FR1	0	R1379E
1209.13	0.851	1211924	WORD_OFF	n/a	n/a	SLEEVE	3	9	[0, 0, 0]	n/a	FR1	0	R1379E
1209.981	1.616	1212767	WORD	n/a	n/a	SNAIL	4	9	[0, 0, 0]	n/a	FR1	0	R1379E
1211.597	0.953	1214388	WORD_OFF	n/a	n/a	SNAIL	4	9	[0, 0, 0]	n/a	FR1	0	R1379E
1212.55	1.598	1215337	WORD	n/a	n/a	PAGE	5	9	[0, 0, 0]	n/a	FR1	0	R1379E
1214.148	0.9	1216937	WORD_OFF	n/a	n/a	PAGE	5	9	[0, 0, 0]	n/a	FR1	0	R1379E
1215.048	1.6	1217833	WORD	n/a	n/a	BEAK	6	9	[0, 0, 0]	n/a	FR1	0	R1379E
1216.648	0.767	1219433	WORD_OFF	n/a	n/a	BEAK	6	9	[0, 0, 0]	n/a	FR1	0	R1379E
1217.415	1.6	1220201	WORD	n/a	n/a	GEESE	7	9	[0, 0, 0]	n/a	FR1	0	R1379E
1219.015	0.9	1221801	WORD_OFF	n/a	n/a	GEESE	7	9	[0, 0, 0]	n/a	FR1	0	R1379E
1219.915	1.615	1222708	WORD	n/a	n/a	FLAG	8	9	[0, 0, 0]	n/a	FR1	0	R1379E
1221.53	0.818	1224319	WORD_OFF	n/a	n/a	FLAG	8	9	[0, 0, 0]	n/a	FR1	0	R1379E
1222.348	1.6	1225140	WORD	n/a	n/a	BOMB	9	9	[0, 0, 0]	n/a	FR1	0	R1379E
1223.948	0.816	1226740	WORD_OFF	n/a	n/a	BOMB	9	9	[0, 0, 0]	n/a	FR1	0	R1379E
1224.764	1.6	1227551	WORD	n/a	n/a	SEED	10	9	[0, 0, 0]	n/a	FR1	0	R1379E
1226.364	0.967	1229151	WORD_OFF	n/a	n/a	SEED	10	9	[0, 0, 0]	n/a	FR1	0	R1379E
1227.331	1.6	1230121	WORD	n/a	n/a	NIGHT	11	9	[0, 0, 0]	n/a	FR1	0	R1379E
1228.931	0.8	1231721	WORD_OFF	n/a	n/a	NIGHT	11	9	[0, 0, 0]	n/a	FR1	0	R1379E
1229.731	1.617	1232521	WORD	n/a	n/a	PILL	12	9	[0, 0, 0]	n/a	FR1	0	R1379E
1231.348	0.001	1234132	WORD_OFF	n/a	n/a	PILL	12	9	[0, 0, 0]	n/a	FR1	0	R1379E
1231.349	0.0	1234137	START	n/a	n/a	n/a	-999	9	[-999, -999, -999]	n/a	FR1	0	R1379E
1231.349	0.0	1234137	PROB	0.0	n/a	n/a	-999	9	[4, 1, 1]	6	FR1	0	R1379E
1231.349	0.0	1234143	ENCODING_END	n/a	n/a	n/a	-999	9	[0, 0, 0]	n/a	FR1	0	R1379E
1231.349	3.369	1234143	DISTRACT_START	n/a	n/a	n/a	-999	9	[0, 0, 0]	n/a	FR1	0	R1379E
1234.718	5.847	1237505	PROB	5.847	n/a	n/a	-999	9	[2, 6, 2]	10	FR1	0	R1379E
1240.565	3.183	1243352	PROB	3.183	n/a	n/a	-999	9	[2, 5, 7]	14	FR1	0	R1379E
1243.748	2.334	1246535	PROB	2.334	n/a	n/a	-999	9	[1, 6, 1]	8	FR1	0	R1379E
1246.082	2.683	1248869	PROB	2.683	n/a	n/a	-999	9	[7, 1, 1]	9	FR1	0	R1379E
1248.765	2.5	1251552	PROB	2.5	n/a	n/a	-999	9	[5, 3, 1]	9	FR1	0	R1379E
1251.265	3.349	1254052	PROB	3.349	n/a	n/a	-999	9	[1, 8, 4]	13	FR1	0	R1379E
1254.614	0.0	1257401	STOP	n/a	n/a	n/a	-999	9	[-999, -999, -999]	n/a	FR1	0	R1379E
1254.614	1.617	1257407	DISTRACT_END	n/a	n/a	n/a	-999	9	[0, 0, 0]	n/a	FR1	0	R1379E
1256.231	4.083	1259016	REC_START	n/a	n/a	n/a	-999	9	[0, 0, 0]	n/a	FR1	0	R1379E
1260.314	0.451	1263101	REC_WORD	0.451	n/a	HOLE	-999	9	[0, 0, 0]	n/a	FR1	0	R1379E
1260.765	4.079	1263552	REC_WORD	4.079	n/a	SMOKE	-999	9	[0, 0, 0]	n/a	FR1	0	R1379E
1264.844	1.0	1267630	REC_WORD_VV	1.0	n/a	<>	-999	9	[0, 0, 0]	n/a	FR1	0	R1379E
1265.844	5.925	1268630	REC_WORD_VV	5.925	n/a	<>	-999	9	[0, 0, 0]	n/a	FR1	0	R1379E
1271.769	9.304	1274555	REC_WORD	9.304	n/a	MOLE	-999	9	[0, 0, 0]	n/a	FR1	0	R1379E
1281.073	2.465	1283859	REC_WORD	2.465	n/a	WHEEL	2	9	[0, 0, 0]	n/a	FR1	0	R1379E
1283.538	2.953	1286324	REC_WORD	2.953	n/a	NET	1	9	[0, 0, 0]	n/a	FR1	0	R1379E
1286.491	3.006	1289277	REC_END	n/a	n/a	n/a	-999	9	[0, 0, 0]	n/a	FR1	0	R1379E
1289.497	10.35	1292287	COUNTDOWN_START	n/a	n/a	n/a	-999	10	[0, 0, 0]	n/a	FR1	0	R1379E
1299.847	0.001	1302633	COUNTDOWN_END	n/a	n/a	n/a	-999	10	[0, 0, 0]	n/a	FR1	0	R1379E
1299.848	2.332	1302633	ENCODING_START	n/a	n/a	n/a	-999	10	[0, 0, 0]	n/a	FR1	0	R1379E
1302.18	1.617	1304969	WORD	n/a	n/a	ROPE	1	10	[0, 0, 0]	n/a	FR1	0	R1379E
1303.797	0.916	1306580	WORD_OFF	n/a	n/a	ROPE	1	10	[0, 0, 0]	n/a	FR1	0	R1379E
1304.713	1.6	1307497	WORD	n/a	n/a	CAVE	2	10	[0, 0, 0]	n/a	FR1	0	R1379E
1306.313	1.0	1309108	WORD_OFF	n/a	n/a	CAVE	2	10	[0, 0, 0]	n/a	FR1	0	R1379E
1307.313	1.6	1310100	WORD	n/a	n/a	BRICK	3	10	[0, 0, 0]	n/a	FR1	0	R1379E
1308.913	0.95	1311700	WORD_OFF	n/a	n/a	BRICK	3	10	[0, 0, 0]	n/a	FR1	0	R1379E
1309.863	1.601	1312649	WORD	n/a	n/a	TOOTH	4	10	[0, 0, 0]	n/a	FR1	0	R1379E
1311.464	0.883	1314249	WORD_OFF	n/a	n/a	TOOTH	4	10	[0, 0, 0]	n/a	FR1	0	R1379E
1312.347	1.617	1315135	WORD	n/a	n/a	MOUSE	5	10	[0, 0, 0]	n/a	FR1	0	R1379E
1313.964	0.9	1316745	WORD_OFF	n/a	n/a	MOUSE	5	10	[0, 0, 0]	n/a	FR1	0	R1379E
1314.864	1.617	1317652	WORD	n/a	n/a	PLANT	6	10	[0, 0, 0]	n/a	FR1	0	R1379E
1316.481	0.883	1319263	WORD_OFF	n/a	n/a	PLANT	6	10	[0, 0, 0]	n/a	FR1	0	R1379E
1317.364	1.617	1320148	WORD	n/a	n/a	DART	7	10	[0, 0, 0]	n/a	FR1	0	R1379E
1318.981	0.801	1321769	WORD_OFF	n/a	n/a	DART	7	10	[0, 0, 0]	n/a	FR1	0	R1379E
1319.782	1.6	1322569	WORD	n/a	n/a	STEAK	8	10	[0, 0, 0]	n/a	FR1	0	R1379E
1321.382	1.0	1324169	WORD_OFF	n/a	n/a	STEAK	8	10	[0, 0, 0]	n/a	FR1	0	R1379E
1322.382	1.616	1325172	WORD	n/a	n/a	CASH	9	10	[0, 0, 0]	n/a	FR1	0	R1379E
1323.998	0.95	1326783	WORD_OFF	n/a	n/a	CASH	9	10	[0, 0, 0]	n/a	FR1	0	R1379E
1324.948	1.6	1327732	WORD	n/a	n/a	PARK	10	10	[0, 0, 0]	n/a	FR1	0	R1379E
1326.548	0.85	1329332	WORD_OFF	n/a	n/a	PARK	10	10	[0, 0, 0]	n/a	FR1	0	R1379E
1327.398	1.616	1330185	WORD	n/a	n/a	KNOB	11	10	[0, 0, 0]	n/a	FR1	0	R1379E
1329.014	0.917	1331796	WORD_OFF	n/a	n/a	KNOB	11	10	[0, 0, 0]	n/a	FR1	0	R1379E
1329.931	1.6	1332713	WORD	n/a	n/a	HAT	12	10	[0, 0, 0]	n/a	FR1	0	R1379E
1331.531	0.001	1334313	WORD_OFF	n/a	n/a	HAT	12	10	[0, 0, 0]	n/a	FR1	0	R1379E
1331.532	0.0	1334313	ENCODING_END	n/a	n/a	n/a	-999	10	[0, 0, 0]	n/a	FR1	0	R1379E
1331.531	0.002	1334315	PROB	0.002	n/a	n/a	-999	10	[1, 2, 7]	10	FR1	0	R1379E
1331.533	0.0	1334317	START	n/a	n/a	n/a	-999	10	[-999, -999, -999]	n/a	FR1	0	R1379E
1331.533	4.815	1334324	DISTRACT_START	n/a	n/a	n/a	-999	10	[0, 0, 0]	n/a	FR1	0	R1379E
1336.348	3.35	1339132	PROB	3.35	n/a	n/a	-999	10	[2, 8, 4]	14	FR1	0	R1379E
1339.698	2.9	1342482	PROB	2.9	n/a	n/a	-999	10	[6, 7, 5]	18	FR1	0	R1379E
1342.598	3.434	1345382	PROB	3.434	n/a	n/a	-999	10	[3, 4, 8]	15	FR1	0	R1379E
1346.032	2.216	1348816	PROB	2.216	n/a	n/a	-999	10	[3, 6, 3]	12	FR1	0	R1379E
1348.248	3.1	1351031	PROB	3.1	n/a	n/a	-999	10	[1, 6, 2]	9	FR1	0	R1379E
1351.348	3.383	1354131	PROB	3.383	n/a	n/a	-999	10	[6, 5, 1]	12	FR1	0	R1379E
1354.731	0.0	1357513	DISTRACT_END	n/a	n/a	n/a	-999	10	[0, 0, 0]	n/a	FR1	0	R1379E
1354.731	1.766	1357514	STOP	n/a	n/a	n/a	-999	10	[-999, -999, -999]	n/a	FR1	0	R1379E
1356.497	2.06	1359283	REC_START	n/a	n/a	n/a	-999	10	[0, 0, 0]	n/a	FR1	0	R1379E
1358.557	4.726	1361340	REC_WORD	4.726	n/a	STEAK	8	10	[0, 0, 0]	n/a	FR1	0	R1379E
1363.283	3.722	1366066	REC_WORD	3.722	n/a	MOLE	-999	10	[0, 0, 0]	n/a	FR1	0	R1379E
1367.005	19.751	1369788	REC_WORD	19.751	n/a	SPEAR	-999	10	[0, 0, 0]	n/a	FR1	0	R1379E
1386.756	2.441	1389544	REC_END	n/a	n/a	n/a	-999	10	[0, 0, 0]	n/a	FR1	0	R1379E
1389.197	10.351	1391977	COUNTDOWN_START	n/a	n/a	n/a	-999	11	[0, 0, 0]	n/a	FR1	0	R1379E
1399.548	0.0	1402335	COUNTDOWN_END	n/a	n/a	n/a	-999	11	[0, 0, 0]	n/a	FR1	0	R1379E
1399.548	1.999	1402335	ENCODING_START	n/a	n/a	n/a	-999	11	[0, 0, 0]	n/a	FR1	0	R1379E
1401.547	1.6	1404329	WORD	n/a	n/a	BLUSH	1	11	[0, 0, 0]	n/a	FR1	0	R1379E
1403.147	0.95	1405929	WORD_OFF	n/a	n/a	BLUSH	1	11	[0, 0, 0]	n/a	FR1	0	R1379E
1404.097	1.616	1406879	WORD	n/a	n/a	HOOK	2	11	[0, 0, 0]	n/a	FR1	0	R1379E
1405.713	0.934	1408500	WORD_OFF	n/a	n/a	HOOK	2	11	[0, 0, 0]	n/a	FR1	0	R1379E
1406.647	1.6	1409428	WORD	n/a	n/a	BOOT	3	11	[0, 0, 0]	n/a	FR1	0	R1379E
1408.247	0.9	1411028	WORD_OFF	n/a	n/a	BOOT	3	11	[0, 0, 0]	n/a	FR1	0	R1379E
1409.147	1.6	1411924	WORD	n/a	n/a	DEER	4	11	[0, 0, 0]	n/a	FR1	0	R1379E
1410.747	0.95	1413524	WORD_OFF	n/a	n/a	DEER	4	11	[0, 0, 0]	n/a	FR1	0	R1379E
1411.697	1.6	1414478	WORD	n/a	n/a	BADGE	5	11	[0, 0, 0]	n/a	FR1	0	R1379E
1413.297	0.933	1416084	WORD_OFF	n/a	n/a	BADGE	5	11	[0, 0, 0]	n/a	FR1	0	R1379E
1414.23	1.601	1417012	WORD	n/a	n/a	CAPE	6	11	[0, 0, 0]	n/a	FR1	0	R1379E
1415.831	0.899	1418612	WORD_OFF	n/a	n/a	CAPE	6	11	[0, 0, 0]	n/a	FR1	0	R1379E
1416.73	1.601	1419508	WORD	n/a	n/a	WAND	7	11	[0, 0, 0]	n/a	FR1	0	R1379E
1418.331	0.833	1421108	WORD_OFF	n/a	n/a	WAND	7	11	[0, 0, 0]	n/a	FR1	0	R1379E
1419.164	1.601	1421940	WORD	n/a	n/a	CLIFF	8	11	[0, 0, 0]	n/a	FR1	0	R1379E
1420.765	0.832	1423551	WORD_OFF	n/a	n/a	CLIFF	8	11	[0, 0, 0]	n/a	FR1	0	R1379E
1421.597	1.601	1424383	WORD	n/a	n/a	TIE	9	11	[0, 0, 0]	n/a	FR1	0	R1379E
1423.198	0.867	1425983	WORD_OFF	n/a	n/a	TIE	9	11	[0, 0, 0]	n/a	FR1	0	R1379E
1424.065	1.601	1426847	WORD	n/a	n/a	MULE	10	11	[0, 0, 0]	n/a	FR1	0	R1379E
1425.666	0.965	1428447	WORD_OFF	n/a	n/a	MULE	10	11	[0, 0, 0]	n/a	FR1	0	R1379E
1426.631	1.617	1429417	WORD	n/a	n/a	COURT	11	11	[0, 0, 0]	n/a	FR1	0	R1379E
1428.248	0.833	1431028	WORD_OFF	n/a	n/a	COURT	11	11	[0, 0, 0]	n/a	FR1	0	R1379E
1429.081	1.618	1431860	WORD	n/a	n/a	PIT	12	11	[0, 0, 0]	n/a	FR1	0	R1379E
1430.699	0.0	1433480	START	n/a	n/a	n/a	-999	11	[-999, -999, -999]	n/a	FR1	0	R1379E
1430.699	0.0	1433480	PROB	0.0	n/a	n/a	-999	11	[4, 1, 3]	8	FR1	0	R1379E
1430.698	0.001	1433481	WORD_OFF	n/a	n/a	PIT	12	11	[0, 0, 0]	n/a	FR1	0	R1379E
1430.699	0.0	1433481	ENCODING_END	n/a	n/a	n/a	-999	11	[0, 0, 0]	n/a	FR1	0	R1379E
1430.699	3.416	1433481	DISTRACT_START	n/a	n/a	n/a	-999	11	[0, 0, 0]	n/a	FR1	0	R1379E
1434.115	3.25	1436895	PROB	3.25	n/a	n/a	-999	11	[7, 1, 8]	16	FR1	0	R1379E
1437.365	2.85	1440145	PROB	2.85	n/a	n/a	-999	11	[6, 6, 7]	20	FR1	0	R1379E
1440.215	2.6	1442995	PROB	2.6	n/a	n/a	-999	11	[4, 4, 1]	9	FR1	0	R1379E
1442.815	3.85	1445595	PROB	3.85	n/a	n/a	-999	11	[2, 7, 1]	10	FR1	0	R1379E
1446.665	4.316	1449445	PROB	4.316	n/a	n/a	-999	11	[5, 4, 4]	13	FR1	0	R1379E
1450.981	0.0	1453759	DISTRACT_END	n/a	n/a	n/a	-999	11	[0, 0, 0]	n/a	FR1	0	R1379E
1450.981	1.733	1453761	STOP	n/a	n/a	n/a	-999	11	[-999, -999, -999]	n/a	FR1	0	R1379E
1452.714	4.856	1455496	REC_START	n/a	n/a	n/a	-999	11	[0, 0, 0]	n/a	FR1	0	R1379E
1457.57	1.619	1460350	REC_WORD	1.619	n/a	CLIFF	8	11	[0, 0, 0]	n/a	FR1	0	R1379E
1459.189	5.895	1461969	REC_WORD	5.895	n/a	STEAK	-999	11	[0, 0, 0]	n/a	FR1	0	R1379E
1465.084	2.612	1467863	REC_WORD	2.612	n/a	HOLE	-999	11	[0, 0, 0]	n/a	FR1	0	R1379E
1467.696	7.893	1470475	REC_WORD	7.893	n/a	NET	-999	11	[0, 0, 0]	n/a	FR1	0	R1379E
1475.589	7.39	1478368	REC_WORD	7.39	n/a	FORK	-999	11	[0, 0, 0]	n/a	FR1	0	R1379E
1482.979	2.619	1485757	REC_END	n/a	n/a	n/a	-999	11	[0, 0, 0]	n/a	FR1	0	R1379E
1485.598	10.35	1488383	COUNTDOWN_START	n/a	n/a	n/a	-999	12	[0, 0, 0]	n/a	FR1	0	R1379E
1495.948	0.001	1498729	COUNTDOWN_END	n/a	n/a	n/a	-999	12	[0, 0, 0]	n/a	FR1	0	R1379E
1495.949	2.149	1498729	ENCODING_START	n/a	n/a	n/a	-999	12	[0, 0, 0]	n/a	FR1	0	R1379E
1498.098	1.6	1500873	WORD	n/a	n/a	TOOL	1	12	[0, 0, 0]	n/a	FR1	0	R1379E
1499.698	0.8	1502473	WORD_OFF	n/a	n/a	TOOL	1	12	[0, 0, 0]	n/a	FR1	0	R1379E
1500.498	1.616	1503273	WORD	n/a	n/a	WAVE	2	12	[0, 0, 0]	n/a	FR1	0	R1379E
1502.114	0.9	1504894	WORD_OFF	n/a	n/a	WAVE	2	12	[0, 0, 0]	n/a	FR1	0	R1379E
1503.014	1.6	1505790	WORD	n/a	n/a	CUP	3	12	[0, 0, 0]	n/a	FR1	0	R1379E
1504.614	0.884	1507390	WORD_OFF	n/a	n/a	CUP	3	12	[0, 0, 0]	n/a	FR1	0	R1379E
1505.498	1.6	1508276	WORD	n/a	n/a	PRINCE	4	12	[0, 0, 0]	n/a	FR1	0	R1379E
1507.098	0.85	1509876	WORD_OFF	n/a	n/a	PRINCE	4	12	[0, 0, 0]	n/a	FR1	0	R1379E
1507.948	1.6	1510729	WORD	n/a	n/a	CAMP	5	12	[0, 0, 0]	n/a	FR1	0	R1379E
1509.548	0.816	1512329	WORD_OFF	n/a	n/a	CAMP	5	12	[0, 0, 0]	n/a	FR1	0	R1379E
1510.364	1.6	1513140	WORD	n/a	n/a	SACK	6	12	[0, 0, 0]	n/a	FR1	0	R1379E
1511.964	0.949	1514740	WORD_OFF	n/a	n/a	SACK	6	12	[0, 0, 0]	n/a	FR1	0	R1379E
1512.913	1.6	1515689	WORD	n/a	n/a	MAT	7	12	[0, 0, 0]	n/a	FR1	0	R1379E
1514.513	0.835	1517289	WORD_OFF	n/a	n/a	MAT	7	12	[0, 0, 0]	n/a	FR1	0	R1379E
1515.348	1.616	1518121	WORD	n/a	n/a	WOOD	8	12	[0, 0, 0]	n/a	FR1	0	R1379E
1516.964	0.9	1519742	WORD_OFF	n/a	n/a	WOOD	8	12	[0, 0, 0]	n/a	FR1	0	R1379E
1517.864	1.616	1520638	WORD	n/a	n/a	CHILD	9	12	[0, 0, 0]	n/a	FR1	0	R1379E
1519.48	0.801	1522260	WORD_OFF	n/a	n/a	CHILD	9	12	[0, 0, 0]	n/a	FR1	0	R1379E
1520.281	1.6	1523060	WORD	n/a	n/a	CAGE	10	12	[0, 0, 0]	n/a	FR1	0	R1379E
1521.881	0.899	1524660	WORD_OFF	n/a	n/a	CAGE	10	12	[0, 0, 0]	n/a	FR1	0	R1379E
1522.78	1.601	1525556	WORD	n/a	n/a	SUIT	11	12	[0, 0, 0]	n/a	FR1	0	R1379E
1524.381	0.766	1527156	WORD_OFF	n/a	n/a	SUIT	11	12	[0, 0, 0]	n/a	FR1	0	R1379E
1525.147	1.6	1527924	WORD	n/a	n/a	RAMP	12	12	[0, 0, 0]	n/a	FR1	0	R1379E
1526.747	0.002	1529524	WORD_OFF	n/a	n/a	RAMP	12	12	[0, 0, 0]	n/a	FR1	0	R1379E
1526.749	0.0	1529524	ENCODING_END	n/a	n/a	n/a	-999	12	[0, 0, 0]	n/a	FR1	0	R1379E
1526.748	0.001	1529525	PROB	0.001	n/a	n/a	-999	12	[1, 6, 7]	14	FR1	0	R1379E
1526.749	0.0	1529526	START	n/a	n/a	n/a	-999	12	[-999, -999, -999]	n/a	FR1	0	R1379E
1526.749	3.899	1529534	DISTRACT_START	n/a	n/a	n/a	-999	12	[0, 0, 0]	n/a	FR1	0	R1379E
1530.648	2.9	1533425	PROB	2.9	n/a	n/a	-999	12	[5, 4, 5]	14	FR1	0	R1379E
1533.548	3.0	1536325	PROB	3.0	n/a	n/a	-999	12	[2, 2, 7]	11	FR1	0	R1379E
1536.548	2.416	1539325	PROB	2.416	n/a	n/a	-999	12	[2, 8, 5]	15	FR1	0	R1379E
1538.964	3.284	1541741	PROB	3.284	n/a	n/a	-999	12	[1, 3, 1]	5	FR1	0	R1379E
1542.248	2.8	1545025	PROB	2.8	n/a	n/a	-999	12	[6, 5, 4]	15	FR1	0	R1379E
1545.048	4.466	1547825	PROB	4.466	n/a	n/a	-999	12	[6, 5, 7]	20	FR1	0	R1379E
1549.514	0.0	1552290	STOP	n/a	n/a	n/a	-999	12	[-999, -999, -999]	n/a	FR1	0	R1379E
1549.514	1.834	1552297	DISTRACT_END	n/a	n/a	n/a	-999	12	[0, 0, 0]	n/a	FR1	0	R1379E
1551.348	5.589	1554130	REC_START	n/a	n/a	n/a	-999	12	[0, 0, 0]	n/a	FR1	0	R1379E
1556.937	2.736	1559713	REC_WORD	2.736	n/a	STEAK	-999	12	[0, 0, 0]	n/a	FR1	0	R1379E
1559.673	7.444	1562449	REC_WORD_VV	7.444	n/a	<>	-999	12	[0, 0, 0]	n/a	FR1	0	R1379E
1567.117	8.024	1569893	REC_WORD	8.024	n/a	WEB	-999	12	[0, 0, 0]	n/a	FR1	0	R1379E
1575.141	1.04	1577917	REC_WORD	1.04	n/a	FORK	-999	12	[0, 0, 0]	n/a	FR1	0	R1379E
1576.181	2.599	1578956	REC_WORD_VV	2.599	n/a	<>	-999	12	[0, 0, 0]	n/a	FR1	0	R1379E
1578.78	2.827	1581555	REC_WORD	2.827	n/a	STOOL	-999	12	[0, 0, 0]	n/a	FR1	0	R1379E
1581.607	0.0	1584381	REC_END	n/a	n/a	n/a	-999	12	[0, 0, 0]	n/a	FR1	0	R1379E
