onset	duration	sample	trial_type	response_time	stim_file	item_name	serialpos	list	test	answer	experiment	session	subject
0.0	0.0	15090	INSTRUCT_START	n/a	n/a	n/a	-999	-999	[0, 0, 0]	n/a	FR1	2	R1146E
0.0	11.022	15090	INSTRUCT_END	n/a	n/a	n/a	-999	-999	[0, 0, 0]	n/a	FR1	2	R1146E
11.022	0.0	26112	SESS_START	n/a	n/a	n/a	-999	-999	[0, 0, 0]	n/a	FR1	2	R1146E
11.022	18.501	26112	MIC_TEST	n/a	n/a	n/a	-999	-999	[0, 0, 0]	n/a	FR1	2	R1146E
29.523	4.333	44612	PRACTICE_TRIAL	n/a	n/a	n/a	-999	-1	[0, 0, 0]	n/a	FR1	2	R1146E
33.856	10.428	48945	COUNTDOWN_START	n/a	n/a	n/a	-999	-1	[0, 0, 0]	n/a	FR1	2	R1146E
44.284	0.007	59372	COUNTDOWN_END	n/a	n/a	n/a	-999	-1	[0, 0, 0]	n/a	FR1	2	R1146E
44.291	1.617	59379	PRACTICE_ORIENT	n/a	n/a	n/a	-999	-1	[0, 0, 0]	n/a	FR1	2	R1146E
45.908	2.133	60996	PRACTICE_ORIENT_OFF	n/a	n/a	n/a	-999	-1	[0, 0, 0]	n/a	FR1	2	R1146E
48.041	1.617	63129	PRACTICE_WORD	n/a	n/a	TONGUE	1	-1	[0, 0, 0]	n/a	FR1	2	R1146E
49.658	0.8	64746	PRACTICE_WORD_OFF	n/a	n/a	TONGUE	-999	-1	[0, 0, 0]	n/a	FR1	2	R1146E
50.458	1.618	65546	PRACTICE_WORD	n/a	n/a	IRON	2	-1	[0, 0, 0]	n/a	FR1	2	R1146E
52.076	0.95	67164	PRACTICE_WORD_OFF	n/a	n/a	IRON	-999	-1	[0, 0, 0]	n/a	FR1	2	R1146E
53.026	1.616	68114	PRACTICE_WORD	n/a	n/a	ATTIC	3	-1	[0, 0, 0]	n/a	FR1	2	R1146E
54.642	0.8	69730	PRACTICE_WORD_OFF	n/a	n/a	ATTIC	-999	-1	[0, 0, 0]	n/a	FR1	2	R1146E
55.442	1.618	70530	PRACTICE_WORD	n/a	n/a	COTTON	4	-1	[0, 0, 0]	n/a	FR1	2	R1146E
57.06	0.85	72148	PRACTICE_WORD_OFF	n/a	n/a	COTTON	-999	-1	[0, 0, 0]	n/a	FR1	2	R1146E
57.91	1.616	72998	PRACTICE_WORD	n/a	n/a	CHEST	5	-1	[0, 0, 0]	n/a	FR1	2	R1146E
59.526	0.934	74614	PRACTICE_WORD_OFF	n/a	n/a	CHEST	-999	-1	[0, 0, 0]	n/a	FR1	2	R1146E
60.46	1.618	75548	PRACTICE_WORD	n/a	n/a	BEAM	6	-1	[0, 0, 0]	n/a	FR1	2	R1146E
62.078	0.783	77166	PRACTICE_WORD_OFF	n/a	n/a	BEAM	-999	-1	[0, 0, 0]	n/a	FR1	2	R1146E
62.861	1.616	77949	PRACTICE_WORD	n/a	n/a	CAMEL	7	-1	[0, 0, 0]	n/a	FR1	2	R1146E
64.477	0.818	79565	PRACTICE_WORD_OFF	n/a	n/a	CAMEL	-999	-1	[0, 0, 0]	n/a	FR1	2	R1146E
65.295	1.617	80383	PRACTICE_WORD	n/a	n/a	RHINO	8	-1	[0, 0, 0]	n/a	FR1	2	R1146E
66.912	0.816	81999	PRACTICE_WORD_OFF	n/a	n/a	RHINO	-999	-1	[0, 0, 0]	n/a	FR1	2	R1146E
67.728	1.618	82815	PRACTICE_WORD	n/a	n/a	WATCH	9	-1	[0, 0, 0]	n/a	FR1	2	R1146E
69.346	0.966	84433	PRACTICE_WORD_OFF	n/a	n/a	WATCH	-999	-1	[0, 0, 0]	n/a	FR1	2	R1146E
70.312	1.617	85399	PRACTICE_WORD	n/a	n/a	FLOOD	10	-1	[0, 0, 0]	n/a	FR1	2	R1146E
71.929	0.967	87016	PRACTICE_WORD_OFF	n/a	n/a	FLOOD	-999	-1	[0, 0, 0]	n/a	FR1	2	R1146E
72.896	1.616	87983	PRACTICE_WORD	n/a	n/a	RING	11	-1	[0, 0, 0]	n/a	FR1	2	R1146E
74.512	0.934	89599	PRACTICE_WORD_OFF	n/a	n/a	RING	-999	-1	[0, 0, 0]	n/a	FR1	2	R1146E
75.446	1.617	90533	PRACTICE_WORD	n/a	n/a	WAGON	12	-1	[0, 0, 0]	n/a	FR1	2	R1146E
77.063	0.0	92150	PRACTICE_WORD_OFF	n/a	n/a	WAGON	-999	-1	[0, 0, 0]	n/a	FR1	2	R1146E
77.063	0.001	92150	DISTRACT_START	n/a	n/a	n/a	-999	-1	[0, 0, 0]	n/a	FR1	2	R1146E
77.064	0.016	92151	START	n/a	n/a	n/a	-999	-1	[-999, -999, -999]	n/a	FR1	2	R1146E
77.08	9.068	92167	PROB	9.068	n/a	n/a	-999	-1	[4, 7, 9]	20	FR1	2	R1146E
86.148	8.802	101235	PROB	8.802	n/a	n/a	-999	-1	[9, 6, 9]	24	FR1	2	R1146E
94.95	6.249	110036	PROB	6.249	n/a	n/a	-999	-1	[8, 5, 2]	15	FR1	2	R1146E
101.199	0.019	116285	STOP	n/a	n/a	n/a	-999	-1	[-999, -999, -999]	n/a	FR1	2	R1146E
101.218	0.633	116304	DISTRACT_END	n/a	n/a	n/a	-999	-1	[0, 0, 0]	n/a	FR1	2	R1146E
101.851	0.523	116937	RETRIEVAL_ORIENT	n/a	n/a	n/a	-999	-1	[0, 0, 0]	n/a	FR1	2	R1146E
102.374	30.003	117460	PRACTICE_REC_START	n/a	n/a	n/a	-999	-1	[0, 0, 0]	n/a	FR1	2	R1146E
132.377	11.915	147462	PRACTICE_REC_END	n/a	n/a	n/a	-999	-1	[0, 0, 0]	n/a	FR1	2	R1146E
144.292	0.5	159376	TRIAL	n/a	n/a	n/a	-999	1	[0, 0, 0]	n/a	FR1	2	R1146E
144.792	10.428	159876	COUNTDOWN_START	n/a	n/a	n/a	-999	1	[0, 0, 0]	n/a	FR1	2	R1146E
155.22	0.007	170304	COUNTDOWN_END	n/a	n/a	n/a	-999	1	[0, 0, 0]	n/a	FR1	2	R1146E
155.227	1.617	170311	ORIENT	n/a	n/a	n/a	-999	1	[0, 0, 0]	n/a	FR1	2	R1146E
156.844	2.117	171928	ORIENT_OFF	n/a	n/a	n/a	-999	1	[0, 0, 0]	n/a	FR1	2	R1146E
158.961	1.616	174045	WORD	n/a	wordpools/wordpool_EN.txt	BOX	1	1	[0, 0, 0]	n/a	FR1	2	R1146E
160.577	0.834	175661	WORD_OFF	n/a	n/a	BOX	1	1	[0, 0, 0]	n/a	FR1	2	R1146E
161.411	1.618	176495	WORD	n/a	wordpools/wordpool_EN.txt	COUCH	2	1	[0, 0, 0]	n/a	FR1	2	R1146E
163.029	0.799	178113	WORD_OFF	n/a	n/a	COUCH	2	1	[0, 0, 0]	n/a	FR1	2	R1146E
163.828	1.617	178911	WORD	n/a	wordpools/wordpool_EN.txt	FACE	3	1	[0, 0, 0]	n/a	FR1	2	R1146E
165.445	0.784	180528	WORD_OFF	n/a	n/a	FACE	3	1	[0, 0, 0]	n/a	FR1	2	R1146E
166.229	1.617	181312	WORD	n/a	wordpools/wordpool_EN.txt	BUSH	4	1	[0, 0, 0]	n/a	FR1	2	R1146E
167.846	0.916	182929	WORD_OFF	n/a	n/a	BUSH	4	1	[0, 0, 0]	n/a	FR1	2	R1146E
168.762	1.618	183845	WORD	n/a	wordpools/wordpool_EN.txt	SPRING	5	1	[0, 0, 0]	n/a	FR1	2	R1146E
170.38	0.967	185463	WORD_OFF	n/a	n/a	SPRING	5	1	[0, 0, 0]	n/a	FR1	2	R1146E
171.347	1.617	186430	WORD	n/a	wordpools/wordpool_EN.txt	FRUIT	6	1	[0, 0, 0]	n/a	FR1	2	R1146E
172.964	0.849	188047	WORD_OFF	n/a	n/a	FRUIT	6	1	[0, 0, 0]	n/a	FR1	2	R1146E
173.813	1.617	188896	WORD	n/a	wordpools/wordpool_EN.txt	GUARD	7	1	[0, 0, 0]	n/a	FR1	2	R1146E
175.43	0.834	190513	WORD_OFF	n/a	n/a	GUARD	7	1	[0, 0, 0]	n/a	FR1	2	R1146E
176.264	1.617	191347	WORD	n/a	wordpools/wordpool_EN.txt	ROSE	8	1	[0, 0, 0]	n/a	FR1	2	R1146E
177.881	0.984	192964	WORD_OFF	n/a	n/a	ROSE	8	1	[0, 0, 0]	n/a	FR1	2	R1146E
178.865	1.616	193948	WORD	n/a	wordpools/wordpool_EN.txt	PHONE	9	1	[0, 0, 0]	n/a	FR1	2	R1146E
180.481	1.0	195564	WORD_OFF	n/a	n/a	PHONE	9	1	[0, 0, 0]	n/a	FR1	2	R1146E
181.481	1.618	196564	WORD	n/a	wordpools/wordpool_EN.txt	MOOSE	10	1	[0, 0, 0]	n/a	FR1	2	R1146E
183.099	0.933	198182	WORD_OFF	n/a	n/a	MOOSE	10	1	[0, 0, 0]	n/a	FR1	2	R1146E
184.032	1.616	199115	WORD	n/a	wordpools/wordpool_EN.txt	PURSE	11	1	[0, 0, 0]	n/a	FR1	2	R1146E
185.648	0.884	200731	WORD_OFF	n/a	n/a	PURSE	11	1	[0, 0, 0]	n/a	FR1	2	R1146E
186.532	1.618	201615	WORD	n/a	wordpools/wordpool_EN.txt	FLAME	12	1	[0, 0, 0]	n/a	FR1	2	R1146E
188.15	0.0	203232	WORD_OFF	n/a	n/a	FLAME	12	1	[0, 0, 0]	n/a	FR1	2	R1146E
188.15	0.0	203232	DISTRACT_START	n/a	n/a	n/a	-999	1	[0, 0, 0]	n/a	FR1	2	R1146E
188.15	0.016	203232	START	n/a	n/a	n/a	-999	1	[-999, -999, -999]	n/a	FR1	2	R1146E
188.166	7.617	203248	PROB	7.617	n/a	n/a	-999	1	[4, 4, 6]	14	FR1	2	R1146E
195.783	4.885	210865	PROB	4.885	n/a	n/a	-999	1	[5, 6, 3]	14	FR1	2	R1146E
200.668	4.618	215750	PROB	4.618	n/a	n/a	-999	1	[5, 4, 5]	14	FR1	2	R1146E
205.286	7.847	220368	PROB	7.847	n/a	n/a	-999	1	[2, 9, 7]	17	FR1	2	R1146E
213.133	0.021	228214	STOP	n/a	n/a	n/a	-999	1	[-999, -999, -999]	n/a	FR1	2	R1146E
213.154	0.7	228235	DISTRACT_END	n/a	n/a	n/a	-999	1	[0, 0, 0]	n/a	FR1	2	R1146E
213.854	0.52	228935	RETRIEVAL_ORIENT	n/a	n/a	n/a	-999	1	[0, 0, 0]	n/a	FR1	2	R1146E
214.374	6.437	229455	REC_START	n/a	n/a	n/a	-999	1	[0, 0, 0]	n/a	FR1	2	R1146E
220.811	23.028	235892	REC_WORD_VV	23.028	n/a	<>	-999	1	[0, 0, 0]	n/a	FR1	2	R1146E
243.839	0.542	258919	REC_WORD	0.542	n/a	BOX	-999	1	[0, 0, 0]	n/a	FR1	2	R1146E
244.381	8.497	259461	REC_END	n/a	n/a	n/a	-999	1	[0, 0, 0]	n/a	FR1	2	R1146E
252.878	0.5	267958	TRIAL	n/a	n/a	n/a	-999	2	[0, 0, 0]	n/a	FR1	2	R1146E
253.378	10.428	268458	COUNTDOWN_START	n/a	n/a	n/a	-999	2	[0, 0, 0]	n/a	FR1	2	R1146E
263.806	0.006	278885	COUNTDOWN_END	n/a	n/a	n/a	-999	2	[0, 0, 0]	n/a	FR1	2	R1146E
263.812	1.617	278891	ORIENT	n/a	n/a	n/a	-999	2	[0, 0, 0]	n/a	FR1	2	R1146E
265.429	2.184	280508	ORIENT_OFF	n/a	n/a	n/a	-999	2	[0, 0, 0]	n/a	FR1	2	R1146E
267.613	1.618	282692	WORD	n/a	wordpools/wordpool_EN.txt	PEAR	1	2	[0, 0, 0]	n/a	FR1	2	R1146E
269.231	0.85	284310	WORD_OFF	n/a	n/a	PEAR	1	2	[0, 0, 0]	n/a	FR1	2	R1146E
270.081	1.616	285160	WORD	n/a	wordpools/wordpool_EN.txt	SHIP	2	2	[0, 0, 0]	n/a	FR1	2	R1146E
271.697	0.966	286776	WORD_OFF	n/a	n/a	SHIP	2	2	[0, 0, 0]	n/a	FR1	2	R1146E
272.663	1.601	287742	WORD	n/a	wordpools/wordpool_EN.txt	GOAT	3	2	[0, 0, 0]	n/a	FR1	2	R1146E
274.264	0.834	289343	WORD_OFF	n/a	n/a	GOAT	3	2	[0, 0, 0]	n/a	FR1	2	R1146E
275.098	1.616	290177	WORD	n/a	wordpools/wordpool_EN.txt	TREE	4	2	[0, 0, 0]	n/a	FR1	2	R1146E
276.714	0.967	291793	WORD_OFF	n/a	n/a	TREE	4	2	[0, 0, 0]	n/a	FR1	2	R1146E
277.681	1.618	292760	WORD	n/a	wordpools/wordpool_EN.txt	MAIL	5	2	[0, 0, 0]	n/a	FR1	2	R1146E
279.299	0.933	294378	WORD_OFF	n/a	n/a	MAIL	5	2	[0, 0, 0]	n/a	FR1	2	R1146E
280.232	1.617	295311	WORD	n/a	wordpools/wordpool_EN.txt	FORT	6	2	[0, 0, 0]	n/a	FR1	2	R1146E
281.849	0.8	296928	WORD_OFF	n/a	n/a	FORT	6	2	[0, 0, 0]	n/a	FR1	2	R1146E
282.649	1.618	297728	WORD	n/a	wordpools/wordpool_EN.txt	STAIR	7	2	[0, 0, 0]	n/a	FR1	2	R1146E
284.267	0.95	299345	WORD_OFF	n/a	n/a	STAIR	7	2	[0, 0, 0]	n/a	FR1	2	R1146E
285.217	1.617	300295	WORD	n/a	wordpools/wordpool_EN.txt	ZOO	8	2	[0, 0, 0]	n/a	FR1	2	R1146E
286.834	0.949	301912	WORD_OFF	n/a	n/a	ZOO	8	2	[0, 0, 0]	n/a	FR1	2	R1146E
287.783	1.617	302861	WORD	n/a	wordpools/wordpool_EN.txt	BOAT	9	2	[0, 0, 0]	n/a	FR1	2	R1146E
289.4	0.868	304478	WORD_OFF	n/a	n/a	BOAT	9	2	[0, 0, 0]	n/a	FR1	2	R1146E
290.268	1.617	305346	WORD	n/a	wordpools/wordpool_EN.txt	PET	10	2	[0, 0, 0]	n/a	FR1	2	R1146E
291.885	0.849	306963	WORD_OFF	n/a	n/a	PET	10	2	[0, 0, 0]	n/a	FR1	2	R1146E
292.734	1.618	307812	WORD	n/a	wordpools/wordpool_EN.txt	JET	11	2	[0, 0, 0]	n/a	FR1	2	R1146E
294.352	0.783	309430	WORD_OFF	n/a	n/a	JET	11	2	[0, 0, 0]	n/a	FR1	2	R1146E
295.135	1.616	310213	WORD	n/a	wordpools/wordpool_EN.txt	EEL	12	2	[0, 0, 0]	n/a	FR1	2	R1146E
296.751	0.0	311829	DISTRACT_START	n/a	n/a	n/a	-999	2	[0, 0, 0]	n/a	FR1	2	R1146E
296.751	0.001	311829	WORD_OFF	n/a	n/a	EEL	12	2	[0, 0, 0]	n/a	FR1	2	R1146E
296.752	0.016	311830	START	n/a	n/a	n/a	-999	2	[-999, -999, -999]	n/a	FR1	2	R1146E
296.768	5.967	311846	PROB	5.967	n/a	n/a	-999	2	[7, 7, 6]	20	FR1	2	R1146E
302.735	5.302	317813	PROB	5.302	n/a	n/a	-999	2	[6, 8, 2]	16	FR1	2	R1146E
308.037	11.145	323115	PROB	11.145	n/a	n/a	-999	2	[9, 6, 6]	21	FR1	2	R1146E
319.182	0.007	334259	STOP	n/a	n/a	n/a	-999	2	[-999, -999, -999]	n/a	FR1	2	R1146E
319.189	0.599	334266	DISTRACT_END	n/a	n/a	n/a	-999	2	[0, 0, 0]	n/a	FR1	2	R1146E
319.788	0.519	334865	RETRIEVAL_ORIENT	n/a	n/a	n/a	-999	2	[0, 0, 0]	n/a	FR1	2	R1146E
320.307	1.334	335384	REC_START	n/a	n/a	n/a	-999	2	[0, 0, 0]	n/a	FR1	2	R1146E
321.641	4.878	336718	REC_WORD	4.878	n/a	JET	-999	2	[0, 0, 0]	n/a	FR1	2	R1146E
326.519	6.416	341596	REC_WORD	6.416	n/a	PET	-999	2	[0, 0, 0]	n/a	FR1	2	R1146E
332.935	6.946	348011	REC_WORD	6.946	n/a	SKI	-999	2	[0, 0, 0]	n/a	FR1	2	R1146E
339.881	9.566	354957	REC_WORD	9.566	n/a	EEL	-999	2	[0, 0, 0]	n/a	FR1	2	R1146E
349.447	0.869	364523	REC_WORD	0.869	n/a	BOAT	-999	2	[0, 0, 0]	n/a	FR1	2	R1146E
350.316	54.755	365392	REC_END	n/a	n/a	n/a	-999	2	[0, 0, 0]	n/a	FR1	2	R1146E
405.071	0.5	420144	TRIAL	n/a	n/a	n/a	-999	3	[0, 0, 0]	n/a	FR1	2	R1146E
405.571	10.428	420644	COUNTDOWN_START	n/a	n/a	n/a	-999	3	[0, 0, 0]	n/a	FR1	2	R1146E
415.999	0.007	431072	COUNTDOWN_END	n/a	n/a	n/a	-999	3	[0, 0, 0]	n/a	FR1	2	R1146E
416.006	1.616	431079	ORIENT	n/a	n/a	n/a	-999	3	[0, 0, 0]	n/a	FR1	2	R1146E
417.622	2.017	432695	ORIENT_OFF	n/a	n/a	n/a	-999	3	[0, 0, 0]	n/a	FR1	2	R1146E
419.639	1.618	434712	WORD	n/a	wordpools/wordpool_EN.txt	CORD	1	3	[0, 0, 0]	n/a	FR1	2	R1146E
421.257	1.0	436330	WORD_OFF	n/a	n/a	CORD	1	3	[0, 0, 0]	n/a	FR1	2	R1146E
422.257	1.617	437330	WORD	n/a	wordpools/wordpool_EN.txt	POND	2	3	[0, 0, 0]	n/a	FR1	2	R1146E
423.874	0.967	438947	WORD_OFF	n/a	n/a	POND	2	3	[0, 0, 0]	n/a	FR1	2	R1146E
424.841	1.616	439914	WORD	n/a	wordpools/wordpool_EN.txt	CHALK	3	3	[0, 0, 0]	n/a	FR1	2	R1146E
426.457	1.0	441530	WORD_OFF	n/a	n/a	CHALK	3	3	[0, 0, 0]	n/a	FR1	2	R1146E
427.457	1.618	442530	WORD	n/a	wordpools/wordpool_EN.txt	TRASH	4	3	[0, 0, 0]	n/a	FR1	2	R1146E
429.075	0.984	444148	WORD_OFF	n/a	n/a	TRASH	4	3	[0, 0, 0]	n/a	FR1	2	R1146E
430.059	1.616	445131	WORD	n/a	wordpools/wordpool_EN.txt	BED	5	3	[0, 0, 0]	n/a	FR1	2	R1146E
431.675	0.833	446747	WORD_OFF	n/a	n/a	BED	5	3	[0, 0, 0]	n/a	FR1	2	R1146E
432.508	1.618	447580	WORD	n/a	wordpools/wordpool_EN.txt	SHRIMP	6	3	[0, 0, 0]	n/a	FR1	2	R1146E
434.126	0.8	449198	WORD_OFF	n/a	n/a	SHRIMP	6	3	[0, 0, 0]	n/a	FR1	2	R1146E
434.926	1.616	449998	WORD	n/a	wordpools/wordpool_EN.txt	FILM	7	3	[0, 0, 0]	n/a	FR1	2	R1146E
436.542	0.884	451614	WORD_OFF	n/a	n/a	FILM	7	3	[0, 0, 0]	n/a	FR1	2	R1146E
437.426	1.618	452498	WORD	n/a	wordpools/wordpool_EN.txt	NEST	8	3	[0, 0, 0]	n/a	FR1	2	R1146E
439.044	0.816	454116	WORD_OFF	n/a	n/a	NEST	8	3	[0, 0, 0]	n/a	FR1	2	R1146E
439.86	1.616	454932	WORD	n/a	wordpools/wordpool_EN.txt	SLUSH	9	3	[0, 0, 0]	n/a	FR1	2	R1146E
441.476	1.017	456548	WORD_OFF	n/a	n/a	SLUSH	9	3	[0, 0, 0]	n/a	FR1	2	R1146E
442.493	1.601	457565	WORD	n/a	wordpools/wordpool_EN.txt	GOLD	10	3	[0, 0, 0]	n/a	FR1	2	R1146E
444.094	0.967	459166	WORD_OFF	n/a	n/a	GOLD	10	3	[0, 0, 0]	n/a	FR1	2	R1146E
445.061	1.616	460133	WORD	n/a	wordpools/wordpool_EN.txt	ROCK	11	3	[0, 0, 0]	n/a	FR1	2	R1146E
446.677	0.784	461749	WORD_OFF	n/a	n/a	ROCK	11	3	[0, 0, 0]	n/a	FR1	2	R1146E
447.461	1.618	462533	WORD	n/a	wordpools/wordpool_EN.txt	MOTH	12	3	[0, 0, 0]	n/a	FR1	2	R1146E
449.079	0.0	464151	WORD_OFF	n/a	n/a	MOTH	12	3	[0, 0, 0]	n/a	FR1	2	R1146E
449.079	0.0	464151	DISTRACT_START	n/a	n/a	n/a	-999	3	[0, 0, 0]	n/a	FR1	2	R1146E
449.079	0.016	464151	START	n/a	n/a	n/a	-999	3	[-999, -999, -999]	n/a	FR1	2	R1146E
449.095	10.802	464167	PROB	10.802	n/a	n/a	-999	3	[5, 9, 6]	20	FR1	2	R1146E
459.897	16.581	474968	PROB	16.581	n/a	n/a	-999	3	[3, 6, 8]	17	FR1	2	R1146E
476.478	0.021	491549	STOP	n/a	n/a	n/a	-999	3	[-999, -999, -999]	n/a	FR1	2	R1146E
476.499	0.568	491570	DISTRACT_END	n/a	n/a	n/a	-999	3	[0, 0, 0]	n/a	FR1	2	R1146E
477.067	0.516	492138	RETRIEVAL_ORIENT	n/a	n/a	n/a	-999	3	[0, 0, 0]	n/a	FR1	2	R1146E
477.583	1.814	492653	REC_START	n/a	n/a	n/a	-999	3	[0, 0, 0]	n/a	FR1	2	R1146E
479.397	9.866	494467	REC_WORD	9.866	n/a	BED	-999	3	[0, 0, 0]	n/a	FR1	2	R1146E
489.263	18.33	504333	REC_WORD	18.33	n/a	NEST	-999	3	[0, 0, 0]	n/a	FR1	2	R1146E
507.593	10.448	522662	REC_END	n/a	n/a	n/a	-999	3	[0, 0, 0]	n/a	FR1	2	R1146E
518.041	0.5	533110	TRIAL	n/a	n/a	n/a	-999	4	[0, 0, 0]	n/a	FR1	2	R1146E
518.541	10.428	533610	COUNTDOWN_START	n/a	n/a	n/a	-999	4	[0, 0, 0]	n/a	FR1	2	R1146E
528.969	0.007	544037	COUNTDOWN_END	n/a	n/a	n/a	-999	4	[0, 0, 0]	n/a	FR1	2	R1146E
528.976	1.616	544044	ORIENT	n/a	n/a	n/a	-999	4	[0, 0, 0]	n/a	FR1	2	R1146E
530.592	2.234	545660	ORIENT_OFF	n/a	n/a	n/a	-999	4	[0, 0, 0]	n/a	FR1	2	R1146E
532.826	1.617	547894	WORD	n/a	wordpools/wordpool_EN.txt	ANT	1	4	[0, 0, 0]	n/a	FR1	2	R1146E
534.443	0.868	549511	WORD_OFF	n/a	n/a	ANT	1	4	[0, 0, 0]	n/a	FR1	2	R1146E
535.311	1.617	550379	WORD	n/a	wordpools/wordpool_EN.txt	CORN	2	4	[0, 0, 0]	n/a	FR1	2	R1146E
536.928	0.899	551996	WORD_OFF	n/a	n/a	CORN	2	4	[0, 0, 0]	n/a	FR1	2	R1146E
537.827	1.617	552895	WORD	n/a	wordpools/wordpool_EN.txt	SEAL	3	4	[0, 0, 0]	n/a	FR1	2	R1146E
539.444	0.851	554512	WORD_OFF	n/a	n/a	SEAL	3	4	[0, 0, 0]	n/a	FR1	2	R1146E
540.295	1.617	555363	WORD	n/a	wordpools/wordpool_EN.txt	GLOVE	4	4	[0, 0, 0]	n/a	FR1	2	R1146E
541.912	0.782	556980	WORD_OFF	n/a	n/a	GLOVE	4	4	[0, 0, 0]	n/a	FR1	2	R1146E
542.694	1.618	557762	WORD	n/a	wordpools/wordpool_EN.txt	SALT	5	4	[0, 0, 0]	n/a	FR1	2	R1146E
544.312	0.784	559380	WORD_OFF	n/a	n/a	SALT	5	4	[0, 0, 0]	n/a	FR1	2	R1146E
545.096	1.616	560164	WORD	n/a	wordpools/wordpool_EN.txt	HAT	6	4	[0, 0, 0]	n/a	FR1	2	R1146E
546.712	0.95	561780	WORD_OFF	n/a	n/a	HAT	6	4	[0, 0, 0]	n/a	FR1	2	R1146E
547.662	1.618	562730	WORD	n/a	wordpools/wordpool_EN.txt	CASH	7	4	[0, 0, 0]	n/a	FR1	2	R1146E
549.28	0.967	564348	WORD_OFF	n/a	n/a	CASH	7	4	[0, 0, 0]	n/a	FR1	2	R1146E
550.247	1.617	565314	WORD	n/a	wordpools/wordpool_EN.txt	STAR	8	4	[0, 0, 0]	n/a	FR1	2	R1146E
551.864	0.765	566931	WORD_OFF	n/a	n/a	STAR	8	4	[0, 0, 0]	n/a	FR1	2	R1146E
552.629	1.601	567696	WORD	n/a	wordpools/wordpool_EN.txt	DART	9	4	[0, 0, 0]	n/a	FR1	2	R1146E
554.23	1.001	569297	WORD_OFF	n/a	n/a	DART	9	4	[0, 0, 0]	n/a	FR1	2	R1146E
555.231	1.617	570298	WORD	n/a	wordpools/wordpool_EN.txt	SMOKE	10	4	[0, 0, 0]	n/a	FR1	2	R1146E
556.848	0.949	571915	WORD_OFF	n/a	n/a	SMOKE	10	4	[0, 0, 0]	n/a	FR1	2	R1146E
557.797	1.617	572864	WORD	n/a	wordpools/wordpool_EN.txt	WING	11	4	[0, 0, 0]	n/a	FR1	2	R1146E
559.414	0.934	574481	WORD_OFF	n/a	n/a	WING	11	4	[0, 0, 0]	n/a	FR1	2	R1146E
560.348	1.617	575415	WORD	n/a	wordpools/wordpool_EN.txt	WORM	12	4	[0, 0, 0]	n/a	FR1	2	R1146E
561.965	0.0	577032	WORD_OFF	n/a	n/a	WORM	12	4	[0, 0, 0]	n/a	FR1	2	R1146E
561.965	0.001	577032	DISTRACT_START	n/a	n/a	n/a	-999	4	[0, 0, 0]	n/a	FR1	2	R1146E
561.966	0.016	577033	START	n/a	n/a	n/a	-999	4	[-999, -999, -999]	n/a	FR1	2	R1146E
561.982	4.884	577049	PROB	4.884	n/a	n/a	-999	4	[6, 3, 3]	12	FR1	2	R1146E
566.866	2.866	581933	PROB	2.866	n/a	n/a	-999	4	[1, 3, 1]	5	FR1	2	R1146E
569.732	5.369	584799	PROB	5.369	n/a	n/a	-999	4	[5, 9, 2]	15	FR1	2	R1146E
575.101	8.34	590167	PROB	8.34	n/a	n/a	-999	4	[3, 2, 6]	11	FR1	2	R1146E
583.441	0.01	598507	STOP	n/a	n/a	n/a	-999	4	[-999, -999, -999]	n/a	FR1	2	R1146E
583.451	0.518	598517	DISTRACT_END	n/a	n/a	n/a	-999	4	[0, 0, 0]	n/a	FR1	2	R1146E
583.969	0.517	599035	RETRIEVAL_ORIENT	n/a	n/a	n/a	-999	4	[0, 0, 0]	n/a	FR1	2	R1146E
584.486	30.0	599552	REC_START	n/a	n/a	n/a	-999	4	[0, 0, 0]	n/a	FR1	2	R1146E
614.486	0.01	629551	REC_WORD_VV	0.01	n/a	<>	-999	4	[0, 0, 0]	n/a	FR1	2	R1146E
614.496	13.364	629561	REC_END	n/a	n/a	n/a	-999	4	[0, 0, 0]	n/a	FR1	2	R1146E
627.86	0.5	642924	TRIAL	n/a	n/a	n/a	-999	5	[0, 0, 0]	n/a	FR1	2	R1146E
628.36	10.428	643424	COUNTDOWN_START	n/a	n/a	n/a	-999	5	[0, 0, 0]	n/a	FR1	2	R1146E
638.788	0.006	653852	COUNTDOWN_END	n/a	n/a	n/a	-999	5	[0, 0, 0]	n/a	FR1	2	R1146E
638.794	1.601	653858	ORIENT	n/a	n/a	n/a	-999	5	[0, 0, 0]	n/a	FR1	2	R1146E
640.395	1.951	655459	ORIENT_OFF	n/a	n/a	n/a	-999	5	[0, 0, 0]	n/a	FR1	2	R1146E
642.346	1.617	657410	WORD	n/a	wordpools/wordpool_EN.txt	CAVE	1	5	[0, 0, 0]	n/a	FR1	2	R1146E
643.963	0.883	659027	WORD_OFF	n/a	n/a	CAVE	1	5	[0, 0, 0]	n/a	FR1	2	R1146E
644.846	1.616	659910	WORD	n/a	wordpools/wordpool_EN.txt	FUDGE	2	5	[0, 0, 0]	n/a	FR1	2	R1146E
646.462	0.984	661526	WORD_OFF	n/a	n/a	FUDGE	2	5	[0, 0, 0]	n/a	FR1	2	R1146E
647.446	1.618	662509	WORD	n/a	wordpools/wordpool_EN.txt	DOCK	3	5	[0, 0, 0]	n/a	FR1	2	R1146E
649.064	0.95	664127	WORD_OFF	n/a	n/a	DOCK	3	5	[0, 0, 0]	n/a	FR1	2	R1146E
650.014	1.616	665077	WORD	n/a	wordpools/wordpool_EN.txt	TOAST	4	5	[0, 0, 0]	n/a	FR1	2	R1146E
651.63	0.984	666693	WORD_OFF	n/a	n/a	TOAST	4	5	[0, 0, 0]	n/a	FR1	2	R1146E
652.614	1.618	667677	WORD	n/a	wordpools/wordpool_EN.txt	LAMB	5	5	[0, 0, 0]	n/a	FR1	2	R1146E
654.232	0.816	669295	WORD_OFF	n/a	n/a	LAMB	5	5	[0, 0, 0]	n/a	FR1	2	R1146E
655.048	1.616	670111	WORD	n/a	wordpools/wordpool_EN.txt	MOLE	6	5	[0, 0, 0]	n/a	FR1	2	R1146E
656.664	0.984	671727	WORD_OFF	n/a	n/a	MOLE	6	5	[0, 0, 0]	n/a	FR1	2	R1146E
657.648	1.618	672711	WORD	n/a	wordpools/wordpool_EN.txt	BIRD	7	5	[0, 0, 0]	n/a	FR1	2	R1146E
659.266	1.0	674329	WORD_OFF	n/a	n/a	BIRD	7	5	[0, 0, 0]	n/a	FR1	2	R1146E
660.266	1.617	675329	WORD	n/a	wordpools/wordpool_EN.txt	CLOWN	8	5	[0, 0, 0]	n/a	FR1	2	R1146E
661.883	0.832	676946	WORD_OFF	n/a	n/a	CLOWN	8	5	[0, 0, 0]	n/a	FR1	2	R1146E
662.715	1.618	677778	WORD	n/a	wordpools/wordpool_EN.txt	SKUNK	9	5	[0, 0, 0]	n/a	FR1	2	R1146E
664.333	0.767	679396	WORD_OFF	n/a	n/a	SKUNK	9	5	[0, 0, 0]	n/a	FR1	2	R1146E
665.1	1.616	680163	WORD	n/a	wordpools/wordpool_EN.txt	THUMB	10	5	[0, 0, 0]	n/a	FR1	2	R1146E
666.716	0.967	681779	WORD_OFF	n/a	n/a	THUMB	10	5	[0, 0, 0]	n/a	FR1	2	R1146E
667.683	1.601	682746	WORD	n/a	wordpools/wordpool_EN.txt	SINK	11	5	[0, 0, 0]	n/a	FR1	2	R1146E
669.284	0.867	684347	WORD_OFF	n/a	n/a	SINK	11	5	[0, 0, 0]	n/a	FR1	2	R1146E
670.151	1.616	685214	WORD	n/a	wordpools/wordpool_EN.txt	TAIL	12	5	[0, 0, 0]	n/a	FR1	2	R1146E
671.767	0.0	686829	WORD_OFF	n/a	n/a	TAIL	12	5	[0, 0, 0]	n/a	FR1	2	R1146E
671.767	0.001	686829	DISTRACT_START	n/a	n/a	n/a	-999	5	[0, 0, 0]	n/a	FR1	2	R1146E
671.768	0.016	686830	START	n/a	n/a	n/a	-999	5	[-999, -999, -999]	n/a	FR1	2	R1146E
671.784	4.268	686846	PROB	4.268	n/a	n/a	-999	5	[2, 4, 4]	10	FR1	2	R1146E
676.052	11.069	691114	PROB	11.069	n/a	n/a	-999	5	[3, 3, 2]	8	FR1	2	R1146E
687.121	7.038	702183	PROB	7.038	n/a	n/a	-999	5	[3, 7, 8]	18	FR1	2	R1146E
694.159	0.013	709221	STOP	n/a	n/a	n/a	-999	5	[-999, -999, -999]	n/a	FR1	2	R1146E
694.172	0.599	709234	DISTRACT_END	n/a	n/a	n/a	-999	5	[0, 0, 0]	n/a	FR1	2	R1146E
694.771	0.518	709833	RETRIEVAL_ORIENT	n/a	n/a	n/a	-999	5	[0, 0, 0]	n/a	FR1	2	R1146E
695.289	0.762	710350	REC_START	n/a	n/a	n/a	-999	5	[0, 0, 0]	n/a	FR1	2	R1146E
696.051	1.748	711112	REC_WORD	1.748	n/a	SKUNK	-999	5	[0, 0, 0]	n/a	FR1	2	R1146E
697.799	12.404	712860	REC_WORD	12.404	n/a	MOLE	-999	5	[0, 0, 0]	n/a	FR1	2	R1146E
710.203	15.096	725264	REC_WORD	15.096	n/a	SINK	-999	5	[0, 0, 0]	n/a	FR1	2	R1146E
725.299	23.049	740359	REC_END	n/a	n/a	n/a	-999	5	[0, 0, 0]	n/a	FR1	2	R1146E
748.348	0.5	763407	TRIAL	n/a	n/a	n/a	-999	6	[0, 0, 0]	n/a	FR1	2	R1146E
748.848	10.428	763907	COUNTDOWN_START	n/a	n/a	n/a	-999	6	[0, 0, 0]	n/a	FR1	2	R1146E
759.276	0.007	774335	COUNTDOWN_END	n/a	n/a	n/a	-999	6	[0, 0, 0]	n/a	FR1	2	R1146E
759.283	1.617	774342	ORIENT	n/a	n/a	n/a	-999	6	[0, 0, 0]	n/a	FR1	2	R1146E
760.9	1.951	775959	ORIENT_OFF	n/a	n/a	n/a	-999	6	[0, 0, 0]	n/a	FR1	2	R1146E
762.851	1.616	777910	WORD	n/a	wordpools/wordpool_EN.txt	CAGE	1	6	[0, 0, 0]	n/a	FR1	2	R1146E
764.467	0.767	779526	WORD_OFF	n/a	n/a	CAGE	1	6	[0, 0, 0]	n/a	FR1	2	R1146E
765.234	1.617	780293	WORD	n/a	wordpools/wordpool_EN.txt	FOG	2	6	[0, 0, 0]	n/a	FR1	2	R1146E
766.851	1.0	781910	WORD_OFF	n/a	n/a	FOG	2	6	[0, 0, 0]	n/a	FR1	2	R1146E
767.851	1.616	782909	WORD	n/a	wordpools/wordpool_EN.txt	DOG	3	6	[0, 0, 0]	n/a	FR1	2	R1146E
769.467	1.001	784525	WORD_OFF	n/a	n/a	DOG	3	6	[0, 0, 0]	n/a	FR1	2	R1146E
770.468	1.618	785526	WORD	n/a	wordpools/wordpool_EN.txt	APE	4	6	[0, 0, 0]	n/a	FR1	2	R1146E
772.086	0.95	787144	WORD_OFF	n/a	n/a	APE	4	6	[0, 0, 0]	n/a	FR1	2	R1146E
773.036	1.616	788094	WORD	n/a	wordpools/wordpool_EN.txt	TRUCK	5	6	[0, 0, 0]	n/a	FR1	2	R1146E
774.652	0.933	789710	WORD_OFF	n/a	n/a	TRUCK	5	6	[0, 0, 0]	n/a	FR1	2	R1146E
775.585	1.618	790643	WORD	n/a	wordpools/wordpool_EN.txt	HOLE	6	6	[0, 0, 0]	n/a	FR1	2	R1146E
777.203	0.917	792261	WORD_OFF	n/a	n/a	HOLE	6	6	[0, 0, 0]	n/a	FR1	2	R1146E
778.12	1.616	793178	WORD	n/a	wordpools/wordpool_EN.txt	SUN	7	6	[0, 0, 0]	n/a	FR1	2	R1146E
779.736	1.0	794794	WORD_OFF	n/a	n/a	SUN	7	6	[0, 0, 0]	n/a	FR1	2	R1146E
780.736	1.618	795794	WORD	n/a	wordpools/wordpool_EN.txt	BEAR	8	6	[0, 0, 0]	n/a	FR1	2	R1146E
782.354	0.8	797412	WORD_OFF	n/a	n/a	BEAR	8	6	[0, 0, 0]	n/a	FR1	2	R1146E
783.154	1.616	798212	WORD	n/a	wordpools/wordpool_EN.txt	TEA	9	6	[0, 0, 0]	n/a	FR1	2	R1146E
784.77	0.984	799828	WORD_OFF	n/a	n/a	TEA	9	6	[0, 0, 0]	n/a	FR1	2	R1146E
785.754	1.618	800812	WORD	n/a	wordpools/wordpool_EN.txt	PRINCE	10	6	[0, 0, 0]	n/a	FR1	2	R1146E
787.372	1.016	802430	WORD_OFF	n/a	n/a	PRINCE	10	6	[0, 0, 0]	n/a	FR1	2	R1146E
788.388	1.617	803446	WORD	n/a	wordpools/wordpool_EN.txt	SOCK	11	6	[0, 0, 0]	n/a	FR1	2	R1146E
790.005	0.934	805063	WORD_OFF	n/a	n/a	SOCK	11	6	[0, 0, 0]	n/a	FR1	2	R1146E
790.939	1.616	805997	WORD	n/a	wordpools/wordpool_EN.txt	FORK	12	6	[0, 0, 0]	n/a	FR1	2	R1146E
792.555	0.0	807612	DISTRACT_START	n/a	n/a	n/a	-999	6	[0, 0, 0]	n/a	FR1	2	R1146E
792.555	0.0	807612	WORD_OFF	n/a	n/a	FORK	12	6	[0, 0, 0]	n/a	FR1	2	R1146E
792.555	0.017	807612	START	n/a	n/a	n/a	-999	6	[-999, -999, -999]	n/a	FR1	2	R1146E
792.572	10.569	807629	PROB	10.569	n/a	n/a	-999	6	[5, 4, 4]	13	FR1	2	R1146E
803.141	7.35	818198	PROB	7.35	n/a	n/a	-999	6	[9, 6, 4]	19	FR1	2	R1146E
810.491	6.823	825548	PROB	6.823	n/a	n/a	-999	6	[2, 7, 4]	13	FR1	2	R1146E
817.314	0.013	832370	STOP	n/a	n/a	n/a	-999	6	[-999, -999, -999]	n/a	FR1	2	R1146E
817.327	0.65	832383	DISTRACT_END	n/a	n/a	n/a	-999	6	[0, 0, 0]	n/a	FR1	2	R1146E
817.977	0.516	833033	RETRIEVAL_ORIENT	n/a	n/a	n/a	-999	6	[0, 0, 0]	n/a	FR1	2	R1146E
818.493	6.652	833549	REC_START	n/a	n/a	n/a	-999	6	[0, 0, 0]	n/a	FR1	2	R1146E
825.145	5.91	840201	REC_WORD	5.91	n/a	DOG	-999	6	[0, 0, 0]	n/a	FR1	2	R1146E
831.055	6.125	846111	REC_WORD	6.125	n/a	MOLE	-999	6	[0, 0, 0]	n/a	FR1	2	R1146E
837.18	11.322	852236	REC_WORD	11.322	n/a	SOCK	-999	6	[0, 0, 0]	n/a	FR1	2	R1146E
848.502	16.982	863557	REC_END	n/a	n/a	n/a	-999	6	[0, 0, 0]	n/a	FR1	2	R1146E
865.484	0.5	880538	TRIAL	n/a	n/a	n/a	-999	7	[0, 0, 0]	n/a	FR1	2	R1146E
865.984	10.428	881038	COUNTDOWN_START	n/a	n/a	n/a	-999	7	[0, 0, 0]	n/a	FR1	2	R1146E
876.412	0.008	891466	COUNTDOWN_END	n/a	n/a	n/a	-999	7	[0, 0, 0]	n/a	FR1	2	R1146E
876.42	1.618	891474	ORIENT	n/a	n/a	n/a	-999	7	[0, 0, 0]	n/a	FR1	2	R1146E
878.038	2.083	893092	ORIENT_OFF	n/a	n/a	n/a	-999	7	[0, 0, 0]	n/a	FR1	2	R1146E
880.121	1.616	895175	WORD	n/a	wordpools/wordpool_EN.txt	FOOD	1	7	[0, 0, 0]	n/a	FR1	2	R1146E
881.737	0.867	896791	WORD_OFF	n/a	n/a	FOOD	1	7	[0, 0, 0]	n/a	FR1	2	R1146E
882.604	1.618	897658	WORD	n/a	wordpools/wordpool_EN.txt	PLANE	2	7	[0, 0, 0]	n/a	FR1	2	R1146E
884.222	0.934	899276	WORD_OFF	n/a	n/a	PLANE	2	7	[0, 0, 0]	n/a	FR1	2	R1146E
885.156	1.615	900210	WORD	n/a	wordpools/wordpool_EN.txt	SEED	3	7	[0, 0, 0]	n/a	FR1	2	R1146E
886.771	0.817	901825	WORD_OFF	n/a	n/a	SEED	3	7	[0, 0, 0]	n/a	FR1	2	R1146E
887.588	1.618	902642	WORD	n/a	wordpools/wordpool_EN.txt	STORE	4	7	[0, 0, 0]	n/a	FR1	2	R1146E
889.206	0.917	904259	WORD_OFF	n/a	n/a	STORE	4	7	[0, 0, 0]	n/a	FR1	2	R1146E
890.123	1.616	905176	WORD	n/a	wordpools/wordpool_EN.txt	HOOF	5	7	[0, 0, 0]	n/a	FR1	2	R1146E
891.739	1.0	906792	WORD_OFF	n/a	n/a	HOOF	5	7	[0, 0, 0]	n/a	FR1	2	R1146E
892.739	1.618	907792	WORD	n/a	wordpools/wordpool_EN.txt	BARN	6	7	[0, 0, 0]	n/a	FR1	2	R1146E
894.357	0.85	909410	WORD_OFF	n/a	n/a	BARN	6	7	[0, 0, 0]	n/a	FR1	2	R1146E
895.207	1.616	910260	WORD	n/a	wordpools/wordpool_EN.txt	STEM	7	7	[0, 0, 0]	n/a	FR1	2	R1146E
896.823	1.0	911876	WORD_OFF	n/a	n/a	STEM	7	7	[0, 0, 0]	n/a	FR1	2	R1146E
897.823	1.617	912876	WORD	n/a	wordpools/wordpool_EN.txt	SKY	8	7	[0, 0, 0]	n/a	FR1	2	R1146E
899.44	0.785	914493	WORD_OFF	n/a	n/a	SKY	8	7	[0, 0, 0]	n/a	FR1	2	R1146E
900.225	1.617	915278	WORD	n/a	wordpools/wordpool_EN.txt	MOON	9	7	[0, 0, 0]	n/a	FR1	2	R1146E
901.842	0.916	916895	WORD_OFF	n/a	n/a	MOON	9	7	[0, 0, 0]	n/a	FR1	2	R1146E
902.758	1.618	917811	WORD	n/a	wordpools/wordpool_EN.txt	OWL	10	7	[0, 0, 0]	n/a	FR1	2	R1146E
904.376	0.9	919429	WORD_OFF	n/a	n/a	OWL	10	7	[0, 0, 0]	n/a	FR1	2	R1146E
905.276	1.617	920329	WORD	n/a	wordpools/wordpool_EN.txt	HOUSE	11	7	[0, 0, 0]	n/a	FR1	2	R1146E
906.893	0.765	921946	WORD_OFF	n/a	n/a	HOUSE	11	7	[0, 0, 0]	n/a	FR1	2	R1146E
907.658	1.618	922711	WORD	n/a	wordpools/wordpool_EN.txt	TANK	12	7	[0, 0, 0]	n/a	FR1	2	R1146E
909.276	0.0	924329	WORD_OFF	n/a	n/a	TANK	12	7	[0, 0, 0]	n/a	FR1	2	R1146E
909.276	0.001	924329	DISTRACT_START	n/a	n/a	n/a	-999	7	[0, 0, 0]	n/a	FR1	2	R1146E
909.277	0.016	924330	START	n/a	n/a	n/a	-999	7	[-999, -999, -999]	n/a	FR1	2	R1146E
909.293	5.367	924346	PROB	5.367	n/a	n/a	-999	7	[8, 2, 3]	13	FR1	2	R1146E
914.66	10.703	929712	PROB	10.703	n/a	n/a	-999	7	[9, 8, 5]	22	FR1	2	R1146E
925.363	3.282	940415	PROB	3.282	n/a	n/a	-999	7	[2, 2, 1]	5	FR1	2	R1146E
928.645	14.652	943697	PROB	14.652	n/a	n/a	-999	7	[9, 7, 9]	25	FR1	2	R1146E
943.297	0.019	958348	STOP	n/a	n/a	n/a	-999	7	[-999, -999, -999]	n/a	FR1	2	R1146E
943.316	0.55	958367	DISTRACT_END	n/a	n/a	n/a	-999	7	[0, 0, 0]	n/a	FR1	2	R1146E
943.866	0.517	958917	RETRIEVAL_ORIENT	n/a	n/a	n/a	-999	7	[0, 0, 0]	n/a	FR1	2	R1146E
944.383	0.881	959434	REC_START	n/a	n/a	n/a	-999	7	[0, 0, 0]	n/a	FR1	2	R1146E
945.264	29.129	960315	REC_WORD	29.129	n/a	HOUSE	-999	7	[0, 0, 0]	n/a	FR1	2	R1146E
974.393	13.079	989443	REC_END	n/a	n/a	n/a	-999	7	[0, 0, 0]	n/a	FR1	2	R1146E
987.472	0.5	1002521	TRIAL	n/a	n/a	n/a	-999	8	[0, 0, 0]	n/a	FR1	2	R1146E
987.972	10.428	1003021	COUNTDOWN_START	n/a	n/a	n/a	-999	8	[0, 0, 0]	n/a	FR1	2	R1146E
998.4	0.008	1013449	COUNTDOWN_END	n/a	n/a	n/a	-999	8	[0, 0, 0]	n/a	FR1	2	R1146E
998.408	1.618	1013457	ORIENT	n/a	n/a	n/a	-999	8	[0, 0, 0]	n/a	FR1	2	R1146E
1000.026	2.15	1015075	ORIENT_OFF	n/a	n/a	n/a	-999	8	[0, 0, 0]	n/a	FR1	2	R1146E
1002.176	1.616	1017225	WORD	n/a	wordpools/wordpool_EN.txt	BENCH	1	8	[0, 0, 0]	n/a	FR1	2	R1146E
1003.792	0.817	1018841	WORD_OFF	n/a	n/a	BENCH	1	8	[0, 0, 0]	n/a	FR1	2	R1146E
1004.609	1.618	1019658	WORD	n/a	wordpools/wordpool_EN.txt	NAIL	2	8	[0, 0, 0]	n/a	FR1	2	R1146E
1006.227	0.95	1021276	WORD_OFF	n/a	n/a	NAIL	2	8	[0, 0, 0]	n/a	FR1	2	R1146E
1007.177	1.616	1022226	WORD	n/a	wordpools/wordpool_EN.txt	WHALE	3	8	[0, 0, 0]	n/a	FR1	2	R1146E
1008.793	0.9	1023842	WORD_OFF	n/a	n/a	WHALE	3	8	[0, 0, 0]	n/a	FR1	2	R1146E
1009.693	1.618	1024741	WORD	n/a	wordpools/wordpool_EN.txt	BOARD	4	8	[0, 0, 0]	n/a	FR1	2	R1146E
1011.311	0.9	1026359	WORD_OFF	n/a	n/a	BOARD	4	8	[0, 0, 0]	n/a	FR1	2	R1146E
1012.211	1.616	1027259	WORD	n/a	wordpools/wordpool_EN.txt	CLOTH	5	8	[0, 0, 0]	n/a	FR1	2	R1146E
1013.827	0.95	1028875	WORD_OFF	n/a	n/a	CLOTH	5	8	[0, 0, 0]	n/a	FR1	2	R1146E
1014.777	1.601	1029825	WORD	n/a	wordpools/wordpool_EN.txt	VINE	6	8	[0, 0, 0]	n/a	FR1	2	R1146E
1016.378	0.934	1031426	WORD_OFF	n/a	n/a	VINE	6	8	[0, 0, 0]	n/a	FR1	2	R1146E
1017.312	1.617	1032360	WORD	n/a	wordpools/wordpool_EN.txt	STOVE	7	8	[0, 0, 0]	n/a	FR1	2	R1146E
1018.929	0.899	1033977	WORD_OFF	n/a	n/a	STOVE	7	8	[0, 0, 0]	n/a	FR1	2	R1146E
1019.828	1.617	1034876	WORD	n/a	wordpools/wordpool_EN.txt	WALL	8	8	[0, 0, 0]	n/a	FR1	2	R1146E
1021.445	0.951	1036493	WORD_OFF	n/a	n/a	WALL	8	8	[0, 0, 0]	n/a	FR1	2	R1146E
1022.396	1.617	1037444	WORD	n/a	wordpools/wordpool_EN.txt	SCHOOL	9	8	[0, 0, 0]	n/a	FR1	2	R1146E
1024.013	0.834	1039061	WORD_OFF	n/a	n/a	SCHOOL	9	8	[0, 0, 0]	n/a	FR1	2	R1146E
1024.847	1.616	1039895	WORD	n/a	wordpools/wordpool_EN.txt	HORN	10	8	[0, 0, 0]	n/a	FR1	2	R1146E
1026.463	1.0	1041511	WORD_OFF	n/a	n/a	HORN	10	8	[0, 0, 0]	n/a	FR1	2	R1146E
1027.463	1.618	1042511	WORD	n/a	wordpools/wordpool_EN.txt	LOCK	11	8	[0, 0, 0]	n/a	FR1	2	R1146E
1029.081	0.933	1044129	WORD_OFF	n/a	n/a	LOCK	11	8	[0, 0, 0]	n/a	FR1	2	R1146E
1030.014	1.616	1045062	WORD	n/a	wordpools/wordpool_EN.txt	PEACH	12	8	[0, 0, 0]	n/a	FR1	2	R1146E
1031.63	0.0	1046678	WORD_OFF	n/a	n/a	PEACH	12	8	[0, 0, 0]	n/a	FR1	2	R1146E
1031.63	0.001	1046678	DISTRACT_START	n/a	n/a	n/a	-999	8	[0, 0, 0]	n/a	FR1	2	R1146E
1031.631	0.016	1046679	START	n/a	n/a	n/a	-999	8	[-999, -999, -999]	n/a	FR1	2	R1146E
1031.647	6.751	1046695	PROB	6.751	n/a	n/a	-999	8	[5, 8, 1]	14	FR1	2	R1146E
1038.398	14.332	1053445	PROB	14.332	n/a	n/a	-999	8	[9, 4, 5]	18	FR1	2	R1146E
1052.73	0.021	1067777	STOP	n/a	n/a	n/a	-999	8	[-999, -999, -999]	n/a	FR1	2	R1146E
1052.751	0.65	1067798	DISTRACT_END	n/a	n/a	n/a	-999	8	[0, 0, 0]	n/a	FR1	2	R1146E
1053.401	0.518	1068448	RETRIEVAL_ORIENT	n/a	n/a	n/a	-999	8	[0, 0, 0]	n/a	FR1	2	R1146E
1053.919	0.967	1068966	REC_START	n/a	n/a	n/a	-999	8	[0, 0, 0]	n/a	FR1	2	R1146E
1054.886	1.964	1069933	REC_WORD	1.964	n/a	SCHOOL	-999	8	[0, 0, 0]	n/a	FR1	2	R1146E
1056.85	8.572	1071897	REC_WORD	8.572	n/a	POLE	-999	8	[0, 0, 0]	n/a	FR1	2	R1146E
1065.422	4.768	1080468	REC_WORD	4.768	n/a	MOLE	-999	8	[0, 0, 0]	n/a	FR1	2	R1146E
1070.19	10.15	1085236	REC_WORD_VV	10.15	n/a	<>	-999	8	[0, 0, 0]	n/a	FR1	2	R1146E
1080.34	3.589	1095386	REC_WORD	3.589	n/a	ROCK	-999	8	[0, 0, 0]	n/a	FR1	2	R1146E
1083.929	11.696	1098974	REC_END	n/a	n/a	n/a	-999	8	[0, 0, 0]	n/a	FR1	2	R1146E
1095.625	0.5	1110670	TRIAL	n/a	n/a	n/a	-999	9	[0, 0, 0]	n/a	FR1	2	R1146E
1096.125	10.428	1111170	COUNTDOWN_START	n/a	n/a	n/a	-999	9	[0, 0, 0]	n/a	FR1	2	R1146E
1106.553	0.007	1121597	COUNTDOWN_END	n/a	n/a	n/a	-999	9	[0, 0, 0]	n/a	FR1	2	R1146E
1106.56	1.601	1121604	ORIENT	n/a	n/a	n/a	-999	9	[0, 0, 0]	n/a	FR1	2	R1146E
1108.161	1.834	1123205	ORIENT_OFF	n/a	n/a	n/a	-999	9	[0, 0, 0]	n/a	FR1	2	R1146E
1109.995	1.616	1125039	WORD	n/a	wordpools/wordpool_EN.txt	ARK	1	9	[0, 0, 0]	n/a	FR1	2	R1146E
1111.611	0.967	1126655	WORD_OFF	n/a	n/a	ARK	1	9	[0, 0, 0]	n/a	FR1	2	R1146E
1112.578	1.601	1127622	WORD	n/a	wordpools/wordpool_EN.txt	STORM	2	9	[0, 0, 0]	n/a	FR1	2	R1146E
1114.179	0.983	1129223	WORD_OFF	n/a	n/a	STORM	2	9	[0, 0, 0]	n/a	FR1	2	R1146E
1115.162	1.616	1130206	WORD	n/a	wordpools/wordpool_EN.txt	BOMB	3	9	[0, 0, 0]	n/a	FR1	2	R1146E
1116.778	0.951	1131822	WORD_OFF	n/a	n/a	BOMB	3	9	[0, 0, 0]	n/a	FR1	2	R1146E
1117.729	1.618	1132773	WORD	n/a	wordpools/wordpool_EN.txt	PIN	4	9	[0, 0, 0]	n/a	FR1	2	R1146E
1119.347	0.783	1134391	WORD_OFF	n/a	n/a	PIN	4	9	[0, 0, 0]	n/a	FR1	2	R1146E
1120.13	1.616	1135174	WORD	n/a	wordpools/wordpool_EN.txt	LIP	5	9	[0, 0, 0]	n/a	FR1	2	R1146E
1121.746	0.917	1136790	WORD_OFF	n/a	n/a	LIP	5	9	[0, 0, 0]	n/a	FR1	2	R1146E
1122.663	1.618	1137707	WORD	n/a	wordpools/wordpool_EN.txt	FOAM	6	9	[0, 0, 0]	n/a	FR1	2	R1146E
1124.281	0.983	1139325	WORD_OFF	n/a	n/a	FOAM	6	9	[0, 0, 0]	n/a	FR1	2	R1146E
1125.264	1.617	1140308	WORD	n/a	wordpools/wordpool_EN.txt	SIGN	7	9	[0, 0, 0]	n/a	FR1	2	R1146E
1126.881	0.9	1141925	WORD_OFF	n/a	n/a	SIGN	7	9	[0, 0, 0]	n/a	FR1	2	R1146E
1127.781	1.616	1142825	WORD	n/a	wordpools/wordpool_EN.txt	SOAP	8	9	[0, 0, 0]	n/a	FR1	2	R1146E
1129.397	0.852	1144441	WORD_OFF	n/a	n/a	SOAP	8	9	[0, 0, 0]	n/a	FR1	2	R1146E
1130.249	1.617	1145292	WORD	n/a	wordpools/wordpool_EN.txt	BAG	9	9	[0, 0, 0]	n/a	FR1	2	R1146E
1131.866	0.899	1146909	WORD_OFF	n/a	n/a	BAG	9	9	[0, 0, 0]	n/a	FR1	2	R1146E
1132.765	1.618	1147808	WORD	n/a	wordpools/wordpool_EN.txt	SQUARE	10	9	[0, 0, 0]	n/a	FR1	2	R1146E
1134.383	0.9	1149426	WORD_OFF	n/a	n/a	SQUARE	10	9	[0, 0, 0]	n/a	FR1	2	R1146E
1135.283	1.617	1150326	WORD	n/a	wordpools/wordpool_EN.txt	MOUSE	11	9	[0, 0, 0]	n/a	FR1	2	R1146E
1136.9	0.899	1151943	WORD_OFF	n/a	n/a	MOUSE	11	9	[0, 0, 0]	n/a	FR1	2	R1146E
1137.799	1.617	1152842	WORD	n/a	wordpools/wordpool_EN.txt	LAWN	12	9	[0, 0, 0]	n/a	FR1	2	R1146E
1139.416	0.0	1154459	WORD_OFF	n/a	n/a	LAWN	12	9	[0, 0, 0]	n/a	FR1	2	R1146E
1139.416	0.001	1154459	DISTRACT_START	n/a	n/a	n/a	-999	9	[0, 0, 0]	n/a	FR1	2	R1146E
1139.417	0.016	1154460	START	n/a	n/a	n/a	-999	9	[-999, -999, -999]	n/a	FR1	2	R1146E
1139.433	4.967	1154476	PROB	4.967	n/a	n/a	-999	9	[1, 7, 2]	10	FR1	2	R1146E
1144.4	12.903	1159443	PROB	12.903	n/a	n/a	-999	9	[7, 7, 3]	17	FR1	2	R1146E
1157.303	7.353	1172345	PROB	7.353	n/a	n/a	-999	9	[3, 8, 5]	16	FR1	2	R1146E
1164.656	0.014	1179698	STOP	n/a	n/a	n/a	-999	9	[-999, -999, -999]	n/a	FR1	2	R1146E
1164.67	0.668	1179712	DISTRACT_END	n/a	n/a	n/a	-999	9	[0, 0, 0]	n/a	FR1	2	R1146E
1165.338	0.518	1180380	RETRIEVAL_ORIENT	n/a	n/a	n/a	-999	9	[0, 0, 0]	n/a	FR1	2	R1146E
1165.856	11.873	1180898	REC_START	n/a	n/a	n/a	-999	9	[0, 0, 0]	n/a	FR1	2	R1146E
1177.729	2.079	1192771	REC_WORD	2.079	n/a	ROCK	-999	9	[0, 0, 0]	n/a	FR1	2	R1146E
1179.808	2.538	1194849	REC_WORD_VV	2.538	n/a	<>	-999	9	[0, 0, 0]	n/a	FR1	2	R1146E
1182.346	10.014	1197387	REC_WORD_VV	10.014	n/a	<>	-999	9	[0, 0, 0]	n/a	FR1	2	R1146E
1192.36	2.18	1207401	REC_WORD	2.18	n/a	SCHOOL	-999	9	[0, 0, 0]	n/a	FR1	2	R1146E
1194.54	1.325	1209581	REC_WORD_VV	1.325	n/a	<>	-999	9	[0, 0, 0]	n/a	FR1	2	R1146E
1195.865	29.434	1210906	REC_END	n/a	n/a	n/a	-999	9	[0, 0, 0]	n/a	FR1	2	R1146E
1225.299	0.5	1240339	TRIAL	n/a	n/a	n/a	-999	10	[0, 0, 0]	n/a	FR1	2	R1146E
1225.799	10.428	1240839	COUNTDOWN_START	n/a	n/a	n/a	-999	10	[0, 0, 0]	n/a	FR1	2	R1146E
1236.227	0.007	1251266	COUNTDOWN_END	n/a	n/a	n/a	-999	10	[0, 0, 0]	n/a	FR1	2	R1146E
1236.234	1.617	1251273	ORIENT	n/a	n/a	n/a	-999	10	[0, 0, 0]	n/a	FR1	2	R1146E
1237.851	2.334	1252890	ORIENT_OFF	n/a	n/a	n/a	-999	10	[0, 0, 0]	n/a	FR1	2	R1146E
1240.185	1.616	1255224	WORD	n/a	wordpools/wordpool_EN.txt	FLEA	1	10	[0, 0, 0]	n/a	FR1	2	R1146E
1241.801	0.983	1256840	WORD_OFF	n/a	n/a	FLEA	1	10	[0, 0, 0]	n/a	FR1	2	R1146E
1242.784	1.617	1257823	WORD	n/a	wordpools/wordpool_EN.txt	WAND	2	10	[0, 0, 0]	n/a	FR1	2	R1146E
1244.401	0.918	1259440	WORD_OFF	n/a	n/a	WAND	2	10	[0, 0, 0]	n/a	FR1	2	R1146E
1245.319	1.617	1260358	WORD	n/a	wordpools/wordpool_EN.txt	HOSE	3	10	[0, 0, 0]	n/a	FR1	2	R1146E
1246.936	0.95	1261975	WORD_OFF	n/a	n/a	HOSE	3	10	[0, 0, 0]	n/a	FR1	2	R1146E
1247.886	1.616	1262925	WORD	n/a	wordpools/wordpool_EN.txt	FLOOR	4	10	[0, 0, 0]	n/a	FR1	2	R1146E
1249.502	0.801	1264541	WORD_OFF	n/a	n/a	FLOOR	4	10	[0, 0, 0]	n/a	FR1	2	R1146E
1250.303	1.617	1265342	WORD	n/a	wordpools/wordpool_EN.txt	WOOD	5	10	[0, 0, 0]	n/a	FR1	2	R1146E
1251.92	0.816	1266958	WORD_OFF	n/a	n/a	WOOD	5	10	[0, 0, 0]	n/a	FR1	2	R1146E
1252.736	1.618	1267774	WORD	n/a	wordpools/wordpool_EN.txt	CLOCK	6	10	[0, 0, 0]	n/a	FR1	2	R1146E
1254.354	0.85	1269392	WORD_OFF	n/a	n/a	CLOCK	6	10	[0, 0, 0]	n/a	FR1	2	R1146E
1255.204	1.616	1270242	WORD	n/a	wordpools/wordpool_EN.txt	JAR	7	10	[0, 0, 0]	n/a	FR1	2	R1146E
1256.82	0.95	1271858	WORD_OFF	n/a	n/a	JAR	7	10	[0, 0, 0]	n/a	FR1	2	R1146E
1257.77	1.601	1272808	WORD	n/a	wordpools/wordpool_EN.txt	STRING	8	10	[0, 0, 0]	n/a	FR1	2	R1146E
1259.371	0.867	1274409	WORD_OFF	n/a	n/a	STRING	8	10	[0, 0, 0]	n/a	FR1	2	R1146E
1260.238	1.617	1275276	WORD	n/a	wordpools/wordpool_EN.txt	TEETH	9	10	[0, 0, 0]	n/a	FR1	2	R1146E
1261.855	0.966	1276893	WORD_OFF	n/a	n/a	TEETH	9	10	[0, 0, 0]	n/a	FR1	2	R1146E
1262.821	1.617	1277859	WORD	n/a	wordpools/wordpool_EN.txt	DITCH	10	10	[0, 0, 0]	n/a	FR1	2	R1146E
1264.438	0.801	1279476	WORD_OFF	n/a	n/a	DITCH	10	10	[0, 0, 0]	n/a	FR1	2	R1146E
1265.239	1.617	1280277	WORD	n/a	wordpools/wordpool_EN.txt	INK	11	10	[0, 0, 0]	n/a	FR1	2	R1146E
1266.856	0.766	1281894	WORD_OFF	n/a	n/a	INK	11	10	[0, 0, 0]	n/a	FR1	2	R1146E
1267.622	1.618	1282660	WORD	n/a	wordpools/wordpool_EN.txt	CLOUD	12	10	[0, 0, 0]	n/a	FR1	2	R1146E
1269.24	0.0	1284278	WORD_OFF	n/a	n/a	CLOUD	12	10	[0, 0, 0]	n/a	FR1	2	R1146E
1269.24	0.0	1284278	DISTRACT_START	n/a	n/a	n/a	-999	10	[0, 0, 0]	n/a	FR1	2	R1146E
1269.24	0.017	1284278	START	n/a	n/a	n/a	-999	10	[-999, -999, -999]	n/a	FR1	2	R1146E
1269.257	16.752	1284295	PROB	16.752	n/a	n/a	-999	10	[8, 7, 8]	23	FR1	2	R1146E
1286.009	7.093	1301046	PROB	7.093	n/a	n/a	-999	10	[9, 7, 4]	20	FR1	2	R1146E
1293.102	0.009	1308139	STOP	n/a	n/a	n/a	-999	10	[-999, -999, -999]	n/a	FR1	2	R1146E
1293.111	0.615	1308148	DISTRACT_END	n/a	n/a	n/a	-999	10	[0, 0, 0]	n/a	FR1	2	R1146E
1293.726	0.519	1308763	RETRIEVAL_ORIENT	n/a	n/a	n/a	-999	10	[0, 0, 0]	n/a	FR1	2	R1146E
1294.245	30.0	1309282	REC_START	n/a	n/a	n/a	-999	10	[0, 0, 0]	n/a	FR1	2	R1146E
1324.245	0.009	1339280	REC_WORD_VV	0.009	n/a	<>	-999	10	[0, 0, 0]	n/a	FR1	2	R1146E
1324.254	10.647	1339289	REC_END	n/a	n/a	n/a	-999	10	[0, 0, 0]	n/a	FR1	2	R1146E
1334.901	0.5	1349936	TRIAL	n/a	n/a	n/a	-999	11	[0, 0, 0]	n/a	FR1	2	R1146E
1335.401	10.428	1350436	COUNTDOWN_START	n/a	n/a	n/a	-999	11	[0, 0, 0]	n/a	FR1	2	R1146E
1345.829	0.008	1360864	COUNTDOWN_END	n/a	n/a	n/a	-999	11	[0, 0, 0]	n/a	FR1	2	R1146E
1345.837	1.616	1360872	ORIENT	n/a	n/a	n/a	-999	11	[0, 0, 0]	n/a	FR1	2	R1146E
1347.453	2.133	1362487	ORIENT_OFF	n/a	n/a	n/a	-999	11	[0, 0, 0]	n/a	FR1	2	R1146E
1349.586	1.618	1364620	WORD	n/a	wordpools/wordpool_EN.txt	SNAIL	1	11	[0, 0, 0]	n/a	FR1	2	R1146E
1351.204	0.817	1366238	WORD_OFF	n/a	n/a	SNAIL	1	11	[0, 0, 0]	n/a	FR1	2	R1146E
1352.021	1.616	1367055	WORD	n/a	wordpools/wordpool_EN.txt	FOX	2	11	[0, 0, 0]	n/a	FR1	2	R1146E
1353.637	0.867	1368671	WORD_OFF	n/a	n/a	FOX	2	11	[0, 0, 0]	n/a	FR1	2	R1146E
1354.504	1.618	1369538	WORD	n/a	wordpools/wordpool_EN.txt	HEART	3	11	[0, 0, 0]	n/a	FR1	2	R1146E
1356.122	0.817	1371156	WORD_OFF	n/a	n/a	HEART	3	11	[0, 0, 0]	n/a	FR1	2	R1146E
1356.939	1.616	1371973	WORD	n/a	wordpools/wordpool_EN.txt	CRANE	4	11	[0, 0, 0]	n/a	FR1	2	R1146E
1358.555	0.899	1373589	WORD_OFF	n/a	n/a	CRANE	4	11	[0, 0, 0]	n/a	FR1	2	R1146E
1359.454	1.602	1374488	WORD	n/a	wordpools/wordpool_EN.txt	BANK	5	11	[0, 0, 0]	n/a	FR1	2	R1146E
1361.056	1.0	1376090	WORD_OFF	n/a	n/a	BANK	5	11	[0, 0, 0]	n/a	FR1	2	R1146E
1362.056	1.616	1377090	WORD	n/a	wordpools/wordpool_EN.txt	BLUSH	6	11	[0, 0, 0]	n/a	FR1	2	R1146E
1363.672	0.967	1378706	WORD_OFF	n/a	n/a	BLUSH	6	11	[0, 0, 0]	n/a	FR1	2	R1146E
1364.639	1.618	1379673	WORD	n/a	wordpools/wordpool_EN.txt	SEA	7	11	[0, 0, 0]	n/a	FR1	2	R1146E
1366.257	1.0	1381291	WORD_OFF	n/a	n/a	SEA	7	11	[0, 0, 0]	n/a	FR1	2	R1146E
1367.257	1.617	1382291	WORD	n/a	wordpools/wordpool_EN.txt	BALL	8	11	[0, 0, 0]	n/a	FR1	2	R1146E
1368.874	0.783	1383908	WORD_OFF	n/a	n/a	BALL	8	11	[0, 0, 0]	n/a	FR1	2	R1146E
1369.657	1.617	1384691	WORD	n/a	wordpools/wordpool_EN.txt	PEARL	9	11	[0, 0, 0]	n/a	FR1	2	R1146E
1371.274	0.917	1386308	WORD_OFF	n/a	n/a	PEARL	9	11	[0, 0, 0]	n/a	FR1	2	R1146E
1372.191	1.616	1387224	WORD	n/a	wordpools/wordpool_EN.txt	PARK	10	11	[0, 0, 0]	n/a	FR1	2	R1146E
1373.807	0.883	1388840	WORD_OFF	n/a	n/a	PARK	10	11	[0, 0, 0]	n/a	FR1	2	R1146E
1374.69	1.602	1389723	WORD	n/a	wordpools/wordpool_EN.txt	WEB	11	11	[0, 0, 0]	n/a	FR1	2	R1146E
1376.292	0.917	1391325	WORD_OFF	n/a	n/a	WEB	11	11	[0, 0, 0]	n/a	FR1	2	R1146E
1377.209	1.616	1392242	WORD	n/a	wordpools/wordpool_EN.txt	HILL	12	11	[0, 0, 0]	n/a	FR1	2	R1146E
1378.825	0.0	1393858	WORD_OFF	n/a	n/a	HILL	12	11	[0, 0, 0]	n/a	FR1	2	R1146E
1378.825	0.0	1393858	DISTRACT_START	n/a	n/a	n/a	-999	11	[0, 0, 0]	n/a	FR1	2	R1146E
1378.825	0.017	1393858	START	n/a	n/a	n/a	-999	11	[-999, -999, -999]	n/a	FR1	2	R1146E
1378.842	12.635	1393875	PROB	12.635	n/a	n/a	-999	11	[9, 5, 2]	16	FR1	2	R1146E
1391.477	4.752	1406510	PROB	4.752	n/a	n/a	-999	11	[9, 5, 1]	15	FR1	2	R1146E
1396.229	4.873	1411261	PROB	4.873	n/a	n/a	-999	11	[8, 3, 3]	14	FR1	2	R1146E
1401.102	0.011	1416134	STOP	n/a	n/a	n/a	-999	11	[-999, -999, -999]	n/a	FR1	2	R1146E
1401.113	0.616	1416145	DISTRACT_END	n/a	n/a	n/a	-999	11	[0, 0, 0]	n/a	FR1	2	R1146E
1401.729	0.518	1416761	RETRIEVAL_ORIENT	n/a	n/a	n/a	-999	11	[0, 0, 0]	n/a	FR1	2	R1146E
1402.247	30.0	1417279	REC_START	n/a	n/a	n/a	-999	11	[0, 0, 0]	n/a	FR1	2	R1146E
1432.247	0.01	1447278	REC_WORD_VV	0.01	n/a	<>	-999	11	[0, 0, 0]	n/a	FR1	2	R1146E
1432.257	23.331	1447288	REC_END	n/a	n/a	n/a	-999	11	[0, 0, 0]	n/a	FR1	2	R1146E
1455.588	0.5	1470618	TRIAL	n/a	n/a	n/a	-999	12	[0, 0, 0]	n/a	FR1	2	R1146E
1456.088	10.428	1471118	COUNTDOWN_START	n/a	n/a	n/a	-999	12	[0, 0, 0]	n/a	FR1	2	R1146E
1466.516	0.008	1481546	COUNTDOWN_END	n/a	n/a	n/a	-999	12	[0, 0, 0]	n/a	FR1	2	R1146E
1466.524	1.618	1481554	ORIENT	n/a	n/a	n/a	-999	12	[0, 0, 0]	n/a	FR1	2	R1146E
1468.142	1.9	1483171	ORIENT_OFF	n/a	n/a	n/a	-999	12	[0, 0, 0]	n/a	FR1	2	R1146E
1470.042	1.616	1485071	WORD	n/a	wordpools/wordpool_EN.txt	VASE	1	12	[0, 0, 0]	n/a	FR1	2	R1146E
1471.658	0.866	1486687	WORD_OFF	n/a	n/a	VASE	1	12	[0, 0, 0]	n/a	FR1	2	R1146E
1472.524	1.602	1487553	WORD	n/a	wordpools/wordpool_EN.txt	DRUM	2	12	[0, 0, 0]	n/a	FR1	2	R1146E
1474.126	0.783	1489155	WORD_OFF	n/a	n/a	DRUM	2	12	[0, 0, 0]	n/a	FR1	2	R1146E
1474.909	1.616	1489938	WORD	n/a	wordpools/wordpool_EN.txt	WEED	3	12	[0, 0, 0]	n/a	FR1	2	R1146E
1476.525	0.801	1491554	WORD_OFF	n/a	n/a	WEED	3	12	[0, 0, 0]	n/a	FR1	2	R1146E
1477.326	1.617	1492355	WORD	n/a	wordpools/wordpool_EN.txt	TOAD	4	12	[0, 0, 0]	n/a	FR1	2	R1146E
1478.943	0.8	1493972	WORD_OFF	n/a	n/a	TOAD	4	12	[0, 0, 0]	n/a	FR1	2	R1146E
1479.743	1.618	1494772	WORD	n/a	wordpools/wordpool_EN.txt	MILK	5	12	[0, 0, 0]	n/a	FR1	2	R1146E
1481.361	0.833	1496390	WORD_OFF	n/a	n/a	MILK	5	12	[0, 0, 0]	n/a	FR1	2	R1146E
1482.194	1.616	1497223	WORD	n/a	wordpools/wordpool_EN.txt	SKI	6	12	[0, 0, 0]	n/a	FR1	2	R1146E
1483.81	0.983	1498839	WORD_OFF	n/a	n/a	SKI	6	12	[0, 0, 0]	n/a	FR1	2	R1146E
1484.793	1.617	1499822	WORD	n/a	wordpools/wordpool_EN.txt	STEAM	7	12	[0, 0, 0]	n/a	FR1	2	R1146E
1486.41	0.868	1501439	WORD_OFF	n/a	n/a	STEAM	7	12	[0, 0, 0]	n/a	FR1	2	R1146E
1487.278	1.617	1502307	WORD	n/a	wordpools/wordpool_EN.txt	BOY	8	12	[0, 0, 0]	n/a	FR1	2	R1146E
1488.895	0.816	1503924	WORD_OFF	n/a	n/a	BOY	8	12	[0, 0, 0]	n/a	FR1	2	R1146E
1489.711	1.618	1504740	WORD	n/a	wordpools/wordpool_EN.txt	DOLL	9	12	[0, 0, 0]	n/a	FR1	2	R1146E
1491.329	0.817	1506358	WORD_OFF	n/a	n/a	DOLL	9	12	[0, 0, 0]	n/a	FR1	2	R1146E
1492.146	1.616	1507174	WORD	n/a	wordpools/wordpool_EN.txt	JUDGE	10	12	[0, 0, 0]	n/a	FR1	2	R1146E
1493.762	0.767	1508790	WORD_OFF	n/a	n/a	JUDGE	10	12	[0, 0, 0]	n/a	FR1	2	R1146E
1494.529	1.617	1509557	WORD	n/a	wordpools/wordpool_EN.txt	RICE	11	12	[0, 0, 0]	n/a	FR1	2	R1146E
1496.146	1.001	1511174	WORD_OFF	n/a	n/a	RICE	11	12	[0, 0, 0]	n/a	FR1	2	R1146E
1497.147	1.616	1512175	WORD	n/a	wordpools/wordpool_EN.txt	RAT	12	12	[0, 0, 0]	n/a	FR1	2	R1146E
1498.763	0.0	1513791	WORD_OFF	n/a	n/a	RAT	12	12	[0, 0, 0]	n/a	FR1	2	R1146E
1498.763	0.0	1513791	DISTRACT_START	n/a	n/a	n/a	-999	12	[0, 0, 0]	n/a	FR1	2	R1146E
1498.763	0.016	1513791	START	n/a	n/a	n/a	-999	12	[-999, -999, -999]	n/a	FR1	2	R1146E
1498.779	3.668	1513807	PROB	3.668	n/a	n/a	-999	12	[2, 1, 9]	12	FR1	2	R1146E
1502.447	4.718	1517475	PROB	4.718	n/a	n/a	-999	12	[7, 1, 6]	14	FR1	2	R1146E
1507.165	7.901	1522193	PROB	7.901	n/a	n/a	-999	12	[3, 6, 7]	16	FR1	2	R1146E
1515.066	4.52	1530094	PROB	4.52	n/a	n/a	-999	12	[2, 4, 2]	8	FR1	2	R1146E
1519.586	0.014	1534613	STOP	n/a	n/a	n/a	-999	12	[-999, -999, -999]	n/a	FR1	2	R1146E
1519.6	0.517	1534627	DISTRACT_END	n/a	n/a	n/a	-999	12	[0, 0, 0]	n/a	FR1	2	R1146E
1520.117	0.517	1535144	RETRIEVAL_ORIENT	n/a	n/a	n/a	-999	12	[0, 0, 0]	n/a	FR1	2	R1146E
1520.634	1.024	1535661	REC_START	n/a	n/a	n/a	-999	12	[0, 0, 0]	n/a	FR1	2	R1146E
1521.658	1.466	1536685	REC_WORD	1.466	n/a	STEAM	-999	12	[0, 0, 0]	n/a	FR1	2	R1146E
1523.124	6.793	1538151	REC_WORD	6.793	n/a	BOY	-999	12	[0, 0, 0]	n/a	FR1	2	R1146E
1529.917	12.23	1544944	REC_WORD	12.23	n/a	BOAT	-999	12	[0, 0, 0]	n/a	FR1	2	R1146E
1542.147	8.497	1557173	REC_WORD	8.497	n/a	DOLL	-999	12	[0, 0, 0]	n/a	FR1	2	R1146E
1550.644	52.97	1565670	REC_END	n/a	n/a	n/a	-999	12	[0, 0, 0]	n/a	FR1	2	R1146E
1603.614	0.5	1618638	TRIAL	n/a	n/a	n/a	-999	13	[0, 0, 0]	n/a	FR1	2	R1146E
1604.114	10.428	1619138	COUNTDOWN_START	n/a	n/a	n/a	-999	13	[0, 0, 0]	n/a	FR1	2	R1146E
1614.542	0.008	1629565	COUNTDOWN_END	n/a	n/a	n/a	-999	13	[0, 0, 0]	n/a	FR1	2	R1146E
1614.55	1.618	1629573	ORIENT	n/a	n/a	n/a	-999	13	[0, 0, 0]	n/a	FR1	2	R1146E
1616.168	1.883	1631191	ORIENT_OFF	n/a	n/a	n/a	-999	13	[0, 0, 0]	n/a	FR1	2	R1146E
1618.051	1.616	1633074	WORD	n/a	wordpools/wordpool_EN.txt	SPONGE	1	13	[0, 0, 0]	n/a	FR1	2	R1146E
1619.667	0.817	1634690	WORD_OFF	n/a	n/a	SPONGE	1	13	[0, 0, 0]	n/a	FR1	2	R1146E
1620.484	1.618	1635507	WORD	n/a	wordpools/wordpool_EN.txt	FISH	2	13	[0, 0, 0]	n/a	FR1	2	R1146E
1622.102	0.967	1637125	WORD_OFF	n/a	n/a	FISH	2	13	[0, 0, 0]	n/a	FR1	2	R1146E
1623.069	1.616	1638092	WORD	n/a	wordpools/wordpool_EN.txt	CHIEF	3	13	[0, 0, 0]	n/a	FR1	2	R1146E
1624.685	0.833	1639708	WORD_OFF	n/a	n/a	CHIEF	3	13	[0, 0, 0]	n/a	FR1	2	R1146E
1625.518	1.618	1640541	WORD	n/a	wordpools/wordpool_EN.txt	CAR	4	13	[0, 0, 0]	n/a	FR1	2	R1146E
1627.136	0.934	1642159	WORD_OFF	n/a	n/a	CAR	4	13	[0, 0, 0]	n/a	FR1	2	R1146E
1628.07	1.616	1643093	WORD	n/a	wordpools/wordpool_EN.txt	LAKE	5	13	[0, 0, 0]	n/a	FR1	2	R1146E
1629.686	0.783	1644709	WORD_OFF	n/a	n/a	LAKE	5	13	[0, 0, 0]	n/a	FR1	2	R1146E
1630.469	1.618	1645492	WORD	n/a	wordpools/wordpool_EN.txt	COIN	6	13	[0, 0, 0]	n/a	FR1	2	R1146E
1632.087	0.767	1647110	WORD_OFF	n/a	n/a	COIN	6	13	[0, 0, 0]	n/a	FR1	2	R1146E
1632.854	1.616	1647877	WORD	n/a	wordpools/wordpool_EN.txt	SPEAR	7	13	[0, 0, 0]	n/a	FR1	2	R1146E
1634.47	1.0	1649493	WORD_OFF	n/a	n/a	SPEAR	7	13	[0, 0, 0]	n/a	FR1	2	R1146E
1635.47	1.618	1650493	WORD	n/a	wordpools/wordpool_EN.txt	SEAT	8	13	[0, 0, 0]	n/a	FR1	2	R1146E
1637.088	0.983	1652110	WORD_OFF	n/a	n/a	SEAT	8	13	[0, 0, 0]	n/a	FR1	2	R1146E
1638.071	1.616	1653093	WORD	n/a	wordpools/wordpool_EN.txt	POOL	9	13	[0, 0, 0]	n/a	FR1	2	R1146E
1639.687	0.817	1654709	WORD_OFF	n/a	n/a	POOL	9	13	[0, 0, 0]	n/a	FR1	2	R1146E
1640.504	1.618	1655526	WORD	n/a	wordpools/wordpool_EN.txt	JEEP	10	13	[0, 0, 0]	n/a	FR1	2	R1146E
1642.122	0.817	1657144	WORD_OFF	n/a	n/a	JEEP	10	13	[0, 0, 0]	n/a	FR1	2	R1146E
1642.939	1.616	1657961	WORD	n/a	wordpools/wordpool_EN.txt	SHARK	11	13	[0, 0, 0]	n/a	FR1	2	R1146E
1644.555	0.983	1659577	WORD_OFF	n/a	n/a	SHARK	11	13	[0, 0, 0]	n/a	FR1	2	R1146E
1645.538	1.601	1660560	WORD	n/a	wordpools/wordpool_EN.txt	TRAIN	12	13	[0, 0, 0]	n/a	FR1	2	R1146E
1647.139	0.0	1662161	WORD_OFF	n/a	n/a	TRAIN	12	13	[0, 0, 0]	n/a	FR1	2	R1146E
1647.139	0.001	1662161	DISTRACT_START	n/a	n/a	n/a	-999	13	[0, 0, 0]	n/a	FR1	2	R1146E
1647.14	0.016	1662162	START	n/a	n/a	n/a	-999	13	[-999, -999, -999]	n/a	FR1	2	R1146E
1647.156	7.985	1662178	PROB	7.985	n/a	n/a	-999	13	[6, 9, 9]	24	FR1	2	R1146E
1655.141	20.713	1670163	PROB	20.713	n/a	n/a	-999	13	[9, 3, 7]	19	FR1	2	R1146E
1675.854	0.007	1690875	STOP	n/a	n/a	n/a	-999	13	[-999, -999, -999]	n/a	FR1	2	R1146E
1675.861	0.6	1690882	DISTRACT_END	n/a	n/a	n/a	-999	13	[0, 0, 0]	n/a	FR1	2	R1146E
1676.461	0.52	1691482	RETRIEVAL_ORIENT	n/a	n/a	n/a	-999	13	[0, 0, 0]	n/a	FR1	2	R1146E
1676.981	24.28	1692002	REC_START	n/a	n/a	n/a	-999	13	[0, 0, 0]	n/a	FR1	2	R1146E
1701.261	5.727	1716281	REC_WORD	5.727	n/a	MOUSE	-999	13	[0, 0, 0]	n/a	FR1	2	R1146E
1706.988	12.148	1722008	REC_END	n/a	n/a	n/a	-999	13	[0, 0, 0]	n/a	FR1	2	R1146E
1719.136	0.5	1734155	TRIAL	n/a	n/a	n/a	-999	14	[0, 0, 0]	n/a	FR1	2	R1146E
1719.636	10.428	1734655	COUNTDOWN_START	n/a	n/a	n/a	-999	14	[0, 0, 0]	n/a	FR1	2	R1146E
1730.064	0.007	1745083	COUNTDOWN_END	n/a	n/a	n/a	-999	14	[0, 0, 0]	n/a	FR1	2	R1146E
1730.071	1.616	1745090	ORIENT	n/a	n/a	n/a	-999	14	[0, 0, 0]	n/a	FR1	2	R1146E
1731.687	2.034	1746706	ORIENT_OFF	n/a	n/a	n/a	-999	14	[0, 0, 0]	n/a	FR1	2	R1146E
1733.721	1.618	1748739	WORD	n/a	wordpools/wordpool_EN.txt	MUD	1	14	[0, 0, 0]	n/a	FR1	2	R1146E
1735.339	0.9	1750357	WORD_OFF	n/a	n/a	MUD	1	14	[0, 0, 0]	n/a	FR1	2	R1146E
1736.239	1.617	1751257	WORD	n/a	wordpools/wordpool_EN.txt	MOUTH	2	14	[0, 0, 0]	n/a	FR1	2	R1146E
1737.856	0.932	1752874	WORD_OFF	n/a	n/a	MOUTH	2	14	[0, 0, 0]	n/a	FR1	2	R1146E
1738.788	1.601	1753806	WORD	n/a	wordpools/wordpool_EN.txt	TRAY	3	14	[0, 0, 0]	n/a	FR1	2	R1146E
1740.389	0.901	1755407	WORD_OFF	n/a	n/a	TRAY	3	14	[0, 0, 0]	n/a	FR1	2	R1146E
1741.29	1.617	1756308	WORD	n/a	wordpools/wordpool_EN.txt	GATE	4	14	[0, 0, 0]	n/a	FR1	2	R1146E
1742.907	0.865	1757925	WORD_OFF	n/a	n/a	GATE	4	14	[0, 0, 0]	n/a	FR1	2	R1146E
1743.772	1.618	1758790	WORD	n/a	wordpools/wordpool_EN.txt	ROAD	5	14	[0, 0, 0]	n/a	FR1	2	R1146E
1745.39	0.951	1760408	WORD_OFF	n/a	n/a	ROAD	5	14	[0, 0, 0]	n/a	FR1	2	R1146E
1746.341	1.617	1761359	WORD	n/a	wordpools/wordpool_EN.txt	WHEEL	6	14	[0, 0, 0]	n/a	FR1	2	R1146E
1747.958	0.916	1762976	WORD_OFF	n/a	n/a	WHEEL	6	14	[0, 0, 0]	n/a	FR1	2	R1146E
1748.874	1.616	1763892	WORD	n/a	wordpools/wordpool_EN.txt	FOOT	7	14	[0, 0, 0]	n/a	FR1	2	R1146E
1750.49	0.984	1765508	WORD_OFF	n/a	n/a	FOOT	7	14	[0, 0, 0]	n/a	FR1	2	R1146E
1751.474	1.618	1766492	WORD	n/a	wordpools/wordpool_EN.txt	HEN	8	14	[0, 0, 0]	n/a	FR1	2	R1146E
1753.092	0.883	1768110	WORD_OFF	n/a	n/a	HEN	8	14	[0, 0, 0]	n/a	FR1	2	R1146E
1753.975	1.616	1768993	WORD	n/a	wordpools/wordpool_EN.txt	RUG	9	14	[0, 0, 0]	n/a	FR1	2	R1146E
1755.591	0.934	1770609	WORD_OFF	n/a	n/a	RUG	9	14	[0, 0, 0]	n/a	FR1	2	R1146E
1756.525	1.618	1771543	WORD	n/a	wordpools/wordpool_EN.txt	FARM	10	14	[0, 0, 0]	n/a	FR1	2	R1146E
1758.143	0.95	1773160	WORD_OFF	n/a	n/a	FARM	10	14	[0, 0, 0]	n/a	FR1	2	R1146E
1759.093	1.616	1774110	WORD	n/a	wordpools/wordpool_EN.txt	BRUSH	11	14	[0, 0, 0]	n/a	FR1	2	R1146E
1760.709	0.983	1775726	WORD_OFF	n/a	n/a	BRUSH	11	14	[0, 0, 0]	n/a	FR1	2	R1146E
1761.692	1.618	1776709	WORD	n/a	wordpools/wordpool_EN.txt	SLIME	12	14	[0, 0, 0]	n/a	FR1	2	R1146E
1763.31	0.0	1778327	WORD_OFF	n/a	n/a	SLIME	12	14	[0, 0, 0]	n/a	FR1	2	R1146E
1763.31	0.001	1778327	DISTRACT_START	n/a	n/a	n/a	-999	14	[0, 0, 0]	n/a	FR1	2	R1146E
1763.311	0.016	1778328	START	n/a	n/a	n/a	-999	14	[-999, -999, -999]	n/a	FR1	2	R1146E
1763.327	6.117	1778344	PROB	6.117	n/a	n/a	-999	14	[8, 4, 4]	16	FR1	2	R1146E
1769.444	5.201	1784461	PROB	5.201	n/a	n/a	-999	14	[1, 8, 7]	16	FR1	2	R1146E
1774.645	4.618	1789662	PROB	4.618	n/a	n/a	-999	14	[1, 8, 6]	15	FR1	2	R1146E
1779.263	3.984	1794280	PROB	3.984	n/a	n/a	-999	14	[1, 5, 9]	15	FR1	2	R1146E
1783.247	4.52	1798263	PROB	4.52	n/a	n/a	-999	14	[9, 1, 9]	19	FR1	2	R1146E
1787.767	0.013	1802783	STOP	n/a	n/a	n/a	-999	14	[-999, -999, -999]	n/a	FR1	2	R1146E
1787.78	0.667	1802796	DISTRACT_END	n/a	n/a	n/a	-999	14	[0, 0, 0]	n/a	FR1	2	R1146E
1788.447	0.519	1803463	RETRIEVAL_ORIENT	n/a	n/a	n/a	-999	14	[0, 0, 0]	n/a	FR1	2	R1146E
1788.966	3.42	1803982	REC_START	n/a	n/a	n/a	-999	14	[0, 0, 0]	n/a	FR1	2	R1146E
1792.386	26.588	1807402	REC_WORD	26.588	n/a	SLIME	-999	14	[0, 0, 0]	n/a	FR1	2	R1146E
1818.974	9.497	1833989	REC_END	n/a	n/a	n/a	-999	14	[0, 0, 0]	n/a	FR1	2	R1146E
1828.471	0.5	1843486	TRIAL	n/a	n/a	n/a	-999	15	[0, 0, 0]	n/a	FR1	2	R1146E
1828.971	10.428	1843986	COUNTDOWN_START	n/a	n/a	n/a	-999	15	[0, 0, 0]	n/a	FR1	2	R1146E
1839.399	0.007	1854413	COUNTDOWN_END	n/a	n/a	n/a	-999	15	[0, 0, 0]	n/a	FR1	2	R1146E
1839.406	1.601	1854420	ORIENT	n/a	n/a	n/a	-999	15	[0, 0, 0]	n/a	FR1	2	R1146E
1841.007	2.101	1856021	ORIENT_OFF	n/a	n/a	n/a	-999	15	[0, 0, 0]	n/a	FR1	2	R1146E
1843.108	1.616	1858122	WORD	n/a	wordpools/wordpool_EN.txt	CALF	1	15	[0, 0, 0]	n/a	FR1	2	R1146E
1844.724	0.783	1859738	WORD_OFF	n/a	n/a	CALF	1	15	[0, 0, 0]	n/a	FR1	2	R1146E
1845.507	1.618	1860521	WORD	n/a	wordpools/wordpool_EN.txt	CROWN	2	15	[0, 0, 0]	n/a	FR1	2	R1146E
1847.125	0.967	1862139	WORD_OFF	n/a	n/a	CROWN	2	15	[0, 0, 0]	n/a	FR1	2	R1146E
1848.092	1.616	1863106	WORD	n/a	wordpools/wordpool_EN.txt	BOOT	3	15	[0, 0, 0]	n/a	FR1	2	R1146E
1849.708	0.85	1864722	WORD_OFF	n/a	n/a	BOOT	3	15	[0, 0, 0]	n/a	FR1	2	R1146E
1850.558	1.601	1865572	WORD	n/a	wordpools/wordpool_EN.txt	DIME	4	15	[0, 0, 0]	n/a	FR1	2	R1146E
1852.159	0.95	1867173	WORD_OFF	n/a	n/a	DIME	4	15	[0, 0, 0]	n/a	FR1	2	R1146E
1853.109	1.616	1868123	WORD	n/a	wordpools/wordpool_EN.txt	GRASS	5	15	[0, 0, 0]	n/a	FR1	2	R1146E
1854.725	0.917	1869738	WORD_OFF	n/a	n/a	GRASS	5	15	[0, 0, 0]	n/a	FR1	2	R1146E
1855.642	1.618	1870655	WORD	n/a	wordpools/wordpool_EN.txt	STEAK	6	15	[0, 0, 0]	n/a	FR1	2	R1146E
1857.26	0.817	1872273	WORD_OFF	n/a	n/a	STEAK	6	15	[0, 0, 0]	n/a	FR1	2	R1146E
1858.077	1.616	1873090	WORD	n/a	wordpools/wordpool_EN.txt	CART	7	15	[0, 0, 0]	n/a	FR1	2	R1146E
1859.693	0.883	1874706	WORD_OFF	n/a	n/a	CART	7	15	[0, 0, 0]	n/a	FR1	2	R1146E
1860.576	1.618	1875589	WORD	n/a	wordpools/wordpool_EN.txt	HAND	8	15	[0, 0, 0]	n/a	FR1	2	R1146E
1862.194	0.817	1877207	WORD_OFF	n/a	n/a	HAND	8	15	[0, 0, 0]	n/a	FR1	2	R1146E
1863.011	1.616	1878024	WORD	n/a	wordpools/wordpool_EN.txt	TIE	9	15	[0, 0, 0]	n/a	FR1	2	R1146E
1864.627	0.9	1879640	WORD_OFF	n/a	n/a	TIE	9	15	[0, 0, 0]	n/a	FR1	2	R1146E
1865.527	1.601	1880540	WORD	n/a	wordpools/wordpool_EN.txt	STOOL	10	15	[0, 0, 0]	n/a	FR1	2	R1146E
1867.128	0.917	1882141	WORD_OFF	n/a	n/a	STOOL	10	15	[0, 0, 0]	n/a	FR1	2	R1146E
1868.045	1.616	1883058	WORD	n/a	wordpools/wordpool_EN.txt	PEA	11	15	[0, 0, 0]	n/a	FR1	2	R1146E
1869.661	0.884	1884674	WORD_OFF	n/a	n/a	PEA	11	15	[0, 0, 0]	n/a	FR1	2	R1146E
1870.545	1.618	1885558	WORD	n/a	wordpools/wordpool_EN.txt	CLAY	12	15	[0, 0, 0]	n/a	FR1	2	R1146E
1872.163	0.0	1887176	WORD_OFF	n/a	n/a	CLAY	12	15	[0, 0, 0]	n/a	FR1	2	R1146E
1872.163	0.0	1887176	DISTRACT_START	n/a	n/a	n/a	-999	15	[0, 0, 0]	n/a	FR1	2	R1146E
1872.163	0.016	1887176	START	n/a	n/a	n/a	-999	15	[-999, -999, -999]	n/a	FR1	2	R1146E
1872.179	5.701	1887192	PROB	5.701	n/a	n/a	-999	15	[4, 1, 2]	7	FR1	2	R1146E
1877.88	6.634	1892893	PROB	6.634	n/a	n/a	-999	15	[3, 7, 3]	13	FR1	2	R1146E
1884.514	7.185	1899526	PROB	7.185	n/a	n/a	-999	15	[7, 6, 4]	19	FR1	2	R1146E
1891.699	4.437	1906711	PROB	4.437	n/a	n/a	-999	15	[4, 4, 4]	12	FR1	2	R1146E
1896.136	0.014	1911148	STOP	n/a	n/a	n/a	-999	15	[-999, -999, -999]	n/a	FR1	2	R1146E
1896.15	0.616	1911162	DISTRACT_END	n/a	n/a	n/a	-999	15	[0, 0, 0]	n/a	FR1	2	R1146E
1896.766	0.502	1911778	RETRIEVAL_ORIENT	n/a	n/a	n/a	-999	15	[0, 0, 0]	n/a	FR1	2	R1146E
1897.268	3.809	1912280	REC_START	n/a	n/a	n/a	-999	15	[0, 0, 0]	n/a	FR1	2	R1146E
1901.077	1.869	1916089	REC_WORD	1.869	n/a	MUD	-999	15	[0, 0, 0]	n/a	FR1	2	R1146E
1902.946	24.332	1917957	REC_WORD	24.332	n/a	CALF	-999	15	[0, 0, 0]	n/a	FR1	2	R1146E
1927.278	13.58	1942288	REC_END	n/a	n/a	n/a	-999	15	[0, 0, 0]	n/a	FR1	2	R1146E
1940.858	0.5	1955868	TRIAL	n/a	n/a	n/a	-999	16	[0, 0, 0]	n/a	FR1	2	R1146E
1941.358	10.428	1956368	COUNTDOWN_START	n/a	n/a	n/a	-999	16	[0, 0, 0]	n/a	FR1	2	R1146E
1951.786	0.007	1966795	COUNTDOWN_END	n/a	n/a	n/a	-999	16	[0, 0, 0]	n/a	FR1	2	R1146E
1951.793	1.617	1966802	ORIENT	n/a	n/a	n/a	-999	16	[0, 0, 0]	n/a	FR1	2	R1146E
1953.41	1.901	1968419	ORIENT_OFF	n/a	n/a	n/a	-999	16	[0, 0, 0]	n/a	FR1	2	R1146E
1955.311	1.617	1970320	WORD	n/a	wordpools/wordpool_EN.txt	SPARK	1	16	[0, 0, 0]	n/a	FR1	2	R1146E
1956.928	1.017	1971937	WORD_OFF	n/a	n/a	SPARK	1	16	[0, 0, 0]	n/a	FR1	2	R1146E
1957.945	1.616	1972954	WORD	n/a	wordpools/wordpool_EN.txt	MULE	2	16	[0, 0, 0]	n/a	FR1	2	R1146E
1959.561	0.767	1974570	WORD_OFF	n/a	n/a	MULE	2	16	[0, 0, 0]	n/a	FR1	2	R1146E
1960.328	1.617	1975337	WORD	n/a	wordpools/wordpool_EN.txt	NOSE	3	16	[0, 0, 0]	n/a	FR1	2	R1146E
1961.945	0.934	1976954	WORD_OFF	n/a	n/a	NOSE	3	16	[0, 0, 0]	n/a	FR1	2	R1146E
1962.879	1.616	1977888	WORD	n/a	wordpools/wordpool_EN.txt	AXE	4	16	[0, 0, 0]	n/a	FR1	2	R1146E
1964.495	0.851	1979504	WORD_OFF	n/a	n/a	AXE	4	16	[0, 0, 0]	n/a	FR1	2	R1146E
1965.346	1.617	1980355	WORD	n/a	wordpools/wordpool_EN.txt	MAT	5	16	[0, 0, 0]	n/a	FR1	2	R1146E
1966.963	0.967	1981972	WORD_OFF	n/a	n/a	MAT	5	16	[0, 0, 0]	n/a	FR1	2	R1146E
1967.93	1.616	1982939	WORD	n/a	wordpools/wordpool_EN.txt	SLEEVE	6	16	[0, 0, 0]	n/a	FR1	2	R1146E
1969.546	0.784	1984555	WORD_OFF	n/a	n/a	SLEEVE	6	16	[0, 0, 0]	n/a	FR1	2	R1146E
1970.33	1.617	1985339	WORD	n/a	wordpools/wordpool_EN.txt	BEAN	7	16	[0, 0, 0]	n/a	FR1	2	R1146E
1971.947	1.0	1986956	WORD_OFF	n/a	n/a	BEAN	7	16	[0, 0, 0]	n/a	FR1	2	R1146E
1972.947	1.616	1987956	WORD	n/a	wordpools/wordpool_EN.txt	JUICE	8	16	[0, 0, 0]	n/a	FR1	2	R1146E
1974.563	0.967	1989572	WORD_OFF	n/a	n/a	JUICE	8	16	[0, 0, 0]	n/a	FR1	2	R1146E
1975.53	1.618	1990538	WORD	n/a	wordpools/wordpool_EN.txt	ROPE	9	16	[0, 0, 0]	n/a	FR1	2	R1146E
1977.148	0.817	1992156	WORD_OFF	n/a	n/a	ROPE	9	16	[0, 0, 0]	n/a	FR1	2	R1146E
1977.965	1.616	1992973	WORD	n/a	wordpools/wordpool_EN.txt	BEAK	10	16	[0, 0, 0]	n/a	FR1	2	R1146E
1979.581	0.817	1994589	WORD_OFF	n/a	n/a	BEAK	10	16	[0, 0, 0]	n/a	FR1	2	R1146E
1980.398	1.617	1995406	WORD	n/a	wordpools/wordpool_EN.txt	FAN	11	16	[0, 0, 0]	n/a	FR1	2	R1146E
1982.015	0.867	1997023	WORD_OFF	n/a	n/a	FAN	11	16	[0, 0, 0]	n/a	FR1	2	R1146E
1982.882	1.616	1997890	WORD	n/a	wordpools/wordpool_EN.txt	HOOK	12	16	[0, 0, 0]	n/a	FR1	2	R1146E
1984.498	0.0	1999506	WORD_OFF	n/a	n/a	HOOK	12	16	[0, 0, 0]	n/a	FR1	2	R1146E
1984.498	0.001	1999506	DISTRACT_START	n/a	n/a	n/a	-999	16	[0, 0, 0]	n/a	FR1	2	R1146E
1984.499	0.016	1999507	START	n/a	n/a	n/a	-999	16	[-999, -999, -999]	n/a	FR1	2	R1146E
1984.515	11.636	1999523	PROB	11.636	n/a	n/a	-999	16	[5, 1, 8]	14	FR1	2	R1146E
1996.151	6.118	2011159	PROB	6.118	n/a	n/a	-999	16	[5, 6, 3]	14	FR1	2	R1146E
2002.269	6.735	2017276	PROB	6.735	n/a	n/a	-999	16	[7, 1, 2]	10	FR1	2	R1146E
2009.004	0.016	2024011	STOP	n/a	n/a	n/a	-999	16	[-999, -999, -999]	n/a	FR1	2	R1146E
2009.02	0.532	2024027	DISTRACT_END	n/a	n/a	n/a	-999	16	[0, 0, 0]	n/a	FR1	2	R1146E
2009.552	0.519	2024559	RETRIEVAL_ORIENT	n/a	n/a	n/a	-999	16	[0, 0, 0]	n/a	FR1	2	R1146E
2010.071	7.95	2025078	REC_START	n/a	n/a	n/a	-999	16	[0, 0, 0]	n/a	FR1	2	R1146E
2018.021	22.059	2033028	REC_WORD	22.059	n/a	BEAK	-999	16	[0, 0, 0]	n/a	FR1	2	R1146E
2040.08	8.596	2055086	REC_END	n/a	n/a	n/a	-999	16	[0, 0, 0]	n/a	FR1	2	R1146E
2048.676	0.5	2063681	TRIAL	n/a	n/a	n/a	-999	17	[0, 0, 0]	n/a	FR1	2	R1146E
2049.176	10.428	2064181	COUNTDOWN_START	n/a	n/a	n/a	-999	17	[0, 0, 0]	n/a	FR1	2	R1146E
2059.604	0.007	2074609	COUNTDOWN_END	n/a	n/a	n/a	-999	17	[0, 0, 0]	n/a	FR1	2	R1146E
2059.611	1.618	2074616	ORIENT	n/a	n/a	n/a	-999	17	[0, 0, 0]	n/a	FR1	2	R1146E
2061.229	2.183	2076234	ORIENT_OFF	n/a	n/a	n/a	-999	17	[0, 0, 0]	n/a	FR1	2	R1146E
2063.412	1.618	2078417	WORD	n/a	wordpools/wordpool_EN.txt	ELF	1	17	[0, 0, 0]	n/a	FR1	2	R1146E
2065.03	0.799	2080035	WORD_OFF	n/a	n/a	ELF	1	17	[0, 0, 0]	n/a	FR1	2	R1146E
2065.829	1.617	2080834	WORD	n/a	wordpools/wordpool_EN.txt	PANTS	2	17	[0, 0, 0]	n/a	FR1	2	R1146E
2067.446	0.935	2082451	WORD_OFF	n/a	n/a	PANTS	2	17	[0, 0, 0]	n/a	FR1	2	R1146E
2068.381	1.617	2083386	WORD	n/a	wordpools/wordpool_EN.txt	DRESS	3	17	[0, 0, 0]	n/a	FR1	2	R1146E
2069.998	0.832	2085003	WORD_OFF	n/a	n/a	DRESS	3	17	[0, 0, 0]	n/a	FR1	2	R1146E
2070.83	1.617	2085835	WORD	n/a	wordpools/wordpool_EN.txt	OAK	4	17	[0, 0, 0]	n/a	FR1	2	R1146E
2072.447	0.901	2087451	WORD_OFF	n/a	n/a	OAK	4	17	[0, 0, 0]	n/a	FR1	2	R1146E
2073.348	1.617	2088352	WORD	n/a	wordpools/wordpool_EN.txt	CHIN	5	17	[0, 0, 0]	n/a	FR1	2	R1146E
2074.965	0.833	2089969	WORD_OFF	n/a	n/a	CHIN	5	17	[0, 0, 0]	n/a	FR1	2	R1146E
2075.798	1.617	2090802	WORD	n/a	wordpools/wordpool_EN.txt	BAND	6	17	[0, 0, 0]	n/a	FR1	2	R1146E
2077.415	0.767	2092419	WORD_OFF	n/a	n/a	BAND	6	17	[0, 0, 0]	n/a	FR1	2	R1146E
2078.182	1.617	2093186	WORD	n/a	wordpools/wordpool_EN.txt	STONE	7	17	[0, 0, 0]	n/a	FR1	2	R1146E
2079.799	0.983	2094803	WORD_OFF	n/a	n/a	STONE	7	17	[0, 0, 0]	n/a	FR1	2	R1146E
2080.782	1.617	2095786	WORD	n/a	wordpools/wordpool_EN.txt	STICK	8	17	[0, 0, 0]	n/a	FR1	2	R1146E
2082.399	0.768	2097403	WORD_OFF	n/a	n/a	STICK	8	17	[0, 0, 0]	n/a	FR1	2	R1146E
2083.167	1.616	2098171	WORD	n/a	wordpools/wordpool_EN.txt	LEG	9	17	[0, 0, 0]	n/a	FR1	2	R1146E
2084.783	0.833	2099787	WORD_OFF	n/a	n/a	LEG	9	17	[0, 0, 0]	n/a	FR1	2	R1146E
2085.616	1.618	2100620	WORD	n/a	wordpools/wordpool_EN.txt	DESK	10	17	[0, 0, 0]	n/a	FR1	2	R1146E
2087.234	0.884	2102238	WORD_OFF	n/a	n/a	DESK	10	17	[0, 0, 0]	n/a	FR1	2	R1146E
2088.118	1.615	2103122	WORD	n/a	wordpools/wordpool_EN.txt	YARD	11	17	[0, 0, 0]	n/a	FR1	2	R1146E
2089.733	0.884	2104737	WORD_OFF	n/a	n/a	YARD	11	17	[0, 0, 0]	n/a	FR1	2	R1146E
2090.617	1.601	2105621	WORD	n/a	wordpools/wordpool_EN.txt	SHIELD	12	17	[0, 0, 0]	n/a	FR1	2	R1146E
2092.218	0.0	2107222	DISTRACT_START	n/a	n/a	n/a	-999	17	[0, 0, 0]	n/a	FR1	2	R1146E
2092.218	0.001	2107222	WORD_OFF	n/a	n/a	SHIELD	12	17	[0, 0, 0]	n/a	FR1	2	R1146E
2092.219	0.016	2107223	START	n/a	n/a	n/a	-999	17	[-999, -999, -999]	n/a	FR1	2	R1146E
2092.235	4.017	2107239	PROB	4.017	n/a	n/a	-999	17	[1, 3, 1]	5	FR1	2	R1146E
2096.252	10.468	2111255	PROB	10.468	n/a	n/a	-999	17	[8, 3, 3]	14	FR1	2	R1146E
2106.72	9.49	2121723	PROB	9.49	n/a	n/a	-999	17	[6, 5, 8]	19	FR1	2	R1146E
2116.21	0.012	2131213	STOP	n/a	n/a	n/a	-999	17	[-999, -999, -999]	n/a	FR1	2	R1146E
2116.222	0.583	2131225	DISTRACT_END	n/a	n/a	n/a	-999	17	[0, 0, 0]	n/a	FR1	2	R1146E
2116.805	0.519	2131808	RETRIEVAL_ORIENT	n/a	n/a	n/a	-999	17	[0, 0, 0]	n/a	FR1	2	R1146E
2117.324	1.85	2132327	REC_START	n/a	n/a	n/a	-999	17	[0, 0, 0]	n/a	FR1	2	R1146E
2119.174	3.597	2134177	REC_WORD	3.597	n/a	ELF	-999	17	[0, 0, 0]	n/a	FR1	2	R1146E
2122.771	24.562	2137773	REC_WORD	24.562	n/a	STOOL	-999	17	[0, 0, 0]	n/a	FR1	2	R1146E
2147.333	10.363	2162334	REC_END	n/a	n/a	n/a	-999	17	[0, 0, 0]	n/a	FR1	2	R1146E
2157.696	0.5	2172697	TRIAL	n/a	n/a	n/a	-999	18	[0, 0, 0]	n/a	FR1	2	R1146E
2158.196	10.428	2173197	COUNTDOWN_START	n/a	n/a	n/a	-999	18	[0, 0, 0]	n/a	FR1	2	R1146E
2168.624	0.007	2183624	COUNTDOWN_END	n/a	n/a	n/a	-999	18	[0, 0, 0]	n/a	FR1	2	R1146E
2168.631	1.618	2183631	ORIENT	n/a	n/a	n/a	-999	18	[0, 0, 0]	n/a	FR1	2	R1146E
2170.249	2.316	2185249	ORIENT_OFF	n/a	n/a	n/a	-999	18	[0, 0, 0]	n/a	FR1	2	R1146E
2172.565	1.618	2187565	WORD	n/a	wordpools/wordpool_EN.txt	BEE	1	18	[0, 0, 0]	n/a	FR1	2	R1146E
2174.183	0.983	2189183	WORD_OFF	n/a	n/a	BEE	1	18	[0, 0, 0]	n/a	FR1	2	R1146E
2175.166	1.616	2190166	WORD	n/a	wordpools/wordpool_EN.txt	CROW	2	18	[0, 0, 0]	n/a	FR1	2	R1146E
2176.782	0.8	2191782	WORD_OFF	n/a	n/a	CROW	2	18	[0, 0, 0]	n/a	FR1	2	R1146E
2177.582	1.601	2192582	WORD	n/a	wordpools/wordpool_EN.txt	PALM	3	18	[0, 0, 0]	n/a	FR1	2	R1146E
2179.183	0.834	2194183	WORD_OFF	n/a	n/a	PALM	3	18	[0, 0, 0]	n/a	FR1	2	R1146E
2180.017	1.616	2195017	WORD	n/a	wordpools/wordpool_EN.txt	CUP	4	18	[0, 0, 0]	n/a	FR1	2	R1146E
2181.633	0.784	2196633	WORD_OFF	n/a	n/a	CUP	4	18	[0, 0, 0]	n/a	FR1	2	R1146E
2182.417	1.617	2197417	WORD	n/a	wordpools/wordpool_EN.txt	CANE	5	18	[0, 0, 0]	n/a	FR1	2	R1146E
2184.034	0.917	2199034	WORD_OFF	n/a	n/a	CANE	5	18	[0, 0, 0]	n/a	FR1	2	R1146E
2184.951	1.616	2199951	WORD	n/a	wordpools/wordpool_EN.txt	FROG	6	18	[0, 0, 0]	n/a	FR1	2	R1146E
2186.567	0.95	2201567	WORD_OFF	n/a	n/a	FROG	6	18	[0, 0, 0]	n/a	FR1	2	R1146E
2187.517	1.601	2202517	WORD	n/a	wordpools/wordpool_EN.txt	ROOF	7	18	[0, 0, 0]	n/a	FR1	2	R1146E
2189.118	0.984	2204118	WORD_OFF	n/a	n/a	ROOF	7	18	[0, 0, 0]	n/a	FR1	2	R1146E
2190.102	1.616	2205102	WORD	n/a	wordpools/wordpool_EN.txt	DUCK	8	18	[0, 0, 0]	n/a	FR1	2	R1146E
2191.718	0.85	2206718	WORD_OFF	n/a	n/a	DUCK	8	18	[0, 0, 0]	n/a	FR1	2	R1146E
2192.568	1.602	2207568	WORD	n/a	wordpools/wordpool_EN.txt	SOUP	9	18	[0, 0, 0]	n/a	FR1	2	R1146E
2194.17	0.883	2209169	WORD_OFF	n/a	n/a	SOUP	9	18	[0, 0, 0]	n/a	FR1	2	R1146E
2195.053	1.616	2210052	WORD	n/a	wordpools/wordpool_EN.txt	PLANT	10	18	[0, 0, 0]	n/a	FR1	2	R1146E
2196.669	0.917	2211668	WORD_OFF	n/a	n/a	PLANT	10	18	[0, 0, 0]	n/a	FR1	2	R1146E
2197.586	1.601	2212585	WORD	n/a	wordpools/wordpool_EN.txt	SHIRT	11	18	[0, 0, 0]	n/a	FR1	2	R1146E
2199.187	0.767	2214186	WORD_OFF	n/a	n/a	SHIRT	11	18	[0, 0, 0]	n/a	FR1	2	R1146E
2199.954	1.616	2214953	WORD	n/a	wordpools/wordpool_EN.txt	BROOM	12	18	[0, 0, 0]	n/a	FR1	2	R1146E
2201.57	0.0	2216569	WORD_OFF	n/a	n/a	BROOM	12	18	[0, 0, 0]	n/a	FR1	2	R1146E
2201.57	0.001	2216569	DISTRACT_START	n/a	n/a	n/a	-999	18	[0, 0, 0]	n/a	FR1	2	R1146E
2201.571	0.016	2216570	START	n/a	n/a	n/a	-999	18	[-999, -999, -999]	n/a	FR1	2	R1146E
2201.587	16.836	2216586	PROB	16.836	n/a	n/a	-999	18	[8, 9, 5]	22	FR1	2	R1146E
2218.423	7.432	2233421	PROB	7.432	n/a	n/a	-999	18	[8, 8, 6]	22	FR1	2	R1146E
2225.855	0.02	2240853	STOP	n/a	n/a	n/a	-999	18	[-999, -999, -999]	n/a	FR1	2	R1146E
2225.875	0.666	2240873	DISTRACT_END	n/a	n/a	n/a	-999	18	[0, 0, 0]	n/a	FR1	2	R1146E
2226.541	0.518	2241539	RETRIEVAL_ORIENT	n/a	n/a	n/a	-999	18	[0, 0, 0]	n/a	FR1	2	R1146E
2227.059	2.359	2242057	REC_START	n/a	n/a	n/a	-999	18	[0, 0, 0]	n/a	FR1	2	R1146E
2229.418	2.272	2244416	REC_WORD	2.272	n/a	FROG	-999	18	[0, 0, 0]	n/a	FR1	2	R1146E
2231.69	2.312	2246688	REC_WORD	2.312	n/a	DUCK	-999	18	[0, 0, 0]	n/a	FR1	2	R1146E
2234.002	23.067	2249000	REC_WORD	23.067	n/a	CUP	-999	18	[0, 0, 0]	n/a	FR1	2	R1146E
2257.069	5.93	2272066	REC_END	n/a	n/a	n/a	-999	18	[0, 0, 0]	n/a	FR1	2	R1146E
2262.999	0.5	2277996	TRIAL	n/a	n/a	n/a	-999	19	[0, 0, 0]	n/a	FR1	2	R1146E
2263.499	10.428	2278496	COUNTDOWN_START	n/a	n/a	n/a	-999	19	[0, 0, 0]	n/a	FR1	2	R1146E
2273.927	0.007	2288923	COUNTDOWN_END	n/a	n/a	n/a	-999	19	[0, 0, 0]	n/a	FR1	2	R1146E
2273.934	1.616	2288930	ORIENT	n/a	n/a	n/a	-999	19	[0, 0, 0]	n/a	FR1	2	R1146E
2275.55	2.284	2290546	ORIENT_OFF	n/a	n/a	n/a	-999	19	[0, 0, 0]	n/a	FR1	2	R1146E
2277.834	1.616	2292830	WORD	n/a	wordpools/wordpool_EN.txt	SPOON	1	19	[0, 0, 0]	n/a	FR1	2	R1146E
2279.45	0.918	2294446	WORD_OFF	n/a	n/a	SPOON	1	19	[0, 0, 0]	n/a	FR1	2	R1146E
2280.368	1.617	2295364	WORD	n/a	wordpools/wordpool_EN.txt	WORLD	2	19	[0, 0, 0]	n/a	FR1	2	R1146E
2281.985	0.884	2296981	WORD_OFF	n/a	n/a	WORLD	2	19	[0, 0, 0]	n/a	FR1	2	R1146E
2282.869	1.616	2297865	WORD	n/a	wordpools/wordpool_EN.txt	KEY	3	19	[0, 0, 0]	n/a	FR1	2	R1146E
2284.485	0.884	2299481	WORD_OFF	n/a	n/a	KEY	3	19	[0, 0, 0]	n/a	FR1	2	R1146E
2285.369	1.617	2300365	WORD	n/a	wordpools/wordpool_EN.txt	SNAKE	4	19	[0, 0, 0]	n/a	FR1	2	R1146E
2286.986	0.9	2301982	WORD_OFF	n/a	n/a	SNAKE	4	19	[0, 0, 0]	n/a	FR1	2	R1146E
2287.886	1.616	2302882	WORD	n/a	wordpools/wordpool_EN.txt	MAP	5	19	[0, 0, 0]	n/a	FR1	2	R1146E
2289.502	0.818	2304497	WORD_OFF	n/a	n/a	MAP	5	19	[0, 0, 0]	n/a	FR1	2	R1146E
2290.32	1.617	2305315	WORD	n/a	wordpools/wordpool_EN.txt	VAN	6	19	[0, 0, 0]	n/a	FR1	2	R1146E
2291.937	1.017	2306932	WORD_OFF	n/a	n/a	VAN	6	19	[0, 0, 0]	n/a	FR1	2	R1146E
2292.954	1.616	2307949	WORD	n/a	wordpools/wordpool_EN.txt	HAWK	7	19	[0, 0, 0]	n/a	FR1	2	R1146E
2294.57	0.9	2309565	WORD_OFF	n/a	n/a	HAWK	7	19	[0, 0, 0]	n/a	FR1	2	R1146E
2295.47	1.618	2310465	WORD	n/a	wordpools/wordpool_EN.txt	DEER	8	19	[0, 0, 0]	n/a	FR1	2	R1146E
2297.088	0.833	2312083	WORD_OFF	n/a	n/a	DEER	8	19	[0, 0, 0]	n/a	FR1	2	R1146E
2297.921	1.616	2312916	WORD	n/a	wordpools/wordpool_EN.txt	BLOOM	9	19	[0, 0, 0]	n/a	FR1	2	R1146E
2299.537	0.785	2314532	WORD_OFF	n/a	n/a	BLOOM	9	19	[0, 0, 0]	n/a	FR1	2	R1146E
2300.322	1.617	2315317	WORD	n/a	wordpools/wordpool_EN.txt	HORSE	10	19	[0, 0, 0]	n/a	FR1	2	R1146E
2301.939	0.782	2316934	WORD_OFF	n/a	n/a	HORSE	10	19	[0, 0, 0]	n/a	FR1	2	R1146E
2302.721	1.618	2317716	WORD	n/a	wordpools/wordpool_EN.txt	PEN	11	19	[0, 0, 0]	n/a	FR1	2	R1146E
2304.339	0.817	2319334	WORD_OFF	n/a	n/a	PEN	11	19	[0, 0, 0]	n/a	FR1	2	R1146E
2305.156	1.616	2320151	WORD	n/a	wordpools/wordpool_EN.txt	COW	12	19	[0, 0, 0]	n/a	FR1	2	R1146E
2306.772	0.0	2321767	WORD_OFF	n/a	n/a	COW	12	19	[0, 0, 0]	n/a	FR1	2	R1146E
2306.772	0.0	2321767	DISTRACT_START	n/a	n/a	n/a	-999	19	[0, 0, 0]	n/a	FR1	2	R1146E
2306.772	0.016	2321767	START	n/a	n/a	n/a	-999	19	[-999, -999, -999]	n/a	FR1	2	R1146E
2306.788	5.785	2321783	PROB	5.785	n/a	n/a	-999	19	[4, 2, 5]	11	FR1	2	R1146E
2312.573	9.519	2327568	PROB	9.519	n/a	n/a	-999	19	[4, 7, 8]	19	FR1	2	R1146E
2322.092	13.26	2337086	PROB	13.26	n/a	n/a	-999	19	[4, 7, 8]	19	FR1	2	R1146E
2335.352	0.009	2350346	STOP	n/a	n/a	n/a	-999	19	[-999, -999, -999]	n/a	FR1	2	R1146E
2335.361	0.634	2350355	DISTRACT_END	n/a	n/a	n/a	-999	19	[0, 0, 0]	n/a	FR1	2	R1146E
2335.995	0.516	2350989	RETRIEVAL_ORIENT	n/a	n/a	n/a	-999	19	[0, 0, 0]	n/a	FR1	2	R1146E
2336.511	5.842	2351505	REC_START	n/a	n/a	n/a	-999	19	[0, 0, 0]	n/a	FR1	2	R1146E
2342.353	2.782	2357346	REC_WORD	2.782	n/a	HORSE	-999	19	[0, 0, 0]	n/a	FR1	2	R1146E
2345.135	1.841	2360128	REC_WORD	1.841	n/a	DEER	-999	19	[0, 0, 0]	n/a	FR1	2	R1146E
2346.976	4.265	2361969	REC_WORD	4.265	n/a	HAWK	-999	19	[0, 0, 0]	n/a	FR1	2	R1146E
2351.241	15.278	2366234	REC_WORD	15.278	n/a	COW	-999	19	[0, 0, 0]	n/a	FR1	2	R1146E
2366.519	14.717	2381511	REC_END	n/a	n/a	n/a	-999	19	[0, 0, 0]	n/a	FR1	2	R1146E
2381.236	0.5	2396228	TRIAL	n/a	n/a	n/a	-999	20	[0, 0, 0]	n/a	FR1	2	R1146E
2381.736	10.428	2396728	COUNTDOWN_START	n/a	n/a	n/a	-999	20	[0, 0, 0]	n/a	FR1	2	R1146E
2392.164	0.007	2407155	COUNTDOWN_END	n/a	n/a	n/a	-999	20	[0, 0, 0]	n/a	FR1	2	R1146E
2392.171	1.616	2407162	ORIENT	n/a	n/a	n/a	-999	20	[0, 0, 0]	n/a	FR1	2	R1146E
2393.787	2.135	2408778	ORIENT_OFF	n/a	n/a	n/a	-999	20	[0, 0, 0]	n/a	FR1	2	R1146E
2395.922	1.616	2410913	WORD	n/a	wordpools/wordpool_EN.txt	DOOR	1	20	[0, 0, 0]	n/a	FR1	2	R1146E
2397.538	1.017	2412529	WORD_OFF	n/a	n/a	DOOR	1	20	[0, 0, 0]	n/a	FR1	2	R1146E
2398.555	1.618	2413546	WORD	n/a	wordpools/wordpool_EN.txt	CAKE	2	20	[0, 0, 0]	n/a	FR1	2	R1146E
2400.173	0.917	2415164	WORD_OFF	n/a	n/a	CAKE	2	20	[0, 0, 0]	n/a	FR1	2	R1146E
2401.09	1.615	2416081	WORD	n/a	wordpools/wordpool_EN.txt	SHOE	3	20	[0, 0, 0]	n/a	FR1	2	R1146E
2402.705	0.817	2417696	WORD_OFF	n/a	n/a	SHOE	3	20	[0, 0, 0]	n/a	FR1	2	R1146E
2403.522	1.618	2418513	WORD	n/a	wordpools/wordpool_EN.txt	OAR	4	20	[0, 0, 0]	n/a	FR1	2	R1146E
2405.14	0.984	2420131	WORD_OFF	n/a	n/a	OAR	4	20	[0, 0, 0]	n/a	FR1	2	R1146E
2406.124	1.616	2421115	WORD	n/a	wordpools/wordpool_EN.txt	FUR	5	20	[0, 0, 0]	n/a	FR1	2	R1146E
2407.74	0.95	2422731	WORD_OFF	n/a	n/a	FUR	5	20	[0, 0, 0]	n/a	FR1	2	R1146E
2408.69	1.618	2423681	WORD	n/a	wordpools/wordpool_EN.txt	EGG	6	20	[0, 0, 0]	n/a	FR1	2	R1146E
2410.308	0.983	2425298	WORD_OFF	n/a	n/a	EGG	6	20	[0, 0, 0]	n/a	FR1	2	R1146E
2411.291	1.617	2426281	WORD	n/a	wordpools/wordpool_EN.txt	CLIFF	7	20	[0, 0, 0]	n/a	FR1	2	R1146E
2412.908	0.95	2427898	WORD_OFF	n/a	n/a	CLIFF	7	20	[0, 0, 0]	n/a	FR1	2	R1146E
2413.858	1.616	2428848	WORD	n/a	wordpools/wordpool_EN.txt	POLE	8	20	[0, 0, 0]	n/a	FR1	2	R1146E
2415.474	0.802	2430464	WORD_OFF	n/a	n/a	POLE	8	20	[0, 0, 0]	n/a	FR1	2	R1146E
2416.276	1.617	2431266	WORD	n/a	wordpools/wordpool_EN.txt	EAR	9	20	[0, 0, 0]	n/a	FR1	2	R1146E
2417.893	0.898	2432883	WORD_OFF	n/a	n/a	EAR	9	20	[0, 0, 0]	n/a	FR1	2	R1146E
2418.791	1.618	2433781	WORD	n/a	wordpools/wordpool_EN.txt	CHAIR	10	20	[0, 0, 0]	n/a	FR1	2	R1146E
2420.409	0.867	2435399	WORD_OFF	n/a	n/a	CHAIR	10	20	[0, 0, 0]	n/a	FR1	2	R1146E
2421.276	1.617	2436266	WORD	n/a	wordpools/wordpool_EN.txt	STREET	11	20	[0, 0, 0]	n/a	FR1	2	R1146E
2422.893	0.984	2437883	WORD_OFF	n/a	n/a	STREET	11	20	[0, 0, 0]	n/a	FR1	2	R1146E
2423.877	1.616	2438867	WORD	n/a	wordpools/wordpool_EN.txt	WOLF	12	20	[0, 0, 0]	n/a	FR1	2	R1146E
2425.493	0.0	2440483	WORD_OFF	n/a	n/a	WOLF	12	20	[0, 0, 0]	n/a	FR1	2	R1146E
2425.493	0.0	2440483	DISTRACT_START	n/a	n/a	n/a	-999	20	[0, 0, 0]	n/a	FR1	2	R1146E
2425.493	0.017	2440483	START	n/a	n/a	n/a	-999	20	[-999, -999, -999]	n/a	FR1	2	R1146E
2425.51	3.718	2440500	PROB	3.718	n/a	n/a	-999	20	[9, 2, 1]	12	FR1	2	R1146E
2429.228	4.2	2444218	PROB	4.2	n/a	n/a	-999	20	[5, 1, 9]	15	FR1	2	R1146E
2433.428	4.2	2448418	PROB	4.2	n/a	n/a	-999	20	[5, 8, 2]	15	FR1	2	R1146E
2437.628	3.834	2452617	PROB	3.834	n/a	n/a	-999	20	[3, 1, 9]	13	FR1	2	R1146E
2441.462	6.294	2456451	PROB	6.294	n/a	n/a	-999	20	[6, 9, 9]	24	FR1	2	R1146E
2447.756	0.007	2462745	STOP	n/a	n/a	n/a	-999	20	[-999, -999, -999]	n/a	FR1	2	R1146E
2447.763	0.618	2462752	DISTRACT_END	n/a	n/a	n/a	-999	20	[0, 0, 0]	n/a	FR1	2	R1146E
2448.381	0.518	2463370	RETRIEVAL_ORIENT	n/a	n/a	n/a	-999	20	[0, 0, 0]	n/a	FR1	2	R1146E
2448.899	1.575	2463888	REC_START	n/a	n/a	n/a	-999	20	[0, 0, 0]	n/a	FR1	2	R1146E
2450.474	28.434	2465463	REC_WORD	28.434	n/a	STREET	-999	20	[0, 0, 0]	n/a	FR1	2	R1146E
2478.908	20.932	2493896	REC_END	n/a	n/a	n/a	-999	20	[0, 0, 0]	n/a	FR1	2	R1146E
2499.84	0.5	2514827	TRIAL	n/a	n/a	n/a	-999	21	[0, 0, 0]	n/a	FR1	2	R1146E
2500.34	10.428	2515327	COUNTDOWN_START	n/a	n/a	n/a	-999	21	[0, 0, 0]	n/a	FR1	2	R1146E
2510.768	0.007	2525754	COUNTDOWN_END	n/a	n/a	n/a	-999	21	[0, 0, 0]	n/a	FR1	2	R1146E
2510.775	1.618	2525761	ORIENT	n/a	n/a	n/a	-999	21	[0, 0, 0]	n/a	FR1	2	R1146E
2512.393	2.299	2527379	ORIENT_OFF	n/a	n/a	n/a	-999	21	[0, 0, 0]	n/a	FR1	2	R1146E
2514.692	1.618	2529678	WORD	n/a	wordpools/wordpool_EN.txt	SNOW	1	21	[0, 0, 0]	n/a	FR1	2	R1146E
2516.31	1.017	2531296	WORD_OFF	n/a	n/a	SNOW	1	21	[0, 0, 0]	n/a	FR1	2	R1146E
2517.327	1.617	2532313	WORD	n/a	wordpools/wordpool_EN.txt	LAND	2	21	[0, 0, 0]	n/a	FR1	2	R1146E
2518.944	0.866	2533930	WORD_OFF	n/a	n/a	LAND	2	21	[0, 0, 0]	n/a	FR1	2	R1146E
2519.81	1.616	2534796	WORD	n/a	wordpools/wordpool_EN.txt	SAIL	3	21	[0, 0, 0]	n/a	FR1	2	R1146E
2521.426	0.852	2536412	WORD_OFF	n/a	n/a	SAIL	3	21	[0, 0, 0]	n/a	FR1	2	R1146E
2522.278	1.616	2537264	WORD	n/a	wordpools/wordpool_EN.txt	ICE	4	21	[0, 0, 0]	n/a	FR1	2	R1146E
2523.894	0.816	2538880	WORD_OFF	n/a	n/a	ICE	4	21	[0, 0, 0]	n/a	FR1	2	R1146E
2524.71	1.601	2539696	WORD	n/a	wordpools/wordpool_EN.txt	RAKE	5	21	[0, 0, 0]	n/a	FR1	2	R1146E
2526.311	0.901	2541297	WORD_OFF	n/a	n/a	RAKE	5	21	[0, 0, 0]	n/a	FR1	2	R1146E
2527.212	1.616	2542198	WORD	n/a	wordpools/wordpool_EN.txt	CAT	6	21	[0, 0, 0]	n/a	FR1	2	R1146E
2528.828	0.9	2543814	WORD_OFF	n/a	n/a	CAT	6	21	[0, 0, 0]	n/a	FR1	2	R1146E
2529.728	1.601	2544714	WORD	n/a	wordpools/wordpool_EN.txt	FLAG	7	21	[0, 0, 0]	n/a	FR1	2	R1146E
2531.329	0.833	2546314	WORD_OFF	n/a	n/a	FLAG	7	21	[0, 0, 0]	n/a	FR1	2	R1146E
2532.162	1.617	2547147	WORD	n/a	wordpools/wordpool_EN.txt	TOOTH	8	21	[0, 0, 0]	n/a	FR1	2	R1146E
2533.779	0.95	2548764	WORD_OFF	n/a	n/a	TOOTH	8	21	[0, 0, 0]	n/a	FR1	2	R1146E
2534.729	1.618	2549714	WORD	n/a	wordpools/wordpool_EN.txt	TOY	9	21	[0, 0, 0]	n/a	FR1	2	R1146E
2536.347	0.833	2551332	WORD_OFF	n/a	n/a	TOY	9	21	[0, 0, 0]	n/a	FR1	2	R1146E
2537.18	1.616	2552165	WORD	n/a	wordpools/wordpool_EN.txt	ARM	10	21	[0, 0, 0]	n/a	FR1	2	R1146E
2538.796	0.9	2553781	WORD_OFF	n/a	n/a	ARM	10	21	[0, 0, 0]	n/a	FR1	2	R1146E
2539.696	1.618	2554681	WORD	n/a	wordpools/wordpool_EN.txt	MAZE	11	21	[0, 0, 0]	n/a	FR1	2	R1146E
2541.314	0.884	2556299	WORD_OFF	n/a	n/a	MAZE	11	21	[0, 0, 0]	n/a	FR1	2	R1146E
2542.198	1.616	2557183	WORD	n/a	wordpools/wordpool_EN.txt	RAIN	12	21	[0, 0, 0]	n/a	FR1	2	R1146E
2543.814	0.0	2558799	WORD_OFF	n/a	n/a	RAIN	12	21	[0, 0, 0]	n/a	FR1	2	R1146E
2543.814	0.0	2558799	DISTRACT_START	n/a	n/a	n/a	-999	21	[0, 0, 0]	n/a	FR1	2	R1146E
2543.814	0.016	2558799	START	n/a	n/a	n/a	-999	21	[-999, -999, -999]	n/a	FR1	2	R1146E
2543.83	5.269	2558815	PROB	5.269	n/a	n/a	-999	21	[6, 2, 3]	11	FR1	2	R1146E
2549.099	4.234	2564084	PROB	4.234	n/a	n/a	-999	21	[3, 7, 1]	11	FR1	2	R1146E
2553.333	9.084	2568318	PROB	9.084	n/a	n/a	-999	21	[2, 4, 7]	13	FR1	2	R1146E
2562.417	7.578	2577401	PROB	7.578	n/a	n/a	-999	21	[4, 6, 5]	15	FR1	2	R1146E
2569.995	0.008	2584979	STOP	n/a	n/a	n/a	-999	21	[-999, -999, -999]	n/a	FR1	2	R1146E
2570.003	0.632	2584987	DISTRACT_END	n/a	n/a	n/a	-999	21	[0, 0, 0]	n/a	FR1	2	R1146E
2570.635	0.519	2585619	RETRIEVAL_ORIENT	n/a	n/a	n/a	-999	21	[0, 0, 0]	n/a	FR1	2	R1146E
2571.154	5.622	2586138	REC_START	n/a	n/a	n/a	-999	21	[0, 0, 0]	n/a	FR1	2	R1146E
2576.776	11.253	2591760	REC_WORD_VV	11.253	n/a	<>	-999	21	[0, 0, 0]	n/a	FR1	2	R1146E
2588.029	13.134	2603012	REC_WORD	13.134	n/a	STREET	-999	21	[0, 0, 0]	n/a	FR1	2	R1146E
2601.163	11.781	2616146	REC_END	n/a	n/a	n/a	-999	21	[0, 0, 0]	n/a	FR1	2	R1146E
2612.944	0.5	2627926	TRIAL	n/a	n/a	n/a	-999	22	[0, 0, 0]	n/a	FR1	2	R1146E
2613.444	10.428	2628426	COUNTDOWN_START	n/a	n/a	n/a	-999	22	[0, 0, 0]	n/a	FR1	2	R1146E
2623.872	0.007	2638854	COUNTDOWN_END	n/a	n/a	n/a	-999	22	[0, 0, 0]	n/a	FR1	2	R1146E
2623.879	1.616	2638861	ORIENT	n/a	n/a	n/a	-999	22	[0, 0, 0]	n/a	FR1	2	R1146E
2625.495	2.217	2640477	ORIENT_OFF	n/a	n/a	n/a	-999	22	[0, 0, 0]	n/a	FR1	2	R1146E
2627.712	1.618	2642693	WORD	n/a	wordpools/wordpool_EN.txt	CHEEK	1	22	[0, 0, 0]	n/a	FR1	2	R1146E
2629.33	0.783	2644311	WORD_OFF	n/a	n/a	CHEEK	1	22	[0, 0, 0]	n/a	FR1	2	R1146E
2630.113	1.616	2645094	WORD	n/a	wordpools/wordpool_EN.txt	FENCE	2	22	[0, 0, 0]	n/a	FR1	2	R1146E
2631.729	0.967	2646710	WORD_OFF	n/a	n/a	FENCE	2	22	[0, 0, 0]	n/a	FR1	2	R1146E
2632.696	1.601	2647677	WORD	n/a	wordpools/wordpool_EN.txt	RIB	3	22	[0, 0, 0]	n/a	FR1	2	R1146E
2634.297	0.984	2649278	WORD_OFF	n/a	n/a	RIB	3	22	[0, 0, 0]	n/a	FR1	2	R1146E
2635.281	1.617	2650262	WORD	n/a	wordpools/wordpool_EN.txt	SMILE	4	22	[0, 0, 0]	n/a	FR1	2	R1146E
2636.898	0.799	2651879	WORD_OFF	n/a	n/a	SMILE	4	22	[0, 0, 0]	n/a	FR1	2	R1146E
2637.697	1.601	2652678	WORD	n/a	wordpools/wordpool_EN.txt	PIE	5	22	[0, 0, 0]	n/a	FR1	2	R1146E
2639.298	0.85	2654279	WORD_OFF	n/a	n/a	PIE	5	22	[0, 0, 0]	n/a	FR1	2	R1146E
2640.148	1.616	2655129	WORD	n/a	wordpools/wordpool_EN.txt	PLATE	6	22	[0, 0, 0]	n/a	FR1	2	R1146E
2641.764	1.017	2656745	WORD_OFF	n/a	n/a	PLATE	6	22	[0, 0, 0]	n/a	FR1	2	R1146E
2642.781	1.617	2657762	WORD	n/a	wordpools/wordpool_EN.txt	SUIT	7	22	[0, 0, 0]	n/a	FR1	2	R1146E
2644.398	0.785	2659379	WORD_OFF	n/a	n/a	SUIT	7	22	[0, 0, 0]	n/a	FR1	2	R1146E
2645.183	1.616	2660164	WORD	n/a	wordpools/wordpool_EN.txt	LAMP	8	22	[0, 0, 0]	n/a	FR1	2	R1146E
2646.799	1.0	2661780	WORD_OFF	n/a	n/a	LAMP	8	22	[0, 0, 0]	n/a	FR1	2	R1146E
2647.799	1.617	2662780	WORD	n/a	wordpools/wordpool_EN.txt	PASTE	9	22	[0, 0, 0]	n/a	FR1	2	R1146E
2649.416	0.801	2664397	WORD_OFF	n/a	n/a	PASTE	9	22	[0, 0, 0]	n/a	FR1	2	R1146E
2650.217	1.617	2665198	WORD	n/a	wordpools/wordpool_EN.txt	TENT	10	22	[0, 0, 0]	n/a	FR1	2	R1146E
2651.834	0.982	2666814	WORD_OFF	n/a	n/a	TENT	10	22	[0, 0, 0]	n/a	FR1	2	R1146E
2652.816	1.617	2667796	WORD	n/a	wordpools/wordpool_EN.txt	MUG	11	22	[0, 0, 0]	n/a	FR1	2	R1146E
2654.433	0.785	2669413	WORD_OFF	n/a	n/a	MUG	11	22	[0, 0, 0]	n/a	FR1	2	R1146E
2655.218	1.617	2670198	WORD	n/a	wordpools/wordpool_EN.txt	BRICK	12	22	[0, 0, 0]	n/a	FR1	2	R1146E
2656.835	0.0	2671815	WORD_OFF	n/a	n/a	BRICK	12	22	[0, 0, 0]	n/a	FR1	2	R1146E
2656.835	0.0	2671815	DISTRACT_START	n/a	n/a	n/a	-999	22	[0, 0, 0]	n/a	FR1	2	R1146E
2656.835	0.016	2671815	START	n/a	n/a	n/a	-999	22	[-999, -999, -999]	n/a	FR1	2	R1146E
2656.851	6.418	2671831	PROB	6.418	n/a	n/a	-999	22	[3, 6, 3]	12	FR1	2	R1146E
2663.269	5.283	2678249	PROB	5.283	n/a	n/a	-999	22	[6, 6, 8]	20	FR1	2	R1146E
2668.552	2.702	2683532	PROB	2.702	n/a	n/a	-999	22	[1, 4, 9]	14	FR1	2	R1146E
2671.254	4.4	2686234	PROB	4.4	n/a	n/a	-999	22	[3, 7, 4]	14	FR1	2	R1146E
2675.654	5.599	2690634	PROB	5.599	n/a	n/a	-999	22	[6, 9, 9]	24	FR1	2	R1146E
2681.253	0.019	2696232	STOP	n/a	n/a	n/a	-999	22	[-999, -999, -999]	n/a	FR1	2	R1146E
2681.272	0.6	2696251	DISTRACT_END	n/a	n/a	n/a	-999	22	[0, 0, 0]	n/a	FR1	2	R1146E
2681.872	0.518	2696851	RETRIEVAL_ORIENT	n/a	n/a	n/a	-999	22	[0, 0, 0]	n/a	FR1	2	R1146E
2682.39	7.563	2697369	REC_START	n/a	n/a	n/a	-999	22	[0, 0, 0]	n/a	FR1	2	R1146E
2689.953	22.444	2704932	REC_WORD	22.444	n/a	BRICK	-999	22	[0, 0, 0]	n/a	FR1	2	R1146E
2712.397	8.081	2727375	REC_END	n/a	n/a	n/a	-999	22	[0, 0, 0]	n/a	FR1	2	R1146E
2720.478	0.5	2735456	TRIAL	n/a	n/a	n/a	-999	23	[0, 0, 0]	n/a	FR1	2	R1146E
2720.978	10.428	2735956	COUNTDOWN_START	n/a	n/a	n/a	-999	23	[0, 0, 0]	n/a	FR1	2	R1146E
2731.406	0.008	2746383	COUNTDOWN_END	n/a	n/a	n/a	-999	23	[0, 0, 0]	n/a	FR1	2	R1146E
2731.414	1.618	2746391	ORIENT	n/a	n/a	n/a	-999	23	[0, 0, 0]	n/a	FR1	2	R1146E
2733.032	2.2	2748009	ORIENT_OFF	n/a	n/a	n/a	-999	23	[0, 0, 0]	n/a	FR1	2	R1146E
2735.232	1.617	2750209	WORD	n/a	wordpools/wordpool_EN.txt	GEESE	1	23	[0, 0, 0]	n/a	FR1	2	R1146E
2736.849	1.0	2751826	WORD_OFF	n/a	n/a	GEESE	1	23	[0, 0, 0]	n/a	FR1	2	R1146E
2737.849	1.616	2752826	WORD	n/a	wordpools/wordpool_EN.txt	ROOM	2	23	[0, 0, 0]	n/a	FR1	2	R1146E
2739.465	0.868	2754442	WORD_OFF	n/a	n/a	ROOM	2	23	[0, 0, 0]	n/a	FR1	2	R1146E
2740.333	1.617	2755310	WORD	n/a	wordpools/wordpool_EN.txt	BEACH	3	23	[0, 0, 0]	n/a	FR1	2	R1146E
2741.95	0.933	2756927	WORD_OFF	n/a	n/a	BEACH	3	23	[0, 0, 0]	n/a	FR1	2	R1146E
2742.883	1.616	2757860	WORD	n/a	wordpools/wordpool_EN.txt	GRAPE	4	23	[0, 0, 0]	n/a	FR1	2	R1146E
2744.499	0.835	2759476	WORD_OFF	n/a	n/a	GRAPE	4	23	[0, 0, 0]	n/a	FR1	2	R1146E
2745.334	1.617	2760311	WORD	n/a	wordpools/wordpool_EN.txt	BREAD	5	23	[0, 0, 0]	n/a	FR1	2	R1146E
2746.951	0.849	2761928	WORD_OFF	n/a	n/a	BREAD	5	23	[0, 0, 0]	n/a	FR1	2	R1146E
2747.8	1.617	2762777	WORD	n/a	wordpools/wordpool_EN.txt	FLUTE	6	23	[0, 0, 0]	n/a	FR1	2	R1146E
2749.417	1.0	2764393	WORD_OFF	n/a	n/a	FLUTE	6	23	[0, 0, 0]	n/a	FR1	2	R1146E
2750.417	1.618	2765393	WORD	n/a	wordpools/wordpool_EN.txt	NET	7	23	[0, 0, 0]	n/a	FR1	2	R1146E
2752.035	1.017	2767011	WORD_OFF	n/a	n/a	NET	7	23	[0, 0, 0]	n/a	FR1	2	R1146E
2753.052	1.616	2768028	WORD	n/a	wordpools/wordpool_EN.txt	SHEEP	8	23	[0, 0, 0]	n/a	FR1	2	R1146E
2754.668	0.766	2769644	WORD_OFF	n/a	n/a	SHEEP	8	23	[0, 0, 0]	n/a	FR1	2	R1146E
2755.434	1.602	2770410	WORD	n/a	wordpools/wordpool_EN.txt	BRANCH	9	23	[0, 0, 0]	n/a	FR1	2	R1146E
2757.036	0.933	2772012	WORD_OFF	n/a	n/a	BRANCH	9	23	[0, 0, 0]	n/a	FR1	2	R1146E
2757.969	1.616	2772945	WORD	n/a	wordpools/wordpool_EN.txt	JAIL	10	23	[0, 0, 0]	n/a	FR1	2	R1146E
2759.585	0.967	2774561	WORD_OFF	n/a	n/a	JAIL	10	23	[0, 0, 0]	n/a	FR1	2	R1146E
2760.552	1.618	2775528	WORD	n/a	wordpools/wordpool_EN.txt	LEAF	11	23	[0, 0, 0]	n/a	FR1	2	R1146E
2762.17	1.0	2777146	WORD_OFF	n/a	n/a	LEAF	11	23	[0, 0, 0]	n/a	FR1	2	R1146E
2763.17	1.616	2778146	WORD	n/a	wordpools/wordpool_EN.txt	THREAD	12	23	[0, 0, 0]	n/a	FR1	2	R1146E
2764.786	0.0	2779762	WORD_OFF	n/a	n/a	THREAD	12	23	[0, 0, 0]	n/a	FR1	2	R1146E
2764.786	0.001	2779762	DISTRACT_START	n/a	n/a	n/a	-999	23	[0, 0, 0]	n/a	FR1	2	R1146E
2764.787	0.016	2779763	START	n/a	n/a	n/a	-999	23	[-999, -999, -999]	n/a	FR1	2	R1146E
2764.803	7.252	2779779	PROB	7.252	n/a	n/a	-999	23	[6, 9, 4]	19	FR1	2	R1146E
2772.055	9.534	2787031	PROB	9.534	n/a	n/a	-999	23	[9, 2, 5]	16	FR1	2	R1146E
2781.589	4.804	2796564	PROB	4.804	n/a	n/a	-999	23	[1, 4, 8]	13	FR1	2	R1146E
2786.393	0.014	2801368	STOP	n/a	n/a	n/a	-999	23	[-999, -999, -999]	n/a	FR1	2	R1146E
2786.407	0.667	2801382	DISTRACT_END	n/a	n/a	n/a	-999	23	[0, 0, 0]	n/a	FR1	2	R1146E
2787.074	0.517	2802049	RETRIEVAL_ORIENT	n/a	n/a	n/a	-999	23	[0, 0, 0]	n/a	FR1	2	R1146E
2787.591	1.377	2802566	REC_START	n/a	n/a	n/a	-999	23	[0, 0, 0]	n/a	FR1	2	R1146E
2788.968	1.694	2803943	REC_WORD	1.694	n/a	BRANCH	-999	23	[0, 0, 0]	n/a	FR1	2	R1146E
2790.662	4.615	2805637	REC_WORD	4.615	n/a	LEAF	-999	23	[0, 0, 0]	n/a	FR1	2	R1146E
2795.277	22.322	2810252	REC_WORD	22.322	n/a	NET	-999	23	[0, 0, 0]	n/a	FR1	2	R1146E
2817.599	32.102	2832573	REC_END	n/a	n/a	n/a	-999	23	[0, 0, 0]	n/a	FR1	2	R1146E
2849.701	0.5	2864673	TRIAL	n/a	n/a	n/a	-999	24	[0, 0, 0]	n/a	FR1	2	R1146E
2850.201	10.428	2865173	COUNTDOWN_START	n/a	n/a	n/a	-999	24	[0, 0, 0]	n/a	FR1	2	R1146E
2860.629	0.007	2875601	COUNTDOWN_END	n/a	n/a	n/a	-999	24	[0, 0, 0]	n/a	FR1	2	R1146E
2860.636	1.601	2875608	ORIENT	n/a	n/a	n/a	-999	24	[0, 0, 0]	n/a	FR1	2	R1146E
2862.237	1.901	2877209	ORIENT_OFF	n/a	n/a	n/a	-999	24	[0, 0, 0]	n/a	FR1	2	R1146E
2864.138	1.616	2879110	WORD	n/a	wordpools/wordpool_EN.txt	TOOL	1	24	[0, 0, 0]	n/a	FR1	2	R1146E
2865.754	0.983	2880726	WORD_OFF	n/a	n/a	TOOL	1	24	[0, 0, 0]	n/a	FR1	2	R1146E
2866.737	1.618	2881709	WORD	n/a	wordpools/wordpool_EN.txt	SWAMP	2	24	[0, 0, 0]	n/a	FR1	2	R1146E
2868.355	0.884	2883327	WORD_OFF	n/a	n/a	SWAMP	2	24	[0, 0, 0]	n/a	FR1	2	R1146E
2869.239	1.617	2884210	WORD	n/a	wordpools/wordpool_EN.txt	PIT	3	24	[0, 0, 0]	n/a	FR1	2	R1146E
2870.856	1.0	2885827	WORD_OFF	n/a	n/a	PIT	3	24	[0, 0, 0]	n/a	FR1	2	R1146E
2871.856	1.616	2886827	WORD	n/a	wordpools/wordpool_EN.txt	GLASS	4	24	[0, 0, 0]	n/a	FR1	2	R1146E
2873.472	0.834	2888443	WORD_OFF	n/a	n/a	GLASS	4	24	[0, 0, 0]	n/a	FR1	2	R1146E
2874.306	1.617	2889277	WORD	n/a	wordpools/wordpool_EN.txt	BRIDGE	5	24	[0, 0, 0]	n/a	FR1	2	R1146E
2875.923	1.0	2890894	WORD_OFF	n/a	n/a	BRIDGE	5	24	[0, 0, 0]	n/a	FR1	2	R1146E
2876.923	1.617	2891894	WORD	n/a	wordpools/wordpool_EN.txt	BOWL	6	24	[0, 0, 0]	n/a	FR1	2	R1146E
2878.54	0.95	2893511	WORD_OFF	n/a	n/a	BOWL	6	24	[0, 0, 0]	n/a	FR1	2	R1146E
2879.49	1.618	2894461	WORD	n/a	wordpools/wordpool_EN.txt	PIPE	7	24	[0, 0, 0]	n/a	FR1	2	R1146E
2881.108	0.916	2896079	WORD_OFF	n/a	n/a	PIPE	7	24	[0, 0, 0]	n/a	FR1	2	R1146E
2882.024	1.616	2896995	WORD	n/a	wordpools/wordpool_EN.txt	TOE	8	24	[0, 0, 0]	n/a	FR1	2	R1146E
2883.64	0.967	2898611	WORD_OFF	n/a	n/a	TOE	8	24	[0, 0, 0]	n/a	FR1	2	R1146E
2884.607	1.618	2899578	WORD	n/a	wordpools/wordpool_EN.txt	CUBE	9	24	[0, 0, 0]	n/a	FR1	2	R1146E
2886.225	0.95	2901196	WORD_OFF	n/a	n/a	CUBE	9	24	[0, 0, 0]	n/a	FR1	2	R1146E
2887.175	1.616	2902146	WORD	n/a	wordpools/wordpool_EN.txt	BATH	10	24	[0, 0, 0]	n/a	FR1	2	R1146E
2888.791	0.917	2903762	WORD_OFF	n/a	n/a	BATH	10	24	[0, 0, 0]	n/a	FR1	2	R1146E
2889.708	1.618	2904679	WORD	n/a	wordpools/wordpool_EN.txt	SHEET	11	24	[0, 0, 0]	n/a	FR1	2	R1146E
2891.326	0.8	2906297	WORD_OFF	n/a	n/a	SHEET	11	24	[0, 0, 0]	n/a	FR1	2	R1146E
2892.126	1.616	2907097	WORD	n/a	wordpools/wordpool_EN.txt	STRAW	12	24	[0, 0, 0]	n/a	FR1	2	R1146E
2893.742	0.0	2908712	WORD_OFF	n/a	n/a	STRAW	12	24	[0, 0, 0]	n/a	FR1	2	R1146E
2893.742	0.001	2908712	DISTRACT_START	n/a	n/a	n/a	-999	24	[0, 0, 0]	n/a	FR1	2	R1146E
2893.743	0.016	2908713	START	n/a	n/a	n/a	-999	24	[-999, -999, -999]	n/a	FR1	2	R1146E
2893.759	7.202	2908729	PROB	7.202	n/a	n/a	-999	24	[2, 4, 9]	15	FR1	2	R1146E
2900.961	5.901	2915931	PROB	5.901	n/a	n/a	-999	24	[5, 9, 3]	17	FR1	2	R1146E
2906.862	7.818	2921832	PROB	7.818	n/a	n/a	-999	24	[3, 5, 7]	15	FR1	2	R1146E
2914.68	0.016	2929650	STOP	n/a	n/a	n/a	-999	24	[-999, -999, -999]	n/a	FR1	2	R1146E
2914.696	0.7	2929666	DISTRACT_END	n/a	n/a	n/a	-999	24	[0, 0, 0]	n/a	FR1	2	R1146E
2915.396	0.518	2930366	RETRIEVAL_ORIENT	n/a	n/a	n/a	-999	24	[0, 0, 0]	n/a	FR1	2	R1146E
2915.914	30.0	2930884	REC_START	n/a	n/a	n/a	-999	24	[0, 0, 0]	n/a	FR1	2	R1146E
2945.914	0.009	2960882	REC_WORD_VV	0.009	n/a	<>	-999	24	[0, 0, 0]	n/a	FR1	2	R1146E
2945.923	9.031	2960891	REC_END	n/a	n/a	n/a	-999	24	[0, 0, 0]	n/a	FR1	2	R1146E
2954.954	0.5	2969922	TRIAL	n/a	n/a	n/a	-999	25	[0, 0, 0]	n/a	FR1	2	R1146E
2955.454	10.428	2970422	COUNTDOWN_START	n/a	n/a	n/a	-999	25	[0, 0, 0]	n/a	FR1	2	R1146E
2965.882	0.007	2980849	COUNTDOWN_END	n/a	n/a	n/a	-999	25	[0, 0, 0]	n/a	FR1	2	R1146E
2965.889	1.616	2980856	ORIENT	n/a	n/a	n/a	-999	25	[0, 0, 0]	n/a	FR1	2	R1146E
2967.505	2.051	2982472	ORIENT_OFF	n/a	n/a	n/a	-999	25	[0, 0, 0]	n/a	FR1	2	R1146E
2969.556	1.618	2984523	WORD	n/a	wordpools/wordpool_EN.txt	CONE	1	25	[0, 0, 0]	n/a	FR1	2	R1146E
2971.174	0.95	2986141	WORD_OFF	n/a	n/a	CONE	1	25	[0, 0, 0]	n/a	FR1	2	R1146E
2972.124	1.616	2987091	WORD	n/a	wordpools/wordpool_EN.txt	BAT	2	25	[0, 0, 0]	n/a	FR1	2	R1146E
2973.74	0.966	2988707	WORD_OFF	n/a	n/a	BAT	2	25	[0, 0, 0]	n/a	FR1	2	R1146E
2974.706	1.618	2989673	WORD	n/a	wordpools/wordpool_EN.txt	KITE	3	25	[0, 0, 0]	n/a	FR1	2	R1146E
2976.324	0.834	2991291	WORD_OFF	n/a	n/a	KITE	3	25	[0, 0, 0]	n/a	FR1	2	R1146E
2977.158	1.616	2992125	WORD	n/a	wordpools/wordpool_EN.txt	PIG	4	25	[0, 0, 0]	n/a	FR1	2	R1146E
2978.774	0.9	2993741	WORD_OFF	n/a	n/a	PIG	4	25	[0, 0, 0]	n/a	FR1	2	R1146E
2979.674	1.601	2994641	WORD	n/a	wordpools/wordpool_EN.txt	BOOK	5	25	[0, 0, 0]	n/a	FR1	2	R1146E
2981.275	0.767	2996242	WORD_OFF	n/a	n/a	BOOK	5	25	[0, 0, 0]	n/a	FR1	2	R1146E
2982.042	1.616	2997009	WORD	n/a	wordpools/wordpool_EN.txt	SWORD	6	25	[0, 0, 0]	n/a	FR1	2	R1146E
2983.658	0.967	2998625	WORD_OFF	n/a	n/a	SWORD	6	25	[0, 0, 0]	n/a	FR1	2	R1146E
2984.625	1.618	2999592	WORD	n/a	wordpools/wordpool_EN.txt	VEST	7	25	[0, 0, 0]	n/a	FR1	2	R1146E
2986.243	0.967	3001210	WORD_OFF	n/a	n/a	VEST	7	25	[0, 0, 0]	n/a	FR1	2	R1146E
2987.21	1.616	3002177	WORD	n/a	wordpools/wordpool_EN.txt	CAPE	8	25	[0, 0, 0]	n/a	FR1	2	R1146E
2988.826	0.866	3003793	WORD_OFF	n/a	n/a	CAPE	8	25	[0, 0, 0]	n/a	FR1	2	R1146E
2989.692	1.602	3004659	WORD	n/a	wordpools/wordpool_EN.txt	SHELL	9	25	[0, 0, 0]	n/a	FR1	2	R1146E
2991.294	0.967	3006260	WORD_OFF	n/a	n/a	SHELL	9	25	[0, 0, 0]	n/a	FR1	2	R1146E
2992.261	1.617	3007227	WORD	n/a	wordpools/wordpool_EN.txt	ROOT	10	25	[0, 0, 0]	n/a	FR1	2	R1146E
2993.878	0.815	3008844	WORD_OFF	n/a	n/a	ROOT	10	25	[0, 0, 0]	n/a	FR1	2	R1146E
2994.693	1.602	3009659	WORD	n/a	wordpools/wordpool_EN.txt	BADGE	11	25	[0, 0, 0]	n/a	FR1	2	R1146E
2996.295	0.966	3011261	WORD_OFF	n/a	n/a	BADGE	11	25	[0, 0, 0]	n/a	FR1	2	R1146E
2997.261	1.617	3012227	WORD	n/a	wordpools/wordpool_EN.txt	WAVE	12	25	[0, 0, 0]	n/a	FR1	2	R1146E
2998.878	0.0	3013844	WORD_OFF	n/a	n/a	WAVE	12	25	[0, 0, 0]	n/a	FR1	2	R1146E
2998.878	0.001	3013844	DISTRACT_START	n/a	n/a	n/a	-999	25	[0, 0, 0]	n/a	FR1	2	R1146E
2998.879	0.016	3013845	START	n/a	n/a	n/a	-999	25	[-999, -999, -999]	n/a	FR1	2	R1146E
2998.895	8.018	3013861	PROB	8.018	n/a	n/a	-999	25	[5, 4, 3]	12	FR1	2	R1146E
3006.913	3.217	3021879	PROB	3.217	n/a	n/a	-999	25	[4, 5, 5]	14	FR1	2	R1146E
3010.13	9.022	3025096	PROB	9.022	n/a	n/a	-999	25	[4, 6, 2]	12	FR1	2	R1146E
3019.152	0.013	3034117	STOP	n/a	n/a	n/a	-999	25	[-999, -999, -999]	n/a	FR1	2	R1146E
3019.165	0.7	3034130	DISTRACT_END	n/a	n/a	n/a	-999	25	[0, 0, 0]	n/a	FR1	2	R1146E
3019.865	0.518	3034830	RETRIEVAL_ORIENT	n/a	n/a	n/a	-999	25	[0, 0, 0]	n/a	FR1	2	R1146E
3020.383	1.846	3035348	REC_START	n/a	n/a	n/a	-999	25	[0, 0, 0]	n/a	FR1	2	R1146E
3022.229	1.931	3037194	REC_WORD	1.931	n/a	PIG	-999	25	[0, 0, 0]	n/a	FR1	2	R1146E
3024.16	5.688	3039125	REC_WORD	5.688	n/a	CAPE	-999	25	[0, 0, 0]	n/a	FR1	2	R1146E
3029.848	20.544	3044813	REC_WORD	20.544	n/a	ROOT	-999	25	[0, 0, 0]	n/a	FR1	2	R1146E
3050.392	0.0	3065356	REC_END	n/a	n/a	n/a	-999	25	[0, 0, 0]	n/a	FR1	2	R1146E
