onset	duration	sample	trial_type	response_time	stim_file	item_name	serialpos	list	test	answer	experiment	session	subject
0.0	21.103	1162817	SESS_START	n/a	n/a	n/a	-999	-999	[0, 0, 0]	n/a	FR1	0	R1083J
21.103	10.428	1183920	COUNTDOWN_START	n/a	n/a	n/a	-999	-999	[0, 0, 0]	n/a	FR1	0	R1083J
31.531	3.925	1194348	COUNTDOWN_END	n/a	n/a	n/a	-999	-999	[0, 0, 0]	n/a	FR1	0	R1083J
35.456	2.583	1198273	PRACTICE_WORD	n/a	n/a	WATCH	1	-1	[0, 0, 0]	n/a	FR1	0	R1083J
38.039	2.584	1200856	PRACTICE_WORD	n/a	n/a	FLOOD	2	-1	[0, 0, 0]	n/a	FR1	0	R1083J
40.623	2.45	1203440	PRACTICE_WORD	n/a	n/a	RING	3	-1	[0, 0, 0]	n/a	FR1	0	R1083J
43.073	2.484	1205890	PRACTICE_WORD	n/a	n/a	WAGON	4	-1	[0, 0, 0]	n/a	FR1	0	R1083J
45.557	2.416	1208374	PRACTICE_WORD	n/a	n/a	TONGUE	5	-1	[0, 0, 0]	n/a	FR1	0	R1083J
47.973	2.601	1210790	PRACTICE_WORD	n/a	n/a	IRON	6	-1	[0, 0, 0]	n/a	FR1	0	R1083J
50.574	2.601	1213392	PRACTICE_WORD	n/a	n/a	BEAM	7	-1	[0, 0, 0]	n/a	FR1	0	R1083J
53.175	2.467	1215993	PRACTICE_WORD	n/a	n/a	CHEST	8	-1	[0, 0, 0]	n/a	FR1	0	R1083J
55.642	2.6	1218460	PRACTICE_WORD	n/a	n/a	ATTIC	9	-1	[0, 0, 0]	n/a	FR1	0	R1083J
58.242	2.384	1221060	PRACTICE_WORD	n/a	n/a	COTTON	10	-1	[0, 0, 0]	n/a	FR1	0	R1083J
60.626	2.55	1223444	PRACTICE_WORD	n/a	n/a	CAMEL	11	-1	[0, 0, 0]	n/a	FR1	0	R1083J
63.176	1.617	1225994	PRACTICE_WORD	n/a	n/a	RHINO	12	-1	[0, 0, 0]	n/a	FR1	0	R1083J
64.793	0.0	1227611	PRACTICE_DISTRACT_START	n/a	n/a	n/a	-999	-1	[0, 0, 0]	n/a	FR1	0	R1083J
64.793	0.016	1227611	START	n/a	n/a	n/a	-999	-1	[-999, -999, -999]	n/a	FR1	0	R1083J
64.809	19.185	1227627	PROB	19.185	n/a	n/a	-999	-1	[6, 2, 6]	14	FR1	0	R1083J
83.994	4.643	1246812	PROB	4.643	n/a	n/a	-999	-1	[1, 9, 1]	11	FR1	0	R1083J
88.637	0.009	1251455	STOP	n/a	n/a	n/a	-999	-1	[-999, -999, -999]	n/a	FR1	0	R1083J
88.646	0.619	1251464	PRACTICE_DISTRACT_END	n/a	n/a	n/a	-999	-1	[0, 0, 0]	n/a	FR1	0	R1083J
89.265	30.514	1252083	PRACTICE_REC_START	n/a	n/a	n/a	-999	-1	[0, 0, 0]	n/a	FR1	0	R1083J
119.779	15.338	1282597	PRACTICE_REC_END	n/a	n/a	n/a	-999	-1	[0, 0, 0]	n/a	FR1	0	R1083J
135.117	0.001	1297935	COUNTDOWN_START	n/a	n/a	n/a	-999	1	[0, 0, 0]	n/a	FR1	0	R1083J
135.118	10.427	1297936	TRIAL	n/a	n/a	n/a	-999	1	[0, 0, 0]	n/a	FR1	0	R1083J
145.545	0.008	1308363	COUNTDOWN_END	n/a	n/a	n/a	-999	1	[0, 0, 0]	n/a	FR1	0	R1083J
145.553	2.383	1308371	ORIENT	n/a	n/a	n/a	-999	1	[0, 0, 0]	n/a	FR1	0	R1083J
147.936	2.467	1310754	WORD	n/a	wordpools/wordpool_EN.txt	PEARL	1	1	[0, 0, 0]	n/a	FR1	0	R1083J
150.403	2.5	1313221	WORD	n/a	wordpools/wordpool_EN.txt	CAR	2	1	[0, 0, 0]	n/a	FR1	0	R1083J
152.903	2.568	1315721	WORD	n/a	wordpools/wordpool_EN.txt	HORSE	3	1	[0, 0, 0]	n/a	FR1	0	R1083J
155.471	2.616	1318289	WORD	n/a	wordpools/wordpool_EN.txt	PEA	4	1	[0, 0, 0]	n/a	FR1	0	R1083J
158.087	2.401	1320905	WORD	n/a	wordpools/wordpool_EN.txt	BEAR	5	1	[0, 0, 0]	n/a	FR1	0	R1083J
160.488	2.383	1323306	WORD	n/a	wordpools/wordpool_EN.txt	SHIP	6	1	[0, 0, 0]	n/a	FR1	0	R1083J
162.871	2.518	1325689	WORD	n/a	wordpools/wordpool_EN.txt	ROCK	7	1	[0, 0, 0]	n/a	FR1	0	R1083J
165.389	2.533	1328207	WORD	n/a	wordpools/wordpool_EN.txt	SMOKE	8	1	[0, 0, 0]	n/a	FR1	0	R1083J
167.922	2.517	1330740	WORD	n/a	wordpools/wordpool_EN.txt	NEST	9	1	[0, 0, 0]	n/a	FR1	0	R1083J
170.439	2.45	1333257	WORD	n/a	wordpools/wordpool_EN.txt	MOON	10	1	[0, 0, 0]	n/a	FR1	0	R1083J
172.889	2.401	1335707	WORD	n/a	wordpools/wordpool_EN.txt	STAR	11	1	[0, 0, 0]	n/a	FR1	0	R1083J
175.29	1.616	1338108	WORD	n/a	wordpools/wordpool_EN.txt	TOOTH	12	1	[0, 0, 0]	n/a	FR1	0	R1083J
176.906	0.001	1339724	DISTRACT_START	n/a	n/a	n/a	-999	1	[0, 0, 0]	n/a	FR1	0	R1083J
176.907	0.016	1339725	START	n/a	n/a	n/a	-999	1	[-999, -999, -999]	n/a	FR1	0	R1083J
176.923	6.183	1339741	PROB	6.183	n/a	n/a	-999	1	[5, 8, 3]	16	FR1	0	R1083J
183.106	3.685	1345924	PROB	3.685	n/a	n/a	-999	1	[5, 7, 1]	13	FR1	0	R1083J
186.791	2.917	1349609	PROB	2.917	n/a	n/a	-999	1	[1, 6, 9]	16	FR1	0	R1083J
189.708	2.867	1352526	PROB	2.867	n/a	n/a	-999	1	[7, 7, 8]	22	FR1	0	R1083J
192.575	2.917	1355393	PROB	2.917	n/a	n/a	-999	1	[7, 1, 3]	11	FR1	0	R1083J
195.492	2.091	1358310	PROB	2.091	n/a	n/a	-999	1	[5, 5, 8]	18	FR1	0	R1083J
197.583	0.01	1360401	STOP	n/a	n/a	n/a	-999	1	[-999, -999, -999]	n/a	FR1	0	R1083J
197.593	1.172	1360411	DISTRACT_END	n/a	n/a	n/a	-999	1	[0, 0, 0]	n/a	FR1	0	R1083J
198.765	2.154	1361583	REC_START	n/a	n/a	n/a	-999	1	[0, 0, 0]	n/a	FR1	0	R1083J
200.919	1.314	1363737	REC_WORD_VV	1.314	n/a	<>	-999	1	[0, 0, 0]	n/a	FR1	0	R1083J
202.233	3.317	1365051	REC_WORD	3.317	n/a	ROCK	-999	1	[0, 0, 0]	n/a	FR1	0	R1083J
205.55	2.192	1368368	REC_WORD	2.192	n/a	CLEAN	-999	1	[0, 0, 0]	n/a	FR1	0	R1083J
207.742	1.231	1370560	REC_WORD	1.231	n/a	RIDE	-999	1	[0, 0, 0]	n/a	FR1	0	R1083J
208.973	1.592	1371791	REC_WORD	1.592	n/a	CAR	-999	1	[0, 0, 0]	n/a	FR1	0	R1083J
210.565	1.784	1373383	REC_WORD	1.784	n/a	PEARL	-999	1	[0, 0, 0]	n/a	FR1	0	R1083J
212.349	4.588	1375167	REC_WORD	4.588	n/a	TEETH	-999	1	[0, 0, 0]	n/a	FR1	0	R1083J
216.937	1.0	1379755	REC_WORD_VV	1.0	n/a	<>	-999	1	[0, 0, 0]	n/a	FR1	0	R1083J
217.937	1.202	1380755	REC_WORD_VV	1.202	n/a	<>	-999	1	[0, 0, 0]	n/a	FR1	0	R1083J
219.139	9.631	1381957	REC_WORD	9.631	n/a	SNAKE	-999	1	[0, 0, 0]	n/a	FR1	0	R1083J
228.77	2.943	1391588	REC_END	n/a	n/a	n/a	-999	1	[0, 0, 0]	n/a	FR1	0	R1083J
231.713	0.001	1394531	COUNTDOWN_START	n/a	n/a	n/a	-999	2	[0, 0, 0]	n/a	FR1	0	R1083J
231.714	10.427	1394532	TRIAL	n/a	n/a	n/a	-999	2	[0, 0, 0]	n/a	FR1	0	R1083J
242.141	0.006	1404959	COUNTDOWN_END	n/a	n/a	n/a	-999	2	[0, 0, 0]	n/a	FR1	0	R1083J
242.147	2.485	1404965	ORIENT	n/a	n/a	n/a	-999	2	[0, 0, 0]	n/a	FR1	0	R1083J
244.632	2.55	1407450	WORD	n/a	wordpools/wordpool_EN.txt	SIGN	1	2	[0, 0, 0]	n/a	FR1	0	R1083J
247.182	2.567	1410000	WORD	n/a	wordpools/wordpool_EN.txt	DOG	2	2	[0, 0, 0]	n/a	FR1	0	R1083J
249.749	2.416	1412567	WORD	n/a	wordpools/wordpool_EN.txt	WEED	3	2	[0, 0, 0]	n/a	FR1	0	R1083J
252.165	2.501	1414983	WORD	n/a	wordpools/wordpool_EN.txt	CHIN	4	2	[0, 0, 0]	n/a	FR1	0	R1083J
254.666	2.433	1417484	WORD	n/a	wordpools/wordpool_EN.txt	VAN	5	2	[0, 0, 0]	n/a	FR1	0	R1083J
257.099	2.601	1419917	WORD	n/a	wordpools/wordpool_EN.txt	PET	6	2	[0, 0, 0]	n/a	FR1	0	R1083J
259.7	2.416	1422518	WORD	n/a	wordpools/wordpool_EN.txt	BATH	7	2	[0, 0, 0]	n/a	FR1	0	R1083J
262.116	2.535	1424935	WORD	n/a	wordpools/wordpool_EN.txt	SMILE	8	2	[0, 0, 0]	n/a	FR1	0	R1083J
264.651	2.416	1427470	WORD	n/a	wordpools/wordpool_EN.txt	CONE	9	2	[0, 0, 0]	n/a	FR1	0	R1083J
267.067	2.534	1429886	WORD	n/a	wordpools/wordpool_EN.txt	CHALK	10	2	[0, 0, 0]	n/a	FR1	0	R1083J
269.601	2.45	1432420	WORD	n/a	wordpools/wordpool_EN.txt	FLEA	11	2	[0, 0, 0]	n/a	FR1	0	R1083J
272.051	1.618	1434870	WORD	n/a	wordpools/wordpool_EN.txt	EAR	12	2	[0, 0, 0]	n/a	FR1	0	R1083J
273.669	0.0	1436488	DISTRACT_START	n/a	n/a	n/a	-999	2	[0, 0, 0]	n/a	FR1	0	R1083J
273.669	0.016	1436488	START	n/a	n/a	n/a	-999	2	[-999, -999, -999]	n/a	FR1	0	R1083J
273.685	4.618	1436504	PROB	4.618	n/a	n/a	-999	2	[9, 7, 4]	20	FR1	0	R1083J
278.303	3.066	1441122	PROB	3.066	n/a	n/a	-999	2	[6, 8, 7]	21	FR1	0	R1083J
281.369	2.067	1444188	PROB	2.067	n/a	n/a	-999	2	[1, 8, 3]	12	FR1	0	R1083J
283.436	3.151	1446255	PROB	3.151	n/a	n/a	-999	2	[6, 9, 7]	22	FR1	0	R1083J
286.587	2.084	1449406	PROB	2.084	n/a	n/a	-999	2	[5, 7, 3]	15	FR1	0	R1083J
288.671	1.616	1451490	PROB	1.616	n/a	n/a	-999	2	[1, 1, 1]	3	FR1	0	R1083J
290.287	2.616	1453106	PROB	2.616	n/a	n/a	-999	2	[2, 9, 1]	12	FR1	0	R1083J
292.903	2.532	1455722	PROB	2.532	n/a	n/a	-999	2	[5, 3, 9]	17	FR1	0	R1083J
295.435	0.02	1458254	STOP	n/a	n/a	n/a	-999	2	[-999, -999, -999]	n/a	FR1	0	R1083J
295.455	1.067	1458274	DISTRACT_END	n/a	n/a	n/a	-999	2	[0, 0, 0]	n/a	FR1	0	R1083J
296.522	1.486	1459341	REC_START	n/a	n/a	n/a	-999	2	[0, 0, 0]	n/a	FR1	0	R1083J
298.008	1.443	1460827	REC_WORD_VV	1.443	n/a	<>	-999	2	[0, 0, 0]	n/a	FR1	0	R1083J
299.451	1.04	1462270	REC_WORD	1.04	n/a	DOG	-999	2	[0, 0, 0]	n/a	FR1	0	R1083J
300.491	1.713	1463310	REC_WORD	1.713	n/a	FLEA	-999	2	[0, 0, 0]	n/a	FR1	0	R1083J
302.204	1.828	1465023	REC_WORD	1.828	n/a	EAR	-999	2	[0, 0, 0]	n/a	FR1	0	R1083J
304.032	2.579	1466851	REC_WORD	2.579	n/a	CHIN	-999	2	[0, 0, 0]	n/a	FR1	0	R1083J
306.611	4.033	1469430	REC_WORD	4.033	n/a	WEED	-999	2	[0, 0, 0]	n/a	FR1	0	R1083J
310.644	3.629	1473463	REC_WORD	3.629	n/a	LIFT	-999	2	[0, 0, 0]	n/a	FR1	0	R1083J
314.273	3.953	1477092	REC_WORD	3.953	n/a	SNAKE	-999	2	[0, 0, 0]	n/a	FR1	0	R1083J
318.226	8.306	1481045	REC_WORD_VV	8.306	n/a	<>	-999	2	[0, 0, 0]	n/a	FR1	0	R1083J
326.532	3.143	1489351	REC_END	n/a	n/a	n/a	-999	2	[0, 0, 0]	n/a	FR1	0	R1083J
329.675	0.0	1492494	TRIAL	n/a	n/a	n/a	-999	3	[0, 0, 0]	n/a	FR1	0	R1083J
329.675	10.428	1492494	COUNTDOWN_START	n/a	n/a	n/a	-999	3	[0, 0, 0]	n/a	FR1	0	R1083J
340.103	0.006	1502922	COUNTDOWN_END	n/a	n/a	n/a	-999	3	[0, 0, 0]	n/a	FR1	0	R1083J
340.109	2.468	1502928	ORIENT	n/a	n/a	n/a	-999	3	[0, 0, 0]	n/a	FR1	0	R1083J
342.577	2.566	1505396	WORD	n/a	wordpools/wordpool_EN.txt	JEEP	1	3	[0, 0, 0]	n/a	FR1	0	R1083J
345.143	2.385	1507962	WORD	n/a	wordpools/wordpool_EN.txt	DITCH	2	3	[0, 0, 0]	n/a	FR1	0	R1083J
347.528	2.532	1510347	WORD	n/a	wordpools/wordpool_EN.txt	JAIL	3	3	[0, 0, 0]	n/a	FR1	0	R1083J
350.06	2.535	1512879	WORD	n/a	wordpools/wordpool_EN.txt	NAIL	4	3	[0, 0, 0]	n/a	FR1	0	R1083J
352.595	2.482	1515414	WORD	n/a	wordpools/wordpool_EN.txt	LOCK	5	3	[0, 0, 0]	n/a	FR1	0	R1083J
355.077	2.452	1517896	WORD	n/a	wordpools/wordpool_EN.txt	PHONE	6	3	[0, 0, 0]	n/a	FR1	0	R1083J
357.529	2.482	1520348	WORD	n/a	wordpools/wordpool_EN.txt	HOOF	7	3	[0, 0, 0]	n/a	FR1	0	R1083J
360.011	2.568	1522830	WORD	n/a	wordpools/wordpool_EN.txt	WING	8	3	[0, 0, 0]	n/a	FR1	0	R1083J
362.579	2.483	1525398	WORD	n/a	wordpools/wordpool_EN.txt	CAGE	9	3	[0, 0, 0]	n/a	FR1	0	R1083J
365.062	2.568	1527881	WORD	n/a	wordpools/wordpool_EN.txt	FLAME	10	3	[0, 0, 0]	n/a	FR1	0	R1083J
367.63	2.6	1530449	WORD	n/a	wordpools/wordpool_EN.txt	PIN	11	3	[0, 0, 0]	n/a	FR1	0	R1083J
370.23	1.616	1533049	WORD	n/a	wordpools/wordpool_EN.txt	HORN	12	3	[0, 0, 0]	n/a	FR1	0	R1083J
371.846	0.001	1534665	DISTRACT_START	n/a	n/a	n/a	-999	3	[0, 0, 0]	n/a	FR1	0	R1083J
371.847	0.016	1534666	START	n/a	n/a	n/a	-999	3	[-999, -999, -999]	n/a	FR1	0	R1083J
371.863	3.784	1534682	PROB	3.784	n/a	n/a	-999	3	[5, 5, 4]	14	FR1	0	R1083J
375.647	2.317	1538466	PROB	2.317	n/a	n/a	-999	3	[5, 3, 5]	13	FR1	0	R1083J
377.964	2.701	1540783	PROB	2.701	n/a	n/a	-999	3	[6, 5, 7]	18	FR1	0	R1083J
380.665	2.382	1543484	PROB	2.382	n/a	n/a	-999	3	[9, 3, 1]	13	FR1	0	R1083J
383.047	3.419	1545866	PROB	3.419	n/a	n/a	-999	3	[8, 8, 9]	25	FR1	0	R1083J
386.466	2.599	1549285	PROB	2.599	n/a	n/a	-999	3	[6, 6, 4]	16	FR1	0	R1083J
389.065	2.948	1551884	PROB	2.948	n/a	n/a	-999	3	[7, 2, 4]	13	FR1	0	R1083J
392.013	0.019	1554832	STOP	n/a	n/a	n/a	-999	3	[-999, -999, -999]	n/a	FR1	0	R1083J
392.032	1.218	1554851	DISTRACT_END	n/a	n/a	n/a	-999	3	[0, 0, 0]	n/a	FR1	0	R1083J
393.25	1.401	1556069	REC_START	n/a	n/a	n/a	-999	3	[0, 0, 0]	n/a	FR1	0	R1083J
394.651	1.532	1557470	REC_WORD	1.532	n/a	JEEP	-999	3	[0, 0, 0]	n/a	FR1	0	R1083J
396.183	1.638	1559002	REC_WORD	1.638	n/a	DITCH	-999	3	[0, 0, 0]	n/a	FR1	0	R1083J
397.821	2.041	1560640	REC_WORD	2.041	n/a	RIDE	-999	3	[0, 0, 0]	n/a	FR1	0	R1083J
399.862	3.803	1562681	REC_WORD	3.803	n/a	PHONE	-999	3	[0, 0, 0]	n/a	FR1	0	R1083J
403.665	4.359	1566484	REC_WORD	4.359	n/a	DIRT	-999	3	[0, 0, 0]	n/a	FR1	0	R1083J
408.024	3.967	1570843	REC_WORD_VV	3.967	n/a	<>	-999	3	[0, 0, 0]	n/a	FR1	0	R1083J
411.991	1.0	1574810	REC_WORD_VV	1.0	n/a	<>	-999	3	[0, 0, 0]	n/a	FR1	0	R1083J
412.991	2.928	1575810	REC_WORD_VV	2.928	n/a	<>	-999	3	[0, 0, 0]	n/a	FR1	0	R1083J
415.919	3.799	1578738	REC_WORD_VV	3.799	n/a	<>	-999	3	[0, 0, 0]	n/a	FR1	0	R1083J
419.718	0.871	1582537	REC_WORD	0.871	n/a	JEEP	-999	3	[0, 0, 0]	n/a	FR1	0	R1083J
420.589	2.066	1583408	REC_WORD	2.066	n/a	DITCH	-999	3	[0, 0, 0]	n/a	FR1	0	R1083J
422.655	0.606	1585474	REC_WORD	0.606	n/a	DRIVE	-999	3	[0, 0, 0]	n/a	FR1	0	R1083J
423.261	2.059	1586080	REC_END	n/a	n/a	n/a	-999	3	[0, 0, 0]	n/a	FR1	0	R1083J
425.32	0.001	1588139	COUNTDOWN_START	n/a	n/a	n/a	-999	4	[0, 0, 0]	n/a	FR1	0	R1083J
425.321	10.427	1588140	TRIAL	n/a	n/a	n/a	-999	4	[0, 0, 0]	n/a	FR1	0	R1083J
435.748	0.007	1598567	COUNTDOWN_END	n/a	n/a	n/a	-999	4	[0, 0, 0]	n/a	FR1	0	R1083J
435.755	2.534	1598574	ORIENT	n/a	n/a	n/a	-999	4	[0, 0, 0]	n/a	FR1	0	R1083J
438.289	2.466	1601108	WORD	n/a	wordpools/wordpool_EN.txt	LIP	1	4	[0, 0, 0]	n/a	FR1	0	R1083J
440.755	2.434	1603574	WORD	n/a	wordpools/wordpool_EN.txt	TRASH	2	4	[0, 0, 0]	n/a	FR1	0	R1083J
443.189	2.384	1606008	WORD	n/a	wordpools/wordpool_EN.txt	BOWL	3	4	[0, 0, 0]	n/a	FR1	0	R1083J
445.573	2.617	1608392	WORD	n/a	wordpools/wordpool_EN.txt	BEAN	4	4	[0, 0, 0]	n/a	FR1	0	R1083J
448.19	2.55	1611009	WORD	n/a	wordpools/wordpool_EN.txt	STEAK	5	4	[0, 0, 0]	n/a	FR1	0	R1083J
450.74	2.383	1613559	WORD	n/a	wordpools/wordpool_EN.txt	SPOON	6	4	[0, 0, 0]	n/a	FR1	0	R1083J
453.123	2.434	1615942	WORD	n/a	wordpools/wordpool_EN.txt	FACE	7	4	[0, 0, 0]	n/a	FR1	0	R1083J
455.557	2.567	1618376	WORD	n/a	wordpools/wordpool_EN.txt	EEL	8	4	[0, 0, 0]	n/a	FR1	0	R1083J
458.124	2.484	1620943	WORD	n/a	wordpools/wordpool_EN.txt	SHIELD	9	4	[0, 0, 0]	n/a	FR1	0	R1083J
460.608	2.466	1623427	WORD	n/a	wordpools/wordpool_EN.txt	SEAL	10	4	[0, 0, 0]	n/a	FR1	0	R1083J
463.074	2.418	1625893	WORD	n/a	wordpools/wordpool_EN.txt	SOUP	11	4	[0, 0, 0]	n/a	FR1	0	R1083J
465.492	1.616	1628311	WORD	n/a	wordpools/wordpool_EN.txt	PURSE	12	4	[0, 0, 0]	n/a	FR1	0	R1083J
467.108	0.001	1629927	DISTRACT_START	n/a	n/a	n/a	-999	4	[0, 0, 0]	n/a	FR1	0	R1083J
467.109	0.016	1629928	START	n/a	n/a	n/a	-999	4	[-999, -999, -999]	n/a	FR1	0	R1083J
467.125	4.651	1629944	PROB	4.651	n/a	n/a	-999	4	[9, 4, 3]	16	FR1	0	R1083J
471.776	2.634	1634595	PROB	2.634	n/a	n/a	-999	4	[6, 8, 1]	15	FR1	0	R1083J
474.41	3.167	1637230	PROB	3.167	n/a	n/a	-999	4	[9, 3, 8]	19	FR1	0	R1083J
477.577	3.1	1640397	PROB	3.1	n/a	n/a	-999	4	[8, 6, 1]	15	FR1	0	R1083J
480.677	2.416	1643497	PROB	2.416	n/a	n/a	-999	4	[5, 3, 1]	9	FR1	0	R1083J
483.093	2.734	1645913	PROB	2.734	n/a	n/a	-999	4	[3, 6, 9]	18	FR1	0	R1083J
485.827	2.551	1648647	PROB	2.551	n/a	n/a	-999	4	[2, 5, 6]	13	FR1	0	R1083J
488.378	0.017	1651198	STOP	n/a	n/a	n/a	-999	4	[-999, -999, -999]	n/a	FR1	0	R1083J
488.395	1.117	1651215	DISTRACT_END	n/a	n/a	n/a	-999	4	[0, 0, 0]	n/a	FR1	0	R1083J
489.512	2.441	1652332	REC_START	n/a	n/a	n/a	-999	4	[0, 0, 0]	n/a	FR1	0	R1083J
491.953	1.608	1654773	REC_WORD	1.608	n/a	SEAL	-999	4	[0, 0, 0]	n/a	FR1	0	R1083J
493.561	1.0	1656381	REC_WORD	1.0	n/a	SOUP	-999	4	[0, 0, 0]	n/a	FR1	0	R1083J
494.561	3.497	1657381	REC_WORD_VV	3.497	n/a	<>	-999	4	[0, 0, 0]	n/a	FR1	0	R1083J
498.058	10.256	1660878	REC_WORD	10.256	n/a	LOCK	-999	4	[0, 0, 0]	n/a	FR1	0	R1083J
508.314	4.565	1671134	REC_WORD	4.565	n/a	PEEL	-999	4	[0, 0, 0]	n/a	FR1	0	R1083J
512.879	1.278	1675699	REC_WORD	1.278	n/a	MEAL	-999	4	[0, 0, 0]	n/a	FR1	0	R1083J
514.157	0.698	1676977	REC_WORD_VV	0.698	n/a	<>	-999	4	[0, 0, 0]	n/a	FR1	0	R1083J
514.855	4.667	1677675	REC_WORD	4.667	n/a	CONE	-999	4	[0, 0, 0]	n/a	FR1	0	R1083J
519.522	2.609	1682342	REC_END	n/a	n/a	n/a	-999	4	[0, 0, 0]	n/a	FR1	0	R1083J
522.131	0.0	1684951	TRIAL	n/a	n/a	n/a	-999	5	[0, 0, 0]	n/a	FR1	0	R1083J
522.131	10.428	1684951	COUNTDOWN_START	n/a	n/a	n/a	-999	5	[0, 0, 0]	n/a	FR1	0	R1083J
532.559	0.008	1695379	COUNTDOWN_END	n/a	n/a	n/a	-999	5	[0, 0, 0]	n/a	FR1	0	R1083J
532.567	2.617	1695387	ORIENT	n/a	n/a	n/a	-999	5	[0, 0, 0]	n/a	FR1	0	R1083J
535.184	2.55	1698004	WORD	n/a	wordpools/wordpool_EN.txt	HAND	1	5	[0, 0, 0]	n/a	FR1	0	R1083J
537.734	2.6	1700554	WORD	n/a	wordpools/wordpool_EN.txt	BEE	2	5	[0, 0, 0]	n/a	FR1	0	R1083J
540.334	2.5	1703154	WORD	n/a	wordpools/wordpool_EN.txt	DOOR	3	5	[0, 0, 0]	n/a	FR1	0	R1083J
542.834	2.484	1705654	WORD	n/a	wordpools/wordpool_EN.txt	FLUTE	4	5	[0, 0, 0]	n/a	FR1	0	R1083J
545.318	2.566	1708138	WORD	n/a	wordpools/wordpool_EN.txt	BRANCH	5	5	[0, 0, 0]	n/a	FR1	0	R1083J
547.884	2.385	1710704	WORD	n/a	wordpools/wordpool_EN.txt	TREE	6	5	[0, 0, 0]	n/a	FR1	0	R1083J
550.269	2.616	1713089	WORD	n/a	wordpools/wordpool_EN.txt	MOLE	7	5	[0, 0, 0]	n/a	FR1	0	R1083J
552.885	2.418	1715705	WORD	n/a	wordpools/wordpool_EN.txt	CANE	8	5	[0, 0, 0]	n/a	FR1	0	R1083J
555.303	2.566	1718123	WORD	n/a	wordpools/wordpool_EN.txt	DOLL	9	5	[0, 0, 0]	n/a	FR1	0	R1083J
557.869	2.451	1720689	WORD	n/a	wordpools/wordpool_EN.txt	HOLE	10	5	[0, 0, 0]	n/a	FR1	0	R1083J
560.32	2.482	1723140	WORD	n/a	wordpools/wordpool_EN.txt	WEB	11	5	[0, 0, 0]	n/a	FR1	0	R1083J
562.802	1.602	1725622	WORD	n/a	wordpools/wordpool_EN.txt	SNAKE	12	5	[0, 0, 0]	n/a	FR1	0	R1083J
564.404	0.001	1727224	DISTRACT_START	n/a	n/a	n/a	-999	5	[0, 0, 0]	n/a	FR1	0	R1083J
564.405	0.016	1727225	START	n/a	n/a	n/a	-999	5	[-999, -999, -999]	n/a	FR1	0	R1083J
564.421	3.017	1727241	PROB	3.017	n/a	n/a	-999	5	[3, 5, 4]	12	FR1	0	R1083J
567.438	2.95	1730258	PROB	2.95	n/a	n/a	-999	5	[3, 4, 3]	10	FR1	0	R1083J
570.388	2.217	1733208	PROB	2.217	n/a	n/a	-999	5	[8, 6, 8]	22	FR1	0	R1083J
572.605	2.266	1735425	PROB	2.266	n/a	n/a	-999	5	[3, 5, 5]	13	FR1	0	R1083J
574.871	2.418	1737691	PROB	2.418	n/a	n/a	-999	5	[1, 6, 8]	15	FR1	0	R1083J
577.289	3.0	1740109	PROB	3.0	n/a	n/a	-999	5	[5, 9, 1]	15	FR1	0	R1083J
580.289	2.35	1743109	PROB	2.35	n/a	n/a	-999	5	[2, 2, 3]	7	FR1	0	R1083J
582.639	3.774	1745459	PROB	3.774	n/a	n/a	-999	5	[7, 4, 5]	16	FR1	0	R1083J
586.413	0.01	1749233	STOP	n/a	n/a	n/a	-999	5	[-999, -999, -999]	n/a	FR1	0	R1083J
586.423	1.035	1749243	DISTRACT_END	n/a	n/a	n/a	-999	5	[0, 0, 0]	n/a	FR1	0	R1083J
587.458	1.524	1750278	REC_START	n/a	n/a	n/a	-999	5	[0, 0, 0]	n/a	FR1	0	R1083J
588.982	2.906	1751802	REC_WORD_VV	2.906	n/a	<>	-999	5	[0, 0, 0]	n/a	FR1	0	R1083J
591.888	3.391	1754708	REC_WORD	3.391	n/a	EEL	-999	5	[0, 0, 0]	n/a	FR1	0	R1083J
595.279	4.589	1758099	REC_WORD	4.589	n/a	SEAL	-999	5	[0, 0, 0]	n/a	FR1	0	R1083J
599.868	4.669	1762688	REC_WORD	4.669	n/a	FORK	-999	5	[0, 0, 0]	n/a	FR1	0	R1083J
604.537	6.015	1767357	REC_WORD	6.015	n/a	SPOON	-999	5	[0, 0, 0]	n/a	FR1	0	R1083J
610.552	2.673	1773372	REC_WORD	2.673	n/a	CAMP	-999	5	[0, 0, 0]	n/a	FR1	0	R1083J
613.225	2.02	1776045	REC_WORD_VV	2.02	n/a	<>	-999	5	[0, 0, 0]	n/a	FR1	0	R1083J
615.245	2.108	1778065	REC_WORD_VV	2.108	n/a	<>	-999	5	[0, 0, 0]	n/a	FR1	0	R1083J
617.353	0.114	1780173	REC_WORD_VV	0.114	n/a	<>	-999	5	[0, 0, 0]	n/a	FR1	0	R1083J
617.467	2.359	1780287	REC_END	n/a	n/a	n/a	-999	5	[0, 0, 0]	n/a	FR1	0	R1083J
619.826	0.0	1782646	TRIAL	n/a	n/a	n/a	-999	6	[0, 0, 0]	n/a	FR1	0	R1083J
619.826	10.428	1782646	COUNTDOWN_START	n/a	n/a	n/a	-999	6	[0, 0, 0]	n/a	FR1	0	R1083J
630.254	0.008	1793074	COUNTDOWN_END	n/a	n/a	n/a	-999	6	[0, 0, 0]	n/a	FR1	0	R1083J
630.262	2.434	1793082	ORIENT	n/a	n/a	n/a	-999	6	[0, 0, 0]	n/a	FR1	0	R1083J
632.696	2.5	1795516	WORD	n/a	wordpools/wordpool_EN.txt	STAIR	1	6	[0, 0, 0]	n/a	FR1	0	R1083J
635.196	2.417	1798016	WORD	n/a	wordpools/wordpool_EN.txt	NET	2	6	[0, 0, 0]	n/a	FR1	0	R1083J
637.613	2.499	1800433	WORD	n/a	wordpools/wordpool_EN.txt	BALL	3	6	[0, 0, 0]	n/a	FR1	0	R1083J
640.112	2.485	1802932	WORD	n/a	wordpools/wordpool_EN.txt	SHEET	4	6	[0, 0, 0]	n/a	FR1	0	R1083J
642.597	2.516	1805417	WORD	n/a	wordpools/wordpool_EN.txt	SCHOOL	5	6	[0, 0, 0]	n/a	FR1	0	R1083J
645.113	2.401	1807933	WORD	n/a	wordpools/wordpool_EN.txt	MAP	6	6	[0, 0, 0]	n/a	FR1	0	R1083J
647.514	2.566	1810334	WORD	n/a	wordpools/wordpool_EN.txt	WAND	7	6	[0, 0, 0]	n/a	FR1	0	R1083J
650.08	2.401	1812900	WORD	n/a	wordpools/wordpool_EN.txt	BOARD	8	6	[0, 0, 0]	n/a	FR1	0	R1083J
652.481	2.533	1815301	WORD	n/a	wordpools/wordpool_EN.txt	BOOK	9	6	[0, 0, 0]	n/a	FR1	0	R1083J
655.014	2.518	1817834	WORD	n/a	wordpools/wordpool_EN.txt	TRAIN	10	6	[0, 0, 0]	n/a	FR1	0	R1083J
657.532	2.449	1820352	WORD	n/a	wordpools/wordpool_EN.txt	DUCK	11	6	[0, 0, 0]	n/a	FR1	0	R1083J
659.981	1.601	1822801	WORD	n/a	wordpools/wordpool_EN.txt	JUDGE	12	6	[0, 0, 0]	n/a	FR1	0	R1083J
661.582	0.001	1824402	DISTRACT_START	n/a	n/a	n/a	-999	6	[0, 0, 0]	n/a	FR1	0	R1083J
661.583	0.016	1824403	START	n/a	n/a	n/a	-999	6	[-999, -999, -999]	n/a	FR1	0	R1083J
661.599	6.233	1824419	PROB	6.233	n/a	n/a	-999	6	[3, 3, 5]	11	FR1	0	R1083J
667.832	2.134	1830652	PROB	2.134	n/a	n/a	-999	6	[7, 1, 8]	16	FR1	0	R1083J
669.966	3.067	1832786	PROB	3.067	n/a	n/a	-999	6	[9, 3, 7]	19	FR1	0	R1083J
673.033	2.618	1835853	PROB	2.618	n/a	n/a	-999	6	[8, 4, 8]	20	FR1	0	R1083J
675.651	4.266	1838471	PROB	4.266	n/a	n/a	-999	6	[4, 8, 9]	11	FR1	0	R1083J
679.917	3.13	1842737	PROB	3.13	n/a	n/a	-999	6	[2, 1, 5]	8	FR1	0	R1083J
683.047	0.003	1845867	STOP	n/a	n/a	n/a	-999	6	[-999, -999, -999]	n/a	FR1	0	R1083J
683.05	1.169	1845870	DISTRACT_END	n/a	n/a	n/a	-999	6	[0, 0, 0]	n/a	FR1	0	R1083J
684.219	1.622	1847039	REC_START	n/a	n/a	n/a	-999	6	[0, 0, 0]	n/a	FR1	0	R1083J
685.841	1.361	1848662	REC_WORD_VV	1.361	n/a	<>	-999	6	[0, 0, 0]	n/a	FR1	0	R1083J
687.202	2.024	1850023	REC_WORD	2.024	n/a	TRAIN	-999	6	[0, 0, 0]	n/a	FR1	0	R1083J
689.226	2.448	1852047	REC_WORD	2.448	n/a	WORD	-999	6	[0, 0, 0]	n/a	FR1	0	R1083J
691.674	4.433	1854495	REC_WORD	4.433	n/a	SHEET	-999	6	[0, 0, 0]	n/a	FR1	0	R1083J
696.107	0.997	1858928	REC_WORD_VV	0.997	n/a	<>	-999	6	[0, 0, 0]	n/a	FR1	0	R1083J
697.104	3.848	1859925	REC_WORD	3.848	n/a	SAIL	-999	6	[0, 0, 0]	n/a	FR1	0	R1083J
700.952	4.867	1863773	REC_WORD	4.867	n/a	WOOD	-999	6	[0, 0, 0]	n/a	FR1	0	R1083J
705.819	0.441	1868640	REC_WORD	0.441	n/a	CONE	-999	6	[0, 0, 0]	n/a	FR1	0	R1083J
706.26	1.029	1869081	REC_WORD_VV	1.029	n/a	<>	-999	6	[0, 0, 0]	n/a	FR1	0	R1083J
707.289	6.94	1870110	REC_WORD_VV	6.94	n/a	<>	-999	6	[0, 0, 0]	n/a	FR1	0	R1083J
714.229	4.444	1877050	REC_END	n/a	n/a	n/a	-999	6	[0, 0, 0]	n/a	FR1	0	R1083J
718.673	0.0	1881494	TRIAL	n/a	n/a	n/a	-999	7	[0, 0, 0]	n/a	FR1	0	R1083J
718.673	10.428	1881494	COUNTDOWN_START	n/a	n/a	n/a	-999	7	[0, 0, 0]	n/a	FR1	0	R1083J
729.101	0.006	1891922	COUNTDOWN_END	n/a	n/a	n/a	-999	7	[0, 0, 0]	n/a	FR1	0	R1083J
729.107	2.501	1891928	ORIENT	n/a	n/a	n/a	-999	7	[0, 0, 0]	n/a	FR1	0	R1083J
731.608	2.583	1894429	WORD	n/a	wordpools/wordpool_EN.txt	TOOL	1	7	[0, 0, 0]	n/a	FR1	0	R1083J
734.191	2.401	1897012	WORD	n/a	wordpools/wordpool_EN.txt	CLOWN	2	7	[0, 0, 0]	n/a	FR1	0	R1083J
736.592	2.432	1899413	WORD	n/a	wordpools/wordpool_EN.txt	EGG	3	7	[0, 0, 0]	n/a	FR1	0	R1083J
739.024	2.518	1901845	WORD	n/a	wordpools/wordpool_EN.txt	POND	4	7	[0, 0, 0]	n/a	FR1	0	R1083J
741.542	2.566	1904363	WORD	n/a	wordpools/wordpool_EN.txt	ZOO	5	7	[0, 0, 0]	n/a	FR1	0	R1083J
744.108	2.551	1906929	WORD	n/a	wordpools/wordpool_EN.txt	WHEEL	6	7	[0, 0, 0]	n/a	FR1	0	R1083J
746.659	2.551	1909480	WORD	n/a	wordpools/wordpool_EN.txt	TOAD	7	7	[0, 0, 0]	n/a	FR1	0	R1083J
749.21	2.483	1912031	WORD	n/a	wordpools/wordpool_EN.txt	CAT	8	7	[0, 0, 0]	n/a	FR1	0	R1083J
751.693	2.567	1914514	WORD	n/a	wordpools/wordpool_EN.txt	MOUSE	9	7	[0, 0, 0]	n/a	FR1	0	R1083J
754.26	2.501	1917081	WORD	n/a	wordpools/wordpool_EN.txt	SPONGE	10	7	[0, 0, 0]	n/a	FR1	0	R1083J
756.761	2.533	1919582	WORD	n/a	wordpools/wordpool_EN.txt	MOOSE	11	7	[0, 0, 0]	n/a	FR1	0	R1083J
759.294	1.616	1922115	WORD	n/a	wordpools/wordpool_EN.txt	CLOCK	12	7	[0, 0, 0]	n/a	FR1	0	R1083J
760.91	0.001	1923731	DISTRACT_START	n/a	n/a	n/a	-999	7	[0, 0, 0]	n/a	FR1	0	R1083J
760.911	0.016	1923732	START	n/a	n/a	n/a	-999	7	[-999, -999, -999]	n/a	FR1	0	R1083J
760.927	3.884	1923748	PROB	3.884	n/a	n/a	-999	7	[2, 8, 6]	16	FR1	0	R1083J
764.811	2.15	1927632	PROB	2.15	n/a	n/a	-999	7	[5, 8, 8]	21	FR1	0	R1083J
766.961	2.684	1929782	PROB	2.684	n/a	n/a	-999	7	[6, 6, 3]	15	FR1	0	R1083J
769.645	2.233	1932466	PROB	2.233	n/a	n/a	-999	7	[1, 2, 8]	11	FR1	0	R1083J
771.878	3.284	1934699	PROB	3.284	n/a	n/a	-999	7	[1, 4, 2]	7	FR1	0	R1083J
775.162	2.268	1937983	PROB	2.268	n/a	n/a	-999	7	[5, 1, 1]	7	FR1	0	R1083J
777.43	2.367	1940251	PROB	2.367	n/a	n/a	-999	7	[7, 8, 2]	17	FR1	0	R1083J
779.797	2.342	1942618	PROB	2.342	n/a	n/a	-999	7	[5, 8, 8]	21	FR1	0	R1083J
782.139	0.007	1944960	STOP	n/a	n/a	n/a	-999	7	[-999, -999, -999]	n/a	FR1	0	R1083J
782.146	1.068	1944967	DISTRACT_END	n/a	n/a	n/a	-999	7	[0, 0, 0]	n/a	FR1	0	R1083J
783.214	2.329	1946035	REC_START	n/a	n/a	n/a	-999	7	[0, 0, 0]	n/a	FR1	0	R1083J
785.543	1.589	1948364	REC_WORD	1.589	n/a	CONE	-999	7	[0, 0, 0]	n/a	FR1	0	R1083J
787.132	1.796	1949953	REC_WORD	1.796	n/a	CLOWN	-999	7	[0, 0, 0]	n/a	FR1	0	R1083J
788.928	8.427	1951749	REC_WORD	8.427	n/a	TOAD	-999	7	[0, 0, 0]	n/a	FR1	0	R1083J
797.355	2.21	1960176	REC_WORD	2.21	n/a	CLOCK	-999	7	[0, 0, 0]	n/a	FR1	0	R1083J
799.565	3.578	1962386	REC_WORD	3.578	n/a	POND	-999	7	[0, 0, 0]	n/a	FR1	0	R1083J
803.143	7.02	1965964	REC_WORD	7.02	n/a	ZOO	-999	7	[0, 0, 0]	n/a	FR1	0	R1083J
810.163	3.065	1972984	REC_WORD	3.065	n/a	MOUSE	-999	7	[0, 0, 0]	n/a	FR1	0	R1083J
813.228	2.04	1976049	REC_END	n/a	n/a	n/a	-999	7	[0, 0, 0]	n/a	FR1	0	R1083J
815.268	0.0	1978089	TRIAL	n/a	n/a	n/a	-999	8	[0, 0, 0]	n/a	FR1	0	R1083J
815.268	10.428	1978089	COUNTDOWN_START	n/a	n/a	n/a	-999	8	[0, 0, 0]	n/a	FR1	0	R1083J
825.696	0.006	1988517	COUNTDOWN_END	n/a	n/a	n/a	-999	8	[0, 0, 0]	n/a	FR1	0	R1083J
825.702	2.601	1988523	ORIENT	n/a	n/a	n/a	-999	8	[0, 0, 0]	n/a	FR1	0	R1083J
828.303	2.582	1991124	WORD	n/a	wordpools/wordpool_EN.txt	PIPE	1	8	[0, 0, 0]	n/a	FR1	0	R1083J
830.885	2.468	1993706	WORD	n/a	wordpools/wordpool_EN.txt	HAT	2	8	[0, 0, 0]	n/a	FR1	0	R1083J
833.353	2.616	1996174	WORD	n/a	wordpools/wordpool_EN.txt	CAKE	3	8	[0, 0, 0]	n/a	FR1	0	R1083J
835.969	2.618	1998790	WORD	n/a	wordpools/wordpool_EN.txt	GUARD	4	8	[0, 0, 0]	n/a	FR1	0	R1083J
838.587	2.549	2001408	WORD	n/a	wordpools/wordpool_EN.txt	DIME	5	8	[0, 0, 0]	n/a	FR1	0	R1083J
841.136	2.469	2003957	WORD	n/a	wordpools/wordpool_EN.txt	GLASS	6	8	[0, 0, 0]	n/a	FR1	0	R1083J
843.605	2.617	2006426	WORD	n/a	wordpools/wordpool_EN.txt	GLOVE	7	8	[0, 0, 0]	n/a	FR1	0	R1083J
846.222	2.616	2009043	WORD	n/a	wordpools/wordpool_EN.txt	SWORD	8	8	[0, 0, 0]	n/a	FR1	0	R1083J
848.838	2.601	2011659	WORD	n/a	wordpools/wordpool_EN.txt	CHAIR	9	8	[0, 0, 0]	n/a	FR1	0	R1083J
851.439	2.449	2014260	WORD	n/a	wordpools/wordpool_EN.txt	TRAY	10	8	[0, 0, 0]	n/a	FR1	0	R1083J
853.888	2.585	2016709	WORD	n/a	wordpools/wordpool_EN.txt	CROWN	11	8	[0, 0, 0]	n/a	FR1	0	R1083J
856.473	1.616	2019294	WORD	n/a	wordpools/wordpool_EN.txt	KITE	12	8	[0, 0, 0]	n/a	FR1	0	R1083J
858.089	0.001	2020910	DISTRACT_START	n/a	n/a	n/a	-999	8	[0, 0, 0]	n/a	FR1	0	R1083J
858.09	0.015	2020911	START	n/a	n/a	n/a	-999	8	[-999, -999, -999]	n/a	FR1	0	R1083J
858.105	3.335	2020926	PROB	3.335	n/a	n/a	-999	8	[2, 6, 2]	10	FR1	0	R1083J
861.44	2.167	2024261	PROB	2.167	n/a	n/a	-999	8	[3, 3, 1]	7	FR1	0	R1083J
863.607	3.483	2026428	PROB	3.483	n/a	n/a	-999	8	[3, 2, 5]	10	FR1	0	R1083J
867.09	2.284	2029911	PROB	2.284	n/a	n/a	-999	8	[1, 5, 7]	13	FR1	0	R1083J
869.374	2.034	2032195	PROB	2.034	n/a	n/a	-999	8	[1, 4, 3]	8	FR1	0	R1083J
871.408	2.25	2034229	PROB	2.25	n/a	n/a	-999	8	[8, 2, 6]	16	FR1	0	R1083J
873.658	2.366	2036479	PROB	2.366	n/a	n/a	-999	8	[7, 2, 7]	16	FR1	0	R1083J
876.024	2.672	2038845	PROB	2.672	n/a	n/a	-999	8	[6, 1, 8]	15	FR1	0	R1083J
878.696	0.013	2041517	STOP	n/a	n/a	n/a	-999	8	[-999, -999, -999]	n/a	FR1	0	R1083J
878.709	1.183	2041530	DISTRACT_END	n/a	n/a	n/a	-999	8	[0, 0, 0]	n/a	FR1	0	R1083J
879.892	1.919	2042713	REC_START	n/a	n/a	n/a	-999	8	[0, 0, 0]	n/a	FR1	0	R1083J
881.811	1.784	2044632	REC_WORD	1.784	n/a	PIPE	-999	8	[0, 0, 0]	n/a	FR1	0	R1083J
883.595	2.649	2046416	REC_WORD	2.649	n/a	GLASS	-999	8	[0, 0, 0]	n/a	FR1	0	R1083J
886.244	4.147	2049065	REC_WORD	4.147	n/a	TOAD	-999	8	[0, 0, 0]	n/a	FR1	0	R1083J
890.391	2.154	2053212	REC_WORD	2.154	n/a	COAT	-999	8	[0, 0, 0]	n/a	FR1	0	R1083J
892.545	8.88	2055366	REC_WORD	8.88	n/a	CROWN	-999	8	[0, 0, 0]	n/a	FR1	0	R1083J
901.425	1.0	2064247	REC_WORD_VV	1.0	n/a	<>	-999	8	[0, 0, 0]	n/a	FR1	0	R1083J
902.425	1.079	2065247	REC_WORD_VV	1.079	n/a	<>	-999	8	[0, 0, 0]	n/a	FR1	0	R1083J
903.504	3.696	2066326	REC_WORD	3.696	n/a	MAP	-999	8	[0, 0, 0]	n/a	FR1	0	R1083J
907.2	2.702	2070022	REC_WORD	2.702	n/a	CLOTH	-999	8	[0, 0, 0]	n/a	FR1	0	R1083J
909.902	2.894	2072724	REC_END	n/a	n/a	n/a	-999	8	[0, 0, 0]	n/a	FR1	0	R1083J
912.796	0.0	2075618	COUNTDOWN_START	n/a	n/a	n/a	-999	9	[0, 0, 0]	n/a	FR1	0	R1083J
912.796	10.428	2075618	TRIAL	n/a	n/a	n/a	-999	9	[0, 0, 0]	n/a	FR1	0	R1083J
923.224	0.007	2086046	COUNTDOWN_END	n/a	n/a	n/a	-999	9	[0, 0, 0]	n/a	FR1	0	R1083J
923.231	2.484	2086053	ORIENT	n/a	n/a	n/a	-999	9	[0, 0, 0]	n/a	FR1	0	R1083J
925.715	2.449	2088537	WORD	n/a	wordpools/wordpool_EN.txt	SNOW	1	9	[0, 0, 0]	n/a	FR1	0	R1083J
928.164	2.484	2090986	WORD	n/a	wordpools/wordpool_EN.txt	CLAY	2	9	[0, 0, 0]	n/a	FR1	0	R1083J
930.648	2.433	2093470	WORD	n/a	wordpools/wordpool_EN.txt	STRAW	3	9	[0, 0, 0]	n/a	FR1	0	R1083J
933.081	2.368	2095903	WORD	n/a	wordpools/wordpool_EN.txt	SQUARE	4	9	[0, 0, 0]	n/a	FR1	0	R1083J
935.449	2.483	2098271	WORD	n/a	wordpools/wordpool_EN.txt	MUD	5	9	[0, 0, 0]	n/a	FR1	0	R1083J
937.932	2.534	2100754	WORD	n/a	wordpools/wordpool_EN.txt	STORM	6	9	[0, 0, 0]	n/a	FR1	0	R1083J
940.466	2.483	2103288	WORD	n/a	wordpools/wordpool_EN.txt	THREAD	7	9	[0, 0, 0]	n/a	FR1	0	R1083J
942.949	2.368	2105771	WORD	n/a	wordpools/wordpool_EN.txt	CLOUD	8	9	[0, 0, 0]	n/a	FR1	0	R1083J
945.317	2.384	2108139	WORD	n/a	wordpools/wordpool_EN.txt	LAND	9	9	[0, 0, 0]	n/a	FR1	0	R1083J
947.701	2.483	2110523	WORD	n/a	wordpools/wordpool_EN.txt	LAMP	10	9	[0, 0, 0]	n/a	FR1	0	R1083J
950.184	2.484	2113006	WORD	n/a	wordpools/wordpool_EN.txt	SHARK	11	9	[0, 0, 0]	n/a	FR1	0	R1083J
952.668	1.617	2115490	WORD	n/a	wordpools/wordpool_EN.txt	RUG	12	9	[0, 0, 0]	n/a	FR1	0	R1083J
954.285	0.0	2117107	DISTRACT_START	n/a	n/a	n/a	-999	9	[0, 0, 0]	n/a	FR1	0	R1083J
954.285	0.016	2117107	START	n/a	n/a	n/a	-999	9	[-999, -999, -999]	n/a	FR1	0	R1083J
954.301	4.018	2117123	PROB	4.018	n/a	n/a	-999	9	[4, 8, 8]	20	FR1	0	R1083J
958.319	2.615	2121141	PROB	2.615	n/a	n/a	-999	9	[9, 2, 4]	15	FR1	0	R1083J
960.934	3.218	2123756	PROB	3.218	n/a	n/a	-999	9	[8, 6, 3]	17	FR1	0	R1083J
964.152	4.667	2126974	PROB	4.667	n/a	n/a	-999	9	[5, 9, 6]	20	FR1	0	R1083J
968.819	3.0	2131641	PROB	3.0	n/a	n/a	-999	9	[9, 6, 7]	22	FR1	0	R1083J
971.819	2.234	2134641	PROB	2.234	n/a	n/a	-999	9	[1, 7, 1]	9	FR1	0	R1083J
974.053	1.534	2136875	PROB	1.534	n/a	n/a	-999	9	[8, 2, 1]	11	FR1	0	R1083J
975.587	0.017	2138409	STOP	n/a	n/a	n/a	-999	9	[-999, -999, -999]	n/a	FR1	0	R1083J
975.604	1.151	2138426	DISTRACT_END	n/a	n/a	n/a	-999	9	[0, 0, 0]	n/a	FR1	0	R1083J
976.755	1.66	2139577	REC_START	n/a	n/a	n/a	-999	9	[0, 0, 0]	n/a	FR1	0	R1083J
978.415	1.53	2141237	REC_WORD	1.53	n/a	SHARK	-999	9	[0, 0, 0]	n/a	FR1	0	R1083J
979.945	1.861	2142767	REC_WORD	1.861	n/a	SNOW	-999	9	[0, 0, 0]	n/a	FR1	0	R1083J
981.806	2.869	2144628	REC_WORD	2.869	n/a	CLOUD	-999	9	[0, 0, 0]	n/a	FR1	0	R1083J
984.675	2.82	2147497	REC_WORD	2.82	n/a	THREAD	-999	9	[0, 0, 0]	n/a	FR1	0	R1083J
987.495	5.169	2150317	REC_WORD	5.169	n/a	SWORD	-999	9	[0, 0, 0]	n/a	FR1	0	R1083J
992.664	5.414	2155486	REC_WORD	5.414	n/a	THRONE	-999	9	[0, 0, 0]	n/a	FR1	0	R1083J
998.078	7.054	2160900	REC_WORD	7.054	n/a	CASTLE	-999	9	[0, 0, 0]	n/a	FR1	0	R1083J
1005.132	1.633	2167954	REC_WORD	1.633	n/a	SQUARE	-999	9	[0, 0, 0]	n/a	FR1	0	R1083J
1006.765	2.259	2169587	REC_END	n/a	n/a	n/a	-999	9	[0, 0, 0]	n/a	FR1	0	R1083J
1009.024	0.0	2171846	TRIAL	n/a	n/a	n/a	-999	10	[0, 0, 0]	n/a	FR1	0	R1083J
1009.024	10.428	2171846	COUNTDOWN_START	n/a	n/a	n/a	-999	10	[0, 0, 0]	n/a	FR1	0	R1083J
1019.452	0.007	2182274	COUNTDOWN_END	n/a	n/a	n/a	-999	10	[0, 0, 0]	n/a	FR1	0	R1083J
1019.459	2.483	2182281	ORIENT	n/a	n/a	n/a	-999	10	[0, 0, 0]	n/a	FR1	0	R1083J
1021.942	2.451	2184764	WORD	n/a	wordpools/wordpool_EN.txt	SHEEP	1	10	[0, 0, 0]	n/a	FR1	0	R1083J
1024.393	2.416	2187215	WORD	n/a	wordpools/wordpool_EN.txt	DRUM	2	10	[0, 0, 0]	n/a	FR1	0	R1083J
1026.809	2.485	2189631	WORD	n/a	wordpools/wordpool_EN.txt	VINE	3	10	[0, 0, 0]	n/a	FR1	0	R1083J
1029.294	2.383	2192116	WORD	n/a	wordpools/wordpool_EN.txt	CROW	4	10	[0, 0, 0]	n/a	FR1	0	R1083J
1031.677	2.483	2194499	WORD	n/a	wordpools/wordpool_EN.txt	RAIN	5	10	[0, 0, 0]	n/a	FR1	0	R1083J
1034.16	2.602	2196982	WORD	n/a	wordpools/wordpool_EN.txt	BRUSH	6	10	[0, 0, 0]	n/a	FR1	0	R1083J
1036.762	2.417	2199584	WORD	n/a	wordpools/wordpool_EN.txt	DEER	7	10	[0, 0, 0]	n/a	FR1	0	R1083J
1039.179	2.483	2202001	WORD	n/a	wordpools/wordpool_EN.txt	FROG	8	10	[0, 0, 0]	n/a	FR1	0	R1083J
1041.662	2.567	2204484	WORD	n/a	wordpools/wordpool_EN.txt	PASTE	9	10	[0, 0, 0]	n/a	FR1	0	R1083J
1044.229	2.467	2207051	WORD	n/a	wordpools/wordpool_EN.txt	TEETH	10	10	[0, 0, 0]	n/a	FR1	0	R1083J
1046.696	2.383	2209518	WORD	n/a	wordpools/wordpool_EN.txt	ROOT	11	10	[0, 0, 0]	n/a	FR1	0	R1083J
1049.079	1.617	2211901	WORD	n/a	wordpools/wordpool_EN.txt	CHIEF	12	10	[0, 0, 0]	n/a	FR1	0	R1083J
1050.696	0.001	2213518	DISTRACT_START	n/a	n/a	n/a	-999	10	[0, 0, 0]	n/a	FR1	0	R1083J
1050.697	0.016	2213519	START	n/a	n/a	n/a	-999	10	[-999, -999, -999]	n/a	FR1	0	R1083J
1050.713	7.601	2213535	PROB	7.601	n/a	n/a	-999	10	[8, 7, 6]	21	FR1	0	R1083J
1058.314	2.799	2221136	PROB	2.799	n/a	n/a	-999	10	[1, 4, 6]	11	FR1	0	R1083J
1061.113	2.402	2223935	PROB	2.402	n/a	n/a	-999	10	[3, 5, 2]	10	FR1	0	R1083J
1063.515	4.366	2226337	PROB	4.366	n/a	n/a	-999	10	[4, 4, 6]	22	FR1	0	R1083J
1067.881	1.868	2230703	PROB	1.868	n/a	n/a	-999	10	[7, 1, 2]	11	FR1	0	R1083J
1069.749	2.665	2232571	PROB	2.665	n/a	n/a	-999	10	[6, 4, 7]	17	FR1	0	R1083J
1072.414	0.018	2235236	STOP	n/a	n/a	n/a	-999	10	[-999, -999, -999]	n/a	FR1	0	R1083J
1072.432	1.201	2235254	DISTRACT_END	n/a	n/a	n/a	-999	10	[0, 0, 0]	n/a	FR1	0	R1083J
1073.633	1.236	2236455	REC_START	n/a	n/a	n/a	-999	10	[0, 0, 0]	n/a	FR1	0	R1083J
1074.869	1.435	2237691	REC_WORD_VV	1.435	n/a	<>	-999	10	[0, 0, 0]	n/a	FR1	0	R1083J
1076.304	1.112	2239126	REC_WORD	1.112	n/a	SHEEP	-999	10	[0, 0, 0]	n/a	FR1	0	R1083J
1077.416	1.0	2240238	REC_WORD_VV	1.0	n/a	<>	-999	10	[0, 0, 0]	n/a	FR1	0	R1083J
1078.416	0.754	2241238	REC_WORD_VV	0.754	n/a	<>	-999	10	[0, 0, 0]	n/a	FR1	0	R1083J
1079.17	1.789	2241992	REC_WORD_VV	1.789	n/a	<>	-999	10	[0, 0, 0]	n/a	FR1	0	R1083J
1080.959	1.046	2243781	REC_WORD	1.046	n/a	TEETH	-999	10	[0, 0, 0]	n/a	FR1	0	R1083J
1082.005	1.764	2244827	REC_WORD_VV	1.764	n/a	<>	-999	10	[0, 0, 0]	n/a	FR1	0	R1083J
1083.769	2.607	2246591	REC_WORD_VV	2.607	n/a	<>	-999	10	[0, 0, 0]	n/a	FR1	0	R1083J
1086.376	6.161	2249198	REC_WORD	6.161	n/a	CROWN	-999	10	[0, 0, 0]	n/a	FR1	0	R1083J
1092.537	10.662	2255359	REC_WORD	10.662	n/a	DRUM	-999	10	[0, 0, 0]	n/a	FR1	0	R1083J
1103.199	0.448	2266021	REC_WORD_VV	0.448	n/a	<>	-999	10	[0, 0, 0]	n/a	FR1	0	R1083J
1103.647	2.69	2266469	REC_END	n/a	n/a	n/a	-999	10	[0, 0, 0]	n/a	FR1	0	R1083J
1106.337	0.0	2269159	COUNTDOWN_START	n/a	n/a	n/a	-999	11	[0, 0, 0]	n/a	FR1	0	R1083J
1106.337	10.428	2269159	TRIAL	n/a	n/a	n/a	-999	11	[0, 0, 0]	n/a	FR1	0	R1083J
1116.765	0.006	2279588	COUNTDOWN_END	n/a	n/a	n/a	-999	11	[0, 0, 0]	n/a	FR1	0	R1083J
1116.771	2.401	2279594	ORIENT	n/a	n/a	n/a	-999	11	[0, 0, 0]	n/a	FR1	0	R1083J
1119.172	2.632	2281995	WORD	n/a	wordpools/wordpool_EN.txt	SHELL	1	11	[0, 0, 0]	n/a	FR1	0	R1083J
1121.804	2.368	2284627	WORD	n/a	wordpools/wordpool_EN.txt	PEAR	2	11	[0, 0, 0]	n/a	FR1	0	R1083J
1124.172	2.401	2286995	WORD	n/a	wordpools/wordpool_EN.txt	SHRIMP	3	11	[0, 0, 0]	n/a	FR1	0	R1083J
1126.573	2.516	2289396	WORD	n/a	wordpools/wordpool_EN.txt	BOX	4	11	[0, 0, 0]	n/a	FR1	0	R1083J
1129.089	2.501	2291912	WORD	n/a	wordpools/wordpool_EN.txt	PALM	5	11	[0, 0, 0]	n/a	FR1	0	R1083J
1131.59	2.6	2294413	WORD	n/a	wordpools/wordpool_EN.txt	PIT	6	11	[0, 0, 0]	n/a	FR1	0	R1083J
1134.19	2.467	2297013	WORD	n/a	wordpools/wordpool_EN.txt	BEACH	7	11	[0, 0, 0]	n/a	FR1	0	R1083J
1136.657	2.534	2299480	WORD	n/a	wordpools/wordpool_EN.txt	JAR	8	11	[0, 0, 0]	n/a	FR1	0	R1083J
1139.191	2.45	2302014	WORD	n/a	wordpools/wordpool_EN.txt	WOOD	9	11	[0, 0, 0]	n/a	FR1	0	R1083J
1141.641	2.449	2304464	WORD	n/a	wordpools/wordpool_EN.txt	SEA	10	11	[0, 0, 0]	n/a	FR1	0	R1083J
1144.09	2.402	2306913	WORD	n/a	wordpools/wordpool_EN.txt	FUDGE	11	11	[0, 0, 0]	n/a	FR1	0	R1083J
1146.492	1.615	2309315	WORD	n/a	wordpools/wordpool_EN.txt	ARM	12	11	[0, 0, 0]	n/a	FR1	0	R1083J
1148.107	0.001	2310930	DISTRACT_START	n/a	n/a	n/a	-999	11	[0, 0, 0]	n/a	FR1	0	R1083J
1148.108	0.016	2310931	START	n/a	n/a	n/a	-999	11	[-999, -999, -999]	n/a	FR1	0	R1083J
1148.124	4.535	2310947	PROB	4.535	n/a	n/a	-999	11	[4, 7, 6]	17	FR1	0	R1083J
1152.659	3.1	2315482	PROB	3.1	n/a	n/a	-999	11	[8, 4, 3]	14	FR1	0	R1083J
1155.759	4.601	2318582	PROB	4.601	n/a	n/a	-999	11	[9, 4, 8]	21	FR1	0	R1083J
1160.36	1.917	2323183	PROB	1.917	n/a	n/a	-999	11	[6, 3, 3]	12	FR1	0	R1083J
1162.277	3.35	2325100	PROB	3.35	n/a	n/a	-999	11	[6, 8, 6]	22	FR1	0	R1083J
1165.627	2.45	2328450	PROB	2.45	n/a	n/a	-999	11	[8, 3, 2]	13	FR1	0	R1083J
1168.077	3.612	2330900	PROB	3.612	n/a	n/a	-999	11	[9, 9, 6]	24	FR1	0	R1083J
1171.689	0.005	2334512	STOP	n/a	n/a	n/a	-999	11	[-999, -999, -999]	n/a	FR1	0	R1083J
1171.694	1.117	2334517	DISTRACT_END	n/a	n/a	n/a	-999	11	[0, 0, 0]	n/a	FR1	0	R1083J
1172.811	2.372	2335634	REC_START	n/a	n/a	n/a	-999	11	[0, 0, 0]	n/a	FR1	0	R1083J
1175.183	2.639	2338006	REC_WORD	2.639	n/a	BEACH	-999	11	[0, 0, 0]	n/a	FR1	0	R1083J
1177.822	2.073	2340645	REC_WORD	2.073	n/a	FUDGE	-999	11	[0, 0, 0]	n/a	FR1	0	R1083J
1179.895	3.384	2342718	REC_WORD	3.384	n/a	SEA	-999	11	[0, 0, 0]	n/a	FR1	0	R1083J
1183.279	2.818	2346102	REC_WORD	2.818	n/a	SAND	-999	11	[0, 0, 0]	n/a	FR1	0	R1083J
1186.097	5.842	2348920	REC_WORD	5.842	n/a	TORCH	-999	11	[0, 0, 0]	n/a	FR1	0	R1083J
1191.939	7.056	2354762	REC_WORD	7.056	n/a	CHAIR	-999	11	[0, 0, 0]	n/a	FR1	0	R1083J
1198.995	2.916	2361818	REC_WORD	2.916	n/a	CONE	-999	11	[0, 0, 0]	n/a	FR1	0	R1083J
1201.911	0.91	2364734	REC_WORD_VV	0.91	n/a	<>	-999	11	[0, 0, 0]	n/a	FR1	0	R1083J
1202.821	5.194	2365644	REC_END	n/a	n/a	n/a	-999	11	[0, 0, 0]	n/a	FR1	0	R1083J
1208.015	0.0	2370838	TRIAL	n/a	n/a	n/a	-999	12	[0, 0, 0]	n/a	FR1	0	R1083J
1208.015	10.428	2370838	COUNTDOWN_START	n/a	n/a	n/a	-999	12	[0, 0, 0]	n/a	FR1	0	R1083J
1218.443	0.007	2381266	COUNTDOWN_END	n/a	n/a	n/a	-999	12	[0, 0, 0]	n/a	FR1	0	R1083J
1218.45	2.482	2381273	ORIENT	n/a	n/a	n/a	-999	12	[0, 0, 0]	n/a	FR1	0	R1083J
1220.932	2.502	2383755	WORD	n/a	wordpools/wordpool_EN.txt	GEESE	1	12	[0, 0, 0]	n/a	FR1	0	R1083J
1223.434	2.616	2386257	WORD	n/a	wordpools/wordpool_EN.txt	ICE	2	12	[0, 0, 0]	n/a	FR1	0	R1083J
1226.05	2.452	2388873	WORD	n/a	wordpools/wordpool_EN.txt	FISH	3	12	[0, 0, 0]	n/a	FR1	0	R1083J
1228.502	2.449	2391325	WORD	n/a	wordpools/wordpool_EN.txt	SLIME	4	12	[0, 0, 0]	n/a	FR1	0	R1083J
1230.951	2.618	2393774	WORD	n/a	wordpools/wordpool_EN.txt	CAPE	5	12	[0, 0, 0]	n/a	FR1	0	R1083J
1233.569	2.466	2396392	WORD	n/a	wordpools/wordpool_EN.txt	FORT	6	12	[0, 0, 0]	n/a	FR1	0	R1083J
1236.035	2.418	2398858	WORD	n/a	wordpools/wordpool_EN.txt	TANK	7	12	[0, 0, 0]	n/a	FR1	0	R1083J
1238.453	2.532	2401276	WORD	n/a	wordpools/wordpool_EN.txt	STRING	8	12	[0, 0, 0]	n/a	FR1	0	R1083J
1240.985	2.518	2403808	WORD	n/a	wordpools/wordpool_EN.txt	GOAT	9	12	[0, 0, 0]	n/a	FR1	0	R1083J
1243.503	2.466	2406326	WORD	n/a	wordpools/wordpool_EN.txt	SKY	10	12	[0, 0, 0]	n/a	FR1	0	R1083J
1245.969	2.402	2408792	WORD	n/a	wordpools/wordpool_EN.txt	BAT	11	12	[0, 0, 0]	n/a	FR1	0	R1083J
1248.371	1.615	2411194	WORD	n/a	wordpools/wordpool_EN.txt	LAKE	12	12	[0, 0, 0]	n/a	FR1	0	R1083J
1249.986	0.001	2412809	DISTRACT_START	n/a	n/a	n/a	-999	12	[0, 0, 0]	n/a	FR1	0	R1083J
1249.987	0.016	2412810	START	n/a	n/a	n/a	-999	12	[-999, -999, -999]	n/a	FR1	0	R1083J
1250.003	2.385	2412826	PROB	2.385	n/a	n/a	-999	12	[3, 2, 7]	12	FR1	0	R1083J
1252.388	3.95	2415211	PROB	3.95	n/a	n/a	-999	12	[2, 9, 6]	17	FR1	0	R1083J
1256.338	2.384	2419161	PROB	2.384	n/a	n/a	-999	12	[8, 1, 9]	18	FR1	0	R1083J
1258.722	2.382	2421545	PROB	2.382	n/a	n/a	-999	12	[9, 5, 4]	18	FR1	0	R1083J
1261.104	2.984	2423927	PROB	2.984	n/a	n/a	-999	12	[4, 9, 8]	21	FR1	0	R1083J
1264.088	5.102	2426911	PROB	5.102	n/a	n/a	-999	12	[3, 9, 6]	18	FR1	0	R1083J
1269.19	2.263	2432013	PROB	2.263	n/a	n/a	-999	12	[2, 3, 1]	6	FR1	0	R1083J
1271.453	0.003	2434276	STOP	n/a	n/a	n/a	-999	12	[-999, -999, -999]	n/a	FR1	0	R1083J
1271.456	1.101	2434279	DISTRACT_END	n/a	n/a	n/a	-999	12	[0, 0, 0]	n/a	FR1	0	R1083J
1272.557	2.622	2435380	REC_START	n/a	n/a	n/a	-999	12	[0, 0, 0]	n/a	FR1	0	R1083J
1275.179	1.721	2438002	REC_WORD	1.721	n/a	GOAT	-999	12	[0, 0, 0]	n/a	FR1	0	R1083J
1276.9	2.132	2439723	REC_WORD	2.132	n/a	BAT	-999	12	[0, 0, 0]	n/a	FR1	0	R1083J
1279.032	3.284	2441855	REC_WORD	3.284	n/a	GEESE	-999	12	[0, 0, 0]	n/a	FR1	0	R1083J
1282.316	4.375	2445139	REC_WORD	4.375	n/a	SLIME	-999	12	[0, 0, 0]	n/a	FR1	0	R1083J
1286.691	4.045	2449514	REC_WORD	4.045	n/a	FLY	-999	12	[0, 0, 0]	n/a	FR1	0	R1083J
1290.736	6.724	2453559	REC_WORD	6.724	n/a	BOAT	-999	12	[0, 0, 0]	n/a	FR1	0	R1083J
1297.46	5.108	2460283	REC_WORD	5.108	n/a	MOOSE	-999	12	[0, 0, 0]	n/a	FR1	0	R1083J
1302.568	3.06	2465391	REC_END	n/a	n/a	n/a	-999	12	[0, 0, 0]	n/a	FR1	0	R1083J
1305.628	0.0	2468451	TRIAL	n/a	n/a	n/a	-999	13	[0, 0, 0]	n/a	FR1	0	R1083J
1305.628	10.428	2468451	COUNTDOWN_START	n/a	n/a	n/a	-999	13	[0, 0, 0]	n/a	FR1	0	R1083J
1316.056	0.005	2478879	COUNTDOWN_END	n/a	n/a	n/a	-999	13	[0, 0, 0]	n/a	FR1	0	R1083J
1316.061	2.368	2478884	ORIENT	n/a	n/a	n/a	-999	13	[0, 0, 0]	n/a	FR1	0	R1083J
1318.429	2.583	2481252	WORD	n/a	wordpools/wordpool_EN.txt	ROPE	1	13	[0, 0, 0]	n/a	FR1	0	R1083J
1321.012	2.434	2483835	WORD	n/a	wordpools/wordpool_EN.txt	HAWK	2	13	[0, 0, 0]	n/a	FR1	0	R1083J
1323.446	2.566	2486270	WORD	n/a	wordpools/wordpool_EN.txt	OWL	3	13	[0, 0, 0]	n/a	FR1	0	R1083J
1326.012	2.569	2488836	WORD	n/a	wordpools/wordpool_EN.txt	PIG	4	13	[0, 0, 0]	n/a	FR1	0	R1083J
1328.581	2.482	2491405	WORD	n/a	wordpools/wordpool_EN.txt	LAWN	5	13	[0, 0, 0]	n/a	FR1	0	R1083J
1331.063	2.418	2493887	WORD	n/a	wordpools/wordpool_EN.txt	HOUSE	6	13	[0, 0, 0]	n/a	FR1	0	R1083J
1333.481	2.466	2496305	WORD	n/a	wordpools/wordpool_EN.txt	FOOT	7	13	[0, 0, 0]	n/a	FR1	0	R1083J
1335.947	2.485	2498771	WORD	n/a	wordpools/wordpool_EN.txt	BIRD	8	13	[0, 0, 0]	n/a	FR1	0	R1083J
1338.432	2.399	2501256	WORD	n/a	wordpools/wordpool_EN.txt	COW	9	13	[0, 0, 0]	n/a	FR1	0	R1083J
1340.831	2.551	2503655	WORD	n/a	wordpools/wordpool_EN.txt	CAVE	10	13	[0, 0, 0]	n/a	FR1	0	R1083J
1343.382	2.384	2506206	WORD	n/a	wordpools/wordpool_EN.txt	SPRING	11	13	[0, 0, 0]	n/a	FR1	0	R1083J
1345.766	1.617	2508590	WORD	n/a	wordpools/wordpool_EN.txt	BLUSH	12	13	[0, 0, 0]	n/a	FR1	0	R1083J
1347.383	0.001	2510207	DISTRACT_START	n/a	n/a	n/a	-999	13	[0, 0, 0]	n/a	FR1	0	R1083J
1347.384	0.015	2510208	START	n/a	n/a	n/a	-999	13	[-999, -999, -999]	n/a	FR1	0	R1083J
1347.399	3.884	2510223	PROB	3.884	n/a	n/a	-999	13	[6, 6, 5]	16	FR1	0	R1083J
1351.283	2.683	2514107	PROB	2.683	n/a	n/a	-999	13	[5, 4, 5]	14	FR1	0	R1083J
1353.966	2.234	2516790	PROB	2.234	n/a	n/a	-999	13	[3, 1, 8]	12	FR1	0	R1083J
1356.2	2.251	2519024	PROB	2.251	n/a	n/a	-999	13	[2, 4, 8]	14	FR1	0	R1083J
1358.451	1.682	2521275	PROB	1.682	n/a	n/a	-999	13	[5, 3, 3]	11	FR1	0	R1083J
1360.133	2.784	2522957	PROB	2.784	n/a	n/a	-999	13	[8, 3, 7]	18	FR1	0	R1083J
1362.917	2.501	2525741	PROB	2.501	n/a	n/a	-999	13	[4, 1, 2]	7	FR1	0	R1083J
1365.418	3.198	2528242	PROB	3.198	n/a	n/a	-999	13	[8, 4, 7]	18	FR1	0	R1083J
1368.616	0.019	2531440	STOP	n/a	n/a	n/a	-999	13	[-999, -999, -999]	n/a	FR1	0	R1083J
1368.635	1.084	2531459	DISTRACT_END	n/a	n/a	n/a	-999	13	[0, 0, 0]	n/a	FR1	0	R1083J
1369.719	1.679	2532543	REC_START	n/a	n/a	n/a	-999	13	[0, 0, 0]	n/a	FR1	0	R1083J
1371.398	5.636	2534222	REC_WORD	5.636	n/a	HAWK	-999	13	[0, 0, 0]	n/a	FR1	0	R1083J
1377.034	2.499	2539858	REC_WORD	2.499	n/a	LIGHT	-999	13	[0, 0, 0]	n/a	FR1	0	R1083J
1379.533	1.0	2542357	REC_WORD_VV	1.0	n/a	<>	-999	13	[0, 0, 0]	n/a	FR1	0	R1083J
1380.533	4.631	2543357	REC_WORD_VV	4.631	n/a	<>	-999	13	[0, 0, 0]	n/a	FR1	0	R1083J
1385.164	4.687	2547988	REC_WORD	4.687	n/a	EYE	-999	13	[0, 0, 0]	n/a	FR1	0	R1083J
1389.851	5.936	2552675	REC_WORD	5.936	n/a	FROG	-999	13	[0, 0, 0]	n/a	FR1	0	R1083J
1395.787	3.956	2558611	REC_WORD	3.956	n/a	POND	-999	13	[0, 0, 0]	n/a	FR1	0	R1083J
1399.743	3.195	2562567	REC_END	n/a	n/a	n/a	-999	13	[0, 0, 0]	n/a	FR1	0	R1083J
1402.938	0.0	2565762	TRIAL	n/a	n/a	n/a	-999	14	[0, 0, 0]	n/a	FR1	0	R1083J
1402.938	10.428	2565762	COUNTDOWN_START	n/a	n/a	n/a	-999	14	[0, 0, 0]	n/a	FR1	0	R1083J
1413.366	0.008	2576190	COUNTDOWN_END	n/a	n/a	n/a	-999	14	[0, 0, 0]	n/a	FR1	0	R1083J
1413.374	2.449	2576198	ORIENT	n/a	n/a	n/a	-999	14	[0, 0, 0]	n/a	FR1	0	R1083J
1415.823	2.585	2578647	WORD	n/a	wordpools/wordpool_EN.txt	STOVE	1	14	[0, 0, 0]	n/a	FR1	0	R1083J
1418.408	2.616	2581232	WORD	n/a	wordpools/wordpool_EN.txt	CALF	2	14	[0, 0, 0]	n/a	FR1	0	R1083J
1421.024	2.501	2583848	WORD	n/a	wordpools/wordpool_EN.txt	MUG	3	14	[0, 0, 0]	n/a	FR1	0	R1083J
1423.525	2.45	2586349	WORD	n/a	wordpools/wordpool_EN.txt	APE	4	14	[0, 0, 0]	n/a	FR1	0	R1083J
1425.975	2.634	2588799	WORD	n/a	wordpools/wordpool_EN.txt	FOX	5	14	[0, 0, 0]	n/a	FR1	0	R1083J
1428.609	2.584	2591433	WORD	n/a	wordpools/wordpool_EN.txt	WOLF	6	14	[0, 0, 0]	n/a	FR1	0	R1083J
1431.193	2.6	2594017	WORD	n/a	wordpools/wordpool_EN.txt	HOOK	7	14	[0, 0, 0]	n/a	FR1	0	R1083J
1433.793	2.55	2596617	WORD	n/a	wordpools/wordpool_EN.txt	BARN	8	14	[0, 0, 0]	n/a	FR1	0	R1083J
1436.343	2.617	2599167	WORD	n/a	wordpools/wordpool_EN.txt	NOSE	9	14	[0, 0, 0]	n/a	FR1	0	R1083J
1438.96	2.551	2601784	WORD	n/a	wordpools/wordpool_EN.txt	HEN	10	14	[0, 0, 0]	n/a	FR1	0	R1083J
1441.511	2.516	2604335	WORD	n/a	wordpools/wordpool_EN.txt	FARM	11	14	[0, 0, 0]	n/a	FR1	0	R1083J
1444.027	1.618	2606851	WORD	n/a	wordpools/wordpool_EN.txt	FORK	12	14	[0, 0, 0]	n/a	FR1	0	R1083J
1445.645	0.0	2608469	DISTRACT_START	n/a	n/a	n/a	-999	14	[0, 0, 0]	n/a	FR1	0	R1083J
1445.645	0.016	2608469	START	n/a	n/a	n/a	-999	14	[-999, -999, -999]	n/a	FR1	0	R1083J
1445.661	3.8	2608485	PROB	3.8	n/a	n/a	-999	14	[2, 2, 7]	11	FR1	0	R1083J
1449.461	3.533	2612285	PROB	3.533	n/a	n/a	-999	14	[8, 2, 9]	19	FR1	0	R1083J
1452.994	3.118	2615818	PROB	3.118	n/a	n/a	-999	14	[7, 8, 9]	24	FR1	0	R1083J
1456.112	2.268	2618936	PROB	2.268	n/a	n/a	-999	14	[6, 7, 8]	21	FR1	0	R1083J
1458.38	4.05	2621204	PROB	4.05	n/a	n/a	-999	14	[8, 3, 7]	18	FR1	0	R1083J
1462.43	3.38	2625254	PROB	3.38	n/a	n/a	-999	14	[2, 6, 7]	15	FR1	0	R1083J
1465.81	0.019	2628634	STOP	n/a	n/a	n/a	-999	14	[-999, -999, -999]	n/a	FR1	0	R1083J
1465.829	1.218	2628653	DISTRACT_END	n/a	n/a	n/a	-999	14	[0, 0, 0]	n/a	FR1	0	R1083J
1467.047	2.209	2629871	REC_START	n/a	n/a	n/a	-999	14	[0, 0, 0]	n/a	FR1	0	R1083J
1469.256	2.718	2632080	REC_WORD	2.718	n/a	FARM	-999	14	[0, 0, 0]	n/a	FR1	0	R1083J
1471.974	4.399	2634798	REC_WORD	4.399	n/a	HEN	-999	14	[0, 0, 0]	n/a	FR1	0	R1083J
1476.373	0.212	2639197	REC_WORD_VV	0.212	n/a	<>	-999	14	[0, 0, 0]	n/a	FR1	0	R1083J
1476.585	3.525	2639409	REC_WORD	3.525	n/a	COKE	-999	14	[0, 0, 0]	n/a	FR1	0	R1083J
1480.11	9.708	2642934	REC_WORD	9.708	n/a	FORK	-999	14	[0, 0, 0]	n/a	FR1	0	R1083J
1489.818	4.841	2652642	REC_WORD	4.841	n/a	ROPE	-999	14	[0, 0, 0]	n/a	FR1	0	R1083J
1494.659	2.398	2657483	REC_WORD	2.398	n/a	APE	-999	14	[0, 0, 0]	n/a	FR1	0	R1083J
1497.057	3.81	2659881	REC_END	n/a	n/a	n/a	-999	14	[0, 0, 0]	n/a	FR1	0	R1083J
1500.867	0.0	2663691	TRIAL	n/a	n/a	n/a	-999	15	[0, 0, 0]	n/a	FR1	0	R1083J
1500.867	10.428	2663691	COUNTDOWN_START	n/a	n/a	n/a	-999	15	[0, 0, 0]	n/a	FR1	0	R1083J
1511.295	0.007	2674119	COUNTDOWN_END	n/a	n/a	n/a	-999	15	[0, 0, 0]	n/a	FR1	0	R1083J
1511.302	2.55	2674126	ORIENT	n/a	n/a	n/a	-999	15	[0, 0, 0]	n/a	FR1	0	R1083J
1513.852	2.368	2676676	WORD	n/a	wordpools/wordpool_EN.txt	THUMB	1	15	[0, 0, 0]	n/a	FR1	0	R1083J
1516.22	2.534	2679044	WORD	n/a	wordpools/wordpool_EN.txt	SLEEVE	2	15	[0, 0, 0]	n/a	FR1	0	R1083J
1518.754	2.45	2681578	WORD	n/a	wordpools/wordpool_EN.txt	FENCE	3	15	[0, 0, 0]	n/a	FR1	0	R1083J
1521.204	2.567	2684028	WORD	n/a	wordpools/wordpool_EN.txt	YARD	4	15	[0, 0, 0]	n/a	FR1	0	R1083J
1523.771	2.4	2686595	WORD	n/a	wordpools/wordpool_EN.txt	PEN	5	15	[0, 0, 0]	n/a	FR1	0	R1083J
1526.171	2.584	2688995	WORD	n/a	wordpools/wordpool_EN.txt	COUCH	6	15	[0, 0, 0]	n/a	FR1	0	R1083J
1528.755	2.567	2691579	WORD	n/a	wordpools/wordpool_EN.txt	TAIL	7	15	[0, 0, 0]	n/a	FR1	0	R1083J
1531.322	2.566	2694146	WORD	n/a	wordpools/wordpool_EN.txt	GATE	8	15	[0, 0, 0]	n/a	FR1	0	R1083J
1533.888	2.418	2696713	WORD	n/a	wordpools/wordpool_EN.txt	POOL	9	15	[0, 0, 0]	n/a	FR1	0	R1083J
1536.306	2.516	2699131	WORD	n/a	wordpools/wordpool_EN.txt	BAG	10	15	[0, 0, 0]	n/a	FR1	0	R1083J
1538.822	2.584	2701647	WORD	n/a	wordpools/wordpool_EN.txt	CUBE	11	15	[0, 0, 0]	n/a	FR1	0	R1083J
1541.406	1.616	2704231	WORD	n/a	wordpools/wordpool_EN.txt	ROOM	12	15	[0, 0, 0]	n/a	FR1	0	R1083J
1543.022	0.001	2705847	DISTRACT_START	n/a	n/a	n/a	-999	15	[0, 0, 0]	n/a	FR1	0	R1083J
1543.023	0.016	2705848	START	n/a	n/a	n/a	-999	15	[-999, -999, -999]	n/a	FR1	0	R1083J
1543.039	4.585	2705864	PROB	4.585	n/a	n/a	-999	15	[2, 3, 1]	6	FR1	0	R1083J
1547.624	2.616	2710449	PROB	2.616	n/a	n/a	-999	15	[2, 1, 8]	11	FR1	0	R1083J
1550.24	2.217	2713065	PROB	2.217	n/a	n/a	-999	15	[1, 9, 3]	13	FR1	0	R1083J
1552.457	2.318	2715282	PROB	2.318	n/a	n/a	-999	15	[5, 6, 3]	14	FR1	0	R1083J
1554.775	2.533	2717600	PROB	2.533	n/a	n/a	-999	15	[4, 3, 1]	8	FR1	0	R1083J
1557.308	4.284	2720133	PROB	4.284	n/a	n/a	-999	15	[2, 8, 1]	11	FR1	0	R1083J
1561.592	3.222	2724417	PROB	3.222	n/a	n/a	-999	15	[1, 4, 2]	7	FR1	0	R1083J
1564.814	0.011	2727639	STOP	n/a	n/a	n/a	-999	15	[-999, -999, -999]	n/a	FR1	0	R1083J
1564.825	1.101	2727650	DISTRACT_END	n/a	n/a	n/a	-999	15	[0, 0, 0]	n/a	FR1	0	R1083J
1565.926	3.873	2728751	REC_START	n/a	n/a	n/a	-999	15	[0, 0, 0]	n/a	FR1	0	R1083J
1569.799	2.537	2732624	REC_WORD	2.537	n/a	COAT	-999	15	[0, 0, 0]	n/a	FR1	0	R1083J
1572.336	3.479	2735161	REC_WORD	3.479	n/a	THUMB	-999	15	[0, 0, 0]	n/a	FR1	0	R1083J
1575.815	3.938	2738640	REC_WORD	3.938	n/a	FROZE	-999	15	[0, 0, 0]	n/a	FR1	0	R1083J
1579.753	3.355	2742578	REC_WORD	3.355	n/a	LAMB	-999	15	[0, 0, 0]	n/a	FR1	0	R1083J
1583.108	2.91	2745933	REC_WORD	2.91	n/a	FENCE	-999	15	[0, 0, 0]	n/a	FR1	0	R1083J
1586.018	9.918	2748843	REC_WORD	9.918	n/a	GATE	-999	15	[0, 0, 0]	n/a	FR1	0	R1083J
1595.936	2.344	2758761	REC_END	n/a	n/a	n/a	-999	15	[0, 0, 0]	n/a	FR1	0	R1083J
1598.28	0.0	2761105	COUNTDOWN_START	n/a	n/a	n/a	-999	16	[0, 0, 0]	n/a	FR1	0	R1083J
1598.28	10.428	2761105	TRIAL	n/a	n/a	n/a	-999	16	[0, 0, 0]	n/a	FR1	0	R1083J
1608.708	0.007	2771533	COUNTDOWN_END	n/a	n/a	n/a	-999	16	[0, 0, 0]	n/a	FR1	0	R1083J
1608.715	2.566	2771540	ORIENT	n/a	n/a	n/a	-999	16	[0, 0, 0]	n/a	FR1	0	R1083J
1611.281	2.467	2774106	WORD	n/a	wordpools/wordpool_EN.txt	DESK	1	16	[0, 0, 0]	n/a	FR1	0	R1083J
1613.748	2.4	2776573	WORD	n/a	wordpools/wordpool_EN.txt	BREAD	2	16	[0, 0, 0]	n/a	FR1	0	R1083J
1616.148	2.485	2778973	WORD	n/a	wordpools/wordpool_EN.txt	WORLD	3	16	[0, 0, 0]	n/a	FR1	0	R1083J
1618.633	2.599	2781458	WORD	n/a	wordpools/wordpool_EN.txt	BENCH	4	16	[0, 0, 0]	n/a	FR1	0	R1083J
1621.232	2.501	2784057	WORD	n/a	wordpools/wordpool_EN.txt	STOOL	5	16	[0, 0, 0]	n/a	FR1	0	R1083J
1623.733	2.5	2786558	WORD	n/a	wordpools/wordpool_EN.txt	MOUTH	6	16	[0, 0, 0]	n/a	FR1	0	R1083J
1626.233	2.6	2789058	WORD	n/a	wordpools/wordpool_EN.txt	SKUNK	7	16	[0, 0, 0]	n/a	FR1	0	R1083J
1628.833	2.534	2791658	WORD	n/a	wordpools/wordpool_EN.txt	RAT	8	16	[0, 0, 0]	n/a	FR1	0	R1083J
1631.367	2.433	2794192	WORD	n/a	wordpools/wordpool_EN.txt	BUSH	9	16	[0, 0, 0]	n/a	FR1	0	R1083J
1633.8	2.585	2796625	WORD	n/a	wordpools/wordpool_EN.txt	SINK	10	16	[0, 0, 0]	n/a	FR1	0	R1083J
1636.385	2.482	2799210	WORD	n/a	wordpools/wordpool_EN.txt	BROOM	11	16	[0, 0, 0]	n/a	FR1	0	R1083J
1638.867	1.618	2801692	WORD	n/a	wordpools/wordpool_EN.txt	VASE	12	16	[0, 0, 0]	n/a	FR1	0	R1083J
1640.485	0.001	2803310	DISTRACT_START	n/a	n/a	n/a	-999	16	[0, 0, 0]	n/a	FR1	0	R1083J
1640.486	0.015	2803311	START	n/a	n/a	n/a	-999	16	[-999, -999, -999]	n/a	FR1	0	R1083J
1640.501	4.034	2803326	PROB	4.034	n/a	n/a	-999	16	[8, 9, 7]	24	FR1	0	R1083J
1644.535	3.668	2807360	PROB	3.668	n/a	n/a	-999	16	[8, 4, 2]	14	FR1	0	R1083J
1648.203	3.116	2811028	PROB	3.116	n/a	n/a	-999	16	[2, 5, 3]	10	FR1	0	R1083J
1651.319	3.084	2814144	PROB	3.084	n/a	n/a	-999	16	[9, 8, 2]	19	FR1	0	R1083J
1654.403	3.051	2817228	PROB	3.051	n/a	n/a	-999	16	[9, 5, 2]	16	FR1	0	R1083J
1657.454	2.9	2820279	PROB	2.9	n/a	n/a	-999	16	[9, 7, 8]	24	FR1	0	R1083J
1660.354	2.791	2823179	PROB	2.791	n/a	n/a	-999	16	[5, 8, 6]	19	FR1	0	R1083J
1663.145	0.008	2825970	STOP	n/a	n/a	n/a	-999	16	[-999, -999, -999]	n/a	FR1	0	R1083J
1663.153	1.219	2825978	DISTRACT_END	n/a	n/a	n/a	-999	16	[0, 0, 0]	n/a	FR1	0	R1083J
1664.372	2.524	2827197	REC_START	n/a	n/a	n/a	-999	16	[0, 0, 0]	n/a	FR1	0	R1083J
1666.896	1.232	2829721	REC_WORD	1.232	n/a	ART	-999	16	[0, 0, 0]	n/a	FR1	0	R1083J
1668.128	1.236	2830953	REC_WORD_VV	1.236	n/a	<>	-999	16	[0, 0, 0]	n/a	FR1	0	R1083J
1669.364	2.827	2832189	REC_WORD	2.827	n/a	BENCH	-999	16	[0, 0, 0]	n/a	FR1	0	R1083J
1672.191	5.793	2835016	REC_WORD	5.793	n/a	VASE	-999	16	[0, 0, 0]	n/a	FR1	0	R1083J
1677.984	2.25	2840809	REC_WORD_VV	2.25	n/a	<>	-999	16	[0, 0, 0]	n/a	FR1	0	R1083J
1680.234	2.567	2843059	REC_WORD	2.567	n/a	COOK	-999	16	[0, 0, 0]	n/a	FR1	0	R1083J
1682.801	5.255	2845626	REC_WORD	5.255	n/a	JAR	-999	16	[0, 0, 0]	n/a	FR1	0	R1083J
1688.056	2.149	2850881	REC_WORD	2.149	n/a	LAMP	-999	16	[0, 0, 0]	n/a	FR1	0	R1083J
1690.205	4.177	2853030	REC_WORD	4.177	n/a	SKUNK	-999	16	[0, 0, 0]	n/a	FR1	0	R1083J
1694.382	12.66	2857207	REC_END	n/a	n/a	n/a	-999	16	[0, 0, 0]	n/a	FR1	0	R1083J
1707.042	0.0	2869867	TRIAL	n/a	n/a	n/a	-999	17	[0, 0, 0]	n/a	FR1	0	R1083J
1707.042	0.0	2869867	COUNTDOWN_START	n/a	n/a	n/a	-999	17	[0, 0, 0]	n/a	FR1	0	R1083J
