onset	duration	sample	trial_type	response_time	stim_file	item_name	serialpos	list	test	answer	experiment	session	subject
0.0	1036.76	1659	INSTRUCT_START	n/a	n/a	n/a	-999	-999	[0, 0, 0]	n/a	FR1	3	R1293P
1036.76	5.6	1038365	INSTRUCT_END	n/a	n/a	n/a	-999	-999	[0, 0, 0]	n/a	FR1	3	R1293P
1042.36	14.189	1043965	MIC TEST_START	n/a	n/a	n/a	-999	-999	[0, 0, 0]	n/a	FR1	3	R1293P
1056.549	0.011	1058153	MIC TEST_END	n/a	n/a	n/a	-999	-999	[0, 0, 0]	n/a	FR1	3	R1293P
1056.56	0.0	1058164	TRIAL_START	n/a	n/a	n/a	-999	-1	[0, 0, 0]	n/a	FR1	3	R1293P
1056.56	0.001	1058164	TRIAL	n/a	n/a	n/a	-999	-1	[0, 0, 0]	n/a	FR1	3	R1293P
1056.561	3.07	1058165	WAITING_START	n/a	n/a	n/a	-999	-1	[0, 0, 0]	n/a	FR1	3	R1293P
1059.631	0.0	1061235	COUNTDOWN_START	n/a	n/a	n/a	-999	-1	[0, 0, 0]	n/a	FR1	3	R1293P
1059.631	10.43	1061235	WAITING_END	n/a	n/a	n/a	-999	-1	[0, 0, 0]	n/a	FR1	3	R1293P
1070.061	0.001	1071664	COUNTDOWN_END	n/a	n/a	n/a	-999	-1	[0, 0, 0]	n/a	FR1	3	R1293P
1070.062	1.17	1071665	ORIENT_START	n/a	n/a	n/a	-999	-1	[0, 0, 0]	n/a	FR1	3	R1293P
1071.232	0.001	1072835	ORIENT_END	n/a	n/a	n/a	-999	-1	[0, 0, 0]	n/a	FR1	3	R1293P
1071.233	1.059	1072836	ENCODING_START	n/a	n/a	n/a	-999	-1	[0, 0, 0]	n/a	FR1	3	R1293P
1072.292	1.625	1073895	WORD	n/a	n/a	ATTIC	1	-1	[0, 0, 0]	n/a	FR1	3	R1293P
1073.917	0.999	1075520	WORD_OFF	n/a	n/a	ATTIC	1	-1	[0, 0, 0]	n/a	FR1	3	R1293P
1074.916	1.634	1076519	WORD	n/a	n/a	BEAM	2	-1	[0, 0, 0]	n/a	FR1	3	R1293P
1076.55	1.05	1078153	WORD_OFF	n/a	n/a	BEAM	2	-1	[0, 0, 0]	n/a	FR1	3	R1293P
1077.6	1.634	1079203	WORD	n/a	n/a	CAMEL	3	-1	[0, 0, 0]	n/a	FR1	3	R1293P
1079.234	0.888	1080837	WORD_OFF	n/a	n/a	CAMEL	3	-1	[0, 0, 0]	n/a	FR1	3	R1293P
1080.122	1.629	1081725	WORD	n/a	n/a	CHEST	4	-1	[0, 0, 0]	n/a	FR1	3	R1293P
1081.751	0.953	1083354	WORD_OFF	n/a	n/a	CHEST	4	-1	[0, 0, 0]	n/a	FR1	3	R1293P
1082.704	1.631	1084307	WORD	n/a	n/a	COTTON	5	-1	[0, 0, 0]	n/a	FR1	3	R1293P
1084.335	1.009	1085938	WORD_OFF	n/a	n/a	COTTON	5	-1	[0, 0, 0]	n/a	FR1	3	R1293P
1085.344	1.626	1086946	WORD	n/a	n/a	FLOOD	6	-1	[0, 0, 0]	n/a	FR1	3	R1293P
1086.97	0.937	1088572	WORD_OFF	n/a	n/a	FLOOD	6	-1	[0, 0, 0]	n/a	FR1	3	R1293P
1087.907	1.629	1089509	WORD	n/a	n/a	IRON	7	-1	[0, 0, 0]	n/a	FR1	3	R1293P
1089.536	1.101	1091138	WORD_OFF	n/a	n/a	IRON	7	-1	[0, 0, 0]	n/a	FR1	3	R1293P
1090.637	1.633	1092239	WORD	n/a	n/a	RHINO	8	-1	[0, 0, 0]	n/a	FR1	3	R1293P
1092.27	0.832	1093872	WORD_OFF	n/a	n/a	RHINO	8	-1	[0, 0, 0]	n/a	FR1	3	R1293P
1093.102	1.618	1094704	WORD	n/a	n/a	RING	9	-1	[0, 0, 0]	n/a	FR1	3	R1293P
1094.72	0.965	1096322	WORD_OFF	n/a	n/a	RING	9	-1	[0, 0, 0]	n/a	FR1	3	R1293P
1095.685	1.636	1097287	WORD	n/a	n/a	TONGUE	10	-1	[0, 0, 0]	n/a	FR1	3	R1293P
1097.321	1.062	1098923	WORD_OFF	n/a	n/a	TONGUE	10	-1	[0, 0, 0]	n/a	FR1	3	R1293P
1098.383	1.622	1099985	WORD	n/a	n/a	WAGON	11	-1	[0, 0, 0]	n/a	FR1	3	R1293P
1100.005	1.052	1101607	WORD_OFF	n/a	n/a	WAGON	11	-1	[0, 0, 0]	n/a	FR1	3	R1293P
1101.057	1.631	1102659	WORD	n/a	n/a	WATCH	12	-1	[0, 0, 0]	n/a	FR1	3	R1293P
1102.688	0.001	1104290	WORD_OFF	n/a	n/a	WATCH	12	-1	[0, 0, 0]	n/a	FR1	3	R1293P
1102.689	0.001	1104291	ENCODING_END	n/a	n/a	n/a	-999	-1	[0, 0, 0]	n/a	FR1	3	R1293P
1102.69	0.0	1104292	DISTRACT_START	n/a	n/a	n/a	-999	-1	[0, 0, 0]	n/a	FR1	3	R1293P
1102.69	0.015	1104292	START	n/a	n/a	n/a	-999	-1	[-999, -999, -999]	n/a	FR1	3	R1293P
1102.705	4.834	1104307	PROB	4.834	n/a	n/a	-999	-1	[1, 6, 3]	10	FR1	3	R1293P
1107.539	3.167	1109140	PROB	3.167	n/a	n/a	-999	-1	[1, 1, 4]	6	FR1	3	R1293P
1110.706	4.302	1112307	PROB	4.302	n/a	n/a	-999	-1	[3, 5, 9]	17	FR1	3	R1293P
1115.008	2.851	1116609	PROB	2.851	n/a	n/a	-999	-1	[6, 3, 4]	13	FR1	3	R1293P
1117.859	3.566	1119460	PROB	3.566	n/a	n/a	-999	-1	[9, 3, 3]	15	FR1	3	R1293P
1121.425	3.291	1123026	PROB	3.291	n/a	n/a	-999	-1	[6, 9, 4]	19	FR1	3	R1293P
1124.716	0.01	1126316	STOP	n/a	n/a	n/a	-999	-1	[-999, -999, -999]	n/a	FR1	3	R1293P
1124.726	0.565	1126326	DISTRACT_END	n/a	n/a	n/a	-999	-1	[0, 0, 0]	n/a	FR1	3	R1293P
1125.291	1.619	1126891	RETRIEVAL_ORIENT_START	n/a	n/a	n/a	-999	-1	[0, 0, 0]	n/a	FR1	3	R1293P
1126.91	0.001	1128510	RETRIEVAL_ORIENT_END	n/a	n/a	n/a	-999	-1	[0, 0, 0]	n/a	FR1	3	R1293P
1126.911	2.445	1128511	REC_START	n/a	n/a	n/a	-999	-1	[0, 0, 0]	n/a	FR1	3	R1293P
1129.356	0.529	1130956	REC_WORD	0.529	n/a	ATTIC	-999	-1	[0, 0, 0]	n/a	FR1	3	R1293P
1129.885	0.56	1131485	REC_WORD	0.56	n/a	BEAN	-999	-1	[0, 0, 0]	n/a	FR1	3	R1293P
1130.445	1.94	1132045	REC_WORD	1.94	n/a	CHEST	-999	-1	[0, 0, 0]	n/a	FR1	3	R1293P
1132.385	0.995	1133985	REC_WORD	0.995	n/a	FLOOD	-999	-1	[0, 0, 0]	n/a	FR1	3	R1293P
1133.38	3.085	1134980	REC_WORD	3.085	n/a	RHINO	-999	-1	[0, 0, 0]	n/a	FR1	3	R1293P
1136.465	1.47	1138065	REC_WORD	1.47	n/a	COTTON	-999	-1	[0, 0, 0]	n/a	FR1	3	R1293P
1137.935	15.76	1139535	REC_WORD	15.76	n/a	LOOP	-999	-1	[0, 0, 0]	n/a	FR1	3	R1293P
1153.695	3.227	1155294	REC_WORD	3.227	n/a	CANON	-999	-1	[0, 0, 0]	n/a	FR1	3	R1293P
1156.922	0.001	1158521	REC_END	n/a	n/a	n/a	-999	-1	[0, 0, 0]	n/a	FR1	3	R1293P
1156.923	19.28	1158522	PRACTICE_POST_INSTRUCT_START	n/a	n/a	n/a	-999	-1	[0, 0, 0]	n/a	FR1	3	R1293P
1176.203	0.001	1177801	PRACTICE_POST_INSTRUCT_END	n/a	n/a	n/a	-999	-1	[0, 0, 0]	n/a	FR1	3	R1293P
1176.204	0.017	1177802	TRIAL_END	n/a	n/a	n/a	-999	-1	[0, 0, 0]	n/a	FR1	3	R1293P
1176.221	0.001	1177819	TRIAL_START	n/a	n/a	n/a	-999	1	[0, 0, 0]	n/a	FR1	3	R1293P
1176.222	0.0	1177820	WAITING_START	n/a	n/a	n/a	-999	1	[0, 0, 0]	n/a	FR1	3	R1293P
1176.222	2.547	1177820	TRIAL	n/a	n/a	n/a	-999	1	[0, 0, 0]	n/a	FR1	3	R1293P
1178.769	0.001	1180367	WAITING_END	n/a	n/a	n/a	-999	1	[0, 0, 0]	n/a	FR1	3	R1293P
1178.77	10.43	1180368	COUNTDOWN_START	n/a	n/a	n/a	-999	1	[0, 0, 0]	n/a	FR1	3	R1293P
1189.2	0.001	1190797	COUNTDOWN_END	n/a	n/a	n/a	-999	1	[0, 0, 0]	n/a	FR1	3	R1293P
1189.201	1.204	1190798	ORIENT_START	n/a	n/a	n/a	-999	1	[0, 0, 0]	n/a	FR1	3	R1293P
1190.405	0.001	1192002	ORIENT_END	n/a	n/a	n/a	-999	1	[0, 0, 0]	n/a	FR1	3	R1293P
1190.406	0.781	1192003	ENCODING_START	n/a	n/a	n/a	-999	1	[0, 0, 0]	n/a	FR1	3	R1293P
1191.187	1.635	1192784	WORD	n/a	n/a	TANK	1	1	[0, 0, 0]	n/a	FR1	3	R1293P
1192.822	0.997	1194419	WORD_OFF	n/a	n/a	TANK	1	1	[0, 0, 0]	n/a	FR1	3	R1293P
1193.819	1.637	1195416	WORD	n/a	n/a	CAGE	2	1	[0, 0, 0]	n/a	FR1	3	R1293P
1195.456	0.901	1197053	WORD_OFF	n/a	n/a	CAGE	2	1	[0, 0, 0]	n/a	FR1	3	R1293P
1196.357	1.634	1197954	WORD	n/a	n/a	DOLL	3	1	[0, 0, 0]	n/a	FR1	3	R1293P
1197.991	1.059	1199588	WORD_OFF	n/a	n/a	DOLL	3	1	[0, 0, 0]	n/a	FR1	3	R1293P
1199.05	1.623	1200647	WORD	n/a	n/a	TREE	4	1	[0, 0, 0]	n/a	FR1	3	R1293P
1200.673	0.996	1202269	WORD_OFF	n/a	n/a	TREE	4	1	[0, 0, 0]	n/a	FR1	3	R1293P
1201.669	1.638	1203265	WORD	n/a	n/a	CORN	5	1	[0, 0, 0]	n/a	FR1	3	R1293P
1203.307	1.113	1204903	WORD_OFF	n/a	n/a	CORN	5	1	[0, 0, 0]	n/a	FR1	3	R1293P
1204.42	1.639	1206016	WORD	n/a	n/a	STOVE	6	1	[0, 0, 0]	n/a	FR1	3	R1293P
1206.059	0.93	1207655	WORD_OFF	n/a	n/a	STOVE	6	1	[0, 0, 0]	n/a	FR1	3	R1293P
1206.989	1.636	1208585	WORD	n/a	n/a	WEB	7	1	[0, 0, 0]	n/a	FR1	3	R1293P
1208.625	0.99	1210221	WORD_OFF	n/a	n/a	WEB	7	1	[0, 0, 0]	n/a	FR1	3	R1293P
1209.615	1.627	1211211	WORD	n/a	n/a	CHEEK	8	1	[0, 0, 0]	n/a	FR1	3	R1293P
1211.242	0.912	1212838	WORD_OFF	n/a	n/a	CHEEK	8	1	[0, 0, 0]	n/a	FR1	3	R1293P
1212.154	1.639	1213750	WORD	n/a	n/a	THUMB	9	1	[0, 0, 0]	n/a	FR1	3	R1293P
1213.793	0.809	1215389	WORD_OFF	n/a	n/a	THUMB	9	1	[0, 0, 0]	n/a	FR1	3	R1293P
1214.602	1.624	1216198	WORD	n/a	n/a	MUD	10	1	[0, 0, 0]	n/a	FR1	3	R1293P
1216.226	0.827	1217822	WORD_OFF	n/a	n/a	MUD	10	1	[0, 0, 0]	n/a	FR1	3	R1293P
1217.053	1.624	1218649	WORD	n/a	n/a	BRIDGE	11	1	[0, 0, 0]	n/a	FR1	3	R1293P
1218.677	0.773	1220273	WORD_OFF	n/a	n/a	BRIDGE	11	1	[0, 0, 0]	n/a	FR1	3	R1293P
1219.45	1.628	1221046	WORD	n/a	n/a	HAWK	12	1	[0, 0, 0]	n/a	FR1	3	R1293P
1221.078	0.001	1222673	WORD_OFF	n/a	n/a	HAWK	12	1	[0, 0, 0]	n/a	FR1	3	R1293P
1221.079	0.001	1222674	ENCODING_END	n/a	n/a	n/a	-999	1	[0, 0, 0]	n/a	FR1	3	R1293P
1221.08	0.001	1222675	DISTRACT_START	n/a	n/a	n/a	-999	1	[0, 0, 0]	n/a	FR1	3	R1293P
1221.081	0.014	1222676	START	n/a	n/a	n/a	-999	1	[-999, -999, -999]	n/a	FR1	3	R1293P
1221.095	3.867	1222690	PROB	3.867	n/a	n/a	-999	1	[2, 8, 4]	14	FR1	3	R1293P
1224.962	3.4	1226557	PROB	3.4	n/a	n/a	-999	1	[9, 2, 8]	19	FR1	3	R1293P
1228.362	2.585	1229957	PROB	2.585	n/a	n/a	-999	1	[4, 9, 1]	14	FR1	3	R1293P
1230.947	2.882	1232542	PROB	2.882	n/a	n/a	-999	1	[4, 7, 8]	19	FR1	3	R1293P
1233.829	2.401	1235424	PROB	2.401	n/a	n/a	-999	1	[1, 7, 1]	9	FR1	3	R1293P
1236.23	2.868	1237825	PROB	2.868	n/a	n/a	-999	1	[6, 2, 7]	15	FR1	3	R1293P
1239.098	3.145	1240693	PROB	3.145	n/a	n/a	-999	1	[2, 2, 7]	11	FR1	3	R1293P
1242.243	0.022	1243837	STOP	n/a	n/a	n/a	-999	1	[-999, -999, -999]	n/a	FR1	3	R1293P
1242.265	0.693	1243859	DISTRACT_END	n/a	n/a	n/a	-999	1	[0, 0, 0]	n/a	FR1	3	R1293P
1242.958	1.54	1244552	RETRIEVAL_ORIENT_START	n/a	n/a	n/a	-999	1	[0, 0, 0]	n/a	FR1	3	R1293P
1244.498	0.001	1246092	RETRIEVAL_ORIENT_END	n/a	n/a	n/a	-999	1	[0, 0, 0]	n/a	FR1	3	R1293P
1244.499	2.335	1246093	REC_START	n/a	n/a	n/a	-999	1	[0, 0, 0]	n/a	FR1	3	R1293P
1246.834	0.745	1248428	REC_WORD	0.745	n/a	DOLL	3	1	[0, 0, 0]	n/a	FR1	3	R1293P
1247.579	0.859	1249173	REC_WORD	0.859	n/a	CAGE	2	1	[0, 0, 0]	n/a	FR1	3	R1293P
1248.438	3.065	1250032	REC_WORD	3.065	n/a	TANK	1	1	[0, 0, 0]	n/a	FR1	3	R1293P
1251.503	1.385	1253097	REC_WORD	1.385	n/a	CORN	5	1	[0, 0, 0]	n/a	FR1	3	R1293P
1252.888	1.79	1254482	REC_WORD	1.79	n/a	TREE	4	1	[0, 0, 0]	n/a	FR1	3	R1293P
1254.678	2.115	1256272	REC_WORD	2.115	n/a	CHEEK	8	1	[0, 0, 0]	n/a	FR1	3	R1293P
1256.793	15.455	1258387	REC_WORD	15.455	n/a	THUMB	9	1	[0, 0, 0]	n/a	FR1	3	R1293P
1272.248	0.935	1273841	REC_WORD	0.935	n/a	HAWK	12	1	[0, 0, 0]	n/a	FR1	3	R1293P
1273.183	1.329	1274776	REC_WORD	1.329	n/a	BRIDGE	11	1	[0, 0, 0]	n/a	FR1	3	R1293P
1274.512	0.001	1276105	REC_END	n/a	n/a	n/a	-999	1	[0, 0, 0]	n/a	FR1	3	R1293P
1274.513	0.014	1276106	TRIAL_END	n/a	n/a	n/a	-999	1	[0, 0, 0]	n/a	FR1	3	R1293P
1274.527	0.0	1276120	TRIAL_START	n/a	n/a	n/a	-999	2	[0, 0, 0]	n/a	FR1	3	R1293P
1274.527	0.0	1276120	TRIAL	n/a	n/a	n/a	-999	2	[0, 0, 0]	n/a	FR1	3	R1293P
1274.527	11.613	1276120	WAITING_START	n/a	n/a	n/a	-999	2	[0, 0, 0]	n/a	FR1	3	R1293P
1286.14	0.0	1287732	WAITING_END	n/a	n/a	n/a	-999	2	[0, 0, 0]	n/a	FR1	3	R1293P
1286.14	10.429	1287732	COUNTDOWN_START	n/a	n/a	n/a	-999	2	[0, 0, 0]	n/a	FR1	3	R1293P
1296.569	0.001	1298161	COUNTDOWN_END	n/a	n/a	n/a	-999	2	[0, 0, 0]	n/a	FR1	3	R1293P
1296.57	1.122	1298162	ORIENT_START	n/a	n/a	n/a	-999	2	[0, 0, 0]	n/a	FR1	3	R1293P
1297.692	0.0	1299283	ENCODING_START	n/a	n/a	n/a	-999	2	[0, 0, 0]	n/a	FR1	3	R1293P
1297.692	1.024	1299283	ORIENT_END	n/a	n/a	n/a	-999	2	[0, 0, 0]	n/a	FR1	3	R1293P
1298.716	1.626	1300307	WORD	n/a	n/a	EGG	1	2	[0, 0, 0]	n/a	FR1	3	R1293P
1300.342	0.878	1301933	WORD_OFF	n/a	n/a	EGG	1	2	[0, 0, 0]	n/a	FR1	3	R1293P
1301.22	1.624	1302811	WORD	n/a	n/a	GLOVE	2	2	[0, 0, 0]	n/a	FR1	3	R1293P
1302.844	0.863	1304435	WORD_OFF	n/a	n/a	GLOVE	2	2	[0, 0, 0]	n/a	FR1	3	R1293P
1303.707	1.636	1305298	WORD	n/a	n/a	ROOT	3	2	[0, 0, 0]	n/a	FR1	3	R1293P
1305.343	0.778	1306934	WORD_OFF	n/a	n/a	ROOT	3	2	[0, 0, 0]	n/a	FR1	3	R1293P
1306.121	1.639	1307712	WORD	n/a	n/a	TEETH	4	2	[0, 0, 0]	n/a	FR1	3	R1293P
1307.76	0.863	1309351	WORD_OFF	n/a	n/a	TEETH	4	2	[0, 0, 0]	n/a	FR1	3	R1293P
1308.623	1.638	1310214	WORD	n/a	n/a	CUBE	5	2	[0, 0, 0]	n/a	FR1	3	R1293P
1310.261	1.065	1311852	WORD_OFF	n/a	n/a	CUBE	5	2	[0, 0, 0]	n/a	FR1	3	R1293P
1311.326	1.636	1312917	WORD	n/a	n/a	BIRD	6	2	[0, 0, 0]	n/a	FR1	3	R1293P
1312.962	0.874	1314553	WORD_OFF	n/a	n/a	BIRD	6	2	[0, 0, 0]	n/a	FR1	3	R1293P
1313.836	1.626	1315427	WORD	n/a	n/a	WALL	7	2	[0, 0, 0]	n/a	FR1	3	R1293P
1315.462	0.797	1317053	WORD_OFF	n/a	n/a	WALL	7	2	[0, 0, 0]	n/a	FR1	3	R1293P
1316.259	1.637	1317850	WORD	n/a	n/a	MOOSE	8	2	[0, 0, 0]	n/a	FR1	3	R1293P
1317.896	0.911	1319486	WORD_OFF	n/a	n/a	MOOSE	8	2	[0, 0, 0]	n/a	FR1	3	R1293P
1318.807	1.639	1320397	WORD	n/a	n/a	PRINCE	9	2	[0, 0, 0]	n/a	FR1	3	R1293P
1320.446	0.88	1322036	WORD_OFF	n/a	n/a	PRINCE	9	2	[0, 0, 0]	n/a	FR1	3	R1293P
1321.326	1.621	1322916	WORD	n/a	n/a	TIE	10	2	[0, 0, 0]	n/a	FR1	3	R1293P
1322.947	0.884	1324537	WORD_OFF	n/a	n/a	TIE	10	2	[0, 0, 0]	n/a	FR1	3	R1293P
1323.831	1.633	1325421	WORD	n/a	n/a	DRESS	11	2	[0, 0, 0]	n/a	FR1	3	R1293P
1325.464	0.87	1327054	WORD_OFF	n/a	n/a	DRESS	11	2	[0, 0, 0]	n/a	FR1	3	R1293P
1326.334	1.631	1327924	WORD	n/a	n/a	BAND	12	2	[0, 0, 0]	n/a	FR1	3	R1293P
1327.965	0.001	1329555	WORD_OFF	n/a	n/a	BAND	12	2	[0, 0, 0]	n/a	FR1	3	R1293P
1327.966	0.0	1329556	ENCODING_END	n/a	n/a	n/a	-999	2	[0, 0, 0]	n/a	FR1	3	R1293P
1327.966	0.001	1329556	DISTRACT_START	n/a	n/a	n/a	-999	2	[0, 0, 0]	n/a	FR1	3	R1293P
1327.967	0.014	1329557	START	n/a	n/a	n/a	-999	2	[-999, -999, -999]	n/a	FR1	3	R1293P
1327.981	3.783	1329571	PROB	3.783	n/a	n/a	-999	2	[6, 4, 6]	16	FR1	3	R1293P
1331.764	3.384	1333354	PROB	3.384	n/a	n/a	-999	2	[8, 5, 5]	18	FR1	3	R1293P
1335.148	2.418	1336738	PROB	2.418	n/a	n/a	-999	2	[3, 9, 9]	21	FR1	3	R1293P
1337.566	3.767	1339155	PROB	3.767	n/a	n/a	-999	2	[5, 3, 9]	17	FR1	3	R1293P
1341.333	2.4	1342922	PROB	2.4	n/a	n/a	-999	2	[4, 5, 3]	12	FR1	3	R1293P
1343.733	2.968	1345322	PROB	2.968	n/a	n/a	-999	2	[9, 6, 9]	24	FR1	3	R1293P
1346.701	4.537	1348290	PROB	4.537	n/a	n/a	-999	2	[9, 3, 4]	16	FR1	3	R1293P
1351.238	0.014	1352827	STOP	n/a	n/a	n/a	-999	2	[-999, -999, -999]	n/a	FR1	3	R1293P
1351.252	0.583	1352841	DISTRACT_END	n/a	n/a	n/a	-999	2	[0, 0, 0]	n/a	FR1	3	R1293P
1351.835	1.617	1353424	RETRIEVAL_ORIENT_START	n/a	n/a	n/a	-999	2	[0, 0, 0]	n/a	FR1	3	R1293P
1353.452	0.001	1355041	RETRIEVAL_ORIENT_END	n/a	n/a	n/a	-999	2	[0, 0, 0]	n/a	FR1	3	R1293P
1353.453	4.219	1355042	REC_START	n/a	n/a	n/a	-999	2	[0, 0, 0]	n/a	FR1	3	R1293P
1357.672	0.511	1359260	REC_WORD	0.511	n/a	EGG	1	2	[0, 0, 0]	n/a	FR1	3	R1293P
1358.183	0.85	1359771	REC_WORD	0.85	n/a	GLOVE	2	2	[0, 0, 0]	n/a	FR1	3	R1293P
1359.033	0.85	1360621	REC_WORD	0.85	n/a	BIRD	6	2	[0, 0, 0]	n/a	FR1	3	R1293P
1359.883	0.896	1361471	REC_WORD	0.896	n/a	WALL	7	2	[0, 0, 0]	n/a	FR1	3	R1293P
1360.779	0.905	1362367	REC_WORD	0.905	n/a	MOOSE	8	2	[0, 0, 0]	n/a	FR1	3	R1293P
1361.684	1.584	1363272	REC_WORD	1.584	n/a	PRINCE	9	2	[0, 0, 0]	n/a	FR1	3	R1293P
1363.268	0.936	1364856	REC_WORD	0.936	n/a	TIE	10	2	[0, 0, 0]	n/a	FR1	3	R1293P
1364.204	7.79	1365792	REC_WORD	7.79	n/a	BAND	12	2	[0, 0, 0]	n/a	FR1	3	R1293P
1371.994	0.969	1373582	REC_WORD	0.969	n/a	TOOTH	-999	2	[0, 0, 0]	n/a	FR1	3	R1293P
1372.963	10.502	1374551	REC_WORD	10.502	n/a	ROOT	3	2	[0, 0, 0]	n/a	FR1	3	R1293P
1383.465	0.001	1385052	REC_END	n/a	n/a	n/a	-999	2	[0, 0, 0]	n/a	FR1	3	R1293P
1383.466	0.015	1385053	TRIAL_END	n/a	n/a	n/a	-999	2	[0, 0, 0]	n/a	FR1	3	R1293P
1383.481	0.001	1385068	TRIAL_START	n/a	n/a	n/a	-999	3	[0, 0, 0]	n/a	FR1	3	R1293P
1383.482	0.0	1385069	TRIAL	n/a	n/a	n/a	-999	3	[0, 0, 0]	n/a	FR1	3	R1293P
1383.482	12.945	1385069	WAITING_START	n/a	n/a	n/a	-999	3	[0, 0, 0]	n/a	FR1	3	R1293P
1396.427	0.001	1398013	WAITING_END	n/a	n/a	n/a	-999	3	[0, 0, 0]	n/a	FR1	3	R1293P
1396.428	10.428	1398014	COUNTDOWN_START	n/a	n/a	n/a	-999	3	[0, 0, 0]	n/a	FR1	3	R1293P
1406.856	0.001	1408442	COUNTDOWN_END	n/a	n/a	n/a	-999	3	[0, 0, 0]	n/a	FR1	3	R1293P
1406.857	1.156	1408443	ORIENT_START	n/a	n/a	n/a	-999	3	[0, 0, 0]	n/a	FR1	3	R1293P
1408.013	0.001	1409599	ORIENT_END	n/a	n/a	n/a	-999	3	[0, 0, 0]	n/a	FR1	3	R1293P
1408.014	0.965	1409600	ENCODING_START	n/a	n/a	n/a	-999	3	[0, 0, 0]	n/a	FR1	3	R1293P
1408.979	1.634	1410565	WORD	n/a	n/a	BOX	1	3	[0, 0, 0]	n/a	FR1	3	R1293P
1410.613	1.064	1412199	WORD_OFF	n/a	n/a	BOX	1	3	[0, 0, 0]	n/a	FR1	3	R1293P
1411.677	1.636	1413263	WORD	n/a	n/a	OWL	2	3	[0, 0, 0]	n/a	FR1	3	R1293P
1413.313	0.759	1414898	WORD_OFF	n/a	n/a	OWL	2	3	[0, 0, 0]	n/a	FR1	3	R1293P
1414.072	1.625	1415657	WORD	n/a	n/a	CRANE	3	3	[0, 0, 0]	n/a	FR1	3	R1293P
1415.697	1.075	1417282	WORD_OFF	n/a	n/a	CRANE	3	3	[0, 0, 0]	n/a	FR1	3	R1293P
1416.772	1.626	1418357	WORD	n/a	n/a	SOUP	4	3	[0, 0, 0]	n/a	FR1	3	R1293P
1418.398	0.812	1419983	WORD_OFF	n/a	n/a	SOUP	4	3	[0, 0, 0]	n/a	FR1	3	R1293P
1419.21	1.621	1420795	WORD	n/a	n/a	PALM	5	3	[0, 0, 0]	n/a	FR1	3	R1293P
1420.831	0.916	1422416	WORD_OFF	n/a	n/a	PALM	5	3	[0, 0, 0]	n/a	FR1	3	R1293P
1421.747	1.635	1423332	WORD	n/a	n/a	BEAR	6	3	[0, 0, 0]	n/a	FR1	3	R1293P
1423.382	0.948	1424967	WORD_OFF	n/a	n/a	BEAR	6	3	[0, 0, 0]	n/a	FR1	3	R1293P
1424.33	1.637	1425915	WORD	n/a	n/a	POND	7	3	[0, 0, 0]	n/a	FR1	3	R1293P
1425.967	1.047	1427552	WORD_OFF	n/a	n/a	POND	7	3	[0, 0, 0]	n/a	FR1	3	R1293P
1427.014	1.636	1428599	WORD	n/a	n/a	PEA	8	3	[0, 0, 0]	n/a	FR1	3	R1293P
1428.65	1.07	1430235	WORD_OFF	n/a	n/a	PEA	8	3	[0, 0, 0]	n/a	FR1	3	R1293P
1429.72	1.63	1431305	WORD	n/a	n/a	SHELL	9	3	[0, 0, 0]	n/a	FR1	3	R1293P
1431.35	1.001	1432935	WORD_OFF	n/a	n/a	SHELL	9	3	[0, 0, 0]	n/a	FR1	3	R1293P
1432.351	1.634	1433935	WORD	n/a	n/a	FILM	10	3	[0, 0, 0]	n/a	FR1	3	R1293P
1433.985	1.131	1435569	WORD_OFF	n/a	n/a	FILM	10	3	[0, 0, 0]	n/a	FR1	3	R1293P
1435.116	1.635	1436700	WORD	n/a	n/a	BANK	11	3	[0, 0, 0]	n/a	FR1	3	R1293P
1436.751	1.003	1438335	WORD_OFF	n/a	n/a	BANK	11	3	[0, 0, 0]	n/a	FR1	3	R1293P
1437.754	1.631	1439338	WORD	n/a	n/a	NAIL	12	3	[0, 0, 0]	n/a	FR1	3	R1293P
1439.385	0.001	1440969	WORD_OFF	n/a	n/a	NAIL	12	3	[0, 0, 0]	n/a	FR1	3	R1293P
1439.386	0.0	1440970	DISTRACT_START	n/a	n/a	n/a	-999	3	[0, 0, 0]	n/a	FR1	3	R1293P
1439.386	0.001	1440970	ENCODING_END	n/a	n/a	n/a	-999	3	[0, 0, 0]	n/a	FR1	3	R1293P
1439.387	0.014	1440971	START	n/a	n/a	n/a	-999	3	[-999, -999, -999]	n/a	FR1	3	R1293P
1439.401	5.418	1440985	PROB	5.418	n/a	n/a	-999	3	[7, 7, 9]	23	FR1	3	R1293P
1444.819	2.617	1446403	PROB	2.617	n/a	n/a	-999	3	[3, 2, 5]	10	FR1	3	R1293P
1447.436	2.851	1449020	PROB	2.851	n/a	n/a	-999	3	[7, 1, 4]	12	FR1	3	R1293P
1450.287	1.95	1451871	PROB	1.95	n/a	n/a	-999	3	[2, 8, 2]	12	FR1	3	R1293P
1452.237	2.317	1453820	PROB	2.317	n/a	n/a	-999	3	[9, 2, 1]	12	FR1	3	R1293P
1454.554	7.104	1456137	PROB	7.104	n/a	n/a	-999	3	[7, 9, 6]	22	FR1	3	R1293P
1461.658	0.015	1463241	STOP	n/a	n/a	n/a	-999	3	[-999, -999, -999]	n/a	FR1	3	R1293P
1461.673	0.637	1463256	DISTRACT_END	n/a	n/a	n/a	-999	3	[0, 0, 0]	n/a	FR1	3	R1293P
1462.31	1.581	1463893	RETRIEVAL_ORIENT_START	n/a	n/a	n/a	-999	3	[0, 0, 0]	n/a	FR1	3	R1293P
1463.891	0.0	1465474	RETRIEVAL_ORIENT_END	n/a	n/a	n/a	-999	3	[0, 0, 0]	n/a	FR1	3	R1293P
1463.891	3.025	1465474	REC_START	n/a	n/a	n/a	-999	3	[0, 0, 0]	n/a	FR1	3	R1293P
1466.916	0.569	1468499	REC_WORD	0.569	n/a	BOX	1	3	[0, 0, 0]	n/a	FR1	3	R1293P
1467.485	0.525	1469068	REC_WORD	0.525	n/a	OWL	2	3	[0, 0, 0]	n/a	FR1	3	R1293P
1468.01	0.89	1469593	REC_WORD	0.89	n/a	CRANE	3	3	[0, 0, 0]	n/a	FR1	3	R1293P
1468.9	2.345	1470483	REC_WORD	2.345	n/a	SOUP	4	3	[0, 0, 0]	n/a	FR1	3	R1293P
1471.245	0.715	1472827	REC_WORD	0.715	n/a	BEE	-999	3	[0, 0, 0]	n/a	FR1	3	R1293P
1471.96	0.95	1473542	REC_WORD	0.95	n/a	SHELL	9	3	[0, 0, 0]	n/a	FR1	3	R1293P
1472.91	0.97	1474492	REC_WORD	0.97	n/a	BANK	11	3	[0, 0, 0]	n/a	FR1	3	R1293P
1473.88	2.79	1475462	REC_WORD	2.79	n/a	NAIL	12	3	[0, 0, 0]	n/a	FR1	3	R1293P
1476.67	0.851	1478252	REC_WORD	0.851	n/a	BOMB	-999	3	[0, 0, 0]	n/a	FR1	3	R1293P
1477.521	9.95	1479103	REC_WORD	9.95	n/a	BEAR	6	3	[0, 0, 0]	n/a	FR1	3	R1293P
1487.471	6.433	1489053	REC_WORD	6.433	n/a	BEACH	-999	3	[0, 0, 0]	n/a	FR1	3	R1293P
1493.904	0.0	1495485	REC_END	n/a	n/a	n/a	-999	3	[0, 0, 0]	n/a	FR1	3	R1293P
1493.904	0.014	1495485	TRIAL_END	n/a	n/a	n/a	-999	3	[0, 0, 0]	n/a	FR1	3	R1293P
1493.918	0.001	1495499	TRIAL_START	n/a	n/a	n/a	-999	4	[0, 0, 0]	n/a	FR1	3	R1293P
1493.919	0.0	1495500	TRIAL	n/a	n/a	n/a	-999	4	[0, 0, 0]	n/a	FR1	3	R1293P
1493.919	4.661	1495500	WAITING_START	n/a	n/a	n/a	-999	4	[0, 0, 0]	n/a	FR1	3	R1293P
1498.58	0.0	1500161	WAITING_END	n/a	n/a	n/a	-999	4	[0, 0, 0]	n/a	FR1	3	R1293P
1498.58	10.43	1500161	COUNTDOWN_START	n/a	n/a	n/a	-999	4	[0, 0, 0]	n/a	FR1	3	R1293P
1509.01	0.0	1510591	COUNTDOWN_END	n/a	n/a	n/a	-999	4	[0, 0, 0]	n/a	FR1	3	R1293P
1509.01	1.255	1510591	ORIENT_START	n/a	n/a	n/a	-999	4	[0, 0, 0]	n/a	FR1	3	R1293P
1510.265	0.001	1511845	ORIENT_END	n/a	n/a	n/a	-999	4	[0, 0, 0]	n/a	FR1	3	R1293P
1510.266	1.086	1511846	ENCODING_START	n/a	n/a	n/a	-999	4	[0, 0, 0]	n/a	FR1	3	R1293P
1511.352	1.615	1512932	WORD	n/a	n/a	BOARD	1	4	[0, 0, 0]	n/a	FR1	3	R1293P
1512.967	1.139	1514547	WORD_OFF	n/a	n/a	BOARD	1	4	[0, 0, 0]	n/a	FR1	3	R1293P
1514.106	1.627	1515686	WORD	n/a	n/a	FRUIT	2	4	[0, 0, 0]	n/a	FR1	3	R1293P
1515.733	1.118	1517313	WORD_OFF	n/a	n/a	FRUIT	2	4	[0, 0, 0]	n/a	FR1	3	R1293P
1516.851	1.632	1518431	WORD	n/a	n/a	CANE	3	4	[0, 0, 0]	n/a	FR1	3	R1293P
1518.483	0.941	1520063	WORD_OFF	n/a	n/a	CANE	3	4	[0, 0, 0]	n/a	FR1	3	R1293P
1519.424	1.627	1521004	WORD	n/a	n/a	HOOF	4	4	[0, 0, 0]	n/a	FR1	3	R1293P
1521.051	1.107	1522631	WORD_OFF	n/a	n/a	HOOF	4	4	[0, 0, 0]	n/a	FR1	3	R1293P
1522.158	1.626	1523738	WORD	n/a	n/a	CHIEF	5	4	[0, 0, 0]	n/a	FR1	3	R1293P
1523.784	1.137	1525364	WORD_OFF	n/a	n/a	CHIEF	5	4	[0, 0, 0]	n/a	FR1	3	R1293P
1524.921	1.63	1526501	WORD	n/a	n/a	VASE	6	4	[0, 0, 0]	n/a	FR1	3	R1293P
1526.551	1.022	1528131	WORD_OFF	n/a	n/a	VASE	6	4	[0, 0, 0]	n/a	FR1	3	R1293P
1527.573	1.629	1529153	WORD	n/a	n/a	FOAM	7	4	[0, 0, 0]	n/a	FR1	3	R1293P
1529.202	0.824	1530781	WORD_OFF	n/a	n/a	FOAM	7	4	[0, 0, 0]	n/a	FR1	3	R1293P
1530.026	1.626	1531605	WORD	n/a	n/a	WAVE	8	4	[0, 0, 0]	n/a	FR1	3	R1293P
1531.652	0.805	1533231	WORD_OFF	n/a	n/a	WAVE	8	4	[0, 0, 0]	n/a	FR1	3	R1293P
1532.457	1.614	1534036	WORD	n/a	n/a	SMOKE	9	4	[0, 0, 0]	n/a	FR1	3	R1293P
1534.071	1.144	1535650	WORD_OFF	n/a	n/a	SMOKE	9	4	[0, 0, 0]	n/a	FR1	3	R1293P
1535.215	1.622	1536794	WORD	n/a	n/a	FOOT	10	4	[0, 0, 0]	n/a	FR1	3	R1293P
1536.837	0.879	1538416	WORD_OFF	n/a	n/a	FOOT	10	4	[0, 0, 0]	n/a	FR1	3	R1293P
1537.716	1.621	1539295	WORD	n/a	n/a	JET	11	4	[0, 0, 0]	n/a	FR1	3	R1293P
1539.337	0.899	1540916	WORD_OFF	n/a	n/a	JET	11	4	[0, 0, 0]	n/a	FR1	3	R1293P
1540.236	1.636	1541815	WORD	n/a	n/a	NOSE	12	4	[0, 0, 0]	n/a	FR1	3	R1293P
1541.872	0.001	1543451	WORD_OFF	n/a	n/a	NOSE	12	4	[0, 0, 0]	n/a	FR1	3	R1293P
1541.873	0.001	1543452	ENCODING_END	n/a	n/a	n/a	-999	4	[0, 0, 0]	n/a	FR1	3	R1293P
1541.874	0.0	1543453	DISTRACT_START	n/a	n/a	n/a	-999	4	[0, 0, 0]	n/a	FR1	3	R1293P
1541.874	0.014	1543453	START	n/a	n/a	n/a	-999	4	[-999, -999, -999]	n/a	FR1	3	R1293P
1541.888	4.218	1543467	PROB	4.218	n/a	n/a	-999	4	[2, 1, 4]	7	FR1	3	R1293P
1546.106	3.483	1547685	PROB	3.483	n/a	n/a	-999	4	[4, 2, 9]	15	FR1	3	R1293P
1549.589	2.1	1551167	PROB	2.1	n/a	n/a	-999	4	[5, 1, 1]	7	FR1	3	R1293P
1551.689	3.968	1553267	PROB	3.968	n/a	n/a	-999	4	[8, 7, 9]	24	FR1	3	R1293P
1555.657	3.335	1557235	PROB	3.335	n/a	n/a	-999	4	[8, 3, 6]	17	FR1	3	R1293P
1558.992	3.05	1560570	PROB	3.05	n/a	n/a	-999	4	[5, 4, 5]	14	FR1	3	R1293P
1562.042	0.017	1563620	STOP	n/a	n/a	n/a	-999	4	[-999, -999, -999]	n/a	FR1	3	R1293P
1562.059	0.554	1563637	DISTRACT_END	n/a	n/a	n/a	-999	4	[0, 0, 0]	n/a	FR1	3	R1293P
1562.613	1.712	1564191	RETRIEVAL_ORIENT_START	n/a	n/a	n/a	-999	4	[0, 0, 0]	n/a	FR1	3	R1293P
1564.325	0.001	1565903	RETRIEVAL_ORIENT_END	n/a	n/a	n/a	-999	4	[0, 0, 0]	n/a	FR1	3	R1293P
1564.326	9.835	1565904	REC_START	n/a	n/a	n/a	-999	4	[0, 0, 0]	n/a	FR1	3	R1293P
1574.161	0.785	1575738	REC_WORD	0.785	n/a	HOOF	4	4	[0, 0, 0]	n/a	FR1	3	R1293P
1574.946	0.97	1576523	REC_WORD	0.97	n/a	KING	-999	4	[0, 0, 0]	n/a	FR1	3	R1293P
1575.916	0.965	1577493	REC_WORD	0.965	n/a	CHIEF	5	4	[0, 0, 0]	n/a	FR1	3	R1293P
1576.881	17.458	1578458	REC_WORD	17.458	n/a	VASE	6	4	[0, 0, 0]	n/a	FR1	3	R1293P
1594.339	0.001	1595915	REC_END	n/a	n/a	n/a	-999	4	[0, 0, 0]	n/a	FR1	3	R1293P
1594.34	0.014	1595916	TRIAL_END	n/a	n/a	n/a	-999	4	[0, 0, 0]	n/a	FR1	3	R1293P
1594.354	0.001	1595930	TRIAL_START	n/a	n/a	n/a	-999	5	[0, 0, 0]	n/a	FR1	3	R1293P
1594.355	0.0	1595931	WAITING_START	n/a	n/a	n/a	-999	5	[0, 0, 0]	n/a	FR1	3	R1293P
1594.355	12.278	1595931	TRIAL	n/a	n/a	n/a	-999	5	[0, 0, 0]	n/a	FR1	3	R1293P
1606.633	0.001	1608208	WAITING_END	n/a	n/a	n/a	-999	5	[0, 0, 0]	n/a	FR1	3	R1293P
1606.634	10.429	1608209	COUNTDOWN_START	n/a	n/a	n/a	-999	5	[0, 0, 0]	n/a	FR1	3	R1293P
1617.063	0.001	1618638	COUNTDOWN_END	n/a	n/a	n/a	-999	5	[0, 0, 0]	n/a	FR1	3	R1293P
1617.064	1.188	1618639	ORIENT_START	n/a	n/a	n/a	-999	5	[0, 0, 0]	n/a	FR1	3	R1293P
1618.252	0.001	1619827	ORIENT_END	n/a	n/a	n/a	-999	5	[0, 0, 0]	n/a	FR1	3	R1293P
1618.253	1.077	1619828	ENCODING_START	n/a	n/a	n/a	-999	5	[0, 0, 0]	n/a	FR1	3	R1293P
1619.33	1.64	1620905	WORD	n/a	n/a	BLOOM	1	5	[0, 0, 0]	n/a	FR1	3	R1293P
1620.97	1.127	1622545	WORD_OFF	n/a	n/a	BLOOM	1	5	[0, 0, 0]	n/a	FR1	3	R1293P
1622.097	1.623	1623672	WORD	n/a	n/a	PET	2	5	[0, 0, 0]	n/a	FR1	3	R1293P
1623.72	1.074	1625295	WORD_OFF	n/a	n/a	PET	2	5	[0, 0, 0]	n/a	FR1	3	R1293P
1624.794	1.626	1626369	WORD	n/a	n/a	GLASS	3	5	[0, 0, 0]	n/a	FR1	3	R1293P
1626.42	1.007	1627994	WORD_OFF	n/a	n/a	GLASS	3	5	[0, 0, 0]	n/a	FR1	3	R1293P
1627.427	1.628	1629001	WORD	n/a	n/a	SQUARE	4	5	[0, 0, 0]	n/a	FR1	3	R1293P
1629.055	0.877	1630629	WORD_OFF	n/a	n/a	SQUARE	4	5	[0, 0, 0]	n/a	FR1	3	R1293P
1629.932	1.623	1631506	WORD	n/a	n/a	TAIL	5	5	[0, 0, 0]	n/a	FR1	3	R1293P
1631.555	1.135	1633129	WORD_OFF	n/a	n/a	TAIL	5	5	[0, 0, 0]	n/a	FR1	3	R1293P
1632.69	1.632	1634264	WORD	n/a	n/a	HORSE	6	5	[0, 0, 0]	n/a	FR1	3	R1293P
1634.322	1.091	1635896	WORD_OFF	n/a	n/a	HORSE	6	5	[0, 0, 0]	n/a	FR1	3	R1293P
1635.413	1.61	1636987	WORD	n/a	n/a	LAWN	7	5	[0, 0, 0]	n/a	FR1	3	R1293P
1637.023	0.9	1638597	WORD_OFF	n/a	n/a	LAWN	7	5	[0, 0, 0]	n/a	FR1	3	R1293P
1637.923	1.633	1639497	WORD	n/a	n/a	FROG	8	5	[0, 0, 0]	n/a	FR1	3	R1293P
1639.556	0.843	1641130	WORD_OFF	n/a	n/a	FROG	8	5	[0, 0, 0]	n/a	FR1	3	R1293P
1640.399	1.625	1641973	WORD	n/a	n/a	CLOUD	9	5	[0, 0, 0]	n/a	FR1	3	R1293P
1642.024	1.071	1643598	WORD_OFF	n/a	n/a	CLOUD	9	5	[0, 0, 0]	n/a	FR1	3	R1293P
1643.095	1.629	1644669	WORD	n/a	n/a	TOOL	10	5	[0, 0, 0]	n/a	FR1	3	R1293P
1644.724	1.097	1646297	WORD_OFF	n/a	n/a	TOOL	10	5	[0, 0, 0]	n/a	FR1	3	R1293P
1645.821	1.636	1647394	WORD	n/a	n/a	PIT	11	5	[0, 0, 0]	n/a	FR1	3	R1293P
1647.457	1.014	1649030	WORD_OFF	n/a	n/a	PIT	11	5	[0, 0, 0]	n/a	FR1	3	R1293P
1648.471	1.638	1650044	WORD	n/a	n/a	PIN	12	5	[0, 0, 0]	n/a	FR1	3	R1293P
1650.109	0.001	1651682	WORD_OFF	n/a	n/a	PIN	12	5	[0, 0, 0]	n/a	FR1	3	R1293P
1650.11	0.001	1651683	ENCODING_END	n/a	n/a	n/a	-999	5	[0, 0, 0]	n/a	FR1	3	R1293P
1650.111	0.0	1651684	DISTRACT_START	n/a	n/a	n/a	-999	5	[0, 0, 0]	n/a	FR1	3	R1293P
1650.111	0.014	1651684	START	n/a	n/a	n/a	-999	5	[-999, -999, -999]	n/a	FR1	3	R1293P
1650.125	6.034	1651698	PROB	6.034	n/a	n/a	-999	5	[7, 6, 3]	16	FR1	3	R1293P
1656.159	2.835	1657732	PROB	2.835	n/a	n/a	-999	5	[8, 6, 1]	15	FR1	3	R1293P
1658.994	2.283	1660567	PROB	2.283	n/a	n/a	-999	5	[2, 1, 9]	12	FR1	3	R1293P
1661.277	2.734	1662850	PROB	2.734	n/a	n/a	-999	5	[5, 2, 4]	11	FR1	3	R1293P
1664.011	3.001	1665584	PROB	3.001	n/a	n/a	-999	5	[9, 9, 1]	19	FR1	3	R1293P
1667.012	2.449	1668584	PROB	2.449	n/a	n/a	-999	5	[5, 6, 4]	15	FR1	3	R1293P
1669.461	3.299	1671033	PROB	3.299	n/a	n/a	-999	5	[8, 5, 7]	20	FR1	3	R1293P
1672.76	0.019	1674332	STOP	n/a	n/a	n/a	-999	5	[-999, -999, -999]	n/a	FR1	3	R1293P
1672.779	0.659	1674351	DISTRACT_END	n/a	n/a	n/a	-999	5	[0, 0, 0]	n/a	FR1	3	R1293P
1673.438	1.559	1675010	RETRIEVAL_ORIENT_START	n/a	n/a	n/a	-999	5	[0, 0, 0]	n/a	FR1	3	R1293P
1674.997	0.001	1676569	RETRIEVAL_ORIENT_END	n/a	n/a	n/a	-999	5	[0, 0, 0]	n/a	FR1	3	R1293P
1674.998	4.335	1676570	REC_START	n/a	n/a	n/a	-999	5	[0, 0, 0]	n/a	FR1	3	R1293P
1679.333	0.619	1680905	REC_WORD	0.619	n/a	HORSE	6	5	[0, 0, 0]	n/a	FR1	3	R1293P
1679.952	0.95	1681524	REC_WORD	0.95	n/a	TAIL	5	5	[0, 0, 0]	n/a	FR1	3	R1293P
1680.902	0.905	1682474	REC_WORD	0.905	n/a	SQUARE	4	5	[0, 0, 0]	n/a	FR1	3	R1293P
1681.807	1.045	1683379	REC_WORD	1.045	n/a	BLOOM	1	5	[0, 0, 0]	n/a	FR1	3	R1293P
1682.852	2.795	1684424	REC_WORD	2.795	n/a	LAWN	7	5	[0, 0, 0]	n/a	FR1	3	R1293P
1685.647	4.68	1687218	REC_WORD	4.68	n/a	PET	2	5	[0, 0, 0]	n/a	FR1	3	R1293P
1690.327	5.274	1691898	REC_WORD	5.274	n/a	PEN	-999	5	[0, 0, 0]	n/a	FR1	3	R1293P
1695.601	9.409	1697172	REC_WORD	9.409	n/a	BLOOM	1	5	[0, 0, 0]	n/a	FR1	3	R1293P
1705.01	0.001	1706580	REC_END	n/a	n/a	n/a	-999	5	[0, 0, 0]	n/a	FR1	3	R1293P
1705.011	0.023	1706581	TRIAL_END	n/a	n/a	n/a	-999	5	[0, 0, 0]	n/a	FR1	3	R1293P
1705.034	0.0	1706604	WAITING_START	n/a	n/a	n/a	-999	6	[0, 0, 0]	n/a	FR1	3	R1293P
1705.034	0.0	1706604	TRIAL	n/a	n/a	n/a	-999	6	[0, 0, 0]	n/a	FR1	3	R1293P
1705.034	6.037	1706604	TRIAL_START	n/a	n/a	n/a	-999	6	[0, 0, 0]	n/a	FR1	3	R1293P
1711.071	0.0	1712641	WAITING_END	n/a	n/a	n/a	-999	6	[0, 0, 0]	n/a	FR1	3	R1293P
1711.071	10.43	1712641	COUNTDOWN_START	n/a	n/a	n/a	-999	6	[0, 0, 0]	n/a	FR1	3	R1293P
1721.501	0.001	1723071	COUNTDOWN_END	n/a	n/a	n/a	-999	6	[0, 0, 0]	n/a	FR1	3	R1293P
1721.502	1.17	1723072	ORIENT_START	n/a	n/a	n/a	-999	6	[0, 0, 0]	n/a	FR1	3	R1293P
1722.672	0.0	1724241	ORIENT_END	n/a	n/a	n/a	-999	6	[0, 0, 0]	n/a	FR1	3	R1293P
1722.672	1.14	1724241	ENCODING_START	n/a	n/a	n/a	-999	6	[0, 0, 0]	n/a	FR1	3	R1293P
1723.812	1.627	1725381	WORD	n/a	n/a	KITE	1	6	[0, 0, 0]	n/a	FR1	3	R1293P
1725.439	1.064	1727008	WORD_OFF	n/a	n/a	KITE	1	6	[0, 0, 0]	n/a	FR1	3	R1293P
1726.503	1.636	1728072	WORD	n/a	n/a	FLAG	2	6	[0, 0, 0]	n/a	FR1	3	R1293P
1728.139	0.85	1729708	WORD_OFF	n/a	n/a	FLAG	2	6	[0, 0, 0]	n/a	FR1	3	R1293P
1728.989	1.634	1730558	WORD	n/a	n/a	BED	3	6	[0, 0, 0]	n/a	FR1	3	R1293P
1730.623	1.002	1732192	WORD_OFF	n/a	n/a	BED	3	6	[0, 0, 0]	n/a	FR1	3	R1293P
1731.625	1.632	1733194	WORD	n/a	n/a	BRICK	4	6	[0, 0, 0]	n/a	FR1	3	R1293P
1733.257	0.958	1734826	WORD_OFF	n/a	n/a	BRICK	4	6	[0, 0, 0]	n/a	FR1	3	R1293P
1734.215	1.627	1735784	WORD	n/a	n/a	MAIL	5	6	[0, 0, 0]	n/a	FR1	3	R1293P
1735.842	1.096	1737411	WORD_OFF	n/a	n/a	MAIL	5	6	[0, 0, 0]	n/a	FR1	3	R1293P
1736.938	1.637	1738507	WORD	n/a	n/a	MOLE	6	6	[0, 0, 0]	n/a	FR1	3	R1293P
1738.575	1.087	1740144	WORD_OFF	n/a	n/a	MOLE	6	6	[0, 0, 0]	n/a	FR1	3	R1293P
1739.662	1.63	1741231	WORD	n/a	n/a	DOOR	7	6	[0, 0, 0]	n/a	FR1	3	R1293P
1741.292	1.079	1742860	WORD_OFF	n/a	n/a	DOOR	7	6	[0, 0, 0]	n/a	FR1	3	R1293P
1742.371	1.622	1743939	WORD	n/a	n/a	BATH	8	6	[0, 0, 0]	n/a	FR1	3	R1293P
1743.993	0.759	1745561	WORD_OFF	n/a	n/a	BATH	8	6	[0, 0, 0]	n/a	FR1	3	R1293P
1744.752	1.624	1746320	WORD	n/a	n/a	ARK	9	6	[0, 0, 0]	n/a	FR1	3	R1293P
1746.376	0.852	1747944	WORD_OFF	n/a	n/a	ARK	9	6	[0, 0, 0]	n/a	FR1	3	R1293P
1747.228	1.633	1748796	WORD	n/a	n/a	VEST	10	6	[0, 0, 0]	n/a	FR1	3	R1293P
1748.861	0.819	1750429	WORD_OFF	n/a	n/a	VEST	10	6	[0, 0, 0]	n/a	FR1	3	R1293P
1749.68	1.63	1751248	WORD	n/a	n/a	PIPE	11	6	[0, 0, 0]	n/a	FR1	3	R1293P
1751.31	0.892	1752878	WORD_OFF	n/a	n/a	PIPE	11	6	[0, 0, 0]	n/a	FR1	3	R1293P
1752.202	1.626	1753770	WORD	n/a	n/a	ICE	12	6	[0, 0, 0]	n/a	FR1	3	R1293P
1753.828	0.001	1755396	WORD_OFF	n/a	n/a	ICE	12	6	[0, 0, 0]	n/a	FR1	3	R1293P
1753.829	0.0	1755397	ENCODING_END	n/a	n/a	n/a	-999	6	[0, 0, 0]	n/a	FR1	3	R1293P
1753.829	0.001	1755397	DISTRACT_START	n/a	n/a	n/a	-999	6	[0, 0, 0]	n/a	FR1	3	R1293P
1753.83	0.015	1755398	START	n/a	n/a	n/a	-999	6	[-999, -999, -999]	n/a	FR1	3	R1293P
1753.845	2.7	1755413	PROB	2.7	n/a	n/a	-999	6	[3, 2, 1]	6	FR1	3	R1293P
1756.545	2.767	1758113	PROB	2.767	n/a	n/a	-999	6	[3, 1, 4]	8	FR1	3	R1293P
1759.312	2.801	1760880	PROB	2.801	n/a	n/a	-999	6	[5, 3, 2]	10	FR1	3	R1293P
1762.113	2.001	1763680	PROB	2.001	n/a	n/a	-999	6	[2, 2, 1]	5	FR1	3	R1293P
1764.114	2.733	1765681	PROB	2.733	n/a	n/a	-999	6	[4, 3, 6]	13	FR1	3	R1293P
1766.847	2.633	1768414	PROB	2.633	n/a	n/a	-999	6	[5, 6, 5]	16	FR1	3	R1293P
1769.48	2.001	1771047	PROB	2.001	n/a	n/a	-999	6	[9, 1, 1]	11	FR1	3	R1293P
1771.481	4.045	1773048	PROB	4.045	n/a	n/a	-999	6	[8, 9, 7]	24	FR1	3	R1293P
1775.526	0.022	1777093	STOP	n/a	n/a	n/a	-999	6	[-999, -999, -999]	n/a	FR1	3	R1293P
1775.548	0.543	1777115	DISTRACT_END	n/a	n/a	n/a	-999	6	[0, 0, 0]	n/a	FR1	3	R1293P
1776.091	1.658	1777658	RETRIEVAL_ORIENT_START	n/a	n/a	n/a	-999	6	[0, 0, 0]	n/a	FR1	3	R1293P
1777.749	0.001	1779316	RETRIEVAL_ORIENT_END	n/a	n/a	n/a	-999	6	[0, 0, 0]	n/a	FR1	3	R1293P
1777.75	3.979	1779317	REC_START	n/a	n/a	n/a	-999	6	[0, 0, 0]	n/a	FR1	3	R1293P
1781.729	0.455	1783295	REC_WORD	0.455	n/a	KITE	1	6	[0, 0, 0]	n/a	FR1	3	R1293P
1782.184	2.97	1783750	REC_WORD	2.97	n/a	FLAG	2	6	[0, 0, 0]	n/a	FR1	3	R1293P
1785.154	1.44	1786720	REC_WORD	1.44	n/a	BRICK	4	6	[0, 0, 0]	n/a	FR1	3	R1293P
1786.594	5.195	1788160	REC_WORD	5.195	n/a	BED	3	6	[0, 0, 0]	n/a	FR1	3	R1293P
1791.789	6.15	1793355	REC_WORD	6.15	n/a	MOLE	6	6	[0, 0, 0]	n/a	FR1	3	R1293P
1797.939	0.61	1799505	REC_WORD	0.61	n/a	BAT	-999	6	[0, 0, 0]	n/a	FR1	3	R1293P
1798.549	1.915	1800115	REC_WORD	1.915	n/a	ARK	9	6	[0, 0, 0]	n/a	FR1	3	R1293P
1800.464	7.296	1802029	REC_WORD	7.296	n/a	VEST	10	6	[0, 0, 0]	n/a	FR1	3	R1293P
1807.76	0.001	1809325	REC_END	n/a	n/a	n/a	-999	6	[0, 0, 0]	n/a	FR1	3	R1293P
1807.761	0.014	1809326	TRIAL_END	n/a	n/a	n/a	-999	6	[0, 0, 0]	n/a	FR1	3	R1293P
1807.775	0.0	1809340	TRIAL_START	n/a	n/a	n/a	-999	7	[0, 0, 0]	n/a	FR1	3	R1293P
1807.775	0.0	1809340	TRIAL	n/a	n/a	n/a	-999	7	[0, 0, 0]	n/a	FR1	3	R1293P
1807.775	7.531	1809340	WAITING_START	n/a	n/a	n/a	-999	7	[0, 0, 0]	n/a	FR1	3	R1293P
1815.306	0.001	1816871	WAITING_END	n/a	n/a	n/a	-999	7	[0, 0, 0]	n/a	FR1	3	R1293P
1815.307	10.429	1816872	COUNTDOWN_START	n/a	n/a	n/a	-999	7	[0, 0, 0]	n/a	FR1	3	R1293P
1825.736	0.001	1827300	COUNTDOWN_END	n/a	n/a	n/a	-999	7	[0, 0, 0]	n/a	FR1	3	R1293P
1825.737	1.021	1827301	ORIENT_START	n/a	n/a	n/a	-999	7	[0, 0, 0]	n/a	FR1	3	R1293P
1826.758	0.001	1828322	ORIENT_END	n/a	n/a	n/a	-999	7	[0, 0, 0]	n/a	FR1	3	R1293P
1826.759	1.137	1828323	ENCODING_START	n/a	n/a	n/a	-999	7	[0, 0, 0]	n/a	FR1	3	R1293P
1827.896	1.629	1829460	WORD	n/a	n/a	ARM	1	7	[0, 0, 0]	n/a	FR1	3	R1293P
1829.525	0.95	1831089	WORD_OFF	n/a	n/a	ARM	1	7	[0, 0, 0]	n/a	FR1	3	R1293P
1830.475	1.635	1832039	WORD	n/a	n/a	FLUTE	2	7	[0, 0, 0]	n/a	FR1	3	R1293P
1832.11	0.853	1833674	WORD_OFF	n/a	n/a	FLUTE	2	7	[0, 0, 0]	n/a	FR1	3	R1293P
1832.963	1.63	1834527	WORD	n/a	n/a	FLEA	3	7	[0, 0, 0]	n/a	FR1	3	R1293P
1834.593	1.005	1836157	WORD_OFF	n/a	n/a	FLEA	3	7	[0, 0, 0]	n/a	FR1	3	R1293P
1835.598	1.629	1837162	WORD	n/a	n/a	CORD	4	7	[0, 0, 0]	n/a	FR1	3	R1293P
1837.227	1.143	1838791	WORD_OFF	n/a	n/a	CORD	4	7	[0, 0, 0]	n/a	FR1	3	R1293P
1838.37	1.625	1839933	WORD	n/a	n/a	BOMB	5	7	[0, 0, 0]	n/a	FR1	3	R1293P
1839.995	0.959	1841558	WORD_OFF	n/a	n/a	BOMB	5	7	[0, 0, 0]	n/a	FR1	3	R1293P
1840.954	1.624	1842517	WORD	n/a	n/a	YARD	6	7	[0, 0, 0]	n/a	FR1	3	R1293P
1842.578	0.838	1844141	WORD_OFF	n/a	n/a	YARD	6	7	[0, 0, 0]	n/a	FR1	3	R1293P
1843.416	1.63	1844979	WORD	n/a	n/a	DIME	7	7	[0, 0, 0]	n/a	FR1	3	R1293P
1845.046	1.13	1846609	WORD_OFF	n/a	n/a	DIME	7	7	[0, 0, 0]	n/a	FR1	3	R1293P
1846.176	1.636	1847739	WORD	n/a	n/a	BRUSH	8	7	[0, 0, 0]	n/a	FR1	3	R1293P
1847.812	1.108	1849375	WORD_OFF	n/a	n/a	BRUSH	8	7	[0, 0, 0]	n/a	FR1	3	R1293P
1848.92	1.626	1850483	WORD	n/a	n/a	SCHOOL	9	7	[0, 0, 0]	n/a	FR1	3	R1293P
1850.546	0.794	1852109	WORD_OFF	n/a	n/a	SCHOOL	9	7	[0, 0, 0]	n/a	FR1	3	R1293P
1851.34	1.607	1852903	WORD	n/a	n/a	STORE	10	7	[0, 0, 0]	n/a	FR1	3	R1293P
1852.947	0.779	1854510	WORD_OFF	n/a	n/a	STORE	10	7	[0, 0, 0]	n/a	FR1	3	R1293P
1853.726	1.637	1855289	WORD	n/a	n/a	OAR	11	7	[0, 0, 0]	n/a	FR1	3	R1293P
1855.363	0.788	1856926	WORD_OFF	n/a	n/a	OAR	11	7	[0, 0, 0]	n/a	FR1	3	R1293P
1856.151	1.629	1857714	WORD	n/a	n/a	FLOOR	12	7	[0, 0, 0]	n/a	FR1	3	R1293P
1857.78	0.001	1859342	WORD_OFF	n/a	n/a	FLOOR	12	7	[0, 0, 0]	n/a	FR1	3	R1293P
1857.781	0.001	1859343	ENCODING_END	n/a	n/a	n/a	-999	7	[0, 0, 0]	n/a	FR1	3	R1293P
1857.782	0.0	1859344	DISTRACT_START	n/a	n/a	n/a	-999	7	[0, 0, 0]	n/a	FR1	3	R1293P
1857.782	0.015	1859344	START	n/a	n/a	n/a	-999	7	[-999, -999, -999]	n/a	FR1	3	R1293P
1857.797	4.001	1859359	PROB	4.001	n/a	n/a	-999	7	[9, 6, 9]	24	FR1	3	R1293P
1861.798	1.983	1863360	PROB	1.983	n/a	n/a	-999	7	[5, 2, 5]	12	FR1	3	R1293P
1863.781	2.319	1865343	PROB	2.319	n/a	n/a	-999	7	[1, 1, 7]	9	FR1	3	R1293P
1866.1	1.716	1867662	PROB	1.716	n/a	n/a	-999	7	[2, 8, 2]	12	FR1	3	R1293P
1867.816	3.0	1869378	PROB	3.0	n/a	n/a	-999	7	[9, 2, 3]	14	FR1	3	R1293P
1870.816	2.834	1872378	PROB	2.834	n/a	n/a	-999	7	[3, 9, 9]	21	FR1	3	R1293P
1873.65	2.517	1875212	PROB	2.517	n/a	n/a	-999	7	[9, 4, 8]	21	FR1	3	R1293P
1876.167	2.21	1877729	PROB	2.21	n/a	n/a	-999	7	[7, 3, 3]	13	FR1	3	R1293P
1878.377	0.007	1879938	STOP	n/a	n/a	n/a	-999	7	[-999, -999, -999]	n/a	FR1	3	R1293P
1878.384	0.547	1879945	DISTRACT_END	n/a	n/a	n/a	-999	7	[0, 0, 0]	n/a	FR1	3	R1293P
1878.931	1.537	1880492	RETRIEVAL_ORIENT_START	n/a	n/a	n/a	-999	7	[0, 0, 0]	n/a	FR1	3	R1293P
1880.468	0.001	1882029	RETRIEVAL_ORIENT_END	n/a	n/a	n/a	-999	7	[0, 0, 0]	n/a	FR1	3	R1293P
1880.469	3.465	1882030	REC_START	n/a	n/a	n/a	-999	7	[0, 0, 0]	n/a	FR1	3	R1293P
1883.934	0.435	1885495	REC_WORD	0.435	n/a	DIME	7	7	[0, 0, 0]	n/a	FR1	3	R1293P
1884.369	0.765	1885930	REC_WORD	0.765	n/a	STORE	10	7	[0, 0, 0]	n/a	FR1	3	R1293P
1885.134	3.275	1886695	REC_WORD	3.275	n/a	SCHOOL	9	7	[0, 0, 0]	n/a	FR1	3	R1293P
1888.409	0.535	1889970	REC_WORD	0.535	n/a	YARD	6	7	[0, 0, 0]	n/a	FR1	3	R1293P
1888.944	2.794	1890505	REC_WORD	2.794	n/a	FLEA	3	7	[0, 0, 0]	n/a	FR1	3	R1293P
1891.738	0.395	1893299	REC_WORD	0.395	n/a	ARM	1	7	[0, 0, 0]	n/a	FR1	3	R1293P
1892.133	2.44	1893694	REC_WORD	2.44	n/a	FLUTE	2	7	[0, 0, 0]	n/a	FR1	3	R1293P
1894.573	8.01	1896134	REC_WORD	8.01	n/a	OAR	11	7	[0, 0, 0]	n/a	FR1	3	R1293P
1902.583	7.899	1904143	REC_WORD	7.899	n/a	FLAG	-999	7	[0, 0, 0]	n/a	FR1	3	R1293P
1910.482	0.001	1912042	REC_END	n/a	n/a	n/a	-999	7	[0, 0, 0]	n/a	FR1	3	R1293P
1910.483	0.016	1912043	TRIAL_END	n/a	n/a	n/a	-999	7	[0, 0, 0]	n/a	FR1	3	R1293P
1910.499	0.001	1912059	TRIAL_START	n/a	n/a	n/a	-999	8	[0, 0, 0]	n/a	FR1	3	R1293P
1910.5	0.0	1912060	TRIAL	n/a	n/a	n/a	-999	8	[0, 0, 0]	n/a	FR1	3	R1293P
1910.5	10.042	1912060	WAITING_START	n/a	n/a	n/a	-999	8	[0, 0, 0]	n/a	FR1	3	R1293P
1920.542	0.001	1922101	WAITING_END	n/a	n/a	n/a	-999	8	[0, 0, 0]	n/a	FR1	3	R1293P
1920.543	10.429	1922102	COUNTDOWN_START	n/a	n/a	n/a	-999	8	[0, 0, 0]	n/a	FR1	3	R1293P
1930.972	0.001	1932531	COUNTDOWN_END	n/a	n/a	n/a	-999	8	[0, 0, 0]	n/a	FR1	3	R1293P
1930.973	1.023	1932532	ORIENT_START	n/a	n/a	n/a	-999	8	[0, 0, 0]	n/a	FR1	3	R1293P
1931.996	0.001	1933555	ORIENT_END	n/a	n/a	n/a	-999	8	[0, 0, 0]	n/a	FR1	3	R1293P
1931.997	1.11	1933556	ENCODING_START	n/a	n/a	n/a	-999	8	[0, 0, 0]	n/a	FR1	3	R1293P
1933.107	1.621	1934666	WORD	n/a	n/a	FOOD	1	8	[0, 0, 0]	n/a	FR1	3	R1293P
1934.728	0.816	1936286	WORD_OFF	n/a	n/a	FOOD	1	8	[0, 0, 0]	n/a	FR1	3	R1293P
1935.544	1.635	1937102	WORD	n/a	n/a	WAND	2	8	[0, 0, 0]	n/a	FR1	3	R1293P
1937.179	1.137	1938737	WORD_OFF	n/a	n/a	WAND	2	8	[0, 0, 0]	n/a	FR1	3	R1293P
1938.316	1.614	1939874	WORD	n/a	n/a	LOCK	3	8	[0, 0, 0]	n/a	FR1	3	R1293P
1939.93	1.145	1941488	WORD_OFF	n/a	n/a	LOCK	3	8	[0, 0, 0]	n/a	FR1	3	R1293P
1941.075	1.621	1942633	WORD	n/a	n/a	SLUSH	4	8	[0, 0, 0]	n/a	FR1	3	R1293P
1942.696	0.86	1944254	WORD_OFF	n/a	n/a	SLUSH	4	8	[0, 0, 0]	n/a	FR1	3	R1293P
1943.556	1.624	1945114	WORD	n/a	n/a	PLANE	5	8	[0, 0, 0]	n/a	FR1	3	R1293P
1945.18	0.905	1946738	WORD_OFF	n/a	n/a	PLANE	5	8	[0, 0, 0]	n/a	FR1	3	R1293P
1946.085	1.629	1947643	WORD	n/a	n/a	MOON	6	8	[0, 0, 0]	n/a	FR1	3	R1293P
1947.714	1.086	1949272	WORD_OFF	n/a	n/a	MOON	6	8	[0, 0, 0]	n/a	FR1	3	R1293P
1948.8	1.631	1950358	WORD	n/a	n/a	BOAT	7	8	[0, 0, 0]	n/a	FR1	3	R1293P
1950.431	0.868	1951989	WORD_OFF	n/a	n/a	BOAT	7	8	[0, 0, 0]	n/a	FR1	3	R1293P
1951.299	1.634	1952857	WORD	n/a	n/a	WING	8	8	[0, 0, 0]	n/a	FR1	3	R1293P
1952.933	0.765	1954491	WORD_OFF	n/a	n/a	WING	8	8	[0, 0, 0]	n/a	FR1	3	R1293P
1953.698	1.634	1955255	WORD	n/a	n/a	TOE	9	8	[0, 0, 0]	n/a	FR1	3	R1293P
1955.332	0.755	1956889	WORD_OFF	n/a	n/a	TOE	9	8	[0, 0, 0]	n/a	FR1	3	R1293P
1956.087	1.629	1957644	WORD	n/a	n/a	MOUTH	10	8	[0, 0, 0]	n/a	FR1	3	R1293P
1957.716	0.752	1959273	WORD_OFF	n/a	n/a	MOUTH	10	8	[0, 0, 0]	n/a	FR1	3	R1293P
1958.468	1.633	1960025	WORD	n/a	n/a	PLATE	11	8	[0, 0, 0]	n/a	FR1	3	R1293P
1960.101	0.846	1961658	WORD_OFF	n/a	n/a	PLATE	11	8	[0, 0, 0]	n/a	FR1	3	R1293P
1960.947	1.637	1962504	WORD	n/a	n/a	SNOW	12	8	[0, 0, 0]	n/a	FR1	3	R1293P
1962.584	0.0	1964141	WORD_OFF	n/a	n/a	SNOW	12	8	[0, 0, 0]	n/a	FR1	3	R1293P
1962.584	0.001	1964141	ENCODING_END	n/a	n/a	n/a	-999	8	[0, 0, 0]	n/a	FR1	3	R1293P
1962.585	0.0	1964142	DISTRACT_START	n/a	n/a	n/a	-999	8	[0, 0, 0]	n/a	FR1	3	R1293P
1962.585	0.015	1964142	START	n/a	n/a	n/a	-999	8	[-999, -999, -999]	n/a	FR1	3	R1293P
1962.6	4.818	1964157	PROB	4.818	n/a	n/a	-999	8	[6, 7, 7]	20	FR1	3	R1293P
1967.418	2.9	1968975	PROB	2.9	n/a	n/a	-999	8	[8, 7, 1]	16	FR1	3	R1293P
1970.318	2.901	1971875	PROB	2.901	n/a	n/a	-999	8	[7, 1, 5]	13	FR1	3	R1293P
1973.219	2.5	1974775	PROB	2.5	n/a	n/a	-999	8	[3, 3, 5]	11	FR1	3	R1293P
1975.719	1.884	1977275	PROB	1.884	n/a	n/a	-999	8	[8, 3, 2]	13	FR1	3	R1293P
1977.603	2.9	1979159	PROB	2.9	n/a	n/a	-999	8	[9, 8, 3]	20	FR1	3	R1293P
1980.503	4.818	1982059	PROB	4.818	n/a	n/a	-999	8	[8, 9, 9]	26	FR1	3	R1293P
1985.321	0.017	1986877	STOP	n/a	n/a	n/a	-999	8	[-999, -999, -999]	n/a	FR1	3	R1293P
1985.338	0.652	1986894	DISTRACT_END	n/a	n/a	n/a	-999	8	[0, 0, 0]	n/a	FR1	3	R1293P
1985.99	1.715	1987546	RETRIEVAL_ORIENT_START	n/a	n/a	n/a	-999	8	[0, 0, 0]	n/a	FR1	3	R1293P
1987.705	0.001	1989261	RETRIEVAL_ORIENT_END	n/a	n/a	n/a	-999	8	[0, 0, 0]	n/a	FR1	3	R1293P
1987.706	3.76	1989262	REC_START	n/a	n/a	n/a	-999	8	[0, 0, 0]	n/a	FR1	3	R1293P
1991.466	0.735	1993022	REC_WORD	0.735	n/a	FRUIT	-999	8	[0, 0, 0]	n/a	FR1	3	R1293P
1992.201	0.589	1993757	REC_WORD	0.589	n/a	WAND	2	8	[0, 0, 0]	n/a	FR1	3	R1293P
1992.79	0.935	1994345	REC_WORD	0.935	n/a	SLUSH	4	8	[0, 0, 0]	n/a	FR1	3	R1293P
1993.725	23.992	1995280	REC_WORD	23.992	n/a	PLANE	5	8	[0, 0, 0]	n/a	FR1	3	R1293P
2017.717	0.001	2019271	REC_END	n/a	n/a	n/a	-999	8	[0, 0, 0]	n/a	FR1	3	R1293P
2017.718	0.013	2019272	TRIAL_END	n/a	n/a	n/a	-999	8	[0, 0, 0]	n/a	FR1	3	R1293P
2017.731	0.001	2019285	TRIAL_START	n/a	n/a	n/a	-999	9	[0, 0, 0]	n/a	FR1	3	R1293P
2017.732	0.0	2019286	TRIAL	n/a	n/a	n/a	-999	9	[0, 0, 0]	n/a	FR1	3	R1293P
2017.732	12.048	2019286	WAITING_START	n/a	n/a	n/a	-999	9	[0, 0, 0]	n/a	FR1	3	R1293P
2029.78	0.001	2031334	WAITING_END	n/a	n/a	n/a	-999	9	[0, 0, 0]	n/a	FR1	3	R1293P
2029.781	10.428	2031335	COUNTDOWN_START	n/a	n/a	n/a	-999	9	[0, 0, 0]	n/a	FR1	3	R1293P
2040.209	0.001	2041762	COUNTDOWN_END	n/a	n/a	n/a	-999	9	[0, 0, 0]	n/a	FR1	3	R1293P
2040.21	1.205	2041763	ORIENT_START	n/a	n/a	n/a	-999	9	[0, 0, 0]	n/a	FR1	3	R1293P
2041.415	0.001	2042968	ORIENT_END	n/a	n/a	n/a	-999	9	[0, 0, 0]	n/a	FR1	3	R1293P
2041.416	0.846	2042969	ENCODING_START	n/a	n/a	n/a	-999	9	[0, 0, 0]	n/a	FR1	3	R1293P
2042.262	1.638	2043815	WORD	n/a	n/a	TRUCK	1	9	[0, 0, 0]	n/a	FR1	3	R1293P
2043.9	1.066	2045453	WORD_OFF	n/a	n/a	TRUCK	1	9	[0, 0, 0]	n/a	FR1	3	R1293P
2044.966	1.634	2046519	WORD	n/a	n/a	SKUNK	2	9	[0, 0, 0]	n/a	FR1	3	R1293P
2046.6	0.752	2048153	WORD_OFF	n/a	n/a	SKUNK	2	9	[0, 0, 0]	n/a	FR1	3	R1293P
2047.352	1.615	2048905	WORD	n/a	n/a	STEM	3	9	[0, 0, 0]	n/a	FR1	3	R1293P
2048.967	0.848	2050520	WORD_OFF	n/a	n/a	STEM	3	9	[0, 0, 0]	n/a	FR1	3	R1293P
2049.815	1.635	2051368	WORD	n/a	n/a	LAKE	4	9	[0, 0, 0]	n/a	FR1	3	R1293P
2051.45	0.943	2053002	WORD_OFF	n/a	n/a	LAKE	4	9	[0, 0, 0]	n/a	FR1	3	R1293P
2052.393	1.609	2053945	WORD	n/a	n/a	MAT	5	9	[0, 0, 0]	n/a	FR1	3	R1293P
2054.002	0.819	2055554	WORD_OFF	n/a	n/a	MAT	5	9	[0, 0, 0]	n/a	FR1	3	R1293P
2054.821	1.63	2056373	WORD	n/a	n/a	SAIL	6	9	[0, 0, 0]	n/a	FR1	3	R1293P
2056.451	0.762	2058003	WORD_OFF	n/a	n/a	SAIL	6	9	[0, 0, 0]	n/a	FR1	3	R1293P
2057.213	1.622	2058765	WORD	n/a	n/a	SALT	7	9	[0, 0, 0]	n/a	FR1	3	R1293P
2058.835	1.088	2060387	WORD_OFF	n/a	n/a	SALT	7	9	[0, 0, 0]	n/a	FR1	3	R1293P
2059.923	1.629	2061475	WORD	n/a	n/a	FOG	8	9	[0, 0, 0]	n/a	FR1	3	R1293P
2061.552	1.136	2063104	WORD_OFF	n/a	n/a	FOG	8	9	[0, 0, 0]	n/a	FR1	3	R1293P
2062.688	1.631	2064240	WORD	n/a	n/a	RAT	9	9	[0, 0, 0]	n/a	FR1	3	R1293P
2064.319	0.944	2065871	WORD_OFF	n/a	n/a	RAT	9	9	[0, 0, 0]	n/a	FR1	3	R1293P
2065.263	1.608	2066815	WORD	n/a	n/a	SOAP	10	9	[0, 0, 0]	n/a	FR1	3	R1293P
2066.871	0.918	2068423	WORD_OFF	n/a	n/a	SOAP	10	9	[0, 0, 0]	n/a	FR1	3	R1293P
2067.789	1.631	2069341	WORD	n/a	n/a	SEAT	11	9	[0, 0, 0]	n/a	FR1	3	R1293P
2069.42	0.777	2070972	WORD_OFF	n/a	n/a	SEAT	11	9	[0, 0, 0]	n/a	FR1	3	R1293P
2070.197	1.624	2071748	WORD	n/a	n/a	BOWL	12	9	[0, 0, 0]	n/a	FR1	3	R1293P
2071.821	0.001	2073372	WORD_OFF	n/a	n/a	BOWL	12	9	[0, 0, 0]	n/a	FR1	3	R1293P
2071.822	0.001	2073373	ENCODING_END	n/a	n/a	n/a	-999	9	[0, 0, 0]	n/a	FR1	3	R1293P
2071.823	0.0	2073374	DISTRACT_START	n/a	n/a	n/a	-999	9	[0, 0, 0]	n/a	FR1	3	R1293P
2071.823	0.014	2073374	START	n/a	n/a	n/a	-999	9	[-999, -999, -999]	n/a	FR1	3	R1293P
2071.837	4.768	2073388	PROB	4.768	n/a	n/a	-999	9	[3, 9, 2]	14	FR1	3	R1293P
2076.605	2.95	2078156	PROB	2.95	n/a	n/a	-999	9	[3, 6, 8]	17	FR1	3	R1293P
2079.555	2.618	2081106	PROB	2.618	n/a	n/a	-999	9	[9, 2, 3]	14	FR1	3	R1293P
2082.173	3.534	2083724	PROB	3.534	n/a	n/a	-999	9	[2, 2, 4]	8	FR1	3	R1293P
2085.707	2.318	2087258	PROB	2.318	n/a	n/a	-999	9	[4, 4, 4]	12	FR1	3	R1293P
2088.025	3.099	2089576	PROB	3.099	n/a	n/a	-999	9	[1, 8, 9]	18	FR1	3	R1293P
2091.124	4.27	2092674	PROB	4.27	n/a	n/a	-999	9	[4, 2, 7]	13	FR1	3	R1293P
2095.394	0.015	2096944	STOP	n/a	n/a	n/a	-999	9	[-999, -999, -999]	n/a	FR1	3	R1293P
2095.409	0.647	2096959	DISTRACT_END	n/a	n/a	n/a	-999	9	[0, 0, 0]	n/a	FR1	3	R1293P
2096.056	1.586	2097606	RETRIEVAL_ORIENT_START	n/a	n/a	n/a	-999	9	[0, 0, 0]	n/a	FR1	3	R1293P
2097.642	0.001	2099192	RETRIEVAL_ORIENT_END	n/a	n/a	n/a	-999	9	[0, 0, 0]	n/a	FR1	3	R1293P
2097.643	4.039	2099193	REC_START	n/a	n/a	n/a	-999	9	[0, 0, 0]	n/a	FR1	3	R1293P
2101.682	0.575	2103232	REC_WORD	0.575	n/a	LAKE	4	9	[0, 0, 0]	n/a	FR1	3	R1293P
2102.257	0.801	2103807	REC_WORD	0.801	n/a	FLEA	-999	9	[0, 0, 0]	n/a	FR1	3	R1293P
2103.058	1.584	2104608	REC_WORD	1.584	n/a	RAT	9	9	[0, 0, 0]	n/a	FR1	3	R1293P
2104.642	1.18	2106192	REC_WORD	1.18	n/a	TRUCK	1	9	[0, 0, 0]	n/a	FR1	3	R1293P
2105.822	6.75	2107372	REC_WORD	6.75	n/a	MAT	5	9	[0, 0, 0]	n/a	FR1	3	R1293P
2112.572	1.215	2114121	REC_WORD	1.215	n/a	BAT	-999	9	[0, 0, 0]	n/a	FR1	3	R1293P
2113.787	13.867	2115336	REC_WORD	13.867	n/a	CHAIR	-999	9	[0, 0, 0]	n/a	FR1	3	R1293P
2127.654	0.001	2129202	REC_END	n/a	n/a	n/a	-999	9	[0, 0, 0]	n/a	FR1	3	R1293P
2127.655	0.014	2129203	TRIAL_END	n/a	n/a	n/a	-999	9	[0, 0, 0]	n/a	FR1	3	R1293P
2127.669	0.0	2129217	TRIAL_START	n/a	n/a	n/a	-999	10	[0, 0, 0]	n/a	FR1	3	R1293P
2127.669	0.0	2129217	TRIAL	n/a	n/a	n/a	-999	10	[0, 0, 0]	n/a	FR1	3	R1293P
2127.669	3.513	2129217	WAITING_START	n/a	n/a	n/a	-999	10	[0, 0, 0]	n/a	FR1	3	R1293P
2131.182	0.001	2132730	WAITING_END	n/a	n/a	n/a	-999	10	[0, 0, 0]	n/a	FR1	3	R1293P
2131.183	10.428	2132731	COUNTDOWN_START	n/a	n/a	n/a	-999	10	[0, 0, 0]	n/a	FR1	3	R1293P
2141.611	0.001	2143159	COUNTDOWN_END	n/a	n/a	n/a	-999	10	[0, 0, 0]	n/a	FR1	3	R1293P
2141.612	1.222	2143160	ORIENT_START	n/a	n/a	n/a	-999	10	[0, 0, 0]	n/a	FR1	3	R1293P
2142.834	0.001	2144382	ORIENT_END	n/a	n/a	n/a	-999	10	[0, 0, 0]	n/a	FR1	3	R1293P
2142.835	0.854	2144383	ENCODING_START	n/a	n/a	n/a	-999	10	[0, 0, 0]	n/a	FR1	3	R1293P
2143.689	1.629	2145237	WORD	n/a	n/a	PIE	1	10	[0, 0, 0]	n/a	FR1	3	R1293P
2145.318	0.997	2146866	WORD_OFF	n/a	n/a	PIE	1	10	[0, 0, 0]	n/a	FR1	3	R1293P
2146.315	1.638	2147863	WORD	n/a	n/a	JUICE	2	10	[0, 0, 0]	n/a	FR1	3	R1293P
2147.953	0.878	2149500	WORD_OFF	n/a	n/a	JUICE	2	10	[0, 0, 0]	n/a	FR1	3	R1293P
2148.831	1.638	2150378	WORD	n/a	n/a	SMILE	3	10	[0, 0, 0]	n/a	FR1	3	R1293P
2150.469	0.984	2152016	WORD_OFF	n/a	n/a	SMILE	3	10	[0, 0, 0]	n/a	FR1	3	R1293P
2151.453	1.617	2153000	WORD	n/a	n/a	VINE	4	10	[0, 0, 0]	n/a	FR1	3	R1293P
2153.07	0.889	2154617	WORD_OFF	n/a	n/a	VINE	4	10	[0, 0, 0]	n/a	FR1	3	R1293P
2153.959	1.628	2155506	WORD	n/a	n/a	SHEET	5	10	[0, 0, 0]	n/a	FR1	3	R1293P
2155.587	1.099	2157134	WORD_OFF	n/a	n/a	SHEET	5	10	[0, 0, 0]	n/a	FR1	3	R1293P
2156.686	1.634	2158233	WORD	n/a	n/a	MILK	6	10	[0, 0, 0]	n/a	FR1	3	R1293P
2158.32	0.779	2159867	WORD_OFF	n/a	n/a	MILK	6	10	[0, 0, 0]	n/a	FR1	3	R1293P
2159.099	1.622	2160646	WORD	n/a	n/a	ROPE	7	10	[0, 0, 0]	n/a	FR1	3	R1293P
2160.721	1.092	2162268	WORD_OFF	n/a	n/a	ROPE	7	10	[0, 0, 0]	n/a	FR1	3	R1293P
2161.813	1.625	2163360	WORD	n/a	n/a	CROW	8	10	[0, 0, 0]	n/a	FR1	3	R1293P
2163.438	0.993	2164985	WORD_OFF	n/a	n/a	CROW	8	10	[0, 0, 0]	n/a	FR1	3	R1293P
2164.431	1.608	2165978	WORD	n/a	n/a	SINK	9	10	[0, 0, 0]	n/a	FR1	3	R1293P
2166.039	1.051	2167585	WORD_OFF	n/a	n/a	SINK	9	10	[0, 0, 0]	n/a	FR1	3	R1293P
2167.09	1.632	2168636	WORD	n/a	n/a	SLEEVE	10	10	[0, 0, 0]	n/a	FR1	3	R1293P
2168.722	0.935	2170268	WORD_OFF	n/a	n/a	SLEEVE	10	10	[0, 0, 0]	n/a	FR1	3	R1293P
2169.657	1.633	2171203	WORD	n/a	n/a	SHOE	11	10	[0, 0, 0]	n/a	FR1	3	R1293P
2171.29	0.826	2172836	WORD_OFF	n/a	n/a	SHOE	11	10	[0, 0, 0]	n/a	FR1	3	R1293P
2172.116	1.624	2173662	WORD	n/a	n/a	PEN	12	10	[0, 0, 0]	n/a	FR1	3	R1293P
2173.74	0.001	2175286	WORD_OFF	n/a	n/a	PEN	12	10	[0, 0, 0]	n/a	FR1	3	R1293P
2173.741	0.001	2175287	ENCODING_END	n/a	n/a	n/a	-999	10	[0, 0, 0]	n/a	FR1	3	R1293P
2173.742	0.0	2175288	DISTRACT_START	n/a	n/a	n/a	-999	10	[0, 0, 0]	n/a	FR1	3	R1293P
2173.742	0.015	2175288	START	n/a	n/a	n/a	-999	10	[-999, -999, -999]	n/a	FR1	3	R1293P
2173.757	2.867	2175303	PROB	2.867	n/a	n/a	-999	10	[1, 7, 7]	15	FR1	3	R1293P
2176.624	2.834	2178170	PROB	2.834	n/a	n/a	-999	10	[4, 5, 4]	13	FR1	3	R1293P
2179.458	1.651	2181004	PROB	1.651	n/a	n/a	-999	10	[5, 5, 1]	11	FR1	3	R1293P
2181.109	2.266	2182655	PROB	2.266	n/a	n/a	-999	10	[2, 4, 1]	7	FR1	3	R1293P
2183.375	2.017	2184921	PROB	2.017	n/a	n/a	-999	10	[4, 5, 3]	12	FR1	3	R1293P
2185.392	1.767	2186937	PROB	1.767	n/a	n/a	-999	10	[7, 2, 2]	11	FR1	3	R1293P
2187.159	2.367	2188704	PROB	2.367	n/a	n/a	-999	10	[2, 3, 2]	7	FR1	3	R1293P
2189.526	2.084	2191071	PROB	2.084	n/a	n/a	-999	10	[8, 1, 7]	16	FR1	3	R1293P
2191.61	2.819	2193155	PROB	2.819	n/a	n/a	-999	10	[4, 2, 3]	9	FR1	3	R1293P
2194.429	0.015	2195974	STOP	n/a	n/a	n/a	-999	10	[-999, -999, -999]	n/a	FR1	3	R1293P
2194.444	0.504	2195989	DISTRACT_END	n/a	n/a	n/a	-999	10	[0, 0, 0]	n/a	FR1	3	R1293P
2194.948	1.696	2196493	RETRIEVAL_ORIENT_START	n/a	n/a	n/a	-999	10	[0, 0, 0]	n/a	FR1	3	R1293P
2196.644	0.001	2198189	RETRIEVAL_ORIENT_END	n/a	n/a	n/a	-999	10	[0, 0, 0]	n/a	FR1	3	R1293P
2196.645	6.4	2198190	REC_START	n/a	n/a	n/a	-999	10	[0, 0, 0]	n/a	FR1	3	R1293P
2203.045	0.675	2204590	REC_WORD	0.675	n/a	JUICE	2	10	[0, 0, 0]	n/a	FR1	3	R1293P
2203.72	0.865	2205265	REC_WORD	0.865	n/a	BARN	-999	10	[0, 0, 0]	n/a	FR1	3	R1293P
2204.585	4.36	2206130	REC_WORD	4.36	n/a	SMILE	3	10	[0, 0, 0]	n/a	FR1	3	R1293P
2208.945	4.565	2210489	REC_WORD	4.565	n/a	MILK	6	10	[0, 0, 0]	n/a	FR1	3	R1293P
2213.51	0.589	2215054	REC_WORD	0.589	n/a	SLEEVE	10	10	[0, 0, 0]	n/a	FR1	3	R1293P
2214.099	7.365	2215643	REC_WORD	7.365	n/a	SHOE	11	10	[0, 0, 0]	n/a	FR1	3	R1293P
2221.464	5.193	2223008	REC_WORD	5.193	n/a	TROAT	-999	10	[0, 0, 0]	n/a	FR1	3	R1293P
2226.657	0.0	2228200	TRIAL_END	n/a	n/a	n/a	-999	10	[0, 0, 0]	n/a	FR1	3	R1293P
2226.657	0.017	2228200	REC_END	n/a	n/a	n/a	-999	10	[0, 0, 0]	n/a	FR1	3	R1293P
2226.674	0.0	2228217	TRIAL_START	n/a	n/a	n/a	-999	11	[0, 0, 0]	n/a	FR1	3	R1293P
2226.674	0.001	2228217	TRIAL	n/a	n/a	n/a	-999	11	[0, 0, 0]	n/a	FR1	3	R1293P
2226.675	137.185	2228218	WAITING_START	n/a	n/a	n/a	-999	11	[0, 0, 0]	n/a	FR1	3	R1293P
2363.86	0.001	2365396	WAITING_END	n/a	n/a	n/a	-999	11	[0, 0, 0]	n/a	FR1	3	R1293P
2363.861	10.429	2365397	COUNTDOWN_START	n/a	n/a	n/a	-999	11	[0, 0, 0]	n/a	FR1	3	R1293P
2374.29	0.001	2375826	COUNTDOWN_END	n/a	n/a	n/a	-999	11	[0, 0, 0]	n/a	FR1	3	R1293P
2374.291	1.054	2375827	ORIENT_START	n/a	n/a	n/a	-999	11	[0, 0, 0]	n/a	FR1	3	R1293P
2375.345	0.001	2376881	ORIENT_END	n/a	n/a	n/a	-999	11	[0, 0, 0]	n/a	FR1	3	R1293P
2375.346	0.863	2376882	ENCODING_START	n/a	n/a	n/a	-999	11	[0, 0, 0]	n/a	FR1	3	R1293P
2376.209	1.637	2377745	WORD	n/a	n/a	CLIFF	1	11	[0, 0, 0]	n/a	FR1	3	R1293P
2377.846	0.78	2379382	WORD_OFF	n/a	n/a	CLIFF	1	11	[0, 0, 0]	n/a	FR1	3	R1293P
2378.626	1.636	2380161	WORD	n/a	n/a	GOAT	2	11	[0, 0, 0]	n/a	FR1	3	R1293P
2380.262	0.854	2381797	WORD_OFF	n/a	n/a	GOAT	2	11	[0, 0, 0]	n/a	FR1	3	R1293P
2381.116	1.63	2382651	WORD	n/a	n/a	COW	3	11	[0, 0, 0]	n/a	FR1	3	R1293P
2382.746	0.977	2384281	WORD_OFF	n/a	n/a	COW	3	11	[0, 0, 0]	n/a	FR1	3	R1293P
2383.723	1.624	2385258	WORD	n/a	n/a	MOTH	4	11	[0, 0, 0]	n/a	FR1	3	R1293P
2385.347	1.093	2386882	WORD_OFF	n/a	n/a	MOTH	4	11	[0, 0, 0]	n/a	FR1	3	R1293P
2386.44	1.625	2387975	WORD	n/a	n/a	DEER	5	11	[0, 0, 0]	n/a	FR1	3	R1293P
2388.065	0.996	2389600	WORD_OFF	n/a	n/a	DEER	5	11	[0, 0, 0]	n/a	FR1	3	R1293P
2389.061	1.637	2390596	WORD	n/a	n/a	ZOO	6	11	[0, 0, 0]	n/a	FR1	3	R1293P
2390.698	0.905	2392233	WORD_OFF	n/a	n/a	ZOO	6	11	[0, 0, 0]	n/a	FR1	3	R1293P
2391.603	1.628	2393138	WORD	n/a	n/a	SUIT	7	11	[0, 0, 0]	n/a	FR1	3	R1293P
2393.231	0.837	2394766	WORD_OFF	n/a	n/a	SUIT	7	11	[0, 0, 0]	n/a	FR1	3	R1293P
2394.068	1.631	2395603	WORD	n/a	n/a	HOLE	8	11	[0, 0, 0]	n/a	FR1	3	R1293P
2395.699	0.834	2397234	WORD_OFF	n/a	n/a	HOLE	8	11	[0, 0, 0]	n/a	FR1	3	R1293P
2396.533	1.633	2398068	WORD	n/a	n/a	DART	9	11	[0, 0, 0]	n/a	FR1	3	R1293P
2398.166	0.79	2399700	WORD_OFF	n/a	n/a	DART	9	11	[0, 0, 0]	n/a	FR1	3	R1293P
2398.956	1.627	2400490	WORD	n/a	n/a	CAPE	10	11	[0, 0, 0]	n/a	FR1	3	R1293P
2400.583	0.893	2402117	WORD_OFF	n/a	n/a	CAPE	10	11	[0, 0, 0]	n/a	FR1	3	R1293P
2401.476	1.625	2403010	WORD	n/a	n/a	MUG	11	11	[0, 0, 0]	n/a	FR1	3	R1293P
2403.101	1.14	2404635	WORD_OFF	n/a	n/a	MUG	11	11	[0, 0, 0]	n/a	FR1	3	R1293P
2404.241	1.61	2405775	WORD	n/a	n/a	HOSE	12	11	[0, 0, 0]	n/a	FR1	3	R1293P
2405.851	0.001	2407385	WORD_OFF	n/a	n/a	HOSE	12	11	[0, 0, 0]	n/a	FR1	3	R1293P
2405.852	0.001	2407386	ENCODING_END	n/a	n/a	n/a	-999	11	[0, 0, 0]	n/a	FR1	3	R1293P
2405.853	0.0	2407387	DISTRACT_START	n/a	n/a	n/a	-999	11	[0, 0, 0]	n/a	FR1	3	R1293P
2405.853	0.015	2407387	START	n/a	n/a	n/a	-999	11	[-999, -999, -999]	n/a	FR1	3	R1293P
2405.868	3.616	2407402	PROB	3.616	n/a	n/a	-999	11	[2, 5, 4]	11	FR1	3	R1293P
2409.484	1.984	2411018	PROB	1.984	n/a	n/a	-999	11	[3, 4, 1]	8	FR1	3	R1293P
2411.468	2.435	2413002	PROB	2.435	n/a	n/a	-999	11	[2, 6, 9]	17	FR1	3	R1293P
2413.903	2.433	2415437	PROB	2.433	n/a	n/a	-999	11	[4, 6, 9]	19	FR1	3	R1293P
2416.336	2.317	2417870	PROB	2.317	n/a	n/a	-999	11	[6, 3, 7]	16	FR1	3	R1293P
2418.653	1.717	2420186	PROB	1.717	n/a	n/a	-999	11	[6, 6, 1]	13	FR1	3	R1293P
2420.37	2.551	2421903	PROB	2.551	n/a	n/a	-999	11	[5, 8, 7]	20	FR1	3	R1293P
2422.921	4.444	2424454	PROB	4.444	n/a	n/a	-999	11	[9, 9, 7]	25	FR1	3	R1293P
2427.365	0.023	2428898	STOP	n/a	n/a	n/a	-999	11	[-999, -999, -999]	n/a	FR1	3	R1293P
2427.388	0.605	2428921	DISTRACT_END	n/a	n/a	n/a	-999	11	[0, 0, 0]	n/a	FR1	3	R1293P
2427.993	1.629	2429526	RETRIEVAL_ORIENT_START	n/a	n/a	n/a	-999	11	[0, 0, 0]	n/a	FR1	3	R1293P
2429.622	0.0	2431155	REC_START	n/a	n/a	n/a	-999	11	[0, 0, 0]	n/a	FR1	3	R1293P
2429.622	3.3	2431155	RETRIEVAL_ORIENT_END	n/a	n/a	n/a	-999	11	[0, 0, 0]	n/a	FR1	3	R1293P
2432.922	0.709	2434455	REC_WORD	0.709	n/a	CLIFF	1	11	[0, 0, 0]	n/a	FR1	3	R1293P
2433.631	0.715	2435164	REC_WORD	0.715	n/a	GOAT	2	11	[0, 0, 0]	n/a	FR1	3	R1293P
2434.346	0.705	2435879	REC_WORD	0.705	n/a	COW	3	11	[0, 0, 0]	n/a	FR1	3	R1293P
2435.051	0.885	2436584	REC_WORD	0.885	n/a	MUD	-999	11	[0, 0, 0]	n/a	FR1	3	R1293P
2435.936	23.697	2437469	REC_WORD	23.697	n/a	ZOO	6	11	[0, 0, 0]	n/a	FR1	3	R1293P
2459.633	0.001	2461164	REC_END	n/a	n/a	n/a	-999	11	[0, 0, 0]	n/a	FR1	3	R1293P
2459.634	0.014	2461165	TRIAL_END	n/a	n/a	n/a	-999	11	[0, 0, 0]	n/a	FR1	3	R1293P
2459.648	0.0	2461179	TRIAL	n/a	n/a	n/a	-999	12	[0, 0, 0]	n/a	FR1	3	R1293P
2459.648	0.001	2461179	TRIAL_START	n/a	n/a	n/a	-999	12	[0, 0, 0]	n/a	FR1	3	R1293P
2459.649	53.021	2461180	WAITING_START	n/a	n/a	n/a	-999	12	[0, 0, 0]	n/a	FR1	3	R1293P
2512.67	0.001	2514199	WAITING_END	n/a	n/a	n/a	-999	12	[0, 0, 0]	n/a	FR1	3	R1293P
2512.671	10.429	2514200	COUNTDOWN_START	n/a	n/a	n/a	-999	12	[0, 0, 0]	n/a	FR1	3	R1293P
2523.1	0.001	2524628	COUNTDOWN_END	n/a	n/a	n/a	-999	12	[0, 0, 0]	n/a	FR1	3	R1293P
2523.101	1.138	2524629	ORIENT_START	n/a	n/a	n/a	-999	12	[0, 0, 0]	n/a	FR1	3	R1293P
2524.239	0.001	2525767	ORIENT_END	n/a	n/a	n/a	-999	12	[0, 0, 0]	n/a	FR1	3	R1293P
2524.24	0.754	2525768	ENCODING_START	n/a	n/a	n/a	-999	12	[0, 0, 0]	n/a	FR1	3	R1293P
2524.994	1.629	2526522	WORD	n/a	n/a	HEART	1	12	[0, 0, 0]	n/a	FR1	3	R1293P
2526.623	1.112	2528151	WORD_OFF	n/a	n/a	HEART	1	12	[0, 0, 0]	n/a	FR1	3	R1293P
2527.735	1.622	2529263	WORD	n/a	n/a	SHIELD	2	12	[0, 0, 0]	n/a	FR1	3	R1293P
2529.357	1.113	2530885	WORD_OFF	n/a	n/a	SHIELD	2	12	[0, 0, 0]	n/a	FR1	3	R1293P
2530.47	1.605	2531998	WORD	n/a	n/a	BEAK	3	12	[0, 0, 0]	n/a	FR1	3	R1293P
2532.075	0.928	2533603	WORD_OFF	n/a	n/a	BEAK	3	12	[0, 0, 0]	n/a	FR1	3	R1293P
2533.003	1.622	2534530	WORD	n/a	n/a	TOOTH	4	12	[0, 0, 0]	n/a	FR1	3	R1293P
2534.625	1.035	2536152	WORD_OFF	n/a	n/a	TOOTH	4	12	[0, 0, 0]	n/a	FR1	3	R1293P
2535.66	1.632	2537187	WORD	n/a	n/a	STORM	5	12	[0, 0, 0]	n/a	FR1	3	R1293P
2537.292	0.899	2538819	WORD_OFF	n/a	n/a	STORM	5	12	[0, 0, 0]	n/a	FR1	3	R1293P
2538.191	1.635	2539718	WORD	n/a	n/a	GATE	6	12	[0, 0, 0]	n/a	FR1	3	R1293P
2539.826	1.055	2541353	WORD_OFF	n/a	n/a	GATE	6	12	[0, 0, 0]	n/a	FR1	3	R1293P
2540.881	1.628	2542408	WORD	n/a	n/a	AXE	7	12	[0, 0, 0]	n/a	FR1	3	R1293P
2542.509	0.936	2544036	WORD_OFF	n/a	n/a	AXE	7	12	[0, 0, 0]	n/a	FR1	3	R1293P
2543.445	1.616	2544972	WORD	n/a	n/a	RICE	8	12	[0, 0, 0]	n/a	FR1	3	R1293P
2545.061	1.04	2546588	WORD_OFF	n/a	n/a	RICE	8	12	[0, 0, 0]	n/a	FR1	3	R1293P
2546.101	1.626	2547628	WORD	n/a	n/a	VAN	9	12	[0, 0, 0]	n/a	FR1	3	R1293P
2547.727	0.839	2549254	WORD_OFF	n/a	n/a	VAN	9	12	[0, 0, 0]	n/a	FR1	3	R1293P
2548.566	1.628	2550093	WORD	n/a	n/a	TEA	10	12	[0, 0, 0]	n/a	FR1	3	R1293P
2550.194	0.939	2551721	WORD_OFF	n/a	n/a	TEA	10	12	[0, 0, 0]	n/a	FR1	3	R1293P
2551.133	1.628	2552660	WORD	n/a	n/a	WOOD	11	12	[0, 0, 0]	n/a	FR1	3	R1293P
2552.761	1.084	2554287	WORD_OFF	n/a	n/a	WOOD	11	12	[0, 0, 0]	n/a	FR1	3	R1293P
2553.845	1.634	2555371	WORD	n/a	n/a	SEA	12	12	[0, 0, 0]	n/a	FR1	3	R1293P
2555.479	0.001	2557005	WORD_OFF	n/a	n/a	SEA	12	12	[0, 0, 0]	n/a	FR1	3	R1293P
2555.48	0.0	2557006	ENCODING_END	n/a	n/a	n/a	-999	12	[0, 0, 0]	n/a	FR1	3	R1293P
2555.48	0.001	2557006	DISTRACT_START	n/a	n/a	n/a	-999	12	[0, 0, 0]	n/a	FR1	3	R1293P
2555.481	0.014	2557007	START	n/a	n/a	n/a	-999	12	[-999, -999, -999]	n/a	FR1	3	R1293P
2555.495	3.251	2557021	PROB	3.251	n/a	n/a	-999	12	[8, 4, 3]	15	FR1	3	R1293P
2558.746	2.5	2560272	PROB	2.5	n/a	n/a	-999	12	[5, 6, 1]	12	FR1	3	R1293P
2561.246	1.785	2562772	PROB	1.785	n/a	n/a	-999	12	[2, 8, 2]	12	FR1	3	R1293P
2563.031	2.433	2564557	PROB	2.433	n/a	n/a	-999	12	[8, 8, 2]	18	FR1	3	R1293P
2565.464	2.9	2566990	PROB	2.9	n/a	n/a	-999	12	[8, 8, 6]	22	FR1	3	R1293P
2568.364	2.051	2569890	PROB	2.051	n/a	n/a	-999	12	[4, 3, 8]	15	FR1	3	R1293P
2570.415	3.284	2571941	PROB	3.284	n/a	n/a	-999	12	[6, 7, 6]	19	FR1	3	R1293P
2573.699	4.672	2575224	PROB	4.672	n/a	n/a	-999	12	[9, 4, 3]	16	FR1	3	R1293P
2578.371	0.012	2579896	STOP	n/a	n/a	n/a	-999	12	[-999, -999, -999]	n/a	FR1	3	R1293P
2578.383	0.697	2579908	DISTRACT_END	n/a	n/a	n/a	-999	12	[0, 0, 0]	n/a	FR1	3	R1293P
2579.08	1.553	2580605	RETRIEVAL_ORIENT_START	n/a	n/a	n/a	-999	12	[0, 0, 0]	n/a	FR1	3	R1293P
2580.633	0.001	2582158	RETRIEVAL_ORIENT_END	n/a	n/a	n/a	-999	12	[0, 0, 0]	n/a	FR1	3	R1293P
2580.634	30.013	2582159	REC_START	n/a	n/a	n/a	-999	12	[0, 0, 0]	n/a	FR1	3	R1293P
2610.647	0.001	2612170	REC_END	n/a	n/a	n/a	-999	12	[0, 0, 0]	n/a	FR1	3	R1293P
2610.648	0.014	2612171	TRIAL_END	n/a	n/a	n/a	-999	12	[0, 0, 0]	n/a	FR1	3	R1293P
2610.662	0.0	2612185	TRIAL_START	n/a	n/a	n/a	-999	13	[0, 0, 0]	n/a	FR1	3	R1293P
2610.662	0.001	2612185	TRIAL	n/a	n/a	n/a	-999	13	[0, 0, 0]	n/a	FR1	3	R1293P
2610.663	30.249	2612186	WAITING_START	n/a	n/a	n/a	-999	13	[0, 0, 0]	n/a	FR1	3	R1293P
2640.912	0.001	2642434	WAITING_END	n/a	n/a	n/a	-999	13	[0, 0, 0]	n/a	FR1	3	R1293P
2640.913	10.43	2642435	COUNTDOWN_START	n/a	n/a	n/a	-999	13	[0, 0, 0]	n/a	FR1	3	R1293P
2651.343	0.001	2652864	COUNTDOWN_END	n/a	n/a	n/a	-999	13	[0, 0, 0]	n/a	FR1	3	R1293P
2651.344	1.036	2652865	ORIENT_START	n/a	n/a	n/a	-999	13	[0, 0, 0]	n/a	FR1	3	R1293P
2652.38	0.001	2653901	ORIENT_END	n/a	n/a	n/a	-999	13	[0, 0, 0]	n/a	FR1	3	R1293P
2652.381	0.894	2653902	ENCODING_START	n/a	n/a	n/a	-999	13	[0, 0, 0]	n/a	FR1	3	R1293P
2653.275	1.607	2654796	WORD	n/a	n/a	BROOM	1	13	[0, 0, 0]	n/a	FR1	3	R1293P
2654.882	0.804	2656403	WORD_OFF	n/a	n/a	BROOM	1	13	[0, 0, 0]	n/a	FR1	3	R1293P
2655.686	1.629	2657207	WORD	n/a	n/a	FACE	2	13	[0, 0, 0]	n/a	FR1	3	R1293P
2657.315	0.916	2658836	WORD_OFF	n/a	n/a	FACE	2	13	[0, 0, 0]	n/a	FR1	3	R1293P
2658.231	1.635	2659752	WORD	n/a	n/a	BADGE	3	13	[0, 0, 0]	n/a	FR1	3	R1293P
2659.866	1.006	2661387	WORD_OFF	n/a	n/a	BADGE	3	13	[0, 0, 0]	n/a	FR1	3	R1293P
2660.872	1.627	2662393	WORD	n/a	n/a	BENCH	4	13	[0, 0, 0]	n/a	FR1	3	R1293P
2662.499	0.81	2664020	WORD_OFF	n/a	n/a	BENCH	4	13	[0, 0, 0]	n/a	FR1	3	R1293P
2663.309	1.625	2664830	WORD	n/a	n/a	LAMP	5	13	[0, 0, 0]	n/a	FR1	3	R1293P
2664.934	1.125	2666455	WORD_OFF	n/a	n/a	LAMP	5	13	[0, 0, 0]	n/a	FR1	3	R1293P
2666.059	1.624	2667580	WORD	n/a	n/a	APE	6	13	[0, 0, 0]	n/a	FR1	3	R1293P
2667.683	0.799	2669204	WORD_OFF	n/a	n/a	APE	6	13	[0, 0, 0]	n/a	FR1	3	R1293P
2668.482	1.635	2670002	WORD	n/a	n/a	PEARL	7	13	[0, 0, 0]	n/a	FR1	3	R1293P
2670.117	1.049	2671637	WORD_OFF	n/a	n/a	PEARL	7	13	[0, 0, 0]	n/a	FR1	3	R1293P
2671.166	1.635	2672686	WORD	n/a	n/a	CART	8	13	[0, 0, 0]	n/a	FR1	3	R1293P
2672.801	0.767	2674321	WORD_OFF	n/a	n/a	CART	8	13	[0, 0, 0]	n/a	FR1	3	R1293P
2673.568	1.633	2675088	WORD	n/a	n/a	HAT	9	13	[0, 0, 0]	n/a	FR1	3	R1293P
2675.201	1.123	2676721	WORD_OFF	n/a	n/a	HAT	9	13	[0, 0, 0]	n/a	FR1	3	R1293P
2676.324	1.629	2677844	WORD	n/a	n/a	PANTS	10	13	[0, 0, 0]	n/a	FR1	3	R1293P
2677.953	0.908	2679473	WORD_OFF	n/a	n/a	PANTS	10	13	[0, 0, 0]	n/a	FR1	3	R1293P
2678.861	1.625	2680381	WORD	n/a	n/a	GOLD	11	13	[0, 0, 0]	n/a	FR1	3	R1293P
2680.486	0.771	2682006	WORD_OFF	n/a	n/a	GOLD	11	13	[0, 0, 0]	n/a	FR1	3	R1293P
2681.257	1.63	2682777	WORD	n/a	n/a	EEL	12	13	[0, 0, 0]	n/a	FR1	3	R1293P
2682.887	0.001	2684407	WORD_OFF	n/a	n/a	EEL	12	13	[0, 0, 0]	n/a	FR1	3	R1293P
2682.888	0.0	2684408	ENCODING_END	n/a	n/a	n/a	-999	13	[0, 0, 0]	n/a	FR1	3	R1293P
2682.888	0.001	2684408	DISTRACT_START	n/a	n/a	n/a	-999	13	[0, 0, 0]	n/a	FR1	3	R1293P
2682.889	0.014	2684409	START	n/a	n/a	n/a	-999	13	[-999, -999, -999]	n/a	FR1	3	R1293P
2682.903	3.184	2684423	PROB	3.184	n/a	n/a	-999	13	[1, 8, 1]	10	FR1	3	R1293P
2686.087	3.117	2687607	PROB	3.117	n/a	n/a	-999	13	[2, 6, 5]	13	FR1	3	R1293P
2689.204	3.067	2690723	PROB	3.067	n/a	n/a	-999	13	[5, 8, 5]	18	FR1	3	R1293P
2692.271	3.167	2693790	PROB	3.167	n/a	n/a	-999	13	[4, 6, 8]	18	FR1	3	R1293P
2695.438	4.284	2696957	PROB	4.284	n/a	n/a	-999	13	[7, 1, 8]	16	FR1	3	R1293P
2699.722	1.951	2701241	PROB	1.951	n/a	n/a	-999	13	[3, 4, 4]	11	FR1	3	R1293P
2701.673	4.238	2703192	PROB	4.238	n/a	n/a	-999	13	[8, 9, 2]	19	FR1	3	R1293P
2705.911	0.014	2707430	STOP	n/a	n/a	n/a	-999	13	[-999, -999, -999]	n/a	FR1	3	R1293P
2705.925	0.601	2707444	DISTRACT_END	n/a	n/a	n/a	-999	13	[0, 0, 0]	n/a	FR1	3	R1293P
2706.526	1.715	2708045	RETRIEVAL_ORIENT_START	n/a	n/a	n/a	-999	13	[0, 0, 0]	n/a	FR1	3	R1293P
2708.241	0.001	2709759	RETRIEVAL_ORIENT_END	n/a	n/a	n/a	-999	13	[0, 0, 0]	n/a	FR1	3	R1293P
2708.242	1.854	2709760	REC_START	n/a	n/a	n/a	-999	13	[0, 0, 0]	n/a	FR1	3	R1293P
2710.096	3.426	2711614	REC_WORD_VV	3.426	n/a	<>	-999	13	[0, 0, 0]	n/a	FR1	3	R1293P
2713.522	0.485	2715040	REC_WORD	0.485	n/a	BROOM	1	13	[0, 0, 0]	n/a	FR1	3	R1293P
2714.007	0.84	2715525	REC_WORD	0.84	n/a	FACE	2	13	[0, 0, 0]	n/a	FR1	3	R1293P
2714.847	0.615	2716365	REC_WORD	0.615	n/a	BADGE	3	13	[0, 0, 0]	n/a	FR1	3	R1293P
2715.462	0.735	2716980	REC_WORD	0.735	n/a	BENCH	4	13	[0, 0, 0]	n/a	FR1	3	R1293P
2716.197	0.595	2717715	REC_WORD	0.595	n/a	APE	6	13	[0, 0, 0]	n/a	FR1	3	R1293P
2716.792	21.462	2718310	REC_WORD	21.462	n/a	LAMP	5	13	[0, 0, 0]	n/a	FR1	3	R1293P
2738.254	0.0	2739771	REC_END	n/a	n/a	n/a	-999	13	[0, 0, 0]	n/a	FR1	3	R1293P
2738.254	0.016	2739771	TRIAL_END	n/a	n/a	n/a	-999	13	[0, 0, 0]	n/a	FR1	3	R1293P
2738.27	0.0	2739787	TRIAL_START	n/a	n/a	n/a	-999	14	[0, 0, 0]	n/a	FR1	3	R1293P
2738.27	0.001	2739787	TRIAL	n/a	n/a	n/a	-999	14	[0, 0, 0]	n/a	FR1	3	R1293P
2738.271	10.561	2739788	WAITING_START	n/a	n/a	n/a	-999	14	[0, 0, 0]	n/a	FR1	3	R1293P
2748.832	0.001	2750348	WAITING_END	n/a	n/a	n/a	-999	14	[0, 0, 0]	n/a	FR1	3	R1293P
2748.833	10.429	2750349	COUNTDOWN_START	n/a	n/a	n/a	-999	14	[0, 0, 0]	n/a	FR1	3	R1293P
2759.262	0.001	2760778	COUNTDOWN_END	n/a	n/a	n/a	-999	14	[0, 0, 0]	n/a	FR1	3	R1293P
2759.263	1.238	2760779	ORIENT_START	n/a	n/a	n/a	-999	14	[0, 0, 0]	n/a	FR1	3	R1293P
2760.501	0.001	2762017	ORIENT_END	n/a	n/a	n/a	-999	14	[0, 0, 0]	n/a	FR1	3	R1293P
2760.502	1.139	2762018	ENCODING_START	n/a	n/a	n/a	-999	14	[0, 0, 0]	n/a	FR1	3	R1293P
2761.641	1.627	2763157	WORD	n/a	n/a	SPOON	1	14	[0, 0, 0]	n/a	FR1	3	R1293P
2763.268	1.12	2764784	WORD_OFF	n/a	n/a	SPOON	1	14	[0, 0, 0]	n/a	FR1	3	R1293P
2764.388	1.615	2765904	WORD	n/a	n/a	WOLF	2	14	[0, 0, 0]	n/a	FR1	3	R1293P
2766.003	0.76	2767518	WORD_OFF	n/a	n/a	WOLF	2	14	[0, 0, 0]	n/a	FR1	3	R1293P
2766.763	1.622	2768278	WORD	n/a	n/a	TOAD	3	14	[0, 0, 0]	n/a	FR1	3	R1293P
2768.385	1.087	2769900	WORD_OFF	n/a	n/a	TOAD	3	14	[0, 0, 0]	n/a	FR1	3	R1293P
2769.472	1.632	2770987	WORD	n/a	n/a	DRUM	4	14	[0, 0, 0]	n/a	FR1	3	R1293P
2771.104	1.088	2772619	WORD_OFF	n/a	n/a	DRUM	4	14	[0, 0, 0]	n/a	FR1	3	R1293P
2772.192	1.628	2773707	WORD	n/a	n/a	ANT	5	14	[0, 0, 0]	n/a	FR1	3	R1293P
2773.82	0.775	2775335	WORD_OFF	n/a	n/a	ANT	5	14	[0, 0, 0]	n/a	FR1	3	R1293P
2774.595	1.625	2776110	WORD	n/a	n/a	WORLD	6	14	[0, 0, 0]	n/a	FR1	3	R1293P
2776.22	1.129	2777735	WORD_OFF	n/a	n/a	WORLD	6	14	[0, 0, 0]	n/a	FR1	3	R1293P
2777.349	1.606	2778864	WORD	n/a	n/a	LAMB	7	14	[0, 0, 0]	n/a	FR1	3	R1293P
2778.955	0.936	2780470	WORD_OFF	n/a	n/a	LAMB	7	14	[0, 0, 0]	n/a	FR1	3	R1293P
2779.891	1.63	2781406	WORD	n/a	n/a	SKI	8	14	[0, 0, 0]	n/a	FR1	3	R1293P
2781.521	1.007	2783036	WORD_OFF	n/a	n/a	SKI	8	14	[0, 0, 0]	n/a	FR1	3	R1293P
2782.528	1.627	2784043	WORD	n/a	n/a	ROSE	9	14	[0, 0, 0]	n/a	FR1	3	R1293P
2784.155	0.987	2785669	WORD_OFF	n/a	n/a	ROSE	9	14	[0, 0, 0]	n/a	FR1	3	R1293P
2785.142	1.63	2786656	WORD	n/a	n/a	FARM	10	14	[0, 0, 0]	n/a	FR1	3	R1293P
2786.772	0.894	2788286	WORD_OFF	n/a	n/a	FARM	10	14	[0, 0, 0]	n/a	FR1	3	R1293P
2787.666	1.624	2789180	WORD	n/a	n/a	TENT	11	14	[0, 0, 0]	n/a	FR1	3	R1293P
2789.29	1.084	2790804	WORD_OFF	n/a	n/a	TENT	11	14	[0, 0, 0]	n/a	FR1	3	R1293P
2790.374	1.617	2791888	WORD	n/a	n/a	HOOK	12	14	[0, 0, 0]	n/a	FR1	3	R1293P
2791.991	0.001	2793505	WORD_OFF	n/a	n/a	HOOK	12	14	[0, 0, 0]	n/a	FR1	3	R1293P
2791.992	0.0	2793506	DISTRACT_START	n/a	n/a	n/a	-999	14	[0, 0, 0]	n/a	FR1	3	R1293P
2791.992	0.001	2793506	ENCODING_END	n/a	n/a	n/a	-999	14	[0, 0, 0]	n/a	FR1	3	R1293P
2791.993	0.014	2793507	START	n/a	n/a	n/a	-999	14	[-999, -999, -999]	n/a	FR1	3	R1293P
2792.007	2.55	2793521	PROB	2.55	n/a	n/a	-999	14	[8, 2, 1]	11	FR1	3	R1293P
2794.557	1.917	2796071	PROB	1.917	n/a	n/a	-999	14	[1, 6, 6]	13	FR1	3	R1293P
2796.474	2.3	2797988	PROB	2.3	n/a	n/a	-999	14	[5, 8, 2]	15	FR1	3	R1293P
2798.774	3.734	2800288	PROB	3.734	n/a	n/a	-999	14	[9, 5, 8]	22	FR1	3	R1293P
2802.508	2.385	2804022	PROB	2.385	n/a	n/a	-999	14	[7, 2, 8]	17	FR1	3	R1293P
2804.893	2.6	2806406	PROB	2.6	n/a	n/a	-999	14	[6, 4, 8]	18	FR1	3	R1293P
2807.493	2.683	2809006	PROB	2.683	n/a	n/a	-999	14	[9, 6, 2]	17	FR1	3	R1293P
2810.176	2.266	2811689	PROB	2.266	n/a	n/a	-999	14	[1, 7, 5]	13	FR1	3	R1293P
2812.442	0.018	2813955	STOP	n/a	n/a	n/a	-999	14	[-999, -999, -999]	n/a	FR1	3	R1293P
2812.46	0.561	2813973	DISTRACT_END	n/a	n/a	n/a	-999	14	[0, 0, 0]	n/a	FR1	3	R1293P
2813.021	1.64	2814534	RETRIEVAL_ORIENT_START	n/a	n/a	n/a	-999	14	[0, 0, 0]	n/a	FR1	3	R1293P
2814.661	0.001	2816174	RETRIEVAL_ORIENT_END	n/a	n/a	n/a	-999	14	[0, 0, 0]	n/a	FR1	3	R1293P
2814.662	30.011	2816175	REC_START	n/a	n/a	n/a	-999	14	[0, 0, 0]	n/a	FR1	3	R1293P
2844.673	0.001	2846184	REC_END	n/a	n/a	n/a	-999	14	[0, 0, 0]	n/a	FR1	3	R1293P
2844.674	0.014	2846185	TRIAL_END	n/a	n/a	n/a	-999	14	[0, 0, 0]	n/a	FR1	3	R1293P
2844.688	0.001	2846199	TRIAL_START	n/a	n/a	n/a	-999	15	[0, 0, 0]	n/a	FR1	3	R1293P
2844.689	0.0	2846200	TRIAL	n/a	n/a	n/a	-999	15	[0, 0, 0]	n/a	FR1	3	R1293P
2844.689	11.98	2846200	WAITING_START	n/a	n/a	n/a	-999	15	[0, 0, 0]	n/a	FR1	3	R1293P
2856.669	0.001	2858180	WAITING_END	n/a	n/a	n/a	-999	15	[0, 0, 0]	n/a	FR1	3	R1293P
2856.67	10.429	2858181	COUNTDOWN_START	n/a	n/a	n/a	-999	15	[0, 0, 0]	n/a	FR1	3	R1293P
2867.099	0.001	2868609	COUNTDOWN_END	n/a	n/a	n/a	-999	15	[0, 0, 0]	n/a	FR1	3	R1293P
2867.1	1.154	2868610	ORIENT_START	n/a	n/a	n/a	-999	15	[0, 0, 0]	n/a	FR1	3	R1293P
2868.254	0.001	2869764	ORIENT_END	n/a	n/a	n/a	-999	15	[0, 0, 0]	n/a	FR1	3	R1293P
2868.255	0.794	2869765	ENCODING_START	n/a	n/a	n/a	-999	15	[0, 0, 0]	n/a	FR1	3	R1293P
2869.049	1.622	2870559	WORD	n/a	n/a	MULE	1	15	[0, 0, 0]	n/a	FR1	3	R1293P
2870.671	1.027	2872181	WORD_OFF	n/a	n/a	MULE	1	15	[0, 0, 0]	n/a	FR1	3	R1293P
2871.698	1.624	2873208	WORD	n/a	n/a	KEY	2	15	[0, 0, 0]	n/a	FR1	3	R1293P
2873.322	0.821	2874832	WORD_OFF	n/a	n/a	KEY	2	15	[0, 0, 0]	n/a	FR1	3	R1293P
2874.143	1.629	2875653	WORD	n/a	n/a	FORK	3	15	[0, 0, 0]	n/a	FR1	3	R1293P
2875.772	0.785	2877282	WORD_OFF	n/a	n/a	FORK	3	15	[0, 0, 0]	n/a	FR1	3	R1293P
2876.557	1.632	2878067	WORD	n/a	n/a	CAVE	4	15	[0, 0, 0]	n/a	FR1	3	R1293P
2878.189	1.081	2879699	WORD_OFF	n/a	n/a	CAVE	4	15	[0, 0, 0]	n/a	FR1	3	R1293P
2879.27	1.621	2880780	WORD	n/a	n/a	CHAIR	5	15	[0, 0, 0]	n/a	FR1	3	R1293P
2880.891	0.994	2882400	WORD_OFF	n/a	n/a	CHAIR	5	15	[0, 0, 0]	n/a	FR1	3	R1293P
2881.885	1.622	2883394	WORD	n/a	n/a	POOL	6	15	[0, 0, 0]	n/a	FR1	3	R1293P
2883.507	0.818	2885016	WORD_OFF	n/a	n/a	POOL	6	15	[0, 0, 0]	n/a	FR1	3	R1293P
2884.325	1.617	2885834	WORD	n/a	n/a	CUP	7	15	[0, 0, 0]	n/a	FR1	3	R1293P
2885.942	0.838	2887451	WORD_OFF	n/a	n/a	CUP	7	15	[0, 0, 0]	n/a	FR1	3	R1293P
2886.78	1.628	2888289	WORD	n/a	n/a	FOX	8	15	[0, 0, 0]	n/a	FR1	3	R1293P
2888.408	1.062	2889917	WORD_OFF	n/a	n/a	FOX	8	15	[0, 0, 0]	n/a	FR1	3	R1293P
2889.47	1.623	2890979	WORD	n/a	n/a	BREAD	9	15	[0, 0, 0]	n/a	FR1	3	R1293P
2891.093	0.845	2892602	WORD_OFF	n/a	n/a	BREAD	9	15	[0, 0, 0]	n/a	FR1	3	R1293P
2891.938	1.621	2893447	WORD	n/a	n/a	STONE	10	15	[0, 0, 0]	n/a	FR1	3	R1293P
2893.559	1.055	2895068	WORD_OFF	n/a	n/a	STONE	10	15	[0, 0, 0]	n/a	FR1	3	R1293P
2894.614	1.629	2896123	WORD	n/a	n/a	ROCK	11	15	[0, 0, 0]	n/a	FR1	3	R1293P
2896.243	0.804	2897752	WORD_OFF	n/a	n/a	ROCK	11	15	[0, 0, 0]	n/a	FR1	3	R1293P
2897.047	1.63	2898556	WORD	n/a	n/a	DOCK	12	15	[0, 0, 0]	n/a	FR1	3	R1293P
2898.677	0.001	2900186	WORD_OFF	n/a	n/a	DOCK	12	15	[0, 0, 0]	n/a	FR1	3	R1293P
2898.678	0.0	2900187	ENCODING_END	n/a	n/a	n/a	-999	15	[0, 0, 0]	n/a	FR1	3	R1293P
2898.678	0.001	2900187	DISTRACT_START	n/a	n/a	n/a	-999	15	[0, 0, 0]	n/a	FR1	3	R1293P
2898.679	0.014	2900188	START	n/a	n/a	n/a	-999	15	[-999, -999, -999]	n/a	FR1	3	R1293P
2898.693	3.402	2900202	PROB	3.402	n/a	n/a	-999	15	[5, 8, 3]	16	FR1	3	R1293P
2902.095	3.083	2903603	PROB	3.083	n/a	n/a	-999	15	[9, 4, 3]	16	FR1	3	R1293P
2905.178	2.668	2906686	PROB	2.668	n/a	n/a	-999	15	[5, 7, 1]	13	FR1	3	R1293P
2907.846	2.533	2909354	PROB	2.533	n/a	n/a	-999	15	[8, 8, 4]	20	FR1	3	R1293P
2910.379	1.783	2911887	PROB	1.783	n/a	n/a	-999	15	[2, 3, 7]	12	FR1	3	R1293P
2912.162	2.117	2913670	PROB	2.117	n/a	n/a	-999	15	[1, 1, 7]	9	FR1	3	R1293P
2914.279	2.084	2915787	PROB	2.084	n/a	n/a	-999	15	[8, 2, 5]	15	FR1	3	R1293P
2916.363	2.317	2917871	PROB	2.317	n/a	n/a	-999	15	[6, 8, 7]	21	FR1	3	R1293P
2918.68	2.747	2920188	PROB	2.747	n/a	n/a	-999	15	[4, 9, 3]	16	FR1	3	R1293P
2921.427	0.021	2922934	STOP	n/a	n/a	n/a	-999	15	[-999, -999, -999]	n/a	FR1	3	R1293P
2921.448	0.664	2922955	DISTRACT_END	n/a	n/a	n/a	-999	15	[0, 0, 0]	n/a	FR1	3	R1293P
2922.112	1.569	2923619	RETRIEVAL_ORIENT_START	n/a	n/a	n/a	-999	15	[0, 0, 0]	n/a	FR1	3	R1293P
2923.681	0.001	2925188	RETRIEVAL_ORIENT_END	n/a	n/a	n/a	-999	15	[0, 0, 0]	n/a	FR1	3	R1293P
2923.682	30.013	2925189	REC_START	n/a	n/a	n/a	-999	15	[0, 0, 0]	n/a	FR1	3	R1293P
2953.695	0.0	2955201	REC_END	n/a	n/a	n/a	-999	15	[0, 0, 0]	n/a	FR1	3	R1293P
2953.695	0.015	2955201	TRIAL_END	n/a	n/a	n/a	-999	15	[0, 0, 0]	n/a	FR1	3	R1293P
2953.71	0.0	2955216	TRIAL	n/a	n/a	n/a	-999	16	[0, 0, 0]	n/a	FR1	3	R1293P
2953.71	0.001	2955216	TRIAL_START	n/a	n/a	n/a	-999	16	[0, 0, 0]	n/a	FR1	3	R1293P
2953.711	21.114	2955217	WAITING_START	n/a	n/a	n/a	-999	16	[0, 0, 0]	n/a	FR1	3	R1293P
2974.825	0.0	2976330	WAITING_END	n/a	n/a	n/a	-999	16	[0, 0, 0]	n/a	FR1	3	R1293P
2974.825	10.43	2976330	COUNTDOWN_START	n/a	n/a	n/a	-999	16	[0, 0, 0]	n/a	FR1	3	R1293P
2985.255	0.001	2986759	COUNTDOWN_END	n/a	n/a	n/a	-999	16	[0, 0, 0]	n/a	FR1	3	R1293P
2985.256	1.254	2986760	ORIENT_START	n/a	n/a	n/a	-999	16	[0, 0, 0]	n/a	FR1	3	R1293P
2986.51	0.001	2988014	ORIENT_END	n/a	n/a	n/a	-999	16	[0, 0, 0]	n/a	FR1	3	R1293P
2986.511	0.752	2988015	ENCODING_START	n/a	n/a	n/a	-999	16	[0, 0, 0]	n/a	FR1	3	R1293P
2987.263	1.615	2988767	WORD	n/a	n/a	SEED	1	16	[0, 0, 0]	n/a	FR1	3	R1293P
2988.878	0.932	2990382	WORD_OFF	n/a	n/a	SEED	1	16	[0, 0, 0]	n/a	FR1	3	R1293P
2989.81	1.634	2991314	WORD	n/a	n/a	BARN	2	16	[0, 0, 0]	n/a	FR1	3	R1293P
2991.444	0.789	2992948	WORD_OFF	n/a	n/a	BARN	2	16	[0, 0, 0]	n/a	FR1	3	R1293P
2992.233	1.613	2993737	WORD	n/a	n/a	SHIRT	3	16	[0, 0, 0]	n/a	FR1	3	R1293P
2993.846	0.812	2995350	WORD_OFF	n/a	n/a	SHIRT	3	16	[0, 0, 0]	n/a	FR1	3	R1293P
2994.658	1.637	2996162	WORD	n/a	n/a	STOOL	4	16	[0, 0, 0]	n/a	FR1	3	R1293P
2996.295	0.886	2997798	WORD_OFF	n/a	n/a	STOOL	4	16	[0, 0, 0]	n/a	FR1	3	R1293P
2997.181	1.631	2998684	WORD	n/a	n/a	STREET	5	16	[0, 0, 0]	n/a	FR1	3	R1293P
2998.812	0.994	3000315	WORD_OFF	n/a	n/a	STREET	5	16	[0, 0, 0]	n/a	FR1	3	R1293P
2999.806	1.623	3001309	WORD	n/a	n/a	STEAM	6	16	[0, 0, 0]	n/a	FR1	3	R1293P
3001.429	0.971	3002932	WORD_OFF	n/a	n/a	STEAM	6	16	[0, 0, 0]	n/a	FR1	3	R1293P
3002.4	1.631	3003903	WORD	n/a	n/a	JAIL	7	16	[0, 0, 0]	n/a	FR1	3	R1293P
3004.031	1.131	3005534	WORD_OFF	n/a	n/a	JAIL	7	16	[0, 0, 0]	n/a	FR1	3	R1293P
3005.162	1.635	3006665	WORD	n/a	n/a	CLOWN	8	16	[0, 0, 0]	n/a	FR1	3	R1293P
3006.797	1.068	3008300	WORD_OFF	n/a	n/a	CLOWN	8	16	[0, 0, 0]	n/a	FR1	3	R1293P
3007.865	1.633	3009368	WORD	n/a	n/a	TOAST	9	16	[0, 0, 0]	n/a	FR1	3	R1293P
3009.498	1.01	3011001	WORD_OFF	n/a	n/a	TOAST	9	16	[0, 0, 0]	n/a	FR1	3	R1293P
3010.508	1.608	3012011	WORD	n/a	n/a	PARK	10	16	[0, 0, 0]	n/a	FR1	3	R1293P
3012.116	1.01	3013619	WORD_OFF	n/a	n/a	PARK	10	16	[0, 0, 0]	n/a	FR1	3	R1293P
3013.126	1.623	3014629	WORD	n/a	n/a	SHIP	11	16	[0, 0, 0]	n/a	FR1	3	R1293P
3014.749	0.763	3016252	WORD_OFF	n/a	n/a	SHIP	11	16	[0, 0, 0]	n/a	FR1	3	R1293P
3015.512	1.637	3017015	WORD	n/a	n/a	PIG	12	16	[0, 0, 0]	n/a	FR1	3	R1293P
3017.149	0.001	3018651	WORD_OFF	n/a	n/a	PIG	12	16	[0, 0, 0]	n/a	FR1	3	R1293P
3017.15	0.0	3018652	ENCODING_END	n/a	n/a	n/a	-999	16	[0, 0, 0]	n/a	FR1	3	R1293P
3017.15	0.001	3018652	DISTRACT_START	n/a	n/a	n/a	-999	16	[0, 0, 0]	n/a	FR1	3	R1293P
3017.151	0.015	3018653	START	n/a	n/a	n/a	-999	16	[-999, -999, -999]	n/a	FR1	3	R1293P
3017.166	5.55	3018668	PROB	5.55	n/a	n/a	-999	16	[7, 2, 8]	17	FR1	3	R1293P
3022.716	2.118	3024218	PROB	2.118	n/a	n/a	-999	16	[7, 3, 5]	15	FR1	3	R1293P
3024.834	1.9	3026336	PROB	1.9	n/a	n/a	-999	16	[9, 3, 9]	21	FR1	3	R1293P
3026.734	1.984	3028236	PROB	1.984	n/a	n/a	-999	16	[2, 1, 2]	5	FR1	3	R1293P
3028.718	1.8	3030220	PROB	1.8	n/a	n/a	-999	16	[4, 1, 1]	6	FR1	3	R1293P
3030.518	4.651	3032020	PROB	4.651	n/a	n/a	-999	16	[4, 2, 4]	10	FR1	3	R1293P
3035.169	2.591	3036670	PROB	2.591	n/a	n/a	-999	16	[2, 4, 9]	15	FR1	3	R1293P
3037.76	0.01	3039261	STOP	n/a	n/a	n/a	-999	16	[-999, -999, -999]	n/a	FR1	3	R1293P
3037.77	0.593	3039271	DISTRACT_END	n/a	n/a	n/a	-999	16	[0, 0, 0]	n/a	FR1	3	R1293P
3038.363	1.558	3039864	RETRIEVAL_ORIENT_START	n/a	n/a	n/a	-999	16	[0, 0, 0]	n/a	FR1	3	R1293P
3039.921	0.001	3041422	RETRIEVAL_ORIENT_END	n/a	n/a	n/a	-999	16	[0, 0, 0]	n/a	FR1	3	R1293P
3039.922	4.234	3041423	REC_START	n/a	n/a	n/a	-999	16	[0, 0, 0]	n/a	FR1	3	R1293P
3044.156	0.62	3045657	REC_WORD	0.62	n/a	SHELL	-999	16	[0, 0, 0]	n/a	FR1	3	R1293P
3044.776	1.11	3046277	REC_WORD	1.11	n/a	STOOL	4	16	[0, 0, 0]	n/a	FR1	3	R1293P
3045.886	7.46	3047387	REC_WORD	7.46	n/a	STEAM	6	16	[0, 0, 0]	n/a	FR1	3	R1293P
3053.346	0.365	3054847	REC_WORD	0.365	n/a	BIG	-999	16	[0, 0, 0]	n/a	FR1	3	R1293P
3053.711	16.224	3055212	REC_WORD	16.224	n/a	FARM	-999	16	[0, 0, 0]	n/a	FR1	3	R1293P
3069.935	0.001	3071435	REC_END	n/a	n/a	n/a	-999	16	[0, 0, 0]	n/a	FR1	3	R1293P
3069.936	0.014	3071436	TRIAL_END	n/a	n/a	n/a	-999	16	[0, 0, 0]	n/a	FR1	3	R1293P
3069.95	0.001	3071450	TRIAL_START	n/a	n/a	n/a	-999	17	[0, 0, 0]	n/a	FR1	3	R1293P
3069.951	0.0	3071451	WAITING_START	n/a	n/a	n/a	-999	17	[0, 0, 0]	n/a	FR1	3	R1293P
3069.951	17.495	3071451	TRIAL	n/a	n/a	n/a	-999	17	[0, 0, 0]	n/a	FR1	3	R1293P
3087.446	0.001	3088945	WAITING_END	n/a	n/a	n/a	-999	17	[0, 0, 0]	n/a	FR1	3	R1293P
3087.447	10.429	3088946	COUNTDOWN_START	n/a	n/a	n/a	-999	17	[0, 0, 0]	n/a	FR1	3	R1293P
3097.876	0.001	3099374	COUNTDOWN_END	n/a	n/a	n/a	-999	17	[0, 0, 0]	n/a	FR1	3	R1293P
3097.877	1.088	3099375	ORIENT_START	n/a	n/a	n/a	-999	17	[0, 0, 0]	n/a	FR1	3	R1293P
3098.965	0.001	3100463	ORIENT_END	n/a	n/a	n/a	-999	17	[0, 0, 0]	n/a	FR1	3	R1293P
3098.966	0.842	3100464	ENCODING_START	n/a	n/a	n/a	-999	17	[0, 0, 0]	n/a	FR1	3	R1293P
3099.808	1.624	3101306	WORD	n/a	n/a	PLANT	1	17	[0, 0, 0]	n/a	FR1	3	R1293P
3101.432	0.79	3102930	WORD_OFF	n/a	n/a	PLANT	1	17	[0, 0, 0]	n/a	FR1	3	R1293P
3102.222	1.628	3103720	WORD	n/a	n/a	BAT	2	17	[0, 0, 0]	n/a	FR1	3	R1293P
3103.85	1.003	3105348	WORD_OFF	n/a	n/a	BAT	2	17	[0, 0, 0]	n/a	FR1	3	R1293P
3104.853	1.63	3106351	WORD	n/a	n/a	HOUSE	3	17	[0, 0, 0]	n/a	FR1	3	R1293P
3106.483	0.944	3107981	WORD_OFF	n/a	n/a	HOUSE	3	17	[0, 0, 0]	n/a	FR1	3	R1293P
3107.427	1.607	3108925	WORD	n/a	n/a	OAK	4	17	[0, 0, 0]	n/a	FR1	3	R1293P
3109.034	0.817	3110532	WORD_OFF	n/a	n/a	OAK	4	17	[0, 0, 0]	n/a	FR1	3	R1293P
3109.851	1.633	3111349	WORD	n/a	n/a	WORM	5	17	[0, 0, 0]	n/a	FR1	3	R1293P
3111.484	0.922	3112982	WORD_OFF	n/a	n/a	WORM	5	17	[0, 0, 0]	n/a	FR1	3	R1293P
3112.406	1.612	3113903	WORD	n/a	n/a	HILL	6	17	[0, 0, 0]	n/a	FR1	3	R1293P
3114.018	0.854	3115515	WORD_OFF	n/a	n/a	HILL	6	17	[0, 0, 0]	n/a	FR1	3	R1293P
3114.872	1.629	3116369	WORD	n/a	n/a	BUSH	7	17	[0, 0, 0]	n/a	FR1	3	R1293P
3116.501	0.928	3117998	WORD_OFF	n/a	n/a	BUSH	7	17	[0, 0, 0]	n/a	FR1	3	R1293P
3117.429	1.607	3118926	WORD	n/a	n/a	BEE	8	17	[0, 0, 0]	n/a	FR1	3	R1293P
3119.036	1.08	3120533	WORD_OFF	n/a	n/a	BEE	8	17	[0, 0, 0]	n/a	FR1	3	R1293P
3120.116	1.636	3121613	WORD	n/a	n/a	FENCE	9	17	[0, 0, 0]	n/a	FR1	3	R1293P
3121.752	0.981	3123249	WORD_OFF	n/a	n/a	FENCE	9	17	[0, 0, 0]	n/a	FR1	3	R1293P
3122.733	1.636	3124230	WORD	n/a	n/a	CLOCK	10	17	[0, 0, 0]	n/a	FR1	3	R1293P
3124.369	0.813	3125866	WORD_OFF	n/a	n/a	CLOCK	10	17	[0, 0, 0]	n/a	FR1	3	R1293P
3125.182	1.638	3126679	WORD	n/a	n/a	BLUSH	11	17	[0, 0, 0]	n/a	FR1	3	R1293P
3126.82	1.044	3128317	WORD_OFF	n/a	n/a	BLUSH	11	17	[0, 0, 0]	n/a	FR1	3	R1293P
3127.864	1.623	3129361	WORD	n/a	n/a	SIGN	12	17	[0, 0, 0]	n/a	FR1	3	R1293P
3129.487	0.001	3130984	WORD_OFF	n/a	n/a	SIGN	12	17	[0, 0, 0]	n/a	FR1	3	R1293P
3129.488	0.001	3130985	ENCODING_END	n/a	n/a	n/a	-999	17	[0, 0, 0]	n/a	FR1	3	R1293P
3129.489	0.0	3130986	DISTRACT_START	n/a	n/a	n/a	-999	17	[0, 0, 0]	n/a	FR1	3	R1293P
3129.489	0.014	3130986	START	n/a	n/a	n/a	-999	17	[-999, -999, -999]	n/a	FR1	3	R1293P
3129.503	5.151	3131000	PROB	5.151	n/a	n/a	-999	17	[7, 8, 9]	24	FR1	3	R1293P
3134.654	3.601	3136150	PROB	3.601	n/a	n/a	-999	17	[7, 5, 6]	18	FR1	3	R1293P
3138.255	2.35	3139751	PROB	2.35	n/a	n/a	-999	17	[3, 5, 7]	15	FR1	3	R1293P
3140.605	5.419	3142101	PROB	5.419	n/a	n/a	-999	17	[5, 7, 7]	19	FR1	3	R1293P
3146.024	2.8	3147520	PROB	2.8	n/a	n/a	-999	17	[2, 4, 9]	15	FR1	3	R1293P
3148.824	2.993	3150320	PROB	2.993	n/a	n/a	-999	17	[5, 7, 6]	18	FR1	3	R1293P
3151.817	0.008	3153312	STOP	n/a	n/a	n/a	-999	17	[-999, -999, -999]	n/a	FR1	3	R1293P
3151.825	0.582	3153320	DISTRACT_END	n/a	n/a	n/a	-999	17	[0, 0, 0]	n/a	FR1	3	R1293P
3152.407	1.669	3153902	RETRIEVAL_ORIENT_START	n/a	n/a	n/a	-999	17	[0, 0, 0]	n/a	FR1	3	R1293P
3154.076	0.001	3155571	RETRIEVAL_ORIENT_END	n/a	n/a	n/a	-999	17	[0, 0, 0]	n/a	FR1	3	R1293P
3154.077	23.819	3155572	REC_START	n/a	n/a	n/a	-999	17	[0, 0, 0]	n/a	FR1	3	R1293P
3177.896	6.192	3179390	REC_WORD	6.192	n/a	HOOK	-999	17	[0, 0, 0]	n/a	FR1	3	R1293P
3184.088	0.001	3185582	REC_END	n/a	n/a	n/a	-999	17	[0, 0, 0]	n/a	FR1	3	R1293P
3184.089	0.016	3185583	TRIAL_END	n/a	n/a	n/a	-999	17	[0, 0, 0]	n/a	FR1	3	R1293P
3184.105	0.001	3185599	TRIAL_START	n/a	n/a	n/a	-999	18	[0, 0, 0]	n/a	FR1	3	R1293P
3184.106	0.0	3185600	TRIAL	n/a	n/a	n/a	-999	18	[0, 0, 0]	n/a	FR1	3	R1293P
3184.106	13.912	3185600	WAITING_START	n/a	n/a	n/a	-999	18	[0, 0, 0]	n/a	FR1	3	R1293P
3198.018	0.0	3199511	WAITING_END	n/a	n/a	n/a	-999	18	[0, 0, 0]	n/a	FR1	3	R1293P
3198.018	10.43	3199511	COUNTDOWN_START	n/a	n/a	n/a	-999	18	[0, 0, 0]	n/a	FR1	3	R1293P
3208.448	0.001	3209941	COUNTDOWN_END	n/a	n/a	n/a	-999	18	[0, 0, 0]	n/a	FR1	3	R1293P
3208.449	1.103	3209942	ORIENT_START	n/a	n/a	n/a	-999	18	[0, 0, 0]	n/a	FR1	3	R1293P
3209.552	0.001	3211044	ORIENT_END	n/a	n/a	n/a	-999	18	[0, 0, 0]	n/a	FR1	3	R1293P
3209.553	0.9	3211045	ENCODING_START	n/a	n/a	n/a	-999	18	[0, 0, 0]	n/a	FR1	3	R1293P
3210.453	1.634	3211945	WORD	n/a	n/a	DUCK	1	18	[0, 0, 0]	n/a	FR1	3	R1293P
3212.087	0.959	3213579	WORD_OFF	n/a	n/a	DUCK	1	18	[0, 0, 0]	n/a	FR1	3	R1293P
3213.046	1.624	3214538	WORD	n/a	n/a	CLAY	2	18	[0, 0, 0]	n/a	FR1	3	R1293P
3214.67	0.904	3216162	WORD_OFF	n/a	n/a	CLAY	2	18	[0, 0, 0]	n/a	FR1	3	R1293P
3215.574	1.629	3217066	WORD	n/a	n/a	STEAK	3	18	[0, 0, 0]	n/a	FR1	3	R1293P
3217.203	0.992	3218695	WORD_OFF	n/a	n/a	STEAK	3	18	[0, 0, 0]	n/a	FR1	3	R1293P
3218.195	1.626	3219687	WORD	n/a	n/a	JUDGE	4	18	[0, 0, 0]	n/a	FR1	3	R1293P
3219.821	0.78	3221313	WORD_OFF	n/a	n/a	JUDGE	4	18	[0, 0, 0]	n/a	FR1	3	R1293P
3220.601	1.637	3222093	WORD	n/a	n/a	GUARD	5	18	[0, 0, 0]	n/a	FR1	3	R1293P
3222.238	1.089	3223730	WORD_OFF	n/a	n/a	GUARD	5	18	[0, 0, 0]	n/a	FR1	3	R1293P
3223.327	1.629	3224819	WORD	n/a	n/a	LEAF	6	18	[0, 0, 0]	n/a	FR1	3	R1293P
3224.956	0.932	3226448	WORD_OFF	n/a	n/a	LEAF	6	18	[0, 0, 0]	n/a	FR1	3	R1293P
3225.888	1.634	3227380	WORD	n/a	n/a	ROOM	7	18	[0, 0, 0]	n/a	FR1	3	R1293P
3227.522	0.86	3229014	WORD_OFF	n/a	n/a	ROOM	7	18	[0, 0, 0]	n/a	FR1	3	R1293P
3228.382	1.625	3229873	WORD	n/a	n/a	MAZE	8	18	[0, 0, 0]	n/a	FR1	3	R1293P
3230.007	1.144	3231498	WORD_OFF	n/a	n/a	MAZE	8	18	[0, 0, 0]	n/a	FR1	3	R1293P
3231.151	1.639	3232642	WORD	n/a	n/a	CONE	9	18	[0, 0, 0]	n/a	FR1	3	R1293P
3232.79	0.829	3234281	WORD_OFF	n/a	n/a	CONE	9	18	[0, 0, 0]	n/a	FR1	3	R1293P
3233.619	1.638	3235110	WORD	n/a	n/a	STICK	10	18	[0, 0, 0]	n/a	FR1	3	R1293P
3235.257	1.012	3236748	WORD_OFF	n/a	n/a	STICK	10	18	[0, 0, 0]	n/a	FR1	3	R1293P
3236.269	1.622	3237760	WORD	n/a	n/a	GRAPE	11	18	[0, 0, 0]	n/a	FR1	3	R1293P
3237.891	0.756	3239382	WORD_OFF	n/a	n/a	GRAPE	11	18	[0, 0, 0]	n/a	FR1	3	R1293P
3238.647	1.627	3240138	WORD	n/a	n/a	SUN	12	18	[0, 0, 0]	n/a	FR1	3	R1293P
3240.274	0.001	3241765	WORD_OFF	n/a	n/a	SUN	12	18	[0, 0, 0]	n/a	FR1	3	R1293P
3240.275	0.001	3241766	ENCODING_END	n/a	n/a	n/a	-999	18	[0, 0, 0]	n/a	FR1	3	R1293P
3240.276	0.0	3241767	DISTRACT_START	n/a	n/a	n/a	-999	18	[0, 0, 0]	n/a	FR1	3	R1293P
3240.276	0.015	3241767	START	n/a	n/a	n/a	-999	18	[-999, -999, -999]	n/a	FR1	3	R1293P
3240.291	4.384	3241782	PROB	4.384	n/a	n/a	-999	18	[5, 7, 7]	19	FR1	3	R1293P
3244.675	3.151	3246166	PROB	3.151	n/a	n/a	-999	18	[7, 8, 4]	19	FR1	3	R1293P
3247.826	4.118	3249316	PROB	4.118	n/a	n/a	-999	18	[1, 3, 6]	10	FR1	3	R1293P
3251.944	2.516	3253434	PROB	2.516	n/a	n/a	-999	18	[1, 9, 8]	18	FR1	3	R1293P
3254.46	3.801	3255950	PROB	3.801	n/a	n/a	-999	18	[1, 9, 7]	17	FR1	3	R1293P
3258.261	3.012	3259751	PROB	3.012	n/a	n/a	-999	18	[6, 9, 9]	24	FR1	3	R1293P
3261.273	0.022	3262763	STOP	n/a	n/a	n/a	-999	18	[-999, -999, -999]	n/a	FR1	3	R1293P
3261.295	0.567	3262785	DISTRACT_END	n/a	n/a	n/a	-999	18	[0, 0, 0]	n/a	FR1	3	R1293P
3261.862	1.534	3263352	RETRIEVAL_ORIENT_START	n/a	n/a	n/a	-999	18	[0, 0, 0]	n/a	FR1	3	R1293P
3263.396	0.0	3264886	RETRIEVAL_ORIENT_END	n/a	n/a	n/a	-999	18	[0, 0, 0]	n/a	FR1	3	R1293P
3263.396	3.475	3264886	REC_START	n/a	n/a	n/a	-999	18	[0, 0, 0]	n/a	FR1	3	R1293P
3266.871	0.631	3268360	REC_WORD	0.631	n/a	JUDGE	4	18	[0, 0, 0]	n/a	FR1	3	R1293P
3267.502	0.6	3268991	REC_WORD	0.6	n/a	GUARD	5	18	[0, 0, 0]	n/a	FR1	3	R1293P
3268.102	0.349	3269591	REC_WORD	0.349	n/a	DOG	-999	18	[0, 0, 0]	n/a	FR1	3	R1293P
3268.451	0.705	3269940	REC_WORD	0.705	n/a	STEAK	3	18	[0, 0, 0]	n/a	FR1	3	R1293P
3269.156	0.815	3270645	REC_WORD	0.815	n/a	ROOM	7	18	[0, 0, 0]	n/a	FR1	3	R1293P
3269.971	1.42	3271460	REC_WORD	1.42	n/a	BRICK	-999	18	[0, 0, 0]	n/a	FR1	3	R1293P
3271.391	22.016	3272880	REC_WORD	22.016	n/a	CLAY	2	18	[0, 0, 0]	n/a	FR1	3	R1293P
3293.407	0.001	3294895	REC_END	n/a	n/a	n/a	-999	18	[0, 0, 0]	n/a	FR1	3	R1293P
3293.408	0.017	3294896	TRIAL_END	n/a	n/a	n/a	-999	18	[0, 0, 0]	n/a	FR1	3	R1293P
3293.425	0.0	3294913	TRIAL_START	n/a	n/a	n/a	-999	19	[0, 0, 0]	n/a	FR1	3	R1293P
3293.425	0.001	3294913	TRIAL	n/a	n/a	n/a	-999	19	[0, 0, 0]	n/a	FR1	3	R1293P
3293.426	9.977	3294914	WAITING_START	n/a	n/a	n/a	-999	19	[0, 0, 0]	n/a	FR1	3	R1293P
3303.403	0.001	3304891	WAITING_END	n/a	n/a	n/a	-999	19	[0, 0, 0]	n/a	FR1	3	R1293P
3303.404	10.429	3304892	COUNTDOWN_START	n/a	n/a	n/a	-999	19	[0, 0, 0]	n/a	FR1	3	R1293P
3313.833	0.001	3315320	COUNTDOWN_END	n/a	n/a	n/a	-999	19	[0, 0, 0]	n/a	FR1	3	R1293P
3313.834	1.072	3315321	ORIENT_START	n/a	n/a	n/a	-999	19	[0, 0, 0]	n/a	FR1	3	R1293P
3314.906	0.001	3316393	ORIENT_END	n/a	n/a	n/a	-999	19	[0, 0, 0]	n/a	FR1	3	R1293P
3314.907	0.822	3316394	ENCODING_START	n/a	n/a	n/a	-999	19	[0, 0, 0]	n/a	FR1	3	R1293P
3315.729	1.627	3317216	WORD	n/a	n/a	WHALE	1	19	[0, 0, 0]	n/a	FR1	3	R1293P
3317.356	0.976	3318843	WORD_OFF	n/a	n/a	WHALE	1	19	[0, 0, 0]	n/a	FR1	3	R1293P
3318.332	1.608	3319819	WORD	n/a	n/a	MAP	2	19	[0, 0, 0]	n/a	FR1	3	R1293P
3319.94	0.866	3321427	WORD_OFF	n/a	n/a	MAP	2	19	[0, 0, 0]	n/a	FR1	3	R1293P
3320.806	1.634	3322293	WORD	n/a	n/a	CHALK	3	19	[0, 0, 0]	n/a	FR1	3	R1293P
3322.44	0.763	3323927	WORD_OFF	n/a	n/a	CHALK	3	19	[0, 0, 0]	n/a	FR1	3	R1293P
3323.203	1.638	3324690	WORD	n/a	n/a	SWAMP	4	19	[0, 0, 0]	n/a	FR1	3	R1293P
3324.841	1.006	3326327	WORD_OFF	n/a	n/a	SWAMP	4	19	[0, 0, 0]	n/a	FR1	3	R1293P
3325.847	1.627	3327333	WORD	n/a	n/a	BEAN	5	19	[0, 0, 0]	n/a	FR1	3	R1293P
3327.474	1.056	3328960	WORD_OFF	n/a	n/a	BEAN	5	19	[0, 0, 0]	n/a	FR1	3	R1293P
3328.53	1.628	3330016	WORD	n/a	n/a	NEST	6	19	[0, 0, 0]	n/a	FR1	3	R1293P
3330.158	1.097	3331644	WORD_OFF	n/a	n/a	NEST	6	19	[0, 0, 0]	n/a	FR1	3	R1293P
3331.255	1.621	3332741	WORD	n/a	n/a	FAN	7	19	[0, 0, 0]	n/a	FR1	3	R1293P
3332.876	1.133	3334362	WORD_OFF	n/a	n/a	FAN	7	19	[0, 0, 0]	n/a	FR1	3	R1293P
3334.009	1.633	3335495	WORD	n/a	n/a	SHARK	8	19	[0, 0, 0]	n/a	FR1	3	R1293P
3335.642	0.816	3337128	WORD_OFF	n/a	n/a	SHARK	8	19	[0, 0, 0]	n/a	FR1	3	R1293P
3336.458	1.636	3337944	WORD	n/a	n/a	RAKE	9	19	[0, 0, 0]	n/a	FR1	3	R1293P
3338.094	0.933	3339580	WORD_OFF	n/a	n/a	RAKE	9	19	[0, 0, 0]	n/a	FR1	3	R1293P
3339.027	1.633	3340513	WORD	n/a	n/a	LAND	10	19	[0, 0, 0]	n/a	FR1	3	R1293P
3340.66	0.827	3342146	WORD_OFF	n/a	n/a	LAND	10	19	[0, 0, 0]	n/a	FR1	3	R1293P
3341.487	1.608	3342973	WORD	n/a	n/a	EAR	11	19	[0, 0, 0]	n/a	FR1	3	R1293P
3343.095	1.126	3344581	WORD_OFF	n/a	n/a	EAR	11	19	[0, 0, 0]	n/a	FR1	3	R1293P
3344.221	1.624	3345706	WORD	n/a	n/a	SLIME	12	19	[0, 0, 0]	n/a	FR1	3	R1293P
3345.845	0.001	3347330	WORD_OFF	n/a	n/a	SLIME	12	19	[0, 0, 0]	n/a	FR1	3	R1293P
3345.846	0.001	3347331	ENCODING_END	n/a	n/a	n/a	-999	19	[0, 0, 0]	n/a	FR1	3	R1293P
3345.847	0.001	3347332	DISTRACT_START	n/a	n/a	n/a	-999	19	[0, 0, 0]	n/a	FR1	3	R1293P
3345.848	0.014	3347333	START	n/a	n/a	n/a	-999	19	[-999, -999, -999]	n/a	FR1	3	R1293P
3345.862	5.617	3347347	PROB	5.617	n/a	n/a	-999	19	[6, 9, 5]	20	FR1	3	R1293P
3351.479	2.683	3352964	PROB	2.683	n/a	n/a	-999	19	[5, 1, 1]	7	FR1	3	R1293P
3354.162	3.686	3355647	PROB	3.686	n/a	n/a	-999	19	[9, 8, 6]	23	FR1	3	R1293P
3357.848	2.682	3359333	PROB	2.682	n/a	n/a	-999	19	[3, 8, 2]	13	FR1	3	R1293P
3360.53	2.901	3362015	PROB	2.901	n/a	n/a	-999	19	[7, 6, 7]	20	FR1	3	R1293P
3363.431	2.418	3364915	PROB	2.418	n/a	n/a	-999	19	[3, 5, 5]	13	FR1	3	R1293P
3365.849	3.214	3367333	PROB	3.214	n/a	n/a	-999	19	[6, 9, 7]	22	FR1	3	R1293P
3369.063	0.02	3370547	STOP	n/a	n/a	n/a	-999	19	[-999, -999, -999]	n/a	FR1	3	R1293P
3369.083	0.605	3370567	DISTRACT_END	n/a	n/a	n/a	-999	19	[0, 0, 0]	n/a	FR1	3	R1293P
3369.688	1.711	3371172	RETRIEVAL_ORIENT_START	n/a	n/a	n/a	-999	19	[0, 0, 0]	n/a	FR1	3	R1293P
3371.399	0.001	3372883	RETRIEVAL_ORIENT_END	n/a	n/a	n/a	-999	19	[0, 0, 0]	n/a	FR1	3	R1293P
3371.4	4.4	3372884	REC_START	n/a	n/a	n/a	-999	19	[0, 0, 0]	n/a	FR1	3	R1293P
3375.8	0.825	3377284	REC_WORD	0.825	n/a	WHALE	1	19	[0, 0, 0]	n/a	FR1	3	R1293P
3376.625	24.788	3378109	REC_WORD	24.788	n/a	NEST	6	19	[0, 0, 0]	n/a	FR1	3	R1293P
3401.413	0.001	3402896	REC_END	n/a	n/a	n/a	-999	19	[0, 0, 0]	n/a	FR1	3	R1293P
3401.414	0.016	3402897	TRIAL_END	n/a	n/a	n/a	-999	19	[0, 0, 0]	n/a	FR1	3	R1293P
3401.43	0.0	3402913	TRIAL_START	n/a	n/a	n/a	-999	20	[0, 0, 0]	n/a	FR1	3	R1293P
3401.43	0.001	3402913	TRIAL	n/a	n/a	n/a	-999	20	[0, 0, 0]	n/a	FR1	3	R1293P
3401.431	23.112	3402914	WAITING_START	n/a	n/a	n/a	-999	20	[0, 0, 0]	n/a	FR1	3	R1293P
3424.543	0.0	3426024	COUNTDOWN_START	n/a	n/a	n/a	-999	20	[0, 0, 0]	n/a	FR1	3	R1293P
3424.543	10.429	3426024	WAITING_END	n/a	n/a	n/a	-999	20	[0, 0, 0]	n/a	FR1	3	R1293P
3434.972	0.001	3436453	COUNTDOWN_END	n/a	n/a	n/a	-999	20	[0, 0, 0]	n/a	FR1	3	R1293P
3434.973	1.238	3436454	ORIENT_START	n/a	n/a	n/a	-999	20	[0, 0, 0]	n/a	FR1	3	R1293P
3436.211	0.001	3437692	ORIENT_END	n/a	n/a	n/a	-999	20	[0, 0, 0]	n/a	FR1	3	R1293P
3436.212	0.969	3437693	ENCODING_START	n/a	n/a	n/a	-999	20	[0, 0, 0]	n/a	FR1	3	R1293P
3437.181	1.631	3438662	WORD	n/a	n/a	COIN	1	20	[0, 0, 0]	n/a	FR1	3	R1293P
3438.812	0.998	3440293	WORD_OFF	n/a	n/a	COIN	1	20	[0, 0, 0]	n/a	FR1	3	R1293P
3439.81	1.636	3441291	WORD	n/a	n/a	DOG	2	20	[0, 0, 0]	n/a	FR1	3	R1293P
3441.446	0.901	3442926	WORD_OFF	n/a	n/a	DOG	2	20	[0, 0, 0]	n/a	FR1	3	R1293P
3442.347	1.617	3443827	WORD	n/a	n/a	WHEEL	3	20	[0, 0, 0]	n/a	FR1	3	R1293P
3443.964	0.863	3445444	WORD_OFF	n/a	n/a	WHEEL	3	20	[0, 0, 0]	n/a	FR1	3	R1293P
3444.827	1.636	3446307	WORD	n/a	n/a	BOY	4	20	[0, 0, 0]	n/a	FR1	3	R1293P
3446.463	0.903	3447943	WORD_OFF	n/a	n/a	BOY	4	20	[0, 0, 0]	n/a	FR1	3	R1293P
3447.366	1.632	3448846	WORD	n/a	n/a	CAKE	5	20	[0, 0, 0]	n/a	FR1	3	R1293P
3448.998	0.75	3450478	WORD_OFF	n/a	n/a	CAKE	5	20	[0, 0, 0]	n/a	FR1	3	R1293P
3449.748	1.633	3451228	WORD	n/a	n/a	STAIR	6	20	[0, 0, 0]	n/a	FR1	3	R1293P
3451.381	0.796	3452861	WORD_OFF	n/a	n/a	STAIR	6	20	[0, 0, 0]	n/a	FR1	3	R1293P
3452.177	1.638	3453657	WORD	n/a	n/a	GRASS	7	20	[0, 0, 0]	n/a	FR1	3	R1293P
3453.815	0.878	3455295	WORD_OFF	n/a	n/a	GRASS	7	20	[0, 0, 0]	n/a	FR1	3	R1293P
3454.693	1.639	3456173	WORD	n/a	n/a	HAND	8	20	[0, 0, 0]	n/a	FR1	3	R1293P
3456.332	1.142	3457812	WORD_OFF	n/a	n/a	HAND	8	20	[0, 0, 0]	n/a	FR1	3	R1293P
3457.474	1.626	3458954	WORD	n/a	n/a	FORT	9	20	[0, 0, 0]	n/a	FR1	3	R1293P
3459.1	1.001	3460580	WORD_OFF	n/a	n/a	FORT	9	20	[0, 0, 0]	n/a	FR1	3	R1293P
3460.101	1.632	3461580	WORD	n/a	n/a	LIP	10	20	[0, 0, 0]	n/a	FR1	3	R1293P
3461.733	0.784	3463212	WORD_OFF	n/a	n/a	LIP	10	20	[0, 0, 0]	n/a	FR1	3	R1293P
3462.517	1.633	3463996	WORD	n/a	n/a	PURSE	11	20	[0, 0, 0]	n/a	FR1	3	R1293P
3464.15	0.954	3465629	WORD_OFF	n/a	n/a	PURSE	11	20	[0, 0, 0]	n/a	FR1	3	R1293P
3465.104	1.63	3466583	WORD	n/a	n/a	RAIN	12	20	[0, 0, 0]	n/a	FR1	3	R1293P
3466.734	0.001	3468213	WORD_OFF	n/a	n/a	RAIN	12	20	[0, 0, 0]	n/a	FR1	3	R1293P
3466.735	0.001	3468214	ENCODING_END	n/a	n/a	n/a	-999	20	[0, 0, 0]	n/a	FR1	3	R1293P
3466.736	0.0	3468215	DISTRACT_START	n/a	n/a	n/a	-999	20	[0, 0, 0]	n/a	FR1	3	R1293P
3466.736	0.014	3468215	START	n/a	n/a	n/a	-999	20	[-999, -999, -999]	n/a	FR1	3	R1293P
3466.75	7.136	3468229	PROB	7.136	n/a	n/a	-999	20	[5, 9, 2]	14	FR1	3	R1293P
3473.886	2.883	3475365	PROB	2.883	n/a	n/a	-999	20	[3, 1, 9]	13	FR1	3	R1293P
3476.769	2.384	3478248	PROB	2.384	n/a	n/a	-999	20	[5, 4, 2]	11	FR1	3	R1293P
3479.153	2.367	3480631	PROB	2.367	n/a	n/a	-999	20	[6, 2, 7]	15	FR1	3	R1293P
3481.52	3.817	3482998	PROB	3.817	n/a	n/a	-999	20	[6, 5, 8]	19	FR1	3	R1293P
3485.337	2.16	3486815	PROB	2.16	n/a	n/a	-999	20	[2, 7, 3]	12	FR1	3	R1293P
3487.497	0.007	3488975	STOP	n/a	n/a	n/a	-999	20	[-999, -999, -999]	n/a	FR1	3	R1293P
3487.504	0.546	3488982	DISTRACT_END	n/a	n/a	n/a	-999	20	[0, 0, 0]	n/a	FR1	3	R1293P
3488.05	1.638	3489528	RETRIEVAL_ORIENT_START	n/a	n/a	n/a	-999	20	[0, 0, 0]	n/a	FR1	3	R1293P
3489.688	0.001	3491166	RETRIEVAL_ORIENT_END	n/a	n/a	n/a	-999	20	[0, 0, 0]	n/a	FR1	3	R1293P
3489.689	3.999	3491167	REC_START	n/a	n/a	n/a	-999	20	[0, 0, 0]	n/a	FR1	3	R1293P
3493.688	0.545	3495166	REC_WORD	0.545	n/a	DOG	2	20	[0, 0, 0]	n/a	FR1	3	R1293P
3494.233	0.695	3495711	REC_WORD	0.695	n/a	COIN	1	20	[0, 0, 0]	n/a	FR1	3	R1293P
3494.928	1.73	3496406	REC_WORD	1.73	n/a	RIDE	-999	20	[0, 0, 0]	n/a	FR1	3	R1293P
3496.658	15.21	3498136	REC_WORD	15.21	n/a	BOY	4	20	[0, 0, 0]	n/a	FR1	3	R1293P
3511.868	0.679	3513345	REC_WORD	0.679	n/a	STAIR	6	20	[0, 0, 0]	n/a	FR1	3	R1293P
3512.547	7.153	3514024	REC_WORD	7.153	n/a	GLASS	-999	20	[0, 0, 0]	n/a	FR1	3	R1293P
3519.7	0.0	3521176	REC_END	n/a	n/a	n/a	-999	20	[0, 0, 0]	n/a	FR1	3	R1293P
3519.7	0.015	3521176	TRIAL_END	n/a	n/a	n/a	-999	20	[0, 0, 0]	n/a	FR1	3	R1293P
3519.715	0.0	3521191	TRIAL_START	n/a	n/a	n/a	-999	21	[0, 0, 0]	n/a	FR1	3	R1293P
3519.715	0.001	3521191	TRIAL	n/a	n/a	n/a	-999	21	[0, 0, 0]	n/a	FR1	3	R1293P
3519.716	16.648	3521192	WAITING_START	n/a	n/a	n/a	-999	21	[0, 0, 0]	n/a	FR1	3	R1293P
3536.364	0.001	3537840	WAITING_END	n/a	n/a	n/a	-999	21	[0, 0, 0]	n/a	FR1	3	R1293P
3536.365	10.429	3537841	COUNTDOWN_START	n/a	n/a	n/a	-999	21	[0, 0, 0]	n/a	FR1	3	R1293P
3546.794	0.001	3548269	COUNTDOWN_END	n/a	n/a	n/a	-999	21	[0, 0, 0]	n/a	FR1	3	R1293P
3546.795	1.105	3548270	ORIENT_START	n/a	n/a	n/a	-999	21	[0, 0, 0]	n/a	FR1	3	R1293P
3547.9	0.001	3549375	ORIENT_END	n/a	n/a	n/a	-999	21	[0, 0, 0]	n/a	FR1	3	R1293P
3547.901	1.007	3549376	ENCODING_START	n/a	n/a	n/a	-999	21	[0, 0, 0]	n/a	FR1	3	R1293P
3548.908	1.625	3550383	WORD	n/a	n/a	WEED	1	21	[0, 0, 0]	n/a	FR1	3	R1293P
3550.533	0.811	3552008	WORD_OFF	n/a	n/a	WEED	1	21	[0, 0, 0]	n/a	FR1	3	R1293P
3551.344	1.624	3552819	WORD	n/a	n/a	THREAD	2	21	[0, 0, 0]	n/a	FR1	3	R1293P
3552.968	0.939	3554443	WORD_OFF	n/a	n/a	THREAD	2	21	[0, 0, 0]	n/a	FR1	3	R1293P
3553.907	1.627	3555382	WORD	n/a	n/a	RUG	3	21	[0, 0, 0]	n/a	FR1	3	R1293P
3555.534	0.872	3557009	WORD_OFF	n/a	n/a	RUG	3	21	[0, 0, 0]	n/a	FR1	3	R1293P
3556.406	1.63	3557880	WORD	n/a	n/a	SHEEP	4	21	[0, 0, 0]	n/a	FR1	3	R1293P
3558.036	0.902	3559510	WORD_OFF	n/a	n/a	SHEEP	4	21	[0, 0, 0]	n/a	FR1	3	R1293P
3558.938	1.63	3560412	WORD	n/a	n/a	COUCH	5	21	[0, 0, 0]	n/a	FR1	3	R1293P
3560.568	0.88	3562042	WORD_OFF	n/a	n/a	COUCH	5	21	[0, 0, 0]	n/a	FR1	3	R1293P
3561.448	1.622	3562922	WORD	n/a	n/a	CAT	6	21	[0, 0, 0]	n/a	FR1	3	R1293P
3563.07	0.859	3564544	WORD_OFF	n/a	n/a	CAT	6	21	[0, 0, 0]	n/a	FR1	3	R1293P
3563.929	1.623	3565403	WORD	n/a	n/a	FLAME	7	21	[0, 0, 0]	n/a	FR1	3	R1293P
3565.552	0.786	3567026	WORD_OFF	n/a	n/a	FLAME	7	21	[0, 0, 0]	n/a	FR1	3	R1293P
3566.338	1.616	3567812	WORD	n/a	n/a	DITCH	8	21	[0, 0, 0]	n/a	FR1	3	R1293P
3567.954	0.771	3569428	WORD_OFF	n/a	n/a	DITCH	8	21	[0, 0, 0]	n/a	FR1	3	R1293P
3568.725	1.628	3570199	WORD	n/a	n/a	LEG	9	21	[0, 0, 0]	n/a	FR1	3	R1293P
3570.353	0.953	3571827	WORD_OFF	n/a	n/a	LEG	9	21	[0, 0, 0]	n/a	FR1	3	R1293P
3571.306	1.615	3572780	WORD	n/a	n/a	STRING	10	21	[0, 0, 0]	n/a	FR1	3	R1293P
3572.921	1.014	3574395	WORD_OFF	n/a	n/a	STRING	10	21	[0, 0, 0]	n/a	FR1	3	R1293P
3573.935	1.636	3575409	WORD	n/a	n/a	TRASH	11	21	[0, 0, 0]	n/a	FR1	3	R1293P
3575.571	0.913	3577044	WORD_OFF	n/a	n/a	TRASH	11	21	[0, 0, 0]	n/a	FR1	3	R1293P
3576.484	1.622	3577957	WORD	n/a	n/a	ROOF	12	21	[0, 0, 0]	n/a	FR1	3	R1293P
3578.106	0.001	3579579	WORD_OFF	n/a	n/a	ROOF	12	21	[0, 0, 0]	n/a	FR1	3	R1293P
3578.107	0.0	3579580	ENCODING_END	n/a	n/a	n/a	-999	21	[0, 0, 0]	n/a	FR1	3	R1293P
3578.107	0.001	3579580	DISTRACT_START	n/a	n/a	n/a	-999	21	[0, 0, 0]	n/a	FR1	3	R1293P
3578.108	0.013	3579581	START	n/a	n/a	n/a	-999	21	[-999, -999, -999]	n/a	FR1	3	R1293P
3578.121	4.068	3579594	PROB	4.068	n/a	n/a	-999	21	[8, 8, 8]	24	FR1	3	R1293P
3582.189	2.184	3583662	PROB	2.184	n/a	n/a	-999	21	[4, 4, 3]	11	FR1	3	R1293P
3584.373	2.601	3585846	PROB	2.601	n/a	n/a	-999	21	[9, 2, 4]	15	FR1	3	R1293P
3586.974	2.483	3588447	PROB	2.483	n/a	n/a	-999	21	[3, 9, 2]	14	FR1	3	R1293P
3589.457	2.535	3590930	PROB	2.535	n/a	n/a	-999	21	[8, 3, 1]	12	FR1	3	R1293P
3591.992	3.599	3593465	PROB	3.599	n/a	n/a	-999	21	[3, 5, 9]	17	FR1	3	R1293P
3595.591	4.528	3597063	PROB	4.528	n/a	n/a	-999	21	[7, 9, 6]	22	FR1	3	R1293P
3600.119	0.007	3601591	STOP	n/a	n/a	n/a	-999	21	[-999, -999, -999]	n/a	FR1	3	R1293P
3600.126	0.668	3601598	DISTRACT_END	n/a	n/a	n/a	-999	21	[0, 0, 0]	n/a	FR1	3	R1293P
3600.794	1.615	3602266	RETRIEVAL_ORIENT_START	n/a	n/a	n/a	-999	21	[0, 0, 0]	n/a	FR1	3	R1293P
3602.409	0.001	3603881	RETRIEVAL_ORIENT_END	n/a	n/a	n/a	-999	21	[0, 0, 0]	n/a	FR1	3	R1293P
3602.41	4.895	3603882	REC_START	n/a	n/a	n/a	-999	21	[0, 0, 0]	n/a	FR1	3	R1293P
3607.305	0.764	3608777	REC_WORD	0.764	n/a	TRASH	11	21	[0, 0, 0]	n/a	FR1	3	R1293P
3608.069	0.8	3609541	REC_WORD	0.8	n/a	RUG	3	21	[0, 0, 0]	n/a	FR1	3	R1293P
3608.869	3.79	3610341	REC_WORD	3.79	n/a	WEED	1	21	[0, 0, 0]	n/a	FR1	3	R1293P
3612.659	1.501	3614131	REC_WORD	1.501	n/a	LAMB	-999	21	[0, 0, 0]	n/a	FR1	3	R1293P
3614.16	18.263	3615631	REC_WORD	18.263	n/a	ROOF	12	21	[0, 0, 0]	n/a	FR1	3	R1293P
3632.423	0.001	3633894	REC_END	n/a	n/a	n/a	-999	21	[0, 0, 0]	n/a	FR1	3	R1293P
3632.424	0.019	3633895	TRIAL_END	n/a	n/a	n/a	-999	21	[0, 0, 0]	n/a	FR1	3	R1293P
3632.443	0.0	3633914	TRIAL_START	n/a	n/a	n/a	-999	22	[0, 0, 0]	n/a	FR1	3	R1293P
3632.443	0.001	3633914	TRIAL	n/a	n/a	n/a	-999	22	[0, 0, 0]	n/a	FR1	3	R1293P
3632.444	5.473	3633915	WAITING_START	n/a	n/a	n/a	-999	22	[0, 0, 0]	n/a	FR1	3	R1293P
3637.917	0.001	3639387	WAITING_END	n/a	n/a	n/a	-999	22	[0, 0, 0]	n/a	FR1	3	R1293P
3637.918	10.429	3639388	COUNTDOWN_START	n/a	n/a	n/a	-999	22	[0, 0, 0]	n/a	FR1	3	R1293P
3648.347	0.001	3649817	COUNTDOWN_END	n/a	n/a	n/a	-999	22	[0, 0, 0]	n/a	FR1	3	R1293P
3648.348	1.07	3649818	ORIENT_START	n/a	n/a	n/a	-999	22	[0, 0, 0]	n/a	FR1	3	R1293P
3649.418	0.001	3650888	ORIENT_END	n/a	n/a	n/a	-999	22	[0, 0, 0]	n/a	FR1	3	R1293P
3649.419	1.026	3650889	ENCODING_START	n/a	n/a	n/a	-999	22	[0, 0, 0]	n/a	FR1	3	R1293P
3650.445	1.625	3651915	WORD	n/a	n/a	PASTE	1	22	[0, 0, 0]	n/a	FR1	3	R1293P
3652.07	1.0	3653540	WORD_OFF	n/a	n/a	PASTE	1	22	[0, 0, 0]	n/a	FR1	3	R1293P
3653.07	1.633	3654539	WORD	n/a	n/a	CLOTH	2	22	[0, 0, 0]	n/a	FR1	3	R1293P
3654.703	1.063	3656172	WORD_OFF	n/a	n/a	CLOTH	2	22	[0, 0, 0]	n/a	FR1	3	R1293P
3655.766	1.637	3657235	WORD	n/a	n/a	STAR	3	22	[0, 0, 0]	n/a	FR1	3	R1293P
3657.403	1.115	3658872	WORD_OFF	n/a	n/a	STAR	3	22	[0, 0, 0]	n/a	FR1	3	R1293P
3658.518	1.636	3659987	WORD	n/a	n/a	BEACH	4	22	[0, 0, 0]	n/a	FR1	3	R1293P
3660.154	0.763	3661623	WORD_OFF	n/a	n/a	BEACH	4	22	[0, 0, 0]	n/a	FR1	3	R1293P
3660.917	1.637	3662386	WORD	n/a	n/a	TOY	5	22	[0, 0, 0]	n/a	FR1	3	R1293P
3662.554	0.858	3664023	WORD_OFF	n/a	n/a	TOY	5	22	[0, 0, 0]	n/a	FR1	3	R1293P
3663.412	1.627	3664881	WORD	n/a	n/a	FUR	6	22	[0, 0, 0]	n/a	FR1	3	R1293P
3665.039	0.997	3666508	WORD_OFF	n/a	n/a	FUR	6	22	[0, 0, 0]	n/a	FR1	3	R1293P
3666.036	1.636	3667505	WORD	n/a	n/a	PEACH	7	22	[0, 0, 0]	n/a	FR1	3	R1293P
3667.672	0.896	3669141	WORD_OFF	n/a	n/a	PEACH	7	22	[0, 0, 0]	n/a	FR1	3	R1293P
3668.568	1.621	3670037	WORD	n/a	n/a	FISH	8	22	[0, 0, 0]	n/a	FR1	3	R1293P
3670.189	0.988	3671658	WORD_OFF	n/a	n/a	FISH	8	22	[0, 0, 0]	n/a	FR1	3	R1293P
3671.177	1.629	3672646	WORD	n/a	n/a	BAG	9	22	[0, 0, 0]	n/a	FR1	3	R1293P
3672.806	1.029	3674274	WORD_OFF	n/a	n/a	BAG	9	22	[0, 0, 0]	n/a	FR1	3	R1293P
3673.835	1.622	3675303	WORD	n/a	n/a	ELF	10	22	[0, 0, 0]	n/a	FR1	3	R1293P
3675.457	0.909	3676925	WORD_OFF	n/a	n/a	ELF	10	22	[0, 0, 0]	n/a	FR1	3	R1293P
3676.366	1.608	3677834	WORD	n/a	n/a	CHIN	11	22	[0, 0, 0]	n/a	FR1	3	R1293P
3677.974	1.093	3679442	WORD_OFF	n/a	n/a	CHIN	11	22	[0, 0, 0]	n/a	FR1	3	R1293P
3679.067	1.624	3680535	WORD	n/a	n/a	INK	12	22	[0, 0, 0]	n/a	FR1	3	R1293P
3680.691	0.001	3682159	WORD_OFF	n/a	n/a	INK	12	22	[0, 0, 0]	n/a	FR1	3	R1293P
3680.692	0.001	3682160	ENCODING_END	n/a	n/a	n/a	-999	22	[0, 0, 0]	n/a	FR1	3	R1293P
3680.693	0.0	3682161	DISTRACT_START	n/a	n/a	n/a	-999	22	[0, 0, 0]	n/a	FR1	3	R1293P
3680.693	0.014	3682161	START	n/a	n/a	n/a	-999	22	[-999, -999, -999]	n/a	FR1	3	R1293P
3680.707	3.551	3682175	PROB	3.551	n/a	n/a	-999	22	[6, 9, 1]	16	FR1	3	R1293P
3684.258	2.534	3685726	PROB	2.534	n/a	n/a	-999	22	[3, 6, 6]	15	FR1	3	R1293P
3686.792	2.867	3688260	PROB	2.867	n/a	n/a	-999	22	[4, 9, 2]	15	FR1	3	R1293P
3689.659	6.068	3691127	PROB	6.068	n/a	n/a	-999	22	[2, 1, 8]	11	FR1	3	R1293P
3695.727	3.884	3697194	PROB	3.884	n/a	n/a	-999	22	[2, 4, 3]	9	FR1	3	R1293P
3699.611	5.651	3701078	PROB	5.651	n/a	n/a	-999	22	[9, 9, 7]	25	FR1	3	R1293P
3705.262	0.017	3706729	STOP	n/a	n/a	n/a	-999	22	[-999, -999, -999]	n/a	FR1	3	R1293P
3705.279	0.517	3706746	DISTRACT_END	n/a	n/a	n/a	-999	22	[0, 0, 0]	n/a	FR1	3	R1293P
3705.796	1.583	3707263	RETRIEVAL_ORIENT_START	n/a	n/a	n/a	-999	22	[0, 0, 0]	n/a	FR1	3	R1293P
3707.379	0.001	3708846	RETRIEVAL_ORIENT_END	n/a	n/a	n/a	-999	22	[0, 0, 0]	n/a	FR1	3	R1293P
3707.38	29.994	3708847	REC_START	n/a	n/a	n/a	-999	22	[0, 0, 0]	n/a	FR1	3	R1293P
3737.374	0.018	3738839	REC_WORD_VV	0.018	n/a	<>	-999	22	[0, 0, 0]	n/a	FR1	3	R1293P
