onset	duration	sample	trial_type	response_time	stim_file	item_name	serialpos	list	test	answer	experiment	session	subject
0.0	0.0	9624	INSTRUCT_START	n/a	n/a	n/a	-999	-999	[0, 0, 0]	n/a	FR1	0	R1158T
0.0	10.821	9624	INSTRUCT_END	n/a	n/a	n/a	-999	-999	[0, 0, 0]	n/a	FR1	0	R1158T
10.821	0.0	20444	SESS_START	n/a	n/a	n/a	-999	-999	[0, 0, 0]	n/a	FR1	0	R1158T
10.821	282.467	20444	MIC_TEST	n/a	n/a	n/a	-999	-999	[0, 0, 0]	n/a	FR1	0	R1158T
293.288	5.968	302894	PRACTICE_TRIAL	n/a	n/a	n/a	-999	-1	[0, 0, 0]	n/a	FR1	0	R1158T
299.256	10.428	308862	COUNTDOWN_START	n/a	n/a	n/a	-999	-1	[0, 0, 0]	n/a	FR1	0	R1158T
309.684	0.007	319289	COUNTDOWN_END	n/a	n/a	n/a	-999	-1	[0, 0, 0]	n/a	FR1	0	R1158T
309.691	1.616	319296	PRACTICE_ORIENT	n/a	n/a	n/a	-999	-1	[0, 0, 0]	n/a	FR1	0	R1158T
311.307	1.967	320912	PRACTICE_ORIENT_OFF	n/a	n/a	n/a	-999	-1	[0, 0, 0]	n/a	FR1	0	R1158T
313.274	1.618	322879	PRACTICE_WORD	n/a	n/a	CHEST	1	-1	[0, 0, 0]	n/a	FR1	0	R1158T
314.892	0.767	324497	PRACTICE_WORD_OFF	n/a	n/a	CHEST	-999	-1	[0, 0, 0]	n/a	FR1	0	R1158T
315.659	1.616	325264	PRACTICE_WORD	n/a	n/a	CAMEL	2	-1	[0, 0, 0]	n/a	FR1	0	R1158T
317.275	0.8	326880	PRACTICE_WORD_OFF	n/a	n/a	CAMEL	-999	-1	[0, 0, 0]	n/a	FR1	0	R1158T
318.075	1.601	327680	PRACTICE_WORD	n/a	n/a	ATTIC	3	-1	[0, 0, 0]	n/a	FR1	0	R1158T
319.676	0.866	329281	PRACTICE_WORD_OFF	n/a	n/a	ATTIC	-999	-1	[0, 0, 0]	n/a	FR1	0	R1158T
320.542	1.617	330147	PRACTICE_WORD	n/a	n/a	COTTON	4	-1	[0, 0, 0]	n/a	FR1	0	R1158T
322.159	0.933	331764	PRACTICE_WORD_OFF	n/a	n/a	COTTON	-999	-1	[0, 0, 0]	n/a	FR1	0	R1158T
323.092	1.619	332697	PRACTICE_WORD	n/a	n/a	RING	5	-1	[0, 0, 0]	n/a	FR1	0	R1158T
324.711	0.782	334315	PRACTICE_WORD_OFF	n/a	n/a	RING	-999	-1	[0, 0, 0]	n/a	FR1	0	R1158T
325.493	1.617	335097	PRACTICE_WORD	n/a	n/a	BEAM	6	-1	[0, 0, 0]	n/a	FR1	0	R1158T
327.11	0.967	336714	PRACTICE_WORD_OFF	n/a	n/a	BEAM	-999	-1	[0, 0, 0]	n/a	FR1	0	R1158T
328.077	1.618	337681	PRACTICE_WORD	n/a	n/a	RHINO	7	-1	[0, 0, 0]	n/a	FR1	0	R1158T
329.695	0.866	339299	PRACTICE_WORD_OFF	n/a	n/a	RHINO	-999	-1	[0, 0, 0]	n/a	FR1	0	R1158T
330.561	1.617	340165	PRACTICE_WORD	n/a	n/a	TONGUE	8	-1	[0, 0, 0]	n/a	FR1	0	R1158T
332.178	1.017	341782	PRACTICE_WORD_OFF	n/a	n/a	TONGUE	-999	-1	[0, 0, 0]	n/a	FR1	0	R1158T
333.195	1.618	342799	PRACTICE_WORD	n/a	n/a	FLOOD	9	-1	[0, 0, 0]	n/a	FR1	0	R1158T
334.813	0.866	344417	PRACTICE_WORD_OFF	n/a	n/a	FLOOD	-999	-1	[0, 0, 0]	n/a	FR1	0	R1158T
335.679	1.616	345283	PRACTICE_WORD	n/a	n/a	WATCH	10	-1	[0, 0, 0]	n/a	FR1	0	R1158T
337.295	0.867	346899	PRACTICE_WORD_OFF	n/a	n/a	WATCH	-999	-1	[0, 0, 0]	n/a	FR1	0	R1158T
338.162	1.618	347766	PRACTICE_WORD	n/a	n/a	WAGON	11	-1	[0, 0, 0]	n/a	FR1	0	R1158T
339.78	0.934	349384	PRACTICE_WORD_OFF	n/a	n/a	WAGON	-999	-1	[0, 0, 0]	n/a	FR1	0	R1158T
340.714	1.616	350318	PRACTICE_WORD	n/a	n/a	IRON	12	-1	[0, 0, 0]	n/a	FR1	0	R1158T
342.33	0.0	351933	PRACTICE_WORD_OFF	n/a	n/a	IRON	-999	-1	[0, 0, 0]	n/a	FR1	0	R1158T
342.33	0.0	351933	DISTRACT_START	n/a	n/a	n/a	-999	-1	[0, 0, 0]	n/a	FR1	0	R1158T
342.33	0.016	351933	START	n/a	n/a	n/a	-999	-1	[-999, -999, -999]	n/a	FR1	0	R1158T
342.346	15.521	351949	PROB	15.521	n/a	n/a	-999	-1	[1, 3, 3]	7	FR1	0	R1158T
357.867	6.762	367470	PROB	6.762	n/a	n/a	-999	-1	[9, 6, 2]	17	FR1	0	R1158T
364.629	0.005	374231	STOP	n/a	n/a	n/a	-999	-1	[-999, -999, -999]	n/a	FR1	0	R1158T
364.634	0.55	374236	DISTRACT_END	n/a	n/a	n/a	-999	-1	[0, 0, 0]	n/a	FR1	0	R1158T
365.184	0.518	374786	RETRIEVAL_ORIENT	n/a	n/a	n/a	-999	-1	[0, 0, 0]	n/a	FR1	0	R1158T
365.702	30.012	375304	PRACTICE_REC_START	n/a	n/a	n/a	-999	-1	[0, 0, 0]	n/a	FR1	0	R1158T
395.714	58.419	405314	PRACTICE_REC_END	n/a	n/a	n/a	-999	-1	[0, 0, 0]	n/a	FR1	0	R1158T
454.133	0.5	463730	TRIAL	n/a	n/a	n/a	-999	1	[0, 0, 0]	n/a	FR1	0	R1158T
454.633	10.428	464230	COUNTDOWN_START	n/a	n/a	n/a	-999	1	[0, 0, 0]	n/a	FR1	0	R1158T
465.061	0.008	474657	COUNTDOWN_END	n/a	n/a	n/a	-999	1	[0, 0, 0]	n/a	FR1	0	R1158T
465.069	1.618	474665	ORIENT	n/a	n/a	n/a	-999	1	[0, 0, 0]	n/a	FR1	0	R1158T
466.687	2.382	476283	ORIENT_OFF	n/a	n/a	n/a	-999	1	[0, 0, 0]	n/a	FR1	0	R1158T
469.069	1.618	478665	WORD	n/a	wordpools/wordpool_EN.txt	LAND	1	1	[0, 0, 0]	n/a	FR1	0	R1158T
470.687	0.866	480283	WORD_OFF	n/a	n/a	LAND	1	1	[0, 0, 0]	n/a	FR1	0	R1158T
471.553	1.617	481149	WORD	n/a	wordpools/wordpool_EN.txt	BEACH	2	1	[0, 0, 0]	n/a	FR1	0	R1158T
473.17	0.884	482766	WORD_OFF	n/a	n/a	BEACH	2	1	[0, 0, 0]	n/a	FR1	0	R1158T
474.054	1.618	483650	WORD	n/a	wordpools/wordpool_EN.txt	RICE	3	1	[0, 0, 0]	n/a	FR1	0	R1158T
475.672	0.983	485268	WORD_OFF	n/a	n/a	RICE	3	1	[0, 0, 0]	n/a	FR1	0	R1158T
476.655	1.616	486251	WORD	n/a	wordpools/wordpool_EN.txt	FOOD	4	1	[0, 0, 0]	n/a	FR1	0	R1158T
478.271	0.884	487866	WORD_OFF	n/a	n/a	FOOD	4	1	[0, 0, 0]	n/a	FR1	0	R1158T
479.155	1.617	488750	WORD	n/a	wordpools/wordpool_EN.txt	CAPE	5	1	[0, 0, 0]	n/a	FR1	0	R1158T
480.772	0.816	490367	WORD_OFF	n/a	n/a	CAPE	5	1	[0, 0, 0]	n/a	FR1	0	R1158T
481.588	1.617	491183	WORD	n/a	wordpools/wordpool_EN.txt	PLANT	6	1	[0, 0, 0]	n/a	FR1	0	R1158T
483.205	0.85	492800	WORD_OFF	n/a	n/a	PLANT	6	1	[0, 0, 0]	n/a	FR1	0	R1158T
484.055	1.602	493650	WORD	n/a	wordpools/wordpool_EN.txt	SEAL	7	1	[0, 0, 0]	n/a	FR1	0	R1158T
485.657	0.95	495252	WORD_OFF	n/a	n/a	SEAL	7	1	[0, 0, 0]	n/a	FR1	0	R1158T
486.607	1.616	496202	WORD	n/a	wordpools/wordpool_EN.txt	SUN	8	1	[0, 0, 0]	n/a	FR1	0	R1158T
488.223	0.933	497818	WORD_OFF	n/a	n/a	SUN	8	1	[0, 0, 0]	n/a	FR1	0	R1158T
489.156	1.601	498751	WORD	n/a	wordpools/wordpool_EN.txt	MOON	9	1	[0, 0, 0]	n/a	FR1	0	R1158T
490.757	0.984	500352	WORD_OFF	n/a	n/a	MOON	9	1	[0, 0, 0]	n/a	FR1	0	R1158T
491.741	1.616	501336	WORD	n/a	wordpools/wordpool_EN.txt	STAR	10	1	[0, 0, 0]	n/a	FR1	0	R1158T
493.357	0.9	502952	WORD_OFF	n/a	n/a	STAR	10	1	[0, 0, 0]	n/a	FR1	0	R1158T
494.257	1.618	503852	WORD	n/a	wordpools/wordpool_EN.txt	BLOOM	11	1	[0, 0, 0]	n/a	FR1	0	R1158T
495.875	0.867	505469	WORD_OFF	n/a	n/a	BLOOM	11	1	[0, 0, 0]	n/a	FR1	0	R1158T
496.742	1.616	506336	WORD	n/a	wordpools/wordpool_EN.txt	WHALE	12	1	[0, 0, 0]	n/a	FR1	0	R1158T
498.358	0.0	507952	WORD_OFF	n/a	n/a	WHALE	12	1	[0, 0, 0]	n/a	FR1	0	R1158T
498.358	0.001	507952	DISTRACT_START	n/a	n/a	n/a	-999	1	[0, 0, 0]	n/a	FR1	0	R1158T
498.359	0.016	507953	START	n/a	n/a	n/a	-999	1	[-999, -999, -999]	n/a	FR1	0	R1158T
498.375	6.718	507969	PROB	6.718	n/a	n/a	-999	1	[2, 8, 6]	16	FR1	0	R1158T
505.093	6.284	514687	PROB	6.284	n/a	n/a	-999	1	[5, 4, 7]	16	FR1	0	R1158T
511.377	6.818	520971	PROB	6.818	n/a	n/a	-999	1	[4, 9, 3]	16	FR1	0	R1158T
518.195	6.658	527788	PROB	6.658	n/a	n/a	-999	1	[5, 7, 2]	14	FR1	0	R1158T
524.853	0.011	534446	STOP	n/a	n/a	n/a	-999	1	[-999, -999, -999]	n/a	FR1	0	R1158T
524.864	0.566	534457	DISTRACT_END	n/a	n/a	n/a	-999	1	[0, 0, 0]	n/a	FR1	0	R1158T
525.43	0.517	535023	RETRIEVAL_ORIENT	n/a	n/a	n/a	-999	1	[0, 0, 0]	n/a	FR1	0	R1158T
525.947	1.977	535540	REC_START	n/a	n/a	n/a	-999	1	[0, 0, 0]	n/a	FR1	0	R1158T
527.924	0.775	537517	REC_WORD	0.775	n/a	SUN	-999	1	[0, 0, 0]	n/a	FR1	0	R1158T
528.699	1.067	538292	REC_WORD	1.067	n/a	MOON	-999	1	[0, 0, 0]	n/a	FR1	0	R1158T
529.766	1.642	539358	REC_WORD	1.642	n/a	BEACH	-999	1	[0, 0, 0]	n/a	FR1	0	R1158T
531.408	2.511	541000	REC_WORD	2.511	n/a	FOOD	-999	1	[0, 0, 0]	n/a	FR1	0	R1158T
533.919	13.168	543511	REC_WORD	13.168	n/a	RICE	-999	1	[0, 0, 0]	n/a	FR1	0	R1158T
547.087	1.0	556678	REC_WORD_VV	1.0	n/a	<>	-999	1	[0, 0, 0]	n/a	FR1	0	R1158T
548.087	0.506	557678	REC_WORD_VV	0.506	n/a	<>	-999	1	[0, 0, 0]	n/a	FR1	0	R1158T
548.593	7.366	558184	REC_WORD	7.366	n/a	BEACH	-999	1	[0, 0, 0]	n/a	FR1	0	R1158T
555.959	7.478	565550	REC_END	n/a	n/a	n/a	-999	1	[0, 0, 0]	n/a	FR1	0	R1158T
563.437	0.5	573027	TRIAL	n/a	n/a	n/a	-999	2	[0, 0, 0]	n/a	FR1	0	R1158T
563.937	10.428	573527	COUNTDOWN_START	n/a	n/a	n/a	-999	2	[0, 0, 0]	n/a	FR1	0	R1158T
574.365	0.007	583955	COUNTDOWN_END	n/a	n/a	n/a	-999	2	[0, 0, 0]	n/a	FR1	0	R1158T
574.372	1.617	583962	ORIENT	n/a	n/a	n/a	-999	2	[0, 0, 0]	n/a	FR1	0	R1158T
575.989	2.2	585579	ORIENT_OFF	n/a	n/a	n/a	-999	2	[0, 0, 0]	n/a	FR1	0	R1158T
578.189	1.618	587779	WORD	n/a	wordpools/wordpool_EN.txt	GOAT	1	2	[0, 0, 0]	n/a	FR1	0	R1158T
579.807	0.8	589397	WORD_OFF	n/a	n/a	GOAT	1	2	[0, 0, 0]	n/a	FR1	0	R1158T
580.607	1.616	590196	WORD	n/a	wordpools/wordpool_EN.txt	VEST	2	2	[0, 0, 0]	n/a	FR1	0	R1158T
582.223	0.984	591812	WORD_OFF	n/a	n/a	VEST	2	2	[0, 0, 0]	n/a	FR1	0	R1158T
583.207	1.618	592796	WORD	n/a	wordpools/wordpool_EN.txt	NEST	3	2	[0, 0, 0]	n/a	FR1	0	R1158T
584.825	0.8	594414	WORD_OFF	n/a	n/a	NEST	3	2	[0, 0, 0]	n/a	FR1	0	R1158T
585.625	1.616	595214	WORD	n/a	wordpools/wordpool_EN.txt	HOUSE	4	2	[0, 0, 0]	n/a	FR1	0	R1158T
587.241	0.984	596830	WORD_OFF	n/a	n/a	HOUSE	4	2	[0, 0, 0]	n/a	FR1	0	R1158T
588.225	1.617	597814	WORD	n/a	wordpools/wordpool_EN.txt	HILL	5	2	[0, 0, 0]	n/a	FR1	0	R1158T
589.842	0.784	599431	WORD_OFF	n/a	n/a	HILL	5	2	[0, 0, 0]	n/a	FR1	0	R1158T
590.626	1.616	600215	WORD	n/a	wordpools/wordpool_EN.txt	OWL	6	2	[0, 0, 0]	n/a	FR1	0	R1158T
592.242	0.967	601831	WORD_OFF	n/a	n/a	OWL	6	2	[0, 0, 0]	n/a	FR1	0	R1158T
593.209	1.618	602798	WORD	n/a	wordpools/wordpool_EN.txt	POND	7	2	[0, 0, 0]	n/a	FR1	0	R1158T
594.827	0.816	604416	WORD_OFF	n/a	n/a	POND	7	2	[0, 0, 0]	n/a	FR1	0	R1158T
595.643	1.616	605232	WORD	n/a	wordpools/wordpool_EN.txt	HAWK	8	2	[0, 0, 0]	n/a	FR1	0	R1158T
597.259	0.884	606848	WORD_OFF	n/a	n/a	HAWK	8	2	[0, 0, 0]	n/a	FR1	0	R1158T
598.143	1.618	607731	WORD	n/a	wordpools/wordpool_EN.txt	BARN	9	2	[0, 0, 0]	n/a	FR1	0	R1158T
599.761	1.0	609349	WORD_OFF	n/a	n/a	BARN	9	2	[0, 0, 0]	n/a	FR1	0	R1158T
600.761	1.616	610349	WORD	n/a	wordpools/wordpool_EN.txt	SKY	10	2	[0, 0, 0]	n/a	FR1	0	R1158T
602.377	0.817	611965	WORD_OFF	n/a	n/a	SKY	10	2	[0, 0, 0]	n/a	FR1	0	R1158T
603.194	1.601	612782	WORD	n/a	wordpools/wordpool_EN.txt	CLOUD	11	2	[0, 0, 0]	n/a	FR1	0	R1158T
604.795	1.0	614383	WORD_OFF	n/a	n/a	CLOUD	11	2	[0, 0, 0]	n/a	FR1	0	R1158T
605.795	1.616	615383	WORD	n/a	wordpools/wordpool_EN.txt	FROG	12	2	[0, 0, 0]	n/a	FR1	0	R1158T
607.411	0.0	616999	WORD_OFF	n/a	n/a	FROG	12	2	[0, 0, 0]	n/a	FR1	0	R1158T
607.411	0.001	616999	DISTRACT_START	n/a	n/a	n/a	-999	2	[0, 0, 0]	n/a	FR1	0	R1158T
607.412	0.016	617000	START	n/a	n/a	n/a	-999	2	[-999, -999, -999]	n/a	FR1	0	R1158T
607.428	7.051	617016	PROB	7.051	n/a	n/a	-999	2	[1, 6, 2]	9	FR1	0	R1158T
614.479	5.718	624066	PROB	5.718	n/a	n/a	-999	2	[2, 3, 3]	8	FR1	0	R1158T
620.197	5.585	629784	PROB	5.585	n/a	n/a	-999	2	[8, 1, 1]	10	FR1	0	R1158T
625.782	5.119	635369	PROB	5.119	n/a	n/a	-999	2	[4, 4, 3]	11	FR1	0	R1158T
630.901	0.016	640488	STOP	n/a	n/a	n/a	-999	2	[-999, -999, -999]	n/a	FR1	0	R1158T
630.917	0.565	640504	DISTRACT_END	n/a	n/a	n/a	-999	2	[0, 0, 0]	n/a	FR1	0	R1158T
631.482	0.52	641069	RETRIEVAL_ORIENT	n/a	n/a	n/a	-999	2	[0, 0, 0]	n/a	FR1	0	R1158T
632.002	1.488	641588	REC_START	n/a	n/a	n/a	-999	2	[0, 0, 0]	n/a	FR1	0	R1158T
633.49	0.885	643076	REC_WORD	0.885	n/a	OWL	-999	2	[0, 0, 0]	n/a	FR1	0	R1158T
634.375	4.788	643961	REC_WORD	4.788	n/a	BARN	-999	2	[0, 0, 0]	n/a	FR1	0	R1158T
639.163	11.3	648749	REC_WORD	11.3	n/a	VEST	-999	2	[0, 0, 0]	n/a	FR1	0	R1158T
650.463	0.743	660048	REC_WORD_VV	0.743	n/a	<>	-999	2	[0, 0, 0]	n/a	FR1	0	R1158T
651.206	5.198	660791	REC_WORD	5.198	n/a	WEST	-999	2	[0, 0, 0]	n/a	FR1	0	R1158T
656.404	5.607	665989	REC_WORD	5.607	n/a	BARN	-999	2	[0, 0, 0]	n/a	FR1	0	R1158T
662.011	6.278	671596	REC_END	n/a	n/a	n/a	-999	2	[0, 0, 0]	n/a	FR1	0	R1158T
668.289	0.5	677873	TRIAL	n/a	n/a	n/a	-999	3	[0, 0, 0]	n/a	FR1	0	R1158T
668.789	10.428	678373	COUNTDOWN_START	n/a	n/a	n/a	-999	3	[0, 0, 0]	n/a	FR1	0	R1158T
679.217	0.007	688801	COUNTDOWN_END	n/a	n/a	n/a	-999	3	[0, 0, 0]	n/a	FR1	0	R1158T
679.224	1.601	688808	ORIENT	n/a	n/a	n/a	-999	3	[0, 0, 0]	n/a	FR1	0	R1158T
680.825	1.951	690409	ORIENT_OFF	n/a	n/a	n/a	-999	3	[0, 0, 0]	n/a	FR1	0	R1158T
682.776	1.616	692359	WORD	n/a	wordpools/wordpool_EN.txt	DEER	1	3	[0, 0, 0]	n/a	FR1	0	R1158T
684.392	0.8	693975	WORD_OFF	n/a	n/a	DEER	1	3	[0, 0, 0]	n/a	FR1	0	R1158T
685.192	1.601	694775	WORD	n/a	wordpools/wordpool_EN.txt	BIRD	2	3	[0, 0, 0]	n/a	FR1	0	R1158T
686.793	0.951	696376	WORD_OFF	n/a	n/a	BIRD	2	3	[0, 0, 0]	n/a	FR1	0	R1158T
687.744	1.616	697327	WORD	n/a	wordpools/wordpool_EN.txt	KITE	3	3	[0, 0, 0]	n/a	FR1	0	R1158T
689.36	0.85	698943	WORD_OFF	n/a	n/a	KITE	3	3	[0, 0, 0]	n/a	FR1	0	R1158T
690.21	1.618	699793	WORD	n/a	wordpools/wordpool_EN.txt	PEN	4	3	[0, 0, 0]	n/a	FR1	0	R1158T
691.828	1.0	701411	WORD_OFF	n/a	n/a	PEN	4	3	[0, 0, 0]	n/a	FR1	0	R1158T
692.828	1.616	702411	WORD	n/a	wordpools/wordpool_EN.txt	BEAR	5	3	[0, 0, 0]	n/a	FR1	0	R1158T
694.444	0.867	704027	WORD_OFF	n/a	n/a	BEAR	5	3	[0, 0, 0]	n/a	FR1	0	R1158T
695.311	1.618	704894	WORD	n/a	wordpools/wordpool_EN.txt	COW	6	3	[0, 0, 0]	n/a	FR1	0	R1158T
696.929	0.833	706512	WORD_OFF	n/a	n/a	COW	6	3	[0, 0, 0]	n/a	FR1	0	R1158T
697.762	1.616	707345	WORD	n/a	wordpools/wordpool_EN.txt	SNAKE	7	3	[0, 0, 0]	n/a	FR1	0	R1158T
699.378	0.833	708961	WORD_OFF	n/a	n/a	SNAKE	7	3	[0, 0, 0]	n/a	FR1	0	R1158T
700.211	1.602	709793	WORD	n/a	wordpools/wordpool_EN.txt	HAT	8	3	[0, 0, 0]	n/a	FR1	0	R1158T
701.813	0.867	711395	WORD_OFF	n/a	n/a	HAT	8	3	[0, 0, 0]	n/a	FR1	0	R1158T
702.68	1.616	712262	WORD	n/a	wordpools/wordpool_EN.txt	PIG	9	3	[0, 0, 0]	n/a	FR1	0	R1158T
704.296	0.9	713878	WORD_OFF	n/a	n/a	PIG	9	3	[0, 0, 0]	n/a	FR1	0	R1158T
705.196	1.601	714778	WORD	n/a	wordpools/wordpool_EN.txt	FOX	10	3	[0, 0, 0]	n/a	FR1	0	R1158T
706.797	0.934	716379	WORD_OFF	n/a	n/a	FOX	10	3	[0, 0, 0]	n/a	FR1	0	R1158T
707.731	1.616	717313	WORD	n/a	wordpools/wordpool_EN.txt	FLEA	11	3	[0, 0, 0]	n/a	FR1	0	R1158T
709.347	0.8	718929	WORD_OFF	n/a	n/a	FLEA	11	3	[0, 0, 0]	n/a	FR1	0	R1158T
710.147	1.618	719729	WORD	n/a	wordpools/wordpool_EN.txt	SOCK	12	3	[0, 0, 0]	n/a	FR1	0	R1158T
711.765	0.0	721347	DISTRACT_START	n/a	n/a	n/a	-999	3	[0, 0, 0]	n/a	FR1	0	R1158T
711.765	0.0	721347	WORD_OFF	n/a	n/a	SOCK	12	3	[0, 0, 0]	n/a	FR1	0	R1158T
711.765	0.016	721347	START	n/a	n/a	n/a	-999	3	[-999, -999, -999]	n/a	FR1	0	R1158T
711.781	7.918	721363	PROB	7.918	n/a	n/a	-999	3	[6, 8, 9]	23	FR1	0	R1158T
719.699	5.935	729280	PROB	5.935	n/a	n/a	-999	3	[8, 1, 7]	16	FR1	0	R1158T
725.634	7.236	735215	PROB	7.236	n/a	n/a	-999	3	[4, 3, 6]	13	FR1	0	R1158T
732.87	0.015	742451	STOP	n/a	n/a	n/a	-999	3	[-999, -999, -999]	n/a	FR1	0	R1158T
732.885	0.699	742466	DISTRACT_END	n/a	n/a	n/a	-999	3	[0, 0, 0]	n/a	FR1	0	R1158T
733.584	0.518	743165	RETRIEVAL_ORIENT	n/a	n/a	n/a	-999	3	[0, 0, 0]	n/a	FR1	0	R1158T
734.102	2.326	743682	REC_START	n/a	n/a	n/a	-999	3	[0, 0, 0]	n/a	FR1	0	R1158T
736.428	2.563	746008	REC_WORD	2.563	n/a	BEAR	-999	3	[0, 0, 0]	n/a	FR1	0	R1158T
738.991	5.145	748571	REC_WORD	5.145	n/a	DEER	-999	3	[0, 0, 0]	n/a	FR1	0	R1158T
744.136	7.336	753716	REC_WORD	7.336	n/a	SOCK	-999	3	[0, 0, 0]	n/a	FR1	0	R1158T
751.472	12.643	761051	REC_WORD	12.643	n/a	COW	-999	3	[0, 0, 0]	n/a	FR1	0	R1158T
764.115	6.009	773694	REC_END	n/a	n/a	n/a	-999	3	[0, 0, 0]	n/a	FR1	0	R1158T
770.124	0.5	779702	TRIAL	n/a	n/a	n/a	-999	4	[0, 0, 0]	n/a	FR1	0	R1158T
770.624	10.428	780202	COUNTDOWN_START	n/a	n/a	n/a	-999	4	[0, 0, 0]	n/a	FR1	0	R1158T
781.052	0.008	790630	COUNTDOWN_END	n/a	n/a	n/a	-999	4	[0, 0, 0]	n/a	FR1	0	R1158T
781.06	1.617	790638	ORIENT	n/a	n/a	n/a	-999	4	[0, 0, 0]	n/a	FR1	0	R1158T
782.677	1.85	792255	ORIENT_OFF	n/a	n/a	n/a	-999	4	[0, 0, 0]	n/a	FR1	0	R1158T
784.527	1.617	794105	WORD	n/a	wordpools/wordpool_EN.txt	KEY	1	4	[0, 0, 0]	n/a	FR1	0	R1158T
786.144	0.768	795721	WORD_OFF	n/a	n/a	KEY	1	4	[0, 0, 0]	n/a	FR1	0	R1158T
786.912	1.616	796489	WORD	n/a	wordpools/wordpool_EN.txt	SHEET	2	4	[0, 0, 0]	n/a	FR1	0	R1158T
788.528	1.0	798105	WORD_OFF	n/a	n/a	SHEET	2	4	[0, 0, 0]	n/a	FR1	0	R1158T
789.528	1.617	799105	WORD	n/a	wordpools/wordpool_EN.txt	MAIL	3	4	[0, 0, 0]	n/a	FR1	0	R1158T
791.145	0.768	800722	WORD_OFF	n/a	n/a	MAIL	3	4	[0, 0, 0]	n/a	FR1	0	R1158T
791.913	1.615	801490	WORD	n/a	wordpools/wordpool_EN.txt	PLANE	4	4	[0, 0, 0]	n/a	FR1	0	R1158T
793.528	0.817	803105	WORD_OFF	n/a	n/a	PLANE	4	4	[0, 0, 0]	n/a	FR1	0	R1158T
794.345	1.617	803922	WORD	n/a	wordpools/wordpool_EN.txt	CASH	5	4	[0, 0, 0]	n/a	FR1	0	R1158T
795.962	0.801	805539	WORD_OFF	n/a	n/a	CASH	5	4	[0, 0, 0]	n/a	FR1	0	R1158T
796.763	1.616	806340	WORD	n/a	wordpools/wordpool_EN.txt	RAIN	6	4	[0, 0, 0]	n/a	FR1	0	R1158T
798.379	0.784	807956	WORD_OFF	n/a	n/a	RAIN	6	4	[0, 0, 0]	n/a	FR1	0	R1158T
799.163	1.618	808740	WORD	n/a	wordpools/wordpool_EN.txt	WING	7	4	[0, 0, 0]	n/a	FR1	0	R1158T
800.781	0.833	810358	WORD_OFF	n/a	n/a	WING	7	4	[0, 0, 0]	n/a	FR1	0	R1158T
801.614	1.616	811191	WORD	n/a	wordpools/wordpool_EN.txt	COIN	8	4	[0, 0, 0]	n/a	FR1	0	R1158T
803.23	0.934	812806	WORD_OFF	n/a	n/a	COIN	8	4	[0, 0, 0]	n/a	FR1	0	R1158T
804.164	1.618	813740	WORD	n/a	wordpools/wordpool_EN.txt	CAR	9	4	[0, 0, 0]	n/a	FR1	0	R1158T
805.782	0.933	815358	WORD_OFF	n/a	n/a	CAR	9	4	[0, 0, 0]	n/a	FR1	0	R1158T
806.715	1.616	816291	WORD	n/a	wordpools/wordpool_EN.txt	BOOK	10	4	[0, 0, 0]	n/a	FR1	0	R1158T
808.331	0.817	817907	WORD_OFF	n/a	n/a	BOOK	10	4	[0, 0, 0]	n/a	FR1	0	R1158T
809.148	1.618	818724	WORD	n/a	wordpools/wordpool_EN.txt	EEL	11	4	[0, 0, 0]	n/a	FR1	0	R1158T
810.766	0.799	820342	WORD_OFF	n/a	n/a	EEL	11	4	[0, 0, 0]	n/a	FR1	0	R1158T
811.565	1.617	821141	WORD	n/a	wordpools/wordpool_EN.txt	BANK	12	4	[0, 0, 0]	n/a	FR1	0	R1158T
813.182	0.0	822758	WORD_OFF	n/a	n/a	BANK	12	4	[0, 0, 0]	n/a	FR1	0	R1158T
813.182	0.001	822758	DISTRACT_START	n/a	n/a	n/a	-999	4	[0, 0, 0]	n/a	FR1	0	R1158T
813.183	0.016	822759	START	n/a	n/a	n/a	-999	4	[-999, -999, -999]	n/a	FR1	0	R1158T
813.199	6.884	822775	PROB	6.884	n/a	n/a	-999	4	[9, 9, 5]	23	FR1	0	R1158T
820.083	8.67	829658	PROB	8.67	n/a	n/a	-999	4	[6, 6, 6]	18	FR1	0	R1158T
828.753	4.74	838328	PROB	4.74	n/a	n/a	-999	4	[1, 3, 1]	5	FR1	0	R1158T
833.493	0.009	843068	STOP	n/a	n/a	n/a	-999	4	[-999, -999, -999]	n/a	FR1	0	R1158T
833.502	0.634	843077	DISTRACT_END	n/a	n/a	n/a	-999	4	[0, 0, 0]	n/a	FR1	0	R1158T
834.136	0.518	843711	RETRIEVAL_ORIENT	n/a	n/a	n/a	-999	4	[0, 0, 0]	n/a	FR1	0	R1158T
834.654	1.175	844229	REC_START	n/a	n/a	n/a	-999	4	[0, 0, 0]	n/a	FR1	0	R1158T
835.829	1.0	845404	REC_WORD_VV	1.0	n/a	<>	-999	4	[0, 0, 0]	n/a	FR1	0	R1158T
836.829	0.995	846403	REC_WORD_VV	0.995	n/a	<>	-999	4	[0, 0, 0]	n/a	FR1	0	R1158T
837.824	14.646	847398	REC_WORD_VV	14.646	n/a	<>	-999	4	[0, 0, 0]	n/a	FR1	0	R1158T
852.47	1.0	862044	REC_WORD_VV	1.0	n/a	<>	-999	4	[0, 0, 0]	n/a	FR1	0	R1158T
853.47	1.0	863043	REC_WORD_VV	1.0	n/a	<>	-999	4	[0, 0, 0]	n/a	FR1	0	R1158T
854.47	1.0	864043	REC_WORD_VV	1.0	n/a	<>	-999	4	[0, 0, 0]	n/a	FR1	0	R1158T
855.47	1.0	865043	REC_WORD_VV	1.0	n/a	<>	-999	4	[0, 0, 0]	n/a	FR1	0	R1158T
856.47	1.0	866043	REC_WORD_VV	1.0	n/a	<>	-999	4	[0, 0, 0]	n/a	FR1	0	R1158T
857.47	1.0	867043	REC_WORD_VV	1.0	n/a	<>	-999	4	[0, 0, 0]	n/a	FR1	0	R1158T
858.47	1.0	868043	REC_WORD_VV	1.0	n/a	<>	-999	4	[0, 0, 0]	n/a	FR1	0	R1158T
859.47	1.0	869043	REC_WORD_VV	1.0	n/a	<>	-999	4	[0, 0, 0]	n/a	FR1	0	R1158T
860.47	1.0	870043	REC_WORD_VV	1.0	n/a	<>	-999	4	[0, 0, 0]	n/a	FR1	0	R1158T
861.47	1.0	871043	REC_WORD_VV	1.0	n/a	<>	-999	4	[0, 0, 0]	n/a	FR1	0	R1158T
862.47	1.0	872043	REC_WORD_VV	1.0	n/a	<>	-999	4	[0, 0, 0]	n/a	FR1	0	R1158T
863.47	1.0	873043	REC_WORD_VV	1.0	n/a	<>	-999	4	[0, 0, 0]	n/a	FR1	0	R1158T
864.47	0.198	874043	REC_WORD_VV	0.198	n/a	<>	-999	4	[0, 0, 0]	n/a	FR1	0	R1158T
864.668	7.725	874241	REC_END	n/a	n/a	n/a	-999	4	[0, 0, 0]	n/a	FR1	0	R1158T
872.393	0.5	881965	TRIAL	n/a	n/a	n/a	-999	5	[0, 0, 0]	n/a	FR1	0	R1158T
872.893	10.428	882465	COUNTDOWN_START	n/a	n/a	n/a	-999	5	[0, 0, 0]	n/a	FR1	0	R1158T
883.321	0.007	892893	COUNTDOWN_END	n/a	n/a	n/a	-999	5	[0, 0, 0]	n/a	FR1	0	R1158T
883.328	1.617	892900	ORIENT	n/a	n/a	n/a	-999	5	[0, 0, 0]	n/a	FR1	0	R1158T
884.945	2.234	894517	ORIENT_OFF	n/a	n/a	n/a	-999	5	[0, 0, 0]	n/a	FR1	0	R1158T
887.179	1.618	896751	WORD	n/a	wordpools/wordpool_EN.txt	PEARL	1	5	[0, 0, 0]	n/a	FR1	0	R1158T
888.797	0.967	898368	WORD_OFF	n/a	n/a	PEARL	1	5	[0, 0, 0]	n/a	FR1	0	R1158T
889.764	1.616	899335	WORD	n/a	wordpools/wordpool_EN.txt	SHIP	2	5	[0, 0, 0]	n/a	FR1	0	R1158T
891.38	0.783	900951	WORD_OFF	n/a	n/a	SHIP	2	5	[0, 0, 0]	n/a	FR1	0	R1158T
892.163	1.618	901734	WORD	n/a	wordpools/wordpool_EN.txt	ARM	3	5	[0, 0, 0]	n/a	FR1	0	R1158T
893.781	0.95	903352	WORD_OFF	n/a	n/a	ARM	3	5	[0, 0, 0]	n/a	FR1	0	R1158T
894.731	1.616	904302	WORD	n/a	wordpools/wordpool_EN.txt	BOARD	4	5	[0, 0, 0]	n/a	FR1	0	R1158T
896.347	0.984	905918	WORD_OFF	n/a	n/a	BOARD	4	5	[0, 0, 0]	n/a	FR1	0	R1158T
897.331	1.617	906902	WORD	n/a	wordpools/wordpool_EN.txt	BOAT	5	5	[0, 0, 0]	n/a	FR1	0	R1158T
898.948	0.834	908519	WORD_OFF	n/a	n/a	BOAT	5	5	[0, 0, 0]	n/a	FR1	0	R1158T
899.782	1.616	909353	WORD	n/a	wordpools/wordpool_EN.txt	TOY	6	5	[0, 0, 0]	n/a	FR1	0	R1158T
901.398	0.85	910969	WORD_OFF	n/a	n/a	TOY	6	5	[0, 0, 0]	n/a	FR1	0	R1158T
902.248	1.618	911819	WORD	n/a	wordpools/wordpool_EN.txt	GLOVE	7	5	[0, 0, 0]	n/a	FR1	0	R1158T
903.866	0.984	913437	WORD_OFF	n/a	n/a	GLOVE	7	5	[0, 0, 0]	n/a	FR1	0	R1158T
904.85	1.616	914420	WORD	n/a	wordpools/wordpool_EN.txt	SPONGE	8	5	[0, 0, 0]	n/a	FR1	0	R1158T
906.466	0.817	916036	WORD_OFF	n/a	n/a	SPONGE	8	5	[0, 0, 0]	n/a	FR1	0	R1158T
907.283	1.617	916853	WORD	n/a	wordpools/wordpool_EN.txt	SEA	9	5	[0, 0, 0]	n/a	FR1	0	R1158T
908.9	0.801	918470	WORD_OFF	n/a	n/a	SEA	9	5	[0, 0, 0]	n/a	FR1	0	R1158T
909.701	1.616	919271	WORD	n/a	wordpools/wordpool_EN.txt	NET	10	5	[0, 0, 0]	n/a	FR1	0	R1158T
911.317	0.933	920887	WORD_OFF	n/a	n/a	NET	10	5	[0, 0, 0]	n/a	FR1	0	R1158T
912.25	1.618	921820	WORD	n/a	wordpools/wordpool_EN.txt	BOY	11	5	[0, 0, 0]	n/a	FR1	0	R1158T
913.868	0.984	923438	WORD_OFF	n/a	n/a	BOY	11	5	[0, 0, 0]	n/a	FR1	0	R1158T
914.852	1.616	924422	WORD	n/a	wordpools/wordpool_EN.txt	TANK	12	5	[0, 0, 0]	n/a	FR1	0	R1158T
916.468	0.0	926038	WORD_OFF	n/a	n/a	TANK	12	5	[0, 0, 0]	n/a	FR1	0	R1158T
916.468	0.0	926038	DISTRACT_START	n/a	n/a	n/a	-999	5	[0, 0, 0]	n/a	FR1	0	R1158T
916.468	0.016	926038	START	n/a	n/a	n/a	-999	5	[-999, -999, -999]	n/a	FR1	0	R1158T
916.484	9.719	926054	PROB	9.719	n/a	n/a	-999	5	[8, 6, 5]	19	FR1	0	R1158T
926.203	4.984	935772	PROB	4.984	n/a	n/a	-999	5	[4, 6, 5]	15	FR1	0	R1158T
931.187	7.329	940756	PROB	7.329	n/a	n/a	-999	5	[4, 2, 8]	14	FR1	0	R1158T
938.516	0.022	948085	STOP	n/a	n/a	n/a	-999	5	[-999, -999, -999]	n/a	FR1	0	R1158T
938.538	0.584	948107	DISTRACT_END	n/a	n/a	n/a	-999	5	[0, 0, 0]	n/a	FR1	0	R1158T
939.122	0.518	948690	RETRIEVAL_ORIENT	n/a	n/a	n/a	-999	5	[0, 0, 0]	n/a	FR1	0	R1158T
939.64	2.777	949208	REC_START	n/a	n/a	n/a	-999	5	[0, 0, 0]	n/a	FR1	0	R1158T
942.417	6.411	951985	REC_WORD	6.411	n/a	SHIP	-999	5	[0, 0, 0]	n/a	FR1	0	R1158T
948.828	2.435	958396	REC_WORD	2.435	n/a	NET	-999	5	[0, 0, 0]	n/a	FR1	0	R1158T
951.263	2.419	960831	REC_WORD	2.419	n/a	SEA	-999	5	[0, 0, 0]	n/a	FR1	0	R1158T
953.682	11.233	963250	REC_WORD	11.233	n/a	BOY	-999	5	[0, 0, 0]	n/a	FR1	0	R1158T
964.915	2.289	974482	REC_WORD	2.289	n/a	BEACH	-999	5	[0, 0, 0]	n/a	FR1	0	R1158T
967.204	1.0	976771	REC_WORD_VV	1.0	n/a	<>	-999	5	[0, 0, 0]	n/a	FR1	0	R1158T
968.204	1.447	977771	REC_WORD_VV	1.447	n/a	<>	-999	5	[0, 0, 0]	n/a	FR1	0	R1158T
969.651	14.862	979218	REC_END	n/a	n/a	n/a	-999	5	[0, 0, 0]	n/a	FR1	0	R1158T
984.513	0.5	994079	TRIAL	n/a	n/a	n/a	-999	6	[0, 0, 0]	n/a	FR1	0	R1158T
985.013	10.428	994579	COUNTDOWN_START	n/a	n/a	n/a	-999	6	[0, 0, 0]	n/a	FR1	0	R1158T
995.441	0.008	1005006	COUNTDOWN_END	n/a	n/a	n/a	-999	6	[0, 0, 0]	n/a	FR1	0	R1158T
995.449	1.616	1005014	ORIENT	n/a	n/a	n/a	-999	6	[0, 0, 0]	n/a	FR1	0	R1158T
997.065	2.334	1006630	ORIENT_OFF	n/a	n/a	n/a	-999	6	[0, 0, 0]	n/a	FR1	0	R1158T
999.399	1.617	1008964	WORD	n/a	wordpools/wordpool_EN.txt	SNAIL	1	6	[0, 0, 0]	n/a	FR1	0	R1158T
1001.016	0.801	1010581	WORD_OFF	n/a	n/a	SNAIL	1	6	[0, 0, 0]	n/a	FR1	0	R1158T
1001.817	1.616	1011382	WORD	n/a	wordpools/wordpool_EN.txt	SHRIMP	2	6	[0, 0, 0]	n/a	FR1	0	R1158T
1003.433	0.784	1012998	WORD_OFF	n/a	n/a	SHRIMP	2	6	[0, 0, 0]	n/a	FR1	0	R1158T
1004.217	1.618	1013782	WORD	n/a	wordpools/wordpool_EN.txt	SEED	3	6	[0, 0, 0]	n/a	FR1	0	R1158T
1005.835	1.0	1015400	WORD_OFF	n/a	n/a	SEED	3	6	[0, 0, 0]	n/a	FR1	0	R1158T
1006.835	1.616	1016400	WORD	n/a	wordpools/wordpool_EN.txt	LEAF	4	6	[0, 0, 0]	n/a	FR1	0	R1158T
1008.451	0.9	1018015	WORD_OFF	n/a	n/a	LEAF	4	6	[0, 0, 0]	n/a	FR1	0	R1158T
1009.351	1.617	1018915	WORD	n/a	wordpools/wordpool_EN.txt	HOOF	5	6	[0, 0, 0]	n/a	FR1	0	R1158T
1010.968	0.967	1020532	WORD_OFF	n/a	n/a	HOOF	5	6	[0, 0, 0]	n/a	FR1	0	R1158T
1011.935	1.617	1021499	WORD	n/a	wordpools/wordpool_EN.txt	MILK	6	6	[0, 0, 0]	n/a	FR1	0	R1158T
1013.552	0.867	1023116	WORD_OFF	n/a	n/a	MILK	6	6	[0, 0, 0]	n/a	FR1	0	R1158T
1014.419	1.617	1023983	WORD	n/a	wordpools/wordpool_EN.txt	ROOT	7	6	[0, 0, 0]	n/a	FR1	0	R1158T
1016.036	0.851	1025600	WORD_OFF	n/a	n/a	ROOT	7	6	[0, 0, 0]	n/a	FR1	0	R1158T
1016.887	1.616	1026451	WORD	n/a	wordpools/wordpool_EN.txt	STAIR	8	6	[0, 0, 0]	n/a	FR1	0	R1158T
1018.503	0.767	1028067	WORD_OFF	n/a	n/a	STAIR	8	6	[0, 0, 0]	n/a	FR1	0	R1158T
1019.27	1.617	1028834	WORD	n/a	wordpools/wordpool_EN.txt	SHELL	9	6	[0, 0, 0]	n/a	FR1	0	R1158T
1020.887	1.017	1030451	WORD_OFF	n/a	n/a	SHELL	9	6	[0, 0, 0]	n/a	FR1	0	R1158T
1021.904	1.616	1031468	WORD	n/a	wordpools/wordpool_EN.txt	CORN	10	6	[0, 0, 0]	n/a	FR1	0	R1158T
1023.52	0.934	1033084	WORD_OFF	n/a	n/a	CORN	10	6	[0, 0, 0]	n/a	FR1	0	R1158T
1024.454	1.617	1034017	WORD	n/a	wordpools/wordpool_EN.txt	ANT	11	6	[0, 0, 0]	n/a	FR1	0	R1158T
1026.071	0.801	1035634	WORD_OFF	n/a	n/a	ANT	11	6	[0, 0, 0]	n/a	FR1	0	R1158T
1026.872	1.616	1036435	WORD	n/a	wordpools/wordpool_EN.txt	MAP	12	6	[0, 0, 0]	n/a	FR1	0	R1158T
1028.488	0.0	1038051	DISTRACT_START	n/a	n/a	n/a	-999	6	[0, 0, 0]	n/a	FR1	0	R1158T
1028.488	0.001	1038051	WORD_OFF	n/a	n/a	MAP	12	6	[0, 0, 0]	n/a	FR1	0	R1158T
1028.489	0.016	1038052	START	n/a	n/a	n/a	-999	6	[-999, -999, -999]	n/a	FR1	0	R1158T
1028.505	7.135	1038068	PROB	7.135	n/a	n/a	-999	6	[5, 7, 3]	15	FR1	0	R1158T
1035.64	3.716	1045203	PROB	3.716	n/a	n/a	-999	6	[2, 8, 1]	11	FR1	0	R1158T
1039.356	4.718	1048919	PROB	4.718	n/a	n/a	-999	6	[6, 8, 1]	15	FR1	0	R1158T
1044.074	3.001	1053636	PROB	3.001	n/a	n/a	-999	6	[5, 5, 1]	11	FR1	0	R1158T
1047.075	4.819	1056637	PROB	4.819	n/a	n/a	-999	6	[8, 3, 7]	18	FR1	0	R1158T
1051.894	0.016	1061456	STOP	n/a	n/a	n/a	-999	6	[-999, -999, -999]	n/a	FR1	0	R1158T
1051.91	0.516	1061472	DISTRACT_END	n/a	n/a	n/a	-999	6	[0, 0, 0]	n/a	FR1	0	R1158T
1052.426	0.517	1061988	RETRIEVAL_ORIENT	n/a	n/a	n/a	-999	6	[0, 0, 0]	n/a	FR1	0	R1158T
1052.943	1.008	1062505	REC_START	n/a	n/a	n/a	-999	6	[0, 0, 0]	n/a	FR1	0	R1158T
1053.951	0.849	1063513	REC_WORD	0.849	n/a	SNAIL	-999	6	[0, 0, 0]	n/a	FR1	0	R1158T
1054.8	5.378	1064362	REC_WORD	5.378	n/a	SHRIMP	-999	6	[0, 0, 0]	n/a	FR1	0	R1158T
1060.178	20.045	1069739	REC_WORD_VV	20.045	n/a	<>	-999	6	[0, 0, 0]	n/a	FR1	0	R1158T
1080.223	1.0	1089783	REC_WORD_VV	1.0	n/a	<>	-999	6	[0, 0, 0]	n/a	FR1	0	R1158T
1081.223	1.0	1090783	REC_WORD_VV	1.0	n/a	<>	-999	6	[0, 0, 0]	n/a	FR1	0	R1158T
1082.223	0.734	1091783	REC_WORD_VV	0.734	n/a	<>	-999	6	[0, 0, 0]	n/a	FR1	0	R1158T
1082.957	63.703	1092517	REC_END	n/a	n/a	n/a	-999	6	[0, 0, 0]	n/a	FR1	0	R1158T
1146.66	0.5	1156216	TRIAL	n/a	n/a	n/a	-999	7	[0, 0, 0]	n/a	FR1	0	R1158T
1147.16	10.428	1156716	COUNTDOWN_START	n/a	n/a	n/a	-999	7	[0, 0, 0]	n/a	FR1	0	R1158T
1157.588	0.007	1167144	COUNTDOWN_END	n/a	n/a	n/a	-999	7	[0, 0, 0]	n/a	FR1	0	R1158T
1157.595	1.617	1167151	ORIENT	n/a	n/a	n/a	-999	7	[0, 0, 0]	n/a	FR1	0	R1158T
1159.212	2.017	1168768	ORIENT_OFF	n/a	n/a	n/a	-999	7	[0, 0, 0]	n/a	FR1	0	R1158T
1161.229	1.618	1170784	WORD	n/a	wordpools/wordpool_EN.txt	TREE	1	7	[0, 0, 0]	n/a	FR1	0	R1158T
1162.847	0.85	1172402	WORD_OFF	n/a	n/a	TREE	1	7	[0, 0, 0]	n/a	FR1	0	R1158T
1163.697	1.616	1173252	WORD	n/a	wordpools/wordpool_EN.txt	CAT	2	7	[0, 0, 0]	n/a	FR1	0	R1158T
1165.313	0.8	1174868	WORD_OFF	n/a	n/a	CAT	2	7	[0, 0, 0]	n/a	FR1	0	R1158T
1166.113	1.601	1175668	WORD	n/a	wordpools/wordpool_EN.txt	PRINCE	3	7	[0, 0, 0]	n/a	FR1	0	R1158T
1167.714	0.866	1177269	WORD_OFF	n/a	n/a	PRINCE	3	7	[0, 0, 0]	n/a	FR1	0	R1158T
1168.58	1.617	1178135	WORD	n/a	wordpools/wordpool_EN.txt	SHEEP	4	7	[0, 0, 0]	n/a	FR1	0	R1158T
1170.197	0.95	1179752	WORD_OFF	n/a	n/a	SHEEP	4	7	[0, 0, 0]	n/a	FR1	0	R1158T
1171.147	1.618	1180702	WORD	n/a	wordpools/wordpool_EN.txt	BAT	5	7	[0, 0, 0]	n/a	FR1	0	R1158T
1172.765	0.85	1182320	WORD_OFF	n/a	n/a	BAT	5	7	[0, 0, 0]	n/a	FR1	0	R1158T
1173.615	1.616	1183170	WORD	n/a	wordpools/wordpool_EN.txt	CHIEF	6	7	[0, 0, 0]	n/a	FR1	0	R1158T
1175.231	0.934	1184786	WORD_OFF	n/a	n/a	CHIEF	6	7	[0, 0, 0]	n/a	FR1	0	R1158T
1176.165	1.618	1185720	WORD	n/a	wordpools/wordpool_EN.txt	CROW	7	7	[0, 0, 0]	n/a	FR1	0	R1158T
1177.783	0.766	1187337	WORD_OFF	n/a	n/a	CROW	7	7	[0, 0, 0]	n/a	FR1	0	R1158T
1178.549	1.616	1188103	WORD	n/a	wordpools/wordpool_EN.txt	HOOK	8	7	[0, 0, 0]	n/a	FR1	0	R1158T
1180.165	1.001	1189719	WORD_OFF	n/a	n/a	HOOK	8	7	[0, 0, 0]	n/a	FR1	0	R1158T
1181.166	1.618	1190720	WORD	n/a	wordpools/wordpool_EN.txt	WEB	9	7	[0, 0, 0]	n/a	FR1	0	R1158T
1182.784	0.85	1192338	WORD_OFF	n/a	n/a	WEB	9	7	[0, 0, 0]	n/a	FR1	0	R1158T
1183.634	1.616	1193188	WORD	n/a	wordpools/wordpool_EN.txt	MOTH	10	7	[0, 0, 0]	n/a	FR1	0	R1158T
1185.25	0.8	1194804	WORD_OFF	n/a	n/a	MOTH	10	7	[0, 0, 0]	n/a	FR1	0	R1158T
1186.05	1.618	1195604	WORD	n/a	wordpools/wordpool_EN.txt	SHARK	11	7	[0, 0, 0]	n/a	FR1	0	R1158T
1187.668	0.967	1197222	WORD_OFF	n/a	n/a	SHARK	11	7	[0, 0, 0]	n/a	FR1	0	R1158T
1188.635	1.616	1198189	WORD	n/a	wordpools/wordpool_EN.txt	MOUSE	12	7	[0, 0, 0]	n/a	FR1	0	R1158T
1190.251	0.0	1199805	WORD_OFF	n/a	n/a	MOUSE	12	7	[0, 0, 0]	n/a	FR1	0	R1158T
1190.251	0.0	1199805	DISTRACT_START	n/a	n/a	n/a	-999	7	[0, 0, 0]	n/a	FR1	0	R1158T
1190.251	0.016	1199805	START	n/a	n/a	n/a	-999	7	[-999, -999, -999]	n/a	FR1	0	R1158T
1190.267	4.885	1199821	PROB	4.885	n/a	n/a	-999	7	[8, 1, 2]	11	FR1	0	R1158T
1195.152	3.867	1204705	PROB	3.867	n/a	n/a	-999	7	[1, 5, 6]	12	FR1	0	R1158T
1199.019	6.018	1208572	PROB	6.018	n/a	n/a	-999	7	[2, 4, 5]	11	FR1	0	R1158T
1205.037	6.52	1214590	PROB	6.52	n/a	n/a	-999	7	[1, 5, 8]	14	FR1	0	R1158T
1211.557	0.014	1221110	STOP	n/a	n/a	n/a	-999	7	[-999, -999, -999]	n/a	FR1	0	R1158T
1211.571	0.684	1221124	DISTRACT_END	n/a	n/a	n/a	-999	7	[0, 0, 0]	n/a	FR1	0	R1158T
1212.255	0.518	1221807	RETRIEVAL_ORIENT	n/a	n/a	n/a	-999	7	[0, 0, 0]	n/a	FR1	0	R1158T
1212.773	1.972	1222325	REC_START	n/a	n/a	n/a	-999	7	[0, 0, 0]	n/a	FR1	0	R1158T
1214.745	1.0	1224297	REC_WORD_VV	1.0	n/a	<>	-999	7	[0, 0, 0]	n/a	FR1	0	R1158T
1215.745	7.525	1225297	REC_WORD_VV	7.525	n/a	<>	-999	7	[0, 0, 0]	n/a	FR1	0	R1158T
1223.27	5.763	1232822	REC_WORD	5.763	n/a	TREE	-999	7	[0, 0, 0]	n/a	FR1	0	R1158T
1229.033	2.047	1238584	REC_WORD	2.047	n/a	SEA	-999	7	[0, 0, 0]	n/a	FR1	0	R1158T
1231.08	1.0	1240631	REC_WORD_VV	1.0	n/a	<>	-999	7	[0, 0, 0]	n/a	FR1	0	R1158T
1232.08	1.0	1241631	REC_WORD_VV	1.0	n/a	<>	-999	7	[0, 0, 0]	n/a	FR1	0	R1158T
1233.08	1.0	1242631	REC_WORD_VV	1.0	n/a	<>	-999	7	[0, 0, 0]	n/a	FR1	0	R1158T
1234.08	1.0	1243631	REC_WORD_VV	1.0	n/a	<>	-999	7	[0, 0, 0]	n/a	FR1	0	R1158T
1235.08	1.0	1244631	REC_WORD_VV	1.0	n/a	<>	-999	7	[0, 0, 0]	n/a	FR1	0	R1158T
1236.08	1.0	1245631	REC_WORD_VV	1.0	n/a	<>	-999	7	[0, 0, 0]	n/a	FR1	0	R1158T
1237.08	1.0	1246631	REC_WORD_VV	1.0	n/a	<>	-999	7	[0, 0, 0]	n/a	FR1	0	R1158T
1238.08	1.0	1247631	REC_WORD_VV	1.0	n/a	<>	-999	7	[0, 0, 0]	n/a	FR1	0	R1158T
1239.08	1.0	1248631	REC_WORD_VV	1.0	n/a	<>	-999	7	[0, 0, 0]	n/a	FR1	0	R1158T
1240.08	1.0	1249631	REC_WORD_VV	1.0	n/a	<>	-999	7	[0, 0, 0]	n/a	FR1	0	R1158T
1241.08	1.0	1250631	REC_WORD_VV	1.0	n/a	<>	-999	7	[0, 0, 0]	n/a	FR1	0	R1158T
1242.08	0.693	1251631	REC_WORD_VV	0.693	n/a	<>	-999	7	[0, 0, 0]	n/a	FR1	0	R1158T
1242.773	0.01	1252324	REC_WORD_VV	0.01	n/a	<>	-999	7	[0, 0, 0]	n/a	FR1	0	R1158T
1242.783	23.682	1252334	REC_END	n/a	n/a	n/a	-999	7	[0, 0, 0]	n/a	FR1	0	R1158T
1266.465	0.5	1276014	TRIAL	n/a	n/a	n/a	-999	8	[0, 0, 0]	n/a	FR1	0	R1158T
1266.965	0.0	1276514	COUNTDOWN_START	n/a	n/a	n/a	-999	8	[0, 0, 0]	n/a	FR1	0	R1158T
