onset	duration	sample	trial_type	response_time	stim_file	item_name	serialpos	list	test	answer	experiment	session	subject
0.0	0.532	4068	INSTRUCT_START	n/a	n/a	n/a	-999	-999	[0, 0, 0]	n/a	FR1	1	R1387E
0.532	44.768	4586	INSTRUCT_END	n/a	n/a	n/a	-999	-999	[0, 0, 0]	n/a	FR1	1	R1387E
45.3	10.351	49355	COUNTDOWN_START	n/a	n/a	n/a	-999	-999	[0, 0, 0]	n/a	FR1	1	R1387E
55.651	0.001	59706	COUNTDOWN_END	n/a	n/a	n/a	-999	-999	[0, 0, 0]	n/a	FR1	1	R1387E
55.652	1.948	59706	ENCODING_START	n/a	n/a	n/a	-999	-1	[0, 0, 0]	n/a	FR1	1	R1387E
57.6	1.616	61662	WORD	n/a	n/a	WATCH	1	-1	[0, 0, 0]	n/a	FR1	1	R1387E
59.216	0.884	63272	WORD_OFF	n/a	n/a	WATCH	1	-1	[0, 0, 0]	n/a	FR1	1	R1387E
60.1	1.616	64163	WORD	n/a	n/a	IMAGE	2	-1	[0, 0, 0]	n/a	FR1	1	R1387E
61.716	0.783	65773	WORD_OFF	n/a	n/a	IMAGE	2	-1	[0, 0, 0]	n/a	FR1	1	R1387E
62.499	1.619	66564	WORD	n/a	n/a	COTTON	3	-1	[0, 0, 0]	n/a	FR1	1	R1387E
64.118	0.831	68174	WORD_OFF	n/a	n/a	COTTON	3	-1	[0, 0, 0]	n/a	FR1	1	R1387E
64.949	1.6	69008	WORD	n/a	n/a	FLOOD	4	-1	[0, 0, 0]	n/a	FR1	1	R1387E
66.549	0.784	70604	WORD_OFF	n/a	n/a	FLOOD	4	-1	[0, 0, 0]	n/a	FR1	1	R1387E
67.333	1.616	71395	WORD	n/a	n/a	WAGON	5	-1	[0, 0, 0]	n/a	FR1	1	R1387E
68.949	1.0	73005	WORD_OFF	n/a	n/a	WAGON	5	-1	[0, 0, 0]	n/a	FR1	1	R1387E
69.949	1.6	74011	WORD	n/a	n/a	TONGUE	6	-1	[0, 0, 0]	n/a	FR1	1	R1387E
71.549	0.934	75607	WORD_OFF	n/a	n/a	TONGUE	6	-1	[0, 0, 0]	n/a	FR1	1	R1387E
72.483	1.6	76542	WORD	n/a	n/a	CAMEL	7	-1	[0, 0, 0]	n/a	FR1	1	R1387E
74.083	0.816	78137	WORD_OFF	n/a	n/a	CAMEL	7	-1	[0, 0, 0]	n/a	FR1	1	R1387E
74.899	1.617	78957	WORD	n/a	n/a	RING	8	-1	[0, 0, 0]	n/a	FR1	1	R1387E
76.516	0.866	80567	WORD_OFF	n/a	n/a	RING	8	-1	[0, 0, 0]	n/a	FR1	1	R1387E
77.382	1.617	81444	WORD	n/a	n/a	BEAM	9	-1	[0, 0, 0]	n/a	FR1	1	R1387E
78.999	0.883	83054	WORD_OFF	n/a	n/a	BEAM	9	-1	[0, 0, 0]	n/a	FR1	1	R1387E
79.882	1.617	83946	WORD	n/a	n/a	BABY	10	-1	[0, 0, 0]	n/a	FR1	1	R1387E
81.499	0.783	85556	WORD_OFF	n/a	n/a	BABY	10	-1	[0, 0, 0]	n/a	FR1	1	R1387E
82.282	1.617	86332	WORD	n/a	n/a	RHINO	11	-1	[0, 0, 0]	n/a	FR1	1	R1387E
83.899	0.917	87957	WORD_OFF	n/a	n/a	RHINO	11	-1	[0, 0, 0]	n/a	FR1	1	R1387E
84.816	1.616	88877	WORD	n/a	n/a	CHEST	12	-1	[0, 0, 0]	n/a	FR1	1	R1387E
86.432	0.001	90487	WORD_OFF	n/a	n/a	CHEST	12	-1	[0, 0, 0]	n/a	FR1	1	R1387E
86.433	0.001	90487	ENCODING_END	n/a	n/a	n/a	-999	-1	[0, 0, 0]	n/a	FR1	1	R1387E
86.434	0.0	90487	DISTRACT_START	n/a	n/a	n/a	-999	-1	[0, 0, 0]	n/a	FR1	1	R1387E
86.433	0.001	90488	PROB	0.001	n/a	n/a	-999	-1	[5, 8, 1]	14	FR1	1	R1387E
86.434	4.399	90489	START	n/a	n/a	n/a	-999	-1	[-999, -999, -999]	n/a	FR1	1	R1387E
90.833	10.885	94888	PROB	10.885	n/a	n/a	-999	-1	[8, 6, 5]	19	FR1	1	R1387E
101.718	10.401	105773	PROB	10.401	n/a	n/a	-999	-1	[7, 8, 6]	21	FR1	1	R1387E
112.119	0.0	116173	STOP	n/a	n/a	n/a	-999	-1	[-999, -999, -999]	n/a	FR1	1	R1387E
112.119	1.848	116178	DISTRACT_END	n/a	n/a	n/a	-999	-1	[0, 0, 0]	n/a	FR1	1	R1387E
113.967	1.52	118030	REC_START	n/a	n/a	n/a	-999	-1	[0, 0, 0]	n/a	FR1	1	R1387E
115.487	0.855	119541	REC_WORD	0.855	n/a	WATCH	1	-1	[0, 0, 0]	n/a	FR1	1	R1387E
116.342	1.318	120396	REC_WORD	1.318	n/a	RHINO	11	-1	[0, 0, 0]	n/a	FR1	1	R1387E
117.66	26.606	121714	REC_WORD	26.606	n/a	BABY	10	-1	[0, 0, 0]	n/a	FR1	1	R1387E
144.266	19.516	148322	REC_END	n/a	n/a	n/a	-999	-1	[0, 0, 0]	n/a	FR1	1	R1387E
163.782	10.351	167834	COUNTDOWN_START	n/a	n/a	n/a	-999	1	[0, 0, 0]	n/a	FR1	1	R1387E
174.133	0.0	178186	COUNTDOWN_END	n/a	n/a	n/a	-999	1	[0, 0, 0]	n/a	FR1	1	R1387E
174.133	1.849	178186	ENCODING_START	n/a	n/a	n/a	-999	1	[0, 0, 0]	n/a	FR1	1	R1387E
175.982	1.6	180040	WORD	n/a	n/a	ZOO	1	1	[0, 0, 0]	n/a	FR1	1	R1387E
177.582	0.983	181636	WORD_OFF	n/a	n/a	ZOO	1	1	[0, 0, 0]	n/a	FR1	1	R1387E
178.565	1.6	182614	WORD	n/a	n/a	SUN	2	1	[0, 0, 0]	n/a	FR1	1	R1387E
180.165	0.934	184224	WORD_OFF	n/a	n/a	SUN	2	1	[0, 0, 0]	n/a	FR1	1	R1387E
181.099	1.616	185158	WORD	n/a	n/a	WHEAT	3	1	[0, 0, 0]	n/a	FR1	1	R1387E
182.715	0.983	186768	WORD_OFF	n/a	n/a	WHEAT	3	1	[0, 0, 0]	n/a	FR1	1	R1387E
183.698	1.617	187746	WORD	n/a	n/a	COAL	4	1	[0, 0, 0]	n/a	FR1	1	R1387E
185.315	0.984	189371	WORD_OFF	n/a	n/a	COAL	4	1	[0, 0, 0]	n/a	FR1	1	R1387E
186.299	1.6	190348	WORD	n/a	n/a	HOLE	5	1	[0, 0, 0]	n/a	FR1	1	R1387E
187.899	0.783	191959	WORD_OFF	n/a	n/a	HOLE	5	1	[0, 0, 0]	n/a	FR1	1	R1387E
188.682	1.601	192735	WORD	n/a	n/a	BANK	6	1	[0, 0, 0]	n/a	FR1	1	R1387E
190.283	0.95	194331	WORD_OFF	n/a	n/a	BANK	6	1	[0, 0, 0]	n/a	FR1	1	R1387E
191.233	1.6	195280	WORD	n/a	n/a	GLASS	7	1	[0, 0, 0]	n/a	FR1	1	R1387E
192.833	0.901	196890	WORD_OFF	n/a	n/a	GLASS	7	1	[0, 0, 0]	n/a	FR1	1	R1387E
193.734	1.616	197781	WORD	n/a	n/a	SHORE	8	1	[0, 0, 0]	n/a	FR1	1	R1387E
195.35	0.851	199406	WORD_OFF	n/a	n/a	SHORE	8	1	[0, 0, 0]	n/a	FR1	1	R1387E
196.201	1.615	200254	WORD	n/a	n/a	SAUCE	9	1	[0, 0, 0]	n/a	FR1	1	R1387E
197.816	0.767	201864	WORD_OFF	n/a	n/a	SAUCE	9	1	[0, 0, 0]	n/a	FR1	1	R1387E
198.583	1.617	202640	WORD	n/a	n/a	COIN	10	1	[0, 0, 0]	n/a	FR1	1	R1387E
200.2	0.783	204251	WORD_OFF	n/a	n/a	COIN	10	1	[0, 0, 0]	n/a	FR1	1	R1387E
200.983	1.617	205041	WORD	n/a	n/a	MEN	11	1	[0, 0, 0]	n/a	FR1	1	R1387E
202.6	0.815	206652	WORD_OFF	n/a	n/a	MEN	11	1	[0, 0, 0]	n/a	FR1	1	R1387E
203.415	1.601	207471	WORD	n/a	n/a	HAIR	12	1	[0, 0, 0]	n/a	FR1	1	R1387E
205.016	0.002	209067	WORD_OFF	n/a	n/a	HAIR	12	1	[0, 0, 0]	n/a	FR1	1	R1387E
205.018	0.0	209067	ENCODING_END	n/a	n/a	n/a	-999	1	[0, 0, 0]	n/a	FR1	1	R1387E
205.018	0.0	209067	DISTRACT_START	n/a	n/a	n/a	-999	1	[0, 0, 0]	n/a	FR1	1	R1387E
205.017	0.001	209068	PROB	0.001	n/a	n/a	-999	1	[1, 7, 8]	16	FR1	1	R1387E
205.018	4.299	209069	START	n/a	n/a	n/a	-999	1	[-999, -999, -999]	n/a	FR1	1	R1387E
209.317	8.299	213368	PROB	8.299	n/a	n/a	-999	1	[7, 4, 8]	19	FR1	1	R1387E
217.616	7.184	221667	PROB	7.184	n/a	n/a	-999	1	[3, 4, 2]	9	FR1	1	R1387E
224.8	6.066	228850	PROB	6.066	n/a	n/a	-999	1	[8, 2, 3]	13	FR1	1	R1387E
230.866	0.0	234916	DISTRACT_END	n/a	n/a	n/a	-999	1	[0, 0, 0]	n/a	FR1	1	R1387E
230.866	1.9	234916	STOP	n/a	n/a	n/a	-999	1	[-999, -999, -999]	n/a	FR1	1	R1387E
232.766	3.203	236811	REC_START	n/a	n/a	n/a	-999	1	[0, 0, 0]	n/a	FR1	1	R1387E
235.969	3.125	240019	REC_WORD_VV	3.125	n/a	<>	-999	1	[0, 0, 0]	n/a	FR1	1	R1387E
239.094	4.138	243144	REC_WORD	4.138	n/a	TIMER	-999	1	[0, 0, 0]	n/a	FR1	1	R1387E
243.232	19.838	247282	REC_WORD	19.838	n/a	WHEAT	3	1	[0, 0, 0]	n/a	FR1	1	R1387E
263.07	257.563	267117	REC_END	n/a	n/a	n/a	-999	1	[0, 0, 0]	n/a	FR1	1	R1387E
520.633	10.35	524681	COUNTDOWN_START	n/a	n/a	n/a	-999	2	[0, 0, 0]	n/a	FR1	1	R1387E
530.983	0.001	535018	COUNTDOWN_END	n/a	n/a	n/a	-999	2	[0, 0, 0]	n/a	FR1	1	R1387E
530.984	2.201	535032	ENCODING_START	n/a	n/a	n/a	-999	2	[0, 0, 0]	n/a	FR1	1	R1387E
533.185	1.598	537232	WORD	n/a	n/a	GATE	1	2	[0, 0, 0]	n/a	FR1	1	R1387E
534.783	0.983	538828	WORD_OFF	n/a	n/a	GATE	1	2	[0, 0, 0]	n/a	FR1	1	R1387E
535.766	1.616	539805	WORD	n/a	n/a	BATH	2	2	[0, 0, 0]	n/a	FR1	1	R1387E
537.382	0.917	541430	WORD_OFF	n/a	n/a	BATH	2	2	[0, 0, 0]	n/a	FR1	1	R1387E
538.299	1.6	542335	WORD	n/a	n/a	DEW	3	2	[0, 0, 0]	n/a	FR1	1	R1387E
539.899	0.917	543946	WORD_OFF	n/a	n/a	DEW	3	2	[0, 0, 0]	n/a	FR1	1	R1387E
540.816	1.6	544851	WORD	n/a	n/a	TANK	4	2	[0, 0, 0]	n/a	FR1	1	R1387E
542.416	0.833	546462	WORD_OFF	n/a	n/a	TANK	4	2	[0, 0, 0]	n/a	FR1	1	R1387E
543.249	1.617	547295	WORD	n/a	n/a	INK	5	2	[0, 0, 0]	n/a	FR1	1	R1387E
544.866	0.933	548906	WORD_OFF	n/a	n/a	INK	5	2	[0, 0, 0]	n/a	FR1	1	R1387E
545.799	1.6	549840	WORD	n/a	n/a	SWAMP	6	2	[0, 0, 0]	n/a	FR1	1	R1387E
547.399	0.767	551436	WORD_OFF	n/a	n/a	SWAMP	6	2	[0, 0, 0]	n/a	FR1	1	R1387E
548.166	1.616	552212	WORD	n/a	n/a	CLOTH	7	2	[0, 0, 0]	n/a	FR1	1	R1387E
549.782	0.933	553823	WORD_OFF	n/a	n/a	CLOTH	7	2	[0, 0, 0]	n/a	FR1	1	R1387E
550.715	1.6	554757	WORD	n/a	n/a	JET	8	2	[0, 0, 0]	n/a	FR1	1	R1387E
552.315	0.817	556353	WORD_OFF	n/a	n/a	JET	8	2	[0, 0, 0]	n/a	FR1	1	R1387E
553.132	1.618	557172	WORD	n/a	n/a	SINK	9	2	[0, 0, 0]	n/a	FR1	1	R1387E
554.75	0.865	558797	WORD_OFF	n/a	n/a	SINK	9	2	[0, 0, 0]	n/a	FR1	1	R1387E
555.615	1.601	559660	WORD	n/a	n/a	ROAD	10	2	[0, 0, 0]	n/a	FR1	1	R1387E
557.216	0.85	561255	WORD_OFF	n/a	n/a	ROAD	10	2	[0, 0, 0]	n/a	FR1	1	R1387E
558.066	1.6	562104	WORD	n/a	n/a	PLANT	11	2	[0, 0, 0]	n/a	FR1	1	R1387E
559.666	0.784	563699	WORD_OFF	n/a	n/a	PLANT	11	2	[0, 0, 0]	n/a	FR1	1	R1387E
560.45	1.599	564490	WORD	n/a	n/a	MUD	12	2	[0, 0, 0]	n/a	FR1	1	R1387E
562.049	0.002	566086	WORD_OFF	n/a	n/a	MUD	12	2	[0, 0, 0]	n/a	FR1	1	R1387E
562.051	0.0	566086	ENCODING_END	n/a	n/a	n/a	-999	2	[0, 0, 0]	n/a	FR1	1	R1387E
562.051	0.0	566086	DISTRACT_START	n/a	n/a	n/a	-999	2	[0, 0, 0]	n/a	FR1	1	R1387E
562.05	0.001	566089	PROB	0.001	n/a	n/a	-999	2	[2, 2, 6]	10	FR1	1	R1387E
562.051	4.183	566090	START	n/a	n/a	n/a	-999	2	[-999, -999, -999]	n/a	FR1	1	R1387E
566.234	5.649	570273	PROB	5.649	n/a	n/a	-999	2	[8, 2, 8]	18	FR1	1	R1387E
571.883	3.284	575921	PROB	3.284	n/a	n/a	-999	2	[4, 4, 1]	9	FR1	1	R1387E
575.167	7.383	579205	PROB	7.383	n/a	n/a	-999	2	[2, 3, 8]	13	FR1	1	R1387E
582.55	0.0	586587	DISTRACT_END	n/a	n/a	n/a	-999	2	[0, 0, 0]	n/a	FR1	1	R1387E
582.55	1.866	586588	STOP	n/a	n/a	n/a	-999	2	[-999, -999, -999]	n/a	FR1	1	R1387E
584.416	1.48	588453	REC_START	n/a	n/a	n/a	-999	2	[0, 0, 0]	n/a	FR1	1	R1387E
585.896	0.892	589934	REC_WORD	0.892	n/a	MUD	12	2	[0, 0, 0]	n/a	FR1	1	R1387E
586.788	1.99	590826	REC_WORD	1.99	n/a	JET	8	2	[0, 0, 0]	n/a	FR1	1	R1387E
588.778	1.0	592816	REC_WORD	1.0	n/a	BATH	2	2	[0, 0, 0]	n/a	FR1	1	R1387E
589.778	21.881	593816	REC_WORD	21.881	n/a	SINK	9	2	[0, 0, 0]	n/a	FR1	1	R1387E
611.659	3.052	615696	REC_WORD	3.052	n/a	DEW	3	2	[0, 0, 0]	n/a	FR1	1	R1387E
614.711	4.905	618745	REC_END	n/a	n/a	n/a	-999	2	[0, 0, 0]	n/a	FR1	1	R1387E
619.616	10.351	623651	COUNTDOWN_START	n/a	n/a	n/a	-999	3	[0, 0, 0]	n/a	FR1	1	R1387E
629.967	0.0	634002	COUNTDOWN_END	n/a	n/a	n/a	-999	3	[0, 0, 0]	n/a	FR1	1	R1387E
629.967	1.998	634002	ENCODING_START	n/a	n/a	n/a	-999	3	[0, 0, 0]	n/a	FR1	1	R1387E
631.965	1.601	636000	WORD	n/a	n/a	SKUNK	1	3	[0, 0, 0]	n/a	FR1	1	R1387E
633.566	0.766	637596	WORD_OFF	n/a	n/a	SKUNK	1	3	[0, 0, 0]	n/a	FR1	1	R1387E
634.332	1.6	638372	WORD	n/a	n/a	CURB	2	3	[0, 0, 0]	n/a	FR1	1	R1387E
635.932	0.8	639968	WORD_OFF	n/a	n/a	CURB	2	3	[0, 0, 0]	n/a	FR1	1	R1387E
636.732	1.6	640773	WORD	n/a	n/a	ARK	3	3	[0, 0, 0]	n/a	FR1	1	R1387E
638.332	0.967	642369	WORD_OFF	n/a	n/a	ARK	3	3	[0, 0, 0]	n/a	FR1	1	R1387E
639.299	1.616	643347	WORD	n/a	n/a	SPRING	4	3	[0, 0, 0]	n/a	FR1	1	R1387E
640.915	0.9	644957	WORD_OFF	n/a	n/a	SPRING	4	3	[0, 0, 0]	n/a	FR1	1	R1387E
641.815	1.617	645848	WORD	n/a	n/a	RUG	5	3	[0, 0, 0]	n/a	FR1	1	R1387E
643.432	0.767	647473	WORD_OFF	n/a	n/a	RUG	5	3	[0, 0, 0]	n/a	FR1	1	R1387E
644.199	1.616	648235	WORD	n/a	n/a	LAMP	6	3	[0, 0, 0]	n/a	FR1	1	R1387E
645.815	0.867	649845	WORD_OFF	n/a	n/a	LAMP	6	3	[0, 0, 0]	n/a	FR1	1	R1387E
646.682	1.6	650722	WORD	n/a	n/a	NAIL	7	3	[0, 0, 0]	n/a	FR1	1	R1387E
648.282	0.834	652318	WORD_OFF	n/a	n/a	NAIL	7	3	[0, 0, 0]	n/a	FR1	1	R1387E
649.116	1.616	653152	WORD	n/a	n/a	TRASH	8	3	[0, 0, 0]	n/a	FR1	1	R1387E
650.732	0.867	654776	WORD_OFF	n/a	n/a	TRASH	8	3	[0, 0, 0]	n/a	FR1	1	R1387E
651.599	1.6	655639	WORD	n/a	n/a	PIPE	9	3	[0, 0, 0]	n/a	FR1	1	R1387E
653.199	0.984	657235	WORD_OFF	n/a	n/a	PIPE	9	3	[0, 0, 0]	n/a	FR1	1	R1387E
654.183	1.6	658212	WORD	n/a	n/a	CAGE	10	3	[0, 0, 0]	n/a	FR1	1	R1387E
655.783	0.967	659823	WORD_OFF	n/a	n/a	CAGE	10	3	[0, 0, 0]	n/a	FR1	1	R1387E
656.75	1.601	660786	WORD	n/a	n/a	FRUIT	11	3	[0, 0, 0]	n/a	FR1	1	R1387E
658.351	0.85	662382	WORD_OFF	n/a	n/a	FRUIT	11	3	[0, 0, 0]	n/a	FR1	1	R1387E
659.201	1.616	663230	WORD	n/a	n/a	SPICE	12	3	[0, 0, 0]	n/a	FR1	1	R1387E
660.817	0.0	664852	PROB	0.0	n/a	n/a	-999	3	[7, 6, 8]	21	FR1	1	R1387E
660.817	0.0	664852	START	n/a	n/a	n/a	-999	3	[-999, -999, -999]	n/a	FR1	1	R1387E
660.816	0.001	664855	WORD_OFF	n/a	n/a	SPICE	12	3	[0, 0, 0]	n/a	FR1	1	R1387E
660.817	0.0	664855	ENCODING_END	n/a	n/a	n/a	-999	3	[0, 0, 0]	n/a	FR1	1	R1387E
660.817	8.183	664855	DISTRACT_START	n/a	n/a	n/a	-999	3	[0, 0, 0]	n/a	FR1	1	R1387E
669.0	5.551	673035	PROB	5.551	n/a	n/a	-999	3	[3, 7, 2]	12	FR1	1	R1387E
674.551	7.065	678586	PROB	7.065	n/a	n/a	-999	3	[3, 7, 8]	18	FR1	1	R1387E
681.616	0.0	685651	STOP	n/a	n/a	n/a	-999	3	[-999, -999, -999]	n/a	FR1	1	R1387E
681.616	1.733	685658	DISTRACT_END	n/a	n/a	n/a	-999	3	[0, 0, 0]	n/a	FR1	1	R1387E
683.349	29.999	687380	REC_START	n/a	n/a	n/a	-999	3	[0, 0, 0]	n/a	FR1	1	R1387E
713.348	0.281	717382	REC_WORD_VV	0.281	n/a	<>	-999	3	[0, 0, 0]	n/a	FR1	1	R1387E
713.629	4.204	717657	REC_END	n/a	n/a	n/a	-999	3	[0, 0, 0]	n/a	FR1	1	R1387E
717.833	10.35	721873	COUNTDOWN_START	n/a	n/a	n/a	-999	4	[0, 0, 0]	n/a	FR1	1	R1387E
728.183	0.0	732224	COUNTDOWN_END	n/a	n/a	n/a	-999	4	[0, 0, 0]	n/a	FR1	1	R1387E
728.183	1.999	732224	ENCODING_START	n/a	n/a	n/a	-999	4	[0, 0, 0]	n/a	FR1	1	R1387E
730.182	1.617	734223	WORD	n/a	n/a	STONE	1	4	[0, 0, 0]	n/a	FR1	1	R1387E
731.799	0.783	735833	WORD_OFF	n/a	n/a	STONE	1	4	[0, 0, 0]	n/a	FR1	1	R1387E
732.582	1.617	736609	WORD	n/a	n/a	BLOOM	2	4	[0, 0, 0]	n/a	FR1	1	R1387E
734.199	0.816	738234	WORD_OFF	n/a	n/a	BLOOM	2	4	[0, 0, 0]	n/a	FR1	1	R1387E
735.015	1.6	739053	WORD	n/a	n/a	HOG	3	4	[0, 0, 0]	n/a	FR1	1	R1387E
736.615	0.8	740649	WORD_OFF	n/a	n/a	HOG	3	4	[0, 0, 0]	n/a	FR1	1	R1387E
737.415	1.617	741454	WORD	n/a	n/a	STAIR	4	4	[0, 0, 0]	n/a	FR1	1	R1387E
739.032	0.867	743064	WORD_OFF	n/a	n/a	STAIR	4	4	[0, 0, 0]	n/a	FR1	1	R1387E
739.899	1.6	743927	WORD	n/a	n/a	BOMB	5	4	[0, 0, 0]	n/a	FR1	1	R1387E
741.499	0.866	745537	WORD_OFF	n/a	n/a	BOMB	5	4	[0, 0, 0]	n/a	FR1	1	R1387E
742.365	1.6	746400	WORD	n/a	n/a	BOARD	6	4	[0, 0, 0]	n/a	FR1	1	R1387E
743.965	0.935	747996	WORD_OFF	n/a	n/a	BOARD	6	4	[0, 0, 0]	n/a	FR1	1	R1387E
744.9	1.6	748930	WORD	n/a	n/a	BLADE	7	4	[0, 0, 0]	n/a	FR1	1	R1387E
746.5	0.833	750540	WORD_OFF	n/a	n/a	BLADE	7	4	[0, 0, 0]	n/a	FR1	1	R1387E
747.333	1.601	751360	WORD	n/a	n/a	MEAL	8	4	[0, 0, 0]	n/a	FR1	1	R1387E
748.934	0.766	752970	WORD_OFF	n/a	n/a	MEAL	8	4	[0, 0, 0]	n/a	FR1	1	R1387E
749.7	1.6	753732	WORD	n/a	n/a	ICE	9	4	[0, 0, 0]	n/a	FR1	1	R1387E
751.3	0.983	755328	WORD_OFF	n/a	n/a	ICE	9	4	[0, 0, 0]	n/a	FR1	1	R1387E
752.283	1.617	756320	WORD	n/a	n/a	RAKE	10	4	[0, 0, 0]	n/a	FR1	1	R1387E
753.9	0.783	757930	WORD_OFF	n/a	n/a	RAKE	10	4	[0, 0, 0]	n/a	FR1	1	R1387E
754.683	1.6	758721	WORD	n/a	n/a	TRAIL	11	4	[0, 0, 0]	n/a	FR1	1	R1387E
756.283	0.817	760316	WORD_OFF	n/a	n/a	TRAIL	11	4	[0, 0, 0]	n/a	FR1	1	R1387E
757.1	1.6	761136	WORD	n/a	n/a	FLEA	12	4	[0, 0, 0]	n/a	FR1	1	R1387E
758.7	0.001	762732	WORD_OFF	n/a	n/a	FLEA	12	4	[0, 0, 0]	n/a	FR1	1	R1387E
758.701	0.0	762732	ENCODING_END	n/a	n/a	n/a	-999	4	[0, 0, 0]	n/a	FR1	1	R1387E
758.701	0.0	762732	DISTRACT_START	n/a	n/a	n/a	-999	4	[0, 0, 0]	n/a	FR1	1	R1387E
758.701	0.0	762733	START	n/a	n/a	n/a	-999	4	[-999, -999, -999]	n/a	FR1	1	R1387E
758.701	3.066	762733	PROB	3.066	n/a	n/a	-999	4	[4, 1, 4]	9	FR1	1	R1387E
761.767	2.983	765799	PROB	2.983	n/a	n/a	-999	4	[5, 5, 3]	13	FR1	1	R1387E
764.75	4.1	768782	PROB	4.1	n/a	n/a	-999	4	[6, 4, 1]	11	FR1	1	R1387E
768.85	8.117	772882	PROB	8.117	n/a	n/a	-999	4	[8, 6, 5]	19	FR1	1	R1387E
776.967	6.699	780998	PROB	6.699	n/a	n/a	-999	4	[3, 8, 6]	17	FR1	1	R1387E
783.666	0.0	787697	STOP	n/a	n/a	n/a	-999	4	[-999, -999, -999]	n/a	FR1	1	R1387E
783.666	1.867	787704	DISTRACT_END	n/a	n/a	n/a	-999	4	[0, 0, 0]	n/a	FR1	1	R1387E
785.533	4.884	789570	REC_START	n/a	n/a	n/a	-999	4	[0, 0, 0]	n/a	FR1	1	R1387E
790.417	2.796	794448	REC_WORD	2.796	n/a	MEAL	8	4	[0, 0, 0]	n/a	FR1	1	R1387E
793.213	4.927	797244	REC_WORD	4.927	n/a	EAT	-999	4	[0, 0, 0]	n/a	FR1	1	R1387E
798.14	3.585	802171	REC_WORD	3.585	n/a	FLEA	12	4	[0, 0, 0]	n/a	FR1	1	R1387E
801.725	3.37	805756	REC_WORD	3.37	n/a	WOOD	-999	4	[0, 0, 0]	n/a	FR1	1	R1387E
805.095	10.748	809125	REC_WORD	10.748	n/a	TRAIL	11	4	[0, 0, 0]	n/a	FR1	1	R1387E
815.843	2.456	819876	REC_END	n/a	n/a	n/a	-999	4	[0, 0, 0]	n/a	FR1	1	R1387E
818.299	10.351	822324	COUNTDOWN_START	n/a	n/a	n/a	-999	5	[0, 0, 0]	n/a	FR1	1	R1387E
828.65	0.0	832675	COUNTDOWN_END	n/a	n/a	n/a	-999	5	[0, 0, 0]	n/a	FR1	1	R1387E
828.65	2.233	832689	ENCODING_START	n/a	n/a	n/a	-999	5	[0, 0, 0]	n/a	FR1	1	R1387E
830.883	1.617	834918	WORD	n/a	n/a	PAN	1	5	[0, 0, 0]	n/a	FR1	1	R1387E
832.5	0.833	836528	WORD_OFF	n/a	n/a	PAN	1	5	[0, 0, 0]	n/a	FR1	1	R1387E
833.333	1.601	837362	WORD	n/a	n/a	PARK	2	5	[0, 0, 0]	n/a	FR1	1	R1387E
834.934	0.883	838958	WORD_OFF	n/a	n/a	PARK	2	5	[0, 0, 0]	n/a	FR1	1	R1387E
835.817	1.617	839849	WORD	n/a	n/a	LANE	3	5	[0, 0, 0]	n/a	FR1	1	R1387E
837.434	0.816	841459	WORD_OFF	n/a	n/a	LANE	3	5	[0, 0, 0]	n/a	FR1	1	R1387E
838.25	1.601	842279	WORD	n/a	n/a	LAWN	4	5	[0, 0, 0]	n/a	FR1	1	R1387E
839.851	0.934	843874	WORD_OFF	n/a	n/a	LAWN	4	5	[0, 0, 0]	n/a	FR1	1	R1387E
840.785	1.6	844809	WORD	n/a	n/a	EARTH	5	5	[0, 0, 0]	n/a	FR1	1	R1387E
842.385	0.85	846419	WORD_OFF	n/a	n/a	EARTH	5	5	[0, 0, 0]	n/a	FR1	1	R1387E
843.235	1.615	847267	WORD	n/a	n/a	MOON	6	5	[0, 0, 0]	n/a	FR1	1	R1387E
844.85	0.95	848878	WORD_OFF	n/a	n/a	MOON	6	5	[0, 0, 0]	n/a	FR1	1	R1387E
845.8	1.6	849826	WORD	n/a	n/a	STICK	7	5	[0, 0, 0]	n/a	FR1	1	R1387E
847.4	0.95	851422	WORD_OFF	n/a	n/a	STICK	7	5	[0, 0, 0]	n/a	FR1	1	R1387E
848.35	1.616	852385	WORD	n/a	n/a	MOLE	8	5	[0, 0, 0]	n/a	FR1	1	R1387E
849.966	0.883	853996	WORD_OFF	n/a	n/a	MOLE	8	5	[0, 0, 0]	n/a	FR1	1	R1387E
850.849	1.617	854873	WORD	n/a	n/a	BAT	9	5	[0, 0, 0]	n/a	FR1	1	R1387E
852.466	0.95	856497	WORD_OFF	n/a	n/a	BAT	9	5	[0, 0, 0]	n/a	FR1	1	R1387E
853.416	1.6	857446	WORD	n/a	n/a	CAT	10	5	[0, 0, 0]	n/a	FR1	1	R1387E
855.016	0.984	859042	WORD_OFF	n/a	n/a	CAT	10	5	[0, 0, 0]	n/a	FR1	1	R1387E
856.0	1.6	860034	WORD	n/a	n/a	HAT	11	5	[0, 0, 0]	n/a	FR1	1	R1387E
857.6	0.783	861630	WORD_OFF	n/a	n/a	HAT	11	5	[0, 0, 0]	n/a	FR1	1	R1387E
858.383	1.6	862406	WORD	n/a	n/a	RICE	12	5	[0, 0, 0]	n/a	FR1	1	R1387E
859.983	0.002	864012	PROB	0.002	n/a	n/a	-999	5	[8, 1, 2]	11	FR1	1	R1387E
859.985	0.0	864014	START	n/a	n/a	n/a	-999	5	[-999, -999, -999]	n/a	FR1	1	R1387E
859.983	0.002	864016	WORD_OFF	n/a	n/a	RICE	12	5	[0, 0, 0]	n/a	FR1	1	R1387E
859.985	0.0	864016	ENCODING_END	n/a	n/a	n/a	-999	5	[0, 0, 0]	n/a	FR1	1	R1387E
859.985	4.748	864016	DISTRACT_START	n/a	n/a	n/a	-999	5	[0, 0, 0]	n/a	FR1	1	R1387E
864.733	8.483	868761	PROB	8.483	n/a	n/a	-999	5	[8, 8, 6]	22	FR1	1	R1387E
873.216	2.917	877244	PROB	2.917	n/a	n/a	-999	5	[2, 5, 5]	12	FR1	1	R1387E
876.133	5.233	880161	PROB	5.233	n/a	n/a	-999	5	[1, 4, 7]	12	FR1	1	R1387E
881.366	0.0	885394	STOP	n/a	n/a	n/a	-999	5	[-999, -999, -999]	n/a	FR1	1	R1387E
881.366	1.834	885395	DISTRACT_END	n/a	n/a	n/a	-999	5	[0, 0, 0]	n/a	FR1	1	R1387E
883.2	29.999	887232	REC_START	n/a	n/a	n/a	-999	5	[0, 0, 0]	n/a	FR1	1	R1387E
913.199	0.312	917226	REC_WORD_VV	0.312	n/a	<>	-999	5	[0, 0, 0]	n/a	FR1	1	R1387E
913.511	3.371	917538	REC_END	n/a	n/a	n/a	-999	5	[0, 0, 0]	n/a	FR1	1	R1387E
916.882	10.353	920905	COUNTDOWN_START	n/a	n/a	n/a	-999	6	[0, 0, 0]	n/a	FR1	1	R1387E
927.235	0.0	931257	COUNTDOWN_END	n/a	n/a	n/a	-999	6	[0, 0, 0]	n/a	FR1	1	R1387E
927.235	1.799	931257	ENCODING_START	n/a	n/a	n/a	-999	6	[0, 0, 0]	n/a	FR1	1	R1387E
929.034	1.616	933068	WORD	n/a	n/a	SACK	1	6	[0, 0, 0]	n/a	FR1	1	R1387E
930.65	0.884	934678	WORD_OFF	n/a	n/a	SACK	1	6	[0, 0, 0]	n/a	FR1	1	R1387E
931.534	1.617	935555	WORD	n/a	n/a	CROWN	2	6	[0, 0, 0]	n/a	FR1	1	R1387E
933.151	0.801	937180	WORD_OFF	n/a	n/a	CROWN	2	6	[0, 0, 0]	n/a	FR1	1	R1387E
933.952	1.6	937985	WORD	n/a	n/a	SOIL	3	6	[0, 0, 0]	n/a	FR1	1	R1387E
935.552	0.917	939581	WORD_OFF	n/a	n/a	SOIL	3	6	[0, 0, 0]	n/a	FR1	1	R1387E
936.469	1.613	940501	WORD	n/a	n/a	GEESE	4	6	[0, 0, 0]	n/a	FR1	1	R1387E
938.082	0.818	942111	WORD_OFF	n/a	n/a	GEESE	4	6	[0, 0, 0]	n/a	FR1	1	R1387E
938.9	1.616	942931	WORD	n/a	n/a	EGG	5	6	[0, 0, 0]	n/a	FR1	1	R1387E
940.516	0.767	944541	WORD_OFF	n/a	n/a	EGG	5	6	[0, 0, 0]	n/a	FR1	1	R1387E
941.283	1.6	945303	WORD	n/a	n/a	SHOE	6	6	[0, 0, 0]	n/a	FR1	1	R1387E
942.883	0.917	946913	WORD_OFF	n/a	n/a	SHOE	6	6	[0, 0, 0]	n/a	FR1	1	R1387E
943.8	1.616	947833	WORD	n/a	n/a	CLOCK	7	6	[0, 0, 0]	n/a	FR1	1	R1387E
945.416	0.917	949443	WORD_OFF	n/a	n/a	CLOCK	7	6	[0, 0, 0]	n/a	FR1	1	R1387E
946.333	1.6	950363	WORD	n/a	n/a	OAR	8	6	[0, 0, 0]	n/a	FR1	1	R1387E
947.933	0.783	951959	WORD_OFF	n/a	n/a	OAR	8	6	[0, 0, 0]	n/a	FR1	1	R1387E
948.716	1.6	952736	WORD	n/a	n/a	STEAM	9	6	[0, 0, 0]	n/a	FR1	1	R1387E
950.316	0.999	954346	WORD_OFF	n/a	n/a	STEAM	9	6	[0, 0, 0]	n/a	FR1	1	R1387E
951.315	1.601	955338	WORD	n/a	n/a	HARP	10	6	[0, 0, 0]	n/a	FR1	1	R1387E
952.916	0.85	956948	WORD_OFF	n/a	n/a	HARP	10	6	[0, 0, 0]	n/a	FR1	1	R1387E
953.766	1.6	957796	WORD	n/a	n/a	SQUARE	11	6	[0, 0, 0]	n/a	FR1	1	R1387E
955.366	0.817	959392	WORD_OFF	n/a	n/a	SQUARE	11	6	[0, 0, 0]	n/a	FR1	1	R1387E
956.183	1.6	960212	WORD	n/a	n/a	SHELL	12	6	[0, 0, 0]	n/a	FR1	1	R1387E
957.783	0.001	961807	WORD_OFF	n/a	n/a	SHELL	12	6	[0, 0, 0]	n/a	FR1	1	R1387E
957.784	0.0	961807	ENCODING_END	n/a	n/a	n/a	-999	6	[0, 0, 0]	n/a	FR1	1	R1387E
957.784	0.0	961807	DISTRACT_START	n/a	n/a	n/a	-999	6	[0, 0, 0]	n/a	FR1	1	R1387E
957.784	0.0	961809	PROB	0.0	n/a	n/a	-999	6	[6, 4, 6]	16	FR1	1	R1387E
957.784	5.416	961809	START	n/a	n/a	n/a	-999	6	[-999, -999, -999]	n/a	FR1	1	R1387E
963.2	15.383	967225	PROB	15.383	n/a	n/a	-999	6	[7, 8, 8]	23	FR1	1	R1387E
978.583	0.0	982607	STOP	n/a	n/a	n/a	-999	6	[-999, -999, -999]	n/a	FR1	1	R1387E
978.583	1.733	982611	DISTRACT_END	n/a	n/a	n/a	-999	6	[0, 0, 0]	n/a	FR1	1	R1387E
980.316	17.622	984347	REC_START	n/a	n/a	n/a	-999	6	[0, 0, 0]	n/a	FR1	1	R1387E
997.938	1.0	1001962	REC_WORD	1.0	n/a	SOIL	3	6	[0, 0, 0]	n/a	FR1	1	R1387E
998.938	1.318	1002962	REC_WORD_VV	1.318	n/a	<>	-999	6	[0, 0, 0]	n/a	FR1	1	R1387E
1000.256	2.28	1004280	REC_WORD	2.28	n/a	OAR	8	6	[0, 0, 0]	n/a	FR1	1	R1387E
1002.536	1.0	1006560	REC_WORD	1.0	n/a	DIRT	-999	6	[0, 0, 0]	n/a	FR1	1	R1387E
1003.536	7.072	1007560	REC_WORD_VV	7.072	n/a	<>	-999	6	[0, 0, 0]	n/a	FR1	1	R1387E
1010.608	4.825	1014639	REC_END	n/a	n/a	n/a	-999	6	[0, 0, 0]	n/a	FR1	1	R1387E
1015.433	10.35	1019458	COUNTDOWN_START	n/a	n/a	n/a	-999	7	[0, 0, 0]	n/a	FR1	1	R1387E
1025.783	0.001	1029810	COUNTDOWN_END	n/a	n/a	n/a	-999	7	[0, 0, 0]	n/a	FR1	1	R1387E
1025.784	2.215	1029810	ENCODING_START	n/a	n/a	n/a	-999	7	[0, 0, 0]	n/a	FR1	1	R1387E
1027.999	1.6	1032024	WORD	n/a	n/a	WAVE	1	7	[0, 0, 0]	n/a	FR1	1	R1387E
1029.599	0.951	1033619	WORD_OFF	n/a	n/a	WAVE	1	7	[0, 0, 0]	n/a	FR1	1	R1387E
1030.55	1.6	1034568	WORD	n/a	n/a	TOOL	2	7	[0, 0, 0]	n/a	FR1	1	R1387E
1032.15	0.833	1036178	WORD_OFF	n/a	n/a	TOOL	2	7	[0, 0, 0]	n/a	FR1	1	R1387E
1032.983	1.617	1037012	WORD	n/a	n/a	JAIL	3	7	[0, 0, 0]	n/a	FR1	1	R1387E
1034.6	0.883	1038623	WORD_OFF	n/a	n/a	JAIL	3	7	[0, 0, 0]	n/a	FR1	1	R1387E
1035.483	1.617	1039500	WORD	n/a	n/a	ROOT	4	7	[0, 0, 0]	n/a	FR1	1	R1387E
1037.1	0.983	1041124	WORD_OFF	n/a	n/a	ROOT	4	7	[0, 0, 0]	n/a	FR1	1	R1387E
1038.083	1.6	1042102	WORD	n/a	n/a	VASE	5	7	[0, 0, 0]	n/a	FR1	1	R1387E
1039.683	0.8	1043712	WORD_OFF	n/a	n/a	VASE	5	7	[0, 0, 0]	n/a	FR1	1	R1387E
1040.483	1.617	1044503	WORD	n/a	n/a	WORLD	6	7	[0, 0, 0]	n/a	FR1	1	R1387E
1042.1	0.9	1046127	WORD_OFF	n/a	n/a	WORLD	6	7	[0, 0, 0]	n/a	FR1	1	R1387E
1043.0	1.6	1047019	WORD	n/a	n/a	PRIZE	7	7	[0, 0, 0]	n/a	FR1	1	R1387E
1044.6	0.783	1048629	WORD_OFF	n/a	n/a	PRIZE	7	7	[0, 0, 0]	n/a	FR1	1	R1387E
1045.383	1.6	1049405	WORD	n/a	n/a	HEART	8	7	[0, 0, 0]	n/a	FR1	1	R1387E
1046.983	0.767	1051001	WORD_OFF	n/a	n/a	HEART	8	7	[0, 0, 0]	n/a	FR1	1	R1387E
1047.75	1.6	1051777	WORD	n/a	n/a	WOLF	9	7	[0, 0, 0]	n/a	FR1	1	R1387E
1049.35	0.933	1053373	WORD_OFF	n/a	n/a	WOLF	9	7	[0, 0, 0]	n/a	FR1	1	R1387E
1050.283	1.6	1054308	WORD	n/a	n/a	VINE	10	7	[0, 0, 0]	n/a	FR1	1	R1387E
1051.883	0.867	1055903	WORD_OFF	n/a	n/a	VINE	10	7	[0, 0, 0]	n/a	FR1	1	R1387E
1052.75	1.6	1056766	WORD	n/a	n/a	CORK	11	7	[0, 0, 0]	n/a	FR1	1	R1387E
1054.35	0.816	1058376	WORD_OFF	n/a	n/a	CORK	11	7	[0, 0, 0]	n/a	FR1	1	R1387E
1055.166	1.601	1059196	WORD	n/a	n/a	SWORD	12	7	[0, 0, 0]	n/a	FR1	1	R1387E
1056.767	0.002	1060789	PROB	0.002	n/a	n/a	-999	7	[8, 1, 7]	16	FR1	1	R1387E
1056.769	0.0	1060791	START	n/a	n/a	n/a	-999	7	[-999, -999, -999]	n/a	FR1	1	R1387E
1056.766	0.002	1060792	WORD_OFF	n/a	n/a	SWORD	12	7	[0, 0, 0]	n/a	FR1	1	R1387E
1056.768	0.001	1060792	ENCODING_END	n/a	n/a	n/a	-999	7	[0, 0, 0]	n/a	FR1	1	R1387E
1056.769	4.431	1060792	DISTRACT_START	n/a	n/a	n/a	-999	7	[0, 0, 0]	n/a	FR1	1	R1387E
1061.2	9.017	1065222	PROB	9.017	n/a	n/a	-999	7	[7, 7, 8]	22	FR1	1	R1387E
1070.217	4.284	1074238	PROB	4.284	n/a	n/a	-999	7	[4, 5, 7]	16	FR1	1	R1387E
1074.501	6.465	1078522	PROB	6.465	n/a	n/a	-999	7	[5, 3, 4]	12	FR1	1	R1387E
1080.966	0.0	1084987	STOP	n/a	n/a	n/a	-999	7	[-999, -999, -999]	n/a	FR1	1	R1387E
1080.966	1.65	1084988	DISTRACT_END	n/a	n/a	n/a	-999	7	[0, 0, 0]	n/a	FR1	1	R1387E
1082.616	6.242	1086638	REC_START	n/a	n/a	n/a	-999	7	[0, 0, 0]	n/a	FR1	1	R1387E
1088.858	3.342	1092879	REC_WORD	3.342	n/a	TOOL	2	7	[0, 0, 0]	n/a	FR1	1	R1387E
1092.2	20.718	1096221	REC_WORD	20.718	n/a	SOIL	-999	7	[0, 0, 0]	n/a	FR1	1	R1387E
1112.918	2.648	1116944	REC_END	n/a	n/a	n/a	-999	7	[0, 0, 0]	n/a	FR1	1	R1387E
1115.566	10.351	1119593	COUNTDOWN_START	n/a	n/a	n/a	-999	8	[0, 0, 0]	n/a	FR1	1	R1387E
1125.917	0.0	1129944	COUNTDOWN_END	n/a	n/a	n/a	-999	8	[0, 0, 0]	n/a	FR1	1	R1387E
1125.917	1.883	1129944	ENCODING_START	n/a	n/a	n/a	-999	8	[0, 0, 0]	n/a	FR1	1	R1387E
1127.8	1.6	1131827	WORD	n/a	n/a	SPEAR	1	8	[0, 0, 0]	n/a	FR1	1	R1387E
1129.4	0.783	1133423	WORD_OFF	n/a	n/a	SPEAR	1	8	[0, 0, 0]	n/a	FR1	1	R1387E
1130.183	1.6	1134200	WORD	n/a	n/a	BOOT	2	8	[0, 0, 0]	n/a	FR1	1	R1387E
1131.783	0.917	1135795	WORD_OFF	n/a	n/a	BOOT	2	8	[0, 0, 0]	n/a	FR1	1	R1387E
1132.7	1.602	1136715	WORD	n/a	n/a	DIME	3	8	[0, 0, 0]	n/a	FR1	1	R1387E
1134.302	0.948	1138326	WORD_OFF	n/a	n/a	DIME	3	8	[0, 0, 0]	n/a	FR1	1	R1387E
1135.25	1.6	1139275	WORD	n/a	n/a	KEY	4	8	[0, 0, 0]	n/a	FR1	1	R1387E
1136.85	0.933	1140870	WORD_OFF	n/a	n/a	KEY	4	8	[0, 0, 0]	n/a	FR1	1	R1387E
1137.783	1.6	1141805	WORD	n/a	n/a	PILL	5	8	[0, 0, 0]	n/a	FR1	1	R1387E
1139.383	0.85	1143401	WORD_OFF	n/a	n/a	PILL	5	8	[0, 0, 0]	n/a	FR1	1	R1387E
1140.233	1.6	1144249	WORD	n/a	n/a	HILL	6	8	[0, 0, 0]	n/a	FR1	1	R1387E
1141.833	0.9	1145859	WORD_OFF	n/a	n/a	HILL	6	8	[0, 0, 0]	n/a	FR1	1	R1387E
1142.733	1.617	1146750	WORD	n/a	n/a	PIT	7	8	[0, 0, 0]	n/a	FR1	1	R1387E
1144.35	0.866	1148375	WORD_OFF	n/a	n/a	PIT	7	8	[0, 0, 0]	n/a	FR1	1	R1387E
1145.216	1.6	1149238	WORD	n/a	n/a	LEAF	8	8	[0, 0, 0]	n/a	FR1	1	R1387E
1146.816	0.984	1150833	WORD_OFF	n/a	n/a	LEAF	8	8	[0, 0, 0]	n/a	FR1	1	R1387E
1147.8	1.6	1151825	WORD	n/a	n/a	STEM	9	8	[0, 0, 0]	n/a	FR1	1	R1387E
1149.4	0.783	1153421	WORD_OFF	n/a	n/a	STEM	9	8	[0, 0, 0]	n/a	FR1	1	R1387E
1150.183	1.6	1154198	WORD	n/a	n/a	FARM	10	8	[0, 0, 0]	n/a	FR1	1	R1387E
1151.783	0.766	1155808	WORD_OFF	n/a	n/a	FARM	10	8	[0, 0, 0]	n/a	FR1	1	R1387E
1152.549	1.601	1156570	WORD	n/a	n/a	WHEEL	11	8	[0, 0, 0]	n/a	FR1	1	R1387E
1154.15	0.799	1158166	WORD_OFF	n/a	n/a	WHEEL	11	8	[0, 0, 0]	n/a	FR1	1	R1387E
1154.949	1.601	1158971	WORD	n/a	n/a	SKIN	12	8	[0, 0, 0]	n/a	FR1	1	R1387E
1156.55	0.001	1160567	WORD_OFF	n/a	n/a	SKIN	12	8	[0, 0, 0]	n/a	FR1	1	R1387E
1156.551	0.0	1160567	ENCODING_END	n/a	n/a	n/a	-999	8	[0, 0, 0]	n/a	FR1	1	R1387E
1156.551	0.0	1160567	DISTRACT_START	n/a	n/a	n/a	-999	8	[0, 0, 0]	n/a	FR1	1	R1387E
1156.551	0.0	1160569	START	n/a	n/a	n/a	-999	8	[-999, -999, -999]	n/a	FR1	1	R1387E
1156.551	3.715	1160569	PROB	3.715	n/a	n/a	-999	8	[5, 6, 1]	12	FR1	1	R1387E
1160.266	3.484	1164284	PROB	3.484	n/a	n/a	-999	8	[3, 5, 2]	10	FR1	1	R1387E
1163.75	4.933	1167768	PROB	4.933	n/a	n/a	-999	8	[8, 5, 4]	17	FR1	1	R1387E
1168.683	2.917	1172701	PROB	2.917	n/a	n/a	-999	8	[1, 1, 4]	6	FR1	1	R1387E
1171.6	4.784	1175618	PROB	4.784	n/a	n/a	-999	8	[1, 3, 5]	9	FR1	1	R1387E
1176.384	3.665	1180402	PROB	3.665	n/a	n/a	-999	8	[7, 2, 2]	11	FR1	1	R1387E
1180.049	0.0	1184067	STOP	n/a	n/a	n/a	-999	8	[-999, -999, -999]	n/a	FR1	1	R1387E
1180.049	1.684	1184073	DISTRACT_END	n/a	n/a	n/a	-999	8	[0, 0, 0]	n/a	FR1	1	R1387E
1181.733	5.517	1185752	REC_START	n/a	n/a	n/a	-999	8	[0, 0, 0]	n/a	FR1	1	R1387E
1187.25	0.758	1191267	REC_WORD	0.758	n/a	KEY	4	8	[0, 0, 0]	n/a	FR1	1	R1387E
1188.008	2.843	1192025	REC_WORD	2.843	n/a	DIME	3	8	[0, 0, 0]	n/a	FR1	1	R1387E
1190.851	1.0	1194868	REC_WORD	1.0	n/a	SPEAR	1	8	[0, 0, 0]	n/a	FR1	1	R1387E
1191.851	20.181	1195868	REC_WORD_VV	20.181	n/a	<>	-999	8	[0, 0, 0]	n/a	FR1	1	R1387E
1212.032	4.101	1216043	REC_END	n/a	n/a	n/a	-999	8	[0, 0, 0]	n/a	FR1	1	R1387E
1216.133	10.351	1220158	COUNTDOWN_START	n/a	n/a	n/a	-999	9	[0, 0, 0]	n/a	FR1	1	R1387E
1226.484	0.0	1230495	COUNTDOWN_END	n/a	n/a	n/a	-999	9	[0, 0, 0]	n/a	FR1	1	R1387E
1226.484	2.065	1230495	ENCODING_START	n/a	n/a	n/a	-999	9	[0, 0, 0]	n/a	FR1	1	R1387E
1228.549	1.601	1232566	WORD	n/a	n/a	TROUT	1	9	[0, 0, 0]	n/a	FR1	1	R1387E
1230.15	0.866	1234161	WORD_OFF	n/a	n/a	TROUT	1	9	[0, 0, 0]	n/a	FR1	1	R1387E
1231.016	1.6	1235038	WORD	n/a	n/a	BIN	2	9	[0, 0, 0]	n/a	FR1	1	R1387E
1232.616	0.767	1236634	WORD_OFF	n/a	n/a	BIN	2	9	[0, 0, 0]	n/a	FR1	1	R1387E
1233.383	1.6	1237396	WORD	n/a	n/a	BAY	3	9	[0, 0, 0]	n/a	FR1	1	R1387E
1234.983	0.767	1239006	WORD_OFF	n/a	n/a	BAY	3	9	[0, 0, 0]	n/a	FR1	1	R1387E
1235.75	1.6	1239768	WORD	n/a	n/a	ROPE	4	9	[0, 0, 0]	n/a	FR1	1	R1387E
1237.35	0.766	1241364	WORD_OFF	n/a	n/a	ROPE	4	9	[0, 0, 0]	n/a	FR1	1	R1387E
1238.116	1.617	1242140	WORD	n/a	n/a	RIB	5	9	[0, 0, 0]	n/a	FR1	1	R1387E
1239.733	0.767	1243751	WORD_OFF	n/a	n/a	RIB	5	9	[0, 0, 0]	n/a	FR1	1	R1387E
1240.5	1.6	1244513	WORD	n/a	n/a	MOUTH	6	9	[0, 0, 0]	n/a	FR1	1	R1387E
1242.1	0.985	1246108	WORD_OFF	n/a	n/a	MOUTH	6	9	[0, 0, 0]	n/a	FR1	1	R1387E
1243.085	1.598	1247100	WORD	n/a	n/a	JAW	7	9	[0, 0, 0]	n/a	FR1	1	R1387E
1244.683	0.967	1248696	WORD_OFF	n/a	n/a	JAW	7	9	[0, 0, 0]	n/a	FR1	1	R1387E
1245.65	1.616	1249660	WORD	n/a	n/a	CHIEF	8	9	[0, 0, 0]	n/a	FR1	1	R1387E
1247.266	0.8	1251284	WORD_OFF	n/a	n/a	CHIEF	8	9	[0, 0, 0]	n/a	FR1	1	R1387E
1248.066	1.6	1252089	WORD	n/a	n/a	FOOD	9	9	[0, 0, 0]	n/a	FR1	1	R1387E
1249.666	0.967	1253685	WORD_OFF	n/a	n/a	FOOD	9	9	[0, 0, 0]	n/a	FR1	1	R1387E
1250.633	1.6	1254648	WORD	n/a	n/a	PRINCE	10	9	[0, 0, 0]	n/a	FR1	1	R1387E
1252.233	0.933	1256244	WORD_OFF	n/a	n/a	PRINCE	10	9	[0, 0, 0]	n/a	FR1	1	R1387E
1253.166	1.6	1257179	WORD	n/a	n/a	BARN	11	9	[0, 0, 0]	n/a	FR1	1	R1387E
1254.766	0.917	1258774	WORD_OFF	n/a	n/a	BARN	11	9	[0, 0, 0]	n/a	FR1	1	R1387E
1255.683	1.601	1259695	WORD	n/a	n/a	STEAK	12	9	[0, 0, 0]	n/a	FR1	1	R1387E
1257.284	0.0	1261299	START	n/a	n/a	n/a	-999	9	[-999, -999, -999]	n/a	FR1	1	R1387E
1257.284	0.0	1261299	PROB	0.0	n/a	n/a	-999	9	[2, 2, 2]	6	FR1	1	R1387E
1257.283	0.001	1261305	WORD_OFF	n/a	n/a	STEAK	12	9	[0, 0, 0]	n/a	FR1	1	R1387E
1257.284	0.0	1261305	ENCODING_END	n/a	n/a	n/a	-999	9	[0, 0, 0]	n/a	FR1	1	R1387E
1257.284	4.016	1261305	DISTRACT_START	n/a	n/a	n/a	-999	9	[0, 0, 0]	n/a	FR1	1	R1387E
1261.3	4.166	1265315	PROB	4.166	n/a	n/a	-999	9	[2, 4, 1]	7	FR1	1	R1387E
1265.466	3.65	1269481	PROB	3.65	n/a	n/a	-999	9	[1, 8, 8]	17	FR1	1	R1387E
1269.116	6.15	1273130	PROB	6.15	n/a	n/a	-999	9	[1, 4, 4]	9	FR1	1	R1387E
1275.266	4.983	1279280	PROB	4.983	n/a	n/a	-999	9	[4, 1, 3]	8	FR1	1	R1387E
1280.249	0.0	1284263	STOP	n/a	n/a	n/a	-999	9	[-999, -999, -999]	n/a	FR1	1	R1387E
1280.249	1.6	1284264	DISTRACT_END	n/a	n/a	n/a	-999	9	[0, 0, 0]	n/a	FR1	1	R1387E
1281.849	2.452	1285872	REC_START	n/a	n/a	n/a	-999	9	[0, 0, 0]	n/a	FR1	1	R1387E
1284.301	27.84	1288315	REC_WORD	27.84	n/a	BARN	11	9	[0, 0, 0]	n/a	FR1	1	R1387E
1312.141	1.975	1316149	REC_END	n/a	n/a	n/a	-999	9	[0, 0, 0]	n/a	FR1	1	R1387E
1314.116	10.351	1318136	COUNTDOWN_START	n/a	n/a	n/a	-999	10	[0, 0, 0]	n/a	FR1	1	R1387E
1324.467	0.0	1328488	COUNTDOWN_END	n/a	n/a	n/a	-999	10	[0, 0, 0]	n/a	FR1	1	R1387E
1324.467	2.083	1328488	ENCODING_START	n/a	n/a	n/a	-999	10	[0, 0, 0]	n/a	FR1	1	R1387E
1326.55	1.6	1330558	WORD	n/a	n/a	BOX	1	10	[0, 0, 0]	n/a	FR1	1	R1387E
1328.15	0.933	1332168	WORD_OFF	n/a	n/a	BOX	1	10	[0, 0, 0]	n/a	FR1	1	R1387E
1329.083	1.6	1333102	WORD	n/a	n/a	SHARK	2	10	[0, 0, 0]	n/a	FR1	1	R1387E
1330.683	0.783	1334698	WORD_OFF	n/a	n/a	SHARK	2	10	[0, 0, 0]	n/a	FR1	1	R1387E
1331.466	1.6	1335475	WORD	n/a	n/a	BREAST	3	10	[0, 0, 0]	n/a	FR1	1	R1387E
1333.066	0.867	1337085	WORD_OFF	n/a	n/a	BREAST	3	10	[0, 0, 0]	n/a	FR1	1	R1387E
1333.933	1.6	1337947	WORD	n/a	n/a	BOY	4	10	[0, 0, 0]	n/a	FR1	1	R1387E
1335.533	0.982	1339543	WORD_OFF	n/a	n/a	BOY	4	10	[0, 0, 0]	n/a	FR1	1	R1387E
1336.515	1.601	1340521	WORD	n/a	n/a	THORN	5	10	[0, 0, 0]	n/a	FR1	1	R1387E
1338.116	0.85	1342131	WORD_OFF	n/a	n/a	THORN	5	10	[0, 0, 0]	n/a	FR1	1	R1387E
1338.966	1.6	1342979	WORD	n/a	n/a	SOCK	6	10	[0, 0, 0]	n/a	FR1	1	R1387E
1340.566	0.984	1344575	WORD_OFF	n/a	n/a	SOCK	6	10	[0, 0, 0]	n/a	FR1	1	R1387E
1341.55	1.6	1345567	WORD	n/a	n/a	WIG	7	10	[0, 0, 0]	n/a	FR1	1	R1387E
1343.15	0.966	1347163	WORD_OFF	n/a	n/a	WIG	7	10	[0, 0, 0]	n/a	FR1	1	R1387E
1344.116	1.617	1348126	WORD	n/a	n/a	APE	8	10	[0, 0, 0]	n/a	FR1	1	R1387E
1345.733	0.767	1349751	WORD_OFF	n/a	n/a	APE	8	10	[0, 0, 0]	n/a	FR1	1	R1387E
1346.5	1.6	1350513	WORD	n/a	n/a	SAIL	9	10	[0, 0, 0]	n/a	FR1	1	R1387E
1348.1	0.783	1352109	WORD_OFF	n/a	n/a	SAIL	9	10	[0, 0, 0]	n/a	FR1	1	R1387E
1348.883	1.6	1352899	WORD	n/a	n/a	JUDGE	10	10	[0, 0, 0]	n/a	FR1	1	R1387E
1350.483	0.9	1354495	WORD_OFF	n/a	n/a	JUDGE	10	10	[0, 0, 0]	n/a	FR1	1	R1387E
1351.383	1.6	1355401	WORD	n/a	n/a	BLOOD	11	10	[0, 0, 0]	n/a	FR1	1	R1387E
1352.983	0.916	1356997	WORD_OFF	n/a	n/a	BLOOD	11	10	[0, 0, 0]	n/a	FR1	1	R1387E
1353.899	1.601	1357917	WORD	n/a	n/a	CUP	12	10	[0, 0, 0]	n/a	FR1	1	R1387E
1355.5	0.0	1359512	PROB	0.0	n/a	n/a	-999	10	[7, 3, 6]	16	FR1	1	R1387E
1355.5	0.001	1359513	WORD_OFF	n/a	n/a	CUP	12	10	[0, 0, 0]	n/a	FR1	1	R1387E
1355.501	0.0	1359513	ENCODING_END	n/a	n/a	n/a	-999	10	[0, 0, 0]	n/a	FR1	1	R1387E
1355.501	0.0	1359513	DISTRACT_START	n/a	n/a	n/a	-999	10	[0, 0, 0]	n/a	FR1	1	R1387E
1355.501	6.231	1359513	START	n/a	n/a	n/a	-999	10	[-999, -999, -999]	n/a	FR1	1	R1387E
1361.732	2.287	1365743	PROB	2.287	n/a	n/a	-999	10	[2, 2, 2]	6	FR1	1	R1387E
1364.019	4.347	1368030	PROB	4.347	n/a	n/a	-999	10	[7, 3, 4]	14	FR1	1	R1387E
1368.366	7.433	1372377	PROB	7.433	n/a	n/a	-999	10	[6, 7, 8]	21	FR1	1	R1387E
1375.799	0.0	1379810	STOP	n/a	n/a	n/a	-999	10	[-999, -999, -999]	n/a	FR1	1	R1387E
1375.799	1.583	1379813	DISTRACT_END	n/a	n/a	n/a	-999	10	[0, 0, 0]	n/a	FR1	1	R1387E
1377.382	2.533	1381391	REC_START	n/a	n/a	n/a	-999	10	[0, 0, 0]	n/a	FR1	1	R1387E
1379.915	0.763	1383926	REC_WORD	0.763	n/a	CUP	12	10	[0, 0, 0]	n/a	FR1	1	R1387E
1380.678	1.0	1384689	REC_WORD	1.0	n/a	THORN	5	10	[0, 0, 0]	n/a	FR1	1	R1387E
1381.678	3.911	1385689	REC_WORD_VV	3.911	n/a	<>	-999	10	[0, 0, 0]	n/a	FR1	1	R1387E
1385.589	1.0	1389600	REC_WORD	1.0	n/a	SOCK	6	10	[0, 0, 0]	n/a	FR1	1	R1387E
1386.589	0.917	1390599	REC_WORD_VV	0.917	n/a	<>	-999	10	[0, 0, 0]	n/a	FR1	1	R1387E
1387.506	1.0	1391516	REC_WORD	1.0	n/a	SHARK	2	10	[0, 0, 0]	n/a	FR1	1	R1387E
1388.506	3.641	1392516	REC_WORD_VV	3.641	n/a	<>	-999	10	[0, 0, 0]	n/a	FR1	1	R1387E
1392.147	1.0	1396157	REC_WORD	1.0	n/a	BARN	-999	10	[0, 0, 0]	n/a	FR1	1	R1387E
1393.147	1.0	1397157	REC_WORD_VV	1.0	n/a	<>	-999	10	[0, 0, 0]	n/a	FR1	1	R1387E
1394.147	13.521	1398157	REC_WORD_VV	13.521	n/a	<>	-999	10	[0, 0, 0]	n/a	FR1	1	R1387E
1407.668	1.565	1411683	REC_END	n/a	n/a	n/a	-999	10	[0, 0, 0]	n/a	FR1	1	R1387E
1409.233	10.351	1413239	COUNTDOWN_START	n/a	n/a	n/a	-999	11	[0, 0, 0]	n/a	FR1	1	R1387E
1419.584	0.0	1423590	COUNTDOWN_END	n/a	n/a	n/a	-999	11	[0, 0, 0]	n/a	FR1	1	R1387E
1419.584	1.916	1423590	ENCODING_START	n/a	n/a	n/a	-999	11	[0, 0, 0]	n/a	FR1	1	R1387E
1421.5	1.616	1425502	WORD	n/a	n/a	SLUSH	1	11	[0, 0, 0]	n/a	FR1	1	R1387E
1423.116	0.934	1427127	WORD_OFF	n/a	n/a	SLUSH	1	11	[0, 0, 0]	n/a	FR1	1	R1387E
1424.05	1.6	1428061	WORD	n/a	n/a	STORE	2	11	[0, 0, 0]	n/a	FR1	1	R1387E
1425.65	0.899	1429657	WORD_OFF	n/a	n/a	STORE	2	11	[0, 0, 0]	n/a	FR1	1	R1387E
1426.549	1.601	1430563	WORD	n/a	n/a	SPONGE	3	11	[0, 0, 0]	n/a	FR1	1	R1387E
1428.15	0.8	1432159	WORD_OFF	n/a	n/a	SPONGE	3	11	[0, 0, 0]	n/a	FR1	1	R1387E
1428.95	1.6	1432964	WORD	n/a	n/a	SNAKE	4	11	[0, 0, 0]	n/a	FR1	1	R1387E
1430.55	0.982	1434560	WORD_OFF	n/a	n/a	SNAKE	4	11	[0, 0, 0]	n/a	FR1	1	R1387E
1431.532	1.603	1435537	WORD	n/a	n/a	FROG	5	11	[0, 0, 0]	n/a	FR1	1	R1387E
1433.135	0.948	1437147	WORD_OFF	n/a	n/a	FROG	5	11	[0, 0, 0]	n/a	FR1	1	R1387E
1434.083	1.6	1438096	WORD	n/a	n/a	HOOF	6	11	[0, 0, 0]	n/a	FR1	1	R1387E
1435.683	0.833	1439692	WORD_OFF	n/a	n/a	HOOF	6	11	[0, 0, 0]	n/a	FR1	1	R1387E
1436.516	1.6	1440526	WORD	n/a	n/a	FENCE	7	11	[0, 0, 0]	n/a	FR1	1	R1387E
1438.116	0.934	1442122	WORD_OFF	n/a	n/a	FENCE	7	11	[0, 0, 0]	n/a	FR1	1	R1387E
1439.05	1.6	1443056	WORD	n/a	n/a	SHIP	8	11	[0, 0, 0]	n/a	FR1	1	R1387E
1440.65	0.95	1444652	WORD_OFF	n/a	n/a	SHIP	8	11	[0, 0, 0]	n/a	FR1	1	R1387E
1441.6	1.6	1445615	WORD	n/a	n/a	BUSH	9	11	[0, 0, 0]	n/a	FR1	1	R1387E
1443.2	0.899	1447211	WORD_OFF	n/a	n/a	BUSH	9	11	[0, 0, 0]	n/a	FR1	1	R1387E
1444.099	1.601	1448102	WORD	n/a	n/a	WORM	10	11	[0, 0, 0]	n/a	FR1	1	R1387E
1445.7	0.8	1449713	WORD_OFF	n/a	n/a	WORM	10	11	[0, 0, 0]	n/a	FR1	1	R1387E
1446.5	1.6	1450503	WORD	n/a	n/a	WING	11	11	[0, 0, 0]	n/a	FR1	1	R1387E
1448.1	0.783	1452114	WORD_OFF	n/a	n/a	WING	11	11	[0, 0, 0]	n/a	FR1	1	R1387E
1448.883	1.6	1452890	WORD	n/a	n/a	SLEEVE	12	11	[0, 0, 0]	n/a	FR1	1	R1387E
1450.483	0.001	1454486	WORD_OFF	n/a	n/a	SLEEVE	12	11	[0, 0, 0]	n/a	FR1	1	R1387E
1450.484	0.0	1454492	PROB	0.0	n/a	n/a	-999	11	[8, 5, 8]	21	FR1	1	R1387E
1450.484	0.0	1454492	START	n/a	n/a	n/a	-999	11	[-999, -999, -999]	n/a	FR1	1	R1387E
1450.484	0.0	1454500	ENCODING_END	n/a	n/a	n/a	-999	11	[0, 0, 0]	n/a	FR1	1	R1387E
1450.484	8.716	1454500	DISTRACT_START	n/a	n/a	n/a	-999	11	[0, 0, 0]	n/a	FR1	1	R1387E
1459.2	6.867	1463208	PROB	6.867	n/a	n/a	-999	11	[8, 3, 7]	18	FR1	1	R1387E
1466.067	5.915	1470075	PROB	5.915	n/a	n/a	-999	11	[6, 5, 3]	14	FR1	1	R1387E
1471.982	0.0	1475990	STOP	n/a	n/a	n/a	-999	11	[-999, -999, -999]	n/a	FR1	1	R1387E
1471.982	1.833	1475993	DISTRACT_END	n/a	n/a	n/a	-999	11	[0, 0, 0]	n/a	FR1	1	R1387E
1473.815	1.419	1477816	REC_START	n/a	n/a	n/a	-999	11	[0, 0, 0]	n/a	FR1	1	R1387E
1475.234	12.034	1479241	REC_WORD	12.034	n/a	WORM	10	11	[0, 0, 0]	n/a	FR1	1	R1387E
1487.268	16.832	1491275	REC_WORD	16.832	n/a	EGG	-999	11	[0, 0, 0]	n/a	FR1	1	R1387E
1504.1	1.783	1508108	REC_END	n/a	n/a	n/a	-999	11	[0, 0, 0]	n/a	FR1	1	R1387E
1505.883	10.351	1509894	COUNTDOWN_START	n/a	n/a	n/a	-999	12	[0, 0, 0]	n/a	FR1	1	R1387E
1516.234	0.0	1520245	COUNTDOWN_END	n/a	n/a	n/a	-999	12	[0, 0, 0]	n/a	FR1	1	R1387E
1516.234	2.249	1520245	ENCODING_START	n/a	n/a	n/a	-999	12	[0, 0, 0]	n/a	FR1	1	R1387E
1518.483	1.6	1522488	WORD	n/a	n/a	MUG	1	12	[0, 0, 0]	n/a	FR1	1	R1387E
1520.083	0.85	1524084	WORD_OFF	n/a	n/a	MUG	1	12	[0, 0, 0]	n/a	FR1	1	R1387E
1520.933	1.6	1524946	WORD	n/a	n/a	KNOB	2	12	[0, 0, 0]	n/a	FR1	1	R1387E
1522.533	0.799	1526542	WORD_OFF	n/a	n/a	KNOB	2	12	[0, 0, 0]	n/a	FR1	1	R1387E
1523.332	1.601	1527333	WORD	n/a	n/a	SKI	3	12	[0, 0, 0]	n/a	FR1	1	R1387E
1524.933	1.0	1528943	WORD_OFF	n/a	n/a	SKI	3	12	[0, 0, 0]	n/a	FR1	1	R1387E
1525.933	1.6	1529935	WORD	n/a	n/a	RAMP	4	12	[0, 0, 0]	n/a	FR1	1	R1387E
1527.533	1.0	1531545	WORD_OFF	n/a	n/a	RAMP	4	12	[0, 0, 0]	n/a	FR1	1	R1387E
1528.533	1.6	1532537	WORD	n/a	n/a	WEB	5	12	[0, 0, 0]	n/a	FR1	1	R1387E
1530.133	0.767	1534133	WORD_OFF	n/a	n/a	WEB	5	12	[0, 0, 0]	n/a	FR1	1	R1387E
1530.9	1.6	1534910	WORD	n/a	n/a	CASH	6	12	[0, 0, 0]	n/a	FR1	1	R1387E
1532.5	0.917	1536505	WORD_OFF	n/a	n/a	CASH	6	12	[0, 0, 0]	n/a	FR1	1	R1387E
1533.417	1.599	1537426	WORD	n/a	n/a	SKY	7	12	[0, 0, 0]	n/a	FR1	1	R1387E
1535.016	1.0	1539036	WORD_OFF	n/a	n/a	SKY	7	12	[0, 0, 0]	n/a	FR1	1	R1387E
1536.016	1.617	1540028	WORD	n/a	n/a	BEAN	8	12	[0, 0, 0]	n/a	FR1	1	R1387E
1537.633	0.933	1541638	WORD_OFF	n/a	n/a	BEAN	8	12	[0, 0, 0]	n/a	FR1	1	R1387E
1538.566	1.616	1542572	WORD	n/a	n/a	TREE	9	12	[0, 0, 0]	n/a	FR1	1	R1387E
1540.182	0.768	1544183	WORD_OFF	n/a	n/a	TREE	9	12	[0, 0, 0]	n/a	FR1	1	R1387E
1540.95	1.616	1544959	WORD	n/a	n/a	GRASS	10	12	[0, 0, 0]	n/a	FR1	1	R1387E
1542.566	0.967	1546569	WORD_OFF	n/a	n/a	GRASS	10	12	[0, 0, 0]	n/a	FR1	1	R1387E
1543.533	1.6	1547532	WORD	n/a	n/a	WEED	11	12	[0, 0, 0]	n/a	FR1	1	R1387E
1545.133	0.767	1549143	WORD_OFF	n/a	n/a	WEED	11	12	[0, 0, 0]	n/a	FR1	1	R1387E
1545.9	1.615	1549905	WORD	n/a	n/a	STRAW	12	12	[0, 0, 0]	n/a	FR1	1	R1387E
1547.515	0.001	1551515	WORD_OFF	n/a	n/a	STRAW	12	12	[0, 0, 0]	n/a	FR1	1	R1387E
1547.516	0.001	1551521	PROB	0.001	n/a	n/a	-999	12	[2, 4, 2]	8	FR1	1	R1387E
1547.517	0.0	1551522	START	n/a	n/a	n/a	-999	12	[-999, -999, -999]	n/a	FR1	1	R1387E
1547.517	0.0	1551529	ENCODING_END	n/a	n/a	n/a	-999	12	[0, 0, 0]	n/a	FR1	1	R1387E
1547.517	4.466	1551529	DISTRACT_START	n/a	n/a	n/a	-999	12	[0, 0, 0]	n/a	FR1	1	R1387E
1551.983	5.4	1555988	PROB	5.4	n/a	n/a	-999	12	[8, 1, 2]	11	FR1	1	R1387E
1557.383	5.1	1561388	PROB	5.1	n/a	n/a	-999	12	[1, 7, 6]	14	FR1	1	R1387E
1562.483	10.85	1566487	PROB	10.85	n/a	n/a	-999	12	[6, 8, 6]	20	FR1	1	R1387E
1573.333	0.0	1577337	STOP	n/a	n/a	n/a	-999	12	[-999, -999, -999]	n/a	FR1	1	R1387E
