onset	duration	sample	trial_type	response_time	stim_file	item_name	serialpos	list	test	answer	experiment	session	subject
0.0	0.815	3636996	INSTRUCT_START	n/a	n/a	n/a	-999	-999	[0, 0, 0]	n/a	FR1	2	R1409D
0.815	20.733	3637807	INSTRUCT_END	n/a	n/a	n/a	-999	-999	[0, 0, 0]	n/a	FR1	2	R1409D
21.548	10.35	3658538	COUNTDOWN_START	n/a	n/a	n/a	-999	-999	[0, 0, 0]	n/a	FR1	2	R1409D
31.898	0.0	3668886	COUNTDOWN_END	n/a	n/a	n/a	-999	-999	[0, 0, 0]	n/a	FR1	2	R1409D
31.898	2.049	3668886	ENCODING_START	n/a	n/a	n/a	-999	-1	[0, 0, 0]	n/a	FR1	2	R1409D
33.947	1.617	3670938	WORD	n/a	n/a	RAFT	1	-1	[0, 0, 0]	n/a	FR1	2	R1409D
35.564	0.817	3672550	WORD_OFF	n/a	n/a	RAFT	1	-1	[0, 0, 0]	n/a	FR1	2	R1409D
36.381	1.616	3673373	WORD	n/a	n/a	TEETH	2	-1	[0, 0, 0]	n/a	FR1	2	R1409D
37.997	0.883	3674985	WORD_OFF	n/a	n/a	TEETH	2	-1	[0, 0, 0]	n/a	FR1	2	R1409D
38.88	1.6	3675875	WORD	n/a	n/a	WEB	3	-1	[0, 0, 0]	n/a	FR1	2	R1409D
40.48	0.833	3677476	WORD_OFF	n/a	n/a	WEB	3	-1	[0, 0, 0]	n/a	FR1	2	R1409D
41.313	1.617	3678299	WORD	n/a	n/a	TOWN	4	-1	[0, 0, 0]	n/a	FR1	2	R1409D
42.93	0.783	3679922	WORD_OFF	n/a	n/a	TOWN	4	-1	[0, 0, 0]	n/a	FR1	2	R1409D
43.713	1.617	3680700	WORD	n/a	n/a	EEL	5	-1	[0, 0, 0]	n/a	FR1	2	R1409D
45.33	0.833	3682323	WORD_OFF	n/a	n/a	EEL	5	-1	[0, 0, 0]	n/a	FR1	2	R1409D
46.163	1.617	3683157	WORD	n/a	n/a	GRILL	6	-1	[0, 0, 0]	n/a	FR1	2	R1409D
47.78	0.8	3684769	WORD_OFF	n/a	n/a	GRILL	6	-1	[0, 0, 0]	n/a	FR1	2	R1409D
48.58	1.6	3685570	WORD	n/a	n/a	CRIB	7	-1	[0, 0, 0]	n/a	FR1	2	R1409D
50.18	0.966	3687171	WORD_OFF	n/a	n/a	CRIB	7	-1	[0, 0, 0]	n/a	FR1	2	R1409D
51.146	1.601	3688140	WORD	n/a	n/a	SPHINX	8	-1	[0, 0, 0]	n/a	FR1	2	R1409D
52.747	0.833	3689741	WORD_OFF	n/a	n/a	SPHINX	8	-1	[0, 0, 0]	n/a	FR1	2	R1409D
53.58	1.6	3690575	WORD	n/a	n/a	STORM	9	-1	[0, 0, 0]	n/a	FR1	2	R1409D
55.18	1.001	3692164	WORD_OFF	n/a	n/a	STORM	9	-1	[0, 0, 0]	n/a	FR1	2	R1409D
56.181	1.6	3693168	WORD	n/a	n/a	SUN	10	-1	[0, 0, 0]	n/a	FR1	2	R1409D
57.781	0.966	3694768	WORD_OFF	n/a	n/a	SUN	10	-1	[0, 0, 0]	n/a	FR1	2	R1409D
58.747	1.601	3695738	WORD	n/a	n/a	BOMB	11	-1	[0, 0, 0]	n/a	FR1	2	R1409D
60.348	0.916	3697339	WORD_OFF	n/a	n/a	BOMB	11	-1	[0, 0, 0]	n/a	FR1	2	R1409D
61.264	1.6	3698252	WORD	n/a	n/a	FRUIT	12	-1	[0, 0, 0]	n/a	FR1	2	R1409D
62.864	0.002	3699852	WORD_OFF	n/a	n/a	FRUIT	12	-1	[0, 0, 0]	n/a	FR1	2	R1409D
62.866	0.0	3699852	ENCODING_END	n/a	n/a	n/a	-999	-1	[0, 0, 0]	n/a	FR1	2	R1409D
62.866	0.001	3699855	START	n/a	n/a	n/a	-999	-1	[-999, -999, -999]	n/a	FR1	2	R1409D
62.867	0.0	3699856	PROB	0.0	n/a	n/a	-999	-1	[2, 8, 1]	11	FR1	2	R1409D
62.866	3.748	3699864	DISTRACT_START	n/a	n/a	n/a	-999	-1	[0, 0, 0]	n/a	FR1	2	R1409D
66.614	4.867	3703603	PROB	4.867	n/a	n/a	-999	-1	[6, 7, 4]	17	FR1	2	R1409D
71.481	4.9	3708469	PROB	4.9	n/a	n/a	-999	-1	[2, 7, 7]	16	FR1	2	R1409D
76.381	3.449	3713369	PROB	3.449	n/a	n/a	-999	-1	[3, 1, 7]	11	FR1	2	R1409D
79.83	4.301	3716818	PROB	4.301	n/a	n/a	-999	-1	[7, 6, 2]	15	FR1	2	R1409D
84.131	0.0	3721119	STOP	n/a	n/a	n/a	-999	-1	[-999, -999, -999]	n/a	FR1	2	R1409D
84.131	1.066	3721124	DISTRACT_END	n/a	n/a	n/a	-999	-1	[0, 0, 0]	n/a	FR1	2	R1409D
85.197	2.729	3722184	REC_START	n/a	n/a	n/a	-999	-1	[0, 0, 0]	n/a	FR1	2	R1409D
87.926	13.905	3724914	REC_WORD	13.905	n/a	RAFT	1	-1	[0, 0, 0]	n/a	FR1	2	R1409D
101.831	4.485	3738818	REC_WORD_VV	4.485	n/a	<>	-999	-1	[0, 0, 0]	n/a	FR1	2	R1409D
106.316	0.655	3743303	REC_WORD	0.655	n/a	RAFT	1	-1	[0, 0, 0]	n/a	FR1	2	R1409D
106.971	9.458	3743958	REC_WORD	9.458	n/a	BOAT	-999	-1	[0, 0, 0]	n/a	FR1	2	R1409D
116.429	7.469	3753420	REC_END	n/a	n/a	n/a	-999	-1	[0, 0, 0]	n/a	FR1	2	R1409D
123.898	10.35	3760883	COUNTDOWN_START	n/a	n/a	n/a	-999	1	[0, 0, 0]	n/a	FR1	2	R1409D
134.248	0.0	3771231	COUNTDOWN_END	n/a	n/a	n/a	-999	1	[0, 0, 0]	n/a	FR1	2	R1409D
134.248	2.283	3771231	ENCODING_START	n/a	n/a	n/a	-999	1	[0, 0, 0]	n/a	FR1	2	R1409D
136.531	1.616	3773520	WORD	n/a	wordpools/wordpool_long_EN.txt	GOLD	1	1	[0, 0, 0]	n/a	FR1	2	R1409D
138.147	0.867	3775132	WORD_OFF	n/a	n/a	GOLD	1	1	[0, 0, 0]	n/a	FR1	2	R1409D
139.014	1.617	3776000	WORD	n/a	wordpools/wordpool_long_EN.txt	STOOL	2	1	[0, 0, 0]	n/a	FR1	2	R1409D
140.631	0.932	3777612	WORD_OFF	n/a	n/a	STOOL	2	1	[0, 0, 0]	n/a	FR1	2	R1409D
141.563	1.617	3778547	WORD	n/a	wordpools/wordpool_long_EN.txt	RUG	3	1	[0, 0, 0]	n/a	FR1	2	R1409D
143.18	0.783	3780171	WORD_OFF	n/a	n/a	RUG	3	1	[0, 0, 0]	n/a	FR1	2	R1409D
143.963	1.601	3780948	WORD	n/a	wordpools/wordpool_long_EN.txt	SMOG	4	1	[0, 0, 0]	n/a	FR1	2	R1409D
145.564	0.95	3782549	WORD_OFF	n/a	n/a	SMOG	4	1	[0, 0, 0]	n/a	FR1	2	R1409D
146.514	1.616	3783496	WORD	n/a	wordpools/wordpool_long_EN.txt	SLEEVE	5	1	[0, 0, 0]	n/a	FR1	2	R1409D
148.13	0.85	3785119	WORD_OFF	n/a	n/a	SLEEVE	5	1	[0, 0, 0]	n/a	FR1	2	R1409D
148.98	1.6	3785965	WORD	n/a	wordpools/wordpool_long_EN.txt	FLEA	6	1	[0, 0, 0]	n/a	FR1	2	R1409D
150.58	0.801	3787565	WORD_OFF	n/a	n/a	FLEA	6	1	[0, 0, 0]	n/a	FR1	2	R1409D
151.381	1.6	3788366	WORD	n/a	wordpools/wordpool_long_EN.txt	SEAL	7	1	[0, 0, 0]	n/a	FR1	2	R1409D
152.981	0.9	3789966	WORD_OFF	n/a	n/a	SEAL	7	1	[0, 0, 0]	n/a	FR1	2	R1409D
153.881	1.616	3790868	WORD	n/a	wordpools/wordpool_long_EN.txt	CUP	8	1	[0, 0, 0]	n/a	FR1	2	R1409D
155.497	0.8	3792480	WORD_OFF	n/a	n/a	CUP	8	1	[0, 0, 0]	n/a	FR1	2	R1409D
156.297	1.6	3793281	WORD	n/a	wordpools/wordpool_long_EN.txt	STONE	9	1	[0, 0, 0]	n/a	FR1	2	R1409D
157.897	0.966	3794881	WORD_OFF	n/a	n/a	STONE	9	1	[0, 0, 0]	n/a	FR1	2	R1409D
158.863	1.601	3795851	WORD	n/a	wordpools/wordpool_long_EN.txt	WASP	10	1	[0, 0, 0]	n/a	FR1	2	R1409D
160.464	0.799	3797452	WORD_OFF	n/a	n/a	WASP	10	1	[0, 0, 0]	n/a	FR1	2	R1409D
161.263	1.601	3798252	WORD	n/a	wordpools/wordpool_long_EN.txt	POND	11	1	[0, 0, 0]	n/a	FR1	2	R1409D
162.864	0.9	3799853	WORD_OFF	n/a	n/a	POND	11	1	[0, 0, 0]	n/a	FR1	2	R1409D
163.764	1.617	3800754	WORD	n/a	wordpools/wordpool_long_EN.txt	SEA	12	1	[0, 0, 0]	n/a	FR1	2	R1409D
165.381	0.0	3802365	PROB	0.0	n/a	n/a	-999	1	[3, 4, 4]	11	FR1	2	R1409D
165.381	0.001	3802366	WORD_OFF	n/a	n/a	SEA	12	1	[0, 0, 0]	n/a	FR1	2	R1409D
165.382	0.0	3802366	ENCODING_END	n/a	n/a	n/a	-999	1	[0, 0, 0]	n/a	FR1	2	R1409D
165.382	0.0	3802366	DISTRACT_START	n/a	n/a	n/a	-999	1	[0, 0, 0]	n/a	FR1	2	R1409D
165.382	3.5	3802366	START	n/a	n/a	n/a	-999	1	[-999, -999, -999]	n/a	FR1	2	R1409D
168.882	4.216	3805866	PROB	4.216	n/a	n/a	-999	1	[7, 3, 7]	17	FR1	2	R1409D
173.098	5.85	3810081	PROB	5.85	n/a	n/a	-999	1	[3, 1, 3]	7	FR1	2	R1409D
178.948	7.066	3815931	PROB	7.066	n/a	n/a	-999	1	[3, 2, 8]	13	FR1	2	R1409D
186.014	0.0	3822996	DISTRACT_END	n/a	n/a	n/a	-999	1	[0, 0, 0]	n/a	FR1	2	R1409D
186.014	1.183	3822997	STOP	n/a	n/a	n/a	-999	1	[-999, -999, -999]	n/a	FR1	2	R1409D
187.197	2.15	3824179	REC_START	n/a	n/a	n/a	-999	1	[0, 0, 0]	n/a	FR1	2	R1409D
189.347	3.953	3826330	REC_WORD	3.953	n/a	SEAL	7	1	[0, 0, 0]	n/a	FR1	2	R1409D
193.3	12.181	3830282	REC_WORD_VV	12.181	n/a	<>	-999	1	[0, 0, 0]	n/a	FR1	2	R1409D
205.481	11.036	3842463	REC_WORD	11.036	n/a	WASP	10	1	[0, 0, 0]	n/a	FR1	2	R1409D
216.517	1.903	3853498	REC_WORD	1.903	n/a	STONE	9	1	[0, 0, 0]	n/a	FR1	2	R1409D
218.42	2.077	3855405	REC_END	n/a	n/a	n/a	-999	1	[0, 0, 0]	n/a	FR1	2	R1409D
220.497	10.35	3857479	COUNTDOWN_START	n/a	n/a	n/a	-999	1	[0, 0, 0]	n/a	FR1	2	R1409D
230.847	0.0	3867827	COUNTDOWN_END	n/a	n/a	n/a	-999	1	[0, 0, 0]	n/a	FR1	2	R1409D
230.847	2.067	3867827	ENCODING_START	n/a	n/a	n/a	-999	2	[0, 0, 0]	n/a	FR1	2	R1409D
232.914	1.616	3869890	WORD	n/a	wordpools/wordpool_long_EN.txt	QUAIL	1	2	[0, 0, 0]	n/a	FR1	2	R1409D
234.53	0.816	3871513	WORD_OFF	n/a	n/a	QUAIL	1	2	[0, 0, 0]	n/a	FR1	2	R1409D
235.346	1.601	3872325	WORD	n/a	wordpools/wordpool_long_EN.txt	LOFT	2	2	[0, 0, 0]	n/a	FR1	2	R1409D
236.947	0.767	3873926	WORD_OFF	n/a	n/a	LOFT	2	2	[0, 0, 0]	n/a	FR1	2	R1409D
237.714	1.616	3874692	WORD	n/a	wordpools/wordpool_long_EN.txt	STAKE	3	2	[0, 0, 0]	n/a	FR1	2	R1409D
239.33	0.934	3876316	WORD_OFF	n/a	n/a	STAKE	3	2	[0, 0, 0]	n/a	FR1	2	R1409D
240.264	1.617	3877240	WORD	n/a	wordpools/wordpool_long_EN.txt	COOK	4	2	[0, 0, 0]	n/a	FR1	2	R1409D
241.881	0.916	3878863	WORD_OFF	n/a	n/a	COOK	4	2	[0, 0, 0]	n/a	FR1	2	R1409D
242.797	1.6	3879776	WORD	n/a	wordpools/wordpool_long_EN.txt	COD	5	2	[0, 0, 0]	n/a	FR1	2	R1409D
244.397	0.867	3881377	WORD_OFF	n/a	n/a	COD	5	2	[0, 0, 0]	n/a	FR1	2	R1409D
245.264	1.616	3882245	WORD	n/a	wordpools/wordpool_long_EN.txt	EGG	6	2	[0, 0, 0]	n/a	FR1	2	R1409D
246.88	0.984	3883857	WORD_OFF	n/a	n/a	EGG	6	2	[0, 0, 0]	n/a	FR1	2	R1409D
247.864	1.617	3884849	WORD	n/a	wordpools/wordpool_long_EN.txt	FLEET	7	2	[0, 0, 0]	n/a	FR1	2	R1409D
249.481	0.766	3886461	WORD_OFF	n/a	n/a	FLEET	7	2	[0, 0, 0]	n/a	FR1	2	R1409D
250.247	1.6	3887228	WORD	n/a	wordpools/wordpool_long_EN.txt	SPARK	8	2	[0, 0, 0]	n/a	FR1	2	R1409D
251.847	0.767	3888828	WORD_OFF	n/a	n/a	SPARK	8	2	[0, 0, 0]	n/a	FR1	2	R1409D
252.614	1.6	3889595	WORD	n/a	wordpools/wordpool_long_EN.txt	RAIL	9	2	[0, 0, 0]	n/a	FR1	2	R1409D
254.214	0.767	3891196	WORD_OFF	n/a	n/a	RAIL	9	2	[0, 0, 0]	n/a	FR1	2	R1409D
254.981	1.616	3891962	WORD	n/a	wordpools/wordpool_long_EN.txt	PEARL	10	2	[0, 0, 0]	n/a	FR1	2	R1409D
256.597	0.834	3893574	WORD_OFF	n/a	n/a	PEARL	10	2	[0, 0, 0]	n/a	FR1	2	R1409D
257.431	1.6	3894408	WORD	n/a	wordpools/wordpool_long_EN.txt	HUT	11	2	[0, 0, 0]	n/a	FR1	2	R1409D
259.031	0.866	3896009	WORD_OFF	n/a	n/a	HUT	11	2	[0, 0, 0]	n/a	FR1	2	R1409D
259.897	1.601	3896877	WORD	n/a	wordpools/wordpool_long_EN.txt	BEAST	12	2	[0, 0, 0]	n/a	FR1	2	R1409D
261.498	0.0	3898477	PROB	0.0	n/a	n/a	-999	2	[8, 5, 2]	15	FR1	2	R1409D
261.497	0.002	3898478	WORD_OFF	n/a	n/a	BEAST	12	2	[0, 0, 0]	n/a	FR1	2	R1409D
261.499	0.0	3898478	ENCODING_END	n/a	n/a	n/a	-999	2	[0, 0, 0]	n/a	FR1	2	R1409D
261.499	0.0	3898478	DISTRACT_START	n/a	n/a	n/a	-999	2	[0, 0, 0]	n/a	FR1	2	R1409D
261.499	5.632	3898478	START	n/a	n/a	n/a	-999	2	[-999, -999, -999]	n/a	FR1	2	R1409D
267.131	7.517	3904110	PROB	7.517	n/a	n/a	-999	2	[2, 8, 6]	16	FR1	2	R1409D
274.648	9.683	3911626	PROB	9.683	n/a	n/a	-999	2	[4, 1, 5]	10	FR1	2	R1409D
284.331	0.0	3921305	DISTRACT_END	n/a	n/a	n/a	-999	2	[0, 0, 0]	n/a	FR1	2	R1409D
284.331	1.4	3921309	STOP	n/a	n/a	n/a	-999	2	[-999, -999, -999]	n/a	FR1	2	R1409D
285.731	17.332	3922714	REC_START	n/a	n/a	n/a	-999	2	[0, 0, 0]	n/a	FR1	2	R1409D
303.063	3.83	3940040	REC_WORD	3.83	n/a	WASP	-999	2	[0, 0, 0]	n/a	FR1	2	R1409D
306.893	10.062	3943870	REC_WORD_VV	10.062	n/a	<>	-999	2	[0, 0, 0]	n/a	FR1	2	R1409D
316.955	1.842	3953928	REC_END	n/a	n/a	n/a	-999	2	[0, 0, 0]	n/a	FR1	2	R1409D
318.797	10.351	3955777	COUNTDOWN_START	n/a	n/a	n/a	-999	2	[0, 0, 0]	n/a	FR1	2	R1409D
329.148	0.0	3966125	COUNTDOWN_END	n/a	n/a	n/a	-999	2	[0, 0, 0]	n/a	FR1	2	R1409D
329.148	2.282	3966125	ENCODING_START	n/a	n/a	n/a	-999	3	[0, 0, 0]	n/a	FR1	2	R1409D
331.43	1.601	3968402	WORD	n/a	wordpools/wordpool_long_EN.txt	INN	1	3	[0, 0, 0]	n/a	FR1	2	R1409D
333.031	0.832	3970003	WORD_OFF	n/a	n/a	INN	1	3	[0, 0, 0]	n/a	FR1	2	R1409D
333.863	1.601	3970837	WORD	n/a	wordpools/wordpool_long_EN.txt	ROCK	2	3	[0, 0, 0]	n/a	FR1	2	R1409D
335.464	0.817	3972438	WORD_OFF	n/a	n/a	ROCK	2	3	[0, 0, 0]	n/a	FR1	2	R1409D
336.281	1.6	3973261	WORD	n/a	wordpools/wordpool_long_EN.txt	STEM	3	3	[0, 0, 0]	n/a	FR1	2	R1409D
337.881	0.766	3974862	WORD_OFF	n/a	n/a	STEM	3	3	[0, 0, 0]	n/a	FR1	2	R1409D
338.647	1.6	3975628	WORD	n/a	wordpools/wordpool_long_EN.txt	ROD	4	3	[0, 0, 0]	n/a	FR1	2	R1409D
340.247	0.817	3977218	WORD_OFF	n/a	n/a	ROD	4	3	[0, 0, 0]	n/a	FR1	2	R1409D
341.064	1.6	3978041	WORD	n/a	wordpools/wordpool_long_EN.txt	PLANT	5	3	[0, 0, 0]	n/a	FR1	2	R1409D
342.664	0.8	3979641	WORD_OFF	n/a	n/a	PLANT	5	3	[0, 0, 0]	n/a	FR1	2	R1409D
343.464	1.616	3980442	WORD	n/a	wordpools/wordpool_long_EN.txt	WAVE	6	3	[0, 0, 0]	n/a	FR1	2	R1409D
345.08	0.901	3982054	WORD_OFF	n/a	n/a	WAVE	6	3	[0, 0, 0]	n/a	FR1	2	R1409D
345.981	1.616	3982955	WORD	n/a	wordpools/wordpool_long_EN.txt	SKUNK	7	3	[0, 0, 0]	n/a	FR1	2	R1409D
347.597	0.934	3984567	WORD_OFF	n/a	n/a	SKUNK	7	3	[0, 0, 0]	n/a	FR1	2	R1409D
348.531	1.617	3985503	WORD	n/a	wordpools/wordpool_long_EN.txt	JUDGE	8	3	[0, 0, 0]	n/a	FR1	2	R1409D
350.148	0.85	3987126	WORD_OFF	n/a	n/a	JUDGE	8	3	[0, 0, 0]	n/a	FR1	2	R1409D
350.998	1.599	3987972	WORD	n/a	wordpools/wordpool_long_EN.txt	JET	9	3	[0, 0, 0]	n/a	FR1	2	R1409D
352.597	0.901	3989573	WORD_OFF	n/a	n/a	JET	9	3	[0, 0, 0]	n/a	FR1	2	R1409D
353.498	1.599	3990474	WORD	n/a	wordpools/wordpool_long_EN.txt	BAT	10	3	[0, 0, 0]	n/a	FR1	2	R1409D
355.097	0.801	3992075	WORD_OFF	n/a	n/a	BAT	10	3	[0, 0, 0]	n/a	FR1	2	R1409D
355.898	1.616	3992875	WORD	n/a	wordpools/wordpool_long_EN.txt	CAPE	11	3	[0, 0, 0]	n/a	FR1	2	R1409D
357.514	0.967	3994487	WORD_OFF	n/a	n/a	CAPE	11	3	[0, 0, 0]	n/a	FR1	2	R1409D
358.481	1.6	3995457	WORD	n/a	wordpools/wordpool_long_EN.txt	MAIL	12	3	[0, 0, 0]	n/a	FR1	2	R1409D
360.081	0.001	3997055	PROB	0.001	n/a	n/a	-999	3	[2, 8, 8]	18	FR1	2	R1409D
360.082	0.0	3997056	START	n/a	n/a	n/a	-999	3	[-999, -999, -999]	n/a	FR1	2	R1409D
360.081	0.001	3997058	WORD_OFF	n/a	n/a	MAIL	12	3	[0, 0, 0]	n/a	FR1	2	R1409D
360.082	0.0	3997058	ENCODING_END	n/a	n/a	n/a	-999	3	[0, 0, 0]	n/a	FR1	2	R1409D
360.082	4.532	3997058	DISTRACT_START	n/a	n/a	n/a	-999	3	[0, 0, 0]	n/a	FR1	2	R1409D
364.614	4.951	4001588	PROB	4.951	n/a	n/a	-999	3	[6, 3, 5]	14	FR1	2	R1409D
369.565	4.933	4006538	PROB	4.933	n/a	n/a	-999	3	[7, 8, 7]	23	FR1	2	R1409D
374.498	3.701	4011471	PROB	3.701	n/a	n/a	-999	3	[5, 1, 3]	9	FR1	2	R1409D
378.199	3.815	4015172	PROB	3.815	n/a	n/a	-999	3	[1, 5, 5]	11	FR1	2	R1409D
382.014	0.0	4018983	DISTRACT_END	n/a	n/a	n/a	-999	3	[0, 0, 0]	n/a	FR1	2	R1409D
382.014	1.4	4018987	STOP	n/a	n/a	n/a	-999	3	[-999, -999, -999]	n/a	FR1	2	R1409D
383.414	0.765	4020392	REC_START	n/a	n/a	n/a	-999	3	[0, 0, 0]	n/a	FR1	2	R1409D
384.179	2.069	4021152	REC_WORD	2.069	n/a	MAIL	12	3	[0, 0, 0]	n/a	FR1	2	R1409D
386.248	8.973	4023221	REC_WORD	8.973	n/a	CAPE	11	3	[0, 0, 0]	n/a	FR1	2	R1409D
395.221	1.091	4032193	REC_WORD	1.091	n/a	MAIL	12	3	[0, 0, 0]	n/a	FR1	2	R1409D
396.312	14.238	4033284	REC_WORD	14.238	n/a	CAPE	11	3	[0, 0, 0]	n/a	FR1	2	R1409D
410.55	4.09	4047521	REC_WORD_VV	4.09	n/a	<>	-999	3	[0, 0, 0]	n/a	FR1	2	R1409D
414.64	1.54	4051606	REC_END	n/a	n/a	n/a	-999	3	[0, 0, 0]	n/a	FR1	2	R1409D
416.18	10.35	4053151	COUNTDOWN_START	n/a	n/a	n/a	-999	3	[0, 0, 0]	n/a	FR1	2	R1409D
426.53	0.0	4063499	COUNTDOWN_END	n/a	n/a	n/a	-999	3	[0, 0, 0]	n/a	FR1	2	R1409D
426.53	1.834	4063499	ENCODING_START	n/a	n/a	n/a	-999	4	[0, 0, 0]	n/a	FR1	2	R1409D
428.364	1.617	4065336	WORD	n/a	wordpools/wordpool_long_EN.txt	FLAG	1	4	[0, 0, 0]	n/a	FR1	2	R1409D
429.981	0.766	4066948	WORD_OFF	n/a	n/a	FLAG	1	4	[0, 0, 0]	n/a	FR1	2	R1409D
430.747	1.617	4067715	WORD	n/a	wordpools/wordpool_long_EN.txt	PURSE	2	4	[0, 0, 0]	n/a	FR1	2	R1409D
432.364	0.766	4069338	WORD_OFF	n/a	n/a	PURSE	2	4	[0, 0, 0]	n/a	FR1	2	R1409D
433.13	1.601	4070105	WORD	n/a	wordpools/wordpool_long_EN.txt	BEAN	3	4	[0, 0, 0]	n/a	FR1	2	R1409D
434.731	0.766	4071706	WORD_OFF	n/a	n/a	BEAN	3	4	[0, 0, 0]	n/a	FR1	2	R1409D
435.497	1.6	4072472	WORD	n/a	wordpools/wordpool_long_EN.txt	FOX	4	4	[0, 0, 0]	n/a	FR1	2	R1409D
437.097	0.984	4074073	WORD_OFF	n/a	n/a	FOX	4	4	[0, 0, 0]	n/a	FR1	2	R1409D
438.081	1.617	4075054	WORD	n/a	wordpools/wordpool_long_EN.txt	BROOM	5	4	[0, 0, 0]	n/a	FR1	2	R1409D
439.698	1.0	4076666	WORD_OFF	n/a	n/a	BROOM	5	4	[0, 0, 0]	n/a	FR1	2	R1409D
440.698	1.6	4077669	WORD	n/a	wordpools/wordpool_long_EN.txt	TWIG	6	4	[0, 0, 0]	n/a	FR1	2	R1409D
442.298	0.983	4079270	WORD_OFF	n/a	n/a	TWIG	6	4	[0, 0, 0]	n/a	FR1	2	R1409D
443.281	1.6	4080250	WORD	n/a	wordpools/wordpool_long_EN.txt	CART	7	4	[0, 0, 0]	n/a	FR1	2	R1409D
444.881	0.883	4081851	WORD_OFF	n/a	n/a	CART	7	4	[0, 0, 0]	n/a	FR1	2	R1409D
445.764	1.6	4082730	WORD	n/a	wordpools/wordpool_long_EN.txt	VAULT	8	4	[0, 0, 0]	n/a	FR1	2	R1409D
447.364	0.8	4084331	WORD_OFF	n/a	n/a	VAULT	8	4	[0, 0, 0]	n/a	FR1	2	R1409D
448.164	1.617	4085131	WORD	n/a	wordpools/wordpool_long_EN.txt	BROOK	9	4	[0, 0, 0]	n/a	FR1	2	R1409D
449.781	0.767	4086755	WORD_OFF	n/a	n/a	BROOK	9	4	[0, 0, 0]	n/a	FR1	2	R1409D
450.548	1.616	4087521	WORD	n/a	wordpools/wordpool_long_EN.txt	NEST	10	4	[0, 0, 0]	n/a	FR1	2	R1409D
452.164	0.783	4089133	WORD_OFF	n/a	n/a	NEST	10	4	[0, 0, 0]	n/a	FR1	2	R1409D
452.947	1.601	4089922	WORD	n/a	wordpools/wordpool_long_EN.txt	TOOL	11	4	[0, 0, 0]	n/a	FR1	2	R1409D
454.548	1.0	4091512	WORD_OFF	n/a	n/a	TOOL	11	4	[0, 0, 0]	n/a	FR1	2	R1409D
455.548	1.616	4092515	WORD	n/a	wordpools/wordpool_long_EN.txt	PET	12	4	[0, 0, 0]	n/a	FR1	2	R1409D
457.164	0.002	4094133	PROB	0.002	n/a	n/a	-999	4	[3, 3, 5]	11	FR1	2	R1409D
457.166	0.0	4094135	START	n/a	n/a	n/a	-999	4	[-999, -999, -999]	n/a	FR1	2	R1409D
457.164	0.002	4094138	WORD_OFF	n/a	n/a	PET	12	4	[0, 0, 0]	n/a	FR1	2	R1409D
457.166	0.0	4094138	ENCODING_END	n/a	n/a	n/a	-999	4	[0, 0, 0]	n/a	FR1	2	R1409D
457.166	4.199	4094138	DISTRACT_START	n/a	n/a	n/a	-999	4	[0, 0, 0]	n/a	FR1	2	R1409D
461.365	3.417	4098334	PROB	3.417	n/a	n/a	-999	4	[1, 3, 2]	6	FR1	2	R1409D
464.782	4.715	4101751	PROB	4.715	n/a	n/a	-999	4	[4, 2, 7]	13	FR1	2	R1409D
469.497	4.517	4106465	PROB	4.517	n/a	n/a	-999	4	[5, 8, 1]	14	FR1	2	R1409D
474.014	4.766	4110982	PROB	4.766	n/a	n/a	-999	4	[6, 1, 1]	8	FR1	2	R1409D
478.78	0.0	4115748	DISTRACT_END	n/a	n/a	n/a	-999	4	[0, 0, 0]	n/a	FR1	2	R1409D
478.78	1.284	4115748	STOP	n/a	n/a	n/a	-999	4	[-999, -999, -999]	n/a	FR1	2	R1409D
480.064	2.928	4117033	REC_START	n/a	n/a	n/a	-999	4	[0, 0, 0]	n/a	FR1	2	R1409D
482.992	13.208	4119960	REC_WORD	13.208	n/a	PET	12	4	[0, 0, 0]	n/a	FR1	2	R1409D
496.2	15.102	4133167	REC_WORD	15.102	n/a	VAULT	8	4	[0, 0, 0]	n/a	FR1	2	R1409D
511.302	1.613	4148270	REC_END	n/a	n/a	n/a	-999	4	[0, 0, 0]	n/a	FR1	2	R1409D
512.915	10.35	4149882	COUNTDOWN_START	n/a	n/a	n/a	-999	4	[0, 0, 0]	n/a	FR1	2	R1409D
523.265	0.0	4160230	COUNTDOWN_END	n/a	n/a	n/a	-999	4	[0, 0, 0]	n/a	FR1	2	R1409D
523.265	1.915	4160230	ENCODING_START	n/a	n/a	n/a	-999	5	[0, 0, 0]	n/a	FR1	2	R1409D
525.18	1.601	4162147	WORD	n/a	wordpools/wordpool_long_EN.txt	CHURCH	1	5	[0, 0, 0]	n/a	FR1	2	R1409D
526.781	0.933	4163747	WORD_OFF	n/a	n/a	CHURCH	1	5	[0, 0, 0]	n/a	FR1	2	R1409D
527.714	1.617	4164683	WORD	n/a	wordpools/wordpool_long_EN.txt	GATE	2	5	[0, 0, 0]	n/a	FR1	2	R1409D
529.331	0.917	4166306	WORD_OFF	n/a	n/a	GATE	2	5	[0, 0, 0]	n/a	FR1	2	R1409D
530.248	1.599	4167208	WORD	n/a	wordpools/wordpool_long_EN.txt	SKY	3	5	[0, 0, 0]	n/a	FR1	2	R1409D
531.847	0.984	4168809	WORD_OFF	n/a	n/a	SKY	3	5	[0, 0, 0]	n/a	FR1	2	R1409D
532.831	1.616	4169801	WORD	n/a	wordpools/wordpool_long_EN.txt	DART	4	5	[0, 0, 0]	n/a	FR1	2	R1409D
534.447	1.0	4171413	WORD_OFF	n/a	n/a	DART	4	5	[0, 0, 0]	n/a	FR1	2	R1409D
535.447	1.601	4172416	WORD	n/a	wordpools/wordpool_long_EN.txt	TAIL	5	5	[0, 0, 0]	n/a	FR1	2	R1409D
537.048	0.899	4174017	WORD_OFF	n/a	n/a	TAIL	5	5	[0, 0, 0]	n/a	FR1	2	R1409D
537.947	1.601	4174907	WORD	n/a	wordpools/wordpool_long_EN.txt	BANK	6	5	[0, 0, 0]	n/a	FR1	2	R1409D
539.548	0.833	4176508	WORD_OFF	n/a	n/a	BANK	6	5	[0, 0, 0]	n/a	FR1	2	R1409D
540.381	1.6	4177342	WORD	n/a	wordpools/wordpool_long_EN.txt	THIEF	7	5	[0, 0, 0]	n/a	FR1	2	R1409D
541.981	0.9	4178943	WORD_OFF	n/a	n/a	THIEF	7	5	[0, 0, 0]	n/a	FR1	2	R1409D
542.881	1.6	4179845	WORD	n/a	wordpools/wordpool_long_EN.txt	BRUSH	8	5	[0, 0, 0]	n/a	FR1	2	R1409D
544.481	1.0	4181445	WORD_OFF	n/a	n/a	BRUSH	8	5	[0, 0, 0]	n/a	FR1	2	R1409D
545.481	1.6	4182449	WORD	n/a	wordpools/wordpool_long_EN.txt	GEESE	9	5	[0, 0, 0]	n/a	FR1	2	R1409D
547.081	0.95	4184049	WORD_OFF	n/a	n/a	GEESE	9	5	[0, 0, 0]	n/a	FR1	2	R1409D
548.031	1.617	4184996	WORD	n/a	wordpools/wordpool_long_EN.txt	BEAK	10	5	[0, 0, 0]	n/a	FR1	2	R1409D
549.648	0.848	4186608	WORD_OFF	n/a	n/a	BEAK	10	5	[0, 0, 0]	n/a	FR1	2	R1409D
550.496	1.6	4187465	WORD	n/a	wordpools/wordpool_long_EN.txt	TRENCH	11	5	[0, 0, 0]	n/a	FR1	2	R1409D
552.096	0.918	4189066	WORD_OFF	n/a	n/a	TRENCH	11	5	[0, 0, 0]	n/a	FR1	2	R1409D
553.014	1.601	4189979	WORD	n/a	wordpools/wordpool_long_EN.txt	DITCH	12	5	[0, 0, 0]	n/a	FR1	2	R1409D
554.615	0.0	4191579	START	n/a	n/a	n/a	-999	5	[-999, -999, -999]	n/a	FR1	2	R1409D
554.615	0.0	4191579	PROB	0.0	n/a	n/a	-999	5	[4, 6, 5]	15	FR1	2	R1409D
554.614	0.001	4191580	WORD_OFF	n/a	n/a	DITCH	12	5	[0, 0, 0]	n/a	FR1	2	R1409D
554.615	0.0	4191580	ENCODING_END	n/a	n/a	n/a	-999	5	[0, 0, 0]	n/a	FR1	2	R1409D
554.615	6.549	4191580	DISTRACT_START	n/a	n/a	n/a	-999	5	[0, 0, 0]	n/a	FR1	2	R1409D
561.164	4.25	4198128	PROB	4.25	n/a	n/a	-999	5	[4, 8, 2]	14	FR1	2	R1409D
565.414	3.451	4202378	PROB	3.451	n/a	n/a	-999	5	[3, 4, 4]	11	FR1	2	R1409D
568.865	4.082	4205828	PROB	4.082	n/a	n/a	-999	5	[7, 6, 8]	21	FR1	2	R1409D
572.947	5.0	4209910	PROB	5.0	n/a	n/a	-999	5	[1, 1, 8]	10	FR1	2	R1409D
577.947	0.0	4214910	STOP	n/a	n/a	n/a	-999	5	[-999, -999, -999]	n/a	FR1	2	R1409D
577.947	1.4	4214914	DISTRACT_END	n/a	n/a	n/a	-999	5	[0, 0, 0]	n/a	FR1	2	R1409D
579.347	1.452	4216312	REC_START	n/a	n/a	n/a	-999	5	[0, 0, 0]	n/a	FR1	2	R1409D
580.799	2.396	4217762	REC_WORD	2.396	n/a	TRENCH	11	5	[0, 0, 0]	n/a	FR1	2	R1409D
583.195	3.51	4220158	REC_WORD	3.51	n/a	DITCH	12	5	[0, 0, 0]	n/a	FR1	2	R1409D
586.705	19.944	4223668	REC_WORD_VV	19.944	n/a	<>	-999	5	[0, 0, 0]	n/a	FR1	2	R1409D
606.649	3.914	4243611	REC_WORD	3.914	n/a	BANK	6	5	[0, 0, 0]	n/a	FR1	2	R1409D
610.563	2.069	4247526	REC_END	n/a	n/a	n/a	-999	5	[0, 0, 0]	n/a	FR1	2	R1409D
612.632	10.35	4249589	COUNTDOWN_START	n/a	n/a	n/a	-999	5	[0, 0, 0]	n/a	FR1	2	R1409D
622.982	0.0	4259937	COUNTDOWN_END	n/a	n/a	n/a	-999	5	[0, 0, 0]	n/a	FR1	2	R1409D
622.982	2.016	4259949	ENCODING_START	n/a	n/a	n/a	-999	6	[0, 0, 0]	n/a	FR1	2	R1409D
624.998	1.599	4261955	WORD	n/a	wordpools/wordpool_long_EN.txt	BOOK	1	6	[0, 0, 0]	n/a	FR1	2	R1409D
626.597	0.801	4263556	WORD_OFF	n/a	n/a	BOOK	1	6	[0, 0, 0]	n/a	FR1	2	R1409D
627.398	1.616	4264356	WORD	n/a	wordpools/wordpool_long_EN.txt	SMOKE	2	6	[0, 0, 0]	n/a	FR1	2	R1409D
629.014	0.917	4265980	WORD_OFF	n/a	n/a	SMOKE	2	6	[0, 0, 0]	n/a	FR1	2	R1409D
629.931	1.617	4266893	WORD	n/a	wordpools/wordpool_long_EN.txt	WORM	3	6	[0, 0, 0]	n/a	FR1	2	R1409D
631.548	0.816	4268505	WORD_OFF	n/a	n/a	WORM	3	6	[0, 0, 0]	n/a	FR1	2	R1409D
632.364	1.6	4269328	WORD	n/a	wordpools/wordpool_long_EN.txt	MASK	4	6	[0, 0, 0]	n/a	FR1	2	R1409D
633.964	0.9	4270928	WORD_OFF	n/a	n/a	MASK	4	6	[0, 0, 0]	n/a	FR1	2	R1409D
634.864	1.6	4271830	WORD	n/a	wordpools/wordpool_long_EN.txt	OWL	5	6	[0, 0, 0]	n/a	FR1	2	R1409D
636.464	0.883	4273420	WORD_OFF	n/a	n/a	OWL	5	6	[0, 0, 0]	n/a	FR1	2	R1409D
637.347	1.617	4274310	WORD	n/a	wordpools/wordpool_long_EN.txt	TART	6	6	[0, 0, 0]	n/a	FR1	2	R1409D
638.964	0.834	4275922	WORD_OFF	n/a	n/a	TART	6	6	[0, 0, 0]	n/a	FR1	2	R1409D
639.798	1.616	4276756	WORD	n/a	wordpools/wordpool_long_EN.txt	YACHT	7	6	[0, 0, 0]	n/a	FR1	2	R1409D
641.414	0.999	4278380	WORD_OFF	n/a	n/a	YACHT	7	6	[0, 0, 0]	n/a	FR1	2	R1409D
642.413	1.601	4279372	WORD	n/a	wordpools/wordpool_long_EN.txt	CLOWN	8	6	[0, 0, 0]	n/a	FR1	2	R1409D
644.014	0.784	4280972	WORD_OFF	n/a	n/a	CLOWN	8	6	[0, 0, 0]	n/a	FR1	2	R1409D
644.798	1.616	4281761	WORD	n/a	wordpools/wordpool_long_EN.txt	GIFT	9	6	[0, 0, 0]	n/a	FR1	2	R1409D
646.414	0.917	4283373	WORD_OFF	n/a	n/a	GIFT	9	6	[0, 0, 0]	n/a	FR1	2	R1409D
647.331	1.6	4284286	WORD	n/a	wordpools/wordpool_long_EN.txt	TRAY	10	6	[0, 0, 0]	n/a	FR1	2	R1409D
648.931	0.816	4285887	WORD_OFF	n/a	n/a	TRAY	10	6	[0, 0, 0]	n/a	FR1	2	R1409D
649.747	1.6	4286710	WORD	n/a	wordpools/wordpool_long_EN.txt	ROOT	11	6	[0, 0, 0]	n/a	FR1	2	R1409D
651.347	0.95	4288311	WORD_OFF	n/a	n/a	ROOT	11	6	[0, 0, 0]	n/a	FR1	2	R1409D
652.297	1.618	4289258	WORD	n/a	wordpools/wordpool_long_EN.txt	BOARD	12	6	[0, 0, 0]	n/a	FR1	2	R1409D
653.915	0.001	4290870	WORD_OFF	n/a	n/a	BOARD	12	6	[0, 0, 0]	n/a	FR1	2	R1409D
653.916	0.0	4290875	START	n/a	n/a	n/a	-999	6	[-999, -999, -999]	n/a	FR1	2	R1409D
653.916	0.0	4290875	PROB	0.0	n/a	n/a	-999	6	[6, 1, 7]	14	FR1	2	R1409D
653.916	0.0	4290881	ENCODING_END	n/a	n/a	n/a	-999	6	[0, 0, 0]	n/a	FR1	2	R1409D
653.916	6.831	4290881	DISTRACT_START	n/a	n/a	n/a	-999	6	[0, 0, 0]	n/a	FR1	2	R1409D
660.747	4.25	4297706	PROB	4.25	n/a	n/a	-999	6	[3, 1, 3]	7	FR1	2	R1409D
664.997	3.967	4301956	PROB	3.967	n/a	n/a	-999	6	[1, 5, 8]	14	FR1	2	R1409D
668.964	3.549	4305922	PROB	3.549	n/a	n/a	-999	6	[4, 8, 8]	20	FR1	2	R1409D
672.513	3.767	4309471	PROB	3.767	n/a	n/a	-999	6	[3, 5, 2]	7	FR1	2	R1409D
676.28	0.0	4313235	DISTRACT_END	n/a	n/a	n/a	-999	6	[0, 0, 0]	n/a	FR1	2	R1409D
676.28	1.383	4313238	STOP	n/a	n/a	n/a	-999	6	[-999, -999, -999]	n/a	FR1	2	R1409D
677.663	1.668	4314621	REC_START	n/a	n/a	n/a	-999	6	[0, 0, 0]	n/a	FR1	2	R1409D
679.331	2.162	4316289	REC_WORD	2.162	n/a	ROOT	11	6	[0, 0, 0]	n/a	FR1	2	R1409D
681.493	0.691	4318451	REC_WORD	0.691	n/a	ROOT	11	6	[0, 0, 0]	n/a	FR1	2	R1409D
682.184	10.155	4319142	REC_WORD	10.155	n/a	BOARD	12	6	[0, 0, 0]	n/a	FR1	2	R1409D
692.339	16.543	4329296	REC_WORD	16.543	n/a	TRAY	10	6	[0, 0, 0]	n/a	FR1	2	R1409D
708.882	1.498	4345836	REC_END	n/a	n/a	n/a	-999	6	[0, 0, 0]	n/a	FR1	2	R1409D
710.38	10.352	4347335	COUNTDOWN_START	n/a	n/a	n/a	-999	6	[0, 0, 0]	n/a	FR1	2	R1409D
720.732	0.0	4357683	COUNTDOWN_END	n/a	n/a	n/a	-999	6	[0, 0, 0]	n/a	FR1	2	R1409D
720.732	1.782	4357694	ENCODING_START	n/a	n/a	n/a	-999	7	[0, 0, 0]	n/a	FR1	2	R1409D
722.514	1.6	4359476	WORD	n/a	wordpools/wordpool_long_EN.txt	ARK	1	7	[0, 0, 0]	n/a	FR1	2	R1409D
724.114	0.999	4361065	WORD_OFF	n/a	n/a	ARK	1	7	[0, 0, 0]	n/a	FR1	2	R1409D
725.113	1.601	4362068	WORD	n/a	wordpools/wordpool_long_EN.txt	GLASS	2	7	[0, 0, 0]	n/a	FR1	2	R1409D
726.714	0.967	4363669	WORD_OFF	n/a	n/a	GLASS	2	7	[0, 0, 0]	n/a	FR1	2	R1409D
727.681	1.6	4364638	WORD	n/a	wordpools/wordpool_long_EN.txt	YARD	3	7	[0, 0, 0]	n/a	FR1	2	R1409D
729.281	0.95	4366239	WORD_OFF	n/a	n/a	YARD	3	7	[0, 0, 0]	n/a	FR1	2	R1409D
730.231	1.6	4367186	WORD	n/a	wordpools/wordpool_long_EN.txt	HEDGE	4	7	[0, 0, 0]	n/a	FR1	2	R1409D
731.831	0.982	4368787	WORD_OFF	n/a	n/a	HEDGE	4	7	[0, 0, 0]	n/a	FR1	2	R1409D
732.813	1.601	4369768	WORD	n/a	wordpools/wordpool_long_EN.txt	THRONE	5	7	[0, 0, 0]	n/a	FR1	2	R1409D
734.414	0.866	4371368	WORD_OFF	n/a	n/a	THRONE	5	7	[0, 0, 0]	n/a	FR1	2	R1409D
735.28	1.618	4372236	WORD	n/a	wordpools/wordpool_long_EN.txt	MUD	6	7	[0, 0, 0]	n/a	FR1	2	R1409D
736.898	0.9	4373848	WORD_OFF	n/a	n/a	MUD	6	7	[0, 0, 0]	n/a	FR1	2	R1409D
737.798	1.616	4374750	WORD	n/a	wordpools/wordpool_long_EN.txt	LINT	7	7	[0, 0, 0]	n/a	FR1	2	R1409D
739.414	0.867	4376373	WORD_OFF	n/a	n/a	LINT	7	7	[0, 0, 0]	n/a	FR1	2	R1409D
740.281	1.617	4377241	WORD	n/a	wordpools/wordpool_long_EN.txt	GREASE	8	7	[0, 0, 0]	n/a	FR1	2	R1409D
741.898	0.815	4378853	WORD_OFF	n/a	n/a	GREASE	8	7	[0, 0, 0]	n/a	FR1	2	R1409D
742.713	1.601	4379665	WORD	n/a	wordpools/wordpool_long_EN.txt	TOAD	9	7	[0, 0, 0]	n/a	FR1	2	R1409D
744.314	0.966	4381266	WORD_OFF	n/a	n/a	TOAD	9	7	[0, 0, 0]	n/a	FR1	2	R1409D
745.28	1.601	4382235	WORD	n/a	wordpools/wordpool_long_EN.txt	SCOTCH	10	7	[0, 0, 0]	n/a	FR1	2	R1409D
746.881	0.866	4383836	WORD_OFF	n/a	n/a	SCOTCH	10	7	[0, 0, 0]	n/a	FR1	2	R1409D
747.747	1.617	4384704	WORD	n/a	wordpools/wordpool_long_EN.txt	CONE	11	7	[0, 0, 0]	n/a	FR1	2	R1409D
749.364	0.767	4386316	WORD_OFF	n/a	n/a	CONE	11	7	[0, 0, 0]	n/a	FR1	2	R1409D
750.131	1.616	4387082	WORD	n/a	wordpools/wordpool_long_EN.txt	FLASK	12	7	[0, 0, 0]	n/a	FR1	2	R1409D
751.747	0.001	4388701	PROB	0.001	n/a	n/a	-999	7	[2, 1, 6]	9	FR1	2	R1409D
751.748	0.0	4388702	START	n/a	n/a	n/a	-999	7	[-999, -999, -999]	n/a	FR1	2	R1409D
751.747	0.001	4388706	WORD_OFF	n/a	n/a	FLASK	12	7	[0, 0, 0]	n/a	FR1	2	R1409D
751.748	0.0	4388706	ENCODING_END	n/a	n/a	n/a	-999	7	[0, 0, 0]	n/a	FR1	2	R1409D
751.748	5.199	4388706	DISTRACT_START	n/a	n/a	n/a	-999	7	[0, 0, 0]	n/a	FR1	2	R1409D
756.947	3.734	4393901	PROB	3.734	n/a	n/a	-999	7	[2, 2, 1]	5	FR1	2	R1409D
760.681	4.901	4397635	PROB	4.901	n/a	n/a	-999	7	[1, 7, 6]	14	FR1	2	R1409D
765.582	4.832	4402536	PROB	4.832	n/a	n/a	-999	7	[3, 3, 8]	14	FR1	2	R1409D
770.414	4.733	4407367	PROB	4.733	n/a	n/a	-999	7	[8, 6, 6]	20	FR1	2	R1409D
775.147	0.0	4412097	DISTRACT_END	n/a	n/a	n/a	-999	7	[0, 0, 0]	n/a	FR1	2	R1409D
775.147	1.3	4412100	STOP	n/a	n/a	n/a	-999	7	[-999, -999, -999]	n/a	FR1	2	R1409D
776.447	1.655	4413404	REC_START	n/a	n/a	n/a	-999	7	[0, 0, 0]	n/a	FR1	2	R1409D
778.102	2.312	4415055	REC_WORD	2.312	n/a	SCOTCH	10	7	[0, 0, 0]	n/a	FR1	2	R1409D
780.414	27.252	4417367	REC_WORD	27.252	n/a	FLASK	12	7	[0, 0, 0]	n/a	FR1	2	R1409D
807.666	2.331	4444618	REC_END	n/a	n/a	n/a	-999	7	[0, 0, 0]	n/a	FR1	2	R1409D
809.997	10.351	4446952	COUNTDOWN_START	n/a	n/a	n/a	-999	7	[0, 0, 0]	n/a	FR1	2	R1409D
820.348	0.0	4457300	COUNTDOWN_END	n/a	n/a	n/a	-999	7	[0, 0, 0]	n/a	FR1	2	R1409D
820.348	2.048	4457300	ENCODING_START	n/a	n/a	n/a	-999	8	[0, 0, 0]	n/a	FR1	2	R1409D
822.396	1.602	4459352	WORD	n/a	wordpools/wordpool_long_EN.txt	YARN	1	8	[0, 0, 0]	n/a	FR1	2	R1409D
823.998	0.766	4460953	WORD_OFF	n/a	n/a	YARN	1	8	[0, 0, 0]	n/a	FR1	2	R1409D
824.764	1.617	4461719	WORD	n/a	wordpools/wordpool_long_EN.txt	TIE	2	8	[0, 0, 0]	n/a	FR1	2	R1409D
826.381	0.917	4463331	WORD_OFF	n/a	n/a	TIE	2	8	[0, 0, 0]	n/a	FR1	2	R1409D
827.298	1.6	4464244	WORD	n/a	wordpools/wordpool_long_EN.txt	ZOO	3	8	[0, 0, 0]	n/a	FR1	2	R1409D
828.898	0.949	4465845	WORD_OFF	n/a	n/a	ZOO	3	8	[0, 0, 0]	n/a	FR1	2	R1409D
829.847	1.6	4466803	WORD	n/a	wordpools/wordpool_long_EN.txt	VINE	4	8	[0, 0, 0]	n/a	FR1	2	R1409D
831.447	0.967	4468393	WORD_OFF	n/a	n/a	VINE	4	8	[0, 0, 0]	n/a	FR1	2	R1409D
832.414	1.6	4469362	WORD	n/a	wordpools/wordpool_long_EN.txt	NAIL	5	8	[0, 0, 0]	n/a	FR1	2	R1409D
834.014	0.917	4470963	WORD_OFF	n/a	n/a	NAIL	5	8	[0, 0, 0]	n/a	FR1	2	R1409D
834.931	1.616	4471876	WORD	n/a	wordpools/wordpool_long_EN.txt	CRANE	6	8	[0, 0, 0]	n/a	FR1	2	R1409D
836.547	0.784	4473499	WORD_OFF	n/a	n/a	CRANE	6	8	[0, 0, 0]	n/a	FR1	2	R1409D
837.331	1.599	4474277	WORD	n/a	wordpools/wordpool_long_EN.txt	SWORD	7	8	[0, 0, 0]	n/a	FR1	2	R1409D
838.93	0.917	4475878	WORD_OFF	n/a	n/a	SWORD	7	8	[0, 0, 0]	n/a	FR1	2	R1409D
839.847	1.6	4476802	WORD	n/a	wordpools/wordpool_long_EN.txt	MOP	8	8	[0, 0, 0]	n/a	FR1	2	R1409D
841.447	0.916	4478391	WORD_OFF	n/a	n/a	MOP	8	8	[0, 0, 0]	n/a	FR1	2	R1409D
842.363	1.601	4479316	WORD	n/a	wordpools/wordpool_long_EN.txt	HOLE	9	8	[0, 0, 0]	n/a	FR1	2	R1409D
843.964	0.833	4480917	WORD_OFF	n/a	n/a	HOLE	9	8	[0, 0, 0]	n/a	FR1	2	R1409D
844.797	1.6	4481751	WORD	n/a	wordpools/wordpool_long_EN.txt	PORK	10	8	[0, 0, 0]	n/a	FR1	2	R1409D
846.397	0.767	4483351	WORD_OFF	n/a	n/a	PORK	10	8	[0, 0, 0]	n/a	FR1	2	R1409D
847.164	1.6	4484116	WORD	n/a	wordpools/wordpool_long_EN.txt	DRINK	11	8	[0, 0, 0]	n/a	FR1	2	R1409D
848.764	0.816	4485707	WORD_OFF	n/a	n/a	DRINK	11	8	[0, 0, 0]	n/a	FR1	2	R1409D
849.58	1.616	4486530	WORD	n/a	wordpools/wordpool_long_EN.txt	HILL	12	8	[0, 0, 0]	n/a	FR1	2	R1409D
851.196	0.002	4488142	WORD_OFF	n/a	n/a	HILL	12	8	[0, 0, 0]	n/a	FR1	2	R1409D
851.198	0.0	4488142	ENCODING_END	n/a	n/a	n/a	-999	8	[0, 0, 0]	n/a	FR1	2	R1409D
851.197	0.001	4488146	PROB	0.001	n/a	n/a	-999	8	[7, 7, 7]	21	FR1	2	R1409D
851.198	0.0	4488147	START	n/a	n/a	n/a	-999	8	[-999, -999, -999]	n/a	FR1	2	R1409D
851.198	4.065	4488154	DISTRACT_START	n/a	n/a	n/a	-999	8	[0, 0, 0]	n/a	FR1	2	R1409D
855.263	4.117	4492212	PROB	4.117	n/a	n/a	-999	8	[7, 7, 1]	15	FR1	2	R1409D
859.38	3.9	4496329	PROB	3.9	n/a	n/a	-999	8	[6, 1, 6]	13	FR1	2	R1409D
863.28	5.618	4500229	PROB	5.618	n/a	n/a	-999	8	[7, 5, 3]	15	FR1	2	R1409D
868.898	5.15	4505846	PROB	5.15	n/a	n/a	-999	8	[5, 1, 1]	7	FR1	2	R1409D
874.048	0.0	4510992	DISTRACT_END	n/a	n/a	n/a	-999	8	[0, 0, 0]	n/a	FR1	2	R1409D
874.048	1.25	4510996	STOP	n/a	n/a	n/a	-999	8	[-999, -999, -999]	n/a	FR1	2	R1409D
875.298	1.107	4512243	REC_START	n/a	n/a	n/a	-999	8	[0, 0, 0]	n/a	FR1	2	R1409D
876.405	1.734	4513353	REC_WORD	1.734	n/a	MOP	8	8	[0, 0, 0]	n/a	FR1	2	R1409D
878.139	28.386	4515087	REC_WORD	28.386	n/a	HOLE	9	8	[0, 0, 0]	n/a	FR1	2	R1409D
906.525	1.956	4543469	REC_END	n/a	n/a	n/a	-999	8	[0, 0, 0]	n/a	FR1	2	R1409D
908.481	10.35	4545430	COUNTDOWN_START	n/a	n/a	n/a	-999	8	[0, 0, 0]	n/a	FR1	2	R1409D
918.831	0.0	4555779	COUNTDOWN_END	n/a	n/a	n/a	-999	8	[0, 0, 0]	n/a	FR1	2	R1409D
918.831	2.049	4555779	ENCODING_START	n/a	n/a	n/a	-999	9	[0, 0, 0]	n/a	FR1	2	R1409D
920.88	1.601	4557830	WORD	n/a	wordpools/wordpool_long_EN.txt	BLADE	1	9	[0, 0, 0]	n/a	FR1	2	R1409D
922.481	0.966	4559431	WORD_OFF	n/a	n/a	BLADE	1	9	[0, 0, 0]	n/a	FR1	2	R1409D
923.447	1.617	4560389	WORD	n/a	wordpools/wordpool_long_EN.txt	BAND	2	9	[0, 0, 0]	n/a	FR1	2	R1409D
925.064	0.817	4562012	WORD_OFF	n/a	n/a	BAND	2	9	[0, 0, 0]	n/a	FR1	2	R1409D
925.881	1.6	4562824	WORD	n/a	wordpools/wordpool_long_EN.txt	WAND	3	9	[0, 0, 0]	n/a	FR1	2	R1409D
927.481	0.866	4564425	WORD_OFF	n/a	n/a	WAND	3	9	[0, 0, 0]	n/a	FR1	2	R1409D
928.347	1.617	4565293	WORD	n/a	wordpools/wordpool_long_EN.txt	LAND	4	9	[0, 0, 0]	n/a	FR1	2	R1409D
929.964	0.767	4566905	WORD_OFF	n/a	n/a	LAND	4	9	[0, 0, 0]	n/a	FR1	2	R1409D
930.731	1.616	4567671	WORD	n/a	wordpools/wordpool_long_EN.txt	WIFE	5	9	[0, 0, 0]	n/a	FR1	2	R1409D
932.347	1.0	4569295	WORD_OFF	n/a	n/a	WIFE	5	9	[0, 0, 0]	n/a	FR1	2	R1409D
933.347	1.6	4570287	WORD	n/a	wordpools/wordpool_long_EN.txt	BAG	6	9	[0, 0, 0]	n/a	FR1	2	R1409D
934.947	0.95	4571887	WORD_OFF	n/a	n/a	BAG	6	9	[0, 0, 0]	n/a	FR1	2	R1409D
935.897	1.6	4572846	WORD	n/a	wordpools/wordpool_long_EN.txt	STEAM	7	9	[0, 0, 0]	n/a	FR1	2	R1409D
937.497	0.783	4574446	WORD_OFF	n/a	n/a	STEAM	7	9	[0, 0, 0]	n/a	FR1	2	R1409D
938.28	1.618	4575224	WORD	n/a	wordpools/wordpool_long_EN.txt	SINK	8	9	[0, 0, 0]	n/a	FR1	2	R1409D
939.898	0.882	4576847	WORD_OFF	n/a	n/a	SINK	8	9	[0, 0, 0]	n/a	FR1	2	R1409D
940.78	1.6	4577727	WORD	n/a	wordpools/wordpool_long_EN.txt	SLOPE	9	9	[0, 0, 0]	n/a	FR1	2	R1409D
942.38	0.783	4579327	WORD_OFF	n/a	n/a	SLOPE	9	9	[0, 0, 0]	n/a	FR1	2	R1409D
943.163	1.6	4580105	WORD	n/a	wordpools/wordpool_long_EN.txt	FILM	10	9	[0, 0, 0]	n/a	FR1	2	R1409D
944.763	0.95	4581706	WORD_OFF	n/a	n/a	FILM	10	9	[0, 0, 0]	n/a	FR1	2	R1409D
945.713	1.6	4582653	WORD	n/a	wordpools/wordpool_long_EN.txt	BADGE	11	9	[0, 0, 0]	n/a	FR1	2	R1409D
947.313	0.784	4584254	WORD_OFF	n/a	n/a	BADGE	11	9	[0, 0, 0]	n/a	FR1	2	R1409D
948.097	1.617	4585043	WORD	n/a	wordpools/wordpool_long_EN.txt	SEAT	12	9	[0, 0, 0]	n/a	FR1	2	R1409D
949.714	0.001	4586655	WORD_OFF	n/a	n/a	SEAT	12	9	[0, 0, 0]	n/a	FR1	2	R1409D
949.715	0.0	4586655	ENCODING_END	n/a	n/a	n/a	-999	9	[0, 0, 0]	n/a	FR1	2	R1409D
949.714	0.001	4586658	PROB	0.001	n/a	n/a	-999	9	[5, 1, 6]	12	FR1	2	R1409D
949.715	0.0	4586659	START	n/a	n/a	n/a	-999	9	[-999, -999, -999]	n/a	FR1	2	R1409D
949.715	4.799	4586666	DISTRACT_START	n/a	n/a	n/a	-999	9	[0, 0, 0]	n/a	FR1	2	R1409D
954.514	4.967	4591458	PROB	4.967	n/a	n/a	-999	9	[5, 2, 8]	15	FR1	2	R1409D
959.481	3.583	4596425	PROB	3.583	n/a	n/a	-999	9	[4, 2, 1]	7	FR1	2	R1409D
963.064	11.017	4600008	PROB	11.017	n/a	n/a	-999	9	[5, 7, 8]	20	FR1	2	R1409D
974.081	0.0	4611024	STOP	n/a	n/a	n/a	-999	9	[-999, -999, -999]	n/a	FR1	2	R1409D
974.081	1.35	4611026	DISTRACT_END	n/a	n/a	n/a	-999	9	[0, 0, 0]	n/a	FR1	2	R1409D
975.431	2.712	4612379	REC_START	n/a	n/a	n/a	-999	9	[0, 0, 0]	n/a	FR1	2	R1409D
978.143	4.431	4615086	REC_WORD	4.431	n/a	WIFE	5	9	[0, 0, 0]	n/a	FR1	2	R1409D
982.574	2.929	4619517	REC_WORD_VV	2.929	n/a	<>	-999	9	[0, 0, 0]	n/a	FR1	2	R1409D
985.503	21.139	4622446	REC_WORD	21.139	n/a	BAG	6	9	[0, 0, 0]	n/a	FR1	2	R1409D
1006.642	2.272	4643582	REC_END	n/a	n/a	n/a	-999	9	[0, 0, 0]	n/a	FR1	2	R1409D
1008.914	10.35	4645859	COUNTDOWN_START	n/a	n/a	n/a	-999	9	[0, 0, 0]	n/a	FR1	2	R1409D
1019.264	0.0	4656207	COUNTDOWN_END	n/a	n/a	n/a	-999	9	[0, 0, 0]	n/a	FR1	2	R1409D
1019.264	2.133	4656207	ENCODING_START	n/a	n/a	n/a	-999	10	[0, 0, 0]	n/a	FR1	2	R1409D
1021.397	1.617	4658338	WORD	n/a	wordpools/wordpool_long_EN.txt	CORD	1	10	[0, 0, 0]	n/a	FR1	2	R1409D
1023.014	0.867	4659950	WORD_OFF	n/a	n/a	CORD	1	10	[0, 0, 0]	n/a	FR1	2	R1409D
1023.881	1.599	4660818	WORD	n/a	wordpools/wordpool_long_EN.txt	SAIL	2	10	[0, 0, 0]	n/a	FR1	2	R1409D
1025.48	0.934	4662419	WORD_OFF	n/a	n/a	SAIL	2	10	[0, 0, 0]	n/a	FR1	2	R1409D
1026.414	1.616	4663354	WORD	n/a	wordpools/wordpool_long_EN.txt	SMILE	3	10	[0, 0, 0]	n/a	FR1	2	R1409D
1028.03	0.984	4664966	WORD_OFF	n/a	n/a	SMILE	3	10	[0, 0, 0]	n/a	FR1	2	R1409D
1029.014	1.599	4665958	WORD	n/a	wordpools/wordpool_long_EN.txt	BIRD	4	10	[0, 0, 0]	n/a	FR1	2	R1409D
1030.613	0.784	4667559	WORD_OFF	n/a	n/a	BIRD	4	10	[0, 0, 0]	n/a	FR1	2	R1409D
1031.397	1.6	4668337	WORD	n/a	wordpools/wordpool_long_EN.txt	STREET	5	10	[0, 0, 0]	n/a	FR1	2	R1409D
1032.997	0.766	4669937	WORD_OFF	n/a	n/a	STREET	5	10	[0, 0, 0]	n/a	FR1	2	R1409D
1033.763	1.6	4670704	WORD	n/a	wordpools/wordpool_long_EN.txt	WHEEL	6	10	[0, 0, 0]	n/a	FR1	2	R1409D
1035.363	0.984	4672305	WORD_OFF	n/a	n/a	WHEEL	6	10	[0, 0, 0]	n/a	FR1	2	R1409D
1036.347	1.599	4673285	WORD	n/a	wordpools/wordpool_long_EN.txt	NET	7	10	[0, 0, 0]	n/a	FR1	2	R1409D
1037.946	0.967	4674886	WORD_OFF	n/a	n/a	NET	7	10	[0, 0, 0]	n/a	FR1	2	R1409D
1038.913	1.6	4675856	WORD	n/a	wordpools/wordpool_long_EN.txt	CROSS	8	10	[0, 0, 0]	n/a	FR1	2	R1409D
1040.513	0.85	4677456	WORD_OFF	n/a	n/a	CROSS	8	10	[0, 0, 0]	n/a	FR1	2	R1409D
1041.363	1.602	4678302	WORD	n/a	wordpools/wordpool_long_EN.txt	VASE	9	10	[0, 0, 0]	n/a	FR1	2	R1409D
1042.965	0.898	4679903	WORD_OFF	n/a	n/a	VASE	9	10	[0, 0, 0]	n/a	FR1	2	R1409D
1043.863	1.601	4680804	WORD	n/a	wordpools/wordpool_long_EN.txt	SPONGE	10	10	[0, 0, 0]	n/a	FR1	2	R1409D
1045.464	0.782	4682405	WORD_OFF	n/a	n/a	SPONGE	10	10	[0, 0, 0]	n/a	FR1	2	R1409D
1046.246	1.601	4683183	WORD	n/a	wordpools/wordpool_long_EN.txt	GLOBE	11	10	[0, 0, 0]	n/a	FR1	2	R1409D
1047.847	0.767	4684784	WORD_OFF	n/a	n/a	GLOBE	11	10	[0, 0, 0]	n/a	FR1	2	R1409D
1048.614	1.601	4685550	WORD	n/a	wordpools/wordpool_long_EN.txt	OX	12	10	[0, 0, 0]	n/a	FR1	2	R1409D
1050.215	0.001	4687151	WORD_OFF	n/a	n/a	OX	12	10	[0, 0, 0]	n/a	FR1	2	R1409D
1050.216	0.0	4687151	ENCODING_END	n/a	n/a	n/a	-999	10	[0, 0, 0]	n/a	FR1	2	R1409D
1050.215	0.001	4687154	PROB	0.001	n/a	n/a	-999	10	[8, 2, 1]	11	FR1	2	R1409D
1050.216	0.0	4687155	START	n/a	n/a	n/a	-999	10	[-999, -999, -999]	n/a	FR1	2	R1409D
1050.216	3.833	4687162	DISTRACT_START	n/a	n/a	n/a	-999	10	[0, 0, 0]	n/a	FR1	2	R1409D
1054.049	6.299	4690988	PROB	6.299	n/a	n/a	-999	10	[2, 5, 8]	15	FR1	2	R1409D
1060.348	5.85	4697287	PROB	5.85	n/a	n/a	-999	10	[7, 7, 5]	19	FR1	2	R1409D
1066.198	8.133	4703136	PROB	8.133	n/a	n/a	-999	10	[3, 6, 2]	11	FR1	2	R1409D
1074.331	0.0	4711263	DISTRACT_END	n/a	n/a	n/a	-999	10	[0, 0, 0]	n/a	FR1	2	R1409D
1074.331	1.266	4711269	STOP	n/a	n/a	n/a	-999	10	[-999, -999, -999]	n/a	FR1	2	R1409D
1075.597	1.505	4712537	REC_START	n/a	n/a	n/a	-999	10	[0, 0, 0]	n/a	FR1	2	R1409D
1077.102	1.682	4714040	REC_WORD_VV	1.682	n/a	<>	-999	10	[0, 0, 0]	n/a	FR1	2	R1409D
1078.784	2.592	4715722	REC_WORD	2.592	n/a	OX	12	10	[0, 0, 0]	n/a	FR1	2	R1409D
1081.376	18.068	4718314	REC_WORD	18.068	n/a	NET	7	10	[0, 0, 0]	n/a	FR1	2	R1409D
1099.444	2.597	4736381	REC_WORD_VV	2.597	n/a	<>	-999	10	[0, 0, 0]	n/a	FR1	2	R1409D
1102.041	4.786	4738978	REC_WORD	4.786	n/a	FENCE	-999	10	[0, 0, 0]	n/a	FR1	2	R1409D
1106.827	1.937	4743762	REC_END	n/a	n/a	n/a	-999	10	[0, 0, 0]	n/a	FR1	2	R1409D
1108.764	10.35	4745701	COUNTDOWN_START	n/a	n/a	n/a	-999	10	[0, 0, 0]	n/a	FR1	2	R1409D
1119.114	0.0	4756050	COUNTDOWN_END	n/a	n/a	n/a	-999	10	[0, 0, 0]	n/a	FR1	2	R1409D
1119.114	2.133	4756050	ENCODING_START	n/a	n/a	n/a	-999	11	[0, 0, 0]	n/a	FR1	2	R1409D
1121.247	1.6	4758180	WORD	n/a	wordpools/wordpool_long_EN.txt	LACE	1	11	[0, 0, 0]	n/a	FR1	2	R1409D
1122.847	0.983	4759781	WORD_OFF	n/a	n/a	LACE	1	11	[0, 0, 0]	n/a	FR1	2	R1409D
1123.83	1.616	4760762	WORD	n/a	wordpools/wordpool_long_EN.txt	RAT	2	11	[0, 0, 0]	n/a	FR1	2	R1409D
1125.446	0.834	4762385	WORD_OFF	n/a	n/a	RAT	2	11	[0, 0, 0]	n/a	FR1	2	R1409D
1126.28	1.6	4763219	WORD	n/a	wordpools/wordpool_long_EN.txt	LEAF	3	11	[0, 0, 0]	n/a	FR1	2	R1409D
1127.88	0.917	4764820	WORD_OFF	n/a	n/a	LEAF	3	11	[0, 0, 0]	n/a	FR1	2	R1409D
1128.797	1.6	4765733	WORD	n/a	wordpools/wordpool_long_EN.txt	MAZE	4	11	[0, 0, 0]	n/a	FR1	2	R1409D
1130.397	0.983	4767334	WORD_OFF	n/a	n/a	MAZE	4	11	[0, 0, 0]	n/a	FR1	2	R1409D
1131.38	1.616	4768314	WORD	n/a	wordpools/wordpool_long_EN.txt	FAN	5	11	[0, 0, 0]	n/a	FR1	2	R1409D
1132.996	0.951	4769926	WORD_OFF	n/a	n/a	FAN	5	11	[0, 0, 0]	n/a	FR1	2	R1409D
1133.947	1.616	4770885	WORD	n/a	wordpools/wordpool_long_EN.txt	SEED	6	11	[0, 0, 0]	n/a	FR1	2	R1409D
1135.563	0.967	4772497	WORD_OFF	n/a	n/a	SEED	6	11	[0, 0, 0]	n/a	FR1	2	R1409D
1136.53	1.617	4773466	WORD	n/a	wordpools/wordpool_long_EN.txt	DOG	7	11	[0, 0, 0]	n/a	FR1	2	R1409D
1138.147	0.95	4775078	WORD_OFF	n/a	n/a	DOG	7	11	[0, 0, 0]	n/a	FR1	2	R1409D
1139.097	1.601	4776036	WORD	n/a	wordpools/wordpool_long_EN.txt	SWAMP	8	11	[0, 0, 0]	n/a	FR1	2	R1409D
1140.698	0.883	4777637	WORD_OFF	n/a	n/a	SWAMP	8	11	[0, 0, 0]	n/a	FR1	2	R1409D
1141.581	1.617	4778516	WORD	n/a	wordpools/wordpool_long_EN.txt	STRING	9	11	[0, 0, 0]	n/a	FR1	2	R1409D
1143.198	0.934	4780128	WORD_OFF	n/a	n/a	STRING	9	11	[0, 0, 0]	n/a	FR1	2	R1409D
1144.132	1.614	4781064	WORD	n/a	wordpools/wordpool_long_EN.txt	BATH	10	11	[0, 0, 0]	n/a	FR1	2	R1409D
1145.746	0.901	4782676	WORD_OFF	n/a	n/a	BATH	10	11	[0, 0, 0]	n/a	FR1	2	R1409D
1146.647	1.6	4783578	WORD	n/a	wordpools/wordpool_long_EN.txt	SCARF	11	11	[0, 0, 0]	n/a	FR1	2	R1409D
1148.247	0.849	4785178	WORD_OFF	n/a	n/a	SCARF	11	11	[0, 0, 0]	n/a	FR1	2	R1409D
1149.096	1.602	4786035	WORD	n/a	wordpools/wordpool_long_EN.txt	BARN	12	11	[0, 0, 0]	n/a	FR1	2	R1409D
1150.698	0.001	4787632	PROB	0.001	n/a	n/a	-999	11	[8, 4, 3]	15	FR1	2	R1409D
1150.699	0.0	4787633	START	n/a	n/a	n/a	-999	11	[-999, -999, -999]	n/a	FR1	2	R1409D
1150.697	0.002	4787636	WORD_OFF	n/a	n/a	BARN	12	11	[0, 0, 0]	n/a	FR1	2	R1409D
1150.699	0.0	4787636	ENCODING_END	n/a	n/a	n/a	-999	11	[0, 0, 0]	n/a	FR1	2	R1409D
1150.699	4.865	4787636	DISTRACT_START	n/a	n/a	n/a	-999	11	[0, 0, 0]	n/a	FR1	2	R1409D
1155.564	4.467	4792498	PROB	4.467	n/a	n/a	-999	11	[5, 4, 1]	10	FR1	2	R1409D
1160.031	4.45	4796965	PROB	4.45	n/a	n/a	-999	11	[5, 2, 8]	18	FR1	2	R1409D
1164.481	6.417	4801415	PROB	6.417	n/a	n/a	-999	11	[8, 7, 5]	20	FR1	2	R1409D
1170.898	0.0	4807825	DISTRACT_END	n/a	n/a	n/a	-999	11	[0, 0, 0]	n/a	FR1	2	R1409D
1170.898	1.033	4807831	STOP	n/a	n/a	n/a	-999	11	[-999, -999, -999]	n/a	FR1	2	R1409D
1171.931	2.032	4808862	REC_START	n/a	n/a	n/a	-999	11	[0, 0, 0]	n/a	FR1	2	R1409D
1173.963	2.135	4810896	REC_WORD	2.135	n/a	RAT	2	11	[0, 0, 0]	n/a	FR1	2	R1409D
1176.098	6.875	4813031	REC_WORD	6.875	n/a	MAZE	4	11	[0, 0, 0]	n/a	FR1	2	R1409D
1182.973	6.294	4819906	REC_WORD	6.294	n/a	BARN	12	11	[0, 0, 0]	n/a	FR1	2	R1409D
1189.267	3.542	4826199	REC_WORD	3.542	n/a	RACE	-999	11	[0, 0, 0]	n/a	FR1	2	R1409D
1192.809	2.436	4829741	REC_WORD	2.436	n/a	DOG	7	11	[0, 0, 0]	n/a	FR1	2	R1409D
1195.245	7.909	4832177	REC_WORD	7.909	n/a	HOUSE	-999	11	[0, 0, 0]	n/a	FR1	2	R1409D
1203.154	2.027	4840088	REC_END	n/a	n/a	n/a	-999	11	[0, 0, 0]	n/a	FR1	2	R1409D
1205.181	10.35	4842117	COUNTDOWN_START	n/a	n/a	n/a	-999	11	[0, 0, 0]	n/a	FR1	2	R1409D
1215.531	0.0	4852465	COUNTDOWN_END	n/a	n/a	n/a	-999	11	[0, 0, 0]	n/a	FR1	2	R1409D
1215.531	2.016	4852465	ENCODING_START	n/a	n/a	n/a	-999	12	[0, 0, 0]	n/a	FR1	2	R1409D
1217.547	1.601	4854483	WORD	n/a	wordpools/wordpool_long_EN.txt	GIRL	1	12	[0, 0, 0]	n/a	FR1	2	R1409D
1219.148	0.866	4856073	WORD_OFF	n/a	n/a	GIRL	1	12	[0, 0, 0]	n/a	FR1	2	R1409D
1220.014	1.6	4856941	WORD	n/a	wordpools/wordpool_long_EN.txt	STORE	2	12	[0, 0, 0]	n/a	FR1	2	R1409D
1221.614	0.899	4858541	WORD_OFF	n/a	n/a	STORE	2	12	[0, 0, 0]	n/a	FR1	2	R1409D
1222.513	1.601	4859443	WORD	n/a	wordpools/wordpool_long_EN.txt	PRINCE	3	12	[0, 0, 0]	n/a	FR1	2	R1409D
1224.114	0.966	4861044	WORD_OFF	n/a	n/a	PRINCE	3	12	[0, 0, 0]	n/a	FR1	2	R1409D
1225.08	1.601	4862013	WORD	n/a	wordpools/wordpool_long_EN.txt	GROUND	4	12	[0, 0, 0]	n/a	FR1	2	R1409D
1226.681	0.932	4863614	WORD_OFF	n/a	n/a	GROUND	4	12	[0, 0, 0]	n/a	FR1	2	R1409D
1227.613	1.601	4864538	WORD	n/a	wordpools/wordpool_long_EN.txt	PLAID	5	12	[0, 0, 0]	n/a	FR1	2	R1409D
1229.214	0.933	4866139	WORD_OFF	n/a	n/a	PLAID	5	12	[0, 0, 0]	n/a	FR1	2	R1409D
1230.147	1.616	4867075	WORD	n/a	wordpools/wordpool_long_EN.txt	WING	6	12	[0, 0, 0]	n/a	FR1	2	R1409D
1231.763	0.801	4868698	WORD_OFF	n/a	n/a	WING	6	12	[0, 0, 0]	n/a	FR1	2	R1409D
1232.564	1.617	4869498	WORD	n/a	wordpools/wordpool_long_EN.txt	TOAST	7	12	[0, 0, 0]	n/a	FR1	2	R1409D
1234.181	0.932	4871110	WORD_OFF	n/a	n/a	TOAST	7	12	[0, 0, 0]	n/a	FR1	2	R1409D
1235.113	1.6	4872046	WORD	n/a	wordpools/wordpool_long_EN.txt	BOY	8	12	[0, 0, 0]	n/a	FR1	2	R1409D
1236.713	0.918	4873647	WORD_OFF	n/a	n/a	BOY	8	12	[0, 0, 0]	n/a	FR1	2	R1409D
1237.631	1.6	4874560	WORD	n/a	wordpools/wordpool_long_EN.txt	HOSE	9	12	[0, 0, 0]	n/a	FR1	2	R1409D
1239.231	0.916	4876161	WORD_OFF	n/a	n/a	HOSE	9	12	[0, 0, 0]	n/a	FR1	2	R1409D
1240.147	1.617	4877074	WORD	n/a	wordpools/wordpool_long_EN.txt	MULE	10	12	[0, 0, 0]	n/a	FR1	2	R1409D
1241.764	0.767	4878697	WORD_OFF	n/a	n/a	MULE	10	12	[0, 0, 0]	n/a	FR1	2	R1409D
1242.531	1.617	4879463	WORD	n/a	wordpools/wordpool_long_EN.txt	GUARD	11	12	[0, 0, 0]	n/a	FR1	2	R1409D
1244.148	0.949	4881075	WORD_OFF	n/a	n/a	GUARD	11	12	[0, 0, 0]	n/a	FR1	2	R1409D
1245.097	1.6	4882022	WORD	n/a	wordpools/wordpool_long_EN.txt	SHARK	12	12	[0, 0, 0]	n/a	FR1	2	R1409D
1246.697	0.002	4883623	WORD_OFF	n/a	n/a	SHARK	12	12	[0, 0, 0]	n/a	FR1	2	R1409D
1246.699	0.0	4883623	ENCODING_END	n/a	n/a	n/a	-999	12	[0, 0, 0]	n/a	FR1	2	R1409D
1246.698	0.001	4883627	PROB	0.001	n/a	n/a	-999	12	[2, 8, 4]	14	FR1	2	R1409D
1246.699	0.0	4883628	START	n/a	n/a	n/a	-999	12	[-999, -999, -999]	n/a	FR1	2	R1409D
1246.699	4.649	4883634	DISTRACT_START	n/a	n/a	n/a	-999	12	[0, 0, 0]	n/a	FR1	2	R1409D
1251.348	4.799	4888277	PROB	4.799	n/a	n/a	-999	12	[6, 7, 6]	19	FR1	2	R1409D
1256.147	3.718	4893076	PROB	3.718	n/a	n/a	-999	12	[5, 1, 2]	8	FR1	2	R1409D
1259.865	5.683	4896794	PROB	5.683	n/a	n/a	-999	12	[3, 5, 7]	15	FR1	2	R1409D
1265.548	4.798	4902476	PROB	4.798	n/a	n/a	-999	12	[3, 5, 4]	12	FR1	2	R1409D
1270.346	0.0	4907273	DISTRACT_END	n/a	n/a	n/a	-999	12	[0, 0, 0]	n/a	FR1	2	R1409D
1270.346	1.151	4907274	STOP	n/a	n/a	n/a	-999	12	[-999, -999, -999]	n/a	FR1	2	R1409D
1271.497	2.223	4908423	REC_START	n/a	n/a	n/a	-999	12	[0, 0, 0]	n/a	FR1	2	R1409D
1273.72	4.29	4910648	REC_WORD	4.29	n/a	SHARK	12	12	[0, 0, 0]	n/a	FR1	2	R1409D
1278.01	5.67	4914938	REC_WORD	5.67	n/a	PRINCE	3	12	[0, 0, 0]	n/a	FR1	2	R1409D
1283.68	19.046	4920608	REC_WORD	19.046	n/a	FOOL	-999	12	[0, 0, 0]	n/a	FR1	2	R1409D
1302.726	0.0	4939649	REC_END	n/a	n/a	n/a	-999	12	[0, 0, 0]	n/a	FR1	2	R1409D
