onset	duration	sample	trial_type	response_time	stim_file	item_name	serialpos	list	test	answer	experiment	session	subject
0.0	0.0	7297	INSTRUCT_START	n/a	n/a	n/a	-999	-999	[0, 0, 0]	n/a	FR1	2	R1217T
0.0	11.0	7297	INSTRUCT_END	n/a	n/a	n/a	-999	-999	[0, 0, 0]	n/a	FR1	2	R1217T
11.0	0.0	18297	SESS_START	n/a	n/a	n/a	-999	-999	[0, 0, 0]	n/a	FR1	2	R1217T
11.0	18.0	18297	MIC_TEST	n/a	n/a	n/a	-999	-999	[0, 0, 0]	n/a	FR1	2	R1217T
29.0	1.539	36296	PRACTICE_TRIAL	n/a	n/a	n/a	-999	-1	[0, 0, 0]	n/a	FR1	2	R1217T
30.539	10.428	37835	COUNTDOWN_START	n/a	n/a	n/a	-999	-1	[0, 0, 0]	n/a	FR1	2	R1217T
40.967	0.007	48262	COUNTDOWN_END	n/a	n/a	n/a	-999	-1	[0, 0, 0]	n/a	FR1	2	R1217T
40.974	1.616	48269	PRACTICE_ORIENT	n/a	n/a	n/a	-999	-1	[0, 0, 0]	n/a	FR1	2	R1217T
42.59	2.017	49885	PRACTICE_ORIENT_OFF	n/a	n/a	n/a	-999	-1	[0, 0, 0]	n/a	FR1	2	R1217T
44.607	1.618	51902	PRACTICE_WORD	n/a	n/a	RHINO	1	-1	[0, 0, 0]	n/a	FR1	2	R1217T
46.225	0.8	53520	PRACTICE_WORD_OFF	n/a	n/a	RHINO	-999	-1	[0, 0, 0]	n/a	FR1	2	R1217T
47.025	1.616	54320	PRACTICE_WORD	n/a	n/a	BEAM	2	-1	[0, 0, 0]	n/a	FR1	2	R1217T
48.641	0.817	55936	PRACTICE_WORD_OFF	n/a	n/a	BEAM	-999	-1	[0, 0, 0]	n/a	FR1	2	R1217T
49.458	1.618	56752	PRACTICE_WORD	n/a	n/a	COTTON	3	-1	[0, 0, 0]	n/a	FR1	2	R1217T
51.076	0.95	58370	PRACTICE_WORD_OFF	n/a	n/a	COTTON	-999	-1	[0, 0, 0]	n/a	FR1	2	R1217T
52.026	1.616	59320	PRACTICE_WORD	n/a	n/a	WATCH	4	-1	[0, 0, 0]	n/a	FR1	2	R1217T
53.642	0.983	60936	PRACTICE_WORD_OFF	n/a	n/a	WATCH	-999	-1	[0, 0, 0]	n/a	FR1	2	R1217T
54.625	1.602	61919	PRACTICE_WORD	n/a	n/a	CHEST	5	-1	[0, 0, 0]	n/a	FR1	2	R1217T
56.227	0.833	63521	PRACTICE_WORD_OFF	n/a	n/a	CHEST	-999	-1	[0, 0, 0]	n/a	FR1	2	R1217T
57.06	1.616	64354	PRACTICE_WORD	n/a	n/a	RING	6	-1	[0, 0, 0]	n/a	FR1	2	R1217T
58.676	0.784	65970	PRACTICE_WORD_OFF	n/a	n/a	RING	-999	-1	[0, 0, 0]	n/a	FR1	2	R1217T
59.46	1.617	66754	PRACTICE_WORD	n/a	n/a	ATTIC	7	-1	[0, 0, 0]	n/a	FR1	2	R1217T
61.077	0.766	68371	PRACTICE_WORD_OFF	n/a	n/a	ATTIC	-999	-1	[0, 0, 0]	n/a	FR1	2	R1217T
61.843	1.617	69137	PRACTICE_WORD	n/a	n/a	TONGUE	8	-1	[0, 0, 0]	n/a	FR1	2	R1217T
63.46	0.835	70754	PRACTICE_WORD_OFF	n/a	n/a	TONGUE	-999	-1	[0, 0, 0]	n/a	FR1	2	R1217T
64.295	1.616	71589	PRACTICE_WORD	n/a	n/a	CAMEL	9	-1	[0, 0, 0]	n/a	FR1	2	R1217T
65.911	0.85	73205	PRACTICE_WORD_OFF	n/a	n/a	CAMEL	-999	-1	[0, 0, 0]	n/a	FR1	2	R1217T
66.761	1.601	74054	PRACTICE_WORD	n/a	n/a	WAGON	10	-1	[0, 0, 0]	n/a	FR1	2	R1217T
68.362	0.85	75655	PRACTICE_WORD_OFF	n/a	n/a	WAGON	-999	-1	[0, 0, 0]	n/a	FR1	2	R1217T
69.212	1.616	76505	PRACTICE_WORD	n/a	n/a	IRON	11	-1	[0, 0, 0]	n/a	FR1	2	R1217T
70.828	0.784	78121	PRACTICE_WORD_OFF	n/a	n/a	IRON	-999	-1	[0, 0, 0]	n/a	FR1	2	R1217T
71.612	1.618	78905	PRACTICE_WORD	n/a	n/a	FLOOD	12	-1	[0, 0, 0]	n/a	FR1	2	R1217T
73.23	0.0	80523	PRACTICE_WORD_OFF	n/a	n/a	FLOOD	-999	-1	[0, 0, 0]	n/a	FR1	2	R1217T
73.23	0.0	80523	DISTRACT_START	n/a	n/a	n/a	-999	-1	[0, 0, 0]	n/a	FR1	2	R1217T
73.23	0.016	80523	START	n/a	n/a	n/a	-999	-1	[-999, -999, -999]	n/a	FR1	2	R1217T
73.246	5.5	80539	PROB	5.5	n/a	n/a	-999	-1	[1, 5, 7]	13	FR1	2	R1217T
78.746	3.118	86039	PROB	3.118	n/a	n/a	-999	-1	[9, 1, 4]	14	FR1	2	R1217T
81.864	3.501	89157	PROB	3.501	n/a	n/a	-999	-1	[5, 2, 9]	16	FR1	2	R1217T
85.365	3.5	92657	PROB	3.5	n/a	n/a	-999	-1	[2, 9, 9]	20	FR1	2	R1217T
88.865	4.393	96157	PROB	4.393	n/a	n/a	-999	-1	[8, 6, 1]	15	FR1	2	R1217T
93.258	0.009	100550	STOP	n/a	n/a	n/a	-999	-1	[-999, -999, -999]	n/a	FR1	2	R1217T
93.267	0.666	100559	DISTRACT_END	n/a	n/a	n/a	-999	-1	[0, 0, 0]	n/a	FR1	2	R1217T
93.933	0.52	101225	RETRIEVAL_ORIENT	n/a	n/a	n/a	-999	-1	[0, 0, 0]	n/a	FR1	2	R1217T
94.453	30.008	101745	PRACTICE_REC_START	n/a	n/a	n/a	-999	-1	[0, 0, 0]	n/a	FR1	2	R1217T
124.461	13.446	131751	PRACTICE_REC_END	n/a	n/a	n/a	-999	-1	[0, 0, 0]	n/a	FR1	2	R1217T
137.907	0.5	145196	TRIAL	n/a	n/a	n/a	-999	1	[0, 0, 0]	n/a	FR1	2	R1217T
138.407	10.428	145696	COUNTDOWN_START	n/a	n/a	n/a	-999	1	[0, 0, 0]	n/a	FR1	2	R1217T
148.835	0.007	156124	COUNTDOWN_END	n/a	n/a	n/a	-999	1	[0, 0, 0]	n/a	FR1	2	R1217T
148.842	1.617	156131	ORIENT	n/a	n/a	n/a	-999	1	[0, 0, 0]	n/a	FR1	2	R1217T
150.459	2.067	157747	ORIENT_OFF	n/a	n/a	n/a	-999	1	[0, 0, 0]	n/a	FR1	2	R1217T
152.526	1.601	159814	WORD	n/a	wordpools/wordpool_EN.txt	SLEEVE	1	1	[0, 0, 0]	n/a	FR1	2	R1217T
154.127	0.984	161415	WORD_OFF	n/a	n/a	SLEEVE	1	1	[0, 0, 0]	n/a	FR1	2	R1217T
155.111	1.616	162399	WORD	n/a	wordpools/wordpool_EN.txt	LOCK	2	1	[0, 0, 0]	n/a	FR1	2	R1217T
156.727	0.767	164015	WORD_OFF	n/a	n/a	LOCK	2	1	[0, 0, 0]	n/a	FR1	2	R1217T
157.494	1.618	164782	WORD	n/a	wordpools/wordpool_EN.txt	WAND	3	1	[0, 0, 0]	n/a	FR1	2	R1217T
159.112	0.867	166400	WORD_OFF	n/a	n/a	WAND	3	1	[0, 0, 0]	n/a	FR1	2	R1217T
159.979	1.616	167267	WORD	n/a	wordpools/wordpool_EN.txt	SEAT	4	1	[0, 0, 0]	n/a	FR1	2	R1217T
161.595	0.784	168883	WORD_OFF	n/a	n/a	SEAT	4	1	[0, 0, 0]	n/a	FR1	2	R1217T
162.379	1.617	169667	WORD	n/a	wordpools/wordpool_EN.txt	JUICE	5	1	[0, 0, 0]	n/a	FR1	2	R1217T
163.996	0.933	171284	WORD_OFF	n/a	n/a	JUICE	5	1	[0, 0, 0]	n/a	FR1	2	R1217T
164.929	1.617	172217	WORD	n/a	wordpools/wordpool_EN.txt	EAR	6	1	[0, 0, 0]	n/a	FR1	2	R1217T
166.546	0.801	173833	WORD_OFF	n/a	n/a	EAR	6	1	[0, 0, 0]	n/a	FR1	2	R1217T
167.347	1.616	174634	WORD	n/a	wordpools/wordpool_EN.txt	GRAPE	7	1	[0, 0, 0]	n/a	FR1	2	R1217T
168.963	1.0	176250	WORD_OFF	n/a	n/a	GRAPE	7	1	[0, 0, 0]	n/a	FR1	2	R1217T
169.963	1.617	177250	WORD	n/a	wordpools/wordpool_EN.txt	FARM	8	1	[0, 0, 0]	n/a	FR1	2	R1217T
171.58	0.818	178867	WORD_OFF	n/a	n/a	FARM	8	1	[0, 0, 0]	n/a	FR1	2	R1217T
172.398	1.617	179685	WORD	n/a	wordpools/wordpool_EN.txt	CAVE	9	1	[0, 0, 0]	n/a	FR1	2	R1217T
174.015	0.782	181302	WORD_OFF	n/a	n/a	CAVE	9	1	[0, 0, 0]	n/a	FR1	2	R1217T
174.797	1.618	182084	WORD	n/a	wordpools/wordpool_EN.txt	COUCH	10	1	[0, 0, 0]	n/a	FR1	2	R1217T
176.415	1.016	183702	WORD_OFF	n/a	n/a	COUCH	10	1	[0, 0, 0]	n/a	FR1	2	R1217T
177.431	1.601	184718	WORD	n/a	wordpools/wordpool_EN.txt	CORN	11	1	[0, 0, 0]	n/a	FR1	2	R1217T
179.032	0.984	186319	WORD_OFF	n/a	n/a	CORN	11	1	[0, 0, 0]	n/a	FR1	2	R1217T
180.016	1.616	187303	WORD	n/a	wordpools/wordpool_EN.txt	CRANE	12	1	[0, 0, 0]	n/a	FR1	2	R1217T
181.632	0.0	188919	WORD_OFF	n/a	n/a	CRANE	12	1	[0, 0, 0]	n/a	FR1	2	R1217T
181.632	0.0	188919	DISTRACT_START	n/a	n/a	n/a	-999	1	[0, 0, 0]	n/a	FR1	2	R1217T
181.632	0.016	188919	START	n/a	n/a	n/a	-999	1	[-999, -999, -999]	n/a	FR1	2	R1217T
181.648	23.761	188935	PROB	23.761	n/a	n/a	-999	1	[4, 7, 8]	19	FR1	2	R1217T
205.409	0.01	212694	STOP	n/a	n/a	n/a	-999	1	[-999, -999, -999]	n/a	FR1	2	R1217T
205.419	0.551	212704	DISTRACT_END	n/a	n/a	n/a	-999	1	[0, 0, 0]	n/a	FR1	2	R1217T
205.97	0.518	213255	RETRIEVAL_ORIENT	n/a	n/a	n/a	-999	1	[0, 0, 0]	n/a	FR1	2	R1217T
206.488	1.443	213773	REC_START	n/a	n/a	n/a	-999	1	[0, 0, 0]	n/a	FR1	2	R1217T
207.931	1.008	215216	REC_WORD	1.008	n/a	LOCK	2	1	[0, 0, 0]	n/a	FR1	2	R1217T
208.939	1.332	216224	REC_WORD	1.332	n/a	WAND	3	1	[0, 0, 0]	n/a	FR1	2	R1217T
210.271	1.608	217556	REC_WORD	1.608	n/a	GRAPE	7	1	[0, 0, 0]	n/a	FR1	2	R1217T
211.879	2.422	219164	REC_WORD	2.422	n/a	CORN	11	1	[0, 0, 0]	n/a	FR1	2	R1217T
214.301	22.197	221586	REC_WORD	22.197	n/a	ANGLE	-999	1	[0, 0, 0]	n/a	FR1	2	R1217T
236.498	10.63	243781	REC_END	n/a	n/a	n/a	-999	1	[0, 0, 0]	n/a	FR1	2	R1217T
247.128	0.5	254411	TRIAL	n/a	n/a	n/a	-999	2	[0, 0, 0]	n/a	FR1	2	R1217T
247.628	10.428	254911	COUNTDOWN_START	n/a	n/a	n/a	-999	2	[0, 0, 0]	n/a	FR1	2	R1217T
258.056	0.007	265338	COUNTDOWN_END	n/a	n/a	n/a	-999	2	[0, 0, 0]	n/a	FR1	2	R1217T
258.063	1.616	265345	ORIENT	n/a	n/a	n/a	-999	2	[0, 0, 0]	n/a	FR1	2	R1217T
259.679	2.1	266961	ORIENT_OFF	n/a	n/a	n/a	-999	2	[0, 0, 0]	n/a	FR1	2	R1217T
261.779	1.618	269061	WORD	n/a	wordpools/wordpool_EN.txt	NAIL	1	2	[0, 0, 0]	n/a	FR1	2	R1217T
263.397	0.851	270679	WORD_OFF	n/a	n/a	NAIL	1	2	[0, 0, 0]	n/a	FR1	2	R1217T
264.248	1.616	271530	WORD	n/a	wordpools/wordpool_EN.txt	SPRING	2	2	[0, 0, 0]	n/a	FR1	2	R1217T
265.864	0.816	273145	WORD_OFF	n/a	n/a	SPRING	2	2	[0, 0, 0]	n/a	FR1	2	R1217T
266.68	1.618	273961	WORD	n/a	wordpools/wordpool_EN.txt	TIE	3	2	[0, 0, 0]	n/a	FR1	2	R1217T
268.298	0.984	275579	WORD_OFF	n/a	n/a	TIE	3	2	[0, 0, 0]	n/a	FR1	2	R1217T
269.282	1.616	276563	WORD	n/a	wordpools/wordpool_EN.txt	CANE	4	2	[0, 0, 0]	n/a	FR1	2	R1217T
270.898	0.817	278179	WORD_OFF	n/a	n/a	CANE	4	2	[0, 0, 0]	n/a	FR1	2	R1217T
271.715	1.618	278996	WORD	n/a	wordpools/wordpool_EN.txt	THREAD	5	2	[0, 0, 0]	n/a	FR1	2	R1217T
273.333	0.85	280614	WORD_OFF	n/a	n/a	THREAD	5	2	[0, 0, 0]	n/a	FR1	2	R1217T
274.183	1.616	281464	WORD	n/a	wordpools/wordpool_EN.txt	STICK	6	2	[0, 0, 0]	n/a	FR1	2	R1217T
275.799	0.917	283080	WORD_OFF	n/a	n/a	STICK	6	2	[0, 0, 0]	n/a	FR1	2	R1217T
276.716	1.618	283997	WORD	n/a	wordpools/wordpool_EN.txt	BARN	7	2	[0, 0, 0]	n/a	FR1	2	R1217T
278.334	0.9	285615	WORD_OFF	n/a	n/a	BARN	7	2	[0, 0, 0]	n/a	FR1	2	R1217T
279.234	1.616	286515	WORD	n/a	wordpools/wordpool_EN.txt	BEAN	8	2	[0, 0, 0]	n/a	FR1	2	R1217T
280.85	0.9	288131	WORD_OFF	n/a	n/a	BEAN	8	2	[0, 0, 0]	n/a	FR1	2	R1217T
281.75	1.618	289030	WORD	n/a	wordpools/wordpool_EN.txt	CAKE	9	2	[0, 0, 0]	n/a	FR1	2	R1217T
283.368	0.817	290648	WORD_OFF	n/a	n/a	CAKE	9	2	[0, 0, 0]	n/a	FR1	2	R1217T
284.185	1.616	291465	WORD	n/a	wordpools/wordpool_EN.txt	SPOON	10	2	[0, 0, 0]	n/a	FR1	2	R1217T
285.801	1.016	293081	WORD_OFF	n/a	n/a	SPOON	10	2	[0, 0, 0]	n/a	FR1	2	R1217T
286.817	1.617	294097	WORD	n/a	wordpools/wordpool_EN.txt	MAT	11	2	[0, 0, 0]	n/a	FR1	2	R1217T
288.434	0.935	295714	WORD_OFF	n/a	n/a	MAT	11	2	[0, 0, 0]	n/a	FR1	2	R1217T
289.369	1.617	296649	WORD	n/a	wordpools/wordpool_EN.txt	DART	12	2	[0, 0, 0]	n/a	FR1	2	R1217T
290.986	0.0	298266	DISTRACT_START	n/a	n/a	n/a	-999	2	[0, 0, 0]	n/a	FR1	2	R1217T
290.986	0.0	298266	WORD_OFF	n/a	n/a	DART	12	2	[0, 0, 0]	n/a	FR1	2	R1217T
290.986	0.017	298266	START	n/a	n/a	n/a	-999	2	[-999, -999, -999]	n/a	FR1	2	R1217T
291.003	5.716	298283	PROB	5.716	n/a	n/a	-999	2	[6, 9, 7]	22	FR1	2	R1217T
296.719	4.435	303999	PROB	4.435	n/a	n/a	-999	2	[1, 5, 7]	13	FR1	2	R1217T
301.154	2.251	308433	PROB	2.251	n/a	n/a	-999	2	[2, 2, 1]	5	FR1	2	R1217T
303.405	2.667	310684	PROB	2.667	n/a	n/a	-999	2	[3, 7, 3]	13	FR1	2	R1217T
306.072	4.167	313351	PROB	4.167	n/a	n/a	-999	2	[7, 9, 5]	21	FR1	2	R1217T
310.239	7.978	317518	PROB	7.978	n/a	n/a	-999	2	[8, 5, 4]	16	FR1	2	R1217T
318.217	0.007	325495	STOP	n/a	n/a	n/a	-999	2	[-999, -999, -999]	n/a	FR1	2	R1217T
318.224	0.699	325502	DISTRACT_END	n/a	n/a	n/a	-999	2	[0, 0, 0]	n/a	FR1	2	R1217T
318.923	0.518	326201	RETRIEVAL_ORIENT	n/a	n/a	n/a	-999	2	[0, 0, 0]	n/a	FR1	2	R1217T
319.441	1.349	326719	REC_START	n/a	n/a	n/a	-999	2	[0, 0, 0]	n/a	FR1	2	R1217T
320.79	1.895	328068	REC_WORD	1.895	n/a	SPRING	2	2	[0, 0, 0]	n/a	FR1	2	R1217T
322.685	1.574	329963	REC_WORD	1.574	n/a	TIE	3	2	[0, 0, 0]	n/a	FR1	2	R1217T
324.259	1.493	331537	REC_WORD	1.493	n/a	CANE	4	2	[0, 0, 0]	n/a	FR1	2	R1217T
325.752	5.304	333030	REC_WORD	5.304	n/a	GRAPE	-999	2	[0, 0, 0]	n/a	FR1	2	R1217T
331.056	3.597	338334	REC_WORD	3.597	n/a	CORN	-999	2	[0, 0, 0]	n/a	FR1	2	R1217T
334.653	14.798	341930	REC_WORD	14.798	n/a	CAMEL	-999	2	[0, 0, 0]	n/a	FR1	2	R1217T
349.451	13.38	356727	REC_END	n/a	n/a	n/a	-999	2	[0, 0, 0]	n/a	FR1	2	R1217T
362.831	0.5	370107	TRIAL	n/a	n/a	n/a	-999	3	[0, 0, 0]	n/a	FR1	2	R1217T
363.331	10.428	370607	COUNTDOWN_START	n/a	n/a	n/a	-999	3	[0, 0, 0]	n/a	FR1	2	R1217T
373.759	0.007	381034	COUNTDOWN_END	n/a	n/a	n/a	-999	3	[0, 0, 0]	n/a	FR1	2	R1217T
373.766	1.618	381041	ORIENT	n/a	n/a	n/a	-999	3	[0, 0, 0]	n/a	FR1	2	R1217T
375.384	2.267	382659	ORIENT_OFF	n/a	n/a	n/a	-999	3	[0, 0, 0]	n/a	FR1	2	R1217T
377.651	1.617	384926	WORD	n/a	wordpools/wordpool_EN.txt	WEB	1	3	[0, 0, 0]	n/a	FR1	2	R1217T
379.268	0.984	386543	WORD_OFF	n/a	n/a	WEB	1	3	[0, 0, 0]	n/a	FR1	2	R1217T
380.252	1.616	387527	WORD	n/a	wordpools/wordpool_EN.txt	POND	2	3	[0, 0, 0]	n/a	FR1	2	R1217T
381.868	0.767	389142	WORD_OFF	n/a	n/a	POND	2	3	[0, 0, 0]	n/a	FR1	2	R1217T
382.635	1.618	389909	WORD	n/a	wordpools/wordpool_EN.txt	VAN	3	3	[0, 0, 0]	n/a	FR1	2	R1217T
384.253	1.0	391527	WORD_OFF	n/a	n/a	VAN	3	3	[0, 0, 0]	n/a	FR1	2	R1217T
385.253	1.616	392527	WORD	n/a	wordpools/wordpool_EN.txt	STAIR	4	3	[0, 0, 0]	n/a	FR1	2	R1217T
386.869	0.8	394143	WORD_OFF	n/a	n/a	STAIR	4	3	[0, 0, 0]	n/a	FR1	2	R1217T
387.669	1.618	394943	WORD	n/a	wordpools/wordpool_EN.txt	TOY	5	3	[0, 0, 0]	n/a	FR1	2	R1217T
389.287	1.017	396561	WORD_OFF	n/a	n/a	TOY	5	3	[0, 0, 0]	n/a	FR1	2	R1217T
390.304	1.616	397578	WORD	n/a	wordpools/wordpool_EN.txt	YARD	6	3	[0, 0, 0]	n/a	FR1	2	R1217T
391.92	0.917	399194	WORD_OFF	n/a	n/a	YARD	6	3	[0, 0, 0]	n/a	FR1	2	R1217T
392.837	1.617	400111	WORD	n/a	wordpools/wordpool_EN.txt	BANK	7	3	[0, 0, 0]	n/a	FR1	2	R1217T
394.454	0.901	401728	WORD_OFF	n/a	n/a	BANK	7	3	[0, 0, 0]	n/a	FR1	2	R1217T
395.355	1.617	402629	WORD	n/a	wordpools/wordpool_EN.txt	JAR	8	3	[0, 0, 0]	n/a	FR1	2	R1217T
396.972	1.0	404246	WORD_OFF	n/a	n/a	JAR	8	3	[0, 0, 0]	n/a	FR1	2	R1217T
397.972	1.616	405245	WORD	n/a	wordpools/wordpool_EN.txt	CONE	9	3	[0, 0, 0]	n/a	FR1	2	R1217T
399.588	1.0	406861	WORD_OFF	n/a	n/a	CONE	9	3	[0, 0, 0]	n/a	FR1	2	R1217T
400.588	1.618	407861	WORD	n/a	wordpools/wordpool_EN.txt	MUG	10	3	[0, 0, 0]	n/a	FR1	2	R1217T
402.206	0.934	409479	WORD_OFF	n/a	n/a	MUG	10	3	[0, 0, 0]	n/a	FR1	2	R1217T
403.14	1.615	410413	WORD	n/a	wordpools/wordpool_EN.txt	ROAD	11	3	[0, 0, 0]	n/a	FR1	2	R1217T
404.755	0.801	412028	WORD_OFF	n/a	n/a	ROAD	11	3	[0, 0, 0]	n/a	FR1	2	R1217T
405.556	1.618	412829	WORD	n/a	wordpools/wordpool_EN.txt	SUIT	12	3	[0, 0, 0]	n/a	FR1	2	R1217T
407.174	0.0	414447	WORD_OFF	n/a	n/a	SUIT	12	3	[0, 0, 0]	n/a	FR1	2	R1217T
407.174	0.0	414447	DISTRACT_START	n/a	n/a	n/a	-999	3	[0, 0, 0]	n/a	FR1	2	R1217T
407.174	0.016	414447	START	n/a	n/a	n/a	-999	3	[-999, -999, -999]	n/a	FR1	2	R1217T
407.19	4.417	414463	PROB	4.417	n/a	n/a	-999	3	[2, 1, 1]	6	FR1	2	R1217T
411.607	3.651	418880	PROB	3.651	n/a	n/a	-999	3	[5, 2, 2]	9	FR1	2	R1217T
415.258	6.918	422530	PROB	6.918	n/a	n/a	-999	3	[3, 5, 4]	12	FR1	2	R1217T
422.176	4.018	429448	PROB	4.018	n/a	n/a	-999	3	[2, 2, 6]	10	FR1	2	R1217T
426.194	4.097	433466	PROB	4.097	n/a	n/a	-999	3	[2, 9, 8]	19	FR1	2	R1217T
430.291	0.02	437563	STOP	n/a	n/a	n/a	-999	3	[-999, -999, -999]	n/a	FR1	2	R1217T
430.311	0.549	437583	DISTRACT_END	n/a	n/a	n/a	-999	3	[0, 0, 0]	n/a	FR1	2	R1217T
430.86	0.519	438131	RETRIEVAL_ORIENT	n/a	n/a	n/a	-999	3	[0, 0, 0]	n/a	FR1	2	R1217T
431.379	3.897	438650	REC_START	n/a	n/a	n/a	-999	3	[0, 0, 0]	n/a	FR1	2	R1217T
435.276	0.598	442547	REC_WORD	0.598	n/a	VAN	3	3	[0, 0, 0]	n/a	FR1	2	R1217T
435.874	1.625	443145	REC_WORD	1.625	n/a	STAIR	4	3	[0, 0, 0]	n/a	FR1	2	R1217T
437.499	1.248	444770	REC_WORD	1.248	n/a	TOY	5	3	[0, 0, 0]	n/a	FR1	2	R1217T
438.747	13.764	446018	REC_WORD	13.764	n/a	WAND	-999	3	[0, 0, 0]	n/a	FR1	2	R1217T
452.511	8.878	459781	REC_WORD	8.878	n/a	YARD	6	3	[0, 0, 0]	n/a	FR1	2	R1217T
461.389	6.211	468659	REC_END	n/a	n/a	n/a	-999	3	[0, 0, 0]	n/a	FR1	2	R1217T
467.6	0.5	474869	TRIAL	n/a	n/a	n/a	-999	4	[0, 0, 0]	n/a	FR1	2	R1217T
468.1	10.428	475369	COUNTDOWN_START	n/a	n/a	n/a	-999	4	[0, 0, 0]	n/a	FR1	2	R1217T
478.528	0.008	485797	COUNTDOWN_END	n/a	n/a	n/a	-999	4	[0, 0, 0]	n/a	FR1	2	R1217T
478.536	1.617	485805	ORIENT	n/a	n/a	n/a	-999	4	[0, 0, 0]	n/a	FR1	2	R1217T
480.153	2.184	487422	ORIENT_OFF	n/a	n/a	n/a	-999	4	[0, 0, 0]	n/a	FR1	2	R1217T
482.337	1.616	489605	WORD	n/a	wordpools/wordpool_EN.txt	PET	1	4	[0, 0, 0]	n/a	FR1	2	R1217T
483.953	1.0	491221	WORD_OFF	n/a	n/a	PET	1	4	[0, 0, 0]	n/a	FR1	2	R1217T
484.953	1.617	492221	WORD	n/a	wordpools/wordpool_EN.txt	SPONGE	2	4	[0, 0, 0]	n/a	FR1	2	R1217T
486.57	0.934	493838	WORD_OFF	n/a	n/a	SPONGE	2	4	[0, 0, 0]	n/a	FR1	2	R1217T
487.504	1.618	494772	WORD	n/a	wordpools/wordpool_EN.txt	ARM	3	4	[0, 0, 0]	n/a	FR1	2	R1217T
489.122	0.95	496390	WORD_OFF	n/a	n/a	ARM	3	4	[0, 0, 0]	n/a	FR1	2	R1217T
490.072	1.616	497340	WORD	n/a	wordpools/wordpool_EN.txt	PURSE	4	4	[0, 0, 0]	n/a	FR1	2	R1217T
491.688	0.8	498956	WORD_OFF	n/a	n/a	PURSE	4	4	[0, 0, 0]	n/a	FR1	2	R1217T
492.488	1.601	499756	WORD	n/a	wordpools/wordpool_EN.txt	ROCK	5	4	[0, 0, 0]	n/a	FR1	2	R1217T
494.089	0.967	501357	WORD_OFF	n/a	n/a	ROCK	5	4	[0, 0, 0]	n/a	FR1	2	R1217T
495.056	1.616	502324	WORD	n/a	wordpools/wordpool_EN.txt	EGG	6	4	[0, 0, 0]	n/a	FR1	2	R1217T
496.672	0.784	503940	WORD_OFF	n/a	n/a	EGG	6	4	[0, 0, 0]	n/a	FR1	2	R1217T
497.456	1.618	504723	WORD	n/a	wordpools/wordpool_EN.txt	BOOK	7	4	[0, 0, 0]	n/a	FR1	2	R1217T
499.074	0.9	506341	WORD_OFF	n/a	n/a	BOOK	7	4	[0, 0, 0]	n/a	FR1	2	R1217T
499.974	1.616	507241	WORD	n/a	wordpools/wordpool_EN.txt	SWAMP	8	4	[0, 0, 0]	n/a	FR1	2	R1217T
501.59	0.983	508857	WORD_OFF	n/a	n/a	SWAMP	8	4	[0, 0, 0]	n/a	FR1	2	R1217T
502.573	1.618	509840	WORD	n/a	wordpools/wordpool_EN.txt	SKI	9	4	[0, 0, 0]	n/a	FR1	2	R1217T
504.191	0.967	511458	WORD_OFF	n/a	n/a	SKI	9	4	[0, 0, 0]	n/a	FR1	2	R1217T
505.158	1.616	512425	WORD	n/a	wordpools/wordpool_EN.txt	BRIDGE	10	4	[0, 0, 0]	n/a	FR1	2	R1217T
506.774	0.95	514041	WORD_OFF	n/a	n/a	BRIDGE	10	4	[0, 0, 0]	n/a	FR1	2	R1217T
507.724	1.618	514991	WORD	n/a	wordpools/wordpool_EN.txt	HEN	11	4	[0, 0, 0]	n/a	FR1	2	R1217T
509.342	0.817	516609	WORD_OFF	n/a	n/a	HEN	11	4	[0, 0, 0]	n/a	FR1	2	R1217T
510.159	1.616	517426	WORD	n/a	wordpools/wordpool_EN.txt	APE	12	4	[0, 0, 0]	n/a	FR1	2	R1217T
511.775	0.0	519042	DISTRACT_START	n/a	n/a	n/a	-999	4	[0, 0, 0]	n/a	FR1	2	R1217T
511.775	0.0	519042	WORD_OFF	n/a	n/a	APE	12	4	[0, 0, 0]	n/a	FR1	2	R1217T
511.775	0.017	519042	START	n/a	n/a	n/a	-999	4	[-999, -999, -999]	n/a	FR1	2	R1217T
511.792	5.585	519059	PROB	5.585	n/a	n/a	-999	4	[5, 3, 8]	16	FR1	2	R1217T
517.377	3.801	524643	PROB	3.801	n/a	n/a	-999	4	[7, 5, 5]	17	FR1	2	R1217T
521.178	3.382	528444	PROB	3.382	n/a	n/a	-999	4	[2, 3, 4]	9	FR1	2	R1217T
524.56	4.401	531826	PROB	4.401	n/a	n/a	-999	4	[1, 8, 6]	15	FR1	2	R1217T
528.961	2.8	536227	PROB	2.8	n/a	n/a	-999	4	[2, 6, 4]	12	FR1	2	R1217T
531.761	0.018	539026	STOP	n/a	n/a	n/a	-999	4	[-999, -999, -999]	n/a	FR1	2	R1217T
531.779	0.666	539044	DISTRACT_END	n/a	n/a	n/a	-999	4	[0, 0, 0]	n/a	FR1	2	R1217T
532.445	0.518	539710	RETRIEVAL_ORIENT	n/a	n/a	n/a	-999	4	[0, 0, 0]	n/a	FR1	2	R1217T
532.963	1.559	540228	REC_START	n/a	n/a	n/a	-999	4	[0, 0, 0]	n/a	FR1	2	R1217T
534.522	1.075	541787	REC_WORD	1.075	n/a	SKI	9	4	[0, 0, 0]	n/a	FR1	2	R1217T
535.597	2.941	542862	REC_WORD	2.941	n/a	BRIDGE	10	4	[0, 0, 0]	n/a	FR1	2	R1217T
538.538	0.697	545803	REC_WORD	0.697	n/a	APE	12	4	[0, 0, 0]	n/a	FR1	2	R1217T
539.235	23.739	546500	REC_WORD	23.739	n/a	TORN	-999	4	[0, 0, 0]	n/a	FR1	2	R1217T
562.974	5.945	570238	REC_END	n/a	n/a	n/a	-999	4	[0, 0, 0]	n/a	FR1	2	R1217T
568.919	0.5	576182	TRIAL	n/a	n/a	n/a	-999	5	[0, 0, 0]	n/a	FR1	2	R1217T
569.419	10.428	576682	COUNTDOWN_START	n/a	n/a	n/a	-999	5	[0, 0, 0]	n/a	FR1	2	R1217T
579.847	0.007	587110	COUNTDOWN_END	n/a	n/a	n/a	-999	5	[0, 0, 0]	n/a	FR1	2	R1217T
579.854	1.617	587117	ORIENT	n/a	n/a	n/a	-999	5	[0, 0, 0]	n/a	FR1	2	R1217T
581.471	2.1	588733	ORIENT_OFF	n/a	n/a	n/a	-999	5	[0, 0, 0]	n/a	FR1	2	R1217T
583.571	1.618	590833	WORD	n/a	wordpools/wordpool_EN.txt	BOX	1	5	[0, 0, 0]	n/a	FR1	2	R1217T
585.189	0.9	592451	WORD_OFF	n/a	n/a	BOX	1	5	[0, 0, 0]	n/a	FR1	2	R1217T
586.089	1.616	593351	WORD	n/a	wordpools/wordpool_EN.txt	SMOKE	2	5	[0, 0, 0]	n/a	FR1	2	R1217T
587.705	0.817	594967	WORD_OFF	n/a	n/a	SMOKE	2	5	[0, 0, 0]	n/a	FR1	2	R1217T
588.522	1.618	595784	WORD	n/a	wordpools/wordpool_EN.txt	TEA	3	5	[0, 0, 0]	n/a	FR1	2	R1217T
590.14	0.85	597402	WORD_OFF	n/a	n/a	TEA	3	5	[0, 0, 0]	n/a	FR1	2	R1217T
590.99	1.616	598252	WORD	n/a	wordpools/wordpool_EN.txt	GRASS	4	5	[0, 0, 0]	n/a	FR1	2	R1217T
592.606	0.834	599868	WORD_OFF	n/a	n/a	GRASS	4	5	[0, 0, 0]	n/a	FR1	2	R1217T
593.44	1.618	600702	WORD	n/a	wordpools/wordpool_EN.txt	BOMB	5	5	[0, 0, 0]	n/a	FR1	2	R1217T
595.058	0.916	602320	WORD_OFF	n/a	n/a	BOMB	5	5	[0, 0, 0]	n/a	FR1	2	R1217T
595.974	1.616	603236	WORD	n/a	wordpools/wordpool_EN.txt	WAVE	6	5	[0, 0, 0]	n/a	FR1	2	R1217T
597.59	0.785	604851	WORD_OFF	n/a	n/a	WAVE	6	5	[0, 0, 0]	n/a	FR1	2	R1217T
598.375	1.617	605636	WORD	n/a	wordpools/wordpool_EN.txt	DRESS	7	5	[0, 0, 0]	n/a	FR1	2	R1217T
599.992	0.899	607253	WORD_OFF	n/a	n/a	DRESS	7	5	[0, 0, 0]	n/a	FR1	2	R1217T
600.891	1.617	608152	WORD	n/a	wordpools/wordpool_EN.txt	RICE	8	5	[0, 0, 0]	n/a	FR1	2	R1217T
602.508	0.95	609769	WORD_OFF	n/a	n/a	RICE	8	5	[0, 0, 0]	n/a	FR1	2	R1217T
603.458	1.618	610719	WORD	n/a	wordpools/wordpool_EN.txt	JET	9	5	[0, 0, 0]	n/a	FR1	2	R1217T
605.076	0.783	612337	WORD_OFF	n/a	n/a	JET	9	5	[0, 0, 0]	n/a	FR1	2	R1217T
605.859	1.617	613120	WORD	n/a	wordpools/wordpool_EN.txt	BEAK	10	5	[0, 0, 0]	n/a	FR1	2	R1217T
607.476	0.784	614737	WORD_OFF	n/a	n/a	BEAK	10	5	[0, 0, 0]	n/a	FR1	2	R1217T
608.26	1.616	615521	WORD	n/a	wordpools/wordpool_EN.txt	FOG	11	5	[0, 0, 0]	n/a	FR1	2	R1217T
609.876	0.867	617137	WORD_OFF	n/a	n/a	FOG	11	5	[0, 0, 0]	n/a	FR1	2	R1217T
610.743	1.618	618004	WORD	n/a	wordpools/wordpool_EN.txt	BATH	12	5	[0, 0, 0]	n/a	FR1	2	R1217T
612.361	0.0	619622	WORD_OFF	n/a	n/a	BATH	12	5	[0, 0, 0]	n/a	FR1	2	R1217T
612.361	0.0	619622	DISTRACT_START	n/a	n/a	n/a	-999	5	[0, 0, 0]	n/a	FR1	2	R1217T
612.361	0.016	619622	START	n/a	n/a	n/a	-999	5	[-999, -999, -999]	n/a	FR1	2	R1217T
612.377	4.618	619638	PROB	4.618	n/a	n/a	-999	5	[7, 7, 3]	17	FR1	2	R1217T
616.995	4.7	624255	PROB	4.7	n/a	n/a	-999	5	[4, 9, 2]	15	FR1	2	R1217T
621.695	4.402	628955	PROB	4.402	n/a	n/a	-999	5	[5, 1, 9]	15	FR1	2	R1217T
626.097	8.416	633357	PROB	8.416	n/a	n/a	-999	5	[7, 3, 4]	14	FR1	2	R1217T
634.513	0.017	641772	STOP	n/a	n/a	n/a	-999	5	[-999, -999, -999]	n/a	FR1	2	R1217T
634.53	0.518	641789	DISTRACT_END	n/a	n/a	n/a	-999	5	[0, 0, 0]	n/a	FR1	2	R1217T
635.048	0.517	642307	RETRIEVAL_ORIENT	n/a	n/a	n/a	-999	5	[0, 0, 0]	n/a	FR1	2	R1217T
635.565	2.775	642824	REC_START	n/a	n/a	n/a	-999	5	[0, 0, 0]	n/a	FR1	2	R1217T
638.34	4.139	645599	REC_WORD	4.139	n/a	WAVE	6	5	[0, 0, 0]	n/a	FR1	2	R1217T
642.479	23.096	649738	REC_WORD	23.096	n/a	SHEET	-999	5	[0, 0, 0]	n/a	FR1	2	R1217T
665.575	11.814	672832	REC_END	n/a	n/a	n/a	-999	5	[0, 0, 0]	n/a	FR1	2	R1217T
677.389	0.5	684646	TRIAL	n/a	n/a	n/a	-999	6	[0, 0, 0]	n/a	FR1	2	R1217T
677.889	10.428	685146	COUNTDOWN_START	n/a	n/a	n/a	-999	6	[0, 0, 0]	n/a	FR1	2	R1217T
688.317	0.008	695573	COUNTDOWN_END	n/a	n/a	n/a	-999	6	[0, 0, 0]	n/a	FR1	2	R1217T
688.325	1.616	695581	ORIENT	n/a	n/a	n/a	-999	6	[0, 0, 0]	n/a	FR1	2	R1217T
689.941	2.184	697197	ORIENT_OFF	n/a	n/a	n/a	-999	6	[0, 0, 0]	n/a	FR1	2	R1217T
692.125	1.616	699381	WORD	n/a	wordpools/wordpool_EN.txt	ANT	1	6	[0, 0, 0]	n/a	FR1	2	R1217T
693.741	0.884	700997	WORD_OFF	n/a	n/a	ANT	1	6	[0, 0, 0]	n/a	FR1	2	R1217T
694.625	1.601	701881	WORD	n/a	wordpools/wordpool_EN.txt	HOLE	2	6	[0, 0, 0]	n/a	FR1	2	R1217T
696.226	0.9	703481	WORD_OFF	n/a	n/a	HOLE	2	6	[0, 0, 0]	n/a	FR1	2	R1217T
697.126	1.616	704381	WORD	n/a	wordpools/wordpool_EN.txt	MOON	3	6	[0, 0, 0]	n/a	FR1	2	R1217T
698.742	0.917	705997	WORD_OFF	n/a	n/a	MOON	3	6	[0, 0, 0]	n/a	FR1	2	R1217T
699.659	1.618	706914	WORD	n/a	wordpools/wordpool_EN.txt	CLIFF	4	6	[0, 0, 0]	n/a	FR1	2	R1217T
701.277	0.867	708532	WORD_OFF	n/a	n/a	CLIFF	4	6	[0, 0, 0]	n/a	FR1	2	R1217T
702.144	1.616	709399	WORD	n/a	wordpools/wordpool_EN.txt	SOUP	5	6	[0, 0, 0]	n/a	FR1	2	R1217T
703.76	0.917	711015	WORD_OFF	n/a	n/a	SOUP	5	6	[0, 0, 0]	n/a	FR1	2	R1217T
704.677	1.617	711932	WORD	n/a	wordpools/wordpool_EN.txt	BRICK	6	6	[0, 0, 0]	n/a	FR1	2	R1217T
706.294	0.867	713549	WORD_OFF	n/a	n/a	BRICK	6	6	[0, 0, 0]	n/a	FR1	2	R1217T
707.161	1.616	714416	WORD	n/a	wordpools/wordpool_EN.txt	HAWK	7	6	[0, 0, 0]	n/a	FR1	2	R1217T
708.777	0.834	716032	WORD_OFF	n/a	n/a	HAWK	7	6	[0, 0, 0]	n/a	FR1	2	R1217T
709.611	1.618	716866	WORD	n/a	wordpools/wordpool_EN.txt	SPARK	8	6	[0, 0, 0]	n/a	FR1	2	R1217T
711.229	1.0	718484	WORD_OFF	n/a	n/a	SPARK	8	6	[0, 0, 0]	n/a	FR1	2	R1217T
712.229	1.616	719484	WORD	n/a	wordpools/wordpool_EN.txt	GATE	9	6	[0, 0, 0]	n/a	FR1	2	R1217T
713.845	0.817	721099	WORD_OFF	n/a	n/a	GATE	9	6	[0, 0, 0]	n/a	FR1	2	R1217T
714.662	1.618	721916	WORD	n/a	wordpools/wordpool_EN.txt	HOOF	10	6	[0, 0, 0]	n/a	FR1	2	R1217T
716.28	0.917	723534	WORD_OFF	n/a	n/a	HOOF	10	6	[0, 0, 0]	n/a	FR1	2	R1217T
717.197	1.616	724451	WORD	n/a	wordpools/wordpool_EN.txt	RAT	11	6	[0, 0, 0]	n/a	FR1	2	R1217T
718.813	0.816	726067	WORD_OFF	n/a	n/a	RAT	11	6	[0, 0, 0]	n/a	FR1	2	R1217T
719.629	1.618	726883	WORD	n/a	wordpools/wordpool_EN.txt	TEETH	12	6	[0, 0, 0]	n/a	FR1	2	R1217T
721.247	0.0	728501	WORD_OFF	n/a	n/a	TEETH	12	6	[0, 0, 0]	n/a	FR1	2	R1217T
721.247	0.001	728501	DISTRACT_START	n/a	n/a	n/a	-999	6	[0, 0, 0]	n/a	FR1	2	R1217T
721.248	0.016	728502	START	n/a	n/a	n/a	-999	6	[-999, -999, -999]	n/a	FR1	2	R1217T
721.264	4.801	728518	PROB	4.801	n/a	n/a	-999	6	[8, 6, 2]	16	FR1	2	R1217T
726.065	3.833	733319	PROB	3.833	n/a	n/a	-999	6	[4, 6, 7]	17	FR1	2	R1217T
729.898	4.502	737151	PROB	4.502	n/a	n/a	-999	6	[5, 5, 8]	18	FR1	2	R1217T
734.4	4.033	741653	PROB	4.033	n/a	n/a	-999	6	[8, 4, 9]	21	FR1	2	R1217T
738.433	6.224	745686	PROB	6.224	n/a	n/a	-999	6	[2, 7, 6]	15	FR1	2	R1217T
744.657	0.01	751910	STOP	n/a	n/a	n/a	-999	6	[-999, -999, -999]	n/a	FR1	2	R1217T
744.667	0.618	751920	DISTRACT_END	n/a	n/a	n/a	-999	6	[0, 0, 0]	n/a	FR1	2	R1217T
745.285	0.517	752538	RETRIEVAL_ORIENT	n/a	n/a	n/a	-999	6	[0, 0, 0]	n/a	FR1	2	R1217T
745.802	2.263	753055	REC_START	n/a	n/a	n/a	-999	6	[0, 0, 0]	n/a	FR1	2	R1217T
748.065	1.438	755317	REC_WORD	1.438	n/a	ANT	1	6	[0, 0, 0]	n/a	FR1	2	R1217T
749.503	1.719	756755	REC_WORD	1.719	n/a	HOLE	2	6	[0, 0, 0]	n/a	FR1	2	R1217T
751.222	17.096	758474	REC_WORD	17.096	n/a	MOON	3	6	[0, 0, 0]	n/a	FR1	2	R1217T
768.318	7.493	775569	REC_WORD	7.493	n/a	FLUTE	-999	6	[0, 0, 0]	n/a	FR1	2	R1217T
775.811	5.796	783062	REC_END	n/a	n/a	n/a	-999	6	[0, 0, 0]	n/a	FR1	2	R1217T
781.607	0.5	788857	TRIAL	n/a	n/a	n/a	-999	7	[0, 0, 0]	n/a	FR1	2	R1217T
782.107	10.428	789357	COUNTDOWN_START	n/a	n/a	n/a	-999	7	[0, 0, 0]	n/a	FR1	2	R1217T
792.535	0.008	799785	COUNTDOWN_END	n/a	n/a	n/a	-999	7	[0, 0, 0]	n/a	FR1	2	R1217T
792.543	1.618	799793	ORIENT	n/a	n/a	n/a	-999	7	[0, 0, 0]	n/a	FR1	2	R1217T
794.161	2.033	801411	ORIENT_OFF	n/a	n/a	n/a	-999	7	[0, 0, 0]	n/a	FR1	2	R1217T
796.194	1.616	803443	WORD	n/a	wordpools/wordpool_EN.txt	LEAF	1	7	[0, 0, 0]	n/a	FR1	2	R1217T
797.81	1.0	805059	WORD_OFF	n/a	n/a	LEAF	1	7	[0, 0, 0]	n/a	FR1	2	R1217T
798.81	1.617	806059	WORD	n/a	wordpools/wordpool_EN.txt	PASTE	2	7	[0, 0, 0]	n/a	FR1	2	R1217T
800.427	0.784	807676	WORD_OFF	n/a	n/a	PASTE	2	7	[0, 0, 0]	n/a	FR1	2	R1217T
801.211	1.617	808460	WORD	n/a	wordpools/wordpool_EN.txt	DOOR	3	7	[0, 0, 0]	n/a	FR1	2	R1217T
802.828	0.967	810077	WORD_OFF	n/a	n/a	DOOR	3	7	[0, 0, 0]	n/a	FR1	2	R1217T
803.795	1.618	811044	WORD	n/a	wordpools/wordpool_EN.txt	TRAIN	4	7	[0, 0, 0]	n/a	FR1	2	R1217T
805.413	0.983	812662	WORD_OFF	n/a	n/a	TRAIN	4	7	[0, 0, 0]	n/a	FR1	2	R1217T
806.396	1.617	813645	WORD	n/a	wordpools/wordpool_EN.txt	STEAK	5	7	[0, 0, 0]	n/a	FR1	2	R1217T
808.013	0.967	815262	WORD_OFF	n/a	n/a	STEAK	5	7	[0, 0, 0]	n/a	FR1	2	R1217T
808.98	1.616	816229	WORD	n/a	wordpools/wordpool_EN.txt	SEA	6	7	[0, 0, 0]	n/a	FR1	2	R1217T
810.596	0.85	817845	WORD_OFF	n/a	n/a	SEA	6	7	[0, 0, 0]	n/a	FR1	2	R1217T
811.446	1.601	818695	WORD	n/a	wordpools/wordpool_EN.txt	TOAST	7	7	[0, 0, 0]	n/a	FR1	2	R1217T
813.047	0.783	820295	WORD_OFF	n/a	n/a	TOAST	7	7	[0, 0, 0]	n/a	FR1	2	R1217T
813.83	1.617	821078	WORD	n/a	wordpools/wordpool_EN.txt	OAR	8	7	[0, 0, 0]	n/a	FR1	2	R1217T
815.447	0.918	822695	WORD_OFF	n/a	n/a	OAR	8	7	[0, 0, 0]	n/a	FR1	2	R1217T
816.365	1.617	823613	WORD	n/a	wordpools/wordpool_EN.txt	TANK	9	7	[0, 0, 0]	n/a	FR1	2	R1217T
817.982	0.882	825230	WORD_OFF	n/a	n/a	TANK	9	7	[0, 0, 0]	n/a	FR1	2	R1217T
818.864	1.617	826112	WORD	n/a	wordpools/wordpool_EN.txt	CROWN	10	7	[0, 0, 0]	n/a	FR1	2	R1217T
820.481	1.0	827729	WORD_OFF	n/a	n/a	CROWN	10	7	[0, 0, 0]	n/a	FR1	2	R1217T
821.481	1.618	828729	WORD	n/a	wordpools/wordpool_EN.txt	CAT	11	7	[0, 0, 0]	n/a	FR1	2	R1217T
823.099	0.984	830347	WORD_OFF	n/a	n/a	CAT	11	7	[0, 0, 0]	n/a	FR1	2	R1217T
824.083	1.616	831331	WORD	n/a	wordpools/wordpool_EN.txt	DOCK	12	7	[0, 0, 0]	n/a	FR1	2	R1217T
825.699	0.0	832947	WORD_OFF	n/a	n/a	DOCK	12	7	[0, 0, 0]	n/a	FR1	2	R1217T
825.699	0.0	832947	DISTRACT_START	n/a	n/a	n/a	-999	7	[0, 0, 0]	n/a	FR1	2	R1217T
825.699	0.016	832947	START	n/a	n/a	n/a	-999	7	[-999, -999, -999]	n/a	FR1	2	R1217T
825.715	6.453	832963	PROB	6.453	n/a	n/a	-999	7	[9, 6, 1]	15	FR1	2	R1217T
832.168	3.884	839415	PROB	3.884	n/a	n/a	-999	7	[1, 9, 5]	15	FR1	2	R1217T
836.052	2.866	843299	PROB	2.866	n/a	n/a	-999	7	[3, 6, 2]	11	FR1	2	R1217T
838.918	2.934	846165	PROB	2.934	n/a	n/a	-999	7	[6, 2, 6]	14	FR1	2	R1217T
841.852	5.933	849099	PROB	5.933	n/a	n/a	-999	7	[6, 6, 8]	16	FR1	2	R1217T
847.785	0.018	855031	STOP	n/a	n/a	n/a	-999	7	[-999, -999, -999]	n/a	FR1	2	R1217T
847.803	0.517	855049	DISTRACT_END	n/a	n/a	n/a	-999	7	[0, 0, 0]	n/a	FR1	2	R1217T
848.32	0.517	855566	RETRIEVAL_ORIENT	n/a	n/a	n/a	-999	7	[0, 0, 0]	n/a	FR1	2	R1217T
848.837	1.402	856083	REC_START	n/a	n/a	n/a	-999	7	[0, 0, 0]	n/a	FR1	2	R1217T
850.239	3.54	857485	REC_WORD	3.54	n/a	LEAF	1	7	[0, 0, 0]	n/a	FR1	2	R1217T
853.779	4.85	861025	REC_WORD	4.85	n/a	TRAIN	4	7	[0, 0, 0]	n/a	FR1	2	R1217T
858.629	2.823	865875	REC_WORD_VV	2.823	n/a	<>	-999	7	[0, 0, 0]	n/a	FR1	2	R1217T
861.452	0.803	868698	REC_WORD	0.803	n/a	CAT	11	7	[0, 0, 0]	n/a	FR1	2	R1217T
862.255	2.41	869500	REC_WORD	2.41	n/a	CAVE	-999	7	[0, 0, 0]	n/a	FR1	2	R1217T
864.665	14.182	871910	REC_WORD	14.182	n/a	CAST	-999	7	[0, 0, 0]	n/a	FR1	2	R1217T
878.847	40.752	886091	REC_END	n/a	n/a	n/a	-999	7	[0, 0, 0]	n/a	FR1	2	R1217T
919.599	0.5	926841	TRIAL	n/a	n/a	n/a	-999	8	[0, 0, 0]	n/a	FR1	2	R1217T
920.099	10.428	927341	COUNTDOWN_START	n/a	n/a	n/a	-999	8	[0, 0, 0]	n/a	FR1	2	R1217T
930.527	0.007	937768	COUNTDOWN_END	n/a	n/a	n/a	-999	8	[0, 0, 0]	n/a	FR1	2	R1217T
930.534	1.601	937775	ORIENT	n/a	n/a	n/a	-999	8	[0, 0, 0]	n/a	FR1	2	R1217T
932.135	2.051	939376	ORIENT_OFF	n/a	n/a	n/a	-999	8	[0, 0, 0]	n/a	FR1	2	R1217T
934.186	1.616	941427	WORD	n/a	wordpools/wordpool_EN.txt	FENCE	1	8	[0, 0, 0]	n/a	FR1	2	R1217T
935.802	0.85	943043	WORD_OFF	n/a	n/a	FENCE	1	8	[0, 0, 0]	n/a	FR1	2	R1217T
936.652	1.601	943893	WORD	n/a	wordpools/wordpool_EN.txt	SIGN	2	8	[0, 0, 0]	n/a	FR1	2	R1217T
938.253	0.834	945494	WORD_OFF	n/a	n/a	SIGN	2	8	[0, 0, 0]	n/a	FR1	2	R1217T
939.087	1.616	946328	WORD	n/a	wordpools/wordpool_EN.txt	MOUSE	3	8	[0, 0, 0]	n/a	FR1	2	R1217T
940.703	0.867	947944	WORD_OFF	n/a	n/a	MOUSE	3	8	[0, 0, 0]	n/a	FR1	2	R1217T
941.57	1.618	948811	WORD	n/a	wordpools/wordpool_EN.txt	ROOF	4	8	[0, 0, 0]	n/a	FR1	2	R1217T
943.188	0.833	950429	WORD_OFF	n/a	n/a	ROOF	4	8	[0, 0, 0]	n/a	FR1	2	R1217T
944.021	1.616	951262	WORD	n/a	wordpools/wordpool_EN.txt	FLAME	5	8	[0, 0, 0]	n/a	FR1	2	R1217T
945.637	0.9	952877	WORD_OFF	n/a	n/a	FLAME	5	8	[0, 0, 0]	n/a	FR1	2	R1217T
946.537	1.618	953777	WORD	n/a	wordpools/wordpool_EN.txt	BLUSH	6	8	[0, 0, 0]	n/a	FR1	2	R1217T
948.155	0.984	955395	WORD_OFF	n/a	n/a	BLUSH	6	8	[0, 0, 0]	n/a	FR1	2	R1217T
949.139	1.616	956379	WORD	n/a	wordpools/wordpool_EN.txt	VASE	7	8	[0, 0, 0]	n/a	FR1	2	R1217T
950.755	0.966	957995	WORD_OFF	n/a	n/a	VASE	7	8	[0, 0, 0]	n/a	FR1	2	R1217T
951.721	1.618	958961	WORD	n/a	wordpools/wordpool_EN.txt	MILK	8	8	[0, 0, 0]	n/a	FR1	2	R1217T
953.339	0.951	960579	WORD_OFF	n/a	n/a	MILK	8	8	[0, 0, 0]	n/a	FR1	2	R1217T
954.29	1.616	961530	WORD	n/a	wordpools/wordpool_EN.txt	SHOE	9	8	[0, 0, 0]	n/a	FR1	2	R1217T
955.906	0.783	963146	WORD_OFF	n/a	n/a	SHOE	9	8	[0, 0, 0]	n/a	FR1	2	R1217T
956.689	1.601	963929	WORD	n/a	wordpools/wordpool_EN.txt	AXE	10	8	[0, 0, 0]	n/a	FR1	2	R1217T
958.29	0.884	965530	WORD_OFF	n/a	n/a	AXE	10	8	[0, 0, 0]	n/a	FR1	2	R1217T
959.174	1.616	966414	WORD	n/a	wordpools/wordpool_EN.txt	CART	11	8	[0, 0, 0]	n/a	FR1	2	R1217T
960.79	0.817	968030	WORD_OFF	n/a	n/a	CART	11	8	[0, 0, 0]	n/a	FR1	2	R1217T
961.607	1.618	968846	WORD	n/a	wordpools/wordpool_EN.txt	PIT	12	8	[0, 0, 0]	n/a	FR1	2	R1217T
963.225	0.0	970464	WORD_OFF	n/a	n/a	PIT	12	8	[0, 0, 0]	n/a	FR1	2	R1217T
963.225	0.0	970464	DISTRACT_START	n/a	n/a	n/a	-999	8	[0, 0, 0]	n/a	FR1	2	R1217T
963.225	0.016	970464	START	n/a	n/a	n/a	-999	8	[-999, -999, -999]	n/a	FR1	2	R1217T
963.241	7.217	970480	PROB	7.217	n/a	n/a	-999	8	[5, 9, 3]	17	FR1	2	R1217T
970.458	6.201	977697	PROB	6.201	n/a	n/a	-999	8	[6, 2, 9]	17	FR1	2	R1217T
976.659	3.602	983898	PROB	3.602	n/a	n/a	-999	8	[1, 5, 2]	7	FR1	2	R1217T
980.261	4.404	987499	PROB	4.404	n/a	n/a	-999	8	[9, 1, 2]	12	FR1	2	R1217T
984.665	0.013	991903	STOP	n/a	n/a	n/a	-999	8	[-999, -999, -999]	n/a	FR1	2	R1217T
984.678	0.584	991916	DISTRACT_END	n/a	n/a	n/a	-999	8	[0, 0, 0]	n/a	FR1	2	R1217T
985.262	0.517	992500	RETRIEVAL_ORIENT	n/a	n/a	n/a	-999	8	[0, 0, 0]	n/a	FR1	2	R1217T
985.779	3.01	993017	REC_START	n/a	n/a	n/a	-999	8	[0, 0, 0]	n/a	FR1	2	R1217T
988.789	3.165	996027	REC_WORD	3.165	n/a	FENCE	1	8	[0, 0, 0]	n/a	FR1	2	R1217T
991.954	2.71	999192	REC_WORD	2.71	n/a	RAT	-999	8	[0, 0, 0]	n/a	FR1	2	R1217T
994.664	5.882	1001901	REC_WORD	5.882	n/a	FACE	-999	8	[0, 0, 0]	n/a	FR1	2	R1217T
1000.546	15.242	1007783	REC_WORD	15.242	n/a	MOUSE	3	8	[0, 0, 0]	n/a	FR1	2	R1217T
1015.788	5.83	1023024	REC_END	n/a	n/a	n/a	-999	8	[0, 0, 0]	n/a	FR1	2	R1217T
1021.618	0.5	1028854	TRIAL	n/a	n/a	n/a	-999	9	[0, 0, 0]	n/a	FR1	2	R1217T
1022.118	10.428	1029354	COUNTDOWN_START	n/a	n/a	n/a	-999	9	[0, 0, 0]	n/a	FR1	2	R1217T
1032.546	0.007	1039781	COUNTDOWN_END	n/a	n/a	n/a	-999	9	[0, 0, 0]	n/a	FR1	2	R1217T
1032.553	1.618	1039788	ORIENT	n/a	n/a	n/a	-999	9	[0, 0, 0]	n/a	FR1	2	R1217T
1034.171	2.117	1041406	ORIENT_OFF	n/a	n/a	n/a	-999	9	[0, 0, 0]	n/a	FR1	2	R1217T
1036.288	1.616	1043523	WORD	n/a	wordpools/wordpool_EN.txt	SPEAR	1	9	[0, 0, 0]	n/a	FR1	2	R1217T
1037.904	0.883	1045139	WORD_OFF	n/a	n/a	SPEAR	1	9	[0, 0, 0]	n/a	FR1	2	R1217T
1038.787	1.618	1046022	WORD	n/a	wordpools/wordpool_EN.txt	CROW	2	9	[0, 0, 0]	n/a	FR1	2	R1217T
1040.405	0.817	1047640	WORD_OFF	n/a	n/a	CROW	2	9	[0, 0, 0]	n/a	FR1	2	R1217T
1041.222	1.616	1048457	WORD	n/a	wordpools/wordpool_EN.txt	FORK	3	9	[0, 0, 0]	n/a	FR1	2	R1217T
1042.838	0.984	1050073	WORD_OFF	n/a	n/a	FORK	3	9	[0, 0, 0]	n/a	FR1	2	R1217T
1043.822	1.616	1051057	WORD	n/a	wordpools/wordpool_EN.txt	BAT	4	9	[0, 0, 0]	n/a	FR1	2	R1217T
1045.438	0.868	1052672	WORD_OFF	n/a	n/a	BAT	4	9	[0, 0, 0]	n/a	FR1	2	R1217T
1046.306	1.616	1053540	WORD	n/a	wordpools/wordpool_EN.txt	LAMB	5	9	[0, 0, 0]	n/a	FR1	2	R1217T
1047.922	0.95	1055156	WORD_OFF	n/a	n/a	LAMB	5	9	[0, 0, 0]	n/a	FR1	2	R1217T
1048.872	1.617	1056106	WORD	n/a	wordpools/wordpool_EN.txt	TOAD	6	9	[0, 0, 0]	n/a	FR1	2	R1217T
1050.489	0.967	1057723	WORD_OFF	n/a	n/a	TOAD	6	9	[0, 0, 0]	n/a	FR1	2	R1217T
1051.456	1.618	1058690	WORD	n/a	wordpools/wordpool_EN.txt	FLUTE	7	9	[0, 0, 0]	n/a	FR1	2	R1217T
1053.074	0.934	1060308	WORD_OFF	n/a	n/a	FLUTE	7	9	[0, 0, 0]	n/a	FR1	2	R1217T
1054.008	1.616	1061242	WORD	n/a	wordpools/wordpool_EN.txt	FAN	8	9	[0, 0, 0]	n/a	FR1	2	R1217T
1055.624	0.883	1062858	WORD_OFF	n/a	n/a	FAN	8	9	[0, 0, 0]	n/a	FR1	2	R1217T
1056.507	1.618	1063741	WORD	n/a	wordpools/wordpool_EN.txt	LIP	9	9	[0, 0, 0]	n/a	FR1	2	R1217T
1058.125	1.0	1065359	WORD_OFF	n/a	n/a	LIP	9	9	[0, 0, 0]	n/a	FR1	2	R1217T
1059.125	1.616	1066359	WORD	n/a	wordpools/wordpool_EN.txt	DOLL	10	9	[0, 0, 0]	n/a	FR1	2	R1217T
1060.741	0.767	1067975	WORD_OFF	n/a	n/a	DOLL	10	9	[0, 0, 0]	n/a	FR1	2	R1217T
1061.508	1.618	1068741	WORD	n/a	wordpools/wordpool_EN.txt	GOAT	11	9	[0, 0, 0]	n/a	FR1	2	R1217T
1063.126	0.85	1070359	WORD_OFF	n/a	n/a	GOAT	11	9	[0, 0, 0]	n/a	FR1	2	R1217T
1063.976	1.616	1071209	WORD	n/a	wordpools/wordpool_EN.txt	BOOT	12	9	[0, 0, 0]	n/a	FR1	2	R1217T
1065.592	0.0	1072825	WORD_OFF	n/a	n/a	BOOT	12	9	[0, 0, 0]	n/a	FR1	2	R1217T
1065.592	0.001	1072825	DISTRACT_START	n/a	n/a	n/a	-999	9	[0, 0, 0]	n/a	FR1	2	R1217T
1065.593	0.016	1072826	START	n/a	n/a	n/a	-999	9	[-999, -999, -999]	n/a	FR1	2	R1217T
1065.609	5.602	1072842	PROB	5.602	n/a	n/a	-999	9	[1, 1, 6]	8	FR1	2	R1217T
1071.211	6.6	1078444	PROB	6.6	n/a	n/a	-999	9	[2, 2, 8]	12	FR1	2	R1217T
1077.811	3.352	1085043	PROB	3.352	n/a	n/a	-999	9	[3, 9, 7]	19	FR1	2	R1217T
1081.163	3.017	1088395	PROB	3.017	n/a	n/a	-999	9	[1, 8, 4]	13	FR1	2	R1217T
1084.18	7.42	1091412	PROB	7.42	n/a	n/a	-999	9	[8, 1, 9]	18	FR1	2	R1217T
1091.6	0.014	1098832	STOP	n/a	n/a	n/a	-999	9	[-999, -999, -999]	n/a	FR1	2	R1217T
1091.614	0.567	1098846	DISTRACT_END	n/a	n/a	n/a	-999	9	[0, 0, 0]	n/a	FR1	2	R1217T
1092.181	0.517	1099413	RETRIEVAL_ORIENT	n/a	n/a	n/a	-999	9	[0, 0, 0]	n/a	FR1	2	R1217T
1092.698	2.151	1099930	REC_START	n/a	n/a	n/a	-999	9	[0, 0, 0]	n/a	FR1	2	R1217T
1094.849	0.695	1102080	REC_WORD	0.695	n/a	BAT	4	9	[0, 0, 0]	n/a	FR1	2	R1217T
1095.544	2.667	1102775	REC_WORD	2.667	n/a	LAMB	5	9	[0, 0, 0]	n/a	FR1	2	R1217T
1098.211	2.829	1105442	REC_WORD	2.829	n/a	TOAD	6	9	[0, 0, 0]	n/a	FR1	2	R1217T
1101.04	0.799	1108271	REC_WORD	0.799	n/a	LIP	9	9	[0, 0, 0]	n/a	FR1	2	R1217T
1101.839	2.886	1109070	REC_WORD	2.886	n/a	FLUTE	7	9	[0, 0, 0]	n/a	FR1	2	R1217T
1104.725	17.982	1111956	REC_WORD	17.982	n/a	GOAT	11	9	[0, 0, 0]	n/a	FR1	2	R1217T
1122.707	5.863	1129937	REC_END	n/a	n/a	n/a	-999	9	[0, 0, 0]	n/a	FR1	2	R1217T
1128.57	0.5	1135799	TRIAL	n/a	n/a	n/a	-999	10	[0, 0, 0]	n/a	FR1	2	R1217T
1129.07	10.428	1136299	COUNTDOWN_START	n/a	n/a	n/a	-999	10	[0, 0, 0]	n/a	FR1	2	R1217T
1139.498	0.008	1146727	COUNTDOWN_END	n/a	n/a	n/a	-999	10	[0, 0, 0]	n/a	FR1	2	R1217T
1139.506	1.618	1146735	ORIENT	n/a	n/a	n/a	-999	10	[0, 0, 0]	n/a	FR1	2	R1217T
1141.124	2.133	1148353	ORIENT_OFF	n/a	n/a	n/a	-999	10	[0, 0, 0]	n/a	FR1	2	R1217T
1143.257	1.616	1150486	WORD	n/a	wordpools/wordpool_EN.txt	BEACH	1	10	[0, 0, 0]	n/a	FR1	2	R1217T
1144.873	0.8	1152101	WORD_OFF	n/a	n/a	BEACH	1	10	[0, 0, 0]	n/a	FR1	2	R1217T
1145.673	1.618	1152901	WORD	n/a	wordpools/wordpool_EN.txt	SNAIL	2	10	[0, 0, 0]	n/a	FR1	2	R1217T
1147.291	0.867	1154519	WORD_OFF	n/a	n/a	SNAIL	2	10	[0, 0, 0]	n/a	FR1	2	R1217T
1148.158	1.616	1155386	WORD	n/a	wordpools/wordpool_EN.txt	CAR	3	10	[0, 0, 0]	n/a	FR1	2	R1217T
1149.774	0.784	1157002	WORD_OFF	n/a	n/a	CAR	3	10	[0, 0, 0]	n/a	FR1	2	R1217T
1150.558	1.618	1157786	WORD	n/a	wordpools/wordpool_EN.txt	STAR	4	10	[0, 0, 0]	n/a	FR1	2	R1217T
1152.176	0.983	1159404	WORD_OFF	n/a	n/a	STAR	4	10	[0, 0, 0]	n/a	FR1	2	R1217T
1153.159	1.616	1160387	WORD	n/a	wordpools/wordpool_EN.txt	HAND	5	10	[0, 0, 0]	n/a	FR1	2	R1217T
1154.775	1.0	1162003	WORD_OFF	n/a	n/a	HAND	5	10	[0, 0, 0]	n/a	FR1	2	R1217T
1155.775	1.618	1163003	WORD	n/a	wordpools/wordpool_EN.txt	COIN	6	10	[0, 0, 0]	n/a	FR1	2	R1217T
1157.393	0.95	1164621	WORD_OFF	n/a	n/a	COIN	6	10	[0, 0, 0]	n/a	FR1	2	R1217T
1158.343	1.616	1165571	WORD	n/a	wordpools/wordpool_EN.txt	MOUTH	7	10	[0, 0, 0]	n/a	FR1	2	R1217T
1159.959	0.967	1167187	WORD_OFF	n/a	n/a	MOUTH	7	10	[0, 0, 0]	n/a	FR1	2	R1217T
1160.926	1.617	1168153	WORD	n/a	wordpools/wordpool_EN.txt	FROG	8	10	[0, 0, 0]	n/a	FR1	2	R1217T
1162.543	0.95	1169770	WORD_OFF	n/a	n/a	FROG	8	10	[0, 0, 0]	n/a	FR1	2	R1217T
1163.493	1.618	1170720	WORD	n/a	wordpools/wordpool_EN.txt	PIG	9	10	[0, 0, 0]	n/a	FR1	2	R1217T
1165.111	0.799	1172338	WORD_OFF	n/a	n/a	PIG	9	10	[0, 0, 0]	n/a	FR1	2	R1217T
1165.91	1.617	1173137	WORD	n/a	wordpools/wordpool_EN.txt	SHELL	10	10	[0, 0, 0]	n/a	FR1	2	R1217T
1167.527	0.818	1174754	WORD_OFF	n/a	n/a	SHELL	10	10	[0, 0, 0]	n/a	FR1	2	R1217T
1168.345	1.616	1175572	WORD	n/a	wordpools/wordpool_EN.txt	MAP	11	10	[0, 0, 0]	n/a	FR1	2	R1217T
1169.961	0.867	1177188	WORD_OFF	n/a	n/a	MAP	11	10	[0, 0, 0]	n/a	FR1	2	R1217T
1170.828	1.617	1178055	WORD	n/a	wordpools/wordpool_EN.txt	BREAD	12	10	[0, 0, 0]	n/a	FR1	2	R1217T
1172.445	0.0	1179672	DISTRACT_START	n/a	n/a	n/a	-999	10	[0, 0, 0]	n/a	FR1	2	R1217T
1172.445	0.001	1179672	WORD_OFF	n/a	n/a	BREAD	12	10	[0, 0, 0]	n/a	FR1	2	R1217T
1172.446	0.016	1179673	START	n/a	n/a	n/a	-999	10	[-999, -999, -999]	n/a	FR1	2	R1217T
1172.462	4.935	1179689	PROB	4.935	n/a	n/a	-999	10	[8, 5, 2]	15	FR1	2	R1217T
1177.397	3.266	1184623	PROB	3.266	n/a	n/a	-999	10	[3, 9, 1]	13	FR1	2	R1217T
1180.663	3.468	1187889	PROB	3.468	n/a	n/a	-999	10	[2, 6, 3]	11	FR1	2	R1217T
1184.131	6.801	1191357	PROB	6.801	n/a	n/a	-999	10	[3, 7, 5]	15	FR1	2	R1217T
1190.932	7.556	1198158	PROB	7.556	n/a	n/a	-999	10	[3, 9, 1]	13	FR1	2	R1217T
1198.488	0.012	1205713	STOP	n/a	n/a	n/a	-999	10	[-999, -999, -999]	n/a	FR1	2	R1217T
1198.5	0.518	1205725	DISTRACT_END	n/a	n/a	n/a	-999	10	[0, 0, 0]	n/a	FR1	2	R1217T
1199.018	0.516	1206243	RETRIEVAL_ORIENT	n/a	n/a	n/a	-999	10	[0, 0, 0]	n/a	FR1	2	R1217T
1199.534	1.053	1206759	REC_START	n/a	n/a	n/a	-999	10	[0, 0, 0]	n/a	FR1	2	R1217T
1200.587	0.947	1207812	REC_WORD	0.947	n/a	BEACH	1	10	[0, 0, 0]	n/a	FR1	2	R1217T
1201.534	1.651	1208759	REC_WORD	1.651	n/a	TAIL	-999	10	[0, 0, 0]	n/a	FR1	2	R1217T
1203.185	1.202	1210410	REC_WORD	1.202	n/a	FROG	8	10	[0, 0, 0]	n/a	FR1	2	R1217T
1204.387	2.431	1211612	REC_WORD	2.431	n/a	SNAIL	2	10	[0, 0, 0]	n/a	FR1	2	R1217T
1206.818	10.695	1214043	REC_WORD	10.695	n/a	SWIM	-999	10	[0, 0, 0]	n/a	FR1	2	R1217T
1217.513	12.03	1224737	REC_WORD	12.03	n/a	CROWN	-999	10	[0, 0, 0]	n/a	FR1	2	R1217T
1229.543	6.113	1236766	REC_END	n/a	n/a	n/a	-999	10	[0, 0, 0]	n/a	FR1	2	R1217T
1235.656	0.5	1242879	TRIAL	n/a	n/a	n/a	-999	11	[0, 0, 0]	n/a	FR1	2	R1217T
1236.156	10.428	1243379	COUNTDOWN_START	n/a	n/a	n/a	-999	11	[0, 0, 0]	n/a	FR1	2	R1217T
1246.584	0.008	1253806	COUNTDOWN_END	n/a	n/a	n/a	-999	11	[0, 0, 0]	n/a	FR1	2	R1217T
1246.592	1.618	1253814	ORIENT	n/a	n/a	n/a	-999	11	[0, 0, 0]	n/a	FR1	2	R1217T
1248.21	1.967	1255432	ORIENT_OFF	n/a	n/a	n/a	-999	11	[0, 0, 0]	n/a	FR1	2	R1217T
1250.177	1.616	1257399	WORD	n/a	wordpools/wordpool_EN.txt	GUARD	1	11	[0, 0, 0]	n/a	FR1	2	R1217T
1251.793	0.783	1259015	WORD_OFF	n/a	n/a	GUARD	1	11	[0, 0, 0]	n/a	FR1	2	R1217T
1252.576	1.601	1259798	WORD	n/a	wordpools/wordpool_EN.txt	SCHOOL	2	11	[0, 0, 0]	n/a	FR1	2	R1217T
1254.177	0.884	1261399	WORD_OFF	n/a	n/a	SCHOOL	2	11	[0, 0, 0]	n/a	FR1	2	R1217T
1255.061	1.616	1262283	WORD	n/a	wordpools/wordpool_EN.txt	SOCK	3	11	[0, 0, 0]	n/a	FR1	2	R1217T
1256.677	0.783	1263899	WORD_OFF	n/a	n/a	SOCK	3	11	[0, 0, 0]	n/a	FR1	2	R1217T
1257.46	1.601	1264682	WORD	n/a	wordpools/wordpool_EN.txt	CALF	4	11	[0, 0, 0]	n/a	FR1	2	R1217T
1259.061	1.018	1266283	WORD_OFF	n/a	n/a	CALF	4	11	[0, 0, 0]	n/a	FR1	2	R1217T
1260.079	1.616	1267300	WORD	n/a	wordpools/wordpool_EN.txt	BOARD	5	11	[0, 0, 0]	n/a	FR1	2	R1217T
1261.695	0.816	1268916	WORD_OFF	n/a	n/a	BOARD	5	11	[0, 0, 0]	n/a	FR1	2	R1217T
1262.511	1.602	1269732	WORD	n/a	wordpools/wordpool_EN.txt	FOAM	6	11	[0, 0, 0]	n/a	FR1	2	R1217T
1264.113	0.966	1271334	WORD_OFF	n/a	n/a	FOAM	6	11	[0, 0, 0]	n/a	FR1	2	R1217T
1265.079	1.616	1272300	WORD	n/a	wordpools/wordpool_EN.txt	STRING	7	11	[0, 0, 0]	n/a	FR1	2	R1217T
1266.695	0.834	1273916	WORD_OFF	n/a	n/a	STRING	7	11	[0, 0, 0]	n/a	FR1	2	R1217T
1267.529	1.618	1274750	WORD	n/a	wordpools/wordpool_EN.txt	STREET	8	11	[0, 0, 0]	n/a	FR1	2	R1217T
1269.147	0.85	1276368	WORD_OFF	n/a	n/a	STREET	8	11	[0, 0, 0]	n/a	FR1	2	R1217T
1269.997	1.616	1277218	WORD	n/a	wordpools/wordpool_EN.txt	SWORD	9	11	[0, 0, 0]	n/a	FR1	2	R1217T
1271.613	0.967	1278834	WORD_OFF	n/a	n/a	SWORD	9	11	[0, 0, 0]	n/a	FR1	2	R1217T
1272.58	1.618	1279801	WORD	n/a	wordpools/wordpool_EN.txt	PIE	10	11	[0, 0, 0]	n/a	FR1	2	R1217T
1274.198	0.883	1281419	WORD_OFF	n/a	n/a	PIE	10	11	[0, 0, 0]	n/a	FR1	2	R1217T
1275.081	1.616	1282302	WORD	n/a	wordpools/wordpool_EN.txt	BEE	11	11	[0, 0, 0]	n/a	FR1	2	R1217T
1276.697	0.8	1283917	WORD_OFF	n/a	n/a	BEE	11	11	[0, 0, 0]	n/a	FR1	2	R1217T
1277.497	1.601	1284717	WORD	n/a	wordpools/wordpool_EN.txt	SLUSH	12	11	[0, 0, 0]	n/a	FR1	2	R1217T
1279.098	0.0	1286318	WORD_OFF	n/a	n/a	SLUSH	12	11	[0, 0, 0]	n/a	FR1	2	R1217T
1279.098	0.001	1286318	DISTRACT_START	n/a	n/a	n/a	-999	11	[0, 0, 0]	n/a	FR1	2	R1217T
1279.099	0.016	1286319	START	n/a	n/a	n/a	-999	11	[-999, -999, -999]	n/a	FR1	2	R1217T
1279.115	4.868	1286335	PROB	4.868	n/a	n/a	-999	11	[7, 2, 5]	14	FR1	2	R1217T
1283.983	3.267	1291203	PROB	3.267	n/a	n/a	-999	11	[2, 7, 3]	12	FR1	2	R1217T
1287.25	2.566	1294470	PROB	2.566	n/a	n/a	-999	11	[7, 2, 2]	11	FR1	2	R1217T
1289.816	3.017	1297036	PROB	3.017	n/a	n/a	-999	11	[8, 7, 3]	18	FR1	2	R1217T
1292.833	2.718	1300053	PROB	2.718	n/a	n/a	-999	11	[2, 1, 9]	12	FR1	2	R1217T
1295.551	5.994	1302770	PROB	5.994	n/a	n/a	-999	11	[2, 6, 5]	13	FR1	2	R1217T
1301.545	0.007	1308764	STOP	n/a	n/a	n/a	-999	11	[-999, -999, -999]	n/a	FR1	2	R1217T
1301.552	0.601	1308771	DISTRACT_END	n/a	n/a	n/a	-999	11	[0, 0, 0]	n/a	FR1	2	R1217T
1302.153	0.516	1309372	RETRIEVAL_ORIENT	n/a	n/a	n/a	-999	11	[0, 0, 0]	n/a	FR1	2	R1217T
1302.669	0.642	1309888	REC_START	n/a	n/a	n/a	-999	11	[0, 0, 0]	n/a	FR1	2	R1217T
1303.311	1.248	1310530	REC_WORD	1.248	n/a	SCHOOL	2	11	[0, 0, 0]	n/a	FR1	2	R1217T
1304.559	28.122	1311778	REC_WORD	28.122	n/a	GUARD	1	11	[0, 0, 0]	n/a	FR1	2	R1217T
1332.681	4.495	1339898	REC_END	n/a	n/a	n/a	-999	11	[0, 0, 0]	n/a	FR1	2	R1217T
1337.176	0.5	1344393	TRIAL	n/a	n/a	n/a	-999	12	[0, 0, 0]	n/a	FR1	2	R1217T
1337.676	10.428	1344893	COUNTDOWN_START	n/a	n/a	n/a	-999	12	[0, 0, 0]	n/a	FR1	2	R1217T
1348.104	0.007	1355320	COUNTDOWN_END	n/a	n/a	n/a	-999	12	[0, 0, 0]	n/a	FR1	2	R1217T
1348.111	1.616	1355327	ORIENT	n/a	n/a	n/a	-999	12	[0, 0, 0]	n/a	FR1	2	R1217T
1349.727	2.217	1356943	ORIENT_OFF	n/a	n/a	n/a	-999	12	[0, 0, 0]	n/a	FR1	2	R1217T
1351.944	1.617	1359160	WORD	n/a	wordpools/wordpool_EN.txt	PRINCE	1	12	[0, 0, 0]	n/a	FR1	2	R1217T
1353.561	0.851	1360777	WORD_OFF	n/a	n/a	PRINCE	1	12	[0, 0, 0]	n/a	FR1	2	R1217T
1354.412	1.617	1361628	WORD	n/a	wordpools/wordpool_EN.txt	MULE	2	12	[0, 0, 0]	n/a	FR1	2	R1217T
1356.029	0.833	1363245	WORD_OFF	n/a	n/a	MULE	2	12	[0, 0, 0]	n/a	FR1	2	R1217T
1356.862	1.617	1364078	WORD	n/a	wordpools/wordpool_EN.txt	ROSE	3	12	[0, 0, 0]	n/a	FR1	2	R1217T
1358.479	0.967	1365695	WORD_OFF	n/a	n/a	ROSE	3	12	[0, 0, 0]	n/a	FR1	2	R1217T
1359.446	1.618	1366661	WORD	n/a	wordpools/wordpool_EN.txt	CORD	4	12	[0, 0, 0]	n/a	FR1	2	R1217T
1361.064	0.983	1368279	WORD_OFF	n/a	n/a	CORD	4	12	[0, 0, 0]	n/a	FR1	2	R1217T
1362.047	1.616	1369262	WORD	n/a	wordpools/wordpool_EN.txt	FUDGE	5	12	[0, 0, 0]	n/a	FR1	2	R1217T
1363.663	0.967	1370878	WORD_OFF	n/a	n/a	FUDGE	5	12	[0, 0, 0]	n/a	FR1	2	R1217T
1364.63	1.618	1371845	WORD	n/a	wordpools/wordpool_EN.txt	LAMP	6	12	[0, 0, 0]	n/a	FR1	2	R1217T
1366.248	0.867	1373463	WORD_OFF	n/a	n/a	LAMP	6	12	[0, 0, 0]	n/a	FR1	2	R1217T
1367.115	1.616	1374330	WORD	n/a	wordpools/wordpool_EN.txt	ZOO	7	12	[0, 0, 0]	n/a	FR1	2	R1217T
1368.731	0.933	1375946	WORD_OFF	n/a	n/a	ZOO	7	12	[0, 0, 0]	n/a	FR1	2	R1217T
1369.664	1.618	1376879	WORD	n/a	wordpools/wordpool_EN.txt	FILM	8	12	[0, 0, 0]	n/a	FR1	2	R1217T
1371.282	1.0	1378497	WORD_OFF	n/a	n/a	FILM	8	12	[0, 0, 0]	n/a	FR1	2	R1217T
1372.282	1.616	1379497	WORD	n/a	wordpools/wordpool_EN.txt	BOAT	9	12	[0, 0, 0]	n/a	FR1	2	R1217T
1373.898	0.867	1381113	WORD_OFF	n/a	n/a	BOAT	9	12	[0, 0, 0]	n/a	FR1	2	R1217T
1374.765	1.618	1381980	WORD	n/a	wordpools/wordpool_EN.txt	PEN	10	12	[0, 0, 0]	n/a	FR1	2	R1217T
1376.383	0.767	1383597	WORD_OFF	n/a	n/a	PEN	10	12	[0, 0, 0]	n/a	FR1	2	R1217T
1377.15	1.616	1384364	WORD	n/a	wordpools/wordpool_EN.txt	CLOUD	11	12	[0, 0, 0]	n/a	FR1	2	R1217T
1378.766	0.983	1385980	WORD_OFF	n/a	n/a	CLOUD	11	12	[0, 0, 0]	n/a	FR1	2	R1217T
1379.749	1.618	1386963	WORD	n/a	wordpools/wordpool_EN.txt	TOE	12	12	[0, 0, 0]	n/a	FR1	2	R1217T
1381.367	0.0	1388581	WORD_OFF	n/a	n/a	TOE	12	12	[0, 0, 0]	n/a	FR1	2	R1217T
1381.367	0.001	1388581	DISTRACT_START	n/a	n/a	n/a	-999	12	[0, 0, 0]	n/a	FR1	2	R1217T
1381.368	0.016	1388582	START	n/a	n/a	n/a	-999	12	[-999, -999, -999]	n/a	FR1	2	R1217T
1381.384	3.601	1388598	PROB	3.601	n/a	n/a	-999	12	[8, 8, 8]	24	FR1	2	R1217T
1384.985	2.482	1392199	PROB	2.482	n/a	n/a	-999	12	[2, 1, 2]	5	FR1	2	R1217T
1387.467	3.619	1394681	PROB	3.619	n/a	n/a	-999	12	[7, 8, 3]	18	FR1	2	R1217T
1391.086	5.251	1398300	PROB	5.251	n/a	n/a	-999	12	[5, 5, 6]	16	FR1	2	R1217T
1396.337	6.642	1403550	PROB	6.642	n/a	n/a	-999	12	[9, 7, 4]	20	FR1	2	R1217T
1402.979	0.009	1410192	STOP	n/a	n/a	n/a	-999	12	[-999, -999, -999]	n/a	FR1	2	R1217T
1402.988	0.582	1410201	DISTRACT_END	n/a	n/a	n/a	-999	12	[0, 0, 0]	n/a	FR1	2	R1217T
1403.57	0.519	1410783	RETRIEVAL_ORIENT	n/a	n/a	n/a	-999	12	[0, 0, 0]	n/a	FR1	2	R1217T
1404.089	1.112	1411302	REC_START	n/a	n/a	n/a	-999	12	[0, 0, 0]	n/a	FR1	2	R1217T
1405.201	3.889	1412414	REC_WORD	3.889	n/a	ZOO	7	12	[0, 0, 0]	n/a	FR1	2	R1217T
1409.09	2.311	1416303	REC_WORD	2.311	n/a	TOE	12	12	[0, 0, 0]	n/a	FR1	2	R1217T
1411.401	9.933	1418613	REC_WORD	9.933	n/a	MULE	2	12	[0, 0, 0]	n/a	FR1	2	R1217T
1421.334	12.766	1428546	REC_WORD	12.766	n/a	CALF	-999	12	[0, 0, 0]	n/a	FR1	2	R1217T
1434.1	5.527	1441311	REC_END	n/a	n/a	n/a	-999	12	[0, 0, 0]	n/a	FR1	2	R1217T
1439.627	0.5	1446838	TRIAL	n/a	n/a	n/a	-999	13	[0, 0, 0]	n/a	FR1	2	R1217T
1440.127	10.428	1447338	COUNTDOWN_START	n/a	n/a	n/a	-999	13	[0, 0, 0]	n/a	FR1	2	R1217T
1450.555	0.007	1457765	COUNTDOWN_END	n/a	n/a	n/a	-999	13	[0, 0, 0]	n/a	FR1	2	R1217T
1450.562	1.618	1457772	ORIENT	n/a	n/a	n/a	-999	13	[0, 0, 0]	n/a	FR1	2	R1217T
1452.18	2.117	1459390	ORIENT_OFF	n/a	n/a	n/a	-999	13	[0, 0, 0]	n/a	FR1	2	R1217T
1454.297	1.616	1461507	WORD	n/a	wordpools/wordpool_EN.txt	SHRIMP	1	13	[0, 0, 0]	n/a	FR1	2	R1217T
1455.913	0.85	1463123	WORD_OFF	n/a	n/a	SHRIMP	1	13	[0, 0, 0]	n/a	FR1	2	R1217T
1456.763	1.618	1463973	WORD	n/a	wordpools/wordpool_EN.txt	HAT	2	13	[0, 0, 0]	n/a	FR1	2	R1217T
1458.381	0.984	1465591	WORD_OFF	n/a	n/a	HAT	2	13	[0, 0, 0]	n/a	FR1	2	R1217T
1459.365	1.617	1466574	WORD	n/a	wordpools/wordpool_EN.txt	BADGE	3	13	[0, 0, 0]	n/a	FR1	2	R1217T
1460.982	0.766	1468191	WORD_OFF	n/a	n/a	BADGE	3	13	[0, 0, 0]	n/a	FR1	2	R1217T
1461.748	1.618	1468957	WORD	n/a	wordpools/wordpool_EN.txt	POOL	4	13	[0, 0, 0]	n/a	FR1	2	R1217T
1463.366	0.95	1470575	WORD_OFF	n/a	n/a	POOL	4	13	[0, 0, 0]	n/a	FR1	2	R1217T
1464.316	1.616	1471525	WORD	n/a	wordpools/wordpool_EN.txt	DESK	5	13	[0, 0, 0]	n/a	FR1	2	R1217T
1465.932	0.85	1473141	WORD_OFF	n/a	n/a	DESK	5	13	[0, 0, 0]	n/a	FR1	2	R1217T
1466.782	1.618	1473991	WORD	n/a	wordpools/wordpool_EN.txt	FUR	6	13	[0, 0, 0]	n/a	FR1	2	R1217T
1468.4	0.867	1475609	WORD_OFF	n/a	n/a	FUR	6	13	[0, 0, 0]	n/a	FR1	2	R1217T
1469.267	1.616	1476476	WORD	n/a	wordpools/wordpool_EN.txt	DIME	7	13	[0, 0, 0]	n/a	FR1	2	R1217T
1470.883	0.983	1478092	WORD_OFF	n/a	n/a	DIME	7	13	[0, 0, 0]	n/a	FR1	2	R1217T
1471.866	1.617	1479075	WORD	n/a	wordpools/wordpool_EN.txt	FLEA	8	13	[0, 0, 0]	n/a	FR1	2	R1217T
1473.483	0.868	1480692	WORD_OFF	n/a	n/a	FLEA	8	13	[0, 0, 0]	n/a	FR1	2	R1217T
1474.351	1.617	1481560	WORD	n/a	wordpools/wordpool_EN.txt	MOTH	9	13	[0, 0, 0]	n/a	FR1	2	R1217T
1475.968	0.899	1483176	WORD_OFF	n/a	n/a	MOTH	9	13	[0, 0, 0]	n/a	FR1	2	R1217T
1476.867	1.617	1484075	WORD	n/a	wordpools/wordpool_EN.txt	HOOK	10	13	[0, 0, 0]	n/a	FR1	2	R1217T
1478.484	0.834	1485692	WORD_OFF	n/a	n/a	HOOK	10	13	[0, 0, 0]	n/a	FR1	2	R1217T
1479.318	1.616	1486526	WORD	n/a	wordpools/wordpool_EN.txt	ARK	11	13	[0, 0, 0]	n/a	FR1	2	R1217T
1480.934	0.934	1488142	WORD_OFF	n/a	n/a	ARK	11	13	[0, 0, 0]	n/a	FR1	2	R1217T
1481.868	1.617	1489076	WORD	n/a	wordpools/wordpool_EN.txt	CHALK	12	13	[0, 0, 0]	n/a	FR1	2	R1217T
1483.485	0.0	1490693	WORD_OFF	n/a	n/a	CHALK	12	13	[0, 0, 0]	n/a	FR1	2	R1217T
1483.485	0.001	1490693	DISTRACT_START	n/a	n/a	n/a	-999	13	[0, 0, 0]	n/a	FR1	2	R1217T
1483.486	0.016	1490694	START	n/a	n/a	n/a	-999	13	[-999, -999, -999]	n/a	FR1	2	R1217T
1483.502	6.201	1490710	PROB	6.201	n/a	n/a	-999	13	[5, 4, 6]	15	FR1	2	R1217T
1489.703	2.717	1496911	PROB	2.717	n/a	n/a	-999	13	[5, 3, 3]	11	FR1	2	R1217T
1492.42	2.935	1499627	PROB	2.935	n/a	n/a	-999	13	[9, 7, 5]	21	FR1	2	R1217T
1495.355	3.817	1502562	PROB	3.817	n/a	n/a	-999	13	[6, 7, 9]	22	FR1	2	R1217T
1499.172	3.299	1506379	PROB	3.299	n/a	n/a	-999	13	[5, 9, 9]	23	FR1	2	R1217T
1502.471	5.418	1509678	PROB	5.418	n/a	n/a	-999	13	[4, 1, 3]	8	FR1	2	R1217T
1507.889	0.017	1515096	STOP	n/a	n/a	n/a	-999	13	[-999, -999, -999]	n/a	FR1	2	R1217T
1507.906	0.533	1515113	DISTRACT_END	n/a	n/a	n/a	-999	13	[0, 0, 0]	n/a	FR1	2	R1217T
1508.439	0.518	1515646	RETRIEVAL_ORIENT	n/a	n/a	n/a	-999	13	[0, 0, 0]	n/a	FR1	2	R1217T
1508.957	30.0	1516163	REC_START	n/a	n/a	n/a	-999	13	[0, 0, 0]	n/a	FR1	2	R1217T
1538.957	0.011	1546162	REC_WORD_VV	0.011	n/a	<>	-999	13	[0, 0, 0]	n/a	FR1	2	R1217T
1538.968	6.246	1546173	REC_END	n/a	n/a	n/a	-999	13	[0, 0, 0]	n/a	FR1	2	R1217T
1545.214	0.5	1552418	TRIAL	n/a	n/a	n/a	-999	14	[0, 0, 0]	n/a	FR1	2	R1217T
1545.714	10.428	1552918	COUNTDOWN_START	n/a	n/a	n/a	-999	14	[0, 0, 0]	n/a	FR1	2	R1217T
1556.142	0.007	1563346	COUNTDOWN_END	n/a	n/a	n/a	-999	14	[0, 0, 0]	n/a	FR1	2	R1217T
1556.149	1.616	1563353	ORIENT	n/a	n/a	n/a	-999	14	[0, 0, 0]	n/a	FR1	2	R1217T
1557.765	1.984	1564969	ORIENT_OFF	n/a	n/a	n/a	-999	14	[0, 0, 0]	n/a	FR1	2	R1217T
1559.749	1.618	1566952	WORD	n/a	wordpools/wordpool_EN.txt	BAND	1	14	[0, 0, 0]	n/a	FR1	2	R1217T
1561.367	0.8	1568570	WORD_OFF	n/a	n/a	BAND	1	14	[0, 0, 0]	n/a	FR1	2	R1217T
1562.167	1.616	1569370	WORD	n/a	wordpools/wordpool_EN.txt	PALM	2	14	[0, 0, 0]	n/a	FR1	2	R1217T
1563.783	0.967	1570986	WORD_OFF	n/a	n/a	PALM	2	14	[0, 0, 0]	n/a	FR1	2	R1217T
1564.75	1.618	1571953	WORD	n/a	wordpools/wordpool_EN.txt	SINK	3	14	[0, 0, 0]	n/a	FR1	2	R1217T
1566.368	0.983	1573571	WORD_OFF	n/a	n/a	SINK	3	14	[0, 0, 0]	n/a	FR1	2	R1217T
1567.351	1.617	1574554	WORD	n/a	wordpools/wordpool_EN.txt	PIN	4	14	[0, 0, 0]	n/a	FR1	2	R1217T
1568.968	0.799	1576171	WORD_OFF	n/a	n/a	PIN	4	14	[0, 0, 0]	n/a	FR1	2	R1217T
1569.767	1.601	1576970	WORD	n/a	wordpools/wordpool_EN.txt	TRAY	5	14	[0, 0, 0]	n/a	FR1	2	R1217T
1571.368	1.001	1578571	WORD_OFF	n/a	n/a	TRAY	5	14	[0, 0, 0]	n/a	FR1	2	R1217T
1572.369	1.617	1579572	WORD	n/a	wordpools/wordpool_EN.txt	BRUSH	6	14	[0, 0, 0]	n/a	FR1	2	R1217T
1573.986	1.0	1581189	WORD_OFF	n/a	n/a	BRUSH	6	14	[0, 0, 0]	n/a	FR1	2	R1217T
1574.986	1.616	1582188	WORD	n/a	wordpools/wordpool_EN.txt	SMILE	7	14	[0, 0, 0]	n/a	FR1	2	R1217T
1576.602	0.833	1583804	WORD_OFF	n/a	n/a	SMILE	7	14	[0, 0, 0]	n/a	FR1	2	R1217T
1577.435	1.618	1584637	WORD	n/a	wordpools/wordpool_EN.txt	CHAIR	8	14	[0, 0, 0]	n/a	FR1	2	R1217T
1579.053	0.832	1586255	WORD_OFF	n/a	n/a	CHAIR	8	14	[0, 0, 0]	n/a	FR1	2	R1217T
1579.885	1.618	1587087	WORD	n/a	wordpools/wordpool_EN.txt	CAGE	9	14	[0, 0, 0]	n/a	FR1	2	R1217T
1581.503	0.784	1588705	WORD_OFF	n/a	n/a	CAGE	9	14	[0, 0, 0]	n/a	FR1	2	R1217T
1582.287	1.616	1589489	WORD	n/a	wordpools/wordpool_EN.txt	CUP	10	14	[0, 0, 0]	n/a	FR1	2	R1217T
1583.903	0.9	1591105	WORD_OFF	n/a	n/a	CUP	10	14	[0, 0, 0]	n/a	FR1	2	R1217T
1584.803	1.617	1592005	WORD	n/a	wordpools/wordpool_EN.txt	DUCK	11	14	[0, 0, 0]	n/a	FR1	2	R1217T
1586.42	0.835	1593622	WORD_OFF	n/a	n/a	DUCK	11	14	[0, 0, 0]	n/a	FR1	2	R1217T
1587.255	1.616	1594457	WORD	n/a	wordpools/wordpool_EN.txt	RIB	12	14	[0, 0, 0]	n/a	FR1	2	R1217T
1588.871	0.0	1596073	WORD_OFF	n/a	n/a	RIB	12	14	[0, 0, 0]	n/a	FR1	2	R1217T
1588.871	0.0	1596073	DISTRACT_START	n/a	n/a	n/a	-999	14	[0, 0, 0]	n/a	FR1	2	R1217T
1588.871	0.016	1596073	START	n/a	n/a	n/a	-999	14	[-999, -999, -999]	n/a	FR1	2	R1217T
1588.887	4.302	1596089	PROB	4.302	n/a	n/a	-999	14	[1, 9, 7]	17	FR1	2	R1217T
1593.189	4.951	1600390	PROB	4.951	n/a	n/a	-999	14	[2, 3, 2]	7	FR1	2	R1217T
1598.14	5.617	1605341	PROB	5.617	n/a	n/a	-999	14	[2, 8, 8]	18	FR1	2	R1217T
1603.757	3.401	1610958	PROB	3.401	n/a	n/a	-999	14	[7, 8, 8]	23	FR1	2	R1217T
1607.158	4.819	1614359	PROB	4.819	n/a	n/a	-999	14	[5, 5, 7]	19	FR1	2	R1217T
1611.977	0.016	1619177	STOP	n/a	n/a	n/a	-999	14	[-999, -999, -999]	n/a	FR1	2	R1217T
1611.993	0.682	1619193	DISTRACT_END	n/a	n/a	n/a	-999	14	[0, 0, 0]	n/a	FR1	2	R1217T
1612.675	0.519	1619875	RETRIEVAL_ORIENT	n/a	n/a	n/a	-999	14	[0, 0, 0]	n/a	FR1	2	R1217T
1613.194	3.536	1620394	REC_START	n/a	n/a	n/a	-999	14	[0, 0, 0]	n/a	FR1	2	R1217T
1616.73	4.635	1623930	REC_WORD	4.635	n/a	SPRING	-999	14	[0, 0, 0]	n/a	FR1	2	R1217T
1621.365	1.413	1628565	REC_WORD	1.413	n/a	RAIN	-999	14	[0, 0, 0]	n/a	FR1	2	R1217T
1622.778	20.426	1629978	REC_WORD	20.426	n/a	FUDGE	-999	14	[0, 0, 0]	n/a	FR1	2	R1217T
1643.204	241.905	1650402	REC_END	n/a	n/a	n/a	-999	14	[0, 0, 0]	n/a	FR1	2	R1217T
1885.109	0.5	1892293	TRIAL	n/a	n/a	n/a	-999	15	[0, 0, 0]	n/a	FR1	2	R1217T
1885.609	10.428	1892793	COUNTDOWN_START	n/a	n/a	n/a	-999	15	[0, 0, 0]	n/a	FR1	2	R1217T
1896.037	0.007	1903220	COUNTDOWN_END	n/a	n/a	n/a	-999	15	[0, 0, 0]	n/a	FR1	2	R1217T
1896.044	1.616	1903227	ORIENT	n/a	n/a	n/a	-999	15	[0, 0, 0]	n/a	FR1	2	R1217T
1897.66	2.15	1904843	ORIENT_OFF	n/a	n/a	n/a	-999	15	[0, 0, 0]	n/a	FR1	2	R1217T
1899.81	1.618	1906993	WORD	n/a	wordpools/wordpool_EN.txt	KITE	1	15	[0, 0, 0]	n/a	FR1	2	R1217T
1901.428	0.917	1908611	WORD_OFF	n/a	n/a	KITE	1	15	[0, 0, 0]	n/a	FR1	2	R1217T
1902.345	1.616	1909528	WORD	n/a	wordpools/wordpool_EN.txt	FOOT	2	15	[0, 0, 0]	n/a	FR1	2	R1217T
1903.961	0.817	1911144	WORD_OFF	n/a	n/a	FOOT	2	15	[0, 0, 0]	n/a	FR1	2	R1217T
1904.778	1.601	1911961	WORD	n/a	wordpools/wordpool_EN.txt	STOVE	3	15	[0, 0, 0]	n/a	FR1	2	R1217T
1906.379	0.951	1913562	WORD_OFF	n/a	n/a	STOVE	3	15	[0, 0, 0]	n/a	FR1	2	R1217T
1907.33	1.616	1914512	WORD	n/a	wordpools/wordpool_EN.txt	PEACH	4	15	[0, 0, 0]	n/a	FR1	2	R1217T
1908.946	0.85	1916128	WORD_OFF	n/a	n/a	PEACH	4	15	[0, 0, 0]	n/a	FR1	2	R1217T
1909.796	1.618	1916978	WORD	n/a	wordpools/wordpool_EN.txt	STOOL	5	15	[0, 0, 0]	n/a	FR1	2	R1217T
1911.414	0.933	1918596	WORD_OFF	n/a	n/a	STOOL	5	15	[0, 0, 0]	n/a	FR1	2	R1217T
1912.347	1.616	1919529	WORD	n/a	wordpools/wordpool_EN.txt	BROOM	6	15	[0, 0, 0]	n/a	FR1	2	R1217T
1913.963	0.8	1921145	WORD_OFF	n/a	n/a	BROOM	6	15	[0, 0, 0]	n/a	FR1	2	R1217T
1914.763	1.618	1921945	WORD	n/a	wordpools/wordpool_EN.txt	PLATE	7	15	[0, 0, 0]	n/a	FR1	2	R1217T
1916.381	1.0	1923563	WORD_OFF	n/a	n/a	PLATE	7	15	[0, 0, 0]	n/a	FR1	2	R1217T
1917.381	1.617	1924563	WORD	n/a	wordpools/wordpool_EN.txt	HOSE	8	15	[0, 0, 0]	n/a	FR1	2	R1217T
1918.998	0.883	1926180	WORD_OFF	n/a	n/a	HOSE	8	15	[0, 0, 0]	n/a	FR1	2	R1217T
1919.881	1.617	1927063	WORD	n/a	wordpools/wordpool_EN.txt	GLOVE	9	15	[0, 0, 0]	n/a	FR1	2	R1217T
1921.498	0.868	1928680	WORD_OFF	n/a	n/a	GLOVE	9	15	[0, 0, 0]	n/a	FR1	2	R1217T
1922.366	1.617	1929548	WORD	n/a	wordpools/wordpool_EN.txt	VINE	10	15	[0, 0, 0]	n/a	FR1	2	R1217T
1923.983	0.799	1931164	WORD_OFF	n/a	n/a	VINE	10	15	[0, 0, 0]	n/a	FR1	2	R1217T
1924.782	1.618	1931963	WORD	n/a	wordpools/wordpool_EN.txt	CAPE	11	15	[0, 0, 0]	n/a	FR1	2	R1217T
1926.4	0.867	1933581	WORD_OFF	n/a	n/a	CAPE	11	15	[0, 0, 0]	n/a	FR1	2	R1217T
1927.267	1.616	1934448	WORD	n/a	wordpools/wordpool_EN.txt	HORN	12	15	[0, 0, 0]	n/a	FR1	2	R1217T
1928.883	0.0	1936064	DISTRACT_START	n/a	n/a	n/a	-999	15	[0, 0, 0]	n/a	FR1	2	R1217T
1928.883	0.0	1936064	WORD_OFF	n/a	n/a	HORN	12	15	[0, 0, 0]	n/a	FR1	2	R1217T
1928.883	0.016	1936064	START	n/a	n/a	n/a	-999	15	[-999, -999, -999]	n/a	FR1	2	R1217T
1928.899	5.236	1936080	PROB	5.236	n/a	n/a	-999	15	[3, 6, 6]	15	FR1	2	R1217T
1934.135	4.0	1941316	PROB	4.0	n/a	n/a	-999	15	[4, 5, 8]	17	FR1	2	R1217T
1938.135	7.667	1945316	PROB	7.667	n/a	n/a	-999	15	[9, 9, 9]	27	FR1	2	R1217T
1945.802	3.193	1952982	PROB	3.193	n/a	n/a	-999	15	[2, 9, 4]	15	FR1	2	R1217T
1948.995	0.009	1956175	STOP	n/a	n/a	n/a	-999	15	[-999, -999, -999]	n/a	FR1	2	R1217T
1949.004	0.666	1956184	DISTRACT_END	n/a	n/a	n/a	-999	15	[0, 0, 0]	n/a	FR1	2	R1217T
1949.67	0.518	1956850	RETRIEVAL_ORIENT	n/a	n/a	n/a	-999	15	[0, 0, 0]	n/a	FR1	2	R1217T
1950.188	1.02	1957368	REC_START	n/a	n/a	n/a	-999	15	[0, 0, 0]	n/a	FR1	2	R1217T
1951.208	0.841	1958388	REC_WORD	0.841	n/a	VINE	10	15	[0, 0, 0]	n/a	FR1	2	R1217T
1952.049	7.613	1959229	REC_WORD	7.613	n/a	CAPE	11	15	[0, 0, 0]	n/a	FR1	2	R1217T
1959.662	7.309	1966841	REC_WORD	7.309	n/a	HORSE	-999	15	[0, 0, 0]	n/a	FR1	2	R1217T
1966.971	13.227	1974150	REC_WORD	13.227	n/a	TRAIL	-999	15	[0, 0, 0]	n/a	FR1	2	R1217T
1980.198	5.096	1987376	REC_END	n/a	n/a	n/a	-999	15	[0, 0, 0]	n/a	FR1	2	R1217T
1985.294	0.5	1992472	TRIAL	n/a	n/a	n/a	-999	16	[0, 0, 0]	n/a	FR1	2	R1217T
1985.794	10.428	1992972	COUNTDOWN_START	n/a	n/a	n/a	-999	16	[0, 0, 0]	n/a	FR1	2	R1217T
1996.222	0.007	2003399	COUNTDOWN_END	n/a	n/a	n/a	-999	16	[0, 0, 0]	n/a	FR1	2	R1217T
1996.229	1.616	2003406	ORIENT	n/a	n/a	n/a	-999	16	[0, 0, 0]	n/a	FR1	2	R1217T
1997.845	1.95	2005022	ORIENT_OFF	n/a	n/a	n/a	-999	16	[0, 0, 0]	n/a	FR1	2	R1217T
1999.795	1.618	2006972	WORD	n/a	wordpools/wordpool_EN.txt	FISH	1	16	[0, 0, 0]	n/a	FR1	2	R1217T
2001.413	0.867	2008590	WORD_OFF	n/a	n/a	FISH	1	16	[0, 0, 0]	n/a	FR1	2	R1217T
2002.28	1.616	2009457	WORD	n/a	wordpools/wordpool_EN.txt	CHIEF	2	16	[0, 0, 0]	n/a	FR1	2	R1217T
2003.896	0.85	2011073	WORD_OFF	n/a	n/a	CHIEF	2	16	[0, 0, 0]	n/a	FR1	2	R1217T
2004.746	1.618	2011923	WORD	n/a	wordpools/wordpool_EN.txt	MAIL	3	16	[0, 0, 0]	n/a	FR1	2	R1217T
2006.364	0.817	2013540	WORD_OFF	n/a	n/a	MAIL	3	16	[0, 0, 0]	n/a	FR1	2	R1217T
2007.181	1.616	2014357	WORD	n/a	wordpools/wordpool_EN.txt	SKUNK	4	16	[0, 0, 0]	n/a	FR1	2	R1217T
2008.797	1.017	2015973	WORD_OFF	n/a	n/a	SKUNK	4	16	[0, 0, 0]	n/a	FR1	2	R1217T
2009.814	1.617	2016990	WORD	n/a	wordpools/wordpool_EN.txt	WORLD	5	16	[0, 0, 0]	n/a	FR1	2	R1217T
2011.431	0.951	2018607	WORD_OFF	n/a	n/a	WORLD	5	16	[0, 0, 0]	n/a	FR1	2	R1217T
2012.382	1.617	2019558	WORD	n/a	wordpools/wordpool_EN.txt	CHEEK	6	16	[0, 0, 0]	n/a	FR1	2	R1217T
2013.999	0.949	2021175	WORD_OFF	n/a	n/a	CHEEK	6	16	[0, 0, 0]	n/a	FR1	2	R1217T
2014.948	1.617	2022124	WORD	n/a	wordpools/wordpool_EN.txt	SHIP	7	16	[0, 0, 0]	n/a	FR1	2	R1217T
2016.565	0.801	2023741	WORD_OFF	n/a	n/a	SHIP	7	16	[0, 0, 0]	n/a	FR1	2	R1217T
2017.366	1.617	2024542	WORD	n/a	wordpools/wordpool_EN.txt	CASH	8	16	[0, 0, 0]	n/a	FR1	2	R1217T
2018.983	0.766	2026159	WORD_OFF	n/a	n/a	CASH	8	16	[0, 0, 0]	n/a	FR1	2	R1217T
2019.749	1.618	2026925	WORD	n/a	wordpools/wordpool_EN.txt	TENT	9	16	[0, 0, 0]	n/a	FR1	2	R1217T
2021.367	0.817	2028543	WORD_OFF	n/a	n/a	TENT	9	16	[0, 0, 0]	n/a	FR1	2	R1217T
2022.184	1.616	2029360	WORD	n/a	wordpools/wordpool_EN.txt	RAIN	10	16	[0, 0, 0]	n/a	FR1	2	R1217T
2023.8	1.017	2030975	WORD_OFF	n/a	n/a	RAIN	10	16	[0, 0, 0]	n/a	FR1	2	R1217T
2024.817	1.617	2031992	WORD	n/a	wordpools/wordpool_EN.txt	PARK	11	16	[0, 0, 0]	n/a	FR1	2	R1217T
2026.434	0.801	2033609	WORD_OFF	n/a	n/a	PARK	11	16	[0, 0, 0]	n/a	FR1	2	R1217T
2027.235	1.616	2034410	WORD	n/a	wordpools/wordpool_EN.txt	KEY	12	16	[0, 0, 0]	n/a	FR1	2	R1217T
2028.851	0.0	2036026	WORD_OFF	n/a	n/a	KEY	12	16	[0, 0, 0]	n/a	FR1	2	R1217T
2028.851	0.0	2036026	DISTRACT_START	n/a	n/a	n/a	-999	16	[0, 0, 0]	n/a	FR1	2	R1217T
2028.851	0.016	2036026	START	n/a	n/a	n/a	-999	16	[-999, -999, -999]	n/a	FR1	2	R1217T
2028.867	3.402	2036042	PROB	3.402	n/a	n/a	-999	16	[2, 3, 7]	12	FR1	2	R1217T
2032.269	3.366	2039444	PROB	3.366	n/a	n/a	-999	16	[9, 6, 4]	19	FR1	2	R1217T
2035.635	4.935	2042810	PROB	4.935	n/a	n/a	-999	16	[5, 1, 9]	15	FR1	2	R1217T
2040.57	3.25	2047744	PROB	3.25	n/a	n/a	-999	16	[3, 3, 5]	11	FR1	2	R1217T
2043.82	3.634	2050994	PROB	3.634	n/a	n/a	-999	16	[9, 3, 3]	15	FR1	2	R1217T
2047.454	3.877	2054628	PROB	3.877	n/a	n/a	-999	16	[8, 3, 7]	18	FR1	2	R1217T
2051.331	0.008	2058505	STOP	n/a	n/a	n/a	-999	16	[-999, -999, -999]	n/a	FR1	2	R1217T
2051.339	0.65	2058513	DISTRACT_END	n/a	n/a	n/a	-999	16	[0, 0, 0]	n/a	FR1	2	R1217T
2051.989	0.517	2059163	RETRIEVAL_ORIENT	n/a	n/a	n/a	-999	16	[0, 0, 0]	n/a	FR1	2	R1217T
2052.506	1.208	2059680	REC_START	n/a	n/a	n/a	-999	16	[0, 0, 0]	n/a	FR1	2	R1217T
2053.714	0.757	2060888	REC_WORD	0.757	n/a	FISH	1	16	[0, 0, 0]	n/a	FR1	2	R1217T
2054.471	2.658	2061645	REC_WORD	2.658	n/a	TAIL	-999	16	[0, 0, 0]	n/a	FR1	2	R1217T
2057.129	15.595	2064302	REC_WORD	15.595	n/a	SNAIL	-999	16	[0, 0, 0]	n/a	FR1	2	R1217T
2072.724	9.793	2079896	REC_WORD	9.793	n/a	WRENCH	-999	16	[0, 0, 0]	n/a	FR1	2	R1217T
2082.517	5.829	2089689	REC_END	n/a	n/a	n/a	-999	16	[0, 0, 0]	n/a	FR1	2	R1217T
2088.346	0.5	2095518	TRIAL	n/a	n/a	n/a	-999	17	[0, 0, 0]	n/a	FR1	2	R1217T
2088.846	10.428	2096018	COUNTDOWN_START	n/a	n/a	n/a	-999	17	[0, 0, 0]	n/a	FR1	2	R1217T
2099.274	0.007	2106445	COUNTDOWN_END	n/a	n/a	n/a	-999	17	[0, 0, 0]	n/a	FR1	2	R1217T
2099.281	1.616	2106452	ORIENT	n/a	n/a	n/a	-999	17	[0, 0, 0]	n/a	FR1	2	R1217T
2100.897	2.202	2108068	ORIENT_OFF	n/a	n/a	n/a	-999	17	[0, 0, 0]	n/a	FR1	2	R1217T
2103.099	1.616	2110270	WORD	n/a	wordpools/wordpool_EN.txt	WHALE	1	17	[0, 0, 0]	n/a	FR1	2	R1217T
2104.715	0.966	2111886	WORD_OFF	n/a	n/a	WHALE	1	17	[0, 0, 0]	n/a	FR1	2	R1217T
2105.681	1.601	2112851	WORD	n/a	wordpools/wordpool_EN.txt	WING	2	17	[0, 0, 0]	n/a	FR1	2	R1217T
2107.282	1.001	2114452	WORD_OFF	n/a	n/a	WING	2	17	[0, 0, 0]	n/a	FR1	2	R1217T
2108.283	1.616	2115453	WORD	n/a	wordpools/wordpool_EN.txt	LAWN	3	17	[0, 0, 0]	n/a	FR1	2	R1217T
2109.899	0.9	2117069	WORD_OFF	n/a	n/a	LAWN	3	17	[0, 0, 0]	n/a	FR1	2	R1217T
2110.799	1.618	2117969	WORD	n/a	wordpools/wordpool_EN.txt	FRUIT	4	17	[0, 0, 0]	n/a	FR1	2	R1217T
2112.417	0.867	2119587	WORD_OFF	n/a	n/a	FRUIT	4	17	[0, 0, 0]	n/a	FR1	2	R1217T
2113.284	1.616	2120454	WORD	n/a	wordpools/wordpool_EN.txt	PEAR	5	17	[0, 0, 0]	n/a	FR1	2	R1217T
2114.9	0.917	2122070	WORD_OFF	n/a	n/a	PEAR	5	17	[0, 0, 0]	n/a	FR1	2	R1217T
2115.817	1.617	2122987	WORD	n/a	wordpools/wordpool_EN.txt	GEESE	6	17	[0, 0, 0]	n/a	FR1	2	R1217T
2117.434	0.917	2124604	WORD_OFF	n/a	n/a	GEESE	6	17	[0, 0, 0]	n/a	FR1	2	R1217T
2118.351	1.617	2125521	WORD	n/a	wordpools/wordpool_EN.txt	NEST	7	17	[0, 0, 0]	n/a	FR1	2	R1217T
2119.968	0.883	2127138	WORD_OFF	n/a	n/a	NEST	7	17	[0, 0, 0]	n/a	FR1	2	R1217T
2120.851	1.617	2128021	WORD	n/a	wordpools/wordpool_EN.txt	SHEEP	8	17	[0, 0, 0]	n/a	FR1	2	R1217T
2122.468	0.983	2129637	WORD_OFF	n/a	n/a	SHEEP	8	17	[0, 0, 0]	n/a	FR1	2	R1217T
2123.451	1.601	2130620	WORD	n/a	wordpools/wordpool_EN.txt	SUN	9	17	[0, 0, 0]	n/a	FR1	2	R1217T
2125.052	0.934	2132221	WORD_OFF	n/a	n/a	SUN	9	17	[0, 0, 0]	n/a	FR1	2	R1217T
2125.986	1.616	2133155	WORD	n/a	wordpools/wordpool_EN.txt	SNAKE	10	17	[0, 0, 0]	n/a	FR1	2	R1217T
2127.602	0.95	2134771	WORD_OFF	n/a	n/a	SNAKE	10	17	[0, 0, 0]	n/a	FR1	2	R1217T
2128.552	1.618	2135721	WORD	n/a	wordpools/wordpool_EN.txt	BLOOM	11	17	[0, 0, 0]	n/a	FR1	2	R1217T
2130.17	0.934	2137339	WORD_OFF	n/a	n/a	BLOOM	11	17	[0, 0, 0]	n/a	FR1	2	R1217T
2131.104	1.616	2138273	WORD	n/a	wordpools/wordpool_EN.txt	BALL	12	17	[0, 0, 0]	n/a	FR1	2	R1217T
2132.72	0.0	2139889	WORD_OFF	n/a	n/a	BALL	12	17	[0, 0, 0]	n/a	FR1	2	R1217T
2132.72	0.0	2139889	DISTRACT_START	n/a	n/a	n/a	-999	17	[0, 0, 0]	n/a	FR1	2	R1217T
2132.72	0.016	2139889	START	n/a	n/a	n/a	-999	17	[-999, -999, -999]	n/a	FR1	2	R1217T
2132.736	3.968	2139905	PROB	3.968	n/a	n/a	-999	17	[2, 6, 7]	15	FR1	2	R1217T
2136.704	3.385	2143873	PROB	3.385	n/a	n/a	-999	17	[3, 2, 5]	10	FR1	2	R1217T
2140.089	5.45	2147257	PROB	5.45	n/a	n/a	-999	17	[1, 6, 3]	10	FR1	2	R1217T
2145.539	4.95	2152707	PROB	4.95	n/a	n/a	-999	17	[7, 4, 4]	3	FR1	2	R1217T
2150.489	9.896	2157657	PROB	9.896	n/a	n/a	-999	17	[8, 3, 9]	20	FR1	2	R1217T
2160.385	0.007	2167552	STOP	n/a	n/a	n/a	-999	17	[-999, -999, -999]	n/a	FR1	2	R1217T
2160.392	0.601	2167559	DISTRACT_END	n/a	n/a	n/a	-999	17	[0, 0, 0]	n/a	FR1	2	R1217T
2160.993	0.516	2168160	RETRIEVAL_ORIENT	n/a	n/a	n/a	-999	17	[0, 0, 0]	n/a	FR1	2	R1217T
2161.509	2.586	2168676	REC_START	n/a	n/a	n/a	-999	17	[0, 0, 0]	n/a	FR1	2	R1217T
2164.095	0.998	2171262	REC_WORD	0.998	n/a	WHALE	1	17	[0, 0, 0]	n/a	FR1	2	R1217T
2165.093	1.412	2172260	REC_WORD	1.412	n/a	TAIL	-999	17	[0, 0, 0]	n/a	FR1	2	R1217T
2166.505	4.603	2173672	REC_WORD	4.603	n/a	SNAIL	-999	17	[0, 0, 0]	n/a	FR1	2	R1217T
2171.108	13.534	2178275	REC_WORD	13.534	n/a	SNAKE	10	17	[0, 0, 0]	n/a	FR1	2	R1217T
2184.642	1.805	2191808	REC_WORD	1.805	n/a	GEESE	6	17	[0, 0, 0]	n/a	FR1	2	R1217T
2186.447	5.072	2193613	REC_WORD	5.072	n/a	SHEEP	8	17	[0, 0, 0]	n/a	FR1	2	R1217T
2191.519	6.396	2198684	REC_END	n/a	n/a	n/a	-999	17	[0, 0, 0]	n/a	FR1	2	R1217T
2197.915	0.5	2205080	TRIAL	n/a	n/a	n/a	-999	18	[0, 0, 0]	n/a	FR1	2	R1217T
2198.415	10.428	2205580	COUNTDOWN_START	n/a	n/a	n/a	-999	18	[0, 0, 0]	n/a	FR1	2	R1217T
2208.843	0.007	2216007	COUNTDOWN_END	n/a	n/a	n/a	-999	18	[0, 0, 0]	n/a	FR1	2	R1217T
2208.85	1.617	2216014	ORIENT	n/a	n/a	n/a	-999	18	[0, 0, 0]	n/a	FR1	2	R1217T
2210.467	2.067	2217631	ORIENT_OFF	n/a	n/a	n/a	-999	18	[0, 0, 0]	n/a	FR1	2	R1217T
2212.534	1.618	2219698	WORD	n/a	wordpools/wordpool_EN.txt	GLASS	1	18	[0, 0, 0]	n/a	FR1	2	R1217T
2214.152	0.85	2221316	WORD_OFF	n/a	n/a	GLASS	1	18	[0, 0, 0]	n/a	FR1	2	R1217T
2215.002	1.616	2222166	WORD	n/a	wordpools/wordpool_EN.txt	MUD	2	18	[0, 0, 0]	n/a	FR1	2	R1217T
2216.618	0.917	2223782	WORD_OFF	n/a	n/a	MUD	2	18	[0, 0, 0]	n/a	FR1	2	R1217T
2217.535	1.601	2224699	WORD	n/a	wordpools/wordpool_EN.txt	BED	3	18	[0, 0, 0]	n/a	FR1	2	R1217T
2219.136	0.851	2226300	WORD_OFF	n/a	n/a	BED	3	18	[0, 0, 0]	n/a	FR1	2	R1217T
2219.987	1.616	2227151	WORD	n/a	wordpools/wordpool_EN.txt	SHARK	4	18	[0, 0, 0]	n/a	FR1	2	R1217T
2221.603	0.883	2228767	WORD_OFF	n/a	n/a	SHARK	4	18	[0, 0, 0]	n/a	FR1	2	R1217T
2222.486	1.618	2229649	WORD	n/a	wordpools/wordpool_EN.txt	LEG	5	18	[0, 0, 0]	n/a	FR1	2	R1217T
2224.104	0.883	2231267	WORD_OFF	n/a	n/a	LEG	5	18	[0, 0, 0]	n/a	FR1	2	R1217T
2224.987	1.616	2232150	WORD	n/a	wordpools/wordpool_EN.txt	FOOD	6	18	[0, 0, 0]	n/a	FR1	2	R1217T
2226.603	0.934	2233766	WORD_OFF	n/a	n/a	FOOD	6	18	[0, 0, 0]	n/a	FR1	2	R1217T
2227.537	1.618	2234700	WORD	n/a	wordpools/wordpool_EN.txt	NOSE	7	18	[0, 0, 0]	n/a	FR1	2	R1217T
2229.155	0.933	2236318	WORD_OFF	n/a	n/a	NOSE	7	18	[0, 0, 0]	n/a	FR1	2	R1217T
2230.088	1.616	2237251	WORD	n/a	wordpools/wordpool_EN.txt	WORM	8	18	[0, 0, 0]	n/a	FR1	2	R1217T
2231.704	0.984	2238867	WORD_OFF	n/a	n/a	WORM	8	18	[0, 0, 0]	n/a	FR1	2	R1217T
2232.688	1.618	2239851	WORD	n/a	wordpools/wordpool_EN.txt	FACE	9	18	[0, 0, 0]	n/a	FR1	2	R1217T
2234.306	0.767	2241469	WORD_OFF	n/a	n/a	FACE	9	18	[0, 0, 0]	n/a	FR1	2	R1217T
2235.073	1.616	2242236	WORD	n/a	wordpools/wordpool_EN.txt	BENCH	10	18	[0, 0, 0]	n/a	FR1	2	R1217T
2236.689	0.983	2243852	WORD_OFF	n/a	n/a	BENCH	10	18	[0, 0, 0]	n/a	FR1	2	R1217T
2237.672	1.618	2244835	WORD	n/a	wordpools/wordpool_EN.txt	BOWL	11	18	[0, 0, 0]	n/a	FR1	2	R1217T
2239.29	0.9	2246452	WORD_OFF	n/a	n/a	BOWL	11	18	[0, 0, 0]	n/a	FR1	2	R1217T
2240.19	1.616	2247352	WORD	n/a	wordpools/wordpool_EN.txt	HILL	12	18	[0, 0, 0]	n/a	FR1	2	R1217T
2241.806	0.0	2248968	WORD_OFF	n/a	n/a	HILL	12	18	[0, 0, 0]	n/a	FR1	2	R1217T
2241.806	0.001	2248968	DISTRACT_START	n/a	n/a	n/a	-999	18	[0, 0, 0]	n/a	FR1	2	R1217T
2241.807	0.016	2248969	START	n/a	n/a	n/a	-999	18	[-999, -999, -999]	n/a	FR1	2	R1217T
2241.823	5.017	2248985	PROB	5.017	n/a	n/a	-999	18	[2, 3, 4]	9	FR1	2	R1217T
2246.84	3.385	2254002	PROB	3.385	n/a	n/a	-999	18	[4, 1, 2]	8	FR1	2	R1217T
2250.225	3.801	2257387	PROB	3.801	n/a	n/a	-999	18	[6, 4, 7]	17	FR1	2	R1217T
2254.026	4.151	2261188	PROB	4.151	n/a	n/a	-999	18	[1, 8, 4]	13	FR1	2	R1217T
2258.177	3.824	2265338	PROB	3.824	n/a	n/a	-999	18	[5, 6, 7]	18	FR1	2	R1217T
2262.001	0.01	2269162	STOP	n/a	n/a	n/a	-999	18	[-999, -999, -999]	n/a	FR1	2	R1217T
2262.011	0.699	2269172	DISTRACT_END	n/a	n/a	n/a	-999	18	[0, 0, 0]	n/a	FR1	2	R1217T
2262.71	0.519	2269871	RETRIEVAL_ORIENT	n/a	n/a	n/a	-999	18	[0, 0, 0]	n/a	FR1	2	R1217T
2263.229	4.896	2270390	REC_START	n/a	n/a	n/a	-999	18	[0, 0, 0]	n/a	FR1	2	R1217T
2268.125	1.002	2275286	REC_WORD	1.002	n/a	GLASS	1	18	[0, 0, 0]	n/a	FR1	2	R1217T
2269.127	2.465	2276288	REC_WORD	2.465	n/a	BOWL	11	18	[0, 0, 0]	n/a	FR1	2	R1217T
2271.592	21.647	2278752	REC_WORD	21.647	n/a	PLATE	-999	18	[0, 0, 0]	n/a	FR1	2	R1217T
2293.239	16.463	2300398	REC_END	n/a	n/a	n/a	-999	18	[0, 0, 0]	n/a	FR1	2	R1217T
2309.702	0.5	2316860	TRIAL	n/a	n/a	n/a	-999	19	[0, 0, 0]	n/a	FR1	2	R1217T
2310.202	10.428	2317360	COUNTDOWN_START	n/a	n/a	n/a	-999	19	[0, 0, 0]	n/a	FR1	2	R1217T
2320.63	0.007	2327788	COUNTDOWN_END	n/a	n/a	n/a	-999	19	[0, 0, 0]	n/a	FR1	2	R1217T
2320.637	1.601	2327795	ORIENT	n/a	n/a	n/a	-999	19	[0, 0, 0]	n/a	FR1	2	R1217T
2322.238	2.117	2329395	ORIENT_OFF	n/a	n/a	n/a	-999	19	[0, 0, 0]	n/a	FR1	2	R1217T
2324.355	1.618	2331512	WORD	n/a	wordpools/wordpool_EN.txt	DITCH	1	19	[0, 0, 0]	n/a	FR1	2	R1217T
2325.973	0.965	2333130	WORD_OFF	n/a	n/a	DITCH	1	19	[0, 0, 0]	n/a	FR1	2	R1217T
2326.938	1.617	2334095	WORD	n/a	wordpools/wordpool_EN.txt	FLAG	2	19	[0, 0, 0]	n/a	FR1	2	R1217T
2328.555	0.835	2335712	WORD_OFF	n/a	n/a	FLAG	2	19	[0, 0, 0]	n/a	FR1	2	R1217T
2329.39	1.617	2336547	WORD	n/a	wordpools/wordpool_EN.txt	ELF	3	19	[0, 0, 0]	n/a	FR1	2	R1217T
2331.007	0.983	2338164	WORD_OFF	n/a	n/a	ELF	3	19	[0, 0, 0]	n/a	FR1	2	R1217T
2331.99	1.616	2339147	WORD	n/a	wordpools/wordpool_EN.txt	CLAY	4	19	[0, 0, 0]	n/a	FR1	2	R1217T
2333.606	0.817	2340763	WORD_OFF	n/a	n/a	CLAY	4	19	[0, 0, 0]	n/a	FR1	2	R1217T
2334.423	1.601	2341580	WORD	n/a	wordpools/wordpool_EN.txt	FLOOR	5	19	[0, 0, 0]	n/a	FR1	2	R1217T
2336.024	0.8	2343181	WORD_OFF	n/a	n/a	FLOOR	5	19	[0, 0, 0]	n/a	FR1	2	R1217T
2336.824	1.617	2343981	WORD	n/a	wordpools/wordpool_EN.txt	TREE	6	19	[0, 0, 0]	n/a	FR1	2	R1217T
2338.441	1.0	2345597	WORD_OFF	n/a	n/a	TREE	6	19	[0, 0, 0]	n/a	FR1	2	R1217T
2339.441	1.618	2346597	WORD	n/a	wordpools/wordpool_EN.txt	TAIL	7	19	[0, 0, 0]	n/a	FR1	2	R1217T
2341.059	0.899	2348215	WORD_OFF	n/a	n/a	TAIL	7	19	[0, 0, 0]	n/a	FR1	2	R1217T
2341.958	1.617	2349114	WORD	n/a	wordpools/wordpool_EN.txt	TRUCK	8	19	[0, 0, 0]	n/a	FR1	2	R1217T
2343.575	1.0	2350731	WORD_OFF	n/a	n/a	TRUCK	8	19	[0, 0, 0]	n/a	FR1	2	R1217T
2344.575	1.618	2351731	WORD	n/a	wordpools/wordpool_EN.txt	SQUARE	9	19	[0, 0, 0]	n/a	FR1	2	R1217T
2346.193	0.9	2353349	WORD_OFF	n/a	n/a	SQUARE	9	19	[0, 0, 0]	n/a	FR1	2	R1217T
2347.093	1.616	2354249	WORD	n/a	wordpools/wordpool_EN.txt	JUDGE	10	19	[0, 0, 0]	n/a	FR1	2	R1217T
2348.709	0.9	2355865	WORD_OFF	n/a	n/a	JUDGE	10	19	[0, 0, 0]	n/a	FR1	2	R1217T
2349.609	1.618	2356765	WORD	n/a	wordpools/wordpool_EN.txt	PLANE	11	19	[0, 0, 0]	n/a	FR1	2	R1217T
2351.227	0.8	2358383	WORD_OFF	n/a	n/a	PLANE	11	19	[0, 0, 0]	n/a	FR1	2	R1217T
2352.027	1.616	2359183	WORD	n/a	wordpools/wordpool_EN.txt	FOX	12	19	[0, 0, 0]	n/a	FR1	2	R1217T
2353.643	0.0	2360799	WORD_OFF	n/a	n/a	FOX	12	19	[0, 0, 0]	n/a	FR1	2	R1217T
2353.643	0.001	2360799	DISTRACT_START	n/a	n/a	n/a	-999	19	[0, 0, 0]	n/a	FR1	2	R1217T
2353.644	0.016	2360800	START	n/a	n/a	n/a	-999	19	[-999, -999, -999]	n/a	FR1	2	R1217T
2353.66	6.502	2360816	PROB	6.502	n/a	n/a	-999	19	[7, 9, 2]	18	FR1	2	R1217T
2360.162	4.683	2367317	PROB	4.683	n/a	n/a	-999	19	[6, 8, 5]	19	FR1	2	R1217T
2364.845	4.851	2372000	PROB	4.851	n/a	n/a	-999	19	[1, 3, 2]	6	FR1	2	R1217T
2369.696	3.502	2376851	PROB	3.502	n/a	n/a	-999	19	[2, 7, 7]	16	FR1	2	R1217T
2373.198	7.035	2380352	PROB	7.035	n/a	n/a	-999	19	[4, 7, 4]	15	FR1	2	R1217T
2380.233	0.016	2387387	STOP	n/a	n/a	n/a	-999	19	[-999, -999, -999]	n/a	FR1	2	R1217T
2380.249	0.582	2387403	DISTRACT_END	n/a	n/a	n/a	-999	19	[0, 0, 0]	n/a	FR1	2	R1217T
2380.831	0.519	2387985	RETRIEVAL_ORIENT	n/a	n/a	n/a	-999	19	[0, 0, 0]	n/a	FR1	2	R1217T
2381.35	8.765	2388504	REC_START	n/a	n/a	n/a	-999	19	[0, 0, 0]	n/a	FR1	2	R1217T
2390.115	1.418	2397268	REC_WORD	1.418	n/a	TREE	6	19	[0, 0, 0]	n/a	FR1	2	R1217T
2391.533	19.827	2398686	REC_WORD	19.827	n/a	TAIL	7	19	[0, 0, 0]	n/a	FR1	2	R1217T
2411.36	4.244	2418512	REC_END	n/a	n/a	n/a	-999	19	[0, 0, 0]	n/a	FR1	2	R1217T
2415.604	0.5	2422756	TRIAL	n/a	n/a	n/a	-999	20	[0, 0, 0]	n/a	FR1	2	R1217T
2416.104	10.428	2423256	COUNTDOWN_START	n/a	n/a	n/a	-999	20	[0, 0, 0]	n/a	FR1	2	R1217T
2426.532	0.008	2433683	COUNTDOWN_END	n/a	n/a	n/a	-999	20	[0, 0, 0]	n/a	FR1	2	R1217T
2426.54	1.618	2433691	ORIENT	n/a	n/a	n/a	-999	20	[0, 0, 0]	n/a	FR1	2	R1217T
2428.158	2.084	2435309	ORIENT_OFF	n/a	n/a	n/a	-999	20	[0, 0, 0]	n/a	FR1	2	R1217T
2430.242	1.615	2437393	WORD	n/a	wordpools/wordpool_EN.txt	JEEP	1	20	[0, 0, 0]	n/a	FR1	2	R1217T
2431.857	0.801	2439008	WORD_OFF	n/a	n/a	JEEP	1	20	[0, 0, 0]	n/a	FR1	2	R1217T
2432.658	1.618	2439809	WORD	n/a	wordpools/wordpool_EN.txt	SLIME	2	20	[0, 0, 0]	n/a	FR1	2	R1217T
2434.276	0.816	2441427	WORD_OFF	n/a	n/a	SLIME	2	20	[0, 0, 0]	n/a	FR1	2	R1217T
2435.092	1.616	2442243	WORD	n/a	wordpools/wordpool_EN.txt	RAKE	3	20	[0, 0, 0]	n/a	FR1	2	R1217T
2436.708	0.917	2443859	WORD_OFF	n/a	n/a	RAKE	3	20	[0, 0, 0]	n/a	FR1	2	R1217T
2437.625	1.601	2444775	WORD	n/a	wordpools/wordpool_EN.txt	GOLD	4	20	[0, 0, 0]	n/a	FR1	2	R1217T
2439.226	0.901	2446376	WORD_OFF	n/a	n/a	GOLD	4	20	[0, 0, 0]	n/a	FR1	2	R1217T
2440.127	1.616	2447277	WORD	n/a	wordpools/wordpool_EN.txt	OAK	5	20	[0, 0, 0]	n/a	FR1	2	R1217T
2441.743	0.917	2448893	WORD_OFF	n/a	n/a	OAK	5	20	[0, 0, 0]	n/a	FR1	2	R1217T
2442.66	1.617	2449810	WORD	n/a	wordpools/wordpool_EN.txt	STEAM	6	20	[0, 0, 0]	n/a	FR1	2	R1217T
2444.277	0.967	2451427	WORD_OFF	n/a	n/a	STEAM	6	20	[0, 0, 0]	n/a	FR1	2	R1217T
2445.244	1.616	2452394	WORD	n/a	wordpools/wordpool_EN.txt	SHEET	7	20	[0, 0, 0]	n/a	FR1	2	R1217T
2446.86	0.817	2454010	WORD_OFF	n/a	n/a	SHEET	7	20	[0, 0, 0]	n/a	FR1	2	R1217T
2447.677	1.618	2454827	WORD	n/a	wordpools/wordpool_EN.txt	SOAP	8	20	[0, 0, 0]	n/a	FR1	2	R1217T
2449.295	0.767	2456445	WORD_OFF	n/a	n/a	SOAP	8	20	[0, 0, 0]	n/a	FR1	2	R1217T
2450.062	1.616	2457212	WORD	n/a	wordpools/wordpool_EN.txt	BAG	9	20	[0, 0, 0]	n/a	FR1	2	R1217T
2451.678	0.85	2458828	WORD_OFF	n/a	n/a	BAG	9	20	[0, 0, 0]	n/a	FR1	2	R1217T
2452.528	1.618	2459678	WORD	n/a	wordpools/wordpool_EN.txt	BRANCH	10	20	[0, 0, 0]	n/a	FR1	2	R1217T
2454.146	0.782	2461295	WORD_OFF	n/a	n/a	BRANCH	10	20	[0, 0, 0]	n/a	FR1	2	R1217T
2454.928	1.617	2462077	WORD	n/a	wordpools/wordpool_EN.txt	DRUM	11	20	[0, 0, 0]	n/a	FR1	2	R1217T
2456.545	0.917	2463694	WORD_OFF	n/a	n/a	DRUM	11	20	[0, 0, 0]	n/a	FR1	2	R1217T
2457.462	1.618	2464611	WORD	n/a	wordpools/wordpool_EN.txt	SHIRT	12	20	[0, 0, 0]	n/a	FR1	2	R1217T
2459.08	0.0	2466229	WORD_OFF	n/a	n/a	SHIRT	12	20	[0, 0, 0]	n/a	FR1	2	R1217T
2459.08	0.001	2466229	DISTRACT_START	n/a	n/a	n/a	-999	20	[0, 0, 0]	n/a	FR1	2	R1217T
2459.081	0.016	2466230	START	n/a	n/a	n/a	-999	20	[-999, -999, -999]	n/a	FR1	2	R1217T
2459.097	4.034	2466246	PROB	4.034	n/a	n/a	-999	20	[6, 4, 7]	17	FR1	2	R1217T
2463.131	3.483	2470280	PROB	3.483	n/a	n/a	-999	20	[4, 2, 9]	15	FR1	2	R1217T
2466.614	6.552	2473763	PROB	6.552	n/a	n/a	-999	20	[9, 8, 6]	23	FR1	2	R1217T
2473.166	6.371	2480314	PROB	6.371	n/a	n/a	-999	20	[8, 3, 6]	17	FR1	2	R1217T
2479.537	0.013	2486685	STOP	n/a	n/a	n/a	-999	20	[-999, -999, -999]	n/a	FR1	2	R1217T
2479.55	0.534	2486698	DISTRACT_END	n/a	n/a	n/a	-999	20	[0, 0, 0]	n/a	FR1	2	R1217T
2480.084	0.516	2487232	RETRIEVAL_ORIENT	n/a	n/a	n/a	-999	20	[0, 0, 0]	n/a	FR1	2	R1217T
2480.6	3.113	2487748	REC_START	n/a	n/a	n/a	-999	20	[0, 0, 0]	n/a	FR1	2	R1217T
2483.713	0.966	2490861	REC_WORD	0.966	n/a	SHEET	7	20	[0, 0, 0]	n/a	FR1	2	R1217T
2484.679	1.472	2491827	REC_WORD	1.472	n/a	SOAP	8	20	[0, 0, 0]	n/a	FR1	2	R1217T
2486.151	7.492	2493299	REC_WORD	7.492	n/a	WOOL	-999	20	[0, 0, 0]	n/a	FR1	2	R1217T
2493.643	16.969	2500790	REC_WORD	16.969	n/a	DUCK	-999	20	[0, 0, 0]	n/a	FR1	2	R1217T
2510.612	7.395	2517758	REC_END	n/a	n/a	n/a	-999	20	[0, 0, 0]	n/a	FR1	2	R1217T
2518.007	0.5	2525153	TRIAL	n/a	n/a	n/a	-999	21	[0, 0, 0]	n/a	FR1	2	R1217T
2518.507	10.428	2525653	COUNTDOWN_START	n/a	n/a	n/a	-999	21	[0, 0, 0]	n/a	FR1	2	R1217T
2528.935	0.007	2536080	COUNTDOWN_END	n/a	n/a	n/a	-999	21	[0, 0, 0]	n/a	FR1	2	R1217T
2528.942	1.617	2536087	ORIENT	n/a	n/a	n/a	-999	21	[0, 0, 0]	n/a	FR1	2	R1217T
2530.559	2.0	2537704	ORIENT_OFF	n/a	n/a	n/a	-999	21	[0, 0, 0]	n/a	FR1	2	R1217T
2532.559	1.601	2539704	WORD	n/a	wordpools/wordpool_EN.txt	STRAW	1	21	[0, 0, 0]	n/a	FR1	2	R1217T
2534.16	0.766	2541305	WORD_OFF	n/a	n/a	STRAW	1	21	[0, 0, 0]	n/a	FR1	2	R1217T
2534.926	1.617	2542071	WORD	n/a	wordpools/wordpool_EN.txt	SEAL	2	21	[0, 0, 0]	n/a	FR1	2	R1217T
2536.543	0.95	2543688	WORD_OFF	n/a	n/a	SEAL	2	21	[0, 0, 0]	n/a	FR1	2	R1217T
2537.493	1.601	2544637	WORD	n/a	wordpools/wordpool_EN.txt	PIPE	3	21	[0, 0, 0]	n/a	FR1	2	R1217T
2539.094	0.817	2546238	WORD_OFF	n/a	n/a	PIPE	3	21	[0, 0, 0]	n/a	FR1	2	R1217T
2539.911	1.616	2547055	WORD	n/a	wordpools/wordpool_EN.txt	VEST	4	21	[0, 0, 0]	n/a	FR1	2	R1217T
2541.527	0.885	2548671	WORD_OFF	n/a	n/a	VEST	4	21	[0, 0, 0]	n/a	FR1	2	R1217T
2542.412	1.617	2549556	WORD	n/a	wordpools/wordpool_EN.txt	JAIL	5	21	[0, 0, 0]	n/a	FR1	2	R1217T
2544.029	1.0	2551173	WORD_OFF	n/a	n/a	JAIL	5	21	[0, 0, 0]	n/a	FR1	2	R1217T
2545.029	1.616	2552173	WORD	n/a	wordpools/wordpool_EN.txt	SALT	6	21	[0, 0, 0]	n/a	FR1	2	R1217T
2546.645	0.817	2553789	WORD_OFF	n/a	n/a	SALT	6	21	[0, 0, 0]	n/a	FR1	2	R1217T
2547.462	1.618	2554606	WORD	n/a	wordpools/wordpool_EN.txt	DEER	7	21	[0, 0, 0]	n/a	FR1	2	R1217T
2549.08	1.0	2556224	WORD_OFF	n/a	n/a	DEER	7	21	[0, 0, 0]	n/a	FR1	2	R1217T
2550.08	1.616	2557224	WORD	n/a	wordpools/wordpool_EN.txt	CUBE	8	21	[0, 0, 0]	n/a	FR1	2	R1217T
2551.696	0.934	2558840	WORD_OFF	n/a	n/a	CUBE	8	21	[0, 0, 0]	n/a	FR1	2	R1217T
2552.63	1.617	2559774	WORD	n/a	wordpools/wordpool_EN.txt	TOOL	9	21	[0, 0, 0]	n/a	FR1	2	R1217T
2554.247	0.934	2561390	WORD_OFF	n/a	n/a	TOOL	9	21	[0, 0, 0]	n/a	FR1	2	R1217T
2555.181	1.616	2562324	WORD	n/a	wordpools/wordpool_EN.txt	CHIN	10	21	[0, 0, 0]	n/a	FR1	2	R1217T
2556.797	0.917	2563940	WORD_OFF	n/a	n/a	CHIN	10	21	[0, 0, 0]	n/a	FR1	2	R1217T
2557.714	1.618	2564857	WORD	n/a	wordpools/wordpool_EN.txt	BUSH	11	21	[0, 0, 0]	n/a	FR1	2	R1217T
2559.332	0.916	2566475	WORD_OFF	n/a	n/a	BUSH	11	21	[0, 0, 0]	n/a	FR1	2	R1217T
2560.248	1.617	2567391	WORD	n/a	wordpools/wordpool_EN.txt	ROOM	12	21	[0, 0, 0]	n/a	FR1	2	R1217T
2561.865	0.0	2569008	WORD_OFF	n/a	n/a	ROOM	12	21	[0, 0, 0]	n/a	FR1	2	R1217T
2561.865	0.0	2569008	DISTRACT_START	n/a	n/a	n/a	-999	21	[0, 0, 0]	n/a	FR1	2	R1217T
2561.865	0.016	2569008	START	n/a	n/a	n/a	-999	21	[-999, -999, -999]	n/a	FR1	2	R1217T
2561.881	8.902	2569024	PROB	8.902	n/a	n/a	-999	21	[5, 9, 3]	17	FR1	2	R1217T
2570.783	3.967	2577925	PROB	3.967	n/a	n/a	-999	21	[5, 4, 7]	16	FR1	2	R1217T
2574.75	4.619	2581892	PROB	4.619	n/a	n/a	-999	21	[9, 9, 4]	22	FR1	2	R1217T
2579.369	3.688	2586511	PROB	3.688	n/a	n/a	-999	21	[3, 2, 9]	14	FR1	2	R1217T
2583.057	0.012	2590199	STOP	n/a	n/a	n/a	-999	21	[-999, -999, -999]	n/a	FR1	2	R1217T
2583.069	0.566	2590211	DISTRACT_END	n/a	n/a	n/a	-999	21	[0, 0, 0]	n/a	FR1	2	R1217T
2583.635	0.519	2590777	RETRIEVAL_ORIENT	n/a	n/a	n/a	-999	21	[0, 0, 0]	n/a	FR1	2	R1217T
2584.154	2.531	2591296	REC_START	n/a	n/a	n/a	-999	21	[0, 0, 0]	n/a	FR1	2	R1217T
2586.685	18.922	2593826	REC_WORD	18.922	n/a	SEAL	2	21	[0, 0, 0]	n/a	FR1	2	R1217T
2605.607	8.558	2612747	REC_WORD	8.558	n/a	BALL	-999	21	[0, 0, 0]	n/a	FR1	2	R1217T
2614.165	5.277	2621305	REC_END	n/a	n/a	n/a	-999	21	[0, 0, 0]	n/a	FR1	2	R1217T
2619.442	0.5	2626582	TRIAL	n/a	n/a	n/a	-999	22	[0, 0, 0]	n/a	FR1	2	R1217T
2619.942	10.428	2627081	COUNTDOWN_START	n/a	n/a	n/a	-999	22	[0, 0, 0]	n/a	FR1	2	R1217T
2630.37	0.008	2637509	COUNTDOWN_END	n/a	n/a	n/a	-999	22	[0, 0, 0]	n/a	FR1	2	R1217T
2630.378	1.617	2637517	ORIENT	n/a	n/a	n/a	-999	22	[0, 0, 0]	n/a	FR1	2	R1217T
2631.995	2.084	2639134	ORIENT_OFF	n/a	n/a	n/a	-999	22	[0, 0, 0]	n/a	FR1	2	R1217T
2634.079	1.616	2641218	WORD	n/a	wordpools/wordpool_EN.txt	CLOTH	1	22	[0, 0, 0]	n/a	FR1	2	R1217T
2635.695	0.933	2642834	WORD_OFF	n/a	n/a	CLOTH	1	22	[0, 0, 0]	n/a	FR1	2	R1217T
2636.628	1.601	2643766	WORD	n/a	wordpools/wordpool_EN.txt	SAIL	2	22	[0, 0, 0]	n/a	FR1	2	R1217T
2638.229	0.834	2645367	WORD_OFF	n/a	n/a	SAIL	2	22	[0, 0, 0]	n/a	FR1	2	R1217T
2639.063	1.616	2646201	WORD	n/a	wordpools/wordpool_EN.txt	THUMB	3	22	[0, 0, 0]	n/a	FR1	2	R1217T
2640.679	0.967	2647817	WORD_OFF	n/a	n/a	THUMB	3	22	[0, 0, 0]	n/a	FR1	2	R1217T
2641.646	1.618	2648784	WORD	n/a	wordpools/wordpool_EN.txt	WOLF	4	22	[0, 0, 0]	n/a	FR1	2	R1217T
2643.264	0.95	2650402	WORD_OFF	n/a	n/a	WOLF	4	22	[0, 0, 0]	n/a	FR1	2	R1217T
2644.214	1.616	2651352	WORD	n/a	wordpools/wordpool_EN.txt	HORSE	5	22	[0, 0, 0]	n/a	FR1	2	R1217T
2645.83	0.883	2652968	WORD_OFF	n/a	n/a	HORSE	5	22	[0, 0, 0]	n/a	FR1	2	R1217T
2646.713	1.618	2653851	WORD	n/a	wordpools/wordpool_EN.txt	WHEEL	6	22	[0, 0, 0]	n/a	FR1	2	R1217T
2648.331	0.95	2655469	WORD_OFF	n/a	n/a	WHEEL	6	22	[0, 0, 0]	n/a	FR1	2	R1217T
2649.281	1.616	2656419	WORD	n/a	wordpools/wordpool_EN.txt	MOLE	7	22	[0, 0, 0]	n/a	FR1	2	R1217T
2650.897	0.967	2658035	WORD_OFF	n/a	n/a	MOLE	7	22	[0, 0, 0]	n/a	FR1	2	R1217T
2651.864	1.617	2659002	WORD	n/a	wordpools/wordpool_EN.txt	ROOT	8	22	[0, 0, 0]	n/a	FR1	2	R1217T
2653.481	0.768	2660618	WORD_OFF	n/a	n/a	ROOT	8	22	[0, 0, 0]	n/a	FR1	2	R1217T
2654.249	1.616	2661386	WORD	n/a	wordpools/wordpool_EN.txt	PEA	9	22	[0, 0, 0]	n/a	FR1	2	R1217T
2655.865	0.867	2663002	WORD_OFF	n/a	n/a	PEA	9	22	[0, 0, 0]	n/a	FR1	2	R1217T
2656.732	1.618	2663869	WORD	n/a	wordpools/wordpool_EN.txt	FORT	10	22	[0, 0, 0]	n/a	FR1	2	R1217T
2658.35	0.9	2665487	WORD_OFF	n/a	n/a	FORT	10	22	[0, 0, 0]	n/a	FR1	2	R1217T
2659.25	1.616	2666387	WORD	n/a	wordpools/wordpool_EN.txt	CLOWN	11	22	[0, 0, 0]	n/a	FR1	2	R1217T
2660.866	0.916	2668003	WORD_OFF	n/a	n/a	CLOWN	11	22	[0, 0, 0]	n/a	FR1	2	R1217T
2661.782	1.602	2668919	WORD	n/a	wordpools/wordpool_EN.txt	STONE	12	22	[0, 0, 0]	n/a	FR1	2	R1217T
2663.384	0.0	2670521	DISTRACT_START	n/a	n/a	n/a	-999	22	[0, 0, 0]	n/a	FR1	2	R1217T
2663.384	0.0	2670521	WORD_OFF	n/a	n/a	STONE	12	22	[0, 0, 0]	n/a	FR1	2	R1217T
2663.384	0.017	2670521	START	n/a	n/a	n/a	-999	22	[-999, -999, -999]	n/a	FR1	2	R1217T
2663.401	5.433	2670538	PROB	5.433	n/a	n/a	-999	22	[1, 7, 2]	10	FR1	2	R1217T
2668.834	3.568	2675971	PROB	3.568	n/a	n/a	-999	22	[6, 7, 7]	20	FR1	2	R1217T
2672.402	5.2	2679538	PROB	5.2	n/a	n/a	-999	22	[6, 9, 4]	19	FR1	2	R1217T
2677.602	4.435	2684738	PROB	4.435	n/a	n/a	-999	22	[4, 3, 4]	11	FR1	2	R1217T
2682.037	5.789	2689173	PROB	5.789	n/a	n/a	-999	22	[5, 2, 6]	13	FR1	2	R1217T
2687.826	0.011	2694961	STOP	n/a	n/a	n/a	-999	22	[-999, -999, -999]	n/a	FR1	2	R1217T
2687.837	0.568	2694972	DISTRACT_END	n/a	n/a	n/a	-999	22	[0, 0, 0]	n/a	FR1	2	R1217T
2688.405	0.517	2695540	RETRIEVAL_ORIENT	n/a	n/a	n/a	-999	22	[0, 0, 0]	n/a	FR1	2	R1217T
2688.922	12.884	2696057	REC_START	n/a	n/a	n/a	-999	22	[0, 0, 0]	n/a	FR1	2	R1217T
2701.806	0.931	2708941	REC_WORD	0.931	n/a	MOLE	7	22	[0, 0, 0]	n/a	FR1	2	R1217T
2702.737	12.549	2709871	REC_WORD	12.549	n/a	WHEEL	6	22	[0, 0, 0]	n/a	FR1	2	R1217T
2715.286	3.646	2722420	REC_WORD	3.646	n/a	PLATE	-999	22	[0, 0, 0]	n/a	FR1	2	R1217T
2718.932	6.529	2726066	REC_END	n/a	n/a	n/a	-999	22	[0, 0, 0]	n/a	FR1	2	R1217T
2725.461	0.5	2732594	TRIAL	n/a	n/a	n/a	-999	23	[0, 0, 0]	n/a	FR1	2	R1217T
2725.961	10.428	2733094	COUNTDOWN_START	n/a	n/a	n/a	-999	23	[0, 0, 0]	n/a	FR1	2	R1217T
2736.389	0.008	2743521	COUNTDOWN_END	n/a	n/a	n/a	-999	23	[0, 0, 0]	n/a	FR1	2	R1217T
2736.397	1.617	2743529	ORIENT	n/a	n/a	n/a	-999	23	[0, 0, 0]	n/a	FR1	2	R1217T
2738.014	2.051	2745146	ORIENT_OFF	n/a	n/a	n/a	-999	23	[0, 0, 0]	n/a	FR1	2	R1217T
2740.065	1.616	2747197	WORD	n/a	wordpools/wordpool_EN.txt	SEED	1	23	[0, 0, 0]	n/a	FR1	2	R1217T
2741.681	1.0	2748813	WORD_OFF	n/a	n/a	SEED	1	23	[0, 0, 0]	n/a	FR1	2	R1217T
2742.681	1.618	2749813	WORD	n/a	wordpools/wordpool_EN.txt	MAZE	2	23	[0, 0, 0]	n/a	FR1	2	R1217T
2744.299	0.95	2751431	WORD_OFF	n/a	n/a	MAZE	2	23	[0, 0, 0]	n/a	FR1	2	R1217T
2745.249	1.616	2752381	WORD	n/a	wordpools/wordpool_EN.txt	WOOD	3	23	[0, 0, 0]	n/a	FR1	2	R1217T
2746.865	0.917	2753997	WORD_OFF	n/a	n/a	WOOD	3	23	[0, 0, 0]	n/a	FR1	2	R1217T
2747.782	1.618	2754914	WORD	n/a	wordpools/wordpool_EN.txt	HOUSE	4	23	[0, 0, 0]	n/a	FR1	2	R1217T
2749.4	0.833	2756532	WORD_OFF	n/a	n/a	HOUSE	4	23	[0, 0, 0]	n/a	FR1	2	R1217T
2750.233	1.616	2757365	WORD	n/a	wordpools/wordpool_EN.txt	MOOSE	5	23	[0, 0, 0]	n/a	FR1	2	R1217T
2751.849	0.984	2758981	WORD_OFF	n/a	n/a	MOOSE	5	23	[0, 0, 0]	n/a	FR1	2	R1217T
2752.833	1.617	2759964	WORD	n/a	wordpools/wordpool_EN.txt	SNOW	6	23	[0, 0, 0]	n/a	FR1	2	R1217T
2754.45	0.834	2761581	WORD_OFF	n/a	n/a	SNOW	6	23	[0, 0, 0]	n/a	FR1	2	R1217T
2755.284	1.616	2762415	WORD	n/a	wordpools/wordpool_EN.txt	HEART	7	23	[0, 0, 0]	n/a	FR1	2	R1217T
2756.9	0.984	2764031	WORD_OFF	n/a	n/a	HEART	7	23	[0, 0, 0]	n/a	FR1	2	R1217T
2757.884	1.616	2765015	WORD	n/a	wordpools/wordpool_EN.txt	STEM	8	23	[0, 0, 0]	n/a	FR1	2	R1217T
2759.5	0.902	2766631	WORD_OFF	n/a	n/a	STEM	8	23	[0, 0, 0]	n/a	FR1	2	R1217T
2760.402	1.617	2767533	WORD	n/a	wordpools/wordpool_EN.txt	BEAR	9	23	[0, 0, 0]	n/a	FR1	2	R1217T
2762.019	0.815	2769150	WORD_OFF	n/a	n/a	BEAR	9	23	[0, 0, 0]	n/a	FR1	2	R1217T
2762.834	1.617	2769965	WORD	n/a	wordpools/wordpool_EN.txt	LAKE	10	23	[0, 0, 0]	n/a	FR1	2	R1217T
2764.451	0.852	2771582	WORD_OFF	n/a	n/a	LAKE	10	23	[0, 0, 0]	n/a	FR1	2	R1217T
2765.303	1.615	2772434	WORD	n/a	wordpools/wordpool_EN.txt	ROPE	11	23	[0, 0, 0]	n/a	FR1	2	R1217T
2766.918	0.967	2774049	WORD_OFF	n/a	n/a	ROPE	11	23	[0, 0, 0]	n/a	FR1	2	R1217T
2767.885	1.617	2775016	WORD	n/a	wordpools/wordpool_EN.txt	COW	12	23	[0, 0, 0]	n/a	FR1	2	R1217T
2769.502	0.0	2776632	WORD_OFF	n/a	n/a	COW	12	23	[0, 0, 0]	n/a	FR1	2	R1217T
2769.502	0.001	2776632	DISTRACT_START	n/a	n/a	n/a	-999	23	[0, 0, 0]	n/a	FR1	2	R1217T
2769.503	0.016	2776633	START	n/a	n/a	n/a	-999	23	[-999, -999, -999]	n/a	FR1	2	R1217T
2769.519	5.084	2776649	PROB	5.084	n/a	n/a	-999	23	[8, 1, 9]	18	FR1	2	R1217T
2774.603	3.435	2781733	PROB	3.435	n/a	n/a	-999	23	[2, 3, 8]	13	FR1	2	R1217T
2778.038	4.034	2785168	PROB	4.034	n/a	n/a	-999	23	[5, 2, 3]	10	FR1	2	R1217T
2782.072	3.067	2789202	PROB	3.067	n/a	n/a	-999	23	[1, 2, 3]	6	FR1	2	R1217T
2785.139	4.018	2792269	PROB	4.018	n/a	n/a	-999	23	[6, 6, 7]	19	FR1	2	R1217T
2789.157	5.756	2796286	PROB	5.756	n/a	n/a	-999	23	[9, 2, 3]	14	FR1	2	R1217T
2794.913	0.01	2802042	STOP	n/a	n/a	n/a	-999	23	[-999, -999, -999]	n/a	FR1	2	R1217T
2794.923	0.517	2802052	DISTRACT_END	n/a	n/a	n/a	-999	23	[0, 0, 0]	n/a	FR1	2	R1217T
2795.44	0.518	2802569	RETRIEVAL_ORIENT	n/a	n/a	n/a	-999	23	[0, 0, 0]	n/a	FR1	2	R1217T
2795.958	1.294	2803087	REC_START	n/a	n/a	n/a	-999	23	[0, 0, 0]	n/a	FR1	2	R1217T
2797.252	1.291	2804381	REC_WORD	1.291	n/a	MAZE	2	23	[0, 0, 0]	n/a	FR1	2	R1217T
2798.543	1.035	2805672	REC_WORD	1.035	n/a	WOOD	3	23	[0, 0, 0]	n/a	FR1	2	R1217T
2799.578	1.352	2806707	REC_WORD	1.352	n/a	HOUSE	4	23	[0, 0, 0]	n/a	FR1	2	R1217T
2800.93	3.237	2808059	REC_WORD	3.237	n/a	SNOW	6	23	[0, 0, 0]	n/a	FR1	2	R1217T
2804.167	21.802	2811295	REC_WORD	21.802	n/a	WHITE	-999	23	[0, 0, 0]	n/a	FR1	2	R1217T
2825.969	4.395	2833096	REC_END	n/a	n/a	n/a	-999	23	[0, 0, 0]	n/a	FR1	2	R1217T
2830.364	0.5	2837491	TRIAL	n/a	n/a	n/a	-999	24	[0, 0, 0]	n/a	FR1	2	R1217T
2830.864	10.428	2837991	COUNTDOWN_START	n/a	n/a	n/a	-999	24	[0, 0, 0]	n/a	FR1	2	R1217T
2841.292	0.008	2848418	COUNTDOWN_END	n/a	n/a	n/a	-999	24	[0, 0, 0]	n/a	FR1	2	R1217T
2841.3	1.616	2848426	ORIENT	n/a	n/a	n/a	-999	24	[0, 0, 0]	n/a	FR1	2	R1217T
2842.916	2.051	2850042	ORIENT_OFF	n/a	n/a	n/a	-999	24	[0, 0, 0]	n/a	FR1	2	R1217T
2844.967	1.616	2852093	WORD	n/a	wordpools/wordpool_EN.txt	STORE	1	24	[0, 0, 0]	n/a	FR1	2	R1217T
2846.583	0.818	2853709	WORD_OFF	n/a	n/a	STORE	1	24	[0, 0, 0]	n/a	FR1	2	R1217T
2847.401	1.617	2854527	WORD	n/a	wordpools/wordpool_EN.txt	WALL	2	24	[0, 0, 0]	n/a	FR1	2	R1217T
2849.018	0.866	2856144	WORD_OFF	n/a	n/a	WALL	2	24	[0, 0, 0]	n/a	FR1	2	R1217T
2849.884	1.617	2857010	WORD	n/a	wordpools/wordpool_EN.txt	PHONE	3	24	[0, 0, 0]	n/a	FR1	2	R1217T
2851.501	0.851	2858627	WORD_OFF	n/a	n/a	PHONE	3	24	[0, 0, 0]	n/a	FR1	2	R1217T
2852.352	1.617	2859477	WORD	n/a	wordpools/wordpool_EN.txt	SHIELD	4	24	[0, 0, 0]	n/a	FR1	2	R1217T
2853.969	0.882	2861094	WORD_OFF	n/a	n/a	SHIELD	4	24	[0, 0, 0]	n/a	FR1	2	R1217T
2854.851	1.617	2861976	WORD	n/a	wordpools/wordpool_EN.txt	POLE	5	24	[0, 0, 0]	n/a	FR1	2	R1217T
2856.468	0.935	2863593	WORD_OFF	n/a	n/a	POLE	5	24	[0, 0, 0]	n/a	FR1	2	R1217T
2857.403	1.617	2864528	WORD	n/a	wordpools/wordpool_EN.txt	TRASH	6	24	[0, 0, 0]	n/a	FR1	2	R1217T
2859.02	0.882	2866145	WORD_OFF	n/a	n/a	TRASH	6	24	[0, 0, 0]	n/a	FR1	2	R1217T
2859.902	1.617	2867027	WORD	n/a	wordpools/wordpool_EN.txt	PANTS	7	24	[0, 0, 0]	n/a	FR1	2	R1217T
2861.519	0.9	2868644	WORD_OFF	n/a	n/a	PANTS	7	24	[0, 0, 0]	n/a	FR1	2	R1217T
2862.419	1.618	2869544	WORD	n/a	wordpools/wordpool_EN.txt	PEARL	8	24	[0, 0, 0]	n/a	FR1	2	R1217T
2864.037	0.883	2871162	WORD_OFF	n/a	n/a	PEARL	8	24	[0, 0, 0]	n/a	FR1	2	R1217T
2864.92	1.617	2872045	WORD	n/a	wordpools/wordpool_EN.txt	PLANT	9	24	[0, 0, 0]	n/a	FR1	2	R1217T
2866.537	0.801	2873662	WORD_OFF	n/a	n/a	PLANT	9	24	[0, 0, 0]	n/a	FR1	2	R1217T
2867.338	1.616	2874463	WORD	n/a	wordpools/wordpool_EN.txt	BOY	10	24	[0, 0, 0]	n/a	FR1	2	R1217T
2868.954	0.917	2876078	WORD_OFF	n/a	n/a	BOY	10	24	[0, 0, 0]	n/a	FR1	2	R1217T
2869.871	1.617	2876995	WORD	n/a	wordpools/wordpool_EN.txt	WEED	11	24	[0, 0, 0]	n/a	FR1	2	R1217T
2871.488	0.933	2878612	WORD_OFF	n/a	n/a	WEED	11	24	[0, 0, 0]	n/a	FR1	2	R1217T
2872.421	1.618	2879545	WORD	n/a	wordpools/wordpool_EN.txt	OWL	12	24	[0, 0, 0]	n/a	FR1	2	R1217T
2874.039	0.0	2881163	DISTRACT_START	n/a	n/a	n/a	-999	24	[0, 0, 0]	n/a	FR1	2	R1217T
2874.039	0.001	2881163	WORD_OFF	n/a	n/a	OWL	12	24	[0, 0, 0]	n/a	FR1	2	R1217T
2874.04	0.016	2881164	START	n/a	n/a	n/a	-999	24	[-999, -999, -999]	n/a	FR1	2	R1217T
2874.056	3.816	2881180	PROB	3.816	n/a	n/a	-999	24	[1, 5, 5]	11	FR1	2	R1217T
2877.872	3.318	2884996	PROB	3.318	n/a	n/a	-999	24	[1, 9, 9]	19	FR1	2	R1217T
2881.19	2.817	2888314	PROB	2.817	n/a	n/a	-999	24	[2, 3, 8]	13	FR1	2	R1217T
2884.007	3.55	2891131	PROB	3.55	n/a	n/a	-999	24	[6, 9, 7]	22	FR1	2	R1217T
2887.557	3.101	2894680	PROB	3.101	n/a	n/a	-999	24	[3, 6, 2]	11	FR1	2	R1217T
2890.658	3.217	2897781	PROB	3.217	n/a	n/a	-999	24	[7, 4, 1]	12	FR1	2	R1217T
2893.875	2.606	2900998	PROB	2.606	n/a	n/a	-999	24	[1, 3, 3]	7	FR1	2	R1217T
2896.481	0.011	2903604	STOP	n/a	n/a	n/a	-999	24	[-999, -999, -999]	n/a	FR1	2	R1217T
2896.492	0.551	2903615	DISTRACT_END	n/a	n/a	n/a	-999	24	[0, 0, 0]	n/a	FR1	2	R1217T
2897.043	0.517	2904166	RETRIEVAL_ORIENT	n/a	n/a	n/a	-999	24	[0, 0, 0]	n/a	FR1	2	R1217T
2897.56	1.168	2904683	REC_START	n/a	n/a	n/a	-999	24	[0, 0, 0]	n/a	FR1	2	R1217T
2898.728	0.805	2905851	REC_WORD	0.805	n/a	PEARL	8	24	[0, 0, 0]	n/a	FR1	2	R1217T
2899.533	1.103	2906656	REC_WORD	1.103	n/a	PLANT	9	24	[0, 0, 0]	n/a	FR1	2	R1217T
2900.636	4.267	2907759	REC_WORD	4.267	n/a	WEED	11	24	[0, 0, 0]	n/a	FR1	2	R1217T
2904.903	2.887	2912025	REC_WORD	2.887	n/a	BOY	10	24	[0, 0, 0]	n/a	FR1	2	R1217T
2907.79	11.303	2914912	REC_WORD	11.303	n/a	SHIELD	4	24	[0, 0, 0]	n/a	FR1	2	R1217T
2919.093	8.479	2926214	REC_WORD	8.479	n/a	TOY	-999	24	[0, 0, 0]	n/a	FR1	2	R1217T
2927.572	5.627	2934693	REC_END	n/a	n/a	n/a	-999	24	[0, 0, 0]	n/a	FR1	2	R1217T
2933.199	0.5	2940320	TRIAL	n/a	n/a	n/a	-999	25	[0, 0, 0]	n/a	FR1	2	R1217T
2933.699	10.428	2940820	COUNTDOWN_START	n/a	n/a	n/a	-999	25	[0, 0, 0]	n/a	FR1	2	R1217T
2944.127	0.008	2951247	COUNTDOWN_END	n/a	n/a	n/a	-999	25	[0, 0, 0]	n/a	FR1	2	R1217T
2944.135	1.616	2951255	ORIENT	n/a	n/a	n/a	-999	25	[0, 0, 0]	n/a	FR1	2	R1217T
2945.751	2.218	2952871	ORIENT_OFF	n/a	n/a	n/a	-999	25	[0, 0, 0]	n/a	FR1	2	R1217T
2947.969	1.616	2955089	WORD	n/a	wordpools/wordpool_EN.txt	RUG	1	25	[0, 0, 0]	n/a	FR1	2	R1217T
2949.585	0.801	2956705	WORD_OFF	n/a	n/a	RUG	1	25	[0, 0, 0]	n/a	FR1	2	R1217T
2950.386	1.617	2957506	WORD	n/a	wordpools/wordpool_EN.txt	TOOTH	2	25	[0, 0, 0]	n/a	FR1	2	R1217T
2952.003	0.933	2959122	WORD_OFF	n/a	n/a	TOOTH	2	25	[0, 0, 0]	n/a	FR1	2	R1217T
2952.936	1.617	2960055	WORD	n/a	wordpools/wordpool_EN.txt	ICE	3	25	[0, 0, 0]	n/a	FR1	2	R1217T
2954.553	0.851	2961672	WORD_OFF	n/a	n/a	ICE	3	25	[0, 0, 0]	n/a	FR1	2	R1217T
2955.404	1.617	2962523	WORD	n/a	wordpools/wordpool_EN.txt	CLOCK	4	25	[0, 0, 0]	n/a	FR1	2	R1217T
2957.021	0.816	2964140	WORD_OFF	n/a	n/a	CLOCK	4	25	[0, 0, 0]	n/a	FR1	2	R1217T
2957.837	1.617	2964956	WORD	n/a	wordpools/wordpool_EN.txt	DOG	5	25	[0, 0, 0]	n/a	FR1	2	R1217T
2959.454	0.934	2966573	WORD_OFF	n/a	n/a	DOG	5	25	[0, 0, 0]	n/a	FR1	2	R1217T
2960.388	1.617	2967507	WORD	n/a	wordpools/wordpool_EN.txt	LAND	6	25	[0, 0, 0]	n/a	FR1	2	R1217T
2962.005	0.766	2969124	WORD_OFF	n/a	n/a	LAND	6	25	[0, 0, 0]	n/a	FR1	2	R1217T
2962.771	1.618	2969890	WORD	n/a	wordpools/wordpool_EN.txt	SKY	7	25	[0, 0, 0]	n/a	FR1	2	R1217T
2964.389	0.933	2971508	WORD_OFF	n/a	n/a	SKY	7	25	[0, 0, 0]	n/a	FR1	2	R1217T
2965.322	1.616	2972441	WORD	n/a	wordpools/wordpool_EN.txt	EEL	8	25	[0, 0, 0]	n/a	FR1	2	R1217T
2966.938	0.934	2974057	WORD_OFF	n/a	n/a	EEL	8	25	[0, 0, 0]	n/a	FR1	2	R1217T
2967.872	1.617	2974990	WORD	n/a	wordpools/wordpool_EN.txt	INK	9	25	[0, 0, 0]	n/a	FR1	2	R1217T
2969.489	0.801	2976607	WORD_OFF	n/a	n/a	INK	9	25	[0, 0, 0]	n/a	FR1	2	R1217T
2970.29	1.616	2977408	WORD	n/a	wordpools/wordpool_EN.txt	STORM	10	25	[0, 0, 0]	n/a	FR1	2	R1217T
2971.906	0.967	2979024	WORD_OFF	n/a	n/a	STORM	10	25	[0, 0, 0]	n/a	FR1	2	R1217T
2972.873	1.617	2979991	WORD	n/a	wordpools/wordpool_EN.txt	NET	11	25	[0, 0, 0]	n/a	FR1	2	R1217T
2974.49	0.933	2981608	WORD_OFF	n/a	n/a	NET	11	25	[0, 0, 0]	n/a	FR1	2	R1217T
2975.423	1.618	2982541	WORD	n/a	wordpools/wordpool_EN.txt	BIRD	12	25	[0, 0, 0]	n/a	FR1	2	R1217T
2977.041	0.0	2984159	WORD_OFF	n/a	n/a	BIRD	12	25	[0, 0, 0]	n/a	FR1	2	R1217T
2977.041	0.001	2984159	DISTRACT_START	n/a	n/a	n/a	-999	25	[0, 0, 0]	n/a	FR1	2	R1217T
2977.042	0.016	2984160	START	n/a	n/a	n/a	-999	25	[-999, -999, -999]	n/a	FR1	2	R1217T
2977.058	6.433	2984176	PROB	6.433	n/a	n/a	-999	25	[9, 6, 6]	21	FR1	2	R1217T
2983.491	2.351	2990609	PROB	2.351	n/a	n/a	-999	25	[5, 5, 1]	11	FR1	2	R1217T
2985.842	4.734	2992959	PROB	4.734	n/a	n/a	-999	25	[5, 3, 8]	16	FR1	2	R1217T
2990.576	3.884	2997693	PROB	3.884	n/a	n/a	-999	25	[5, 2, 9]	16	FR1	2	R1217T
2994.46	3.941	3001577	PROB	3.941	n/a	n/a	-999	25	[5, 2, 6]	13	FR1	2	R1217T
2998.401	0.011	3005518	STOP	n/a	n/a	n/a	-999	25	[-999, -999, -999]	n/a	FR1	2	R1217T
2998.412	0.515	3005529	DISTRACT_END	n/a	n/a	n/a	-999	25	[0, 0, 0]	n/a	FR1	2	R1217T
2998.927	0.518	3006044	RETRIEVAL_ORIENT	n/a	n/a	n/a	-999	25	[0, 0, 0]	n/a	FR1	2	R1217T
2999.445	1.741	3006562	REC_START	n/a	n/a	n/a	-999	25	[0, 0, 0]	n/a	FR1	2	R1217T
3001.186	0.994	3008302	REC_WORD	0.994	n/a	RUG	1	25	[0, 0, 0]	n/a	FR1	2	R1217T
3002.18	1.327	3009296	REC_WORD	1.327	n/a	SKY	7	25	[0, 0, 0]	n/a	FR1	2	R1217T
3003.507	25.949	3010623	REC_WORD	25.949	n/a	STORM	10	25	[0, 0, 0]	n/a	FR1	2	R1217T
3029.456	0.0	3036571	REC_END	n/a	n/a	n/a	-999	25	[0, 0, 0]	n/a	FR1	2	R1217T
