onset	duration	sample	trial_type	response_time	stim_file	item_name	serialpos	list	test	answer	experiment	session	subject
0.0	17.724	349981	SESS_START	n/a	n/a	n/a	-999	-999	[0, 0, 0]	n/a	FR1	2	R1067P
17.724	10.428	358842	COUNTDOWN_START	n/a	n/a	n/a	-999	-999	[0, 0, 0]	n/a	FR1	2	R1067P
28.152	3.808	364056	COUNTDOWN_END	n/a	n/a	n/a	-999	-999	[0, 0, 0]	n/a	FR1	2	R1067P
31.96	2.535	365960	PRACTICE_WORD	n/a	n/a	WATCH	1	-1	[0, 0, 0]	n/a	FR1	2	R1067P
34.495	2.466	367228	PRACTICE_WORD	n/a	n/a	RING	2	-1	[0, 0, 0]	n/a	FR1	2	R1067P
36.961	2.435	368460	PRACTICE_WORD	n/a	n/a	RHINO	3	-1	[0, 0, 0]	n/a	FR1	2	R1067P
39.396	2.382	369678	PRACTICE_WORD	n/a	n/a	COTTON	4	-1	[0, 0, 0]	n/a	FR1	2	R1067P
41.778	2.369	370869	PRACTICE_WORD	n/a	n/a	CHEST	5	-1	[0, 0, 0]	n/a	FR1	2	R1067P
44.147	2.4	372053	PRACTICE_WORD	n/a	n/a	TONGUE	6	-1	[0, 0, 0]	n/a	FR1	2	R1067P
46.547	2.567	373253	PRACTICE_WORD	n/a	n/a	ATTIC	7	-1	[0, 0, 0]	n/a	FR1	2	R1067P
49.114	2.566	374537	PRACTICE_WORD	n/a	n/a	BEAM	8	-1	[0, 0, 0]	n/a	FR1	2	R1067P
51.68	2.502	375820	PRACTICE_WORD	n/a	n/a	FLOOD	9	-1	[0, 0, 0]	n/a	FR1	2	R1067P
54.182	2.466	377071	PRACTICE_WORD	n/a	n/a	WAGON	10	-1	[0, 0, 0]	n/a	FR1	2	R1067P
56.648	2.401	378303	PRACTICE_WORD	n/a	n/a	IRON	11	-1	[0, 0, 0]	n/a	FR1	2	R1067P
59.049	1.616	379504	PRACTICE_WORD	n/a	n/a	CAMEL	12	-1	[0, 0, 0]	n/a	FR1	2	R1067P
60.665	0.001	380312	PRACTICE_DISTRACT_START	n/a	n/a	n/a	-999	-1	[0, 0, 0]	n/a	FR1	2	R1067P
60.666	0.016	380312	START	n/a	n/a	n/a	-999	-1	[-999, -999, -999]	n/a	FR1	2	R1067P
60.682	5.935	380320	PROB	5.935	n/a	n/a	-999	-1	[2, 9, 5]	16	FR1	2	R1067P
66.617	4.385	383288	PROB	4.385	n/a	n/a	-999	-1	[7, 3, 7]	17	FR1	2	R1067P
71.002	3.517	385480	PROB	3.517	n/a	n/a	-999	-1	[5, 7, 3]	15	FR1	2	R1067P
74.519	2.784	387238	PROB	2.784	n/a	n/a	-999	-1	[9, 1, 3]	13	FR1	2	R1067P
77.303	2.533	388630	PROB	2.533	n/a	n/a	-999	-1	[5, 5, 1]	11	FR1	2	R1067P
79.836	5.173	389897	PROB	5.173	n/a	n/a	-999	-1	[9, 8, 6]	24	FR1	2	R1067P
85.009	0.012	392483	STOP	n/a	n/a	n/a	-999	-1	[-999, -999, -999]	n/a	FR1	2	R1067P
85.021	0.586	392489	PRACTICE_DISTRACT_END	n/a	n/a	n/a	-999	-1	[0, 0, 0]	n/a	FR1	2	R1067P
85.607	30.514	392782	PRACTICE_REC_START	n/a	n/a	n/a	-999	-1	[0, 0, 0]	n/a	FR1	2	R1067P
116.121	8.556	408038	PRACTICE_REC_END	n/a	n/a	n/a	-999	-1	[0, 0, 0]	n/a	FR1	2	R1067P
124.677	0.001	412316	COUNTDOWN_START	n/a	n/a	n/a	-999	1	[0, 0, 0]	n/a	FR1	2	R1067P
124.678	10.427	412317	TRIAL	n/a	n/a	n/a	-999	1	[0, 0, 0]	n/a	FR1	2	R1067P
135.105	0.009	417530	COUNTDOWN_END	n/a	n/a	n/a	-999	1	[0, 0, 0]	n/a	FR1	2	R1067P
135.114	2.583	417534	ORIENT	n/a	n/a	n/a	-999	1	[0, 0, 0]	n/a	FR1	2	R1067P
137.697	2.568	418826	WORD	n/a	wordpools/wordpool_EN.txt	STRING	1	1	[0, 0, 0]	n/a	FR1	2	R1067P
140.265	2.599	420110	WORD	n/a	wordpools/wordpool_EN.txt	VAN	2	1	[0, 0, 0]	n/a	FR1	2	R1067P
142.864	2.468	421409	WORD	n/a	wordpools/wordpool_EN.txt	CART	3	1	[0, 0, 0]	n/a	FR1	2	R1067P
145.332	2.583	422643	WORD	n/a	wordpools/wordpool_EN.txt	CLIFF	4	1	[0, 0, 0]	n/a	FR1	2	R1067P
147.915	2.518	423935	WORD	n/a	wordpools/wordpool_EN.txt	LEG	5	1	[0, 0, 0]	n/a	FR1	2	R1067P
150.433	2.416	425194	WORD	n/a	wordpools/wordpool_EN.txt	TOOL	6	1	[0, 0, 0]	n/a	FR1	2	R1067P
152.849	2.552	426402	WORD	n/a	wordpools/wordpool_EN.txt	SKI	7	1	[0, 0, 0]	n/a	FR1	2	R1067P
155.401	2.617	427677	WORD	n/a	wordpools/wordpool_EN.txt	SPEAR	8	1	[0, 0, 0]	n/a	FR1	2	R1067P
158.018	2.534	428986	WORD	n/a	wordpools/wordpool_EN.txt	CRANE	9	1	[0, 0, 0]	n/a	FR1	2	R1067P
160.552	2.45	430253	WORD	n/a	wordpools/wordpool_EN.txt	WAVE	10	1	[0, 0, 0]	n/a	FR1	2	R1067P
163.002	2.484	431478	WORD	n/a	wordpools/wordpool_EN.txt	RIB	11	1	[0, 0, 0]	n/a	FR1	2	R1067P
165.486	1.617	432720	WORD	n/a	wordpools/wordpool_EN.txt	TRUCK	12	1	[0, 0, 0]	n/a	FR1	2	R1067P
167.103	0.001	433528	DISTRACT_START	n/a	n/a	n/a	-999	1	[0, 0, 0]	n/a	FR1	2	R1067P
167.104	0.016	433529	START	n/a	n/a	n/a	-999	1	[-999, -999, -999]	n/a	FR1	2	R1067P
167.12	5.75	433537	PROB	5.75	n/a	n/a	-999	1	[7, 8, 6]	21	FR1	2	R1067P
172.87	4.851	436412	PROB	4.851	n/a	n/a	-999	1	[9, 2, 5]	16	FR1	2	R1067P
177.721	5.268	438837	PROB	5.268	n/a	n/a	-999	1	[6, 6, 8]	20	FR1	2	R1067P
182.989	3.118	441471	PROB	3.118	n/a	n/a	-999	1	[8, 2, 2]	12	FR1	2	R1067P
186.107	4.359	443030	PROB	4.359	n/a	n/a	-999	1	[3, 8, 8]	19	FR1	2	R1067P
190.466	0.008	445209	STOP	n/a	n/a	n/a	-999	1	[-999, -999, -999]	n/a	FR1	2	R1067P
190.474	1.168	445213	DISTRACT_END	n/a	n/a	n/a	-999	1	[0, 0, 0]	n/a	FR1	2	R1067P
191.642	2.571	445797	REC_START	n/a	n/a	n/a	-999	1	[0, 0, 0]	n/a	FR1	2	R1067P
194.213	1.0	447083	REC_WORD_VV	1.0	n/a	<>	-999	1	[0, 0, 0]	n/a	FR1	2	R1067P
195.213	1.0	447582	REC_WORD_VV	1.0	n/a	<>	-999	1	[0, 0, 0]	n/a	FR1	2	R1067P
196.213	2.732	448082	REC_WORD_VV	2.732	n/a	<>	-999	1	[0, 0, 0]	n/a	FR1	2	R1067P
198.945	3.039	449448	REC_WORD	3.039	n/a	CART	-999	1	[0, 0, 0]	n/a	FR1	2	R1067P
201.984	1.618	450968	REC_WORD_VV	1.618	n/a	<>	-999	1	[0, 0, 0]	n/a	FR1	2	R1067P
203.602	0.38	451777	REC_WORD_VV	0.38	n/a	<>	-999	1	[0, 0, 0]	n/a	FR1	2	R1067P
203.982	0.682	451967	REC_WORD	0.682	n/a	WAGON	-999	1	[0, 0, 0]	n/a	FR1	2	R1067P
204.664	0.256	452308	REC_WORD_VV	0.256	n/a	<>	-999	1	[0, 0, 0]	n/a	FR1	2	R1067P
204.92	3.343	452436	REC_WORD	3.343	n/a	WHEEL	-999	1	[0, 0, 0]	n/a	FR1	2	R1067P
208.263	1.0	454107	REC_WORD_VV	1.0	n/a	<>	-999	1	[0, 0, 0]	n/a	FR1	2	R1067P
209.263	12.388	454607	REC_WORD_VV	12.388	n/a	<>	-999	1	[0, 0, 0]	n/a	FR1	2	R1067P
221.651	3.63	460801	REC_END	n/a	n/a	n/a	-999	1	[0, 0, 0]	n/a	FR1	2	R1067P
225.281	0.0	462616	COUNTDOWN_START	n/a	n/a	n/a	-999	2	[0, 0, 0]	n/a	FR1	2	R1067P
225.281	10.428	462616	TRIAL	n/a	n/a	n/a	-999	2	[0, 0, 0]	n/a	FR1	2	R1067P
235.709	0.006	467829	COUNTDOWN_END	n/a	n/a	n/a	-999	2	[0, 0, 0]	n/a	FR1	2	R1067P
235.715	2.585	467832	ORIENT	n/a	n/a	n/a	-999	2	[0, 0, 0]	n/a	FR1	2	R1067P
238.3	2.433	469125	WORD	n/a	wordpools/wordpool_EN.txt	STREET	1	2	[0, 0, 0]	n/a	FR1	2	R1067P
240.733	2.384	470341	WORD	n/a	wordpools/wordpool_EN.txt	PARK	2	2	[0, 0, 0]	n/a	FR1	2	R1067P
243.117	2.434	471533	WORD	n/a	wordpools/wordpool_EN.txt	CLOWN	3	2	[0, 0, 0]	n/a	FR1	2	R1067P
245.551	2.4	472750	WORD	n/a	wordpools/wordpool_EN.txt	TREE	4	2	[0, 0, 0]	n/a	FR1	2	R1067P
247.951	2.401	473950	WORD	n/a	wordpools/wordpool_EN.txt	BLOOM	5	2	[0, 0, 0]	n/a	FR1	2	R1067P
250.352	2.55	475151	WORD	n/a	wordpools/wordpool_EN.txt	VASE	6	2	[0, 0, 0]	n/a	FR1	2	R1067P
252.902	2.551	476426	WORD	n/a	wordpools/wordpool_EN.txt	HILL	7	2	[0, 0, 0]	n/a	FR1	2	R1067P
255.453	2.466	477701	WORD	n/a	wordpools/wordpool_EN.txt	PIE	8	2	[0, 0, 0]	n/a	FR1	2	R1067P
257.919	2.502	478934	WORD	n/a	wordpools/wordpool_EN.txt	BEE	9	2	[0, 0, 0]	n/a	FR1	2	R1067P
260.421	2.617	480185	WORD	n/a	wordpools/wordpool_EN.txt	JUICE	10	2	[0, 0, 0]	n/a	FR1	2	R1067P
263.038	2.6	481493	WORD	n/a	wordpools/wordpool_EN.txt	ELF	11	2	[0, 0, 0]	n/a	FR1	2	R1067P
265.638	1.617	482793	WORD	n/a	wordpools/wordpool_EN.txt	BREAD	12	2	[0, 0, 0]	n/a	FR1	2	R1067P
267.255	0.001	483602	DISTRACT_START	n/a	n/a	n/a	-999	2	[0, 0, 0]	n/a	FR1	2	R1067P
267.256	0.016	483602	START	n/a	n/a	n/a	-999	2	[-999, -999, -999]	n/a	FR1	2	R1067P
267.272	6.168	483610	PROB	6.168	n/a	n/a	-999	2	[6, 9, 9]	24	FR1	2	R1067P
273.44	4.034	486694	PROB	4.034	n/a	n/a	-999	2	[8, 4, 3]	15	FR1	2	R1067P
277.474	3.249	488711	PROB	3.249	n/a	n/a	-999	2	[6, 2, 3]	11	FR1	2	R1067P
280.723	3.685	490335	PROB	3.685	n/a	n/a	-999	2	[9, 5, 1]	15	FR1	2	R1067P
284.408	3.889	492178	PROB	3.889	n/a	n/a	-999	2	[2, 6, 1]	9	FR1	2	R1067P
288.297	0.012	494122	STOP	n/a	n/a	n/a	-999	2	[-999, -999, -999]	n/a	FR1	2	R1067P
288.309	1.151	494128	DISTRACT_END	n/a	n/a	n/a	-999	2	[0, 0, 0]	n/a	FR1	2	R1067P
289.46	5.586	494704	REC_START	n/a	n/a	n/a	-999	2	[0, 0, 0]	n/a	FR1	2	R1067P
295.046	3.993	497496	REC_WORD	3.993	n/a	CART	-999	2	[0, 0, 0]	n/a	FR1	2	R1067P
299.039	6.169	499493	REC_WORD_VV	6.169	n/a	<>	-999	2	[0, 0, 0]	n/a	FR1	2	R1067P
305.208	14.262	502577	REC_WORD	14.262	n/a	BELL	-999	2	[0, 0, 0]	n/a	FR1	2	R1067P
319.47	2.595	509708	REC_END	n/a	n/a	n/a	-999	2	[0, 0, 0]	n/a	FR1	2	R1067P
322.065	0.001	511005	COUNTDOWN_START	n/a	n/a	n/a	-999	3	[0, 0, 0]	n/a	FR1	2	R1067P
322.066	10.427	511006	TRIAL	n/a	n/a	n/a	-999	3	[0, 0, 0]	n/a	FR1	2	R1067P
332.493	0.008	516219	COUNTDOWN_END	n/a	n/a	n/a	-999	3	[0, 0, 0]	n/a	FR1	2	R1067P
332.501	2.617	516223	ORIENT	n/a	n/a	n/a	-999	3	[0, 0, 0]	n/a	FR1	2	R1067P
335.118	2.45	517531	WORD	n/a	wordpools/wordpool_EN.txt	MILK	1	3	[0, 0, 0]	n/a	FR1	2	R1067P
337.568	2.383	518756	WORD	n/a	wordpools/wordpool_EN.txt	DIME	2	3	[0, 0, 0]	n/a	FR1	2	R1067P
339.951	2.502	519948	WORD	n/a	wordpools/wordpool_EN.txt	FOOD	3	3	[0, 0, 0]	n/a	FR1	2	R1067P
342.453	2.499	521199	WORD	n/a	wordpools/wordpool_EN.txt	OAR	4	3	[0, 0, 0]	n/a	FR1	2	R1067P
344.952	2.451	522448	WORD	n/a	wordpools/wordpool_EN.txt	HEART	5	3	[0, 0, 0]	n/a	FR1	2	R1067P
347.403	2.618	523674	WORD	n/a	wordpools/wordpool_EN.txt	CROWN	6	3	[0, 0, 0]	n/a	FR1	2	R1067P
350.021	2.383	524983	WORD	n/a	wordpools/wordpool_EN.txt	STEAK	7	3	[0, 0, 0]	n/a	FR1	2	R1067P
352.404	2.467	526174	WORD	n/a	wordpools/wordpool_EN.txt	TRAIN	8	3	[0, 0, 0]	n/a	FR1	2	R1067P
354.871	2.484	527407	WORD	n/a	wordpools/wordpool_EN.txt	LAMB	9	3	[0, 0, 0]	n/a	FR1	2	R1067P
357.355	2.517	528649	WORD	n/a	wordpools/wordpool_EN.txt	SMOKE	10	3	[0, 0, 0]	n/a	FR1	2	R1067P
359.872	2.501	529908	WORD	n/a	wordpools/wordpool_EN.txt	EGG	11	3	[0, 0, 0]	n/a	FR1	2	R1067P
362.373	1.617	531158	WORD	n/a	wordpools/wordpool_EN.txt	PLATE	12	3	[0, 0, 0]	n/a	FR1	2	R1067P
363.99	0.001	531967	DISTRACT_START	n/a	n/a	n/a	-999	3	[0, 0, 0]	n/a	FR1	2	R1067P
363.991	0.016	531967	START	n/a	n/a	n/a	-999	3	[-999, -999, -999]	n/a	FR1	2	R1067P
364.007	7.534	531975	PROB	7.534	n/a	n/a	-999	3	[5, 6, 9]	20	FR1	2	R1067P
371.541	3.451	535742	PROB	3.451	n/a	n/a	-999	3	[1, 4, 7]	12	FR1	2	R1067P
374.992	4.518	537467	PROB	4.518	n/a	n/a	-999	3	[1, 7, 6]	14	FR1	2	R1067P
379.51	3.967	539726	PROB	3.967	n/a	n/a	-999	3	[3, 8, 6]	17	FR1	2	R1067P
383.477	4.084	541710	PROB	4.084	n/a	n/a	-999	3	[9, 8, 1]	18	FR1	2	R1067P
387.561	0.017	543752	STOP	n/a	n/a	n/a	-999	3	[-999, -999, -999]	n/a	FR1	2	R1067P
387.578	1.1	543760	DISTRACT_END	n/a	n/a	n/a	-999	3	[0, 0, 0]	n/a	FR1	2	R1067P
388.678	0.917	544310	REC_START	n/a	n/a	n/a	-999	3	[0, 0, 0]	n/a	FR1	2	R1067P
389.595	0.827	544769	REC_WORD_VV	0.827	n/a	<>	-999	3	[0, 0, 0]	n/a	FR1	2	R1067P
390.422	1.649	545182	REC_WORD	1.649	n/a	YOLK	-999	3	[0, 0, 0]	n/a	FR1	2	R1067P
392.071	2.398	546007	REC_WORD	2.398	n/a	EGG	-999	3	[0, 0, 0]	n/a	FR1	2	R1067P
394.469	24.221	547205	REC_WORD	24.221	n/a	LAKE	-999	3	[0, 0, 0]	n/a	FR1	2	R1067P
418.69	3.411	559315	REC_END	n/a	n/a	n/a	-999	3	[0, 0, 0]	n/a	FR1	2	R1067P
422.101	0.0	561021	TRIAL	n/a	n/a	n/a	-999	4	[0, 0, 0]	n/a	FR1	2	R1067P
422.101	10.428	561021	COUNTDOWN_START	n/a	n/a	n/a	-999	4	[0, 0, 0]	n/a	FR1	2	R1067P
432.529	0.007	566235	COUNTDOWN_END	n/a	n/a	n/a	-999	4	[0, 0, 0]	n/a	FR1	2	R1067P
432.536	2.617	566238	ORIENT	n/a	n/a	n/a	-999	4	[0, 0, 0]	n/a	FR1	2	R1067P
435.153	2.434	567546	WORD	n/a	wordpools/wordpool_EN.txt	CHIEF	1	4	[0, 0, 0]	n/a	FR1	2	R1067P
437.587	2.567	568763	WORD	n/a	wordpools/wordpool_EN.txt	BENCH	2	4	[0, 0, 0]	n/a	FR1	2	R1067P
440.154	2.451	570047	WORD	n/a	wordpools/wordpool_EN.txt	PALM	3	4	[0, 0, 0]	n/a	FR1	2	R1067P
442.605	2.467	571272	WORD	n/a	wordpools/wordpool_EN.txt	SHIELD	4	4	[0, 0, 0]	n/a	FR1	2	R1067P
445.072	2.417	572506	WORD	n/a	wordpools/wordpool_EN.txt	CAKE	5	4	[0, 0, 0]	n/a	FR1	2	R1067P
447.489	2.567	573714	WORD	n/a	wordpools/wordpool_EN.txt	COIN	6	4	[0, 0, 0]	n/a	FR1	2	R1067P
450.056	2.616	574998	WORD	n/a	wordpools/wordpool_EN.txt	ROSE	7	4	[0, 0, 0]	n/a	FR1	2	R1067P
452.672	2.602	576306	WORD	n/a	wordpools/wordpool_EN.txt	RICE	8	4	[0, 0, 0]	n/a	FR1	2	R1067P
455.274	2.383	577606	WORD	n/a	wordpools/wordpool_EN.txt	CHAIR	9	4	[0, 0, 0]	n/a	FR1	2	R1067P
457.657	2.468	578798	WORD	n/a	wordpools/wordpool_EN.txt	CUP	10	4	[0, 0, 0]	n/a	FR1	2	R1067P
460.125	2.5	580032	WORD	n/a	wordpools/wordpool_EN.txt	DRUM	11	4	[0, 0, 0]	n/a	FR1	2	R1067P
462.625	1.617	581282	WORD	n/a	wordpools/wordpool_EN.txt	FROG	12	4	[0, 0, 0]	n/a	FR1	2	R1067P
464.242	0.001	582090	DISTRACT_START	n/a	n/a	n/a	-999	4	[0, 0, 0]	n/a	FR1	2	R1067P
464.243	0.016	582091	START	n/a	n/a	n/a	-999	4	[-999, -999, -999]	n/a	FR1	2	R1067P
464.259	6.318	582099	PROB	6.318	n/a	n/a	-999	4	[5, 3, 8]	19	FR1	2	R1067P
470.577	3.7	585258	PROB	3.7	n/a	n/a	-999	4	[9, 3, 1]	13	FR1	2	R1067P
474.277	7.467	587107	PROB	7.467	n/a	n/a	-999	4	[7, 8, 1]	16	FR1	2	R1067P
481.744	5.818	590841	PROB	5.818	n/a	n/a	-999	4	[4, 3, 2]	9	FR1	2	R1067P
487.562	0.018	593750	STOP	n/a	n/a	n/a	-999	4	[-999, -999, -999]	n/a	FR1	2	R1067P
487.58	1.183	593759	DISTRACT_END	n/a	n/a	n/a	-999	4	[0, 0, 0]	n/a	FR1	2	R1067P
488.763	1.761	594350	REC_START	n/a	n/a	n/a	-999	4	[0, 0, 0]	n/a	FR1	2	R1067P
490.524	1.062	595231	REC_WORD	1.062	n/a	ROSE	-999	4	[0, 0, 0]	n/a	FR1	2	R1067P
491.586	2.439	595762	REC_WORD	2.439	n/a	RUM	-999	4	[0, 0, 0]	n/a	FR1	2	R1067P
494.025	0.535	596981	REC_WORD_VV	0.535	n/a	<>	-999	4	[0, 0, 0]	n/a	FR1	2	R1067P
494.56	1.079	597248	REC_WORD	1.079	n/a	DRUM	-999	4	[0, 0, 0]	n/a	FR1	2	R1067P
495.639	0.222	597788	REC_WORD_VV	0.222	n/a	<>	-999	4	[0, 0, 0]	n/a	FR1	2	R1067P
495.861	4.57	597899	REC_WORD	4.57	n/a	CUP	-999	4	[0, 0, 0]	n/a	FR1	2	R1067P
500.431	1.0	600184	REC_WORD_VV	1.0	n/a	<>	-999	4	[0, 0, 0]	n/a	FR1	2	R1067P
501.431	17.344	600684	REC_WORD_VV	17.344	n/a	<>	-999	4	[0, 0, 0]	n/a	FR1	2	R1067P
518.775	83.175	609355	REC_END	n/a	n/a	n/a	-999	4	[0, 0, 0]	n/a	FR1	2	R1067P
601.95	0.0	650941	COUNTDOWN_START	n/a	n/a	n/a	-999	5	[0, 0, 0]	n/a	FR1	2	R1067P
601.95	10.428	650941	TRIAL	n/a	n/a	n/a	-999	5	[0, 0, 0]	n/a	FR1	2	R1067P
612.378	0.008	656155	COUNTDOWN_END	n/a	n/a	n/a	-999	5	[0, 0, 0]	n/a	FR1	2	R1067P
612.386	2.4	656159	ORIENT	n/a	n/a	n/a	-999	5	[0, 0, 0]	n/a	FR1	2	R1067P
614.786	2.551	657358	WORD	n/a	wordpools/wordpool_EN.txt	BAT	1	5	[0, 0, 0]	n/a	FR1	2	R1067P
617.337	2.583	658634	WORD	n/a	wordpools/wordpool_EN.txt	MOTH	2	5	[0, 0, 0]	n/a	FR1	2	R1067P
619.92	2.502	659925	WORD	n/a	wordpools/wordpool_EN.txt	STEM	3	5	[0, 0, 0]	n/a	FR1	2	R1067P
622.422	2.532	661176	WORD	n/a	wordpools/wordpool_EN.txt	STORE	4	5	[0, 0, 0]	n/a	FR1	2	R1067P
624.954	2.602	662442	WORD	n/a	wordpools/wordpool_EN.txt	CAPE	5	5	[0, 0, 0]	n/a	FR1	2	R1067P
627.556	2.567	663743	WORD	n/a	wordpools/wordpool_EN.txt	FOG	6	5	[0, 0, 0]	n/a	FR1	2	R1067P
630.123	2.583	665027	WORD	n/a	wordpools/wordpool_EN.txt	PLANT	7	5	[0, 0, 0]	n/a	FR1	2	R1067P
632.706	2.585	666318	WORD	n/a	wordpools/wordpool_EN.txt	HOOF	8	5	[0, 0, 0]	n/a	FR1	2	R1067P
635.291	2.416	667610	WORD	n/a	wordpools/wordpool_EN.txt	MOON	9	5	[0, 0, 0]	n/a	FR1	2	R1067P
637.707	2.568	668818	WORD	n/a	wordpools/wordpool_EN.txt	BIRD	10	5	[0, 0, 0]	n/a	FR1	2	R1067P
640.275	2.483	670102	WORD	n/a	wordpools/wordpool_EN.txt	WING	11	5	[0, 0, 0]	n/a	FR1	2	R1067P
642.758	1.601	671344	WORD	n/a	wordpools/wordpool_EN.txt	ANT	12	5	[0, 0, 0]	n/a	FR1	2	R1067P
644.359	0.001	672144	DISTRACT_START	n/a	n/a	n/a	-999	5	[0, 0, 0]	n/a	FR1	2	R1067P
644.36	0.016	672145	START	n/a	n/a	n/a	-999	5	[-999, -999, -999]	n/a	FR1	2	R1067P
644.376	5.651	672153	PROB	5.651	n/a	n/a	-999	5	[4, 9, 2]	15	FR1	2	R1067P
650.027	3.434	674978	PROB	3.434	n/a	n/a	-999	5	[4, 7, 2]	13	FR1	2	R1067P
653.461	4.117	676695	PROB	4.117	n/a	n/a	-999	5	[8, 3, 7]	18	FR1	2	R1067P
657.578	3.518	678753	PROB	3.518	n/a	n/a	-999	5	[1, 4, 5]	10	FR1	2	R1067P
661.096	4.56	680512	PROB	4.56	n/a	n/a	-999	5	[5, 3, 7]	15	FR1	2	R1067P
665.656	0.006	682792	STOP	n/a	n/a	n/a	-999	5	[-999, -999, -999]	n/a	FR1	2	R1067P
665.662	1.168	682795	DISTRACT_END	n/a	n/a	n/a	-999	5	[0, 0, 0]	n/a	FR1	2	R1067P
666.83	0.628	683379	REC_START	n/a	n/a	n/a	-999	5	[0, 0, 0]	n/a	FR1	2	R1067P
667.458	0.548	683693	REC_WORD_VV	0.548	n/a	<>	-999	5	[0, 0, 0]	n/a	FR1	2	R1067P
668.006	0.8	683967	REC_WORD	0.8	n/a	BAT	-999	5	[0, 0, 0]	n/a	FR1	2	R1067P
668.806	1.241	684367	REC_WORD	1.241	n/a	CALF	-999	5	[0, 0, 0]	n/a	FR1	2	R1067P
670.047	26.794	684988	REC_WORD	26.794	n/a	MOON	-999	5	[0, 0, 0]	n/a	FR1	2	R1067P
696.841	1.728	698384	REC_END	n/a	n/a	n/a	-999	5	[0, 0, 0]	n/a	FR1	2	R1067P
698.569	0.001	699248	COUNTDOWN_START	n/a	n/a	n/a	-999	6	[0, 0, 0]	n/a	FR1	2	R1067P
698.57	10.427	699248	TRIAL	n/a	n/a	n/a	-999	6	[0, 0, 0]	n/a	FR1	2	R1067P
708.997	0.008	704462	COUNTDOWN_END	n/a	n/a	n/a	-999	6	[0, 0, 0]	n/a	FR1	2	R1067P
709.005	2.567	704466	ORIENT	n/a	n/a	n/a	-999	6	[0, 0, 0]	n/a	FR1	2	R1067P
711.572	2.583	705749	WORD	n/a	wordpools/wordpool_EN.txt	TEA	1	6	[0, 0, 0]	n/a	FR1	2	R1067P
714.155	2.617	707040	WORD	n/a	wordpools/wordpool_EN.txt	FARM	2	6	[0, 0, 0]	n/a	FR1	2	R1067P
716.772	2.501	708349	WORD	n/a	wordpools/wordpool_EN.txt	SEAT	3	6	[0, 0, 0]	n/a	FR1	2	R1067P
719.273	2.416	709599	WORD	n/a	wordpools/wordpool_EN.txt	BRUSH	4	6	[0, 0, 0]	n/a	FR1	2	R1067P
721.689	2.385	710807	WORD	n/a	wordpools/wordpool_EN.txt	AXE	5	6	[0, 0, 0]	n/a	FR1	2	R1067P
724.074	2.5	712000	WORD	n/a	wordpools/wordpool_EN.txt	SLEEVE	6	6	[0, 0, 0]	n/a	FR1	2	R1067P
726.574	2.518	713250	WORD	n/a	wordpools/wordpool_EN.txt	CORN	7	6	[0, 0, 0]	n/a	FR1	2	R1067P
729.092	2.599	714509	WORD	n/a	wordpools/wordpool_EN.txt	HOSE	8	6	[0, 0, 0]	n/a	FR1	2	R1067P
731.691	2.585	715808	WORD	n/a	wordpools/wordpool_EN.txt	SMILE	9	6	[0, 0, 0]	n/a	FR1	2	R1067P
734.276	2.516	717100	WORD	n/a	wordpools/wordpool_EN.txt	POLE	10	6	[0, 0, 0]	n/a	FR1	2	R1067P
736.792	2.401	718358	WORD	n/a	wordpools/wordpool_EN.txt	DART	11	6	[0, 0, 0]	n/a	FR1	2	R1067P
739.193	1.616	719559	WORD	n/a	wordpools/wordpool_EN.txt	HAT	12	6	[0, 0, 0]	n/a	FR1	2	R1067P
740.809	0.001	720367	DISTRACT_START	n/a	n/a	n/a	-999	6	[0, 0, 0]	n/a	FR1	2	R1067P
740.81	0.016	720367	START	n/a	n/a	n/a	-999	6	[-999, -999, -999]	n/a	FR1	2	R1067P
740.826	6.552	720375	PROB	6.552	n/a	n/a	-999	6	[6, 6, 7]	19	FR1	2	R1067P
747.378	3.851	723651	PROB	3.851	n/a	n/a	-999	6	[8, 8, 3]	19	FR1	2	R1067P
751.229	3.817	725577	PROB	3.817	n/a	n/a	-999	6	[9, 8, 1]	18	FR1	2	R1067P
755.046	3.501	727485	PROB	3.501	n/a	n/a	-999	6	[5, 5, 9]	19	FR1	2	R1067P
758.547	3.886	729235	PROB	3.886	n/a	n/a	-999	6	[6, 9, 2]	17	FR1	2	R1067P
762.433	0.015	731178	STOP	n/a	n/a	n/a	-999	6	[-999, -999, -999]	n/a	FR1	2	R1067P
762.448	1.067	731186	DISTRACT_END	n/a	n/a	n/a	-999	6	[0, 0, 0]	n/a	FR1	2	R1067P
763.515	1.187	731719	REC_START	n/a	n/a	n/a	-999	6	[0, 0, 0]	n/a	FR1	2	R1067P
764.702	0.302	732313	REC_WORD_VV	0.302	n/a	<>	-999	6	[0, 0, 0]	n/a	FR1	2	R1067P
765.004	1.113	732464	REC_WORD	1.113	n/a	CORN	-999	6	[0, 0, 0]	n/a	FR1	2	R1067P
766.117	1.315	733020	REC_WORD	1.315	n/a	HOSE	-999	6	[0, 0, 0]	n/a	FR1	2	R1067P
767.432	1.054	733678	REC_WORD	1.054	n/a	SMILE	-999	6	[0, 0, 0]	n/a	FR1	2	R1067P
768.486	0.205	734205	REC_WORD_VV	0.205	n/a	<>	-999	6	[0, 0, 0]	n/a	FR1	2	R1067P
768.691	6.127	734307	REC_WORD	6.127	n/a	DART	-999	6	[0, 0, 0]	n/a	FR1	2	R1067P
774.818	1.0	737370	REC_WORD_VV	1.0	n/a	<>	-999	6	[0, 0, 0]	n/a	FR1	2	R1067P
775.818	1.0	737870	REC_WORD_VV	1.0	n/a	<>	-999	6	[0, 0, 0]	n/a	FR1	2	R1067P
776.818	7.922	738370	REC_WORD_VV	7.922	n/a	<>	-999	6	[0, 0, 0]	n/a	FR1	2	R1067P
784.74	0.355	742331	REC_WORD_VV	0.355	n/a	<>	-999	6	[0, 0, 0]	n/a	FR1	2	R1067P
785.095	8.437	742509	REC_WORD	8.437	n/a	BAG	-999	6	[0, 0, 0]	n/a	FR1	2	R1067P
793.532	2.489	746727	REC_END	n/a	n/a	n/a	-999	6	[0, 0, 0]	n/a	FR1	2	R1067P
796.021	0.0	747971	TRIAL	n/a	n/a	n/a	-999	7	[0, 0, 0]	n/a	FR1	2	R1067P
796.021	10.428	747971	COUNTDOWN_START	n/a	n/a	n/a	-999	7	[0, 0, 0]	n/a	FR1	2	R1067P
806.449	0.007	753185	COUNTDOWN_END	n/a	n/a	n/a	-999	7	[0, 0, 0]	n/a	FR1	2	R1067P
806.456	2.383	753189	ORIENT	n/a	n/a	n/a	-999	7	[0, 0, 0]	n/a	FR1	2	R1067P
808.839	2.451	754380	WORD	n/a	wordpools/wordpool_EN.txt	CALF	1	7	[0, 0, 0]	n/a	FR1	2	R1067P
811.29	2.483	755606	WORD	n/a	wordpools/wordpool_EN.txt	DITCH	2	7	[0, 0, 0]	n/a	FR1	2	R1067P
813.773	2.485	756847	WORD	n/a	wordpools/wordpool_EN.txt	BEACH	3	7	[0, 0, 0]	n/a	FR1	2	R1067P
816.258	2.566	758089	WORD	n/a	wordpools/wordpool_EN.txt	OWL	4	7	[0, 0, 0]	n/a	FR1	2	R1067P
818.824	2.435	759372	WORD	n/a	wordpools/wordpool_EN.txt	SEA	5	7	[0, 0, 0]	n/a	FR1	2	R1067P
821.259	2.583	760590	WORD	n/a	wordpools/wordpool_EN.txt	SHELL	6	7	[0, 0, 0]	n/a	FR1	2	R1067P
823.842	2.585	761881	WORD	n/a	wordpools/wordpool_EN.txt	PEA	7	7	[0, 0, 0]	n/a	FR1	2	R1067P
826.427	2.416	763174	WORD	n/a	wordpools/wordpool_EN.txt	HORSE	8	7	[0, 0, 0]	n/a	FR1	2	R1067P
828.843	2.401	764382	WORD	n/a	wordpools/wordpool_EN.txt	SOCK	9	7	[0, 0, 0]	n/a	FR1	2	R1067P
831.244	2.499	765582	WORD	n/a	wordpools/wordpool_EN.txt	MULE	10	7	[0, 0, 0]	n/a	FR1	2	R1067P
833.743	2.569	766831	WORD	n/a	wordpools/wordpool_EN.txt	SKUNK	11	7	[0, 0, 0]	n/a	FR1	2	R1067P
836.312	1.616	768116	WORD	n/a	wordpools/wordpool_EN.txt	CLAY	12	7	[0, 0, 0]	n/a	FR1	2	R1067P
837.928	0.001	768924	DISTRACT_START	n/a	n/a	n/a	-999	7	[0, 0, 0]	n/a	FR1	2	R1067P
837.929	0.015	768924	START	n/a	n/a	n/a	-999	7	[-999, -999, -999]	n/a	FR1	2	R1067P
837.944	5.452	768932	PROB	5.452	n/a	n/a	-999	7	[4, 2, 7]	13	FR1	2	R1067P
843.396	3.234	771658	PROB	3.234	n/a	n/a	-999	7	[4, 4, 1]	9	FR1	2	R1067P
846.63	3.1	773275	PROB	3.1	n/a	n/a	-999	7	[2, 6, 1]	9	FR1	2	R1067P
849.73	5.951	774825	PROB	5.951	n/a	n/a	-999	7	[6, 5, 4]	15	FR1	2	R1067P
855.681	5.801	777800	PROB	5.801	n/a	n/a	-999	7	[2, 6, 7]	15	FR1	2	R1067P
861.482	0.018	780700	STOP	n/a	n/a	n/a	-999	7	[-999, -999, -999]	n/a	FR1	2	R1067P
861.5	1.217	780709	DISTRACT_END	n/a	n/a	n/a	-999	7	[0, 0, 0]	n/a	FR1	2	R1067P
862.717	1.093	781318	REC_START	n/a	n/a	n/a	-999	7	[0, 0, 0]	n/a	FR1	2	R1067P
863.81	1.131	781864	REC_WORD_VV	1.131	n/a	<>	-999	7	[0, 0, 0]	n/a	FR1	2	R1067P
864.941	1.802	782430	REC_WORD	1.802	n/a	CALF	-999	7	[0, 0, 0]	n/a	FR1	2	R1067P
866.743	1.446	783331	REC_WORD	1.446	n/a	DITCH	-999	7	[0, 0, 0]	n/a	FR1	2	R1067P
868.189	1.743	784054	REC_WORD	1.743	n/a	BEACH	-999	7	[0, 0, 0]	n/a	FR1	2	R1067P
869.932	1.198	784925	REC_WORD	1.198	n/a	OWL	-999	7	[0, 0, 0]	n/a	FR1	2	R1067P
871.13	0.145	785524	REC_WORD_VV	0.145	n/a	<>	-999	7	[0, 0, 0]	n/a	FR1	2	R1067P
871.275	21.454	785597	REC_WORD	21.454	n/a	SKUNK	-999	7	[0, 0, 0]	n/a	FR1	2	R1067P
892.729	2.527	796323	REC_END	n/a	n/a	n/a	-999	7	[0, 0, 0]	n/a	FR1	2	R1067P
895.256	0.0	797586	TRIAL	n/a	n/a	n/a	-999	8	[0, 0, 0]	n/a	FR1	2	R1067P
895.256	10.428	797586	COUNTDOWN_START	n/a	n/a	n/a	-999	8	[0, 0, 0]	n/a	FR1	2	R1067P
905.684	0.006	802800	COUNTDOWN_END	n/a	n/a	n/a	-999	8	[0, 0, 0]	n/a	FR1	2	R1067P
905.69	2.585	802803	ORIENT	n/a	n/a	n/a	-999	8	[0, 0, 0]	n/a	FR1	2	R1067P
908.275	2.566	804096	WORD	n/a	wordpools/wordpool_EN.txt	WALL	1	8	[0, 0, 0]	n/a	FR1	2	R1067P
910.841	2.535	805379	WORD	n/a	wordpools/wordpool_EN.txt	VEST	2	8	[0, 0, 0]	n/a	FR1	2	R1067P
913.376	2.416	806646	WORD	n/a	wordpools/wordpool_EN.txt	SLUSH	3	8	[0, 0, 0]	n/a	FR1	2	R1067P
915.792	2.568	807854	WORD	n/a	wordpools/wordpool_EN.txt	BOX	4	8	[0, 0, 0]	n/a	FR1	2	R1067P
918.36	2.6	809138	WORD	n/a	wordpools/wordpool_EN.txt	THREAD	5	8	[0, 0, 0]	n/a	FR1	2	R1067P
920.96	2.551	810438	WORD	n/a	wordpools/wordpool_EN.txt	PASTE	6	8	[0, 0, 0]	n/a	FR1	2	R1067P
923.511	2.601	811713	WORD	n/a	wordpools/wordpool_EN.txt	WOOD	7	8	[0, 0, 0]	n/a	FR1	2	R1067P
926.112	2.534	813014	WORD	n/a	wordpools/wordpool_EN.txt	PIN	8	8	[0, 0, 0]	n/a	FR1	2	R1067P
928.646	2.4	814281	WORD	n/a	wordpools/wordpool_EN.txt	SQUARE	9	8	[0, 0, 0]	n/a	FR1	2	R1067P
931.046	2.4	815481	WORD	n/a	wordpools/wordpool_EN.txt	DOCK	10	8	[0, 0, 0]	n/a	FR1	2	R1067P
933.446	2.618	816681	WORD	n/a	wordpools/wordpool_EN.txt	BOARD	11	8	[0, 0, 0]	n/a	FR1	2	R1067P
936.064	1.616	817989	WORD	n/a	wordpools/wordpool_EN.txt	YARD	12	8	[0, 0, 0]	n/a	FR1	2	R1067P
937.68	0.001	818797	DISTRACT_START	n/a	n/a	n/a	-999	8	[0, 0, 0]	n/a	FR1	2	R1067P
937.681	0.015	818798	START	n/a	n/a	n/a	-999	8	[-999, -999, -999]	n/a	FR1	2	R1067P
937.696	7.369	818805	PROB	7.369	n/a	n/a	-999	8	[9, 3, 8]	20	FR1	2	R1067P
945.065	4.084	822490	PROB	4.084	n/a	n/a	-999	8	[6, 1, 3]	10	FR1	2	R1067P
949.149	3.001	824532	PROB	3.001	n/a	n/a	-999	8	[3, 5, 3]	11	FR1	2	R1067P
952.15	4.318	826032	PROB	4.318	n/a	n/a	-999	8	[8, 5, 5]	18	FR1	2	R1067P
956.468	3.078	828191	PROB	3.078	n/a	n/a	-999	8	[2, 5, 1]	8	FR1	2	R1067P
959.546	0.005	829730	STOP	n/a	n/a	n/a	-999	8	[-999, -999, -999]	n/a	FR1	2	R1067P
959.551	1.184	829732	DISTRACT_END	n/a	n/a	n/a	-999	8	[0, 0, 0]	n/a	FR1	2	R1067P
960.735	1.79	830324	REC_START	n/a	n/a	n/a	-999	8	[0, 0, 0]	n/a	FR1	2	R1067P
962.525	1.507	831219	REC_WORD	1.507	n/a	THREAD	-999	8	[0, 0, 0]	n/a	FR1	2	R1067P
964.032	1.717	831973	REC_WORD	1.717	n/a	PASTE	-999	8	[0, 0, 0]	n/a	FR1	2	R1067P
965.749	2.194	832831	REC_WORD	2.194	n/a	WOOD	-999	8	[0, 0, 0]	n/a	FR1	2	R1067P
967.943	22.804	833928	REC_WORD	22.804	n/a	SQUARE	-999	8	[0, 0, 0]	n/a	FR1	2	R1067P
990.747	2.093	845330	REC_END	n/a	n/a	n/a	-999	8	[0, 0, 0]	n/a	FR1	2	R1067P
992.84	0.0	846376	TRIAL	n/a	n/a	n/a	-999	9	[0, 0, 0]	n/a	FR1	2	R1067P
992.84	10.428	846376	COUNTDOWN_START	n/a	n/a	n/a	-999	9	[0, 0, 0]	n/a	FR1	2	R1067P
1003.268	0.008	851590	COUNTDOWN_END	n/a	n/a	n/a	-999	9	[0, 0, 0]	n/a	FR1	2	R1067P
1003.276	2.616	851594	ORIENT	n/a	n/a	n/a	-999	9	[0, 0, 0]	n/a	FR1	2	R1067P
1005.892	2.602	852902	WORD	n/a	wordpools/wordpool_EN.txt	STICK	1	9	[0, 0, 0]	n/a	FR1	2	R1067P
1008.494	2.551	854203	WORD	n/a	wordpools/wordpool_EN.txt	MUG	2	9	[0, 0, 0]	n/a	FR1	2	R1067P
1011.045	2.5	855478	WORD	n/a	wordpools/wordpool_EN.txt	FOOT	3	9	[0, 0, 0]	n/a	FR1	2	R1067P
1013.545	2.567	856728	WORD	n/a	wordpools/wordpool_EN.txt	CHEEK	4	9	[0, 0, 0]	n/a	FR1	2	R1067P
1016.112	2.384	858011	WORD	n/a	wordpools/wordpool_EN.txt	RUG	5	9	[0, 0, 0]	n/a	FR1	2	R1067P
1018.496	2.617	859203	WORD	n/a	wordpools/wordpool_EN.txt	DOOR	6	9	[0, 0, 0]	n/a	FR1	2	R1067P
1021.113	2.434	860512	WORD	n/a	wordpools/wordpool_EN.txt	THUMB	7	9	[0, 0, 0]	n/a	FR1	2	R1067P
1023.547	2.434	861729	WORD	n/a	wordpools/wordpool_EN.txt	EEL	8	9	[0, 0, 0]	n/a	FR1	2	R1067P
1025.981	2.55	862946	WORD	n/a	wordpools/wordpool_EN.txt	CHIN	9	9	[0, 0, 0]	n/a	FR1	2	R1067P
1028.531	2.433	864221	WORD	n/a	wordpools/wordpool_EN.txt	LIP	10	9	[0, 0, 0]	n/a	FR1	2	R1067P
1030.964	2.401	865437	WORD	n/a	wordpools/wordpool_EN.txt	SIGN	11	9	[0, 0, 0]	n/a	FR1	2	R1067P
1033.365	1.617	866637	WORD	n/a	wordpools/wordpool_EN.txt	BED	12	9	[0, 0, 0]	n/a	FR1	2	R1067P
1034.982	0.001	867446	DISTRACT_START	n/a	n/a	n/a	-999	9	[0, 0, 0]	n/a	FR1	2	R1067P
1034.983	0.016	867446	START	n/a	n/a	n/a	-999	9	[-999, -999, -999]	n/a	FR1	2	R1067P
1034.999	5.134	867454	PROB	5.134	n/a	n/a	-999	9	[8, 7, 6]	21	FR1	2	R1067P
1040.133	4.368	870021	PROB	4.368	n/a	n/a	-999	9	[8, 1, 5]	14	FR1	2	R1067P
1044.501	3.817	872205	PROB	3.817	n/a	n/a	-999	9	[7, 6, 9]	22	FR1	2	R1067P
1048.318	4.284	874114	PROB	4.284	n/a	n/a	-999	9	[4, 7, 7]	18	FR1	2	R1067P
1052.602	5.519	876256	PROB	5.519	n/a	n/a	-999	9	[1, 5, 3]	9	FR1	2	R1067P
1058.121	0.016	879015	STOP	n/a	n/a	n/a	-999	9	[-999, -999, -999]	n/a	FR1	2	R1067P
1058.137	1.083	879023	DISTRACT_END	n/a	n/a	n/a	-999	9	[0, 0, 0]	n/a	FR1	2	R1067P
1059.22	0.982	879564	REC_START	n/a	n/a	n/a	-999	9	[0, 0, 0]	n/a	FR1	2	R1067P
1060.202	1.21	880055	REC_WORD_VV	1.21	n/a	<>	-999	9	[0, 0, 0]	n/a	FR1	2	R1067P
1061.412	13.757	880660	REC_WORD	13.757	n/a	CHEEK	-999	9	[0, 0, 0]	n/a	FR1	2	R1067P
1075.169	2.403	887538	REC_WORD_VV	2.403	n/a	<>	-999	9	[0, 0, 0]	n/a	FR1	2	R1067P
1077.572	3.146	888740	REC_WORD_VV	3.146	n/a	<>	-999	9	[0, 0, 0]	n/a	FR1	2	R1067P
1080.718	8.519	890313	REC_WORD_VV	8.519	n/a	<>	-999	9	[0, 0, 0]	n/a	FR1	2	R1067P
1089.237	0.772	894572	REC_END	n/a	n/a	n/a	-999	9	[0, 0, 0]	n/a	FR1	2	R1067P
1090.009	0.001	894958	COUNTDOWN_START	n/a	n/a	n/a	-999	10	[0, 0, 0]	n/a	FR1	2	R1067P
1090.01	10.427	894959	TRIAL	n/a	n/a	n/a	-999	10	[0, 0, 0]	n/a	FR1	2	R1067P
1100.437	0.008	900172	COUNTDOWN_END	n/a	n/a	n/a	-999	10	[0, 0, 0]	n/a	FR1	2	R1067P
1100.445	2.516	900176	ORIENT	n/a	n/a	n/a	-999	10	[0, 0, 0]	n/a	FR1	2	R1067P
1102.961	2.501	901434	WORD	n/a	wordpools/wordpool_EN.txt	BOOT	1	10	[0, 0, 0]	n/a	FR1	2	R1067P
1105.462	2.45	902684	WORD	n/a	wordpools/wordpool_EN.txt	CROW	2	10	[0, 0, 0]	n/a	FR1	2	R1067P
1107.912	2.484	903909	WORD	n/a	wordpools/wordpool_EN.txt	CANE	3	10	[0, 0, 0]	n/a	FR1	2	R1067P
1110.396	2.516	905151	WORD	n/a	wordpools/wordpool_EN.txt	BOWL	4	10	[0, 0, 0]	n/a	FR1	2	R1067P
1112.912	2.435	906409	WORD	n/a	wordpools/wordpool_EN.txt	SPRING	5	10	[0, 0, 0]	n/a	FR1	2	R1067P
1115.347	2.583	907626	WORD	n/a	wordpools/wordpool_EN.txt	COW	6	10	[0, 0, 0]	n/a	FR1	2	R1067P
1117.93	2.435	908918	WORD	n/a	wordpools/wordpool_EN.txt	GRASS	7	10	[0, 0, 0]	n/a	FR1	2	R1067P
1120.365	2.483	910135	WORD	n/a	wordpools/wordpool_EN.txt	BROOM	8	10	[0, 0, 0]	n/a	FR1	2	R1067P
1122.848	2.501	911377	WORD	n/a	wordpools/wordpool_EN.txt	BUSH	9	10	[0, 0, 0]	n/a	FR1	2	R1067P
1125.349	2.516	912627	WORD	n/a	wordpools/wordpool_EN.txt	STOVE	10	10	[0, 0, 0]	n/a	FR1	2	R1067P
1127.865	2.402	913885	WORD	n/a	wordpools/wordpool_EN.txt	CUBE	11	10	[0, 0, 0]	n/a	FR1	2	R1067P
1130.267	1.616	915086	WORD	n/a	wordpools/wordpool_EN.txt	HEN	12	10	[0, 0, 0]	n/a	FR1	2	R1067P
1131.883	0.0	915894	DISTRACT_START	n/a	n/a	n/a	-999	10	[0, 0, 0]	n/a	FR1	2	R1067P
1131.883	0.016	915894	START	n/a	n/a	n/a	-999	10	[-999, -999, -999]	n/a	FR1	2	R1067P
1131.899	4.051	915902	PROB	4.051	n/a	n/a	-999	10	[3, 2, 4]	9	FR1	2	R1067P
1135.95	3.185	917927	PROB	3.185	n/a	n/a	-999	10	[1, 5, 5]	11	FR1	2	R1067P
1139.135	4.284	919520	PROB	4.284	n/a	n/a	-999	10	[5, 6, 4]	15	FR1	2	R1067P
1143.419	3.517	921662	PROB	3.517	n/a	n/a	-999	10	[6, 6, 6]	18	FR1	2	R1067P
1146.936	5.017	923420	PROB	5.017	n/a	n/a	-999	10	[3, 6, 9]	18	FR1	2	R1067P
1151.953	0.017	925929	STOP	n/a	n/a	n/a	-999	10	[-999, -999, -999]	n/a	FR1	2	R1067P
1151.97	1.118	925937	DISTRACT_END	n/a	n/a	n/a	-999	10	[0, 0, 0]	n/a	FR1	2	R1067P
1153.088	0.992	926496	REC_START	n/a	n/a	n/a	-999	10	[0, 0, 0]	n/a	FR1	2	R1067P
1154.08	4.701	926992	REC_WORD_VV	4.701	n/a	<>	-999	10	[0, 0, 0]	n/a	FR1	2	R1067P
1158.781	1.52	929342	REC_WORD	1.52	n/a	BROOM	-999	10	[0, 0, 0]	n/a	FR1	2	R1067P
1160.301	3.527	930102	REC_WORD	3.527	n/a	BOOT	-999	10	[0, 0, 0]	n/a	FR1	2	R1067P
1163.828	10.738	931866	REC_WORD	10.738	n/a	BOWL	-999	10	[0, 0, 0]	n/a	FR1	2	R1067P
1174.566	8.535	937234	REC_WORD	8.535	n/a	CROW	-999	10	[0, 0, 0]	n/a	FR1	2	R1067P
1183.101	2.359	941502	REC_END	n/a	n/a	n/a	-999	10	[0, 0, 0]	n/a	FR1	2	R1067P
1185.46	0.001	942681	COUNTDOWN_START	n/a	n/a	n/a	-999	11	[0, 0, 0]	n/a	FR1	2	R1067P
1185.461	10.427	942682	TRIAL	n/a	n/a	n/a	-999	11	[0, 0, 0]	n/a	FR1	2	R1067P
1195.888	0.007	947895	COUNTDOWN_END	n/a	n/a	n/a	-999	11	[0, 0, 0]	n/a	FR1	2	R1067P
1195.895	2.518	947898	ORIENT	n/a	n/a	n/a	-999	11	[0, 0, 0]	n/a	FR1	2	R1067P
1198.413	2.399	949157	WORD	n/a	wordpools/wordpool_EN.txt	HOUSE	1	11	[0, 0, 0]	n/a	FR1	2	R1067P
1200.812	2.569	950357	WORD	n/a	wordpools/wordpool_EN.txt	HAWK	2	11	[0, 0, 0]	n/a	FR1	2	R1067P
1203.381	2.549	951641	WORD	n/a	wordpools/wordpool_EN.txt	WAND	3	11	[0, 0, 0]	n/a	FR1	2	R1067P
1205.93	2.468	952916	WORD	n/a	wordpools/wordpool_EN.txt	GEESE	4	11	[0, 0, 0]	n/a	FR1	2	R1067P
1208.398	2.601	954150	WORD	n/a	wordpools/wordpool_EN.txt	STAR	5	11	[0, 0, 0]	n/a	FR1	2	R1067P
1210.999	2.4	955450	WORD	n/a	wordpools/wordpool_EN.txt	CLOUD	6	11	[0, 0, 0]	n/a	FR1	2	R1067P
1213.399	2.416	956650	WORD	n/a	wordpools/wordpool_EN.txt	PEARL	7	11	[0, 0, 0]	n/a	FR1	2	R1067P
1215.815	2.401	957858	WORD	n/a	wordpools/wordpool_EN.txt	SWORD	8	11	[0, 0, 0]	n/a	FR1	2	R1067P
1218.216	2.5	959058	WORD	n/a	wordpools/wordpool_EN.txt	STAIR	9	11	[0, 0, 0]	n/a	FR1	2	R1067P
1220.716	2.401	960308	WORD	n/a	wordpools/wordpool_EN.txt	GOLD	10	11	[0, 0, 0]	n/a	FR1	2	R1067P
1223.117	2.434	961509	WORD	n/a	wordpools/wordpool_EN.txt	ROAD	11	11	[0, 0, 0]	n/a	FR1	2	R1067P
1225.551	1.617	962726	WORD	n/a	wordpools/wordpool_EN.txt	BRIDGE	12	11	[0, 0, 0]	n/a	FR1	2	R1067P
1227.168	0.001	963534	DISTRACT_START	n/a	n/a	n/a	-999	11	[0, 0, 0]	n/a	FR1	2	R1067P
1227.169	0.016	963535	START	n/a	n/a	n/a	-999	11	[-999, -999, -999]	n/a	FR1	2	R1067P
1227.185	3.951	963543	PROB	3.951	n/a	n/a	-999	11	[1, 2, 6]	9	FR1	2	R1067P
1231.136	4.833	965518	PROB	4.833	n/a	n/a	-999	11	[7, 2, 5]	14	FR1	2	R1067P
1235.969	2.8	967934	PROB	2.8	n/a	n/a	-999	11	[6, 2, 1]	9	FR1	2	R1067P
1238.769	4.386	969334	PROB	4.386	n/a	n/a	-999	11	[5, 5, 4]	14	FR1	2	R1067P
1243.155	3.984	971527	PROB	3.984	n/a	n/a	-999	11	[4, 4, 6]	14	FR1	2	R1067P
1247.139	3.111	973519	PROB	3.111	n/a	n/a	-999	11	[1, 1, 3]	5	FR1	2	R1067P
1250.25	0.006	975075	STOP	n/a	n/a	n/a	-999	11	[-999, -999, -999]	n/a	FR1	2	R1067P
1250.256	1.185	975078	DISTRACT_END	n/a	n/a	n/a	-999	11	[0, 0, 0]	n/a	FR1	2	R1067P
1251.441	0.475	975670	REC_START	n/a	n/a	n/a	-999	11	[0, 0, 0]	n/a	FR1	2	R1067P
1251.916	0.392	975908	REC_WORD_VV	0.392	n/a	<>	-999	11	[0, 0, 0]	n/a	FR1	2	R1067P
1252.308	0.974	976104	REC_WORD	0.974	n/a	HOUSE	-999	11	[0, 0, 0]	n/a	FR1	2	R1067P
1253.282	0.719	976590	REC_WORD	0.719	n/a	HAWK	-999	11	[0, 0, 0]	n/a	FR1	2	R1067P
1254.001	0.775	976950	REC_WORD	0.775	n/a	WAND	-999	11	[0, 0, 0]	n/a	FR1	2	R1067P
1254.776	5.491	977337	REC_WORD	5.491	n/a	STAR	-999	11	[0, 0, 0]	n/a	FR1	2	R1067P
1260.267	21.186	980083	REC_WORD_VV	21.186	n/a	<>	-999	11	[0, 0, 0]	n/a	FR1	2	R1067P
1281.453	1.126	990675	REC_END	n/a	n/a	n/a	-999	11	[0, 0, 0]	n/a	FR1	2	R1067P
1282.579	0.0	991238	TRIAL	n/a	n/a	n/a	-999	12	[0, 0, 0]	n/a	FR1	2	R1067P
1282.579	10.428	991238	COUNTDOWN_START	n/a	n/a	n/a	-999	12	[0, 0, 0]	n/a	FR1	2	R1067P
1293.007	0.007	996452	COUNTDOWN_END	n/a	n/a	n/a	-999	12	[0, 0, 0]	n/a	FR1	2	R1067P
1293.014	2.45	996456	ORIENT	n/a	n/a	n/a	-999	12	[0, 0, 0]	n/a	FR1	2	R1067P
1295.464	2.534	997680	WORD	n/a	wordpools/wordpool_EN.txt	COUCH	1	12	[0, 0, 0]	n/a	FR1	2	R1067P
1297.998	2.517	998947	WORD	n/a	wordpools/wordpool_EN.txt	HORN	2	12	[0, 0, 0]	n/a	FR1	2	R1067P
1300.515	2.618	1000206	WORD	n/a	wordpools/wordpool_EN.txt	JUDGE	3	12	[0, 0, 0]	n/a	FR1	2	R1067P
1303.133	2.433	1001515	WORD	n/a	wordpools/wordpool_EN.txt	OAK	4	12	[0, 0, 0]	n/a	FR1	2	R1067P
1305.566	2.601	1002731	WORD	n/a	wordpools/wordpool_EN.txt	MUD	5	12	[0, 0, 0]	n/a	FR1	2	R1067P
1308.167	2.633	1004032	WORD	n/a	wordpools/wordpool_EN.txt	STRAW	6	12	[0, 0, 0]	n/a	FR1	2	R1067P
1310.8	2.401	1005348	WORD	n/a	wordpools/wordpool_EN.txt	APE	7	12	[0, 0, 0]	n/a	FR1	2	R1067P
1313.201	2.499	1006548	WORD	n/a	wordpools/wordpool_EN.txt	ARM	8	12	[0, 0, 0]	n/a	FR1	2	R1067P
1315.7	2.585	1007798	WORD	n/a	wordpools/wordpool_EN.txt	MOUTH	9	12	[0, 0, 0]	n/a	FR1	2	R1067P
1318.285	2.433	1009090	WORD	n/a	wordpools/wordpool_EN.txt	JAIL	10	12	[0, 0, 0]	n/a	FR1	2	R1067P
1320.718	2.485	1010307	WORD	n/a	wordpools/wordpool_EN.txt	SNAKE	11	12	[0, 0, 0]	n/a	FR1	2	R1067P
1323.203	1.616	1011549	WORD	n/a	wordpools/wordpool_EN.txt	BATH	12	12	[0, 0, 0]	n/a	FR1	2	R1067P
1324.819	0.001	1012357	DISTRACT_START	n/a	n/a	n/a	-999	12	[0, 0, 0]	n/a	FR1	2	R1067P
1324.82	0.016	1012358	START	n/a	n/a	n/a	-999	12	[-999, -999, -999]	n/a	FR1	2	R1067P
1324.836	5.834	1012366	PROB	5.834	n/a	n/a	-999	12	[2, 6, 4]	12	FR1	2	R1067P
1330.67	5.319	1015283	PROB	5.319	n/a	n/a	-999	12	[6, 3, 8]	17	FR1	2	R1067P
1335.989	5.833	1017942	PROB	5.833	n/a	n/a	-999	12	[6, 8, 8]	24	FR1	2	R1067P
1341.822	5.067	1020858	PROB	5.067	n/a	n/a	-999	12	[9, 8, 3]	20	FR1	2	R1067P
1346.889	0.017	1023392	STOP	n/a	n/a	n/a	-999	12	[-999, -999, -999]	n/a	FR1	2	R1067P
1346.906	1.135	1023400	DISTRACT_END	n/a	n/a	n/a	-999	12	[0, 0, 0]	n/a	FR1	2	R1067P
1348.041	0.939	1023968	REC_START	n/a	n/a	n/a	-999	12	[0, 0, 0]	n/a	FR1	2	R1067P
1348.98	1.081	1024437	REC_WORD	1.081	n/a	STRAW	-999	12	[0, 0, 0]	n/a	FR1	2	R1067P
1350.061	1.719	1024978	REC_WORD	1.719	n/a	APE	-999	12	[0, 0, 0]	n/a	FR1	2	R1067P
1351.78	19.793	1025837	REC_WORD	19.793	n/a	ARM	-999	12	[0, 0, 0]	n/a	FR1	2	R1067P
1371.573	6.485	1035733	REC_WORD	6.485	n/a	HOUSE	-999	12	[0, 0, 0]	n/a	FR1	2	R1067P
1378.058	1.972	1038975	REC_END	n/a	n/a	n/a	-999	12	[0, 0, 0]	n/a	FR1	2	R1067P
1380.03	0.0	1039961	TRIAL	n/a	n/a	n/a	-999	13	[0, 0, 0]	n/a	FR1	2	R1067P
1380.03	10.428	1039961	COUNTDOWN_START	n/a	n/a	n/a	-999	13	[0, 0, 0]	n/a	FR1	2	R1067P
1390.458	0.007	1045175	COUNTDOWN_END	n/a	n/a	n/a	-999	13	[0, 0, 0]	n/a	FR1	2	R1067P
1390.465	2.433	1045179	ORIENT	n/a	n/a	n/a	-999	13	[0, 0, 0]	n/a	FR1	2	R1067P
1392.898	2.435	1046395	WORD	n/a	wordpools/wordpool_EN.txt	CORD	1	13	[0, 0, 0]	n/a	FR1	2	R1067P
1395.333	2.383	1047612	WORD	n/a	wordpools/wordpool_EN.txt	SHEEP	2	13	[0, 0, 0]	n/a	FR1	2	R1067P
1397.716	2.501	1048804	WORD	n/a	wordpools/wordpool_EN.txt	FILM	3	13	[0, 0, 0]	n/a	FR1	2	R1067P
1400.217	2.45	1050054	WORD	n/a	wordpools/wordpool_EN.txt	TOOTH	4	13	[0, 0, 0]	n/a	FR1	2	R1067P
1402.667	2.585	1051279	WORD	n/a	wordpools/wordpool_EN.txt	FORT	5	13	[0, 0, 0]	n/a	FR1	2	R1067P
1405.252	2.582	1052572	WORD	n/a	wordpools/wordpool_EN.txt	CASH	6	13	[0, 0, 0]	n/a	FR1	2	R1067P
1407.834	2.502	1053863	WORD	n/a	wordpools/wordpool_EN.txt	BEAN	7	13	[0, 0, 0]	n/a	FR1	2	R1067P
1410.336	2.449	1055114	WORD	n/a	wordpools/wordpool_EN.txt	SHARK	8	13	[0, 0, 0]	n/a	FR1	2	R1067P
1412.785	2.452	1056338	WORD	n/a	wordpools/wordpool_EN.txt	TOAD	9	13	[0, 0, 0]	n/a	FR1	2	R1067P
1415.237	2.416	1057564	WORD	n/a	wordpools/wordpool_EN.txt	BANK	10	13	[0, 0, 0]	n/a	FR1	2	R1067P
1417.653	2.401	1058772	WORD	n/a	wordpools/wordpool_EN.txt	BOOK	11	13	[0, 0, 0]	n/a	FR1	2	R1067P
1420.054	1.616	1059972	WORD	n/a	wordpools/wordpool_EN.txt	TEETH	12	13	[0, 0, 0]	n/a	FR1	2	R1067P
1421.67	0.001	1060780	DISTRACT_START	n/a	n/a	n/a	-999	13	[0, 0, 0]	n/a	FR1	2	R1067P
1421.671	0.016	1060781	START	n/a	n/a	n/a	-999	13	[-999, -999, -999]	n/a	FR1	2	R1067P
1421.687	6.469	1060789	PROB	6.469	n/a	n/a	-999	13	[7, 9, 9]	25	FR1	2	R1067P
1428.156	3.616	1064023	PROB	3.616	n/a	n/a	-999	13	[3, 2, 5]	10	FR1	2	R1067P
1431.772	3.452	1065831	PROB	3.452	n/a	n/a	-999	13	[8, 2, 4]	14	FR1	2	R1067P
1435.224	3.8	1067557	PROB	3.8	n/a	n/a	-999	13	[6, 8, 2]	16	FR1	2	R1067P
1439.024	4.042	1069457	PROB	4.042	n/a	n/a	-999	13	[5, 7, 6]	18	FR1	2	R1067P
1443.066	0.009	1071478	STOP	n/a	n/a	n/a	-999	13	[-999, -999, -999]	n/a	FR1	2	R1067P
1443.075	1.218	1071482	DISTRACT_END	n/a	n/a	n/a	-999	13	[0, 0, 0]	n/a	FR1	2	R1067P
1444.293	0.897	1072091	REC_START	n/a	n/a	n/a	-999	13	[0, 0, 0]	n/a	FR1	2	R1067P
1445.19	1.932	1072540	REC_WORD	1.932	n/a	CORD	-999	13	[0, 0, 0]	n/a	FR1	2	R1067P
1447.122	2.37	1073506	REC_WORD	2.37	n/a	TOOTH	-999	13	[0, 0, 0]	n/a	FR1	2	R1067P
1449.492	1.953	1074691	REC_WORD	1.953	n/a	FILM	-999	13	[0, 0, 0]	n/a	FR1	2	R1067P
1451.445	1.435	1075667	REC_WORD	1.435	n/a	BANK	-999	13	[0, 0, 0]	n/a	FR1	2	R1067P
1452.88	0.245	1076384	REC_WORD_VV	0.245	n/a	<>	-999	13	[0, 0, 0]	n/a	FR1	2	R1067P
1453.125	1.995	1076507	REC_WORD	1.995	n/a	BOOK	-999	13	[0, 0, 0]	n/a	FR1	2	R1067P
1455.12	1.0	1077504	REC_WORD_VV	1.0	n/a	<>	-999	13	[0, 0, 0]	n/a	FR1	2	R1067P
1456.12	1.0	1078004	REC_WORD_VV	1.0	n/a	<>	-999	13	[0, 0, 0]	n/a	FR1	2	R1067P
1457.12	17.185	1078504	REC_WORD_VV	17.185	n/a	<>	-999	13	[0, 0, 0]	n/a	FR1	2	R1067P
1474.305	1.96	1087096	REC_END	n/a	n/a	n/a	-999	13	[0, 0, 0]	n/a	FR1	2	R1067P
1476.265	0.0	1088076	TRIAL	n/a	n/a	n/a	-999	14	[0, 0, 0]	n/a	FR1	2	R1067P
1476.265	10.428	1088076	COUNTDOWN_START	n/a	n/a	n/a	-999	14	[0, 0, 0]	n/a	FR1	2	R1067P
1486.693	0.006	1093290	COUNTDOWN_END	n/a	n/a	n/a	-999	14	[0, 0, 0]	n/a	FR1	2	R1067P
1486.699	2.452	1093293	ORIENT	n/a	n/a	n/a	-999	14	[0, 0, 0]	n/a	FR1	2	R1067P
1489.151	2.383	1094519	WORD	n/a	wordpools/wordpool_EN.txt	SINK	1	14	[0, 0, 0]	n/a	FR1	2	R1067P
1491.534	2.4	1095711	WORD	n/a	wordpools/wordpool_EN.txt	RAIN	2	14	[0, 0, 0]	n/a	FR1	2	R1067P
1493.934	2.368	1096910	WORD	n/a	wordpools/wordpool_EN.txt	PURSE	3	14	[0, 0, 0]	n/a	FR1	2	R1067P
1496.302	2.433	1098094	WORD	n/a	wordpools/wordpool_EN.txt	BAG	4	14	[0, 0, 0]	n/a	FR1	2	R1067P
1498.735	2.434	1099311	WORD	n/a	wordpools/wordpool_EN.txt	NOSE	5	14	[0, 0, 0]	n/a	FR1	2	R1067P
1501.169	2.6	1100528	WORD	n/a	wordpools/wordpool_EN.txt	FENCE	6	14	[0, 0, 0]	n/a	FR1	2	R1067P
1503.769	2.585	1101828	WORD	n/a	wordpools/wordpool_EN.txt	PIPE	7	14	[0, 0, 0]	n/a	FR1	2	R1067P
1506.354	2.449	1103120	WORD	n/a	wordpools/wordpool_EN.txt	HAND	8	14	[0, 0, 0]	n/a	FR1	2	R1067P
1508.803	2.385	1104345	WORD	n/a	wordpools/wordpool_EN.txt	SUIT	9	14	[0, 0, 0]	n/a	FR1	2	R1067P
1511.188	2.55	1105537	WORD	n/a	wordpools/wordpool_EN.txt	BOY	10	14	[0, 0, 0]	n/a	FR1	2	R1067P
1513.738	2.468	1106812	WORD	n/a	wordpools/wordpool_EN.txt	FLUTE	11	14	[0, 0, 0]	n/a	FR1	2	R1067P
1516.206	1.616	1108046	WORD	n/a	wordpools/wordpool_EN.txt	SHIRT	12	14	[0, 0, 0]	n/a	FR1	2	R1067P
1517.822	0.001	1108854	DISTRACT_START	n/a	n/a	n/a	-999	14	[0, 0, 0]	n/a	FR1	2	R1067P
1517.823	0.015	1108854	START	n/a	n/a	n/a	-999	14	[-999, -999, -999]	n/a	FR1	2	R1067P
1517.838	6.619	1108862	PROB	6.619	n/a	n/a	-999	14	[9, 5, 9]	23	FR1	2	R1067P
1524.457	5.2	1112171	PROB	5.2	n/a	n/a	-999	14	[9, 8, 5]	22	FR1	2	R1067P
1529.657	4.785	1114771	PROB	4.785	n/a	n/a	-999	14	[5, 3, 8]	16	FR1	2	R1067P
1534.442	3.511	1117163	PROB	3.511	n/a	n/a	-999	14	[9, 5, 9]	23	FR1	2	R1067P
1537.953	0.006	1118919	STOP	n/a	n/a	n/a	-999	14	[-999, -999, -999]	n/a	FR1	2	R1067P
1537.959	1.152	1118922	DISTRACT_END	n/a	n/a	n/a	-999	14	[0, 0, 0]	n/a	FR1	2	R1067P
1539.111	1.957	1119498	REC_START	n/a	n/a	n/a	-999	14	[0, 0, 0]	n/a	FR1	2	R1067P
1541.068	2.544	1120476	REC_WORD	2.544	n/a	SINK	-999	14	[0, 0, 0]	n/a	FR1	2	R1067P
1543.612	3.392	1121748	REC_WORD	3.392	n/a	PURSE	-999	14	[0, 0, 0]	n/a	FR1	2	R1067P
1547.004	0.783	1123444	REC_WORD_VV	0.783	n/a	<>	-999	14	[0, 0, 0]	n/a	FR1	2	R1067P
1547.787	0.559	1123836	REC_WORD	0.559	n/a	POOP	-999	14	[0, 0, 0]	n/a	FR1	2	R1067P
1548.346	1.068	1124115	REC_WORD_VV	1.068	n/a	<>	-999	14	[0, 0, 0]	n/a	FR1	2	R1067P
1549.414	4.374	1124649	REC_WORD	4.374	n/a	FLUTE	-999	14	[0, 0, 0]	n/a	FR1	2	R1067P
1553.788	7.03	1126836	REC_WORD	7.03	n/a	PIPE	-999	14	[0, 0, 0]	n/a	FR1	2	R1067P
1560.818	8.305	1130351	REC_WORD_VV	8.305	n/a	<>	-999	14	[0, 0, 0]	n/a	FR1	2	R1067P
1569.123	2.026	1134503	REC_END	n/a	n/a	n/a	-999	14	[0, 0, 0]	n/a	FR1	2	R1067P
1571.149	0.0	1135516	COUNTDOWN_START	n/a	n/a	n/a	-999	15	[0, 0, 0]	n/a	FR1	2	R1067P
1571.149	10.428	1135516	TRIAL	n/a	n/a	n/a	-999	15	[0, 0, 0]	n/a	FR1	2	R1067P
1581.577	0.008	1140730	COUNTDOWN_END	n/a	n/a	n/a	-999	15	[0, 0, 0]	n/a	FR1	2	R1067P
1581.585	2.483	1140734	ORIENT	n/a	n/a	n/a	-999	15	[0, 0, 0]	n/a	FR1	2	R1067P
1584.068	2.568	1141975	WORD	n/a	wordpools/wordpool_EN.txt	SALT	1	15	[0, 0, 0]	n/a	FR1	2	R1067P
1586.636	2.5	1143259	WORD	n/a	wordpools/wordpool_EN.txt	TRASH	2	15	[0, 0, 0]	n/a	FR1	2	R1067P
1589.136	2.533	1144509	WORD	n/a	wordpools/wordpool_EN.txt	MAP	3	15	[0, 0, 0]	n/a	FR1	2	R1067P
1591.669	2.568	1145776	WORD	n/a	wordpools/wordpool_EN.txt	ICE	4	15	[0, 0, 0]	n/a	FR1	2	R1067P
1594.237	2.583	1147059	WORD	n/a	wordpools/wordpool_EN.txt	SNOW	5	15	[0, 0, 0]	n/a	FR1	2	R1067P
1596.82	2.518	1148351	WORD	n/a	wordpools/wordpool_EN.txt	STEAM	6	15	[0, 0, 0]	n/a	FR1	2	R1067P
1599.338	2.566	1149610	WORD	n/a	wordpools/wordpool_EN.txt	BOMB	7	15	[0, 0, 0]	n/a	FR1	2	R1067P
1601.904	2.402	1150893	WORD	n/a	wordpools/wordpool_EN.txt	ROCK	8	15	[0, 0, 0]	n/a	FR1	2	R1067P
1604.306	2.482	1152094	WORD	n/a	wordpools/wordpool_EN.txt	TANK	9	15	[0, 0, 0]	n/a	FR1	2	R1067P
1606.788	2.368	1153335	WORD	n/a	wordpools/wordpool_EN.txt	LAKE	10	15	[0, 0, 0]	n/a	FR1	2	R1067P
1609.156	2.617	1154519	WORD	n/a	wordpools/wordpool_EN.txt	MOOSE	11	15	[0, 0, 0]	n/a	FR1	2	R1067P
1611.773	1.618	1155827	WORD	n/a	wordpools/wordpool_EN.txt	STONE	12	15	[0, 0, 0]	n/a	FR1	2	R1067P
1613.391	0.0	1156636	DISTRACT_START	n/a	n/a	n/a	-999	15	[0, 0, 0]	n/a	FR1	2	R1067P
1613.391	0.016	1156636	START	n/a	n/a	n/a	-999	15	[-999, -999, -999]	n/a	FR1	2	R1067P
1613.407	5.684	1156644	PROB	5.684	n/a	n/a	-999	15	[5, 8, 8]	21	FR1	2	R1067P
1619.091	4.717	1159486	PROB	4.717	n/a	n/a	-999	15	[9, 6, 5]	20	FR1	2	R1067P
1623.808	3.101	1161844	PROB	3.101	n/a	n/a	-999	15	[8, 1, 2]	11	FR1	2	R1067P
1626.909	4.368	1163395	PROB	4.368	n/a	n/a	-999	15	[4, 7, 9]	21	FR1	2	R1067P
1631.277	3.933	1165579	PROB	3.933	n/a	n/a	-999	15	[9, 1, 3]	13	FR1	2	R1067P
1635.21	0.018	1167545	STOP	n/a	n/a	n/a	-999	15	[-999, -999, -999]	n/a	FR1	2	R1067P
1635.228	1.234	1167554	DISTRACT_END	n/a	n/a	n/a	-999	15	[0, 0, 0]	n/a	FR1	2	R1067P
1636.462	0.718	1168171	REC_START	n/a	n/a	n/a	-999	15	[0, 0, 0]	n/a	FR1	2	R1067P
1637.18	0.491	1168530	REC_WORD_VV	0.491	n/a	<>	-999	15	[0, 0, 0]	n/a	FR1	2	R1067P
1637.671	1.743	1168775	REC_WORD	1.743	n/a	SALT	-999	15	[0, 0, 0]	n/a	FR1	2	R1067P
1639.414	1.188	1169647	REC_WORD	1.188	n/a	TRASH	-999	15	[0, 0, 0]	n/a	FR1	2	R1067P
1640.602	1.194	1170241	REC_WORD	1.194	n/a	MAP	-999	15	[0, 0, 0]	n/a	FR1	2	R1067P
1641.796	0.994	1170838	REC_WORD	0.994	n/a	ICE	-999	15	[0, 0, 0]	n/a	FR1	2	R1067P
1642.79	23.689	1171335	REC_WORD	23.689	n/a	ROCK	-999	15	[0, 0, 0]	n/a	FR1	2	R1067P
1666.479	0.738	1183179	REC_END	n/a	n/a	n/a	-999	15	[0, 0, 0]	n/a	FR1	2	R1067P
1667.217	0.001	1183548	COUNTDOWN_START	n/a	n/a	n/a	-999	16	[0, 0, 0]	n/a	FR1	2	R1067P
1667.218	10.427	1183548	TRIAL	n/a	n/a	n/a	-999	16	[0, 0, 0]	n/a	FR1	2	R1067P
1677.645	0.007	1188761	COUNTDOWN_END	n/a	n/a	n/a	-999	16	[0, 0, 0]	n/a	FR1	2	R1067P
1677.652	2.518	1188765	ORIENT	n/a	n/a	n/a	-999	16	[0, 0, 0]	n/a	FR1	2	R1067P
1680.17	2.583	1190024	WORD	n/a	wordpools/wordpool_EN.txt	TAIL	1	16	[0, 0, 0]	n/a	FR1	2	R1067P
1682.753	2.468	1191315	WORD	n/a	wordpools/wordpool_EN.txt	WOLF	2	16	[0, 0, 0]	n/a	FR1	2	R1067P
1685.221	2.549	1192549	WORD	n/a	wordpools/wordpool_EN.txt	NEST	3	16	[0, 0, 0]	n/a	FR1	2	R1067P
1687.77	2.452	1193824	WORD	n/a	wordpools/wordpool_EN.txt	KITE	4	16	[0, 0, 0]	n/a	FR1	2	R1067P
1690.222	2.532	1195050	WORD	n/a	wordpools/wordpool_EN.txt	DUCK	5	16	[0, 0, 0]	n/a	FR1	2	R1067P
1692.754	2.452	1196315	WORD	n/a	wordpools/wordpool_EN.txt	RAT	6	16	[0, 0, 0]	n/a	FR1	2	R1067P
1695.206	2.616	1197541	WORD	n/a	wordpools/wordpool_EN.txt	HOLE	7	16	[0, 0, 0]	n/a	FR1	2	R1067P
1697.822	2.618	1198849	WORD	n/a	wordpools/wordpool_EN.txt	PIG	8	16	[0, 0, 0]	n/a	FR1	2	R1067P
1700.44	2.516	1200158	WORD	n/a	wordpools/wordpool_EN.txt	PRINCE	9	16	[0, 0, 0]	n/a	FR1	2	R1067P
1702.956	2.518	1201416	WORD	n/a	wordpools/wordpool_EN.txt	RAKE	10	16	[0, 0, 0]	n/a	FR1	2	R1067P
1705.474	2.567	1202675	WORD	n/a	wordpools/wordpool_EN.txt	BARN	11	16	[0, 0, 0]	n/a	FR1	2	R1067P
1708.041	1.617	1203959	WORD	n/a	wordpools/wordpool_EN.txt	PEN	12	16	[0, 0, 0]	n/a	FR1	2	R1067P
1709.658	0.001	1204767	DISTRACT_START	n/a	n/a	n/a	-999	16	[0, 0, 0]	n/a	FR1	2	R1067P
1709.659	0.015	1204768	START	n/a	n/a	n/a	-999	16	[-999, -999, -999]	n/a	FR1	2	R1067P
1709.674	4.886	1204775	PROB	4.886	n/a	n/a	-999	16	[3, 8, 1]	12	FR1	2	R1067P
1714.56	6.751	1207218	PROB	6.751	n/a	n/a	-999	16	[7, 5, 9]	21	FR1	2	R1067P
1721.311	5.317	1210593	PROB	5.317	n/a	n/a	-999	16	[7, 6, 5]	18	FR1	2	R1067P
1726.628	3.581	1213252	PROB	3.581	n/a	n/a	-999	16	[6, 3, 3]	12	FR1	2	R1067P
1730.209	0.003	1215042	STOP	n/a	n/a	n/a	-999	16	[-999, -999, -999]	n/a	FR1	2	R1067P
1730.212	1.051	1215044	DISTRACT_END	n/a	n/a	n/a	-999	16	[0, 0, 0]	n/a	FR1	2	R1067P
1731.263	0.418	1215569	REC_START	n/a	n/a	n/a	-999	16	[0, 0, 0]	n/a	FR1	2	R1067P
1731.681	1.964	1215778	REC_WORD_VV	1.964	n/a	<>	-999	16	[0, 0, 0]	n/a	FR1	2	R1067P
1733.645	1.419	1216760	REC_WORD	1.419	n/a	TAIL	-999	16	[0, 0, 0]	n/a	FR1	2	R1067P
1735.064	1.683	1217469	REC_WORD	1.683	n/a	WOLF	-999	16	[0, 0, 0]	n/a	FR1	2	R1067P
1736.747	4.306	1218311	REC_WORD	4.306	n/a	NEST	-999	16	[0, 0, 0]	n/a	FR1	2	R1067P
1741.053	5.106	1220464	REC_WORD	5.106	n/a	RACCOON	-999	16	[0, 0, 0]	n/a	FR1	2	R1067P
1746.159	13.233	1223017	REC_WORD	13.233	n/a	ROCK	-999	16	[0, 0, 0]	n/a	FR1	2	R1067P
1759.392	1.884	1229633	REC_WORD_VV	1.884	n/a	<>	-999	16	[0, 0, 0]	n/a	FR1	2	R1067P
1761.276	2.209	1230575	REC_END	n/a	n/a	n/a	-999	16	[0, 0, 0]	n/a	FR1	2	R1067P
1763.485	0.0	1231679	COUNTDOWN_START	n/a	n/a	n/a	-999	17	[0, 0, 0]	n/a	FR1	2	R1067P
1763.485	10.428	1231679	TRIAL	n/a	n/a	n/a	-999	17	[0, 0, 0]	n/a	FR1	2	R1067P
1773.913	0.007	1236893	COUNTDOWN_END	n/a	n/a	n/a	-999	17	[0, 0, 0]	n/a	FR1	2	R1067P
1773.92	2.418	1236896	ORIENT	n/a	n/a	n/a	-999	17	[0, 0, 0]	n/a	FR1	2	R1067P
1776.338	2.599	1238105	WORD	n/a	wordpools/wordpool_EN.txt	MOLE	1	17	[0, 0, 0]	n/a	FR1	2	R1067P
1778.937	2.602	1239405	WORD	n/a	wordpools/wordpool_EN.txt	SNAIL	2	17	[0, 0, 0]	n/a	FR1	2	R1067P
1781.539	2.55	1240706	WORD	n/a	wordpools/wordpool_EN.txt	CAVE	3	17	[0, 0, 0]	n/a	FR1	2	R1067P
1784.089	2.501	1241981	WORD	n/a	wordpools/wordpool_EN.txt	BEAR	4	17	[0, 0, 0]	n/a	FR1	2	R1067P
1786.59	2.417	1243231	WORD	n/a	wordpools/wordpool_EN.txt	JEEP	5	17	[0, 0, 0]	n/a	FR1	2	R1067P
1789.007	2.55	1244440	WORD	n/a	wordpools/wordpool_EN.txt	SEAL	6	17	[0, 0, 0]	n/a	FR1	2	R1067P
1791.557	2.601	1245715	WORD	n/a	wordpools/wordpool_EN.txt	WEED	7	17	[0, 0, 0]	n/a	FR1	2	R1067P
1794.158	2.616	1247015	WORD	n/a	wordpools/wordpool_EN.txt	LOCK	8	17	[0, 0, 0]	n/a	FR1	2	R1067P
1796.774	2.618	1248323	WORD	n/a	wordpools/wordpool_EN.txt	WHEEL	9	17	[0, 0, 0]	n/a	FR1	2	R1067P
1799.392	2.5	1249632	WORD	n/a	wordpools/wordpool_EN.txt	FLEA	10	17	[0, 0, 0]	n/a	FR1	2	R1067P
1801.892	2.484	1250882	WORD	n/a	wordpools/wordpool_EN.txt	GATE	11	17	[0, 0, 0]	n/a	FR1	2	R1067P
1804.376	1.617	1252124	WORD	n/a	wordpools/wordpool_EN.txt	KEY	12	17	[0, 0, 0]	n/a	FR1	2	R1067P
1805.993	0.001	1252932	DISTRACT_START	n/a	n/a	n/a	-999	17	[0, 0, 0]	n/a	FR1	2	R1067P
1805.994	0.016	1252933	START	n/a	n/a	n/a	-999	17	[-999, -999, -999]	n/a	FR1	2	R1067P
1806.01	4.933	1252941	PROB	4.933	n/a	n/a	-999	17	[3, 8, 9]	21	FR1	2	R1067P
1810.943	4.519	1255407	PROB	4.519	n/a	n/a	-999	17	[7, 7, 7]	21	FR1	2	R1067P
1815.462	5.584	1257666	PROB	5.584	n/a	n/a	-999	17	[6, 7, 4]	17	FR1	2	R1067P
1821.046	4.201	1260458	PROB	4.201	n/a	n/a	-999	17	[9, 1, 6]	16	FR1	2	R1067P
1825.247	4.465	1262559	PROB	4.465	n/a	n/a	-999	17	[4, 2, 9]	15	FR1	2	R1067P
1829.712	0.018	1264791	STOP	n/a	n/a	n/a	-999	17	[-999, -999, -999]	n/a	FR1	2	R1067P
1829.73	1.184	1264800	DISTRACT_END	n/a	n/a	n/a	-999	17	[0, 0, 0]	n/a	FR1	2	R1067P
1830.914	0.788	1265392	REC_START	n/a	n/a	n/a	-999	17	[0, 0, 0]	n/a	FR1	2	R1067P
1831.702	1.047	1265786	REC_WORD_VV	1.047	n/a	<>	-999	17	[0, 0, 0]	n/a	FR1	2	R1067P
1832.749	2.06	1266309	REC_WORD	2.06	n/a	MOLE	-999	17	[0, 0, 0]	n/a	FR1	2	R1067P
1834.809	1.0	1267339	REC_WORD	1.0	n/a	CAVE	-999	17	[0, 0, 0]	n/a	FR1	2	R1067P
1835.809	0.535	1267839	REC_WORD_VV	0.535	n/a	<>	-999	17	[0, 0, 0]	n/a	FR1	2	R1067P
1836.344	2.915	1268107	REC_WORD	2.915	n/a	SNAIL	-999	17	[0, 0, 0]	n/a	FR1	2	R1067P
1839.259	5.079	1269564	REC_WORD	5.079	n/a	BEAR	-999	17	[0, 0, 0]	n/a	FR1	2	R1067P
1844.338	4.32	1272104	REC_WORD_VV	4.32	n/a	<>	-999	17	[0, 0, 0]	n/a	FR1	2	R1067P
1848.658	12.273	1274264	REC_WORD_VV	12.273	n/a	<>	-999	17	[0, 0, 0]	n/a	FR1	2	R1067P
1860.931	2.29	1280400	REC_END	n/a	n/a	n/a	-999	17	[0, 0, 0]	n/a	FR1	2	R1067P
1863.221	0.0	1281545	TRIAL	n/a	n/a	n/a	-999	18	[0, 0, 0]	n/a	FR1	2	R1067P
1863.221	10.428	1281545	COUNTDOWN_START	n/a	n/a	n/a	-999	18	[0, 0, 0]	n/a	FR1	2	R1067P
1873.649	0.006	1286758	COUNTDOWN_END	n/a	n/a	n/a	-999	18	[0, 0, 0]	n/a	FR1	2	R1067P
1873.655	2.568	1286761	ORIENT	n/a	n/a	n/a	-999	18	[0, 0, 0]	n/a	FR1	2	R1067P
1876.223	2.5	1288045	WORD	n/a	wordpools/wordpool_EN.txt	PEAR	1	18	[0, 0, 0]	n/a	FR1	2	R1067P
1878.723	2.535	1289295	WORD	n/a	wordpools/wordpool_EN.txt	POND	2	18	[0, 0, 0]	n/a	FR1	2	R1067P
1881.258	2.449	1290563	WORD	n/a	wordpools/wordpool_EN.txt	GLASS	3	18	[0, 0, 0]	n/a	FR1	2	R1067P
1883.707	2.401	1291787	WORD	n/a	wordpools/wordpool_EN.txt	SOAP	4	18	[0, 0, 0]	n/a	FR1	2	R1067P
1886.108	2.534	1292988	WORD	n/a	wordpools/wordpool_EN.txt	SPOON	5	18	[0, 0, 0]	n/a	FR1	2	R1067P
1888.642	2.584	1294255	WORD	n/a	wordpools/wordpool_EN.txt	SPONGE	6	18	[0, 0, 0]	n/a	FR1	2	R1067P
1891.226	2.516	1295547	WORD	n/a	wordpools/wordpool_EN.txt	GRAPE	7	18	[0, 0, 0]	n/a	FR1	2	R1067P
1893.742	2.568	1296804	WORD	n/a	wordpools/wordpool_EN.txt	SHRIMP	8	18	[0, 0, 0]	n/a	FR1	2	R1067P
1896.31	2.4	1298088	WORD	n/a	wordpools/wordpool_EN.txt	WORM	9	18	[0, 0, 0]	n/a	FR1	2	R1067P
1898.71	2.568	1299288	WORD	n/a	wordpools/wordpool_EN.txt	JAR	10	18	[0, 0, 0]	n/a	FR1	2	R1067P
1901.278	2.516	1300572	WORD	n/a	wordpools/wordpool_EN.txt	WORLD	11	18	[0, 0, 0]	n/a	FR1	2	R1067P
1903.794	1.601	1301830	WORD	n/a	wordpools/wordpool_EN.txt	PEACH	12	18	[0, 0, 0]	n/a	FR1	2	R1067P
1905.395	0.001	1302631	DISTRACT_START	n/a	n/a	n/a	-999	18	[0, 0, 0]	n/a	FR1	2	R1067P
1905.396	0.016	1302631	START	n/a	n/a	n/a	-999	18	[-999, -999, -999]	n/a	FR1	2	R1067P
1905.412	6.768	1302639	PROB	6.768	n/a	n/a	-999	18	[6, 8, 8]	22	FR1	2	R1067P
1912.18	4.934	1306023	PROB	4.934	n/a	n/a	-999	18	[6, 6, 7]	19	FR1	2	R1067P
1917.114	4.468	1308490	PROB	4.468	n/a	n/a	-999	18	[4, 7, 6]	17	FR1	2	R1067P
1921.582	4.186	1310724	PROB	4.186	n/a	n/a	-999	18	[3, 7, 7]	17	FR1	2	R1067P
1925.768	0.013	1312817	STOP	n/a	n/a	n/a	-999	18	[-999, -999, -999]	n/a	FR1	2	R1067P
1925.781	1.184	1312823	DISTRACT_END	n/a	n/a	n/a	-999	18	[0, 0, 0]	n/a	FR1	2	R1067P
1926.965	30.0	1313415	REC_START	n/a	n/a	n/a	-999	18	[0, 0, 0]	n/a	FR1	2	R1067P
1956.965	0.014	1328414	REC_WORD_VV	0.014	n/a	<>	-999	18	[0, 0, 0]	n/a	FR1	2	R1067P
1956.979	2.326	1328421	REC_END	n/a	n/a	n/a	-999	18	[0, 0, 0]	n/a	FR1	2	R1067P
1959.305	0.001	1329584	COUNTDOWN_START	n/a	n/a	n/a	-999	19	[0, 0, 0]	n/a	FR1	2	R1067P
1959.306	10.427	1329585	TRIAL	n/a	n/a	n/a	-999	19	[0, 0, 0]	n/a	FR1	2	R1067P
1969.733	0.007	1334798	COUNTDOWN_END	n/a	n/a	n/a	-999	19	[0, 0, 0]	n/a	FR1	2	R1067P
1969.74	2.434	1334802	ORIENT	n/a	n/a	n/a	-999	19	[0, 0, 0]	n/a	FR1	2	R1067P
1972.174	2.616	1336019	WORD	n/a	wordpools/wordpool_EN.txt	BRICK	1	19	[0, 0, 0]	n/a	FR1	2	R1067P
1974.79	2.569	1337326	WORD	n/a	wordpools/wordpool_EN.txt	ROOM	2	19	[0, 0, 0]	n/a	FR1	2	R1067P
1977.359	2.416	1338611	WORD	n/a	wordpools/wordpool_EN.txt	TIE	3	19	[0, 0, 0]	n/a	FR1	2	R1067P
1979.775	2.468	1339819	WORD	n/a	wordpools/wordpool_EN.txt	SLIME	4	19	[0, 0, 0]	n/a	FR1	2	R1067P
1982.243	2.6	1341053	WORD	n/a	wordpools/wordpool_EN.txt	DESK	5	19	[0, 0, 0]	n/a	FR1	2	R1067P
1984.843	2.618	1342353	WORD	n/a	wordpools/wordpool_EN.txt	CHALK	6	19	[0, 0, 0]	n/a	FR1	2	R1067P
1987.461	2.55	1343662	WORD	n/a	wordpools/wordpool_EN.txt	MAZE	7	19	[0, 0, 0]	n/a	FR1	2	R1067P
1990.011	2.501	1344937	WORD	n/a	wordpools/wordpool_EN.txt	SCHOOL	8	19	[0, 0, 0]	n/a	FR1	2	R1067P
1992.512	2.517	1346187	WORD	n/a	wordpools/wordpool_EN.txt	BAND	9	19	[0, 0, 0]	n/a	FR1	2	R1067P
1995.029	2.633	1347445	WORD	n/a	wordpools/wordpool_EN.txt	FLAG	10	19	[0, 0, 0]	n/a	FR1	2	R1067P
1997.662	2.384	1348762	WORD	n/a	wordpools/wordpool_EN.txt	FLOOR	11	19	[0, 0, 0]	n/a	FR1	2	R1067P
2000.046	1.616	1349954	WORD	n/a	wordpools/wordpool_EN.txt	GLOVE	12	19	[0, 0, 0]	n/a	FR1	2	R1067P
2001.662	0.001	1350762	DISTRACT_START	n/a	n/a	n/a	-999	19	[0, 0, 0]	n/a	FR1	2	R1067P
2001.663	0.016	1350762	START	n/a	n/a	n/a	-999	19	[-999, -999, -999]	n/a	FR1	2	R1067P
2001.679	4.719	1350770	PROB	4.719	n/a	n/a	-999	19	[2, 9, 1]	12	FR1	2	R1067P
2006.398	7.601	1353130	PROB	7.601	n/a	n/a	-999	19	[9, 7, 4]	20	FR1	2	R1067P
2013.999	3.783	1356930	PROB	3.783	n/a	n/a	-999	19	[4, 8, 1]	13	FR1	2	R1067P
2017.782	5.715	1358821	PROB	5.715	n/a	n/a	-999	19	[4, 6, 8]	18	FR1	2	R1067P
2023.497	0.004	1361679	STOP	n/a	n/a	n/a	-999	19	[-999, -999, -999]	n/a	FR1	2	R1067P
2023.501	1.101	1361681	DISTRACT_END	n/a	n/a	n/a	-999	19	[0, 0, 0]	n/a	FR1	2	R1067P
2024.602	0.896	1362231	REC_START	n/a	n/a	n/a	-999	19	[0, 0, 0]	n/a	FR1	2	R1067P
2025.498	1.371	1362679	REC_WORD_VV	1.371	n/a	<>	-999	19	[0, 0, 0]	n/a	FR1	2	R1067P
2026.869	1.805	1363365	REC_WORD	1.805	n/a	SCHOOL	-999	19	[0, 0, 0]	n/a	FR1	2	R1067P
2028.674	1.918	1364267	REC_WORD	1.918	n/a	SIXTEEN	-999	19	[0, 0, 0]	n/a	FR1	2	R1067P
2030.592	2.832	1365226	REC_WORD	2.832	n/a	BAND	-999	19	[0, 0, 0]	n/a	FR1	2	R1067P
2033.424	1.0	1366642	REC_WORD_VV	1.0	n/a	<>	-999	19	[0, 0, 0]	n/a	FR1	2	R1067P
2034.424	10.292	1367142	REC_WORD_VV	10.292	n/a	<>	-999	19	[0, 0, 0]	n/a	FR1	2	R1067P
2044.716	9.899	1372288	REC_WORD_VV	9.899	n/a	<>	-999	19	[0, 0, 0]	n/a	FR1	2	R1067P
2054.615	119.18	1377237	REC_END	n/a	n/a	n/a	-999	19	[0, 0, 0]	n/a	FR1	2	R1067P
2173.795	0.0	1436824	TRIAL	n/a	n/a	n/a	-999	20	[0, 0, 0]	n/a	FR1	2	R1067P
2173.795	10.428	1436824	COUNTDOWN_START	n/a	n/a	n/a	-999	20	[0, 0, 0]	n/a	FR1	2	R1067P
2184.223	0.008	1442038	COUNTDOWN_END	n/a	n/a	n/a	-999	20	[0, 0, 0]	n/a	FR1	2	R1067P
2184.231	2.599	1442042	ORIENT	n/a	n/a	n/a	-999	20	[0, 0, 0]	n/a	FR1	2	R1067P
2186.83	2.552	1443341	WORD	n/a	wordpools/wordpool_EN.txt	JET	1	20	[0, 0, 0]	n/a	FR1	2	R1067P
2189.382	2.499	1444617	WORD	n/a	wordpools/wordpool_EN.txt	SAIL	2	20	[0, 0, 0]	n/a	FR1	2	R1067P
2191.881	2.485	1445867	WORD	n/a	wordpools/wordpool_EN.txt	CLOCK	3	20	[0, 0, 0]	n/a	FR1	2	R1067P
2194.366	2.583	1447109	WORD	n/a	wordpools/wordpool_EN.txt	SPARK	4	20	[0, 0, 0]	n/a	FR1	2	R1067P
2196.949	2.518	1448400	WORD	n/a	wordpools/wordpool_EN.txt	EAR	5	20	[0, 0, 0]	n/a	FR1	2	R1067P
2199.467	2.466	1449659	WORD	n/a	wordpools/wordpool_EN.txt	SHIP	6	20	[0, 0, 0]	n/a	FR1	2	R1067P
2201.933	2.385	1450892	WORD	n/a	wordpools/wordpool_EN.txt	BLUSH	7	20	[0, 0, 0]	n/a	FR1	2	R1067P
2204.318	2.599	1452085	WORD	n/a	wordpools/wordpool_EN.txt	PLANE	8	20	[0, 0, 0]	n/a	FR1	2	R1067P
2206.917	2.535	1453384	WORD	n/a	wordpools/wordpool_EN.txt	LAMP	9	20	[0, 0, 0]	n/a	FR1	2	R1067P
2209.452	2.433	1454652	WORD	n/a	wordpools/wordpool_EN.txt	PHONE	10	20	[0, 0, 0]	n/a	FR1	2	R1067P
2211.885	2.451	1455868	WORD	n/a	wordpools/wordpool_EN.txt	CAR	11	20	[0, 0, 0]	n/a	FR1	2	R1067P
2214.336	1.616	1457093	WORD	n/a	wordpools/wordpool_EN.txt	DOG	12	20	[0, 0, 0]	n/a	FR1	2	R1067P
2215.952	0.001	1457901	DISTRACT_START	n/a	n/a	n/a	-999	20	[0, 0, 0]	n/a	FR1	2	R1067P
2215.953	0.016	1457902	START	n/a	n/a	n/a	-999	20	[-999, -999, -999]	n/a	FR1	2	R1067P
2215.969	6.336	1457910	PROB	6.336	n/a	n/a	-999	20	[5, 6, 5]	16	FR1	2	R1067P
2222.305	3.967	1461078	PROB	3.967	n/a	n/a	-999	20	[2, 5, 5]	12	FR1	2	R1067P
2226.272	4.018	1463061	PROB	4.018	n/a	n/a	-999	20	[3, 6, 2]	11	FR1	2	R1067P
2230.29	4.2	1465070	PROB	4.2	n/a	n/a	-999	20	[2, 5, 8]	15	FR1	2	R1067P
2234.49	4.254	1467170	PROB	4.254	n/a	n/a	-999	20	[4, 3, 6]	13	FR1	2	R1067P
2238.744	0.013	1469297	STOP	n/a	n/a	n/a	-999	20	[-999, -999, -999]	n/a	FR1	2	R1067P
2238.757	1.134	1469303	DISTRACT_END	n/a	n/a	n/a	-999	20	[0, 0, 0]	n/a	FR1	2	R1067P
2239.891	0.507	1469870	REC_START	n/a	n/a	n/a	-999	20	[0, 0, 0]	n/a	FR1	2	R1067P
2240.398	0.721	1470124	REC_WORD_VV	0.721	n/a	<>	-999	20	[0, 0, 0]	n/a	FR1	2	R1067P
2241.119	0.996	1470484	REC_WORD	0.996	n/a	CAR	-999	20	[0, 0, 0]	n/a	FR1	2	R1067P
2242.115	1.067	1470982	REC_WORD	1.067	n/a	BLUSH	-999	20	[0, 0, 0]	n/a	FR1	2	R1067P
2243.182	1.01	1471516	REC_WORD	1.01	n/a	DOG	-999	20	[0, 0, 0]	n/a	FR1	2	R1067P
2244.192	19.596	1472021	REC_WORD	19.596	n/a	CAT	-999	20	[0, 0, 0]	n/a	FR1	2	R1067P
2263.788	6.115	1481818	REC_WORD_VV	6.115	n/a	<>	-999	20	[0, 0, 0]	n/a	FR1	2	R1067P
2269.903	1.294	1484876	REC_END	n/a	n/a	n/a	-999	20	[0, 0, 0]	n/a	FR1	2	R1067P
2271.197	0.0	1485523	TRIAL	n/a	n/a	n/a	-999	21	[0, 0, 0]	n/a	FR1	2	R1067P
2271.197	10.428	1485523	COUNTDOWN_START	n/a	n/a	n/a	-999	21	[0, 0, 0]	n/a	FR1	2	R1067P
2281.625	0.007	1490736	COUNTDOWN_END	n/a	n/a	n/a	-999	21	[0, 0, 0]	n/a	FR1	2	R1067P
2281.632	2.434	1490740	ORIENT	n/a	n/a	n/a	-999	21	[0, 0, 0]	n/a	FR1	2	R1067P
2284.066	2.451	1491957	WORD	n/a	wordpools/wordpool_EN.txt	CONE	1	21	[0, 0, 0]	n/a	FR1	2	R1067P
2286.517	2.533	1493182	WORD	n/a	wordpools/wordpool_EN.txt	TRAY	2	21	[0, 0, 0]	n/a	FR1	2	R1067P
2289.05	2.418	1494449	WORD	n/a	wordpools/wordpool_EN.txt	SWAMP	3	21	[0, 0, 0]	n/a	FR1	2	R1067P
2291.468	2.449	1495658	WORD	n/a	wordpools/wordpool_EN.txt	LAND	4	21	[0, 0, 0]	n/a	FR1	2	R1067P
2293.917	2.602	1496882	WORD	n/a	wordpools/wordpool_EN.txt	LEAF	5	21	[0, 0, 0]	n/a	FR1	2	R1067P
2296.519	2.583	1498183	WORD	n/a	wordpools/wordpool_EN.txt	FORK	6	21	[0, 0, 0]	n/a	FR1	2	R1067P
2299.102	2.6	1499474	WORD	n/a	wordpools/wordpool_EN.txt	DRESS	7	21	[0, 0, 0]	n/a	FR1	2	R1067P
2301.702	2.468	1500774	WORD	n/a	wordpools/wordpool_EN.txt	ARK	8	21	[0, 0, 0]	n/a	FR1	2	R1067P
2304.17	2.533	1502008	WORD	n/a	wordpools/wordpool_EN.txt	ROOT	9	21	[0, 0, 0]	n/a	FR1	2	R1067P
2306.703	2.385	1503275	WORD	n/a	wordpools/wordpool_EN.txt	SEED	10	21	[0, 0, 0]	n/a	FR1	2	R1067P
2309.088	2.417	1504467	WORD	n/a	wordpools/wordpool_EN.txt	LAWN	11	21	[0, 0, 0]	n/a	FR1	2	R1067P
2311.505	1.617	1505676	WORD	n/a	wordpools/wordpool_EN.txt	TOAST	12	21	[0, 0, 0]	n/a	FR1	2	R1067P
2313.122	0.001	1506484	DISTRACT_START	n/a	n/a	n/a	-999	21	[0, 0, 0]	n/a	FR1	2	R1067P
2313.123	0.015	1506484	START	n/a	n/a	n/a	-999	21	[-999, -999, -999]	n/a	FR1	2	R1067P
2313.138	6.617	1506492	PROB	6.617	n/a	n/a	-999	21	[5, 6, 9]	20	FR1	2	R1067P
2319.755	3.852	1509800	PROB	3.852	n/a	n/a	-999	21	[6, 2, 6]	14	FR1	2	R1067P
2323.607	3.801	1511726	PROB	3.801	n/a	n/a	-999	21	[6, 5, 6]	17	FR1	2	R1067P
2327.408	5.3	1513627	PROB	5.3	n/a	n/a	-999	21	[7, 2, 2]	11	FR1	2	R1067P
2332.708	6.31	1516276	PROB	6.31	n/a	n/a	-999	21	[5, 4, 5]	14	FR1	2	R1067P
2339.018	0.009	1519431	STOP	n/a	n/a	n/a	-999	21	[-999, -999, -999]	n/a	FR1	2	R1067P
2339.027	1.134	1519436	DISTRACT_END	n/a	n/a	n/a	-999	21	[0, 0, 0]	n/a	FR1	2	R1067P
2340.161	0.692	1520003	REC_START	n/a	n/a	n/a	-999	21	[0, 0, 0]	n/a	FR1	2	R1067P
2340.853	0.669	1520349	REC_WORD_VV	0.669	n/a	<>	-999	21	[0, 0, 0]	n/a	FR1	2	R1067P
2341.522	2.731	1520683	REC_WORD	2.731	n/a	CONE	-999	21	[0, 0, 0]	n/a	FR1	2	R1067P
2344.253	1.0	1522049	REC_WORD	1.0	n/a	ARK	-999	21	[0, 0, 0]	n/a	FR1	2	R1067P
2345.253	2.676	1522549	REC_WORD_VV	2.676	n/a	<>	-999	21	[0, 0, 0]	n/a	FR1	2	R1067P
2347.929	4.962	1523887	REC_WORD	4.962	n/a	LEAF	-999	21	[0, 0, 0]	n/a	FR1	2	R1067P
2352.891	17.282	1526367	REC_WORD	17.282	n/a	LAND	-999	21	[0, 0, 0]	n/a	FR1	2	R1067P
2370.173	2.575	1535008	REC_END	n/a	n/a	n/a	-999	21	[0, 0, 0]	n/a	FR1	2	R1067P
2372.748	0.001	1536295	COUNTDOWN_START	n/a	n/a	n/a	-999	22	[0, 0, 0]	n/a	FR1	2	R1067P
2372.749	10.427	1536296	TRIAL	n/a	n/a	n/a	-999	22	[0, 0, 0]	n/a	FR1	2	R1067P
2383.176	0.009	1541509	COUNTDOWN_END	n/a	n/a	n/a	-999	22	[0, 0, 0]	n/a	FR1	2	R1067P
2383.185	2.466	1541514	ORIENT	n/a	n/a	n/a	-999	22	[0, 0, 0]	n/a	FR1	2	R1067P
2385.651	2.435	1542747	WORD	n/a	wordpools/wordpool_EN.txt	CLOTH	1	22	[0, 0, 0]	n/a	FR1	2	R1067P
2388.086	2.5	1543964	WORD	n/a	wordpools/wordpool_EN.txt	ZOO	2	22	[0, 0, 0]	n/a	FR1	2	R1067P
2390.586	2.417	1545214	WORD	n/a	wordpools/wordpool_EN.txt	GUARD	3	22	[0, 0, 0]	n/a	FR1	2	R1067P
2393.003	2.584	1546422	WORD	n/a	wordpools/wordpool_EN.txt	DEER	4	22	[0, 0, 0]	n/a	FR1	2	R1067P
2395.587	2.434	1547714	WORD	n/a	wordpools/wordpool_EN.txt	INK	5	22	[0, 0, 0]	n/a	FR1	2	R1067P
2398.021	2.534	1548931	WORD	n/a	wordpools/wordpool_EN.txt	MAIL	6	22	[0, 0, 0]	n/a	FR1	2	R1067P
2400.555	2.584	1550198	WORD	n/a	wordpools/wordpool_EN.txt	FOAM	7	22	[0, 0, 0]	n/a	FR1	2	R1067P
2403.139	2.599	1551490	WORD	n/a	wordpools/wordpool_EN.txt	PIT	8	22	[0, 0, 0]	n/a	FR1	2	R1067P
2405.738	2.451	1552790	WORD	n/a	wordpools/wordpool_EN.txt	BADGE	9	22	[0, 0, 0]	n/a	FR1	2	R1067P
2408.189	2.633	1554015	WORD	n/a	wordpools/wordpool_EN.txt	CAGE	10	22	[0, 0, 0]	n/a	FR1	2	R1067P
2410.822	2.518	1555332	WORD	n/a	wordpools/wordpool_EN.txt	BEAK	11	22	[0, 0, 0]	n/a	FR1	2	R1067P
2413.34	1.616	1556590	WORD	n/a	wordpools/wordpool_EN.txt	SHEET	12	22	[0, 0, 0]	n/a	FR1	2	R1067P
2414.956	0.001	1557398	DISTRACT_START	n/a	n/a	n/a	-999	22	[0, 0, 0]	n/a	FR1	2	R1067P
2414.957	0.017	1557399	START	n/a	n/a	n/a	-999	22	[-999, -999, -999]	n/a	FR1	2	R1067P
2414.974	5.833	1557407	PROB	5.833	n/a	n/a	-999	22	[2, 9, 7]	18	FR1	2	R1067P
2420.807	5.586	1560324	PROB	5.586	n/a	n/a	-999	22	[5, 9, 7]	21	FR1	2	R1067P
2426.393	10.407	1563117	PROB	10.407	n/a	n/a	-999	22	[6, 8, 9]	23	FR1	2	R1067P
2436.8	0.01	1568320	STOP	n/a	n/a	n/a	-999	22	[-999, -999, -999]	n/a	FR1	2	R1067P
2436.81	1.202	1568325	DISTRACT_END	n/a	n/a	n/a	-999	22	[0, 0, 0]	n/a	FR1	2	R1067P
2438.012	4.144	1568926	REC_START	n/a	n/a	n/a	-999	22	[0, 0, 0]	n/a	FR1	2	R1067P
2442.156	1.0	1570998	REC_WORD	1.0	n/a	FORK	-999	22	[0, 0, 0]	n/a	FR1	2	R1067P
2443.156	13.974	1571498	REC_WORD_VV	13.974	n/a	<>	-999	22	[0, 0, 0]	n/a	FR1	2	R1067P
2457.13	1.0	1578484	REC_WORD_VV	1.0	n/a	<>	-999	22	[0, 0, 0]	n/a	FR1	2	R1067P
2458.13	2.8	1578984	REC_WORD_VV	2.8	n/a	<>	-999	22	[0, 0, 0]	n/a	FR1	2	R1067P
2460.93	7.095	1580384	REC_WORD_VV	7.095	n/a	<>	-999	22	[0, 0, 0]	n/a	FR1	2	R1067P
2468.025	3.46	1583932	REC_END	n/a	n/a	n/a	-999	22	[0, 0, 0]	n/a	FR1	2	R1067P
2471.485	0.0	1585662	TRIAL	n/a	n/a	n/a	-999	23	[0, 0, 0]	n/a	FR1	2	R1067P
2471.485	10.428	1585662	COUNTDOWN_START	n/a	n/a	n/a	-999	23	[0, 0, 0]	n/a	FR1	2	R1067P
2481.913	0.006	1590875	COUNTDOWN_END	n/a	n/a	n/a	-999	23	[0, 0, 0]	n/a	FR1	2	R1067P
2481.919	2.501	1590878	ORIENT	n/a	n/a	n/a	-999	23	[0, 0, 0]	n/a	FR1	2	R1067P
2484.42	2.45	1592129	WORD	n/a	wordpools/wordpool_EN.txt	ROPE	1	23	[0, 0, 0]	n/a	FR1	2	R1067P
2486.87	2.401	1593354	WORD	n/a	wordpools/wordpool_EN.txt	NET	2	23	[0, 0, 0]	n/a	FR1	2	R1067P
2489.271	2.433	1594554	WORD	n/a	wordpools/wordpool_EN.txt	FUDGE	3	23	[0, 0, 0]	n/a	FR1	2	R1067P
2491.704	2.452	1595770	WORD	n/a	wordpools/wordpool_EN.txt	FOX	4	23	[0, 0, 0]	n/a	FR1	2	R1067P
2494.156	2.582	1596996	WORD	n/a	wordpools/wordpool_EN.txt	SUN	5	23	[0, 0, 0]	n/a	FR1	2	R1067P
2496.738	2.418	1598287	WORD	n/a	wordpools/wordpool_EN.txt	SOUP	6	23	[0, 0, 0]	n/a	FR1	2	R1067P
2499.156	2.55	1599496	WORD	n/a	wordpools/wordpool_EN.txt	VINE	7	23	[0, 0, 0]	n/a	FR1	2	R1067P
2501.706	2.601	1600771	WORD	n/a	wordpools/wordpool_EN.txt	SKY	8	23	[0, 0, 0]	n/a	FR1	2	R1067P
2504.307	2.45	1602072	WORD	n/a	wordpools/wordpool_EN.txt	FRUIT	9	23	[0, 0, 0]	n/a	FR1	2	R1067P
2506.757	2.618	1603297	WORD	n/a	wordpools/wordpool_EN.txt	BRANCH	10	23	[0, 0, 0]	n/a	FR1	2	R1067P
2509.375	2.601	1604606	WORD	n/a	wordpools/wordpool_EN.txt	STORM	11	23	[0, 0, 0]	n/a	FR1	2	R1067P
2511.976	1.617	1605906	WORD	n/a	wordpools/wordpool_EN.txt	BOAT	12	23	[0, 0, 0]	n/a	FR1	2	R1067P
2513.593	0.0	1606714	DISTRACT_START	n/a	n/a	n/a	-999	23	[0, 0, 0]	n/a	FR1	2	R1067P
2513.593	0.016	1606714	START	n/a	n/a	n/a	-999	23	[-999, -999, -999]	n/a	FR1	2	R1067P
2513.609	6.918	1606722	PROB	6.918	n/a	n/a	-999	23	[9, 5, 5]	19	FR1	2	R1067P
2520.527	3.283	1610181	PROB	3.283	n/a	n/a	-999	23	[5, 5, 1]	11	FR1	2	R1067P
2523.81	3.452	1611823	PROB	3.452	n/a	n/a	-999	23	[4, 2, 5]	11	FR1	2	R1067P
2527.262	4.583	1613549	PROB	4.583	n/a	n/a	-999	23	[6, 3, 8]	17	FR1	2	R1067P
2531.845	3.781	1615840	PROB	3.781	n/a	n/a	-999	23	[3, 3, 9]	15	FR1	2	R1067P
2535.626	0.004	1617730	STOP	n/a	n/a	n/a	-999	23	[-999, -999, -999]	n/a	FR1	2	R1067P
2535.63	1.133	1617732	DISTRACT_END	n/a	n/a	n/a	-999	23	[0, 0, 0]	n/a	FR1	2	R1067P
2536.763	0.679	1618299	REC_START	n/a	n/a	n/a	-999	23	[0, 0, 0]	n/a	FR1	2	R1067P
2537.442	1.315	1618638	REC_WORD_VV	1.315	n/a	<>	-999	23	[0, 0, 0]	n/a	FR1	2	R1067P
2538.757	1.674	1619296	REC_WORD	1.674	n/a	ROACH	-999	23	[0, 0, 0]	n/a	FR1	2	R1067P
2540.431	1.73	1620133	REC_WORD	1.73	n/a	FOX	-999	23	[0, 0, 0]	n/a	FR1	2	R1067P
2542.161	3.603	1620998	REC_WORD	3.603	n/a	VINE	-999	23	[0, 0, 0]	n/a	FR1	2	R1067P
2545.764	21.017	1622799	REC_WORD	21.017	n/a	NET	-999	23	[0, 0, 0]	n/a	FR1	2	R1067P
2566.781	3.138	1633307	REC_END	n/a	n/a	n/a	-999	23	[0, 0, 0]	n/a	FR1	2	R1067P
2569.919	0.0	1634876	COUNTDOWN_START	n/a	n/a	n/a	-999	24	[0, 0, 0]	n/a	FR1	2	R1067P
2569.919	10.428	1634876	TRIAL	n/a	n/a	n/a	-999	24	[0, 0, 0]	n/a	FR1	2	R1067P
2580.347	0.008	1640090	COUNTDOWN_END	n/a	n/a	n/a	-999	24	[0, 0, 0]	n/a	FR1	2	R1067P
2580.355	2.399	1640094	ORIENT	n/a	n/a	n/a	-999	24	[0, 0, 0]	n/a	FR1	2	R1067P
2582.754	2.469	1641293	WORD	n/a	wordpools/wordpool_EN.txt	WEB	1	24	[0, 0, 0]	n/a	FR1	2	R1067P
2585.223	2.4	1642528	WORD	n/a	wordpools/wordpool_EN.txt	SHOE	2	24	[0, 0, 0]	n/a	FR1	2	R1067P
2587.623	2.417	1643728	WORD	n/a	wordpools/wordpool_EN.txt	WHALE	3	24	[0, 0, 0]	n/a	FR1	2	R1067P
2590.04	2.633	1644936	WORD	n/a	wordpools/wordpool_EN.txt	TENT	4	24	[0, 0, 0]	n/a	FR1	2	R1067P
2592.673	2.568	1646252	WORD	n/a	wordpools/wordpool_EN.txt	FUR	5	24	[0, 0, 0]	n/a	FR1	2	R1067P
2595.241	2.516	1647536	WORD	n/a	wordpools/wordpool_EN.txt	STOOL	6	24	[0, 0, 0]	n/a	FR1	2	R1067P
2597.757	2.552	1648794	WORD	n/a	wordpools/wordpool_EN.txt	PANTS	7	24	[0, 0, 0]	n/a	FR1	2	R1067P
2600.309	2.449	1650070	WORD	n/a	wordpools/wordpool_EN.txt	TOE	8	24	[0, 0, 0]	n/a	FR1	2	R1067P
2602.758	2.418	1651295	WORD	n/a	wordpools/wordpool_EN.txt	GOAT	9	24	[0, 0, 0]	n/a	FR1	2	R1067P
2605.176	2.516	1652504	WORD	n/a	wordpools/wordpool_EN.txt	ROOF	10	24	[0, 0, 0]	n/a	FR1	2	R1067P
2607.692	2.452	1653762	WORD	n/a	wordpools/wordpool_EN.txt	FAN	11	24	[0, 0, 0]	n/a	FR1	2	R1067P
2610.144	1.616	1654988	WORD	n/a	wordpools/wordpool_EN.txt	FACE	12	24	[0, 0, 0]	n/a	FR1	2	R1067P
2611.76	0.001	1655795	DISTRACT_START	n/a	n/a	n/a	-999	24	[0, 0, 0]	n/a	FR1	2	R1067P
2611.761	0.016	1655796	START	n/a	n/a	n/a	-999	24	[-999, -999, -999]	n/a	FR1	2	R1067P
2611.777	5.302	1655804	PROB	5.302	n/a	n/a	-999	24	[8, 4, 1]	13	FR1	2	R1067P
2617.079	5.301	1658455	PROB	5.301	n/a	n/a	-999	24	[6, 5, 7]	18	FR1	2	R1067P
2622.38	6.45	1661105	PROB	6.45	n/a	n/a	-999	24	[8, 9, 1]	18	FR1	2	R1067P
2628.83	2.817	1664330	PROB	2.817	n/a	n/a	-999	24	[1, 1, 1]	3	FR1	2	R1067P
2631.647	4.666	1665738	PROB	4.666	n/a	n/a	-999	24	[6, 2, 9]	17	FR1	2	R1067P
2636.313	0.019	1668071	STOP	n/a	n/a	n/a	-999	24	[-999, -999, -999]	n/a	FR1	2	R1067P
2636.332	1.051	1668081	DISTRACT_END	n/a	n/a	n/a	-999	24	[0, 0, 0]	n/a	FR1	2	R1067P
2637.383	1.697	1668606	REC_START	n/a	n/a	n/a	-999	24	[0, 0, 0]	n/a	FR1	2	R1067P
2639.08	1.664	1669455	REC_WORD	1.664	n/a	STOOL	-999	24	[0, 0, 0]	n/a	FR1	2	R1067P
2640.744	2.14	1670287	REC_WORD	2.14	n/a	TOE	-999	24	[0, 0, 0]	n/a	FR1	2	R1067P
2642.884	3.931	1671357	REC_WORD	3.931	n/a	GOAT	-999	24	[0, 0, 0]	n/a	FR1	2	R1067P
2646.815	1.88	1673322	REC_WORD_VV	1.88	n/a	<>	-999	24	[0, 0, 0]	n/a	FR1	2	R1067P
2648.695	18.7	1674262	REC_WORD	18.7	n/a	VENT	-999	24	[0, 0, 0]	n/a	FR1	2	R1067P
2667.395	3.509	1683612	REC_END	n/a	n/a	n/a	-999	24	[0, 0, 0]	n/a	FR1	2	R1067P
2670.904	0.001	1685366	COUNTDOWN_START	n/a	n/a	n/a	-999	25	[0, 0, 0]	n/a	FR1	2	R1067P
2670.905	10.427	1685367	TRIAL	n/a	n/a	n/a	-999	25	[0, 0, 0]	n/a	FR1	2	R1067P
2681.332	0.009	1690580	COUNTDOWN_END	n/a	n/a	n/a	-999	25	[0, 0, 0]	n/a	FR1	2	R1067P
2681.341	2.633	1690584	ORIENT	n/a	n/a	n/a	-999	25	[0, 0, 0]	n/a	FR1	2	R1067P
2683.974	2.534	1691901	WORD	n/a	wordpools/wordpool_EN.txt	HOOK	1	25	[0, 0, 0]	n/a	FR1	2	R1067P
2686.508	2.433	1693168	WORD	n/a	wordpools/wordpool_EN.txt	POOL	2	25	[0, 0, 0]	n/a	FR1	2	R1067P
2688.941	2.452	1694384	WORD	n/a	wordpools/wordpool_EN.txt	MOUSE	3	25	[0, 0, 0]	n/a	FR1	2	R1067P
2691.393	2.466	1695610	WORD	n/a	wordpools/wordpool_EN.txt	MAT	4	25	[0, 0, 0]	n/a	FR1	2	R1067P
2693.859	2.601	1696843	WORD	n/a	wordpools/wordpool_EN.txt	PET	5	25	[0, 0, 0]	n/a	FR1	2	R1067P
2696.46	2.617	1698143	WORD	n/a	wordpools/wordpool_EN.txt	BALL	6	25	[0, 0, 0]	n/a	FR1	2	R1067P
2699.077	2.484	1699452	WORD	n/a	wordpools/wordpool_EN.txt	TOY	7	25	[0, 0, 0]	n/a	FR1	2	R1067P
2701.561	2.6	1700694	WORD	n/a	wordpools/wordpool_EN.txt	FLAME	8	25	[0, 0, 0]	n/a	FR1	2	R1067P
2704.161	2.55	1701994	WORD	n/a	wordpools/wordpool_EN.txt	DOLL	9	25	[0, 0, 0]	n/a	FR1	2	R1067P
2706.711	2.435	1703269	WORD	n/a	wordpools/wordpool_EN.txt	CAT	10	25	[0, 0, 0]	n/a	FR1	2	R1067P
2709.146	2.45	1704486	WORD	n/a	wordpools/wordpool_EN.txt	NAIL	11	25	[0, 0, 0]	n/a	FR1	2	R1067P
2711.596	1.617	1705711	WORD	n/a	wordpools/wordpool_EN.txt	FISH	12	25	[0, 0, 0]	n/a	FR1	2	R1067P
2713.213	0.001	1706519	DISTRACT_START	n/a	n/a	n/a	-999	25	[0, 0, 0]	n/a	FR1	2	R1067P
2713.214	0.016	1706520	START	n/a	n/a	n/a	-999	25	[-999, -999, -999]	n/a	FR1	2	R1067P
2713.23	5.918	1706528	PROB	5.918	n/a	n/a	-999	25	[5, 8, 2]	15	FR1	2	R1067P
2719.148	3.766	1709487	PROB	3.766	n/a	n/a	-999	25	[5, 3, 5]	13	FR1	2	R1067P
2722.914	3.168	1711370	PROB	3.168	n/a	n/a	-999	25	[5, 2, 5]	12	FR1	2	R1067P
2726.082	4.901	1712954	PROB	4.901	n/a	n/a	-999	25	[9, 7, 6]	22	FR1	2	R1067P
2730.983	5.602	1715404	PROB	5.602	n/a	n/a	-999	25	[9, 6, 9]	24	FR1	2	R1067P
2736.585	0.016	1718205	STOP	n/a	n/a	n/a	-999	25	[-999, -999, -999]	n/a	FR1	2	R1067P
2736.601	1.166	1718213	DISTRACT_END	n/a	n/a	n/a	-999	25	[0, 0, 0]	n/a	FR1	2	R1067P
2737.767	0.449	1718796	REC_START	n/a	n/a	n/a	-999	25	[0, 0, 0]	n/a	FR1	2	R1067P
2738.216	1.119	1719020	REC_WORD_VV	1.119	n/a	<>	-999	25	[0, 0, 0]	n/a	FR1	2	R1067P
2739.335	3.478	1719580	REC_WORD	3.478	n/a	MOUSE	-999	25	[0, 0, 0]	n/a	FR1	2	R1067P
2742.813	1.0	1721319	REC_WORD	1.0	n/a	MAT	-999	25	[0, 0, 0]	n/a	FR1	2	R1067P
2743.813	2.039	1721819	REC_WORD_VV	2.039	n/a	<>	-999	25	[0, 0, 0]	n/a	FR1	2	R1067P
2745.852	1.582	1722838	REC_WORD	1.582	n/a	PET	-999	25	[0, 0, 0]	n/a	FR1	2	R1067P
2747.434	8.537	1723629	REC_WORD	8.537	n/a	BALL	-999	25	[0, 0, 0]	n/a	FR1	2	R1067P
2755.971	10.014	1727897	REC_WORD	10.014	n/a	HOUSE	-999	25	[0, 0, 0]	n/a	FR1	2	R1067P
2765.985	1.8	1732904	REC_WORD_VV	1.8	n/a	<>	-999	25	[0, 0, 0]	n/a	FR1	2	R1067P
2767.785	14.907	1733804	REC_END	n/a	n/a	n/a	-999	25	[0, 0, 0]	n/a	FR1	2	R1067P
2782.692	0.0	1741257	SESS_END	n/a	n/a	n/a	-999	25	[0, 0, 0]	n/a	FR1	2	R1067P
