onset	duration	sample	trial_type	response_time	stim_file	item_name	serialpos	list	test	answer	experiment	session	subject
0.0	17.553	55462	SESS_START	n/a	n/a	n/a	-999	-999	[0, 0, 0]	n/a	FR1	1	R1093J
17.553	10.428	72546	COUNTDOWN_START	n/a	n/a	n/a	-999	-999	[0, 0, 0]	n/a	FR1	1	R1093J
27.981	3.857	82695	COUNTDOWN_END	n/a	n/a	n/a	-999	-999	[0, 0, 0]	n/a	FR1	1	R1093J
31.838	2.434	86448	PRACTICE_WORD	n/a	n/a	FLOOD	1	-1	[0, 0, 0]	n/a	FR1	1	R1093J
34.272	2.433	88817	PRACTICE_WORD	n/a	n/a	COTTON	2	-1	[0, 0, 0]	n/a	FR1	1	R1093J
36.705	2.384	91185	PRACTICE_WORD	n/a	n/a	RING	3	-1	[0, 0, 0]	n/a	FR1	1	R1093J
39.089	2.5	93505	PRACTICE_WORD	n/a	n/a	WATCH	4	-1	[0, 0, 0]	n/a	FR1	1	R1093J
41.589	2.618	95938	PRACTICE_WORD	n/a	n/a	CAMEL	5	-1	[0, 0, 0]	n/a	FR1	1	R1093J
44.207	2.549	98486	PRACTICE_WORD	n/a	n/a	IRON	6	-1	[0, 0, 0]	n/a	FR1	1	R1093J
46.756	2.618	100967	PRACTICE_WORD	n/a	n/a	RHINO	7	-1	[0, 0, 0]	n/a	FR1	1	R1093J
49.374	2.499	103515	PRACTICE_WORD	n/a	n/a	CHEST	8	-1	[0, 0, 0]	n/a	FR1	1	R1093J
51.873	2.585	105947	PRACTICE_WORD	n/a	n/a	TONGUE	9	-1	[0, 0, 0]	n/a	FR1	1	R1093J
54.458	2.601	108463	PRACTICE_WORD	n/a	n/a	ATTIC	10	-1	[0, 0, 0]	n/a	FR1	1	R1093J
57.059	2.466	110995	PRACTICE_WORD	n/a	n/a	BEAM	11	-1	[0, 0, 0]	n/a	FR1	1	R1093J
59.525	1.618	113395	PRACTICE_WORD	n/a	n/a	WAGON	12	-1	[0, 0, 0]	n/a	FR1	1	R1093J
61.143	0.016	114969	START	n/a	n/a	n/a	-999	2	[-999, -999, -999]	n/a	FR1	1	R1093J
61.159	9.65	114985	PROB	9.65	n/a	n/a	-999	2	[7, 7, 4]	18	FR1	1	R1093J
70.809	10.701	124377	PROB	10.701	n/a	n/a	-999	2	[9, 4, 3]	16	FR1	1	R1093J
81.51	53.592	134791	STOP	n/a	n/a	n/a	-999	2	[-999, -999, -999]	n/a	FR1	1	R1093J
135.102	0.0	186949	TRIAL	n/a	n/a	n/a	-999	1	[0, 0, 0]	n/a	FR1	1	R1093J
135.102	10.428	186949	COUNTDOWN_START	n/a	n/a	n/a	-999	1	[0, 0, 0]	n/a	FR1	1	R1093J
145.53	0.007	197098	COUNTDOWN_END	n/a	n/a	n/a	-999	1	[0, 0, 0]	n/a	FR1	1	R1093J
145.537	2.55	197105	ORIENT	n/a	n/a	n/a	-999	1	[0, 0, 0]	n/a	FR1	1	R1093J
148.087	2.599	199587	WORD	n/a	wordpools/wordpool_EN.txt	FOOT	1	1	[0, 0, 0]	n/a	FR1	1	R1093J
150.686	2.585	202116	WORD	n/a	wordpools/wordpool_EN.txt	HORSE	2	1	[0, 0, 0]	n/a	FR1	1	R1093J
153.271	2.383	204632	WORD	n/a	wordpools/wordpool_EN.txt	CALF	3	1	[0, 0, 0]	n/a	FR1	1	R1093J
155.654	2.451	206951	WORD	n/a	wordpools/wordpool_EN.txt	BAG	4	1	[0, 0, 0]	n/a	FR1	1	R1093J
158.105	2.532	209336	WORD	n/a	wordpools/wordpool_EN.txt	NOSE	5	1	[0, 0, 0]	n/a	FR1	1	R1093J
160.637	2.485	211801	WORD	n/a	wordpools/wordpool_EN.txt	DITCH	6	1	[0, 0, 0]	n/a	FR1	1	R1093J
163.122	2.566	214219	WORD	n/a	wordpools/wordpool_EN.txt	WAND	7	1	[0, 0, 0]	n/a	FR1	1	R1093J
165.688	2.401	216717	WORD	n/a	wordpools/wordpool_EN.txt	SHIRT	8	1	[0, 0, 0]	n/a	FR1	1	R1093J
168.089	2.6	219053	WORD	n/a	wordpools/wordpool_EN.txt	MOUTH	9	1	[0, 0, 0]	n/a	FR1	1	R1093J
170.689	2.518	221584	WORD	n/a	wordpools/wordpool_EN.txt	CHALK	10	1	[0, 0, 0]	n/a	FR1	1	R1093J
173.207	2.499	224034	WORD	n/a	wordpools/wordpool_EN.txt	SINK	11	1	[0, 0, 0]	n/a	FR1	1	R1093J
175.706	1.618	226466	WORD	n/a	wordpools/wordpool_EN.txt	MUD	12	1	[0, 0, 0]	n/a	FR1	1	R1093J
177.324	0.001	228041	DISTRACT_START	n/a	n/a	n/a	-999	1	[0, 0, 0]	n/a	FR1	1	R1093J
177.325	0.016	228042	START	n/a	n/a	n/a	-999	3	[-999, -999, -999]	n/a	FR1	1	R1093J
177.341	15.152	228058	PROB	15.152	n/a	n/a	-999	3	[8, 7, 6]	21	FR1	1	R1093J
192.493	11.052	242804	PROB	11.052	n/a	n/a	-999	3	[5, 8, 9]	23	FR1	1	R1093J
203.545	0.016	253560	STOP	n/a	n/a	n/a	-999	3	[-999, -999, -999]	n/a	FR1	1	R1093J
203.561	1.033	253576	DISTRACT_END	n/a	n/a	n/a	-999	1	[0, 0, 0]	n/a	FR1	1	R1093J
204.594	2.968	254581	REC_START	n/a	n/a	n/a	-999	1	[0, 0, 0]	n/a	FR1	1	R1093J
207.562	2.143	257470	REC_WORD	2.143	n/a	CALF	-999	1	[0, 0, 0]	n/a	FR1	1	R1093J
209.705	2.889	259556	REC_WORD	2.889	n/a	HORSE	-999	1	[0, 0, 0]	n/a	FR1	1	R1093J
212.594	22.01	262367	REC_WORD	22.01	n/a	SHIRT	-999	1	[0, 0, 0]	n/a	FR1	1	R1093J
234.604	3.577	283788	REC_END	n/a	n/a	n/a	-999	1	[0, 0, 0]	n/a	FR1	1	R1093J
238.181	0.001	287270	COUNTDOWN_START	n/a	n/a	n/a	-999	2	[0, 0, 0]	n/a	FR1	1	R1093J
238.182	10.427	287271	TRIAL	n/a	n/a	n/a	-999	2	[0, 0, 0]	n/a	FR1	1	R1093J
248.609	0.006	297419	COUNTDOWN_END	n/a	n/a	n/a	-999	2	[0, 0, 0]	n/a	FR1	1	R1093J
248.615	2.602	297424	ORIENT	n/a	n/a	n/a	-999	2	[0, 0, 0]	n/a	FR1	1	R1093J
251.217	2.616	299957	WORD	n/a	wordpools/wordpool_EN.txt	BRICK	1	2	[0, 0, 0]	n/a	FR1	1	R1093J
253.833	2.451	302503	WORD	n/a	wordpools/wordpool_EN.txt	POLE	2	2	[0, 0, 0]	n/a	FR1	1	R1093J
256.284	2.549	304888	WORD	n/a	wordpools/wordpool_EN.txt	JAIL	3	2	[0, 0, 0]	n/a	FR1	1	R1093J
258.833	2.385	307369	WORD	n/a	wordpools/wordpool_EN.txt	MAP	4	2	[0, 0, 0]	n/a	FR1	1	R1093J
261.218	2.533	309690	WORD	n/a	wordpools/wordpool_EN.txt	MOON	5	2	[0, 0, 0]	n/a	FR1	1	R1093J
263.751	2.418	312155	WORD	n/a	wordpools/wordpool_EN.txt	CORD	6	2	[0, 0, 0]	n/a	FR1	1	R1093J
266.169	2.515	314509	WORD	n/a	wordpools/wordpool_EN.txt	BOMB	7	2	[0, 0, 0]	n/a	FR1	1	R1093J
268.684	2.418	316956	WORD	n/a	wordpools/wordpool_EN.txt	OAR	8	2	[0, 0, 0]	n/a	FR1	1	R1093J
271.102	2.434	319310	WORD	n/a	wordpools/wordpool_EN.txt	STAR	9	2	[0, 0, 0]	n/a	FR1	1	R1093J
273.536	2.451	321678	WORD	n/a	wordpools/wordpool_EN.txt	STEM	10	2	[0, 0, 0]	n/a	FR1	1	R1093J
275.987	2.5	324064	WORD	n/a	wordpools/wordpool_EN.txt	BAT	11	2	[0, 0, 0]	n/a	FR1	1	R1093J
278.487	1.617	326497	WORD	n/a	wordpools/wordpool_EN.txt	TOOTH	12	2	[0, 0, 0]	n/a	FR1	1	R1093J
280.104	0.001	328071	DISTRACT_START	n/a	n/a	n/a	-999	2	[0, 0, 0]	n/a	FR1	1	R1093J
280.105	0.015	328072	START	n/a	n/a	n/a	-999	4	[-999, -999, -999]	n/a	FR1	1	R1093J
280.12	23.292	328086	PROB	23.292	n/a	n/a	-999	4	[4, 8, 9]	21	FR1	1	R1093J
303.412	0.011	350755	STOP	n/a	n/a	n/a	-999	4	[-999, -999, -999]	n/a	FR1	1	R1093J
303.423	1.084	350766	DISTRACT_END	n/a	n/a	n/a	-999	2	[0, 0, 0]	n/a	FR1	1	R1093J
304.507	2.778	351821	REC_START	n/a	n/a	n/a	-999	2	[0, 0, 0]	n/a	FR1	1	R1093J
307.285	2.914	354524	REC_WORD	2.914	n/a	BRICK	-999	2	[0, 0, 0]	n/a	FR1	1	R1093J
310.199	16.401	357360	REC_WORD	16.401	n/a	TAIL	-999	2	[0, 0, 0]	n/a	FR1	1	R1093J
326.6	7.921	373322	REC_WORD	7.921	n/a	WATCH	-999	2	[0, 0, 0]	n/a	FR1	1	R1093J
334.521	3.774	381031	REC_END	n/a	n/a	n/a	-999	2	[0, 0, 0]	n/a	FR1	1	R1093J
338.295	0.0	384704	TRIAL	n/a	n/a	n/a	-999	3	[0, 0, 0]	n/a	FR1	1	R1093J
338.295	10.428	384704	COUNTDOWN_START	n/a	n/a	n/a	-999	3	[0, 0, 0]	n/a	FR1	1	R1093J
348.723	0.005	394853	COUNTDOWN_END	n/a	n/a	n/a	-999	3	[0, 0, 0]	n/a	FR1	1	R1093J
348.728	2.485	394858	ORIENT	n/a	n/a	n/a	-999	3	[0, 0, 0]	n/a	FR1	1	R1093J
351.213	2.399	397277	WORD	n/a	wordpools/wordpool_EN.txt	DUCK	1	3	[0, 0, 0]	n/a	FR1	1	R1093J
353.612	2.452	399612	WORD	n/a	wordpools/wordpool_EN.txt	ZOO	2	3	[0, 0, 0]	n/a	FR1	1	R1093J
356.064	2.449	401998	WORD	n/a	wordpools/wordpool_EN.txt	SOUP	3	3	[0, 0, 0]	n/a	FR1	1	R1093J
358.513	2.401	404381	WORD	n/a	wordpools/wordpool_EN.txt	CLAY	4	3	[0, 0, 0]	n/a	FR1	1	R1093J
360.914	2.417	406718	WORD	n/a	wordpools/wordpool_EN.txt	MOUSE	5	3	[0, 0, 0]	n/a	FR1	1	R1093J
363.331	2.584	409071	WORD	n/a	wordpools/wordpool_EN.txt	SKUNK	6	3	[0, 0, 0]	n/a	FR1	1	R1093J
365.915	2.6	411585	WORD	n/a	wordpools/wordpool_EN.txt	ANT	7	3	[0, 0, 0]	n/a	FR1	1	R1093J
368.515	2.533	414116	WORD	n/a	wordpools/wordpool_EN.txt	MOOSE	8	3	[0, 0, 0]	n/a	FR1	1	R1093J
371.048	2.55	416581	WORD	n/a	wordpools/wordpool_EN.txt	ROCK	9	3	[0, 0, 0]	n/a	FR1	1	R1093J
373.598	2.401	419063	WORD	n/a	wordpools/wordpool_EN.txt	SPONGE	10	3	[0, 0, 0]	n/a	FR1	1	R1093J
375.999	2.45	421400	WORD	n/a	wordpools/wordpool_EN.txt	TENT	11	3	[0, 0, 0]	n/a	FR1	1	R1093J
378.449	1.617	423784	WORD	n/a	wordpools/wordpool_EN.txt	SNAKE	12	3	[0, 0, 0]	n/a	FR1	1	R1093J
380.066	0.001	425358	DISTRACT_START	n/a	n/a	n/a	-999	3	[0, 0, 0]	n/a	FR1	1	R1093J
380.067	0.016	425359	START	n/a	n/a	n/a	-999	5	[-999, -999, -999]	n/a	FR1	1	R1093J
380.083	6.6	425374	PROB	6.6	n/a	n/a	-999	5	[4, 4, 8]	16	FR1	1	R1093J
386.683	4.802	431798	PROB	4.802	n/a	n/a	-999	5	[5, 1, 2]	8	FR1	1	R1093J
391.485	6.501	436471	PROB	6.501	n/a	n/a	-999	5	[8, 8, 6]	22	FR1	1	R1093J
397.986	3.182	442798	PROB	3.182	n/a	n/a	-999	5	[1, 4, 1]	6	FR1	1	R1093J
401.168	0.018	445895	STOP	n/a	n/a	n/a	-999	5	[-999, -999, -999]	n/a	FR1	1	R1093J
401.186	1.134	445912	DISTRACT_END	n/a	n/a	n/a	-999	3	[0, 0, 0]	n/a	FR1	1	R1093J
402.32	2.286	447016	REC_START	n/a	n/a	n/a	-999	3	[0, 0, 0]	n/a	FR1	1	R1093J
404.606	1.905	449241	REC_WORD	1.905	n/a	DUCK	-999	3	[0, 0, 0]	n/a	FR1	1	R1093J
406.511	2.456	451095	REC_WORD	2.456	n/a	ZOO	-999	3	[0, 0, 0]	n/a	FR1	1	R1093J
408.967	23.363	453485	REC_WORD	23.363	n/a	SOUP	-999	3	[0, 0, 0]	n/a	FR1	1	R1093J
432.33	3.309	476223	REC_END	n/a	n/a	n/a	-999	3	[0, 0, 0]	n/a	FR1	1	R1093J
435.639	0.001	479444	COUNTDOWN_START	n/a	n/a	n/a	-999	4	[0, 0, 0]	n/a	FR1	1	R1093J
435.64	10.427	479444	TRIAL	n/a	n/a	n/a	-999	4	[0, 0, 0]	n/a	FR1	1	R1093J
446.067	0.008	489592	COUNTDOWN_END	n/a	n/a	n/a	-999	4	[0, 0, 0]	n/a	FR1	1	R1093J
446.075	2.483	489600	ORIENT	n/a	n/a	n/a	-999	4	[0, 0, 0]	n/a	FR1	1	R1093J
448.558	2.484	492017	WORD	n/a	wordpools/wordpool_EN.txt	SCHOOL	1	4	[0, 0, 0]	n/a	FR1	1	R1093J
451.042	2.533	494434	WORD	n/a	wordpools/wordpool_EN.txt	PIN	2	4	[0, 0, 0]	n/a	FR1	1	R1093J
453.575	2.485	496900	WORD	n/a	wordpools/wordpool_EN.txt	CLOCK	3	4	[0, 0, 0]	n/a	FR1	1	R1093J
456.06	2.45	499318	WORD	n/a	wordpools/wordpool_EN.txt	FLAG	4	4	[0, 0, 0]	n/a	FR1	1	R1093J
458.51	2.417	501702	WORD	n/a	wordpools/wordpool_EN.txt	THUMB	5	4	[0, 0, 0]	n/a	FR1	1	R1093J
460.927	2.584	504055	WORD	n/a	wordpools/wordpool_EN.txt	BOY	6	4	[0, 0, 0]	n/a	FR1	1	R1093J
463.511	2.433	506570	WORD	n/a	wordpools/wordpool_EN.txt	WORLD	7	4	[0, 0, 0]	n/a	FR1	1	R1093J
465.944	2.6	508938	WORD	n/a	wordpools/wordpool_EN.txt	DESK	8	4	[0, 0, 0]	n/a	FR1	1	R1093J
468.544	2.401	511468	WORD	n/a	wordpools/wordpool_EN.txt	BRIDGE	9	4	[0, 0, 0]	n/a	FR1	1	R1093J
470.945	2.417	513805	WORD	n/a	wordpools/wordpool_EN.txt	THREAD	10	4	[0, 0, 0]	n/a	FR1	1	R1093J
473.362	2.534	516157	WORD	n/a	wordpools/wordpool_EN.txt	INK	11	4	[0, 0, 0]	n/a	FR1	1	R1093J
475.896	1.616	518623	WORD	n/a	wordpools/wordpool_EN.txt	POOL	12	4	[0, 0, 0]	n/a	FR1	1	R1093J
477.512	0.001	520196	DISTRACT_START	n/a	n/a	n/a	-999	4	[0, 0, 0]	n/a	FR1	1	R1093J
477.513	0.016	520197	START	n/a	n/a	n/a	-999	6	[-999, -999, -999]	n/a	FR1	1	R1093J
477.529	13.352	520213	PROB	13.352	n/a	n/a	-999	6	[3, 5, 9]	17	FR1	1	R1093J
490.881	4.783	533207	PROB	4.783	n/a	n/a	-999	6	[1, 7, 8]	16	FR1	1	R1093J
495.664	9.091	537862	PROB	9.091	n/a	n/a	-999	6	[8, 8, 7]	23	FR1	1	R1093J
504.755	0.01	546710	STOP	n/a	n/a	n/a	-999	6	[-999, -999, -999]	n/a	FR1	1	R1093J
504.765	1.135	546720	DISTRACT_END	n/a	n/a	n/a	-999	4	[0, 0, 0]	n/a	FR1	1	R1093J
505.9	1.706	547824	REC_START	n/a	n/a	n/a	-999	4	[0, 0, 0]	n/a	FR1	1	R1093J
507.606	1.754	549485	REC_WORD	1.754	n/a	SCHOOL	-999	4	[0, 0, 0]	n/a	FR1	1	R1093J
509.36	2.249	551192	REC_WORD	2.249	n/a	PIN	-999	4	[0, 0, 0]	n/a	FR1	1	R1093J
511.609	4.756	553381	REC_WORD	4.756	n/a	THUMB	-999	4	[0, 0, 0]	n/a	FR1	1	R1093J
516.365	6.262	558009	REC_WORD	6.262	n/a	CLOCK	-999	4	[0, 0, 0]	n/a	FR1	1	R1093J
522.627	13.284	564104	REC_WORD	13.284	n/a	BRIDGE	-999	4	[0, 0, 0]	n/a	FR1	1	R1093J
535.911	3.958	577032	REC_END	n/a	n/a	n/a	-999	4	[0, 0, 0]	n/a	FR1	1	R1093J
539.869	0.0	580884	TRIAL	n/a	n/a	n/a	-999	5	[0, 0, 0]	n/a	FR1	1	R1093J
539.869	10.428	580884	COUNTDOWN_START	n/a	n/a	n/a	-999	5	[0, 0, 0]	n/a	FR1	1	R1093J
550.297	0.008	591033	COUNTDOWN_END	n/a	n/a	n/a	-999	5	[0, 0, 0]	n/a	FR1	1	R1093J
550.305	2.449	591041	ORIENT	n/a	n/a	n/a	-999	5	[0, 0, 0]	n/a	FR1	1	R1093J
552.754	2.552	593424	WORD	n/a	wordpools/wordpool_EN.txt	STEAM	1	5	[0, 0, 0]	n/a	FR1	1	R1093J
555.306	2.583	595908	WORD	n/a	wordpools/wordpool_EN.txt	SIGN	2	5	[0, 0, 0]	n/a	FR1	1	R1093J
557.889	2.6	598422	WORD	n/a	wordpools/wordpool_EN.txt	WHALE	3	5	[0, 0, 0]	n/a	FR1	1	R1093J
560.489	2.401	600952	WORD	n/a	wordpools/wordpool_EN.txt	SHIELD	4	5	[0, 0, 0]	n/a	FR1	1	R1093J
562.89	2.5	603289	WORD	n/a	wordpools/wordpool_EN.txt	ICE	5	5	[0, 0, 0]	n/a	FR1	1	R1093J
565.39	2.45	605722	WORD	n/a	wordpools/wordpool_EN.txt	CROW	6	5	[0, 0, 0]	n/a	FR1	1	R1093J
567.84	2.467	608107	WORD	n/a	wordpools/wordpool_EN.txt	AXE	7	5	[0, 0, 0]	n/a	FR1	1	R1093J
570.307	2.601	610508	WORD	n/a	wordpools/wordpool_EN.txt	JEEP	8	5	[0, 0, 0]	n/a	FR1	1	R1093J
572.908	2.434	613039	WORD	n/a	wordpools/wordpool_EN.txt	SPRING	9	5	[0, 0, 0]	n/a	FR1	1	R1093J
575.342	2.617	615408	WORD	n/a	wordpools/wordpool_EN.txt	SLEEVE	10	5	[0, 0, 0]	n/a	FR1	1	R1093J
577.959	2.45	617955	WORD	n/a	wordpools/wordpool_EN.txt	GEESE	11	5	[0, 0, 0]	n/a	FR1	1	R1093J
580.409	1.617	620339	WORD	n/a	wordpools/wordpool_EN.txt	GATE	12	5	[0, 0, 0]	n/a	FR1	1	R1093J
582.026	0.001	621913	DISTRACT_START	n/a	n/a	n/a	-999	5	[0, 0, 0]	n/a	FR1	1	R1093J
582.027	0.015	621914	START	n/a	n/a	n/a	-999	7	[-999, -999, -999]	n/a	FR1	1	R1093J
582.042	13.785	621929	PROB	13.785	n/a	n/a	-999	7	[5, 7, 6]	18	FR1	1	R1093J
595.827	4.418	635345	PROB	4.418	n/a	n/a	-999	7	[3, 7, 4]	14	FR1	1	R1093J
600.245	5.578	639645	PROB	5.578	n/a	n/a	-999	7	[8, 8, 3]	19	FR1	1	R1093J
605.823	0.004	645073	STOP	n/a	n/a	n/a	-999	7	[-999, -999, -999]	n/a	FR1	1	R1093J
605.827	1.203	645077	DISTRACT_END	n/a	n/a	n/a	-999	5	[0, 0, 0]	n/a	FR1	1	R1093J
607.03	1.405	646248	REC_START	n/a	n/a	n/a	-999	5	[0, 0, 0]	n/a	FR1	1	R1093J
608.435	2.074	647615	REC_WORD	2.074	n/a	STEAM	-999	5	[0, 0, 0]	n/a	FR1	1	R1093J
610.509	2.088	649634	REC_WORD	2.088	n/a	JAIL	-999	5	[0, 0, 0]	n/a	FR1	1	R1093J
612.597	24.445	651666	REC_WORD	24.445	n/a	SHEEP	-999	5	[0, 0, 0]	n/a	FR1	1	R1093J
637.042	4.975	675457	REC_END	n/a	n/a	n/a	-999	5	[0, 0, 0]	n/a	FR1	1	R1093J
642.017	0.0	680299	TRIAL	n/a	n/a	n/a	-999	6	[0, 0, 0]	n/a	FR1	1	R1093J
642.017	10.428	680299	COUNTDOWN_START	n/a	n/a	n/a	-999	6	[0, 0, 0]	n/a	FR1	1	R1093J
652.445	0.006	690448	COUNTDOWN_END	n/a	n/a	n/a	-999	6	[0, 0, 0]	n/a	FR1	1	R1093J
652.451	2.416	690454	ORIENT	n/a	n/a	n/a	-999	6	[0, 0, 0]	n/a	FR1	1	R1093J
654.867	2.402	692805	WORD	n/a	wordpools/wordpool_EN.txt	BALL	1	6	[0, 0, 0]	n/a	FR1	1	R1093J
657.269	2.465	695143	WORD	n/a	wordpools/wordpool_EN.txt	GLOVE	2	6	[0, 0, 0]	n/a	FR1	1	R1093J
659.734	2.468	697542	WORD	n/a	wordpools/wordpool_EN.txt	DRUM	3	6	[0, 0, 0]	n/a	FR1	1	R1093J
662.202	2.6	699944	WORD	n/a	wordpools/wordpool_EN.txt	PALM	4	6	[0, 0, 0]	n/a	FR1	1	R1093J
664.802	2.568	702474	WORD	n/a	wordpools/wordpool_EN.txt	PLATE	5	6	[0, 0, 0]	n/a	FR1	1	R1093J
667.37	2.6	704973	WORD	n/a	wordpools/wordpool_EN.txt	PRINCE	6	6	[0, 0, 0]	n/a	FR1	1	R1093J
669.97	2.484	707504	WORD	n/a	wordpools/wordpool_EN.txt	CHAIR	7	6	[0, 0, 0]	n/a	FR1	1	R1093J
672.454	2.467	709921	WORD	n/a	wordpools/wordpool_EN.txt	NET	8	6	[0, 0, 0]	n/a	FR1	1	R1093J
674.921	2.45	712322	WORD	n/a	wordpools/wordpool_EN.txt	TREE	9	6	[0, 0, 0]	n/a	FR1	1	R1093J
677.371	2.517	714707	WORD	n/a	wordpools/wordpool_EN.txt	VASE	10	6	[0, 0, 0]	n/a	FR1	1	R1093J
679.888	2.517	717156	WORD	n/a	wordpools/wordpool_EN.txt	SHARK	11	6	[0, 0, 0]	n/a	FR1	1	R1093J
682.405	1.617	719606	WORD	n/a	wordpools/wordpool_EN.txt	COIN	12	6	[0, 0, 0]	n/a	FR1	1	R1093J
684.022	0.001	721180	DISTRACT_START	n/a	n/a	n/a	-999	6	[0, 0, 0]	n/a	FR1	1	R1093J
684.023	0.016	721181	START	n/a	n/a	n/a	-999	8	[-999, -999, -999]	n/a	FR1	1	R1093J
684.039	13.385	721196	PROB	13.385	n/a	n/a	-999	8	[8, 7, 6]	21	FR1	1	R1093J
697.424	13.811	734223	PROB	13.811	n/a	n/a	-999	8	[9, 8, 6]	23	FR1	1	R1093J
711.235	0.007	747664	STOP	n/a	n/a	n/a	-999	8	[-999, -999, -999]	n/a	FR1	1	R1093J
711.242	1.168	747671	DISTRACT_END	n/a	n/a	n/a	-999	6	[0, 0, 0]	n/a	FR1	1	R1093J
712.41	2.194	748808	REC_START	n/a	n/a	n/a	-999	6	[0, 0, 0]	n/a	FR1	1	R1093J
714.604	1.597	750943	REC_WORD	1.597	n/a	GLOVE	-999	6	[0, 0, 0]	n/a	FR1	1	R1093J
716.201	26.22	752498	REC_WORD	26.22	n/a	PALM	-999	6	[0, 0, 0]	n/a	FR1	1	R1093J
742.421	6.459	778016	REC_END	n/a	n/a	n/a	-999	6	[0, 0, 0]	n/a	FR1	1	R1093J
748.88	0.0	784302	TRIAL	n/a	n/a	n/a	-999	7	[0, 0, 0]	n/a	FR1	1	R1093J
748.88	10.428	784302	COUNTDOWN_START	n/a	n/a	n/a	-999	7	[0, 0, 0]	n/a	FR1	1	R1093J
759.308	0.007	794451	COUNTDOWN_END	n/a	n/a	n/a	-999	7	[0, 0, 0]	n/a	FR1	1	R1093J
759.315	2.483	794458	ORIENT	n/a	n/a	n/a	-999	7	[0, 0, 0]	n/a	FR1	1	R1093J
761.798	2.418	796874	WORD	n/a	wordpools/wordpool_EN.txt	EAR	1	7	[0, 0, 0]	n/a	FR1	1	R1093J
764.216	2.382	799228	WORD	n/a	wordpools/wordpool_EN.txt	HOUSE	2	7	[0, 0, 0]	n/a	FR1	1	R1093J
766.598	2.401	801546	WORD	n/a	wordpools/wordpool_EN.txt	DOOR	3	7	[0, 0, 0]	n/a	FR1	1	R1093J
768.999	2.384	803883	WORD	n/a	wordpools/wordpool_EN.txt	STREET	4	7	[0, 0, 0]	n/a	FR1	1	R1093J
771.383	2.433	806203	WORD	n/a	wordpools/wordpool_EN.txt	DIME	5	7	[0, 0, 0]	n/a	FR1	1	R1093J
773.816	2.551	808571	WORD	n/a	wordpools/wordpool_EN.txt	BED	6	7	[0, 0, 0]	n/a	FR1	1	R1093J
776.367	2.433	811053	WORD	n/a	wordpools/wordpool_EN.txt	CAKE	7	7	[0, 0, 0]	n/a	FR1	1	R1093J
778.8	2.618	813421	WORD	n/a	wordpools/wordpool_EN.txt	CART	8	7	[0, 0, 0]	n/a	FR1	1	R1093J
781.418	2.617	815969	WORD	n/a	wordpools/wordpool_EN.txt	FENCE	9	7	[0, 0, 0]	n/a	FR1	1	R1093J
784.035	2.549	818516	WORD	n/a	wordpools/wordpool_EN.txt	CUP	10	7	[0, 0, 0]	n/a	FR1	1	R1093J
786.584	2.551	820997	WORD	n/a	wordpools/wordpool_EN.txt	SLUSH	11	7	[0, 0, 0]	n/a	FR1	1	R1093J
789.135	1.616	823480	WORD	n/a	wordpools/wordpool_EN.txt	STAIR	12	7	[0, 0, 0]	n/a	FR1	1	R1093J
790.751	0.001	825053	DISTRACT_START	n/a	n/a	n/a	-999	7	[0, 0, 0]	n/a	FR1	1	R1093J
790.752	0.016	825054	START	n/a	n/a	n/a	-999	9	[-999, -999, -999]	n/a	FR1	1	R1093J
790.768	8.868	825069	PROB	8.868	n/a	n/a	-999	9	[3, 9, 6]	18	FR1	1	R1093J
799.636	6.452	833700	PROB	6.452	n/a	n/a	-999	9	[1, 4, 9]	14	FR1	1	R1093J
806.088	22.629	839979	PROB	22.629	n/a	n/a	-999	9	[9, 8, 7]	24	FR1	1	R1093J
828.717	0.006	862003	STOP	n/a	n/a	n/a	-999	9	[-999, -999, -999]	n/a	FR1	1	R1093J
828.723	1.168	862008	DISTRACT_END	n/a	n/a	n/a	-999	7	[0, 0, 0]	n/a	FR1	1	R1093J
829.891	2.388	863145	REC_START	n/a	n/a	n/a	-999	7	[0, 0, 0]	n/a	FR1	1	R1093J
832.279	1.159	865469	REC_WORD	1.159	n/a	EAR	-999	7	[0, 0, 0]	n/a	FR1	1	R1093J
833.438	3.578	866597	REC_WORD	3.578	n/a	HOUSE	-999	7	[0, 0, 0]	n/a	FR1	1	R1093J
837.016	6.821	870079	REC_WORD	6.821	n/a	CUP	-999	7	[0, 0, 0]	n/a	FR1	1	R1093J
843.837	16.07	876718	REC_WORD	16.07	n/a	STAIR	-999	7	[0, 0, 0]	n/a	FR1	1	R1093J
859.907	6.687	892358	REC_END	n/a	n/a	n/a	-999	7	[0, 0, 0]	n/a	FR1	1	R1093J
866.594	0.001	898866	COUNTDOWN_START	n/a	n/a	n/a	-999	8	[0, 0, 0]	n/a	FR1	1	R1093J
866.595	10.427	898867	TRIAL	n/a	n/a	n/a	-999	8	[0, 0, 0]	n/a	FR1	1	R1093J
877.022	0.008	909015	COUNTDOWN_END	n/a	n/a	n/a	-999	8	[0, 0, 0]	n/a	FR1	1	R1093J
877.03	2.517	909023	ORIENT	n/a	n/a	n/a	-999	8	[0, 0, 0]	n/a	FR1	1	R1093J
879.547	2.584	911472	WORD	n/a	wordpools/wordpool_EN.txt	SOAP	1	8	[0, 0, 0]	n/a	FR1	1	R1093J
882.131	2.566	913987	WORD	n/a	wordpools/wordpool_EN.txt	GRAPE	2	8	[0, 0, 0]	n/a	FR1	1	R1093J
884.697	2.584	916484	WORD	n/a	wordpools/wordpool_EN.txt	FLUTE	3	8	[0, 0, 0]	n/a	FR1	1	R1093J
887.281	2.566	918999	WORD	n/a	wordpools/wordpool_EN.txt	BENCH	4	8	[0, 0, 0]	n/a	FR1	1	R1093J
889.847	2.435	921497	WORD	n/a	wordpools/wordpool_EN.txt	FAN	5	8	[0, 0, 0]	n/a	FR1	1	R1093J
892.282	2.582	923867	WORD	n/a	wordpools/wordpool_EN.txt	JUICE	6	8	[0, 0, 0]	n/a	FR1	1	R1093J
894.864	2.385	926379	WORD	n/a	wordpools/wordpool_EN.txt	FRUIT	7	8	[0, 0, 0]	n/a	FR1	1	R1093J
897.249	2.516	928701	WORD	n/a	wordpools/wordpool_EN.txt	COUCH	8	8	[0, 0, 0]	n/a	FR1	1	R1093J
899.765	2.368	931149	WORD	n/a	wordpools/wordpool_EN.txt	GLASS	9	8	[0, 0, 0]	n/a	FR1	1	R1093J
902.133	2.566	933454	WORD	n/a	wordpools/wordpool_EN.txt	BOWL	10	8	[0, 0, 0]	n/a	FR1	1	R1093J
904.699	2.601	935951	WORD	n/a	wordpools/wordpool_EN.txt	BOOT	11	8	[0, 0, 0]	n/a	FR1	1	R1093J
907.3	1.617	938483	WORD	n/a	wordpools/wordpool_EN.txt	CANE	12	8	[0, 0, 0]	n/a	FR1	1	R1093J
908.917	0.001	940056	DISTRACT_START	n/a	n/a	n/a	-999	8	[0, 0, 0]	n/a	FR1	1	R1093J
908.918	0.016	940057	START	n/a	n/a	n/a	-999	10	[-999, -999, -999]	n/a	FR1	1	R1093J
908.934	5.634	940073	PROB	5.634	n/a	n/a	-999	10	[1, 7, 1]	9	FR1	1	R1093J
914.568	13.585	945556	PROB	13.585	n/a	n/a	-999	10	[6, 8, 4]	18	FR1	1	R1093J
928.153	6.345	958778	PROB	6.345	n/a	n/a	-999	10	[7, 9, 7]	23	FR1	1	R1093J
934.498	0.006	964953	STOP	n/a	n/a	n/a	-999	10	[-999, -999, -999]	n/a	FR1	1	R1093J
934.504	1.034	964959	DISTRACT_END	n/a	n/a	n/a	-999	8	[0, 0, 0]	n/a	FR1	1	R1093J
935.538	1.592	965965	REC_START	n/a	n/a	n/a	-999	8	[0, 0, 0]	n/a	FR1	1	R1093J
937.13	1.778	967514	REC_WORD	1.778	n/a	SOAP	-999	8	[0, 0, 0]	n/a	FR1	1	R1093J
938.908	1.761	969245	REC_WORD	1.761	n/a	GRAPE	-999	8	[0, 0, 0]	n/a	FR1	1	R1093J
940.669	3.626	970959	REC_WORD	3.626	n/a	FRUIT	-999	8	[0, 0, 0]	n/a	FR1	1	R1093J
944.295	21.26	974488	REC_WORD	21.26	n/a	JUICE	-999	8	[0, 0, 0]	n/a	FR1	1	R1093J
965.555	4.87	995179	REC_END	n/a	n/a	n/a	-999	8	[0, 0, 0]	n/a	FR1	1	R1093J
970.425	0.001	999918	COUNTDOWN_START	n/a	n/a	n/a	-999	9	[0, 0, 0]	n/a	FR1	1	R1093J
970.426	10.427	999919	TRIAL	n/a	n/a	n/a	-999	9	[0, 0, 0]	n/a	FR1	1	R1093J
980.853	0.006	1010067	COUNTDOWN_END	n/a	n/a	n/a	-999	9	[0, 0, 0]	n/a	FR1	1	R1093J
980.859	2.401	1010073	ORIENT	n/a	n/a	n/a	-999	9	[0, 0, 0]	n/a	FR1	1	R1093J
983.26	2.566	1012410	WORD	n/a	wordpools/wordpool_EN.txt	CAT	1	9	[0, 0, 0]	n/a	FR1	1	R1093J
985.826	2.534	1014907	WORD	n/a	wordpools/wordpool_EN.txt	TANK	2	9	[0, 0, 0]	n/a	FR1	1	R1093J
988.36	2.518	1017373	WORD	n/a	wordpools/wordpool_EN.txt	BOAT	3	9	[0, 0, 0]	n/a	FR1	1	R1093J
990.878	2.55	1019824	WORD	n/a	wordpools/wordpool_EN.txt	SPARK	4	9	[0, 0, 0]	n/a	FR1	1	R1093J
993.428	2.433	1022306	WORD	n/a	wordpools/wordpool_EN.txt	WORM	5	9	[0, 0, 0]	n/a	FR1	1	R1093J
995.861	2.568	1024674	WORD	n/a	wordpools/wordpool_EN.txt	HOSE	6	9	[0, 0, 0]	n/a	FR1	1	R1093J
998.429	2.432	1027173	WORD	n/a	wordpools/wordpool_EN.txt	TRASH	7	9	[0, 0, 0]	n/a	FR1	1	R1093J
1000.861	2.535	1029540	WORD	n/a	wordpools/wordpool_EN.txt	KITE	8	9	[0, 0, 0]	n/a	FR1	1	R1093J
1003.396	2.517	1032007	WORD	n/a	wordpools/wordpool_EN.txt	FISH	9	9	[0, 0, 0]	n/a	FR1	1	R1093J
1005.913	2.467	1034457	WORD	n/a	wordpools/wordpool_EN.txt	WHEEL	10	9	[0, 0, 0]	n/a	FR1	1	R1093J
1008.38	2.55	1036858	WORD	n/a	wordpools/wordpool_EN.txt	DOG	11	9	[0, 0, 0]	n/a	FR1	1	R1093J
1010.93	1.617	1039339	WORD	n/a	wordpools/wordpool_EN.txt	LAND	12	9	[0, 0, 0]	n/a	FR1	1	R1093J
1012.547	0.001	1040913	DISTRACT_START	n/a	n/a	n/a	-999	9	[0, 0, 0]	n/a	FR1	1	R1093J
1012.548	0.016	1040914	START	n/a	n/a	n/a	-999	11	[-999, -999, -999]	n/a	FR1	1	R1093J
1012.564	8.418	1040930	PROB	8.418	n/a	n/a	-999	11	[7, 6, 3]	16	FR1	1	R1093J
1020.982	4.584	1049122	PROB	4.584	n/a	n/a	-999	11	[3, 1, 8]	12	FR1	1	R1093J
1025.566	4.7	1053584	PROB	4.7	n/a	n/a	-999	11	[3, 1, 2]	6	FR1	1	R1093J
1030.266	6.06	1058158	PROB	6.06	n/a	n/a	-999	11	[6, 3, 8]	17	FR1	1	R1093J
1036.326	0.008	1064056	STOP	n/a	n/a	n/a	-999	11	[-999, -999, -999]	n/a	FR1	1	R1093J
1036.334	1.218	1064064	DISTRACT_END	n/a	n/a	n/a	-999	9	[0, 0, 0]	n/a	FR1	1	R1093J
1037.552	1.871	1065249	REC_START	n/a	n/a	n/a	-999	9	[0, 0, 0]	n/a	FR1	1	R1093J
1039.423	1.34	1067070	REC_WORD	1.34	n/a	CAT	-999	9	[0, 0, 0]	n/a	FR1	1	R1093J
1040.763	1.833	1068374	REC_WORD	1.833	n/a	DOG	-999	9	[0, 0, 0]	n/a	FR1	1	R1093J
1042.596	2.4	1070158	REC_WORD	2.4	n/a	TANK	-999	9	[0, 0, 0]	n/a	FR1	1	R1093J
1044.996	22.568	1072494	REC_WORD	22.568	n/a	FISH	-999	9	[0, 0, 0]	n/a	FR1	1	R1093J
1067.564	3.757	1094458	REC_END	n/a	n/a	n/a	-999	9	[0, 0, 0]	n/a	FR1	1	R1093J
1071.321	0.001	1098114	COUNTDOWN_START	n/a	n/a	n/a	-999	10	[0, 0, 0]	n/a	FR1	1	R1093J
1071.322	10.427	1098115	TRIAL	n/a	n/a	n/a	-999	10	[0, 0, 0]	n/a	FR1	1	R1093J
1081.749	0.006	1108263	COUNTDOWN_END	n/a	n/a	n/a	-999	10	[0, 0, 0]	n/a	FR1	1	R1093J
1081.755	2.552	1108269	ORIENT	n/a	n/a	n/a	-999	10	[0, 0, 0]	n/a	FR1	1	R1093J
1084.307	2.416	1110753	WORD	n/a	wordpools/wordpool_EN.txt	SEAL	1	10	[0, 0, 0]	n/a	FR1	1	R1093J
1086.723	2.451	1113104	WORD	n/a	wordpools/wordpool_EN.txt	GOLD	2	10	[0, 0, 0]	n/a	FR1	1	R1093J
1089.174	2.4	1115490	WORD	n/a	wordpools/wordpool_EN.txt	GUARD	3	10	[0, 0, 0]	n/a	FR1	1	R1093J
1091.574	2.5	1117825	WORD	n/a	wordpools/wordpool_EN.txt	NAIL	4	10	[0, 0, 0]	n/a	FR1	1	R1093J
1094.074	2.55	1120258	WORD	n/a	wordpools/wordpool_EN.txt	SQUARE	5	10	[0, 0, 0]	n/a	FR1	1	R1093J
1096.624	2.401	1122740	WORD	n/a	wordpools/wordpool_EN.txt	CAPE	6	10	[0, 0, 0]	n/a	FR1	1	R1093J
1099.025	2.517	1125077	WORD	n/a	wordpools/wordpool_EN.txt	TOOL	7	10	[0, 0, 0]	n/a	FR1	1	R1093J
1101.542	2.45	1127527	WORD	n/a	wordpools/wordpool_EN.txt	CROWN	8	10	[0, 0, 0]	n/a	FR1	1	R1093J
1103.992	2.518	1129911	WORD	n/a	wordpools/wordpool_EN.txt	SWORD	9	10	[0, 0, 0]	n/a	FR1	1	R1093J
1106.51	2.433	1132362	WORD	n/a	wordpools/wordpool_EN.txt	HAND	10	10	[0, 0, 0]	n/a	FR1	1	R1093J
1108.943	2.584	1134730	WORD	n/a	wordpools/wordpool_EN.txt	BLUSH	11	10	[0, 0, 0]	n/a	FR1	1	R1093J
1111.527	1.617	1137244	WORD	n/a	wordpools/wordpool_EN.txt	PIT	12	10	[0, 0, 0]	n/a	FR1	1	R1093J
1113.144	0.0	1138818	DISTRACT_START	n/a	n/a	n/a	-999	10	[0, 0, 0]	n/a	FR1	1	R1093J
1113.144	0.016	1138818	START	n/a	n/a	n/a	-999	12	[-999, -999, -999]	n/a	FR1	1	R1093J
1113.16	6.984	1138834	PROB	6.984	n/a	n/a	-999	12	[3, 4, 3]	10	FR1	1	R1093J
1120.144	8.433	1145631	PROB	8.433	n/a	n/a	-999	12	[4, 6, 7]	17	FR1	1	R1093J
1128.577	5.841	1153838	PROB	5.841	n/a	n/a	-999	12	[7, 2, 6]	15	FR1	1	R1093J
1134.418	0.011	1159523	STOP	n/a	n/a	n/a	-999	12	[-999, -999, -999]	n/a	FR1	1	R1093J
1134.429	1.085	1159534	DISTRACT_END	n/a	n/a	n/a	-999	10	[0, 0, 0]	n/a	FR1	1	R1093J
1135.514	2.392	1160589	REC_START	n/a	n/a	n/a	-999	10	[0, 0, 0]	n/a	FR1	1	R1093J
1137.906	1.59	1162917	REC_WORD	1.59	n/a	GOLD	-999	10	[0, 0, 0]	n/a	FR1	1	R1093J
1139.496	2.406	1164465	REC_WORD	2.406	n/a	GUARD	-999	10	[0, 0, 0]	n/a	FR1	1	R1093J
1141.902	2.815	1166807	REC_WORD	2.815	n/a	CAPE	-999	10	[0, 0, 0]	n/a	FR1	1	R1093J
1144.717	2.658	1169546	REC_WORD	2.658	n/a	HAND	-999	10	[0, 0, 0]	n/a	FR1	1	R1093J
1147.375	18.15	1172133	REC_WORD	18.15	n/a	NAIL	-999	10	[0, 0, 0]	n/a	FR1	1	R1093J
1165.525	3.359	1189797	REC_END	n/a	n/a	n/a	-999	10	[0, 0, 0]	n/a	FR1	1	R1093J
1168.884	0.0	1193067	TRIAL	n/a	n/a	n/a	-999	11	[0, 0, 0]	n/a	FR1	1	R1093J
1168.884	10.428	1193067	COUNTDOWN_START	n/a	n/a	n/a	-999	11	[0, 0, 0]	n/a	FR1	1	R1093J
1179.312	0.007	1203215	COUNTDOWN_END	n/a	n/a	n/a	-999	11	[0, 0, 0]	n/a	FR1	1	R1093J
1179.319	2.516	1203222	ORIENT	n/a	n/a	n/a	-999	11	[0, 0, 0]	n/a	FR1	1	R1093J
1181.835	2.568	1205671	WORD	n/a	wordpools/wordpool_EN.txt	HILL	1	11	[0, 0, 0]	n/a	FR1	1	R1093J
1184.403	2.483	1208170	WORD	n/a	wordpools/wordpool_EN.txt	CLOUD	2	11	[0, 0, 0]	n/a	FR1	1	R1093J
1186.886	2.551	1210587	WORD	n/a	wordpools/wordpool_EN.txt	SHOE	3	11	[0, 0, 0]	n/a	FR1	1	R1093J
1189.437	2.399	1213069	WORD	n/a	wordpools/wordpool_EN.txt	BOX	4	11	[0, 0, 0]	n/a	FR1	1	R1093J
1191.836	2.534	1215404	WORD	n/a	wordpools/wordpool_EN.txt	RICE	5	11	[0, 0, 0]	n/a	FR1	1	R1093J
1194.37	2.483	1217870	WORD	n/a	wordpools/wordpool_EN.txt	TOAST	6	11	[0, 0, 0]	n/a	FR1	1	R1093J
1196.853	2.468	1220287	WORD	n/a	wordpools/wordpool_EN.txt	RAIN	7	11	[0, 0, 0]	n/a	FR1	1	R1093J
1199.321	2.516	1222689	WORD	n/a	wordpools/wordpool_EN.txt	ELF	8	11	[0, 0, 0]	n/a	FR1	1	R1093J
1201.837	2.418	1225138	WORD	n/a	wordpools/wordpool_EN.txt	FILM	9	11	[0, 0, 0]	n/a	FR1	1	R1093J
1204.255	2.483	1227491	WORD	n/a	wordpools/wordpool_EN.txt	CHIN	10	11	[0, 0, 0]	n/a	FR1	1	R1093J
1206.738	2.451	1229908	WORD	n/a	wordpools/wordpool_EN.txt	SWAMP	11	11	[0, 0, 0]	n/a	FR1	1	R1093J
1209.189	1.616	1232293	WORD	n/a	wordpools/wordpool_EN.txt	SALT	12	11	[0, 0, 0]	n/a	FR1	1	R1093J
1210.805	0.001	1233866	DISTRACT_START	n/a	n/a	n/a	-999	11	[0, 0, 0]	n/a	FR1	1	R1093J
1210.806	0.016	1233867	START	n/a	n/a	n/a	-999	13	[-999, -999, -999]	n/a	FR1	1	R1093J
1210.822	8.135	1233882	PROB	8.135	n/a	n/a	-999	13	[5, 1, 7]	13	FR1	1	R1093J
1218.957	3.633	1241800	PROB	3.633	n/a	n/a	-999	13	[1, 2, 9]	12	FR1	1	R1093J
1222.59	6.785	1245335	PROB	6.785	n/a	n/a	-999	13	[4, 9, 5]	18	FR1	1	R1093J
1229.375	3.831	1251939	PROB	3.831	n/a	n/a	-999	13	[5, 1, 1]	7	FR1	1	R1093J
1233.206	0.02	1255667	STOP	n/a	n/a	n/a	-999	13	[-999, -999, -999]	n/a	FR1	1	R1093J
1233.226	1.134	1255687	DISTRACT_END	n/a	n/a	n/a	-999	11	[0, 0, 0]	n/a	FR1	1	R1093J
1234.36	1.618	1256790	REC_START	n/a	n/a	n/a	-999	11	[0, 0, 0]	n/a	FR1	1	R1093J
1235.978	1.508	1258365	REC_WORD	1.508	n/a	HILL	-999	11	[0, 0, 0]	n/a	FR1	1	R1093J
1237.486	2.25	1259833	REC_WORD	2.25	n/a	CLOUD	-999	11	[0, 0, 0]	n/a	FR1	1	R1093J
1239.736	3.697	1262022	REC_WORD	3.697	n/a	SHOE	-999	11	[0, 0, 0]	n/a	FR1	1	R1093J
1243.433	19.318	1265621	REC_WORD	19.318	n/a	BOX	-999	11	[0, 0, 0]	n/a	FR1	1	R1093J
1262.751	1.621	1284422	REC_WORD	1.621	n/a	RAIN	-999	11	[0, 0, 0]	n/a	FR1	1	R1093J
1264.372	4.991	1285999	REC_END	n/a	n/a	n/a	-999	11	[0, 0, 0]	n/a	FR1	1	R1093J
1269.363	0.001	1290857	COUNTDOWN_START	n/a	n/a	n/a	-999	12	[0, 0, 0]	n/a	FR1	1	R1093J
1269.364	10.427	1290858	TRIAL	n/a	n/a	n/a	-999	12	[0, 0, 0]	n/a	FR1	1	R1093J
1279.791	0.006	1301006	COUNTDOWN_END	n/a	n/a	n/a	-999	12	[0, 0, 0]	n/a	FR1	1	R1093J
1279.797	2.402	1301011	ORIENT	n/a	n/a	n/a	-999	12	[0, 0, 0]	n/a	FR1	1	R1093J
1282.199	2.566	1303349	WORD	n/a	wordpools/wordpool_EN.txt	BRUSH	1	12	[0, 0, 0]	n/a	FR1	1	R1093J
1284.765	2.468	1305846	WORD	n/a	wordpools/wordpool_EN.txt	FLAME	2	12	[0, 0, 0]	n/a	FR1	1	R1093J
1287.233	2.549	1308248	WORD	n/a	wordpools/wordpool_EN.txt	STICK	3	12	[0, 0, 0]	n/a	FR1	1	R1093J
1289.782	2.418	1310729	WORD	n/a	wordpools/wordpool_EN.txt	ROSE	4	12	[0, 0, 0]	n/a	FR1	1	R1093J
1292.2	2.433	1313083	WORD	n/a	wordpools/wordpool_EN.txt	POND	5	12	[0, 0, 0]	n/a	FR1	1	R1093J
1294.633	2.618	1315450	WORD	n/a	wordpools/wordpool_EN.txt	PARK	6	12	[0, 0, 0]	n/a	FR1	1	R1093J
1297.251	2.549	1317998	WORD	n/a	wordpools/wordpool_EN.txt	SLIME	7	12	[0, 0, 0]	n/a	FR1	1	R1093J
1299.8	2.384	1320479	WORD	n/a	wordpools/wordpool_EN.txt	DEER	8	12	[0, 0, 0]	n/a	FR1	1	R1093J
1302.184	2.483	1322799	WORD	n/a	wordpools/wordpool_EN.txt	LIP	9	12	[0, 0, 0]	n/a	FR1	1	R1093J
1304.667	2.435	1325216	WORD	n/a	wordpools/wordpool_EN.txt	MAT	10	12	[0, 0, 0]	n/a	FR1	1	R1093J
1307.102	2.516	1327586	WORD	n/a	wordpools/wordpool_EN.txt	CLIFF	11	12	[0, 0, 0]	n/a	FR1	1	R1093J
1309.618	1.618	1330034	WORD	n/a	wordpools/wordpool_EN.txt	JAR	12	12	[0, 0, 0]	n/a	FR1	1	R1093J
1311.236	0.0	1331609	DISTRACT_START	n/a	n/a	n/a	-999	12	[0, 0, 0]	n/a	FR1	1	R1093J
1311.236	0.016	1331609	START	n/a	n/a	n/a	-999	14	[-999, -999, -999]	n/a	FR1	1	R1093J
1311.252	5.251	1331625	PROB	5.251	n/a	n/a	-999	14	[4, 5, 6]	15	FR1	1	R1093J
1316.503	7.367	1336735	PROB	7.367	n/a	n/a	-999	14	[9, 8, 8]	25	FR1	1	R1093J
1323.87	4.101	1343905	PROB	4.101	n/a	n/a	-999	14	[6, 3, 3]	12	FR1	1	R1093J
1327.971	14.078	1347896	PROB	14.078	n/a	n/a	-999	14	[9, 5, 7]	21	FR1	1	R1093J
1342.049	0.007	1361598	STOP	n/a	n/a	n/a	-999	14	[-999, -999, -999]	n/a	FR1	1	R1093J
1342.056	1.168	1361604	DISTRACT_END	n/a	n/a	n/a	-999	12	[0, 0, 0]	n/a	FR1	1	R1093J
1343.224	3.786	1362741	REC_START	n/a	n/a	n/a	-999	12	[0, 0, 0]	n/a	FR1	1	R1093J
1347.01	1.347	1366426	REC_WORD	1.347	n/a	BLUSH	-999	12	[0, 0, 0]	n/a	FR1	1	R1093J
1348.357	2.764	1367737	REC_WORD	2.764	n/a	FLAME	-999	12	[0, 0, 0]	n/a	FR1	1	R1093J
1351.121	4.838	1370427	REC_WORD	4.838	n/a	ROSE	-999	12	[0, 0, 0]	n/a	FR1	1	R1093J
1355.959	17.277	1375135	REC_WORD_VV	17.277	n/a	<>	-999	12	[0, 0, 0]	n/a	FR1	1	R1093J
1373.236	10.109	1391950	REC_END	n/a	n/a	n/a	-999	12	[0, 0, 0]	n/a	FR1	1	R1093J
1383.345	0.0	1401788	TRIAL	n/a	n/a	n/a	-999	13	[0, 0, 0]	n/a	FR1	1	R1093J
1383.345	10.428	1401788	COUNTDOWN_START	n/a	n/a	n/a	-999	13	[0, 0, 0]	n/a	FR1	1	R1093J
1393.773	0.006	1411937	COUNTDOWN_END	n/a	n/a	n/a	-999	13	[0, 0, 0]	n/a	FR1	1	R1093J
1393.779	2.401	1411943	ORIENT	n/a	n/a	n/a	-999	13	[0, 0, 0]	n/a	FR1	1	R1093J
1396.18	2.616	1414280	WORD	n/a	wordpools/wordpool_EN.txt	HAWK	1	13	[0, 0, 0]	n/a	FR1	1	R1093J
1398.796	2.551	1416826	WORD	n/a	wordpools/wordpool_EN.txt	BEE	2	13	[0, 0, 0]	n/a	FR1	1	R1093J
1401.347	2.482	1419309	WORD	n/a	wordpools/wordpool_EN.txt	SEAT	3	13	[0, 0, 0]	n/a	FR1	1	R1093J
1403.829	2.468	1421724	WORD	n/a	wordpools/wordpool_EN.txt	CORN	4	13	[0, 0, 0]	n/a	FR1	1	R1093J
1406.297	2.584	1424126	WORD	n/a	wordpools/wordpool_EN.txt	COW	5	13	[0, 0, 0]	n/a	FR1	1	R1093J
1408.881	2.551	1426641	WORD	n/a	wordpools/wordpool_EN.txt	BARN	6	13	[0, 0, 0]	n/a	FR1	1	R1093J
1411.432	2.382	1429124	WORD	n/a	wordpools/wordpool_EN.txt	OWL	7	13	[0, 0, 0]	n/a	FR1	1	R1093J
1413.814	2.535	1431442	WORD	n/a	wordpools/wordpool_EN.txt	PET	8	13	[0, 0, 0]	n/a	FR1	1	R1093J
1416.349	2.6	1433909	WORD	n/a	wordpools/wordpool_EN.txt	LAMB	9	13	[0, 0, 0]	n/a	FR1	1	R1093J
1418.949	2.584	1436440	WORD	n/a	wordpools/wordpool_EN.txt	SKY	10	13	[0, 0, 0]	n/a	FR1	1	R1093J
1421.533	2.5	1438954	WORD	n/a	wordpools/wordpool_EN.txt	FLEA	11	13	[0, 0, 0]	n/a	FR1	1	R1093J
1424.033	1.616	1441388	WORD	n/a	wordpools/wordpool_EN.txt	EEL	12	13	[0, 0, 0]	n/a	FR1	1	R1093J
1425.649	0.001	1442960	DISTRACT_START	n/a	n/a	n/a	-999	13	[0, 0, 0]	n/a	FR1	1	R1093J
1425.65	0.016	1442961	START	n/a	n/a	n/a	-999	15	[-999, -999, -999]	n/a	FR1	1	R1093J
1425.666	9.236	1442977	PROB	9.236	n/a	n/a	-999	15	[5, 4, 1]	10	FR1	1	R1093J
1434.902	11.328	1451966	PROB	11.328	n/a	n/a	-999	15	[8, 6, 3]	17	FR1	1	R1093J
1446.23	0.006	1462991	STOP	n/a	n/a	n/a	-999	15	[-999, -999, -999]	n/a	FR1	1	R1093J
1446.236	1.034	1462996	DISTRACT_END	n/a	n/a	n/a	-999	13	[0, 0, 0]	n/a	FR1	1	R1093J
1447.27	2.73	1464003	REC_START	n/a	n/a	n/a	-999	13	[0, 0, 0]	n/a	FR1	1	R1093J
1450.0	1.978	1466660	REC_WORD	1.978	n/a	HAWK	-999	13	[0, 0, 0]	n/a	FR1	1	R1093J
1451.978	3.198	1468585	REC_WORD	3.198	n/a	BEE	-999	13	[0, 0, 0]	n/a	FR1	1	R1093J
1455.176	2.433	1471697	REC_WORD	2.433	n/a	FLEA	-999	13	[0, 0, 0]	n/a	FR1	1	R1093J
1457.609	19.673	1474065	REC_WORD	19.673	n/a	BARN	-999	13	[0, 0, 0]	n/a	FR1	1	R1093J
1477.282	7.226	1493212	REC_END	n/a	n/a	n/a	-999	13	[0, 0, 0]	n/a	FR1	1	R1093J
1484.508	0.0	1500244	TRIAL	n/a	n/a	n/a	-999	14	[0, 0, 0]	n/a	FR1	1	R1093J
1484.508	10.428	1500244	COUNTDOWN_START	n/a	n/a	n/a	-999	14	[0, 0, 0]	n/a	FR1	1	R1093J
1494.936	0.007	1510393	COUNTDOWN_END	n/a	n/a	n/a	-999	14	[0, 0, 0]	n/a	FR1	1	R1093J
1494.943	2.6	1510400	ORIENT	n/a	n/a	n/a	-999	14	[0, 0, 0]	n/a	FR1	1	R1093J
1497.543	2.55	1512930	WORD	n/a	wordpools/wordpool_EN.txt	MAIL	1	14	[0, 0, 0]	n/a	FR1	1	R1093J
1500.093	2.516	1515412	WORD	n/a	wordpools/wordpool_EN.txt	BANK	2	14	[0, 0, 0]	n/a	FR1	1	R1093J
1502.609	2.401	1517861	WORD	n/a	wordpools/wordpool_EN.txt	STORE	3	14	[0, 0, 0]	n/a	FR1	1	R1093J
1505.01	2.617	1520198	WORD	n/a	wordpools/wordpool_EN.txt	LAWN	4	14	[0, 0, 0]	n/a	FR1	1	R1093J
1507.627	2.567	1522745	WORD	n/a	wordpools/wordpool_EN.txt	PHONE	5	14	[0, 0, 0]	n/a	FR1	1	R1093J
1510.194	2.416	1525243	WORD	n/a	wordpools/wordpool_EN.txt	KEY	6	14	[0, 0, 0]	n/a	FR1	1	R1093J
1512.61	2.369	1527594	WORD	n/a	wordpools/wordpool_EN.txt	FUDGE	7	14	[0, 0, 0]	n/a	FR1	1	R1093J
1514.979	2.567	1529900	WORD	n/a	wordpools/wordpool_EN.txt	CASH	8	14	[0, 0, 0]	n/a	FR1	1	R1093J
1517.546	2.55	1532398	WORD	n/a	wordpools/wordpool_EN.txt	WALL	9	14	[0, 0, 0]	n/a	FR1	1	R1093J
1520.096	2.532	1534880	WORD	n/a	wordpools/wordpool_EN.txt	MILK	10	14	[0, 0, 0]	n/a	FR1	1	R1093J
1522.628	2.435	1537344	WORD	n/a	wordpools/wordpool_EN.txt	FOG	11	14	[0, 0, 0]	n/a	FR1	1	R1093J
1525.063	1.616	1539714	WORD	n/a	wordpools/wordpool_EN.txt	HEART	12	14	[0, 0, 0]	n/a	FR1	1	R1093J
1526.679	0.001	1541287	DISTRACT_START	n/a	n/a	n/a	-999	14	[0, 0, 0]	n/a	FR1	1	R1093J
1526.68	0.016	1541288	START	n/a	n/a	n/a	-999	16	[-999, -999, -999]	n/a	FR1	1	R1093J
1526.696	13.552	1541303	PROB	13.552	n/a	n/a	-999	16	[3, 9, 3]	15	FR1	1	R1093J
1540.248	3.366	1554493	PROB	3.366	n/a	n/a	-999	16	[5, 1, 3]	9	FR1	1	R1093J
1543.614	6.499	1557769	PROB	6.499	n/a	n/a	-999	16	[3, 1, 8]	12	FR1	1	R1093J
1550.113	0.003	1564094	STOP	n/a	n/a	n/a	-999	16	[-999, -999, -999]	n/a	FR1	1	R1093J
1550.116	1.201	1564097	DISTRACT_END	n/a	n/a	n/a	-999	14	[0, 0, 0]	n/a	FR1	1	R1093J
1551.317	1.471	1565265	REC_START	n/a	n/a	n/a	-999	14	[0, 0, 0]	n/a	FR1	1	R1093J
1552.788	2.187	1566697	REC_WORD	2.187	n/a	MAIL	-999	14	[0, 0, 0]	n/a	FR1	1	R1093J
1554.975	2.428	1568826	REC_WORD	2.428	n/a	BANK	-999	14	[0, 0, 0]	n/a	FR1	1	R1093J
1557.403	23.926	1571189	REC_WORD	23.926	n/a	STORE	-999	14	[0, 0, 0]	n/a	FR1	1	R1093J
1581.329	9.092	1594474	REC_END	n/a	n/a	n/a	-999	14	[0, 0, 0]	n/a	FR1	1	R1093J
1590.421	0.001	1603323	COUNTDOWN_START	n/a	n/a	n/a	-999	15	[0, 0, 0]	n/a	FR1	1	R1093J
1590.422	10.427	1603324	TRIAL	n/a	n/a	n/a	-999	15	[0, 0, 0]	n/a	FR1	1	R1093J
1600.849	0.006	1613472	COUNTDOWN_END	n/a	n/a	n/a	-999	15	[0, 0, 0]	n/a	FR1	1	R1093J
1600.855	2.585	1613478	ORIENT	n/a	n/a	n/a	-999	15	[0, 0, 0]	n/a	FR1	1	R1093J
1603.44	2.567	1615994	WORD	n/a	wordpools/wordpool_EN.txt	MUG	1	15	[0, 0, 0]	n/a	FR1	1	R1093J
1606.007	2.416	1618492	WORD	n/a	wordpools/wordpool_EN.txt	TRUCK	2	15	[0, 0, 0]	n/a	FR1	1	R1093J
1608.423	2.468	1620843	WORD	n/a	wordpools/wordpool_EN.txt	STOOL	3	15	[0, 0, 0]	n/a	FR1	1	R1093J
1610.891	2.45	1623245	WORD	n/a	wordpools/wordpool_EN.txt	PURSE	4	15	[0, 0, 0]	n/a	FR1	1	R1093J
1613.341	2.55	1625630	WORD	n/a	wordpools/wordpool_EN.txt	SHELL	5	15	[0, 0, 0]	n/a	FR1	1	R1093J
1615.891	2.384	1628111	WORD	n/a	wordpools/wordpool_EN.txt	PEARL	6	15	[0, 0, 0]	n/a	FR1	1	R1093J
1618.275	2.482	1630432	WORD	n/a	wordpools/wordpool_EN.txt	MAZE	7	15	[0, 0, 0]	n/a	FR1	1	R1093J
1620.757	2.568	1632847	WORD	n/a	wordpools/wordpool_EN.txt	FLOOR	8	15	[0, 0, 0]	n/a	FR1	1	R1093J
1623.325	2.617	1635346	WORD	n/a	wordpools/wordpool_EN.txt	VAN	9	15	[0, 0, 0]	n/a	FR1	1	R1093J
1625.942	2.484	1637893	WORD	n/a	wordpools/wordpool_EN.txt	HOOK	10	15	[0, 0, 0]	n/a	FR1	1	R1093J
1628.426	2.534	1640311	WORD	n/a	wordpools/wordpool_EN.txt	PEA	11	15	[0, 0, 0]	n/a	FR1	1	R1093J
1630.96	1.616	1642777	WORD	n/a	wordpools/wordpool_EN.txt	CLOWN	12	15	[0, 0, 0]	n/a	FR1	1	R1093J
1632.576	0.001	1644350	DISTRACT_START	n/a	n/a	n/a	-999	15	[0, 0, 0]	n/a	FR1	1	R1093J
1632.577	0.015	1644351	START	n/a	n/a	n/a	-999	17	[-999, -999, -999]	n/a	FR1	1	R1093J
1632.592	12.336	1644365	PROB	12.336	n/a	n/a	-999	17	[1, 1, 7]	9	FR1	1	R1093J
1644.928	5.401	1656371	PROB	5.401	n/a	n/a	-999	17	[4, 1, 5]	10	FR1	1	R1093J
1650.329	6.004	1661628	PROB	6.004	n/a	n/a	-999	17	[6, 3, 9]	18	FR1	1	R1093J
1656.333	0.014	1667471	STOP	n/a	n/a	n/a	-999	17	[-999, -999, -999]	n/a	FR1	1	R1093J
1656.347	1.1	1667485	DISTRACT_END	n/a	n/a	n/a	-999	15	[0, 0, 0]	n/a	FR1	1	R1093J
1657.447	1.96	1668555	REC_START	n/a	n/a	n/a	-999	15	[0, 0, 0]	n/a	FR1	1	R1093J
1659.407	1.929	1670463	REC_WORD	1.929	n/a	MUG	-999	15	[0, 0, 0]	n/a	FR1	1	R1093J
1661.336	2.794	1672340	REC_WORD	2.794	n/a	STOOL	-999	15	[0, 0, 0]	n/a	FR1	1	R1093J
1664.13	4.702	1675059	REC_WORD	4.702	n/a	FLOOR	-999	15	[0, 0, 0]	n/a	FR1	1	R1093J
1668.832	18.632	1679636	REC_WORD	18.632	n/a	PEA	-999	15	[0, 0, 0]	n/a	FR1	1	R1093J
1687.464	2.637	1697769	REC_END	n/a	n/a	n/a	-999	15	[0, 0, 0]	n/a	FR1	1	R1093J
1690.101	0.0	1700335	TRIAL	n/a	n/a	n/a	-999	16	[0, 0, 0]	n/a	FR1	1	R1093J
1690.101	10.428	1700335	COUNTDOWN_START	n/a	n/a	n/a	-999	16	[0, 0, 0]	n/a	FR1	1	R1093J
1700.529	0.006	1710484	COUNTDOWN_END	n/a	n/a	n/a	-999	16	[0, 0, 0]	n/a	FR1	1	R1093J
1700.535	2.417	1710490	ORIENT	n/a	n/a	n/a	-999	16	[0, 0, 0]	n/a	FR1	1	R1093J
1702.952	2.501	1712843	WORD	n/a	wordpools/wordpool_EN.txt	TEA	1	16	[0, 0, 0]	n/a	FR1	1	R1093J
1705.453	2.467	1715277	WORD	n/a	wordpools/wordpool_EN.txt	SHRIMP	2	16	[0, 0, 0]	n/a	FR1	1	R1093J
1707.92	2.5	1717678	WORD	n/a	wordpools/wordpool_EN.txt	LAMP	3	16	[0, 0, 0]	n/a	FR1	1	R1093J
1710.42	2.467	1720111	WORD	n/a	wordpools/wordpool_EN.txt	SUIT	4	16	[0, 0, 0]	n/a	FR1	1	R1093J
1712.887	2.534	1722512	WORD	n/a	wordpools/wordpool_EN.txt	FOOD	5	16	[0, 0, 0]	n/a	FR1	1	R1093J
1715.421	2.567	1724978	WORD	n/a	wordpools/wordpool_EN.txt	TOE	6	16	[0, 0, 0]	n/a	FR1	1	R1093J
1717.988	2.383	1727476	WORD	n/a	wordpools/wordpool_EN.txt	HOOF	7	16	[0, 0, 0]	n/a	FR1	1	R1093J
1720.371	2.517	1729795	WORD	n/a	wordpools/wordpool_EN.txt	ROOT	8	16	[0, 0, 0]	n/a	FR1	1	R1093J
1722.888	2.384	1732245	WORD	n/a	wordpools/wordpool_EN.txt	BEAN	9	16	[0, 0, 0]	n/a	FR1	1	R1093J
1725.272	2.416	1734565	WORD	n/a	wordpools/wordpool_EN.txt	RAKE	10	16	[0, 0, 0]	n/a	FR1	1	R1093J
1727.688	2.451	1736917	WORD	n/a	wordpools/wordpool_EN.txt	SOCK	11	16	[0, 0, 0]	n/a	FR1	1	R1093J
1730.139	1.616	1739302	WORD	n/a	wordpools/wordpool_EN.txt	BATH	12	16	[0, 0, 0]	n/a	FR1	1	R1093J
1731.755	0.001	1740875	DISTRACT_START	n/a	n/a	n/a	-999	16	[0, 0, 0]	n/a	FR1	1	R1093J
1731.756	0.016	1740876	START	n/a	n/a	n/a	-999	18	[-999, -999, -999]	n/a	FR1	1	R1093J
1731.772	10.435	1740891	PROB	10.435	n/a	n/a	-999	18	[9, 8, 9]	26	FR1	1	R1093J
1742.207	12.369	1751047	PROB	12.369	n/a	n/a	-999	18	[1, 7, 4]	12	FR1	1	R1093J
1754.576	0.015	1763085	STOP	n/a	n/a	n/a	-999	18	[-999, -999, -999]	n/a	FR1	1	R1093J
1754.591	1.201	1763100	DISTRACT_END	n/a	n/a	n/a	-999	16	[0, 0, 0]	n/a	FR1	1	R1093J
1755.792	1.438	1764269	REC_START	n/a	n/a	n/a	-999	16	[0, 0, 0]	n/a	FR1	1	R1093J
1757.23	1.632	1765668	REC_WORD	1.632	n/a	TEA	-999	16	[0, 0, 0]	n/a	FR1	1	R1093J
1758.862	2.604	1767256	REC_WORD	2.604	n/a	SHRIMP	-999	16	[0, 0, 0]	n/a	FR1	1	R1093J
1761.466	4.015	1769791	REC_WORD	4.015	n/a	LAMP	-999	16	[0, 0, 0]	n/a	FR1	1	R1093J
1765.481	2.865	1773698	REC_WORD	2.865	n/a	TOE	-999	16	[0, 0, 0]	n/a	FR1	1	R1093J
1768.346	17.457	1776487	REC_WORD	17.457	n/a	SOCK	-999	16	[0, 0, 0]	n/a	FR1	1	R1093J
1785.803	5.077	1793476	REC_END	n/a	n/a	n/a	-999	16	[0, 0, 0]	n/a	FR1	1	R1093J
1790.88	0.0	1798418	TRIAL	n/a	n/a	n/a	-999	17	[0, 0, 0]	n/a	FR1	1	R1093J
1790.88	10.428	1798418	COUNTDOWN_START	n/a	n/a	n/a	-999	17	[0, 0, 0]	n/a	FR1	1	R1093J
1801.308	0.007	1808567	COUNTDOWN_END	n/a	n/a	n/a	-999	17	[0, 0, 0]	n/a	FR1	1	R1093J
1801.315	2.399	1808573	ORIENT	n/a	n/a	n/a	-999	17	[0, 0, 0]	n/a	FR1	1	R1093J
1803.714	2.402	1810908	WORD	n/a	wordpools/wordpool_EN.txt	TRAY	1	17	[0, 0, 0]	n/a	FR1	1	R1093J
1806.116	2.45	1813246	WORD	n/a	wordpools/wordpool_EN.txt	SPOON	2	17	[0, 0, 0]	n/a	FR1	1	R1093J
1808.566	2.567	1815630	WORD	n/a	wordpools/wordpool_EN.txt	TIE	3	17	[0, 0, 0]	n/a	FR1	1	R1093J
1811.133	2.516	1818129	WORD	n/a	wordpools/wordpool_EN.txt	FROG	4	17	[0, 0, 0]	n/a	FR1	1	R1093J
1813.649	2.584	1820577	WORD	n/a	wordpools/wordpool_EN.txt	SMILE	5	17	[0, 0, 0]	n/a	FR1	1	R1093J
1816.233	2.483	1823092	WORD	n/a	wordpools/wordpool_EN.txt	FORK	6	17	[0, 0, 0]	n/a	FR1	1	R1093J
1818.716	2.535	1825509	WORD	n/a	wordpools/wordpool_EN.txt	VEST	7	17	[0, 0, 0]	n/a	FR1	1	R1093J
1821.251	2.466	1827976	WORD	n/a	wordpools/wordpool_EN.txt	ARM	8	17	[0, 0, 0]	n/a	FR1	1	R1093J
1823.717	2.468	1830376	WORD	n/a	wordpools/wordpool_EN.txt	BREAD	9	17	[0, 0, 0]	n/a	FR1	1	R1093J
1826.185	2.616	1832778	WORD	n/a	wordpools/wordpool_EN.txt	GOAT	10	17	[0, 0, 0]	n/a	FR1	1	R1093J
1828.801	2.518	1835324	WORD	n/a	wordpools/wordpool_EN.txt	PIE	11	17	[0, 0, 0]	n/a	FR1	1	R1093J
1831.319	1.617	1837774	WORD	n/a	wordpools/wordpool_EN.txt	STEAK	12	17	[0, 0, 0]	n/a	FR1	1	R1093J
1832.936	0.0	1839348	DISTRACT_START	n/a	n/a	n/a	-999	17	[0, 0, 0]	n/a	FR1	1	R1093J
1832.936	0.016	1839348	START	n/a	n/a	n/a	-999	19	[-999, -999, -999]	n/a	FR1	1	R1093J
1832.952	37.428	1839364	PROB	37.428	n/a	n/a	-999	19	[1, 6, 8]	15	FR1	1	R1093J
1870.38	0.01	1875790	STOP	n/a	n/a	n/a	-999	19	[-999, -999, -999]	n/a	FR1	1	R1093J
1870.39	1.068	1875800	DISTRACT_END	n/a	n/a	n/a	-999	17	[0, 0, 0]	n/a	FR1	1	R1093J
1871.458	1.443	1876839	REC_START	n/a	n/a	n/a	-999	17	[0, 0, 0]	n/a	FR1	1	R1093J
1872.901	1.998	1878244	REC_WORD	1.998	n/a	TRAY	-999	17	[0, 0, 0]	n/a	FR1	1	R1093J
1874.899	3.638	1880188	REC_WORD	3.638	n/a	SPOON	-999	17	[0, 0, 0]	n/a	FR1	1	R1093J
1878.537	10.537	1883729	REC_WORD	10.537	n/a	ARM	-999	17	[0, 0, 0]	n/a	FR1	1	R1093J
1889.074	1.262	1893984	REC_WORD	1.262	n/a	TIE	-999	17	[0, 0, 0]	n/a	FR1	1	R1093J
1890.336	0.366	1895212	REC_WORD_VV	0.366	n/a	<>	-999	17	[0, 0, 0]	n/a	FR1	1	R1093J
1890.702	10.768	1895568	REC_WORD	10.768	n/a	PIE	-999	17	[0, 0, 0]	n/a	FR1	1	R1093J
1901.47	3.174	1906048	REC_END	n/a	n/a	n/a	-999	17	[0, 0, 0]	n/a	FR1	1	R1093J
1904.644	0.0	1909137	TRIAL	n/a	n/a	n/a	-999	18	[0, 0, 0]	n/a	FR1	1	R1093J
1904.644	10.428	1909137	COUNTDOWN_START	n/a	n/a	n/a	-999	18	[0, 0, 0]	n/a	FR1	1	R1093J
1915.072	0.008	1919286	COUNTDOWN_END	n/a	n/a	n/a	-999	18	[0, 0, 0]	n/a	FR1	1	R1093J
1915.08	2.383	1919294	ORIENT	n/a	n/a	n/a	-999	18	[0, 0, 0]	n/a	FR1	1	R1093J
1917.463	2.567	1921613	WORD	n/a	wordpools/wordpool_EN.txt	PIPE	1	18	[0, 0, 0]	n/a	FR1	1	R1093J
1920.03	2.484	1924111	WORD	n/a	wordpools/wordpool_EN.txt	STRING	2	18	[0, 0, 0]	n/a	FR1	1	R1093J
1922.514	2.567	1926529	WORD	n/a	wordpools/wordpool_EN.txt	ROOM	3	18	[0, 0, 0]	n/a	FR1	1	R1093J
1925.081	2.516	1929027	WORD	n/a	wordpools/wordpool_EN.txt	DART	4	18	[0, 0, 0]	n/a	FR1	1	R1093J
1927.597	2.417	1931476	WORD	n/a	wordpools/wordpool_EN.txt	BAND	5	18	[0, 0, 0]	n/a	FR1	1	R1093J
1930.014	2.468	1933828	WORD	n/a	wordpools/wordpool_EN.txt	CHEEK	6	18	[0, 0, 0]	n/a	FR1	1	R1093J
1932.482	2.55	1936230	WORD	n/a	wordpools/wordpool_EN.txt	NEST	7	18	[0, 0, 0]	n/a	FR1	1	R1093J
1935.032	2.417	1938712	WORD	n/a	wordpools/wordpool_EN.txt	HAT	8	18	[0, 0, 0]	n/a	FR1	1	R1093J
1937.449	2.434	1941064	WORD	n/a	wordpools/wordpool_EN.txt	DOLL	9	18	[0, 0, 0]	n/a	FR1	1	R1093J
1939.883	2.467	1943433	WORD	n/a	wordpools/wordpool_EN.txt	BIRD	10	18	[0, 0, 0]	n/a	FR1	1	R1093J
1942.35	2.55	1945834	WORD	n/a	wordpools/wordpool_EN.txt	CRANE	11	18	[0, 0, 0]	n/a	FR1	1	R1093J
1944.9	1.617	1948316	WORD	n/a	wordpools/wordpool_EN.txt	TAIL	12	18	[0, 0, 0]	n/a	FR1	1	R1093J
1946.517	0.001	1949890	DISTRACT_START	n/a	n/a	n/a	-999	18	[0, 0, 0]	n/a	FR1	1	R1093J
1946.518	0.016	1949891	START	n/a	n/a	n/a	-999	20	[-999, -999, -999]	n/a	FR1	1	R1093J
1946.534	10.167	1949906	PROB	10.167	n/a	n/a	-999	20	[2, 2, 4]	8	FR1	1	R1093J
1956.701	5.518	1959801	PROB	5.518	n/a	n/a	-999	20	[6, 4, 7]	17	FR1	1	R1093J
1962.219	7.292	1965171	PROB	7.292	n/a	n/a	-999	20	[9, 7, 9]	25	FR1	1	R1093J
1969.511	0.009	1972268	STOP	n/a	n/a	n/a	-999	20	[-999, -999, -999]	n/a	FR1	1	R1093J
1969.52	1.083	1972277	DISTRACT_END	n/a	n/a	n/a	-999	18	[0, 0, 0]	n/a	FR1	1	R1093J
1970.603	1.904	1973331	REC_START	n/a	n/a	n/a	-999	18	[0, 0, 0]	n/a	FR1	1	R1093J
1972.507	1.924	1975184	REC_WORD	1.924	n/a	SPIKE	-999	18	[0, 0, 0]	n/a	FR1	1	R1093J
1974.431	2.295	1977057	REC_WORD	2.295	n/a	CHEEK	-999	18	[0, 0, 0]	n/a	FR1	1	R1093J
1976.726	23.888	1979290	REC_WORD	23.888	n/a	ROOM	-999	18	[0, 0, 0]	n/a	FR1	1	R1093J
2000.614	8.544	2002539	REC_END	n/a	n/a	n/a	-999	18	[0, 0, 0]	n/a	FR1	1	R1093J
2009.158	0.0	2010854	TRIAL	n/a	n/a	n/a	-999	19	[0, 0, 0]	n/a	FR1	1	R1093J
2009.158	10.428	2010854	COUNTDOWN_START	n/a	n/a	n/a	-999	19	[0, 0, 0]	n/a	FR1	1	R1093J
2019.586	0.006	2021003	COUNTDOWN_END	n/a	n/a	n/a	-999	19	[0, 0, 0]	n/a	FR1	1	R1093J
2019.592	2.485	2021009	ORIENT	n/a	n/a	n/a	-999	19	[0, 0, 0]	n/a	FR1	1	R1093J
2022.077	2.566	2023428	WORD	n/a	wordpools/wordpool_EN.txt	STONE	1	19	[0, 0, 0]	n/a	FR1	1	R1093J
2024.643	2.368	2025925	WORD	n/a	wordpools/wordpool_EN.txt	FOAM	2	19	[0, 0, 0]	n/a	FR1	1	R1093J
2027.011	2.416	2028230	WORD	n/a	wordpools/wordpool_EN.txt	CUBE	3	19	[0, 0, 0]	n/a	FR1	1	R1093J
2029.427	2.467	2030581	WORD	n/a	wordpools/wordpool_EN.txt	BEACH	4	19	[0, 0, 0]	n/a	FR1	1	R1093J
2031.894	2.568	2032982	WORD	n/a	wordpools/wordpool_EN.txt	ROOF	5	19	[0, 0, 0]	n/a	FR1	1	R1093J
2034.462	2.417	2035481	WORD	n/a	wordpools/wordpool_EN.txt	CAVE	6	19	[0, 0, 0]	n/a	FR1	1	R1093J
2036.879	2.533	2037834	WORD	n/a	wordpools/wordpool_EN.txt	WEB	7	19	[0, 0, 0]	n/a	FR1	1	R1093J
2039.412	2.617	2040299	WORD	n/a	wordpools/wordpool_EN.txt	HOLE	8	19	[0, 0, 0]	n/a	FR1	1	R1093J
2042.029	2.566	2042846	WORD	n/a	wordpools/wordpool_EN.txt	BUSH	9	19	[0, 0, 0]	n/a	FR1	1	R1093J
2044.595	2.468	2045343	WORD	n/a	wordpools/wordpool_EN.txt	SNAIL	10	19	[0, 0, 0]	n/a	FR1	1	R1093J
2047.063	2.566	2047745	WORD	n/a	wordpools/wordpool_EN.txt	LAKE	11	19	[0, 0, 0]	n/a	FR1	1	R1093J
2049.629	1.601	2050242	WORD	n/a	wordpools/wordpool_EN.txt	SPEAR	12	19	[0, 0, 0]	n/a	FR1	1	R1093J
2051.23	0.001	2051800	DISTRACT_START	n/a	n/a	n/a	-999	19	[0, 0, 0]	n/a	FR1	1	R1093J
2051.231	0.016	2051801	START	n/a	n/a	n/a	-999	21	[-999, -999, -999]	n/a	FR1	1	R1093J
2051.247	6.6	2051817	PROB	6.6	n/a	n/a	-999	21	[5, 5, 6]	16	FR1	1	R1093J
2057.847	18.875	2058240	PROB	18.875	n/a	n/a	-999	21	[9, 4, 7]	20	FR1	1	R1093J
2076.722	0.011	2076610	STOP	n/a	n/a	n/a	-999	21	[-999, -999, -999]	n/a	FR1	1	R1093J
2076.733	1.067	2076621	DISTRACT_END	n/a	n/a	n/a	-999	19	[0, 0, 0]	n/a	FR1	1	R1093J
2077.8	3.99	2077659	REC_START	n/a	n/a	n/a	-999	19	[0, 0, 0]	n/a	FR1	1	R1093J
2081.79	26.027	2081543	REC_WORD	26.027	n/a	STONE	-999	19	[0, 0, 0]	n/a	FR1	1	R1093J
2107.817	2.019	2106873	REC_END	n/a	n/a	n/a	-999	19	[0, 0, 0]	n/a	FR1	1	R1093J
2109.836	0.001	2108838	COUNTDOWN_START	n/a	n/a	n/a	-999	20	[0, 0, 0]	n/a	FR1	1	R1093J
2109.837	10.427	2108839	TRIAL	n/a	n/a	n/a	-999	20	[0, 0, 0]	n/a	FR1	1	R1093J
2120.264	0.008	2118987	COUNTDOWN_END	n/a	n/a	n/a	-999	20	[0, 0, 0]	n/a	FR1	1	R1093J
2120.272	2.617	2118995	ORIENT	n/a	n/a	n/a	-999	20	[0, 0, 0]	n/a	FR1	1	R1093J
2122.889	2.451	2121542	WORD	n/a	wordpools/wordpool_EN.txt	PASTE	1	20	[0, 0, 0]	n/a	FR1	1	R1093J
2125.34	2.616	2123927	WORD	n/a	wordpools/wordpool_EN.txt	PEAR	2	20	[0, 0, 0]	n/a	FR1	1	R1093J
2127.956	2.568	2126473	WORD	n/a	wordpools/wordpool_EN.txt	LEG	3	20	[0, 0, 0]	n/a	FR1	1	R1093J
2130.524	2.584	2128973	WORD	n/a	wordpools/wordpool_EN.txt	APE	4	20	[0, 0, 0]	n/a	FR1	1	R1093J
2133.108	2.482	2131487	WORD	n/a	wordpools/wordpool_EN.txt	CONE	5	20	[0, 0, 0]	n/a	FR1	1	R1093J
2135.59	2.368	2133903	WORD	n/a	wordpools/wordpool_EN.txt	SEED	6	20	[0, 0, 0]	n/a	FR1	1	R1093J
2137.958	2.616	2136208	WORD	n/a	wordpools/wordpool_EN.txt	CLOTH	7	20	[0, 0, 0]	n/a	FR1	1	R1093J
2140.574	2.468	2138754	WORD	n/a	wordpools/wordpool_EN.txt	LEAF	8	20	[0, 0, 0]	n/a	FR1	1	R1093J
2143.042	2.517	2141156	WORD	n/a	wordpools/wordpool_EN.txt	RAT	9	20	[0, 0, 0]	n/a	FR1	1	R1093J
2145.559	2.567	2143605	WORD	n/a	wordpools/wordpool_EN.txt	WING	10	20	[0, 0, 0]	n/a	FR1	1	R1093J
2148.126	2.566	2146103	WORD	n/a	wordpools/wordpool_EN.txt	CHIEF	11	20	[0, 0, 0]	n/a	FR1	1	R1093J
2150.692	1.601	2148601	WORD	n/a	wordpools/wordpool_EN.txt	PLANT	12	20	[0, 0, 0]	n/a	FR1	1	R1093J
2152.293	0.001	2150159	DISTRACT_START	n/a	n/a	n/a	-999	20	[0, 0, 0]	n/a	FR1	1	R1093J
2152.294	0.016	2150160	START	n/a	n/a	n/a	-999	22	[-999, -999, -999]	n/a	FR1	1	R1093J
2152.31	10.55	2150176	PROB	10.55	n/a	n/a	-999	22	[5, 6, 2]	13	FR1	1	R1093J
2162.86	4.734	2160443	PROB	4.734	n/a	n/a	-999	22	[8, 6, 2]	16	FR1	1	R1093J
2167.594	10.454	2165051	PROB	10.454	n/a	n/a	-999	22	[5, 9, 3]	17	FR1	1	R1093J
2178.048	0.015	2175225	STOP	n/a	n/a	n/a	-999	22	[-999, -999, -999]	n/a	FR1	1	R1093J
2178.063	1.151	2175239	DISTRACT_END	n/a	n/a	n/a	-999	20	[0, 0, 0]	n/a	FR1	1	R1093J
2179.214	1.569	2176360	REC_START	n/a	n/a	n/a	-999	20	[0, 0, 0]	n/a	FR1	1	R1093J
2180.783	1.484	2177887	REC_WORD	1.484	n/a	PASTE	-999	20	[0, 0, 0]	n/a	FR1	1	R1093J
2182.267	2.42	2179331	REC_WORD	2.42	n/a	PEAR	-999	20	[0, 0, 0]	n/a	FR1	1	R1093J
2184.687	2.529	2181686	REC_WORD	2.529	n/a	LEG	-999	20	[0, 0, 0]	n/a	FR1	1	R1093J
2187.216	22.01	2184147	REC_WORD	22.01	n/a	LEAF	-999	20	[0, 0, 0]	n/a	FR1	1	R1093J
2209.226	4.591	2205568	REC_END	n/a	n/a	n/a	-999	20	[0, 0, 0]	n/a	FR1	1	R1093J
2213.817	0.0	2210037	TRIAL	n/a	n/a	n/a	-999	21	[0, 0, 0]	n/a	FR1	1	R1093J
2213.817	10.428	2210037	COUNTDOWN_START	n/a	n/a	n/a	-999	21	[0, 0, 0]	n/a	FR1	1	R1093J
2224.245	0.008	2220186	COUNTDOWN_END	n/a	n/a	n/a	-999	21	[0, 0, 0]	n/a	FR1	1	R1093J
2224.253	2.616	2220193	ORIENT	n/a	n/a	n/a	-999	21	[0, 0, 0]	n/a	FR1	1	R1093J
2226.869	2.584	2222739	WORD	n/a	wordpools/wordpool_EN.txt	BLOOM	1	21	[0, 0, 0]	n/a	FR1	1	R1093J
2229.453	2.399	2225254	WORD	n/a	wordpools/wordpool_EN.txt	BROOM	2	21	[0, 0, 0]	n/a	FR1	1	R1093J
2231.852	2.518	2227589	WORD	n/a	wordpools/wordpool_EN.txt	BRANCH	3	21	[0, 0, 0]	n/a	FR1	1	R1093J
2234.37	2.518	2230040	WORD	n/a	wordpools/wordpool_EN.txt	ROAD	4	21	[0, 0, 0]	n/a	FR1	1	R1093J
2236.888	2.616	2232490	WORD	n/a	wordpools/wordpool_EN.txt	OAK	5	21	[0, 0, 0]	n/a	FR1	1	R1093J
2239.504	2.617	2235036	WORD	n/a	wordpools/wordpool_EN.txt	GRASS	6	21	[0, 0, 0]	n/a	FR1	1	R1093J
2242.121	2.566	2237583	WORD	n/a	wordpools/wordpool_EN.txt	VINE	7	21	[0, 0, 0]	n/a	FR1	1	R1093J
2244.687	2.502	2240080	WORD	n/a	wordpools/wordpool_EN.txt	STRAW	8	21	[0, 0, 0]	n/a	FR1	1	R1093J
2247.189	2.449	2242516	WORD	n/a	wordpools/wordpool_EN.txt	ROPE	9	21	[0, 0, 0]	n/a	FR1	1	R1093J
2249.638	2.535	2244899	WORD	n/a	wordpools/wordpool_EN.txt	PANTS	10	21	[0, 0, 0]	n/a	FR1	1	R1093J
2252.173	2.499	2247366	WORD	n/a	wordpools/wordpool_EN.txt	PEACH	11	21	[0, 0, 0]	n/a	FR1	1	R1093J
2254.672	1.618	2249798	WORD	n/a	wordpools/wordpool_EN.txt	WEED	12	21	[0, 0, 0]	n/a	FR1	1	R1093J
2256.29	0.001	2251373	DISTRACT_START	n/a	n/a	n/a	-999	21	[0, 0, 0]	n/a	FR1	1	R1093J
2256.291	0.016	2251374	START	n/a	n/a	n/a	-999	23	[-999, -999, -999]	n/a	FR1	1	R1093J
2256.307	7.001	2251390	PROB	7.001	n/a	n/a	-999	23	[2, 4, 7]	13	FR1	1	R1093J
2263.308	4.399	2258203	PROB	4.399	n/a	n/a	-999	23	[9, 1, 5]	15	FR1	1	R1093J
2267.707	4.568	2262484	PROB	4.568	n/a	n/a	-999	23	[2, 8, 6]	16	FR1	1	R1093J
2272.275	5.864	2266930	PROB	5.864	n/a	n/a	-999	23	[7, 2, 5]	14	FR1	1	R1093J
2278.139	0.003	2272637	STOP	n/a	n/a	n/a	-999	23	[-999, -999, -999]	n/a	FR1	1	R1093J
2278.142	1.068	2272640	DISTRACT_END	n/a	n/a	n/a	-999	21	[0, 0, 0]	n/a	FR1	1	R1093J
2279.21	1.945	2273680	REC_START	n/a	n/a	n/a	-999	21	[0, 0, 0]	n/a	FR1	1	R1093J
2281.155	1.49	2275573	REC_WORD	1.49	n/a	BROOM	-999	21	[0, 0, 0]	n/a	FR1	1	R1093J
2282.645	2.439	2277023	REC_WORD	2.439	n/a	BRANCH	-999	21	[0, 0, 0]	n/a	FR1	1	R1093J
2285.084	2.795	2279396	REC_WORD	2.795	n/a	ROAD	-999	21	[0, 0, 0]	n/a	FR1	1	R1093J
2287.879	21.341	2282117	REC_WORD	21.341	n/a	OAK	-999	21	[0, 0, 0]	n/a	FR1	1	R1093J
2309.22	4.205	2302887	REC_END	n/a	n/a	n/a	-999	21	[0, 0, 0]	n/a	FR1	1	R1093J
2313.425	0.0	2306979	TRIAL	n/a	n/a	n/a	-999	22	[0, 0, 0]	n/a	FR1	1	R1093J
2313.425	10.428	2306979	COUNTDOWN_START	n/a	n/a	n/a	-999	22	[0, 0, 0]	n/a	FR1	1	R1093J
2323.853	0.005	2317128	COUNTDOWN_END	n/a	n/a	n/a	-999	22	[0, 0, 0]	n/a	FR1	1	R1093J
2323.858	2.552	2317133	ORIENT	n/a	n/a	n/a	-999	22	[0, 0, 0]	n/a	FR1	1	R1093J
2326.41	2.55	2319617	WORD	n/a	wordpools/wordpool_EN.txt	RUG	1	22	[0, 0, 0]	n/a	FR1	1	R1093J
2328.96	2.4	2322098	WORD	n/a	wordpools/wordpool_EN.txt	YARD	2	22	[0, 0, 0]	n/a	FR1	1	R1093J
2331.36	2.466	2324434	WORD	n/a	wordpools/wordpool_EN.txt	STOVE	3	22	[0, 0, 0]	n/a	FR1	1	R1093J
2333.826	2.418	2326834	WORD	n/a	wordpools/wordpool_EN.txt	LOCK	4	22	[0, 0, 0]	n/a	FR1	1	R1093J
2336.244	2.566	2329187	WORD	n/a	wordpools/wordpool_EN.txt	FACE	5	22	[0, 0, 0]	n/a	FR1	1	R1093J
2338.81	2.518	2331685	WORD	n/a	wordpools/wordpool_EN.txt	BOARD	6	22	[0, 0, 0]	n/a	FR1	1	R1093J
2341.328	2.516	2334135	WORD	n/a	wordpools/wordpool_EN.txt	CAGE	7	22	[0, 0, 0]	n/a	FR1	1	R1093J
2343.844	2.385	2336584	WORD	n/a	wordpools/wordpool_EN.txt	HORN	8	22	[0, 0, 0]	n/a	FR1	1	R1093J
2346.229	2.483	2338905	WORD	n/a	wordpools/wordpool_EN.txt	DRESS	9	22	[0, 0, 0]	n/a	FR1	1	R1093J
2348.712	2.418	2341322	WORD	n/a	wordpools/wordpool_EN.txt	DOCK	10	22	[0, 0, 0]	n/a	FR1	1	R1093J
2351.13	2.4	2343675	WORD	n/a	wordpools/wordpool_EN.txt	WOOD	11	22	[0, 0, 0]	n/a	FR1	1	R1093J
2353.53	1.617	2346011	WORD	n/a	wordpools/wordpool_EN.txt	TOY	12	22	[0, 0, 0]	n/a	FR1	1	R1093J
2355.147	0.001	2347585	DISTRACT_START	n/a	n/a	n/a	-999	22	[0, 0, 0]	n/a	FR1	1	R1093J
2355.148	0.016	2347585	START	n/a	n/a	n/a	-999	24	[-999, -999, -999]	n/a	FR1	1	R1093J
2355.164	6.583	2347601	PROB	6.583	n/a	n/a	-999	24	[2, 1, 5]	8	FR1	1	R1093J
2361.747	6.101	2354008	PROB	6.101	n/a	n/a	-999	24	[5, 7, 7]	19	FR1	1	R1093J
2367.848	3.766	2359946	PROB	3.766	n/a	n/a	-999	24	[9, 1, 3]	13	FR1	1	R1093J
2371.614	7.415	2363611	PROB	7.415	n/a	n/a	-999	24	[9, 2, 9]	20	FR1	1	R1093J
2379.029	0.004	2370827	STOP	n/a	n/a	n/a	-999	24	[-999, -999, -999]	n/a	FR1	1	R1093J
2379.033	1.068	2370831	DISTRACT_END	n/a	n/a	n/a	-999	22	[0, 0, 0]	n/a	FR1	1	R1093J
2380.101	1.503	2371871	REC_START	n/a	n/a	n/a	-999	22	[0, 0, 0]	n/a	FR1	1	R1093J
2381.604	1.575	2373333	REC_WORD	1.575	n/a	RUG	-999	22	[0, 0, 0]	n/a	FR1	1	R1093J
2383.179	2.256	2374866	REC_WORD	2.256	n/a	YARD	-999	22	[0, 0, 0]	n/a	FR1	1	R1093J
2385.435	2.404	2377062	REC_WORD	2.404	n/a	STOVE	-999	22	[0, 0, 0]	n/a	FR1	1	R1093J
2387.839	2.874	2379402	REC_WORD	2.874	n/a	LOCK	-999	22	[0, 0, 0]	n/a	FR1	1	R1093J
2390.713	19.399	2382199	REC_WORD	19.399	n/a	WOOD	-999	22	[0, 0, 0]	n/a	FR1	1	R1093J
2410.112	43.798	2401079	REC_END	n/a	n/a	n/a	-999	22	[0, 0, 0]	n/a	FR1	1	R1093J
2453.91	0.016	2443705	START	n/a	n/a	n/a	-999	25	[-999, -999, -999]	n/a	FR1	1	R1093J
2453.926	8.834	2443720	PROB	8.834	n/a	n/a	-999	25	[4, 9, 2]	15	FR1	1	R1093J
2462.76	4.9	2452318	PROB	4.9	n/a	n/a	-999	25	[3, 3, 2]	8	FR1	1	R1093J
2467.66	4.235	2457087	PROB	4.235	n/a	n/a	-999	25	[1, 8, 9]	18	FR1	1	R1093J
2471.895	4.714	2461208	PROB	4.714	n/a	n/a	-999	25	[3, 1, 6]	10	FR1	1	R1093J
2476.609	76.747	2465796	STOP	n/a	n/a	n/a	-999	25	[-999, -999, -999]	n/a	FR1	1	R1093J
2553.356	0.016	2540489	START	n/a	n/a	n/a	-999	26	[-999, -999, -999]	n/a	FR1	1	R1093J
2553.372	7.051	2540505	PROB	7.051	n/a	n/a	-999	26	[9, 3, 5]	17	FR1	1	R1093J
2560.423	4.034	2547367	PROB	4.034	n/a	n/a	-999	26	[1, 5, 3]	9	FR1	1	R1093J
2564.457	4.517	2551293	PROB	4.517	n/a	n/a	-999	26	[1, 8, 7]	16	FR1	1	R1093J
2568.974	6.231	2555689	PROB	6.231	n/a	n/a	-999	26	[7, 1, 5]	13	FR1	1	R1093J
2575.205	76.513	2561754	STOP	n/a	n/a	n/a	-999	26	[-999, -999, -999]	n/a	FR1	1	R1093J
2651.718	0.016	2636219	START	n/a	n/a	n/a	-999	27	[-999, -999, -999]	n/a	FR1	1	R1093J
2651.734	6.152	2636235	PROB	6.152	n/a	n/a	-999	27	[2, 7, 3]	12	FR1	1	R1093J
2657.886	11.9	2642222	PROB	11.9	n/a	n/a	-999	27	[9, 5, 2]	16	FR1	1	R1093J
2669.786	6.383	2653804	PROB	6.383	n/a	n/a	-999	27	[4, 5, 1]	10	FR1	1	R1093J
2676.169	0.0	2660016	STOP	n/a	n/a	n/a	-999	27	[-999, -999, -999]	n/a	FR1	1	R1093J
