onset	duration	sample	trial_type	response_time	stim_file	item_name	serialpos	list	test	answer	experiment	session	subject
0.0	0.0	100145	INSTRUCT_START	n/a	n/a	n/a	-999	-999	[0, 0, 0]	n/a	FR1	0	R1187P
0.0	11.068	100145	INSTRUCT_END	n/a	n/a	n/a	-999	-999	[0, 0, 0]	n/a	FR1	0	R1187P
11.068	0.0	111212	SESS_START	n/a	n/a	n/a	-999	-999	[0, 0, 0]	n/a	FR1	0	R1187P
11.068	211.367	111212	MIC_TEST	n/a	n/a	n/a	-999	-999	[0, 0, 0]	n/a	FR1	0	R1187P
222.435	1.574	322569	PRACTICE_TRIAL	n/a	n/a	n/a	-999	-1	[0, 0, 0]	n/a	FR1	0	R1187P
224.009	10.428	324143	COUNTDOWN_START	n/a	n/a	n/a	-999	-1	[0, 0, 0]	n/a	FR1	0	R1187P
234.437	0.007	334570	COUNTDOWN_END	n/a	n/a	n/a	-999	-1	[0, 0, 0]	n/a	FR1	0	R1187P
234.444	1.617	334577	PRACTICE_ORIENT	n/a	n/a	n/a	-999	-1	[0, 0, 0]	n/a	FR1	0	R1187P
236.061	2.067	336194	PRACTICE_ORIENT_OFF	n/a	n/a	n/a	-999	-1	[0, 0, 0]	n/a	FR1	0	R1187P
238.128	1.617	338261	PRACTICE_WORD	n/a	n/a	BEAM	1	-1	[0, 0, 0]	n/a	FR1	0	R1187P
239.745	0.884	339878	PRACTICE_WORD_OFF	n/a	n/a	BEAM	-999	-1	[0, 0, 0]	n/a	FR1	0	R1187P
240.629	1.617	340762	PRACTICE_WORD	n/a	n/a	COTTON	2	-1	[0, 0, 0]	n/a	FR1	0	R1187P
242.246	0.783	342379	PRACTICE_WORD_OFF	n/a	n/a	COTTON	-999	-1	[0, 0, 0]	n/a	FR1	0	R1187P
243.029	1.617	343162	PRACTICE_WORD	n/a	n/a	IRON	3	-1	[0, 0, 0]	n/a	FR1	0	R1187P
244.646	0.834	344779	PRACTICE_WORD_OFF	n/a	n/a	IRON	-999	-1	[0, 0, 0]	n/a	FR1	0	R1187P
245.48	1.617	345613	PRACTICE_WORD	n/a	n/a	CAMEL	4	-1	[0, 0, 0]	n/a	FR1	0	R1187P
247.097	1.0	347230	PRACTICE_WORD_OFF	n/a	n/a	CAMEL	-999	-1	[0, 0, 0]	n/a	FR1	0	R1187P
248.097	1.617	348230	PRACTICE_WORD	n/a	n/a	WATCH	5	-1	[0, 0, 0]	n/a	FR1	0	R1187P
249.714	0.917	349846	PRACTICE_WORD_OFF	n/a	n/a	WATCH	-999	-1	[0, 0, 0]	n/a	FR1	0	R1187P
250.631	1.617	350763	PRACTICE_WORD	n/a	n/a	CHEST	6	-1	[0, 0, 0]	n/a	FR1	0	R1187P
252.248	0.867	352380	PRACTICE_WORD_OFF	n/a	n/a	CHEST	-999	-1	[0, 0, 0]	n/a	FR1	0	R1187P
253.115	1.617	353247	PRACTICE_WORD	n/a	n/a	FLOOD	7	-1	[0, 0, 0]	n/a	FR1	0	R1187P
254.732	0.983	354864	PRACTICE_WORD_OFF	n/a	n/a	FLOOD	-999	-1	[0, 0, 0]	n/a	FR1	0	R1187P
255.715	1.617	355847	PRACTICE_WORD	n/a	n/a	WAGON	8	-1	[0, 0, 0]	n/a	FR1	0	R1187P
257.332	0.833	357464	PRACTICE_WORD_OFF	n/a	n/a	WAGON	-999	-1	[0, 0, 0]	n/a	FR1	0	R1187P
258.165	1.617	358297	PRACTICE_WORD	n/a	n/a	RING	9	-1	[0, 0, 0]	n/a	FR1	0	R1187P
259.782	1.017	359914	PRACTICE_WORD_OFF	n/a	n/a	RING	-999	-1	[0, 0, 0]	n/a	FR1	0	R1187P
260.799	1.617	360931	PRACTICE_WORD	n/a	n/a	RHINO	10	-1	[0, 0, 0]	n/a	FR1	0	R1187P
262.416	0.967	362548	PRACTICE_WORD_OFF	n/a	n/a	RHINO	-999	-1	[0, 0, 0]	n/a	FR1	0	R1187P
263.383	1.617	363515	PRACTICE_WORD	n/a	n/a	ATTIC	11	-1	[0, 0, 0]	n/a	FR1	0	R1187P
265.0	0.984	365132	PRACTICE_WORD_OFF	n/a	n/a	ATTIC	-999	-1	[0, 0, 0]	n/a	FR1	0	R1187P
265.984	1.617	366116	PRACTICE_WORD	n/a	n/a	TONGUE	12	-1	[0, 0, 0]	n/a	FR1	0	R1187P
267.601	0.0	367733	PRACTICE_WORD_OFF	n/a	n/a	TONGUE	-999	-1	[0, 0, 0]	n/a	FR1	0	R1187P
267.601	0.0	367733	DISTRACT_START	n/a	n/a	n/a	-999	-1	[0, 0, 0]	n/a	FR1	0	R1187P
267.601	0.016	367733	START	n/a	n/a	n/a	-999	-1	[-999, -999, -999]	n/a	FR1	0	R1187P
267.617	12.336	367749	PROB	12.336	n/a	n/a	-999	-1	[1, 1, 9]	11	FR1	0	R1187P
279.953	21.47	380084	PROB	21.47	n/a	n/a	-999	-1	[7, 7, 9]	28	FR1	0	R1187P
301.423	0.017	401553	STOP	n/a	n/a	n/a	-999	-1	[-999, -999, -999]	n/a	FR1	0	R1187P
301.44	0.567	401570	DISTRACT_END	n/a	n/a	n/a	-999	-1	[0, 0, 0]	n/a	FR1	0	R1187P
302.007	0.518	402137	RETRIEVAL_ORIENT	n/a	n/a	n/a	-999	-1	[0, 0, 0]	n/a	FR1	0	R1187P
302.525	30.012	402655	PRACTICE_REC_START	n/a	n/a	n/a	-999	-1	[0, 0, 0]	n/a	FR1	0	R1187P
332.537	21.28	432665	PRACTICE_REC_END	n/a	n/a	n/a	-999	-1	[0, 0, 0]	n/a	FR1	0	R1187P
353.817	0.5	453944	TRIAL	n/a	n/a	n/a	-999	1	[0, 0, 0]	n/a	FR1	0	R1187P
354.317	10.428	454444	COUNTDOWN_START	n/a	n/a	n/a	-999	1	[0, 0, 0]	n/a	FR1	0	R1187P
364.745	0.007	464872	COUNTDOWN_END	n/a	n/a	n/a	-999	1	[0, 0, 0]	n/a	FR1	0	R1187P
364.752	1.617	464879	ORIENT	n/a	n/a	n/a	-999	1	[0, 0, 0]	n/a	FR1	0	R1187P
366.369	2.0	466496	ORIENT_OFF	n/a	n/a	n/a	-999	1	[0, 0, 0]	n/a	FR1	0	R1187P
368.369	1.617	468496	WORD	n/a	wordpools/wordpool_EN.txt	BOOK	1	1	[0, 0, 0]	n/a	FR1	0	R1187P
369.986	0.784	470113	WORD_OFF	n/a	n/a	BOOK	1	1	[0, 0, 0]	n/a	FR1	0	R1187P
370.77	1.617	470897	WORD	n/a	wordpools/wordpool_EN.txt	BEE	2	1	[0, 0, 0]	n/a	FR1	0	R1187P
372.387	0.917	472513	WORD_OFF	n/a	n/a	BEE	2	1	[0, 0, 0]	n/a	FR1	0	R1187P
373.304	1.617	473430	WORD	n/a	wordpools/wordpool_EN.txt	BAT	3	1	[0, 0, 0]	n/a	FR1	0	R1187P
374.921	1.017	475047	WORD_OFF	n/a	n/a	BAT	3	1	[0, 0, 0]	n/a	FR1	0	R1187P
375.938	1.617	476064	WORD	n/a	wordpools/wordpool_EN.txt	FRUIT	4	1	[0, 0, 0]	n/a	FR1	0	R1187P
377.555	0.933	477681	WORD_OFF	n/a	n/a	FRUIT	4	1	[0, 0, 0]	n/a	FR1	0	R1187P
378.488	1.617	478614	WORD	n/a	wordpools/wordpool_EN.txt	LAKE	5	1	[0, 0, 0]	n/a	FR1	0	R1187P
380.105	0.984	480231	WORD_OFF	n/a	n/a	LAKE	5	1	[0, 0, 0]	n/a	FR1	0	R1187P
381.089	1.617	481215	WORD	n/a	wordpools/wordpool_EN.txt	TENT	6	1	[0, 0, 0]	n/a	FR1	0	R1187P
382.706	0.916	482832	WORD_OFF	n/a	n/a	TENT	6	1	[0, 0, 0]	n/a	FR1	0	R1187P
383.622	1.617	483748	WORD	n/a	wordpools/wordpool_EN.txt	SOUP	7	1	[0, 0, 0]	n/a	FR1	0	R1187P
385.239	1.001	485365	WORD_OFF	n/a	n/a	SOUP	7	1	[0, 0, 0]	n/a	FR1	0	R1187P
386.24	1.617	486366	WORD	n/a	wordpools/wordpool_EN.txt	ROAD	8	1	[0, 0, 0]	n/a	FR1	0	R1187P
387.857	0.983	487983	WORD_OFF	n/a	n/a	ROAD	8	1	[0, 0, 0]	n/a	FR1	0	R1187P
388.84	1.617	488966	WORD	n/a	wordpools/wordpool_EN.txt	RICE	9	1	[0, 0, 0]	n/a	FR1	0	R1187P
390.457	0.967	490583	WORD_OFF	n/a	n/a	RICE	9	1	[0, 0, 0]	n/a	FR1	0	R1187P
391.424	1.617	491550	WORD	n/a	wordpools/wordpool_EN.txt	SAIL	10	1	[0, 0, 0]	n/a	FR1	0	R1187P
393.041	0.817	493166	WORD_OFF	n/a	n/a	SAIL	10	1	[0, 0, 0]	n/a	FR1	0	R1187P
393.858	1.617	493983	WORD	n/a	wordpools/wordpool_EN.txt	GRASS	11	1	[0, 0, 0]	n/a	FR1	0	R1187P
395.475	0.8	495600	WORD_OFF	n/a	n/a	GRASS	11	1	[0, 0, 0]	n/a	FR1	0	R1187P
396.275	1.617	496400	WORD	n/a	wordpools/wordpool_EN.txt	FUDGE	12	1	[0, 0, 0]	n/a	FR1	0	R1187P
397.892	0.0	498017	WORD_OFF	n/a	n/a	FUDGE	12	1	[0, 0, 0]	n/a	FR1	0	R1187P
397.892	0.0	498017	DISTRACT_START	n/a	n/a	n/a	-999	1	[0, 0, 0]	n/a	FR1	0	R1187P
397.892	0.017	498017	START	n/a	n/a	n/a	-999	1	[-999, -999, -999]	n/a	FR1	0	R1187P
397.909	11.352	498034	PROB	11.352	n/a	n/a	-999	1	[9, 3, 3]	15	FR1	0	R1187P
409.261	8.568	509386	PROB	8.568	n/a	n/a	-999	1	[8, 9, 1]	18	FR1	0	R1187P
417.829	6.353	517953	PROB	6.353	n/a	n/a	-999	1	[8, 2, 5]	15	FR1	0	R1187P
424.182	0.015	524306	STOP	n/a	n/a	n/a	-999	1	[-999, -999, -999]	n/a	FR1	0	R1187P
424.197	0.567	524321	DISTRACT_END	n/a	n/a	n/a	-999	1	[0, 0, 0]	n/a	FR1	0	R1187P
424.764	0.517	524888	RETRIEVAL_ORIENT	n/a	n/a	n/a	-999	1	[0, 0, 0]	n/a	FR1	0	R1187P
425.281	14.165	525405	REC_START	n/a	n/a	n/a	-999	1	[0, 0, 0]	n/a	FR1	0	R1187P
439.446	1.0	539569	REC_WORD_VV	1.0	n/a	<>	-999	1	[0, 0, 0]	n/a	FR1	0	R1187P
440.446	1.0	540569	REC_WORD_VV	1.0	n/a	<>	-999	1	[0, 0, 0]	n/a	FR1	0	R1187P
441.446	4.615	541569	REC_WORD_VV	4.615	n/a	<>	-999	1	[0, 0, 0]	n/a	FR1	0	R1187P
446.061	2.132	546184	REC_WORD_VV	2.132	n/a	<>	-999	1	[0, 0, 0]	n/a	FR1	0	R1187P
448.193	2.177	548316	REC_WORD	2.177	n/a	BOOK	1	1	[0, 0, 0]	n/a	FR1	0	R1187P
450.37	4.922	550493	REC_WORD_VV	4.922	n/a	<>	-999	1	[0, 0, 0]	n/a	FR1	0	R1187P
455.292	18.08	555414	REC_END	n/a	n/a	n/a	-999	1	[0, 0, 0]	n/a	FR1	0	R1187P
473.372	0.5	573493	TRIAL	n/a	n/a	n/a	-999	2	[0, 0, 0]	n/a	FR1	0	R1187P
473.872	10.428	573993	COUNTDOWN_START	n/a	n/a	n/a	-999	2	[0, 0, 0]	n/a	FR1	0	R1187P
484.3	0.008	584421	COUNTDOWN_END	n/a	n/a	n/a	-999	2	[0, 0, 0]	n/a	FR1	0	R1187P
484.308	1.617	584429	ORIENT	n/a	n/a	n/a	-999	2	[0, 0, 0]	n/a	FR1	0	R1187P
485.925	2.249	586046	ORIENT_OFF	n/a	n/a	n/a	-999	2	[0, 0, 0]	n/a	FR1	0	R1187P
488.174	1.601	588295	WORD	n/a	wordpools/wordpool_EN.txt	DART	1	2	[0, 0, 0]	n/a	FR1	0	R1187P
489.775	0.934	589896	WORD_OFF	n/a	n/a	DART	1	2	[0, 0, 0]	n/a	FR1	0	R1187P
490.709	1.617	590830	WORD	n/a	wordpools/wordpool_EN.txt	CLOTH	2	2	[0, 0, 0]	n/a	FR1	0	R1187P
492.326	0.8	592447	WORD_OFF	n/a	n/a	CLOTH	2	2	[0, 0, 0]	n/a	FR1	0	R1187P
493.126	1.617	593247	WORD	n/a	wordpools/wordpool_EN.txt	CROW	3	2	[0, 0, 0]	n/a	FR1	0	R1187P
494.743	0.917	594863	WORD_OFF	n/a	n/a	CROW	3	2	[0, 0, 0]	n/a	FR1	0	R1187P
495.66	1.617	595780	WORD	n/a	wordpools/wordpool_EN.txt	BEAN	4	2	[0, 0, 0]	n/a	FR1	0	R1187P
497.277	0.85	597397	WORD_OFF	n/a	n/a	BEAN	4	2	[0, 0, 0]	n/a	FR1	0	R1187P
498.127	1.617	598247	WORD	n/a	wordpools/wordpool_EN.txt	TIE	5	2	[0, 0, 0]	n/a	FR1	0	R1187P
499.744	0.867	599864	WORD_OFF	n/a	n/a	TIE	5	2	[0, 0, 0]	n/a	FR1	0	R1187P
500.611	1.617	600731	WORD	n/a	wordpools/wordpool_EN.txt	CLOWN	6	2	[0, 0, 0]	n/a	FR1	0	R1187P
502.228	0.817	602348	WORD_OFF	n/a	n/a	CLOWN	6	2	[0, 0, 0]	n/a	FR1	0	R1187P
503.045	1.617	603165	WORD	n/a	wordpools/wordpool_EN.txt	HAND	7	2	[0, 0, 0]	n/a	FR1	0	R1187P
504.662	0.917	604782	WORD_OFF	n/a	n/a	HAND	7	2	[0, 0, 0]	n/a	FR1	0	R1187P
505.579	1.617	605699	WORD	n/a	wordpools/wordpool_EN.txt	BOX	8	2	[0, 0, 0]	n/a	FR1	0	R1187P
507.196	0.766	607316	WORD_OFF	n/a	n/a	BOX	8	2	[0, 0, 0]	n/a	FR1	0	R1187P
507.962	1.617	608082	WORD	n/a	wordpools/wordpool_EN.txt	FAN	9	2	[0, 0, 0]	n/a	FR1	0	R1187P
509.579	0.901	609699	WORD_OFF	n/a	n/a	FAN	9	2	[0, 0, 0]	n/a	FR1	0	R1187P
510.48	1.617	610600	WORD	n/a	wordpools/wordpool_EN.txt	JAR	10	2	[0, 0, 0]	n/a	FR1	0	R1187P
512.097	0.816	612217	WORD_OFF	n/a	n/a	JAR	10	2	[0, 0, 0]	n/a	FR1	0	R1187P
512.913	1.617	613033	WORD	n/a	wordpools/wordpool_EN.txt	CLAY	11	2	[0, 0, 0]	n/a	FR1	0	R1187P
514.53	1.001	614649	WORD_OFF	n/a	n/a	CLAY	11	2	[0, 0, 0]	n/a	FR1	0	R1187P
515.531	1.617	615650	WORD	n/a	wordpools/wordpool_EN.txt	WAVE	12	2	[0, 0, 0]	n/a	FR1	0	R1187P
517.148	0.0	617267	WORD_OFF	n/a	n/a	WAVE	12	2	[0, 0, 0]	n/a	FR1	0	R1187P
517.148	0.0	617267	DISTRACT_START	n/a	n/a	n/a	-999	2	[0, 0, 0]	n/a	FR1	0	R1187P
517.148	0.015	617267	START	n/a	n/a	n/a	-999	2	[-999, -999, -999]	n/a	FR1	0	R1187P
517.163	8.619	617282	PROB	8.619	n/a	n/a	-999	2	[2, 7, 5]	14	FR1	0	R1187P
525.782	5.551	625901	PROB	5.551	n/a	n/a	-999	2	[1, 4, 7]	12	FR1	0	R1187P
531.333	17.73	631452	PROB	17.73	n/a	n/a	-999	2	[7, 9, 2]	20	FR1	0	R1187P
549.063	0.007	649181	STOP	n/a	n/a	n/a	-999	2	[-999, -999, -999]	n/a	FR1	0	R1187P
549.07	0.534	649188	DISTRACT_END	n/a	n/a	n/a	-999	2	[0, 0, 0]	n/a	FR1	0	R1187P
549.604	0.517	649722	RETRIEVAL_ORIENT	n/a	n/a	n/a	-999	2	[0, 0, 0]	n/a	FR1	0	R1187P
550.121	1.403	650239	REC_START	n/a	n/a	n/a	-999	2	[0, 0, 0]	n/a	FR1	0	R1187P
551.524	1.748	651642	REC_WORD_VV	1.748	n/a	<>	-999	2	[0, 0, 0]	n/a	FR1	0	R1187P
553.272	1.158	653390	REC_WORD	1.158	n/a	BOOK	-999	2	[0, 0, 0]	n/a	FR1	0	R1187P
554.43	1.0	654548	REC_WORD	1.0	n/a	CLOTH	2	2	[0, 0, 0]	n/a	FR1	0	R1187P
555.43	1.776	655547	REC_WORD_VV	1.776	n/a	<>	-999	2	[0, 0, 0]	n/a	FR1	0	R1187P
557.206	2.742	657323	REC_WORD_VV	2.742	n/a	<>	-999	2	[0, 0, 0]	n/a	FR1	0	R1187P
559.948	3.617	660065	REC_WORD	3.617	n/a	BOAT	-999	2	[0, 0, 0]	n/a	FR1	0	R1187P
563.565	0.665	663682	REC_WORD_VV	0.665	n/a	<>	-999	2	[0, 0, 0]	n/a	FR1	0	R1187P
564.23	3.52	664347	REC_WORD	3.52	n/a	BOX	8	2	[0, 0, 0]	n/a	FR1	0	R1187P
567.75	9.578	667867	REC_WORD_VV	9.578	n/a	<>	-999	2	[0, 0, 0]	n/a	FR1	0	R1187P
577.328	2.805	677444	REC_WORD_VV	2.805	n/a	<>	-999	2	[0, 0, 0]	n/a	FR1	0	R1187P
580.133	7.778	680249	REC_END	n/a	n/a	n/a	-999	2	[0, 0, 0]	n/a	FR1	0	R1187P
587.911	0.5	688027	TRIAL	n/a	n/a	n/a	-999	3	[0, 0, 0]	n/a	FR1	0	R1187P
588.411	10.428	688527	COUNTDOWN_START	n/a	n/a	n/a	-999	3	[0, 0, 0]	n/a	FR1	0	R1187P
598.839	0.007	698954	COUNTDOWN_END	n/a	n/a	n/a	-999	3	[0, 0, 0]	n/a	FR1	0	R1187P
598.846	1.617	698961	ORIENT	n/a	n/a	n/a	-999	3	[0, 0, 0]	n/a	FR1	0	R1187P
600.463	2.0	700578	ORIENT_OFF	n/a	n/a	n/a	-999	3	[0, 0, 0]	n/a	FR1	0	R1187P
602.463	1.617	702578	WORD	n/a	wordpools/wordpool_EN.txt	JAIL	1	3	[0, 0, 0]	n/a	FR1	0	R1187P
604.08	0.967	704195	WORD_OFF	n/a	n/a	JAIL	1	3	[0, 0, 0]	n/a	FR1	0	R1187P
605.047	1.617	705162	WORD	n/a	wordpools/wordpool_EN.txt	CAPE	2	3	[0, 0, 0]	n/a	FR1	0	R1187P
606.664	0.867	706779	WORD_OFF	n/a	n/a	CAPE	2	3	[0, 0, 0]	n/a	FR1	0	R1187P
607.531	1.617	707646	WORD	n/a	wordpools/wordpool_EN.txt	MAP	3	3	[0, 0, 0]	n/a	FR1	0	R1187P
609.148	0.9	709263	WORD_OFF	n/a	n/a	MAP	3	3	[0, 0, 0]	n/a	FR1	0	R1187P
610.048	1.617	710163	WORD	n/a	wordpools/wordpool_EN.txt	GLOVE	4	3	[0, 0, 0]	n/a	FR1	0	R1187P
611.665	0.917	711780	WORD_OFF	n/a	n/a	GLOVE	4	3	[0, 0, 0]	n/a	FR1	0	R1187P
612.582	1.617	712697	WORD	n/a	wordpools/wordpool_EN.txt	WALL	5	3	[0, 0, 0]	n/a	FR1	0	R1187P
614.199	0.966	714314	WORD_OFF	n/a	n/a	WALL	5	3	[0, 0, 0]	n/a	FR1	0	R1187P
615.165	1.618	715280	WORD	n/a	wordpools/wordpool_EN.txt	OWL	6	3	[0, 0, 0]	n/a	FR1	0	R1187P
616.783	0.833	716897	WORD_OFF	n/a	n/a	OWL	6	3	[0, 0, 0]	n/a	FR1	0	R1187P
617.616	1.617	717730	WORD	n/a	wordpools/wordpool_EN.txt	INK	7	3	[0, 0, 0]	n/a	FR1	0	R1187P
619.233	0.884	719347	WORD_OFF	n/a	n/a	INK	7	3	[0, 0, 0]	n/a	FR1	0	R1187P
620.117	1.617	720231	WORD	n/a	wordpools/wordpool_EN.txt	CAR	8	3	[0, 0, 0]	n/a	FR1	0	R1187P
621.734	0.983	721848	WORD_OFF	n/a	n/a	CAR	8	3	[0, 0, 0]	n/a	FR1	0	R1187P
622.717	1.617	722831	WORD	n/a	wordpools/wordpool_EN.txt	WHALE	9	3	[0, 0, 0]	n/a	FR1	0	R1187P
624.334	0.984	724448	WORD_OFF	n/a	n/a	WHALE	9	3	[0, 0, 0]	n/a	FR1	0	R1187P
625.318	1.617	725432	WORD	n/a	wordpools/wordpool_EN.txt	EAR	10	3	[0, 0, 0]	n/a	FR1	0	R1187P
626.935	0.867	727049	WORD_OFF	n/a	n/a	EAR	10	3	[0, 0, 0]	n/a	FR1	0	R1187P
627.802	1.617	727916	WORD	n/a	wordpools/wordpool_EN.txt	ZOO	11	3	[0, 0, 0]	n/a	FR1	0	R1187P
629.419	0.966	729533	WORD_OFF	n/a	n/a	ZOO	11	3	[0, 0, 0]	n/a	FR1	0	R1187P
630.385	1.617	730499	WORD	n/a	wordpools/wordpool_EN.txt	CHIEF	12	3	[0, 0, 0]	n/a	FR1	0	R1187P
632.002	0.0	732116	DISTRACT_START	n/a	n/a	n/a	-999	3	[0, 0, 0]	n/a	FR1	0	R1187P
632.002	0.001	732116	WORD_OFF	n/a	n/a	CHIEF	12	3	[0, 0, 0]	n/a	FR1	0	R1187P
632.003	0.016	732117	START	n/a	n/a	n/a	-999	3	[-999, -999, -999]	n/a	FR1	0	R1187P
632.019	6.785	732133	PROB	6.785	n/a	n/a	-999	3	[1, 4, 4]	9	FR1	0	R1187P
638.804	8.351	738917	PROB	8.351	n/a	n/a	-999	3	[1, 2, 9]	12	FR1	0	R1187P
647.155	10.187	747268	PROB	10.187	n/a	n/a	-999	3	[5, 1, 6]	12	FR1	0	R1187P
657.342	0.015	757454	STOP	n/a	n/a	n/a	-999	3	[-999, -999, -999]	n/a	FR1	0	R1187P
657.357	0.7	757469	DISTRACT_END	n/a	n/a	n/a	-999	3	[0, 0, 0]	n/a	FR1	0	R1187P
658.057	0.518	758169	RETRIEVAL_ORIENT	n/a	n/a	n/a	-999	3	[0, 0, 0]	n/a	FR1	0	R1187P
658.575	1.651	758687	REC_START	n/a	n/a	n/a	-999	3	[0, 0, 0]	n/a	FR1	0	R1187P
660.226	1.744	760338	REC_WORD_VV	1.744	n/a	<>	-999	3	[0, 0, 0]	n/a	FR1	0	R1187P
661.97	0.976	762082	REC_WORD	0.976	n/a	OWL	6	3	[0, 0, 0]	n/a	FR1	0	R1187P
662.946	2.556	763058	REC_WORD	2.556	n/a	ZOO	11	3	[0, 0, 0]	n/a	FR1	0	R1187P
665.502	3.392	765614	REC_WORD_VV	3.392	n/a	<>	-999	3	[0, 0, 0]	n/a	FR1	0	R1187P
668.894	2.706	769006	REC_WORD	2.706	n/a	CAPE	2	3	[0, 0, 0]	n/a	FR1	0	R1187P
671.6	0.499	771712	REC_WORD_VV	0.499	n/a	<>	-999	3	[0, 0, 0]	n/a	FR1	0	R1187P
672.099	2.592	772211	REC_WORD	2.592	n/a	JAIL	1	3	[0, 0, 0]	n/a	FR1	0	R1187P
674.691	4.874	774803	REC_WORD_VV	4.874	n/a	<>	-999	3	[0, 0, 0]	n/a	FR1	0	R1187P
679.565	6.183	779676	REC_WORD	6.183	n/a	FEAR	-999	3	[0, 0, 0]	n/a	FR1	0	R1187P
685.748	1.0	785859	REC_WORD_VV	1.0	n/a	<>	-999	3	[0, 0, 0]	n/a	FR1	0	R1187P
686.748	1.837	786859	REC_WORD_VV	1.837	n/a	<>	-999	3	[0, 0, 0]	n/a	FR1	0	R1187P
688.585	8.53	788696	REC_END	n/a	n/a	n/a	-999	3	[0, 0, 0]	n/a	FR1	0	R1187P
697.115	0.5	797226	TRIAL	n/a	n/a	n/a	-999	4	[0, 0, 0]	n/a	FR1	0	R1187P
697.615	10.428	797726	COUNTDOWN_START	n/a	n/a	n/a	-999	4	[0, 0, 0]	n/a	FR1	0	R1187P
708.043	0.007	808153	COUNTDOWN_END	n/a	n/a	n/a	-999	4	[0, 0, 0]	n/a	FR1	0	R1187P
708.05	1.617	808160	ORIENT	n/a	n/a	n/a	-999	4	[0, 0, 0]	n/a	FR1	0	R1187P
709.667	1.95	809777	ORIENT_OFF	n/a	n/a	n/a	-999	4	[0, 0, 0]	n/a	FR1	0	R1187P
711.617	1.617	811727	WORD	n/a	wordpools/wordpool_EN.txt	STEM	1	4	[0, 0, 0]	n/a	FR1	0	R1187P
713.234	1.001	813344	WORD_OFF	n/a	n/a	STEM	1	4	[0, 0, 0]	n/a	FR1	0	R1187P
714.235	1.616	814345	WORD	n/a	wordpools/wordpool_EN.txt	MAIL	2	4	[0, 0, 0]	n/a	FR1	0	R1187P
715.851	0.951	815961	WORD_OFF	n/a	n/a	MAIL	2	4	[0, 0, 0]	n/a	FR1	0	R1187P
716.802	1.617	816912	WORD	n/a	wordpools/wordpool_EN.txt	CAT	3	4	[0, 0, 0]	n/a	FR1	0	R1187P
718.419	0.817	818528	WORD_OFF	n/a	n/a	CAT	3	4	[0, 0, 0]	n/a	FR1	0	R1187P
719.236	1.616	819345	WORD	n/a	wordpools/wordpool_EN.txt	SEA	4	4	[0, 0, 0]	n/a	FR1	0	R1187P
720.852	0.851	820961	WORD_OFF	n/a	n/a	SEA	4	4	[0, 0, 0]	n/a	FR1	0	R1187P
721.703	1.617	821812	WORD	n/a	wordpools/wordpool_EN.txt	MILK	5	4	[0, 0, 0]	n/a	FR1	0	R1187P
723.32	0.866	823429	WORD_OFF	n/a	n/a	MILK	5	4	[0, 0, 0]	n/a	FR1	0	R1187P
724.186	1.617	824295	WORD	n/a	wordpools/wordpool_EN.txt	SPRING	6	4	[0, 0, 0]	n/a	FR1	0	R1187P
725.803	0.834	825912	WORD_OFF	n/a	n/a	SPRING	6	4	[0, 0, 0]	n/a	FR1	0	R1187P
726.637	1.617	826746	WORD	n/a	wordpools/wordpool_EN.txt	ROOT	7	4	[0, 0, 0]	n/a	FR1	0	R1187P
728.254	0.883	828363	WORD_OFF	n/a	n/a	ROOT	7	4	[0, 0, 0]	n/a	FR1	0	R1187P
729.137	1.617	829246	WORD	n/a	wordpools/wordpool_EN.txt	GUARD	8	4	[0, 0, 0]	n/a	FR1	0	R1187P
730.754	0.917	830863	WORD_OFF	n/a	n/a	GUARD	8	4	[0, 0, 0]	n/a	FR1	0	R1187P
731.671	1.617	831780	WORD	n/a	wordpools/wordpool_EN.txt	ELF	9	4	[0, 0, 0]	n/a	FR1	0	R1187P
733.288	0.917	833397	WORD_OFF	n/a	n/a	ELF	9	4	[0, 0, 0]	n/a	FR1	0	R1187P
734.205	1.617	834314	WORD	n/a	wordpools/wordpool_EN.txt	COIN	10	4	[0, 0, 0]	n/a	FR1	0	R1187P
735.822	0.833	835931	WORD_OFF	n/a	n/a	COIN	10	4	[0, 0, 0]	n/a	FR1	0	R1187P
736.655	1.617	836764	WORD	n/a	wordpools/wordpool_EN.txt	MOUTH	11	4	[0, 0, 0]	n/a	FR1	0	R1187P
738.272	0.95	838381	WORD_OFF	n/a	n/a	MOUTH	11	4	[0, 0, 0]	n/a	FR1	0	R1187P
739.222	1.618	839330	WORD	n/a	wordpools/wordpool_EN.txt	FOOT	12	4	[0, 0, 0]	n/a	FR1	0	R1187P
740.84	0.0	840948	WORD_OFF	n/a	n/a	FOOT	12	4	[0, 0, 0]	n/a	FR1	0	R1187P
740.84	0.0	840948	DISTRACT_START	n/a	n/a	n/a	-999	4	[0, 0, 0]	n/a	FR1	0	R1187P
740.84	0.016	840948	START	n/a	n/a	n/a	-999	4	[-999, -999, -999]	n/a	FR1	0	R1187P
740.856	8.168	840964	PROB	8.168	n/a	n/a	-999	4	[3, 5, 5]	13	FR1	0	R1187P
749.024	17.848	849132	PROB	17.848	n/a	n/a	-999	4	[9, 3, 8]	20	FR1	0	R1187P
766.872	0.005	866979	STOP	n/a	n/a	n/a	-999	4	[-999, -999, -999]	n/a	FR1	0	R1187P
766.877	0.634	866984	DISTRACT_END	n/a	n/a	n/a	-999	4	[0, 0, 0]	n/a	FR1	0	R1187P
767.511	0.517	867618	RETRIEVAL_ORIENT	n/a	n/a	n/a	-999	4	[0, 0, 0]	n/a	FR1	0	R1187P
768.028	3.94	868135	REC_START	n/a	n/a	n/a	-999	4	[0, 0, 0]	n/a	FR1	0	R1187P
771.968	15.752	872075	REC_WORD_VV	15.752	n/a	<>	-999	4	[0, 0, 0]	n/a	FR1	0	R1187P
787.72	0.892	887826	REC_WORD_VV	0.892	n/a	<>	-999	4	[0, 0, 0]	n/a	FR1	0	R1187P
788.612	3.747	888718	REC_WORD	3.747	n/a	ZOO	-999	4	[0, 0, 0]	n/a	FR1	0	R1187P
792.359	0.673	892465	REC_WORD_VV	0.673	n/a	<>	-999	4	[0, 0, 0]	n/a	FR1	0	R1187P
793.032	0.767	893138	REC_WORD	0.767	n/a	CAT	3	4	[0, 0, 0]	n/a	FR1	0	R1187P
793.799	2.478	893905	REC_WORD	2.478	n/a	MILK	5	4	[0, 0, 0]	n/a	FR1	0	R1187P
796.277	1.764	896383	REC_WORD_VV	1.764	n/a	<>	-999	4	[0, 0, 0]	n/a	FR1	0	R1187P
798.041	22.08	898147	REC_END	n/a	n/a	n/a	-999	4	[0, 0, 0]	n/a	FR1	0	R1187P
820.121	0.5	920226	TRIAL	n/a	n/a	n/a	-999	5	[0, 0, 0]	n/a	FR1	0	R1187P
820.621	10.428	920725	COUNTDOWN_START	n/a	n/a	n/a	-999	5	[0, 0, 0]	n/a	FR1	0	R1187P
831.049	0.007	931153	COUNTDOWN_END	n/a	n/a	n/a	-999	5	[0, 0, 0]	n/a	FR1	0	R1187P
831.056	1.617	931160	ORIENT	n/a	n/a	n/a	-999	5	[0, 0, 0]	n/a	FR1	0	R1187P
832.673	2.151	932777	ORIENT_OFF	n/a	n/a	n/a	-999	5	[0, 0, 0]	n/a	FR1	0	R1187P
834.824	1.617	934928	WORD	n/a	wordpools/wordpool_EN.txt	RAKE	1	5	[0, 0, 0]	n/a	FR1	0	R1187P
836.441	0.817	936545	WORD_OFF	n/a	n/a	RAKE	1	5	[0, 0, 0]	n/a	FR1	0	R1187P
837.258	1.617	937362	WORD	n/a	wordpools/wordpool_EN.txt	CART	2	5	[0, 0, 0]	n/a	FR1	0	R1187P
838.875	0.866	938979	WORD_OFF	n/a	n/a	CART	2	5	[0, 0, 0]	n/a	FR1	0	R1187P
839.741	1.617	939845	WORD	n/a	wordpools/wordpool_EN.txt	THUMB	3	5	[0, 0, 0]	n/a	FR1	0	R1187P
841.358	0.85	941461	WORD_OFF	n/a	n/a	THUMB	3	5	[0, 0, 0]	n/a	FR1	0	R1187P
842.208	1.618	942311	WORD	n/a	wordpools/wordpool_EN.txt	BREAD	4	5	[0, 0, 0]	n/a	FR1	0	R1187P
843.826	0.849	943929	WORD_OFF	n/a	n/a	BREAD	4	5	[0, 0, 0]	n/a	FR1	0	R1187P
844.675	1.601	944778	WORD	n/a	wordpools/wordpool_EN.txt	CONE	5	5	[0, 0, 0]	n/a	FR1	0	R1187P
846.276	0.783	946379	WORD_OFF	n/a	n/a	CONE	5	5	[0, 0, 0]	n/a	FR1	0	R1187P
847.059	1.617	947162	WORD	n/a	wordpools/wordpool_EN.txt	TOOL	6	5	[0, 0, 0]	n/a	FR1	0	R1187P
848.676	0.834	948779	WORD_OFF	n/a	n/a	TOOL	6	5	[0, 0, 0]	n/a	FR1	0	R1187P
849.51	1.617	949613	WORD	n/a	wordpools/wordpool_EN.txt	HEN	7	5	[0, 0, 0]	n/a	FR1	0	R1187P
851.127	0.817	951230	WORD_OFF	n/a	n/a	HEN	7	5	[0, 0, 0]	n/a	FR1	0	R1187P
851.944	1.617	952047	WORD	n/a	wordpools/wordpool_EN.txt	WAND	8	5	[0, 0, 0]	n/a	FR1	0	R1187P
853.561	0.95	953664	WORD_OFF	n/a	n/a	WAND	8	5	[0, 0, 0]	n/a	FR1	0	R1187P
854.511	1.617	954614	WORD	n/a	wordpools/wordpool_EN.txt	YARD	9	5	[0, 0, 0]	n/a	FR1	0	R1187P
856.128	0.817	956231	WORD_OFF	n/a	n/a	YARD	9	5	[0, 0, 0]	n/a	FR1	0	R1187P
856.945	1.617	957048	WORD	n/a	wordpools/wordpool_EN.txt	HAT	10	5	[0, 0, 0]	n/a	FR1	0	R1187P
858.562	0.783	958665	WORD_OFF	n/a	n/a	HAT	10	5	[0, 0, 0]	n/a	FR1	0	R1187P
859.345	1.617	959448	WORD	n/a	wordpools/wordpool_EN.txt	POLE	11	5	[0, 0, 0]	n/a	FR1	0	R1187P
860.962	0.85	961065	WORD_OFF	n/a	n/a	POLE	11	5	[0, 0, 0]	n/a	FR1	0	R1187P
861.812	1.617	961914	WORD	n/a	wordpools/wordpool_EN.txt	DITCH	12	5	[0, 0, 0]	n/a	FR1	0	R1187P
863.429	0.0	963531	WORD_OFF	n/a	n/a	DITCH	12	5	[0, 0, 0]	n/a	FR1	0	R1187P
863.429	0.001	963531	DISTRACT_START	n/a	n/a	n/a	-999	5	[0, 0, 0]	n/a	FR1	0	R1187P
863.43	0.016	963532	START	n/a	n/a	n/a	-999	5	[-999, -999, -999]	n/a	FR1	0	R1187P
863.446	7.668	963548	PROB	7.668	n/a	n/a	-999	5	[1, 1, 4]	6	FR1	0	R1187P
871.114	7.301	971216	PROB	7.301	n/a	n/a	-999	5	[1, 6, 1]	8	FR1	0	R1187P
878.415	9.44	978517	PROB	9.44	n/a	n/a	-999	5	[8, 2, 8]	18	FR1	0	R1187P
887.855	0.012	987956	STOP	n/a	n/a	n/a	-999	5	[-999, -999, -999]	n/a	FR1	0	R1187P
887.867	0.7	987968	DISTRACT_END	n/a	n/a	n/a	-999	5	[0, 0, 0]	n/a	FR1	0	R1187P
888.567	0.518	988668	RETRIEVAL_ORIENT	n/a	n/a	n/a	-999	5	[0, 0, 0]	n/a	FR1	0	R1187P
889.085	1.509	989186	REC_START	n/a	n/a	n/a	-999	5	[0, 0, 0]	n/a	FR1	0	R1187P
890.594	2.417	990695	REC_WORD_VV	2.417	n/a	<>	-999	5	[0, 0, 0]	n/a	FR1	0	R1187P
893.011	1.04	993112	REC_WORD	1.04	n/a	YARD	9	5	[0, 0, 0]	n/a	FR1	0	R1187P
894.051	2.413	994152	REC_WORD	2.413	n/a	RAKE	1	5	[0, 0, 0]	n/a	FR1	0	R1187P
896.464	1.727	996565	REC_WORD_VV	1.727	n/a	<>	-999	5	[0, 0, 0]	n/a	FR1	0	R1187P
898.191	1.0	998292	REC_WORD	1.0	n/a	SPRING	-999	5	[0, 0, 0]	n/a	FR1	0	R1187P
899.191	1.992	999292	REC_WORD_VV	1.992	n/a	<>	-999	5	[0, 0, 0]	n/a	FR1	0	R1187P
901.183	6.401	1001284	REC_WORD_VV	6.401	n/a	<>	-999	5	[0, 0, 0]	n/a	FR1	0	R1187P
907.584	6.393	1007684	REC_WORD_VV	6.393	n/a	<>	-999	5	[0, 0, 0]	n/a	FR1	0	R1187P
913.977	0.968	1014077	REC_WORD_VV	0.968	n/a	<>	-999	5	[0, 0, 0]	n/a	FR1	0	R1187P
914.945	3.157	1015045	REC_WORD	3.157	n/a	CAR	-999	5	[0, 0, 0]	n/a	FR1	0	R1187P
918.102	0.995	1018202	REC_WORD_VV	0.995	n/a	<>	-999	5	[0, 0, 0]	n/a	FR1	0	R1187P
919.097	10.828	1019197	REC_END	n/a	n/a	n/a	-999	5	[0, 0, 0]	n/a	FR1	0	R1187P
929.925	0.5	1030024	TRIAL	n/a	n/a	n/a	-999	6	[0, 0, 0]	n/a	FR1	0	R1187P
930.425	10.428	1030524	COUNTDOWN_START	n/a	n/a	n/a	-999	6	[0, 0, 0]	n/a	FR1	0	R1187P
940.853	0.007	1040952	COUNTDOWN_END	n/a	n/a	n/a	-999	6	[0, 0, 0]	n/a	FR1	0	R1187P
940.86	1.617	1040959	ORIENT	n/a	n/a	n/a	-999	6	[0, 0, 0]	n/a	FR1	0	R1187P
942.477	2.117	1042576	ORIENT_OFF	n/a	n/a	n/a	-999	6	[0, 0, 0]	n/a	FR1	0	R1187P
944.594	1.617	1044692	WORD	n/a	wordpools/wordpool_EN.txt	WOOD	1	6	[0, 0, 0]	n/a	FR1	0	R1187P
946.211	0.817	1046309	WORD_OFF	n/a	n/a	WOOD	1	6	[0, 0, 0]	n/a	FR1	0	R1187P
947.028	1.617	1047126	WORD	n/a	wordpools/wordpool_EN.txt	PANTS	2	6	[0, 0, 0]	n/a	FR1	0	R1187P
948.645	0.834	1048743	WORD_OFF	n/a	n/a	PANTS	2	6	[0, 0, 0]	n/a	FR1	0	R1187P
949.479	1.617	1049577	WORD	n/a	wordpools/wordpool_EN.txt	ROOM	3	6	[0, 0, 0]	n/a	FR1	0	R1187P
951.096	0.917	1051194	WORD_OFF	n/a	n/a	ROOM	3	6	[0, 0, 0]	n/a	FR1	0	R1187P
952.013	1.616	1052111	WORD	n/a	wordpools/wordpool_EN.txt	FOG	4	6	[0, 0, 0]	n/a	FR1	0	R1187P
953.629	0.834	1053727	WORD_OFF	n/a	n/a	FOG	4	6	[0, 0, 0]	n/a	FR1	0	R1187P
954.463	1.617	1054561	WORD	n/a	wordpools/wordpool_EN.txt	SLUSH	5	6	[0, 0, 0]	n/a	FR1	0	R1187P
956.08	0.833	1056178	WORD_OFF	n/a	n/a	SLUSH	5	6	[0, 0, 0]	n/a	FR1	0	R1187P
956.913	1.617	1057011	WORD	n/a	wordpools/wordpool_EN.txt	WORM	6	6	[0, 0, 0]	n/a	FR1	0	R1187P
958.53	0.817	1058628	WORD_OFF	n/a	n/a	WORM	6	6	[0, 0, 0]	n/a	FR1	0	R1187P
959.347	1.617	1059445	WORD	n/a	wordpools/wordpool_EN.txt	PEAR	7	6	[0, 0, 0]	n/a	FR1	0	R1187P
960.964	0.967	1061062	WORD_OFF	n/a	n/a	PEAR	7	6	[0, 0, 0]	n/a	FR1	0	R1187P
961.931	1.617	1062029	WORD	n/a	wordpools/wordpool_EN.txt	BROOM	8	6	[0, 0, 0]	n/a	FR1	0	R1187P
963.548	0.967	1063645	WORD_OFF	n/a	n/a	BROOM	8	6	[0, 0, 0]	n/a	FR1	0	R1187P
964.515	1.617	1064612	WORD	n/a	wordpools/wordpool_EN.txt	STAIR	9	6	[0, 0, 0]	n/a	FR1	0	R1187P
966.132	0.817	1066229	WORD_OFF	n/a	n/a	STAIR	9	6	[0, 0, 0]	n/a	FR1	0	R1187P
966.949	1.617	1067046	WORD	n/a	wordpools/wordpool_EN.txt	PIE	10	6	[0, 0, 0]	n/a	FR1	0	R1187P
968.566	0.933	1068663	WORD_OFF	n/a	n/a	PIE	10	6	[0, 0, 0]	n/a	FR1	0	R1187P
969.499	1.617	1069596	WORD	n/a	wordpools/wordpool_EN.txt	NAIL	11	6	[0, 0, 0]	n/a	FR1	0	R1187P
971.116	0.95	1071213	WORD_OFF	n/a	n/a	NAIL	11	6	[0, 0, 0]	n/a	FR1	0	R1187P
972.066	1.617	1072163	WORD	n/a	wordpools/wordpool_EN.txt	SUIT	12	6	[0, 0, 0]	n/a	FR1	0	R1187P
973.683	0.0	1073780	DISTRACT_START	n/a	n/a	n/a	-999	6	[0, 0, 0]	n/a	FR1	0	R1187P
973.683	0.001	1073780	WORD_OFF	n/a	n/a	SUIT	12	6	[0, 0, 0]	n/a	FR1	0	R1187P
973.684	0.016	1073781	START	n/a	n/a	n/a	-999	6	[-999, -999, -999]	n/a	FR1	0	R1187P
973.7	9.768	1073797	PROB	9.768	n/a	n/a	-999	6	[3, 7, 2]	12	FR1	0	R1187P
983.468	17.122	1083565	PROB	17.122	n/a	n/a	-999	6	[4, 7, 9]	19	FR1	0	R1187P
1000.59	0.015	1100686	STOP	n/a	n/a	n/a	-999	6	[-999, -999, -999]	n/a	FR1	0	R1187P
1000.605	0.583	1100701	DISTRACT_END	n/a	n/a	n/a	-999	6	[0, 0, 0]	n/a	FR1	0	R1187P
1001.188	0.518	1101284	RETRIEVAL_ORIENT	n/a	n/a	n/a	-999	6	[0, 0, 0]	n/a	FR1	0	R1187P
1001.706	2.359	1101802	REC_START	n/a	n/a	n/a	-999	6	[0, 0, 0]	n/a	FR1	0	R1187P
1004.065	3.802	1104160	REC_WORD_VV	3.802	n/a	<>	-999	6	[0, 0, 0]	n/a	FR1	0	R1187P
1007.867	1.472	1107962	REC_WORD	1.472	n/a	ROOM	3	6	[0, 0, 0]	n/a	FR1	0	R1187P
1009.339	2.082	1109434	REC_WORD	2.082	n/a	COAT	-999	6	[0, 0, 0]	n/a	FR1	0	R1187P
1011.421	1.0	1111516	REC_WORD	1.0	n/a	STAIR	9	6	[0, 0, 0]	n/a	FR1	0	R1187P
1012.421	0.709	1112516	REC_WORD_VV	0.709	n/a	<>	-999	6	[0, 0, 0]	n/a	FR1	0	R1187P
1013.13	2.603	1113225	REC_WORD	2.603	n/a	JACKET	-999	6	[0, 0, 0]	n/a	FR1	0	R1187P
1015.733	1.368	1115828	REC_WORD_VV	1.368	n/a	<>	-999	6	[0, 0, 0]	n/a	FR1	0	R1187P
1017.101	3.144	1117196	REC_WORD	3.144	n/a	BROOM	8	6	[0, 0, 0]	n/a	FR1	0	R1187P
1020.245	6.233	1120340	REC_WORD_VV	6.233	n/a	<>	-999	6	[0, 0, 0]	n/a	FR1	0	R1187P
1026.478	4.798	1126572	REC_WORD_VV	4.798	n/a	<>	-999	6	[0, 0, 0]	n/a	FR1	0	R1187P
1031.276	0.442	1131370	REC_WORD_VV	0.442	n/a	<>	-999	6	[0, 0, 0]	n/a	FR1	0	R1187P
1031.718	7.678	1131812	REC_END	n/a	n/a	n/a	-999	6	[0, 0, 0]	n/a	FR1	0	R1187P
1039.396	0.5	1139490	TRIAL	n/a	n/a	n/a	-999	7	[0, 0, 0]	n/a	FR1	0	R1187P
1039.896	10.428	1139990	COUNTDOWN_START	n/a	n/a	n/a	-999	7	[0, 0, 0]	n/a	FR1	0	R1187P
1050.324	0.007	1150417	COUNTDOWN_END	n/a	n/a	n/a	-999	7	[0, 0, 0]	n/a	FR1	0	R1187P
1050.331	1.617	1150424	ORIENT	n/a	n/a	n/a	-999	7	[0, 0, 0]	n/a	FR1	0	R1187P
1051.948	2.233	1152041	ORIENT_OFF	n/a	n/a	n/a	-999	7	[0, 0, 0]	n/a	FR1	0	R1187P
1054.181	1.618	1154274	WORD	n/a	wordpools/wordpool_EN.txt	SWAMP	1	7	[0, 0, 0]	n/a	FR1	0	R1187P
1055.799	0.866	1155892	WORD_OFF	n/a	n/a	SWAMP	1	7	[0, 0, 0]	n/a	FR1	0	R1187P
1056.665	1.617	1156758	WORD	n/a	wordpools/wordpool_EN.txt	FLAG	2	7	[0, 0, 0]	n/a	FR1	0	R1187P
1058.282	0.9	1158375	WORD_OFF	n/a	n/a	FLAG	2	7	[0, 0, 0]	n/a	FR1	0	R1187P
1059.182	1.618	1159275	WORD	n/a	wordpools/wordpool_EN.txt	FARM	3	7	[0, 0, 0]	n/a	FR1	0	R1187P
1060.8	0.916	1160893	WORD_OFF	n/a	n/a	FARM	3	7	[0, 0, 0]	n/a	FR1	0	R1187P
1061.716	1.617	1161809	WORD	n/a	wordpools/wordpool_EN.txt	CHALK	4	7	[0, 0, 0]	n/a	FR1	0	R1187P
1063.333	0.967	1163426	WORD_OFF	n/a	n/a	CHALK	4	7	[0, 0, 0]	n/a	FR1	0	R1187P
1064.3	1.617	1164393	WORD	n/a	wordpools/wordpool_EN.txt	RAT	5	7	[0, 0, 0]	n/a	FR1	0	R1187P
1065.917	0.867	1166009	WORD_OFF	n/a	n/a	RAT	5	7	[0, 0, 0]	n/a	FR1	0	R1187P
1066.784	1.617	1166876	WORD	n/a	wordpools/wordpool_EN.txt	SPARK	6	7	[0, 0, 0]	n/a	FR1	0	R1187P
1068.401	0.95	1168493	WORD_OFF	n/a	n/a	SPARK	6	7	[0, 0, 0]	n/a	FR1	0	R1187P
1069.351	1.617	1169443	WORD	n/a	wordpools/wordpool_EN.txt	CLOUD	7	7	[0, 0, 0]	n/a	FR1	0	R1187P
1070.968	0.917	1171060	WORD_OFF	n/a	n/a	CLOUD	7	7	[0, 0, 0]	n/a	FR1	0	R1187P
1071.885	1.617	1171977	WORD	n/a	wordpools/wordpool_EN.txt	CANE	8	7	[0, 0, 0]	n/a	FR1	0	R1187P
1073.502	0.817	1173594	WORD_OFF	n/a	n/a	CANE	8	7	[0, 0, 0]	n/a	FR1	0	R1187P
1074.319	1.617	1174411	WORD	n/a	wordpools/wordpool_EN.txt	SHARK	9	7	[0, 0, 0]	n/a	FR1	0	R1187P
1075.936	0.833	1176028	WORD_OFF	n/a	n/a	SHARK	9	7	[0, 0, 0]	n/a	FR1	0	R1187P
1076.769	1.617	1176861	WORD	n/a	wordpools/wordpool_EN.txt	SHEEP	10	7	[0, 0, 0]	n/a	FR1	0	R1187P
1078.386	0.95	1178478	WORD_OFF	n/a	n/a	SHEEP	10	7	[0, 0, 0]	n/a	FR1	0	R1187P
1079.336	1.617	1179428	WORD	n/a	wordpools/wordpool_EN.txt	SNAIL	11	7	[0, 0, 0]	n/a	FR1	0	R1187P
1080.953	1.001	1181045	WORD_OFF	n/a	n/a	SNAIL	11	7	[0, 0, 0]	n/a	FR1	0	R1187P
1081.954	1.616	1182046	WORD	n/a	wordpools/wordpool_EN.txt	SEED	12	7	[0, 0, 0]	n/a	FR1	0	R1187P
1083.57	0.0	1183662	WORD_OFF	n/a	n/a	SEED	12	7	[0, 0, 0]	n/a	FR1	0	R1187P
1083.57	0.001	1183662	DISTRACT_START	n/a	n/a	n/a	-999	7	[0, 0, 0]	n/a	FR1	0	R1187P
1083.571	0.016	1183663	START	n/a	n/a	n/a	-999	7	[-999, -999, -999]	n/a	FR1	0	R1187P
1083.587	11.786	1183679	PROB	11.786	n/a	n/a	-999	7	[6, 2, 3]	11	FR1	0	R1187P
1095.373	7.301	1195464	PROB	7.301	n/a	n/a	-999	7	[7, 3, 5]	15	FR1	0	R1187P
1102.674	18.828	1202765	PROB	18.828	n/a	n/a	-999	7	[9, 8, 6]	23	FR1	0	R1187P
1121.502	0.009	1221592	STOP	n/a	n/a	n/a	-999	7	[-999, -999, -999]	n/a	FR1	0	R1187P
1121.511	0.55	1221601	DISTRACT_END	n/a	n/a	n/a	-999	7	[0, 0, 0]	n/a	FR1	0	R1187P
1122.061	0.517	1222151	RETRIEVAL_ORIENT	n/a	n/a	n/a	-999	7	[0, 0, 0]	n/a	FR1	0	R1187P
1122.578	2.763	1222668	REC_START	n/a	n/a	n/a	-999	7	[0, 0, 0]	n/a	FR1	0	R1187P
1125.341	0.865	1225431	REC_WORD_VV	0.865	n/a	<>	-999	7	[0, 0, 0]	n/a	FR1	0	R1187P
1126.206	0.058	1226296	REC_WORD_VV	0.058	n/a	<>	-999	7	[0, 0, 0]	n/a	FR1	0	R1187P
1126.264	1.0	1226354	REC_WORD	1.0	n/a	RAT	5	7	[0, 0, 0]	n/a	FR1	0	R1187P
1127.264	1.471	1227353	REC_WORD_VV	1.471	n/a	<>	-999	7	[0, 0, 0]	n/a	FR1	0	R1187P
1128.735	15.736	1228824	REC_WORD_VV	15.736	n/a	<>	-999	7	[0, 0, 0]	n/a	FR1	0	R1187P
1144.471	5.1	1244560	REC_WORD_VV	5.1	n/a	<>	-999	7	[0, 0, 0]	n/a	FR1	0	R1187P
1149.571	2.532	1249659	REC_WORD	2.532	n/a	CHALK	4	7	[0, 0, 0]	n/a	FR1	0	R1187P
1152.103	0.487	1252191	REC_WORD_VV	0.487	n/a	<>	-999	7	[0, 0, 0]	n/a	FR1	0	R1187P
1152.59	38.634	1252678	REC_END	n/a	n/a	n/a	-999	7	[0, 0, 0]	n/a	FR1	0	R1187P
1191.224	0.5	1291310	TRIAL	n/a	n/a	n/a	-999	8	[0, 0, 0]	n/a	FR1	0	R1187P
1191.724	10.428	1291810	COUNTDOWN_START	n/a	n/a	n/a	-999	8	[0, 0, 0]	n/a	FR1	0	R1187P
1202.152	0.007	1302238	COUNTDOWN_END	n/a	n/a	n/a	-999	8	[0, 0, 0]	n/a	FR1	0	R1187P
1202.159	1.617	1302245	ORIENT	n/a	n/a	n/a	-999	8	[0, 0, 0]	n/a	FR1	0	R1187P
1203.776	2.001	1303862	ORIENT_OFF	n/a	n/a	n/a	-999	8	[0, 0, 0]	n/a	FR1	0	R1187P
1205.777	1.617	1305863	WORD	n/a	wordpools/wordpool_EN.txt	WEED	1	8	[0, 0, 0]	n/a	FR1	0	R1187P
1207.394	0.782	1307480	WORD_OFF	n/a	n/a	WEED	1	8	[0, 0, 0]	n/a	FR1	0	R1187P
1208.176	1.601	1308262	WORD	n/a	wordpools/wordpool_EN.txt	TRAY	2	8	[0, 0, 0]	n/a	FR1	0	R1187P
1209.777	0.917	1309862	WORD_OFF	n/a	n/a	TRAY	2	8	[0, 0, 0]	n/a	FR1	0	R1187P
1210.694	1.617	1310779	WORD	n/a	wordpools/wordpool_EN.txt	SNOW	3	8	[0, 0, 0]	n/a	FR1	0	R1187P
1212.311	0.984	1312396	WORD_OFF	n/a	n/a	SNOW	3	8	[0, 0, 0]	n/a	FR1	0	R1187P
1213.295	1.617	1313380	WORD	n/a	wordpools/wordpool_EN.txt	PALM	4	8	[0, 0, 0]	n/a	FR1	0	R1187P
1214.912	0.9	1314997	WORD_OFF	n/a	n/a	PALM	4	8	[0, 0, 0]	n/a	FR1	0	R1187P
1215.812	1.617	1315897	WORD	n/a	wordpools/wordpool_EN.txt	FOAM	5	8	[0, 0, 0]	n/a	FR1	0	R1187P
1217.429	0.85	1317514	WORD_OFF	n/a	n/a	FOAM	5	8	[0, 0, 0]	n/a	FR1	0	R1187P
1218.279	1.617	1318364	WORD	n/a	wordpools/wordpool_EN.txt	FENCE	6	8	[0, 0, 0]	n/a	FR1	0	R1187P
1219.896	0.834	1319981	WORD_OFF	n/a	n/a	FENCE	6	8	[0, 0, 0]	n/a	FR1	0	R1187P
1220.73	1.616	1320815	WORD	n/a	wordpools/wordpool_EN.txt	COW	7	8	[0, 0, 0]	n/a	FR1	0	R1187P
1222.346	0.951	1322431	WORD_OFF	n/a	n/a	COW	7	8	[0, 0, 0]	n/a	FR1	0	R1187P
1223.297	1.617	1323382	WORD	n/a	wordpools/wordpool_EN.txt	GEESE	8	8	[0, 0, 0]	n/a	FR1	0	R1187P
1224.914	0.917	1324999	WORD_OFF	n/a	n/a	GEESE	8	8	[0, 0, 0]	n/a	FR1	0	R1187P
1225.831	1.616	1325916	WORD	n/a	wordpools/wordpool_EN.txt	TOAST	9	8	[0, 0, 0]	n/a	FR1	0	R1187P
1227.447	0.817	1327532	WORD_OFF	n/a	n/a	TOAST	9	8	[0, 0, 0]	n/a	FR1	0	R1187P
1228.264	1.617	1328349	WORD	n/a	wordpools/wordpool_EN.txt	SINK	10	8	[0, 0, 0]	n/a	FR1	0	R1187P
1229.881	0.867	1329965	WORD_OFF	n/a	n/a	SINK	10	8	[0, 0, 0]	n/a	FR1	0	R1187P
1230.748	1.617	1330832	WORD	n/a	wordpools/wordpool_EN.txt	BAG	11	8	[0, 0, 0]	n/a	FR1	0	R1187P
1232.365	0.95	1332449	WORD_OFF	n/a	n/a	BAG	11	8	[0, 0, 0]	n/a	FR1	0	R1187P
1233.315	1.617	1333399	WORD	n/a	wordpools/wordpool_EN.txt	NEST	12	8	[0, 0, 0]	n/a	FR1	0	R1187P
1234.932	0.0	1335016	WORD_OFF	n/a	n/a	NEST	12	8	[0, 0, 0]	n/a	FR1	0	R1187P
1234.932	0.001	1335016	DISTRACT_START	n/a	n/a	n/a	-999	8	[0, 0, 0]	n/a	FR1	0	R1187P
1234.933	0.016	1335017	START	n/a	n/a	n/a	-999	8	[-999, -999, -999]	n/a	FR1	0	R1187P
1234.949	15.186	1335033	PROB	15.186	n/a	n/a	-999	8	[7, 8, 7]	22	FR1	0	R1187P
1250.135	8.024	1350218	PROB	8.024	n/a	n/a	-999	8	[1, 6, 4]	11	FR1	0	R1187P
1258.159	0.01	1358242	STOP	n/a	n/a	n/a	-999	8	[-999, -999, -999]	n/a	FR1	0	R1187P
1258.169	0.617	1358252	DISTRACT_END	n/a	n/a	n/a	-999	8	[0, 0, 0]	n/a	FR1	0	R1187P
1258.786	0.519	1358869	RETRIEVAL_ORIENT	n/a	n/a	n/a	-999	8	[0, 0, 0]	n/a	FR1	0	R1187P
1259.305	1.686	1359388	REC_START	n/a	n/a	n/a	-999	8	[0, 0, 0]	n/a	FR1	0	R1187P
1260.991	1.0	1361074	REC_WORD_VV	1.0	n/a	<>	-999	8	[0, 0, 0]	n/a	FR1	0	R1187P
1261.991	0.473	1362074	REC_WORD_VV	0.473	n/a	<>	-999	8	[0, 0, 0]	n/a	FR1	0	R1187P
1262.464	1.434	1362547	REC_WORD	1.434	n/a	WEED	1	8	[0, 0, 0]	n/a	FR1	0	R1187P
1263.898	1.0	1363981	REC_WORD	1.0	n/a	GRASS	-999	8	[0, 0, 0]	n/a	FR1	0	R1187P
1264.898	0.923	1364981	REC_WORD_VV	0.923	n/a	<>	-999	8	[0, 0, 0]	n/a	FR1	0	R1187P
1265.821	1.0	1365904	REC_WORD	1.0	n/a	COW	7	8	[0, 0, 0]	n/a	FR1	0	R1187P
1266.821	1.958	1366904	REC_WORD_VV	1.958	n/a	<>	-999	8	[0, 0, 0]	n/a	FR1	0	R1187P
1268.779	6.939	1368862	REC_WORD_VV	6.939	n/a	<>	-999	8	[0, 0, 0]	n/a	FR1	0	R1187P
1275.718	0.542	1375800	REC_WORD_VV	0.542	n/a	<>	-999	8	[0, 0, 0]	n/a	FR1	0	R1187P
1276.26	3.373	1376342	REC_WORD	3.373	n/a	GEESE	8	8	[0, 0, 0]	n/a	FR1	0	R1187P
1279.633	9.292	1379715	REC_WORD_VV	9.292	n/a	<>	-999	8	[0, 0, 0]	n/a	FR1	0	R1187P
1288.925	0.39	1389007	REC_WORD_VV	0.39	n/a	<>	-999	8	[0, 0, 0]	n/a	FR1	0	R1187P
1289.315	9.096	1389397	REC_END	n/a	n/a	n/a	-999	8	[0, 0, 0]	n/a	FR1	0	R1187P
1298.411	0.5	1398492	TRIAL	n/a	n/a	n/a	-999	9	[0, 0, 0]	n/a	FR1	0	R1187P
1298.911	10.428	1398992	COUNTDOWN_START	n/a	n/a	n/a	-999	9	[0, 0, 0]	n/a	FR1	0	R1187P
1309.339	0.007	1409420	COUNTDOWN_END	n/a	n/a	n/a	-999	9	[0, 0, 0]	n/a	FR1	0	R1187P
1309.346	1.617	1409427	ORIENT	n/a	n/a	n/a	-999	9	[0, 0, 0]	n/a	FR1	0	R1187P
1310.963	2.167	1411043	ORIENT_OFF	n/a	n/a	n/a	-999	9	[0, 0, 0]	n/a	FR1	0	R1187P
1313.13	1.617	1413210	WORD	n/a	wordpools/wordpool_EN.txt	PRINCE	1	9	[0, 0, 0]	n/a	FR1	0	R1187P
1314.747	0.901	1414827	WORD_OFF	n/a	n/a	PRINCE	1	9	[0, 0, 0]	n/a	FR1	0	R1187P
1315.648	1.616	1415728	WORD	n/a	wordpools/wordpool_EN.txt	SMOKE	2	9	[0, 0, 0]	n/a	FR1	0	R1187P
1317.264	0.967	1417344	WORD_OFF	n/a	n/a	SMOKE	2	9	[0, 0, 0]	n/a	FR1	0	R1187P
1318.231	1.617	1418311	WORD	n/a	wordpools/wordpool_EN.txt	ICE	3	9	[0, 0, 0]	n/a	FR1	0	R1187P
1319.848	0.784	1419928	WORD_OFF	n/a	n/a	ICE	3	9	[0, 0, 0]	n/a	FR1	0	R1187P
1320.632	1.617	1420712	WORD	n/a	wordpools/wordpool_EN.txt	MOLE	4	9	[0, 0, 0]	n/a	FR1	0	R1187P
1322.249	0.916	1422329	WORD_OFF	n/a	n/a	MOLE	4	9	[0, 0, 0]	n/a	FR1	0	R1187P
1323.165	1.617	1423245	WORD	n/a	wordpools/wordpool_EN.txt	TREE	5	9	[0, 0, 0]	n/a	FR1	0	R1187P
1324.782	0.901	1424862	WORD_OFF	n/a	n/a	TREE	5	9	[0, 0, 0]	n/a	FR1	0	R1187P
1325.683	1.617	1425763	WORD	n/a	wordpools/wordpool_EN.txt	STRING	6	9	[0, 0, 0]	n/a	FR1	0	R1187P
1327.3	0.865	1427380	WORD_OFF	n/a	n/a	STRING	6	9	[0, 0, 0]	n/a	FR1	0	R1187P
1328.165	1.601	1428245	WORD	n/a	wordpools/wordpool_EN.txt	WHEEL	7	9	[0, 0, 0]	n/a	FR1	0	R1187P
1329.766	0.984	1429846	WORD_OFF	n/a	n/a	WHEEL	7	9	[0, 0, 0]	n/a	FR1	0	R1187P
1330.75	1.617	1430829	WORD	n/a	wordpools/wordpool_EN.txt	TEETH	8	9	[0, 0, 0]	n/a	FR1	0	R1187P
1332.367	0.816	1432446	WORD_OFF	n/a	n/a	TEETH	8	9	[0, 0, 0]	n/a	FR1	0	R1187P
1333.183	1.618	1433262	WORD	n/a	wordpools/wordpool_EN.txt	DOCK	9	9	[0, 0, 0]	n/a	FR1	0	R1187P
1334.801	0.95	1434880	WORD_OFF	n/a	n/a	DOCK	9	9	[0, 0, 0]	n/a	FR1	0	R1187P
1335.751	1.617	1435830	WORD	n/a	wordpools/wordpool_EN.txt	STORE	10	9	[0, 0, 0]	n/a	FR1	0	R1187P
1337.368	1.0	1437447	WORD_OFF	n/a	n/a	STORE	10	9	[0, 0, 0]	n/a	FR1	0	R1187P
1338.368	1.617	1438447	WORD	n/a	wordpools/wordpool_EN.txt	MOUSE	11	9	[0, 0, 0]	n/a	FR1	0	R1187P
1339.985	0.801	1440064	WORD_OFF	n/a	n/a	MOUSE	11	9	[0, 0, 0]	n/a	FR1	0	R1187P
1340.786	1.616	1440865	WORD	n/a	wordpools/wordpool_EN.txt	WORLD	12	9	[0, 0, 0]	n/a	FR1	0	R1187P
1342.402	0.0	1442481	WORD_OFF	n/a	n/a	WORLD	12	9	[0, 0, 0]	n/a	FR1	0	R1187P
1342.402	0.001	1442481	DISTRACT_START	n/a	n/a	n/a	-999	9	[0, 0, 0]	n/a	FR1	0	R1187P
1342.403	0.016	1442482	START	n/a	n/a	n/a	-999	9	[-999, -999, -999]	n/a	FR1	0	R1187P
1342.419	9.252	1442498	PROB	9.252	n/a	n/a	-999	9	[3, 6, 9]	18	FR1	0	R1187P
1351.671	18.169	1451749	PROB	18.169	n/a	n/a	-999	9	[2, 5, 9]	16	FR1	0	R1187P
1369.84	0.018	1469918	STOP	n/a	n/a	n/a	-999	9	[-999, -999, -999]	n/a	FR1	0	R1187P
1369.858	0.683	1469936	DISTRACT_END	n/a	n/a	n/a	-999	9	[0, 0, 0]	n/a	FR1	0	R1187P
1370.541	0.517	1470619	RETRIEVAL_ORIENT	n/a	n/a	n/a	-999	9	[0, 0, 0]	n/a	FR1	0	R1187P
1371.058	1.423	1471136	REC_START	n/a	n/a	n/a	-999	9	[0, 0, 0]	n/a	FR1	0	R1187P
1372.481	2.333	1472558	REC_WORD_VV	2.333	n/a	<>	-999	9	[0, 0, 0]	n/a	FR1	0	R1187P
1374.814	1.0	1474891	REC_WORD	1.0	n/a	SMOKE	2	9	[0, 0, 0]	n/a	FR1	0	R1187P
1375.814	2.163	1475891	REC_WORD_VV	2.163	n/a	<>	-999	9	[0, 0, 0]	n/a	FR1	0	R1187P
1377.977	1.189	1478054	REC_WORD	1.189	n/a	WEED	-999	9	[0, 0, 0]	n/a	FR1	0	R1187P
1379.166	1.0	1479243	REC_WORD	1.0	n/a	GRASS	-999	9	[0, 0, 0]	n/a	FR1	0	R1187P
1380.166	2.296	1480243	REC_WORD_VV	2.296	n/a	<>	-999	9	[0, 0, 0]	n/a	FR1	0	R1187P
1382.462	18.609	1482539	REC_WORD_VV	18.609	n/a	<>	-999	9	[0, 0, 0]	n/a	FR1	0	R1187P
1401.071	8.827	1501147	REC_END	n/a	n/a	n/a	-999	9	[0, 0, 0]	n/a	FR1	0	R1187P
1409.898	0.5	1509974	TRIAL	n/a	n/a	n/a	-999	10	[0, 0, 0]	n/a	FR1	0	R1187P
1410.398	10.428	1510474	COUNTDOWN_START	n/a	n/a	n/a	-999	10	[0, 0, 0]	n/a	FR1	0	R1187P
1420.826	0.008	1520901	COUNTDOWN_END	n/a	n/a	n/a	-999	10	[0, 0, 0]	n/a	FR1	0	R1187P
1420.834	1.617	1520909	ORIENT	n/a	n/a	n/a	-999	10	[0, 0, 0]	n/a	FR1	0	R1187P
1422.451	2.017	1522526	ORIENT_OFF	n/a	n/a	n/a	-999	10	[0, 0, 0]	n/a	FR1	0	R1187P
1424.468	1.617	1524543	WORD	n/a	wordpools/wordpool_EN.txt	BATH	1	10	[0, 0, 0]	n/a	FR1	0	R1187P
1426.085	0.8	1526160	WORD_OFF	n/a	n/a	BATH	1	10	[0, 0, 0]	n/a	FR1	0	R1187P
1426.885	1.617	1526960	WORD	n/a	wordpools/wordpool_EN.txt	BRUSH	2	10	[0, 0, 0]	n/a	FR1	0	R1187P
1428.502	0.967	1528577	WORD_OFF	n/a	n/a	BRUSH	2	10	[0, 0, 0]	n/a	FR1	0	R1187P
1429.469	1.617	1529544	WORD	n/a	wordpools/wordpool_EN.txt	FLAME	3	10	[0, 0, 0]	n/a	FR1	0	R1187P
1431.086	0.95	1531161	WORD_OFF	n/a	n/a	FLAME	3	10	[0, 0, 0]	n/a	FR1	0	R1187P
1432.036	1.617	1532111	WORD	n/a	wordpools/wordpool_EN.txt	VAN	4	10	[0, 0, 0]	n/a	FR1	0	R1187P
1433.653	0.933	1533727	WORD_OFF	n/a	n/a	VAN	4	10	[0, 0, 0]	n/a	FR1	0	R1187P
1434.586	1.617	1534660	WORD	n/a	wordpools/wordpool_EN.txt	CUP	5	10	[0, 0, 0]	n/a	FR1	0	R1187P
1436.203	0.917	1536277	WORD_OFF	n/a	n/a	CUP	5	10	[0, 0, 0]	n/a	FR1	0	R1187P
1437.12	1.617	1537194	WORD	n/a	wordpools/wordpool_EN.txt	CORN	6	10	[0, 0, 0]	n/a	FR1	0	R1187P
1438.737	0.9	1538811	WORD_OFF	n/a	n/a	CORN	6	10	[0, 0, 0]	n/a	FR1	0	R1187P
1439.637	1.617	1539711	WORD	n/a	wordpools/wordpool_EN.txt	SUN	7	10	[0, 0, 0]	n/a	FR1	0	R1187P
1441.254	0.867	1541328	WORD_OFF	n/a	n/a	SUN	7	10	[0, 0, 0]	n/a	FR1	0	R1187P
1442.121	1.617	1542195	WORD	n/a	wordpools/wordpool_EN.txt	PEN	8	10	[0, 0, 0]	n/a	FR1	0	R1187P
1443.738	0.85	1543812	WORD_OFF	n/a	n/a	PEN	8	10	[0, 0, 0]	n/a	FR1	0	R1187P
1444.588	1.617	1544662	WORD	n/a	wordpools/wordpool_EN.txt	HOSE	9	10	[0, 0, 0]	n/a	FR1	0	R1187P
1446.205	0.834	1546279	WORD_OFF	n/a	n/a	HOSE	9	10	[0, 0, 0]	n/a	FR1	0	R1187P
1447.039	1.617	1547113	WORD	n/a	wordpools/wordpool_EN.txt	GATE	10	10	[0, 0, 0]	n/a	FR1	0	R1187P
1448.656	0.85	1548730	WORD_OFF	n/a	n/a	GATE	10	10	[0, 0, 0]	n/a	FR1	0	R1187P
1449.506	1.617	1549580	WORD	n/a	wordpools/wordpool_EN.txt	PEA	11	10	[0, 0, 0]	n/a	FR1	0	R1187P
1451.123	1.0	1551197	WORD_OFF	n/a	n/a	PEA	11	10	[0, 0, 0]	n/a	FR1	0	R1187P
1452.123	1.617	1552197	WORD	n/a	wordpools/wordpool_EN.txt	PLATE	12	10	[0, 0, 0]	n/a	FR1	0	R1187P
1453.74	0.0	1553813	WORD_OFF	n/a	n/a	PLATE	12	10	[0, 0, 0]	n/a	FR1	0	R1187P
1453.74	0.001	1553813	DISTRACT_START	n/a	n/a	n/a	-999	10	[0, 0, 0]	n/a	FR1	0	R1187P
1453.741	0.016	1553814	START	n/a	n/a	n/a	-999	10	[-999, -999, -999]	n/a	FR1	0	R1187P
1453.757	34.034	1553830	PROB	34.034	n/a	n/a	-999	10	[6, 5, 4]	15	FR1	0	R1187P
1487.791	0.005	1587863	STOP	n/a	n/a	n/a	-999	10	[-999, -999, -999]	n/a	FR1	0	R1187P
1487.796	0.517	1587868	DISTRACT_END	n/a	n/a	n/a	-999	10	[0, 0, 0]	n/a	FR1	0	R1187P
1488.313	0.518	1588385	RETRIEVAL_ORIENT	n/a	n/a	n/a	-999	10	[0, 0, 0]	n/a	FR1	0	R1187P
1488.831	3.985	1588903	REC_START	n/a	n/a	n/a	-999	10	[0, 0, 0]	n/a	FR1	0	R1187P
1492.816	18.934	1592888	REC_WORD_VV	18.934	n/a	<>	-999	10	[0, 0, 0]	n/a	FR1	0	R1187P
1511.75	1.0	1611821	REC_WORD_VV	1.0	n/a	<>	-999	10	[0, 0, 0]	n/a	FR1	0	R1187P
1512.75	5.001	1612821	REC_WORD_VV	5.001	n/a	<>	-999	10	[0, 0, 0]	n/a	FR1	0	R1187P
1517.751	1.0	1617821	REC_WORD_VV	1.0	n/a	<>	-999	10	[0, 0, 0]	n/a	FR1	0	R1187P
1518.751	0.092	1618821	REC_WORD_VV	0.092	n/a	<>	-999	10	[0, 0, 0]	n/a	FR1	0	R1187P
1518.843	12.878	1618913	REC_END	n/a	n/a	n/a	-999	10	[0, 0, 0]	n/a	FR1	0	R1187P
1531.721	0.5	1631791	TRIAL	n/a	n/a	n/a	-999	11	[0, 0, 0]	n/a	FR1	0	R1187P
1532.221	10.428	1632291	COUNTDOWN_START	n/a	n/a	n/a	-999	11	[0, 0, 0]	n/a	FR1	0	R1187P
1542.649	0.008	1642718	COUNTDOWN_END	n/a	n/a	n/a	-999	11	[0, 0, 0]	n/a	FR1	0	R1187P
1542.657	1.617	1642726	ORIENT	n/a	n/a	n/a	-999	11	[0, 0, 0]	n/a	FR1	0	R1187P
1544.274	2.133	1644343	ORIENT_OFF	n/a	n/a	n/a	-999	11	[0, 0, 0]	n/a	FR1	0	R1187P
1546.407	1.617	1646476	WORD	n/a	wordpools/wordpool_EN.txt	MAZE	1	11	[0, 0, 0]	n/a	FR1	0	R1187P
1548.024	0.851	1648093	WORD_OFF	n/a	n/a	MAZE	1	11	[0, 0, 0]	n/a	FR1	0	R1187P
1548.875	1.616	1648944	WORD	n/a	wordpools/wordpool_EN.txt	STAR	2	11	[0, 0, 0]	n/a	FR1	0	R1187P
1550.491	0.85	1650560	WORD_OFF	n/a	n/a	STAR	2	11	[0, 0, 0]	n/a	FR1	0	R1187P
1551.341	1.618	1651410	WORD	n/a	wordpools/wordpool_EN.txt	SCHOOL	3	11	[0, 0, 0]	n/a	FR1	0	R1187P
1552.959	0.916	1653028	WORD_OFF	n/a	n/a	SCHOOL	3	11	[0, 0, 0]	n/a	FR1	0	R1187P
1553.875	1.617	1653944	WORD	n/a	wordpools/wordpool_EN.txt	BOWL	4	11	[0, 0, 0]	n/a	FR1	0	R1187P
1555.492	0.784	1655560	WORD_OFF	n/a	n/a	BOWL	4	11	[0, 0, 0]	n/a	FR1	0	R1187P
1556.276	1.617	1656344	WORD	n/a	wordpools/wordpool_EN.txt	NET	5	11	[0, 0, 0]	n/a	FR1	0	R1187P
1557.893	0.817	1657961	WORD_OFF	n/a	n/a	NET	5	11	[0, 0, 0]	n/a	FR1	0	R1187P
1558.71	1.617	1658778	WORD	n/a	wordpools/wordpool_EN.txt	BLOOM	6	11	[0, 0, 0]	n/a	FR1	0	R1187P
1560.327	0.8	1660395	WORD_OFF	n/a	n/a	BLOOM	6	11	[0, 0, 0]	n/a	FR1	0	R1187P
1561.127	1.617	1661195	WORD	n/a	wordpools/wordpool_EN.txt	BALL	7	11	[0, 0, 0]	n/a	FR1	0	R1187P
1562.744	1.0	1662812	WORD_OFF	n/a	n/a	BALL	7	11	[0, 0, 0]	n/a	FR1	0	R1187P
1563.744	1.617	1663812	WORD	n/a	wordpools/wordpool_EN.txt	KITE	8	11	[0, 0, 0]	n/a	FR1	0	R1187P
1565.361	0.917	1665429	WORD_OFF	n/a	n/a	KITE	8	11	[0, 0, 0]	n/a	FR1	0	R1187P
1566.278	1.617	1666346	WORD	n/a	wordpools/wordpool_EN.txt	BEACH	9	11	[0, 0, 0]	n/a	FR1	0	R1187P
1567.895	0.767	1667963	WORD_OFF	n/a	n/a	BEACH	9	11	[0, 0, 0]	n/a	FR1	0	R1187P
1568.662	1.617	1668730	WORD	n/a	wordpools/wordpool_EN.txt	SIGN	10	11	[0, 0, 0]	n/a	FR1	0	R1187P
1570.279	0.933	1670347	WORD_OFF	n/a	n/a	SIGN	10	11	[0, 0, 0]	n/a	FR1	0	R1187P
1571.212	1.617	1671280	WORD	n/a	wordpools/wordpool_EN.txt	SPONGE	11	11	[0, 0, 0]	n/a	FR1	0	R1187P
1572.829	0.8	1672897	WORD_OFF	n/a	n/a	SPONGE	11	11	[0, 0, 0]	n/a	FR1	0	R1187P
1573.629	1.617	1673697	WORD	n/a	wordpools/wordpool_EN.txt	MOON	12	11	[0, 0, 0]	n/a	FR1	0	R1187P
1575.246	0.0	1675314	WORD_OFF	n/a	n/a	MOON	12	11	[0, 0, 0]	n/a	FR1	0	R1187P
1575.246	0.001	1675314	DISTRACT_START	n/a	n/a	n/a	-999	11	[0, 0, 0]	n/a	FR1	0	R1187P
1575.247	0.016	1675315	START	n/a	n/a	n/a	-999	11	[-999, -999, -999]	n/a	FR1	0	R1187P
1575.263	11.869	1675331	PROB	11.869	n/a	n/a	-999	11	[6, 5, 5]	16	FR1	0	R1187P
1587.132	42.65	1687199	PROB	42.65	n/a	n/a	-999	11	[7, 9, 6]	21	FR1	0	R1187P
1629.782	0.008	1729847	STOP	n/a	n/a	n/a	-999	11	[-999, -999, -999]	n/a	FR1	0	R1187P
1629.79	0.65	1729855	DISTRACT_END	n/a	n/a	n/a	-999	11	[0, 0, 0]	n/a	FR1	0	R1187P
1630.44	0.517	1730505	RETRIEVAL_ORIENT	n/a	n/a	n/a	-999	11	[0, 0, 0]	n/a	FR1	0	R1187P
1630.957	5.831	1731022	REC_START	n/a	n/a	n/a	-999	11	[0, 0, 0]	n/a	FR1	0	R1187P
1636.788	11.53	1736853	REC_WORD_VV	11.53	n/a	<>	-999	11	[0, 0, 0]	n/a	FR1	0	R1187P
1648.318	6.445	1748382	REC_WORD_VV	6.445	n/a	<>	-999	11	[0, 0, 0]	n/a	FR1	0	R1187P
1654.763	1.879	1754827	REC_WORD	1.879	n/a	SPRING	-999	11	[0, 0, 0]	n/a	FR1	0	R1187P
1656.642	3.211	1756706	REC_WORD	3.211	n/a	COW	-999	11	[0, 0, 0]	n/a	FR1	0	R1187P
1659.853	1.116	1759916	REC_WORD_VV	1.116	n/a	<>	-999	11	[0, 0, 0]	n/a	FR1	0	R1187P
1660.969	14.013	1761032	REC_END	n/a	n/a	n/a	-999	11	[0, 0, 0]	n/a	FR1	0	R1187P
1674.982	0.5	1775045	TRIAL	n/a	n/a	n/a	-999	12	[0, 0, 0]	n/a	FR1	0	R1187P
1675.482	10.428	1775545	COUNTDOWN_START	n/a	n/a	n/a	-999	12	[0, 0, 0]	n/a	FR1	0	R1187P
1685.91	0.007	1785972	COUNTDOWN_END	n/a	n/a	n/a	-999	12	[0, 0, 0]	n/a	FR1	0	R1187P
1685.917	1.617	1785979	ORIENT	n/a	n/a	n/a	-999	12	[0, 0, 0]	n/a	FR1	0	R1187P
1687.534	2.1	1787596	ORIENT_OFF	n/a	n/a	n/a	-999	12	[0, 0, 0]	n/a	FR1	0	R1187P
1689.634	1.617	1789696	WORD	n/a	wordpools/wordpool_EN.txt	TOAD	1	12	[0, 0, 0]	n/a	FR1	0	R1187P
1691.251	1.017	1791313	WORD_OFF	n/a	n/a	TOAD	1	12	[0, 0, 0]	n/a	FR1	0	R1187P
1692.268	1.617	1792330	WORD	n/a	wordpools/wordpool_EN.txt	EEL	2	12	[0, 0, 0]	n/a	FR1	0	R1187P
1693.885	1.0	1793947	WORD_OFF	n/a	n/a	EEL	2	12	[0, 0, 0]	n/a	FR1	0	R1187P
1694.885	1.617	1794947	WORD	n/a	wordpools/wordpool_EN.txt	POND	3	12	[0, 0, 0]	n/a	FR1	0	R1187P
1696.502	0.917	1796564	WORD_OFF	n/a	n/a	POND	3	12	[0, 0, 0]	n/a	FR1	0	R1187P
1697.419	1.617	1797481	WORD	n/a	wordpools/wordpool_EN.txt	DRUM	4	12	[0, 0, 0]	n/a	FR1	0	R1187P
1699.036	0.833	1799097	WORD_OFF	n/a	n/a	DRUM	4	12	[0, 0, 0]	n/a	FR1	0	R1187P
1699.869	1.618	1799930	WORD	n/a	wordpools/wordpool_EN.txt	LEAF	5	12	[0, 0, 0]	n/a	FR1	0	R1187P
1701.487	0.8	1801548	WORD_OFF	n/a	n/a	LEAF	5	12	[0, 0, 0]	n/a	FR1	0	R1187P
1702.287	1.617	1802348	WORD	n/a	wordpools/wordpool_EN.txt	CORD	6	12	[0, 0, 0]	n/a	FR1	0	R1187P
1703.904	0.916	1803965	WORD_OFF	n/a	n/a	CORD	6	12	[0, 0, 0]	n/a	FR1	0	R1187P
1704.82	1.617	1804881	WORD	n/a	wordpools/wordpool_EN.txt	JUDGE	7	12	[0, 0, 0]	n/a	FR1	0	R1187P
1706.437	0.95	1806498	WORD_OFF	n/a	n/a	JUDGE	7	12	[0, 0, 0]	n/a	FR1	0	R1187P
1707.387	1.618	1807448	WORD	n/a	wordpools/wordpool_EN.txt	HORSE	8	12	[0, 0, 0]	n/a	FR1	0	R1187P
1709.005	0.9	1809066	WORD_OFF	n/a	n/a	HORSE	8	12	[0, 0, 0]	n/a	FR1	0	R1187P
1709.905	1.617	1809966	WORD	n/a	wordpools/wordpool_EN.txt	HORN	9	12	[0, 0, 0]	n/a	FR1	0	R1187P
1711.522	0.817	1811583	WORD_OFF	n/a	n/a	HORN	9	12	[0, 0, 0]	n/a	FR1	0	R1187P
1712.339	1.617	1812400	WORD	n/a	wordpools/wordpool_EN.txt	HOUSE	10	12	[0, 0, 0]	n/a	FR1	0	R1187P
1713.956	0.85	1814017	WORD_OFF	n/a	n/a	HOUSE	10	12	[0, 0, 0]	n/a	FR1	0	R1187P
1714.806	1.617	1814867	WORD	n/a	wordpools/wordpool_EN.txt	SHIP	11	12	[0, 0, 0]	n/a	FR1	0	R1187P
1716.423	0.933	1816484	WORD_OFF	n/a	n/a	SHIP	11	12	[0, 0, 0]	n/a	FR1	0	R1187P
1717.356	1.617	1817417	WORD	n/a	wordpools/wordpool_EN.txt	PLANE	12	12	[0, 0, 0]	n/a	FR1	0	R1187P
1718.973	0.0	1819033	WORD_OFF	n/a	n/a	PLANE	12	12	[0, 0, 0]	n/a	FR1	0	R1187P
1718.973	0.001	1819033	DISTRACT_START	n/a	n/a	n/a	-999	12	[0, 0, 0]	n/a	FR1	0	R1187P
1718.974	0.016	1819034	START	n/a	n/a	n/a	-999	12	[-999, -999, -999]	n/a	FR1	0	R1187P
1718.99	15.069	1819050	PROB	15.069	n/a	n/a	-999	12	[8, 4, 6]	18	FR1	0	R1187P
1734.059	7.187	1834119	PROB	7.187	n/a	n/a	-999	12	[5, 8, 5]	18	FR1	0	R1187P
1741.246	0.015	1841305	STOP	n/a	n/a	n/a	-999	12	[-999, -999, -999]	n/a	FR1	0	R1187P
1741.261	0.666	1841320	DISTRACT_END	n/a	n/a	n/a	-999	12	[0, 0, 0]	n/a	FR1	0	R1187P
1741.927	0.518	1841986	RETRIEVAL_ORIENT	n/a	n/a	n/a	-999	12	[0, 0, 0]	n/a	FR1	0	R1187P
1742.445	2.437	1842504	REC_START	n/a	n/a	n/a	-999	12	[0, 0, 0]	n/a	FR1	0	R1187P
1744.882	1.0	1844941	REC_WORD_VV	1.0	n/a	<>	-999	12	[0, 0, 0]	n/a	FR1	0	R1187P
1745.882	0.694	1845941	REC_WORD_VV	0.694	n/a	<>	-999	12	[0, 0, 0]	n/a	FR1	0	R1187P
1746.576	4.826	1846635	REC_WORD_VV	4.826	n/a	<>	-999	12	[0, 0, 0]	n/a	FR1	0	R1187P
1751.402	0.966	1851461	REC_WORD	0.966	n/a	LEAF	5	12	[0, 0, 0]	n/a	FR1	0	R1187P
1752.368	2.953	1852427	REC_WORD	2.953	n/a	CORD	6	12	[0, 0, 0]	n/a	FR1	0	R1187P
1755.321	6.228	1855380	REC_WORD_VV	6.228	n/a	<>	-999	12	[0, 0, 0]	n/a	FR1	0	R1187P
1761.549	3.087	1861607	REC_WORD_VV	3.087	n/a	<>	-999	12	[0, 0, 0]	n/a	FR1	0	R1187P
1764.636	2.334	1864694	REC_WORD_VV	2.334	n/a	<>	-999	12	[0, 0, 0]	n/a	FR1	0	R1187P
1766.97	1.0	1867028	REC_WORD_VV	1.0	n/a	<>	-999	12	[0, 0, 0]	n/a	FR1	0	R1187P
1767.97	4.486	1868028	REC_WORD_VV	4.486	n/a	<>	-999	12	[0, 0, 0]	n/a	FR1	0	R1187P
1772.456	31.833	1872514	REC_END	n/a	n/a	n/a	-999	12	[0, 0, 0]	n/a	FR1	0	R1187P
1804.289	0.5	1904345	TRIAL	n/a	n/a	n/a	-999	13	[0, 0, 0]	n/a	FR1	0	R1187P
1804.789	10.428	1904845	COUNTDOWN_START	n/a	n/a	n/a	-999	13	[0, 0, 0]	n/a	FR1	0	R1187P
1815.217	0.008	1915273	COUNTDOWN_END	n/a	n/a	n/a	-999	13	[0, 0, 0]	n/a	FR1	0	R1187P
1815.225	1.616	1915281	ORIENT	n/a	n/a	n/a	-999	13	[0, 0, 0]	n/a	FR1	0	R1187P
1816.841	2.151	1916897	ORIENT_OFF	n/a	n/a	n/a	-999	13	[0, 0, 0]	n/a	FR1	0	R1187P
1818.992	1.617	1919048	WORD	n/a	wordpools/wordpool_EN.txt	SWORD	1	13	[0, 0, 0]	n/a	FR1	0	R1187P
1820.609	0.9	1920665	WORD_OFF	n/a	n/a	SWORD	1	13	[0, 0, 0]	n/a	FR1	0	R1187P
1821.509	1.617	1921564	WORD	n/a	wordpools/wordpool_EN.txt	FACE	2	13	[0, 0, 0]	n/a	FR1	0	R1187P
1823.126	0.833	1923181	WORD_OFF	n/a	n/a	FACE	2	13	[0, 0, 0]	n/a	FR1	0	R1187P
1823.959	1.618	1924014	WORD	n/a	wordpools/wordpool_EN.txt	LIP	3	13	[0, 0, 0]	n/a	FR1	0	R1187P
1825.577	0.866	1925632	WORD_OFF	n/a	n/a	LIP	3	13	[0, 0, 0]	n/a	FR1	0	R1187P
1826.443	1.617	1926498	WORD	n/a	wordpools/wordpool_EN.txt	GOAT	4	13	[0, 0, 0]	n/a	FR1	0	R1187P
1828.06	0.967	1928115	WORD_OFF	n/a	n/a	GOAT	4	13	[0, 0, 0]	n/a	FR1	0	R1187P
1829.027	1.617	1929082	WORD	n/a	wordpools/wordpool_EN.txt	ARK	5	13	[0, 0, 0]	n/a	FR1	0	R1187P
1830.644	0.984	1930699	WORD_OFF	n/a	n/a	ARK	5	13	[0, 0, 0]	n/a	FR1	0	R1187P
1831.628	1.617	1931683	WORD	n/a	wordpools/wordpool_EN.txt	LAMB	6	13	[0, 0, 0]	n/a	FR1	0	R1187P
1833.245	0.915	1933300	WORD_OFF	n/a	n/a	LAMB	6	13	[0, 0, 0]	n/a	FR1	0	R1187P
1834.16	1.618	1934215	WORD	n/a	wordpools/wordpool_EN.txt	SEAT	7	13	[0, 0, 0]	n/a	FR1	0	R1187P
1835.778	0.951	1935833	WORD_OFF	n/a	n/a	SEAT	7	13	[0, 0, 0]	n/a	FR1	0	R1187P
1836.729	1.617	1936784	WORD	n/a	wordpools/wordpool_EN.txt	SPEAR	8	13	[0, 0, 0]	n/a	FR1	0	R1187P
1838.346	0.9	1938401	WORD_OFF	n/a	n/a	SPEAR	8	13	[0, 0, 0]	n/a	FR1	0	R1187P
1839.246	1.617	1939301	WORD	n/a	wordpools/wordpool_EN.txt	DESK	9	13	[0, 0, 0]	n/a	FR1	0	R1187P
1840.863	0.816	1940918	WORD_OFF	n/a	n/a	DESK	9	13	[0, 0, 0]	n/a	FR1	0	R1187P
1841.679	1.617	1941733	WORD	n/a	wordpools/wordpool_EN.txt	STEAM	10	13	[0, 0, 0]	n/a	FR1	0	R1187P
1843.296	0.851	1943350	WORD_OFF	n/a	n/a	STEAM	10	13	[0, 0, 0]	n/a	FR1	0	R1187P
1844.147	1.617	1944201	WORD	n/a	wordpools/wordpool_EN.txt	SHIELD	11	13	[0, 0, 0]	n/a	FR1	0	R1187P
1845.764	1.0	1945818	WORD_OFF	n/a	n/a	SHIELD	11	13	[0, 0, 0]	n/a	FR1	0	R1187P
1846.764	1.617	1946818	WORD	n/a	wordpools/wordpool_EN.txt	LAMP	12	13	[0, 0, 0]	n/a	FR1	0	R1187P
1848.381	0.0	1948435	WORD_OFF	n/a	n/a	LAMP	12	13	[0, 0, 0]	n/a	FR1	0	R1187P
1848.381	0.0	1948435	DISTRACT_START	n/a	n/a	n/a	-999	13	[0, 0, 0]	n/a	FR1	0	R1187P
1848.381	0.016	1948435	START	n/a	n/a	n/a	-999	13	[-999, -999, -999]	n/a	FR1	0	R1187P
1848.397	8.652	1948451	PROB	8.652	n/a	n/a	-999	13	[1, 1, 8]	10	FR1	0	R1187P
1857.049	8.235	1957103	PROB	8.235	n/a	n/a	-999	13	[5, 5, 9]	19	FR1	0	R1187P
1865.284	25.932	1965337	PROB	25.932	n/a	n/a	-999	13	[8, 9, 7]	16	FR1	0	R1187P
1891.216	0.006	1991268	STOP	n/a	n/a	n/a	-999	13	[-999, -999, -999]	n/a	FR1	0	R1187P
1891.222	0.55	1991274	DISTRACT_END	n/a	n/a	n/a	-999	13	[0, 0, 0]	n/a	FR1	0	R1187P
1891.772	0.517	1991824	RETRIEVAL_ORIENT	n/a	n/a	n/a	-999	13	[0, 0, 0]	n/a	FR1	0	R1187P
1892.289	2.403	1992341	REC_START	n/a	n/a	n/a	-999	13	[0, 0, 0]	n/a	FR1	0	R1187P
1894.692	13.071	1994744	REC_WORD_VV	13.071	n/a	<>	-999	13	[0, 0, 0]	n/a	FR1	0	R1187P
1907.763	1.479	2007814	REC_WORD	1.479	n/a	GOAT	4	13	[0, 0, 0]	n/a	FR1	0	R1187P
1909.242	3.656	2009293	REC_WORD_VV	3.656	n/a	<>	-999	13	[0, 0, 0]	n/a	FR1	0	R1187P
1912.898	1.0	2012949	REC_WORD	1.0	n/a	MOUSE	-999	13	[0, 0, 0]	n/a	FR1	0	R1187P
1913.898	0.204	2013949	REC_WORD_VV	0.204	n/a	<>	-999	13	[0, 0, 0]	n/a	FR1	0	R1187P
1914.102	3.679	2014153	REC_WORD_VV	3.679	n/a	<>	-999	13	[0, 0, 0]	n/a	FR1	0	R1187P
1917.781	4.522	2017832	REC_WORD	4.522	n/a	CLAY	-999	13	[0, 0, 0]	n/a	FR1	0	R1187P
1922.303	11.66	2022354	REC_END	n/a	n/a	n/a	-999	13	[0, 0, 0]	n/a	FR1	0	R1187P
1933.963	0.5	2034013	TRIAL	n/a	n/a	n/a	-999	14	[0, 0, 0]	n/a	FR1	0	R1187P
1934.463	10.428	2034513	COUNTDOWN_START	n/a	n/a	n/a	-999	14	[0, 0, 0]	n/a	FR1	0	R1187P
1944.891	0.008	2044940	COUNTDOWN_END	n/a	n/a	n/a	-999	14	[0, 0, 0]	n/a	FR1	0	R1187P
1944.899	1.617	2044948	ORIENT	n/a	n/a	n/a	-999	14	[0, 0, 0]	n/a	FR1	0	R1187P
1946.516	2.084	2046565	ORIENT_OFF	n/a	n/a	n/a	-999	14	[0, 0, 0]	n/a	FR1	0	R1187P
1948.6	1.617	2048649	WORD	n/a	wordpools/wordpool_EN.txt	SKY	1	14	[0, 0, 0]	n/a	FR1	0	R1187P
1950.217	0.783	2050266	WORD_OFF	n/a	n/a	SKY	1	14	[0, 0, 0]	n/a	FR1	0	R1187P
1951.0	1.617	2051049	WORD	n/a	wordpools/wordpool_EN.txt	BENCH	2	14	[0, 0, 0]	n/a	FR1	0	R1187P
1952.617	0.833	2052666	WORD_OFF	n/a	n/a	BENCH	2	14	[0, 0, 0]	n/a	FR1	0	R1187P
1953.45	1.618	2053499	WORD	n/a	wordpools/wordpool_EN.txt	DOOR	3	14	[0, 0, 0]	n/a	FR1	0	R1187P
1955.068	1.0	2055117	WORD_OFF	n/a	n/a	DOOR	3	14	[0, 0, 0]	n/a	FR1	0	R1187P
1956.068	1.617	2056117	WORD	n/a	wordpools/wordpool_EN.txt	STRAW	4	14	[0, 0, 0]	n/a	FR1	0	R1187P
1957.685	0.966	2057734	WORD_OFF	n/a	n/a	STRAW	4	14	[0, 0, 0]	n/a	FR1	0	R1187P
1958.651	1.617	2058700	WORD	n/a	wordpools/wordpool_EN.txt	MUD	5	14	[0, 0, 0]	n/a	FR1	0	R1187P
1960.268	0.951	2060317	WORD_OFF	n/a	n/a	MUD	5	14	[0, 0, 0]	n/a	FR1	0	R1187P
1961.219	1.617	2061268	WORD	n/a	wordpools/wordpool_EN.txt	STOOL	6	14	[0, 0, 0]	n/a	FR1	0	R1187P
1962.836	0.967	2062885	WORD_OFF	n/a	n/a	STOOL	6	14	[0, 0, 0]	n/a	FR1	0	R1187P
1963.803	1.616	2063851	WORD	n/a	wordpools/wordpool_EN.txt	OAR	7	14	[0, 0, 0]	n/a	FR1	0	R1187P
1965.419	1.001	2065467	WORD_OFF	n/a	n/a	OAR	7	14	[0, 0, 0]	n/a	FR1	0	R1187P
1966.42	1.617	2066468	WORD	n/a	wordpools/wordpool_EN.txt	PURSE	8	14	[0, 0, 0]	n/a	FR1	0	R1187P
1968.037	0.933	2068085	WORD_OFF	n/a	n/a	PURSE	8	14	[0, 0, 0]	n/a	FR1	0	R1187P
1968.97	1.617	2069018	WORD	n/a	wordpools/wordpool_EN.txt	VASE	9	14	[0, 0, 0]	n/a	FR1	0	R1187P
1970.587	0.867	2070635	WORD_OFF	n/a	n/a	VASE	9	14	[0, 0, 0]	n/a	FR1	0	R1187P
1971.454	1.617	2071502	WORD	n/a	wordpools/wordpool_EN.txt	GRAPE	10	14	[0, 0, 0]	n/a	FR1	0	R1187P
1973.071	0.967	2073119	WORD_OFF	n/a	n/a	GRAPE	10	14	[0, 0, 0]	n/a	FR1	0	R1187P
1974.038	1.617	2074086	WORD	n/a	wordpools/wordpool_EN.txt	TOE	11	14	[0, 0, 0]	n/a	FR1	0	R1187P
1975.655	0.8	2075703	WORD_OFF	n/a	n/a	TOE	11	14	[0, 0, 0]	n/a	FR1	0	R1187P
1976.455	1.617	2076503	WORD	n/a	wordpools/wordpool_EN.txt	SLEEVE	12	14	[0, 0, 0]	n/a	FR1	0	R1187P
1978.072	0.0	2078120	WORD_OFF	n/a	n/a	SLEEVE	12	14	[0, 0, 0]	n/a	FR1	0	R1187P
1978.072	0.0	2078120	DISTRACT_START	n/a	n/a	n/a	-999	14	[0, 0, 0]	n/a	FR1	0	R1187P
1978.072	0.016	2078120	START	n/a	n/a	n/a	-999	14	[-999, -999, -999]	n/a	FR1	0	R1187P
1978.088	10.952	2078136	PROB	10.952	n/a	n/a	-999	14	[1, 5, 1]	7	FR1	0	R1187P
1989.04	7.702	2089087	PROB	7.702	n/a	n/a	-999	14	[4, 6, 6]	20	FR1	0	R1187P
1996.742	7.288	2096789	PROB	7.288	n/a	n/a	-999	14	[2, 1, 1]	4	FR1	0	R1187P
2004.03	0.013	2104077	STOP	n/a	n/a	n/a	-999	14	[-999, -999, -999]	n/a	FR1	0	R1187P
2004.043	0.584	2104090	DISTRACT_END	n/a	n/a	n/a	-999	14	[0, 0, 0]	n/a	FR1	0	R1187P
2004.627	0.517	2104673	RETRIEVAL_ORIENT	n/a	n/a	n/a	-999	14	[0, 0, 0]	n/a	FR1	0	R1187P
2005.144	1.722	2105190	REC_START	n/a	n/a	n/a	-999	14	[0, 0, 0]	n/a	FR1	0	R1187P
2006.866	2.322	2106912	REC_WORD_VV	2.322	n/a	<>	-999	14	[0, 0, 0]	n/a	FR1	0	R1187P
2009.188	0.952	2109234	REC_WORD	0.952	n/a	TOE	11	14	[0, 0, 0]	n/a	FR1	0	R1187P
2010.14	1.0	2110186	REC_WORD	1.0	n/a	SLEEVE	12	14	[0, 0, 0]	n/a	FR1	0	R1187P
2011.14	1.725	2111186	REC_WORD_VV	1.725	n/a	<>	-999	14	[0, 0, 0]	n/a	FR1	0	R1187P
2012.865	5.783	2112911	REC_WORD_VV	5.783	n/a	<>	-999	14	[0, 0, 0]	n/a	FR1	0	R1187P
2018.648	2.614	2118694	REC_WORD	2.614	n/a	MUD	5	14	[0, 0, 0]	n/a	FR1	0	R1187P
2021.262	13.895	2121308	REC_WORD_VV	13.895	n/a	<>	-999	14	[0, 0, 0]	n/a	FR1	0	R1187P
2035.157	7.11	2135202	REC_END	n/a	n/a	n/a	-999	14	[0, 0, 0]	n/a	FR1	0	R1187P
2042.267	0.5	2142312	TRIAL	n/a	n/a	n/a	-999	15	[0, 0, 0]	n/a	FR1	0	R1187P
2042.767	10.428	2142812	COUNTDOWN_START	n/a	n/a	n/a	-999	15	[0, 0, 0]	n/a	FR1	0	R1187P
2053.195	0.007	2153239	COUNTDOWN_END	n/a	n/a	n/a	-999	15	[0, 0, 0]	n/a	FR1	0	R1187P
2053.202	1.617	2153246	ORIENT	n/a	n/a	n/a	-999	15	[0, 0, 0]	n/a	FR1	0	R1187P
2054.819	2.084	2154863	ORIENT_OFF	n/a	n/a	n/a	-999	15	[0, 0, 0]	n/a	FR1	0	R1187P
2056.903	1.617	2156947	WORD	n/a	wordpools/wordpool_EN.txt	FLUTE	1	15	[0, 0, 0]	n/a	FR1	0	R1187P
2058.52	0.784	2158564	WORD_OFF	n/a	n/a	FLUTE	1	15	[0, 0, 0]	n/a	FR1	0	R1187P
2059.304	1.617	2159348	WORD	n/a	wordpools/wordpool_EN.txt	COUCH	2	15	[0, 0, 0]	n/a	FR1	0	R1187P
2060.921	1.0	2160965	WORD_OFF	n/a	n/a	COUCH	2	15	[0, 0, 0]	n/a	FR1	0	R1187P
2061.921	1.617	2161965	WORD	n/a	wordpools/wordpool_EN.txt	NOSE	3	15	[0, 0, 0]	n/a	FR1	0	R1187P
2063.538	0.8	2163582	WORD_OFF	n/a	n/a	NOSE	3	15	[0, 0, 0]	n/a	FR1	0	R1187P
2064.338	1.617	2164382	WORD	n/a	wordpools/wordpool_EN.txt	FISH	4	15	[0, 0, 0]	n/a	FR1	0	R1187P
2065.955	0.867	2165998	WORD_OFF	n/a	n/a	FISH	4	15	[0, 0, 0]	n/a	FR1	0	R1187P
2066.822	1.617	2166865	WORD	n/a	wordpools/wordpool_EN.txt	VINE	5	15	[0, 0, 0]	n/a	FR1	0	R1187P
2068.439	0.783	2168482	WORD_OFF	n/a	n/a	VINE	5	15	[0, 0, 0]	n/a	FR1	0	R1187P
2069.222	1.617	2169265	WORD	n/a	wordpools/wordpool_EN.txt	STREET	6	15	[0, 0, 0]	n/a	FR1	0	R1187P
2070.839	1.0	2170882	WORD_OFF	n/a	n/a	STREET	6	15	[0, 0, 0]	n/a	FR1	0	R1187P
2071.839	1.617	2171882	WORD	n/a	wordpools/wordpool_EN.txt	THREAD	7	15	[0, 0, 0]	n/a	FR1	0	R1187P
2073.456	0.901	2173499	WORD_OFF	n/a	n/a	THREAD	7	15	[0, 0, 0]	n/a	FR1	0	R1187P
2074.357	1.616	2174400	WORD	n/a	wordpools/wordpool_EN.txt	DIME	8	15	[0, 0, 0]	n/a	FR1	0	R1187P
2075.973	0.834	2176016	WORD_OFF	n/a	n/a	DIME	8	15	[0, 0, 0]	n/a	FR1	0	R1187P
2076.807	1.617	2176850	WORD	n/a	wordpools/wordpool_EN.txt	HOLE	9	15	[0, 0, 0]	n/a	FR1	0	R1187P
2078.424	0.85	2178467	WORD_OFF	n/a	n/a	HOLE	9	15	[0, 0, 0]	n/a	FR1	0	R1187P
2079.274	1.617	2179317	WORD	n/a	wordpools/wordpool_EN.txt	CHIN	10	15	[0, 0, 0]	n/a	FR1	0	R1187P
2080.891	0.917	2180934	WORD_OFF	n/a	n/a	CHIN	10	15	[0, 0, 0]	n/a	FR1	0	R1187P
2081.808	1.617	2181851	WORD	n/a	wordpools/wordpool_EN.txt	HOOK	11	15	[0, 0, 0]	n/a	FR1	0	R1187P
2083.425	0.917	2183468	WORD_OFF	n/a	n/a	HOOK	11	15	[0, 0, 0]	n/a	FR1	0	R1187P
2084.342	1.617	2184385	WORD	n/a	wordpools/wordpool_EN.txt	MAT	12	15	[0, 0, 0]	n/a	FR1	0	R1187P
2085.959	0.0	2186002	WORD_OFF	n/a	n/a	MAT	12	15	[0, 0, 0]	n/a	FR1	0	R1187P
2085.959	0.0	2186002	DISTRACT_START	n/a	n/a	n/a	-999	15	[0, 0, 0]	n/a	FR1	0	R1187P
2085.959	0.016	2186002	START	n/a	n/a	n/a	-999	15	[-999, -999, -999]	n/a	FR1	0	R1187P
2085.975	10.269	2186018	PROB	10.269	n/a	n/a	-999	15	[4, 9, 5]	19	FR1	0	R1187P
2096.244	6.801	2196286	PROB	6.801	n/a	n/a	-999	15	[4, 4, 2]	10	FR1	0	R1187P
2103.045	9.554	2203087	PROB	9.554	n/a	n/a	-999	15	[3, 1, 4]	8	FR1	0	R1187P
2112.599	0.015	2212640	STOP	n/a	n/a	n/a	-999	15	[-999, -999, -999]	n/a	FR1	0	R1187P
2112.614	0.683	2212655	DISTRACT_END	n/a	n/a	n/a	-999	15	[0, 0, 0]	n/a	FR1	0	R1187P
2113.297	0.518	2213338	RETRIEVAL_ORIENT	n/a	n/a	n/a	-999	15	[0, 0, 0]	n/a	FR1	0	R1187P
2113.815	2.882	2213856	REC_START	n/a	n/a	n/a	-999	15	[0, 0, 0]	n/a	FR1	0	R1187P
2116.697	3.395	2216738	REC_WORD_VV	3.395	n/a	<>	-999	15	[0, 0, 0]	n/a	FR1	0	R1187P
2120.092	0.169	2220133	REC_WORD	0.169	n/a	HOLE	9	15	[0, 0, 0]	n/a	FR1	0	R1187P
2120.261	1.0	2220302	REC_WORD	1.0	n/a	MAT	12	15	[0, 0, 0]	n/a	FR1	0	R1187P
2121.261	1.604	2221302	REC_WORD_VV	1.604	n/a	<>	-999	15	[0, 0, 0]	n/a	FR1	0	R1187P
2122.865	4.097	2222906	REC_WORD_VV	4.097	n/a	<>	-999	15	[0, 0, 0]	n/a	FR1	0	R1187P
2126.962	3.737	2227003	REC_WORD	3.737	n/a	DOOR	-999	15	[0, 0, 0]	n/a	FR1	0	R1187P
2130.699	13.128	2230739	REC_WORD_VV	13.128	n/a	<>	-999	15	[0, 0, 0]	n/a	FR1	0	R1187P
2143.827	10.961	2243867	REC_END	n/a	n/a	n/a	-999	15	[0, 0, 0]	n/a	FR1	0	R1187P
2154.788	0.5	2254827	TRIAL	n/a	n/a	n/a	-999	16	[0, 0, 0]	n/a	FR1	0	R1187P
2155.288	10.428	2255327	COUNTDOWN_START	n/a	n/a	n/a	-999	16	[0, 0, 0]	n/a	FR1	0	R1187P
2165.716	0.008	2265755	COUNTDOWN_END	n/a	n/a	n/a	-999	16	[0, 0, 0]	n/a	FR1	0	R1187P
2165.724	1.617	2265763	ORIENT	n/a	n/a	n/a	-999	16	[0, 0, 0]	n/a	FR1	0	R1187P
2167.341	2.05	2267380	ORIENT_OFF	n/a	n/a	n/a	-999	16	[0, 0, 0]	n/a	FR1	0	R1187P
2169.391	1.617	2269429	WORD	n/a	wordpools/wordpool_EN.txt	SEAL	1	16	[0, 0, 0]	n/a	FR1	0	R1187P
2171.008	0.817	2271046	WORD_OFF	n/a	n/a	SEAL	1	16	[0, 0, 0]	n/a	FR1	0	R1187P
2171.825	1.617	2271863	WORD	n/a	wordpools/wordpool_EN.txt	WEB	2	16	[0, 0, 0]	n/a	FR1	0	R1187P
2173.442	0.95	2273480	WORD_OFF	n/a	n/a	WEB	2	16	[0, 0, 0]	n/a	FR1	0	R1187P
2174.392	1.617	2274430	WORD	n/a	wordpools/wordpool_EN.txt	TANK	3	16	[0, 0, 0]	n/a	FR1	0	R1187P
2176.009	0.8	2276047	WORD_OFF	n/a	n/a	TANK	3	16	[0, 0, 0]	n/a	FR1	0	R1187P
2176.809	1.617	2276847	WORD	n/a	wordpools/wordpool_EN.txt	MUG	4	16	[0, 0, 0]	n/a	FR1	0	R1187P
2178.426	0.784	2278464	WORD_OFF	n/a	n/a	MUG	4	16	[0, 0, 0]	n/a	FR1	0	R1187P
2179.21	1.616	2279248	WORD	n/a	wordpools/wordpool_EN.txt	BANK	5	16	[0, 0, 0]	n/a	FR1	0	R1187P
2180.826	0.951	2280864	WORD_OFF	n/a	n/a	BANK	5	16	[0, 0, 0]	n/a	FR1	0	R1187P
2181.777	1.617	2281815	WORD	n/a	wordpools/wordpool_EN.txt	BRANCH	6	16	[0, 0, 0]	n/a	FR1	0	R1187P
2183.394	0.916	2283432	WORD_OFF	n/a	n/a	BRANCH	6	16	[0, 0, 0]	n/a	FR1	0	R1187P
2184.31	1.617	2284348	WORD	n/a	wordpools/wordpool_EN.txt	APE	7	16	[0, 0, 0]	n/a	FR1	0	R1187P
2185.927	0.767	2285965	WORD_OFF	n/a	n/a	APE	7	16	[0, 0, 0]	n/a	FR1	0	R1187P
2186.694	1.617	2286732	WORD	n/a	wordpools/wordpool_EN.txt	CASH	8	16	[0, 0, 0]	n/a	FR1	0	R1187P
2188.311	0.95	2288348	WORD_OFF	n/a	n/a	CASH	8	16	[0, 0, 0]	n/a	FR1	0	R1187P
2189.261	1.617	2289298	WORD	n/a	wordpools/wordpool_EN.txt	BOAT	9	16	[0, 0, 0]	n/a	FR1	0	R1187P
2190.878	1.001	2290915	WORD_OFF	n/a	n/a	BOAT	9	16	[0, 0, 0]	n/a	FR1	0	R1187P
2191.879	1.617	2291916	WORD	n/a	wordpools/wordpool_EN.txt	DEER	10	16	[0, 0, 0]	n/a	FR1	0	R1187P
2193.496	0.983	2293533	WORD_OFF	n/a	n/a	DEER	10	16	[0, 0, 0]	n/a	FR1	0	R1187P
2194.479	1.617	2294516	WORD	n/a	wordpools/wordpool_EN.txt	DUCK	11	16	[0, 0, 0]	n/a	FR1	0	R1187P
2196.096	0.834	2296133	WORD_OFF	n/a	n/a	DUCK	11	16	[0, 0, 0]	n/a	FR1	0	R1187P
2196.93	1.617	2296967	WORD	n/a	wordpools/wordpool_EN.txt	HAWK	12	16	[0, 0, 0]	n/a	FR1	0	R1187P
2198.547	0.0	2298584	WORD_OFF	n/a	n/a	HAWK	12	16	[0, 0, 0]	n/a	FR1	0	R1187P
2198.547	0.0	2298584	DISTRACT_START	n/a	n/a	n/a	-999	16	[0, 0, 0]	n/a	FR1	0	R1187P
2198.547	0.016	2298584	START	n/a	n/a	n/a	-999	16	[-999, -999, -999]	n/a	FR1	0	R1187P
2198.563	18.704	2298600	PROB	18.704	n/a	n/a	-999	16	[5, 6, 8]	19	FR1	0	R1187P
2217.267	9.26	2317303	PROB	9.26	n/a	n/a	-999	16	[6, 7, 1]	14	FR1	0	R1187P
2226.527	0.008	2326563	STOP	n/a	n/a	n/a	-999	16	[-999, -999, -999]	n/a	FR1	0	R1187P
2226.535	0.617	2326571	DISTRACT_END	n/a	n/a	n/a	-999	16	[0, 0, 0]	n/a	FR1	0	R1187P
2227.152	0.517	2327188	RETRIEVAL_ORIENT	n/a	n/a	n/a	-999	16	[0, 0, 0]	n/a	FR1	0	R1187P
2227.669	1.837	2327705	REC_START	n/a	n/a	n/a	-999	16	[0, 0, 0]	n/a	FR1	0	R1187P
2229.506	1.529	2329541	REC_WORD_VV	1.529	n/a	<>	-999	16	[0, 0, 0]	n/a	FR1	0	R1187P
2231.035	2.53	2331070	REC_WORD	2.53	n/a	DEER	10	16	[0, 0, 0]	n/a	FR1	0	R1187P
2233.565	4.815	2333600	REC_WORD_VV	4.815	n/a	<>	-999	16	[0, 0, 0]	n/a	FR1	0	R1187P
2238.38	1.0	2338415	REC_WORD	1.0	n/a	MOUSE	-999	16	[0, 0, 0]	n/a	FR1	0	R1187P
2239.38	1.438	2339415	REC_WORD_VV	1.438	n/a	<>	-999	16	[0, 0, 0]	n/a	FR1	0	R1187P
2240.818	3.112	2340853	REC_WORD	3.112	n/a	HAWK	12	16	[0, 0, 0]	n/a	FR1	0	R1187P
2243.93	10.648	2343965	REC_WORD_VV	10.648	n/a	<>	-999	16	[0, 0, 0]	n/a	FR1	0	R1187P
2254.578	3.104	2354612	REC_WORD_VV	3.104	n/a	<>	-999	16	[0, 0, 0]	n/a	FR1	0	R1187P
2257.682	11.528	2357716	REC_END	n/a	n/a	n/a	-999	16	[0, 0, 0]	n/a	FR1	0	R1187P
2269.21	0.5	2369244	TRIAL	n/a	n/a	n/a	-999	17	[0, 0, 0]	n/a	FR1	0	R1187P
2269.71	10.428	2369744	COUNTDOWN_START	n/a	n/a	n/a	-999	17	[0, 0, 0]	n/a	FR1	0	R1187P
2280.138	0.007	2380171	COUNTDOWN_END	n/a	n/a	n/a	-999	17	[0, 0, 0]	n/a	FR1	0	R1187P
2280.145	1.617	2380178	ORIENT	n/a	n/a	n/a	-999	17	[0, 0, 0]	n/a	FR1	0	R1187P
2281.762	1.984	2381795	ORIENT_OFF	n/a	n/a	n/a	-999	17	[0, 0, 0]	n/a	FR1	0	R1187P
2283.746	1.617	2383779	WORD	n/a	wordpools/wordpool_EN.txt	MULE	1	17	[0, 0, 0]	n/a	FR1	0	R1187P
2285.363	0.966	2385396	WORD_OFF	n/a	n/a	MULE	1	17	[0, 0, 0]	n/a	FR1	0	R1187P
2286.329	1.618	2386362	WORD	n/a	wordpools/wordpool_EN.txt	SHRIMP	2	17	[0, 0, 0]	n/a	FR1	0	R1187P
2287.947	0.816	2387980	WORD_OFF	n/a	n/a	SHRIMP	2	17	[0, 0, 0]	n/a	FR1	0	R1187P
2288.763	1.617	2388796	WORD	n/a	wordpools/wordpool_EN.txt	PIN	3	17	[0, 0, 0]	n/a	FR1	0	R1187P
2290.38	0.984	2390412	WORD_OFF	n/a	n/a	PIN	3	17	[0, 0, 0]	n/a	FR1	0	R1187P
2291.364	1.617	2391396	WORD	n/a	wordpools/wordpool_EN.txt	TRAIN	4	17	[0, 0, 0]	n/a	FR1	0	R1187P
2292.981	0.9	2393013	WORD_OFF	n/a	n/a	TRAIN	4	17	[0, 0, 0]	n/a	FR1	0	R1187P
2293.881	1.617	2393913	WORD	n/a	wordpools/wordpool_EN.txt	BEAK	5	17	[0, 0, 0]	n/a	FR1	0	R1187P
2295.498	0.917	2395530	WORD_OFF	n/a	n/a	BEAK	5	17	[0, 0, 0]	n/a	FR1	0	R1187P
2296.415	1.617	2396447	WORD	n/a	wordpools/wordpool_EN.txt	BOOT	6	17	[0, 0, 0]	n/a	FR1	0	R1187P
2298.032	0.817	2398064	WORD_OFF	n/a	n/a	BOOT	6	17	[0, 0, 0]	n/a	FR1	0	R1187P
2298.849	1.617	2398881	WORD	n/a	wordpools/wordpool_EN.txt	BOARD	7	17	[0, 0, 0]	n/a	FR1	0	R1187P
2300.466	0.867	2400498	WORD_OFF	n/a	n/a	BOARD	7	17	[0, 0, 0]	n/a	FR1	0	R1187P
2301.333	1.617	2401365	WORD	n/a	wordpools/wordpool_EN.txt	TRASH	8	17	[0, 0, 0]	n/a	FR1	0	R1187P
2302.95	0.933	2402982	WORD_OFF	n/a	n/a	TRASH	8	17	[0, 0, 0]	n/a	FR1	0	R1187P
2303.883	1.617	2403915	WORD	n/a	wordpools/wordpool_EN.txt	JUICE	9	17	[0, 0, 0]	n/a	FR1	0	R1187P
2305.5	0.983	2405532	WORD_OFF	n/a	n/a	JUICE	9	17	[0, 0, 0]	n/a	FR1	0	R1187P
2306.483	1.617	2406515	WORD	n/a	wordpools/wordpool_EN.txt	KEY	10	17	[0, 0, 0]	n/a	FR1	0	R1187P
2308.1	0.934	2408132	WORD_OFF	n/a	n/a	KEY	10	17	[0, 0, 0]	n/a	FR1	0	R1187P
2309.034	1.617	2409066	WORD	n/a	wordpools/wordpool_EN.txt	SHELL	11	17	[0, 0, 0]	n/a	FR1	0	R1187P
2310.651	0.983	2410683	WORD_OFF	n/a	n/a	SHELL	11	17	[0, 0, 0]	n/a	FR1	0	R1187P
2311.634	1.617	2411665	WORD	n/a	wordpools/wordpool_EN.txt	CRANE	12	17	[0, 0, 0]	n/a	FR1	0	R1187P
2313.251	0.0	2413282	WORD_OFF	n/a	n/a	CRANE	12	17	[0, 0, 0]	n/a	FR1	0	R1187P
2313.251	0.001	2413282	DISTRACT_START	n/a	n/a	n/a	-999	17	[0, 0, 0]	n/a	FR1	0	R1187P
2313.252	0.016	2413283	START	n/a	n/a	n/a	-999	17	[-999, -999, -999]	n/a	FR1	0	R1187P
2313.268	10.185	2413299	PROB	10.185	n/a	n/a	-999	17	[7, 6, 4]	17	FR1	0	R1187P
2323.453	6.418	2423484	PROB	6.418	n/a	n/a	-999	17	[5, 3, 1]	9	FR1	0	R1187P
2329.871	11.464	2429902	PROB	11.464	n/a	n/a	-999	17	[5, 1, 4]	9	FR1	0	R1187P
2341.335	0.022	2441365	STOP	n/a	n/a	n/a	-999	17	[-999, -999, -999]	n/a	FR1	0	R1187P
2341.357	0.699	2441387	DISTRACT_END	n/a	n/a	n/a	-999	17	[0, 0, 0]	n/a	FR1	0	R1187P
2342.056	0.518	2442086	RETRIEVAL_ORIENT	n/a	n/a	n/a	-999	17	[0, 0, 0]	n/a	FR1	0	R1187P
2342.574	2.92	2442604	REC_START	n/a	n/a	n/a	-999	17	[0, 0, 0]	n/a	FR1	0	R1187P
2345.494	2.25	2445524	REC_WORD_VV	2.25	n/a	<>	-999	17	[0, 0, 0]	n/a	FR1	0	R1187P
2347.744	2.718	2447774	REC_WORD	2.718	n/a	SHELL	11	17	[0, 0, 0]	n/a	FR1	0	R1187P
2350.462	1.739	2450492	REC_WORD	1.739	n/a	DEER	-999	17	[0, 0, 0]	n/a	FR1	0	R1187P
2352.201	9.991	2452230	REC_WORD_VV	9.991	n/a	<>	-999	17	[0, 0, 0]	n/a	FR1	0	R1187P
2362.192	10.394	2462221	REC_WORD	10.394	n/a	HOUSE	-999	17	[0, 0, 0]	n/a	FR1	0	R1187P
2372.586	0.0	2472614	REC_END	n/a	n/a	n/a	-999	17	[0, 0, 0]	n/a	FR1	0	R1187P
