onset	duration	sample	trial_type	response_time	stim_file	item_name	serialpos	list	test	answer	experiment	session	subject
0.0	55.69	41575	SESS_START	n/a	n/a	n/a	-999	-999	[0, 0, 0]	n/a	FR1	3	R1092J
55.69	10.428	97264	COUNTDOWN_START	n/a	n/a	n/a	-999	-999	[0, 0, 0]	n/a	FR1	3	R1092J
66.118	0.007	107692	COUNTDOWN_END	n/a	n/a	n/a	-999	-999	[0, 0, 0]	n/a	FR1	3	R1092J
66.125	3.533	107699	PRACTICE_ORIENT	n/a	n/a	n/a	-999	-999	[0, 0, 0]	n/a	FR1	3	R1092J
69.658	2.618	111232	PRACTICE_WORD	n/a	n/a	TONGUE	1	-1	[0, 0, 0]	n/a	FR1	3	R1092J
72.276	2.549	113850	PRACTICE_WORD	n/a	n/a	BEAM	2	-1	[0, 0, 0]	n/a	FR1	3	R1092J
74.825	2.434	116399	PRACTICE_WORD	n/a	n/a	ATTIC	3	-1	[0, 0, 0]	n/a	FR1	3	R1092J
77.259	2.583	118833	PRACTICE_WORD	n/a	n/a	CAMEL	4	-1	[0, 0, 0]	n/a	FR1	3	R1092J
79.842	2.418	121416	PRACTICE_WORD	n/a	n/a	COTTON	5	-1	[0, 0, 0]	n/a	FR1	3	R1092J
82.26	2.45	123834	PRACTICE_WORD	n/a	n/a	WATCH	6	-1	[0, 0, 0]	n/a	FR1	3	R1092J
84.71	2.384	126284	PRACTICE_WORD	n/a	n/a	CHEST	7	-1	[0, 0, 0]	n/a	FR1	3	R1092J
87.094	2.434	128668	PRACTICE_WORD	n/a	n/a	RHINO	8	-1	[0, 0, 0]	n/a	FR1	3	R1092J
89.528	2.617	131102	PRACTICE_WORD	n/a	n/a	RING	9	-1	[0, 0, 0]	n/a	FR1	3	R1092J
92.145	2.416	133719	PRACTICE_WORD	n/a	n/a	IRON	10	-1	[0, 0, 0]	n/a	FR1	3	R1092J
94.561	2.601	136135	PRACTICE_WORD	n/a	n/a	WAGON	11	-1	[0, 0, 0]	n/a	FR1	3	R1092J
97.162	1.616	138736	PRACTICE_WORD	n/a	n/a	FLOOD	12	-1	[0, 0, 0]	n/a	FR1	3	R1092J
98.778	0.001	140352	PRACTICE_DISTRACT_START	n/a	n/a	n/a	-999	-1	[0, 0, 0]	n/a	FR1	3	R1092J
98.779	0.016	140353	START	n/a	n/a	n/a	-999	-1	[-999, -999, -999]	n/a	FR1	3	R1092J
98.795	3.651	140369	PROB	3.651	n/a	n/a	-999	-1	[4, 3, 6]	13	FR1	3	R1092J
102.446	2.734	144020	PROB	2.734	n/a	n/a	-999	-1	[5, 9, 4]	19	FR1	3	R1092J
105.18	2.516	146754	PROB	2.516	n/a	n/a	-999	-1	[3, 1, 7]	11	FR1	3	R1092J
107.696	2.033	149270	PROB	2.033	n/a	n/a	-999	-1	[1, 2, 8]	11	FR1	3	R1092J
109.729	2.402	151303	PROB	2.402	n/a	n/a	-999	-1	[5, 4, 3]	2	FR1	3	R1092J
112.131	2.583	153705	PROB	2.583	n/a	n/a	-999	-1	[5, 1, 6]	12	FR1	3	R1092J
114.714	2.434	156288	PROB	2.434	n/a	n/a	-999	-1	[5, 2, 1]	8	FR1	3	R1092J
117.148	2.778	158722	PROB	2.778	n/a	n/a	-999	-1	[3, 8, 5]	16	FR1	3	R1092J
119.926	0.539	161500	STOP	n/a	n/a	n/a	-999	-1	[-999, -999, -999]	n/a	FR1	3	R1092J
120.465	30.517	162039	PRACTICE_REC_START	n/a	n/a	n/a	-999	-1	[0, 0, 0]	n/a	FR1	3	R1092J
150.982	7.854	192556	PRACTICE_REC_END	n/a	n/a	n/a	-999	-1	[0, 0, 0]	n/a	FR1	3	R1092J
158.836	0.0	200410	COUNTDOWN_START	n/a	n/a	n/a	-999	1	[0, 0, 0]	n/a	FR1	3	R1092J
158.836	10.428	200410	TRIAL	n/a	n/a	n/a	-999	1	[0, 0, 0]	n/a	FR1	3	R1092J
169.264	0.008	210838	COUNTDOWN_END	n/a	n/a	n/a	-999	1	[0, 0, 0]	n/a	FR1	3	R1092J
169.272	3.783	210846	ORIENT	n/a	n/a	n/a	-999	1	[0, 0, 0]	n/a	FR1	3	R1092J
173.055	2.55	214629	WORD	n/a	wordpools/wordpool_EN.txt	JAIL	1	1	[0, 0, 0]	n/a	FR1	3	R1092J
175.605	2.468	217179	WORD	n/a	wordpools/wordpool_EN.txt	HOOF	2	1	[0, 0, 0]	n/a	FR1	3	R1092J
178.073	2.417	219647	WORD	n/a	wordpools/wordpool_EN.txt	SHEEP	3	1	[0, 0, 0]	n/a	FR1	3	R1092J
180.49	2.583	222064	WORD	n/a	wordpools/wordpool_EN.txt	THREAD	4	1	[0, 0, 0]	n/a	FR1	3	R1092J
183.073	2.55	224647	WORD	n/a	wordpools/wordpool_EN.txt	POLE	5	1	[0, 0, 0]	n/a	FR1	3	R1092J
185.623	2.618	227197	WORD	n/a	wordpools/wordpool_EN.txt	WEB	6	1	[0, 0, 0]	n/a	FR1	3	R1092J
188.241	2.516	229815	WORD	n/a	wordpools/wordpool_EN.txt	BANK	7	1	[0, 0, 0]	n/a	FR1	3	R1092J
190.757	2.534	232331	WORD	n/a	wordpools/wordpool_EN.txt	FARM	8	1	[0, 0, 0]	n/a	FR1	3	R1092J
193.291	2.45	234865	WORD	n/a	wordpools/wordpool_EN.txt	SEA	9	1	[0, 0, 0]	n/a	FR1	3	R1092J
195.741	2.584	237315	WORD	n/a	wordpools/wordpool_EN.txt	MOTH	10	1	[0, 0, 0]	n/a	FR1	3	R1092J
198.325	2.55	239899	WORD	n/a	wordpools/wordpool_EN.txt	TEA	11	1	[0, 0, 0]	n/a	FR1	3	R1092J
200.875	1.617	242448	WORD	n/a	wordpools/wordpool_EN.txt	CAVE	12	1	[0, 0, 0]	n/a	FR1	3	R1092J
202.492	0.001	244065	DISTRACT_START	n/a	n/a	n/a	-999	1	[0, 0, 0]	n/a	FR1	3	R1092J
202.493	0.016	244066	START	n/a	n/a	n/a	-999	1	[-999, -999, -999]	n/a	FR1	3	R1092J
202.509	5.668	244082	PROB	5.668	n/a	n/a	-999	1	[9, 5, 7]	21	FR1	3	R1092J
208.177	2.333	249750	PROB	2.333	n/a	n/a	-999	1	[8, 1, 9]	18	FR1	3	R1092J
210.51	4.316	252083	PROB	4.316	n/a	n/a	-999	1	[9, 8, 7]	24	FR1	3	R1092J
214.826	2.535	256399	PROB	2.535	n/a	n/a	-999	1	[3, 6, 6]	15	FR1	3	R1092J
217.361	2.466	258934	PROB	2.466	n/a	n/a	-999	1	[2, 6, 1]	9	FR1	3	R1092J
219.827	2.668	261400	PROB	2.668	n/a	n/a	-999	1	[5, 3, 2]	10	FR1	3	R1092J
222.495	2.435	264068	PROB	2.435	n/a	n/a	-999	1	[6, 7, 8]	21	FR1	3	R1092J
224.93	0.014	266503	STOP	n/a	n/a	n/a	-999	1	[-999, -999, -999]	n/a	FR1	3	R1092J
224.944	1.102	266517	DISTRACT_END	n/a	n/a	n/a	-999	1	[0, 0, 0]	n/a	FR1	3	R1092J
226.046	2.927	267619	REC_START	n/a	n/a	n/a	-999	1	[0, 0, 0]	n/a	FR1	3	R1092J
228.973	2.025	270546	REC_WORD	2.025	n/a	JAIL	1	1	[0, 0, 0]	n/a	FR1	3	R1092J
230.998	2.898	272571	REC_WORD	2.898	n/a	CAMEL	-999	1	[0, 0, 0]	n/a	FR1	3	R1092J
233.896	1.379	275469	REC_WORD	1.379	n/a	SHEEP	3	1	[0, 0, 0]	n/a	FR1	3	R1092J
235.275	3.017	276848	REC_WORD	3.017	n/a	HOOF	2	1	[0, 0, 0]	n/a	FR1	3	R1092J
238.292	17.768	279865	REC_WORD	17.768	n/a	TEA	11	1	[0, 0, 0]	n/a	FR1	3	R1092J
256.06	3.822	297633	REC_END	n/a	n/a	n/a	-999	1	[0, 0, 0]	n/a	FR1	3	R1092J
259.882	0.0	301455	TRIAL	n/a	n/a	n/a	-999	2	[0, 0, 0]	n/a	FR1	3	R1092J
259.882	10.428	301455	COUNTDOWN_START	n/a	n/a	n/a	-999	2	[0, 0, 0]	n/a	FR1	3	R1092J
270.31	0.008	311883	COUNTDOWN_END	n/a	n/a	n/a	-999	2	[0, 0, 0]	n/a	FR1	3	R1092J
270.318	3.717	311891	ORIENT	n/a	n/a	n/a	-999	2	[0, 0, 0]	n/a	FR1	3	R1092J
274.035	2.516	315608	WORD	n/a	wordpools/wordpool_EN.txt	FROG	1	2	[0, 0, 0]	n/a	FR1	3	R1092J
276.551	2.551	318124	WORD	n/a	wordpools/wordpool_EN.txt	SUN	2	2	[0, 0, 0]	n/a	FR1	3	R1092J
279.102	2.6	320675	WORD	n/a	wordpools/wordpool_EN.txt	PIT	3	2	[0, 0, 0]	n/a	FR1	3	R1092J
281.702	2.484	323275	WORD	n/a	wordpools/wordpool_EN.txt	BED	4	2	[0, 0, 0]	n/a	FR1	3	R1092J
284.186	2.449	325759	WORD	n/a	wordpools/wordpool_EN.txt	HOLE	5	2	[0, 0, 0]	n/a	FR1	3	R1092J
286.635	2.519	328208	WORD	n/a	wordpools/wordpool_EN.txt	NOSE	6	2	[0, 0, 0]	n/a	FR1	3	R1092J
289.154	2.432	330727	WORD	n/a	wordpools/wordpool_EN.txt	HOSE	7	2	[0, 0, 0]	n/a	FR1	3	R1092J
291.586	2.485	333159	WORD	n/a	wordpools/wordpool_EN.txt	FLEA	8	2	[0, 0, 0]	n/a	FR1	3	R1092J
294.071	2.4	335644	WORD	n/a	wordpools/wordpool_EN.txt	TRAY	9	2	[0, 0, 0]	n/a	FR1	3	R1092J
296.471	2.501	338044	WORD	n/a	wordpools/wordpool_EN.txt	SEAT	10	2	[0, 0, 0]	n/a	FR1	3	R1092J
298.972	2.4	340545	WORD	n/a	wordpools/wordpool_EN.txt	DIME	11	2	[0, 0, 0]	n/a	FR1	3	R1092J
301.372	1.617	342945	WORD	n/a	wordpools/wordpool_EN.txt	TOE	12	2	[0, 0, 0]	n/a	FR1	3	R1092J
302.989	0.0	344562	DISTRACT_START	n/a	n/a	n/a	-999	2	[0, 0, 0]	n/a	FR1	3	R1092J
302.989	0.016	344562	START	n/a	n/a	n/a	-999	2	[-999, -999, -999]	n/a	FR1	3	R1092J
303.005	3.883	344578	PROB	3.883	n/a	n/a	-999	2	[7, 2, 9]	18	FR1	3	R1092J
306.888	3.884	348461	PROB	3.884	n/a	n/a	-999	2	[5, 2, 9]	16	FR1	3	R1092J
310.772	2.651	352345	PROB	2.651	n/a	n/a	-999	2	[5, 3, 8]	16	FR1	3	R1092J
313.423	2.5	354996	PROB	2.5	n/a	n/a	-999	2	[8, 2, 4]	14	FR1	3	R1092J
315.923	3.0	357496	PROB	3.0	n/a	n/a	-999	2	[6, 6, 7]	19	FR1	3	R1092J
318.923	2.784	360496	PROB	2.784	n/a	n/a	-999	2	[3, 7, 9]	19	FR1	3	R1092J
321.707	2.195	363280	PROB	2.195	n/a	n/a	-999	2	[3, 5, 1]	9	FR1	3	R1092J
323.902	0.005	365475	STOP	n/a	n/a	n/a	-999	2	[-999, -999, -999]	n/a	FR1	3	R1092J
323.907	1.202	365480	DISTRACT_END	n/a	n/a	n/a	-999	2	[0, 0, 0]	n/a	FR1	3	R1092J
325.109	2.824	366682	REC_START	n/a	n/a	n/a	-999	2	[0, 0, 0]	n/a	FR1	3	R1092J
327.933	2.296	369506	REC_WORD	2.296	n/a	TOE	12	2	[0, 0, 0]	n/a	FR1	3	R1092J
330.229	2.733	371802	REC_WORD	2.733	n/a	FROG	1	2	[0, 0, 0]	n/a	FR1	3	R1092J
332.962	2.342	374535	REC_WORD	2.342	n/a	POLE	-999	2	[0, 0, 0]	n/a	FR1	3	R1092J
335.304	1.869	376877	REC_WORD	1.869	n/a	BED	4	2	[0, 0, 0]	n/a	FR1	3	R1092J
337.173	2.158	378746	REC_WORD	2.158	n/a	TRAY	9	2	[0, 0, 0]	n/a	FR1	3	R1092J
339.331	3.229	380904	REC_WORD	3.229	n/a	SEAT	10	2	[0, 0, 0]	n/a	FR1	3	R1092J
342.56	5.777	384133	REC_WORD	5.777	n/a	SUN	2	2	[0, 0, 0]	n/a	FR1	3	R1092J
348.337	3.402	389909	REC_WORD	3.402	n/a	CAVE	-999	2	[0, 0, 0]	n/a	FR1	3	R1092J
351.739	3.38	393311	REC_WORD	3.38	n/a	BEAN	-999	2	[0, 0, 0]	n/a	FR1	3	R1092J
355.119	3.493	396691	REC_END	n/a	n/a	n/a	-999	2	[0, 0, 0]	n/a	FR1	3	R1092J
358.612	0.0	400184	TRIAL	n/a	n/a	n/a	-999	3	[0, 0, 0]	n/a	FR1	3	R1092J
358.612	10.428	400184	COUNTDOWN_START	n/a	n/a	n/a	-999	3	[0, 0, 0]	n/a	FR1	3	R1092J
369.04	0.007	410612	COUNTDOWN_END	n/a	n/a	n/a	-999	3	[0, 0, 0]	n/a	FR1	3	R1092J
369.047	3.434	410619	ORIENT	n/a	n/a	n/a	-999	3	[0, 0, 0]	n/a	FR1	3	R1092J
372.481	2.383	414053	WORD	n/a	wordpools/wordpool_EN.txt	SHIRT	1	3	[0, 0, 0]	n/a	FR1	3	R1092J
374.864	2.501	416436	WORD	n/a	wordpools/wordpool_EN.txt	SINK	2	3	[0, 0, 0]	n/a	FR1	3	R1092J
377.365	2.399	418937	WORD	n/a	wordpools/wordpool_EN.txt	FOOT	3	3	[0, 0, 0]	n/a	FR1	3	R1092J
379.764	2.535	421336	WORD	n/a	wordpools/wordpool_EN.txt	SWAMP	4	3	[0, 0, 0]	n/a	FR1	3	R1092J
382.299	2.482	423871	WORD	n/a	wordpools/wordpool_EN.txt	RUG	5	3	[0, 0, 0]	n/a	FR1	3	R1092J
384.781	2.469	426353	WORD	n/a	wordpools/wordpool_EN.txt	BALL	6	3	[0, 0, 0]	n/a	FR1	3	R1092J
387.25	2.466	428822	WORD	n/a	wordpools/wordpool_EN.txt	PALM	7	3	[0, 0, 0]	n/a	FR1	3	R1092J
389.716	2.617	431288	WORD	n/a	wordpools/wordpool_EN.txt	STREET	8	3	[0, 0, 0]	n/a	FR1	3	R1092J
392.333	2.416	433905	WORD	n/a	wordpools/wordpool_EN.txt	MULE	9	3	[0, 0, 0]	n/a	FR1	3	R1092J
394.749	2.452	436321	WORD	n/a	wordpools/wordpool_EN.txt	ARK	10	3	[0, 0, 0]	n/a	FR1	3	R1092J
397.201	2.483	438773	WORD	n/a	wordpools/wordpool_EN.txt	THUMB	11	3	[0, 0, 0]	n/a	FR1	3	R1092J
399.684	1.617	441256	WORD	n/a	wordpools/wordpool_EN.txt	ROPE	12	3	[0, 0, 0]	n/a	FR1	3	R1092J
401.301	0.001	442873	DISTRACT_START	n/a	n/a	n/a	-999	3	[0, 0, 0]	n/a	FR1	3	R1092J
401.302	0.016	442874	START	n/a	n/a	n/a	-999	3	[-999, -999, -999]	n/a	FR1	3	R1092J
401.318	3.167	442890	PROB	3.167	n/a	n/a	-999	3	[3, 3, 4]	10	FR1	3	R1092J
404.485	3.133	446057	PROB	3.133	n/a	n/a	-999	3	[2, 4, 7]	13	FR1	3	R1092J
407.618	2.0	449190	PROB	2.0	n/a	n/a	-999	3	[5, 1, 3]	9	FR1	3	R1092J
409.618	2.734	451190	PROB	2.734	n/a	n/a	-999	3	[2, 7, 6]	15	FR1	3	R1092J
412.352	3.533	453924	PROB	3.533	n/a	n/a	-999	3	[7, 8, 7]	22	FR1	3	R1092J
415.885	2.017	457457	PROB	2.017	n/a	n/a	-999	3	[3, 5, 5]	13	FR1	3	R1092J
417.902	3.385	459474	PROB	3.385	n/a	n/a	-999	3	[9, 9, 6]	23	FR1	3	R1092J
421.287	3.02	462859	PROB	3.02	n/a	n/a	-999	3	[9, 6, 1]	16	FR1	3	R1092J
424.307	0.014	465879	STOP	n/a	n/a	n/a	-999	3	[-999, -999, -999]	n/a	FR1	3	R1092J
424.321	1.216	465893	DISTRACT_END	n/a	n/a	n/a	-999	3	[0, 0, 0]	n/a	FR1	3	R1092J
425.537	1.945	467109	REC_START	n/a	n/a	n/a	-999	3	[0, 0, 0]	n/a	FR1	3	R1092J
427.482	1.794	469054	REC_WORD	1.794	n/a	SINK	2	3	[0, 0, 0]	n/a	FR1	3	R1092J
429.276	2.123	470848	REC_WORD	2.123	n/a	STREET	8	3	[0, 0, 0]	n/a	FR1	3	R1092J
431.399	1.892	472971	REC_WORD	1.892	n/a	MULE	9	3	[0, 0, 0]	n/a	FR1	3	R1092J
433.291	2.372	474863	REC_WORD	2.372	n/a	THUMB	11	3	[0, 0, 0]	n/a	FR1	3	R1092J
435.663	2.408	477235	REC_WORD	2.408	n/a	PALM	7	3	[0, 0, 0]	n/a	FR1	3	R1092J
438.071	3.518	479643	REC_WORD	3.518	n/a	TOE	-999	3	[0, 0, 0]	n/a	FR1	3	R1092J
441.589	3.016	483161	REC_WORD	3.016	n/a	MULE	9	3	[0, 0, 0]	n/a	FR1	3	R1092J
444.605	2.377	486177	REC_WORD	2.377	n/a	COIN	-999	3	[0, 0, 0]	n/a	FR1	3	R1092J
446.982	8.569	488554	REC_WORD	8.569	n/a	ARK	10	3	[0, 0, 0]	n/a	FR1	3	R1092J
455.551	6.357	497123	REC_END	n/a	n/a	n/a	-999	3	[0, 0, 0]	n/a	FR1	3	R1092J
461.908	0.0	503480	COUNTDOWN_START	n/a	n/a	n/a	-999	4	[0, 0, 0]	n/a	FR1	3	R1092J
461.908	10.428	503480	TRIAL	n/a	n/a	n/a	-999	4	[0, 0, 0]	n/a	FR1	3	R1092J
472.336	0.008	513908	COUNTDOWN_END	n/a	n/a	n/a	-999	4	[0, 0, 0]	n/a	FR1	3	R1092J
472.344	3.733	513916	ORIENT	n/a	n/a	n/a	-999	4	[0, 0, 0]	n/a	FR1	3	R1092J
476.077	2.583	517649	WORD	n/a	wordpools/wordpool_EN.txt	TENT	1	4	[0, 0, 0]	n/a	FR1	3	R1092J
478.66	2.518	520232	WORD	n/a	wordpools/wordpool_EN.txt	HAT	2	4	[0, 0, 0]	n/a	FR1	3	R1092J
481.178	2.433	522750	WORD	n/a	wordpools/wordpool_EN.txt	BUSH	3	4	[0, 0, 0]	n/a	FR1	3	R1092J
483.611	2.468	525183	WORD	n/a	wordpools/wordpool_EN.txt	BEE	4	4	[0, 0, 0]	n/a	FR1	3	R1092J
486.079	2.599	527651	WORD	n/a	wordpools/wordpool_EN.txt	BOX	5	4	[0, 0, 0]	n/a	FR1	3	R1092J
488.678	2.518	530250	WORD	n/a	wordpools/wordpool_EN.txt	SNOW	6	4	[0, 0, 0]	n/a	FR1	3	R1092J
491.196	2.516	532768	WORD	n/a	wordpools/wordpool_EN.txt	VEST	7	4	[0, 0, 0]	n/a	FR1	3	R1092J
493.712	2.568	535284	WORD	n/a	wordpools/wordpool_EN.txt	CALF	8	4	[0, 0, 0]	n/a	FR1	3	R1092J
496.28	2.549	537851	WORD	n/a	wordpools/wordpool_EN.txt	LAMP	9	4	[0, 0, 0]	n/a	FR1	3	R1092J
498.829	2.385	540400	WORD	n/a	wordpools/wordpool_EN.txt	STICK	10	4	[0, 0, 0]	n/a	FR1	3	R1092J
501.214	2.466	542785	WORD	n/a	wordpools/wordpool_EN.txt	PIPE	11	4	[0, 0, 0]	n/a	FR1	3	R1092J
503.68	1.618	545251	WORD	n/a	wordpools/wordpool_EN.txt	FUDGE	12	4	[0, 0, 0]	n/a	FR1	3	R1092J
505.298	0.0	546869	DISTRACT_START	n/a	n/a	n/a	-999	4	[0, 0, 0]	n/a	FR1	3	R1092J
505.298	0.017	546869	START	n/a	n/a	n/a	-999	4	[-999, -999, -999]	n/a	FR1	3	R1092J
505.315	3.017	546886	PROB	3.017	n/a	n/a	-999	4	[2, 4, 4]	10	FR1	3	R1092J
508.332	2.482	549903	PROB	2.482	n/a	n/a	-999	4	[3, 1, 6]	10	FR1	3	R1092J
510.814	2.201	552385	PROB	2.201	n/a	n/a	-999	4	[9, 7, 3]	19	FR1	3	R1092J
513.015	2.533	554586	PROB	2.533	n/a	n/a	-999	4	[2, 5, 4]	11	FR1	3	R1092J
515.548	2.818	557119	PROB	2.818	n/a	n/a	-999	4	[6, 7, 2]	15	FR1	3	R1092J
518.366	2.65	559937	PROB	2.65	n/a	n/a	-999	4	[4, 1, 6]	11	FR1	3	R1092J
521.016	5.918	562587	PROB	5.918	n/a	n/a	-999	4	[8, 5, 9]	22	FR1	3	R1092J
526.934	0.016	568505	STOP	n/a	n/a	n/a	-999	4	[-999, -999, -999]	n/a	FR1	3	R1092J
526.95	1.185	568521	DISTRACT_END	n/a	n/a	n/a	-999	4	[0, 0, 0]	n/a	FR1	3	R1092J
528.135	2.897	569706	REC_START	n/a	n/a	n/a	-999	4	[0, 0, 0]	n/a	FR1	3	R1092J
531.032	2.504	572603	REC_WORD	2.504	n/a	TENT	1	4	[0, 0, 0]	n/a	FR1	3	R1092J
533.536	2.429	575107	REC_WORD	2.429	n/a	CALF	8	4	[0, 0, 0]	n/a	FR1	3	R1092J
535.965	4.367	577536	REC_WORD	4.367	n/a	VEST	7	4	[0, 0, 0]	n/a	FR1	3	R1092J
540.332	4.013	581903	REC_WORD	4.013	n/a	STREET	-999	4	[0, 0, 0]	n/a	FR1	3	R1092J
544.345	13.8	585916	REC_WORD	13.8	n/a	BUSH	3	4	[0, 0, 0]	n/a	FR1	3	R1092J
558.145	9.194	599716	REC_END	n/a	n/a	n/a	-999	4	[0, 0, 0]	n/a	FR1	3	R1092J
567.339	0.0	608910	TRIAL	n/a	n/a	n/a	-999	5	[0, 0, 0]	n/a	FR1	3	R1092J
567.339	10.428	608910	COUNTDOWN_START	n/a	n/a	n/a	-999	5	[0, 0, 0]	n/a	FR1	3	R1092J
577.767	0.006	619338	COUNTDOWN_END	n/a	n/a	n/a	-999	5	[0, 0, 0]	n/a	FR1	3	R1092J
577.773	3.668	619344	ORIENT	n/a	n/a	n/a	-999	5	[0, 0, 0]	n/a	FR1	3	R1092J
581.441	2.466	623012	WORD	n/a	wordpools/wordpool_EN.txt	MOUSE	1	5	[0, 0, 0]	n/a	FR1	3	R1092J
583.907	2.418	625478	WORD	n/a	wordpools/wordpool_EN.txt	BIRD	2	5	[0, 0, 0]	n/a	FR1	3	R1092J
586.325	2.599	627896	WORD	n/a	wordpools/wordpool_EN.txt	CAT	3	5	[0, 0, 0]	n/a	FR1	3	R1092J
588.924	2.568	630495	WORD	n/a	wordpools/wordpool_EN.txt	DEER	4	5	[0, 0, 0]	n/a	FR1	3	R1092J
591.492	2.449	633063	WORD	n/a	wordpools/wordpool_EN.txt	KITE	5	5	[0, 0, 0]	n/a	FR1	3	R1092J
593.941	2.585	635512	WORD	n/a	wordpools/wordpool_EN.txt	FOOD	6	5	[0, 0, 0]	n/a	FR1	3	R1092J
596.526	2.534	638097	WORD	n/a	wordpools/wordpool_EN.txt	BOARD	7	5	[0, 0, 0]	n/a	FR1	3	R1092J
599.06	2.499	640631	WORD	n/a	wordpools/wordpool_EN.txt	TRAIN	8	5	[0, 0, 0]	n/a	FR1	3	R1092J
601.559	2.468	643130	WORD	n/a	wordpools/wordpool_EN.txt	LAMB	9	5	[0, 0, 0]	n/a	FR1	3	R1092J
604.027	2.384	645598	WORD	n/a	wordpools/wordpool_EN.txt	INK	10	5	[0, 0, 0]	n/a	FR1	3	R1092J
606.411	2.449	647982	WORD	n/a	wordpools/wordpool_EN.txt	BRIDGE	11	5	[0, 0, 0]	n/a	FR1	3	R1092J
608.86	1.601	650431	WORD	n/a	wordpools/wordpool_EN.txt	ANT	12	5	[0, 0, 0]	n/a	FR1	3	R1092J
610.461	0.0	652032	DISTRACT_START	n/a	n/a	n/a	-999	5	[0, 0, 0]	n/a	FR1	3	R1092J
610.461	0.017	652032	START	n/a	n/a	n/a	-999	5	[-999, -999, -999]	n/a	FR1	3	R1092J
610.478	2.967	652049	PROB	2.967	n/a	n/a	-999	5	[2, 4, 2]	8	FR1	3	R1092J
613.445	2.817	655016	PROB	2.817	n/a	n/a	-999	5	[2, 2, 9]	13	FR1	3	R1092J
616.262	2.516	657833	PROB	2.516	n/a	n/a	-999	5	[6, 5, 8]	19	FR1	3	R1092J
618.778	6.185	660349	PROB	6.185	n/a	n/a	-999	5	[5, 1, 7]	13	FR1	3	R1092J
624.963	2.567	666534	PROB	2.567	n/a	n/a	-999	5	[6, 3, 8]	17	FR1	3	R1092J
627.53	2.1	669101	PROB	2.1	n/a	n/a	-999	5	[1, 2, 4]	7	FR1	3	R1092J
629.63	1.756	671201	PROB	1.756	n/a	n/a	-999	5	[2, 2, 2]	6	FR1	3	R1092J
631.386	0.011	672957	STOP	n/a	n/a	n/a	-999	5	[-999, -999, -999]	n/a	FR1	3	R1092J
631.397	1.217	672968	DISTRACT_END	n/a	n/a	n/a	-999	5	[0, 0, 0]	n/a	FR1	3	R1092J
632.614	3.26	674185	REC_START	n/a	n/a	n/a	-999	5	[0, 0, 0]	n/a	FR1	3	R1092J
635.874	2.059	677445	REC_WORD	2.059	n/a	LAMB	9	5	[0, 0, 0]	n/a	FR1	3	R1092J
637.933	1.978	679504	REC_WORD	1.978	n/a	MOUSE	1	5	[0, 0, 0]	n/a	FR1	3	R1092J
639.911	3.643	681482	REC_WORD	3.643	n/a	ANT	12	5	[0, 0, 0]	n/a	FR1	3	R1092J
643.554	1.561	685124	REC_WORD	1.561	n/a	TENT	-999	5	[0, 0, 0]	n/a	FR1	3	R1092J
645.115	3.962	686685	REC_WORD	3.962	n/a	CAT	3	5	[0, 0, 0]	n/a	FR1	3	R1092J
649.077	3.514	690647	REC_WORD	3.514	n/a	BOARD	7	5	[0, 0, 0]	n/a	FR1	3	R1092J
652.591	3.502	694161	REC_WORD	3.502	n/a	VEST	-999	5	[0, 0, 0]	n/a	FR1	3	R1092J
656.093	6.531	697663	REC_WORD	6.531	n/a	FLEA	-999	5	[0, 0, 0]	n/a	FR1	3	R1092J
662.624	4.31	704194	REC_END	n/a	n/a	n/a	-999	5	[0, 0, 0]	n/a	FR1	3	R1092J
666.934	0.0	708504	TRIAL	n/a	n/a	n/a	-999	6	[0, 0, 0]	n/a	FR1	3	R1092J
666.934	10.428	708504	COUNTDOWN_START	n/a	n/a	n/a	-999	6	[0, 0, 0]	n/a	FR1	3	R1092J
677.362	0.008	718932	COUNTDOWN_END	n/a	n/a	n/a	-999	6	[0, 0, 0]	n/a	FR1	3	R1092J
677.37	3.7	718940	ORIENT	n/a	n/a	n/a	-999	6	[0, 0, 0]	n/a	FR1	3	R1092J
681.07	2.483	722640	WORD	n/a	wordpools/wordpool_EN.txt	STRING	1	6	[0, 0, 0]	n/a	FR1	3	R1092J
683.553	2.601	725123	WORD	n/a	wordpools/wordpool_EN.txt	EEL	2	6	[0, 0, 0]	n/a	FR1	3	R1092J
686.154	2.416	727724	WORD	n/a	wordpools/wordpool_EN.txt	CLOUD	3	6	[0, 0, 0]	n/a	FR1	3	R1092J
688.57	2.484	730140	WORD	n/a	wordpools/wordpool_EN.txt	DOG	4	6	[0, 0, 0]	n/a	FR1	3	R1092J
691.054	2.517	732624	WORD	n/a	wordpools/wordpool_EN.txt	EGG	5	6	[0, 0, 0]	n/a	FR1	3	R1092J
693.571	2.401	735141	WORD	n/a	wordpools/wordpool_EN.txt	BOMB	6	6	[0, 0, 0]	n/a	FR1	3	R1092J
695.972	2.434	737542	WORD	n/a	wordpools/wordpool_EN.txt	FOG	7	6	[0, 0, 0]	n/a	FR1	3	R1092J
698.406	2.567	739976	WORD	n/a	wordpools/wordpool_EN.txt	RAIN	8	6	[0, 0, 0]	n/a	FR1	3	R1092J
700.973	2.45	742543	WORD	n/a	wordpools/wordpool_EN.txt	JET	9	6	[0, 0, 0]	n/a	FR1	3	R1092J
703.423	2.55	744993	WORD	n/a	wordpools/wordpool_EN.txt	DUCK	10	6	[0, 0, 0]	n/a	FR1	3	R1092J
705.973	2.534	747543	WORD	n/a	wordpools/wordpool_EN.txt	SOAP	11	6	[0, 0, 0]	n/a	FR1	3	R1092J
708.507	1.617	750077	WORD	n/a	wordpools/wordpool_EN.txt	ROOT	12	6	[0, 0, 0]	n/a	FR1	3	R1092J
710.124	0.0	751694	DISTRACT_START	n/a	n/a	n/a	-999	6	[0, 0, 0]	n/a	FR1	3	R1092J
710.124	0.016	751694	START	n/a	n/a	n/a	-999	6	[-999, -999, -999]	n/a	FR1	3	R1092J
710.14	3.567	751710	PROB	3.567	n/a	n/a	-999	6	[2, 9, 1]	12	FR1	3	R1092J
713.707	2.718	755277	PROB	2.718	n/a	n/a	-999	6	[4, 6, 6]	16	FR1	3	R1092J
716.425	2.182	757995	PROB	2.182	n/a	n/a	-999	6	[2, 8, 3]	13	FR1	3	R1092J
718.607	2.451	760177	PROB	2.451	n/a	n/a	-999	6	[9, 2, 4]	15	FR1	3	R1092J
721.058	4.5	762628	PROB	4.5	n/a	n/a	-999	6	[8, 8, 7]	23	FR1	3	R1092J
725.558	2.535	767128	PROB	2.535	n/a	n/a	-999	6	[7, 6, 4]	17	FR1	3	R1092J
728.093	4.049	769663	PROB	4.049	n/a	n/a	-999	6	[5, 4, 7]	16	FR1	3	R1092J
732.142	0.018	773712	STOP	n/a	n/a	n/a	-999	6	[-999, -999, -999]	n/a	FR1	3	R1092J
732.16	1.051	773730	DISTRACT_END	n/a	n/a	n/a	-999	6	[0, 0, 0]	n/a	FR1	3	R1092J
733.211	2.97	774781	REC_START	n/a	n/a	n/a	-999	6	[0, 0, 0]	n/a	FR1	3	R1092J
736.181	2.317	777751	REC_WORD	2.317	n/a	DOG	4	6	[0, 0, 0]	n/a	FR1	3	R1092J
738.498	2.044	780068	REC_WORD	2.044	n/a	FOG	7	6	[0, 0, 0]	n/a	FR1	3	R1092J
740.542	2.819	782112	REC_WORD	2.819	n/a	RAIN	8	6	[0, 0, 0]	n/a	FR1	3	R1092J
743.361	2.951	784931	REC_WORD	2.951	n/a	EEL	2	6	[0, 0, 0]	n/a	FR1	3	R1092J
746.312	3.345	787882	REC_WORD	3.345	n/a	VEST	-999	6	[0, 0, 0]	n/a	FR1	3	R1092J
749.657	6.862	791227	REC_WORD	6.862	n/a	CAT	-999	6	[0, 0, 0]	n/a	FR1	3	R1092J
756.519	5.689	798089	REC_WORD	5.689	n/a	CLOUD	3	6	[0, 0, 0]	n/a	FR1	3	R1092J
762.208	1.013	803778	REC_WORD	1.013	n/a	EEL	2	6	[0, 0, 0]	n/a	FR1	3	R1092J
763.221	3.642	804791	REC_END	n/a	n/a	n/a	-999	6	[0, 0, 0]	n/a	FR1	3	R1092J
766.863	0.0	808433	TRIAL	n/a	n/a	n/a	-999	7	[0, 0, 0]	n/a	FR1	3	R1092J
766.863	10.428	808433	COUNTDOWN_START	n/a	n/a	n/a	-999	7	[0, 0, 0]	n/a	FR1	3	R1092J
777.291	0.008	818861	COUNTDOWN_END	n/a	n/a	n/a	-999	7	[0, 0, 0]	n/a	FR1	3	R1092J
777.299	3.449	818869	ORIENT	n/a	n/a	n/a	-999	7	[0, 0, 0]	n/a	FR1	3	R1092J
780.748	2.452	822318	WORD	n/a	wordpools/wordpool_EN.txt	SHIP	1	7	[0, 0, 0]	n/a	FR1	3	R1092J
783.2	2.416	824770	WORD	n/a	wordpools/wordpool_EN.txt	LOCK	2	7	[0, 0, 0]	n/a	FR1	3	R1092J
785.616	2.485	827186	WORD	n/a	wordpools/wordpool_EN.txt	PLANE	3	7	[0, 0, 0]	n/a	FR1	3	R1092J
788.101	2.4	829671	WORD	n/a	wordpools/wordpool_EN.txt	GATE	4	7	[0, 0, 0]	n/a	FR1	3	R1092J
790.501	2.616	832070	WORD	n/a	wordpools/wordpool_EN.txt	PEAR	5	7	[0, 0, 0]	n/a	FR1	3	R1092J
793.117	2.567	834686	WORD	n/a	wordpools/wordpool_EN.txt	CORD	6	7	[0, 0, 0]	n/a	FR1	3	R1092J
795.684	2.518	837253	WORD	n/a	wordpools/wordpool_EN.txt	BEAN	7	7	[0, 0, 0]	n/a	FR1	3	R1092J
798.202	2.599	839771	WORD	n/a	wordpools/wordpool_EN.txt	CROWN	8	7	[0, 0, 0]	n/a	FR1	3	R1092J
800.801	2.485	842370	WORD	n/a	wordpools/wordpool_EN.txt	STEM	9	7	[0, 0, 0]	n/a	FR1	3	R1092J
803.286	2.482	844855	WORD	n/a	wordpools/wordpool_EN.txt	BEAK	10	7	[0, 0, 0]	n/a	FR1	3	R1092J
805.768	2.518	847337	WORD	n/a	wordpools/wordpool_EN.txt	SWORD	11	7	[0, 0, 0]	n/a	FR1	3	R1092J
808.286	1.617	849855	WORD	n/a	wordpools/wordpool_EN.txt	SPRING	12	7	[0, 0, 0]	n/a	FR1	3	R1092J
809.903	0.0	851472	DISTRACT_START	n/a	n/a	n/a	-999	7	[0, 0, 0]	n/a	FR1	3	R1092J
809.903	0.016	851472	START	n/a	n/a	n/a	-999	7	[-999, -999, -999]	n/a	FR1	3	R1092J
809.919	3.8	851488	PROB	3.8	n/a	n/a	-999	7	[8, 6, 1]	15	FR1	3	R1092J
813.719	2.652	855288	PROB	2.652	n/a	n/a	-999	7	[5, 2, 3]	10	FR1	3	R1092J
816.371	2.549	857940	PROB	2.549	n/a	n/a	-999	7	[5, 3, 6]	14	FR1	3	R1092J
818.92	6.169	860489	PROB	6.169	n/a	n/a	-999	7	[5, 9, 7]	21	FR1	3	R1092J
825.089	3.449	866658	PROB	3.449	n/a	n/a	-999	7	[2, 4, 9]	15	FR1	3	R1092J
828.538	2.055	870107	PROB	2.055	n/a	n/a	-999	7	[5, 8, 2]	15	FR1	3	R1092J
830.593	0.012	872162	STOP	n/a	n/a	n/a	-999	7	[-999, -999, -999]	n/a	FR1	3	R1092J
830.605	1.217	872174	DISTRACT_END	n/a	n/a	n/a	-999	7	[0, 0, 0]	n/a	FR1	3	R1092J
831.822	3.798	873391	REC_START	n/a	n/a	n/a	-999	7	[0, 0, 0]	n/a	FR1	3	R1092J
835.62	4.091	877189	REC_WORD	4.091	n/a	STRING	-999	7	[0, 0, 0]	n/a	FR1	3	R1092J
839.711	10.391	881280	REC_WORD	10.391	n/a	CROWN	8	7	[0, 0, 0]	n/a	FR1	3	R1092J
850.102	1.87	891671	REC_WORD	1.87	n/a	PLANE	3	7	[0, 0, 0]	n/a	FR1	3	R1092J
851.972	4.392	893541	REC_WORD	4.392	n/a	SHIP	1	7	[0, 0, 0]	n/a	FR1	3	R1092J
856.364	3.499	897933	REC_WORD	3.499	n/a	BOAT	-999	7	[0, 0, 0]	n/a	FR1	3	R1092J
859.863	1.973	901432	REC_WORD	1.973	n/a	CORD	6	7	[0, 0, 0]	n/a	FR1	3	R1092J
861.836	7.558	903405	REC_END	n/a	n/a	n/a	-999	7	[0, 0, 0]	n/a	FR1	3	R1092J
869.394	0.0	910963	TRIAL	n/a	n/a	n/a	-999	8	[0, 0, 0]	n/a	FR1	3	R1092J
869.394	10.428	910963	COUNTDOWN_START	n/a	n/a	n/a	-999	8	[0, 0, 0]	n/a	FR1	3	R1092J
879.822	0.006	921391	COUNTDOWN_END	n/a	n/a	n/a	-999	8	[0, 0, 0]	n/a	FR1	3	R1092J
879.828	3.685	921397	ORIENT	n/a	n/a	n/a	-999	8	[0, 0, 0]	n/a	FR1	3	R1092J
883.513	2.517	925082	WORD	n/a	wordpools/wordpool_EN.txt	BOY	1	8	[0, 0, 0]	n/a	FR1	3	R1092J
886.03	2.467	927599	WORD	n/a	wordpools/wordpool_EN.txt	SLEEVE	2	8	[0, 0, 0]	n/a	FR1	3	R1092J
888.497	2.399	930066	WORD	n/a	wordpools/wordpool_EN.txt	RAT	3	8	[0, 0, 0]	n/a	FR1	3	R1092J
890.896	2.401	932465	WORD	n/a	wordpools/wordpool_EN.txt	STEAK	4	8	[0, 0, 0]	n/a	FR1	3	R1092J
893.297	2.4	934866	WORD	n/a	wordpools/wordpool_EN.txt	SUIT	5	8	[0, 0, 0]	n/a	FR1	3	R1092J
895.697	2.501	937266	WORD	n/a	wordpools/wordpool_EN.txt	BENCH	6	8	[0, 0, 0]	n/a	FR1	3	R1092J
898.198	2.466	939767	WORD	n/a	wordpools/wordpool_EN.txt	TOAST	7	8	[0, 0, 0]	n/a	FR1	3	R1092J
900.664	2.618	942233	WORD	n/a	wordpools/wordpool_EN.txt	DOOR	8	8	[0, 0, 0]	n/a	FR1	3	R1092J
903.282	2.432	944851	WORD	n/a	wordpools/wordpool_EN.txt	HOOK	9	8	[0, 0, 0]	n/a	FR1	3	R1092J
905.714	2.502	947283	WORD	n/a	wordpools/wordpool_EN.txt	BATH	10	8	[0, 0, 0]	n/a	FR1	3	R1092J
908.216	2.566	949785	WORD	n/a	wordpools/wordpool_EN.txt	OAK	11	8	[0, 0, 0]	n/a	FR1	3	R1092J
910.782	1.618	952351	WORD	n/a	wordpools/wordpool_EN.txt	SLUSH	12	8	[0, 0, 0]	n/a	FR1	3	R1092J
912.4	0.0	953969	DISTRACT_START	n/a	n/a	n/a	-999	8	[0, 0, 0]	n/a	FR1	3	R1092J
912.4	0.016	953969	START	n/a	n/a	n/a	-999	8	[-999, -999, -999]	n/a	FR1	3	R1092J
912.416	2.667	953985	PROB	2.667	n/a	n/a	-999	8	[4, 3, 1]	8	FR1	3	R1092J
915.083	2.417	956652	PROB	2.417	n/a	n/a	-999	8	[4, 6, 4]	14	FR1	3	R1092J
917.5	2.817	959069	PROB	2.817	n/a	n/a	-999	8	[7, 8, 4]	19	FR1	3	R1092J
920.317	2.167	961886	PROB	2.167	n/a	n/a	-999	8	[3, 2, 5]	10	FR1	3	R1092J
922.484	2.133	964053	PROB	2.133	n/a	n/a	-999	8	[2, 3, 6]	11	FR1	3	R1092J
924.617	2.701	966186	PROB	2.701	n/a	n/a	-999	8	[5, 7, 8]	20	FR1	3	R1092J
927.318	2.366	968887	PROB	2.366	n/a	n/a	-999	8	[1, 9, 8]	18	FR1	3	R1092J
929.684	2.217	971253	PROB	2.217	n/a	n/a	-999	8	[3, 7, 3]	13	FR1	3	R1092J
931.901	2.065	973470	PROB	2.065	n/a	n/a	-999	8	[7, 1, 9]	17	FR1	3	R1092J
933.966	0.02	975535	STOP	n/a	n/a	n/a	-999	8	[-999, -999, -999]	n/a	FR1	3	R1092J
933.986	1.134	975555	DISTRACT_END	n/a	n/a	n/a	-999	8	[0, 0, 0]	n/a	FR1	3	R1092J
935.12	2.957	976689	REC_START	n/a	n/a	n/a	-999	8	[0, 0, 0]	n/a	FR1	3	R1092J
938.077	1.022	979645	REC_WORD	1.022	n/a	BOY	1	8	[0, 0, 0]	n/a	FR1	3	R1092J
939.099	1.867	980667	REC_WORD	1.867	n/a	SLEEVE	2	8	[0, 0, 0]	n/a	FR1	3	R1092J
940.966	2.238	982534	REC_WORD	2.238	n/a	OAK	11	8	[0, 0, 0]	n/a	FR1	3	R1092J
943.204	15.451	984772	REC_WORD	15.451	n/a	TENT	-999	8	[0, 0, 0]	n/a	FR1	3	R1092J
958.655	6.475	1000223	REC_WORD	6.475	n/a	RAT	3	8	[0, 0, 0]	n/a	FR1	3	R1092J
965.13	4.06	1006698	REC_END	n/a	n/a	n/a	-999	8	[0, 0, 0]	n/a	FR1	3	R1092J
969.19	0.0	1010758	TRIAL	n/a	n/a	n/a	-999	9	[0, 0, 0]	n/a	FR1	3	R1092J
969.19	10.428	1010758	COUNTDOWN_START	n/a	n/a	n/a	-999	9	[0, 0, 0]	n/a	FR1	3	R1092J
979.618	0.006	1021186	COUNTDOWN_END	n/a	n/a	n/a	-999	9	[0, 0, 0]	n/a	FR1	3	R1092J
979.624	3.768	1021192	ORIENT	n/a	n/a	n/a	-999	9	[0, 0, 0]	n/a	FR1	3	R1092J
983.392	2.399	1024960	WORD	n/a	wordpools/wordpool_EN.txt	MOON	1	9	[0, 0, 0]	n/a	FR1	3	R1092J
985.791	2.419	1027359	WORD	n/a	wordpools/wordpool_EN.txt	CUP	2	9	[0, 0, 0]	n/a	FR1	3	R1092J
988.21	2.499	1029778	WORD	n/a	wordpools/wordpool_EN.txt	OWL	3	9	[0, 0, 0]	n/a	FR1	3	R1092J
990.709	2.601	1032277	WORD	n/a	wordpools/wordpool_EN.txt	BLUSH	4	9	[0, 0, 0]	n/a	FR1	3	R1092J
993.31	2.383	1034878	WORD	n/a	wordpools/wordpool_EN.txt	SEAL	5	9	[0, 0, 0]	n/a	FR1	3	R1092J
995.693	2.601	1037261	WORD	n/a	wordpools/wordpool_EN.txt	BAG	6	9	[0, 0, 0]	n/a	FR1	3	R1092J
998.294	2.516	1039862	WORD	n/a	wordpools/wordpool_EN.txt	MAIL	7	9	[0, 0, 0]	n/a	FR1	3	R1092J
1000.81	2.385	1042378	WORD	n/a	wordpools/wordpool_EN.txt	HORSE	8	9	[0, 0, 0]	n/a	FR1	3	R1092J
1003.195	2.582	1044763	WORD	n/a	wordpools/wordpool_EN.txt	SPONGE	9	9	[0, 0, 0]	n/a	FR1	3	R1092J
1005.777	2.402	1047345	WORD	n/a	wordpools/wordpool_EN.txt	FISH	10	9	[0, 0, 0]	n/a	FR1	3	R1092J
1008.179	2.465	1049747	WORD	n/a	wordpools/wordpool_EN.txt	TEETH	11	9	[0, 0, 0]	n/a	FR1	3	R1092J
1010.644	1.601	1052212	WORD	n/a	wordpools/wordpool_EN.txt	BOAT	12	9	[0, 0, 0]	n/a	FR1	3	R1092J
1012.245	0.001	1053813	DISTRACT_START	n/a	n/a	n/a	-999	9	[0, 0, 0]	n/a	FR1	3	R1092J
1012.246	0.016	1053814	START	n/a	n/a	n/a	-999	9	[-999, -999, -999]	n/a	FR1	3	R1092J
1012.262	2.834	1053830	PROB	2.834	n/a	n/a	-999	9	[7, 2, 3]	12	FR1	3	R1092J
1015.096	2.55	1056664	PROB	2.55	n/a	n/a	-999	9	[4, 9, 4]	17	FR1	3	R1092J
1017.646	2.317	1059214	PROB	2.317	n/a	n/a	-999	9	[5, 6, 3]	14	FR1	3	R1092J
1019.963	2.551	1061531	PROB	2.551	n/a	n/a	-999	9	[5, 9, 2]	16	FR1	3	R1092J
1022.514	2.399	1064082	PROB	2.399	n/a	n/a	-999	9	[8, 5, 4]	17	FR1	3	R1092J
1024.913	2.485	1066481	PROB	2.485	n/a	n/a	-999	9	[7, 2, 5]	14	FR1	3	R1092J
1027.398	2.75	1068966	PROB	2.75	n/a	n/a	-999	9	[2, 4, 7]	13	FR1	3	R1092J
1030.148	2.174	1071716	PROB	2.174	n/a	n/a	-999	9	[6, 7, 7]	20	FR1	3	R1092J
1032.322	0.009	1073890	STOP	n/a	n/a	n/a	-999	9	[-999, -999, -999]	n/a	FR1	3	R1092J
1032.331	1.068	1073899	DISTRACT_END	n/a	n/a	n/a	-999	9	[0, 0, 0]	n/a	FR1	3	R1092J
1033.399	2.371	1074967	REC_START	n/a	n/a	n/a	-999	9	[0, 0, 0]	n/a	FR1	3	R1092J
1035.77	2.516	1077338	REC_WORD	2.516	n/a	SLEEVE	-999	9	[0, 0, 0]	n/a	FR1	3	R1092J
1038.286	4.196	1079854	REC_WORD	4.196	n/a	CUP	2	9	[0, 0, 0]	n/a	FR1	3	R1092J
1042.482	11.685	1084050	REC_WORD	11.685	n/a	OWL	3	9	[0, 0, 0]	n/a	FR1	3	R1092J
1054.167	9.241	1095735	REC_WORD	9.241	n/a	MOUSE	-999	9	[0, 0, 0]	n/a	FR1	3	R1092J
1063.408	4.544	1104976	REC_END	n/a	n/a	n/a	-999	9	[0, 0, 0]	n/a	FR1	3	R1092J
1067.952	0.0	1109520	COUNTDOWN_START	n/a	n/a	n/a	-999	10	[0, 0, 0]	n/a	FR1	3	R1092J
1067.952	10.428	1109520	TRIAL	n/a	n/a	n/a	-999	10	[0, 0, 0]	n/a	FR1	3	R1092J
1078.38	0.008	1119948	COUNTDOWN_END	n/a	n/a	n/a	-999	10	[0, 0, 0]	n/a	FR1	3	R1092J
1078.388	3.783	1119956	ORIENT	n/a	n/a	n/a	-999	10	[0, 0, 0]	n/a	FR1	3	R1092J
1082.171	2.4	1123739	WORD	n/a	wordpools/wordpool_EN.txt	STAR	1	10	[0, 0, 0]	n/a	FR1	3	R1092J
1084.571	2.584	1126138	WORD	n/a	wordpools/wordpool_EN.txt	MOOSE	2	10	[0, 0, 0]	n/a	FR1	3	R1092J
1087.155	2.583	1128722	WORD	n/a	wordpools/wordpool_EN.txt	SAIL	3	10	[0, 0, 0]	n/a	FR1	3	R1092J
1089.738	2.401	1131305	WORD	n/a	wordpools/wordpool_EN.txt	ROCK	4	10	[0, 0, 0]	n/a	FR1	3	R1092J
1092.139	2.516	1133706	WORD	n/a	wordpools/wordpool_EN.txt	PANTS	5	10	[0, 0, 0]	n/a	FR1	3	R1092J
1094.655	2.468	1136222	WORD	n/a	wordpools/wordpool_EN.txt	CART	6	10	[0, 0, 0]	n/a	FR1	3	R1092J
1097.123	2.433	1138690	WORD	n/a	wordpools/wordpool_EN.txt	CROW	7	10	[0, 0, 0]	n/a	FR1	3	R1092J
1099.556	2.551	1141123	WORD	n/a	wordpools/wordpool_EN.txt	COW	8	10	[0, 0, 0]	n/a	FR1	3	R1092J
1102.107	2.466	1143674	WORD	n/a	wordpools/wordpool_EN.txt	GRAPE	9	10	[0, 0, 0]	n/a	FR1	3	R1092J
1104.573	2.535	1146140	WORD	n/a	wordpools/wordpool_EN.txt	HEN	10	10	[0, 0, 0]	n/a	FR1	3	R1092J
1107.108	2.533	1148675	WORD	n/a	wordpools/wordpool_EN.txt	SHRIMP	11	10	[0, 0, 0]	n/a	FR1	3	R1092J
1109.641	1.617	1151208	WORD	n/a	wordpools/wordpool_EN.txt	BEAR	12	10	[0, 0, 0]	n/a	FR1	3	R1092J
1111.258	0.001	1152825	DISTRACT_START	n/a	n/a	n/a	-999	10	[0, 0, 0]	n/a	FR1	3	R1092J
1111.259	0.016	1152826	START	n/a	n/a	n/a	-999	10	[-999, -999, -999]	n/a	FR1	3	R1092J
1111.275	3.316	1152842	PROB	3.316	n/a	n/a	-999	10	[4, 9, 5]	18	FR1	3	R1092J
1114.591	2.552	1156158	PROB	2.552	n/a	n/a	-999	10	[8, 1, 3]	12	FR1	3	R1092J
1117.143	2.283	1158710	PROB	2.283	n/a	n/a	-999	10	[6, 4, 4]	14	FR1	3	R1092J
1119.426	2.216	1160993	PROB	2.216	n/a	n/a	-999	10	[1, 1, 8]	10	FR1	3	R1092J
1121.642	2.3	1163209	PROB	2.3	n/a	n/a	-999	10	[3, 7, 6]	16	FR1	3	R1092J
1123.942	2.468	1165509	PROB	2.468	n/a	n/a	-999	10	[4, 3, 8]	15	FR1	3	R1092J
1126.41	3.35	1167977	PROB	3.35	n/a	n/a	-999	10	[7, 2, 5]	14	FR1	3	R1092J
1129.76	3.262	1171327	PROB	3.262	n/a	n/a	-999	10	[5, 4, 5]	14	FR1	3	R1092J
1133.022	0.006	1174589	STOP	n/a	n/a	n/a	-999	10	[-999, -999, -999]	n/a	FR1	3	R1092J
1133.028	1.183	1174595	DISTRACT_END	n/a	n/a	n/a	-999	10	[0, 0, 0]	n/a	FR1	3	R1092J
1134.211	1.828	1175778	REC_START	n/a	n/a	n/a	-999	10	[0, 0, 0]	n/a	FR1	3	R1092J
1136.039	1.624	1177606	REC_WORD	1.624	n/a	SLEEVE	-999	10	[0, 0, 0]	n/a	FR1	3	R1092J
1137.663	3.66	1179230	REC_WORD	3.66	n/a	CUP	-999	10	[0, 0, 0]	n/a	FR1	3	R1092J
1141.323	9.533	1182890	REC_WORD	9.533	n/a	COW	8	10	[0, 0, 0]	n/a	FR1	3	R1092J
1150.856	6.282	1192423	REC_WORD	6.282	n/a	CLOUD	-999	10	[0, 0, 0]	n/a	FR1	3	R1092J
1157.138	7.09	1198705	REC_WORD	7.09	n/a	SAIL	3	10	[0, 0, 0]	n/a	FR1	3	R1092J
1164.228	4.738	1205795	REC_END	n/a	n/a	n/a	-999	10	[0, 0, 0]	n/a	FR1	3	R1092J
1168.966	0.0	1210533	TRIAL	n/a	n/a	n/a	-999	11	[0, 0, 0]	n/a	FR1	3	R1092J
1168.966	10.428	1210533	COUNTDOWN_START	n/a	n/a	n/a	-999	11	[0, 0, 0]	n/a	FR1	3	R1092J
1179.394	0.007	1220961	COUNTDOWN_END	n/a	n/a	n/a	-999	11	[0, 0, 0]	n/a	FR1	3	R1092J
1179.401	3.515	1220968	ORIENT	n/a	n/a	n/a	-999	11	[0, 0, 0]	n/a	FR1	3	R1092J
1182.916	2.552	1224483	WORD	n/a	wordpools/wordpool_EN.txt	CLOCK	1	11	[0, 0, 0]	n/a	FR1	3	R1092J
1185.468	2.6	1227035	WORD	n/a	wordpools/wordpool_EN.txt	SEED	2	11	[0, 0, 0]	n/a	FR1	3	R1092J
1188.068	2.483	1229635	WORD	n/a	wordpools/wordpool_EN.txt	BRANCH	3	11	[0, 0, 0]	n/a	FR1	3	R1092J
1190.551	2.383	1232118	WORD	n/a	wordpools/wordpool_EN.txt	CRANE	4	11	[0, 0, 0]	n/a	FR1	3	R1092J
1192.934	2.385	1234501	WORD	n/a	wordpools/wordpool_EN.txt	ICE	5	11	[0, 0, 0]	n/a	FR1	3	R1092J
1195.319	2.599	1236886	WORD	n/a	wordpools/wordpool_EN.txt	MOUTH	6	11	[0, 0, 0]	n/a	FR1	3	R1092J
1197.918	2.568	1239485	WORD	n/a	wordpools/wordpool_EN.txt	SLIME	7	11	[0, 0, 0]	n/a	FR1	3	R1092J
1200.486	2.617	1242053	WORD	n/a	wordpools/wordpool_EN.txt	CLAY	8	11	[0, 0, 0]	n/a	FR1	3	R1092J
1203.103	2.5	1244670	WORD	n/a	wordpools/wordpool_EN.txt	SMOKE	9	11	[0, 0, 0]	n/a	FR1	3	R1092J
1205.603	2.601	1247170	WORD	n/a	wordpools/wordpool_EN.txt	EAR	10	11	[0, 0, 0]	n/a	FR1	3	R1092J
1208.204	2.433	1249771	WORD	n/a	wordpools/wordpool_EN.txt	FOAM	11	11	[0, 0, 0]	n/a	FR1	3	R1092J
1210.637	1.617	1252204	WORD	n/a	wordpools/wordpool_EN.txt	TOOTH	12	11	[0, 0, 0]	n/a	FR1	3	R1092J
1212.254	0.001	1253821	DISTRACT_START	n/a	n/a	n/a	-999	11	[0, 0, 0]	n/a	FR1	3	R1092J
1212.255	0.016	1253822	START	n/a	n/a	n/a	-999	11	[-999, -999, -999]	n/a	FR1	3	R1092J
1212.271	3.984	1253838	PROB	3.984	n/a	n/a	-999	11	[6, 6, 2]	14	FR1	3	R1092J
1216.255	3.134	1257822	PROB	3.134	n/a	n/a	-999	11	[6, 1, 3]	10	FR1	3	R1092J
1219.389	2.166	1260956	PROB	2.166	n/a	n/a	-999	11	[7, 7, 4]	18	FR1	3	R1092J
1221.555	2.668	1263122	PROB	2.668	n/a	n/a	-999	11	[7, 6, 8]	21	FR1	3	R1092J
1224.223	2.449	1265790	PROB	2.449	n/a	n/a	-999	11	[6, 9, 2]	17	FR1	3	R1092J
1226.672	2.117	1268239	PROB	2.117	n/a	n/a	-999	11	[9, 3, 1]	13	FR1	3	R1092J
1228.789	2.817	1270356	PROB	2.817	n/a	n/a	-999	11	[6, 6, 6]	18	FR1	3	R1092J
1231.606	2.443	1273172	PROB	2.443	n/a	n/a	-999	11	[4, 3, 1]	8	FR1	3	R1092J
1234.049	0.008	1275615	STOP	n/a	n/a	n/a	-999	11	[-999, -999, -999]	n/a	FR1	3	R1092J
1234.057	1.118	1275623	DISTRACT_END	n/a	n/a	n/a	-999	11	[0, 0, 0]	n/a	FR1	3	R1092J
1235.175	2.539	1276741	REC_START	n/a	n/a	n/a	-999	11	[0, 0, 0]	n/a	FR1	3	R1092J
1237.714	2.965	1279280	REC_WORD	2.965	n/a	CLOCK	1	11	[0, 0, 0]	n/a	FR1	3	R1092J
1240.679	3.279	1282245	REC_WORD	3.279	n/a	SLEEVE	-999	11	[0, 0, 0]	n/a	FR1	3	R1092J
1243.958	1.938	1285524	REC_WORD	1.938	n/a	MOUTH	6	11	[0, 0, 0]	n/a	FR1	3	R1092J
1245.896	4.878	1287462	REC_WORD	4.878	n/a	SLIME	7	11	[0, 0, 0]	n/a	FR1	3	R1092J
1250.774	4.815	1292340	REC_WORD	4.815	n/a	TOOTH	12	11	[0, 0, 0]	n/a	FR1	3	R1092J
1255.589	9.598	1297155	REC_WORD	9.598	n/a	CAT	-999	11	[0, 0, 0]	n/a	FR1	3	R1092J
1265.187	4.825	1306753	REC_END	n/a	n/a	n/a	-999	11	[0, 0, 0]	n/a	FR1	3	R1092J
1270.012	0.0	1311578	COUNTDOWN_START	n/a	n/a	n/a	-999	12	[0, 0, 0]	n/a	FR1	3	R1092J
1270.012	10.428	1311578	TRIAL	n/a	n/a	n/a	-999	12	[0, 0, 0]	n/a	FR1	3	R1092J
1280.44	0.006	1322006	COUNTDOWN_END	n/a	n/a	n/a	-999	12	[0, 0, 0]	n/a	FR1	3	R1092J
1280.446	3.651	1322012	ORIENT	n/a	n/a	n/a	-999	12	[0, 0, 0]	n/a	FR1	3	R1092J
1284.097	2.516	1325663	WORD	n/a	wordpools/wordpool_EN.txt	PHONE	1	12	[0, 0, 0]	n/a	FR1	3	R1092J
1286.613	2.602	1328179	WORD	n/a	wordpools/wordpool_EN.txt	CLIFF	2	12	[0, 0, 0]	n/a	FR1	3	R1092J
1289.215	2.398	1330781	WORD	n/a	wordpools/wordpool_EN.txt	HEART	3	12	[0, 0, 0]	n/a	FR1	3	R1092J
1291.613	2.419	1333179	WORD	n/a	wordpools/wordpool_EN.txt	CLOTH	4	12	[0, 0, 0]	n/a	FR1	3	R1092J
1294.032	2.549	1335598	WORD	n/a	wordpools/wordpool_EN.txt	TRUCK	5	12	[0, 0, 0]	n/a	FR1	3	R1092J
1296.581	2.618	1338147	WORD	n/a	wordpools/wordpool_EN.txt	CHEEK	6	12	[0, 0, 0]	n/a	FR1	3	R1092J
1299.199	2.449	1340765	WORD	n/a	wordpools/wordpool_EN.txt	CHIN	7	12	[0, 0, 0]	n/a	FR1	3	R1092J
1301.648	2.602	1343214	WORD	n/a	wordpools/wordpool_EN.txt	SKI	8	12	[0, 0, 0]	n/a	FR1	3	R1092J
1304.25	2.566	1345816	WORD	n/a	wordpools/wordpool_EN.txt	APE	9	12	[0, 0, 0]	n/a	FR1	3	R1092J
1306.816	2.634	1348382	WORD	n/a	wordpools/wordpool_EN.txt	AXE	10	12	[0, 0, 0]	n/a	FR1	3	R1092J
1309.45	2.466	1351016	WORD	n/a	wordpools/wordpool_EN.txt	NAIL	11	12	[0, 0, 0]	n/a	FR1	3	R1092J
1311.916	1.601	1353482	WORD	n/a	wordpools/wordpool_EN.txt	LAWN	12	12	[0, 0, 0]	n/a	FR1	3	R1092J
1313.517	0.001	1355083	DISTRACT_START	n/a	n/a	n/a	-999	12	[0, 0, 0]	n/a	FR1	3	R1092J
1313.518	0.015	1355084	START	n/a	n/a	n/a	-999	12	[-999, -999, -999]	n/a	FR1	3	R1092J
1313.533	3.017	1355099	PROB	3.017	n/a	n/a	-999	12	[7, 6, 6]	19	FR1	3	R1092J
1316.55	2.317	1358116	PROB	2.317	n/a	n/a	-999	12	[2, 7, 8]	17	FR1	3	R1092J
1318.867	3.485	1360433	PROB	3.485	n/a	n/a	-999	12	[8, 3, 9]	20	FR1	3	R1092J
1322.352	4.183	1363918	PROB	4.183	n/a	n/a	-999	12	[1, 8, 3]	11	FR1	3	R1092J
1326.535	3.468	1368101	PROB	3.468	n/a	n/a	-999	12	[8, 5, 4]	17	FR1	3	R1092J
1330.003	2.566	1371569	PROB	2.566	n/a	n/a	-999	12	[9, 9, 1]	19	FR1	3	R1092J
1332.569	2.748	1374135	PROB	2.748	n/a	n/a	-999	12	[5, 7, 6]	18	FR1	3	R1092J
1335.317	0.02	1376883	STOP	n/a	n/a	n/a	-999	12	[-999, -999, -999]	n/a	FR1	3	R1092J
1335.337	1.134	1376903	DISTRACT_END	n/a	n/a	n/a	-999	12	[0, 0, 0]	n/a	FR1	3	R1092J
1336.471	3.288	1378037	REC_START	n/a	n/a	n/a	-999	12	[0, 0, 0]	n/a	FR1	3	R1092J
1339.759	4.712	1381325	REC_WORD	4.712	n/a	CLOCK	-999	12	[0, 0, 0]	n/a	FR1	3	R1092J
1344.471	2.943	1386037	REC_WORD	2.943	n/a	CHIN	7	12	[0, 0, 0]	n/a	FR1	3	R1092J
1347.414	2.663	1388980	REC_WORD	2.663	n/a	CLIFF	2	12	[0, 0, 0]	n/a	FR1	3	R1092J
1350.077	4.08	1391643	REC_WORD	4.08	n/a	HEART	3	12	[0, 0, 0]	n/a	FR1	3	R1092J
1354.157	8.49	1395723	REC_WORD	8.49	n/a	CUP	-999	12	[0, 0, 0]	n/a	FR1	3	R1092J
1362.647	3.836	1404213	REC_WORD	3.836	n/a	APE	9	12	[0, 0, 0]	n/a	FR1	3	R1092J
1366.483	26.327	1408049	REC_END	n/a	n/a	n/a	-999	12	[0, 0, 0]	n/a	FR1	3	R1092J
1392.81	0.0	1434375	TRIAL	n/a	n/a	n/a	-999	13	[0, 0, 0]	n/a	FR1	3	R1092J
1392.81	10.428	1434375	COUNTDOWN_START	n/a	n/a	n/a	-999	13	[0, 0, 0]	n/a	FR1	3	R1092J
1403.238	0.007	1444803	COUNTDOWN_END	n/a	n/a	n/a	-999	13	[0, 0, 0]	n/a	FR1	3	R1092J
1403.245	3.801	1444810	ORIENT	n/a	n/a	n/a	-999	13	[0, 0, 0]	n/a	FR1	3	R1092J
1407.046	2.583	1448611	WORD	n/a	wordpools/wordpool_EN.txt	TRASH	1	13	[0, 0, 0]	n/a	FR1	3	R1092J
1409.629	2.601	1451194	WORD	n/a	wordpools/wordpool_EN.txt	CASH	2	13	[0, 0, 0]	n/a	FR1	3	R1092J
1412.23	2.466	1453795	WORD	n/a	wordpools/wordpool_EN.txt	FORT	3	13	[0, 0, 0]	n/a	FR1	3	R1092J
1414.696	2.501	1456261	WORD	n/a	wordpools/wordpool_EN.txt	GOLD	4	13	[0, 0, 0]	n/a	FR1	3	R1092J
1417.197	2.566	1458762	WORD	n/a	wordpools/wordpool_EN.txt	WHALE	5	13	[0, 0, 0]	n/a	FR1	3	R1092J
1419.763	2.485	1461328	WORD	n/a	wordpools/wordpool_EN.txt	ROSE	6	13	[0, 0, 0]	n/a	FR1	3	R1092J
1422.248	2.433	1463813	WORD	n/a	wordpools/wordpool_EN.txt	MUD	7	13	[0, 0, 0]	n/a	FR1	3	R1092J
1424.681	2.451	1466246	WORD	n/a	wordpools/wordpool_EN.txt	PEACH	8	13	[0, 0, 0]	n/a	FR1	3	R1092J
1427.132	2.566	1468697	WORD	n/a	wordpools/wordpool_EN.txt	ROOM	9	13	[0, 0, 0]	n/a	FR1	3	R1092J
1429.698	2.401	1471263	WORD	n/a	wordpools/wordpool_EN.txt	STRAW	10	13	[0, 0, 0]	n/a	FR1	3	R1092J
1432.099	2.433	1473664	WORD	n/a	wordpools/wordpool_EN.txt	SIGN	11	13	[0, 0, 0]	n/a	FR1	3	R1092J
1434.532	1.601	1476097	WORD	n/a	wordpools/wordpool_EN.txt	SALT	12	13	[0, 0, 0]	n/a	FR1	3	R1092J
1436.133	0.001	1477698	DISTRACT_START	n/a	n/a	n/a	-999	13	[0, 0, 0]	n/a	FR1	3	R1092J
1436.134	0.016	1477699	START	n/a	n/a	n/a	-999	13	[-999, -999, -999]	n/a	FR1	3	R1092J
1436.15	3.367	1477715	PROB	3.367	n/a	n/a	-999	13	[5, 2, 3]	10	FR1	3	R1092J
1439.517	2.65	1481082	PROB	2.65	n/a	n/a	-999	13	[7, 2, 8]	17	FR1	3	R1092J
1442.167	4.55	1483732	PROB	4.55	n/a	n/a	-999	13	[5, 7, 4]	16	FR1	3	R1092J
1446.717	2.067	1488282	PROB	2.067	n/a	n/a	-999	13	[4, 9, 8]	21	FR1	3	R1092J
1448.784	3.368	1490349	PROB	3.368	n/a	n/a	-999	13	[1, 2, 6]	9	FR1	3	R1092J
1452.152	3.383	1493717	PROB	3.383	n/a	n/a	-999	13	[4, 4, 5]	13	FR1	3	R1092J
1455.535	4.705	1497100	PROB	4.705	n/a	n/a	-999	13	[8, 9, 9]	26	FR1	3	R1092J
1460.24	0.013	1501805	STOP	n/a	n/a	n/a	-999	13	[-999, -999, -999]	n/a	FR1	3	R1092J
1460.253	1.218	1501818	DISTRACT_END	n/a	n/a	n/a	-999	13	[0, 0, 0]	n/a	FR1	3	R1092J
1461.471	4.475	1503036	REC_START	n/a	n/a	n/a	-999	13	[0, 0, 0]	n/a	FR1	3	R1092J
1465.946	2.235	1507511	REC_WORD	2.235	n/a	CASH	2	13	[0, 0, 0]	n/a	FR1	3	R1092J
1468.181	3.763	1509746	REC_WORD	3.763	n/a	TRASH	1	13	[0, 0, 0]	n/a	FR1	3	R1092J
1471.944	2.668	1513509	REC_WORD	2.668	n/a	FORT	3	13	[0, 0, 0]	n/a	FR1	3	R1092J
1474.612	5.201	1516177	REC_WORD	5.201	n/a	GOLD	4	13	[0, 0, 0]	n/a	FR1	3	R1092J
1479.813	3.146	1521378	REC_WORD	3.146	n/a	CHIN	-999	13	[0, 0, 0]	n/a	FR1	3	R1092J
1482.959	8.523	1524524	REC_WORD	8.523	n/a	STREAM	-999	13	[0, 0, 0]	n/a	FR1	3	R1092J
1491.482	4.408	1533047	REC_END	n/a	n/a	n/a	-999	13	[0, 0, 0]	n/a	FR1	3	R1092J
1495.89	0.0	1537455	COUNTDOWN_START	n/a	n/a	n/a	-999	14	[0, 0, 0]	n/a	FR1	3	R1092J
1495.89	10.428	1537455	TRIAL	n/a	n/a	n/a	-999	14	[0, 0, 0]	n/a	FR1	3	R1092J
1506.318	0.007	1547883	COUNTDOWN_END	n/a	n/a	n/a	-999	14	[0, 0, 0]	n/a	FR1	3	R1092J
1506.325	3.651	1547890	ORIENT	n/a	n/a	n/a	-999	14	[0, 0, 0]	n/a	FR1	3	R1092J
1509.976	2.467	1551541	WORD	n/a	wordpools/wordpool_EN.txt	TANK	1	14	[0, 0, 0]	n/a	FR1	3	R1092J
1512.443	2.534	1554008	WORD	n/a	wordpools/wordpool_EN.txt	SPARK	2	14	[0, 0, 0]	n/a	FR1	3	R1092J
1514.977	2.533	1556542	WORD	n/a	wordpools/wordpool_EN.txt	ELF	3	14	[0, 0, 0]	n/a	FR1	3	R1092J
1517.51	2.517	1559075	WORD	n/a	wordpools/wordpool_EN.txt	SNAIL	4	14	[0, 0, 0]	n/a	FR1	3	R1092J
1520.027	2.549	1561592	WORD	n/a	wordpools/wordpool_EN.txt	GLOVE	5	14	[0, 0, 0]	n/a	FR1	3	R1092J
1522.576	2.468	1564141	WORD	n/a	wordpools/wordpool_EN.txt	COUCH	6	14	[0, 0, 0]	n/a	FR1	3	R1092J
1525.044	2.567	1566609	WORD	n/a	wordpools/wordpool_EN.txt	PIE	7	14	[0, 0, 0]	n/a	FR1	3	R1092J
1527.611	2.434	1569175	WORD	n/a	wordpools/wordpool_EN.txt	PEN	8	14	[0, 0, 0]	n/a	FR1	3	R1092J
1530.045	2.467	1571609	WORD	n/a	wordpools/wordpool_EN.txt	ROAD	9	14	[0, 0, 0]	n/a	FR1	3	R1092J
1532.512	2.45	1574076	WORD	n/a	wordpools/wordpool_EN.txt	FLAG	10	14	[0, 0, 0]	n/a	FR1	3	R1092J
1534.962	2.518	1576526	WORD	n/a	wordpools/wordpool_EN.txt	CANE	11	14	[0, 0, 0]	n/a	FR1	3	R1092J
1537.48	1.616	1579044	WORD	n/a	wordpools/wordpool_EN.txt	DOCK	12	14	[0, 0, 0]	n/a	FR1	3	R1092J
1539.096	0.001	1580660	DISTRACT_START	n/a	n/a	n/a	-999	14	[0, 0, 0]	n/a	FR1	3	R1092J
1539.097	0.016	1580661	START	n/a	n/a	n/a	-999	14	[-999, -999, -999]	n/a	FR1	3	R1092J
1539.113	2.749	1580677	PROB	2.749	n/a	n/a	-999	14	[2, 3, 3]	8	FR1	3	R1092J
1541.862	3.402	1583426	PROB	3.402	n/a	n/a	-999	14	[5, 9, 3]	17	FR1	3	R1092J
1545.264	2.282	1586828	PROB	2.282	n/a	n/a	-999	14	[3, 5, 4]	12	FR1	3	R1092J
1547.546	2.718	1589110	PROB	2.718	n/a	n/a	-999	14	[8, 5, 4]	17	FR1	3	R1092J
1550.264	3.017	1591828	PROB	3.017	n/a	n/a	-999	14	[5, 7, 6]	18	FR1	3	R1092J
1553.281	2.566	1594845	PROB	2.566	n/a	n/a	-999	14	[3, 9, 6]	18	FR1	3	R1092J
1555.847	2.385	1597411	PROB	2.385	n/a	n/a	-999	14	[4, 4, 9]	17	FR1	3	R1092J
1558.232	2.14	1599796	PROB	2.14	n/a	n/a	-999	14	[4, 2, 5]	11	FR1	3	R1092J
1560.372	0.01	1601936	STOP	n/a	n/a	n/a	-999	14	[-999, -999, -999]	n/a	FR1	3	R1092J
1560.382	1.101	1601946	DISTRACT_END	n/a	n/a	n/a	-999	14	[0, 0, 0]	n/a	FR1	3	R1092J
1561.483	1.939	1603047	REC_START	n/a	n/a	n/a	-999	14	[0, 0, 0]	n/a	FR1	3	R1092J
1563.422	1.887	1604986	REC_WORD_VV	1.887	n/a	<>	-999	14	[0, 0, 0]	n/a	FR1	3	R1092J
1565.309	3.209	1606873	REC_WORD	3.209	n/a	COUCH	6	14	[0, 0, 0]	n/a	FR1	3	R1092J
1568.518	10.458	1610082	REC_WORD	10.458	n/a	SAIL	-999	14	[0, 0, 0]	n/a	FR1	3	R1092J
1578.976	12.52	1620540	REC_WORD	12.52	n/a	CUP	-999	14	[0, 0, 0]	n/a	FR1	3	R1092J
1591.496	6.825	1633060	REC_END	n/a	n/a	n/a	-999	14	[0, 0, 0]	n/a	FR1	3	R1092J
1598.321	0.0	1639885	TRIAL	n/a	n/a	n/a	-999	15	[0, 0, 0]	n/a	FR1	3	R1092J
1598.321	10.428	1639885	COUNTDOWN_START	n/a	n/a	n/a	-999	15	[0, 0, 0]	n/a	FR1	3	R1092J
1608.749	0.005	1650313	COUNTDOWN_END	n/a	n/a	n/a	-999	15	[0, 0, 0]	n/a	FR1	3	R1092J
1608.754	3.568	1650318	ORIENT	n/a	n/a	n/a	-999	15	[0, 0, 0]	n/a	FR1	3	R1092J
1612.322	2.433	1653886	WORD	n/a	wordpools/wordpool_EN.txt	FENCE	1	15	[0, 0, 0]	n/a	FR1	3	R1092J
1614.755	2.568	1656319	WORD	n/a	wordpools/wordpool_EN.txt	FRUIT	2	15	[0, 0, 0]	n/a	FR1	3	R1092J
1617.323	2.433	1658887	WORD	n/a	wordpools/wordpool_EN.txt	CHIEF	3	15	[0, 0, 0]	n/a	FR1	3	R1092J
1619.756	2.601	1661320	WORD	n/a	wordpools/wordpool_EN.txt	NET	4	15	[0, 0, 0]	n/a	FR1	3	R1092J
1622.357	2.466	1663921	WORD	n/a	wordpools/wordpool_EN.txt	STONE	5	15	[0, 0, 0]	n/a	FR1	3	R1092J
1624.823	2.601	1666387	WORD	n/a	wordpools/wordpool_EN.txt	WORLD	6	15	[0, 0, 0]	n/a	FR1	3	R1092J
1627.424	2.567	1668988	WORD	n/a	wordpools/wordpool_EN.txt	RICE	7	15	[0, 0, 0]	n/a	FR1	3	R1092J
1629.991	2.467	1671555	WORD	n/a	wordpools/wordpool_EN.txt	PASTE	8	15	[0, 0, 0]	n/a	FR1	3	R1092J
1632.458	2.433	1674022	WORD	n/a	wordpools/wordpool_EN.txt	KEY	9	15	[0, 0, 0]	n/a	FR1	3	R1092J
1634.891	2.635	1676455	WORD	n/a	wordpools/wordpool_EN.txt	SKUNK	10	15	[0, 0, 0]	n/a	FR1	3	R1092J
1637.526	2.583	1679090	WORD	n/a	wordpools/wordpool_EN.txt	TOAD	11	15	[0, 0, 0]	n/a	FR1	3	R1092J
1640.109	1.616	1681673	WORD	n/a	wordpools/wordpool_EN.txt	TOOL	12	15	[0, 0, 0]	n/a	FR1	3	R1092J
1641.725	0.001	1683289	DISTRACT_START	n/a	n/a	n/a	-999	15	[0, 0, 0]	n/a	FR1	3	R1092J
1641.726	0.016	1683290	START	n/a	n/a	n/a	-999	15	[-999, -999, -999]	n/a	FR1	3	R1092J
1641.742	3.234	1683306	PROB	3.234	n/a	n/a	-999	15	[1, 5, 2]	8	FR1	3	R1092J
1644.976	2.368	1686540	PROB	2.368	n/a	n/a	-999	15	[7, 3, 3]	13	FR1	3	R1092J
1647.344	2.683	1688908	PROB	2.683	n/a	n/a	-999	15	[1, 2, 9]	12	FR1	3	R1092J
1650.027	2.234	1691591	PROB	2.234	n/a	n/a	-999	15	[4, 9, 8]	21	FR1	3	R1092J
1652.261	3.316	1693825	PROB	3.316	n/a	n/a	-999	15	[3, 9, 2]	14	FR1	3	R1092J
1655.577	2.451	1697141	PROB	2.451	n/a	n/a	-999	15	[7, 1, 4]	12	FR1	3	R1092J
1658.028	2.15	1699592	PROB	2.15	n/a	n/a	-999	15	[4, 6, 1]	11	FR1	3	R1092J
1660.178	1.862	1701742	PROB	1.862	n/a	n/a	-999	15	[4, 6, 1]	11	FR1	3	R1092J
1662.04	0.005	1703604	STOP	n/a	n/a	n/a	-999	15	[-999, -999, -999]	n/a	FR1	3	R1092J
1662.045	1.168	1703609	DISTRACT_END	n/a	n/a	n/a	-999	15	[0, 0, 0]	n/a	FR1	3	R1092J
1663.213	2.535	1704777	REC_START	n/a	n/a	n/a	-999	15	[0, 0, 0]	n/a	FR1	3	R1092J
1665.748	2.058	1707312	REC_WORD	2.058	n/a	SKUNK	10	15	[0, 0, 0]	n/a	FR1	3	R1092J
1667.806	2.881	1709370	REC_WORD	2.881	n/a	TOAD	11	15	[0, 0, 0]	n/a	FR1	3	R1092J
1670.687	15.586	1712251	REC_WORD	15.586	n/a	FENCE	1	15	[0, 0, 0]	n/a	FR1	3	R1092J
1686.273	6.952	1727836	REC_WORD	6.952	n/a	PEAR	-999	15	[0, 0, 0]	n/a	FR1	3	R1092J
1693.225	4.158	1734788	REC_END	n/a	n/a	n/a	-999	15	[0, 0, 0]	n/a	FR1	3	R1092J
1697.383	0.0	1738946	TRIAL	n/a	n/a	n/a	-999	16	[0, 0, 0]	n/a	FR1	3	R1092J
1697.383	10.428	1738946	COUNTDOWN_START	n/a	n/a	n/a	-999	16	[0, 0, 0]	n/a	FR1	3	R1092J
1707.811	0.006	1749374	COUNTDOWN_END	n/a	n/a	n/a	-999	16	[0, 0, 0]	n/a	FR1	3	R1092J
1707.817	3.584	1749380	ORIENT	n/a	n/a	n/a	-999	16	[0, 0, 0]	n/a	FR1	3	R1092J
1711.401	2.5	1752964	WORD	n/a	wordpools/wordpool_EN.txt	DRUM	1	16	[0, 0, 0]	n/a	FR1	3	R1092J
1713.901	2.601	1755464	WORD	n/a	wordpools/wordpool_EN.txt	GLASS	2	16	[0, 0, 0]	n/a	FR1	3	R1092J
1716.502	2.501	1758065	WORD	n/a	wordpools/wordpool_EN.txt	PLANT	3	16	[0, 0, 0]	n/a	FR1	3	R1092J
1719.003	2.616	1760566	WORD	n/a	wordpools/wordpool_EN.txt	PARK	4	16	[0, 0, 0]	n/a	FR1	3	R1092J
1721.619	2.451	1763182	WORD	n/a	wordpools/wordpool_EN.txt	LAND	5	16	[0, 0, 0]	n/a	FR1	3	R1092J
1724.07	2.516	1765633	WORD	n/a	wordpools/wordpool_EN.txt	JUICE	6	16	[0, 0, 0]	n/a	FR1	3	R1092J
1726.586	2.468	1768149	WORD	n/a	wordpools/wordpool_EN.txt	DOLL	7	16	[0, 0, 0]	n/a	FR1	3	R1092J
1729.054	2.482	1770617	WORD	n/a	wordpools/wordpool_EN.txt	HAWK	8	16	[0, 0, 0]	n/a	FR1	3	R1092J
1731.536	2.452	1773099	WORD	n/a	wordpools/wordpool_EN.txt	BOOK	9	16	[0, 0, 0]	n/a	FR1	3	R1092J
1733.988	2.616	1775551	WORD	n/a	wordpools/wordpool_EN.txt	SKY	10	16	[0, 0, 0]	n/a	FR1	3	R1092J
1736.604	2.451	1778167	WORD	n/a	wordpools/wordpool_EN.txt	BAT	11	16	[0, 0, 0]	n/a	FR1	3	R1092J
1739.055	1.616	1780618	WORD	n/a	wordpools/wordpool_EN.txt	WEED	12	16	[0, 0, 0]	n/a	FR1	3	R1092J
1740.671	0.0	1782234	DISTRACT_START	n/a	n/a	n/a	-999	16	[0, 0, 0]	n/a	FR1	3	R1092J
1740.671	0.017	1782234	START	n/a	n/a	n/a	-999	16	[-999, -999, -999]	n/a	FR1	3	R1092J
1740.688	3.267	1782251	PROB	3.267	n/a	n/a	-999	16	[7, 2, 1]	10	FR1	3	R1092J
1743.955	3.118	1785518	PROB	3.118	n/a	n/a	-999	16	[7, 1, 4]	12	FR1	3	R1092J
1747.073	1.984	1788636	PROB	1.984	n/a	n/a	-999	16	[2, 3, 1]	6	FR1	3	R1092J
1749.057	5.117	1790620	PROB	5.117	n/a	n/a	-999	16	[9, 7, 5]	21	FR1	3	R1092J
1754.174	2.116	1795737	PROB	2.116	n/a	n/a	-999	16	[3, 7, 4]	14	FR1	3	R1092J
1756.29	2.417	1797853	PROB	2.417	n/a	n/a	-999	16	[6, 2, 7]	15	FR1	3	R1092J
1758.707	2.135	1800270	PROB	2.135	n/a	n/a	-999	16	[5, 4, 4]	13	FR1	3	R1092J
1760.842	0.015	1802405	STOP	n/a	n/a	n/a	-999	16	[-999, -999, -999]	n/a	FR1	3	R1092J
1760.857	1.168	1802420	DISTRACT_END	n/a	n/a	n/a	-999	16	[0, 0, 0]	n/a	FR1	3	R1092J
1762.025	1.674	1803588	REC_START	n/a	n/a	n/a	-999	16	[0, 0, 0]	n/a	FR1	3	R1092J
1763.699	1.819	1805262	REC_WORD	1.819	n/a	HAWK	8	16	[0, 0, 0]	n/a	FR1	3	R1092J
1765.518	2.923	1807081	REC_WORD	2.923	n/a	PARK	4	16	[0, 0, 0]	n/a	FR1	3	R1092J
1768.441	5.846	1810004	REC_WORD	5.846	n/a	SKY	10	16	[0, 0, 0]	n/a	FR1	3	R1092J
1774.287	17.756	1815850	REC_WORD	17.756	n/a	WEED	12	16	[0, 0, 0]	n/a	FR1	3	R1092J
1792.043	4.453	1833606	REC_END	n/a	n/a	n/a	-999	16	[0, 0, 0]	n/a	FR1	3	R1092J
1796.496	0.0	1838059	COUNTDOWN_START	n/a	n/a	n/a	-999	17	[0, 0, 0]	n/a	FR1	3	R1092J
1796.496	10.428	1838059	TRIAL	n/a	n/a	n/a	-999	17	[0, 0, 0]	n/a	FR1	3	R1092J
1806.924	0.006	1848487	COUNTDOWN_END	n/a	n/a	n/a	-999	17	[0, 0, 0]	n/a	FR1	3	R1092J
1806.93	3.766	1848493	ORIENT	n/a	n/a	n/a	-999	17	[0, 0, 0]	n/a	FR1	3	R1092J
1810.696	2.385	1852259	WORD	n/a	wordpools/wordpool_EN.txt	JAR	1	17	[0, 0, 0]	n/a	FR1	3	R1092J
1813.081	2.616	1854644	WORD	n/a	wordpools/wordpool_EN.txt	BROOM	2	17	[0, 0, 0]	n/a	FR1	3	R1092J
1815.697	2.585	1857260	WORD	n/a	wordpools/wordpool_EN.txt	BOOT	3	17	[0, 0, 0]	n/a	FR1	3	R1092J
1818.282	2.466	1859845	WORD	n/a	wordpools/wordpool_EN.txt	PURSE	4	17	[0, 0, 0]	n/a	FR1	3	R1092J
1820.748	2.535	1862310	WORD	n/a	wordpools/wordpool_EN.txt	POND	5	17	[0, 0, 0]	n/a	FR1	3	R1092J
1823.283	2.532	1864845	WORD	n/a	wordpools/wordpool_EN.txt	ARM	6	17	[0, 0, 0]	n/a	FR1	3	R1092J
1825.815	2.518	1867377	WORD	n/a	wordpools/wordpool_EN.txt	FACE	7	17	[0, 0, 0]	n/a	FR1	3	R1092J
1828.333	2.433	1869895	WORD	n/a	wordpools/wordpool_EN.txt	CAPE	8	17	[0, 0, 0]	n/a	FR1	3	R1092J
1830.766	2.417	1872328	WORD	n/a	wordpools/wordpool_EN.txt	DART	9	17	[0, 0, 0]	n/a	FR1	3	R1092J
1833.183	2.4	1874745	WORD	n/a	wordpools/wordpool_EN.txt	SOUP	10	17	[0, 0, 0]	n/a	FR1	3	R1092J
1835.583	2.485	1877145	WORD	n/a	wordpools/wordpool_EN.txt	FLOOR	11	17	[0, 0, 0]	n/a	FR1	3	R1092J
1838.068	1.616	1879630	WORD	n/a	wordpools/wordpool_EN.txt	POOL	12	17	[0, 0, 0]	n/a	FR1	3	R1092J
1839.684	0.0	1881246	DISTRACT_START	n/a	n/a	n/a	-999	17	[0, 0, 0]	n/a	FR1	3	R1092J
1839.684	0.017	1881246	START	n/a	n/a	n/a	-999	17	[-999, -999, -999]	n/a	FR1	3	R1092J
1839.701	4.116	1881263	PROB	4.116	n/a	n/a	-999	17	[9, 4, 8]	21	FR1	3	R1092J
1843.817	3.202	1885379	PROB	3.202	n/a	n/a	-999	17	[7, 8, 5]	20	FR1	3	R1092J
1847.019	3.683	1888581	PROB	3.683	n/a	n/a	-999	17	[1, 9, 7]	17	FR1	3	R1092J
1850.702	3.284	1892264	PROB	3.284	n/a	n/a	-999	17	[6, 9, 2]	17	FR1	3	R1092J
1853.986	2.95	1895548	PROB	2.95	n/a	n/a	-999	17	[3, 5, 9]	17	FR1	3	R1092J
1856.936	2.734	1898498	PROB	2.734	n/a	n/a	-999	17	[7, 5, 6]	18	FR1	3	R1092J
1859.67	2.057	1901232	PROB	2.057	n/a	n/a	-999	17	[2, 2, 3]	7	FR1	3	R1092J
1861.727	0.009	1903289	STOP	n/a	n/a	n/a	-999	17	[-999, -999, -999]	n/a	FR1	3	R1092J
1861.736	1.034	1903298	DISTRACT_END	n/a	n/a	n/a	-999	17	[0, 0, 0]	n/a	FR1	3	R1092J
1862.77	2.237	1904332	REC_START	n/a	n/a	n/a	-999	17	[0, 0, 0]	n/a	FR1	3	R1092J
1865.007	2.833	1906569	REC_WORD	2.833	n/a	FACE	7	17	[0, 0, 0]	n/a	FR1	3	R1092J
1867.84	8.544	1909402	REC_WORD	8.544	n/a	JAR	1	17	[0, 0, 0]	n/a	FR1	3	R1092J
1876.384	1.825	1917946	REC_WORD	1.825	n/a	BROOM	2	17	[0, 0, 0]	n/a	FR1	3	R1092J
1878.209	3.056	1919771	REC_WORD	3.056	n/a	FLOOR	11	17	[0, 0, 0]	n/a	FR1	3	R1092J
1881.265	7.313	1922827	REC_WORD	7.313	n/a	DART	9	17	[0, 0, 0]	n/a	FR1	3	R1092J
1888.578	4.209	1930140	REC_WORD	4.209	n/a	PRUNE	-999	17	[0, 0, 0]	n/a	FR1	3	R1092J
1892.787	3.438	1934349	REC_END	n/a	n/a	n/a	-999	17	[0, 0, 0]	n/a	FR1	3	R1092J
1896.225	0.0	1937787	TRIAL	n/a	n/a	n/a	-999	18	[0, 0, 0]	n/a	FR1	3	R1092J
1896.225	10.428	1937787	COUNTDOWN_START	n/a	n/a	n/a	-999	18	[0, 0, 0]	n/a	FR1	3	R1092J
1906.653	0.006	1948215	COUNTDOWN_END	n/a	n/a	n/a	-999	18	[0, 0, 0]	n/a	FR1	3	R1092J
1906.659	3.718	1948221	ORIENT	n/a	n/a	n/a	-999	18	[0, 0, 0]	n/a	FR1	3	R1092J
1910.377	2.399	1951939	WORD	n/a	wordpools/wordpool_EN.txt	SHARK	1	18	[0, 0, 0]	n/a	FR1	3	R1092J
1912.776	2.568	1954338	WORD	n/a	wordpools/wordpool_EN.txt	MAP	2	18	[0, 0, 0]	n/a	FR1	3	R1092J
1915.344	2.583	1956906	WORD	n/a	wordpools/wordpool_EN.txt	STORE	3	18	[0, 0, 0]	n/a	FR1	3	R1092J
1917.927	2.401	1959489	WORD	n/a	wordpools/wordpool_EN.txt	CLOWN	4	18	[0, 0, 0]	n/a	FR1	3	R1092J
1920.328	2.566	1961890	WORD	n/a	wordpools/wordpool_EN.txt	WAVE	5	18	[0, 0, 0]	n/a	FR1	3	R1092J
1922.894	2.435	1964456	WORD	n/a	wordpools/wordpool_EN.txt	MAZE	6	18	[0, 0, 0]	n/a	FR1	3	R1092J
1925.329	2.566	1966891	WORD	n/a	wordpools/wordpool_EN.txt	CAR	7	18	[0, 0, 0]	n/a	FR1	3	R1092J
1927.895	2.584	1969457	WORD	n/a	wordpools/wordpool_EN.txt	STEAM	8	18	[0, 0, 0]	n/a	FR1	3	R1092J
1930.479	2.551	1972041	WORD	n/a	wordpools/wordpool_EN.txt	SHELL	9	18	[0, 0, 0]	n/a	FR1	3	R1092J
1933.03	2.384	1974592	WORD	n/a	wordpools/wordpool_EN.txt	COIN	10	18	[0, 0, 0]	n/a	FR1	3	R1092J
1935.414	2.55	1976976	WORD	n/a	wordpools/wordpool_EN.txt	WOLF	11	18	[0, 0, 0]	n/a	FR1	3	R1092J
1937.964	1.616	1979526	WORD	n/a	wordpools/wordpool_EN.txt	BRICK	12	18	[0, 0, 0]	n/a	FR1	3	R1092J
1939.58	0.001	1981142	DISTRACT_START	n/a	n/a	n/a	-999	18	[0, 0, 0]	n/a	FR1	3	R1092J
1939.581	0.016	1981143	START	n/a	n/a	n/a	-999	18	[-999, -999, -999]	n/a	FR1	3	R1092J
1939.597	3.333	1981159	PROB	3.333	n/a	n/a	-999	18	[4, 3, 3]	10	FR1	3	R1092J
1942.93	2.901	1984492	PROB	2.901	n/a	n/a	-999	18	[4, 7, 2]	13	FR1	3	R1092J
1945.831	3.75	1987393	PROB	3.75	n/a	n/a	-999	18	[7, 4, 4]	15	FR1	3	R1092J
1949.581	4.317	1991143	PROB	4.317	n/a	n/a	-999	18	[5, 6, 9]	20	FR1	3	R1092J
1953.898	2.751	1995460	PROB	2.751	n/a	n/a	-999	18	[2, 6, 8]	16	FR1	3	R1092J
1956.649	3.05	1998211	PROB	3.05	n/a	n/a	-999	18	[4, 9, 3]	16	FR1	3	R1092J
1959.699	0.017	2001261	STOP	n/a	n/a	n/a	-999	18	[-999, -999, -999]	n/a	FR1	3	R1092J
1959.716	1.117	2001278	DISTRACT_END	n/a	n/a	n/a	-999	18	[0, 0, 0]	n/a	FR1	3	R1092J
1960.833	12.619	2002395	REC_START	n/a	n/a	n/a	-999	18	[0, 0, 0]	n/a	FR1	3	R1092J
1973.452	5.1	2015013	REC_WORD	5.1	n/a	STORE	3	18	[0, 0, 0]	n/a	FR1	3	R1092J
1978.552	5.074	2020113	REC_WORD	5.074	n/a	STEAM	8	18	[0, 0, 0]	n/a	FR1	3	R1092J
1983.626	1.195	2025187	REC_WORD_VV	1.195	n/a	<>	-999	18	[0, 0, 0]	n/a	FR1	3	R1092J
1984.821	5.405	2026382	REC_WORD	5.405	n/a	FLOOR	-999	18	[0, 0, 0]	n/a	FR1	3	R1092J
1990.226	0.619	2031787	REC_WORD	0.619	n/a	HEART	-999	18	[0, 0, 0]	n/a	FR1	3	R1092J
1990.845	5.826	2032406	REC_END	n/a	n/a	n/a	-999	18	[0, 0, 0]	n/a	FR1	3	R1092J
1996.671	0.0	2038232	TRIAL	n/a	n/a	n/a	-999	19	[0, 0, 0]	n/a	FR1	3	R1092J
1996.671	10.428	2038232	COUNTDOWN_START	n/a	n/a	n/a	-999	19	[0, 0, 0]	n/a	FR1	3	R1092J
2007.099	0.007	2048660	COUNTDOWN_END	n/a	n/a	n/a	-999	19	[0, 0, 0]	n/a	FR1	3	R1092J
2007.106	3.9	2048667	ORIENT	n/a	n/a	n/a	-999	19	[0, 0, 0]	n/a	FR1	3	R1092J
2011.006	2.434	2052567	WORD	n/a	wordpools/wordpool_EN.txt	FLAME	1	19	[0, 0, 0]	n/a	FR1	3	R1092J
2013.44	2.516	2055001	WORD	n/a	wordpools/wordpool_EN.txt	CUBE	2	19	[0, 0, 0]	n/a	FR1	3	R1092J
2015.956	2.435	2057517	WORD	n/a	wordpools/wordpool_EN.txt	LAKE	3	19	[0, 0, 0]	n/a	FR1	3	R1092J
2018.391	2.382	2059952	WORD	n/a	wordpools/wordpool_EN.txt	VASE	4	19	[0, 0, 0]	n/a	FR1	3	R1092J
2020.773	2.418	2062334	WORD	n/a	wordpools/wordpool_EN.txt	CHALK	5	19	[0, 0, 0]	n/a	FR1	3	R1092J
2023.191	2.4	2064752	WORD	n/a	wordpools/wordpool_EN.txt	MOLE	6	19	[0, 0, 0]	n/a	FR1	3	R1092J
2025.591	2.401	2067152	WORD	n/a	wordpools/wordpool_EN.txt	BEACH	7	19	[0, 0, 0]	n/a	FR1	3	R1092J
2027.992	2.484	2069553	WORD	n/a	wordpools/wordpool_EN.txt	GUARD	8	19	[0, 0, 0]	n/a	FR1	3	R1092J
2030.476	2.567	2072037	WORD	n/a	wordpools/wordpool_EN.txt	PEARL	9	19	[0, 0, 0]	n/a	FR1	3	R1092J
2033.043	2.499	2074604	WORD	n/a	wordpools/wordpool_EN.txt	MILK	10	19	[0, 0, 0]	n/a	FR1	3	R1092J
2035.542	2.485	2077103	WORD	n/a	wordpools/wordpool_EN.txt	RAKE	11	19	[0, 0, 0]	n/a	FR1	3	R1092J
2038.027	1.616	2079588	WORD	n/a	wordpools/wordpool_EN.txt	FOX	12	19	[0, 0, 0]	n/a	FR1	3	R1092J
2039.643	0.0	2081204	DISTRACT_START	n/a	n/a	n/a	-999	19	[0, 0, 0]	n/a	FR1	3	R1092J
2039.643	0.016	2081204	START	n/a	n/a	n/a	-999	19	[-999, -999, -999]	n/a	FR1	3	R1092J
2039.659	3.201	2081220	PROB	3.201	n/a	n/a	-999	19	[9, 1, 1]	11	FR1	3	R1092J
2042.86	2.384	2084421	PROB	2.384	n/a	n/a	-999	19	[9, 9, 1]	19	FR1	3	R1092J
2045.244	2.284	2086805	PROB	2.284	n/a	n/a	-999	19	[9, 2, 1]	12	FR1	3	R1092J
2047.528	2.099	2089089	PROB	2.099	n/a	n/a	-999	19	[3, 7, 2]	12	FR1	3	R1092J
2049.627	2.385	2091188	PROB	2.385	n/a	n/a	-999	19	[3, 4, 3]	10	FR1	3	R1092J
2052.012	2.832	2093573	PROB	2.832	n/a	n/a	-999	19	[8, 7, 7]	22	FR1	3	R1092J
2054.844	2.269	2096405	PROB	2.269	n/a	n/a	-999	19	[1, 9, 4]	14	FR1	3	R1092J
2057.113	4.517	2098674	PROB	4.517	n/a	n/a	-999	19	[8, 5, 9]	22	FR1	3	R1092J
2061.63	0.015	2103191	STOP	n/a	n/a	n/a	-999	19	[-999, -999, -999]	n/a	FR1	3	R1092J
2061.645	1.101	2103206	DISTRACT_END	n/a	n/a	n/a	-999	19	[0, 0, 0]	n/a	FR1	3	R1092J
2062.746	7.531	2104307	REC_START	n/a	n/a	n/a	-999	19	[0, 0, 0]	n/a	FR1	3	R1092J
2070.277	6.727	2111838	REC_WORD	6.727	n/a	SLEEVE	-999	19	[0, 0, 0]	n/a	FR1	3	R1092J
2077.004	2.972	2118565	REC_WORD	2.972	n/a	ARK	-999	19	[0, 0, 0]	n/a	FR1	3	R1092J
2079.976	4.453	2121537	REC_WORD	4.453	n/a	MOLE	6	19	[0, 0, 0]	n/a	FR1	3	R1092J
2084.429	6.49	2125990	REC_WORD	6.49	n/a	BOOT	-999	19	[0, 0, 0]	n/a	FR1	3	R1092J
2090.919	1.839	2132480	REC_WORD	1.839	n/a	FLAME	1	19	[0, 0, 0]	n/a	FR1	3	R1092J
2092.758	5.477	2134319	REC_END	n/a	n/a	n/a	-999	19	[0, 0, 0]	n/a	FR1	3	R1092J
2098.235	0.0	2139796	TRIAL	n/a	n/a	n/a	-999	20	[0, 0, 0]	n/a	FR1	3	R1092J
2098.235	10.428	2139796	COUNTDOWN_START	n/a	n/a	n/a	-999	20	[0, 0, 0]	n/a	FR1	3	R1092J
2108.663	0.005	2150224	COUNTDOWN_END	n/a	n/a	n/a	-999	20	[0, 0, 0]	n/a	FR1	3	R1092J
2108.668	3.635	2150229	ORIENT	n/a	n/a	n/a	-999	20	[0, 0, 0]	n/a	FR1	3	R1092J
2112.303	2.466	2153864	WORD	n/a	wordpools/wordpool_EN.txt	WAND	1	20	[0, 0, 0]	n/a	FR1	3	R1092J
2114.769	2.518	2156329	WORD	n/a	wordpools/wordpool_EN.txt	SHEET	2	20	[0, 0, 0]	n/a	FR1	3	R1092J
2117.287	2.533	2158847	WORD	n/a	wordpools/wordpool_EN.txt	SCHOOL	3	20	[0, 0, 0]	n/a	FR1	3	R1092J
2119.82	2.451	2161380	WORD	n/a	wordpools/wordpool_EN.txt	PET	4	20	[0, 0, 0]	n/a	FR1	3	R1092J
2122.271	2.449	2163831	WORD	n/a	wordpools/wordpool_EN.txt	PIN	5	20	[0, 0, 0]	n/a	FR1	3	R1092J
2124.72	2.485	2166280	WORD	n/a	wordpools/wordpool_EN.txt	FORK	6	20	[0, 0, 0]	n/a	FR1	3	R1092J
2127.205	2.566	2168765	WORD	n/a	wordpools/wordpool_EN.txt	GEESE	7	20	[0, 0, 0]	n/a	FR1	3	R1092J
2129.771	2.618	2171331	WORD	n/a	wordpools/wordpool_EN.txt	BREAD	8	20	[0, 0, 0]	n/a	FR1	3	R1092J
2132.389	2.382	2173949	WORD	n/a	wordpools/wordpool_EN.txt	DRESS	9	20	[0, 0, 0]	n/a	FR1	3	R1092J
2134.771	2.602	2176331	WORD	n/a	wordpools/wordpool_EN.txt	VINE	10	20	[0, 0, 0]	n/a	FR1	3	R1092J
2137.373	2.566	2178933	WORD	n/a	wordpools/wordpool_EN.txt	NEST	11	20	[0, 0, 0]	n/a	FR1	3	R1092J
2139.939	1.616	2181499	WORD	n/a	wordpools/wordpool_EN.txt	CAGE	12	20	[0, 0, 0]	n/a	FR1	3	R1092J
2141.555	0.001	2183115	DISTRACT_START	n/a	n/a	n/a	-999	20	[0, 0, 0]	n/a	FR1	3	R1092J
2141.556	0.016	2183116	START	n/a	n/a	n/a	-999	20	[-999, -999, -999]	n/a	FR1	3	R1092J
2141.572	4.018	2183132	PROB	4.018	n/a	n/a	-999	20	[3, 9, 9]	21	FR1	3	R1092J
2145.59	2.2	2187150	PROB	2.2	n/a	n/a	-999	20	[2, 3, 8]	13	FR1	3	R1092J
2147.79	5.685	2189350	PROB	5.685	n/a	n/a	-999	20	[9, 6, 7]	22	FR1	3	R1092J
2153.475	2.517	2195035	PROB	2.517	n/a	n/a	-999	20	[5, 6, 7]	18	FR1	3	R1092J
2155.992	1.983	2197552	PROB	1.983	n/a	n/a	-999	20	[9, 9, 3]	21	FR1	3	R1092J
2157.975	2.75	2199535	PROB	2.75	n/a	n/a	-999	20	[7, 9, 2]	18	FR1	3	R1092J
2160.725	2.037	2202285	PROB	2.037	n/a	n/a	-999	20	[1, 4, 6]	11	FR1	3	R1092J
2162.762	0.013	2204322	STOP	n/a	n/a	n/a	-999	20	[-999, -999, -999]	n/a	FR1	3	R1092J
2162.775	1.101	2204335	DISTRACT_END	n/a	n/a	n/a	-999	20	[0, 0, 0]	n/a	FR1	3	R1092J
2163.876	2.487	2205436	REC_START	n/a	n/a	n/a	-999	20	[0, 0, 0]	n/a	FR1	3	R1092J
2166.363	2.221	2207923	REC_WORD	2.221	n/a	SHEET	2	20	[0, 0, 0]	n/a	FR1	3	R1092J
2168.584	6.681	2210144	REC_WORD	6.681	n/a	FLOOR	-999	20	[0, 0, 0]	n/a	FR1	3	R1092J
2175.265	3.235	2216825	REC_WORD	3.235	n/a	FORK	6	20	[0, 0, 0]	n/a	FR1	3	R1092J
2178.5	6.891	2220060	REC_WORD	6.891	n/a	PET	4	20	[0, 0, 0]	n/a	FR1	3	R1092J
2185.391	8.497	2226951	REC_WORD	8.497	n/a	SEED	-999	20	[0, 0, 0]	n/a	FR1	3	R1092J
2193.888	9.343	2235448	REC_END	n/a	n/a	n/a	-999	20	[0, 0, 0]	n/a	FR1	3	R1092J
2203.231	0.0	2244791	TRIAL	n/a	n/a	n/a	-999	21	[0, 0, 0]	n/a	FR1	3	R1092J
2203.231	10.428	2244791	COUNTDOWN_START	n/a	n/a	n/a	-999	21	[0, 0, 0]	n/a	FR1	3	R1092J
2213.659	0.006	2255219	COUNTDOWN_END	n/a	n/a	n/a	-999	21	[0, 0, 0]	n/a	FR1	3	R1092J
2213.665	3.718	2255225	ORIENT	n/a	n/a	n/a	-999	21	[0, 0, 0]	n/a	FR1	3	R1092J
2217.383	2.516	2258943	WORD	n/a	wordpools/wordpool_EN.txt	FILM	1	21	[0, 0, 0]	n/a	FR1	3	R1092J
2219.899	2.551	2261459	WORD	n/a	wordpools/wordpool_EN.txt	BLOOM	2	21	[0, 0, 0]	n/a	FR1	3	R1092J
2222.45	2.466	2264010	WORD	n/a	wordpools/wordpool_EN.txt	WORM	3	21	[0, 0, 0]	n/a	FR1	3	R1092J
2224.916	2.418	2266476	WORD	n/a	wordpools/wordpool_EN.txt	PLATE	4	21	[0, 0, 0]	n/a	FR1	3	R1092J
2227.334	2.583	2268894	WORD	n/a	wordpools/wordpool_EN.txt	CONE	5	21	[0, 0, 0]	n/a	FR1	3	R1092J
2229.917	2.518	2271477	WORD	n/a	wordpools/wordpool_EN.txt	LEG	6	21	[0, 0, 0]	n/a	FR1	3	R1092J
2232.435	2.534	2273995	WORD	n/a	wordpools/wordpool_EN.txt	TIE	7	21	[0, 0, 0]	n/a	FR1	3	R1092J
2234.969	2.383	2276529	WORD	n/a	wordpools/wordpool_EN.txt	FAN	8	21	[0, 0, 0]	n/a	FR1	3	R1092J
2237.352	2.599	2278912	WORD	n/a	wordpools/wordpool_EN.txt	FUR	9	21	[0, 0, 0]	n/a	FR1	3	R1092J
2239.951	2.535	2281511	WORD	n/a	wordpools/wordpool_EN.txt	WALL	10	21	[0, 0, 0]	n/a	FR1	3	R1092J
2242.486	2.534	2284046	WORD	n/a	wordpools/wordpool_EN.txt	FLUTE	11	21	[0, 0, 0]	n/a	FR1	3	R1092J
2245.02	1.616	2286580	WORD	n/a	wordpools/wordpool_EN.txt	WING	12	21	[0, 0, 0]	n/a	FR1	3	R1092J
2246.636	0.0	2288196	DISTRACT_START	n/a	n/a	n/a	-999	21	[0, 0, 0]	n/a	FR1	3	R1092J
2246.636	0.016	2288196	START	n/a	n/a	n/a	-999	21	[-999, -999, -999]	n/a	FR1	3	R1092J
2246.652	2.951	2288212	PROB	2.951	n/a	n/a	-999	21	[9, 7, 2]	18	FR1	3	R1092J
2249.603	2.718	2291163	PROB	2.718	n/a	n/a	-999	21	[1, 8, 8]	17	FR1	3	R1092J
2252.321	2.7	2293881	PROB	2.7	n/a	n/a	-999	21	[6, 2, 7]	15	FR1	3	R1092J
2255.021	2.267	2296581	PROB	2.267	n/a	n/a	-999	21	[7, 7, 6]	20	FR1	3	R1092J
2257.288	2.167	2298848	PROB	2.167	n/a	n/a	-999	21	[1, 3, 6]	10	FR1	3	R1092J
2259.455	2.433	2301015	PROB	2.433	n/a	n/a	-999	21	[3, 3, 9]	15	FR1	3	R1092J
2261.888	2.368	2303447	PROB	2.368	n/a	n/a	-999	21	[3, 5, 6]	14	FR1	3	R1092J
2264.256	3.622	2305815	PROB	3.622	n/a	n/a	-999	21	[8, 1, 6]	15	FR1	3	R1092J
2267.878	0.011	2309437	STOP	n/a	n/a	n/a	-999	21	[-999, -999, -999]	n/a	FR1	3	R1092J
2267.889	1.05	2309448	DISTRACT_END	n/a	n/a	n/a	-999	21	[0, 0, 0]	n/a	FR1	3	R1092J
2268.939	2.854	2310498	REC_START	n/a	n/a	n/a	-999	21	[0, 0, 0]	n/a	FR1	3	R1092J
2271.793	3.064	2313352	REC_WORD	3.064	n/a	FLOOR	-999	21	[0, 0, 0]	n/a	FR1	3	R1092J
2274.857	2.508	2316416	REC_WORD	2.508	n/a	WALL	10	21	[0, 0, 0]	n/a	FR1	3	R1092J
2277.365	9.199	2318924	REC_WORD	9.199	n/a	FLUTE	11	21	[0, 0, 0]	n/a	FR1	3	R1092J
2286.564	9.018	2328123	REC_WORD	9.018	n/a	FUR	9	21	[0, 0, 0]	n/a	FR1	3	R1092J
2295.582	3.374	2337141	REC_WORD	3.374	n/a	CUBE	-999	21	[0, 0, 0]	n/a	FR1	3	R1092J
2298.956	6.572	2340515	REC_END	n/a	n/a	n/a	-999	21	[0, 0, 0]	n/a	FR1	3	R1092J
2305.528	0.0	2347087	COUNTDOWN_START	n/a	n/a	n/a	-999	22	[0, 0, 0]	n/a	FR1	3	R1092J
2305.528	10.428	2347087	TRIAL	n/a	n/a	n/a	-999	22	[0, 0, 0]	n/a	FR1	3	R1092J
2315.956	0.006	2357515	COUNTDOWN_END	n/a	n/a	n/a	-999	22	[0, 0, 0]	n/a	FR1	3	R1092J
2315.962	3.65	2357521	ORIENT	n/a	n/a	n/a	-999	22	[0, 0, 0]	n/a	FR1	3	R1092J
2319.612	2.484	2361171	WORD	n/a	wordpools/wordpool_EN.txt	BRUSH	1	22	[0, 0, 0]	n/a	FR1	3	R1092J
2322.096	2.417	2363655	WORD	n/a	wordpools/wordpool_EN.txt	PIG	2	22	[0, 0, 0]	n/a	FR1	3	R1092J
2324.513	2.451	2366072	WORD	n/a	wordpools/wordpool_EN.txt	RIB	3	22	[0, 0, 0]	n/a	FR1	3	R1092J
2326.964	2.517	2368523	WORD	n/a	wordpools/wordpool_EN.txt	LEAF	4	22	[0, 0, 0]	n/a	FR1	3	R1092J
2329.481	2.533	2371040	WORD	n/a	wordpools/wordpool_EN.txt	BAND	5	22	[0, 0, 0]	n/a	FR1	3	R1092J
2332.014	2.516	2373573	WORD	n/a	wordpools/wordpool_EN.txt	SPOON	6	22	[0, 0, 0]	n/a	FR1	3	R1092J
2334.53	2.568	2376089	WORD	n/a	wordpools/wordpool_EN.txt	SHOE	7	22	[0, 0, 0]	n/a	FR1	3	R1092J
2337.098	2.633	2378657	WORD	n/a	wordpools/wordpool_EN.txt	TAIL	8	22	[0, 0, 0]	n/a	FR1	3	R1092J
2339.731	2.551	2381290	WORD	n/a	wordpools/wordpool_EN.txt	SMILE	9	22	[0, 0, 0]	n/a	FR1	3	R1092J
2342.282	2.566	2383841	WORD	n/a	wordpools/wordpool_EN.txt	MUG	10	22	[0, 0, 0]	n/a	FR1	3	R1092J
2344.848	2.618	2386407	WORD	n/a	wordpools/wordpool_EN.txt	VAN	11	22	[0, 0, 0]	n/a	FR1	3	R1092J
2347.466	1.617	2389025	WORD	n/a	wordpools/wordpool_EN.txt	DITCH	12	22	[0, 0, 0]	n/a	FR1	3	R1092J
2349.083	0.001	2390642	DISTRACT_START	n/a	n/a	n/a	-999	22	[0, 0, 0]	n/a	FR1	3	R1092J
2349.084	0.016	2390643	START	n/a	n/a	n/a	-999	22	[-999, -999, -999]	n/a	FR1	3	R1092J
2349.1	3.533	2390659	PROB	3.533	n/a	n/a	-999	22	[7, 5, 6]	18	FR1	3	R1092J
2352.633	2.551	2394192	PROB	2.551	n/a	n/a	-999	22	[3, 4, 4]	11	FR1	3	R1092J
2355.184	2.234	2396743	PROB	2.234	n/a	n/a	-999	22	[7, 2, 6]	15	FR1	3	R1092J
2357.418	5.033	2398977	PROB	5.033	n/a	n/a	-999	22	[7, 8, 3]	18	FR1	3	R1092J
2362.451	1.968	2404010	PROB	1.968	n/a	n/a	-999	22	[1, 6, 1]	8	FR1	3	R1092J
2364.419	3.033	2405978	PROB	3.033	n/a	n/a	-999	22	[5, 8, 4]	17	FR1	3	R1092J
2367.452	2.847	2409011	PROB	2.847	n/a	n/a	-999	22	[4, 6, 1]	11	FR1	3	R1092J
2370.299	0.003	2411858	STOP	n/a	n/a	n/a	-999	22	[-999, -999, -999]	n/a	FR1	3	R1092J
2370.302	1.201	2411861	DISTRACT_END	n/a	n/a	n/a	-999	22	[0, 0, 0]	n/a	FR1	3	R1092J
2371.503	8.042	2413062	REC_START	n/a	n/a	n/a	-999	22	[0, 0, 0]	n/a	FR1	3	R1092J
2379.545	1.609	2421104	REC_WORD	1.609	n/a	VAN	11	22	[0, 0, 0]	n/a	FR1	3	R1092J
2381.154	3.787	2422713	REC_WORD	3.787	n/a	DITCH	12	22	[0, 0, 0]	n/a	FR1	3	R1092J
2384.941	1.179	2426500	REC_WORD	1.179	n/a	SHOE	7	22	[0, 0, 0]	n/a	FR1	3	R1092J
2386.12	6.264	2427679	REC_WORD	6.264	n/a	SMILE	9	22	[0, 0, 0]	n/a	FR1	3	R1092J
2392.384	2.938	2433943	REC_WORD	2.938	n/a	VEIL	-999	22	[0, 0, 0]	n/a	FR1	3	R1092J
2395.322	5.125	2436881	REC_WORD	5.125	n/a	MUG	10	22	[0, 0, 0]	n/a	FR1	3	R1092J
2400.447	1.075	2442006	REC_WORD	1.075	n/a	WHALE	-999	22	[0, 0, 0]	n/a	FR1	3	R1092J
2401.522	4.869	2443081	REC_END	n/a	n/a	n/a	-999	22	[0, 0, 0]	n/a	FR1	3	R1092J
2406.391	0.0	2447950	TRIAL	n/a	n/a	n/a	-999	23	[0, 0, 0]	n/a	FR1	3	R1092J
2406.391	10.428	2447950	COUNTDOWN_START	n/a	n/a	n/a	-999	23	[0, 0, 0]	n/a	FR1	3	R1092J
2416.819	0.005	2458377	COUNTDOWN_END	n/a	n/a	n/a	-999	23	[0, 0, 0]	n/a	FR1	3	R1092J
2416.824	3.635	2458382	ORIENT	n/a	n/a	n/a	-999	23	[0, 0, 0]	n/a	FR1	3	R1092J
2420.459	2.584	2462017	WORD	n/a	wordpools/wordpool_EN.txt	MAT	1	23	[0, 0, 0]	n/a	FR1	3	R1092J
2423.043	2.467	2464601	WORD	n/a	wordpools/wordpool_EN.txt	YARD	2	23	[0, 0, 0]	n/a	FR1	3	R1092J
2425.51	2.6	2467068	WORD	n/a	wordpools/wordpool_EN.txt	STOOL	3	23	[0, 0, 0]	n/a	FR1	3	R1092J
2428.11	2.599	2469668	WORD	n/a	wordpools/wordpool_EN.txt	HAND	4	23	[0, 0, 0]	n/a	FR1	3	R1092J
2430.709	2.601	2472267	WORD	n/a	wordpools/wordpool_EN.txt	DESK	5	23	[0, 0, 0]	n/a	FR1	3	R1092J
2433.31	2.55	2474868	WORD	n/a	wordpools/wordpool_EN.txt	TOY	6	23	[0, 0, 0]	n/a	FR1	3	R1092J
2435.86	2.385	2477418	WORD	n/a	wordpools/wordpool_EN.txt	HORN	7	23	[0, 0, 0]	n/a	FR1	3	R1092J
2438.245	2.466	2479803	WORD	n/a	wordpools/wordpool_EN.txt	BADGE	8	23	[0, 0, 0]	n/a	FR1	3	R1092J
2440.711	2.617	2482269	WORD	n/a	wordpools/wordpool_EN.txt	HOUSE	9	23	[0, 0, 0]	n/a	FR1	3	R1092J
2443.328	2.433	2484886	WORD	n/a	wordpools/wordpool_EN.txt	PRINCE	10	23	[0, 0, 0]	n/a	FR1	3	R1092J
2445.761	2.551	2487319	WORD	n/a	wordpools/wordpool_EN.txt	LIP	11	23	[0, 0, 0]	n/a	FR1	3	R1092J
2448.312	1.616	2489870	WORD	n/a	wordpools/wordpool_EN.txt	CHAIR	12	23	[0, 0, 0]	n/a	FR1	3	R1092J
2449.928	0.001	2491486	DISTRACT_START	n/a	n/a	n/a	-999	23	[0, 0, 0]	n/a	FR1	3	R1092J
2449.929	0.016	2491487	START	n/a	n/a	n/a	-999	23	[-999, -999, -999]	n/a	FR1	3	R1092J
2449.945	4.268	2491503	PROB	4.268	n/a	n/a	-999	23	[3, 8, 9]	20	FR1	3	R1092J
2454.213	3.483	2495771	PROB	3.483	n/a	n/a	-999	23	[6, 2, 6]	14	FR1	3	R1092J
2457.696	2.368	2499254	PROB	2.368	n/a	n/a	-999	23	[2, 7, 7]	16	FR1	3	R1092J
2460.064	2.649	2501622	PROB	2.649	n/a	n/a	-999	23	[3, 9, 2]	14	FR1	3	R1092J
2462.713	2.802	2504271	PROB	2.802	n/a	n/a	-999	23	[1, 8, 8]	17	FR1	3	R1092J
2465.515	3.567	2507073	PROB	3.567	n/a	n/a	-999	23	[8, 6, 9]	24	FR1	3	R1092J
2469.082	2.284	2510640	PROB	2.284	n/a	n/a	-999	23	[2, 3, 5]	10	FR1	3	R1092J
2471.366	0.016	2512924	STOP	n/a	n/a	n/a	-999	23	[-999, -999, -999]	n/a	FR1	3	R1092J
2471.382	1.183	2512940	DISTRACT_END	n/a	n/a	n/a	-999	23	[0, 0, 0]	n/a	FR1	3	R1092J
2472.565	2.67	2514123	REC_START	n/a	n/a	n/a	-999	23	[0, 0, 0]	n/a	FR1	3	R1092J
2475.235	1.737	2516793	REC_WORD	1.737	n/a	CHAIR	12	23	[0, 0, 0]	n/a	FR1	3	R1092J
2476.972	6.155	2518530	REC_WORD	6.155	n/a	STOOL	3	23	[0, 0, 0]	n/a	FR1	3	R1092J
2483.127	2.927	2524685	REC_WORD	2.927	n/a	MAP	-999	23	[0, 0, 0]	n/a	FR1	3	R1092J
2486.054	6.565	2527612	REC_WORD	6.565	n/a	FLUTE	-999	23	[0, 0, 0]	n/a	FR1	3	R1092J
2492.619	4.951	2534177	REC_WORD	4.951	n/a	BROOM	-999	23	[0, 0, 0]	n/a	FR1	3	R1092J
2497.57	3.186	2539128	REC_WORD	3.186	n/a	CUP	-999	23	[0, 0, 0]	n/a	FR1	3	R1092J
2500.756	1.826	2542314	REC_WORD	1.826	n/a	DESK	5	23	[0, 0, 0]	n/a	FR1	3	R1092J
2502.582	3.17	2544140	REC_END	n/a	n/a	n/a	-999	23	[0, 0, 0]	n/a	FR1	3	R1092J
2505.752	0.0	2547310	TRIAL	n/a	n/a	n/a	-999	24	[0, 0, 0]	n/a	FR1	3	R1092J
2505.752	10.428	2547310	COUNTDOWN_START	n/a	n/a	n/a	-999	24	[0, 0, 0]	n/a	FR1	3	R1092J
2516.18	0.008	2557738	COUNTDOWN_END	n/a	n/a	n/a	-999	24	[0, 0, 0]	n/a	FR1	3	R1092J
2516.188	3.917	2557746	ORIENT	n/a	n/a	n/a	-999	24	[0, 0, 0]	n/a	FR1	3	R1092J
2520.105	2.516	2561663	WORD	n/a	wordpools/wordpool_EN.txt	ZOO	1	24	[0, 0, 0]	n/a	FR1	3	R1092J
2522.621	2.551	2564179	WORD	n/a	wordpools/wordpool_EN.txt	SPEAR	2	24	[0, 0, 0]	n/a	FR1	3	R1092J
2525.172	2.583	2566730	WORD	n/a	wordpools/wordpool_EN.txt	CORN	3	24	[0, 0, 0]	n/a	FR1	3	R1092J
2527.755	2.485	2569313	WORD	n/a	wordpools/wordpool_EN.txt	SNAKE	4	24	[0, 0, 0]	n/a	FR1	3	R1092J
2530.24	2.516	2571798	WORD	n/a	wordpools/wordpool_EN.txt	WHEEL	5	24	[0, 0, 0]	n/a	FR1	3	R1092J
2532.756	2.601	2574314	WORD	n/a	wordpools/wordpool_EN.txt	PEA	6	24	[0, 0, 0]	n/a	FR1	3	R1092J
2535.357	2.6	2576915	WORD	n/a	wordpools/wordpool_EN.txt	JUDGE	7	24	[0, 0, 0]	n/a	FR1	3	R1092J
2537.957	2.501	2579515	WORD	n/a	wordpools/wordpool_EN.txt	HILL	8	24	[0, 0, 0]	n/a	FR1	3	R1092J
2540.458	2.399	2582016	WORD	n/a	wordpools/wordpool_EN.txt	BARN	9	24	[0, 0, 0]	n/a	FR1	3	R1092J
2542.857	2.418	2584415	WORD	n/a	wordpools/wordpool_EN.txt	GOAT	10	24	[0, 0, 0]	n/a	FR1	3	R1092J
2545.275	2.599	2586833	WORD	n/a	wordpools/wordpool_EN.txt	WOOD	11	24	[0, 0, 0]	n/a	FR1	3	R1092J
2547.874	1.601	2589432	WORD	n/a	wordpools/wordpool_EN.txt	CAKE	12	24	[0, 0, 0]	n/a	FR1	3	R1092J
2549.475	0.001	2591033	DISTRACT_START	n/a	n/a	n/a	-999	24	[0, 0, 0]	n/a	FR1	3	R1092J
2549.476	0.016	2591034	START	n/a	n/a	n/a	-999	24	[-999, -999, -999]	n/a	FR1	3	R1092J
2549.492	3.35	2591050	PROB	3.35	n/a	n/a	-999	24	[6, 5, 4]	15	FR1	3	R1092J
2552.842	2.418	2594400	PROB	2.418	n/a	n/a	-999	24	[7, 2, 4]	13	FR1	3	R1092J
2555.26	1.632	2596818	PROB	1.632	n/a	n/a	-999	24	[5, 1, 1]	7	FR1	3	R1092J
2556.892	2.085	2598449	PROB	2.085	n/a	n/a	-999	24	[6, 7, 7]	20	FR1	3	R1092J
2558.977	6.034	2600534	PROB	6.034	n/a	n/a	-999	24	[5, 8, 6]	19	FR1	3	R1092J
2565.011	1.932	2606568	PROB	1.932	n/a	n/a	-999	24	[2, 7, 2]	11	FR1	3	R1092J
2566.943	2.319	2608500	PROB	2.319	n/a	n/a	-999	24	[2, 2, 5]	9	FR1	3	R1092J
2569.262	3.852	2610819	PROB	3.852	n/a	n/a	-999	24	[2, 5, 6]	13	FR1	3	R1092J
2573.114	0.014	2614671	STOP	n/a	n/a	n/a	-999	24	[-999, -999, -999]	n/a	FR1	3	R1092J
2573.128	1.051	2614685	DISTRACT_END	n/a	n/a	n/a	-999	24	[0, 0, 0]	n/a	FR1	3	R1092J
2574.179	2.146	2615736	REC_START	n/a	n/a	n/a	-999	24	[0, 0, 0]	n/a	FR1	3	R1092J
2576.325	7.869	2617882	REC_WORD	7.869	n/a	ZOO	1	24	[0, 0, 0]	n/a	FR1	3	R1092J
2584.194	6.89	2625751	REC_WORD	6.89	n/a	WHALE	-999	24	[0, 0, 0]	n/a	FR1	3	R1092J
2591.084	5.258	2632641	REC_WORD	5.258	n/a	PEAR	-999	24	[0, 0, 0]	n/a	FR1	3	R1092J
2596.342	7.854	2637899	REC_WORD	7.854	n/a	PLATE	-999	24	[0, 0, 0]	n/a	FR1	3	R1092J
2604.196	3.787	2645753	REC_END	n/a	n/a	n/a	-999	24	[0, 0, 0]	n/a	FR1	3	R1092J
2607.983	0.0	2649540	TRIAL	n/a	n/a	n/a	-999	25	[0, 0, 0]	n/a	FR1	3	R1092J
2607.983	10.428	2649540	COUNTDOWN_START	n/a	n/a	n/a	-999	25	[0, 0, 0]	n/a	FR1	3	R1092J
2618.411	0.007	2659968	COUNTDOWN_END	n/a	n/a	n/a	-999	25	[0, 0, 0]	n/a	FR1	3	R1092J
2618.418	3.532	2659975	ORIENT	n/a	n/a	n/a	-999	25	[0, 0, 0]	n/a	FR1	3	R1092J
2621.95	2.468	2663507	WORD	n/a	wordpools/wordpool_EN.txt	BOWL	1	25	[0, 0, 0]	n/a	FR1	3	R1092J
2624.418	2.601	2665975	WORD	n/a	wordpools/wordpool_EN.txt	SQUARE	2	25	[0, 0, 0]	n/a	FR1	3	R1092J
2627.019	2.599	2668576	WORD	n/a	wordpools/wordpool_EN.txt	GRASS	3	25	[0, 0, 0]	n/a	FR1	3	R1092J
2629.618	2.585	2671175	WORD	n/a	wordpools/wordpool_EN.txt	STORM	4	25	[0, 0, 0]	n/a	FR1	3	R1092J
2632.203	2.482	2673760	WORD	n/a	wordpools/wordpool_EN.txt	JEEP	5	25	[0, 0, 0]	n/a	FR1	3	R1092J
2634.685	2.418	2676242	WORD	n/a	wordpools/wordpool_EN.txt	OAR	6	25	[0, 0, 0]	n/a	FR1	3	R1092J
2637.103	2.583	2678660	WORD	n/a	wordpools/wordpool_EN.txt	SHIELD	7	25	[0, 0, 0]	n/a	FR1	3	R1092J
2639.686	2.568	2681243	WORD	n/a	wordpools/wordpool_EN.txt	SOCK	8	25	[0, 0, 0]	n/a	FR1	3	R1092J
2642.254	2.583	2683811	WORD	n/a	wordpools/wordpool_EN.txt	STOVE	9	25	[0, 0, 0]	n/a	FR1	3	R1092J
2644.837	2.501	2686394	WORD	n/a	wordpools/wordpool_EN.txt	TREE	10	25	[0, 0, 0]	n/a	FR1	3	R1092J
2647.338	2.516	2688895	WORD	n/a	wordpools/wordpool_EN.txt	STAIR	11	25	[0, 0, 0]	n/a	FR1	3	R1092J
2649.854	1.601	2691411	WORD	n/a	wordpools/wordpool_EN.txt	ROOF	12	25	[0, 0, 0]	n/a	FR1	3	R1092J
2651.455	0.001	2693012	DISTRACT_START	n/a	n/a	n/a	-999	25	[0, 0, 0]	n/a	FR1	3	R1092J
2651.456	0.016	2693013	START	n/a	n/a	n/a	-999	25	[-999, -999, -999]	n/a	FR1	3	R1092J
2651.472	2.9	2693029	PROB	2.9	n/a	n/a	-999	25	[1, 9, 4]	14	FR1	3	R1092J
2654.372	5.918	2695929	PROB	5.918	n/a	n/a	-999	25	[8, 9, 9]	26	FR1	3	R1092J
2660.29	2.683	2701847	PROB	2.683	n/a	n/a	-999	25	[6, 7, 1]	15	FR1	3	R1092J
2662.973	2.551	2704530	PROB	2.551	n/a	n/a	-999	25	[3, 9, 7]	19	FR1	3	R1092J
2665.524	3.6	2707081	PROB	3.6	n/a	n/a	-999	25	[6, 7, 1]	14	FR1	3	R1092J
2669.124	2.721	2710681	PROB	2.721	n/a	n/a	-999	25	[8, 7, 5]	20	FR1	3	R1092J
2671.845	0.012	2713402	STOP	n/a	n/a	n/a	-999	25	[-999, -999, -999]	n/a	FR1	3	R1092J
2671.857	1.185	2713414	DISTRACT_END	n/a	n/a	n/a	-999	25	[0, 0, 0]	n/a	FR1	3	R1092J
2673.042	1.94	2714599	REC_START	n/a	n/a	n/a	-999	25	[0, 0, 0]	n/a	FR1	3	R1092J
2674.982	1.296	2716539	REC_WORD	1.296	n/a	JEEP	5	25	[0, 0, 0]	n/a	FR1	3	R1092J
2676.278	2.234	2717835	REC_WORD	2.234	n/a	SQUARE	2	25	[0, 0, 0]	n/a	FR1	3	R1092J
2678.512	2.028	2720069	REC_WORD	2.028	n/a	BOWL	1	25	[0, 0, 0]	n/a	FR1	3	R1092J
2680.54	12.013	2722097	REC_WORD	12.013	n/a	GRASS	3	25	[0, 0, 0]	n/a	FR1	3	R1092J
2692.553	8.197	2734110	REC_WORD	8.197	n/a	KITE	-999	25	[0, 0, 0]	n/a	FR1	3	R1092J
2700.75	2.304	2742307	REC_WORD	2.304	n/a	CLOUD	-999	25	[0, 0, 0]	n/a	FR1	3	R1092J
2703.054	17.276	2744611	REC_END	n/a	n/a	n/a	-999	25	[0, 0, 0]	n/a	FR1	3	R1092J
2720.33	0.0	2761886	SESS_END	n/a	n/a	n/a	-999	25	[0, 0, 0]	n/a	FR1	3	R1092J
