onset	duration	sample	trial_type	response_time	stim_file	item_name	serialpos	list	test	answer	experiment	session	subject
0.0	0.363	399747	INSTRUCT_START	n/a	n/a	n/a	-999	-999	[0, 0, 0]	n/a	FR1	1	R1415T
0.363	278.733	400112	INSTRUCT_END	n/a	n/a	n/a	-999	-999	[0, 0, 0]	n/a	FR1	1	R1415T
279.096	10.351	678827	COUNTDOWN_START	n/a	n/a	n/a	-999	-999	[0, 0, 0]	n/a	FR1	1	R1415T
289.447	0.0	689177	COUNTDOWN_END	n/a	n/a	n/a	-999	-999	[0, 0, 0]	n/a	FR1	1	R1415T
289.447	1.883	689177	ENCODING_START	n/a	n/a	n/a	-999	-1	[0, 0, 0]	n/a	FR1	1	R1415T
291.33	1.599	691058	WORD	n/a	n/a	DUST	1	-1	[0, 0, 0]	n/a	FR1	1	R1415T
292.929	0.984	692658	WORD_OFF	n/a	n/a	DUST	1	-1	[0, 0, 0]	n/a	FR1	1	R1415T
293.913	1.616	693641	WORD	n/a	n/a	SKI	2	-1	[0, 0, 0]	n/a	FR1	1	R1415T
295.529	0.884	695260	WORD_OFF	n/a	n/a	SKI	2	-1	[0, 0, 0]	n/a	FR1	1	R1415T
296.413	1.616	696140	WORD	n/a	n/a	PIT	3	-1	[0, 0, 0]	n/a	FR1	1	R1415T
298.029	0.867	697759	WORD_OFF	n/a	n/a	PIT	3	-1	[0, 0, 0]	n/a	FR1	1	R1415T
298.896	1.617	698629	WORD	n/a	n/a	WORM	4	-1	[0, 0, 0]	n/a	FR1	1	R1415T
300.513	0.899	700239	WORD_OFF	n/a	n/a	WORM	4	-1	[0, 0, 0]	n/a	FR1	1	R1415T
301.412	1.617	701137	WORD	n/a	n/a	SLEEVE	5	-1	[0, 0, 0]	n/a	FR1	1	R1415T
303.029	0.767	702756	WORD_OFF	n/a	n/a	SLEEVE	5	-1	[0, 0, 0]	n/a	FR1	1	R1415T
303.796	1.616	703524	WORD	n/a	n/a	SEED	6	-1	[0, 0, 0]	n/a	FR1	1	R1415T
305.412	0.867	705143	WORD_OFF	n/a	n/a	SEED	6	-1	[0, 0, 0]	n/a	FR1	1	R1415T
306.279	1.616	706004	WORD	n/a	n/a	WASP	7	-1	[0, 0, 0]	n/a	FR1	1	R1415T
307.895	0.934	707623	WORD_OFF	n/a	n/a	WASP	7	-1	[0, 0, 0]	n/a	FR1	1	R1415T
308.829	1.616	708558	WORD	n/a	n/a	STEM	8	-1	[0, 0, 0]	n/a	FR1	1	R1415T
310.445	0.834	710178	WORD_OFF	n/a	n/a	STEM	8	-1	[0, 0, 0]	n/a	FR1	1	R1415T
311.279	1.6	711010	WORD	n/a	n/a	SKY	9	-1	[0, 0, 0]	n/a	FR1	1	R1415T
312.879	0.999	712611	WORD_OFF	n/a	n/a	SKY	9	-1	[0, 0, 0]	n/a	FR1	1	R1415T
313.878	1.601	713603	WORD	n/a	n/a	THUMB	10	-1	[0, 0, 0]	n/a	FR1	1	R1415T
315.479	0.933	715203	WORD_OFF	n/a	n/a	THUMB	10	-1	[0, 0, 0]	n/a	FR1	1	R1415T
316.412	1.6	716139	WORD	n/a	n/a	TOOL	11	-1	[0, 0, 0]	n/a	FR1	1	R1415T
318.012	0.883	717749	WORD_OFF	n/a	n/a	TOOL	11	-1	[0, 0, 0]	n/a	FR1	1	R1415T
318.895	1.617	718628	WORD	n/a	n/a	VEST	12	-1	[0, 0, 0]	n/a	FR1	1	R1415T
320.512	0.001	720238	WORD_OFF	n/a	n/a	VEST	12	-1	[0, 0, 0]	n/a	FR1	1	R1415T
320.513	0.0	720238	ENCODING_END	n/a	n/a	n/a	-999	-1	[0, 0, 0]	n/a	FR1	1	R1415T
320.513	0.001	720240	START	n/a	n/a	n/a	-999	-1	[-999, -999, -999]	n/a	FR1	1	R1415T
320.514	0.0	720241	PROB	0.0	n/a	n/a	-999	-1	[4, 8, 5]	17	FR1	1	R1415T
320.513	6.316	720247	DISTRACT_START	n/a	n/a	n/a	-999	-1	[0, 0, 0]	n/a	FR1	1	R1415T
326.829	4.2	726556	PROB	4.2	n/a	n/a	-999	-1	[5, 4, 3]	12	FR1	1	R1415T
331.029	4.635	730756	PROB	4.635	n/a	n/a	-999	-1	[4, 3, 5]	12	FR1	1	R1415T
335.664	3.982	735390	PROB	3.982	n/a	n/a	-999	-1	[1, 7, 1]	9	FR1	1	R1415T
339.646	7.95	739372	PROB	7.95	n/a	n/a	-999	-1	[2, 6, 8]	16	FR1	1	R1415T
347.596	0.0	747321	DISTRACT_END	n/a	n/a	n/a	-999	-1	[0, 0, 0]	n/a	FR1	1	R1415T
347.596	1.383	747322	STOP	n/a	n/a	n/a	-999	-1	[-999, -999, -999]	n/a	FR1	1	R1415T
348.979	4.849	748706	REC_START	n/a	n/a	n/a	-999	-1	[0, 0, 0]	n/a	FR1	1	R1415T
353.828	2.822	753553	REC_WORD	2.822	n/a	DUST	1	-1	[0, 0, 0]	n/a	FR1	1	R1415T
356.65	10.288	756375	REC_WORD	10.288	n/a	SKI	2	-1	[0, 0, 0]	n/a	FR1	1	R1415T
366.938	9.744	766663	REC_WORD	9.744	n/a	PIT	3	-1	[0, 0, 0]	n/a	FR1	1	R1415T
376.682	3.512	776406	REC_WORD	3.512	n/a	TOOL	11	-1	[0, 0, 0]	n/a	FR1	1	R1415T
380.194	36.119	779917	REC_END	n/a	n/a	n/a	-999	-1	[0, 0, 0]	n/a	FR1	1	R1415T
416.313	10.35	816041	COUNTDOWN_START	n/a	n/a	n/a	-999	1	[0, 0, 0]	n/a	FR1	1	R1415T
426.663	0.0	826382	COUNTDOWN_END	n/a	n/a	n/a	-999	1	[0, 0, 0]	n/a	FR1	1	R1415T
426.663	2.0	826391	ENCODING_START	n/a	n/a	n/a	-999	1	[0, 0, 0]	n/a	FR1	1	R1415T
428.663	1.616	828385	WORD	n/a	wordpools/wordpool_long_EN.txt	EGG	1	1	[0, 0, 0]	n/a	FR1	1	R1415T
430.279	0.867	830004	WORD_OFF	n/a	n/a	EGG	1	1	[0, 0, 0]	n/a	FR1	1	R1415T
431.146	1.6	830865	WORD	n/a	wordpools/wordpool_long_EN.txt	FRAME	2	1	[0, 0, 0]	n/a	FR1	1	R1415T
432.746	0.817	832465	WORD_OFF	n/a	n/a	FRAME	2	1	[0, 0, 0]	n/a	FR1	1	R1415T
433.563	1.6	833288	WORD	n/a	wordpools/wordpool_long_EN.txt	PRINCE	3	1	[0, 0, 0]	n/a	FR1	1	R1415T
435.163	0.95	834889	WORD_OFF	n/a	n/a	PRINCE	3	1	[0, 0, 0]	n/a	FR1	1	R1415T
436.113	1.6	835834	WORD	n/a	wordpools/wordpool_long_EN.txt	CLIFF	4	1	[0, 0, 0]	n/a	FR1	1	R1415T
437.713	0.916	837434	WORD_OFF	n/a	n/a	CLIFF	4	1	[0, 0, 0]	n/a	FR1	1	R1415T
438.629	1.6	838351	WORD	n/a	wordpools/wordpool_long_EN.txt	CHEEK	5	1	[0, 0, 0]	n/a	FR1	1	R1415T
440.229	0.834	839952	WORD_OFF	n/a	n/a	CHEEK	5	1	[0, 0, 0]	n/a	FR1	1	R1415T
441.063	1.616	840785	WORD	n/a	wordpools/wordpool_long_EN.txt	HOOF	6	1	[0, 0, 0]	n/a	FR1	1	R1415T
442.679	0.834	842404	WORD_OFF	n/a	n/a	HOOF	6	1	[0, 0, 0]	n/a	FR1	1	R1415T
443.513	1.6	843236	WORD	n/a	wordpools/wordpool_long_EN.txt	STREET	7	1	[0, 0, 0]	n/a	FR1	1	R1415T
445.113	0.783	844837	WORD_OFF	n/a	n/a	STREET	7	1	[0, 0, 0]	n/a	FR1	1	R1415T
445.896	1.6	845613	WORD	n/a	wordpools/wordpool_long_EN.txt	YOLK	8	1	[0, 0, 0]	n/a	FR1	1	R1415T
447.496	0.867	847214	WORD_OFF	n/a	n/a	YOLK	8	1	[0, 0, 0]	n/a	FR1	1	R1415T
448.363	1.6	848084	WORD	n/a	wordpools/wordpool_long_EN.txt	STRING	9	1	[0, 0, 0]	n/a	FR1	1	R1415T
449.963	0.95	849684	WORD_OFF	n/a	n/a	STRING	9	1	[0, 0, 0]	n/a	FR1	1	R1415T
450.913	1.6	850630	WORD	n/a	wordpools/wordpool_long_EN.txt	SHEET	10	1	[0, 0, 0]	n/a	FR1	1	R1415T
452.513	0.85	852230	WORD_OFF	n/a	n/a	SHEET	10	1	[0, 0, 0]	n/a	FR1	1	R1415T
453.363	1.6	853082	WORD	n/a	wordpools/wordpool_long_EN.txt	MOLE	11	1	[0, 0, 0]	n/a	FR1	1	R1415T
454.963	0.916	854682	WORD_OFF	n/a	n/a	MOLE	11	1	[0, 0, 0]	n/a	FR1	1	R1415T
455.879	1.6	855599	WORD	n/a	wordpools/wordpool_long_EN.txt	HUT	12	1	[0, 0, 0]	n/a	FR1	1	R1415T
457.479	0.002	857199	WORD_OFF	n/a	n/a	HUT	12	1	[0, 0, 0]	n/a	FR1	1	R1415T
457.481	0.0	857199	ENCODING_END	n/a	n/a	n/a	-999	1	[0, 0, 0]	n/a	FR1	1	R1415T
457.48	0.001	857200	PROB	0.001	n/a	n/a	-999	1	[2, 5, 6]	13	FR1	1	R1415T
457.481	0.0	857201	START	n/a	n/a	n/a	-999	1	[-999, -999, -999]	n/a	FR1	1	R1415T
457.481	11.832	857209	DISTRACT_START	n/a	n/a	n/a	-999	1	[0, 0, 0]	n/a	FR1	1	R1415T
469.313	4.902	869032	PROB	4.902	n/a	n/a	-999	1	[6, 2, 1]	9	FR1	1	R1415T
474.215	6.364	873934	PROB	6.364	n/a	n/a	-999	1	[4, 8, 6]	18	FR1	1	R1415T
480.579	0.0	880296	DISTRACT_END	n/a	n/a	n/a	-999	1	[0, 0, 0]	n/a	FR1	1	R1415T
480.579	1.133	880298	STOP	n/a	n/a	n/a	-999	1	[-999, -999, -999]	n/a	FR1	1	R1415T
481.712	0.0	881428	REC_START	n/a	n/a	n/a	-999	1	[0, 0, 0]	n/a	FR1	1	R1415T
481.712	1.0	881431	REC_WORD_VV	1.0	n/a	<>	-999	1	[0, 0, 0]	n/a	FR1	1	R1415T
482.712	10.04	882431	REC_WORD_VV	10.04	n/a	<>	-999	1	[0, 0, 0]	n/a	FR1	1	R1415T
492.752	1.0	892470	REC_WORD_VV	1.0	n/a	<>	-999	1	[0, 0, 0]	n/a	FR1	1	R1415T
493.752	1.942	893470	REC_WORD_VV	1.942	n/a	<>	-999	1	[0, 0, 0]	n/a	FR1	1	R1415T
495.694	1.0	895412	REC_WORD_VV	1.0	n/a	<>	-999	1	[0, 0, 0]	n/a	FR1	1	R1415T
496.694	4.471	896412	REC_WORD_VV	4.471	n/a	<>	-999	1	[0, 0, 0]	n/a	FR1	1	R1415T
501.165	6.014	900883	REC_WORD_VV	6.014	n/a	<>	-999	1	[0, 0, 0]	n/a	FR1	1	R1415T
507.179	1.748	906896	REC_WORD_VV	1.748	n/a	<>	-999	1	[0, 0, 0]	n/a	FR1	1	R1415T
508.927	1.0	908644	REC_WORD_VV	1.0	n/a	<>	-999	1	[0, 0, 0]	n/a	FR1	1	R1415T
509.927	1.0	909644	REC_WORD_VV	1.0	n/a	<>	-999	1	[0, 0, 0]	n/a	FR1	1	R1415T
510.927	1.98	910644	REC_WORD_VV	1.98	n/a	<>	-999	1	[0, 0, 0]	n/a	FR1	1	R1415T
512.907	7.122	912620	REC_END	n/a	n/a	n/a	-999	1	[0, 0, 0]	n/a	FR1	1	R1415T
520.029	10.35	919751	COUNTDOWN_START	n/a	n/a	n/a	-999	1	[0, 0, 0]	n/a	FR1	1	R1415T
530.379	0.0	930093	COUNTDOWN_END	n/a	n/a	n/a	-999	1	[0, 0, 0]	n/a	FR1	1	R1415T
530.379	2.083	930102	ENCODING_START	n/a	n/a	n/a	-999	2	[0, 0, 0]	n/a	FR1	1	R1415T
532.462	1.601	932179	WORD	n/a	wordpools/wordpool_long_EN.txt	ROOT	1	2	[0, 0, 0]	n/a	FR1	1	R1415T
534.063	0.85	933780	WORD_OFF	n/a	n/a	ROOT	1	2	[0, 0, 0]	n/a	FR1	1	R1415T
534.913	1.616	934631	WORD	n/a	wordpools/wordpool_long_EN.txt	FORT	2	2	[0, 0, 0]	n/a	FR1	1	R1415T
536.529	0.8	936250	WORD_OFF	n/a	n/a	FORT	2	2	[0, 0, 0]	n/a	FR1	1	R1415T
537.329	1.6	937046	WORD	n/a	wordpools/wordpool_long_EN.txt	BOX	3	2	[0, 0, 0]	n/a	FR1	1	R1415T
538.929	0.817	938646	WORD_OFF	n/a	n/a	BOX	3	2	[0, 0, 0]	n/a	FR1	1	R1415T
539.746	1.6	939460	WORD	n/a	wordpools/wordpool_long_EN.txt	MOOSE	4	2	[0, 0, 0]	n/a	FR1	1	R1415T
541.346	0.883	941061	WORD_OFF	n/a	n/a	MOOSE	4	2	[0, 0, 0]	n/a	FR1	1	R1415T
542.229	1.6	941950	WORD	n/a	wordpools/wordpool_long_EN.txt	BIRD	5	2	[0, 0, 0]	n/a	FR1	1	R1415T
543.829	0.984	943550	WORD_OFF	n/a	n/a	BIRD	5	2	[0, 0, 0]	n/a	FR1	1	R1415T
544.813	1.6	944533	WORD	n/a	wordpools/wordpool_long_EN.txt	FROG	6	2	[0, 0, 0]	n/a	FR1	1	R1415T
546.413	0.866	946133	WORD_OFF	n/a	n/a	FROG	6	2	[0, 0, 0]	n/a	FR1	1	R1415T
547.279	1.617	946994	WORD	n/a	wordpools/wordpool_long_EN.txt	PIN	7	2	[0, 0, 0]	n/a	FR1	1	R1415T
548.896	1.0	948613	WORD_OFF	n/a	n/a	PIN	7	2	[0, 0, 0]	n/a	FR1	1	R1415T
549.896	1.6	949614	WORD	n/a	wordpools/wordpool_long_EN.txt	LIP	8	2	[0, 0, 0]	n/a	FR1	1	R1415T
551.496	0.783	951215	WORD_OFF	n/a	n/a	LIP	8	2	[0, 0, 0]	n/a	FR1	1	R1415T
552.279	1.6	951991	WORD	n/a	wordpools/wordpool_long_EN.txt	BARN	9	2	[0, 0, 0]	n/a	FR1	1	R1415T
553.879	0.984	953592	WORD_OFF	n/a	n/a	BARN	9	2	[0, 0, 0]	n/a	FR1	1	R1415T
554.863	1.6	954574	WORD	n/a	wordpools/wordpool_long_EN.txt	PURSE	10	2	[0, 0, 0]	n/a	FR1	1	R1415T
556.463	0.916	956175	WORD_OFF	n/a	n/a	PURSE	10	2	[0, 0, 0]	n/a	FR1	1	R1415T
557.379	1.617	957092	WORD	n/a	wordpools/wordpool_long_EN.txt	TANK	11	2	[0, 0, 0]	n/a	FR1	1	R1415T
558.996	0.917	958711	WORD_OFF	n/a	n/a	TANK	11	2	[0, 0, 0]	n/a	FR1	1	R1415T
559.913	1.6	959628	WORD	n/a	wordpools/wordpool_long_EN.txt	TRENCH	12	2	[0, 0, 0]	n/a	FR1	1	R1415T
561.513	0.001	961228	WORD_OFF	n/a	n/a	TRENCH	12	2	[0, 0, 0]	n/a	FR1	1	R1415T
561.514	0.0	961228	ENCODING_END	n/a	n/a	n/a	-999	2	[0, 0, 0]	n/a	FR1	1	R1415T
561.514	0.0	961228	DISTRACT_START	n/a	n/a	n/a	-999	2	[0, 0, 0]	n/a	FR1	1	R1415T
561.513	0.001	961228	PROB	0.001	n/a	n/a	-999	2	[4, 5, 3]	12	FR1	1	R1415T
561.514	5.449	961229	START	n/a	n/a	n/a	-999	2	[-999, -999, -999]	n/a	FR1	1	R1415T
566.963	3.668	966677	PROB	3.668	n/a	n/a	-999	2	[2, 7, 7]	16	FR1	1	R1415T
570.631	3.632	970345	PROB	3.632	n/a	n/a	-999	2	[3, 2, 1]	6	FR1	1	R1415T
574.263	3.8	973977	PROB	3.8	n/a	n/a	-999	2	[6, 1, 5]	12	FR1	1	R1415T
578.063	3.582	977777	PROB	3.582	n/a	n/a	-999	2	[2, 5, 3]	10	FR1	1	R1415T
581.645	0.0	981358	DISTRACT_END	n/a	n/a	n/a	-999	2	[0, 0, 0]	n/a	FR1	1	R1415T
581.645	1.3	981359	STOP	n/a	n/a	n/a	-999	2	[-999, -999, -999]	n/a	FR1	1	R1415T
582.945	6.64	982659	REC_START	n/a	n/a	n/a	-999	2	[0, 0, 0]	n/a	FR1	1	R1415T
589.585	7.505	989298	REC_WORD	7.505	n/a	ROOT	1	2	[0, 0, 0]	n/a	FR1	1	R1415T
597.09	7.764	996803	REC_WORD	7.764	n/a	TRENCH	12	2	[0, 0, 0]	n/a	FR1	1	R1415T
604.854	9.293	1004566	REC_WORD	9.293	n/a	BARN	9	2	[0, 0, 0]	n/a	FR1	1	R1415T
614.147	60.682	1013860	REC_END	n/a	n/a	n/a	-999	2	[0, 0, 0]	n/a	FR1	1	R1415T
674.829	10.35	1074541	COUNTDOWN_START	n/a	n/a	n/a	-999	2	[0, 0, 0]	n/a	FR1	1	R1415T
685.179	0.0	1084891	COUNTDOWN_END	n/a	n/a	n/a	-999	2	[0, 0, 0]	n/a	FR1	1	R1415T
685.179	1.816	1084891	ENCODING_START	n/a	n/a	n/a	-999	3	[0, 0, 0]	n/a	FR1	1	R1415T
686.995	1.6	1086707	WORD	n/a	wordpools/wordpool_long_EN.txt	KITE	1	3	[0, 0, 0]	n/a	FR1	1	R1415T
688.595	0.767	1088307	WORD_OFF	n/a	n/a	KITE	1	3	[0, 0, 0]	n/a	FR1	1	R1415T
689.362	1.6	1089074	WORD	n/a	wordpools/wordpool_long_EN.txt	OAR	2	3	[0, 0, 0]	n/a	FR1	1	R1415T
690.962	0.817	1090675	WORD_OFF	n/a	n/a	OAR	2	3	[0, 0, 0]	n/a	FR1	1	R1415T
691.779	1.6	1091489	WORD	n/a	wordpools/wordpool_long_EN.txt	MULE	3	3	[0, 0, 0]	n/a	FR1	1	R1415T
693.379	0.8	1093089	WORD_OFF	n/a	n/a	MULE	3	3	[0, 0, 0]	n/a	FR1	1	R1415T
694.179	1.6	1093885	WORD	n/a	wordpools/wordpool_long_EN.txt	LOCK	4	3	[0, 0, 0]	n/a	FR1	1	R1415T
695.779	0.767	1095485	WORD_OFF	n/a	n/a	LOCK	4	3	[0, 0, 0]	n/a	FR1	1	R1415T
696.546	1.6	1096252	WORD	n/a	wordpools/wordpool_long_EN.txt	EEL	5	3	[0, 0, 0]	n/a	FR1	1	R1415T
698.146	0.834	1097853	WORD_OFF	n/a	n/a	EEL	5	3	[0, 0, 0]	n/a	FR1	1	R1415T
698.98	1.6	1098686	WORD	n/a	wordpools/wordpool_long_EN.txt	MAT	6	3	[0, 0, 0]	n/a	FR1	1	R1415T
700.58	0.984	1100286	WORD_OFF	n/a	n/a	MAT	6	3	[0, 0, 0]	n/a	FR1	1	R1415T
701.564	1.615	1101269	WORD	n/a	wordpools/wordpool_long_EN.txt	LAWN	7	3	[0, 0, 0]	n/a	FR1	1	R1415T
703.179	0.816	1102888	WORD_OFF	n/a	n/a	LAWN	7	3	[0, 0, 0]	n/a	FR1	1	R1415T
703.995	1.601	1103702	WORD	n/a	wordpools/wordpool_long_EN.txt	FOAM	8	3	[0, 0, 0]	n/a	FR1	1	R1415T
705.596	0.766	1105302	WORD_OFF	n/a	n/a	FOAM	8	3	[0, 0, 0]	n/a	FR1	1	R1415T
706.362	1.601	1106069	WORD	n/a	wordpools/wordpool_long_EN.txt	PET	9	3	[0, 0, 0]	n/a	FR1	1	R1415T
707.963	0.983	1107670	WORD_OFF	n/a	n/a	PET	9	3	[0, 0, 0]	n/a	FR1	1	R1415T
708.946	1.6	1108652	WORD	n/a	wordpools/wordpool_long_EN.txt	TOWN	10	3	[0, 0, 0]	n/a	FR1	1	R1415T
710.546	0.8	1110253	WORD_OFF	n/a	n/a	TOWN	10	3	[0, 0, 0]	n/a	FR1	1	R1415T
711.346	1.6	1111058	WORD	n/a	wordpools/wordpool_long_EN.txt	BRUSH	11	3	[0, 0, 0]	n/a	FR1	1	R1415T
712.946	1.0	1112658	WORD_OFF	n/a	n/a	BRUSH	11	3	[0, 0, 0]	n/a	FR1	1	R1415T
713.946	1.616	1113650	WORD	n/a	wordpools/wordpool_long_EN.txt	FLEET	12	3	[0, 0, 0]	n/a	FR1	1	R1415T
715.562	0.001	1115269	WORD_OFF	n/a	n/a	FLEET	12	3	[0, 0, 0]	n/a	FR1	1	R1415T
715.563	0.0	1115269	ENCODING_END	n/a	n/a	n/a	-999	3	[0, 0, 0]	n/a	FR1	1	R1415T
715.562	0.001	1115269	PROB	0.001	n/a	n/a	-999	3	[7, 4, 3]	13	FR1	1	R1415T
715.563	0.0	1115270	START	n/a	n/a	n/a	-999	3	[-999, -999, -999]	n/a	FR1	1	R1415T
715.563	6.699	1115278	DISTRACT_START	n/a	n/a	n/a	-999	3	[0, 0, 0]	n/a	FR1	1	R1415T
722.262	4.818	1121968	PROB	4.818	n/a	n/a	-999	3	[7, 2, 8]	17	FR1	1	R1415T
727.08	4.95	1126786	PROB	4.95	n/a	n/a	-999	3	[7, 5, 3]	15	FR1	1	R1415T
732.03	5.283	1131736	PROB	5.283	n/a	n/a	-999	3	[3, 6, 6]	15	FR1	1	R1415T
737.313	0.0	1137018	DISTRACT_END	n/a	n/a	n/a	-999	3	[0, 0, 0]	n/a	FR1	1	R1415T
737.313	1.349	1137019	STOP	n/a	n/a	n/a	-999	3	[-999, -999, -999]	n/a	FR1	1	R1415T
738.662	2.417	1138366	REC_START	n/a	n/a	n/a	-999	3	[0, 0, 0]	n/a	FR1	1	R1415T
741.079	7.984	1140784	REC_WORD	7.984	n/a	KITE	1	3	[0, 0, 0]	n/a	FR1	1	R1415T
749.063	7.878	1148768	REC_WORD	7.878	n/a	OAK	-999	3	[0, 0, 0]	n/a	FR1	1	R1415T
756.941	12.944	1156646	REC_WORD	12.944	n/a	STREET	-999	3	[0, 0, 0]	n/a	FR1	1	R1415T
769.885	7.377	1169586	REC_END	n/a	n/a	n/a	-999	3	[0, 0, 0]	n/a	FR1	1	R1415T
777.262	10.351	1176969	COUNTDOWN_START	n/a	n/a	n/a	-999	3	[0, 0, 0]	n/a	FR1	1	R1415T
787.613	0.0	1187320	COUNTDOWN_END	n/a	n/a	n/a	-999	3	[0, 0, 0]	n/a	FR1	1	R1415T
787.613	2.033	1187320	ENCODING_START	n/a	n/a	n/a	-999	4	[0, 0, 0]	n/a	FR1	1	R1415T
789.646	1.599	1189351	WORD	n/a	wordpools/wordpool_long_EN.txt	WHEEL	1	4	[0, 0, 0]	n/a	FR1	1	R1415T
791.245	0.8	1190951	WORD_OFF	n/a	n/a	WHEEL	1	4	[0, 0, 0]	n/a	FR1	1	R1415T
792.045	1.601	1191746	WORD	n/a	wordpools/wordpool_long_EN.txt	LOFT	2	4	[0, 0, 0]	n/a	FR1	1	R1415T
793.646	0.883	1193347	WORD_OFF	n/a	n/a	LOFT	2	4	[0, 0, 0]	n/a	FR1	1	R1415T
794.529	1.6	1194236	WORD	n/a	wordpools/wordpool_long_EN.txt	CHIEF	3	4	[0, 0, 0]	n/a	FR1	1	R1415T
796.129	0.867	1195836	WORD_OFF	n/a	n/a	CHIEF	3	4	[0, 0, 0]	n/a	FR1	1	R1415T
796.996	1.6	1196697	WORD	n/a	wordpools/wordpool_long_EN.txt	POND	4	4	[0, 0, 0]	n/a	FR1	1	R1415T
798.596	0.867	1198297	WORD_OFF	n/a	n/a	POND	4	4	[0, 0, 0]	n/a	FR1	1	R1415T
799.463	1.6	1199168	WORD	n/a	wordpools/wordpool_long_EN.txt	GRASS	5	4	[0, 0, 0]	n/a	FR1	1	R1415T
801.063	0.766	1200768	WORD_OFF	n/a	n/a	GRASS	5	4	[0, 0, 0]	n/a	FR1	1	R1415T
801.829	1.6	1201535	WORD	n/a	wordpools/wordpool_long_EN.txt	TRASH	6	4	[0, 0, 0]	n/a	FR1	1	R1415T
803.429	0.917	1203136	WORD_OFF	n/a	n/a	TRASH	6	4	[0, 0, 0]	n/a	FR1	1	R1415T
804.346	1.617	1204053	WORD	n/a	wordpools/wordpool_long_EN.txt	ROPE	7	4	[0, 0, 0]	n/a	FR1	1	R1415T
805.963	0.883	1205662	WORD_OFF	n/a	n/a	ROPE	7	4	[0, 0, 0]	n/a	FR1	1	R1415T
806.846	1.6	1206552	WORD	n/a	wordpools/wordpool_long_EN.txt	PERCH	8	4	[0, 0, 0]	n/a	FR1	1	R1415T
808.446	0.983	1208152	WORD_OFF	n/a	n/a	PERCH	8	4	[0, 0, 0]	n/a	FR1	1	R1415T
809.429	1.6	1209134	WORD	n/a	wordpools/wordpool_long_EN.txt	CHILD	9	4	[0, 0, 0]	n/a	FR1	1	R1415T
811.029	0.917	1210735	WORD_OFF	n/a	n/a	CHILD	9	4	[0, 0, 0]	n/a	FR1	1	R1415T
811.946	1.616	1211652	WORD	n/a	wordpools/wordpool_long_EN.txt	OX	10	4	[0, 0, 0]	n/a	FR1	1	R1415T
813.562	0.917	1213262	WORD_OFF	n/a	n/a	OX	10	4	[0, 0, 0]	n/a	FR1	1	R1415T
814.479	1.6	1214179	WORD	n/a	wordpools/wordpool_long_EN.txt	GEESE	11	4	[0, 0, 0]	n/a	FR1	1	R1415T
816.079	0.867	1215779	WORD_OFF	n/a	n/a	GEESE	11	4	[0, 0, 0]	n/a	FR1	1	R1415T
816.946	1.6	1216649	WORD	n/a	wordpools/wordpool_long_EN.txt	VASE	12	4	[0, 0, 0]	n/a	FR1	1	R1415T
818.546	0.002	1218247	PROB	0.002	n/a	n/a	-999	4	[4, 6, 7]	17	FR1	1	R1415T
818.548	0.0	1218249	START	n/a	n/a	n/a	-999	4	[-999, -999, -999]	n/a	FR1	1	R1415T
818.546	0.002	1218250	WORD_OFF	n/a	n/a	VASE	12	4	[0, 0, 0]	n/a	FR1	1	R1415T
818.548	0.0	1218250	ENCODING_END	n/a	n/a	n/a	-999	4	[0, 0, 0]	n/a	FR1	1	R1415T
818.548	5.098	1218250	DISTRACT_START	n/a	n/a	n/a	-999	4	[0, 0, 0]	n/a	FR1	1	R1415T
823.646	3.701	1223347	PROB	3.701	n/a	n/a	-999	4	[8, 3, 6]	17	FR1	1	R1415T
827.347	5.833	1227048	PROB	5.833	n/a	n/a	-999	4	[8, 1, 7]	16	FR1	1	R1415T
833.18	5.467	1232881	PROB	5.467	n/a	n/a	-999	4	[3, 7, 4]	14	FR1	1	R1415T
838.647	0.0	1238347	STOP	n/a	n/a	n/a	-999	4	[-999, -999, -999]	n/a	FR1	1	R1415T
838.647	1.349	1238352	DISTRACT_END	n/a	n/a	n/a	-999	4	[0, 0, 0]	n/a	FR1	1	R1415T
839.996	4.708	1239699	REC_START	n/a	n/a	n/a	-999	4	[0, 0, 0]	n/a	FR1	1	R1415T
844.704	5.65	1244404	REC_WORD	5.65	n/a	POND	4	4	[0, 0, 0]	n/a	FR1	1	R1415T
850.354	9.808	1250054	REC_WORD	9.808	n/a	OX	10	4	[0, 0, 0]	n/a	FR1	1	R1415T
860.162	7.703	1259861	REC_WORD	7.703	n/a	BIRD	-999	4	[0, 0, 0]	n/a	FR1	1	R1415T
867.865	3.35	1267564	REC_WORD	3.35	n/a	PERCH	8	4	[0, 0, 0]	n/a	FR1	1	R1415T
871.215	7.831	1270919	REC_END	n/a	n/a	n/a	-999	4	[0, 0, 0]	n/a	FR1	1	R1415T
879.046	10.351	1278743	COUNTDOWN_START	n/a	n/a	n/a	-999	4	[0, 0, 0]	n/a	FR1	1	R1415T
889.397	0.0	1289093	COUNTDOWN_END	n/a	n/a	n/a	-999	4	[0, 0, 0]	n/a	FR1	1	R1415T
889.397	2.116	1289093	ENCODING_START	n/a	n/a	n/a	-999	5	[0, 0, 0]	n/a	FR1	1	R1415T
891.513	1.616	1291208	WORD	n/a	wordpools/wordpool_long_EN.txt	FENCE	1	5	[0, 0, 0]	n/a	FR1	1	R1415T
893.129	0.767	1292827	WORD_OFF	n/a	n/a	FENCE	1	5	[0, 0, 0]	n/a	FR1	1	R1415T
893.896	1.6	1293595	WORD	n/a	wordpools/wordpool_long_EN.txt	SPEAR	2	5	[0, 0, 0]	n/a	FR1	1	R1415T
895.496	1.0	1295195	WORD_OFF	n/a	n/a	SPEAR	2	5	[0, 0, 0]	n/a	FR1	1	R1415T
896.496	1.617	1296196	WORD	n/a	wordpools/wordpool_long_EN.txt	BEEF	3	5	[0, 0, 0]	n/a	FR1	1	R1415T
898.113	0.966	1297815	WORD_OFF	n/a	n/a	BEEF	3	5	[0, 0, 0]	n/a	FR1	1	R1415T
899.079	1.6	1298779	WORD	n/a	wordpools/wordpool_long_EN.txt	RICE	4	5	[0, 0, 0]	n/a	FR1	1	R1415T
900.679	0.816	1300380	WORD_OFF	n/a	n/a	RICE	4	5	[0, 0, 0]	n/a	FR1	1	R1415T
901.495	1.601	1301194	WORD	n/a	wordpools/wordpool_long_EN.txt	FUR	5	5	[0, 0, 0]	n/a	FR1	1	R1415T
903.096	0.85	1302794	WORD_OFF	n/a	n/a	FUR	5	5	[0, 0, 0]	n/a	FR1	1	R1415T
903.946	1.6	1303646	WORD	n/a	wordpools/wordpool_long_EN.txt	BRANCH	6	5	[0, 0, 0]	n/a	FR1	1	R1415T
905.546	0.883	1305246	WORD_OFF	n/a	n/a	BRANCH	6	5	[0, 0, 0]	n/a	FR1	1	R1415T
906.429	1.617	1306126	WORD	n/a	wordpools/wordpool_long_EN.txt	FLEA	7	5	[0, 0, 0]	n/a	FR1	1	R1415T
908.046	1.0	1307745	WORD_OFF	n/a	n/a	FLEA	7	5	[0, 0, 0]	n/a	FR1	1	R1415T
909.046	1.617	1308746	WORD	n/a	wordpools/wordpool_long_EN.txt	TART	8	5	[0, 0, 0]	n/a	FR1	1	R1415T
910.663	0.882	1310356	WORD_OFF	n/a	n/a	TART	8	5	[0, 0, 0]	n/a	FR1	1	R1415T
911.545	1.601	1311245	WORD	n/a	wordpools/wordpool_long_EN.txt	CAGE	9	5	[0, 0, 0]	n/a	FR1	1	R1415T
913.146	0.833	1312845	WORD_OFF	n/a	n/a	CAGE	9	5	[0, 0, 0]	n/a	FR1	1	R1415T
913.979	1.617	1313678	WORD	n/a	wordpools/wordpool_long_EN.txt	PEA	10	5	[0, 0, 0]	n/a	FR1	1	R1415T
915.596	0.9	1315297	WORD_OFF	n/a	n/a	PEA	10	5	[0, 0, 0]	n/a	FR1	1	R1415T
916.496	1.6	1316196	WORD	n/a	wordpools/wordpool_long_EN.txt	HOUSE	11	5	[0, 0, 0]	n/a	FR1	1	R1415T
918.096	0.867	1317796	WORD_OFF	n/a	n/a	HOUSE	11	5	[0, 0, 0]	n/a	FR1	1	R1415T
918.963	1.6	1318657	WORD	n/a	wordpools/wordpool_long_EN.txt	JUDGE	12	5	[0, 0, 0]	n/a	FR1	1	R1415T
920.563	0.0	1320257	WORD_OFF	n/a	n/a	JUDGE	12	5	[0, 0, 0]	n/a	FR1	1	R1415T
920.563	0.001	1320259	PROB	0.001	n/a	n/a	-999	5	[6, 8, 5]	19	FR1	1	R1415T
920.564	0.0	1320260	START	n/a	n/a	n/a	-999	5	[-999, -999, -999]	n/a	FR1	1	R1415T
920.564	0.0	1320266	ENCODING_END	n/a	n/a	n/a	-999	5	[0, 0, 0]	n/a	FR1	1	R1415T
920.564	6.516	1320266	DISTRACT_START	n/a	n/a	n/a	-999	5	[0, 0, 0]	n/a	FR1	1	R1415T
927.08	4.518	1326776	PROB	4.518	n/a	n/a	-999	5	[3, 5, 7]	15	FR1	1	R1415T
931.598	3.764	1331294	PROB	3.764	n/a	n/a	-999	5	[7, 8, 1]	16	FR1	1	R1415T
935.362	3.818	1335057	PROB	3.818	n/a	n/a	-999	5	[4, 4, 2]	10	FR1	1	R1415T
939.18	4.482	1338875	PROB	4.482	n/a	n/a	-999	5	[2, 4, 8]	14	FR1	1	R1415T
943.662	0.0	1343354	DISTRACT_END	n/a	n/a	n/a	-999	5	[0, 0, 0]	n/a	FR1	1	R1415T
943.662	1.317	1343357	STOP	n/a	n/a	n/a	-999	5	[-999, -999, -999]	n/a	FR1	1	R1415T
944.979	5.01	1344673	REC_START	n/a	n/a	n/a	-999	5	[0, 0, 0]	n/a	FR1	1	R1415T
949.989	7.445	1349684	REC_WORD	7.445	n/a	FUR	5	5	[0, 0, 0]	n/a	FR1	1	R1415T
957.434	8.059	1357128	REC_WORD	8.059	n/a	RANCH	-999	5	[0, 0, 0]	n/a	FR1	1	R1415T
965.493	8.495	1365187	REC_WORD	8.495	n/a	FLEA	7	5	[0, 0, 0]	n/a	FR1	1	R1415T
973.988	2.203	1373682	REC_WORD	2.203	n/a	TREE	-999	5	[0, 0, 0]	n/a	FR1	1	R1415T
976.191	4.504	1375884	REC_END	n/a	n/a	n/a	-999	5	[0, 0, 0]	n/a	FR1	1	R1415T
980.695	10.352	1380395	COUNTDOWN_START	n/a	n/a	n/a	-999	5	[0, 0, 0]	n/a	FR1	1	R1415T
991.047	0.0	1390736	COUNTDOWN_END	n/a	n/a	n/a	-999	5	[0, 0, 0]	n/a	FR1	1	R1415T
991.047	2.066	1390745	ENCODING_START	n/a	n/a	n/a	-999	6	[0, 0, 0]	n/a	FR1	1	R1415T
993.113	1.616	1392804	WORD	n/a	wordpools/wordpool_long_EN.txt	WAVE	1	6	[0, 0, 0]	n/a	FR1	1	R1415T
994.729	0.767	1394423	WORD_OFF	n/a	n/a	WAVE	1	6	[0, 0, 0]	n/a	FR1	1	R1415T
995.496	1.6	1395190	WORD	n/a	wordpools/wordpool_long_EN.txt	CUP	2	6	[0, 0, 0]	n/a	FR1	1	R1415T
997.096	1.0	1396791	WORD_OFF	n/a	n/a	CUP	2	6	[0, 0, 0]	n/a	FR1	1	R1415T
998.096	1.6	1397792	WORD	n/a	wordpools/wordpool_long_EN.txt	PIPE	3	6	[0, 0, 0]	n/a	FR1	1	R1415T
999.696	0.867	1399392	WORD_OFF	n/a	n/a	PIPE	3	6	[0, 0, 0]	n/a	FR1	1	R1415T
1000.563	1.615	1400253	WORD	n/a	wordpools/wordpool_long_EN.txt	BRIDGE	4	6	[0, 0, 0]	n/a	FR1	1	R1415T
1002.178	1.001	1401872	WORD_OFF	n/a	n/a	BRIDGE	4	6	[0, 0, 0]	n/a	FR1	1	R1415T
1003.179	1.617	1402874	WORD	n/a	wordpools/wordpool_long_EN.txt	FILM	5	6	[0, 0, 0]	n/a	FR1	1	R1415T
1004.796	0.969	1404493	WORD_OFF	n/a	n/a	FILM	5	6	[0, 0, 0]	n/a	FR1	1	R1415T
1005.765	1.614	1405457	WORD	n/a	wordpools/wordpool_long_EN.txt	TILE	6	6	[0, 0, 0]	n/a	FR1	1	R1415T
1007.379	0.917	1407066	WORD_OFF	n/a	n/a	TILE	6	6	[0, 0, 0]	n/a	FR1	1	R1415T
1008.296	1.617	1407993	WORD	n/a	wordpools/wordpool_long_EN.txt	TOAD	7	6	[0, 0, 0]	n/a	FR1	1	R1415T
1009.913	0.916	1409603	WORD_OFF	n/a	n/a	TOAD	7	6	[0, 0, 0]	n/a	FR1	1	R1415T
1010.829	1.617	1410520	WORD	n/a	wordpools/wordpool_long_EN.txt	SOUP	8	6	[0, 0, 0]	n/a	FR1	1	R1415T
1012.446	0.9	1412139	WORD_OFF	n/a	n/a	SOUP	8	6	[0, 0, 0]	n/a	FR1	1	R1415T
1013.346	1.617	1413037	WORD	n/a	wordpools/wordpool_long_EN.txt	SHELL	9	6	[0, 0, 0]	n/a	FR1	1	R1415T
1014.963	0.866	1414656	WORD_OFF	n/a	n/a	SHELL	9	6	[0, 0, 0]	n/a	FR1	1	R1415T
1015.829	1.6	1415517	WORD	n/a	wordpools/wordpool_long_EN.txt	APE	10	6	[0, 0, 0]	n/a	FR1	1	R1415T
1017.429	0.817	1417117	WORD_OFF	n/a	n/a	APE	10	6	[0, 0, 0]	n/a	FR1	1	R1415T
1018.246	1.6	1417941	WORD	n/a	wordpools/wordpool_long_EN.txt	THIEF	11	6	[0, 0, 0]	n/a	FR1	1	R1415T
1019.846	1.0	1419541	WORD_OFF	n/a	n/a	THIEF	11	6	[0, 0, 0]	n/a	FR1	1	R1415T
1020.846	1.6	1420533	WORD	n/a	wordpools/wordpool_long_EN.txt	PARK	12	6	[0, 0, 0]	n/a	FR1	1	R1415T
1022.446	0.0	1422134	WORD_OFF	n/a	n/a	PARK	12	6	[0, 0, 0]	n/a	FR1	1	R1415T
1022.446	0.001	1422137	PROB	0.001	n/a	n/a	-999	6	[1, 7, 3]	11	FR1	1	R1415T
1022.447	0.0	1422138	START	n/a	n/a	n/a	-999	6	[-999, -999, -999]	n/a	FR1	1	R1415T
1022.447	0.0	1422143	ENCODING_END	n/a	n/a	n/a	-999	6	[0, 0, 0]	n/a	FR1	1	R1415T
1022.447	4.499	1422143	DISTRACT_START	n/a	n/a	n/a	-999	6	[0, 0, 0]	n/a	FR1	1	R1415T
1026.946	5.583	1426637	PROB	5.583	n/a	n/a	-999	6	[4, 2, 2]	8	FR1	1	R1415T
1032.529	3.417	1432219	PROB	3.417	n/a	n/a	-999	6	[7, 2, 1]	10	FR1	1	R1415T
1035.946	4.7	1435636	PROB	4.7	n/a	n/a	-999	6	[4, 6, 5]	15	FR1	1	R1415T
1040.646	6.016	1440336	PROB	6.016	n/a	n/a	-999	6	[5, 8, 7]	20	FR1	1	R1415T
1046.662	0.0	1446352	STOP	n/a	n/a	n/a	-999	6	[-999, -999, -999]	n/a	FR1	1	R1415T
1046.662	1.017	1446353	DISTRACT_END	n/a	n/a	n/a	-999	6	[0, 0, 0]	n/a	FR1	1	R1415T
1047.679	7.684	1447373	REC_START	n/a	n/a	n/a	-999	6	[0, 0, 0]	n/a	FR1	1	R1415T
1055.363	23.529	1455052	REC_WORD	23.529	n/a	WAVE	1	6	[0, 0, 0]	n/a	FR1	1	R1415T
1078.892	8.171	1478584	REC_END	n/a	n/a	n/a	-999	6	[0, 0, 0]	n/a	FR1	1	R1415T
1087.063	10.349	1486754	COUNTDOWN_START	n/a	n/a	n/a	-999	6	[0, 0, 0]	n/a	FR1	1	R1415T
1097.412	0.0	1497095	COUNTDOWN_END	n/a	n/a	n/a	-999	6	[0, 0, 0]	n/a	FR1	1	R1415T
1097.412	1.934	1497104	ENCODING_START	n/a	n/a	n/a	-999	7	[0, 0, 0]	n/a	FR1	1	R1415T
1099.346	1.616	1499032	WORD	n/a	wordpools/wordpool_long_EN.txt	HOOD	1	7	[0, 0, 0]	n/a	FR1	1	R1415T
1100.962	0.867	1500651	WORD_OFF	n/a	n/a	HOOD	1	7	[0, 0, 0]	n/a	FR1	1	R1415T
1101.829	1.617	1501512	WORD	n/a	wordpools/wordpool_long_EN.txt	CORD	2	7	[0, 0, 0]	n/a	FR1	1	R1415T
1103.446	0.967	1503131	WORD_OFF	n/a	n/a	CORD	2	7	[0, 0, 0]	n/a	FR1	1	R1415T
1104.413	1.6	1504105	WORD	n/a	wordpools/wordpool_long_EN.txt	BRICK	3	7	[0, 0, 0]	n/a	FR1	1	R1415T
1106.013	0.933	1505698	WORD_OFF	n/a	n/a	BRICK	3	7	[0, 0, 0]	n/a	FR1	1	R1415T
1106.946	1.617	1506631	WORD	n/a	wordpools/wordpool_long_EN.txt	BLUSH	4	7	[0, 0, 0]	n/a	FR1	1	R1415T
1108.563	0.816	1508250	WORD_OFF	n/a	n/a	BLUSH	4	7	[0, 0, 0]	n/a	FR1	1	R1415T
1109.379	1.6	1509065	WORD	n/a	wordpools/wordpool_long_EN.txt	HEDGE	5	7	[0, 0, 0]	n/a	FR1	1	R1415T
1110.979	0.983	1510665	WORD_OFF	n/a	n/a	HEDGE	5	7	[0, 0, 0]	n/a	FR1	1	R1415T
1111.962	1.601	1511647	WORD	n/a	wordpools/wordpool_long_EN.txt	ICE	6	7	[0, 0, 0]	n/a	FR1	1	R1415T
1113.563	0.966	1513248	WORD_OFF	n/a	n/a	ICE	6	7	[0, 0, 0]	n/a	FR1	1	R1415T
1114.529	1.617	1514212	WORD	n/a	wordpools/wordpool_long_EN.txt	THRONE	7	7	[0, 0, 0]	n/a	FR1	1	R1415T
1116.146	0.9	1515831	WORD_OFF	n/a	n/a	THRONE	7	7	[0, 0, 0]	n/a	FR1	1	R1415T
1117.046	1.616	1516729	WORD	n/a	wordpools/wordpool_long_EN.txt	TOAST	8	7	[0, 0, 0]	n/a	FR1	1	R1415T
1118.662	0.817	1518348	WORD_OFF	n/a	n/a	TOAST	8	7	[0, 0, 0]	n/a	FR1	1	R1415T
1119.479	1.6	1519162	WORD	n/a	wordpools/wordpool_long_EN.txt	CHEST	9	7	[0, 0, 0]	n/a	FR1	1	R1415T
1121.079	1.0	1520763	WORD_OFF	n/a	n/a	CHEST	9	7	[0, 0, 0]	n/a	FR1	1	R1415T
1122.079	1.616	1521764	WORD	n/a	wordpools/wordpool_long_EN.txt	SHIELD	10	7	[0, 0, 0]	n/a	FR1	1	R1415T
1123.695	0.934	1523383	WORD_OFF	n/a	n/a	SHIELD	10	7	[0, 0, 0]	n/a	FR1	1	R1415T
1124.629	1.6	1524319	WORD	n/a	wordpools/wordpool_long_EN.txt	SKUNK	11	7	[0, 0, 0]	n/a	FR1	1	R1415T
1126.229	0.767	1525919	WORD_OFF	n/a	n/a	SKUNK	11	7	[0, 0, 0]	n/a	FR1	1	R1415T
1126.996	1.616	1526677	WORD	n/a	wordpools/wordpool_long_EN.txt	GIRL	12	7	[0, 0, 0]	n/a	FR1	1	R1415T
1128.612	0.001	1528296	WORD_OFF	n/a	n/a	GIRL	12	7	[0, 0, 0]	n/a	FR1	1	R1415T
1128.613	0.001	1528299	PROB	0.001	n/a	n/a	-999	7	[6, 1, 4]	11	FR1	1	R1415T
1128.614	0.0	1528300	START	n/a	n/a	n/a	-999	7	[-999, -999, -999]	n/a	FR1	1	R1415T
1128.613	0.001	1528306	ENCODING_END	n/a	n/a	n/a	-999	7	[0, 0, 0]	n/a	FR1	1	R1415T
1128.614	4.365	1528306	DISTRACT_START	n/a	n/a	n/a	-999	7	[0, 0, 0]	n/a	FR1	1	R1415T
1132.979	5.35	1532664	PROB	5.35	n/a	n/a	-999	7	[5, 1, 4]	10	FR1	1	R1415T
1138.329	5.65	1538014	PROB	5.65	n/a	n/a	-999	7	[5, 3, 6]	14	FR1	1	R1415T
1143.979	3.483	1543664	PROB	3.483	n/a	n/a	-999	7	[6, 2, 2]	10	FR1	1	R1415T
1147.462	2.801	1547147	PROB	2.801	n/a	n/a	-999	7	[1, 4, 6]	11	FR1	1	R1415T
1150.263	0.0	1549947	STOP	n/a	n/a	n/a	-999	7	[-999, -999, -999]	n/a	FR1	1	R1415T
1150.263	1.033	1549952	DISTRACT_END	n/a	n/a	n/a	-999	7	[0, 0, 0]	n/a	FR1	1	R1415T
1151.296	6.203	1550981	REC_START	n/a	n/a	n/a	-999	7	[0, 0, 0]	n/a	FR1	1	R1415T
1157.499	6.451	1557183	REC_WORD	6.451	n/a	HOOD	1	7	[0, 0, 0]	n/a	FR1	1	R1415T
1163.95	12.489	1563634	REC_WORD	12.489	n/a	HEDGE	5	7	[0, 0, 0]	n/a	FR1	1	R1415T
1176.439	6.082	1576122	REC_WORD	6.082	n/a	GIRL	12	7	[0, 0, 0]	n/a	FR1	1	R1415T
1182.521	171.158	1582201	REC_END	n/a	n/a	n/a	-999	7	[0, 0, 0]	n/a	FR1	1	R1415T
1353.679	10.35	1753358	COUNTDOWN_START	n/a	n/a	n/a	-999	7	[0, 0, 0]	n/a	FR1	1	R1415T
1364.029	0.001	1763700	COUNTDOWN_END	n/a	n/a	n/a	-999	7	[0, 0, 0]	n/a	FR1	1	R1415T
1364.03	2.033	1763709	ENCODING_START	n/a	n/a	n/a	-999	8	[0, 0, 0]	n/a	FR1	1	R1415T
1366.063	1.6	1765740	WORD	n/a	wordpools/wordpool_long_EN.txt	CHIN	1	8	[0, 0, 0]	n/a	FR1	1	R1415T
1367.663	0.883	1767340	WORD_OFF	n/a	n/a	CHIN	1	8	[0, 0, 0]	n/a	FR1	1	R1415T
1368.546	1.6	1768220	WORD	n/a	wordpools/wordpool_long_EN.txt	MEAT	2	8	[0, 0, 0]	n/a	FR1	1	R1415T
1370.146	0.95	1769820	WORD_OFF	n/a	n/a	MEAT	2	8	[0, 0, 0]	n/a	FR1	1	R1415T
1371.096	1.6	1770765	WORD	n/a	wordpools/wordpool_long_EN.txt	PORK	3	8	[0, 0, 0]	n/a	FR1	1	R1415T
1372.696	0.8	1772366	WORD_OFF	n/a	n/a	PORK	3	8	[0, 0, 0]	n/a	FR1	1	R1415T
1373.496	1.6	1773170	WORD	n/a	wordpools/wordpool_long_EN.txt	YARD	4	8	[0, 0, 0]	n/a	FR1	1	R1415T
1375.096	0.867	1774771	WORD_OFF	n/a	n/a	YARD	4	8	[0, 0, 0]	n/a	FR1	1	R1415T
1375.963	1.6	1775635	WORD	n/a	wordpools/wordpool_long_EN.txt	GUARD	5	8	[0, 0, 0]	n/a	FR1	1	R1415T
1377.563	0.85	1777232	WORD_OFF	n/a	n/a	GUARD	5	8	[0, 0, 0]	n/a	FR1	1	R1415T
1378.413	1.6	1778084	WORD	n/a	wordpools/wordpool_long_EN.txt	SLIME	6	8	[0, 0, 0]	n/a	FR1	1	R1415T
1380.013	0.816	1779684	WORD_OFF	n/a	n/a	SLIME	6	8	[0, 0, 0]	n/a	FR1	1	R1415T
1380.829	1.617	1780507	WORD	n/a	wordpools/wordpool_long_EN.txt	BOARD	7	8	[0, 0, 0]	n/a	FR1	1	R1415T
1382.446	0.9	1782117	WORD_OFF	n/a	n/a	BOARD	7	8	[0, 0, 0]	n/a	FR1	1	R1415T
1383.346	1.6	1783015	WORD	n/a	wordpools/wordpool_long_EN.txt	COD	8	8	[0, 0, 0]	n/a	FR1	1	R1415T
1384.946	0.867	1784616	WORD_OFF	n/a	n/a	COD	8	8	[0, 0, 0]	n/a	FR1	1	R1415T
1385.813	1.6	1785486	WORD	n/a	wordpools/wordpool_long_EN.txt	SCOTCH	9	8	[0, 0, 0]	n/a	FR1	1	R1415T
1387.413	0.966	1787086	WORD_OFF	n/a	n/a	SCOTCH	9	8	[0, 0, 0]	n/a	FR1	1	R1415T
1388.379	1.6	1788050	WORD	n/a	wordpools/wordpool_long_EN.txt	TROUT	10	8	[0, 0, 0]	n/a	FR1	1	R1415T
1389.979	0.933	1789651	WORD_OFF	n/a	n/a	TROUT	10	8	[0, 0, 0]	n/a	FR1	1	R1415T
1390.912	1.616	1790586	WORD	n/a	wordpools/wordpool_long_EN.txt	NET	11	8	[0, 0, 0]	n/a	FR1	1	R1415T
1392.528	0.784	1792206	WORD_OFF	n/a	n/a	NET	11	8	[0, 0, 0]	n/a	FR1	1	R1415T
1393.312	1.6	1792982	WORD	n/a	wordpools/wordpool_long_EN.txt	STAIR	12	8	[0, 0, 0]	n/a	FR1	1	R1415T
1394.912	0.0	1794583	WORD_OFF	n/a	n/a	STAIR	12	8	[0, 0, 0]	n/a	FR1	1	R1415T
1394.912	0.002	1794584	PROB	0.002	n/a	n/a	-999	8	[6, 6, 7]	19	FR1	1	R1415T
1394.914	0.0	1794586	START	n/a	n/a	n/a	-999	8	[-999, -999, -999]	n/a	FR1	1	R1415T
1394.914	0.0	1794592	ENCODING_END	n/a	n/a	n/a	-999	8	[0, 0, 0]	n/a	FR1	1	R1415T
1394.914	6.148	1794592	DISTRACT_START	n/a	n/a	n/a	-999	8	[0, 0, 0]	n/a	FR1	1	R1415T
1401.062	4.6	1800734	PROB	4.6	n/a	n/a	-999	8	[3, 4, 3]	10	FR1	1	R1415T
1405.662	4.65	1805333	PROB	4.65	n/a	n/a	-999	8	[7, 4, 7]	18	FR1	1	R1415T
1410.312	3.75	1809983	PROB	3.75	n/a	n/a	-999	8	[6, 6, 3]	15	FR1	1	R1415T
1414.062	4.717	1813733	PROB	4.717	n/a	n/a	-999	8	[2, 4, 7]	13	FR1	1	R1415T
1418.779	0.0	1818447	DISTRACT_END	n/a	n/a	n/a	-999	8	[0, 0, 0]	n/a	FR1	1	R1415T
1418.779	1.283	1818450	STOP	n/a	n/a	n/a	-999	8	[-999, -999, -999]	n/a	FR1	1	R1415T
1420.062	4.461	1819738	REC_START	n/a	n/a	n/a	-999	8	[0, 0, 0]	n/a	FR1	1	R1415T
1424.523	7.703	1824193	REC_WORD	7.703	n/a	CHIN	1	8	[0, 0, 0]	n/a	FR1	1	R1415T
1432.226	15.995	1831896	REC_WORD	15.995	n/a	TROUT	10	8	[0, 0, 0]	n/a	FR1	1	R1415T
1448.221	3.035	1847890	REC_WORD	3.035	n/a	KITE	-999	8	[0, 0, 0]	n/a	FR1	1	R1415T
1451.256	5.007	1850930	REC_END	n/a	n/a	n/a	-999	8	[0, 0, 0]	n/a	FR1	1	R1415T
1456.263	10.35	1855937	COUNTDOWN_START	n/a	n/a	n/a	-999	8	[0, 0, 0]	n/a	FR1	1	R1415T
1466.613	0.001	1866287	COUNTDOWN_END	n/a	n/a	n/a	-999	8	[0, 0, 0]	n/a	FR1	1	R1415T
1466.614	1.814	1866287	ENCODING_START	n/a	n/a	n/a	-999	9	[0, 0, 0]	n/a	FR1	1	R1415T
1468.428	1.601	1868093	WORD	n/a	wordpools/wordpool_long_EN.txt	JAIL	1	9	[0, 0, 0]	n/a	FR1	1	R1415T
1470.029	0.967	1869694	WORD_OFF	n/a	n/a	JAIL	1	9	[0, 0, 0]	n/a	FR1	1	R1415T
1470.996	1.6	1870667	WORD	n/a	wordpools/wordpool_long_EN.txt	MUD	2	9	[0, 0, 0]	n/a	FR1	1	R1415T
1472.596	0.817	1872267	WORD_OFF	n/a	n/a	MUD	2	9	[0, 0, 0]	n/a	FR1	1	R1415T
1473.413	1.6	1873082	WORD	n/a	wordpools/wordpool_long_EN.txt	DITCH	3	9	[0, 0, 0]	n/a	FR1	1	R1415T
1475.013	0.966	1874682	WORD_OFF	n/a	n/a	DITCH	3	9	[0, 0, 0]	n/a	FR1	1	R1415T
1475.979	1.617	1875646	WORD	n/a	wordpools/wordpool_long_EN.txt	LEAF	4	9	[0, 0, 0]	n/a	FR1	1	R1415T
1477.596	0.767	1877265	WORD_OFF	n/a	n/a	LEAF	4	9	[0, 0, 0]	n/a	FR1	1	R1415T
1478.363	1.616	1878032	WORD	n/a	wordpools/wordpool_long_EN.txt	CLOCK	5	9	[0, 0, 0]	n/a	FR1	1	R1415T
1479.979	0.816	1879651	WORD_OFF	n/a	n/a	CLOCK	5	9	[0, 0, 0]	n/a	FR1	1	R1415T
1480.795	1.601	1880465	WORD	n/a	wordpools/wordpool_long_EN.txt	LODGE	6	9	[0, 0, 0]	n/a	FR1	1	R1415T
1482.396	0.8	1882066	WORD_OFF	n/a	n/a	LODGE	6	9	[0, 0, 0]	n/a	FR1	1	R1415T
1483.196	1.6	1882861	WORD	n/a	wordpools/wordpool_long_EN.txt	RUG	7	9	[0, 0, 0]	n/a	FR1	1	R1415T
1484.796	0.851	1884461	WORD_OFF	n/a	n/a	RUG	7	9	[0, 0, 0]	n/a	FR1	1	R1415T
1485.647	1.615	1885313	WORD	n/a	wordpools/wordpool_long_EN.txt	PASTE	8	9	[0, 0, 0]	n/a	FR1	1	R1415T
1487.262	0.834	1886932	WORD_OFF	n/a	n/a	PASTE	8	9	[0, 0, 0]	n/a	FR1	1	R1415T
1488.096	1.6	1887765	WORD	n/a	wordpools/wordpool_long_EN.txt	TENT	9	9	[0, 0, 0]	n/a	FR1	1	R1415T
1489.696	0.85	1889365	WORD_OFF	n/a	n/a	TENT	9	9	[0, 0, 0]	n/a	FR1	1	R1415T
1490.546	1.617	1890217	WORD	n/a	wordpools/wordpool_long_EN.txt	BLADE	10	9	[0, 0, 0]	n/a	FR1	1	R1415T
1492.163	0.883	1891827	WORD_OFF	n/a	n/a	BLADE	10	9	[0, 0, 0]	n/a	FR1	1	R1415T
1493.046	1.617	1892716	WORD	n/a	wordpools/wordpool_long_EN.txt	SUN	11	9	[0, 0, 0]	n/a	FR1	1	R1415T
1494.663	1.0	1894325	WORD_OFF	n/a	n/a	SUN	11	9	[0, 0, 0]	n/a	FR1	1	R1415T
1495.663	1.6	1895327	WORD	n/a	wordpools/wordpool_long_EN.txt	BAG	12	9	[0, 0, 0]	n/a	FR1	1	R1415T
1497.263	0.0	1896927	WORD_OFF	n/a	n/a	BAG	12	9	[0, 0, 0]	n/a	FR1	1	R1415T
1497.263	0.001	1896930	PROB	0.001	n/a	n/a	-999	9	[6, 6, 3]	15	FR1	1	R1415T
1497.264	0.0	1896931	START	n/a	n/a	n/a	-999	9	[-999, -999, -999]	n/a	FR1	1	R1415T
1497.264	0.0	1896936	ENCODING_END	n/a	n/a	n/a	-999	9	[0, 0, 0]	n/a	FR1	1	R1415T
1497.264	7.983	1896936	DISTRACT_START	n/a	n/a	n/a	-999	9	[0, 0, 0]	n/a	FR1	1	R1415T
1505.247	4.332	1904913	PROB	4.332	n/a	n/a	-999	9	[3, 4, 1]	8	FR1	1	R1415T
1509.579	4.183	1909245	PROB	4.183	n/a	n/a	-999	9	[1, 5, 3]	9	FR1	1	R1415T
1513.762	3.783	1913428	PROB	3.783	n/a	n/a	-999	9	[7, 4, 8]	19	FR1	1	R1415T
1517.545	0.0	1917211	STOP	n/a	n/a	n/a	-999	9	[-999, -999, -999]	n/a	FR1	1	R1415T
1517.545	1.068	1917216	DISTRACT_END	n/a	n/a	n/a	-999	9	[0, 0, 0]	n/a	FR1	1	R1415T
1518.613	5.66	1918283	REC_START	n/a	n/a	n/a	-999	9	[0, 0, 0]	n/a	FR1	1	R1415T
1524.273	9.066	1923938	REC_WORD	9.066	n/a	JAIL	1	9	[0, 0, 0]	n/a	FR1	1	R1415T
1533.339	11.725	1933004	REC_WORD	11.725	n/a	MUD	2	9	[0, 0, 0]	n/a	FR1	1	R1415T
1545.064	4.76	1944728	REC_WORD	4.76	n/a	GLIDE	-999	9	[0, 0, 0]	n/a	FR1	1	R1415T
1549.824	5.039	1949484	REC_END	n/a	n/a	n/a	-999	9	[0, 0, 0]	n/a	FR1	1	R1415T
1554.863	10.35	1954528	COUNTDOWN_START	n/a	n/a	n/a	-999	9	[0, 0, 0]	n/a	FR1	1	R1415T
1565.213	0.0	1964879	COUNTDOWN_END	n/a	n/a	n/a	-999	9	[0, 0, 0]	n/a	FR1	1	R1415T
1565.213	2.117	1964879	ENCODING_START	n/a	n/a	n/a	-999	10	[0, 0, 0]	n/a	FR1	1	R1415T
1567.33	1.599	1966994	WORD	n/a	wordpools/wordpool_long_EN.txt	HILL	1	10	[0, 0, 0]	n/a	FR1	1	R1415T
1568.929	0.985	1968594	WORD_OFF	n/a	n/a	HILL	1	10	[0, 0, 0]	n/a	FR1	1	R1415T
1569.914	1.615	1969577	WORD	n/a	wordpools/wordpool_long_EN.txt	STRAW	2	10	[0, 0, 0]	n/a	FR1	1	R1415T
1571.529	0.85	1971196	WORD_OFF	n/a	n/a	STRAW	2	10	[0, 0, 0]	n/a	FR1	1	R1415T
1572.379	1.6	1972038	WORD	n/a	wordpools/wordpool_long_EN.txt	SNAKE	3	10	[0, 0, 0]	n/a	FR1	1	R1415T
1573.979	0.85	1973638	WORD_OFF	n/a	n/a	SNAKE	3	10	[0, 0, 0]	n/a	FR1	1	R1415T
1574.829	1.6	1974490	WORD	n/a	wordpools/wordpool_long_EN.txt	TRIBE	4	10	[0, 0, 0]	n/a	FR1	1	R1415T
1576.429	0.85	1976090	WORD_OFF	n/a	n/a	TRIBE	4	10	[0, 0, 0]	n/a	FR1	1	R1415T
1577.279	1.617	1976942	WORD	n/a	wordpools/wordpool_long_EN.txt	BAR	5	10	[0, 0, 0]	n/a	FR1	1	R1415T
1578.896	0.932	1978561	WORD_OFF	n/a	n/a	BAR	5	10	[0, 0, 0]	n/a	FR1	1	R1415T
1579.828	1.601	1979488	WORD	n/a	wordpools/wordpool_long_EN.txt	CART	6	10	[0, 0, 0]	n/a	FR1	1	R1415T
1581.429	0.95	1981088	WORD_OFF	n/a	n/a	CART	6	10	[0, 0, 0]	n/a	FR1	1	R1415T
1582.379	1.616	1982042	WORD	n/a	wordpools/wordpool_long_EN.txt	SEA	7	10	[0, 0, 0]	n/a	FR1	1	R1415T
1583.995	1.0	1983661	WORD_OFF	n/a	n/a	SEA	7	10	[0, 0, 0]	n/a	FR1	1	R1415T
1584.995	1.6	1984663	WORD	n/a	wordpools/wordpool_long_EN.txt	FOOD	8	10	[0, 0, 0]	n/a	FR1	1	R1415T
1586.595	0.817	1986260	WORD_OFF	n/a	n/a	FOOD	8	10	[0, 0, 0]	n/a	FR1	1	R1415T
1587.412	1.617	1987077	WORD	n/a	wordpools/wordpool_long_EN.txt	BADGE	9	10	[0, 0, 0]	n/a	FR1	1	R1415T
1589.029	0.783	1988687	WORD_OFF	n/a	n/a	BADGE	9	10	[0, 0, 0]	n/a	FR1	1	R1415T
1589.812	1.6	1989473	WORD	n/a	wordpools/wordpool_long_EN.txt	STORM	10	10	[0, 0, 0]	n/a	FR1	1	R1415T
1591.412	0.867	1991073	WORD_OFF	n/a	n/a	STORM	10	10	[0, 0, 0]	n/a	FR1	1	R1415T
1592.279	1.6	1991944	WORD	n/a	wordpools/wordpool_long_EN.txt	WEB	11	10	[0, 0, 0]	n/a	FR1	1	R1415T
1593.879	0.983	1993544	WORD_OFF	n/a	n/a	WEB	11	10	[0, 0, 0]	n/a	FR1	1	R1415T
1594.862	1.601	1994527	WORD	n/a	wordpools/wordpool_long_EN.txt	JAR	12	10	[0, 0, 0]	n/a	FR1	1	R1415T
1596.463	0.0	1996125	START	n/a	n/a	n/a	-999	10	[-999, -999, -999]	n/a	FR1	1	R1415T
1596.463	0.0	1996125	PROB	0.0	n/a	n/a	-999	10	[6, 8, 4]	18	FR1	1	R1415T
1596.462	0.001	1996127	WORD_OFF	n/a	n/a	JAR	12	10	[0, 0, 0]	n/a	FR1	1	R1415T
1596.463	0.0	1996127	ENCODING_END	n/a	n/a	n/a	-999	10	[0, 0, 0]	n/a	FR1	1	R1415T
1596.463	5.483	1996127	DISTRACT_START	n/a	n/a	n/a	-999	10	[0, 0, 0]	n/a	FR1	1	R1415T
1601.946	3.65	2001607	PROB	3.65	n/a	n/a	-999	10	[5, 1, 6]	12	FR1	1	R1415T
1605.596	3.085	2005257	PROB	3.085	n/a	n/a	-999	10	[4, 6, 2]	12	FR1	1	R1415T
1608.681	4.098	2008342	PROB	4.098	n/a	n/a	-999	10	[8, 2, 8]	18	FR1	1	R1415T
1612.779	9.034	2012440	PROB	9.034	n/a	n/a	-999	10	[4, 1, 3]	9	FR1	1	R1415T
1621.813	0.0	2021470	DISTRACT_END	n/a	n/a	n/a	-999	10	[0, 0, 0]	n/a	FR1	1	R1415T
1621.813	1.016	2021473	STOP	n/a	n/a	n/a	-999	10	[-999, -999, -999]	n/a	FR1	1	R1415T
1622.829	2.305	2022490	REC_START	n/a	n/a	n/a	-999	10	[0, 0, 0]	n/a	FR1	1	R1415T
1625.134	2.681	2024794	REC_WORD_VV	2.681	n/a	<>	-999	10	[0, 0, 0]	n/a	FR1	1	R1415T
1627.815	1.579	2027475	REC_WORD_VV	1.579	n/a	<>	-999	10	[0, 0, 0]	n/a	FR1	1	R1415T
1629.394	1.813	2029054	REC_WORD_VV	1.813	n/a	<>	-999	10	[0, 0, 0]	n/a	FR1	1	R1415T
1631.207	1.443	2030867	REC_WORD_VV	1.443	n/a	<>	-999	10	[0, 0, 0]	n/a	FR1	1	R1415T
1632.65	7.33	2032310	REC_WORD	7.33	n/a	HILL	1	10	[0, 0, 0]	n/a	FR1	1	R1415T
1639.98	7.66	2039639	REC_WORD	7.66	n/a	BUG	-999	10	[0, 0, 0]	n/a	FR1	1	R1415T
1647.64	6.389	2047299	REC_WORD	6.389	n/a	WEDGE	-999	10	[0, 0, 0]	n/a	FR1	1	R1415T
1654.029	4.716	2053691	REC_END	n/a	n/a	n/a	-999	10	[0, 0, 0]	n/a	FR1	1	R1415T
1658.745	10.351	2058408	COUNTDOWN_START	n/a	n/a	n/a	-999	10	[0, 0, 0]	n/a	FR1	1	R1415T
1669.096	0.001	2068758	COUNTDOWN_END	n/a	n/a	n/a	-999	10	[0, 0, 0]	n/a	FR1	1	R1415T
1669.097	2.082	2068758	ENCODING_START	n/a	n/a	n/a	-999	11	[0, 0, 0]	n/a	FR1	1	R1415T
1671.179	1.617	2070836	WORD	n/a	wordpools/wordpool_long_EN.txt	BEAST	1	11	[0, 0, 0]	n/a	FR1	1	R1415T
1672.796	0.9	2072455	WORD_OFF	n/a	n/a	BEAST	1	11	[0, 0, 0]	n/a	FR1	1	R1415T
1673.696	1.6	2073353	WORD	n/a	wordpools/wordpool_long_EN.txt	INK	2	11	[0, 0, 0]	n/a	FR1	1	R1415T
1675.296	0.967	2074953	WORD_OFF	n/a	n/a	INK	2	11	[0, 0, 0]	n/a	FR1	1	R1415T
1676.263	1.616	2075917	WORD	n/a	wordpools/wordpool_long_EN.txt	SMOKE	3	11	[0, 0, 0]	n/a	FR1	1	R1415T
1677.879	0.834	2077536	WORD_OFF	n/a	n/a	SMOKE	3	11	[0, 0, 0]	n/a	FR1	1	R1415T
1678.713	1.6	2078369	WORD	n/a	wordpools/wordpool_long_EN.txt	HAT	4	11	[0, 0, 0]	n/a	FR1	1	R1415T
1680.313	0.8	2079970	WORD_OFF	n/a	n/a	HAT	4	11	[0, 0, 0]	n/a	FR1	1	R1415T
1681.113	1.616	2080774	WORD	n/a	wordpools/wordpool_long_EN.txt	SPARK	5	11	[0, 0, 0]	n/a	FR1	1	R1415T
1682.729	0.917	2082384	WORD_OFF	n/a	n/a	SPARK	5	11	[0, 0, 0]	n/a	FR1	1	R1415T
1683.646	1.601	2083301	WORD	n/a	wordpools/wordpool_long_EN.txt	SALT	6	11	[0, 0, 0]	n/a	FR1	1	R1415T
1685.247	0.849	2084901	WORD_OFF	n/a	n/a	SALT	6	11	[0, 0, 0]	n/a	FR1	1	R1415T
1686.096	1.6	2085753	WORD	n/a	wordpools/wordpool_long_EN.txt	BOMB	7	11	[0, 0, 0]	n/a	FR1	1	R1415T
1687.696	0.817	2087353	WORD_OFF	n/a	n/a	BOMB	7	11	[0, 0, 0]	n/a	FR1	1	R1415T
1688.513	1.615	2088168	WORD	n/a	wordpools/wordpool_long_EN.txt	MAIL	8	11	[0, 0, 0]	n/a	FR1	1	R1415T
1690.128	0.884	2089787	WORD_OFF	n/a	n/a	MAIL	8	11	[0, 0, 0]	n/a	FR1	1	R1415T
1691.012	1.6	2090666	WORD	n/a	wordpools/wordpool_long_EN.txt	CLOWN	9	11	[0, 0, 0]	n/a	FR1	1	R1415T
1692.612	0.95	2092267	WORD_OFF	n/a	n/a	CLOWN	9	11	[0, 0, 0]	n/a	FR1	1	R1415T
1693.562	1.6	2093221	WORD	n/a	wordpools/wordpool_long_EN.txt	CLAM	10	11	[0, 0, 0]	n/a	FR1	1	R1415T
1695.162	0.867	2094821	WORD_OFF	n/a	n/a	CLAM	10	11	[0, 0, 0]	n/a	FR1	1	R1415T
1696.029	1.617	2095682	WORD	n/a	wordpools/wordpool_long_EN.txt	PLATE	11	11	[0, 0, 0]	n/a	FR1	1	R1415T
1697.646	0.783	2097301	WORD_OFF	n/a	n/a	PLATE	11	11	[0, 0, 0]	n/a	FR1	1	R1415T
1698.429	1.6	2098088	WORD	n/a	wordpools/wordpool_long_EN.txt	LINT	12	11	[0, 0, 0]	n/a	FR1	1	R1415T
1700.029	0.002	2099685	PROB	0.002	n/a	n/a	-999	11	[1, 6, 5]	12	FR1	1	R1415T
1700.031	0.0	2099687	START	n/a	n/a	n/a	-999	11	[-999, -999, -999]	n/a	FR1	1	R1415T
1700.03	0.001	2099688	WORD_OFF	n/a	n/a	LINT	12	11	[0, 0, 0]	n/a	FR1	1	R1415T
1700.031	0.0	2099688	ENCODING_END	n/a	n/a	n/a	-999	11	[0, 0, 0]	n/a	FR1	1	R1415T
1700.031	5.566	2099688	DISTRACT_START	n/a	n/a	n/a	-999	11	[0, 0, 0]	n/a	FR1	1	R1415T
1705.597	4.65	2105253	PROB	4.65	n/a	n/a	-999	11	[4, 4, 8]	16	FR1	1	R1415T
1710.247	3.083	2109903	PROB	3.083	n/a	n/a	-999	11	[7, 1, 2]	10	FR1	1	R1415T
1713.33	3.783	2112986	PROB	3.783	n/a	n/a	-999	11	[3, 8, 2]	13	FR1	1	R1415T
1717.113	3.583	2116768	PROB	3.583	n/a	n/a	-999	11	[1, 8, 3]	12	FR1	1	R1415T
1720.696	0.0	2120351	DISTRACT_END	n/a	n/a	n/a	-999	11	[0, 0, 0]	n/a	FR1	1	R1415T
1720.696	1.317	2120351	STOP	n/a	n/a	n/a	-999	11	[-999, -999, -999]	n/a	FR1	1	R1415T
1722.013	29.999	2121671	REC_START	n/a	n/a	n/a	-999	11	[0, 0, 0]	n/a	FR1	1	R1415T
1752.012	1.215	2151666	REC_WORD_VV	1.215	n/a	<>	-999	11	[0, 0, 0]	n/a	FR1	1	R1415T
1753.227	6.919	2152882	REC_END	n/a	n/a	n/a	-999	11	[0, 0, 0]	n/a	FR1	1	R1415T
1760.146	10.35	2159797	COUNTDOWN_START	n/a	n/a	n/a	-999	11	[0, 0, 0]	n/a	FR1	1	R1415T
1770.496	0.0	2170148	COUNTDOWN_END	n/a	n/a	n/a	-999	11	[0, 0, 0]	n/a	FR1	1	R1415T
1770.496	2.133	2170148	ENCODING_START	n/a	n/a	n/a	-999	12	[0, 0, 0]	n/a	FR1	1	R1415T
1772.629	1.616	2172282	WORD	n/a	wordpools/wordpool_long_EN.txt	MUG	1	12	[0, 0, 0]	n/a	FR1	1	R1415T
1774.245	0.834	2173901	WORD_OFF	n/a	n/a	MUG	1	12	[0, 0, 0]	n/a	FR1	1	R1415T
1775.079	1.616	2174734	WORD	n/a	wordpools/wordpool_long_EN.txt	SPONGE	2	12	[0, 0, 0]	n/a	FR1	1	R1415T
1776.695	0.8	2176353	WORD_OFF	n/a	n/a	SPONGE	2	12	[0, 0, 0]	n/a	FR1	1	R1415T
1777.495	1.617	2177148	WORD	n/a	wordpools/wordpool_long_EN.txt	PAIL	3	12	[0, 0, 0]	n/a	FR1	1	R1415T
1779.112	0.866	2178767	WORD_OFF	n/a	n/a	PAIL	3	12	[0, 0, 0]	n/a	FR1	1	R1415T
1779.978	1.601	2179628	WORD	n/a	wordpools/wordpool_long_EN.txt	SNACK	4	12	[0, 0, 0]	n/a	FR1	1	R1415T
1781.579	0.933	2181228	WORD_OFF	n/a	n/a	SNACK	4	12	[0, 0, 0]	n/a	FR1	1	R1415T
1782.512	1.601	2182164	WORD	n/a	wordpools/wordpool_long_EN.txt	CASH	5	12	[0, 0, 0]	n/a	FR1	1	R1415T
1784.113	0.833	2183764	WORD_OFF	n/a	n/a	CASH	5	12	[0, 0, 0]	n/a	FR1	1	R1415T
1784.946	1.6	2184597	WORD	n/a	wordpools/wordpool_long_EN.txt	CHALK	6	12	[0, 0, 0]	n/a	FR1	1	R1415T
1786.546	0.784	2186198	WORD_OFF	n/a	n/a	CHALK	6	12	[0, 0, 0]	n/a	FR1	1	R1415T
1787.33	1.616	2186984	WORD	n/a	wordpools/wordpool_long_EN.txt	WING	7	12	[0, 0, 0]	n/a	FR1	1	R1415T
1788.946	0.884	2188603	WORD_OFF	n/a	n/a	WING	7	12	[0, 0, 0]	n/a	FR1	1	R1415T
1789.83	1.616	2189483	WORD	n/a	wordpools/wordpool_long_EN.txt	BOWL	8	12	[0, 0, 0]	n/a	FR1	1	R1415T
1791.446	1.0	2191102	WORD_OFF	n/a	n/a	BOWL	8	12	[0, 0, 0]	n/a	FR1	1	R1415T
1792.446	1.616	2192094	WORD	n/a	wordpools/wordpool_long_EN.txt	SKATE	9	12	[0, 0, 0]	n/a	FR1	1	R1415T
1794.062	0.983	2193713	WORD_OFF	n/a	n/a	SKATE	9	12	[0, 0, 0]	n/a	FR1	1	R1415T
1795.045	1.601	2194695	WORD	n/a	wordpools/wordpool_long_EN.txt	FACE	10	12	[0, 0, 0]	n/a	FR1	1	R1415T
1796.646	0.783	2196296	WORD_OFF	n/a	n/a	FACE	10	12	[0, 0, 0]	n/a	FR1	1	R1415T
1797.429	1.6	2197082	WORD	n/a	wordpools/wordpool_long_EN.txt	SOAP	11	12	[0, 0, 0]	n/a	FR1	1	R1415T
1799.029	0.917	2198682	WORD_OFF	n/a	n/a	SOAP	11	12	[0, 0, 0]	n/a	FR1	1	R1415T
1799.946	1.6	2199599	WORD	n/a	wordpools/wordpool_long_EN.txt	STEAM	12	12	[0, 0, 0]	n/a	FR1	1	R1415T
1801.546	0.0	2201197	PROB	0.0	n/a	n/a	-999	12	[8, 6, 8]	22	FR1	1	R1415T
1801.546	0.002	2201199	WORD_OFF	n/a	n/a	STEAM	12	12	[0, 0, 0]	n/a	FR1	1	R1415T
1801.548	0.001	2201199	ENCODING_END	n/a	n/a	n/a	-999	12	[0, 0, 0]	n/a	FR1	1	R1415T
1801.549	0.0	2201199	DISTRACT_START	n/a	n/a	n/a	-999	12	[0, 0, 0]	n/a	FR1	1	R1415T
1801.549	5.264	2201200	START	n/a	n/a	n/a	-999	12	[-999, -999, -999]	n/a	FR1	1	R1415T
1806.813	4.75	2206464	PROB	4.75	n/a	n/a	-999	12	[4, 5, 8]	17	FR1	1	R1415T
1811.563	4.533	2211213	PROB	4.533	n/a	n/a	-999	12	[7, 5, 7]	19	FR1	1	R1415T
1816.096	3.467	2215746	PROB	3.467	n/a	n/a	-999	12	[5, 5, 5]	15	FR1	1	R1415T
1819.563	5.5	2219213	PROB	5.5	n/a	n/a	-999	12	[6, 8, 6]	20	FR1	1	R1415T
1825.063	0.0	2224713	STOP	n/a	n/a	n/a	-999	12	[-999, -999, -999]	n/a	FR1	1	R1415T
1825.063	1.333	2224717	DISTRACT_END	n/a	n/a	n/a	-999	12	[0, 0, 0]	n/a	FR1	1	R1415T
1826.396	7.248	2226046	REC_START	n/a	n/a	n/a	-999	12	[0, 0, 0]	n/a	FR1	1	R1415T
1833.644	23.965	2233293	REC_WORD	23.965	n/a	PAIL	3	12	[0, 0, 0]	n/a	FR1	1	R1415T
1857.609	0.0	2257257	REC_END	n/a	n/a	n/a	-999	12	[0, 0, 0]	n/a	FR1	1	R1415T
