onset	duration	sample	trial_type	response_time	stim_file	item_name	serialpos	list	test	answer	experiment	session	subject
0.0	783.685	-1	INSTRUCT_START	n/a	n/a	n/a	-999	-999	[0, 0, 0]	n/a	FR1	0	R1321M
783.685	222.857	601	INSTRUCT_START	n/a	n/a	n/a	-999	-999	[0, 0, 0]	n/a	FR1	0	R1321M
1006.542	2.801	223446	INSTRUCT_END	n/a	n/a	n/a	-999	-999	[0, 0, 0]	n/a	FR1	0	R1321M
1009.343	7.717	226247	MIC TEST_START	n/a	n/a	n/a	-999	-999	[0, 0, 0]	n/a	FR1	0	R1321M
1017.06	0.01	233964	MIC TEST_END	n/a	n/a	n/a	-999	-999	[0, 0, 0]	n/a	FR1	0	R1321M
1017.07	0.0	233974	TRIAL_START	n/a	n/a	n/a	-999	-1	[0, 0, 0]	n/a	FR1	0	R1321M
1017.07	0.0	233974	TRIAL	n/a	n/a	n/a	-999	-1	[0, 0, 0]	n/a	FR1	0	R1321M
1017.07	6.526	233974	WAITING_START	n/a	n/a	n/a	-999	-1	[0, 0, 0]	n/a	FR1	0	R1321M
1023.596	0.0	240500	COUNTDOWN_START	n/a	n/a	n/a	-999	-1	[0, 0, 0]	n/a	FR1	0	R1321M
1023.596	10.43	240500	WAITING_END	n/a	n/a	n/a	-999	-1	[0, 0, 0]	n/a	FR1	0	R1321M
1034.026	0.0	250929	COUNTDOWN_END	n/a	n/a	n/a	-999	-1	[0, 0, 0]	n/a	FR1	0	R1321M
1034.026	1.138	250929	ORIENT_START	n/a	n/a	n/a	-999	-1	[0, 0, 0]	n/a	FR1	0	R1321M
1035.164	0.0	252067	ORIENT_END	n/a	n/a	n/a	-999	-1	[0, 0, 0]	n/a	FR1	0	R1321M
1035.164	1.033	252067	ENCODING_START	n/a	n/a	n/a	-999	-1	[0, 0, 0]	n/a	FR1	0	R1321M
1036.197	1.618	253100	WORD	n/a	n/a	BEAM	1	-1	[0, 0, 0]	n/a	FR1	0	R1321M
1037.815	1.15	254718	WORD_OFF	n/a	n/a	BEAM	1	-1	[0, 0, 0]	n/a	FR1	0	R1321M
1038.965	1.634	255868	WORD	n/a	n/a	WATCH	2	-1	[0, 0, 0]	n/a	FR1	0	R1321M
1040.599	1.04	257502	WORD_OFF	n/a	n/a	WATCH	2	-1	[0, 0, 0]	n/a	FR1	0	R1321M
1041.639	1.627	258542	WORD	n/a	n/a	RING	3	-1	[0, 0, 0]	n/a	FR1	0	R1321M
1043.266	1.035	260169	WORD_OFF	n/a	n/a	RING	3	-1	[0, 0, 0]	n/a	FR1	0	R1321M
1044.301	1.616	261203	WORD	n/a	n/a	CHEST	4	-1	[0, 0, 0]	n/a	FR1	0	R1321M
1045.917	0.772	262819	WORD_OFF	n/a	n/a	CHEST	4	-1	[0, 0, 0]	n/a	FR1	0	R1321M
1046.689	1.628	263591	WORD	n/a	n/a	BABY	5	-1	[0, 0, 0]	n/a	FR1	0	R1321M
1048.317	0.764	265219	WORD_OFF	n/a	n/a	BABY	5	-1	[0, 0, 0]	n/a	FR1	0	R1321M
1049.081	1.637	265983	WORD	n/a	n/a	IMAGE	6	-1	[0, 0, 0]	n/a	FR1	0	R1321M
1050.718	0.972	267620	WORD_OFF	n/a	n/a	IMAGE	6	-1	[0, 0, 0]	n/a	FR1	0	R1321M
1051.69	1.628	268592	WORD	n/a	n/a	WAGON	7	-1	[0, 0, 0]	n/a	FR1	0	R1321M
1053.318	0.947	270220	WORD_OFF	n/a	n/a	WAGON	7	-1	[0, 0, 0]	n/a	FR1	0	R1321M
1054.265	1.637	271167	WORD	n/a	n/a	FLOOD	8	-1	[0, 0, 0]	n/a	FR1	0	R1321M
1055.902	0.809	272804	WORD_OFF	n/a	n/a	FLOOD	8	-1	[0, 0, 0]	n/a	FR1	0	R1321M
1056.711	1.624	273613	WORD	n/a	n/a	CAMEL	9	-1	[0, 0, 0]	n/a	FR1	0	R1321M
1058.335	1.117	275237	WORD_OFF	n/a	n/a	CAMEL	9	-1	[0, 0, 0]	n/a	FR1	0	R1321M
1059.452	1.634	276354	WORD	n/a	n/a	TONGUE	10	-1	[0, 0, 0]	n/a	FR1	0	R1321M
1061.086	1.025	277988	WORD_OFF	n/a	n/a	TONGUE	10	-1	[0, 0, 0]	n/a	FR1	0	R1321M
1062.111	1.609	279013	WORD	n/a	n/a	COTTON	11	-1	[0, 0, 0]	n/a	FR1	0	R1321M
1063.72	0.992	280621	WORD_OFF	n/a	n/a	COTTON	11	-1	[0, 0, 0]	n/a	FR1	0	R1321M
1064.712	1.625	281613	WORD	n/a	n/a	RHINO	12	-1	[0, 0, 0]	n/a	FR1	0	R1321M
1066.337	0.0	283238	ENCODING_END	n/a	n/a	n/a	-999	-1	[0, 0, 0]	n/a	FR1	0	R1321M
1066.337	0.001	283238	WORD_OFF	n/a	n/a	RHINO	12	-1	[0, 0, 0]	n/a	FR1	0	R1321M
1066.338	0.0	283239	DISTRACT_START	n/a	n/a	n/a	-999	-1	[0, 0, 0]	n/a	FR1	0	R1321M
1066.338	0.015	283239	START	n/a	n/a	n/a	-999	-1	[-999, -999, -999]	n/a	FR1	0	R1321M
1066.353	6.085	283254	PROB	6.085	n/a	n/a	-999	-1	[2, 7, 5]	14	FR1	0	R1321M
1072.438	4.017	289339	PROB	4.017	n/a	n/a	-999	-1	[4, 2, 1]	7	FR1	0	R1321M
1076.455	4.018	293356	PROB	4.018	n/a	n/a	-999	-1	[1, 2, 9]	12	FR1	0	R1321M
1080.473	5.402	297374	PROB	5.402	n/a	n/a	-999	-1	[9, 4, 7]	20	FR1	0	R1321M
1085.875	5.0	302775	PROB	5.0	n/a	n/a	-999	-1	[6, 8, 4]	18	FR1	0	R1321M
1090.875	0.018	307775	STOP	n/a	n/a	n/a	-999	-1	[-999, -999, -999]	n/a	FR1	0	R1321M
1090.893	0.541	307793	DISTRACT_END	n/a	n/a	n/a	-999	-1	[0, 0, 0]	n/a	FR1	0	R1321M
1091.434	1.725	308334	RETRIEVAL_ORIENT_START	n/a	n/a	n/a	-999	-1	[0, 0, 0]	n/a	FR1	0	R1321M
1093.159	0.0	310059	RETRIEVAL_ORIENT_END	n/a	n/a	n/a	-999	-1	[0, 0, 0]	n/a	FR1	0	R1321M
1093.159	2.458	310059	REC_START	n/a	n/a	n/a	-999	-1	[0, 0, 0]	n/a	FR1	0	R1321M
1095.617	1.217	312517	REC_WORD	1.217	n/a	WATCH	-999	-1	[0, 0, 0]	n/a	FR1	0	R1321M
1096.834	2.687	313734	REC_WORD	2.687	n/a	CHEST	-999	-1	[0, 0, 0]	n/a	FR1	0	R1321M
1099.521	1.713	316421	REC_WORD	1.713	n/a	BABY	-999	-1	[0, 0, 0]	n/a	FR1	0	R1321M
1101.234	10.575	318134	REC_WORD	10.575	n/a	BEAM	-999	-1	[0, 0, 0]	n/a	FR1	0	R1321M
1111.809	3.887	328708	REC_WORD	3.887	n/a	RING	-999	-1	[0, 0, 0]	n/a	FR1	0	R1321M
1115.696	3.271	332595	REC_WORD	3.271	n/a	COTTON	-999	-1	[0, 0, 0]	n/a	FR1	0	R1321M
1118.967	4.205	335866	REC_WORD	4.205	n/a	TONGUE	-999	-1	[0, 0, 0]	n/a	FR1	0	R1321M
1123.172	0.0	340070	REC_END	n/a	n/a	n/a	-999	-1	[0, 0, 0]	n/a	FR1	0	R1321M
1123.172	9.412	340070	PRACTICE_POST_INSTRUCT_START	n/a	n/a	n/a	-999	-1	[0, 0, 0]	n/a	FR1	0	R1321M
1132.584	0.0	349482	PRACTICE_POST_INSTRUCT_END	n/a	n/a	n/a	-999	-1	[0, 0, 0]	n/a	FR1	0	R1321M
1132.584	0.016	349482	TRIAL_END	n/a	n/a	n/a	-999	-1	[0, 0, 0]	n/a	FR1	0	R1321M
1132.6	0.001	349498	TRIAL_START	n/a	n/a	n/a	-999	1	[0, 0, 0]	n/a	FR1	0	R1321M
1132.601	0.0	349499	WAITING_START	n/a	n/a	n/a	-999	1	[0, 0, 0]	n/a	FR1	0	R1321M
1132.601	4.3	349499	TRIAL	n/a	n/a	n/a	-999	1	[0, 0, 0]	n/a	FR1	0	R1321M
1136.901	0.001	353799	WAITING_END	n/a	n/a	n/a	-999	1	[0, 0, 0]	n/a	FR1	0	R1321M
1136.902	10.429	353800	COUNTDOWN_START	n/a	n/a	n/a	-999	1	[0, 0, 0]	n/a	FR1	0	R1321M
1147.331	0.0	364228	COUNTDOWN_END	n/a	n/a	n/a	-999	1	[0, 0, 0]	n/a	FR1	0	R1321M
1147.331	1.222	364228	ORIENT_START	n/a	n/a	n/a	-999	1	[0, 0, 0]	n/a	FR1	0	R1321M
1148.553	0.0	365450	ORIENT_END	n/a	n/a	n/a	-999	1	[0, 0, 0]	n/a	FR1	0	R1321M
1148.553	0.899	365450	ENCODING_START	n/a	n/a	n/a	-999	1	[0, 0, 0]	n/a	FR1	0	R1321M
1149.452	1.635	366349	WORD	n/a	wordpools/wordpool_EN.txt	HORSE	1	1	[0, 0, 0]	n/a	FR1	0	R1321M
1151.087	0.935	367984	WORD_OFF	n/a	n/a	HORSE	1	1	[0, 0, 0]	n/a	FR1	0	R1321M
1152.022	1.632	368919	WORD	n/a	wordpools/wordpool_EN.txt	STEAM	2	1	[0, 0, 0]	n/a	FR1	0	R1321M
1153.654	1.085	370551	WORD_OFF	n/a	n/a	STEAM	2	1	[0, 0, 0]	n/a	FR1	0	R1321M
1154.739	1.632	371636	WORD	n/a	wordpools/wordpool_EN.txt	SEED	3	1	[0, 0, 0]	n/a	FR1	0	R1321M
1156.371	1.013	373268	WORD_OFF	n/a	n/a	SEED	3	1	[0, 0, 0]	n/a	FR1	0	R1321M
1157.384	1.637	374281	WORD	n/a	wordpools/wordpool_EN.txt	VASE	4	1	[0, 0, 0]	n/a	FR1	0	R1321M
1159.021	0.836	375918	WORD_OFF	n/a	n/a	VASE	4	1	[0, 0, 0]	n/a	FR1	0	R1321M
1159.857	1.632	376754	WORD	n/a	wordpools/wordpool_EN.txt	WORLD	5	1	[0, 0, 0]	n/a	FR1	0	R1321M
1161.489	1.09	378386	WORD_OFF	n/a	n/a	WORLD	5	1	[0, 0, 0]	n/a	FR1	0	R1321M
1162.579	1.627	379476	WORD	n/a	wordpools/wordpool_EN.txt	TRASH	6	1	[0, 0, 0]	n/a	FR1	0	R1321M
1164.206	1.144	381102	WORD_OFF	n/a	n/a	TRASH	6	1	[0, 0, 0]	n/a	FR1	0	R1321M
1165.35	1.624	382246	WORD	n/a	wordpools/wordpool_EN.txt	STEM	7	1	[0, 0, 0]	n/a	FR1	0	R1321M
1166.974	0.901	383870	WORD_OFF	n/a	n/a	STEM	7	1	[0, 0, 0]	n/a	FR1	0	R1321M
1167.875	1.632	384771	WORD	n/a	wordpools/wordpool_EN.txt	FLAME	8	1	[0, 0, 0]	n/a	FR1	0	R1321M
1169.507	0.999	386403	WORD_OFF	n/a	n/a	FLAME	8	1	[0, 0, 0]	n/a	FR1	0	R1321M
1170.506	1.635	387402	WORD	n/a	wordpools/wordpool_EN.txt	LEAF	9	1	[0, 0, 0]	n/a	FR1	0	R1321M
1172.141	0.761	389037	WORD_OFF	n/a	n/a	LEAF	9	1	[0, 0, 0]	n/a	FR1	0	R1321M
1172.902	1.622	389798	WORD	n/a	wordpools/wordpool_EN.txt	CHIEF	10	1	[0, 0, 0]	n/a	FR1	0	R1321M
1174.524	0.978	391420	WORD_OFF	n/a	n/a	CHIEF	10	1	[0, 0, 0]	n/a	FR1	0	R1321M
1175.502	1.623	392398	WORD	n/a	wordpools/wordpool_EN.txt	HOLE	11	1	[0, 0, 0]	n/a	FR1	0	R1321M
1177.125	0.8	394021	WORD_OFF	n/a	n/a	HOLE	11	1	[0, 0, 0]	n/a	FR1	0	R1321M
1177.925	1.634	394821	WORD	n/a	wordpools/wordpool_EN.txt	LOCK	12	1	[0, 0, 0]	n/a	FR1	0	R1321M
1179.559	0.0	396455	WORD_OFF	n/a	n/a	LOCK	12	1	[0, 0, 0]	n/a	FR1	0	R1321M
1179.559	0.0	396455	ENCODING_END	n/a	n/a	n/a	-999	1	[0, 0, 0]	n/a	FR1	0	R1321M
1179.559	0.001	396455	DISTRACT_START	n/a	n/a	n/a	-999	1	[0, 0, 0]	n/a	FR1	0	R1321M
1179.56	0.015	396456	START	n/a	n/a	n/a	-999	1	[-999, -999, -999]	n/a	FR1	0	R1321M
1179.575	5.551	396471	PROB	5.551	n/a	n/a	-999	1	[3, 9, 4]	16	FR1	0	R1321M
1185.126	5.786	402021	PROB	5.786	n/a	n/a	-999	1	[9, 8, 1]	18	FR1	0	R1321M
1190.912	3.216	407807	PROB	3.216	n/a	n/a	-999	1	[6, 4, 2]	12	FR1	0	R1321M
1194.128	4.334	411023	PROB	4.334	n/a	n/a	-999	1	[9, 9, 1]	19	FR1	0	R1321M
1198.462	4.037	415357	PROB	4.037	n/a	n/a	-999	1	[4, 1, 4]	9	FR1	0	R1321M
1202.499	0.014	419393	STOP	n/a	n/a	n/a	-999	1	[-999, -999, -999]	n/a	FR1	0	R1321M
1202.513	0.567	419407	DISTRACT_END	n/a	n/a	n/a	-999	1	[0, 0, 0]	n/a	FR1	0	R1321M
1203.08	1.584	419974	RETRIEVAL_ORIENT_START	n/a	n/a	n/a	-999	1	[0, 0, 0]	n/a	FR1	0	R1321M
1204.664	0.0	421558	RETRIEVAL_ORIENT_END	n/a	n/a	n/a	-999	1	[0, 0, 0]	n/a	FR1	0	R1321M
1204.664	1.745	421558	REC_START	n/a	n/a	n/a	-999	1	[0, 0, 0]	n/a	FR1	0	R1321M
1206.409	0.264	423303	REC_WORD_VV	0.264	n/a	<>	-999	1	[0, 0, 0]	n/a	FR1	0	R1321M
1206.673	4.801	423567	REC_WORD	4.801	n/a	LEAF	9	1	[0, 0, 0]	n/a	FR1	0	R1321M
1211.474	0.787	428368	REC_WORD	0.787	n/a	KEY	-999	1	[0, 0, 0]	n/a	FR1	0	R1321M
1212.261	2.936	429155	REC_WORD	2.936	n/a	HOLE	11	1	[0, 0, 0]	n/a	FR1	0	R1321M
1215.197	1.034	432091	REC_WORD	1.034	n/a	STEAM	2	1	[0, 0, 0]	n/a	FR1	0	R1321M
1216.231	9.821	433125	REC_WORD	9.821	n/a	FLAME	8	1	[0, 0, 0]	n/a	FR1	0	R1321M
1226.052	8.625	442945	REC_WORD	8.625	n/a	VASE	4	1	[0, 0, 0]	n/a	FR1	0	R1321M
1234.677	0.001	451570	REC_END	n/a	n/a	n/a	-999	1	[0, 0, 0]	n/a	FR1	0	R1321M
1234.678	0.014	451571	TRIAL_END	n/a	n/a	n/a	-999	1	[0, 0, 0]	n/a	FR1	0	R1321M
1234.692	0.0	451585	WAITING_START	n/a	n/a	n/a	-999	2	[0, 0, 0]	n/a	FR1	0	R1321M
1234.692	0.0	451585	TRIAL_START	n/a	n/a	n/a	-999	2	[0, 0, 0]	n/a	FR1	0	R1321M
1234.692	688.161	451585	TRIAL	n/a	n/a	n/a	-999	2	[0, 0, 0]	n/a	FR1	0	R1321M
1922.853	0.0	1139711	WAITING_END	n/a	n/a	n/a	-999	2	[0, 0, 0]	n/a	FR1	0	R1321M
1922.853	10.428	1139711	COUNTDOWN_START	n/a	n/a	n/a	-999	2	[0, 0, 0]	n/a	FR1	0	R1321M
1933.281	0.001	1150139	COUNTDOWN_END	n/a	n/a	n/a	-999	2	[0, 0, 0]	n/a	FR1	0	R1321M
1933.282	1.089	1150140	ORIENT_START	n/a	n/a	n/a	-999	2	[0, 0, 0]	n/a	FR1	0	R1321M
1934.371	0.0	1151229	ENCODING_START	n/a	n/a	n/a	-999	2	[0, 0, 0]	n/a	FR1	0	R1321M
1934.371	1.011	1151229	ORIENT_END	n/a	n/a	n/a	-999	2	[0, 0, 0]	n/a	FR1	0	R1321M
1935.382	1.622	1152240	WORD	n/a	wordpools/wordpool_EN.txt	CART	1	2	[0, 0, 0]	n/a	FR1	0	R1321M
1937.004	1.119	1153861	WORD_OFF	n/a	n/a	CART	1	2	[0, 0, 0]	n/a	FR1	0	R1321M
1938.123	1.633	1154980	WORD	n/a	wordpools/wordpool_EN.txt	CLOWN	2	2	[0, 0, 0]	n/a	FR1	0	R1321M
1939.756	1.099	1156613	WORD_OFF	n/a	n/a	CLOWN	2	2	[0, 0, 0]	n/a	FR1	0	R1321M
1940.855	1.634	1157712	WORD	n/a	wordpools/wordpool_EN.txt	INK	3	2	[0, 0, 0]	n/a	FR1	0	R1321M
1942.489	0.792	1159346	WORD_OFF	n/a	n/a	INK	3	2	[0, 0, 0]	n/a	FR1	0	R1321M
1943.281	1.626	1160138	WORD	n/a	wordpools/wordpool_EN.txt	FLOOR	4	2	[0, 0, 0]	n/a	FR1	0	R1321M
1944.907	0.852	1161764	WORD_OFF	n/a	n/a	FLOOR	4	2	[0, 0, 0]	n/a	FR1	0	R1321M
1945.759	1.631	1162616	WORD	n/a	wordpools/wordpool_EN.txt	RIB	5	2	[0, 0, 0]	n/a	FR1	0	R1321M
1947.39	0.8	1164247	WORD_OFF	n/a	n/a	RIB	5	2	[0, 0, 0]	n/a	FR1	0	R1321M
1948.19	1.618	1165047	WORD	n/a	wordpools/wordpool_EN.txt	FAN	6	2	[0, 0, 0]	n/a	FR1	0	R1321M
1949.808	0.88	1166665	WORD_OFF	n/a	n/a	FAN	6	2	[0, 0, 0]	n/a	FR1	0	R1321M
1950.688	1.636	1167545	WORD	n/a	wordpools/wordpool_EN.txt	GLOVE	7	2	[0, 0, 0]	n/a	FR1	0	R1321M
1952.324	1.063	1169181	WORD_OFF	n/a	n/a	GLOVE	7	2	[0, 0, 0]	n/a	FR1	0	R1321M
1953.387	1.621	1170244	WORD	n/a	wordpools/wordpool_EN.txt	ICE	8	2	[0, 0, 0]	n/a	FR1	0	R1321M
1955.008	0.943	1171865	WORD_OFF	n/a	n/a	ICE	8	2	[0, 0, 0]	n/a	FR1	0	R1321M
1955.951	1.624	1172808	WORD	n/a	wordpools/wordpool_EN.txt	BARN	9	2	[0, 0, 0]	n/a	FR1	0	R1321M
1957.575	0.891	1174431	WORD_OFF	n/a	n/a	BARN	9	2	[0, 0, 0]	n/a	FR1	0	R1321M
1958.466	1.626	1175322	WORD	n/a	wordpools/wordpool_EN.txt	MOUSE	10	2	[0, 0, 0]	n/a	FR1	0	R1321M
1960.092	0.876	1176948	WORD_OFF	n/a	n/a	MOUSE	10	2	[0, 0, 0]	n/a	FR1	0	R1321M
1960.968	1.625	1177824	WORD	n/a	wordpools/wordpool_EN.txt	DESK	11	2	[0, 0, 0]	n/a	FR1	0	R1321M
1962.593	0.804	1179449	WORD_OFF	n/a	n/a	DESK	11	2	[0, 0, 0]	n/a	FR1	0	R1321M
1963.397	1.63	1180253	WORD	n/a	wordpools/wordpool_EN.txt	JAIL	12	2	[0, 0, 0]	n/a	FR1	0	R1321M
1965.027	0.0	1181883	WORD_OFF	n/a	n/a	JAIL	12	2	[0, 0, 0]	n/a	FR1	0	R1321M
1965.027	0.0	1181883	ENCODING_END	n/a	n/a	n/a	-999	2	[0, 0, 0]	n/a	FR1	0	R1321M
1965.027	0.001	1181883	DISTRACT_START	n/a	n/a	n/a	-999	2	[0, 0, 0]	n/a	FR1	0	R1321M
1965.028	0.015	1181884	START	n/a	n/a	n/a	-999	2	[-999, -999, -999]	n/a	FR1	0	R1321M
1965.043	4.567	1181899	PROB	4.567	n/a	n/a	-999	2	[4, 8, 8]	20	FR1	0	R1321M
1969.61	4.801	1186466	PROB	4.801	n/a	n/a	-999	2	[8, 3, 5]	16	FR1	0	R1321M
1974.411	4.369	1191267	PROB	4.369	n/a	n/a	-999	2	[7, 6, 8]	22	FR1	0	R1321M
1978.78	5.867	1195635	PROB	5.867	n/a	n/a	-999	2	[7, 2, 9]	18	FR1	0	R1321M
1984.647	5.115	1201502	PROB	5.115	n/a	n/a	-999	2	[3, 1, 8]	12	FR1	0	R1321M
1989.762	0.02	1206617	STOP	n/a	n/a	n/a	-999	2	[-999, -999, -999]	n/a	FR1	0	R1321M
1989.782	0.666	1206637	DISTRACT_END	n/a	n/a	n/a	-999	2	[0, 0, 0]	n/a	FR1	0	R1321M
1990.448	1.667	1207303	RETRIEVAL_ORIENT_START	n/a	n/a	n/a	-999	2	[0, 0, 0]	n/a	FR1	0	R1321M
1992.115	0.0	1208970	REC_START	n/a	n/a	n/a	-999	2	[0, 0, 0]	n/a	FR1	0	R1321M
1992.115	0.881	1208970	RETRIEVAL_ORIENT_END	n/a	n/a	n/a	-999	2	[0, 0, 0]	n/a	FR1	0	R1321M
1992.996	0.274	1209851	REC_WORD_VV	0.274	n/a	<>	-999	2	[0, 0, 0]	n/a	FR1	0	R1321M
1993.27	4.294	1210125	REC_WORD	4.294	n/a	CLOWN	2	2	[0, 0, 0]	n/a	FR1	0	R1321M
1997.564	3.248	1214418	REC_WORD	3.248	n/a	GLOVE	7	2	[0, 0, 0]	n/a	FR1	0	R1321M
2000.812	4.777	1217666	REC_WORD	4.777	n/a	ICE	8	2	[0, 0, 0]	n/a	FR1	0	R1321M
2005.589	0.71	1222443	REC_WORD	0.71	n/a	BARN	9	2	[0, 0, 0]	n/a	FR1	0	R1321M
2006.299	15.828	1223153	REC_WORD	15.828	n/a	MOUSE	10	2	[0, 0, 0]	n/a	FR1	0	R1321M
2022.127	0.001	1238980	REC_END	n/a	n/a	n/a	-999	2	[0, 0, 0]	n/a	FR1	0	R1321M
2022.128	0.016	1238981	TRIAL_END	n/a	n/a	n/a	-999	2	[0, 0, 0]	n/a	FR1	0	R1321M
2022.144	0.0	1238997	TRIAL	n/a	n/a	n/a	-999	3	[0, 0, 0]	n/a	FR1	0	R1321M
2022.144	0.001	1238997	TRIAL_START	n/a	n/a	n/a	-999	3	[0, 0, 0]	n/a	FR1	0	R1321M
2022.145	7.828	1238998	WAITING_START	n/a	n/a	n/a	-999	3	[0, 0, 0]	n/a	FR1	0	R1321M
2029.973	0.001	1246826	WAITING_END	n/a	n/a	n/a	-999	3	[0, 0, 0]	n/a	FR1	0	R1321M
2029.974	10.428	1246827	COUNTDOWN_START	n/a	n/a	n/a	-999	3	[0, 0, 0]	n/a	FR1	0	R1321M
2040.402	0.001	1257254	COUNTDOWN_END	n/a	n/a	n/a	-999	3	[0, 0, 0]	n/a	FR1	0	R1321M
2040.403	1.055	1257255	ORIENT_START	n/a	n/a	n/a	-999	3	[0, 0, 0]	n/a	FR1	0	R1321M
2041.458	0.0	1258310	ORIENT_END	n/a	n/a	n/a	-999	3	[0, 0, 0]	n/a	FR1	0	R1321M
2041.458	0.975	1258310	ENCODING_START	n/a	n/a	n/a	-999	3	[0, 0, 0]	n/a	FR1	0	R1321M
2042.433	1.625	1259285	WORD	n/a	wordpools/wordpool_EN.txt	PEARL	1	3	[0, 0, 0]	n/a	FR1	0	R1321M
2044.058	1.071	1260910	WORD_OFF	n/a	n/a	PEARL	1	3	[0, 0, 0]	n/a	FR1	0	R1321M
2045.129	1.631	1261981	WORD	n/a	wordpools/wordpool_EN.txt	BAG	2	3	[0, 0, 0]	n/a	FR1	0	R1321M
2046.76	0.834	1263612	WORD_OFF	n/a	n/a	BAG	2	3	[0, 0, 0]	n/a	FR1	0	R1321M
2047.594	1.632	1264446	WORD	n/a	wordpools/wordpool_EN.txt	SPOON	3	3	[0, 0, 0]	n/a	FR1	0	R1321M
2049.226	0.894	1266078	WORD_OFF	n/a	n/a	SPOON	3	3	[0, 0, 0]	n/a	FR1	0	R1321M
2050.12	1.624	1266972	WORD	n/a	wordpools/wordpool_EN.txt	FORT	4	3	[0, 0, 0]	n/a	FR1	0	R1321M
2051.744	1.125	1268596	WORD_OFF	n/a	n/a	FORT	4	3	[0, 0, 0]	n/a	FR1	0	R1321M
2052.869	1.625	1269721	WORD	n/a	wordpools/wordpool_EN.txt	TOAD	5	3	[0, 0, 0]	n/a	FR1	0	R1321M
2054.494	1.108	1271346	WORD_OFF	n/a	n/a	TOAD	5	3	[0, 0, 0]	n/a	FR1	0	R1321M
2055.602	1.626	1272454	WORD	n/a	wordpools/wordpool_EN.txt	VEST	6	3	[0, 0, 0]	n/a	FR1	0	R1321M
2057.228	1.131	1274079	WORD_OFF	n/a	n/a	VEST	6	3	[0, 0, 0]	n/a	FR1	0	R1321M
2058.359	1.636	1275210	WORD	n/a	wordpools/wordpool_EN.txt	BOAT	7	3	[0, 0, 0]	n/a	FR1	0	R1321M
2059.995	1.077	1276846	WORD_OFF	n/a	n/a	BOAT	7	3	[0, 0, 0]	n/a	FR1	0	R1321M
2061.072	1.623	1277923	WORD	n/a	wordpools/wordpool_EN.txt	SHIP	8	3	[0, 0, 0]	n/a	FR1	0	R1321M
2062.695	1.017	1279546	WORD_OFF	n/a	n/a	SHIP	8	3	[0, 0, 0]	n/a	FR1	0	R1321M
2063.712	1.634	1280563	WORD	n/a	wordpools/wordpool_EN.txt	MOLE	9	3	[0, 0, 0]	n/a	FR1	0	R1321M
2065.346	1.06	1282197	WORD_OFF	n/a	n/a	MOLE	9	3	[0, 0, 0]	n/a	FR1	0	R1321M
2066.406	1.624	1283257	WORD	n/a	wordpools/wordpool_EN.txt	ARM	10	3	[0, 0, 0]	n/a	FR1	0	R1321M
2068.03	0.774	1284881	WORD_OFF	n/a	n/a	ARM	10	3	[0, 0, 0]	n/a	FR1	0	R1321M
2068.804	1.626	1285655	WORD	n/a	wordpools/wordpool_EN.txt	MUG	11	3	[0, 0, 0]	n/a	FR1	0	R1321M
2070.43	1.009	1287281	WORD_OFF	n/a	n/a	MUG	11	3	[0, 0, 0]	n/a	FR1	0	R1321M
2071.439	1.625	1288290	WORD	n/a	wordpools/wordpool_EN.txt	APE	12	3	[0, 0, 0]	n/a	FR1	0	R1321M
2073.064	0.001	1289915	WORD_OFF	n/a	n/a	APE	12	3	[0, 0, 0]	n/a	FR1	0	R1321M
2073.065	0.0	1289916	ENCODING_END	n/a	n/a	n/a	-999	3	[0, 0, 0]	n/a	FR1	0	R1321M
2073.065	0.0	1289916	DISTRACT_START	n/a	n/a	n/a	-999	3	[0, 0, 0]	n/a	FR1	0	R1321M
2073.065	0.015	1289916	START	n/a	n/a	n/a	-999	3	[-999, -999, -999]	n/a	FR1	0	R1321M
2073.08	3.968	1289931	PROB	3.968	n/a	n/a	-999	3	[4, 1, 2]	7	FR1	0	R1321M
2077.048	4.317	1293898	PROB	4.317	n/a	n/a	-999	3	[7, 8, 3]	18	FR1	0	R1321M
2081.365	3.068	1298215	PROB	3.068	n/a	n/a	-999	3	[3, 3, 3]	9	FR1	0	R1321M
2084.433	4.1	1301283	PROB	4.1	n/a	n/a	-999	3	[5, 4, 9]	18	FR1	0	R1321M
2088.533	4.799	1305383	PROB	4.799	n/a	n/a	-999	3	[6, 5, 6]	17	FR1	0	R1321M
2093.332	0.019	1310182	STOP	n/a	n/a	n/a	-999	3	[-999, -999, -999]	n/a	FR1	0	R1321M
2093.351	0.66	1310201	DISTRACT_END	n/a	n/a	n/a	-999	3	[0, 0, 0]	n/a	FR1	0	R1321M
2094.011	1.591	1310861	RETRIEVAL_ORIENT_START	n/a	n/a	n/a	-999	3	[0, 0, 0]	n/a	FR1	0	R1321M
2095.602	0.0	1312451	REC_START	n/a	n/a	n/a	-999	3	[0, 0, 0]	n/a	FR1	0	R1321M
2095.602	1.585	1312451	RETRIEVAL_ORIENT_END	n/a	n/a	n/a	-999	3	[0, 0, 0]	n/a	FR1	0	R1321M
2097.187	1.04	1314036	REC_WORD	1.04	n/a	BOAT	7	3	[0, 0, 0]	n/a	FR1	0	R1321M
2098.227	2.738	1315076	REC_WORD	2.738	n/a	SHIP	8	3	[0, 0, 0]	n/a	FR1	0	R1321M
2100.965	2.964	1317814	REC_WORD	2.964	n/a	VEST	6	3	[0, 0, 0]	n/a	FR1	0	R1321M
2103.929	21.684	1320778	REC_WORD	21.684	n/a	MUG	11	3	[0, 0, 0]	n/a	FR1	0	R1321M
2125.613	0.001	1342461	REC_END	n/a	n/a	n/a	-999	3	[0, 0, 0]	n/a	FR1	0	R1321M
2125.614	0.015	1342462	TRIAL_END	n/a	n/a	n/a	-999	3	[0, 0, 0]	n/a	FR1	0	R1321M
2125.629	0.0	1342477	WAITING_START	n/a	n/a	n/a	-999	4	[0, 0, 0]	n/a	FR1	0	R1321M
2125.629	0.0	1342477	TRIAL	n/a	n/a	n/a	-999	4	[0, 0, 0]	n/a	FR1	0	R1321M
2125.629	7.314	1342477	TRIAL_START	n/a	n/a	n/a	-999	4	[0, 0, 0]	n/a	FR1	0	R1321M
2132.943	0.001	1349791	WAITING_END	n/a	n/a	n/a	-999	4	[0, 0, 0]	n/a	FR1	0	R1321M
2132.944	10.428	1349792	COUNTDOWN_START	n/a	n/a	n/a	-999	4	[0, 0, 0]	n/a	FR1	0	R1321M
2143.372	0.0	1360219	COUNTDOWN_END	n/a	n/a	n/a	-999	4	[0, 0, 0]	n/a	FR1	0	R1321M
2143.372	1.106	1360219	ORIENT_START	n/a	n/a	n/a	-999	4	[0, 0, 0]	n/a	FR1	0	R1321M
2144.478	0.0	1361325	ORIENT_END	n/a	n/a	n/a	-999	4	[0, 0, 0]	n/a	FR1	0	R1321M
2144.478	0.865	1361325	ENCODING_START	n/a	n/a	n/a	-999	4	[0, 0, 0]	n/a	FR1	0	R1321M
2145.343	1.635	1362190	WORD	n/a	wordpools/wordpool_EN.txt	CROWN	1	4	[0, 0, 0]	n/a	FR1	0	R1321M
2146.978	0.796	1363825	WORD_OFF	n/a	n/a	CROWN	1	4	[0, 0, 0]	n/a	FR1	0	R1321M
2147.774	1.621	1364621	WORD	n/a	wordpools/wordpool_EN.txt	THREAD	2	4	[0, 0, 0]	n/a	FR1	0	R1321M
2149.395	1.121	1366242	WORD_OFF	n/a	n/a	THREAD	2	4	[0, 0, 0]	n/a	FR1	0	R1321M
2150.516	1.63	1367363	WORD	n/a	wordpools/wordpool_EN.txt	BED	3	4	[0, 0, 0]	n/a	FR1	0	R1321M
2152.146	0.871	1368993	WORD_OFF	n/a	n/a	BED	3	4	[0, 0, 0]	n/a	FR1	0	R1321M
2153.017	1.629	1369864	WORD	n/a	wordpools/wordpool_EN.txt	ROOT	4	4	[0, 0, 0]	n/a	FR1	0	R1321M
2154.646	0.787	1371493	WORD_OFF	n/a	n/a	ROOT	4	4	[0, 0, 0]	n/a	FR1	0	R1321M
2155.433	1.63	1372279	WORD	n/a	wordpools/wordpool_EN.txt	CHALK	5	4	[0, 0, 0]	n/a	FR1	0	R1321M
2157.063	0.985	1373909	WORD_OFF	n/a	n/a	CHALK	5	4	[0, 0, 0]	n/a	FR1	0	R1321M
2158.048	1.633	1374894	WORD	n/a	wordpools/wordpool_EN.txt	MAP	6	4	[0, 0, 0]	n/a	FR1	0	R1321M
2159.681	0.768	1376527	WORD_OFF	n/a	n/a	MAP	6	4	[0, 0, 0]	n/a	FR1	0	R1321M
2160.449	1.632	1377295	WORD	n/a	wordpools/wordpool_EN.txt	SPARK	7	4	[0, 0, 0]	n/a	FR1	0	R1321M
2162.081	0.993	1378927	WORD_OFF	n/a	n/a	SPARK	7	4	[0, 0, 0]	n/a	FR1	0	R1321M
2163.074	1.624	1379920	WORD	n/a	wordpools/wordpool_EN.txt	BANK	8	4	[0, 0, 0]	n/a	FR1	0	R1321M
2164.698	0.919	1381544	WORD_OFF	n/a	n/a	BANK	8	4	[0, 0, 0]	n/a	FR1	0	R1321M
2165.617	1.632	1382463	WORD	n/a	wordpools/wordpool_EN.txt	FARM	9	4	[0, 0, 0]	n/a	FR1	0	R1321M
2167.249	1.081	1384095	WORD_OFF	n/a	n/a	FARM	9	4	[0, 0, 0]	n/a	FR1	0	R1321M
2168.33	1.62	1385176	WORD	n/a	wordpools/wordpool_EN.txt	PLANE	10	4	[0, 0, 0]	n/a	FR1	0	R1321M
2169.95	0.963	1386796	WORD_OFF	n/a	n/a	PLANE	10	4	[0, 0, 0]	n/a	FR1	0	R1321M
2170.913	1.637	1387759	WORD	n/a	wordpools/wordpool_EN.txt	SMILE	11	4	[0, 0, 0]	n/a	FR1	0	R1321M
2172.55	0.952	1389396	WORD_OFF	n/a	n/a	SMILE	11	4	[0, 0, 0]	n/a	FR1	0	R1321M
2173.502	1.632	1390348	WORD	n/a	wordpools/wordpool_EN.txt	RAIN	12	4	[0, 0, 0]	n/a	FR1	0	R1321M
2175.134	0.0	1391979	WORD_OFF	n/a	n/a	RAIN	12	4	[0, 0, 0]	n/a	FR1	0	R1321M
2175.134	0.0	1391979	ENCODING_END	n/a	n/a	n/a	-999	4	[0, 0, 0]	n/a	FR1	0	R1321M
2175.134	0.001	1391979	DISTRACT_START	n/a	n/a	n/a	-999	4	[0, 0, 0]	n/a	FR1	0	R1321M
2175.135	0.015	1391980	START	n/a	n/a	n/a	-999	4	[-999, -999, -999]	n/a	FR1	0	R1321M
2175.15	6.686	1391995	PROB	6.686	n/a	n/a	-999	4	[5, 8, 3]	16	FR1	0	R1321M
2181.836	5.15	1398681	PROB	5.15	n/a	n/a	-999	4	[9, 8, 3]	20	FR1	0	R1321M
2186.986	4.467	1403831	PROB	4.467	n/a	n/a	-999	4	[2, 5, 3]	10	FR1	0	R1321M
2191.453	8.054	1408298	PROB	8.054	n/a	n/a	-999	4	[9, 3, 3]	15	FR1	0	R1321M
2199.507	0.015	1416351	STOP	n/a	n/a	n/a	-999	4	[-999, -999, -999]	n/a	FR1	0	R1321M
2199.522	0.579	1416366	DISTRACT_END	n/a	n/a	n/a	-999	4	[0, 0, 0]	n/a	FR1	0	R1321M
2200.101	1.605	1416945	RETRIEVAL_ORIENT_START	n/a	n/a	n/a	-999	4	[0, 0, 0]	n/a	FR1	0	R1321M
2201.706	0.001	1418550	RETRIEVAL_ORIENT_END	n/a	n/a	n/a	-999	4	[0, 0, 0]	n/a	FR1	0	R1321M
2201.707	0.94	1418551	REC_START	n/a	n/a	n/a	-999	4	[0, 0, 0]	n/a	FR1	0	R1321M
2202.647	3.772	1419491	REC_WORD	3.772	n/a	FARM	9	4	[0, 0, 0]	n/a	FR1	0	R1321M
2206.419	1.785	1423263	REC_WORD_VV	1.785	n/a	<>	-999	4	[0, 0, 0]	n/a	FR1	0	R1321M
2208.204	1.69	1425048	REC_WORD	1.69	n/a	ROSE	-999	4	[0, 0, 0]	n/a	FR1	0	R1321M
2209.894	2.077	1426738	REC_WORD_VV	2.077	n/a	<>	-999	4	[0, 0, 0]	n/a	FR1	0	R1321M
2211.971	3.702	1428815	REC_WORD_VV	3.702	n/a	<>	-999	4	[0, 0, 0]	n/a	FR1	0	R1321M
2215.673	16.046	1432516	REC_WORD	16.046	n/a	SMILE	11	4	[0, 0, 0]	n/a	FR1	0	R1321M
2231.719	0.001	1448562	REC_END	n/a	n/a	n/a	-999	4	[0, 0, 0]	n/a	FR1	0	R1321M
2231.72	0.016	1448563	TRIAL_END	n/a	n/a	n/a	-999	4	[0, 0, 0]	n/a	FR1	0	R1321M
2231.736	0.0	1448579	TRIAL_START	n/a	n/a	n/a	-999	5	[0, 0, 0]	n/a	FR1	0	R1321M
2231.736	0.0	1448579	TRIAL	n/a	n/a	n/a	-999	5	[0, 0, 0]	n/a	FR1	0	R1321M
2231.736	9.995	1448579	WAITING_START	n/a	n/a	n/a	-999	5	[0, 0, 0]	n/a	FR1	0	R1321M
2241.731	0.0	1458573	COUNTDOWN_START	n/a	n/a	n/a	-999	5	[0, 0, 0]	n/a	FR1	0	R1321M
2241.731	10.429	1458573	WAITING_END	n/a	n/a	n/a	-999	5	[0, 0, 0]	n/a	FR1	0	R1321M
2252.16	0.0	1469002	COUNTDOWN_END	n/a	n/a	n/a	-999	5	[0, 0, 0]	n/a	FR1	0	R1321M
2252.16	1.172	1469002	ORIENT_START	n/a	n/a	n/a	-999	5	[0, 0, 0]	n/a	FR1	0	R1321M
2253.332	0.001	1470174	ORIENT_END	n/a	n/a	n/a	-999	5	[0, 0, 0]	n/a	FR1	0	R1321M
2253.333	1.014	1470175	ENCODING_START	n/a	n/a	n/a	-999	5	[0, 0, 0]	n/a	FR1	0	R1321M
2254.347	1.635	1471188	WORD	n/a	wordpools/wordpool_EN.txt	FOG	1	5	[0, 0, 0]	n/a	FR1	0	R1321M
2255.982	0.8	1472823	WORD_OFF	n/a	n/a	FOG	1	5	[0, 0, 0]	n/a	FR1	0	R1321M
2256.782	1.634	1473623	WORD	n/a	wordpools/wordpool_EN.txt	NAIL	2	5	[0, 0, 0]	n/a	FR1	0	R1321M
2258.416	1.032	1475257	WORD_OFF	n/a	n/a	NAIL	2	5	[0, 0, 0]	n/a	FR1	0	R1321M
2259.448	1.636	1476289	WORD	n/a	wordpools/wordpool_EN.txt	FUR	3	5	[0, 0, 0]	n/a	FR1	0	R1321M
2261.084	0.98	1477925	WORD_OFF	n/a	n/a	FUR	3	5	[0, 0, 0]	n/a	FR1	0	R1321M
2262.064	1.637	1478905	WORD	n/a	wordpools/wordpool_EN.txt	FOOT	4	5	[0, 0, 0]	n/a	FR1	0	R1321M
2263.701	1.148	1480542	WORD_OFF	n/a	n/a	FOOT	4	5	[0, 0, 0]	n/a	FR1	0	R1321M
2264.849	1.636	1481690	WORD	n/a	wordpools/wordpool_EN.txt	GRAPE	5	5	[0, 0, 0]	n/a	FR1	0	R1321M
2266.485	1.052	1483326	WORD_OFF	n/a	n/a	GRAPE	5	5	[0, 0, 0]	n/a	FR1	0	R1321M
2267.537	1.631	1484378	WORD	n/a	wordpools/wordpool_EN.txt	PIPE	6	5	[0, 0, 0]	n/a	FR1	0	R1321M
2269.168	0.841	1486009	WORD_OFF	n/a	n/a	PIPE	6	5	[0, 0, 0]	n/a	FR1	0	R1321M
2270.009	1.61	1486850	WORD	n/a	wordpools/wordpool_EN.txt	JEEP	7	5	[0, 0, 0]	n/a	FR1	0	R1321M
2271.619	0.842	1488460	WORD_OFF	n/a	n/a	JEEP	7	5	[0, 0, 0]	n/a	FR1	0	R1321M
2272.461	1.625	1489302	WORD	n/a	wordpools/wordpool_EN.txt	BEAN	8	5	[0, 0, 0]	n/a	FR1	0	R1321M
2274.086	0.95	1490926	WORD_OFF	n/a	n/a	BEAN	8	5	[0, 0, 0]	n/a	FR1	0	R1321M
2275.036	1.634	1491876	WORD	n/a	wordpools/wordpool_EN.txt	HILL	9	5	[0, 0, 0]	n/a	FR1	0	R1321M
2276.67	0.994	1493510	WORD_OFF	n/a	n/a	HILL	9	5	[0, 0, 0]	n/a	FR1	0	R1321M
2277.664	1.623	1494504	WORD	n/a	wordpools/wordpool_EN.txt	SINK	10	5	[0, 0, 0]	n/a	FR1	0	R1321M
2279.287	0.847	1496127	WORD_OFF	n/a	n/a	SINK	10	5	[0, 0, 0]	n/a	FR1	0	R1321M
2280.134	1.638	1496974	WORD	n/a	wordpools/wordpool_EN.txt	BEACH	11	5	[0, 0, 0]	n/a	FR1	0	R1321M
2281.772	0.897	1498612	WORD_OFF	n/a	n/a	BEACH	11	5	[0, 0, 0]	n/a	FR1	0	R1321M
2282.669	1.636	1499509	WORD	n/a	wordpools/wordpool_EN.txt	HOOF	12	5	[0, 0, 0]	n/a	FR1	0	R1321M
2284.305	0.0	1501145	WORD_OFF	n/a	n/a	HOOF	12	5	[0, 0, 0]	n/a	FR1	0	R1321M
2284.305	0.0	1501145	ENCODING_END	n/a	n/a	n/a	-999	5	[0, 0, 0]	n/a	FR1	0	R1321M
2284.305	0.001	1501145	DISTRACT_START	n/a	n/a	n/a	-999	5	[0, 0, 0]	n/a	FR1	0	R1321M
2284.306	0.015	1501146	START	n/a	n/a	n/a	-999	5	[-999, -999, -999]	n/a	FR1	0	R1321M
2284.321	6.602	1501161	PROB	6.602	n/a	n/a	-999	5	[9, 8, 5]	22	FR1	0	R1321M
2290.923	7.734	1507763	PROB	7.734	n/a	n/a	-999	5	[7, 6, 9]	22	FR1	0	R1321M
2298.657	4.701	1515496	PROB	4.701	n/a	n/a	-999	5	[3, 4, 9]	16	FR1	0	R1321M
2303.358	4.64	1520197	PROB	4.64	n/a	n/a	-999	5	[2, 5, 6]	13	FR1	0	R1321M
2307.998	0.011	1524837	STOP	n/a	n/a	n/a	-999	5	[-999, -999, -999]	n/a	FR1	0	R1321M
2308.009	0.505	1524848	DISTRACT_END	n/a	n/a	n/a	-999	5	[0, 0, 0]	n/a	FR1	0	R1321M
2308.514	1.696	1525353	RETRIEVAL_ORIENT_START	n/a	n/a	n/a	-999	5	[0, 0, 0]	n/a	FR1	0	R1321M
2310.21	0.0	1527049	RETRIEVAL_ORIENT_END	n/a	n/a	n/a	-999	5	[0, 0, 0]	n/a	FR1	0	R1321M
2310.21	1.677	1527049	REC_START	n/a	n/a	n/a	-999	5	[0, 0, 0]	n/a	FR1	0	R1321M
2311.887	1.36	1528726	REC_WORD	1.36	n/a	GRAPE	5	5	[0, 0, 0]	n/a	FR1	0	R1321M
2313.247	4.496	1530086	REC_WORD	4.496	n/a	BEAN	8	5	[0, 0, 0]	n/a	FR1	0	R1321M
2317.743	9.726	1534581	REC_WORD	9.726	n/a	FOG	1	5	[0, 0, 0]	n/a	FR1	0	R1321M
2327.469	12.754	1544307	REC_WORD	12.754	n/a	FUR	3	5	[0, 0, 0]	n/a	FR1	0	R1321M
2340.223	0.001	1557060	REC_END	n/a	n/a	n/a	-999	5	[0, 0, 0]	n/a	FR1	0	R1321M
2340.224	0.013	1557061	TRIAL_END	n/a	n/a	n/a	-999	5	[0, 0, 0]	n/a	FR1	0	R1321M
2340.237	0.0	1557074	TRIAL_START	n/a	n/a	n/a	-999	6	[0, 0, 0]	n/a	FR1	0	R1321M
2340.237	0.001	1557074	TRIAL	n/a	n/a	n/a	-999	6	[0, 0, 0]	n/a	FR1	0	R1321M
2340.238	3.646	1557075	WAITING_START	n/a	n/a	n/a	-999	6	[0, 0, 0]	n/a	FR1	0	R1321M
2343.884	0.0	1560721	WAITING_END	n/a	n/a	n/a	-999	6	[0, 0, 0]	n/a	FR1	0	R1321M
2343.884	10.43	1560721	COUNTDOWN_START	n/a	n/a	n/a	-999	6	[0, 0, 0]	n/a	FR1	0	R1321M
2354.314	0.0	1571150	ORIENT_START	n/a	n/a	n/a	-999	6	[0, 0, 0]	n/a	FR1	0	R1321M
2354.314	1.071	1571150	COUNTDOWN_END	n/a	n/a	n/a	-999	6	[0, 0, 0]	n/a	FR1	0	R1321M
2355.385	0.001	1572221	ORIENT_END	n/a	n/a	n/a	-999	6	[0, 0, 0]	n/a	FR1	0	R1321M
2355.386	1.112	1572222	ENCODING_START	n/a	n/a	n/a	-999	6	[0, 0, 0]	n/a	FR1	0	R1321M
2356.498	1.638	1573334	WORD	n/a	wordpools/wordpool_EN.txt	EEL	1	6	[0, 0, 0]	n/a	FR1	0	R1321M
2358.136	0.991	1574972	WORD_OFF	n/a	n/a	EEL	1	6	[0, 0, 0]	n/a	FR1	0	R1321M
2359.127	1.627	1575963	WORD	n/a	wordpools/wordpool_EN.txt	HOOK	2	6	[0, 0, 0]	n/a	FR1	0	R1321M
2360.754	0.817	1577590	WORD_OFF	n/a	n/a	HOOK	2	6	[0, 0, 0]	n/a	FR1	0	R1321M
2361.571	1.632	1578407	WORD	n/a	wordpools/wordpool_EN.txt	WHALE	3	6	[0, 0, 0]	n/a	FR1	0	R1321M
2363.203	1.082	1580039	WORD_OFF	n/a	n/a	WHALE	3	6	[0, 0, 0]	n/a	FR1	0	R1321M
2364.285	1.637	1581121	WORD	n/a	wordpools/wordpool_EN.txt	PEAR	4	6	[0, 0, 0]	n/a	FR1	0	R1321M
2365.922	0.946	1582758	WORD_OFF	n/a	n/a	PEAR	4	6	[0, 0, 0]	n/a	FR1	0	R1321M
2366.868	1.636	1583704	WORD	n/a	wordpools/wordpool_EN.txt	BOOK	5	6	[0, 0, 0]	n/a	FR1	0	R1321M
2368.504	0.852	1585340	WORD_OFF	n/a	n/a	BOOK	5	6	[0, 0, 0]	n/a	FR1	0	R1321M
2369.356	1.632	1586192	WORD	n/a	wordpools/wordpool_EN.txt	FENCE	6	6	[0, 0, 0]	n/a	FR1	0	R1321M
2370.988	0.82	1587824	WORD_OFF	n/a	n/a	FENCE	6	6	[0, 0, 0]	n/a	FR1	0	R1321M
2371.808	1.631	1588644	WORD	n/a	wordpools/wordpool_EN.txt	BOY	7	6	[0, 0, 0]	n/a	FR1	0	R1321M
2373.439	0.931	1590274	WORD_OFF	n/a	n/a	BOY	7	6	[0, 0, 0]	n/a	FR1	0	R1321M
2374.37	1.636	1591205	WORD	n/a	wordpools/wordpool_EN.txt	BOMB	8	6	[0, 0, 0]	n/a	FR1	0	R1321M
2376.006	0.977	1592841	WORD_OFF	n/a	n/a	BOMB	8	6	[0, 0, 0]	n/a	FR1	0	R1321M
2376.983	1.623	1593818	WORD	n/a	wordpools/wordpool_EN.txt	ROPE	9	6	[0, 0, 0]	n/a	FR1	0	R1321M
2378.606	1.081	1595441	WORD_OFF	n/a	n/a	ROPE	9	6	[0, 0, 0]	n/a	FR1	0	R1321M
2379.687	1.636	1596522	WORD	n/a	wordpools/wordpool_EN.txt	SUIT	10	6	[0, 0, 0]	n/a	FR1	0	R1321M
2381.323	0.778	1598158	WORD_OFF	n/a	n/a	SUIT	10	6	[0, 0, 0]	n/a	FR1	0	R1321M
2382.101	1.607	1598936	WORD	n/a	wordpools/wordpool_EN.txt	MOOSE	11	6	[0, 0, 0]	n/a	FR1	0	R1321M
2383.708	0.777	1600543	WORD_OFF	n/a	n/a	MOOSE	11	6	[0, 0, 0]	n/a	FR1	0	R1321M
2384.485	1.623	1601320	WORD	n/a	wordpools/wordpool_EN.txt	ZOO	12	6	[0, 0, 0]	n/a	FR1	0	R1321M
2386.108	0.0	1602943	ENCODING_END	n/a	n/a	n/a	-999	6	[0, 0, 0]	n/a	FR1	0	R1321M
2386.108	0.0	1602943	DISTRACT_START	n/a	n/a	n/a	-999	6	[0, 0, 0]	n/a	FR1	0	R1321M
2386.108	0.001	1602943	WORD_OFF	n/a	n/a	ZOO	12	6	[0, 0, 0]	n/a	FR1	0	R1321M
2386.109	0.015	1602944	START	n/a	n/a	n/a	-999	6	[-999, -999, -999]	n/a	FR1	0	R1321M
2386.124	4.201	1602959	PROB	4.201	n/a	n/a	-999	6	[8, 2, 6]	16	FR1	0	R1321M
2390.325	4.651	1607160	PROB	4.651	n/a	n/a	-999	6	[8, 3, 5]	16	FR1	0	R1321M
2394.976	4.785	1611810	PROB	4.785	n/a	n/a	-999	6	[2, 5, 7]	14	FR1	0	R1321M
2399.761	5.233	1616595	PROB	5.233	n/a	n/a	-999	6	[9, 7, 9]	25	FR1	0	R1321M
2404.994	4.583	1621828	PROB	4.583	n/a	n/a	-999	6	[2, 7, 6]	15	FR1	0	R1321M
2409.577	0.019	1626411	STOP	n/a	n/a	n/a	-999	6	[-999, -999, -999]	n/a	FR1	0	R1321M
2409.596	0.661	1626430	DISTRACT_END	n/a	n/a	n/a	-999	6	[0, 0, 0]	n/a	FR1	0	R1321M
2410.257	1.722	1627091	RETRIEVAL_ORIENT_START	n/a	n/a	n/a	-999	6	[0, 0, 0]	n/a	FR1	0	R1321M
2411.979	0.001	1628813	RETRIEVAL_ORIENT_END	n/a	n/a	n/a	-999	6	[0, 0, 0]	n/a	FR1	0	R1321M
2411.98	2.792	1628814	REC_START	n/a	n/a	n/a	-999	6	[0, 0, 0]	n/a	FR1	0	R1321M
2414.772	1.619	1631605	REC_WORD	1.619	n/a	EEL	1	6	[0, 0, 0]	n/a	FR1	0	R1321M
2416.391	2.229	1633224	REC_WORD	2.229	n/a	WHALE	3	6	[0, 0, 0]	n/a	FR1	0	R1321M
2418.62	7.076	1635453	REC_WORD	7.076	n/a	HOOK	2	6	[0, 0, 0]	n/a	FR1	0	R1321M
2425.696	16.296	1642529	REC_WORD	16.296	n/a	BOOK	5	6	[0, 0, 0]	n/a	FR1	0	R1321M
2441.992	0.0	1658824	REC_END	n/a	n/a	n/a	-999	6	[0, 0, 0]	n/a	FR1	0	R1321M
2441.992	0.014	1658824	TRIAL_END	n/a	n/a	n/a	-999	6	[0, 0, 0]	n/a	FR1	0	R1321M
2442.006	0.0	1658838	TRIAL_START	n/a	n/a	n/a	-999	7	[0, 0, 0]	n/a	FR1	0	R1321M
2442.006	0.0	1658838	TRIAL	n/a	n/a	n/a	-999	7	[0, 0, 0]	n/a	FR1	0	R1321M
2442.006	5.23	1658838	WAITING_START	n/a	n/a	n/a	-999	7	[0, 0, 0]	n/a	FR1	0	R1321M
2447.236	0.0	1664068	WAITING_END	n/a	n/a	n/a	-999	7	[0, 0, 0]	n/a	FR1	0	R1321M
2447.236	10.43	1664068	COUNTDOWN_START	n/a	n/a	n/a	-999	7	[0, 0, 0]	n/a	FR1	0	R1321M
2457.666	0.0	1674497	ORIENT_START	n/a	n/a	n/a	-999	7	[0, 0, 0]	n/a	FR1	0	R1321M
2457.666	1.257	1674497	COUNTDOWN_END	n/a	n/a	n/a	-999	7	[0, 0, 0]	n/a	FR1	0	R1321M
2458.923	0.0	1675754	ENCODING_START	n/a	n/a	n/a	-999	7	[0, 0, 0]	n/a	FR1	0	R1321M
2458.923	0.962	1675754	ORIENT_END	n/a	n/a	n/a	-999	7	[0, 0, 0]	n/a	FR1	0	R1321M
2459.885	1.621	1676716	WORD	n/a	wordpools/wordpool_EN.txt	RAT	1	7	[0, 0, 0]	n/a	FR1	0	R1321M
2461.506	1.025	1678337	WORD_OFF	n/a	n/a	RAT	1	7	[0, 0, 0]	n/a	FR1	0	R1321M
2462.531	1.625	1679362	WORD	n/a	wordpools/wordpool_EN.txt	CUBE	2	7	[0, 0, 0]	n/a	FR1	0	R1321M
2464.156	0.819	1680987	WORD_OFF	n/a	n/a	CUBE	2	7	[0, 0, 0]	n/a	FR1	0	R1321M
2464.975	1.632	1681806	WORD	n/a	wordpools/wordpool_EN.txt	JAR	3	7	[0, 0, 0]	n/a	FR1	0	R1321M
2466.607	0.836	1683438	WORD_OFF	n/a	n/a	JAR	3	7	[0, 0, 0]	n/a	FR1	0	R1321M
2467.443	1.631	1684274	WORD	n/a	wordpools/wordpool_EN.txt	BAT	4	7	[0, 0, 0]	n/a	FR1	0	R1321M
2469.074	0.938	1685905	WORD_OFF	n/a	n/a	BAT	4	7	[0, 0, 0]	n/a	FR1	0	R1321M
2470.012	1.629	1686843	WORD	n/a	wordpools/wordpool_EN.txt	CORD	5	7	[0, 0, 0]	n/a	FR1	0	R1321M
2471.641	0.975	1688472	WORD_OFF	n/a	n/a	CORD	5	7	[0, 0, 0]	n/a	FR1	0	R1321M
2472.616	1.625	1689446	WORD	n/a	wordpools/wordpool_EN.txt	BAND	6	7	[0, 0, 0]	n/a	FR1	0	R1321M
2474.241	0.808	1691071	WORD_OFF	n/a	n/a	BAND	6	7	[0, 0, 0]	n/a	FR1	0	R1321M
2475.049	1.626	1691879	WORD	n/a	wordpools/wordpool_EN.txt	STAR	7	7	[0, 0, 0]	n/a	FR1	0	R1321M
2476.675	1.008	1693505	WORD_OFF	n/a	n/a	STAR	7	7	[0, 0, 0]	n/a	FR1	0	R1321M
2477.683	1.626	1694513	WORD	n/a	wordpools/wordpool_EN.txt	DRESS	8	7	[0, 0, 0]	n/a	FR1	0	R1321M
2479.309	0.957	1696139	WORD_OFF	n/a	n/a	DRESS	8	7	[0, 0, 0]	n/a	FR1	0	R1321M
2480.266	1.628	1697096	WORD	n/a	wordpools/wordpool_EN.txt	BLUSH	9	7	[0, 0, 0]	n/a	FR1	0	R1321M
2481.894	1.125	1698724	WORD_OFF	n/a	n/a	BLUSH	9	7	[0, 0, 0]	n/a	FR1	0	R1321M
2483.019	1.624	1699849	WORD	n/a	wordpools/wordpool_EN.txt	SEAL	10	7	[0, 0, 0]	n/a	FR1	0	R1321M
2484.643	0.84	1701473	WORD_OFF	n/a	n/a	SEAL	10	7	[0, 0, 0]	n/a	FR1	0	R1321M
2485.483	1.627	1702313	WORD	n/a	wordpools/wordpool_EN.txt	BRANCH	11	7	[0, 0, 0]	n/a	FR1	0	R1321M
2487.11	0.99	1703940	WORD_OFF	n/a	n/a	BRANCH	11	7	[0, 0, 0]	n/a	FR1	0	R1321M
2488.1	1.612	1704930	WORD	n/a	wordpools/wordpool_EN.txt	BRUSH	12	7	[0, 0, 0]	n/a	FR1	0	R1321M
2489.712	0.0	1706542	WORD_OFF	n/a	n/a	BRUSH	12	7	[0, 0, 0]	n/a	FR1	0	R1321M
2489.712	0.0	1706542	ENCODING_END	n/a	n/a	n/a	-999	7	[0, 0, 0]	n/a	FR1	0	R1321M
2489.712	0.001	1706542	DISTRACT_START	n/a	n/a	n/a	-999	7	[0, 0, 0]	n/a	FR1	0	R1321M
2489.713	0.015	1706543	START	n/a	n/a	n/a	-999	7	[-999, -999, -999]	n/a	FR1	0	R1321M
2489.728	4.35	1706558	PROB	4.35	n/a	n/a	-999	7	[4, 6, 7]	17	FR1	0	R1321M
2494.078	4.051	1710907	PROB	4.051	n/a	n/a	-999	7	[4, 4, 6]	14	FR1	0	R1321M
2498.129	3.567	1714958	PROB	3.567	n/a	n/a	-999	7	[9, 2, 8]	19	FR1	0	R1321M
2501.696	4.418	1718525	PROB	4.418	n/a	n/a	-999	7	[3, 7, 8]	18	FR1	0	R1321M
2506.114	4.398	1722943	PROB	4.398	n/a	n/a	-999	7	[8, 6, 9]	23	FR1	0	R1321M
2510.512	0.02	1727341	STOP	n/a	n/a	n/a	-999	7	[-999, -999, -999]	n/a	FR1	0	R1321M
2510.532	0.667	1727361	DISTRACT_END	n/a	n/a	n/a	-999	7	[0, 0, 0]	n/a	FR1	0	R1321M
2511.199	1.551	1728028	RETRIEVAL_ORIENT_START	n/a	n/a	n/a	-999	7	[0, 0, 0]	n/a	FR1	0	R1321M
2512.75	0.0	1729578	RETRIEVAL_ORIENT_END	n/a	n/a	n/a	-999	7	[0, 0, 0]	n/a	FR1	0	R1321M
2512.75	9.323	1729578	REC_START	n/a	n/a	n/a	-999	7	[0, 0, 0]	n/a	FR1	0	R1321M
2522.073	0.635	1738901	REC_WORD_VV	0.635	n/a	<>	-999	7	[0, 0, 0]	n/a	FR1	0	R1321M
2522.708	1.011	1739536	REC_WORD	1.011	n/a	RAT	1	7	[0, 0, 0]	n/a	FR1	0	R1321M
2523.719	2.529	1740547	REC_WORD	2.529	n/a	BAT	4	7	[0, 0, 0]	n/a	FR1	0	R1321M
2526.248	7.898	1743076	REC_WORD	7.898	n/a	CORD	5	7	[0, 0, 0]	n/a	FR1	0	R1321M
2534.146	8.617	1750973	REC_WORD	8.617	n/a	BRUSH	12	7	[0, 0, 0]	n/a	FR1	0	R1321M
2542.763	0.0	1759590	TRIAL_END	n/a	n/a	n/a	-999	7	[0, 0, 0]	n/a	FR1	0	R1321M
2542.763	0.014	1759590	REC_END	n/a	n/a	n/a	-999	7	[0, 0, 0]	n/a	FR1	0	R1321M
2542.777	0.0	1759604	TRIAL_START	n/a	n/a	n/a	-999	8	[0, 0, 0]	n/a	FR1	0	R1321M
2542.777	0.0	1759604	TRIAL	n/a	n/a	n/a	-999	8	[0, 0, 0]	n/a	FR1	0	R1321M
2542.777	21.365	1759604	WAITING_START	n/a	n/a	n/a	-999	8	[0, 0, 0]	n/a	FR1	0	R1321M
2564.142	0.0	1780968	WAITING_END	n/a	n/a	n/a	-999	8	[0, 0, 0]	n/a	FR1	0	R1321M
2564.142	10.43	1780968	COUNTDOWN_START	n/a	n/a	n/a	-999	8	[0, 0, 0]	n/a	FR1	0	R1321M
2574.572	0.0	1791397	COUNTDOWN_END	n/a	n/a	n/a	-999	8	[0, 0, 0]	n/a	FR1	0	R1321M
2574.572	1.089	1791397	ORIENT_START	n/a	n/a	n/a	-999	8	[0, 0, 0]	n/a	FR1	0	R1321M
2575.661	0.0	1792486	ENCODING_START	n/a	n/a	n/a	-999	8	[0, 0, 0]	n/a	FR1	0	R1321M
2575.661	0.937	1792486	ORIENT_END	n/a	n/a	n/a	-999	8	[0, 0, 0]	n/a	FR1	0	R1321M
2576.598	1.63	1793423	WORD	n/a	wordpools/wordpool_EN.txt	LAND	1	8	[0, 0, 0]	n/a	FR1	0	R1321M
2578.228	0.922	1795053	WORD_OFF	n/a	n/a	LAND	1	8	[0, 0, 0]	n/a	FR1	0	R1321M
2579.15	1.613	1795975	WORD	n/a	wordpools/wordpool_EN.txt	ELF	2	8	[0, 0, 0]	n/a	FR1	0	R1321M
2580.763	0.951	1797588	WORD_OFF	n/a	n/a	ELF	2	8	[0, 0, 0]	n/a	FR1	0	R1321M
2581.714	1.632	1798539	WORD	n/a	wordpools/wordpool_EN.txt	JUICE	3	8	[0, 0, 0]	n/a	FR1	0	R1321M
2583.346	1.069	1800171	WORD_OFF	n/a	n/a	JUICE	3	8	[0, 0, 0]	n/a	FR1	0	R1321M
2584.415	1.631	1801240	WORD	n/a	wordpools/wordpool_EN.txt	SHARK	4	8	[0, 0, 0]	n/a	FR1	0	R1321M
2586.046	0.893	1802871	WORD_OFF	n/a	n/a	SHARK	4	8	[0, 0, 0]	n/a	FR1	0	R1321M
2586.939	1.625	1803764	WORD	n/a	wordpools/wordpool_EN.txt	HAND	5	8	[0, 0, 0]	n/a	FR1	0	R1321M
2588.564	1.135	1805389	WORD_OFF	n/a	n/a	HAND	5	8	[0, 0, 0]	n/a	FR1	0	R1321M
2589.699	1.632	1806524	WORD	n/a	wordpools/wordpool_EN.txt	WING	6	8	[0, 0, 0]	n/a	FR1	0	R1321M
2591.331	0.938	1808156	WORD_OFF	n/a	n/a	WING	6	8	[0, 0, 0]	n/a	FR1	0	R1321M
2592.269	1.63	1809093	WORD	n/a	wordpools/wordpool_EN.txt	FLUTE	7	8	[0, 0, 0]	n/a	FR1	0	R1321M
2593.899	1.067	1810723	WORD_OFF	n/a	n/a	FLUTE	7	8	[0, 0, 0]	n/a	FR1	0	R1321M
2594.966	1.633	1811790	WORD	n/a	wordpools/wordpool_EN.txt	SNAKE	8	8	[0, 0, 0]	n/a	FR1	0	R1321M
2596.599	0.768	1813423	WORD_OFF	n/a	n/a	SNAKE	8	8	[0, 0, 0]	n/a	FR1	0	R1321M
2597.367	1.632	1814191	WORD	n/a	wordpools/wordpool_EN.txt	RICE	9	8	[0, 0, 0]	n/a	FR1	0	R1321M
2598.999	0.837	1815823	WORD_OFF	n/a	n/a	RICE	9	8	[0, 0, 0]	n/a	FR1	0	R1321M
2599.836	1.63	1816660	WORD	n/a	wordpools/wordpool_EN.txt	GOLD	10	8	[0, 0, 0]	n/a	FR1	0	R1321M
2601.466	0.819	1818290	WORD_OFF	n/a	n/a	GOLD	10	8	[0, 0, 0]	n/a	FR1	0	R1321M
2602.285	1.632	1819109	WORD	n/a	wordpools/wordpool_EN.txt	SOAP	11	8	[0, 0, 0]	n/a	FR1	0	R1321M
2603.917	0.933	1820741	WORD_OFF	n/a	n/a	SOAP	11	8	[0, 0, 0]	n/a	FR1	0	R1321M
2604.85	1.634	1821674	WORD	n/a	wordpools/wordpool_EN.txt	SPONGE	12	8	[0, 0, 0]	n/a	FR1	0	R1321M
2606.484	0.0	1823308	WORD_OFF	n/a	n/a	SPONGE	12	8	[0, 0, 0]	n/a	FR1	0	R1321M
2606.484	0.0	1823308	ENCODING_END	n/a	n/a	n/a	-999	8	[0, 0, 0]	n/a	FR1	0	R1321M
2606.484	0.001	1823308	DISTRACT_START	n/a	n/a	n/a	-999	8	[0, 0, 0]	n/a	FR1	0	R1321M
2606.485	0.015	1823309	START	n/a	n/a	n/a	-999	8	[-999, -999, -999]	n/a	FR1	0	R1321M
2606.5	3.184	1823324	PROB	3.184	n/a	n/a	-999	8	[1, 1, 1]	3	FR1	0	R1321M
2609.684	3.734	1826508	PROB	3.734	n/a	n/a	-999	8	[6, 4, 6]	16	FR1	0	R1321M
2613.418	4.435	1830241	PROB	4.435	n/a	n/a	-999	8	[8, 3, 6]	17	FR1	0	R1321M
2617.853	4.918	1834676	PROB	4.918	n/a	n/a	-999	8	[4, 1, 5]	10	FR1	0	R1321M
2622.771	3.818	1839594	PROB	3.818	n/a	n/a	-999	8	[1, 2, 7]	10	FR1	0	R1321M
2626.589	0.015	1843412	STOP	n/a	n/a	n/a	-999	8	[-999, -999, -999]	n/a	FR1	0	R1321M
2626.604	0.615	1843427	DISTRACT_END	n/a	n/a	n/a	-999	8	[0, 0, 0]	n/a	FR1	0	R1321M
2627.219	1.553	1844042	RETRIEVAL_ORIENT_START	n/a	n/a	n/a	-999	8	[0, 0, 0]	n/a	FR1	0	R1321M
2628.772	0.001	1845595	RETRIEVAL_ORIENT_END	n/a	n/a	n/a	-999	8	[0, 0, 0]	n/a	FR1	0	R1321M
2628.773	1.613	1845596	REC_START	n/a	n/a	n/a	-999	8	[0, 0, 0]	n/a	FR1	0	R1321M
2630.386	0.883	1847209	REC_WORD	0.883	n/a	SHARK	4	8	[0, 0, 0]	n/a	FR1	0	R1321M
2631.269	2.569	1848091	REC_WORD	2.569	n/a	SNAKE	8	8	[0, 0, 0]	n/a	FR1	0	R1321M
2633.838	7.862	1850660	REC_WORD	7.862	n/a	ELF	2	8	[0, 0, 0]	n/a	FR1	0	R1321M
2641.7	17.086	1858522	REC_WORD	17.086	n/a	HAND	5	8	[0, 0, 0]	n/a	FR1	0	R1321M
2658.786	0.001	1875607	REC_END	n/a	n/a	n/a	-999	8	[0, 0, 0]	n/a	FR1	0	R1321M
2658.787	0.015	1875608	TRIAL_END	n/a	n/a	n/a	-999	8	[0, 0, 0]	n/a	FR1	0	R1321M
2658.802	0.0	1875623	WAITING_START	n/a	n/a	n/a	-999	9	[0, 0, 0]	n/a	FR1	0	R1321M
2658.802	0.0	1875623	TRIAL_START	n/a	n/a	n/a	-999	9	[0, 0, 0]	n/a	FR1	0	R1321M
2658.802	7.31	1875623	TRIAL	n/a	n/a	n/a	-999	9	[0, 0, 0]	n/a	FR1	0	R1321M
2666.112	0.0	1882933	WAITING_END	n/a	n/a	n/a	-999	9	[0, 0, 0]	n/a	FR1	0	R1321M
2666.112	10.428	1882933	COUNTDOWN_START	n/a	n/a	n/a	-999	9	[0, 0, 0]	n/a	FR1	0	R1321M
2676.54	0.001	1893360	COUNTDOWN_END	n/a	n/a	n/a	-999	9	[0, 0, 0]	n/a	FR1	0	R1321M
2676.541	1.14	1893361	ORIENT_START	n/a	n/a	n/a	-999	9	[0, 0, 0]	n/a	FR1	0	R1321M
2677.681	0.0	1894501	ORIENT_END	n/a	n/a	n/a	-999	9	[0, 0, 0]	n/a	FR1	0	R1321M
2677.681	0.882	1894501	ENCODING_START	n/a	n/a	n/a	-999	9	[0, 0, 0]	n/a	FR1	0	R1321M
2678.563	1.635	1895383	WORD	n/a	wordpools/wordpool_EN.txt	TREE	1	9	[0, 0, 0]	n/a	FR1	0	R1321M
2680.198	1.12	1897018	WORD_OFF	n/a	n/a	TREE	1	9	[0, 0, 0]	n/a	FR1	0	R1321M
2681.318	1.631	1898138	WORD	n/a	wordpools/wordpool_EN.txt	BEE	2	9	[0, 0, 0]	n/a	FR1	0	R1321M
2682.949	1.081	1899769	WORD_OFF	n/a	n/a	BEE	2	9	[0, 0, 0]	n/a	FR1	0	R1321M
2684.03	1.636	1900850	WORD	n/a	wordpools/wordpool_EN.txt	CLOTH	3	9	[0, 0, 0]	n/a	FR1	0	R1321M
2685.666	1.067	1902486	WORD_OFF	n/a	n/a	CLOTH	3	9	[0, 0, 0]	n/a	FR1	0	R1321M
2686.733	1.633	1903553	WORD	n/a	wordpools/wordpool_EN.txt	DOG	4	9	[0, 0, 0]	n/a	FR1	0	R1321M
2688.366	1.09	1905186	WORD_OFF	n/a	n/a	DOG	4	9	[0, 0, 0]	n/a	FR1	0	R1321M
2689.456	1.627	1906276	WORD	n/a	wordpools/wordpool_EN.txt	SUN	5	9	[0, 0, 0]	n/a	FR1	0	R1321M
2691.083	0.973	1907902	WORD_OFF	n/a	n/a	SUN	5	9	[0, 0, 0]	n/a	FR1	0	R1321M
2692.056	1.628	1908875	WORD	n/a	wordpools/wordpool_EN.txt	SOUP	6	9	[0, 0, 0]	n/a	FR1	0	R1321M
2693.684	1.069	1910503	WORD_OFF	n/a	n/a	SOUP	6	9	[0, 0, 0]	n/a	FR1	0	R1321M
2694.753	1.631	1911572	WORD	n/a	wordpools/wordpool_EN.txt	GATE	7	9	[0, 0, 0]	n/a	FR1	0	R1321M
2696.384	1.023	1913203	WORD_OFF	n/a	n/a	GATE	7	9	[0, 0, 0]	n/a	FR1	0	R1321M
2697.407	1.628	1914226	WORD	n/a	wordpools/wordpool_EN.txt	SLUSH	8	9	[0, 0, 0]	n/a	FR1	0	R1321M
2699.035	0.885	1915854	WORD_OFF	n/a	n/a	SLUSH	8	9	[0, 0, 0]	n/a	FR1	0	R1321M
2699.92	1.632	1916739	WORD	n/a	wordpools/wordpool_EN.txt	SPEAR	9	9	[0, 0, 0]	n/a	FR1	0	R1321M
2701.552	0.899	1918371	WORD_OFF	n/a	n/a	SPEAR	9	9	[0, 0, 0]	n/a	FR1	0	R1321M
2702.451	1.635	1919270	WORD	n/a	wordpools/wordpool_EN.txt	NET	10	9	[0, 0, 0]	n/a	FR1	0	R1321M
2704.086	1.027	1920905	WORD_OFF	n/a	n/a	NET	10	9	[0, 0, 0]	n/a	FR1	0	R1321M
2705.113	1.624	1921932	WORD	n/a	wordpools/wordpool_EN.txt	STRING	11	9	[0, 0, 0]	n/a	FR1	0	R1321M
2706.737	0.774	1923556	WORD_OFF	n/a	n/a	STRING	11	9	[0, 0, 0]	n/a	FR1	0	R1321M
2707.511	1.626	1924330	WORD	n/a	wordpools/wordpool_EN.txt	STICK	12	9	[0, 0, 0]	n/a	FR1	0	R1321M
2709.137	0.0	1925956	WORD_OFF	n/a	n/a	STICK	12	9	[0, 0, 0]	n/a	FR1	0	R1321M
2709.137	0.001	1925956	ENCODING_END	n/a	n/a	n/a	-999	9	[0, 0, 0]	n/a	FR1	0	R1321M
2709.138	0.0	1925957	DISTRACT_START	n/a	n/a	n/a	-999	9	[0, 0, 0]	n/a	FR1	0	R1321M
2709.138	0.015	1925957	START	n/a	n/a	n/a	-999	9	[-999, -999, -999]	n/a	FR1	0	R1321M
2709.153	4.834	1925972	PROB	4.834	n/a	n/a	-999	9	[7, 8, 7]	22	FR1	0	R1321M
2713.987	4.268	1930805	PROB	4.268	n/a	n/a	-999	9	[6, 3, 7]	16	FR1	0	R1321M
2718.255	4.702	1935073	PROB	4.702	n/a	n/a	-999	9	[1, 5, 8]	14	FR1	0	R1321M
2722.957	4.383	1939775	PROB	4.383	n/a	n/a	-999	9	[4, 5, 2]	11	FR1	0	R1321M
2727.34	4.329	1944158	PROB	4.329	n/a	n/a	-999	9	[9, 5, 2]	16	FR1	0	R1321M
2731.669	0.022	1948486	STOP	n/a	n/a	n/a	-999	9	[-999, -999, -999]	n/a	FR1	0	R1321M
2731.691	0.531	1948508	DISTRACT_END	n/a	n/a	n/a	-999	9	[0, 0, 0]	n/a	FR1	0	R1321M
2732.222	1.654	1949039	RETRIEVAL_ORIENT_START	n/a	n/a	n/a	-999	9	[0, 0, 0]	n/a	FR1	0	R1321M
2733.876	0.0	1950693	RETRIEVAL_ORIENT_END	n/a	n/a	n/a	-999	9	[0, 0, 0]	n/a	FR1	0	R1321M
2733.876	15.245	1950693	REC_START	n/a	n/a	n/a	-999	9	[0, 0, 0]	n/a	FR1	0	R1321M
2749.121	1.711	1965938	REC_WORD	1.711	n/a	LAND	-999	9	[0, 0, 0]	n/a	FR1	0	R1321M
2750.832	13.057	1967648	REC_WORD_VV	13.057	n/a	<>	-999	9	[0, 0, 0]	n/a	FR1	0	R1321M
2763.889	0.0	1980705	REC_END	n/a	n/a	n/a	-999	9	[0, 0, 0]	n/a	FR1	0	R1321M
2763.889	0.014	1980705	TRIAL_END	n/a	n/a	n/a	-999	9	[0, 0, 0]	n/a	FR1	0	R1321M
2763.903	0.0	1980719	TRIAL_START	n/a	n/a	n/a	-999	10	[0, 0, 0]	n/a	FR1	0	R1321M
2763.903	0.001	1980719	TRIAL	n/a	n/a	n/a	-999	10	[0, 0, 0]	n/a	FR1	0	R1321M
2763.904	30.266	1980720	WAITING_START	n/a	n/a	n/a	-999	10	[0, 0, 0]	n/a	FR1	0	R1321M
2794.17	0.0	2010984	WAITING_END	n/a	n/a	n/a	-999	10	[0, 0, 0]	n/a	FR1	0	R1321M
2794.17	10.429	2010984	COUNTDOWN_START	n/a	n/a	n/a	-999	10	[0, 0, 0]	n/a	FR1	0	R1321M
2804.599	0.0	2021413	ORIENT_START	n/a	n/a	n/a	-999	10	[0, 0, 0]	n/a	FR1	0	R1321M
2804.599	1.241	2021413	COUNTDOWN_END	n/a	n/a	n/a	-999	10	[0, 0, 0]	n/a	FR1	0	R1321M
2805.84	0.0	2022654	ORIENT_END	n/a	n/a	n/a	-999	10	[0, 0, 0]	n/a	FR1	0	R1321M
2805.84	0.863	2022654	ENCODING_START	n/a	n/a	n/a	-999	10	[0, 0, 0]	n/a	FR1	0	R1321M
2806.703	1.636	2023517	WORD	n/a	wordpools/wordpool_EN.txt	SHRIMP	1	10	[0, 0, 0]	n/a	FR1	0	R1321M
2808.339	0.962	2025153	WORD_OFF	n/a	n/a	SHRIMP	1	10	[0, 0, 0]	n/a	FR1	0	R1321M
2809.301	1.64	2026115	WORD	n/a	wordpools/wordpool_EN.txt	BREAD	2	10	[0, 0, 0]	n/a	FR1	0	R1321M
2810.941	1.003	2027754	WORD_OFF	n/a	n/a	BREAD	2	10	[0, 0, 0]	n/a	FR1	0	R1321M
2811.944	1.629	2028757	WORD	n/a	wordpools/wordpool_EN.txt	GEESE	3	10	[0, 0, 0]	n/a	FR1	0	R1321M
2813.573	1.125	2030386	WORD_OFF	n/a	n/a	GEESE	3	10	[0, 0, 0]	n/a	FR1	0	R1321M
2814.698	1.626	2031511	WORD	n/a	wordpools/wordpool_EN.txt	BOOT	4	10	[0, 0, 0]	n/a	FR1	0	R1321M
2816.324	0.944	2033137	WORD_OFF	n/a	n/a	BOOT	4	10	[0, 0, 0]	n/a	FR1	0	R1321M
2817.268	1.624	2034081	WORD	n/a	wordpools/wordpool_EN.txt	EGG	5	10	[0, 0, 0]	n/a	FR1	0	R1321M
2818.892	1.056	2035705	WORD_OFF	n/a	n/a	EGG	5	10	[0, 0, 0]	n/a	FR1	0	R1321M
2819.948	1.627	2036761	WORD	n/a	wordpools/wordpool_EN.txt	YARD	6	10	[0, 0, 0]	n/a	FR1	0	R1321M
2821.575	0.981	2038388	WORD_OFF	n/a	n/a	YARD	6	10	[0, 0, 0]	n/a	FR1	0	R1321M
2822.556	1.636	2039369	WORD	n/a	wordpools/wordpool_EN.txt	BROOM	7	10	[0, 0, 0]	n/a	FR1	0	R1321M
2824.192	0.918	2041005	WORD_OFF	n/a	n/a	BROOM	7	10	[0, 0, 0]	n/a	FR1	0	R1321M
2825.11	1.617	2041923	WORD	n/a	wordpools/wordpool_EN.txt	SEAT	8	10	[0, 0, 0]	n/a	FR1	0	R1321M
2826.727	1.114	2043540	WORD_OFF	n/a	n/a	SEAT	8	10	[0, 0, 0]	n/a	FR1	0	R1321M
2827.841	1.636	2044654	WORD	n/a	wordpools/wordpool_EN.txt	FOOD	9	10	[0, 0, 0]	n/a	FR1	0	R1321M
2829.477	1.137	2046290	WORD_OFF	n/a	n/a	FOOD	9	10	[0, 0, 0]	n/a	FR1	0	R1321M
2830.614	1.63	2047426	WORD	n/a	wordpools/wordpool_EN.txt	TIE	10	10	[0, 0, 0]	n/a	FR1	0	R1321M
2832.244	1.132	2049056	WORD_OFF	n/a	n/a	TIE	10	10	[0, 0, 0]	n/a	FR1	0	R1321M
2833.376	1.635	2050188	WORD	n/a	wordpools/wordpool_EN.txt	TRAIN	11	10	[0, 0, 0]	n/a	FR1	0	R1321M
2835.011	1.021	2051823	WORD_OFF	n/a	n/a	TRAIN	11	10	[0, 0, 0]	n/a	FR1	0	R1321M
2836.032	1.63	2052844	WORD	n/a	wordpools/wordpool_EN.txt	STONE	12	10	[0, 0, 0]	n/a	FR1	0	R1321M
2837.662	0.0	2054474	ENCODING_END	n/a	n/a	n/a	-999	10	[0, 0, 0]	n/a	FR1	0	R1321M
2837.662	0.0	2054474	DISTRACT_START	n/a	n/a	n/a	-999	10	[0, 0, 0]	n/a	FR1	0	R1321M
2837.662	0.001	2054474	WORD_OFF	n/a	n/a	STONE	12	10	[0, 0, 0]	n/a	FR1	0	R1321M
2837.663	0.015	2054475	START	n/a	n/a	n/a	-999	10	[-999, -999, -999]	n/a	FR1	0	R1321M
2837.678	4.017	2054490	PROB	4.017	n/a	n/a	-999	10	[8, 8, 1]	17	FR1	0	R1321M
2841.695	3.751	2058507	PROB	3.751	n/a	n/a	-999	10	[7, 5, 8]	20	FR1	0	R1321M
2845.446	4.618	2062258	PROB	4.618	n/a	n/a	-999	10	[8, 1, 1]	10	FR1	0	R1321M
2850.064	4.017	2066875	PROB	4.017	n/a	n/a	-999	10	[1, 5, 4]	10	FR1	0	R1321M
2854.081	4.151	2070892	PROB	4.151	n/a	n/a	-999	10	[4, 9, 3]	16	FR1	0	R1321M
2858.232	0.017	2075043	STOP	n/a	n/a	n/a	-999	10	[-999, -999, -999]	n/a	FR1	0	R1321M
2858.249	0.524	2075060	DISTRACT_END	n/a	n/a	n/a	-999	10	[0, 0, 0]	n/a	FR1	0	R1321M
2858.773	1.71	2075584	RETRIEVAL_ORIENT_START	n/a	n/a	n/a	-999	10	[0, 0, 0]	n/a	FR1	0	R1321M
2860.483	0.0	2077294	RETRIEVAL_ORIENT_END	n/a	n/a	n/a	-999	10	[0, 0, 0]	n/a	FR1	0	R1321M
2860.483	2.015	2077294	REC_START	n/a	n/a	n/a	-999	10	[0, 0, 0]	n/a	FR1	0	R1321M
2862.498	0.968	2079309	REC_WORD	0.968	n/a	BOOT	4	10	[0, 0, 0]	n/a	FR1	0	R1321M
2863.466	0.947	2080277	REC_WORD	0.947	n/a	YARD	6	10	[0, 0, 0]	n/a	FR1	0	R1321M
2864.413	3.382	2081224	REC_WORD	3.382	n/a	BROOM	7	10	[0, 0, 0]	n/a	FR1	0	R1321M
2867.795	3.446	2084606	REC_WORD	3.446	n/a	TIE	10	10	[0, 0, 0]	n/a	FR1	0	R1321M
2871.241	11.445	2088051	REC_WORD	11.445	n/a	TRADE	-999	10	[0, 0, 0]	n/a	FR1	0	R1321M
2882.686	7.81	2099496	REC_WORD	7.81	n/a	SUN	-999	10	[0, 0, 0]	n/a	FR1	0	R1321M
2890.496	0.0	2107305	REC_END	n/a	n/a	n/a	-999	10	[0, 0, 0]	n/a	FR1	0	R1321M
2890.496	0.015	2107305	TRIAL_END	n/a	n/a	n/a	-999	10	[0, 0, 0]	n/a	FR1	0	R1321M
2890.511	0.0	2107320	TRIAL_START	n/a	n/a	n/a	-999	11	[0, 0, 0]	n/a	FR1	0	R1321M
2890.511	0.0	2107320	TRIAL	n/a	n/a	n/a	-999	11	[0, 0, 0]	n/a	FR1	0	R1321M
2890.511	21.515	2107320	WAITING_START	n/a	n/a	n/a	-999	11	[0, 0, 0]	n/a	FR1	0	R1321M
2912.026	0.0	2128834	WAITING_END	n/a	n/a	n/a	-999	11	[0, 0, 0]	n/a	FR1	0	R1321M
2912.026	10.43	2128834	COUNTDOWN_START	n/a	n/a	n/a	-999	11	[0, 0, 0]	n/a	FR1	0	R1321M
2922.456	0.0	2139264	ORIENT_START	n/a	n/a	n/a	-999	11	[0, 0, 0]	n/a	FR1	0	R1321M
2922.456	1.172	2139264	COUNTDOWN_END	n/a	n/a	n/a	-999	11	[0, 0, 0]	n/a	FR1	0	R1321M
2923.628	0.001	2140436	ORIENT_END	n/a	n/a	n/a	-999	11	[0, 0, 0]	n/a	FR1	0	R1321M
2923.629	0.95	2140437	ENCODING_START	n/a	n/a	n/a	-999	11	[0, 0, 0]	n/a	FR1	0	R1321M
2924.579	1.633	2141387	WORD	n/a	wordpools/wordpool_EN.txt	DITCH	1	11	[0, 0, 0]	n/a	FR1	0	R1321M
2926.212	1.019	2143020	WORD_OFF	n/a	n/a	DITCH	1	11	[0, 0, 0]	n/a	FR1	0	R1321M
2927.231	1.616	2144039	WORD	n/a	wordpools/wordpool_EN.txt	CHEEK	2	11	[0, 0, 0]	n/a	FR1	0	R1321M
2928.847	0.77	2145655	WORD_OFF	n/a	n/a	CHEEK	2	11	[0, 0, 0]	n/a	FR1	0	R1321M
2929.617	1.629	2146424	WORD	n/a	wordpools/wordpool_EN.txt	LIP	3	11	[0, 0, 0]	n/a	FR1	0	R1321M
2931.246	0.757	2148053	WORD_OFF	n/a	n/a	LIP	3	11	[0, 0, 0]	n/a	FR1	0	R1321M
2932.003	1.627	2148810	WORD	n/a	wordpools/wordpool_EN.txt	HORN	4	11	[0, 0, 0]	n/a	FR1	0	R1321M
2933.63	0.796	2150437	WORD_OFF	n/a	n/a	HORN	4	11	[0, 0, 0]	n/a	FR1	0	R1321M
2934.426	1.638	2151233	WORD	n/a	wordpools/wordpool_EN.txt	STREET	5	11	[0, 0, 0]	n/a	FR1	0	R1321M
2936.064	1.073	2152871	WORD_OFF	n/a	n/a	STREET	5	11	[0, 0, 0]	n/a	FR1	0	R1321M
2937.137	1.612	2153944	WORD	n/a	wordpools/wordpool_EN.txt	FILM	6	11	[0, 0, 0]	n/a	FR1	0	R1321M
2938.749	0.868	2155556	WORD_OFF	n/a	n/a	FILM	6	11	[0, 0, 0]	n/a	FR1	0	R1321M
2939.617	1.631	2156424	WORD	n/a	wordpools/wordpool_EN.txt	ARK	7	11	[0, 0, 0]	n/a	FR1	0	R1321M
2941.248	1.118	2158055	WORD_OFF	n/a	n/a	ARK	7	11	[0, 0, 0]	n/a	FR1	0	R1321M
2942.366	1.633	2159173	WORD	n/a	wordpools/wordpool_EN.txt	CHIN	8	11	[0, 0, 0]	n/a	FR1	0	R1321M
2943.999	1.141	2160806	WORD_OFF	n/a	n/a	CHIN	8	11	[0, 0, 0]	n/a	FR1	0	R1321M
2945.14	1.627	2161947	WORD	n/a	wordpools/wordpool_EN.txt	PEACH	9	11	[0, 0, 0]	n/a	FR1	0	R1321M
2946.767	0.821	2163574	WORD_OFF	n/a	n/a	PEACH	9	11	[0, 0, 0]	n/a	FR1	0	R1321M
2947.588	1.628	2164395	WORD	n/a	wordpools/wordpool_EN.txt	MAIL	10	11	[0, 0, 0]	n/a	FR1	0	R1321M
2949.216	0.89	2166022	WORD_OFF	n/a	n/a	MAIL	10	11	[0, 0, 0]	n/a	FR1	0	R1321M
2950.106	1.612	2166912	WORD	n/a	wordpools/wordpool_EN.txt	STOVE	11	11	[0, 0, 0]	n/a	FR1	0	R1321M
2951.718	0.879	2168524	WORD_OFF	n/a	n/a	STOVE	11	11	[0, 0, 0]	n/a	FR1	0	R1321M
2952.597	1.637	2169403	WORD	n/a	wordpools/wordpool_EN.txt	PEA	12	11	[0, 0, 0]	n/a	FR1	0	R1321M
2954.234	0.0	2171040	WORD_OFF	n/a	n/a	PEA	12	11	[0, 0, 0]	n/a	FR1	0	R1321M
2954.234	0.001	2171040	ENCODING_END	n/a	n/a	n/a	-999	11	[0, 0, 0]	n/a	FR1	0	R1321M
2954.235	0.0	2171041	DISTRACT_START	n/a	n/a	n/a	-999	11	[0, 0, 0]	n/a	FR1	0	R1321M
2954.235	0.015	2171041	START	n/a	n/a	n/a	-999	11	[-999, -999, -999]	n/a	FR1	0	R1321M
2954.25	4.218	2171056	PROB	4.218	n/a	n/a	-999	11	[1, 2, 4]	7	FR1	0	R1321M
2958.468	4.084	2175274	PROB	4.084	n/a	n/a	-999	11	[1, 5, 7]	13	FR1	0	R1321M
2962.552	4.185	2179358	PROB	4.185	n/a	n/a	-999	11	[4, 4, 6]	14	FR1	0	R1321M
2966.737	5.417	2183543	PROB	5.417	n/a	n/a	-999	11	[3, 8, 5]	16	FR1	0	R1321M
2972.154	3.09	2188959	PROB	3.09	n/a	n/a	-999	11	[2, 5, 5]	12	FR1	0	R1321M
2975.244	0.011	2192049	STOP	n/a	n/a	n/a	-999	11	[-999, -999, -999]	n/a	FR1	0	R1321M
2975.255	0.517	2192060	DISTRACT_END	n/a	n/a	n/a	-999	11	[0, 0, 0]	n/a	FR1	0	R1321M
2975.772	1.533	2192577	RETRIEVAL_ORIENT_START	n/a	n/a	n/a	-999	11	[0, 0, 0]	n/a	FR1	0	R1321M
2977.305	0.0	2194110	RETRIEVAL_ORIENT_END	n/a	n/a	n/a	-999	11	[0, 0, 0]	n/a	FR1	0	R1321M
2977.305	2.691	2194110	REC_START	n/a	n/a	n/a	-999	11	[0, 0, 0]	n/a	FR1	0	R1321M
2979.996	1.924	2196801	REC_WORD	1.924	n/a	TRAIL	-999	11	[0, 0, 0]	n/a	FR1	0	R1321M
2981.92	1.011	2198725	REC_WORD	1.011	n/a	LIP	3	11	[0, 0, 0]	n/a	FR1	0	R1321M
2982.931	24.387	2199736	REC_WORD	24.387	n/a	CHEEK	2	11	[0, 0, 0]	n/a	FR1	0	R1321M
3007.318	0.0	2224122	REC_END	n/a	n/a	n/a	-999	11	[0, 0, 0]	n/a	FR1	0	R1321M
3007.318	0.015	2224122	TRIAL_END	n/a	n/a	n/a	-999	11	[0, 0, 0]	n/a	FR1	0	R1321M
3007.333	0.0	2224137	WAITING_START	n/a	n/a	n/a	-999	12	[0, 0, 0]	n/a	FR1	0	R1321M
3007.333	0.0	2224137	TRIAL_START	n/a	n/a	n/a	-999	12	[0, 0, 0]	n/a	FR1	0	R1321M
3007.333	15.231	2224137	TRIAL	n/a	n/a	n/a	-999	12	[0, 0, 0]	n/a	FR1	0	R1321M
3022.564	0.0	2239367	WAITING_END	n/a	n/a	n/a	-999	12	[0, 0, 0]	n/a	FR1	0	R1321M
3022.564	10.429	2239367	COUNTDOWN_START	n/a	n/a	n/a	-999	12	[0, 0, 0]	n/a	FR1	0	R1321M
3032.993	0.0	2249795	COUNTDOWN_END	n/a	n/a	n/a	-999	12	[0, 0, 0]	n/a	FR1	0	R1321M
3032.993	1.24	2249795	ORIENT_START	n/a	n/a	n/a	-999	12	[0, 0, 0]	n/a	FR1	0	R1321M
3034.233	0.0	2251035	ENCODING_START	n/a	n/a	n/a	-999	12	[0, 0, 0]	n/a	FR1	0	R1321M
3034.233	0.946	2251035	ORIENT_END	n/a	n/a	n/a	-999	12	[0, 0, 0]	n/a	FR1	0	R1321M
3035.179	1.639	2251981	WORD	n/a	wordpools/wordpool_EN.txt	STORM	1	12	[0, 0, 0]	n/a	FR1	0	R1321M
3036.818	1.046	2253620	WORD_OFF	n/a	n/a	STORM	1	12	[0, 0, 0]	n/a	FR1	0	R1321M
3037.864	1.637	2254666	WORD	n/a	wordpools/wordpool_EN.txt	SHOE	2	12	[0, 0, 0]	n/a	FR1	0	R1321M
3039.501	1.122	2256303	WORD_OFF	n/a	n/a	SHOE	2	12	[0, 0, 0]	n/a	FR1	0	R1321M
3040.623	1.628	2257425	WORD	n/a	wordpools/wordpool_EN.txt	PIE	3	12	[0, 0, 0]	n/a	FR1	0	R1321M
3042.251	0.914	2259053	WORD_OFF	n/a	n/a	PIE	3	12	[0, 0, 0]	n/a	FR1	0	R1321M
3043.165	1.638	2259967	WORD	n/a	wordpools/wordpool_EN.txt	GUARD	4	12	[0, 0, 0]	n/a	FR1	0	R1321M
3044.803	1.102	2261605	WORD_OFF	n/a	n/a	GUARD	4	12	[0, 0, 0]	n/a	FR1	0	R1321M
3045.905	1.631	2262707	WORD	n/a	wordpools/wordpool_EN.txt	PASTE	5	12	[0, 0, 0]	n/a	FR1	0	R1321M
3047.536	0.791	2264338	WORD_OFF	n/a	n/a	PASTE	5	12	[0, 0, 0]	n/a	FR1	0	R1321M
3048.327	1.61	2265128	WORD	n/a	wordpools/wordpool_EN.txt	FRUIT	6	12	[0, 0, 0]	n/a	FR1	0	R1321M
3049.937	0.933	2266738	WORD_OFF	n/a	n/a	FRUIT	6	12	[0, 0, 0]	n/a	FR1	0	R1321M
3050.87	1.633	2267671	WORD	n/a	wordpools/wordpool_EN.txt	AXE	7	12	[0, 0, 0]	n/a	FR1	0	R1321M
3052.503	0.81	2269304	WORD_OFF	n/a	n/a	AXE	7	12	[0, 0, 0]	n/a	FR1	0	R1321M
3053.313	1.625	2270114	WORD	n/a	wordpools/wordpool_EN.txt	MOUTH	8	12	[0, 0, 0]	n/a	FR1	0	R1321M
3054.938	1.115	2271739	WORD_OFF	n/a	n/a	MOUTH	8	12	[0, 0, 0]	n/a	FR1	0	R1321M
3056.053	1.634	2272854	WORD	n/a	wordpools/wordpool_EN.txt	DUCK	9	12	[0, 0, 0]	n/a	FR1	0	R1321M
3057.687	0.911	2274488	WORD_OFF	n/a	n/a	DUCK	9	12	[0, 0, 0]	n/a	FR1	0	R1321M
3058.598	1.623	2275399	WORD	n/a	wordpools/wordpool_EN.txt	DEER	10	12	[0, 0, 0]	n/a	FR1	0	R1321M
3060.221	1.133	2277022	WORD_OFF	n/a	n/a	DEER	10	12	[0, 0, 0]	n/a	FR1	0	R1321M
3061.354	1.635	2278155	WORD	n/a	wordpools/wordpool_EN.txt	PLATE	11	12	[0, 0, 0]	n/a	FR1	0	R1321M
3062.989	0.81	2279790	WORD_OFF	n/a	n/a	PLATE	11	12	[0, 0, 0]	n/a	FR1	0	R1321M
3063.799	1.623	2280600	WORD	n/a	wordpools/wordpool_EN.txt	MAT	12	12	[0, 0, 0]	n/a	FR1	0	R1321M
3065.422	0.001	2282223	WORD_OFF	n/a	n/a	MAT	12	12	[0, 0, 0]	n/a	FR1	0	R1321M
3065.423	0.0	2282224	ENCODING_END	n/a	n/a	n/a	-999	12	[0, 0, 0]	n/a	FR1	0	R1321M
3065.423	0.0	2282224	DISTRACT_START	n/a	n/a	n/a	-999	12	[0, 0, 0]	n/a	FR1	0	R1321M
3065.423	0.016	2282224	START	n/a	n/a	n/a	-999	12	[-999, -999, -999]	n/a	FR1	0	R1321M
3065.439	3.917	2282240	PROB	3.917	n/a	n/a	-999	12	[9, 9, 1]	19	FR1	0	R1321M
3069.356	3.834	2286156	PROB	3.834	n/a	n/a	-999	12	[9, 1, 6]	16	FR1	0	R1321M
3073.19	8.402	2289990	PROB	8.402	n/a	n/a	-999	12	[8, 5, 9]	23	FR1	0	R1321M
3081.592	6.172	2298392	PROB	6.172	n/a	n/a	-999	12	[1, 6, 7]	15	FR1	0	R1321M
3087.764	0.014	2304563	STOP	n/a	n/a	n/a	-999	12	[-999, -999, -999]	n/a	FR1	0	R1321M
3087.778	0.659	2304577	DISTRACT_END	n/a	n/a	n/a	-999	12	[0, 0, 0]	n/a	FR1	0	R1321M
3088.437	1.54	2305236	RETRIEVAL_ORIENT_START	n/a	n/a	n/a	-999	12	[0, 0, 0]	n/a	FR1	0	R1321M
3089.977	0.0	2306776	REC_START	n/a	n/a	n/a	-999	12	[0, 0, 0]	n/a	FR1	0	R1321M
3089.977	1.588	2306776	RETRIEVAL_ORIENT_END	n/a	n/a	n/a	-999	12	[0, 0, 0]	n/a	FR1	0	R1321M
3091.565	1.107	2308364	REC_WORD	1.107	n/a	MAT	12	12	[0, 0, 0]	n/a	FR1	0	R1321M
3092.672	1.891	2309471	REC_WORD	1.891	n/a	FOOT	-999	12	[0, 0, 0]	n/a	FR1	0	R1321M
3094.563	6.492	2311362	REC_WORD	6.492	n/a	STORM	1	12	[0, 0, 0]	n/a	FR1	0	R1321M
3101.055	5.48	2317854	REC_WORD	5.48	n/a	SHADE	-999	12	[0, 0, 0]	n/a	FR1	0	R1321M
3106.535	4.243	2323334	REC_WORD	4.243	n/a	MOUTH	8	12	[0, 0, 0]	n/a	FR1	0	R1321M
3110.778	9.213	2327576	REC_WORD	9.213	n/a	PIE	3	12	[0, 0, 0]	n/a	FR1	0	R1321M
3119.991	0.0	2336789	TRIAL_END	n/a	n/a	n/a	-999	12	[0, 0, 0]	n/a	FR1	0	R1321M
3119.991	0.014	2336789	REC_END	n/a	n/a	n/a	-999	12	[0, 0, 0]	n/a	FR1	0	R1321M
3120.005	0.0	2336803	WAITING_START	n/a	n/a	n/a	-999	13	[0, 0, 0]	n/a	FR1	0	R1321M
3120.005	0.0	2336803	TRIAL_START	n/a	n/a	n/a	-999	13	[0, 0, 0]	n/a	FR1	0	R1321M
3120.005	22.95	2336803	TRIAL	n/a	n/a	n/a	-999	13	[0, 0, 0]	n/a	FR1	0	R1321M
3142.955	0.0	2359752	WAITING_END	n/a	n/a	n/a	-999	13	[0, 0, 0]	n/a	FR1	0	R1321M
3142.955	10.429	2359752	COUNTDOWN_START	n/a	n/a	n/a	-999	13	[0, 0, 0]	n/a	FR1	0	R1321M
3153.384	0.001	2370180	COUNTDOWN_END	n/a	n/a	n/a	-999	13	[0, 0, 0]	n/a	FR1	0	R1321M
3153.385	1.155	2370181	ORIENT_START	n/a	n/a	n/a	-999	13	[0, 0, 0]	n/a	FR1	0	R1321M
3154.54	0.0	2371336	ORIENT_END	n/a	n/a	n/a	-999	13	[0, 0, 0]	n/a	FR1	0	R1321M
3154.54	0.88	2371336	ENCODING_START	n/a	n/a	n/a	-999	13	[0, 0, 0]	n/a	FR1	0	R1321M
3155.42	1.637	2372216	WORD	n/a	wordpools/wordpool_EN.txt	FOAM	1	13	[0, 0, 0]	n/a	FR1	0	R1321M
3157.057	1.052	2373853	WORD_OFF	n/a	n/a	FOAM	1	13	[0, 0, 0]	n/a	FR1	0	R1321M
3158.109	1.616	2374905	WORD	n/a	wordpools/wordpool_EN.txt	HOSE	2	13	[0, 0, 0]	n/a	FR1	0	R1321M
3159.725	0.982	2376521	WORD_OFF	n/a	n/a	HOSE	2	13	[0, 0, 0]	n/a	FR1	0	R1321M
3160.707	1.634	2377503	WORD	n/a	wordpools/wordpool_EN.txt	JET	3	13	[0, 0, 0]	n/a	FR1	0	R1321M
3162.341	0.793	2379137	WORD_OFF	n/a	n/a	JET	3	13	[0, 0, 0]	n/a	FR1	0	R1321M
3163.134	1.625	2379930	WORD	n/a	wordpools/wordpool_EN.txt	CAKE	4	13	[0, 0, 0]	n/a	FR1	0	R1321M
3164.759	0.897	2381555	WORD_OFF	n/a	n/a	CAKE	4	13	[0, 0, 0]	n/a	FR1	0	R1321M
3165.656	1.636	2382452	WORD	n/a	wordpools/wordpool_EN.txt	CALF	5	13	[0, 0, 0]	n/a	FR1	0	R1321M
3167.292	0.923	2384087	WORD_OFF	n/a	n/a	CALF	5	13	[0, 0, 0]	n/a	FR1	0	R1321M
3168.215	1.612	2385010	WORD	n/a	wordpools/wordpool_EN.txt	POLE	6	13	[0, 0, 0]	n/a	FR1	0	R1321M
3169.827	1.062	2386622	WORD_OFF	n/a	n/a	POLE	6	13	[0, 0, 0]	n/a	FR1	0	R1321M
3170.889	1.621	2387684	WORD	n/a	wordpools/wordpool_EN.txt	PARK	7	13	[0, 0, 0]	n/a	FR1	0	R1321M
3172.51	1.021	2389305	WORD_OFF	n/a	n/a	PARK	7	13	[0, 0, 0]	n/a	FR1	0	R1321M
3173.531	1.629	2390326	WORD	n/a	wordpools/wordpool_EN.txt	FLAG	8	13	[0, 0, 0]	n/a	FR1	0	R1321M
3175.16	0.754	2391955	WORD_OFF	n/a	n/a	FLAG	8	13	[0, 0, 0]	n/a	FR1	0	R1321M
3175.914	1.63	2392709	WORD	n/a	wordpools/wordpool_EN.txt	CUP	9	13	[0, 0, 0]	n/a	FR1	0	R1321M
3177.544	1.084	2394339	WORD_OFF	n/a	n/a	CUP	9	13	[0, 0, 0]	n/a	FR1	0	R1321M
3178.628	1.633	2395423	WORD	n/a	wordpools/wordpool_EN.txt	DIME	10	13	[0, 0, 0]	n/a	FR1	0	R1321M
3180.261	1.054	2397056	WORD_OFF	n/a	n/a	DIME	10	13	[0, 0, 0]	n/a	FR1	0	R1321M
3181.315	1.631	2398110	WORD	n/a	wordpools/wordpool_EN.txt	PHONE	11	13	[0, 0, 0]	n/a	FR1	0	R1321M
3182.946	0.762	2399741	WORD_OFF	n/a	n/a	PHONE	11	13	[0, 0, 0]	n/a	FR1	0	R1321M
3183.708	1.621	2400503	WORD	n/a	wordpools/wordpool_EN.txt	PIT	12	13	[0, 0, 0]	n/a	FR1	0	R1321M
3185.329	0.0	2402124	WORD_OFF	n/a	n/a	PIT	12	13	[0, 0, 0]	n/a	FR1	0	R1321M
3185.329	0.001	2402124	ENCODING_END	n/a	n/a	n/a	-999	13	[0, 0, 0]	n/a	FR1	0	R1321M
3185.33	0.0	2402125	DISTRACT_START	n/a	n/a	n/a	-999	13	[0, 0, 0]	n/a	FR1	0	R1321M
3185.33	0.015	2402125	START	n/a	n/a	n/a	-999	13	[-999, -999, -999]	n/a	FR1	0	R1321M
3185.345	4.134	2402140	PROB	4.134	n/a	n/a	-999	13	[1, 7, 9]	17	FR1	0	R1321M
3189.479	3.651	2406273	PROB	3.651	n/a	n/a	-999	13	[8, 1, 9]	18	FR1	0	R1321M
3193.13	4.217	2409924	PROB	4.217	n/a	n/a	-999	13	[2, 2, 6]	10	FR1	0	R1321M
3197.347	3.285	2414141	PROB	3.285	n/a	n/a	-999	13	[3, 3, 1]	7	FR1	0	R1321M
3200.632	3.168	2417426	PROB	3.168	n/a	n/a	-999	13	[4, 1, 3]	8	FR1	0	R1321M
3203.8	3.828	2420594	PROB	3.828	n/a	n/a	-999	13	[3, 3, 7]	13	FR1	0	R1321M
3207.628	0.022	2424421	STOP	n/a	n/a	n/a	-999	13	[-999, -999, -999]	n/a	FR1	0	R1321M
3207.65	0.652	2424443	DISTRACT_END	n/a	n/a	n/a	-999	13	[0, 0, 0]	n/a	FR1	0	R1321M
3208.302	1.715	2425095	RETRIEVAL_ORIENT_START	n/a	n/a	n/a	-999	13	[0, 0, 0]	n/a	FR1	0	R1321M
3210.017	0.0	2426810	REC_START	n/a	n/a	n/a	-999	13	[0, 0, 0]	n/a	FR1	0	R1321M
3210.017	1.378	2426810	RETRIEVAL_ORIENT_END	n/a	n/a	n/a	-999	13	[0, 0, 0]	n/a	FR1	0	R1321M
3211.395	3.475	2428188	REC_WORD	3.475	n/a	CALF	5	13	[0, 0, 0]	n/a	FR1	0	R1321M
3214.87	8.309	2431663	REC_WORD	8.309	n/a	PIT	12	13	[0, 0, 0]	n/a	FR1	0	R1321M
3223.179	8.772	2439972	REC_WORD	8.772	n/a	BARK	-999	13	[0, 0, 0]	n/a	FR1	0	R1321M
3231.951	8.08	2448743	REC_WORD	8.08	n/a	PHONE	11	13	[0, 0, 0]	n/a	FR1	0	R1321M
3240.031	0.001	2456823	REC_END	n/a	n/a	n/a	-999	13	[0, 0, 0]	n/a	FR1	0	R1321M
3240.032	0.013	2456824	TRIAL_END	n/a	n/a	n/a	-999	13	[0, 0, 0]	n/a	FR1	0	R1321M
3240.045	0.001	2456837	TRIAL_START	n/a	n/a	n/a	-999	14	[0, 0, 0]	n/a	FR1	0	R1321M
3240.046	0.0	2456838	WAITING_START	n/a	n/a	n/a	-999	14	[0, 0, 0]	n/a	FR1	0	R1321M
3240.046	27.949	2456838	TRIAL	n/a	n/a	n/a	-999	14	[0, 0, 0]	n/a	FR1	0	R1321M
3267.995	0.0	2484785	WAITING_END	n/a	n/a	n/a	-999	14	[0, 0, 0]	n/a	FR1	0	R1321M
3267.995	10.43	2484785	COUNTDOWN_START	n/a	n/a	n/a	-999	14	[0, 0, 0]	n/a	FR1	0	R1321M
3278.425	0.0	2495215	COUNTDOWN_END	n/a	n/a	n/a	-999	14	[0, 0, 0]	n/a	FR1	0	R1321M
3278.425	1.022	2495215	ORIENT_START	n/a	n/a	n/a	-999	14	[0, 0, 0]	n/a	FR1	0	R1321M
3279.447	0.0	2496237	ORIENT_END	n/a	n/a	n/a	-999	14	[0, 0, 0]	n/a	FR1	0	R1321M
3279.447	1.018	2496237	ENCODING_START	n/a	n/a	n/a	-999	14	[0, 0, 0]	n/a	FR1	0	R1321M
3280.465	1.633	2497255	WORD	n/a	wordpools/wordpool_EN.txt	WOOD	1	14	[0, 0, 0]	n/a	FR1	0	R1321M
3282.098	0.773	2498888	WORD_OFF	n/a	n/a	WOOD	1	14	[0, 0, 0]	n/a	FR1	0	R1321M
3282.871	1.627	2499661	WORD	n/a	wordpools/wordpool_EN.txt	FLEA	2	14	[0, 0, 0]	n/a	FR1	0	R1321M
3284.498	0.769	2501288	WORD_OFF	n/a	n/a	FLEA	2	14	[0, 0, 0]	n/a	FR1	0	R1321M
3285.267	1.615	2502057	WORD	n/a	wordpools/wordpool_EN.txt	BALL	3	14	[0, 0, 0]	n/a	FR1	0	R1321M
3286.882	1.092	2503671	WORD_OFF	n/a	n/a	BALL	3	14	[0, 0, 0]	n/a	FR1	0	R1321M
3287.974	1.625	2504763	WORD	n/a	wordpools/wordpool_EN.txt	SIGN	4	14	[0, 0, 0]	n/a	FR1	0	R1321M
3289.599	0.946	2506388	WORD_OFF	n/a	n/a	SIGN	4	14	[0, 0, 0]	n/a	FR1	0	R1321M
3290.545	1.621	2507334	WORD	n/a	wordpools/wordpool_EN.txt	BOX	5	14	[0, 0, 0]	n/a	FR1	0	R1321M
3292.166	1.038	2508955	WORD_OFF	n/a	n/a	BOX	5	14	[0, 0, 0]	n/a	FR1	0	R1321M
3293.204	1.614	2509993	WORD	n/a	wordpools/wordpool_EN.txt	DOOR	6	14	[0, 0, 0]	n/a	FR1	0	R1321M
3294.818	1.139	2511607	WORD_OFF	n/a	n/a	DOOR	6	14	[0, 0, 0]	n/a	FR1	0	R1321M
3295.957	1.627	2512746	WORD	n/a	wordpools/wordpool_EN.txt	CLAY	7	14	[0, 0, 0]	n/a	FR1	0	R1321M
3297.584	0.889	2514373	WORD_OFF	n/a	n/a	CLAY	7	14	[0, 0, 0]	n/a	FR1	0	R1321M
3298.473	1.628	2515262	WORD	n/a	wordpools/wordpool_EN.txt	BUSH	8	14	[0, 0, 0]	n/a	FR1	0	R1321M
3300.101	1.005	2516890	WORD_OFF	n/a	n/a	BUSH	8	14	[0, 0, 0]	n/a	FR1	0	R1321M
3301.106	1.63	2517895	WORD	n/a	wordpools/wordpool_EN.txt	CAGE	9	14	[0, 0, 0]	n/a	FR1	0	R1321M
3302.736	0.834	2519525	WORD_OFF	n/a	n/a	CAGE	9	14	[0, 0, 0]	n/a	FR1	0	R1321M
3303.57	1.632	2520359	WORD	n/a	wordpools/wordpool_EN.txt	CORN	10	14	[0, 0, 0]	n/a	FR1	0	R1321M
3305.202	0.935	2521991	WORD_OFF	n/a	n/a	CORN	10	14	[0, 0, 0]	n/a	FR1	0	R1321M
3306.137	1.633	2522925	WORD	n/a	wordpools/wordpool_EN.txt	COUCH	11	14	[0, 0, 0]	n/a	FR1	0	R1321M
3307.77	0.896	2524558	WORD_OFF	n/a	n/a	COUCH	11	14	[0, 0, 0]	n/a	FR1	0	R1321M
3308.666	1.637	2525454	WORD	n/a	wordpools/wordpool_EN.txt	ROSE	12	14	[0, 0, 0]	n/a	FR1	0	R1321M
3310.303	0.0	2527091	WORD_OFF	n/a	n/a	ROSE	12	14	[0, 0, 0]	n/a	FR1	0	R1321M
3310.303	0.001	2527091	ENCODING_END	n/a	n/a	n/a	-999	14	[0, 0, 0]	n/a	FR1	0	R1321M
3310.304	0.0	2527092	DISTRACT_START	n/a	n/a	n/a	-999	14	[0, 0, 0]	n/a	FR1	0	R1321M
3310.304	0.015	2527092	START	n/a	n/a	n/a	-999	14	[-999, -999, -999]	n/a	FR1	0	R1321M
3310.319	3.918	2527107	PROB	3.918	n/a	n/a	-999	14	[6, 1, 5]	12	FR1	0	R1321M
3314.237	5.168	2531025	PROB	5.168	n/a	n/a	-999	14	[9, 5, 2]	16	FR1	0	R1321M
3319.405	4.351	2536193	PROB	4.351	n/a	n/a	-999	14	[8, 9, 2]	19	FR1	0	R1321M
3323.756	6.959	2540544	PROB	6.959	n/a	n/a	-999	14	[9, 7, 1]	17	FR1	0	R1321M
3330.715	0.01	2547502	STOP	n/a	n/a	n/a	-999	14	[-999, -999, -999]	n/a	FR1	0	R1321M
3330.725	0.535	2547512	DISTRACT_END	n/a	n/a	n/a	-999	14	[0, 0, 0]	n/a	FR1	0	R1321M
3331.26	1.715	2548047	RETRIEVAL_ORIENT_START	n/a	n/a	n/a	-999	14	[0, 0, 0]	n/a	FR1	0	R1321M
3332.975	0.0	2549762	RETRIEVAL_ORIENT_END	n/a	n/a	n/a	-999	14	[0, 0, 0]	n/a	FR1	0	R1321M
3332.975	1.598	2549762	REC_START	n/a	n/a	n/a	-999	14	[0, 0, 0]	n/a	FR1	0	R1321M
3334.573	1.06	2551360	REC_WORD	1.06	n/a	CAGE	9	14	[0, 0, 0]	n/a	FR1	0	R1321M
3335.633	6.599	2552420	REC_WORD	6.599	n/a	COUCH	11	14	[0, 0, 0]	n/a	FR1	0	R1321M
3342.232	4.62	2559019	REC_WORD	4.62	n/a	WOOD	1	14	[0, 0, 0]	n/a	FR1	0	R1321M
3346.852	4.526	2563638	REC_WORD	4.526	n/a	DOOR	6	14	[0, 0, 0]	n/a	FR1	0	R1321M
3351.378	1.765	2568164	REC_WORD	1.765	n/a	BOX	5	14	[0, 0, 0]	n/a	FR1	0	R1321M
3353.143	9.844	2569929	REC_WORD	9.844	n/a	BOX	5	14	[0, 0, 0]	n/a	FR1	0	R1321M
3362.987	0.0	2579773	REC_END	n/a	n/a	n/a	-999	14	[0, 0, 0]	n/a	FR1	0	R1321M
3362.987	0.015	2579773	TRIAL_END	n/a	n/a	n/a	-999	14	[0, 0, 0]	n/a	FR1	0	R1321M
3363.002	0.001	2579788	TRIAL_START	n/a	n/a	n/a	-999	15	[0, 0, 0]	n/a	FR1	0	R1321M
3363.003	0.0	2579789	TRIAL	n/a	n/a	n/a	-999	15	[0, 0, 0]	n/a	FR1	0	R1321M
3363.003	5.261	2579789	WAITING_START	n/a	n/a	n/a	-999	15	[0, 0, 0]	n/a	FR1	0	R1321M
3368.264	0.001	2585049	WAITING_END	n/a	n/a	n/a	-999	15	[0, 0, 0]	n/a	FR1	0	R1321M
3368.265	10.428	2585050	COUNTDOWN_START	n/a	n/a	n/a	-999	15	[0, 0, 0]	n/a	FR1	0	R1321M
3378.693	0.0	2595478	COUNTDOWN_END	n/a	n/a	n/a	-999	15	[0, 0, 0]	n/a	FR1	0	R1321M
3378.693	1.191	2595478	ORIENT_START	n/a	n/a	n/a	-999	15	[0, 0, 0]	n/a	FR1	0	R1321M
3379.884	0.001	2596669	ORIENT_END	n/a	n/a	n/a	-999	15	[0, 0, 0]	n/a	FR1	0	R1321M
3379.885	1.0	2596670	ENCODING_START	n/a	n/a	n/a	-999	15	[0, 0, 0]	n/a	FR1	0	R1321M
3380.885	1.632	2597670	WORD	n/a	wordpools/wordpool_EN.txt	SLEEVE	1	15	[0, 0, 0]	n/a	FR1	0	R1321M
3382.517	0.804	2599302	WORD_OFF	n/a	n/a	SLEEVE	1	15	[0, 0, 0]	n/a	FR1	0	R1321M
3383.321	1.614	2600106	WORD	n/a	wordpools/wordpool_EN.txt	DRUM	2	15	[0, 0, 0]	n/a	FR1	0	R1321M
3384.935	0.83	2601720	WORD_OFF	n/a	n/a	DRUM	2	15	[0, 0, 0]	n/a	FR1	0	R1321M
3385.765	1.636	2602549	WORD	n/a	wordpools/wordpool_EN.txt	GRASS	3	15	[0, 0, 0]	n/a	FR1	0	R1321M
3387.401	1.127	2604185	WORD_OFF	n/a	n/a	GRASS	3	15	[0, 0, 0]	n/a	FR1	0	R1321M
3388.528	1.624	2605312	WORD	n/a	wordpools/wordpool_EN.txt	CLIFF	4	15	[0, 0, 0]	n/a	FR1	0	R1321M
3390.152	1.109	2606936	WORD_OFF	n/a	n/a	CLIFF	4	15	[0, 0, 0]	n/a	FR1	0	R1321M
3391.261	1.626	2608045	WORD	n/a	wordpools/wordpool_EN.txt	PIN	5	15	[0, 0, 0]	n/a	FR1	0	R1321M
3392.887	0.897	2609671	WORD_OFF	n/a	n/a	PIN	5	15	[0, 0, 0]	n/a	FR1	0	R1321M
3393.784	1.635	2610568	WORD	n/a	wordpools/wordpool_EN.txt	TOOL	6	15	[0, 0, 0]	n/a	FR1	0	R1321M
3395.419	1.083	2612203	WORD_OFF	n/a	n/a	TOOL	6	15	[0, 0, 0]	n/a	FR1	0	R1321M
3396.502	1.635	2613286	WORD	n/a	wordpools/wordpool_EN.txt	KITE	7	15	[0, 0, 0]	n/a	FR1	0	R1321M
3398.137	0.892	2614921	WORD_OFF	n/a	n/a	KITE	7	15	[0, 0, 0]	n/a	FR1	0	R1321M
3399.029	1.625	2615813	WORD	n/a	wordpools/wordpool_EN.txt	TOE	8	15	[0, 0, 0]	n/a	FR1	0	R1321M
3400.654	1.148	2617438	WORD_OFF	n/a	n/a	TOE	8	15	[0, 0, 0]	n/a	FR1	0	R1321M
3401.802	1.636	2618586	WORD	n/a	wordpools/wordpool_EN.txt	HEART	9	15	[0, 0, 0]	n/a	FR1	0	R1321M
3403.438	0.861	2620222	WORD_OFF	n/a	n/a	HEART	9	15	[0, 0, 0]	n/a	FR1	0	R1321M
3404.299	1.607	2621083	WORD	n/a	wordpools/wordpool_EN.txt	FOX	10	15	[0, 0, 0]	n/a	FR1	0	R1321M
3405.906	0.75	2622689	WORD_OFF	n/a	n/a	FOX	10	15	[0, 0, 0]	n/a	FR1	0	R1321M
3406.656	1.633	2623439	WORD	n/a	wordpools/wordpool_EN.txt	MAZE	11	15	[0, 0, 0]	n/a	FR1	0	R1321M
3408.289	1.143	2625072	WORD_OFF	n/a	n/a	MAZE	11	15	[0, 0, 0]	n/a	FR1	0	R1321M
3409.432	1.624	2626215	WORD	n/a	wordpools/wordpool_EN.txt	STRAW	12	15	[0, 0, 0]	n/a	FR1	0	R1321M
3411.056	0.0	2627839	WORD_OFF	n/a	n/a	STRAW	12	15	[0, 0, 0]	n/a	FR1	0	R1321M
3411.056	0.001	2627839	ENCODING_END	n/a	n/a	n/a	-999	15	[0, 0, 0]	n/a	FR1	0	R1321M
3411.057	0.0	2627840	DISTRACT_START	n/a	n/a	n/a	-999	15	[0, 0, 0]	n/a	FR1	0	R1321M
3411.057	0.015	2627840	START	n/a	n/a	n/a	-999	15	[-999, -999, -999]	n/a	FR1	0	R1321M
3411.072	5.719	2627855	PROB	5.719	n/a	n/a	-999	15	[6, 9, 8]	23	FR1	0	R1321M
3416.791	3.151	2633574	PROB	3.151	n/a	n/a	-999	15	[7, 3, 1]	11	FR1	0	R1321M
3419.942	3.199	2636725	PROB	3.199	n/a	n/a	-999	15	[2, 2, 2]	6	FR1	0	R1321M
3423.141	6.753	2639924	PROB	6.753	n/a	n/a	-999	15	[6, 7, 5]	18	FR1	0	R1321M
3429.894	3.612	2646676	PROB	3.612	n/a	n/a	-999	15	[8, 5, 5]	18	FR1	0	R1321M
3433.506	0.021	2650288	STOP	n/a	n/a	n/a	-999	15	[-999, -999, -999]	n/a	FR1	0	R1321M
3433.527	0.665	2650309	DISTRACT_END	n/a	n/a	n/a	-999	15	[0, 0, 0]	n/a	FR1	0	R1321M
3434.192	1.536	2650974	RETRIEVAL_ORIENT_START	n/a	n/a	n/a	-999	15	[0, 0, 0]	n/a	FR1	0	R1321M
3435.728	0.001	2652510	RETRIEVAL_ORIENT_END	n/a	n/a	n/a	-999	15	[0, 0, 0]	n/a	FR1	0	R1321M
3435.729	3.103	2652511	REC_START	n/a	n/a	n/a	-999	15	[0, 0, 0]	n/a	FR1	0	R1321M
3438.832	3.587	2655614	REC_WORD	3.587	n/a	PIN	5	15	[0, 0, 0]	n/a	FR1	0	R1321M
3442.419	5.06	2659201	REC_WORD	5.06	n/a	CLIFF	4	15	[0, 0, 0]	n/a	FR1	0	R1321M
3447.479	3.274	2664260	REC_WORD	3.274	n/a	HEART	9	15	[0, 0, 0]	n/a	FR1	0	R1321M
3450.753	13.578	2667534	REC_WORD	13.578	n/a	TOE	8	15	[0, 0, 0]	n/a	FR1	0	R1321M
3464.331	1.411	2681112	REC_WORD	1.411	n/a	DRUM	2	15	[0, 0, 0]	n/a	FR1	0	R1321M
3465.742	0.0	2682522	REC_END	n/a	n/a	n/a	-999	15	[0, 0, 0]	n/a	FR1	0	R1321M
3465.742	0.017	2682522	TRIAL_END	n/a	n/a	n/a	-999	15	[0, 0, 0]	n/a	FR1	0	R1321M
3465.759	0.001	2682539	TRIAL_START	n/a	n/a	n/a	-999	16	[0, 0, 0]	n/a	FR1	0	R1321M
3465.76	0.0	2682540	TRIAL	n/a	n/a	n/a	-999	16	[0, 0, 0]	n/a	FR1	0	R1321M
3465.76	47.532	2682540	WAITING_START	n/a	n/a	n/a	-999	16	[0, 0, 0]	n/a	FR1	0	R1321M
3513.292	0.001	2730070	WAITING_END	n/a	n/a	n/a	-999	16	[0, 0, 0]	n/a	FR1	0	R1321M
3513.293	10.429	2730071	COUNTDOWN_START	n/a	n/a	n/a	-999	16	[0, 0, 0]	n/a	FR1	0	R1321M
3523.722	0.0	2740500	COUNTDOWN_END	n/a	n/a	n/a	-999	16	[0, 0, 0]	n/a	FR1	0	R1321M
3523.722	1.157	2740500	ORIENT_START	n/a	n/a	n/a	-999	16	[0, 0, 0]	n/a	FR1	0	R1321M
3524.879	0.0	2741656	ORIENT_END	n/a	n/a	n/a	-999	16	[0, 0, 0]	n/a	FR1	0	R1321M
3524.879	1.02	2741656	ENCODING_START	n/a	n/a	n/a	-999	16	[0, 0, 0]	n/a	FR1	0	R1321M
3525.899	1.629	2742676	WORD	n/a	wordpools/wordpool_EN.txt	FACE	1	16	[0, 0, 0]	n/a	FR1	0	R1321M
3527.528	1.095	2744305	WORD_OFF	n/a	n/a	FACE	1	16	[0, 0, 0]	n/a	FR1	0	R1321M
3528.623	1.622	2745400	WORD	n/a	wordpools/wordpool_EN.txt	HAWK	2	16	[0, 0, 0]	n/a	FR1	0	R1321M
3530.245	0.78	2747022	WORD_OFF	n/a	n/a	HAWK	2	16	[0, 0, 0]	n/a	FR1	0	R1321M
3531.025	1.638	2747802	WORD	n/a	wordpools/wordpool_EN.txt	SKUNK	3	16	[0, 0, 0]	n/a	FR1	0	R1321M
3532.663	0.755	2749440	WORD_OFF	n/a	n/a	SKUNK	3	16	[0, 0, 0]	n/a	FR1	0	R1321M
3533.418	1.628	2750195	WORD	n/a	wordpools/wordpool_EN.txt	MULE	4	16	[0, 0, 0]	n/a	FR1	0	R1321M
3535.046	1.078	2751823	WORD_OFF	n/a	n/a	MULE	4	16	[0, 0, 0]	n/a	FR1	0	R1321M
3536.124	1.624	2752901	WORD	n/a	wordpools/wordpool_EN.txt	CROW	5	16	[0, 0, 0]	n/a	FR1	0	R1321M
3537.748	0.826	2754525	WORD_OFF	n/a	n/a	CROW	5	16	[0, 0, 0]	n/a	FR1	0	R1321M
3538.574	1.623	2755351	WORD	n/a	wordpools/wordpool_EN.txt	TEETH	6	16	[0, 0, 0]	n/a	FR1	0	R1321M
3540.197	1.038	2756974	WORD_OFF	n/a	n/a	TEETH	6	16	[0, 0, 0]	n/a	FR1	0	R1321M
3541.235	1.631	2758012	WORD	n/a	wordpools/wordpool_EN.txt	JUDGE	7	16	[0, 0, 0]	n/a	FR1	0	R1321M
3542.866	0.844	2759643	WORD_OFF	n/a	n/a	JUDGE	7	16	[0, 0, 0]	n/a	FR1	0	R1321M
3543.71	1.622	2760487	WORD	n/a	wordpools/wordpool_EN.txt	DOLL	8	16	[0, 0, 0]	n/a	FR1	0	R1321M
3545.332	0.781	2762108	WORD_OFF	n/a	n/a	DOLL	8	16	[0, 0, 0]	n/a	FR1	0	R1321M
3546.113	1.637	2762889	WORD	n/a	wordpools/wordpool_EN.txt	CLOCK	9	16	[0, 0, 0]	n/a	FR1	0	R1321M
3547.75	0.896	2764526	WORD_OFF	n/a	n/a	CLOCK	9	16	[0, 0, 0]	n/a	FR1	0	R1321M
3548.646	1.637	2765422	WORD	n/a	wordpools/wordpool_EN.txt	BADGE	10	16	[0, 0, 0]	n/a	FR1	0	R1321M
3550.283	0.844	2767059	WORD_OFF	n/a	n/a	BADGE	10	16	[0, 0, 0]	n/a	FR1	0	R1321M
3551.127	1.624	2767903	WORD	n/a	wordpools/wordpool_EN.txt	PURSE	11	16	[0, 0, 0]	n/a	FR1	0	R1321M
3552.751	0.927	2769527	WORD_OFF	n/a	n/a	PURSE	11	16	[0, 0, 0]	n/a	FR1	0	R1321M
3553.678	1.622	2770454	WORD	n/a	wordpools/wordpool_EN.txt	BOWL	12	16	[0, 0, 0]	n/a	FR1	0	R1321M
3555.3	0.001	2772076	WORD_OFF	n/a	n/a	BOWL	12	16	[0, 0, 0]	n/a	FR1	0	R1321M
3555.301	0.0	2772077	DISTRACT_START	n/a	n/a	n/a	-999	16	[0, 0, 0]	n/a	FR1	0	R1321M
3555.301	0.0	2772077	ENCODING_END	n/a	n/a	n/a	-999	16	[0, 0, 0]	n/a	FR1	0	R1321M
3555.301	0.016	2772077	START	n/a	n/a	n/a	-999	16	[-999, -999, -999]	n/a	FR1	0	R1321M
3555.317	5.718	2772093	PROB	5.718	n/a	n/a	-999	16	[7, 7, 8]	22	FR1	0	R1321M
3561.035	4.567	2777811	PROB	4.567	n/a	n/a	-999	16	[7, 5, 2]	14	FR1	0	R1321M
3565.602	5.484	2782377	PROB	5.484	n/a	n/a	-999	16	[5, 2, 2]	9	FR1	0	R1321M
3571.086	4.684	2787861	PROB	4.684	n/a	n/a	-999	16	[3, 9, 3]	15	FR1	0	R1321M
3575.77	0.019	2792545	STOP	n/a	n/a	n/a	-999	16	[-999, -999, -999]	n/a	FR1	0	R1321M
3575.789	0.552	2792564	DISTRACT_END	n/a	n/a	n/a	-999	16	[0, 0, 0]	n/a	FR1	0	R1321M
3576.341	1.548	2793116	RETRIEVAL_ORIENT_START	n/a	n/a	n/a	-999	16	[0, 0, 0]	n/a	FR1	0	R1321M
3577.889	0.0	2794664	RETRIEVAL_ORIENT_END	n/a	n/a	n/a	-999	16	[0, 0, 0]	n/a	FR1	0	R1321M
3577.889	0.918	2794664	REC_START	n/a	n/a	n/a	-999	16	[0, 0, 0]	n/a	FR1	0	R1321M
3578.807	0.184	2795582	REC_WORD_VV	0.184	n/a	<>	-999	16	[0, 0, 0]	n/a	FR1	0	R1321M
3578.991	1.244	2795766	REC_WORD	1.244	n/a	FACE	1	16	[0, 0, 0]	n/a	FR1	0	R1321M
3580.235	1.526	2797010	REC_WORD	1.526	n/a	HAWK	2	16	[0, 0, 0]	n/a	FR1	0	R1321M
3581.761	1.224	2798536	REC_WORD	1.224	n/a	BADGE	10	16	[0, 0, 0]	n/a	FR1	0	R1321M
3582.985	10.726	2799760	REC_WORD	10.726	n/a	TEETH	6	16	[0, 0, 0]	n/a	FR1	0	R1321M
3593.711	2.356	2810485	REC_WORD	2.356	n/a	BOWL	12	16	[0, 0, 0]	n/a	FR1	0	R1321M
3596.067	11.837	2812841	REC_WORD	11.837	n/a	PURSE	11	16	[0, 0, 0]	n/a	FR1	0	R1321M
3607.904	0.0	2824677	REC_END	n/a	n/a	n/a	-999	16	[0, 0, 0]	n/a	FR1	0	R1321M
3607.904	0.014	2824677	TRIAL_END	n/a	n/a	n/a	-999	16	[0, 0, 0]	n/a	FR1	0	R1321M
3607.918	0.0	2824691	TRIAL_START	n/a	n/a	n/a	-999	17	[0, 0, 0]	n/a	FR1	0	R1321M
3607.918	0.0	2824691	TRIAL	n/a	n/a	n/a	-999	17	[0, 0, 0]	n/a	FR1	0	R1321M
3607.918	12.162	2824691	WAITING_START	n/a	n/a	n/a	-999	17	[0, 0, 0]	n/a	FR1	0	R1321M
3620.08	0.0	2836853	COUNTDOWN_START	n/a	n/a	n/a	-999	17	[0, 0, 0]	n/a	FR1	0	R1321M
3620.08	10.428	2836853	WAITING_END	n/a	n/a	n/a	-999	17	[0, 0, 0]	n/a	FR1	0	R1321M
3630.508	0.001	2847280	COUNTDOWN_END	n/a	n/a	n/a	-999	17	[0, 0, 0]	n/a	FR1	0	R1321M
3630.509	1.106	2847281	ORIENT_START	n/a	n/a	n/a	-999	17	[0, 0, 0]	n/a	FR1	0	R1321M
3631.615	0.001	2848387	ORIENT_END	n/a	n/a	n/a	-999	17	[0, 0, 0]	n/a	FR1	0	R1321M
3631.616	1.092	2848388	ENCODING_START	n/a	n/a	n/a	-999	17	[0, 0, 0]	n/a	FR1	0	R1321M
3632.708	1.624	2849480	WORD	n/a	wordpools/wordpool_EN.txt	PIG	1	17	[0, 0, 0]	n/a	FR1	0	R1321M
3634.332	0.781	2851104	WORD_OFF	n/a	n/a	PIG	1	17	[0, 0, 0]	n/a	FR1	0	R1321M
3635.113	1.621	2851885	WORD	n/a	wordpools/wordpool_EN.txt	COIN	2	17	[0, 0, 0]	n/a	FR1	0	R1321M
3636.734	0.872	2853506	WORD_OFF	n/a	n/a	COIN	2	17	[0, 0, 0]	n/a	FR1	0	R1321M
3637.606	1.627	2854378	WORD	n/a	wordpools/wordpool_EN.txt	HOUSE	3	17	[0, 0, 0]	n/a	FR1	0	R1321M
3639.233	0.844	2856005	WORD_OFF	n/a	n/a	HOUSE	3	17	[0, 0, 0]	n/a	FR1	0	R1321M
3640.077	1.623	2856849	WORD	n/a	wordpools/wordpool_EN.txt	RUG	4	17	[0, 0, 0]	n/a	FR1	0	R1321M
3641.7	1.06	2858472	WORD_OFF	n/a	n/a	RUG	4	17	[0, 0, 0]	n/a	FR1	0	R1321M
3642.76	1.624	2859532	WORD	n/a	wordpools/wordpool_EN.txt	WORM	5	17	[0, 0, 0]	n/a	FR1	0	R1321M
3644.384	0.864	2861155	WORD_OFF	n/a	n/a	WORM	5	17	[0, 0, 0]	n/a	FR1	0	R1321M
3645.248	1.621	2862019	WORD	n/a	wordpools/wordpool_EN.txt	ROOF	6	17	[0, 0, 0]	n/a	FR1	0	R1321M
3646.869	0.898	2863640	WORD_OFF	n/a	n/a	ROOF	6	17	[0, 0, 0]	n/a	FR1	0	R1321M
3647.767	1.635	2864538	WORD	n/a	wordpools/wordpool_EN.txt	CAR	7	17	[0, 0, 0]	n/a	FR1	0	R1321M
3649.402	0.841	2866173	WORD_OFF	n/a	n/a	CAR	7	17	[0, 0, 0]	n/a	FR1	0	R1321M
3650.243	1.627	2867014	WORD	n/a	wordpools/wordpool_EN.txt	MILK	8	17	[0, 0, 0]	n/a	FR1	0	R1321M
3651.87	0.985	2868641	WORD_OFF	n/a	n/a	MILK	8	17	[0, 0, 0]	n/a	FR1	0	R1321M
3652.855	1.631	2869626	WORD	n/a	wordpools/wordpool_EN.txt	SMOKE	9	17	[0, 0, 0]	n/a	FR1	0	R1321M
3654.486	1.076	2871257	WORD_OFF	n/a	n/a	SMOKE	9	17	[0, 0, 0]	n/a	FR1	0	R1321M
3655.562	1.625	2872333	WORD	n/a	wordpools/wordpool_EN.txt	GLASS	10	17	[0, 0, 0]	n/a	FR1	0	R1321M
3657.187	0.975	2873958	WORD_OFF	n/a	n/a	GLASS	10	17	[0, 0, 0]	n/a	FR1	0	R1321M
3658.162	1.626	2874933	WORD	n/a	wordpools/wordpool_EN.txt	SHELL	11	17	[0, 0, 0]	n/a	FR1	0	R1321M
3659.788	0.827	2876559	WORD_OFF	n/a	n/a	SHELL	11	17	[0, 0, 0]	n/a	FR1	0	R1321M
3660.615	1.623	2877386	WORD	n/a	wordpools/wordpool_EN.txt	HAT	12	17	[0, 0, 0]	n/a	FR1	0	R1321M
3662.238	0.0	2879009	WORD_OFF	n/a	n/a	HAT	12	17	[0, 0, 0]	n/a	FR1	0	R1321M
3662.238	0.001	2879009	ENCODING_END	n/a	n/a	n/a	-999	17	[0, 0, 0]	n/a	FR1	0	R1321M
3662.239	0.0	2879010	DISTRACT_START	n/a	n/a	n/a	-999	17	[0, 0, 0]	n/a	FR1	0	R1321M
3662.239	0.015	2879010	START	n/a	n/a	n/a	-999	17	[-999, -999, -999]	n/a	FR1	0	R1321M
3662.254	4.734	2879025	PROB	4.734	n/a	n/a	-999	17	[3, 9, 3]	15	FR1	0	R1321M
3666.988	3.819	2883758	PROB	3.819	n/a	n/a	-999	17	[7, 8, 4]	19	FR1	0	R1321M
3670.807	4.7	2887577	PROB	4.7	n/a	n/a	-999	17	[2, 9, 3]	14	FR1	0	R1321M
3675.507	9.225	2892277	PROB	9.225	n/a	n/a	-999	17	[6, 9, 3]	18	FR1	0	R1321M
3684.732	0.011	2901501	STOP	n/a	n/a	n/a	-999	17	[-999, -999, -999]	n/a	FR1	0	R1321M
3684.743	0.674	2901512	DISTRACT_END	n/a	n/a	n/a	-999	17	[0, 0, 0]	n/a	FR1	0	R1321M
3685.417	1.592	2902186	RETRIEVAL_ORIENT_START	n/a	n/a	n/a	-999	17	[0, 0, 0]	n/a	FR1	0	R1321M
3687.009	0.0	2903778	RETRIEVAL_ORIENT_END	n/a	n/a	n/a	-999	17	[0, 0, 0]	n/a	FR1	0	R1321M
3687.009	1.157	2903778	REC_START	n/a	n/a	n/a	-999	17	[0, 0, 0]	n/a	FR1	0	R1321M
3688.166	1.078	2904935	REC_WORD	1.078	n/a	PIG	1	17	[0, 0, 0]	n/a	FR1	0	R1321M
3689.244	2.615	2906013	REC_WORD	2.615	n/a	COIN	2	17	[0, 0, 0]	n/a	FR1	0	R1321M
3691.859	10.821	2908628	REC_WORD	10.821	n/a	RUG	4	17	[0, 0, 0]	n/a	FR1	0	R1321M
3702.68	5.101	2919449	REC_WORD	5.101	n/a	ROOF	6	17	[0, 0, 0]	n/a	FR1	0	R1321M
3707.781	9.242	2924549	REC_WORD	9.242	n/a	HOLE	-999	17	[0, 0, 0]	n/a	FR1	0	R1321M
3717.023	0.0	2933791	REC_END	n/a	n/a	n/a	-999	17	[0, 0, 0]	n/a	FR1	0	R1321M
3717.023	0.014	2933791	TRIAL_END	n/a	n/a	n/a	-999	17	[0, 0, 0]	n/a	FR1	0	R1321M
3717.037	0.001	2933805	TRIAL_START	n/a	n/a	n/a	-999	18	[0, 0, 0]	n/a	FR1	0	R1321M
3717.038	0.0	2933806	TRIAL	n/a	n/a	n/a	-999	18	[0, 0, 0]	n/a	FR1	0	R1321M
3717.038	14.396	2933806	WAITING_START	n/a	n/a	n/a	-999	18	[0, 0, 0]	n/a	FR1	0	R1321M
3731.434	0.001	2948201	WAITING_END	n/a	n/a	n/a	-999	18	[0, 0, 0]	n/a	FR1	0	R1321M
3731.435	10.428	2948202	COUNTDOWN_START	n/a	n/a	n/a	-999	18	[0, 0, 0]	n/a	FR1	0	R1321M
3741.863	0.0	2958630	COUNTDOWN_END	n/a	n/a	n/a	-999	18	[0, 0, 0]	n/a	FR1	0	R1321M
3741.863	1.124	2958630	ORIENT_START	n/a	n/a	n/a	-999	18	[0, 0, 0]	n/a	FR1	0	R1321M
3742.987	0.0	2959753	ORIENT_END	n/a	n/a	n/a	-999	18	[0, 0, 0]	n/a	FR1	0	R1321M
3742.987	0.802	2959753	ENCODING_START	n/a	n/a	n/a	-999	18	[0, 0, 0]	n/a	FR1	0	R1321M
3743.789	1.631	2960555	WORD	n/a	wordpools/wordpool_EN.txt	SWORD	1	18	[0, 0, 0]	n/a	FR1	0	R1321M
3745.42	0.983	2962186	WORD_OFF	n/a	n/a	SWORD	1	18	[0, 0, 0]	n/a	FR1	0	R1321M
3746.403	1.635	2963169	WORD	n/a	wordpools/wordpool_EN.txt	LAKE	2	18	[0, 0, 0]	n/a	FR1	0	R1321M
3748.038	1.071	2964804	WORD_OFF	n/a	n/a	LAKE	2	18	[0, 0, 0]	n/a	FR1	0	R1321M
3749.109	1.613	2965875	WORD	n/a	wordpools/wordpool_EN.txt	TRUCK	3	18	[0, 0, 0]	n/a	FR1	0	R1321M
3750.722	1.031	2967488	WORD_OFF	n/a	n/a	TRUCK	3	18	[0, 0, 0]	n/a	FR1	0	R1321M
3751.753	1.636	2968519	WORD	n/a	wordpools/wordpool_EN.txt	WEB	4	18	[0, 0, 0]	n/a	FR1	0	R1321M
3753.389	1.145	2970155	WORD_OFF	n/a	n/a	WEB	4	18	[0, 0, 0]	n/a	FR1	0	R1321M
3754.534	1.622	2971300	WORD	n/a	wordpools/wordpool_EN.txt	LAMB	5	18	[0, 0, 0]	n/a	FR1	0	R1321M
3756.156	1.054	2972922	WORD_OFF	n/a	n/a	LAMB	5	18	[0, 0, 0]	n/a	FR1	0	R1321M
3757.21	1.631	2973976	WORD	n/a	wordpools/wordpool_EN.txt	BRICK	6	18	[0, 0, 0]	n/a	FR1	0	R1321M
3758.841	1.107	2975607	WORD_OFF	n/a	n/a	BRICK	6	18	[0, 0, 0]	n/a	FR1	0	R1321M
3759.948	1.626	2976714	WORD	n/a	wordpools/wordpool_EN.txt	BATH	7	18	[0, 0, 0]	n/a	FR1	0	R1321M
3761.574	1.118	2978340	WORD_OFF	n/a	n/a	BATH	7	18	[0, 0, 0]	n/a	FR1	0	R1321M
3762.692	1.632	2979457	WORD	n/a	wordpools/wordpool_EN.txt	WHEEL	8	18	[0, 0, 0]	n/a	FR1	0	R1321M
3764.324	0.768	2981089	WORD_OFF	n/a	n/a	WHEEL	8	18	[0, 0, 0]	n/a	FR1	0	R1321M
3765.092	1.617	2981857	WORD	n/a	wordpools/wordpool_EN.txt	ROOM	9	18	[0, 0, 0]	n/a	FR1	0	R1321M
3766.709	0.816	2983474	WORD_OFF	n/a	n/a	ROOM	9	18	[0, 0, 0]	n/a	FR1	0	R1321M
3767.525	1.633	2984290	WORD	n/a	wordpools/wordpool_EN.txt	OWL	10	18	[0, 0, 0]	n/a	FR1	0	R1321M
3769.158	1.04	2985923	WORD_OFF	n/a	n/a	OWL	10	18	[0, 0, 0]	n/a	FR1	0	R1321M
3770.198	1.629	2986963	WORD	n/a	wordpools/wordpool_EN.txt	POND	11	18	[0, 0, 0]	n/a	FR1	0	R1321M
3771.827	1.007	2988592	WORD_OFF	n/a	n/a	POND	11	18	[0, 0, 0]	n/a	FR1	0	R1321M
3772.834	1.625	2989599	WORD	n/a	wordpools/wordpool_EN.txt	TOOTH	12	18	[0, 0, 0]	n/a	FR1	0	R1321M
3774.459	0.001	2991224	WORD_OFF	n/a	n/a	TOOTH	12	18	[0, 0, 0]	n/a	FR1	0	R1321M
3774.46	0.0	2991225	DISTRACT_START	n/a	n/a	n/a	-999	18	[0, 0, 0]	n/a	FR1	0	R1321M
3774.46	0.0	2991225	ENCODING_END	n/a	n/a	n/a	-999	18	[0, 0, 0]	n/a	FR1	0	R1321M
3774.46	0.016	2991225	START	n/a	n/a	n/a	-999	18	[-999, -999, -999]	n/a	FR1	0	R1321M
3774.476	4.335	2991241	PROB	4.335	n/a	n/a	-999	18	[4, 8, 9]	21	FR1	0	R1321M
3778.811	3.85	2995576	PROB	3.85	n/a	n/a	-999	18	[3, 5, 4]	12	FR1	0	R1321M
3782.661	3.684	2999425	PROB	3.684	n/a	n/a	-999	18	[2, 7, 8]	17	FR1	0	R1321M
3786.345	4.234	3003109	PROB	4.234	n/a	n/a	-999	18	[4, 4, 3]	11	FR1	0	R1321M
3790.579	4.687	3007343	PROB	4.687	n/a	n/a	-999	18	[9, 6, 9]	24	FR1	0	R1321M
3795.266	0.014	3012030	STOP	n/a	n/a	n/a	-999	18	[-999, -999, -999]	n/a	FR1	0	R1321M
3795.28	0.574	3012044	DISTRACT_END	n/a	n/a	n/a	-999	18	[0, 0, 0]	n/a	FR1	0	R1321M
3795.854	1.61	3012618	RETRIEVAL_ORIENT_START	n/a	n/a	n/a	-999	18	[0, 0, 0]	n/a	FR1	0	R1321M
3797.464	0.0	3014228	RETRIEVAL_ORIENT_END	n/a	n/a	n/a	-999	18	[0, 0, 0]	n/a	FR1	0	R1321M
3797.464	1.481	3014228	REC_START	n/a	n/a	n/a	-999	18	[0, 0, 0]	n/a	FR1	0	R1321M
3798.945	3.221	3015709	REC_WORD	3.221	n/a	SWORD	1	18	[0, 0, 0]	n/a	FR1	0	R1321M
3802.166	1.05	3018929	REC_WORD	1.05	n/a	LAKE	2	18	[0, 0, 0]	n/a	FR1	0	R1321M
3803.216	2.143	3019979	REC_WORD	2.143	n/a	TRUCK	3	18	[0, 0, 0]	n/a	FR1	0	R1321M
3805.359	2.113	3022122	REC_WORD	2.113	n/a	LAMB	5	18	[0, 0, 0]	n/a	FR1	0	R1321M
3807.472	5.937	3024235	REC_WORD	5.937	n/a	BOWL	-999	18	[0, 0, 0]	n/a	FR1	0	R1321M
3813.409	10.512	3030172	REC_WORD	10.512	n/a	WEB	4	18	[0, 0, 0]	n/a	FR1	0	R1321M
3823.921	3.555	3040683	REC_WORD	3.555	n/a	SHELL	-999	18	[0, 0, 0]	n/a	FR1	0	R1321M
3827.476	0.0	3044238	REC_END	n/a	n/a	n/a	-999	18	[0, 0, 0]	n/a	FR1	0	R1321M
3827.476	0.017	3044238	TRIAL_END	n/a	n/a	n/a	-999	18	[0, 0, 0]	n/a	FR1	0	R1321M
3827.493	0.0	3044255	TRIAL_START	n/a	n/a	n/a	-999	19	[0, 0, 0]	n/a	FR1	0	R1321M
3827.493	0.0	3044255	TRIAL	n/a	n/a	n/a	-999	19	[0, 0, 0]	n/a	FR1	0	R1321M
3827.493	15.546	3044255	WAITING_START	n/a	n/a	n/a	-999	19	[0, 0, 0]	n/a	FR1	0	R1321M
3843.039	0.001	3059800	WAITING_END	n/a	n/a	n/a	-999	19	[0, 0, 0]	n/a	FR1	0	R1321M
3843.04	10.429	3059801	COUNTDOWN_START	n/a	n/a	n/a	-999	19	[0, 0, 0]	n/a	FR1	0	R1321M
3853.469	0.0	3070230	COUNTDOWN_END	n/a	n/a	n/a	-999	19	[0, 0, 0]	n/a	FR1	0	R1321M
3853.469	1.223	3070230	ORIENT_START	n/a	n/a	n/a	-999	19	[0, 0, 0]	n/a	FR1	0	R1321M
3854.692	0.0	3071453	ORIENT_END	n/a	n/a	n/a	-999	19	[0, 0, 0]	n/a	FR1	0	R1321M
3854.692	0.986	3071453	ENCODING_START	n/a	n/a	n/a	-999	19	[0, 0, 0]	n/a	FR1	0	R1321M
3855.678	1.631	3072439	WORD	n/a	wordpools/wordpool_EN.txt	SLIME	1	19	[0, 0, 0]	n/a	FR1	0	R1321M
3857.309	0.972	3074070	WORD_OFF	n/a	n/a	SLIME	1	19	[0, 0, 0]	n/a	FR1	0	R1321M
3858.281	1.612	3075042	WORD	n/a	wordpools/wordpool_EN.txt	THUMB	2	19	[0, 0, 0]	n/a	FR1	0	R1321M
3859.893	0.941	3076654	WORD_OFF	n/a	n/a	THUMB	2	19	[0, 0, 0]	n/a	FR1	0	R1321M
3860.834	1.626	3077595	WORD	n/a	wordpools/wordpool_EN.txt	LEG	3	19	[0, 0, 0]	n/a	FR1	0	R1321M
3862.46	0.893	3079220	WORD_OFF	n/a	n/a	LEG	3	19	[0, 0, 0]	n/a	FR1	0	R1321M
3863.353	1.624	3080113	WORD	n/a	wordpools/wordpool_EN.txt	PEN	4	19	[0, 0, 0]	n/a	FR1	0	R1321M
3864.977	0.822	3081737	WORD_OFF	n/a	n/a	PEN	4	19	[0, 0, 0]	n/a	FR1	0	R1321M
3865.799	1.628	3082559	WORD	n/a	wordpools/wordpool_EN.txt	ROAD	5	19	[0, 0, 0]	n/a	FR1	0	R1321M
3867.427	0.955	3084187	WORD_OFF	n/a	n/a	ROAD	5	19	[0, 0, 0]	n/a	FR1	0	R1321M
3868.382	1.629	3085142	WORD	n/a	wordpools/wordpool_EN.txt	DART	6	19	[0, 0, 0]	n/a	FR1	0	R1321M
3870.011	1.005	3086771	WORD_OFF	n/a	n/a	DART	6	19	[0, 0, 0]	n/a	FR1	0	R1321M
3871.016	1.629	3087776	WORD	n/a	wordpools/wordpool_EN.txt	SCHOOL	7	19	[0, 0, 0]	n/a	FR1	0	R1321M
3872.645	0.816	3089405	WORD_OFF	n/a	n/a	SCHOOL	7	19	[0, 0, 0]	n/a	FR1	0	R1321M
3873.461	1.634	3090221	WORD	n/a	wordpools/wordpool_EN.txt	CONE	8	19	[0, 0, 0]	n/a	FR1	0	R1321M
3875.095	0.865	3091855	WORD_OFF	n/a	n/a	CONE	8	19	[0, 0, 0]	n/a	FR1	0	R1321M
3875.96	1.636	3092720	WORD	n/a	wordpools/wordpool_EN.txt	WEED	9	19	[0, 0, 0]	n/a	FR1	0	R1321M
3877.596	1.041	3094356	WORD_OFF	n/a	n/a	WEED	9	19	[0, 0, 0]	n/a	FR1	0	R1321M
3878.637	1.626	3095397	WORD	n/a	wordpools/wordpool_EN.txt	VAN	10	19	[0, 0, 0]	n/a	FR1	0	R1321M
3880.263	1.024	3097023	WORD_OFF	n/a	n/a	VAN	10	19	[0, 0, 0]	n/a	FR1	0	R1321M
3881.287	1.628	3098047	WORD	n/a	wordpools/wordpool_EN.txt	SHIELD	11	19	[0, 0, 0]	n/a	FR1	0	R1321M
3882.915	0.992	3099674	WORD_OFF	n/a	n/a	SHIELD	11	19	[0, 0, 0]	n/a	FR1	0	R1321M
3883.907	1.624	3100666	WORD	n/a	wordpools/wordpool_EN.txt	HEN	12	19	[0, 0, 0]	n/a	FR1	0	R1321M
3885.531	0.0	3102290	ENCODING_END	n/a	n/a	n/a	-999	19	[0, 0, 0]	n/a	FR1	0	R1321M
3885.531	0.001	3102290	WORD_OFF	n/a	n/a	HEN	12	19	[0, 0, 0]	n/a	FR1	0	R1321M
3885.532	0.0	3102291	DISTRACT_START	n/a	n/a	n/a	-999	19	[0, 0, 0]	n/a	FR1	0	R1321M
3885.532	0.015	3102291	START	n/a	n/a	n/a	-999	19	[-999, -999, -999]	n/a	FR1	0	R1321M
3885.547	4.501	3102306	PROB	4.501	n/a	n/a	-999	19	[9, 7, 5]	21	FR1	0	R1321M
3890.048	4.418	3106807	PROB	4.418	n/a	n/a	-999	19	[8, 5, 9]	22	FR1	0	R1321M
3894.466	4.534	3111225	PROB	4.534	n/a	n/a	-999	19	[4, 7, 4]	15	FR1	0	R1321M
3899.0	6.484	3115759	PROB	6.484	n/a	n/a	-999	19	[3, 4, 6]	13	FR1	0	R1321M
3905.484	3.419	3122242	PROB	3.419	n/a	n/a	-999	19	[2, 1, 8]	11	FR1	0	R1321M
3908.903	0.017	3125661	STOP	n/a	n/a	n/a	-999	19	[-999, -999, -999]	n/a	FR1	0	R1321M
3908.92	0.651	3125678	DISTRACT_END	n/a	n/a	n/a	-999	19	[0, 0, 0]	n/a	FR1	0	R1321M
3909.571	1.698	3126329	RETRIEVAL_ORIENT_START	n/a	n/a	n/a	-999	19	[0, 0, 0]	n/a	FR1	0	R1321M
3911.269	0.001	3128027	RETRIEVAL_ORIENT_END	n/a	n/a	n/a	-999	19	[0, 0, 0]	n/a	FR1	0	R1321M
3911.27	1.301	3128028	REC_START	n/a	n/a	n/a	-999	19	[0, 0, 0]	n/a	FR1	0	R1321M
3912.571	5.595	3129329	REC_WORD	5.595	n/a	SLIME	1	19	[0, 0, 0]	n/a	FR1	0	R1321M
3918.166	1.393	3134924	REC_WORD	1.393	n/a	PEG	-999	19	[0, 0, 0]	n/a	FR1	0	R1321M
3919.559	12.86	3136317	REC_WORD	12.86	n/a	THUMB	2	19	[0, 0, 0]	n/a	FR1	0	R1321M
3932.419	7.792	3149176	REC_WORD	7.792	n/a	WALL	-999	19	[0, 0, 0]	n/a	FR1	0	R1321M
3940.211	1.071	3156968	REC_WORD	1.071	n/a	CURB	-999	19	[0, 0, 0]	n/a	FR1	0	R1321M
3941.282	0.001	3158038	REC_END	n/a	n/a	n/a	-999	19	[0, 0, 0]	n/a	FR1	0	R1321M
3941.283	0.013	3158039	TRIAL_END	n/a	n/a	n/a	-999	19	[0, 0, 0]	n/a	FR1	0	R1321M
3941.296	0.001	3158052	TRIAL_START	n/a	n/a	n/a	-999	20	[0, 0, 0]	n/a	FR1	0	R1321M
3941.297	0.0	3158053	TRIAL	n/a	n/a	n/a	-999	20	[0, 0, 0]	n/a	FR1	0	R1321M
3941.297	18.449	3158053	WAITING_START	n/a	n/a	n/a	-999	20	[0, 0, 0]	n/a	FR1	0	R1321M
3959.746	0.001	3176502	WAITING_END	n/a	n/a	n/a	-999	20	[0, 0, 0]	n/a	FR1	0	R1321M
3959.747	10.429	3176503	COUNTDOWN_START	n/a	n/a	n/a	-999	20	[0, 0, 0]	n/a	FR1	0	R1321M
3970.176	0.0	3186931	COUNTDOWN_END	n/a	n/a	n/a	-999	20	[0, 0, 0]	n/a	FR1	0	R1321M
3970.176	1.254	3186931	ORIENT_START	n/a	n/a	n/a	-999	20	[0, 0, 0]	n/a	FR1	0	R1321M
3971.43	0.001	3188185	ORIENT_END	n/a	n/a	n/a	-999	20	[0, 0, 0]	n/a	FR1	0	R1321M
3971.431	1.025	3188186	ENCODING_START	n/a	n/a	n/a	-999	20	[0, 0, 0]	n/a	FR1	0	R1321M
3972.456	1.625	3189211	WORD	n/a	wordpools/wordpool_EN.txt	SKY	1	20	[0, 0, 0]	n/a	FR1	0	R1321M
3974.081	1.125	3190836	WORD_OFF	n/a	n/a	SKY	1	20	[0, 0, 0]	n/a	FR1	0	R1321M
3975.206	1.627	3191961	WORD	n/a	wordpools/wordpool_EN.txt	SNOW	2	20	[0, 0, 0]	n/a	FR1	0	R1321M
3976.833	1.028	3193588	WORD_OFF	n/a	n/a	SNOW	2	20	[0, 0, 0]	n/a	FR1	0	R1321M
3977.861	1.621	3194616	WORD	n/a	wordpools/wordpool_EN.txt	CASH	3	20	[0, 0, 0]	n/a	FR1	0	R1321M
3979.482	0.964	3196237	WORD_OFF	n/a	n/a	CASH	3	20	[0, 0, 0]	n/a	FR1	0	R1321M
3980.446	1.637	3197201	WORD	n/a	wordpools/wordpool_EN.txt	BRIDGE	4	20	[0, 0, 0]	n/a	FR1	0	R1321M
3982.083	1.123	3198837	WORD_OFF	n/a	n/a	BRIDGE	4	20	[0, 0, 0]	n/a	FR1	0	R1321M
3983.206	1.628	3199960	WORD	n/a	wordpools/wordpool_EN.txt	STEAK	5	20	[0, 0, 0]	n/a	FR1	0	R1321M
3984.834	0.957	3201588	WORD_OFF	n/a	n/a	STEAK	5	20	[0, 0, 0]	n/a	FR1	0	R1321M
3985.791	1.626	3202545	WORD	n/a	wordpools/wordpool_EN.txt	STAIR	6	20	[0, 0, 0]	n/a	FR1	0	R1321M
3987.417	0.781	3204171	WORD_OFF	n/a	n/a	STAIR	6	20	[0, 0, 0]	n/a	FR1	0	R1321M
3988.198	1.637	3204952	WORD	n/a	wordpools/wordpool_EN.txt	GOAT	7	20	[0, 0, 0]	n/a	FR1	0	R1321M
3989.835	0.831	3206589	WORD_OFF	n/a	n/a	GOAT	7	20	[0, 0, 0]	n/a	FR1	0	R1321M
3990.666	1.635	3207420	WORD	n/a	wordpools/wordpool_EN.txt	NOSE	8	20	[0, 0, 0]	n/a	FR1	0	R1321M
3992.301	1.122	3209055	WORD_OFF	n/a	n/a	NOSE	8	20	[0, 0, 0]	n/a	FR1	0	R1321M
3993.423	1.629	3210177	WORD	n/a	wordpools/wordpool_EN.txt	BLOOM	9	20	[0, 0, 0]	n/a	FR1	0	R1321M
3995.052	0.9	3211806	WORD_OFF	n/a	n/a	BLOOM	9	20	[0, 0, 0]	n/a	FR1	0	R1321M
3995.952	1.634	3212706	WORD	n/a	wordpools/wordpool_EN.txt	SKI	10	20	[0, 0, 0]	n/a	FR1	0	R1321M
3997.586	0.798	3214340	WORD_OFF	n/a	n/a	SKI	10	20	[0, 0, 0]	n/a	FR1	0	R1321M
3998.384	1.636	3215138	WORD	n/a	wordpools/wordpool_EN.txt	CRANE	11	20	[0, 0, 0]	n/a	FR1	0	R1321M
4000.02	1.059	3216774	WORD_OFF	n/a	n/a	CRANE	11	20	[0, 0, 0]	n/a	FR1	0	R1321M
4001.079	1.624	3217832	WORD	n/a	wordpools/wordpool_EN.txt	CAT	12	20	[0, 0, 0]	n/a	FR1	0	R1321M
4002.703	0.001	3219456	WORD_OFF	n/a	n/a	CAT	12	20	[0, 0, 0]	n/a	FR1	0	R1321M
4002.704	0.0	3219457	DISTRACT_START	n/a	n/a	n/a	-999	20	[0, 0, 0]	n/a	FR1	0	R1321M
4002.704	0.001	3219457	ENCODING_END	n/a	n/a	n/a	-999	20	[0, 0, 0]	n/a	FR1	0	R1321M
4002.705	0.016	3219458	START	n/a	n/a	n/a	-999	20	[-999, -999, -999]	n/a	FR1	0	R1321M
4002.721	3.966	3219474	PROB	3.966	n/a	n/a	-999	20	[7, 3, 6]	16	FR1	0	R1321M
4006.687	3.668	3223440	PROB	3.668	n/a	n/a	-999	20	[1, 3, 8]	12	FR1	0	R1321M
4010.355	4.651	3227108	PROB	4.651	n/a	n/a	-999	20	[8, 5, 2]	15	FR1	0	R1321M
4015.006	3.901	3231759	PROB	3.901	n/a	n/a	-999	20	[7, 1, 4]	12	FR1	0	R1321M
4018.907	3.6	3235660	PROB	3.6	n/a	n/a	-999	20	[2, 9, 2]	13	FR1	0	R1321M
4022.507	4.048	3239259	PROB	4.048	n/a	n/a	-999	20	[7, 8, 5]	20	FR1	0	R1321M
4026.555	0.02	3243307	STOP	n/a	n/a	n/a	-999	20	[-999, -999, -999]	n/a	FR1	0	R1321M
4026.575	0.627	3243327	DISTRACT_END	n/a	n/a	n/a	-999	20	[0, 0, 0]	n/a	FR1	0	R1321M
4027.202	1.658	3243954	RETRIEVAL_ORIENT_START	n/a	n/a	n/a	-999	20	[0, 0, 0]	n/a	FR1	0	R1321M
4028.86	0.0	3245612	RETRIEVAL_ORIENT_END	n/a	n/a	n/a	-999	20	[0, 0, 0]	n/a	FR1	0	R1321M
4028.86	0.998	3245612	REC_START	n/a	n/a	n/a	-999	20	[0, 0, 0]	n/a	FR1	0	R1321M
4029.858	1.426	3246610	REC_WORD	1.426	n/a	SKY	1	20	[0, 0, 0]	n/a	FR1	0	R1321M
4031.284	2.205	3248036	REC_WORD	2.205	n/a	SNOW	2	20	[0, 0, 0]	n/a	FR1	0	R1321M
4033.489	1.924	3250241	REC_WORD	1.924	n/a	BRIDGE	4	20	[0, 0, 0]	n/a	FR1	0	R1321M
4035.413	2.474	3252165	REC_WORD	2.474	n/a	STEAK	5	20	[0, 0, 0]	n/a	FR1	0	R1321M
4037.887	20.985	3254639	REC_WORD	20.985	n/a	SKI	10	20	[0, 0, 0]	n/a	FR1	0	R1321M
4058.872	0.0	3275623	REC_END	n/a	n/a	n/a	-999	20	[0, 0, 0]	n/a	FR1	0	R1321M
4058.872	0.016	3275623	TRIAL_END	n/a	n/a	n/a	-999	20	[0, 0, 0]	n/a	FR1	0	R1321M
4058.888	0.0	3275639	TRIAL_START	n/a	n/a	n/a	-999	21	[0, 0, 0]	n/a	FR1	0	R1321M
4058.888	0.0	3275639	TRIAL	n/a	n/a	n/a	-999	21	[0, 0, 0]	n/a	FR1	0	R1321M
4058.888	8.645	3275639	WAITING_START	n/a	n/a	n/a	-999	21	[0, 0, 0]	n/a	FR1	0	R1321M
4067.533	0.0	3284283	WAITING_END	n/a	n/a	n/a	-999	21	[0, 0, 0]	n/a	FR1	0	R1321M
4067.533	10.428	3284283	COUNTDOWN_START	n/a	n/a	n/a	-999	21	[0, 0, 0]	n/a	FR1	0	R1321M
4077.961	0.001	3294711	COUNTDOWN_END	n/a	n/a	n/a	-999	21	[0, 0, 0]	n/a	FR1	0	R1321M
4077.962	1.156	3294712	ORIENT_START	n/a	n/a	n/a	-999	21	[0, 0, 0]	n/a	FR1	0	R1321M
4079.118	0.001	3295868	ORIENT_END	n/a	n/a	n/a	-999	21	[0, 0, 0]	n/a	FR1	0	R1321M
4079.119	0.773	3295869	ENCODING_START	n/a	n/a	n/a	-999	21	[0, 0, 0]	n/a	FR1	0	R1321M
4079.892	1.627	3296642	WORD	n/a	wordpools/wordpool_EN.txt	MUD	1	21	[0, 0, 0]	n/a	FR1	0	R1321M
4081.519	1.124	3298268	WORD_OFF	n/a	n/a	MUD	1	21	[0, 0, 0]	n/a	FR1	0	R1321M
4082.643	1.626	3299392	WORD	n/a	wordpools/wordpool_EN.txt	STORE	2	21	[0, 0, 0]	n/a	FR1	0	R1321M
4084.269	1.137	3301018	WORD_OFF	n/a	n/a	STORE	2	21	[0, 0, 0]	n/a	FR1	0	R1321M
4085.406	1.63	3302155	WORD	n/a	wordpools/wordpool_EN.txt	PRINCE	3	21	[0, 0, 0]	n/a	FR1	0	R1321M
4087.036	0.801	3303785	WORD_OFF	n/a	n/a	PRINCE	3	21	[0, 0, 0]	n/a	FR1	0	R1321M
4087.837	1.633	3304586	WORD	n/a	wordpools/wordpool_EN.txt	SHEEP	4	21	[0, 0, 0]	n/a	FR1	0	R1321M
4089.47	1.118	3306219	WORD_OFF	n/a	n/a	SHEEP	4	21	[0, 0, 0]	n/a	FR1	0	R1321M
4090.588	1.633	3307337	WORD	n/a	wordpools/wordpool_EN.txt	CANE	5	21	[0, 0, 0]	n/a	FR1	0	R1321M
4092.221	0.755	3308970	WORD_OFF	n/a	n/a	CANE	5	21	[0, 0, 0]	n/a	FR1	0	R1321M
4092.976	1.629	3309725	WORD	n/a	wordpools/wordpool_EN.txt	TOAST	6	21	[0, 0, 0]	n/a	FR1	0	R1321M
4094.605	0.832	3311354	WORD_OFF	n/a	n/a	TOAST	6	21	[0, 0, 0]	n/a	FR1	0	R1321M
4095.437	1.635	3312186	WORD	n/a	wordpools/wordpool_EN.txt	TEA	7	21	[0, 0, 0]	n/a	FR1	0	R1321M
4097.072	1.023	3313821	WORD_OFF	n/a	n/a	TEA	7	21	[0, 0, 0]	n/a	FR1	0	R1321M
4098.095	1.628	3314844	WORD	n/a	wordpools/wordpool_EN.txt	EAR	8	21	[0, 0, 0]	n/a	FR1	0	R1321M
4099.723	0.945	3316472	WORD_OFF	n/a	n/a	EAR	8	21	[0, 0, 0]	n/a	FR1	0	R1321M
4100.668	1.622	3317416	WORD	n/a	wordpools/wordpool_EN.txt	POOL	9	21	[0, 0, 0]	n/a	FR1	0	R1321M
4102.29	0.954	3319038	WORD_OFF	n/a	n/a	POOL	9	21	[0, 0, 0]	n/a	FR1	0	R1321M
4103.244	1.613	3319992	WORD	n/a	wordpools/wordpool_EN.txt	TRAY	10	21	[0, 0, 0]	n/a	FR1	0	R1321M
4104.857	0.757	3321605	WORD_OFF	n/a	n/a	TRAY	10	21	[0, 0, 0]	n/a	FR1	0	R1321M
4105.614	1.626	3322362	WORD	n/a	wordpools/wordpool_EN.txt	MOON	11	21	[0, 0, 0]	n/a	FR1	0	R1321M
4107.24	0.925	3323988	WORD_OFF	n/a	n/a	MOON	11	21	[0, 0, 0]	n/a	FR1	0	R1321M
4108.165	1.627	3324913	WORD	n/a	wordpools/wordpool_EN.txt	FUDGE	12	21	[0, 0, 0]	n/a	FR1	0	R1321M
4109.792	0.0	3326540	DISTRACT_START	n/a	n/a	n/a	-999	21	[0, 0, 0]	n/a	FR1	0	R1321M
4109.792	0.0	3326540	ENCODING_END	n/a	n/a	n/a	-999	21	[0, 0, 0]	n/a	FR1	0	R1321M
4109.792	0.001	3326540	WORD_OFF	n/a	n/a	FUDGE	12	21	[0, 0, 0]	n/a	FR1	0	R1321M
4109.793	0.015	3326541	START	n/a	n/a	n/a	-999	21	[-999, -999, -999]	n/a	FR1	0	R1321M
4109.808	4.484	3326556	PROB	4.484	n/a	n/a	-999	21	[5, 4, 9]	18	FR1	0	R1321M
4114.292	6.502	3331040	PROB	6.502	n/a	n/a	-999	21	[2, 4, 2]	8	FR1	0	R1321M
4120.794	3.716	3337541	PROB	3.716	n/a	n/a	-999	21	[4, 6, 9]	19	FR1	0	R1321M
4124.51	3.218	3341257	PROB	3.218	n/a	n/a	-999	21	[3, 2, 6]	11	FR1	0	R1321M
4127.728	3.415	3344475	PROB	3.415	n/a	n/a	-999	21	[4, 1, 7]	12	FR1	0	R1321M
4131.143	0.019	3347890	STOP	n/a	n/a	n/a	-999	21	[-999, -999, -999]	n/a	FR1	0	R1321M
4131.162	0.665	3347909	DISTRACT_END	n/a	n/a	n/a	-999	21	[0, 0, 0]	n/a	FR1	0	R1321M
4131.827	1.552	3348574	RETRIEVAL_ORIENT_START	n/a	n/a	n/a	-999	21	[0, 0, 0]	n/a	FR1	0	R1321M
4133.379	0.0	3350126	RETRIEVAL_ORIENT_END	n/a	n/a	n/a	-999	21	[0, 0, 0]	n/a	FR1	0	R1321M
4133.379	2.627	3350126	REC_START	n/a	n/a	n/a	-999	21	[0, 0, 0]	n/a	FR1	0	R1321M
4136.006	2.268	3352753	REC_WORD	2.268	n/a	MUD	1	21	[0, 0, 0]	n/a	FR1	0	R1321M
4138.274	2.215	3355021	REC_WORD	2.215	n/a	ROOM	-999	21	[0, 0, 0]	n/a	FR1	0	R1321M
4140.489	11.528	3357235	REC_WORD	11.528	n/a	FLOAT	-999	21	[0, 0, 0]	n/a	FR1	0	R1321M
4152.017	6.369	3368763	REC_WORD	6.369	n/a	PRINCE	3	21	[0, 0, 0]	n/a	FR1	0	R1321M
4158.386	5.007	3375132	REC_WORD	5.007	n/a	POOL	9	21	[0, 0, 0]	n/a	FR1	0	R1321M
4163.393	0.001	3380138	REC_END	n/a	n/a	n/a	-999	21	[0, 0, 0]	n/a	FR1	0	R1321M
4163.394	0.013	3380139	TRIAL_END	n/a	n/a	n/a	-999	21	[0, 0, 0]	n/a	FR1	0	R1321M
4163.407	0.001	3380152	TRIAL_START	n/a	n/a	n/a	-999	22	[0, 0, 0]	n/a	FR1	0	R1321M
4163.408	0.0	3380153	TRIAL	n/a	n/a	n/a	-999	22	[0, 0, 0]	n/a	FR1	0	R1321M
4163.408	13.43	3380153	WAITING_START	n/a	n/a	n/a	-999	22	[0, 0, 0]	n/a	FR1	0	R1321M
4176.838	0.001	3393583	WAITING_END	n/a	n/a	n/a	-999	22	[0, 0, 0]	n/a	FR1	0	R1321M
4176.839	10.429	3393584	COUNTDOWN_START	n/a	n/a	n/a	-999	22	[0, 0, 0]	n/a	FR1	0	R1321M
4187.268	0.0	3404012	ORIENT_START	n/a	n/a	n/a	-999	22	[0, 0, 0]	n/a	FR1	0	R1321M
4187.268	1.171	3404012	COUNTDOWN_END	n/a	n/a	n/a	-999	22	[0, 0, 0]	n/a	FR1	0	R1321M
4188.439	0.001	3405183	ORIENT_END	n/a	n/a	n/a	-999	22	[0, 0, 0]	n/a	FR1	0	R1321M
4188.44	0.75	3405184	ENCODING_START	n/a	n/a	n/a	-999	22	[0, 0, 0]	n/a	FR1	0	R1321M
4189.19	1.634	3405934	WORD	n/a	wordpools/wordpool_EN.txt	SALT	1	22	[0, 0, 0]	n/a	FR1	0	R1321M
4190.824	0.978	3407568	WORD_OFF	n/a	n/a	SALT	1	22	[0, 0, 0]	n/a	FR1	0	R1321M
4191.802	1.622	3408546	WORD	n/a	wordpools/wordpool_EN.txt	VINE	2	22	[0, 0, 0]	n/a	FR1	0	R1321M
4193.424	0.869	3410168	WORD_OFF	n/a	n/a	VINE	2	22	[0, 0, 0]	n/a	FR1	0	R1321M
4194.293	1.632	3411037	WORD	n/a	wordpools/wordpool_EN.txt	SAIL	3	22	[0, 0, 0]	n/a	FR1	0	R1321M
4195.925	0.915	3412669	WORD_OFF	n/a	n/a	SAIL	3	22	[0, 0, 0]	n/a	FR1	0	R1321M
4196.84	1.635	3413584	WORD	n/a	wordpools/wordpool_EN.txt	CAPE	4	22	[0, 0, 0]	n/a	FR1	0	R1321M
4198.475	0.817	3415219	WORD_OFF	n/a	n/a	CAPE	4	22	[0, 0, 0]	n/a	FR1	0	R1321M
4199.292	1.634	3416035	WORD	n/a	wordpools/wordpool_EN.txt	OAK	5	22	[0, 0, 0]	n/a	FR1	0	R1321M
4200.926	0.915	3417669	WORD_OFF	n/a	n/a	OAK	5	22	[0, 0, 0]	n/a	FR1	0	R1321M
4201.841	1.635	3418584	WORD	n/a	wordpools/wordpool_EN.txt	STOOL	6	22	[0, 0, 0]	n/a	FR1	0	R1321M
4203.476	0.827	3420219	WORD_OFF	n/a	n/a	STOOL	6	22	[0, 0, 0]	n/a	FR1	0	R1321M
4204.303	1.624	3421046	WORD	n/a	wordpools/wordpool_EN.txt	CHAIR	7	22	[0, 0, 0]	n/a	FR1	0	R1321M
4205.927	0.887	3422670	WORD_OFF	n/a	n/a	CHAIR	7	22	[0, 0, 0]	n/a	FR1	0	R1321M
4206.814	1.629	3423557	WORD	n/a	wordpools/wordpool_EN.txt	WAVE	8	22	[0, 0, 0]	n/a	FR1	0	R1321M
4208.443	1.093	3425186	WORD_OFF	n/a	n/a	WAVE	8	22	[0, 0, 0]	n/a	FR1	0	R1321M
4209.536	1.624	3426279	WORD	n/a	wordpools/wordpool_EN.txt	WAND	9	22	[0, 0, 0]	n/a	FR1	0	R1321M
4211.16	0.852	3427903	WORD_OFF	n/a	n/a	WAND	9	22	[0, 0, 0]	n/a	FR1	0	R1321M
4212.012	1.632	3428755	WORD	n/a	wordpools/wordpool_EN.txt	SWAMP	10	22	[0, 0, 0]	n/a	FR1	0	R1321M
4213.644	1.147	3430387	WORD_OFF	n/a	n/a	SWAMP	10	22	[0, 0, 0]	n/a	FR1	0	R1321M
4214.791	1.621	3431534	WORD	n/a	wordpools/wordpool_EN.txt	RAKE	11	22	[0, 0, 0]	n/a	FR1	0	R1321M
4216.412	1.144	3433155	WORD_OFF	n/a	n/a	RAKE	11	22	[0, 0, 0]	n/a	FR1	0	R1321M
4217.556	1.623	3434299	WORD	n/a	wordpools/wordpool_EN.txt	FORK	12	22	[0, 0, 0]	n/a	FR1	0	R1321M
4219.179	0.0	3435921	WORD_OFF	n/a	n/a	FORK	12	22	[0, 0, 0]	n/a	FR1	0	R1321M
4219.179	0.0	3435921	ENCODING_END	n/a	n/a	n/a	-999	22	[0, 0, 0]	n/a	FR1	0	R1321M
