onset	duration	sample	trial_type	response_time	stim_file	item_name	serialpos	list	test	answer	experiment	session	subject
0.0	180.378	427	INSTRUCT_START	n/a	n/a	n/a	-999	-999	[0, 0, 0]	n/a	FR1	4	R1345D
180.378	1.984	180795	INSTRUCT_END	n/a	n/a	n/a	-999	-999	[0, 0, 0]	n/a	FR1	4	R1345D
182.362	29.482	182779	MIC TEST_START	n/a	n/a	n/a	-999	-999	[0, 0, 0]	n/a	FR1	4	R1345D
211.844	0.017	212259	MIC TEST_END	n/a	n/a	n/a	-999	-999	[0, 0, 0]	n/a	FR1	4	R1345D
211.861	0.0	212276	TRIAL_START	n/a	n/a	n/a	-999	-1	[0, 0, 0]	n/a	FR1	4	R1345D
211.861	0.0	212276	TRIAL	n/a	n/a	n/a	-999	-1	[0, 0, 0]	n/a	FR1	4	R1345D
211.861	2.273	212276	WAITING_START	n/a	n/a	n/a	-999	-1	[0, 0, 0]	n/a	FR1	4	R1345D
214.134	0.0	214549	WAITING_END	n/a	n/a	n/a	-999	-1	[0, 0, 0]	n/a	FR1	4	R1345D
214.134	10.43	214549	COUNTDOWN_START	n/a	n/a	n/a	-999	-1	[0, 0, 0]	n/a	FR1	4	R1345D
224.564	0.001	224978	COUNTDOWN_END	n/a	n/a	n/a	-999	-1	[0, 0, 0]	n/a	FR1	4	R1345D
224.565	1.071	224979	ORIENT_START	n/a	n/a	n/a	-999	-1	[0, 0, 0]	n/a	FR1	4	R1345D
225.636	0.0	226050	ORIENT_END	n/a	n/a	n/a	-999	-1	[0, 0, 0]	n/a	FR1	4	R1345D
225.636	1.077	226050	ENCODING_START	n/a	n/a	n/a	-999	-1	[0, 0, 0]	n/a	FR1	4	R1345D
226.713	1.624	227127	WORD	n/a	n/a	TONGUE	1	-1	[0, 0, 0]	n/a	FR1	4	R1345D
228.337	1.105	228751	WORD_OFF	n/a	n/a	TONGUE	1	-1	[0, 0, 0]	n/a	FR1	4	R1345D
229.442	1.628	229856	WORD	n/a	n/a	RING	2	-1	[0, 0, 0]	n/a	FR1	4	R1345D
231.07	0.891	231484	WORD_OFF	n/a	n/a	RING	2	-1	[0, 0, 0]	n/a	FR1	4	R1345D
231.961	1.627	232375	WORD	n/a	n/a	COTTON	3	-1	[0, 0, 0]	n/a	FR1	4	R1345D
233.588	0.975	234002	WORD_OFF	n/a	n/a	COTTON	3	-1	[0, 0, 0]	n/a	FR1	4	R1345D
234.563	1.625	234977	WORD	n/a	n/a	WAGON	4	-1	[0, 0, 0]	n/a	FR1	4	R1345D
236.188	1.136	236601	WORD_OFF	n/a	n/a	WAGON	4	-1	[0, 0, 0]	n/a	FR1	4	R1345D
237.324	1.631	237737	WORD	n/a	n/a	CAMEL	5	-1	[0, 0, 0]	n/a	FR1	4	R1345D
238.955	0.92	239368	WORD_OFF	n/a	n/a	CAMEL	5	-1	[0, 0, 0]	n/a	FR1	4	R1345D
239.875	1.631	240288	WORD	n/a	n/a	BABY	6	-1	[0, 0, 0]	n/a	FR1	4	R1345D
241.506	0.981	241919	WORD_OFF	n/a	n/a	BABY	6	-1	[0, 0, 0]	n/a	FR1	4	R1345D
242.487	1.636	242900	WORD	n/a	n/a	IMAGE	7	-1	[0, 0, 0]	n/a	FR1	4	R1345D
244.123	0.883	244536	WORD_OFF	n/a	n/a	IMAGE	7	-1	[0, 0, 0]	n/a	FR1	4	R1345D
245.006	1.634	245419	WORD	n/a	n/a	BEAM	8	-1	[0, 0, 0]	n/a	FR1	4	R1345D
246.64	0.857	247053	WORD_OFF	n/a	n/a	BEAM	8	-1	[0, 0, 0]	n/a	FR1	4	R1345D
247.497	1.627	247910	WORD	n/a	n/a	FLOOD	9	-1	[0, 0, 0]	n/a	FR1	4	R1345D
249.124	0.923	249537	WORD_OFF	n/a	n/a	FLOOD	9	-1	[0, 0, 0]	n/a	FR1	4	R1345D
250.047	1.61	250460	WORD	n/a	n/a	WATCH	10	-1	[0, 0, 0]	n/a	FR1	4	R1345D
251.657	0.907	252070	WORD_OFF	n/a	n/a	WATCH	10	-1	[0, 0, 0]	n/a	FR1	4	R1345D
252.564	1.627	252976	WORD	n/a	n/a	CHEST	11	-1	[0, 0, 0]	n/a	FR1	4	R1345D
254.191	0.921	254603	WORD_OFF	n/a	n/a	CHEST	11	-1	[0, 0, 0]	n/a	FR1	4	R1345D
255.112	1.63	255524	WORD	n/a	n/a	RHINO	12	-1	[0, 0, 0]	n/a	FR1	4	R1345D
256.742	0.0	257154	WORD_OFF	n/a	n/a	RHINO	12	-1	[0, 0, 0]	n/a	FR1	4	R1345D
256.742	0.0	257154	ENCODING_END	n/a	n/a	n/a	-999	-1	[0, 0, 0]	n/a	FR1	4	R1345D
256.742	0.001	257154	DISTRACT_START	n/a	n/a	n/a	-999	-1	[0, 0, 0]	n/a	FR1	4	R1345D
256.743	0.015	257155	START	n/a	n/a	n/a	-999	-1	[-999, -999, -999]	n/a	FR1	4	R1345D
256.758	8.385	257170	PROB	8.385	n/a	n/a	-999	-1	[6, 7, 9]	22	FR1	4	R1345D
265.143	3.551	265555	PROB	3.551	n/a	n/a	-999	-1	[9, 1, 1]	11	FR1	4	R1345D
268.694	4.167	269106	PROB	4.167	n/a	n/a	-999	-1	[6, 3, 1]	10	FR1	4	R1345D
272.861	4.784	273272	PROB	4.784	n/a	n/a	-999	-1	[4, 9, 8]	21	FR1	4	R1345D
277.645	0.017	278056	STOP	n/a	n/a	n/a	-999	-1	[-999, -999, -999]	n/a	FR1	4	R1345D
277.662	0.653	278073	DISTRACT_END	n/a	n/a	n/a	-999	-1	[0, 0, 0]	n/a	FR1	4	R1345D
278.315	1.631	278726	RETRIEVAL_ORIENT_START	n/a	n/a	n/a	-999	-1	[0, 0, 0]	n/a	FR1	4	R1345D
279.946	0.001	280357	RETRIEVAL_ORIENT_END	n/a	n/a	n/a	-999	-1	[0, 0, 0]	n/a	FR1	4	R1345D
279.947	0.0	280358	REC_START	n/a	n/a	n/a	-999	-1	[0, 0, 0]	n/a	FR1	4	R1345D
279.947	30.011	280358	REC_WORD_VV	30.011	n/a	<>	-999	-1	[0, 0, 0]	n/a	FR1	4	R1345D
309.958	0.0	310367	REC_END	n/a	n/a	n/a	-999	-1	[0, 0, 0]	n/a	FR1	4	R1345D
309.958	3.611	310367	PRACTICE_POST_INSTRUCT_START	n/a	n/a	n/a	-999	-1	[0, 0, 0]	n/a	FR1	4	R1345D
313.569	0.001	313978	PRACTICE_POST_INSTRUCT_END	n/a	n/a	n/a	-999	-1	[0, 0, 0]	n/a	FR1	4	R1345D
313.57	0.016	313979	TRIAL_END	n/a	n/a	n/a	-999	-1	[0, 0, 0]	n/a	FR1	4	R1345D
313.586	0.001	313995	TRIAL_START	n/a	n/a	n/a	-999	1	[0, 0, 0]	n/a	FR1	4	R1345D
313.587	0.0	313996	TRIAL	n/a	n/a	n/a	-999	1	[0, 0, 0]	n/a	FR1	4	R1345D
313.587	1.782	313996	WAITING_START	n/a	n/a	n/a	-999	1	[0, 0, 0]	n/a	FR1	4	R1345D
315.369	0.001	315778	WAITING_END	n/a	n/a	n/a	-999	1	[0, 0, 0]	n/a	FR1	4	R1345D
315.37	10.429	315779	COUNTDOWN_START	n/a	n/a	n/a	-999	1	[0, 0, 0]	n/a	FR1	4	R1345D
325.799	0.001	326207	COUNTDOWN_END	n/a	n/a	n/a	-999	1	[0, 0, 0]	n/a	FR1	4	R1345D
325.8	1.188	326208	ORIENT_START	n/a	n/a	n/a	-999	1	[0, 0, 0]	n/a	FR1	4	R1345D
326.988	0.0	327396	ORIENT_END	n/a	n/a	n/a	-999	1	[0, 0, 0]	n/a	FR1	4	R1345D
326.988	0.958	327396	ENCODING_START	n/a	n/a	n/a	-999	1	[0, 0, 0]	n/a	FR1	4	R1345D
327.946	1.626	328354	WORD	n/a	n/a	SUN	1	1	[0, 0, 0]	n/a	FR1	4	R1345D
329.572	0.935	329980	WORD_OFF	n/a	n/a	SUN	1	1	[0, 0, 0]	n/a	FR1	4	R1345D
330.507	1.632	330915	WORD	n/a	n/a	TOY	2	1	[0, 0, 0]	n/a	FR1	4	R1345D
332.139	1.14	332547	WORD_OFF	n/a	n/a	TOY	2	1	[0, 0, 0]	n/a	FR1	4	R1345D
333.279	1.627	333687	WORD	n/a	n/a	TAIL	3	1	[0, 0, 0]	n/a	FR1	4	R1345D
334.906	0.946	335314	WORD_OFF	n/a	n/a	TAIL	3	1	[0, 0, 0]	n/a	FR1	4	R1345D
335.852	1.638	336260	WORD	n/a	n/a	ROOM	4	1	[0, 0, 0]	n/a	FR1	4	R1345D
337.49	0.964	337897	WORD_OFF	n/a	n/a	ROOM	4	1	[0, 0, 0]	n/a	FR1	4	R1345D
338.454	1.636	338861	WORD	n/a	n/a	CLOWN	5	1	[0, 0, 0]	n/a	FR1	4	R1345D
340.09	0.913	340497	WORD_OFF	n/a	n/a	CLOWN	5	1	[0, 0, 0]	n/a	FR1	4	R1345D
341.003	1.621	341410	WORD	n/a	n/a	DEER	6	1	[0, 0, 0]	n/a	FR1	4	R1345D
342.624	1.12	343031	WORD_OFF	n/a	n/a	DEER	6	1	[0, 0, 0]	n/a	FR1	4	R1345D
343.744	1.63	344151	WORD	n/a	n/a	STORM	7	1	[0, 0, 0]	n/a	FR1	4	R1345D
345.374	0.898	345781	WORD_OFF	n/a	n/a	STORM	7	1	[0, 0, 0]	n/a	FR1	4	R1345D
346.272	1.636	346679	WORD	n/a	n/a	FLUTE	8	1	[0, 0, 0]	n/a	FR1	4	R1345D
347.908	0.927	348315	WORD_OFF	n/a	n/a	FLUTE	8	1	[0, 0, 0]	n/a	FR1	4	R1345D
348.835	1.624	349242	WORD	n/a	n/a	CASH	9	1	[0, 0, 0]	n/a	FR1	4	R1345D
350.459	0.849	350866	WORD_OFF	n/a	n/a	CASH	9	1	[0, 0, 0]	n/a	FR1	4	R1345D
351.308	1.635	351715	WORD	n/a	n/a	YARD	10	1	[0, 0, 0]	n/a	FR1	4	R1345D
352.943	0.881	353350	WORD_OFF	n/a	n/a	YARD	10	1	[0, 0, 0]	n/a	FR1	4	R1345D
353.824	1.636	354231	WORD	n/a	n/a	FLOOR	11	1	[0, 0, 0]	n/a	FR1	4	R1345D
355.46	1.107	355866	WORD_OFF	n/a	n/a	FLOOR	11	1	[0, 0, 0]	n/a	FR1	4	R1345D
356.567	1.626	356973	WORD	n/a	n/a	STAR	12	1	[0, 0, 0]	n/a	FR1	4	R1345D
358.193	0.001	358599	WORD_OFF	n/a	n/a	STAR	12	1	[0, 0, 0]	n/a	FR1	4	R1345D
358.194	0.0	358600	DISTRACT_START	n/a	n/a	n/a	-999	1	[0, 0, 0]	n/a	FR1	4	R1345D
358.194	0.0	358600	ENCODING_END	n/a	n/a	n/a	-999	1	[0, 0, 0]	n/a	FR1	4	R1345D
358.194	0.016	358600	START	n/a	n/a	n/a	-999	1	[-999, -999, -999]	n/a	FR1	4	R1345D
358.21	4.818	358616	PROB	4.818	n/a	n/a	-999	1	[8, 5, 5]	18	FR1	4	R1345D
363.028	6.084	363434	PROB	6.084	n/a	n/a	-999	1	[4, 5, 5]	14	FR1	4	R1345D
369.112	6.268	369518	PROB	6.268	n/a	n/a	-999	1	[7, 2, 8]	17	FR1	4	R1345D
375.38	5.154	375785	PROB	5.154	n/a	n/a	-999	1	[1, 1, 4]	6	FR1	4	R1345D
380.534	0.014	380939	STOP	n/a	n/a	n/a	-999	1	[-999, -999, -999]	n/a	FR1	4	R1345D
380.548	0.689	380953	DISTRACT_END	n/a	n/a	n/a	-999	1	[0, 0, 0]	n/a	FR1	4	R1345D
381.237	1.711	381642	RETRIEVAL_ORIENT_START	n/a	n/a	n/a	-999	1	[0, 0, 0]	n/a	FR1	4	R1345D
382.948	0.0	383353	RETRIEVAL_ORIENT_END	n/a	n/a	n/a	-999	1	[0, 0, 0]	n/a	FR1	4	R1345D
382.948	0.841	383353	REC_START	n/a	n/a	n/a	-999	1	[0, 0, 0]	n/a	FR1	4	R1345D
383.789	0.819	384194	REC_WORD	0.819	n/a	SUN	1	1	[0, 0, 0]	n/a	FR1	4	R1345D
384.608	3.151	385013	REC_WORD	3.151	n/a	TOY	2	1	[0, 0, 0]	n/a	FR1	4	R1345D
387.759	1.112	388164	REC_WORD	1.112	n/a	CLOUD	-999	1	[0, 0, 0]	n/a	FR1	4	R1345D
388.871	19.476	389275	REC_WORD	19.476	n/a	STORM	7	1	[0, 0, 0]	n/a	FR1	4	R1345D
408.347	4.615	408750	REC_WORD	4.615	n/a	TOOL	-999	1	[0, 0, 0]	n/a	FR1	4	R1345D
412.962	0.0	413365	REC_END	n/a	n/a	n/a	-999	1	[0, 0, 0]	n/a	FR1	4	R1345D
412.962	0.016	413365	TRIAL_END	n/a	n/a	n/a	-999	1	[0, 0, 0]	n/a	FR1	4	R1345D
412.978	0.0	413381	TRIAL	n/a	n/a	n/a	-999	2	[0, 0, 0]	n/a	FR1	4	R1345D
412.978	0.001	413381	TRIAL_START	n/a	n/a	n/a	-999	2	[0, 0, 0]	n/a	FR1	4	R1345D
412.979	2.892	413382	WAITING_START	n/a	n/a	n/a	-999	2	[0, 0, 0]	n/a	FR1	4	R1345D
415.871	0.0	416274	WAITING_END	n/a	n/a	n/a	-999	2	[0, 0, 0]	n/a	FR1	4	R1345D
415.871	10.428	416274	COUNTDOWN_START	n/a	n/a	n/a	-999	2	[0, 0, 0]	n/a	FR1	4	R1345D
426.299	0.001	426701	COUNTDOWN_END	n/a	n/a	n/a	-999	2	[0, 0, 0]	n/a	FR1	4	R1345D
426.3	1.039	426702	ORIENT_START	n/a	n/a	n/a	-999	2	[0, 0, 0]	n/a	FR1	4	R1345D
427.339	0.0	427741	ORIENT_END	n/a	n/a	n/a	-999	2	[0, 0, 0]	n/a	FR1	4	R1345D
427.339	0.832	427741	ENCODING_START	n/a	n/a	n/a	-999	2	[0, 0, 0]	n/a	FR1	4	R1345D
428.171	1.636	428573	WORD	n/a	n/a	ROPE	1	2	[0, 0, 0]	n/a	FR1	4	R1345D
429.807	0.96	430209	WORD_OFF	n/a	n/a	ROPE	1	2	[0, 0, 0]	n/a	FR1	4	R1345D
430.767	1.623	431169	WORD	n/a	n/a	BEAK	2	2	[0, 0, 0]	n/a	FR1	4	R1345D
432.39	0.878	432792	WORD_OFF	n/a	n/a	BEAK	2	2	[0, 0, 0]	n/a	FR1	4	R1345D
433.268	1.623	433670	WORD	n/a	n/a	HOSE	3	2	[0, 0, 0]	n/a	FR1	4	R1345D
434.891	0.928	435293	WORD_OFF	n/a	n/a	HOSE	3	2	[0, 0, 0]	n/a	FR1	4	R1345D
435.819	1.622	436221	WORD	n/a	n/a	BOOT	4	2	[0, 0, 0]	n/a	FR1	4	R1345D
437.441	0.844	437843	WORD_OFF	n/a	n/a	BOOT	4	2	[0, 0, 0]	n/a	FR1	4	R1345D
438.285	1.623	438687	WORD	n/a	n/a	NET	5	2	[0, 0, 0]	n/a	FR1	4	R1345D
439.908	0.988	440309	WORD_OFF	n/a	n/a	NET	5	2	[0, 0, 0]	n/a	FR1	4	R1345D
440.896	1.63	441297	WORD	n/a	n/a	BEAR	6	2	[0, 0, 0]	n/a	FR1	4	R1345D
442.526	1.035	442927	WORD_OFF	n/a	n/a	BEAR	6	2	[0, 0, 0]	n/a	FR1	4	R1345D
443.561	1.632	443962	WORD	n/a	n/a	MUD	7	2	[0, 0, 0]	n/a	FR1	4	R1345D
445.193	0.935	445594	WORD_OFF	n/a	n/a	MUD	7	2	[0, 0, 0]	n/a	FR1	4	R1345D
446.128	1.632	446529	WORD	n/a	n/a	TRAIN	8	2	[0, 0, 0]	n/a	FR1	4	R1345D
447.76	1.011	448161	WORD_OFF	n/a	n/a	TRAIN	8	2	[0, 0, 0]	n/a	FR1	4	R1345D
448.771	1.623	449172	WORD	n/a	n/a	CUP	9	2	[0, 0, 0]	n/a	FR1	4	R1345D
450.394	0.957	450795	WORD_OFF	n/a	n/a	CUP	9	2	[0, 0, 0]	n/a	FR1	4	R1345D
451.351	1.626	451752	WORD	n/a	n/a	VAN	10	2	[0, 0, 0]	n/a	FR1	4	R1345D
452.977	0.923	453378	WORD_OFF	n/a	n/a	VAN	10	2	[0, 0, 0]	n/a	FR1	4	R1345D
453.9	1.628	454301	WORD	n/a	n/a	JET	11	2	[0, 0, 0]	n/a	FR1	4	R1345D
455.528	0.886	455929	WORD_OFF	n/a	n/a	JET	11	2	[0, 0, 0]	n/a	FR1	4	R1345D
456.414	1.63	456815	WORD	n/a	n/a	ARK	12	2	[0, 0, 0]	n/a	FR1	4	R1345D
458.044	0.001	458444	WORD_OFF	n/a	n/a	ARK	12	2	[0, 0, 0]	n/a	FR1	4	R1345D
458.045	0.0	458445	ENCODING_END	n/a	n/a	n/a	-999	2	[0, 0, 0]	n/a	FR1	4	R1345D
458.045	0.0	458445	DISTRACT_START	n/a	n/a	n/a	-999	2	[0, 0, 0]	n/a	FR1	4	R1345D
458.045	0.015	458445	START	n/a	n/a	n/a	-999	2	[-999, -999, -999]	n/a	FR1	4	R1345D
458.06	5.669	458460	PROB	5.669	n/a	n/a	-999	2	[6, 2, 2]	10	FR1	4	R1345D
463.729	5.184	464129	PROB	5.184	n/a	n/a	-999	2	[8, 3, 6]	17	FR1	4	R1345D
468.913	5.935	469313	PROB	5.935	n/a	n/a	-999	2	[2, 8, 8]	18	FR1	4	R1345D
474.848	4.898	475247	PROB	4.898	n/a	n/a	-999	2	[5, 3, 3]	11	FR1	4	R1345D
479.746	0.02	480145	STOP	n/a	n/a	n/a	-999	2	[-999, -999, -999]	n/a	FR1	4	R1345D
479.766	0.548	480165	DISTRACT_END	n/a	n/a	n/a	-999	2	[0, 0, 0]	n/a	FR1	4	R1345D
480.314	1.652	480713	RETRIEVAL_ORIENT_START	n/a	n/a	n/a	-999	2	[0, 0, 0]	n/a	FR1	4	R1345D
481.966	0.0	482365	REC_START	n/a	n/a	n/a	-999	2	[0, 0, 0]	n/a	FR1	4	R1345D
481.966	2.211	482365	RETRIEVAL_ORIENT_END	n/a	n/a	n/a	-999	2	[0, 0, 0]	n/a	FR1	4	R1345D
484.177	3.135	484576	REC_WORD	3.135	n/a	CLOWN	-999	2	[0, 0, 0]	n/a	FR1	4	R1345D
487.312	0.624	487711	REC_WORD	0.624	n/a	STORM	-999	2	[0, 0, 0]	n/a	FR1	4	R1345D
487.936	2.409	488335	REC_WORD_VV	2.409	n/a	<>	-999	2	[0, 0, 0]	n/a	FR1	4	R1345D
490.345	4.583	490744	REC_WORD	4.583	n/a	BOOT	4	2	[0, 0, 0]	n/a	FR1	4	R1345D
494.928	2.892	495326	REC_WORD_VV	2.892	n/a	<>	-999	2	[0, 0, 0]	n/a	FR1	4	R1345D
497.82	10.328	498218	REC_WORD	10.328	n/a	BED	-999	2	[0, 0, 0]	n/a	FR1	4	R1345D
508.148	3.832	508545	REC_WORD	3.832	n/a	WAVE	-999	2	[0, 0, 0]	n/a	FR1	4	R1345D
511.98	0.0	512377	REC_END	n/a	n/a	n/a	-999	2	[0, 0, 0]	n/a	FR1	4	R1345D
511.98	0.016	512377	TRIAL_END	n/a	n/a	n/a	-999	2	[0, 0, 0]	n/a	FR1	4	R1345D
511.996	0.001	512393	TRIAL_START	n/a	n/a	n/a	-999	3	[0, 0, 0]	n/a	FR1	4	R1345D
511.997	0.0	512394	WAITING_START	n/a	n/a	n/a	-999	3	[0, 0, 0]	n/a	FR1	4	R1345D
511.997	2.558	512394	TRIAL	n/a	n/a	n/a	-999	3	[0, 0, 0]	n/a	FR1	4	R1345D
514.555	0.001	514952	WAITING_END	n/a	n/a	n/a	-999	3	[0, 0, 0]	n/a	FR1	4	R1345D
514.556	10.428	514953	COUNTDOWN_START	n/a	n/a	n/a	-999	3	[0, 0, 0]	n/a	FR1	4	R1345D
524.984	0.001	525380	COUNTDOWN_END	n/a	n/a	n/a	-999	3	[0, 0, 0]	n/a	FR1	4	R1345D
524.985	1.239	525381	ORIENT_START	n/a	n/a	n/a	-999	3	[0, 0, 0]	n/a	FR1	4	R1345D
526.224	0.0	526620	ORIENT_END	n/a	n/a	n/a	-999	3	[0, 0, 0]	n/a	FR1	4	R1345D
526.224	1.099	526620	ENCODING_START	n/a	n/a	n/a	-999	3	[0, 0, 0]	n/a	FR1	4	R1345D
527.323	1.635	527719	WORD	n/a	n/a	FOOT	1	3	[0, 0, 0]	n/a	FR1	4	R1345D
528.958	1.034	529354	WORD_OFF	n/a	n/a	FOOT	1	3	[0, 0, 0]	n/a	FR1	4	R1345D
529.992	1.633	530388	WORD	n/a	n/a	SWAMP	2	3	[0, 0, 0]	n/a	FR1	4	R1345D
531.625	1.096	532021	WORD_OFF	n/a	n/a	SWAMP	2	3	[0, 0, 0]	n/a	FR1	4	R1345D
532.721	1.638	533117	WORD	n/a	n/a	SHRIMP	3	3	[0, 0, 0]	n/a	FR1	4	R1345D
534.359	1.008	534755	WORD_OFF	n/a	n/a	SHRIMP	3	3	[0, 0, 0]	n/a	FR1	4	R1345D
535.367	1.626	535763	WORD	n/a	n/a	STRING	4	3	[0, 0, 0]	n/a	FR1	4	R1345D
536.993	0.912	537389	WORD_OFF	n/a	n/a	STRING	4	3	[0, 0, 0]	n/a	FR1	4	R1345D
537.905	1.638	538301	WORD	n/a	n/a	BLOOM	5	3	[0, 0, 0]	n/a	FR1	4	R1345D
539.543	0.783	539939	WORD_OFF	n/a	n/a	BLOOM	5	3	[0, 0, 0]	n/a	FR1	4	R1345D
540.326	1.634	540722	WORD	n/a	n/a	CHALK	6	3	[0, 0, 0]	n/a	FR1	4	R1345D
541.96	1.059	542355	WORD_OFF	n/a	n/a	CHALK	6	3	[0, 0, 0]	n/a	FR1	4	R1345D
543.019	1.625	543414	WORD	n/a	n/a	MOOSE	7	3	[0, 0, 0]	n/a	FR1	4	R1345D
544.644	0.942	545039	WORD_OFF	n/a	n/a	MOOSE	7	3	[0, 0, 0]	n/a	FR1	4	R1345D
545.586	1.625	545981	WORD	n/a	n/a	MOUSE	8	3	[0, 0, 0]	n/a	FR1	4	R1345D
547.211	0.766	547606	WORD_OFF	n/a	n/a	MOUSE	8	3	[0, 0, 0]	n/a	FR1	4	R1345D
547.977	1.635	548372	WORD	n/a	n/a	LEAF	9	3	[0, 0, 0]	n/a	FR1	4	R1345D
549.612	0.921	550007	WORD_OFF	n/a	n/a	LEAF	9	3	[0, 0, 0]	n/a	FR1	4	R1345D
550.533	1.629	550928	WORD	n/a	n/a	BANK	10	3	[0, 0, 0]	n/a	FR1	4	R1345D
552.162	1.142	552557	WORD_OFF	n/a	n/a	BANK	10	3	[0, 0, 0]	n/a	FR1	4	R1345D
553.304	1.625	553699	WORD	n/a	n/a	CAGE	11	3	[0, 0, 0]	n/a	FR1	4	R1345D
554.929	0.933	555324	WORD_OFF	n/a	n/a	CAGE	11	3	[0, 0, 0]	n/a	FR1	4	R1345D
555.862	1.634	556257	WORD	n/a	n/a	CANE	12	3	[0, 0, 0]	n/a	FR1	4	R1345D
557.496	0.001	557891	WORD_OFF	n/a	n/a	CANE	12	3	[0, 0, 0]	n/a	FR1	4	R1345D
557.497	0.0	557892	ENCODING_END	n/a	n/a	n/a	-999	3	[0, 0, 0]	n/a	FR1	4	R1345D
557.497	0.0	557892	DISTRACT_START	n/a	n/a	n/a	-999	3	[0, 0, 0]	n/a	FR1	4	R1345D
557.497	0.016	557892	START	n/a	n/a	n/a	-999	3	[-999, -999, -999]	n/a	FR1	4	R1345D
557.513	6.451	557908	PROB	6.451	n/a	n/a	-999	3	[2, 1, 5]	8	FR1	4	R1345D
563.964	6.468	564358	PROB	6.468	n/a	n/a	-999	3	[8, 2, 9]	19	FR1	4	R1345D
570.432	4.167	570826	PROB	4.167	n/a	n/a	-999	3	[6, 1, 6]	13	FR1	4	R1345D
574.599	4.456	574993	PROB	4.456	n/a	n/a	-999	3	[8, 3, 4]	15	FR1	4	R1345D
579.055	0.012	579448	STOP	n/a	n/a	n/a	-999	3	[-999, -999, -999]	n/a	FR1	4	R1345D
579.067	0.697	579460	DISTRACT_END	n/a	n/a	n/a	-999	3	[0, 0, 0]	n/a	FR1	4	R1345D
579.764	1.653	580157	RETRIEVAL_ORIENT_START	n/a	n/a	n/a	-999	3	[0, 0, 0]	n/a	FR1	4	R1345D
581.417	0.001	581810	RETRIEVAL_ORIENT_END	n/a	n/a	n/a	-999	3	[0, 0, 0]	n/a	FR1	4	R1345D
581.418	1.916	581811	REC_START	n/a	n/a	n/a	-999	3	[0, 0, 0]	n/a	FR1	4	R1345D
583.334	3.317	583727	REC_WORD	3.317	n/a	CHALK	6	3	[0, 0, 0]	n/a	FR1	4	R1345D
586.651	1.794	587044	REC_WORD	1.794	n/a	MOUSE	8	3	[0, 0, 0]	n/a	FR1	4	R1345D
588.445	1.706	588838	REC_WORD	1.706	n/a	MOOSE	7	3	[0, 0, 0]	n/a	FR1	4	R1345D
590.151	7.624	590544	REC_WORD	7.624	n/a	STRING	4	3	[0, 0, 0]	n/a	FR1	4	R1345D
597.775	7.72	598167	REC_WORD	7.72	n/a	ROPE	-999	3	[0, 0, 0]	n/a	FR1	4	R1345D
605.495	3.41	605887	REC_WORD	3.41	n/a	SWAMP	2	3	[0, 0, 0]	n/a	FR1	4	R1345D
608.905	2.525	609297	REC_WORD_VV	2.525	n/a	<>	-999	3	[0, 0, 0]	n/a	FR1	4	R1345D
611.43	0.0	611821	REC_END	n/a	n/a	n/a	-999	3	[0, 0, 0]	n/a	FR1	4	R1345D
611.43	0.016	611821	TRIAL_END	n/a	n/a	n/a	-999	3	[0, 0, 0]	n/a	FR1	4	R1345D
611.446	0.001	611837	TRIAL_START	n/a	n/a	n/a	-999	4	[0, 0, 0]	n/a	FR1	4	R1345D
611.447	0.0	611838	WAITING_START	n/a	n/a	n/a	-999	4	[0, 0, 0]	n/a	FR1	4	R1345D
611.447	3.993	611838	TRIAL	n/a	n/a	n/a	-999	4	[0, 0, 0]	n/a	FR1	4	R1345D
615.44	0.001	615831	WAITING_END	n/a	n/a	n/a	-999	4	[0, 0, 0]	n/a	FR1	4	R1345D
615.441	10.428	615832	COUNTDOWN_START	n/a	n/a	n/a	-999	4	[0, 0, 0]	n/a	FR1	4	R1345D
625.869	0.001	626260	COUNTDOWN_END	n/a	n/a	n/a	-999	4	[0, 0, 0]	n/a	FR1	4	R1345D
625.87	1.089	626261	ORIENT_START	n/a	n/a	n/a	-999	4	[0, 0, 0]	n/a	FR1	4	R1345D
626.959	0.0	627349	ORIENT_END	n/a	n/a	n/a	-999	4	[0, 0, 0]	n/a	FR1	4	R1345D
626.959	1.15	627349	ENCODING_START	n/a	n/a	n/a	-999	4	[0, 0, 0]	n/a	FR1	4	R1345D
628.109	1.634	628499	WORD	n/a	n/a	SKUNK	1	4	[0, 0, 0]	n/a	FR1	4	R1345D
629.743	0.856	630133	WORD_OFF	n/a	n/a	SKUNK	1	4	[0, 0, 0]	n/a	FR1	4	R1345D
630.599	1.628	630989	WORD	n/a	n/a	BEAN	2	4	[0, 0, 0]	n/a	FR1	4	R1345D
632.227	1.055	632617	WORD_OFF	n/a	n/a	BEAN	2	4	[0, 0, 0]	n/a	FR1	4	R1345D
633.282	1.628	633672	WORD	n/a	n/a	FUDGE	3	4	[0, 0, 0]	n/a	FR1	4	R1345D
634.91	1.029	635300	WORD_OFF	n/a	n/a	FUDGE	3	4	[0, 0, 0]	n/a	FR1	4	R1345D
635.939	1.639	636329	WORD	n/a	n/a	SMILE	4	4	[0, 0, 0]	n/a	FR1	4	R1345D
637.578	1.026	637968	WORD_OFF	n/a	n/a	SMILE	4	4	[0, 0, 0]	n/a	FR1	4	R1345D
638.604	1.624	638994	WORD	n/a	n/a	SHEEP	5	4	[0, 0, 0]	n/a	FR1	4	R1345D
640.228	0.929	640618	WORD_OFF	n/a	n/a	SHEEP	5	4	[0, 0, 0]	n/a	FR1	4	R1345D
641.157	1.622	641547	WORD	n/a	n/a	PLANE	6	4	[0, 0, 0]	n/a	FR1	4	R1345D
642.779	0.814	643169	WORD_OFF	n/a	n/a	PLANE	6	4	[0, 0, 0]	n/a	FR1	4	R1345D
643.593	1.636	643983	WORD	n/a	n/a	JAR	7	4	[0, 0, 0]	n/a	FR1	4	R1345D
645.229	0.831	645618	WORD_OFF	n/a	n/a	JAR	7	4	[0, 0, 0]	n/a	FR1	4	R1345D
646.06	1.636	646449	WORD	n/a	n/a	PIG	8	4	[0, 0, 0]	n/a	FR1	4	R1345D
647.696	0.987	648085	WORD_OFF	n/a	n/a	PIG	8	4	[0, 0, 0]	n/a	FR1	4	R1345D
648.683	1.63	649072	WORD	n/a	n/a	SLUSH	9	4	[0, 0, 0]	n/a	FR1	4	R1345D
650.313	1.091	650702	WORD_OFF	n/a	n/a	SLUSH	9	4	[0, 0, 0]	n/a	FR1	4	R1345D
651.404	1.626	651793	WORD	n/a	n/a	DIME	10	4	[0, 0, 0]	n/a	FR1	4	R1345D
653.03	0.766	653419	WORD_OFF	n/a	n/a	DIME	10	4	[0, 0, 0]	n/a	FR1	4	R1345D
653.796	1.635	654185	WORD	n/a	n/a	GUARD	11	4	[0, 0, 0]	n/a	FR1	4	R1345D
655.431	0.759	655820	WORD_OFF	n/a	n/a	GUARD	11	4	[0, 0, 0]	n/a	FR1	4	R1345D
656.19	1.625	656579	WORD	n/a	n/a	EGG	12	4	[0, 0, 0]	n/a	FR1	4	R1345D
657.815	0.0	658204	WORD_OFF	n/a	n/a	EGG	12	4	[0, 0, 0]	n/a	FR1	4	R1345D
657.815	0.001	658204	ENCODING_END	n/a	n/a	n/a	-999	4	[0, 0, 0]	n/a	FR1	4	R1345D
657.816	0.0	658205	DISTRACT_START	n/a	n/a	n/a	-999	4	[0, 0, 0]	n/a	FR1	4	R1345D
657.816	0.015	658205	START	n/a	n/a	n/a	-999	4	[-999, -999, -999]	n/a	FR1	4	R1345D
657.831	5.084	658220	PROB	5.084	n/a	n/a	-999	4	[8, 5, 5]	18	FR1	4	R1345D
662.915	7.418	663303	PROB	7.418	n/a	n/a	-999	4	[8, 5, 3]	16	FR1	4	R1345D
670.333	6.101	670721	PROB	6.101	n/a	n/a	-999	4	[7, 1, 8]	16	FR1	4	R1345D
676.434	4.58	676822	PROB	4.58	n/a	n/a	-999	4	[7, 7, 8]	22	FR1	4	R1345D
681.014	0.021	681401	STOP	n/a	n/a	n/a	-999	4	[-999, -999, -999]	n/a	FR1	4	R1345D
681.035	0.559	681422	DISTRACT_END	n/a	n/a	n/a	-999	4	[0, 0, 0]	n/a	FR1	4	R1345D
681.594	1.575	681981	RETRIEVAL_ORIENT_START	n/a	n/a	n/a	-999	4	[0, 0, 0]	n/a	FR1	4	R1345D
683.169	0.0	683556	REC_START	n/a	n/a	n/a	-999	4	[0, 0, 0]	n/a	FR1	4	R1345D
683.169	3.494	683556	RETRIEVAL_ORIENT_END	n/a	n/a	n/a	-999	4	[0, 0, 0]	n/a	FR1	4	R1345D
686.663	14.532	687050	REC_WORD	14.532	n/a	BEAN	2	4	[0, 0, 0]	n/a	FR1	4	R1345D
701.195	0.343	701581	REC_WORD	0.343	n/a	BEAN	2	4	[0, 0, 0]	n/a	FR1	4	R1345D
701.538	2.904	701924	REC_WORD	2.904	n/a	BOAT	-999	4	[0, 0, 0]	n/a	FR1	4	R1345D
704.442	1.123	704828	REC_WORD	1.123	n/a	FOOT	-999	4	[0, 0, 0]	n/a	FR1	4	R1345D
705.565	6.213	705951	REC_WORD	6.213	n/a	SWAMP	-999	4	[0, 0, 0]	n/a	FR1	4	R1345D
711.778	1.403	712164	REC_WORD	1.403	n/a	YEAH	-999	4	[0, 0, 0]	n/a	FR1	4	R1345D
713.181	0.001	713566	REC_END	n/a	n/a	n/a	-999	4	[0, 0, 0]	n/a	FR1	4	R1345D
713.182	0.015	713567	TRIAL_END	n/a	n/a	n/a	-999	4	[0, 0, 0]	n/a	FR1	4	R1345D
713.197	0.0	713582	WAITING_START	n/a	n/a	n/a	-999	5	[0, 0, 0]	n/a	FR1	4	R1345D
713.197	0.0	713582	TRIAL_START	n/a	n/a	n/a	-999	5	[0, 0, 0]	n/a	FR1	4	R1345D
713.197	4.612	713582	TRIAL	n/a	n/a	n/a	-999	5	[0, 0, 0]	n/a	FR1	4	R1345D
717.809	0.0	718194	COUNTDOWN_START	n/a	n/a	n/a	-999	5	[0, 0, 0]	n/a	FR1	4	R1345D
717.809	10.429	718194	WAITING_END	n/a	n/a	n/a	-999	5	[0, 0, 0]	n/a	FR1	4	R1345D
728.238	0.0	728623	COUNTDOWN_END	n/a	n/a	n/a	-999	5	[0, 0, 0]	n/a	FR1	4	R1345D
728.238	1.173	728623	ORIENT_START	n/a	n/a	n/a	-999	5	[0, 0, 0]	n/a	FR1	4	R1345D
729.411	0.0	729795	ORIENT_END	n/a	n/a	n/a	-999	5	[0, 0, 0]	n/a	FR1	4	R1345D
729.411	0.767	729795	ENCODING_START	n/a	n/a	n/a	-999	5	[0, 0, 0]	n/a	FR1	4	R1345D
730.178	1.633	730562	WORD	n/a	n/a	CLOUD	1	5	[0, 0, 0]	n/a	FR1	4	R1345D
731.811	0.886	732195	WORD_OFF	n/a	n/a	CLOUD	1	5	[0, 0, 0]	n/a	FR1	4	R1345D
732.697	1.632	733081	WORD	n/a	n/a	FOAM	2	5	[0, 0, 0]	n/a	FR1	4	R1345D
734.329	0.82	734713	WORD_OFF	n/a	n/a	FOAM	2	5	[0, 0, 0]	n/a	FR1	4	R1345D
735.149	1.63	735533	WORD	n/a	n/a	FLAME	3	5	[0, 0, 0]	n/a	FR1	4	R1345D
736.779	1.018	737163	WORD_OFF	n/a	n/a	FLAME	3	5	[0, 0, 0]	n/a	FR1	4	R1345D
737.797	1.632	738181	WORD	n/a	n/a	MAZE	4	5	[0, 0, 0]	n/a	FR1	4	R1345D
739.429	1.093	739813	WORD_OFF	n/a	n/a	MAZE	4	5	[0, 0, 0]	n/a	FR1	4	R1345D
740.522	1.625	740906	WORD	n/a	n/a	JUICE	5	5	[0, 0, 0]	n/a	FR1	4	R1345D
742.147	1.079	742531	WORD_OFF	n/a	n/a	JUICE	5	5	[0, 0, 0]	n/a	FR1	4	R1345D
743.226	1.621	743610	WORD	n/a	n/a	AXE	6	5	[0, 0, 0]	n/a	FR1	4	R1345D
744.847	0.979	745231	WORD_OFF	n/a	n/a	AXE	6	5	[0, 0, 0]	n/a	FR1	4	R1345D
745.826	1.638	746210	WORD	n/a	n/a	BREAD	7	5	[0, 0, 0]	n/a	FR1	4	R1345D
747.464	1.118	747847	WORD_OFF	n/a	n/a	BREAD	7	5	[0, 0, 0]	n/a	FR1	4	R1345D
748.582	1.633	748965	WORD	n/a	n/a	SIGN	8	5	[0, 0, 0]	n/a	FR1	4	R1345D
750.215	1.09	750598	WORD_OFF	n/a	n/a	SIGN	8	5	[0, 0, 0]	n/a	FR1	4	R1345D
751.305	1.627	751688	WORD	n/a	n/a	FROG	9	5	[0, 0, 0]	n/a	FR1	4	R1345D
752.932	0.768	753315	WORD_OFF	n/a	n/a	FROG	9	5	[0, 0, 0]	n/a	FR1	4	R1345D
753.7	1.632	754083	WORD	n/a	n/a	OAK	10	5	[0, 0, 0]	n/a	FR1	4	R1345D
755.332	0.969	755715	WORD_OFF	n/a	n/a	OAK	10	5	[0, 0, 0]	n/a	FR1	4	R1345D
756.301	1.632	756684	WORD	n/a	n/a	RAIN	11	5	[0, 0, 0]	n/a	FR1	4	R1345D
757.933	1.136	758316	WORD_OFF	n/a	n/a	RAIN	11	5	[0, 0, 0]	n/a	FR1	4	R1345D
759.069	1.631	759452	WORD	n/a	n/a	LAMB	12	5	[0, 0, 0]	n/a	FR1	4	R1345D
760.7	0.0	761083	WORD_OFF	n/a	n/a	LAMB	12	5	[0, 0, 0]	n/a	FR1	4	R1345D
760.7	0.001	761083	ENCODING_END	n/a	n/a	n/a	-999	5	[0, 0, 0]	n/a	FR1	4	R1345D
760.701	0.0	761084	DISTRACT_START	n/a	n/a	n/a	-999	5	[0, 0, 0]	n/a	FR1	4	R1345D
760.701	0.015	761084	START	n/a	n/a	n/a	-999	5	[-999, -999, -999]	n/a	FR1	4	R1345D
760.716	5.952	761099	PROB	5.952	n/a	n/a	-999	5	[4, 1, 9]	14	FR1	4	R1345D
766.668	5.284	767050	PROB	5.284	n/a	n/a	-999	5	[6, 8, 2]	16	FR1	4	R1345D
771.952	5.184	772334	PROB	5.184	n/a	n/a	-999	5	[7, 5, 3]	15	FR1	4	R1345D
777.136	10.603	777518	PROB	10.603	n/a	n/a	-999	5	[7, 9, 6]	22	FR1	4	R1345D
787.739	0.016	788120	STOP	n/a	n/a	n/a	-999	5	[-999, -999, -999]	n/a	FR1	4	R1345D
787.755	0.657	788136	DISTRACT_END	n/a	n/a	n/a	-999	5	[0, 0, 0]	n/a	FR1	4	R1345D
788.412	1.677	788793	RETRIEVAL_ORIENT_START	n/a	n/a	n/a	-999	5	[0, 0, 0]	n/a	FR1	4	R1345D
790.089	0.0	790470	RETRIEVAL_ORIENT_END	n/a	n/a	n/a	-999	5	[0, 0, 0]	n/a	FR1	4	R1345D
790.089	15.176	790470	REC_START	n/a	n/a	n/a	-999	5	[0, 0, 0]	n/a	FR1	4	R1345D
805.265	1.015	805645	REC_WORD	1.015	n/a	FOAM	2	5	[0, 0, 0]	n/a	FR1	4	R1345D
806.28	1.565	806660	REC_WORD	1.565	n/a	FLAME	3	5	[0, 0, 0]	n/a	FR1	4	R1345D
807.845	6.469	808225	REC_WORD	6.469	n/a	MAZE	4	5	[0, 0, 0]	n/a	FR1	4	R1345D
814.314	5.604	814693	REC_WORD	5.604	n/a	MOVE	-999	5	[0, 0, 0]	n/a	FR1	4	R1345D
819.918	0.184	820297	REC_WORD	0.184	n/a	CLOUD	1	5	[0, 0, 0]	n/a	FR1	4	R1345D
820.102	0.0	820481	REC_END	n/a	n/a	n/a	-999	5	[0, 0, 0]	n/a	FR1	4	R1345D
820.102	0.016	820481	TRIAL_END	n/a	n/a	n/a	-999	5	[0, 0, 0]	n/a	FR1	4	R1345D
820.118	0.001	820497	TRIAL_START	n/a	n/a	n/a	-999	6	[0, 0, 0]	n/a	FR1	4	R1345D
820.119	0.0	820498	TRIAL	n/a	n/a	n/a	-999	6	[0, 0, 0]	n/a	FR1	4	R1345D
820.119	4.676	820498	WAITING_START	n/a	n/a	n/a	-999	6	[0, 0, 0]	n/a	FR1	4	R1345D
824.795	0.0	825174	WAITING_END	n/a	n/a	n/a	-999	6	[0, 0, 0]	n/a	FR1	4	R1345D
824.795	10.429	825174	COUNTDOWN_START	n/a	n/a	n/a	-999	6	[0, 0, 0]	n/a	FR1	4	R1345D
835.224	0.0	835602	ORIENT_START	n/a	n/a	n/a	-999	6	[0, 0, 0]	n/a	FR1	4	R1345D
835.224	1.206	835602	COUNTDOWN_END	n/a	n/a	n/a	-999	6	[0, 0, 0]	n/a	FR1	4	R1345D
836.43	0.001	836808	ORIENT_END	n/a	n/a	n/a	-999	6	[0, 0, 0]	n/a	FR1	4	R1345D
836.431	0.976	836809	ENCODING_START	n/a	n/a	n/a	-999	6	[0, 0, 0]	n/a	FR1	4	R1345D
837.407	1.624	837785	WORD	n/a	n/a	BROOM	1	6	[0, 0, 0]	n/a	FR1	4	R1345D
839.031	0.776	839409	WORD_OFF	n/a	n/a	BROOM	1	6	[0, 0, 0]	n/a	FR1	4	R1345D
839.807	1.624	840185	WORD	n/a	n/a	CHIEF	2	6	[0, 0, 0]	n/a	FR1	4	R1345D
841.431	1.15	841809	WORD_OFF	n/a	n/a	CHIEF	2	6	[0, 0, 0]	n/a	FR1	4	R1345D
842.581	1.634	842959	WORD	n/a	n/a	SCHOOL	3	6	[0, 0, 0]	n/a	FR1	4	R1345D
844.215	0.912	844593	WORD_OFF	n/a	n/a	SCHOOL	3	6	[0, 0, 0]	n/a	FR1	4	R1345D
845.127	1.639	845505	WORD	n/a	n/a	STRAW	4	6	[0, 0, 0]	n/a	FR1	4	R1345D
846.766	0.876	847144	WORD_OFF	n/a	n/a	STRAW	4	6	[0, 0, 0]	n/a	FR1	4	R1345D
847.642	1.624	848020	WORD	n/a	n/a	BOOK	5	6	[0, 0, 0]	n/a	FR1	4	R1345D
849.266	0.901	849643	WORD_OFF	n/a	n/a	BOOK	5	6	[0, 0, 0]	n/a	FR1	4	R1345D
850.167	1.633	850544	WORD	n/a	n/a	MOUTH	6	6	[0, 0, 0]	n/a	FR1	4	R1345D
851.8	0.827	852177	WORD_OFF	n/a	n/a	MOUTH	6	6	[0, 0, 0]	n/a	FR1	4	R1345D
852.627	1.623	853004	WORD	n/a	n/a	SPRING	7	6	[0, 0, 0]	n/a	FR1	4	R1345D
854.25	0.848	854627	WORD_OFF	n/a	n/a	SPRING	7	6	[0, 0, 0]	n/a	FR1	4	R1345D
855.098	1.636	855475	WORD	n/a	n/a	STEM	8	6	[0, 0, 0]	n/a	FR1	4	R1345D
856.734	0.84	857111	WORD_OFF	n/a	n/a	STEM	8	6	[0, 0, 0]	n/a	FR1	4	R1345D
857.574	1.627	857951	WORD	n/a	n/a	WING	9	6	[0, 0, 0]	n/a	FR1	4	R1345D
859.201	1.135	859578	WORD_OFF	n/a	n/a	WING	9	6	[0, 0, 0]	n/a	FR1	4	R1345D
860.336	1.632	860713	WORD	n/a	n/a	PEACH	10	6	[0, 0, 0]	n/a	FR1	4	R1345D
861.968	0.801	862345	WORD_OFF	n/a	n/a	PEACH	10	6	[0, 0, 0]	n/a	FR1	4	R1345D
862.769	1.633	863146	WORD	n/a	n/a	FOOD	11	6	[0, 0, 0]	n/a	FR1	4	R1345D
864.402	1.014	864779	WORD_OFF	n/a	n/a	FOOD	11	6	[0, 0, 0]	n/a	FR1	4	R1345D
865.416	1.636	865792	WORD	n/a	n/a	HORN	12	6	[0, 0, 0]	n/a	FR1	4	R1345D
867.052	0.0	867428	WORD_OFF	n/a	n/a	HORN	12	6	[0, 0, 0]	n/a	FR1	4	R1345D
867.052	0.001	867428	ENCODING_END	n/a	n/a	n/a	-999	6	[0, 0, 0]	n/a	FR1	4	R1345D
867.053	0.0	867429	DISTRACT_START	n/a	n/a	n/a	-999	6	[0, 0, 0]	n/a	FR1	4	R1345D
867.053	0.016	867429	START	n/a	n/a	n/a	-999	6	[-999, -999, -999]	n/a	FR1	4	R1345D
867.069	5.568	867445	PROB	5.568	n/a	n/a	-999	6	[3, 2, 8]	13	FR1	4	R1345D
872.637	5.834	873013	PROB	5.834	n/a	n/a	-999	6	[4, 8, 1]	13	FR1	4	R1345D
878.471	6.051	878847	PROB	6.051	n/a	n/a	-999	6	[6, 3, 6]	15	FR1	4	R1345D
884.522	4.739	884897	PROB	4.739	n/a	n/a	-999	6	[5, 9, 9]	23	FR1	4	R1345D
889.261	0.012	889636	STOP	n/a	n/a	n/a	-999	6	[-999, -999, -999]	n/a	FR1	4	R1345D
889.273	0.513	889648	DISTRACT_END	n/a	n/a	n/a	-999	6	[0, 0, 0]	n/a	FR1	4	R1345D
889.786	1.671	890161	RETRIEVAL_ORIENT_START	n/a	n/a	n/a	-999	6	[0, 0, 0]	n/a	FR1	4	R1345D
891.457	0.001	891832	RETRIEVAL_ORIENT_END	n/a	n/a	n/a	-999	6	[0, 0, 0]	n/a	FR1	4	R1345D
891.458	1.112	891833	REC_START	n/a	n/a	n/a	-999	6	[0, 0, 0]	n/a	FR1	4	R1345D
892.57	0.565	892945	REC_WORD	0.565	n/a	SESSION	-999	6	[0, 0, 0]	n/a	FR1	4	R1345D
893.135	3.18	893510	REC_WORD	3.18	n/a	SCHOOL	3	6	[0, 0, 0]	n/a	FR1	4	R1345D
896.315	4.494	896690	REC_WORD_VV	4.494	n/a	<>	-999	6	[0, 0, 0]	n/a	FR1	4	R1345D
900.809	3.735	901183	REC_WORD	3.735	n/a	STOP	-999	6	[0, 0, 0]	n/a	FR1	4	R1345D
904.544	7.917	904918	REC_WORD	7.917	n/a	STEM	8	6	[0, 0, 0]	n/a	FR1	4	R1345D
912.461	4.521	912835	REC_WORD	4.521	n/a	GAZED	-999	6	[0, 0, 0]	n/a	FR1	4	R1345D
916.982	1.0	917355	REC_WORD_VV	1.0	n/a	<>	-999	6	[0, 0, 0]	n/a	FR1	4	R1345D
917.982	1.409	918355	REC_WORD_VV	1.409	n/a	<>	-999	6	[0, 0, 0]	n/a	FR1	4	R1345D
919.391	2.078	919764	REC_WORD_VV	2.078	n/a	<>	-999	6	[0, 0, 0]	n/a	FR1	4	R1345D
921.469	0.0	921842	REC_END	n/a	n/a	n/a	-999	6	[0, 0, 0]	n/a	FR1	4	R1345D
921.469	0.015	921842	TRIAL_END	n/a	n/a	n/a	-999	6	[0, 0, 0]	n/a	FR1	4	R1345D
921.484	0.0	921857	TRIAL_START	n/a	n/a	n/a	-999	7	[0, 0, 0]	n/a	FR1	4	R1345D
921.484	0.0	921857	TRIAL	n/a	n/a	n/a	-999	7	[0, 0, 0]	n/a	FR1	4	R1345D
921.484	5.03	921857	WAITING_START	n/a	n/a	n/a	-999	7	[0, 0, 0]	n/a	FR1	4	R1345D
926.514	0.0	926887	COUNTDOWN_START	n/a	n/a	n/a	-999	7	[0, 0, 0]	n/a	FR1	4	R1345D
926.514	10.428	926887	WAITING_END	n/a	n/a	n/a	-999	7	[0, 0, 0]	n/a	FR1	4	R1345D
936.942	0.001	937314	COUNTDOWN_END	n/a	n/a	n/a	-999	7	[0, 0, 0]	n/a	FR1	4	R1345D
936.943	1.173	937315	ORIENT_START	n/a	n/a	n/a	-999	7	[0, 0, 0]	n/a	FR1	4	R1345D
938.116	0.0	938488	ORIENT_END	n/a	n/a	n/a	-999	7	[0, 0, 0]	n/a	FR1	4	R1345D
938.116	0.841	938488	ENCODING_START	n/a	n/a	n/a	-999	7	[0, 0, 0]	n/a	FR1	4	R1345D
938.957	1.626	939329	WORD	n/a	n/a	WOLF	1	7	[0, 0, 0]	n/a	FR1	4	R1345D
940.583	0.974	940955	WORD_OFF	n/a	n/a	WOLF	1	7	[0, 0, 0]	n/a	FR1	4	R1345D
941.557	1.626	941929	WORD	n/a	n/a	DART	2	7	[0, 0, 0]	n/a	FR1	4	R1345D
943.183	0.996	943555	WORD_OFF	n/a	n/a	DART	2	7	[0, 0, 0]	n/a	FR1	4	R1345D
944.179	1.621	944551	WORD	n/a	n/a	OWL	3	7	[0, 0, 0]	n/a	FR1	4	R1345D
945.8	0.916	946172	WORD_OFF	n/a	n/a	OWL	3	7	[0, 0, 0]	n/a	FR1	4	R1345D
946.716	1.635	947088	WORD	n/a	n/a	TOE	4	7	[0, 0, 0]	n/a	FR1	4	R1345D
948.351	1.134	948723	WORD_OFF	n/a	n/a	TOE	4	7	[0, 0, 0]	n/a	FR1	4	R1345D
949.485	1.633	949857	WORD	n/a	n/a	HOOF	5	7	[0, 0, 0]	n/a	FR1	4	R1345D
951.118	0.822	951489	WORD_OFF	n/a	n/a	HOOF	5	7	[0, 0, 0]	n/a	FR1	4	R1345D
951.94	1.628	952311	WORD	n/a	n/a	HOLE	6	7	[0, 0, 0]	n/a	FR1	4	R1345D
953.568	0.786	953939	WORD_OFF	n/a	n/a	HOLE	6	7	[0, 0, 0]	n/a	FR1	4	R1345D
954.354	1.632	954725	WORD	n/a	n/a	FAN	7	7	[0, 0, 0]	n/a	FR1	4	R1345D
955.986	1.085	956357	WORD_OFF	n/a	n/a	FAN	7	7	[0, 0, 0]	n/a	FR1	4	R1345D
957.071	1.632	957442	WORD	n/a	n/a	BRIDGE	8	7	[0, 0, 0]	n/a	FR1	4	R1345D
958.703	1.11	959074	WORD_OFF	n/a	n/a	BRIDGE	8	7	[0, 0, 0]	n/a	FR1	4	R1345D
959.813	1.624	960184	WORD	n/a	n/a	SOCK	9	7	[0, 0, 0]	n/a	FR1	4	R1345D
961.437	0.768	961808	WORD_OFF	n/a	n/a	SOCK	9	7	[0, 0, 0]	n/a	FR1	4	R1345D
962.205	1.632	962576	WORD	n/a	n/a	WORM	10	7	[0, 0, 0]	n/a	FR1	4	R1345D
963.837	1.147	964208	WORD_OFF	n/a	n/a	WORM	10	7	[0, 0, 0]	n/a	FR1	4	R1345D
964.984	1.637	965355	WORD	n/a	n/a	FORK	11	7	[0, 0, 0]	n/a	FR1	4	R1345D
966.621	0.795	966992	WORD_OFF	n/a	n/a	FORK	11	7	[0, 0, 0]	n/a	FR1	4	R1345D
967.416	1.638	967787	WORD	n/a	n/a	HOUSE	12	7	[0, 0, 0]	n/a	FR1	4	R1345D
969.054	0.0	969424	WORD_OFF	n/a	n/a	HOUSE	12	7	[0, 0, 0]	n/a	FR1	4	R1345D
969.054	0.001	969424	ENCODING_END	n/a	n/a	n/a	-999	7	[0, 0, 0]	n/a	FR1	4	R1345D
969.055	0.0	969425	DISTRACT_START	n/a	n/a	n/a	-999	7	[0, 0, 0]	n/a	FR1	4	R1345D
969.055	0.016	969425	START	n/a	n/a	n/a	-999	7	[-999, -999, -999]	n/a	FR1	4	R1345D
969.071	7.635	969441	PROB	7.635	n/a	n/a	-999	7	[2, 5, 9]	16	FR1	4	R1345D
976.706	5.134	977076	PROB	5.134	n/a	n/a	-999	7	[1, 5, 8]	14	FR1	4	R1345D
981.84	4.518	982210	PROB	4.518	n/a	n/a	-999	7	[6, 7, 6]	19	FR1	4	R1345D
986.358	6.791	986727	PROB	6.791	n/a	n/a	-999	7	[3, 6, 9]	18	FR1	4	R1345D
993.149	0.01	993518	STOP	n/a	n/a	n/a	-999	7	[-999, -999, -999]	n/a	FR1	4	R1345D
993.159	0.626	993528	DISTRACT_END	n/a	n/a	n/a	-999	7	[0, 0, 0]	n/a	FR1	4	R1345D
993.785	1.574	994154	RETRIEVAL_ORIENT_START	n/a	n/a	n/a	-999	7	[0, 0, 0]	n/a	FR1	4	R1345D
995.359	0.001	995728	RETRIEVAL_ORIENT_END	n/a	n/a	n/a	-999	7	[0, 0, 0]	n/a	FR1	4	R1345D
995.36	4.257	995729	REC_START	n/a	n/a	n/a	-999	7	[0, 0, 0]	n/a	FR1	4	R1345D
999.617	3.65	999986	REC_WORD	3.65	n/a	HOUSE	12	7	[0, 0, 0]	n/a	FR1	4	R1345D
1003.267	4.043	1003635	REC_WORD	4.043	n/a	MOVE	-999	7	[0, 0, 0]	n/a	FR1	4	R1345D
1007.31	0.795	1007678	REC_WORD	0.795	n/a	MOVE	-999	7	[0, 0, 0]	n/a	FR1	4	R1345D
1008.105	5.631	1008473	REC_WORD	5.631	n/a	HOUSE	12	7	[0, 0, 0]	n/a	FR1	4	R1345D
1013.736	0.718	1014104	REC_WORD	0.718	n/a	TOE	4	7	[0, 0, 0]	n/a	FR1	4	R1345D
1014.454	0.615	1014822	REC_WORD	0.615	n/a	BOOT	-999	7	[0, 0, 0]	n/a	FR1	4	R1345D
1015.069	6.12	1015437	REC_WORD	6.12	n/a	SOCK	9	7	[0, 0, 0]	n/a	FR1	4	R1345D
1021.189	4.183	1021556	REC_WORD	4.183	n/a	FOOT	-999	7	[0, 0, 0]	n/a	FR1	4	R1345D
1025.372	0.001	1025739	REC_END	n/a	n/a	n/a	-999	7	[0, 0, 0]	n/a	FR1	4	R1345D
1025.373	0.016	1025740	TRIAL_END	n/a	n/a	n/a	-999	7	[0, 0, 0]	n/a	FR1	4	R1345D
1025.389	0.0	1025756	TRIAL_START	n/a	n/a	n/a	-999	8	[0, 0, 0]	n/a	FR1	4	R1345D
1025.389	0.001	1025756	TRIAL	n/a	n/a	n/a	-999	8	[0, 0, 0]	n/a	FR1	4	R1345D
1025.39	3.926	1025757	WAITING_START	n/a	n/a	n/a	-999	8	[0, 0, 0]	n/a	FR1	4	R1345D
1029.316	0.0	1029683	WAITING_END	n/a	n/a	n/a	-999	8	[0, 0, 0]	n/a	FR1	4	R1345D
1029.316	10.429	1029683	COUNTDOWN_START	n/a	n/a	n/a	-999	8	[0, 0, 0]	n/a	FR1	4	R1345D
1039.745	0.0	1040111	COUNTDOWN_END	n/a	n/a	n/a	-999	8	[0, 0, 0]	n/a	FR1	4	R1345D
1039.745	1.239	1040111	ORIENT_START	n/a	n/a	n/a	-999	8	[0, 0, 0]	n/a	FR1	4	R1345D
1040.984	0.001	1041350	ORIENT_END	n/a	n/a	n/a	-999	8	[0, 0, 0]	n/a	FR1	4	R1345D
1040.985	0.967	1041351	ENCODING_START	n/a	n/a	n/a	-999	8	[0, 0, 0]	n/a	FR1	4	R1345D
1041.952	1.633	1042318	WORD	n/a	n/a	CAPE	1	8	[0, 0, 0]	n/a	FR1	4	R1345D
1043.585	0.908	1043951	WORD_OFF	n/a	n/a	CAPE	1	8	[0, 0, 0]	n/a	FR1	4	R1345D
1044.493	1.626	1044859	WORD	n/a	n/a	ARM	2	8	[0, 0, 0]	n/a	FR1	4	R1345D
1046.119	0.798	1046485	WORD_OFF	n/a	n/a	ARM	2	8	[0, 0, 0]	n/a	FR1	4	R1345D
1046.917	1.635	1047283	WORD	n/a	n/a	RAKE	3	8	[0, 0, 0]	n/a	FR1	4	R1345D
1048.552	0.97	1048918	WORD_OFF	n/a	n/a	RAKE	3	8	[0, 0, 0]	n/a	FR1	4	R1345D
1049.522	1.631	1049888	WORD	n/a	n/a	TOOTH	4	8	[0, 0, 0]	n/a	FR1	4	R1345D
1051.153	0.977	1051519	WORD_OFF	n/a	n/a	TOOTH	4	8	[0, 0, 0]	n/a	FR1	4	R1345D
1052.13	1.623	1052496	WORD	n/a	n/a	POOL	5	8	[0, 0, 0]	n/a	FR1	4	R1345D
1053.753	1.031	1054118	WORD_OFF	n/a	n/a	POOL	5	8	[0, 0, 0]	n/a	FR1	4	R1345D
1054.784	1.637	1055149	WORD	n/a	n/a	ROSE	6	8	[0, 0, 0]	n/a	FR1	4	R1345D
1056.421	0.833	1056786	WORD_OFF	n/a	n/a	ROSE	6	8	[0, 0, 0]	n/a	FR1	4	R1345D
1057.254	1.634	1057619	WORD	n/a	n/a	DOLL	7	8	[0, 0, 0]	n/a	FR1	4	R1345D
1058.888	1.142	1059253	WORD_OFF	n/a	n/a	DOLL	7	8	[0, 0, 0]	n/a	FR1	4	R1345D
1060.03	1.625	1060395	WORD	n/a	n/a	GEESE	8	8	[0, 0, 0]	n/a	FR1	4	R1345D
1061.655	0.942	1062020	WORD_OFF	n/a	n/a	GEESE	8	8	[0, 0, 0]	n/a	FR1	4	R1345D
1062.597	1.625	1062962	WORD	n/a	n/a	SNAIL	9	8	[0, 0, 0]	n/a	FR1	4	R1345D
1064.222	1.018	1064587	WORD_OFF	n/a	n/a	SNAIL	9	8	[0, 0, 0]	n/a	FR1	4	R1345D
1065.24	1.632	1065605	WORD	n/a	n/a	WHEEL	10	8	[0, 0, 0]	n/a	FR1	4	R1345D
1066.872	0.918	1067237	WORD_OFF	n/a	n/a	WHEEL	10	8	[0, 0, 0]	n/a	FR1	4	R1345D
1067.79	1.633	1068155	WORD	n/a	n/a	PEA	11	8	[0, 0, 0]	n/a	FR1	4	R1345D
1069.423	0.956	1069788	WORD_OFF	n/a	n/a	PEA	11	8	[0, 0, 0]	n/a	FR1	4	R1345D
1070.379	1.628	1070743	WORD	n/a	n/a	BOY	12	8	[0, 0, 0]	n/a	FR1	4	R1345D
1072.007	0.0	1072371	WORD_OFF	n/a	n/a	BOY	12	8	[0, 0, 0]	n/a	FR1	4	R1345D
1072.007	0.0	1072371	ENCODING_END	n/a	n/a	n/a	-999	8	[0, 0, 0]	n/a	FR1	4	R1345D
1072.007	0.001	1072371	DISTRACT_START	n/a	n/a	n/a	-999	8	[0, 0, 0]	n/a	FR1	4	R1345D
1072.008	0.015	1072372	START	n/a	n/a	n/a	-999	8	[-999, -999, -999]	n/a	FR1	4	R1345D
1072.023	11.202	1072387	PROB	11.202	n/a	n/a	-999	8	[5, 9, 6]	20	FR1	4	R1345D
1083.225	5.335	1083589	PROB	5.335	n/a	n/a	-999	8	[2, 3, 6]	11	FR1	4	R1345D
1088.56	8.957	1088923	PROB	8.957	n/a	n/a	-999	8	[9, 5, 1]	15	FR1	4	R1345D
1097.517	0.011	1097880	STOP	n/a	n/a	n/a	-999	8	[-999, -999, -999]	n/a	FR1	4	R1345D
1097.528	0.629	1097891	DISTRACT_END	n/a	n/a	n/a	-999	8	[0, 0, 0]	n/a	FR1	4	R1345D
1098.157	1.705	1098520	RETRIEVAL_ORIENT_START	n/a	n/a	n/a	-999	8	[0, 0, 0]	n/a	FR1	4	R1345D
1099.862	0.0	1100225	RETRIEVAL_ORIENT_END	n/a	n/a	n/a	-999	8	[0, 0, 0]	n/a	FR1	4	R1345D
1099.862	1.911	1100225	REC_START	n/a	n/a	n/a	-999	8	[0, 0, 0]	n/a	FR1	4	R1345D
1101.773	7.187	1102136	REC_WORD	7.187	n/a	BOY	12	8	[0, 0, 0]	n/a	FR1	4	R1345D
1108.96	3.339	1109322	REC_WORD	3.339	n/a	DAY	-999	8	[0, 0, 0]	n/a	FR1	4	R1345D
1112.299	5.654	1112661	REC_WORD	5.654	n/a	MAZE	-999	8	[0, 0, 0]	n/a	FR1	4	R1345D
1117.953	0.94	1118315	REC_WORD	0.94	n/a	RUN	-999	8	[0, 0, 0]	n/a	FR1	4	R1345D
1118.893	6.545	1119255	REC_WORD_VV	6.545	n/a	<>	-999	8	[0, 0, 0]	n/a	FR1	4	R1345D
1125.438	4.438	1125799	REC_WORD	4.438	n/a	SCHOOL	-999	8	[0, 0, 0]	n/a	FR1	4	R1345D
1129.876	0.0	1130237	REC_END	n/a	n/a	n/a	-999	8	[0, 0, 0]	n/a	FR1	4	R1345D
1129.876	0.016	1130237	TRIAL_END	n/a	n/a	n/a	-999	8	[0, 0, 0]	n/a	FR1	4	R1345D
1129.892	0.0	1130253	TRIAL	n/a	n/a	n/a	-999	9	[0, 0, 0]	n/a	FR1	4	R1345D
1129.892	0.0	1130253	WAITING_START	n/a	n/a	n/a	-999	9	[0, 0, 0]	n/a	FR1	4	R1345D
1129.892	5.31	1130253	TRIAL_START	n/a	n/a	n/a	-999	9	[0, 0, 0]	n/a	FR1	4	R1345D
1135.202	0.0	1135563	WAITING_END	n/a	n/a	n/a	-999	9	[0, 0, 0]	n/a	FR1	4	R1345D
1135.202	10.428	1135563	COUNTDOWN_START	n/a	n/a	n/a	-999	9	[0, 0, 0]	n/a	FR1	4	R1345D
1145.63	0.0	1145990	COUNTDOWN_END	n/a	n/a	n/a	-999	9	[0, 0, 0]	n/a	FR1	4	R1345D
1145.63	1.207	1145990	ORIENT_START	n/a	n/a	n/a	-999	9	[0, 0, 0]	n/a	FR1	4	R1345D
1146.837	0.0	1147197	ORIENT_END	n/a	n/a	n/a	-999	9	[0, 0, 0]	n/a	FR1	4	R1345D
1146.837	0.931	1147197	ENCODING_START	n/a	n/a	n/a	-999	9	[0, 0, 0]	n/a	FR1	4	R1345D
1147.768	1.636	1148128	WORD	n/a	n/a	FOX	1	9	[0, 0, 0]	n/a	FR1	4	R1345D
1149.404	0.831	1149764	WORD_OFF	n/a	n/a	FOX	1	9	[0, 0, 0]	n/a	FR1	4	R1345D
1150.235	1.636	1150595	WORD	n/a	n/a	OAR	2	9	[0, 0, 0]	n/a	FR1	4	R1345D
1151.871	0.873	1152231	WORD_OFF	n/a	n/a	OAR	2	9	[0, 0, 0]	n/a	FR1	4	R1345D
1152.744	1.628	1153104	WORD	n/a	n/a	PEAR	3	9	[0, 0, 0]	n/a	FR1	4	R1345D
1154.372	1.143	1154732	WORD_OFF	n/a	n/a	PEAR	3	9	[0, 0, 0]	n/a	FR1	4	R1345D
1155.515	1.624	1155874	WORD	n/a	n/a	CHEEK	4	9	[0, 0, 0]	n/a	FR1	4	R1345D
1157.139	0.841	1157498	WORD_OFF	n/a	n/a	CHEEK	4	9	[0, 0, 0]	n/a	FR1	4	R1345D
1157.98	1.626	1158339	WORD	n/a	n/a	TANK	5	9	[0, 0, 0]	n/a	FR1	4	R1345D
1159.606	0.87	1159965	WORD_OFF	n/a	n/a	TANK	5	9	[0, 0, 0]	n/a	FR1	4	R1345D
1160.476	1.63	1160835	WORD	n/a	n/a	KITE	6	9	[0, 0, 0]	n/a	FR1	4	R1345D
1162.106	0.929	1162465	WORD_OFF	n/a	n/a	KITE	6	9	[0, 0, 0]	n/a	FR1	4	R1345D
1163.035	1.622	1163394	WORD	n/a	n/a	VEST	7	9	[0, 0, 0]	n/a	FR1	4	R1345D
1164.657	0.867	1165016	WORD_OFF	n/a	n/a	VEST	7	9	[0, 0, 0]	n/a	FR1	4	R1345D
1165.524	1.633	1165883	WORD	n/a	n/a	TRASH	8	9	[0, 0, 0]	n/a	FR1	4	R1345D
1167.157	1.036	1167516	WORD_OFF	n/a	n/a	TRASH	8	9	[0, 0, 0]	n/a	FR1	4	R1345D
1168.193	1.631	1168552	WORD	n/a	n/a	ROAD	9	9	[0, 0, 0]	n/a	FR1	4	R1345D
1169.824	1.027	1170183	WORD_OFF	n/a	n/a	ROAD	9	9	[0, 0, 0]	n/a	FR1	4	R1345D
1170.851	1.624	1171210	WORD	n/a	n/a	FRUIT	10	9	[0, 0, 0]	n/a	FR1	4	R1345D
1172.475	0.961	1172833	WORD_OFF	n/a	n/a	FRUIT	10	9	[0, 0, 0]	n/a	FR1	4	R1345D
1173.436	1.622	1173794	WORD	n/a	n/a	HILL	11	9	[0, 0, 0]	n/a	FR1	4	R1345D
1175.058	1.115	1175416	WORD_OFF	n/a	n/a	HILL	11	9	[0, 0, 0]	n/a	FR1	4	R1345D
1176.173	1.636	1176531	WORD	n/a	n/a	WEB	12	9	[0, 0, 0]	n/a	FR1	4	R1345D
1177.809	0.001	1178167	WORD_OFF	n/a	n/a	WEB	12	9	[0, 0, 0]	n/a	FR1	4	R1345D
1177.81	0.0	1178168	ENCODING_END	n/a	n/a	n/a	-999	9	[0, 0, 0]	n/a	FR1	4	R1345D
1177.81	0.0	1178168	DISTRACT_START	n/a	n/a	n/a	-999	9	[0, 0, 0]	n/a	FR1	4	R1345D
1177.81	0.016	1178168	START	n/a	n/a	n/a	-999	9	[-999, -999, -999]	n/a	FR1	4	R1345D
1177.826	3.934	1178184	PROB	3.934	n/a	n/a	-999	9	[1, 9, 1]	11	FR1	4	R1345D
1181.76	7.901	1182118	PROB	7.901	n/a	n/a	-999	9	[2, 5, 7]	14	FR1	4	R1345D
1189.661	8.482	1190018	PROB	8.482	n/a	n/a	-999	9	[3, 8, 2]	13	FR1	4	R1345D
1198.143	0.02	1198500	STOP	n/a	n/a	n/a	-999	9	[-999, -999, -999]	n/a	FR1	4	R1345D
1198.163	0.632	1198520	DISTRACT_END	n/a	n/a	n/a	-999	9	[0, 0, 0]	n/a	FR1	4	R1345D
1198.795	1.618	1199152	RETRIEVAL_ORIENT_START	n/a	n/a	n/a	-999	9	[0, 0, 0]	n/a	FR1	4	R1345D
1200.413	0.001	1200770	RETRIEVAL_ORIENT_END	n/a	n/a	n/a	-999	9	[0, 0, 0]	n/a	FR1	4	R1345D
1200.414	1.352	1200771	REC_START	n/a	n/a	n/a	-999	9	[0, 0, 0]	n/a	FR1	4	R1345D
1201.766	0.41	1202123	REC_WORD_VV	0.41	n/a	<>	-999	9	[0, 0, 0]	n/a	FR1	4	R1345D
1202.176	3.133	1202533	REC_WORD	3.133	n/a	FOX	1	9	[0, 0, 0]	n/a	FR1	4	R1345D
1205.309	0.492	1205666	REC_WORD	0.492	n/a	HOLE	-999	9	[0, 0, 0]	n/a	FR1	4	R1345D
1205.801	12.624	1206158	REC_WORD	12.624	n/a	MOLE	-999	9	[0, 0, 0]	n/a	FR1	4	R1345D
1218.425	10.229	1218781	REC_WORD	10.229	n/a	MAZE	-999	9	[0, 0, 0]	n/a	FR1	4	R1345D
1228.654	1.773	1229009	REC_WORD_VV	1.773	n/a	<>	-999	9	[0, 0, 0]	n/a	FR1	4	R1345D
1230.427	0.0	1230782	REC_END	n/a	n/a	n/a	-999	9	[0, 0, 0]	n/a	FR1	4	R1345D
1230.427	0.016	1230782	TRIAL_END	n/a	n/a	n/a	-999	9	[0, 0, 0]	n/a	FR1	4	R1345D
1230.443	0.0	1230798	TRIAL	n/a	n/a	n/a	-999	10	[0, 0, 0]	n/a	FR1	4	R1345D
1230.443	0.0	1230798	TRIAL_START	n/a	n/a	n/a	-999	10	[0, 0, 0]	n/a	FR1	4	R1345D
1230.443	2.877	1230798	WAITING_START	n/a	n/a	n/a	-999	10	[0, 0, 0]	n/a	FR1	4	R1345D
1233.32	0.0	1233675	COUNTDOWN_START	n/a	n/a	n/a	-999	10	[0, 0, 0]	n/a	FR1	4	R1345D
1233.32	10.429	1233675	WAITING_END	n/a	n/a	n/a	-999	10	[0, 0, 0]	n/a	FR1	4	R1345D
1243.749	0.0	1244103	COUNTDOWN_END	n/a	n/a	n/a	-999	10	[0, 0, 0]	n/a	FR1	4	R1345D
1243.749	1.023	1244103	ORIENT_START	n/a	n/a	n/a	-999	10	[0, 0, 0]	n/a	FR1	4	R1345D
1244.772	0.0	1245126	ORIENT_END	n/a	n/a	n/a	-999	10	[0, 0, 0]	n/a	FR1	4	R1345D
1244.772	1.01	1245126	ENCODING_START	n/a	n/a	n/a	-999	10	[0, 0, 0]	n/a	FR1	4	R1345D
1245.782	1.623	1246136	WORD	n/a	n/a	PIE	1	10	[0, 0, 0]	n/a	FR1	4	R1345D
1247.405	0.807	1247759	WORD_OFF	n/a	n/a	PIE	1	10	[0, 0, 0]	n/a	FR1	4	R1345D
1248.212	1.627	1248566	WORD	n/a	n/a	COIN	2	10	[0, 0, 0]	n/a	FR1	4	R1345D
1249.839	0.797	1250193	WORD_OFF	n/a	n/a	COIN	2	10	[0, 0, 0]	n/a	FR1	4	R1345D
1250.636	1.62	1250990	WORD	n/a	n/a	TIE	3	10	[0, 0, 0]	n/a	FR1	4	R1345D
1252.256	0.946	1252610	WORD_OFF	n/a	n/a	TIE	3	10	[0, 0, 0]	n/a	FR1	4	R1345D
1253.202	1.621	1253556	WORD	n/a	n/a	FORT	4	10	[0, 0, 0]	n/a	FR1	4	R1345D
1254.823	1.059	1255177	WORD_OFF	n/a	n/a	FORT	4	10	[0, 0, 0]	n/a	FR1	4	R1345D
1255.882	1.625	1256236	WORD	n/a	n/a	STAIR	5	10	[0, 0, 0]	n/a	FR1	4	R1345D
1257.507	0.846	1257860	WORD_OFF	n/a	n/a	STAIR	5	10	[0, 0, 0]	n/a	FR1	4	R1345D
1258.353	1.638	1258706	WORD	n/a	n/a	FENCE	6	10	[0, 0, 0]	n/a	FR1	4	R1345D
1259.991	0.923	1260344	WORD_OFF	n/a	n/a	FENCE	6	10	[0, 0, 0]	n/a	FR1	4	R1345D
1260.914	1.627	1261267	WORD	n/a	n/a	CAVE	7	10	[0, 0, 0]	n/a	FR1	4	R1345D
1262.541	0.826	1262894	WORD_OFF	n/a	n/a	CAVE	7	10	[0, 0, 0]	n/a	FR1	4	R1345D
1263.367	1.625	1263720	WORD	n/a	n/a	WHALE	8	10	[0, 0, 0]	n/a	FR1	4	R1345D
1264.992	1.054	1265345	WORD_OFF	n/a	n/a	WHALE	8	10	[0, 0, 0]	n/a	FR1	4	R1345D
1266.046	1.613	1266399	WORD	n/a	n/a	LAND	9	10	[0, 0, 0]	n/a	FR1	4	R1345D
1267.659	1.031	1268012	WORD_OFF	n/a	n/a	LAND	9	10	[0, 0, 0]	n/a	FR1	4	R1345D
1268.69	1.636	1269043	WORD	n/a	n/a	BEACH	10	10	[0, 0, 0]	n/a	FR1	4	R1345D
1270.326	0.854	1270679	WORD_OFF	n/a	n/a	BEACH	10	10	[0, 0, 0]	n/a	FR1	4	R1345D
1271.18	1.63	1271533	WORD	n/a	n/a	WALL	11	10	[0, 0, 0]	n/a	FR1	4	R1345D
1272.81	0.978	1273163	WORD_OFF	n/a	n/a	WALL	11	10	[0, 0, 0]	n/a	FR1	4	R1345D
1273.788	1.622	1274141	WORD	n/a	n/a	BUSH	12	10	[0, 0, 0]	n/a	FR1	4	R1345D
1275.41	0.001	1275762	WORD_OFF	n/a	n/a	BUSH	12	10	[0, 0, 0]	n/a	FR1	4	R1345D
1275.411	0.0	1275763	ENCODING_END	n/a	n/a	n/a	-999	10	[0, 0, 0]	n/a	FR1	4	R1345D
1275.411	0.0	1275763	DISTRACT_START	n/a	n/a	n/a	-999	10	[0, 0, 0]	n/a	FR1	4	R1345D
1275.411	0.016	1275763	START	n/a	n/a	n/a	-999	10	[-999, -999, -999]	n/a	FR1	4	R1345D
1275.427	4.667	1275779	PROB	4.667	n/a	n/a	-999	10	[8, 2, 2]	12	FR1	4	R1345D
1280.094	6.468	1280446	PROB	6.468	n/a	n/a	-999	10	[7, 5, 8]	20	FR1	4	R1345D
1286.562	3.968	1286914	PROB	3.968	n/a	n/a	-999	10	[1, 9, 2]	12	FR1	4	R1345D
1290.53	5.508	1290882	PROB	5.508	n/a	n/a	-999	10	[2, 8, 5]	15	FR1	4	R1345D
1296.038	0.008	1296389	STOP	n/a	n/a	n/a	-999	10	[-999, -999, -999]	n/a	FR1	4	R1345D
1296.046	0.614	1296397	DISTRACT_END	n/a	n/a	n/a	-999	10	[0, 0, 0]	n/a	FR1	4	R1345D
1296.66	1.721	1297011	RETRIEVAL_ORIENT_START	n/a	n/a	n/a	-999	10	[0, 0, 0]	n/a	FR1	4	R1345D
1298.381	0.001	1298732	RETRIEVAL_ORIENT_END	n/a	n/a	n/a	-999	10	[0, 0, 0]	n/a	FR1	4	R1345D
1298.382	0.92	1298733	REC_START	n/a	n/a	n/a	-999	10	[0, 0, 0]	n/a	FR1	4	R1345D
1299.302	3.686	1299653	REC_WORD	3.686	n/a	CAVE	7	10	[0, 0, 0]	n/a	FR1	4	R1345D
1302.988	3.32	1303339	REC_WORD_VV	3.32	n/a	<>	-999	10	[0, 0, 0]	n/a	FR1	4	R1345D
1306.308	2.824	1306659	REC_WORD_VV	2.824	n/a	<>	-999	10	[0, 0, 0]	n/a	FR1	4	R1345D
1309.132	4.655	1309482	REC_WORD	4.655	n/a	CAVE	7	10	[0, 0, 0]	n/a	FR1	4	R1345D
1313.787	0.797	1314137	REC_WORD	0.797	n/a	MAZE	-999	10	[0, 0, 0]	n/a	FR1	4	R1345D
1314.584	1.984	1314934	REC_WORD	1.984	n/a	PEACH	-999	10	[0, 0, 0]	n/a	FR1	4	R1345D
1316.568	6.419	1316918	REC_WORD_VV	6.419	n/a	<>	-999	10	[0, 0, 0]	n/a	FR1	4	R1345D
1322.987	5.408	1323337	REC_WORD	5.408	n/a	RIDE	-999	10	[0, 0, 0]	n/a	FR1	4	R1345D
1328.395	0.0	1328744	REC_END	n/a	n/a	n/a	-999	10	[0, 0, 0]	n/a	FR1	4	R1345D
1328.395	0.017	1328744	TRIAL_END	n/a	n/a	n/a	-999	10	[0, 0, 0]	n/a	FR1	4	R1345D
1328.412	0.0	1328761	TRIAL_START	n/a	n/a	n/a	-999	11	[0, 0, 0]	n/a	FR1	4	R1345D
1328.412	0.0	1328761	WAITING_START	n/a	n/a	n/a	-999	11	[0, 0, 0]	n/a	FR1	4	R1345D
1328.412	4.576	1328761	TRIAL	n/a	n/a	n/a	-999	11	[0, 0, 0]	n/a	FR1	4	R1345D
1332.988	0.0	1333337	COUNTDOWN_START	n/a	n/a	n/a	-999	11	[0, 0, 0]	n/a	FR1	4	R1345D
1332.988	10.429	1333337	WAITING_END	n/a	n/a	n/a	-999	11	[0, 0, 0]	n/a	FR1	4	R1345D
1343.417	0.0	1343765	COUNTDOWN_END	n/a	n/a	n/a	-999	11	[0, 0, 0]	n/a	FR1	4	R1345D
1343.417	1.256	1343765	ORIENT_START	n/a	n/a	n/a	-999	11	[0, 0, 0]	n/a	FR1	4	R1345D
1344.673	0.001	1345021	ORIENT_END	n/a	n/a	n/a	-999	11	[0, 0, 0]	n/a	FR1	4	R1345D
1344.674	0.873	1345022	ENCODING_START	n/a	n/a	n/a	-999	11	[0, 0, 0]	n/a	FR1	4	R1345D
1345.547	1.626	1345895	WORD	n/a	n/a	ELF	1	11	[0, 0, 0]	n/a	FR1	4	R1345D
1347.173	0.788	1347521	WORD_OFF	n/a	n/a	ELF	1	11	[0, 0, 0]	n/a	FR1	4	R1345D
1347.961	1.63	1348309	WORD	n/a	n/a	CORD	2	11	[0, 0, 0]	n/a	FR1	4	R1345D
1349.591	0.807	1349939	WORD_OFF	n/a	n/a	CORD	2	11	[0, 0, 0]	n/a	FR1	4	R1345D
1350.398	1.627	1350746	WORD	n/a	n/a	GLOVE	3	11	[0, 0, 0]	n/a	FR1	4	R1345D
1352.025	0.832	1352373	WORD_OFF	n/a	n/a	GLOVE	3	11	[0, 0, 0]	n/a	FR1	4	R1345D
1352.857	1.635	1353205	WORD	n/a	n/a	BOWL	4	11	[0, 0, 0]	n/a	FR1	4	R1345D
1354.492	1.03	1354840	WORD_OFF	n/a	n/a	BOWL	4	11	[0, 0, 0]	n/a	FR1	4	R1345D
1355.522	1.637	1355870	WORD	n/a	n/a	ROCK	5	11	[0, 0, 0]	n/a	FR1	4	R1345D
1357.159	0.935	1357507	WORD_OFF	n/a	n/a	ROCK	5	11	[0, 0, 0]	n/a	FR1	4	R1345D
1358.094	1.632	1358442	WORD	n/a	n/a	STEAK	6	11	[0, 0, 0]	n/a	FR1	4	R1345D
1359.726	0.884	1360073	WORD_OFF	n/a	n/a	STEAK	6	11	[0, 0, 0]	n/a	FR1	4	R1345D
1360.61	1.633	1360957	WORD	n/a	n/a	JEEP	7	11	[0, 0, 0]	n/a	FR1	4	R1345D
1362.243	1.032	1362590	WORD_OFF	n/a	n/a	JEEP	7	11	[0, 0, 0]	n/a	FR1	4	R1345D
1363.275	1.635	1363622	WORD	n/a	n/a	ROOT	8	11	[0, 0, 0]	n/a	FR1	4	R1345D
1364.91	0.987	1365257	WORD_OFF	n/a	n/a	ROOT	8	11	[0, 0, 0]	n/a	FR1	4	R1345D
1365.897	1.63	1366244	WORD	n/a	n/a	GLASS	9	11	[0, 0, 0]	n/a	FR1	4	R1345D
1367.527	0.855	1367874	WORD_OFF	n/a	n/a	GLASS	9	11	[0, 0, 0]	n/a	FR1	4	R1345D
1368.382	1.629	1368729	WORD	n/a	n/a	SEAL	10	11	[0, 0, 0]	n/a	FR1	4	R1345D
1370.011	0.978	1370358	WORD_OFF	n/a	n/a	SEAL	10	11	[0, 0, 0]	n/a	FR1	4	R1345D
1370.989	1.622	1371336	WORD	n/a	n/a	CORN	11	11	[0, 0, 0]	n/a	FR1	4	R1345D
1372.611	0.786	1372958	WORD_OFF	n/a	n/a	CORN	11	11	[0, 0, 0]	n/a	FR1	4	R1345D
1373.397	1.631	1373744	WORD	n/a	n/a	EEL	12	11	[0, 0, 0]	n/a	FR1	4	R1345D
1375.028	0.001	1375375	WORD_OFF	n/a	n/a	EEL	12	11	[0, 0, 0]	n/a	FR1	4	R1345D
1375.029	0.0	1375376	ENCODING_END	n/a	n/a	n/a	-999	11	[0, 0, 0]	n/a	FR1	4	R1345D
1375.029	0.0	1375376	DISTRACT_START	n/a	n/a	n/a	-999	11	[0, 0, 0]	n/a	FR1	4	R1345D
1375.029	0.015	1375376	START	n/a	n/a	n/a	-999	11	[-999, -999, -999]	n/a	FR1	4	R1345D
1375.044	13.554	1375391	PROB	13.554	n/a	n/a	-999	11	[4, 9, 9]	22	FR1	4	R1345D
1388.598	4.717	1388944	PROB	4.717	n/a	n/a	-999	11	[8, 2, 8]	18	FR1	4	R1345D
1393.315	4.033	1393660	PROB	4.033	n/a	n/a	-999	11	[1, 6, 3]	10	FR1	4	R1345D
1397.348	0.018	1397693	STOP	n/a	n/a	n/a	-999	11	[-999, -999, -999]	n/a	FR1	4	R1345D
1397.366	0.664	1397711	DISTRACT_END	n/a	n/a	n/a	-999	11	[0, 0, 0]	n/a	FR1	4	R1345D
1398.03	1.72	1398375	RETRIEVAL_ORIENT_START	n/a	n/a	n/a	-999	11	[0, 0, 0]	n/a	FR1	4	R1345D
1399.75	0.0	1400095	REC_START	n/a	n/a	n/a	-999	11	[0, 0, 0]	n/a	FR1	4	R1345D
1399.75	1.327	1400095	RETRIEVAL_ORIENT_END	n/a	n/a	n/a	-999	11	[0, 0, 0]	n/a	FR1	4	R1345D
1401.077	3.254	1401422	REC_WORD	3.254	n/a	WHALE	-999	11	[0, 0, 0]	n/a	FR1	4	R1345D
1404.331	7.527	1404676	REC_WORD	7.527	n/a	LAND	-999	11	[0, 0, 0]	n/a	FR1	4	R1345D
1411.858	2.88	1412202	REC_WORD_VV	2.88	n/a	<>	-999	11	[0, 0, 0]	n/a	FR1	4	R1345D
1414.738	6.775	1415082	REC_WORD	6.775	n/a	COIN	-999	11	[0, 0, 0]	n/a	FR1	4	R1345D
1421.513	8.25	1421857	REC_WORD	8.25	n/a	MAZE	-999	11	[0, 0, 0]	n/a	FR1	4	R1345D
1429.763	0.0	1430106	REC_END	n/a	n/a	n/a	-999	11	[0, 0, 0]	n/a	FR1	4	R1345D
1429.763	0.045	1430106	TRIAL_END	n/a	n/a	n/a	-999	11	[0, 0, 0]	n/a	FR1	4	R1345D
1429.808	0.0	1430151	TRIAL_START	n/a	n/a	n/a	-999	12	[0, 0, 0]	n/a	FR1	4	R1345D
1429.808	0.001	1430151	TRIAL	n/a	n/a	n/a	-999	12	[0, 0, 0]	n/a	FR1	4	R1345D
1429.809	13.049	1430152	WAITING_START	n/a	n/a	n/a	-999	12	[0, 0, 0]	n/a	FR1	4	R1345D
1442.858	0.0	1443201	COUNTDOWN_START	n/a	n/a	n/a	-999	12	[0, 0, 0]	n/a	FR1	4	R1345D
1442.858	10.428	1443201	WAITING_END	n/a	n/a	n/a	-999	12	[0, 0, 0]	n/a	FR1	4	R1345D
1453.286	0.001	1453628	COUNTDOWN_END	n/a	n/a	n/a	-999	12	[0, 0, 0]	n/a	FR1	4	R1345D
1453.287	1.223	1453629	ORIENT_START	n/a	n/a	n/a	-999	12	[0, 0, 0]	n/a	FR1	4	R1345D
1454.51	0.0	1454852	ORIENT_END	n/a	n/a	n/a	-999	12	[0, 0, 0]	n/a	FR1	4	R1345D
1454.51	1.093	1454852	ENCODING_START	n/a	n/a	n/a	-999	12	[0, 0, 0]	n/a	FR1	4	R1345D
1455.603	1.624	1455945	WORD	n/a	n/a	PEN	1	12	[0, 0, 0]	n/a	FR1	4	R1345D
1457.227	0.961	1457569	WORD_OFF	n/a	n/a	PEN	1	12	[0, 0, 0]	n/a	FR1	4	R1345D
1458.188	1.623	1458530	WORD	n/a	n/a	CALF	2	12	[0, 0, 0]	n/a	FR1	4	R1345D
1459.811	0.784	1460153	WORD_OFF	n/a	n/a	CALF	2	12	[0, 0, 0]	n/a	FR1	4	R1345D
1460.595	1.633	1460937	WORD	n/a	n/a	PET	3	12	[0, 0, 0]	n/a	FR1	4	R1345D
1462.228	1.013	1462569	WORD_OFF	n/a	n/a	PET	3	12	[0, 0, 0]	n/a	FR1	4	R1345D
1463.241	1.637	1463582	WORD	n/a	n/a	CART	4	12	[0, 0, 0]	n/a	FR1	4	R1345D
1464.878	1.035	1465219	WORD_OFF	n/a	n/a	CART	4	12	[0, 0, 0]	n/a	FR1	4	R1345D
1465.913	1.632	1466254	WORD	n/a	n/a	DITCH	5	12	[0, 0, 0]	n/a	FR1	4	R1345D
1467.545	1.011	1467886	WORD_OFF	n/a	n/a	DITCH	5	12	[0, 0, 0]	n/a	FR1	4	R1345D
1468.556	1.623	1468897	WORD	n/a	n/a	FLAG	6	12	[0, 0, 0]	n/a	FR1	4	R1345D
1470.179	0.832	1470520	WORD_OFF	n/a	n/a	FLAG	6	12	[0, 0, 0]	n/a	FR1	4	R1345D
1471.011	1.635	1471352	WORD	n/a	n/a	TOAST	7	12	[0, 0, 0]	n/a	FR1	4	R1345D
1472.646	0.987	1472987	WORD_OFF	n/a	n/a	TOAST	7	12	[0, 0, 0]	n/a	FR1	4	R1345D
1473.633	1.63	1473974	WORD	n/a	n/a	TEA	8	12	[0, 0, 0]	n/a	FR1	4	R1345D
1475.263	0.941	1475604	WORD_OFF	n/a	n/a	TEA	8	12	[0, 0, 0]	n/a	FR1	4	R1345D
1476.204	1.627	1476545	WORD	n/a	n/a	TOOL	9	12	[0, 0, 0]	n/a	FR1	4	R1345D
1477.831	1.095	1478172	WORD_OFF	n/a	n/a	TOOL	9	12	[0, 0, 0]	n/a	FR1	4	R1345D
1478.926	1.622	1479266	WORD	n/a	n/a	BOX	10	12	[0, 0, 0]	n/a	FR1	4	R1345D
1480.548	1.041	1480888	WORD_OFF	n/a	n/a	BOX	10	12	[0, 0, 0]	n/a	FR1	4	R1345D
1481.589	1.626	1481929	WORD	n/a	n/a	CHIN	11	12	[0, 0, 0]	n/a	FR1	4	R1345D
1483.215	0.946	1483555	WORD_OFF	n/a	n/a	CHIN	11	12	[0, 0, 0]	n/a	FR1	4	R1345D
1484.161	1.638	1484501	WORD	n/a	n/a	CLOTH	12	12	[0, 0, 0]	n/a	FR1	4	R1345D
1485.799	0.0	1486139	WORD_OFF	n/a	n/a	CLOTH	12	12	[0, 0, 0]	n/a	FR1	4	R1345D
1485.799	0.001	1486139	ENCODING_END	n/a	n/a	n/a	-999	12	[0, 0, 0]	n/a	FR1	4	R1345D
1485.8	0.0	1486140	DISTRACT_START	n/a	n/a	n/a	-999	12	[0, 0, 0]	n/a	FR1	4	R1345D
1485.8	0.015	1486140	START	n/a	n/a	n/a	-999	12	[-999, -999, -999]	n/a	FR1	4	R1345D
1485.815	3.317	1486155	PROB	3.317	n/a	n/a	-999	12	[3, 1, 3]	7	FR1	4	R1345D
1489.132	9.569	1489472	PROB	9.569	n/a	n/a	-999	12	[9, 3, 1]	13	FR1	4	R1345D
1498.701	5.101	1499040	PROB	5.101	n/a	n/a	-999	12	[3, 4, 6]	13	FR1	4	R1345D
1503.802	3.749	1504141	PROB	3.749	n/a	n/a	-999	12	[3, 2, 1]	6	FR1	4	R1345D
1507.551	0.018	1507890	STOP	n/a	n/a	n/a	-999	12	[-999, -999, -999]	n/a	FR1	4	R1345D
1507.569	0.542	1507908	DISTRACT_END	n/a	n/a	n/a	-999	12	[0, 0, 0]	n/a	FR1	4	R1345D
1508.111	1.709	1508450	RETRIEVAL_ORIENT_START	n/a	n/a	n/a	-999	12	[0, 0, 0]	n/a	FR1	4	R1345D
1509.82	0.0	1510159	RETRIEVAL_ORIENT_END	n/a	n/a	n/a	-999	12	[0, 0, 0]	n/a	FR1	4	R1345D
1509.82	5.637	1510159	REC_START	n/a	n/a	n/a	-999	12	[0, 0, 0]	n/a	FR1	4	R1345D
1515.457	1.313	1515795	REC_WORD	1.313	n/a	PEN	1	12	[0, 0, 0]	n/a	FR1	4	R1345D
1516.77	0.62	1517108	REC_WORD	0.62	n/a	ROAD	-999	12	[0, 0, 0]	n/a	FR1	4	R1345D
1517.39	1.443	1517728	REC_WORD	1.443	n/a	FAT	-999	12	[0, 0, 0]	n/a	FR1	4	R1345D
1518.833	1.877	1519171	REC_WORD	1.877	n/a	TOOLBOX	-999	12	[0, 0, 0]	n/a	FR1	4	R1345D
1520.71	0.387	1521048	REC_WORD	0.387	n/a	TOOL	9	12	[0, 0, 0]	n/a	FR1	4	R1345D
1521.097	1.723	1521435	REC_WORD	1.723	n/a	BOX	10	12	[0, 0, 0]	n/a	FR1	4	R1345D
1522.82	15.083	1523158	REC_WORD_VV	15.083	n/a	<>	-999	12	[0, 0, 0]	n/a	FR1	4	R1345D
1537.903	1.931	1538240	REC_WORD	1.931	n/a	JET	-999	12	[0, 0, 0]	n/a	FR1	4	R1345D
1539.834	0.0	1540171	REC_END	n/a	n/a	n/a	-999	12	[0, 0, 0]	n/a	FR1	4	R1345D
1539.834	0.014	1540171	TRIAL_END	n/a	n/a	n/a	-999	12	[0, 0, 0]	n/a	FR1	4	R1345D
1539.848	0.0	1540185	TRIAL_START	n/a	n/a	n/a	-999	13	[0, 0, 0]	n/a	FR1	4	R1345D
1539.848	0.0	1540185	TRIAL	n/a	n/a	n/a	-999	13	[0, 0, 0]	n/a	FR1	4	R1345D
1539.848	9.812	1540185	WAITING_START	n/a	n/a	n/a	-999	13	[0, 0, 0]	n/a	FR1	4	R1345D
1549.66	0.001	1549996	WAITING_END	n/a	n/a	n/a	-999	13	[0, 0, 0]	n/a	FR1	4	R1345D
1549.661	10.428	1549997	COUNTDOWN_START	n/a	n/a	n/a	-999	13	[0, 0, 0]	n/a	FR1	4	R1345D
1560.089	0.001	1560425	COUNTDOWN_END	n/a	n/a	n/a	-999	13	[0, 0, 0]	n/a	FR1	4	R1345D
1560.09	1.139	1560426	ORIENT_START	n/a	n/a	n/a	-999	13	[0, 0, 0]	n/a	FR1	4	R1345D
1561.229	0.001	1561565	ORIENT_END	n/a	n/a	n/a	-999	13	[0, 0, 0]	n/a	FR1	4	R1345D
1561.23	0.917	1561566	ENCODING_START	n/a	n/a	n/a	-999	13	[0, 0, 0]	n/a	FR1	4	R1345D
1562.147	1.633	1562483	WORD	n/a	n/a	NOSE	1	13	[0, 0, 0]	n/a	FR1	4	R1345D
1563.78	1.015	1564115	WORD_OFF	n/a	n/a	NOSE	1	13	[0, 0, 0]	n/a	FR1	4	R1345D
1564.795	1.635	1565130	WORD	n/a	n/a	BIRD	2	13	[0, 0, 0]	n/a	FR1	4	R1345D
1566.43	0.966	1566765	WORD_OFF	n/a	n/a	BIRD	2	13	[0, 0, 0]	n/a	FR1	4	R1345D
1567.396	1.635	1567731	WORD	n/a	n/a	STOOL	3	13	[0, 0, 0]	n/a	FR1	4	R1345D
1569.031	0.789	1569366	WORD_OFF	n/a	n/a	STOOL	3	13	[0, 0, 0]	n/a	FR1	4	R1345D
1569.82	1.628	1570155	WORD	n/a	n/a	GRASS	4	13	[0, 0, 0]	n/a	FR1	4	R1345D
1571.448	0.969	1571783	WORD_OFF	n/a	n/a	GRASS	4	13	[0, 0, 0]	n/a	FR1	4	R1345D
1572.417	1.63	1572752	WORD	n/a	n/a	CLAY	5	13	[0, 0, 0]	n/a	FR1	4	R1345D
1574.047	0.799	1574382	WORD_OFF	n/a	n/a	CLAY	5	13	[0, 0, 0]	n/a	FR1	4	R1345D
1574.846	1.636	1575181	WORD	n/a	n/a	THUMB	6	13	[0, 0, 0]	n/a	FR1	4	R1345D
1576.482	0.958	1576817	WORD_OFF	n/a	n/a	THUMB	6	13	[0, 0, 0]	n/a	FR1	4	R1345D
1577.44	1.626	1577775	WORD	n/a	n/a	CRANE	7	13	[0, 0, 0]	n/a	FR1	4	R1345D
1579.066	0.997	1579401	WORD_OFF	n/a	n/a	CRANE	7	13	[0, 0, 0]	n/a	FR1	4	R1345D
1580.063	1.636	1580398	WORD	n/a	n/a	MOON	8	13	[0, 0, 0]	n/a	FR1	4	R1345D
1581.699	0.895	1582033	WORD_OFF	n/a	n/a	MOON	8	13	[0, 0, 0]	n/a	FR1	4	R1345D
1582.594	1.623	1582928	WORD	n/a	n/a	BRANCH	9	13	[0, 0, 0]	n/a	FR1	4	R1345D
1584.217	1.044	1584551	WORD_OFF	n/a	n/a	BRANCH	9	13	[0, 0, 0]	n/a	FR1	4	R1345D
1585.261	1.623	1585595	WORD	n/a	n/a	ANT	10	13	[0, 0, 0]	n/a	FR1	4	R1345D
1586.884	0.989	1587218	WORD_OFF	n/a	n/a	ANT	10	13	[0, 0, 0]	n/a	FR1	4	R1345D
1587.873	1.628	1588207	WORD	n/a	n/a	STICK	11	13	[0, 0, 0]	n/a	FR1	4	R1345D
1589.501	1.119	1589835	WORD_OFF	n/a	n/a	STICK	11	13	[0, 0, 0]	n/a	FR1	4	R1345D
1590.62	1.632	1590954	WORD	n/a	n/a	SKY	12	13	[0, 0, 0]	n/a	FR1	4	R1345D
1592.252	0.0	1592586	WORD_OFF	n/a	n/a	SKY	12	13	[0, 0, 0]	n/a	FR1	4	R1345D
1592.252	0.0	1592586	ENCODING_END	n/a	n/a	n/a	-999	13	[0, 0, 0]	n/a	FR1	4	R1345D
1592.252	0.001	1592586	DISTRACT_START	n/a	n/a	n/a	-999	13	[0, 0, 0]	n/a	FR1	4	R1345D
1592.253	0.015	1592587	START	n/a	n/a	n/a	-999	13	[-999, -999, -999]	n/a	FR1	4	R1345D
1592.268	3.667	1592602	PROB	3.667	n/a	n/a	-999	13	[2, 2, 2]	6	FR1	4	R1345D
1595.935	4.851	1596269	PROB	4.851	n/a	n/a	-999	13	[7, 8, 1]	16	FR1	4	R1345D
1600.786	3.184	1601119	PROB	3.184	n/a	n/a	-999	13	[1, 2, 8]	11	FR1	4	R1345D
1603.97	4.001	1604303	PROB	4.001	n/a	n/a	-999	13	[3, 1, 8]	12	FR1	4	R1345D
1607.971	11.027	1608304	PROB	11.027	n/a	n/a	-999	13	[9, 1, 2]	12	FR1	4	R1345D
1618.998	0.008	1619330	STOP	n/a	n/a	n/a	-999	13	[-999, -999, -999]	n/a	FR1	4	R1345D
1619.006	0.548	1619338	DISTRACT_END	n/a	n/a	n/a	-999	13	[0, 0, 0]	n/a	FR1	4	R1345D
1619.554	1.619	1619886	RETRIEVAL_ORIENT_START	n/a	n/a	n/a	-999	13	[0, 0, 0]	n/a	FR1	4	R1345D
1621.173	0.001	1621505	RETRIEVAL_ORIENT_END	n/a	n/a	n/a	-999	13	[0, 0, 0]	n/a	FR1	4	R1345D
1621.174	3.011	1621506	REC_START	n/a	n/a	n/a	-999	13	[0, 0, 0]	n/a	FR1	4	R1345D
1624.185	0.472	1624517	REC_WORD	0.472	n/a	PLANE	-999	13	[0, 0, 0]	n/a	FR1	4	R1345D
1624.657	8.918	1624989	REC_WORD	8.918	n/a	SKY	12	13	[0, 0, 0]	n/a	FR1	4	R1345D
1633.575	1.034	1633906	REC_WORD	1.034	n/a	BIRD	2	13	[0, 0, 0]	n/a	FR1	4	R1345D
1634.609	5.17	1634940	REC_WORD	5.17	n/a	ROOM	-999	13	[0, 0, 0]	n/a	FR1	4	R1345D
1639.779	0.537	1640110	REC_WORD	0.537	n/a	JEEP	-999	13	[0, 0, 0]	n/a	FR1	4	R1345D
1640.316	1.505	1640647	REC_WORD	1.505	n/a	ALE	-999	13	[0, 0, 0]	n/a	FR1	4	R1345D
1641.821	1.0	1642152	REC_WORD_VV	1.0	n/a	<>	-999	13	[0, 0, 0]	n/a	FR1	4	R1345D
1642.821	1.0	1643152	REC_WORD_VV	1.0	n/a	<>	-999	13	[0, 0, 0]	n/a	FR1	4	R1345D
1643.821	2.09	1644152	REC_WORD_VV	2.09	n/a	<>	-999	13	[0, 0, 0]	n/a	FR1	4	R1345D
1645.911	5.275	1646242	REC_WORD_VV	5.275	n/a	<>	-999	13	[0, 0, 0]	n/a	FR1	4	R1345D
1651.186	0.0	1651516	REC_END	n/a	n/a	n/a	-999	13	[0, 0, 0]	n/a	FR1	4	R1345D
1651.186	0.014	1651516	TRIAL_END	n/a	n/a	n/a	-999	13	[0, 0, 0]	n/a	FR1	4	R1345D
1651.2	0.001	1651530	TRIAL_START	n/a	n/a	n/a	-999	14	[0, 0, 0]	n/a	FR1	4	R1345D
1651.201	0.0	1651531	WAITING_START	n/a	n/a	n/a	-999	14	[0, 0, 0]	n/a	FR1	4	R1345D
1651.201	7.546	1651531	TRIAL	n/a	n/a	n/a	-999	14	[0, 0, 0]	n/a	FR1	4	R1345D
1658.747	0.0	1659077	WAITING_END	n/a	n/a	n/a	-999	14	[0, 0, 0]	n/a	FR1	4	R1345D
1658.747	10.429	1659077	COUNTDOWN_START	n/a	n/a	n/a	-999	14	[0, 0, 0]	n/a	FR1	4	R1345D
1669.176	0.0	1669505	COUNTDOWN_END	n/a	n/a	n/a	-999	14	[0, 0, 0]	n/a	FR1	4	R1345D
1669.176	1.14	1669505	ORIENT_START	n/a	n/a	n/a	-999	14	[0, 0, 0]	n/a	FR1	4	R1345D
1670.316	0.0	1670645	ORIENT_END	n/a	n/a	n/a	-999	14	[0, 0, 0]	n/a	FR1	4	R1345D
1670.316	1.08	1670645	ENCODING_START	n/a	n/a	n/a	-999	14	[0, 0, 0]	n/a	FR1	4	R1345D
1671.396	1.637	1671725	WORD	n/a	n/a	PRINCE	1	14	[0, 0, 0]	n/a	FR1	4	R1345D
1673.033	1.134	1673362	WORD_OFF	n/a	n/a	PRINCE	1	14	[0, 0, 0]	n/a	FR1	4	R1345D
1674.167	1.633	1674496	WORD	n/a	n/a	CAR	2	14	[0, 0, 0]	n/a	FR1	4	R1345D
1675.8	1.072	1676129	WORD_OFF	n/a	n/a	CAR	2	14	[0, 0, 0]	n/a	FR1	4	R1345D
1676.872	1.629	1677201	WORD	n/a	n/a	PALM	3	14	[0, 0, 0]	n/a	FR1	4	R1345D
1678.501	0.804	1678830	WORD_OFF	n/a	n/a	PALM	3	14	[0, 0, 0]	n/a	FR1	4	R1345D
1679.305	1.629	1679634	WORD	n/a	n/a	NEST	4	14	[0, 0, 0]	n/a	FR1	4	R1345D
1680.934	1.144	1681263	WORD_OFF	n/a	n/a	NEST	4	14	[0, 0, 0]	n/a	FR1	4	R1345D
1682.078	1.623	1682407	WORD	n/a	n/a	HORSE	5	14	[0, 0, 0]	n/a	FR1	4	R1345D
1683.701	0.957	1684029	WORD_OFF	n/a	n/a	HORSE	5	14	[0, 0, 0]	n/a	FR1	4	R1345D
1684.658	1.627	1684986	WORD	n/a	n/a	SMOKE	6	14	[0, 0, 0]	n/a	FR1	4	R1345D
1686.285	0.832	1686613	WORD_OFF	n/a	n/a	SMOKE	6	14	[0, 0, 0]	n/a	FR1	4	R1345D
1687.117	1.635	1687445	WORD	n/a	n/a	GRAPE	7	14	[0, 0, 0]	n/a	FR1	4	R1345D
1688.752	0.859	1689080	WORD_OFF	n/a	n/a	GRAPE	7	14	[0, 0, 0]	n/a	FR1	4	R1345D
1689.611	1.625	1689939	WORD	n/a	n/a	JUDGE	8	14	[0, 0, 0]	n/a	FR1	4	R1345D
1691.236	0.834	1691564	WORD_OFF	n/a	n/a	JUDGE	8	14	[0, 0, 0]	n/a	FR1	4	R1345D
1692.07	1.633	1692398	WORD	n/a	n/a	APE	9	14	[0, 0, 0]	n/a	FR1	4	R1345D
1693.703	1.096	1694031	WORD_OFF	n/a	n/a	APE	9	14	[0, 0, 0]	n/a	FR1	4	R1345D
1694.799	1.638	1695127	WORD	n/a	n/a	WOOD	10	14	[0, 0, 0]	n/a	FR1	4	R1345D
1696.437	0.871	1696765	WORD_OFF	n/a	n/a	WOOD	10	14	[0, 0, 0]	n/a	FR1	4	R1345D
1697.308	1.63	1697636	WORD	n/a	n/a	SAIL	11	14	[0, 0, 0]	n/a	FR1	4	R1345D
1698.938	0.912	1699266	WORD_OFF	n/a	n/a	SAIL	11	14	[0, 0, 0]	n/a	FR1	4	R1345D
1699.85	1.638	1700178	WORD	n/a	n/a	THREAD	12	14	[0, 0, 0]	n/a	FR1	4	R1345D
1701.488	0.001	1701815	WORD_OFF	n/a	n/a	THREAD	12	14	[0, 0, 0]	n/a	FR1	4	R1345D
1701.489	0.0	1701816	ENCODING_END	n/a	n/a	n/a	-999	14	[0, 0, 0]	n/a	FR1	4	R1345D
1701.489	0.0	1701816	DISTRACT_START	n/a	n/a	n/a	-999	14	[0, 0, 0]	n/a	FR1	4	R1345D
1701.489	0.015	1701816	START	n/a	n/a	n/a	-999	14	[-999, -999, -999]	n/a	FR1	4	R1345D
1701.504	5.818	1701831	PROB	5.818	n/a	n/a	-999	14	[7, 7, 3]	17	FR1	4	R1345D
1707.322	4.218	1707649	PROB	4.218	n/a	n/a	-999	14	[5, 8, 8]	21	FR1	4	R1345D
1711.54	4.417	1711867	PROB	4.417	n/a	n/a	-999	14	[3, 7, 3]	13	FR1	4	R1345D
1715.957	4.434	1716284	PROB	4.434	n/a	n/a	-999	14	[9, 9, 2]	20	FR1	4	R1345D
1720.391	7.157	1720717	PROB	7.157	n/a	n/a	-999	14	[5, 2, 8]	15	FR1	4	R1345D
1727.548	0.011	1727874	STOP	n/a	n/a	n/a	-999	14	[-999, -999, -999]	n/a	FR1	4	R1345D
1727.559	0.688	1727885	DISTRACT_END	n/a	n/a	n/a	-999	14	[0, 0, 0]	n/a	FR1	4	R1345D
1728.247	1.596	1728573	RETRIEVAL_ORIENT_START	n/a	n/a	n/a	-999	14	[0, 0, 0]	n/a	FR1	4	R1345D
1729.843	0.001	1730169	RETRIEVAL_ORIENT_END	n/a	n/a	n/a	-999	14	[0, 0, 0]	n/a	FR1	4	R1345D
1729.844	1.736	1730170	REC_START	n/a	n/a	n/a	-999	14	[0, 0, 0]	n/a	FR1	4	R1345D
1731.58	5.439	1731906	REC_WORD	5.439	n/a	APE	9	14	[0, 0, 0]	n/a	FR1	4	R1345D
1737.019	5.978	1737344	REC_WORD	5.978	n/a	APE	9	14	[0, 0, 0]	n/a	FR1	4	R1345D
1742.997	1.844	1743322	REC_WORD	1.844	n/a	BARN	-999	14	[0, 0, 0]	n/a	FR1	4	R1345D
1744.841	11.718	1745166	REC_WORD	11.718	n/a	SLEEP	-999	14	[0, 0, 0]	n/a	FR1	4	R1345D
1756.559	1.886	1756883	REC_WORD	1.886	n/a	MOON	-999	14	[0, 0, 0]	n/a	FR1	4	R1345D
1758.445	1.412	1758769	REC_WORD	1.412	n/a	SKY	-999	14	[0, 0, 0]	n/a	FR1	4	R1345D
1759.857	0.0	1760181	REC_END	n/a	n/a	n/a	-999	14	[0, 0, 0]	n/a	FR1	4	R1345D
1759.857	0.015	1760181	TRIAL_END	n/a	n/a	n/a	-999	14	[0, 0, 0]	n/a	FR1	4	R1345D
1759.872	0.001	1760196	TRIAL_START	n/a	n/a	n/a	-999	15	[0, 0, 0]	n/a	FR1	4	R1345D
1759.873	0.0	1760197	TRIAL	n/a	n/a	n/a	-999	15	[0, 0, 0]	n/a	FR1	4	R1345D
1759.873	5.193	1760197	WAITING_START	n/a	n/a	n/a	-999	15	[0, 0, 0]	n/a	FR1	4	R1345D
1765.066	0.001	1765390	WAITING_END	n/a	n/a	n/a	-999	15	[0, 0, 0]	n/a	FR1	4	R1345D
1765.067	10.428	1765391	COUNTDOWN_START	n/a	n/a	n/a	-999	15	[0, 0, 0]	n/a	FR1	4	R1345D
1775.495	0.001	1775818	COUNTDOWN_END	n/a	n/a	n/a	-999	15	[0, 0, 0]	n/a	FR1	4	R1345D
1775.496	1.039	1775819	ORIENT_START	n/a	n/a	n/a	-999	15	[0, 0, 0]	n/a	FR1	4	R1345D
1776.535	0.001	1776858	ORIENT_END	n/a	n/a	n/a	-999	15	[0, 0, 0]	n/a	FR1	4	R1345D
1776.536	0.8	1776859	ENCODING_START	n/a	n/a	n/a	-999	15	[0, 0, 0]	n/a	FR1	4	R1345D
1777.336	1.633	1777659	WORD	n/a	n/a	SEED	1	15	[0, 0, 0]	n/a	FR1	4	R1345D
1778.969	0.81	1779292	WORD_OFF	n/a	n/a	SEED	1	15	[0, 0, 0]	n/a	FR1	4	R1345D
1779.779	1.624	1780102	WORD	n/a	n/a	COW	2	15	[0, 0, 0]	n/a	FR1	4	R1345D
1781.403	1.082	1781726	WORD_OFF	n/a	n/a	COW	2	15	[0, 0, 0]	n/a	FR1	4	R1345D
1782.485	1.635	1782808	WORD	n/a	n/a	WAND	3	15	[0, 0, 0]	n/a	FR1	4	R1345D
1784.12	0.932	1784443	WORD_OFF	n/a	n/a	WAND	3	15	[0, 0, 0]	n/a	FR1	4	R1345D
1785.052	1.635	1785374	WORD	n/a	n/a	SPARK	4	15	[0, 0, 0]	n/a	FR1	4	R1345D
1786.687	1.026	1787009	WORD_OFF	n/a	n/a	SPARK	4	15	[0, 0, 0]	n/a	FR1	4	R1345D
1787.713	1.624	1788035	WORD	n/a	n/a	DUCK	5	15	[0, 0, 0]	n/a	FR1	4	R1345D
1789.337	1.127	1789659	WORD_OFF	n/a	n/a	DUCK	5	15	[0, 0, 0]	n/a	FR1	4	R1345D
1790.464	1.624	1790786	WORD	n/a	n/a	STREET	6	15	[0, 0, 0]	n/a	FR1	4	R1345D
1792.088	0.797	1792410	WORD_OFF	n/a	n/a	STREET	6	15	[0, 0, 0]	n/a	FR1	4	R1345D
1792.885	1.637	1793207	WORD	n/a	n/a	CAT	7	15	[0, 0, 0]	n/a	FR1	4	R1345D
1794.522	1.117	1794844	WORD_OFF	n/a	n/a	CAT	7	15	[0, 0, 0]	n/a	FR1	4	R1345D
1795.639	1.633	1795961	WORD	n/a	n/a	MUG	8	15	[0, 0, 0]	n/a	FR1	4	R1345D
1797.272	0.949	1797594	WORD_OFF	n/a	n/a	MUG	8	15	[0, 0, 0]	n/a	FR1	4	R1345D
1798.221	1.635	1798543	WORD	n/a	n/a	POLE	9	15	[0, 0, 0]	n/a	FR1	4	R1345D
1799.856	0.85	1800178	WORD_OFF	n/a	n/a	POLE	9	15	[0, 0, 0]	n/a	FR1	4	R1345D
1800.706	1.634	1801028	WORD	n/a	n/a	BAND	10	15	[0, 0, 0]	n/a	FR1	4	R1345D
1802.34	1.081	1802661	WORD_OFF	n/a	n/a	BAND	10	15	[0, 0, 0]	n/a	FR1	4	R1345D
1803.421	1.635	1803742	WORD	n/a	n/a	JAIL	11	15	[0, 0, 0]	n/a	FR1	4	R1345D
1805.056	1.012	1805377	WORD_OFF	n/a	n/a	JAIL	11	15	[0, 0, 0]	n/a	FR1	4	R1345D
1806.068	1.623	1806389	WORD	n/a	n/a	SHIP	12	15	[0, 0, 0]	n/a	FR1	4	R1345D
1807.691	0.0	1808012	WORD_OFF	n/a	n/a	SHIP	12	15	[0, 0, 0]	n/a	FR1	4	R1345D
1807.691	0.001	1808012	ENCODING_END	n/a	n/a	n/a	-999	15	[0, 0, 0]	n/a	FR1	4	R1345D
1807.692	0.0	1808013	DISTRACT_START	n/a	n/a	n/a	-999	15	[0, 0, 0]	n/a	FR1	4	R1345D
1807.692	0.015	1808013	START	n/a	n/a	n/a	-999	15	[-999, -999, -999]	n/a	FR1	4	R1345D
1807.707	5.234	1808028	PROB	5.234	n/a	n/a	-999	15	[2, 1, 4]	7	FR1	4	R1345D
1812.941	5.885	1813262	PROB	5.885	n/a	n/a	-999	15	[4, 5, 8]	17	FR1	4	R1345D
1818.826	8.651	1819147	PROB	8.651	n/a	n/a	-999	15	[9, 6, 7]	20	FR1	4	R1345D
1827.477	9.744	1827797	PROB	9.744	n/a	n/a	-999	15	[1, 2, 4]	7	FR1	4	R1345D
1837.221	0.008	1837540	STOP	n/a	n/a	n/a	-999	15	[-999, -999, -999]	n/a	FR1	4	R1345D
1837.229	0.693	1837548	DISTRACT_END	n/a	n/a	n/a	-999	15	[0, 0, 0]	n/a	FR1	4	R1345D
1837.922	1.591	1838241	RETRIEVAL_ORIENT_START	n/a	n/a	n/a	-999	15	[0, 0, 0]	n/a	FR1	4	R1345D
1839.513	0.001	1839832	RETRIEVAL_ORIENT_END	n/a	n/a	n/a	-999	15	[0, 0, 0]	n/a	FR1	4	R1345D
1839.514	0.0	1839833	REC_START	n/a	n/a	n/a	-999	15	[0, 0, 0]	n/a	FR1	4	R1345D
1839.514	3.987	1839833	REC_WORD_VV	3.987	n/a	<>	-999	15	[0, 0, 0]	n/a	FR1	4	R1345D
1843.501	5.097	1843820	REC_WORD_VV	5.097	n/a	<>	-999	15	[0, 0, 0]	n/a	FR1	4	R1345D
1848.598	4.592	1848917	REC_WORD	4.592	n/a	ROOF	-999	15	[0, 0, 0]	n/a	FR1	4	R1345D
1853.19	2.004	1853508	REC_WORD_VV	2.004	n/a	<>	-999	15	[0, 0, 0]	n/a	FR1	4	R1345D
1855.194	3.295	1855512	REC_WORD	3.295	n/a	MAZE	-999	15	[0, 0, 0]	n/a	FR1	4	R1345D
1858.489	4.983	1858807	REC_WORD	4.983	n/a	RUN	-999	15	[0, 0, 0]	n/a	FR1	4	R1345D
1863.472	1.689	1863790	REC_WORD	1.689	n/a	SPOON	-999	15	[0, 0, 0]	n/a	FR1	4	R1345D
1865.161	4.365	1865479	REC_WORD	4.365	n/a	STOOL	-999	15	[0, 0, 0]	n/a	FR1	4	R1345D
1869.526	0.0	1869844	REC_END	n/a	n/a	n/a	-999	15	[0, 0, 0]	n/a	FR1	4	R1345D
1869.526	0.014	1869844	TRIAL_END	n/a	n/a	n/a	-999	15	[0, 0, 0]	n/a	FR1	4	R1345D
1869.54	0.0	1869858	TRIAL	n/a	n/a	n/a	-999	16	[0, 0, 0]	n/a	FR1	4	R1345D
1869.54	0.001	1869858	TRIAL_START	n/a	n/a	n/a	-999	16	[0, 0, 0]	n/a	FR1	4	R1345D
1869.541	0.0	1869859	WAITING_START	n/a	n/a	n/a	-999	16	[0, 0, 0]	n/a	FR1	4	R1345D
