onset	duration	sample	trial_type	response_time	stim_file	item_name	serialpos	list	test	answer	experiment	session	subject
0.0	18.208	23207	SESS_START	n/a	n/a	n/a	-999	-999	[0, 0, 0]	n/a	FR1	0	R1111M
18.208	10.428	32311	COUNTDOWN_START	n/a	n/a	n/a	-999	-999	[0, 0, 0]	n/a	FR1	0	R1111M
28.636	3.709	37524	COUNTDOWN_END	n/a	n/a	n/a	-999	-999	[0, 0, 0]	n/a	FR1	0	R1111M
32.345	2.4	39379	PRACTICE_WORD	n/a	n/a	WATCH	1	-1	[0, 0, 0]	n/a	FR1	0	R1111M
34.745	2.5	40579	PRACTICE_WORD	n/a	n/a	RHINO	2	-1	[0, 0, 0]	n/a	FR1	0	R1111M
37.245	2.435	41829	PRACTICE_WORD	n/a	n/a	ATTIC	3	-1	[0, 0, 0]	n/a	FR1	0	R1111M
39.68	2.383	43046	PRACTICE_WORD	n/a	n/a	TONGUE	4	-1	[0, 0, 0]	n/a	FR1	0	R1111M
42.063	2.451	44238	PRACTICE_WORD	n/a	n/a	CHEST	5	-1	[0, 0, 0]	n/a	FR1	0	R1111M
44.514	2.467	45463	PRACTICE_WORD	n/a	n/a	COTTON	6	-1	[0, 0, 0]	n/a	FR1	0	R1111M
46.981	2.384	46696	PRACTICE_WORD	n/a	n/a	IRON	7	-1	[0, 0, 0]	n/a	FR1	0	R1111M
49.365	2.45	47888	PRACTICE_WORD	n/a	n/a	BEAM	8	-1	[0, 0, 0]	n/a	FR1	0	R1111M
51.815	2.4	49113	PRACTICE_WORD	n/a	n/a	WAGON	9	-1	[0, 0, 0]	n/a	FR1	0	R1111M
54.215	2.601	50313	PRACTICE_WORD	n/a	n/a	RING	10	-1	[0, 0, 0]	n/a	FR1	0	R1111M
56.816	2.534	51614	PRACTICE_WORD	n/a	n/a	FLOOD	11	-1	[0, 0, 0]	n/a	FR1	0	R1111M
59.35	1.617	52881	PRACTICE_WORD	n/a	n/a	CAMEL	12	-1	[0, 0, 0]	n/a	FR1	0	R1111M
60.967	0.001	53689	PRACTICE_DISTRACT_START	n/a	n/a	n/a	-999	-1	[0, 0, 0]	n/a	FR1	0	R1111M
60.968	0.016	53689	START	n/a	n/a	n/a	-999	-1	[-999, -999, -999]	n/a	FR1	0	R1111M
60.984	17.77	53697	PROB	17.77	n/a	n/a	-999	-1	[6, 9, 8]	19	FR1	0	R1111M
78.754	9.593	62582	PROB	9.593	n/a	n/a	-999	-1	[2, 5, 6]	13	FR1	0	R1111M
88.347	0.009	67378	STOP	n/a	n/a	n/a	-999	-1	[-999, -999, -999]	n/a	FR1	0	R1111M
88.356	0.585	67383	PRACTICE_DISTRACT_END	n/a	n/a	n/a	-999	-1	[0, 0, 0]	n/a	FR1	0	R1111M
88.941	30.515	67675	PRACTICE_REC_START	n/a	n/a	n/a	-999	-1	[0, 0, 0]	n/a	FR1	0	R1111M
119.456	22.294	82932	PRACTICE_REC_END	n/a	n/a	n/a	-999	-1	[0, 0, 0]	n/a	FR1	0	R1111M
141.75	0.0	94078	TRIAL	n/a	n/a	n/a	-999	1	[0, 0, 0]	n/a	FR1	0	R1111M
141.75	10.428	94078	COUNTDOWN_START	n/a	n/a	n/a	-999	1	[0, 0, 0]	n/a	FR1	0	R1111M
152.178	0.006	99292	COUNTDOWN_END	n/a	n/a	n/a	-999	1	[0, 0, 0]	n/a	FR1	0	R1111M
152.184	2.451	99295	ORIENT	n/a	n/a	n/a	-999	1	[0, 0, 0]	n/a	FR1	0	R1111M
154.635	2.617	100520	WORD	n/a	wordpools/wordpool_EN.txt	BEAR	1	1	[0, 0, 0]	n/a	FR1	0	R1111M
157.252	2.568	101829	WORD	n/a	wordpools/wordpool_EN.txt	WING	2	1	[0, 0, 0]	n/a	FR1	0	R1111M
159.82	2.433	103113	WORD	n/a	wordpools/wordpool_EN.txt	DOOR	3	1	[0, 0, 0]	n/a	FR1	0	R1111M
162.253	2.618	104329	WORD	n/a	wordpools/wordpool_EN.txt	PLANT	4	1	[0, 0, 0]	n/a	FR1	0	R1111M
164.871	2.517	105638	WORD	n/a	wordpools/wordpool_EN.txt	ROOT	5	1	[0, 0, 0]	n/a	FR1	0	R1111M
167.388	2.417	106897	WORD	n/a	wordpools/wordpool_EN.txt	LEAF	6	1	[0, 0, 0]	n/a	FR1	0	R1111M
169.805	2.534	108105	WORD	n/a	wordpools/wordpool_EN.txt	SNOW	7	1	[0, 0, 0]	n/a	FR1	0	R1111M
172.339	2.417	109372	WORD	n/a	wordpools/wordpool_EN.txt	BLOOM	8	1	[0, 0, 0]	n/a	FR1	0	R1111M
174.756	2.466	110580	WORD	n/a	wordpools/wordpool_EN.txt	STRAW	9	1	[0, 0, 0]	n/a	FR1	0	R1111M
177.222	2.618	111813	WORD	n/a	wordpools/wordpool_EN.txt	BUSH	10	1	[0, 0, 0]	n/a	FR1	0	R1111M
179.84	2.567	113122	WORD	n/a	wordpools/wordpool_EN.txt	BRANCH	11	1	[0, 0, 0]	n/a	FR1	0	R1111M
182.407	1.617	114406	WORD	n/a	wordpools/wordpool_EN.txt	TOY	12	1	[0, 0, 0]	n/a	FR1	0	R1111M
184.024	0.001	115214	DISTRACT_START	n/a	n/a	n/a	-999	1	[0, 0, 0]	n/a	FR1	0	R1111M
184.025	0.016	115215	START	n/a	n/a	n/a	-999	1	[-999, -999, -999]	n/a	FR1	0	R1111M
184.041	5.485	115223	PROB	5.485	n/a	n/a	-999	1	[6, 6, 6]	18	FR1	0	R1111M
189.526	9.051	117965	PROB	9.051	n/a	n/a	-999	1	[6, 3, 5]	14	FR1	0	R1111M
198.577	9.762	122490	PROB	9.762	n/a	n/a	-999	1	[7, 9, 8]	24	FR1	0	R1111M
208.339	0.007	127371	STOP	n/a	n/a	n/a	-999	1	[-999, -999, -999]	n/a	FR1	0	R1111M
208.346	1.084	127374	DISTRACT_END	n/a	n/a	n/a	-999	1	[0, 0, 0]	n/a	FR1	0	R1111M
209.43	5.21	127916	REC_START	n/a	n/a	n/a	-999	1	[0, 0, 0]	n/a	FR1	0	R1111M
214.64	0.538	130521	REC_WORD	0.538	n/a	BEAR	-999	1	[0, 0, 0]	n/a	FR1	0	R1111M
215.178	1.067	130790	REC_WORD	1.067	n/a	WING	-999	1	[0, 0, 0]	n/a	FR1	0	R1111M
216.245	1.067	131324	REC_WORD	1.067	n/a	PLANT	-999	1	[0, 0, 0]	n/a	FR1	0	R1111M
217.312	7.204	131857	REC_WORD	7.204	n/a	DOOR	-999	1	[0, 0, 0]	n/a	FR1	0	R1111M
224.516	14.923	135459	REC_WORD	14.923	n/a	TOY	-999	1	[0, 0, 0]	n/a	FR1	0	R1111M
239.439	3.897	142920	REC_END	n/a	n/a	n/a	-999	1	[0, 0, 0]	n/a	FR1	0	R1111M
243.336	0.0	144868	TRIAL	n/a	n/a	n/a	-999	2	[0, 0, 0]	n/a	FR1	0	R1111M
243.336	10.428	144868	COUNTDOWN_START	n/a	n/a	n/a	-999	2	[0, 0, 0]	n/a	FR1	0	R1111M
253.764	0.007	150082	COUNTDOWN_END	n/a	n/a	n/a	-999	2	[0, 0, 0]	n/a	FR1	0	R1111M
253.771	2.617	150086	ORIENT	n/a	n/a	n/a	-999	2	[0, 0, 0]	n/a	FR1	0	R1111M
256.388	2.518	151394	WORD	n/a	wordpools/wordpool_EN.txt	PIPE	1	2	[0, 0, 0]	n/a	FR1	0	R1111M
258.906	2.399	152653	WORD	n/a	wordpools/wordpool_EN.txt	OWL	2	2	[0, 0, 0]	n/a	FR1	0	R1111M
261.305	2.602	153852	WORD	n/a	wordpools/wordpool_EN.txt	PIE	3	2	[0, 0, 0]	n/a	FR1	0	R1111M
263.907	2.533	155153	WORD	n/a	wordpools/wordpool_EN.txt	DEER	4	2	[0, 0, 0]	n/a	FR1	0	R1111M
266.44	2.451	156420	WORD	n/a	wordpools/wordpool_EN.txt	SPRING	5	2	[0, 0, 0]	n/a	FR1	0	R1111M
268.891	2.5	157645	WORD	n/a	wordpools/wordpool_EN.txt	MULE	6	2	[0, 0, 0]	n/a	FR1	0	R1111M
271.391	2.417	158895	WORD	n/a	wordpools/wordpool_EN.txt	SLUSH	7	2	[0, 0, 0]	n/a	FR1	0	R1111M
273.808	2.483	160104	WORD	n/a	wordpools/wordpool_EN.txt	PIG	8	2	[0, 0, 0]	n/a	FR1	0	R1111M
276.291	2.452	161345	WORD	n/a	wordpools/wordpool_EN.txt	STOOL	9	2	[0, 0, 0]	n/a	FR1	0	R1111M
278.743	2.4	162571	WORD	n/a	wordpools/wordpool_EN.txt	POOL	10	2	[0, 0, 0]	n/a	FR1	0	R1111M
281.143	2.467	163771	WORD	n/a	wordpools/wordpool_EN.txt	WOLF	11	2	[0, 0, 0]	n/a	FR1	0	R1111M
283.61	1.616	165004	WORD	n/a	wordpools/wordpool_EN.txt	SWAMP	12	2	[0, 0, 0]	n/a	FR1	0	R1111M
285.226	0.001	165812	DISTRACT_START	n/a	n/a	n/a	-999	2	[0, 0, 0]	n/a	FR1	0	R1111M
285.227	0.016	165813	START	n/a	n/a	n/a	-999	2	[-999, -999, -999]	n/a	FR1	0	R1111M
285.243	6.886	165821	PROB	6.886	n/a	n/a	-999	2	[3, 4, 3]	10	FR1	0	R1111M
292.129	6.1	169264	PROB	6.1	n/a	n/a	-999	2	[9, 1, 7]	17	FR1	0	R1111M
298.229	5.135	172313	PROB	5.135	n/a	n/a	-999	2	[3, 1, 1]	5	FR1	0	R1111M
303.364	7.215	174881	PROB	7.215	n/a	n/a	-999	2	[2, 7, 4]	13	FR1	0	R1111M
310.579	0.003	178488	STOP	n/a	n/a	n/a	-999	2	[-999, -999, -999]	n/a	FR1	0	R1111M
310.582	1.168	178490	DISTRACT_END	n/a	n/a	n/a	-999	2	[0, 0, 0]	n/a	FR1	0	R1111M
311.75	2.863	179073	REC_START	n/a	n/a	n/a	-999	2	[0, 0, 0]	n/a	FR1	0	R1111M
314.613	1.035	180505	REC_WORD	1.035	n/a	DEER	-999	2	[0, 0, 0]	n/a	FR1	0	R1111M
315.648	1.705	181022	REC_WORD	1.705	n/a	MULE	-999	2	[0, 0, 0]	n/a	FR1	0	R1111M
317.353	1.028	181875	REC_WORD	1.028	n/a	SLUSH	-999	2	[0, 0, 0]	n/a	FR1	0	R1111M
318.381	3.443	182389	REC_WORD	3.443	n/a	PIPE	-999	2	[0, 0, 0]	n/a	FR1	0	R1111M
321.824	15.836	184110	REC_WORD	15.836	n/a	SPRING	-999	2	[0, 0, 0]	n/a	FR1	0	R1111M
337.66	0.578	192028	REC_WORD	0.578	n/a	OWL	-999	2	[0, 0, 0]	n/a	FR1	0	R1111M
338.238	3.521	192317	REC_WORD	3.521	n/a	PIPE	-999	2	[0, 0, 0]	n/a	FR1	0	R1111M
341.759	34.502	194077	REC_END	n/a	n/a	n/a	-999	2	[0, 0, 0]	n/a	FR1	0	R1111M
376.261	0.0	211327	TRIAL	n/a	n/a	n/a	-999	3	[0, 0, 0]	n/a	FR1	0	R1111M
376.261	10.428	211327	COUNTDOWN_START	n/a	n/a	n/a	-999	3	[0, 0, 0]	n/a	FR1	0	R1111M
386.689	0.008	216541	COUNTDOWN_END	n/a	n/a	n/a	-999	3	[0, 0, 0]	n/a	FR1	0	R1111M
386.697	2.434	216545	ORIENT	n/a	n/a	n/a	-999	3	[0, 0, 0]	n/a	FR1	0	R1111M
389.131	2.4	217762	WORD	n/a	wordpools/wordpool_EN.txt	FUR	1	3	[0, 0, 0]	n/a	FR1	0	R1111M
391.531	2.517	218962	WORD	n/a	wordpools/wordpool_EN.txt	BANK	2	3	[0, 0, 0]	n/a	FR1	0	R1111M
394.048	2.418	220220	WORD	n/a	wordpools/wordpool_EN.txt	COUCH	3	3	[0, 0, 0]	n/a	FR1	0	R1111M
396.466	2.617	221429	WORD	n/a	wordpools/wordpool_EN.txt	CROW	4	3	[0, 0, 0]	n/a	FR1	0	R1111M
399.083	2.534	222738	WORD	n/a	wordpools/wordpool_EN.txt	CART	5	3	[0, 0, 0]	n/a	FR1	0	R1111M
401.617	2.532	224004	WORD	n/a	wordpools/wordpool_EN.txt	SNAKE	6	3	[0, 0, 0]	n/a	FR1	0	R1111M
404.149	2.502	225270	WORD	n/a	wordpools/wordpool_EN.txt	SKUNK	7	3	[0, 0, 0]	n/a	FR1	0	R1111M
406.651	2.4	226521	WORD	n/a	wordpools/wordpool_EN.txt	WAND	8	3	[0, 0, 0]	n/a	FR1	0	R1111M
409.051	2.518	227721	WORD	n/a	wordpools/wordpool_EN.txt	SHIRT	9	3	[0, 0, 0]	n/a	FR1	0	R1111M
411.569	2.45	228980	WORD	n/a	wordpools/wordpool_EN.txt	RAT	10	3	[0, 0, 0]	n/a	FR1	0	R1111M
414.019	2.534	230205	WORD	n/a	wordpools/wordpool_EN.txt	DOLL	11	3	[0, 0, 0]	n/a	FR1	0	R1111M
416.553	1.616	231472	WORD	n/a	wordpools/wordpool_EN.txt	BED	12	3	[0, 0, 0]	n/a	FR1	0	R1111M
418.169	0.001	232280	DISTRACT_START	n/a	n/a	n/a	-999	3	[0, 0, 0]	n/a	FR1	0	R1111M
418.17	0.016	232280	START	n/a	n/a	n/a	-999	3	[-999, -999, -999]	n/a	FR1	0	R1111M
418.186	6.835	232288	PROB	6.835	n/a	n/a	-999	3	[6, 9, 3]	12	FR1	0	R1111M
425.021	5.451	235706	PROB	5.451	n/a	n/a	-999	3	[1, 4, 3]	8	FR1	0	R1111M
430.472	6.652	238431	PROB	6.652	n/a	n/a	-999	3	[4, 2, 4]	10	FR1	0	R1111M
437.124	10.511	241757	PROB	10.511	n/a	n/a	-999	3	[9, 4, 9]	22	FR1	0	R1111M
447.635	0.007	247012	STOP	n/a	n/a	n/a	-999	3	[-999, -999, -999]	n/a	FR1	0	R1111M
447.642	1.051	247016	DISTRACT_END	n/a	n/a	n/a	-999	3	[0, 0, 0]	n/a	FR1	0	R1111M
448.693	2.974	247541	REC_START	n/a	n/a	n/a	-999	3	[0, 0, 0]	n/a	FR1	0	R1111M
451.667	1.734	249028	REC_WORD	1.734	n/a	FUR	-999	3	[0, 0, 0]	n/a	FR1	0	R1111M
453.401	1.112	249895	REC_WORD	1.112	n/a	COUCH	-999	3	[0, 0, 0]	n/a	FR1	0	R1111M
454.513	1.198	250451	REC_WORD	1.198	n/a	BANK	-999	3	[0, 0, 0]	n/a	FR1	0	R1111M
455.711	1.57	251050	REC_WORD	1.57	n/a	CROW	-999	3	[0, 0, 0]	n/a	FR1	0	R1111M
457.281	3.036	251835	REC_WORD	3.036	n/a	SNAKE	-999	3	[0, 0, 0]	n/a	FR1	0	R1111M
460.317	0.551	253353	REC_WORD	0.551	n/a	DID YOU EVER GET	-999	3	[0, 0, 0]	n/a	FR1	0	R1111M
460.868	9.148	253628	REC_WORD	9.148	n/a	FUR	-999	3	[0, 0, 0]	n/a	FR1	0	R1111M
470.016	8.688	258202	REC_WORD	8.688	n/a	SKUNK	-999	3	[0, 0, 0]	n/a	FR1	0	R1111M
478.704	16.48	262546	REC_END	n/a	n/a	n/a	-999	3	[0, 0, 0]	n/a	FR1	0	R1111M
495.184	0.0	270785	TRIAL	n/a	n/a	n/a	-999	4	[0, 0, 0]	n/a	FR1	0	R1111M
495.184	10.428	270785	COUNTDOWN_START	n/a	n/a	n/a	-999	4	[0, 0, 0]	n/a	FR1	0	R1111M
505.612	0.008	275999	COUNTDOWN_END	n/a	n/a	n/a	-999	4	[0, 0, 0]	n/a	FR1	0	R1111M
505.62	2.566	276003	ORIENT	n/a	n/a	n/a	-999	4	[0, 0, 0]	n/a	FR1	0	R1111M
508.186	2.518	277286	WORD	n/a	wordpools/wordpool_EN.txt	LOCK	1	4	[0, 0, 0]	n/a	FR1	0	R1111M
510.704	2.384	278545	WORD	n/a	wordpools/wordpool_EN.txt	FOG	2	4	[0, 0, 0]	n/a	FR1	0	R1111M
513.088	2.584	279737	WORD	n/a	wordpools/wordpool_EN.txt	BRIDGE	3	4	[0, 0, 0]	n/a	FR1	0	R1111M
515.672	2.451	281029	WORD	n/a	wordpools/wordpool_EN.txt	ARK	4	4	[0, 0, 0]	n/a	FR1	0	R1111M
518.123	2.45	282254	WORD	n/a	wordpools/wordpool_EN.txt	HEART	5	4	[0, 0, 0]	n/a	FR1	0	R1111M
520.573	2.467	283479	WORD	n/a	wordpools/wordpool_EN.txt	STAIR	6	4	[0, 0, 0]	n/a	FR1	0	R1111M
523.04	2.434	284713	WORD	n/a	wordpools/wordpool_EN.txt	RAIN	7	4	[0, 0, 0]	n/a	FR1	0	R1111M
525.474	2.55	285929	WORD	n/a	wordpools/wordpool_EN.txt	CLOUD	8	4	[0, 0, 0]	n/a	FR1	0	R1111M
528.024	2.534	287204	WORD	n/a	wordpools/wordpool_EN.txt	FOAM	9	4	[0, 0, 0]	n/a	FR1	0	R1111M
530.558	2.417	288471	WORD	n/a	wordpools/wordpool_EN.txt	SAIL	10	4	[0, 0, 0]	n/a	FR1	0	R1111M
532.975	2.618	289680	WORD	n/a	wordpools/wordpool_EN.txt	CAR	11	4	[0, 0, 0]	n/a	FR1	0	R1111M
535.593	1.616	290989	WORD	n/a	wordpools/wordpool_EN.txt	STORM	12	4	[0, 0, 0]	n/a	FR1	0	R1111M
537.209	0.0	291797	DISTRACT_START	n/a	n/a	n/a	-999	4	[0, 0, 0]	n/a	FR1	0	R1111M
537.209	0.016	291797	START	n/a	n/a	n/a	-999	4	[-999, -999, -999]	n/a	FR1	0	R1111M
537.225	9.253	291805	PROB	9.253	n/a	n/a	-999	4	[3, 5, 9]	17	FR1	0	R1111M
546.478	5.568	296431	PROB	5.568	n/a	n/a	-999	4	[3, 6, 2]	11	FR1	0	R1111M
552.046	4.917	299215	PROB	4.917	n/a	n/a	-999	4	[4, 4, 4]	12	FR1	0	R1111M
556.963	4.12	301673	PROB	4.12	n/a	n/a	-999	4	[4, 1, 5]	10	FR1	0	R1111M
561.083	0.015	303733	STOP	n/a	n/a	n/a	-999	4	[-999, -999, -999]	n/a	FR1	0	R1111M
561.098	1.149	303741	DISTRACT_END	n/a	n/a	n/a	-999	4	[0, 0, 0]	n/a	FR1	0	R1111M
562.247	2.606	304315	REC_START	n/a	n/a	n/a	-999	4	[0, 0, 0]	n/a	FR1	0	R1111M
564.853	1.936	305618	REC_WORD	1.936	n/a	LOCK	-999	4	[0, 0, 0]	n/a	FR1	0	R1111M
566.789	3.222	306586	REC_WORD	3.222	n/a	FOG	-999	4	[0, 0, 0]	n/a	FR1	0	R1111M
570.011	2.192	308197	REC_WORD	2.192	n/a	BRIDGE	-999	4	[0, 0, 0]	n/a	FR1	0	R1111M
572.203	1.336	309293	REC_WORD	1.336	n/a	ARCH	-999	4	[0, 0, 0]	n/a	FR1	0	R1111M
573.539	1.107	309961	REC_WORD	1.107	n/a	HEART	-999	4	[0, 0, 0]	n/a	FR1	0	R1111M
574.646	4.984	310514	REC_WORD	4.984	n/a	STAIR	-999	4	[0, 0, 0]	n/a	FR1	0	R1111M
579.63	2.178	313006	REC_WORD	2.178	n/a	CLOUD	-999	4	[0, 0, 0]	n/a	FR1	0	R1111M
581.808	1.01	314095	REC_WORD	1.01	n/a	SAIL	-999	4	[0, 0, 0]	n/a	FR1	0	R1111M
582.818	9.441	314600	REC_WORD	9.441	n/a	FOAM	-999	4	[0, 0, 0]	n/a	FR1	0	R1111M
592.259	29.234	319320	REC_END	n/a	n/a	n/a	-999	4	[0, 0, 0]	n/a	FR1	0	R1111M
621.493	0.0	333936	TRIAL	n/a	n/a	n/a	-999	5	[0, 0, 0]	n/a	FR1	0	R1111M
621.493	10.428	333936	COUNTDOWN_START	n/a	n/a	n/a	-999	5	[0, 0, 0]	n/a	FR1	0	R1111M
631.921	0.007	339150	COUNTDOWN_END	n/a	n/a	n/a	-999	5	[0, 0, 0]	n/a	FR1	0	R1111M
631.928	2.534	339154	ORIENT	n/a	n/a	n/a	-999	5	[0, 0, 0]	n/a	FR1	0	R1111M
634.462	2.6	340420	WORD	n/a	wordpools/wordpool_EN.txt	BRICK	1	5	[0, 0, 0]	n/a	FR1	0	R1111M
637.062	2.584	341720	WORD	n/a	wordpools/wordpool_EN.txt	WEB	2	5	[0, 0, 0]	n/a	FR1	0	R1111M
639.646	2.499	343012	WORD	n/a	wordpools/wordpool_EN.txt	TANK	3	5	[0, 0, 0]	n/a	FR1	0	R1111M
642.145	2.518	344262	WORD	n/a	wordpools/wordpool_EN.txt	SCHOOL	4	5	[0, 0, 0]	n/a	FR1	0	R1111M
644.663	2.401	345521	WORD	n/a	wordpools/wordpool_EN.txt	MAP	5	5	[0, 0, 0]	n/a	FR1	0	R1111M
647.064	2.467	346721	WORD	n/a	wordpools/wordpool_EN.txt	KEY	6	5	[0, 0, 0]	n/a	FR1	0	R1111M
649.531	2.601	347955	WORD	n/a	wordpools/wordpool_EN.txt	BALL	7	5	[0, 0, 0]	n/a	FR1	0	R1111M
652.132	2.55	349255	WORD	n/a	wordpools/wordpool_EN.txt	SHARK	8	5	[0, 0, 0]	n/a	FR1	0	R1111M
654.682	2.5	350530	WORD	n/a	wordpools/wordpool_EN.txt	COIN	9	5	[0, 0, 0]	n/a	FR1	0	R1111M
657.182	2.485	351780	WORD	n/a	wordpools/wordpool_EN.txt	FLOOR	10	5	[0, 0, 0]	n/a	FR1	0	R1111M
659.667	2.516	353022	WORD	n/a	wordpools/wordpool_EN.txt	TOE	11	5	[0, 0, 0]	n/a	FR1	0	R1111M
662.183	1.601	354280	WORD	n/a	wordpools/wordpool_EN.txt	FAN	12	5	[0, 0, 0]	n/a	FR1	0	R1111M
663.784	0.001	355081	DISTRACT_START	n/a	n/a	n/a	-999	5	[0, 0, 0]	n/a	FR1	0	R1111M
663.785	0.016	355081	START	n/a	n/a	n/a	-999	5	[-999, -999, -999]	n/a	FR1	0	R1111M
663.801	5.818	355089	PROB	5.818	n/a	n/a	-999	5	[7, 3, 8]	18	FR1	0	R1111M
669.619	12.285	357998	PROB	12.285	n/a	n/a	-999	5	[9, 5, 3]	17	FR1	0	R1111M
681.904	12.779	364140	PROB	12.779	n/a	n/a	-999	5	[4, 9, 7]	20	FR1	0	R1111M
694.683	0.007	370529	STOP	n/a	n/a	n/a	-999	5	[-999, -999, -999]	n/a	FR1	0	R1111M
694.69	1.167	370533	DISTRACT_END	n/a	n/a	n/a	-999	5	[0, 0, 0]	n/a	FR1	0	R1111M
695.857	3.726	371116	REC_START	n/a	n/a	n/a	-999	5	[0, 0, 0]	n/a	FR1	0	R1111M
699.583	1.746	372979	REC_WORD	1.746	n/a	COBWEB	-999	5	[0, 0, 0]	n/a	FR1	0	R1111M
701.329	1.47	373852	REC_WORD	1.47	n/a	WEB	-999	5	[0, 0, 0]	n/a	FR1	0	R1111M
702.799	1.152	374587	REC_WORD	1.152	n/a	BRICK	-999	5	[0, 0, 0]	n/a	FR1	0	R1111M
703.951	8.161	375163	REC_WORD	8.161	n/a	TANK	-999	5	[0, 0, 0]	n/a	FR1	0	R1111M
712.112	1.077	379243	REC_WORD	1.077	n/a	BALL	-999	5	[0, 0, 0]	n/a	FR1	0	R1111M
713.189	10.381	379782	REC_WORD	10.381	n/a	MAP	-999	5	[0, 0, 0]	n/a	FR1	0	R1111M
723.57	2.336	384972	REC_WORD	2.336	n/a	SCHOOL	-999	5	[0, 0, 0]	n/a	FR1	0	R1111M
725.906	7.374	386140	REC_END	n/a	n/a	n/a	-999	5	[0, 0, 0]	n/a	FR1	0	R1111M
733.28	0.0	389827	TRIAL	n/a	n/a	n/a	-999	6	[0, 0, 0]	n/a	FR1	0	R1111M
733.28	10.428	389827	COUNTDOWN_START	n/a	n/a	n/a	-999	6	[0, 0, 0]	n/a	FR1	0	R1111M
743.708	0.008	395040	COUNTDOWN_END	n/a	n/a	n/a	-999	6	[0, 0, 0]	n/a	FR1	0	R1111M
743.716	2.417	395044	ORIENT	n/a	n/a	n/a	-999	6	[0, 0, 0]	n/a	FR1	0	R1111M
746.133	2.401	396253	WORD	n/a	wordpools/wordpool_EN.txt	FOX	1	6	[0, 0, 0]	n/a	FR1	0	R1111M
748.534	2.4	397453	WORD	n/a	wordpools/wordpool_EN.txt	LAMB	2	6	[0, 0, 0]	n/a	FR1	0	R1111M
750.934	2.584	398653	WORD	n/a	wordpools/wordpool_EN.txt	TAIL	3	6	[0, 0, 0]	n/a	FR1	0	R1111M
753.518	2.384	399945	WORD	n/a	wordpools/wordpool_EN.txt	SPEAR	4	6	[0, 0, 0]	n/a	FR1	0	R1111M
755.902	2.399	401137	WORD	n/a	wordpools/wordpool_EN.txt	GATE	5	6	[0, 0, 0]	n/a	FR1	0	R1111M
758.301	2.552	402336	WORD	n/a	wordpools/wordpool_EN.txt	PEAR	6	6	[0, 0, 0]	n/a	FR1	0	R1111M
760.853	2.55	403612	WORD	n/a	wordpools/wordpool_EN.txt	PIT	7	6	[0, 0, 0]	n/a	FR1	0	R1111M
763.403	2.468	404887	WORD	n/a	wordpools/wordpool_EN.txt	CLIFF	8	6	[0, 0, 0]	n/a	FR1	0	R1111M
765.871	2.399	406121	WORD	n/a	wordpools/wordpool_EN.txt	CALF	9	6	[0, 0, 0]	n/a	FR1	0	R1111M
768.27	2.551	407321	WORD	n/a	wordpools/wordpool_EN.txt	ROCK	10	6	[0, 0, 0]	n/a	FR1	0	R1111M
770.821	2.467	408596	WORD	n/a	wordpools/wordpool_EN.txt	MOLE	11	6	[0, 0, 0]	n/a	FR1	0	R1111M
773.288	1.618	409830	WORD	n/a	wordpools/wordpool_EN.txt	FROG	12	6	[0, 0, 0]	n/a	FR1	0	R1111M
774.906	0.0	410639	DISTRACT_START	n/a	n/a	n/a	-999	6	[0, 0, 0]	n/a	FR1	0	R1111M
774.906	0.016	410639	START	n/a	n/a	n/a	-999	6	[-999, -999, -999]	n/a	FR1	0	R1111M
774.922	4.901	410647	PROB	4.901	n/a	n/a	-999	6	[4, 4, 4]	12	FR1	0	R1111M
779.823	8.384	413097	PROB	8.384	n/a	n/a	-999	6	[7, 5, 7]	19	FR1	0	R1111M
788.207	8.452	417289	PROB	8.452	n/a	n/a	-999	6	[2, 9, 3]	14	FR1	0	R1111M
796.659	0.017	421514	STOP	n/a	n/a	n/a	-999	6	[-999, -999, -999]	n/a	FR1	0	R1111M
796.676	1.152	421523	DISTRACT_END	n/a	n/a	n/a	-999	6	[0, 0, 0]	n/a	FR1	0	R1111M
797.828	2.978	422099	REC_START	n/a	n/a	n/a	-999	6	[0, 0, 0]	n/a	FR1	0	R1111M
800.806	1.08	423588	REC_WORD	1.08	n/a	FOX	-999	6	[0, 0, 0]	n/a	FR1	0	R1111M
801.886	0.721	424128	REC_WORD	0.721	n/a	LAMB	-999	6	[0, 0, 0]	n/a	FR1	0	R1111M
802.607	1.912	424488	REC_WORD	1.912	n/a	TAIL	-999	6	[0, 0, 0]	n/a	FR1	0	R1111M
804.519	1.12	425444	REC_WORD	1.12	n/a	SPEAR	-999	6	[0, 0, 0]	n/a	FR1	0	R1111M
805.639	22.198	426004	REC_WORD	22.198	n/a	GATE	-999	6	[0, 0, 0]	n/a	FR1	0	R1111M
827.837	3.546	437103	REC_END	n/a	n/a	n/a	-999	6	[0, 0, 0]	n/a	FR1	0	R1111M
831.383	0.0	438875	TRIAL	n/a	n/a	n/a	-999	7	[0, 0, 0]	n/a	FR1	0	R1111M
831.383	10.428	438875	COUNTDOWN_START	n/a	n/a	n/a	-999	7	[0, 0, 0]	n/a	FR1	0	R1111M
841.811	0.024	444089	COUNTDOWN_END	n/a	n/a	n/a	-999	7	[0, 0, 0]	n/a	FR1	0	R1111M
841.835	2.601	444101	ORIENT	n/a	n/a	n/a	-999	7	[0, 0, 0]	n/a	FR1	0	R1111M
844.436	2.55	445402	WORD	n/a	wordpools/wordpool_EN.txt	BROOM	1	7	[0, 0, 0]	n/a	FR1	0	R1111M
846.986	2.567	446677	WORD	n/a	wordpools/wordpool_EN.txt	DRESS	2	7	[0, 0, 0]	n/a	FR1	0	R1111M
849.553	2.551	447960	WORD	n/a	wordpools/wordpool_EN.txt	OAK	3	7	[0, 0, 0]	n/a	FR1	0	R1111M
852.104	2.567	449235	WORD	n/a	wordpools/wordpool_EN.txt	ROOF	4	7	[0, 0, 0]	n/a	FR1	0	R1111M
854.671	2.6	450519	WORD	n/a	wordpools/wordpool_EN.txt	HORSE	5	7	[0, 0, 0]	n/a	FR1	0	R1111M
857.271	2.501	451819	WORD	n/a	wordpools/wordpool_EN.txt	RAKE	6	7	[0, 0, 0]	n/a	FR1	0	R1111M
859.772	2.483	453069	WORD	n/a	wordpools/wordpool_EN.txt	WHALE	7	7	[0, 0, 0]	n/a	FR1	0	R1111M
862.255	2.535	454311	WORD	n/a	wordpools/wordpool_EN.txt	DRUM	8	7	[0, 0, 0]	n/a	FR1	0	R1111M
864.79	2.617	455578	WORD	n/a	wordpools/wordpool_EN.txt	BAG	9	7	[0, 0, 0]	n/a	FR1	0	R1111M
867.407	2.417	456886	WORD	n/a	wordpools/wordpool_EN.txt	FLAG	10	7	[0, 0, 0]	n/a	FR1	0	R1111M
869.824	2.466	458095	WORD	n/a	wordpools/wordpool_EN.txt	CLOWN	11	7	[0, 0, 0]	n/a	FR1	0	R1111M
872.29	1.601	459328	WORD	n/a	wordpools/wordpool_EN.txt	PARK	12	7	[0, 0, 0]	n/a	FR1	0	R1111M
873.891	0.001	460128	DISTRACT_START	n/a	n/a	n/a	-999	7	[0, 0, 0]	n/a	FR1	0	R1111M
873.892	0.016	460129	START	n/a	n/a	n/a	-999	7	[-999, -999, -999]	n/a	FR1	0	R1111M
873.908	5.485	460137	PROB	5.485	n/a	n/a	-999	7	[1, 5, 6]	12	FR1	0	R1111M
879.393	6.217	462879	PROB	6.217	n/a	n/a	-999	7	[1, 9, 6]	16	FR1	0	R1111M
885.61	8.56	465987	PROB	8.56	n/a	n/a	-999	7	[6, 2, 7]	15	FR1	0	R1111M
894.17	0.008	470267	STOP	n/a	n/a	n/a	-999	7	[-999, -999, -999]	n/a	FR1	0	R1111M
894.178	1.168	470271	DISTRACT_END	n/a	n/a	n/a	-999	7	[0, 0, 0]	n/a	FR1	0	R1111M
895.346	5.06	470855	REC_START	n/a	n/a	n/a	-999	7	[0, 0, 0]	n/a	FR1	0	R1111M
900.406	9.826	473385	REC_WORD	9.826	n/a	BAG	-999	7	[0, 0, 0]	n/a	FR1	0	R1111M
910.232	0.492	478298	REC_WORD	0.492	n/a	BROOM	-999	7	[0, 0, 0]	n/a	FR1	0	R1111M
910.724	1.255	478544	REC_WORD	1.255	n/a	DRESS	-999	7	[0, 0, 0]	n/a	FR1	0	R1111M
911.979	3.696	479171	REC_WORD	3.696	n/a	OAK	-999	7	[0, 0, 0]	n/a	FR1	0	R1111M
915.675	2.843	481019	REC_WORD	2.843	n/a	ROOF	-999	7	[0, 0, 0]	n/a	FR1	0	R1111M
918.518	6.841	482441	REC_WORD	6.841	n/a	HORSE	-999	7	[0, 0, 0]	n/a	FR1	0	R1111M
925.359	39.767	485861	REC_END	n/a	n/a	n/a	-999	7	[0, 0, 0]	n/a	FR1	0	R1111M
965.126	0.0	505743	COUNTDOWN_START	n/a	n/a	n/a	-999	8	[0, 0, 0]	n/a	FR1	0	R1111M
965.126	10.428	505743	TRIAL	n/a	n/a	n/a	-999	8	[0, 0, 0]	n/a	FR1	0	R1111M
975.554	0.007	510957	COUNTDOWN_END	n/a	n/a	n/a	-999	8	[0, 0, 0]	n/a	FR1	0	R1111M
975.561	2.584	510960	ORIENT	n/a	n/a	n/a	-999	8	[0, 0, 0]	n/a	FR1	0	R1111M
978.145	2.617	512252	WORD	n/a	wordpools/wordpool_EN.txt	POND	1	8	[0, 0, 0]	n/a	FR1	0	R1111M
980.762	2.5	513561	WORD	n/a	wordpools/wordpool_EN.txt	HAND	2	8	[0, 0, 0]	n/a	FR1	0	R1111M
983.262	2.401	514811	WORD	n/a	wordpools/wordpool_EN.txt	SPONGE	3	8	[0, 0, 0]	n/a	FR1	0	R1111M
985.663	2.467	516011	WORD	n/a	wordpools/wordpool_EN.txt	WAVE	4	8	[0, 0, 0]	n/a	FR1	0	R1111M
988.13	2.467	517245	WORD	n/a	wordpools/wordpool_EN.txt	SHELL	5	8	[0, 0, 0]	n/a	FR1	0	R1111M
990.597	2.401	518478	WORD	n/a	wordpools/wordpool_EN.txt	EAR	6	8	[0, 0, 0]	n/a	FR1	0	R1111M
992.998	2.583	519678	WORD	n/a	wordpools/wordpool_EN.txt	BEACH	7	8	[0, 0, 0]	n/a	FR1	0	R1111M
995.581	2.567	520970	WORD	n/a	wordpools/wordpool_EN.txt	CAGE	8	8	[0, 0, 0]	n/a	FR1	0	R1111M
998.148	2.368	522253	WORD	n/a	wordpools/wordpool_EN.txt	SNAIL	9	8	[0, 0, 0]	n/a	FR1	0	R1111M
1000.516	2.484	523437	WORD	n/a	wordpools/wordpool_EN.txt	NEST	10	8	[0, 0, 0]	n/a	FR1	0	R1111M
1003.0	2.534	524679	WORD	n/a	wordpools/wordpool_EN.txt	BEAK	11	8	[0, 0, 0]	n/a	FR1	0	R1111M
1005.534	1.616	525946	WORD	n/a	wordpools/wordpool_EN.txt	THREAD	12	8	[0, 0, 0]	n/a	FR1	0	R1111M
1007.15	0.0	526754	DISTRACT_START	n/a	n/a	n/a	-999	8	[0, 0, 0]	n/a	FR1	0	R1111M
1007.15	0.016	526754	START	n/a	n/a	n/a	-999	8	[-999, -999, -999]	n/a	FR1	0	R1111M
1007.166	4.985	526762	PROB	4.985	n/a	n/a	-999	8	[3, 7, 1]	11	FR1	0	R1111M
1012.151	6.602	529254	PROB	6.602	n/a	n/a	-999	8	[4, 7, 9]	20	FR1	0	R1111M
1018.753	13.066	532555	PROB	13.066	n/a	n/a	-999	8	[1, 4, 9]	14	FR1	0	R1111M
1031.819	0.003	539088	STOP	n/a	n/a	n/a	-999	8	[-999, -999, -999]	n/a	FR1	0	R1111M
1031.822	1.068	539089	DISTRACT_END	n/a	n/a	n/a	-999	8	[0, 0, 0]	n/a	FR1	0	R1111M
1032.89	1.577	539623	REC_START	n/a	n/a	n/a	-999	8	[0, 0, 0]	n/a	FR1	0	R1111M
1034.467	0.809	540412	REC_WORD	0.809	n/a	POND	-999	8	[0, 0, 0]	n/a	FR1	0	R1111M
1035.276	1.918	540816	REC_WORD	1.918	n/a	HAND	-999	8	[0, 0, 0]	n/a	FR1	0	R1111M
1037.194	2.837	541775	REC_WORD	2.837	n/a	SPONGE	-999	8	[0, 0, 0]	n/a	FR1	0	R1111M
1040.031	6.76	543194	REC_WORD	6.76	n/a	EAR	-999	8	[0, 0, 0]	n/a	FR1	0	R1111M
1046.791	16.108	546573	REC_WORD	16.108	n/a	BEACH	-999	8	[0, 0, 0]	n/a	FR1	0	R1111M
1062.899	5.947	554627	REC_END	n/a	n/a	n/a	-999	8	[0, 0, 0]	n/a	FR1	0	R1111M
1068.846	0.0	557600	TRIAL	n/a	n/a	n/a	-999	9	[0, 0, 0]	n/a	FR1	0	R1111M
1068.846	10.428	557600	COUNTDOWN_START	n/a	n/a	n/a	-999	9	[0, 0, 0]	n/a	FR1	0	R1111M
1079.274	0.006	562814	COUNTDOWN_END	n/a	n/a	n/a	-999	9	[0, 0, 0]	n/a	FR1	0	R1111M
1079.28	2.468	562817	ORIENT	n/a	n/a	n/a	-999	9	[0, 0, 0]	n/a	FR1	0	R1111M
1081.748	2.416	564051	WORD	n/a	wordpools/wordpool_EN.txt	FLAME	1	9	[0, 0, 0]	n/a	FR1	0	R1111M
1084.164	2.502	565259	WORD	n/a	wordpools/wordpool_EN.txt	SPARK	2	9	[0, 0, 0]	n/a	FR1	0	R1111M
1086.666	2.55	566510	WORD	n/a	wordpools/wordpool_EN.txt	LEG	3	9	[0, 0, 0]	n/a	FR1	0	R1111M
1089.216	2.418	567785	WORD	n/a	wordpools/wordpool_EN.txt	BOWL	4	9	[0, 0, 0]	n/a	FR1	0	R1111M
1091.634	2.582	568994	WORD	n/a	wordpools/wordpool_EN.txt	PURSE	5	9	[0, 0, 0]	n/a	FR1	0	R1111M
1094.216	2.552	570285	WORD	n/a	wordpools/wordpool_EN.txt	NOSE	6	9	[0, 0, 0]	n/a	FR1	0	R1111M
1096.768	2.617	571561	WORD	n/a	wordpools/wordpool_EN.txt	FACE	7	9	[0, 0, 0]	n/a	FR1	0	R1111M
1099.385	2.401	572869	WORD	n/a	wordpools/wordpool_EN.txt	EEL	8	9	[0, 0, 0]	n/a	FR1	0	R1111M
1101.786	2.583	574069	WORD	n/a	wordpools/wordpool_EN.txt	HOSE	9	9	[0, 0, 0]	n/a	FR1	0	R1111M
1104.369	2.584	575361	WORD	n/a	wordpools/wordpool_EN.txt	CHAIR	10	9	[0, 0, 0]	n/a	FR1	0	R1111M
1106.953	2.401	576653	WORD	n/a	wordpools/wordpool_EN.txt	SEAT	11	9	[0, 0, 0]	n/a	FR1	0	R1111M
1109.354	1.617	577853	WORD	n/a	wordpools/wordpool_EN.txt	SUIT	12	9	[0, 0, 0]	n/a	FR1	0	R1111M
1110.971	0.0	578662	DISTRACT_START	n/a	n/a	n/a	-999	9	[0, 0, 0]	n/a	FR1	0	R1111M
1110.971	0.016	578662	START	n/a	n/a	n/a	-999	9	[-999, -999, -999]	n/a	FR1	0	R1111M
1110.987	9.852	578670	PROB	9.852	n/a	n/a	-999	9	[8, 6, 6]	20	FR1	0	R1111M
1120.839	6.552	583595	PROB	6.552	n/a	n/a	-999	9	[1, 2, 5]	8	FR1	0	R1111M
1127.391	9.132	586871	PROB	9.132	n/a	n/a	-999	9	[2, 6, 7]	17	FR1	0	R1111M
1136.523	0.019	591437	STOP	n/a	n/a	n/a	-999	9	[-999, -999, -999]	n/a	FR1	0	R1111M
1136.542	1.084	591446	DISTRACT_END	n/a	n/a	n/a	-999	9	[0, 0, 0]	n/a	FR1	0	R1111M
1137.626	4.292	591988	REC_START	n/a	n/a	n/a	-999	9	[0, 0, 0]	n/a	FR1	0	R1111M
1141.918	1.118	594134	REC_WORD	1.118	n/a	EEL	-999	9	[0, 0, 0]	n/a	FR1	0	R1111M
1143.036	2.553	594693	REC_WORD	2.553	n/a	FACE	-999	9	[0, 0, 0]	n/a	FR1	0	R1111M
1145.589	0.796	595970	REC_WORD	0.796	n/a	FLAME	-999	9	[0, 0, 0]	n/a	FR1	0	R1111M
1146.385	0.986	596368	REC_WORD	0.986	n/a	SPARK	-999	9	[0, 0, 0]	n/a	FR1	0	R1111M
1147.371	5.466	596861	REC_WORD	5.466	n/a	LEG	-999	9	[0, 0, 0]	n/a	FR1	0	R1111M
1152.837	3.755	599593	REC_WORD	3.755	n/a	SUIT	-999	9	[0, 0, 0]	n/a	FR1	0	R1111M
1156.592	11.047	601471	REC_WORD	11.047	n/a	NOSE	-999	9	[0, 0, 0]	n/a	FR1	0	R1111M
1167.639	9.928	606994	REC_END	n/a	n/a	n/a	-999	9	[0, 0, 0]	n/a	FR1	0	R1111M
1177.567	0.0	611958	TRIAL	n/a	n/a	n/a	-999	10	[0, 0, 0]	n/a	FR1	0	R1111M
1177.567	10.428	611958	COUNTDOWN_START	n/a	n/a	n/a	-999	10	[0, 0, 0]	n/a	FR1	0	R1111M
1187.995	0.007	617171	COUNTDOWN_END	n/a	n/a	n/a	-999	10	[0, 0, 0]	n/a	FR1	0	R1111M
1188.002	2.617	617175	ORIENT	n/a	n/a	n/a	-999	10	[0, 0, 0]	n/a	FR1	0	R1111M
1190.619	2.451	618483	WORD	n/a	wordpools/wordpool_EN.txt	SEAL	1	10	[0, 0, 0]	n/a	FR1	0	R1111M
1193.07	2.617	619709	WORD	n/a	wordpools/wordpool_EN.txt	BAND	2	10	[0, 0, 0]	n/a	FR1	0	R1111M
1195.687	2.5	621017	WORD	n/a	wordpools/wordpool_EN.txt	WORLD	3	10	[0, 0, 0]	n/a	FR1	0	R1111M
1198.187	2.484	622267	WORD	n/a	wordpools/wordpool_EN.txt	FRUIT	4	10	[0, 0, 0]	n/a	FR1	0	R1111M
1200.671	2.533	623509	WORD	n/a	wordpools/wordpool_EN.txt	SWORD	5	10	[0, 0, 0]	n/a	FR1	0	R1111M
1203.204	2.435	624776	WORD	n/a	wordpools/wordpool_EN.txt	JAR	6	10	[0, 0, 0]	n/a	FR1	0	R1111M
1205.639	2.549	625993	WORD	n/a	wordpools/wordpool_EN.txt	BREAD	7	10	[0, 0, 0]	n/a	FR1	0	R1111M
1208.188	2.485	627267	WORD	n/a	wordpools/wordpool_EN.txt	CUP	8	10	[0, 0, 0]	n/a	FR1	0	R1111M
1210.673	2.451	628510	WORD	n/a	wordpools/wordpool_EN.txt	WALL	9	10	[0, 0, 0]	n/a	FR1	0	R1111M
1213.124	2.517	629735	WORD	n/a	wordpools/wordpool_EN.txt	STICK	10	10	[0, 0, 0]	n/a	FR1	0	R1111M
1215.641	2.566	630994	WORD	n/a	wordpools/wordpool_EN.txt	ROSE	11	10	[0, 0, 0]	n/a	FR1	0	R1111M
1218.207	1.601	632277	WORD	n/a	wordpools/wordpool_EN.txt	LAMP	12	10	[0, 0, 0]	n/a	FR1	0	R1111M
1219.808	0.001	633077	DISTRACT_START	n/a	n/a	n/a	-999	10	[0, 0, 0]	n/a	FR1	0	R1111M
1219.809	0.016	633078	START	n/a	n/a	n/a	-999	10	[-999, -999, -999]	n/a	FR1	0	R1111M
1219.825	6.334	633086	PROB	6.334	n/a	n/a	-999	10	[9, 4, 7]	20	FR1	0	R1111M
1226.159	7.569	636252	PROB	7.569	n/a	n/a	-999	10	[8, 3, 2]	13	FR1	0	R1111M
1233.728	3.834	640037	PROB	3.834	n/a	n/a	-999	10	[1, 2, 4]	7	FR1	0	R1111M
1237.562	5.265	641954	PROB	5.265	n/a	n/a	-999	10	[6, 2, 2]	10	FR1	0	R1111M
1242.827	0.019	644586	STOP	n/a	n/a	n/a	-999	10	[-999, -999, -999]	n/a	FR1	0	R1111M
1242.846	1.218	644595	DISTRACT_END	n/a	n/a	n/a	-999	10	[0, 0, 0]	n/a	FR1	0	R1111M
1244.064	2.729	645204	REC_START	n/a	n/a	n/a	-999	10	[0, 0, 0]	n/a	FR1	0	R1111M
1246.793	0.848	646569	REC_WORD	0.848	n/a	SEAL	-999	10	[0, 0, 0]	n/a	FR1	0	R1111M
1247.641	2.448	646993	REC_WORD	2.448	n/a	BAND	-999	10	[0, 0, 0]	n/a	FR1	0	R1111M
1250.089	4.99	648217	REC_WORD	4.99	n/a	WORLD	-999	10	[0, 0, 0]	n/a	FR1	0	R1111M
1255.079	1.124	650712	REC_WORD	1.124	n/a	FRUIT	-999	10	[0, 0, 0]	n/a	FR1	0	R1111M
1256.203	8.446	651274	REC_WORD	8.446	n/a	SWORD	-999	10	[0, 0, 0]	n/a	FR1	0	R1111M
1264.649	9.424	655496	REC_WORD	9.424	n/a	CUP	-999	10	[0, 0, 0]	n/a	FR1	0	R1111M
1274.073	7.914	660208	REC_END	n/a	n/a	n/a	-999	10	[0, 0, 0]	n/a	FR1	0	R1111M
1281.987	0.0	664165	TRIAL	n/a	n/a	n/a	-999	11	[0, 0, 0]	n/a	FR1	0	R1111M
1281.987	10.428	664165	COUNTDOWN_START	n/a	n/a	n/a	-999	11	[0, 0, 0]	n/a	FR1	0	R1111M
1292.415	0.007	669379	COUNTDOWN_END	n/a	n/a	n/a	-999	11	[0, 0, 0]	n/a	FR1	0	R1111M
1292.422	2.468	669382	ORIENT	n/a	n/a	n/a	-999	11	[0, 0, 0]	n/a	FR1	0	R1111M
1294.89	2.382	670616	WORD	n/a	wordpools/wordpool_EN.txt	TRASH	1	11	[0, 0, 0]	n/a	FR1	0	R1111M
1297.272	2.519	671807	WORD	n/a	wordpools/wordpool_EN.txt	CAT	2	11	[0, 0, 0]	n/a	FR1	0	R1111M
1299.791	2.55	673066	WORD	n/a	wordpools/wordpool_EN.txt	ZOO	3	11	[0, 0, 0]	n/a	FR1	0	R1111M
1302.341	2.584	674341	WORD	n/a	wordpools/wordpool_EN.txt	FLUTE	4	11	[0, 0, 0]	n/a	FR1	0	R1111M
1304.925	2.417	675633	WORD	n/a	wordpools/wordpool_EN.txt	STAR	5	11	[0, 0, 0]	n/a	FR1	0	R1111M
1307.342	2.401	676842	WORD	n/a	wordpools/wordpool_EN.txt	MAZE	6	11	[0, 0, 0]	n/a	FR1	0	R1111M
1309.743	2.4	678042	WORD	n/a	wordpools/wordpool_EN.txt	SUN	7	11	[0, 0, 0]	n/a	FR1	0	R1111M
1312.143	2.467	679242	WORD	n/a	wordpools/wordpool_EN.txt	DESK	8	11	[0, 0, 0]	n/a	FR1	0	R1111M
1314.61	2.501	680475	WORD	n/a	wordpools/wordpool_EN.txt	BAT	9	11	[0, 0, 0]	n/a	FR1	0	R1111M
1317.111	2.617	681726	WORD	n/a	wordpools/wordpool_EN.txt	MOTH	10	11	[0, 0, 0]	n/a	FR1	0	R1111M
1319.728	2.499	683034	WORD	n/a	wordpools/wordpool_EN.txt	BEE	11	11	[0, 0, 0]	n/a	FR1	0	R1111M
1322.227	1.602	684284	WORD	n/a	wordpools/wordpool_EN.txt	BIRD	12	11	[0, 0, 0]	n/a	FR1	0	R1111M
1323.829	0.0	685085	DISTRACT_START	n/a	n/a	n/a	-999	11	[0, 0, 0]	n/a	FR1	0	R1111M
1323.829	0.016	685085	START	n/a	n/a	n/a	-999	11	[-999, -999, -999]	n/a	FR1	0	R1111M
1323.845	7.568	685093	PROB	7.568	n/a	n/a	-999	11	[4, 8, 3]	15	FR1	0	R1111M
1331.413	4.585	688876	PROB	4.585	n/a	n/a	-999	11	[2, 5, 5]	12	FR1	0	R1111M
1335.998	10.949	691169	PROB	10.949	n/a	n/a	-999	11	[5, 3, 9]	17	FR1	0	R1111M
1346.947	0.003	696643	STOP	n/a	n/a	n/a	-999	11	[-999, -999, -999]	n/a	FR1	0	R1111M
1346.95	1.233	696645	DISTRACT_END	n/a	n/a	n/a	-999	11	[0, 0, 0]	n/a	FR1	0	R1111M
1348.183	3.797	697261	REC_START	n/a	n/a	n/a	-999	11	[0, 0, 0]	n/a	FR1	0	R1111M
1351.98	0.691	699159	REC_WORD	0.691	n/a	TRASH	-999	11	[0, 0, 0]	n/a	FR1	0	R1111M
1352.671	0.878	699505	REC_WORD	0.878	n/a	CAT	-999	11	[0, 0, 0]	n/a	FR1	0	R1111M
1353.549	24.643	699944	REC_WORD	24.643	n/a	ZOO	-999	11	[0, 0, 0]	n/a	FR1	0	R1111M
1378.192	10.466	712265	REC_END	n/a	n/a	n/a	-999	11	[0, 0, 0]	n/a	FR1	0	R1111M
1388.658	0.0	717497	TRIAL	n/a	n/a	n/a	-999	12	[0, 0, 0]	n/a	FR1	0	R1111M
1388.658	10.428	717497	COUNTDOWN_START	n/a	n/a	n/a	-999	12	[0, 0, 0]	n/a	FR1	0	R1111M
1399.086	0.007	722711	COUNTDOWN_END	n/a	n/a	n/a	-999	12	[0, 0, 0]	n/a	FR1	0	R1111M
1399.093	2.601	722715	ORIENT	n/a	n/a	n/a	-999	12	[0, 0, 0]	n/a	FR1	0	R1111M
1401.694	2.417	724015	WORD	n/a	wordpools/wordpool_EN.txt	FORT	1	12	[0, 0, 0]	n/a	FR1	0	R1111M
1404.111	2.467	725223	WORD	n/a	wordpools/wordpool_EN.txt	MOON	2	12	[0, 0, 0]	n/a	FR1	0	R1111M
1406.578	2.434	726457	WORD	n/a	wordpools/wordpool_EN.txt	FILM	3	12	[0, 0, 0]	n/a	FR1	0	R1111M
1409.012	2.617	727674	WORD	n/a	wordpools/wordpool_EN.txt	INK	4	12	[0, 0, 0]	n/a	FR1	0	R1111M
1411.629	2.516	728982	WORD	n/a	wordpools/wordpool_EN.txt	POLE	5	12	[0, 0, 0]	n/a	FR1	0	R1111M
1414.145	2.618	730240	WORD	n/a	wordpools/wordpool_EN.txt	JUDGE	6	12	[0, 0, 0]	n/a	FR1	0	R1111M
1416.763	2.5	731549	WORD	n/a	wordpools/wordpool_EN.txt	CASH	7	12	[0, 0, 0]	n/a	FR1	0	R1111M
1419.263	2.535	732799	WORD	n/a	wordpools/wordpool_EN.txt	SHEET	8	12	[0, 0, 0]	n/a	FR1	0	R1111M
1421.798	2.449	734066	WORD	n/a	wordpools/wordpool_EN.txt	MAIL	9	12	[0, 0, 0]	n/a	FR1	0	R1111M
1424.247	2.402	735291	WORD	n/a	wordpools/wordpool_EN.txt	NET	10	12	[0, 0, 0]	n/a	FR1	0	R1111M
1426.649	2.483	736492	WORD	n/a	wordpools/wordpool_EN.txt	TOAD	11	12	[0, 0, 0]	n/a	FR1	0	R1111M
1429.132	1.617	737733	WORD	n/a	wordpools/wordpool_EN.txt	PEA	12	12	[0, 0, 0]	n/a	FR1	0	R1111M
1430.749	0.001	738542	DISTRACT_START	n/a	n/a	n/a	-999	12	[0, 0, 0]	n/a	FR1	0	R1111M
1430.75	0.016	738542	START	n/a	n/a	n/a	-999	12	[-999, -999, -999]	n/a	FR1	0	R1111M
1430.766	6.635	738550	PROB	6.635	n/a	n/a	-999	12	[5, 1, 4]	10	FR1	0	R1111M
1437.401	6.984	741868	PROB	6.984	n/a	n/a	-999	12	[1, 8, 6]	15	FR1	0	R1111M
1444.385	9.05	745359	PROB	9.05	n/a	n/a	-999	12	[9, 7, 7]	23	FR1	0	R1111M
1453.435	0.019	749884	STOP	n/a	n/a	n/a	-999	12	[-999, -999, -999]	n/a	FR1	0	R1111M
1453.454	1.184	749894	DISTRACT_END	n/a	n/a	n/a	-999	12	[0, 0, 0]	n/a	FR1	0	R1111M
1454.638	2.221	750486	REC_START	n/a	n/a	n/a	-999	12	[0, 0, 0]	n/a	FR1	0	R1111M
1456.859	1.797	751596	REC_WORD	1.797	n/a	FORT	-999	12	[0, 0, 0]	n/a	FR1	0	R1111M
1458.656	1.221	752494	REC_WORD	1.221	n/a	MOON	-999	12	[0, 0, 0]	n/a	FR1	0	R1111M
1459.877	2.135	753105	REC_WORD	2.135	n/a	FILM	-999	12	[0, 0, 0]	n/a	FR1	0	R1111M
1462.012	1.19	754172	REC_WORD	1.19	n/a	POLE	-999	12	[0, 0, 0]	n/a	FR1	0	R1111M
1463.202	2.919	754767	REC_WORD	2.919	n/a	INK	-999	12	[0, 0, 0]	n/a	FR1	0	R1111M
1466.121	18.526	756227	REC_WORD	18.526	n/a	JUDGE	-999	12	[0, 0, 0]	n/a	FR1	0	R1111M
1484.647	16.816	765489	REC_END	n/a	n/a	n/a	-999	12	[0, 0, 0]	n/a	FR1	0	R1111M
1501.463	0.0	773897	TRIAL	n/a	n/a	n/a	-999	13	[0, 0, 0]	n/a	FR1	0	R1111M
1501.463	10.428	773897	COUNTDOWN_START	n/a	n/a	n/a	-999	13	[0, 0, 0]	n/a	FR1	0	R1111M
1511.891	0.007	779110	COUNTDOWN_END	n/a	n/a	n/a	-999	13	[0, 0, 0]	n/a	FR1	0	R1111M
1511.898	2.584	779114	ORIENT	n/a	n/a	n/a	-999	13	[0, 0, 0]	n/a	FR1	0	R1111M
1514.482	2.417	780406	WORD	n/a	wordpools/wordpool_EN.txt	BOARD	1	13	[0, 0, 0]	n/a	FR1	0	R1111M
1516.899	2.584	781614	WORD	n/a	wordpools/wordpool_EN.txt	ARM	2	13	[0, 0, 0]	n/a	FR1	0	R1111M
1519.483	2.584	782906	WORD	n/a	wordpools/wordpool_EN.txt	HOOK	3	13	[0, 0, 0]	n/a	FR1	0	R1111M
1522.067	2.517	784198	WORD	n/a	wordpools/wordpool_EN.txt	VEST	4	13	[0, 0, 0]	n/a	FR1	0	R1111M
1524.584	2.467	785457	WORD	n/a	wordpools/wordpool_EN.txt	SOCK	5	13	[0, 0, 0]	n/a	FR1	0	R1111M
1527.051	2.617	786690	WORD	n/a	wordpools/wordpool_EN.txt	TOAST	6	13	[0, 0, 0]	n/a	FR1	0	R1111M
1529.668	2.567	787998	WORD	n/a	wordpools/wordpool_EN.txt	MAT	7	13	[0, 0, 0]	n/a	FR1	0	R1111M
1532.235	2.534	789282	WORD	n/a	wordpools/wordpool_EN.txt	NAIL	8	13	[0, 0, 0]	n/a	FR1	0	R1111M
1534.769	2.433	790549	WORD	n/a	wordpools/wordpool_EN.txt	STOVE	9	13	[0, 0, 0]	n/a	FR1	0	R1111M
1537.202	2.385	791765	WORD	n/a	wordpools/wordpool_EN.txt	ROOM	10	13	[0, 0, 0]	n/a	FR1	0	R1111M
1539.587	2.45	792958	WORD	n/a	wordpools/wordpool_EN.txt	HOOF	11	13	[0, 0, 0]	n/a	FR1	0	R1111M
1542.037	1.618	794183	WORD	n/a	wordpools/wordpool_EN.txt	BRUSH	12	13	[0, 0, 0]	n/a	FR1	0	R1111M
1543.655	0.0	794992	DISTRACT_START	n/a	n/a	n/a	-999	13	[0, 0, 0]	n/a	FR1	0	R1111M
1543.655	0.016	794992	START	n/a	n/a	n/a	-999	13	[-999, -999, -999]	n/a	FR1	0	R1111M
1543.671	5.951	795000	PROB	5.951	n/a	n/a	-999	13	[8, 4, 4]	16	FR1	0	R1111M
1549.622	8.269	797975	PROB	8.269	n/a	n/a	-999	13	[8, 7, 3]	18	FR1	0	R1111M
1557.891	5.251	802109	PROB	5.251	n/a	n/a	-999	13	[8, 1, 1]	10	FR1	0	R1111M
1563.142	9.068	804734	PROB	9.068	n/a	n/a	-999	13	[8, 4, 8]	20	FR1	0	R1111M
1572.21	0.016	809268	STOP	n/a	n/a	n/a	-999	13	[-999, -999, -999]	n/a	FR1	0	R1111M
1572.226	1.067	809276	DISTRACT_END	n/a	n/a	n/a	-999	13	[0, 0, 0]	n/a	FR1	0	R1111M
1573.293	3.099	809810	REC_START	n/a	n/a	n/a	-999	13	[0, 0, 0]	n/a	FR1	0	R1111M
1576.392	1.8	811359	REC_WORD	1.8	n/a	SOCK	-999	13	[0, 0, 0]	n/a	FR1	0	R1111M
1578.192	1.578	812259	REC_WORD	1.578	n/a	BOARD	-999	13	[0, 0, 0]	n/a	FR1	0	R1111M
1579.77	2.031	813048	REC_WORD	2.031	n/a	ARM	-999	13	[0, 0, 0]	n/a	FR1	0	R1111M
1581.801	6.323	814063	REC_WORD	6.323	n/a	VEST	-999	13	[0, 0, 0]	n/a	FR1	0	R1111M
1588.124	3.132	817225	REC_WORD	3.132	n/a	HOOF	-999	13	[0, 0, 0]	n/a	FR1	0	R1111M
1591.256	12.05	818791	REC_WORD	12.05	n/a	MAT	-999	13	[0, 0, 0]	n/a	FR1	0	R1111M
1603.306	16.313	824815	REC_END	n/a	n/a	n/a	-999	13	[0, 0, 0]	n/a	FR1	0	R1111M
1619.619	0.0	832971	TRIAL	n/a	n/a	n/a	-999	14	[0, 0, 0]	n/a	FR1	0	R1111M
1619.619	10.428	832971	COUNTDOWN_START	n/a	n/a	n/a	-999	14	[0, 0, 0]	n/a	FR1	0	R1111M
1630.047	0.008	838185	COUNTDOWN_END	n/a	n/a	n/a	-999	14	[0, 0, 0]	n/a	FR1	0	R1111M
1630.055	2.433	838189	ORIENT	n/a	n/a	n/a	-999	14	[0, 0, 0]	n/a	FR1	0	R1111M
1632.488	2.417	839406	WORD	n/a	wordpools/wordpool_EN.txt	TRUCK	1	14	[0, 0, 0]	n/a	FR1	0	R1111M
1634.905	2.634	840614	WORD	n/a	wordpools/wordpool_EN.txt	TIE	2	14	[0, 0, 0]	n/a	FR1	0	R1111M
1637.539	2.501	841931	WORD	n/a	wordpools/wordpool_EN.txt	WEED	3	14	[0, 0, 0]	n/a	FR1	0	R1111M
1640.04	2.567	843181	WORD	n/a	wordpools/wordpool_EN.txt	HOUSE	4	14	[0, 0, 0]	n/a	FR1	0	R1111M
1642.607	2.566	844465	WORD	n/a	wordpools/wordpool_EN.txt	CHEEK	5	14	[0, 0, 0]	n/a	FR1	0	R1111M
1645.173	2.535	845748	WORD	n/a	wordpools/wordpool_EN.txt	CLOCK	6	14	[0, 0, 0]	n/a	FR1	0	R1111M
1647.708	2.434	847015	WORD	n/a	wordpools/wordpool_EN.txt	DOCK	7	14	[0, 0, 0]	n/a	FR1	0	R1111M
1650.142	2.5	848232	WORD	n/a	wordpools/wordpool_EN.txt	BENCH	8	14	[0, 0, 0]	n/a	FR1	0	R1111M
1652.642	2.55	849482	WORD	n/a	wordpools/wordpool_EN.txt	LAWN	9	14	[0, 0, 0]	n/a	FR1	0	R1111M
1655.192	2.418	850757	WORD	n/a	wordpools/wordpool_EN.txt	BOX	10	14	[0, 0, 0]	n/a	FR1	0	R1111M
1657.61	2.566	851966	WORD	n/a	wordpools/wordpool_EN.txt	ROAD	11	14	[0, 0, 0]	n/a	FR1	0	R1111M
1660.176	1.618	853249	WORD	n/a	wordpools/wordpool_EN.txt	PANTS	12	14	[0, 0, 0]	n/a	FR1	0	R1111M
1661.794	0.001	854058	DISTRACT_START	n/a	n/a	n/a	-999	14	[0, 0, 0]	n/a	FR1	0	R1111M
1661.795	0.016	854058	START	n/a	n/a	n/a	-999	14	[-999, -999, -999]	n/a	FR1	0	R1111M
1661.811	8.635	854066	PROB	8.635	n/a	n/a	-999	14	[8, 2, 6]	16	FR1	0	R1111M
1670.446	8.85	858383	PROB	8.85	n/a	n/a	-999	14	[9, 9, 1]	19	FR1	0	R1111M
1679.296	12.467	862808	PROB	12.467	n/a	n/a	-999	14	[8, 7, 5]	20	FR1	0	R1111M
1691.763	0.003	869041	STOP	n/a	n/a	n/a	-999	14	[-999, -999, -999]	n/a	FR1	0	R1111M
1691.766	1.051	869043	DISTRACT_END	n/a	n/a	n/a	-999	14	[0, 0, 0]	n/a	FR1	0	R1111M
1692.817	2.931	869568	REC_START	n/a	n/a	n/a	-999	14	[0, 0, 0]	n/a	FR1	0	R1111M
1695.748	1.11	871034	REC_WORD	1.11	n/a	TIE	-999	14	[0, 0, 0]	n/a	FR1	0	R1111M
1696.858	1.594	871589	REC_WORD	1.594	n/a	WEED	-999	14	[0, 0, 0]	n/a	FR1	0	R1111M
1698.452	2.218	872386	REC_WORD	2.218	n/a	TRUCK	-999	14	[0, 0, 0]	n/a	FR1	0	R1111M
1700.67	1.667	873495	REC_WORD	1.667	n/a	DOCK	-999	14	[0, 0, 0]	n/a	FR1	0	R1111M
1702.337	0.797	874328	REC_WORD	0.797	n/a	BENCH	-999	14	[0, 0, 0]	n/a	FR1	0	R1111M
1703.134	2.935	874727	REC_WORD	2.935	n/a	LAWN	-999	14	[0, 0, 0]	n/a	FR1	0	R1111M
1706.069	16.758	876194	REC_WORD	16.758	n/a	PANTS	-999	14	[0, 0, 0]	n/a	FR1	0	R1111M
1722.827	4.63	884573	REC_END	n/a	n/a	n/a	-999	14	[0, 0, 0]	n/a	FR1	0	R1111M
1727.457	0.0	886887	TRIAL	n/a	n/a	n/a	-999	15	[0, 0, 0]	n/a	FR1	0	R1111M
1727.457	10.428	886887	COUNTDOWN_START	n/a	n/a	n/a	-999	15	[0, 0, 0]	n/a	FR1	0	R1111M
1737.885	0.007	892101	COUNTDOWN_END	n/a	n/a	n/a	-999	15	[0, 0, 0]	n/a	FR1	0	R1111M
1737.892	2.467	892105	ORIENT	n/a	n/a	n/a	-999	15	[0, 0, 0]	n/a	FR1	0	R1111M
1740.359	2.434	893338	WORD	n/a	wordpools/wordpool_EN.txt	TRAY	1	15	[0, 0, 0]	n/a	FR1	0	R1111M
1742.793	2.5	894555	WORD	n/a	wordpools/wordpool_EN.txt	PET	2	15	[0, 0, 0]	n/a	FR1	0	R1111M
1745.293	2.551	895805	WORD	n/a	wordpools/wordpool_EN.txt	CAKE	3	15	[0, 0, 0]	n/a	FR1	0	R1111M
1747.844	2.584	897080	WORD	n/a	wordpools/wordpool_EN.txt	FUDGE	4	15	[0, 0, 0]	n/a	FR1	0	R1111M
1750.428	2.45	898372	WORD	n/a	wordpools/wordpool_EN.txt	TEETH	5	15	[0, 0, 0]	n/a	FR1	0	R1111M
1752.878	2.568	899597	WORD	n/a	wordpools/wordpool_EN.txt	GEESE	6	15	[0, 0, 0]	n/a	FR1	0	R1111M
1755.446	2.567	900881	WORD	n/a	wordpools/wordpool_EN.txt	JUICE	7	15	[0, 0, 0]	n/a	FR1	0	R1111M
1758.013	2.517	902165	WORD	n/a	wordpools/wordpool_EN.txt	MOUSE	8	15	[0, 0, 0]	n/a	FR1	0	R1111M
1760.53	2.517	903423	WORD	n/a	wordpools/wordpool_EN.txt	EGG	9	15	[0, 0, 0]	n/a	FR1	0	R1111M
1763.047	2.451	904681	WORD	n/a	wordpools/wordpool_EN.txt	FOOD	10	15	[0, 0, 0]	n/a	FR1	0	R1111M
1765.498	2.45	905907	WORD	n/a	wordpools/wordpool_EN.txt	ANT	11	15	[0, 0, 0]	n/a	FR1	0	R1111M
1767.948	1.617	907132	WORD	n/a	wordpools/wordpool_EN.txt	DUCK	12	15	[0, 0, 0]	n/a	FR1	0	R1111M
1769.565	0.0	907940	DISTRACT_START	n/a	n/a	n/a	-999	15	[0, 0, 0]	n/a	FR1	0	R1111M
1769.565	0.017	907940	START	n/a	n/a	n/a	-999	15	[-999, -999, -999]	n/a	FR1	0	R1111M
1769.582	5.051	907949	PROB	5.051	n/a	n/a	-999	15	[8, 1, 1]	10	FR1	0	R1111M
1774.633	7.617	910474	PROB	7.617	n/a	n/a	-999	15	[7, 5, 2]	14	FR1	0	R1111M
1782.25	5.102	914282	PROB	5.102	n/a	n/a	-999	15	[4, 2, 6]	12	FR1	0	R1111M
1787.352	6.906	916833	PROB	6.906	n/a	n/a	-999	15	[2, 4, 6]	12	FR1	0	R1111M
1794.258	0.011	920286	STOP	n/a	n/a	n/a	-999	15	[-999, -999, -999]	n/a	FR1	0	R1111M
1794.269	1.135	920292	DISTRACT_END	n/a	n/a	n/a	-999	15	[0, 0, 0]	n/a	FR1	0	R1111M
1795.404	2.906	920859	REC_START	n/a	n/a	n/a	-999	15	[0, 0, 0]	n/a	FR1	0	R1111M
1798.31	0.533	922312	REC_WORD	0.533	n/a	TEETH	-999	15	[0, 0, 0]	n/a	FR1	0	R1111M
1798.843	2.655	922578	REC_WORD	2.655	n/a	GEESE	-999	15	[0, 0, 0]	n/a	FR1	0	R1111M
1801.498	2.759	923906	REC_WORD	2.759	n/a	FOOD	-999	15	[0, 0, 0]	n/a	FR1	0	R1111M
1804.257	1.663	925285	REC_WORD	1.663	n/a	PET	-999	15	[0, 0, 0]	n/a	FR1	0	R1111M
1805.92	0.68	926117	REC_WORD	0.68	n/a	CAKE	-999	15	[0, 0, 0]	n/a	FR1	0	R1111M
1806.6	18.813	926457	REC_WORD	18.813	n/a	FUDGE	-999	15	[0, 0, 0]	n/a	FR1	0	R1111M
1825.413	19.116	935863	REC_END	n/a	n/a	n/a	-999	15	[0, 0, 0]	n/a	FR1	0	R1111M
1844.529	0.001	945420	COUNTDOWN_START	n/a	n/a	n/a	-999	16	[0, 0, 0]	n/a	FR1	0	R1111M
1844.53	10.427	945421	TRIAL	n/a	n/a	n/a	-999	16	[0, 0, 0]	n/a	FR1	0	R1111M
1854.957	0.008	950634	COUNTDOWN_END	n/a	n/a	n/a	-999	16	[0, 0, 0]	n/a	FR1	0	R1111M
1854.965	2.534	950638	ORIENT	n/a	n/a	n/a	-999	16	[0, 0, 0]	n/a	FR1	0	R1111M
1857.499	2.6	951905	WORD	n/a	wordpools/wordpool_EN.txt	YARD	1	16	[0, 0, 0]	n/a	FR1	0	R1111M
1860.099	2.401	953205	WORD	n/a	wordpools/wordpool_EN.txt	HORN	2	16	[0, 0, 0]	n/a	FR1	0	R1111M
1862.5	2.4	954405	WORD	n/a	wordpools/wordpool_EN.txt	MOOSE	3	16	[0, 0, 0]	n/a	FR1	0	R1111M
1864.9	2.6	955605	WORD	n/a	wordpools/wordpool_EN.txt	GUARD	4	16	[0, 0, 0]	n/a	FR1	0	R1111M
1867.5	2.501	956905	WORD	n/a	wordpools/wordpool_EN.txt	SPOON	5	16	[0, 0, 0]	n/a	FR1	0	R1111M
1870.001	2.584	958155	WORD	n/a	wordpools/wordpool_EN.txt	PALM	6	16	[0, 0, 0]	n/a	FR1	0	R1111M
1872.585	2.599	959447	WORD	n/a	wordpools/wordpool_EN.txt	GOAT	7	16	[0, 0, 0]	n/a	FR1	0	R1111M
1875.184	2.419	960747	WORD	n/a	wordpools/wordpool_EN.txt	SINK	8	16	[0, 0, 0]	n/a	FR1	0	R1111M
1877.603	2.483	961956	WORD	n/a	wordpools/wordpool_EN.txt	HAT	9	16	[0, 0, 0]	n/a	FR1	0	R1111M
1880.086	2.568	963198	WORD	n/a	wordpools/wordpool_EN.txt	SMILE	10	16	[0, 0, 0]	n/a	FR1	0	R1111M
1882.654	2.45	964482	WORD	n/a	wordpools/wordpool_EN.txt	HOLE	11	16	[0, 0, 0]	n/a	FR1	0	R1111M
1885.104	1.617	965706	WORD	n/a	wordpools/wordpool_EN.txt	LIP	12	16	[0, 0, 0]	n/a	FR1	0	R1111M
1886.721	0.001	966515	DISTRACT_START	n/a	n/a	n/a	-999	16	[0, 0, 0]	n/a	FR1	0	R1111M
1886.722	0.016	966515	START	n/a	n/a	n/a	-999	16	[-999, -999, -999]	n/a	FR1	0	R1111M
1886.738	8.5	966523	PROB	8.5	n/a	n/a	-999	16	[3, 4, 7]	14	FR1	0	R1111M
1895.238	5.452	970773	PROB	5.452	n/a	n/a	-999	16	[5, 6, 1]	12	FR1	0	R1111M
1900.69	4.268	973499	PROB	4.268	n/a	n/a	-999	16	[2, 2, 2]	6	FR1	0	R1111M
1904.958	5.461	975633	PROB	5.461	n/a	n/a	-999	16	[7, 2, 1]	10	FR1	0	R1111M
1910.419	0.007	978363	STOP	n/a	n/a	n/a	-999	16	[-999, -999, -999]	n/a	FR1	0	R1111M
1910.426	1.184	978367	DISTRACT_END	n/a	n/a	n/a	-999	16	[0, 0, 0]	n/a	FR1	0	R1111M
1911.61	4.5	978959	REC_START	n/a	n/a	n/a	-999	16	[0, 0, 0]	n/a	FR1	0	R1111M
1916.11	0.613	981209	REC_WORD	0.613	n/a	MOOSE	-999	16	[0, 0, 0]	n/a	FR1	0	R1111M
1916.723	1.574	981515	REC_WORD	1.574	n/a	GUARD	-999	16	[0, 0, 0]	n/a	FR1	0	R1111M
1918.297	0.661	982302	REC_WORD	0.661	n/a	PALM	-999	16	[0, 0, 0]	n/a	FR1	0	R1111M
1918.958	6.885	982633	REC_WORD	6.885	n/a	SPOON	-999	16	[0, 0, 0]	n/a	FR1	0	R1111M
1925.843	0.871	986075	REC_WORD	0.871	n/a	HAT	-999	16	[0, 0, 0]	n/a	FR1	0	R1111M
1926.714	14.905	986510	REC_WORD	14.905	n/a	SMILE	-999	16	[0, 0, 0]	n/a	FR1	0	R1111M
1941.619	3.546	993962	REC_END	n/a	n/a	n/a	-999	16	[0, 0, 0]	n/a	FR1	0	R1111M
1945.165	0.0	995735	TRIAL	n/a	n/a	n/a	-999	17	[0, 0, 0]	n/a	FR1	0	R1111M
1945.165	10.428	995735	COUNTDOWN_START	n/a	n/a	n/a	-999	17	[0, 0, 0]	n/a	FR1	0	R1111M
1955.593	0.008	1000949	COUNTDOWN_END	n/a	n/a	n/a	-999	17	[0, 0, 0]	n/a	FR1	0	R1111M
1955.601	2.434	1000953	ORIENT	n/a	n/a	n/a	-999	17	[0, 0, 0]	n/a	FR1	0	R1111M
1958.035	2.434	1002170	WORD	n/a	wordpools/wordpool_EN.txt	CAVE	1	17	[0, 0, 0]	n/a	FR1	0	R1111M
1960.469	2.6	1003387	WORD	n/a	wordpools/wordpool_EN.txt	STEAM	2	17	[0, 0, 0]	n/a	FR1	0	R1111M
1963.069	2.617	1004687	WORD	n/a	wordpools/wordpool_EN.txt	CAPE	3	17	[0, 0, 0]	n/a	FR1	0	R1111M
1965.686	2.434	1005995	WORD	n/a	wordpools/wordpool_EN.txt	SALT	4	17	[0, 0, 0]	n/a	FR1	0	R1111M
1968.12	2.401	1007212	WORD	n/a	wordpools/wordpool_EN.txt	BOMB	5	17	[0, 0, 0]	n/a	FR1	0	R1111M
1970.521	2.5	1008413	WORD	n/a	wordpools/wordpool_EN.txt	MOUTH	6	17	[0, 0, 0]	n/a	FR1	0	R1111M
1973.021	2.384	1009663	WORD	n/a	wordpools/wordpool_EN.txt	CLAY	7	17	[0, 0, 0]	n/a	FR1	0	R1111M
1975.405	2.5	1010854	WORD	n/a	wordpools/wordpool_EN.txt	PLANE	8	17	[0, 0, 0]	n/a	FR1	0	R1111M
1977.905	2.601	1012104	WORD	n/a	wordpools/wordpool_EN.txt	ICE	9	17	[0, 0, 0]	n/a	FR1	0	R1111M
1980.506	2.484	1013405	WORD	n/a	wordpools/wordpool_EN.txt	CORD	10	17	[0, 0, 0]	n/a	FR1	0	R1111M
1982.99	2.467	1014647	WORD	n/a	wordpools/wordpool_EN.txt	CUBE	11	17	[0, 0, 0]	n/a	FR1	0	R1111M
1985.457	1.617	1015880	WORD	n/a	wordpools/wordpool_EN.txt	SMOKE	12	17	[0, 0, 0]	n/a	FR1	0	R1111M
1987.074	0.001	1016689	DISTRACT_START	n/a	n/a	n/a	-999	17	[0, 0, 0]	n/a	FR1	0	R1111M
1987.075	0.015	1016689	START	n/a	n/a	n/a	-999	17	[-999, -999, -999]	n/a	FR1	0	R1111M
1987.09	7.402	1016697	PROB	7.402	n/a	n/a	-999	17	[6, 4, 7]	17	FR1	0	R1111M
1994.492	6.134	1020397	PROB	6.134	n/a	n/a	-999	17	[3, 5, 2]	10	FR1	0	R1111M
2000.626	13.849	1023464	PROB	13.849	n/a	n/a	-999	17	[6, 2, 9]	17	FR1	0	R1111M
2014.475	0.004	1030388	STOP	n/a	n/a	n/a	-999	17	[-999, -999, -999]	n/a	FR1	0	R1111M
2014.479	1.134	1030390	DISTRACT_END	n/a	n/a	n/a	-999	17	[0, 0, 0]	n/a	FR1	0	R1111M
2015.613	6.033	1030957	REC_START	n/a	n/a	n/a	-999	17	[0, 0, 0]	n/a	FR1	0	R1111M
2021.646	15.336	1033974	REC_WORD	15.336	n/a	CORD	-999	17	[0, 0, 0]	n/a	FR1	0	R1111M
2036.982	8.644	1041641	REC_WORD	8.644	n/a	CLAY	-999	17	[0, 0, 0]	n/a	FR1	0	R1111M
2045.626	52.535	1045963	REC_END	n/a	n/a	n/a	-999	17	[0, 0, 0]	n/a	FR1	0	R1111M
2098.161	0.0	1072229	TRIAL	n/a	n/a	n/a	-999	18	[0, 0, 0]	n/a	FR1	0	R1111M
2098.161	10.428	1072229	COUNTDOWN_START	n/a	n/a	n/a	-999	18	[0, 0, 0]	n/a	FR1	0	R1111M
2108.589	0.008	1077443	COUNTDOWN_END	n/a	n/a	n/a	-999	18	[0, 0, 0]	n/a	FR1	0	R1111M
2108.597	2.434	1077447	ORIENT	n/a	n/a	n/a	-999	18	[0, 0, 0]	n/a	FR1	0	R1111M
2111.031	2.451	1078664	WORD	n/a	wordpools/wordpool_EN.txt	BARN	1	18	[0, 0, 0]	n/a	FR1	0	R1111M
2113.482	2.45	1079889	WORD	n/a	wordpools/wordpool_EN.txt	LAKE	2	18	[0, 0, 0]	n/a	FR1	0	R1111M
2115.932	2.534	1081114	WORD	n/a	wordpools/wordpool_EN.txt	CRANE	3	18	[0, 0, 0]	n/a	FR1	0	R1111M
2118.466	2.534	1082381	WORD	n/a	wordpools/wordpool_EN.txt	CANE	4	18	[0, 0, 0]	n/a	FR1	0	R1111M
2121.0	2.617	1083648	WORD	n/a	wordpools/wordpool_EN.txt	HEN	5	18	[0, 0, 0]	n/a	FR1	0	R1111M
2123.617	2.566	1084956	WORD	n/a	wordpools/wordpool_EN.txt	GRASS	6	18	[0, 0, 0]	n/a	FR1	0	R1111M
2126.183	2.502	1086239	WORD	n/a	wordpools/wordpool_EN.txt	JEEP	7	18	[0, 0, 0]	n/a	FR1	0	R1111M
2128.685	2.4	1087490	WORD	n/a	wordpools/wordpool_EN.txt	CORN	8	18	[0, 0, 0]	n/a	FR1	0	R1111M
2131.085	2.517	1088690	WORD	n/a	wordpools/wordpool_EN.txt	HILL	9	18	[0, 0, 0]	n/a	FR1	0	R1111M
2133.602	2.616	1089949	WORD	n/a	wordpools/wordpool_EN.txt	SLEEVE	10	18	[0, 0, 0]	n/a	FR1	0	R1111M
2136.218	2.569	1091256	WORD	n/a	wordpools/wordpool_EN.txt	OAR	11	18	[0, 0, 0]	n/a	FR1	0	R1111M
2138.787	1.617	1092541	WORD	n/a	wordpools/wordpool_EN.txt	TENT	12	18	[0, 0, 0]	n/a	FR1	0	R1111M
2140.404	0.0	1093349	DISTRACT_START	n/a	n/a	n/a	-999	18	[0, 0, 0]	n/a	FR1	0	R1111M
2140.404	0.016	1093349	START	n/a	n/a	n/a	-999	18	[-999, -999, -999]	n/a	FR1	0	R1111M
2140.42	8.068	1093357	PROB	8.068	n/a	n/a	-999	18	[2, 5, 1]	8	FR1	0	R1111M
2148.488	13.259	1097391	PROB	13.259	n/a	n/a	-999	18	[4, 9, 8]	21	FR1	0	R1111M
2161.747	0.011	1104020	STOP	n/a	n/a	n/a	-999	18	[-999, -999, -999]	n/a	FR1	0	R1111M
2161.758	1.1	1104026	DISTRACT_END	n/a	n/a	n/a	-999	18	[0, 0, 0]	n/a	FR1	0	R1111M
2162.858	6.83	1104576	REC_START	n/a	n/a	n/a	-999	18	[0, 0, 0]	n/a	FR1	0	R1111M
2169.688	0.714	1107991	REC_WORD	0.714	n/a	BARN	-999	18	[0, 0, 0]	n/a	FR1	0	R1111M
2170.402	0.574	1108348	REC_WORD	0.574	n/a	LAKE	-999	18	[0, 0, 0]	n/a	FR1	0	R1111M
2170.976	0.805	1108634	REC_WORD	0.805	n/a	CRANE	-999	18	[0, 0, 0]	n/a	FR1	0	R1111M
2171.781	6.494	1109037	REC_WORD	6.494	n/a	CANE	-999	18	[0, 0, 0]	n/a	FR1	0	R1111M
2178.275	4.122	1112284	REC_WORD	4.122	n/a	CORN	-999	18	[0, 0, 0]	n/a	FR1	0	R1111M
2182.397	10.472	1114345	REC_WORD	10.472	n/a	JEEP	-999	18	[0, 0, 0]	n/a	FR1	0	R1111M
2192.869	3.328	1119580	REC_END	n/a	n/a	n/a	-999	18	[0, 0, 0]	n/a	FR1	0	R1111M
2196.197	0.0	1121244	TRIAL	n/a	n/a	n/a	-999	19	[0, 0, 0]	n/a	FR1	0	R1111M
2196.197	10.428	1121244	COUNTDOWN_START	n/a	n/a	n/a	-999	19	[0, 0, 0]	n/a	FR1	0	R1111M
2206.625	0.008	1126458	COUNTDOWN_END	n/a	n/a	n/a	-999	19	[0, 0, 0]	n/a	FR1	0	R1111M
2206.633	2.484	1126462	ORIENT	n/a	n/a	n/a	-999	19	[0, 0, 0]	n/a	FR1	0	R1111M
2209.117	2.417	1127704	WORD	n/a	wordpools/wordpool_EN.txt	SIGN	1	19	[0, 0, 0]	n/a	FR1	0	R1111M
2211.534	2.55	1128912	WORD	n/a	wordpools/wordpool_EN.txt	SKI	2	19	[0, 0, 0]	n/a	FR1	0	R1111M
2214.084	2.384	1130187	WORD	n/a	wordpools/wordpool_EN.txt	FLEA	3	19	[0, 0, 0]	n/a	FR1	0	R1111M
2216.468	2.434	1131379	WORD	n/a	wordpools/wordpool_EN.txt	PIN	4	19	[0, 0, 0]	n/a	FR1	0	R1111M
2218.902	2.4	1132596	WORD	n/a	wordpools/wordpool_EN.txt	ROPE	5	19	[0, 0, 0]	n/a	FR1	0	R1111M
2221.302	2.484	1133796	WORD	n/a	wordpools/wordpool_EN.txt	SHOE	6	19	[0, 0, 0]	n/a	FR1	0	R1111M
2223.786	2.383	1135038	WORD	n/a	wordpools/wordpool_EN.txt	RIB	7	19	[0, 0, 0]	n/a	FR1	0	R1111M
2226.169	2.535	1136229	WORD	n/a	wordpools/wordpool_EN.txt	MUD	8	19	[0, 0, 0]	n/a	FR1	0	R1111M
2228.704	2.483	1137497	WORD	n/a	wordpools/wordpool_EN.txt	BATH	9	19	[0, 0, 0]	n/a	FR1	0	R1111M
2231.187	2.535	1138738	WORD	n/a	wordpools/wordpool_EN.txt	FOOT	10	19	[0, 0, 0]	n/a	FR1	0	R1111M
2233.722	2.417	1140006	WORD	n/a	wordpools/wordpool_EN.txt	HAWK	11	19	[0, 0, 0]	n/a	FR1	0	R1111M
2236.139	1.617	1141214	WORD	n/a	wordpools/wordpool_EN.txt	CHIN	12	19	[0, 0, 0]	n/a	FR1	0	R1111M
2237.756	0.0	1142023	DISTRACT_START	n/a	n/a	n/a	-999	19	[0, 0, 0]	n/a	FR1	0	R1111M
2237.756	0.016	1142023	START	n/a	n/a	n/a	-999	19	[-999, -999, -999]	n/a	FR1	0	R1111M
2237.772	4.368	1142031	PROB	4.368	n/a	n/a	-999	19	[2, 2, 6]	10	FR1	0	R1111M
2242.14	6.05	1144215	PROB	6.05	n/a	n/a	-999	19	[4, 2, 4]	10	FR1	0	R1111M
2248.19	3.818	1147239	PROB	3.818	n/a	n/a	-999	19	[6, 1, 7]	14	FR1	0	R1111M
2252.008	5.552	1149148	PROB	5.552	n/a	n/a	-999	19	[4, 4, 9]	17	FR1	0	R1111M
2257.56	5.259	1151924	PROB	5.259	n/a	n/a	-999	19	[1, 7, 2]	10	FR1	0	R1111M
2262.819	0.008	1154553	STOP	n/a	n/a	n/a	-999	19	[-999, -999, -999]	n/a	FR1	0	R1111M
2262.827	1.101	1154557	DISTRACT_END	n/a	n/a	n/a	-999	19	[0, 0, 0]	n/a	FR1	0	R1111M
2263.928	3.507	1155108	REC_START	n/a	n/a	n/a	-999	19	[0, 0, 0]	n/a	FR1	0	R1111M
2267.435	5.84	1156861	REC_WORD	5.84	n/a	MUD	-999	19	[0, 0, 0]	n/a	FR1	0	R1111M
2273.275	20.662	1159781	REC_WORD	20.662	n/a	SHOE	-999	19	[0, 0, 0]	n/a	FR1	0	R1111M
2293.937	32.335	1170112	REC_END	n/a	n/a	n/a	-999	19	[0, 0, 0]	n/a	FR1	0	R1111M
2326.272	0.0	1186278	TRIAL	n/a	n/a	n/a	-999	20	[0, 0, 0]	n/a	FR1	0	R1111M
2326.272	10.428	1186278	COUNTDOWN_START	n/a	n/a	n/a	-999	20	[0, 0, 0]	n/a	FR1	0	R1111M
2336.7	0.008	1191492	COUNTDOWN_END	n/a	n/a	n/a	-999	20	[0, 0, 0]	n/a	FR1	0	R1111M
2336.708	2.583	1191496	ORIENT	n/a	n/a	n/a	-999	20	[0, 0, 0]	n/a	FR1	0	R1111M
2339.291	2.451	1192787	WORD	n/a	wordpools/wordpool_EN.txt	SQUARE	1	20	[0, 0, 0]	n/a	FR1	0	R1111M
2341.742	2.417	1194013	WORD	n/a	wordpools/wordpool_EN.txt	BEAN	2	20	[0, 0, 0]	n/a	FR1	0	R1111M
2344.159	2.434	1195221	WORD	n/a	wordpools/wordpool_EN.txt	SOUP	3	20	[0, 0, 0]	n/a	FR1	0	R1111M
2346.593	2.384	1196438	WORD	n/a	wordpools/wordpool_EN.txt	GLASS	4	20	[0, 0, 0]	n/a	FR1	0	R1111M
2348.977	2.568	1197630	WORD	n/a	wordpools/wordpool_EN.txt	RUG	5	20	[0, 0, 0]	n/a	FR1	0	R1111M
2351.545	2.6	1198914	WORD	n/a	wordpools/wordpool_EN.txt	STREET	6	20	[0, 0, 0]	n/a	FR1	0	R1111M
2354.145	2.567	1200214	WORD	n/a	wordpools/wordpool_EN.txt	BOY	7	20	[0, 0, 0]	n/a	FR1	0	R1111M
2356.712	2.601	1201497	WORD	n/a	wordpools/wordpool_EN.txt	DITCH	8	20	[0, 0, 0]	n/a	FR1	0	R1111M
2359.313	2.617	1202798	WORD	n/a	wordpools/wordpool_EN.txt	STRING	9	20	[0, 0, 0]	n/a	FR1	0	R1111M
2361.93	2.584	1204106	WORD	n/a	wordpools/wordpool_EN.txt	TEA	10	20	[0, 0, 0]	n/a	FR1	0	R1111M
2364.514	2.517	1205398	WORD	n/a	wordpools/wordpool_EN.txt	DIME	11	20	[0, 0, 0]	n/a	FR1	0	R1111M
2367.031	1.617	1206657	WORD	n/a	wordpools/wordpool_EN.txt	KITE	12	20	[0, 0, 0]	n/a	FR1	0	R1111M
2368.648	0.001	1207465	DISTRACT_START	n/a	n/a	n/a	-999	20	[0, 0, 0]	n/a	FR1	0	R1111M
2368.649	0.015	1207465	START	n/a	n/a	n/a	-999	20	[-999, -999, -999]	n/a	FR1	0	R1111M
2368.664	8.952	1207473	PROB	8.952	n/a	n/a	-999	20	[2, 8, 9]	19	FR1	0	R1111M
2377.616	12.179	1211949	PROB	12.179	n/a	n/a	-999	20	[5, 3, 9]	17	FR1	0	R1111M
2389.795	0.007	1218038	STOP	n/a	n/a	n/a	-999	20	[-999, -999, -999]	n/a	FR1	0	R1111M
2389.802	1.167	1218041	DISTRACT_END	n/a	n/a	n/a	-999	20	[0, 0, 0]	n/a	FR1	0	R1111M
2390.969	2.272	1218625	REC_START	n/a	n/a	n/a	-999	20	[0, 0, 0]	n/a	FR1	0	R1111M
2393.241	0.83	1219761	REC_WORD	0.83	n/a	SQUARE	-999	20	[0, 0, 0]	n/a	FR1	0	R1111M
2394.071	0.543	1220176	REC_WORD	0.543	n/a	BEAN	-999	20	[0, 0, 0]	n/a	FR1	0	R1111M
2394.614	2.5	1220447	REC_WORD	2.5	n/a	SOUP	-999	20	[0, 0, 0]	n/a	FR1	0	R1111M
2397.114	1.253	1221697	REC_WORD	1.253	n/a	KITE	-999	20	[0, 0, 0]	n/a	FR1	0	R1111M
2398.367	22.614	1222324	REC_WORD	22.614	n/a	STRING	-999	20	[0, 0, 0]	n/a	FR1	0	R1111M
2420.981	8.729	1233630	REC_END	n/a	n/a	n/a	-999	20	[0, 0, 0]	n/a	FR1	0	R1111M
2429.71	0.0	1237994	COUNTDOWN_START	n/a	n/a	n/a	-999	21	[0, 0, 0]	n/a	FR1	0	R1111M
2429.71	10.428	1237994	TRIAL	n/a	n/a	n/a	-999	21	[0, 0, 0]	n/a	FR1	0	R1111M
2440.138	0.007	1243208	COUNTDOWN_END	n/a	n/a	n/a	-999	21	[0, 0, 0]	n/a	FR1	0	R1111M
2440.145	2.55	1243211	ORIENT	n/a	n/a	n/a	-999	21	[0, 0, 0]	n/a	FR1	0	R1111M
2442.695	2.6	1244486	WORD	n/a	wordpools/wordpool_EN.txt	GRAPE	1	21	[0, 0, 0]	n/a	FR1	0	R1111M
2445.295	2.601	1245786	WORD	n/a	wordpools/wordpool_EN.txt	STORE	2	21	[0, 0, 0]	n/a	FR1	0	R1111M
2447.896	2.518	1247087	WORD	n/a	wordpools/wordpool_EN.txt	PHONE	3	21	[0, 0, 0]	n/a	FR1	0	R1111M
2450.414	2.6	1248346	WORD	n/a	wordpools/wordpool_EN.txt	PEN	4	21	[0, 0, 0]	n/a	FR1	0	R1111M
2453.014	2.567	1249646	WORD	n/a	wordpools/wordpool_EN.txt	BADGE	5	21	[0, 0, 0]	n/a	FR1	0	R1111M
2455.581	2.501	1250929	WORD	n/a	wordpools/wordpool_EN.txt	MUG	6	21	[0, 0, 0]	n/a	FR1	0	R1111M
2458.082	2.617	1252179	WORD	n/a	wordpools/wordpool_EN.txt	FENCE	7	21	[0, 0, 0]	n/a	FR1	0	R1111M
2460.699	2.433	1253488	WORD	n/a	wordpools/wordpool_EN.txt	VAN	8	21	[0, 0, 0]	n/a	FR1	0	R1111M
2463.132	2.535	1254704	WORD	n/a	wordpools/wordpool_EN.txt	BOOK	9	21	[0, 0, 0]	n/a	FR1	0	R1111M
2465.667	2.599	1255972	WORD	n/a	wordpools/wordpool_EN.txt	DOG	10	21	[0, 0, 0]	n/a	FR1	0	R1111M
2468.266	2.568	1257271	WORD	n/a	wordpools/wordpool_EN.txt	JAIL	11	21	[0, 0, 0]	n/a	FR1	0	R1111M
2470.834	1.617	1258555	WORD	n/a	wordpools/wordpool_EN.txt	APE	12	21	[0, 0, 0]	n/a	FR1	0	R1111M
2472.451	0.001	1259364	DISTRACT_START	n/a	n/a	n/a	-999	21	[0, 0, 0]	n/a	FR1	0	R1111M
2472.452	0.016	1259364	START	n/a	n/a	n/a	-999	21	[-999, -999, -999]	n/a	FR1	0	R1111M
2472.468	6.7	1259372	PROB	6.7	n/a	n/a	-999	21	[4, 4, 8]	16	FR1	0	R1111M
2479.168	11.703	1262722	PROB	11.703	n/a	n/a	-999	21	[3, 9, 5]	17	FR1	0	R1111M
2490.871	5.556	1268573	PROB	5.556	n/a	n/a	-999	21	[1, 5, 8]	14	FR1	0	R1111M
2496.427	0.012	1271351	STOP	n/a	n/a	n/a	-999	21	[-999, -999, -999]	n/a	FR1	0	R1111M
2496.439	1.067	1271357	DISTRACT_END	n/a	n/a	n/a	-999	21	[0, 0, 0]	n/a	FR1	0	R1111M
2497.506	3.175	1271890	REC_START	n/a	n/a	n/a	-999	21	[0, 0, 0]	n/a	FR1	0	R1111M
2500.681	0.367	1273478	REC_WORD	0.367	n/a	GRAPE	-999	21	[0, 0, 0]	n/a	FR1	0	R1111M
2501.048	25.287	1273661	REC_WORD	25.287	n/a	STORE	-999	21	[0, 0, 0]	n/a	FR1	0	R1111M
2526.335	1.152	1286304	REC_WORD	1.152	n/a	PEN	-999	21	[0, 0, 0]	n/a	FR1	0	R1111M
2527.487	0.035	1286880	REC_WORD	0.035	n/a	BADGE	-999	21	[0, 0, 0]	n/a	FR1	0	R1111M
2527.522	7.125	1286898	REC_END	n/a	n/a	n/a	-999	21	[0, 0, 0]	n/a	FR1	0	R1111M
2534.647	0.0	1290460	TRIAL	n/a	n/a	n/a	-999	22	[0, 0, 0]	n/a	FR1	0	R1111M
2534.647	10.428	1290460	COUNTDOWN_START	n/a	n/a	n/a	-999	22	[0, 0, 0]	n/a	FR1	0	R1111M
2545.075	0.007	1295674	COUNTDOWN_END	n/a	n/a	n/a	-999	22	[0, 0, 0]	n/a	FR1	0	R1111M
2545.082	2.617	1295677	ORIENT	n/a	n/a	n/a	-999	22	[0, 0, 0]	n/a	FR1	0	R1111M
2547.699	2.434	1296985	WORD	n/a	wordpools/wordpool_EN.txt	WOOD	1	22	[0, 0, 0]	n/a	FR1	0	R1111M
2550.133	2.384	1298202	WORD	n/a	wordpools/wordpool_EN.txt	PASTE	2	22	[0, 0, 0]	n/a	FR1	0	R1111M
2552.517	2.517	1299394	WORD	n/a	wordpools/wordpool_EN.txt	FORK	3	22	[0, 0, 0]	n/a	FR1	0	R1111M
2555.034	2.4	1300653	WORD	n/a	wordpools/wordpool_EN.txt	PLATE	4	22	[0, 0, 0]	n/a	FR1	0	R1111M
2557.434	2.468	1301853	WORD	n/a	wordpools/wordpool_EN.txt	CHALK	5	22	[0, 0, 0]	n/a	FR1	0	R1111M
2559.902	2.6	1303087	WORD	n/a	wordpools/wordpool_EN.txt	STONE	6	22	[0, 0, 0]	n/a	FR1	0	R1111M
2562.502	2.517	1304387	WORD	n/a	wordpools/wordpool_EN.txt	CLOTH	7	22	[0, 0, 0]	n/a	FR1	0	R1111M
2565.019	2.467	1305645	WORD	n/a	wordpools/wordpool_EN.txt	BLUSH	8	22	[0, 0, 0]	n/a	FR1	0	R1111M
2567.486	2.617	1306878	WORD	n/a	wordpools/wordpool_EN.txt	GLOVE	9	22	[0, 0, 0]	n/a	FR1	0	R1111M
2570.103	2.484	1308187	WORD	n/a	wordpools/wordpool_EN.txt	TOOL	10	22	[0, 0, 0]	n/a	FR1	0	R1111M
2572.587	2.484	1309429	WORD	n/a	wordpools/wordpool_EN.txt	AXE	11	22	[0, 0, 0]	n/a	FR1	0	R1111M
2575.071	1.617	1310671	WORD	n/a	wordpools/wordpool_EN.txt	VASE	12	22	[0, 0, 0]	n/a	FR1	0	R1111M
2576.688	0.001	1311479	DISTRACT_START	n/a	n/a	n/a	-999	22	[0, 0, 0]	n/a	FR1	0	R1111M
2576.689	0.016	1311480	START	n/a	n/a	n/a	-999	22	[-999, -999, -999]	n/a	FR1	0	R1111M
2576.705	11.551	1311488	PROB	11.551	n/a	n/a	-999	22	[6, 9, 4]	17	FR1	0	R1111M
2588.256	6.702	1317263	PROB	6.702	n/a	n/a	-999	22	[5, 5, 7]	17	FR1	0	R1111M
2594.958	9.069	1320614	PROB	9.069	n/a	n/a	-999	22	[8, 5, 2]	15	FR1	0	R1111M
2604.027	0.016	1325148	STOP	n/a	n/a	n/a	-999	22	[-999, -999, -999]	n/a	FR1	0	R1111M
2604.043	1.101	1325156	DISTRACT_END	n/a	n/a	n/a	-999	22	[0, 0, 0]	n/a	FR1	0	R1111M
2605.144	3.758	1325706	REC_START	n/a	n/a	n/a	-999	22	[0, 0, 0]	n/a	FR1	0	R1111M
2608.902	2.657	1327585	REC_WORD	2.657	n/a	WOOD	-999	22	[0, 0, 0]	n/a	FR1	0	R1111M
2611.559	3.324	1328914	REC_WORD	3.324	n/a	PASTE	-999	22	[0, 0, 0]	n/a	FR1	0	R1111M
2614.883	20.276	1330576	REC_WORD	20.276	n/a	FORK	-999	22	[0, 0, 0]	n/a	FR1	0	R1111M
2635.159	7.392	1340713	REC_END	n/a	n/a	n/a	-999	22	[0, 0, 0]	n/a	FR1	0	R1111M
2642.551	0.0	1344409	TRIAL	n/a	n/a	n/a	-999	23	[0, 0, 0]	n/a	FR1	0	R1111M
2642.551	10.428	1344409	COUNTDOWN_START	n/a	n/a	n/a	-999	23	[0, 0, 0]	n/a	FR1	0	R1111M
2652.979	0.007	1349623	COUNTDOWN_END	n/a	n/a	n/a	-999	23	[0, 0, 0]	n/a	FR1	0	R1111M
2652.986	2.384	1349626	ORIENT	n/a	n/a	n/a	-999	23	[0, 0, 0]	n/a	FR1	0	R1111M
2655.37	2.634	1350818	WORD	n/a	wordpools/wordpool_EN.txt	TREE	1	23	[0, 0, 0]	n/a	FR1	0	R1111M
2658.004	2.55	1352135	WORD	n/a	wordpools/wordpool_EN.txt	VINE	2	23	[0, 0, 0]	n/a	FR1	0	R1111M
2660.554	2.6	1353410	WORD	n/a	wordpools/wordpool_EN.txt	MILK	3	23	[0, 0, 0]	n/a	FR1	0	R1111M
2663.154	2.535	1354710	WORD	n/a	wordpools/wordpool_EN.txt	WHEEL	4	23	[0, 0, 0]	n/a	FR1	0	R1111M
2665.689	2.383	1355977	WORD	n/a	wordpools/wordpool_EN.txt	STEM	5	23	[0, 0, 0]	n/a	FR1	0	R1111M
2668.072	2.584	1357169	WORD	n/a	wordpools/wordpool_EN.txt	CONE	6	23	[0, 0, 0]	n/a	FR1	0	R1111M
2670.656	2.5	1358461	WORD	n/a	wordpools/wordpool_EN.txt	ELF	7	23	[0, 0, 0]	n/a	FR1	0	R1111M
2673.156	2.501	1359710	WORD	n/a	wordpools/wordpool_EN.txt	SEED	8	23	[0, 0, 0]	n/a	FR1	0	R1111M
2675.657	2.384	1360961	WORD	n/a	wordpools/wordpool_EN.txt	THUMB	9	23	[0, 0, 0]	n/a	FR1	0	R1111M
2678.041	2.467	1362153	WORD	n/a	wordpools/wordpool_EN.txt	BOOT	10	23	[0, 0, 0]	n/a	FR1	0	R1111M
2680.508	2.584	1363386	WORD	n/a	wordpools/wordpool_EN.txt	WORM	11	23	[0, 0, 0]	n/a	FR1	0	R1111M
2683.092	1.617	1364678	WORD	n/a	wordpools/wordpool_EN.txt	COW	12	23	[0, 0, 0]	n/a	FR1	0	R1111M
2684.709	0.001	1365487	DISTRACT_START	n/a	n/a	n/a	-999	23	[0, 0, 0]	n/a	FR1	0	R1111M
2684.71	0.016	1365487	START	n/a	n/a	n/a	-999	23	[-999, -999, -999]	n/a	FR1	0	R1111M
2684.726	9.018	1365495	PROB	9.018	n/a	n/a	-999	23	[5, 6, 2]	13	FR1	0	R1111M
2693.744	5.584	1370004	PROB	5.584	n/a	n/a	-999	23	[3, 2, 1]	6	FR1	0	R1111M
2699.328	6.531	1372796	PROB	6.531	n/a	n/a	-999	23	[6, 6, 8]	20	FR1	0	R1111M
2705.859	0.004	1376061	STOP	n/a	n/a	n/a	-999	23	[-999, -999, -999]	n/a	FR1	0	R1111M
2705.863	1.217	1376063	DISTRACT_END	n/a	n/a	n/a	-999	23	[0, 0, 0]	n/a	FR1	0	R1111M
2707.08	5.503	1376672	REC_START	n/a	n/a	n/a	-999	23	[0, 0, 0]	n/a	FR1	0	R1111M
2712.583	0.842	1379423	REC_WORD	0.842	n/a	STEAM	-999	23	[0, 0, 0]	n/a	FR1	0	R1111M
2713.425	0.845	1379844	REC_WORD	0.845	n/a	WHEEL	-999	23	[0, 0, 0]	n/a	FR1	0	R1111M
2714.27	0.893	1380266	REC_WORD	0.893	n/a	CONE	-999	23	[0, 0, 0]	n/a	FR1	0	R1111M
2715.163	0.919	1380713	REC_WORD	0.919	n/a	STEM	-999	23	[0, 0, 0]	n/a	FR1	0	R1111M
2716.082	21.01	1381172	REC_WORD	21.01	n/a	TREE	-999	23	[0, 0, 0]	n/a	FR1	0	R1111M
2737.092	3.411	1391677	REC_END	n/a	n/a	n/a	-999	23	[0, 0, 0]	n/a	FR1	0	R1111M
2740.503	0.0	1393382	TRIAL	n/a	n/a	n/a	-999	24	[0, 0, 0]	n/a	FR1	0	R1111M
2740.503	10.428	1393382	COUNTDOWN_START	n/a	n/a	n/a	-999	24	[0, 0, 0]	n/a	FR1	0	R1111M
2750.931	0.007	1398596	COUNTDOWN_END	n/a	n/a	n/a	-999	24	[0, 0, 0]	n/a	FR1	0	R1111M
2750.938	2.468	1398599	ORIENT	n/a	n/a	n/a	-999	24	[0, 0, 0]	n/a	FR1	0	R1111M
2753.406	2.534	1399833	WORD	n/a	wordpools/wordpool_EN.txt	RICE	1	24	[0, 0, 0]	n/a	FR1	0	R1111M
2755.94	2.567	1401100	WORD	n/a	wordpools/wordpool_EN.txt	SOAP	2	24	[0, 0, 0]	n/a	FR1	0	R1111M
2758.507	2.6	1402384	WORD	n/a	wordpools/wordpool_EN.txt	SEA	3	24	[0, 0, 0]	n/a	FR1	0	R1111M
2761.107	2.484	1403683	WORD	n/a	wordpools/wordpool_EN.txt	PEACH	4	24	[0, 0, 0]	n/a	FR1	0	R1111M
2763.591	2.467	1404925	WORD	n/a	wordpools/wordpool_EN.txt	SKY	5	24	[0, 0, 0]	n/a	FR1	0	R1111M
2766.058	2.584	1406159	WORD	n/a	wordpools/wordpool_EN.txt	FARM	6	24	[0, 0, 0]	n/a	FR1	0	R1111M
2768.642	2.467	1407451	WORD	n/a	wordpools/wordpool_EN.txt	DART	7	24	[0, 0, 0]	n/a	FR1	0	R1111M
2771.109	2.417	1408684	WORD	n/a	wordpools/wordpool_EN.txt	SHEEP	8	24	[0, 0, 0]	n/a	FR1	0	R1111M
2773.526	2.584	1409893	WORD	n/a	wordpools/wordpool_EN.txt	LAND	9	24	[0, 0, 0]	n/a	FR1	0	R1111M
2776.11	2.501	1411185	WORD	n/a	wordpools/wordpool_EN.txt	SHIELD	10	24	[0, 0, 0]	n/a	FR1	0	R1111M
2778.611	2.5	1412435	WORD	n/a	wordpools/wordpool_EN.txt	CHIEF	11	24	[0, 0, 0]	n/a	FR1	0	R1111M
2781.111	1.617	1413685	WORD	n/a	wordpools/wordpool_EN.txt	SHIP	12	24	[0, 0, 0]	n/a	FR1	0	R1111M
2782.728	0.001	1414493	DISTRACT_START	n/a	n/a	n/a	-999	24	[0, 0, 0]	n/a	FR1	0	R1111M
2782.729	0.016	1414494	START	n/a	n/a	n/a	-999	24	[-999, -999, -999]	n/a	FR1	0	R1111M
2782.745	4.851	1414502	PROB	4.851	n/a	n/a	-999	24	[3, 2, 6]	9	FR1	0	R1111M
2787.596	6.234	1416927	PROB	6.234	n/a	n/a	-999	24	[1, 5, 4]	10	FR1	0	R1111M
2793.83	6.501	1420044	PROB	6.501	n/a	n/a	-999	24	[6, 3, 7]	16	FR1	0	R1111M
2800.331	7.76	1423294	PROB	7.76	n/a	n/a	-999	24	[4, 2, 7]	13	FR1	0	R1111M
2808.091	0.009	1427174	STOP	n/a	n/a	n/a	-999	24	[-999, -999, -999]	n/a	FR1	0	R1111M
2808.1	1.149	1427179	DISTRACT_END	n/a	n/a	n/a	-999	24	[0, 0, 0]	n/a	FR1	0	R1111M
2809.249	2.487	1427753	REC_START	n/a	n/a	n/a	-999	24	[0, 0, 0]	n/a	FR1	0	R1111M
2811.736	1.263	1428997	REC_WORD	1.263	n/a	RICE	-999	24	[0, 0, 0]	n/a	FR1	0	R1111M
2812.999	1.095	1429628	REC_WORD	1.095	n/a	SOAP	-999	24	[0, 0, 0]	n/a	FR1	0	R1111M
2814.094	4.294	1430176	REC_WORD	4.294	n/a	SEA	-999	24	[0, 0, 0]	n/a	FR1	0	R1111M
2818.388	5.608	1432322	REC_WORD	5.608	n/a	SHIELD	-999	24	[0, 0, 0]	n/a	FR1	0	R1111M
2823.996	15.269	1435126	REC_WORD	15.269	n/a	PEACH	-999	24	[0, 0, 0]	n/a	FR1	0	R1111M
2839.265	282.462	1442760	REC_END	n/a	n/a	n/a	-999	24	[0, 0, 0]	n/a	FR1	0	R1111M
3121.727	0.0	1583983	TRIAL	n/a	n/a	n/a	-999	25	[0, 0, 0]	n/a	FR1	0	R1111M
3121.727	87270.814	1583983	COUNTDOWN_START	n/a	n/a	n/a	-999	25	[0, 0, 0]	n/a	FR1	0	R1111M
90392.541	0.0	-1	SESSION_SKIPPED	n/a	n/a	n/a	-999	25	[0, 0, 0]	n/a	FR1	0	R1111M
