onset	duration	sample	trial_type	response_time	stim_file	item_name	serialpos	list	test	answer	experiment	session	subject
0.0	252.152	629	INSTRUCT_START	n/a	n/a	n/a	-999	-999	[0, 0, 0]	n/a	FR1	0	R1351M
252.152	2.834	252769	INSTRUCT_END	n/a	n/a	n/a	-999	-999	[0, 0, 0]	n/a	FR1	0	R1351M
254.986	7.261	255603	MIC TEST_START	n/a	n/a	n/a	-999	-999	[0, 0, 0]	n/a	FR1	0	R1351M
262.247	0.009	262863	MIC TEST_END	n/a	n/a	n/a	-999	-999	[0, 0, 0]	n/a	FR1	0	R1351M
262.256	0.0	262872	TRIAL_START	n/a	n/a	n/a	-999	-1	[0, 0, 0]	n/a	FR1	0	R1351M
262.256	0.0	262872	TRIAL	n/a	n/a	n/a	-999	-1	[0, 0, 0]	n/a	FR1	0	R1351M
262.256	5.166	262872	WAITING_START	n/a	n/a	n/a	-999	-1	[0, 0, 0]	n/a	FR1	0	R1351M
267.422	0.0	268038	COUNTDOWN_START	n/a	n/a	n/a	-999	-1	[0, 0, 0]	n/a	FR1	0	R1351M
267.422	10.431	268038	WAITING_END	n/a	n/a	n/a	-999	-1	[0, 0, 0]	n/a	FR1	0	R1351M
277.853	0.0	278469	COUNTDOWN_END	n/a	n/a	n/a	-999	-1	[0, 0, 0]	n/a	FR1	0	R1351M
277.853	1.087	278469	ORIENT_START	n/a	n/a	n/a	-999	-1	[0, 0, 0]	n/a	FR1	0	R1351M
278.94	0.001	279556	ORIENT_END	n/a	n/a	n/a	-999	-1	[0, 0, 0]	n/a	FR1	0	R1351M
278.941	0.755	279557	ENCODING_START	n/a	n/a	n/a	-999	-1	[0, 0, 0]	n/a	FR1	0	R1351M
279.696	1.629	280312	WORD	n/a	n/a	RING	1	-1	[0, 0, 0]	n/a	FR1	0	R1351M
281.325	0.867	281941	WORD_OFF	n/a	n/a	RING	1	-1	[0, 0, 0]	n/a	FR1	0	R1351M
282.192	1.632	282807	WORD	n/a	n/a	BEAM	2	-1	[0, 0, 0]	n/a	FR1	0	R1351M
283.824	0.757	284439	WORD_OFF	n/a	n/a	BEAM	2	-1	[0, 0, 0]	n/a	FR1	0	R1351M
284.581	1.627	285196	WORD	n/a	n/a	IMAGE	3	-1	[0, 0, 0]	n/a	FR1	0	R1351M
286.208	0.814	286823	WORD_OFF	n/a	n/a	IMAGE	3	-1	[0, 0, 0]	n/a	FR1	0	R1351M
287.022	1.637	287637	WORD	n/a	n/a	WAGON	4	-1	[0, 0, 0]	n/a	FR1	0	R1351M
288.659	0.756	289274	WORD_OFF	n/a	n/a	WAGON	4	-1	[0, 0, 0]	n/a	FR1	0	R1351M
289.415	1.627	290030	WORD	n/a	n/a	WATCH	5	-1	[0, 0, 0]	n/a	FR1	0	R1351M
291.042	0.982	291657	WORD_OFF	n/a	n/a	WATCH	5	-1	[0, 0, 0]	n/a	FR1	0	R1351M
292.024	1.636	292639	WORD	n/a	n/a	TONGUE	6	-1	[0, 0, 0]	n/a	FR1	0	R1351M
293.66	0.814	294275	WORD_OFF	n/a	n/a	TONGUE	6	-1	[0, 0, 0]	n/a	FR1	0	R1351M
294.474	1.636	295089	WORD	n/a	n/a	FLOOD	7	-1	[0, 0, 0]	n/a	FR1	0	R1351M
296.11	0.952	296725	WORD_OFF	n/a	n/a	FLOOD	7	-1	[0, 0, 0]	n/a	FR1	0	R1351M
297.062	1.632	297677	WORD	n/a	n/a	CHEST	8	-1	[0, 0, 0]	n/a	FR1	0	R1351M
298.694	0.751	299309	WORD_OFF	n/a	n/a	CHEST	8	-1	[0, 0, 0]	n/a	FR1	0	R1351M
299.445	1.633	300060	WORD	n/a	n/a	RHINO	9	-1	[0, 0, 0]	n/a	FR1	0	R1351M
301.078	0.757	301693	WORD_OFF	n/a	n/a	RHINO	9	-1	[0, 0, 0]	n/a	FR1	0	R1351M
301.835	1.611	302450	WORD	n/a	n/a	BABY	10	-1	[0, 0, 0]	n/a	FR1	0	R1351M
303.446	0.938	304060	WORD_OFF	n/a	n/a	BABY	10	-1	[0, 0, 0]	n/a	FR1	0	R1351M
304.384	1.628	304998	WORD	n/a	n/a	COTTON	11	-1	[0, 0, 0]	n/a	FR1	0	R1351M
306.012	0.814	306626	WORD_OFF	n/a	n/a	COTTON	11	-1	[0, 0, 0]	n/a	FR1	0	R1351M
306.826	1.621	307440	WORD	n/a	n/a	CAMEL	12	-1	[0, 0, 0]	n/a	FR1	0	R1351M
308.447	0.0	309061	ENCODING_END	n/a	n/a	n/a	-999	-1	[0, 0, 0]	n/a	FR1	0	R1351M
308.447	0.001	309061	WORD_OFF	n/a	n/a	CAMEL	12	-1	[0, 0, 0]	n/a	FR1	0	R1351M
308.448	0.0	309062	DISTRACT_START	n/a	n/a	n/a	-999	-1	[0, 0, 0]	n/a	FR1	0	R1351M
308.448	0.015	309062	START	n/a	n/a	n/a	-999	-1	[-999, -999, -999]	n/a	FR1	0	R1351M
308.463	38.255	309077	PROB	38.255	n/a	n/a	-999	-1	[6, 2, 4]	12	FR1	0	R1351M
346.718	0.018	347330	STOP	n/a	n/a	n/a	-999	-1	[-999, -999, -999]	n/a	FR1	0	R1351M
346.736	0.562	347348	DISTRACT_END	n/a	n/a	n/a	-999	-1	[0, 0, 0]	n/a	FR1	0	R1351M
347.298	1.572	347910	RETRIEVAL_ORIENT_START	n/a	n/a	n/a	-999	-1	[0, 0, 0]	n/a	FR1	0	R1351M
348.87	0.0	349482	RETRIEVAL_ORIENT_END	n/a	n/a	n/a	-999	-1	[0, 0, 0]	n/a	FR1	0	R1351M
348.87	21.033	349482	REC_START	n/a	n/a	n/a	-999	-1	[0, 0, 0]	n/a	FR1	0	R1351M
369.903	2.691	370514	REC_WORD_VV	2.691	n/a	<>	-999	-1	[0, 0, 0]	n/a	FR1	0	R1351M
372.594	4.294	373205	REC_WORD_VV	4.294	n/a	<>	-999	-1	[0, 0, 0]	n/a	FR1	0	R1351M
376.888	0.997	377499	REC_WORD_VV	0.997	n/a	<>	-999	-1	[0, 0, 0]	n/a	FR1	0	R1351M
377.885	0.998	378496	REC_WORD_VV	0.998	n/a	<>	-999	-1	[0, 0, 0]	n/a	FR1	0	R1351M
378.883	0.0	379494	REC_END	n/a	n/a	n/a	-999	-1	[0, 0, 0]	n/a	FR1	0	R1351M
378.883	55.871	379494	PRACTICE_POST_INSTRUCT_START	n/a	n/a	n/a	-999	-1	[0, 0, 0]	n/a	FR1	0	R1351M
434.754	0.0	435362	PRACTICE_POST_INSTRUCT_END	n/a	n/a	n/a	-999	-1	[0, 0, 0]	n/a	FR1	0	R1351M
434.754	0.018	435362	TRIAL_END	n/a	n/a	n/a	-999	-1	[0, 0, 0]	n/a	FR1	0	R1351M
434.772	0.0	435380	TRIAL_START	n/a	n/a	n/a	-999	1	[0, 0, 0]	n/a	FR1	0	R1351M
434.772	0.0	435380	TRIAL	n/a	n/a	n/a	-999	1	[0, 0, 0]	n/a	FR1	0	R1351M
434.772	4.282	435380	WAITING_START	n/a	n/a	n/a	-999	1	[0, 0, 0]	n/a	FR1	0	R1351M
439.054	0.0	439662	COUNTDOWN_START	n/a	n/a	n/a	-999	1	[0, 0, 0]	n/a	FR1	0	R1351M
439.054	10.431	439662	WAITING_END	n/a	n/a	n/a	-999	1	[0, 0, 0]	n/a	FR1	0	R1351M
449.485	0.001	450092	COUNTDOWN_END	n/a	n/a	n/a	-999	1	[0, 0, 0]	n/a	FR1	0	R1351M
449.486	1.087	450093	ORIENT_START	n/a	n/a	n/a	-999	1	[0, 0, 0]	n/a	FR1	0	R1351M
450.573	0.0	451180	ORIENT_END	n/a	n/a	n/a	-999	1	[0, 0, 0]	n/a	FR1	0	R1351M
450.573	0.865	451180	ENCODING_START	n/a	n/a	n/a	-999	1	[0, 0, 0]	n/a	FR1	0	R1351M
451.438	1.636	452045	WORD	n/a	n/a	SHOE	1	1	[0, 0, 0]	n/a	FR1	0	R1351M
453.074	0.99	453681	WORD_OFF	n/a	n/a	SHOE	1	1	[0, 0, 0]	n/a	FR1	0	R1351M
454.064	1.627	454671	WORD	n/a	n/a	SOCK	2	1	[0, 0, 0]	n/a	FR1	0	R1351M
455.691	0.857	456298	WORD_OFF	n/a	n/a	SOCK	2	1	[0, 0, 0]	n/a	FR1	0	R1351M
456.548	1.627	457155	WORD	n/a	n/a	BAG	3	1	[0, 0, 0]	n/a	FR1	0	R1351M
458.175	1.052	458782	WORD_OFF	n/a	n/a	BAG	3	1	[0, 0, 0]	n/a	FR1	0	R1351M
459.227	1.632	459834	WORD	n/a	n/a	LAMP	4	1	[0, 0, 0]	n/a	FR1	0	R1351M
460.859	0.956	461466	WORD_OFF	n/a	n/a	LAMP	4	1	[0, 0, 0]	n/a	FR1	0	R1351M
461.815	1.612	462422	WORD	n/a	n/a	STEAK	5	1	[0, 0, 0]	n/a	FR1	0	R1351M
463.427	0.866	464034	WORD_OFF	n/a	n/a	STEAK	5	1	[0, 0, 0]	n/a	FR1	0	R1351M
464.293	1.633	464900	WORD	n/a	n/a	LAWN	6	1	[0, 0, 0]	n/a	FR1	0	R1351M
465.926	0.837	466533	WORD_OFF	n/a	n/a	LAWN	6	1	[0, 0, 0]	n/a	FR1	0	R1351M
466.763	1.631	467370	WORD	n/a	n/a	DEER	7	1	[0, 0, 0]	n/a	FR1	0	R1351M
468.394	0.837	469001	WORD_OFF	n/a	n/a	DEER	7	1	[0, 0, 0]	n/a	FR1	0	R1351M
469.231	1.629	469838	WORD	n/a	n/a	SHIELD	8	1	[0, 0, 0]	n/a	FR1	0	R1351M
470.86	1.119	471466	WORD_OFF	n/a	n/a	SHIELD	8	1	[0, 0, 0]	n/a	FR1	0	R1351M
471.979	1.632	472585	WORD	n/a	n/a	RAKE	9	1	[0, 0, 0]	n/a	FR1	0	R1351M
473.611	0.933	474217	WORD_OFF	n/a	n/a	RAKE	9	1	[0, 0, 0]	n/a	FR1	0	R1351M
474.544	1.634	475150	WORD	n/a	n/a	MUD	10	1	[0, 0, 0]	n/a	FR1	0	R1351M
476.178	1.07	476784	WORD_OFF	n/a	n/a	MUD	10	1	[0, 0, 0]	n/a	FR1	0	R1351M
477.248	1.631	477854	WORD	n/a	n/a	CANE	11	1	[0, 0, 0]	n/a	FR1	0	R1351M
478.879	0.979	479485	WORD_OFF	n/a	n/a	CANE	11	1	[0, 0, 0]	n/a	FR1	0	R1351M
479.858	1.639	480464	WORD	n/a	n/a	PEARL	12	1	[0, 0, 0]	n/a	FR1	0	R1351M
481.497	0.0	482103	WORD_OFF	n/a	n/a	PEARL	12	1	[0, 0, 0]	n/a	FR1	0	R1351M
481.497	0.001	482103	ENCODING_END	n/a	n/a	n/a	-999	1	[0, 0, 0]	n/a	FR1	0	R1351M
481.498	0.0	482104	DISTRACT_START	n/a	n/a	n/a	-999	1	[0, 0, 0]	n/a	FR1	0	R1351M
481.498	0.015	482104	START	n/a	n/a	n/a	-999	1	[-999, -999, -999]	n/a	FR1	0	R1351M
481.513	6.25	482119	PROB	6.25	n/a	n/a	-999	1	[1, 7, 5]	13	FR1	0	R1351M
487.763	10.502	488369	PROB	10.502	n/a	n/a	-999	1	[7, 7, 6]	20	FR1	0	R1351M
498.265	8.177	498870	PROB	8.177	n/a	n/a	-999	1	[7, 9, 9]	25	FR1	0	R1351M
506.442	0.01	507047	STOP	n/a	n/a	n/a	-999	1	[-999, -999, -999]	n/a	FR1	0	R1351M
506.452	0.521	507057	DISTRACT_END	n/a	n/a	n/a	-999	1	[0, 0, 0]	n/a	FR1	0	R1351M
506.973	1.611	507578	RETRIEVAL_ORIENT_START	n/a	n/a	n/a	-999	1	[0, 0, 0]	n/a	FR1	0	R1351M
508.584	0.001	509189	RETRIEVAL_ORIENT_END	n/a	n/a	n/a	-999	1	[0, 0, 0]	n/a	FR1	0	R1351M
508.585	3.08	509190	REC_START	n/a	n/a	n/a	-999	1	[0, 0, 0]	n/a	FR1	0	R1351M
511.665	0.684	512270	REC_WORD_VV	0.684	n/a	<>	-999	1	[0, 0, 0]	n/a	FR1	0	R1351M
512.349	1.071	512953	REC_WORD	1.071	n/a	SHOE	1	1	[0, 0, 0]	n/a	FR1	0	R1351M
513.42	1.054	514024	REC_WORD	1.054	n/a	SOCK	2	1	[0, 0, 0]	n/a	FR1	0	R1351M
514.474	2.959	515078	REC_WORD	2.959	n/a	BAG	3	1	[0, 0, 0]	n/a	FR1	0	R1351M
517.433	1.294	518037	REC_WORD	1.294	n/a	STEAK	5	1	[0, 0, 0]	n/a	FR1	0	R1351M
518.727	13.248	519331	REC_WORD	13.248	n/a	LAWN	6	1	[0, 0, 0]	n/a	FR1	0	R1351M
531.975	1.316	532579	REC_WORD_VV	1.316	n/a	<>	-999	1	[0, 0, 0]	n/a	FR1	0	R1351M
533.291	5.307	533894	REC_WORD_VV	5.307	n/a	<>	-999	1	[0, 0, 0]	n/a	FR1	0	R1351M
538.598	0.0	539201	REC_END	n/a	n/a	n/a	-999	1	[0, 0, 0]	n/a	FR1	0	R1351M
538.598	0.016	539201	TRIAL_END	n/a	n/a	n/a	-999	1	[0, 0, 0]	n/a	FR1	0	R1351M
538.614	0.001	539217	TRIAL_START	n/a	n/a	n/a	-999	2	[0, 0, 0]	n/a	FR1	0	R1351M
538.615	0.0	539218	TRIAL	n/a	n/a	n/a	-999	2	[0, 0, 0]	n/a	FR1	0	R1351M
538.615	12.944	539218	WAITING_START	n/a	n/a	n/a	-999	2	[0, 0, 0]	n/a	FR1	0	R1351M
551.559	0.001	552162	WAITING_END	n/a	n/a	n/a	-999	2	[0, 0, 0]	n/a	FR1	0	R1351M
551.56	10.428	552163	COUNTDOWN_START	n/a	n/a	n/a	-999	2	[0, 0, 0]	n/a	FR1	0	R1351M
561.988	0.001	562590	COUNTDOWN_END	n/a	n/a	n/a	-999	2	[0, 0, 0]	n/a	FR1	0	R1351M
561.989	1.222	562591	ORIENT_START	n/a	n/a	n/a	-999	2	[0, 0, 0]	n/a	FR1	0	R1351M
563.211	0.001	563813	ORIENT_END	n/a	n/a	n/a	-999	2	[0, 0, 0]	n/a	FR1	0	R1351M
563.212	0.926	563814	ENCODING_START	n/a	n/a	n/a	-999	2	[0, 0, 0]	n/a	FR1	0	R1351M
564.138	1.624	564740	WORD	n/a	n/a	VEST	1	2	[0, 0, 0]	n/a	FR1	0	R1351M
565.762	1.098	566364	WORD_OFF	n/a	n/a	VEST	1	2	[0, 0, 0]	n/a	FR1	0	R1351M
566.86	1.637	567462	WORD	n/a	n/a	CLOWN	2	2	[0, 0, 0]	n/a	FR1	0	R1351M
568.497	0.846	569099	WORD_OFF	n/a	n/a	CLOWN	2	2	[0, 0, 0]	n/a	FR1	0	R1351M
569.343	1.62	569945	WORD	n/a	n/a	FISH	3	2	[0, 0, 0]	n/a	FR1	0	R1351M
570.963	0.947	571565	WORD_OFF	n/a	n/a	FISH	3	2	[0, 0, 0]	n/a	FR1	0	R1351M
571.91	1.637	572512	WORD	n/a	n/a	SPARK	4	2	[0, 0, 0]	n/a	FR1	0	R1351M
573.547	1.005	574149	WORD_OFF	n/a	n/a	SPARK	4	2	[0, 0, 0]	n/a	FR1	0	R1351M
574.552	1.629	575154	WORD	n/a	n/a	HOOK	5	2	[0, 0, 0]	n/a	FR1	0	R1351M
576.181	0.856	576782	WORD_OFF	n/a	n/a	HOOK	5	2	[0, 0, 0]	n/a	FR1	0	R1351M
577.037	1.627	577638	WORD	n/a	n/a	SKI	6	2	[0, 0, 0]	n/a	FR1	0	R1351M
578.664	0.886	579265	WORD_OFF	n/a	n/a	SKI	6	2	[0, 0, 0]	n/a	FR1	0	R1351M
579.55	1.632	580151	WORD	n/a	n/a	ELF	7	2	[0, 0, 0]	n/a	FR1	0	R1351M
581.182	0.899	581783	WORD_OFF	n/a	n/a	ELF	7	2	[0, 0, 0]	n/a	FR1	0	R1351M
582.081	1.634	582682	WORD	n/a	n/a	FLEA	8	2	[0, 0, 0]	n/a	FR1	0	R1351M
583.715	0.766	584316	WORD_OFF	n/a	n/a	FLEA	8	2	[0, 0, 0]	n/a	FR1	0	R1351M
584.481	1.635	585082	WORD	n/a	n/a	TRAIN	9	2	[0, 0, 0]	n/a	FR1	0	R1351M
586.116	0.895	586717	WORD_OFF	n/a	n/a	TRAIN	9	2	[0, 0, 0]	n/a	FR1	0	R1351M
587.011	1.622	587612	WORD	n/a	n/a	MUG	10	2	[0, 0, 0]	n/a	FR1	0	R1351M
588.633	0.866	589234	WORD_OFF	n/a	n/a	MUG	10	2	[0, 0, 0]	n/a	FR1	0	R1351M
589.499	1.635	590100	WORD	n/a	n/a	WEB	11	2	[0, 0, 0]	n/a	FR1	0	R1351M
591.134	0.993	591735	WORD_OFF	n/a	n/a	WEB	11	2	[0, 0, 0]	n/a	FR1	0	R1351M
592.127	1.624	592728	WORD	n/a	n/a	SMOKE	12	2	[0, 0, 0]	n/a	FR1	0	R1351M
593.751	0.0	594352	WORD_OFF	n/a	n/a	SMOKE	12	2	[0, 0, 0]	n/a	FR1	0	R1351M
593.751	0.001	594352	ENCODING_END	n/a	n/a	n/a	-999	2	[0, 0, 0]	n/a	FR1	0	R1351M
593.752	0.0	594353	DISTRACT_START	n/a	n/a	n/a	-999	2	[0, 0, 0]	n/a	FR1	0	R1351M
593.752	0.015	594353	START	n/a	n/a	n/a	-999	2	[-999, -999, -999]	n/a	FR1	0	R1351M
593.767	6.185	594368	PROB	6.185	n/a	n/a	-999	2	[5, 1, 1]	7	FR1	0	R1351M
599.952	4.834	600552	PROB	4.834	n/a	n/a	-999	2	[4, 3, 3]	10	FR1	0	R1351M
604.786	4.652	605386	PROB	4.652	n/a	n/a	-999	2	[6, 9, 2]	17	FR1	0	R1351M
609.438	3.266	610038	PROB	3.266	n/a	n/a	-999	2	[5, 3, 1]	9	FR1	0	R1351M
612.704	9.199	613304	PROB	9.199	n/a	n/a	-999	2	[8, 5, 3]	16	FR1	0	R1351M
621.903	0.02	622502	STOP	n/a	n/a	n/a	-999	2	[-999, -999, -999]	n/a	FR1	0	R1351M
621.923	0.525	622522	DISTRACT_END	n/a	n/a	n/a	-999	2	[0, 0, 0]	n/a	FR1	0	R1351M
622.448	1.559	623047	RETRIEVAL_ORIENT_START	n/a	n/a	n/a	-999	2	[0, 0, 0]	n/a	FR1	0	R1351M
624.007	0.0	624606	REC_START	n/a	n/a	n/a	-999	2	[0, 0, 0]	n/a	FR1	0	R1351M
624.007	1.256	624606	RETRIEVAL_ORIENT_END	n/a	n/a	n/a	-999	2	[0, 0, 0]	n/a	FR1	0	R1351M
625.263	2.148	625862	REC_WORD_VV	2.148	n/a	<>	-999	2	[0, 0, 0]	n/a	FR1	0	R1351M
627.411	0.784	628010	REC_WORD	0.784	n/a	MUD	-999	2	[0, 0, 0]	n/a	FR1	0	R1351M
628.195	7.495	628794	REC_WORD	7.495	n/a	FISH	3	2	[0, 0, 0]	n/a	FR1	0	R1351M
635.69	0.426	636289	REC_WORD_VV	0.426	n/a	<>	-999	2	[0, 0, 0]	n/a	FR1	0	R1351M
636.116	0.585	636715	REC_WORD	0.585	n/a	SOCK	-999	2	[0, 0, 0]	n/a	FR1	0	R1351M
636.701	3.397	637300	REC_WORD	3.397	n/a	SHOE	-999	2	[0, 0, 0]	n/a	FR1	0	R1351M
640.098	1.424	640696	REC_WORD_VV	1.424	n/a	<>	-999	2	[0, 0, 0]	n/a	FR1	0	R1351M
641.522	4.685	642120	REC_WORD_VV	4.685	n/a	<>	-999	2	[0, 0, 0]	n/a	FR1	0	R1351M
646.207	1.854	646805	REC_WORD	1.854	n/a	RAKE	-999	2	[0, 0, 0]	n/a	FR1	0	R1351M
648.061	5.47	648659	REC_WORD_VV	5.47	n/a	<>	-999	2	[0, 0, 0]	n/a	FR1	0	R1351M
653.531	0.49	654129	REC_WORD	0.49	n/a	HOOK	5	2	[0, 0, 0]	n/a	FR1	0	R1351M
654.021	0.0	654619	REC_END	n/a	n/a	n/a	-999	2	[0, 0, 0]	n/a	FR1	0	R1351M
654.021	0.014	654619	TRIAL_END	n/a	n/a	n/a	-999	2	[0, 0, 0]	n/a	FR1	0	R1351M
654.035	0.0	654633	TRIAL_START	n/a	n/a	n/a	-999	3	[0, 0, 0]	n/a	FR1	0	R1351M
654.035	0.0	654633	TRIAL	n/a	n/a	n/a	-999	3	[0, 0, 0]	n/a	FR1	0	R1351M
654.035	15.88	654633	WAITING_START	n/a	n/a	n/a	-999	3	[0, 0, 0]	n/a	FR1	0	R1351M
669.915	0.001	670512	WAITING_END	n/a	n/a	n/a	-999	3	[0, 0, 0]	n/a	FR1	0	R1351M
669.916	10.429	670513	COUNTDOWN_START	n/a	n/a	n/a	-999	3	[0, 0, 0]	n/a	FR1	0	R1351M
680.345	0.001	680941	COUNTDOWN_END	n/a	n/a	n/a	-999	3	[0, 0, 0]	n/a	FR1	0	R1351M
680.346	1.222	680942	ORIENT_START	n/a	n/a	n/a	-999	3	[0, 0, 0]	n/a	FR1	0	R1351M
681.568	0.0	682164	ORIENT_END	n/a	n/a	n/a	-999	3	[0, 0, 0]	n/a	FR1	0	R1351M
681.568	1.114	682164	ENCODING_START	n/a	n/a	n/a	-999	3	[0, 0, 0]	n/a	FR1	0	R1351M
682.682	1.636	683278	WORD	n/a	n/a	PEA	1	3	[0, 0, 0]	n/a	FR1	0	R1351M
684.318	1.013	684914	WORD_OFF	n/a	n/a	PEA	1	3	[0, 0, 0]	n/a	FR1	0	R1351M
685.331	1.621	685927	WORD	n/a	n/a	CONE	2	3	[0, 0, 0]	n/a	FR1	0	R1351M
686.952	1.101	687548	WORD_OFF	n/a	n/a	CONE	2	3	[0, 0, 0]	n/a	FR1	0	R1351M
688.053	1.633	688649	WORD	n/a	n/a	BRIDGE	3	3	[0, 0, 0]	n/a	FR1	0	R1351M
689.686	1.077	690282	WORD_OFF	n/a	n/a	BRIDGE	3	3	[0, 0, 0]	n/a	FR1	0	R1351M
690.763	1.608	691359	WORD	n/a	n/a	TENT	4	3	[0, 0, 0]	n/a	FR1	0	R1351M
692.371	0.788	692967	WORD_OFF	n/a	n/a	TENT	4	3	[0, 0, 0]	n/a	FR1	0	R1351M
693.159	1.628	693755	WORD	n/a	n/a	MAT	5	3	[0, 0, 0]	n/a	FR1	0	R1351M
694.787	0.883	695383	WORD_OFF	n/a	n/a	MAT	5	3	[0, 0, 0]	n/a	FR1	0	R1351M
695.67	1.634	696266	WORD	n/a	n/a	SEED	6	3	[0, 0, 0]	n/a	FR1	0	R1351M
697.304	1.137	697900	WORD_OFF	n/a	n/a	SEED	6	3	[0, 0, 0]	n/a	FR1	0	R1351M
698.441	1.63	699037	WORD	n/a	n/a	TOAST	7	3	[0, 0, 0]	n/a	FR1	0	R1351M
700.071	1.008	700667	WORD_OFF	n/a	n/a	TOAST	7	3	[0, 0, 0]	n/a	FR1	0	R1351M
701.079	1.626	701674	WORD	n/a	n/a	CLAY	8	3	[0, 0, 0]	n/a	FR1	0	R1351M
702.705	0.938	703300	WORD_OFF	n/a	n/a	CLAY	8	3	[0, 0, 0]	n/a	FR1	0	R1351M
703.643	1.629	704238	WORD	n/a	n/a	TANK	9	3	[0, 0, 0]	n/a	FR1	0	R1351M
705.272	1.042	705867	WORD_OFF	n/a	n/a	TANK	9	3	[0, 0, 0]	n/a	FR1	0	R1351M
706.314	1.625	706909	WORD	n/a	n/a	CHIN	10	3	[0, 0, 0]	n/a	FR1	0	R1351M
707.939	0.863	708534	WORD_OFF	n/a	n/a	CHIN	10	3	[0, 0, 0]	n/a	FR1	0	R1351M
708.802	1.605	709397	WORD	n/a	n/a	FAN	11	3	[0, 0, 0]	n/a	FR1	0	R1351M
710.407	0.775	711002	WORD_OFF	n/a	n/a	FAN	11	3	[0, 0, 0]	n/a	FR1	0	R1351M
711.182	1.625	711777	WORD	n/a	n/a	SNOW	12	3	[0, 0, 0]	n/a	FR1	0	R1351M
712.807	0.0	713402	ENCODING_END	n/a	n/a	n/a	-999	3	[0, 0, 0]	n/a	FR1	0	R1351M
712.807	0.001	713402	WORD_OFF	n/a	n/a	SNOW	12	3	[0, 0, 0]	n/a	FR1	0	R1351M
712.808	0.0	713403	DISTRACT_START	n/a	n/a	n/a	-999	3	[0, 0, 0]	n/a	FR1	0	R1351M
712.808	0.016	713403	START	n/a	n/a	n/a	-999	3	[-999, -999, -999]	n/a	FR1	0	R1351M
712.824	5.15	713419	PROB	5.15	n/a	n/a	-999	3	[5, 5, 4]	14	FR1	0	R1351M
717.974	4.436	718569	PROB	4.436	n/a	n/a	-999	3	[8, 5, 7]	20	FR1	0	R1351M
722.41	4.051	723004	PROB	4.051	n/a	n/a	-999	3	[3, 5, 1]	9	FR1	0	R1351M
726.461	3.749	727055	PROB	3.749	n/a	n/a	-999	3	[1, 1, 5]	7	FR1	0	R1351M
730.21	4.671	730804	PROB	4.671	n/a	n/a	-999	3	[3, 6, 3]	12	FR1	0	R1351M
734.881	0.014	735475	STOP	n/a	n/a	n/a	-999	3	[-999, -999, -999]	n/a	FR1	0	R1351M
734.895	0.669	735489	DISTRACT_END	n/a	n/a	n/a	-999	3	[0, 0, 0]	n/a	FR1	0	R1351M
735.564	1.681	736158	RETRIEVAL_ORIENT_START	n/a	n/a	n/a	-999	3	[0, 0, 0]	n/a	FR1	0	R1351M
737.245	0.0	737839	RETRIEVAL_ORIENT_END	n/a	n/a	n/a	-999	3	[0, 0, 0]	n/a	FR1	0	R1351M
737.245	5.215	737839	REC_START	n/a	n/a	n/a	-999	3	[0, 0, 0]	n/a	FR1	0	R1351M
742.46	24.798	743054	REC_WORD	24.798	n/a	PEA	1	3	[0, 0, 0]	n/a	FR1	0	R1351M
767.258	0.0	767850	TRIAL_END	n/a	n/a	n/a	-999	3	[0, 0, 0]	n/a	FR1	0	R1351M
767.258	0.015	767850	REC_END	n/a	n/a	n/a	-999	3	[0, 0, 0]	n/a	FR1	0	R1351M
767.273	0.001	767865	TRIAL_START	n/a	n/a	n/a	-999	4	[0, 0, 0]	n/a	FR1	0	R1351M
767.274	0.0	767866	TRIAL	n/a	n/a	n/a	-999	4	[0, 0, 0]	n/a	FR1	0	R1351M
767.274	21.965	767866	WAITING_START	n/a	n/a	n/a	-999	4	[0, 0, 0]	n/a	FR1	0	R1351M
789.239	0.0	789830	WAITING_END	n/a	n/a	n/a	-999	4	[0, 0, 0]	n/a	FR1	0	R1351M
789.239	10.428	789830	COUNTDOWN_START	n/a	n/a	n/a	-999	4	[0, 0, 0]	n/a	FR1	0	R1351M
799.667	0.001	800258	COUNTDOWN_END	n/a	n/a	n/a	-999	4	[0, 0, 0]	n/a	FR1	0	R1351M
799.668	1.089	800259	ORIENT_START	n/a	n/a	n/a	-999	4	[0, 0, 0]	n/a	FR1	0	R1351M
800.757	0.001	801348	ORIENT_END	n/a	n/a	n/a	-999	4	[0, 0, 0]	n/a	FR1	0	R1351M
800.758	0.855	801349	ENCODING_START	n/a	n/a	n/a	-999	4	[0, 0, 0]	n/a	FR1	0	R1351M
801.613	1.628	802204	WORD	n/a	n/a	PASTE	1	4	[0, 0, 0]	n/a	FR1	0	R1351M
803.241	1.035	803832	WORD_OFF	n/a	n/a	PASTE	1	4	[0, 0, 0]	n/a	FR1	0	R1351M
804.276	1.632	804867	WORD	n/a	n/a	ZOO	2	4	[0, 0, 0]	n/a	FR1	0	R1351M
805.908	0.994	806498	WORD_OFF	n/a	n/a	ZOO	2	4	[0, 0, 0]	n/a	FR1	0	R1351M
806.902	1.608	807492	WORD	n/a	n/a	CAVE	3	4	[0, 0, 0]	n/a	FR1	0	R1351M
808.51	1.096	809100	WORD_OFF	n/a	n/a	CAVE	3	4	[0, 0, 0]	n/a	FR1	0	R1351M
809.606	1.637	810196	WORD	n/a	n/a	VINE	4	4	[0, 0, 0]	n/a	FR1	0	R1351M
811.243	1.125	811833	WORD_OFF	n/a	n/a	VINE	4	4	[0, 0, 0]	n/a	FR1	0	R1351M
812.368	1.625	812958	WORD	n/a	n/a	SLIME	5	4	[0, 0, 0]	n/a	FR1	0	R1351M
813.993	0.945	814583	WORD_OFF	n/a	n/a	SLIME	5	4	[0, 0, 0]	n/a	FR1	0	R1351M
814.938	1.622	815528	WORD	n/a	n/a	TOE	6	4	[0, 0, 0]	n/a	FR1	0	R1351M
816.56	1.089	817150	WORD_OFF	n/a	n/a	TOE	6	4	[0, 0, 0]	n/a	FR1	0	R1351M
817.649	1.629	818239	WORD	n/a	n/a	NOSE	7	4	[0, 0, 0]	n/a	FR1	0	R1351M
819.278	1.09	819868	WORD_OFF	n/a	n/a	NOSE	7	4	[0, 0, 0]	n/a	FR1	0	R1351M
820.368	1.627	820958	WORD	n/a	n/a	CORD	8	4	[0, 0, 0]	n/a	FR1	0	R1351M
821.995	0.813	822585	WORD_OFF	n/a	n/a	CORD	8	4	[0, 0, 0]	n/a	FR1	0	R1351M
822.808	1.638	823398	WORD	n/a	n/a	CLOCK	9	4	[0, 0, 0]	n/a	FR1	0	R1351M
824.446	0.827	825036	WORD_OFF	n/a	n/a	CLOCK	9	4	[0, 0, 0]	n/a	FR1	0	R1351M
825.273	1.623	825863	WORD	n/a	n/a	BOMB	10	4	[0, 0, 0]	n/a	FR1	0	R1351M
826.896	1.057	827485	WORD_OFF	n/a	n/a	BOMB	10	4	[0, 0, 0]	n/a	FR1	0	R1351M
827.953	1.627	828542	WORD	n/a	n/a	CAPE	11	4	[0, 0, 0]	n/a	FR1	0	R1351M
829.58	0.976	830169	WORD_OFF	n/a	n/a	CAPE	11	4	[0, 0, 0]	n/a	FR1	0	R1351M
830.556	1.624	831145	WORD	n/a	n/a	RAT	12	4	[0, 0, 0]	n/a	FR1	0	R1351M
832.18	0.001	832769	WORD_OFF	n/a	n/a	RAT	12	4	[0, 0, 0]	n/a	FR1	0	R1351M
832.181	0.0	832770	ENCODING_END	n/a	n/a	n/a	-999	4	[0, 0, 0]	n/a	FR1	0	R1351M
832.181	0.0	832770	DISTRACT_START	n/a	n/a	n/a	-999	4	[0, 0, 0]	n/a	FR1	0	R1351M
832.181	0.016	832770	START	n/a	n/a	n/a	-999	4	[-999, -999, -999]	n/a	FR1	0	R1351M
832.197	8.152	832786	PROB	8.152	n/a	n/a	-999	4	[3, 7, 2]	12	FR1	0	R1351M
840.349	4.6	840938	PROB	4.6	n/a	n/a	-999	4	[8, 5, 5]	18	FR1	0	R1351M
844.949	3.751	845538	PROB	3.751	n/a	n/a	-999	4	[3, 5, 5]	13	FR1	0	R1351M
848.7	6.254	849288	PROB	6.254	n/a	n/a	-999	4	[9, 5, 5]	19	FR1	0	R1351M
854.954	0.014	855542	STOP	n/a	n/a	n/a	-999	4	[-999, -999, -999]	n/a	FR1	0	R1351M
854.968	0.651	855556	DISTRACT_END	n/a	n/a	n/a	-999	4	[0, 0, 0]	n/a	FR1	0	R1351M
855.619	1.616	856207	RETRIEVAL_ORIENT_START	n/a	n/a	n/a	-999	4	[0, 0, 0]	n/a	FR1	0	R1351M
857.235	0.0	857823	REC_START	n/a	n/a	n/a	-999	4	[0, 0, 0]	n/a	FR1	0	R1351M
857.235	3.546	857823	RETRIEVAL_ORIENT_END	n/a	n/a	n/a	-999	4	[0, 0, 0]	n/a	FR1	0	R1351M
860.781	11.138	861369	REC_WORD	11.138	n/a	PASTE	1	4	[0, 0, 0]	n/a	FR1	0	R1351M
871.919	0.65	872506	REC_WORD_VV	0.65	n/a	<>	-999	4	[0, 0, 0]	n/a	FR1	0	R1351M
872.569	0.764	873156	REC_WORD	0.764	n/a	CLEFT	-999	4	[0, 0, 0]	n/a	FR1	0	R1351M
873.333	3.164	873920	REC_WORD_VV	3.164	n/a	<>	-999	4	[0, 0, 0]	n/a	FR1	0	R1351M
876.497	10.75	877084	REC_WORD_VV	10.75	n/a	<>	-999	4	[0, 0, 0]	n/a	FR1	0	R1351M
887.247	0.0	887834	REC_END	n/a	n/a	n/a	-999	4	[0, 0, 0]	n/a	FR1	0	R1351M
887.247	0.015	887834	TRIAL_END	n/a	n/a	n/a	-999	4	[0, 0, 0]	n/a	FR1	0	R1351M
887.262	0.001	887849	TRIAL_START	n/a	n/a	n/a	-999	5	[0, 0, 0]	n/a	FR1	0	R1351M
887.263	0.0	887850	WAITING_START	n/a	n/a	n/a	-999	5	[0, 0, 0]	n/a	FR1	0	R1351M
887.263	48.421	887850	TRIAL	n/a	n/a	n/a	-999	5	[0, 0, 0]	n/a	FR1	0	R1351M
935.684	0.0	936268	WAITING_END	n/a	n/a	n/a	-999	5	[0, 0, 0]	n/a	FR1	0	R1351M
935.684	10.429	936268	COUNTDOWN_START	n/a	n/a	n/a	-999	5	[0, 0, 0]	n/a	FR1	0	R1351M
946.113	0.0	946697	COUNTDOWN_END	n/a	n/a	n/a	-999	5	[0, 0, 0]	n/a	FR1	0	R1351M
946.113	1.089	946697	ORIENT_START	n/a	n/a	n/a	-999	5	[0, 0, 0]	n/a	FR1	0	R1351M
947.202	0.001	947786	ORIENT_END	n/a	n/a	n/a	-999	5	[0, 0, 0]	n/a	FR1	0	R1351M
947.203	1.052	947787	ENCODING_START	n/a	n/a	n/a	-999	5	[0, 0, 0]	n/a	FR1	0	R1351M
948.255	1.631	948839	WORD	n/a	n/a	BED	1	5	[0, 0, 0]	n/a	FR1	0	R1351M
949.886	1.078	950470	WORD_OFF	n/a	n/a	BED	1	5	[0, 0, 0]	n/a	FR1	0	R1351M
950.964	1.623	951548	WORD	n/a	n/a	FORK	2	5	[0, 0, 0]	n/a	FR1	0	R1351M
952.587	0.792	953170	WORD_OFF	n/a	n/a	FORK	2	5	[0, 0, 0]	n/a	FR1	0	R1351M
953.379	1.625	953962	WORD	n/a	n/a	WING	3	5	[0, 0, 0]	n/a	FR1	0	R1351M
955.004	0.762	955587	WORD_OFF	n/a	n/a	WING	3	5	[0, 0, 0]	n/a	FR1	0	R1351M
955.766	1.606	956349	WORD	n/a	n/a	SALT	4	5	[0, 0, 0]	n/a	FR1	0	R1351M
957.372	0.843	957955	WORD_OFF	n/a	n/a	SALT	4	5	[0, 0, 0]	n/a	FR1	0	R1351M
958.215	1.623	958798	WORD	n/a	n/a	ARM	5	5	[0, 0, 0]	n/a	FR1	0	R1351M
959.838	0.915	960421	WORD_OFF	n/a	n/a	ARM	5	5	[0, 0, 0]	n/a	FR1	0	R1351M
960.753	1.62	961336	WORD	n/a	n/a	HAWK	6	5	[0, 0, 0]	n/a	FR1	0	R1351M
962.373	0.994	962956	WORD_OFF	n/a	n/a	HAWK	6	5	[0, 0, 0]	n/a	FR1	0	R1351M
963.367	1.622	963950	WORD	n/a	n/a	CAGE	7	5	[0, 0, 0]	n/a	FR1	0	R1351M
964.989	1.018	965572	WORD_OFF	n/a	n/a	CAGE	7	5	[0, 0, 0]	n/a	FR1	0	R1351M
966.007	1.633	966590	WORD	n/a	n/a	MOOSE	8	5	[0, 0, 0]	n/a	FR1	0	R1351M
967.64	0.885	968223	WORD_OFF	n/a	n/a	MOOSE	8	5	[0, 0, 0]	n/a	FR1	0	R1351M
968.525	1.632	969108	WORD	n/a	n/a	ROCK	9	5	[0, 0, 0]	n/a	FR1	0	R1351M
970.157	0.836	970740	WORD_OFF	n/a	n/a	ROCK	9	5	[0, 0, 0]	n/a	FR1	0	R1351M
970.993	1.631	971576	WORD	n/a	n/a	CORN	10	5	[0, 0, 0]	n/a	FR1	0	R1351M
972.624	0.849	973207	WORD_OFF	n/a	n/a	CORN	10	5	[0, 0, 0]	n/a	FR1	0	R1351M
973.473	1.635	974055	WORD	n/a	n/a	BALL	11	5	[0, 0, 0]	n/a	FR1	0	R1351M
975.108	0.846	975690	WORD_OFF	n/a	n/a	BALL	11	5	[0, 0, 0]	n/a	FR1	0	R1351M
975.954	1.621	976536	WORD	n/a	n/a	LEG	12	5	[0, 0, 0]	n/a	FR1	0	R1351M
977.575	0.0	978157	WORD_OFF	n/a	n/a	LEG	12	5	[0, 0, 0]	n/a	FR1	0	R1351M
977.575	0.0	978157	ENCODING_END	n/a	n/a	n/a	-999	5	[0, 0, 0]	n/a	FR1	0	R1351M
977.575	0.001	978157	DISTRACT_START	n/a	n/a	n/a	-999	5	[0, 0, 0]	n/a	FR1	0	R1351M
977.576	0.015	978158	START	n/a	n/a	n/a	-999	5	[-999, -999, -999]	n/a	FR1	0	R1351M
977.591	6.502	978173	PROB	6.502	n/a	n/a	-999	5	[6, 7, 7]	20	FR1	0	R1351M
984.093	4.617	984675	PROB	4.617	n/a	n/a	-999	5	[9, 3, 1]	13	FR1	0	R1351M
988.71	4.484	989292	PROB	4.484	n/a	n/a	-999	5	[6, 3, 9]	18	FR1	0	R1351M
993.194	4.692	993776	PROB	4.692	n/a	n/a	-999	5	[1, 7, 5]	13	FR1	0	R1351M
997.886	0.009	998467	STOP	n/a	n/a	n/a	-999	5	[-999, -999, -999]	n/a	FR1	0	R1351M
997.895	0.676	998476	DISTRACT_END	n/a	n/a	n/a	-999	5	[0, 0, 0]	n/a	FR1	0	R1351M
998.571	1.658	999152	RETRIEVAL_ORIENT_START	n/a	n/a	n/a	-999	5	[0, 0, 0]	n/a	FR1	0	R1351M
1000.229	0.0	1000810	RETRIEVAL_ORIENT_END	n/a	n/a	n/a	-999	5	[0, 0, 0]	n/a	FR1	0	R1351M
1000.229	1.558	1000810	REC_START	n/a	n/a	n/a	-999	5	[0, 0, 0]	n/a	FR1	0	R1351M
1001.787	0.55	1002368	REC_WORD	0.55	n/a	BED	1	5	[0, 0, 0]	n/a	FR1	0	R1351M
1002.337	16.901	1002918	REC_WORD	16.901	n/a	FORK	2	5	[0, 0, 0]	n/a	FR1	0	R1351M
1019.238	0.433	1019818	REC_WORD_VV	0.433	n/a	<>	-999	5	[0, 0, 0]	n/a	FR1	0	R1351M
1019.671	1.205	1020251	REC_WORD	1.205	n/a	MOOSE	8	5	[0, 0, 0]	n/a	FR1	0	R1351M
1020.876	0.731	1021456	REC_WORD	0.731	n/a	ROCK	9	5	[0, 0, 0]	n/a	FR1	0	R1351M
1021.607	8.055	1022187	REC_WORD	8.055	n/a	SALT	4	5	[0, 0, 0]	n/a	FR1	0	R1351M
1029.662	0.579	1030242	REC_WORD_VV	0.579	n/a	<>	-999	5	[0, 0, 0]	n/a	FR1	0	R1351M
1030.241	0.0	1030821	REC_END	n/a	n/a	n/a	-999	5	[0, 0, 0]	n/a	FR1	0	R1351M
1030.241	0.016	1030821	TRIAL_END	n/a	n/a	n/a	-999	5	[0, 0, 0]	n/a	FR1	0	R1351M
1030.257	0.0	1030837	WAITING_START	n/a	n/a	n/a	-999	6	[0, 0, 0]	n/a	FR1	0	R1351M
1030.257	0.0	1030837	TRIAL_START	n/a	n/a	n/a	-999	6	[0, 0, 0]	n/a	FR1	0	R1351M
1030.257	6.313	1030837	TRIAL	n/a	n/a	n/a	-999	6	[0, 0, 0]	n/a	FR1	0	R1351M
1036.57	0.0	1037149	WAITING_END	n/a	n/a	n/a	-999	6	[0, 0, 0]	n/a	FR1	0	R1351M
1036.57	10.429	1037149	COUNTDOWN_START	n/a	n/a	n/a	-999	6	[0, 0, 0]	n/a	FR1	0	R1351M
1046.999	0.0	1047578	COUNTDOWN_END	n/a	n/a	n/a	-999	6	[0, 0, 0]	n/a	FR1	0	R1351M
1046.999	1.19	1047578	ORIENT_START	n/a	n/a	n/a	-999	6	[0, 0, 0]	n/a	FR1	0	R1351M
1048.189	0.0	1048768	ENCODING_START	n/a	n/a	n/a	-999	6	[0, 0, 0]	n/a	FR1	0	R1351M
1048.189	0.949	1048768	ORIENT_END	n/a	n/a	n/a	-999	6	[0, 0, 0]	n/a	FR1	0	R1351M
1049.138	1.634	1049717	WORD	n/a	n/a	JUICE	1	6	[0, 0, 0]	n/a	FR1	0	R1351M
1050.772	1.018	1051351	WORD_OFF	n/a	n/a	JUICE	1	6	[0, 0, 0]	n/a	FR1	0	R1351M
1051.79	1.634	1052369	WORD	n/a	n/a	STORM	2	6	[0, 0, 0]	n/a	FR1	0	R1351M
1053.424	1.107	1054003	WORD_OFF	n/a	n/a	STORM	2	6	[0, 0, 0]	n/a	FR1	0	R1351M
1054.531	1.626	1055110	WORD	n/a	n/a	CROWN	3	6	[0, 0, 0]	n/a	FR1	0	R1351M
1056.157	0.99	1056736	WORD_OFF	n/a	n/a	CROWN	3	6	[0, 0, 0]	n/a	FR1	0	R1351M
1057.147	1.627	1057725	WORD	n/a	n/a	STOVE	4	6	[0, 0, 0]	n/a	FR1	0	R1351M
1058.774	0.85	1059352	WORD_OFF	n/a	n/a	STOVE	4	6	[0, 0, 0]	n/a	FR1	0	R1351M
1059.624	1.634	1060202	WORD	n/a	n/a	FUDGE	5	6	[0, 0, 0]	n/a	FR1	0	R1351M
1061.258	1.039	1061836	WORD_OFF	n/a	n/a	FUDGE	5	6	[0, 0, 0]	n/a	FR1	0	R1351M
1062.297	1.628	1062875	WORD	n/a	n/a	JUDGE	6	6	[0, 0, 0]	n/a	FR1	0	R1351M
1063.925	1.113	1064503	WORD_OFF	n/a	n/a	JUDGE	6	6	[0, 0, 0]	n/a	FR1	0	R1351M
1065.038	1.637	1065616	WORD	n/a	n/a	BEAR	7	6	[0, 0, 0]	n/a	FR1	0	R1351M
1066.675	0.821	1067253	WORD_OFF	n/a	n/a	BEAR	7	6	[0, 0, 0]	n/a	FR1	0	R1351M
1067.496	1.63	1068074	WORD	n/a	n/a	STRING	8	6	[0, 0, 0]	n/a	FR1	0	R1351M
1069.126	0.803	1069704	WORD_OFF	n/a	n/a	STRING	8	6	[0, 0, 0]	n/a	FR1	0	R1351M
1069.929	1.631	1070507	WORD	n/a	n/a	FOG	9	6	[0, 0, 0]	n/a	FR1	0	R1351M
1071.56	0.881	1072138	WORD_OFF	n/a	n/a	FOG	9	6	[0, 0, 0]	n/a	FR1	0	R1351M
1072.441	1.636	1073019	WORD	n/a	n/a	JAR	10	6	[0, 0, 0]	n/a	FR1	0	R1351M
1074.077	0.978	1074655	WORD_OFF	n/a	n/a	JAR	10	6	[0, 0, 0]	n/a	FR1	0	R1351M
1075.055	1.622	1075633	WORD	n/a	n/a	TOOL	11	6	[0, 0, 0]	n/a	FR1	0	R1351M
1076.677	0.902	1077255	WORD_OFF	n/a	n/a	TOOL	11	6	[0, 0, 0]	n/a	FR1	0	R1351M
1077.579	1.632	1078157	WORD	n/a	n/a	SHEEP	12	6	[0, 0, 0]	n/a	FR1	0	R1351M
1079.211	0.001	1079788	WORD_OFF	n/a	n/a	SHEEP	12	6	[0, 0, 0]	n/a	FR1	0	R1351M
1079.212	0.0	1079789	ENCODING_END	n/a	n/a	n/a	-999	6	[0, 0, 0]	n/a	FR1	0	R1351M
1079.212	0.0	1079789	DISTRACT_START	n/a	n/a	n/a	-999	6	[0, 0, 0]	n/a	FR1	0	R1351M
1079.212	0.016	1079789	START	n/a	n/a	n/a	-999	6	[-999, -999, -999]	n/a	FR1	0	R1351M
1079.228	5.202	1079805	PROB	5.202	n/a	n/a	-999	6	[5, 2, 7]	14	FR1	0	R1351M
1084.43	5.25	1085007	PROB	5.25	n/a	n/a	-999	6	[9, 5, 8]	22	FR1	0	R1351M
1089.68	4.901	1090257	PROB	4.901	n/a	n/a	-999	6	[4, 9, 6]	19	FR1	0	R1351M
1094.581	11.525	1095158	PROB	11.525	n/a	n/a	-999	6	[7, 6, 9]	22	FR1	0	R1351M
1106.106	0.011	1106682	STOP	n/a	n/a	n/a	-999	6	[-999, -999, -999]	n/a	FR1	0	R1351M
1106.117	0.546	1106693	DISTRACT_END	n/a	n/a	n/a	-999	6	[0, 0, 0]	n/a	FR1	0	R1351M
1106.663	1.537	1107239	RETRIEVAL_ORIENT_START	n/a	n/a	n/a	-999	6	[0, 0, 0]	n/a	FR1	0	R1351M
1108.2	0.001	1108776	RETRIEVAL_ORIENT_END	n/a	n/a	n/a	-999	6	[0, 0, 0]	n/a	FR1	0	R1351M
1108.201	6.262	1108777	REC_START	n/a	n/a	n/a	-999	6	[0, 0, 0]	n/a	FR1	0	R1351M
1114.463	4.67	1115039	REC_WORD	4.67	n/a	CLOCK	-999	6	[0, 0, 0]	n/a	FR1	0	R1351M
1119.133	19.08	1119709	REC_WORD	19.08	n/a	BED	-999	6	[0, 0, 0]	n/a	FR1	0	R1351M
1138.213	0.0	1138788	REC_END	n/a	n/a	n/a	-999	6	[0, 0, 0]	n/a	FR1	0	R1351M
1138.213	0.014	1138788	TRIAL_END	n/a	n/a	n/a	-999	6	[0, 0, 0]	n/a	FR1	0	R1351M
1138.227	0.0	1138802	TRIAL_START	n/a	n/a	n/a	-999	7	[0, 0, 0]	n/a	FR1	0	R1351M
1138.227	0.0	1138802	TRIAL	n/a	n/a	n/a	-999	7	[0, 0, 0]	n/a	FR1	0	R1351M
1138.227	8.647	1138802	WAITING_START	n/a	n/a	n/a	-999	7	[0, 0, 0]	n/a	FR1	0	R1351M
1146.874	0.001	1147448	WAITING_END	n/a	n/a	n/a	-999	7	[0, 0, 0]	n/a	FR1	0	R1351M
1146.875	10.428	1147449	COUNTDOWN_START	n/a	n/a	n/a	-999	7	[0, 0, 0]	n/a	FR1	0	R1351M
1157.303	0.0	1157877	COUNTDOWN_END	n/a	n/a	n/a	-999	7	[0, 0, 0]	n/a	FR1	0	R1351M
1157.303	1.025	1157877	ORIENT_START	n/a	n/a	n/a	-999	7	[0, 0, 0]	n/a	FR1	0	R1351M
1158.328	0.0	1158902	ORIENT_END	n/a	n/a	n/a	-999	7	[0, 0, 0]	n/a	FR1	0	R1351M
1158.328	0.96	1158902	ENCODING_START	n/a	n/a	n/a	-999	7	[0, 0, 0]	n/a	FR1	0	R1351M
1159.288	1.622	1159862	WORD	n/a	n/a	LIP	1	7	[0, 0, 0]	n/a	FR1	0	R1351M
1160.91	0.946	1161484	WORD_OFF	n/a	n/a	LIP	1	7	[0, 0, 0]	n/a	FR1	0	R1351M
1161.856	1.606	1162429	WORD	n/a	n/a	SOUP	2	7	[0, 0, 0]	n/a	FR1	0	R1351M
1163.462	1.059	1164035	WORD_OFF	n/a	n/a	SOUP	2	7	[0, 0, 0]	n/a	FR1	0	R1351M
1164.521	1.624	1165094	WORD	n/a	n/a	SHIRT	3	7	[0, 0, 0]	n/a	FR1	0	R1351M
1166.145	1.012	1166718	WORD_OFF	n/a	n/a	SHIRT	3	7	[0, 0, 0]	n/a	FR1	0	R1351M
1167.157	1.622	1167730	WORD	n/a	n/a	EEL	4	7	[0, 0, 0]	n/a	FR1	0	R1351M
1168.779	0.883	1169352	WORD_OFF	n/a	n/a	EEL	4	7	[0, 0, 0]	n/a	FR1	0	R1351M
1169.662	1.634	1170235	WORD	n/a	n/a	SEA	5	7	[0, 0, 0]	n/a	FR1	0	R1351M
1171.296	1.044	1171869	WORD_OFF	n/a	n/a	SEA	5	7	[0, 0, 0]	n/a	FR1	0	R1351M
1172.34	1.623	1172913	WORD	n/a	n/a	POND	6	7	[0, 0, 0]	n/a	FR1	0	R1351M
1173.963	1.14	1174536	WORD_OFF	n/a	n/a	POND	6	7	[0, 0, 0]	n/a	FR1	0	R1351M
1175.103	1.627	1175676	WORD	n/a	n/a	SUIT	7	7	[0, 0, 0]	n/a	FR1	0	R1351M
1176.73	1.029	1177303	WORD_OFF	n/a	n/a	SUIT	7	7	[0, 0, 0]	n/a	FR1	0	R1351M
1177.759	1.623	1178332	WORD	n/a	n/a	FROG	8	7	[0, 0, 0]	n/a	FR1	0	R1351M
1179.382	1.057	1179955	WORD_OFF	n/a	n/a	FROG	8	7	[0, 0, 0]	n/a	FR1	0	R1351M
1180.439	1.626	1181012	WORD	n/a	n/a	COW	9	7	[0, 0, 0]	n/a	FR1	0	R1351M
1182.065	0.895	1182638	WORD_OFF	n/a	n/a	COW	9	7	[0, 0, 0]	n/a	FR1	0	R1351M
1182.96	1.622	1183532	WORD	n/a	n/a	PEAR	10	7	[0, 0, 0]	n/a	FR1	0	R1351M
1184.582	0.988	1185154	WORD_OFF	n/a	n/a	PEAR	10	7	[0, 0, 0]	n/a	FR1	0	R1351M
1185.57	1.629	1186142	WORD	n/a	n/a	THUMB	11	7	[0, 0, 0]	n/a	FR1	0	R1351M
1187.199	0.921	1187771	WORD_OFF	n/a	n/a	THUMB	11	7	[0, 0, 0]	n/a	FR1	0	R1351M
1188.12	1.629	1188692	WORD	n/a	n/a	BOARD	12	7	[0, 0, 0]	n/a	FR1	0	R1351M
1189.749	0.001	1190321	WORD_OFF	n/a	n/a	BOARD	12	7	[0, 0, 0]	n/a	FR1	0	R1351M
1189.75	0.0	1190322	ENCODING_END	n/a	n/a	n/a	-999	7	[0, 0, 0]	n/a	FR1	0	R1351M
1189.75	0.0	1190322	DISTRACT_START	n/a	n/a	n/a	-999	7	[0, 0, 0]	n/a	FR1	0	R1351M
1189.75	0.016	1190322	START	n/a	n/a	n/a	-999	7	[-999, -999, -999]	n/a	FR1	0	R1351M
1189.766	6.101	1190338	PROB	6.101	n/a	n/a	-999	7	[9, 2, 6]	17	FR1	0	R1351M
1195.867	8.768	1196439	PROB	8.768	n/a	n/a	-999	7	[9, 8, 5]	22	FR1	0	R1351M
1204.635	6.539	1205206	PROB	6.539	n/a	n/a	-999	7	[5, 4, 5]	14	FR1	0	R1351M
1211.174	0.013	1211745	STOP	n/a	n/a	n/a	-999	7	[-999, -999, -999]	n/a	FR1	0	R1351M
1211.187	0.608	1211758	DISTRACT_END	n/a	n/a	n/a	-999	7	[0, 0, 0]	n/a	FR1	0	R1351M
1211.795	1.643	1212366	RETRIEVAL_ORIENT_START	n/a	n/a	n/a	-999	7	[0, 0, 0]	n/a	FR1	0	R1351M
1213.438	0.001	1214009	RETRIEVAL_ORIENT_END	n/a	n/a	n/a	-999	7	[0, 0, 0]	n/a	FR1	0	R1351M
1213.439	1.075	1214010	REC_START	n/a	n/a	n/a	-999	7	[0, 0, 0]	n/a	FR1	0	R1351M
1214.514	0.537	1215085	REC_WORD_VV	0.537	n/a	<>	-999	7	[0, 0, 0]	n/a	FR1	0	R1351M
1215.051	8.828	1215622	REC_WORD	8.828	n/a	LIP	1	7	[0, 0, 0]	n/a	FR1	0	R1351M
1223.879	4.758	1224450	REC_WORD	4.758	n/a	SEAL	-999	7	[0, 0, 0]	n/a	FR1	0	R1351M
1228.637	10.812	1229207	REC_WORD	10.812	n/a	POND	6	7	[0, 0, 0]	n/a	FR1	0	R1351M
1239.449	0.468	1240019	REC_WORD_VV	0.468	n/a	<>	-999	7	[0, 0, 0]	n/a	FR1	0	R1351M
1239.917	3.535	1240487	REC_WORD	3.535	n/a	EEL	4	7	[0, 0, 0]	n/a	FR1	0	R1351M
1243.452	0.0	1244022	REC_END	n/a	n/a	n/a	-999	7	[0, 0, 0]	n/a	FR1	0	R1351M
1243.452	0.016	1244022	TRIAL_END	n/a	n/a	n/a	-999	7	[0, 0, 0]	n/a	FR1	0	R1351M
1243.468	0.0	1244038	TRIAL_START	n/a	n/a	n/a	-999	8	[0, 0, 0]	n/a	FR1	0	R1351M
1243.468	0.0	1244038	TRIAL	n/a	n/a	n/a	-999	8	[0, 0, 0]	n/a	FR1	0	R1351M
1243.468	41.417	1244038	WAITING_START	n/a	n/a	n/a	-999	8	[0, 0, 0]	n/a	FR1	0	R1351M
1284.885	0.0	1285453	COUNTDOWN_START	n/a	n/a	n/a	-999	8	[0, 0, 0]	n/a	FR1	0	R1351M
1284.885	10.429	1285453	WAITING_END	n/a	n/a	n/a	-999	8	[0, 0, 0]	n/a	FR1	0	R1351M
1295.314	0.0	1295881	COUNTDOWN_END	n/a	n/a	n/a	-999	8	[0, 0, 0]	n/a	FR1	0	R1351M
1295.314	1.124	1295881	ORIENT_START	n/a	n/a	n/a	-999	8	[0, 0, 0]	n/a	FR1	0	R1351M
1296.438	0.0	1297005	ORIENT_END	n/a	n/a	n/a	-999	8	[0, 0, 0]	n/a	FR1	0	R1351M
1296.438	1.037	1297005	ENCODING_START	n/a	n/a	n/a	-999	8	[0, 0, 0]	n/a	FR1	0	R1351M
1297.475	1.629	1298042	WORD	n/a	n/a	WEED	1	8	[0, 0, 0]	n/a	FR1	0	R1351M
1299.104	0.895	1299671	WORD_OFF	n/a	n/a	WEED	1	8	[0, 0, 0]	n/a	FR1	0	R1351M
1299.999	1.622	1300566	WORD	n/a	n/a	WHALE	2	8	[0, 0, 0]	n/a	FR1	0	R1351M
1301.621	0.786	1302188	WORD_OFF	n/a	n/a	WHALE	2	8	[0, 0, 0]	n/a	FR1	0	R1351M
1302.407	1.631	1302974	WORD	n/a	n/a	KITE	3	8	[0, 0, 0]	n/a	FR1	0	R1351M
1304.038	0.779	1304605	WORD_OFF	n/a	n/a	KITE	3	8	[0, 0, 0]	n/a	FR1	0	R1351M
1304.817	1.623	1305384	WORD	n/a	n/a	CRANE	4	8	[0, 0, 0]	n/a	FR1	0	R1351M
1306.44	0.906	1307007	WORD_OFF	n/a	n/a	CRANE	4	8	[0, 0, 0]	n/a	FR1	0	R1351M
1307.346	1.627	1307913	WORD	n/a	n/a	BIRD	5	8	[0, 0, 0]	n/a	FR1	0	R1351M
1308.973	1.008	1309539	WORD_OFF	n/a	n/a	BIRD	5	8	[0, 0, 0]	n/a	FR1	0	R1351M
1309.981	1.625	1310547	WORD	n/a	n/a	BAND	6	8	[0, 0, 0]	n/a	FR1	0	R1351M
1311.606	0.766	1312172	WORD_OFF	n/a	n/a	BAND	6	8	[0, 0, 0]	n/a	FR1	0	R1351M
1312.372	1.635	1312938	WORD	n/a	n/a	AXE	7	8	[0, 0, 0]	n/a	FR1	0	R1351M
1314.007	1.105	1314573	WORD_OFF	n/a	n/a	AXE	7	8	[0, 0, 0]	n/a	FR1	0	R1351M
1315.112	1.629	1315678	WORD	n/a	n/a	JAIL	8	8	[0, 0, 0]	n/a	FR1	0	R1351M
1316.741	0.778	1317307	WORD_OFF	n/a	n/a	JAIL	8	8	[0, 0, 0]	n/a	FR1	0	R1351M
1317.519	1.622	1318085	WORD	n/a	n/a	SOAP	9	8	[0, 0, 0]	n/a	FR1	0	R1351M
1319.141	0.993	1319707	WORD_OFF	n/a	n/a	SOAP	9	8	[0, 0, 0]	n/a	FR1	0	R1351M
1320.134	1.624	1320700	WORD	n/a	n/a	PANTS	10	8	[0, 0, 0]	n/a	FR1	0	R1351M
1321.758	0.863	1322324	WORD_OFF	n/a	n/a	PANTS	10	8	[0, 0, 0]	n/a	FR1	0	R1351M
1322.621	1.638	1323187	WORD	n/a	n/a	MOON	11	8	[0, 0, 0]	n/a	FR1	0	R1351M
1324.259	0.837	1324825	WORD_OFF	n/a	n/a	MOON	11	8	[0, 0, 0]	n/a	FR1	0	R1351M
1325.096	1.63	1325662	WORD	n/a	n/a	NEST	12	8	[0, 0, 0]	n/a	FR1	0	R1351M
1326.726	0.0	1327292	WORD_OFF	n/a	n/a	NEST	12	8	[0, 0, 0]	n/a	FR1	0	R1351M
1326.726	0.001	1327292	ENCODING_END	n/a	n/a	n/a	-999	8	[0, 0, 0]	n/a	FR1	0	R1351M
1326.727	0.0	1327293	DISTRACT_START	n/a	n/a	n/a	-999	8	[0, 0, 0]	n/a	FR1	0	R1351M
1326.727	0.015	1327293	START	n/a	n/a	n/a	-999	8	[-999, -999, -999]	n/a	FR1	0	R1351M
1326.742	6.736	1327308	PROB	6.736	n/a	n/a	-999	8	[3, 8, 7]	18	FR1	0	R1351M
1333.478	4.683	1334043	PROB	4.683	n/a	n/a	-999	8	[2, 1, 3]	6	FR1	0	R1351M
1338.161	4.051	1338726	PROB	4.051	n/a	n/a	-999	8	[3, 2, 5]	10	FR1	0	R1351M
1342.212	3.851	1342777	PROB	3.851	n/a	n/a	-999	8	[9, 5, 7]	21	FR1	0	R1351M
1346.063	5.307	1346628	PROB	5.307	n/a	n/a	-999	8	[5, 8, 6]	19	FR1	0	R1351M
1351.37	0.012	1351934	STOP	n/a	n/a	n/a	-999	8	[-999, -999, -999]	n/a	FR1	0	R1351M
1351.382	0.55	1351946	DISTRACT_END	n/a	n/a	n/a	-999	8	[0, 0, 0]	n/a	FR1	0	R1351M
1351.932	1.666	1352496	RETRIEVAL_ORIENT_START	n/a	n/a	n/a	-999	8	[0, 0, 0]	n/a	FR1	0	R1351M
1353.598	0.0	1354162	RETRIEVAL_ORIENT_END	n/a	n/a	n/a	-999	8	[0, 0, 0]	n/a	FR1	0	R1351M
1353.598	0.723	1354162	REC_START	n/a	n/a	n/a	-999	8	[0, 0, 0]	n/a	FR1	0	R1351M
1354.321	1.008	1354885	REC_WORD	1.008	n/a	WEED	1	8	[0, 0, 0]	n/a	FR1	0	R1351M
1355.329	1.234	1355893	REC_WORD	1.234	n/a	WHALE	2	8	[0, 0, 0]	n/a	FR1	0	R1351M
1356.563	1.147	1357127	REC_WORD	1.147	n/a	CRANE	4	8	[0, 0, 0]	n/a	FR1	0	R1351M
1357.71	4.726	1358274	REC_WORD	4.726	n/a	BIRD	5	8	[0, 0, 0]	n/a	FR1	0	R1351M
1362.436	16.195	1363000	REC_WORD	16.195	n/a	KITE	3	8	[0, 0, 0]	n/a	FR1	0	R1351M
1378.631	4.981	1379194	REC_WORD_VV	4.981	n/a	<>	-999	8	[0, 0, 0]	n/a	FR1	0	R1351M
1383.612	0.0	1384175	REC_END	n/a	n/a	n/a	-999	8	[0, 0, 0]	n/a	FR1	0	R1351M
1383.612	0.016	1384175	TRIAL_END	n/a	n/a	n/a	-999	8	[0, 0, 0]	n/a	FR1	0	R1351M
1383.628	0.001	1384191	TRIAL_START	n/a	n/a	n/a	-999	9	[0, 0, 0]	n/a	FR1	0	R1351M
1383.629	0.0	1384192	TRIAL	n/a	n/a	n/a	-999	9	[0, 0, 0]	n/a	FR1	0	R1351M
1383.629	7.159	1384192	WAITING_START	n/a	n/a	n/a	-999	9	[0, 0, 0]	n/a	FR1	0	R1351M
1390.788	0.001	1391351	WAITING_END	n/a	n/a	n/a	-999	9	[0, 0, 0]	n/a	FR1	0	R1351M
1390.789	10.429	1391352	COUNTDOWN_START	n/a	n/a	n/a	-999	9	[0, 0, 0]	n/a	FR1	0	R1351M
1401.218	0.0	1401780	COUNTDOWN_END	n/a	n/a	n/a	-999	9	[0, 0, 0]	n/a	FR1	0	R1351M
1401.218	1.124	1401780	ORIENT_START	n/a	n/a	n/a	-999	9	[0, 0, 0]	n/a	FR1	0	R1351M
1402.342	0.0	1402904	ORIENT_END	n/a	n/a	n/a	-999	9	[0, 0, 0]	n/a	FR1	0	R1351M
1402.342	1.077	1402904	ENCODING_START	n/a	n/a	n/a	-999	9	[0, 0, 0]	n/a	FR1	0	R1351M
1403.419	1.622	1403981	WORD	n/a	n/a	NET	1	9	[0, 0, 0]	n/a	FR1	0	R1351M
1405.041	0.987	1405603	WORD_OFF	n/a	n/a	NET	1	9	[0, 0, 0]	n/a	FR1	0	R1351M
1406.028	1.631	1406590	WORD	n/a	n/a	DOLL	2	9	[0, 0, 0]	n/a	FR1	0	R1351M
1407.659	0.888	1408221	WORD_OFF	n/a	n/a	DOLL	2	9	[0, 0, 0]	n/a	FR1	0	R1351M
1408.547	1.628	1409109	WORD	n/a	n/a	EAR	3	9	[0, 0, 0]	n/a	FR1	0	R1351M
1410.175	0.769	1410737	WORD_OFF	n/a	n/a	EAR	3	9	[0, 0, 0]	n/a	FR1	0	R1351M
1410.944	1.632	1411506	WORD	n/a	n/a	HOLE	4	9	[0, 0, 0]	n/a	FR1	0	R1351M
1412.576	1.058	1413138	WORD_OFF	n/a	n/a	HOLE	4	9	[0, 0, 0]	n/a	FR1	0	R1351M
1413.634	1.626	1414195	WORD	n/a	n/a	BRUSH	5	9	[0, 0, 0]	n/a	FR1	0	R1351M
1415.26	0.86	1415821	WORD_OFF	n/a	n/a	BRUSH	5	9	[0, 0, 0]	n/a	FR1	0	R1351M
1416.12	1.624	1416681	WORD	n/a	n/a	WHEEL	6	9	[0, 0, 0]	n/a	FR1	0	R1351M
1417.744	0.828	1418305	WORD_OFF	n/a	n/a	WHEEL	6	9	[0, 0, 0]	n/a	FR1	0	R1351M
1418.572	1.622	1419133	WORD	n/a	n/a	STOOL	7	9	[0, 0, 0]	n/a	FR1	0	R1351M
1420.194	0.866	1420755	WORD_OFF	n/a	n/a	STOOL	7	9	[0, 0, 0]	n/a	FR1	0	R1351M
1421.06	1.635	1421621	WORD	n/a	n/a	STORE	8	9	[0, 0, 0]	n/a	FR1	0	R1351M
1422.695	1.07	1423256	WORD_OFF	n/a	n/a	STORE	8	9	[0, 0, 0]	n/a	FR1	0	R1351M
1423.765	1.614	1424326	WORD	n/a	n/a	RAIN	9	9	[0, 0, 0]	n/a	FR1	0	R1351M
1425.379	0.948	1425940	WORD_OFF	n/a	n/a	RAIN	9	9	[0, 0, 0]	n/a	FR1	0	R1351M
1426.327	1.635	1426888	WORD	n/a	n/a	WOLF	10	9	[0, 0, 0]	n/a	FR1	0	R1351M
1427.962	0.998	1428523	WORD_OFF	n/a	n/a	WOLF	10	9	[0, 0, 0]	n/a	FR1	0	R1351M
1428.96	1.636	1429521	WORD	n/a	n/a	DUCK	11	9	[0, 0, 0]	n/a	FR1	0	R1351M
1430.596	0.837	1431157	WORD_OFF	n/a	n/a	DUCK	11	9	[0, 0, 0]	n/a	FR1	0	R1351M
1431.433	1.63	1431994	WORD	n/a	n/a	COUCH	12	9	[0, 0, 0]	n/a	FR1	0	R1351M
1433.063	0.001	1433624	WORD_OFF	n/a	n/a	COUCH	12	9	[0, 0, 0]	n/a	FR1	0	R1351M
1433.064	0.0	1433625	ENCODING_END	n/a	n/a	n/a	-999	9	[0, 0, 0]	n/a	FR1	0	R1351M
1433.064	0.0	1433625	DISTRACT_START	n/a	n/a	n/a	-999	9	[0, 0, 0]	n/a	FR1	0	R1351M
1433.064	0.016	1433625	START	n/a	n/a	n/a	-999	9	[-999, -999, -999]	n/a	FR1	0	R1351M
1433.08	5.352	1433641	PROB	5.352	n/a	n/a	-999	9	[4, 5, 1]	10	FR1	0	R1351M
1438.432	4.951	1438992	PROB	4.951	n/a	n/a	-999	9	[3, 6, 8]	17	FR1	0	R1351M
1443.383	4.5	1443943	PROB	4.5	n/a	n/a	-999	9	[6, 3, 1]	10	FR1	0	R1351M
1447.883	4.217	1448443	PROB	4.217	n/a	n/a	-999	9	[8, 4, 9]	21	FR1	0	R1351M
1452.1	5.382	1452660	PROB	5.382	n/a	n/a	-999	9	[6, 9, 4]	19	FR1	0	R1351M
1457.482	0.02	1458041	STOP	n/a	n/a	n/a	-999	9	[-999, -999, -999]	n/a	FR1	0	R1351M
1457.502	0.663	1458061	DISTRACT_END	n/a	n/a	n/a	-999	9	[0, 0, 0]	n/a	FR1	0	R1351M
1458.165	1.553	1458724	RETRIEVAL_ORIENT_START	n/a	n/a	n/a	-999	9	[0, 0, 0]	n/a	FR1	0	R1351M
1459.718	0.001	1460277	RETRIEVAL_ORIENT_END	n/a	n/a	n/a	-999	9	[0, 0, 0]	n/a	FR1	0	R1351M
1459.719	0.986	1460278	REC_START	n/a	n/a	n/a	-999	9	[0, 0, 0]	n/a	FR1	0	R1351M
1460.705	1.224	1461264	REC_WORD	1.224	n/a	NET	1	9	[0, 0, 0]	n/a	FR1	0	R1351M
1461.929	3.661	1462488	REC_WORD	3.661	n/a	DEER	-999	9	[0, 0, 0]	n/a	FR1	0	R1351M
1465.59	10.019	1466149	REC_WORD	10.019	n/a	EAR	3	9	[0, 0, 0]	n/a	FR1	0	R1351M
1475.609	11.817	1476167	REC_WORD	11.817	n/a	WOLF	10	9	[0, 0, 0]	n/a	FR1	0	R1351M
1487.426	2.306	1487984	REC_WORD_VV	2.306	n/a	<>	-999	9	[0, 0, 0]	n/a	FR1	0	R1351M
1489.732	0.0	1490290	REC_END	n/a	n/a	n/a	-999	9	[0, 0, 0]	n/a	FR1	0	R1351M
1489.732	0.015	1490290	TRIAL_END	n/a	n/a	n/a	-999	9	[0, 0, 0]	n/a	FR1	0	R1351M
1489.747	0.0	1490305	TRIAL_START	n/a	n/a	n/a	-999	10	[0, 0, 0]	n/a	FR1	0	R1351M
1489.747	0.001	1490305	TRIAL	n/a	n/a	n/a	-999	10	[0, 0, 0]	n/a	FR1	0	R1351M
1489.748	12.479	1490306	WAITING_START	n/a	n/a	n/a	-999	10	[0, 0, 0]	n/a	FR1	0	R1351M
1502.227	0.0	1502784	COUNTDOWN_START	n/a	n/a	n/a	-999	10	[0, 0, 0]	n/a	FR1	0	R1351M
1502.227	10.428	1502784	WAITING_END	n/a	n/a	n/a	-999	10	[0, 0, 0]	n/a	FR1	0	R1351M
1512.655	0.001	1513212	COUNTDOWN_END	n/a	n/a	n/a	-999	10	[0, 0, 0]	n/a	FR1	0	R1351M
1512.656	1.19	1513213	ORIENT_START	n/a	n/a	n/a	-999	10	[0, 0, 0]	n/a	FR1	0	R1351M
1513.846	0.0	1514403	ORIENT_END	n/a	n/a	n/a	-999	10	[0, 0, 0]	n/a	FR1	0	R1351M
1513.846	0.977	1514403	ENCODING_START	n/a	n/a	n/a	-999	10	[0, 0, 0]	n/a	FR1	0	R1351M
1514.823	1.624	1515380	WORD	n/a	n/a	WAVE	1	10	[0, 0, 0]	n/a	FR1	0	R1351M
1516.447	0.769	1517004	WORD_OFF	n/a	n/a	WAVE	1	10	[0, 0, 0]	n/a	FR1	0	R1351M
1517.216	1.631	1517773	WORD	n/a	n/a	ROPE	2	10	[0, 0, 0]	n/a	FR1	0	R1351M
1518.847	0.963	1519403	WORD_OFF	n/a	n/a	ROPE	2	10	[0, 0, 0]	n/a	FR1	0	R1351M
1519.81	1.638	1520366	WORD	n/a	n/a	APE	3	10	[0, 0, 0]	n/a	FR1	0	R1351M
1521.448	1.062	1522004	WORD_OFF	n/a	n/a	APE	3	10	[0, 0, 0]	n/a	FR1	0	R1351M
1522.51	1.638	1523066	WORD	n/a	n/a	SNAKE	4	10	[0, 0, 0]	n/a	FR1	0	R1351M
1524.148	1.119	1524704	WORD_OFF	n/a	n/a	SNAKE	4	10	[0, 0, 0]	n/a	FR1	0	R1351M
1525.267	1.631	1525823	WORD	n/a	n/a	TIE	5	10	[0, 0, 0]	n/a	FR1	0	R1351M
1526.898	1.031	1527454	WORD_OFF	n/a	n/a	TIE	5	10	[0, 0, 0]	n/a	FR1	0	R1351M
1527.929	1.636	1528485	WORD	n/a	n/a	SPRING	6	10	[0, 0, 0]	n/a	FR1	0	R1351M
1529.565	1.141	1530121	WORD_OFF	n/a	n/a	SPRING	6	10	[0, 0, 0]	n/a	FR1	0	R1351M
1530.706	1.627	1531262	WORD	n/a	n/a	LAND	7	10	[0, 0, 0]	n/a	FR1	0	R1351M
1532.333	1.05	1532889	WORD_OFF	n/a	n/a	LAND	7	10	[0, 0, 0]	n/a	FR1	0	R1351M
1533.383	1.633	1533939	WORD	n/a	n/a	SKY	8	10	[0, 0, 0]	n/a	FR1	0	R1351M
1535.016	0.756	1535572	WORD_OFF	n/a	n/a	SKY	8	10	[0, 0, 0]	n/a	FR1	0	R1351M
1535.772	1.612	1536328	WORD	n/a	n/a	CHIEF	9	10	[0, 0, 0]	n/a	FR1	0	R1351M
1537.384	1.016	1537940	WORD_OFF	n/a	n/a	CHIEF	9	10	[0, 0, 0]	n/a	FR1	0	R1351M
1538.4	1.634	1538956	WORD	n/a	n/a	LAKE	10	10	[0, 0, 0]	n/a	FR1	0	R1351M
1540.034	0.85	1540589	WORD_OFF	n/a	n/a	LAKE	10	10	[0, 0, 0]	n/a	FR1	0	R1351M
1540.884	1.635	1541439	WORD	n/a	n/a	ANT	11	10	[0, 0, 0]	n/a	FR1	0	R1351M
1542.519	1.119	1543074	WORD_OFF	n/a	n/a	ANT	11	10	[0, 0, 0]	n/a	FR1	0	R1351M
1543.638	1.63	1544193	WORD	n/a	n/a	GRASS	12	10	[0, 0, 0]	n/a	FR1	0	R1351M
1545.268	0.001	1545823	WORD_OFF	n/a	n/a	GRASS	12	10	[0, 0, 0]	n/a	FR1	0	R1351M
1545.269	0.0	1545824	DISTRACT_START	n/a	n/a	n/a	-999	10	[0, 0, 0]	n/a	FR1	0	R1351M
1545.269	0.0	1545824	ENCODING_END	n/a	n/a	n/a	-999	10	[0, 0, 0]	n/a	FR1	0	R1351M
1545.269	0.016	1545824	START	n/a	n/a	n/a	-999	10	[-999, -999, -999]	n/a	FR1	0	R1351M
1545.285	4.967	1545840	PROB	4.967	n/a	n/a	-999	10	[2, 4, 1]	7	FR1	0	R1351M
1550.252	3.918	1550807	PROB	3.918	n/a	n/a	-999	10	[7, 2, 8]	17	FR1	0	R1351M
1554.17	6.484	1554725	PROB	6.484	n/a	n/a	-999	10	[9, 7, 8]	24	FR1	0	R1351M
1560.654	3.918	1561208	PROB	3.918	n/a	n/a	-999	10	[6, 9, 7]	22	FR1	0	R1351M
1564.572	6.146	1565126	PROB	6.146	n/a	n/a	-999	10	[9, 6, 4]	19	FR1	0	R1351M
1570.718	0.022	1571272	STOP	n/a	n/a	n/a	-999	10	[-999, -999, -999]	n/a	FR1	0	R1351M
1570.74	0.617	1571294	DISTRACT_END	n/a	n/a	n/a	-999	10	[0, 0, 0]	n/a	FR1	0	R1351M
1571.357	1.6	1571911	RETRIEVAL_ORIENT_START	n/a	n/a	n/a	-999	10	[0, 0, 0]	n/a	FR1	0	R1351M
1572.957	0.0	1573511	RETRIEVAL_ORIENT_END	n/a	n/a	n/a	-999	10	[0, 0, 0]	n/a	FR1	0	R1351M
1572.957	1.474	1573511	REC_START	n/a	n/a	n/a	-999	10	[0, 0, 0]	n/a	FR1	0	R1351M
1574.431	0.549	1574985	REC_WORD	0.549	n/a	LAKE	10	10	[0, 0, 0]	n/a	FR1	0	R1351M
1574.98	17.873	1575534	REC_WORD	17.873	n/a	SKY	8	10	[0, 0, 0]	n/a	FR1	0	R1351M
1592.853	10.119	1593406	REC_WORD_VV	10.119	n/a	<>	-999	10	[0, 0, 0]	n/a	FR1	0	R1351M
1602.972	0.0	1603524	TRIAL_END	n/a	n/a	n/a	-999	10	[0, 0, 0]	n/a	FR1	0	R1351M
1602.972	0.016	1603524	REC_END	n/a	n/a	n/a	-999	10	[0, 0, 0]	n/a	FR1	0	R1351M
1602.988	0.0	1603540	TRIAL_START	n/a	n/a	n/a	-999	11	[0, 0, 0]	n/a	FR1	0	R1351M
1602.988	0.0	1603540	TRIAL	n/a	n/a	n/a	-999	11	[0, 0, 0]	n/a	FR1	0	R1351M
1602.988	31.031	1603540	WAITING_START	n/a	n/a	n/a	-999	11	[0, 0, 0]	n/a	FR1	0	R1351M
1634.019	0.0	1634570	WAITING_END	n/a	n/a	n/a	-999	11	[0, 0, 0]	n/a	FR1	0	R1351M
1634.019	10.43	1634570	COUNTDOWN_START	n/a	n/a	n/a	-999	11	[0, 0, 0]	n/a	FR1	0	R1351M
1644.449	0.0	1644999	ORIENT_START	n/a	n/a	n/a	-999	11	[0, 0, 0]	n/a	FR1	0	R1351M
1644.449	1.206	1644999	COUNTDOWN_END	n/a	n/a	n/a	-999	11	[0, 0, 0]	n/a	FR1	0	R1351M
1645.655	0.0	1646205	ENCODING_START	n/a	n/a	n/a	-999	11	[0, 0, 0]	n/a	FR1	0	R1351M
1645.655	1.122	1646205	ORIENT_END	n/a	n/a	n/a	-999	11	[0, 0, 0]	n/a	FR1	0	R1351M
1646.777	1.612	1647327	WORD	n/a	n/a	CART	1	11	[0, 0, 0]	n/a	FR1	0	R1351M
1648.389	0.848	1648939	WORD_OFF	n/a	n/a	CART	1	11	[0, 0, 0]	n/a	FR1	0	R1351M
1649.237	1.635	1649787	WORD	n/a	n/a	CLOUD	2	11	[0, 0, 0]	n/a	FR1	0	R1351M
1650.872	0.929	1651422	WORD_OFF	n/a	n/a	CLOUD	2	11	[0, 0, 0]	n/a	FR1	0	R1351M
1651.801	1.606	1652351	WORD	n/a	n/a	BOAT	3	11	[0, 0, 0]	n/a	FR1	0	R1351M
1653.407	0.841	1653957	WORD_OFF	n/a	n/a	BOAT	3	11	[0, 0, 0]	n/a	FR1	0	R1351M
1654.248	1.625	1654798	WORD	n/a	n/a	ROOF	4	11	[0, 0, 0]	n/a	FR1	0	R1351M
1655.873	0.768	1656423	WORD_OFF	n/a	n/a	ROOF	4	11	[0, 0, 0]	n/a	FR1	0	R1351M
1656.641	1.633	1657191	WORD	n/a	n/a	ICE	5	11	[0, 0, 0]	n/a	FR1	0	R1351M
1658.274	0.882	1658824	WORD_OFF	n/a	n/a	ICE	5	11	[0, 0, 0]	n/a	FR1	0	R1351M
1659.156	1.635	1659706	WORD	n/a	n/a	PEACH	6	11	[0, 0, 0]	n/a	FR1	0	R1351M
1660.791	0.927	1661341	WORD_OFF	n/a	n/a	PEACH	6	11	[0, 0, 0]	n/a	FR1	0	R1351M
1661.718	1.624	1662268	WORD	n/a	n/a	CLIFF	7	11	[0, 0, 0]	n/a	FR1	0	R1351M
1663.342	0.973	1663892	WORD_OFF	n/a	n/a	CLIFF	7	11	[0, 0, 0]	n/a	FR1	0	R1351M
1664.315	1.627	1664864	WORD	n/a	n/a	TOAD	8	11	[0, 0, 0]	n/a	FR1	0	R1351M
1665.942	0.864	1666491	WORD_OFF	n/a	n/a	TOAD	8	11	[0, 0, 0]	n/a	FR1	0	R1351M
1666.806	1.637	1667355	WORD	n/a	n/a	SCHOOL	9	11	[0, 0, 0]	n/a	FR1	0	R1351M
1668.443	1.053	1668992	WORD_OFF	n/a	n/a	SCHOOL	9	11	[0, 0, 0]	n/a	FR1	0	R1351M
1669.496	1.63	1670045	WORD	n/a	n/a	HOUSE	10	11	[0, 0, 0]	n/a	FR1	0	R1351M
1671.126	0.816	1671675	WORD_OFF	n/a	n/a	HOUSE	10	11	[0, 0, 0]	n/a	FR1	0	R1351M
1671.942	1.635	1672491	WORD	n/a	n/a	STAR	11	11	[0, 0, 0]	n/a	FR1	0	R1351M
1673.577	1.081	1674126	WORD_OFF	n/a	n/a	STAR	11	11	[0, 0, 0]	n/a	FR1	0	R1351M
1674.658	1.636	1675207	WORD	n/a	n/a	LOCK	12	11	[0, 0, 0]	n/a	FR1	0	R1351M
1676.294	0.0	1676843	WORD_OFF	n/a	n/a	LOCK	12	11	[0, 0, 0]	n/a	FR1	0	R1351M
1676.294	0.001	1676843	ENCODING_END	n/a	n/a	n/a	-999	11	[0, 0, 0]	n/a	FR1	0	R1351M
1676.295	0.0	1676844	DISTRACT_START	n/a	n/a	n/a	-999	11	[0, 0, 0]	n/a	FR1	0	R1351M
1676.295	0.015	1676844	START	n/a	n/a	n/a	-999	11	[-999, -999, -999]	n/a	FR1	0	R1351M
1676.31	3.651	1676859	PROB	3.651	n/a	n/a	-999	11	[1, 1, 1]	3	FR1	0	R1351M
1679.961	4.502	1680510	PROB	4.502	n/a	n/a	-999	11	[9, 4, 4]	17	FR1	0	R1351M
1684.463	4.85	1685012	PROB	4.85	n/a	n/a	-999	11	[3, 8, 9]	20	FR1	0	R1351M
1689.313	6.551	1689861	PROB	6.551	n/a	n/a	-999	11	[2, 6, 7]	15	FR1	0	R1351M
1695.864	4.558	1696412	PROB	4.558	n/a	n/a	-999	11	[3, 1, 3]	7	FR1	0	R1351M
1700.422	0.011	1700970	STOP	n/a	n/a	n/a	-999	11	[-999, -999, -999]	n/a	FR1	0	R1351M
1700.433	0.646	1700981	DISTRACT_END	n/a	n/a	n/a	-999	11	[0, 0, 0]	n/a	FR1	0	R1351M
1701.079	1.687	1701627	RETRIEVAL_ORIENT_START	n/a	n/a	n/a	-999	11	[0, 0, 0]	n/a	FR1	0	R1351M
1702.766	0.0	1703314	RETRIEVAL_ORIENT_END	n/a	n/a	n/a	-999	11	[0, 0, 0]	n/a	FR1	0	R1351M
1702.766	2.629	1703314	REC_START	n/a	n/a	n/a	-999	11	[0, 0, 0]	n/a	FR1	0	R1351M
1705.395	2.699	1705943	REC_WORD_VV	2.699	n/a	<>	-999	11	[0, 0, 0]	n/a	FR1	0	R1351M
1708.094	1.047	1708641	REC_WORD	1.047	n/a	CLIFF	7	11	[0, 0, 0]	n/a	FR1	0	R1351M
1709.141	1.375	1709688	REC_WORD	1.375	n/a	BOAT	3	11	[0, 0, 0]	n/a	FR1	0	R1351M
1710.516	6.011	1711063	REC_WORD	6.011	n/a	BEACH	-999	11	[0, 0, 0]	n/a	FR1	0	R1351M
1716.527	10.269	1717074	REC_WORD	10.269	n/a	HOUSE	10	11	[0, 0, 0]	n/a	FR1	0	R1351M
1726.796	5.981	1727343	REC_WORD	5.981	n/a	BIRD	-999	11	[0, 0, 0]	n/a	FR1	0	R1351M
1732.777	0.001	1733323	REC_END	n/a	n/a	n/a	-999	11	[0, 0, 0]	n/a	FR1	0	R1351M
1732.778	0.013	1733324	TRIAL_END	n/a	n/a	n/a	-999	11	[0, 0, 0]	n/a	FR1	0	R1351M
1732.791	0.001	1733337	TRIAL_START	n/a	n/a	n/a	-999	12	[0, 0, 0]	n/a	FR1	0	R1351M
1732.792	0.0	1733338	TRIAL	n/a	n/a	n/a	-999	12	[0, 0, 0]	n/a	FR1	0	R1351M
1732.792	9.015	1733338	WAITING_START	n/a	n/a	n/a	-999	12	[0, 0, 0]	n/a	FR1	0	R1351M
1741.807	0.0	1742353	WAITING_END	n/a	n/a	n/a	-999	12	[0, 0, 0]	n/a	FR1	0	R1351M
1741.807	10.429	1742353	COUNTDOWN_START	n/a	n/a	n/a	-999	12	[0, 0, 0]	n/a	FR1	0	R1351M
1752.236	0.0	1752781	COUNTDOWN_END	n/a	n/a	n/a	-999	12	[0, 0, 0]	n/a	FR1	0	R1351M
1752.236	1.257	1752781	ORIENT_START	n/a	n/a	n/a	-999	12	[0, 0, 0]	n/a	FR1	0	R1351M
1753.493	0.001	1754038	ORIENT_END	n/a	n/a	n/a	-999	12	[0, 0, 0]	n/a	FR1	0	R1351M
1753.494	1.002	1754039	ENCODING_START	n/a	n/a	n/a	-999	12	[0, 0, 0]	n/a	FR1	0	R1351M
1754.496	1.63	1755041	WORD	n/a	n/a	SNAIL	1	12	[0, 0, 0]	n/a	FR1	0	R1351M
1756.126	0.84	1756671	WORD_OFF	n/a	n/a	SNAIL	1	12	[0, 0, 0]	n/a	FR1	0	R1351M
1756.966	1.627	1757511	WORD	n/a	n/a	THREAD	2	12	[0, 0, 0]	n/a	FR1	0	R1351M
1758.593	1.065	1759138	WORD_OFF	n/a	n/a	THREAD	2	12	[0, 0, 0]	n/a	FR1	0	R1351M
1759.658	1.636	1760203	WORD	n/a	n/a	CASH	3	12	[0, 0, 0]	n/a	FR1	0	R1351M
1761.294	1.038	1761839	WORD_OFF	n/a	n/a	CASH	3	12	[0, 0, 0]	n/a	FR1	0	R1351M
1762.332	1.629	1762877	WORD	n/a	n/a	FLAG	4	12	[0, 0, 0]	n/a	FR1	0	R1351M
1763.961	0.826	1764506	WORD_OFF	n/a	n/a	FLAG	4	12	[0, 0, 0]	n/a	FR1	0	R1351M
1764.787	1.625	1765332	WORD	n/a	n/a	CAR	5	12	[0, 0, 0]	n/a	FR1	0	R1351M
1766.412	0.918	1766957	WORD_OFF	n/a	n/a	CAR	5	12	[0, 0, 0]	n/a	FR1	0	R1351M
1767.33	1.632	1767875	WORD	n/a	n/a	BLUSH	6	12	[0, 0, 0]	n/a	FR1	0	R1351M
1768.962	0.76	1769506	WORD_OFF	n/a	n/a	BLUSH	6	12	[0, 0, 0]	n/a	FR1	0	R1351M
1769.722	1.608	1770266	WORD	n/a	n/a	MOTH	7	12	[0, 0, 0]	n/a	FR1	0	R1351M
1771.33	0.907	1771874	WORD_OFF	n/a	n/a	MOTH	7	12	[0, 0, 0]	n/a	FR1	0	R1351M
1772.237	1.626	1772781	WORD	n/a	n/a	FARM	8	12	[0, 0, 0]	n/a	FR1	0	R1351M
1773.863	0.8	1774407	WORD_OFF	n/a	n/a	FARM	8	12	[0, 0, 0]	n/a	FR1	0	R1351M
1774.663	1.633	1775207	WORD	n/a	n/a	BREAD	9	12	[0, 0, 0]	n/a	FR1	0	R1351M
1776.296	0.863	1776840	WORD_OFF	n/a	n/a	BREAD	9	12	[0, 0, 0]	n/a	FR1	0	R1351M
1777.159	1.621	1777703	WORD	n/a	n/a	TRAY	10	12	[0, 0, 0]	n/a	FR1	0	R1351M
1778.78	1.119	1779324	WORD_OFF	n/a	n/a	TRAY	10	12	[0, 0, 0]	n/a	FR1	0	R1351M
1779.899	1.632	1780443	WORD	n/a	n/a	STREET	11	12	[0, 0, 0]	n/a	FR1	0	R1351M
1781.531	1.038	1782075	WORD_OFF	n/a	n/a	STREET	11	12	[0, 0, 0]	n/a	FR1	0	R1351M
1782.569	1.629	1783113	WORD	n/a	n/a	MAZE	12	12	[0, 0, 0]	n/a	FR1	0	R1351M
1784.198	0.0	1784742	WORD_OFF	n/a	n/a	MAZE	12	12	[0, 0, 0]	n/a	FR1	0	R1351M
1784.198	0.001	1784742	ENCODING_END	n/a	n/a	n/a	-999	12	[0, 0, 0]	n/a	FR1	0	R1351M
1784.199	0.0	1784743	DISTRACT_START	n/a	n/a	n/a	-999	12	[0, 0, 0]	n/a	FR1	0	R1351M
1784.199	0.015	1784743	START	n/a	n/a	n/a	-999	12	[-999, -999, -999]	n/a	FR1	0	R1351M
1784.214	4.485	1784758	PROB	4.485	n/a	n/a	-999	12	[3, 4, 2]	9	FR1	0	R1351M
1788.699	4.652	1789243	PROB	4.652	n/a	n/a	-999	12	[1, 3, 9]	13	FR1	0	R1351M
1793.351	3.084	1793894	PROB	3.084	n/a	n/a	-999	12	[1, 1, 5]	7	FR1	0	R1351M
1796.435	3.433	1796978	PROB	3.433	n/a	n/a	-999	12	[1, 3, 2]	6	FR1	0	R1351M
1799.868	3.884	1800411	PROB	3.884	n/a	n/a	-999	12	[9, 3, 9]	21	FR1	0	R1351M
1803.752	5.068	1804295	PROB	5.068	n/a	n/a	-999	12	[2, 5, 8]	15	FR1	0	R1351M
1808.82	0.016	1809363	STOP	n/a	n/a	n/a	-999	12	[-999, -999, -999]	n/a	FR1	0	R1351M
1808.836	0.647	1809379	DISTRACT_END	n/a	n/a	n/a	-999	12	[0, 0, 0]	n/a	FR1	0	R1351M
1809.483	1.554	1810026	RETRIEVAL_ORIENT_START	n/a	n/a	n/a	-999	12	[0, 0, 0]	n/a	FR1	0	R1351M
1811.037	0.0	1811579	RETRIEVAL_ORIENT_END	n/a	n/a	n/a	-999	12	[0, 0, 0]	n/a	FR1	0	R1351M
1811.037	4.474	1811579	REC_START	n/a	n/a	n/a	-999	12	[0, 0, 0]	n/a	FR1	0	R1351M
1815.511	0.155	1816053	REC_WORD_VV	0.155	n/a	<>	-999	12	[0, 0, 0]	n/a	FR1	0	R1351M
1815.666	2.99	1816208	REC_WORD	2.99	n/a	SNAIL	1	12	[0, 0, 0]	n/a	FR1	0	R1351M
1818.656	4.076	1819198	REC_WORD	4.076	n/a	MAZE	12	12	[0, 0, 0]	n/a	FR1	0	R1351M
1822.732	13.433	1823274	REC_WORD	13.433	n/a	PEACH	-999	12	[0, 0, 0]	n/a	FR1	0	R1351M
1836.165	4.885	1836706	REC_WORD	4.885	n/a	WAVE	-999	12	[0, 0, 0]	n/a	FR1	0	R1351M
1841.05	0.001	1841591	REC_END	n/a	n/a	n/a	-999	12	[0, 0, 0]	n/a	FR1	0	R1351M
1841.051	0.015	1841592	TRIAL_END	n/a	n/a	n/a	-999	12	[0, 0, 0]	n/a	FR1	0	R1351M
1841.066	0.001	1841607	TRIAL_START	n/a	n/a	n/a	-999	13	[0, 0, 0]	n/a	FR1	0	R1351M
1841.067	0.0	1841608	TRIAL	n/a	n/a	n/a	-999	13	[0, 0, 0]	n/a	FR1	0	R1351M
1841.067	12.511	1841608	WAITING_START	n/a	n/a	n/a	-999	13	[0, 0, 0]	n/a	FR1	0	R1351M
1853.578	0.001	1854118	WAITING_END	n/a	n/a	n/a	-999	13	[0, 0, 0]	n/a	FR1	0	R1351M
1853.579	10.429	1854119	COUNTDOWN_START	n/a	n/a	n/a	-999	13	[0, 0, 0]	n/a	FR1	0	R1351M
1864.008	0.001	1864548	COUNTDOWN_END	n/a	n/a	n/a	-999	13	[0, 0, 0]	n/a	FR1	0	R1351M
1864.009	1.138	1864549	ORIENT_START	n/a	n/a	n/a	-999	13	[0, 0, 0]	n/a	FR1	0	R1351M
1865.147	0.001	1865687	ORIENT_END	n/a	n/a	n/a	-999	13	[0, 0, 0]	n/a	FR1	0	R1351M
1865.148	1.036	1865688	ENCODING_START	n/a	n/a	n/a	-999	13	[0, 0, 0]	n/a	FR1	0	R1351M
1866.184	1.63	1866724	WORD	n/a	n/a	SHIP	1	13	[0, 0, 0]	n/a	FR1	0	R1351M
1867.814	0.869	1868354	WORD_OFF	n/a	n/a	SHIP	1	13	[0, 0, 0]	n/a	FR1	0	R1351M
1868.683	1.632	1869223	WORD	n/a	n/a	GLOVE	2	13	[0, 0, 0]	n/a	FR1	0	R1351M
1870.315	0.967	1870855	WORD_OFF	n/a	n/a	GLOVE	2	13	[0, 0, 0]	n/a	FR1	0	R1351M
1871.282	1.633	1871822	WORD	n/a	n/a	GLASS	3	13	[0, 0, 0]	n/a	FR1	0	R1351M
1872.915	0.869	1873455	WORD_OFF	n/a	n/a	GLASS	3	13	[0, 0, 0]	n/a	FR1	0	R1351M
1873.784	1.633	1874323	WORD	n/a	n/a	BATH	4	13	[0, 0, 0]	n/a	FR1	0	R1351M
1875.417	0.772	1875956	WORD_OFF	n/a	n/a	BATH	4	13	[0, 0, 0]	n/a	FR1	0	R1351M
1876.189	1.627	1876728	WORD	n/a	n/a	FLOOR	5	13	[0, 0, 0]	n/a	FR1	0	R1351M
1877.816	0.762	1878355	WORD_OFF	n/a	n/a	FLOOR	5	13	[0, 0, 0]	n/a	FR1	0	R1351M
1878.578	1.639	1879117	WORD	n/a	n/a	SHRIMP	6	13	[0, 0, 0]	n/a	FR1	0	R1351M
1880.217	0.91	1880756	WORD_OFF	n/a	n/a	SHRIMP	6	13	[0, 0, 0]	n/a	FR1	0	R1351M
1881.127	1.623	1881666	WORD	n/a	n/a	GATE	7	13	[0, 0, 0]	n/a	FR1	0	R1351M
1882.75	1.146	1883289	WORD_OFF	n/a	n/a	GATE	7	13	[0, 0, 0]	n/a	FR1	0	R1351M
1883.896	1.623	1884435	WORD	n/a	n/a	FOOD	8	13	[0, 0, 0]	n/a	FR1	0	R1351M
1885.519	0.932	1886058	WORD_OFF	n/a	n/a	FOOD	8	13	[0, 0, 0]	n/a	FR1	0	R1351M
1886.451	1.634	1886990	WORD	n/a	n/a	INK	9	13	[0, 0, 0]	n/a	FR1	0	R1351M
1888.085	1.025	1888624	WORD_OFF	n/a	n/a	INK	9	13	[0, 0, 0]	n/a	FR1	0	R1351M
1889.11	1.625	1889649	WORD	n/a	n/a	TAIL	10	13	[0, 0, 0]	n/a	FR1	0	R1351M
1890.735	1.138	1891274	WORD_OFF	n/a	n/a	TAIL	10	13	[0, 0, 0]	n/a	FR1	0	R1351M
1891.873	1.614	1892412	WORD	n/a	n/a	SPOON	11	13	[0, 0, 0]	n/a	FR1	0	R1351M
1893.487	0.792	1894026	WORD_OFF	n/a	n/a	SPOON	11	13	[0, 0, 0]	n/a	FR1	0	R1351M
1894.279	1.624	1894818	WORD	n/a	n/a	ROOM	12	13	[0, 0, 0]	n/a	FR1	0	R1351M
1895.903	0.0	1896441	WORD_OFF	n/a	n/a	ROOM	12	13	[0, 0, 0]	n/a	FR1	0	R1351M
1895.903	0.001	1896441	ENCODING_END	n/a	n/a	n/a	-999	13	[0, 0, 0]	n/a	FR1	0	R1351M
1895.904	0.0	1896442	DISTRACT_START	n/a	n/a	n/a	-999	13	[0, 0, 0]	n/a	FR1	0	R1351M
1895.904	0.016	1896442	START	n/a	n/a	n/a	-999	13	[-999, -999, -999]	n/a	FR1	0	R1351M
1895.92	5.267	1896458	PROB	5.267	n/a	n/a	-999	13	[7, 8, 3]	18	FR1	0	R1351M
1901.187	4.319	1901725	PROB	4.319	n/a	n/a	-999	13	[1, 5, 8]	14	FR1	0	R1351M
1905.506	3.449	1906044	PROB	3.449	n/a	n/a	-999	13	[2, 8, 1]	11	FR1	0	R1351M
1908.955	3.818	1909493	PROB	3.818	n/a	n/a	-999	13	[1, 6, 9]	16	FR1	0	R1351M
1912.773	7.661	1913311	PROB	7.661	n/a	n/a	-999	13	[5, 7, 6]	18	FR1	0	R1351M
1920.434	0.008	1920971	STOP	n/a	n/a	n/a	-999	13	[-999, -999, -999]	n/a	FR1	0	R1351M
1920.442	0.572	1920979	DISTRACT_END	n/a	n/a	n/a	-999	13	[0, 0, 0]	n/a	FR1	0	R1351M
1921.014	1.694	1921551	RETRIEVAL_ORIENT_START	n/a	n/a	n/a	-999	13	[0, 0, 0]	n/a	FR1	0	R1351M
1922.708	0.0	1923245	RETRIEVAL_ORIENT_END	n/a	n/a	n/a	-999	13	[0, 0, 0]	n/a	FR1	0	R1351M
1922.708	4.04	1923245	REC_START	n/a	n/a	n/a	-999	13	[0, 0, 0]	n/a	FR1	0	R1351M
1926.748	7.071	1927285	REC_WORD	7.071	n/a	SHIP	1	13	[0, 0, 0]	n/a	FR1	0	R1351M
1933.819	2.114	1934356	REC_WORD	2.114	n/a	GLOVE	2	13	[0, 0, 0]	n/a	FR1	0	R1351M
1935.933	16.789	1936470	REC_WORD	16.789	n/a	GLASS	3	13	[0, 0, 0]	n/a	FR1	0	R1351M
1952.722	0.0	1953258	REC_END	n/a	n/a	n/a	-999	13	[0, 0, 0]	n/a	FR1	0	R1351M
1952.722	0.016	1953258	TRIAL_END	n/a	n/a	n/a	-999	13	[0, 0, 0]	n/a	FR1	0	R1351M
1952.738	0.0	1953274	WAITING_START	n/a	n/a	n/a	-999	14	[0, 0, 0]	n/a	FR1	0	R1351M
1952.738	0.0	1953274	TRIAL_START	n/a	n/a	n/a	-999	14	[0, 0, 0]	n/a	FR1	0	R1351M
1952.738	9.696	1953274	TRIAL	n/a	n/a	n/a	-999	14	[0, 0, 0]	n/a	FR1	0	R1351M
1962.434	0.0	1962969	WAITING_END	n/a	n/a	n/a	-999	14	[0, 0, 0]	n/a	FR1	0	R1351M
1962.434	10.429	1962969	COUNTDOWN_START	n/a	n/a	n/a	-999	14	[0, 0, 0]	n/a	FR1	0	R1351M
1972.863	0.0	1973398	COUNTDOWN_END	n/a	n/a	n/a	-999	14	[0, 0, 0]	n/a	FR1	0	R1351M
1972.863	1.122	1973398	ORIENT_START	n/a	n/a	n/a	-999	14	[0, 0, 0]	n/a	FR1	0	R1351M
1973.985	0.0	1974520	ORIENT_END	n/a	n/a	n/a	-999	14	[0, 0, 0]	n/a	FR1	0	R1351M
1973.985	0.967	1974520	ENCODING_START	n/a	n/a	n/a	-999	14	[0, 0, 0]	n/a	FR1	0	R1351M
1974.952	1.634	1975487	WORD	n/a	n/a	STRAW	1	14	[0, 0, 0]	n/a	FR1	0	R1351M
1976.586	0.876	1977121	WORD_OFF	n/a	n/a	STRAW	1	14	[0, 0, 0]	n/a	FR1	0	R1351M
1977.462	1.624	1977997	WORD	n/a	n/a	RIB	2	14	[0, 0, 0]	n/a	FR1	0	R1351M
1979.086	1.083	1979620	WORD_OFF	n/a	n/a	RIB	2	14	[0, 0, 0]	n/a	FR1	0	R1351M
1980.169	1.634	1980703	WORD	n/a	n/a	WORM	3	14	[0, 0, 0]	n/a	FR1	0	R1351M
1981.803	1.042	1982337	WORD_OFF	n/a	n/a	WORM	3	14	[0, 0, 0]	n/a	FR1	0	R1351M
1982.845	1.61	1983379	WORD	n/a	n/a	PLANE	4	14	[0, 0, 0]	n/a	FR1	0	R1351M
1984.455	0.809	1984989	WORD_OFF	n/a	n/a	PLANE	4	14	[0, 0, 0]	n/a	FR1	0	R1351M
1985.264	1.623	1985798	WORD	n/a	n/a	PET	5	14	[0, 0, 0]	n/a	FR1	0	R1351M
1986.887	1.015	1987421	WORD_OFF	n/a	n/a	PET	5	14	[0, 0, 0]	n/a	FR1	0	R1351M
1987.902	1.636	1988436	WORD	n/a	n/a	TEETH	6	14	[0, 0, 0]	n/a	FR1	0	R1351M
1989.538	1.132	1990072	WORD_OFF	n/a	n/a	TEETH	6	14	[0, 0, 0]	n/a	FR1	0	R1351M
1990.67	1.635	1991204	WORD	n/a	n/a	DRUM	7	14	[0, 0, 0]	n/a	FR1	0	R1351M
1992.305	1.11	1992839	WORD_OFF	n/a	n/a	DRUM	7	14	[0, 0, 0]	n/a	FR1	0	R1351M
1993.415	1.624	1993949	WORD	n/a	n/a	LEAF	8	14	[0, 0, 0]	n/a	FR1	0	R1351M
1995.039	0.797	1995573	WORD_OFF	n/a	n/a	LEAF	8	14	[0, 0, 0]	n/a	FR1	0	R1351M
1995.836	1.638	1996370	WORD	n/a	n/a	STEM	9	14	[0, 0, 0]	n/a	FR1	0	R1351M
1997.474	0.877	1998008	WORD_OFF	n/a	n/a	STEM	9	14	[0, 0, 0]	n/a	FR1	0	R1351M
1998.351	1.622	1998885	WORD	n/a	n/a	MAIL	10	14	[0, 0, 0]	n/a	FR1	0	R1351M
1999.973	0.858	2000506	WORD_OFF	n/a	n/a	MAIL	10	14	[0, 0, 0]	n/a	FR1	0	R1351M
2000.831	1.627	2001364	WORD	n/a	n/a	STAIR	11	14	[0, 0, 0]	n/a	FR1	0	R1351M
2002.458	1.099	2002991	WORD_OFF	n/a	n/a	STAIR	11	14	[0, 0, 0]	n/a	FR1	0	R1351M
2003.557	1.634	2004090	WORD	n/a	n/a	PIN	12	14	[0, 0, 0]	n/a	FR1	0	R1351M
2005.191	0.001	2005724	WORD_OFF	n/a	n/a	PIN	12	14	[0, 0, 0]	n/a	FR1	0	R1351M
2005.192	0.0	2005725	ENCODING_END	n/a	n/a	n/a	-999	14	[0, 0, 0]	n/a	FR1	0	R1351M
2005.192	0.0	2005725	DISTRACT_START	n/a	n/a	n/a	-999	14	[0, 0, 0]	n/a	FR1	0	R1351M
2005.192	0.016	2005725	START	n/a	n/a	n/a	-999	14	[-999, -999, -999]	n/a	FR1	0	R1351M
2005.208	4.8	2005741	PROB	4.8	n/a	n/a	-999	14	[5, 5, 4]	14	FR1	0	R1351M
2010.008	6.618	2010541	PROB	6.618	n/a	n/a	-999	14	[7, 9, 2]	18	FR1	0	R1351M
2016.626	4.518	2017159	PROB	4.518	n/a	n/a	-999	14	[1, 3, 5]	9	FR1	0	R1351M
2021.144	5.184	2021676	PROB	5.184	n/a	n/a	-999	14	[1, 9, 9]	19	FR1	0	R1351M
2026.328	0.018	2026860	STOP	n/a	n/a	n/a	-999	14	[-999, -999, -999]	n/a	FR1	0	R1351M
2026.346	0.595	2026878	DISTRACT_END	n/a	n/a	n/a	-999	14	[0, 0, 0]	n/a	FR1	0	R1351M
2026.941	1.588	2027473	RETRIEVAL_ORIENT_START	n/a	n/a	n/a	-999	14	[0, 0, 0]	n/a	FR1	0	R1351M
2028.529	0.0	2029061	REC_START	n/a	n/a	n/a	-999	14	[0, 0, 0]	n/a	FR1	0	R1351M
2028.529	1.268	2029061	RETRIEVAL_ORIENT_END	n/a	n/a	n/a	-999	14	[0, 0, 0]	n/a	FR1	0	R1351M
2029.797	1.076	2030329	REC_WORD	1.076	n/a	PET	5	14	[0, 0, 0]	n/a	FR1	0	R1351M
2030.873	1.826	2031405	REC_WORD	1.826	n/a	PLANE	4	14	[0, 0, 0]	n/a	FR1	0	R1351M
2032.699	18.42	2033231	REC_WORD	18.42	n/a	TEETH	6	14	[0, 0, 0]	n/a	FR1	0	R1351M
2051.119	4.72	2051650	REC_WORD_VV	4.72	n/a	<>	-999	14	[0, 0, 0]	n/a	FR1	0	R1351M
2055.839	1.092	2056370	REC_WORD_VV	1.092	n/a	<>	-999	14	[0, 0, 0]	n/a	FR1	0	R1351M
2056.931	1.111	2057462	REC_WORD_VV	1.111	n/a	<>	-999	14	[0, 0, 0]	n/a	FR1	0	R1351M
2058.042	0.499	2058573	REC_WORD_VV	0.499	n/a	<>	-999	14	[0, 0, 0]	n/a	FR1	0	R1351M
2058.541	0.0	2059072	TRIAL_END	n/a	n/a	n/a	-999	14	[0, 0, 0]	n/a	FR1	0	R1351M
2058.541	0.016	2059072	REC_END	n/a	n/a	n/a	-999	14	[0, 0, 0]	n/a	FR1	0	R1351M
2058.557	0.0	2059088	TRIAL_START	n/a	n/a	n/a	-999	15	[0, 0, 0]	n/a	FR1	0	R1351M
2058.557	0.0	2059088	TRIAL	n/a	n/a	n/a	-999	15	[0, 0, 0]	n/a	FR1	0	R1351M
2058.557	10.363	2059088	WAITING_START	n/a	n/a	n/a	-999	15	[0, 0, 0]	n/a	FR1	0	R1351M
2068.92	0.0	2069450	WAITING_END	n/a	n/a	n/a	-999	15	[0, 0, 0]	n/a	FR1	0	R1351M
2068.92	10.429	2069450	COUNTDOWN_START	n/a	n/a	n/a	-999	15	[0, 0, 0]	n/a	FR1	0	R1351M
2079.349	0.0	2079879	ORIENT_START	n/a	n/a	n/a	-999	15	[0, 0, 0]	n/a	FR1	0	R1351M
2079.349	1.074	2079879	COUNTDOWN_END	n/a	n/a	n/a	-999	15	[0, 0, 0]	n/a	FR1	0	R1351M
2080.423	0.001	2080953	ORIENT_END	n/a	n/a	n/a	-999	15	[0, 0, 0]	n/a	FR1	0	R1351M
2080.424	0.981	2080954	ENCODING_START	n/a	n/a	n/a	-999	15	[0, 0, 0]	n/a	FR1	0	R1351M
2081.405	1.634	2081935	WORD	n/a	n/a	DESK	1	15	[0, 0, 0]	n/a	FR1	0	R1351M
2083.039	0.966	2083568	WORD_OFF	n/a	n/a	DESK	1	15	[0, 0, 0]	n/a	FR1	0	R1351M
2084.005	1.635	2084534	WORD	n/a	n/a	WORLD	2	15	[0, 0, 0]	n/a	FR1	0	R1351M
2085.64	0.816	2086169	WORD_OFF	n/a	n/a	WORLD	2	15	[0, 0, 0]	n/a	FR1	0	R1351M
2086.456	1.634	2086985	WORD	n/a	n/a	PHONE	3	15	[0, 0, 0]	n/a	FR1	0	R1351M
2088.09	0.979	2088619	WORD_OFF	n/a	n/a	PHONE	3	15	[0, 0, 0]	n/a	FR1	0	R1351M
2089.069	1.622	2089598	WORD	n/a	n/a	CALF	4	15	[0, 0, 0]	n/a	FR1	0	R1351M
2090.691	0.954	2091220	WORD_OFF	n/a	n/a	CALF	4	15	[0, 0, 0]	n/a	FR1	0	R1351M
2091.645	1.63	2092174	WORD	n/a	n/a	BOWL	5	15	[0, 0, 0]	n/a	FR1	0	R1351M
2093.275	1.041	2093804	WORD_OFF	n/a	n/a	BOWL	5	15	[0, 0, 0]	n/a	FR1	0	R1351M
2094.316	1.626	2094845	WORD	n/a	n/a	SWAMP	6	15	[0, 0, 0]	n/a	FR1	0	R1351M
2095.942	0.922	2096471	WORD_OFF	n/a	n/a	SWAMP	6	15	[0, 0, 0]	n/a	FR1	0	R1351M
2096.864	1.63	2097393	WORD	n/a	n/a	ROOT	7	15	[0, 0, 0]	n/a	FR1	0	R1351M
2098.494	0.867	2099023	WORD_OFF	n/a	n/a	ROOT	7	15	[0, 0, 0]	n/a	FR1	0	R1351M
2099.361	1.632	2099890	WORD	n/a	n/a	WOOD	8	15	[0, 0, 0]	n/a	FR1	0	R1351M
2100.993	1.012	2101522	WORD_OFF	n/a	n/a	WOOD	8	15	[0, 0, 0]	n/a	FR1	0	R1351M
2102.005	1.622	2102534	WORD	n/a	n/a	SEAL	9	15	[0, 0, 0]	n/a	FR1	0	R1351M
2103.627	0.924	2104156	WORD_OFF	n/a	n/a	SEAL	9	15	[0, 0, 0]	n/a	FR1	0	R1351M
2104.551	1.626	2105079	WORD	n/a	n/a	OAR	10	15	[0, 0, 0]	n/a	FR1	0	R1351M
2106.177	0.97	2106705	WORD_OFF	n/a	n/a	OAR	10	15	[0, 0, 0]	n/a	FR1	0	R1351M
2107.147	1.631	2107675	WORD	n/a	n/a	PEN	11	15	[0, 0, 0]	n/a	FR1	0	R1351M
2108.778	0.941	2109306	WORD_OFF	n/a	n/a	PEN	11	15	[0, 0, 0]	n/a	FR1	0	R1351M
2109.719	1.61	2110247	WORD	n/a	n/a	SHARK	12	15	[0, 0, 0]	n/a	FR1	0	R1351M
2111.329	0.001	2111857	WORD_OFF	n/a	n/a	SHARK	12	15	[0, 0, 0]	n/a	FR1	0	R1351M
2111.33	0.0	2111858	ENCODING_END	n/a	n/a	n/a	-999	15	[0, 0, 0]	n/a	FR1	0	R1351M
2111.33	0.0	2111858	DISTRACT_START	n/a	n/a	n/a	-999	15	[0, 0, 0]	n/a	FR1	0	R1351M
2111.33	0.016	2111858	START	n/a	n/a	n/a	-999	15	[-999, -999, -999]	n/a	FR1	0	R1351M
2111.346	4.75	2111874	PROB	4.75	n/a	n/a	-999	15	[2, 1, 3]	6	FR1	0	R1351M
2116.096	4.634	2116624	PROB	4.634	n/a	n/a	-999	15	[3, 2, 5]	10	FR1	0	R1351M
2120.73	6.101	2121258	PROB	6.101	n/a	n/a	-999	15	[1, 5, 9]	15	FR1	0	R1351M
2126.831	5.705	2127358	PROB	5.705	n/a	n/a	-999	15	[6, 8, 1]	15	FR1	0	R1351M
2132.536	0.013	2133063	STOP	n/a	n/a	n/a	-999	15	[-999, -999, -999]	n/a	FR1	0	R1351M
2132.549	0.532	2133076	DISTRACT_END	n/a	n/a	n/a	-999	15	[0, 0, 0]	n/a	FR1	0	R1351M
2133.081	1.602	2133608	RETRIEVAL_ORIENT_START	n/a	n/a	n/a	-999	15	[0, 0, 0]	n/a	FR1	0	R1351M
2134.683	0.0	2135210	RETRIEVAL_ORIENT_END	n/a	n/a	n/a	-999	15	[0, 0, 0]	n/a	FR1	0	R1351M
2134.683	1.673	2135210	REC_START	n/a	n/a	n/a	-999	15	[0, 0, 0]	n/a	FR1	0	R1351M
2136.356	0.56	2136883	REC_WORD	0.56	n/a	DESK	1	15	[0, 0, 0]	n/a	FR1	0	R1351M
2136.916	1.053	2137443	REC_WORD	1.053	n/a	WORLD	2	15	[0, 0, 0]	n/a	FR1	0	R1351M
2137.969	0.968	2138496	REC_WORD	0.968	n/a	PHONE	3	15	[0, 0, 0]	n/a	FR1	0	R1351M
2138.937	0.894	2139464	REC_WORD	0.894	n/a	BOWL	5	15	[0, 0, 0]	n/a	FR1	0	R1351M
2139.831	9.726	2140358	REC_WORD	9.726	n/a	PEN	11	15	[0, 0, 0]	n/a	FR1	0	R1351M
2149.557	15.14	2150083	REC_WORD_VV	15.14	n/a	<>	-999	15	[0, 0, 0]	n/a	FR1	0	R1351M
2164.697	0.0	2165223	TRIAL_END	n/a	n/a	n/a	-999	15	[0, 0, 0]	n/a	FR1	0	R1351M
2164.697	0.016	2165223	REC_END	n/a	n/a	n/a	-999	15	[0, 0, 0]	n/a	FR1	0	R1351M
2164.713	0.0	2165239	TRIAL_START	n/a	n/a	n/a	-999	16	[0, 0, 0]	n/a	FR1	0	R1351M
2164.713	0.0	2165239	TRIAL	n/a	n/a	n/a	-999	16	[0, 0, 0]	n/a	FR1	0	R1351M
2164.713	5.611	2165239	WAITING_START	n/a	n/a	n/a	-999	16	[0, 0, 0]	n/a	FR1	0	R1351M
2170.324	0.001	2170849	WAITING_END	n/a	n/a	n/a	-999	16	[0, 0, 0]	n/a	FR1	0	R1351M
2170.325	10.428	2170850	COUNTDOWN_START	n/a	n/a	n/a	-999	16	[0, 0, 0]	n/a	FR1	0	R1351M
2180.753	0.001	2181278	COUNTDOWN_END	n/a	n/a	n/a	-999	16	[0, 0, 0]	n/a	FR1	0	R1351M
2180.754	1.205	2181279	ORIENT_START	n/a	n/a	n/a	-999	16	[0, 0, 0]	n/a	FR1	0	R1351M
2181.959	0.0	2182484	ENCODING_START	n/a	n/a	n/a	-999	16	[0, 0, 0]	n/a	FR1	0	R1351M
2181.959	1.046	2182484	ORIENT_END	n/a	n/a	n/a	-999	16	[0, 0, 0]	n/a	FR1	0	R1351M
2183.005	1.638	2183530	WORD	n/a	n/a	BOY	1	16	[0, 0, 0]	n/a	FR1	0	R1351M
2184.643	0.794	2185168	WORD_OFF	n/a	n/a	BOY	1	16	[0, 0, 0]	n/a	FR1	0	R1351M
2185.437	1.623	2185962	WORD	n/a	n/a	PIG	2	16	[0, 0, 0]	n/a	FR1	0	R1351M
2187.06	0.886	2187585	WORD_OFF	n/a	n/a	PIG	2	16	[0, 0, 0]	n/a	FR1	0	R1351M
2187.946	1.631	2188470	WORD	n/a	n/a	OWL	3	16	[0, 0, 0]	n/a	FR1	0	R1351M
2189.577	0.885	2190101	WORD_OFF	n/a	n/a	OWL	3	16	[0, 0, 0]	n/a	FR1	0	R1351M
2190.462	1.632	2190986	WORD	n/a	n/a	STONE	4	16	[0, 0, 0]	n/a	FR1	0	R1351M
2192.094	0.869	2192618	WORD_OFF	n/a	n/a	STONE	4	16	[0, 0, 0]	n/a	FR1	0	R1351M
2192.963	1.631	2193487	WORD	n/a	n/a	CAKE	5	16	[0, 0, 0]	n/a	FR1	0	R1351M
2194.594	1.006	2195118	WORD_OFF	n/a	n/a	CAKE	5	16	[0, 0, 0]	n/a	FR1	0	R1351M
2195.6	1.628	2196124	WORD	n/a	n/a	SHEET	6	16	[0, 0, 0]	n/a	FR1	0	R1351M
2197.228	1.112	2197752	WORD_OFF	n/a	n/a	SHEET	6	16	[0, 0, 0]	n/a	FR1	0	R1351M
2198.34	1.622	2198864	WORD	n/a	n/a	ARK	7	16	[0, 0, 0]	n/a	FR1	0	R1351M
2199.962	0.972	2200486	WORD_OFF	n/a	n/a	ARK	7	16	[0, 0, 0]	n/a	FR1	0	R1351M
2200.934	1.629	2201458	WORD	n/a	n/a	CLOTH	8	16	[0, 0, 0]	n/a	FR1	0	R1351M
2202.563	1.141	2203087	WORD_OFF	n/a	n/a	CLOTH	8	16	[0, 0, 0]	n/a	FR1	0	R1351M
2203.704	1.627	2204228	WORD	n/a	n/a	BANK	9	16	[0, 0, 0]	n/a	FR1	0	R1351M
2205.331	1.149	2205855	WORD_OFF	n/a	n/a	BANK	9	16	[0, 0, 0]	n/a	FR1	0	R1351M
2206.48	1.634	2207004	WORD	n/a	n/a	COIN	10	16	[0, 0, 0]	n/a	FR1	0	R1351M
2208.114	0.796	2208638	WORD_OFF	n/a	n/a	COIN	10	16	[0, 0, 0]	n/a	FR1	0	R1351M
2208.91	1.605	2209433	WORD	n/a	n/a	GOAT	11	16	[0, 0, 0]	n/a	FR1	0	R1351M
2210.515	1.142	2211038	WORD_OFF	n/a	n/a	GOAT	11	16	[0, 0, 0]	n/a	FR1	0	R1351M
2211.657	1.624	2212180	WORD	n/a	n/a	HEART	12	16	[0, 0, 0]	n/a	FR1	0	R1351M
2213.281	0.001	2213804	WORD_OFF	n/a	n/a	HEART	12	16	[0, 0, 0]	n/a	FR1	0	R1351M
2213.282	0.0	2213805	ENCODING_END	n/a	n/a	n/a	-999	16	[0, 0, 0]	n/a	FR1	0	R1351M
2213.282	0.0	2213805	DISTRACT_START	n/a	n/a	n/a	-999	16	[0, 0, 0]	n/a	FR1	0	R1351M
2213.282	0.016	2213805	START	n/a	n/a	n/a	-999	16	[-999, -999, -999]	n/a	FR1	0	R1351M
2213.298	5.501	2213821	PROB	5.501	n/a	n/a	-999	16	[5, 9, 5]	19	FR1	0	R1351M
2218.799	4.084	2219322	PROB	4.084	n/a	n/a	-999	16	[6, 2, 7]	15	FR1	0	R1351M
2222.883	3.817	2223406	PROB	3.817	n/a	n/a	-999	16	[1, 9, 4]	14	FR1	0	R1351M
2226.7	4.736	2227223	PROB	4.736	n/a	n/a	-999	16	[5, 3, 8]	16	FR1	0	R1351M
2231.436	5.62	2231958	PROB	5.62	n/a	n/a	-999	16	[9, 3, 1]	13	FR1	0	R1351M
2237.056	0.013	2237578	STOP	n/a	n/a	n/a	-999	16	[-999, -999, -999]	n/a	FR1	0	R1351M
2237.069	0.629	2237591	DISTRACT_END	n/a	n/a	n/a	-999	16	[0, 0, 0]	n/a	FR1	0	R1351M
2237.698	1.706	2238220	RETRIEVAL_ORIENT_START	n/a	n/a	n/a	-999	16	[0, 0, 0]	n/a	FR1	0	R1351M
2239.404	0.001	2239926	RETRIEVAL_ORIENT_END	n/a	n/a	n/a	-999	16	[0, 0, 0]	n/a	FR1	0	R1351M
2239.405	1.437	2239927	REC_START	n/a	n/a	n/a	-999	16	[0, 0, 0]	n/a	FR1	0	R1351M
2240.842	0.756	2241364	REC_WORD	0.756	n/a	BOY	1	16	[0, 0, 0]	n/a	FR1	0	R1351M
2241.598	2.563	2242120	REC_WORD	2.563	n/a	PIG	2	16	[0, 0, 0]	n/a	FR1	0	R1351M
2244.161	0.714	2244683	REC_WORD_VV	0.714	n/a	<>	-999	16	[0, 0, 0]	n/a	FR1	0	R1351M
2244.875	0.626	2245397	REC_WORD	0.626	n/a	WORLD	-999	16	[0, 0, 0]	n/a	FR1	0	R1351M
2245.501	23.377	2246023	REC_WORD	23.377	n/a	GLASS	-999	16	[0, 0, 0]	n/a	FR1	0	R1351M
2268.878	0.541	2269399	REC_WORD_VV	0.541	n/a	<>	-999	16	[0, 0, 0]	n/a	FR1	0	R1351M
2269.419	0.0	2269940	REC_END	n/a	n/a	n/a	-999	16	[0, 0, 0]	n/a	FR1	0	R1351M
2269.419	0.014	2269940	TRIAL_END	n/a	n/a	n/a	-999	16	[0, 0, 0]	n/a	FR1	0	R1351M
2269.433	0.001	2269954	TRIAL_START	n/a	n/a	n/a	-999	17	[0, 0, 0]	n/a	FR1	0	R1351M
2269.434	0.0	2269955	TRIAL	n/a	n/a	n/a	-999	17	[0, 0, 0]	n/a	FR1	0	R1351M
2269.434	21.496	2269955	WAITING_START	n/a	n/a	n/a	-999	17	[0, 0, 0]	n/a	FR1	0	R1351M
2290.93	0.0	2291450	WAITING_END	n/a	n/a	n/a	-999	17	[0, 0, 0]	n/a	FR1	0	R1351M
2290.93	10.43	2291450	COUNTDOWN_START	n/a	n/a	n/a	-999	17	[0, 0, 0]	n/a	FR1	0	R1351M
2301.36	0.0	2301879	COUNTDOWN_END	n/a	n/a	n/a	-999	17	[0, 0, 0]	n/a	FR1	0	R1351M
2301.36	1.056	2301879	ORIENT_START	n/a	n/a	n/a	-999	17	[0, 0, 0]	n/a	FR1	0	R1351M
2302.416	0.001	2302935	ORIENT_END	n/a	n/a	n/a	-999	17	[0, 0, 0]	n/a	FR1	0	R1351M
2302.417	0.76	2302936	ENCODING_START	n/a	n/a	n/a	-999	17	[0, 0, 0]	n/a	FR1	0	R1351M
2303.177	1.622	2303696	WORD	n/a	n/a	FACE	1	17	[0, 0, 0]	n/a	FR1	0	R1351M
2304.799	0.957	2305318	WORD_OFF	n/a	n/a	FACE	1	17	[0, 0, 0]	n/a	FR1	0	R1351M
2305.756	1.612	2306275	WORD	n/a	n/a	DOG	2	17	[0, 0, 0]	n/a	FR1	0	R1351M
2307.368	1.046	2307887	WORD_OFF	n/a	n/a	DOG	2	17	[0, 0, 0]	n/a	FR1	0	R1351M
2308.414	1.636	2308933	WORD	n/a	n/a	SINK	3	17	[0, 0, 0]	n/a	FR1	0	R1351M
2310.05	0.94	2310569	WORD_OFF	n/a	n/a	SINK	3	17	[0, 0, 0]	n/a	FR1	0	R1351M
2310.99	1.627	2311509	WORD	n/a	n/a	BUSH	4	17	[0, 0, 0]	n/a	FR1	0	R1351M
2312.617	0.955	2313136	WORD_OFF	n/a	n/a	BUSH	4	17	[0, 0, 0]	n/a	FR1	0	R1351M
2313.572	1.629	2314090	WORD	n/a	n/a	DART	5	17	[0, 0, 0]	n/a	FR1	0	R1351M
2315.201	1.129	2315719	WORD_OFF	n/a	n/a	DART	5	17	[0, 0, 0]	n/a	FR1	0	R1351M
2316.33	1.622	2316848	WORD	n/a	n/a	FILM	6	17	[0, 0, 0]	n/a	FR1	0	R1351M
2317.952	1.028	2318470	WORD_OFF	n/a	n/a	FILM	6	17	[0, 0, 0]	n/a	FR1	0	R1351M
2318.98	1.622	2319498	WORD	n/a	n/a	OAK	7	17	[0, 0, 0]	n/a	FR1	0	R1351M
2320.602	0.944	2321120	WORD_OFF	n/a	n/a	OAK	7	17	[0, 0, 0]	n/a	FR1	0	R1351M
2321.546	1.623	2322064	WORD	n/a	n/a	BROOM	8	17	[0, 0, 0]	n/a	FR1	0	R1351M
2323.169	0.939	2323687	WORD_OFF	n/a	n/a	BROOM	8	17	[0, 0, 0]	n/a	FR1	0	R1351M
2324.108	1.629	2324626	WORD	n/a	n/a	SPEAR	9	17	[0, 0, 0]	n/a	FR1	0	R1351M
2325.737	0.998	2326255	WORD_OFF	n/a	n/a	SPEAR	9	17	[0, 0, 0]	n/a	FR1	0	R1351M
2326.735	1.62	2327253	WORD	n/a	n/a	PIPE	10	17	[0, 0, 0]	n/a	FR1	0	R1351M
2328.355	1.026	2328873	WORD_OFF	n/a	n/a	PIPE	10	17	[0, 0, 0]	n/a	FR1	0	R1351M
2329.381	1.623	2329899	WORD	n/a	n/a	FOX	11	17	[0, 0, 0]	n/a	FR1	0	R1351M
2331.004	1.0	2331522	WORD_OFF	n/a	n/a	FOX	11	17	[0, 0, 0]	n/a	FR1	0	R1351M
2332.004	1.634	2332522	WORD	n/a	n/a	ROAD	12	17	[0, 0, 0]	n/a	FR1	0	R1351M
2333.638	0.001	2334156	WORD_OFF	n/a	n/a	ROAD	12	17	[0, 0, 0]	n/a	FR1	0	R1351M
2333.639	0.0	2334157	ENCODING_END	n/a	n/a	n/a	-999	17	[0, 0, 0]	n/a	FR1	0	R1351M
2333.639	0.0	2334157	DISTRACT_START	n/a	n/a	n/a	-999	17	[0, 0, 0]	n/a	FR1	0	R1351M
2333.639	0.016	2334157	START	n/a	n/a	n/a	-999	17	[-999, -999, -999]	n/a	FR1	0	R1351M
2333.655	5.217	2334173	PROB	5.217	n/a	n/a	-999	17	[7, 3, 4]	14	FR1	0	R1351M
2338.872	4.801	2339389	PROB	4.801	n/a	n/a	-999	17	[1, 3, 4]	8	FR1	0	R1351M
2343.673	5.585	2344190	PROB	5.585	n/a	n/a	-999	17	[3, 5, 8]	16	FR1	0	R1351M
2349.258	3.267	2349775	PROB	3.267	n/a	n/a	-999	17	[2, 4, 3]	9	FR1	0	R1351M
2352.525	5.199	2353042	PROB	5.199	n/a	n/a	-999	17	[6, 8, 5]	19	FR1	0	R1351M
2357.724	0.019	2358240	STOP	n/a	n/a	n/a	-999	17	[-999, -999, -999]	n/a	FR1	0	R1351M
2357.743	0.6	2358259	DISTRACT_END	n/a	n/a	n/a	-999	17	[0, 0, 0]	n/a	FR1	0	R1351M
2358.343	1.667	2358859	RETRIEVAL_ORIENT_START	n/a	n/a	n/a	-999	17	[0, 0, 0]	n/a	FR1	0	R1351M
2360.01	0.0	2360526	RETRIEVAL_ORIENT_END	n/a	n/a	n/a	-999	17	[0, 0, 0]	n/a	FR1	0	R1351M
2360.01	1.356	2360526	REC_START	n/a	n/a	n/a	-999	17	[0, 0, 0]	n/a	FR1	0	R1351M
2361.366	0.957	2361882	REC_WORD	0.957	n/a	FACE	1	17	[0, 0, 0]	n/a	FR1	0	R1351M
2362.323	27.702	2362839	REC_WORD	27.702	n/a	DOG	2	17	[0, 0, 0]	n/a	FR1	0	R1351M
2390.025	0.0	2390540	REC_END	n/a	n/a	n/a	-999	17	[0, 0, 0]	n/a	FR1	0	R1351M
2390.025	0.014	2390540	TRIAL_END	n/a	n/a	n/a	-999	17	[0, 0, 0]	n/a	FR1	0	R1351M
2390.039	0.0	2390554	WAITING_START	n/a	n/a	n/a	-999	18	[0, 0, 0]	n/a	FR1	0	R1351M
2390.039	0.0	2390554	TRIAL	n/a	n/a	n/a	-999	18	[0, 0, 0]	n/a	FR1	0	R1351M
2390.039	8.962	2390554	TRIAL_START	n/a	n/a	n/a	-999	18	[0, 0, 0]	n/a	FR1	0	R1351M
2399.001	0.0	2399515	WAITING_END	n/a	n/a	n/a	-999	18	[0, 0, 0]	n/a	FR1	0	R1351M
2399.001	10.43	2399515	COUNTDOWN_START	n/a	n/a	n/a	-999	18	[0, 0, 0]	n/a	FR1	0	R1351M
2409.431	0.0	2409945	COUNTDOWN_END	n/a	n/a	n/a	-999	18	[0, 0, 0]	n/a	FR1	0	R1351M
2409.431	1.222	2409945	ORIENT_START	n/a	n/a	n/a	-999	18	[0, 0, 0]	n/a	FR1	0	R1351M
2410.653	0.0	2411167	ORIENT_END	n/a	n/a	n/a	-999	18	[0, 0, 0]	n/a	FR1	0	R1351M
2410.653	0.765	2411167	ENCODING_START	n/a	n/a	n/a	-999	18	[0, 0, 0]	n/a	FR1	0	R1351M
2411.418	1.636	2411932	WORD	n/a	n/a	GOLD	1	18	[0, 0, 0]	n/a	FR1	0	R1351M
2413.054	0.969	2413568	WORD_OFF	n/a	n/a	GOLD	1	18	[0, 0, 0]	n/a	FR1	0	R1351M
2414.023	1.631	2414537	WORD	n/a	n/a	PRINCE	2	18	[0, 0, 0]	n/a	FR1	0	R1351M
2415.654	0.791	2416168	WORD_OFF	n/a	n/a	PRINCE	2	18	[0, 0, 0]	n/a	FR1	0	R1351M
2416.445	1.626	2416959	WORD	n/a	n/a	ROSE	3	18	[0, 0, 0]	n/a	FR1	0	R1351M
2418.071	1.097	2418584	WORD_OFF	n/a	n/a	ROSE	3	18	[0, 0, 0]	n/a	FR1	0	R1351M
2419.168	1.637	2419681	WORD	n/a	n/a	MULE	4	18	[0, 0, 0]	n/a	FR1	0	R1351M
2420.805	0.988	2421318	WORD_OFF	n/a	n/a	MULE	4	18	[0, 0, 0]	n/a	FR1	0	R1351M
2421.793	1.63	2422306	WORD	n/a	n/a	CROW	5	18	[0, 0, 0]	n/a	FR1	0	R1351M
2423.423	0.946	2423936	WORD_OFF	n/a	n/a	CROW	5	18	[0, 0, 0]	n/a	FR1	0	R1351M
2424.369	1.62	2424882	WORD	n/a	n/a	CAT	6	18	[0, 0, 0]	n/a	FR1	0	R1351M
2425.989	0.958	2426502	WORD_OFF	n/a	n/a	CAT	6	18	[0, 0, 0]	n/a	FR1	0	R1351M
2426.947	1.626	2427460	WORD	n/a	n/a	PLANT	7	18	[0, 0, 0]	n/a	FR1	0	R1351M
2428.573	0.836	2429086	WORD_OFF	n/a	n/a	PLANT	7	18	[0, 0, 0]	n/a	FR1	0	R1351M
2429.409	1.631	2429922	WORD	n/a	n/a	CHAIR	8	18	[0, 0, 0]	n/a	FR1	0	R1351M
2431.04	1.004	2431553	WORD_OFF	n/a	n/a	CHAIR	8	18	[0, 0, 0]	n/a	FR1	0	R1351M
2432.044	1.63	2432557	WORD	n/a	n/a	HORN	9	18	[0, 0, 0]	n/a	FR1	0	R1351M
2433.674	1.105	2434187	WORD_OFF	n/a	n/a	HORN	9	18	[0, 0, 0]	n/a	FR1	0	R1351M
2434.779	1.63	2435292	WORD	n/a	n/a	FRUIT	10	18	[0, 0, 0]	n/a	FR1	0	R1351M
2436.409	1.014	2436922	WORD_OFF	n/a	n/a	FRUIT	10	18	[0, 0, 0]	n/a	FR1	0	R1351M
2437.423	1.636	2437936	WORD	n/a	n/a	TRASH	11	18	[0, 0, 0]	n/a	FR1	0	R1351M
2439.059	1.059	2439571	WORD_OFF	n/a	n/a	TRASH	11	18	[0, 0, 0]	n/a	FR1	0	R1351M
2440.118	1.624	2440630	WORD	n/a	n/a	FOAM	12	18	[0, 0, 0]	n/a	FR1	0	R1351M
2441.742	0.001	2442254	WORD_OFF	n/a	n/a	FOAM	12	18	[0, 0, 0]	n/a	FR1	0	R1351M
2441.743	0.0	2442255	ENCODING_END	n/a	n/a	n/a	-999	18	[0, 0, 0]	n/a	FR1	0	R1351M
2441.743	0.0	2442255	DISTRACT_START	n/a	n/a	n/a	-999	18	[0, 0, 0]	n/a	FR1	0	R1351M
2441.743	0.016	2442255	START	n/a	n/a	n/a	-999	18	[-999, -999, -999]	n/a	FR1	0	R1351M
2441.759	4.752	2442271	PROB	4.752	n/a	n/a	-999	18	[8, 7, 1]	16	FR1	0	R1351M
2446.511	3.8	2447023	PROB	3.8	n/a	n/a	-999	18	[5, 1, 9]	15	FR1	0	R1351M
2450.311	5.434	2450823	PROB	5.434	n/a	n/a	-999	18	[8, 8, 6]	22	FR1	0	R1351M
2455.745	7.261	2456257	PROB	7.261	n/a	n/a	-999	18	[7, 3, 8]	18	FR1	0	R1351M
2463.006	0.007	2463517	STOP	n/a	n/a	n/a	-999	18	[-999, -999, -999]	n/a	FR1	0	R1351M
2463.013	0.583	2463524	DISTRACT_END	n/a	n/a	n/a	-999	18	[0, 0, 0]	n/a	FR1	0	R1351M
2463.596	1.718	2464107	RETRIEVAL_ORIENT_START	n/a	n/a	n/a	-999	18	[0, 0, 0]	n/a	FR1	0	R1351M
2465.314	0.0	2465825	REC_START	n/a	n/a	n/a	-999	18	[0, 0, 0]	n/a	FR1	0	R1351M
2465.314	2.196	2465825	RETRIEVAL_ORIENT_END	n/a	n/a	n/a	-999	18	[0, 0, 0]	n/a	FR1	0	R1351M
2467.51	2.895	2468021	REC_WORD	2.895	n/a	ROSE	3	18	[0, 0, 0]	n/a	FR1	0	R1351M
2470.405	0.987	2470916	REC_WORD	0.987	n/a	BOWL	-999	18	[0, 0, 0]	n/a	FR1	0	R1351M
2471.392	23.937	2471903	REC_WORD	23.937	n/a	CAT	6	18	[0, 0, 0]	n/a	FR1	0	R1351M
2495.329	0.001	2495839	REC_END	n/a	n/a	n/a	-999	18	[0, 0, 0]	n/a	FR1	0	R1351M
2495.33	0.014	2495840	TRIAL_END	n/a	n/a	n/a	-999	18	[0, 0, 0]	n/a	FR1	0	R1351M
2495.344	0.0	2495854	WAITING_START	n/a	n/a	n/a	-999	19	[0, 0, 0]	n/a	FR1	0	R1351M
2495.344	0.0	2495854	TRIAL_START	n/a	n/a	n/a	-999	19	[0, 0, 0]	n/a	FR1	0	R1351M
2495.344	24.264	2495854	TRIAL	n/a	n/a	n/a	-999	19	[0, 0, 0]	n/a	FR1	0	R1351M
2519.608	0.0	2520117	COUNTDOWN_START	n/a	n/a	n/a	-999	19	[0, 0, 0]	n/a	FR1	0	R1351M
2519.608	10.429	2520117	WAITING_END	n/a	n/a	n/a	-999	19	[0, 0, 0]	n/a	FR1	0	R1351M
2530.037	0.0	2530545	COUNTDOWN_END	n/a	n/a	n/a	-999	19	[0, 0, 0]	n/a	FR1	0	R1351M
2530.037	1.123	2530545	ORIENT_START	n/a	n/a	n/a	-999	19	[0, 0, 0]	n/a	FR1	0	R1351M
2531.16	0.0	2531668	ORIENT_END	n/a	n/a	n/a	-999	19	[0, 0, 0]	n/a	FR1	0	R1351M
2531.16	0.866	2531668	ENCODING_START	n/a	n/a	n/a	-999	19	[0, 0, 0]	n/a	FR1	0	R1351M
2532.026	1.634	2532534	WORD	n/a	n/a	BEE	1	19	[0, 0, 0]	n/a	FR1	0	R1351M
2533.66	0.921	2534168	WORD_OFF	n/a	n/a	BEE	1	19	[0, 0, 0]	n/a	FR1	0	R1351M
2534.581	1.63	2535089	WORD	n/a	n/a	HILL	2	19	[0, 0, 0]	n/a	FR1	0	R1351M
2536.211	1.114	2536719	WORD_OFF	n/a	n/a	HILL	2	19	[0, 0, 0]	n/a	FR1	0	R1351M
2537.325	1.636	2537833	WORD	n/a	n/a	BARN	3	19	[0, 0, 0]	n/a	FR1	0	R1351M
2538.961	1.089	2539469	WORD_OFF	n/a	n/a	BARN	3	19	[0, 0, 0]	n/a	FR1	0	R1351M
2540.05	1.629	2540558	WORD	n/a	n/a	TOOTH	4	19	[0, 0, 0]	n/a	FR1	0	R1351M
2541.679	0.853	2542187	WORD_OFF	n/a	n/a	TOOTH	4	19	[0, 0, 0]	n/a	FR1	0	R1351M
2542.532	1.63	2543040	WORD	n/a	n/a	PIT	5	19	[0, 0, 0]	n/a	FR1	0	R1351M
2544.162	0.792	2544669	WORD_OFF	n/a	n/a	PIT	5	19	[0, 0, 0]	n/a	FR1	0	R1351M
2544.954	1.626	2545461	WORD	n/a	n/a	SWORD	6	19	[0, 0, 0]	n/a	FR1	0	R1351M
2546.58	0.87	2547087	WORD_OFF	n/a	n/a	SWORD	6	19	[0, 0, 0]	n/a	FR1	0	R1351M
2547.45	1.63	2547957	WORD	n/a	n/a	PIE	7	19	[0, 0, 0]	n/a	FR1	0	R1351M
2549.08	0.953	2549587	WORD_OFF	n/a	n/a	PIE	7	19	[0, 0, 0]	n/a	FR1	0	R1351M
2550.033	1.631	2550540	WORD	n/a	n/a	POLE	8	19	[0, 0, 0]	n/a	FR1	0	R1351M
2551.664	1.143	2552171	WORD_OFF	n/a	n/a	POLE	8	19	[0, 0, 0]	n/a	FR1	0	R1351M
2552.807	1.625	2553314	WORD	n/a	n/a	GRAPE	9	19	[0, 0, 0]	n/a	FR1	0	R1351M
2554.432	0.778	2554939	WORD_OFF	n/a	n/a	GRAPE	9	19	[0, 0, 0]	n/a	FR1	0	R1351M
2555.21	1.622	2555717	WORD	n/a	n/a	BEAN	10	19	[0, 0, 0]	n/a	FR1	0	R1351M
2556.832	1.135	2557339	WORD_OFF	n/a	n/a	BEAN	10	19	[0, 0, 0]	n/a	FR1	0	R1351M
2557.967	1.632	2558474	WORD	n/a	n/a	FENCE	11	19	[0, 0, 0]	n/a	FR1	0	R1351M
2559.599	0.809	2560106	WORD_OFF	n/a	n/a	FENCE	11	19	[0, 0, 0]	n/a	FR1	0	R1351M
2560.408	1.624	2560915	WORD	n/a	n/a	SKUNK	12	19	[0, 0, 0]	n/a	FR1	0	R1351M
2562.032	0.001	2562539	WORD_OFF	n/a	n/a	SKUNK	12	19	[0, 0, 0]	n/a	FR1	0	R1351M
2562.033	0.0	2562540	DISTRACT_START	n/a	n/a	n/a	-999	19	[0, 0, 0]	n/a	FR1	0	R1351M
2562.033	0.0	2562540	ENCODING_END	n/a	n/a	n/a	-999	19	[0, 0, 0]	n/a	FR1	0	R1351M
2562.033	0.016	2562540	START	n/a	n/a	n/a	-999	19	[-999, -999, -999]	n/a	FR1	0	R1351M
2562.049	5.068	2562556	PROB	5.068	n/a	n/a	-999	19	[4, 2, 8]	14	FR1	0	R1351M
2567.117	5.201	2567623	PROB	5.201	n/a	n/a	-999	19	[2, 7, 6]	15	FR1	0	R1351M
2572.318	5.467	2572824	PROB	5.467	n/a	n/a	-999	19	[8, 5, 6]	19	FR1	0	R1351M
2577.785	7.833	2578291	PROB	7.833	n/a	n/a	-999	19	[4, 4, 5]	13	FR1	0	R1351M
2585.618	0.019	2586123	STOP	n/a	n/a	n/a	-999	19	[-999, -999, -999]	n/a	FR1	0	R1351M
2585.637	0.507	2586142	DISTRACT_END	n/a	n/a	n/a	-999	19	[0, 0, 0]	n/a	FR1	0	R1351M
2586.144	1.693	2586649	RETRIEVAL_ORIENT_START	n/a	n/a	n/a	-999	19	[0, 0, 0]	n/a	FR1	0	R1351M
2587.837	0.001	2588342	RETRIEVAL_ORIENT_END	n/a	n/a	n/a	-999	19	[0, 0, 0]	n/a	FR1	0	R1351M
2587.838	2.503	2588343	REC_START	n/a	n/a	n/a	-999	19	[0, 0, 0]	n/a	FR1	0	R1351M
2590.341	0.511	2590846	REC_WORD	0.511	n/a	BEE	1	19	[0, 0, 0]	n/a	FR1	0	R1351M
2590.852	1.375	2591357	REC_WORD	1.375	n/a	HILL	2	19	[0, 0, 0]	n/a	FR1	0	R1351M
2592.227	5.007	2592732	REC_WORD	5.007	n/a	PIT	5	19	[0, 0, 0]	n/a	FR1	0	R1351M
2597.234	5.287	2597739	REC_WORD	5.287	n/a	POLE	8	19	[0, 0, 0]	n/a	FR1	0	R1351M
2602.521	15.328	2603026	REC_WORD	15.328	n/a	BARN	3	19	[0, 0, 0]	n/a	FR1	0	R1351M
2617.849	0.0	2618353	REC_END	n/a	n/a	n/a	-999	19	[0, 0, 0]	n/a	FR1	0	R1351M
2617.849	0.014	2618353	TRIAL_END	n/a	n/a	n/a	-999	19	[0, 0, 0]	n/a	FR1	0	R1351M
2617.863	0.0	2618367	TRIAL_START	n/a	n/a	n/a	-999	20	[0, 0, 0]	n/a	FR1	0	R1351M
2617.863	0.001	2618367	TRIAL	n/a	n/a	n/a	-999	20	[0, 0, 0]	n/a	FR1	0	R1351M
2617.864	5.781	2618368	WAITING_START	n/a	n/a	n/a	-999	20	[0, 0, 0]	n/a	FR1	0	R1351M
2623.645	0.0	2624149	WAITING_END	n/a	n/a	n/a	-999	20	[0, 0, 0]	n/a	FR1	0	R1351M
2623.645	10.429	2624149	COUNTDOWN_START	n/a	n/a	n/a	-999	20	[0, 0, 0]	n/a	FR1	0	R1351M
2634.074	0.0	2634577	ORIENT_START	n/a	n/a	n/a	-999	20	[0, 0, 0]	n/a	FR1	0	R1351M
2634.074	1.139	2634577	COUNTDOWN_END	n/a	n/a	n/a	-999	20	[0, 0, 0]	n/a	FR1	0	R1351M
2635.213	0.001	2635716	ORIENT_END	n/a	n/a	n/a	-999	20	[0, 0, 0]	n/a	FR1	0	R1351M
2635.214	0.868	2635717	ENCODING_START	n/a	n/a	n/a	-999	20	[0, 0, 0]	n/a	FR1	0	R1351M
2636.082	1.633	2636585	WORD	n/a	n/a	MAP	1	20	[0, 0, 0]	n/a	FR1	0	R1351M
2637.715	0.836	2638218	WORD_OFF	n/a	n/a	MAP	1	20	[0, 0, 0]	n/a	FR1	0	R1351M
2638.551	1.63	2639054	WORD	n/a	n/a	SEAT	2	20	[0, 0, 0]	n/a	FR1	0	R1351M
2640.181	0.941	2640684	WORD_OFF	n/a	n/a	SEAT	2	20	[0, 0, 0]	n/a	FR1	0	R1351M
2641.122	1.626	2641625	WORD	n/a	n/a	STEAM	3	20	[0, 0, 0]	n/a	FR1	0	R1351M
2642.748	0.952	2643251	WORD_OFF	n/a	n/a	STEAM	3	20	[0, 0, 0]	n/a	FR1	0	R1351M
2643.7	1.633	2644203	WORD	n/a	n/a	KEY	4	20	[0, 0, 0]	n/a	FR1	0	R1351M
2645.333	1.011	2645836	WORD_OFF	n/a	n/a	KEY	4	20	[0, 0, 0]	n/a	FR1	0	R1351M
2646.344	1.622	2646847	WORD	n/a	n/a	BOOK	5	20	[0, 0, 0]	n/a	FR1	0	R1351M
2647.966	0.757	2648469	WORD_OFF	n/a	n/a	BOOK	5	20	[0, 0, 0]	n/a	FR1	0	R1351M
2648.723	1.611	2649225	WORD	n/a	n/a	CUBE	6	20	[0, 0, 0]	n/a	FR1	0	R1351M
2650.334	1.01	2650836	WORD_OFF	n/a	n/a	CUBE	6	20	[0, 0, 0]	n/a	FR1	0	R1351M
2651.344	1.623	2651846	WORD	n/a	n/a	BAT	7	20	[0, 0, 0]	n/a	FR1	0	R1351M
2652.967	0.76	2653469	WORD_OFF	n/a	n/a	BAT	7	20	[0, 0, 0]	n/a	FR1	0	R1351M
2653.727	1.625	2654229	WORD	n/a	n/a	FOOT	8	20	[0, 0, 0]	n/a	FR1	0	R1351M
2655.352	1.093	2655854	WORD_OFF	n/a	n/a	FOOT	8	20	[0, 0, 0]	n/a	FR1	0	R1351M
2656.445	1.623	2656947	WORD	n/a	n/a	BEACH	9	20	[0, 0, 0]	n/a	FR1	0	R1351M
2658.068	1.08	2658570	WORD_OFF	n/a	n/a	BEACH	9	20	[0, 0, 0]	n/a	FR1	0	R1351M
2659.148	1.637	2659650	WORD	n/a	n/a	BEAK	10	20	[0, 0, 0]	n/a	FR1	0	R1351M
2660.785	1.141	2661287	WORD_OFF	n/a	n/a	BEAK	10	20	[0, 0, 0]	n/a	FR1	0	R1351M
2661.926	1.626	2662428	WORD	n/a	n/a	WALL	11	20	[0, 0, 0]	n/a	FR1	0	R1351M
2663.552	1.084	2664054	WORD_OFF	n/a	n/a	WALL	11	20	[0, 0, 0]	n/a	FR1	0	R1351M
2664.636	1.633	2665138	WORD	n/a	n/a	BLOOM	12	20	[0, 0, 0]	n/a	FR1	0	R1351M
2666.269	0.001	2666771	WORD_OFF	n/a	n/a	BLOOM	12	20	[0, 0, 0]	n/a	FR1	0	R1351M
2666.27	0.0	2666772	DISTRACT_START	n/a	n/a	n/a	-999	20	[0, 0, 0]	n/a	FR1	0	R1351M
2666.27	0.001	2666772	ENCODING_END	n/a	n/a	n/a	-999	20	[0, 0, 0]	n/a	FR1	0	R1351M
2666.271	0.015	2666773	START	n/a	n/a	n/a	-999	20	[-999, -999, -999]	n/a	FR1	0	R1351M
2666.286	4.152	2666788	PROB	4.152	n/a	n/a	-999	20	[1, 9, 1]	11	FR1	0	R1351M
2670.438	5.366	2670939	PROB	5.366	n/a	n/a	-999	20	[7, 6, 7]	20	FR1	0	R1351M
2675.804	7.002	2676305	PROB	7.002	n/a	n/a	-999	20	[9, 2, 1]	12	FR1	0	R1351M
2682.806	5.024	2683307	PROB	5.024	n/a	n/a	-999	20	[8, 1, 5]	14	FR1	0	R1351M
2687.83	0.01	2688331	STOP	n/a	n/a	n/a	-999	20	[-999, -999, -999]	n/a	FR1	0	R1351M
2687.84	0.679	2688341	DISTRACT_END	n/a	n/a	n/a	-999	20	[0, 0, 0]	n/a	FR1	0	R1351M
2688.519	1.638	2689020	RETRIEVAL_ORIENT_START	n/a	n/a	n/a	-999	20	[0, 0, 0]	n/a	FR1	0	R1351M
2690.157	0.001	2690658	RETRIEVAL_ORIENT_END	n/a	n/a	n/a	-999	20	[0, 0, 0]	n/a	FR1	0	R1351M
2690.158	2.677	2690659	REC_START	n/a	n/a	n/a	-999	20	[0, 0, 0]	n/a	FR1	0	R1351M
2692.835	5.269	2693335	REC_WORD	5.269	n/a	MAP	1	20	[0, 0, 0]	n/a	FR1	0	R1351M
2698.104	22.066	2698604	REC_WORD	22.066	n/a	CUBE	6	20	[0, 0, 0]	n/a	FR1	0	R1351M
2720.17	0.001	2720669	REC_END	n/a	n/a	n/a	-999	20	[0, 0, 0]	n/a	FR1	0	R1351M
2720.171	0.014	2720670	TRIAL_END	n/a	n/a	n/a	-999	20	[0, 0, 0]	n/a	FR1	0	R1351M
2720.185	0.0	2720684	WAITING_START	n/a	n/a	n/a	-999	21	[0, 0, 0]	n/a	FR1	0	R1351M
2720.185	0.0	2720684	TRIAL_START	n/a	n/a	n/a	-999	21	[0, 0, 0]	n/a	FR1	0	R1351M
2720.185	518.612	2720684	TRIAL	n/a	n/a	n/a	-999	21	[0, 0, 0]	n/a	FR1	0	R1351M
3238.797	0.001	3239271	WAITING_END	n/a	n/a	n/a	-999	21	[0, 0, 0]	n/a	FR1	0	R1351M
3238.798	10.429	3239272	COUNTDOWN_START	n/a	n/a	n/a	-999	21	[0, 0, 0]	n/a	FR1	0	R1351M
3249.227	0.0	3249701	COUNTDOWN_END	n/a	n/a	n/a	-999	21	[0, 0, 0]	n/a	FR1	0	R1351M
3249.227	1.224	3249701	ORIENT_START	n/a	n/a	n/a	-999	21	[0, 0, 0]	n/a	FR1	0	R1351M
3250.451	0.0	3250925	ORIENT_END	n/a	n/a	n/a	-999	21	[0, 0, 0]	n/a	FR1	0	R1351M
3250.451	0.876	3250925	ENCODING_START	n/a	n/a	n/a	-999	21	[0, 0, 0]	n/a	FR1	0	R1351M
3251.327	1.623	3251801	WORD	n/a	n/a	MOLE	1	21	[0, 0, 0]	n/a	FR1	0	R1351M
3252.95	0.963	3253424	WORD_OFF	n/a	n/a	MOLE	1	21	[0, 0, 0]	n/a	FR1	0	R1351M
3253.913	1.637	3254387	WORD	n/a	n/a	HEN	2	21	[0, 0, 0]	n/a	FR1	0	R1351M
3255.55	0.982	3256024	WORD_OFF	n/a	n/a	HEN	2	21	[0, 0, 0]	n/a	FR1	0	R1351M
3256.532	1.636	3257005	WORD	n/a	n/a	PLATE	3	21	[0, 0, 0]	n/a	FR1	0	R1351M
3258.168	0.81	3258641	WORD_OFF	n/a	n/a	PLATE	3	21	[0, 0, 0]	n/a	FR1	0	R1351M
3258.978	1.624	3259451	WORD	n/a	n/a	HOOF	4	21	[0, 0, 0]	n/a	FR1	0	R1351M
3260.602	1.029	3261075	WORD_OFF	n/a	n/a	HOOF	4	21	[0, 0, 0]	n/a	FR1	0	R1351M
3261.631	1.621	3262104	WORD	n/a	n/a	JEEP	5	21	[0, 0, 0]	n/a	FR1	0	R1351M
3263.252	0.942	3263725	WORD_OFF	n/a	n/a	JEEP	5	21	[0, 0, 0]	n/a	FR1	0	R1351M
3264.194	1.625	3264667	WORD	n/a	n/a	DRESS	6	21	[0, 0, 0]	n/a	FR1	0	R1351M
3265.819	0.843	3266292	WORD_OFF	n/a	n/a	DRESS	6	21	[0, 0, 0]	n/a	FR1	0	R1351M
3266.662	1.624	3267135	WORD	n/a	n/a	YARD	7	21	[0, 0, 0]	n/a	FR1	0	R1351M
3268.286	0.978	3268759	WORD_OFF	n/a	n/a	YARD	7	21	[0, 0, 0]	n/a	FR1	0	R1351M
3269.264	1.623	3269737	WORD	n/a	n/a	FLUTE	8	21	[0, 0, 0]	n/a	FR1	0	R1351M
3270.887	0.86	3271360	WORD_OFF	n/a	n/a	FLUTE	8	21	[0, 0, 0]	n/a	FR1	0	R1351M
3271.747	1.608	3272220	WORD	n/a	n/a	MOUTH	9	21	[0, 0, 0]	n/a	FR1	0	R1351M
3273.355	0.955	3273828	WORD_OFF	n/a	n/a	MOUTH	9	21	[0, 0, 0]	n/a	FR1	0	R1351M
3274.31	1.628	3274783	WORD	n/a	n/a	WAND	10	21	[0, 0, 0]	n/a	FR1	0	R1351M
3275.938	0.962	3276411	WORD_OFF	n/a	n/a	WAND	10	21	[0, 0, 0]	n/a	FR1	0	R1351M
3276.9	1.638	3277372	WORD	n/a	n/a	BENCH	11	21	[0, 0, 0]	n/a	FR1	0	R1351M
3278.538	0.8	3279010	WORD_OFF	n/a	n/a	BENCH	11	21	[0, 0, 0]	n/a	FR1	0	R1351M
3279.338	1.634	3279810	WORD	n/a	n/a	DOOR	12	21	[0, 0, 0]	n/a	FR1	0	R1351M
3280.972	0.001	3281444	WORD_OFF	n/a	n/a	DOOR	12	21	[0, 0, 0]	n/a	FR1	0	R1351M
3280.973	0.0	3281445	ENCODING_END	n/a	n/a	n/a	-999	21	[0, 0, 0]	n/a	FR1	0	R1351M
3280.973	0.0	3281445	DISTRACT_START	n/a	n/a	n/a	-999	21	[0, 0, 0]	n/a	FR1	0	R1351M
3280.973	0.015	3281445	START	n/a	n/a	n/a	-999	21	[-999, -999, -999]	n/a	FR1	0	R1351M
3280.988	5.336	3281460	PROB	5.336	n/a	n/a	-999	21	[8, 2, 6]	16	FR1	0	R1351M
3286.324	5.383	3286796	PROB	5.383	n/a	n/a	-999	21	[5, 9, 3]	17	FR1	0	R1351M
3291.707	5.051	3292179	PROB	5.051	n/a	n/a	-999	21	[1, 5, 9]	15	FR1	0	R1351M
3296.758	4.499	3297230	PROB	4.499	n/a	n/a	-999	21	[6, 4, 3]	13	FR1	0	R1351M
3301.257	0.019	3301728	STOP	n/a	n/a	n/a	-999	21	[-999, -999, -999]	n/a	FR1	0	R1351M
3301.276	0.638	3301747	DISTRACT_END	n/a	n/a	n/a	-999	21	[0, 0, 0]	n/a	FR1	0	R1351M
3301.914	1.646	3302385	RETRIEVAL_ORIENT_START	n/a	n/a	n/a	-999	21	[0, 0, 0]	n/a	FR1	0	R1351M
3303.56	0.0	3304031	REC_START	n/a	n/a	n/a	-999	21	[0, 0, 0]	n/a	FR1	0	R1351M
3303.56	1.337	3304031	RETRIEVAL_ORIENT_END	n/a	n/a	n/a	-999	21	[0, 0, 0]	n/a	FR1	0	R1351M
3304.897	0.675	3305368	REC_WORD	0.675	n/a	MOLE	1	21	[0, 0, 0]	n/a	FR1	0	R1351M
3305.572	1.44	3306043	REC_WORD	1.44	n/a	HEN	2	21	[0, 0, 0]	n/a	FR1	0	R1351M
3307.012	1.21	3307483	REC_WORD	1.21	n/a	HOOF	4	21	[0, 0, 0]	n/a	FR1	0	R1351M
3308.222	1.439	3308693	REC_WORD	1.439	n/a	YARD	7	21	[0, 0, 0]	n/a	FR1	0	R1351M
3309.661	6.106	3310132	REC_WORD	6.106	n/a	BENCH	11	21	[0, 0, 0]	n/a	FR1	0	R1351M
3315.767	17.806	3316238	REC_WORD	17.806	n/a	SEAT	-999	21	[0, 0, 0]	n/a	FR1	0	R1351M
3333.573	0.0	3334043	REC_END	n/a	n/a	n/a	-999	21	[0, 0, 0]	n/a	FR1	0	R1351M
3333.573	0.017	3334043	TRIAL_END	n/a	n/a	n/a	-999	21	[0, 0, 0]	n/a	FR1	0	R1351M
3333.59	0.0	3334060	TRIAL_START	n/a	n/a	n/a	-999	22	[0, 0, 0]	n/a	FR1	0	R1351M
3333.59	0.001	3334060	TRIAL	n/a	n/a	n/a	-999	22	[0, 0, 0]	n/a	FR1	0	R1351M
3333.591	32.248	3334061	WAITING_START	n/a	n/a	n/a	-999	22	[0, 0, 0]	n/a	FR1	0	R1351M
3365.839	0.0	3366307	WAITING_END	n/a	n/a	n/a	-999	22	[0, 0, 0]	n/a	FR1	0	R1351M
3365.839	10.429	3366307	COUNTDOWN_START	n/a	n/a	n/a	-999	22	[0, 0, 0]	n/a	FR1	0	R1351M
3376.268	0.0	3376736	COUNTDOWN_END	n/a	n/a	n/a	-999	22	[0, 0, 0]	n/a	FR1	0	R1351M
3376.268	1.24	3376736	ORIENT_START	n/a	n/a	n/a	-999	22	[0, 0, 0]	n/a	FR1	0	R1351M
3377.508	0.001	3377976	ORIENT_END	n/a	n/a	n/a	-999	22	[0, 0, 0]	n/a	FR1	0	R1351M
3377.509	0.876	3377977	ENCODING_START	n/a	n/a	n/a	-999	22	[0, 0, 0]	n/a	FR1	0	R1351M
3378.385	1.623	3378853	WORD	n/a	n/a	JET	1	22	[0, 0, 0]	n/a	FR1	0	R1351M
3380.008	0.946	3380476	WORD_OFF	n/a	n/a	JET	1	22	[0, 0, 0]	n/a	FR1	0	R1351M
3380.954	1.621	3381422	WORD	n/a	n/a	SAIL	2	22	[0, 0, 0]	n/a	FR1	0	R1351M
3382.575	0.781	3383042	WORD_OFF	n/a	n/a	SAIL	2	22	[0, 0, 0]	n/a	FR1	0	R1351M
3383.356	1.636	3383823	WORD	n/a	n/a	SPONGE	3	22	[0, 0, 0]	n/a	FR1	0	R1351M
3384.992	0.935	3385459	WORD_OFF	n/a	n/a	SPONGE	3	22	[0, 0, 0]	n/a	FR1	0	R1351M
3385.927	1.632	3386394	WORD	n/a	n/a	HOSE	4	22	[0, 0, 0]	n/a	FR1	0	R1351M
3387.559	1.109	3388026	WORD_OFF	n/a	n/a	HOSE	4	22	[0, 0, 0]	n/a	FR1	0	R1351M
3388.668	1.625	3389135	WORD	n/a	n/a	BOX	5	22	[0, 0, 0]	n/a	FR1	0	R1351M
3390.293	1.089	3390760	WORD_OFF	n/a	n/a	BOX	5	22	[0, 0, 0]	n/a	FR1	0	R1351M
3391.382	1.629	3391849	WORD	n/a	n/a	SLEEVE	6	22	[0, 0, 0]	n/a	FR1	0	R1351M
3393.011	0.752	3393478	WORD_OFF	n/a	n/a	SLEEVE	6	22	[0, 0, 0]	n/a	FR1	0	R1351M
3393.763	1.632	3394230	WORD	n/a	n/a	VASE	7	22	[0, 0, 0]	n/a	FR1	0	R1351M
3395.395	0.808	3395862	WORD_OFF	n/a	n/a	VASE	7	22	[0, 0, 0]	n/a	FR1	0	R1351M
3396.203	1.625	3396670	WORD	n/a	n/a	EGG	8	22	[0, 0, 0]	n/a	FR1	0	R1351M
3397.828	0.772	3398295	WORD_OFF	n/a	n/a	EGG	8	22	[0, 0, 0]	n/a	FR1	0	R1351M
3398.6	1.629	3399067	WORD	n/a	n/a	STICK	9	22	[0, 0, 0]	n/a	FR1	0	R1351M
3400.229	1.009	3400696	WORD_OFF	n/a	n/a	STICK	9	22	[0, 0, 0]	n/a	FR1	0	R1351M
3401.238	1.624	3401705	WORD	n/a	n/a	DOCK	10	22	[0, 0, 0]	n/a	FR1	0	R1351M
3402.862	1.09	3403328	WORD_OFF	n/a	n/a	DOCK	10	22	[0, 0, 0]	n/a	FR1	0	R1351M
3403.952	1.628	3404418	WORD	n/a	n/a	SLUSH	11	22	[0, 0, 0]	n/a	FR1	0	R1351M
3405.58	1.014	3406046	WORD_OFF	n/a	n/a	SLUSH	11	22	[0, 0, 0]	n/a	FR1	0	R1351M
3406.594	1.636	3407060	WORD	n/a	n/a	BOOT	12	22	[0, 0, 0]	n/a	FR1	0	R1351M
3408.23	0.001	3408696	WORD_OFF	n/a	n/a	BOOT	12	22	[0, 0, 0]	n/a	FR1	0	R1351M
3408.231	0.0	3408697	ENCODING_END	n/a	n/a	n/a	-999	22	[0, 0, 0]	n/a	FR1	0	R1351M
3408.231	0.0	3408697	DISTRACT_START	n/a	n/a	n/a	-999	22	[0, 0, 0]	n/a	FR1	0	R1351M
3408.231	0.016	3408697	START	n/a	n/a	n/a	-999	22	[-999, -999, -999]	n/a	FR1	0	R1351M
3408.247	5.817	3408713	PROB	5.817	n/a	n/a	-999	22	[8, 6, 5]	19	FR1	0	R1351M
3414.064	5.085	3414530	PROB	5.085	n/a	n/a	-999	22	[4, 5, 6]	15	FR1	0	R1351M
3419.149	5.617	3419615	PROB	5.617	n/a	n/a	-999	22	[6, 5, 4]	15	FR1	0	R1351M
3424.766	5.119	3425231	PROB	5.119	n/a	n/a	-999	22	[9, 9, 2]	20	FR1	0	R1351M
3429.885	0.016	3430350	STOP	n/a	n/a	n/a	-999	22	[-999, -999, -999]	n/a	FR1	0	R1351M
3429.901	0.665	3430366	DISTRACT_END	n/a	n/a	n/a	-999	22	[0, 0, 0]	n/a	FR1	0	R1351M
3430.566	1.652	3431031	RETRIEVAL_ORIENT_START	n/a	n/a	n/a	-999	22	[0, 0, 0]	n/a	FR1	0	R1351M
3432.218	0.0	3432683	REC_START	n/a	n/a	n/a	-999	22	[0, 0, 0]	n/a	FR1	0	R1351M
3432.218	2.55	3432683	RETRIEVAL_ORIENT_END	n/a	n/a	n/a	-999	22	[0, 0, 0]	n/a	FR1	0	R1351M
3434.768	2.321	3435233	REC_WORD	2.321	n/a	JET	1	22	[0, 0, 0]	n/a	FR1	0	R1351M
3437.089	25.143	3437554	REC_WORD	25.143	n/a	BOX	5	22	[0, 0, 0]	n/a	FR1	0	R1351M
3462.232	0.0	3462696	REC_END	n/a	n/a	n/a	-999	22	[0, 0, 0]	n/a	FR1	0	R1351M
3462.232	0.014	3462696	TRIAL_END	n/a	n/a	n/a	-999	22	[0, 0, 0]	n/a	FR1	0	R1351M
3462.246	0.001	3462710	TRIAL_START	n/a	n/a	n/a	-999	23	[0, 0, 0]	n/a	FR1	0	R1351M
3462.247	0.0	3462711	TRIAL	n/a	n/a	n/a	-999	23	[0, 0, 0]	n/a	FR1	0	R1351M
3462.247	24.083	3462711	WAITING_START	n/a	n/a	n/a	-999	23	[0, 0, 0]	n/a	FR1	0	R1351M
3486.33	0.0	3486792	COUNTDOWN_START	n/a	n/a	n/a	-999	23	[0, 0, 0]	n/a	FR1	0	R1351M
3486.33	10.429	3486792	WAITING_END	n/a	n/a	n/a	-999	23	[0, 0, 0]	n/a	FR1	0	R1351M
3496.759	0.0	3497221	COUNTDOWN_END	n/a	n/a	n/a	-999	23	[0, 0, 0]	n/a	FR1	0	R1351M
3496.759	1.222	3497221	ORIENT_START	n/a	n/a	n/a	-999	23	[0, 0, 0]	n/a	FR1	0	R1351M
3497.981	0.0	3498443	ORIENT_END	n/a	n/a	n/a	-999	23	[0, 0, 0]	n/a	FR1	0	R1351M
3497.981	1.029	3498443	ENCODING_START	n/a	n/a	n/a	-999	23	[0, 0, 0]	n/a	FR1	0	R1351M
3499.01	1.638	3499472	WORD	n/a	n/a	CHEEK	1	23	[0, 0, 0]	n/a	FR1	0	R1351M
3500.648	0.972	3501110	WORD_OFF	n/a	n/a	CHEEK	1	23	[0, 0, 0]	n/a	FR1	0	R1351M
3501.62	1.629	3502082	WORD	n/a	n/a	MOUSE	2	23	[0, 0, 0]	n/a	FR1	0	R1351M
3503.249	0.98	3503711	WORD_OFF	n/a	n/a	MOUSE	2	23	[0, 0, 0]	n/a	FR1	0	R1351M
3504.229	1.637	3504691	WORD	n/a	n/a	VAN	3	23	[0, 0, 0]	n/a	FR1	0	R1351M
3505.866	0.96	3506328	WORD_OFF	n/a	n/a	VAN	3	23	[0, 0, 0]	n/a	FR1	0	R1351M
3506.826	1.625	3507288	WORD	n/a	n/a	BRICK	4	23	[0, 0, 0]	n/a	FR1	0	R1351M
3508.451	0.954	3508912	WORD_OFF	n/a	n/a	BRICK	4	23	[0, 0, 0]	n/a	FR1	0	R1351M
3509.405	1.628	3509866	WORD	n/a	n/a	FUR	5	23	[0, 0, 0]	n/a	FR1	0	R1351M
3511.033	0.852	3511494	WORD_OFF	n/a	n/a	FUR	5	23	[0, 0, 0]	n/a	FR1	0	R1351M
3511.885	1.616	3512346	WORD	n/a	n/a	POOL	6	23	[0, 0, 0]	n/a	FR1	0	R1351M
3513.501	0.982	3513962	WORD_OFF	n/a	n/a	POOL	6	23	[0, 0, 0]	n/a	FR1	0	R1351M
3514.483	1.634	3514944	WORD	n/a	n/a	BRANCH	7	23	[0, 0, 0]	n/a	FR1	0	R1351M
3516.117	0.867	3516578	WORD_OFF	n/a	n/a	BRANCH	7	23	[0, 0, 0]	n/a	FR1	0	R1351M
3516.984	1.634	3517445	WORD	n/a	n/a	TRUCK	8	23	[0, 0, 0]	n/a	FR1	0	R1351M
3518.618	0.772	3519079	WORD_OFF	n/a	n/a	TRUCK	8	23	[0, 0, 0]	n/a	FR1	0	R1351M
3519.39	1.629	3519851	WORD	n/a	n/a	CHALK	9	23	[0, 0, 0]	n/a	FR1	0	R1351M
3521.019	0.752	3521480	WORD_OFF	n/a	n/a	CHALK	9	23	[0, 0, 0]	n/a	FR1	0	R1351M
3521.771	1.616	3522232	WORD	n/a	n/a	SQUARE	10	23	[0, 0, 0]	n/a	FR1	0	R1351M
3523.387	1.099	3523848	WORD_OFF	n/a	n/a	SQUARE	10	23	[0, 0, 0]	n/a	FR1	0	R1351M
3524.486	1.633	3524947	WORD	n/a	n/a	SHELL	11	23	[0, 0, 0]	n/a	FR1	0	R1351M
3526.119	0.848	3526580	WORD_OFF	n/a	n/a	SHELL	11	23	[0, 0, 0]	n/a	FR1	0	R1351M
3526.967	1.636	3527428	WORD	n/a	n/a	FLAME	12	23	[0, 0, 0]	n/a	FR1	0	R1351M
3528.603	0.001	3529063	WORD_OFF	n/a	n/a	FLAME	12	23	[0, 0, 0]	n/a	FR1	0	R1351M
3528.604	0.0	3529064	ENCODING_END	n/a	n/a	n/a	-999	23	[0, 0, 0]	n/a	FR1	0	R1351M
3528.604	0.001	3529064	DISTRACT_START	n/a	n/a	n/a	-999	23	[0, 0, 0]	n/a	FR1	0	R1351M
3528.605	0.015	3529065	START	n/a	n/a	n/a	-999	23	[-999, -999, -999]	n/a	FR1	0	R1351M
3528.62	5.118	3529080	PROB	5.118	n/a	n/a	-999	23	[6, 3, 1]	10	FR1	0	R1351M
3533.738	4.334	3534198	PROB	4.334	n/a	n/a	-999	23	[7, 7, 6]	20	FR1	0	R1351M
3538.072	3.8	3538532	PROB	3.8	n/a	n/a	-999	23	[8, 1, 9]	18	FR1	0	R1351M
3541.872	4.701	3542332	PROB	4.701	n/a	n/a	-999	23	[5, 1, 8]	14	FR1	0	R1351M
3546.573	3.211	3547033	PROB	3.211	n/a	n/a	-999	23	[2, 5, 2]	9	FR1	0	R1351M
3549.784	0.007	3550243	STOP	n/a	n/a	n/a	-999	23	[-999, -999, -999]	n/a	FR1	0	R1351M
3549.791	0.683	3550250	DISTRACT_END	n/a	n/a	n/a	-999	23	[0, 0, 0]	n/a	FR1	0	R1351M
3550.474	1.551	3550933	RETRIEVAL_ORIENT_START	n/a	n/a	n/a	-999	23	[0, 0, 0]	n/a	FR1	0	R1351M
3552.025	0.0	3552484	RETRIEVAL_ORIENT_END	n/a	n/a	n/a	-999	23	[0, 0, 0]	n/a	FR1	0	R1351M
3552.025	1.805	3552484	REC_START	n/a	n/a	n/a	-999	23	[0, 0, 0]	n/a	FR1	0	R1351M
3553.83	1.068	3554289	REC_WORD	1.068	n/a	CHEEK	1	23	[0, 0, 0]	n/a	FR1	0	R1351M
3554.898	1.469	3555357	REC_WORD	1.469	n/a	MOUSE	2	23	[0, 0, 0]	n/a	FR1	0	R1351M
3556.367	15.473	3556826	REC_WORD	15.473	n/a	FUR	5	23	[0, 0, 0]	n/a	FR1	0	R1351M
3571.84	10.198	3572298	REC_WORD	10.198	n/a	BEND	-999	23	[0, 0, 0]	n/a	FR1	0	R1351M
3582.038	0.001	3582496	REC_END	n/a	n/a	n/a	-999	23	[0, 0, 0]	n/a	FR1	0	R1351M
3582.039	0.017	3582497	TRIAL_END	n/a	n/a	n/a	-999	23	[0, 0, 0]	n/a	FR1	0	R1351M
3582.056	0.0	3582514	TRIAL_START	n/a	n/a	n/a	-999	24	[0, 0, 0]	n/a	FR1	0	R1351M
3582.056	0.0	3582514	TRIAL	n/a	n/a	n/a	-999	24	[0, 0, 0]	n/a	FR1	0	R1351M
3582.056	13.144	3582514	WAITING_START	n/a	n/a	n/a	-999	24	[0, 0, 0]	n/a	FR1	0	R1351M
3595.2	0.0	3595657	WAITING_END	n/a	n/a	n/a	-999	24	[0, 0, 0]	n/a	FR1	0	R1351M
3595.2	10.429	3595657	COUNTDOWN_START	n/a	n/a	n/a	-999	24	[0, 0, 0]	n/a	FR1	0	R1351M
3605.629	0.0	3606086	ORIENT_START	n/a	n/a	n/a	-999	24	[0, 0, 0]	n/a	FR1	0	R1351M
3605.629	1.223	3606086	COUNTDOWN_END	n/a	n/a	n/a	-999	24	[0, 0, 0]	n/a	FR1	0	R1351M
3606.852	0.0	3607309	ORIENT_END	n/a	n/a	n/a	-999	24	[0, 0, 0]	n/a	FR1	0	R1351M
3606.852	0.921	3607309	ENCODING_START	n/a	n/a	n/a	-999	24	[0, 0, 0]	n/a	FR1	0	R1351M
3607.773	1.63	3608230	WORD	n/a	n/a	TOY	1	24	[0, 0, 0]	n/a	FR1	0	R1351M
3609.403	0.792	3609860	WORD_OFF	n/a	n/a	TOY	1	24	[0, 0, 0]	n/a	FR1	0	R1351M
3610.195	1.625	3610652	WORD	n/a	n/a	GUARD	2	24	[0, 0, 0]	n/a	FR1	0	R1351M
3611.82	1.071	3612276	WORD_OFF	n/a	n/a	GUARD	2	24	[0, 0, 0]	n/a	FR1	0	R1351M
3612.891	1.63	3613347	WORD	n/a	n/a	NAIL	3	24	[0, 0, 0]	n/a	FR1	0	R1351M
3614.521	0.88	3614977	WORD_OFF	n/a	n/a	NAIL	3	24	[0, 0, 0]	n/a	FR1	0	R1351M
3615.401	1.636	3615857	WORD	n/a	n/a	RUG	4	24	[0, 0, 0]	n/a	FR1	0	R1351M
3617.037	0.874	3617493	WORD_OFF	n/a	n/a	RUG	4	24	[0, 0, 0]	n/a	FR1	0	R1351M
3617.911	1.627	3618367	WORD	n/a	n/a	TREE	5	24	[0, 0, 0]	n/a	FR1	0	R1351M
3619.538	1.142	3619994	WORD_OFF	n/a	n/a	TREE	5	24	[0, 0, 0]	n/a	FR1	0	R1351M
3620.68	1.625	3621136	WORD	n/a	n/a	TEA	6	24	[0, 0, 0]	n/a	FR1	0	R1351M
3622.305	0.974	3622761	WORD_OFF	n/a	n/a	TEA	6	24	[0, 0, 0]	n/a	FR1	0	R1351M
3623.279	1.627	3623735	WORD	n/a	n/a	BADGE	7	24	[0, 0, 0]	n/a	FR1	0	R1351M
3624.906	1.074	3625362	WORD_OFF	n/a	n/a	BADGE	7	24	[0, 0, 0]	n/a	FR1	0	R1351M
3625.98	1.626	3626436	WORD	n/a	n/a	PURSE	8	24	[0, 0, 0]	n/a	FR1	0	R1351M
3627.606	0.867	3628062	WORD_OFF	n/a	n/a	PURSE	8	24	[0, 0, 0]	n/a	FR1	0	R1351M
3628.473	1.634	3628929	WORD	n/a	n/a	SUN	9	24	[0, 0, 0]	n/a	FR1	0	R1351M
3630.107	0.96	3630563	WORD_OFF	n/a	n/a	SUN	9	24	[0, 0, 0]	n/a	FR1	0	R1351M
3631.067	1.623	3631523	WORD	n/a	n/a	SMILE	10	24	[0, 0, 0]	n/a	FR1	0	R1351M
3632.69	0.863	3633145	WORD_OFF	n/a	n/a	SMILE	10	24	[0, 0, 0]	n/a	FR1	0	R1351M
3633.553	1.621	3634008	WORD	n/a	n/a	LAMB	11	24	[0, 0, 0]	n/a	FR1	0	R1351M
