onset	duration	sample	trial_type	response_time	stim_file	item_name	serialpos	list	test	answer	experiment	session	subject
0.0	3.417	117009	INSTRUCT_START	n/a	n/a	n/a	-999	-999	[0, 0, 0]	n/a	FR1	2	R1395M
3.417	26.831	120415	INSTRUCT_END	n/a	n/a	n/a	-999	-999	[0, 0, 0]	n/a	FR1	2	R1395M
30.248	10.351	147255	COUNTDOWN_START	n/a	n/a	n/a	-999	-999	[0, 0, 0]	n/a	FR1	2	R1395M
40.599	0.0	157596	COUNTDOWN_END	n/a	n/a	n/a	-999	-999	[0, 0, 0]	n/a	FR1	2	R1395M
40.599	2.283	157606	ENCODING_START	n/a	n/a	n/a	-999	-1	[0, 0, 0]	n/a	FR1	2	R1395M
42.882	1.6	159880	WORD	n/a	n/a	LEAF	1	-1	[0, 0, 0]	n/a	FR1	2	R1395M
44.482	0.866	161480	WORD_OFF	n/a	n/a	LEAF	1	-1	[0, 0, 0]	n/a	FR1	2	R1395M
45.348	1.617	162351	WORD	n/a	n/a	CART	2	-1	[0, 0, 0]	n/a	FR1	2	R1395M
46.965	1.0	163960	WORD_OFF	n/a	n/a	CART	2	-1	[0, 0, 0]	n/a	FR1	2	R1395M
47.965	1.6	164962	WORD	n/a	n/a	HILL	3	-1	[0, 0, 0]	n/a	FR1	2	R1395M
49.565	0.882	166562	WORD_OFF	n/a	n/a	HILL	3	-1	[0, 0, 0]	n/a	FR1	2	R1395M
50.447	1.617	167451	WORD	n/a	n/a	SPHINX	4	-1	[0, 0, 0]	n/a	FR1	2	R1395M
52.064	0.833	169061	WORD_OFF	n/a	n/a	SPHINX	4	-1	[0, 0, 0]	n/a	FR1	2	R1395M
52.897	1.618	169893	WORD	n/a	n/a	BEAK	5	-1	[0, 0, 0]	n/a	FR1	2	R1395M
54.515	0.949	171512	WORD_OFF	n/a	n/a	BEAK	5	-1	[0, 0, 0]	n/a	FR1	2	R1395M
55.464	1.617	172467	WORD	n/a	n/a	CHIEF	6	-1	[0, 0, 0]	n/a	FR1	2	R1395M
57.081	0.917	174077	WORD_OFF	n/a	n/a	CHIEF	6	-1	[0, 0, 0]	n/a	FR1	2	R1395M
57.998	1.616	174994	WORD	n/a	n/a	HEDGE	7	-1	[0, 0, 0]	n/a	FR1	2	R1395M
59.614	0.984	176613	WORD_OFF	n/a	n/a	HEDGE	7	-1	[0, 0, 0]	n/a	FR1	2	R1395M
60.598	1.6	177596	WORD	n/a	n/a	HEART	8	-1	[0, 0, 0]	n/a	FR1	2	R1395M
62.198	0.833	179196	WORD_OFF	n/a	n/a	HEART	8	-1	[0, 0, 0]	n/a	FR1	2	R1395M
63.031	1.617	180029	WORD	n/a	n/a	CASH	9	-1	[0, 0, 0]	n/a	FR1	2	R1395M
64.648	0.983	181648	WORD_OFF	n/a	n/a	CASH	9	-1	[0, 0, 0]	n/a	FR1	2	R1395M
65.631	1.601	182630	WORD	n/a	n/a	MOLE	10	-1	[0, 0, 0]	n/a	FR1	2	R1395M
67.232	0.983	184231	WORD_OFF	n/a	n/a	MOLE	10	-1	[0, 0, 0]	n/a	FR1	2	R1395M
68.215	1.617	185213	WORD	n/a	n/a	POOL	11	-1	[0, 0, 0]	n/a	FR1	2	R1395M
69.832	0.85	186832	WORD_OFF	n/a	n/a	POOL	11	-1	[0, 0, 0]	n/a	FR1	2	R1395M
70.682	1.6	187684	WORD	n/a	n/a	BANK	12	-1	[0, 0, 0]	n/a	FR1	2	R1395M
72.282	0.001	189284	WORD_OFF	n/a	n/a	BANK	12	-1	[0, 0, 0]	n/a	FR1	2	R1395M
72.283	0.0	189284	DISTRACT_START	n/a	n/a	n/a	-999	-1	[0, 0, 0]	n/a	FR1	2	R1395M
72.283	0.0	189284	ENCODING_END	n/a	n/a	n/a	-999	-1	[0, 0, 0]	n/a	FR1	2	R1395M
72.283	0.0	189281	START	n/a	n/a	n/a	-999	-1	[-999, -999, -999]	n/a	FR1	2	R1395M
72.283	3.549	189281	PROB	3.549	n/a	n/a	-999	-1	[1, 8, 1]	10	FR1	2	R1395M
75.832	2.75	192829	PROB	2.75	n/a	n/a	-999	-1	[5, 8, 7]	20	FR1	2	R1395M
78.582	2.55	195579	PROB	2.55	n/a	n/a	-999	-1	[5, 6, 1]	12	FR1	2	R1395M
81.132	2.515	198129	PROB	2.515	n/a	n/a	-999	-1	[1, 6, 7]	14	FR1	2	R1395M
83.647	2.8	200644	PROB	2.8	n/a	n/a	-999	-1	[3, 7, 5]	15	FR1	2	R1395M
86.447	2.668	203444	PROB	2.668	n/a	n/a	-999	-1	[2, 5, 7]	14	FR1	2	R1395M
89.115	2.35	206112	PROB	2.35	n/a	n/a	-999	-1	[2, 2, 6]	10	FR1	2	R1395M
91.465	3.133	208462	PROB	3.133	n/a	n/a	-999	-1	[8, 2, 6]	16	FR1	2	R1395M
94.598	0.0	211595	DISTRACT_END	n/a	n/a	n/a	-999	-1	[0, 0, 0]	n/a	FR1	2	R1395M
94.598	2.334	211594	STOP	n/a	n/a	n/a	-999	-1	[-999, -999, -999]	n/a	FR1	2	R1395M
96.932	2.711	213933	REC_START	n/a	n/a	n/a	-999	-1	[0, 0, 0]	n/a	FR1	2	R1395M
99.643	0.879	216639	REC_WORD	0.879	n/a	HILL	3	-1	[0, 0, 0]	n/a	FR1	2	R1395M
100.522	1.451	217518	REC_WORD	1.451	n/a	CART	2	-1	[0, 0, 0]	n/a	FR1	2	R1395M
101.973	2.02	218969	REC_WORD	2.02	n/a	LEAF	1	-1	[0, 0, 0]	n/a	FR1	2	R1395M
103.993	1.701	220989	REC_WORD	1.701	n/a	HEDGE	7	-1	[0, 0, 0]	n/a	FR1	2	R1395M
105.694	6.387	222690	REC_WORD	6.387	n/a	MOLE	10	-1	[0, 0, 0]	n/a	FR1	2	R1395M
112.081	15.086	229077	REC_WORD_VV	15.086	n/a	<>	-999	-1	[0, 0, 0]	n/a	FR1	2	R1395M
127.167	3.998	244162	REC_END	n/a	n/a	n/a	-999	-1	[0, 0, 0]	n/a	FR1	2	R1395M
131.165	10.349	248158	COUNTDOWN_START	n/a	n/a	n/a	-999	1	[0, 0, 0]	n/a	FR1	2	R1395M
141.514	0.001	258509	COUNTDOWN_END	n/a	n/a	n/a	-999	1	[0, 0, 0]	n/a	FR1	2	R1395M
141.515	2.167	258509	ENCODING_START	n/a	n/a	n/a	-999	1	[0, 0, 0]	n/a	FR1	2	R1395M
143.682	1.6	260680	WORD	n/a	wordpools/wordpool_long_EN.txt	BARN	1	1	[0, 0, 0]	n/a	FR1	2	R1395M
145.282	0.999	262280	WORD_OFF	n/a	n/a	BARN	1	1	[0, 0, 0]	n/a	FR1	2	R1395M
146.281	1.616	263272	WORD	n/a	wordpools/wordpool_long_EN.txt	WING	2	1	[0, 0, 0]	n/a	FR1	2	R1395M
147.897	0.784	264891	WORD_OFF	n/a	n/a	WING	2	1	[0, 0, 0]	n/a	FR1	2	R1395M
148.681	1.601	265678	WORD	n/a	wordpools/wordpool_long_EN.txt	BEAN	3	1	[0, 0, 0]	n/a	FR1	2	R1395M
150.282	0.916	267278	WORD_OFF	n/a	n/a	BEAN	3	1	[0, 0, 0]	n/a	FR1	2	R1395M
151.198	1.617	268195	WORD	n/a	wordpools/wordpool_long_EN.txt	WRIST	4	1	[0, 0, 0]	n/a	FR1	2	R1395M
152.815	0.866	269814	WORD_OFF	n/a	n/a	WRIST	4	1	[0, 0, 0]	n/a	FR1	2	R1395M
153.681	1.6	270675	WORD	n/a	wordpools/wordpool_long_EN.txt	SPOOL	5	1	[0, 0, 0]	n/a	FR1	2	R1395M
155.281	0.8	272275	WORD_OFF	n/a	n/a	SPOOL	5	1	[0, 0, 0]	n/a	FR1	2	R1395M
156.081	1.601	273071	WORD	n/a	wordpools/wordpool_long_EN.txt	VASE	6	1	[0, 0, 0]	n/a	FR1	2	R1395M
157.682	0.932	274671	WORD_OFF	n/a	n/a	VASE	6	1	[0, 0, 0]	n/a	FR1	2	R1395M
158.614	1.617	275607	WORD	n/a	wordpools/wordpool_long_EN.txt	TRASH	7	1	[0, 0, 0]	n/a	FR1	2	R1395M
160.231	1.0	277226	WORD_OFF	n/a	n/a	TRASH	7	1	[0, 0, 0]	n/a	FR1	2	R1395M
161.231	1.617	278227	WORD	n/a	wordpools/wordpool_long_EN.txt	GIRL	8	1	[0, 0, 0]	n/a	FR1	2	R1395M
162.848	0.849	279843	WORD_OFF	n/a	n/a	GIRL	8	1	[0, 0, 0]	n/a	FR1	2	R1395M
163.697	1.601	280689	WORD	n/a	wordpools/wordpool_long_EN.txt	CROSS	9	1	[0, 0, 0]	n/a	FR1	2	R1395M
165.298	0.916	282289	WORD_OFF	n/a	n/a	CROSS	9	1	[0, 0, 0]	n/a	FR1	2	R1395M
166.214	1.601	283206	WORD	n/a	wordpools/wordpool_long_EN.txt	RUST	10	1	[0, 0, 0]	n/a	FR1	2	R1395M
167.815	0.917	284806	WORD_OFF	n/a	n/a	RUST	10	1	[0, 0, 0]	n/a	FR1	2	R1395M
168.732	1.616	285723	WORD	n/a	wordpools/wordpool_long_EN.txt	PRINCE	11	1	[0, 0, 0]	n/a	FR1	2	R1395M
170.348	1.0	287342	WORD_OFF	n/a	n/a	PRINCE	11	1	[0, 0, 0]	n/a	FR1	2	R1395M
171.348	1.617	288344	WORD	n/a	wordpools/wordpool_long_EN.txt	STREET	12	1	[0, 0, 0]	n/a	FR1	2	R1395M
172.965	0.0	289953	WORD_OFF	n/a	n/a	STREET	12	1	[0, 0, 0]	n/a	FR1	2	R1395M
172.965	0.001	289957	PROB	0.001	n/a	n/a	-999	1	[5, 3, 2]	10	FR1	2	R1395M
172.966	0.0	289963	DISTRACT_START	n/a	n/a	n/a	-999	1	[0, 0, 0]	n/a	FR1	2	R1395M
172.966	0.0	289963	ENCODING_END	n/a	n/a	n/a	-999	1	[0, 0, 0]	n/a	FR1	2	R1395M
172.966	4.716	289958	START	n/a	n/a	n/a	-999	1	[-999, -999, -999]	n/a	FR1	2	R1395M
177.682	2.583	294674	PROB	2.583	n/a	n/a	-999	1	[3, 3, 6]	12	FR1	2	R1395M
180.265	3.016	297257	PROB	3.016	n/a	n/a	-999	1	[5, 3, 1]	9	FR1	2	R1395M
183.281	2.384	300273	PROB	2.384	n/a	n/a	-999	1	[1, 3, 2]	6	FR1	2	R1395M
185.665	2.667	302657	PROB	2.667	n/a	n/a	-999	1	[1, 6, 2]	9	FR1	2	R1395M
188.332	2.983	305323	PROB	2.983	n/a	n/a	-999	1	[1, 3, 6]	10	FR1	2	R1395M
191.315	2.466	308306	PROB	2.466	n/a	n/a	-999	1	[7, 3, 5]	15	FR1	2	R1395M
193.781	0.0	310776	DISTRACT_END	n/a	n/a	n/a	-999	1	[0, 0, 0]	n/a	FR1	2	R1395M
193.781	2.234	310772	STOP	n/a	n/a	n/a	-999	1	[-999, -999, -999]	n/a	FR1	2	R1395M
196.015	1.668	313011	REC_START	n/a	n/a	n/a	-999	1	[0, 0, 0]	n/a	FR1	2	R1395M
197.683	1.367	314674	REC_WORD	1.367	n/a	CRASH	-999	1	[0, 0, 0]	n/a	FR1	2	R1395M
199.05	1.546	316041	REC_WORD	1.546	n/a	GIRL	8	1	[0, 0, 0]	n/a	FR1	2	R1395M
200.596	3.32	317587	REC_WORD	3.32	n/a	PRINCE	11	1	[0, 0, 0]	n/a	FR1	2	R1395M
203.916	11.501	320907	REC_WORD	11.501	n/a	WRIST	4	1	[0, 0, 0]	n/a	FR1	2	R1395M
215.417	3.349	332407	REC_WORD	3.349	n/a	TRASH	7	1	[0, 0, 0]	n/a	FR1	2	R1395M
218.766	4.602	335756	REC_WORD_VV	4.602	n/a	<>	-999	1	[0, 0, 0]	n/a	FR1	2	R1395M
223.368	0.13	340358	REC_WORD_VV	0.13	n/a	<>	-999	1	[0, 0, 0]	n/a	FR1	2	R1395M
223.498	2.735	340488	REC_WORD	2.735	n/a	BARN	1	1	[0, 0, 0]	n/a	FR1	2	R1395M
226.233	5.332	343222	REC_END	n/a	n/a	n/a	-999	1	[0, 0, 0]	n/a	FR1	2	R1395M
231.565	10.35	348556	COUNTDOWN_START	n/a	n/a	n/a	-999	2	[0, 0, 0]	n/a	FR1	2	R1395M
241.915	0.001	358907	COUNTDOWN_END	n/a	n/a	n/a	-999	2	[0, 0, 0]	n/a	FR1	2	R1395M
241.916	2.132	358907	ENCODING_START	n/a	n/a	n/a	-999	2	[0, 0, 0]	n/a	FR1	2	R1395M
244.048	1.6	361040	WORD	n/a	wordpools/wordpool_long_EN.txt	DUST	1	2	[0, 0, 0]	n/a	FR1	2	R1395M
245.648	0.8	362641	WORD_OFF	n/a	n/a	DUST	1	2	[0, 0, 0]	n/a	FR1	2	R1395M
246.448	1.617	363436	WORD	n/a	wordpools/wordpool_long_EN.txt	JAIL	2	2	[0, 0, 0]	n/a	FR1	2	R1395M
248.065	0.85	365055	WORD_OFF	n/a	n/a	JAIL	2	2	[0, 0, 0]	n/a	FR1	2	R1395M
248.915	1.6	365907	WORD	n/a	wordpools/wordpool_long_EN.txt	INN	3	2	[0, 0, 0]	n/a	FR1	2	R1395M
250.515	0.933	367507	WORD_OFF	n/a	n/a	INN	3	2	[0, 0, 0]	n/a	FR1	2	R1395M
251.448	1.6	368434	WORD	n/a	wordpools/wordpool_long_EN.txt	SALT	4	2	[0, 0, 0]	n/a	FR1	2	R1395M
253.048	0.884	370034	WORD_OFF	n/a	n/a	SALT	4	2	[0, 0, 0]	n/a	FR1	2	R1395M
253.932	1.6	370923	WORD	n/a	wordpools/wordpool_long_EN.txt	LODGE	5	2	[0, 0, 0]	n/a	FR1	2	R1395M
255.532	0.866	372523	WORD_OFF	n/a	n/a	LODGE	5	2	[0, 0, 0]	n/a	FR1	2	R1395M
256.398	1.616	373384	WORD	n/a	wordpools/wordpool_long_EN.txt	SHARK	6	2	[0, 0, 0]	n/a	FR1	2	R1395M
258.014	0.867	375003	WORD_OFF	n/a	n/a	SHARK	6	2	[0, 0, 0]	n/a	FR1	2	R1395M
258.881	1.617	375874	WORD	n/a	wordpools/wordpool_long_EN.txt	WAVE	7	2	[0, 0, 0]	n/a	FR1	2	R1395M
260.498	0.85	377483	WORD_OFF	n/a	n/a	WAVE	7	2	[0, 0, 0]	n/a	FR1	2	R1395M
261.348	1.6	378335	WORD	n/a	wordpools/wordpool_long_EN.txt	WORM	8	2	[0, 0, 0]	n/a	FR1	2	R1395M
262.948	0.983	379935	WORD_OFF	n/a	n/a	WORM	8	2	[0, 0, 0]	n/a	FR1	2	R1395M
263.931	1.617	380918	WORD	n/a	wordpools/wordpool_long_EN.txt	LOCK	9	2	[0, 0, 0]	n/a	FR1	2	R1395M
265.548	0.866	382537	WORD_OFF	n/a	n/a	LOCK	9	2	[0, 0, 0]	n/a	FR1	2	R1395M
266.414	1.618	383398	WORD	n/a	wordpools/wordpool_long_EN.txt	SHEET	10	2	[0, 0, 0]	n/a	FR1	2	R1395M
268.032	0.983	385017	WORD_OFF	n/a	n/a	SHEET	10	2	[0, 0, 0]	n/a	FR1	2	R1395M
269.015	1.6	386000	WORD	n/a	wordpools/wordpool_long_EN.txt	ROAD	11	2	[0, 0, 0]	n/a	FR1	2	R1395M
270.615	0.8	387600	WORD_OFF	n/a	n/a	ROAD	11	2	[0, 0, 0]	n/a	FR1	2	R1395M
271.415	1.6	388405	WORD	n/a	wordpools/wordpool_long_EN.txt	LACE	12	2	[0, 0, 0]	n/a	FR1	2	R1395M
273.015	0.0	390005	WORD_OFF	n/a	n/a	LACE	12	2	[0, 0, 0]	n/a	FR1	2	R1395M
273.015	0.001	390002	PROB	0.001	n/a	n/a	-999	2	[7, 1, 4]	12	FR1	2	R1395M
273.016	0.0	390005	DISTRACT_START	n/a	n/a	n/a	-999	2	[0, 0, 0]	n/a	FR1	2	R1395M
273.016	0.0	390005	ENCODING_END	n/a	n/a	n/a	-999	2	[0, 0, 0]	n/a	FR1	2	R1395M
273.016	3.249	390003	START	n/a	n/a	n/a	-999	2	[-999, -999, -999]	n/a	FR1	2	R1395M
276.265	2.266	393252	PROB	2.266	n/a	n/a	-999	2	[3, 4, 4]	11	FR1	2	R1395M
278.531	2.835	395518	PROB	2.835	n/a	n/a	-999	2	[3, 4, 6]	13	FR1	2	R1395M
281.366	7.266	398353	PROB	7.266	n/a	n/a	-999	2	[6, 7, 8]	21	FR1	2	R1395M
288.632	2.616	405618	PROB	2.616	n/a	n/a	-999	2	[3, 8, 6]	17	FR1	2	R1395M
291.248	4.066	408234	PROB	4.066	n/a	n/a	-999	2	[7, 8, 5]	20	FR1	2	R1395M
295.314	0.0	412297	DISTRACT_END	n/a	n/a	n/a	-999	2	[0, 0, 0]	n/a	FR1	2	R1395M
295.314	2.35	412300	STOP	n/a	n/a	n/a	-999	2	[-999, -999, -999]	n/a	FR1	2	R1395M
297.664	1.75	414654	REC_START	n/a	n/a	n/a	-999	2	[0, 0, 0]	n/a	FR1	2	R1395M
299.414	1.794	416400	REC_WORD	1.794	n/a	LODGE	5	2	[0, 0, 0]	n/a	FR1	2	R1395M
301.208	1.733	418194	REC_WORD	1.733	n/a	INN	3	2	[0, 0, 0]	n/a	FR1	2	R1395M
302.941	1.98	419926	REC_WORD	1.98	n/a	SHARK	6	2	[0, 0, 0]	n/a	FR1	2	R1395M
304.921	4.881	421906	REC_WORD	4.881	n/a	WAVE	7	2	[0, 0, 0]	n/a	FR1	2	R1395M
309.802	13.316	426787	REC_WORD	13.316	n/a	LOCK	9	2	[0, 0, 0]	n/a	FR1	2	R1395M
323.118	4.775	440102	REC_WORD	4.775	n/a	DUST	1	2	[0, 0, 0]	n/a	FR1	2	R1395M
327.893	7.072	444874	REC_END	n/a	n/a	n/a	-999	2	[0, 0, 0]	n/a	FR1	2	R1395M
334.965	10.35	451949	COUNTDOWN_START	n/a	n/a	n/a	-999	3	[0, 0, 0]	n/a	FR1	2	R1395M
345.315	0.0	462299	COUNTDOWN_END	n/a	n/a	n/a	-999	3	[0, 0, 0]	n/a	FR1	2	R1395M
345.315	2.232	462299	ENCODING_START	n/a	n/a	n/a	-999	3	[0, 0, 0]	n/a	FR1	2	R1395M
347.547	1.6	464527	WORD	n/a	wordpools/wordpool_long_EN.txt	PIPE	1	3	[0, 0, 0]	n/a	FR1	2	R1395M
349.147	0.784	466127	WORD_OFF	n/a	n/a	PIPE	1	3	[0, 0, 0]	n/a	FR1	2	R1395M
349.931	1.6	466913	WORD	n/a	wordpools/wordpool_long_EN.txt	BRICK	2	3	[0, 0, 0]	n/a	FR1	2	R1395M
351.531	0.883	468513	WORD_OFF	n/a	n/a	BRICK	2	3	[0, 0, 0]	n/a	FR1	2	R1395M
352.414	1.617	469402	WORD	n/a	wordpools/wordpool_long_EN.txt	BROOM	3	3	[0, 0, 0]	n/a	FR1	2	R1395M
354.031	0.999	471012	WORD_OFF	n/a	n/a	BROOM	3	3	[0, 0, 0]	n/a	FR1	2	R1395M
355.03	1.617	472013	WORD	n/a	wordpools/wordpool_long_EN.txt	BOX	4	3	[0, 0, 0]	n/a	FR1	2	R1395M
356.647	0.85	473632	WORD_OFF	n/a	n/a	BOX	4	3	[0, 0, 0]	n/a	FR1	2	R1395M
357.497	1.6	474484	WORD	n/a	wordpools/wordpool_long_EN.txt	WEED	5	3	[0, 0, 0]	n/a	FR1	2	R1395M
359.097	0.9	476084	WORD_OFF	n/a	n/a	WEED	5	3	[0, 0, 0]	n/a	FR1	2	R1395M
359.997	1.601	476983	WORD	n/a	wordpools/wordpool_long_EN.txt	TREE	6	3	[0, 0, 0]	n/a	FR1	2	R1395M
361.598	0.916	478583	WORD_OFF	n/a	n/a	TREE	6	3	[0, 0, 0]	n/a	FR1	2	R1395M
362.514	1.601	479500	WORD	n/a	wordpools/wordpool_long_EN.txt	PARK	7	3	[0, 0, 0]	n/a	FR1	2	R1395M
364.115	0.95	481100	WORD_OFF	n/a	n/a	PARK	7	3	[0, 0, 0]	n/a	FR1	2	R1395M
365.065	1.617	482046	WORD	n/a	wordpools/wordpool_long_EN.txt	FLASK	8	3	[0, 0, 0]	n/a	FR1	2	R1395M
366.682	0.783	483665	WORD_OFF	n/a	n/a	FLASK	8	3	[0, 0, 0]	n/a	FR1	2	R1395M
367.465	1.6	484451	WORD	n/a	wordpools/wordpool_long_EN.txt	BENCH	9	3	[0, 0, 0]	n/a	FR1	2	R1395M
369.065	0.967	486051	WORD_OFF	n/a	n/a	BENCH	9	3	[0, 0, 0]	n/a	FR1	2	R1395M
370.032	1.616	487015	WORD	n/a	wordpools/wordpool_long_EN.txt	SKATE	10	3	[0, 0, 0]	n/a	FR1	2	R1395M
371.648	1.0	488634	WORD_OFF	n/a	n/a	SKATE	10	3	[0, 0, 0]	n/a	FR1	2	R1395M
372.648	1.616	489635	WORD	n/a	wordpools/wordpool_long_EN.txt	CAT	11	3	[0, 0, 0]	n/a	FR1	2	R1395M
374.264	0.967	491245	WORD_OFF	n/a	n/a	CAT	11	3	[0, 0, 0]	n/a	FR1	2	R1395M
375.231	1.601	492218	WORD	n/a	wordpools/wordpool_long_EN.txt	BATH	12	3	[0, 0, 0]	n/a	FR1	2	R1395M
376.832	0.0	493809	WORD_OFF	n/a	n/a	BATH	12	3	[0, 0, 0]	n/a	FR1	2	R1395M
376.832	0.001	493813	PROB	0.001	n/a	n/a	-999	3	[2, 8, 1]	11	FR1	2	R1395M
376.833	0.0	493819	DISTRACT_START	n/a	n/a	n/a	-999	3	[0, 0, 0]	n/a	FR1	2	R1395M
376.833	0.0	493819	ENCODING_END	n/a	n/a	n/a	-999	3	[0, 0, 0]	n/a	FR1	2	R1395M
376.833	4.416	493814	START	n/a	n/a	n/a	-999	3	[-999, -999, -999]	n/a	FR1	2	R1395M
381.249	3.066	498230	PROB	3.066	n/a	n/a	-999	3	[5, 6, 6]	17	FR1	2	R1395M
384.315	2.184	501296	PROB	2.184	n/a	n/a	-999	3	[3, 1, 1]	5	FR1	2	R1395M
386.499	2.649	503480	PROB	2.649	n/a	n/a	-999	3	[2, 3, 5]	10	FR1	2	R1395M
389.148	2.017	506129	PROB	2.017	n/a	n/a	-999	3	[4, 4, 3]	11	FR1	2	R1395M
391.165	2.517	508146	PROB	2.517	n/a	n/a	-999	3	[5, 8, 2]	15	FR1	2	R1395M
393.682	3.651	510663	PROB	3.651	n/a	n/a	-999	3	[2, 4, 7]	13	FR1	2	R1395M
397.333	0.0	514314	DISTRACT_END	n/a	n/a	n/a	-999	3	[0, 0, 0]	n/a	FR1	2	R1395M
397.333	2.332	514313	STOP	n/a	n/a	n/a	-999	3	[-999, -999, -999]	n/a	FR1	2	R1395M
399.665	1.561	516643	REC_START	n/a	n/a	n/a	-999	3	[0, 0, 0]	n/a	FR1	2	R1395M
401.226	1.029	518206	REC_WORD	1.029	n/a	BROOM	3	3	[0, 0, 0]	n/a	FR1	2	R1395M
402.255	1.61	519235	REC_WORD	1.61	n/a	BENCH	9	3	[0, 0, 0]	n/a	FR1	2	R1395M
403.865	1.62	520845	REC_WORD	1.62	n/a	PARK	7	3	[0, 0, 0]	n/a	FR1	2	R1395M
405.485	7.531	522465	REC_WORD	7.531	n/a	SKATE	10	3	[0, 0, 0]	n/a	FR1	2	R1395M
413.016	9.748	529996	REC_WORD	9.748	n/a	FLASK	8	3	[0, 0, 0]	n/a	FR1	2	R1395M
422.764	7.16	539743	REC_WORD	7.16	n/a	BOX	4	3	[0, 0, 0]	n/a	FR1	2	R1395M
429.924	3.84	546900	REC_END	n/a	n/a	n/a	-999	3	[0, 0, 0]	n/a	FR1	2	R1395M
433.764	10.351	550746	COUNTDOWN_START	n/a	n/a	n/a	-999	4	[0, 0, 0]	n/a	FR1	2	R1395M
444.115	0.0	561097	COUNTDOWN_END	n/a	n/a	n/a	-999	4	[0, 0, 0]	n/a	FR1	2	R1395M
444.115	2.183	561097	ENCODING_START	n/a	n/a	n/a	-999	4	[0, 0, 0]	n/a	FR1	2	R1395M
446.298	1.616	563277	WORD	n/a	wordpools/wordpool_long_EN.txt	RAKE	1	4	[0, 0, 0]	n/a	FR1	2	R1395M
447.914	0.85	564896	WORD_OFF	n/a	n/a	RAKE	1	4	[0, 0, 0]	n/a	FR1	2	R1395M
448.764	1.6	565739	WORD	n/a	wordpools/wordpool_long_EN.txt	CLOWN	2	4	[0, 0, 0]	n/a	FR1	2	R1395M
450.364	0.934	567339	WORD_OFF	n/a	n/a	CLOWN	2	4	[0, 0, 0]	n/a	FR1	2	R1395M
451.298	1.599	568275	WORD	n/a	wordpools/wordpool_long_EN.txt	QUEEN	3	4	[0, 0, 0]	n/a	FR1	2	R1395M
452.897	0.835	569875	WORD_OFF	n/a	n/a	QUEEN	3	4	[0, 0, 0]	n/a	FR1	2	R1395M
453.732	1.615	570708	WORD	n/a	wordpools/wordpool_long_EN.txt	ELF	4	4	[0, 0, 0]	n/a	FR1	2	R1395M
455.347	0.968	572327	WORD_OFF	n/a	n/a	ELF	4	4	[0, 0, 0]	n/a	FR1	2	R1395M
456.315	1.6	573291	WORD	n/a	wordpools/wordpool_long_EN.txt	SHELL	5	4	[0, 0, 0]	n/a	FR1	2	R1395M
457.915	0.85	574891	WORD_OFF	n/a	n/a	SHELL	5	4	[0, 0, 0]	n/a	FR1	2	R1395M
458.765	1.616	575743	WORD	n/a	wordpools/wordpool_long_EN.txt	FORT	6	4	[0, 0, 0]	n/a	FR1	2	R1395M
460.381	0.883	577362	WORD_OFF	n/a	n/a	FORT	6	4	[0, 0, 0]	n/a	FR1	2	R1395M
461.264	1.6	578242	WORD	n/a	wordpools/wordpool_long_EN.txt	TAIL	7	4	[0, 0, 0]	n/a	FR1	2	R1395M
462.864	0.933	579842	WORD_OFF	n/a	n/a	TAIL	7	4	[0, 0, 0]	n/a	FR1	2	R1395M
463.797	1.601	580778	WORD	n/a	wordpools/wordpool_long_EN.txt	TROUT	8	4	[0, 0, 0]	n/a	FR1	2	R1395M
465.398	0.966	582378	WORD_OFF	n/a	n/a	TROUT	8	4	[0, 0, 0]	n/a	FR1	2	R1395M
466.364	1.601	583342	WORD	n/a	wordpools/wordpool_long_EN.txt	THUMB	9	4	[0, 0, 0]	n/a	FR1	2	R1395M
467.965	0.816	584942	WORD_OFF	n/a	n/a	THUMB	9	4	[0, 0, 0]	n/a	FR1	2	R1395M
468.781	1.617	585756	WORD	n/a	wordpools/wordpool_long_EN.txt	SCHOOL	10	4	[0, 0, 0]	n/a	FR1	2	R1395M
470.398	0.85	587375	WORD_OFF	n/a	n/a	SCHOOL	10	4	[0, 0, 0]	n/a	FR1	2	R1395M
471.248	1.6	588227	WORD	n/a	wordpools/wordpool_long_EN.txt	BOARD	11	4	[0, 0, 0]	n/a	FR1	2	R1395M
472.848	0.85	589827	WORD_OFF	n/a	n/a	BOARD	11	4	[0, 0, 0]	n/a	FR1	2	R1395M
473.698	1.6	590679	WORD	n/a	wordpools/wordpool_long_EN.txt	CAVE	12	4	[0, 0, 0]	n/a	FR1	2	R1395M
475.298	0.0	592279	WORD_OFF	n/a	n/a	CAVE	12	4	[0, 0, 0]	n/a	FR1	2	R1395M
475.298	0.001	592274	PROB	0.001	n/a	n/a	-999	4	[3, 1, 8]	12	FR1	2	R1395M
475.299	0.0	592279	DISTRACT_START	n/a	n/a	n/a	-999	4	[0, 0, 0]	n/a	FR1	2	R1395M
475.299	0.0	592279	ENCODING_END	n/a	n/a	n/a	-999	4	[0, 0, 0]	n/a	FR1	2	R1395M
475.299	3.85	592275	START	n/a	n/a	n/a	-999	4	[-999, -999, -999]	n/a	FR1	2	R1395M
479.149	2.984	596125	PROB	2.984	n/a	n/a	-999	4	[5, 4, 5]	14	FR1	2	R1395M
482.133	2.949	599109	PROB	2.949	n/a	n/a	-999	4	[5, 3, 5]	13	FR1	2	R1395M
485.082	3.033	602058	PROB	3.033	n/a	n/a	-999	4	[4, 1, 8]	13	FR1	2	R1395M
488.115	2.7	605091	PROB	2.7	n/a	n/a	-999	4	[8, 8, 2]	18	FR1	2	R1395M
490.815	2.851	607790	PROB	2.851	n/a	n/a	-999	4	[4, 8, 6]	18	FR1	2	R1395M
493.666	3.615	610641	PROB	3.615	n/a	n/a	-999	4	[6, 8, 6]	20	FR1	2	R1395M
497.281	0.0	614253	DISTRACT_END	n/a	n/a	n/a	-999	4	[0, 0, 0]	n/a	FR1	2	R1395M
497.281	2.367	614256	STOP	n/a	n/a	n/a	-999	4	[-999, -999, -999]	n/a	FR1	2	R1395M
499.648	1.167	616619	REC_START	n/a	n/a	n/a	-999	4	[0, 0, 0]	n/a	FR1	2	R1395M
500.815	1.355	617790	REC_WORD	1.355	n/a	FORT	6	4	[0, 0, 0]	n/a	FR1	2	R1395M
502.17	1.529	619145	REC_WORD	1.529	n/a	ELF	4	4	[0, 0, 0]	n/a	FR1	2	R1395M
503.699	2.436	620674	REC_WORD	2.436	n/a	TRAIL	-999	4	[0, 0, 0]	n/a	FR1	2	R1395M
506.135	23.757	623110	REC_WORD	23.757	n/a	THUMB	9	4	[0, 0, 0]	n/a	FR1	2	R1395M
529.892	16.756	646867	REC_END	n/a	n/a	n/a	-999	4	[0, 0, 0]	n/a	FR1	2	R1395M
546.648	10.35	663619	COUNTDOWN_START	n/a	n/a	n/a	-999	5	[0, 0, 0]	n/a	FR1	2	R1395M
556.998	0.0	673970	COUNTDOWN_END	n/a	n/a	n/a	-999	5	[0, 0, 0]	n/a	FR1	2	R1395M
556.998	2.266	673970	ENCODING_START	n/a	n/a	n/a	-999	5	[0, 0, 0]	n/a	FR1	2	R1395M
559.264	1.6	676234	WORD	n/a	wordpools/wordpool_long_EN.txt	GRILL	1	5	[0, 0, 0]	n/a	FR1	2	R1395M
560.864	0.833	677835	WORD_OFF	n/a	n/a	GRILL	1	5	[0, 0, 0]	n/a	FR1	2	R1395M
561.697	1.617	678667	WORD	n/a	wordpools/wordpool_long_EN.txt	STRING	2	5	[0, 0, 0]	n/a	FR1	2	R1395M
563.314	1.0	680286	WORD_OFF	n/a	n/a	STRING	2	5	[0, 0, 0]	n/a	FR1	2	R1395M
564.314	1.617	681288	WORD	n/a	wordpools/wordpool_long_EN.txt	SUIT	3	5	[0, 0, 0]	n/a	FR1	2	R1395M
565.931	0.983	682898	WORD_OFF	n/a	n/a	SUIT	3	5	[0, 0, 0]	n/a	FR1	2	R1395M
566.914	1.601	683890	WORD	n/a	wordpools/wordpool_long_EN.txt	PEA	4	5	[0, 0, 0]	n/a	FR1	2	R1395M
568.515	0.799	685490	WORD_OFF	n/a	n/a	PEA	4	5	[0, 0, 0]	n/a	FR1	2	R1395M
569.314	1.601	686285	WORD	n/a	wordpools/wordpool_long_EN.txt	DIME	5	5	[0, 0, 0]	n/a	FR1	2	R1395M
570.915	0.999	687886	WORD_OFF	n/a	n/a	DIME	5	5	[0, 0, 0]	n/a	FR1	2	R1395M
571.914	1.602	688887	WORD	n/a	wordpools/wordpool_long_EN.txt	BAT	6	5	[0, 0, 0]	n/a	FR1	2	R1395M
573.516	0.966	690487	WORD_OFF	n/a	n/a	BAT	6	5	[0, 0, 0]	n/a	FR1	2	R1395M
574.482	1.6	691451	WORD	n/a	wordpools/wordpool_long_EN.txt	PORK	7	5	[0, 0, 0]	n/a	FR1	2	R1395M
576.082	0.8	693051	WORD_OFF	n/a	n/a	PORK	7	5	[0, 0, 0]	n/a	FR1	2	R1395M
576.882	1.616	693856	WORD	n/a	wordpools/wordpool_long_EN.txt	SEAT	8	5	[0, 0, 0]	n/a	FR1	2	R1395M
578.498	0.866	695466	WORD_OFF	n/a	n/a	SEAT	8	5	[0, 0, 0]	n/a	FR1	2	R1395M
579.364	1.601	696336	WORD	n/a	wordpools/wordpool_long_EN.txt	BAG	9	5	[0, 0, 0]	n/a	FR1	2	R1395M
580.965	0.867	697937	WORD_OFF	n/a	n/a	BAG	9	5	[0, 0, 0]	n/a	FR1	2	R1395M
581.832	1.616	698807	WORD	n/a	wordpools/wordpool_long_EN.txt	EEL	10	5	[0, 0, 0]	n/a	FR1	2	R1395M
583.448	0.834	700417	WORD_OFF	n/a	n/a	EEL	10	5	[0, 0, 0]	n/a	FR1	2	R1395M
584.282	1.6	701250	WORD	n/a	wordpools/wordpool_long_EN.txt	BADGE	11	5	[0, 0, 0]	n/a	FR1	2	R1395M
585.882	0.966	702850	WORD_OFF	n/a	n/a	BADGE	11	5	[0, 0, 0]	n/a	FR1	2	R1395M
586.848	1.617	703823	WORD	n/a	wordpools/wordpool_long_EN.txt	LAND	12	5	[0, 0, 0]	n/a	FR1	2	R1395M
588.465	0.001	705433	WORD_OFF	n/a	n/a	LAND	12	5	[0, 0, 0]	n/a	FR1	2	R1395M
588.466	0.0	705442	DISTRACT_START	n/a	n/a	n/a	-999	5	[0, 0, 0]	n/a	FR1	2	R1395M
588.466	0.0	705442	ENCODING_END	n/a	n/a	n/a	-999	5	[0, 0, 0]	n/a	FR1	2	R1395M
588.466	0.0	705436	START	n/a	n/a	n/a	-999	5	[-999, -999, -999]	n/a	FR1	2	R1395M
588.466	4.366	705436	PROB	4.366	n/a	n/a	-999	5	[2, 3, 8]	13	FR1	2	R1395M
592.832	3.283	709802	PROB	3.283	n/a	n/a	-999	5	[7, 8, 4]	19	FR1	2	R1395M
596.115	2.634	713085	PROB	2.634	n/a	n/a	-999	5	[4, 4, 7]	15	FR1	2	R1395M
598.749	2.916	715719	PROB	2.916	n/a	n/a	-999	5	[5, 6, 1]	12	FR1	2	R1395M
601.665	2.784	718634	PROB	2.784	n/a	n/a	-999	5	[3, 7, 3]	13	FR1	2	R1395M
604.449	2.833	721418	PROB	2.833	n/a	n/a	-999	5	[3, 8, 2]	13	FR1	2	R1395M
607.282	3.816	724251	PROB	3.816	n/a	n/a	-999	5	[2, 3, 8]	13	FR1	2	R1395M
611.098	0.0	728071	DISTRACT_END	n/a	n/a	n/a	-999	5	[0, 0, 0]	n/a	FR1	2	R1395M
611.098	2.033	728067	STOP	n/a	n/a	n/a	-999	5	[-999, -999, -999]	n/a	FR1	2	R1395M
613.131	1.218	730100	REC_START	n/a	n/a	n/a	-999	5	[0, 0, 0]	n/a	FR1	2	R1395M
614.349	0.676	731318	REC_WORD	0.676	n/a	PEA	4	5	[0, 0, 0]	n/a	FR1	2	R1395M
615.025	2.348	731994	REC_WORD	2.348	n/a	SUIT	3	5	[0, 0, 0]	n/a	FR1	2	R1395M
617.373	1.97	734342	REC_WORD	1.97	n/a	DIME	5	5	[0, 0, 0]	n/a	FR1	2	R1395M
619.343	3.705	736312	REC_WORD	3.705	n/a	BAT	6	5	[0, 0, 0]	n/a	FR1	2	R1395M
623.048	3.256	740016	REC_WORD	3.256	n/a	STRING	2	5	[0, 0, 0]	n/a	FR1	2	R1395M
626.304	17.059	743272	REC_WORD	17.059	n/a	SEAT	8	5	[0, 0, 0]	n/a	FR1	2	R1395M
643.363	5.218	760330	REC_END	n/a	n/a	n/a	-999	5	[0, 0, 0]	n/a	FR1	2	R1395M
648.581	10.35	765552	COUNTDOWN_START	n/a	n/a	n/a	-999	6	[0, 0, 0]	n/a	FR1	2	R1395M
658.931	0.001	775902	COUNTDOWN_END	n/a	n/a	n/a	-999	6	[0, 0, 0]	n/a	FR1	2	R1395M
658.932	1.899	775902	ENCODING_START	n/a	n/a	n/a	-999	6	[0, 0, 0]	n/a	FR1	2	R1395M
660.831	1.616	777802	WORD	n/a	wordpools/wordpool_long_EN.txt	WEB	1	6	[0, 0, 0]	n/a	FR1	2	R1395M
662.447	0.884	779412	WORD_OFF	n/a	n/a	WEB	1	6	[0, 0, 0]	n/a	FR1	2	R1395M
663.331	1.616	780301	WORD	n/a	wordpools/wordpool_long_EN.txt	DEER	2	6	[0, 0, 0]	n/a	FR1	2	R1395M
664.947	0.867	781910	WORD_OFF	n/a	n/a	DEER	2	6	[0, 0, 0]	n/a	FR1	2	R1395M
665.814	1.6	782781	WORD	n/a	wordpools/wordpool_long_EN.txt	DOG	3	6	[0, 0, 0]	n/a	FR1	2	R1395M
667.414	0.917	784381	WORD_OFF	n/a	n/a	DOG	3	6	[0, 0, 0]	n/a	FR1	2	R1395M
668.331	1.6	785298	WORD	n/a	wordpools/wordpool_long_EN.txt	CHALK	4	6	[0, 0, 0]	n/a	FR1	2	R1395M
669.931	0.883	786898	WORD_OFF	n/a	n/a	CHALK	4	6	[0, 0, 0]	n/a	FR1	2	R1395M
670.814	1.601	787778	WORD	n/a	wordpools/wordpool_long_EN.txt	WASP	5	6	[0, 0, 0]	n/a	FR1	2	R1395M
672.415	0.783	789378	WORD_OFF	n/a	n/a	WASP	5	6	[0, 0, 0]	n/a	FR1	2	R1395M
673.198	1.601	790164	WORD	n/a	wordpools/wordpool_long_EN.txt	CANE	6	6	[0, 0, 0]	n/a	FR1	2	R1395M
674.799	0.849	791765	WORD_OFF	n/a	n/a	CANE	6	6	[0, 0, 0]	n/a	FR1	2	R1395M
675.648	1.601	792616	WORD	n/a	wordpools/wordpool_long_EN.txt	TOAD	7	6	[0, 0, 0]	n/a	FR1	2	R1395M
677.249	0.833	794217	WORD_OFF	n/a	n/a	TOAD	7	6	[0, 0, 0]	n/a	FR1	2	R1395M
678.082	1.616	795050	WORD	n/a	wordpools/wordpool_long_EN.txt	TOAST	8	6	[0, 0, 0]	n/a	FR1	2	R1395M
679.698	0.95	796659	WORD_OFF	n/a	n/a	TOAST	8	6	[0, 0, 0]	n/a	FR1	2	R1395M
680.648	1.617	797614	WORD	n/a	wordpools/wordpool_long_EN.txt	FACE	9	6	[0, 0, 0]	n/a	FR1	2	R1395M
682.265	0.966	799233	WORD_OFF	n/a	n/a	FACE	9	6	[0, 0, 0]	n/a	FR1	2	R1395M
683.231	1.617	800197	WORD	n/a	wordpools/wordpool_long_EN.txt	HOLE	10	6	[0, 0, 0]	n/a	FR1	2	R1395M
684.848	0.8	801816	WORD_OFF	n/a	n/a	HOLE	10	6	[0, 0, 0]	n/a	FR1	2	R1395M
685.648	1.6	802611	WORD	n/a	wordpools/wordpool_long_EN.txt	MOUTH	11	6	[0, 0, 0]	n/a	FR1	2	R1395M
687.248	0.8	804212	WORD_OFF	n/a	n/a	MOUTH	11	6	[0, 0, 0]	n/a	FR1	2	R1395M
688.048	1.617	805016	WORD	n/a	wordpools/wordpool_long_EN.txt	BAR	12	6	[0, 0, 0]	n/a	FR1	2	R1395M
689.665	0.0	806628	WORD_OFF	n/a	n/a	BAR	12	6	[0, 0, 0]	n/a	FR1	2	R1395M
689.665	0.001	806630	PROB	0.001	n/a	n/a	-999	6	[4, 2, 2]	8	FR1	2	R1395M
689.666	0.001	806635	ENCODING_END	n/a	n/a	n/a	-999	6	[0, 0, 0]	n/a	FR1	2	R1395M
689.667	0.0	806635	DISTRACT_START	n/a	n/a	n/a	-999	6	[0, 0, 0]	n/a	FR1	2	R1395M
689.667	5.415	806632	START	n/a	n/a	n/a	-999	6	[-999, -999, -999]	n/a	FR1	2	R1395M
695.082	2.334	812047	PROB	2.334	n/a	n/a	-999	6	[2, 6, 3]	11	FR1	2	R1395M
697.416	2.416	814380	PROB	2.416	n/a	n/a	-999	6	[4, 1, 3]	8	FR1	2	R1395M
699.832	1.816	816796	PROB	1.816	n/a	n/a	-999	6	[7, 3, 1]	11	FR1	2	R1395M
701.648	2.434	818612	PROB	2.434	n/a	n/a	-999	6	[7, 6, 8]	21	FR1	2	R1395M
704.082	3.451	821046	PROB	3.451	n/a	n/a	-999	6	[3, 6, 5]	14	FR1	2	R1395M
707.533	2.465	824497	PROB	2.465	n/a	n/a	-999	6	[5, 2, 5]	12	FR1	2	R1395M
709.998	0.0	826962	DISTRACT_END	n/a	n/a	n/a	-999	6	[0, 0, 0]	n/a	FR1	2	R1395M
709.998	2.284	826962	STOP	n/a	n/a	n/a	-999	6	[-999, -999, -999]	n/a	FR1	2	R1395M
712.282	1.91	829244	REC_START	n/a	n/a	n/a	-999	6	[0, 0, 0]	n/a	FR1	2	R1395M
714.192	1.413	831156	REC_WORD	1.413	n/a	DEER	2	6	[0, 0, 0]	n/a	FR1	2	R1395M
715.605	2.392	832568	REC_WORD	2.392	n/a	DOG	3	6	[0, 0, 0]	n/a	FR1	2	R1395M
717.997	2.623	834960	REC_WORD	2.623	n/a	TOAD	7	6	[0, 0, 0]	n/a	FR1	2	R1395M
720.62	2.867	837583	REC_WORD	2.867	n/a	WASP	5	6	[0, 0, 0]	n/a	FR1	2	R1395M
723.487	2.16	840450	REC_WORD	2.16	n/a	FACE	9	6	[0, 0, 0]	n/a	FR1	2	R1395M
725.647	5.664	842610	REC_WORD	5.664	n/a	MOUTH	11	6	[0, 0, 0]	n/a	FR1	2	R1395M
731.311	11.206	848274	REC_WORD_VV	11.206	n/a	<>	-999	6	[0, 0, 0]	n/a	FR1	2	R1395M
742.517	13.247	859483	REC_END	n/a	n/a	n/a	-999	6	[0, 0, 0]	n/a	FR1	2	R1395M
755.764	10.352	872725	COUNTDOWN_START	n/a	n/a	n/a	-999	7	[0, 0, 0]	n/a	FR1	2	R1395M
766.116	0.0	883076	COUNTDOWN_END	n/a	n/a	n/a	-999	7	[0, 0, 0]	n/a	FR1	2	R1395M
766.116	2.166	883076	ENCODING_START	n/a	n/a	n/a	-999	7	[0, 0, 0]	n/a	FR1	2	R1395M
768.282	1.616	885247	WORD	n/a	wordpools/wordpool_long_EN.txt	SUN	1	7	[0, 0, 0]	n/a	FR1	2	R1395M
769.898	0.966	886856	WORD_OFF	n/a	n/a	SUN	1	7	[0, 0, 0]	n/a	FR1	2	R1395M
770.864	1.6	887830	WORD	n/a	wordpools/wordpool_long_EN.txt	TEETH	2	7	[0, 0, 0]	n/a	FR1	2	R1395M
772.464	0.817	889421	WORD_OFF	n/a	n/a	TEETH	2	7	[0, 0, 0]	n/a	FR1	2	R1395M
773.281	1.6	890244	WORD	n/a	wordpools/wordpool_long_EN.txt	KEY	3	7	[0, 0, 0]	n/a	FR1	2	R1395M
774.881	0.833	891844	WORD_OFF	n/a	n/a	KEY	3	7	[0, 0, 0]	n/a	FR1	2	R1395M
775.714	1.617	892677	WORD	n/a	wordpools/wordpool_long_EN.txt	YACHT	4	7	[0, 0, 0]	n/a	FR1	2	R1395M
777.331	0.783	894287	WORD_OFF	n/a	n/a	YACHT	4	7	[0, 0, 0]	n/a	FR1	2	R1395M
778.114	1.617	895073	WORD	n/a	wordpools/wordpool_long_EN.txt	MOOSE	5	7	[0, 0, 0]	n/a	FR1	2	R1395M
779.731	0.967	896692	WORD_OFF	n/a	n/a	MOOSE	5	7	[0, 0, 0]	n/a	FR1	2	R1395M
780.698	1.6	897656	WORD	n/a	wordpools/wordpool_long_EN.txt	STONE	6	7	[0, 0, 0]	n/a	FR1	2	R1395M
782.298	0.767	899256	WORD_OFF	n/a	n/a	STONE	6	7	[0, 0, 0]	n/a	FR1	2	R1395M
783.065	1.617	900024	WORD	n/a	wordpools/wordpool_long_EN.txt	FLAG	7	7	[0, 0, 0]	n/a	FR1	2	R1395M
784.682	0.883	901643	WORD_OFF	n/a	n/a	FLAG	7	7	[0, 0, 0]	n/a	FR1	2	R1395M
785.565	1.6	902522	WORD	n/a	wordpools/wordpool_long_EN.txt	LIP	8	7	[0, 0, 0]	n/a	FR1	2	R1395M
787.165	0.883	904123	WORD_OFF	n/a	n/a	LIP	8	7	[0, 0, 0]	n/a	FR1	2	R1395M
788.048	1.6	905012	WORD	n/a	wordpools/wordpool_long_EN.txt	LAWN	9	7	[0, 0, 0]	n/a	FR1	2	R1395M
789.648	0.917	906612	WORD_OFF	n/a	n/a	LAWN	9	7	[0, 0, 0]	n/a	FR1	2	R1395M
790.565	1.6	907529	WORD	n/a	wordpools/wordpool_long_EN.txt	YARD	10	7	[0, 0, 0]	n/a	FR1	2	R1395M
792.165	0.95	909130	WORD_OFF	n/a	n/a	YARD	10	7	[0, 0, 0]	n/a	FR1	2	R1395M
793.115	1.616	910075	WORD	n/a	wordpools/wordpool_long_EN.txt	HUT	11	7	[0, 0, 0]	n/a	FR1	2	R1395M
794.731	1.0	911694	WORD_OFF	n/a	n/a	HUT	11	7	[0, 0, 0]	n/a	FR1	2	R1395M
795.731	1.6	912695	WORD	n/a	wordpools/wordpool_long_EN.txt	ZOO	12	7	[0, 0, 0]	n/a	FR1	2	R1395M
797.331	0.0	914286	WORD_OFF	n/a	n/a	ZOO	12	7	[0, 0, 0]	n/a	FR1	2	R1395M
797.331	0.002	914290	PROB	0.002	n/a	n/a	-999	7	[8, 8, 2]	18	FR1	2	R1395M
797.333	0.0	914295	DISTRACT_START	n/a	n/a	n/a	-999	7	[0, 0, 0]	n/a	FR1	2	R1395M
797.333	0.0	914295	ENCODING_END	n/a	n/a	n/a	-999	7	[0, 0, 0]	n/a	FR1	2	R1395M
797.333	4.499	914292	START	n/a	n/a	n/a	-999	7	[-999, -999, -999]	n/a	FR1	2	R1395M
801.832	2.083	918791	PROB	2.083	n/a	n/a	-999	7	[3, 2, 3]	8	FR1	2	R1395M
803.915	2.066	920874	PROB	2.066	n/a	n/a	-999	7	[5, 3, 2]	10	FR1	2	R1395M
805.981	2.101	922940	PROB	2.101	n/a	n/a	-999	7	[3, 1, 6]	10	FR1	2	R1395M
808.082	2.734	925041	PROB	2.734	n/a	n/a	-999	7	[8, 4, 2]	14	FR1	2	R1395M
810.816	3.299	927774	PROB	3.299	n/a	n/a	-999	7	[7, 2, 6]	15	FR1	2	R1395M
814.115	2.167	931073	PROB	2.167	n/a	n/a	-999	7	[1, 7, 3]	11	FR1	2	R1395M
816.282	2.7	933240	PROB	2.7	n/a	n/a	-999	7	[4, 8, 1]	13	FR1	2	R1395M
818.982	0.0	935942	DISTRACT_END	n/a	n/a	n/a	-999	7	[0, 0, 0]	n/a	FR1	2	R1395M
818.982	2.333	935940	STOP	n/a	n/a	n/a	-999	7	[-999, -999, -999]	n/a	FR1	2	R1395M
821.315	1.786	938270	REC_START	n/a	n/a	n/a	-999	7	[0, 0, 0]	n/a	FR1	2	R1395M
823.101	1.744	940059	REC_WORD	1.744	n/a	KEY	3	7	[0, 0, 0]	n/a	FR1	2	R1395M
824.845	1.992	941803	REC_WORD	1.992	n/a	YACHT	4	7	[0, 0, 0]	n/a	FR1	2	R1395M
826.837	1.763	943795	REC_WORD	1.763	n/a	MOOSE	5	7	[0, 0, 0]	n/a	FR1	2	R1395M
828.6	2.35	945557	REC_WORD	2.35	n/a	ZOO	12	7	[0, 0, 0]	n/a	FR1	2	R1395M
830.95	20.598	947907	REC_WORD	20.598	n/a	FLAG	7	7	[0, 0, 0]	n/a	FR1	2	R1395M
851.548	1.967	968509	REC_END	n/a	n/a	n/a	-999	7	[0, 0, 0]	n/a	FR1	2	R1395M
853.515	10.35	970474	COUNTDOWN_START	n/a	n/a	n/a	-999	8	[0, 0, 0]	n/a	FR1	2	R1395M
863.865	0.0	980825	COUNTDOWN_END	n/a	n/a	n/a	-999	8	[0, 0, 0]	n/a	FR1	2	R1395M
863.865	2.017	980825	ENCODING_START	n/a	n/a	n/a	-999	8	[0, 0, 0]	n/a	FR1	2	R1395M
865.882	1.6	982837	WORD	n/a	wordpools/wordpool_long_EN.txt	MOON	1	8	[0, 0, 0]	n/a	FR1	2	R1395M
867.482	0.9	984437	WORD_OFF	n/a	n/a	MOON	1	8	[0, 0, 0]	n/a	FR1	2	R1395M
868.382	1.6	985336	WORD	n/a	wordpools/wordpool_long_EN.txt	GRASS	2	8	[0, 0, 0]	n/a	FR1	2	R1395M
869.982	0.916	986936	WORD_OFF	n/a	n/a	GRASS	2	8	[0, 0, 0]	n/a	FR1	2	R1395M
870.898	1.6	987853	WORD	n/a	wordpools/wordpool_long_EN.txt	BEAST	3	8	[0, 0, 0]	n/a	FR1	2	R1395M
872.498	0.816	989453	WORD_OFF	n/a	n/a	BEAST	3	8	[0, 0, 0]	n/a	FR1	2	R1395M
873.314	1.6	990268	WORD	n/a	wordpools/wordpool_long_EN.txt	CRIB	4	8	[0, 0, 0]	n/a	FR1	2	R1395M
874.914	1.001	991868	WORD_OFF	n/a	n/a	CRIB	4	8	[0, 0, 0]	n/a	FR1	2	R1395M
875.915	1.6	992869	WORD	n/a	wordpools/wordpool_long_EN.txt	HAZE	5	8	[0, 0, 0]	n/a	FR1	2	R1395M
877.515	0.832	994470	WORD_OFF	n/a	n/a	HAZE	5	8	[0, 0, 0]	n/a	FR1	2	R1395M
878.347	1.601	995302	WORD	n/a	wordpools/wordpool_long_EN.txt	BAND	6	8	[0, 0, 0]	n/a	FR1	2	R1395M
879.948	0.8	996903	WORD_OFF	n/a	n/a	BAND	6	8	[0, 0, 0]	n/a	FR1	2	R1395M
880.748	1.6	997708	WORD	n/a	wordpools/wordpool_long_EN.txt	STAKE	7	8	[0, 0, 0]	n/a	FR1	2	R1395M
882.348	0.816	999299	WORD_OFF	n/a	n/a	STAKE	7	8	[0, 0, 0]	n/a	FR1	2	R1395M
883.164	1.601	1000122	WORD	n/a	wordpools/wordpool_long_EN.txt	SMOG	8	8	[0, 0, 0]	n/a	FR1	2	R1395M
884.765	0.933	1001722	WORD_OFF	n/a	n/a	SMOG	8	8	[0, 0, 0]	n/a	FR1	2	R1395M
885.698	1.6	1002649	WORD	n/a	wordpools/wordpool_long_EN.txt	STICK	9	8	[0, 0, 0]	n/a	FR1	2	R1395M
887.298	0.767	1004249	WORD_OFF	n/a	n/a	STICK	9	8	[0, 0, 0]	n/a	FR1	2	R1395M
888.065	1.6	1005017	WORD	n/a	wordpools/wordpool_long_EN.txt	BREAD	10	8	[0, 0, 0]	n/a	FR1	2	R1395M
889.665	0.817	1006617	WORD_OFF	n/a	n/a	BREAD	10	8	[0, 0, 0]	n/a	FR1	2	R1395M
890.482	1.6	1007440	WORD	n/a	wordpools/wordpool_long_EN.txt	TOOL	11	8	[0, 0, 0]	n/a	FR1	2	R1395M
892.082	0.799	1009041	WORD_OFF	n/a	n/a	TOOL	11	8	[0, 0, 0]	n/a	FR1	2	R1395M
892.881	1.601	1009836	WORD	n/a	wordpools/wordpool_long_EN.txt	ARK	12	8	[0, 0, 0]	n/a	FR1	2	R1395M
894.482	0.001	1011436	WORD_OFF	n/a	n/a	ARK	12	8	[0, 0, 0]	n/a	FR1	2	R1395M
894.483	0.0	1011436	DISTRACT_START	n/a	n/a	n/a	-999	8	[0, 0, 0]	n/a	FR1	2	R1395M
894.483	0.0	1011436	ENCODING_END	n/a	n/a	n/a	-999	8	[0, 0, 0]	n/a	FR1	2	R1395M
894.483	0.001	1011437	START	n/a	n/a	n/a	-999	8	[-999, -999, -999]	n/a	FR1	2	R1395M
894.484	3.948	1011438	PROB	3.948	n/a	n/a	-999	8	[3, 8, 1]	12	FR1	2	R1395M
898.432	8.417	1015386	PROB	8.417	n/a	n/a	-999	8	[8, 5, 8]	21	FR1	2	R1395M
906.849	2.449	1023802	PROB	2.449	n/a	n/a	-999	8	[6, 5, 1]	12	FR1	2	R1395M
909.298	3.167	1026251	PROB	3.167	n/a	n/a	-999	8	[8, 5, 7]	20	FR1	2	R1395M
912.465	2.233	1029418	PROB	2.233	n/a	n/a	-999	8	[2, 1, 6]	9	FR1	2	R1395M
914.698	0.0	1031651	DISTRACT_END	n/a	n/a	n/a	-999	8	[0, 0, 0]	n/a	FR1	2	R1395M
914.698	2.3	1031651	STOP	n/a	n/a	n/a	-999	8	[-999, -999, -999]	n/a	FR1	2	R1395M
916.998	3.462	1033952	REC_START	n/a	n/a	n/a	-999	8	[0, 0, 0]	n/a	FR1	2	R1395M
920.46	0.738	1037413	REC_WORD	0.738	n/a	STAKE	7	8	[0, 0, 0]	n/a	FR1	2	R1395M
921.198	2.556	1038151	REC_WORD	2.556	n/a	STICK	9	8	[0, 0, 0]	n/a	FR1	2	R1395M
923.754	1.691	1040706	REC_WORD	1.691	n/a	BREAD	10	8	[0, 0, 0]	n/a	FR1	2	R1395M
925.445	6.89	1042397	REC_WORD	6.89	n/a	TOOL	11	8	[0, 0, 0]	n/a	FR1	2	R1395M
932.335	0.32	1049287	REC_WORD_VV	0.32	n/a	<>	-999	8	[0, 0, 0]	n/a	FR1	2	R1395M
932.655	4.87	1049607	REC_WORD	4.87	n/a	MOON	1	8	[0, 0, 0]	n/a	FR1	2	R1395M
937.525	3.662	1054477	REC_WORD	3.662	n/a	SMOG	8	8	[0, 0, 0]	n/a	FR1	2	R1395M
941.187	1.079	1058138	REC_WORD_VV	1.079	n/a	<>	-999	8	[0, 0, 0]	n/a	FR1	2	R1395M
942.266	3.0	1059217	REC_WORD	3.0	n/a	MIST	-999	8	[0, 0, 0]	n/a	FR1	2	R1395M
945.266	0.581	1062217	REC_WORD_VV	0.581	n/a	<>	-999	8	[0, 0, 0]	n/a	FR1	2	R1395M
945.847	1.384	1062798	REC_WORD	1.384	n/a	HAZE	5	8	[0, 0, 0]	n/a	FR1	2	R1395M
947.231	21.1	1064181	REC_END	n/a	n/a	n/a	-999	8	[0, 0, 0]	n/a	FR1	2	R1395M
968.331	10.35	1085284	COUNTDOWN_START	n/a	n/a	n/a	-999	9	[0, 0, 0]	n/a	FR1	2	R1395M
978.681	0.0	1095635	COUNTDOWN_END	n/a	n/a	n/a	-999	9	[0, 0, 0]	n/a	FR1	2	R1395M
978.681	2.317	1095635	ENCODING_START	n/a	n/a	n/a	-999	9	[0, 0, 0]	n/a	FR1	2	R1395M
980.998	1.6	1097946	WORD	n/a	wordpools/wordpool_long_EN.txt	FLEET	1	9	[0, 0, 0]	n/a	FR1	2	R1395M
982.598	0.983	1099547	WORD_OFF	n/a	n/a	FLEET	1	9	[0, 0, 0]	n/a	FR1	2	R1395M
983.581	1.6	1100529	WORD	n/a	wordpools/wordpool_long_EN.txt	BUSH	2	9	[0, 0, 0]	n/a	FR1	2	R1395M
985.181	0.884	1102130	WORD_OFF	n/a	n/a	BUSH	2	9	[0, 0, 0]	n/a	FR1	2	R1395M
986.065	1.6	1103019	WORD	n/a	wordpools/wordpool_long_EN.txt	YOLK	3	9	[0, 0, 0]	n/a	FR1	2	R1395M
987.665	0.983	1104619	WORD_OFF	n/a	n/a	YOLK	3	9	[0, 0, 0]	n/a	FR1	2	R1395M
988.648	1.6	1105592	WORD	n/a	wordpools/wordpool_long_EN.txt	THIEF	4	9	[0, 0, 0]	n/a	FR1	2	R1395M
990.248	0.917	1107202	WORD_OFF	n/a	n/a	THIEF	4	9	[0, 0, 0]	n/a	FR1	2	R1395M
991.165	1.6	1108119	WORD	n/a	wordpools/wordpool_long_EN.txt	SHOE	5	9	[0, 0, 0]	n/a	FR1	2	R1395M
992.765	0.9	1109713	WORD_OFF	n/a	n/a	SHOE	5	9	[0, 0, 0]	n/a	FR1	2	R1395M
993.665	1.6	1110618	WORD	n/a	wordpools/wordpool_long_EN.txt	CAGE	6	9	[0, 0, 0]	n/a	FR1	2	R1395M
995.265	0.9	1112218	WORD_OFF	n/a	n/a	CAGE	6	9	[0, 0, 0]	n/a	FR1	2	R1395M
996.165	1.6	1113116	WORD	n/a	wordpools/wordpool_long_EN.txt	VEST	7	9	[0, 0, 0]	n/a	FR1	2	R1395M
997.765	0.933	1114717	WORD_OFF	n/a	n/a	VEST	7	9	[0, 0, 0]	n/a	FR1	2	R1395M
998.698	1.617	1115643	WORD	n/a	wordpools/wordpool_long_EN.txt	FUR	8	9	[0, 0, 0]	n/a	FR1	2	R1395M
1000.315	0.983	1117262	WORD_OFF	n/a	n/a	FUR	8	9	[0, 0, 0]	n/a	FR1	2	R1395M
1001.298	1.6	1118245	WORD	n/a	wordpools/wordpool_long_EN.txt	FLEA	9	9	[0, 0, 0]	n/a	FR1	2	R1395M
1002.898	0.766	1119845	WORD_OFF	n/a	n/a	FLEA	9	9	[0, 0, 0]	n/a	FR1	2	R1395M
1003.664	1.601	1120613	WORD	n/a	wordpools/wordpool_long_EN.txt	MASK	10	9	[0, 0, 0]	n/a	FR1	2	R1395M
1005.265	0.9	1122213	WORD_OFF	n/a	n/a	MASK	10	9	[0, 0, 0]	n/a	FR1	2	R1395M
1006.165	1.6	1123111	WORD	n/a	wordpools/wordpool_long_EN.txt	DRINK	11	9	[0, 0, 0]	n/a	FR1	2	R1395M
1007.765	0.833	1124712	WORD_OFF	n/a	n/a	DRINK	11	9	[0, 0, 0]	n/a	FR1	2	R1395M
1008.598	1.617	1125544	WORD	n/a	wordpools/wordpool_long_EN.txt	WOOD	12	9	[0, 0, 0]	n/a	FR1	2	R1395M
1010.215	0.0	1127164	WORD_OFF	n/a	n/a	WOOD	12	9	[0, 0, 0]	n/a	FR1	2	R1395M
1010.215	0.001	1127163	PROB	0.001	n/a	n/a	-999	9	[2, 2, 8]	12	FR1	2	R1395M
1010.216	0.0	1127164	DISTRACT_START	n/a	n/a	n/a	-999	9	[0, 0, 0]	n/a	FR1	2	R1395M
1010.216	0.0	1127164	ENCODING_END	n/a	n/a	n/a	-999	9	[0, 0, 0]	n/a	FR1	2	R1395M
1010.216	3.249	1127164	START	n/a	n/a	n/a	-999	9	[-999, -999, -999]	n/a	FR1	2	R1395M
1013.465	2.167	1130413	PROB	2.167	n/a	n/a	-999	9	[4, 4, 2]	10	FR1	2	R1395M
1015.632	2.35	1132579	PROB	2.35	n/a	n/a	-999	9	[5, 6, 7]	18	FR1	2	R1395M
1017.982	2.383	1134929	PROB	2.383	n/a	n/a	-999	9	[2, 8, 2]	12	FR1	2	R1395M
1020.365	2.501	1137312	PROB	2.501	n/a	n/a	-999	9	[3, 5, 4]	12	FR1	2	R1395M
1022.866	2.367	1139813	PROB	2.367	n/a	n/a	-999	9	[1, 2, 5]	8	FR1	2	R1395M
1025.233	2.315	1142180	PROB	2.315	n/a	n/a	-999	9	[8, 7, 1]	16	FR1	2	R1395M
1027.548	2.468	1144495	PROB	2.468	n/a	n/a	-999	9	[4, 1, 5]	10	FR1	2	R1395M
1030.016	2.499	1146963	PROB	2.499	n/a	n/a	-999	9	[2, 7, 3]	12	FR1	2	R1395M
1032.515	0.0	1149465	DISTRACT_END	n/a	n/a	n/a	-999	9	[0, 0, 0]	n/a	FR1	2	R1395M
1032.515	2.067	1149462	STOP	n/a	n/a	n/a	-999	9	[-999, -999, -999]	n/a	FR1	2	R1395M
1034.582	3.797	1151532	REC_START	n/a	n/a	n/a	-999	9	[0, 0, 0]	n/a	FR1	2	R1395M
1038.379	2.468	1155325	REC_WORD	2.468	n/a	MASK	10	9	[0, 0, 0]	n/a	FR1	2	R1395M
1040.847	2.009	1157793	REC_WORD	2.009	n/a	DRINK	11	9	[0, 0, 0]	n/a	FR1	2	R1395M
1042.856	8.135	1159802	REC_WORD	8.135	n/a	WOOD	12	9	[0, 0, 0]	n/a	FR1	2	R1395M
1050.991	1.415	1167937	REC_WORD	1.415	n/a	THIEF	4	9	[0, 0, 0]	n/a	FR1	2	R1395M
1052.406	12.421	1169352	REC_WORD	12.421	n/a	SHOE	5	9	[0, 0, 0]	n/a	FR1	2	R1395M
1064.827	35.737	1181770	REC_END	n/a	n/a	n/a	-999	9	[0, 0, 0]	n/a	FR1	2	R1395M
1100.564	10.352	1217510	COUNTDOWN_START	n/a	n/a	n/a	-999	10	[0, 0, 0]	n/a	FR1	2	R1395M
1110.916	0.0	1227861	COUNTDOWN_END	n/a	n/a	n/a	-999	10	[0, 0, 0]	n/a	FR1	2	R1395M
1110.916	2.066	1227861	ENCODING_START	n/a	n/a	n/a	-999	10	[0, 0, 0]	n/a	FR1	2	R1395M
1112.982	1.615	1229920	WORD	n/a	wordpools/wordpool_long_EN.txt	GATE	1	10	[0, 0, 0]	n/a	FR1	2	R1395M
1114.597	0.818	1231539	WORD_OFF	n/a	n/a	GATE	1	10	[0, 0, 0]	n/a	FR1	2	R1395M
1115.415	1.6	1232362	WORD	n/a	wordpools/wordpool_long_EN.txt	SLIME	2	10	[0, 0, 0]	n/a	FR1	2	R1395M
1117.015	0.833	1233953	WORD_OFF	n/a	n/a	SLIME	2	10	[0, 0, 0]	n/a	FR1	2	R1395M
1117.848	1.6	1234786	WORD	n/a	wordpools/wordpool_long_EN.txt	EGG	3	10	[0, 0, 0]	n/a	FR1	2	R1395M
1119.448	0.784	1236386	WORD_OFF	n/a	n/a	EGG	3	10	[0, 0, 0]	n/a	FR1	2	R1395M
1120.232	1.616	1237172	WORD	n/a	wordpools/wordpool_long_EN.txt	PAIL	4	10	[0, 0, 0]	n/a	FR1	2	R1395M
1121.848	0.767	1238792	WORD_OFF	n/a	n/a	PAIL	4	10	[0, 0, 0]	n/a	FR1	2	R1395M
1122.615	1.6	1239559	WORD	n/a	wordpools/wordpool_long_EN.txt	CARD	5	10	[0, 0, 0]	n/a	FR1	2	R1395M
1124.215	0.867	1241159	WORD_OFF	n/a	n/a	CARD	5	10	[0, 0, 0]	n/a	FR1	2	R1395M
1125.082	1.6	1242020	WORD	n/a	wordpools/wordpool_long_EN.txt	MEAT	6	10	[0, 0, 0]	n/a	FR1	2	R1395M
1126.682	0.766	1243620	WORD_OFF	n/a	n/a	MEAT	6	10	[0, 0, 0]	n/a	FR1	2	R1395M
1127.448	1.6	1244388	WORD	n/a	wordpools/wordpool_long_EN.txt	INK	7	10	[0, 0, 0]	n/a	FR1	2	R1395M
1129.048	0.9	1245988	WORD_OFF	n/a	n/a	INK	7	10	[0, 0, 0]	n/a	FR1	2	R1395M
1129.948	1.6	1246887	WORD	n/a	wordpools/wordpool_long_EN.txt	SLUG	8	10	[0, 0, 0]	n/a	FR1	2	R1395M
1131.548	0.85	1248487	WORD_OFF	n/a	n/a	SLUG	8	10	[0, 0, 0]	n/a	FR1	2	R1395M
1132.398	1.617	1249339	WORD	n/a	wordpools/wordpool_long_EN.txt	SLUSH	9	10	[0, 0, 0]	n/a	FR1	2	R1395M
1134.015	0.932	1250958	WORD_OFF	n/a	n/a	SLUSH	9	10	[0, 0, 0]	n/a	FR1	2	R1395M
1134.947	1.601	1251893	WORD	n/a	wordpools/wordpool_long_EN.txt	RICE	10	10	[0, 0, 0]	n/a	FR1	2	R1395M
1136.548	0.784	1253494	WORD_OFF	n/a	n/a	RICE	10	10	[0, 0, 0]	n/a	FR1	2	R1395M
1137.332	1.6	1254270	WORD	n/a	wordpools/wordpool_long_EN.txt	ROOT	11	10	[0, 0, 0]	n/a	FR1	2	R1395M
1138.932	0.866	1255871	WORD_OFF	n/a	n/a	ROOT	11	10	[0, 0, 0]	n/a	FR1	2	R1395M
1139.798	1.6	1256741	WORD	n/a	wordpools/wordpool_long_EN.txt	SQUARE	12	10	[0, 0, 0]	n/a	FR1	2	R1395M
1141.398	0.001	1258341	WORD_OFF	n/a	n/a	SQUARE	12	10	[0, 0, 0]	n/a	FR1	2	R1395M
1141.399	0.001	1258340	PROB	0.001	n/a	n/a	-999	10	[8, 6, 3]	17	FR1	2	R1395M
1141.4	0.0	1258341	DISTRACT_START	n/a	n/a	n/a	-999	10	[0, 0, 0]	n/a	FR1	2	R1395M
1141.4	0.0	1258341	ENCODING_END	n/a	n/a	n/a	-999	10	[0, 0, 0]	n/a	FR1	2	R1395M
1141.4	3.049	1258341	START	n/a	n/a	n/a	-999	10	[-999, -999, -999]	n/a	FR1	2	R1395M
1144.449	2.1	1261390	PROB	2.1	n/a	n/a	-999	10	[2, 2, 3]	7	FR1	2	R1395M
1146.549	2.583	1263490	PROB	2.583	n/a	n/a	-999	10	[2, 3, 2]	7	FR1	2	R1395M
1149.132	2.683	1266072	PROB	2.683	n/a	n/a	-999	10	[4, 1, 3]	8	FR1	2	R1395M
1151.815	2.617	1268755	PROB	2.617	n/a	n/a	-999	10	[2, 1, 8]	11	FR1	2	R1395M
1154.432	2.566	1271372	PROB	2.566	n/a	n/a	-999	10	[2, 1, 8]	11	FR1	2	R1395M
1156.998	3.017	1273938	PROB	3.017	n/a	n/a	-999	10	[2, 4, 1]	7	FR1	2	R1395M
1160.015	2.683	1276955	PROB	2.683	n/a	n/a	-999	10	[7, 6, 8]	21	FR1	2	R1395M
1162.698	0.0	1279641	DISTRACT_END	n/a	n/a	n/a	-999	10	[0, 0, 0]	n/a	FR1	2	R1395M
1162.698	2.2	1279638	STOP	n/a	n/a	n/a	-999	10	[-999, -999, -999]	n/a	FR1	2	R1395M
1164.898	2.824	1281839	REC_START	n/a	n/a	n/a	-999	10	[0, 0, 0]	n/a	FR1	2	R1395M
1167.722	1.559	1284661	REC_WORD	1.559	n/a	EGG	3	10	[0, 0, 0]	n/a	FR1	2	R1395M
1169.281	2.447	1286220	REC_WORD	2.447	n/a	SLIME	2	10	[0, 0, 0]	n/a	FR1	2	R1395M
1171.728	2.619	1288667	REC_WORD	2.619	n/a	PAIL	4	10	[0, 0, 0]	n/a	FR1	2	R1395M
1174.347	16.996	1291286	REC_WORD	16.996	n/a	RICE	10	10	[0, 0, 0]	n/a	FR1	2	R1395M
1191.343	3.285	1308281	REC_WORD_VV	3.285	n/a	<>	-999	10	[0, 0, 0]	n/a	FR1	2	R1395M
1194.628	0.487	1311566	REC_WORD_VV	0.487	n/a	<>	-999	10	[0, 0, 0]	n/a	FR1	2	R1395M
1195.115	2.8	1312050	REC_END	n/a	n/a	n/a	-999	10	[0, 0, 0]	n/a	FR1	2	R1395M
1197.915	10.35	1314857	COUNTDOWN_START	n/a	n/a	n/a	-999	11	[0, 0, 0]	n/a	FR1	2	R1395M
1208.265	0.0	1325198	COUNTDOWN_END	n/a	n/a	n/a	-999	11	[0, 0, 0]	n/a	FR1	2	R1395M
1208.265	2.117	1325208	ENCODING_START	n/a	n/a	n/a	-999	11	[0, 0, 0]	n/a	FR1	2	R1395M
1210.382	1.6	1327323	WORD	n/a	wordpools/wordpool_long_EN.txt	TRENCH	1	11	[0, 0, 0]	n/a	FR1	2	R1395M
1211.982	0.95	1328923	WORD_OFF	n/a	n/a	TRENCH	1	11	[0, 0, 0]	n/a	FR1	2	R1395M
1212.932	1.616	1329868	WORD	n/a	wordpools/wordpool_long_EN.txt	SPEAR	2	11	[0, 0, 0]	n/a	FR1	2	R1395M
1214.548	0.934	1331487	WORD_OFF	n/a	n/a	SPEAR	2	11	[0, 0, 0]	n/a	FR1	2	R1395M
1215.482	1.6	1332423	WORD	n/a	wordpools/wordpool_long_EN.txt	CLOTH	3	11	[0, 0, 0]	n/a	FR1	2	R1395M
1217.082	0.783	1334023	WORD_OFF	n/a	n/a	CLOTH	3	11	[0, 0, 0]	n/a	FR1	2	R1395M
1217.865	1.6	1334800	WORD	n/a	wordpools/wordpool_long_EN.txt	CROWN	4	11	[0, 0, 0]	n/a	FR1	2	R1395M
1219.465	0.783	1336400	WORD_OFF	n/a	n/a	CROWN	4	11	[0, 0, 0]	n/a	FR1	2	R1395M
1220.248	1.6	1337187	WORD	n/a	wordpools/wordpool_long_EN.txt	SEED	5	11	[0, 0, 0]	n/a	FR1	2	R1395M
1221.848	0.85	1338787	WORD_OFF	n/a	n/a	SEED	5	11	[0, 0, 0]	n/a	FR1	2	R1395M
1222.698	1.6	1339639	WORD	n/a	wordpools/wordpool_long_EN.txt	CLOCK	6	11	[0, 0, 0]	n/a	FR1	2	R1395M
1224.298	0.8	1341239	WORD_OFF	n/a	n/a	CLOCK	6	11	[0, 0, 0]	n/a	FR1	2	R1395M
1225.098	1.617	1342034	WORD	n/a	wordpools/wordpool_long_EN.txt	SCARF	7	11	[0, 0, 0]	n/a	FR1	2	R1395M
1226.715	0.783	1343653	WORD_OFF	n/a	n/a	SCARF	7	11	[0, 0, 0]	n/a	FR1	2	R1395M
1227.498	1.6	1344439	WORD	n/a	wordpools/wordpool_long_EN.txt	HOSE	8	11	[0, 0, 0]	n/a	FR1	2	R1395M
1229.098	0.967	1346030	WORD_OFF	n/a	n/a	HOSE	8	11	[0, 0, 0]	n/a	FR1	2	R1395M
1230.065	1.616	1347004	WORD	n/a	wordpools/wordpool_long_EN.txt	FOX	9	11	[0, 0, 0]	n/a	FR1	2	R1395M
1231.681	0.95	1348613	WORD_OFF	n/a	n/a	FOX	9	11	[0, 0, 0]	n/a	FR1	2	R1395M
1232.631	1.617	1349568	WORD	n/a	wordpools/wordpool_long_EN.txt	ICE	10	11	[0, 0, 0]	n/a	FR1	2	R1395M
1234.248	0.8	1351196	WORD_OFF	n/a	n/a	ICE	10	11	[0, 0, 0]	n/a	FR1	2	R1395M
1235.048	1.617	1351982	WORD	n/a	wordpools/wordpool_long_EN.txt	GIFT	11	11	[0, 0, 0]	n/a	FR1	2	R1395M
1236.665	0.817	1353601	WORD_OFF	n/a	n/a	GIFT	11	11	[0, 0, 0]	n/a	FR1	2	R1395M
1237.482	1.6	1354416	WORD	n/a	wordpools/wordpool_long_EN.txt	WAND	12	11	[0, 0, 0]	n/a	FR1	2	R1395M
1239.082	0.0	1356016	WORD_OFF	n/a	n/a	WAND	12	11	[0, 0, 0]	n/a	FR1	2	R1395M
1239.082	0.001	1356018	PROB	0.001	n/a	n/a	-999	11	[1, 8, 8]	17	FR1	2	R1395M
1239.083	0.0	1356016	ENCODING_END	n/a	n/a	n/a	-999	11	[0, 0, 0]	n/a	FR1	2	R1395M
1239.083	0.0	1356025	DISTRACT_START	n/a	n/a	n/a	-999	11	[0, 0, 0]	n/a	FR1	2	R1395M
1239.083	3.449	1356019	START	n/a	n/a	n/a	-999	11	[-999, -999, -999]	n/a	FR1	2	R1395M
1242.532	2.351	1359467	PROB	2.351	n/a	n/a	-999	11	[1, 8, 2]	11	FR1	2	R1395M
1244.883	2.866	1361818	PROB	2.866	n/a	n/a	-999	11	[2, 6, 8]	16	FR1	2	R1395M
1247.749	2.483	1364684	PROB	2.483	n/a	n/a	-999	11	[8, 3, 7]	18	FR1	2	R1395M
1250.232	2.3	1367167	PROB	2.3	n/a	n/a	-999	11	[2, 1, 7]	10	FR1	2	R1395M
1252.532	2.466	1369467	PROB	2.466	n/a	n/a	-999	11	[6, 6, 2]	14	FR1	2	R1395M
1254.998	2.734	1371933	PROB	2.734	n/a	n/a	-999	11	[4, 8, 4]	16	FR1	2	R1395M
1257.732	3.366	1374667	PROB	3.366	n/a	n/a	-999	11	[2, 4, 7]	13	FR1	2	R1395M
1261.098	0.0	1378036	DISTRACT_END	n/a	n/a	n/a	-999	11	[0, 0, 0]	n/a	FR1	2	R1395M
1261.098	2.05	1378032	STOP	n/a	n/a	n/a	-999	11	[-999, -999, -999]	n/a	FR1	2	R1395M
1263.148	3.51	1380085	REC_START	n/a	n/a	n/a	-999	11	[0, 0, 0]	n/a	FR1	2	R1395M
1266.658	3.3	1383592	REC_WORD_VV	3.3	n/a	<>	-999	11	[0, 0, 0]	n/a	FR1	2	R1395M
1269.958	1.553	1386892	REC_WORD	1.553	n/a	HOSE	8	11	[0, 0, 0]	n/a	FR1	2	R1395M
1271.511	2.045	1388445	REC_WORD	2.045	n/a	SCARF	7	11	[0, 0, 0]	n/a	FR1	2	R1395M
1273.556	19.826	1390490	REC_WORD	19.826	n/a	ICE	10	11	[0, 0, 0]	n/a	FR1	2	R1395M
1293.382	12.066	1410314	REC_END	n/a	n/a	n/a	-999	11	[0, 0, 0]	n/a	FR1	2	R1395M
1305.448	10.351	1422386	COUNTDOWN_START	n/a	n/a	n/a	-999	12	[0, 0, 0]	n/a	FR1	2	R1395M
1315.799	0.0	1432727	COUNTDOWN_END	n/a	n/a	n/a	-999	12	[0, 0, 0]	n/a	FR1	2	R1395M
1315.799	2.015	1432737	ENCODING_START	n/a	n/a	n/a	-999	12	[0, 0, 0]	n/a	FR1	2	R1395M
1317.814	1.601	1434749	WORD	n/a	wordpools/wordpool_long_EN.txt	SMILE	1	12	[0, 0, 0]	n/a	FR1	2	R1395M
1319.415	0.983	1436349	WORD_OFF	n/a	n/a	SMILE	1	12	[0, 0, 0]	n/a	FR1	2	R1395M
1320.398	1.6	1437332	WORD	n/a	wordpools/wordpool_long_EN.txt	SNACK	2	12	[0, 0, 0]	n/a	FR1	2	R1395M
1321.998	0.85	1438932	WORD_OFF	n/a	n/a	SNACK	2	12	[0, 0, 0]	n/a	FR1	2	R1395M
1322.848	1.6	1439784	WORD	n/a	wordpools/wordpool_long_EN.txt	DOCK	3	12	[0, 0, 0]	n/a	FR1	2	R1395M
1324.448	0.85	1441384	WORD_OFF	n/a	n/a	DOCK	3	12	[0, 0, 0]	n/a	FR1	2	R1395M
1325.298	1.6	1442226	WORD	n/a	wordpools/wordpool_long_EN.txt	PASTE	4	12	[0, 0, 0]	n/a	FR1	2	R1395M
1326.898	0.95	1443827	WORD_OFF	n/a	n/a	PASTE	4	12	[0, 0, 0]	n/a	FR1	2	R1395M
1327.848	1.617	1444781	WORD	n/a	wordpools/wordpool_long_EN.txt	SPOUSE	5	12	[0, 0, 0]	n/a	FR1	2	R1395M
1329.465	1.0	1446400	WORD_OFF	n/a	n/a	SPOUSE	5	12	[0, 0, 0]	n/a	FR1	2	R1395M
1330.465	1.617	1447392	WORD	n/a	wordpools/wordpool_long_EN.txt	SKI	6	12	[0, 0, 0]	n/a	FR1	2	R1395M
1332.082	0.816	1449011	WORD_OFF	n/a	n/a	SKI	6	12	[0, 0, 0]	n/a	FR1	2	R1395M
1332.898	1.6	1449825	WORD	n/a	wordpools/wordpool_long_EN.txt	GREASE	7	12	[0, 0, 0]	n/a	FR1	2	R1395M
1334.498	0.85	1451426	WORD_OFF	n/a	n/a	GREASE	7	12	[0, 0, 0]	n/a	FR1	2	R1395M
1335.348	1.617	1452277	WORD	n/a	wordpools/wordpool_long_EN.txt	SOAP	8	12	[0, 0, 0]	n/a	FR1	2	R1395M
1336.965	0.967	1453896	WORD_OFF	n/a	n/a	SOAP	8	12	[0, 0, 0]	n/a	FR1	2	R1395M
1337.932	1.6	1454860	WORD	n/a	wordpools/wordpool_long_EN.txt	SIGN	9	12	[0, 0, 0]	n/a	FR1	2	R1395M
1339.532	0.95	1456460	WORD_OFF	n/a	n/a	SIGN	9	12	[0, 0, 0]	n/a	FR1	2	R1395M
1340.482	1.616	1457415	WORD	n/a	wordpools/wordpool_long_EN.txt	COD	10	12	[0, 0, 0]	n/a	FR1	2	R1395M
1342.098	0.967	1459025	WORD_OFF	n/a	n/a	COD	10	12	[0, 0, 0]	n/a	FR1	2	R1395M
1343.065	1.6	1459998	WORD	n/a	wordpools/wordpool_long_EN.txt	MUD	11	12	[0, 0, 0]	n/a	FR1	2	R1395M
1344.665	0.783	1461598	WORD_OFF	n/a	n/a	MUD	11	12	[0, 0, 0]	n/a	FR1	2	R1395M
1345.448	1.616	1462375	WORD	n/a	wordpools/wordpool_long_EN.txt	APE	12	12	[0, 0, 0]	n/a	FR1	2	R1395M
1347.064	0.001	1463994	WORD_OFF	n/a	n/a	APE	12	12	[0, 0, 0]	n/a	FR1	2	R1395M
1347.065	0.001	1463995	PROB	0.001	n/a	n/a	-999	12	[3, 7, 7]	17	FR1	2	R1395M
1347.066	0.0	1463994	DISTRACT_START	n/a	n/a	n/a	-999	12	[0, 0, 0]	n/a	FR1	2	R1395M
1347.066	0.0	1463994	ENCODING_END	n/a	n/a	n/a	-999	12	[0, 0, 0]	n/a	FR1	2	R1395M
1347.066	3.567	1463996	START	n/a	n/a	n/a	-999	12	[-999, -999, -999]	n/a	FR1	2	R1395M
1350.633	2.916	1467563	PROB	2.916	n/a	n/a	-999	12	[5, 5, 6]	16	FR1	2	R1395M
1353.549	2.583	1470479	PROB	2.583	n/a	n/a	-999	12	[2, 6, 2]	10	FR1	2	R1395M
1356.132	2.783	1473061	PROB	2.783	n/a	n/a	-999	12	[6, 4, 6]	16	FR1	2	R1395M
1358.915	2.733	1475844	PROB	2.733	n/a	n/a	-999	12	[5, 8, 2]	15	FR1	2	R1395M
1361.648	2.75	1478577	PROB	2.75	n/a	n/a	-999	12	[4, 1, 1]	6	FR1	2	R1395M
1364.398	2.583	1481327	PROB	2.583	n/a	n/a	-999	12	[5, 3, 3]	11	FR1	2	R1395M
1366.981	3.4	1483910	PROB	3.4	n/a	n/a	-999	12	[7, 8, 7]	21	FR1	2	R1395M
1370.381	0.0	1487306	DISTRACT_END	n/a	n/a	n/a	-999	12	[0, 0, 0]	n/a	FR1	2	R1395M
1370.381	2.1	1487310	STOP	n/a	n/a	n/a	-999	12	[-999, -999, -999]	n/a	FR1	2	R1395M
1372.481	5.425	1489410	REC_START	n/a	n/a	n/a	-999	12	[0, 0, 0]	n/a	FR1	2	R1395M
1377.906	4.626	1494834	REC_WORD	4.626	n/a	SPOUSE	5	12	[0, 0, 0]	n/a	FR1	2	R1395M
1382.532	15.298	1499460	REC_WORD	15.298	n/a	SPEAR	-999	12	[0, 0, 0]	n/a	FR1	2	R1395M
1397.83	1.0	1514757	REC_WORD_VV	1.0	n/a	<>	-999	12	[0, 0, 0]	n/a	FR1	2	R1395M
1398.83	0.995	1515757	REC_WORD_VV	0.995	n/a	<>	-999	12	[0, 0, 0]	n/a	FR1	2	R1395M
1399.825	2.879	1516752	REC_WORD_VV	2.879	n/a	<>	-999	12	[0, 0, 0]	n/a	FR1	2	R1395M
1402.704	0.0	1519630	REC_END	n/a	n/a	n/a	-999	12	[0, 0, 0]	n/a	FR1	2	R1395M
