onset	duration	sample	trial_type	response_time	stim_file	item_name	serialpos	list	test	answer	experiment	session	subject
0.0	0.749	32153	INSTRUCT_START	n/a	n/a	n/a	-999	-999	[0, 0, 0]	n/a	FR1	3	R1385E
0.749	44.816	32899	INSTRUCT_END	n/a	n/a	n/a	-999	-999	[0, 0, 0]	n/a	FR1	3	R1385E
45.565	10.35	77713	COUNTDOWN_START	n/a	n/a	n/a	-999	-999	[0, 0, 0]	n/a	FR1	3	R1385E
55.915	0.001	88062	COUNTDOWN_END	n/a	n/a	n/a	-999	-999	[0, 0, 0]	n/a	FR1	3	R1385E
55.916	1.966	88062	ENCODING_START	n/a	n/a	n/a	-999	-1	[0, 0, 0]	n/a	FR1	3	R1385E
57.882	1.6	90036	WORD	n/a	n/a	WATCH	1	-1	[0, 0, 0]	n/a	FR1	3	R1385E
59.482	0.867	91632	WORD_OFF	n/a	n/a	WATCH	1	-1	[0, 0, 0]	n/a	FR1	3	R1385E
60.349	1.617	92501	WORD	n/a	n/a	RHINO	2	-1	[0, 0, 0]	n/a	FR1	3	R1385E
61.966	0.817	94117	WORD_OFF	n/a	n/a	RHINO	2	-1	[0, 0, 0]	n/a	FR1	3	R1385E
62.783	1.615	94935	WORD	n/a	n/a	IMAGE	3	-1	[0, 0, 0]	n/a	FR1	3	R1385E
64.398	0.85	96551	WORD_OFF	n/a	n/a	IMAGE	3	-1	[0, 0, 0]	n/a	FR1	3	R1385E
65.248	1.617	97400	WORD	n/a	n/a	CHEST	4	-1	[0, 0, 0]	n/a	FR1	3	R1385E
66.865	0.9	99015	WORD_OFF	n/a	n/a	CHEST	4	-1	[0, 0, 0]	n/a	FR1	3	R1385E
67.765	1.616	99915	WORD	n/a	n/a	FLOOD	5	-1	[0, 0, 0]	n/a	FR1	3	R1385E
69.381	0.851	101531	WORD_OFF	n/a	n/a	FLOOD	5	-1	[0, 0, 0]	n/a	FR1	3	R1385E
70.232	1.616	102380	WORD	n/a	n/a	BEAM	6	-1	[0, 0, 0]	n/a	FR1	3	R1385E
71.848	0.784	103996	WORD_OFF	n/a	n/a	BEAM	6	-1	[0, 0, 0]	n/a	FR1	3	R1385E
72.632	1.616	104783	WORD	n/a	n/a	RING	7	-1	[0, 0, 0]	n/a	FR1	3	R1385E
74.248	0.9	106399	WORD_OFF	n/a	n/a	RING	7	-1	[0, 0, 0]	n/a	FR1	3	R1385E
75.148	1.617	107299	WORD	n/a	n/a	BABY	8	-1	[0, 0, 0]	n/a	FR1	3	R1385E
76.765	0.867	108915	WORD_OFF	n/a	n/a	BABY	8	-1	[0, 0, 0]	n/a	FR1	3	R1385E
77.632	1.616	109784	WORD	n/a	n/a	CAMEL	9	-1	[0, 0, 0]	n/a	FR1	3	R1385E
79.248	0.933	111400	WORD_OFF	n/a	n/a	CAMEL	9	-1	[0, 0, 0]	n/a	FR1	3	R1385E
80.181	1.601	112331	WORD	n/a	n/a	TONGUE	10	-1	[0, 0, 0]	n/a	FR1	3	R1385E
81.782	0.95	113926	WORD_OFF	n/a	n/a	TONGUE	10	-1	[0, 0, 0]	n/a	FR1	3	R1385E
82.732	1.6	114877	WORD	n/a	n/a	WAGON	11	-1	[0, 0, 0]	n/a	FR1	3	R1385E
84.332	0.885	116483	WORD_OFF	n/a	n/a	WAGON	11	-1	[0, 0, 0]	n/a	FR1	3	R1385E
85.217	1.615	117362	WORD	n/a	n/a	COTTON	12	-1	[0, 0, 0]	n/a	FR1	3	R1385E
86.832	0.001	118978	WORD_OFF	n/a	n/a	COTTON	12	-1	[0, 0, 0]	n/a	FR1	3	R1385E
86.833	0.0	118978	ENCODING_END	n/a	n/a	n/a	-999	-1	[0, 0, 0]	n/a	FR1	3	R1385E
86.833	0.001	118981	PROB	0.001	n/a	n/a	-999	-1	[3, 4, 1]	8	FR1	3	R1385E
86.834	0.0	118982	START	n/a	n/a	n/a	-999	-1	[-999, -999, -999]	n/a	FR1	3	R1385E
86.834	3.448	118988	DISTRACT_START	n/a	n/a	n/a	-999	-1	[0, 0, 0]	n/a	FR1	3	R1385E
90.282	3.966	122430	PROB	3.966	n/a	n/a	-999	-1	[5, 4, 3]	12	FR1	3	R1385E
94.248	3.717	126396	PROB	3.717	n/a	n/a	-999	-1	[1, 6, 4]	12	FR1	3	R1385E
97.965	3.867	130112	PROB	3.867	n/a	n/a	-999	-1	[5, 1, 4]	10	FR1	3	R1385E
101.832	3.9	133979	PROB	3.9	n/a	n/a	-999	-1	[3, 7, 8]	18	FR1	3	R1385E
105.732	4.566	137879	PROB	4.566	n/a	n/a	-999	-1	[2, 4, 7]	13	FR1	3	R1385E
110.298	0.0	142445	STOP	n/a	n/a	n/a	-999	-1	[-999, -999, -999]	n/a	FR1	3	R1385E
110.298	1.768	142449	DISTRACT_END	n/a	n/a	n/a	-999	-1	[0, 0, 0]	n/a	FR1	3	R1385E
112.066	10.086	144217	REC_START	n/a	n/a	n/a	-999	-1	[0, 0, 0]	n/a	FR1	3	R1385E
122.152	1.0	154299	REC_WORD_VV	1.0	n/a	<>	-999	-1	[0, 0, 0]	n/a	FR1	3	R1385E
123.152	1.0	155299	REC_WORD_VV	1.0	n/a	<>	-999	-1	[0, 0, 0]	n/a	FR1	3	R1385E
124.152	1.0	156299	REC_WORD_VV	1.0	n/a	<>	-999	-1	[0, 0, 0]	n/a	FR1	3	R1385E
125.152	4.019	157299	REC_WORD_VV	4.019	n/a	<>	-999	-1	[0, 0, 0]	n/a	FR1	3	R1385E
129.171	1.0	161317	REC_WORD_VV	1.0	n/a	<>	-999	-1	[0, 0, 0]	n/a	FR1	3	R1385E
130.171	1.0	162317	REC_WORD_VV	1.0	n/a	<>	-999	-1	[0, 0, 0]	n/a	FR1	3	R1385E
131.171	1.0	163317	REC_WORD_VV	1.0	n/a	<>	-999	-1	[0, 0, 0]	n/a	FR1	3	R1385E
132.171	1.0	164317	REC_WORD_VV	1.0	n/a	<>	-999	-1	[0, 0, 0]	n/a	FR1	3	R1385E
133.171	1.389	165317	REC_WORD_VV	1.389	n/a	<>	-999	-1	[0, 0, 0]	n/a	FR1	3	R1385E
134.56	1.0	166706	REC_WORD_VV	1.0	n/a	<>	-999	-1	[0, 0, 0]	n/a	FR1	3	R1385E
135.56	1.0	167706	REC_WORD_VV	1.0	n/a	<>	-999	-1	[0, 0, 0]	n/a	FR1	3	R1385E
136.56	1.0	168706	REC_WORD_VV	1.0	n/a	<>	-999	-1	[0, 0, 0]	n/a	FR1	3	R1385E
137.56	1.0	169706	REC_WORD_VV	1.0	n/a	<>	-999	-1	[0, 0, 0]	n/a	FR1	3	R1385E
138.56	1.0	170706	REC_WORD_VV	1.0	n/a	<>	-999	-1	[0, 0, 0]	n/a	FR1	3	R1385E
139.56	1.0	171706	REC_WORD_VV	1.0	n/a	<>	-999	-1	[0, 0, 0]	n/a	FR1	3	R1385E
140.56	1.0	172706	REC_WORD_VV	1.0	n/a	<>	-999	-1	[0, 0, 0]	n/a	FR1	3	R1385E
141.56	0.823	173706	REC_WORD_VV	0.823	n/a	<>	-999	-1	[0, 0, 0]	n/a	FR1	3	R1385E
142.383	29.865	174529	REC_END	n/a	n/a	n/a	-999	-1	[0, 0, 0]	n/a	FR1	3	R1385E
172.248	10.351	204392	COUNTDOWN_START	n/a	n/a	n/a	-999	1	[0, 0, 0]	n/a	FR1	3	R1385E
182.599	0.0	214742	COUNTDOWN_END	n/a	n/a	n/a	-999	1	[0, 0, 0]	n/a	FR1	3	R1385E
182.599	2.232	214742	ENCODING_START	n/a	n/a	n/a	-999	1	[0, 0, 0]	n/a	FR1	3	R1385E
184.831	1.601	216971	WORD	n/a	n/a	DOG	1	1	[0, 0, 0]	n/a	FR1	3	R1385E
186.432	0.983	218577	WORD_OFF	n/a	n/a	DOG	1	1	[0, 0, 0]	n/a	FR1	3	R1385E
187.415	1.617	219559	WORD	n/a	n/a	BAY	2	1	[0, 0, 0]	n/a	FR1	3	R1385E
189.032	0.832	221174	WORD_OFF	n/a	n/a	BAY	2	1	[0, 0, 0]	n/a	FR1	3	R1385E
189.864	1.601	222013	WORD	n/a	n/a	EARTH	3	1	[0, 0, 0]	n/a	FR1	3	R1385E
191.465	0.817	223608	WORD_OFF	n/a	n/a	EARTH	3	1	[0, 0, 0]	n/a	FR1	3	R1385E
192.282	1.6	224427	WORD	n/a	n/a	CONE	4	1	[0, 0, 0]	n/a	FR1	3	R1385E
193.882	0.816	226023	WORD_OFF	n/a	n/a	CONE	4	1	[0, 0, 0]	n/a	FR1	3	R1385E
194.698	1.616	226840	WORD	n/a	n/a	TREE	5	1	[0, 0, 0]	n/a	FR1	3	R1385E
196.314	0.934	228456	WORD_OFF	n/a	n/a	TREE	5	1	[0, 0, 0]	n/a	FR1	3	R1385E
197.248	1.6	229397	WORD	n/a	n/a	SLUSH	6	1	[0, 0, 0]	n/a	FR1	3	R1385E
198.848	0.95	230992	WORD_OFF	n/a	n/a	SLUSH	6	1	[0, 0, 0]	n/a	FR1	3	R1385E
199.798	1.6	231943	WORD	n/a	n/a	THUMB	7	1	[0, 0, 0]	n/a	FR1	3	R1385E
201.398	0.9	233539	WORD_OFF	n/a	n/a	THUMB	7	1	[0, 0, 0]	n/a	FR1	3	R1385E
202.298	1.617	234439	WORD	n/a	n/a	PORK	8	1	[0, 0, 0]	n/a	FR1	3	R1385E
203.915	0.867	236054	WORD_OFF	n/a	n/a	PORK	8	1	[0, 0, 0]	n/a	FR1	3	R1385E
204.782	1.616	236924	WORD	n/a	n/a	ARK	9	1	[0, 0, 0]	n/a	FR1	3	R1385E
206.398	0.833	238540	WORD_OFF	n/a	n/a	ARK	9	1	[0, 0, 0]	n/a	FR1	3	R1385E
207.231	1.6	239378	WORD	n/a	n/a	PIT	10	1	[0, 0, 0]	n/a	FR1	3	R1385E
208.831	0.784	240974	WORD_OFF	n/a	n/a	PIT	10	1	[0, 0, 0]	n/a	FR1	3	R1385E
209.615	1.616	241761	WORD	n/a	n/a	NECK	11	1	[0, 0, 0]	n/a	FR1	3	R1385E
211.231	0.867	243377	WORD_OFF	n/a	n/a	NECK	11	1	[0, 0, 0]	n/a	FR1	3	R1385E
212.098	1.617	244246	WORD	n/a	n/a	SALT	12	1	[0, 0, 0]	n/a	FR1	3	R1385E
213.715	0.001	245859	PROB	0.001	n/a	n/a	-999	1	[5, 1, 2]	8	FR1	3	R1385E
213.716	0.0	245860	START	n/a	n/a	n/a	-999	1	[-999, -999, -999]	n/a	FR1	3	R1385E
213.715	0.001	245862	WORD_OFF	n/a	n/a	SALT	12	1	[0, 0, 0]	n/a	FR1	3	R1385E
213.716	0.0	245862	ENCODING_END	n/a	n/a	n/a	-999	1	[0, 0, 0]	n/a	FR1	3	R1385E
213.716	3.182	245862	DISTRACT_START	n/a	n/a	n/a	-999	1	[0, 0, 0]	n/a	FR1	3	R1385E
216.898	6.5	249041	PROB	6.5	n/a	n/a	-999	1	[3, 4, 5]	12	FR1	3	R1385E
223.398	2.983	255541	PROB	2.983	n/a	n/a	-999	1	[5, 2, 2]	9	FR1	3	R1385E
226.381	4.984	258524	PROB	4.984	n/a	n/a	-999	1	[4, 8, 8]	20	FR1	3	R1385E
231.365	4.699	263508	PROB	4.699	n/a	n/a	-999	1	[5, 1, 7]	13	FR1	3	R1385E
236.064	0.0	268207	STOP	n/a	n/a	n/a	-999	1	[-999, -999, -999]	n/a	FR1	3	R1385E
236.064	1.866	268208	DISTRACT_END	n/a	n/a	n/a	-999	1	[0, 0, 0]	n/a	FR1	3	R1385E
237.93	4.03	270078	REC_START	n/a	n/a	n/a	-999	1	[0, 0, 0]	n/a	FR1	3	R1385E
241.96	1.613	274103	REC_WORD	1.613	n/a	CONE	4	1	[0, 0, 0]	n/a	FR1	3	R1385E
243.573	2.629	275716	REC_WORD	2.629	n/a	ARK	9	1	[0, 0, 0]	n/a	FR1	3	R1385E
246.202	1.055	278344	REC_WORD	1.055	n/a	EARTH	3	1	[0, 0, 0]	n/a	FR1	3	R1385E
247.257	20.959	279399	REC_WORD	20.959	n/a	ARK	9	1	[0, 0, 0]	n/a	FR1	3	R1385E
268.216	4.299	300359	REC_END	n/a	n/a	n/a	-999	1	[0, 0, 0]	n/a	FR1	3	R1385E
272.515	10.351	304656	COUNTDOWN_START	n/a	n/a	n/a	-999	2	[0, 0, 0]	n/a	FR1	3	R1385E
282.866	0.0	315005	COUNTDOWN_END	n/a	n/a	n/a	-999	2	[0, 0, 0]	n/a	FR1	3	R1385E
282.866	2.282	315005	ENCODING_START	n/a	n/a	n/a	-999	2	[0, 0, 0]	n/a	FR1	3	R1385E
285.148	1.6	317286	WORD	n/a	n/a	BROOM	1	2	[0, 0, 0]	n/a	FR1	3	R1385E
286.748	0.784	318892	WORD_OFF	n/a	n/a	BROOM	1	2	[0, 0, 0]	n/a	FR1	3	R1385E
287.532	1.6	319669	WORD	n/a	n/a	THREAD	2	2	[0, 0, 0]	n/a	FR1	3	R1385E
289.132	0.983	321274	WORD_OFF	n/a	n/a	THREAD	2	2	[0, 0, 0]	n/a	FR1	3	R1385E
290.115	1.6	322256	WORD	n/a	n/a	BOLT	3	2	[0, 0, 0]	n/a	FR1	3	R1385E
291.715	0.983	323862	WORD_OFF	n/a	n/a	BOLT	3	2	[0, 0, 0]	n/a	FR1	3	R1385E
292.698	1.617	324844	WORD	n/a	n/a	HILL	4	2	[0, 0, 0]	n/a	FR1	3	R1385E
294.315	0.933	326459	WORD_OFF	n/a	n/a	HILL	4	2	[0, 0, 0]	n/a	FR1	3	R1385E
295.248	1.617	327390	WORD	n/a	n/a	PARK	5	2	[0, 0, 0]	n/a	FR1	3	R1385E
296.865	0.899	329006	WORD_OFF	n/a	n/a	PARK	5	2	[0, 0, 0]	n/a	FR1	3	R1385E
297.764	1.601	329906	WORD	n/a	n/a	PHONE	6	2	[0, 0, 0]	n/a	FR1	3	R1385E
299.365	0.833	331511	WORD_OFF	n/a	n/a	PHONE	6	2	[0, 0, 0]	n/a	FR1	3	R1385E
300.198	1.617	332340	WORD	n/a	n/a	JAR	7	2	[0, 0, 0]	n/a	FR1	3	R1385E
301.815	0.883	333956	WORD_OFF	n/a	n/a	JAR	7	2	[0, 0, 0]	n/a	FR1	3	R1385E
302.698	1.616	334835	WORD	n/a	n/a	BATH	8	2	[0, 0, 0]	n/a	FR1	3	R1385E
304.314	0.934	336451	WORD_OFF	n/a	n/a	BATH	8	2	[0, 0, 0]	n/a	FR1	3	R1385E
305.248	1.6	337392	WORD	n/a	n/a	SKUNK	9	2	[0, 0, 0]	n/a	FR1	3	R1385E
306.848	0.95	338987	WORD_OFF	n/a	n/a	SKUNK	9	2	[0, 0, 0]	n/a	FR1	3	R1385E
307.798	1.616	339938	WORD	n/a	n/a	ROAD	10	2	[0, 0, 0]	n/a	FR1	3	R1385E
309.414	0.917	341554	WORD_OFF	n/a	n/a	ROAD	10	2	[0, 0, 0]	n/a	FR1	3	R1385E
310.331	1.6	342475	WORD	n/a	n/a	HOOK	11	2	[0, 0, 0]	n/a	FR1	3	R1385E
311.931	0.8	344070	WORD_OFF	n/a	n/a	HOOK	11	2	[0, 0, 0]	n/a	FR1	3	R1385E
312.731	1.617	344868	WORD	n/a	n/a	JET	12	2	[0, 0, 0]	n/a	FR1	3	R1385E
314.348	0.001	346488	PROB	0.001	n/a	n/a	-999	2	[1, 2, 3]	6	FR1	3	R1385E
314.349	0.0	346489	START	n/a	n/a	n/a	-999	2	[-999, -999, -999]	n/a	FR1	3	R1385E
314.348	0.001	346494	WORD_OFF	n/a	n/a	JET	12	2	[0, 0, 0]	n/a	FR1	3	R1385E
314.349	0.0	346494	ENCODING_END	n/a	n/a	n/a	-999	2	[0, 0, 0]	n/a	FR1	3	R1385E
314.349	2.769	346494	DISTRACT_START	n/a	n/a	n/a	-999	2	[0, 0, 0]	n/a	FR1	3	R1385E
317.118	4.18	349258	PROB	4.18	n/a	n/a	-999	2	[6, 8, 3]	17	FR1	3	R1385E
321.298	3.483	353438	PROB	3.483	n/a	n/a	-999	2	[6, 1, 3]	10	FR1	3	R1385E
324.781	2.417	356921	PROB	2.417	n/a	n/a	-999	2	[4, 2, 3]	9	FR1	3	R1385E
327.198	3.15	359338	PROB	3.15	n/a	n/a	-999	2	[7, 2, 3]	12	FR1	3	R1385E
330.348	3.2	362488	PROB	3.2	n/a	n/a	-999	2	[6, 2, 2]	10	FR1	3	R1385E
333.548	2.4	365688	PROB	2.4	n/a	n/a	-999	2	[3, 7, 7]	17	FR1	3	R1385E
335.948	0.0	368087	STOP	n/a	n/a	n/a	-999	2	[-999, -999, -999]	n/a	FR1	3	R1385E
335.948	1.9	368093	DISTRACT_END	n/a	n/a	n/a	-999	2	[0, 0, 0]	n/a	FR1	3	R1385E
337.848	5.411	369983	REC_START	n/a	n/a	n/a	-999	2	[0, 0, 0]	n/a	FR1	3	R1385E
343.259	1.958	375398	REC_WORD	1.958	n/a	BOLT	3	2	[0, 0, 0]	n/a	FR1	3	R1385E
345.217	18.992	377356	REC_WORD	18.992	n/a	HILL	4	2	[0, 0, 0]	n/a	FR1	3	R1385E
364.209	3.935	396348	REC_WORD	3.935	n/a	BROOM	1	2	[0, 0, 0]	n/a	FR1	3	R1385E
368.144	2.204	400285	REC_END	n/a	n/a	n/a	-999	2	[0, 0, 0]	n/a	FR1	3	R1385E
370.348	10.351	402485	COUNTDOWN_START	n/a	n/a	n/a	-999	3	[0, 0, 0]	n/a	FR1	3	R1385E
380.699	0.0	412835	COUNTDOWN_END	n/a	n/a	n/a	-999	3	[0, 0, 0]	n/a	FR1	3	R1385E
380.699	2.383	412835	ENCODING_START	n/a	n/a	n/a	-999	3	[0, 0, 0]	n/a	FR1	3	R1385E
383.082	1.616	415218	WORD	n/a	n/a	CROWN	1	3	[0, 0, 0]	n/a	FR1	3	R1385E
384.698	0.834	416834	WORD_OFF	n/a	n/a	CROWN	1	3	[0, 0, 0]	n/a	FR1	3	R1385E
385.532	1.616	417672	WORD	n/a	n/a	HAT	2	3	[0, 0, 0]	n/a	FR1	3	R1385E
387.148	0.984	419288	WORD_OFF	n/a	n/a	HAT	2	3	[0, 0, 0]	n/a	FR1	3	R1385E
388.132	1.616	420270	WORD	n/a	n/a	FOOD	3	3	[0, 0, 0]	n/a	FR1	3	R1385E
389.748	0.95	421886	WORD_OFF	n/a	n/a	FOOD	3	3	[0, 0, 0]	n/a	FR1	3	R1385E
390.698	1.6	422837	WORD	n/a	n/a	RAMP	4	3	[0, 0, 0]	n/a	FR1	3	R1385E
392.298	0.883	424432	WORD_OFF	n/a	n/a	RAMP	4	3	[0, 0, 0]	n/a	FR1	3	R1385E
393.181	1.617	425322	WORD	n/a	n/a	MOSS	5	3	[0, 0, 0]	n/a	FR1	3	R1385E
394.798	0.8	426938	WORD_OFF	n/a	n/a	MOSS	5	3	[0, 0, 0]	n/a	FR1	3	R1385E
395.598	1.617	427735	WORD	n/a	n/a	SLIME	6	3	[0, 0, 0]	n/a	FR1	3	R1385E
397.215	0.866	429351	WORD_OFF	n/a	n/a	SLIME	6	3	[0, 0, 0]	n/a	FR1	3	R1385E
398.081	1.617	430220	WORD	n/a	n/a	PRINCE	7	3	[0, 0, 0]	n/a	FR1	3	R1385E
399.698	0.883	431836	WORD_OFF	n/a	n/a	PRINCE	7	3	[0, 0, 0]	n/a	FR1	3	R1385E
400.581	1.617	432716	WORD	n/a	n/a	SMILE	8	3	[0, 0, 0]	n/a	FR1	3	R1385E
402.198	0.8	434332	WORD_OFF	n/a	n/a	SMILE	8	3	[0, 0, 0]	n/a	FR1	3	R1385E
402.998	1.616	435140	WORD	n/a	n/a	SEAL	9	3	[0, 0, 0]	n/a	FR1	3	R1385E
404.614	0.767	436755	WORD_OFF	n/a	n/a	SEAL	9	3	[0, 0, 0]	n/a	FR1	3	R1385E
405.381	1.617	437522	WORD	n/a	n/a	BOOK	10	3	[0, 0, 0]	n/a	FR1	3	R1385E
406.998	1.0	439138	WORD_OFF	n/a	n/a	BOOK	10	3	[0, 0, 0]	n/a	FR1	3	R1385E
407.998	1.616	440140	WORD	n/a	n/a	PILL	11	3	[0, 0, 0]	n/a	FR1	3	R1385E
409.614	0.867	441756	WORD_OFF	n/a	n/a	PILL	11	3	[0, 0, 0]	n/a	FR1	3	R1385E
410.481	1.617	442615	WORD	n/a	n/a	PEA	12	3	[0, 0, 0]	n/a	FR1	3	R1385E
412.098	0.001	444235	PROB	0.001	n/a	n/a	-999	3	[7, 5, 7]	19	FR1	3	R1385E
412.099	0.0	444236	START	n/a	n/a	n/a	-999	3	[-999, -999, -999]	n/a	FR1	3	R1385E
412.098	0.001	444241	WORD_OFF	n/a	n/a	PEA	12	3	[0, 0, 0]	n/a	FR1	3	R1385E
412.099	0.0	444241	ENCODING_END	n/a	n/a	n/a	-999	3	[0, 0, 0]	n/a	FR1	3	R1385E
412.099	4.049	444241	DISTRACT_START	n/a	n/a	n/a	-999	3	[0, 0, 0]	n/a	FR1	3	R1385E
416.148	3.067	448285	PROB	3.067	n/a	n/a	-999	3	[4, 5, 1]	10	FR1	3	R1385E
419.215	2.733	451352	PROB	2.733	n/a	n/a	-999	3	[3, 2, 7]	12	FR1	3	R1385E
421.948	3.184	454085	PROB	3.184	n/a	n/a	-999	3	[3, 5, 5]	13	FR1	3	R1385E
425.132	4.251	457268	PROB	4.251	n/a	n/a	-999	3	[7, 8, 3]	16	FR1	3	R1385E
429.383	2.916	461519	PROB	2.916	n/a	n/a	-999	3	[3, 4, 5]	12	FR1	3	R1385E
432.299	0.0	464435	STOP	n/a	n/a	n/a	-999	3	[-999, -999, -999]	n/a	FR1	3	R1385E
432.299	1.883	464439	DISTRACT_END	n/a	n/a	n/a	-999	3	[0, 0, 0]	n/a	FR1	3	R1385E
434.182	2.554	466320	REC_START	n/a	n/a	n/a	-999	3	[0, 0, 0]	n/a	FR1	3	R1385E
436.736	1.343	468872	REC_WORD	1.343	n/a	PEA	12	3	[0, 0, 0]	n/a	FR1	3	R1385E
438.079	1.98	470215	REC_WORD	1.98	n/a	PILL	11	3	[0, 0, 0]	n/a	FR1	3	R1385E
440.059	6.246	472195	REC_WORD	6.246	n/a	BOOK	10	3	[0, 0, 0]	n/a	FR1	3	R1385E
446.305	3.036	478441	REC_WORD	3.036	n/a	CROWN	1	3	[0, 0, 0]	n/a	FR1	3	R1385E
449.341	5.15	481477	REC_WORD	5.15	n/a	SMILE	8	3	[0, 0, 0]	n/a	FR1	3	R1385E
454.491	7.782	486626	REC_WORD_VV	7.782	n/a	<>	-999	3	[0, 0, 0]	n/a	FR1	3	R1385E
462.273	2.207	494408	REC_WORD	2.207	n/a	HAT	2	3	[0, 0, 0]	n/a	FR1	3	R1385E
464.48	1.652	496612	REC_END	n/a	n/a	n/a	-999	3	[0, 0, 0]	n/a	FR1	3	R1385E
466.132	10.35	498270	COUNTDOWN_START	n/a	n/a	n/a	-999	4	[0, 0, 0]	n/a	FR1	3	R1385E
476.482	0.0	508619	COUNTDOWN_END	n/a	n/a	n/a	-999	4	[0, 0, 0]	n/a	FR1	3	R1385E
476.482	2.249	508619	ENCODING_START	n/a	n/a	n/a	-999	4	[0, 0, 0]	n/a	FR1	3	R1385E
478.731	1.617	510879	WORD	n/a	n/a	PAGE	1	4	[0, 0, 0]	n/a	FR1	3	R1385E
480.348	0.784	512485	WORD_OFF	n/a	n/a	PAGE	1	4	[0, 0, 0]	n/a	FR1	3	R1385E
481.132	1.616	513272	WORD	n/a	n/a	RUG	2	4	[0, 0, 0]	n/a	FR1	3	R1385E
482.748	0.867	514888	WORD_OFF	n/a	n/a	RUG	2	4	[0, 0, 0]	n/a	FR1	3	R1385E
483.615	1.616	515747	WORD	n/a	n/a	ROCK	3	4	[0, 0, 0]	n/a	FR1	3	R1385E
485.231	0.934	517363	WORD_OFF	n/a	n/a	ROCK	3	4	[0, 0, 0]	n/a	FR1	3	R1385E
486.165	1.616	518304	WORD	n/a	n/a	NET	4	4	[0, 0, 0]	n/a	FR1	3	R1385E
487.781	0.8	519920	WORD_OFF	n/a	n/a	NET	4	4	[0, 0, 0]	n/a	FR1	3	R1385E
488.581	1.617	520717	WORD	n/a	n/a	SPONGE	5	4	[0, 0, 0]	n/a	FR1	3	R1385E
490.198	0.9	522333	WORD_OFF	n/a	n/a	SPONGE	5	4	[0, 0, 0]	n/a	FR1	3	R1385E
491.098	1.617	523233	WORD	n/a	n/a	STREET	6	4	[0, 0, 0]	n/a	FR1	3	R1385E
492.715	0.833	524849	WORD_OFF	n/a	n/a	STREET	6	4	[0, 0, 0]	n/a	FR1	3	R1385E
493.548	1.6	525688	WORD	n/a	n/a	LAWN	7	4	[0, 0, 0]	n/a	FR1	3	R1385E
495.148	0.916	527283	WORD_OFF	n/a	n/a	LAWN	7	4	[0, 0, 0]	n/a	FR1	3	R1385E
496.064	1.6	528203	WORD	n/a	n/a	CLOCK	8	4	[0, 0, 0]	n/a	FR1	3	R1385E
497.664	0.834	529799	WORD_OFF	n/a	n/a	CLOCK	8	4	[0, 0, 0]	n/a	FR1	3	R1385E
498.498	1.616	530637	WORD	n/a	n/a	OWL	9	4	[0, 0, 0]	n/a	FR1	3	R1385E
500.114	0.95	532253	WORD_OFF	n/a	n/a	OWL	9	4	[0, 0, 0]	n/a	FR1	3	R1385E
501.064	1.617	533204	WORD	n/a	n/a	TROUT	10	4	[0, 0, 0]	n/a	FR1	3	R1385E
502.681	0.95	534820	WORD_OFF	n/a	n/a	TROUT	10	4	[0, 0, 0]	n/a	FR1	3	R1385E
503.631	1.616	535761	WORD	n/a	n/a	BONE	11	4	[0, 0, 0]	n/a	FR1	3	R1385E
505.247	0.984	537377	WORD_OFF	n/a	n/a	BONE	11	4	[0, 0, 0]	n/a	FR1	3	R1385E
506.231	1.617	538369	WORD	n/a	n/a	CHIN	12	4	[0, 0, 0]	n/a	FR1	3	R1385E
507.848	0.001	539982	PROB	0.001	n/a	n/a	-999	4	[4, 5, 3]	12	FR1	3	R1385E
507.849	0.0	539983	START	n/a	n/a	n/a	-999	4	[-999, -999, -999]	n/a	FR1	3	R1385E
507.848	0.001	539985	WORD_OFF	n/a	n/a	CHIN	12	4	[0, 0, 0]	n/a	FR1	3	R1385E
507.849	0.0	539985	ENCODING_END	n/a	n/a	n/a	-999	4	[0, 0, 0]	n/a	FR1	3	R1385E
507.849	3.682	539985	DISTRACT_START	n/a	n/a	n/a	-999	4	[0, 0, 0]	n/a	FR1	3	R1385E
511.531	3.183	543665	PROB	3.183	n/a	n/a	-999	4	[8, 4, 5]	17	FR1	3	R1385E
514.714	2.685	546847	PROB	2.685	n/a	n/a	-999	4	[2, 6, 2]	10	FR1	3	R1385E
517.399	2.9	549532	PROB	2.9	n/a	n/a	-999	4	[1, 7, 8]	16	FR1	3	R1385E
520.299	2.383	552432	PROB	2.383	n/a	n/a	-999	4	[3, 1, 3]	7	FR1	3	R1385E
522.682	4.284	554815	PROB	4.284	n/a	n/a	-999	4	[6, 5, 6]	17	FR1	3	R1385E
526.966	3.782	559099	PROB	3.782	n/a	n/a	-999	4	[7, 6, 1]	14	FR1	3	R1385E
530.748	0.0	562881	STOP	n/a	n/a	n/a	-999	4	[-999, -999, -999]	n/a	FR1	3	R1385E
530.748	1.767	562882	DISTRACT_END	n/a	n/a	n/a	-999	4	[0, 0, 0]	n/a	FR1	3	R1385E
532.515	18.3	564651	REC_START	n/a	n/a	n/a	-999	4	[0, 0, 0]	n/a	FR1	3	R1385E
550.815	1.504	582947	REC_WORD	1.504	n/a	BONE	11	4	[0, 0, 0]	n/a	FR1	3	R1385E
552.319	1.538	584451	REC_WORD	1.538	n/a	RUG	2	4	[0, 0, 0]	n/a	FR1	3	R1385E
553.857	8.932	585989	REC_WORD	8.932	n/a	PAGE	1	4	[0, 0, 0]	n/a	FR1	3	R1385E
562.789	1.743	594922	REC_END	n/a	n/a	n/a	-999	4	[0, 0, 0]	n/a	FR1	3	R1385E
564.532	10.35	596662	COUNTDOWN_START	n/a	n/a	n/a	-999	5	[0, 0, 0]	n/a	FR1	3	R1385E
574.882	0.0	607011	COUNTDOWN_END	n/a	n/a	n/a	-999	5	[0, 0, 0]	n/a	FR1	3	R1385E
574.882	1.933	607011	ENCODING_START	n/a	n/a	n/a	-999	5	[0, 0, 0]	n/a	FR1	3	R1385E
576.815	1.616	608944	WORD	n/a	n/a	WEB	1	5	[0, 0, 0]	n/a	FR1	3	R1385E
578.431	1.0	610560	WORD_OFF	n/a	n/a	WEB	1	5	[0, 0, 0]	n/a	FR1	3	R1385E
579.431	1.617	611562	WORD	n/a	n/a	FOX	2	5	[0, 0, 0]	n/a	FR1	3	R1385E
581.048	0.983	613178	WORD_OFF	n/a	n/a	FOX	2	5	[0, 0, 0]	n/a	FR1	3	R1385E
582.031	1.6	614160	WORD	n/a	n/a	STICK	3	5	[0, 0, 0]	n/a	FR1	3	R1385E
583.631	0.934	615765	WORD_OFF	n/a	n/a	STICK	3	5	[0, 0, 0]	n/a	FR1	3	R1385E
584.565	1.616	616696	WORD	n/a	n/a	CAVE	4	5	[0, 0, 0]	n/a	FR1	3	R1385E
586.181	0.95	618312	WORD_OFF	n/a	n/a	CAVE	4	5	[0, 0, 0]	n/a	FR1	3	R1385E
587.131	1.6	619263	WORD	n/a	n/a	SKIN	5	5	[0, 0, 0]	n/a	FR1	3	R1385E
588.731	0.8	620858	WORD_OFF	n/a	n/a	SKIN	5	5	[0, 0, 0]	n/a	FR1	3	R1385E
589.531	1.6	621666	WORD	n/a	n/a	BRIDGE	6	5	[0, 0, 0]	n/a	FR1	3	R1385E
591.131	0.9	623261	WORD_OFF	n/a	n/a	BRIDGE	6	5	[0, 0, 0]	n/a	FR1	3	R1385E
592.031	1.617	624161	WORD	n/a	n/a	SPRING	7	5	[0, 0, 0]	n/a	FR1	3	R1385E
593.648	0.866	625777	WORD_OFF	n/a	n/a	SPRING	7	5	[0, 0, 0]	n/a	FR1	3	R1385E
594.514	1.616	626647	WORD	n/a	n/a	SUIT	8	5	[0, 0, 0]	n/a	FR1	3	R1385E
596.13	0.97	628262	WORD_OFF	n/a	n/a	SUIT	8	5	[0, 0, 0]	n/a	FR1	3	R1385E
597.1	1.614	629234	WORD	n/a	n/a	SNAKE	9	5	[0, 0, 0]	n/a	FR1	3	R1385E
598.714	0.95	630840	WORD_OFF	n/a	n/a	SNAKE	9	5	[0, 0, 0]	n/a	FR1	3	R1385E
599.664	1.6	631791	WORD	n/a	n/a	BARN	10	5	[0, 0, 0]	n/a	FR1	3	R1385E
601.264	0.933	633396	WORD_OFF	n/a	n/a	BARN	10	5	[0, 0, 0]	n/a	FR1	3	R1385E
602.197	1.6	634327	WORD	n/a	n/a	HOG	11	5	[0, 0, 0]	n/a	FR1	3	R1385E
603.797	0.784	635932	WORD_OFF	n/a	n/a	HOG	11	5	[0, 0, 0]	n/a	FR1	3	R1385E
604.581	1.616	636710	WORD	n/a	n/a	SPICE	12	5	[0, 0, 0]	n/a	FR1	3	R1385E
606.197	0.0	638326	WORD_OFF	n/a	n/a	SPICE	12	5	[0, 0, 0]	n/a	FR1	3	R1385E
606.197	0.002	638327	PROB	0.002	n/a	n/a	-999	5	[4, 8, 5]	17	FR1	3	R1385E
606.199	0.0	638329	START	n/a	n/a	n/a	-999	5	[-999, -999, -999]	n/a	FR1	3	R1385E
606.198	0.001	638336	ENCODING_END	n/a	n/a	n/a	-999	5	[0, 0, 0]	n/a	FR1	3	R1385E
606.199	4.499	638336	DISTRACT_START	n/a	n/a	n/a	-999	5	[0, 0, 0]	n/a	FR1	3	R1385E
610.698	2.001	642828	PROB	2.001	n/a	n/a	-999	5	[3, 7, 1]	11	FR1	3	R1385E
612.699	4.234	644829	PROB	4.234	n/a	n/a	-999	5	[6, 5, 5]	16	FR1	3	R1385E
616.933	2.499	649063	PROB	2.499	n/a	n/a	-999	5	[3, 1, 3]	7	FR1	3	R1385E
619.432	3.266	651562	PROB	3.266	n/a	n/a	-999	5	[8, 1, 2]	11	FR1	3	R1385E
622.698	4.433	654828	PROB	4.433	n/a	n/a	-999	5	[8, 6, 2]	15	FR1	3	R1385E
627.131	0.0	659260	DISTRACT_END	n/a	n/a	n/a	-999	5	[0, 0, 0]	n/a	FR1	3	R1385E
627.131	1.8	659261	STOP	n/a	n/a	n/a	-999	5	[-999, -999, -999]	n/a	FR1	3	R1385E
628.931	1.862	661059	REC_START	n/a	n/a	n/a	-999	5	[0, 0, 0]	n/a	FR1	3	R1385E
630.793	1.0	662923	REC_WORD	1.0	n/a	SPRING	7	5	[0, 0, 0]	n/a	FR1	3	R1385E
631.793	0.888	663923	REC_WORD_VV	0.888	n/a	<>	-999	5	[0, 0, 0]	n/a	FR1	3	R1385E
632.681	1.381	664811	REC_WORD	1.381	n/a	WEB	1	5	[0, 0, 0]	n/a	FR1	3	R1385E
634.062	4.215	666191	REC_WORD	4.215	n/a	HOG	11	5	[0, 0, 0]	n/a	FR1	3	R1385E
638.277	1.0	670406	REC_WORD	1.0	n/a	SNAKE	9	5	[0, 0, 0]	n/a	FR1	3	R1385E
639.277	19.922	671406	REC_WORD_VV	19.922	n/a	<>	-999	5	[0, 0, 0]	n/a	FR1	3	R1385E
659.199	1.599	691330	REC_END	n/a	n/a	n/a	-999	5	[0, 0, 0]	n/a	FR1	3	R1385E
660.798	10.35	692926	COUNTDOWN_START	n/a	n/a	n/a	-999	6	[0, 0, 0]	n/a	FR1	3	R1385E
671.148	0.001	703276	COUNTDOWN_END	n/a	n/a	n/a	-999	6	[0, 0, 0]	n/a	FR1	3	R1385E
671.149	2.183	703276	ENCODING_START	n/a	n/a	n/a	-999	6	[0, 0, 0]	n/a	FR1	3	R1385E
673.332	1.616	705464	WORD	n/a	n/a	BLUSH	1	6	[0, 0, 0]	n/a	FR1	3	R1385E
674.948	0.916	707080	WORD_OFF	n/a	n/a	BLUSH	1	6	[0, 0, 0]	n/a	FR1	3	R1385E
675.864	1.601	707990	WORD	n/a	n/a	PRIZE	2	6	[0, 0, 0]	n/a	FR1	3	R1385E
677.465	0.816	709596	WORD_OFF	n/a	n/a	PRIZE	2	6	[0, 0, 0]	n/a	FR1	3	R1385E
678.281	1.6	710414	WORD	n/a	n/a	MOON	3	6	[0, 0, 0]	n/a	FR1	3	R1385E
679.881	0.983	712010	WORD_OFF	n/a	n/a	MOON	3	6	[0, 0, 0]	n/a	FR1	3	R1385E
680.864	1.6	712991	WORD	n/a	n/a	FACE	4	6	[0, 0, 0]	n/a	FR1	3	R1385E
682.464	0.917	714597	WORD_OFF	n/a	n/a	FACE	4	6	[0, 0, 0]	n/a	FR1	3	R1385E
683.381	1.6	715507	WORD	n/a	n/a	POT	5	6	[0, 0, 0]	n/a	FR1	3	R1385E
684.981	0.95	717113	WORD_OFF	n/a	n/a	POT	5	6	[0, 0, 0]	n/a	FR1	3	R1385E
685.931	1.6	718064	WORD	n/a	n/a	POND	6	6	[0, 0, 0]	n/a	FR1	3	R1385E
687.531	0.85	719659	WORD_OFF	n/a	n/a	POND	6	6	[0, 0, 0]	n/a	FR1	3	R1385E
688.381	1.616	720508	WORD	n/a	n/a	BRICK	7	6	[0, 0, 0]	n/a	FR1	3	R1385E
689.997	1.0	722124	WORD_OFF	n/a	n/a	BRICK	7	6	[0, 0, 0]	n/a	FR1	3	R1385E
690.997	1.617	723126	WORD	n/a	n/a	CUP	8	6	[0, 0, 0]	n/a	FR1	3	R1385E
692.614	0.966	724742	WORD_OFF	n/a	n/a	CUP	8	6	[0, 0, 0]	n/a	FR1	3	R1385E
693.58	1.617	725713	WORD	n/a	n/a	STOOL	9	6	[0, 0, 0]	n/a	FR1	3	R1385E
695.197	0.817	727329	WORD_OFF	n/a	n/a	STOOL	9	6	[0, 0, 0]	n/a	FR1	3	R1385E
696.014	1.617	728137	WORD	n/a	n/a	BUSH	10	6	[0, 0, 0]	n/a	FR1	3	R1385E
697.631	0.799	729763	WORD_OFF	n/a	n/a	BUSH	10	6	[0, 0, 0]	n/a	FR1	3	R1385E
698.43	1.601	730561	WORD	n/a	n/a	BLADE	11	6	[0, 0, 0]	n/a	FR1	3	R1385E
700.031	0.95	732156	WORD_OFF	n/a	n/a	BLADE	11	6	[0, 0, 0]	n/a	FR1	3	R1385E
700.981	1.601	733107	WORD	n/a	n/a	MAIL	12	6	[0, 0, 0]	n/a	FR1	3	R1385E
702.582	0.0	734709	START	n/a	n/a	n/a	-999	6	[-999, -999, -999]	n/a	FR1	3	R1385E
702.582	0.0	734709	PROB	0.0	n/a	n/a	-999	6	[7, 7, 7]	21	FR1	3	R1385E
702.581	0.001	734713	WORD_OFF	n/a	n/a	MAIL	12	6	[0, 0, 0]	n/a	FR1	3	R1385E
702.582	0.0	734713	ENCODING_END	n/a	n/a	n/a	-999	6	[0, 0, 0]	n/a	FR1	3	R1385E
702.582	3.317	734713	DISTRACT_START	n/a	n/a	n/a	-999	6	[0, 0, 0]	n/a	FR1	3	R1385E
705.899	2.567	738026	PROB	2.567	n/a	n/a	-999	6	[5, 1, 3]	9	FR1	3	R1385E
708.466	3.199	740593	PROB	3.199	n/a	n/a	-999	6	[5, 8, 4]	17	FR1	3	R1385E
711.665	2.501	743792	PROB	2.501	n/a	n/a	-999	6	[8, 3, 2]	13	FR1	3	R1385E
714.166	3.133	746293	PROB	3.133	n/a	n/a	-999	6	[8, 8, 3]	19	FR1	3	R1385E
717.299	2.283	749426	PROB	2.283	n/a	n/a	-999	6	[4, 2, 3]	9	FR1	3	R1385E
719.582	2.983	751709	PROB	2.983	n/a	n/a	-999	6	[3, 7, 7]	17	FR1	3	R1385E
722.565	3.617	754692	PROB	3.617	n/a	n/a	-999	6	[2, 5, 8]	15	FR1	3	R1385E
726.182	0.0	758306	DISTRACT_END	n/a	n/a	n/a	-999	6	[0, 0, 0]	n/a	FR1	3	R1385E
726.182	1.633	758308	STOP	n/a	n/a	n/a	-999	6	[-999, -999, -999]	n/a	FR1	3	R1385E
727.815	3.649	759941	REC_START	n/a	n/a	n/a	-999	6	[0, 0, 0]	n/a	FR1	3	R1385E
731.464	1.333	763590	REC_WORD	1.333	n/a	STOOL	9	6	[0, 0, 0]	n/a	FR1	3	R1385E
732.797	1.0	764923	REC_WORD	1.0	n/a	BLUSH	1	6	[0, 0, 0]	n/a	FR1	3	R1385E
733.797	0.766	765923	REC_WORD_VV	0.766	n/a	<>	-999	6	[0, 0, 0]	n/a	FR1	3	R1385E
734.563	1.0	766689	REC_WORD	1.0	n/a	FACE	4	6	[0, 0, 0]	n/a	FR1	3	R1385E
735.563	0.862	767689	REC_WORD_VV	0.862	n/a	<>	-999	6	[0, 0, 0]	n/a	FR1	3	R1385E
736.425	1.0	768551	REC_WORD	1.0	n/a	PRIZE	2	6	[0, 0, 0]	n/a	FR1	3	R1385E
737.425	0.702	769551	REC_WORD_VV	0.702	n/a	<>	-999	6	[0, 0, 0]	n/a	FR1	3	R1385E
738.127	1.0	770253	REC_WORD	1.0	n/a	BLADE	11	6	[0, 0, 0]	n/a	FR1	3	R1385E
739.127	18.963	771253	REC_WORD_VV	18.963	n/a	<>	-999	6	[0, 0, 0]	n/a	FR1	3	R1385E
758.09	1.524	790213	REC_END	n/a	n/a	n/a	-999	6	[0, 0, 0]	n/a	FR1	3	R1385E
759.614	10.351	791738	COUNTDOWN_START	n/a	n/a	n/a	-999	7	[0, 0, 0]	n/a	FR1	3	R1385E
769.965	0.0	802087	COUNTDOWN_END	n/a	n/a	n/a	-999	7	[0, 0, 0]	n/a	FR1	3	R1385E
769.965	2.2	802097	ENCODING_START	n/a	n/a	n/a	-999	7	[0, 0, 0]	n/a	FR1	3	R1385E
772.165	1.616	804286	WORD	n/a	n/a	BIRD	1	7	[0, 0, 0]	n/a	FR1	3	R1385E
773.781	0.933	805902	WORD_OFF	n/a	n/a	BIRD	1	7	[0, 0, 0]	n/a	FR1	3	R1385E
774.714	1.617	806843	WORD	n/a	n/a	SHED	2	7	[0, 0, 0]	n/a	FR1	3	R1385E
776.331	0.833	808459	WORD_OFF	n/a	n/a	SHED	2	7	[0, 0, 0]	n/a	FR1	3	R1385E
777.164	1.6	809287	WORD	n/a	n/a	SAUCE	3	7	[0, 0, 0]	n/a	FR1	3	R1385E
778.764	0.784	810892	WORD_OFF	n/a	n/a	SAUCE	3	7	[0, 0, 0]	n/a	FR1	3	R1385E
779.548	1.616	811670	WORD	n/a	n/a	SUN	4	7	[0, 0, 0]	n/a	FR1	3	R1385E
781.164	0.767	813286	WORD_OFF	n/a	n/a	SUN	4	7	[0, 0, 0]	n/a	FR1	3	R1385E
781.931	1.6	814053	WORD	n/a	n/a	CAPE	5	7	[0, 0, 0]	n/a	FR1	3	R1385E
783.531	0.967	815658	WORD_OFF	n/a	n/a	CAPE	5	7	[0, 0, 0]	n/a	FR1	3	R1385E
784.498	1.616	816620	WORD	n/a	n/a	SPARK	6	7	[0, 0, 0]	n/a	FR1	3	R1385E
786.114	1.0	818235	WORD_OFF	n/a	n/a	SPARK	6	7	[0, 0, 0]	n/a	FR1	3	R1385E
787.114	1.616	819238	WORD	n/a	n/a	VASE	7	7	[0, 0, 0]	n/a	FR1	3	R1385E
788.73	0.834	820853	WORD_OFF	n/a	n/a	VASE	7	7	[0, 0, 0]	n/a	FR1	3	R1385E
789.564	1.616	821692	WORD	n/a	n/a	TANK	8	7	[0, 0, 0]	n/a	FR1	3	R1385E
791.18	0.801	823308	WORD_OFF	n/a	n/a	TANK	8	7	[0, 0, 0]	n/a	FR1	3	R1385E
791.981	1.6	824106	WORD	n/a	n/a	PLANT	9	7	[0, 0, 0]	n/a	FR1	3	R1385E
793.581	0.85	825701	WORD_OFF	n/a	n/a	PLANT	9	7	[0, 0, 0]	n/a	FR1	3	R1385E
794.431	1.617	826560	WORD	n/a	n/a	SHIELD	10	7	[0, 0, 0]	n/a	FR1	3	R1385E
796.048	0.85	828176	WORD_OFF	n/a	n/a	SHIELD	10	7	[0, 0, 0]	n/a	FR1	3	R1385E
796.898	1.6	829025	WORD	n/a	n/a	LENS	11	7	[0, 0, 0]	n/a	FR1	3	R1385E
798.498	0.817	830620	WORD_OFF	n/a	n/a	LENS	11	7	[0, 0, 0]	n/a	FR1	3	R1385E
799.315	1.601	831438	WORD	n/a	n/a	STEAK	12	7	[0, 0, 0]	n/a	FR1	3	R1385E
800.916	0.001	833040	PROB	0.001	n/a	n/a	-999	7	[5, 5, 4]	14	FR1	3	R1385E
800.917	0.0	833041	START	n/a	n/a	n/a	-999	7	[-999, -999, -999]	n/a	FR1	3	R1385E
800.916	0.001	833044	WORD_OFF	n/a	n/a	STEAK	12	7	[0, 0, 0]	n/a	FR1	3	R1385E
800.917	0.0	833044	ENCODING_END	n/a	n/a	n/a	-999	7	[0, 0, 0]	n/a	FR1	3	R1385E
800.917	3.565	833044	DISTRACT_START	n/a	n/a	n/a	-999	7	[0, 0, 0]	n/a	FR1	3	R1385E
804.482	4.45	836606	PROB	4.45	n/a	n/a	-999	7	[8, 5, 5]	18	FR1	3	R1385E
808.932	2.417	841056	PROB	2.417	n/a	n/a	-999	7	[5, 2, 6]	13	FR1	3	R1385E
811.349	2.816	843473	PROB	2.816	n/a	n/a	-999	7	[5, 4, 3]	12	FR1	3	R1385E
814.165	3.134	846288	PROB	3.134	n/a	n/a	-999	7	[5, 7, 2]	14	FR1	3	R1385E
817.299	2.833	849422	PROB	2.833	n/a	n/a	-999	7	[1, 8, 6]	15	FR1	3	R1385E
820.132	2.216	852255	PROB	2.216	n/a	n/a	-999	7	[7, 2, 3]	12	FR1	3	R1385E
822.348	0.0	854469	DISTRACT_END	n/a	n/a	n/a	-999	7	[0, 0, 0]	n/a	FR1	3	R1385E
822.348	1.7	854471	STOP	n/a	n/a	n/a	-999	7	[-999, -999, -999]	n/a	FR1	3	R1385E
824.048	3.266	856176	REC_START	n/a	n/a	n/a	-999	7	[0, 0, 0]	n/a	FR1	3	R1385E
827.314	1.289	859437	REC_WORD	1.289	n/a	BIRD	1	7	[0, 0, 0]	n/a	FR1	3	R1385E
828.603	8.63	860726	REC_WORD	8.63	n/a	SHED	2	7	[0, 0, 0]	n/a	FR1	3	R1385E
837.233	5.76	869356	REC_WORD	5.76	n/a	SPARK	6	7	[0, 0, 0]	n/a	FR1	3	R1385E
842.993	11.313	875116	REC_WORD	11.313	n/a	TANK	8	7	[0, 0, 0]	n/a	FR1	3	R1385E
854.306	1.608	886427	REC_END	n/a	n/a	n/a	-999	7	[0, 0, 0]	n/a	FR1	3	R1385E
855.914	10.351	888043	COUNTDOWN_START	n/a	n/a	n/a	-999	8	[0, 0, 0]	n/a	FR1	3	R1385E
866.265	0.0	898383	COUNTDOWN_END	n/a	n/a	n/a	-999	8	[0, 0, 0]	n/a	FR1	3	R1385E
866.265	2.249	898393	ENCODING_START	n/a	n/a	n/a	-999	8	[0, 0, 0]	n/a	FR1	3	R1385E
868.514	1.6	900633	WORD	n/a	n/a	VINE	1	8	[0, 0, 0]	n/a	FR1	3	R1385E
870.114	0.767	902238	WORD_OFF	n/a	n/a	VINE	1	8	[0, 0, 0]	n/a	FR1	3	R1385E
870.881	1.617	903005	WORD	n/a	n/a	CAT	2	8	[0, 0, 0]	n/a	FR1	3	R1385E
872.498	0.983	904621	WORD_OFF	n/a	n/a	CAT	2	8	[0, 0, 0]	n/a	FR1	3	R1385E
873.481	1.617	905603	WORD	n/a	n/a	DEW	3	8	[0, 0, 0]	n/a	FR1	3	R1385E
875.098	0.883	907219	WORD_OFF	n/a	n/a	DEW	3	8	[0, 0, 0]	n/a	FR1	3	R1385E
875.981	1.6	908098	WORD	n/a	n/a	SKI	4	8	[0, 0, 0]	n/a	FR1	3	R1385E
877.581	0.85	909704	WORD_OFF	n/a	n/a	SKI	4	8	[0, 0, 0]	n/a	FR1	3	R1385E
878.431	1.6	910553	WORD	n/a	n/a	CUBE	5	8	[0, 0, 0]	n/a	FR1	3	R1385E
880.031	0.983	912148	WORD_OFF	n/a	n/a	CUBE	5	8	[0, 0, 0]	n/a	FR1	3	R1385E
881.014	1.617	913140	WORD	n/a	n/a	SQUARE	6	8	[0, 0, 0]	n/a	FR1	3	R1385E
882.631	0.933	914756	WORD_OFF	n/a	n/a	SQUARE	6	8	[0, 0, 0]	n/a	FR1	3	R1385E
883.564	1.6	915686	WORD	n/a	n/a	OAR	7	8	[0, 0, 0]	n/a	FR1	3	R1385E
885.164	0.867	917282	WORD_OFF	n/a	n/a	OAR	7	8	[0, 0, 0]	n/a	FR1	3	R1385E
886.031	1.6	918151	WORD	n/a	n/a	DITCH	8	8	[0, 0, 0]	n/a	FR1	3	R1385E
887.631	0.984	919757	WORD_OFF	n/a	n/a	DITCH	8	8	[0, 0, 0]	n/a	FR1	3	R1385E
888.615	1.6	920739	WORD	n/a	n/a	MIST	9	8	[0, 0, 0]	n/a	FR1	3	R1385E
890.215	0.8	922334	WORD_OFF	n/a	n/a	MIST	9	8	[0, 0, 0]	n/a	FR1	3	R1385E
891.015	1.601	923132	WORD	n/a	n/a	MINK	10	8	[0, 0, 0]	n/a	FR1	3	R1385E
892.616	0.933	924737	WORD_OFF	n/a	n/a	MINK	10	8	[0, 0, 0]	n/a	FR1	3	R1385E
893.549	1.6	925668	WORD	n/a	n/a	CLAY	11	8	[0, 0, 0]	n/a	FR1	3	R1385E
895.149	0.917	927273	WORD_OFF	n/a	n/a	CLAY	11	8	[0, 0, 0]	n/a	FR1	3	R1385E
896.066	1.616	928184	WORD	n/a	n/a	SEAT	12	8	[0, 0, 0]	n/a	FR1	3	R1385E
897.682	0.001	929799	WORD_OFF	n/a	n/a	SEAT	12	8	[0, 0, 0]	n/a	FR1	3	R1385E
897.683	0.0	929799	ENCODING_END	n/a	n/a	n/a	-999	8	[0, 0, 0]	n/a	FR1	3	R1385E
897.683	0.0	929804	START	n/a	n/a	n/a	-999	8	[-999, -999, -999]	n/a	FR1	3	R1385E
897.683	0.0	929804	PROB	0.0	n/a	n/a	-999	8	[4, 7, 1]	12	FR1	3	R1385E
897.683	5.515	929810	DISTRACT_START	n/a	n/a	n/a	-999	8	[0, 0, 0]	n/a	FR1	3	R1385E
903.198	2.533	935318	PROB	2.533	n/a	n/a	-999	8	[2, 8, 4]	14	FR1	3	R1385E
905.731	4.351	937851	PROB	4.351	n/a	n/a	-999	8	[3, 2, 3]	8	FR1	3	R1385E
910.082	3.833	942202	PROB	3.833	n/a	n/a	-999	8	[3, 6, 8]	17	FR1	3	R1385E
913.915	3.134	946035	PROB	3.134	n/a	n/a	-999	8	[8, 7, 2]	17	FR1	3	R1385E
917.049	2.916	949169	PROB	2.916	n/a	n/a	-999	8	[8, 5, 1]	14	FR1	3	R1385E
919.965	0.0	952084	DISTRACT_END	n/a	n/a	n/a	-999	8	[0, 0, 0]	n/a	FR1	3	R1385E
919.965	1.666	952085	STOP	n/a	n/a	n/a	-999	8	[-999, -999, -999]	n/a	FR1	3	R1385E
921.631	2.513	953750	REC_START	n/a	n/a	n/a	-999	8	[0, 0, 0]	n/a	FR1	3	R1385E
924.144	1.712	956264	REC_WORD	1.712	n/a	CAT	2	8	[0, 0, 0]	n/a	FR1	3	R1385E
925.856	5.602	957976	REC_WORD	5.602	n/a	VINE	1	8	[0, 0, 0]	n/a	FR1	3	R1385E
931.458	20.436	963578	REC_WORD	20.436	n/a	MINK	10	8	[0, 0, 0]	n/a	FR1	3	R1385E
951.894	1.42	984011	REC_END	n/a	n/a	n/a	-999	8	[0, 0, 0]	n/a	FR1	3	R1385E
953.314	10.351	985433	COUNTDOWN_START	n/a	n/a	n/a	-999	9	[0, 0, 0]	n/a	FR1	3	R1385E
963.665	0.0	995783	COUNTDOWN_END	n/a	n/a	n/a	-999	9	[0, 0, 0]	n/a	FR1	3	R1385E
963.665	2.082	995783	ENCODING_START	n/a	n/a	n/a	-999	9	[0, 0, 0]	n/a	FR1	3	R1385E
965.747	1.601	997869	WORD	n/a	n/a	MOUTH	1	9	[0, 0, 0]	n/a	FR1	3	R1385E
967.348	0.966	999464	WORD_OFF	n/a	n/a	MOUTH	1	9	[0, 0, 0]	n/a	FR1	3	R1385E
968.314	1.617	1000436	WORD	n/a	n/a	TRASH	2	9	[0, 0, 0]	n/a	FR1	3	R1385E
969.931	0.833	1002052	WORD_OFF	n/a	n/a	TRASH	2	9	[0, 0, 0]	n/a	FR1	3	R1385E
970.764	1.6	1002880	WORD	n/a	n/a	TOY	3	9	[0, 0, 0]	n/a	FR1	3	R1385E
972.364	0.817	1004486	WORD_OFF	n/a	n/a	TOY	3	9	[0, 0, 0]	n/a	FR1	3	R1385E
973.181	1.6	1005304	WORD	n/a	n/a	STAIR	4	9	[0, 0, 0]	n/a	FR1	3	R1385E
974.781	0.866	1006899	WORD_OFF	n/a	n/a	STAIR	4	9	[0, 0, 0]	n/a	FR1	3	R1385E
975.647	1.601	1007769	WORD	n/a	n/a	LAMP	5	9	[0, 0, 0]	n/a	FR1	3	R1385E
977.248	0.966	1009364	WORD_OFF	n/a	n/a	LAMP	5	9	[0, 0, 0]	n/a	FR1	3	R1385E
978.214	1.601	1010336	WORD	n/a	n/a	DIME	6	9	[0, 0, 0]	n/a	FR1	3	R1385E
979.815	0.95	1011931	WORD_OFF	n/a	n/a	DIME	6	9	[0, 0, 0]	n/a	FR1	3	R1385E
980.765	1.6	1012882	WORD	n/a	n/a	HOOF	7	9	[0, 0, 0]	n/a	FR1	3	R1385E
982.365	1.0	1014488	WORD_OFF	n/a	n/a	HOOF	7	9	[0, 0, 0]	n/a	FR1	3	R1385E
983.365	1.617	1015480	WORD	n/a	n/a	SOCK	8	9	[0, 0, 0]	n/a	FR1	3	R1385E
984.982	0.95	1017095	WORD_OFF	n/a	n/a	SOCK	8	9	[0, 0, 0]	n/a	FR1	3	R1385E
985.932	1.601	1018047	WORD	n/a	n/a	BOWL	9	9	[0, 0, 0]	n/a	FR1	3	R1385E
987.533	0.899	1019652	WORD_OFF	n/a	n/a	BOWL	9	9	[0, 0, 0]	n/a	FR1	3	R1385E
988.432	1.618	1020552	WORD	n/a	n/a	TEETH	10	9	[0, 0, 0]	n/a	FR1	3	R1385E
990.05	0.932	1022168	WORD_OFF	n/a	n/a	TEETH	10	9	[0, 0, 0]	n/a	FR1	3	R1385E
990.982	1.6	1023099	WORD	n/a	n/a	WOOD	11	9	[0, 0, 0]	n/a	FR1	3	R1385E
992.582	0.916	1024704	WORD_OFF	n/a	n/a	WOOD	11	9	[0, 0, 0]	n/a	FR1	3	R1385E
993.498	1.601	1025614	WORD	n/a	n/a	SOIL	12	9	[0, 0, 0]	n/a	FR1	3	R1385E
995.099	0.001	1027216	PROB	0.001	n/a	n/a	-999	9	[4, 8, 8]	20	FR1	3	R1385E
995.1	0.0	1027217	START	n/a	n/a	n/a	-999	9	[-999, -999, -999]	n/a	FR1	3	R1385E
995.098	0.001	1027220	WORD_OFF	n/a	n/a	SOIL	12	9	[0, 0, 0]	n/a	FR1	3	R1385E
995.099	0.001	1027220	ENCODING_END	n/a	n/a	n/a	-999	9	[0, 0, 0]	n/a	FR1	3	R1385E
995.1	4.701	1027220	DISTRACT_START	n/a	n/a	n/a	-999	9	[0, 0, 0]	n/a	FR1	3	R1385E
999.801	10.765	1031918	PROB	10.765	n/a	n/a	-999	9	[8, 7, 6]	21	FR1	3	R1385E
1010.566	3.583	1042683	PROB	3.583	n/a	n/a	-999	9	[8, 5, 6]	19	FR1	3	R1385E
1014.149	7.299	1046266	PROB	7.299	n/a	n/a	-999	9	[5, 6, 3]	14	FR1	3	R1385E
1021.448	0.0	1053564	DISTRACT_END	n/a	n/a	n/a	-999	9	[0, 0, 0]	n/a	FR1	3	R1385E
1021.448	1.867	1053565	STOP	n/a	n/a	n/a	-999	9	[-999, -999, -999]	n/a	FR1	3	R1385E
1023.315	4.645	1055435	REC_START	n/a	n/a	n/a	-999	9	[0, 0, 0]	n/a	FR1	3	R1385E
1027.96	1.254	1060076	REC_WORD	1.254	n/a	DIME	6	9	[0, 0, 0]	n/a	FR1	3	R1385E
1029.214	24.359	1061330	REC_WORD	24.359	n/a	BOWL	9	9	[0, 0, 0]	n/a	FR1	3	R1385E
1053.573	1.408	1085685	REC_END	n/a	n/a	n/a	-999	9	[0, 0, 0]	n/a	FR1	3	R1385E
1054.981	10.351	1087098	COUNTDOWN_START	n/a	n/a	n/a	-999	10	[0, 0, 0]	n/a	FR1	3	R1385E
1065.332	0.0	1097447	COUNTDOWN_END	n/a	n/a	n/a	-999	10	[0, 0, 0]	n/a	FR1	3	R1385E
1065.332	2.133	1097447	ENCODING_START	n/a	n/a	n/a	-999	10	[0, 0, 0]	n/a	FR1	3	R1385E
1067.465	1.6	1099585	WORD	n/a	n/a	CAGE	1	10	[0, 0, 0]	n/a	FR1	3	R1385E
1069.065	0.833	1101180	WORD_OFF	n/a	n/a	CAGE	1	10	[0, 0, 0]	n/a	FR1	3	R1385E
1069.898	1.617	1102008	WORD	n/a	n/a	SPEAR	2	10	[0, 0, 0]	n/a	FR1	3	R1385E
1071.515	0.916	1103635	WORD_OFF	n/a	n/a	SPEAR	2	10	[0, 0, 0]	n/a	FR1	3	R1385E
1072.431	1.616	1104545	WORD	n/a	n/a	SHELL	3	10	[0, 0, 0]	n/a	FR1	3	R1385E
1074.047	0.817	1106161	WORD_OFF	n/a	n/a	SHELL	3	10	[0, 0, 0]	n/a	FR1	3	R1385E
1074.864	1.617	1106979	WORD	n/a	n/a	STEEL	4	10	[0, 0, 0]	n/a	FR1	3	R1385E
1076.481	0.933	1108595	WORD_OFF	n/a	n/a	STEEL	4	10	[0, 0, 0]	n/a	FR1	3	R1385E
1077.414	1.601	1109525	WORD	n/a	n/a	PIN	5	10	[0, 0, 0]	n/a	FR1	3	R1385E
1079.015	0.833	1111131	WORD_OFF	n/a	n/a	PIN	5	10	[0, 0, 0]	n/a	FR1	3	R1385E
1079.848	1.6	1111959	WORD	n/a	n/a	CRANE	6	10	[0, 0, 0]	n/a	FR1	3	R1385E
1081.448	0.883	1113565	WORD_OFF	n/a	n/a	CRANE	6	10	[0, 0, 0]	n/a	FR1	3	R1385E
1082.331	1.616	1114444	WORD	n/a	n/a	EEL	7	10	[0, 0, 0]	n/a	FR1	3	R1385E
1083.947	0.868	1116060	WORD_OFF	n/a	n/a	EEL	7	10	[0, 0, 0]	n/a	FR1	3	R1385E
1084.815	1.617	1116929	WORD	n/a	n/a	MOUSE	8	10	[0, 0, 0]	n/a	FR1	3	R1385E
1086.432	0.9	1118545	WORD_OFF	n/a	n/a	MOUSE	8	10	[0, 0, 0]	n/a	FR1	3	R1385E
1087.332	1.6	1119445	WORD	n/a	n/a	RAKE	9	10	[0, 0, 0]	n/a	FR1	3	R1385E
1088.932	0.899	1121041	WORD_OFF	n/a	n/a	RAKE	9	10	[0, 0, 0]	n/a	FR1	3	R1385E
1089.831	1.601	1121941	WORD	n/a	n/a	MAT	10	10	[0, 0, 0]	n/a	FR1	3	R1385E
1091.432	0.95	1123546	WORD_OFF	n/a	n/a	MAT	10	10	[0, 0, 0]	n/a	FR1	3	R1385E
1092.382	1.616	1124497	WORD	n/a	n/a	HOLE	11	10	[0, 0, 0]	n/a	FR1	3	R1385E
1093.998	0.934	1126113	WORD_OFF	n/a	n/a	HOLE	11	10	[0, 0, 0]	n/a	FR1	3	R1385E
1094.932	1.6	1127044	WORD	n/a	n/a	GLOBE	12	10	[0, 0, 0]	n/a	FR1	3	R1385E
1096.532	0.001	1128646	PROB	0.001	n/a	n/a	-999	10	[8, 3, 4]	15	FR1	3	R1385E
1096.533	0.0	1128647	START	n/a	n/a	n/a	-999	10	[-999, -999, -999]	n/a	FR1	3	R1385E
1096.531	0.002	1128649	WORD_OFF	n/a	n/a	GLOBE	12	10	[0, 0, 0]	n/a	FR1	3	R1385E
1096.533	0.0	1128649	ENCODING_END	n/a	n/a	n/a	-999	10	[0, 0, 0]	n/a	FR1	3	R1385E
1096.533	9.6	1128649	DISTRACT_START	n/a	n/a	n/a	-999	10	[0, 0, 0]	n/a	FR1	3	R1385E
1106.133	3.366	1138247	PROB	3.366	n/a	n/a	-999	10	[6, 2, 3]	11	FR1	3	R1385E
1109.499	3.883	1141613	PROB	3.883	n/a	n/a	-999	10	[5, 7, 4]	16	FR1	3	R1385E
1113.382	3.516	1145495	PROB	3.516	n/a	n/a	-999	10	[4, 6, 7]	17	FR1	3	R1385E
1116.898	0.0	1149011	DISTRACT_END	n/a	n/a	n/a	-999	10	[0, 0, 0]	n/a	FR1	3	R1385E
1116.898	1.617	1149011	STOP	n/a	n/a	n/a	-999	10	[-999, -999, -999]	n/a	FR1	3	R1385E
1118.515	5.678	1150626	REC_START	n/a	n/a	n/a	-999	10	[0, 0, 0]	n/a	FR1	3	R1385E
1124.193	1.0	1156306	REC_WORD	1.0	n/a	SPEAR	2	10	[0, 0, 0]	n/a	FR1	3	R1385E
1125.193	1.0	1157306	REC_WORD_VV	1.0	n/a	<>	-999	10	[0, 0, 0]	n/a	FR1	3	R1385E
1126.193	2.641	1158306	REC_WORD_VV	2.641	n/a	<>	-999	10	[0, 0, 0]	n/a	FR1	3	R1385E
1128.834	3.313	1160947	REC_WORD	3.313	n/a	PIN	5	10	[0, 0, 0]	n/a	FR1	3	R1385E
1132.147	9.604	1164260	REC_WORD	9.604	n/a	MAT	10	10	[0, 0, 0]	n/a	FR1	3	R1385E
1141.751	7.042	1173864	REC_WORD	7.042	n/a	STEEL	4	10	[0, 0, 0]	n/a	FR1	3	R1385E
1148.793	1.855	1180907	REC_END	n/a	n/a	n/a	-999	10	[0, 0, 0]	n/a	FR1	3	R1385E
1150.648	10.35	1182759	COUNTDOWN_START	n/a	n/a	n/a	-999	11	[0, 0, 0]	n/a	FR1	3	R1385E
1160.998	0.0	1193109	COUNTDOWN_END	n/a	n/a	n/a	-999	11	[0, 0, 0]	n/a	FR1	3	R1385E
1160.998	1.832	1193109	ENCODING_START	n/a	n/a	n/a	-999	11	[0, 0, 0]	n/a	FR1	3	R1385E
1162.83	1.601	1194939	WORD	n/a	n/a	HEEL	1	11	[0, 0, 0]	n/a	FR1	3	R1385E
1164.431	0.866	1196545	WORD_OFF	n/a	n/a	HEEL	1	11	[0, 0, 0]	n/a	FR1	3	R1385E
1165.297	1.601	1197414	WORD	n/a	n/a	WAX	2	11	[0, 0, 0]	n/a	FR1	3	R1385E
1166.898	0.85	1199010	WORD_OFF	n/a	n/a	WAX	2	11	[0, 0, 0]	n/a	FR1	3	R1385E
1167.748	1.601	1199859	WORD	n/a	n/a	BOY	3	11	[0, 0, 0]	n/a	FR1	3	R1385E
1169.349	0.983	1201464	WORD_OFF	n/a	n/a	BOY	3	11	[0, 0, 0]	n/a	FR1	3	R1385E
1170.332	1.6	1202446	WORD	n/a	n/a	FROG	4	11	[0, 0, 0]	n/a	FR1	3	R1385E
1171.932	0.934	1204041	WORD_OFF	n/a	n/a	FROG	4	11	[0, 0, 0]	n/a	FR1	3	R1385E
1172.866	1.616	1204982	WORD	n/a	n/a	GLASS	5	11	[0, 0, 0]	n/a	FR1	3	R1385E
1174.482	0.766	1206588	WORD_OFF	n/a	n/a	GLASS	5	11	[0, 0, 0]	n/a	FR1	3	R1385E
1175.248	1.6	1207355	WORD	n/a	n/a	TENT	6	11	[0, 0, 0]	n/a	FR1	3	R1385E
1176.848	0.883	1208960	WORD_OFF	n/a	n/a	TENT	6	11	[0, 0, 0]	n/a	FR1	3	R1385E
1177.731	1.601	1209840	WORD	n/a	n/a	DOCK	7	11	[0, 0, 0]	n/a	FR1	3	R1385E
1179.332	0.766	1211445	WORD_OFF	n/a	n/a	DOCK	7	11	[0, 0, 0]	n/a	FR1	3	R1385E
1180.098	1.6	1212212	WORD	n/a	n/a	FLEA	8	11	[0, 0, 0]	n/a	FR1	3	R1385E
1181.698	0.817	1213808	WORD_OFF	n/a	n/a	FLEA	8	11	[0, 0, 0]	n/a	FR1	3	R1385E
1182.515	1.6	1214626	WORD	n/a	n/a	SHEET	9	11	[0, 0, 0]	n/a	FR1	3	R1385E
1184.115	0.916	1216221	WORD_OFF	n/a	n/a	SHEET	9	11	[0, 0, 0]	n/a	FR1	3	R1385E
1185.031	1.601	1217142	WORD	n/a	n/a	KEY	10	11	[0, 0, 0]	n/a	FR1	3	R1385E
1186.632	0.833	1218747	WORD_OFF	n/a	n/a	KEY	10	11	[0, 0, 0]	n/a	FR1	3	R1385E
1187.465	1.6	1219576	WORD	n/a	n/a	CHIEF	11	11	[0, 0, 0]	n/a	FR1	3	R1385E
1189.065	0.832	1221181	WORD_OFF	n/a	n/a	CHIEF	11	11	[0, 0, 0]	n/a	FR1	3	R1385E
1189.897	1.601	1222010	WORD	n/a	n/a	WING	12	11	[0, 0, 0]	n/a	FR1	3	R1385E
1191.498	0.001	1223605	WORD_OFF	n/a	n/a	WING	12	11	[0, 0, 0]	n/a	FR1	3	R1385E
1191.499	0.001	1223610	PROB	0.001	n/a	n/a	-999	11	[1, 7, 5]	13	FR1	3	R1385E
1191.5	0.0	1223611	START	n/a	n/a	n/a	-999	11	[-999, -999, -999]	n/a	FR1	3	R1385E
1191.5	0.0	1223615	ENCODING_END	n/a	n/a	n/a	-999	11	[0, 0, 0]	n/a	FR1	3	R1385E
1191.5	3.867	1223615	DISTRACT_START	n/a	n/a	n/a	-999	11	[0, 0, 0]	n/a	FR1	3	R1385E
1195.367	2.165	1227478	PROB	2.165	n/a	n/a	-999	11	[8, 8, 1]	17	FR1	3	R1385E
1197.532	4.9	1229643	PROB	4.9	n/a	n/a	-999	11	[3, 8, 8]	19	FR1	3	R1385E
1202.432	2.783	1234542	PROB	2.783	n/a	n/a	-999	11	[2, 4, 3]	9	FR1	3	R1385E
1205.215	3.5	1237325	PROB	3.5	n/a	n/a	-999	11	[3, 3, 7]	13	FR1	3	R1385E
1208.715	2.518	1240825	PROB	2.518	n/a	n/a	-999	11	[4, 6, 4]	14	FR1	3	R1385E
1211.233	3.081	1243343	PROB	3.081	n/a	n/a	-999	11	[8, 1, 3]	12	FR1	3	R1385E
1214.314	0.0	1246421	DISTRACT_END	n/a	n/a	n/a	-999	11	[0, 0, 0]	n/a	FR1	3	R1385E
1214.314	1.884	1246424	STOP	n/a	n/a	n/a	-999	11	[-999, -999, -999]	n/a	FR1	3	R1385E
1216.198	14.861	1248312	REC_START	n/a	n/a	n/a	-999	11	[0, 0, 0]	n/a	FR1	3	R1385E
1231.059	1.292	1263169	REC_WORD	1.292	n/a	HEEL	1	11	[0, 0, 0]	n/a	FR1	3	R1385E
1232.351	1.0	1264460	REC_WORD	1.0	n/a	WAX	2	11	[0, 0, 0]	n/a	FR1	3	R1385E
1233.351	1.641	1265460	REC_WORD_VV	1.641	n/a	<>	-999	11	[0, 0, 0]	n/a	FR1	3	R1385E
1234.992	11.465	1267101	REC_WORD	11.465	n/a	BOY	3	11	[0, 0, 0]	n/a	FR1	3	R1385E
1246.457	1.774	1278563	REC_END	n/a	n/a	n/a	-999	11	[0, 0, 0]	n/a	FR1	3	R1385E
1248.231	10.351	1280343	COUNTDOWN_START	n/a	n/a	n/a	-999	12	[0, 0, 0]	n/a	FR1	3	R1385E
1258.582	0.0	1290693	COUNTDOWN_END	n/a	n/a	n/a	-999	12	[0, 0, 0]	n/a	FR1	3	R1385E
1258.582	2.015	1290693	ENCODING_START	n/a	n/a	n/a	-999	12	[0, 0, 0]	n/a	FR1	3	R1385E
1260.597	1.6	1292708	WORD	n/a	n/a	MOLE	1	12	[0, 0, 0]	n/a	FR1	3	R1385E
1262.197	0.851	1294303	WORD_OFF	n/a	n/a	MOLE	1	12	[0, 0, 0]	n/a	FR1	3	R1385E
1263.048	1.6	1295162	WORD	n/a	n/a	JAIL	2	12	[0, 0, 0]	n/a	FR1	3	R1385E
1264.648	1.0	1296757	WORD_OFF	n/a	n/a	JAIL	2	12	[0, 0, 0]	n/a	FR1	3	R1385E
1265.648	1.602	1297760	WORD	n/a	n/a	SLEEVE	3	12	[0, 0, 0]	n/a	FR1	3	R1385E
1267.25	0.964	1299355	WORD_OFF	n/a	n/a	SLEEVE	3	12	[0, 0, 0]	n/a	FR1	3	R1385E
1268.214	1.601	1300327	WORD	n/a	n/a	POOL	4	12	[0, 0, 0]	n/a	FR1	3	R1385E
1269.815	0.766	1301922	WORD_OFF	n/a	n/a	POOL	4	12	[0, 0, 0]	n/a	FR1	3	R1385E
1270.581	1.601	1302689	WORD	n/a	n/a	STEAM	5	12	[0, 0, 0]	n/a	FR1	3	R1385E
1272.182	0.8	1304295	WORD_OFF	n/a	n/a	STEAM	5	12	[0, 0, 0]	n/a	FR1	3	R1385E
1272.982	1.6	1305092	WORD	n/a	n/a	STRAW	6	12	[0, 0, 0]	n/a	FR1	3	R1385E
1274.582	0.916	1306688	WORD_OFF	n/a	n/a	STRAW	6	12	[0, 0, 0]	n/a	FR1	3	R1385E
1275.498	1.6	1307608	WORD	n/a	n/a	KNOB	7	12	[0, 0, 0]	n/a	FR1	3	R1385E
1277.098	0.984	1309203	WORD_OFF	n/a	n/a	KNOB	7	12	[0, 0, 0]	n/a	FR1	3	R1385E
1278.082	1.6	1310185	WORD	n/a	n/a	LEAF	8	12	[0, 0, 0]	n/a	FR1	3	R1385E
1279.682	0.766	1311791	WORD_OFF	n/a	n/a	LEAF	8	12	[0, 0, 0]	n/a	FR1	3	R1385E
1280.448	1.6	1312558	WORD	n/a	n/a	LANE	9	12	[0, 0, 0]	n/a	FR1	3	R1385E
1282.048	0.884	1314153	WORD_OFF	n/a	n/a	LANE	9	12	[0, 0, 0]	n/a	FR1	3	R1385E
1282.932	1.616	1315043	WORD	n/a	n/a	POLE	10	12	[0, 0, 0]	n/a	FR1	3	R1385E
1284.548	0.767	1316659	WORD_OFF	n/a	n/a	POLE	10	12	[0, 0, 0]	n/a	FR1	3	R1385E
1285.315	1.617	1317426	WORD	n/a	n/a	GLOVE	11	12	[0, 0, 0]	n/a	FR1	3	R1385E
1286.932	0.916	1319042	WORD_OFF	n/a	n/a	GLOVE	11	12	[0, 0, 0]	n/a	FR1	3	R1385E
1287.848	1.6	1319952	WORD	n/a	n/a	CHAIN	12	12	[0, 0, 0]	n/a	FR1	3	R1385E
1289.448	0.002	1321557	WORD_OFF	n/a	n/a	CHAIN	12	12	[0, 0, 0]	n/a	FR1	3	R1385E
1289.45	0.0	1321557	ENCODING_END	n/a	n/a	n/a	-999	12	[0, 0, 0]	n/a	FR1	3	R1385E
1289.45	0.0	1321557	DISTRACT_START	n/a	n/a	n/a	-999	12	[0, 0, 0]	n/a	FR1	3	R1385E
1289.449	0.001	1321557	PROB	0.001	n/a	n/a	-999	12	[2, 6, 5]	13	FR1	3	R1385E
1289.45	3.798	1321558	START	n/a	n/a	n/a	-999	12	[-999, -999, -999]	n/a	FR1	3	R1385E
1293.248	2.884	1325355	PROB	2.884	n/a	n/a	-999	12	[5, 4, 2]	11	FR1	3	R1385E
1296.132	2.384	1328239	PROB	2.384	n/a	n/a	-999	12	[1, 7, 4]	12	FR1	3	R1385E
1298.516	2.666	1330623	PROB	2.666	n/a	n/a	-999	12	[3, 6, 2]	11	FR1	3	R1385E
1301.182	3.0	1333289	PROB	3.0	n/a	n/a	-999	12	[5, 4, 4]	13	FR1	3	R1385E
1304.182	2.717	1336289	PROB	2.717	n/a	n/a	-999	12	[1, 8, 3]	12	FR1	3	R1385E
1306.899	2.333	1339006	PROB	2.333	n/a	n/a	-999	12	[5, 3, 8]	16	FR1	3	R1385E
1309.232	5.133	1341339	PROB	5.133	n/a	n/a	-999	12	[8, 8, 7]	23	FR1	3	R1385E
1314.365	0.0	1346470	DISTRACT_END	n/a	n/a	n/a	-999	12	[0, 0, 0]	n/a	FR1	3	R1385E
1314.365	1.766	1346472	STOP	n/a	n/a	n/a	-999	12	[-999, -999, -999]	n/a	FR1	3	R1385E
1316.131	8.291	1348238	REC_START	n/a	n/a	n/a	-999	12	[0, 0, 0]	n/a	FR1	3	R1385E
1324.422	1.0	1356528	REC_WORD	1.0	n/a	MOLE	1	12	[0, 0, 0]	n/a	FR1	3	R1385E
1325.422	5.715	1357528	REC_WORD_VV	5.715	n/a	<>	-999	12	[0, 0, 0]	n/a	FR1	3	R1385E
1331.137	15.256	1363243	REC_WORD	15.256	n/a	JAIL	2	12	[0, 0, 0]	n/a	FR1	3	R1385E
1346.393	0.0	1378499	REC_END	n/a	n/a	n/a	-999	12	[0, 0, 0]	n/a	FR1	3	R1385E
