onset	duration	sample	trial_type	response_time	stim_file	item_name	serialpos	list	test	answer	experiment	session	subject
0.0	0.0	10421	INSTRUCT_VIDEO	n/a	n/a	n/a	-999	4	[0, 0, 0]	n/a	FR1	0	R1277J
0.0	11.156	10421	INSTRUCT_VIDEO	n/a	n/a	n/a	-999	4	[0, 0, 0]	n/a	FR1	0	R1277J
11.156	0.0	21577	SESS_START	n/a	n/a	n/a	-999	4	[0, 0, 0]	n/a	FR1	0	R1277J
11.156	20.516	21577	MIC_TEST	n/a	n/a	n/a	-999	4	[0, 0, 0]	n/a	FR1	0	R1277J
31.672	0.5	42093	TRIAL	n/a	n/a	n/a	-999	5	[0, 0, 0]	n/a	FR1	0	R1277J
32.172	10.428	42593	COUNTDOWN_START	n/a	n/a	n/a	-999	5	[0, 0, 0]	n/a	FR1	0	R1277J
42.6	0.007	53021	COUNTDOWN_END	n/a	n/a	n/a	-999	5	[0, 0, 0]	n/a	FR1	0	R1277J
42.607	1.616	53028	ORIENT	n/a	n/a	n/a	-999	5	[0, 0, 0]	n/a	FR1	0	R1277J
44.223	2.251	54644	ORIENT_OFF	n/a	n/a	n/a	-999	5	[0, 0, 0]	n/a	FR1	0	R1277J
46.474	1.616	56895	WORD	n/a	wordpools/wordpool_EN.txt	GUARD	1	5	[0, 0, 0]	n/a	FR1	0	R1277J
48.09	0.966	58511	WORD_OFF	n/a	n/a	GUARD	1	5	[0, 0, 0]	n/a	FR1	0	R1277J
49.056	1.602	59477	WORD	n/a	wordpools/wordpool_EN.txt	DART	2	5	[0, 0, 0]	n/a	FR1	0	R1277J
50.658	0.867	61079	WORD_OFF	n/a	n/a	DART	2	5	[0, 0, 0]	n/a	FR1	0	R1277J
51.525	1.616	61946	WORD	n/a	wordpools/wordpool_EN.txt	STOOL	3	5	[0, 0, 0]	n/a	FR1	0	R1277J
53.141	0.816	63562	WORD_OFF	n/a	n/a	STOOL	3	5	[0, 0, 0]	n/a	FR1	0	R1277J
53.957	1.601	64378	WORD	n/a	wordpools/wordpool_EN.txt	CLOCK	4	5	[0, 0, 0]	n/a	FR1	0	R1277J
55.558	0.917	65979	WORD_OFF	n/a	n/a	CLOCK	4	5	[0, 0, 0]	n/a	FR1	0	R1277J
56.475	1.616	66896	WORD	n/a	wordpools/wordpool_EN.txt	SLEEVE	5	5	[0, 0, 0]	n/a	FR1	0	R1277J
58.091	1.0	68512	WORD_OFF	n/a	n/a	SLEEVE	5	5	[0, 0, 0]	n/a	FR1	0	R1277J
59.091	1.618	69512	WORD	n/a	wordpools/wordpool_EN.txt	CHAIR	6	5	[0, 0, 0]	n/a	FR1	0	R1277J
60.709	0.934	71130	WORD_OFF	n/a	n/a	CHAIR	6	5	[0, 0, 0]	n/a	FR1	0	R1277J
61.643	1.615	72064	WORD	n/a	wordpools/wordpool_EN.txt	DESK	7	5	[0, 0, 0]	n/a	FR1	0	R1277J
63.258	0.867	73679	WORD_OFF	n/a	n/a	DESK	7	5	[0, 0, 0]	n/a	FR1	0	R1277J
64.125	1.618	74546	WORD	n/a	wordpools/wordpool_EN.txt	HOUSE	8	5	[0, 0, 0]	n/a	FR1	0	R1277J
65.743	0.767	76164	WORD_OFF	n/a	n/a	HOUSE	8	5	[0, 0, 0]	n/a	FR1	0	R1277J
66.51	1.616	76931	WORD	n/a	wordpools/wordpool_EN.txt	COUCH	9	5	[0, 0, 0]	n/a	FR1	0	R1277J
68.126	0.966	78547	WORD_OFF	n/a	n/a	COUCH	9	5	[0, 0, 0]	n/a	FR1	0	R1277J
69.092	1.618	79513	WORD	n/a	wordpools/wordpool_EN.txt	RAT	10	5	[0, 0, 0]	n/a	FR1	0	R1277J
70.71	0.867	81131	WORD_OFF	n/a	n/a	RAT	10	5	[0, 0, 0]	n/a	FR1	0	R1277J
71.577	1.616	81998	WORD	n/a	wordpools/wordpool_EN.txt	OWL	11	5	[0, 0, 0]	n/a	FR1	0	R1277J
73.193	0.916	83614	WORD_OFF	n/a	n/a	OWL	11	5	[0, 0, 0]	n/a	FR1	0	R1277J
74.109	1.602	84530	WORD	n/a	wordpools/wordpool_EN.txt	EAR	12	5	[0, 0, 0]	n/a	FR1	0	R1277J
75.711	0.0	86132	WORD_OFF	n/a	n/a	EAR	12	5	[0, 0, 0]	n/a	FR1	0	R1277J
75.711	0.0	86132	DISTRACT_START	n/a	n/a	n/a	-999	5	[0, 0, 0]	n/a	FR1	0	R1277J
75.711	0.017	86132	START	n/a	n/a	n/a	-999	6	[-999, -999, -999]	n/a	FR1	0	R1277J
75.728	3.232	86149	PROB	3.232	n/a	n/a	-999	6	[3, 7, 9]	19	FR1	0	R1277J
78.96	2.884	89381	PROB	2.884	n/a	n/a	-999	6	[6, 1, 9]	16	FR1	0	R1277J
81.844	5.935	92265	PROB	5.935	n/a	n/a	-999	6	[2, 9, 9]	20	FR1	0	R1277J
87.779	2.534	98200	PROB	2.534	n/a	n/a	-999	6	[4, 2, 6]	12	FR1	0	R1277J
90.313	5.201	100734	PROB	5.201	n/a	n/a	-999	6	[3, 5, 8]	16	FR1	0	R1277J
95.514	3.586	105935	PROB	3.586	n/a	n/a	-999	6	[7, 4, 3]	14	FR1	0	R1277J
99.1	0.013	109521	STOP	n/a	n/a	n/a	-999	6	[-999, -999, -999]	n/a	FR1	0	R1277J
99.113	0.651	109534	DISTRACT_END	n/a	n/a	n/a	-999	5	[0, 0, 0]	n/a	FR1	0	R1277J
99.764	0.517	110185	RETRIEVAL_ORIENT	n/a	n/a	n/a	-999	5	[0, 0, 0]	n/a	FR1	0	R1277J
100.281	1.599	110702	REC_START	n/a	n/a	n/a	-999	5	[0, 0, 0]	n/a	FR1	0	R1277J
101.88	1.21	112301	REC_WORD	1.21	n/a	STOOL	-999	5	[0, 0, 0]	n/a	FR1	0	R1277J
103.09	0.4	113511	REC_WORD_VV	0.4	n/a	<>	-999	5	[0, 0, 0]	n/a	FR1	0	R1277J
103.49	2.13	113911	REC_WORD	2.13	n/a	SLEEVE	-999	5	[0, 0, 0]	n/a	FR1	0	R1277J
105.62	1.685	116041	REC_WORD	1.685	n/a	HOUSE	-999	5	[0, 0, 0]	n/a	FR1	0	R1277J
107.305	11.095	117726	REC_WORD	11.095	n/a	DART	-999	5	[0, 0, 0]	n/a	FR1	0	R1277J
118.4	1.65	128821	REC_WORD_VV	1.65	n/a	<>	-999	5	[0, 0, 0]	n/a	FR1	0	R1277J
120.05	10.244	130471	REC_WORD	10.244	n/a	DESK	-999	5	[0, 0, 0]	n/a	FR1	0	R1277J
130.294	4.607	140715	REC_END	n/a	n/a	n/a	-999	5	[0, 0, 0]	n/a	FR1	0	R1277J
134.901	0.5	145322	TRIAL	n/a	n/a	n/a	-999	6	[0, 0, 0]	n/a	FR1	0	R1277J
135.401	10.428	145822	COUNTDOWN_START	n/a	n/a	n/a	-999	6	[0, 0, 0]	n/a	FR1	0	R1277J
145.829	0.007	156250	COUNTDOWN_END	n/a	n/a	n/a	-999	6	[0, 0, 0]	n/a	FR1	0	R1277J
145.836	1.617	156257	ORIENT	n/a	n/a	n/a	-999	6	[0, 0, 0]	n/a	FR1	0	R1277J
147.453	2.251	157874	ORIENT_OFF	n/a	n/a	n/a	-999	6	[0, 0, 0]	n/a	FR1	0	R1277J
149.704	1.617	160125	WORD	n/a	wordpools/wordpool_EN.txt	FLAG	1	6	[0, 0, 0]	n/a	FR1	0	R1277J
151.321	0.966	161742	WORD_OFF	n/a	n/a	FLAG	1	6	[0, 0, 0]	n/a	FR1	0	R1277J
152.287	1.616	162708	WORD	n/a	wordpools/wordpool_EN.txt	SUIT	2	6	[0, 0, 0]	n/a	FR1	0	R1277J
153.903	0.984	164324	WORD_OFF	n/a	n/a	SUIT	2	6	[0, 0, 0]	n/a	FR1	0	R1277J
154.887	1.617	165308	WORD	n/a	wordpools/wordpool_EN.txt	JAIL	3	6	[0, 0, 0]	n/a	FR1	0	R1277J
156.504	0.766	166925	WORD_OFF	n/a	n/a	JAIL	3	6	[0, 0, 0]	n/a	FR1	0	R1277J
157.27	1.617	167691	WORD	n/a	wordpools/wordpool_EN.txt	HEART	4	6	[0, 0, 0]	n/a	FR1	0	R1277J
158.887	1.0	169308	WORD_OFF	n/a	n/a	HEART	4	6	[0, 0, 0]	n/a	FR1	0	R1277J
159.887	1.601	170308	WORD	n/a	wordpools/wordpool_EN.txt	HAT	5	6	[0, 0, 0]	n/a	FR1	0	R1277J
161.488	0.934	171909	WORD_OFF	n/a	n/a	HAT	5	6	[0, 0, 0]	n/a	FR1	0	R1277J
162.422	1.616	172843	WORD	n/a	wordpools/wordpool_EN.txt	SMOKE	6	6	[0, 0, 0]	n/a	FR1	0	R1277J
164.038	0.867	174459	WORD_OFF	n/a	n/a	SMOKE	6	6	[0, 0, 0]	n/a	FR1	0	R1277J
164.905	1.617	175326	WORD	n/a	wordpools/wordpool_EN.txt	MAZE	7	6	[0, 0, 0]	n/a	FR1	0	R1277J
166.522	0.867	176943	WORD_OFF	n/a	n/a	MAZE	7	6	[0, 0, 0]	n/a	FR1	0	R1277J
167.389	1.616	177810	WORD	n/a	wordpools/wordpool_EN.txt	CAR	8	6	[0, 0, 0]	n/a	FR1	0	R1277J
169.005	0.867	179426	WORD_OFF	n/a	n/a	CAR	8	6	[0, 0, 0]	n/a	FR1	0	R1277J
169.872	1.601	180293	WORD	n/a	wordpools/wordpool_EN.txt	STAIR	9	6	[0, 0, 0]	n/a	FR1	0	R1277J
171.473	0.766	181894	WORD_OFF	n/a	n/a	STAIR	9	6	[0, 0, 0]	n/a	FR1	0	R1277J
172.239	1.617	182660	WORD	n/a	wordpools/wordpool_EN.txt	PHONE	10	6	[0, 0, 0]	n/a	FR1	0	R1277J
173.856	0.918	184277	WORD_OFF	n/a	n/a	PHONE	10	6	[0, 0, 0]	n/a	FR1	0	R1277J
174.774	1.616	185195	WORD	n/a	wordpools/wordpool_EN.txt	FUDGE	11	6	[0, 0, 0]	n/a	FR1	0	R1277J
176.39	0.866	186811	WORD_OFF	n/a	n/a	FUDGE	11	6	[0, 0, 0]	n/a	FR1	0	R1277J
177.256	1.617	187677	WORD	n/a	wordpools/wordpool_EN.txt	WALL	12	6	[0, 0, 0]	n/a	FR1	0	R1277J
178.873	0.0	189294	WORD_OFF	n/a	n/a	WALL	12	6	[0, 0, 0]	n/a	FR1	0	R1277J
178.873	0.001	189294	DISTRACT_START	n/a	n/a	n/a	-999	6	[0, 0, 0]	n/a	FR1	0	R1277J
178.874	0.016	189295	START	n/a	n/a	n/a	-999	7	[-999, -999, -999]	n/a	FR1	0	R1277J
178.89	4.1	189311	PROB	4.1	n/a	n/a	-999	7	[3, 2, 9]	14	FR1	0	R1277J
182.99	2.968	193411	PROB	2.968	n/a	n/a	-999	7	[4, 6, 3]	13	FR1	0	R1277J
185.958	3.967	196379	PROB	3.967	n/a	n/a	-999	7	[8, 4, 2]	14	FR1	0	R1277J
189.925	3.568	200346	PROB	3.568	n/a	n/a	-999	7	[3, 3, 6]	12	FR1	0	R1277J
193.493	4.532	203914	PROB	4.532	n/a	n/a	-999	7	[9, 4, 7]	20	FR1	0	R1277J
198.025	3.16	208446	PROB	3.16	n/a	n/a	-999	7	[2, 3, 4]	9	FR1	0	R1277J
201.185	0.008	211606	STOP	n/a	n/a	n/a	-999	7	[-999, -999, -999]	n/a	FR1	0	R1277J
201.193	0.584	211614	DISTRACT_END	n/a	n/a	n/a	-999	6	[0, 0, 0]	n/a	FR1	0	R1277J
201.777	0.518	212198	RETRIEVAL_ORIENT	n/a	n/a	n/a	-999	6	[0, 0, 0]	n/a	FR1	0	R1277J
202.295	1.64	212716	REC_START	n/a	n/a	n/a	-999	6	[0, 0, 0]	n/a	FR1	0	R1277J
203.935	1.411	214356	REC_WORD	1.411	n/a	FLOOD	-999	6	[0, 0, 0]	n/a	FR1	0	R1277J
205.346	4.0	215767	REC_WORD	4.0	n/a	SUIT	-999	6	[0, 0, 0]	n/a	FR1	0	R1277J
209.346	22.96	219767	REC_WORD	22.96	n/a	MAZE	-999	6	[0, 0, 0]	n/a	FR1	0	R1277J
232.306	5.075	242727	REC_END	n/a	n/a	n/a	-999	6	[0, 0, 0]	n/a	FR1	0	R1277J
237.381	0.5	247802	TRIAL	n/a	n/a	n/a	-999	7	[0, 0, 0]	n/a	FR1	0	R1277J
237.881	10.428	248302	COUNTDOWN_START	n/a	n/a	n/a	-999	7	[0, 0, 0]	n/a	FR1	0	R1277J
248.309	0.007	258730	COUNTDOWN_END	n/a	n/a	n/a	-999	7	[0, 0, 0]	n/a	FR1	0	R1277J
248.316	1.616	258737	ORIENT	n/a	n/a	n/a	-999	7	[0, 0, 0]	n/a	FR1	0	R1277J
249.932	2.217	260353	ORIENT_OFF	n/a	n/a	n/a	-999	7	[0, 0, 0]	n/a	FR1	0	R1277J
252.149	1.618	262570	WORD	n/a	wordpools/wordpool_EN.txt	FOOD	1	7	[0, 0, 0]	n/a	FR1	0	R1277J
253.767	0.917	264188	WORD_OFF	n/a	n/a	FOOD	1	7	[0, 0, 0]	n/a	FR1	0	R1277J
254.684	1.617	265105	WORD	n/a	wordpools/wordpool_EN.txt	BREAD	2	7	[0, 0, 0]	n/a	FR1	0	R1277J
256.301	0.815	266722	WORD_OFF	n/a	n/a	BREAD	2	7	[0, 0, 0]	n/a	FR1	0	R1277J
257.116	1.618	267537	WORD	n/a	wordpools/wordpool_EN.txt	PIT	3	7	[0, 0, 0]	n/a	FR1	0	R1277J
258.734	0.934	269155	WORD_OFF	n/a	n/a	PIT	3	7	[0, 0, 0]	n/a	FR1	0	R1277J
259.668	1.617	270089	WORD	n/a	wordpools/wordpool_EN.txt	PEACH	4	7	[0, 0, 0]	n/a	FR1	0	R1277J
261.285	0.832	271706	WORD_OFF	n/a	n/a	PEACH	4	7	[0, 0, 0]	n/a	FR1	0	R1277J
262.117	1.601	272538	WORD	n/a	wordpools/wordpool_EN.txt	CROW	5	7	[0, 0, 0]	n/a	FR1	0	R1277J
263.718	1.001	274139	WORD_OFF	n/a	n/a	CROW	5	7	[0, 0, 0]	n/a	FR1	0	R1277J
264.719	1.616	275140	WORD	n/a	wordpools/wordpool_EN.txt	WOLF	6	7	[0, 0, 0]	n/a	FR1	0	R1277J
266.335	1.0	276756	WORD_OFF	n/a	n/a	WOLF	6	7	[0, 0, 0]	n/a	FR1	0	R1277J
267.335	1.616	277756	WORD	n/a	wordpools/wordpool_EN.txt	NEST	7	7	[0, 0, 0]	n/a	FR1	0	R1277J
268.951	0.95	279372	WORD_OFF	n/a	n/a	NEST	7	7	[0, 0, 0]	n/a	FR1	0	R1277J
269.901	1.601	280322	WORD	n/a	wordpools/wordpool_EN.txt	MILK	8	7	[0, 0, 0]	n/a	FR1	0	R1277J
271.502	0.934	281923	WORD_OFF	n/a	n/a	MILK	8	7	[0, 0, 0]	n/a	FR1	0	R1277J
272.436	1.616	282857	WORD	n/a	wordpools/wordpool_EN.txt	DEER	9	7	[0, 0, 0]	n/a	FR1	0	R1277J
274.052	0.984	284473	WORD_OFF	n/a	n/a	DEER	9	7	[0, 0, 0]	n/a	FR1	0	R1277J
275.036	1.617	285457	WORD	n/a	wordpools/wordpool_EN.txt	GEESE	10	7	[0, 0, 0]	n/a	FR1	0	R1277J
276.653	0.8	287074	WORD_OFF	n/a	n/a	GEESE	10	7	[0, 0, 0]	n/a	FR1	0	R1277J
277.453	1.616	287874	WORD	n/a	wordpools/wordpool_EN.txt	EEL	11	7	[0, 0, 0]	n/a	FR1	0	R1277J
279.069	0.8	289490	WORD_OFF	n/a	n/a	EEL	11	7	[0, 0, 0]	n/a	FR1	0	R1277J
279.869	1.618	290290	WORD	n/a	wordpools/wordpool_EN.txt	PRINCE	12	7	[0, 0, 0]	n/a	FR1	0	R1277J
281.487	0.0	291908	WORD_OFF	n/a	n/a	PRINCE	12	7	[0, 0, 0]	n/a	FR1	0	R1277J
281.487	0.001	291908	DISTRACT_START	n/a	n/a	n/a	-999	7	[0, 0, 0]	n/a	FR1	0	R1277J
281.488	0.016	291909	START	n/a	n/a	n/a	-999	8	[-999, -999, -999]	n/a	FR1	0	R1277J
281.504	4.366	291925	PROB	4.366	n/a	n/a	-999	8	[5, 3, 4]	12	FR1	0	R1277J
285.87	2.184	296291	PROB	2.184	n/a	n/a	-999	8	[1, 6, 6]	13	FR1	0	R1277J
288.054	3.651	298475	PROB	3.651	n/a	n/a	-999	8	[6, 7, 2]	15	FR1	0	R1277J
291.705	5.884	302126	PROB	5.884	n/a	n/a	-999	8	[9, 6, 3]	18	FR1	0	R1277J
297.589	5.986	308010	PROB	5.986	n/a	n/a	-999	8	[6, 6, 4]	16	FR1	0	R1277J
303.575	0.015	313996	STOP	n/a	n/a	n/a	-999	8	[-999, -999, -999]	n/a	FR1	0	R1277J
303.59	0.549	314011	DISTRACT_END	n/a	n/a	n/a	-999	7	[0, 0, 0]	n/a	FR1	0	R1277J
304.139	0.519	314560	RETRIEVAL_ORIENT	n/a	n/a	n/a	-999	7	[0, 0, 0]	n/a	FR1	0	R1277J
304.658	1.995	315079	REC_START	n/a	n/a	n/a	-999	7	[0, 0, 0]	n/a	FR1	0	R1277J
306.653	0.835	317074	REC_WORD	0.835	n/a	FOOD	-999	7	[0, 0, 0]	n/a	FR1	0	R1277J
307.488	1.505	317909	REC_WORD_VV	1.505	n/a	<>	-999	7	[0, 0, 0]	n/a	FR1	0	R1277J
308.993	2.035	319414	REC_WORD	2.035	n/a	BREAD	-999	7	[0, 0, 0]	n/a	FR1	0	R1277J
311.028	1.965	321449	REC_WORD	1.965	n/a	MILK	-999	7	[0, 0, 0]	n/a	FR1	0	R1277J
312.993	2.125	323414	REC_WORD	2.125	n/a	DEER	-999	7	[0, 0, 0]	n/a	FR1	0	R1277J
315.118	2.579	325539	REC_WORD	2.579	n/a	GEESE	-999	7	[0, 0, 0]	n/a	FR1	0	R1277J
317.697	4.17	328118	REC_WORD	4.17	n/a	EEL	-999	7	[0, 0, 0]	n/a	FR1	0	R1277J
321.867	9.476	332288	REC_WORD	9.476	n/a	PRINCE	-999	7	[0, 0, 0]	n/a	FR1	0	R1277J
331.343	1.0	341764	REC_WORD_VV	1.0	n/a	<>	-999	7	[0, 0, 0]	n/a	FR1	0	R1277J
332.343	2.325	342764	REC_WORD_VV	2.325	n/a	<>	-999	7	[0, 0, 0]	n/a	FR1	0	R1277J
334.668	4.509	345089	REC_END	n/a	n/a	n/a	-999	7	[0, 0, 0]	n/a	FR1	0	R1277J
339.177	0.5	349598	TRIAL	n/a	n/a	n/a	-999	8	[0, 0, 0]	n/a	FR1	0	R1277J
339.677	10.428	350098	COUNTDOWN_START	n/a	n/a	n/a	-999	8	[0, 0, 0]	n/a	FR1	0	R1277J
350.105	0.007	360526	COUNTDOWN_END	n/a	n/a	n/a	-999	8	[0, 0, 0]	n/a	FR1	0	R1277J
350.112	1.618	360533	ORIENT	n/a	n/a	n/a	-999	8	[0, 0, 0]	n/a	FR1	0	R1277J
351.73	2.266	362151	ORIENT_OFF	n/a	n/a	n/a	-999	8	[0, 0, 0]	n/a	FR1	0	R1277J
353.996	1.618	364417	WORD	n/a	wordpools/wordpool_EN.txt	SKI	1	8	[0, 0, 0]	n/a	FR1	0	R1277J
355.614	0.866	366035	WORD_OFF	n/a	n/a	SKI	1	8	[0, 0, 0]	n/a	FR1	0	R1277J
356.48	1.616	366901	WORD	n/a	wordpools/wordpool_EN.txt	BEAR	2	8	[0, 0, 0]	n/a	FR1	0	R1277J
358.096	0.8	368517	WORD_OFF	n/a	n/a	BEAR	2	8	[0, 0, 0]	n/a	FR1	0	R1277J
358.896	1.601	369317	WORD	n/a	wordpools/wordpool_EN.txt	WHEEL	3	8	[0, 0, 0]	n/a	FR1	0	R1277J
360.497	0.967	370918	WORD_OFF	n/a	n/a	WHEEL	3	8	[0, 0, 0]	n/a	FR1	0	R1277J
361.464	1.616	371885	WORD	n/a	wordpools/wordpool_EN.txt	JET	4	8	[0, 0, 0]	n/a	FR1	0	R1277J
363.08	0.833	373501	WORD_OFF	n/a	n/a	JET	4	8	[0, 0, 0]	n/a	FR1	0	R1277J
363.913	1.602	374334	WORD	n/a	wordpools/wordpool_EN.txt	ICE	5	8	[0, 0, 0]	n/a	FR1	0	R1277J
365.515	0.816	375936	WORD_OFF	n/a	n/a	ICE	5	8	[0, 0, 0]	n/a	FR1	0	R1277J
366.331	1.616	376752	WORD	n/a	wordpools/wordpool_EN.txt	SLIME	6	8	[0, 0, 0]	n/a	FR1	0	R1277J
367.947	0.917	378369	WORD_OFF	n/a	n/a	SLIME	6	8	[0, 0, 0]	n/a	FR1	0	R1277J
368.864	1.618	379286	WORD	n/a	wordpools/wordpool_EN.txt	CLOUD	7	8	[0, 0, 0]	n/a	FR1	0	R1277J
370.482	0.983	380904	WORD_OFF	n/a	n/a	CLOUD	7	8	[0, 0, 0]	n/a	FR1	0	R1277J
371.465	1.616	381887	WORD	n/a	wordpools/wordpool_EN.txt	ZOO	8	8	[0, 0, 0]	n/a	FR1	0	R1277J
373.081	0.9	383503	WORD_OFF	n/a	n/a	ZOO	8	8	[0, 0, 0]	n/a	FR1	0	R1277J
373.981	1.601	384403	WORD	n/a	wordpools/wordpool_EN.txt	MOLE	9	8	[0, 0, 0]	n/a	FR1	0	R1277J
375.582	1.017	386004	WORD_OFF	n/a	n/a	MOLE	9	8	[0, 0, 0]	n/a	FR1	0	R1277J
376.599	1.616	387021	WORD	n/a	wordpools/wordpool_EN.txt	PLANE	10	8	[0, 0, 0]	n/a	FR1	0	R1277J
378.215	1.0	388637	WORD_OFF	n/a	n/a	PLANE	10	8	[0, 0, 0]	n/a	FR1	0	R1277J
379.215	1.617	389637	WORD	n/a	wordpools/wordpool_EN.txt	SPARK	11	8	[0, 0, 0]	n/a	FR1	0	R1277J
380.832	0.851	391254	WORD_OFF	n/a	n/a	SPARK	11	8	[0, 0, 0]	n/a	FR1	0	R1277J
381.683	1.617	392105	WORD	n/a	wordpools/wordpool_EN.txt	NET	12	8	[0, 0, 0]	n/a	FR1	0	R1277J
383.3	0.0	393722	WORD_OFF	n/a	n/a	NET	12	8	[0, 0, 0]	n/a	FR1	0	R1277J
383.3	0.001	393722	DISTRACT_START	n/a	n/a	n/a	-999	8	[0, 0, 0]	n/a	FR1	0	R1277J
383.301	0.016	393723	START	n/a	n/a	n/a	-999	9	[-999, -999, -999]	n/a	FR1	0	R1277J
383.317	2.499	393739	PROB	2.499	n/a	n/a	-999	9	[1, 7, 3]	11	FR1	0	R1277J
385.816	1.868	396238	PROB	1.868	n/a	n/a	-999	9	[2, 1, 8]	11	FR1	0	R1277J
387.684	5.3	398106	PROB	5.3	n/a	n/a	-999	9	[4, 8, 5]	17	FR1	0	R1277J
392.984	1.668	403406	PROB	1.668	n/a	n/a	-999	9	[7, 3, 1]	11	FR1	0	R1277J
394.652	3.282	405074	PROB	3.282	n/a	n/a	-999	9	[1, 6, 8]	15	FR1	0	R1277J
397.934	3.535	408356	PROB	3.535	n/a	n/a	-999	9	[7, 5, 4]	16	FR1	0	R1277J
401.469	1.86	411891	PROB	1.86	n/a	n/a	-999	9	[1, 1, 7]	9	FR1	0	R1277J
403.329	0.007	413751	STOP	n/a	n/a	n/a	-999	9	[-999, -999, -999]	n/a	FR1	0	R1277J
403.336	0.699	413758	DISTRACT_END	n/a	n/a	n/a	-999	8	[0, 0, 0]	n/a	FR1	0	R1277J
404.035	0.519	414457	RETRIEVAL_ORIENT	n/a	n/a	n/a	-999	8	[0, 0, 0]	n/a	FR1	0	R1277J
404.554	3.645	414976	REC_START	n/a	n/a	n/a	-999	8	[0, 0, 0]	n/a	FR1	0	R1277J
408.199	1.93	418621	REC_WORD	1.93	n/a	ZOO	-999	8	[0, 0, 0]	n/a	FR1	0	R1277J
410.129	1.52	420551	REC_WORD	1.52	n/a	BEAR	-999	8	[0, 0, 0]	n/a	FR1	0	R1277J
411.649	2.53	422071	REC_WORD	2.53	n/a	SKI	-999	8	[0, 0, 0]	n/a	FR1	0	R1277J
414.179	1.835	424601	REC_WORD	1.835	n/a	JET	-999	8	[0, 0, 0]	n/a	FR1	0	R1277J
416.014	1.28	426436	REC_WORD	1.28	n/a	SPARK	-999	8	[0, 0, 0]	n/a	FR1	0	R1277J
417.294	1.0	427716	REC_WORD_VV	1.0	n/a	<>	-999	8	[0, 0, 0]	n/a	FR1	0	R1277J
418.294	1.19	428716	REC_WORD_VV	1.19	n/a	<>	-999	8	[0, 0, 0]	n/a	FR1	0	R1277J
419.484	1.055	429906	REC_WORD_VV	1.055	n/a	<>	-999	8	[0, 0, 0]	n/a	FR1	0	R1277J
420.539	1.975	430961	REC_WORD_VV	1.975	n/a	<>	-999	8	[0, 0, 0]	n/a	FR1	0	R1277J
422.514	0.515	432936	REC_WORD_VV	0.515	n/a	<>	-999	8	[0, 0, 0]	n/a	FR1	0	R1277J
423.029	8.075	433451	REC_WORD	8.075	n/a	CLOUD	-999	8	[0, 0, 0]	n/a	FR1	0	R1277J
431.104	3.461	441526	REC_WORD	3.461	n/a	MOLE	-999	8	[0, 0, 0]	n/a	FR1	0	R1277J
434.565	4.059	444987	REC_END	n/a	n/a	n/a	-999	8	[0, 0, 0]	n/a	FR1	0	R1277J
438.624	0.5	449046	TRIAL	n/a	n/a	n/a	-999	9	[0, 0, 0]	n/a	FR1	0	R1277J
439.124	10.428	449546	COUNTDOWN_START	n/a	n/a	n/a	-999	9	[0, 0, 0]	n/a	FR1	0	R1277J
449.552	0.007	459974	COUNTDOWN_END	n/a	n/a	n/a	-999	9	[0, 0, 0]	n/a	FR1	0	R1277J
449.559	1.615	459981	ORIENT	n/a	n/a	n/a	-999	9	[0, 0, 0]	n/a	FR1	0	R1277J
451.174	2.285	461596	ORIENT_OFF	n/a	n/a	n/a	-999	9	[0, 0, 0]	n/a	FR1	0	R1277J
453.459	1.616	463881	WORD	n/a	wordpools/wordpool_EN.txt	LEG	1	9	[0, 0, 0]	n/a	FR1	0	R1277J
455.075	0.984	465497	WORD_OFF	n/a	n/a	LEG	1	9	[0, 0, 0]	n/a	FR1	0	R1277J
456.059	1.617	466481	WORD	n/a	wordpools/wordpool_EN.txt	SPOON	2	9	[0, 0, 0]	n/a	FR1	0	R1277J
457.676	0.8	468098	WORD_OFF	n/a	n/a	SPOON	2	9	[0, 0, 0]	n/a	FR1	0	R1277J
458.476	1.616	468898	WORD	n/a	wordpools/wordpool_EN.txt	CUBE	3	9	[0, 0, 0]	n/a	FR1	0	R1277J
460.092	0.984	470514	WORD_OFF	n/a	n/a	CUBE	3	9	[0, 0, 0]	n/a	FR1	0	R1277J
461.076	1.618	471498	WORD	n/a	wordpools/wordpool_EN.txt	SEAT	4	9	[0, 0, 0]	n/a	FR1	0	R1277J
462.694	0.983	473116	WORD_OFF	n/a	n/a	SEAT	4	9	[0, 0, 0]	n/a	FR1	0	R1277J
463.677	1.617	474099	WORD	n/a	wordpools/wordpool_EN.txt	STOVE	5	9	[0, 0, 0]	n/a	FR1	0	R1277J
465.294	0.833	475716	WORD_OFF	n/a	n/a	STOVE	5	9	[0, 0, 0]	n/a	FR1	0	R1277J
466.127	1.617	476549	WORD	n/a	wordpools/wordpool_EN.txt	NOSE	6	9	[0, 0, 0]	n/a	FR1	0	R1277J
467.744	0.95	478166	WORD_OFF	n/a	n/a	NOSE	6	9	[0, 0, 0]	n/a	FR1	0	R1277J
468.694	1.617	479116	WORD	n/a	wordpools/wordpool_EN.txt	PURSE	7	9	[0, 0, 0]	n/a	FR1	0	R1277J
470.311	0.833	480733	WORD_OFF	n/a	n/a	PURSE	7	9	[0, 0, 0]	n/a	FR1	0	R1277J
471.144	1.618	481566	WORD	n/a	wordpools/wordpool_EN.txt	MAT	8	9	[0, 0, 0]	n/a	FR1	0	R1277J
472.762	0.85	483184	WORD_OFF	n/a	n/a	MAT	8	9	[0, 0, 0]	n/a	FR1	0	R1277J
473.612	1.616	484034	WORD	n/a	wordpools/wordpool_EN.txt	BAG	9	9	[0, 0, 0]	n/a	FR1	0	R1277J
475.228	0.8	485650	WORD_OFF	n/a	n/a	BAG	9	9	[0, 0, 0]	n/a	FR1	0	R1277J
476.028	1.617	486450	WORD	n/a	wordpools/wordpool_EN.txt	TRAY	10	9	[0, 0, 0]	n/a	FR1	0	R1277J
477.645	0.917	488067	WORD_OFF	n/a	n/a	TRAY	10	9	[0, 0, 0]	n/a	FR1	0	R1277J
478.562	1.616	488984	WORD	n/a	wordpools/wordpool_EN.txt	DOLL	11	9	[0, 0, 0]	n/a	FR1	0	R1277J
480.178	0.767	490600	WORD_OFF	n/a	n/a	DOLL	11	9	[0, 0, 0]	n/a	FR1	0	R1277J
480.945	1.601	491367	WORD	n/a	wordpools/wordpool_EN.txt	CANE	12	9	[0, 0, 0]	n/a	FR1	0	R1277J
482.546	0.0	492968	WORD_OFF	n/a	n/a	CANE	12	9	[0, 0, 0]	n/a	FR1	0	R1277J
482.546	0.001	492968	DISTRACT_START	n/a	n/a	n/a	-999	9	[0, 0, 0]	n/a	FR1	0	R1277J
482.547	0.016	492969	START	n/a	n/a	n/a	-999	10	[-999, -999, -999]	n/a	FR1	0	R1277J
482.563	7.466	492985	PROB	7.466	n/a	n/a	-999	10	[2, 9, 9]	20	FR1	0	R1277J
490.029	3.251	500451	PROB	3.251	n/a	n/a	-999	10	[6, 3, 5]	14	FR1	0	R1277J
493.28	3.151	503702	PROB	3.151	n/a	n/a	-999	10	[6, 7, 1]	14	FR1	0	R1277J
496.431	4.767	506853	PROB	4.767	n/a	n/a	-999	10	[7, 1, 5]	14	FR1	0	R1277J
501.198	4.119	511620	PROB	4.119	n/a	n/a	-999	10	[7, 1, 2]	10	FR1	0	R1277J
505.317	0.016	515739	STOP	n/a	n/a	n/a	-999	10	[-999, -999, -999]	n/a	FR1	0	R1277J
505.333	0.665	515755	DISTRACT_END	n/a	n/a	n/a	-999	9	[0, 0, 0]	n/a	FR1	0	R1277J
505.998	0.518	516420	RETRIEVAL_ORIENT	n/a	n/a	n/a	-999	9	[0, 0, 0]	n/a	FR1	0	R1277J
506.516	1.725	516938	REC_START	n/a	n/a	n/a	-999	9	[0, 0, 0]	n/a	FR1	0	R1277J
508.241	0.835	518663	REC_WORD	0.835	n/a	LEG	-999	9	[0, 0, 0]	n/a	FR1	0	R1277J
509.076	3.31	519498	REC_WORD_VV	3.31	n/a	<>	-999	9	[0, 0, 0]	n/a	FR1	0	R1277J
512.386	3.615	522808	REC_WORD	3.615	n/a	DOLL	-999	9	[0, 0, 0]	n/a	FR1	0	R1277J
516.001	4.325	526423	REC_WORD	4.325	n/a	PURSE	-999	9	[0, 0, 0]	n/a	FR1	0	R1277J
520.326	9.28	530748	REC_WORD_VV	9.28	n/a	<>	-999	9	[0, 0, 0]	n/a	FR1	0	R1277J
529.606	1.0	540028	REC_WORD_VV	1.0	n/a	<>	-999	9	[0, 0, 0]	n/a	FR1	0	R1277J
530.606	5.923	541028	REC_WORD_VV	5.923	n/a	<>	-999	9	[0, 0, 0]	n/a	FR1	0	R1277J
536.529	5.025	546951	REC_END	n/a	n/a	n/a	-999	9	[0, 0, 0]	n/a	FR1	0	R1277J
541.554	0.5	551976	TRIAL	n/a	n/a	n/a	-999	10	[0, 0, 0]	n/a	FR1	0	R1277J
542.054	10.428	552476	COUNTDOWN_START	n/a	n/a	n/a	-999	10	[0, 0, 0]	n/a	FR1	0	R1277J
552.482	0.006	562904	COUNTDOWN_END	n/a	n/a	n/a	-999	10	[0, 0, 0]	n/a	FR1	0	R1277J
552.488	1.617	562910	ORIENT	n/a	n/a	n/a	-999	10	[0, 0, 0]	n/a	FR1	0	R1277J
554.105	2.016	564527	ORIENT_OFF	n/a	n/a	n/a	-999	10	[0, 0, 0]	n/a	FR1	0	R1277J
556.121	1.618	566543	WORD	n/a	wordpools/wordpool_EN.txt	FOAM	1	10	[0, 0, 0]	n/a	FR1	0	R1277J
557.739	0.783	568161	WORD_OFF	n/a	n/a	FOAM	1	10	[0, 0, 0]	n/a	FR1	0	R1277J
558.522	1.616	568944	WORD	n/a	wordpools/wordpool_EN.txt	SKY	2	10	[0, 0, 0]	n/a	FR1	0	R1277J
560.138	0.951	570560	WORD_OFF	n/a	n/a	SKY	2	10	[0, 0, 0]	n/a	FR1	0	R1277J
561.089	1.618	571511	WORD	n/a	wordpools/wordpool_EN.txt	SIGN	3	10	[0, 0, 0]	n/a	FR1	0	R1277J
562.707	0.816	573129	WORD_OFF	n/a	n/a	SIGN	3	10	[0, 0, 0]	n/a	FR1	0	R1277J
563.523	1.616	573945	WORD	n/a	wordpools/wordpool_EN.txt	STAR	4	10	[0, 0, 0]	n/a	FR1	0	R1277J
565.139	0.8	575561	WORD_OFF	n/a	n/a	STAR	4	10	[0, 0, 0]	n/a	FR1	0	R1277J
565.939	1.618	576361	WORD	n/a	wordpools/wordpool_EN.txt	SAIL	5	10	[0, 0, 0]	n/a	FR1	0	R1277J
567.557	1.0	577979	WORD_OFF	n/a	n/a	SAIL	5	10	[0, 0, 0]	n/a	FR1	0	R1277J
568.557	1.616	578979	WORD	n/a	wordpools/wordpool_EN.txt	RAIN	6	10	[0, 0, 0]	n/a	FR1	0	R1277J
570.173	0.9	580595	WORD_OFF	n/a	n/a	RAIN	6	10	[0, 0, 0]	n/a	FR1	0	R1277J
571.073	1.601	581495	WORD	n/a	wordpools/wordpool_EN.txt	PALM	7	10	[0, 0, 0]	n/a	FR1	0	R1277J
572.674	0.851	583096	WORD_OFF	n/a	n/a	PALM	7	10	[0, 0, 0]	n/a	FR1	0	R1277J
573.525	1.616	583947	WORD	n/a	wordpools/wordpool_EN.txt	MOOSE	8	10	[0, 0, 0]	n/a	FR1	0	R1277J
575.141	0.95	585563	WORD_OFF	n/a	n/a	MOOSE	8	10	[0, 0, 0]	n/a	FR1	0	R1277J
576.091	1.617	586513	WORD	n/a	wordpools/wordpool_EN.txt	SHIP	9	10	[0, 0, 0]	n/a	FR1	0	R1277J
577.708	0.9	588130	WORD_OFF	n/a	n/a	SHIP	9	10	[0, 0, 0]	n/a	FR1	0	R1277J
578.608	1.616	589030	WORD	n/a	wordpools/wordpool_EN.txt	ARM	10	10	[0, 0, 0]	n/a	FR1	0	R1277J
580.224	0.834	590646	WORD_OFF	n/a	n/a	ARM	10	10	[0, 0, 0]	n/a	FR1	0	R1277J
581.058	1.618	591480	WORD	n/a	wordpools/wordpool_EN.txt	SWORD	11	10	[0, 0, 0]	n/a	FR1	0	R1277J
582.676	0.95	593098	WORD_OFF	n/a	n/a	SWORD	11	10	[0, 0, 0]	n/a	FR1	0	R1277J
583.626	1.616	594048	WORD	n/a	wordpools/wordpool_EN.txt	DOCK	12	10	[0, 0, 0]	n/a	FR1	0	R1277J
585.242	0.0	595664	WORD_OFF	n/a	n/a	DOCK	12	10	[0, 0, 0]	n/a	FR1	0	R1277J
585.242	0.001	595664	DISTRACT_START	n/a	n/a	n/a	-999	10	[0, 0, 0]	n/a	FR1	0	R1277J
585.243	0.016	595665	START	n/a	n/a	n/a	-999	11	[-999, -999, -999]	n/a	FR1	0	R1277J
585.259	4.117	595681	PROB	4.117	n/a	n/a	-999	11	[2, 1, 5]	8	FR1	0	R1277J
589.376	2.8	599798	PROB	2.8	n/a	n/a	-999	11	[2, 9, 8]	19	FR1	0	R1277J
592.176	2.435	602598	PROB	2.435	n/a	n/a	-999	11	[6, 4, 3]	13	FR1	0	R1277J
594.611	2.282	605033	PROB	2.282	n/a	n/a	-999	11	[1, 1, 7]	9	FR1	0	R1277J
596.893	1.651	607315	PROB	1.651	n/a	n/a	-999	11	[7, 3, 2]	12	FR1	0	R1277J
598.544	3.55	608966	PROB	3.55	n/a	n/a	-999	11	[4, 3, 3]	10	FR1	0	R1277J
602.094	2.535	612516	PROB	2.535	n/a	n/a	-999	11	[3, 6, 2]	11	FR1	0	R1277J
604.629	5.636	615051	PROB	5.636	n/a	n/a	-999	11	[6, 7, 7]	20	FR1	0	R1277J
610.265	0.013	620687	STOP	n/a	n/a	n/a	-999	11	[-999, -999, -999]	n/a	FR1	0	R1277J
610.278	0.633	620700	DISTRACT_END	n/a	n/a	n/a	-999	10	[0, 0, 0]	n/a	FR1	0	R1277J
610.911	0.519	621333	RETRIEVAL_ORIENT	n/a	n/a	n/a	-999	10	[0, 0, 0]	n/a	FR1	0	R1277J
611.43	0.771	621852	REC_START	n/a	n/a	n/a	-999	10	[0, 0, 0]	n/a	FR1	0	R1277J
612.201	2.689	622623	REC_WORD	2.689	n/a	FOAM	-999	10	[0, 0, 0]	n/a	FR1	0	R1277J
614.89	2.165	625312	REC_WORD	2.165	n/a	BLUE	-999	10	[0, 0, 0]	n/a	FR1	0	R1277J
617.055	1.2	627477	REC_WORD	1.2	n/a	SKY	-999	10	[0, 0, 0]	n/a	FR1	0	R1277J
618.255	0.835	628677	REC_WORD_VV	0.835	n/a	<>	-999	10	[0, 0, 0]	n/a	FR1	0	R1277J
619.09	11.77	629512	REC_WORD	11.77	n/a	BOAT	-999	10	[0, 0, 0]	n/a	FR1	0	R1277J
630.86	10.581	641282	REC_WORD	10.581	n/a	DOCK	-999	10	[0, 0, 0]	n/a	FR1	0	R1277J
641.441	5.909	651863	REC_END	n/a	n/a	n/a	-999	10	[0, 0, 0]	n/a	FR1	0	R1277J
647.35	0.5	657772	TRIAL	n/a	n/a	n/a	-999	11	[0, 0, 0]	n/a	FR1	0	R1277J
647.85	10.428	658272	COUNTDOWN_START	n/a	n/a	n/a	-999	11	[0, 0, 0]	n/a	FR1	0	R1277J
658.278	0.007	668700	COUNTDOWN_END	n/a	n/a	n/a	-999	11	[0, 0, 0]	n/a	FR1	0	R1277J
658.285	1.616	668707	ORIENT	n/a	n/a	n/a	-999	11	[0, 0, 0]	n/a	FR1	0	R1277J
659.901	2.034	670323	ORIENT_OFF	n/a	n/a	n/a	-999	11	[0, 0, 0]	n/a	FR1	0	R1277J
661.935	1.618	672357	WORD	n/a	wordpools/wordpool_EN.txt	POLE	1	11	[0, 0, 0]	n/a	FR1	0	R1277J
663.553	0.983	673975	WORD_OFF	n/a	n/a	POLE	1	11	[0, 0, 0]	n/a	FR1	0	R1277J
664.536	1.616	674958	WORD	n/a	wordpools/wordpool_EN.txt	SHELL	2	11	[0, 0, 0]	n/a	FR1	0	R1277J
666.152	0.9	676574	WORD_OFF	n/a	n/a	SHELL	2	11	[0, 0, 0]	n/a	FR1	0	R1277J
667.052	1.618	677474	WORD	n/a	wordpools/wordpool_EN.txt	TREE	3	11	[0, 0, 0]	n/a	FR1	0	R1277J
668.67	0.817	679092	WORD_OFF	n/a	n/a	TREE	3	11	[0, 0, 0]	n/a	FR1	0	R1277J
669.487	1.616	679909	WORD	n/a	wordpools/wordpool_EN.txt	FISH	4	11	[0, 0, 0]	n/a	FR1	0	R1277J
671.103	0.916	681525	WORD_OFF	n/a	n/a	FISH	4	11	[0, 0, 0]	n/a	FR1	0	R1277J
672.019	1.618	682441	WORD	n/a	wordpools/wordpool_EN.txt	BEACH	5	11	[0, 0, 0]	n/a	FR1	0	R1277J
673.637	0.901	684059	WORD_OFF	n/a	n/a	BEACH	5	11	[0, 0, 0]	n/a	FR1	0	R1277J
674.538	1.615	684960	WORD	n/a	wordpools/wordpool_EN.txt	BLOOM	6	11	[0, 0, 0]	n/a	FR1	0	R1277J
676.153	0.9	686575	WORD_OFF	n/a	n/a	BLOOM	6	11	[0, 0, 0]	n/a	FR1	0	R1277J
677.053	1.618	687475	WORD	n/a	wordpools/wordpool_EN.txt	SNAIL	7	11	[0, 0, 0]	n/a	FR1	0	R1277J
678.671	0.934	689093	WORD_OFF	n/a	n/a	SNAIL	7	11	[0, 0, 0]	n/a	FR1	0	R1277J
679.605	1.616	690027	WORD	n/a	wordpools/wordpool_EN.txt	SALT	8	11	[0, 0, 0]	n/a	FR1	0	R1277J
681.221	0.916	691643	WORD_OFF	n/a	n/a	SALT	8	11	[0, 0, 0]	n/a	FR1	0	R1277J
682.137	1.618	692559	WORD	n/a	wordpools/wordpool_EN.txt	SHRIMP	9	11	[0, 0, 0]	n/a	FR1	0	R1277J
683.755	0.967	694177	WORD_OFF	n/a	n/a	SHRIMP	9	11	[0, 0, 0]	n/a	FR1	0	R1277J
684.722	1.617	695144	WORD	n/a	wordpools/wordpool_EN.txt	WAND	10	11	[0, 0, 0]	n/a	FR1	0	R1277J
686.339	0.849	696761	WORD_OFF	n/a	n/a	WAND	10	11	[0, 0, 0]	n/a	FR1	0	R1277J
687.188	1.601	697610	WORD	n/a	wordpools/wordpool_EN.txt	POND	11	11	[0, 0, 0]	n/a	FR1	0	R1277J
688.789	0.917	699211	WORD_OFF	n/a	n/a	POND	11	11	[0, 0, 0]	n/a	FR1	0	R1277J
689.706	1.617	700128	WORD	n/a	wordpools/wordpool_EN.txt	SNOW	12	11	[0, 0, 0]	n/a	FR1	0	R1277J
691.323	0.0	701745	WORD_OFF	n/a	n/a	SNOW	12	11	[0, 0, 0]	n/a	FR1	0	R1277J
691.323	0.001	701745	DISTRACT_START	n/a	n/a	n/a	-999	11	[0, 0, 0]	n/a	FR1	0	R1277J
691.324	0.016	701746	START	n/a	n/a	n/a	-999	12	[-999, -999, -999]	n/a	FR1	0	R1277J
691.34	2.766	701762	PROB	2.766	n/a	n/a	-999	12	[7, 1, 7]	15	FR1	0	R1277J
694.106	2.451	704528	PROB	2.451	n/a	n/a	-999	12	[9, 2, 4]	15	FR1	0	R1277J
696.557	2.549	706979	PROB	2.549	n/a	n/a	-999	12	[6, 3, 1]	10	FR1	0	R1277J
699.106	3.668	709528	PROB	3.668	n/a	n/a	-999	12	[5, 8, 8]	21	FR1	0	R1277J
702.774	3.3	713196	PROB	3.3	n/a	n/a	-999	12	[2, 2, 4]	8	FR1	0	R1277J
706.074	2.284	716496	PROB	2.284	n/a	n/a	-999	12	[1, 1, 8]	10	FR1	0	R1277J
708.358	1.716	718780	PROB	1.716	n/a	n/a	-999	12	[8, 2, 2]	12	FR1	0	R1277J
710.074	5.194	720496	PROB	5.194	n/a	n/a	-999	12	[8, 9, 9]	26	FR1	0	R1277J
715.268	0.007	725690	STOP	n/a	n/a	n/a	-999	12	[-999, -999, -999]	n/a	FR1	0	R1277J
715.275	0.584	725697	DISTRACT_END	n/a	n/a	n/a	-999	11	[0, 0, 0]	n/a	FR1	0	R1277J
715.859	0.518	726281	RETRIEVAL_ORIENT	n/a	n/a	n/a	-999	11	[0, 0, 0]	n/a	FR1	0	R1277J
716.377	1.84	726799	REC_START	n/a	n/a	n/a	-999	11	[0, 0, 0]	n/a	FR1	0	R1277J
718.217	1.44	728639	REC_WORD	1.44	n/a	SHELL	-999	11	[0, 0, 0]	n/a	FR1	0	R1277J
719.657	1.581	730079	REC_WORD	1.581	n/a	FISH	-999	11	[0, 0, 0]	n/a	FR1	0	R1277J
721.238	1.741	731660	REC_WORD	1.741	n/a	SHRIMP	-999	11	[0, 0, 0]	n/a	FR1	0	R1277J
722.979	2.866	733401	REC_WORD	2.866	n/a	POND	-999	11	[0, 0, 0]	n/a	FR1	0	R1277J
725.845	5.14	736267	REC_WORD	5.14	n/a	SALT	-999	11	[0, 0, 0]	n/a	FR1	0	R1277J
730.985	15.404	741407	REC_WORD	15.404	n/a	SHRIMP	-999	11	[0, 0, 0]	n/a	FR1	0	R1277J
746.389	5.291	756811	REC_END	n/a	n/a	n/a	-999	11	[0, 0, 0]	n/a	FR1	0	R1277J
751.68	0.5	762102	TRIAL	n/a	n/a	n/a	-999	12	[0, 0, 0]	n/a	FR1	0	R1277J
752.18	10.428	762602	COUNTDOWN_START	n/a	n/a	n/a	-999	12	[0, 0, 0]	n/a	FR1	0	R1277J
762.608	0.007	773030	COUNTDOWN_END	n/a	n/a	n/a	-999	12	[0, 0, 0]	n/a	FR1	0	R1277J
762.615	1.616	773037	ORIENT	n/a	n/a	n/a	-999	12	[0, 0, 0]	n/a	FR1	0	R1277J
764.231	1.884	774653	ORIENT_OFF	n/a	n/a	n/a	-999	12	[0, 0, 0]	n/a	FR1	0	R1277J
766.115	1.618	776537	WORD	n/a	wordpools/wordpool_EN.txt	GLASS	1	12	[0, 0, 0]	n/a	FR1	0	R1277J
767.733	0.816	778155	WORD_OFF	n/a	n/a	GLASS	1	12	[0, 0, 0]	n/a	FR1	0	R1277J
768.549	1.616	778971	WORD	n/a	wordpools/wordpool_EN.txt	VAN	2	12	[0, 0, 0]	n/a	FR1	0	R1277J
770.165	0.917	780587	WORD_OFF	n/a	n/a	VAN	2	12	[0, 0, 0]	n/a	FR1	0	R1277J
771.082	1.618	781504	WORD	n/a	wordpools/wordpool_EN.txt	STREET	3	12	[0, 0, 0]	n/a	FR1	0	R1277J
772.7	0.8	783122	WORD_OFF	n/a	n/a	STREET	3	12	[0, 0, 0]	n/a	FR1	0	R1277J
773.5	1.616	783922	WORD	n/a	wordpools/wordpool_EN.txt	SCHOOL	4	12	[0, 0, 0]	n/a	FR1	0	R1277J
775.116	0.834	785538	WORD_OFF	n/a	n/a	SCHOOL	4	12	[0, 0, 0]	n/a	FR1	0	R1277J
775.95	1.617	786372	WORD	n/a	wordpools/wordpool_EN.txt	WEED	5	12	[0, 0, 0]	n/a	FR1	0	R1277J
777.567	0.934	787989	WORD_OFF	n/a	n/a	WEED	5	12	[0, 0, 0]	n/a	FR1	0	R1277J
778.501	1.615	788923	WORD	n/a	wordpools/wordpool_EN.txt	FOG	6	12	[0, 0, 0]	n/a	FR1	0	R1277J
780.116	0.784	790538	WORD_OFF	n/a	n/a	FOG	6	12	[0, 0, 0]	n/a	FR1	0	R1277J
780.9	1.618	791322	WORD	n/a	wordpools/wordpool_EN.txt	DRUM	7	12	[0, 0, 0]	n/a	FR1	0	R1277J
782.518	0.883	792940	WORD_OFF	n/a	n/a	DRUM	7	12	[0, 0, 0]	n/a	FR1	0	R1277J
783.401	1.616	793823	WORD	n/a	wordpools/wordpool_EN.txt	CHIEF	8	12	[0, 0, 0]	n/a	FR1	0	R1277J
785.017	0.801	795439	WORD_OFF	n/a	n/a	CHIEF	8	12	[0, 0, 0]	n/a	FR1	0	R1277J
785.818	1.617	796240	WORD	n/a	wordpools/wordpool_EN.txt	FLEA	9	12	[0, 0, 0]	n/a	FR1	0	R1277J
787.435	1.0	797857	WORD_OFF	n/a	n/a	FLEA	9	12	[0, 0, 0]	n/a	FR1	0	R1277J
788.435	1.616	798857	WORD	n/a	wordpools/wordpool_EN.txt	CASH	10	12	[0, 0, 0]	n/a	FR1	0	R1277J
790.051	0.934	800473	WORD_OFF	n/a	n/a	CASH	10	12	[0, 0, 0]	n/a	FR1	0	R1277J
790.985	1.618	801407	WORD	n/a	wordpools/wordpool_EN.txt	BOY	11	12	[0, 0, 0]	n/a	FR1	0	R1277J
792.603	0.883	803025	WORD_OFF	n/a	n/a	BOY	11	12	[0, 0, 0]	n/a	FR1	0	R1277J
793.486	1.616	803908	WORD	n/a	wordpools/wordpool_EN.txt	COIN	12	12	[0, 0, 0]	n/a	FR1	0	R1277J
795.102	0.0	805524	WORD_OFF	n/a	n/a	COIN	12	12	[0, 0, 0]	n/a	FR1	0	R1277J
795.102	0.001	805524	DISTRACT_START	n/a	n/a	n/a	-999	12	[0, 0, 0]	n/a	FR1	0	R1277J
795.103	0.016	805525	START	n/a	n/a	n/a	-999	13	[-999, -999, -999]	n/a	FR1	0	R1277J
795.119	6.084	805541	PROB	6.084	n/a	n/a	-999	13	[2, 9, 3]	14	FR1	0	R1277J
801.203	3.767	811625	PROB	3.767	n/a	n/a	-999	13	[3, 9, 8]	19	FR1	0	R1277J
804.97	6.101	815392	PROB	6.101	n/a	n/a	-999	13	[3, 5, 3]	11	FR1	0	R1277J
811.071	3.534	821493	PROB	3.534	n/a	n/a	-999	13	[3, 3, 8]	14	FR1	0	R1277J
814.605	2.699	825027	PROB	2.699	n/a	n/a	-999	13	[2, 9, 3]	14	FR1	0	R1277J
817.304	0.018	827726	STOP	n/a	n/a	n/a	-999	13	[-999, -999, -999]	n/a	FR1	0	R1277J
817.322	0.566	827744	DISTRACT_END	n/a	n/a	n/a	-999	12	[0, 0, 0]	n/a	FR1	0	R1277J
817.888	0.518	828310	RETRIEVAL_ORIENT	n/a	n/a	n/a	-999	12	[0, 0, 0]	n/a	FR1	0	R1277J
818.406	1.8	828828	REC_START	n/a	n/a	n/a	-999	12	[0, 0, 0]	n/a	FR1	0	R1277J
820.206	1.261	830628	REC_WORD	1.261	n/a	VAN	-999	12	[0, 0, 0]	n/a	FR1	0	R1277J
821.467	0.4	831889	REC_WORD_VV	0.4	n/a	<>	-999	12	[0, 0, 0]	n/a	FR1	0	R1277J
821.867	2.92	832289	REC_WORD	2.92	n/a	STREET	-999	12	[0, 0, 0]	n/a	FR1	0	R1277J
824.787	2.356	835209	REC_WORD	2.356	n/a	SCHOOL	-999	12	[0, 0, 0]	n/a	FR1	0	R1277J
827.143	2.1	837565	REC_WORD	2.1	n/a	WEED	-999	12	[0, 0, 0]	n/a	FR1	0	R1277J
829.243	2.034	839665	REC_WORD	2.034	n/a	BOY	-999	12	[0, 0, 0]	n/a	FR1	0	R1277J
831.277	2.271	841700	REC_WORD	2.271	n/a	CASH	-999	12	[0, 0, 0]	n/a	FR1	0	R1277J
833.548	14.87	843971	REC_WORD	14.87	n/a	COIN	-999	12	[0, 0, 0]	n/a	FR1	0	R1277J
848.418	7.376	858841	REC_END	n/a	n/a	n/a	-999	12	[0, 0, 0]	n/a	FR1	0	R1277J
855.794	0.5	866217	TRIAL	n/a	n/a	n/a	-999	13	[0, 0, 0]	n/a	FR1	0	R1277J
856.294	10.428	866717	COUNTDOWN_START	n/a	n/a	n/a	-999	13	[0, 0, 0]	n/a	FR1	0	R1277J
866.722	0.006	877145	COUNTDOWN_END	n/a	n/a	n/a	-999	13	[0, 0, 0]	n/a	FR1	0	R1277J
866.728	1.617	877151	ORIENT	n/a	n/a	n/a	-999	13	[0, 0, 0]	n/a	FR1	0	R1277J
868.345	2.051	878768	ORIENT_OFF	n/a	n/a	n/a	-999	13	[0, 0, 0]	n/a	FR1	0	R1277J
870.396	1.616	880819	WORD	n/a	wordpools/wordpool_EN.txt	MOUTH	1	13	[0, 0, 0]	n/a	FR1	0	R1277J
872.012	0.883	882435	WORD_OFF	n/a	n/a	MOUTH	1	13	[0, 0, 0]	n/a	FR1	0	R1277J
872.895	1.618	883318	WORD	n/a	wordpools/wordpool_EN.txt	VASE	2	13	[0, 0, 0]	n/a	FR1	0	R1277J
874.513	0.766	884936	WORD_OFF	n/a	n/a	VASE	2	13	[0, 0, 0]	n/a	FR1	0	R1277J
875.279	1.616	885702	WORD	n/a	wordpools/wordpool_EN.txt	BROOM	3	13	[0, 0, 0]	n/a	FR1	0	R1277J
876.895	0.917	887318	WORD_OFF	n/a	n/a	BROOM	3	13	[0, 0, 0]	n/a	FR1	0	R1277J
877.812	1.601	888235	WORD	n/a	wordpools/wordpool_EN.txt	POOL	4	13	[0, 0, 0]	n/a	FR1	0	R1277J
879.413	0.85	889836	WORD_OFF	n/a	n/a	POOL	4	13	[0, 0, 0]	n/a	FR1	0	R1277J
880.263	1.617	890686	WORD	n/a	wordpools/wordpool_EN.txt	SOCK	5	13	[0, 0, 0]	n/a	FR1	0	R1277J
881.88	0.884	892303	WORD_OFF	n/a	n/a	SOCK	5	13	[0, 0, 0]	n/a	FR1	0	R1277J
882.764	1.617	893187	WORD	n/a	wordpools/wordpool_EN.txt	BOOT	6	13	[0, 0, 0]	n/a	FR1	0	R1277J
884.381	1.0	894804	WORD_OFF	n/a	n/a	BOOT	6	13	[0, 0, 0]	n/a	FR1	0	R1277J
885.381	1.616	895804	WORD	n/a	wordpools/wordpool_EN.txt	HILL	7	13	[0, 0, 0]	n/a	FR1	0	R1277J
886.997	0.867	897420	WORD_OFF	n/a	n/a	HILL	7	13	[0, 0, 0]	n/a	FR1	0	R1277J
887.864	1.617	898287	WORD	n/a	wordpools/wordpool_EN.txt	TOAST	8	13	[0, 0, 0]	n/a	FR1	0	R1277J
889.481	1.001	899904	WORD_OFF	n/a	n/a	TOAST	8	13	[0, 0, 0]	n/a	FR1	0	R1277J
890.482	1.616	900905	WORD	n/a	wordpools/wordpool_EN.txt	DOOR	9	13	[0, 0, 0]	n/a	FR1	0	R1277J
892.098	0.983	902521	WORD_OFF	n/a	n/a	DOOR	9	13	[0, 0, 0]	n/a	FR1	0	R1277J
893.081	1.618	903504	WORD	n/a	wordpools/wordpool_EN.txt	ROOF	10	13	[0, 0, 0]	n/a	FR1	0	R1277J
894.699	0.8	905122	WORD_OFF	n/a	n/a	ROOF	10	13	[0, 0, 0]	n/a	FR1	0	R1277J
895.499	1.616	905922	WORD	n/a	wordpools/wordpool_EN.txt	GATE	11	13	[0, 0, 0]	n/a	FR1	0	R1277J
897.115	0.866	907538	WORD_OFF	n/a	n/a	GATE	11	13	[0, 0, 0]	n/a	FR1	0	R1277J
897.981	1.618	908404	WORD	n/a	wordpools/wordpool_EN.txt	FLUTE	12	13	[0, 0, 0]	n/a	FR1	0	R1277J
899.599	0.0	910022	WORD_OFF	n/a	n/a	FLUTE	12	13	[0, 0, 0]	n/a	FR1	0	R1277J
899.599	0.001	910022	DISTRACT_START	n/a	n/a	n/a	-999	13	[0, 0, 0]	n/a	FR1	0	R1277J
899.6	0.016	910023	START	n/a	n/a	n/a	-999	14	[-999, -999, -999]	n/a	FR1	0	R1277J
899.616	3.3	910039	PROB	3.3	n/a	n/a	-999	14	[9, 2, 5]	16	FR1	0	R1277J
902.916	3.067	913339	PROB	3.067	n/a	n/a	-999	14	[8, 3, 9]	20	FR1	0	R1277J
905.983	2.517	916406	PROB	2.517	n/a	n/a	-999	14	[4, 5, 2]	11	FR1	0	R1277J
908.5	2.151	918923	PROB	2.151	n/a	n/a	-999	14	[1, 2, 3]	6	FR1	0	R1277J
910.651	1.883	921074	PROB	1.883	n/a	n/a	-999	14	[1, 1, 9]	11	FR1	0	R1277J
912.534	6.267	922957	PROB	6.267	n/a	n/a	-999	14	[6, 2, 9]	17	FR1	0	R1277J
918.801	2.787	929224	PROB	2.787	n/a	n/a	-999	14	[4, 4, 6]	14	FR1	0	R1277J
921.588	0.014	932011	STOP	n/a	n/a	n/a	-999	14	[-999, -999, -999]	n/a	FR1	0	R1277J
921.602	0.549	932025	DISTRACT_END	n/a	n/a	n/a	-999	13	[0, 0, 0]	n/a	FR1	0	R1277J
922.151	0.519	932574	RETRIEVAL_ORIENT	n/a	n/a	n/a	-999	13	[0, 0, 0]	n/a	FR1	0	R1277J
922.67	1.736	933093	REC_START	n/a	n/a	n/a	-999	13	[0, 0, 0]	n/a	FR1	0	R1277J
924.406	0.89	934829	REC_WORD	0.89	n/a	VASE	-999	13	[0, 0, 0]	n/a	FR1	0	R1277J
925.296	0.37	935719	REC_WORD_VV	0.37	n/a	<>	-999	13	[0, 0, 0]	n/a	FR1	0	R1277J
925.666	1.54	936089	REC_WORD	1.54	n/a	GLASS	-999	13	[0, 0, 0]	n/a	FR1	0	R1277J
927.206	4.06	937629	REC_WORD	4.06	n/a	POOL	-999	13	[0, 0, 0]	n/a	FR1	0	R1277J
931.266	0.696	941689	REC_WORD_VV	0.696	n/a	<>	-999	13	[0, 0, 0]	n/a	FR1	0	R1277J
931.962	0.995	942385	REC_WORD	0.995	n/a	BOOT	-999	13	[0, 0, 0]	n/a	FR1	0	R1277J
932.957	2.525	943380	REC_WORD	2.525	n/a	SOCK	-999	13	[0, 0, 0]	n/a	FR1	0	R1277J
935.482	1.345	945905	REC_WORD	1.345	n/a	ROOF	-999	13	[0, 0, 0]	n/a	FR1	0	R1277J
936.827	15.855	947250	REC_WORD	15.855	n/a	FENCE	-999	13	[0, 0, 0]	n/a	FR1	0	R1277J
952.682	4.39	963105	REC_END	n/a	n/a	n/a	-999	13	[0, 0, 0]	n/a	FR1	0	R1277J
957.072	0.5	967495	TRIAL	n/a	n/a	n/a	-999	14	[0, 0, 0]	n/a	FR1	0	R1277J
957.572	10.428	967995	COUNTDOWN_START	n/a	n/a	n/a	-999	14	[0, 0, 0]	n/a	FR1	0	R1277J
968.0	0.007	978423	COUNTDOWN_END	n/a	n/a	n/a	-999	14	[0, 0, 0]	n/a	FR1	0	R1277J
968.007	1.618	978430	ORIENT	n/a	n/a	n/a	-999	14	[0, 0, 0]	n/a	FR1	0	R1277J
969.625	2.0	980048	ORIENT_OFF	n/a	n/a	n/a	-999	14	[0, 0, 0]	n/a	FR1	0	R1277J
971.625	1.616	982048	WORD	n/a	wordpools/wordpool_EN.txt	GOLD	1	14	[0, 0, 0]	n/a	FR1	0	R1277J
973.241	0.9	983664	WORD_OFF	n/a	n/a	GOLD	1	14	[0, 0, 0]	n/a	FR1	0	R1277J
974.141	1.618	984564	WORD	n/a	wordpools/wordpool_EN.txt	APE	2	14	[0, 0, 0]	n/a	FR1	0	R1277J
975.759	0.9	986182	WORD_OFF	n/a	n/a	APE	2	14	[0, 0, 0]	n/a	FR1	0	R1277J
976.659	1.616	987082	WORD	n/a	wordpools/wordpool_EN.txt	BANK	3	14	[0, 0, 0]	n/a	FR1	0	R1277J
978.275	0.9	988698	WORD_OFF	n/a	n/a	BANK	3	14	[0, 0, 0]	n/a	FR1	0	R1277J
979.175	1.601	989598	WORD	n/a	wordpools/wordpool_EN.txt	BOMB	4	14	[0, 0, 0]	n/a	FR1	0	R1277J
980.776	0.834	991199	WORD_OFF	n/a	n/a	BOMB	4	14	[0, 0, 0]	n/a	FR1	0	R1277J
981.61	1.616	992033	WORD	n/a	wordpools/wordpool_EN.txt	WAVE	5	14	[0, 0, 0]	n/a	FR1	0	R1277J
983.226	0.817	993649	WORD_OFF	n/a	n/a	WAVE	5	14	[0, 0, 0]	n/a	FR1	0	R1277J
984.043	1.618	994466	WORD	n/a	wordpools/wordpool_EN.txt	MOON	6	14	[0, 0, 0]	n/a	FR1	0	R1277J
985.661	0.999	996084	WORD_OFF	n/a	n/a	MOON	6	14	[0, 0, 0]	n/a	FR1	0	R1277J
986.66	1.616	997083	WORD	n/a	wordpools/wordpool_EN.txt	FORT	7	14	[0, 0, 0]	n/a	FR1	0	R1277J
988.276	0.901	998699	WORD_OFF	n/a	n/a	FORT	7	14	[0, 0, 0]	n/a	FR1	0	R1277J
989.177	1.617	999600	WORD	n/a	wordpools/wordpool_EN.txt	TRAIN	8	14	[0, 0, 0]	n/a	FR1	0	R1277J
990.794	0.884	1001217	WORD_OFF	n/a	n/a	TRAIN	8	14	[0, 0, 0]	n/a	FR1	0	R1277J
991.678	1.617	1002101	WORD	n/a	wordpools/wordpool_EN.txt	TRASH	9	14	[0, 0, 0]	n/a	FR1	0	R1277J
993.295	0.982	1003718	WORD_OFF	n/a	n/a	TRASH	9	14	[0, 0, 0]	n/a	FR1	0	R1277J
994.277	1.617	1004700	WORD	n/a	wordpools/wordpool_EN.txt	MOUSE	10	14	[0, 0, 0]	n/a	FR1	0	R1277J
995.894	0.95	1006317	WORD_OFF	n/a	n/a	MOUSE	10	14	[0, 0, 0]	n/a	FR1	0	R1277J
996.844	1.618	1007267	WORD	n/a	wordpools/wordpool_EN.txt	SHEEP	11	14	[0, 0, 0]	n/a	FR1	0	R1277J
998.462	0.884	1008885	WORD_OFF	n/a	n/a	SHEEP	11	14	[0, 0, 0]	n/a	FR1	0	R1277J
999.346	1.615	1009769	WORD	n/a	wordpools/wordpool_EN.txt	BOOK	12	14	[0, 0, 0]	n/a	FR1	0	R1277J
1000.961	0.0	1011384	WORD_OFF	n/a	n/a	BOOK	12	14	[0, 0, 0]	n/a	FR1	0	R1277J
1000.961	0.001	1011384	DISTRACT_START	n/a	n/a	n/a	-999	14	[0, 0, 0]	n/a	FR1	0	R1277J
1000.962	0.016	1011385	START	n/a	n/a	n/a	-999	15	[-999, -999, -999]	n/a	FR1	0	R1277J
1000.978	5.768	1011401	PROB	5.768	n/a	n/a	-999	15	[9, 6, 3]	18	FR1	0	R1277J
1006.746	2.516	1017169	PROB	2.516	n/a	n/a	-999	15	[1, 1, 6]	8	FR1	0	R1277J
1009.262	4.884	1019685	PROB	4.884	n/a	n/a	-999	15	[7, 6, 1]	14	FR1	0	R1277J
1014.146	1.934	1024569	PROB	1.934	n/a	n/a	-999	15	[5, 5, 9]	19	FR1	0	R1277J
1016.08	3.518	1026503	PROB	3.518	n/a	n/a	-999	15	[5, 9, 2]	16	FR1	0	R1277J
1019.598	4.09	1030021	PROB	4.09	n/a	n/a	-999	15	[1, 4, 3]	8	FR1	0	R1277J
1023.688	0.011	1034111	STOP	n/a	n/a	n/a	-999	15	[-999, -999, -999]	n/a	FR1	0	R1277J
1023.699	0.617	1034122	DISTRACT_END	n/a	n/a	n/a	-999	14	[0, 0, 0]	n/a	FR1	0	R1277J
1024.316	0.516	1034739	RETRIEVAL_ORIENT	n/a	n/a	n/a	-999	14	[0, 0, 0]	n/a	FR1	0	R1277J
1024.832	1.77	1035255	REC_START	n/a	n/a	n/a	-999	14	[0, 0, 0]	n/a	FR1	0	R1277J
1026.602	0.94	1037025	REC_WORD	0.94	n/a	GOLD	-999	14	[0, 0, 0]	n/a	FR1	0	R1277J
1027.542	3.015	1037965	REC_WORD_VV	3.015	n/a	<>	-999	14	[0, 0, 0]	n/a	FR1	0	R1277J
1030.557	17.915	1040980	REC_WORD	17.915	n/a	BANK	-999	14	[0, 0, 0]	n/a	FR1	0	R1277J
1048.472	6.371	1058895	REC_WORD	6.371	n/a	FORT	-999	14	[0, 0, 0]	n/a	FR1	0	R1277J
1054.843	5.744	1065266	REC_END	n/a	n/a	n/a	-999	14	[0, 0, 0]	n/a	FR1	0	R1277J
1060.587	0.5	1071010	TRIAL	n/a	n/a	n/a	-999	15	[0, 0, 0]	n/a	FR1	0	R1277J
1061.087	10.428	1071510	COUNTDOWN_START	n/a	n/a	n/a	-999	15	[0, 0, 0]	n/a	FR1	0	R1277J
1071.515	0.006	1081938	COUNTDOWN_END	n/a	n/a	n/a	-999	15	[0, 0, 0]	n/a	FR1	0	R1277J
1071.521	1.616	1081944	ORIENT	n/a	n/a	n/a	-999	15	[0, 0, 0]	n/a	FR1	0	R1277J
1073.137	2.285	1083560	ORIENT_OFF	n/a	n/a	n/a	-999	15	[0, 0, 0]	n/a	FR1	0	R1277J
1075.422	1.616	1085845	WORD	n/a	wordpools/wordpool_EN.txt	PASTE	1	15	[0, 0, 0]	n/a	FR1	0	R1277J
1077.038	0.783	1087461	WORD_OFF	n/a	n/a	PASTE	1	15	[0, 0, 0]	n/a	FR1	0	R1277J
1077.821	1.618	1088244	WORD	n/a	wordpools/wordpool_EN.txt	SPONGE	2	15	[0, 0, 0]	n/a	FR1	0	R1277J
1079.439	0.917	1089862	WORD_OFF	n/a	n/a	SPONGE	2	15	[0, 0, 0]	n/a	FR1	0	R1277J
1080.356	1.616	1090779	WORD	n/a	wordpools/wordpool_EN.txt	FROG	3	15	[0, 0, 0]	n/a	FR1	0	R1277J
1081.972	0.883	1092395	WORD_OFF	n/a	n/a	FROG	3	15	[0, 0, 0]	n/a	FR1	0	R1277J
1082.855	1.601	1093278	WORD	n/a	wordpools/wordpool_EN.txt	CORD	4	15	[0, 0, 0]	n/a	FR1	0	R1277J
1084.456	0.834	1094879	WORD_OFF	n/a	n/a	CORD	4	15	[0, 0, 0]	n/a	FR1	0	R1277J
1085.29	1.616	1095713	WORD	n/a	wordpools/wordpool_EN.txt	STORE	5	15	[0, 0, 0]	n/a	FR1	0	R1277J
1086.906	0.966	1097329	WORD_OFF	n/a	n/a	STORE	5	15	[0, 0, 0]	n/a	FR1	0	R1277J
1087.872	1.601	1098295	WORD	n/a	wordpools/wordpool_EN.txt	EGG	6	15	[0, 0, 0]	n/a	FR1	0	R1277J
1089.473	0.8	1099896	WORD_OFF	n/a	n/a	EGG	6	15	[0, 0, 0]	n/a	FR1	0	R1277J
1090.273	1.617	1100696	WORD	n/a	wordpools/wordpool_EN.txt	JUICE	7	15	[0, 0, 0]	n/a	FR1	0	R1277J
1091.89	0.967	1102313	WORD_OFF	n/a	n/a	JUICE	7	15	[0, 0, 0]	n/a	FR1	0	R1277J
1092.857	1.618	1103280	WORD	n/a	wordpools/wordpool_EN.txt	BOARD	8	15	[0, 0, 0]	n/a	FR1	0	R1277J
1094.475	0.983	1104898	WORD_OFF	n/a	n/a	BOARD	8	15	[0, 0, 0]	n/a	FR1	0	R1277J
1095.458	1.616	1105881	WORD	n/a	wordpools/wordpool_EN.txt	FILM	9	15	[0, 0, 0]	n/a	FR1	0	R1277J
1097.074	0.816	1107497	WORD_OFF	n/a	n/a	FILM	9	15	[0, 0, 0]	n/a	FR1	0	R1277J
1097.89	1.618	1108313	WORD	n/a	wordpools/wordpool_EN.txt	SHEET	10	15	[0, 0, 0]	n/a	FR1	0	R1277J
1099.508	0.784	1109931	WORD_OFF	n/a	n/a	SHEET	10	15	[0, 0, 0]	n/a	FR1	0	R1277J
1100.292	1.616	1110715	WORD	n/a	wordpools/wordpool_EN.txt	INK	11	15	[0, 0, 0]	n/a	FR1	0	R1277J
1101.908	1.0	1112331	WORD_OFF	n/a	n/a	INK	11	15	[0, 0, 0]	n/a	FR1	0	R1277J
1102.908	1.618	1113331	WORD	n/a	wordpools/wordpool_EN.txt	MAIL	12	15	[0, 0, 0]	n/a	FR1	0	R1277J
1104.526	0.0	1114949	WORD_OFF	n/a	n/a	MAIL	12	15	[0, 0, 0]	n/a	FR1	0	R1277J
1104.526	0.001	1114949	DISTRACT_START	n/a	n/a	n/a	-999	15	[0, 0, 0]	n/a	FR1	0	R1277J
1104.527	0.015	1114950	START	n/a	n/a	n/a	-999	16	[-999, -999, -999]	n/a	FR1	0	R1277J
1104.542	2.533	1114965	PROB	2.533	n/a	n/a	-999	16	[2, 4, 1]	7	FR1	0	R1277J
1107.075	2.0	1117498	PROB	2.0	n/a	n/a	-999	16	[5, 9, 1]	15	FR1	0	R1277J
1109.075	3.901	1119498	PROB	3.901	n/a	n/a	-999	16	[7, 7, 3]	17	FR1	0	R1277J
1112.976	2.501	1123399	PROB	2.501	n/a	n/a	-999	16	[9, 2, 5]	16	FR1	0	R1277J
1115.477	1.649	1125900	PROB	1.649	n/a	n/a	-999	16	[2, 7, 3]	12	FR1	0	R1277J
1117.126	5.684	1127549	PROB	5.684	n/a	n/a	-999	16	[9, 2, 6]	17	FR1	0	R1277J
1122.81	4.874	1133233	PROB	4.874	n/a	n/a	-999	16	[8, 5, 4]	17	FR1	0	R1277J
1127.684	0.011	1138107	STOP	n/a	n/a	n/a	-999	16	[-999, -999, -999]	n/a	FR1	0	R1277J
1127.695	0.533	1138118	DISTRACT_END	n/a	n/a	n/a	-999	15	[0, 0, 0]	n/a	FR1	0	R1277J
1128.228	0.518	1138651	RETRIEVAL_ORIENT	n/a	n/a	n/a	-999	15	[0, 0, 0]	n/a	FR1	0	R1277J
1128.746	2.405	1139169	REC_START	n/a	n/a	n/a	-999	15	[0, 0, 0]	n/a	FR1	0	R1277J
1131.151	1.11	1141574	REC_WORD	1.11	n/a	PASTE	-999	15	[0, 0, 0]	n/a	FR1	0	R1277J
1132.261	2.185	1142684	REC_WORD	2.185	n/a	INK	-999	15	[0, 0, 0]	n/a	FR1	0	R1277J
1134.446	3.775	1144869	REC_WORD	3.775	n/a	FILM	-999	15	[0, 0, 0]	n/a	FR1	0	R1277J
1138.221	1.871	1148644	REC_WORD_VV	1.871	n/a	<>	-999	15	[0, 0, 0]	n/a	FR1	0	R1277J
1140.092	10.935	1150515	REC_WORD	10.935	n/a	STORE	-999	15	[0, 0, 0]	n/a	FR1	0	R1277J
1151.027	7.731	1161450	REC_WORD	7.731	n/a	FOOD	-999	15	[0, 0, 0]	n/a	FR1	0	R1277J
1158.758	4.692	1169181	REC_END	n/a	n/a	n/a	-999	15	[0, 0, 0]	n/a	FR1	0	R1277J
1163.45	0.5	1173873	TRIAL	n/a	n/a	n/a	-999	16	[0, 0, 0]	n/a	FR1	0	R1277J
1163.95	10.428	1174373	COUNTDOWN_START	n/a	n/a	n/a	-999	16	[0, 0, 0]	n/a	FR1	0	R1277J
1174.378	0.007	1184801	COUNTDOWN_END	n/a	n/a	n/a	-999	16	[0, 0, 0]	n/a	FR1	0	R1277J
1174.385	1.616	1184808	ORIENT	n/a	n/a	n/a	-999	16	[0, 0, 0]	n/a	FR1	0	R1277J
1176.001	2.284	1186424	ORIENT_OFF	n/a	n/a	n/a	-999	16	[0, 0, 0]	n/a	FR1	0	R1277J
1178.285	1.616	1188708	WORD	n/a	wordpools/wordpool_EN.txt	LOCK	1	16	[0, 0, 0]	n/a	FR1	0	R1277J
1179.901	0.917	1190324	WORD_OFF	n/a	n/a	LOCK	1	16	[0, 0, 0]	n/a	FR1	0	R1277J
1180.818	1.618	1191241	WORD	n/a	wordpools/wordpool_EN.txt	PEAR	2	16	[0, 0, 0]	n/a	FR1	0	R1277J
1182.436	0.916	1192859	WORD_OFF	n/a	n/a	PEAR	2	16	[0, 0, 0]	n/a	FR1	0	R1277J
1183.352	1.616	1193775	WORD	n/a	wordpools/wordpool_EN.txt	TOE	3	16	[0, 0, 0]	n/a	FR1	0	R1277J
1184.968	0.917	1195391	WORD_OFF	n/a	n/a	TOE	3	16	[0, 0, 0]	n/a	FR1	0	R1277J
1185.885	1.618	1196308	WORD	n/a	wordpools/wordpool_EN.txt	KEY	4	16	[0, 0, 0]	n/a	FR1	0	R1277J
1187.503	0.9	1197926	WORD_OFF	n/a	n/a	KEY	4	16	[0, 0, 0]	n/a	FR1	0	R1277J
1188.403	1.616	1198826	WORD	n/a	wordpools/wordpool_EN.txt	BRANCH	5	16	[0, 0, 0]	n/a	FR1	0	R1277J
1190.019	0.9	1200442	WORD_OFF	n/a	n/a	BRANCH	5	16	[0, 0, 0]	n/a	FR1	0	R1277J
1190.919	1.618	1201342	WORD	n/a	wordpools/wordpool_EN.txt	WHALE	6	16	[0, 0, 0]	n/a	FR1	0	R1277J
1192.537	0.783	1202960	WORD_OFF	n/a	n/a	WHALE	6	16	[0, 0, 0]	n/a	FR1	0	R1277J
1193.32	1.616	1203743	WORD	n/a	wordpools/wordpool_EN.txt	JUDGE	7	16	[0, 0, 0]	n/a	FR1	0	R1277J
1194.936	0.917	1205359	WORD_OFF	n/a	n/a	JUDGE	7	16	[0, 0, 0]	n/a	FR1	0	R1277J
1195.853	1.618	1206276	WORD	n/a	wordpools/wordpool_EN.txt	HORN	8	16	[0, 0, 0]	n/a	FR1	0	R1277J
1197.471	0.833	1207894	WORD_OFF	n/a	n/a	HORN	8	16	[0, 0, 0]	n/a	FR1	0	R1277J
1198.304	1.616	1208727	WORD	n/a	wordpools/wordpool_EN.txt	LIP	9	16	[0, 0, 0]	n/a	FR1	0	R1277J
1199.92	0.868	1210343	WORD_OFF	n/a	n/a	LIP	9	16	[0, 0, 0]	n/a	FR1	0	R1277J
1200.788	1.617	1211211	WORD	n/a	wordpools/wordpool_EN.txt	LAWN	10	16	[0, 0, 0]	n/a	FR1	0	R1277J
1202.405	1.0	1212828	WORD_OFF	n/a	n/a	LAWN	10	16	[0, 0, 0]	n/a	FR1	0	R1277J
1203.405	1.616	1213828	WORD	n/a	wordpools/wordpool_EN.txt	AXE	11	16	[0, 0, 0]	n/a	FR1	0	R1277J
1205.021	0.768	1215444	WORD_OFF	n/a	n/a	AXE	11	16	[0, 0, 0]	n/a	FR1	0	R1277J
1205.789	1.616	1216212	WORD	n/a	wordpools/wordpool_EN.txt	PARK	12	16	[0, 0, 0]	n/a	FR1	0	R1277J
1207.405	0.0	1217828	WORD_OFF	n/a	n/a	PARK	12	16	[0, 0, 0]	n/a	FR1	0	R1277J
1207.405	0.001	1217828	DISTRACT_START	n/a	n/a	n/a	-999	16	[0, 0, 0]	n/a	FR1	0	R1277J
1207.406	0.016	1217829	START	n/a	n/a	n/a	-999	17	[-999, -999, -999]	n/a	FR1	0	R1277J
1207.422	5.717	1217845	PROB	5.717	n/a	n/a	-999	17	[5, 8, 9]	22	FR1	0	R1277J
1213.139	5.133	1223562	PROB	5.133	n/a	n/a	-999	17	[9, 3, 8]	20	FR1	0	R1277J
1218.272	2.335	1228695	PROB	2.335	n/a	n/a	-999	17	[2, 7, 2]	11	FR1	0	R1277J
1220.607	1.666	1231030	PROB	1.666	n/a	n/a	-999	17	[1, 3, 1]	5	FR1	0	R1277J
1222.273	2.751	1232696	PROB	2.751	n/a	n/a	-999	17	[2, 8, 6]	16	FR1	0	R1277J
1225.024	2.791	1235447	PROB	2.791	n/a	n/a	-999	17	[6, 5, 6]	17	FR1	0	R1277J
1227.815	0.009	1238238	STOP	n/a	n/a	n/a	-999	17	[-999, -999, -999]	n/a	FR1	0	R1277J
1227.824	0.684	1238247	DISTRACT_END	n/a	n/a	n/a	-999	16	[0, 0, 0]	n/a	FR1	0	R1277J
1228.508	0.517	1238931	RETRIEVAL_ORIENT	n/a	n/a	n/a	-999	16	[0, 0, 0]	n/a	FR1	0	R1277J
1229.025	1.14	1239448	REC_START	n/a	n/a	n/a	-999	16	[0, 0, 0]	n/a	FR1	0	R1277J
1230.165	1.86	1240588	REC_WORD	1.86	n/a	TOE	-999	16	[0, 0, 0]	n/a	FR1	0	R1277J
1232.025	2.91	1242448	REC_WORD	2.91	n/a	AXE	-999	16	[0, 0, 0]	n/a	FR1	0	R1277J
1234.935	1.77	1245358	REC_WORD_VV	1.77	n/a	<>	-999	16	[0, 0, 0]	n/a	FR1	0	R1277J
1236.705	22.331	1247128	REC_WORD	22.331	n/a	FROG	-999	16	[0, 0, 0]	n/a	FR1	0	R1277J
1259.036	7.46	1269459	REC_END	n/a	n/a	n/a	-999	16	[0, 0, 0]	n/a	FR1	0	R1277J
1266.496	0.5	1276919	TRIAL	n/a	n/a	n/a	-999	17	[0, 0, 0]	n/a	FR1	0	R1277J
1266.996	10.428	1277419	COUNTDOWN_START	n/a	n/a	n/a	-999	17	[0, 0, 0]	n/a	FR1	0	R1277J
1277.424	0.007	1287847	COUNTDOWN_END	n/a	n/a	n/a	-999	17	[0, 0, 0]	n/a	FR1	0	R1277J
1277.431	1.616	1287854	ORIENT	n/a	n/a	n/a	-999	17	[0, 0, 0]	n/a	FR1	0	R1277J
1279.047	1.984	1289470	ORIENT_OFF	n/a	n/a	n/a	-999	17	[0, 0, 0]	n/a	FR1	0	R1277J
1281.031	1.617	1291454	WORD	n/a	wordpools/wordpool_EN.txt	CHALK	1	17	[0, 0, 0]	n/a	FR1	0	R1277J
1282.648	0.884	1293071	WORD_OFF	n/a	n/a	CHALK	1	17	[0, 0, 0]	n/a	FR1	0	R1277J
1283.532	1.616	1293955	WORD	n/a	wordpools/wordpool_EN.txt	RIB	2	17	[0, 0, 0]	n/a	FR1	0	R1277J
1285.148	0.8	1295571	WORD_OFF	n/a	n/a	RIB	2	17	[0, 0, 0]	n/a	FR1	0	R1277J
1285.948	1.618	1296371	WORD	n/a	wordpools/wordpool_EN.txt	CRANE	3	17	[0, 0, 0]	n/a	FR1	0	R1277J
1287.566	0.966	1297989	WORD_OFF	n/a	n/a	CRANE	3	17	[0, 0, 0]	n/a	FR1	0	R1277J
1288.532	1.616	1298955	WORD	n/a	wordpools/wordpool_EN.txt	YARD	4	17	[0, 0, 0]	n/a	FR1	0	R1277J
1290.148	0.917	1300571	WORD_OFF	n/a	n/a	YARD	4	17	[0, 0, 0]	n/a	FR1	0	R1277J
1291.065	1.618	1301488	WORD	n/a	wordpools/wordpool_EN.txt	THREAD	5	17	[0, 0, 0]	n/a	FR1	0	R1277J
1292.683	1.017	1303107	WORD_OFF	n/a	n/a	THREAD	5	17	[0, 0, 0]	n/a	FR1	0	R1277J
1293.7	1.617	1304124	WORD	n/a	wordpools/wordpool_EN.txt	HOLE	6	17	[0, 0, 0]	n/a	FR1	0	R1277J
1295.317	0.782	1305741	WORD_OFF	n/a	n/a	HOLE	6	17	[0, 0, 0]	n/a	FR1	0	R1277J
1296.099	1.618	1306523	WORD	n/a	wordpools/wordpool_EN.txt	FUR	7	17	[0, 0, 0]	n/a	FR1	0	R1277J
1297.717	0.917	1308141	WORD_OFF	n/a	n/a	FUR	7	17	[0, 0, 0]	n/a	FR1	0	R1277J
1298.634	1.616	1309058	WORD	n/a	wordpools/wordpool_EN.txt	WORM	8	17	[0, 0, 0]	n/a	FR1	0	R1277J
1300.25	0.983	1310674	WORD_OFF	n/a	n/a	WORM	8	17	[0, 0, 0]	n/a	FR1	0	R1277J
1301.233	1.617	1311657	WORD	n/a	wordpools/wordpool_EN.txt	TOOL	9	17	[0, 0, 0]	n/a	FR1	0	R1277J
1302.85	0.835	1313274	WORD_OFF	n/a	n/a	TOOL	9	17	[0, 0, 0]	n/a	FR1	0	R1277J
1303.685	1.616	1314109	WORD	n/a	wordpools/wordpool_EN.txt	SQUARE	10	17	[0, 0, 0]	n/a	FR1	0	R1277J
1305.301	0.849	1315725	WORD_OFF	n/a	n/a	SQUARE	10	17	[0, 0, 0]	n/a	FR1	0	R1277J
1306.15	1.601	1316574	WORD	n/a	wordpools/wordpool_EN.txt	BAND	11	17	[0, 0, 0]	n/a	FR1	0	R1277J
1307.751	0.884	1318175	WORD_OFF	n/a	n/a	BAND	11	17	[0, 0, 0]	n/a	FR1	0	R1277J
1308.635	1.616	1319059	WORD	n/a	wordpools/wordpool_EN.txt	SEAL	12	17	[0, 0, 0]	n/a	FR1	0	R1277J
1310.251	0.0	1320675	WORD_OFF	n/a	n/a	SEAL	12	17	[0, 0, 0]	n/a	FR1	0	R1277J
1310.251	0.001	1320675	DISTRACT_START	n/a	n/a	n/a	-999	17	[0, 0, 0]	n/a	FR1	0	R1277J
1310.252	0.016	1320676	START	n/a	n/a	n/a	-999	18	[-999, -999, -999]	n/a	FR1	0	R1277J
1310.268	7.135	1320692	PROB	7.135	n/a	n/a	-999	18	[8, 9, 9]	26	FR1	0	R1277J
1317.403	5.35	1327827	PROB	5.35	n/a	n/a	-999	18	[7, 8, 1]	16	FR1	0	R1277J
1322.753	4.167	1333177	PROB	4.167	n/a	n/a	-999	18	[9, 5, 7]	21	FR1	0	R1277J
1326.92	1.751	1337344	PROB	1.751	n/a	n/a	-999	18	[1, 3, 7]	11	FR1	0	R1277J
1328.671	4.709	1339095	PROB	4.709	n/a	n/a	-999	18	[8, 9, 8]	25	FR1	0	R1277J
1333.38	0.008	1343804	STOP	n/a	n/a	n/a	-999	18	[-999, -999, -999]	n/a	FR1	0	R1277J
1333.388	0.583	1343812	DISTRACT_END	n/a	n/a	n/a	-999	17	[0, 0, 0]	n/a	FR1	0	R1277J
1333.971	0.501	1344395	RETRIEVAL_ORIENT	n/a	n/a	n/a	-999	17	[0, 0, 0]	n/a	FR1	0	R1277J
1334.472	1.14	1344896	REC_START	n/a	n/a	n/a	-999	17	[0, 0, 0]	n/a	FR1	0	R1277J
1335.612	1.89	1346036	REC_WORD	1.89	n/a	CHALK	-999	17	[0, 0, 0]	n/a	FR1	0	R1277J
1337.502	2.13	1347926	REC_WORD	2.13	n/a	SQUARE	-999	17	[0, 0, 0]	n/a	FR1	0	R1277J
1339.632	2.005	1350056	REC_WORD	2.005	n/a	TOOL	-999	17	[0, 0, 0]	n/a	FR1	0	R1277J
1341.637	1.685	1352061	REC_WORD	1.685	n/a	THREAD	-999	17	[0, 0, 0]	n/a	FR1	0	R1277J
1343.322	3.77	1353746	REC_WORD_VV	3.77	n/a	<>	-999	17	[0, 0, 0]	n/a	FR1	0	R1277J
1347.092	15.515	1357516	REC_WORD	15.515	n/a	CRANE	-999	17	[0, 0, 0]	n/a	FR1	0	R1277J
1362.607	1.876	1373031	REC_WORD_VV	1.876	n/a	<>	-999	17	[0, 0, 0]	n/a	FR1	0	R1277J
1364.483	4.542	1374907	REC_END	n/a	n/a	n/a	-999	17	[0, 0, 0]	n/a	FR1	0	R1277J
1369.025	0.5	1379449	TRIAL	n/a	n/a	n/a	-999	18	[0, 0, 0]	n/a	FR1	0	R1277J
1369.525	10.428	1379949	COUNTDOWN_START	n/a	n/a	n/a	-999	18	[0, 0, 0]	n/a	FR1	0	R1277J
1379.953	0.007	1390377	COUNTDOWN_END	n/a	n/a	n/a	-999	18	[0, 0, 0]	n/a	FR1	0	R1277J
1379.96	1.618	1390384	ORIENT	n/a	n/a	n/a	-999	18	[0, 0, 0]	n/a	FR1	0	R1277J
1381.578	2.232	1392002	ORIENT_OFF	n/a	n/a	n/a	-999	18	[0, 0, 0]	n/a	FR1	0	R1277J
1383.81	1.618	1394234	WORD	n/a	wordpools/wordpool_EN.txt	STONE	1	18	[0, 0, 0]	n/a	FR1	0	R1277J
1385.428	0.867	1395852	WORD_OFF	n/a	n/a	STONE	1	18	[0, 0, 0]	n/a	FR1	0	R1277J
1386.295	1.616	1396719	WORD	n/a	wordpools/wordpool_EN.txt	CORN	2	18	[0, 0, 0]	n/a	FR1	0	R1277J
1387.911	1.0	1398335	WORD_OFF	n/a	n/a	CORN	2	18	[0, 0, 0]	n/a	FR1	0	R1277J
1388.911	1.618	1399335	WORD	n/a	wordpools/wordpool_EN.txt	SHARK	3	18	[0, 0, 0]	n/a	FR1	0	R1277J
1390.529	0.933	1400953	WORD_OFF	n/a	n/a	SHARK	3	18	[0, 0, 0]	n/a	FR1	0	R1277J
1391.462	1.616	1401886	WORD	n/a	wordpools/wordpool_EN.txt	SUN	4	18	[0, 0, 0]	n/a	FR1	0	R1277J
1393.078	0.884	1403502	WORD_OFF	n/a	n/a	SUN	4	18	[0, 0, 0]	n/a	FR1	0	R1277J
1393.962	1.618	1404386	WORD	n/a	wordpools/wordpool_EN.txt	STRING	5	18	[0, 0, 0]	n/a	FR1	0	R1277J
1395.58	0.933	1406004	WORD_OFF	n/a	n/a	STRING	5	18	[0, 0, 0]	n/a	FR1	0	R1277J
1396.513	1.616	1406937	WORD	n/a	wordpools/wordpool_EN.txt	CUP	6	18	[0, 0, 0]	n/a	FR1	0	R1277J
1398.129	0.9	1408553	WORD_OFF	n/a	n/a	CUP	6	18	[0, 0, 0]	n/a	FR1	0	R1277J
1399.029	1.618	1409453	WORD	n/a	wordpools/wordpool_EN.txt	FENCE	7	18	[0, 0, 0]	n/a	FR1	0	R1277J
1400.647	0.767	1411071	WORD_OFF	n/a	n/a	FENCE	7	18	[0, 0, 0]	n/a	FR1	0	R1277J
1401.414	1.615	1411838	WORD	n/a	wordpools/wordpool_EN.txt	SOUP	8	18	[0, 0, 0]	n/a	FR1	0	R1277J
1403.029	0.784	1413453	WORD_OFF	n/a	n/a	SOUP	8	18	[0, 0, 0]	n/a	FR1	0	R1277J
1403.813	1.601	1414237	WORD	n/a	wordpools/wordpool_EN.txt	BALL	9	18	[0, 0, 0]	n/a	FR1	0	R1277J
1405.414	0.983	1415838	WORD_OFF	n/a	n/a	BALL	9	18	[0, 0, 0]	n/a	FR1	0	R1277J
1406.397	1.616	1416821	WORD	n/a	wordpools/wordpool_EN.txt	STEAK	10	18	[0, 0, 0]	n/a	FR1	0	R1277J
1408.013	0.85	1418437	WORD_OFF	n/a	n/a	STEAK	10	18	[0, 0, 0]	n/a	FR1	0	R1277J
1408.863	1.602	1419287	WORD	n/a	wordpools/wordpool_EN.txt	FLAME	11	18	[0, 0, 0]	n/a	FR1	0	R1277J
1410.465	0.916	1420889	WORD_OFF	n/a	n/a	FLAME	11	18	[0, 0, 0]	n/a	FR1	0	R1277J
1411.381	1.616	1421805	WORD	n/a	wordpools/wordpool_EN.txt	FORK	12	18	[0, 0, 0]	n/a	FR1	0	R1277J
1412.997	0.0	1423421	WORD_OFF	n/a	n/a	FORK	12	18	[0, 0, 0]	n/a	FR1	0	R1277J
1412.997	0.001	1423421	DISTRACT_START	n/a	n/a	n/a	-999	18	[0, 0, 0]	n/a	FR1	0	R1277J
1412.998	0.016	1423422	START	n/a	n/a	n/a	-999	19	[-999, -999, -999]	n/a	FR1	0	R1277J
1413.014	5.768	1423438	PROB	5.768	n/a	n/a	-999	19	[8, 3, 1]	12	FR1	0	R1277J
1418.782	2.466	1429206	PROB	2.466	n/a	n/a	-999	19	[1, 6, 3]	10	FR1	0	R1277J
1421.248	2.701	1431672	PROB	2.701	n/a	n/a	-999	19	[4, 3, 3]	10	FR1	0	R1277J
1423.949	1.601	1434373	PROB	1.601	n/a	n/a	-999	19	[2, 3, 7]	12	FR1	0	R1277J
1425.55	3.2	1435974	PROB	3.2	n/a	n/a	-999	19	[3, 3, 4]	10	FR1	0	R1277J
1428.75	4.296	1439174	PROB	4.296	n/a	n/a	-999	19	[5, 1, 7]	13	FR1	0	R1277J
1433.046	0.021	1443470	STOP	n/a	n/a	n/a	-999	19	[-999, -999, -999]	n/a	FR1	0	R1277J
1433.067	0.651	1443491	DISTRACT_END	n/a	n/a	n/a	-999	18	[0, 0, 0]	n/a	FR1	0	R1277J
1433.718	0.516	1444142	RETRIEVAL_ORIENT	n/a	n/a	n/a	-999	18	[0, 0, 0]	n/a	FR1	0	R1277J
1434.234	1.325	1444658	REC_START	n/a	n/a	n/a	-999	18	[0, 0, 0]	n/a	FR1	0	R1277J
1435.559	2.649	1445983	REC_WORD	2.649	n/a	CORN	-999	18	[0, 0, 0]	n/a	FR1	0	R1277J
1438.208	1.795	1448632	REC_WORD	1.795	n/a	STEAK	-999	18	[0, 0, 0]	n/a	FR1	0	R1277J
1440.003	2.055	1450427	REC_WORD	2.055	n/a	FLAME	-999	18	[0, 0, 0]	n/a	FR1	0	R1277J
1442.058	2.335	1452482	REC_WORD	2.335	n/a	BALL	-999	18	[0, 0, 0]	n/a	FR1	0	R1277J
1444.393	3.851	1454817	REC_WORD	3.851	n/a	FORK	-999	18	[0, 0, 0]	n/a	FR1	0	R1277J
1448.244	16.002	1458668	REC_WORD	16.002	n/a	STRING	-999	18	[0, 0, 0]	n/a	FR1	0	R1277J
1464.246	4.426	1474670	REC_END	n/a	n/a	n/a	-999	18	[0, 0, 0]	n/a	FR1	0	R1277J
1468.672	0.5	1479096	TRIAL	n/a	n/a	n/a	-999	19	[0, 0, 0]	n/a	FR1	0	R1277J
1469.172	10.428	1479596	COUNTDOWN_START	n/a	n/a	n/a	-999	19	[0, 0, 0]	n/a	FR1	0	R1277J
1479.6	0.007	1490024	COUNTDOWN_END	n/a	n/a	n/a	-999	19	[0, 0, 0]	n/a	FR1	0	R1277J
1479.607	1.616	1490031	ORIENT	n/a	n/a	n/a	-999	19	[0, 0, 0]	n/a	FR1	0	R1277J
1481.223	2.184	1491647	ORIENT_OFF	n/a	n/a	n/a	-999	19	[0, 0, 0]	n/a	FR1	0	R1277J
1483.407	1.616	1493831	WORD	n/a	wordpools/wordpool_EN.txt	ANT	1	19	[0, 0, 0]	n/a	FR1	0	R1277J
1485.023	0.967	1495447	WORD_OFF	n/a	n/a	ANT	1	19	[0, 0, 0]	n/a	FR1	0	R1277J
1485.99	1.618	1496414	WORD	n/a	wordpools/wordpool_EN.txt	SLUSH	2	19	[0, 0, 0]	n/a	FR1	0	R1277J
1487.608	0.916	1498032	WORD_OFF	n/a	n/a	SLUSH	2	19	[0, 0, 0]	n/a	FR1	0	R1277J
1488.524	1.616	1498948	WORD	n/a	wordpools/wordpool_EN.txt	ROOM	3	19	[0, 0, 0]	n/a	FR1	0	R1277J
1490.14	0.901	1500564	WORD_OFF	n/a	n/a	ROOM	3	19	[0, 0, 0]	n/a	FR1	0	R1277J
1491.041	1.618	1501465	WORD	n/a	wordpools/wordpool_EN.txt	ROOT	4	19	[0, 0, 0]	n/a	FR1	0	R1277J
1492.659	0.833	1503083	WORD_OFF	n/a	n/a	ROOT	4	19	[0, 0, 0]	n/a	FR1	0	R1277J
1493.492	1.616	1503916	WORD	n/a	wordpools/wordpool_EN.txt	FLOOR	5	19	[0, 0, 0]	n/a	FR1	0	R1277J
1495.108	0.784	1505532	WORD_OFF	n/a	n/a	FLOOR	5	19	[0, 0, 0]	n/a	FR1	0	R1277J
1495.892	1.617	1506316	WORD	n/a	wordpools/wordpool_EN.txt	STEM	6	19	[0, 0, 0]	n/a	FR1	0	R1277J
1497.509	0.817	1507933	WORD_OFF	n/a	n/a	STEM	6	19	[0, 0, 0]	n/a	FR1	0	R1277J
1498.326	1.616	1508750	WORD	n/a	wordpools/wordpool_EN.txt	CLIFF	7	19	[0, 0, 0]	n/a	FR1	0	R1277J
1499.942	0.768	1510366	WORD_OFF	n/a	n/a	CLIFF	7	19	[0, 0, 0]	n/a	FR1	0	R1277J
1500.71	1.617	1511134	WORD	n/a	wordpools/wordpool_EN.txt	OAK	8	19	[0, 0, 0]	n/a	FR1	0	R1277J
1502.327	0.849	1512751	WORD_OFF	n/a	n/a	OAK	8	19	[0, 0, 0]	n/a	FR1	0	R1277J
1503.176	1.618	1513600	WORD	n/a	wordpools/wordpool_EN.txt	HAWK	9	19	[0, 0, 0]	n/a	FR1	0	R1277J
1504.794	1.015	1515218	WORD_OFF	n/a	n/a	HAWK	9	19	[0, 0, 0]	n/a	FR1	0	R1277J
1505.809	1.618	1516233	WORD	n/a	wordpools/wordpool_EN.txt	WING	10	19	[0, 0, 0]	n/a	FR1	0	R1277J
1507.427	0.917	1517851	WORD_OFF	n/a	n/a	WING	10	19	[0, 0, 0]	n/a	FR1	0	R1277J
1508.344	1.616	1518768	WORD	n/a	wordpools/wordpool_EN.txt	LEAF	11	19	[0, 0, 0]	n/a	FR1	0	R1277J
1509.96	0.801	1520384	WORD_OFF	n/a	n/a	LEAF	11	19	[0, 0, 0]	n/a	FR1	0	R1277J
1510.761	1.617	1521185	WORD	n/a	wordpools/wordpool_EN.txt	BED	12	19	[0, 0, 0]	n/a	FR1	0	R1277J
1512.378	0.0	1522802	WORD_OFF	n/a	n/a	BED	12	19	[0, 0, 0]	n/a	FR1	0	R1277J
1512.378	0.001	1522802	DISTRACT_START	n/a	n/a	n/a	-999	19	[0, 0, 0]	n/a	FR1	0	R1277J
1512.379	0.015	1522803	START	n/a	n/a	n/a	-999	20	[-999, -999, -999]	n/a	FR1	0	R1277J
1512.394	7.45	1522818	PROB	7.45	n/a	n/a	-999	20	[9, 7, 1]	17	FR1	0	R1277J
1519.844	3.101	1530268	PROB	3.101	n/a	n/a	-999	20	[9, 2, 9]	20	FR1	0	R1277J
1522.945	4.718	1533369	PROB	4.718	n/a	n/a	-999	20	[6, 5, 6]	17	FR1	0	R1277J
1527.663	2.867	1538087	PROB	2.867	n/a	n/a	-999	20	[7, 7, 2]	16	FR1	0	R1277J
1530.53	1.946	1540954	PROB	1.946	n/a	n/a	-999	20	[1, 3, 4]	8	FR1	0	R1277J
1532.476	0.021	1542900	STOP	n/a	n/a	n/a	-999	20	[-999, -999, -999]	n/a	FR1	0	R1277J
1532.497	0.699	1542921	DISTRACT_END	n/a	n/a	n/a	-999	19	[0, 0, 0]	n/a	FR1	0	R1277J
1533.196	0.502	1543620	RETRIEVAL_ORIENT	n/a	n/a	n/a	-999	19	[0, 0, 0]	n/a	FR1	0	R1277J
1533.698	1.215	1544122	REC_START	n/a	n/a	n/a	-999	19	[0, 0, 0]	n/a	FR1	0	R1277J
1534.913	3.884	1545337	REC_WORD	3.884	n/a	ANT	-999	19	[0, 0, 0]	n/a	FR1	0	R1277J
1538.797	3.39	1549221	REC_WORD_VV	3.39	n/a	<>	-999	19	[0, 0, 0]	n/a	FR1	0	R1277J
1542.187	2.86	1552611	REC_WORD	2.86	n/a	HOUSE	-999	19	[0, 0, 0]	n/a	FR1	0	R1277J
1545.047	3.856	1555471	REC_WORD	3.856	n/a	LEAF	-999	19	[0, 0, 0]	n/a	FR1	0	R1277J
1548.903	1.314	1559327	REC_WORD	1.314	n/a	FLY	-999	19	[0, 0, 0]	n/a	FR1	0	R1277J
1550.217	13.493	1560641	REC_WORD	13.493	n/a	WING	-999	19	[0, 0, 0]	n/a	FR1	0	R1277J
1563.71	4.54	1574134	REC_END	n/a	n/a	n/a	-999	19	[0, 0, 0]	n/a	FR1	0	R1277J
1568.25	0.5	1578674	TRIAL	n/a	n/a	n/a	-999	20	[0, 0, 0]	n/a	FR1	0	R1277J
1568.75	10.428	1579174	COUNTDOWN_START	n/a	n/a	n/a	-999	20	[0, 0, 0]	n/a	FR1	0	R1277J
1579.178	0.007	1589602	COUNTDOWN_END	n/a	n/a	n/a	-999	20	[0, 0, 0]	n/a	FR1	0	R1277J
1579.185	1.617	1589609	ORIENT	n/a	n/a	n/a	-999	20	[0, 0, 0]	n/a	FR1	0	R1277J
1580.802	2.367	1591226	ORIENT_OFF	n/a	n/a	n/a	-999	20	[0, 0, 0]	n/a	FR1	0	R1277J
1583.169	1.618	1593593	WORD	n/a	wordpools/wordpool_EN.txt	VINE	1	20	[0, 0, 0]	n/a	FR1	0	R1277J
1584.787	0.767	1595211	WORD_OFF	n/a	n/a	VINE	1	20	[0, 0, 0]	n/a	FR1	0	R1277J
1585.554	1.615	1595978	WORD	n/a	wordpools/wordpool_EN.txt	BUSH	2	20	[0, 0, 0]	n/a	FR1	0	R1277J
1587.169	0.767	1597593	WORD_OFF	n/a	n/a	BUSH	2	20	[0, 0, 0]	n/a	FR1	0	R1277J
1587.936	1.618	1598360	WORD	n/a	wordpools/wordpool_EN.txt	DITCH	3	20	[0, 0, 0]	n/a	FR1	0	R1277J
1589.554	0.8	1599978	WORD_OFF	n/a	n/a	DITCH	3	20	[0, 0, 0]	n/a	FR1	0	R1277J
1590.354	1.616	1600778	WORD	n/a	wordpools/wordpool_EN.txt	GRASS	4	20	[0, 0, 0]	n/a	FR1	0	R1277J
1591.97	1.017	1602394	WORD_OFF	n/a	n/a	GRASS	4	20	[0, 0, 0]	n/a	FR1	0	R1277J
1592.987	1.618	1603411	WORD	n/a	wordpools/wordpool_EN.txt	HOOF	5	20	[0, 0, 0]	n/a	FR1	0	R1277J
1594.605	0.95	1605029	WORD_OFF	n/a	n/a	HOOF	5	20	[0, 0, 0]	n/a	FR1	0	R1277J
1595.555	1.616	1605979	WORD	n/a	wordpools/wordpool_EN.txt	LAMB	6	20	[0, 0, 0]	n/a	FR1	0	R1277J
1597.171	0.85	1607595	WORD_OFF	n/a	n/a	LAMB	6	20	[0, 0, 0]	n/a	FR1	0	R1277J
1598.021	1.618	1608445	WORD	n/a	wordpools/wordpool_EN.txt	JEEP	7	20	[0, 0, 0]	n/a	FR1	0	R1277J
1599.639	0.833	1610063	WORD_OFF	n/a	n/a	JEEP	7	20	[0, 0, 0]	n/a	FR1	0	R1277J
1600.472	1.616	1610896	WORD	n/a	wordpools/wordpool_EN.txt	TEA	8	20	[0, 0, 0]	n/a	FR1	0	R1277J
1602.088	0.984	1612512	WORD_OFF	n/a	n/a	TEA	8	20	[0, 0, 0]	n/a	FR1	0	R1277J
1603.072	1.618	1613496	WORD	n/a	wordpools/wordpool_EN.txt	SPRING	9	20	[0, 0, 0]	n/a	FR1	0	R1277J
1604.69	1.0	1615114	WORD_OFF	n/a	n/a	SPRING	9	20	[0, 0, 0]	n/a	FR1	0	R1277J
1605.69	1.616	1616114	WORD	n/a	wordpools/wordpool_EN.txt	BEAN	10	20	[0, 0, 0]	n/a	FR1	0	R1277J
1607.306	0.984	1617730	WORD_OFF	n/a	n/a	BEAN	10	20	[0, 0, 0]	n/a	FR1	0	R1277J
1608.29	1.616	1618714	WORD	n/a	wordpools/wordpool_EN.txt	COW	11	20	[0, 0, 0]	n/a	FR1	0	R1277J
1609.906	0.917	1620330	WORD_OFF	n/a	n/a	COW	11	20	[0, 0, 0]	n/a	FR1	0	R1277J
1610.823	1.618	1621247	WORD	n/a	wordpools/wordpool_EN.txt	PLANT	12	20	[0, 0, 0]	n/a	FR1	0	R1277J
1612.441	0.0	1622865	WORD_OFF	n/a	n/a	PLANT	12	20	[0, 0, 0]	n/a	FR1	0	R1277J
1612.441	0.0	1622865	DISTRACT_START	n/a	n/a	n/a	-999	20	[0, 0, 0]	n/a	FR1	0	R1277J
1612.441	0.016	1622865	START	n/a	n/a	n/a	-999	21	[-999, -999, -999]	n/a	FR1	0	R1277J
1612.457	2.7	1622881	PROB	2.7	n/a	n/a	-999	21	[2, 5, 5]	12	FR1	0	R1277J
1615.157	2.151	1625581	PROB	2.151	n/a	n/a	-999	21	[9, 4, 1]	14	FR1	0	R1277J
1617.308	2.067	1627732	PROB	2.067	n/a	n/a	-999	21	[7, 2, 8]	17	FR1	0	R1277J
1619.375	3.317	1629799	PROB	3.317	n/a	n/a	-999	21	[7, 4, 6]	17	FR1	0	R1277J
1622.692	11.251	1633116	PROB	11.251	n/a	n/a	-999	21	[8, 9, 8]	25	FR1	0	R1277J
1633.943	0.016	1644367	STOP	n/a	n/a	n/a	-999	21	[-999, -999, -999]	n/a	FR1	0	R1277J
1633.959	0.618	1644383	DISTRACT_END	n/a	n/a	n/a	-999	20	[0, 0, 0]	n/a	FR1	0	R1277J
1634.577	0.516	1645001	RETRIEVAL_ORIENT	n/a	n/a	n/a	-999	20	[0, 0, 0]	n/a	FR1	0	R1277J
1635.093	2.335	1645517	REC_START	n/a	n/a	n/a	-999	20	[0, 0, 0]	n/a	FR1	0	R1277J
1637.428	2.57	1647852	REC_WORD	2.57	n/a	STRING	-999	20	[0, 0, 0]	n/a	FR1	0	R1277J
1639.998	2.359	1650422	REC_WORD	2.359	n/a	BEAN	-999	20	[0, 0, 0]	n/a	FR1	0	R1277J
1642.357	2.205	1652781	REC_WORD	2.205	n/a	PLANT	-999	20	[0, 0, 0]	n/a	FR1	0	R1277J
1644.562	20.544	1654986	REC_WORD	20.544	n/a	COW	-999	20	[0, 0, 0]	n/a	FR1	0	R1277J
1665.106	7.708	1675530	REC_END	n/a	n/a	n/a	-999	20	[0, 0, 0]	n/a	FR1	0	R1277J
1672.814	0.5	1683238	TRIAL	n/a	n/a	n/a	-999	21	[0, 0, 0]	n/a	FR1	0	R1277J
1673.314	10.428	1683738	COUNTDOWN_START	n/a	n/a	n/a	-999	21	[0, 0, 0]	n/a	FR1	0	R1277J
1683.742	0.008	1694166	COUNTDOWN_END	n/a	n/a	n/a	-999	21	[0, 0, 0]	n/a	FR1	0	R1277J
1683.75	1.617	1694174	ORIENT	n/a	n/a	n/a	-999	21	[0, 0, 0]	n/a	FR1	0	R1277J
1685.367	2.15	1695791	ORIENT_OFF	n/a	n/a	n/a	-999	21	[0, 0, 0]	n/a	FR1	0	R1277J
1687.517	1.616	1697941	WORD	n/a	wordpools/wordpool_EN.txt	TAIL	1	21	[0, 0, 0]	n/a	FR1	0	R1277J
1689.133	0.9	1699557	WORD_OFF	n/a	n/a	TAIL	1	21	[0, 0, 0]	n/a	FR1	0	R1277J
1690.033	1.618	1700457	WORD	n/a	wordpools/wordpool_EN.txt	FOOT	2	21	[0, 0, 0]	n/a	FR1	0	R1277J
1691.651	0.783	1702075	WORD_OFF	n/a	n/a	FOOT	2	21	[0, 0, 0]	n/a	FR1	0	R1277J
1692.434	1.616	1702858	WORD	n/a	wordpools/wordpool_EN.txt	SINK	3	21	[0, 0, 0]	n/a	FR1	0	R1277J
1694.05	0.967	1704474	WORD_OFF	n/a	n/a	SINK	3	21	[0, 0, 0]	n/a	FR1	0	R1277J
1695.017	1.617	1705441	WORD	n/a	wordpools/wordpool_EN.txt	PEA	4	21	[0, 0, 0]	n/a	FR1	0	R1277J
1696.634	0.817	1707058	WORD_OFF	n/a	n/a	PEA	4	21	[0, 0, 0]	n/a	FR1	0	R1277J
1697.451	1.616	1707875	WORD	n/a	wordpools/wordpool_EN.txt	PEN	5	21	[0, 0, 0]	n/a	FR1	0	R1277J
1699.067	0.834	1709491	WORD_OFF	n/a	n/a	PEN	5	21	[0, 0, 0]	n/a	FR1	0	R1277J
1699.901	1.618	1710325	WORD	n/a	wordpools/wordpool_EN.txt	BENCH	6	21	[0, 0, 0]	n/a	FR1	0	R1277J
1701.519	0.933	1711943	WORD_OFF	n/a	n/a	BENCH	6	21	[0, 0, 0]	n/a	FR1	0	R1277J
1702.452	1.616	1712876	WORD	n/a	wordpools/wordpool_EN.txt	SKUNK	7	21	[0, 0, 0]	n/a	FR1	0	R1277J
1704.068	0.883	1714492	WORD_OFF	n/a	n/a	SKUNK	7	21	[0, 0, 0]	n/a	FR1	0	R1277J
1704.951	1.618	1715375	WORD	n/a	wordpools/wordpool_EN.txt	FOX	8	21	[0, 0, 0]	n/a	FR1	0	R1277J
1706.569	0.867	1716993	WORD_OFF	n/a	n/a	FOX	8	21	[0, 0, 0]	n/a	FR1	0	R1277J
1707.436	1.616	1717860	WORD	n/a	wordpools/wordpool_EN.txt	THUMB	9	21	[0, 0, 0]	n/a	FR1	0	R1277J
1709.052	0.783	1719476	WORD_OFF	n/a	n/a	THUMB	9	21	[0, 0, 0]	n/a	FR1	0	R1277J
1709.835	1.618	1720259	WORD	n/a	wordpools/wordpool_EN.txt	CALF	10	21	[0, 0, 0]	n/a	FR1	0	R1277J
1711.453	0.816	1721877	WORD_OFF	n/a	n/a	CALF	10	21	[0, 0, 0]	n/a	FR1	0	R1277J
1712.269	1.617	1722693	WORD	n/a	wordpools/wordpool_EN.txt	SMILE	11	21	[0, 0, 0]	n/a	FR1	0	R1277J
1713.886	0.801	1724310	WORD_OFF	n/a	n/a	SMILE	11	21	[0, 0, 0]	n/a	FR1	0	R1277J
1714.687	1.617	1725111	WORD	n/a	wordpools/wordpool_EN.txt	BARN	12	21	[0, 0, 0]	n/a	FR1	0	R1277J
1716.304	0.0	1726728	WORD_OFF	n/a	n/a	BARN	12	21	[0, 0, 0]	n/a	FR1	0	R1277J
1716.304	0.0	1726728	DISTRACT_START	n/a	n/a	n/a	-999	21	[0, 0, 0]	n/a	FR1	0	R1277J
1716.304	0.016	1726728	START	n/a	n/a	n/a	-999	22	[-999, -999, -999]	n/a	FR1	0	R1277J
1716.32	3.251	1726744	PROB	3.251	n/a	n/a	-999	22	[1, 6, 9]	16	FR1	0	R1277J
1719.571	2.767	1729995	PROB	2.767	n/a	n/a	-999	22	[2, 2, 9]	13	FR1	0	R1277J
1722.338	2.533	1732762	PROB	2.533	n/a	n/a	-999	22	[6, 1, 8]	15	FR1	0	R1277J
1724.871	3.601	1735295	PROB	3.601	n/a	n/a	-999	22	[6, 8, 9]	23	FR1	0	R1277J
1728.472	3.533	1738896	PROB	3.533	n/a	n/a	-999	22	[6, 7, 4]	1	FR1	0	R1277J
1732.005	4.462	1742429	PROB	4.462	n/a	n/a	-999	22	[5, 3, 2]	10	FR1	0	R1277J
1736.467	0.006	1746891	STOP	n/a	n/a	n/a	-999	22	[-999, -999, -999]	n/a	FR1	0	R1277J
1736.473	0.566	1746897	DISTRACT_END	n/a	n/a	n/a	-999	21	[0, 0, 0]	n/a	FR1	0	R1277J
1737.039	0.518	1747463	RETRIEVAL_ORIENT	n/a	n/a	n/a	-999	21	[0, 0, 0]	n/a	FR1	0	R1277J
1737.557	1.829	1747981	REC_START	n/a	n/a	n/a	-999	21	[0, 0, 0]	n/a	FR1	0	R1277J
1739.386	1.895	1749810	REC_WORD_VV	1.895	n/a	<>	-999	21	[0, 0, 0]	n/a	FR1	0	R1277J
1741.281	3.675	1751705	REC_WORD	3.675	n/a	TAIL	-999	21	[0, 0, 0]	n/a	FR1	0	R1277J
1744.956	1.975	1755380	REC_WORD	1.975	n/a	HOOF	-999	21	[0, 0, 0]	n/a	FR1	0	R1277J
1746.931	1.67	1757355	REC_WORD	1.67	n/a	FOX	-999	21	[0, 0, 0]	n/a	FR1	0	R1277J
1748.601	3.965	1759025	REC_WORD	3.965	n/a	CALF	-999	21	[0, 0, 0]	n/a	FR1	0	R1277J
1752.566	7.25	1762990	REC_WORD_VV	7.25	n/a	<>	-999	21	[0, 0, 0]	n/a	FR1	0	R1277J
1759.816	7.751	1770241	REC_WORD	7.751	n/a	BENCH	-999	21	[0, 0, 0]	n/a	FR1	0	R1277J
1767.567	4.576	1777992	REC_END	n/a	n/a	n/a	-999	21	[0, 0, 0]	n/a	FR1	0	R1277J
1772.143	0.5	1782568	TRIAL	n/a	n/a	n/a	-999	22	[0, 0, 0]	n/a	FR1	0	R1277J
1772.643	10.428	1783068	COUNTDOWN_START	n/a	n/a	n/a	-999	22	[0, 0, 0]	n/a	FR1	0	R1277J
1783.071	0.007	1793496	COUNTDOWN_END	n/a	n/a	n/a	-999	22	[0, 0, 0]	n/a	FR1	0	R1277J
1783.078	1.601	1793503	ORIENT	n/a	n/a	n/a	-999	22	[0, 0, 0]	n/a	FR1	0	R1277J
1784.679	1.884	1795104	ORIENT_OFF	n/a	n/a	n/a	-999	22	[0, 0, 0]	n/a	FR1	0	R1277J
1786.563	1.615	1796988	WORD	n/a	wordpools/wordpool_EN.txt	BRICK	1	22	[0, 0, 0]	n/a	FR1	0	R1277J
1788.178	0.851	1798603	WORD_OFF	n/a	n/a	BRICK	1	22	[0, 0, 0]	n/a	FR1	0	R1277J
1789.029	1.618	1799454	WORD	n/a	wordpools/wordpool_EN.txt	TANK	2	22	[0, 0, 0]	n/a	FR1	0	R1277J
1790.647	0.966	1801072	WORD_OFF	n/a	n/a	TANK	2	22	[0, 0, 0]	n/a	FR1	0	R1277J
1791.613	1.616	1802038	WORD	n/a	wordpools/wordpool_EN.txt	FRUIT	3	22	[0, 0, 0]	n/a	FR1	0	R1277J
1793.229	0.917	1803654	WORD_OFF	n/a	n/a	FRUIT	3	22	[0, 0, 0]	n/a	FR1	0	R1277J
1794.146	1.601	1804571	WORD	n/a	wordpools/wordpool_EN.txt	SEED	4	22	[0, 0, 0]	n/a	FR1	0	R1277J
1795.747	0.784	1806172	WORD_OFF	n/a	n/a	SEED	4	22	[0, 0, 0]	n/a	FR1	0	R1277J
1796.531	1.616	1806956	WORD	n/a	wordpools/wordpool_EN.txt	RICE	5	22	[0, 0, 0]	n/a	FR1	0	R1277J
1798.147	0.95	1808572	WORD_OFF	n/a	n/a	RICE	5	22	[0, 0, 0]	n/a	FR1	0	R1277J
1799.097	1.617	1809522	WORD	n/a	wordpools/wordpool_EN.txt	SOAP	6	22	[0, 0, 0]	n/a	FR1	0	R1277J
1800.714	0.834	1811139	WORD_OFF	n/a	n/a	SOAP	6	22	[0, 0, 0]	n/a	FR1	0	R1277J
1801.548	1.616	1811973	WORD	n/a	wordpools/wordpool_EN.txt	WOOD	7	22	[0, 0, 0]	n/a	FR1	0	R1277J
1803.164	0.85	1813589	WORD_OFF	n/a	n/a	WOOD	7	22	[0, 0, 0]	n/a	FR1	0	R1277J
1804.014	1.618	1814439	WORD	n/a	wordpools/wordpool_EN.txt	CLAY	8	22	[0, 0, 0]	n/a	FR1	0	R1277J
1805.632	0.933	1816057	WORD_OFF	n/a	n/a	CLAY	8	22	[0, 0, 0]	n/a	FR1	0	R1277J
1806.565	1.616	1816990	WORD	n/a	wordpools/wordpool_EN.txt	CLOTH	9	22	[0, 0, 0]	n/a	FR1	0	R1277J
1808.181	0.833	1818606	WORD_OFF	n/a	n/a	CLOTH	9	22	[0, 0, 0]	n/a	FR1	0	R1277J
1809.014	1.602	1819439	WORD	n/a	wordpools/wordpool_EN.txt	WORLD	10	22	[0, 0, 0]	n/a	FR1	0	R1277J
1810.616	0.833	1821041	WORD_OFF	n/a	n/a	WORLD	10	22	[0, 0, 0]	n/a	FR1	0	R1277J
1811.449	1.616	1821874	WORD	n/a	wordpools/wordpool_EN.txt	ROCK	11	22	[0, 0, 0]	n/a	FR1	0	R1277J
1813.065	1.0	1823490	WORD_OFF	n/a	n/a	ROCK	11	22	[0, 0, 0]	n/a	FR1	0	R1277J
1814.065	1.618	1824490	WORD	n/a	wordpools/wordpool_EN.txt	HOSE	12	22	[0, 0, 0]	n/a	FR1	0	R1277J
1815.683	0.0	1826108	WORD_OFF	n/a	n/a	HOSE	12	22	[0, 0, 0]	n/a	FR1	0	R1277J
1815.683	0.001	1826108	DISTRACT_START	n/a	n/a	n/a	-999	22	[0, 0, 0]	n/a	FR1	0	R1277J
1815.684	0.016	1826109	START	n/a	n/a	n/a	-999	23	[-999, -999, -999]	n/a	FR1	0	R1277J
1815.7	4.499	1826125	PROB	4.499	n/a	n/a	-999	23	[3, 3, 9]	14	FR1	0	R1277J
1820.199	4.901	1830624	PROB	4.901	n/a	n/a	-999	23	[5, 8, 4]	17	FR1	0	R1277J
1825.1	4.134	1835525	PROB	4.134	n/a	n/a	-999	23	[9, 5, 6]	20	FR1	0	R1277J
1829.234	4.352	1839659	PROB	4.352	n/a	n/a	-999	23	[8, 8, 5]	21	FR1	0	R1277J
1833.586	4.484	1844011	PROB	4.484	n/a	n/a	-999	23	[8, 9, 7]	23	FR1	0	R1277J
1838.07	0.015	1848495	STOP	n/a	n/a	n/a	-999	23	[-999, -999, -999]	n/a	FR1	0	R1277J
1838.085	0.568	1848510	DISTRACT_END	n/a	n/a	n/a	-999	22	[0, 0, 0]	n/a	FR1	0	R1277J
1838.653	0.516	1849078	RETRIEVAL_ORIENT	n/a	n/a	n/a	-999	22	[0, 0, 0]	n/a	FR1	0	R1277J
1839.169	1.26	1849594	REC_START	n/a	n/a	n/a	-999	22	[0, 0, 0]	n/a	FR1	0	R1277J
1840.429	0.555	1850854	REC_WORD	0.555	n/a	ROCK	-999	22	[0, 0, 0]	n/a	FR1	0	R1277J
1840.984	9.269	1851409	REC_WORD	9.269	n/a	CLAY	-999	22	[0, 0, 0]	n/a	FR1	0	R1277J
1850.253	5.895	1860678	REC_WORD	5.895	n/a	WOOD	-999	22	[0, 0, 0]	n/a	FR1	0	R1277J
1856.148	13.031	1866573	REC_WORD_VV	13.031	n/a	<>	-999	22	[0, 0, 0]	n/a	FR1	0	R1277J
1869.179	4.761	1879604	REC_END	n/a	n/a	n/a	-999	22	[0, 0, 0]	n/a	FR1	0	R1277J
1873.94	0.5	1884365	TRIAL	n/a	n/a	n/a	-999	23	[0, 0, 0]	n/a	FR1	0	R1277J
1874.44	10.428	1884865	COUNTDOWN_START	n/a	n/a	n/a	-999	23	[0, 0, 0]	n/a	FR1	0	R1277J
1884.868	0.006	1895293	COUNTDOWN_END	n/a	n/a	n/a	-999	23	[0, 0, 0]	n/a	FR1	0	R1277J
1884.874	1.618	1895299	ORIENT	n/a	n/a	n/a	-999	23	[0, 0, 0]	n/a	FR1	0	R1277J
1886.492	1.867	1896917	ORIENT_OFF	n/a	n/a	n/a	-999	23	[0, 0, 0]	n/a	FR1	0	R1277J
1888.359	1.616	1898784	WORD	n/a	wordpools/wordpool_EN.txt	CONE	1	23	[0, 0, 0]	n/a	FR1	0	R1277J
1889.975	0.818	1900400	WORD_OFF	n/a	n/a	CONE	1	23	[0, 0, 0]	n/a	FR1	0	R1277J
1890.793	1.617	1901218	WORD	n/a	wordpools/wordpool_EN.txt	LAKE	2	23	[0, 0, 0]	n/a	FR1	0	R1277J
1892.41	1.0	1902835	WORD_OFF	n/a	n/a	LAKE	2	23	[0, 0, 0]	n/a	FR1	0	R1277J
1893.41	1.616	1903835	WORD	n/a	wordpools/wordpool_EN.txt	STEAM	3	23	[0, 0, 0]	n/a	FR1	0	R1277J
1895.026	0.85	1905451	WORD_OFF	n/a	n/a	STEAM	3	23	[0, 0, 0]	n/a	FR1	0	R1277J
1895.876	1.617	1906301	WORD	n/a	wordpools/wordpool_EN.txt	ROSE	4	23	[0, 0, 0]	n/a	FR1	0	R1277J
1897.493	0.984	1907918	WORD_OFF	n/a	n/a	ROSE	4	23	[0, 0, 0]	n/a	FR1	0	R1277J
1898.477	1.616	1908902	WORD	n/a	wordpools/wordpool_EN.txt	BRIDGE	5	23	[0, 0, 0]	n/a	FR1	0	R1277J
1900.093	0.917	1910518	WORD_OFF	n/a	n/a	BRIDGE	5	23	[0, 0, 0]	n/a	FR1	0	R1277J
1901.01	1.618	1911435	WORD	n/a	wordpools/wordpool_EN.txt	BEAK	6	23	[0, 0, 0]	n/a	FR1	0	R1277J
1902.628	0.816	1913053	WORD_OFF	n/a	n/a	BEAK	6	23	[0, 0, 0]	n/a	FR1	0	R1277J
1903.444	1.616	1913869	WORD	n/a	wordpools/wordpool_EN.txt	SWAMP	7	23	[0, 0, 0]	n/a	FR1	0	R1277J
1905.06	0.9	1915485	WORD_OFF	n/a	n/a	SWAMP	7	23	[0, 0, 0]	n/a	FR1	0	R1277J
1905.96	1.618	1916385	WORD	n/a	wordpools/wordpool_EN.txt	ROPE	8	23	[0, 0, 0]	n/a	FR1	0	R1277J
1907.578	0.85	1918003	WORD_OFF	n/a	n/a	ROPE	8	23	[0, 0, 0]	n/a	FR1	0	R1277J
1908.428	1.616	1918853	WORD	n/a	wordpools/wordpool_EN.txt	RAKE	9	23	[0, 0, 0]	n/a	FR1	0	R1277J
1910.044	0.767	1920469	WORD_OFF	n/a	n/a	RAKE	9	23	[0, 0, 0]	n/a	FR1	0	R1277J
1910.811	1.618	1921236	WORD	n/a	wordpools/wordpool_EN.txt	HORSE	10	23	[0, 0, 0]	n/a	FR1	0	R1277J
1912.429	0.782	1922854	WORD_OFF	n/a	n/a	HORSE	10	23	[0, 0, 0]	n/a	FR1	0	R1277J
1913.211	1.617	1923636	WORD	n/a	wordpools/wordpool_EN.txt	SPEAR	11	23	[0, 0, 0]	n/a	FR1	0	R1277J
1914.828	0.984	1925253	WORD_OFF	n/a	n/a	SPEAR	11	23	[0, 0, 0]	n/a	FR1	0	R1277J
1915.812	1.617	1926237	WORD	n/a	wordpools/wordpool_EN.txt	GOAT	12	23	[0, 0, 0]	n/a	FR1	0	R1277J
1917.429	0.0	1927854	WORD_OFF	n/a	n/a	GOAT	12	23	[0, 0, 0]	n/a	FR1	0	R1277J
1917.429	0.001	1927854	DISTRACT_START	n/a	n/a	n/a	-999	23	[0, 0, 0]	n/a	FR1	0	R1277J
1917.43	0.016	1927855	START	n/a	n/a	n/a	-999	24	[-999, -999, -999]	n/a	FR1	0	R1277J
1917.446	5.35	1927871	PROB	5.35	n/a	n/a	-999	24	[9, 4, 5]	18	FR1	0	R1277J
1922.796	2.718	1933221	PROB	2.718	n/a	n/a	-999	24	[5, 4, 4]	13	FR1	0	R1277J
1925.514	1.967	1935939	PROB	1.967	n/a	n/a	-999	24	[6, 5, 5]	16	FR1	0	R1277J
1927.481	2.267	1937906	PROB	2.267	n/a	n/a	-999	24	[3, 1, 7]	11	FR1	0	R1277J
1929.748	2.7	1940173	PROB	2.7	n/a	n/a	-999	24	[2, 7, 6]	15	FR1	0	R1277J
1932.448	3.201	1942873	PROB	3.201	n/a	n/a	-999	24	[4, 5, 2]	11	FR1	0	R1277J
1935.649	2.753	1946074	PROB	2.753	n/a	n/a	-999	24	[4, 7, 4]	15	FR1	0	R1277J
1938.402	0.013	1948827	STOP	n/a	n/a	n/a	-999	24	[-999, -999, -999]	n/a	FR1	0	R1277J
1938.415	0.533	1948840	DISTRACT_END	n/a	n/a	n/a	-999	23	[0, 0, 0]	n/a	FR1	0	R1277J
1938.948	0.518	1949373	RETRIEVAL_ORIENT	n/a	n/a	n/a	-999	23	[0, 0, 0]	n/a	FR1	0	R1277J
1939.466	1.35	1949891	REC_START	n/a	n/a	n/a	-999	23	[0, 0, 0]	n/a	FR1	0	R1277J
1940.816	1.75	1951241	REC_WORD	1.75	n/a	STONE	-999	23	[0, 0, 0]	n/a	FR1	0	R1277J
1942.566	1.445	1952991	REC_WORD	1.445	n/a	LAKE	-999	23	[0, 0, 0]	n/a	FR1	0	R1277J
1944.011	1.954	1954436	REC_WORD	1.954	n/a	SWAMP	-999	23	[0, 0, 0]	n/a	FR1	0	R1277J
1945.965	5.905	1956390	REC_WORD_VV	5.905	n/a	<>	-999	23	[0, 0, 0]	n/a	FR1	0	R1277J
1951.87	7.15	1962295	REC_WORD_VV	7.15	n/a	<>	-999	23	[0, 0, 0]	n/a	FR1	0	R1277J
1959.02	6.885	1969445	REC_WORD	6.885	n/a	ROPE	-999	23	[0, 0, 0]	n/a	FR1	0	R1277J
1965.905	3.574	1976330	REC_WORD	3.574	n/a	STEAM	-999	23	[0, 0, 0]	n/a	FR1	0	R1277J
1969.479	5.357	1979904	REC_END	n/a	n/a	n/a	-999	23	[0, 0, 0]	n/a	FR1	0	R1277J
1974.836	0.5	1985261	TRIAL	n/a	n/a	n/a	-999	24	[0, 0, 0]	n/a	FR1	0	R1277J
1975.336	10.428	1985761	COUNTDOWN_START	n/a	n/a	n/a	-999	24	[0, 0, 0]	n/a	FR1	0	R1277J
1985.764	0.008	1996189	COUNTDOWN_END	n/a	n/a	n/a	-999	24	[0, 0, 0]	n/a	FR1	0	R1277J
1985.772	1.616	1996197	ORIENT	n/a	n/a	n/a	-999	24	[0, 0, 0]	n/a	FR1	0	R1277J
1987.388	2.284	1997813	ORIENT_OFF	n/a	n/a	n/a	-999	24	[0, 0, 0]	n/a	FR1	0	R1277J
1989.672	1.617	2000097	WORD	n/a	wordpools/wordpool_EN.txt	BOAT	1	24	[0, 0, 0]	n/a	FR1	0	R1277J
1991.289	0.782	2001714	WORD_OFF	n/a	n/a	BOAT	1	24	[0, 0, 0]	n/a	FR1	0	R1277J
1992.071	1.618	2002496	WORD	n/a	wordpools/wordpool_EN.txt	CAPE	2	24	[0, 0, 0]	n/a	FR1	0	R1277J
1993.689	0.8	2004114	WORD_OFF	n/a	n/a	CAPE	2	24	[0, 0, 0]	n/a	FR1	0	R1277J
1994.489	1.616	2004914	WORD	n/a	wordpools/wordpool_EN.txt	STICK	3	24	[0, 0, 0]	n/a	FR1	0	R1277J
1996.105	0.9	2006530	WORD_OFF	n/a	n/a	STICK	3	24	[0, 0, 0]	n/a	FR1	0	R1277J
1997.005	1.618	2007430	WORD	n/a	wordpools/wordpool_EN.txt	MAP	4	24	[0, 0, 0]	n/a	FR1	0	R1277J
1998.623	1.0	2009048	WORD_OFF	n/a	n/a	MAP	4	24	[0, 0, 0]	n/a	FR1	0	R1277J
1999.623	1.616	2010048	WORD	n/a	wordpools/wordpool_EN.txt	STORM	5	24	[0, 0, 0]	n/a	FR1	0	R1277J
2001.239	0.784	2011664	WORD_OFF	n/a	n/a	STORM	5	24	[0, 0, 0]	n/a	FR1	0	R1277J
2002.023	1.618	2012448	WORD	n/a	wordpools/wordpool_EN.txt	SEA	6	24	[0, 0, 0]	n/a	FR1	0	R1277J
2003.641	0.9	2014066	WORD_OFF	n/a	n/a	SEA	6	24	[0, 0, 0]	n/a	FR1	0	R1277J
2004.541	1.615	2014966	WORD	n/a	wordpools/wordpool_EN.txt	MUD	7	24	[0, 0, 0]	n/a	FR1	0	R1277J
2006.156	0.817	2016581	WORD_OFF	n/a	n/a	MUD	7	24	[0, 0, 0]	n/a	FR1	0	R1277J
2006.973	1.618	2017398	WORD	n/a	wordpools/wordpool_EN.txt	LAND	8	24	[0, 0, 0]	n/a	FR1	0	R1277J
2008.591	1.0	2019016	WORD_OFF	n/a	n/a	LAND	8	24	[0, 0, 0]	n/a	FR1	0	R1277J
2009.591	1.616	2020016	WORD	n/a	wordpools/wordpool_EN.txt	STRAW	9	24	[0, 0, 0]	n/a	FR1	0	R1277J
2011.207	0.917	2021632	WORD_OFF	n/a	n/a	STRAW	9	24	[0, 0, 0]	n/a	FR1	0	R1277J
2012.124	1.618	2022549	WORD	n/a	wordpools/wordpool_EN.txt	HOOK	10	24	[0, 0, 0]	n/a	FR1	0	R1277J
2013.742	1.0	2024167	WORD_OFF	n/a	n/a	HOOK	10	24	[0, 0, 0]	n/a	FR1	0	R1277J
2014.742	1.617	2025167	WORD	n/a	wordpools/wordpool_EN.txt	ELF	11	24	[0, 0, 0]	n/a	FR1	0	R1277J
2016.359	0.966	2026784	WORD_OFF	n/a	n/a	ELF	11	24	[0, 0, 0]	n/a	FR1	0	R1277J
2017.325	1.616	2027750	WORD	n/a	wordpools/wordpool_EN.txt	FARM	12	24	[0, 0, 0]	n/a	FR1	0	R1277J
2018.941	0.0	2029366	WORD_OFF	n/a	n/a	FARM	12	24	[0, 0, 0]	n/a	FR1	0	R1277J
2018.941	0.001	2029366	DISTRACT_START	n/a	n/a	n/a	-999	24	[0, 0, 0]	n/a	FR1	0	R1277J
2018.942	0.016	2029367	START	n/a	n/a	n/a	-999	25	[-999, -999, -999]	n/a	FR1	0	R1277J
2018.958	4.818	2029383	PROB	4.818	n/a	n/a	-999	25	[6, 3, 9]	18	FR1	0	R1277J
2023.776	2.717	2034201	PROB	2.717	n/a	n/a	-999	25	[9, 5, 4]	18	FR1	0	R1277J
2026.493	1.284	2036918	PROB	1.284	n/a	n/a	-999	25	[1, 1, 9]	11	FR1	0	R1277J
2027.777	4.534	2038202	PROB	4.534	n/a	n/a	-999	25	[9, 8, 4]	21	FR1	0	R1277J
2032.311	4.217	2042736	PROB	4.217	n/a	n/a	-999	25	[9, 3, 2]	14	FR1	0	R1277J
2036.528	3.51	2046953	PROB	3.51	n/a	n/a	-999	25	[9, 6, 2]	17	FR1	0	R1277J
2040.038	0.023	2050463	STOP	n/a	n/a	n/a	-999	25	[-999, -999, -999]	n/a	FR1	0	R1277J
2040.061	0.651	2050486	DISTRACT_END	n/a	n/a	n/a	-999	24	[0, 0, 0]	n/a	FR1	0	R1277J
2040.712	0.516	2051137	RETRIEVAL_ORIENT	n/a	n/a	n/a	-999	24	[0, 0, 0]	n/a	FR1	0	R1277J
2041.228	1.575	2051653	REC_START	n/a	n/a	n/a	-999	24	[0, 0, 0]	n/a	FR1	0	R1277J
2042.803	1.2	2053228	REC_WORD_VV	1.2	n/a	<>	-999	24	[0, 0, 0]	n/a	FR1	0	R1277J
2044.003	0.685	2054428	REC_WORD	0.685	n/a	CAPE	-999	24	[0, 0, 0]	n/a	FR1	0	R1277J
2044.688	1.809	2055113	REC_WORD	1.809	n/a	BOAT	-999	24	[0, 0, 0]	n/a	FR1	0	R1277J
2046.497	1.62	2056922	REC_WORD	1.62	n/a	STORM	-999	24	[0, 0, 0]	n/a	FR1	0	R1277J
2048.117	9.185	2058542	REC_WORD	9.185	n/a	MUD	-999	24	[0, 0, 0]	n/a	FR1	0	R1277J
2057.302	10.0	2067727	REC_WORD	10.0	n/a	STORM	-999	24	[0, 0, 0]	n/a	FR1	0	R1277J
2067.302	1.0	2077727	REC_WORD	1.0	n/a	PALM	-999	24	[0, 0, 0]	n/a	FR1	0	R1277J
2068.302	0.149	2078727	REC_WORD_VV	0.149	n/a	<>	-999	24	[0, 0, 0]	n/a	FR1	0	R1277J
2068.451	0.15	2078876	REC_WORD_VV	0.15	n/a	<>	-999	24	[0, 0, 0]	n/a	FR1	0	R1277J
2068.601	1.406	2079026	REC_WORD	1.406	n/a	STICK	-999	24	[0, 0, 0]	n/a	FR1	0	R1277J
2070.007	0.77	2080432	REC_WORD_VV	0.77	n/a	<>	-999	24	[0, 0, 0]	n/a	FR1	0	R1277J
2070.777	0.464	2081202	REC_WORD_VV	0.464	n/a	<>	-999	24	[0, 0, 0]	n/a	FR1	0	R1277J
2071.241	5.342	2081666	REC_END	n/a	n/a	n/a	-999	24	[0, 0, 0]	n/a	FR1	0	R1277J
2076.583	0.5	2087008	TRIAL	n/a	n/a	n/a	-999	25	[0, 0, 0]	n/a	FR1	0	R1277J
2077.083	10.428	2087508	COUNTDOWN_START	n/a	n/a	n/a	-999	25	[0, 0, 0]	n/a	FR1	0	R1277J
2087.511	0.007	2097936	COUNTDOWN_END	n/a	n/a	n/a	-999	25	[0, 0, 0]	n/a	FR1	0	R1277J
2087.518	1.616	2097943	ORIENT	n/a	n/a	n/a	-999	25	[0, 0, 0]	n/a	FR1	0	R1277J
2089.134	1.983	2099559	ORIENT_OFF	n/a	n/a	n/a	-999	25	[0, 0, 0]	n/a	FR1	0	R1277J
2091.117	1.618	2101542	WORD	n/a	wordpools/wordpool_EN.txt	CAKE	1	25	[0, 0, 0]	n/a	FR1	0	R1277J
2092.735	1.0	2103160	WORD_OFF	n/a	n/a	CAKE	1	25	[0, 0, 0]	n/a	FR1	0	R1277J
2093.735	1.617	2104160	WORD	n/a	wordpools/wordpool_EN.txt	KITE	2	25	[0, 0, 0]	n/a	FR1	0	R1277J
2095.352	0.983	2105777	WORD_OFF	n/a	n/a	KITE	2	25	[0, 0, 0]	n/a	FR1	0	R1277J
2096.335	1.616	2106760	WORD	n/a	wordpools/wordpool_EN.txt	PIN	3	25	[0, 0, 0]	n/a	FR1	0	R1277J
2097.951	0.818	2108376	WORD_OFF	n/a	n/a	PIN	3	25	[0, 0, 0]	n/a	FR1	0	R1277J
2098.769	1.617	2109194	WORD	n/a	wordpools/wordpool_EN.txt	BOX	4	25	[0, 0, 0]	n/a	FR1	0	R1277J
2100.386	0.9	2110811	WORD_OFF	n/a	n/a	BOX	4	25	[0, 0, 0]	n/a	FR1	0	R1277J
2101.286	1.616	2111711	WORD	n/a	wordpools/wordpool_EN.txt	SHOE	5	25	[0, 0, 0]	n/a	FR1	0	R1277J
2102.902	0.801	2113327	WORD_OFF	n/a	n/a	SHOE	5	25	[0, 0, 0]	n/a	FR1	0	R1277J
2103.703	1.617	2114128	WORD	n/a	wordpools/wordpool_EN.txt	RUG	6	25	[0, 0, 0]	n/a	FR1	0	R1277J
2105.32	0.849	2115745	WORD_OFF	n/a	n/a	RUG	6	25	[0, 0, 0]	n/a	FR1	0	R1277J
2106.169	1.618	2116594	WORD	n/a	wordpools/wordpool_EN.txt	DIME	7	25	[0, 0, 0]	n/a	FR1	0	R1277J
2107.787	0.767	2118212	WORD_OFF	n/a	n/a	DIME	7	25	[0, 0, 0]	n/a	FR1	0	R1277J
2108.554	1.616	2118979	WORD	n/a	wordpools/wordpool_EN.txt	CLOWN	8	25	[0, 0, 0]	n/a	FR1	0	R1277J
2110.17	0.833	2120595	WORD_OFF	n/a	n/a	CLOWN	8	25	[0, 0, 0]	n/a	FR1	0	R1277J
2111.003	1.618	2121428	WORD	n/a	wordpools/wordpool_EN.txt	DRESS	9	25	[0, 0, 0]	n/a	FR1	0	R1277J
2112.621	0.9	2123046	WORD_OFF	n/a	n/a	DRESS	9	25	[0, 0, 0]	n/a	FR1	0	R1277J
2113.521	1.616	2123946	WORD	n/a	wordpools/wordpool_EN.txt	PLATE	10	25	[0, 0, 0]	n/a	FR1	0	R1277J
2115.137	0.867	2125562	WORD_OFF	n/a	n/a	PLATE	10	25	[0, 0, 0]	n/a	FR1	0	R1277J
2116.004	1.618	2126429	WORD	n/a	wordpools/wordpool_EN.txt	BOWL	11	25	[0, 0, 0]	n/a	FR1	0	R1277J
2117.622	0.933	2128047	WORD_OFF	n/a	n/a	BOWL	11	25	[0, 0, 0]	n/a	FR1	0	R1277J
2118.555	1.616	2128980	WORD	n/a	wordpools/wordpool_EN.txt	FAN	12	25	[0, 0, 0]	n/a	FR1	0	R1277J
2120.171	0.0	2130596	WORD_OFF	n/a	n/a	FAN	12	25	[0, 0, 0]	n/a	FR1	0	R1277J
2120.171	0.001	2130596	DISTRACT_START	n/a	n/a	n/a	-999	25	[0, 0, 0]	n/a	FR1	0	R1277J
2120.172	0.016	2130597	START	n/a	n/a	n/a	-999	26	[-999, -999, -999]	n/a	FR1	0	R1277J
2120.188	2.584	2130613	PROB	2.584	n/a	n/a	-999	26	[4, 4, 3]	11	FR1	0	R1277J
2122.772	2.1	2133197	PROB	2.1	n/a	n/a	-999	26	[2, 7, 1]	10	FR1	0	R1277J
2124.872	2.366	2135297	PROB	2.366	n/a	n/a	-999	26	[9, 1, 8]	18	FR1	0	R1277J
2127.238	3.469	2137663	PROB	3.469	n/a	n/a	-999	26	[5, 9, 9]	23	FR1	0	R1277J
2130.707	2.083	2141132	PROB	2.083	n/a	n/a	-999	26	[9, 1, 3]	13	FR1	0	R1277J
2132.79	3.2	2143215	PROB	3.2	n/a	n/a	-999	26	[9, 6, 4]	19	FR1	0	R1277J
2135.99	3.083	2146415	PROB	3.083	n/a	n/a	-999	26	[4, 3, 3]	10	FR1	0	R1277J
2139.073	3.225	2149498	PROB	3.225	n/a	n/a	-999	26	[6, 5, 3]	14	FR1	0	R1277J
2142.298	0.01	2152723	STOP	n/a	n/a	n/a	-999	26	[-999, -999, -999]	n/a	FR1	0	R1277J
2142.308	0.666	2152733	DISTRACT_END	n/a	n/a	n/a	-999	25	[0, 0, 0]	n/a	FR1	0	R1277J
2142.974	0.502	2153399	RETRIEVAL_ORIENT	n/a	n/a	n/a	-999	25	[0, 0, 0]	n/a	FR1	0	R1277J
2143.476	2.861	2153901	REC_START	n/a	n/a	n/a	-999	25	[0, 0, 0]	n/a	FR1	0	R1277J
2146.337	3.639	2156762	REC_WORD	3.639	n/a	SHOE	-999	25	[0, 0, 0]	n/a	FR1	0	R1277J
2149.976	5.995	2160401	REC_WORD	5.995	n/a	CLOWN	-999	25	[0, 0, 0]	n/a	FR1	0	R1277J
2155.971	17.517	2166396	REC_WORD	17.517	n/a	RUG	-999	25	[0, 0, 0]	n/a	FR1	0	R1277J
2173.488	21.227	2183913	REC_END	n/a	n/a	n/a	-999	25	[0, 0, 0]	n/a	FR1	0	R1277J
2194.715	0.0	2205140	SESS_END	n/a	n/a	n/a	-999	25	[0, 0, 0]	n/a	FR1	0	R1277J
