onset	duration	sample	trial_type	response_time	stim_file	item_name	serialpos	list	test	answer	experiment	session	subject
0.0	147.384	53758	INSTRUCT_START	n/a	n/a	n/a	-999	-999	[0, 0, 0]	n/a	FR1	0	R1431J
147.384	30.333	201131	INSTRUCT_END	n/a	n/a	n/a	-999	-999	[0, 0, 0]	n/a	FR1	0	R1431J
177.717	10.41	231461	COUNTDOWN_START	n/a	n/a	n/a	-999	-999	[0, 0, 0]	n/a	FR1	0	R1431J
188.127	0.0	241871	COUNTDOWN_END	n/a	n/a	n/a	-999	-999	[0, 0, 0]	n/a	FR1	0	R1431J
188.127	1.773	241871	ENCODING_START	n/a	n/a	n/a	-999	-1	[0, 0, 0]	n/a	FR1	0	R1431J
189.9	1.616	243651	WORD	n/a	n/a	MOP	1	-1	[0, 0, 0]	n/a	FR1	0	R1431J
191.516	0.899	245268	WORD_OFF	n/a	n/a	MOP	1	-1	[0, 0, 0]	n/a	FR1	0	R1431J
192.415	1.601	246165	WORD	n/a	n/a	CHIN	2	-1	[0, 0, 0]	n/a	FR1	0	R1431J
194.016	0.816	247768	WORD_OFF	n/a	n/a	CHIN	2	-1	[0, 0, 0]	n/a	FR1	0	R1431J
194.832	1.6	248584	WORD	n/a	n/a	SALT	3	-1	[0, 0, 0]	n/a	FR1	0	R1431J
196.432	0.884	250174	WORD_OFF	n/a	n/a	SALT	3	-1	[0, 0, 0]	n/a	FR1	0	R1431J
197.316	1.6	251070	WORD	n/a	n/a	WOLF	4	-1	[0, 0, 0]	n/a	FR1	0	R1431J
198.916	0.783	252660	WORD_OFF	n/a	n/a	WOLF	4	-1	[0, 0, 0]	n/a	FR1	0	R1431J
199.699	1.617	253448	WORD	n/a	n/a	CHALK	5	-1	[0, 0, 0]	n/a	FR1	0	R1431J
201.316	0.933	255066	WORD_OFF	n/a	n/a	CHALK	5	-1	[0, 0, 0]	n/a	FR1	0	R1431J
202.249	1.617	256003	WORD	n/a	n/a	TANK	6	-1	[0, 0, 0]	n/a	FR1	0	R1431J
203.866	0.9	257607	WORD_OFF	n/a	n/a	TANK	6	-1	[0, 0, 0]	n/a	FR1	0	R1431J
204.766	1.616	258517	WORD	n/a	n/a	TENT	7	-1	[0, 0, 0]	n/a	FR1	0	R1431J
206.382	0.834	260134	WORD_OFF	n/a	n/a	TENT	7	-1	[0, 0, 0]	n/a	FR1	0	R1431J
207.216	1.616	260963	WORD	n/a	n/a	CHEST	8	-1	[0, 0, 0]	n/a	FR1	0	R1431J
208.832	0.934	262580	WORD_OFF	n/a	n/a	CHEST	8	-1	[0, 0, 0]	n/a	FR1	0	R1431J
209.766	1.6	263518	WORD	n/a	n/a	BROOM	9	-1	[0, 0, 0]	n/a	FR1	0	R1431J
211.366	0.966	265108	WORD_OFF	n/a	n/a	BROOM	9	-1	[0, 0, 0]	n/a	FR1	0	R1431J
212.332	1.617	266073	WORD	n/a	n/a	WEB	10	-1	[0, 0, 0]	n/a	FR1	0	R1431J
213.949	1.0	267690	WORD_OFF	n/a	n/a	WEB	10	-1	[0, 0, 0]	n/a	FR1	0	R1431J
214.949	1.616	268695	WORD	n/a	n/a	MUD	11	-1	[0, 0, 0]	n/a	FR1	0	R1431J
216.565	1.0	270312	WORD_OFF	n/a	n/a	MUD	11	-1	[0, 0, 0]	n/a	FR1	0	R1431J
217.565	1.6	271318	WORD	n/a	n/a	SPHINX	12	-1	[0, 0, 0]	n/a	FR1	0	R1431J
219.165	0.002	272908	WORD_OFF	n/a	n/a	SPHINX	12	-1	[0, 0, 0]	n/a	FR1	0	R1431J
219.167	0.0	272908	ENCODING_END	n/a	n/a	n/a	-999	-1	[0, 0, 0]	n/a	FR1	0	R1431J
219.167	0.0	272917	START	n/a	n/a	n/a	-999	-1	[-999, -999, -999]	n/a	FR1	0	R1431J
219.167	0.0	272917	PROB	0.0	n/a	n/a	-999	-1	[3, 3, 6]	12	FR1	0	R1431J
219.167	3.466	272922	DISTRACT_START	n/a	n/a	n/a	-999	-1	[0, 0, 0]	n/a	FR1	0	R1431J
222.633	3.567	276382	PROB	3.567	n/a	n/a	-999	-1	[5, 4, 6]	15	FR1	0	R1431J
226.2	2.416	279949	PROB	2.416	n/a	n/a	-999	-1	[3, 4, 1]	8	FR1	0	R1431J
228.616	2.217	282365	PROB	2.217	n/a	n/a	-999	-1	[2, 8, 2]	12	FR1	0	R1431J
230.833	3.75	284582	PROB	3.75	n/a	n/a	-999	-1	[6, 1, 3]	10	FR1	0	R1431J
234.583	2.801	288332	PROB	2.801	n/a	n/a	-999	-1	[6, 2, 2]	10	FR1	0	R1431J
237.384	3.382	291133	PROB	3.382	n/a	n/a	-999	-1	[4, 8, 5]	17	FR1	0	R1431J
240.766	0.0	294515	DISTRACT_END	n/a	n/a	n/a	-999	-1	[0, 0, 0]	n/a	FR1	0	R1431J
240.766	1.35	294515	STOP	n/a	n/a	n/a	-999	-1	[-999, -999, -999]	n/a	FR1	0	R1431J
242.116	0.785	295860	REC_START	n/a	n/a	n/a	-999	-1	[0, 0, 0]	n/a	FR1	0	R1431J
242.901	0.534	296650	REC_WORD	0.534	n/a	MOP	1	-1	[0, 0, 0]	n/a	FR1	0	R1431J
243.435	0.369	297184	REC_WORD	0.369	n/a	CHALK	5	-1	[0, 0, 0]	n/a	FR1	0	R1431J
243.804	1.18	297553	REC_WORD	1.18	n/a	SPHINX	12	-1	[0, 0, 0]	n/a	FR1	0	R1431J
244.984	1.235	298732	REC_WORD	1.235	n/a	WOLF	4	-1	[0, 0, 0]	n/a	FR1	0	R1431J
246.219	4.36	299967	REC_WORD	4.36	n/a	MUD	11	-1	[0, 0, 0]	n/a	FR1	0	R1431J
250.579	3.625	304327	REC_WORD	3.625	n/a	LAND	-999	-1	[0, 0, 0]	n/a	FR1	0	R1431J
254.204	1.0	307952	REC_WORD_VV	1.0	n/a	<>	-999	-1	[0, 0, 0]	n/a	FR1	0	R1431J
255.204	1.612	308952	REC_WORD_VV	1.612	n/a	<>	-999	-1	[0, 0, 0]	n/a	FR1	0	R1431J
256.816	1.215	310564	REC_WORD_VV	1.215	n/a	<>	-999	-1	[0, 0, 0]	n/a	FR1	0	R1431J
258.031	15.312	311779	REC_WORD_VV	15.312	n/a	<>	-999	-1	[0, 0, 0]	n/a	FR1	0	R1431J
273.343	13.107	327087	REC_END	n/a	n/a	n/a	-999	-1	[0, 0, 0]	n/a	FR1	0	R1431J
286.45	10.361	340201	COUNTDOWN_START	n/a	n/a	n/a	-999	1	[0, 0, 0]	n/a	FR1	0	R1431J
296.811	0.0	350556	COUNTDOWN_END	n/a	n/a	n/a	-999	1	[0, 0, 0]	n/a	FR1	0	R1431J
296.811	2.022	350556	ENCODING_START	n/a	n/a	n/a	-999	1	[0, 0, 0]	n/a	FR1	0	R1431J
298.833	1.616	352580	WORD	n/a	wordpools/wordpool_long_EN.txt	CLOCK	1	1	[0, 0, 0]	n/a	FR1	0	R1431J
300.449	0.817	354198	WORD_OFF	n/a	n/a	CLOCK	1	1	[0, 0, 0]	n/a	FR1	0	R1431J
301.266	1.6	355013	WORD	n/a	wordpools/wordpool_long_EN.txt	LOFT	2	1	[0, 0, 0]	n/a	FR1	0	R1431J
302.866	0.8	356603	WORD_OFF	n/a	n/a	LOFT	2	1	[0, 0, 0]	n/a	FR1	0	R1431J
303.666	1.616	357405	WORD	n/a	wordpools/wordpool_long_EN.txt	SEAL	3	1	[0, 0, 0]	n/a	FR1	0	R1431J
305.282	0.85	359022	WORD_OFF	n/a	n/a	SEAL	3	1	[0, 0, 0]	n/a	FR1	0	R1431J
306.132	1.6	359878	WORD	n/a	wordpools/wordpool_long_EN.txt	SPRING	4	1	[0, 0, 0]	n/a	FR1	0	R1431J
307.732	0.783	361481	WORD_OFF	n/a	n/a	SPRING	4	1	[0, 0, 0]	n/a	FR1	0	R1431J
308.515	1.617	362256	WORD	n/a	wordpools/wordpool_long_EN.txt	SHOE	5	1	[0, 0, 0]	n/a	FR1	0	R1431J
310.132	0.917	363873	WORD_OFF	n/a	n/a	SHOE	5	1	[0, 0, 0]	n/a	FR1	0	R1431J
311.049	1.616	364797	WORD	n/a	wordpools/wordpool_long_EN.txt	ROOT	6	1	[0, 0, 0]	n/a	FR1	0	R1431J
312.665	0.984	366414	WORD_OFF	n/a	n/a	ROOT	6	1	[0, 0, 0]	n/a	FR1	0	R1431J
313.649	1.6	367392	WORD	n/a	wordpools/wordpool_long_EN.txt	MEAT	7	1	[0, 0, 0]	n/a	FR1	0	R1431J
315.249	0.783	368996	WORD_OFF	n/a	n/a	MEAT	7	1	[0, 0, 0]	n/a	FR1	0	R1431J
316.032	1.617	369771	WORD	n/a	wordpools/wordpool_long_EN.txt	SNAIL	8	1	[0, 0, 0]	n/a	FR1	0	R1431J
317.649	0.85	371388	WORD_OFF	n/a	n/a	SNAIL	8	1	[0, 0, 0]	n/a	FR1	0	R1431J
318.499	1.616	372244	WORD	n/a	wordpools/wordpool_long_EN.txt	DEER	9	1	[0, 0, 0]	n/a	FR1	0	R1431J
320.115	1.0	373861	WORD_OFF	n/a	n/a	DEER	9	1	[0, 0, 0]	n/a	FR1	0	R1431J
321.115	1.6	374853	WORD	n/a	wordpools/wordpool_long_EN.txt	HAT	10	1	[0, 0, 0]	n/a	FR1	0	R1431J
322.715	0.8	376456	WORD_OFF	n/a	n/a	HAT	10	1	[0, 0, 0]	n/a	FR1	0	R1431J
323.515	1.6	377258	WORD	n/a	wordpools/wordpool_long_EN.txt	LUNCH	11	1	[0, 0, 0]	n/a	FR1	0	R1431J
325.115	0.95	378862	WORD_OFF	n/a	n/a	LUNCH	11	1	[0, 0, 0]	n/a	FR1	0	R1431J
326.065	1.601	379813	WORD	n/a	wordpools/wordpool_long_EN.txt	PURSE	12	1	[0, 0, 0]	n/a	FR1	0	R1431J
327.666	0.001	381403	WORD_OFF	n/a	n/a	PURSE	12	1	[0, 0, 0]	n/a	FR1	0	R1431J
327.667	0.002	381412	START	n/a	n/a	n/a	-999	1	[-999, -999, -999]	n/a	FR1	0	R1431J
327.669	0.0	381414	PROB	0.0	n/a	n/a	-999	1	[1, 5, 1]	7	FR1	0	R1431J
327.667	0.0	381416	ENCODING_END	n/a	n/a	n/a	-999	1	[0, 0, 0]	n/a	FR1	0	R1431J
327.667	1.982	381416	DISTRACT_START	n/a	n/a	n/a	-999	1	[0, 0, 0]	n/a	FR1	0	R1431J
329.649	1.819	383394	PROB	1.819	n/a	n/a	-999	1	[1, 4, 6]	11	FR1	0	R1431J
331.468	3.182	385213	PROB	3.182	n/a	n/a	-999	1	[3, 2, 5]	10	FR1	0	R1431J
334.65	1.683	388395	PROB	1.683	n/a	n/a	-999	1	[3, 7, 3]	13	FR1	0	R1431J
336.333	5.25	390078	PROB	5.25	n/a	n/a	-999	1	[6, 7, 6]	19	FR1	0	R1431J
341.583	2.949	395327	PROB	2.949	n/a	n/a	-999	1	[5, 4, 6]	15	FR1	0	R1431J
344.532	2.601	398276	PROB	2.601	n/a	n/a	-999	1	[2, 3, 6]	11	FR1	0	R1431J
347.133	4.632	400877	PROB	4.632	n/a	n/a	-999	1	[8, 3, 6]	17	FR1	0	R1431J
351.765	0.0	405509	STOP	n/a	n/a	n/a	-999	1	[-999, -999, -999]	n/a	FR1	0	R1431J
351.765	1.301	405510	DISTRACT_END	n/a	n/a	n/a	-999	1	[0, 0, 0]	n/a	FR1	0	R1431J
353.066	1.309	406801	REC_START	n/a	n/a	n/a	-999	1	[0, 0, 0]	n/a	FR1	0	R1431J
354.375	1.863	408119	REC_WORD	1.863	n/a	SNAIL	8	1	[0, 0, 0]	n/a	FR1	0	R1431J
356.238	1.035	409982	REC_WORD_VV	1.035	n/a	<>	-999	1	[0, 0, 0]	n/a	FR1	0	R1431J
357.273	0.83	411017	REC_WORD	0.83	n/a	CLOCK	1	1	[0, 0, 0]	n/a	FR1	0	R1431J
358.103	10.053	411847	REC_WORD	10.053	n/a	SPRING	4	1	[0, 0, 0]	n/a	FR1	0	R1431J
368.156	16.168	421899	REC_WORD_VV	16.168	n/a	<>	-999	1	[0, 0, 0]	n/a	FR1	0	R1431J
384.324	1.859	438069	REC_END	n/a	n/a	n/a	-999	1	[0, 0, 0]	n/a	FR1	0	R1431J
386.183	10.361	439917	COUNTDOWN_START	n/a	n/a	n/a	-999	1	[0, 0, 0]	n/a	FR1	0	R1431J
396.544	0.0	450286	COUNTDOWN_END	n/a	n/a	n/a	-999	1	[0, 0, 0]	n/a	FR1	0	R1431J
396.544	2.105	450286	ENCODING_START	n/a	n/a	n/a	-999	2	[0, 0, 0]	n/a	FR1	0	R1431J
398.649	1.6	452392	WORD	n/a	wordpools/wordpool_long_EN.txt	RAKE	1	2	[0, 0, 0]	n/a	FR1	0	R1431J
400.249	0.916	453995	WORD_OFF	n/a	n/a	RAKE	1	2	[0, 0, 0]	n/a	FR1	0	R1431J
401.165	1.601	454906	WORD	n/a	wordpools/wordpool_long_EN.txt	RIB	2	2	[0, 0, 0]	n/a	FR1	0	R1431J
402.766	0.983	456509	WORD_OFF	n/a	n/a	RIB	2	2	[0, 0, 0]	n/a	FR1	0	R1431J
403.749	1.618	457488	WORD	n/a	wordpools/wordpool_long_EN.txt	BLOOM	3	2	[0, 0, 0]	n/a	FR1	0	R1431J
405.367	0.798	459105	WORD_OFF	n/a	n/a	BLOOM	3	2	[0, 0, 0]	n/a	FR1	0	R1431J
406.165	1.6	459907	WORD	n/a	wordpools/wordpool_long_EN.txt	STORM	4	2	[0, 0, 0]	n/a	FR1	0	R1431J
407.765	1.001	461510	WORD_OFF	n/a	n/a	STORM	4	2	[0, 0, 0]	n/a	FR1	0	R1431J
408.766	1.616	462502	WORD	n/a	wordpools/wordpool_long_EN.txt	SLIME	5	2	[0, 0, 0]	n/a	FR1	0	R1431J
410.382	0.816	464119	WORD_OFF	n/a	n/a	SLIME	5	2	[0, 0, 0]	n/a	FR1	0	R1431J
411.198	1.601	464935	WORD	n/a	wordpools/wordpool_long_EN.txt	COOK	6	2	[0, 0, 0]	n/a	FR1	0	R1431J
412.799	0.9	466538	WORD_OFF	n/a	n/a	COOK	6	2	[0, 0, 0]	n/a	FR1	0	R1431J
413.699	1.616	467435	WORD	n/a	wordpools/wordpool_long_EN.txt	TREE	7	2	[0, 0, 0]	n/a	FR1	0	R1431J
415.315	1.0	469052	WORD_OFF	n/a	n/a	TREE	7	2	[0, 0, 0]	n/a	FR1	0	R1431J
416.315	1.617	470058	WORD	n/a	wordpools/wordpool_long_EN.txt	FRAME	8	2	[0, 0, 0]	n/a	FR1	0	R1431J
417.932	0.816	471675	WORD_OFF	n/a	n/a	FRAME	8	2	[0, 0, 0]	n/a	FR1	0	R1431J
418.748	1.601	472490	WORD	n/a	wordpools/wordpool_long_EN.txt	MOON	9	2	[0, 0, 0]	n/a	FR1	0	R1431J
420.349	0.766	474094	WORD_OFF	n/a	n/a	MOON	9	2	[0, 0, 0]	n/a	FR1	0	R1431J
421.115	1.6	474855	WORD	n/a	wordpools/wordpool_long_EN.txt	BOY	10	2	[0, 0, 0]	n/a	FR1	0	R1431J
422.715	0.933	476458	WORD_OFF	n/a	n/a	BOY	10	2	[0, 0, 0]	n/a	FR1	0	R1431J
423.648	1.601	477382	WORD	n/a	wordpools/wordpool_long_EN.txt	ROAD	11	2	[0, 0, 0]	n/a	FR1	0	R1431J
425.249	0.816	478986	WORD_OFF	n/a	n/a	ROAD	11	2	[0, 0, 0]	n/a	FR1	0	R1431J
426.065	1.6	479801	WORD	n/a	wordpools/wordpool_long_EN.txt	STICK	12	2	[0, 0, 0]	n/a	FR1	0	R1431J
427.665	0.002	481404	WORD_OFF	n/a	n/a	STICK	12	2	[0, 0, 0]	n/a	FR1	0	R1431J
427.667	0.0	481404	ENCODING_END	n/a	n/a	n/a	-999	2	[0, 0, 0]	n/a	FR1	0	R1431J
427.667	0.0	481404	DISTRACT_START	n/a	n/a	n/a	-999	2	[0, 0, 0]	n/a	FR1	0	R1431J
427.665	0.002	481406	PROB	0.002	n/a	n/a	-999	2	[3, 4, 5]	12	FR1	0	R1431J
427.667	3.166	481408	START	n/a	n/a	n/a	-999	2	[-999, -999, -999]	n/a	FR1	0	R1431J
430.833	2.25	484574	PROB	2.25	n/a	n/a	-999	2	[8, 5, 5]	18	FR1	0	R1431J
433.083	3.45	486824	PROB	3.45	n/a	n/a	-999	2	[8, 4, 2]	14	FR1	0	R1431J
436.533	2.184	490274	PROB	2.184	n/a	n/a	-999	2	[5, 7, 4]	16	FR1	0	R1431J
438.717	2.532	492457	PROB	2.532	n/a	n/a	-999	2	[1, 2, 5]	8	FR1	0	R1431J
441.249	2.067	494989	PROB	2.067	n/a	n/a	-999	2	[7, 4, 2]	13	FR1	0	R1431J
443.316	3.184	497056	PROB	3.184	n/a	n/a	-999	2	[8, 4, 2]	14	FR1	0	R1431J
446.5	1.899	500240	PROB	1.899	n/a	n/a	-999	2	[4, 6, 3]	13	FR1	0	R1431J
448.399	0.0	502139	STOP	n/a	n/a	n/a	-999	2	[-999, -999, -999]	n/a	FR1	0	R1431J
448.399	1.367	502141	DISTRACT_END	n/a	n/a	n/a	-999	2	[0, 0, 0]	n/a	FR1	0	R1431J
449.766	4.209	503500	REC_START	n/a	n/a	n/a	-999	2	[0, 0, 0]	n/a	FR1	0	R1431J
453.975	2.896	507715	REC_WORD	2.896	n/a	COOK	6	2	[0, 0, 0]	n/a	FR1	0	R1431J
456.871	4.225	510611	REC_WORD	4.225	n/a	BOY	10	2	[0, 0, 0]	n/a	FR1	0	R1431J
461.096	0.76	514835	REC_WORD_VV	0.76	n/a	<>	-999	2	[0, 0, 0]	n/a	FR1	0	R1431J
461.856	10.839	515595	REC_WORD	10.839	n/a	SNAIL	-999	2	[0, 0, 0]	n/a	FR1	0	R1431J
472.695	3.756	526434	REC_WORD	3.756	n/a	SLIME	5	2	[0, 0, 0]	n/a	FR1	0	R1431J
476.451	0.494	530190	REC_WORD	0.494	n/a	RAKE	1	2	[0, 0, 0]	n/a	FR1	0	R1431J
476.945	4.096	530684	REC_WORD	4.096	n/a	RIB	2	2	[0, 0, 0]	n/a	FR1	0	R1431J
481.041	1.825	534782	REC_END	n/a	n/a	n/a	-999	2	[0, 0, 0]	n/a	FR1	0	R1431J
482.866	10.361	536603	COUNTDOWN_START	n/a	n/a	n/a	-999	2	[0, 0, 0]	n/a	FR1	0	R1431J
493.227	0.0	546958	COUNTDOWN_END	n/a	n/a	n/a	-999	2	[0, 0, 0]	n/a	FR1	0	R1431J
493.227	1.838	546958	ENCODING_START	n/a	n/a	n/a	-999	3	[0, 0, 0]	n/a	FR1	0	R1431J
495.065	1.601	548806	WORD	n/a	wordpools/wordpool_long_EN.txt	BADGE	1	3	[0, 0, 0]	n/a	FR1	0	R1431J
496.666	0.85	550396	WORD_OFF	n/a	n/a	BADGE	1	3	[0, 0, 0]	n/a	FR1	0	R1431J
497.516	1.617	551252	WORD	n/a	wordpools/wordpool_long_EN.txt	ELF	2	3	[0, 0, 0]	n/a	FR1	0	R1431J
499.133	0.833	552869	WORD_OFF	n/a	n/a	ELF	2	3	[0, 0, 0]	n/a	FR1	0	R1431J
499.966	1.617	553698	WORD	n/a	wordpools/wordpool_long_EN.txt	GRASS	3	3	[0, 0, 0]	n/a	FR1	0	R1431J
501.583	0.965	555315	WORD_OFF	n/a	n/a	GRASS	3	3	[0, 0, 0]	n/a	FR1	0	R1431J
502.548	1.601	556280	WORD	n/a	wordpools/wordpool_long_EN.txt	CLOTH	4	3	[0, 0, 0]	n/a	FR1	0	R1431J
504.149	0.9	557884	WORD_OFF	n/a	n/a	CLOTH	4	3	[0, 0, 0]	n/a	FR1	0	R1431J
505.049	1.617	558780	WORD	n/a	wordpools/wordpool_long_EN.txt	BRIDGE	5	3	[0, 0, 0]	n/a	FR1	0	R1431J
506.666	0.933	560397	WORD_OFF	n/a	n/a	BRIDGE	5	3	[0, 0, 0]	n/a	FR1	0	R1431J
507.599	1.616	561335	WORD	n/a	wordpools/wordpool_long_EN.txt	ROD	6	3	[0, 0, 0]	n/a	FR1	0	R1431J
509.215	0.968	562952	WORD_OFF	n/a	n/a	ROD	6	3	[0, 0, 0]	n/a	FR1	0	R1431J
510.183	1.616	563917	WORD	n/a	wordpools/wordpool_long_EN.txt	TRAY	7	3	[0, 0, 0]	n/a	FR1	0	R1431J
511.799	0.766	565534	WORD_OFF	n/a	n/a	TRAY	7	3	[0, 0, 0]	n/a	FR1	0	R1431J
512.565	1.617	566295	WORD	n/a	wordpools/wordpool_long_EN.txt	GOAL	8	3	[0, 0, 0]	n/a	FR1	0	R1431J
514.182	0.95	567912	WORD_OFF	n/a	n/a	GOAL	8	3	[0, 0, 0]	n/a	FR1	0	R1431J
515.132	1.617	568863	WORD	n/a	wordpools/wordpool_long_EN.txt	CAVE	9	3	[0, 0, 0]	n/a	FR1	0	R1431J
516.749	0.816	570481	WORD_OFF	n/a	n/a	CAVE	9	3	[0, 0, 0]	n/a	FR1	0	R1431J
517.565	1.6	571296	WORD	n/a	wordpools/wordpool_long_EN.txt	BROOK	10	3	[0, 0, 0]	n/a	FR1	0	R1431J
519.165	0.934	572899	WORD_OFF	n/a	n/a	BROOK	10	3	[0, 0, 0]	n/a	FR1	0	R1431J
520.099	1.616	573837	WORD	n/a	wordpools/wordpool_long_EN.txt	MASK	11	3	[0, 0, 0]	n/a	FR1	0	R1431J
521.715	0.884	575454	WORD_OFF	n/a	n/a	MASK	11	3	[0, 0, 0]	n/a	FR1	0	R1431J
522.599	1.616	576337	WORD	n/a	wordpools/wordpool_long_EN.txt	WAVE	12	3	[0, 0, 0]	n/a	FR1	0	R1431J
524.215	0.001	577952	PROB	0.001	n/a	n/a	-999	3	[7, 5, 3]	15	FR1	0	R1431J
524.216	0.0	577953	START	n/a	n/a	n/a	-999	3	[-999, -999, -999]	n/a	FR1	0	R1431J
524.215	0.001	577955	WORD_OFF	n/a	n/a	WAVE	12	3	[0, 0, 0]	n/a	FR1	0	R1431J
524.216	0.0	577955	ENCODING_END	n/a	n/a	n/a	-999	3	[0, 0, 0]	n/a	FR1	0	R1431J
524.216	2.649	577955	DISTRACT_START	n/a	n/a	n/a	-999	3	[0, 0, 0]	n/a	FR1	0	R1431J
526.865	2.25	580602	PROB	2.25	n/a	n/a	-999	3	[3, 4, 7]	14	FR1	0	R1431J
529.115	2.884	582852	PROB	2.884	n/a	n/a	-999	3	[2, 3, 3]	8	FR1	0	R1431J
531.999	3.417	585736	PROB	3.417	n/a	n/a	-999	3	[4, 1, 5]	10	FR1	0	R1431J
535.416	2.1	589152	PROB	2.1	n/a	n/a	-999	3	[8, 8, 2]	18	FR1	0	R1431J
537.516	3.016	591252	PROB	3.016	n/a	n/a	-999	3	[1, 5, 4]	10	FR1	0	R1431J
540.532	2.618	594268	PROB	2.618	n/a	n/a	-999	3	[7, 2, 6]	15	FR1	0	R1431J
543.15	2.549	596886	PROB	2.549	n/a	n/a	-999	3	[5, 3, 8]	16	FR1	0	R1431J
545.699	0.0	599435	STOP	n/a	n/a	n/a	-999	3	[-999, -999, -999]	n/a	FR1	0	R1431J
545.699	1.217	599439	DISTRACT_END	n/a	n/a	n/a	-999	3	[0, 0, 0]	n/a	FR1	0	R1431J
546.916	1.225	600648	REC_START	n/a	n/a	n/a	-999	3	[0, 0, 0]	n/a	FR1	0	R1431J
548.141	2.612	601877	REC_WORD	2.612	n/a	GRASS	3	3	[0, 0, 0]	n/a	FR1	0	R1431J
550.753	9.496	604489	REC_WORD_VV	9.496	n/a	<>	-999	3	[0, 0, 0]	n/a	FR1	0	R1431J
560.249	1.851	613984	REC_WORD	1.851	n/a	BROOK	10	3	[0, 0, 0]	n/a	FR1	0	R1431J
562.1	16.093	615835	REC_WORD	16.093	n/a	ELF	2	3	[0, 0, 0]	n/a	FR1	0	R1431J
578.193	1.257	631930	REC_END	n/a	n/a	n/a	-999	3	[0, 0, 0]	n/a	FR1	0	R1431J
579.45	10.36	633180	COUNTDOWN_START	n/a	n/a	n/a	-999	3	[0, 0, 0]	n/a	FR1	0	R1431J
589.81	0.0	643535	COUNTDOWN_END	n/a	n/a	n/a	-999	3	[0, 0, 0]	n/a	FR1	0	R1431J
589.81	2.256	643549	ENCODING_START	n/a	n/a	n/a	-999	4	[0, 0, 0]	n/a	FR1	0	R1431J
592.066	1.616	645791	WORD	n/a	wordpools/wordpool_long_EN.txt	YACHT	1	4	[0, 0, 0]	n/a	FR1	0	R1431J
593.682	0.917	647408	WORD_OFF	n/a	n/a	YACHT	1	4	[0, 0, 0]	n/a	FR1	0	R1431J
594.599	1.6	648332	WORD	n/a	wordpools/wordpool_long_EN.txt	TAIL	2	4	[0, 0, 0]	n/a	FR1	0	R1431J
596.199	0.817	649936	WORD_OFF	n/a	n/a	TAIL	2	4	[0, 0, 0]	n/a	FR1	0	R1431J
597.016	1.617	650751	WORD	n/a	wordpools/wordpool_long_EN.txt	BRUSH	3	4	[0, 0, 0]	n/a	FR1	0	R1431J
598.633	0.982	652368	WORD_OFF	n/a	n/a	BRUSH	3	4	[0, 0, 0]	n/a	FR1	0	R1431J
599.615	1.601	653346	WORD	n/a	wordpools/wordpool_long_EN.txt	PET	4	4	[0, 0, 0]	n/a	FR1	0	R1431J
601.216	0.966	654950	WORD_OFF	n/a	n/a	PET	4	4	[0, 0, 0]	n/a	FR1	0	R1431J
602.182	1.601	655915	WORD	n/a	wordpools/wordpool_long_EN.txt	STREET	5	4	[0, 0, 0]	n/a	FR1	0	R1431J
603.783	0.933	657518	WORD_OFF	n/a	n/a	STREET	5	4	[0, 0, 0]	n/a	FR1	0	R1431J
604.716	1.616	658442	WORD	n/a	wordpools/wordpool_long_EN.txt	CLOWN	6	4	[0, 0, 0]	n/a	FR1	0	R1431J
606.332	0.8	660059	WORD_OFF	n/a	n/a	CLOWN	6	4	[0, 0, 0]	n/a	FR1	0	R1431J
607.132	1.617	660861	WORD	n/a	wordpools/wordpool_long_EN.txt	SOCK	7	4	[0, 0, 0]	n/a	FR1	0	R1431J
608.749	1.0	662478	WORD_OFF	n/a	n/a	SOCK	7	4	[0, 0, 0]	n/a	FR1	0	R1431J
609.749	1.6	663484	WORD	n/a	wordpools/wordpool_long_EN.txt	SUIT	8	4	[0, 0, 0]	n/a	FR1	0	R1431J
611.349	0.95	665074	WORD_OFF	n/a	n/a	SUIT	8	4	[0, 0, 0]	n/a	FR1	0	R1431J
612.299	1.616	666025	WORD	n/a	wordpools/wordpool_long_EN.txt	GROUND	9	4	[0, 0, 0]	n/a	FR1	0	R1431J
613.915	0.767	667642	WORD_OFF	n/a	n/a	GROUND	9	4	[0, 0, 0]	n/a	FR1	0	R1431J
614.682	1.617	668417	WORD	n/a	wordpools/wordpool_long_EN.txt	WRIST	10	4	[0, 0, 0]	n/a	FR1	0	R1431J
616.299	0.983	670034	WORD_OFF	n/a	n/a	WRIST	10	4	[0, 0, 0]	n/a	FR1	0	R1431J
617.282	1.6	671012	WORD	n/a	wordpools/wordpool_long_EN.txt	MAT	11	4	[0, 0, 0]	n/a	FR1	0	R1431J
618.882	0.767	672616	WORD_OFF	n/a	n/a	MAT	11	4	[0, 0, 0]	n/a	FR1	0	R1431J
619.649	1.6	673377	WORD	n/a	wordpools/wordpool_long_EN.txt	TIE	12	4	[0, 0, 0]	n/a	FR1	0	R1431J
621.249	0.001	674980	WORD_OFF	n/a	n/a	TIE	12	4	[0, 0, 0]	n/a	FR1	0	R1431J
621.25	0.0	674980	ENCODING_END	n/a	n/a	n/a	-999	4	[0, 0, 0]	n/a	FR1	0	R1431J
621.25	0.0	674980	DISTRACT_START	n/a	n/a	n/a	-999	4	[0, 0, 0]	n/a	FR1	0	R1431J
621.249	0.001	674982	PROB	0.001	n/a	n/a	-999	4	[5, 7, 1]	13	FR1	0	R1431J
621.25	2.682	674983	START	n/a	n/a	n/a	-999	4	[-999, -999, -999]	n/a	FR1	0	R1431J
623.932	2.501	677665	PROB	2.501	n/a	n/a	-999	4	[8, 7, 5]	20	FR1	0	R1431J
626.433	2.616	680166	PROB	2.616	n/a	n/a	-999	4	[7, 5, 2]	14	FR1	0	R1431J
629.049	2.467	682782	PROB	2.467	n/a	n/a	-999	4	[7, 5, 2]	14	FR1	0	R1431J
631.516	3.316	685248	PROB	3.316	n/a	n/a	-999	4	[7, 4, 3]	14	FR1	0	R1431J
634.832	3.417	688564	PROB	3.417	n/a	n/a	-999	4	[3, 5, 2]	10	FR1	0	R1431J
638.249	2.334	691981	PROB	2.334	n/a	n/a	-999	4	[1, 3, 3]	7	FR1	0	R1431J
640.583	2.784	694315	PROB	2.784	n/a	n/a	-999	4	[7, 5, 7]	19	FR1	0	R1431J
643.367	0.0	697090	DISTRACT_END	n/a	n/a	n/a	-999	4	[0, 0, 0]	n/a	FR1	0	R1431J
643.367	1.165	697099	STOP	n/a	n/a	n/a	-999	4	[-999, -999, -999]	n/a	FR1	0	R1431J
644.532	0.19	698258	REC_START	n/a	n/a	n/a	-999	4	[0, 0, 0]	n/a	FR1	0	R1431J
644.722	0.683	698454	REC_WORD	0.683	n/a	SOCK	7	4	[0, 0, 0]	n/a	FR1	0	R1431J
645.405	4.381	699137	REC_WORD	4.381	n/a	SUIT	8	4	[0, 0, 0]	n/a	FR1	0	R1431J
649.786	26.005	703518	REC_WORD	26.005	n/a	YACHT	1	4	[0, 0, 0]	n/a	FR1	0	R1431J
675.791	1.875	729513	REC_END	n/a	n/a	n/a	-999	4	[0, 0, 0]	n/a	FR1	0	R1431J
677.666	10.361	731388	COUNTDOWN_START	n/a	n/a	n/a	-999	4	[0, 0, 0]	n/a	FR1	0	R1431J
688.027	0.0	741757	COUNTDOWN_END	n/a	n/a	n/a	-999	4	[0, 0, 0]	n/a	FR1	0	R1431J
688.027	1.956	741757	ENCODING_START	n/a	n/a	n/a	-999	5	[0, 0, 0]	n/a	FR1	0	R1431J
689.983	1.6	743713	WORD	n/a	wordpools/wordpool_long_EN.txt	DOCK	1	5	[0, 0, 0]	n/a	FR1	0	R1431J
691.583	1.0	745303	WORD_OFF	n/a	n/a	DOCK	1	5	[0, 0, 0]	n/a	FR1	0	R1431J
692.583	1.6	746309	WORD	n/a	wordpools/wordpool_long_EN.txt	SAIL	2	5	[0, 0, 0]	n/a	FR1	0	R1431J
694.183	0.767	747912	WORD_OFF	n/a	n/a	SAIL	2	5	[0, 0, 0]	n/a	FR1	0	R1431J
694.95	1.6	748673	WORD	n/a	wordpools/wordpool_long_EN.txt	STEM	3	5	[0, 0, 0]	n/a	FR1	0	R1431J
696.55	0.766	750277	WORD_OFF	n/a	n/a	STEM	3	5	[0, 0, 0]	n/a	FR1	0	R1431J
697.316	1.617	751038	WORD	n/a	wordpools/wordpool_long_EN.txt	INN	4	5	[0, 0, 0]	n/a	FR1	0	R1431J
698.933	0.932	752655	WORD_OFF	n/a	n/a	INN	4	5	[0, 0, 0]	n/a	FR1	0	R1431J
699.865	1.601	753593	WORD	n/a	wordpools/wordpool_long_EN.txt	BENCH	5	5	[0, 0, 0]	n/a	FR1	0	R1431J
701.466	0.816	755196	WORD_OFF	n/a	n/a	BENCH	5	5	[0, 0, 0]	n/a	FR1	0	R1431J
702.282	1.601	756012	WORD	n/a	wordpools/wordpool_long_EN.txt	TILE	6	5	[0, 0, 0]	n/a	FR1	0	R1431J
703.883	0.916	757615	WORD_OFF	n/a	n/a	TILE	6	5	[0, 0, 0]	n/a	FR1	0	R1431J
704.799	1.6	758526	WORD	n/a	wordpools/wordpool_long_EN.txt	MAIL	7	5	[0, 0, 0]	n/a	FR1	0	R1431J
706.399	0.933	760129	WORD_OFF	n/a	n/a	MAIL	7	5	[0, 0, 0]	n/a	FR1	0	R1431J
707.332	1.6	761053	WORD	n/a	wordpools/wordpool_long_EN.txt	HOOK	8	5	[0, 0, 0]	n/a	FR1	0	R1431J
708.932	0.817	762657	WORD_OFF	n/a	n/a	HOOK	8	5	[0, 0, 0]	n/a	FR1	0	R1431J
709.749	1.617	763472	WORD	n/a	wordpools/wordpool_long_EN.txt	HUT	9	5	[0, 0, 0]	n/a	FR1	0	R1431J
711.366	0.766	765089	WORD_OFF	n/a	n/a	HUT	9	5	[0, 0, 0]	n/a	FR1	0	R1431J
712.132	1.6	765864	WORD	n/a	wordpools/wordpool_long_EN.txt	FARM	10	5	[0, 0, 0]	n/a	FR1	0	R1431J
713.732	0.834	767454	WORD_OFF	n/a	n/a	FARM	10	5	[0, 0, 0]	n/a	FR1	0	R1431J
714.566	1.616	768296	WORD	n/a	wordpools/wordpool_long_EN.txt	FOOD	11	5	[0, 0, 0]	n/a	FR1	0	R1431J
716.182	0.85	769913	WORD_OFF	n/a	n/a	FOOD	11	5	[0, 0, 0]	n/a	FR1	0	R1431J
717.032	1.617	770756	WORD	n/a	wordpools/wordpool_long_EN.txt	MOLE	12	5	[0, 0, 0]	n/a	FR1	0	R1431J
718.649	0.001	772373	WORD_OFF	n/a	n/a	MOLE	12	5	[0, 0, 0]	n/a	FR1	0	R1431J
718.65	0.0	772373	ENCODING_END	n/a	n/a	n/a	-999	5	[0, 0, 0]	n/a	FR1	0	R1431J
718.65	0.0	772373	DISTRACT_START	n/a	n/a	n/a	-999	5	[0, 0, 0]	n/a	FR1	0	R1431J
718.649	0.001	772378	PROB	0.001	n/a	n/a	-999	5	[7, 2, 8]	17	FR1	0	R1431J
718.65	2.982	772379	START	n/a	n/a	n/a	-999	5	[-999, -999, -999]	n/a	FR1	0	R1431J
721.632	2.4	775361	PROB	2.4	n/a	n/a	-999	5	[1, 5, 6]	12	FR1	0	R1431J
724.032	2.2	777761	PROB	2.2	n/a	n/a	-999	5	[6, 8, 7]	21	FR1	0	R1431J
726.232	2.217	779961	PROB	2.217	n/a	n/a	-999	5	[3, 3, 2]	8	FR1	0	R1431J
728.449	2.3	782177	PROB	2.3	n/a	n/a	-999	5	[2, 4, 4]	10	FR1	0	R1431J
730.749	3.35	784477	PROB	3.35	n/a	n/a	-999	5	[8, 6, 5]	18	FR1	0	R1431J
734.099	2.866	787827	PROB	2.866	n/a	n/a	-999	5	[1, 3, 4]	8	FR1	0	R1431J
736.965	3.701	790693	PROB	3.701	n/a	n/a	-999	5	[6, 7, 6]	19	FR1	0	R1431J
740.666	0.0	794387	DISTRACT_END	n/a	n/a	n/a	-999	5	[0, 0, 0]	n/a	FR1	0	R1431J
740.666	1.216	794394	STOP	n/a	n/a	n/a	-999	5	[-999, -999, -999]	n/a	FR1	0	R1431J
741.882	0.42	795610	REC_START	n/a	n/a	n/a	-999	5	[0, 0, 0]	n/a	FR1	0	R1431J
742.302	0.512	796030	REC_WORD	0.512	n/a	FARM	10	5	[0, 0, 0]	n/a	FR1	0	R1431J
742.814	1.393	796542	REC_WORD	1.393	n/a	FOOD	11	5	[0, 0, 0]	n/a	FR1	0	R1431J
744.207	0.907	797935	REC_WORD	0.907	n/a	SAIL	2	5	[0, 0, 0]	n/a	FR1	0	R1431J
745.114	5.745	798842	REC_WORD	5.745	n/a	HUT	9	5	[0, 0, 0]	n/a	FR1	0	R1431J
750.859	22.298	804586	REC_WORD	22.298	n/a	BENCH	5	5	[0, 0, 0]	n/a	FR1	0	R1431J
773.157	1.059	826878	REC_END	n/a	n/a	n/a	-999	5	[0, 0, 0]	n/a	FR1	0	R1431J
774.216	10.361	827938	COUNTDOWN_START	n/a	n/a	n/a	-999	5	[0, 0, 0]	n/a	FR1	0	R1431J
784.577	0.0	838307	COUNTDOWN_END	n/a	n/a	n/a	-999	5	[0, 0, 0]	n/a	FR1	0	R1431J
784.577	2.173	838307	ENCODING_START	n/a	n/a	n/a	-999	6	[0, 0, 0]	n/a	FR1	0	R1431J
786.75	1.616	840467	WORD	n/a	wordpools/wordpool_long_EN.txt	GIRL	1	6	[0, 0, 0]	n/a	FR1	0	R1431J
788.366	0.784	842084	WORD_OFF	n/a	n/a	GIRL	1	6	[0, 0, 0]	n/a	FR1	0	R1431J
789.15	1.615	842873	WORD	n/a	wordpools/wordpool_long_EN.txt	MARSH	2	6	[0, 0, 0]	n/a	FR1	0	R1431J
790.765	0.934	844490	WORD_OFF	n/a	n/a	MARSH	2	6	[0, 0, 0]	n/a	FR1	0	R1431J
791.699	1.601	845427	WORD	n/a	wordpools/wordpool_long_EN.txt	LINT	3	6	[0, 0, 0]	n/a	FR1	0	R1431J
793.3	0.966	847017	WORD_OFF	n/a	n/a	LINT	3	6	[0, 0, 0]	n/a	FR1	0	R1431J
794.266	1.6	847996	WORD	n/a	wordpools/wordpool_long_EN.txt	HILL	4	6	[0, 0, 0]	n/a	FR1	0	R1431J
795.866	0.849	849586	WORD_OFF	n/a	n/a	HILL	4	6	[0, 0, 0]	n/a	FR1	0	R1431J
796.715	1.617	850442	WORD	n/a	wordpools/wordpool_long_EN.txt	CROSS	5	6	[0, 0, 0]	n/a	FR1	0	R1431J
798.332	0.867	852059	WORD_OFF	n/a	n/a	CROSS	5	6	[0, 0, 0]	n/a	FR1	0	R1431J
799.199	1.6	852928	WORD	n/a	wordpools/wordpool_long_EN.txt	WAND	6	6	[0, 0, 0]	n/a	FR1	0	R1431J
800.799	0.851	854518	WORD_OFF	n/a	n/a	WAND	6	6	[0, 0, 0]	n/a	FR1	0	R1431J
801.65	1.6	855375	WORD	n/a	wordpools/wordpool_long_EN.txt	LACE	7	6	[0, 0, 0]	n/a	FR1	0	R1431J
803.25	0.9	856978	WORD_OFF	n/a	n/a	LACE	7	6	[0, 0, 0]	n/a	FR1	0	R1431J
804.15	1.6	857875	WORD	n/a	wordpools/wordpool_long_EN.txt	TRIBE	8	6	[0, 0, 0]	n/a	FR1	0	R1431J
805.75	0.85	859478	WORD_OFF	n/a	n/a	TRIBE	8	6	[0, 0, 0]	n/a	FR1	0	R1431J
806.6	1.616	860321	WORD	n/a	wordpools/wordpool_long_EN.txt	QUAIL	9	6	[0, 0, 0]	n/a	FR1	0	R1431J
808.216	0.85	861938	WORD_OFF	n/a	n/a	QUAIL	9	6	[0, 0, 0]	n/a	FR1	0	R1431J
809.066	1.6	862794	WORD	n/a	wordpools/wordpool_long_EN.txt	COIN	10	6	[0, 0, 0]	n/a	FR1	0	R1431J
810.666	0.883	864384	WORD_OFF	n/a	n/a	COIN	10	6	[0, 0, 0]	n/a	FR1	0	R1431J
811.549	1.6	865267	WORD	n/a	wordpools/wordpool_long_EN.txt	SWAMP	11	6	[0, 0, 0]	n/a	FR1	0	R1431J
813.149	0.817	866871	WORD_OFF	n/a	n/a	SWAMP	11	6	[0, 0, 0]	n/a	FR1	0	R1431J
813.966	1.617	867686	WORD	n/a	wordpools/wordpool_long_EN.txt	RAFT	12	6	[0, 0, 0]	n/a	FR1	0	R1431J
815.583	0.001	869303	WORD_OFF	n/a	n/a	RAFT	12	6	[0, 0, 0]	n/a	FR1	0	R1431J
815.584	0.0	869303	ENCODING_END	n/a	n/a	n/a	-999	6	[0, 0, 0]	n/a	FR1	0	R1431J
815.584	0.0	869303	DISTRACT_START	n/a	n/a	n/a	-999	6	[0, 0, 0]	n/a	FR1	0	R1431J
815.584	0.0	869309	START	n/a	n/a	n/a	-999	6	[-999, -999, -999]	n/a	FR1	0	R1431J
815.584	4.664	869309	PROB	4.664	n/a	n/a	-999	6	[4, 7, 8]	19	FR1	0	R1431J
820.248	2.318	873973	PROB	2.318	n/a	n/a	-999	6	[5, 2, 4]	11	FR1	0	R1431J
822.566	1.784	876291	PROB	1.784	n/a	n/a	-999	6	[1, 7, 7]	15	FR1	0	R1431J
824.35	1.416	878074	PROB	1.416	n/a	n/a	-999	6	[4, 6, 1]	11	FR1	0	R1431J
825.766	2.2	879490	PROB	2.2	n/a	n/a	-999	6	[4, 2, 5]	11	FR1	0	R1431J
827.966	1.835	881690	PROB	1.835	n/a	n/a	-999	6	[5, 2, 2]	9	FR1	0	R1431J
829.801	2.698	883525	PROB	2.698	n/a	n/a	-999	6	[8, 6, 5]	19	FR1	0	R1431J
832.499	1.867	886223	PROB	1.867	n/a	n/a	-999	6	[5, 6, 1]	12	FR1	0	R1431J
834.366	2.217	888090	PROB	2.217	n/a	n/a	-999	6	[2, 1, 4]	7	FR1	0	R1431J
836.583	0.0	890298	DISTRACT_END	n/a	n/a	n/a	-999	6	[0, 0, 0]	n/a	FR1	0	R1431J
836.583	1.082	890307	STOP	n/a	n/a	n/a	-999	6	[-999, -999, -999]	n/a	FR1	0	R1431J
837.665	2.565	891385	REC_START	n/a	n/a	n/a	-999	6	[0, 0, 0]	n/a	FR1	0	R1431J
840.23	3.09	893954	REC_WORD	3.09	n/a	QUAIL	9	6	[0, 0, 0]	n/a	FR1	0	R1431J
843.32	3.14	897044	REC_WORD	3.14	n/a	LIM	-999	6	[0, 0, 0]	n/a	FR1	0	R1431J
846.46	1.191	900184	REC_WORD	1.191	n/a	SWAMP	11	6	[0, 0, 0]	n/a	FR1	0	R1431J
847.651	4.255	901374	REC_WORD	4.255	n/a	RAFT	12	6	[0, 0, 0]	n/a	FR1	0	R1431J
851.906	17.023	905629	REC_WORD	17.023	n/a	LAND	-999	6	[0, 0, 0]	n/a	FR1	0	R1431J
868.929	2.02	922654	REC_END	n/a	n/a	n/a	-999	6	[0, 0, 0]	n/a	FR1	0	R1431J
870.949	10.361	924665	COUNTDOWN_START	n/a	n/a	n/a	-999	6	[0, 0, 0]	n/a	FR1	0	R1431J
881.31	0.0	935033	COUNTDOWN_END	n/a	n/a	n/a	-999	6	[0, 0, 0]	n/a	FR1	0	R1431J
881.31	2.006	935033	ENCODING_START	n/a	n/a	n/a	-999	7	[0, 0, 0]	n/a	FR1	0	R1431J
883.316	1.617	937031	WORD	n/a	wordpools/wordpool_long_EN.txt	CROWN	1	7	[0, 0, 0]	n/a	FR1	0	R1431J
884.933	0.9	938648	WORD_OFF	n/a	n/a	CROWN	1	7	[0, 0, 0]	n/a	FR1	0	R1431J
885.833	1.6	939545	WORD	n/a	wordpools/wordpool_long_EN.txt	RAIL	2	7	[0, 0, 0]	n/a	FR1	0	R1431J
887.433	0.8	941148	WORD_OFF	n/a	n/a	RAIL	2	7	[0, 0, 0]	n/a	FR1	0	R1431J
888.233	1.615	941950	WORD	n/a	wordpools/wordpool_long_EN.txt	BANK	3	7	[0, 0, 0]	n/a	FR1	0	R1431J
889.848	0.82	943567	WORD_OFF	n/a	n/a	BANK	3	7	[0, 0, 0]	n/a	FR1	0	R1431J
890.668	1.614	944383	WORD	n/a	wordpools/wordpool_long_EN.txt	ARK	4	7	[0, 0, 0]	n/a	FR1	0	R1431J
892.282	1.001	946000	WORD_OFF	n/a	n/a	ARK	4	7	[0, 0, 0]	n/a	FR1	0	R1431J
893.283	1.616	947005	WORD	n/a	wordpools/wordpool_long_EN.txt	TOY	5	7	[0, 0, 0]	n/a	FR1	0	R1431J
894.899	0.984	948622	WORD_OFF	n/a	n/a	TOY	5	7	[0, 0, 0]	n/a	FR1	0	R1431J
895.883	1.6	949601	WORD	n/a	wordpools/wordpool_long_EN.txt	CUBE	6	7	[0, 0, 0]	n/a	FR1	0	R1431J
897.483	0.833	951204	WORD_OFF	n/a	n/a	CUBE	6	7	[0, 0, 0]	n/a	FR1	0	R1431J
898.316	1.6	952033	WORD	n/a	wordpools/wordpool_long_EN.txt	FROG	7	7	[0, 0, 0]	n/a	FR1	0	R1431J
899.916	0.767	953637	WORD_OFF	n/a	n/a	FROG	7	7	[0, 0, 0]	n/a	FR1	0	R1431J
900.683	1.616	954398	WORD	n/a	wordpools/wordpool_long_EN.txt	CHILD	8	7	[0, 0, 0]	n/a	FR1	0	R1431J
902.299	0.9	956015	WORD_OFF	n/a	n/a	CHILD	8	7	[0, 0, 0]	n/a	FR1	0	R1431J
903.199	1.6	956912	WORD	n/a	wordpools/wordpool_long_EN.txt	SEAT	9	7	[0, 0, 0]	n/a	FR1	0	R1431J
904.799	1.0	958515	WORD_OFF	n/a	n/a	SEAT	9	7	[0, 0, 0]	n/a	FR1	0	R1431J
905.799	1.617	959521	WORD	n/a	wordpools/wordpool_long_EN.txt	LOCK	10	7	[0, 0, 0]	n/a	FR1	0	R1431J
907.416	0.833	961138	WORD_OFF	n/a	n/a	LOCK	10	7	[0, 0, 0]	n/a	FR1	0	R1431J
908.249	1.6	961967	WORD	n/a	wordpools/wordpool_long_EN.txt	SCHOOL	11	7	[0, 0, 0]	n/a	FR1	0	R1431J
909.849	0.967	963570	WORD_OFF	n/a	n/a	SCHOOL	11	7	[0, 0, 0]	n/a	FR1	0	R1431J
910.816	1.6	964535	WORD	n/a	wordpools/wordpool_long_EN.txt	TWIG	12	7	[0, 0, 0]	n/a	FR1	0	R1431J
912.416	0.001	966137	PROB	0.001	n/a	n/a	-999	7	[1, 8, 2]	11	FR1	0	R1431J
912.417	0.0	966138	START	n/a	n/a	n/a	-999	7	[-999, -999, -999]	n/a	FR1	0	R1431J
912.415	0.002	966139	WORD_OFF	n/a	n/a	TWIG	12	7	[0, 0, 0]	n/a	FR1	0	R1431J
912.417	0.0	966139	ENCODING_END	n/a	n/a	n/a	-999	7	[0, 0, 0]	n/a	FR1	0	R1431J
912.417	2.632	966139	DISTRACT_START	n/a	n/a	n/a	-999	7	[0, 0, 0]	n/a	FR1	0	R1431J
915.049	1.65	968770	PROB	1.65	n/a	n/a	-999	7	[5, 5, 1]	11	FR1	0	R1431J
916.699	5.084	970420	PROB	5.084	n/a	n/a	-999	7	[8, 8, 6]	22	FR1	0	R1431J
921.783	2.417	975503	PROB	2.417	n/a	n/a	-999	7	[6, 2, 8]	16	FR1	0	R1431J
924.2	2.416	977920	PROB	2.416	n/a	n/a	-999	7	[4, 7, 6]	17	FR1	0	R1431J
926.616	1.949	980336	PROB	1.949	n/a	n/a	-999	7	[4, 4, 3]	11	FR1	0	R1431J
928.565	2.367	982285	PROB	2.367	n/a	n/a	-999	7	[4, 6, 5]	15	FR1	0	R1431J
930.932	3.833	984652	PROB	3.833	n/a	n/a	-999	7	[6, 8, 7]	21	FR1	0	R1431J
934.765	0.0	988479	DISTRACT_END	n/a	n/a	n/a	-999	7	[0, 0, 0]	n/a	FR1	0	R1431J
934.765	1.25	988485	STOP	n/a	n/a	n/a	-999	7	[-999, -999, -999]	n/a	FR1	0	R1431J
936.015	0.66	989729	REC_START	n/a	n/a	n/a	-999	7	[0, 0, 0]	n/a	FR1	0	R1431J
936.675	0.405	990395	REC_WORD	0.405	n/a	CROWN	1	7	[0, 0, 0]	n/a	FR1	0	R1431J
937.08	4.28	990800	REC_WORD	4.28	n/a	RAIL	2	7	[0, 0, 0]	n/a	FR1	0	R1431J
941.36	25.926	995080	REC_WORD	25.926	n/a	ARK	4	7	[0, 0, 0]	n/a	FR1	0	R1431J
967.286	1.447	1020998	REC_END	n/a	n/a	n/a	-999	7	[0, 0, 0]	n/a	FR1	0	R1431J
968.733	10.361	1022452	COUNTDOWN_START	n/a	n/a	n/a	-999	7	[0, 0, 0]	n/a	FR1	0	R1431J
979.094	0.0	1032806	COUNTDOWN_END	n/a	n/a	n/a	-999	7	[0, 0, 0]	n/a	FR1	0	R1431J
979.094	2.324	1032806	ENCODING_START	n/a	n/a	n/a	-999	8	[0, 0, 0]	n/a	FR1	0	R1431J
981.418	1.615	1035130	WORD	n/a	wordpools/wordpool_long_EN.txt	BLUSH	1	8	[0, 0, 0]	n/a	FR1	0	R1431J
983.033	0.883	1036747	WORD_OFF	n/a	n/a	BLUSH	1	8	[0, 0, 0]	n/a	FR1	0	R1431J
983.916	1.6	1037631	WORD	n/a	wordpools/wordpool_long_EN.txt	ARCH	2	8	[0, 0, 0]	n/a	FR1	0	R1431J
985.516	0.8	1039234	WORD_OFF	n/a	n/a	ARCH	2	8	[0, 0, 0]	n/a	FR1	0	R1431J
986.316	1.6	1040036	WORD	n/a	wordpools/wordpool_long_EN.txt	SKY	3	8	[0, 0, 0]	n/a	FR1	0	R1431J
987.916	0.95	1041626	WORD_OFF	n/a	n/a	SKY	3	8	[0, 0, 0]	n/a	FR1	0	R1431J
988.866	1.616	1042577	WORD	n/a	wordpools/wordpool_long_EN.txt	KEY	4	8	[0, 0, 0]	n/a	FR1	0	R1431J
990.482	0.784	1044194	WORD_OFF	n/a	n/a	KEY	4	8	[0, 0, 0]	n/a	FR1	0	R1431J
991.266	1.617	1044982	WORD	n/a	wordpools/wordpool_long_EN.txt	HOLE	5	8	[0, 0, 0]	n/a	FR1	0	R1431J
992.883	0.966	1046599	WORD_OFF	n/a	n/a	HOLE	5	8	[0, 0, 0]	n/a	FR1	0	R1431J
993.849	1.601	1047564	WORD	n/a	wordpools/wordpool_long_EN.txt	CLAM	6	8	[0, 0, 0]	n/a	FR1	0	R1431J
995.45	0.899	1049168	WORD_OFF	n/a	n/a	CLAM	6	8	[0, 0, 0]	n/a	FR1	0	R1431J
996.349	1.6	1050065	WORD	n/a	wordpools/wordpool_long_EN.txt	SEED	7	8	[0, 0, 0]	n/a	FR1	0	R1431J
997.949	0.834	1051668	WORD_OFF	n/a	n/a	SEED	7	8	[0, 0, 0]	n/a	FR1	0	R1431J
998.783	1.617	1052497	WORD	n/a	wordpools/wordpool_long_EN.txt	GEESE	8	8	[0, 0, 0]	n/a	FR1	0	R1431J
1000.4	0.799	1054114	WORD_OFF	n/a	n/a	GEESE	8	8	[0, 0, 0]	n/a	FR1	0	R1431J
1001.199	1.617	1054916	WORD	n/a	wordpools/wordpool_long_EN.txt	GREASE	9	8	[0, 0, 0]	n/a	FR1	0	R1431J
1002.816	0.967	1056533	WORD_OFF	n/a	n/a	GREASE	9	8	[0, 0, 0]	n/a	FR1	0	R1431J
1003.783	1.615	1057498	WORD	n/a	wordpools/wordpool_long_EN.txt	ROPE	10	8	[0, 0, 0]	n/a	FR1	0	R1431J
1005.398	0.868	1059115	WORD_OFF	n/a	n/a	ROPE	10	8	[0, 0, 0]	n/a	FR1	0	R1431J
1006.266	1.6	1059985	WORD	n/a	wordpools/wordpool_long_EN.txt	PASTE	11	8	[0, 0, 0]	n/a	FR1	0	R1431J
1007.866	0.8	1061574	WORD_OFF	n/a	n/a	PASTE	11	8	[0, 0, 0]	n/a	FR1	0	R1431J
1008.666	1.6	1062376	WORD	n/a	wordpools/wordpool_long_EN.txt	CARD	12	8	[0, 0, 0]	n/a	FR1	0	R1431J
1010.266	0.0	1063980	WORD_OFF	n/a	n/a	CARD	12	8	[0, 0, 0]	n/a	FR1	0	R1431J
1010.266	0.0	1063980	ENCODING_END	n/a	n/a	n/a	-999	8	[0, 0, 0]	n/a	FR1	0	R1431J
1010.266	0.0	1063980	DISTRACT_START	n/a	n/a	n/a	-999	8	[0, 0, 0]	n/a	FR1	0	R1431J
1010.266	0.001	1063983	START	n/a	n/a	n/a	-999	8	[-999, -999, -999]	n/a	FR1	0	R1431J
1010.267	2.966	1063984	PROB	2.966	n/a	n/a	-999	8	[5, 8, 4]	17	FR1	0	R1431J
1013.233	2.433	1066950	PROB	2.433	n/a	n/a	-999	8	[4, 2, 4]	10	FR1	0	R1431J
1015.666	1.884	1069383	PROB	1.884	n/a	n/a	-999	8	[5, 7, 7]	19	FR1	0	R1431J
1017.55	1.734	1071266	PROB	1.734	n/a	n/a	-999	8	[8, 3, 1]	12	FR1	0	R1431J
1019.284	2.149	1073000	PROB	2.149	n/a	n/a	-999	8	[4, 4, 7]	15	FR1	0	R1431J
1021.433	2.767	1075149	PROB	2.767	n/a	n/a	-999	8	[2, 5, 8]	15	FR1	0	R1431J
1024.2	2.732	1077916	PROB	2.732	n/a	n/a	-999	8	[8, 2, 6]	16	FR1	0	R1431J
1026.932	2.95	1080648	PROB	2.95	n/a	n/a	-999	8	[5, 6, 8]	19	FR1	0	R1431J
1029.882	1.783	1083598	PROB	1.783	n/a	n/a	-999	8	[6, 5, 3]	14	FR1	0	R1431J
1031.665	0.0	1085381	STOP	n/a	n/a	n/a	-999	8	[-999, -999, -999]	n/a	FR1	0	R1431J
1031.665	1.234	1085382	DISTRACT_END	n/a	n/a	n/a	-999	8	[0, 0, 0]	n/a	FR1	0	R1431J
1032.899	0.615	1086605	REC_START	n/a	n/a	n/a	-999	8	[0, 0, 0]	n/a	FR1	0	R1431J
1033.514	2.31	1087230	REC_WORD	2.31	n/a	ARCH	2	8	[0, 0, 0]	n/a	FR1	0	R1431J
1035.824	10.435	1089540	REC_WORD	10.435	n/a	BLUSH	1	8	[0, 0, 0]	n/a	FR1	0	R1431J
1046.259	3.585	1099974	REC_WORD	3.585	n/a	HOLE	5	8	[0, 0, 0]	n/a	FR1	0	R1431J
1049.844	14.294	1103559	REC_WORD	14.294	n/a	CLAM	6	8	[0, 0, 0]	n/a	FR1	0	R1431J
1064.138	1.312	1117847	REC_END	n/a	n/a	n/a	-999	8	[0, 0, 0]	n/a	FR1	0	R1431J
1065.45	10.361	1119165	COUNTDOWN_START	n/a	n/a	n/a	-999	8	[0, 0, 0]	n/a	FR1	0	R1431J
1075.811	0.0	1129520	COUNTDOWN_END	n/a	n/a	n/a	-999	8	[0, 0, 0]	n/a	FR1	0	R1431J
1075.811	2.121	1129520	ENCODING_START	n/a	n/a	n/a	-999	9	[0, 0, 0]	n/a	FR1	0	R1431J
1077.932	1.601	1131640	WORD	n/a	wordpools/wordpool_long_EN.txt	LAWN	1	9	[0, 0, 0]	n/a	FR1	0	R1431J
1079.533	0.767	1133243	WORD_OFF	n/a	n/a	LAWN	1	9	[0, 0, 0]	n/a	FR1	0	R1431J
1080.3	1.6	1134004	WORD	n/a	wordpools/wordpool_long_EN.txt	PIN	2	9	[0, 0, 0]	n/a	FR1	0	R1431J
1081.9	0.8	1135608	WORD_OFF	n/a	n/a	PIN	2	9	[0, 0, 0]	n/a	FR1	0	R1431J
1082.7	1.6	1136409	WORD	n/a	wordpools/wordpool_long_EN.txt	BAND	3	9	[0, 0, 0]	n/a	FR1	0	R1431J
1084.3	0.982	1138013	WORD_OFF	n/a	n/a	BAND	3	9	[0, 0, 0]	n/a	FR1	0	R1431J
1085.282	1.601	1138991	WORD	n/a	wordpools/wordpool_long_EN.txt	BAT	4	9	[0, 0, 0]	n/a	FR1	0	R1431J
1086.883	0.883	1140595	WORD_OFF	n/a	n/a	BAT	4	9	[0, 0, 0]	n/a	FR1	0	R1431J
1087.766	1.6	1141478	WORD	n/a	wordpools/wordpool_long_EN.txt	APE	5	9	[0, 0, 0]	n/a	FR1	0	R1431J
1089.366	0.967	1143081	WORD_OFF	n/a	n/a	APE	5	9	[0, 0, 0]	n/a	FR1	0	R1431J
1090.333	1.616	1144046	WORD	n/a	wordpools/wordpool_long_EN.txt	BRICK	6	9	[0, 0, 0]	n/a	FR1	0	R1431J
1091.949	0.95	1145663	WORD_OFF	n/a	n/a	BRICK	6	9	[0, 0, 0]	n/a	FR1	0	R1431J
1092.899	1.6	1146615	WORD	n/a	wordpools/wordpool_long_EN.txt	CLIFF	7	9	[0, 0, 0]	n/a	FR1	0	R1431J
1094.499	0.834	1148204	WORD_OFF	n/a	n/a	CLIFF	7	9	[0, 0, 0]	n/a	FR1	0	R1431J
1095.333	1.615	1149047	WORD	n/a	wordpools/wordpool_long_EN.txt	SMOG	8	9	[0, 0, 0]	n/a	FR1	0	R1431J
1096.948	0.952	1150664	WORD_OFF	n/a	n/a	SMOG	8	9	[0, 0, 0]	n/a	FR1	0	R1431J
1097.9	1.616	1151615	WORD	n/a	wordpools/wordpool_long_EN.txt	TOAD	9	9	[0, 0, 0]	n/a	FR1	0	R1431J
1099.516	0.883	1153232	WORD_OFF	n/a	n/a	TOAD	9	9	[0, 0, 0]	n/a	FR1	0	R1431J
1100.399	1.6	1154116	WORD	n/a	wordpools/wordpool_long_EN.txt	SMOKE	10	9	[0, 0, 0]	n/a	FR1	0	R1431J
1101.999	0.95	1155706	WORD_OFF	n/a	n/a	SMOKE	10	9	[0, 0, 0]	n/a	FR1	0	R1431J
1102.949	1.617	1156657	WORD	n/a	wordpools/wordpool_long_EN.txt	BUG	11	9	[0, 0, 0]	n/a	FR1	0	R1431J
1104.566	0.883	1158274	WORD_OFF	n/a	n/a	BUG	11	9	[0, 0, 0]	n/a	FR1	0	R1431J
1105.449	1.617	1159157	WORD	n/a	wordpools/wordpool_long_EN.txt	SEA	12	9	[0, 0, 0]	n/a	FR1	0	R1431J
1107.066	0.001	1160774	WORD_OFF	n/a	n/a	SEA	12	9	[0, 0, 0]	n/a	FR1	0	R1431J
1107.067	0.0	1160774	ENCODING_END	n/a	n/a	n/a	-999	9	[0, 0, 0]	n/a	FR1	0	R1431J
1107.067	0.0	1160774	DISTRACT_START	n/a	n/a	n/a	-999	9	[0, 0, 0]	n/a	FR1	0	R1431J
1107.066	0.001	1160779	PROB	0.001	n/a	n/a	-999	9	[2, 7, 6]	15	FR1	0	R1431J
1107.067	2.415	1160780	START	n/a	n/a	n/a	-999	9	[-999, -999, -999]	n/a	FR1	0	R1431J
1109.482	2.584	1163195	PROB	2.584	n/a	n/a	-999	9	[5, 3, 2]	10	FR1	0	R1431J
1112.066	1.916	1165779	PROB	1.916	n/a	n/a	-999	9	[3, 2, 3]	9	FR1	0	R1431J
1113.982	2.134	1167694	PROB	2.134	n/a	n/a	-999	9	[2, 8, 8]	18	FR1	0	R1431J
1116.116	2.583	1169828	PROB	2.583	n/a	n/a	-999	9	[6, 2, 3]	11	FR1	0	R1431J
1118.699	2.333	1172411	PROB	2.333	n/a	n/a	-999	9	[5, 5, 6]	16	FR1	0	R1431J
1121.032	2.55	1174744	PROB	2.55	n/a	n/a	-999	9	[2, 4, 4]	10	FR1	0	R1431J
1123.582	2.75	1177294	PROB	2.75	n/a	n/a	-999	9	[7, 3, 5]	15	FR1	0	R1431J
1126.332	2.7	1180044	PROB	2.7	n/a	n/a	-999	9	[4, 2, 3]	9	FR1	0	R1431J
1129.032	0.0	1182734	DISTRACT_END	n/a	n/a	n/a	-999	9	[0, 0, 0]	n/a	FR1	0	R1431J
1129.032	1.183	1182744	STOP	n/a	n/a	n/a	-999	9	[-999, -999, -999]	n/a	FR1	0	R1431J
1130.215	0.855	1183930	REC_START	n/a	n/a	n/a	-999	9	[0, 0, 0]	n/a	FR1	0	R1431J
1131.07	2.365	1184782	REC_WORD	2.365	n/a	SMOG	8	9	[0, 0, 0]	n/a	FR1	0	R1431J
1133.435	8.8	1187147	REC_WORD	8.8	n/a	LAWN	1	9	[0, 0, 0]	n/a	FR1	0	R1431J
1142.235	19.21	1195946	REC_WORD	19.21	n/a	BRICK	6	9	[0, 0, 0]	n/a	FR1	0	R1431J
1161.445	1.004	1215158	REC_END	n/a	n/a	n/a	-999	9	[0, 0, 0]	n/a	FR1	0	R1431J
1162.449	10.362	1216163	COUNTDOWN_START	n/a	n/a	n/a	-999	9	[0, 0, 0]	n/a	FR1	0	R1431J
1172.811	0.0	1226518	COUNTDOWN_END	n/a	n/a	n/a	-999	9	[0, 0, 0]	n/a	FR1	0	R1431J
1172.811	2.089	1226518	ENCODING_START	n/a	n/a	n/a	-999	10	[0, 0, 0]	n/a	FR1	0	R1431J
1174.9	1.616	1228611	WORD	n/a	wordpools/wordpool_long_EN.txt	STRING	1	10	[0, 0, 0]	n/a	FR1	0	R1431J
1176.516	0.983	1230228	WORD_OFF	n/a	n/a	STRING	1	10	[0, 0, 0]	n/a	FR1	0	R1431J
1177.499	1.6	1231206	WORD	n/a	wordpools/wordpool_long_EN.txt	EEL	2	10	[0, 0, 0]	n/a	FR1	0	R1431J
1179.099	0.867	1232810	WORD_OFF	n/a	n/a	EEL	2	10	[0, 0, 0]	n/a	FR1	0	R1431J
1179.966	1.616	1233680	WORD	n/a	wordpools/wordpool_long_EN.txt	FLAME	3	10	[0, 0, 0]	n/a	FR1	0	R1431J
1181.582	0.917	1235283	WORD_OFF	n/a	n/a	FLAME	3	10	[0, 0, 0]	n/a	FR1	0	R1431J
1182.499	1.6	1236207	WORD	n/a	wordpools/wordpool_long_EN.txt	WOOD	4	10	[0, 0, 0]	n/a	FR1	0	R1431J
1184.099	0.783	1237811	WORD_OFF	n/a	n/a	WOOD	4	10	[0, 0, 0]	n/a	FR1	0	R1431J
1184.882	1.601	1238585	WORD	n/a	wordpools/wordpool_long_EN.txt	CRANE	5	10	[0, 0, 0]	n/a	FR1	0	R1431J
1186.483	0.85	1240189	WORD_OFF	n/a	n/a	CRANE	5	10	[0, 0, 0]	n/a	FR1	0	R1431J
1187.333	1.6	1241045	WORD	n/a	wordpools/wordpool_long_EN.txt	HEDGE	6	10	[0, 0, 0]	n/a	FR1	0	R1431J
1188.933	0.883	1242635	WORD_OFF	n/a	n/a	HEDGE	6	10	[0, 0, 0]	n/a	FR1	0	R1431J
1189.816	1.617	1243518	WORD	n/a	wordpools/wordpool_long_EN.txt	JAR	7	10	[0, 0, 0]	n/a	FR1	0	R1431J
1191.433	0.833	1245135	WORD_OFF	n/a	n/a	JAR	7	10	[0, 0, 0]	n/a	FR1	0	R1431J
1192.266	1.6	1245978	WORD	n/a	wordpools/wordpool_long_EN.txt	DIME	8	10	[0, 0, 0]	n/a	FR1	0	R1431J
1193.866	0.833	1247568	WORD_OFF	n/a	n/a	DIME	8	10	[0, 0, 0]	n/a	FR1	0	R1431J
1194.699	1.6	1248410	WORD	n/a	wordpools/wordpool_long_EN.txt	GIFT	9	10	[0, 0, 0]	n/a	FR1	0	R1431J
1196.299	0.9	1250000	WORD_OFF	n/a	n/a	GIFT	9	10	[0, 0, 0]	n/a	FR1	0	R1431J
1197.199	1.6	1250910	WORD	n/a	wordpools/wordpool_long_EN.txt	SIGN	10	10	[0, 0, 0]	n/a	FR1	0	R1431J
1198.799	0.95	1252500	WORD_OFF	n/a	n/a	SIGN	10	10	[0, 0, 0]	n/a	FR1	0	R1431J
1199.749	1.6	1253452	WORD	n/a	wordpools/wordpool_long_EN.txt	CANE	11	10	[0, 0, 0]	n/a	FR1	0	R1431J
1201.349	0.867	1255055	WORD_OFF	n/a	n/a	CANE	11	10	[0, 0, 0]	n/a	FR1	0	R1431J
1202.216	1.617	1255925	WORD	n/a	wordpools/wordpool_long_EN.txt	GOLD	12	10	[0, 0, 0]	n/a	FR1	0	R1431J
1203.833	0.001	1257542	WORD_OFF	n/a	n/a	GOLD	12	10	[0, 0, 0]	n/a	FR1	0	R1431J
1203.834	0.0	1257542	ENCODING_END	n/a	n/a	n/a	-999	10	[0, 0, 0]	n/a	FR1	0	R1431J
1203.834	0.0	1257542	DISTRACT_START	n/a	n/a	n/a	-999	10	[0, 0, 0]	n/a	FR1	0	R1431J
1203.833	0.001	1257542	PROB	0.001	n/a	n/a	-999	10	[4, 7, 8]	19	FR1	0	R1431J
1203.834	3.433	1257543	START	n/a	n/a	n/a	-999	10	[-999, -999, -999]	n/a	FR1	0	R1431J
1207.267	2.083	1260976	PROB	2.083	n/a	n/a	-999	10	[8, 7, 3]	18	FR1	0	R1431J
1209.35	2.166	1263058	PROB	2.166	n/a	n/a	-999	10	[3, 4, 8]	15	FR1	0	R1431J
1211.516	2.151	1265224	PROB	2.151	n/a	n/a	-999	10	[3, 4, 3]	10	FR1	0	R1431J
1213.667	1.716	1267375	PROB	1.716	n/a	n/a	-999	10	[2, 7, 1]	10	FR1	0	R1431J
1215.383	1.849	1269091	PROB	1.849	n/a	n/a	-999	10	[8, 3, 8]	19	FR1	0	R1431J
1217.232	2.867	1270940	PROB	2.867	n/a	n/a	-999	10	[4, 7, 5]	16	FR1	0	R1431J
1220.099	3.317	1273807	PROB	3.317	n/a	n/a	-999	10	[5, 6, 8]	19	FR1	0	R1431J
1223.416	2.716	1277124	PROB	2.716	n/a	n/a	-999	10	[7, 8, 3]	18	FR1	0	R1431J
1226.132	0.0	1279840	STOP	n/a	n/a	n/a	-999	10	[-999, -999, -999]	n/a	FR1	0	R1431J
1226.132	1.367	1279841	DISTRACT_END	n/a	n/a	n/a	-999	10	[0, 0, 0]	n/a	FR1	0	R1431J
1227.499	0.71	1281200	REC_START	n/a	n/a	n/a	-999	10	[0, 0, 0]	n/a	FR1	0	R1431J
1228.209	2.425	1281917	REC_WORD	2.425	n/a	FIRE	-999	10	[0, 0, 0]	n/a	FR1	0	R1431J
1230.634	2.795	1284342	REC_WORD	2.795	n/a	CRANE	5	10	[0, 0, 0]	n/a	FR1	0	R1431J
1233.429	0.701	1287136	REC_WORD	0.701	n/a	HEDGE	6	10	[0, 0, 0]	n/a	FR1	0	R1431J
1234.13	2.784	1287837	REC_WORD	2.784	n/a	JAR	7	10	[0, 0, 0]	n/a	FR1	0	R1431J
1236.914	21.82	1290621	REC_WORD	21.82	n/a	WOOD	4	10	[0, 0, 0]	n/a	FR1	0	R1431J
1258.734	0.599	1312442	REC_END	n/a	n/a	n/a	-999	10	[0, 0, 0]	n/a	FR1	0	R1431J
1259.333	10.361	1313039	COUNTDOWN_START	n/a	n/a	n/a	-999	10	[0, 0, 0]	n/a	FR1	0	R1431J
1269.694	0.0	1323394	COUNTDOWN_END	n/a	n/a	n/a	-999	10	[0, 0, 0]	n/a	FR1	0	R1431J
1269.694	2.206	1323394	ENCODING_START	n/a	n/a	n/a	-999	11	[0, 0, 0]	n/a	FR1	0	R1431J
1271.9	1.6	1325609	WORD	n/a	wordpools/wordpool_long_EN.txt	PRINCE	1	11	[0, 0, 0]	n/a	FR1	0	R1431J
1273.5	0.916	1327199	WORD_OFF	n/a	n/a	PRINCE	1	11	[0, 0, 0]	n/a	FR1	0	R1431J
1274.416	1.617	1328123	WORD	n/a	wordpools/wordpool_long_EN.txt	PAIL	2	11	[0, 0, 0]	n/a	FR1	0	R1431J
1276.033	0.9	1329740	WORD_OFF	n/a	n/a	PAIL	2	11	[0, 0, 0]	n/a	FR1	0	R1431J
1276.933	1.616	1330637	WORD	n/a	wordpools/wordpool_long_EN.txt	JUDGE	3	11	[0, 0, 0]	n/a	FR1	0	R1431J
1278.549	0.934	1332254	WORD_OFF	n/a	n/a	JUDGE	3	11	[0, 0, 0]	n/a	FR1	0	R1431J
1279.483	1.617	1333192	WORD	n/a	wordpools/wordpool_long_EN.txt	PEARL	4	11	[0, 0, 0]	n/a	FR1	0	R1431J
1281.1	0.782	1334809	WORD_OFF	n/a	n/a	PEARL	4	11	[0, 0, 0]	n/a	FR1	0	R1431J
1281.882	1.618	1335584	WORD	n/a	wordpools/wordpool_long_EN.txt	SUN	5	11	[0, 0, 0]	n/a	FR1	0	R1431J
1283.5	0.916	1337201	WORD_OFF	n/a	n/a	SUN	5	11	[0, 0, 0]	n/a	FR1	0	R1431J
1284.416	1.6	1338111	WORD	n/a	wordpools/wordpool_long_EN.txt	VAULT	6	11	[0, 0, 0]	n/a	FR1	0	R1431J
1286.016	0.883	1339715	WORD_OFF	n/a	n/a	VAULT	6	11	[0, 0, 0]	n/a	FR1	0	R1431J
1286.899	1.6	1340598	WORD	n/a	wordpools/wordpool_long_EN.txt	BEAN	7	11	[0, 0, 0]	n/a	FR1	0	R1431J
1288.499	0.817	1342201	WORD_OFF	n/a	n/a	BEAN	7	11	[0, 0, 0]	n/a	FR1	0	R1431J
1289.316	1.6	1343017	WORD	n/a	wordpools/wordpool_long_EN.txt	FLEET	8	11	[0, 0, 0]	n/a	FR1	0	R1431J
1290.916	0.967	1344620	WORD_OFF	n/a	n/a	FLEET	8	11	[0, 0, 0]	n/a	FR1	0	R1431J
1291.883	1.6	1345585	WORD	n/a	wordpools/wordpool_long_EN.txt	THIEF	9	11	[0, 0, 0]	n/a	FR1	0	R1431J
1293.483	0.899	1347189	WORD_OFF	n/a	n/a	THIEF	9	11	[0, 0, 0]	n/a	FR1	0	R1431J
1294.382	1.601	1348086	WORD	n/a	wordpools/wordpool_long_EN.txt	STRAW	10	11	[0, 0, 0]	n/a	FR1	0	R1431J
1295.983	0.816	1349689	WORD_OFF	n/a	n/a	STRAW	10	11	[0, 0, 0]	n/a	FR1	0	R1431J
1296.799	1.6	1350504	WORD	n/a	wordpools/wordpool_long_EN.txt	SLIDE	11	11	[0, 0, 0]	n/a	FR1	0	R1431J
1298.399	0.917	1352094	WORD_OFF	n/a	n/a	SLIDE	11	11	[0, 0, 0]	n/a	FR1	0	R1431J
1299.316	1.617	1353018	WORD	n/a	wordpools/wordpool_long_EN.txt	WASP	12	11	[0, 0, 0]	n/a	FR1	0	R1431J
1300.933	0.0	1354635	WORD_OFF	n/a	n/a	WASP	12	11	[0, 0, 0]	n/a	FR1	0	R1431J
1300.933	0.0	1354635	ENCODING_END	n/a	n/a	n/a	-999	11	[0, 0, 0]	n/a	FR1	0	R1431J
1300.933	0.0	1354635	DISTRACT_START	n/a	n/a	n/a	-999	11	[0, 0, 0]	n/a	FR1	0	R1431J
1300.933	0.0	1354638	START	n/a	n/a	n/a	-999	11	[-999, -999, -999]	n/a	FR1	0	R1431J
1300.933	2.484	1354638	PROB	2.484	n/a	n/a	-999	11	[1, 6, 1]	8	FR1	0	R1431J
1303.417	2.383	1357122	PROB	2.383	n/a	n/a	-999	11	[4, 8, 6]	18	FR1	0	R1431J
1305.8	2.533	1359504	PROB	2.533	n/a	n/a	-999	11	[8, 4, 3]	14	FR1	0	R1431J
1308.333	1.701	1362037	PROB	1.701	n/a	n/a	-999	11	[1, 7, 1]	9	FR1	0	R1431J
1310.034	3.416	1363738	PROB	3.416	n/a	n/a	-999	11	[7, 1, 2]	10	FR1	0	R1431J
1313.45	2.683	1367154	PROB	2.683	n/a	n/a	-999	11	[3, 7, 6]	16	FR1	0	R1431J
1316.133	2.583	1369837	PROB	2.583	n/a	n/a	-999	11	[8, 1, 6]	15	FR1	0	R1431J
1318.716	3.383	1372420	PROB	3.383	n/a	n/a	-999	11	[6, 7, 5]	18	FR1	0	R1431J
1322.099	0.0	1375794	DISTRACT_END	n/a	n/a	n/a	-999	11	[0, 0, 0]	n/a	FR1	0	R1431J
1322.099	1.133	1375803	STOP	n/a	n/a	n/a	-999	11	[-999, -999, -999]	n/a	FR1	0	R1431J
1323.232	0.265	1376935	REC_START	n/a	n/a	n/a	-999	11	[0, 0, 0]	n/a	FR1	0	R1431J
1323.497	12.85	1377201	REC_WORD	12.85	n/a	JUDGE	3	11	[0, 0, 0]	n/a	FR1	0	R1431J
1336.347	1.8	1390050	REC_WORD_VV	1.8	n/a	<>	-999	11	[0, 0, 0]	n/a	FR1	0	R1431J
1338.147	16.329	1391850	REC_WORD	16.329	n/a	WASP	12	11	[0, 0, 0]	n/a	FR1	0	R1431J
1354.476	1.758	1408176	REC_END	n/a	n/a	n/a	-999	11	[0, 0, 0]	n/a	FR1	0	R1431J
1356.234	10.36	1409929	COUNTDOWN_START	n/a	n/a	n/a	-999	11	[0, 0, 0]	n/a	FR1	0	R1431J
1366.594	0.0	1420298	COUNTDOWN_END	n/a	n/a	n/a	-999	11	[0, 0, 0]	n/a	FR1	0	R1431J
1366.594	2.157	1420298	ENCODING_START	n/a	n/a	n/a	-999	12	[0, 0, 0]	n/a	FR1	0	R1431J
1368.751	1.599	1422445	WORD	n/a	wordpools/wordpool_long_EN.txt	PALM	1	12	[0, 0, 0]	n/a	FR1	0	R1431J
1370.35	0.8	1424048	WORD_OFF	n/a	n/a	PALM	1	12	[0, 0, 0]	n/a	FR1	0	R1431J
1371.15	1.6	1424850	WORD	n/a	wordpools/wordpool_long_EN.txt	SOAP	2	12	[0, 0, 0]	n/a	FR1	0	R1431J
1372.75	0.966	1426453	WORD_OFF	n/a	n/a	SOAP	2	12	[0, 0, 0]	n/a	FR1	0	R1431J
1373.716	1.6	1427418	WORD	n/a	wordpools/wordpool_long_EN.txt	PIT	3	12	[0, 0, 0]	n/a	FR1	0	R1431J
1375.316	0.8	1429008	WORD_OFF	n/a	n/a	PIT	3	12	[0, 0, 0]	n/a	FR1	0	R1431J
1376.116	1.617	1429810	WORD	n/a	wordpools/wordpool_long_EN.txt	POOL	4	12	[0, 0, 0]	n/a	FR1	0	R1431J
1377.733	0.9	1431427	WORD_OFF	n/a	n/a	POOL	4	12	[0, 0, 0]	n/a	FR1	0	R1431J
1378.633	1.617	1432338	WORD	n/a	wordpools/wordpool_long_EN.txt	SHELL	5	12	[0, 0, 0]	n/a	FR1	0	R1431J
1380.25	0.882	1433955	WORD_OFF	n/a	n/a	SHELL	5	12	[0, 0, 0]	n/a	FR1	0	R1431J
1381.132	1.601	1434824	WORD	n/a	wordpools/wordpool_long_EN.txt	SOUP	6	12	[0, 0, 0]	n/a	FR1	0	R1431J
1382.733	0.966	1436428	WORD_OFF	n/a	n/a	SOUP	6	12	[0, 0, 0]	n/a	FR1	0	R1431J
1383.699	1.617	1437393	WORD	n/a	wordpools/wordpool_long_EN.txt	FOX	7	12	[0, 0, 0]	n/a	FR1	0	R1431J
1385.316	0.817	1439010	WORD_OFF	n/a	n/a	FOX	7	12	[0, 0, 0]	n/a	FR1	0	R1431J
1386.133	1.617	1439825	WORD	n/a	wordpools/wordpool_long_EN.txt	DOG	8	12	[0, 0, 0]	n/a	FR1	0	R1431J
1387.75	0.983	1441442	WORD_OFF	n/a	n/a	DOG	8	12	[0, 0, 0]	n/a	FR1	0	R1431J
1388.733	1.616	1442434	WORD	n/a	wordpools/wordpool_long_EN.txt	DUST	9	12	[0, 0, 0]	n/a	FR1	0	R1431J
1390.349	0.784	1444051	WORD_OFF	n/a	n/a	DUST	9	12	[0, 0, 0]	n/a	FR1	0	R1431J
1391.133	1.6	1444826	WORD	n/a	wordpools/wordpool_long_EN.txt	MOUSE	10	12	[0, 0, 0]	n/a	FR1	0	R1431J
1392.733	0.85	1446429	WORD_OFF	n/a	n/a	MOUSE	10	12	[0, 0, 0]	n/a	FR1	0	R1431J
1393.583	1.6	1447285	WORD	n/a	wordpools/wordpool_long_EN.txt	WING	11	12	[0, 0, 0]	n/a	FR1	0	R1431J
1395.183	0.982	1448875	WORD_OFF	n/a	n/a	WING	11	12	[0, 0, 0]	n/a	FR1	0	R1431J
1396.165	1.601	1449867	WORD	n/a	wordpools/wordpool_long_EN.txt	VINE	12	12	[0, 0, 0]	n/a	FR1	0	R1431J
1397.766	0.001	1451457	WORD_OFF	n/a	n/a	VINE	12	12	[0, 0, 0]	n/a	FR1	0	R1431J
1397.767	0.0	1451468	START	n/a	n/a	n/a	-999	12	[-999, -999, -999]	n/a	FR1	0	R1431J
1397.767	0.0	1451468	PROB	0.0	n/a	n/a	-999	12	[7, 5, 5]	17	FR1	0	R1431J
1397.767	0.0	1451471	ENCODING_END	n/a	n/a	n/a	-999	12	[0, 0, 0]	n/a	FR1	0	R1431J
1397.767	2.3	1451471	DISTRACT_START	n/a	n/a	n/a	-999	12	[0, 0, 0]	n/a	FR1	0	R1431J
1400.067	2.015	1453768	PROB	2.015	n/a	n/a	-999	12	[8, 7, 1]	16	FR1	0	R1431J
1402.082	1.951	1455782	PROB	1.951	n/a	n/a	-999	12	[6, 4, 5]	15	FR1	0	R1431J
1404.033	1.8	1457733	PROB	1.8	n/a	n/a	-999	12	[7, 1, 2]	10	FR1	0	R1431J
1405.833	2.65	1459533	PROB	2.65	n/a	n/a	-999	12	[1, 6, 3]	11	FR1	0	R1431J
1408.483	3.3	1462183	PROB	3.3	n/a	n/a	-999	12	[2, 3, 4]	9	FR1	0	R1431J
1411.783	1.717	1465483	PROB	1.717	n/a	n/a	-999	12	[4, 4, 4]	12	FR1	0	R1431J
1413.5	2.267	1467200	PROB	2.267	n/a	n/a	-999	12	[1, 5, 3]	9	FR1	0	R1431J
1415.767	3.182	1469467	PROB	3.182	n/a	n/a	-999	12	[1, 5, 7]	13	FR1	0	R1431J
1418.949	0.0	1472643	DISTRACT_END	n/a	n/a	n/a	-999	12	[0, 0, 0]	n/a	FR1	0	R1431J
1418.949	1.05	1472649	STOP	n/a	n/a	n/a	-999	12	[-999, -999, -999]	n/a	FR1	0	R1431J
1419.999	2.205	1473703	REC_START	n/a	n/a	n/a	-999	12	[0, 0, 0]	n/a	FR1	0	R1431J
1422.204	0.815	1475904	REC_WORD	0.815	n/a	SOAP	2	12	[0, 0, 0]	n/a	FR1	0	R1431J
1423.019	1.655	1476719	REC_WORD	1.655	n/a	CLAM	-999	12	[0, 0, 0]	n/a	FR1	0	R1431J
1424.674	26.577	1478374	REC_WORD	26.577	n/a	PALM	1	12	[0, 0, 0]	n/a	FR1	0	R1431J
1451.251	0.0	1504944	REC_END	n/a	n/a	n/a	-999	12	[0, 0, 0]	n/a	FR1	0	R1431J
