onset	duration	sample	trial_type	response_time	stim_file	item_name	serialpos	list	test	answer	experiment	session	subject
0.0	0.0	10462	INSTRUCT_START	n/a	n/a	n/a	-999	-999	[0, 0, 0]	n/a	FR1	1	R1191J
0.0	11.091	10462	INSTRUCT_END	n/a	n/a	n/a	-999	-999	[0, 0, 0]	n/a	FR1	1	R1191J
11.091	0.0	21552	SESS_START	n/a	n/a	n/a	-999	-999	[0, 0, 0]	n/a	FR1	1	R1191J
11.091	283.593	21552	MIC_TEST	n/a	n/a	n/a	-999	-999	[0, 0, 0]	n/a	FR1	1	R1191J
294.684	13.191	305144	PRACTICE_TRIAL	n/a	n/a	n/a	-999	-1	[0, 0, 0]	n/a	FR1	1	R1191J
307.875	10.428	318335	COUNTDOWN_START	n/a	n/a	n/a	-999	-1	[0, 0, 0]	n/a	FR1	1	R1191J
318.303	0.007	328763	COUNTDOWN_END	n/a	n/a	n/a	-999	-1	[0, 0, 0]	n/a	FR1	1	R1191J
318.31	1.617	328770	PRACTICE_ORIENT	n/a	n/a	n/a	-999	-1	[0, 0, 0]	n/a	FR1	1	R1191J
319.927	1.967	330387	PRACTICE_ORIENT_OFF	n/a	n/a	n/a	-999	-1	[0, 0, 0]	n/a	FR1	1	R1191J
321.894	1.617	332354	PRACTICE_WORD	n/a	n/a	FLOOD	1	-1	[0, 0, 0]	n/a	FR1	1	R1191J
323.511	0.8	333971	PRACTICE_WORD_OFF	n/a	n/a	FLOOD	-999	-1	[0, 0, 0]	n/a	FR1	1	R1191J
324.311	1.617	334771	PRACTICE_WORD	n/a	n/a	BEAM	2	-1	[0, 0, 0]	n/a	FR1	1	R1191J
325.928	1.0	336388	PRACTICE_WORD_OFF	n/a	n/a	BEAM	-999	-1	[0, 0, 0]	n/a	FR1	1	R1191J
326.928	1.617	337388	PRACTICE_WORD	n/a	n/a	CAMEL	3	-1	[0, 0, 0]	n/a	FR1	1	R1191J
328.545	0.933	339005	PRACTICE_WORD_OFF	n/a	n/a	CAMEL	-999	-1	[0, 0, 0]	n/a	FR1	1	R1191J
329.478	1.617	339938	PRACTICE_WORD	n/a	n/a	TONGUE	4	-1	[0, 0, 0]	n/a	FR1	1	R1191J
331.095	0.917	341555	PRACTICE_WORD_OFF	n/a	n/a	TONGUE	-999	-1	[0, 0, 0]	n/a	FR1	1	R1191J
332.012	1.617	342472	PRACTICE_WORD	n/a	n/a	RHINO	5	-1	[0, 0, 0]	n/a	FR1	1	R1191J
333.629	0.967	344089	PRACTICE_WORD_OFF	n/a	n/a	RHINO	-999	-1	[0, 0, 0]	n/a	FR1	1	R1191J
334.596	1.617	345056	PRACTICE_WORD	n/a	n/a	RING	6	-1	[0, 0, 0]	n/a	FR1	1	R1191J
336.213	0.766	346673	PRACTICE_WORD_OFF	n/a	n/a	RING	-999	-1	[0, 0, 0]	n/a	FR1	1	R1191J
336.979	1.617	347439	PRACTICE_WORD	n/a	n/a	IRON	7	-1	[0, 0, 0]	n/a	FR1	1	R1191J
338.596	1.0	349056	PRACTICE_WORD_OFF	n/a	n/a	IRON	-999	-1	[0, 0, 0]	n/a	FR1	1	R1191J
339.596	1.617	350056	PRACTICE_WORD	n/a	n/a	COTTON	8	-1	[0, 0, 0]	n/a	FR1	1	R1191J
341.213	0.917	351673	PRACTICE_WORD_OFF	n/a	n/a	COTTON	-999	-1	[0, 0, 0]	n/a	FR1	1	R1191J
342.13	1.617	352590	PRACTICE_WORD	n/a	n/a	WAGON	9	-1	[0, 0, 0]	n/a	FR1	1	R1191J
343.747	0.867	354207	PRACTICE_WORD_OFF	n/a	n/a	WAGON	-999	-1	[0, 0, 0]	n/a	FR1	1	R1191J
344.614	1.617	355074	PRACTICE_WORD	n/a	n/a	WATCH	10	-1	[0, 0, 0]	n/a	FR1	1	R1191J
346.231	0.9	356691	PRACTICE_WORD_OFF	n/a	n/a	WATCH	-999	-1	[0, 0, 0]	n/a	FR1	1	R1191J
347.131	1.616	357591	PRACTICE_WORD	n/a	n/a	ATTIC	11	-1	[0, 0, 0]	n/a	FR1	1	R1191J
348.747	0.784	359207	PRACTICE_WORD_OFF	n/a	n/a	ATTIC	-999	-1	[0, 0, 0]	n/a	FR1	1	R1191J
349.531	1.617	359991	PRACTICE_WORD	n/a	n/a	CHEST	12	-1	[0, 0, 0]	n/a	FR1	1	R1191J
351.148	0.0	361608	PRACTICE_WORD_OFF	n/a	n/a	CHEST	-999	-1	[0, 0, 0]	n/a	FR1	1	R1191J
351.148	0.001	361608	DISTRACT_START	n/a	n/a	n/a	-999	-1	[0, 0, 0]	n/a	FR1	1	R1191J
351.149	0.015	361609	START	n/a	n/a	n/a	-999	-1	[-999, -999, -999]	n/a	FR1	1	R1191J
351.164	6.601	361624	PROB	6.601	n/a	n/a	-999	-1	[6, 4, 1]	11	FR1	1	R1191J
357.765	13.185	368225	PROB	13.185	n/a	n/a	-999	-1	[9, 1, 3]	13	FR1	1	R1191J
370.95	13.126	381410	PROB	13.126	n/a	n/a	-999	-1	[4, 3, 6]	13	FR1	1	R1191J
384.076	0.009	394536	STOP	n/a	n/a	n/a	-999	-1	[-999, -999, -999]	n/a	FR1	1	R1191J
384.085	0.634	394545	DISTRACT_END	n/a	n/a	n/a	-999	-1	[0, 0, 0]	n/a	FR1	1	R1191J
384.719	0.518	395179	RETRIEVAL_ORIENT	n/a	n/a	n/a	-999	-1	[0, 0, 0]	n/a	FR1	1	R1191J
385.237	30.013	395697	PRACTICE_REC_START	n/a	n/a	n/a	-999	-1	[0, 0, 0]	n/a	FR1	1	R1191J
415.25	17.725	425710	PRACTICE_REC_END	n/a	n/a	n/a	-999	-1	[0, 0, 0]	n/a	FR1	1	R1191J
432.975	0.5	443435	TRIAL	n/a	n/a	n/a	-999	1	[0, 0, 0]	n/a	FR1	1	R1191J
433.475	10.428	443935	COUNTDOWN_START	n/a	n/a	n/a	-999	1	[0, 0, 0]	n/a	FR1	1	R1191J
443.903	0.007	454363	COUNTDOWN_END	n/a	n/a	n/a	-999	1	[0, 0, 0]	n/a	FR1	1	R1191J
443.91	1.617	454370	ORIENT	n/a	n/a	n/a	-999	1	[0, 0, 0]	n/a	FR1	1	R1191J
445.527	2.067	455987	ORIENT_OFF	n/a	n/a	n/a	-999	1	[0, 0, 0]	n/a	FR1	1	R1191J
447.594	1.617	458054	WORD	n/a	wordpools/wordpool_EN.txt	FLEA	1	1	[0, 0, 0]	n/a	FR1	1	R1191J
449.211	0.983	459671	WORD_OFF	n/a	n/a	FLEA	1	1	[0, 0, 0]	n/a	FR1	1	R1191J
450.194	1.617	460654	WORD	n/a	wordpools/wordpool_EN.txt	HOOF	2	1	[0, 0, 0]	n/a	FR1	1	R1191J
451.811	0.85	462271	WORD_OFF	n/a	n/a	HOOF	2	1	[0, 0, 0]	n/a	FR1	1	R1191J
452.661	1.617	463121	WORD	n/a	wordpools/wordpool_EN.txt	STRING	3	1	[0, 0, 0]	n/a	FR1	1	R1191J
454.278	0.767	464738	WORD_OFF	n/a	n/a	STRING	3	1	[0, 0, 0]	n/a	FR1	1	R1191J
455.045	1.617	465505	WORD	n/a	wordpools/wordpool_EN.txt	SPEAR	4	1	[0, 0, 0]	n/a	FR1	1	R1191J
456.662	0.966	467122	WORD_OFF	n/a	n/a	SPEAR	4	1	[0, 0, 0]	n/a	FR1	1	R1191J
457.628	1.617	468088	WORD	n/a	wordpools/wordpool_EN.txt	WOOD	5	1	[0, 0, 0]	n/a	FR1	1	R1191J
459.245	1.0	469705	WORD_OFF	n/a	n/a	WOOD	5	1	[0, 0, 0]	n/a	FR1	1	R1191J
460.245	1.617	470705	WORD	n/a	wordpools/wordpool_EN.txt	SOAP	6	1	[0, 0, 0]	n/a	FR1	1	R1191J
461.862	1.017	472322	WORD_OFF	n/a	n/a	SOAP	6	1	[0, 0, 0]	n/a	FR1	1	R1191J
462.879	1.617	473339	WORD	n/a	wordpools/wordpool_EN.txt	PANTS	7	1	[0, 0, 0]	n/a	FR1	1	R1191J
464.496	0.833	474956	WORD_OFF	n/a	n/a	PANTS	7	1	[0, 0, 0]	n/a	FR1	1	R1191J
465.329	1.618	475789	WORD	n/a	wordpools/wordpool_EN.txt	SNAKE	8	1	[0, 0, 0]	n/a	FR1	1	R1191J
466.947	0.816	477407	WORD_OFF	n/a	n/a	SNAKE	8	1	[0, 0, 0]	n/a	FR1	1	R1191J
467.763	1.617	478223	WORD	n/a	wordpools/wordpool_EN.txt	FOAM	9	1	[0, 0, 0]	n/a	FR1	1	R1191J
469.38	1.0	479840	WORD_OFF	n/a	n/a	FOAM	9	1	[0, 0, 0]	n/a	FR1	1	R1191J
470.38	1.617	480840	WORD	n/a	wordpools/wordpool_EN.txt	RAKE	10	1	[0, 0, 0]	n/a	FR1	1	R1191J
471.997	0.934	482457	WORD_OFF	n/a	n/a	RAKE	10	1	[0, 0, 0]	n/a	FR1	1	R1191J
472.931	1.616	483391	WORD	n/a	wordpools/wordpool_EN.txt	BEACH	11	1	[0, 0, 0]	n/a	FR1	1	R1191J
474.547	0.951	485007	WORD_OFF	n/a	n/a	BEACH	11	1	[0, 0, 0]	n/a	FR1	1	R1191J
475.498	1.617	485958	WORD	n/a	wordpools/wordpool_EN.txt	SKUNK	12	1	[0, 0, 0]	n/a	FR1	1	R1191J
477.115	0.0	487575	WORD_OFF	n/a	n/a	SKUNK	12	1	[0, 0, 0]	n/a	FR1	1	R1191J
477.115	0.0	487575	DISTRACT_START	n/a	n/a	n/a	-999	1	[0, 0, 0]	n/a	FR1	1	R1191J
477.115	0.016	487575	START	n/a	n/a	n/a	-999	1	[-999, -999, -999]	n/a	FR1	1	R1191J
477.131	41.604	487591	PROB	41.604	n/a	n/a	-999	1	[6, 9, 6]	21	FR1	1	R1191J
518.735	0.018	529195	STOP	n/a	n/a	n/a	-999	1	[-999, -999, -999]	n/a	FR1	1	R1191J
518.753	0.584	529213	DISTRACT_END	n/a	n/a	n/a	-999	1	[0, 0, 0]	n/a	FR1	1	R1191J
519.337	0.517	529797	RETRIEVAL_ORIENT	n/a	n/a	n/a	-999	1	[0, 0, 0]	n/a	FR1	1	R1191J
519.854	9.153	530314	REC_START	n/a	n/a	n/a	-999	1	[0, 0, 0]	n/a	FR1	1	R1191J
529.007	3.082	539467	REC_WORD	3.082	n/a	RAKE	-999	1	[0, 0, 0]	n/a	FR1	1	R1191J
532.089	3.458	542549	REC_WORD	3.458	n/a	BEACH	-999	1	[0, 0, 0]	n/a	FR1	1	R1191J
535.547	14.321	546006	REC_WORD	14.321	n/a	SKUNK	-999	1	[0, 0, 0]	n/a	FR1	1	R1191J
549.868	7.957	560327	REC_END	n/a	n/a	n/a	-999	1	[0, 0, 0]	n/a	FR1	1	R1191J
557.825	0.5	568284	TRIAL	n/a	n/a	n/a	-999	2	[0, 0, 0]	n/a	FR1	1	R1191J
558.325	10.428	568784	COUNTDOWN_START	n/a	n/a	n/a	-999	2	[0, 0, 0]	n/a	FR1	1	R1191J
568.753	0.007	579212	COUNTDOWN_END	n/a	n/a	n/a	-999	2	[0, 0, 0]	n/a	FR1	1	R1191J
568.76	1.617	579219	ORIENT	n/a	n/a	n/a	-999	2	[0, 0, 0]	n/a	FR1	1	R1191J
570.377	2.15	580836	ORIENT_OFF	n/a	n/a	n/a	-999	2	[0, 0, 0]	n/a	FR1	1	R1191J
572.527	1.617	582986	WORD	n/a	wordpools/wordpool_EN.txt	SWORD	1	2	[0, 0, 0]	n/a	FR1	1	R1191J
574.144	0.95	584603	WORD_OFF	n/a	n/a	SWORD	1	2	[0, 0, 0]	n/a	FR1	1	R1191J
575.094	1.617	585553	WORD	n/a	wordpools/wordpool_EN.txt	SHIELD	2	2	[0, 0, 0]	n/a	FR1	1	R1191J
576.711	0.983	587170	WORD_OFF	n/a	n/a	SHIELD	2	2	[0, 0, 0]	n/a	FR1	1	R1191J
577.694	1.617	588153	WORD	n/a	wordpools/wordpool_EN.txt	FORT	3	2	[0, 0, 0]	n/a	FR1	1	R1191J
579.311	0.767	589770	WORD_OFF	n/a	n/a	FORT	3	2	[0, 0, 0]	n/a	FR1	1	R1191J
580.078	1.617	590537	WORD	n/a	wordpools/wordpool_EN.txt	STAR	4	2	[0, 0, 0]	n/a	FR1	1	R1191J
581.695	0.95	592154	WORD_OFF	n/a	n/a	STAR	4	2	[0, 0, 0]	n/a	FR1	1	R1191J
582.645	1.617	593104	WORD	n/a	wordpools/wordpool_EN.txt	FOG	5	2	[0, 0, 0]	n/a	FR1	1	R1191J
584.262	0.767	594721	WORD_OFF	n/a	n/a	FOG	5	2	[0, 0, 0]	n/a	FR1	1	R1191J
585.029	1.617	595488	WORD	n/a	wordpools/wordpool_EN.txt	TRAIN	6	2	[0, 0, 0]	n/a	FR1	1	R1191J
586.646	0.783	597105	WORD_OFF	n/a	n/a	TRAIN	6	2	[0, 0, 0]	n/a	FR1	1	R1191J
587.429	1.617	597888	WORD	n/a	wordpools/wordpool_EN.txt	SHIP	7	2	[0, 0, 0]	n/a	FR1	1	R1191J
589.046	0.833	599505	WORD_OFF	n/a	n/a	SHIP	7	2	[0, 0, 0]	n/a	FR1	1	R1191J
589.879	1.617	600338	WORD	n/a	wordpools/wordpool_EN.txt	WEED	8	2	[0, 0, 0]	n/a	FR1	1	R1191J
591.496	0.984	601955	WORD_OFF	n/a	n/a	WEED	8	2	[0, 0, 0]	n/a	FR1	1	R1191J
592.48	1.617	602939	WORD	n/a	wordpools/wordpool_EN.txt	CHIEF	9	2	[0, 0, 0]	n/a	FR1	1	R1191J
594.097	1.016	604556	WORD_OFF	n/a	n/a	CHIEF	9	2	[0, 0, 0]	n/a	FR1	1	R1191J
595.113	1.617	605572	WORD	n/a	wordpools/wordpool_EN.txt	STEAM	10	2	[0, 0, 0]	n/a	FR1	1	R1191J
596.73	0.933	607189	WORD_OFF	n/a	n/a	STEAM	10	2	[0, 0, 0]	n/a	FR1	1	R1191J
597.663	1.617	608122	WORD	n/a	wordpools/wordpool_EN.txt	SAIL	11	2	[0, 0, 0]	n/a	FR1	1	R1191J
599.28	0.95	609739	WORD_OFF	n/a	n/a	SAIL	11	2	[0, 0, 0]	n/a	FR1	1	R1191J
600.23	1.618	610689	WORD	n/a	wordpools/wordpool_EN.txt	SMOKE	12	2	[0, 0, 0]	n/a	FR1	1	R1191J
601.848	0.0	612307	DISTRACT_START	n/a	n/a	n/a	-999	2	[0, 0, 0]	n/a	FR1	1	R1191J
601.848	0.0	612307	WORD_OFF	n/a	n/a	SMOKE	12	2	[0, 0, 0]	n/a	FR1	1	R1191J
601.848	0.016	612307	START	n/a	n/a	n/a	-999	2	[-999, -999, -999]	n/a	FR1	1	R1191J
601.864	24.668	612323	PROB	24.668	n/a	n/a	-999	2	[4, 8, 6]	18	FR1	1	R1191J
626.532	0.019	636991	STOP	n/a	n/a	n/a	-999	2	[-999, -999, -999]	n/a	FR1	1	R1191J
626.551	0.567	637010	DISTRACT_END	n/a	n/a	n/a	-999	2	[0, 0, 0]	n/a	FR1	1	R1191J
627.118	0.518	637577	RETRIEVAL_ORIENT	n/a	n/a	n/a	-999	2	[0, 0, 0]	n/a	FR1	1	R1191J
627.636	8.103	638095	REC_START	n/a	n/a	n/a	-999	2	[0, 0, 0]	n/a	FR1	1	R1191J
635.739	3.984	646198	REC_WORD	3.984	n/a	SHIELD	-999	2	[0, 0, 0]	n/a	FR1	1	R1191J
639.723	5.274	650182	REC_WORD	5.274	n/a	CHIEF	-999	2	[0, 0, 0]	n/a	FR1	1	R1191J
644.997	1.108	655456	REC_WORD_VV	1.108	n/a	<>	-999	2	[0, 0, 0]	n/a	FR1	1	R1191J
646.105	11.543	656564	REC_WORD	11.543	n/a	RHINO	-999	2	[0, 0, 0]	n/a	FR1	1	R1191J
657.648	5.158	668107	REC_END	n/a	n/a	n/a	-999	2	[0, 0, 0]	n/a	FR1	1	R1191J
662.806	0.5	673265	TRIAL	n/a	n/a	n/a	-999	3	[0, 0, 0]	n/a	FR1	1	R1191J
663.306	10.428	673765	COUNTDOWN_START	n/a	n/a	n/a	-999	3	[0, 0, 0]	n/a	FR1	1	R1191J
673.734	0.007	684193	COUNTDOWN_END	n/a	n/a	n/a	-999	3	[0, 0, 0]	n/a	FR1	1	R1191J
673.741	1.617	684200	ORIENT	n/a	n/a	n/a	-999	3	[0, 0, 0]	n/a	FR1	1	R1191J
675.358	1.95	685817	ORIENT_OFF	n/a	n/a	n/a	-999	3	[0, 0, 0]	n/a	FR1	1	R1191J
677.308	1.617	687767	WORD	n/a	wordpools/wordpool_EN.txt	MAT	1	3	[0, 0, 0]	n/a	FR1	1	R1191J
678.925	0.866	689384	WORD_OFF	n/a	n/a	MAT	1	3	[0, 0, 0]	n/a	FR1	1	R1191J
679.791	1.617	690250	WORD	n/a	wordpools/wordpool_EN.txt	FLUTE	2	3	[0, 0, 0]	n/a	FR1	1	R1191J
681.408	0.951	691867	WORD_OFF	n/a	n/a	FLUTE	2	3	[0, 0, 0]	n/a	FR1	1	R1191J
682.359	1.617	692818	WORD	n/a	wordpools/wordpool_EN.txt	TENT	3	3	[0, 0, 0]	n/a	FR1	1	R1191J
683.976	0.9	694435	WORD_OFF	n/a	n/a	TENT	3	3	[0, 0, 0]	n/a	FR1	1	R1191J
684.876	1.617	695335	WORD	n/a	wordpools/wordpool_EN.txt	MUD	4	3	[0, 0, 0]	n/a	FR1	1	R1191J
686.493	0.983	696952	WORD_OFF	n/a	n/a	MUD	4	3	[0, 0, 0]	n/a	FR1	1	R1191J
687.476	1.617	697935	WORD	n/a	wordpools/wordpool_EN.txt	TOAST	5	3	[0, 0, 0]	n/a	FR1	1	R1191J
689.093	0.766	699552	WORD_OFF	n/a	n/a	TOAST	5	3	[0, 0, 0]	n/a	FR1	1	R1191J
689.859	1.617	700318	WORD	n/a	wordpools/wordpool_EN.txt	SPOON	6	3	[0, 0, 0]	n/a	FR1	1	R1191J
691.476	0.934	701935	WORD_OFF	n/a	n/a	SPOON	6	3	[0, 0, 0]	n/a	FR1	1	R1191J
692.41	1.617	702869	WORD	n/a	wordpools/wordpool_EN.txt	FORK	7	3	[0, 0, 0]	n/a	FR1	1	R1191J
694.027	0.833	704486	WORD_OFF	n/a	n/a	FORK	7	3	[0, 0, 0]	n/a	FR1	1	R1191J
694.86	1.601	705319	WORD	n/a	wordpools/wordpool_EN.txt	BED	8	3	[0, 0, 0]	n/a	FR1	1	R1191J
696.461	0.933	706920	WORD_OFF	n/a	n/a	BED	8	3	[0, 0, 0]	n/a	FR1	1	R1191J
697.394	1.617	707853	WORD	n/a	wordpools/wordpool_EN.txt	DOOR	9	3	[0, 0, 0]	n/a	FR1	1	R1191J
699.011	0.933	709470	WORD_OFF	n/a	n/a	DOOR	9	3	[0, 0, 0]	n/a	FR1	1	R1191J
699.944	1.617	710403	WORD	n/a	wordpools/wordpool_EN.txt	SINK	10	3	[0, 0, 0]	n/a	FR1	1	R1191J
701.561	1.017	712020	WORD_OFF	n/a	n/a	SINK	10	3	[0, 0, 0]	n/a	FR1	1	R1191J
702.578	1.617	713037	WORD	n/a	wordpools/wordpool_EN.txt	BATH	11	3	[0, 0, 0]	n/a	FR1	1	R1191J
704.195	0.933	714654	WORD_OFF	n/a	n/a	BATH	11	3	[0, 0, 0]	n/a	FR1	1	R1191J
705.128	1.617	715587	WORD	n/a	wordpools/wordpool_EN.txt	SWAMP	12	3	[0, 0, 0]	n/a	FR1	1	R1191J
706.745	0.0	717204	WORD_OFF	n/a	n/a	SWAMP	12	3	[0, 0, 0]	n/a	FR1	1	R1191J
706.745	0.001	717204	DISTRACT_START	n/a	n/a	n/a	-999	3	[0, 0, 0]	n/a	FR1	1	R1191J
706.746	0.016	717205	START	n/a	n/a	n/a	-999	3	[-999, -999, -999]	n/a	FR1	1	R1191J
706.762	17.585	717221	PROB	17.585	n/a	n/a	-999	3	[2, 5, 8]	15	FR1	1	R1191J
724.347	15.38	734806	PROB	15.38	n/a	n/a	-999	3	[3, 6, 8]	17	FR1	1	R1191J
739.727	0.006	750186	STOP	n/a	n/a	n/a	-999	3	[-999, -999, -999]	n/a	FR1	1	R1191J
739.733	0.65	750192	DISTRACT_END	n/a	n/a	n/a	-999	3	[0, 0, 0]	n/a	FR1	1	R1191J
740.383	0.517	750842	RETRIEVAL_ORIENT	n/a	n/a	n/a	-999	3	[0, 0, 0]	n/a	FR1	1	R1191J
740.9	8.764	751359	REC_START	n/a	n/a	n/a	-999	3	[0, 0, 0]	n/a	FR1	1	R1191J
749.664	9.614	760123	REC_WORD	9.614	n/a	PANTS	-999	3	[0, 0, 0]	n/a	FR1	1	R1191J
759.278	5.038	769737	REC_WORD	5.038	n/a	FLUTE	-999	3	[0, 0, 0]	n/a	FR1	1	R1191J
764.316	2.967	774775	REC_WORD	2.967	n/a	TENT	-999	3	[0, 0, 0]	n/a	FR1	1	R1191J
767.283	3.63	777742	REC_WORD	3.63	n/a	MUD	-999	3	[0, 0, 0]	n/a	FR1	1	R1191J
770.913	5.575	781372	REC_END	n/a	n/a	n/a	-999	3	[0, 0, 0]	n/a	FR1	1	R1191J
776.488	0.5	786947	TRIAL	n/a	n/a	n/a	-999	4	[0, 0, 0]	n/a	FR1	1	R1191J
776.988	10.428	787447	COUNTDOWN_START	n/a	n/a	n/a	-999	4	[0, 0, 0]	n/a	FR1	1	R1191J
787.416	0.007	797875	COUNTDOWN_END	n/a	n/a	n/a	-999	4	[0, 0, 0]	n/a	FR1	1	R1191J
787.423	1.617	797882	ORIENT	n/a	n/a	n/a	-999	4	[0, 0, 0]	n/a	FR1	1	R1191J
789.04	2.017	799499	ORIENT_OFF	n/a	n/a	n/a	-999	4	[0, 0, 0]	n/a	FR1	1	R1191J
791.057	1.617	801516	WORD	n/a	wordpools/wordpool_EN.txt	CAKE	1	4	[0, 0, 0]	n/a	FR1	1	R1191J
792.674	0.933	803133	WORD_OFF	n/a	n/a	CAKE	1	4	[0, 0, 0]	n/a	FR1	1	R1191J
793.607	1.617	804066	WORD	n/a	wordpools/wordpool_EN.txt	SNAIL	2	4	[0, 0, 0]	n/a	FR1	1	R1191J
795.224	0.783	805683	WORD_OFF	n/a	n/a	SNAIL	2	4	[0, 0, 0]	n/a	FR1	1	R1191J
796.007	1.617	806466	WORD	n/a	wordpools/wordpool_EN.txt	EAR	3	4	[0, 0, 0]	n/a	FR1	1	R1191J
797.624	0.817	808082	WORD_OFF	n/a	n/a	EAR	3	4	[0, 0, 0]	n/a	FR1	1	R1191J
798.441	1.617	808899	WORD	n/a	wordpools/wordpool_EN.txt	OWL	4	4	[0, 0, 0]	n/a	FR1	1	R1191J
800.058	0.883	810516	WORD_OFF	n/a	n/a	OWL	4	4	[0, 0, 0]	n/a	FR1	1	R1191J
800.941	1.617	811399	WORD	n/a	wordpools/wordpool_EN.txt	MOTH	5	4	[0, 0, 0]	n/a	FR1	1	R1191J
802.558	0.834	813016	WORD_OFF	n/a	n/a	MOTH	5	4	[0, 0, 0]	n/a	FR1	1	R1191J
803.392	1.617	813850	WORD	n/a	wordpools/wordpool_EN.txt	SHELL	6	4	[0, 0, 0]	n/a	FR1	1	R1191J
805.009	1.016	815467	WORD_OFF	n/a	n/a	SHELL	6	4	[0, 0, 0]	n/a	FR1	1	R1191J
806.025	1.617	816483	WORD	n/a	wordpools/wordpool_EN.txt	SLIME	7	4	[0, 0, 0]	n/a	FR1	1	R1191J
807.642	0.883	818100	WORD_OFF	n/a	n/a	SLIME	7	4	[0, 0, 0]	n/a	FR1	1	R1191J
808.525	1.617	818983	WORD	n/a	wordpools/wordpool_EN.txt	CRANE	8	4	[0, 0, 0]	n/a	FR1	1	R1191J
810.142	0.8	820600	WORD_OFF	n/a	n/a	CRANE	8	4	[0, 0, 0]	n/a	FR1	1	R1191J
810.942	1.617	821400	WORD	n/a	wordpools/wordpool_EN.txt	FLAME	9	4	[0, 0, 0]	n/a	FR1	1	R1191J
812.559	0.967	823017	WORD_OFF	n/a	n/a	FLAME	9	4	[0, 0, 0]	n/a	FR1	1	R1191J
813.526	1.617	823984	WORD	n/a	wordpools/wordpool_EN.txt	MOLE	10	4	[0, 0, 0]	n/a	FR1	1	R1191J
815.143	0.8	825601	WORD_OFF	n/a	n/a	MOLE	10	4	[0, 0, 0]	n/a	FR1	1	R1191J
815.943	1.617	826401	WORD	n/a	wordpools/wordpool_EN.txt	PEAR	11	4	[0, 0, 0]	n/a	FR1	1	R1191J
817.56	0.967	828018	WORD_OFF	n/a	n/a	PEAR	11	4	[0, 0, 0]	n/a	FR1	1	R1191J
818.527	1.617	828985	WORD	n/a	wordpools/wordpool_EN.txt	HEN	12	4	[0, 0, 0]	n/a	FR1	1	R1191J
820.144	0.0	830602	WORD_OFF	n/a	n/a	HEN	12	4	[0, 0, 0]	n/a	FR1	1	R1191J
820.144	0.0	830602	DISTRACT_START	n/a	n/a	n/a	-999	4	[0, 0, 0]	n/a	FR1	1	R1191J
820.144	0.016	830602	START	n/a	n/a	n/a	-999	4	[-999, -999, -999]	n/a	FR1	1	R1191J
820.16	13.035	830618	PROB	13.035	n/a	n/a	-999	4	[7, 1, 8]	16	FR1	1	R1191J
833.195	8.208	843653	PROB	8.208	n/a	n/a	-999	4	[6, 6, 4]	16	FR1	1	R1191J
841.403	0.01	851861	STOP	n/a	n/a	n/a	-999	4	[-999, -999, -999]	n/a	FR1	1	R1191J
841.413	0.583	851871	DISTRACT_END	n/a	n/a	n/a	-999	4	[0, 0, 0]	n/a	FR1	1	R1191J
841.996	0.519	852454	RETRIEVAL_ORIENT	n/a	n/a	n/a	-999	4	[0, 0, 0]	n/a	FR1	1	R1191J
842.515	2.984	852973	REC_START	n/a	n/a	n/a	-999	4	[0, 0, 0]	n/a	FR1	1	R1191J
845.499	1.0	855957	REC_WORD	1.0	n/a	SNAIL	-999	4	[0, 0, 0]	n/a	FR1	1	R1191J
846.499	1.854	856957	REC_WORD_VV	1.854	n/a	<>	-999	4	[0, 0, 0]	n/a	FR1	1	R1191J
848.353	1.0	858811	REC_WORD	1.0	n/a	CAKE	-999	4	[0, 0, 0]	n/a	FR1	1	R1191J
849.353	0.648	859811	REC_WORD_VV	0.648	n/a	<>	-999	4	[0, 0, 0]	n/a	FR1	1	R1191J
850.001	1.0	860459	REC_WORD	1.0	n/a	FLAME	-999	4	[0, 0, 0]	n/a	FR1	1	R1191J
851.001	21.525	861459	REC_WORD_VV	21.525	n/a	<>	-999	4	[0, 0, 0]	n/a	FR1	1	R1191J
872.526	5.809	882984	REC_END	n/a	n/a	n/a	-999	4	[0, 0, 0]	n/a	FR1	1	R1191J
878.335	0.5	888793	TRIAL	n/a	n/a	n/a	-999	5	[0, 0, 0]	n/a	FR1	1	R1191J
878.835	10.428	889293	COUNTDOWN_START	n/a	n/a	n/a	-999	5	[0, 0, 0]	n/a	FR1	1	R1191J
889.263	0.007	899721	COUNTDOWN_END	n/a	n/a	n/a	-999	5	[0, 0, 0]	n/a	FR1	1	R1191J
889.27	1.616	899728	ORIENT	n/a	n/a	n/a	-999	5	[0, 0, 0]	n/a	FR1	1	R1191J
890.886	2.034	901344	ORIENT_OFF	n/a	n/a	n/a	-999	5	[0, 0, 0]	n/a	FR1	1	R1191J
892.92	1.617	903378	WORD	n/a	wordpools/wordpool_EN.txt	CROWN	1	5	[0, 0, 0]	n/a	FR1	1	R1191J
894.537	0.8	904995	WORD_OFF	n/a	n/a	CROWN	1	5	[0, 0, 0]	n/a	FR1	1	R1191J
895.337	1.617	905795	WORD	n/a	wordpools/wordpool_EN.txt	POLE	2	5	[0, 0, 0]	n/a	FR1	1	R1191J
896.954	0.783	907412	WORD_OFF	n/a	n/a	POLE	2	5	[0, 0, 0]	n/a	FR1	1	R1191J
897.737	1.617	908195	WORD	n/a	wordpools/wordpool_EN.txt	MAZE	3	5	[0, 0, 0]	n/a	FR1	1	R1191J
899.354	0.817	909812	WORD_OFF	n/a	n/a	MAZE	3	5	[0, 0, 0]	n/a	FR1	1	R1191J
900.171	1.617	910629	WORD	n/a	wordpools/wordpool_EN.txt	BRIDGE	4	5	[0, 0, 0]	n/a	FR1	1	R1191J
901.788	0.85	912246	WORD_OFF	n/a	n/a	BRIDGE	4	5	[0, 0, 0]	n/a	FR1	1	R1191J
902.638	1.617	913096	WORD	n/a	wordpools/wordpool_EN.txt	BLUSH	5	5	[0, 0, 0]	n/a	FR1	1	R1191J
904.255	0.817	914713	WORD_OFF	n/a	n/a	BLUSH	5	5	[0, 0, 0]	n/a	FR1	1	R1191J
905.072	1.617	915530	WORD	n/a	wordpools/wordpool_EN.txt	LOCK	6	5	[0, 0, 0]	n/a	FR1	1	R1191J
906.689	1.0	917147	WORD_OFF	n/a	n/a	LOCK	6	5	[0, 0, 0]	n/a	FR1	1	R1191J
907.689	1.617	918147	WORD	n/a	wordpools/wordpool_EN.txt	HILL	7	5	[0, 0, 0]	n/a	FR1	1	R1191J
909.306	0.833	919764	WORD_OFF	n/a	n/a	HILL	7	5	[0, 0, 0]	n/a	FR1	1	R1191J
910.139	1.617	920597	WORD	n/a	wordpools/wordpool_EN.txt	LAKE	8	5	[0, 0, 0]	n/a	FR1	1	R1191J
911.756	0.95	922214	WORD_OFF	n/a	n/a	LAKE	8	5	[0, 0, 0]	n/a	FR1	1	R1191J
912.706	1.617	923164	WORD	n/a	wordpools/wordpool_EN.txt	JAIL	9	5	[0, 0, 0]	n/a	FR1	1	R1191J
914.323	0.9	924781	WORD_OFF	n/a	n/a	JAIL	9	5	[0, 0, 0]	n/a	FR1	1	R1191J
915.223	1.617	925681	WORD	n/a	wordpools/wordpool_EN.txt	BANK	10	5	[0, 0, 0]	n/a	FR1	1	R1191J
916.84	0.983	927298	WORD_OFF	n/a	n/a	BANK	10	5	[0, 0, 0]	n/a	FR1	1	R1191J
917.823	1.617	928281	WORD	n/a	wordpools/wordpool_EN.txt	ICE	11	5	[0, 0, 0]	n/a	FR1	1	R1191J
919.44	0.817	929898	WORD_OFF	n/a	n/a	ICE	11	5	[0, 0, 0]	n/a	FR1	1	R1191J
920.257	1.617	930715	WORD	n/a	wordpools/wordpool_EN.txt	BRICK	12	5	[0, 0, 0]	n/a	FR1	1	R1191J
921.874	0.0	932332	DISTRACT_START	n/a	n/a	n/a	-999	5	[0, 0, 0]	n/a	FR1	1	R1191J
921.874	0.001	932332	WORD_OFF	n/a	n/a	BRICK	12	5	[0, 0, 0]	n/a	FR1	1	R1191J
921.875	0.016	932333	START	n/a	n/a	n/a	-999	5	[-999, -999, -999]	n/a	FR1	1	R1191J
921.891	19.252	932349	PROB	19.252	n/a	n/a	-999	5	[6, 5, 9]	20	FR1	1	R1191J
941.143	10.512	951601	PROB	10.512	n/a	n/a	-999	5	[8, 5, 3]	16	FR1	1	R1191J
951.655	0.006	962113	STOP	n/a	n/a	n/a	-999	5	[-999, -999, -999]	n/a	FR1	1	R1191J
951.661	0.584	962119	DISTRACT_END	n/a	n/a	n/a	-999	5	[0, 0, 0]	n/a	FR1	1	R1191J
952.245	0.518	962703	RETRIEVAL_ORIENT	n/a	n/a	n/a	-999	5	[0, 0, 0]	n/a	FR1	1	R1191J
952.763	2.514	963221	REC_START	n/a	n/a	n/a	-999	5	[0, 0, 0]	n/a	FR1	1	R1191J
955.277	2.909	965735	REC_WORD	2.909	n/a	JAIL	-999	5	[0, 0, 0]	n/a	FR1	1	R1191J
958.186	4.257	968644	REC_WORD	4.257	n/a	BRICK	-999	5	[0, 0, 0]	n/a	FR1	1	R1191J
962.443	20.331	972901	REC_WORD	20.331	n/a	ICE	-999	5	[0, 0, 0]	n/a	FR1	1	R1191J
982.774	5.309	993232	REC_END	n/a	n/a	n/a	-999	5	[0, 0, 0]	n/a	FR1	1	R1191J
988.083	0.5	998541	TRIAL	n/a	n/a	n/a	-999	6	[0, 0, 0]	n/a	FR1	1	R1191J
988.583	10.428	999041	COUNTDOWN_START	n/a	n/a	n/a	-999	6	[0, 0, 0]	n/a	FR1	1	R1191J
999.011	0.007	1009469	COUNTDOWN_END	n/a	n/a	n/a	-999	6	[0, 0, 0]	n/a	FR1	1	R1191J
999.018	1.617	1009476	ORIENT	n/a	n/a	n/a	-999	6	[0, 0, 0]	n/a	FR1	1	R1191J
1000.635	2.267	1011093	ORIENT_OFF	n/a	n/a	n/a	-999	6	[0, 0, 0]	n/a	FR1	1	R1191J
1002.902	1.617	1013360	WORD	n/a	wordpools/wordpool_EN.txt	POOL	1	6	[0, 0, 0]	n/a	FR1	1	R1191J
1004.519	0.833	1014977	WORD_OFF	n/a	n/a	POOL	1	6	[0, 0, 0]	n/a	FR1	1	R1191J
1005.352	1.617	1015810	WORD	n/a	wordpools/wordpool_EN.txt	CLAY	2	6	[0, 0, 0]	n/a	FR1	1	R1191J
1006.969	0.816	1017427	WORD_OFF	n/a	n/a	CLAY	2	6	[0, 0, 0]	n/a	FR1	1	R1191J
1007.785	1.617	1018243	WORD	n/a	wordpools/wordpool_EN.txt	CLOWN	3	6	[0, 0, 0]	n/a	FR1	1	R1191J
1009.402	1.001	1019860	WORD_OFF	n/a	n/a	CLOWN	3	6	[0, 0, 0]	n/a	FR1	1	R1191J
1010.403	1.617	1020861	WORD	n/a	wordpools/wordpool_EN.txt	BOAT	4	6	[0, 0, 0]	n/a	FR1	1	R1191J
1012.02	0.916	1022478	WORD_OFF	n/a	n/a	BOAT	4	6	[0, 0, 0]	n/a	FR1	1	R1191J
1012.936	1.617	1023394	WORD	n/a	wordpools/wordpool_EN.txt	NET	5	6	[0, 0, 0]	n/a	FR1	1	R1191J
1014.553	0.817	1025011	WORD_OFF	n/a	n/a	NET	5	6	[0, 0, 0]	n/a	FR1	1	R1191J
1015.37	1.617	1025828	WORD	n/a	wordpools/wordpool_EN.txt	DUCK	6	6	[0, 0, 0]	n/a	FR1	1	R1191J
1016.987	0.816	1027445	WORD_OFF	n/a	n/a	DUCK	6	6	[0, 0, 0]	n/a	FR1	1	R1191J
1017.803	1.617	1028261	WORD	n/a	wordpools/wordpool_EN.txt	CHAIR	7	6	[0, 0, 0]	n/a	FR1	1	R1191J
1019.42	0.951	1029878	WORD_OFF	n/a	n/a	CHAIR	7	6	[0, 0, 0]	n/a	FR1	1	R1191J
1020.371	1.616	1030829	WORD	n/a	wordpools/wordpool_EN.txt	EEL	8	6	[0, 0, 0]	n/a	FR1	1	R1191J
1021.987	0.834	1032445	WORD_OFF	n/a	n/a	EEL	8	6	[0, 0, 0]	n/a	FR1	1	R1191J
1022.821	1.617	1033279	WORD	n/a	wordpools/wordpool_EN.txt	TEA	9	6	[0, 0, 0]	n/a	FR1	1	R1191J
1024.438	0.867	1034896	WORD_OFF	n/a	n/a	TEA	9	6	[0, 0, 0]	n/a	FR1	1	R1191J
1025.305	1.617	1035763	WORD	n/a	wordpools/wordpool_EN.txt	VASE	10	6	[0, 0, 0]	n/a	FR1	1	R1191J
1026.922	0.966	1037380	WORD_OFF	n/a	n/a	VASE	10	6	[0, 0, 0]	n/a	FR1	1	R1191J
1027.888	1.617	1038346	WORD	n/a	wordpools/wordpool_EN.txt	SEAL	11	6	[0, 0, 0]	n/a	FR1	1	R1191J
1029.505	0.784	1039963	WORD_OFF	n/a	n/a	SEAL	11	6	[0, 0, 0]	n/a	FR1	1	R1191J
1030.289	1.617	1040747	WORD	n/a	wordpools/wordpool_EN.txt	SPRING	12	6	[0, 0, 0]	n/a	FR1	1	R1191J
1031.906	0.0	1042364	WORD_OFF	n/a	n/a	SPRING	12	6	[0, 0, 0]	n/a	FR1	1	R1191J
1031.906	0.001	1042364	DISTRACT_START	n/a	n/a	n/a	-999	6	[0, 0, 0]	n/a	FR1	1	R1191J
1031.907	0.015	1042365	START	n/a	n/a	n/a	-999	6	[-999, -999, -999]	n/a	FR1	1	R1191J
1031.922	33.554	1042380	PROB	33.554	n/a	n/a	-999	6	[5, 4, 8]	16	FR1	1	R1191J
1065.476	0.018	1075933	STOP	n/a	n/a	n/a	-999	6	[-999, -999, -999]	n/a	FR1	1	R1191J
1065.494	0.65	1075951	DISTRACT_END	n/a	n/a	n/a	-999	6	[0, 0, 0]	n/a	FR1	1	R1191J
1066.144	0.517	1076601	RETRIEVAL_ORIENT	n/a	n/a	n/a	-999	6	[0, 0, 0]	n/a	FR1	1	R1191J
1066.661	4.809	1077118	REC_START	n/a	n/a	n/a	-999	6	[0, 0, 0]	n/a	FR1	1	R1191J
1071.47	1.642	1081927	REC_WORD	1.642	n/a	BOAT	-999	6	[0, 0, 0]	n/a	FR1	1	R1191J
1073.112	1.0	1083569	REC_WORD	1.0	n/a	CLAY	-999	6	[0, 0, 0]	n/a	FR1	1	R1191J
1074.112	1.244	1084569	REC_WORD_VV	1.244	n/a	<>	-999	6	[0, 0, 0]	n/a	FR1	1	R1191J
1075.356	21.317	1085813	REC_WORD	21.317	n/a	CLOWN	-999	6	[0, 0, 0]	n/a	FR1	1	R1191J
1096.673	4.459	1107130	REC_END	n/a	n/a	n/a	-999	6	[0, 0, 0]	n/a	FR1	1	R1191J
1101.132	0.5	1111589	TRIAL	n/a	n/a	n/a	-999	7	[0, 0, 0]	n/a	FR1	1	R1191J
1101.632	10.428	1112089	COUNTDOWN_START	n/a	n/a	n/a	-999	7	[0, 0, 0]	n/a	FR1	1	R1191J
1112.06	0.006	1122517	COUNTDOWN_END	n/a	n/a	n/a	-999	7	[0, 0, 0]	n/a	FR1	1	R1191J
1112.066	1.617	1122523	ORIENT	n/a	n/a	n/a	-999	7	[0, 0, 0]	n/a	FR1	1	R1191J
1113.683	1.917	1124140	ORIENT_OFF	n/a	n/a	n/a	-999	7	[0, 0, 0]	n/a	FR1	1	R1191J
1115.6	1.617	1126057	WORD	n/a	wordpools/wordpool_EN.txt	ANT	1	7	[0, 0, 0]	n/a	FR1	1	R1191J
1117.217	0.883	1127674	WORD_OFF	n/a	n/a	ANT	1	7	[0, 0, 0]	n/a	FR1	1	R1191J
1118.1	1.617	1128557	WORD	n/a	wordpools/wordpool_EN.txt	FARM	2	7	[0, 0, 0]	n/a	FR1	1	R1191J
1119.717	0.967	1130174	WORD_OFF	n/a	n/a	FARM	2	7	[0, 0, 0]	n/a	FR1	1	R1191J
1120.684	1.617	1131141	WORD	n/a	wordpools/wordpool_EN.txt	CORN	3	7	[0, 0, 0]	n/a	FR1	1	R1191J
1122.301	0.8	1132758	WORD_OFF	n/a	n/a	CORN	3	7	[0, 0, 0]	n/a	FR1	1	R1191J
1123.101	1.617	1133558	WORD	n/a	wordpools/wordpool_EN.txt	FOX	4	7	[0, 0, 0]	n/a	FR1	1	R1191J
1124.718	0.967	1135175	WORD_OFF	n/a	n/a	FOX	4	7	[0, 0, 0]	n/a	FR1	1	R1191J
1125.685	1.617	1136142	WORD	n/a	wordpools/wordpool_EN.txt	PET	5	7	[0, 0, 0]	n/a	FR1	1	R1191J
1127.302	0.916	1137759	WORD_OFF	n/a	n/a	PET	5	7	[0, 0, 0]	n/a	FR1	1	R1191J
1128.218	1.617	1138675	WORD	n/a	wordpools/wordpool_EN.txt	CAT	6	7	[0, 0, 0]	n/a	FR1	1	R1191J
1129.835	0.833	1140292	WORD_OFF	n/a	n/a	CAT	6	7	[0, 0, 0]	n/a	FR1	1	R1191J
1130.668	1.618	1141125	WORD	n/a	wordpools/wordpool_EN.txt	DOG	7	7	[0, 0, 0]	n/a	FR1	1	R1191J
1132.286	0.917	1142743	WORD_OFF	n/a	n/a	DOG	7	7	[0, 0, 0]	n/a	FR1	1	R1191J
1133.203	1.616	1143660	WORD	n/a	wordpools/wordpool_EN.txt	CUP	8	7	[0, 0, 0]	n/a	FR1	1	R1191J
1134.819	0.767	1145276	WORD_OFF	n/a	n/a	CUP	8	7	[0, 0, 0]	n/a	FR1	1	R1191J
1135.586	1.617	1146043	WORD	n/a	wordpools/wordpool_EN.txt	ZOO	9	7	[0, 0, 0]	n/a	FR1	1	R1191J
1137.203	0.767	1147660	WORD_OFF	n/a	n/a	ZOO	9	7	[0, 0, 0]	n/a	FR1	1	R1191J
1137.97	1.616	1148427	WORD	n/a	wordpools/wordpool_EN.txt	KITE	10	7	[0, 0, 0]	n/a	FR1	1	R1191J
1139.586	0.784	1150043	WORD_OFF	n/a	n/a	KITE	10	7	[0, 0, 0]	n/a	FR1	1	R1191J
1140.37	1.617	1150827	WORD	n/a	wordpools/wordpool_EN.txt	HORSE	11	7	[0, 0, 0]	n/a	FR1	1	R1191J
1141.987	0.817	1152444	WORD_OFF	n/a	n/a	HORSE	11	7	[0, 0, 0]	n/a	FR1	1	R1191J
1142.804	1.617	1153261	WORD	n/a	wordpools/wordpool_EN.txt	BIRD	12	7	[0, 0, 0]	n/a	FR1	1	R1191J
1144.421	0.0	1154878	WORD_OFF	n/a	n/a	BIRD	12	7	[0, 0, 0]	n/a	FR1	1	R1191J
1144.421	0.001	1154878	DISTRACT_START	n/a	n/a	n/a	-999	7	[0, 0, 0]	n/a	FR1	1	R1191J
1144.422	0.015	1154879	START	n/a	n/a	n/a	-999	7	[-999, -999, -999]	n/a	FR1	1	R1191J
1144.437	19.387	1154894	PROB	19.387	n/a	n/a	-999	7	[2, 8, 9]	19	FR1	1	R1191J
1163.824	4.68	1174281	PROB	4.68	n/a	n/a	-999	7	[1, 2, 1]	4	FR1	1	R1191J
1168.504	0.02	1178961	STOP	n/a	n/a	n/a	-999	7	[-999, -999, -999]	n/a	FR1	1	R1191J
1168.524	0.65	1178981	DISTRACT_END	n/a	n/a	n/a	-999	7	[0, 0, 0]	n/a	FR1	1	R1191J
1169.174	0.518	1179631	RETRIEVAL_ORIENT	n/a	n/a	n/a	-999	7	[0, 0, 0]	n/a	FR1	1	R1191J
1169.692	1.759	1180149	REC_START	n/a	n/a	n/a	-999	7	[0, 0, 0]	n/a	FR1	1	R1191J
1171.451	1.408	1181908	REC_WORD	1.408	n/a	BIRD	-999	7	[0, 0, 0]	n/a	FR1	1	R1191J
1172.859	1.007	1183316	REC_WORD	1.007	n/a	CAT	-999	7	[0, 0, 0]	n/a	FR1	1	R1191J
1173.866	25.835	1184323	REC_WORD	25.835	n/a	DOG	-999	7	[0, 0, 0]	n/a	FR1	1	R1191J
1199.701	5.295	1210158	REC_END	n/a	n/a	n/a	-999	7	[0, 0, 0]	n/a	FR1	1	R1191J
1204.996	0.5	1215453	TRIAL	n/a	n/a	n/a	-999	8	[0, 0, 0]	n/a	FR1	1	R1191J
1205.496	10.428	1215953	COUNTDOWN_START	n/a	n/a	n/a	-999	8	[0, 0, 0]	n/a	FR1	1	R1191J
1215.924	0.007	1226381	COUNTDOWN_END	n/a	n/a	n/a	-999	8	[0, 0, 0]	n/a	FR1	1	R1191J
1215.931	1.616	1226388	ORIENT	n/a	n/a	n/a	-999	8	[0, 0, 0]	n/a	FR1	1	R1191J
1217.547	2.151	1228004	ORIENT_OFF	n/a	n/a	n/a	-999	8	[0, 0, 0]	n/a	FR1	1	R1191J
1219.698	1.617	1230155	WORD	n/a	wordpools/wordpool_EN.txt	PRINCE	1	8	[0, 0, 0]	n/a	FR1	1	R1191J
1221.315	0.85	1231772	WORD_OFF	n/a	n/a	PRINCE	1	8	[0, 0, 0]	n/a	FR1	1	R1191J
1222.165	1.617	1232622	WORD	n/a	wordpools/wordpool_EN.txt	GUARD	2	8	[0, 0, 0]	n/a	FR1	1	R1191J
1223.782	0.85	1234239	WORD_OFF	n/a	n/a	GUARD	2	8	[0, 0, 0]	n/a	FR1	1	R1191J
1224.632	1.617	1235089	WORD	n/a	wordpools/wordpool_EN.txt	BARN	3	8	[0, 0, 0]	n/a	FR1	1	R1191J
1226.249	0.933	1236706	WORD_OFF	n/a	n/a	BARN	3	8	[0, 0, 0]	n/a	FR1	1	R1191J
1227.182	1.617	1237639	WORD	n/a	wordpools/wordpool_EN.txt	BEAK	4	8	[0, 0, 0]	n/a	FR1	1	R1191J
1228.799	0.9	1239256	WORD_OFF	n/a	n/a	BEAK	4	8	[0, 0, 0]	n/a	FR1	1	R1191J
1229.699	1.617	1240156	WORD	n/a	wordpools/wordpool_EN.txt	GOAT	5	8	[0, 0, 0]	n/a	FR1	1	R1191J
1231.316	1.0	1241773	WORD_OFF	n/a	n/a	GOAT	5	8	[0, 0, 0]	n/a	FR1	1	R1191J
1232.316	1.617	1242773	WORD	n/a	wordpools/wordpool_EN.txt	MOUTH	6	8	[0, 0, 0]	n/a	FR1	1	R1191J
1233.933	0.95	1244390	WORD_OFF	n/a	n/a	MOUTH	6	8	[0, 0, 0]	n/a	FR1	1	R1191J
1234.883	1.617	1245340	WORD	n/a	wordpools/wordpool_EN.txt	GATE	7	8	[0, 0, 0]	n/a	FR1	1	R1191J
1236.5	0.8	1246957	WORD_OFF	n/a	n/a	GATE	7	8	[0, 0, 0]	n/a	FR1	1	R1191J
1237.3	1.617	1247757	WORD	n/a	wordpools/wordpool_EN.txt	COW	8	8	[0, 0, 0]	n/a	FR1	1	R1191J
1238.917	0.833	1249374	WORD_OFF	n/a	n/a	COW	8	8	[0, 0, 0]	n/a	FR1	1	R1191J
1239.75	1.617	1250207	WORD	n/a	wordpools/wordpool_EN.txt	WOLF	9	8	[0, 0, 0]	n/a	FR1	1	R1191J
1241.367	0.884	1251824	WORD_OFF	n/a	n/a	WOLF	9	8	[0, 0, 0]	n/a	FR1	1	R1191J
1242.251	1.616	1252708	WORD	n/a	wordpools/wordpool_EN.txt	BAG	10	8	[0, 0, 0]	n/a	FR1	1	R1191J
1243.867	0.8	1254324	WORD_OFF	n/a	n/a	BAG	10	8	[0, 0, 0]	n/a	FR1	1	R1191J
1244.667	1.617	1255124	WORD	n/a	wordpools/wordpool_EN.txt	STEAK	11	8	[0, 0, 0]	n/a	FR1	1	R1191J
1246.284	0.85	1256741	WORD_OFF	n/a	n/a	STEAK	11	8	[0, 0, 0]	n/a	FR1	1	R1191J
1247.134	1.617	1257591	WORD	n/a	wordpools/wordpool_EN.txt	CALF	12	8	[0, 0, 0]	n/a	FR1	1	R1191J
1248.751	0.0	1259208	WORD_OFF	n/a	n/a	CALF	12	8	[0, 0, 0]	n/a	FR1	1	R1191J
1248.751	0.001	1259208	DISTRACT_START	n/a	n/a	n/a	-999	8	[0, 0, 0]	n/a	FR1	1	R1191J
1248.752	0.016	1259209	START	n/a	n/a	n/a	-999	8	[-999, -999, -999]	n/a	FR1	1	R1191J
1248.768	8.968	1259225	PROB	8.968	n/a	n/a	-999	8	[5, 3, 3]	11	FR1	1	R1191J
1257.736	28.372	1268193	PROB	28.372	n/a	n/a	-999	8	[5, 7, 8]	20	FR1	1	R1191J
1286.108	0.015	1296565	STOP	n/a	n/a	n/a	-999	8	[-999, -999, -999]	n/a	FR1	1	R1191J
1286.123	0.567	1296580	DISTRACT_END	n/a	n/a	n/a	-999	8	[0, 0, 0]	n/a	FR1	1	R1191J
1286.69	0.518	1297147	RETRIEVAL_ORIENT	n/a	n/a	n/a	-999	8	[0, 0, 0]	n/a	FR1	1	R1191J
1287.208	3.514	1297665	REC_START	n/a	n/a	n/a	-999	8	[0, 0, 0]	n/a	FR1	1	R1191J
1290.722	0.869	1301179	REC_WORD	0.869	n/a	GOAT	-999	8	[0, 0, 0]	n/a	FR1	1	R1191J
1291.591	0.917	1302048	REC_WORD	0.917	n/a	COW	-999	8	[0, 0, 0]	n/a	FR1	1	R1191J
1292.508	24.71	1302965	REC_WORD	24.71	n/a	WOLF	-999	8	[0, 0, 0]	n/a	FR1	1	R1191J
1317.218	4.893	1327675	REC_END	n/a	n/a	n/a	-999	8	[0, 0, 0]	n/a	FR1	1	R1191J
1322.111	0.5	1332568	TRIAL	n/a	n/a	n/a	-999	9	[0, 0, 0]	n/a	FR1	1	R1191J
1322.611	10.428	1333068	COUNTDOWN_START	n/a	n/a	n/a	-999	9	[0, 0, 0]	n/a	FR1	1	R1191J
1333.039	0.007	1343495	COUNTDOWN_END	n/a	n/a	n/a	-999	9	[0, 0, 0]	n/a	FR1	1	R1191J
1333.046	1.617	1343502	ORIENT	n/a	n/a	n/a	-999	9	[0, 0, 0]	n/a	FR1	1	R1191J
1334.663	2.067	1345119	ORIENT_OFF	n/a	n/a	n/a	-999	9	[0, 0, 0]	n/a	FR1	1	R1191J
1336.73	1.617	1347186	WORD	n/a	wordpools/wordpool_EN.txt	PLANE	1	9	[0, 0, 0]	n/a	FR1	1	R1191J
1338.347	0.816	1348803	WORD_OFF	n/a	n/a	PLANE	1	9	[0, 0, 0]	n/a	FR1	1	R1191J
1339.163	1.617	1349619	WORD	n/a	wordpools/wordpool_EN.txt	CAPE	2	9	[0, 0, 0]	n/a	FR1	1	R1191J
1340.78	0.817	1351236	WORD_OFF	n/a	n/a	CAPE	2	9	[0, 0, 0]	n/a	FR1	1	R1191J
1341.597	1.617	1352053	WORD	n/a	wordpools/wordpool_EN.txt	WORLD	3	9	[0, 0, 0]	n/a	FR1	1	R1191J
1343.214	0.8	1353670	WORD_OFF	n/a	n/a	WORLD	3	9	[0, 0, 0]	n/a	FR1	1	R1191J
1344.014	1.617	1354470	WORD	n/a	wordpools/wordpool_EN.txt	CORD	4	9	[0, 0, 0]	n/a	FR1	1	R1191J
1345.631	0.8	1356087	WORD_OFF	n/a	n/a	CORD	4	9	[0, 0, 0]	n/a	FR1	1	R1191J
1346.431	1.617	1356887	WORD	n/a	wordpools/wordpool_EN.txt	CASH	5	9	[0, 0, 0]	n/a	FR1	1	R1191J
1348.048	1.0	1358504	WORD_OFF	n/a	n/a	CASH	5	9	[0, 0, 0]	n/a	FR1	1	R1191J
1349.048	1.617	1359504	WORD	n/a	wordpools/wordpool_EN.txt	TEETH	6	9	[0, 0, 0]	n/a	FR1	1	R1191J
1350.665	0.967	1361121	WORD_OFF	n/a	n/a	TEETH	6	9	[0, 0, 0]	n/a	FR1	1	R1191J
1351.632	1.617	1362088	WORD	n/a	wordpools/wordpool_EN.txt	BOARD	7	9	[0, 0, 0]	n/a	FR1	1	R1191J
1353.249	0.916	1363705	WORD_OFF	n/a	n/a	BOARD	7	9	[0, 0, 0]	n/a	FR1	1	R1191J
1354.165	1.617	1364621	WORD	n/a	wordpools/wordpool_EN.txt	SHEET	8	9	[0, 0, 0]	n/a	FR1	1	R1191J
1355.782	0.834	1366238	WORD_OFF	n/a	n/a	SHEET	8	9	[0, 0, 0]	n/a	FR1	1	R1191J
1356.616	1.616	1367072	WORD	n/a	wordpools/wordpool_EN.txt	BOMB	9	9	[0, 0, 0]	n/a	FR1	1	R1191J
1358.232	0.834	1368688	WORD_OFF	n/a	n/a	BOMB	9	9	[0, 0, 0]	n/a	FR1	1	R1191J
1359.066	1.617	1369522	WORD	n/a	wordpools/wordpool_EN.txt	WHEEL	10	9	[0, 0, 0]	n/a	FR1	1	R1191J
1360.683	0.9	1371139	WORD_OFF	n/a	n/a	WHEEL	10	9	[0, 0, 0]	n/a	FR1	1	R1191J
1361.583	1.617	1372039	WORD	n/a	wordpools/wordpool_EN.txt	TOOL	11	9	[0, 0, 0]	n/a	FR1	1	R1191J
1363.2	0.783	1373656	WORD_OFF	n/a	n/a	TOOL	11	9	[0, 0, 0]	n/a	FR1	1	R1191J
1363.983	1.617	1374439	WORD	n/a	wordpools/wordpool_EN.txt	PHONE	12	9	[0, 0, 0]	n/a	FR1	1	R1191J
1365.6	0.0	1376056	WORD_OFF	n/a	n/a	PHONE	12	9	[0, 0, 0]	n/a	FR1	1	R1191J
1365.6	0.001	1376056	DISTRACT_START	n/a	n/a	n/a	-999	9	[0, 0, 0]	n/a	FR1	1	R1191J
1365.601	0.016	1376057	START	n/a	n/a	n/a	-999	9	[-999, -999, -999]	n/a	FR1	1	R1191J
1365.617	10.401	1376073	PROB	10.401	n/a	n/a	-999	9	[9, 9, 2]	20	FR1	1	R1191J
1376.018	20.302	1386474	PROB	20.302	n/a	n/a	-999	9	[7, 9, 8]	24	FR1	1	R1191J
1396.32	0.018	1406776	STOP	n/a	n/a	n/a	-999	9	[-999, -999, -999]	n/a	FR1	1	R1191J
1396.338	0.683	1406794	DISTRACT_END	n/a	n/a	n/a	-999	9	[0, 0, 0]	n/a	FR1	1	R1191J
1397.021	0.517	1407477	RETRIEVAL_ORIENT	n/a	n/a	n/a	-999	9	[0, 0, 0]	n/a	FR1	1	R1191J
1397.538	3.993	1407994	REC_START	n/a	n/a	n/a	-999	9	[0, 0, 0]	n/a	FR1	1	R1191J
1401.531	1.118	1411987	REC_WORD	1.118	n/a	PHONE	-999	9	[0, 0, 0]	n/a	FR1	1	R1191J
1402.649	1.626	1413105	REC_WORD	1.626	n/a	TOOL	-999	9	[0, 0, 0]	n/a	FR1	1	R1191J
1404.275	23.276	1414731	REC_WORD	23.276	n/a	CAPE	-999	9	[0, 0, 0]	n/a	FR1	1	R1191J
1427.551	4.958	1438007	REC_END	n/a	n/a	n/a	-999	9	[0, 0, 0]	n/a	FR1	1	R1191J
1432.509	0.5	1442965	TRIAL	n/a	n/a	n/a	-999	10	[0, 0, 0]	n/a	FR1	1	R1191J
1433.009	10.428	1443465	COUNTDOWN_START	n/a	n/a	n/a	-999	10	[0, 0, 0]	n/a	FR1	1	R1191J
1443.437	0.008	1453893	COUNTDOWN_END	n/a	n/a	n/a	-999	10	[0, 0, 0]	n/a	FR1	1	R1191J
1443.445	1.616	1453901	ORIENT	n/a	n/a	n/a	-999	10	[0, 0, 0]	n/a	FR1	1	R1191J
1445.061	2.1	1455517	ORIENT_OFF	n/a	n/a	n/a	-999	10	[0, 0, 0]	n/a	FR1	1	R1191J
1447.161	1.617	1457617	WORD	n/a	wordpools/wordpool_EN.txt	BENCH	1	10	[0, 0, 0]	n/a	FR1	1	R1191J
1448.778	0.95	1459234	WORD_OFF	n/a	n/a	BENCH	1	10	[0, 0, 0]	n/a	FR1	1	R1191J
1449.728	1.617	1460184	WORD	n/a	wordpools/wordpool_EN.txt	FACE	2	10	[0, 0, 0]	n/a	FR1	1	R1191J
1451.345	0.767	1461801	WORD_OFF	n/a	n/a	FACE	2	10	[0, 0, 0]	n/a	FR1	1	R1191J
1452.112	1.617	1462568	WORD	n/a	wordpools/wordpool_EN.txt	STICK	3	10	[0, 0, 0]	n/a	FR1	1	R1191J
1453.729	1.0	1464185	WORD_OFF	n/a	n/a	STICK	3	10	[0, 0, 0]	n/a	FR1	1	R1191J
1454.729	1.617	1465185	WORD	n/a	wordpools/wordpool_EN.txt	TOY	4	10	[0, 0, 0]	n/a	FR1	1	R1191J
1456.346	1.017	1466802	WORD_OFF	n/a	n/a	TOY	4	10	[0, 0, 0]	n/a	FR1	1	R1191J
1457.363	1.616	1467819	WORD	n/a	wordpools/wordpool_EN.txt	LIP	5	10	[0, 0, 0]	n/a	FR1	1	R1191J
1458.979	0.834	1469435	WORD_OFF	n/a	n/a	LIP	5	10	[0, 0, 0]	n/a	FR1	1	R1191J
1459.813	1.617	1470269	WORD	n/a	wordpools/wordpool_EN.txt	GRASS	6	10	[0, 0, 0]	n/a	FR1	1	R1191J
1461.43	0.85	1471886	WORD_OFF	n/a	n/a	GRASS	6	10	[0, 0, 0]	n/a	FR1	1	R1191J
1462.28	1.617	1472736	WORD	n/a	wordpools/wordpool_EN.txt	LEG	7	10	[0, 0, 0]	n/a	FR1	1	R1191J
1463.897	0.95	1474353	WORD_OFF	n/a	n/a	LEG	7	10	[0, 0, 0]	n/a	FR1	1	R1191J
1464.847	1.617	1475303	WORD	n/a	wordpools/wordpool_EN.txt	DIME	8	10	[0, 0, 0]	n/a	FR1	1	R1191J
1466.464	0.8	1476920	WORD_OFF	n/a	n/a	DIME	8	10	[0, 0, 0]	n/a	FR1	1	R1191J
1467.264	1.617	1477720	WORD	n/a	wordpools/wordpool_EN.txt	SHOE	9	10	[0, 0, 0]	n/a	FR1	1	R1191J
1468.881	0.95	1479337	WORD_OFF	n/a	n/a	SHOE	9	10	[0, 0, 0]	n/a	FR1	1	R1191J
1469.831	1.618	1480287	WORD	n/a	wordpools/wordpool_EN.txt	PALM	10	10	[0, 0, 0]	n/a	FR1	1	R1191J
1471.449	0.782	1481905	WORD_OFF	n/a	n/a	PALM	10	10	[0, 0, 0]	n/a	FR1	1	R1191J
1472.231	1.617	1482687	WORD	n/a	wordpools/wordpool_EN.txt	SUN	11	10	[0, 0, 0]	n/a	FR1	1	R1191J
1473.848	0.884	1484304	WORD_OFF	n/a	n/a	SUN	11	10	[0, 0, 0]	n/a	FR1	1	R1191J
1474.732	1.617	1485188	WORD	n/a	wordpools/wordpool_EN.txt	BALL	12	10	[0, 0, 0]	n/a	FR1	1	R1191J
1476.349	0.0	1486805	WORD_OFF	n/a	n/a	BALL	12	10	[0, 0, 0]	n/a	FR1	1	R1191J
1476.349	0.0	1486805	DISTRACT_START	n/a	n/a	n/a	-999	10	[0, 0, 0]	n/a	FR1	1	R1191J
1476.349	0.016	1486805	START	n/a	n/a	n/a	-999	10	[-999, -999, -999]	n/a	FR1	1	R1191J
1476.365	22.775	1486821	PROB	22.775	n/a	n/a	-999	10	[7, 9, 3]	19	FR1	1	R1191J
1499.14	0.011	1509596	STOP	n/a	n/a	n/a	-999	10	[-999, -999, -999]	n/a	FR1	1	R1191J
1499.151	0.567	1509607	DISTRACT_END	n/a	n/a	n/a	-999	10	[0, 0, 0]	n/a	FR1	1	R1191J
1499.718	0.518	1510174	RETRIEVAL_ORIENT	n/a	n/a	n/a	-999	10	[0, 0, 0]	n/a	FR1	1	R1191J
1500.236	1.619	1510692	REC_START	n/a	n/a	n/a	-999	10	[0, 0, 0]	n/a	FR1	1	R1191J
1501.855	1.0	1512311	REC_WORD	1.0	n/a	FACE	-999	10	[0, 0, 0]	n/a	FR1	1	R1191J
1502.855	0.261	1513311	REC_WORD_VV	0.261	n/a	<>	-999	10	[0, 0, 0]	n/a	FR1	1	R1191J
1503.116	0.549	1513572	REC_WORD	0.549	n/a	LIP	-999	10	[0, 0, 0]	n/a	FR1	1	R1191J
1503.665	26.583	1514121	REC_WORD	26.583	n/a	STICK	-999	10	[0, 0, 0]	n/a	FR1	1	R1191J
1530.248	5.425	1540704	REC_END	n/a	n/a	n/a	-999	10	[0, 0, 0]	n/a	FR1	1	R1191J
1535.673	0.5	1546129	TRIAL	n/a	n/a	n/a	-999	11	[0, 0, 0]	n/a	FR1	1	R1191J
1536.173	10.428	1546629	COUNTDOWN_START	n/a	n/a	n/a	-999	11	[0, 0, 0]	n/a	FR1	1	R1191J
1546.601	0.007	1557057	COUNTDOWN_END	n/a	n/a	n/a	-999	11	[0, 0, 0]	n/a	FR1	1	R1191J
1546.608	1.617	1557064	ORIENT	n/a	n/a	n/a	-999	11	[0, 0, 0]	n/a	FR1	1	R1191J
1548.225	2.083	1558681	ORIENT_OFF	n/a	n/a	n/a	-999	11	[0, 0, 0]	n/a	FR1	1	R1191J
1550.308	1.617	1560764	WORD	n/a	wordpools/wordpool_EN.txt	CART	1	11	[0, 0, 0]	n/a	FR1	1	R1191J
1551.925	1.017	1562381	WORD_OFF	n/a	n/a	CART	1	11	[0, 0, 0]	n/a	FR1	1	R1191J
1552.942	1.617	1563398	WORD	n/a	wordpools/wordpool_EN.txt	PASTE	2	11	[0, 0, 0]	n/a	FR1	1	R1191J
1554.559	0.95	1565015	WORD_OFF	n/a	n/a	PASTE	2	11	[0, 0, 0]	n/a	FR1	1	R1191J
1555.509	1.617	1565965	WORD	n/a	wordpools/wordpool_EN.txt	SALT	3	11	[0, 0, 0]	n/a	FR1	1	R1191J
1557.126	0.883	1567582	WORD_OFF	n/a	n/a	SALT	3	11	[0, 0, 0]	n/a	FR1	1	R1191J
1558.009	1.617	1568465	WORD	n/a	wordpools/wordpool_EN.txt	CHALK	4	11	[0, 0, 0]	n/a	FR1	1	R1191J
1559.626	0.984	1570082	WORD_OFF	n/a	n/a	CHALK	4	11	[0, 0, 0]	n/a	FR1	1	R1191J
1560.61	1.617	1571066	WORD	n/a	wordpools/wordpool_EN.txt	INK	5	11	[0, 0, 0]	n/a	FR1	1	R1191J
1562.227	0.816	1572683	WORD_OFF	n/a	n/a	INK	5	11	[0, 0, 0]	n/a	FR1	1	R1191J
1563.043	1.617	1573499	WORD	n/a	wordpools/wordpool_EN.txt	BEAN	6	11	[0, 0, 0]	n/a	FR1	1	R1191J
1564.66	1.0	1575116	WORD_OFF	n/a	n/a	BEAN	6	11	[0, 0, 0]	n/a	FR1	1	R1191J
1565.66	1.617	1576116	WORD	n/a	wordpools/wordpool_EN.txt	SHARK	7	11	[0, 0, 0]	n/a	FR1	1	R1191J
1567.277	1.001	1577733	WORD_OFF	n/a	n/a	SHARK	7	11	[0, 0, 0]	n/a	FR1	1	R1191J
1568.278	1.616	1578734	WORD	n/a	wordpools/wordpool_EN.txt	TRAY	8	11	[0, 0, 0]	n/a	FR1	1	R1191J
1569.894	0.784	1580350	WORD_OFF	n/a	n/a	TRAY	8	11	[0, 0, 0]	n/a	FR1	1	R1191J
1570.678	1.617	1581134	WORD	n/a	wordpools/wordpool_EN.txt	FRUIT	9	11	[0, 0, 0]	n/a	FR1	1	R1191J
1572.295	0.817	1582751	WORD_OFF	n/a	n/a	FRUIT	9	11	[0, 0, 0]	n/a	FR1	1	R1191J
1573.112	1.617	1583568	WORD	n/a	wordpools/wordpool_EN.txt	STONE	10	11	[0, 0, 0]	n/a	FR1	1	R1191J
1574.729	0.867	1585185	WORD_OFF	n/a	n/a	STONE	10	11	[0, 0, 0]	n/a	FR1	1	R1191J
1575.596	1.616	1586052	WORD	n/a	wordpools/wordpool_EN.txt	PLATE	11	11	[0, 0, 0]	n/a	FR1	1	R1191J
1577.212	0.867	1587668	WORD_OFF	n/a	n/a	PLATE	11	11	[0, 0, 0]	n/a	FR1	1	R1191J
1578.079	1.617	1588535	WORD	n/a	wordpools/wordpool_EN.txt	FENCE	12	11	[0, 0, 0]	n/a	FR1	1	R1191J
1579.696	0.0	1590152	WORD_OFF	n/a	n/a	FENCE	12	11	[0, 0, 0]	n/a	FR1	1	R1191J
1579.696	0.0	1590152	DISTRACT_START	n/a	n/a	n/a	-999	11	[0, 0, 0]	n/a	FR1	1	R1191J
1579.696	0.016	1590152	START	n/a	n/a	n/a	-999	11	[-999, -999, -999]	n/a	FR1	1	R1191J
1579.712	15.686	1590168	PROB	15.686	n/a	n/a	-999	11	[7, 5, 6]	18	FR1	1	R1191J
1595.398	5.411	1605853	PROB	5.411	n/a	n/a	-999	11	[1, 5, 5]	11	FR1	1	R1191J
1600.809	0.006	1611264	STOP	n/a	n/a	n/a	-999	11	[-999, -999, -999]	n/a	FR1	1	R1191J
1600.815	0.567	1611270	DISTRACT_END	n/a	n/a	n/a	-999	11	[0, 0, 0]	n/a	FR1	1	R1191J
1601.382	0.517	1611837	RETRIEVAL_ORIENT	n/a	n/a	n/a	-999	11	[0, 0, 0]	n/a	FR1	1	R1191J
1601.899	1.937	1612354	REC_START	n/a	n/a	n/a	-999	11	[0, 0, 0]	n/a	FR1	1	R1191J
1603.836	2.051	1614291	REC_WORD	2.051	n/a	FRUIT	-999	11	[0, 0, 0]	n/a	FR1	1	R1191J
1605.887	1.215	1616342	REC_WORD	1.215	n/a	TRAY	-999	11	[0, 0, 0]	n/a	FR1	1	R1191J
1607.102	24.811	1617557	REC_WORD	24.811	n/a	PASTE	-999	11	[0, 0, 0]	n/a	FR1	1	R1191J
1631.913	15.692	1642368	REC_END	n/a	n/a	n/a	-999	11	[0, 0, 0]	n/a	FR1	1	R1191J
1647.605	0.5	1658060	TRIAL	n/a	n/a	n/a	-999	12	[0, 0, 0]	n/a	FR1	1	R1191J
1648.105	10.428	1658560	COUNTDOWN_START	n/a	n/a	n/a	-999	12	[0, 0, 0]	n/a	FR1	1	R1191J
1658.533	0.006	1668988	COUNTDOWN_END	n/a	n/a	n/a	-999	12	[0, 0, 0]	n/a	FR1	1	R1191J
1658.539	1.617	1668994	ORIENT	n/a	n/a	n/a	-999	12	[0, 0, 0]	n/a	FR1	1	R1191J
1660.156	2.218	1670611	ORIENT_OFF	n/a	n/a	n/a	-999	12	[0, 0, 0]	n/a	FR1	1	R1191J
1662.374	1.616	1672829	WORD	n/a	wordpools/wordpool_EN.txt	ROAD	1	12	[0, 0, 0]	n/a	FR1	1	R1191J
1663.99	0.917	1674445	WORD_OFF	n/a	n/a	ROAD	1	12	[0, 0, 0]	n/a	FR1	1	R1191J
1664.907	1.617	1675362	WORD	n/a	wordpools/wordpool_EN.txt	VAN	2	12	[0, 0, 0]	n/a	FR1	1	R1191J
1666.524	0.867	1676979	WORD_OFF	n/a	n/a	VAN	2	12	[0, 0, 0]	n/a	FR1	1	R1191J
1667.391	1.616	1677846	WORD	n/a	wordpools/wordpool_EN.txt	DRUM	3	12	[0, 0, 0]	n/a	FR1	1	R1191J
1669.007	0.984	1679462	WORD_OFF	n/a	n/a	DRUM	3	12	[0, 0, 0]	n/a	FR1	1	R1191J
1669.991	1.617	1680446	WORD	n/a	wordpools/wordpool_EN.txt	ARK	4	12	[0, 0, 0]	n/a	FR1	1	R1191J
1671.608	0.8	1682063	WORD_OFF	n/a	n/a	ARK	4	12	[0, 0, 0]	n/a	FR1	1	R1191J
1672.408	1.617	1682863	WORD	n/a	wordpools/wordpool_EN.txt	SQUARE	5	12	[0, 0, 0]	n/a	FR1	1	R1191J
1674.025	1.0	1684480	WORD_OFF	n/a	n/a	SQUARE	5	12	[0, 0, 0]	n/a	FR1	1	R1191J
1675.025	1.617	1685480	WORD	n/a	wordpools/wordpool_EN.txt	BAND	6	12	[0, 0, 0]	n/a	FR1	1	R1191J
1676.642	1.017	1687097	WORD_OFF	n/a	n/a	BAND	6	12	[0, 0, 0]	n/a	FR1	1	R1191J
1677.659	1.617	1688114	WORD	n/a	wordpools/wordpool_EN.txt	CANE	7	12	[0, 0, 0]	n/a	FR1	1	R1191J
1679.276	0.766	1689731	WORD_OFF	n/a	n/a	CANE	7	12	[0, 0, 0]	n/a	FR1	1	R1191J
1680.042	1.617	1690497	WORD	n/a	wordpools/wordpool_EN.txt	HORN	8	12	[0, 0, 0]	n/a	FR1	1	R1191J
1681.659	0.917	1692114	WORD_OFF	n/a	n/a	HORN	8	12	[0, 0, 0]	n/a	FR1	1	R1191J
1682.576	1.617	1693031	WORD	n/a	wordpools/wordpool_EN.txt	ARM	9	12	[0, 0, 0]	n/a	FR1	1	R1191J
1684.193	0.917	1694648	WORD_OFF	n/a	n/a	ARM	9	12	[0, 0, 0]	n/a	FR1	1	R1191J
1685.11	1.617	1695565	WORD	n/a	wordpools/wordpool_EN.txt	CHEEK	10	12	[0, 0, 0]	n/a	FR1	1	R1191J
1686.727	0.766	1697182	WORD_OFF	n/a	n/a	CHEEK	10	12	[0, 0, 0]	n/a	FR1	1	R1191J
1687.493	1.617	1697948	WORD	n/a	wordpools/wordpool_EN.txt	THUMB	11	12	[0, 0, 0]	n/a	FR1	1	R1191J
1689.11	0.783	1699565	WORD_OFF	n/a	n/a	THUMB	11	12	[0, 0, 0]	n/a	FR1	1	R1191J
1689.893	1.618	1700348	WORD	n/a	wordpools/wordpool_EN.txt	SKI	12	12	[0, 0, 0]	n/a	FR1	1	R1191J
1691.511	0.0	1701966	WORD_OFF	n/a	n/a	SKI	12	12	[0, 0, 0]	n/a	FR1	1	R1191J
1691.511	0.0	1701966	DISTRACT_START	n/a	n/a	n/a	-999	12	[0, 0, 0]	n/a	FR1	1	R1191J
1691.511	0.016	1701966	START	n/a	n/a	n/a	-999	12	[-999, -999, -999]	n/a	FR1	1	R1191J
1691.527	19.086	1701982	PROB	19.086	n/a	n/a	-999	12	[6, 9, 5]	20	FR1	1	R1191J
1710.613	9.031	1721068	PROB	9.031	n/a	n/a	-999	12	[1, 8, 5]	14	FR1	1	R1191J
1719.644	0.02	1730099	STOP	n/a	n/a	n/a	-999	12	[-999, -999, -999]	n/a	FR1	1	R1191J
1719.664	0.567	1730119	DISTRACT_END	n/a	n/a	n/a	-999	12	[0, 0, 0]	n/a	FR1	1	R1191J
1720.231	0.517	1730686	RETRIEVAL_ORIENT	n/a	n/a	n/a	-999	12	[0, 0, 0]	n/a	FR1	1	R1191J
1720.748	2.074	1731203	REC_START	n/a	n/a	n/a	-999	12	[0, 0, 0]	n/a	FR1	1	R1191J
1722.822	0.927	1733277	REC_WORD	0.927	n/a	ARM	-999	12	[0, 0, 0]	n/a	FR1	1	R1191J
1723.749	1.37	1734204	REC_WORD	1.37	n/a	THUMB	-999	12	[0, 0, 0]	n/a	FR1	1	R1191J
1725.119	7.813	1735574	REC_WORD	7.813	n/a	SKI	-999	12	[0, 0, 0]	n/a	FR1	1	R1191J
1732.932	1.0	1743387	REC_WORD_VV	1.0	n/a	<>	-999	12	[0, 0, 0]	n/a	FR1	1	R1191J
1733.932	1.0	1744387	REC_WORD_VV	1.0	n/a	<>	-999	12	[0, 0, 0]	n/a	FR1	1	R1191J
1734.932	15.829	1745387	REC_WORD_VV	15.829	n/a	<>	-999	12	[0, 0, 0]	n/a	FR1	1	R1191J
1750.761	16.393	1761216	REC_END	n/a	n/a	n/a	-999	12	[0, 0, 0]	n/a	FR1	1	R1191J
1767.154	0.5	1777609	TRIAL	n/a	n/a	n/a	-999	13	[0, 0, 0]	n/a	FR1	1	R1191J
1767.654	10.428	1778109	COUNTDOWN_START	n/a	n/a	n/a	-999	13	[0, 0, 0]	n/a	FR1	1	R1191J
1778.082	0.006	1788537	COUNTDOWN_END	n/a	n/a	n/a	-999	13	[0, 0, 0]	n/a	FR1	1	R1191J
1778.088	1.617	1788543	ORIENT	n/a	n/a	n/a	-999	13	[0, 0, 0]	n/a	FR1	1	R1191J
1779.705	2.067	1790160	ORIENT_OFF	n/a	n/a	n/a	-999	13	[0, 0, 0]	n/a	FR1	1	R1191J
1781.772	1.617	1792227	WORD	n/a	wordpools/wordpool_EN.txt	CLIFF	1	13	[0, 0, 0]	n/a	FR1	1	R1191J
1783.389	0.983	1793844	WORD_OFF	n/a	n/a	CLIFF	1	13	[0, 0, 0]	n/a	FR1	1	R1191J
1784.372	1.617	1794827	WORD	n/a	wordpools/wordpool_EN.txt	CONE	2	13	[0, 0, 0]	n/a	FR1	1	R1191J
1785.989	0.967	1796444	WORD_OFF	n/a	n/a	CONE	2	13	[0, 0, 0]	n/a	FR1	1	R1191J
1786.956	1.617	1797411	WORD	n/a	wordpools/wordpool_EN.txt	LAND	3	13	[0, 0, 0]	n/a	FR1	1	R1191J
1788.573	0.867	1799028	WORD_OFF	n/a	n/a	LAND	3	13	[0, 0, 0]	n/a	FR1	1	R1191J
1789.44	1.617	1799895	WORD	n/a	wordpools/wordpool_EN.txt	CHIN	4	13	[0, 0, 0]	n/a	FR1	1	R1191J
1791.057	0.916	1801512	WORD_OFF	n/a	n/a	CHIN	4	13	[0, 0, 0]	n/a	FR1	1	R1191J
1791.973	1.617	1802428	WORD	n/a	wordpools/wordpool_EN.txt	VINE	5	13	[0, 0, 0]	n/a	FR1	1	R1191J
1793.59	0.95	1804045	WORD_OFF	n/a	n/a	VINE	5	13	[0, 0, 0]	n/a	FR1	1	R1191J
1794.54	1.617	1804995	WORD	n/a	wordpools/wordpool_EN.txt	SOCK	6	13	[0, 0, 0]	n/a	FR1	1	R1191J
1796.157	0.834	1806612	WORD_OFF	n/a	n/a	SOCK	6	13	[0, 0, 0]	n/a	FR1	1	R1191J
1796.991	1.616	1807446	WORD	n/a	wordpools/wordpool_EN.txt	FUR	7	13	[0, 0, 0]	n/a	FR1	1	R1191J
1798.607	1.001	1809062	WORD_OFF	n/a	n/a	FUR	7	13	[0, 0, 0]	n/a	FR1	1	R1191J
1799.608	1.616	1810063	WORD	n/a	wordpools/wordpool_EN.txt	VEST	8	13	[0, 0, 0]	n/a	FR1	1	R1191J
1801.224	0.917	1811679	WORD_OFF	n/a	n/a	VEST	8	13	[0, 0, 0]	n/a	FR1	1	R1191J
1802.141	1.617	1812596	WORD	n/a	wordpools/wordpool_EN.txt	FLOOR	9	13	[0, 0, 0]	n/a	FR1	1	R1191J
1803.758	0.884	1814213	WORD_OFF	n/a	n/a	FLOOR	9	13	[0, 0, 0]	n/a	FR1	1	R1191J
1804.642	1.617	1815097	WORD	n/a	wordpools/wordpool_EN.txt	RUG	10	13	[0, 0, 0]	n/a	FR1	1	R1191J
1806.259	0.883	1816714	WORD_OFF	n/a	n/a	RUG	10	13	[0, 0, 0]	n/a	FR1	1	R1191J
1807.142	1.617	1817597	WORD	n/a	wordpools/wordpool_EN.txt	RIB	11	13	[0, 0, 0]	n/a	FR1	1	R1191J
1808.759	0.9	1819214	WORD_OFF	n/a	n/a	RIB	11	13	[0, 0, 0]	n/a	FR1	1	R1191J
1809.659	1.617	1820114	WORD	n/a	wordpools/wordpool_EN.txt	WALL	12	13	[0, 0, 0]	n/a	FR1	1	R1191J
1811.276	0.0	1821731	WORD_OFF	n/a	n/a	WALL	12	13	[0, 0, 0]	n/a	FR1	1	R1191J
1811.276	0.001	1821731	DISTRACT_START	n/a	n/a	n/a	-999	13	[0, 0, 0]	n/a	FR1	1	R1191J
1811.277	0.016	1821732	START	n/a	n/a	n/a	-999	13	[-999, -999, -999]	n/a	FR1	1	R1191J
1811.293	17.985	1821748	PROB	17.985	n/a	n/a	-999	13	[5, 1, 6]	12	FR1	1	R1191J
1829.278	9.561	1839733	PROB	9.561	n/a	n/a	-999	13	[4, 4, 3]	11	FR1	1	R1191J
1838.839	0.007	1849294	STOP	n/a	n/a	n/a	-999	13	[-999, -999, -999]	n/a	FR1	1	R1191J
1838.846	0.601	1849301	DISTRACT_END	n/a	n/a	n/a	-999	13	[0, 0, 0]	n/a	FR1	1	R1191J
1839.447	0.517	1849902	RETRIEVAL_ORIENT	n/a	n/a	n/a	-999	13	[0, 0, 0]	n/a	FR1	1	R1191J
1839.964	1.012	1850419	REC_START	n/a	n/a	n/a	-999	13	[0, 0, 0]	n/a	FR1	1	R1191J
1840.976	8.711	1851431	REC_WORD	8.711	n/a	CHIN	-999	13	[0, 0, 0]	n/a	FR1	1	R1191J
1849.687	2.042	1860142	REC_WORD	2.042	n/a	WALK	-999	13	[0, 0, 0]	n/a	FR1	1	R1191J
1851.729	3.335	1862184	REC_WORD	3.335	n/a	ART	-999	13	[0, 0, 0]	n/a	FR1	1	R1191J
1855.064	0.654	1865518	REC_WORD	0.654	n/a	CHIN	-999	13	[0, 0, 0]	n/a	FR1	1	R1191J
1855.718	0.789	1866172	REC_WORD	0.789	n/a	RIB	-999	13	[0, 0, 0]	n/a	FR1	1	R1191J
1856.507	5.448	1866961	REC_WORD	5.448	n/a	ART	-999	13	[0, 0, 0]	n/a	FR1	1	R1191J
1861.955	1.0	1872409	REC_WORD	1.0	n/a	CHIN	-999	13	[0, 0, 0]	n/a	FR1	1	R1191J
1862.955	0.637	1873409	REC_WORD_VV	0.637	n/a	<>	-999	13	[0, 0, 0]	n/a	FR1	1	R1191J
1863.592	1.707	1874046	REC_WORD	1.707	n/a	BLOCK	-999	13	[0, 0, 0]	n/a	FR1	1	R1191J
1865.299	4.676	1875753	REC_WORD	4.676	n/a	RIB	-999	13	[0, 0, 0]	n/a	FR1	1	R1191J
1869.975	9.01	1880429	REC_END	n/a	n/a	n/a	-999	13	[0, 0, 0]	n/a	FR1	1	R1191J
1878.985	0.5	1889439	TRIAL	n/a	n/a	n/a	-999	14	[0, 0, 0]	n/a	FR1	1	R1191J
1879.485	10.428	1889939	COUNTDOWN_START	n/a	n/a	n/a	-999	14	[0, 0, 0]	n/a	FR1	1	R1191J
1889.913	0.007	1900367	COUNTDOWN_END	n/a	n/a	n/a	-999	14	[0, 0, 0]	n/a	FR1	1	R1191J
1889.92	1.617	1900374	ORIENT	n/a	n/a	n/a	-999	14	[0, 0, 0]	n/a	FR1	1	R1191J
1891.537	2.084	1901991	ORIENT_OFF	n/a	n/a	n/a	-999	14	[0, 0, 0]	n/a	FR1	1	R1191J
1893.621	1.617	1904075	WORD	n/a	wordpools/wordpool_EN.txt	FROG	1	14	[0, 0, 0]	n/a	FR1	1	R1191J
1895.238	0.9	1905692	WORD_OFF	n/a	n/a	FROG	1	14	[0, 0, 0]	n/a	FR1	1	R1191J
1896.138	1.616	1906592	WORD	n/a	wordpools/wordpool_EN.txt	STORE	2	14	[0, 0, 0]	n/a	FR1	1	R1191J
1897.754	0.817	1908208	WORD_OFF	n/a	n/a	STORE	2	14	[0, 0, 0]	n/a	FR1	1	R1191J
1898.571	1.617	1909025	WORD	n/a	wordpools/wordpool_EN.txt	BADGE	3	14	[0, 0, 0]	n/a	FR1	1	R1191J
1900.188	0.85	1910642	WORD_OFF	n/a	n/a	BADGE	3	14	[0, 0, 0]	n/a	FR1	1	R1191J
1901.038	1.617	1911492	WORD	n/a	wordpools/wordpool_EN.txt	CLOCK	4	14	[0, 0, 0]	n/a	FR1	1	R1191J
1902.655	0.9	1913109	WORD_OFF	n/a	n/a	CLOCK	4	14	[0, 0, 0]	n/a	FR1	1	R1191J
1903.555	1.617	1914009	WORD	n/a	wordpools/wordpool_EN.txt	TANK	5	14	[0, 0, 0]	n/a	FR1	1	R1191J
1905.172	0.867	1915626	WORD_OFF	n/a	n/a	TANK	5	14	[0, 0, 0]	n/a	FR1	1	R1191J
1906.039	1.616	1916493	WORD	n/a	wordpools/wordpool_EN.txt	MAIL	6	14	[0, 0, 0]	n/a	FR1	1	R1191J
1907.655	0.951	1918109	WORD_OFF	n/a	n/a	MAIL	6	14	[0, 0, 0]	n/a	FR1	1	R1191J
1908.606	1.617	1919060	WORD	n/a	wordpools/wordpool_EN.txt	COIN	7	14	[0, 0, 0]	n/a	FR1	1	R1191J
1910.223	0.85	1920677	WORD_OFF	n/a	n/a	COIN	7	14	[0, 0, 0]	n/a	FR1	1	R1191J
1911.073	1.617	1921527	WORD	n/a	wordpools/wordpool_EN.txt	KEY	8	14	[0, 0, 0]	n/a	FR1	1	R1191J
1912.69	0.768	1923144	WORD_OFF	n/a	n/a	KEY	8	14	[0, 0, 0]	n/a	FR1	1	R1191J
1913.458	1.615	1923912	WORD	n/a	wordpools/wordpool_EN.txt	BOOK	9	14	[0, 0, 0]	n/a	FR1	1	R1191J
1915.073	0.967	1925527	WORD_OFF	n/a	n/a	BOOK	9	14	[0, 0, 0]	n/a	FR1	1	R1191J
1916.04	1.617	1926494	WORD	n/a	wordpools/wordpool_EN.txt	JUDGE	10	14	[0, 0, 0]	n/a	FR1	1	R1191J
1917.657	0.801	1928111	WORD_OFF	n/a	n/a	JUDGE	10	14	[0, 0, 0]	n/a	FR1	1	R1191J
1918.458	1.616	1928912	WORD	n/a	wordpools/wordpool_EN.txt	CAR	11	14	[0, 0, 0]	n/a	FR1	1	R1191J
1920.074	0.866	1930528	WORD_OFF	n/a	n/a	CAR	11	14	[0, 0, 0]	n/a	FR1	1	R1191J
1920.94	1.618	1931394	WORD	n/a	wordpools/wordpool_EN.txt	STREET	12	14	[0, 0, 0]	n/a	FR1	1	R1191J
1922.558	0.0	1933012	WORD_OFF	n/a	n/a	STREET	12	14	[0, 0, 0]	n/a	FR1	1	R1191J
1922.558	0.0	1933012	DISTRACT_START	n/a	n/a	n/a	-999	14	[0, 0, 0]	n/a	FR1	1	R1191J
1922.558	0.016	1933012	START	n/a	n/a	n/a	-999	14	[-999, -999, -999]	n/a	FR1	1	R1191J
1922.574	8.235	1933028	PROB	8.235	n/a	n/a	-999	14	[4, 1, 8]	13	FR1	1	R1191J
1930.809	8.884	1941263	PROB	8.884	n/a	n/a	-999	14	[7, 3, 4]	14	FR1	1	R1191J
1939.693	38.262	1950147	PROB	38.262	n/a	n/a	-999	14	[6, 7, 8]	20	FR1	1	R1191J
1977.955	0.01	1988409	STOP	n/a	n/a	n/a	-999	14	[-999, -999, -999]	n/a	FR1	1	R1191J
1977.965	0.533	1988419	DISTRACT_END	n/a	n/a	n/a	-999	14	[0, 0, 0]	n/a	FR1	1	R1191J
1978.498	0.518	1988952	RETRIEVAL_ORIENT	n/a	n/a	n/a	-999	14	[0, 0, 0]	n/a	FR1	1	R1191J
1979.016	6.802	1989470	REC_START	n/a	n/a	n/a	-999	14	[0, 0, 0]	n/a	FR1	1	R1191J
1985.818	3.68	1996272	REC_WORD	3.68	n/a	COIN	-999	14	[0, 0, 0]	n/a	FR1	1	R1191J
1989.498	0.764	1999952	REC_WORD	0.764	n/a	KEY	-999	14	[0, 0, 0]	n/a	FR1	1	R1191J
1990.262	18.766	2000716	REC_WORD	18.766	n/a	CHAIN	-999	14	[0, 0, 0]	n/a	FR1	1	R1191J
2009.028	8.393	2019482	REC_END	n/a	n/a	n/a	-999	14	[0, 0, 0]	n/a	FR1	1	R1191J
2017.421	0.5	2027875	TRIAL	n/a	n/a	n/a	-999	15	[0, 0, 0]	n/a	FR1	1	R1191J
2017.921	10.428	2028375	COUNTDOWN_START	n/a	n/a	n/a	-999	15	[0, 0, 0]	n/a	FR1	1	R1191J
2028.349	0.006	2038803	COUNTDOWN_END	n/a	n/a	n/a	-999	15	[0, 0, 0]	n/a	FR1	1	R1191J
2028.355	1.617	2038809	ORIENT	n/a	n/a	n/a	-999	15	[0, 0, 0]	n/a	FR1	1	R1191J
2029.972	2.134	2040426	ORIENT_OFF	n/a	n/a	n/a	-999	15	[0, 0, 0]	n/a	FR1	1	R1191J
2032.106	1.617	2042560	WORD	n/a	wordpools/wordpool_EN.txt	SEAT	1	15	[0, 0, 0]	n/a	FR1	1	R1191J
2033.723	0.816	2044177	WORD_OFF	n/a	n/a	SEAT	1	15	[0, 0, 0]	n/a	FR1	1	R1191J
2034.539	1.6	2044993	WORD	n/a	wordpools/wordpool_EN.txt	PARK	2	15	[0, 0, 0]	n/a	FR1	1	R1191J
2036.139	0.918	2046593	WORD_OFF	n/a	n/a	PARK	2	15	[0, 0, 0]	n/a	FR1	1	R1191J
2037.057	1.616	2047511	WORD	n/a	wordpools/wordpool_EN.txt	JEEP	3	15	[0, 0, 0]	n/a	FR1	1	R1191J
2038.673	0.85	2049127	WORD_OFF	n/a	n/a	JEEP	3	15	[0, 0, 0]	n/a	FR1	1	R1191J
2039.523	1.617	2049977	WORD	n/a	wordpools/wordpool_EN.txt	DRESS	4	15	[0, 0, 0]	n/a	FR1	1	R1191J
2041.14	0.767	2051594	WORD_OFF	n/a	n/a	DRESS	4	15	[0, 0, 0]	n/a	FR1	1	R1191J
2041.907	1.617	2052361	WORD	n/a	wordpools/wordpool_EN.txt	MULE	5	15	[0, 0, 0]	n/a	FR1	1	R1191J
2043.524	0.9	2053978	WORD_OFF	n/a	n/a	MULE	5	15	[0, 0, 0]	n/a	FR1	1	R1191J
2044.424	1.617	2054878	WORD	n/a	wordpools/wordpool_EN.txt	TRUCK	6	15	[0, 0, 0]	n/a	FR1	1	R1191J
2046.041	0.817	2056495	WORD_OFF	n/a	n/a	TRUCK	6	15	[0, 0, 0]	n/a	FR1	1	R1191J
2046.858	1.617	2057312	WORD	n/a	wordpools/wordpool_EN.txt	LAWN	7	15	[0, 0, 0]	n/a	FR1	1	R1191J
2048.475	0.967	2058929	WORD_OFF	n/a	n/a	LAWN	7	15	[0, 0, 0]	n/a	FR1	1	R1191J
2049.442	1.617	2059896	WORD	n/a	wordpools/wordpool_EN.txt	SMILE	8	15	[0, 0, 0]	n/a	FR1	1	R1191J
2051.059	0.983	2061513	WORD_OFF	n/a	n/a	SMILE	8	15	[0, 0, 0]	n/a	FR1	1	R1191J
2052.042	1.617	2062496	WORD	n/a	wordpools/wordpool_EN.txt	HOUSE	9	15	[0, 0, 0]	n/a	FR1	1	R1191J
2053.659	0.817	2064113	WORD_OFF	n/a	n/a	HOUSE	9	15	[0, 0, 0]	n/a	FR1	1	R1191J
2054.476	1.617	2064930	WORD	n/a	wordpools/wordpool_EN.txt	ROOM	10	15	[0, 0, 0]	n/a	FR1	1	R1191J
2056.093	0.9	2066547	WORD_OFF	n/a	n/a	ROOM	10	15	[0, 0, 0]	n/a	FR1	1	R1191J
2056.993	1.616	2067447	WORD	n/a	wordpools/wordpool_EN.txt	OAR	11	15	[0, 0, 0]	n/a	FR1	1	R1191J
2058.609	0.884	2069063	WORD_OFF	n/a	n/a	OAR	11	15	[0, 0, 0]	n/a	FR1	1	R1191J
2059.493	1.617	2069947	WORD	n/a	wordpools/wordpool_EN.txt	SHIRT	12	15	[0, 0, 0]	n/a	FR1	1	R1191J
2061.11	0.0	2071564	WORD_OFF	n/a	n/a	SHIRT	12	15	[0, 0, 0]	n/a	FR1	1	R1191J
2061.11	0.001	2071564	DISTRACT_START	n/a	n/a	n/a	-999	15	[0, 0, 0]	n/a	FR1	1	R1191J
2061.111	0.015	2071565	START	n/a	n/a	n/a	-999	15	[-999, -999, -999]	n/a	FR1	1	R1191J
2061.126	12.385	2071580	PROB	12.385	n/a	n/a	-999	15	[8, 1, 9]	18	FR1	1	R1191J
2073.511	13.096	2083965	PROB	13.096	n/a	n/a	-999	15	[8, 5, 3]	16	FR1	1	R1191J
2086.607	0.006	2097061	STOP	n/a	n/a	n/a	-999	15	[-999, -999, -999]	n/a	FR1	1	R1191J
2086.613	0.617	2097067	DISTRACT_END	n/a	n/a	n/a	-999	15	[0, 0, 0]	n/a	FR1	1	R1191J
2087.23	0.517	2097684	RETRIEVAL_ORIENT	n/a	n/a	n/a	-999	15	[0, 0, 0]	n/a	FR1	1	R1191J
2087.747	2.262	2098201	REC_START	n/a	n/a	n/a	-999	15	[0, 0, 0]	n/a	FR1	1	R1191J
2090.009	0.802	2100463	REC_WORD	0.802	n/a	JEEP	-999	15	[0, 0, 0]	n/a	FR1	1	R1191J
2090.811	1.783	2101265	REC_WORD	1.783	n/a	TRUCK	-999	15	[0, 0, 0]	n/a	FR1	1	R1191J
2092.594	1.0	2103048	REC_WORD	1.0	n/a	DRESS	-999	15	[0, 0, 0]	n/a	FR1	1	R1191J
2093.594	24.162	2104048	REC_WORD_VV	24.162	n/a	<>	-999	15	[0, 0, 0]	n/a	FR1	1	R1191J
2117.756	6.212	2128209	REC_END	n/a	n/a	n/a	-999	15	[0, 0, 0]	n/a	FR1	1	R1191J
2123.968	0.5	2134421	TRIAL	n/a	n/a	n/a	-999	16	[0, 0, 0]	n/a	FR1	1	R1191J
2124.468	10.428	2134921	COUNTDOWN_START	n/a	n/a	n/a	-999	16	[0, 0, 0]	n/a	FR1	1	R1191J
2134.896	0.007	2145349	COUNTDOWN_END	n/a	n/a	n/a	-999	16	[0, 0, 0]	n/a	FR1	1	R1191J
2134.903	1.617	2145356	ORIENT	n/a	n/a	n/a	-999	16	[0, 0, 0]	n/a	FR1	1	R1191J
2136.52	2.033	2146973	ORIENT_OFF	n/a	n/a	n/a	-999	16	[0, 0, 0]	n/a	FR1	1	R1191J
2138.553	1.617	2149006	WORD	n/a	wordpools/wordpool_EN.txt	BROOM	1	16	[0, 0, 0]	n/a	FR1	1	R1191J
2140.17	0.934	2150623	WORD_OFF	n/a	n/a	BROOM	1	16	[0, 0, 0]	n/a	FR1	1	R1191J
2141.104	1.617	2151557	WORD	n/a	wordpools/wordpool_EN.txt	FAN	2	16	[0, 0, 0]	n/a	FR1	1	R1191J
2142.721	0.783	2153174	WORD_OFF	n/a	n/a	FAN	2	16	[0, 0, 0]	n/a	FR1	1	R1191J
2143.504	1.617	2153957	WORD	n/a	wordpools/wordpool_EN.txt	SLEEVE	3	16	[0, 0, 0]	n/a	FR1	1	R1191J
2145.121	0.884	2155574	WORD_OFF	n/a	n/a	SLEEVE	3	16	[0, 0, 0]	n/a	FR1	1	R1191J
2146.005	1.616	2156458	WORD	n/a	wordpools/wordpool_EN.txt	MUG	4	16	[0, 0, 0]	n/a	FR1	1	R1191J
2147.621	0.9	2158074	WORD_OFF	n/a	n/a	MUG	4	16	[0, 0, 0]	n/a	FR1	1	R1191J
2148.521	1.617	2158974	WORD	n/a	wordpools/wordpool_EN.txt	FUDGE	5	16	[0, 0, 0]	n/a	FR1	1	R1191J
2150.138	0.85	2160591	WORD_OFF	n/a	n/a	FUDGE	5	16	[0, 0, 0]	n/a	FR1	1	R1191J
2150.988	1.617	2161441	WORD	n/a	wordpools/wordpool_EN.txt	COUCH	6	16	[0, 0, 0]	n/a	FR1	1	R1191J
2152.605	0.95	2163058	WORD_OFF	n/a	n/a	COUCH	6	16	[0, 0, 0]	n/a	FR1	1	R1191J
2153.555	1.617	2164008	WORD	n/a	wordpools/wordpool_EN.txt	HOSE	7	16	[0, 0, 0]	n/a	FR1	1	R1191J
2155.172	0.834	2165625	WORD_OFF	n/a	n/a	HOSE	7	16	[0, 0, 0]	n/a	FR1	1	R1191J
2156.006	1.616	2166459	WORD	n/a	wordpools/wordpool_EN.txt	PIG	8	16	[0, 0, 0]	n/a	FR1	1	R1191J
2157.622	0.917	2168075	WORD_OFF	n/a	n/a	PIG	8	16	[0, 0, 0]	n/a	FR1	1	R1191J
2158.539	1.617	2168992	WORD	n/a	wordpools/wordpool_EN.txt	BRUSH	9	16	[0, 0, 0]	n/a	FR1	1	R1191J
2160.156	0.917	2170609	WORD_OFF	n/a	n/a	BRUSH	9	16	[0, 0, 0]	n/a	FR1	1	R1191J
2161.073	1.617	2171526	WORD	n/a	wordpools/wordpool_EN.txt	BOX	10	16	[0, 0, 0]	n/a	FR1	1	R1191J
2162.69	0.784	2173143	WORD_OFF	n/a	n/a	BOX	10	16	[0, 0, 0]	n/a	FR1	1	R1191J
2163.474	1.616	2173927	WORD	n/a	wordpools/wordpool_EN.txt	RAT	11	16	[0, 0, 0]	n/a	FR1	1	R1191J
2165.09	0.901	2175543	WORD_OFF	n/a	n/a	RAT	11	16	[0, 0, 0]	n/a	FR1	1	R1191J
2165.991	1.616	2176444	WORD	n/a	wordpools/wordpool_EN.txt	PIT	12	16	[0, 0, 0]	n/a	FR1	1	R1191J
2167.607	0.0	2178060	DISTRACT_START	n/a	n/a	n/a	-999	16	[0, 0, 0]	n/a	FR1	1	R1191J
2167.607	0.001	2178060	WORD_OFF	n/a	n/a	PIT	12	16	[0, 0, 0]	n/a	FR1	1	R1191J
2167.608	0.016	2178061	START	n/a	n/a	n/a	-999	16	[-999, -999, -999]	n/a	FR1	1	R1191J
2167.624	17.086	2178077	PROB	17.086	n/a	n/a	-999	16	[4, 6, 9]	19	FR1	1	R1191J
2184.71	4.701	2195163	PROB	4.701	n/a	n/a	-999	16	[2, 2, 2]	6	FR1	1	R1191J
2189.411	0.016	2199864	STOP	n/a	n/a	n/a	-999	16	[-999, -999, -999]	n/a	FR1	1	R1191J
2189.427	0.667	2199880	DISTRACT_END	n/a	n/a	n/a	-999	16	[0, 0, 0]	n/a	FR1	1	R1191J
2190.094	0.517	2200547	RETRIEVAL_ORIENT	n/a	n/a	n/a	-999	16	[0, 0, 0]	n/a	FR1	1	R1191J
2190.611	2.495	2201064	REC_START	n/a	n/a	n/a	-999	16	[0, 0, 0]	n/a	FR1	1	R1191J
2193.106	1.519	2203559	REC_WORD	1.519	n/a	RAT	-999	16	[0, 0, 0]	n/a	FR1	1	R1191J
2194.625	0.809	2205078	REC_WORD	0.809	n/a	BROOM	-999	16	[0, 0, 0]	n/a	FR1	1	R1191J
2195.434	25.189	2205887	REC_WORD	25.189	n/a	BRUSH	-999	16	[0, 0, 0]	n/a	FR1	1	R1191J
2220.623	47.331	2231076	REC_END	n/a	n/a	n/a	-999	16	[0, 0, 0]	n/a	FR1	1	R1191J
2267.954	0.5	2278407	TRIAL	n/a	n/a	n/a	-999	17	[0, 0, 0]	n/a	FR1	1	R1191J
2268.454	10.428	2278907	COUNTDOWN_START	n/a	n/a	n/a	-999	17	[0, 0, 0]	n/a	FR1	1	R1191J
2278.882	0.007	2289335	COUNTDOWN_END	n/a	n/a	n/a	-999	17	[0, 0, 0]	n/a	FR1	1	R1191J
2278.889	1.617	2289342	ORIENT	n/a	n/a	n/a	-999	17	[0, 0, 0]	n/a	FR1	1	R1191J
2280.506	1.983	2290959	ORIENT_OFF	n/a	n/a	n/a	-999	17	[0, 0, 0]	n/a	FR1	1	R1191J
2282.489	1.617	2292942	WORD	n/a	wordpools/wordpool_EN.txt	SEED	1	17	[0, 0, 0]	n/a	FR1	1	R1191J
2284.106	0.834	2294559	WORD_OFF	n/a	n/a	SEED	1	17	[0, 0, 0]	n/a	FR1	1	R1191J
2284.94	1.617	2295393	WORD	n/a	wordpools/wordpool_EN.txt	STEM	2	17	[0, 0, 0]	n/a	FR1	1	R1191J
2286.557	0.967	2297010	WORD_OFF	n/a	n/a	STEM	2	17	[0, 0, 0]	n/a	FR1	1	R1191J
2287.524	1.617	2297977	WORD	n/a	wordpools/wordpool_EN.txt	PLANT	3	17	[0, 0, 0]	n/a	FR1	1	R1191J
2289.141	0.983	2299594	WORD_OFF	n/a	n/a	PLANT	3	17	[0, 0, 0]	n/a	FR1	1	R1191J
2290.124	1.617	2300577	WORD	n/a	wordpools/wordpool_EN.txt	THREAD	4	17	[0, 0, 0]	n/a	FR1	1	R1191J
2291.741	0.866	2302194	WORD_OFF	n/a	n/a	THREAD	4	17	[0, 0, 0]	n/a	FR1	1	R1191J
2292.607	1.617	2303060	WORD	n/a	wordpools/wordpool_EN.txt	LAMB	5	17	[0, 0, 0]	n/a	FR1	1	R1191J
2294.224	0.951	2304677	WORD_OFF	n/a	n/a	LAMB	5	17	[0, 0, 0]	n/a	FR1	1	R1191J
2295.175	1.616	2305628	WORD	n/a	wordpools/wordpool_EN.txt	PEARL	6	17	[0, 0, 0]	n/a	FR1	1	R1191J
2296.791	0.934	2307244	WORD_OFF	n/a	n/a	PEARL	6	17	[0, 0, 0]	n/a	FR1	1	R1191J
2297.725	1.617	2308178	WORD	n/a	wordpools/wordpool_EN.txt	RICE	7	17	[0, 0, 0]	n/a	FR1	1	R1191J
2299.342	0.917	2309795	WORD_OFF	n/a	n/a	RICE	7	17	[0, 0, 0]	n/a	FR1	1	R1191J
2300.259	1.617	2310712	WORD	n/a	wordpools/wordpool_EN.txt	SHRIMP	8	17	[0, 0, 0]	n/a	FR1	1	R1191J
2301.876	0.833	2312329	WORD_OFF	n/a	n/a	SHRIMP	8	17	[0, 0, 0]	n/a	FR1	1	R1191J
2302.709	1.617	2313162	WORD	n/a	wordpools/wordpool_EN.txt	MOOSE	9	17	[0, 0, 0]	n/a	FR1	1	R1191J
2304.326	122.093	2314779	WORD_OFF	n/a	n/a	MOOSE	9	17	[0, 0, 0]	n/a	FR1	1	R1191J
2426.419	0.0	2436871	SESSION_SKIPPED	n/a	n/a	n/a	-999	17	[0, 0, 0]	n/a	FR1	1	R1191J
