onset	duration	sample	trial_type	response_time	stim_file	item_name	serialpos	list	test	answer	experiment	session	subject
0.0	0.0	5394	INSTRUCT_START	n/a	n/a	n/a	-999	-999	[0, 0, 0]	n/a	FR1	1	R1187P
0.0	11.164	5394	INSTRUCT_END	n/a	n/a	n/a	-999	-999	[0, 0, 0]	n/a	FR1	1	R1187P
11.164	0.0	16557	SESS_START	n/a	n/a	n/a	-999	-999	[0, 0, 0]	n/a	FR1	1	R1187P
11.164	57.5	16557	MIC_TEST	n/a	n/a	n/a	-999	-999	[0, 0, 0]	n/a	FR1	1	R1187P
68.664	5.334	74054	PRACTICE_TRIAL	n/a	n/a	n/a	-999	-1	[0, 0, 0]	n/a	FR1	1	R1187P
73.998	10.428	79388	COUNTDOWN_START	n/a	n/a	n/a	-999	-1	[0, 0, 0]	n/a	FR1	1	R1187P
84.426	0.007	89815	COUNTDOWN_END	n/a	n/a	n/a	-999	-1	[0, 0, 0]	n/a	FR1	1	R1187P
84.433	1.616	89822	PRACTICE_ORIENT	n/a	n/a	n/a	-999	-1	[0, 0, 0]	n/a	FR1	1	R1187P
86.049	2.235	91438	PRACTICE_ORIENT_OFF	n/a	n/a	n/a	-999	-1	[0, 0, 0]	n/a	FR1	1	R1187P
88.284	1.616	93673	PRACTICE_WORD	n/a	n/a	WAGON	1	-1	[0, 0, 0]	n/a	FR1	1	R1187P
89.9	0.767	95289	PRACTICE_WORD_OFF	n/a	n/a	WAGON	-999	-1	[0, 0, 0]	n/a	FR1	1	R1187P
90.667	1.618	96056	PRACTICE_WORD	n/a	n/a	CHEST	2	-1	[0, 0, 0]	n/a	FR1	1	R1187P
92.285	0.966	97674	PRACTICE_WORD_OFF	n/a	n/a	CHEST	-999	-1	[0, 0, 0]	n/a	FR1	1	R1187P
93.251	1.616	98640	PRACTICE_WORD	n/a	n/a	WATCH	3	-1	[0, 0, 0]	n/a	FR1	1	R1187P
94.867	0.851	100256	PRACTICE_WORD_OFF	n/a	n/a	WATCH	-999	-1	[0, 0, 0]	n/a	FR1	1	R1187P
95.718	1.618	101107	PRACTICE_WORD	n/a	n/a	BEAM	4	-1	[0, 0, 0]	n/a	FR1	1	R1187P
97.336	0.9	102725	PRACTICE_WORD_OFF	n/a	n/a	BEAM	-999	-1	[0, 0, 0]	n/a	FR1	1	R1187P
98.236	1.616	103625	PRACTICE_WORD	n/a	n/a	ATTIC	5	-1	[0, 0, 0]	n/a	FR1	1	R1187P
99.852	0.95	105241	PRACTICE_WORD_OFF	n/a	n/a	ATTIC	-999	-1	[0, 0, 0]	n/a	FR1	1	R1187P
100.802	1.601	106191	PRACTICE_WORD	n/a	n/a	RHINO	6	-1	[0, 0, 0]	n/a	FR1	1	R1187P
102.403	0.967	107791	PRACTICE_WORD_OFF	n/a	n/a	RHINO	-999	-1	[0, 0, 0]	n/a	FR1	1	R1187P
103.37	1.616	108758	PRACTICE_WORD	n/a	n/a	COTTON	7	-1	[0, 0, 0]	n/a	FR1	1	R1187P
104.986	0.884	110374	PRACTICE_WORD_OFF	n/a	n/a	COTTON	-999	-1	[0, 0, 0]	n/a	FR1	1	R1187P
105.87	1.618	111258	PRACTICE_WORD	n/a	n/a	TONGUE	8	-1	[0, 0, 0]	n/a	FR1	1	R1187P
107.488	0.85	112876	PRACTICE_WORD_OFF	n/a	n/a	TONGUE	-999	-1	[0, 0, 0]	n/a	FR1	1	R1187P
108.338	1.616	113726	PRACTICE_WORD	n/a	n/a	IRON	9	-1	[0, 0, 0]	n/a	FR1	1	R1187P
109.954	0.917	115342	PRACTICE_WORD_OFF	n/a	n/a	IRON	-999	-1	[0, 0, 0]	n/a	FR1	1	R1187P
110.871	1.617	116259	PRACTICE_WORD	n/a	n/a	FLOOD	10	-1	[0, 0, 0]	n/a	FR1	1	R1187P
112.488	0.951	117876	PRACTICE_WORD_OFF	n/a	n/a	FLOOD	-999	-1	[0, 0, 0]	n/a	FR1	1	R1187P
113.439	1.616	118827	PRACTICE_WORD	n/a	n/a	RING	11	-1	[0, 0, 0]	n/a	FR1	1	R1187P
115.055	0.85	120443	PRACTICE_WORD_OFF	n/a	n/a	RING	-999	-1	[0, 0, 0]	n/a	FR1	1	R1187P
115.905	1.618	121293	PRACTICE_WORD	n/a	n/a	CAMEL	12	-1	[0, 0, 0]	n/a	FR1	1	R1187P
117.523	0.0	122911	PRACTICE_WORD_OFF	n/a	n/a	CAMEL	-999	-1	[0, 0, 0]	n/a	FR1	1	R1187P
117.523	0.0	122911	DISTRACT_START	n/a	n/a	n/a	-999	-1	[0, 0, 0]	n/a	FR1	1	R1187P
117.523	0.016	122911	START	n/a	n/a	n/a	-999	-1	[-999, -999, -999]	n/a	FR1	1	R1187P
117.539	8.635	122927	PROB	8.635	n/a	n/a	-999	-1	[9, 1, 8]	18	FR1	1	R1187P
126.174	11.153	131561	PROB	11.153	n/a	n/a	-999	-1	[4, 2, 1]	7	FR1	1	R1187P
137.327	7.524	142714	PROB	7.524	n/a	n/a	-999	-1	[5, 3, 2]	10	FR1	1	R1187P
144.851	0.009	150237	STOP	n/a	n/a	n/a	-999	-1	[-999, -999, -999]	n/a	FR1	1	R1187P
144.86	0.634	150246	DISTRACT_END	n/a	n/a	n/a	-999	-1	[0, 0, 0]	n/a	FR1	1	R1187P
145.494	0.517	150880	RETRIEVAL_ORIENT	n/a	n/a	n/a	-999	-1	[0, 0, 0]	n/a	FR1	1	R1187P
146.011	30.011	151397	PRACTICE_REC_START	n/a	n/a	n/a	-999	-1	[0, 0, 0]	n/a	FR1	1	R1187P
176.022	14.431	181407	PRACTICE_REC_END	n/a	n/a	n/a	-999	-1	[0, 0, 0]	n/a	FR1	1	R1187P
190.453	0.5	195837	TRIAL	n/a	n/a	n/a	-999	1	[0, 0, 0]	n/a	FR1	1	R1187P
190.953	10.428	196337	COUNTDOWN_START	n/a	n/a	n/a	-999	1	[0, 0, 0]	n/a	FR1	1	R1187P
201.381	0.007	206764	COUNTDOWN_END	n/a	n/a	n/a	-999	1	[0, 0, 0]	n/a	FR1	1	R1187P
201.388	1.617	206771	ORIENT	n/a	n/a	n/a	-999	1	[0, 0, 0]	n/a	FR1	1	R1187P
203.005	2.334	208388	ORIENT_OFF	n/a	n/a	n/a	-999	1	[0, 0, 0]	n/a	FR1	1	R1187P
205.339	1.616	210722	WORD	n/a	wordpools/wordpool_EN.txt	KEY	1	1	[0, 0, 0]	n/a	FR1	1	R1187P
206.955	0.8	212338	WORD_OFF	n/a	n/a	KEY	1	1	[0, 0, 0]	n/a	FR1	1	R1187P
207.755	1.601	213138	WORD	n/a	wordpools/wordpool_EN.txt	GOLD	2	1	[0, 0, 0]	n/a	FR1	1	R1187P
209.356	0.867	214739	WORD_OFF	n/a	n/a	GOLD	2	1	[0, 0, 0]	n/a	FR1	1	R1187P
210.223	1.617	215606	WORD	n/a	wordpools/wordpool_EN.txt	TEETH	3	1	[0, 0, 0]	n/a	FR1	1	R1187P
211.84	0.983	217223	WORD_OFF	n/a	n/a	TEETH	3	1	[0, 0, 0]	n/a	FR1	1	R1187P
212.823	1.618	218206	WORD	n/a	wordpools/wordpool_EN.txt	MOLE	4	1	[0, 0, 0]	n/a	FR1	1	R1187P
214.441	0.85	219824	WORD_OFF	n/a	n/a	MOLE	4	1	[0, 0, 0]	n/a	FR1	1	R1187P
215.291	1.616	220674	WORD	n/a	wordpools/wordpool_EN.txt	ZOO	5	1	[0, 0, 0]	n/a	FR1	1	R1187P
216.907	0.884	222290	WORD_OFF	n/a	n/a	ZOO	5	1	[0, 0, 0]	n/a	FR1	1	R1187P
217.791	1.618	223174	WORD	n/a	wordpools/wordpool_EN.txt	SHEEP	6	1	[0, 0, 0]	n/a	FR1	1	R1187P
219.409	0.8	224792	WORD_OFF	n/a	n/a	SHEEP	6	1	[0, 0, 0]	n/a	FR1	1	R1187P
220.209	1.616	225591	WORD	n/a	wordpools/wordpool_EN.txt	CHEEK	7	1	[0, 0, 0]	n/a	FR1	1	R1187P
221.825	0.95	227207	WORD_OFF	n/a	n/a	CHEEK	7	1	[0, 0, 0]	n/a	FR1	1	R1187P
222.775	1.601	228157	WORD	n/a	wordpools/wordpool_EN.txt	PEARL	8	1	[0, 0, 0]	n/a	FR1	1	R1187P
224.376	0.934	229758	WORD_OFF	n/a	n/a	PEARL	8	1	[0, 0, 0]	n/a	FR1	1	R1187P
225.31	1.616	230692	WORD	n/a	wordpools/wordpool_EN.txt	TOAST	9	1	[0, 0, 0]	n/a	FR1	1	R1187P
226.926	0.766	232308	WORD_OFF	n/a	n/a	TOAST	9	1	[0, 0, 0]	n/a	FR1	1	R1187P
227.692	1.601	233074	WORD	n/a	wordpools/wordpool_EN.txt	TRASH	10	1	[0, 0, 0]	n/a	FR1	1	R1187P
229.293	0.984	234675	WORD_OFF	n/a	n/a	TRASH	10	1	[0, 0, 0]	n/a	FR1	1	R1187P
230.277	1.616	235659	WORD	n/a	wordpools/wordpool_EN.txt	LEAF	11	1	[0, 0, 0]	n/a	FR1	1	R1187P
231.893	0.95	237275	WORD_OFF	n/a	n/a	LEAF	11	1	[0, 0, 0]	n/a	FR1	1	R1187P
232.843	1.618	238225	WORD	n/a	wordpools/wordpool_EN.txt	DART	12	1	[0, 0, 0]	n/a	FR1	1	R1187P
234.461	0.0	239843	WORD_OFF	n/a	n/a	DART	12	1	[0, 0, 0]	n/a	FR1	1	R1187P
234.461	0.001	239843	DISTRACT_START	n/a	n/a	n/a	-999	1	[0, 0, 0]	n/a	FR1	1	R1187P
234.462	0.016	239844	START	n/a	n/a	n/a	-999	1	[-999, -999, -999]	n/a	FR1	1	R1187P
234.478	11.686	239860	PROB	11.686	n/a	n/a	-999	1	[7, 6, 2]	13	FR1	1	R1187P
246.164	12.688	251545	PROB	12.688	n/a	n/a	-999	1	[9, 8, 5]	22	FR1	1	R1187P
258.852	0.013	264233	STOP	n/a	n/a	n/a	-999	1	[-999, -999, -999]	n/a	FR1	1	R1187P
258.865	0.684	264246	DISTRACT_END	n/a	n/a	n/a	-999	1	[0, 0, 0]	n/a	FR1	1	R1187P
259.549	0.517	264929	RETRIEVAL_ORIENT	n/a	n/a	n/a	-999	1	[0, 0, 0]	n/a	FR1	1	R1187P
260.066	4.643	265446	REC_START	n/a	n/a	n/a	-999	1	[0, 0, 0]	n/a	FR1	1	R1187P
264.709	9.539	270089	REC_WORD_VV	9.539	n/a	<>	-999	1	[0, 0, 0]	n/a	FR1	1	R1187P
274.248	12.548	279628	REC_WORD_VV	12.548	n/a	<>	-999	1	[0, 0, 0]	n/a	FR1	1	R1187P
286.796	0.515	292175	REC_WORD	0.515	n/a	ATTIC	-999	1	[0, 0, 0]	n/a	FR1	1	R1187P
287.311	2.605	292690	REC_WORD	2.605	n/a	FAN	-999	1	[0, 0, 0]	n/a	FR1	1	R1187P
289.916	0.161	295295	REC_WORD_VV	0.161	n/a	<>	-999	1	[0, 0, 0]	n/a	FR1	1	R1187P
290.077	11.197	295456	REC_END	n/a	n/a	n/a	-999	1	[0, 0, 0]	n/a	FR1	1	R1187P
301.274	0.5	306652	TRIAL	n/a	n/a	n/a	-999	2	[0, 0, 0]	n/a	FR1	1	R1187P
301.774	10.428	307152	COUNTDOWN_START	n/a	n/a	n/a	-999	2	[0, 0, 0]	n/a	FR1	1	R1187P
312.202	0.007	317580	COUNTDOWN_END	n/a	n/a	n/a	-999	2	[0, 0, 0]	n/a	FR1	1	R1187P
312.209	1.616	317587	ORIENT	n/a	n/a	n/a	-999	2	[0, 0, 0]	n/a	FR1	1	R1187P
313.825	2.134	319203	ORIENT_OFF	n/a	n/a	n/a	-999	2	[0, 0, 0]	n/a	FR1	1	R1187P
315.959	1.617	321337	WORD	n/a	wordpools/wordpool_EN.txt	CONE	1	2	[0, 0, 0]	n/a	FR1	1	R1187P
317.576	0.835	322954	WORD_OFF	n/a	n/a	CONE	1	2	[0, 0, 0]	n/a	FR1	1	R1187P
318.411	1.615	323788	WORD	n/a	wordpools/wordpool_EN.txt	FROG	2	2	[0, 0, 0]	n/a	FR1	1	R1187P
320.026	1.001	325403	WORD_OFF	n/a	n/a	FROG	2	2	[0, 0, 0]	n/a	FR1	1	R1187P
321.027	1.617	326404	WORD	n/a	wordpools/wordpool_EN.txt	BOMB	3	2	[0, 0, 0]	n/a	FR1	1	R1187P
322.644	0.768	328021	WORD_OFF	n/a	n/a	BOMB	3	2	[0, 0, 0]	n/a	FR1	1	R1187P
323.412	1.615	328789	WORD	n/a	wordpools/wordpool_EN.txt	FISH	4	2	[0, 0, 0]	n/a	FR1	1	R1187P
325.027	1.001	330404	WORD_OFF	n/a	n/a	FISH	4	2	[0, 0, 0]	n/a	FR1	1	R1187P
326.028	1.617	331405	WORD	n/a	wordpools/wordpool_EN.txt	WHEEL	5	2	[0, 0, 0]	n/a	FR1	1	R1187P
327.645	0.834	333022	WORD_OFF	n/a	n/a	WHEEL	5	2	[0, 0, 0]	n/a	FR1	1	R1187P
328.479	1.617	333856	WORD	n/a	wordpools/wordpool_EN.txt	BRIDGE	6	2	[0, 0, 0]	n/a	FR1	1	R1187P
330.096	0.782	335473	WORD_OFF	n/a	n/a	BRIDGE	6	2	[0, 0, 0]	n/a	FR1	1	R1187P
330.878	1.619	336255	WORD	n/a	wordpools/wordpool_EN.txt	PURSE	7	2	[0, 0, 0]	n/a	FR1	1	R1187P
332.497	0.783	337874	WORD_OFF	n/a	n/a	PURSE	7	2	[0, 0, 0]	n/a	FR1	1	R1187P
333.28	1.616	338657	WORD	n/a	wordpools/wordpool_EN.txt	WORM	8	2	[0, 0, 0]	n/a	FR1	1	R1187P
334.896	0.8	340273	WORD_OFF	n/a	n/a	WORM	8	2	[0, 0, 0]	n/a	FR1	1	R1187P
335.696	1.601	341073	WORD	n/a	wordpools/wordpool_EN.txt	SCHOOL	9	2	[0, 0, 0]	n/a	FR1	1	R1187P
337.297	0.801	342674	WORD_OFF	n/a	n/a	SCHOOL	9	2	[0, 0, 0]	n/a	FR1	1	R1187P
338.098	1.615	343474	WORD	n/a	wordpools/wordpool_EN.txt	MILK	10	2	[0, 0, 0]	n/a	FR1	1	R1187P
339.713	0.768	345089	WORD_OFF	n/a	n/a	MILK	10	2	[0, 0, 0]	n/a	FR1	1	R1187P
340.481	1.617	345857	WORD	n/a	wordpools/wordpool_EN.txt	SMILE	11	2	[0, 0, 0]	n/a	FR1	1	R1187P
342.098	0.833	347474	WORD_OFF	n/a	n/a	SMILE	11	2	[0, 0, 0]	n/a	FR1	1	R1187P
342.931	1.618	348307	WORD	n/a	wordpools/wordpool_EN.txt	BEACH	12	2	[0, 0, 0]	n/a	FR1	1	R1187P
344.549	0.0	349925	WORD_OFF	n/a	n/a	BEACH	12	2	[0, 0, 0]	n/a	FR1	1	R1187P
344.549	0.0	349925	DISTRACT_START	n/a	n/a	n/a	-999	2	[0, 0, 0]	n/a	FR1	1	R1187P
344.549	0.016	349925	START	n/a	n/a	n/a	-999	2	[-999, -999, -999]	n/a	FR1	1	R1187P
344.565	12.135	349941	PROB	12.135	n/a	n/a	-999	2	[9, 4, 3]	16	FR1	1	R1187P
356.7	14.134	362076	PROB	14.134	n/a	n/a	-999	2	[4, 7, 5]	16	FR1	1	R1187P
370.834	0.019	376209	STOP	n/a	n/a	n/a	-999	2	[-999, -999, -999]	n/a	FR1	1	R1187P
370.853	0.618	376228	DISTRACT_END	n/a	n/a	n/a	-999	2	[0, 0, 0]	n/a	FR1	1	R1187P
371.471	0.516	376846	RETRIEVAL_ORIENT	n/a	n/a	n/a	-999	2	[0, 0, 0]	n/a	FR1	1	R1187P
371.987	1.735	377362	REC_START	n/a	n/a	n/a	-999	2	[0, 0, 0]	n/a	FR1	1	R1187P
373.722	1.396	379097	REC_WORD_VV	1.396	n/a	<>	-999	2	[0, 0, 0]	n/a	FR1	1	R1187P
375.118	1.369	380493	REC_WORD	1.369	n/a	OCEAN	-999	2	[0, 0, 0]	n/a	FR1	1	R1187P
376.487	3.75	381862	REC_WORD_VV	3.75	n/a	<>	-999	2	[0, 0, 0]	n/a	FR1	1	R1187P
380.237	1.141	385611	REC_WORD_VV	1.141	n/a	<>	-999	2	[0, 0, 0]	n/a	FR1	1	R1187P
381.378	1.762	386752	REC_WORD	1.762	n/a	GOAT	-999	2	[0, 0, 0]	n/a	FR1	1	R1187P
383.14	2.453	388514	REC_WORD	2.453	n/a	SHEEP	-999	2	[0, 0, 0]	n/a	FR1	1	R1187P
385.593	0.84	390967	REC_WORD_VV	0.84	n/a	<>	-999	2	[0, 0, 0]	n/a	FR1	1	R1187P
386.433	2.588	391807	REC_WORD	2.588	n/a	FROG	2	2	[0, 0, 0]	n/a	FR1	1	R1187P
389.021	3.719	394395	REC_WORD_VV	3.719	n/a	<>	-999	2	[0, 0, 0]	n/a	FR1	1	R1187P
392.74	2.979	398114	REC_WORD_VV	2.979	n/a	<>	-999	2	[0, 0, 0]	n/a	FR1	1	R1187P
395.719	2.489	401093	REC_WORD	2.489	n/a	MILK	10	2	[0, 0, 0]	n/a	FR1	1	R1187P
398.208	2.298	403581	REC_WORD_VV	2.298	n/a	<>	-999	2	[0, 0, 0]	n/a	FR1	1	R1187P
400.506	1.493	405879	REC_WORD	1.493	n/a	PURSE	7	2	[0, 0, 0]	n/a	FR1	1	R1187P
401.999	11.712	407372	REC_END	n/a	n/a	n/a	-999	2	[0, 0, 0]	n/a	FR1	1	R1187P
413.711	0.5	419084	TRIAL	n/a	n/a	n/a	-999	3	[0, 0, 0]	n/a	FR1	1	R1187P
414.211	10.428	419584	COUNTDOWN_START	n/a	n/a	n/a	-999	3	[0, 0, 0]	n/a	FR1	1	R1187P
424.639	0.007	430011	COUNTDOWN_END	n/a	n/a	n/a	-999	3	[0, 0, 0]	n/a	FR1	1	R1187P
424.646	1.618	430018	ORIENT	n/a	n/a	n/a	-999	3	[0, 0, 0]	n/a	FR1	1	R1187P
426.264	2.184	431636	ORIENT_OFF	n/a	n/a	n/a	-999	3	[0, 0, 0]	n/a	FR1	1	R1187P
428.448	1.616	433820	WORD	n/a	wordpools/wordpool_EN.txt	BOARD	1	3	[0, 0, 0]	n/a	FR1	1	R1187P
430.064	0.867	435436	WORD_OFF	n/a	n/a	BOARD	1	3	[0, 0, 0]	n/a	FR1	1	R1187P
430.931	1.618	436303	WORD	n/a	wordpools/wordpool_EN.txt	SLUSH	2	3	[0, 0, 0]	n/a	FR1	1	R1187P
432.549	0.983	437921	WORD_OFF	n/a	n/a	SLUSH	2	3	[0, 0, 0]	n/a	FR1	1	R1187P
433.532	1.617	438904	WORD	n/a	wordpools/wordpool_EN.txt	PASTE	3	3	[0, 0, 0]	n/a	FR1	1	R1187P
435.149	0.799	440521	WORD_OFF	n/a	n/a	PASTE	3	3	[0, 0, 0]	n/a	FR1	1	R1187P
435.948	1.601	441320	WORD	n/a	wordpools/wordpool_EN.txt	BOAT	4	3	[0, 0, 0]	n/a	FR1	1	R1187P
437.549	0.9	442920	WORD_OFF	n/a	n/a	BOAT	4	3	[0, 0, 0]	n/a	FR1	1	R1187P
438.449	1.617	443820	WORD	n/a	wordpools/wordpool_EN.txt	LAKE	5	3	[0, 0, 0]	n/a	FR1	1	R1187P
440.066	0.883	445437	WORD_OFF	n/a	n/a	LAKE	5	3	[0, 0, 0]	n/a	FR1	1	R1187P
440.949	1.601	446320	WORD	n/a	wordpools/wordpool_EN.txt	JUICE	6	3	[0, 0, 0]	n/a	FR1	1	R1187P
442.55	0.801	447921	WORD_OFF	n/a	n/a	JUICE	6	3	[0, 0, 0]	n/a	FR1	1	R1187P
443.351	1.616	448722	WORD	n/a	wordpools/wordpool_EN.txt	SHIRT	7	3	[0, 0, 0]	n/a	FR1	1	R1187P
444.967	0.816	450338	WORD_OFF	n/a	n/a	SHIRT	7	3	[0, 0, 0]	n/a	FR1	1	R1187P
445.783	1.618	451154	WORD	n/a	wordpools/wordpool_EN.txt	BOY	8	3	[0, 0, 0]	n/a	FR1	1	R1187P
447.401	0.9	452772	WORD_OFF	n/a	n/a	BOY	8	3	[0, 0, 0]	n/a	FR1	1	R1187P
448.301	1.617	453672	WORD	n/a	wordpools/wordpool_EN.txt	BAND	9	3	[0, 0, 0]	n/a	FR1	1	R1187P
449.918	0.966	455289	WORD_OFF	n/a	n/a	BAND	9	3	[0, 0, 0]	n/a	FR1	1	R1187P
450.884	1.601	456255	WORD	n/a	wordpools/wordpool_EN.txt	CLOCK	10	3	[0, 0, 0]	n/a	FR1	1	R1187P
452.485	0.817	457856	WORD_OFF	n/a	n/a	CLOCK	10	3	[0, 0, 0]	n/a	FR1	1	R1187P
453.302	1.616	458673	WORD	n/a	wordpools/wordpool_EN.txt	SHEET	11	3	[0, 0, 0]	n/a	FR1	1	R1187P
454.918	0.984	460289	WORD_OFF	n/a	n/a	SHEET	11	3	[0, 0, 0]	n/a	FR1	1	R1187P
455.902	1.618	461273	WORD	n/a	wordpools/wordpool_EN.txt	STEAK	12	3	[0, 0, 0]	n/a	FR1	1	R1187P
457.52	0.0	462890	WORD_OFF	n/a	n/a	STEAK	12	3	[0, 0, 0]	n/a	FR1	1	R1187P
457.52	0.001	462890	DISTRACT_START	n/a	n/a	n/a	-999	3	[0, 0, 0]	n/a	FR1	1	R1187P
457.521	0.016	462891	START	n/a	n/a	n/a	-999	3	[-999, -999, -999]	n/a	FR1	1	R1187P
457.537	15.402	462907	PROB	15.402	n/a	n/a	-999	3	[6, 8, 6]	18	FR1	1	R1187P
472.939	8.648	478309	PROB	8.648	n/a	n/a	-999	3	[5, 1, 4]	10	FR1	1	R1187P
481.587	0.02	486956	STOP	n/a	n/a	n/a	-999	3	[-999, -999, -999]	n/a	FR1	1	R1187P
481.607	0.701	486976	DISTRACT_END	n/a	n/a	n/a	-999	3	[0, 0, 0]	n/a	FR1	1	R1187P
482.308	0.516	487677	RETRIEVAL_ORIENT	n/a	n/a	n/a	-999	3	[0, 0, 0]	n/a	FR1	1	R1187P
482.824	1.308	488193	REC_START	n/a	n/a	n/a	-999	3	[0, 0, 0]	n/a	FR1	1	R1187P
484.132	1.46	489501	REC_WORD_VV	1.46	n/a	<>	-999	3	[0, 0, 0]	n/a	FR1	1	R1187P
485.592	2.189	490961	REC_WORD	2.189	n/a	BOY	8	3	[0, 0, 0]	n/a	FR1	1	R1187P
487.781	1.0	493150	REC_WORD	1.0	n/a	SLEEVE	-999	3	[0, 0, 0]	n/a	FR1	1	R1187P
488.781	0.95	494150	REC_WORD_VV	0.95	n/a	<>	-999	3	[0, 0, 0]	n/a	FR1	1	R1187P
489.731	5.843	495100	REC_WORD_VV	5.843	n/a	<>	-999	3	[0, 0, 0]	n/a	FR1	1	R1187P
495.574	1.308	500942	REC_WORD_VV	1.308	n/a	<>	-999	3	[0, 0, 0]	n/a	FR1	1	R1187P
496.882	5.412	502250	REC_WORD_VV	5.412	n/a	<>	-999	3	[0, 0, 0]	n/a	FR1	1	R1187P
502.294	1.602	507662	REC_WORD	1.602	n/a	COTTON	-999	3	[0, 0, 0]	n/a	FR1	1	R1187P
503.896	5.347	509264	REC_WORD_VV	5.347	n/a	<>	-999	3	[0, 0, 0]	n/a	FR1	1	R1187P
509.243	3.591	514611	REC_WORD_VV	3.591	n/a	<>	-999	3	[0, 0, 0]	n/a	FR1	1	R1187P
512.834	53.205	518202	REC_END	n/a	n/a	n/a	-999	3	[0, 0, 0]	n/a	FR1	1	R1187P
566.039	0.5	571404	TRIAL	n/a	n/a	n/a	-999	4	[0, 0, 0]	n/a	FR1	1	R1187P
566.539	10.428	571904	COUNTDOWN_START	n/a	n/a	n/a	-999	4	[0, 0, 0]	n/a	FR1	1	R1187P
576.967	0.008	582331	COUNTDOWN_END	n/a	n/a	n/a	-999	4	[0, 0, 0]	n/a	FR1	1	R1187P
576.975	1.617	582339	ORIENT	n/a	n/a	n/a	-999	4	[0, 0, 0]	n/a	FR1	1	R1187P
578.592	2.317	583956	ORIENT_OFF	n/a	n/a	n/a	-999	4	[0, 0, 0]	n/a	FR1	1	R1187P
580.909	1.618	586273	WORD	n/a	wordpools/wordpool_EN.txt	RAT	1	4	[0, 0, 0]	n/a	FR1	1	R1187P
582.527	0.917	587891	WORD_OFF	n/a	n/a	RAT	1	4	[0, 0, 0]	n/a	FR1	1	R1187P
583.444	1.616	588808	WORD	n/a	wordpools/wordpool_EN.txt	SWAMP	2	4	[0, 0, 0]	n/a	FR1	1	R1187P
585.06	0.9	590424	WORD_OFF	n/a	n/a	SWAMP	2	4	[0, 0, 0]	n/a	FR1	1	R1187P
585.96	1.617	591324	WORD	n/a	wordpools/wordpool_EN.txt	BRUSH	3	4	[0, 0, 0]	n/a	FR1	1	R1187P
587.577	0.934	592941	WORD_OFF	n/a	n/a	BRUSH	3	4	[0, 0, 0]	n/a	FR1	1	R1187P
588.511	1.617	593875	WORD	n/a	wordpools/wordpool_EN.txt	GATE	4	4	[0, 0, 0]	n/a	FR1	1	R1187P
590.128	0.833	595492	WORD_OFF	n/a	n/a	GATE	4	4	[0, 0, 0]	n/a	FR1	1	R1187P
590.961	1.617	596325	WORD	n/a	wordpools/wordpool_EN.txt	CUBE	5	4	[0, 0, 0]	n/a	FR1	1	R1187P
592.578	0.834	597942	WORD_OFF	n/a	n/a	CUBE	5	4	[0, 0, 0]	n/a	FR1	1	R1187P
593.412	1.616	598776	WORD	n/a	wordpools/wordpool_EN.txt	SEA	6	4	[0, 0, 0]	n/a	FR1	1	R1187P
595.028	0.85	600391	WORD_OFF	n/a	n/a	SEA	6	4	[0, 0, 0]	n/a	FR1	1	R1187P
595.878	1.601	601241	WORD	n/a	wordpools/wordpool_EN.txt	BIRD	7	4	[0, 0, 0]	n/a	FR1	1	R1187P
597.479	0.967	602842	WORD_OFF	n/a	n/a	BIRD	7	4	[0, 0, 0]	n/a	FR1	1	R1187P
598.446	1.616	603809	WORD	n/a	wordpools/wordpool_EN.txt	SIGN	8	4	[0, 0, 0]	n/a	FR1	1	R1187P
600.062	0.917	605425	WORD_OFF	n/a	n/a	SIGN	8	4	[0, 0, 0]	n/a	FR1	1	R1187P
600.979	1.617	606342	WORD	n/a	wordpools/wordpool_EN.txt	DRESS	9	4	[0, 0, 0]	n/a	FR1	1	R1187P
602.596	0.968	607959	WORD_OFF	n/a	n/a	DRESS	9	4	[0, 0, 0]	n/a	FR1	1	R1187P
603.564	1.617	608927	WORD	n/a	wordpools/wordpool_EN.txt	BARN	10	4	[0, 0, 0]	n/a	FR1	1	R1187P
605.181	0.95	610544	WORD_OFF	n/a	n/a	BARN	10	4	[0, 0, 0]	n/a	FR1	1	R1187P
606.131	1.616	611494	WORD	n/a	wordpools/wordpool_EN.txt	BOX	11	4	[0, 0, 0]	n/a	FR1	1	R1187P
607.747	0.834	613110	WORD_OFF	n/a	n/a	BOX	11	4	[0, 0, 0]	n/a	FR1	1	R1187P
608.581	1.618	613944	WORD	n/a	wordpools/wordpool_EN.txt	BRICK	12	4	[0, 0, 0]	n/a	FR1	1	R1187P
610.199	0.0	615562	WORD_OFF	n/a	n/a	BRICK	12	4	[0, 0, 0]	n/a	FR1	1	R1187P
610.199	0.0	615562	DISTRACT_START	n/a	n/a	n/a	-999	4	[0, 0, 0]	n/a	FR1	1	R1187P
610.199	0.016	615562	START	n/a	n/a	n/a	-999	4	[-999, -999, -999]	n/a	FR1	1	R1187P
610.215	6.801	615578	PROB	6.801	n/a	n/a	-999	4	[6, 1, 1]	8	FR1	1	R1187P
617.016	13.851	622378	PROB	13.851	n/a	n/a	-999	4	[8, 4, 7]	21	FR1	1	R1187P
630.867	0.018	636229	STOP	n/a	n/a	n/a	-999	4	[-999, -999, -999]	n/a	FR1	1	R1187P
630.885	0.534	636247	DISTRACT_END	n/a	n/a	n/a	-999	4	[0, 0, 0]	n/a	FR1	1	R1187P
631.419	0.517	636781	RETRIEVAL_ORIENT	n/a	n/a	n/a	-999	4	[0, 0, 0]	n/a	FR1	1	R1187P
631.936	3.956	637298	REC_START	n/a	n/a	n/a	-999	4	[0, 0, 0]	n/a	FR1	1	R1187P
635.892	10.769	641253	REC_WORD_VV	10.769	n/a	<>	-999	4	[0, 0, 0]	n/a	FR1	1	R1187P
646.661	15.284	652022	REC_WORD_VV	15.284	n/a	<>	-999	4	[0, 0, 0]	n/a	FR1	1	R1187P
661.945	6.697	667305	REC_END	n/a	n/a	n/a	-999	4	[0, 0, 0]	n/a	FR1	1	R1187P
668.642	0.5	674002	TRIAL	n/a	n/a	n/a	-999	5	[0, 0, 0]	n/a	FR1	1	R1187P
669.142	10.428	674502	COUNTDOWN_START	n/a	n/a	n/a	-999	5	[0, 0, 0]	n/a	FR1	1	R1187P
679.57	0.007	684929	COUNTDOWN_END	n/a	n/a	n/a	-999	5	[0, 0, 0]	n/a	FR1	1	R1187P
679.577	1.601	684936	ORIENT	n/a	n/a	n/a	-999	5	[0, 0, 0]	n/a	FR1	1	R1187P
681.178	2.101	686537	ORIENT_OFF	n/a	n/a	n/a	-999	5	[0, 0, 0]	n/a	FR1	1	R1187P
683.279	1.616	688638	WORD	n/a	wordpools/wordpool_EN.txt	CHIEF	1	5	[0, 0, 0]	n/a	FR1	1	R1187P
684.895	0.8	690254	WORD_OFF	n/a	n/a	CHIEF	1	5	[0, 0, 0]	n/a	FR1	1	R1187P
685.695	1.601	691054	WORD	n/a	wordpools/wordpool_EN.txt	SKY	2	5	[0, 0, 0]	n/a	FR1	1	R1187P
687.296	0.851	692655	WORD_OFF	n/a	n/a	SKY	2	5	[0, 0, 0]	n/a	FR1	1	R1187P
688.147	1.616	693506	WORD	n/a	wordpools/wordpool_EN.txt	BANK	3	5	[0, 0, 0]	n/a	FR1	1	R1187P
689.763	0.916	695122	WORD_OFF	n/a	n/a	BANK	3	5	[0, 0, 0]	n/a	FR1	1	R1187P
690.679	1.618	696038	WORD	n/a	wordpools/wordpool_EN.txt	DOG	4	5	[0, 0, 0]	n/a	FR1	1	R1187P
692.297	0.951	697655	WORD_OFF	n/a	n/a	DOG	4	5	[0, 0, 0]	n/a	FR1	1	R1187P
693.248	1.616	698606	WORD	n/a	wordpools/wordpool_EN.txt	ARK	5	5	[0, 0, 0]	n/a	FR1	1	R1187P
694.864	0.883	700222	WORD_OFF	n/a	n/a	ARK	5	5	[0, 0, 0]	n/a	FR1	1	R1187P
695.747	1.618	701105	WORD	n/a	wordpools/wordpool_EN.txt	MUD	6	5	[0, 0, 0]	n/a	FR1	1	R1187P
697.365	0.967	702723	WORD_OFF	n/a	n/a	MUD	6	5	[0, 0, 0]	n/a	FR1	1	R1187P
698.332	1.616	703690	WORD	n/a	wordpools/wordpool_EN.txt	BRANCH	7	5	[0, 0, 0]	n/a	FR1	1	R1187P
699.948	0.933	705306	WORD_OFF	n/a	n/a	BRANCH	7	5	[0, 0, 0]	n/a	FR1	1	R1187P
700.881	1.601	706239	WORD	n/a	wordpools/wordpool_EN.txt	SKUNK	8	5	[0, 0, 0]	n/a	FR1	1	R1187P
702.482	1.001	707840	WORD_OFF	n/a	n/a	SKUNK	8	5	[0, 0, 0]	n/a	FR1	1	R1187P
703.483	1.617	708841	WORD	n/a	wordpools/wordpool_EN.txt	FORK	9	5	[0, 0, 0]	n/a	FR1	1	R1187P
705.1	0.866	710458	WORD_OFF	n/a	n/a	FORK	9	5	[0, 0, 0]	n/a	FR1	1	R1187P
705.966	1.617	711324	WORD	n/a	wordpools/wordpool_EN.txt	MOUSE	10	5	[0, 0, 0]	n/a	FR1	1	R1187P
707.583	0.817	712941	WORD_OFF	n/a	n/a	MOUSE	10	5	[0, 0, 0]	n/a	FR1	1	R1187P
708.4	1.616	713758	WORD	n/a	wordpools/wordpool_EN.txt	SNAKE	11	5	[0, 0, 0]	n/a	FR1	1	R1187P
710.016	0.85	715374	WORD_OFF	n/a	n/a	SNAKE	11	5	[0, 0, 0]	n/a	FR1	1	R1187P
710.866	1.619	716224	WORD	n/a	wordpools/wordpool_EN.txt	POND	12	5	[0, 0, 0]	n/a	FR1	1	R1187P
712.485	0.0	717842	DISTRACT_START	n/a	n/a	n/a	-999	5	[0, 0, 0]	n/a	FR1	1	R1187P
712.485	0.0	717842	WORD_OFF	n/a	n/a	POND	12	5	[0, 0, 0]	n/a	FR1	1	R1187P
712.485	0.016	717842	START	n/a	n/a	n/a	-999	5	[-999, -999, -999]	n/a	FR1	1	R1187P
712.501	11.036	717858	PROB	11.036	n/a	n/a	-999	5	[6, 9, 1]	16	FR1	1	R1187P
723.537	12.107	728894	PROB	12.107	n/a	n/a	-999	5	[6, 6, 9]	19	FR1	1	R1187P
735.644	0.011	741000	STOP	n/a	n/a	n/a	-999	5	[-999, -999, -999]	n/a	FR1	1	R1187P
735.655	0.584	741011	DISTRACT_END	n/a	n/a	n/a	-999	5	[0, 0, 0]	n/a	FR1	1	R1187P
736.239	0.517	741595	RETRIEVAL_ORIENT	n/a	n/a	n/a	-999	5	[0, 0, 0]	n/a	FR1	1	R1187P
736.756	1.278	742112	REC_START	n/a	n/a	n/a	-999	5	[0, 0, 0]	n/a	FR1	1	R1187P
738.034	0.888	743390	REC_WORD_VV	0.888	n/a	<>	-999	5	[0, 0, 0]	n/a	FR1	1	R1187P
738.922	1.113	744278	REC_WORD	1.113	n/a	CHIEF	1	5	[0, 0, 0]	n/a	FR1	1	R1187P
740.035	2.172	745391	REC_WORD	2.172	n/a	SKY	2	5	[0, 0, 0]	n/a	FR1	1	R1187P
742.207	1.505	747563	REC_WORD_VV	1.505	n/a	<>	-999	5	[0, 0, 0]	n/a	FR1	1	R1187P
743.712	2.123	749068	REC_WORD	2.123	n/a	BROOM	-999	5	[0, 0, 0]	n/a	FR1	1	R1187P
745.835	2.935	751191	REC_WORD_VV	2.935	n/a	<>	-999	5	[0, 0, 0]	n/a	FR1	1	R1187P
748.77	3.027	754126	REC_WORD	3.027	n/a	HOUSE	-999	5	[0, 0, 0]	n/a	FR1	1	R1187P
751.797	14.969	757152	REC_WORD_VV	14.969	n/a	<>	-999	5	[0, 0, 0]	n/a	FR1	1	R1187P
766.766	11.798	772121	REC_END	n/a	n/a	n/a	-999	5	[0, 0, 0]	n/a	FR1	1	R1187P
778.564	0.5	783918	TRIAL	n/a	n/a	n/a	-999	6	[0, 0, 0]	n/a	FR1	1	R1187P
779.064	10.428	784418	COUNTDOWN_START	n/a	n/a	n/a	-999	6	[0, 0, 0]	n/a	FR1	1	R1187P
789.492	0.007	794846	COUNTDOWN_END	n/a	n/a	n/a	-999	6	[0, 0, 0]	n/a	FR1	1	R1187P
789.499	1.617	794853	ORIENT	n/a	n/a	n/a	-999	6	[0, 0, 0]	n/a	FR1	1	R1187P
791.116	2.05	796469	ORIENT_OFF	n/a	n/a	n/a	-999	6	[0, 0, 0]	n/a	FR1	1	R1187P
793.166	1.616	798519	WORD	n/a	wordpools/wordpool_EN.txt	OAR	1	6	[0, 0, 0]	n/a	FR1	1	R1187P
794.782	0.984	800135	WORD_OFF	n/a	n/a	OAR	1	6	[0, 0, 0]	n/a	FR1	1	R1187P
795.766	1.618	801119	WORD	n/a	wordpools/wordpool_EN.txt	TREE	2	6	[0, 0, 0]	n/a	FR1	1	R1187P
797.384	0.983	802737	WORD_OFF	n/a	n/a	TREE	2	6	[0, 0, 0]	n/a	FR1	1	R1187P
798.367	1.616	803720	WORD	n/a	wordpools/wordpool_EN.txt	SPOON	3	6	[0, 0, 0]	n/a	FR1	1	R1187P
799.983	0.817	805336	WORD_OFF	n/a	n/a	SPOON	3	6	[0, 0, 0]	n/a	FR1	1	R1187P
800.8	1.618	806153	WORD	n/a	wordpools/wordpool_EN.txt	CAGE	4	6	[0, 0, 0]	n/a	FR1	1	R1187P
802.418	0.767	807771	WORD_OFF	n/a	n/a	CAGE	4	6	[0, 0, 0]	n/a	FR1	1	R1187P
803.185	1.616	808538	WORD	n/a	wordpools/wordpool_EN.txt	TRAY	5	6	[0, 0, 0]	n/a	FR1	1	R1187P
804.801	0.817	810154	WORD_OFF	n/a	n/a	TRAY	5	6	[0, 0, 0]	n/a	FR1	1	R1187P
805.618	1.618	810971	WORD	n/a	wordpools/wordpool_EN.txt	STAIR	6	6	[0, 0, 0]	n/a	FR1	1	R1187P
807.236	0.95	812589	WORD_OFF	n/a	n/a	STAIR	6	6	[0, 0, 0]	n/a	FR1	1	R1187P
808.186	1.616	813539	WORD	n/a	wordpools/wordpool_EN.txt	ROOM	7	6	[0, 0, 0]	n/a	FR1	1	R1187P
809.802	0.933	815155	WORD_OFF	n/a	n/a	ROOM	7	6	[0, 0, 0]	n/a	FR1	1	R1187P
810.735	1.618	816087	WORD	n/a	wordpools/wordpool_EN.txt	SHOE	8	6	[0, 0, 0]	n/a	FR1	1	R1187P
812.353	0.967	817705	WORD_OFF	n/a	n/a	SHOE	8	6	[0, 0, 0]	n/a	FR1	1	R1187P
813.32	1.616	818672	WORD	n/a	wordpools/wordpool_EN.txt	BENCH	9	6	[0, 0, 0]	n/a	FR1	1	R1187P
814.936	0.767	820288	WORD_OFF	n/a	n/a	BENCH	9	6	[0, 0, 0]	n/a	FR1	1	R1187P
815.703	1.618	821055	WORD	n/a	wordpools/wordpool_EN.txt	LIP	10	6	[0, 0, 0]	n/a	FR1	1	R1187P
817.321	0.95	822673	WORD_OFF	n/a	n/a	LIP	10	6	[0, 0, 0]	n/a	FR1	1	R1187P
818.271	1.616	823623	WORD	n/a	wordpools/wordpool_EN.txt	MOTH	11	6	[0, 0, 0]	n/a	FR1	1	R1187P
819.887	0.8	825239	WORD_OFF	n/a	n/a	MOTH	11	6	[0, 0, 0]	n/a	FR1	1	R1187P
820.687	1.618	826039	WORD	n/a	wordpools/wordpool_EN.txt	FLAME	12	6	[0, 0, 0]	n/a	FR1	1	R1187P
822.305	0.0	827657	WORD_OFF	n/a	n/a	FLAME	12	6	[0, 0, 0]	n/a	FR1	1	R1187P
822.305	0.001	827657	DISTRACT_START	n/a	n/a	n/a	-999	6	[0, 0, 0]	n/a	FR1	1	R1187P
822.306	0.016	827658	START	n/a	n/a	n/a	-999	6	[-999, -999, -999]	n/a	FR1	1	R1187P
822.322	8.45	827674	PROB	8.45	n/a	n/a	-999	6	[7, 2, 9]	18	FR1	1	R1187P
830.772	7.503	836123	PROB	7.503	n/a	n/a	-999	6	[1, 7, 4]	12	FR1	1	R1187P
838.275	4.913	843626	PROB	4.913	n/a	n/a	-999	6	[1, 2, 8]	11	FR1	1	R1187P
843.188	0.021	848539	STOP	n/a	n/a	n/a	-999	6	[-999, -999, -999]	n/a	FR1	1	R1187P
843.209	0.533	848560	DISTRACT_END	n/a	n/a	n/a	-999	6	[0, 0, 0]	n/a	FR1	1	R1187P
843.742	0.518	849093	RETRIEVAL_ORIENT	n/a	n/a	n/a	-999	6	[0, 0, 0]	n/a	FR1	1	R1187P
844.26	2.486	849611	REC_START	n/a	n/a	n/a	-999	6	[0, 0, 0]	n/a	FR1	1	R1187P
846.746	3.072	852097	REC_WORD_VV	3.072	n/a	<>	-999	6	[0, 0, 0]	n/a	FR1	1	R1187P
849.818	0.463	855168	REC_WORD_VV	0.463	n/a	<>	-999	6	[0, 0, 0]	n/a	FR1	1	R1187P
850.281	1.166	855631	REC_WORD	1.166	n/a	LIP	10	6	[0, 0, 0]	n/a	FR1	1	R1187P
851.447	2.069	856797	REC_WORD_VV	2.069	n/a	<>	-999	6	[0, 0, 0]	n/a	FR1	1	R1187P
853.516	0.9	858866	REC_WORD	0.9	n/a	TONGUE	-999	6	[0, 0, 0]	n/a	FR1	1	R1187P
854.416	3.085	859766	REC_WORD_VV	3.085	n/a	<>	-999	6	[0, 0, 0]	n/a	FR1	1	R1187P
857.501	1.753	862851	REC_WORD	1.753	n/a	BROOM	-999	6	[0, 0, 0]	n/a	FR1	1	R1187P
859.254	3.064	864604	REC_WORD	3.064	n/a	SKY	-999	6	[0, 0, 0]	n/a	FR1	1	R1187P
862.318	3.486	867668	REC_WORD	3.486	n/a	HOUSE	-999	6	[0, 0, 0]	n/a	FR1	1	R1187P
865.804	8.468	871154	REC_WORD_VV	8.468	n/a	<>	-999	6	[0, 0, 0]	n/a	FR1	1	R1187P
874.272	7.593	879621	REC_END	n/a	n/a	n/a	-999	6	[0, 0, 0]	n/a	FR1	1	R1187P
881.865	0.5	887214	TRIAL	n/a	n/a	n/a	-999	7	[0, 0, 0]	n/a	FR1	1	R1187P
882.365	10.428	887714	COUNTDOWN_START	n/a	n/a	n/a	-999	7	[0, 0, 0]	n/a	FR1	1	R1187P
892.793	0.008	898141	COUNTDOWN_END	n/a	n/a	n/a	-999	7	[0, 0, 0]	n/a	FR1	1	R1187P
892.801	1.601	898149	ORIENT	n/a	n/a	n/a	-999	7	[0, 0, 0]	n/a	FR1	1	R1187P
894.402	2.084	899750	ORIENT_OFF	n/a	n/a	n/a	-999	7	[0, 0, 0]	n/a	FR1	1	R1187P
896.486	1.617	901834	WORD	n/a	wordpools/wordpool_EN.txt	SPRING	1	7	[0, 0, 0]	n/a	FR1	1	R1187P
898.103	0.899	903451	WORD_OFF	n/a	n/a	SPRING	1	7	[0, 0, 0]	n/a	FR1	1	R1187P
899.002	1.617	904350	WORD	n/a	wordpools/wordpool_EN.txt	CAVE	2	7	[0, 0, 0]	n/a	FR1	1	R1187P
900.619	0.851	905967	WORD_OFF	n/a	n/a	CAVE	2	7	[0, 0, 0]	n/a	FR1	1	R1187P
901.47	1.616	906818	WORD	n/a	wordpools/wordpool_EN.txt	ELF	3	7	[0, 0, 0]	n/a	FR1	1	R1187P
903.086	0.95	908434	WORD_OFF	n/a	n/a	ELF	3	7	[0, 0, 0]	n/a	FR1	1	R1187P
904.036	1.617	909384	WORD	n/a	wordpools/wordpool_EN.txt	CAKE	4	7	[0, 0, 0]	n/a	FR1	1	R1187P
905.653	0.917	911001	WORD_OFF	n/a	n/a	CAKE	4	7	[0, 0, 0]	n/a	FR1	1	R1187P
906.57	1.618	911918	WORD	n/a	wordpools/wordpool_EN.txt	GLASS	5	7	[0, 0, 0]	n/a	FR1	1	R1187P
908.188	0.766	913536	WORD_OFF	n/a	n/a	GLASS	5	7	[0, 0, 0]	n/a	FR1	1	R1187P
908.954	1.617	914301	WORD	n/a	wordpools/wordpool_EN.txt	FORT	6	7	[0, 0, 0]	n/a	FR1	1	R1187P
910.571	0.784	915918	WORD_OFF	n/a	n/a	FORT	6	7	[0, 0, 0]	n/a	FR1	1	R1187P
911.355	1.616	916702	WORD	n/a	wordpools/wordpool_EN.txt	TOOTH	7	7	[0, 0, 0]	n/a	FR1	1	R1187P
912.971	0.817	918318	WORD_OFF	n/a	n/a	TOOTH	7	7	[0, 0, 0]	n/a	FR1	1	R1187P
913.788	1.618	919135	WORD	n/a	wordpools/wordpool_EN.txt	EAR	8	7	[0, 0, 0]	n/a	FR1	1	R1187P
915.406	0.984	920753	WORD_OFF	n/a	n/a	EAR	8	7	[0, 0, 0]	n/a	FR1	1	R1187P
916.39	1.616	921737	WORD	n/a	wordpools/wordpool_EN.txt	MOUTH	9	7	[0, 0, 0]	n/a	FR1	1	R1187P
918.006	0.883	923353	WORD_OFF	n/a	n/a	MOUTH	9	7	[0, 0, 0]	n/a	FR1	1	R1187P
918.889	1.618	924236	WORD	n/a	wordpools/wordpool_EN.txt	SLEEVE	10	7	[0, 0, 0]	n/a	FR1	1	R1187P
920.507	0.8	925854	WORD_OFF	n/a	n/a	SLEEVE	10	7	[0, 0, 0]	n/a	FR1	1	R1187P
921.307	1.616	926654	WORD	n/a	wordpools/wordpool_EN.txt	TOOL	11	7	[0, 0, 0]	n/a	FR1	1	R1187P
922.923	0.967	928270	WORD_OFF	n/a	n/a	TOOL	11	7	[0, 0, 0]	n/a	FR1	1	R1187P
923.89	1.618	929237	WORD	n/a	wordpools/wordpool_EN.txt	WOOD	12	7	[0, 0, 0]	n/a	FR1	1	R1187P
925.508	0.0	930855	WORD_OFF	n/a	n/a	WOOD	12	7	[0, 0, 0]	n/a	FR1	1	R1187P
925.508	0.0	930855	DISTRACT_START	n/a	n/a	n/a	-999	7	[0, 0, 0]	n/a	FR1	1	R1187P
925.508	0.017	930855	START	n/a	n/a	n/a	-999	7	[-999, -999, -999]	n/a	FR1	1	R1187P
925.525	8.635	930872	PROB	8.635	n/a	n/a	-999	7	[7, 4, 2]	13	FR1	1	R1187P
934.16	7.318	939506	PROB	7.318	n/a	n/a	-999	7	[2, 7, 7]	16	FR1	1	R1187P
941.478	16.03	946824	PROB	16.03	n/a	n/a	-999	7	[4, 9, 4]	17	FR1	1	R1187P
957.508	0.006	962853	STOP	n/a	n/a	n/a	-999	7	[-999, -999, -999]	n/a	FR1	1	R1187P
957.514	0.583	962859	DISTRACT_END	n/a	n/a	n/a	-999	7	[0, 0, 0]	n/a	FR1	1	R1187P
958.097	0.517	963442	RETRIEVAL_ORIENT	n/a	n/a	n/a	-999	7	[0, 0, 0]	n/a	FR1	1	R1187P
958.614	1.658	963959	REC_START	n/a	n/a	n/a	-999	7	[0, 0, 0]	n/a	FR1	1	R1187P
960.272	1.837	965617	REC_WORD_VV	1.837	n/a	<>	-999	7	[0, 0, 0]	n/a	FR1	1	R1187P
962.109	1.88	967454	REC_WORD	1.88	n/a	TONGUE	-999	7	[0, 0, 0]	n/a	FR1	1	R1187P
963.989	1.352	969334	REC_WORD	1.352	n/a	TEETH	-999	7	[0, 0, 0]	n/a	FR1	1	R1187P
965.341	2.111	970686	REC_WORD	2.111	n/a	LIP	-999	7	[0, 0, 0]	n/a	FR1	1	R1187P
967.452	6.8	972796	REC_WORD_VV	6.8	n/a	<>	-999	7	[0, 0, 0]	n/a	FR1	1	R1187P
974.252	2.368	979596	REC_WORD_VV	2.368	n/a	<>	-999	7	[0, 0, 0]	n/a	FR1	1	R1187P
976.62	2.498	981964	REC_WORD	2.498	n/a	AXE	-999	7	[0, 0, 0]	n/a	FR1	1	R1187P
979.118	4.668	984462	REC_WORD_VV	4.668	n/a	<>	-999	7	[0, 0, 0]	n/a	FR1	1	R1187P
983.786	4.839	989130	REC_WORD	4.839	n/a	FIRE	-999	7	[0, 0, 0]	n/a	FR1	1	R1187P
988.625	7.328	993968	REC_END	n/a	n/a	n/a	-999	7	[0, 0, 0]	n/a	FR1	1	R1187P
995.953	0.5	1001296	TRIAL	n/a	n/a	n/a	-999	8	[0, 0, 0]	n/a	FR1	1	R1187P
996.453	10.428	1001796	COUNTDOWN_START	n/a	n/a	n/a	-999	8	[0, 0, 0]	n/a	FR1	1	R1187P
1006.881	0.008	1012223	COUNTDOWN_END	n/a	n/a	n/a	-999	8	[0, 0, 0]	n/a	FR1	1	R1187P
1006.889	1.618	1012231	ORIENT	n/a	n/a	n/a	-999	8	[0, 0, 0]	n/a	FR1	1	R1187P
1008.507	2.283	1013849	ORIENT_OFF	n/a	n/a	n/a	-999	8	[0, 0, 0]	n/a	FR1	1	R1187P
1010.79	1.618	1016132	WORD	n/a	wordpools/wordpool_EN.txt	SHIELD	1	8	[0, 0, 0]	n/a	FR1	1	R1187P
1012.408	0.95	1017750	WORD_OFF	n/a	n/a	SHIELD	1	8	[0, 0, 0]	n/a	FR1	1	R1187P
1013.358	1.616	1018700	WORD	n/a	wordpools/wordpool_EN.txt	NAIL	2	8	[0, 0, 0]	n/a	FR1	1	R1187P
1014.974	0.95	1020316	WORD_OFF	n/a	n/a	NAIL	2	8	[0, 0, 0]	n/a	FR1	1	R1187P
1015.924	1.601	1021266	WORD	n/a	wordpools/wordpool_EN.txt	PLATE	3	8	[0, 0, 0]	n/a	FR1	1	R1187P
1017.525	0.867	1022867	WORD_OFF	n/a	n/a	PLATE	3	8	[0, 0, 0]	n/a	FR1	1	R1187P
1018.392	1.616	1023734	WORD	n/a	wordpools/wordpool_EN.txt	CUP	4	8	[0, 0, 0]	n/a	FR1	1	R1187P
1020.008	1.0	1025350	WORD_OFF	n/a	n/a	CUP	4	8	[0, 0, 0]	n/a	FR1	1	R1187P
1021.008	1.617	1026350	WORD	n/a	wordpools/wordpool_EN.txt	SQUARE	5	8	[0, 0, 0]	n/a	FR1	1	R1187P
1022.625	0.868	1027967	WORD_OFF	n/a	n/a	SQUARE	5	8	[0, 0, 0]	n/a	FR1	1	R1187P
1023.493	1.617	1028835	WORD	n/a	wordpools/wordpool_EN.txt	PIPE	6	8	[0, 0, 0]	n/a	FR1	1	R1187P
1025.11	0.766	1030452	WORD_OFF	n/a	n/a	PIPE	6	8	[0, 0, 0]	n/a	FR1	1	R1187P
1025.876	1.618	1031218	WORD	n/a	wordpools/wordpool_EN.txt	BATH	7	8	[0, 0, 0]	n/a	FR1	1	R1187P
1027.494	0.767	1032835	WORD_OFF	n/a	n/a	BATH	7	8	[0, 0, 0]	n/a	FR1	1	R1187P
1028.261	1.616	1033602	WORD	n/a	wordpools/wordpool_EN.txt	BED	8	8	[0, 0, 0]	n/a	FR1	1	R1187P
1029.877	0.916	1035218	WORD_OFF	n/a	n/a	BED	8	8	[0, 0, 0]	n/a	FR1	1	R1187P
1030.793	1.618	1036134	WORD	n/a	wordpools/wordpool_EN.txt	HOSE	9	8	[0, 0, 0]	n/a	FR1	1	R1187P
1032.411	0.867	1037752	WORD_OFF	n/a	n/a	HOSE	9	8	[0, 0, 0]	n/a	FR1	1	R1187P
1033.278	1.616	1038619	WORD	n/a	wordpools/wordpool_EN.txt	BLUSH	10	8	[0, 0, 0]	n/a	FR1	1	R1187P
1034.894	0.95	1040235	WORD_OFF	n/a	n/a	BLUSH	10	8	[0, 0, 0]	n/a	FR1	1	R1187P
1035.844	1.601	1041185	WORD	n/a	wordpools/wordpool_EN.txt	JUDGE	11	8	[0, 0, 0]	n/a	FR1	1	R1187P
1037.445	0.934	1042786	WORD_OFF	n/a	n/a	JUDGE	11	8	[0, 0, 0]	n/a	FR1	1	R1187P
1038.379	1.616	1043720	WORD	n/a	wordpools/wordpool_EN.txt	PIN	12	8	[0, 0, 0]	n/a	FR1	1	R1187P
1039.995	0.0	1045336	WORD_OFF	n/a	n/a	PIN	12	8	[0, 0, 0]	n/a	FR1	1	R1187P
1039.995	0.001	1045336	DISTRACT_START	n/a	n/a	n/a	-999	8	[0, 0, 0]	n/a	FR1	1	R1187P
1039.996	0.016	1045337	START	n/a	n/a	n/a	-999	8	[-999, -999, -999]	n/a	FR1	1	R1187P
1040.012	16.986	1045353	PROB	16.986	n/a	n/a	-999	8	[7, 9, 9]	25	FR1	1	R1187P
1056.998	11.085	1062338	PROB	11.085	n/a	n/a	-999	8	[5, 6, 9]	20	FR1	1	R1187P
1068.083	0.018	1073422	STOP	n/a	n/a	n/a	-999	8	[-999, -999, -999]	n/a	FR1	1	R1187P
1068.101	0.599	1073440	DISTRACT_END	n/a	n/a	n/a	-999	8	[0, 0, 0]	n/a	FR1	1	R1187P
1068.7	0.519	1074039	RETRIEVAL_ORIENT	n/a	n/a	n/a	-999	8	[0, 0, 0]	n/a	FR1	1	R1187P
1069.219	3.66	1074558	REC_START	n/a	n/a	n/a	-999	8	[0, 0, 0]	n/a	FR1	1	R1187P
1072.879	7.794	1078218	REC_WORD_VV	7.794	n/a	<>	-999	8	[0, 0, 0]	n/a	FR1	1	R1187P
1080.673	8.277	1086012	REC_WORD_VV	8.277	n/a	<>	-999	8	[0, 0, 0]	n/a	FR1	1	R1187P
1088.95	0.397	1094288	REC_WORD_VV	0.397	n/a	<>	-999	8	[0, 0, 0]	n/a	FR1	1	R1187P
1089.347	1.0	1094685	REC_WORD	1.0	n/a	NOSE	-999	8	[0, 0, 0]	n/a	FR1	1	R1187P
1090.347	0.977	1095685	REC_WORD_VV	0.977	n/a	<>	-999	8	[0, 0, 0]	n/a	FR1	1	R1187P
1091.324	0.977	1096662	REC_WORD_VV	0.977	n/a	<>	-999	8	[0, 0, 0]	n/a	FR1	1	R1187P
1092.301	1.22	1097639	REC_WORD	1.22	n/a	TONGUE	-999	8	[0, 0, 0]	n/a	FR1	1	R1187P
1093.521	4.314	1098859	REC_WORD_VV	4.314	n/a	<>	-999	8	[0, 0, 0]	n/a	FR1	1	R1187P
1097.835	1.394	1103173	REC_WORD_VV	1.394	n/a	<>	-999	8	[0, 0, 0]	n/a	FR1	1	R1187P
1099.229	8.23	1104567	REC_END	n/a	n/a	n/a	-999	8	[0, 0, 0]	n/a	FR1	1	R1187P
1107.459	0.5	1112796	TRIAL	n/a	n/a	n/a	-999	9	[0, 0, 0]	n/a	FR1	1	R1187P
1107.959	10.428	1113296	COUNTDOWN_START	n/a	n/a	n/a	-999	9	[0, 0, 0]	n/a	FR1	1	R1187P
1118.387	0.007	1123724	COUNTDOWN_END	n/a	n/a	n/a	-999	9	[0, 0, 0]	n/a	FR1	1	R1187P
1118.394	1.616	1123731	ORIENT	n/a	n/a	n/a	-999	9	[0, 0, 0]	n/a	FR1	1	R1187P
1120.01	2.318	1125347	ORIENT_OFF	n/a	n/a	n/a	-999	9	[0, 0, 0]	n/a	FR1	1	R1187P
1122.328	1.616	1127665	WORD	n/a	wordpools/wordpool_EN.txt	DEER	1	9	[0, 0, 0]	n/a	FR1	1	R1187P
1123.944	0.833	1129281	WORD_OFF	n/a	n/a	DEER	1	9	[0, 0, 0]	n/a	FR1	1	R1187P
1124.777	1.619	1130113	WORD	n/a	wordpools/wordpool_EN.txt	MUG	2	9	[0, 0, 0]	n/a	FR1	1	R1187P
1126.396	0.85	1131732	WORD_OFF	n/a	n/a	MUG	2	9	[0, 0, 0]	n/a	FR1	1	R1187P
1127.246	1.616	1132582	WORD	n/a	wordpools/wordpool_EN.txt	TOAD	3	9	[0, 0, 0]	n/a	FR1	1	R1187P
1128.862	1.0	1134198	WORD_OFF	n/a	n/a	TOAD	3	9	[0, 0, 0]	n/a	FR1	1	R1187P
1129.862	1.618	1135198	WORD	n/a	wordpools/wordpool_EN.txt	MOOSE	4	9	[0, 0, 0]	n/a	FR1	1	R1187P
1131.48	0.817	1136816	WORD_OFF	n/a	n/a	MOOSE	4	9	[0, 0, 0]	n/a	FR1	1	R1187P
1132.297	1.616	1137633	WORD	n/a	wordpools/wordpool_EN.txt	FRUIT	5	9	[0, 0, 0]	n/a	FR1	1	R1187P
1133.913	0.967	1139249	WORD_OFF	n/a	n/a	FRUIT	5	9	[0, 0, 0]	n/a	FR1	1	R1187P
1134.88	1.618	1140216	WORD	n/a	wordpools/wordpool_EN.txt	HORN	6	9	[0, 0, 0]	n/a	FR1	1	R1187P
1136.498	0.966	1141834	WORD_OFF	n/a	n/a	HORN	6	9	[0, 0, 0]	n/a	FR1	1	R1187P
1137.464	1.616	1142800	WORD	n/a	wordpools/wordpool_EN.txt	MULE	7	9	[0, 0, 0]	n/a	FR1	1	R1187P
1139.08	0.901	1144416	WORD_OFF	n/a	n/a	MULE	7	9	[0, 0, 0]	n/a	FR1	1	R1187P
1139.981	1.617	1145317	WORD	n/a	wordpools/wordpool_EN.txt	HOLE	8	9	[0, 0, 0]	n/a	FR1	1	R1187P
1141.598	0.901	1146934	WORD_OFF	n/a	n/a	HOLE	8	9	[0, 0, 0]	n/a	FR1	1	R1187P
1142.499	1.617	1147835	WORD	n/a	wordpools/wordpool_EN.txt	LAND	9	9	[0, 0, 0]	n/a	FR1	1	R1187P
1144.116	0.966	1149452	WORD_OFF	n/a	n/a	LAND	9	9	[0, 0, 0]	n/a	FR1	1	R1187P
1145.082	1.617	1150417	WORD	n/a	wordpools/wordpool_EN.txt	GOAT	10	9	[0, 0, 0]	n/a	FR1	1	R1187P
1146.699	0.817	1152034	WORD_OFF	n/a	n/a	GOAT	10	9	[0, 0, 0]	n/a	FR1	1	R1187P
1147.516	1.617	1152851	WORD	n/a	wordpools/wordpool_EN.txt	DOLL	11	9	[0, 0, 0]	n/a	FR1	1	R1187P
1149.133	0.899	1154468	WORD_OFF	n/a	n/a	DOLL	11	9	[0, 0, 0]	n/a	FR1	1	R1187P
1150.032	1.617	1155367	WORD	n/a	wordpools/wordpool_EN.txt	THUMB	12	9	[0, 0, 0]	n/a	FR1	1	R1187P
1151.649	0.0	1156984	WORD_OFF	n/a	n/a	THUMB	12	9	[0, 0, 0]	n/a	FR1	1	R1187P
1151.649	0.001	1156984	DISTRACT_START	n/a	n/a	n/a	-999	9	[0, 0, 0]	n/a	FR1	1	R1187P
1151.65	0.016	1156985	START	n/a	n/a	n/a	-999	9	[-999, -999, -999]	n/a	FR1	1	R1187P
1151.666	11.302	1157001	PROB	11.302	n/a	n/a	-999	9	[8, 9, 9]	26	FR1	1	R1187P
1162.968	13.004	1168303	PROB	13.004	n/a	n/a	-999	9	[5, 6, 6]	17	FR1	1	R1187P
1175.972	0.015	1181306	STOP	n/a	n/a	n/a	-999	9	[-999, -999, -999]	n/a	FR1	1	R1187P
1175.987	0.634	1181321	DISTRACT_END	n/a	n/a	n/a	-999	9	[0, 0, 0]	n/a	FR1	1	R1187P
1176.621	0.519	1181955	RETRIEVAL_ORIENT	n/a	n/a	n/a	-999	9	[0, 0, 0]	n/a	FR1	1	R1187P
1177.14	2.769	1182474	REC_START	n/a	n/a	n/a	-999	9	[0, 0, 0]	n/a	FR1	1	R1187P
1179.909	3.783	1185243	REC_WORD_VV	3.783	n/a	<>	-999	9	[0, 0, 0]	n/a	FR1	1	R1187P
1183.692	0.659	1189025	REC_WORD_VV	0.659	n/a	<>	-999	9	[0, 0, 0]	n/a	FR1	1	R1187P
1184.351	6.175	1189684	REC_WORD_VV	6.175	n/a	<>	-999	9	[0, 0, 0]	n/a	FR1	1	R1187P
1190.526	1.14	1195859	REC_WORD_VV	1.14	n/a	<>	-999	9	[0, 0, 0]	n/a	FR1	1	R1187P
1191.666	2.004	1196999	REC_WORD	2.004	n/a	TOAD	3	9	[0, 0, 0]	n/a	FR1	1	R1187P
1193.67	3.353	1199003	REC_WORD_VV	3.353	n/a	<>	-999	9	[0, 0, 0]	n/a	FR1	1	R1187P
1197.023	0.277	1202356	REC_WORD_VV	0.277	n/a	<>	-999	9	[0, 0, 0]	n/a	FR1	1	R1187P
1197.3	1.726	1202633	REC_WORD	1.726	n/a	MOOSE	4	9	[0, 0, 0]	n/a	FR1	1	R1187P
1199.026	4.57	1204359	REC_WORD_VV	4.57	n/a	<>	-999	9	[0, 0, 0]	n/a	FR1	1	R1187P
1203.596	0.184	1208928	REC_WORD_VV	0.184	n/a	<>	-999	9	[0, 0, 0]	n/a	FR1	1	R1187P
1203.78	2.166	1209112	REC_WORD	2.166	n/a	SKY	-999	9	[0, 0, 0]	n/a	FR1	1	R1187P
1205.946	1.205	1211278	REC_WORD	1.205	n/a	LAND	9	9	[0, 0, 0]	n/a	FR1	1	R1187P
1207.151	13.695	1212483	REC_END	n/a	n/a	n/a	-999	9	[0, 0, 0]	n/a	FR1	1	R1187P
1220.846	0.5	1226178	TRIAL	n/a	n/a	n/a	-999	10	[0, 0, 0]	n/a	FR1	1	R1187P
1221.346	10.428	1226678	COUNTDOWN_START	n/a	n/a	n/a	-999	10	[0, 0, 0]	n/a	FR1	1	R1187P
1231.774	0.007	1237105	COUNTDOWN_END	n/a	n/a	n/a	-999	10	[0, 0, 0]	n/a	FR1	1	R1187P
1231.781	1.618	1237112	ORIENT	n/a	n/a	n/a	-999	10	[0, 0, 0]	n/a	FR1	1	R1187P
1233.399	2.134	1238730	ORIENT_OFF	n/a	n/a	n/a	-999	10	[0, 0, 0]	n/a	FR1	1	R1187P
1235.533	1.617	1240864	WORD	n/a	wordpools/wordpool_EN.txt	SNAIL	1	10	[0, 0, 0]	n/a	FR1	1	R1187P
1237.15	0.916	1242481	WORD_OFF	n/a	n/a	SNAIL	1	10	[0, 0, 0]	n/a	FR1	1	R1187P
1238.066	1.617	1243397	WORD	n/a	wordpools/wordpool_EN.txt	STORM	2	10	[0, 0, 0]	n/a	FR1	1	R1187P
1239.683	0.933	1245014	WORD_OFF	n/a	n/a	STORM	2	10	[0, 0, 0]	n/a	FR1	1	R1187P
1240.616	1.618	1245947	WORD	n/a	wordpools/wordpool_EN.txt	FILM	3	10	[0, 0, 0]	n/a	FR1	1	R1187P
1242.234	0.867	1247565	WORD_OFF	n/a	n/a	FILM	3	10	[0, 0, 0]	n/a	FR1	1	R1187P
1243.101	1.616	1248431	WORD	n/a	wordpools/wordpool_EN.txt	MAZE	4	10	[0, 0, 0]	n/a	FR1	1	R1187P
1244.717	1.0	1250047	WORD_OFF	n/a	n/a	MAZE	4	10	[0, 0, 0]	n/a	FR1	1	R1187P
1245.717	1.618	1251047	WORD	n/a	wordpools/wordpool_EN.txt	JET	5	10	[0, 0, 0]	n/a	FR1	1	R1187P
1247.335	0.967	1252665	WORD_OFF	n/a	n/a	JET	5	10	[0, 0, 0]	n/a	FR1	1	R1187P
1248.302	1.616	1253632	WORD	n/a	wordpools/wordpool_EN.txt	DESK	6	10	[0, 0, 0]	n/a	FR1	1	R1187P
1249.918	0.85	1255248	WORD_OFF	n/a	n/a	DESK	6	10	[0, 0, 0]	n/a	FR1	1	R1187P
1250.768	1.601	1256098	WORD	n/a	wordpools/wordpool_EN.txt	SPARK	7	10	[0, 0, 0]	n/a	FR1	1	R1187P
1252.369	0.85	1257699	WORD_OFF	n/a	n/a	SPARK	7	10	[0, 0, 0]	n/a	FR1	1	R1187P
1253.219	1.617	1258549	WORD	n/a	wordpools/wordpool_EN.txt	KITE	8	10	[0, 0, 0]	n/a	FR1	1	R1187P
1254.836	0.816	1260166	WORD_OFF	n/a	n/a	KITE	8	10	[0, 0, 0]	n/a	FR1	1	R1187P
1255.652	1.601	1260982	WORD	n/a	wordpools/wordpool_EN.txt	BOOK	9	10	[0, 0, 0]	n/a	FR1	1	R1187P
1257.253	0.901	1262583	WORD_OFF	n/a	n/a	BOOK	9	10	[0, 0, 0]	n/a	FR1	1	R1187P
1258.154	1.616	1263484	WORD	n/a	wordpools/wordpool_EN.txt	NEST	10	10	[0, 0, 0]	n/a	FR1	1	R1187P
1259.77	0.85	1265100	WORD_OFF	n/a	n/a	NEST	10	10	[0, 0, 0]	n/a	FR1	1	R1187P
1260.62	1.618	1265950	WORD	n/a	wordpools/wordpool_EN.txt	PRINCE	11	10	[0, 0, 0]	n/a	FR1	1	R1187P
1262.238	0.934	1267567	WORD_OFF	n/a	n/a	PRINCE	11	10	[0, 0, 0]	n/a	FR1	1	R1187P
1263.172	1.615	1268501	WORD	n/a	wordpools/wordpool_EN.txt	LAWN	12	10	[0, 0, 0]	n/a	FR1	1	R1187P
1264.787	0.0	1270116	DISTRACT_START	n/a	n/a	n/a	-999	10	[0, 0, 0]	n/a	FR1	1	R1187P
1264.787	0.001	1270116	WORD_OFF	n/a	n/a	LAWN	12	10	[0, 0, 0]	n/a	FR1	1	R1187P
1264.788	0.016	1270117	START	n/a	n/a	n/a	-999	10	[-999, -999, -999]	n/a	FR1	1	R1187P
1264.804	19.438	1270133	PROB	19.438	n/a	n/a	-999	10	[3, 5, 3]	11	FR1	1	R1187P
1284.242	16.041	1289570	PROB	16.041	n/a	n/a	-999	10	[2, 6, 1]	9	FR1	1	R1187P
1300.283	0.012	1305611	STOP	n/a	n/a	n/a	-999	10	[-999, -999, -999]	n/a	FR1	1	R1187P
1300.295	0.532	1305623	DISTRACT_END	n/a	n/a	n/a	-999	10	[0, 0, 0]	n/a	FR1	1	R1187P
1300.827	0.519	1306155	RETRIEVAL_ORIENT	n/a	n/a	n/a	-999	10	[0, 0, 0]	n/a	FR1	1	R1187P
1301.346	1.487	1306674	REC_START	n/a	n/a	n/a	-999	10	[0, 0, 0]	n/a	FR1	1	R1187P
1302.833	1.063	1308160	REC_WORD_VV	1.063	n/a	<>	-999	10	[0, 0, 0]	n/a	FR1	1	R1187P
1303.896	2.01	1309223	REC_WORD	2.01	n/a	KITE	8	10	[0, 0, 0]	n/a	FR1	1	R1187P
1305.906	5.942	1311233	REC_WORD_VV	5.942	n/a	<>	-999	10	[0, 0, 0]	n/a	FR1	1	R1187P
1311.848	1.089	1317175	REC_WORD	1.089	n/a	BLUEBIRD	-999	10	[0, 0, 0]	n/a	FR1	1	R1187P
1312.937	5.12	1318264	REC_WORD_VV	5.12	n/a	<>	-999	10	[0, 0, 0]	n/a	FR1	1	R1187P
1318.057	4.96	1323384	REC_WORD_VV	4.96	n/a	<>	-999	10	[0, 0, 0]	n/a	FR1	1	R1187P
1323.017	7.375	1328343	REC_WORD_VV	7.375	n/a	<>	-999	10	[0, 0, 0]	n/a	FR1	1	R1187P
1330.392	0.17	1335718	REC_WORD_VV	0.17	n/a	<>	-999	10	[0, 0, 0]	n/a	FR1	1	R1187P
1330.562	0.795	1335888	REC_WORD	0.795	n/a	LAND	-999	10	[0, 0, 0]	n/a	FR1	1	R1187P
1331.357	0.0	1336683	REC_END	n/a	n/a	n/a	-999	10	[0, 0, 0]	n/a	FR1	1	R1187P
