onset	duration	sample	trial_type	response_time	stim_file	item_name	serialpos	list	test	answer	experiment	session	subject
0.0	0.0	4486	INSTRUCT_START	n/a	n/a	n/a	-999	-999	[0, 0, 0]	n/a	FR1	2	R1161E
0.0	10.918	4486	INSTRUCT_END	n/a	n/a	n/a	-999	-999	[0, 0, 0]	n/a	FR1	2	R1161E
10.918	0.0	15403	SESS_START	n/a	n/a	n/a	-999	-999	[0, 0, 0]	n/a	FR1	2	R1161E
10.918	32.001	15403	MIC_TEST	n/a	n/a	n/a	-999	-999	[0, 0, 0]	n/a	FR1	2	R1161E
42.919	6.506	47403	PRACTICE_TRIAL	n/a	n/a	n/a	-999	-1	[0, 0, 0]	n/a	FR1	2	R1161E
49.425	10.428	53909	COUNTDOWN_START	n/a	n/a	n/a	-999	-1	[0, 0, 0]	n/a	FR1	2	R1161E
59.853	0.007	64336	COUNTDOWN_END	n/a	n/a	n/a	-999	-1	[0, 0, 0]	n/a	FR1	2	R1161E
59.86	1.618	64343	PRACTICE_ORIENT	n/a	n/a	n/a	-999	-1	[0, 0, 0]	n/a	FR1	2	R1161E
61.478	2.0	65961	PRACTICE_ORIENT_OFF	n/a	n/a	n/a	-999	-1	[0, 0, 0]	n/a	FR1	2	R1161E
63.478	1.617	67961	PRACTICE_WORD	n/a	n/a	BEAM	1	-1	[0, 0, 0]	n/a	FR1	2	R1161E
65.095	1.001	69578	PRACTICE_WORD_OFF	n/a	n/a	BEAM	-999	-1	[0, 0, 0]	n/a	FR1	2	R1161E
66.096	1.615	70579	PRACTICE_WORD	n/a	n/a	RING	2	-1	[0, 0, 0]	n/a	FR1	2	R1161E
67.711	0.852	72194	PRACTICE_WORD_OFF	n/a	n/a	RING	-999	-1	[0, 0, 0]	n/a	FR1	2	R1161E
68.563	1.616	73046	PRACTICE_WORD	n/a	n/a	WATCH	3	-1	[0, 0, 0]	n/a	FR1	2	R1161E
70.179	0.833	74662	PRACTICE_WORD_OFF	n/a	n/a	WATCH	-999	-1	[0, 0, 0]	n/a	FR1	2	R1161E
71.012	1.617	75495	PRACTICE_WORD	n/a	n/a	ATTIC	4	-1	[0, 0, 0]	n/a	FR1	2	R1161E
72.629	0.967	77112	PRACTICE_WORD_OFF	n/a	n/a	ATTIC	-999	-1	[0, 0, 0]	n/a	FR1	2	R1161E
73.596	1.617	78079	PRACTICE_WORD	n/a	n/a	CHEST	5	-1	[0, 0, 0]	n/a	FR1	2	R1161E
75.213	0.968	79696	PRACTICE_WORD_OFF	n/a	n/a	CHEST	-999	-1	[0, 0, 0]	n/a	FR1	2	R1161E
76.181	1.616	80663	PRACTICE_WORD	n/a	n/a	IRON	6	-1	[0, 0, 0]	n/a	FR1	2	R1161E
77.797	1.0	82279	PRACTICE_WORD_OFF	n/a	n/a	IRON	-999	-1	[0, 0, 0]	n/a	FR1	2	R1161E
78.797	1.618	83279	PRACTICE_WORD	n/a	n/a	CAMEL	7	-1	[0, 0, 0]	n/a	FR1	2	R1161E
80.415	0.8	84897	PRACTICE_WORD_OFF	n/a	n/a	CAMEL	-999	-1	[0, 0, 0]	n/a	FR1	2	R1161E
81.215	1.616	85697	PRACTICE_WORD	n/a	n/a	COTTON	8	-1	[0, 0, 0]	n/a	FR1	2	R1161E
82.831	0.833	87313	PRACTICE_WORD_OFF	n/a	n/a	COTTON	-999	-1	[0, 0, 0]	n/a	FR1	2	R1161E
83.664	1.618	88146	PRACTICE_WORD	n/a	n/a	WAGON	9	-1	[0, 0, 0]	n/a	FR1	2	R1161E
85.282	0.95	89764	PRACTICE_WORD_OFF	n/a	n/a	WAGON	-999	-1	[0, 0, 0]	n/a	FR1	2	R1161E
86.232	1.616	90714	PRACTICE_WORD	n/a	n/a	FLOOD	10	-1	[0, 0, 0]	n/a	FR1	2	R1161E
87.848	0.817	92330	PRACTICE_WORD_OFF	n/a	n/a	FLOOD	-999	-1	[0, 0, 0]	n/a	FR1	2	R1161E
88.665	1.618	93147	PRACTICE_WORD	n/a	n/a	RHINO	11	-1	[0, 0, 0]	n/a	FR1	2	R1161E
90.283	0.784	94765	PRACTICE_WORD_OFF	n/a	n/a	RHINO	-999	-1	[0, 0, 0]	n/a	FR1	2	R1161E
91.067	1.615	95549	PRACTICE_WORD	n/a	n/a	TONGUE	12	-1	[0, 0, 0]	n/a	FR1	2	R1161E
92.682	0.0	97164	DISTRACT_START	n/a	n/a	n/a	-999	-1	[0, 0, 0]	n/a	FR1	2	R1161E
92.682	0.001	97164	PRACTICE_WORD_OFF	n/a	n/a	TONGUE	-999	-1	[0, 0, 0]	n/a	FR1	2	R1161E
92.683	0.016	97165	START	n/a	n/a	n/a	-999	-1	[-999, -999, -999]	n/a	FR1	2	R1161E
92.699	6.869	97181	PROB	6.869	n/a	n/a	-999	-1	[8, 9, 4]	21	FR1	2	R1161E
99.568	4.784	104050	PROB	4.784	n/a	n/a	-999	-1	[3, 7, 5]	15	FR1	2	R1161E
104.352	4.4	108833	PROB	4.4	n/a	n/a	-999	-1	[6, 1, 9]	16	FR1	2	R1161E
108.752	4.307	113233	PROB	4.307	n/a	n/a	-999	-1	[4, 4, 6]	14	FR1	2	R1161E
113.059	0.011	117540	STOP	n/a	n/a	n/a	-999	-1	[-999, -999, -999]	n/a	FR1	2	R1161E
113.07	0.566	117551	DISTRACT_END	n/a	n/a	n/a	-999	-1	[0, 0, 0]	n/a	FR1	2	R1161E
113.636	0.519	118117	RETRIEVAL_ORIENT	n/a	n/a	n/a	-999	-1	[0, 0, 0]	n/a	FR1	2	R1161E
114.155	30.009	118636	PRACTICE_REC_START	n/a	n/a	n/a	-999	-1	[0, 0, 0]	n/a	FR1	2	R1161E
144.164	29.716	148644	PRACTICE_REC_END	n/a	n/a	n/a	-999	-1	[0, 0, 0]	n/a	FR1	2	R1161E
173.88	0.5	178359	TRIAL	n/a	n/a	n/a	-999	1	[0, 0, 0]	n/a	FR1	2	R1161E
174.38	10.428	178859	COUNTDOWN_START	n/a	n/a	n/a	-999	1	[0, 0, 0]	n/a	FR1	2	R1161E
184.808	0.007	189286	COUNTDOWN_END	n/a	n/a	n/a	-999	1	[0, 0, 0]	n/a	FR1	2	R1161E
184.815	1.618	189293	ORIENT	n/a	n/a	n/a	-999	1	[0, 0, 0]	n/a	FR1	2	R1161E
186.433	2.05	190911	ORIENT_OFF	n/a	n/a	n/a	-999	1	[0, 0, 0]	n/a	FR1	2	R1161E
188.483	1.617	192961	WORD	n/a	wordpools/wordpool_EN.txt	ROOF	1	1	[0, 0, 0]	n/a	FR1	2	R1161E
190.1	0.967	194578	WORD_OFF	n/a	n/a	ROOF	1	1	[0, 0, 0]	n/a	FR1	2	R1161E
191.067	1.616	195545	WORD	n/a	wordpools/wordpool_EN.txt	SMOKE	2	1	[0, 0, 0]	n/a	FR1	2	R1161E
192.683	0.885	197161	WORD_OFF	n/a	n/a	SMOKE	2	1	[0, 0, 0]	n/a	FR1	2	R1161E
193.568	1.617	198046	WORD	n/a	wordpools/wordpool_EN.txt	STEAM	3	1	[0, 0, 0]	n/a	FR1	2	R1161E
195.185	0.867	199663	WORD_OFF	n/a	n/a	STEAM	3	1	[0, 0, 0]	n/a	FR1	2	R1161E
196.052	1.615	200530	WORD	n/a	wordpools/wordpool_EN.txt	LAKE	4	1	[0, 0, 0]	n/a	FR1	2	R1161E
197.667	0.818	202145	WORD_OFF	n/a	n/a	LAKE	4	1	[0, 0, 0]	n/a	FR1	2	R1161E
198.485	1.617	202963	WORD	n/a	wordpools/wordpool_EN.txt	LOCK	5	1	[0, 0, 0]	n/a	FR1	2	R1161E
200.102	0.849	204580	WORD_OFF	n/a	n/a	LOCK	5	1	[0, 0, 0]	n/a	FR1	2	R1161E
200.951	1.601	205428	WORD	n/a	wordpools/wordpool_EN.txt	BRIDGE	6	1	[0, 0, 0]	n/a	FR1	2	R1161E
202.552	0.834	207029	WORD_OFF	n/a	n/a	BRIDGE	6	1	[0, 0, 0]	n/a	FR1	2	R1161E
203.386	1.616	207863	WORD	n/a	wordpools/wordpool_EN.txt	CRANE	7	1	[0, 0, 0]	n/a	FR1	2	R1161E
205.002	0.984	209479	WORD_OFF	n/a	n/a	CRANE	7	1	[0, 0, 0]	n/a	FR1	2	R1161E
205.986	1.617	210463	WORD	n/a	wordpools/wordpool_EN.txt	BOAT	8	1	[0, 0, 0]	n/a	FR1	2	R1161E
207.603	0.784	212080	WORD_OFF	n/a	n/a	BOAT	8	1	[0, 0, 0]	n/a	FR1	2	R1161E
208.387	1.616	212864	WORD	n/a	wordpools/wordpool_EN.txt	BRUSH	9	1	[0, 0, 0]	n/a	FR1	2	R1161E
210.003	0.9	214480	WORD_OFF	n/a	n/a	BRUSH	9	1	[0, 0, 0]	n/a	FR1	2	R1161E
210.903	1.618	215380	WORD	n/a	wordpools/wordpool_EN.txt	SPARK	10	1	[0, 0, 0]	n/a	FR1	2	R1161E
212.521	0.967	216998	WORD_OFF	n/a	n/a	SPARK	10	1	[0, 0, 0]	n/a	FR1	2	R1161E
213.488	1.617	217965	WORD	n/a	wordpools/wordpool_EN.txt	DOCK	11	1	[0, 0, 0]	n/a	FR1	2	R1161E
215.105	0.816	219582	WORD_OFF	n/a	n/a	DOCK	11	1	[0, 0, 0]	n/a	FR1	2	R1161E
215.921	1.618	220398	WORD	n/a	wordpools/wordpool_EN.txt	APE	12	1	[0, 0, 0]	n/a	FR1	2	R1161E
217.539	0.0	222016	DISTRACT_START	n/a	n/a	n/a	-999	1	[0, 0, 0]	n/a	FR1	2	R1161E
217.539	0.0	222016	WORD_OFF	n/a	n/a	APE	12	1	[0, 0, 0]	n/a	FR1	2	R1161E
217.539	0.016	222016	START	n/a	n/a	n/a	-999	1	[-999, -999, -999]	n/a	FR1	2	R1161E
217.555	5.15	222032	PROB	5.15	n/a	n/a	-999	1	[8, 4, 4]	16	FR1	2	R1161E
222.705	11.119	227182	PROB	11.119	n/a	n/a	-999	1	[8, 5, 7]	21	FR1	2	R1161E
233.824	3.942	238300	PROB	3.942	n/a	n/a	-999	1	[1, 7, 2]	10	FR1	2	R1161E
237.766	0.008	242242	STOP	n/a	n/a	n/a	-999	1	[-999, -999, -999]	n/a	FR1	2	R1161E
237.774	0.668	242250	DISTRACT_END	n/a	n/a	n/a	-999	1	[0, 0, 0]	n/a	FR1	2	R1161E
238.442	0.517	242918	RETRIEVAL_ORIENT	n/a	n/a	n/a	-999	1	[0, 0, 0]	n/a	FR1	2	R1161E
238.959	2.001	243435	REC_START	n/a	n/a	n/a	-999	1	[0, 0, 0]	n/a	FR1	2	R1161E
240.96	1.347	245436	REC_WORD	1.347	n/a	LAKE	-999	1	[0, 0, 0]	n/a	FR1	2	R1161E
242.307	0.968	246783	REC_WORD	0.968	n/a	LOCK	-999	1	[0, 0, 0]	n/a	FR1	2	R1161E
243.275	1.666	247751	REC_WORD	1.666	n/a	SMOKE	-999	1	[0, 0, 0]	n/a	FR1	2	R1161E
244.941	5.881	249417	REC_WORD	5.881	n/a	ROOF	-999	1	[0, 0, 0]	n/a	FR1	2	R1161E
250.822	4.256	255297	REC_WORD	4.256	n/a	CRANE	-999	1	[0, 0, 0]	n/a	FR1	2	R1161E
255.078	1.094	259553	REC_WORD	1.094	n/a	DOCK	-999	1	[0, 0, 0]	n/a	FR1	2	R1161E
256.172	7.754	260647	REC_WORD	7.754	n/a	APE	-999	1	[0, 0, 0]	n/a	FR1	2	R1161E
263.926	0.641	268401	REC_WORD	0.641	n/a	BRUSH	-999	1	[0, 0, 0]	n/a	FR1	2	R1161E
264.567	4.401	269042	REC_WORD	4.401	n/a	SPARK	-999	1	[0, 0, 0]	n/a	FR1	2	R1161E
268.968	9.415	273443	REC_END	n/a	n/a	n/a	-999	1	[0, 0, 0]	n/a	FR1	2	R1161E
278.383	0.5	282857	TRIAL	n/a	n/a	n/a	-999	2	[0, 0, 0]	n/a	FR1	2	R1161E
278.883	10.428	283357	COUNTDOWN_START	n/a	n/a	n/a	-999	2	[0, 0, 0]	n/a	FR1	2	R1161E
289.311	0.007	293785	COUNTDOWN_END	n/a	n/a	n/a	-999	2	[0, 0, 0]	n/a	FR1	2	R1161E
289.318	1.616	293792	ORIENT	n/a	n/a	n/a	-999	2	[0, 0, 0]	n/a	FR1	2	R1161E
290.934	2.185	295408	ORIENT_OFF	n/a	n/a	n/a	-999	2	[0, 0, 0]	n/a	FR1	2	R1161E
293.119	1.615	297593	WORD	n/a	wordpools/wordpool_EN.txt	CUBE	1	2	[0, 0, 0]	n/a	FR1	2	R1161E
294.734	0.901	299208	WORD_OFF	n/a	n/a	CUBE	1	2	[0, 0, 0]	n/a	FR1	2	R1161E
295.635	1.618	300109	WORD	n/a	wordpools/wordpool_EN.txt	STEM	2	2	[0, 0, 0]	n/a	FR1	2	R1161E
297.253	0.9	301727	WORD_OFF	n/a	n/a	STEM	2	2	[0, 0, 0]	n/a	FR1	2	R1161E
298.153	1.616	302627	WORD	n/a	wordpools/wordpool_EN.txt	PLANT	3	2	[0, 0, 0]	n/a	FR1	2	R1161E
299.769	0.801	304243	WORD_OFF	n/a	n/a	PLANT	3	2	[0, 0, 0]	n/a	FR1	2	R1161E
300.57	1.617	305043	WORD	n/a	wordpools/wordpool_EN.txt	RICE	4	2	[0, 0, 0]	n/a	FR1	2	R1161E
302.187	0.816	306660	WORD_OFF	n/a	n/a	RICE	4	2	[0, 0, 0]	n/a	FR1	2	R1161E
303.003	1.616	307476	WORD	n/a	wordpools/wordpool_EN.txt	SHEEP	5	2	[0, 0, 0]	n/a	FR1	2	R1161E
304.619	0.918	309092	WORD_OFF	n/a	n/a	SHEEP	5	2	[0, 0, 0]	n/a	FR1	2	R1161E
305.537	1.617	310010	WORD	n/a	wordpools/wordpool_EN.txt	STOOL	6	2	[0, 0, 0]	n/a	FR1	2	R1161E
307.154	0.866	311627	WORD_OFF	n/a	n/a	STOOL	6	2	[0, 0, 0]	n/a	FR1	2	R1161E
308.02	1.617	312493	WORD	n/a	wordpools/wordpool_EN.txt	LEAF	7	2	[0, 0, 0]	n/a	FR1	2	R1161E
309.637	1.0	314110	WORD_OFF	n/a	n/a	LEAF	7	2	[0, 0, 0]	n/a	FR1	2	R1161E
310.637	1.618	315110	WORD	n/a	wordpools/wordpool_EN.txt	FOOD	8	2	[0, 0, 0]	n/a	FR1	2	R1161E
312.255	0.8	316728	WORD_OFF	n/a	n/a	FOOD	8	2	[0, 0, 0]	n/a	FR1	2	R1161E
313.055	1.616	317528	WORD	n/a	wordpools/wordpool_EN.txt	SOUP	9	2	[0, 0, 0]	n/a	FR1	2	R1161E
314.671	0.851	319144	WORD_OFF	n/a	n/a	SOUP	9	2	[0, 0, 0]	n/a	FR1	2	R1161E
315.522	1.617	319995	WORD	n/a	wordpools/wordpool_EN.txt	THREAD	10	2	[0, 0, 0]	n/a	FR1	2	R1161E
317.139	0.967	321612	WORD_OFF	n/a	n/a	THREAD	10	2	[0, 0, 0]	n/a	FR1	2	R1161E
318.106	1.616	322579	WORD	n/a	wordpools/wordpool_EN.txt	PHONE	11	2	[0, 0, 0]	n/a	FR1	2	R1161E
319.722	0.768	324195	WORD_OFF	n/a	n/a	PHONE	11	2	[0, 0, 0]	n/a	FR1	2	R1161E
320.49	1.617	324963	WORD	n/a	wordpools/wordpool_EN.txt	BEAN	12	2	[0, 0, 0]	n/a	FR1	2	R1161E
322.107	0.0	326580	WORD_OFF	n/a	n/a	BEAN	12	2	[0, 0, 0]	n/a	FR1	2	R1161E
322.107	0.0	326580	DISTRACT_START	n/a	n/a	n/a	-999	2	[0, 0, 0]	n/a	FR1	2	R1161E
322.107	0.017	326580	START	n/a	n/a	n/a	-999	2	[-999, -999, -999]	n/a	FR1	2	R1161E
322.124	7.151	326597	PROB	7.151	n/a	n/a	-999	2	[4, 3, 3]	10	FR1	2	R1161E
329.275	3.917	333747	PROB	3.917	n/a	n/a	-999	2	[7, 3, 8]	18	FR1	2	R1161E
333.192	5.483	337664	PROB	5.483	n/a	n/a	-999	2	[7, 8, 6]	19	FR1	2	R1161E
338.675	4.154	343147	PROB	4.154	n/a	n/a	-999	2	[9, 8, 2]	19	FR1	2	R1161E
342.829	0.014	347301	STOP	n/a	n/a	n/a	-999	2	[-999, -999, -999]	n/a	FR1	2	R1161E
342.843	0.651	347315	DISTRACT_END	n/a	n/a	n/a	-999	2	[0, 0, 0]	n/a	FR1	2	R1161E
343.494	0.517	347966	RETRIEVAL_ORIENT	n/a	n/a	n/a	-999	2	[0, 0, 0]	n/a	FR1	2	R1161E
344.011	1.639	348483	REC_START	n/a	n/a	n/a	-999	2	[0, 0, 0]	n/a	FR1	2	R1161E
345.65	0.922	350122	REC_WORD	0.922	n/a	BEAN	-999	2	[0, 0, 0]	n/a	FR1	2	R1161E
346.572	3.389	351044	REC_WORD	3.389	n/a	THREAD	-999	2	[0, 0, 0]	n/a	FR1	2	R1161E
349.961	1.064	354432	REC_WORD	1.064	n/a	RICE	-999	2	[0, 0, 0]	n/a	FR1	2	R1161E
351.025	8.992	355496	REC_WORD	8.992	n/a	SOUP	-999	2	[0, 0, 0]	n/a	FR1	2	R1161E
360.017	14.004	364488	REC_WORD_VV	14.004	n/a	<>	-999	2	[0, 0, 0]	n/a	FR1	2	R1161E
374.021	5.645	378492	REC_END	n/a	n/a	n/a	-999	2	[0, 0, 0]	n/a	FR1	2	R1161E
379.666	0.5	384136	TRIAL	n/a	n/a	n/a	-999	3	[0, 0, 0]	n/a	FR1	2	R1161E
380.166	10.428	384636	COUNTDOWN_START	n/a	n/a	n/a	-999	3	[0, 0, 0]	n/a	FR1	2	R1161E
390.594	0.007	395064	COUNTDOWN_END	n/a	n/a	n/a	-999	3	[0, 0, 0]	n/a	FR1	2	R1161E
390.601	1.618	395071	ORIENT	n/a	n/a	n/a	-999	3	[0, 0, 0]	n/a	FR1	2	R1161E
392.219	1.984	396689	ORIENT_OFF	n/a	n/a	n/a	-999	3	[0, 0, 0]	n/a	FR1	2	R1161E
394.203	1.616	398673	WORD	n/a	wordpools/wordpool_EN.txt	TANK	1	3	[0, 0, 0]	n/a	FR1	2	R1161E
395.819	0.8	400289	WORD_OFF	n/a	n/a	TANK	1	3	[0, 0, 0]	n/a	FR1	2	R1161E
396.619	1.601	401089	WORD	n/a	wordpools/wordpool_EN.txt	SHRIMP	2	3	[0, 0, 0]	n/a	FR1	2	R1161E
398.22	0.834	402690	WORD_OFF	n/a	n/a	SHRIMP	2	3	[0, 0, 0]	n/a	FR1	2	R1161E
399.054	1.616	403524	WORD	n/a	wordpools/wordpool_EN.txt	MOON	3	3	[0, 0, 0]	n/a	FR1	2	R1161E
400.67	0.868	405139	WORD_OFF	n/a	n/a	MOON	3	3	[0, 0, 0]	n/a	FR1	2	R1161E
401.538	1.616	406007	WORD	n/a	wordpools/wordpool_EN.txt	SKY	4	3	[0, 0, 0]	n/a	FR1	2	R1161E
403.154	0.766	407623	WORD_OFF	n/a	n/a	SKY	4	3	[0, 0, 0]	n/a	FR1	2	R1161E
403.92	1.601	408389	WORD	n/a	wordpools/wordpool_EN.txt	PIPE	5	3	[0, 0, 0]	n/a	FR1	2	R1161E
405.521	0.834	409990	WORD_OFF	n/a	n/a	PIPE	5	3	[0, 0, 0]	n/a	FR1	2	R1161E
406.355	1.616	410824	WORD	n/a	wordpools/wordpool_EN.txt	SPONGE	6	3	[0, 0, 0]	n/a	FR1	2	R1161E
407.971	0.767	412440	WORD_OFF	n/a	n/a	SPONGE	6	3	[0, 0, 0]	n/a	FR1	2	R1161E
408.738	1.618	413207	WORD	n/a	wordpools/wordpool_EN.txt	JET	7	3	[0, 0, 0]	n/a	FR1	2	R1161E
410.356	0.983	414825	WORD_OFF	n/a	n/a	JET	7	3	[0, 0, 0]	n/a	FR1	2	R1161E
411.339	1.616	415808	WORD	n/a	wordpools/wordpool_EN.txt	POND	8	3	[0, 0, 0]	n/a	FR1	2	R1161E
412.955	0.784	417424	WORD_OFF	n/a	n/a	POND	8	3	[0, 0, 0]	n/a	FR1	2	R1161E
413.739	1.618	418208	WORD	n/a	wordpools/wordpool_EN.txt	FISH	9	3	[0, 0, 0]	n/a	FR1	2	R1161E
415.357	0.833	419826	WORD_OFF	n/a	n/a	FISH	9	3	[0, 0, 0]	n/a	FR1	2	R1161E
416.19	1.616	420659	WORD	n/a	wordpools/wordpool_EN.txt	GLASS	10	3	[0, 0, 0]	n/a	FR1	2	R1161E
417.806	0.9	422275	WORD_OFF	n/a	n/a	GLASS	10	3	[0, 0, 0]	n/a	FR1	2	R1161E
418.706	1.618	423175	WORD	n/a	wordpools/wordpool_EN.txt	DEER	11	3	[0, 0, 0]	n/a	FR1	2	R1161E
420.324	0.817	424793	WORD_OFF	n/a	n/a	DEER	11	3	[0, 0, 0]	n/a	FR1	2	R1161E
421.141	1.616	425610	WORD	n/a	wordpools/wordpool_EN.txt	FROG	12	3	[0, 0, 0]	n/a	FR1	2	R1161E
422.757	0.0	427226	WORD_OFF	n/a	n/a	FROG	12	3	[0, 0, 0]	n/a	FR1	2	R1161E
422.757	0.0	427226	DISTRACT_START	n/a	n/a	n/a	-999	3	[0, 0, 0]	n/a	FR1	2	R1161E
422.757	0.016	427226	START	n/a	n/a	n/a	-999	3	[-999, -999, -999]	n/a	FR1	2	R1161E
422.773	8.336	427242	PROB	8.336	n/a	n/a	-999	3	[6, 6, 3]	15	FR1	2	R1161E
431.109	3.683	435577	PROB	3.683	n/a	n/a	-999	3	[8, 1, 2]	11	FR1	2	R1161E
434.792	3.435	439260	PROB	3.435	n/a	n/a	-999	3	[8, 2, 9]	19	FR1	2	R1161E
438.227	4.051	442695	PROB	4.051	n/a	n/a	-999	3	[2, 1, 7]	10	FR1	2	R1161E
442.278	4.993	446746	PROB	4.993	n/a	n/a	-999	3	[1, 3, 4]	8	FR1	2	R1161E
447.271	0.008	451739	STOP	n/a	n/a	n/a	-999	3	[-999, -999, -999]	n/a	FR1	2	R1161E
447.279	0.599	451747	DISTRACT_END	n/a	n/a	n/a	-999	3	[0, 0, 0]	n/a	FR1	2	R1161E
447.878	0.518	452346	RETRIEVAL_ORIENT	n/a	n/a	n/a	-999	3	[0, 0, 0]	n/a	FR1	2	R1161E
448.396	1.145	452864	REC_START	n/a	n/a	n/a	-999	3	[0, 0, 0]	n/a	FR1	2	R1161E
449.541	1.15	454008	REC_WORD	1.15	n/a	TANK	-999	3	[0, 0, 0]	n/a	FR1	2	R1161E
450.691	1.115	455158	REC_WORD	1.115	n/a	GLASS	-999	3	[0, 0, 0]	n/a	FR1	2	R1161E
451.806	9.548	456273	REC_WORD	9.548	n/a	SHRIMP	-999	3	[0, 0, 0]	n/a	FR1	2	R1161E
461.354	17.053	465821	REC_WORD	17.053	n/a	FROG	-999	3	[0, 0, 0]	n/a	FR1	2	R1161E
478.407	10.345	482873	REC_END	n/a	n/a	n/a	-999	3	[0, 0, 0]	n/a	FR1	2	R1161E
488.752	0.5	493218	TRIAL	n/a	n/a	n/a	-999	4	[0, 0, 0]	n/a	FR1	2	R1161E
489.252	10.428	493718	COUNTDOWN_START	n/a	n/a	n/a	-999	4	[0, 0, 0]	n/a	FR1	2	R1161E
499.68	0.007	504145	COUNTDOWN_END	n/a	n/a	n/a	-999	4	[0, 0, 0]	n/a	FR1	2	R1161E
499.687	1.618	504152	ORIENT	n/a	n/a	n/a	-999	4	[0, 0, 0]	n/a	FR1	2	R1161E
501.305	1.95	505770	ORIENT_OFF	n/a	n/a	n/a	-999	4	[0, 0, 0]	n/a	FR1	2	R1161E
503.255	1.616	507720	WORD	n/a	wordpools/wordpool_EN.txt	BOARD	1	4	[0, 0, 0]	n/a	FR1	2	R1161E
504.871	0.834	509336	WORD_OFF	n/a	n/a	BOARD	1	4	[0, 0, 0]	n/a	FR1	2	R1161E
505.705	1.618	510170	WORD	n/a	wordpools/wordpool_EN.txt	PIG	2	4	[0, 0, 0]	n/a	FR1	2	R1161E
507.323	0.85	511788	WORD_OFF	n/a	n/a	PIG	2	4	[0, 0, 0]	n/a	FR1	2	R1161E
508.173	1.616	512638	WORD	n/a	wordpools/wordpool_EN.txt	BREAD	3	4	[0, 0, 0]	n/a	FR1	2	R1161E
509.789	0.967	514254	WORD_OFF	n/a	n/a	BREAD	3	4	[0, 0, 0]	n/a	FR1	2	R1161E
510.756	1.618	515221	WORD	n/a	wordpools/wordpool_EN.txt	WOOD	4	4	[0, 0, 0]	n/a	FR1	2	R1161E
512.374	0.966	516839	WORD_OFF	n/a	n/a	WOOD	4	4	[0, 0, 0]	n/a	FR1	2	R1161E
513.34	1.616	517805	WORD	n/a	wordpools/wordpool_EN.txt	CALF	5	4	[0, 0, 0]	n/a	FR1	2	R1161E
514.956	0.867	519421	WORD_OFF	n/a	n/a	CALF	5	4	[0, 0, 0]	n/a	FR1	2	R1161E
515.823	1.601	520288	WORD	n/a	wordpools/wordpool_EN.txt	KITE	6	4	[0, 0, 0]	n/a	FR1	2	R1161E
517.424	1.0	521889	WORD_OFF	n/a	n/a	KITE	6	4	[0, 0, 0]	n/a	FR1	2	R1161E
518.424	1.617	522889	WORD	n/a	wordpools/wordpool_EN.txt	GOAT	7	4	[0, 0, 0]	n/a	FR1	2	R1161E
520.041	0.783	524506	WORD_OFF	n/a	n/a	GOAT	7	4	[0, 0, 0]	n/a	FR1	2	R1161E
520.824	1.618	525289	WORD	n/a	wordpools/wordpool_EN.txt	JAR	8	4	[0, 0, 0]	n/a	FR1	2	R1161E
522.442	0.95	526907	WORD_OFF	n/a	n/a	JAR	8	4	[0, 0, 0]	n/a	FR1	2	R1161E
523.392	1.616	527857	WORD	n/a	wordpools/wordpool_EN.txt	TAIL	9	4	[0, 0, 0]	n/a	FR1	2	R1161E
525.008	0.983	529472	WORD_OFF	n/a	n/a	TAIL	9	4	[0, 0, 0]	n/a	FR1	2	R1161E
525.991	1.618	530455	WORD	n/a	wordpools/wordpool_EN.txt	JUICE	10	4	[0, 0, 0]	n/a	FR1	2	R1161E
527.609	0.801	532073	WORD_OFF	n/a	n/a	JUICE	10	4	[0, 0, 0]	n/a	FR1	2	R1161E
528.41	1.616	532874	WORD	n/a	wordpools/wordpool_EN.txt	THUMB	11	4	[0, 0, 0]	n/a	FR1	2	R1161E
530.026	0.85	534490	WORD_OFF	n/a	n/a	THUMB	11	4	[0, 0, 0]	n/a	FR1	2	R1161E
530.876	1.618	535340	WORD	n/a	wordpools/wordpool_EN.txt	BENCH	12	4	[0, 0, 0]	n/a	FR1	2	R1161E
532.494	0.0	536958	WORD_OFF	n/a	n/a	BENCH	12	4	[0, 0, 0]	n/a	FR1	2	R1161E
532.494	0.0	536958	DISTRACT_START	n/a	n/a	n/a	-999	4	[0, 0, 0]	n/a	FR1	2	R1161E
532.494	0.016	536958	START	n/a	n/a	n/a	-999	4	[-999, -999, -999]	n/a	FR1	2	R1161E
532.51	5.868	536974	PROB	5.868	n/a	n/a	-999	4	[5, 8, 5]	18	FR1	2	R1161E
538.378	6.233	542842	PROB	6.233	n/a	n/a	-999	4	[6, 7, 6]	19	FR1	2	R1161E
544.611	4.652	549075	PROB	4.652	n/a	n/a	-999	4	[3, 6, 3]	12	FR1	2	R1161E
549.263	4.449	553726	PROB	4.449	n/a	n/a	-999	4	[3, 3, 6]	12	FR1	2	R1161E
553.712	0.018	558175	STOP	n/a	n/a	n/a	-999	4	[-999, -999, -999]	n/a	FR1	2	R1161E
553.73	0.651	558193	DISTRACT_END	n/a	n/a	n/a	-999	4	[0, 0, 0]	n/a	FR1	2	R1161E
554.381	0.516	558844	RETRIEVAL_ORIENT	n/a	n/a	n/a	-999	4	[0, 0, 0]	n/a	FR1	2	R1161E
554.897	2.177	559360	REC_START	n/a	n/a	n/a	-999	4	[0, 0, 0]	n/a	FR1	2	R1161E
557.074	1.131	561537	REC_WORD	1.131	n/a	PIG	-999	4	[0, 0, 0]	n/a	FR1	2	R1161E
558.205	1.386	562668	REC_WORD	1.386	n/a	BOARD	-999	4	[0, 0, 0]	n/a	FR1	2	R1161E
559.591	2.52	564054	REC_WORD	2.52	n/a	WOOD	-999	4	[0, 0, 0]	n/a	FR1	2	R1161E
562.111	6.902	566574	REC_WORD	6.902	n/a	BREAD	-999	4	[0, 0, 0]	n/a	FR1	2	R1161E
569.013	6.962	573476	REC_WORD	6.962	n/a	BOARD	-999	4	[0, 0, 0]	n/a	FR1	2	R1161E
575.975	8.934	580437	REC_WORD	8.934	n/a	CALF	-999	4	[0, 0, 0]	n/a	FR1	2	R1161E
584.909	23.814	589371	REC_END	n/a	n/a	n/a	-999	4	[0, 0, 0]	n/a	FR1	2	R1161E
608.723	0.5	613184	TRIAL	n/a	n/a	n/a	-999	5	[0, 0, 0]	n/a	FR1	2	R1161E
609.223	10.428	613684	COUNTDOWN_START	n/a	n/a	n/a	-999	5	[0, 0, 0]	n/a	FR1	2	R1161E
619.651	0.007	624112	COUNTDOWN_END	n/a	n/a	n/a	-999	5	[0, 0, 0]	n/a	FR1	2	R1161E
619.658	1.618	624119	ORIENT	n/a	n/a	n/a	-999	5	[0, 0, 0]	n/a	FR1	2	R1161E
621.276	1.984	625737	ORIENT_OFF	n/a	n/a	n/a	-999	5	[0, 0, 0]	n/a	FR1	2	R1161E
623.26	1.616	627721	WORD	n/a	wordpools/wordpool_EN.txt	DUCK	1	5	[0, 0, 0]	n/a	FR1	2	R1161E
624.876	0.883	629336	WORD_OFF	n/a	n/a	DUCK	1	5	[0, 0, 0]	n/a	FR1	2	R1161E
625.759	1.618	630219	WORD	n/a	wordpools/wordpool_EN.txt	PEN	2	5	[0, 0, 0]	n/a	FR1	2	R1161E
627.377	0.967	631837	WORD_OFF	n/a	n/a	PEN	2	5	[0, 0, 0]	n/a	FR1	2	R1161E
628.344	1.616	632804	WORD	n/a	wordpools/wordpool_EN.txt	HAWK	3	5	[0, 0, 0]	n/a	FR1	2	R1161E
629.96	0.85	634420	WORD_OFF	n/a	n/a	HAWK	3	5	[0, 0, 0]	n/a	FR1	2	R1161E
630.81	1.618	635270	WORD	n/a	wordpools/wordpool_EN.txt	CHALK	4	5	[0, 0, 0]	n/a	FR1	2	R1161E
632.428	0.967	636888	WORD_OFF	n/a	n/a	CHALK	4	5	[0, 0, 0]	n/a	FR1	2	R1161E
633.395	1.616	637855	WORD	n/a	wordpools/wordpool_EN.txt	POOL	5	5	[0, 0, 0]	n/a	FR1	2	R1161E
635.011	0.883	639471	WORD_OFF	n/a	n/a	POOL	5	5	[0, 0, 0]	n/a	FR1	2	R1161E
635.894	1.618	640354	WORD	n/a	wordpools/wordpool_EN.txt	OWL	6	5	[0, 0, 0]	n/a	FR1	2	R1161E
637.512	0.85	641972	WORD_OFF	n/a	n/a	OWL	6	5	[0, 0, 0]	n/a	FR1	2	R1161E
638.362	1.616	642822	WORD	n/a	wordpools/wordpool_EN.txt	MOOSE	7	5	[0, 0, 0]	n/a	FR1	2	R1161E
639.978	0.784	644438	WORD_OFF	n/a	n/a	MOOSE	7	5	[0, 0, 0]	n/a	FR1	2	R1161E
640.762	1.601	645222	WORD	n/a	wordpools/wordpool_EN.txt	HEN	8	5	[0, 0, 0]	n/a	FR1	2	R1161E
642.363	0.8	646823	WORD_OFF	n/a	n/a	HEN	8	5	[0, 0, 0]	n/a	FR1	2	R1161E
643.163	1.616	647623	WORD	n/a	wordpools/wordpool_EN.txt	ZOO	9	5	[0, 0, 0]	n/a	FR1	2	R1161E
644.779	0.917	649239	WORD_OFF	n/a	n/a	ZOO	9	5	[0, 0, 0]	n/a	FR1	2	R1161E
645.696	1.618	650156	WORD	n/a	wordpools/wordpool_EN.txt	PET	10	5	[0, 0, 0]	n/a	FR1	2	R1161E
647.314	0.883	651774	WORD_OFF	n/a	n/a	PET	10	5	[0, 0, 0]	n/a	FR1	2	R1161E
648.197	1.616	652657	WORD	n/a	wordpools/wordpool_EN.txt	DOG	11	5	[0, 0, 0]	n/a	FR1	2	R1161E
649.813	0.834	654272	WORD_OFF	n/a	n/a	DOG	11	5	[0, 0, 0]	n/a	FR1	2	R1161E
650.647	1.618	655106	WORD	n/a	wordpools/wordpool_EN.txt	FLEA	12	5	[0, 0, 0]	n/a	FR1	2	R1161E
652.265	0.0	656724	WORD_OFF	n/a	n/a	FLEA	12	5	[0, 0, 0]	n/a	FR1	2	R1161E
652.265	0.0	656724	DISTRACT_START	n/a	n/a	n/a	-999	5	[0, 0, 0]	n/a	FR1	2	R1161E
652.265	0.016	656724	START	n/a	n/a	n/a	-999	5	[-999, -999, -999]	n/a	FR1	2	R1161E
652.281	14.87	656740	PROB	14.87	n/a	n/a	-999	5	[2, 6, 5]	13	FR1	2	R1161E
667.151	6.02	671610	PROB	6.02	n/a	n/a	-999	5	[4, 1, 2]	7	FR1	2	R1161E
673.171	0.014	677630	STOP	n/a	n/a	n/a	-999	5	[-999, -999, -999]	n/a	FR1	2	R1161E
673.185	0.549	677644	DISTRACT_END	n/a	n/a	n/a	-999	5	[0, 0, 0]	n/a	FR1	2	R1161E
673.734	0.519	678192	RETRIEVAL_ORIENT	n/a	n/a	n/a	-999	5	[0, 0, 0]	n/a	FR1	2	R1161E
674.253	2.235	678711	REC_START	n/a	n/a	n/a	-999	5	[0, 0, 0]	n/a	FR1	2	R1161E
676.488	0.942	680946	REC_WORD	0.942	n/a	DUCK	-999	5	[0, 0, 0]	n/a	FR1	2	R1161E
677.43	1.284	681888	REC_WORD	1.284	n/a	HAWK	-999	5	[0, 0, 0]	n/a	FR1	2	R1161E
678.714	7.696	683172	REC_WORD	7.696	n/a	OWL	-999	5	[0, 0, 0]	n/a	FR1	2	R1161E
686.41	1.087	690868	REC_WORD	1.087	n/a	PEN	-999	5	[0, 0, 0]	n/a	FR1	2	R1161E
687.497	2.865	691955	REC_WORD	2.865	n/a	CHALK	-999	5	[0, 0, 0]	n/a	FR1	2	R1161E
690.362	3.447	694820	REC_WORD_VV	3.447	n/a	<>	-999	5	[0, 0, 0]	n/a	FR1	2	R1161E
693.809	3.97	698267	REC_WORD	3.97	n/a	PET	-999	5	[0, 0, 0]	n/a	FR1	2	R1161E
697.779	1.223	702237	REC_WORD	1.223	n/a	DOG	-999	5	[0, 0, 0]	n/a	FR1	2	R1161E
699.002	5.261	703459	REC_WORD	5.261	n/a	FLEA	-999	5	[0, 0, 0]	n/a	FR1	2	R1161E
704.263	6.279	708720	REC_END	n/a	n/a	n/a	-999	5	[0, 0, 0]	n/a	FR1	2	R1161E
710.542	0.5	714999	TRIAL	n/a	n/a	n/a	-999	6	[0, 0, 0]	n/a	FR1	2	R1161E
711.042	10.428	715499	COUNTDOWN_START	n/a	n/a	n/a	-999	6	[0, 0, 0]	n/a	FR1	2	R1161E
721.47	0.007	725927	COUNTDOWN_END	n/a	n/a	n/a	-999	6	[0, 0, 0]	n/a	FR1	2	R1161E
721.477	1.617	725934	ORIENT	n/a	n/a	n/a	-999	6	[0, 0, 0]	n/a	FR1	2	R1161E
723.094	1.949	727550	ORIENT_OFF	n/a	n/a	n/a	-999	6	[0, 0, 0]	n/a	FR1	2	R1161E
725.043	1.617	729499	WORD	n/a	wordpools/wordpool_EN.txt	CAT	1	6	[0, 0, 0]	n/a	FR1	2	R1161E
726.66	0.95	731116	WORD_OFF	n/a	n/a	CAT	1	6	[0, 0, 0]	n/a	FR1	2	R1161E
727.61	1.618	732066	WORD	n/a	wordpools/wordpool_EN.txt	PLANE	2	6	[0, 0, 0]	n/a	FR1	2	R1161E
729.228	0.834	733684	WORD_OFF	n/a	n/a	PLANE	2	6	[0, 0, 0]	n/a	FR1	2	R1161E
730.062	1.616	734518	WORD	n/a	wordpools/wordpool_EN.txt	TOY	3	6	[0, 0, 0]	n/a	FR1	2	R1161E
731.678	0.983	736134	WORD_OFF	n/a	n/a	TOY	3	6	[0, 0, 0]	n/a	FR1	2	R1161E
732.661	1.618	737117	WORD	n/a	wordpools/wordpool_EN.txt	PEAR	4	6	[0, 0, 0]	n/a	FR1	2	R1161E
734.279	0.766	738735	WORD_OFF	n/a	n/a	PEAR	4	6	[0, 0, 0]	n/a	FR1	2	R1161E
735.045	1.617	739501	WORD	n/a	wordpools/wordpool_EN.txt	SQUARE	5	6	[0, 0, 0]	n/a	FR1	2	R1161E
736.662	0.967	741118	WORD_OFF	n/a	n/a	SQUARE	5	6	[0, 0, 0]	n/a	FR1	2	R1161E
737.629	1.618	742085	WORD	n/a	wordpools/wordpool_EN.txt	CONE	6	6	[0, 0, 0]	n/a	FR1	2	R1161E
739.247	1.0	743703	WORD_OFF	n/a	n/a	CONE	6	6	[0, 0, 0]	n/a	FR1	2	R1161E
740.247	1.616	744703	WORD	n/a	wordpools/wordpool_EN.txt	ROCK	7	6	[0, 0, 0]	n/a	FR1	2	R1161E
741.863	0.9	746319	WORD_OFF	n/a	n/a	ROCK	7	6	[0, 0, 0]	n/a	FR1	2	R1161E
742.763	1.618	747219	WORD	n/a	wordpools/wordpool_EN.txt	TOOL	8	6	[0, 0, 0]	n/a	FR1	2	R1161E
744.381	0.967	748837	WORD_OFF	n/a	n/a	TOOL	8	6	[0, 0, 0]	n/a	FR1	2	R1161E
745.348	1.616	749804	WORD	n/a	wordpools/wordpool_EN.txt	RAT	9	6	[0, 0, 0]	n/a	FR1	2	R1161E
746.964	0.866	751420	WORD_OFF	n/a	n/a	RAT	9	6	[0, 0, 0]	n/a	FR1	2	R1161E
747.83	1.618	752286	WORD	n/a	wordpools/wordpool_EN.txt	TEETH	10	6	[0, 0, 0]	n/a	FR1	2	R1161E
749.448	0.95	753903	WORD_OFF	n/a	n/a	TEETH	10	6	[0, 0, 0]	n/a	FR1	2	R1161E
750.398	1.617	754853	WORD	n/a	wordpools/wordpool_EN.txt	CAPE	11	6	[0, 0, 0]	n/a	FR1	2	R1161E
752.015	0.883	756470	WORD_OFF	n/a	n/a	CAPE	11	6	[0, 0, 0]	n/a	FR1	2	R1161E
752.898	1.618	757353	WORD	n/a	wordpools/wordpool_EN.txt	WORM	12	6	[0, 0, 0]	n/a	FR1	2	R1161E
754.516	0.0	758971	DISTRACT_START	n/a	n/a	n/a	-999	6	[0, 0, 0]	n/a	FR1	2	R1161E
754.516	0.001	758971	WORD_OFF	n/a	n/a	WORM	12	6	[0, 0, 0]	n/a	FR1	2	R1161E
754.517	0.016	758972	START	n/a	n/a	n/a	-999	6	[-999, -999, -999]	n/a	FR1	2	R1161E
754.533	9.25	758988	PROB	9.25	n/a	n/a	-999	6	[8, 8, 6]	22	FR1	2	R1161E
763.783	6.269	768238	PROB	6.269	n/a	n/a	-999	6	[1, 4, 2]	7	FR1	2	R1161E
770.052	5.32	774507	PROB	5.32	n/a	n/a	-999	6	[2, 5, 3]	10	FR1	2	R1161E
775.372	0.014	779826	STOP	n/a	n/a	n/a	-999	6	[-999, -999, -999]	n/a	FR1	2	R1161E
775.386	0.616	779840	DISTRACT_END	n/a	n/a	n/a	-999	6	[0, 0, 0]	n/a	FR1	2	R1161E
776.002	0.519	780456	RETRIEVAL_ORIENT	n/a	n/a	n/a	-999	6	[0, 0, 0]	n/a	FR1	2	R1161E
776.521	1.503	780975	REC_START	n/a	n/a	n/a	-999	6	[0, 0, 0]	n/a	FR1	2	R1161E
778.024	0.909	782478	REC_WORD	0.909	n/a	CAT	-999	6	[0, 0, 0]	n/a	FR1	2	R1161E
778.933	5.57	783387	REC_WORD	5.57	n/a	RAT	-999	6	[0, 0, 0]	n/a	FR1	2	R1161E
784.503	2.8	788957	REC_WORD_VV	2.8	n/a	<>	-999	6	[0, 0, 0]	n/a	FR1	2	R1161E
787.303	0.95	791757	REC_WORD	0.95	n/a	PEN	-999	6	[0, 0, 0]	n/a	FR1	2	R1161E
788.253	2.792	792707	REC_WORD	2.792	n/a	TOY	-999	6	[0, 0, 0]	n/a	FR1	2	R1161E
791.045	1.595	795499	REC_WORD	1.595	n/a	SQUARE	-999	6	[0, 0, 0]	n/a	FR1	2	R1161E
792.64	4.937	797094	REC_WORD	4.937	n/a	CONE	-999	6	[0, 0, 0]	n/a	FR1	2	R1161E
797.577	1.156	802031	REC_WORD	1.156	n/a	TOOL	-999	6	[0, 0, 0]	n/a	FR1	2	R1161E
798.733	7.797	803186	REC_WORD	7.797	n/a	ROCK	-999	6	[0, 0, 0]	n/a	FR1	2	R1161E
806.53	5.579	810983	REC_END	n/a	n/a	n/a	-999	6	[0, 0, 0]	n/a	FR1	2	R1161E
812.109	0.5	816562	TRIAL	n/a	n/a	n/a	-999	7	[0, 0, 0]	n/a	FR1	2	R1161E
812.609	10.428	817062	COUNTDOWN_START	n/a	n/a	n/a	-999	7	[0, 0, 0]	n/a	FR1	2	R1161E
823.037	0.007	827489	COUNTDOWN_END	n/a	n/a	n/a	-999	7	[0, 0, 0]	n/a	FR1	2	R1161E
823.044	1.617	827496	ORIENT	n/a	n/a	n/a	-999	7	[0, 0, 0]	n/a	FR1	2	R1161E
824.661	2.0	829113	ORIENT_OFF	n/a	n/a	n/a	-999	7	[0, 0, 0]	n/a	FR1	2	R1161E
826.661	1.618	831113	WORD	n/a	wordpools/wordpool_EN.txt	NAIL	1	7	[0, 0, 0]	n/a	FR1	2	R1161E
828.279	0.95	832731	WORD_OFF	n/a	n/a	NAIL	1	7	[0, 0, 0]	n/a	FR1	2	R1161E
829.229	1.616	833681	WORD	n/a	wordpools/wordpool_EN.txt	KEY	2	7	[0, 0, 0]	n/a	FR1	2	R1161E
830.845	0.817	835297	WORD_OFF	n/a	n/a	KEY	2	7	[0, 0, 0]	n/a	FR1	2	R1161E
831.662	1.618	836114	WORD	n/a	wordpools/wordpool_EN.txt	STORM	3	7	[0, 0, 0]	n/a	FR1	2	R1161E
833.28	0.833	837732	WORD_OFF	n/a	n/a	STORM	3	7	[0, 0, 0]	n/a	FR1	2	R1161E
834.113	1.616	838565	WORD	n/a	wordpools/wordpool_EN.txt	MAP	4	7	[0, 0, 0]	n/a	FR1	2	R1161E
835.729	0.835	840181	WORD_OFF	n/a	n/a	MAP	4	7	[0, 0, 0]	n/a	FR1	2	R1161E
836.564	1.617	841016	WORD	n/a	wordpools/wordpool_EN.txt	BALL	5	7	[0, 0, 0]	n/a	FR1	2	R1161E
838.181	0.983	842633	WORD_OFF	n/a	n/a	BALL	5	7	[0, 0, 0]	n/a	FR1	2	R1161E
839.164	1.616	843616	WORD	n/a	wordpools/wordpool_EN.txt	SAIL	6	7	[0, 0, 0]	n/a	FR1	2	R1161E
840.78	0.867	845232	WORD_OFF	n/a	n/a	SAIL	6	7	[0, 0, 0]	n/a	FR1	2	R1161E
841.647	1.618	846099	WORD	n/a	wordpools/wordpool_EN.txt	POLE	7	7	[0, 0, 0]	n/a	FR1	2	R1161E
843.265	0.817	847717	WORD_OFF	n/a	n/a	POLE	7	7	[0, 0, 0]	n/a	FR1	2	R1161E
844.082	1.616	848534	WORD	n/a	wordpools/wordpool_EN.txt	EAR	8	7	[0, 0, 0]	n/a	FR1	2	R1161E
845.698	0.916	850150	WORD_OFF	n/a	n/a	EAR	8	7	[0, 0, 0]	n/a	FR1	2	R1161E
846.614	1.601	851066	WORD	n/a	wordpools/wordpool_EN.txt	FUR	9	7	[0, 0, 0]	n/a	FR1	2	R1161E
848.215	0.934	852666	WORD_OFF	n/a	n/a	FUR	9	7	[0, 0, 0]	n/a	FR1	2	R1161E
849.149	1.616	853600	WORD	n/a	wordpools/wordpool_EN.txt	COIN	10	7	[0, 0, 0]	n/a	FR1	2	R1161E
850.765	1.0	855216	WORD_OFF	n/a	n/a	COIN	10	7	[0, 0, 0]	n/a	FR1	2	R1161E
851.765	1.618	856216	WORD	n/a	wordpools/wordpool_EN.txt	BAT	11	7	[0, 0, 0]	n/a	FR1	2	R1161E
853.383	0.833	857834	WORD_OFF	n/a	n/a	BAT	11	7	[0, 0, 0]	n/a	FR1	2	R1161E
854.216	1.617	858667	WORD	n/a	wordpools/wordpool_EN.txt	PEA	12	7	[0, 0, 0]	n/a	FR1	2	R1161E
855.833	0.0	860284	WORD_OFF	n/a	n/a	PEA	12	7	[0, 0, 0]	n/a	FR1	2	R1161E
855.833	0.0	860284	DISTRACT_START	n/a	n/a	n/a	-999	7	[0, 0, 0]	n/a	FR1	2	R1161E
855.833	0.016	860284	START	n/a	n/a	n/a	-999	7	[-999, -999, -999]	n/a	FR1	2	R1161E
855.849	19.837	860300	PROB	19.837	n/a	n/a	-999	7	[9, 9, 3]	21	FR1	2	R1161E
875.686	6.139	880136	PROB	6.139	n/a	n/a	-999	7	[4, 8, 8]	20	FR1	2	R1161E
881.825	0.012	886275	STOP	n/a	n/a	n/a	-999	7	[-999, -999, -999]	n/a	FR1	2	R1161E
881.837	0.518	886287	DISTRACT_END	n/a	n/a	n/a	-999	7	[0, 0, 0]	n/a	FR1	2	R1161E
882.355	0.517	886805	RETRIEVAL_ORIENT	n/a	n/a	n/a	-999	7	[0, 0, 0]	n/a	FR1	2	R1161E
882.872	3.451	887322	REC_START	n/a	n/a	n/a	-999	7	[0, 0, 0]	n/a	FR1	2	R1161E
886.323	2.356	890773	REC_WORD	2.356	n/a	NAIL	-999	7	[0, 0, 0]	n/a	FR1	2	R1161E
888.679	1.344	893129	REC_WORD	1.344	n/a	BALL	-999	7	[0, 0, 0]	n/a	FR1	2	R1161E
890.023	2.333	894473	REC_WORD	2.333	n/a	COIN	-999	7	[0, 0, 0]	n/a	FR1	2	R1161E
892.356	3.354	896806	REC_WORD	3.354	n/a	KEY	-999	7	[0, 0, 0]	n/a	FR1	2	R1161E
895.71	9.678	900160	REC_WORD_VV	9.678	n/a	<>	-999	7	[0, 0, 0]	n/a	FR1	2	R1161E
905.388	7.494	909837	REC_WORD	7.494	n/a	PLANE	-999	7	[0, 0, 0]	n/a	FR1	2	R1161E
912.882	21.931	917331	REC_END	n/a	n/a	n/a	-999	7	[0, 0, 0]	n/a	FR1	2	R1161E
934.813	0.5	939261	TRIAL	n/a	n/a	n/a	-999	8	[0, 0, 0]	n/a	FR1	2	R1161E
935.313	10.428	939761	COUNTDOWN_START	n/a	n/a	n/a	-999	8	[0, 0, 0]	n/a	FR1	2	R1161E
945.741	0.008	950189	COUNTDOWN_END	n/a	n/a	n/a	-999	8	[0, 0, 0]	n/a	FR1	2	R1161E
945.749	1.617	950197	ORIENT	n/a	n/a	n/a	-999	8	[0, 0, 0]	n/a	FR1	2	R1161E
947.366	2.151	951813	ORIENT_OFF	n/a	n/a	n/a	-999	8	[0, 0, 0]	n/a	FR1	2	R1161E
949.517	1.617	953964	WORD	n/a	wordpools/wordpool_EN.txt	MUG	1	8	[0, 0, 0]	n/a	FR1	2	R1161E
951.134	0.766	955581	WORD_OFF	n/a	n/a	MUG	1	8	[0, 0, 0]	n/a	FR1	2	R1161E
951.9	1.618	956347	WORD	n/a	wordpools/wordpool_EN.txt	BOOK	2	8	[0, 0, 0]	n/a	FR1	2	R1161E
953.518	0.883	957965	WORD_OFF	n/a	n/a	BOOK	2	8	[0, 0, 0]	n/a	FR1	2	R1161E
954.401	1.616	958848	WORD	n/a	wordpools/wordpool_EN.txt	RUG	3	8	[0, 0, 0]	n/a	FR1	2	R1161E
956.017	0.8	960464	WORD_OFF	n/a	n/a	RUG	3	8	[0, 0, 0]	n/a	FR1	2	R1161E
956.817	1.618	961264	WORD	n/a	wordpools/wordpool_EN.txt	SLUSH	4	8	[0, 0, 0]	n/a	FR1	2	R1161E
958.435	0.8	962882	WORD_OFF	n/a	n/a	SLUSH	4	8	[0, 0, 0]	n/a	FR1	2	R1161E
959.235	1.616	963682	WORD	n/a	wordpools/wordpool_EN.txt	FOOT	5	8	[0, 0, 0]	n/a	FR1	2	R1161E
960.851	0.917	965298	WORD_OFF	n/a	n/a	FOOT	5	8	[0, 0, 0]	n/a	FR1	2	R1161E
961.768	1.618	966215	WORD	n/a	wordpools/wordpool_EN.txt	ARM	6	8	[0, 0, 0]	n/a	FR1	2	R1161E
963.386	0.85	967833	WORD_OFF	n/a	n/a	ARM	6	8	[0, 0, 0]	n/a	FR1	2	R1161E
964.236	1.616	968683	WORD	n/a	wordpools/wordpool_EN.txt	GLOVE	7	8	[0, 0, 0]	n/a	FR1	2	R1161E
965.852	0.984	970299	WORD_OFF	n/a	n/a	GLOVE	7	8	[0, 0, 0]	n/a	FR1	2	R1161E
966.836	1.618	971283	WORD	n/a	wordpools/wordpool_EN.txt	SPOON	8	8	[0, 0, 0]	n/a	FR1	2	R1161E
968.454	1.016	972901	WORD_OFF	n/a	n/a	SPOON	8	8	[0, 0, 0]	n/a	FR1	2	R1161E
969.47	1.617	973917	WORD	n/a	wordpools/wordpool_EN.txt	ROSE	9	8	[0, 0, 0]	n/a	FR1	2	R1161E
971.087	0.866	975534	WORD_OFF	n/a	n/a	ROSE	9	8	[0, 0, 0]	n/a	FR1	2	R1161E
971.953	1.618	976399	WORD	n/a	wordpools/wordpool_EN.txt	WALL	10	8	[0, 0, 0]	n/a	FR1	2	R1161E
973.571	1.0	978017	WORD_OFF	n/a	n/a	WALL	10	8	[0, 0, 0]	n/a	FR1	2	R1161E
974.571	1.617	979017	WORD	n/a	wordpools/wordpool_EN.txt	PANTS	11	8	[0, 0, 0]	n/a	FR1	2	R1161E
976.188	0.816	980634	WORD_OFF	n/a	n/a	PANTS	11	8	[0, 0, 0]	n/a	FR1	2	R1161E
977.004	1.617	981450	WORD	n/a	wordpools/wordpool_EN.txt	PARK	12	8	[0, 0, 0]	n/a	FR1	2	R1161E
978.621	0.0	983067	DISTRACT_START	n/a	n/a	n/a	-999	8	[0, 0, 0]	n/a	FR1	2	R1161E
978.621	0.001	983067	WORD_OFF	n/a	n/a	PARK	12	8	[0, 0, 0]	n/a	FR1	2	R1161E
978.622	0.016	983068	START	n/a	n/a	n/a	-999	8	[-999, -999, -999]	n/a	FR1	2	R1161E
978.638	13.285	983084	PROB	13.285	n/a	n/a	-999	8	[2, 6, 7]	15	FR1	2	R1161E
991.923	4.202	996369	PROB	4.202	n/a	n/a	-999	8	[5, 5, 8]	18	FR1	2	R1161E
996.125	6.484	1000571	PROB	6.484	n/a	n/a	-999	8	[1, 6, 1]	8	FR1	2	R1161E
1002.609	0.016	1007054	STOP	n/a	n/a	n/a	-999	8	[-999, -999, -999]	n/a	FR1	2	R1161E
1002.625	0.635	1007070	DISTRACT_END	n/a	n/a	n/a	-999	8	[0, 0, 0]	n/a	FR1	2	R1161E
1003.26	0.516	1007705	RETRIEVAL_ORIENT	n/a	n/a	n/a	-999	8	[0, 0, 0]	n/a	FR1	2	R1161E
1003.776	1.437	1008221	REC_START	n/a	n/a	n/a	-999	8	[0, 0, 0]	n/a	FR1	2	R1161E
1005.213	1.536	1009658	REC_WORD	1.536	n/a	MUG	-999	8	[0, 0, 0]	n/a	FR1	2	R1161E
1006.749	2.322	1011194	REC_WORD	2.322	n/a	RUG	-999	8	[0, 0, 0]	n/a	FR1	2	R1161E
1009.071	1.975	1013516	REC_WORD	1.975	n/a	ROSE	-999	8	[0, 0, 0]	n/a	FR1	2	R1161E
1011.046	3.535	1015491	REC_WORD	3.535	n/a	SLEEVE	-999	8	[0, 0, 0]	n/a	FR1	2	R1161E
1014.581	3.06	1019026	REC_WORD	3.06	n/a	GLOVE	-999	8	[0, 0, 0]	n/a	FR1	2	R1161E
1017.641	4.838	1022086	REC_WORD	4.838	n/a	SLUSH	-999	8	[0, 0, 0]	n/a	FR1	2	R1161E
1022.479	11.308	1026923	REC_WORD	11.308	n/a	FOOT	-999	8	[0, 0, 0]	n/a	FR1	2	R1161E
1033.787	8.245	1038231	REC_END	n/a	n/a	n/a	-999	8	[0, 0, 0]	n/a	FR1	2	R1161E
1042.032	0.5	1046476	TRIAL	n/a	n/a	n/a	-999	9	[0, 0, 0]	n/a	FR1	2	R1161E
1042.532	10.428	1046976	COUNTDOWN_START	n/a	n/a	n/a	-999	9	[0, 0, 0]	n/a	FR1	2	R1161E
1052.96	0.007	1057403	COUNTDOWN_END	n/a	n/a	n/a	-999	9	[0, 0, 0]	n/a	FR1	2	R1161E
1052.967	1.601	1057410	ORIENT	n/a	n/a	n/a	-999	9	[0, 0, 0]	n/a	FR1	2	R1161E
1054.568	2.15	1059011	ORIENT_OFF	n/a	n/a	n/a	-999	9	[0, 0, 0]	n/a	FR1	2	R1161E
1056.718	1.618	1061161	WORD	n/a	wordpools/wordpool_EN.txt	MULE	1	9	[0, 0, 0]	n/a	FR1	2	R1161E
1058.336	0.967	1062779	WORD_OFF	n/a	n/a	MULE	1	9	[0, 0, 0]	n/a	FR1	2	R1161E
1059.303	1.616	1063746	WORD	n/a	wordpools/wordpool_EN.txt	SMILE	2	9	[0, 0, 0]	n/a	FR1	2	R1161E
1060.919	0.933	1065362	WORD_OFF	n/a	n/a	SMILE	2	9	[0, 0, 0]	n/a	FR1	2	R1161E
1061.852	1.618	1066295	WORD	n/a	wordpools/wordpool_EN.txt	DOOR	3	9	[0, 0, 0]	n/a	FR1	2	R1161E
1063.47	0.867	1067913	WORD_OFF	n/a	n/a	DOOR	3	9	[0, 0, 0]	n/a	FR1	2	R1161E
1064.337	1.616	1068780	WORD	n/a	wordpools/wordpool_EN.txt	PIN	4	9	[0, 0, 0]	n/a	FR1	2	R1161E
1065.953	0.917	1070396	WORD_OFF	n/a	n/a	PIN	4	9	[0, 0, 0]	n/a	FR1	2	R1161E
1066.87	1.601	1071313	WORD	n/a	wordpools/wordpool_EN.txt	BEAK	5	9	[0, 0, 0]	n/a	FR1	2	R1161E
1068.471	0.9	1072914	WORD_OFF	n/a	n/a	BEAK	5	9	[0, 0, 0]	n/a	FR1	2	R1161E
1069.371	1.616	1073814	WORD	n/a	wordpools/wordpool_EN.txt	DITCH	6	9	[0, 0, 0]	n/a	FR1	2	R1161E
1070.987	0.8	1075430	WORD_OFF	n/a	n/a	DITCH	6	9	[0, 0, 0]	n/a	FR1	2	R1161E
1071.787	1.601	1076229	WORD	n/a	wordpools/wordpool_EN.txt	STICK	7	9	[0, 0, 0]	n/a	FR1	2	R1161E
1073.388	0.984	1077830	WORD_OFF	n/a	n/a	STICK	7	9	[0, 0, 0]	n/a	FR1	2	R1161E
1074.372	1.616	1078814	WORD	n/a	wordpools/wordpool_EN.txt	SHOE	8	9	[0, 0, 0]	n/a	FR1	2	R1161E
1075.988	1.0	1080430	WORD_OFF	n/a	n/a	SHOE	8	9	[0, 0, 0]	n/a	FR1	2	R1161E
1076.988	1.617	1081430	WORD	n/a	wordpools/wordpool_EN.txt	LAWN	9	9	[0, 0, 0]	n/a	FR1	2	R1161E
1078.605	0.785	1083047	WORD_OFF	n/a	n/a	LAWN	9	9	[0, 0, 0]	n/a	FR1	2	R1161E
1079.39	1.616	1083832	WORD	n/a	wordpools/wordpool_EN.txt	BOX	10	9	[0, 0, 0]	n/a	FR1	2	R1161E
1081.006	0.8	1085448	WORD_OFF	n/a	n/a	BOX	10	9	[0, 0, 0]	n/a	FR1	2	R1161E
1081.806	1.618	1086248	WORD	n/a	wordpools/wordpool_EN.txt	SEAT	11	9	[0, 0, 0]	n/a	FR1	2	R1161E
1083.424	1.0	1087866	WORD_OFF	n/a	n/a	SEAT	11	9	[0, 0, 0]	n/a	FR1	2	R1161E
1084.424	1.616	1088866	WORD	n/a	wordpools/wordpool_EN.txt	SIGN	12	9	[0, 0, 0]	n/a	FR1	2	R1161E
1086.04	0.0	1090482	WORD_OFF	n/a	n/a	SIGN	12	9	[0, 0, 0]	n/a	FR1	2	R1161E
1086.04	0.0	1090482	DISTRACT_START	n/a	n/a	n/a	-999	9	[0, 0, 0]	n/a	FR1	2	R1161E
1086.04	0.017	1090482	START	n/a	n/a	n/a	-999	9	[-999, -999, -999]	n/a	FR1	2	R1161E
1086.057	8.784	1090499	PROB	8.784	n/a	n/a	-999	9	[9, 3, 1]	13	FR1	2	R1161E
1094.841	6.219	1099283	PROB	6.219	n/a	n/a	-999	9	[7, 7, 1]	15	FR1	2	R1161E
1101.06	3.65	1105501	PROB	3.65	n/a	n/a	-999	9	[4, 6, 5]	15	FR1	2	R1161E
1104.71	3.777	1109151	PROB	3.777	n/a	n/a	-999	9	[5, 5, 9]	19	FR1	2	R1161E
1108.487	0.008	1112928	STOP	n/a	n/a	n/a	-999	9	[-999, -999, -999]	n/a	FR1	2	R1161E
1108.495	0.617	1112936	DISTRACT_END	n/a	n/a	n/a	-999	9	[0, 0, 0]	n/a	FR1	2	R1161E
1109.112	0.516	1113553	RETRIEVAL_ORIENT	n/a	n/a	n/a	-999	9	[0, 0, 0]	n/a	FR1	2	R1161E
1109.628	5.309	1114069	REC_START	n/a	n/a	n/a	-999	9	[0, 0, 0]	n/a	FR1	2	R1161E
1114.937	4.941	1119378	REC_WORD	4.941	n/a	BEAK	-999	9	[0, 0, 0]	n/a	FR1	2	R1161E
1119.878	3.239	1124319	REC_WORD	3.239	n/a	SEAT	-999	9	[0, 0, 0]	n/a	FR1	2	R1161E
1123.117	1.341	1127557	REC_WORD	1.341	n/a	SMILE	-999	9	[0, 0, 0]	n/a	FR1	2	R1161E
1124.458	1.56	1128898	REC_WORD	1.56	n/a	MULE	-999	9	[0, 0, 0]	n/a	FR1	2	R1161E
1126.018	1.4	1130458	REC_WORD	1.4	n/a	DOOR	-999	9	[0, 0, 0]	n/a	FR1	2	R1161E
1127.418	2.453	1131858	REC_WORD	2.453	n/a	LAWN	-999	9	[0, 0, 0]	n/a	FR1	2	R1161E
1129.871	9.767	1134311	REC_WORD	9.767	n/a	BOX	-999	9	[0, 0, 0]	n/a	FR1	2	R1161E
1139.638	4.696	1144078	REC_END	n/a	n/a	n/a	-999	9	[0, 0, 0]	n/a	FR1	2	R1161E
1144.334	0.5	1148774	TRIAL	n/a	n/a	n/a	-999	10	[0, 0, 0]	n/a	FR1	2	R1161E
1144.834	10.428	1149274	COUNTDOWN_START	n/a	n/a	n/a	-999	10	[0, 0, 0]	n/a	FR1	2	R1161E
1155.262	0.008	1159701	COUNTDOWN_END	n/a	n/a	n/a	-999	10	[0, 0, 0]	n/a	FR1	2	R1161E
1155.27	1.616	1159709	ORIENT	n/a	n/a	n/a	-999	10	[0, 0, 0]	n/a	FR1	2	R1161E
1156.886	1.9	1161325	ORIENT_OFF	n/a	n/a	n/a	-999	10	[0, 0, 0]	n/a	FR1	2	R1161E
1158.786	1.601	1163225	WORD	n/a	wordpools/wordpool_EN.txt	WEB	1	10	[0, 0, 0]	n/a	FR1	2	R1161E
1160.387	0.834	1164826	WORD_OFF	n/a	n/a	WEB	1	10	[0, 0, 0]	n/a	FR1	2	R1161E
1161.221	1.616	1165660	WORD	n/a	wordpools/wordpool_EN.txt	FOAM	2	10	[0, 0, 0]	n/a	FR1	2	R1161E
1162.837	0.916	1167276	WORD_OFF	n/a	n/a	FOAM	2	10	[0, 0, 0]	n/a	FR1	2	R1161E
1163.753	1.601	1168192	WORD	n/a	wordpools/wordpool_EN.txt	RAIN	3	10	[0, 0, 0]	n/a	FR1	2	R1161E
1165.354	0.834	1169793	WORD_OFF	n/a	n/a	RAIN	3	10	[0, 0, 0]	n/a	FR1	2	R1161E
1166.188	1.616	1170627	WORD	n/a	wordpools/wordpool_EN.txt	SUN	4	10	[0, 0, 0]	n/a	FR1	2	R1161E
1167.804	0.784	1172243	WORD_OFF	n/a	n/a	SUN	4	10	[0, 0, 0]	n/a	FR1	2	R1161E
1168.588	1.618	1173027	WORD	n/a	wordpools/wordpool_EN.txt	FUDGE	5	10	[0, 0, 0]	n/a	FR1	2	R1161E
1170.206	1.0	1174645	WORD_OFF	n/a	n/a	FUDGE	5	10	[0, 0, 0]	n/a	FR1	2	R1161E
1171.206	1.616	1175644	WORD	n/a	wordpools/wordpool_EN.txt	HOOK	6	10	[0, 0, 0]	n/a	FR1	2	R1161E
1172.822	0.8	1177260	WORD_OFF	n/a	n/a	HOOK	6	10	[0, 0, 0]	n/a	FR1	2	R1161E
1173.622	1.618	1178060	WORD	n/a	wordpools/wordpool_EN.txt	ICE	7	10	[0, 0, 0]	n/a	FR1	2	R1161E
1175.24	0.85	1179678	WORD_OFF	n/a	n/a	ICE	7	10	[0, 0, 0]	n/a	FR1	2	R1161E
1176.09	1.616	1180528	WORD	n/a	wordpools/wordpool_EN.txt	WING	8	10	[0, 0, 0]	n/a	FR1	2	R1161E
1177.706	0.883	1182144	WORD_OFF	n/a	n/a	WING	8	10	[0, 0, 0]	n/a	FR1	2	R1161E
1178.589	1.618	1183027	WORD	n/a	wordpools/wordpool_EN.txt	SNOW	9	10	[0, 0, 0]	n/a	FR1	2	R1161E
1180.207	0.984	1184645	WORD_OFF	n/a	n/a	SNOW	9	10	[0, 0, 0]	n/a	FR1	2	R1161E
1181.191	1.616	1185629	WORD	n/a	wordpools/wordpool_EN.txt	CLOUD	10	10	[0, 0, 0]	n/a	FR1	2	R1161E
1182.807	0.8	1187245	WORD_OFF	n/a	n/a	CLOUD	10	10	[0, 0, 0]	n/a	FR1	2	R1161E
1183.607	1.618	1188045	WORD	n/a	wordpools/wordpool_EN.txt	FOG	11	10	[0, 0, 0]	n/a	FR1	2	R1161E
1185.225	0.799	1189663	WORD_OFF	n/a	n/a	FOG	11	10	[0, 0, 0]	n/a	FR1	2	R1161E
1186.024	1.617	1190462	WORD	n/a	wordpools/wordpool_EN.txt	AXE	12	10	[0, 0, 0]	n/a	FR1	2	R1161E
1187.641	0.0	1192079	WORD_OFF	n/a	n/a	AXE	12	10	[0, 0, 0]	n/a	FR1	2	R1161E
1187.641	0.001	1192079	DISTRACT_START	n/a	n/a	n/a	-999	10	[0, 0, 0]	n/a	FR1	2	R1161E
1187.642	0.016	1192080	START	n/a	n/a	n/a	-999	10	[-999, -999, -999]	n/a	FR1	2	R1161E
1187.658	6.752	1192096	PROB	6.752	n/a	n/a	-999	10	[2, 4, 2]	8	FR1	2	R1161E
1194.41	6.701	1198848	PROB	6.701	n/a	n/a	-999	10	[7, 7, 5]	19	FR1	2	R1161E
1201.111	9.258	1205548	PROB	9.258	n/a	n/a	-999	10	[2, 6, 9]	17	FR1	2	R1161E
1210.369	0.01	1214806	STOP	n/a	n/a	n/a	-999	10	[-999, -999, -999]	n/a	FR1	2	R1161E
1210.379	0.616	1214816	DISTRACT_END	n/a	n/a	n/a	-999	10	[0, 0, 0]	n/a	FR1	2	R1161E
1210.995	0.518	1215432	RETRIEVAL_ORIENT	n/a	n/a	n/a	-999	10	[0, 0, 0]	n/a	FR1	2	R1161E
1211.513	1.495	1215950	REC_START	n/a	n/a	n/a	-999	10	[0, 0, 0]	n/a	FR1	2	R1161E
1213.008	1.623	1217445	REC_WORD	1.623	n/a	PICK	-999	10	[0, 0, 0]	n/a	FR1	2	R1161E
1214.631	1.696	1219068	REC_WORD	1.696	n/a	HOOK	-999	10	[0, 0, 0]	n/a	FR1	2	R1161E
1216.327	1.266	1220764	REC_WORD	1.266	n/a	SUN	-999	10	[0, 0, 0]	n/a	FR1	2	R1161E
1217.593	2.703	1222030	REC_WORD	2.703	n/a	RAIN	-999	10	[0, 0, 0]	n/a	FR1	2	R1161E
1220.296	2.23	1224733	REC_WORD	2.23	n/a	ICE	-999	10	[0, 0, 0]	n/a	FR1	2	R1161E
1222.526	2.798	1226962	REC_WORD	2.798	n/a	CLOUD	-999	10	[0, 0, 0]	n/a	FR1	2	R1161E
1225.324	3.268	1229760	REC_WORD	3.268	n/a	THREAD	-999	10	[0, 0, 0]	n/a	FR1	2	R1161E
1228.592	2.5	1233028	REC_WORD	2.5	n/a	WEB	-999	10	[0, 0, 0]	n/a	FR1	2	R1161E
1231.092	10.431	1235528	REC_WORD	10.431	n/a	FUDGE	-999	10	[0, 0, 0]	n/a	FR1	2	R1161E
1241.523	6.112	1245959	REC_END	n/a	n/a	n/a	-999	10	[0, 0, 0]	n/a	FR1	2	R1161E
1247.635	0.5	1252070	TRIAL	n/a	n/a	n/a	-999	11	[0, 0, 0]	n/a	FR1	2	R1161E
1248.135	10.428	1252570	COUNTDOWN_START	n/a	n/a	n/a	-999	11	[0, 0, 0]	n/a	FR1	2	R1161E
1258.563	0.008	1262998	COUNTDOWN_END	n/a	n/a	n/a	-999	11	[0, 0, 0]	n/a	FR1	2	R1161E
1258.571	1.617	1263006	ORIENT	n/a	n/a	n/a	-999	11	[0, 0, 0]	n/a	FR1	2	R1161E
1260.188	2.067	1264623	ORIENT_OFF	n/a	n/a	n/a	-999	11	[0, 0, 0]	n/a	FR1	2	R1161E
1262.255	1.616	1266690	WORD	n/a	wordpools/wordpool_EN.txt	COUCH	1	11	[0, 0, 0]	n/a	FR1	2	R1161E
1263.871	0.85	1268306	WORD_OFF	n/a	n/a	COUCH	1	11	[0, 0, 0]	n/a	FR1	2	R1161E
1264.721	1.601	1269156	WORD	n/a	wordpools/wordpool_EN.txt	TIE	2	11	[0, 0, 0]	n/a	FR1	2	R1161E
1266.322	1.001	1270757	WORD_OFF	n/a	n/a	TIE	2	11	[0, 0, 0]	n/a	FR1	2	R1161E
1267.323	1.616	1271758	WORD	n/a	wordpools/wordpool_EN.txt	SHIRT	3	11	[0, 0, 0]	n/a	FR1	2	R1161E
1268.939	0.916	1273374	WORD_OFF	n/a	n/a	SHIRT	3	11	[0, 0, 0]	n/a	FR1	2	R1161E
1269.855	1.601	1274290	WORD	n/a	wordpools/wordpool_EN.txt	PLATE	4	11	[0, 0, 0]	n/a	FR1	2	R1161E
1271.456	0.934	1275890	WORD_OFF	n/a	n/a	PLATE	4	11	[0, 0, 0]	n/a	FR1	2	R1161E
1272.39	1.616	1276824	WORD	n/a	wordpools/wordpool_EN.txt	CHIN	5	11	[0, 0, 0]	n/a	FR1	2	R1161E
1274.006	0.95	1278440	WORD_OFF	n/a	n/a	CHIN	5	11	[0, 0, 0]	n/a	FR1	2	R1161E
1274.956	1.618	1279390	WORD	n/a	wordpools/wordpool_EN.txt	PURSE	6	11	[0, 0, 0]	n/a	FR1	2	R1161E
1276.574	0.784	1281008	WORD_OFF	n/a	n/a	PURSE	6	11	[0, 0, 0]	n/a	FR1	2	R1161E
1277.358	1.616	1281792	WORD	n/a	wordpools/wordpool_EN.txt	LEG	7	11	[0, 0, 0]	n/a	FR1	2	R1161E
1278.974	0.966	1283408	WORD_OFF	n/a	n/a	LEG	7	11	[0, 0, 0]	n/a	FR1	2	R1161E
1279.94	1.602	1284374	WORD	n/a	wordpools/wordpool_EN.txt	FORK	8	11	[0, 0, 0]	n/a	FR1	2	R1161E
1281.542	0.833	1285976	WORD_OFF	n/a	n/a	FORK	8	11	[0, 0, 0]	n/a	FR1	2	R1161E
1282.375	1.616	1286809	WORD	n/a	wordpools/wordpool_EN.txt	TRAY	9	11	[0, 0, 0]	n/a	FR1	2	R1161E
1283.991	0.834	1288425	WORD_OFF	n/a	n/a	TRAY	9	11	[0, 0, 0]	n/a	FR1	2	R1161E
1284.825	1.618	1289259	WORD	n/a	wordpools/wordpool_EN.txt	OAR	10	11	[0, 0, 0]	n/a	FR1	2	R1161E
1286.443	0.933	1290877	WORD_OFF	n/a	n/a	OAR	10	11	[0, 0, 0]	n/a	FR1	2	R1161E
1287.376	1.616	1291810	WORD	n/a	wordpools/wordpool_EN.txt	CUP	11	11	[0, 0, 0]	n/a	FR1	2	R1161E
1288.992	0.783	1293426	WORD_OFF	n/a	n/a	CUP	11	11	[0, 0, 0]	n/a	FR1	2	R1161E
1289.775	1.619	1294209	WORD	n/a	wordpools/wordpool_EN.txt	STRING	12	11	[0, 0, 0]	n/a	FR1	2	R1161E
1291.394	0.0	1295828	WORD_OFF	n/a	n/a	STRING	12	11	[0, 0, 0]	n/a	FR1	2	R1161E
1291.394	0.0	1295828	DISTRACT_START	n/a	n/a	n/a	-999	11	[0, 0, 0]	n/a	FR1	2	R1161E
1291.394	0.016	1295828	START	n/a	n/a	n/a	-999	11	[-999, -999, -999]	n/a	FR1	2	R1161E
1291.41	6.55	1295844	PROB	6.55	n/a	n/a	-999	11	[7, 6, 9]	22	FR1	2	R1161E
1297.96	3.634	1302393	PROB	3.634	n/a	n/a	-999	11	[4, 4, 8]	18	FR1	2	R1161E
1301.594	4.451	1306027	PROB	4.451	n/a	n/a	-999	11	[2, 8, 9]	19	FR1	2	R1161E
1306.045	6.765	1310478	PROB	6.765	n/a	n/a	-999	11	[9, 8, 8]	25	FR1	2	R1161E
1312.81	0.02	1317243	STOP	n/a	n/a	n/a	-999	11	[-999, -999, -999]	n/a	FR1	2	R1161E
1312.83	0.617	1317263	DISTRACT_END	n/a	n/a	n/a	-999	11	[0, 0, 0]	n/a	FR1	2	R1161E
1313.447	0.517	1317880	RETRIEVAL_ORIENT	n/a	n/a	n/a	-999	11	[0, 0, 0]	n/a	FR1	2	R1161E
1313.964	3.659	1318397	REC_START	n/a	n/a	n/a	-999	11	[0, 0, 0]	n/a	FR1	2	R1161E
1317.623	2.014	1322056	REC_WORD	2.014	n/a	OAR	-999	11	[0, 0, 0]	n/a	FR1	2	R1161E
1319.637	1.385	1324070	REC_WORD	1.385	n/a	COUCH	-999	11	[0, 0, 0]	n/a	FR1	2	R1161E
1321.022	3.965	1325454	REC_WORD	3.965	n/a	PURSE	-999	11	[0, 0, 0]	n/a	FR1	2	R1161E
1324.987	0.869	1329419	REC_WORD	0.869	n/a	CHIN	-999	11	[0, 0, 0]	n/a	FR1	2	R1161E
1325.856	2.579	1330288	REC_WORD	2.579	n/a	PLATE	-999	11	[0, 0, 0]	n/a	FR1	2	R1161E
1328.435	0.895	1332867	REC_WORD	0.895	n/a	TIE	-999	11	[0, 0, 0]	n/a	FR1	2	R1161E
1329.33	4.583	1333762	REC_WORD	4.583	n/a	SHIRT	-999	11	[0, 0, 0]	n/a	FR1	2	R1161E
1333.913	1.146	1338345	REC_WORD	1.146	n/a	LEG	-999	11	[0, 0, 0]	n/a	FR1	2	R1161E
1335.059	8.915	1339491	REC_WORD	8.915	n/a	FORK	-999	11	[0, 0, 0]	n/a	FR1	2	R1161E
1343.974	37.202	1348406	REC_END	n/a	n/a	n/a	-999	11	[0, 0, 0]	n/a	FR1	2	R1161E
1381.176	0.5	1385606	TRIAL	n/a	n/a	n/a	-999	12	[0, 0, 0]	n/a	FR1	2	R1161E
1381.676	10.428	1386106	COUNTDOWN_START	n/a	n/a	n/a	-999	12	[0, 0, 0]	n/a	FR1	2	R1161E
1392.104	0.007	1396534	COUNTDOWN_END	n/a	n/a	n/a	-999	12	[0, 0, 0]	n/a	FR1	2	R1161E
1392.111	1.616	1396541	ORIENT	n/a	n/a	n/a	-999	12	[0, 0, 0]	n/a	FR1	2	R1161E
1393.727	2.051	1398157	ORIENT_OFF	n/a	n/a	n/a	-999	12	[0, 0, 0]	n/a	FR1	2	R1161E
1395.778	1.618	1400207	WORD	n/a	wordpools/wordpool_EN.txt	SWAMP	1	12	[0, 0, 0]	n/a	FR1	2	R1161E
1397.396	0.883	1401825	WORD_OFF	n/a	n/a	SWAMP	1	12	[0, 0, 0]	n/a	FR1	2	R1161E
1398.279	1.616	1402708	WORD	n/a	wordpools/wordpool_EN.txt	MOUTH	2	12	[0, 0, 0]	n/a	FR1	2	R1161E
1399.895	0.783	1404324	WORD_OFF	n/a	n/a	MOUTH	2	12	[0, 0, 0]	n/a	FR1	2	R1161E
1400.678	1.618	1405107	WORD	n/a	wordpools/wordpool_EN.txt	MAT	3	12	[0, 0, 0]	n/a	FR1	2	R1161E
1402.296	0.817	1406725	WORD_OFF	n/a	n/a	MAT	3	12	[0, 0, 0]	n/a	FR1	2	R1161E
1403.113	1.616	1407542	WORD	n/a	wordpools/wordpool_EN.txt	GATE	4	12	[0, 0, 0]	n/a	FR1	2	R1161E
1404.729	0.818	1409158	WORD_OFF	n/a	n/a	GATE	4	12	[0, 0, 0]	n/a	FR1	2	R1161E
1405.547	1.617	1409976	WORD	n/a	wordpools/wordpool_EN.txt	ELF	5	12	[0, 0, 0]	n/a	FR1	2	R1161E
1407.164	0.866	1411593	WORD_OFF	n/a	n/a	ELF	5	12	[0, 0, 0]	n/a	FR1	2	R1161E
1408.03	1.617	1412459	WORD	n/a	wordpools/wordpool_EN.txt	DOLL	6	12	[0, 0, 0]	n/a	FR1	2	R1161E
1409.647	0.934	1414076	WORD_OFF	n/a	n/a	DOLL	6	12	[0, 0, 0]	n/a	FR1	2	R1161E
1410.581	1.617	1415010	WORD	n/a	wordpools/wordpool_EN.txt	LIP	7	12	[0, 0, 0]	n/a	FR1	2	R1161E
1412.198	0.934	1416627	WORD_OFF	n/a	n/a	LIP	7	12	[0, 0, 0]	n/a	FR1	2	R1161E
1413.132	1.616	1417561	WORD	n/a	wordpools/wordpool_EN.txt	STOVE	8	12	[0, 0, 0]	n/a	FR1	2	R1161E
1414.748	0.817	1419177	WORD_OFF	n/a	n/a	STOVE	8	12	[0, 0, 0]	n/a	FR1	2	R1161E
1415.565	1.617	1419994	WORD	n/a	wordpools/wordpool_EN.txt	SINK	9	12	[0, 0, 0]	n/a	FR1	2	R1161E
1417.182	0.951	1421611	WORD_OFF	n/a	n/a	SINK	9	12	[0, 0, 0]	n/a	FR1	2	R1161E
1418.133	1.615	1422562	WORD	n/a	wordpools/wordpool_EN.txt	BROOM	10	12	[0, 0, 0]	n/a	FR1	2	R1161E
1419.748	0.934	1424177	WORD_OFF	n/a	n/a	BROOM	10	12	[0, 0, 0]	n/a	FR1	2	R1161E
1420.682	1.618	1425110	WORD	n/a	wordpools/wordpool_EN.txt	PIT	11	12	[0, 0, 0]	n/a	FR1	2	R1161E
1422.3	0.95	1426728	WORD_OFF	n/a	n/a	PIT	11	12	[0, 0, 0]	n/a	FR1	2	R1161E
1423.25	1.616	1427678	WORD	n/a	wordpools/wordpool_EN.txt	TENT	12	12	[0, 0, 0]	n/a	FR1	2	R1161E
1424.866	0.0	1429294	WORD_OFF	n/a	n/a	TENT	12	12	[0, 0, 0]	n/a	FR1	2	R1161E
1424.866	0.001	1429294	DISTRACT_START	n/a	n/a	n/a	-999	12	[0, 0, 0]	n/a	FR1	2	R1161E
1424.867	0.016	1429295	START	n/a	n/a	n/a	-999	12	[-999, -999, -999]	n/a	FR1	2	R1161E
1424.883	7.269	1429311	PROB	7.269	n/a	n/a	-999	12	[7, 5, 7]	19	FR1	2	R1161E
1432.152	8.5	1436580	PROB	8.5	n/a	n/a	-999	12	[9, 5, 8]	22	FR1	2	R1161E
1440.652	4.134	1445080	PROB	4.134	n/a	n/a	-999	12	[6, 1, 5]	12	FR1	2	R1161E
1444.786	4.945	1449213	PROB	4.945	n/a	n/a	-999	12	[4, 6, 7]	17	FR1	2	R1161E
1449.731	0.006	1454158	STOP	n/a	n/a	n/a	-999	12	[-999, -999, -999]	n/a	FR1	2	R1161E
1449.737	0.684	1454164	DISTRACT_END	n/a	n/a	n/a	-999	12	[0, 0, 0]	n/a	FR1	2	R1161E
1450.421	0.517	1454848	RETRIEVAL_ORIENT	n/a	n/a	n/a	-999	12	[0, 0, 0]	n/a	FR1	2	R1161E
1450.938	1.131	1455365	REC_START	n/a	n/a	n/a	-999	12	[0, 0, 0]	n/a	FR1	2	R1161E
1452.069	1.316	1456496	REC_WORD	1.316	n/a	SWAMP	-999	12	[0, 0, 0]	n/a	FR1	2	R1161E
1453.385	1.217	1457812	REC_WORD	1.217	n/a	PIT	-999	12	[0, 0, 0]	n/a	FR1	2	R1161E
1454.602	1.075	1459029	REC_WORD	1.075	n/a	GATE	-999	12	[0, 0, 0]	n/a	FR1	2	R1161E
1455.677	1.257	1460104	REC_WORD	1.257	n/a	MOUTH	-999	12	[0, 0, 0]	n/a	FR1	2	R1161E
1456.934	1.796	1461361	REC_WORD	1.796	n/a	LIP	-999	12	[0, 0, 0]	n/a	FR1	2	R1161E
1458.73	1.188	1463157	REC_WORD	1.188	n/a	DOLL	-999	12	[0, 0, 0]	n/a	FR1	2	R1161E
1459.918	2.315	1464345	REC_WORD	2.315	n/a	ELF	-999	12	[0, 0, 0]	n/a	FR1	2	R1161E
1462.233	1.771	1466660	REC_WORD	1.771	n/a	SINK	-999	12	[0, 0, 0]	n/a	FR1	2	R1161E
1464.004	1.163	1468431	REC_WORD	1.163	n/a	STOVE	-999	12	[0, 0, 0]	n/a	FR1	2	R1161E
1465.167	15.781	1469594	REC_WORD	15.781	n/a	BROOM	-999	12	[0, 0, 0]	n/a	FR1	2	R1161E
1480.948	6.43	1485374	REC_END	n/a	n/a	n/a	-999	12	[0, 0, 0]	n/a	FR1	2	R1161E
1487.378	0.5	1491804	TRIAL	n/a	n/a	n/a	-999	13	[0, 0, 0]	n/a	FR1	2	R1161E
1487.878	10.428	1492304	COUNTDOWN_START	n/a	n/a	n/a	-999	13	[0, 0, 0]	n/a	FR1	2	R1161E
1498.306	0.007	1502731	COUNTDOWN_END	n/a	n/a	n/a	-999	13	[0, 0, 0]	n/a	FR1	2	R1161E
1498.313	1.616	1502738	ORIENT	n/a	n/a	n/a	-999	13	[0, 0, 0]	n/a	FR1	2	R1161E
1499.929	2.135	1504354	ORIENT_OFF	n/a	n/a	n/a	-999	13	[0, 0, 0]	n/a	FR1	2	R1161E
1502.064	1.616	1506489	WORD	n/a	wordpools/wordpool_EN.txt	TOAST	1	13	[0, 0, 0]	n/a	FR1	2	R1161E
1503.68	0.784	1508105	WORD_OFF	n/a	n/a	TOAST	1	13	[0, 0, 0]	n/a	FR1	2	R1161E
1504.464	1.617	1508889	WORD	n/a	wordpools/wordpool_EN.txt	SUIT	2	13	[0, 0, 0]	n/a	FR1	2	R1161E
1506.081	0.766	1510506	WORD_OFF	n/a	n/a	SUIT	2	13	[0, 0, 0]	n/a	FR1	2	R1161E
1506.847	1.618	1511272	WORD	n/a	wordpools/wordpool_EN.txt	DESK	3	13	[0, 0, 0]	n/a	FR1	2	R1161E
1508.465	0.784	1512890	WORD_OFF	n/a	n/a	DESK	3	13	[0, 0, 0]	n/a	FR1	2	R1161E
1509.249	1.616	1513674	WORD	n/a	wordpools/wordpool_EN.txt	OAK	4	13	[0, 0, 0]	n/a	FR1	2	R1161E
1510.865	0.766	1515290	WORD_OFF	n/a	n/a	OAK	4	13	[0, 0, 0]	n/a	FR1	2	R1161E
1511.631	1.618	1516056	WORD	n/a	wordpools/wordpool_EN.txt	TEA	5	13	[0, 0, 0]	n/a	FR1	2	R1161E
1513.249	0.984	1517674	WORD_OFF	n/a	n/a	TEA	5	13	[0, 0, 0]	n/a	FR1	2	R1161E
1514.233	1.616	1518658	WORD	n/a	wordpools/wordpool_EN.txt	SOCK	6	13	[0, 0, 0]	n/a	FR1	2	R1161E
1515.849	0.916	1520274	WORD_OFF	n/a	n/a	SOCK	6	13	[0, 0, 0]	n/a	FR1	2	R1161E
1516.765	1.602	1521190	WORD	n/a	wordpools/wordpool_EN.txt	DIME	7	13	[0, 0, 0]	n/a	FR1	2	R1161E
1518.367	0.9	1522792	WORD_OFF	n/a	n/a	DIME	7	13	[0, 0, 0]	n/a	FR1	2	R1161E
1519.267	1.616	1523692	WORD	n/a	wordpools/wordpool_EN.txt	SCHOOL	8	13	[0, 0, 0]	n/a	FR1	2	R1161E
1520.883	0.867	1525307	WORD_OFF	n/a	n/a	SCHOOL	8	13	[0, 0, 0]	n/a	FR1	2	R1161E
1521.75	1.618	1526174	WORD	n/a	wordpools/wordpool_EN.txt	PALM	9	13	[0, 0, 0]	n/a	FR1	2	R1161E
1523.368	0.95	1527792	WORD_OFF	n/a	n/a	PALM	9	13	[0, 0, 0]	n/a	FR1	2	R1161E
1524.318	1.616	1528742	WORD	n/a	wordpools/wordpool_EN.txt	CANE	10	13	[0, 0, 0]	n/a	FR1	2	R1161E
1525.934	0.833	1530358	WORD_OFF	n/a	n/a	CANE	10	13	[0, 0, 0]	n/a	FR1	2	R1161E
1526.767	1.601	1531191	WORD	n/a	wordpools/wordpool_EN.txt	SLIME	11	13	[0, 0, 0]	n/a	FR1	2	R1161E
1528.368	0.884	1532792	WORD_OFF	n/a	n/a	SLIME	11	13	[0, 0, 0]	n/a	FR1	2	R1161E
1529.252	1.616	1533676	WORD	n/a	wordpools/wordpool_EN.txt	PEACH	12	13	[0, 0, 0]	n/a	FR1	2	R1161E
1530.868	0.0	1535292	WORD_OFF	n/a	n/a	PEACH	12	13	[0, 0, 0]	n/a	FR1	2	R1161E
1530.868	0.001	1535292	DISTRACT_START	n/a	n/a	n/a	-999	13	[0, 0, 0]	n/a	FR1	2	R1161E
1530.869	0.016	1535293	START	n/a	n/a	n/a	-999	13	[-999, -999, -999]	n/a	FR1	2	R1161E
1530.885	7.768	1535309	PROB	7.768	n/a	n/a	-999	13	[2, 3, 2]	7	FR1	2	R1161E
1538.653	5.535	1543077	PROB	5.535	n/a	n/a	-999	13	[8, 5, 9]	22	FR1	2	R1161E
1544.188	3.516	1548612	PROB	3.516	n/a	n/a	-999	13	[5, 5, 6]	16	FR1	2	R1161E
1547.704	4.635	1552127	PROB	4.635	n/a	n/a	-999	13	[5, 2, 7]	14	FR1	2	R1161E
1552.339	0.017	1556762	STOP	n/a	n/a	n/a	-999	13	[-999, -999, -999]	n/a	FR1	2	R1161E
1552.356	0.583	1556779	DISTRACT_END	n/a	n/a	n/a	-999	13	[0, 0, 0]	n/a	FR1	2	R1161E
1552.939	0.518	1557362	RETRIEVAL_ORIENT	n/a	n/a	n/a	-999	13	[0, 0, 0]	n/a	FR1	2	R1161E
1553.457	1.369	1557880	REC_START	n/a	n/a	n/a	-999	13	[0, 0, 0]	n/a	FR1	2	R1161E
1554.826	2.237	1559249	REC_WORD	2.237	n/a	SLIME	-999	13	[0, 0, 0]	n/a	FR1	2	R1161E
1557.063	1.505	1561486	REC_WORD	1.505	n/a	TOAST	-999	13	[0, 0, 0]	n/a	FR1	2	R1161E
1558.568	1.247	1562991	REC_WORD	1.247	n/a	SUIT	-999	13	[0, 0, 0]	n/a	FR1	2	R1161E
1559.815	7.309	1564238	REC_WORD	7.309	n/a	SOCK	-999	13	[0, 0, 0]	n/a	FR1	2	R1161E
1567.124	2.858	1571547	REC_WORD	2.858	n/a	TEA	-999	13	[0, 0, 0]	n/a	FR1	2	R1161E
1569.982	0.915	1574404	REC_WORD	0.915	n/a	DIME	-999	13	[0, 0, 0]	n/a	FR1	2	R1161E
1570.897	0.644	1575319	REC_WORD	0.644	n/a	PEACH	-999	13	[0, 0, 0]	n/a	FR1	2	R1161E
1571.541	1.762	1575963	REC_WORD	1.762	n/a	SCHOOL	-999	13	[0, 0, 0]	n/a	FR1	2	R1161E
1573.303	1.275	1577725	REC_WORD	1.275	n/a	OAK	-999	13	[0, 0, 0]	n/a	FR1	2	R1161E
1574.578	8.888	1579000	REC_WORD	8.888	n/a	DESK	-999	13	[0, 0, 0]	n/a	FR1	2	R1161E
1583.466	11.33	1587888	REC_END	n/a	n/a	n/a	-999	13	[0, 0, 0]	n/a	FR1	2	R1161E
1594.796	0.5	1599217	TRIAL	n/a	n/a	n/a	-999	14	[0, 0, 0]	n/a	FR1	2	R1161E
1595.296	10.428	1599717	COUNTDOWN_START	n/a	n/a	n/a	-999	14	[0, 0, 0]	n/a	FR1	2	R1161E
1605.724	0.007	1610145	COUNTDOWN_END	n/a	n/a	n/a	-999	14	[0, 0, 0]	n/a	FR1	2	R1161E
1605.731	1.601	1610152	ORIENT	n/a	n/a	n/a	-999	14	[0, 0, 0]	n/a	FR1	2	R1161E
1607.332	2.101	1611753	ORIENT_OFF	n/a	n/a	n/a	-999	14	[0, 0, 0]	n/a	FR1	2	R1161E
1609.433	1.616	1613854	WORD	n/a	wordpools/wordpool_EN.txt	CROW	1	14	[0, 0, 0]	n/a	FR1	2	R1161E
1611.049	0.783	1615470	WORD_OFF	n/a	n/a	CROW	1	14	[0, 0, 0]	n/a	FR1	2	R1161E
1611.832	1.601	1616253	WORD	n/a	wordpools/wordpool_EN.txt	PRINCE	2	14	[0, 0, 0]	n/a	FR1	2	R1161E
1613.433	0.884	1617854	WORD_OFF	n/a	n/a	PRINCE	2	14	[0, 0, 0]	n/a	FR1	2	R1161E
1614.317	1.616	1618738	WORD	n/a	wordpools/wordpool_EN.txt	HOSE	3	14	[0, 0, 0]	n/a	FR1	2	R1161E
1615.933	0.767	1620354	WORD_OFF	n/a	n/a	HOSE	3	14	[0, 0, 0]	n/a	FR1	2	R1161E
1616.7	1.618	1621121	WORD	n/a	wordpools/wordpool_EN.txt	RAKE	4	14	[0, 0, 0]	n/a	FR1	2	R1161E
1618.318	0.85	1622739	WORD_OFF	n/a	n/a	RAKE	4	14	[0, 0, 0]	n/a	FR1	2	R1161E
1619.168	1.616	1623588	WORD	n/a	wordpools/wordpool_EN.txt	BOOT	5	14	[0, 0, 0]	n/a	FR1	2	R1161E
1620.784	0.801	1625204	WORD_OFF	n/a	n/a	BOOT	5	14	[0, 0, 0]	n/a	FR1	2	R1161E
1621.585	1.617	1626005	WORD	n/a	wordpools/wordpool_EN.txt	SPRING	6	14	[0, 0, 0]	n/a	FR1	2	R1161E
1623.202	0.95	1627622	WORD_OFF	n/a	n/a	SPRING	6	14	[0, 0, 0]	n/a	FR1	2	R1161E
1624.152	1.616	1628572	WORD	n/a	wordpools/wordpool_EN.txt	SLEEVE	7	14	[0, 0, 0]	n/a	FR1	2	R1161E
1625.768	0.884	1630188	WORD_OFF	n/a	n/a	SLEEVE	7	14	[0, 0, 0]	n/a	FR1	2	R1161E
1626.652	1.617	1631072	WORD	n/a	wordpools/wordpool_EN.txt	CROWN	8	14	[0, 0, 0]	n/a	FR1	2	R1161E
1628.269	0.801	1632689	WORD_OFF	n/a	n/a	CROWN	8	14	[0, 0, 0]	n/a	FR1	2	R1161E
1629.07	1.616	1633490	WORD	n/a	wordpools/wordpool_EN.txt	SHARK	9	14	[0, 0, 0]	n/a	FR1	2	R1161E
1630.686	0.966	1635106	WORD_OFF	n/a	n/a	SHARK	9	14	[0, 0, 0]	n/a	FR1	2	R1161E
1631.652	1.618	1636072	WORD	n/a	wordpools/wordpool_EN.txt	BLOOM	10	14	[0, 0, 0]	n/a	FR1	2	R1161E
1633.27	0.851	1637690	WORD_OFF	n/a	n/a	BLOOM	10	14	[0, 0, 0]	n/a	FR1	2	R1161E
1634.121	1.615	1638541	WORD	n/a	wordpools/wordpool_EN.txt	TOOTH	11	14	[0, 0, 0]	n/a	FR1	2	R1161E
1635.736	0.818	1640156	WORD_OFF	n/a	n/a	TOOTH	11	14	[0, 0, 0]	n/a	FR1	2	R1161E
1636.554	1.617	1640974	WORD	n/a	wordpools/wordpool_EN.txt	TREE	12	14	[0, 0, 0]	n/a	FR1	2	R1161E
1638.171	0.0	1642591	WORD_OFF	n/a	n/a	TREE	12	14	[0, 0, 0]	n/a	FR1	2	R1161E
1638.171	0.001	1642591	DISTRACT_START	n/a	n/a	n/a	-999	14	[0, 0, 0]	n/a	FR1	2	R1161E
1638.172	0.016	1642592	START	n/a	n/a	n/a	-999	14	[-999, -999, -999]	n/a	FR1	2	R1161E
1638.188	6.134	1642608	PROB	6.134	n/a	n/a	-999	14	[7, 1, 1]	9	FR1	2	R1161E
1644.322	5.267	1648741	PROB	5.267	n/a	n/a	-999	14	[8, 1, 7]	16	FR1	2	R1161E
1649.589	7.101	1654008	PROB	7.101	n/a	n/a	-999	14	[7, 5, 1]	13	FR1	2	R1161E
1656.69	6.008	1661109	PROB	6.008	n/a	n/a	-999	14	[2, 7, 8]	17	FR1	2	R1161E
1662.698	0.01	1667117	STOP	n/a	n/a	n/a	-999	14	[-999, -999, -999]	n/a	FR1	2	R1161E
1662.708	0.601	1667127	DISTRACT_END	n/a	n/a	n/a	-999	14	[0, 0, 0]	n/a	FR1	2	R1161E
1663.309	0.516	1667728	RETRIEVAL_ORIENT	n/a	n/a	n/a	-999	14	[0, 0, 0]	n/a	FR1	2	R1161E
1663.825	1.837	1668244	REC_START	n/a	n/a	n/a	-999	14	[0, 0, 0]	n/a	FR1	2	R1161E
1665.662	0.829	1670081	REC_WORD	0.829	n/a	PRINCE	-999	14	[0, 0, 0]	n/a	FR1	2	R1161E
1666.491	0.61	1670910	REC_WORD	0.61	n/a	CROWN	-999	14	[0, 0, 0]	n/a	FR1	2	R1161E
1667.101	1.17	1671520	REC_WORD	1.17	n/a	SHARK	-999	14	[0, 0, 0]	n/a	FR1	2	R1161E
1668.271	5.981	1672690	REC_WORD	5.981	n/a	TOOTH	-999	14	[0, 0, 0]	n/a	FR1	2	R1161E
1674.252	4.667	1678670	REC_WORD	4.667	n/a	BLOOM	-999	14	[0, 0, 0]	n/a	FR1	2	R1161E
1678.919	1.568	1683337	REC_WORD	1.568	n/a	CROW	-999	14	[0, 0, 0]	n/a	FR1	2	R1161E
1680.487	3.923	1684905	REC_WORD	3.923	n/a	RAKE	-999	14	[0, 0, 0]	n/a	FR1	2	R1161E
1684.41	9.425	1688828	REC_WORD	9.425	n/a	HOSE	-999	14	[0, 0, 0]	n/a	FR1	2	R1161E
1693.835	6.33	1698252	REC_END	n/a	n/a	n/a	-999	14	[0, 0, 0]	n/a	FR1	2	R1161E
1700.165	0.5	1704582	TRIAL	n/a	n/a	n/a	-999	15	[0, 0, 0]	n/a	FR1	2	R1161E
1700.665	10.428	1705082	COUNTDOWN_START	n/a	n/a	n/a	-999	15	[0, 0, 0]	n/a	FR1	2	R1161E
1711.093	0.008	1715510	COUNTDOWN_END	n/a	n/a	n/a	-999	15	[0, 0, 0]	n/a	FR1	2	R1161E
1711.101	1.616	1715518	ORIENT	n/a	n/a	n/a	-999	15	[0, 0, 0]	n/a	FR1	2	R1161E
1712.717	1.834	1717134	ORIENT_OFF	n/a	n/a	n/a	-999	15	[0, 0, 0]	n/a	FR1	2	R1161E
1714.551	1.617	1718968	WORD	n/a	wordpools/wordpool_EN.txt	WAND	1	15	[0, 0, 0]	n/a	FR1	2	R1161E
1716.168	0.9	1720585	WORD_OFF	n/a	n/a	WAND	1	15	[0, 0, 0]	n/a	FR1	2	R1161E
1717.068	1.616	1721485	WORD	n/a	wordpools/wordpool_EN.txt	BEAR	2	15	[0, 0, 0]	n/a	FR1	2	R1161E
1718.684	1.001	1723100	WORD_OFF	n/a	n/a	BEAR	2	15	[0, 0, 0]	n/a	FR1	2	R1161E
1719.685	1.618	1724101	WORD	n/a	wordpools/wordpool_EN.txt	CORD	3	15	[0, 0, 0]	n/a	FR1	2	R1161E
1721.303	0.983	1725719	WORD_OFF	n/a	n/a	CORD	3	15	[0, 0, 0]	n/a	FR1	2	R1161E
1722.286	1.616	1726702	WORD	n/a	wordpools/wordpool_EN.txt	WAVE	4	15	[0, 0, 0]	n/a	FR1	2	R1161E
1723.902	1.0	1728318	WORD_OFF	n/a	n/a	WAVE	4	15	[0, 0, 0]	n/a	FR1	2	R1161E
1724.902	1.618	1729318	WORD	n/a	wordpools/wordpool_EN.txt	JAIL	5	15	[0, 0, 0]	n/a	FR1	2	R1161E
1726.52	0.8	1730936	WORD_OFF	n/a	n/a	JAIL	5	15	[0, 0, 0]	n/a	FR1	2	R1161E
1727.32	1.616	1731736	WORD	n/a	wordpools/wordpool_EN.txt	STORE	6	15	[0, 0, 0]	n/a	FR1	2	R1161E
1728.936	0.934	1733352	WORD_OFF	n/a	n/a	STORE	6	15	[0, 0, 0]	n/a	FR1	2	R1161E
1729.87	1.618	1734286	WORD	n/a	wordpools/wordpool_EN.txt	SEED	7	15	[0, 0, 0]	n/a	FR1	2	R1161E
1731.488	0.783	1735904	WORD_OFF	n/a	n/a	SEED	7	15	[0, 0, 0]	n/a	FR1	2	R1161E
1732.271	1.616	1736687	WORD	n/a	wordpools/wordpool_EN.txt	STAR	8	15	[0, 0, 0]	n/a	FR1	2	R1161E
1733.887	0.85	1738303	WORD_OFF	n/a	n/a	STAR	8	15	[0, 0, 0]	n/a	FR1	2	R1161E
1734.737	1.618	1739153	WORD	n/a	wordpools/wordpool_EN.txt	TRASH	9	15	[0, 0, 0]	n/a	FR1	2	R1161E
1736.355	0.95	1740771	WORD_OFF	n/a	n/a	TRASH	9	15	[0, 0, 0]	n/a	FR1	2	R1161E
1737.305	1.616	1741721	WORD	n/a	wordpools/wordpool_EN.txt	BOMB	10	15	[0, 0, 0]	n/a	FR1	2	R1161E
1738.921	0.85	1743337	WORD_OFF	n/a	n/a	BOMB	10	15	[0, 0, 0]	n/a	FR1	2	R1161E
1739.771	1.601	1744187	WORD	n/a	wordpools/wordpool_EN.txt	HORSE	11	15	[0, 0, 0]	n/a	FR1	2	R1161E
1741.372	0.934	1745788	WORD_OFF	n/a	n/a	HORSE	11	15	[0, 0, 0]	n/a	FR1	2	R1161E
1742.306	1.616	1746722	WORD	n/a	wordpools/wordpool_EN.txt	NET	12	15	[0, 0, 0]	n/a	FR1	2	R1161E
1743.922	0.0	1748337	WORD_OFF	n/a	n/a	NET	12	15	[0, 0, 0]	n/a	FR1	2	R1161E
1743.922	0.001	1748337	DISTRACT_START	n/a	n/a	n/a	-999	15	[0, 0, 0]	n/a	FR1	2	R1161E
1743.923	0.016	1748338	START	n/a	n/a	n/a	-999	15	[-999, -999, -999]	n/a	FR1	2	R1161E
1743.939	6.469	1748354	PROB	6.469	n/a	n/a	-999	15	[8, 2, 4]	14	FR1	2	R1161E
1750.408	4.633	1754823	PROB	4.633	n/a	n/a	-999	15	[5, 5, 7]	17	FR1	2	R1161E
1755.041	11.301	1759456	PROB	11.301	n/a	n/a	-999	15	[3, 5, 4]	12	FR1	2	R1161E
1766.342	0.018	1770757	STOP	n/a	n/a	n/a	-999	15	[-999, -999, -999]	n/a	FR1	2	R1161E
1766.36	0.65	1770775	DISTRACT_END	n/a	n/a	n/a	-999	15	[0, 0, 0]	n/a	FR1	2	R1161E
1767.01	0.518	1771425	RETRIEVAL_ORIENT	n/a	n/a	n/a	-999	15	[0, 0, 0]	n/a	FR1	2	R1161E
1767.528	1.794	1771943	REC_START	n/a	n/a	n/a	-999	15	[0, 0, 0]	n/a	FR1	2	R1161E
1769.322	2.329	1773736	REC_WORD	2.329	n/a	WAND	-999	15	[0, 0, 0]	n/a	FR1	2	R1161E
1771.651	4.133	1776065	REC_WORD	4.133	n/a	WAVE	-999	15	[0, 0, 0]	n/a	FR1	2	R1161E
1775.784	21.753	1780198	REC_WORD	21.753	n/a	STAR	-999	15	[0, 0, 0]	n/a	FR1	2	R1161E
1797.537	9.296	1801950	REC_END	n/a	n/a	n/a	-999	15	[0, 0, 0]	n/a	FR1	2	R1161E
1806.833	0.5	1811246	TRIAL	n/a	n/a	n/a	-999	16	[0, 0, 0]	n/a	FR1	2	R1161E
1807.333	10.428	1811746	COUNTDOWN_START	n/a	n/a	n/a	-999	16	[0, 0, 0]	n/a	FR1	2	R1161E
1817.761	0.008	1822174	COUNTDOWN_END	n/a	n/a	n/a	-999	16	[0, 0, 0]	n/a	FR1	2	R1161E
1817.769	1.617	1822182	ORIENT	n/a	n/a	n/a	-999	16	[0, 0, 0]	n/a	FR1	2	R1161E
1819.386	2.4	1823798	ORIENT_OFF	n/a	n/a	n/a	-999	16	[0, 0, 0]	n/a	FR1	2	R1161E
1821.786	1.618	1826198	WORD	n/a	wordpools/wordpool_EN.txt	VASE	1	16	[0, 0, 0]	n/a	FR1	2	R1161E
1823.404	0.95	1827816	WORD_OFF	n/a	n/a	VASE	1	16	[0, 0, 0]	n/a	FR1	2	R1161E
1824.354	1.616	1828766	WORD	n/a	wordpools/wordpool_EN.txt	VINE	2	16	[0, 0, 0]	n/a	FR1	2	R1161E
1825.97	0.833	1830382	WORD_OFF	n/a	n/a	VINE	2	16	[0, 0, 0]	n/a	FR1	2	R1161E
1826.803	1.618	1831215	WORD	n/a	wordpools/wordpool_EN.txt	DART	3	16	[0, 0, 0]	n/a	FR1	2	R1161E
1828.421	0.967	1832833	WORD_OFF	n/a	n/a	DART	3	16	[0, 0, 0]	n/a	FR1	2	R1161E
1829.388	1.616	1833800	WORD	n/a	wordpools/wordpool_EN.txt	ROOT	4	16	[0, 0, 0]	n/a	FR1	2	R1161E
1831.004	0.784	1835416	WORD_OFF	n/a	n/a	ROOT	4	16	[0, 0, 0]	n/a	FR1	2	R1161E
1831.788	1.618	1836200	WORD	n/a	wordpools/wordpool_EN.txt	FRUIT	5	16	[0, 0, 0]	n/a	FR1	2	R1161E
1833.406	1.016	1837818	WORD_OFF	n/a	n/a	FRUIT	5	16	[0, 0, 0]	n/a	FR1	2	R1161E
1834.422	1.616	1838834	WORD	n/a	wordpools/wordpool_EN.txt	GRAPE	6	16	[0, 0, 0]	n/a	FR1	2	R1161E
1836.038	0.95	1840450	WORD_OFF	n/a	n/a	GRAPE	6	16	[0, 0, 0]	n/a	FR1	2	R1161E
1836.988	1.617	1841400	WORD	n/a	wordpools/wordpool_EN.txt	PASTE	7	16	[0, 0, 0]	n/a	FR1	2	R1161E
1838.605	1.001	1843017	WORD_OFF	n/a	n/a	PASTE	7	16	[0, 0, 0]	n/a	FR1	2	R1161E
1839.606	1.618	1844018	WORD	n/a	wordpools/wordpool_EN.txt	BATH	8	16	[0, 0, 0]	n/a	FR1	2	R1161E
1841.224	0.85	1845636	WORD_OFF	n/a	n/a	BATH	8	16	[0, 0, 0]	n/a	FR1	2	R1161E
1842.074	1.616	1846486	WORD	n/a	wordpools/wordpool_EN.txt	HOLE	9	16	[0, 0, 0]	n/a	FR1	2	R1161E
1843.69	0.851	1848101	WORD_OFF	n/a	n/a	HOLE	9	16	[0, 0, 0]	n/a	FR1	2	R1161E
1844.541	1.617	1848952	WORD	n/a	wordpools/wordpool_EN.txt	FAN	10	16	[0, 0, 0]	n/a	FR1	2	R1161E
1846.158	0.799	1850569	WORD_OFF	n/a	n/a	FAN	10	16	[0, 0, 0]	n/a	FR1	2	R1161E
1846.957	1.618	1851368	WORD	n/a	wordpools/wordpool_EN.txt	CLOTH	11	16	[0, 0, 0]	n/a	FR1	2	R1161E
1848.575	0.783	1852986	WORD_OFF	n/a	n/a	CLOTH	11	16	[0, 0, 0]	n/a	FR1	2	R1161E
1849.358	1.616	1853769	WORD	n/a	wordpools/wordpool_EN.txt	STEAK	12	16	[0, 0, 0]	n/a	FR1	2	R1161E
1850.974	0.0	1855385	WORD_OFF	n/a	n/a	STEAK	12	16	[0, 0, 0]	n/a	FR1	2	R1161E
1850.974	0.001	1855385	DISTRACT_START	n/a	n/a	n/a	-999	16	[0, 0, 0]	n/a	FR1	2	R1161E
1850.975	0.016	1855386	START	n/a	n/a	n/a	-999	16	[-999, -999, -999]	n/a	FR1	2	R1161E
1850.991	5.402	1855402	PROB	5.402	n/a	n/a	-999	16	[9, 9, 2]	20	FR1	2	R1161E
1856.393	4.967	1860804	PROB	4.967	n/a	n/a	-999	16	[7, 5, 5]	17	FR1	2	R1161E
1861.36	10.757	1865771	PROB	10.757	n/a	n/a	-999	16	[4, 8, 3]	15	FR1	2	R1161E
1872.117	0.012	1876527	STOP	n/a	n/a	n/a	-999	16	[-999, -999, -999]	n/a	FR1	2	R1161E
1872.129	0.699	1876539	DISTRACT_END	n/a	n/a	n/a	-999	16	[0, 0, 0]	n/a	FR1	2	R1161E
1872.828	0.502	1877238	RETRIEVAL_ORIENT	n/a	n/a	n/a	-999	16	[0, 0, 0]	n/a	FR1	2	R1161E
1873.33	2.235	1877740	REC_START	n/a	n/a	n/a	-999	16	[0, 0, 0]	n/a	FR1	2	R1161E
1875.565	1.205	1879975	REC_WORD	1.205	n/a	DART	-999	16	[0, 0, 0]	n/a	FR1	2	R1161E
1876.77	4.467	1881180	REC_WORD	4.467	n/a	HOLE	-999	16	[0, 0, 0]	n/a	FR1	2	R1161E
1881.237	2.076	1885647	REC_WORD	2.076	n/a	VINE	-999	16	[0, 0, 0]	n/a	FR1	2	R1161E
1883.313	3.946	1887723	REC_WORD	3.946	n/a	GRAPE	-999	16	[0, 0, 0]	n/a	FR1	2	R1161E
1887.259	6.097	1891669	REC_WORD	6.097	n/a	VASE	-999	16	[0, 0, 0]	n/a	FR1	2	R1161E
1893.356	9.983	1897765	REC_WORD_VV	9.983	n/a	<>	-999	16	[0, 0, 0]	n/a	FR1	2	R1161E
1903.339	17.464	1907748	REC_END	n/a	n/a	n/a	-999	16	[0, 0, 0]	n/a	FR1	2	R1161E
1920.803	0.5	1925211	TRIAL	n/a	n/a	n/a	-999	17	[0, 0, 0]	n/a	FR1	2	R1161E
1921.303	10.428	1925711	COUNTDOWN_START	n/a	n/a	n/a	-999	17	[0, 0, 0]	n/a	FR1	2	R1161E
1931.731	0.007	1936139	COUNTDOWN_END	n/a	n/a	n/a	-999	17	[0, 0, 0]	n/a	FR1	2	R1161E
1931.738	1.602	1936146	ORIENT	n/a	n/a	n/a	-999	17	[0, 0, 0]	n/a	FR1	2	R1161E
1933.34	1.967	1937748	ORIENT_OFF	n/a	n/a	n/a	-999	17	[0, 0, 0]	n/a	FR1	2	R1161E
1935.307	1.616	1939715	WORD	n/a	wordpools/wordpool_EN.txt	GEESE	1	17	[0, 0, 0]	n/a	FR1	2	R1161E
1936.923	0.9	1941331	WORD_OFF	n/a	n/a	GEESE	1	17	[0, 0, 0]	n/a	FR1	2	R1161E
1937.823	1.618	1942231	WORD	n/a	wordpools/wordpool_EN.txt	SOAP	2	17	[0, 0, 0]	n/a	FR1	2	R1161E
1939.441	0.85	1943849	WORD_OFF	n/a	n/a	SOAP	2	17	[0, 0, 0]	n/a	FR1	2	R1161E
1940.291	1.616	1944699	WORD	n/a	wordpools/wordpool_EN.txt	MILK	3	17	[0, 0, 0]	n/a	FR1	2	R1161E
1941.907	0.967	1946315	WORD_OFF	n/a	n/a	MILK	3	17	[0, 0, 0]	n/a	FR1	2	R1161E
1942.874	1.618	1947281	WORD	n/a	wordpools/wordpool_EN.txt	SNAKE	4	17	[0, 0, 0]	n/a	FR1	2	R1161E
1944.492	0.867	1948899	WORD_OFF	n/a	n/a	SNAKE	4	17	[0, 0, 0]	n/a	FR1	2	R1161E
1945.359	1.616	1949766	WORD	n/a	wordpools/wordpool_EN.txt	BOY	5	17	[0, 0, 0]	n/a	FR1	2	R1161E
1946.975	0.816	1951382	WORD_OFF	n/a	n/a	BOY	5	17	[0, 0, 0]	n/a	FR1	2	R1161E
1947.791	1.601	1952198	WORD	n/a	wordpools/wordpool_EN.txt	BIRD	6	17	[0, 0, 0]	n/a	FR1	2	R1161E
1949.392	0.984	1953799	WORD_OFF	n/a	n/a	BIRD	6	17	[0, 0, 0]	n/a	FR1	2	R1161E
1950.376	1.616	1954783	WORD	n/a	wordpools/wordpool_EN.txt	WOLF	7	17	[0, 0, 0]	n/a	FR1	2	R1161E
1951.992	0.917	1956399	WORD_OFF	n/a	n/a	WOLF	7	17	[0, 0, 0]	n/a	FR1	2	R1161E
1952.909	1.601	1957316	WORD	n/a	wordpools/wordpool_EN.txt	CHIEF	8	17	[0, 0, 0]	n/a	FR1	2	R1161E
1954.51	0.784	1958917	WORD_OFF	n/a	n/a	CHIEF	8	17	[0, 0, 0]	n/a	FR1	2	R1161E
1955.294	1.616	1959701	WORD	n/a	wordpools/wordpool_EN.txt	WEED	9	17	[0, 0, 0]	n/a	FR1	2	R1161E
1956.91	0.833	1961317	WORD_OFF	n/a	n/a	WEED	9	17	[0, 0, 0]	n/a	FR1	2	R1161E
1957.743	1.618	1962150	WORD	n/a	wordpools/wordpool_EN.txt	TOAD	10	17	[0, 0, 0]	n/a	FR1	2	R1161E
1959.361	0.85	1963768	WORD_OFF	n/a	n/a	TOAD	10	17	[0, 0, 0]	n/a	FR1	2	R1161E
1960.211	1.616	1964618	WORD	n/a	wordpools/wordpool_EN.txt	BEE	11	17	[0, 0, 0]	n/a	FR1	2	R1161E
1961.827	1.0	1966234	WORD_OFF	n/a	n/a	BEE	11	17	[0, 0, 0]	n/a	FR1	2	R1161E
1962.827	1.618	1967234	WORD	n/a	wordpools/wordpool_EN.txt	MOUSE	12	17	[0, 0, 0]	n/a	FR1	2	R1161E
1964.445	0.0	1968852	WORD_OFF	n/a	n/a	MOUSE	12	17	[0, 0, 0]	n/a	FR1	2	R1161E
1964.445	0.001	1968852	DISTRACT_START	n/a	n/a	n/a	-999	17	[0, 0, 0]	n/a	FR1	2	R1161E
1964.446	0.016	1968853	START	n/a	n/a	n/a	-999	17	[-999, -999, -999]	n/a	FR1	2	R1161E
1964.462	7.601	1968869	PROB	7.601	n/a	n/a	-999	17	[1, 8, 1]	10	FR1	2	R1161E
1972.063	8.617	1976469	PROB	8.617	n/a	n/a	-999	17	[4, 9, 7]	20	FR1	2	R1161E
1980.68	6.506	1985086	PROB	6.506	n/a	n/a	-999	17	[7, 6, 7]	20	FR1	2	R1161E
1987.186	0.013	1991592	STOP	n/a	n/a	n/a	-999	17	[-999, -999, -999]	n/a	FR1	2	R1161E
1987.199	0.633	1991605	DISTRACT_END	n/a	n/a	n/a	-999	17	[0, 0, 0]	n/a	FR1	2	R1161E
1987.832	0.518	1992238	RETRIEVAL_ORIENT	n/a	n/a	n/a	-999	17	[0, 0, 0]	n/a	FR1	2	R1161E
1988.35	5.001	1992756	REC_START	n/a	n/a	n/a	-999	17	[0, 0, 0]	n/a	FR1	2	R1161E
1993.351	1.293	1997756	REC_WORD	1.293	n/a	GOOSE	-999	17	[0, 0, 0]	n/a	FR1	2	R1161E
1994.644	0.282	1999049	REC_WORD_VV	0.282	n/a	<>	-999	17	[0, 0, 0]	n/a	FR1	2	R1161E
1994.926	0.761	1999331	REC_WORD	0.761	n/a	GEESE	-999	17	[0, 0, 0]	n/a	FR1	2	R1161E
1995.687	1.463	2000092	REC_WORD	1.463	n/a	BIRD	-999	17	[0, 0, 0]	n/a	FR1	2	R1161E
1997.15	1.755	2001555	REC_WORD	1.755	n/a	WOLF	-999	17	[0, 0, 0]	n/a	FR1	2	R1161E
1998.905	0.751	2003310	REC_WORD	0.751	n/a	MOUSE	-999	17	[0, 0, 0]	n/a	FR1	2	R1161E
1999.656	1.178	2004061	REC_WORD	1.178	n/a	SNAKE	-999	17	[0, 0, 0]	n/a	FR1	2	R1161E
2000.834	2.988	2005239	REC_WORD	2.988	n/a	TOAD	-999	17	[0, 0, 0]	n/a	FR1	2	R1161E
2003.822	4.925	2008227	REC_WORD	4.925	n/a	CHIEF	-999	17	[0, 0, 0]	n/a	FR1	2	R1161E
2008.747	9.614	2013152	REC_WORD_VV	9.614	n/a	<>	-999	17	[0, 0, 0]	n/a	FR1	2	R1161E
2018.361	29.849	2022765	REC_END	n/a	n/a	n/a	-999	17	[0, 0, 0]	n/a	FR1	2	R1161E
2048.21	0.5	2052613	TRIAL	n/a	n/a	n/a	-999	18	[0, 0, 0]	n/a	FR1	2	R1161E
2048.71	10.428	2053113	COUNTDOWN_START	n/a	n/a	n/a	-999	18	[0, 0, 0]	n/a	FR1	2	R1161E
2059.138	0.007	2063541	COUNTDOWN_END	n/a	n/a	n/a	-999	18	[0, 0, 0]	n/a	FR1	2	R1161E
2059.145	1.616	2063548	ORIENT	n/a	n/a	n/a	-999	18	[0, 0, 0]	n/a	FR1	2	R1161E
2060.761	2.084	2065164	ORIENT_OFF	n/a	n/a	n/a	-999	18	[0, 0, 0]	n/a	FR1	2	R1161E
2062.845	1.618	2067248	WORD	n/a	wordpools/wordpool_EN.txt	SEA	1	18	[0, 0, 0]	n/a	FR1	2	R1161E
2064.463	0.817	2068866	WORD_OFF	n/a	n/a	SEA	1	18	[0, 0, 0]	n/a	FR1	2	R1161E
2065.28	1.616	2069683	WORD	n/a	wordpools/wordpool_EN.txt	TRAIN	2	18	[0, 0, 0]	n/a	FR1	2	R1161E
2066.896	0.766	2071298	WORD_OFF	n/a	n/a	TRAIN	2	18	[0, 0, 0]	n/a	FR1	2	R1161E
2067.662	1.618	2072064	WORD	n/a	wordpools/wordpool_EN.txt	SALT	3	18	[0, 0, 0]	n/a	FR1	2	R1161E
2069.28	0.884	2073682	WORD_OFF	n/a	n/a	SALT	3	18	[0, 0, 0]	n/a	FR1	2	R1161E
2070.164	1.616	2074566	WORD	n/a	wordpools/wordpool_EN.txt	EGG	4	18	[0, 0, 0]	n/a	FR1	2	R1161E
2071.78	0.85	2076182	WORD_OFF	n/a	n/a	EGG	4	18	[0, 0, 0]	n/a	FR1	2	R1161E
2072.63	1.618	2077032	WORD	n/a	wordpools/wordpool_EN.txt	HOOF	5	18	[0, 0, 0]	n/a	FR1	2	R1161E
2074.248	0.95	2078650	WORD_OFF	n/a	n/a	HOOF	5	18	[0, 0, 0]	n/a	FR1	2	R1161E
2075.198	1.616	2079600	WORD	n/a	wordpools/wordpool_EN.txt	HEART	6	18	[0, 0, 0]	n/a	FR1	2	R1161E
2076.814	0.934	2081216	WORD_OFF	n/a	n/a	HEART	6	18	[0, 0, 0]	n/a	FR1	2	R1161E
2077.748	1.617	2082150	WORD	n/a	wordpools/wordpool_EN.txt	BED	7	18	[0, 0, 0]	n/a	FR1	2	R1161E
2079.365	0.801	2083767	WORD_OFF	n/a	n/a	BED	7	18	[0, 0, 0]	n/a	FR1	2	R1161E
2080.166	1.616	2084568	WORD	n/a	wordpools/wordpool_EN.txt	SHIP	8	18	[0, 0, 0]	n/a	FR1	2	R1161E
2081.782	0.983	2086184	WORD_OFF	n/a	n/a	SHIP	8	18	[0, 0, 0]	n/a	FR1	2	R1161E
2082.765	1.601	2087167	WORD	n/a	wordpools/wordpool_EN.txt	SHELL	9	18	[0, 0, 0]	n/a	FR1	2	R1161E
2084.366	0.85	2088768	WORD_OFF	n/a	n/a	SHELL	9	18	[0, 0, 0]	n/a	FR1	2	R1161E
2085.216	1.616	2089618	WORD	n/a	wordpools/wordpool_EN.txt	PEARL	10	18	[0, 0, 0]	n/a	FR1	2	R1161E
2086.832	0.784	2091234	WORD_OFF	n/a	n/a	PEARL	10	18	[0, 0, 0]	n/a	FR1	2	R1161E
2087.616	1.601	2092018	WORD	n/a	wordpools/wordpool_EN.txt	BEACH	11	18	[0, 0, 0]	n/a	FR1	2	R1161E
2089.217	0.9	2093619	WORD_OFF	n/a	n/a	BEACH	11	18	[0, 0, 0]	n/a	FR1	2	R1161E
2090.117	1.616	2094519	WORD	n/a	wordpools/wordpool_EN.txt	MAIL	12	18	[0, 0, 0]	n/a	FR1	2	R1161E
2091.733	0.0	2096134	WORD_OFF	n/a	n/a	MAIL	12	18	[0, 0, 0]	n/a	FR1	2	R1161E
2091.733	0.001	2096134	DISTRACT_START	n/a	n/a	n/a	-999	18	[0, 0, 0]	n/a	FR1	2	R1161E
2091.734	0.016	2096135	START	n/a	n/a	n/a	-999	18	[-999, -999, -999]	n/a	FR1	2	R1161E
2091.75	5.635	2096151	PROB	5.635	n/a	n/a	-999	18	[1, 9, 6]	16	FR1	2	R1161E
2097.385	4.217	2101786	PROB	4.217	n/a	n/a	-999	18	[3, 9, 1]	13	FR1	2	R1161E
2101.602	8.101	2106003	PROB	8.101	n/a	n/a	-999	18	[7, 4, 9]	20	FR1	2	R1161E
2109.703	3.773	2114104	PROB	3.773	n/a	n/a	-999	18	[8, 5, 5]	18	FR1	2	R1161E
2113.476	0.012	2117877	STOP	n/a	n/a	n/a	-999	18	[-999, -999, -999]	n/a	FR1	2	R1161E
2113.488	0.584	2117889	DISTRACT_END	n/a	n/a	n/a	-999	18	[0, 0, 0]	n/a	FR1	2	R1161E
2114.072	0.516	2118473	RETRIEVAL_ORIENT	n/a	n/a	n/a	-999	18	[0, 0, 0]	n/a	FR1	2	R1161E
2114.588	1.308	2118989	REC_START	n/a	n/a	n/a	-999	18	[0, 0, 0]	n/a	FR1	2	R1161E
2115.896	0.907	2120297	REC_WORD	0.907	n/a	SEA	-999	18	[0, 0, 0]	n/a	FR1	2	R1161E
2116.803	3.153	2121203	REC_WORD	3.153	n/a	SALT	-999	18	[0, 0, 0]	n/a	FR1	2	R1161E
2119.956	1.05	2124356	REC_WORD	1.05	n/a	TRAIN	-999	18	[0, 0, 0]	n/a	FR1	2	R1161E
2121.006	1.645	2125406	REC_WORD	1.645	n/a	HOOF	-999	18	[0, 0, 0]	n/a	FR1	2	R1161E
2122.651	8.021	2127051	REC_WORD	8.021	n/a	EGG	-999	18	[0, 0, 0]	n/a	FR1	2	R1161E
2130.672	2.563	2135072	REC_WORD	2.563	n/a	PEARL	-999	18	[0, 0, 0]	n/a	FR1	2	R1161E
2133.235	1.581	2137635	REC_WORD	1.581	n/a	SHELL	-999	18	[0, 0, 0]	n/a	FR1	2	R1161E
2134.816	9.782	2139216	REC_WORD	9.782	n/a	BEACH	-999	18	[0, 0, 0]	n/a	FR1	2	R1161E
2144.598	6.362	2148997	REC_END	n/a	n/a	n/a	-999	18	[0, 0, 0]	n/a	FR1	2	R1161E
2150.96	0.5	2155359	TRIAL	n/a	n/a	n/a	-999	19	[0, 0, 0]	n/a	FR1	2	R1161E
2151.46	10.428	2155859	COUNTDOWN_START	n/a	n/a	n/a	-999	19	[0, 0, 0]	n/a	FR1	2	R1161E
2161.888	0.008	2166287	COUNTDOWN_END	n/a	n/a	n/a	-999	19	[0, 0, 0]	n/a	FR1	2	R1161E
2161.896	1.618	2166295	ORIENT	n/a	n/a	n/a	-999	19	[0, 0, 0]	n/a	FR1	2	R1161E
2163.514	2.033	2167913	ORIENT_OFF	n/a	n/a	n/a	-999	19	[0, 0, 0]	n/a	FR1	2	R1161E
2165.547	1.617	2169946	WORD	n/a	wordpools/wordpool_EN.txt	SKI	1	19	[0, 0, 0]	n/a	FR1	2	R1161E
2167.164	0.833	2171562	WORD_OFF	n/a	n/a	SKI	1	19	[0, 0, 0]	n/a	FR1	2	R1161E
2167.997	1.617	2172395	WORD	n/a	wordpools/wordpool_EN.txt	CAVE	2	19	[0, 0, 0]	n/a	FR1	2	R1161E
2169.614	0.951	2174012	WORD_OFF	n/a	n/a	CAVE	2	19	[0, 0, 0]	n/a	FR1	2	R1161E
2170.565	1.617	2174963	WORD	n/a	wordpools/wordpool_EN.txt	SEAL	3	19	[0, 0, 0]	n/a	FR1	2	R1161E
2172.182	0.933	2176580	WORD_OFF	n/a	n/a	SEAL	3	19	[0, 0, 0]	n/a	FR1	2	R1161E
2173.115	1.616	2177513	WORD	n/a	wordpools/wordpool_EN.txt	LAND	4	19	[0, 0, 0]	n/a	FR1	2	R1161E
2174.731	0.768	2179129	WORD_OFF	n/a	n/a	LAND	4	19	[0, 0, 0]	n/a	FR1	2	R1161E
2175.499	1.617	2179897	WORD	n/a	wordpools/wordpool_EN.txt	SHIELD	5	19	[0, 0, 0]	n/a	FR1	2	R1161E
2177.116	0.967	2181514	WORD_OFF	n/a	n/a	SHIELD	5	19	[0, 0, 0]	n/a	FR1	2	R1161E
2178.083	1.616	2182481	WORD	n/a	wordpools/wordpool_EN.txt	JEEP	6	19	[0, 0, 0]	n/a	FR1	2	R1161E
2179.699	0.9	2184097	WORD_OFF	n/a	n/a	JEEP	6	19	[0, 0, 0]	n/a	FR1	2	R1161E
2180.599	1.618	2184997	WORD	n/a	wordpools/wordpool_EN.txt	SPEAR	7	19	[0, 0, 0]	n/a	FR1	2	R1161E
2182.217	0.983	2186615	WORD_OFF	n/a	n/a	SPEAR	7	19	[0, 0, 0]	n/a	FR1	2	R1161E
2183.2	1.616	2187598	WORD	n/a	wordpools/wordpool_EN.txt	FORT	8	19	[0, 0, 0]	n/a	FR1	2	R1161E
2184.816	0.984	2189214	WORD_OFF	n/a	n/a	FORT	8	19	[0, 0, 0]	n/a	FR1	2	R1161E
2185.8	1.601	2190198	WORD	n/a	wordpools/wordpool_EN.txt	CLAY	9	19	[0, 0, 0]	n/a	FR1	2	R1161E
2187.401	0.767	2191799	WORD_OFF	n/a	n/a	CLAY	9	19	[0, 0, 0]	n/a	FR1	2	R1161E
2188.168	1.616	2192566	WORD	n/a	wordpools/wordpool_EN.txt	CORN	10	19	[0, 0, 0]	n/a	FR1	2	R1161E
2189.784	0.768	2194182	WORD_OFF	n/a	n/a	CORN	10	19	[0, 0, 0]	n/a	FR1	2	R1161E
2190.552	1.617	2194950	WORD	n/a	wordpools/wordpool_EN.txt	WHALE	11	19	[0, 0, 0]	n/a	FR1	2	R1161E
2192.169	0.782	2196566	WORD_OFF	n/a	n/a	WHALE	11	19	[0, 0, 0]	n/a	FR1	2	R1161E
2192.951	1.618	2197348	WORD	n/a	wordpools/wordpool_EN.txt	GOLD	12	19	[0, 0, 0]	n/a	FR1	2	R1161E
2194.569	0.0	2198966	WORD_OFF	n/a	n/a	GOLD	12	19	[0, 0, 0]	n/a	FR1	2	R1161E
2194.569	0.001	2198966	DISTRACT_START	n/a	n/a	n/a	-999	19	[0, 0, 0]	n/a	FR1	2	R1161E
2194.57	0.016	2198967	START	n/a	n/a	n/a	-999	19	[-999, -999, -999]	n/a	FR1	2	R1161E
2194.586	8.417	2198983	PROB	8.417	n/a	n/a	-999	19	[5, 1, 3]	9	FR1	2	R1161E
2203.003	7.835	2207400	PROB	7.835	n/a	n/a	-999	19	[5, 1, 2]	8	FR1	2	R1161E
2210.838	6.7	2215235	PROB	6.7	n/a	n/a	-999	19	[8, 4, 9]	21	FR1	2	R1161E
2217.538	0.018	2221934	STOP	n/a	n/a	n/a	-999	19	[-999, -999, -999]	n/a	FR1	2	R1161E
2217.556	0.517	2221952	DISTRACT_END	n/a	n/a	n/a	-999	19	[0, 0, 0]	n/a	FR1	2	R1161E
2218.073	0.517	2222469	RETRIEVAL_ORIENT	n/a	n/a	n/a	-999	19	[0, 0, 0]	n/a	FR1	2	R1161E
2218.59	3.199	2222986	REC_START	n/a	n/a	n/a	-999	19	[0, 0, 0]	n/a	FR1	2	R1161E
2221.789	1.169	2226185	REC_WORD	1.169	n/a	SKI	-999	19	[0, 0, 0]	n/a	FR1	2	R1161E
2222.958	1.358	2227354	REC_WORD	1.358	n/a	CAVE	-999	19	[0, 0, 0]	n/a	FR1	2	R1161E
2224.316	2.2	2228712	REC_WORD	2.2	n/a	LAND	-999	19	[0, 0, 0]	n/a	FR1	2	R1161E
2226.516	5.817	2230912	REC_WORD	5.817	n/a	CLAY	-999	19	[0, 0, 0]	n/a	FR1	2	R1161E
2232.333	0.998	2236729	REC_WORD_VV	0.998	n/a	<>	-999	19	[0, 0, 0]	n/a	FR1	2	R1161E
2233.331	15.269	2237727	REC_WORD_VV	15.269	n/a	<>	-999	19	[0, 0, 0]	n/a	FR1	2	R1161E
2248.6	24.533	2252995	REC_END	n/a	n/a	n/a	-999	19	[0, 0, 0]	n/a	FR1	2	R1161E
2273.133	0.5	2277527	TRIAL	n/a	n/a	n/a	-999	20	[0, 0, 0]	n/a	FR1	2	R1161E
2273.633	10.428	2278027	COUNTDOWN_START	n/a	n/a	n/a	-999	20	[0, 0, 0]	n/a	FR1	2	R1161E
2284.061	0.007	2288455	COUNTDOWN_END	n/a	n/a	n/a	-999	20	[0, 0, 0]	n/a	FR1	2	R1161E
2284.068	1.616	2288462	ORIENT	n/a	n/a	n/a	-999	20	[0, 0, 0]	n/a	FR1	2	R1161E
2285.684	1.902	2290078	ORIENT_OFF	n/a	n/a	n/a	-999	20	[0, 0, 0]	n/a	FR1	2	R1161E
2287.586	1.616	2291980	WORD	n/a	wordpools/wordpool_EN.txt	FLAME	1	20	[0, 0, 0]	n/a	FR1	2	R1161E
2289.202	0.917	2293596	WORD_OFF	n/a	n/a	FLAME	1	20	[0, 0, 0]	n/a	FR1	2	R1161E
2290.119	1.616	2294513	WORD	n/a	wordpools/wordpool_EN.txt	NOSE	2	20	[0, 0, 0]	n/a	FR1	2	R1161E
2291.735	0.967	2296128	WORD_OFF	n/a	n/a	NOSE	2	20	[0, 0, 0]	n/a	FR1	2	R1161E
2292.702	1.601	2297095	WORD	n/a	wordpools/wordpool_EN.txt	HAT	3	20	[0, 0, 0]	n/a	FR1	2	R1161E
2294.303	0.9	2298696	WORD_OFF	n/a	n/a	HAT	3	20	[0, 0, 0]	n/a	FR1	2	R1161E
2295.203	1.617	2299596	WORD	n/a	wordpools/wordpool_EN.txt	HORN	4	20	[0, 0, 0]	n/a	FR1	2	R1161E
2296.82	0.933	2301213	WORD_OFF	n/a	n/a	HORN	4	20	[0, 0, 0]	n/a	FR1	2	R1161E
2297.753	1.618	2302146	WORD	n/a	wordpools/wordpool_EN.txt	HILL	5	20	[0, 0, 0]	n/a	FR1	2	R1161E
2299.371	0.817	2303764	WORD_OFF	n/a	n/a	HILL	5	20	[0, 0, 0]	n/a	FR1	2	R1161E
2300.188	1.616	2304581	WORD	n/a	wordpools/wordpool_EN.txt	ROAD	6	20	[0, 0, 0]	n/a	FR1	2	R1161E
2301.804	0.85	2306197	WORD_OFF	n/a	n/a	ROAD	6	20	[0, 0, 0]	n/a	FR1	2	R1161E
2302.654	1.618	2307047	WORD	n/a	wordpools/wordpool_EN.txt	SWORD	7	20	[0, 0, 0]	n/a	FR1	2	R1161E
2304.272	0.95	2308665	WORD_OFF	n/a	n/a	SWORD	7	20	[0, 0, 0]	n/a	FR1	2	R1161E
2305.222	1.616	2309615	WORD	n/a	wordpools/wordpool_EN.txt	MAZE	8	20	[0, 0, 0]	n/a	FR1	2	R1161E
2306.838	0.917	2311231	WORD_OFF	n/a	n/a	MAZE	8	20	[0, 0, 0]	n/a	FR1	2	R1161E
2307.755	1.618	2312148	WORD	n/a	wordpools/wordpool_EN.txt	GUARD	9	20	[0, 0, 0]	n/a	FR1	2	R1161E
2309.373	0.783	2313766	WORD_OFF	n/a	n/a	GUARD	9	20	[0, 0, 0]	n/a	FR1	2	R1161E
2310.156	1.616	2314549	WORD	n/a	wordpools/wordpool_EN.txt	RIB	10	20	[0, 0, 0]	n/a	FR1	2	R1161E
2311.772	0.95	2316165	WORD_OFF	n/a	n/a	RIB	10	20	[0, 0, 0]	n/a	FR1	2	R1161E
2312.722	1.601	2317115	WORD	n/a	wordpools/wordpool_EN.txt	VEST	11	20	[0, 0, 0]	n/a	FR1	2	R1161E
2314.323	0.867	2318716	WORD_OFF	n/a	n/a	VEST	11	20	[0, 0, 0]	n/a	FR1	2	R1161E
2315.19	1.616	2319583	WORD	n/a	wordpools/wordpool_EN.txt	FENCE	12	20	[0, 0, 0]	n/a	FR1	2	R1161E
2316.806	0.0	2321198	WORD_OFF	n/a	n/a	FENCE	12	20	[0, 0, 0]	n/a	FR1	2	R1161E
2316.806	0.001	2321198	DISTRACT_START	n/a	n/a	n/a	-999	20	[0, 0, 0]	n/a	FR1	2	R1161E
2316.807	0.016	2321199	START	n/a	n/a	n/a	-999	20	[-999, -999, -999]	n/a	FR1	2	R1161E
2316.823	20.725	2321215	PROB	20.725	n/a	n/a	-999	20	[8, 4, 9]	21	FR1	2	R1161E
2337.548	0.013	2341940	STOP	n/a	n/a	n/a	-999	20	[-999, -999, -999]	n/a	FR1	2	R1161E
2337.561	0.567	2341953	DISTRACT_END	n/a	n/a	n/a	-999	20	[0, 0, 0]	n/a	FR1	2	R1161E
2338.128	0.516	2342520	RETRIEVAL_ORIENT	n/a	n/a	n/a	-999	20	[0, 0, 0]	n/a	FR1	2	R1161E
2338.644	3.801	2343036	REC_START	n/a	n/a	n/a	-999	20	[0, 0, 0]	n/a	FR1	2	R1161E
2342.445	1.229	2346836	REC_WORD	1.229	n/a	FLAME	-999	20	[0, 0, 0]	n/a	FR1	2	R1161E
2343.674	5.636	2348065	REC_WORD	5.636	n/a	NOSE	-999	20	[0, 0, 0]	n/a	FR1	2	R1161E
2349.31	1.012	2353701	REC_WORD_VV	1.012	n/a	<>	-999	20	[0, 0, 0]	n/a	FR1	2	R1161E
2350.322	2.619	2354713	REC_WORD	2.619	n/a	VEST	-999	20	[0, 0, 0]	n/a	FR1	2	R1161E
2352.941	2.431	2357332	REC_WORD	2.431	n/a	SWORD	-999	20	[0, 0, 0]	n/a	FR1	2	R1161E
2355.372	6.653	2359763	REC_WORD_VV	6.653	n/a	<>	-999	20	[0, 0, 0]	n/a	FR1	2	R1161E
2362.025	6.63	2366416	REC_WORD	6.63	n/a	RIB	-999	20	[0, 0, 0]	n/a	FR1	2	R1161E
2368.655	6.746	2373045	REC_END	n/a	n/a	n/a	-999	20	[0, 0, 0]	n/a	FR1	2	R1161E
2375.401	0.5	2379791	TRIAL	n/a	n/a	n/a	-999	21	[0, 0, 0]	n/a	FR1	2	R1161E
2375.901	10.428	2380291	COUNTDOWN_START	n/a	n/a	n/a	-999	21	[0, 0, 0]	n/a	FR1	2	R1161E
2386.329	0.007	2390719	COUNTDOWN_END	n/a	n/a	n/a	-999	21	[0, 0, 0]	n/a	FR1	2	R1161E
2386.336	1.616	2390726	ORIENT	n/a	n/a	n/a	-999	21	[0, 0, 0]	n/a	FR1	2	R1161E
2387.952	1.917	2392342	ORIENT_OFF	n/a	n/a	n/a	-999	21	[0, 0, 0]	n/a	FR1	2	R1161E
2389.869	1.601	2394259	WORD	n/a	wordpools/wordpool_EN.txt	YARD	1	21	[0, 0, 0]	n/a	FR1	2	R1161E
2391.47	0.967	2395859	WORD_OFF	n/a	n/a	YARD	1	21	[0, 0, 0]	n/a	FR1	2	R1161E
2392.437	1.617	2396826	WORD	n/a	wordpools/wordpool_EN.txt	CLOCK	2	21	[0, 0, 0]	n/a	FR1	2	R1161E
2394.054	0.949	2398443	WORD_OFF	n/a	n/a	CLOCK	2	21	[0, 0, 0]	n/a	FR1	2	R1161E
2395.003	1.617	2399392	WORD	n/a	wordpools/wordpool_EN.txt	VAN	3	21	[0, 0, 0]	n/a	FR1	2	R1161E
2396.62	1.0	2401009	WORD_OFF	n/a	n/a	VAN	3	21	[0, 0, 0]	n/a	FR1	2	R1161E
2397.62	1.618	2402009	WORD	n/a	wordpools/wordpool_EN.txt	FLUTE	4	21	[0, 0, 0]	n/a	FR1	2	R1161E
2399.238	0.8	2403627	WORD_OFF	n/a	n/a	FLUTE	4	21	[0, 0, 0]	n/a	FR1	2	R1161E
2400.038	1.617	2404427	WORD	n/a	wordpools/wordpool_EN.txt	CLOWN	5	21	[0, 0, 0]	n/a	FR1	2	R1161E
2401.655	0.817	2406044	WORD_OFF	n/a	n/a	CLOWN	5	21	[0, 0, 0]	n/a	FR1	2	R1161E
2402.472	1.617	2406861	WORD	n/a	wordpools/wordpool_EN.txt	BAND	6	21	[0, 0, 0]	n/a	FR1	2	R1161E
2404.089	1.0	2408478	WORD_OFF	n/a	n/a	BAND	6	21	[0, 0, 0]	n/a	FR1	2	R1161E
2405.089	1.616	2409478	WORD	n/a	wordpools/wordpool_EN.txt	BUSH	7	21	[0, 0, 0]	n/a	FR1	2	R1161E
2406.705	0.802	2411094	WORD_OFF	n/a	n/a	BUSH	7	21	[0, 0, 0]	n/a	FR1	2	R1161E
2407.507	1.617	2411896	WORD	n/a	wordpools/wordpool_EN.txt	STREET	8	21	[0, 0, 0]	n/a	FR1	2	R1161E
2409.124	0.865	2413513	WORD_OFF	n/a	n/a	STREET	8	21	[0, 0, 0]	n/a	FR1	2	R1161E
2409.989	1.617	2414378	WORD	n/a	wordpools/wordpool_EN.txt	LAMP	9	21	[0, 0, 0]	n/a	FR1	2	R1161E
2411.606	0.984	2415995	WORD_OFF	n/a	n/a	LAMP	9	21	[0, 0, 0]	n/a	FR1	2	R1161E
2412.59	1.618	2416979	WORD	n/a	wordpools/wordpool_EN.txt	BADGE	10	21	[0, 0, 0]	n/a	FR1	2	R1161E
2414.208	0.867	2418597	WORD_OFF	n/a	n/a	BADGE	10	21	[0, 0, 0]	n/a	FR1	2	R1161E
2415.075	1.616	2419464	WORD	n/a	wordpools/wordpool_EN.txt	ROOM	11	21	[0, 0, 0]	n/a	FR1	2	R1161E
2416.691	0.767	2421079	WORD_OFF	n/a	n/a	ROOM	11	21	[0, 0, 0]	n/a	FR1	2	R1161E
2417.458	1.617	2421846	WORD	n/a	wordpools/wordpool_EN.txt	WHEEL	12	21	[0, 0, 0]	n/a	FR1	2	R1161E
2419.075	0.0	2423463	WORD_OFF	n/a	n/a	WHEEL	12	21	[0, 0, 0]	n/a	FR1	2	R1161E
2419.075	0.001	2423463	DISTRACT_START	n/a	n/a	n/a	-999	21	[0, 0, 0]	n/a	FR1	2	R1161E
2419.076	0.016	2423464	START	n/a	n/a	n/a	-999	21	[-999, -999, -999]	n/a	FR1	2	R1161E
2419.092	10.402	2423480	PROB	10.402	n/a	n/a	-999	21	[1, 8, 3]	12	FR1	2	R1161E
2429.494	4.333	2433882	PROB	4.333	n/a	n/a	-999	21	[9, 1, 8]	18	FR1	2	R1161E
2433.827	6.643	2438215	PROB	6.643	n/a	n/a	-999	21	[1, 8, 5]	14	FR1	2	R1161E
2440.47	0.009	2444857	STOP	n/a	n/a	n/a	-999	21	[-999, -999, -999]	n/a	FR1	2	R1161E
2440.479	0.533	2444866	DISTRACT_END	n/a	n/a	n/a	-999	21	[0, 0, 0]	n/a	FR1	2	R1161E
2441.012	0.518	2445399	RETRIEVAL_ORIENT	n/a	n/a	n/a	-999	21	[0, 0, 0]	n/a	FR1	2	R1161E
2441.53	3.607	2445917	REC_START	n/a	n/a	n/a	-999	21	[0, 0, 0]	n/a	FR1	2	R1161E
2445.137	1.088	2449524	REC_WORD	1.088	n/a	YARD	-999	21	[0, 0, 0]	n/a	FR1	2	R1161E
2446.225	3.4	2450612	REC_WORD	3.4	n/a	VAN	-999	21	[0, 0, 0]	n/a	FR1	2	R1161E
2449.625	4.478	2454012	REC_WORD	4.478	n/a	WHEEL	-999	21	[0, 0, 0]	n/a	FR1	2	R1161E
2454.103	2.275	2458490	REC_WORD	2.275	n/a	LAMP	-999	21	[0, 0, 0]	n/a	FR1	2	R1161E
2456.378	1.203	2460765	REC_WORD	1.203	n/a	CLOWN	-999	21	[0, 0, 0]	n/a	FR1	2	R1161E
2457.581	3.287	2461968	REC_WORD	3.287	n/a	CLOCK	-999	21	[0, 0, 0]	n/a	FR1	2	R1161E
2460.868	8.506	2465255	REC_WORD	8.506	n/a	BADGE	-999	21	[0, 0, 0]	n/a	FR1	2	R1161E
2469.374	2.165	2473760	REC_WORD	2.165	n/a	FLUTE	-999	21	[0, 0, 0]	n/a	FR1	2	R1161E
2471.539	5.813	2475925	REC_END	n/a	n/a	n/a	-999	21	[0, 0, 0]	n/a	FR1	2	R1161E
2477.352	0.5	2481738	TRIAL	n/a	n/a	n/a	-999	22	[0, 0, 0]	n/a	FR1	2	R1161E
2477.852	10.428	2482238	COUNTDOWN_START	n/a	n/a	n/a	-999	22	[0, 0, 0]	n/a	FR1	2	R1161E
2488.28	0.007	2492666	COUNTDOWN_END	n/a	n/a	n/a	-999	22	[0, 0, 0]	n/a	FR1	2	R1161E
2488.287	1.616	2492673	ORIENT	n/a	n/a	n/a	-999	22	[0, 0, 0]	n/a	FR1	2	R1161E
2489.903	2.067	2494288	ORIENT_OFF	n/a	n/a	n/a	-999	22	[0, 0, 0]	n/a	FR1	2	R1161E
2491.97	1.617	2496355	WORD	n/a	wordpools/wordpool_EN.txt	STONE	1	22	[0, 0, 0]	n/a	FR1	2	R1161E
2493.587	0.852	2497972	WORD_OFF	n/a	n/a	STONE	1	22	[0, 0, 0]	n/a	FR1	2	R1161E
2494.439	1.616	2498824	WORD	n/a	wordpools/wordpool_EN.txt	TOE	2	22	[0, 0, 0]	n/a	FR1	2	R1161E
2496.055	0.85	2500440	WORD_OFF	n/a	n/a	TOE	2	22	[0, 0, 0]	n/a	FR1	2	R1161E
2496.905	1.618	2501290	WORD	n/a	wordpools/wordpool_EN.txt	COW	3	22	[0, 0, 0]	n/a	FR1	2	R1161E
2498.523	0.866	2502908	WORD_OFF	n/a	n/a	COW	3	22	[0, 0, 0]	n/a	FR1	2	R1161E
2499.389	1.616	2503774	WORD	n/a	wordpools/wordpool_EN.txt	NEST	4	22	[0, 0, 0]	n/a	FR1	2	R1161E
2501.005	1.017	2505390	WORD_OFF	n/a	n/a	NEST	4	22	[0, 0, 0]	n/a	FR1	2	R1161E
2502.022	1.617	2506407	WORD	n/a	wordpools/wordpool_EN.txt	CLIFF	5	22	[0, 0, 0]	n/a	FR1	2	R1161E
2503.639	0.868	2508024	WORD_OFF	n/a	n/a	CLIFF	5	22	[0, 0, 0]	n/a	FR1	2	R1161E
2504.507	1.617	2508892	WORD	n/a	wordpools/wordpool_EN.txt	WORLD	6	22	[0, 0, 0]	n/a	FR1	2	R1161E
2506.124	0.899	2510509	WORD_OFF	n/a	n/a	WORLD	6	22	[0, 0, 0]	n/a	FR1	2	R1161E
2507.023	1.617	2511408	WORD	n/a	wordpools/wordpool_EN.txt	FOX	7	22	[0, 0, 0]	n/a	FR1	2	R1161E
2508.64	0.901	2513025	WORD_OFF	n/a	n/a	FOX	7	22	[0, 0, 0]	n/a	FR1	2	R1161E
2509.541	1.617	2513926	WORD	n/a	wordpools/wordpool_EN.txt	FACE	8	22	[0, 0, 0]	n/a	FR1	2	R1161E
2511.158	0.783	2515543	WORD_OFF	n/a	n/a	FACE	8	22	[0, 0, 0]	n/a	FR1	2	R1161E
2511.941	1.618	2516326	WORD	n/a	wordpools/wordpool_EN.txt	MOLE	9	22	[0, 0, 0]	n/a	FR1	2	R1161E
2513.559	0.783	2517944	WORD_OFF	n/a	n/a	MOLE	9	22	[0, 0, 0]	n/a	FR1	2	R1161E
2514.342	1.616	2518727	WORD	n/a	wordpools/wordpool_EN.txt	ANT	10	22	[0, 0, 0]	n/a	FR1	2	R1161E
2515.958	0.95	2520342	WORD_OFF	n/a	n/a	ANT	10	22	[0, 0, 0]	n/a	FR1	2	R1161E
2516.908	1.618	2521292	WORD	n/a	wordpools/wordpool_EN.txt	SNAIL	11	22	[0, 0, 0]	n/a	FR1	2	R1161E
2518.526	0.917	2522910	WORD_OFF	n/a	n/a	SNAIL	11	22	[0, 0, 0]	n/a	FR1	2	R1161E
2519.443	1.617	2523827	WORD	n/a	wordpools/wordpool_EN.txt	MOTH	12	22	[0, 0, 0]	n/a	FR1	2	R1161E
2521.06	0.0	2525444	WORD_OFF	n/a	n/a	MOTH	12	22	[0, 0, 0]	n/a	FR1	2	R1161E
2521.06	0.0	2525444	DISTRACT_START	n/a	n/a	n/a	-999	22	[0, 0, 0]	n/a	FR1	2	R1161E
2521.06	0.017	2525444	START	n/a	n/a	n/a	-999	22	[-999, -999, -999]	n/a	FR1	2	R1161E
2521.077	10.235	2525461	PROB	10.235	n/a	n/a	-999	22	[8, 3, 3]	14	FR1	2	R1161E
2531.312	5.901	2535696	PROB	5.901	n/a	n/a	-999	22	[8, 1, 1]	10	FR1	2	R1161E
2537.213	5.074	2541597	PROB	5.074	n/a	n/a	-999	22	[7, 7, 4]	18	FR1	2	R1161E
2542.287	0.01	2546670	STOP	n/a	n/a	n/a	-999	22	[-999, -999, -999]	n/a	FR1	2	R1161E
2542.297	0.632	2546680	DISTRACT_END	n/a	n/a	n/a	-999	22	[0, 0, 0]	n/a	FR1	2	R1161E
2542.929	0.519	2547312	RETRIEVAL_ORIENT	n/a	n/a	n/a	-999	22	[0, 0, 0]	n/a	FR1	2	R1161E
2543.448	5.271	2547831	REC_START	n/a	n/a	n/a	-999	22	[0, 0, 0]	n/a	FR1	2	R1161E
2548.719	0.869	2553102	REC_WORD	0.869	n/a	MOTH	-999	22	[0, 0, 0]	n/a	FR1	2	R1161E
2549.588	4.061	2553971	REC_WORD	4.061	n/a	SNAIL	-999	22	[0, 0, 0]	n/a	FR1	2	R1161E
2553.649	0.541	2558032	REC_WORD	0.541	n/a	MOTH	-999	22	[0, 0, 0]	n/a	FR1	2	R1161E
2554.19	4.847	2558573	REC_WORD	4.847	n/a	SNAIL	-999	22	[0, 0, 0]	n/a	FR1	2	R1161E
2559.037	1.028	2563420	REC_WORD	1.028	n/a	MOLE	-999	22	[0, 0, 0]	n/a	FR1	2	R1161E
2560.065	2.142	2564448	REC_WORD	2.142	n/a	ANT	-999	22	[0, 0, 0]	n/a	FR1	2	R1161E
2562.207	6.747	2566590	REC_WORD_VV	6.747	n/a	<>	-999	22	[0, 0, 0]	n/a	FR1	2	R1161E
2568.954	1.031	2573336	REC_WORD	1.031	n/a	CLIFF	-999	22	[0, 0, 0]	n/a	FR1	2	R1161E
2569.985	1.663	2574367	REC_WORD	1.663	n/a	NEST	-999	22	[0, 0, 0]	n/a	FR1	2	R1161E
2571.648	1.81	2576030	REC_WORD	1.81	n/a	COW	-999	22	[0, 0, 0]	n/a	FR1	2	R1161E
2573.458	60.638	2577840	REC_END	n/a	n/a	n/a	-999	22	[0, 0, 0]	n/a	FR1	2	R1161E
2634.096	0.5	2638476	TRIAL	n/a	n/a	n/a	-999	23	[0, 0, 0]	n/a	FR1	2	R1161E
2634.596	10.428	2638976	COUNTDOWN_START	n/a	n/a	n/a	-999	23	[0, 0, 0]	n/a	FR1	2	R1161E
2645.024	0.007	2649403	COUNTDOWN_END	n/a	n/a	n/a	-999	23	[0, 0, 0]	n/a	FR1	2	R1161E
2645.031	1.617	2649410	ORIENT	n/a	n/a	n/a	-999	23	[0, 0, 0]	n/a	FR1	2	R1161E
2646.648	2.267	2651027	ORIENT_OFF	n/a	n/a	n/a	-999	23	[0, 0, 0]	n/a	FR1	2	R1161E
2648.915	1.618	2653294	WORD	n/a	wordpools/wordpool_EN.txt	MUD	1	23	[0, 0, 0]	n/a	FR1	2	R1161E
2650.533	0.766	2654912	WORD_OFF	n/a	n/a	MUD	1	23	[0, 0, 0]	n/a	FR1	2	R1161E
2651.299	1.616	2655678	WORD	n/a	wordpools/wordpool_EN.txt	FLOOR	2	23	[0, 0, 0]	n/a	FR1	2	R1161E
2652.915	1.017	2657294	WORD_OFF	n/a	n/a	FLOOR	2	23	[0, 0, 0]	n/a	FR1	2	R1161E
2653.932	1.601	2658311	WORD	n/a	wordpools/wordpool_EN.txt	BRICK	3	23	[0, 0, 0]	n/a	FR1	2	R1161E
2655.533	0.967	2659912	WORD_OFF	n/a	n/a	BRICK	3	23	[0, 0, 0]	n/a	FR1	2	R1161E
2656.5	1.617	2660879	WORD	n/a	wordpools/wordpool_EN.txt	BLUSH	4	23	[0, 0, 0]	n/a	FR1	2	R1161E
2658.117	0.8	2662496	WORD_OFF	n/a	n/a	BLUSH	4	23	[0, 0, 0]	n/a	FR1	2	R1161E
2658.917	1.618	2663296	WORD	n/a	wordpools/wordpool_EN.txt	HOUSE	5	23	[0, 0, 0]	n/a	FR1	2	R1161E
2660.535	1.016	2664914	WORD_OFF	n/a	n/a	HOUSE	5	23	[0, 0, 0]	n/a	FR1	2	R1161E
2661.551	1.617	2665930	WORD	n/a	wordpools/wordpool_EN.txt	BAG	6	23	[0, 0, 0]	n/a	FR1	2	R1161E
2663.168	0.9	2667547	WORD_OFF	n/a	n/a	BAG	6	23	[0, 0, 0]	n/a	FR1	2	R1161E
2664.068	1.616	2668446	WORD	n/a	wordpools/wordpool_EN.txt	STRAW	7	23	[0, 0, 0]	n/a	FR1	2	R1161E
2665.684	0.802	2670062	WORD_OFF	n/a	n/a	STRAW	7	23	[0, 0, 0]	n/a	FR1	2	R1161E
2666.486	1.617	2670864	WORD	n/a	wordpools/wordpool_EN.txt	TRUCK	8	23	[0, 0, 0]	n/a	FR1	2	R1161E
2668.103	0.832	2672481	WORD_OFF	n/a	n/a	TRUCK	8	23	[0, 0, 0]	n/a	FR1	2	R1161E
2668.935	1.618	2673313	WORD	n/a	wordpools/wordpool_EN.txt	ROPE	9	23	[0, 0, 0]	n/a	FR1	2	R1161E
2670.553	0.817	2674931	WORD_OFF	n/a	n/a	ROPE	9	23	[0, 0, 0]	n/a	FR1	2	R1161E
2671.37	1.616	2675748	WORD	n/a	wordpools/wordpool_EN.txt	HAND	10	23	[0, 0, 0]	n/a	FR1	2	R1161E
2672.986	0.883	2677364	WORD_OFF	n/a	n/a	HAND	10	23	[0, 0, 0]	n/a	FR1	2	R1161E
2673.869	1.601	2678247	WORD	n/a	wordpools/wordpool_EN.txt	CART	11	23	[0, 0, 0]	n/a	FR1	2	R1161E
2675.47	1.001	2679848	WORD_OFF	n/a	n/a	CART	11	23	[0, 0, 0]	n/a	FR1	2	R1161E
2676.471	1.617	2680849	WORD	n/a	wordpools/wordpool_EN.txt	STAIR	12	23	[0, 0, 0]	n/a	FR1	2	R1161E
2678.088	0.0	2682466	WORD_OFF	n/a	n/a	STAIR	12	23	[0, 0, 0]	n/a	FR1	2	R1161E
2678.088	0.0	2682466	DISTRACT_START	n/a	n/a	n/a	-999	23	[0, 0, 0]	n/a	FR1	2	R1161E
2678.088	0.016	2682466	START	n/a	n/a	n/a	-999	23	[-999, -999, -999]	n/a	FR1	2	R1161E
2678.104	6.817	2682482	PROB	6.817	n/a	n/a	-999	23	[3, 3, 4]	10	FR1	2	R1161E
2684.921	4.701	2689299	PROB	4.701	n/a	n/a	-999	23	[2, 1, 3]	6	FR1	2	R1161E
2689.622	9.669	2693999	PROB	9.669	n/a	n/a	-999	23	[7, 2, 7]	16	FR1	2	R1161E
2699.291	0.017	2703668	STOP	n/a	n/a	n/a	-999	23	[-999, -999, -999]	n/a	FR1	2	R1161E
2699.308	0.616	2703685	DISTRACT_END	n/a	n/a	n/a	-999	23	[0, 0, 0]	n/a	FR1	2	R1161E
2699.924	0.518	2704301	RETRIEVAL_ORIENT	n/a	n/a	n/a	-999	23	[0, 0, 0]	n/a	FR1	2	R1161E
2700.442	2.038	2704819	REC_START	n/a	n/a	n/a	-999	23	[0, 0, 0]	n/a	FR1	2	R1161E
2702.48	1.236	2706857	REC_WORD	1.236	n/a	STAIR	-999	23	[0, 0, 0]	n/a	FR1	2	R1161E
2703.716	0.996	2708093	REC_WORD	0.996	n/a	MUD	-999	23	[0, 0, 0]	n/a	FR1	2	R1161E
2704.712	3.347	2709089	REC_WORD	3.347	n/a	FLOOR	-999	23	[0, 0, 0]	n/a	FR1	2	R1161E
2708.059	0.816	2712436	REC_WORD	0.816	n/a	BRICK	-999	23	[0, 0, 0]	n/a	FR1	2	R1161E
2708.875	1.068	2713252	REC_WORD	1.068	n/a	HOUSE	-999	23	[0, 0, 0]	n/a	FR1	2	R1161E
2709.943	5.579	2714320	REC_WORD	5.579	n/a	BLUSH	-999	23	[0, 0, 0]	n/a	FR1	2	R1161E
2715.522	3.08	2719898	REC_WORD	3.08	n/a	CART	-999	23	[0, 0, 0]	n/a	FR1	2	R1161E
2718.602	4.445	2722978	REC_WORD	4.445	n/a	TRUCK	-999	23	[0, 0, 0]	n/a	FR1	2	R1161E
2723.047	5.09	2727423	REC_WORD	5.09	n/a	ROPE	-999	23	[0, 0, 0]	n/a	FR1	2	R1161E
2728.137	2.316	2732513	REC_WORD	2.316	n/a	HAND	-999	23	[0, 0, 0]	n/a	FR1	2	R1161E
2730.453	6.244	2734829	REC_END	n/a	n/a	n/a	-999	23	[0, 0, 0]	n/a	FR1	2	R1161E
2736.697	0.5	2741073	TRIAL	n/a	n/a	n/a	-999	24	[0, 0, 0]	n/a	FR1	2	R1161E
2737.197	10.428	2741573	COUNTDOWN_START	n/a	n/a	n/a	-999	24	[0, 0, 0]	n/a	FR1	2	R1161E
2747.625	0.007	2752000	COUNTDOWN_END	n/a	n/a	n/a	-999	24	[0, 0, 0]	n/a	FR1	2	R1161E
2747.632	1.618	2752007	ORIENT	n/a	n/a	n/a	-999	24	[0, 0, 0]	n/a	FR1	2	R1161E
2749.25	1.967	2753625	ORIENT_OFF	n/a	n/a	n/a	-999	24	[0, 0, 0]	n/a	FR1	2	R1161E
2751.217	1.616	2755592	WORD	n/a	wordpools/wordpool_EN.txt	CAR	1	24	[0, 0, 0]	n/a	FR1	2	R1161E
2752.833	0.833	2757208	WORD_OFF	n/a	n/a	CAR	1	24	[0, 0, 0]	n/a	FR1	2	R1161E
2753.666	1.618	2758041	WORD	n/a	wordpools/wordpool_EN.txt	CASH	2	24	[0, 0, 0]	n/a	FR1	2	R1161E
2755.284	0.851	2759659	WORD_OFF	n/a	n/a	CASH	2	24	[0, 0, 0]	n/a	FR1	2	R1161E
2756.135	1.616	2760510	WORD	n/a	wordpools/wordpool_EN.txt	FILM	3	24	[0, 0, 0]	n/a	FR1	2	R1161E
2757.751	0.866	2762126	WORD_OFF	n/a	n/a	FILM	3	24	[0, 0, 0]	n/a	FR1	2	R1161E
2758.617	1.618	2762992	WORD	n/a	wordpools/wordpool_EN.txt	BANK	4	24	[0, 0, 0]	n/a	FR1	2	R1161E
2760.235	1.017	2764610	WORD_OFF	n/a	n/a	BANK	4	24	[0, 0, 0]	n/a	FR1	2	R1161E
2761.252	1.616	2765627	WORD	n/a	wordpools/wordpool_EN.txt	FLAG	5	24	[0, 0, 0]	n/a	FR1	2	R1161E
2762.868	0.884	2767243	WORD_OFF	n/a	n/a	FLAG	5	24	[0, 0, 0]	n/a	FR1	2	R1161E
2763.752	1.618	2768126	WORD	n/a	wordpools/wordpool_EN.txt	DRUM	6	24	[0, 0, 0]	n/a	FR1	2	R1161E
2765.37	0.933	2769744	WORD_OFF	n/a	n/a	DRUM	6	24	[0, 0, 0]	n/a	FR1	2	R1161E
2766.303	1.616	2770677	WORD	n/a	wordpools/wordpool_EN.txt	EEL	7	24	[0, 0, 0]	n/a	FR1	2	R1161E
2767.919	0.917	2772293	WORD_OFF	n/a	n/a	EEL	7	24	[0, 0, 0]	n/a	FR1	2	R1161E
2768.836	1.618	2773210	WORD	n/a	wordpools/wordpool_EN.txt	FARM	8	24	[0, 0, 0]	n/a	FR1	2	R1161E
2770.454	0.983	2774828	WORD_OFF	n/a	n/a	FARM	8	24	[0, 0, 0]	n/a	FR1	2	R1161E
2771.437	1.617	2775811	WORD	n/a	wordpools/wordpool_EN.txt	SHEET	9	24	[0, 0, 0]	n/a	FR1	2	R1161E
2773.054	0.833	2777428	WORD_OFF	n/a	n/a	SHEET	9	24	[0, 0, 0]	n/a	FR1	2	R1161E
2773.887	1.618	2778261	WORD	n/a	wordpools/wordpool_EN.txt	BRANCH	10	24	[0, 0, 0]	n/a	FR1	2	R1161E
2775.505	0.833	2779879	WORD_OFF	n/a	n/a	BRANCH	10	24	[0, 0, 0]	n/a	FR1	2	R1161E
2776.338	1.616	2780712	WORD	n/a	wordpools/wordpool_EN.txt	JUDGE	11	24	[0, 0, 0]	n/a	FR1	2	R1161E
2777.954	0.834	2782328	WORD_OFF	n/a	n/a	JUDGE	11	24	[0, 0, 0]	n/a	FR1	2	R1161E
2778.788	1.618	2783162	WORD	n/a	wordpools/wordpool_EN.txt	INK	12	24	[0, 0, 0]	n/a	FR1	2	R1161E
2780.406	0.0	2784780	WORD_OFF	n/a	n/a	INK	12	24	[0, 0, 0]	n/a	FR1	2	R1161E
2780.406	0.0	2784780	DISTRACT_START	n/a	n/a	n/a	-999	24	[0, 0, 0]	n/a	FR1	2	R1161E
2780.406	0.016	2784780	START	n/a	n/a	n/a	-999	24	[-999, -999, -999]	n/a	FR1	2	R1161E
2780.422	7.101	2784796	PROB	7.101	n/a	n/a	-999	24	[7, 8, 2]	17	FR1	2	R1161E
2787.523	9.101	2791897	PROB	9.101	n/a	n/a	-999	24	[5, 4, 8]	17	FR1	2	R1161E
2796.624	4.54	2800997	PROB	4.54	n/a	n/a	-999	24	[6, 1, 1]	8	FR1	2	R1161E
2801.164	0.012	2805537	STOP	n/a	n/a	n/a	-999	24	[-999, -999, -999]	n/a	FR1	2	R1161E
2801.176	0.566	2805549	DISTRACT_END	n/a	n/a	n/a	-999	24	[0, 0, 0]	n/a	FR1	2	R1161E
2801.742	0.518	2806115	RETRIEVAL_ORIENT	n/a	n/a	n/a	-999	24	[0, 0, 0]	n/a	FR1	2	R1161E
2802.26	1.477	2806633	REC_START	n/a	n/a	n/a	-999	24	[0, 0, 0]	n/a	FR1	2	R1161E
2803.737	0.806	2808110	REC_WORD	0.806	n/a	EEL	-999	24	[0, 0, 0]	n/a	FR1	2	R1161E
2804.543	1.696	2808916	REC_WORD	1.696	n/a	FARM	-999	24	[0, 0, 0]	n/a	FR1	2	R1161E
2806.239	8.681	2810612	REC_WORD	8.681	n/a	INK	-999	24	[0, 0, 0]	n/a	FR1	2	R1161E
2814.92	12.52	2819292	REC_WORD_VV	12.52	n/a	<>	-999	24	[0, 0, 0]	n/a	FR1	2	R1161E
2827.44	4.83	2831812	REC_WORD_VV	4.83	n/a	<>	-999	24	[0, 0, 0]	n/a	FR1	2	R1161E
2832.27	6.813	2836642	REC_END	n/a	n/a	n/a	-999	24	[0, 0, 0]	n/a	FR1	2	R1161E
2839.083	0.5	2843454	TRIAL	n/a	n/a	n/a	-999	25	[0, 0, 0]	n/a	FR1	2	R1161E
2839.583	10.428	2843954	COUNTDOWN_START	n/a	n/a	n/a	-999	25	[0, 0, 0]	n/a	FR1	2	R1161E
2850.011	0.006	2854382	COUNTDOWN_END	n/a	n/a	n/a	-999	25	[0, 0, 0]	n/a	FR1	2	R1161E
2850.017	1.617	2854388	ORIENT	n/a	n/a	n/a	-999	25	[0, 0, 0]	n/a	FR1	2	R1161E
2851.634	2.117	2856005	ORIENT_OFF	n/a	n/a	n/a	-999	25	[0, 0, 0]	n/a	FR1	2	R1161E
2853.751	1.618	2858122	WORD	n/a	wordpools/wordpool_EN.txt	LAMB	1	25	[0, 0, 0]	n/a	FR1	2	R1161E
2855.369	0.883	2859740	WORD_OFF	n/a	n/a	LAMB	1	25	[0, 0, 0]	n/a	FR1	2	R1161E
2856.252	1.616	2860623	WORD	n/a	wordpools/wordpool_EN.txt	CHAIR	2	25	[0, 0, 0]	n/a	FR1	2	R1161E
2857.868	0.85	2862239	WORD_OFF	n/a	n/a	CHAIR	2	25	[0, 0, 0]	n/a	FR1	2	R1161E
2858.718	1.601	2863089	WORD	n/a	wordpools/wordpool_EN.txt	CHEEK	3	25	[0, 0, 0]	n/a	FR1	2	R1161E
2860.319	0.934	2864690	WORD_OFF	n/a	n/a	CHEEK	3	25	[0, 0, 0]	n/a	FR1	2	R1161E
2861.253	1.616	2865624	WORD	n/a	wordpools/wordpool_EN.txt	PIE	4	25	[0, 0, 0]	n/a	FR1	2	R1161E
2862.869	0.834	2867240	WORD_OFF	n/a	n/a	PIE	4	25	[0, 0, 0]	n/a	FR1	2	R1161E
2863.703	1.617	2868073	WORD	n/a	wordpools/wordpool_EN.txt	BARN	5	25	[0, 0, 0]	n/a	FR1	2	R1161E
2865.32	0.801	2869690	WORD_OFF	n/a	n/a	BARN	5	25	[0, 0, 0]	n/a	FR1	2	R1161E
2866.121	1.616	2870491	WORD	n/a	wordpools/wordpool_EN.txt	GRASS	6	25	[0, 0, 0]	n/a	FR1	2	R1161E
2867.737	0.85	2872107	WORD_OFF	n/a	n/a	GRASS	6	25	[0, 0, 0]	n/a	FR1	2	R1161E
2868.587	1.618	2872957	WORD	n/a	wordpools/wordpool_EN.txt	CAGE	7	25	[0, 0, 0]	n/a	FR1	2	R1161E
2870.205	0.95	2874575	WORD_OFF	n/a	n/a	CAGE	7	25	[0, 0, 0]	n/a	FR1	2	R1161E
2871.155	1.616	2875525	WORD	n/a	wordpools/wordpool_EN.txt	CAKE	8	25	[0, 0, 0]	n/a	FR1	2	R1161E
2872.771	0.933	2877141	WORD_OFF	n/a	n/a	CAKE	8	25	[0, 0, 0]	n/a	FR1	2	R1161E
2873.704	1.601	2878074	WORD	n/a	wordpools/wordpool_EN.txt	DRESS	9	25	[0, 0, 0]	n/a	FR1	2	R1161E
2875.305	0.834	2879675	WORD_OFF	n/a	n/a	DRESS	9	25	[0, 0, 0]	n/a	FR1	2	R1161E
2876.139	1.616	2880509	WORD	n/a	wordpools/wordpool_EN.txt	SKUNK	10	25	[0, 0, 0]	n/a	FR1	2	R1161E
2877.755	0.917	2882125	WORD_OFF	n/a	n/a	SKUNK	10	25	[0, 0, 0]	n/a	FR1	2	R1161E
2878.672	1.618	2883042	WORD	n/a	wordpools/wordpool_EN.txt	ARK	11	25	[0, 0, 0]	n/a	FR1	2	R1161E
2880.29	0.9	2884660	WORD_OFF	n/a	n/a	ARK	11	25	[0, 0, 0]	n/a	FR1	2	R1161E
2881.19	1.616	2885560	WORD	n/a	wordpools/wordpool_EN.txt	BOWL	12	25	[0, 0, 0]	n/a	FR1	2	R1161E
2882.806	0.0	2887176	DISTRACT_START	n/a	n/a	n/a	-999	25	[0, 0, 0]	n/a	FR1	2	R1161E
2882.806	0.001	2887176	WORD_OFF	n/a	n/a	BOWL	12	25	[0, 0, 0]	n/a	FR1	2	R1161E
2882.807	0.016	2887177	START	n/a	n/a	n/a	-999	25	[-999, -999, -999]	n/a	FR1	2	R1161E
2882.823	7.868	2887193	PROB	7.868	n/a	n/a	-999	25	[8, 2, 6]	16	FR1	2	R1161E
2890.691	5.635	2895060	PROB	5.635	n/a	n/a	-999	25	[1, 3, 9]	13	FR1	2	R1161E
2896.326	3.683	2900695	PROB	3.683	n/a	n/a	-999	25	[7, 4, 3]	14	FR1	2	R1161E
2900.009	5.875	2904378	PROB	5.875	n/a	n/a	-999	25	[6, 3, 4]	13	FR1	2	R1161E
2905.884	0.009	2910253	STOP	n/a	n/a	n/a	-999	25	[-999, -999, -999]	n/a	FR1	2	R1161E
2905.893	0.568	2910262	DISTRACT_END	n/a	n/a	n/a	-999	25	[0, 0, 0]	n/a	FR1	2	R1161E
2906.461	0.516	2910830	RETRIEVAL_ORIENT	n/a	n/a	n/a	-999	25	[0, 0, 0]	n/a	FR1	2	R1161E
2906.977	1.902	2911346	REC_START	n/a	n/a	n/a	-999	25	[0, 0, 0]	n/a	FR1	2	R1161E
2908.879	0.899	2913248	REC_WORD	0.899	n/a	ARK	-999	25	[0, 0, 0]	n/a	FR1	2	R1161E
2909.778	0.695	2914147	REC_WORD	0.695	n/a	BOWL	-999	25	[0, 0, 0]	n/a	FR1	2	R1161E
2910.473	3.509	2914842	REC_WORD	3.509	n/a	SKUNK	-999	25	[0, 0, 0]	n/a	FR1	2	R1161E
