onset	duration	sample	trial_type	response_time	stim_file	item_name	serialpos	list	test	answer	experiment	session	subject
0.0	19.318	2230	SESS_START	n/a	n/a	n/a	-999	-999	[0, 0, 0]	n/a	FR1	0	R1123C
19.318	10.428	11888	COUNTDOWN_START	n/a	n/a	n/a	-999	-999	[0, 0, 0]	n/a	FR1	0	R1123C
29.746	3.591	17102	COUNTDOWN_END	n/a	n/a	n/a	-999	-999	[0, 0, 0]	n/a	FR1	0	R1123C
33.337	2.435	18897	PRACTICE_WORD	n/a	n/a	COTTON	1	-1	[0, 0, 0]	n/a	FR1	0	R1123C
35.772	2.399	20114	PRACTICE_WORD	n/a	n/a	BEAM	2	-1	[0, 0, 0]	n/a	FR1	0	R1123C
38.171	2.485	21314	PRACTICE_WORD	n/a	n/a	RHINO	3	-1	[0, 0, 0]	n/a	FR1	0	R1123C
40.656	2.433	22556	PRACTICE_WORD	n/a	n/a	RING	4	-1	[0, 0, 0]	n/a	FR1	0	R1123C
43.089	2.434	23773	PRACTICE_WORD	n/a	n/a	CHEST	5	-1	[0, 0, 0]	n/a	FR1	0	R1123C
45.523	2.534	24989	PRACTICE_WORD	n/a	n/a	WATCH	6	-1	[0, 0, 0]	n/a	FR1	0	R1123C
48.057	2.534	26256	PRACTICE_WORD	n/a	n/a	ATTIC	7	-1	[0, 0, 0]	n/a	FR1	0	R1123C
50.591	2.533	27523	PRACTICE_WORD	n/a	n/a	IRON	8	-1	[0, 0, 0]	n/a	FR1	0	R1123C
53.124	2.568	28790	PRACTICE_WORD	n/a	n/a	CAMEL	9	-1	[0, 0, 0]	n/a	FR1	0	R1123C
55.692	2.483	30074	PRACTICE_WORD	n/a	n/a	TONGUE	10	-1	[0, 0, 0]	n/a	FR1	0	R1123C
58.175	2.485	31315	PRACTICE_WORD	n/a	n/a	FLOOD	11	-1	[0, 0, 0]	n/a	FR1	0	R1123C
60.66	1.616	32557	PRACTICE_WORD	n/a	n/a	WAGON	12	-1	[0, 0, 0]	n/a	FR1	0	R1123C
62.276	0.0	33365	PRACTICE_DISTRACT_START	n/a	n/a	n/a	-999	-1	[0, 0, 0]	n/a	FR1	0	R1123C
62.276	0.017	33365	START	n/a	n/a	n/a	-999	-1	[-999, -999, -999]	n/a	FR1	0	R1123C
62.293	12.602	33374	PROB	12.602	n/a	n/a	-999	-1	[6, 7, 4]	18	FR1	0	R1123C
74.895	3.585	39674	PROB	3.585	n/a	n/a	-999	-1	[1, 4, 2]	7	FR1	0	R1123C
78.48	4.825	41467	PROB	4.825	n/a	n/a	-999	-1	[1, 5, 9]	15	FR1	0	R1123C
83.305	0.008	43879	STOP	n/a	n/a	n/a	-999	-1	[-999, -999, -999]	n/a	FR1	0	R1123C
83.313	0.686	43883	PRACTICE_DISTRACT_END	n/a	n/a	n/a	-999	-1	[0, 0, 0]	n/a	FR1	0	R1123C
83.999	30.515	44226	PRACTICE_REC_START	n/a	n/a	n/a	-999	-1	[0, 0, 0]	n/a	FR1	0	R1123C
114.514	31.862	59482	PRACTICE_REC_END	n/a	n/a	n/a	-999	-1	[0, 0, 0]	n/a	FR1	0	R1123C
146.376	0.0	75412	TRIAL	n/a	n/a	n/a	-999	1	[0, 0, 0]	n/a	FR1	0	R1123C
146.376	10.428	75412	COUNTDOWN_START	n/a	n/a	n/a	-999	1	[0, 0, 0]	n/a	FR1	0	R1123C
156.804	0.007	80625	COUNTDOWN_END	n/a	n/a	n/a	-999	1	[0, 0, 0]	n/a	FR1	0	R1123C
156.811	2.433	80629	ORIENT	n/a	n/a	n/a	-999	1	[0, 0, 0]	n/a	FR1	0	R1123C
159.244	2.402	81845	WORD	n/a	wordpools/wordpool_EN.txt	FARM	1	1	[0, 0, 0]	n/a	FR1	0	R1123C
161.646	2.516	83046	WORD	n/a	wordpools/wordpool_EN.txt	NET	2	1	[0, 0, 0]	n/a	FR1	0	R1123C
164.162	2.534	84304	WORD	n/a	wordpools/wordpool_EN.txt	WAVE	3	1	[0, 0, 0]	n/a	FR1	0	R1123C
166.696	2.483	85571	WORD	n/a	wordpools/wordpool_EN.txt	CLOWN	4	1	[0, 0, 0]	n/a	FR1	0	R1123C
169.179	2.585	86812	WORD	n/a	wordpools/wordpool_EN.txt	MAP	5	1	[0, 0, 0]	n/a	FR1	0	R1123C
171.764	2.466	88105	WORD	n/a	wordpools/wordpool_EN.txt	POLE	6	1	[0, 0, 0]	n/a	FR1	0	R1123C
174.23	2.468	89338	WORD	n/a	wordpools/wordpool_EN.txt	STAR	7	1	[0, 0, 0]	n/a	FR1	0	R1123C
176.698	2.45	90572	WORD	n/a	wordpools/wordpool_EN.txt	SHRIMP	8	1	[0, 0, 0]	n/a	FR1	0	R1123C
179.148	2.401	91796	WORD	n/a	wordpools/wordpool_EN.txt	MOON	9	1	[0, 0, 0]	n/a	FR1	0	R1123C
181.549	2.433	92997	WORD	n/a	wordpools/wordpool_EN.txt	TRASH	10	1	[0, 0, 0]	n/a	FR1	0	R1123C
183.982	2.552	94213	WORD	n/a	wordpools/wordpool_EN.txt	WHALE	11	1	[0, 0, 0]	n/a	FR1	0	R1123C
186.534	1.615	95489	WORD	n/a	wordpools/wordpool_EN.txt	CASH	12	1	[0, 0, 0]	n/a	FR1	0	R1123C
188.149	0.001	96297	DISTRACT_START	n/a	n/a	n/a	-999	1	[0, 0, 0]	n/a	FR1	0	R1123C
188.15	0.016	96297	START	n/a	n/a	n/a	-999	1	[-999, -999, -999]	n/a	FR1	0	R1123C
188.166	4.951	96305	PROB	4.951	n/a	n/a	-999	1	[4, 5, 8]	17	FR1	0	R1123C
193.117	4.435	98780	PROB	4.435	n/a	n/a	-999	1	[8, 3, 3]	14	FR1	0	R1123C
197.552	7.068	100998	PROB	7.068	n/a	n/a	-999	1	[7, 4, 4]	15	FR1	0	R1123C
204.62	5.397	104531	PROB	5.397	n/a	n/a	-999	1	[7, 6, 3]	16	FR1	0	R1123C
210.017	0.003	107230	STOP	n/a	n/a	n/a	-999	1	[-999, -999, -999]	n/a	FR1	0	R1123C
210.02	1.155	107231	DISTRACT_END	n/a	n/a	n/a	-999	1	[0, 0, 0]	n/a	FR1	0	R1123C
211.175	1.9	107809	REC_START	n/a	n/a	n/a	-999	1	[0, 0, 0]	n/a	FR1	0	R1123C
213.075	2.93	108759	REC_WORD	2.93	n/a	KNIT	-999	1	[0, 0, 0]	n/a	FR1	0	R1123C
216.005	1.654	110223	REC_WORD	1.654	n/a	COTTON	-999	1	[0, 0, 0]	n/a	FR1	0	R1123C
217.659	3.487	111050	REC_WORD	3.487	n/a	IRON	-999	1	[0, 0, 0]	n/a	FR1	0	R1123C
221.146	8.631	112794	REC_WORD	8.631	n/a	CASH	-999	1	[0, 0, 0]	n/a	FR1	0	R1123C
229.777	11.406	117109	REC_WORD	11.406	n/a	WHALE	-999	1	[0, 0, 0]	n/a	FR1	0	R1123C
241.183	3.461	122811	REC_END	n/a	n/a	n/a	-999	1	[0, 0, 0]	n/a	FR1	0	R1123C
244.644	0.001	124542	COUNTDOWN_START	n/a	n/a	n/a	-999	2	[0, 0, 0]	n/a	FR1	0	R1123C
244.645	10.427	124542	TRIAL	n/a	n/a	n/a	-999	2	[0, 0, 0]	n/a	FR1	0	R1123C
255.072	0.007	129755	COUNTDOWN_END	n/a	n/a	n/a	-999	2	[0, 0, 0]	n/a	FR1	0	R1123C
255.079	2.485	129759	ORIENT	n/a	n/a	n/a	-999	2	[0, 0, 0]	n/a	FR1	0	R1123C
257.564	2.582	131001	WORD	n/a	wordpools/wordpool_EN.txt	BOOT	1	2	[0, 0, 0]	n/a	FR1	0	R1123C
260.146	2.469	132292	WORD	n/a	wordpools/wordpool_EN.txt	CROW	2	2	[0, 0, 0]	n/a	FR1	0	R1123C
262.615	2.449	133526	WORD	n/a	wordpools/wordpool_EN.txt	MULE	3	2	[0, 0, 0]	n/a	FR1	0	R1123C
265.064	2.535	134751	WORD	n/a	wordpools/wordpool_EN.txt	FLUTE	4	2	[0, 0, 0]	n/a	FR1	0	R1123C
267.599	2.449	136018	WORD	n/a	wordpools/wordpool_EN.txt	WEB	5	2	[0, 0, 0]	n/a	FR1	0	R1123C
270.048	2.468	137243	WORD	n/a	wordpools/wordpool_EN.txt	ARM	6	2	[0, 0, 0]	n/a	FR1	0	R1123C
272.516	2.533	138477	WORD	n/a	wordpools/wordpool_EN.txt	BUSH	7	2	[0, 0, 0]	n/a	FR1	0	R1123C
275.049	2.468	139743	WORD	n/a	wordpools/wordpool_EN.txt	SHOE	8	2	[0, 0, 0]	n/a	FR1	0	R1123C
277.517	2.6	140977	WORD	n/a	wordpools/wordpool_EN.txt	BEAN	9	2	[0, 0, 0]	n/a	FR1	0	R1123C
280.117	2.535	142277	WORD	n/a	wordpools/wordpool_EN.txt	DEER	10	2	[0, 0, 0]	n/a	FR1	0	R1123C
282.652	2.616	143544	WORD	n/a	wordpools/wordpool_EN.txt	WORM	11	2	[0, 0, 0]	n/a	FR1	0	R1123C
285.268	1.617	144852	WORD	n/a	wordpools/wordpool_EN.txt	MOTH	12	2	[0, 0, 0]	n/a	FR1	0	R1123C
286.885	0.001	145660	DISTRACT_START	n/a	n/a	n/a	-999	2	[0, 0, 0]	n/a	FR1	0	R1123C
286.886	0.015	145661	START	n/a	n/a	n/a	-999	2	[-999, -999, -999]	n/a	FR1	0	R1123C
286.901	5.051	145668	PROB	5.051	n/a	n/a	-999	2	[8, 4, 1]	13	FR1	0	R1123C
291.952	5.018	148194	PROB	5.018	n/a	n/a	-999	2	[2, 9, 3]	14	FR1	0	R1123C
296.97	5.402	150703	PROB	5.402	n/a	n/a	-999	2	[2, 4, 5]	11	FR1	0	R1123C
302.372	6.557	153403	PROB	6.557	n/a	n/a	-999	2	[5, 4, 3]	12	FR1	0	R1123C
308.929	0.01	156682	STOP	n/a	n/a	n/a	-999	2	[-999, -999, -999]	n/a	FR1	0	R1123C
308.939	1.201	156687	DISTRACT_END	n/a	n/a	n/a	-999	2	[0, 0, 0]	n/a	FR1	0	R1123C
310.14	0.871	157287	REC_START	n/a	n/a	n/a	-999	2	[0, 0, 0]	n/a	FR1	0	R1123C
311.011	1.133	157722	REC_WORD	1.133	n/a	IRON	-999	2	[0, 0, 0]	n/a	FR1	0	R1123C
312.144	12.71	158289	REC_WORD	12.71	n/a	MOTH	-999	2	[0, 0, 0]	n/a	FR1	0	R1123C
324.854	15.296	164643	REC_WORD	15.296	n/a	BEAN	-999	2	[0, 0, 0]	n/a	FR1	0	R1123C
340.15	3.43	172291	REC_END	n/a	n/a	n/a	-999	2	[0, 0, 0]	n/a	FR1	0	R1123C
343.58	0.0	174006	TRIAL	n/a	n/a	n/a	-999	3	[0, 0, 0]	n/a	FR1	0	R1123C
343.58	10.428	174006	COUNTDOWN_START	n/a	n/a	n/a	-999	3	[0, 0, 0]	n/a	FR1	0	R1123C
354.008	0.006	179219	COUNTDOWN_END	n/a	n/a	n/a	-999	3	[0, 0, 0]	n/a	FR1	0	R1123C
354.014	2.485	179222	ORIENT	n/a	n/a	n/a	-999	3	[0, 0, 0]	n/a	FR1	0	R1123C
356.499	2.466	180465	WORD	n/a	wordpools/wordpool_EN.txt	FISH	1	3	[0, 0, 0]	n/a	FR1	0	R1123C
358.965	2.601	181697	WORD	n/a	wordpools/wordpool_EN.txt	SHIELD	2	3	[0, 0, 0]	n/a	FR1	0	R1123C
361.566	2.433	182998	WORD	n/a	wordpools/wordpool_EN.txt	SOCK	3	3	[0, 0, 0]	n/a	FR1	0	R1123C
363.999	2.568	184214	WORD	n/a	wordpools/wordpool_EN.txt	HOOK	4	3	[0, 0, 0]	n/a	FR1	0	R1123C
366.567	2.617	185498	WORD	n/a	wordpools/wordpool_EN.txt	RAKE	5	3	[0, 0, 0]	n/a	FR1	0	R1123C
369.184	2.601	186807	WORD	n/a	wordpools/wordpool_EN.txt	HORSE	6	3	[0, 0, 0]	n/a	FR1	0	R1123C
371.785	2.617	188107	WORD	n/a	wordpools/wordpool_EN.txt	COW	7	3	[0, 0, 0]	n/a	FR1	0	R1123C
374.402	2.55	189415	WORD	n/a	wordpools/wordpool_EN.txt	DOG	8	3	[0, 0, 0]	n/a	FR1	0	R1123C
376.952	2.584	190690	WORD	n/a	wordpools/wordpool_EN.txt	NOSE	9	3	[0, 0, 0]	n/a	FR1	0	R1123C
379.536	2.4	191982	WORD	n/a	wordpools/wordpool_EN.txt	POND	10	3	[0, 0, 0]	n/a	FR1	0	R1123C
381.936	2.468	193182	WORD	n/a	wordpools/wordpool_EN.txt	SKI	11	3	[0, 0, 0]	n/a	FR1	0	R1123C
384.404	1.616	194416	WORD	n/a	wordpools/wordpool_EN.txt	CUBE	12	3	[0, 0, 0]	n/a	FR1	0	R1123C
386.02	0.001	195224	DISTRACT_START	n/a	n/a	n/a	-999	3	[0, 0, 0]	n/a	FR1	0	R1123C
386.021	0.016	195224	START	n/a	n/a	n/a	-999	3	[-999, -999, -999]	n/a	FR1	0	R1123C
386.037	6.385	195232	PROB	6.385	n/a	n/a	-999	3	[7, 7, 5]	18	FR1	0	R1123C
392.422	4.917	198425	PROB	4.917	n/a	n/a	-999	3	[6, 5, 1]	12	FR1	0	R1123C
397.339	3.667	200883	PROB	3.667	n/a	n/a	-999	3	[2, 4, 1]	7	FR1	0	R1123C
401.006	6.971	202716	PROB	6.971	n/a	n/a	-999	3	[3, 6, 9]	18	FR1	0	R1123C
407.977	0.014	206201	STOP	n/a	n/a	n/a	-999	3	[-999, -999, -999]	n/a	FR1	0	R1123C
407.991	1.084	206208	DISTRACT_END	n/a	n/a	n/a	-999	3	[0, 0, 0]	n/a	FR1	0	R1123C
409.075	0.782	206750	REC_START	n/a	n/a	n/a	-999	3	[0, 0, 0]	n/a	FR1	0	R1123C
409.857	1.108	207141	REC_WORD	1.108	n/a	HORSE	-999	3	[0, 0, 0]	n/a	FR1	0	R1123C
410.965	3.763	207695	REC_WORD	3.763	n/a	RAKE	-999	3	[0, 0, 0]	n/a	FR1	0	R1123C
414.728	13.953	209577	REC_WORD	13.953	n/a	BOOT	-999	3	[0, 0, 0]	n/a	FR1	0	R1123C
428.681	1.901	216553	REC_WORD	1.901	n/a	COW	-999	3	[0, 0, 0]	n/a	FR1	0	R1123C
430.582	3.413	217503	REC_WORD	3.413	n/a	DOG	-999	3	[0, 0, 0]	n/a	FR1	0	R1123C
433.995	5.089	219209	REC_WORD	5.089	n/a	FENCE	-999	3	[0, 0, 0]	n/a	FR1	0	R1123C
439.084	2.98	221754	REC_END	n/a	n/a	n/a	-999	3	[0, 0, 0]	n/a	FR1	0	R1123C
442.064	0.0	223244	COUNTDOWN_START	n/a	n/a	n/a	-999	4	[0, 0, 0]	n/a	FR1	0	R1123C
442.064	10.428	223244	TRIAL	n/a	n/a	n/a	-999	4	[0, 0, 0]	n/a	FR1	0	R1123C
452.492	0.008	228457	COUNTDOWN_END	n/a	n/a	n/a	-999	4	[0, 0, 0]	n/a	FR1	0	R1123C
452.5	2.55	228461	ORIENT	n/a	n/a	n/a	-999	4	[0, 0, 0]	n/a	FR1	0	R1123C
455.05	2.451	229736	WORD	n/a	wordpools/wordpool_EN.txt	TRUCK	1	4	[0, 0, 0]	n/a	FR1	0	R1123C
457.501	2.4	230961	WORD	n/a	wordpools/wordpool_EN.txt	JEEP	2	4	[0, 0, 0]	n/a	FR1	0	R1123C
459.901	2.451	232161	WORD	n/a	wordpools/wordpool_EN.txt	ARK	3	4	[0, 0, 0]	n/a	FR1	0	R1123C
462.352	2.566	233387	WORD	n/a	wordpools/wordpool_EN.txt	PALM	4	4	[0, 0, 0]	n/a	FR1	0	R1123C
464.918	2.367	234670	WORD	n/a	wordpools/wordpool_EN.txt	POOL	5	4	[0, 0, 0]	n/a	FR1	0	R1123C
467.285	2.584	235853	WORD	n/a	wordpools/wordpool_EN.txt	CART	6	4	[0, 0, 0]	n/a	FR1	0	R1123C
469.869	2.367	237145	WORD	n/a	wordpools/wordpool_EN.txt	BAG	7	4	[0, 0, 0]	n/a	FR1	0	R1123C
472.236	2.435	238328	WORD	n/a	wordpools/wordpool_EN.txt	GRASS	8	4	[0, 0, 0]	n/a	FR1	0	R1123C
474.671	2.499	239546	WORD	n/a	wordpools/wordpool_EN.txt	DITCH	9	4	[0, 0, 0]	n/a	FR1	0	R1123C
477.17	2.402	240795	WORD	n/a	wordpools/wordpool_EN.txt	HOUSE	10	4	[0, 0, 0]	n/a	FR1	0	R1123C
479.572	2.616	241996	WORD	n/a	wordpools/wordpool_EN.txt	CHIN	11	4	[0, 0, 0]	n/a	FR1	0	R1123C
482.188	1.601	243304	WORD	n/a	wordpools/wordpool_EN.txt	BOX	12	4	[0, 0, 0]	n/a	FR1	0	R1123C
483.789	0.001	244104	DISTRACT_START	n/a	n/a	n/a	-999	4	[0, 0, 0]	n/a	FR1	0	R1123C
483.79	0.016	244105	START	n/a	n/a	n/a	-999	4	[-999, -999, -999]	n/a	FR1	0	R1123C
483.806	11.368	244113	PROB	11.368	n/a	n/a	-999	4	[7, 9, 6]	22	FR1	0	R1123C
495.174	6.602	249796	PROB	6.602	n/a	n/a	-999	4	[7, 5, 9]	21	FR1	0	R1123C
501.776	4.81	253097	PROB	4.81	n/a	n/a	-999	4	[9, 5, 1]	15	FR1	0	R1123C
506.586	0.008	255502	STOP	n/a	n/a	n/a	-999	4	[-999, -999, -999]	n/a	FR1	0	R1123C
506.594	1.134	255506	DISTRACT_END	n/a	n/a	n/a	-999	4	[0, 0, 0]	n/a	FR1	0	R1123C
507.728	19.225	256073	REC_START	n/a	n/a	n/a	-999	4	[0, 0, 0]	n/a	FR1	0	R1123C
526.953	2.649	265684	REC_WORD	2.649	n/a	PALM	-999	4	[0, 0, 0]	n/a	FR1	0	R1123C
529.602	1.106	267009	REC_WORD	1.106	n/a	ARK	-999	4	[0, 0, 0]	n/a	FR1	0	R1123C
530.708	1.125	267562	REC_WORD	1.125	n/a	CART	-999	4	[0, 0, 0]	n/a	FR1	0	R1123C
531.833	5.905	268124	REC_WORD	5.905	n/a	JEEP	-999	4	[0, 0, 0]	n/a	FR1	0	R1123C
537.738	2.779	271077	REC_END	n/a	n/a	n/a	-999	4	[0, 0, 0]	n/a	FR1	0	R1123C
540.517	0.0	272466	TRIAL	n/a	n/a	n/a	-999	5	[0, 0, 0]	n/a	FR1	0	R1123C
540.517	10.428	272466	COUNTDOWN_START	n/a	n/a	n/a	-999	5	[0, 0, 0]	n/a	FR1	0	R1123C
550.945	0.006	277679	COUNTDOWN_END	n/a	n/a	n/a	-999	5	[0, 0, 0]	n/a	FR1	0	R1123C
550.951	2.485	277682	ORIENT	n/a	n/a	n/a	-999	5	[0, 0, 0]	n/a	FR1	0	R1123C
553.436	2.516	278925	WORD	n/a	wordpools/wordpool_EN.txt	STICK	1	5	[0, 0, 0]	n/a	FR1	0	R1123C
555.952	2.384	280183	WORD	n/a	wordpools/wordpool_EN.txt	FUR	2	5	[0, 0, 0]	n/a	FR1	0	R1123C
558.336	2.384	281375	WORD	n/a	wordpools/wordpool_EN.txt	DUCK	3	5	[0, 0, 0]	n/a	FR1	0	R1123C
560.72	2.45	282567	WORD	n/a	wordpools/wordpool_EN.txt	MOUSE	4	5	[0, 0, 0]	n/a	FR1	0	R1123C
563.17	2.401	283791	WORD	n/a	wordpools/wordpool_EN.txt	LAMB	5	5	[0, 0, 0]	n/a	FR1	0	R1123C
565.571	2.45	284992	WORD	n/a	wordpools/wordpool_EN.txt	PIG	6	5	[0, 0, 0]	n/a	FR1	0	R1123C
568.021	2.418	286217	WORD	n/a	wordpools/wordpool_EN.txt	SNAKE	7	5	[0, 0, 0]	n/a	FR1	0	R1123C
570.439	2.516	287426	WORD	n/a	wordpools/wordpool_EN.txt	BEAK	8	5	[0, 0, 0]	n/a	FR1	0	R1123C
572.955	2.535	288684	WORD	n/a	wordpools/wordpool_EN.txt	BRUSH	9	5	[0, 0, 0]	n/a	FR1	0	R1123C
575.49	2.533	289951	WORD	n/a	wordpools/wordpool_EN.txt	TAIL	10	5	[0, 0, 0]	n/a	FR1	0	R1123C
578.023	2.518	291217	WORD	n/a	wordpools/wordpool_EN.txt	FENCE	11	5	[0, 0, 0]	n/a	FR1	0	R1123C
580.541	1.616	292476	WORD	n/a	wordpools/wordpool_EN.txt	SWAMP	12	5	[0, 0, 0]	n/a	FR1	0	R1123C
582.157	0.001	293284	DISTRACT_START	n/a	n/a	n/a	-999	5	[0, 0, 0]	n/a	FR1	0	R1123C
582.158	0.016	293285	START	n/a	n/a	n/a	-999	5	[-999, -999, -999]	n/a	FR1	0	R1123C
582.174	5.084	293293	PROB	5.084	n/a	n/a	-999	5	[9, 9, 9]	27	FR1	0	R1123C
587.258	9.403	295834	PROB	9.403	n/a	n/a	-999	5	[6, 8, 7]	21	FR1	0	R1123C
596.661	7.18	300536	PROB	7.18	n/a	n/a	-999	5	[2, 8, 3]	13	FR1	0	R1123C
603.841	0.02	304125	STOP	n/a	n/a	n/a	-999	5	[-999, -999, -999]	n/a	FR1	0	R1123C
603.861	1.051	304135	DISTRACT_END	n/a	n/a	n/a	-999	5	[0, 0, 0]	n/a	FR1	0	R1123C
604.912	16.12	304661	REC_START	n/a	n/a	n/a	-999	5	[0, 0, 0]	n/a	FR1	0	R1123C
621.032	5.292	312720	REC_WORD	5.292	n/a	PIG	-999	5	[0, 0, 0]	n/a	FR1	0	R1123C
626.324	8.598	315366	REC_WORD	8.598	n/a	MUG	-999	5	[0, 0, 0]	n/a	FR1	0	R1123C
634.922	3.079	319665	REC_END	n/a	n/a	n/a	-999	5	[0, 0, 0]	n/a	FR1	0	R1123C
638.001	0.0	321204	TRIAL	n/a	n/a	n/a	-999	6	[0, 0, 0]	n/a	FR1	0	R1123C
638.001	10.428	321204	COUNTDOWN_START	n/a	n/a	n/a	-999	6	[0, 0, 0]	n/a	FR1	0	R1123C
648.429	0.008	326417	COUNTDOWN_END	n/a	n/a	n/a	-999	6	[0, 0, 0]	n/a	FR1	0	R1123C
648.437	2.599	326421	ORIENT	n/a	n/a	n/a	-999	6	[0, 0, 0]	n/a	FR1	0	R1123C
651.036	2.519	327721	WORD	n/a	wordpools/wordpool_EN.txt	MUD	1	6	[0, 0, 0]	n/a	FR1	0	R1123C
653.555	2.549	328980	WORD	n/a	wordpools/wordpool_EN.txt	LEG	2	6	[0, 0, 0]	n/a	FR1	0	R1123C
656.104	2.468	330255	WORD	n/a	wordpools/wordpool_EN.txt	WAND	3	6	[0, 0, 0]	n/a	FR1	0	R1123C
658.572	2.45	331489	WORD	n/a	wordpools/wordpool_EN.txt	BATH	4	6	[0, 0, 0]	n/a	FR1	0	R1123C
661.022	2.501	332713	WORD	n/a	wordpools/wordpool_EN.txt	GLOVE	5	6	[0, 0, 0]	n/a	FR1	0	R1123C
663.523	2.516	333964	WORD	n/a	wordpools/wordpool_EN.txt	FAN	6	6	[0, 0, 0]	n/a	FR1	0	R1123C
666.039	2.452	335222	WORD	n/a	wordpools/wordpool_EN.txt	SPOON	7	6	[0, 0, 0]	n/a	FR1	0	R1123C
668.491	2.599	336448	WORD	n/a	wordpools/wordpool_EN.txt	GOAT	8	6	[0, 0, 0]	n/a	FR1	0	R1123C
671.09	2.402	337747	WORD	n/a	wordpools/wordpool_EN.txt	SPEAR	9	6	[0, 0, 0]	n/a	FR1	0	R1123C
673.492	2.465	338948	WORD	n/a	wordpools/wordpool_EN.txt	HAT	10	6	[0, 0, 0]	n/a	FR1	0	R1123C
675.957	2.368	340180	WORD	n/a	wordpools/wordpool_EN.txt	AXE	11	6	[0, 0, 0]	n/a	FR1	0	R1123C
678.325	1.617	341364	WORD	n/a	wordpools/wordpool_EN.txt	BADGE	12	6	[0, 0, 0]	n/a	FR1	0	R1123C
679.942	0.0	342173	DISTRACT_START	n/a	n/a	n/a	-999	6	[0, 0, 0]	n/a	FR1	0	R1123C
679.942	0.017	342173	START	n/a	n/a	n/a	-999	6	[-999, -999, -999]	n/a	FR1	0	R1123C
679.959	8.184	342181	PROB	8.184	n/a	n/a	-999	6	[3, 7, 8]	18	FR1	0	R1123C
688.143	8.185	346273	PROB	8.185	n/a	n/a	-999	6	[6, 7, 2]	17	FR1	0	R1123C
696.328	4.689	350365	PROB	4.689	n/a	n/a	-999	6	[4, 9, 9]	22	FR1	0	R1123C
701.017	0.012	352709	STOP	n/a	n/a	n/a	-999	6	[-999, -999, -999]	n/a	FR1	0	R1123C
701.029	1.101	352715	DISTRACT_END	n/a	n/a	n/a	-999	6	[0, 0, 0]	n/a	FR1	0	R1123C
702.13	0.76	353266	REC_START	n/a	n/a	n/a	-999	6	[0, 0, 0]	n/a	FR1	0	R1123C
702.89	1.286	353646	REC_WORD	1.286	n/a	LEG	-999	6	[0, 0, 0]	n/a	FR1	0	R1123C
704.176	2.497	354289	REC_WORD	2.497	n/a	HAND	-999	6	[0, 0, 0]	n/a	FR1	0	R1123C
706.673	13.174	355537	REC_WORD	13.174	n/a	HAT	-999	6	[0, 0, 0]	n/a	FR1	0	R1123C
719.847	4.382	362123	REC_WORD	4.382	n/a	GOAT	-999	6	[0, 0, 0]	n/a	FR1	0	R1123C
724.229	7.911	364314	REC_WORD	7.911	n/a	HOT	-999	6	[0, 0, 0]	n/a	FR1	0	R1123C
732.14	2.929	368269	REC_END	n/a	n/a	n/a	-999	6	[0, 0, 0]	n/a	FR1	0	R1123C
735.069	0.0	369734	TRIAL	n/a	n/a	n/a	-999	7	[0, 0, 0]	n/a	FR1	0	R1123C
735.069	10.428	369734	COUNTDOWN_START	n/a	n/a	n/a	-999	7	[0, 0, 0]	n/a	FR1	0	R1123C
745.497	0.008	374947	COUNTDOWN_END	n/a	n/a	n/a	-999	7	[0, 0, 0]	n/a	FR1	0	R1123C
745.505	2.583	374951	ORIENT	n/a	n/a	n/a	-999	7	[0, 0, 0]	n/a	FR1	0	R1123C
748.088	2.485	376243	WORD	n/a	wordpools/wordpool_EN.txt	WING	1	7	[0, 0, 0]	n/a	FR1	0	R1123C
750.573	2.449	377485	WORD	n/a	wordpools/wordpool_EN.txt	TOE	2	7	[0, 0, 0]	n/a	FR1	0	R1123C
753.022	2.435	378710	WORD	n/a	wordpools/wordpool_EN.txt	COUCH	3	7	[0, 0, 0]	n/a	FR1	0	R1123C
755.457	2.483	379927	WORD	n/a	wordpools/wordpool_EN.txt	FLEA	4	7	[0, 0, 0]	n/a	FR1	0	R1123C
757.94	2.383	381168	WORD	n/a	wordpools/wordpool_EN.txt	CUP	5	7	[0, 0, 0]	n/a	FR1	0	R1123C
760.323	2.618	382360	WORD	n/a	wordpools/wordpool_EN.txt	TREE	6	7	[0, 0, 0]	n/a	FR1	0	R1123C
762.941	2.468	383669	WORD	n/a	wordpools/wordpool_EN.txt	BLUSH	7	7	[0, 0, 0]	n/a	FR1	0	R1123C
765.409	2.516	384903	WORD	n/a	wordpools/wordpool_EN.txt	SNAIL	8	7	[0, 0, 0]	n/a	FR1	0	R1123C
767.925	2.585	386160	WORD	n/a	wordpools/wordpool_EN.txt	OWL	9	7	[0, 0, 0]	n/a	FR1	0	R1123C
770.51	2.433	387453	WORD	n/a	wordpools/wordpool_EN.txt	ZOO	10	7	[0, 0, 0]	n/a	FR1	0	R1123C
772.943	2.418	388669	WORD	n/a	wordpools/wordpool_EN.txt	PIT	11	7	[0, 0, 0]	n/a	FR1	0	R1123C
775.361	1.616	389878	WORD	n/a	wordpools/wordpool_EN.txt	DIME	12	7	[0, 0, 0]	n/a	FR1	0	R1123C
776.977	0.001	390686	DISTRACT_START	n/a	n/a	n/a	-999	7	[0, 0, 0]	n/a	FR1	0	R1123C
776.978	0.015	390687	START	n/a	n/a	n/a	-999	7	[-999, -999, -999]	n/a	FR1	0	R1123C
776.993	6.569	390694	PROB	6.569	n/a	n/a	-999	7	[4, 5, 7]	18	FR1	0	R1123C
783.562	3.918	393978	PROB	3.918	n/a	n/a	-999	7	[4, 3, 2]	9	FR1	0	R1123C
787.48	4.85	395937	PROB	4.85	n/a	n/a	-999	7	[9, 5, 1]	15	FR1	0	R1123C
792.33	7.288	398362	PROB	7.288	n/a	n/a	-999	7	[4, 5, 3]	13	FR1	0	R1123C
799.618	0.014	402006	STOP	n/a	n/a	n/a	-999	7	[-999, -999, -999]	n/a	FR1	0	R1123C
799.632	1.101	402013	DISTRACT_END	n/a	n/a	n/a	-999	7	[0, 0, 0]	n/a	FR1	0	R1123C
800.733	0.936	402563	REC_START	n/a	n/a	n/a	-999	7	[0, 0, 0]	n/a	FR1	0	R1123C
801.669	2.544	403031	REC_WORD	2.544	n/a	BOOT	-999	7	[0, 0, 0]	n/a	FR1	0	R1123C
804.213	4.16	404303	REC_WORD	4.16	n/a	TOE	-999	7	[0, 0, 0]	n/a	FR1	0	R1123C
808.373	22.37	406383	REC_WORD	22.37	n/a	HAND	-999	7	[0, 0, 0]	n/a	FR1	0	R1123C
830.743	159.274	417567	REC_END	n/a	n/a	n/a	-999	7	[0, 0, 0]	n/a	FR1	0	R1123C
990.017	0.0	497197	TRIAL	n/a	n/a	n/a	-999	8	[0, 0, 0]	n/a	FR1	0	R1123C
990.017	10.428	497197	COUNTDOWN_START	n/a	n/a	n/a	-999	8	[0, 0, 0]	n/a	FR1	0	R1123C
1000.445	0.008	502411	COUNTDOWN_END	n/a	n/a	n/a	-999	8	[0, 0, 0]	n/a	FR1	0	R1123C
1000.453	2.466	502415	ORIENT	n/a	n/a	n/a	-999	8	[0, 0, 0]	n/a	FR1	0	R1123C
1002.919	2.452	503648	WORD	n/a	wordpools/wordpool_EN.txt	SHEET	1	8	[0, 0, 0]	n/a	FR1	0	R1123C
1005.371	2.532	504874	WORD	n/a	wordpools/wordpool_EN.txt	OAK	2	8	[0, 0, 0]	n/a	FR1	0	R1123C
1007.903	2.619	506140	WORD	n/a	wordpools/wordpool_EN.txt	PANTS	3	8	[0, 0, 0]	n/a	FR1	0	R1123C
1010.522	2.582	507449	WORD	n/a	wordpools/wordpool_EN.txt	TENT	4	8	[0, 0, 0]	n/a	FR1	0	R1123C
1013.104	2.368	508740	WORD	n/a	wordpools/wordpool_EN.txt	WOLF	5	8	[0, 0, 0]	n/a	FR1	0	R1123C
1015.472	2.583	509924	WORD	n/a	wordpools/wordpool_EN.txt	INK	6	8	[0, 0, 0]	n/a	FR1	0	R1123C
1018.055	2.502	511215	WORD	n/a	wordpools/wordpool_EN.txt	HOOF	7	8	[0, 0, 0]	n/a	FR1	0	R1123C
1020.557	2.499	512466	WORD	n/a	wordpools/wordpool_EN.txt	SHEEP	8	8	[0, 0, 0]	n/a	FR1	0	R1123C
1023.056	2.385	513715	WORD	n/a	wordpools/wordpool_EN.txt	BOY	9	8	[0, 0, 0]	n/a	FR1	0	R1123C
1025.441	2.549	514908	WORD	n/a	wordpools/wordpool_EN.txt	KEY	10	8	[0, 0, 0]	n/a	FR1	0	R1123C
1027.99	2.469	516182	WORD	n/a	wordpools/wordpool_EN.txt	BED	11	8	[0, 0, 0]	n/a	FR1	0	R1123C
1030.459	1.616	517417	WORD	n/a	wordpools/wordpool_EN.txt	MAIL	12	8	[0, 0, 0]	n/a	FR1	0	R1123C
1032.075	0.001	518225	DISTRACT_START	n/a	n/a	n/a	-999	8	[0, 0, 0]	n/a	FR1	0	R1123C
1032.076	0.015	518225	START	n/a	n/a	n/a	-999	8	[-999, -999, -999]	n/a	FR1	0	R1123C
1032.091	4.352	518233	PROB	4.352	n/a	n/a	-999	8	[5, 2, 2]	9	FR1	0	R1123C
1036.443	3.084	520408	PROB	3.084	n/a	n/a	-999	8	[1, 2, 1]	4	FR1	0	R1123C
1039.527	4.134	521950	PROB	4.134	n/a	n/a	-999	8	[7, 2, 7]	16	FR1	0	R1123C
1043.661	3.767	524017	PROB	3.767	n/a	n/a	-999	8	[3, 7, 1]	11	FR1	0	R1123C
1047.428	4.467	525900	PROB	4.467	n/a	n/a	-999	8	[7, 1, 3]	11	FR1	0	R1123C
1051.895	7.715	528134	PROB	7.715	n/a	n/a	-999	8	[5, 8, 9]	22	FR1	0	R1123C
1059.61	0.004	531991	STOP	n/a	n/a	n/a	-999	8	[-999, -999, -999]	n/a	FR1	0	R1123C
1059.614	1.084	531993	DISTRACT_END	n/a	n/a	n/a	-999	8	[0, 0, 0]	n/a	FR1	0	R1123C
1060.698	1.062	532535	REC_START	n/a	n/a	n/a	-999	8	[0, 0, 0]	n/a	FR1	0	R1123C
1061.76	0.865	533066	REC_WORD	0.865	n/a	BOY	-999	8	[0, 0, 0]	n/a	FR1	0	R1123C
1062.625	1.221	533498	REC_WORD	1.221	n/a	MAIL	-999	8	[0, 0, 0]	n/a	FR1	0	R1123C
1063.846	5.83	534109	REC_WORD	5.83	n/a	INK	-999	8	[0, 0, 0]	n/a	FR1	0	R1123C
1069.676	12.635	537023	REC_WORD	12.635	n/a	TOE	-999	8	[0, 0, 0]	n/a	FR1	0	R1123C
1082.311	8.398	543340	REC_WORD	8.398	n/a	HAND	-999	8	[0, 0, 0]	n/a	FR1	0	R1123C
1090.709	80.993	547539	REC_END	n/a	n/a	n/a	-999	8	[0, 0, 0]	n/a	FR1	0	R1123C
1171.702	0.0	588032	TRIAL	n/a	n/a	n/a	-999	9	[0, 0, 0]	n/a	FR1	0	R1123C
1171.702	10.428	588032	COUNTDOWN_START	n/a	n/a	n/a	-999	9	[0, 0, 0]	n/a	FR1	0	R1123C
1182.13	0.006	593246	COUNTDOWN_END	n/a	n/a	n/a	-999	9	[0, 0, 0]	n/a	FR1	0	R1123C
1182.136	2.635	593249	ORIENT	n/a	n/a	n/a	-999	9	[0, 0, 0]	n/a	FR1	0	R1123C
1184.771	2.449	594566	WORD	n/a	wordpools/wordpool_EN.txt	BLOOM	1	9	[0, 0, 0]	n/a	FR1	0	R1123C
1187.22	2.518	595791	WORD	n/a	wordpools/wordpool_EN.txt	PIPE	2	9	[0, 0, 0]	n/a	FR1	0	R1123C
1189.738	2.517	597050	WORD	n/a	wordpools/wordpool_EN.txt	BREAD	3	9	[0, 0, 0]	n/a	FR1	0	R1123C
1192.255	2.551	598308	WORD	n/a	wordpools/wordpool_EN.txt	SEED	4	9	[0, 0, 0]	n/a	FR1	0	R1123C
1194.806	2.5	599583	WORD	n/a	wordpools/wordpool_EN.txt	JUICE	5	9	[0, 0, 0]	n/a	FR1	0	R1123C
1197.306	2.484	600833	WORD	n/a	wordpools/wordpool_EN.txt	FORT	6	9	[0, 0, 0]	n/a	FR1	0	R1123C
1199.79	2.517	602075	WORD	n/a	wordpools/wordpool_EN.txt	TOY	7	9	[0, 0, 0]	n/a	FR1	0	R1123C
1202.307	2.55	603333	WORD	n/a	wordpools/wordpool_EN.txt	LOCK	8	9	[0, 0, 0]	n/a	FR1	0	R1123C
1204.857	2.518	604608	WORD	n/a	wordpools/wordpool_EN.txt	SALT	9	9	[0, 0, 0]	n/a	FR1	0	R1123C
1207.375	2.583	605867	WORD	n/a	wordpools/wordpool_EN.txt	BRICK	10	9	[0, 0, 0]	n/a	FR1	0	R1123C
1209.958	2.618	607159	WORD	n/a	wordpools/wordpool_EN.txt	RICE	11	9	[0, 0, 0]	n/a	FR1	0	R1123C
1212.576	1.616	608468	WORD	n/a	wordpools/wordpool_EN.txt	FRUIT	12	9	[0, 0, 0]	n/a	FR1	0	R1123C
1214.192	0.001	609275	DISTRACT_START	n/a	n/a	n/a	-999	9	[0, 0, 0]	n/a	FR1	0	R1123C
1214.193	0.016	609276	START	n/a	n/a	n/a	-999	9	[-999, -999, -999]	n/a	FR1	0	R1123C
1214.209	7.084	609284	PROB	7.084	n/a	n/a	-999	9	[5, 4, 3]	12	FR1	0	R1123C
1221.293	6.018	612826	PROB	6.018	n/a	n/a	-999	9	[3, 4, 9]	16	FR1	0	R1123C
1227.311	3.502	615834	PROB	3.502	n/a	n/a	-999	9	[1, 3, 1]	5	FR1	0	R1123C
1230.813	6.284	617585	PROB	6.284	n/a	n/a	-999	9	[3, 9, 8]	20	FR1	0	R1123C
1237.097	0.016	620727	STOP	n/a	n/a	n/a	-999	9	[-999, -999, -999]	n/a	FR1	0	R1123C
1237.113	1.135	620735	DISTRACT_END	n/a	n/a	n/a	-999	9	[0, 0, 0]	n/a	FR1	0	R1123C
1238.248	2.621	621302	REC_START	n/a	n/a	n/a	-999	9	[0, 0, 0]	n/a	FR1	0	R1123C
1240.869	1.682	622613	REC_WORD	1.682	n/a	DARK	-999	9	[0, 0, 0]	n/a	FR1	0	R1123C
1242.551	25.706	623454	REC_WORD	25.706	n/a	ROOT	-999	9	[0, 0, 0]	n/a	FR1	0	R1123C
1268.257	2.996	636306	REC_END	n/a	n/a	n/a	-999	9	[0, 0, 0]	n/a	FR1	0	R1123C
1271.253	0.0	637804	TRIAL	n/a	n/a	n/a	-999	10	[0, 0, 0]	n/a	FR1	0	R1123C
1271.253	10.428	637804	COUNTDOWN_START	n/a	n/a	n/a	-999	10	[0, 0, 0]	n/a	FR1	0	R1123C
1281.681	0.008	643017	COUNTDOWN_END	n/a	n/a	n/a	-999	10	[0, 0, 0]	n/a	FR1	0	R1123C
1281.689	2.416	643021	ORIENT	n/a	n/a	n/a	-999	10	[0, 0, 0]	n/a	FR1	0	R1123C
1284.105	2.518	644229	WORD	n/a	wordpools/wordpool_EN.txt	SIGN	1	10	[0, 0, 0]	n/a	FR1	0	R1123C
1286.623	2.55	645488	WORD	n/a	wordpools/wordpool_EN.txt	CLOCK	2	10	[0, 0, 0]	n/a	FR1	0	R1123C
1289.173	2.585	646763	WORD	n/a	wordpools/wordpool_EN.txt	PURSE	3	10	[0, 0, 0]	n/a	FR1	0	R1123C
1291.758	2.416	648055	WORD	n/a	wordpools/wordpool_EN.txt	SUIT	4	10	[0, 0, 0]	n/a	FR1	0	R1123C
1294.174	2.485	649263	WORD	n/a	wordpools/wordpool_EN.txt	FOG	5	10	[0, 0, 0]	n/a	FR1	0	R1123C
1296.659	2.449	650506	WORD	n/a	wordpools/wordpool_EN.txt	STONE	6	10	[0, 0, 0]	n/a	FR1	0	R1123C
1299.108	2.468	651730	WORD	n/a	wordpools/wordpool_EN.txt	SLEEVE	7	10	[0, 0, 0]	n/a	FR1	0	R1123C
1301.576	2.616	652964	WORD	n/a	wordpools/wordpool_EN.txt	PEARL	8	10	[0, 0, 0]	n/a	FR1	0	R1123C
1304.192	2.452	654272	WORD	n/a	wordpools/wordpool_EN.txt	PEAR	9	10	[0, 0, 0]	n/a	FR1	0	R1123C
1306.644	2.433	655498	WORD	n/a	wordpools/wordpool_EN.txt	FLAME	10	10	[0, 0, 0]	n/a	FR1	0	R1123C
1309.077	2.401	656714	WORD	n/a	wordpools/wordpool_EN.txt	DART	11	10	[0, 0, 0]	n/a	FR1	0	R1123C
1311.478	1.616	657914	WORD	n/a	wordpools/wordpool_EN.txt	SQUARE	12	10	[0, 0, 0]	n/a	FR1	0	R1123C
1313.094	0.001	658722	DISTRACT_START	n/a	n/a	n/a	-999	10	[0, 0, 0]	n/a	FR1	0	R1123C
1313.095	0.016	658723	START	n/a	n/a	n/a	-999	10	[-999, -999, -999]	n/a	FR1	0	R1123C
1313.111	4.784	658731	PROB	4.784	n/a	n/a	-999	10	[1, 1, 3]	4	FR1	0	R1123C
1317.895	4.835	661123	PROB	4.835	n/a	n/a	-999	10	[1, 4, 1]	6	FR1	0	R1123C
1322.73	7.3	663540	PROB	7.3	n/a	n/a	-999	10	[6, 9, 3]	18	FR1	0	R1123C
1330.03	7.132	667190	PROB	7.132	n/a	n/a	-999	10	[4, 7, 9]	21	FR1	0	R1123C
1337.162	0.003	670755	STOP	n/a	n/a	n/a	-999	10	[-999, -999, -999]	n/a	FR1	0	R1123C
1337.165	1.124	670757	DISTRACT_END	n/a	n/a	n/a	-999	10	[0, 0, 0]	n/a	FR1	0	R1123C
1338.289	0.84	671319	REC_START	n/a	n/a	n/a	-999	10	[0, 0, 0]	n/a	FR1	0	R1123C
1339.129	1.394	671739	REC_WORD	1.394	n/a	DART	-999	10	[0, 0, 0]	n/a	FR1	0	R1123C
1340.523	9.767	672436	REC_WORD	9.767	n/a	BOARD	-999	10	[0, 0, 0]	n/a	FR1	0	R1123C
1350.29	10.184	677319	REC_WORD	10.184	n/a	TOE	-999	10	[0, 0, 0]	n/a	FR1	0	R1123C
1360.474	2.57	682410	REC_WORD	2.57	n/a	PEARL	-999	10	[0, 0, 0]	n/a	FR1	0	R1123C
1363.044	5.249	683695	REC_WORD	5.249	n/a	PEAR	-999	10	[0, 0, 0]	n/a	FR1	0	R1123C
1368.293	2.762	686320	REC_END	n/a	n/a	n/a	-999	10	[0, 0, 0]	n/a	FR1	0	R1123C
1371.055	0.0	687700	TRIAL	n/a	n/a	n/a	-999	11	[0, 0, 0]	n/a	FR1	0	R1123C
1371.055	10.428	687700	COUNTDOWN_START	n/a	n/a	n/a	-999	11	[0, 0, 0]	n/a	FR1	0	R1123C
1381.483	0.008	692914	COUNTDOWN_END	n/a	n/a	n/a	-999	11	[0, 0, 0]	n/a	FR1	0	R1123C
1381.491	2.583	692918	ORIENT	n/a	n/a	n/a	-999	11	[0, 0, 0]	n/a	FR1	0	R1123C
1384.074	2.501	694209	WORD	n/a	wordpools/wordpool_EN.txt	SKUNK	1	11	[0, 0, 0]	n/a	FR1	0	R1123C
1386.575	2.583	695460	WORD	n/a	wordpools/wordpool_EN.txt	FOX	2	11	[0, 0, 0]	n/a	FR1	0	R1123C
1389.158	2.552	696751	WORD	n/a	wordpools/wordpool_EN.txt	ROOF	3	11	[0, 0, 0]	n/a	FR1	0	R1123C
1391.71	2.583	698027	WORD	n/a	wordpools/wordpool_EN.txt	FOOD	4	11	[0, 0, 0]	n/a	FR1	0	R1123C
1394.293	2.401	699319	WORD	n/a	wordpools/wordpool_EN.txt	HAWK	5	11	[0, 0, 0]	n/a	FR1	0	R1123C
1396.694	2.466	700519	WORD	n/a	wordpools/wordpool_EN.txt	CLOUD	6	11	[0, 0, 0]	n/a	FR1	0	R1123C
1399.16	2.418	701752	WORD	n/a	wordpools/wordpool_EN.txt	CRANE	7	11	[0, 0, 0]	n/a	FR1	0	R1123C
1401.578	2.55	702961	WORD	n/a	wordpools/wordpool_EN.txt	WEED	8	11	[0, 0, 0]	n/a	FR1	0	R1123C
1404.128	2.568	704236	WORD	n/a	wordpools/wordpool_EN.txt	NEST	9	11	[0, 0, 0]	n/a	FR1	0	R1123C
1406.696	2.499	705520	WORD	n/a	wordpools/wordpool_EN.txt	ANT	10	11	[0, 0, 0]	n/a	FR1	0	R1123C
1409.195	2.519	706769	WORD	n/a	wordpools/wordpool_EN.txt	SNOW	11	11	[0, 0, 0]	n/a	FR1	0	R1123C
1411.714	1.616	708028	WORD	n/a	wordpools/wordpool_EN.txt	HEN	12	11	[0, 0, 0]	n/a	FR1	0	R1123C
1413.33	0.001	708836	DISTRACT_START	n/a	n/a	n/a	-999	11	[0, 0, 0]	n/a	FR1	0	R1123C
1413.331	0.016	708837	START	n/a	n/a	n/a	-999	11	[-999, -999, -999]	n/a	FR1	0	R1123C
1413.347	5.101	708845	PROB	5.101	n/a	n/a	-999	11	[1, 6, 3]	10	FR1	0	R1123C
1418.448	6.051	711395	PROB	6.051	n/a	n/a	-999	11	[9, 2, 7]	18	FR1	0	R1123C
1424.499	9.919	714420	PROB	9.919	n/a	n/a	-999	11	[6, 4, 3]	13	FR1	0	R1123C
1434.418	0.016	719379	STOP	n/a	n/a	n/a	-999	11	[-999, -999, -999]	n/a	FR1	0	R1123C
1434.434	1.201	719387	DISTRACT_END	n/a	n/a	n/a	-999	11	[0, 0, 0]	n/a	FR1	0	R1123C
1435.635	0.903	719988	REC_START	n/a	n/a	n/a	-999	11	[0, 0, 0]	n/a	FR1	0	R1123C
1436.538	0.866	720439	REC_WORD	0.866	n/a	WEED	-999	11	[0, 0, 0]	n/a	FR1	0	R1123C
1437.404	3.472	720872	REC_WORD	3.472	n/a	SNOW	-999	11	[0, 0, 0]	n/a	FR1	0	R1123C
1440.876	5.12	722608	REC_WORD	5.12	n/a	DARK	-999	11	[0, 0, 0]	n/a	FR1	0	R1123C
1445.996	13.199	725168	REC_WORD	13.199	n/a	HEN	-999	11	[0, 0, 0]	n/a	FR1	0	R1123C
1459.195	6.451	731767	REC_WORD	6.451	n/a	ARM	-999	11	[0, 0, 0]	n/a	FR1	0	R1123C
1465.646	2.845	734992	REC_END	n/a	n/a	n/a	-999	11	[0, 0, 0]	n/a	FR1	0	R1123C
1468.491	0.0	736414	COUNTDOWN_START	n/a	n/a	n/a	-999	12	[0, 0, 0]	n/a	FR1	0	R1123C
1468.491	10.428	736414	TRIAL	n/a	n/a	n/a	-999	12	[0, 0, 0]	n/a	FR1	0	R1123C
1478.919	0.006	741628	COUNTDOWN_END	n/a	n/a	n/a	-999	12	[0, 0, 0]	n/a	FR1	0	R1123C
1478.925	2.435	741631	ORIENT	n/a	n/a	n/a	-999	12	[0, 0, 0]	n/a	FR1	0	R1123C
1481.36	2.549	742848	WORD	n/a	wordpools/wordpool_EN.txt	STORM	1	12	[0, 0, 0]	n/a	FR1	0	R1123C
1483.909	2.452	744123	WORD	n/a	wordpools/wordpool_EN.txt	CAVE	2	12	[0, 0, 0]	n/a	FR1	0	R1123C
1486.361	2.616	745349	WORD	n/a	wordpools/wordpool_EN.txt	SPRING	3	12	[0, 0, 0]	n/a	FR1	0	R1123C
1488.977	2.568	746657	WORD	n/a	wordpools/wordpool_EN.txt	SLUSH	4	12	[0, 0, 0]	n/a	FR1	0	R1123C
1491.545	2.583	747940	WORD	n/a	wordpools/wordpool_EN.txt	BOWL	5	12	[0, 0, 0]	n/a	FR1	0	R1123C
1494.128	2.385	749232	WORD	n/a	wordpools/wordpool_EN.txt	BARN	6	12	[0, 0, 0]	n/a	FR1	0	R1123C
1496.513	2.383	750424	WORD	n/a	wordpools/wordpool_EN.txt	BROOM	7	12	[0, 0, 0]	n/a	FR1	0	R1123C
1498.896	2.551	751616	WORD	n/a	wordpools/wordpool_EN.txt	CAGE	8	12	[0, 0, 0]	n/a	FR1	0	R1123C
1501.447	2.5	752891	WORD	n/a	wordpools/wordpool_EN.txt	ROPE	9	12	[0, 0, 0]	n/a	FR1	0	R1123C
1503.947	2.418	754141	WORD	n/a	wordpools/wordpool_EN.txt	CALF	10	12	[0, 0, 0]	n/a	FR1	0	R1123C
1506.365	2.499	755350	WORD	n/a	wordpools/wordpool_EN.txt	YARD	11	12	[0, 0, 0]	n/a	FR1	0	R1123C
1508.864	1.601	756599	WORD	n/a	wordpools/wordpool_EN.txt	FLOOR	12	12	[0, 0, 0]	n/a	FR1	0	R1123C
1510.465	0.002	757400	DISTRACT_START	n/a	n/a	n/a	-999	12	[0, 0, 0]	n/a	FR1	0	R1123C
1510.467	0.015	757401	START	n/a	n/a	n/a	-999	12	[-999, -999, -999]	n/a	FR1	0	R1123C
1510.482	5.084	757408	PROB	5.084	n/a	n/a	-999	12	[1, 7, 2]	10	FR1	0	R1123C
1515.566	9.035	759950	PROB	9.035	n/a	n/a	-999	12	[9, 8, 9]	27	FR1	0	R1123C
1524.601	4.517	764467	PROB	4.517	n/a	n/a	-999	12	[2, 9, 2]	13	FR1	0	R1123C
1529.118	3.988	766725	PROB	3.988	n/a	n/a	-999	12	[2, 9, 1]	12	FR1	0	R1123C
1533.106	0.013	768719	STOP	n/a	n/a	n/a	-999	12	[-999, -999, -999]	n/a	FR1	0	R1123C
1533.119	1.184	768726	DISTRACT_END	n/a	n/a	n/a	-999	12	[0, 0, 0]	n/a	FR1	0	R1123C
1534.303	0.937	769318	REC_START	n/a	n/a	n/a	-999	12	[0, 0, 0]	n/a	FR1	0	R1123C
1535.24	2.429	769786	REC_WORD	2.429	n/a	YARD	-999	12	[0, 0, 0]	n/a	FR1	0	R1123C
1537.669	14.262	771001	REC_WORD	14.262	n/a	STORM	-999	12	[0, 0, 0]	n/a	FR1	0	R1123C
1551.931	4.024	778131	REC_WORD	4.024	n/a	SHEEP	-999	12	[0, 0, 0]	n/a	FR1	0	R1123C
1555.955	8.358	780143	REC_WORD	8.358	n/a	SPRING	-999	12	[0, 0, 0]	n/a	FR1	0	R1123C
1564.313	2.496	784321	REC_END	n/a	n/a	n/a	-999	12	[0, 0, 0]	n/a	FR1	0	R1123C
1566.809	0.001	785569	COUNTDOWN_START	n/a	n/a	n/a	-999	13	[0, 0, 0]	n/a	FR1	0	R1123C
1566.81	10.427	785570	TRIAL	n/a	n/a	n/a	-999	13	[0, 0, 0]	n/a	FR1	0	R1123C
1577.237	0.007	790783	COUNTDOWN_END	n/a	n/a	n/a	-999	13	[0, 0, 0]	n/a	FR1	0	R1123C
1577.244	2.484	790786	ORIENT	n/a	n/a	n/a	-999	13	[0, 0, 0]	n/a	FR1	0	R1123C
1579.728	2.483	792028	WORD	n/a	wordpools/wordpool_EN.txt	BRIDGE	1	13	[0, 0, 0]	n/a	FR1	0	R1123C
1582.211	2.535	793270	WORD	n/a	wordpools/wordpool_EN.txt	BAT	2	13	[0, 0, 0]	n/a	FR1	0	R1123C
1584.746	2.499	794537	WORD	n/a	wordpools/wordpool_EN.txt	BALL	3	13	[0, 0, 0]	n/a	FR1	0	R1123C
1587.245	2.419	795787	WORD	n/a	wordpools/wordpool_EN.txt	MOLE	4	13	[0, 0, 0]	n/a	FR1	0	R1123C
1589.664	2.632	796996	WORD	n/a	wordpools/wordpool_EN.txt	TRAIN	5	13	[0, 0, 0]	n/a	FR1	0	R1123C
1592.296	2.385	798312	WORD	n/a	wordpools/wordpool_EN.txt	TOAD	6	13	[0, 0, 0]	n/a	FR1	0	R1123C
1594.681	2.6	799504	WORD	n/a	wordpools/wordpool_EN.txt	MAZE	7	13	[0, 0, 0]	n/a	FR1	0	R1123C
1597.281	2.468	800804	WORD	n/a	wordpools/wordpool_EN.txt	PRINCE	8	13	[0, 0, 0]	n/a	FR1	0	R1123C
1599.749	2.516	802038	WORD	n/a	wordpools/wordpool_EN.txt	CORD	9	13	[0, 0, 0]	n/a	FR1	0	R1123C
1602.265	2.6	803296	WORD	n/a	wordpools/wordpool_EN.txt	CAR	10	13	[0, 0, 0]	n/a	FR1	0	R1123C
1604.865	2.602	804596	WORD	n/a	wordpools/wordpool_EN.txt	EEL	11	13	[0, 0, 0]	n/a	FR1	0	R1123C
1607.467	1.616	805897	WORD	n/a	wordpools/wordpool_EN.txt	BANK	12	13	[0, 0, 0]	n/a	FR1	0	R1123C
1609.083	0.001	806705	DISTRACT_START	n/a	n/a	n/a	-999	13	[0, 0, 0]	n/a	FR1	0	R1123C
1609.084	0.016	806705	START	n/a	n/a	n/a	-999	13	[-999, -999, -999]	n/a	FR1	0	R1123C
1609.1	5.101	806713	PROB	5.101	n/a	n/a	-999	13	[1, 7, 2]	10	FR1	0	R1123C
1614.201	5.051	809263	PROB	5.051	n/a	n/a	-999	13	[9, 8, 1]	18	FR1	0	R1123C
1619.252	4.617	811789	PROB	4.617	n/a	n/a	-999	13	[4, 3, 1]	8	FR1	0	R1123C
1623.869	5.3	814097	PROB	5.3	n/a	n/a	-999	13	[9, 9, 4]	22	FR1	0	R1123C
1629.169	0.018	816747	STOP	n/a	n/a	n/a	-999	13	[-999, -999, -999]	n/a	FR1	0	R1123C
1629.187	1.168	816756	DISTRACT_END	n/a	n/a	n/a	-999	13	[0, 0, 0]	n/a	FR1	0	R1123C
1630.355	0.877	817340	REC_START	n/a	n/a	n/a	-999	13	[0, 0, 0]	n/a	FR1	0	R1123C
1631.232	17.973	817778	REC_WORD	17.973	n/a	BANK	-999	13	[0, 0, 0]	n/a	FR1	0	R1123C
1649.205	11.161	826764	REC_WORD	11.161	n/a	TOAD	-999	13	[0, 0, 0]	n/a	FR1	0	R1123C
1660.366	2.527	832344	REC_END	n/a	n/a	n/a	-999	13	[0, 0, 0]	n/a	FR1	0	R1123C
1662.893	0.0	833607	TRIAL	n/a	n/a	n/a	-999	14	[0, 0, 0]	n/a	FR1	0	R1123C
1662.893	10.428	833607	COUNTDOWN_START	n/a	n/a	n/a	-999	14	[0, 0, 0]	n/a	FR1	0	R1123C
1673.321	0.007	838821	COUNTDOWN_END	n/a	n/a	n/a	-999	14	[0, 0, 0]	n/a	FR1	0	R1123C
1673.328	2.601	838824	ORIENT	n/a	n/a	n/a	-999	14	[0, 0, 0]	n/a	FR1	0	R1123C
1675.929	2.435	840125	WORD	n/a	wordpools/wordpool_EN.txt	STRING	1	14	[0, 0, 0]	n/a	FR1	0	R1123C
1678.364	2.482	841342	WORD	n/a	wordpools/wordpool_EN.txt	DOLL	2	14	[0, 0, 0]	n/a	FR1	0	R1123C
1680.846	2.468	842583	WORD	n/a	wordpools/wordpool_EN.txt	FROG	3	14	[0, 0, 0]	n/a	FR1	0	R1123C
1683.314	2.451	843817	WORD	n/a	wordpools/wordpool_EN.txt	ROOM	4	14	[0, 0, 0]	n/a	FR1	0	R1123C
1685.765	2.499	845042	WORD	n/a	wordpools/wordpool_EN.txt	CHAIR	5	14	[0, 0, 0]	n/a	FR1	0	R1123C
1688.264	2.552	846292	WORD	n/a	wordpools/wordpool_EN.txt	LAWN	6	14	[0, 0, 0]	n/a	FR1	0	R1123C
1690.816	2.6	847568	WORD	n/a	wordpools/wordpool_EN.txt	HORN	7	14	[0, 0, 0]	n/a	FR1	0	R1123C
1693.416	2.567	848868	WORD	n/a	wordpools/wordpool_EN.txt	BOARD	8	14	[0, 0, 0]	n/a	FR1	0	R1123C
1695.983	2.534	850151	WORD	n/a	wordpools/wordpool_EN.txt	HAND	9	14	[0, 0, 0]	n/a	FR1	0	R1123C
1698.517	2.583	851418	WORD	n/a	wordpools/wordpool_EN.txt	DOOR	10	14	[0, 0, 0]	n/a	FR1	0	R1123C
1701.1	2.468	852709	WORD	n/a	wordpools/wordpool_EN.txt	WOOD	11	14	[0, 0, 0]	n/a	FR1	0	R1123C
1703.568	1.616	853943	WORD	n/a	wordpools/wordpool_EN.txt	DRUM	12	14	[0, 0, 0]	n/a	FR1	0	R1123C
1705.184	0.001	854751	DISTRACT_START	n/a	n/a	n/a	-999	14	[0, 0, 0]	n/a	FR1	0	R1123C
1705.185	0.016	854752	START	n/a	n/a	n/a	-999	14	[-999, -999, -999]	n/a	FR1	0	R1123C
1705.201	5.352	854760	PROB	5.352	n/a	n/a	-999	14	[5, 6, 5]	16	FR1	0	R1123C
1710.553	7.333	857435	PROB	7.333	n/a	n/a	-999	14	[1, 2, 4]	7	FR1	0	R1123C
1717.886	6.285	861102	PROB	6.285	n/a	n/a	-999	14	[9, 9, 8]	26	FR1	0	R1123C
1724.171	9.798	864244	PROB	9.798	n/a	n/a	-999	14	[7, 5, 4]	16	FR1	0	R1123C
1733.969	0.004	869142	STOP	n/a	n/a	n/a	-999	14	[-999, -999, -999]	n/a	FR1	0	R1123C
1733.973	1.218	869144	DISTRACT_END	n/a	n/a	n/a	-999	14	[0, 0, 0]	n/a	FR1	0	R1123C
1735.191	0.654	869753	REC_START	n/a	n/a	n/a	-999	14	[0, 0, 0]	n/a	FR1	0	R1123C
1735.845	1.653	870080	REC_WORD	1.653	n/a	HAND	-999	14	[0, 0, 0]	n/a	FR1	0	R1123C
1737.498	1.817	870907	REC_WORD	1.817	n/a	WOOD	-999	14	[0, 0, 0]	n/a	FR1	0	R1123C
1739.315	25.886	871815	REC_WORD	25.886	n/a	DRUM	-999	14	[0, 0, 0]	n/a	FR1	0	R1123C
1765.201	2.496	884757	REC_END	n/a	n/a	n/a	-999	14	[0, 0, 0]	n/a	FR1	0	R1123C
1767.697	0.0	886005	TRIAL	n/a	n/a	n/a	-999	15	[0, 0, 0]	n/a	FR1	0	R1123C
1767.697	10.428	886005	COUNTDOWN_START	n/a	n/a	n/a	-999	15	[0, 0, 0]	n/a	FR1	0	R1123C
1778.125	0.006	891219	COUNTDOWN_END	n/a	n/a	n/a	-999	15	[0, 0, 0]	n/a	FR1	0	R1123C
1778.131	2.485	891222	ORIENT	n/a	n/a	n/a	-999	15	[0, 0, 0]	n/a	FR1	0	R1123C
1780.616	2.55	892464	WORD	n/a	wordpools/wordpool_EN.txt	PEN	1	15	[0, 0, 0]	n/a	FR1	0	R1123C
1783.166	2.451	893739	WORD	n/a	wordpools/wordpool_EN.txt	TEA	2	15	[0, 0, 0]	n/a	FR1	0	R1123C
1785.617	2.516	894964	WORD	n/a	wordpools/wordpool_EN.txt	JAR	3	15	[0, 0, 0]	n/a	FR1	0	R1123C
1788.133	2.418	896222	WORD	n/a	wordpools/wordpool_EN.txt	RIB	4	15	[0, 0, 0]	n/a	FR1	0	R1123C
1790.551	2.567	897431	WORD	n/a	wordpools/wordpool_EN.txt	STEAK	5	15	[0, 0, 0]	n/a	FR1	0	R1123C
1793.118	2.568	898714	WORD	n/a	wordpools/wordpool_EN.txt	TRAY	6	15	[0, 0, 0]	n/a	FR1	0	R1123C
1795.686	2.599	899998	WORD	n/a	wordpools/wordpool_EN.txt	STOOL	7	15	[0, 0, 0]	n/a	FR1	0	R1123C
1798.285	2.551	901298	WORD	n/a	wordpools/wordpool_EN.txt	MILK	8	15	[0, 0, 0]	n/a	FR1	0	R1123C
1800.836	2.618	902573	WORD	n/a	wordpools/wordpool_EN.txt	VASE	9	15	[0, 0, 0]	n/a	FR1	0	R1123C
1803.454	2.449	903882	WORD	n/a	wordpools/wordpool_EN.txt	CANE	10	15	[0, 0, 0]	n/a	FR1	0	R1123C
1805.903	2.485	905106	WORD	n/a	wordpools/wordpool_EN.txt	RAT	11	15	[0, 0, 0]	n/a	FR1	0	R1123C
1808.388	1.616	906349	WORD	n/a	wordpools/wordpool_EN.txt	DESK	12	15	[0, 0, 0]	n/a	FR1	0	R1123C
1810.004	0.001	907157	DISTRACT_START	n/a	n/a	n/a	-999	15	[0, 0, 0]	n/a	FR1	0	R1123C
1810.005	0.016	907157	START	n/a	n/a	n/a	-999	15	[-999, -999, -999]	n/a	FR1	0	R1123C
1810.021	5.768	907165	PROB	5.768	n/a	n/a	-999	15	[9, 3, 2]	14	FR1	0	R1123C
1815.789	6.868	910049	PROB	6.868	n/a	n/a	-999	15	[6, 4, 5]	15	FR1	0	R1123C
1822.657	4.634	913483	PROB	4.634	n/a	n/a	-999	15	[7, 4, 7]	18	FR1	0	R1123C
1827.291	6.014	915800	PROB	6.014	n/a	n/a	-999	15	[3, 5, 6]	14	FR1	0	R1123C
1833.305	0.02	918806	STOP	n/a	n/a	n/a	-999	15	[-999, -999, -999]	n/a	FR1	0	R1123C
1833.325	1.152	918816	DISTRACT_END	n/a	n/a	n/a	-999	15	[0, 0, 0]	n/a	FR1	0	R1123C
1834.477	0.996	919392	REC_START	n/a	n/a	n/a	-999	15	[0, 0, 0]	n/a	FR1	0	R1123C
1835.473	1.496	919890	REC_WORD	1.496	n/a	DESK	-999	15	[0, 0, 0]	n/a	FR1	0	R1123C
1836.969	22.646	920638	REC_WORD	22.646	n/a	WOOD	-999	15	[0, 0, 0]	n/a	FR1	0	R1123C
1859.615	4.872	931960	REC_WORD	4.872	n/a	WOOL	-999	15	[0, 0, 0]	n/a	FR1	0	R1123C
1864.487	3.012	934396	REC_END	n/a	n/a	n/a	-999	15	[0, 0, 0]	n/a	FR1	0	R1123C
1867.499	0.0	935902	TRIAL	n/a	n/a	n/a	-999	16	[0, 0, 0]	n/a	FR1	0	R1123C
1867.499	10.428	935902	COUNTDOWN_START	n/a	n/a	n/a	-999	16	[0, 0, 0]	n/a	FR1	0	R1123C
1877.927	0.006	941115	COUNTDOWN_END	n/a	n/a	n/a	-999	16	[0, 0, 0]	n/a	FR1	0	R1123C
1877.933	2.602	941118	ORIENT	n/a	n/a	n/a	-999	16	[0, 0, 0]	n/a	FR1	0	R1123C
1880.535	2.499	942419	WORD	n/a	wordpools/wordpool_EN.txt	GATE	1	16	[0, 0, 0]	n/a	FR1	0	R1123C
1883.034	2.585	943669	WORD	n/a	wordpools/wordpool_EN.txt	DRESS	2	16	[0, 0, 0]	n/a	FR1	0	R1123C
1885.619	2.566	944961	WORD	n/a	wordpools/wordpool_EN.txt	SEAT	3	16	[0, 0, 0]	n/a	FR1	0	R1123C
1888.185	2.469	946244	WORD	n/a	wordpools/wordpool_EN.txt	FACE	4	16	[0, 0, 0]	n/a	FR1	0	R1123C
1890.654	2.416	947478	WORD	n/a	wordpools/wordpool_EN.txt	ROSE	5	16	[0, 0, 0]	n/a	FR1	0	R1123C
1893.07	2.501	948686	WORD	n/a	wordpools/wordpool_EN.txt	MUG	6	16	[0, 0, 0]	n/a	FR1	0	R1123C
1895.571	2.399	949937	WORD	n/a	wordpools/wordpool_EN.txt	SMILE	7	16	[0, 0, 0]	n/a	FR1	0	R1123C
1897.97	2.385	951136	WORD	n/a	wordpools/wordpool_EN.txt	TIE	8	16	[0, 0, 0]	n/a	FR1	0	R1123C
1900.355	2.567	952329	WORD	n/a	wordpools/wordpool_EN.txt	JAIL	9	16	[0, 0, 0]	n/a	FR1	0	R1123C
1902.922	2.417	953612	WORD	n/a	wordpools/wordpool_EN.txt	SINK	10	16	[0, 0, 0]	n/a	FR1	0	R1123C
1905.339	2.5	954820	WORD	n/a	wordpools/wordpool_EN.txt	CHEEK	11	16	[0, 0, 0]	n/a	FR1	0	R1123C
1907.839	1.601	956070	WORD	n/a	wordpools/wordpool_EN.txt	WORLD	12	16	[0, 0, 0]	n/a	FR1	0	R1123C
1909.44	0.001	956871	DISTRACT_START	n/a	n/a	n/a	-999	16	[0, 0, 0]	n/a	FR1	0	R1123C
1909.441	0.016	956871	START	n/a	n/a	n/a	-999	16	[-999, -999, -999]	n/a	FR1	0	R1123C
1909.457	6.985	956879	PROB	6.985	n/a	n/a	-999	16	[6, 7, 7]	20	FR1	0	R1123C
1916.442	8.985	960371	PROB	8.985	n/a	n/a	-999	16	[7, 6, 5]	18	FR1	0	R1123C
1925.427	5.087	964863	PROB	5.087	n/a	n/a	-999	16	[7, 1, 9]	17	FR1	0	R1123C
1930.514	0.014	967407	STOP	n/a	n/a	n/a	-999	16	[-999, -999, -999]	n/a	FR1	0	R1123C
1930.528	1.217	967414	DISTRACT_END	n/a	n/a	n/a	-999	16	[0, 0, 0]	n/a	FR1	0	R1123C
1931.745	0.881	968022	REC_START	n/a	n/a	n/a	-999	16	[0, 0, 0]	n/a	FR1	0	R1123C
1932.626	1.216	968463	REC_WORD	1.216	n/a	WOOL	-999	16	[0, 0, 0]	n/a	FR1	0	R1123C
1933.842	7.922	969071	REC_WORD	7.922	n/a	DRINK	-999	16	[0, 0, 0]	n/a	FR1	0	R1123C
1941.764	19.991	973031	REC_WORD	19.991	n/a	TIE	-999	16	[0, 0, 0]	n/a	FR1	0	R1123C
1961.755	2.561	983026	REC_END	n/a	n/a	n/a	-999	16	[0, 0, 0]	n/a	FR1	0	R1123C
1964.316	0.001	984306	COUNTDOWN_START	n/a	n/a	n/a	-999	17	[0, 0, 0]	n/a	FR1	0	R1123C
1964.317	10.427	984307	TRIAL	n/a	n/a	n/a	-999	17	[0, 0, 0]	n/a	FR1	0	R1123C
1974.744	0.009	989520	COUNTDOWN_END	n/a	n/a	n/a	-999	17	[0, 0, 0]	n/a	FR1	0	R1123C
1974.753	2.6	989524	ORIENT	n/a	n/a	n/a	-999	17	[0, 0, 0]	n/a	FR1	0	R1123C
1977.353	2.483	990824	WORD	n/a	wordpools/wordpool_EN.txt	MAT	1	17	[0, 0, 0]	n/a	FR1	0	R1123C
1979.836	2.518	992066	WORD	n/a	wordpools/wordpool_EN.txt	BAND	2	17	[0, 0, 0]	n/a	FR1	0	R1123C
1982.354	2.451	993325	WORD	n/a	wordpools/wordpool_EN.txt	SUN	3	17	[0, 0, 0]	n/a	FR1	0	R1123C
1984.805	2.482	994550	WORD	n/a	wordpools/wordpool_EN.txt	RUG	4	17	[0, 0, 0]	n/a	FR1	0	R1123C
1987.287	2.567	995791	WORD	n/a	wordpools/wordpool_EN.txt	FORK	5	17	[0, 0, 0]	n/a	FR1	0	R1123C
1989.854	2.602	997074	WORD	n/a	wordpools/wordpool_EN.txt	PEACH	6	17	[0, 0, 0]	n/a	FR1	0	R1123C
1992.456	2.483	998375	WORD	n/a	wordpools/wordpool_EN.txt	OAR	7	17	[0, 0, 0]	n/a	FR1	0	R1123C
1994.939	2.4	999617	WORD	n/a	wordpools/wordpool_EN.txt	SKY	8	17	[0, 0, 0]	n/a	FR1	0	R1123C
1997.339	2.468	1000817	WORD	n/a	wordpools/wordpool_EN.txt	BOAT	9	17	[0, 0, 0]	n/a	FR1	0	R1123C
1999.807	2.383	1002050	WORD	n/a	wordpools/wordpool_EN.txt	FOAM	10	17	[0, 0, 0]	n/a	FR1	0	R1123C
2002.19	2.535	1003242	WORD	n/a	wordpools/wordpool_EN.txt	EAR	11	17	[0, 0, 0]	n/a	FR1	0	R1123C
2004.725	1.617	1004509	WORD	n/a	wordpools/wordpool_EN.txt	CLIFF	12	17	[0, 0, 0]	n/a	FR1	0	R1123C
2006.342	0.001	1005318	DISTRACT_START	n/a	n/a	n/a	-999	17	[0, 0, 0]	n/a	FR1	0	R1123C
2006.343	0.016	1005318	START	n/a	n/a	n/a	-999	17	[-999, -999, -999]	n/a	FR1	0	R1123C
2006.359	7.234	1005326	PROB	7.234	n/a	n/a	-999	17	[8, 7, 1]	16	FR1	0	R1123C
2013.593	8.451	1008943	PROB	8.451	n/a	n/a	-999	17	[6, 4, 7]	17	FR1	0	R1123C
2022.044	3.635	1013168	PROB	3.635	n/a	n/a	-999	17	[1, 2, 9]	12	FR1	0	R1123C
2025.679	4.626	1014985	PROB	4.626	n/a	n/a	-999	17	[8, 2, 3]	13	FR1	0	R1123C
2030.305	0.007	1017298	STOP	n/a	n/a	n/a	-999	17	[-999, -999, -999]	n/a	FR1	0	R1123C
2030.312	1.118	1017302	DISTRACT_END	n/a	n/a	n/a	-999	17	[0, 0, 0]	n/a	FR1	0	R1123C
2031.43	0.963	1017861	REC_START	n/a	n/a	n/a	-999	17	[0, 0, 0]	n/a	FR1	0	R1123C
2032.393	1.883	1018342	REC_WORD	1.883	n/a	EAR	-999	17	[0, 0, 0]	n/a	FR1	0	R1123C
2034.276	27.168	1019283	REC_WORD	27.168	n/a	BOAT	-999	17	[0, 0, 0]	n/a	FR1	0	R1123C
2061.444	2.458	1032866	REC_END	n/a	n/a	n/a	-999	17	[0, 0, 0]	n/a	FR1	0	R1123C
2063.902	0.0	1034095	TRIAL	n/a	n/a	n/a	-999	18	[0, 0, 0]	n/a	FR1	0	R1123C
2063.902	10.428	1034095	COUNTDOWN_START	n/a	n/a	n/a	-999	18	[0, 0, 0]	n/a	FR1	0	R1123C
2074.33	0.007	1039309	COUNTDOWN_END	n/a	n/a	n/a	-999	18	[0, 0, 0]	n/a	FR1	0	R1123C
2074.337	2.517	1039312	ORIENT	n/a	n/a	n/a	-999	18	[0, 0, 0]	n/a	FR1	0	R1123C
2076.854	2.451	1040571	WORD	n/a	wordpools/wordpool_EN.txt	GLASS	1	18	[0, 0, 0]	n/a	FR1	0	R1123C
2079.305	2.501	1041796	WORD	n/a	wordpools/wordpool_EN.txt	STREET	2	18	[0, 0, 0]	n/a	FR1	0	R1123C
2081.806	2.4	1043047	WORD	n/a	wordpools/wordpool_EN.txt	STAIR	3	18	[0, 0, 0]	n/a	FR1	0	R1123C
2084.206	2.518	1044246	WORD	n/a	wordpools/wordpool_EN.txt	STORE	4	18	[0, 0, 0]	n/a	FR1	0	R1123C
2086.724	2.482	1045505	WORD	n/a	wordpools/wordpool_EN.txt	PHONE	5	18	[0, 0, 0]	n/a	FR1	0	R1123C
2089.206	2.552	1046746	WORD	n/a	wordpools/wordpool_EN.txt	NAIL	6	18	[0, 0, 0]	n/a	FR1	0	R1123C
2091.758	2.6	1048022	WORD	n/a	wordpools/wordpool_EN.txt	PET	7	18	[0, 0, 0]	n/a	FR1	0	R1123C
2094.358	2.401	1049322	WORD	n/a	wordpools/wordpool_EN.txt	BOOK	8	18	[0, 0, 0]	n/a	FR1	0	R1123C
2096.759	2.6	1050522	WORD	n/a	wordpools/wordpool_EN.txt	BOMB	9	18	[0, 0, 0]	n/a	FR1	0	R1123C
2099.359	2.468	1051822	WORD	n/a	wordpools/wordpool_EN.txt	BIRD	10	18	[0, 0, 0]	n/a	FR1	0	R1123C
2101.827	2.449	1053056	WORD	n/a	wordpools/wordpool_EN.txt	CAT	11	18	[0, 0, 0]	n/a	FR1	0	R1123C
2104.276	1.617	1054281	WORD	n/a	wordpools/wordpool_EN.txt	SHARK	12	18	[0, 0, 0]	n/a	FR1	0	R1123C
2105.893	0.001	1055089	DISTRACT_START	n/a	n/a	n/a	-999	18	[0, 0, 0]	n/a	FR1	0	R1123C
2105.894	0.016	1055090	START	n/a	n/a	n/a	-999	18	[-999, -999, -999]	n/a	FR1	0	R1123C
2105.91	4.234	1055098	PROB	4.234	n/a	n/a	-999	18	[1, 3, 3]	7	FR1	0	R1123C
2110.144	6.118	1057214	PROB	6.118	n/a	n/a	-999	18	[7, 2, 1]	10	FR1	0	R1123C
2116.262	6.601	1060273	PROB	6.601	n/a	n/a	-999	18	[8, 6, 2]	16	FR1	0	R1123C
2122.863	8.026	1063573	PROB	8.026	n/a	n/a	-999	18	[4, 6, 8]	18	FR1	0	R1123C
2130.889	0.009	1067586	STOP	n/a	n/a	n/a	-999	18	[-999, -999, -999]	n/a	FR1	0	R1123C
2130.898	1.034	1067590	DISTRACT_END	n/a	n/a	n/a	-999	18	[0, 0, 0]	n/a	FR1	0	R1123C
2131.932	0.718	1068107	REC_START	n/a	n/a	n/a	-999	18	[0, 0, 0]	n/a	FR1	0	R1123C
2132.65	2.191	1068466	REC_WORD	2.191	n/a	SHARK	-999	18	[0, 0, 0]	n/a	FR1	0	R1123C
2134.841	2.025	1069562	REC_WORD	2.025	n/a	WOOL	-999	18	[0, 0, 0]	n/a	FR1	0	R1123C
2136.866	9.698	1070574	REC_WORD	9.698	n/a	COW	-999	18	[0, 0, 0]	n/a	FR1	0	R1123C
2146.564	14.804	1075423	REC_WORD	14.804	n/a	BRIDGE	-999	18	[0, 0, 0]	n/a	FR1	0	R1123C
2161.368	0.574	1082824	REC_WORD	0.574	n/a	SHARK	-999	18	[0, 0, 0]	n/a	FR1	0	R1123C
2161.942	3.345	1083111	REC_END	n/a	n/a	n/a	-999	18	[0, 0, 0]	n/a	FR1	0	R1123C
2165.287	0.001	1084784	COUNTDOWN_START	n/a	n/a	n/a	-999	19	[0, 0, 0]	n/a	FR1	0	R1123C
2165.288	10.427	1084784	TRIAL	n/a	n/a	n/a	-999	19	[0, 0, 0]	n/a	FR1	0	R1123C
2175.715	0.009	1089997	COUNTDOWN_END	n/a	n/a	n/a	-999	19	[0, 0, 0]	n/a	FR1	0	R1123C
2175.724	2.634	1090002	ORIENT	n/a	n/a	n/a	-999	19	[0, 0, 0]	n/a	FR1	0	R1123C
2178.358	2.383	1091319	WORD	n/a	wordpools/wordpool_EN.txt	SOUP	1	19	[0, 0, 0]	n/a	FR1	0	R1123C
2180.741	2.483	1092510	WORD	n/a	wordpools/wordpool_EN.txt	PIN	2	19	[0, 0, 0]	n/a	FR1	0	R1123C
2183.224	2.568	1093751	WORD	n/a	wordpools/wordpool_EN.txt	VEST	3	19	[0, 0, 0]	n/a	FR1	0	R1123C
2185.792	2.551	1095035	WORD	n/a	wordpools/wordpool_EN.txt	TOAST	4	19	[0, 0, 0]	n/a	FR1	0	R1123C
2188.343	2.434	1096311	WORD	n/a	wordpools/wordpool_EN.txt	THREAD	5	19	[0, 0, 0]	n/a	FR1	0	R1123C
2190.777	2.532	1097527	WORD	n/a	wordpools/wordpool_EN.txt	SOAP	6	19	[0, 0, 0]	n/a	FR1	0	R1123C
2193.309	2.485	1098793	WORD	n/a	wordpools/wordpool_EN.txt	CHALK	7	19	[0, 0, 0]	n/a	FR1	0	R1123C
2195.794	2.433	1100036	WORD	n/a	wordpools/wordpool_EN.txt	LAMP	8	19	[0, 0, 0]	n/a	FR1	0	R1123C
2198.227	2.501	1101252	WORD	n/a	wordpools/wordpool_EN.txt	TOOL	9	19	[0, 0, 0]	n/a	FR1	0	R1123C
2200.728	2.433	1102503	WORD	n/a	wordpools/wordpool_EN.txt	SPONGE	10	19	[0, 0, 0]	n/a	FR1	0	R1123C
2203.161	2.468	1103719	WORD	n/a	wordpools/wordpool_EN.txt	FUDGE	11	19	[0, 0, 0]	n/a	FR1	0	R1123C
2205.629	1.616	1104953	WORD	n/a	wordpools/wordpool_EN.txt	SHIRT	12	19	[0, 0, 0]	n/a	FR1	0	R1123C
2207.245	0.001	1105761	DISTRACT_START	n/a	n/a	n/a	-999	19	[0, 0, 0]	n/a	FR1	0	R1123C
2207.246	0.016	1105761	START	n/a	n/a	n/a	-999	19	[-999, -999, -999]	n/a	FR1	0	R1123C
2207.262	11.836	1105769	PROB	11.836	n/a	n/a	-999	19	[9, 4, 5]	18	FR1	0	R1123C
2219.098	5.067	1111687	PROB	5.067	n/a	n/a	-999	19	[1, 4, 7]	12	FR1	0	R1123C
2224.165	6.932	1114220	PROB	6.932	n/a	n/a	-999	19	[8, 7, 8]	23	FR1	0	R1123C
2231.097	0.019	1117686	STOP	n/a	n/a	n/a	-999	19	[-999, -999, -999]	n/a	FR1	0	R1123C
2231.116	1.051	1117695	DISTRACT_END	n/a	n/a	n/a	-999	19	[0, 0, 0]	n/a	FR1	0	R1123C
2232.167	1.023	1118221	REC_START	n/a	n/a	n/a	-999	19	[0, 0, 0]	n/a	FR1	0	R1123C
2233.19	1.88	1118732	REC_WORD	1.88	n/a	FOOT	-999	19	[0, 0, 0]	n/a	FR1	0	R1123C
2235.07	10.407	1119672	REC_WORD	10.407	n/a	WALL	-999	19	[0, 0, 0]	n/a	FR1	0	R1123C
2245.477	8.571	1124875	REC_WORD	8.571	n/a	SNAKE	-999	19	[0, 0, 0]	n/a	FR1	0	R1123C
2254.048	3.991	1129160	REC_WORD	3.991	n/a	FRIDGE	-999	19	[0, 0, 0]	n/a	FR1	0	R1123C
2258.039	4.142	1131156	REC_WORD	4.142	n/a	APPLE	-999	19	[0, 0, 0]	n/a	FR1	0	R1123C
2262.181	2.925	1133227	REC_END	n/a	n/a	n/a	-999	19	[0, 0, 0]	n/a	FR1	0	R1123C
2265.106	0.0	1134689	TRIAL	n/a	n/a	n/a	-999	20	[0, 0, 0]	n/a	FR1	0	R1123C
2265.106	10.428	1134689	COUNTDOWN_START	n/a	n/a	n/a	-999	20	[0, 0, 0]	n/a	FR1	0	R1123C
2275.534	0.009	1139902	COUNTDOWN_END	n/a	n/a	n/a	-999	20	[0, 0, 0]	n/a	FR1	0	R1123C
2275.543	2.449	1139907	ORIENT	n/a	n/a	n/a	-999	20	[0, 0, 0]	n/a	FR1	0	R1123C
2277.992	2.451	1141131	WORD	n/a	wordpools/wordpool_EN.txt	DOCK	1	20	[0, 0, 0]	n/a	FR1	0	R1123C
2280.443	2.567	1142357	WORD	n/a	wordpools/wordpool_EN.txt	JET	2	20	[0, 0, 0]	n/a	FR1	0	R1123C
2283.01	2.484	1143640	WORD	n/a	wordpools/wordpool_EN.txt	MOUTH	3	20	[0, 0, 0]	n/a	FR1	0	R1123C
2285.494	2.516	1144882	WORD	n/a	wordpools/wordpool_EN.txt	PIE	4	20	[0, 0, 0]	n/a	FR1	0	R1123C
2288.01	2.602	1146140	WORD	n/a	wordpools/wordpool_EN.txt	STOVE	5	20	[0, 0, 0]	n/a	FR1	0	R1123C
2290.612	2.599	1147441	WORD	n/a	wordpools/wordpool_EN.txt	SPARK	6	20	[0, 0, 0]	n/a	FR1	0	R1123C
2293.211	2.369	1148740	WORD	n/a	wordpools/wordpool_EN.txt	PASTE	7	20	[0, 0, 0]	n/a	FR1	0	R1123C
2295.58	2.416	1149925	WORD	n/a	wordpools/wordpool_EN.txt	PEA	8	20	[0, 0, 0]	n/a	FR1	0	R1123C
2297.996	2.518	1151133	WORD	n/a	wordpools/wordpool_EN.txt	STEAM	9	20	[0, 0, 0]	n/a	FR1	0	R1123C
2300.514	2.599	1152391	WORD	n/a	wordpools/wordpool_EN.txt	SMOKE	10	20	[0, 0, 0]	n/a	FR1	0	R1123C
2303.113	2.518	1153691	WORD	n/a	wordpools/wordpool_EN.txt	VAN	11	20	[0, 0, 0]	n/a	FR1	0	R1123C
2305.631	1.616	1154950	WORD	n/a	wordpools/wordpool_EN.txt	PLANE	12	20	[0, 0, 0]	n/a	FR1	0	R1123C
2307.247	0.001	1155758	DISTRACT_START	n/a	n/a	n/a	-999	20	[0, 0, 0]	n/a	FR1	0	R1123C
2307.248	0.016	1155758	START	n/a	n/a	n/a	-999	20	[-999, -999, -999]	n/a	FR1	0	R1123C
2307.264	4.552	1155766	PROB	4.552	n/a	n/a	-999	20	[5, 5, 6]	16	FR1	0	R1123C
2311.816	7.334	1158042	PROB	7.334	n/a	n/a	-999	20	[9, 9, 8]	26	FR1	0	R1123C
2319.15	5.535	1161709	PROB	5.535	n/a	n/a	-999	20	[9, 1, 5]	15	FR1	0	R1123C
2324.685	8.172	1164476	PROB	8.172	n/a	n/a	-999	20	[6, 6, 6]	18	FR1	0	R1123C
2332.857	0.012	1168562	STOP	n/a	n/a	n/a	-999	20	[-999, -999, -999]	n/a	FR1	0	R1123C
2332.869	1.134	1168568	DISTRACT_END	n/a	n/a	n/a	-999	20	[0, 0, 0]	n/a	FR1	0	R1123C
2334.003	0.725	1169135	REC_START	n/a	n/a	n/a	-999	20	[0, 0, 0]	n/a	FR1	0	R1123C
2334.728	1.771	1169497	REC_WORD	1.771	n/a	SMOKE	-999	20	[0, 0, 0]	n/a	FR1	0	R1123C
2336.499	6.315	1170382	REC_WORD	6.315	n/a	BATHE	-999	20	[0, 0, 0]	n/a	FR1	0	R1123C
2342.814	21.199	1173540	REC_WORD	21.199	n/a	TIE	-999	20	[0, 0, 0]	n/a	FR1	0	R1123C
2364.013	4.863	1184138	REC_END	n/a	n/a	n/a	-999	20	[0, 0, 0]	n/a	FR1	0	R1123C
2368.876	0.0	1186570	TRIAL	n/a	n/a	n/a	-999	21	[0, 0, 0]	n/a	FR1	0	R1123C
2368.876	10.428	1186570	COUNTDOWN_START	n/a	n/a	n/a	-999	21	[0, 0, 0]	n/a	FR1	0	R1123C
2379.304	0.007	1191783	COUNTDOWN_END	n/a	n/a	n/a	-999	21	[0, 0, 0]	n/a	FR1	0	R1123C
2379.311	2.501	1191787	ORIENT	n/a	n/a	n/a	-999	21	[0, 0, 0]	n/a	FR1	0	R1123C
2381.812	2.383	1193037	WORD	n/a	wordpools/wordpool_EN.txt	LAND	1	21	[0, 0, 0]	n/a	FR1	0	R1123C
2384.195	2.602	1194228	WORD	n/a	wordpools/wordpool_EN.txt	CLAY	2	21	[0, 0, 0]	n/a	FR1	0	R1123C
2386.797	2.432	1195529	WORD	n/a	wordpools/wordpool_EN.txt	RAIN	3	21	[0, 0, 0]	n/a	FR1	0	R1123C
2389.229	2.419	1196745	WORD	n/a	wordpools/wordpool_EN.txt	CLOTH	4	21	[0, 0, 0]	n/a	FR1	0	R1123C
2391.648	2.399	1197955	WORD	n/a	wordpools/wordpool_EN.txt	CROWN	5	21	[0, 0, 0]	n/a	FR1	0	R1123C
2394.047	2.402	1199154	WORD	n/a	wordpools/wordpool_EN.txt	STRAW	6	21	[0, 0, 0]	n/a	FR1	0	R1123C
2396.449	2.599	1200355	WORD	n/a	wordpools/wordpool_EN.txt	GOLD	7	21	[0, 0, 0]	n/a	FR1	0	R1123C
2399.048	2.418	1201654	WORD	n/a	wordpools/wordpool_EN.txt	SLIME	8	21	[0, 0, 0]	n/a	FR1	0	R1123C
2401.466	2.533	1202863	WORD	n/a	wordpools/wordpool_EN.txt	SWORD	9	21	[0, 0, 0]	n/a	FR1	0	R1123C
2403.999	2.601	1204130	WORD	n/a	wordpools/wordpool_EN.txt	VINE	10	21	[0, 0, 0]	n/a	FR1	0	R1123C
2406.6	2.467	1205430	WORD	n/a	wordpools/wordpool_EN.txt	COIN	11	21	[0, 0, 0]	n/a	FR1	0	R1123C
2409.067	1.617	1206663	WORD	n/a	wordpools/wordpool_EN.txt	CORN	12	21	[0, 0, 0]	n/a	FR1	0	R1123C
2410.684	0.001	1207472	DISTRACT_START	n/a	n/a	n/a	-999	21	[0, 0, 0]	n/a	FR1	0	R1123C
2410.685	0.016	1207472	START	n/a	n/a	n/a	-999	21	[-999, -999, -999]	n/a	FR1	0	R1123C
2410.701	6.617	1207480	PROB	6.617	n/a	n/a	-999	21	[9, 8, 4]	21	FR1	0	R1123C
2417.318	8.353	1210789	PROB	8.353	n/a	n/a	-999	21	[3, 2, 5]	10	FR1	0	R1123C
2425.671	4.084	1214965	PROB	4.084	n/a	n/a	-999	21	[2, 6, 3]	11	FR1	0	R1123C
2429.755	7.031	1217007	PROB	7.031	n/a	n/a	-999	21	[3, 8, 9]	20	FR1	0	R1123C
2436.786	0.02	1220522	STOP	n/a	n/a	n/a	-999	21	[-999, -999, -999]	n/a	FR1	0	R1123C
2436.806	1.083	1220532	DISTRACT_END	n/a	n/a	n/a	-999	21	[0, 0, 0]	n/a	FR1	0	R1123C
2437.889	1.376	1221073	REC_START	n/a	n/a	n/a	-999	21	[0, 0, 0]	n/a	FR1	0	R1123C
2439.265	1.968	1221761	REC_WORD	1.968	n/a	CORN	-999	21	[0, 0, 0]	n/a	FR1	0	R1123C
2441.233	26.667	1222745	REC_WORD	26.667	n/a	GOAT	-999	21	[0, 0, 0]	n/a	FR1	0	R1123C
2467.9	3.145	1236077	REC_END	n/a	n/a	n/a	-999	21	[0, 0, 0]	n/a	FR1	0	R1123C
2471.045	0.0	1237650	TRIAL	n/a	n/a	n/a	-999	22	[0, 0, 0]	n/a	FR1	0	R1123C
2471.045	10.428	1237650	COUNTDOWN_START	n/a	n/a	n/a	-999	22	[0, 0, 0]	n/a	FR1	0	R1123C
2481.473	0.008	1242863	COUNTDOWN_END	n/a	n/a	n/a	-999	22	[0, 0, 0]	n/a	FR1	0	R1123C
2481.481	2.516	1242867	ORIENT	n/a	n/a	n/a	-999	22	[0, 0, 0]	n/a	FR1	0	R1123C
2483.997	2.451	1244125	WORD	n/a	wordpools/wordpool_EN.txt	BEACH	1	22	[0, 0, 0]	n/a	FR1	0	R1123C
2486.448	2.517	1245351	WORD	n/a	wordpools/wordpool_EN.txt	ROCK	2	22	[0, 0, 0]	n/a	FR1	0	R1123C
2488.965	2.501	1246609	WORD	n/a	wordpools/wordpool_EN.txt	HEART	3	22	[0, 0, 0]	n/a	FR1	0	R1123C
2491.466	2.4	1247860	WORD	n/a	wordpools/wordpool_EN.txt	LEAF	4	22	[0, 0, 0]	n/a	FR1	0	R1123C
2493.866	2.601	1249059	WORD	n/a	wordpools/wordpool_EN.txt	LAKE	5	22	[0, 0, 0]	n/a	FR1	0	R1123C
2496.467	2.617	1250360	WORD	n/a	wordpools/wordpool_EN.txt	JUDGE	6	22	[0, 0, 0]	n/a	FR1	0	R1123C
2499.084	2.501	1251668	WORD	n/a	wordpools/wordpool_EN.txt	SHIP	7	22	[0, 0, 0]	n/a	FR1	0	R1123C
2501.585	2.433	1252919	WORD	n/a	wordpools/wordpool_EN.txt	APE	8	22	[0, 0, 0]	n/a	FR1	0	R1123C
2504.018	2.601	1254135	WORD	n/a	wordpools/wordpool_EN.txt	SHELL	9	22	[0, 0, 0]	n/a	FR1	0	R1123C
2506.619	2.616	1255435	WORD	n/a	wordpools/wordpool_EN.txt	CHIEF	10	22	[0, 0, 0]	n/a	FR1	0	R1123C
2509.235	2.585	1256743	WORD	n/a	wordpools/wordpool_EN.txt	CAPE	11	22	[0, 0, 0]	n/a	FR1	0	R1123C
2511.82	1.617	1258036	WORD	n/a	wordpools/wordpool_EN.txt	BRANCH	12	22	[0, 0, 0]	n/a	FR1	0	R1123C
2513.437	0.001	1258844	DISTRACT_START	n/a	n/a	n/a	-999	22	[0, 0, 0]	n/a	FR1	0	R1123C
2513.438	0.016	1258845	START	n/a	n/a	n/a	-999	22	[-999, -999, -999]	n/a	FR1	0	R1123C
2513.454	7.318	1258853	PROB	7.318	n/a	n/a	-999	22	[8, 7, 3]	18	FR1	0	R1123C
2520.772	6.183	1262511	PROB	6.183	n/a	n/a	-999	22	[6, 6, 7]	19	FR1	0	R1123C
2526.955	7.942	1265603	PROB	7.942	n/a	n/a	-999	22	[5, 8, 6]	19	FR1	0	R1123C
2534.897	0.01	1269573	STOP	n/a	n/a	n/a	-999	22	[-999, -999, -999]	n/a	FR1	0	R1123C
2534.907	1.201	1269578	DISTRACT_END	n/a	n/a	n/a	-999	22	[0, 0, 0]	n/a	FR1	0	R1123C
2536.108	0.973	1270179	REC_START	n/a	n/a	n/a	-999	22	[0, 0, 0]	n/a	FR1	0	R1123C
2537.081	3.645	1270665	REC_WORD	3.645	n/a	BRANCH	-999	22	[0, 0, 0]	n/a	FR1	0	R1123C
2540.726	25.392	1272487	REC_WORD	25.392	n/a	GOAT	-999	22	[0, 0, 0]	n/a	FR1	0	R1123C
2566.118	2.63	1285182	REC_END	n/a	n/a	n/a	-999	22	[0, 0, 0]	n/a	FR1	0	R1123C
2568.748	0.0	1286497	TRIAL	n/a	n/a	n/a	-999	23	[0, 0, 0]	n/a	FR1	0	R1123C
2568.748	10.428	1286497	COUNTDOWN_START	n/a	n/a	n/a	-999	23	[0, 0, 0]	n/a	FR1	0	R1123C
2579.176	0.006	1291711	COUNTDOWN_END	n/a	n/a	n/a	-999	23	[0, 0, 0]	n/a	FR1	0	R1123C
2579.182	2.435	1291714	ORIENT	n/a	n/a	n/a	-999	23	[0, 0, 0]	n/a	FR1	0	R1123C
2581.617	2.432	1292931	WORD	n/a	wordpools/wordpool_EN.txt	EGG	1	23	[0, 0, 0]	n/a	FR1	0	R1123C
2584.049	2.485	1294147	WORD	n/a	wordpools/wordpool_EN.txt	HILL	2	23	[0, 0, 0]	n/a	FR1	0	R1123C
2586.534	2.483	1295390	WORD	n/a	wordpools/wordpool_EN.txt	ELF	3	23	[0, 0, 0]	n/a	FR1	0	R1123C
2589.017	2.485	1296631	WORD	n/a	wordpools/wordpool_EN.txt	WALL	4	23	[0, 0, 0]	n/a	FR1	0	R1123C
2591.502	2.499	1297873	WORD	n/a	wordpools/wordpool_EN.txt	HOLE	5	23	[0, 0, 0]	n/a	FR1	0	R1123C
2594.001	2.568	1299123	WORD	n/a	wordpools/wordpool_EN.txt	PLATE	6	23	[0, 0, 0]	n/a	FR1	0	R1123C
2596.569	2.567	1300407	WORD	n/a	wordpools/wordpool_EN.txt	GEESE	7	23	[0, 0, 0]	n/a	FR1	0	R1123C
2599.136	2.384	1301690	WORD	n/a	wordpools/wordpool_EN.txt	PARK	8	23	[0, 0, 0]	n/a	FR1	0	R1123C
2601.52	2.533	1302882	WORD	n/a	wordpools/wordpool_EN.txt	LIP	9	23	[0, 0, 0]	n/a	FR1	0	R1123C
2604.053	2.518	1304148	WORD	n/a	wordpools/wordpool_EN.txt	BENCH	10	23	[0, 0, 0]	n/a	FR1	0	R1123C
2606.571	2.583	1305407	WORD	n/a	wordpools/wordpool_EN.txt	GUARD	11	23	[0, 0, 0]	n/a	FR1	0	R1123C
2609.154	1.601	1306699	WORD	n/a	wordpools/wordpool_EN.txt	FOOT	12	23	[0, 0, 0]	n/a	FR1	0	R1123C
2610.755	0.001	1307499	DISTRACT_START	n/a	n/a	n/a	-999	23	[0, 0, 0]	n/a	FR1	0	R1123C
2610.756	0.016	1307500	START	n/a	n/a	n/a	-999	23	[-999, -999, -999]	n/a	FR1	0	R1123C
2610.772	7.835	1307508	PROB	7.835	n/a	n/a	-999	23	[8, 5, 3]	16	FR1	0	R1123C
2618.607	4.666	1311425	PROB	4.666	n/a	n/a	-999	23	[6, 2, 6]	14	FR1	0	R1123C
2623.273	10.056	1313758	PROB	10.056	n/a	n/a	-999	23	[5, 8, 4]	18	FR1	0	R1123C
2633.329	0.014	1318785	STOP	n/a	n/a	n/a	-999	23	[-999, -999, -999]	n/a	FR1	0	R1123C
2633.343	1.218	1318792	DISTRACT_END	n/a	n/a	n/a	-999	23	[0, 0, 0]	n/a	FR1	0	R1123C
2634.561	1.254	1319401	REC_START	n/a	n/a	n/a	-999	23	[0, 0, 0]	n/a	FR1	0	R1123C
2635.815	2.106	1320028	REC_WORD	2.106	n/a	GOAT	-999	23	[0, 0, 0]	n/a	FR1	0	R1123C
2637.921	2.664	1321081	REC_WORD	2.664	n/a	FOOT	-999	23	[0, 0, 0]	n/a	FR1	0	R1123C
2640.585	23.986	1322413	REC_WORD	23.986	n/a	GUARD	-999	23	[0, 0, 0]	n/a	FR1	0	R1123C
2664.571	2.878	1334405	REC_END	n/a	n/a	n/a	-999	23	[0, 0, 0]	n/a	FR1	0	R1123C
2667.449	0.001	1335844	COUNTDOWN_START	n/a	n/a	n/a	-999	24	[0, 0, 0]	n/a	FR1	0	R1123C
2667.45	10.427	1335844	TRIAL	n/a	n/a	n/a	-999	24	[0, 0, 0]	n/a	FR1	0	R1123C
2677.877	0.007	1341057	COUNTDOWN_END	n/a	n/a	n/a	-999	24	[0, 0, 0]	n/a	FR1	0	R1123C
2677.884	2.568	1341061	ORIENT	n/a	n/a	n/a	-999	24	[0, 0, 0]	n/a	FR1	0	R1123C
2680.452	2.549	1342345	WORD	n/a	wordpools/wordpool_EN.txt	TANK	1	24	[0, 0, 0]	n/a	FR1	0	R1123C
2683.001	2.435	1343619	WORD	n/a	wordpools/wordpool_EN.txt	SCHOOL	2	24	[0, 0, 0]	n/a	FR1	0	R1123C
2685.436	2.5	1344836	WORD	n/a	wordpools/wordpool_EN.txt	CONE	3	24	[0, 0, 0]	n/a	FR1	0	R1123C
2687.936	2.418	1346086	WORD	n/a	wordpools/wordpool_EN.txt	GRAPE	4	24	[0, 0, 0]	n/a	FR1	0	R1123C
2690.354	2.583	1347295	WORD	n/a	wordpools/wordpool_EN.txt	SAIL	5	24	[0, 0, 0]	n/a	FR1	0	R1123C
2692.937	2.451	1348587	WORD	n/a	wordpools/wordpool_EN.txt	BEE	6	24	[0, 0, 0]	n/a	FR1	0	R1123C
2695.388	2.616	1349812	WORD	n/a	wordpools/wordpool_EN.txt	FLAG	7	24	[0, 0, 0]	n/a	FR1	0	R1123C
2698.004	2.618	1351120	WORD	n/a	wordpools/wordpool_EN.txt	ICE	8	24	[0, 0, 0]	n/a	FR1	0	R1123C
2700.622	2.433	1352429	WORD	n/a	wordpools/wordpool_EN.txt	PLANT	9	24	[0, 0, 0]	n/a	FR1	0	R1123C
2703.055	2.485	1353645	WORD	n/a	wordpools/wordpool_EN.txt	STEM	10	24	[0, 0, 0]	n/a	FR1	0	R1123C
2705.54	2.399	1354888	WORD	n/a	wordpools/wordpool_EN.txt	ROOT	11	24	[0, 0, 0]	n/a	FR1	0	R1123C
2707.939	1.601	1356087	WORD	n/a	wordpools/wordpool_EN.txt	KITE	12	24	[0, 0, 0]	n/a	FR1	0	R1123C
2709.54	0.001	1356887	DISTRACT_START	n/a	n/a	n/a	-999	24	[0, 0, 0]	n/a	FR1	0	R1123C
2709.541	0.016	1356888	START	n/a	n/a	n/a	-999	24	[-999, -999, -999]	n/a	FR1	0	R1123C
2709.557	7.767	1356896	PROB	7.767	n/a	n/a	-999	24	[7, 3, 6]	17	FR1	0	R1123C
2717.324	4.452	1360779	PROB	4.452	n/a	n/a	-999	24	[1, 6, 4]	11	FR1	0	R1123C
2721.776	4.935	1363005	PROB	4.935	n/a	n/a	-999	24	[1, 5, 3]	9	FR1	0	R1123C
2726.711	11.146	1365472	PROB	11.146	n/a	n/a	-999	24	[6, 1, 8]	15	FR1	0	R1123C
2737.857	0.005	1371045	STOP	n/a	n/a	n/a	-999	24	[-999, -999, -999]	n/a	FR1	0	R1123C
2737.862	1.101	1371047	DISTRACT_END	n/a	n/a	n/a	-999	24	[0, 0, 0]	n/a	FR1	0	R1123C
2738.963	0.691	1371598	REC_START	n/a	n/a	n/a	-999	24	[0, 0, 0]	n/a	FR1	0	R1123C
2739.654	1.282	1371943	REC_WORD	1.282	n/a	FLOWER	-999	24	[0, 0, 0]	n/a	FR1	0	R1123C
2740.936	1.716	1372584	REC_WORD	1.716	n/a	STEM	-999	24	[0, 0, 0]	n/a	FR1	0	R1123C
2742.652	10.813	1373442	REC_WORD	10.813	n/a	ROOT	-999	24	[0, 0, 0]	n/a	FR1	0	R1123C
2753.465	9.275	1378848	REC_WORD	9.275	n/a	GOAT	-999	24	[0, 0, 0]	n/a	FR1	0	R1123C
2762.74	6.233	1383485	REC_WORD	6.233	n/a	SAIL	-999	24	[0, 0, 0]	n/a	FR1	0	R1123C
2768.973	3.228	1386602	REC_END	n/a	n/a	n/a	-999	24	[0, 0, 0]	n/a	FR1	0	R1123C
2772.201	0.001	1388215	COUNTDOWN_START	n/a	n/a	n/a	-999	25	[0, 0, 0]	n/a	FR1	0	R1123C
2772.202	10.427	1388216	TRIAL	n/a	n/a	n/a	-999	25	[0, 0, 0]	n/a	FR1	0	R1123C
2782.629	0.009	1393429	COUNTDOWN_END	n/a	n/a	n/a	-999	25	[0, 0, 0]	n/a	FR1	0	R1123C
2782.638	2.466	1393433	ORIENT	n/a	n/a	n/a	-999	25	[0, 0, 0]	n/a	FR1	0	R1123C
2785.104	2.535	1394666	WORD	n/a	wordpools/wordpool_EN.txt	SEA	1	25	[0, 0, 0]	n/a	FR1	0	R1123C
2787.639	2.416	1395934	WORD	n/a	wordpools/wordpool_EN.txt	HOSE	2	25	[0, 0, 0]	n/a	FR1	0	R1123C
2790.055	2.451	1397142	WORD	n/a	wordpools/wordpool_EN.txt	MOOSE	3	25	[0, 0, 0]	n/a	FR1	0	R1123C
2792.506	2.616	1398367	WORD	n/a	wordpools/wordpool_EN.txt	THUMB	4	25	[0, 0, 0]	n/a	FR1	0	R1123C
2795.122	2.385	1399675	WORD	n/a	wordpools/wordpool_EN.txt	FILM	5	25	[0, 0, 0]	n/a	FR1	0	R1123C
2797.507	2.466	1400867	WORD	n/a	wordpools/wordpool_EN.txt	ROAD	6	25	[0, 0, 0]	n/a	FR1	0	R1123C
2799.973	2.435	1402100	WORD	n/a	wordpools/wordpool_EN.txt	WHEEL	7	25	[0, 0, 0]	n/a	FR1	0	R1123C
2802.408	2.45	1403318	WORD	n/a	wordpools/wordpool_EN.txt	SEAL	8	25	[0, 0, 0]	n/a	FR1	0	R1123C
2804.858	2.4	1404543	WORD	n/a	wordpools/wordpool_EN.txt	TEETH	9	25	[0, 0, 0]	n/a	FR1	0	R1123C
2807.258	2.502	1405742	WORD	n/a	wordpools/wordpool_EN.txt	BEAR	10	25	[0, 0, 0]	n/a	FR1	0	R1123C
2809.76	2.583	1406993	WORD	n/a	wordpools/wordpool_EN.txt	CAKE	11	25	[0, 0, 0]	n/a	FR1	0	R1123C
2812.343	1.616	1408285	WORD	n/a	wordpools/wordpool_EN.txt	TOOTH	12	25	[0, 0, 0]	n/a	FR1	0	R1123C
2813.959	0.001	1409093	DISTRACT_START	n/a	n/a	n/a	-999	25	[0, 0, 0]	n/a	FR1	0	R1123C
2813.96	0.016	1409093	START	n/a	n/a	n/a	-999	25	[-999, -999, -999]	n/a	FR1	0	R1123C
2813.976	11.035	1409101	PROB	11.035	n/a	n/a	-999	25	[7, 8, 5]	20	FR1	0	R1123C
2825.011	8.403	1414618	PROB	8.403	n/a	n/a	-999	25	[8, 4, 7]	19	FR1	0	R1123C
2833.414	9.828	1418819	PROB	9.828	n/a	n/a	-999	25	[1, 4, 8]	13	FR1	0	R1123C
2843.242	0.006	1423733	STOP	n/a	n/a	n/a	-999	25	[-999, -999, -999]	n/a	FR1	0	R1123C
2843.248	1.119	1423736	DISTRACT_END	n/a	n/a	n/a	-999	25	[0, 0, 0]	n/a	FR1	0	R1123C
2844.367	0.751	1424295	REC_START	n/a	n/a	n/a	-999	25	[0, 0, 0]	n/a	FR1	0	R1123C
2845.118	1.446	1424671	REC_WORD	1.446	n/a	BEAR	-999	25	[0, 0, 0]	n/a	FR1	0	R1123C
2846.564	1.536	1425394	REC_WORD	1.536	n/a	EAT	-999	25	[0, 0, 0]	n/a	FR1	0	R1123C
2848.1	2.419	1426162	REC_WORD	2.419	n/a	FOOD	-999	25	[0, 0, 0]	n/a	FR1	0	R1123C
2850.519	6.809	1427371	REC_WORD	6.809	n/a	GOAT	-999	25	[0, 0, 0]	n/a	FR1	0	R1123C
2857.328	17.049	1430775	REC_WORD	17.049	n/a	SAIL	-999	25	[0, 0, 0]	n/a	FR1	0	R1123C
2874.377	0.0	1439299	REC_END	n/a	n/a	n/a	-999	25	[0, 0, 0]	n/a	FR1	0	R1123C
