onset	duration	sample	trial_type	response_time	stim_file	item_name	serialpos	list	test	answer	experiment	session	subject
0.0	0.733	287262	INSTRUCT_START	n/a	n/a	n/a	-999	-999	[0, 0, 0]	n/a	FR1	3	R1347D
0.733	22.4	287995	INSTRUCT_END	n/a	n/a	n/a	-999	-999	[0, 0, 0]	n/a	FR1	3	R1347D
23.133	10.35	310394	COUNTDOWN_START	n/a	n/a	n/a	-999	-999	[0, 0, 0]	n/a	FR1	3	R1347D
33.483	0.001	320742	COUNTDOWN_END	n/a	n/a	n/a	-999	-999	[0, 0, 0]	n/a	FR1	3	R1347D
33.484	1.932	320753	ENCODING_START	n/a	n/a	n/a	-999	-1	[0, 0, 0]	n/a	FR1	3	R1347D
35.416	1.616	322681	WORD	n/a	n/a	COTTON	1	-1	[0, 0, 0]	n/a	FR1	3	R1347D
37.032	0.8	324293	WORD_OFF	n/a	n/a	COTTON	1	-1	[0, 0, 0]	n/a	FR1	3	R1347D
37.832	1.6	325105	WORD	n/a	n/a	IMAGE	2	-1	[0, 0, 0]	n/a	FR1	3	R1347D
39.432	1.0	326694	WORD_OFF	n/a	n/a	IMAGE	2	-1	[0, 0, 0]	n/a	FR1	3	R1347D
40.432	1.6	327697	WORD	n/a	n/a	BABY	3	-1	[0, 0, 0]	n/a	FR1	3	R1347D
42.032	0.767	329298	WORD_OFF	n/a	n/a	BABY	3	-1	[0, 0, 0]	n/a	FR1	3	R1347D
42.799	1.616	330065	WORD	n/a	n/a	BEAM	4	-1	[0, 0, 0]	n/a	FR1	3	R1347D
44.415	0.917	331677	WORD_OFF	n/a	n/a	BEAM	4	-1	[0, 0, 0]	n/a	FR1	3	R1347D
45.332	1.6	332590	WORD	n/a	n/a	CHEST	5	-1	[0, 0, 0]	n/a	FR1	3	R1347D
46.932	0.967	334191	WORD_OFF	n/a	n/a	CHEST	5	-1	[0, 0, 0]	n/a	FR1	3	R1347D
47.899	1.6	335160	WORD	n/a	n/a	RHINO	6	-1	[0, 0, 0]	n/a	FR1	3	R1347D
49.499	1.0	336761	WORD_OFF	n/a	n/a	RHINO	6	-1	[0, 0, 0]	n/a	FR1	3	R1347D
50.499	1.616	337764	WORD	n/a	n/a	CAMEL	7	-1	[0, 0, 0]	n/a	FR1	3	R1347D
52.115	0.933	339376	WORD_OFF	n/a	n/a	CAMEL	7	-1	[0, 0, 0]	n/a	FR1	3	R1347D
53.048	1.6	340312	WORD	n/a	n/a	FLOOD	8	-1	[0, 0, 0]	n/a	FR1	3	R1347D
54.648	0.784	341912	WORD_OFF	n/a	n/a	FLOOD	8	-1	[0, 0, 0]	n/a	FR1	3	R1347D
55.432	1.616	342690	WORD	n/a	n/a	TONGUE	9	-1	[0, 0, 0]	n/a	FR1	3	R1347D
57.048	0.984	344313	WORD_OFF	n/a	n/a	TONGUE	9	-1	[0, 0, 0]	n/a	FR1	3	R1347D
58.032	1.616	345294	WORD	n/a	n/a	WAGON	10	-1	[0, 0, 0]	n/a	FR1	3	R1347D
59.648	0.9	346906	WORD_OFF	n/a	n/a	WAGON	10	-1	[0, 0, 0]	n/a	FR1	3	R1347D
60.548	1.617	347808	WORD	n/a	n/a	RING	11	-1	[0, 0, 0]	n/a	FR1	3	R1347D
62.165	0.983	349431	WORD_OFF	n/a	n/a	RING	11	-1	[0, 0, 0]	n/a	FR1	3	R1347D
63.148	1.601	350412	WORD	n/a	n/a	WATCH	12	-1	[0, 0, 0]	n/a	FR1	3	R1347D
64.749	0.002	352010	PROB	0.002	n/a	n/a	-999	-1	[7, 6, 1]	14	FR1	3	R1347D
64.751	0.0	352012	START	n/a	n/a	n/a	-999	-1	[-999, -999, -999]	n/a	FR1	3	R1347D
64.748	0.002	352013	WORD_OFF	n/a	n/a	WATCH	12	-1	[0, 0, 0]	n/a	FR1	3	R1347D
64.75	0.001	352013	ENCODING_END	n/a	n/a	n/a	-999	-1	[0, 0, 0]	n/a	FR1	3	R1347D
64.751	9.698	352013	DISTRACT_START	n/a	n/a	n/a	-999	-1	[0, 0, 0]	n/a	FR1	3	R1347D
74.449	14.566	361709	PROB	14.566	n/a	n/a	-999	-1	[1, 4, 4]	9	FR1	3	R1347D
89.015	0.0	376272	DISTRACT_END	n/a	n/a	n/a	-999	-1	[0, 0, 0]	n/a	FR1	3	R1347D
89.015	1.068	376274	STOP	n/a	n/a	n/a	-999	-1	[-999, -999, -999]	n/a	FR1	3	R1347D
90.083	0.0	377342	REC_WORD_VV	0.0	n/a	<>	-999	-1	[0, 0, 0]	n/a	FR1	3	R1347D
90.083	30.251	377343	REC_START	n/a	n/a	n/a	-999	-1	[0, 0, 0]	n/a	FR1	3	R1347D
120.334	18.198	407587	REC_END	n/a	n/a	n/a	-999	-1	[0, 0, 0]	n/a	FR1	3	R1347D
138.532	10.35	425793	COUNTDOWN_START	n/a	n/a	n/a	-999	1	[0, 0, 0]	n/a	FR1	3	R1347D
148.882	0.001	436141	COUNTDOWN_END	n/a	n/a	n/a	-999	1	[0, 0, 0]	n/a	FR1	3	R1347D
148.883	2.282	436141	ENCODING_START	n/a	n/a	n/a	-999	1	[0, 0, 0]	n/a	FR1	3	R1347D
151.165	1.617	438418	WORD	n/a	wordpools/wordpool_short_EN.txt	PAGE	1	1	[0, 0, 0]	n/a	FR1	3	R1347D
152.782	0.933	440041	WORD_OFF	n/a	n/a	PAGE	1	1	[0, 0, 0]	n/a	FR1	3	R1347D
153.715	1.617	440977	WORD	n/a	wordpools/wordpool_short_EN.txt	MAT	2	1	[0, 0, 0]	n/a	FR1	3	R1347D
155.332	0.966	442589	WORD_OFF	n/a	n/a	MAT	2	1	[0, 0, 0]	n/a	FR1	3	R1347D
156.298	1.617	443558	WORD	n/a	wordpools/wordpool_short_EN.txt	DOCK	3	1	[0, 0, 0]	n/a	FR1	3	R1347D
157.915	0.917	445170	WORD_OFF	n/a	n/a	DOCK	3	1	[0, 0, 0]	n/a	FR1	3	R1347D
158.832	1.616	446084	WORD	n/a	wordpools/wordpool_short_EN.txt	ELF	4	1	[0, 0, 0]	n/a	FR1	3	R1347D
160.448	0.95	447707	WORD_OFF	n/a	n/a	ELF	4	1	[0, 0, 0]	n/a	FR1	3	R1347D
161.398	1.617	448654	WORD	n/a	wordpools/wordpool_short_EN.txt	WAVE	5	1	[0, 0, 0]	n/a	FR1	3	R1347D
163.015	0.833	450266	WORD_OFF	n/a	n/a	WAVE	5	1	[0, 0, 0]	n/a	FR1	3	R1347D
163.848	1.617	451100	WORD	n/a	wordpools/wordpool_short_EN.txt	PARK	6	1	[0, 0, 0]	n/a	FR1	3	R1347D
165.465	0.85	452723	WORD_OFF	n/a	n/a	PARK	6	1	[0, 0, 0]	n/a	FR1	3	R1347D
166.315	1.6	453569	WORD	n/a	wordpools/wordpool_short_EN.txt	HOOF	7	1	[0, 0, 0]	n/a	FR1	3	R1347D
167.915	0.766	455169	WORD_OFF	n/a	n/a	HOOF	7	1	[0, 0, 0]	n/a	FR1	3	R1347D
168.681	1.6	455936	WORD	n/a	wordpools/wordpool_short_EN.txt	POLE	8	1	[0, 0, 0]	n/a	FR1	3	R1347D
170.281	0.867	457537	WORD_OFF	n/a	n/a	POLE	8	1	[0, 0, 0]	n/a	FR1	3	R1347D
171.148	1.6	458405	WORD	n/a	wordpools/wordpool_short_EN.txt	STRAW	9	1	[0, 0, 0]	n/a	FR1	3	R1347D
172.748	0.917	460005	WORD_OFF	n/a	n/a	STRAW	9	1	[0, 0, 0]	n/a	FR1	3	R1347D
173.665	1.6	460918	WORD	n/a	wordpools/wordpool_short_EN.txt	BAY	10	1	[0, 0, 0]	n/a	FR1	3	R1347D
175.265	0.866	462519	WORD_OFF	n/a	n/a	BAY	10	1	[0, 0, 0]	n/a	FR1	3	R1347D
176.131	1.6	463387	WORD	n/a	wordpools/wordpool_short_EN.txt	BAT	11	1	[0, 0, 0]	n/a	FR1	3	R1347D
177.731	0.817	464988	WORD_OFF	n/a	n/a	BAT	11	1	[0, 0, 0]	n/a	FR1	3	R1347D
178.548	1.6	465800	WORD	n/a	wordpools/wordpool_short_EN.txt	BOWL	12	1	[0, 0, 0]	n/a	FR1	3	R1347D
180.148	0.002	467400	WORD_OFF	n/a	n/a	BOWL	12	1	[0, 0, 0]	n/a	FR1	3	R1347D
180.15	0.0	467400	ENCODING_END	n/a	n/a	n/a	-999	1	[0, 0, 0]	n/a	FR1	3	R1347D
180.149	0.001	467404	PROB	0.001	n/a	n/a	-999	1	[7, 5, 2]	15	FR1	3	R1347D
180.15	0.0	467405	START	n/a	n/a	n/a	-999	1	[-999, -999, -999]	n/a	FR1	3	R1347D
180.15	20.882	467412	DISTRACT_START	n/a	n/a	n/a	-999	1	[0, 0, 0]	n/a	FR1	3	R1347D
201.032	0.0	488286	STOP	n/a	n/a	n/a	-999	1	[-999, -999, -999]	n/a	FR1	3	R1347D
201.032	1.367	488289	DISTRACT_END	n/a	n/a	n/a	-999	1	[0, 0, 0]	n/a	FR1	3	R1347D
202.399	2.353	489653	REC_START	n/a	n/a	n/a	-999	1	[0, 0, 0]	n/a	FR1	3	R1347D
204.752	0.536	492005	REC_WORD	0.536	n/a	MAT	2	1	[0, 0, 0]	n/a	FR1	3	R1347D
205.288	1.082	492541	REC_WORD	1.082	n/a	DOG	-999	1	[0, 0, 0]	n/a	FR1	3	R1347D
206.37	1.169	493623	REC_WORD	1.169	n/a	ELF	4	1	[0, 0, 0]	n/a	FR1	3	R1347D
207.539	1.076	494792	REC_WORD	1.076	n/a	WOLF	-999	1	[0, 0, 0]	n/a	FR1	3	R1347D
208.615	24.039	495868	REC_WORD	24.039	n/a	HAY	-999	1	[0, 0, 0]	n/a	FR1	3	R1347D
232.654	12.494	519909	REC_END	n/a	n/a	n/a	-999	1	[0, 0, 0]	n/a	FR1	3	R1347D
245.148	10.351	532399	COUNTDOWN_START	n/a	n/a	n/a	-999	2	[0, 0, 0]	n/a	FR1	3	R1347D
255.499	0.0	542747	COUNTDOWN_END	n/a	n/a	n/a	-999	2	[0, 0, 0]	n/a	FR1	3	R1347D
255.499	2.066	542758	ENCODING_START	n/a	n/a	n/a	-999	2	[0, 0, 0]	n/a	FR1	3	R1347D
257.565	1.6	544821	WORD	n/a	wordpools/wordpool_short_EN.txt	TOOL	1	2	[0, 0, 0]	n/a	FR1	3	R1347D
259.165	0.983	546411	WORD_OFF	n/a	n/a	TOOL	1	2	[0, 0, 0]	n/a	FR1	3	R1347D
260.148	1.6	547403	WORD	n/a	wordpools/wordpool_short_EN.txt	DITCH	2	2	[0, 0, 0]	n/a	FR1	3	R1347D
261.748	0.85	549003	WORD_OFF	n/a	n/a	DITCH	2	2	[0, 0, 0]	n/a	FR1	3	R1347D
262.598	1.6	549849	WORD	n/a	wordpools/wordpool_short_EN.txt	PEA	3	2	[0, 0, 0]	n/a	FR1	3	R1347D
264.198	0.834	551450	WORD_OFF	n/a	n/a	PEA	3	2	[0, 0, 0]	n/a	FR1	3	R1347D
265.032	1.6	552284	WORD	n/a	wordpools/wordpool_short_EN.txt	CLAY	4	2	[0, 0, 0]	n/a	FR1	3	R1347D
266.632	0.966	553885	WORD_OFF	n/a	n/a	CLAY	4	2	[0, 0, 0]	n/a	FR1	3	R1347D
267.598	1.6	554854	WORD	n/a	wordpools/wordpool_short_EN.txt	DRAIN	5	2	[0, 0, 0]	n/a	FR1	3	R1347D
269.198	0.934	556443	WORD_OFF	n/a	n/a	DRAIN	5	2	[0, 0, 0]	n/a	FR1	3	R1347D
270.132	1.599	557379	WORD	n/a	wordpools/wordpool_short_EN.txt	HAIR	6	2	[0, 0, 0]	n/a	FR1	3	R1347D
271.731	0.9	558980	WORD_OFF	n/a	n/a	HAIR	6	2	[0, 0, 0]	n/a	FR1	3	R1347D
272.631	1.6	559882	WORD	n/a	wordpools/wordpool_short_EN.txt	SNAKE	7	2	[0, 0, 0]	n/a	FR1	3	R1347D
274.231	0.767	561482	WORD_OFF	n/a	n/a	SNAKE	7	2	[0, 0, 0]	n/a	FR1	3	R1347D
274.998	1.617	562249	WORD	n/a	wordpools/wordpool_short_EN.txt	DIME	8	2	[0, 0, 0]	n/a	FR1	3	R1347D
276.615	0.933	563861	WORD_OFF	n/a	n/a	DIME	8	2	[0, 0, 0]	n/a	FR1	3	R1347D
277.548	1.6	564797	WORD	n/a	wordpools/wordpool_short_EN.txt	SHIP	9	2	[0, 0, 0]	n/a	FR1	3	R1347D
279.148	0.95	566397	WORD_OFF	n/a	n/a	SHIP	9	2	[0, 0, 0]	n/a	FR1	3	R1347D
280.098	1.6	567344	WORD	n/a	wordpools/wordpool_short_EN.txt	PURSE	10	2	[0, 0, 0]	n/a	FR1	3	R1347D
281.698	0.983	568945	WORD_OFF	n/a	n/a	PURSE	10	2	[0, 0, 0]	n/a	FR1	3	R1347D
282.681	1.601	569937	WORD	n/a	wordpools/wordpool_short_EN.txt	HOOK	11	2	[0, 0, 0]	n/a	FR1	3	R1347D
284.282	0.883	571526	WORD_OFF	n/a	n/a	HOOK	11	2	[0, 0, 0]	n/a	FR1	3	R1347D
285.165	1.618	572417	WORD	n/a	wordpools/wordpool_short_EN.txt	SWAMP	12	2	[0, 0, 0]	n/a	FR1	3	R1347D
286.783	0.001	574029	WORD_OFF	n/a	n/a	SWAMP	12	2	[0, 0, 0]	n/a	FR1	3	R1347D
286.784	0.0	574029	ENCODING_END	n/a	n/a	n/a	-999	2	[0, 0, 0]	n/a	FR1	3	R1347D
286.783	0.001	574032	PROB	0.001	n/a	n/a	-999	2	[2, 5, 3]	10	FR1	3	R1347D
286.784	0.0	574033	START	n/a	n/a	n/a	-999	2	[-999, -999, -999]	n/a	FR1	3	R1347D
286.784	20.065	574040	DISTRACT_START	n/a	n/a	n/a	-999	2	[0, 0, 0]	n/a	FR1	3	R1347D
306.849	0.0	594094	DISTRACT_END	n/a	n/a	n/a	-999	2	[0, 0, 0]	n/a	FR1	3	R1347D
306.849	1.233	594097	STOP	n/a	n/a	n/a	-999	2	[-999, -999, -999]	n/a	FR1	3	R1347D
308.082	15.629	595334	REC_START	n/a	n/a	n/a	-999	2	[0, 0, 0]	n/a	FR1	3	R1347D
323.711	0.717	610958	REC_WORD	0.717	n/a	PITCH	-999	2	[0, 0, 0]	n/a	FR1	3	R1347D
324.428	0.686	611675	REC_WORD	0.686	n/a	HAY	-999	2	[0, 0, 0]	n/a	FR1	3	R1347D
325.114	13.21	612361	REC_WORD	13.21	n/a	WOLF	-999	2	[0, 0, 0]	n/a	FR1	3	R1347D
338.324	4.141	625568	REC_END	n/a	n/a	n/a	-999	2	[0, 0, 0]	n/a	FR1	3	R1347D
342.465	10.351	629716	COUNTDOWN_START	n/a	n/a	n/a	-999	3	[0, 0, 0]	n/a	FR1	3	R1347D
352.816	0.0	640065	COUNTDOWN_END	n/a	n/a	n/a	-999	3	[0, 0, 0]	n/a	FR1	3	R1347D
352.816	1.916	640065	ENCODING_START	n/a	n/a	n/a	-999	3	[0, 0, 0]	n/a	FR1	3	R1347D
354.732	1.6	641981	WORD	n/a	wordpools/wordpool_short_EN.txt	TENT	1	3	[0, 0, 0]	n/a	FR1	3	R1347D
356.332	0.933	643582	WORD_OFF	n/a	n/a	TENT	1	3	[0, 0, 0]	n/a	FR1	3	R1347D
357.265	1.617	644506	WORD	n/a	wordpools/wordpool_short_EN.txt	BLADE	2	3	[0, 0, 0]	n/a	FR1	3	R1347D
358.882	0.966	646129	WORD_OFF	n/a	n/a	BLADE	2	3	[0, 0, 0]	n/a	FR1	3	R1347D
359.848	1.617	647099	WORD	n/a	wordpools/wordpool_short_EN.txt	TOOTH	3	3	[0, 0, 0]	n/a	FR1	3	R1347D
361.465	0.9	648711	WORD_OFF	n/a	n/a	TOOTH	3	3	[0, 0, 0]	n/a	FR1	3	R1347D
362.365	1.6	649613	WORD	n/a	wordpools/wordpool_short_EN.txt	CASH	4	3	[0, 0, 0]	n/a	FR1	3	R1347D
363.965	0.833	651213	WORD_OFF	n/a	n/a	CASH	4	3	[0, 0, 0]	n/a	FR1	3	R1347D
364.798	1.6	652047	WORD	n/a	wordpools/wordpool_short_EN.txt	VASE	5	3	[0, 0, 0]	n/a	FR1	3	R1347D
366.398	0.766	653648	WORD_OFF	n/a	n/a	VASE	5	3	[0, 0, 0]	n/a	FR1	3	R1347D
367.164	1.601	654415	WORD	n/a	wordpools/wordpool_short_EN.txt	BIN	6	3	[0, 0, 0]	n/a	FR1	3	R1347D
368.765	0.817	656015	WORD_OFF	n/a	n/a	BIN	6	3	[0, 0, 0]	n/a	FR1	3	R1347D
369.582	1.6	656827	WORD	n/a	wordpools/wordpool_short_EN.txt	MEAT	7	3	[0, 0, 0]	n/a	FR1	3	R1347D
371.182	0.833	658428	WORD_OFF	n/a	n/a	MEAT	7	3	[0, 0, 0]	n/a	FR1	3	R1347D
372.015	1.616	659262	WORD	n/a	wordpools/wordpool_short_EN.txt	SOUP	8	3	[0, 0, 0]	n/a	FR1	3	R1347D
373.631	0.967	660874	WORD_OFF	n/a	n/a	SOUP	8	3	[0, 0, 0]	n/a	FR1	3	R1347D
374.598	1.6	661843	WORD	n/a	wordpools/wordpool_short_EN.txt	KNOB	9	3	[0, 0, 0]	n/a	FR1	3	R1347D
376.198	0.817	663444	WORD_OFF	n/a	n/a	KNOB	9	3	[0, 0, 0]	n/a	FR1	3	R1347D
377.015	1.616	664256	WORD	n/a	wordpools/wordpool_short_EN.txt	OWL	10	3	[0, 0, 0]	n/a	FR1	3	R1347D
378.631	0.867	665879	WORD_OFF	n/a	n/a	OWL	10	3	[0, 0, 0]	n/a	FR1	3	R1347D
379.498	1.617	666747	WORD	n/a	wordpools/wordpool_short_EN.txt	TEETH	11	3	[0, 0, 0]	n/a	FR1	3	R1347D
381.115	0.9	668359	WORD_OFF	n/a	n/a	TEETH	11	3	[0, 0, 0]	n/a	FR1	3	R1347D
382.015	1.6	669261	WORD	n/a	wordpools/wordpool_short_EN.txt	WOLF	12	3	[0, 0, 0]	n/a	FR1	3	R1347D
383.615	0.002	670859	PROB	0.002	n/a	n/a	-999	3	[5, 1, 4]	10	FR1	3	R1347D
383.617	0.0	670861	START	n/a	n/a	n/a	-999	3	[-999, -999, -999]	n/a	FR1	3	R1347D
383.615	0.002	670862	WORD_OFF	n/a	n/a	WOLF	12	3	[0, 0, 0]	n/a	FR1	3	R1347D
383.617	0.0	670862	ENCODING_END	n/a	n/a	n/a	-999	3	[0, 0, 0]	n/a	FR1	3	R1347D
383.617	17.666	670862	DISTRACT_START	n/a	n/a	n/a	-999	3	[0, 0, 0]	n/a	FR1	3	R1347D
401.283	4.949	688526	PROB	4.949	n/a	n/a	-999	3	[2, 2, 5]	9	FR1	3	R1347D
406.232	0.0	693475	DISTRACT_END	n/a	n/a	n/a	-999	3	[0, 0, 0]	n/a	FR1	3	R1347D
406.232	1.283	693475	STOP	n/a	n/a	n/a	-999	3	[-999, -999, -999]	n/a	FR1	3	R1347D
407.515	4.112	694760	REC_START	n/a	n/a	n/a	-999	3	[0, 0, 0]	n/a	FR1	3	R1347D
411.627	0.561	698870	REC_WORD	0.561	n/a	TENT	1	3	[0, 0, 0]	n/a	FR1	3	R1347D
412.188	0.62	699431	REC_WORD	0.62	n/a	WOLF	12	3	[0, 0, 0]	n/a	FR1	3	R1347D
412.808	1.988	700051	REC_WORD	1.988	n/a	CASH	4	3	[0, 0, 0]	n/a	FR1	3	R1347D
414.796	4.34	702039	REC_WORD	4.34	n/a	OWL	10	3	[0, 0, 0]	n/a	FR1	3	R1347D
419.136	18.622	706378	REC_WORD	18.622	n/a	BIN	6	3	[0, 0, 0]	n/a	FR1	3	R1347D
437.758	2.491	725004	REC_END	n/a	n/a	n/a	-999	3	[0, 0, 0]	n/a	FR1	3	R1347D
440.249	10.35	727496	COUNTDOWN_START	n/a	n/a	n/a	-999	4	[0, 0, 0]	n/a	FR1	3	R1347D
450.599	0.001	737844	COUNTDOWN_END	n/a	n/a	n/a	-999	4	[0, 0, 0]	n/a	FR1	3	R1347D
450.6	2.032	737844	ENCODING_START	n/a	n/a	n/a	-999	4	[0, 0, 0]	n/a	FR1	3	R1347D
452.632	1.617	739873	WORD	n/a	wordpools/wordpool_short_EN.txt	BEAN	1	4	[0, 0, 0]	n/a	FR1	3	R1347D
454.249	0.85	741485	WORD_OFF	n/a	n/a	BEAN	1	4	[0, 0, 0]	n/a	FR1	3	R1347D
455.099	1.6	742342	WORD	n/a	wordpools/wordpool_short_EN.txt	WAND	2	4	[0, 0, 0]	n/a	FR1	3	R1347D
456.699	0.833	743943	WORD_OFF	n/a	n/a	WAND	2	4	[0, 0, 0]	n/a	FR1	3	R1347D
457.532	1.6	744777	WORD	n/a	wordpools/wordpool_short_EN.txt	BOMB	3	4	[0, 0, 0]	n/a	FR1	3	R1347D
459.132	0.866	746378	WORD_OFF	n/a	n/a	BOMB	3	4	[0, 0, 0]	n/a	FR1	3	R1347D
459.998	1.617	747234	WORD	n/a	wordpools/wordpool_short_EN.txt	HOUSE	4	4	[0, 0, 0]	n/a	FR1	3	R1347D
461.615	0.983	748858	WORD_OFF	n/a	n/a	HOUSE	4	4	[0, 0, 0]	n/a	FR1	3	R1347D
462.598	1.6	749838	WORD	n/a	wordpools/wordpool_short_EN.txt	PAN	5	4	[0, 0, 0]	n/a	FR1	3	R1347D
464.198	1.0	751439	WORD_OFF	n/a	n/a	PAN	5	4	[0, 0, 0]	n/a	FR1	3	R1347D
465.198	1.6	752442	WORD	n/a	wordpools/wordpool_short_EN.txt	BOY	6	4	[0, 0, 0]	n/a	FR1	3	R1347D
466.798	0.934	754043	WORD_OFF	n/a	n/a	BOY	6	4	[0, 0, 0]	n/a	FR1	3	R1347D
467.732	1.6	754967	WORD	n/a	wordpools/wordpool_short_EN.txt	PLANT	7	4	[0, 0, 0]	n/a	FR1	3	R1347D
469.332	0.783	756568	WORD_OFF	n/a	n/a	PLANT	7	4	[0, 0, 0]	n/a	FR1	3	R1347D
470.115	1.6	757357	WORD	n/a	wordpools/wordpool_short_EN.txt	SPEAR	8	4	[0, 0, 0]	n/a	FR1	3	R1347D
471.715	0.883	758958	WORD_OFF	n/a	n/a	SPEAR	8	4	[0, 0, 0]	n/a	FR1	3	R1347D
472.598	1.6	759837	WORD	n/a	wordpools/wordpool_short_EN.txt	MOLE	9	4	[0, 0, 0]	n/a	FR1	3	R1347D
474.198	0.767	761438	WORD_OFF	n/a	n/a	MOLE	9	4	[0, 0, 0]	n/a	FR1	3	R1347D
474.965	1.6	762204	WORD	n/a	wordpools/wordpool_short_EN.txt	WHEEL	10	4	[0, 0, 0]	n/a	FR1	3	R1347D
476.565	0.817	763805	WORD_OFF	n/a	n/a	WHEEL	10	4	[0, 0, 0]	n/a	FR1	3	R1347D
477.382	1.616	764617	WORD	n/a	wordpools/wordpool_short_EN.txt	NIGHT	11	4	[0, 0, 0]	n/a	FR1	3	R1347D
478.998	0.967	766240	WORD_OFF	n/a	n/a	NIGHT	11	4	[0, 0, 0]	n/a	FR1	3	R1347D
479.965	1.617	767210	WORD	n/a	wordpools/wordpool_short_EN.txt	ZOO	12	4	[0, 0, 0]	n/a	FR1	3	R1347D
481.582	0.0	768821	PROB	0.0	n/a	n/a	-999	4	[8, 3, 4]	15	FR1	3	R1347D
481.581	0.002	768822	WORD_OFF	n/a	n/a	ZOO	12	4	[0, 0, 0]	n/a	FR1	3	R1347D
481.583	0.0	768822	ENCODING_END	n/a	n/a	n/a	-999	4	[0, 0, 0]	n/a	FR1	3	R1347D
481.583	0.0	768822	DISTRACT_START	n/a	n/a	n/a	-999	4	[0, 0, 0]	n/a	FR1	3	R1347D
481.583	31.982	768822	START	n/a	n/a	n/a	-999	4	[-999, -999, -999]	n/a	FR1	3	R1347D
513.565	0.0	800802	DISTRACT_END	n/a	n/a	n/a	-999	4	[0, 0, 0]	n/a	FR1	3	R1347D
513.565	1.284	800803	STOP	n/a	n/a	n/a	-999	4	[-999, -999, -999]	n/a	FR1	3	R1347D
514.849	4.597	802087	REC_START	n/a	n/a	n/a	-999	4	[0, 0, 0]	n/a	FR1	3	R1347D
519.446	0.759	806683	REC_WORD	0.759	n/a	BEAN	1	4	[0, 0, 0]	n/a	FR1	3	R1347D
520.205	0.723	807442	REC_WORD	0.723	n/a	WAND	2	4	[0, 0, 0]	n/a	FR1	3	R1347D
520.928	17.658	808165	REC_WORD	17.658	n/a	BOMB	3	4	[0, 0, 0]	n/a	FR1	3	R1347D
538.586	6.526	825822	REC_WORD	6.526	n/a	HOUSE	4	4	[0, 0, 0]	n/a	FR1	3	R1347D
545.112	2.803	832343	REC_END	n/a	n/a	n/a	-999	4	[0, 0, 0]	n/a	FR1	3	R1347D
547.915	10.351	835150	COUNTDOWN_START	n/a	n/a	n/a	-999	5	[0, 0, 0]	n/a	FR1	3	R1347D
558.266	0.0	845499	COUNTDOWN_END	n/a	n/a	n/a	-999	5	[0, 0, 0]	n/a	FR1	3	R1347D
558.266	2.132	845510	ENCODING_START	n/a	n/a	n/a	-999	5	[0, 0, 0]	n/a	FR1	3	R1347D
560.398	1.617	847629	WORD	n/a	wordpools/wordpool_short_EN.txt	MAP	1	5	[0, 0, 0]	n/a	FR1	3	R1347D
562.015	0.967	849252	WORD_OFF	n/a	n/a	MAP	1	5	[0, 0, 0]	n/a	FR1	3	R1347D
562.982	1.6	850222	WORD	n/a	wordpools/wordpool_short_EN.txt	ICE	2	5	[0, 0, 0]	n/a	FR1	3	R1347D
564.582	0.816	851823	WORD_OFF	n/a	n/a	ICE	2	5	[0, 0, 0]	n/a	FR1	3	R1347D
565.398	1.6	852634	WORD	n/a	wordpools/wordpool_short_EN.txt	PET	3	5	[0, 0, 0]	n/a	FR1	3	R1347D
566.998	0.767	854235	WORD_OFF	n/a	n/a	PET	3	5	[0, 0, 0]	n/a	FR1	3	R1347D
567.765	1.6	855001	WORD	n/a	wordpools/wordpool_short_EN.txt	JUDGE	4	5	[0, 0, 0]	n/a	FR1	3	R1347D
569.365	0.983	856602	WORD_OFF	n/a	n/a	JUDGE	4	5	[0, 0, 0]	n/a	FR1	3	R1347D
570.348	1.617	857583	WORD	n/a	wordpools/wordpool_short_EN.txt	BATH	5	5	[0, 0, 0]	n/a	FR1	3	R1347D
571.965	0.767	859195	WORD_OFF	n/a	n/a	BATH	5	5	[0, 0, 0]	n/a	FR1	3	R1347D
572.732	1.616	859961	WORD	n/a	wordpools/wordpool_short_EN.txt	SMOKE	6	5	[0, 0, 0]	n/a	FR1	3	R1347D
574.348	0.967	861585	WORD_OFF	n/a	n/a	SMOKE	6	5	[0, 0, 0]	n/a	FR1	3	R1347D
575.315	1.6	862554	WORD	n/a	wordpools/wordpool_short_EN.txt	MOUTH	7	5	[0, 0, 0]	n/a	FR1	3	R1347D
576.915	0.951	864144	WORD_OFF	n/a	n/a	MOUTH	7	5	[0, 0, 0]	n/a	FR1	3	R1347D
577.866	1.599	865102	WORD	n/a	wordpools/wordpool_short_EN.txt	MOOSE	8	5	[0, 0, 0]	n/a	FR1	3	R1347D
579.465	0.983	866703	WORD_OFF	n/a	n/a	MOOSE	8	5	[0, 0, 0]	n/a	FR1	3	R1347D
580.448	1.6	867683	WORD	n/a	wordpools/wordpool_short_EN.txt	SEAL	9	5	[0, 0, 0]	n/a	FR1	3	R1347D
582.048	1.0	869284	WORD_OFF	n/a	n/a	SEAL	9	5	[0, 0, 0]	n/a	FR1	3	R1347D
583.048	1.6	870287	WORD	n/a	wordpools/wordpool_short_EN.txt	SPICE	10	5	[0, 0, 0]	n/a	FR1	3	R1347D
584.648	0.916	871877	WORD_OFF	n/a	n/a	SPICE	10	5	[0, 0, 0]	n/a	FR1	3	R1347D
585.564	1.6	872801	WORD	n/a	wordpools/wordpool_short_EN.txt	MUD	11	5	[0, 0, 0]	n/a	FR1	3	R1347D
587.164	0.917	874402	WORD_OFF	n/a	n/a	MUD	11	5	[0, 0, 0]	n/a	FR1	3	R1347D
588.081	1.601	875315	WORD	n/a	wordpools/wordpool_short_EN.txt	MEN	12	5	[0, 0, 0]	n/a	FR1	3	R1347D
589.682	0.001	876916	WORD_OFF	n/a	n/a	MEN	12	5	[0, 0, 0]	n/a	FR1	3	R1347D
589.683	0.0	876916	ENCODING_END	n/a	n/a	n/a	-999	5	[0, 0, 0]	n/a	FR1	3	R1347D
589.683	0.0	876916	DISTRACT_START	n/a	n/a	n/a	-999	5	[0, 0, 0]	n/a	FR1	3	R1347D
589.682	0.001	876916	PROB	0.001	n/a	n/a	-999	5	[7, 6, 1]	14	FR1	3	R1347D
589.683	5.283	876917	START	n/a	n/a	n/a	-999	5	[-999, -999, -999]	n/a	FR1	3	R1347D
594.966	13.834	882200	PROB	13.834	n/a	n/a	-999	5	[6, 5, 7]	19	FR1	3	R1347D
608.8	37.365	896033	PROB	37.365	n/a	n/a	-999	5	[6, 4, 7]	17	FR1	3	R1347D
646.165	0.0	933392	DISTRACT_END	n/a	n/a	n/a	-999	5	[0, 0, 0]	n/a	FR1	3	R1347D
646.165	1.1	933396	STOP	n/a	n/a	n/a	-999	5	[-999, -999, -999]	n/a	FR1	3	R1347D
647.265	5.119	934497	REC_START	n/a	n/a	n/a	-999	5	[0, 0, 0]	n/a	FR1	3	R1347D
652.384	0.628	939615	REC_WORD	0.628	n/a	BEAN	-999	5	[0, 0, 0]	n/a	FR1	3	R1347D
653.012	0.554	940243	REC_WORD	0.554	n/a	WAND	-999	5	[0, 0, 0]	n/a	FR1	3	R1347D
653.566	3.184	940797	REC_WORD	3.184	n/a	POND	-999	5	[0, 0, 0]	n/a	FR1	3	R1347D
656.75	20.768	943980	REC_WORD	20.768	n/a	ICE	2	5	[0, 0, 0]	n/a	FR1	3	R1347D
677.518	6.531	964741	REC_END	n/a	n/a	n/a	-999	5	[0, 0, 0]	n/a	FR1	3	R1347D
684.049	10.35	971280	COUNTDOWN_START	n/a	n/a	n/a	-999	6	[0, 0, 0]	n/a	FR1	3	R1347D
694.399	0.0	981628	COUNTDOWN_END	n/a	n/a	n/a	-999	6	[0, 0, 0]	n/a	FR1	3	R1347D
694.399	2.233	981628	ENCODING_START	n/a	n/a	n/a	-999	6	[0, 0, 0]	n/a	FR1	3	R1347D
696.632	1.617	983860	WORD	n/a	wordpools/wordpool_short_EN.txt	SEED	1	6	[0, 0, 0]	n/a	FR1	3	R1347D
698.249	0.766	985472	WORD_OFF	n/a	n/a	SEED	1	6	[0, 0, 0]	n/a	FR1	3	R1347D
699.015	1.6	986238	WORD	n/a	wordpools/wordpool_short_EN.txt	MUG	2	6	[0, 0, 0]	n/a	FR1	3	R1347D
700.615	0.984	987839	WORD_OFF	n/a	n/a	MUG	2	6	[0, 0, 0]	n/a	FR1	3	R1347D
701.599	1.6	988831	WORD	n/a	wordpools/wordpool_short_EN.txt	ARK	3	6	[0, 0, 0]	n/a	FR1	3	R1347D
703.199	0.883	990432	WORD_OFF	n/a	n/a	ARK	3	6	[0, 0, 0]	n/a	FR1	3	R1347D
704.082	1.6	991311	WORD	n/a	wordpools/wordpool_short_EN.txt	MINK	4	6	[0, 0, 0]	n/a	FR1	3	R1347D
705.682	0.967	992912	WORD_OFF	n/a	n/a	MINK	4	6	[0, 0, 0]	n/a	FR1	3	R1347D
706.649	1.616	993881	WORD	n/a	wordpools/wordpool_short_EN.txt	CUBE	5	6	[0, 0, 0]	n/a	FR1	3	R1347D
708.265	0.884	995493	WORD_OFF	n/a	n/a	CUBE	5	6	[0, 0, 0]	n/a	FR1	3	R1347D
709.149	1.6	996373	WORD	n/a	wordpools/wordpool_short_EN.txt	PEARL	6	6	[0, 0, 0]	n/a	FR1	3	R1347D
710.749	0.883	997973	WORD_OFF	n/a	n/a	PEARL	6	6	[0, 0, 0]	n/a	FR1	3	R1347D
711.632	1.6	998864	WORD	n/a	wordpools/wordpool_short_EN.txt	CLOWN	7	6	[0, 0, 0]	n/a	FR1	3	R1347D
713.232	0.883	1000465	WORD_OFF	n/a	n/a	CLOWN	7	6	[0, 0, 0]	n/a	FR1	3	R1347D
714.115	1.617	1001344	WORD	n/a	wordpools/wordpool_short_EN.txt	PORK	8	6	[0, 0, 0]	n/a	FR1	3	R1347D
715.732	0.85	1002956	WORD_OFF	n/a	n/a	PORK	8	6	[0, 0, 0]	n/a	FR1	3	R1347D
716.582	1.6	1003813	WORD	n/a	wordpools/wordpool_short_EN.txt	CAVE	9	6	[0, 0, 0]	n/a	FR1	3	R1347D
718.182	0.767	1005413	WORD_OFF	n/a	n/a	CAVE	9	6	[0, 0, 0]	n/a	FR1	3	R1347D
718.949	1.6	1006180	WORD	n/a	wordpools/wordpool_short_EN.txt	CHEEK	10	6	[0, 0, 0]	n/a	FR1	3	R1347D
720.549	0.8	1007781	WORD_OFF	n/a	n/a	CHEEK	10	6	[0, 0, 0]	n/a	FR1	3	R1347D
721.349	1.616	1008581	WORD	n/a	wordpools/wordpool_short_EN.txt	FLEA	11	6	[0, 0, 0]	n/a	FR1	3	R1347D
722.965	0.85	1010193	WORD_OFF	n/a	n/a	FLEA	11	6	[0, 0, 0]	n/a	FR1	3	R1347D
723.815	1.6	1011038	WORD	n/a	wordpools/wordpool_short_EN.txt	SPONGE	12	6	[0, 0, 0]	n/a	FR1	3	R1347D
725.415	0.001	1012639	WORD_OFF	n/a	n/a	SPONGE	12	6	[0, 0, 0]	n/a	FR1	3	R1347D
725.416	0.001	1012643	PROB	0.001	n/a	n/a	-999	6	[4, 4, 8]	16	FR1	3	R1347D
725.417	0.0	1012644	START	n/a	n/a	n/a	-999	6	[-999, -999, -999]	n/a	FR1	3	R1347D
725.417	0.0	1012650	ENCODING_END	n/a	n/a	n/a	-999	6	[0, 0, 0]	n/a	FR1	3	R1347D
725.417	15.732	1012650	DISTRACT_START	n/a	n/a	n/a	-999	6	[0, 0, 0]	n/a	FR1	3	R1347D
741.149	8.683	1028375	PROB	8.683	n/a	n/a	-999	6	[7, 4, 1]	13	FR1	3	R1347D
749.832	0.0	1037056	DISTRACT_END	n/a	n/a	n/a	-999	6	[0, 0, 0]	n/a	FR1	3	R1347D
749.832	1.183	1037058	STOP	n/a	n/a	n/a	-999	6	[-999, -999, -999]	n/a	FR1	3	R1347D
751.015	2.237	1038239	REC_START	n/a	n/a	n/a	-999	6	[0, 0, 0]	n/a	FR1	3	R1347D
753.252	0.433	1040477	REC_WORD	0.433	n/a	MUG	2	6	[0, 0, 0]	n/a	FR1	3	R1347D
753.685	1.176	1040910	REC_WORD	1.176	n/a	ARK	3	6	[0, 0, 0]	n/a	FR1	3	R1347D
754.861	1.238	1042086	REC_WORD	1.238	n/a	CUBE	5	6	[0, 0, 0]	n/a	FR1	3	R1347D
756.099	0.766	1043324	REC_WORD	0.766	n/a	PORK	8	6	[0, 0, 0]	n/a	FR1	3	R1347D
756.865	24.412	1044090	REC_WORD	24.412	n/a	FLEA	11	6	[0, 0, 0]	n/a	FR1	3	R1347D
781.277	1.788	1068495	REC_END	n/a	n/a	n/a	-999	6	[0, 0, 0]	n/a	FR1	3	R1347D
783.065	10.35	1070288	COUNTDOWN_START	n/a	n/a	n/a	-999	7	[0, 0, 0]	n/a	FR1	3	R1347D
793.415	0.0	1080636	COUNTDOWN_END	n/a	n/a	n/a	-999	7	[0, 0, 0]	n/a	FR1	3	R1347D
793.415	1.916	1080636	ENCODING_START	n/a	n/a	n/a	-999	7	[0, 0, 0]	n/a	FR1	3	R1347D
795.331	1.6	1082553	WORD	n/a	wordpools/wordpool_short_EN.txt	CLOCK	1	7	[0, 0, 0]	n/a	FR1	3	R1347D
796.931	0.984	1084153	WORD_OFF	n/a	n/a	CLOCK	1	7	[0, 0, 0]	n/a	FR1	3	R1347D
797.915	1.601	1085134	WORD	n/a	wordpools/wordpool_short_EN.txt	CHIEF	2	7	[0, 0, 0]	n/a	FR1	3	R1347D
799.516	0.783	1086735	WORD_OFF	n/a	n/a	CHIEF	2	7	[0, 0, 0]	n/a	FR1	3	R1347D
800.299	1.616	1087524	WORD	n/a	wordpools/wordpool_short_EN.txt	BEEF	3	7	[0, 0, 0]	n/a	FR1	3	R1347D
801.915	0.951	1089136	WORD_OFF	n/a	n/a	BEEF	3	7	[0, 0, 0]	n/a	FR1	3	R1347D
802.866	1.601	1090094	WORD	n/a	wordpools/wordpool_short_EN.txt	WING	4	7	[0, 0, 0]	n/a	FR1	3	R1347D
804.467	0.866	1091695	WORD_OFF	n/a	n/a	WING	4	7	[0, 0, 0]	n/a	FR1	3	R1347D
805.333	1.616	1092551	WORD	n/a	wordpools/wordpool_short_EN.txt	STEM	5	7	[0, 0, 0]	n/a	FR1	3	R1347D
806.949	0.766	1094175	WORD_OFF	n/a	n/a	STEM	5	7	[0, 0, 0]	n/a	FR1	3	R1347D
807.715	1.6	1094941	WORD	n/a	wordpools/wordpool_short_EN.txt	SHIELD	6	7	[0, 0, 0]	n/a	FR1	3	R1347D
809.315	1.0	1096542	WORD_OFF	n/a	n/a	SHIELD	6	7	[0, 0, 0]	n/a	FR1	3	R1347D
810.315	1.616	1097534	WORD	n/a	wordpools/wordpool_short_EN.txt	BLUSH	7	7	[0, 0, 0]	n/a	FR1	3	R1347D
811.931	0.784	1099157	WORD_OFF	n/a	n/a	BLUSH	7	7	[0, 0, 0]	n/a	FR1	3	R1347D
812.715	1.616	1099935	WORD	n/a	wordpools/wordpool_short_EN.txt	STORE	8	7	[0, 0, 0]	n/a	FR1	3	R1347D
814.331	0.834	1101558	WORD_OFF	n/a	n/a	STORE	8	7	[0, 0, 0]	n/a	FR1	3	R1347D
815.165	1.6	1102393	WORD	n/a	wordpools/wordpool_short_EN.txt	EARTH	9	7	[0, 0, 0]	n/a	FR1	3	R1347D
816.765	0.95	1103993	WORD_OFF	n/a	n/a	EARTH	9	7	[0, 0, 0]	n/a	FR1	3	R1347D
817.715	1.617	1104940	WORD	n/a	wordpools/wordpool_short_EN.txt	CORK	10	7	[0, 0, 0]	n/a	FR1	3	R1347D
819.332	0.917	1106552	WORD_OFF	n/a	n/a	CORK	10	7	[0, 0, 0]	n/a	FR1	3	R1347D
820.249	1.6	1107477	WORD	n/a	wordpools/wordpool_short_EN.txt	PAINT	11	7	[0, 0, 0]	n/a	FR1	3	R1347D
821.849	0.9	1109066	WORD_OFF	n/a	n/a	PAINT	11	7	[0, 0, 0]	n/a	FR1	3	R1347D
822.749	1.617	1109968	WORD	n/a	wordpools/wordpool_short_EN.txt	BLOOM	12	7	[0, 0, 0]	n/a	FR1	3	R1347D
824.366	0.001	1111588	PROB	0.001	n/a	n/a	-999	7	[8, 1, 8]	17	FR1	3	R1347D
824.367	0.0	1111589	START	n/a	n/a	n/a	-999	7	[-999, -999, -999]	n/a	FR1	3	R1347D
824.365	0.002	1111591	WORD_OFF	n/a	n/a	BLOOM	12	7	[0, 0, 0]	n/a	FR1	3	R1347D
824.367	0.0	1111591	ENCODING_END	n/a	n/a	n/a	-999	7	[0, 0, 0]	n/a	FR1	3	R1347D
824.367	24.132	1111591	DISTRACT_START	n/a	n/a	n/a	-999	7	[0, 0, 0]	n/a	FR1	3	R1347D
848.499	0.0	1135715	DISTRACT_END	n/a	n/a	n/a	-999	7	[0, 0, 0]	n/a	FR1	3	R1347D
848.499	1.318	1135720	STOP	n/a	n/a	n/a	-999	7	[-999, -999, -999]	n/a	FR1	3	R1347D
849.817	2.399	1137034	REC_START	n/a	n/a	n/a	-999	7	[0, 0, 0]	n/a	FR1	3	R1347D
852.216	0.698	1139436	REC_WORD	0.698	n/a	BEEF	3	7	[0, 0, 0]	n/a	FR1	3	R1347D
852.914	0.623	1140134	REC_WORD	0.623	n/a	WING	4	7	[0, 0, 0]	n/a	FR1	3	R1347D
853.537	0.955	1140757	REC_WORD	0.955	n/a	STEM	5	7	[0, 0, 0]	n/a	FR1	3	R1347D
854.492	0.936	1141712	REC_WORD	0.936	n/a	CORK	10	7	[0, 0, 0]	n/a	FR1	3	R1347D
855.428	1.285	1142648	REC_WORD	1.285	n/a	STORE	8	7	[0, 0, 0]	n/a	FR1	3	R1347D
856.713	1.0	1143933	REC_WORD_VV	1.0	n/a	<>	-999	7	[0, 0, 0]	n/a	FR1	3	R1347D
857.713	2.0	1144933	REC_WORD_VV	2.0	n/a	<>	-999	7	[0, 0, 0]	n/a	FR1	3	R1347D
859.713	1.0	1146933	REC_WORD_VV	1.0	n/a	<>	-999	7	[0, 0, 0]	n/a	FR1	3	R1347D
860.713	19.352	1147933	REC_WORD_VV	19.352	n/a	<>	-999	7	[0, 0, 0]	n/a	FR1	3	R1347D
880.065	7.95	1167278	REC_END	n/a	n/a	n/a	-999	7	[0, 0, 0]	n/a	FR1	3	R1347D
888.015	10.351	1175237	COUNTDOWN_START	n/a	n/a	n/a	-999	8	[0, 0, 0]	n/a	FR1	3	R1347D
898.366	0.0	1185585	COUNTDOWN_END	n/a	n/a	n/a	-999	8	[0, 0, 0]	n/a	FR1	3	R1347D
898.366	2.249	1185585	ENCODING_START	n/a	n/a	n/a	-999	8	[0, 0, 0]	n/a	FR1	3	R1347D
900.615	1.6	1187828	WORD	n/a	wordpools/wordpool_short_EN.txt	COAL	1	8	[0, 0, 0]	n/a	FR1	3	R1347D
902.215	0.95	1189429	WORD_OFF	n/a	n/a	COAL	1	8	[0, 0, 0]	n/a	FR1	3	R1347D
903.165	1.6	1190387	WORD	n/a	wordpools/wordpool_short_EN.txt	RAKE	2	8	[0, 0, 0]	n/a	FR1	3	R1347D
904.765	0.767	1191988	WORD_OFF	n/a	n/a	RAKE	2	8	[0, 0, 0]	n/a	FR1	3	R1347D
905.532	1.6	1192755	WORD	n/a	wordpools/wordpool_short_EN.txt	BROOM	3	8	[0, 0, 0]	n/a	FR1	3	R1347D
907.132	0.966	1194355	WORD_OFF	n/a	n/a	BROOM	3	8	[0, 0, 0]	n/a	FR1	3	R1347D
908.098	1.617	1195314	WORD	n/a	wordpools/wordpool_short_EN.txt	SCHOOL	4	8	[0, 0, 0]	n/a	FR1	3	R1347D
909.715	0.784	1196937	WORD_OFF	n/a	n/a	SCHOOL	4	8	[0, 0, 0]	n/a	FR1	3	R1347D
910.499	1.616	1197715	WORD	n/a	wordpools/wordpool_short_EN.txt	PRIZE	5	8	[0, 0, 0]	n/a	FR1	3	R1347D
912.115	0.884	1199338	WORD_OFF	n/a	n/a	PRIZE	5	8	[0, 0, 0]	n/a	FR1	3	R1347D
912.999	1.6	1200217	WORD	n/a	wordpools/wordpool_short_EN.txt	SHED	6	8	[0, 0, 0]	n/a	FR1	3	R1347D
914.599	0.783	1201818	WORD_OFF	n/a	n/a	SHED	6	8	[0, 0, 0]	n/a	FR1	3	R1347D
915.382	1.6	1202596	WORD	n/a	wordpools/wordpool_short_EN.txt	CLIFF	7	8	[0, 0, 0]	n/a	FR1	3	R1347D
916.982	1.0	1204196	WORD_OFF	n/a	n/a	CLIFF	7	8	[0, 0, 0]	n/a	FR1	3	R1347D
917.982	1.6	1205200	WORD	n/a	wordpools/wordpool_short_EN.txt	LOCK	8	8	[0, 0, 0]	n/a	FR1	3	R1347D
919.582	0.95	1206800	WORD_OFF	n/a	n/a	LOCK	8	8	[0, 0, 0]	n/a	FR1	3	R1347D
920.532	1.617	1207747	WORD	n/a	wordpools/wordpool_short_EN.txt	FOX	9	8	[0, 0, 0]	n/a	FR1	3	R1347D
922.149	0.916	1209371	WORD_OFF	n/a	n/a	FOX	9	8	[0, 0, 0]	n/a	FR1	3	R1347D
923.065	1.6	1210284	WORD	n/a	wordpools/wordpool_short_EN.txt	GLASS	10	8	[0, 0, 0]	n/a	FR1	3	R1347D
924.665	0.8	1211884	WORD_OFF	n/a	n/a	GLASS	10	8	[0, 0, 0]	n/a	FR1	3	R1347D
925.465	1.617	1212685	WORD	n/a	wordpools/wordpool_short_EN.txt	FACE	11	8	[0, 0, 0]	n/a	FR1	3	R1347D
927.082	0.883	1214297	WORD_OFF	n/a	n/a	FACE	11	8	[0, 0, 0]	n/a	FR1	3	R1347D
927.965	1.6	1215187	WORD	n/a	wordpools/wordpool_short_EN.txt	BRIDGE	12	8	[0, 0, 0]	n/a	FR1	3	R1347D
929.565	0.001	1216777	WORD_OFF	n/a	n/a	BRIDGE	12	8	[0, 0, 0]	n/a	FR1	3	R1347D
929.566	0.001	1216782	PROB	0.001	n/a	n/a	-999	8	[1, 2, 7]	10	FR1	3	R1347D
929.567	0.0	1216783	START	n/a	n/a	n/a	-999	8	[-999, -999, -999]	n/a	FR1	3	R1347D
929.567	0.0	1216788	ENCODING_END	n/a	n/a	n/a	-999	8	[0, 0, 0]	n/a	FR1	3	R1347D
929.567	15.149	1216788	DISTRACT_START	n/a	n/a	n/a	-999	8	[0, 0, 0]	n/a	FR1	3	R1347D
944.716	3.616	1231932	PROB	3.616	n/a	n/a	-999	8	[4, 4, 1]	9	FR1	3	R1347D
948.332	5.9	1235548	PROB	5.9	n/a	n/a	-999	8	[7, 4, 6]	17	FR1	3	R1347D
954.232	0.0	1241442	DISTRACT_END	n/a	n/a	n/a	-999	8	[0, 0, 0]	n/a	FR1	3	R1347D
954.232	1.217	1241447	STOP	n/a	n/a	n/a	-999	8	[-999, -999, -999]	n/a	FR1	3	R1347D
955.449	2.386	1242659	REC_START	n/a	n/a	n/a	-999	8	[0, 0, 0]	n/a	FR1	3	R1347D
957.835	0.752	1245050	REC_WORD	0.752	n/a	SHED	6	8	[0, 0, 0]	n/a	FR1	3	R1347D
958.587	0.75	1245802	REC_WORD	0.75	n/a	CLOCK	-999	8	[0, 0, 0]	n/a	FR1	3	R1347D
959.337	1.384	1246552	REC_WORD	1.384	n/a	LOCK	8	8	[0, 0, 0]	n/a	FR1	3	R1347D
960.721	24.973	1247936	REC_WORD	24.973	n/a	FACE	11	8	[0, 0, 0]	n/a	FR1	3	R1347D
985.694	3.338	1272904	REC_END	n/a	n/a	n/a	-999	8	[0, 0, 0]	n/a	FR1	3	R1347D
989.032	10.35	1276252	COUNTDOWN_START	n/a	n/a	n/a	-999	9	[0, 0, 0]	n/a	FR1	3	R1347D
999.382	0.0	1286600	COUNTDOWN_END	n/a	n/a	n/a	-999	9	[0, 0, 0]	n/a	FR1	3	R1347D
999.382	2.016	1286600	ENCODING_START	n/a	n/a	n/a	-999	9	[0, 0, 0]	n/a	FR1	3	R1347D
1001.398	1.6	1288607	WORD	n/a	wordpools/wordpool_short_EN.txt	STAIR	1	9	[0, 0, 0]	n/a	FR1	3	R1347D
1002.998	0.918	1290207	WORD_OFF	n/a	n/a	STAIR	1	9	[0, 0, 0]	n/a	FR1	3	R1347D
1003.916	1.6	1291132	WORD	n/a	wordpools/wordpool_short_EN.txt	STRING	2	9	[0, 0, 0]	n/a	FR1	3	R1347D
1005.516	0.867	1292732	WORD_OFF	n/a	n/a	STRING	2	9	[0, 0, 0]	n/a	FR1	3	R1347D
1006.383	1.6	1293600	WORD	n/a	wordpools/wordpool_short_EN.txt	CORD	3	9	[0, 0, 0]	n/a	FR1	3	R1347D
1007.983	0.983	1295201	WORD_OFF	n/a	n/a	CORD	3	9	[0, 0, 0]	n/a	FR1	3	R1347D
1008.966	1.6	1296182	WORD	n/a	wordpools/wordpool_short_EN.txt	LAMP	4	9	[0, 0, 0]	n/a	FR1	3	R1347D
1010.566	0.916	1297783	WORD_OFF	n/a	n/a	LAMP	4	9	[0, 0, 0]	n/a	FR1	3	R1347D
1011.482	1.6	1298696	WORD	n/a	wordpools/wordpool_short_EN.txt	BEAK	5	9	[0, 0, 0]	n/a	FR1	3	R1347D
1013.082	0.767	1300296	WORD_OFF	n/a	n/a	BEAK	5	9	[0, 0, 0]	n/a	FR1	3	R1347D
1013.849	1.616	1301063	WORD	n/a	wordpools/wordpool_short_EN.txt	STEEL	6	9	[0, 0, 0]	n/a	FR1	3	R1347D
1015.465	0.884	1302675	WORD_OFF	n/a	n/a	STEEL	6	9	[0, 0, 0]	n/a	FR1	3	R1347D
1016.349	1.6	1303565	WORD	n/a	wordpools/wordpool_short_EN.txt	TREE	7	9	[0, 0, 0]	n/a	FR1	3	R1347D
1017.949	0.85	1305166	WORD_OFF	n/a	n/a	TREE	7	9	[0, 0, 0]	n/a	FR1	3	R1347D
1018.799	1.6	1306012	WORD	n/a	wordpools/wordpool_short_EN.txt	SPARK	8	9	[0, 0, 0]	n/a	FR1	3	R1347D
1020.399	0.8	1307612	WORD_OFF	n/a	n/a	SPARK	8	9	[0, 0, 0]	n/a	FR1	3	R1347D
1021.199	1.616	1308413	WORD	n/a	wordpools/wordpool_short_EN.txt	WIG	9	9	[0, 0, 0]	n/a	FR1	3	R1347D
1022.815	0.917	1310025	WORD_OFF	n/a	n/a	WIG	9	9	[0, 0, 0]	n/a	FR1	3	R1347D
1023.732	1.6	1310949	WORD	n/a	wordpools/wordpool_short_EN.txt	EEL	10	9	[0, 0, 0]	n/a	FR1	3	R1347D
1025.332	0.883	1312539	WORD_OFF	n/a	n/a	EEL	10	9	[0, 0, 0]	n/a	FR1	3	R1347D
1026.215	1.6	1313429	WORD	n/a	wordpools/wordpool_short_EN.txt	SINK	11	9	[0, 0, 0]	n/a	FR1	3	R1347D
1027.815	0.917	1315030	WORD_OFF	n/a	n/a	SINK	11	9	[0, 0, 0]	n/a	FR1	3	R1347D
1028.732	1.6	1315943	WORD	n/a	wordpools/wordpool_short_EN.txt	SHELL	12	9	[0, 0, 0]	n/a	FR1	3	R1347D
1030.332	0.002	1317544	WORD_OFF	n/a	n/a	SHELL	12	9	[0, 0, 0]	n/a	FR1	3	R1347D
1030.334	0.0	1317544	ENCODING_END	n/a	n/a	n/a	-999	9	[0, 0, 0]	n/a	FR1	3	R1347D
1030.334	0.0	1317544	DISTRACT_START	n/a	n/a	n/a	-999	9	[0, 0, 0]	n/a	FR1	3	R1347D
1030.333	0.001	1317544	PROB	0.001	n/a	n/a	-999	9	[7, 5, 8]	20	FR1	3	R1347D
1030.334	16.415	1317545	START	n/a	n/a	n/a	-999	9	[-999, -999, -999]	n/a	FR1	3	R1347D
1046.749	7.166	1333960	PROB	7.166	n/a	n/a	-999	9	[3, 3, 1]	7	FR1	3	R1347D
1053.915	0.0	1341125	STOP	n/a	n/a	n/a	-999	9	[-999, -999, -999]	n/a	FR1	3	R1347D
1053.915	1.183	1341126	DISTRACT_END	n/a	n/a	n/a	-999	9	[0, 0, 0]	n/a	FR1	3	R1347D
1055.098	2.815	1342310	REC_START	n/a	n/a	n/a	-999	9	[0, 0, 0]	n/a	FR1	3	R1347D
1057.913	0.486	1345123	REC_WORD	0.486	n/a	CORD	3	9	[0, 0, 0]	n/a	FR1	3	R1347D
1058.399	0.521	1345609	REC_WORD	0.521	n/a	LAMP	4	9	[0, 0, 0]	n/a	FR1	3	R1347D
1058.92	0.836	1346130	REC_WORD	0.836	n/a	BEAK	5	9	[0, 0, 0]	n/a	FR1	3	R1347D
1059.756	0.727	1346966	REC_WORD	0.727	n/a	TREE	7	9	[0, 0, 0]	n/a	FR1	3	R1347D
1060.483	22.692	1347693	REC_WORD	22.692	n/a	EEL	10	9	[0, 0, 0]	n/a	FR1	3	R1347D
1083.175	2.173	1370384	REC_WORD	2.173	n/a	BEAN	-999	9	[0, 0, 0]	n/a	FR1	3	R1347D
1085.348	9.317	1372555	REC_END	n/a	n/a	n/a	-999	9	[0, 0, 0]	n/a	FR1	3	R1347D
1094.665	10.35	1381877	COUNTDOWN_START	n/a	n/a	n/a	-999	10	[0, 0, 0]	n/a	FR1	3	R1347D
1105.015	0.001	1392225	COUNTDOWN_END	n/a	n/a	n/a	-999	10	[0, 0, 0]	n/a	FR1	3	R1347D
1105.016	1.949	1392225	ENCODING_START	n/a	n/a	n/a	-999	10	[0, 0, 0]	n/a	FR1	3	R1347D
1106.965	1.6	1394176	WORD	n/a	wordpools/wordpool_short_EN.txt	SEA	1	10	[0, 0, 0]	n/a	FR1	3	R1347D
1108.565	0.783	1395776	WORD_OFF	n/a	n/a	SEA	1	10	[0, 0, 0]	n/a	FR1	3	R1347D
1109.348	1.6	1396554	WORD	n/a	wordpools/wordpool_short_EN.txt	PILL	2	10	[0, 0, 0]	n/a	FR1	3	R1347D
1110.948	0.967	1398155	WORD_OFF	n/a	n/a	PILL	2	10	[0, 0, 0]	n/a	FR1	3	R1347D
1111.915	1.617	1399124	WORD	n/a	wordpools/wordpool_short_EN.txt	PIN	3	10	[0, 0, 0]	n/a	FR1	3	R1347D
1113.532	0.916	1400736	WORD_OFF	n/a	n/a	PIN	3	10	[0, 0, 0]	n/a	FR1	3	R1347D
1114.448	1.601	1401661	WORD	n/a	wordpools/wordpool_short_EN.txt	MAIL	4	10	[0, 0, 0]	n/a	FR1	3	R1347D
1116.049	0.951	1403261	WORD_OFF	n/a	n/a	MAIL	4	10	[0, 0, 0]	n/a	FR1	3	R1347D
1117.0	1.599	1404208	WORD	n/a	wordpools/wordpool_short_EN.txt	FLAME	5	10	[0, 0, 0]	n/a	FR1	3	R1347D
1118.599	0.9	1405809	WORD_OFF	n/a	n/a	FLAME	5	10	[0, 0, 0]	n/a	FR1	3	R1347D
1119.499	1.6	1406711	WORD	n/a	wordpools/wordpool_short_EN.txt	CREAM	6	10	[0, 0, 0]	n/a	FR1	3	R1347D
1121.099	0.766	1408300	WORD_OFF	n/a	n/a	CREAM	6	10	[0, 0, 0]	n/a	FR1	3	R1347D
1121.865	1.617	1409067	WORD	n/a	wordpools/wordpool_short_EN.txt	CAT	7	10	[0, 0, 0]	n/a	FR1	3	R1347D
1123.482	0.8	1410690	WORD_OFF	n/a	n/a	CAT	7	10	[0, 0, 0]	n/a	FR1	3	R1347D
1124.282	1.617	1411490	WORD	n/a	wordpools/wordpool_short_EN.txt	SHARK	8	10	[0, 0, 0]	n/a	FR1	3	R1347D
1125.899	0.85	1413102	WORD_OFF	n/a	n/a	SHARK	8	10	[0, 0, 0]	n/a	FR1	3	R1347D
1126.749	1.6	1413959	WORD	n/a	wordpools/wordpool_short_EN.txt	VEST	9	10	[0, 0, 0]	n/a	FR1	3	R1347D
1128.349	0.966	1415560	WORD_OFF	n/a	n/a	VEST	9	10	[0, 0, 0]	n/a	FR1	3	R1347D
1129.315	1.617	1416518	WORD	n/a	wordpools/wordpool_short_EN.txt	BRUSH	10	10	[0, 0, 0]	n/a	FR1	3	R1347D
1130.932	0.917	1418141	WORD_OFF	n/a	n/a	BRUSH	10	10	[0, 0, 0]	n/a	FR1	3	R1347D
1131.849	1.6	1419054	WORD	n/a	wordpools/wordpool_short_EN.txt	RICE	11	10	[0, 0, 0]	n/a	FR1	3	R1347D
1133.449	0.833	1420655	WORD_OFF	n/a	n/a	RICE	11	10	[0, 0, 0]	n/a	FR1	3	R1347D
1134.282	1.6	1421489	WORD	n/a	wordpools/wordpool_short_EN.txt	CHILD	12	10	[0, 0, 0]	n/a	FR1	3	R1347D
1135.882	0.0	1423088	PROB	0.0	n/a	n/a	-999	10	[2, 2, 5]	9	FR1	3	R1347D
1135.882	0.002	1423090	WORD_OFF	n/a	n/a	CHILD	12	10	[0, 0, 0]	n/a	FR1	3	R1347D
1135.884	0.0	1423090	ENCODING_END	n/a	n/a	n/a	-999	10	[0, 0, 0]	n/a	FR1	3	R1347D
1135.884	0.0	1423090	DISTRACT_START	n/a	n/a	n/a	-999	10	[0, 0, 0]	n/a	FR1	3	R1347D
1135.884	13.715	1423090	START	n/a	n/a	n/a	-999	10	[-999, -999, -999]	n/a	FR1	3	R1347D
1149.599	5.433	1436804	PROB	5.433	n/a	n/a	-999	10	[5, 6, 5]	16	FR1	3	R1347D
1155.032	6.0	1442237	PROB	6.0	n/a	n/a	-999	10	[7, 2, 7]	16	FR1	3	R1347D
1161.032	0.0	1448237	STOP	n/a	n/a	n/a	-999	10	[-999, -999, -999]	n/a	FR1	3	R1347D
1161.032	1.133	1448240	DISTRACT_END	n/a	n/a	n/a	-999	10	[0, 0, 0]	n/a	FR1	3	R1347D
1162.165	2.475	1449367	REC_START	n/a	n/a	n/a	-999	10	[0, 0, 0]	n/a	FR1	3	R1347D
1164.64	0.924	1451845	REC_WORD	0.924	n/a	SEAL	-999	10	[0, 0, 0]	n/a	FR1	3	R1347D
1165.564	0.778	1452768	REC_WORD	0.778	n/a	PIN	3	10	[0, 0, 0]	n/a	FR1	3	R1347D
1166.342	2.54	1453546	REC_WORD	2.54	n/a	CAT	7	10	[0, 0, 0]	n/a	FR1	3	R1347D
1168.882	0.873	1456086	REC_WORD	0.873	n/a	RICE	11	10	[0, 0, 0]	n/a	FR1	3	R1347D
1169.755	12.504	1456959	REC_WORD	12.504	n/a	VEST	9	10	[0, 0, 0]	n/a	FR1	3	R1347D
1182.259	10.149	1469463	REC_WORD	10.149	n/a	WIN	-999	10	[0, 0, 0]	n/a	FR1	3	R1347D
1192.408	2.041	1479612	REC_END	n/a	n/a	n/a	-999	10	[0, 0, 0]	n/a	FR1	3	R1347D
1194.449	10.35	1481652	COUNTDOWN_START	n/a	n/a	n/a	-999	11	[0, 0, 0]	n/a	FR1	3	R1347D
1204.799	0.001	1492000	COUNTDOWN_END	n/a	n/a	n/a	-999	11	[0, 0, 0]	n/a	FR1	3	R1347D
1204.8	2.249	1492000	ENCODING_START	n/a	n/a	n/a	-999	11	[0, 0, 0]	n/a	FR1	3	R1347D
1207.049	1.616	1494255	WORD	n/a	wordpools/wordpool_short_EN.txt	CURB	1	11	[0, 0, 0]	n/a	FR1	3	R1347D
1208.665	0.767	1495867	WORD_OFF	n/a	n/a	CURB	1	11	[0, 0, 0]	n/a	FR1	3	R1347D
1209.432	1.616	1496633	WORD	n/a	wordpools/wordpool_short_EN.txt	JAR	2	11	[0, 0, 0]	n/a	FR1	3	R1347D
1211.048	0.767	1498245	WORD_OFF	n/a	n/a	JAR	2	11	[0, 0, 0]	n/a	FR1	3	R1347D
1211.815	1.617	1499012	WORD	n/a	wordpools/wordpool_short_EN.txt	GLOVE	3	11	[0, 0, 0]	n/a	FR1	3	R1347D
1213.432	0.784	1500635	WORD_OFF	n/a	n/a	GLOVE	3	11	[0, 0, 0]	n/a	FR1	3	R1347D
1214.216	1.616	1501413	WORD	n/a	wordpools/wordpool_short_EN.txt	HEEL	4	11	[0, 0, 0]	n/a	FR1	3	R1347D
1215.832	1.0	1503036	WORD_OFF	n/a	n/a	HEEL	4	11	[0, 0, 0]	n/a	FR1	3	R1347D
1216.832	1.617	1504039	WORD	n/a	wordpools/wordpool_short_EN.txt	SAIL	5	11	[0, 0, 0]	n/a	FR1	3	R1347D
1218.449	0.983	1505651	WORD_OFF	n/a	n/a	SAIL	5	11	[0, 0, 0]	n/a	FR1	3	R1347D
1219.432	1.6	1506632	WORD	n/a	wordpools/wordpool_short_EN.txt	WEB	6	11	[0, 0, 0]	n/a	FR1	3	R1347D
1221.032	0.883	1508233	WORD_OFF	n/a	n/a	WEB	6	11	[0, 0, 0]	n/a	FR1	3	R1347D
1221.915	1.6	1509112	WORD	n/a	wordpools/wordpool_short_EN.txt	SWORD	7	11	[0, 0, 0]	n/a	FR1	3	R1347D
1223.515	0.984	1510713	WORD_OFF	n/a	n/a	SWORD	7	11	[0, 0, 0]	n/a	FR1	3	R1347D
1224.499	1.6	1511705	WORD	n/a	wordpools/wordpool_short_EN.txt	PASTE	8	11	[0, 0, 0]	n/a	FR1	3	R1347D
1226.099	0.933	1513294	WORD_OFF	n/a	n/a	PASTE	8	11	[0, 0, 0]	n/a	FR1	3	R1347D
1227.032	1.617	1514230	WORD	n/a	wordpools/wordpool_short_EN.txt	RIB	9	11	[0, 0, 0]	n/a	FR1	3	R1347D
1228.649	0.983	1515853	WORD_OFF	n/a	n/a	RIB	9	11	[0, 0, 0]	n/a	FR1	3	R1347D
1229.632	1.617	1516834	WORD	n/a	wordpools/wordpool_short_EN.txt	STREET	10	11	[0, 0, 0]	n/a	FR1	3	R1347D
1231.249	0.933	1518446	WORD_OFF	n/a	n/a	STREET	10	11	[0, 0, 0]	n/a	FR1	3	R1347D
1232.182	1.6	1519382	WORD	n/a	wordpools/wordpool_short_EN.txt	BIRD	11	11	[0, 0, 0]	n/a	FR1	3	R1347D
1233.782	0.95	1520982	WORD_OFF	n/a	n/a	BIRD	11	11	[0, 0, 0]	n/a	FR1	3	R1347D
1234.732	1.6	1521929	WORD	n/a	wordpools/wordpool_short_EN.txt	STICK	12	11	[0, 0, 0]	n/a	FR1	3	R1347D
1236.332	0.002	1523530	WORD_OFF	n/a	n/a	STICK	12	11	[0, 0, 0]	n/a	FR1	3	R1347D
1236.334	0.0	1523530	ENCODING_END	n/a	n/a	n/a	-999	11	[0, 0, 0]	n/a	FR1	3	R1347D
1236.332	0.002	1523533	PROB	0.002	n/a	n/a	-999	11	[4, 6, 6]	16	FR1	3	R1347D
1236.334	0.0	1523535	START	n/a	n/a	n/a	-999	11	[-999, -999, -999]	n/a	FR1	3	R1347D
1236.334	16.515	1523541	DISTRACT_START	n/a	n/a	n/a	-999	11	[0, 0, 0]	n/a	FR1	3	R1347D
1252.849	9.7	1540049	PROB	9.7	n/a	n/a	-999	11	[1, 4, 8]	13	FR1	3	R1347D
1262.549	0.0	1549749	STOP	n/a	n/a	n/a	-999	11	[-999, -999, -999]	n/a	FR1	3	R1347D
1262.549	1.183	1549750	DISTRACT_END	n/a	n/a	n/a	-999	11	[0, 0, 0]	n/a	FR1	3	R1347D
1263.732	2.473	1550934	REC_START	n/a	n/a	n/a	-999	11	[0, 0, 0]	n/a	FR1	3	R1347D
1266.205	0.725	1553404	REC_WORD	0.725	n/a	CURB	1	11	[0, 0, 0]	n/a	FR1	3	R1347D
1266.93	0.819	1554129	REC_WORD	0.819	n/a	JAR	2	11	[0, 0, 0]	n/a	FR1	3	R1347D
1267.749	0.866	1554948	REC_WORD	0.866	n/a	PIN	-999	11	[0, 0, 0]	n/a	FR1	3	R1347D
1268.615	19.307	1555814	REC_WORD	19.307	n/a	WEB	6	11	[0, 0, 0]	n/a	FR1	3	R1347D
1287.922	6.074	1575120	REC_WORD	6.074	n/a	WIN	-999	11	[0, 0, 0]	n/a	FR1	3	R1347D
1293.996	3.336	1581190	REC_END	n/a	n/a	n/a	-999	11	[0, 0, 0]	n/a	FR1	3	R1347D
1297.332	10.35	1584527	COUNTDOWN_START	n/a	n/a	n/a	-999	12	[0, 0, 0]	n/a	FR1	3	R1347D
1307.682	0.0	1594875	COUNTDOWN_END	n/a	n/a	n/a	-999	12	[0, 0, 0]	n/a	FR1	3	R1347D
1307.682	2.066	1594886	ENCODING_START	n/a	n/a	n/a	-999	12	[0, 0, 0]	n/a	FR1	3	R1347D
1309.748	1.601	1596949	WORD	n/a	wordpools/wordpool_short_EN.txt	YARD	1	12	[0, 0, 0]	n/a	FR1	3	R1347D
1311.349	0.982	1598550	WORD_OFF	n/a	n/a	YARD	1	12	[0, 0, 0]	n/a	FR1	3	R1347D
1312.331	1.602	1599531	WORD	n/a	wordpools/wordpool_short_EN.txt	SALT	2	12	[0, 0, 0]	n/a	FR1	3	R1347D
1313.933	0.766	1601131	WORD_OFF	n/a	n/a	SALT	2	12	[0, 0, 0]	n/a	FR1	3	R1347D
1314.699	1.6	1601898	WORD	n/a	wordpools/wordpool_short_EN.txt	INK	3	12	[0, 0, 0]	n/a	FR1	3	R1347D
1316.299	0.867	1603499	WORD_OFF	n/a	n/a	INK	3	12	[0, 0, 0]	n/a	FR1	3	R1347D
1317.166	1.617	1604367	WORD	n/a	wordpools/wordpool_short_EN.txt	SKI	4	12	[0, 0, 0]	n/a	FR1	3	R1347D
1318.783	0.832	1605979	WORD_OFF	n/a	n/a	SKI	4	12	[0, 0, 0]	n/a	FR1	3	R1347D
1319.615	1.6	1606813	WORD	n/a	wordpools/wordpool_short_EN.txt	CROWN	5	12	[0, 0, 0]	n/a	FR1	3	R1347D
1321.215	1.0	1608414	WORD_OFF	n/a	n/a	CROWN	5	12	[0, 0, 0]	n/a	FR1	3	R1347D
1322.215	1.6	1609417	WORD	n/a	wordpools/wordpool_short_EN.txt	SNAIL	6	12	[0, 0, 0]	n/a	FR1	3	R1347D
1323.815	0.984	1611006	WORD_OFF	n/a	n/a	SNAIL	6	12	[0, 0, 0]	n/a	FR1	3	R1347D
1324.799	1.6	1611998	WORD	n/a	wordpools/wordpool_short_EN.txt	SKY	7	12	[0, 0, 0]	n/a	FR1	3	R1347D
1326.399	0.783	1613599	WORD_OFF	n/a	n/a	SKY	7	12	[0, 0, 0]	n/a	FR1	3	R1347D
1327.182	1.617	1614377	WORD	n/a	wordpools/wordpool_short_EN.txt	TRAIL	8	12	[0, 0, 0]	n/a	FR1	3	R1347D
1328.799	0.95	1616000	WORD_OFF	n/a	n/a	TRAIL	8	12	[0, 0, 0]	n/a	FR1	3	R1347D
1329.749	1.6	1616947	WORD	n/a	wordpools/wordpool_short_EN.txt	HEART	9	12	[0, 0, 0]	n/a	FR1	3	R1347D
1331.349	0.95	1618548	WORD_OFF	n/a	n/a	HEART	9	12	[0, 0, 0]	n/a	FR1	3	R1347D
1332.299	1.6	1619495	WORD	n/a	wordpools/wordpool_short_EN.txt	STOOL	10	12	[0, 0, 0]	n/a	FR1	3	R1347D
1333.899	0.85	1621095	WORD_OFF	n/a	n/a	STOOL	10	12	[0, 0, 0]	n/a	FR1	3	R1347D
1334.749	1.6	1621941	WORD	n/a	wordpools/wordpool_short_EN.txt	COURT	11	12	[0, 0, 0]	n/a	FR1	3	R1347D
1336.349	0.85	1623542	WORD_OFF	n/a	n/a	COURT	11	12	[0, 0, 0]	n/a	FR1	3	R1347D
1337.199	1.616	1624398	WORD	n/a	wordpools/wordpool_short_EN.txt	LENS	12	12	[0, 0, 0]	n/a	FR1	3	R1347D
1338.815	0.002	1626010	WORD_OFF	n/a	n/a	LENS	12	12	[0, 0, 0]	n/a	FR1	3	R1347D
1338.817	0.0	1626010	ENCODING_END	n/a	n/a	n/a	-999	12	[0, 0, 0]	n/a	FR1	3	R1347D
1338.817	0.0	1626010	DISTRACT_START	n/a	n/a	n/a	-999	12	[0, 0, 0]	n/a	FR1	3	R1347D
1338.816	0.001	1626012	PROB	0.001	n/a	n/a	-999	12	[2, 7, 2]	11	FR1	3	R1347D
1338.817	19.949	1626013	START	n/a	n/a	n/a	-999	12	[-999, -999, -999]	n/a	FR1	3	R1347D
1358.766	29.766	1645961	PROB	29.766	n/a	n/a	-999	12	[2, 6, 8]	16	FR1	3	R1347D
1388.532	0.0	1675723	DISTRACT_END	n/a	n/a	n/a	-999	12	[0, 0, 0]	n/a	FR1	3	R1347D
1388.532	1.3	1675725	STOP	n/a	n/a	n/a	-999	12	[-999, -999, -999]	n/a	FR1	3	R1347D
1389.832	1.754	1677031	REC_START	n/a	n/a	n/a	-999	12	[0, 0, 0]	n/a	FR1	3	R1347D
1391.586	28.498	1678779	REC_WORD	28.498	n/a	SKY	7	12	[0, 0, 0]	n/a	FR1	3	R1347D
1420.084	0.0	1707275	REC_END	n/a	n/a	n/a	-999	12	[0, 0, 0]	n/a	FR1	3	R1347D
