onset	duration	sample	trial_type	response_time	stim_file	item_name	serialpos	list	test	answer	experiment	session	subject
0.0	1.383	175634	INSTRUCT_START	n/a	n/a	n/a	-999	-999	[0, 0, 0]	n/a	FR1	1	R1463E
1.383	30.198	177011	INSTRUCT_END	n/a	n/a	n/a	-999	-999	[0, 0, 0]	n/a	FR1	1	R1463E
31.581	10.35	207206	COUNTDOWN_START	n/a	n/a	n/a	-999	-999	[0, 0, 0]	n/a	FR1	1	R1463E
41.931	0.0	217561	COUNTDOWN_END	n/a	n/a	n/a	-999	-999	[0, 0, 0]	n/a	FR1	1	R1463E
41.931	1.815	217561	ENCODING_START	n/a	n/a	n/a	-999	-1	[0, 0, 0]	n/a	FR1	1	R1463E
43.746	1.601	219373	WORD	n/a	n/a	QUEEN	1	-1	[0, 0, 0]	n/a	FR1	1	R1463E
45.347	0.967	220972	WORD_OFF	n/a	n/a	QUEEN	1	-1	[0, 0, 0]	n/a	FR1	1	R1463E
46.314	1.616	221944	WORD	n/a	n/a	BATH	2	-1	[0, 0, 0]	n/a	FR1	1	R1463E
47.93	0.767	223564	WORD_OFF	n/a	n/a	BATH	2	-1	[0, 0, 0]	n/a	FR1	1	R1463E
48.697	1.616	224323	WORD	n/a	n/a	TRASH	3	-1	[0, 0, 0]	n/a	FR1	1	R1463E
50.313	0.901	225943	WORD_OFF	n/a	n/a	TRASH	3	-1	[0, 0, 0]	n/a	FR1	1	R1463E
51.214	1.616	226843	WORD	n/a	n/a	BREAD	4	-1	[0, 0, 0]	n/a	FR1	1	R1463E
52.83	0.917	228460	WORD_OFF	n/a	n/a	BREAD	4	-1	[0, 0, 0]	n/a	FR1	1	R1463E
53.747	1.617	229374	WORD	n/a	n/a	HOOK	5	-1	[0, 0, 0]	n/a	FR1	1	R1463E
55.364	0.882	230994	WORD_OFF	n/a	n/a	HOOK	5	-1	[0, 0, 0]	n/a	FR1	1	R1463E
56.246	1.618	231874	WORD	n/a	n/a	RICE	6	-1	[0, 0, 0]	n/a	FR1	1	R1463E
57.864	0.881	233494	WORD_OFF	n/a	n/a	RICE	6	-1	[0, 0, 0]	n/a	FR1	1	R1463E
58.745	1.602	234375	WORD	n/a	n/a	SEED	7	-1	[0, 0, 0]	n/a	FR1	1	R1463E
60.347	0.949	235974	WORD_OFF	n/a	n/a	SEED	7	-1	[0, 0, 0]	n/a	FR1	1	R1463E
61.296	1.616	236925	WORD	n/a	n/a	HEDGE	8	-1	[0, 0, 0]	n/a	FR1	1	R1463E
62.912	0.968	238545	WORD_OFF	n/a	n/a	HEDGE	8	-1	[0, 0, 0]	n/a	FR1	1	R1463E
63.88	1.6	239507	WORD	n/a	n/a	BOWL	9	-1	[0, 0, 0]	n/a	FR1	1	R1463E
65.48	0.816	241106	WORD_OFF	n/a	n/a	BOWL	9	-1	[0, 0, 0]	n/a	FR1	1	R1463E
66.296	1.601	241926	WORD	n/a	n/a	BADGE	10	-1	[0, 0, 0]	n/a	FR1	1	R1463E
67.897	0.849	243525	WORD_OFF	n/a	n/a	BADGE	10	-1	[0, 0, 0]	n/a	FR1	1	R1463E
68.746	1.617	244376	WORD	n/a	n/a	STEM	11	-1	[0, 0, 0]	n/a	FR1	1	R1463E
70.363	0.917	245995	WORD_OFF	n/a	n/a	STEM	11	-1	[0, 0, 0]	n/a	FR1	1	R1463E
71.28	1.616	246906	WORD	n/a	n/a	BAG	12	-1	[0, 0, 0]	n/a	FR1	1	R1463E
72.896	0.002	248526	WORD_OFF	n/a	n/a	BAG	12	-1	[0, 0, 0]	n/a	FR1	1	R1463E
72.898	0.0	248526	ENCODING_END	n/a	n/a	n/a	-999	-1	[0, 0, 0]	n/a	FR1	1	R1463E
72.898	0.0	248526	DISTRACT_START	n/a	n/a	n/a	-999	-1	[0, 0, 0]	n/a	FR1	1	R1463E
72.898	0.0	248535	START	n/a	n/a	n/a	-999	-1	[-999, -999, -999]	n/a	FR1	1	R1463E
72.898	3.133	248535	PROB	3.133	n/a	n/a	-999	-1	[1, 3, 7]	11	FR1	1	R1463E
76.031	3.265	251668	PROB	3.265	n/a	n/a	-999	-1	[2, 7, 1]	10	FR1	1	R1463E
79.296	3.884	254933	PROB	3.884	n/a	n/a	-999	-1	[6, 8, 6]	20	FR1	1	R1463E
83.18	2.849	258817	PROB	2.849	n/a	n/a	-999	-1	[5, 4, 1]	10	FR1	1	R1463E
86.029	2.101	261666	PROB	2.101	n/a	n/a	-999	-1	[1, 3, 7]	11	FR1	1	R1463E
88.13	2.9	263767	PROB	2.9	n/a	n/a	-999	-1	[8, 7, 5]	20	FR1	1	R1463E
91.03	3.232	266667	PROB	3.232	n/a	n/a	-999	-1	[1, 8, 6]	15	FR1	1	R1463E
94.262	0.0	269894	DISTRACT_END	n/a	n/a	n/a	-999	-1	[0, 0, 0]	n/a	FR1	1	R1463E
94.262	2.017	269899	STOP	n/a	n/a	n/a	-999	-1	[-999, -999, -999]	n/a	FR1	1	R1463E
96.279	0.328	271906	REC_START	n/a	n/a	n/a	-999	-1	[0, 0, 0]	n/a	FR1	1	R1463E
96.607	1.526	272244	REC_WORD	1.526	n/a	QUEEN	1	-1	[0, 0, 0]	n/a	FR1	1	R1463E
98.133	1.843	273770	REC_WORD	1.843	n/a	STEM	11	-1	[0, 0, 0]	n/a	FR1	1	R1463E
99.976	2.02	275613	REC_WORD	2.02	n/a	BADGE	10	-1	[0, 0, 0]	n/a	FR1	1	R1463E
101.996	3.446	277633	REC_WORD	3.446	n/a	RICE	6	-1	[0, 0, 0]	n/a	FR1	1	R1463E
105.442	3.878	281079	REC_WORD	3.878	n/a	BED	-999	-1	[0, 0, 0]	n/a	FR1	1	R1463E
109.32	14.507	284957	REC_WORD_VV	14.507	n/a	<>	-999	-1	[0, 0, 0]	n/a	FR1	1	R1463E
123.827	2.697	299465	REC_WORD_VV	2.697	n/a	<>	-999	-1	[0, 0, 0]	n/a	FR1	1	R1463E
126.524	12.487	302154	REC_END	n/a	n/a	n/a	-999	-1	[0, 0, 0]	n/a	FR1	1	R1463E
139.011	10.35	314646	COUNTDOWN_START	n/a	n/a	n/a	-999	1	[0, 0, 0]	n/a	FR1	1	R1463E
149.361	0.0	324991	COUNTDOWN_END	n/a	n/a	n/a	-999	1	[0, 0, 0]	n/a	FR1	1	R1463E
149.361	2.2	324991	ENCODING_START	n/a	n/a	n/a	-999	1	[0, 0, 0]	n/a	FR1	1	R1463E
151.561	1.616	327187	WORD	n/a	wordpools/wordpool_long_EN.txt	HOSE	1	1	[0, 0, 0]	n/a	FR1	1	R1463E
153.177	0.95	328807	WORD_OFF	n/a	n/a	HOSE	1	1	[0, 0, 0]	n/a	FR1	1	R1463E
154.127	1.616	329758	WORD	n/a	wordpools/wordpool_long_EN.txt	HILL	2	1	[0, 0, 0]	n/a	FR1	1	R1463E
155.743	0.95	331368	WORD_OFF	n/a	n/a	HILL	2	1	[0, 0, 0]	n/a	FR1	1	R1463E
156.693	1.6	332319	WORD	n/a	wordpools/wordpool_long_EN.txt	OX	3	1	[0, 0, 0]	n/a	FR1	1	R1463E
158.293	0.866	333919	WORD_OFF	n/a	n/a	OX	3	1	[0, 0, 0]	n/a	FR1	1	R1463E
159.159	1.6	334789	WORD	n/a	wordpools/wordpool_long_EN.txt	BLUSH	4	1	[0, 0, 0]	n/a	FR1	1	R1463E
160.759	1.0	336389	WORD_OFF	n/a	n/a	BLUSH	4	1	[0, 0, 0]	n/a	FR1	1	R1463E
161.759	1.602	337391	WORD	n/a	wordpools/wordpool_long_EN.txt	SCHOOL	5	1	[0, 0, 0]	n/a	FR1	1	R1463E
163.361	0.8	338990	WORD_OFF	n/a	n/a	SCHOOL	5	1	[0, 0, 0]	n/a	FR1	1	R1463E
164.161	1.616	339790	WORD	n/a	wordpools/wordpool_long_EN.txt	BEAST	6	1	[0, 0, 0]	n/a	FR1	1	R1463E
165.777	0.933	341409	WORD_OFF	n/a	n/a	BEAST	6	1	[0, 0, 0]	n/a	FR1	1	R1463E
166.71	1.634	342341	WORD	n/a	wordpools/wordpool_long_EN.txt	FAN	7	1	[0, 0, 0]	n/a	FR1	1	R1463E
168.344	0.965	343970	WORD_OFF	n/a	n/a	FAN	7	1	[0, 0, 0]	n/a	FR1	1	R1463E
169.309	1.601	344942	WORD	n/a	wordpools/wordpool_long_EN.txt	CANE	8	1	[0, 0, 0]	n/a	FR1	1	R1463E
170.91	0.867	346541	WORD_OFF	n/a	n/a	CANE	8	1	[0, 0, 0]	n/a	FR1	1	R1463E
171.777	1.615	347402	WORD	n/a	wordpools/wordpool_long_EN.txt	HUT	9	1	[0, 0, 0]	n/a	FR1	1	R1463E
173.392	0.935	349021	WORD_OFF	n/a	n/a	HUT	9	1	[0, 0, 0]	n/a	FR1	1	R1463E
174.327	1.6	349953	WORD	n/a	wordpools/wordpool_long_EN.txt	GEESE	10	1	[0, 0, 0]	n/a	FR1	1	R1463E
175.927	0.833	351552	WORD_OFF	n/a	n/a	GEESE	10	1	[0, 0, 0]	n/a	FR1	1	R1463E
176.76	1.615	352392	WORD	n/a	wordpools/wordpool_long_EN.txt	FLAG	11	1	[0, 0, 0]	n/a	FR1	1	R1463E
178.375	0.835	354002	WORD_OFF	n/a	n/a	FLAG	11	1	[0, 0, 0]	n/a	FR1	1	R1463E
179.21	1.617	354842	WORD	n/a	wordpools/wordpool_long_EN.txt	PLAID	12	1	[0, 0, 0]	n/a	FR1	1	R1463E
180.827	0.001	356451	WORD_OFF	n/a	n/a	PLAID	12	1	[0, 0, 0]	n/a	FR1	1	R1463E
180.828	0.0	356461	ENCODING_END	n/a	n/a	n/a	-999	1	[0, 0, 0]	n/a	FR1	1	R1463E
180.828	0.0	356461	DISTRACT_START	n/a	n/a	n/a	-999	1	[0, 0, 0]	n/a	FR1	1	R1463E
180.827	0.001	356465	PROB	0.001	n/a	n/a	-999	1	[5, 3, 8]	16	FR1	1	R1463E
180.828	4.847	356466	START	n/a	n/a	n/a	-999	1	[-999, -999, -999]	n/a	FR1	1	R1463E
185.675	2.869	361313	PROB	2.869	n/a	n/a	-999	1	[8, 7, 1]	16	FR1	1	R1463E
188.544	3.999	364182	PROB	3.999	n/a	n/a	-999	1	[2, 8, 6]	16	FR1	1	R1463E
192.543	4.167	368181	PROB	4.167	n/a	n/a	-999	1	[2, 7, 8]	17	FR1	1	R1463E
196.71	3.35	372348	PROB	3.35	n/a	n/a	-999	1	[6, 2, 2]	10	FR1	1	R1463E
200.06	3.449	375698	PROB	3.449	n/a	n/a	-999	1	[6, 2, 4]	12	FR1	1	R1463E
203.509	0.0	379136	DISTRACT_END	n/a	n/a	n/a	-999	1	[0, 0, 0]	n/a	FR1	1	R1463E
203.509	2.183	379147	STOP	n/a	n/a	n/a	-999	1	[-999, -999, -999]	n/a	FR1	1	R1463E
205.692	0.28	381320	REC_START	n/a	n/a	n/a	-999	1	[0, 0, 0]	n/a	FR1	1	R1463E
205.972	2.304	381610	REC_WORD	2.304	n/a	GEESE	10	1	[0, 0, 0]	n/a	FR1	1	R1463E
208.276	4.436	383914	REC_WORD	4.436	n/a	PLAGUE	-999	1	[0, 0, 0]	n/a	FR1	1	R1463E
212.712	3.289	388350	REC_WORD	3.289	n/a	OX	3	1	[0, 0, 0]	n/a	FR1	1	R1463E
216.001	4.233	391639	REC_WORD	4.233	n/a	PACK	-999	1	[0, 0, 0]	n/a	FR1	1	R1463E
220.234	15.684	395872	REC_WORD	15.684	n/a	FLAG	11	1	[0, 0, 0]	n/a	FR1	1	R1463E
235.918	2.057	411548	REC_END	n/a	n/a	n/a	-999	1	[0, 0, 0]	n/a	FR1	1	R1463E
237.975	10.349	413603	COUNTDOWN_START	n/a	n/a	n/a	-999	2	[0, 0, 0]	n/a	FR1	1	R1463E
248.324	0.0	423948	COUNTDOWN_END	n/a	n/a	n/a	-999	2	[0, 0, 0]	n/a	FR1	1	R1463E
248.324	2.133	423948	ENCODING_START	n/a	n/a	n/a	-999	2	[0, 0, 0]	n/a	FR1	1	R1463E
250.457	1.601	426083	WORD	n/a	wordpools/wordpool_long_EN.txt	CRANE	1	2	[0, 0, 0]	n/a	FR1	1	R1463E
252.058	0.966	427683	WORD_OFF	n/a	n/a	CRANE	1	2	[0, 0, 0]	n/a	FR1	1	R1463E
253.024	1.6	428655	WORD	n/a	wordpools/wordpool_long_EN.txt	THREAD	2	2	[0, 0, 0]	n/a	FR1	1	R1463E
254.624	0.8	430254	WORD_OFF	n/a	n/a	THREAD	2	2	[0, 0, 0]	n/a	FR1	1	R1463E
255.424	1.617	431054	WORD	n/a	wordpools/wordpool_long_EN.txt	DIME	3	2	[0, 0, 0]	n/a	FR1	1	R1463E
257.041	0.883	432673	WORD_OFF	n/a	n/a	DIME	3	2	[0, 0, 0]	n/a	FR1	1	R1463E
257.924	1.617	433554	WORD	n/a	wordpools/wordpool_long_EN.txt	THUMB	4	2	[0, 0, 0]	n/a	FR1	1	R1463E
259.541	0.95	435173	WORD_OFF	n/a	n/a	THUMB	4	2	[0, 0, 0]	n/a	FR1	1	R1463E
260.491	1.6	436115	WORD	n/a	wordpools/wordpool_long_EN.txt	BRIDGE	5	2	[0, 0, 0]	n/a	FR1	1	R1463E
262.091	0.917	437714	WORD_OFF	n/a	n/a	BRIDGE	5	2	[0, 0, 0]	n/a	FR1	1	R1463E
263.008	1.6	438635	WORD	n/a	wordpools/wordpool_long_EN.txt	SPEAR	6	2	[0, 0, 0]	n/a	FR1	1	R1463E
264.608	0.765	440235	WORD_OFF	n/a	n/a	SPEAR	6	2	[0, 0, 0]	n/a	FR1	1	R1463E
265.373	1.618	441004	WORD	n/a	wordpools/wordpool_long_EN.txt	HOOF	7	2	[0, 0, 0]	n/a	FR1	1	R1463E
266.991	0.95	442613	WORD_OFF	n/a	n/a	HOOF	7	2	[0, 0, 0]	n/a	FR1	1	R1463E
267.941	1.616	443565	WORD	n/a	wordpools/wordpool_long_EN.txt	STEAM	8	2	[0, 0, 0]	n/a	FR1	1	R1463E
269.557	0.85	445185	WORD_OFF	n/a	n/a	STEAM	8	2	[0, 0, 0]	n/a	FR1	1	R1463E
270.407	1.617	446035	WORD	n/a	wordpools/wordpool_long_EN.txt	SOCK	9	2	[0, 0, 0]	n/a	FR1	1	R1463E
272.024	0.916	447654	WORD_OFF	n/a	n/a	SOCK	9	2	[0, 0, 0]	n/a	FR1	1	R1463E
272.94	1.6	448565	WORD	n/a	wordpools/wordpool_long_EN.txt	CLAM	10	2	[0, 0, 0]	n/a	FR1	1	R1463E
274.54	0.817	450165	WORD_OFF	n/a	n/a	CLAM	10	2	[0, 0, 0]	n/a	FR1	1	R1463E
275.357	1.6	450985	WORD	n/a	wordpools/wordpool_long_EN.txt	MOON	11	2	[0, 0, 0]	n/a	FR1	1	R1463E
276.957	0.933	452584	WORD_OFF	n/a	n/a	MOON	11	2	[0, 0, 0]	n/a	FR1	1	R1463E
277.89	1.601	453515	WORD	n/a	wordpools/wordpool_long_EN.txt	WASP	12	2	[0, 0, 0]	n/a	FR1	1	R1463E
279.491	0.001	455115	WORD_OFF	n/a	n/a	WASP	12	2	[0, 0, 0]	n/a	FR1	1	R1463E
279.492	0.0	455125	ENCODING_END	n/a	n/a	n/a	-999	2	[0, 0, 0]	n/a	FR1	1	R1463E
279.492	0.0	455125	DISTRACT_START	n/a	n/a	n/a	-999	2	[0, 0, 0]	n/a	FR1	1	R1463E
279.49	0.002	455129	PROB	0.002	n/a	n/a	-999	2	[8, 8, 3]	19	FR1	1	R1463E
279.492	4.332	455131	START	n/a	n/a	n/a	-999	2	[-999, -999, -999]	n/a	FR1	1	R1463E
283.824	4.133	459463	PROB	4.133	n/a	n/a	-999	2	[5, 7, 1]	13	FR1	1	R1463E
287.957	6.7	463596	PROB	6.7	n/a	n/a	-999	2	[8, 8, 4]	20	FR1	1	R1463E
294.657	4.75	470296	PROB	4.75	n/a	n/a	-999	2	[2, 4, 4]	10	FR1	1	R1463E
299.407	4.333	475046	PROB	4.333	n/a	n/a	-999	2	[2, 2, 7]	11	FR1	1	R1463E
303.74	0.0	479368	DISTRACT_END	n/a	n/a	n/a	-999	2	[0, 0, 0]	n/a	FR1	1	R1463E
303.74	2.266	479379	STOP	n/a	n/a	n/a	-999	2	[-999, -999, -999]	n/a	FR1	1	R1463E
306.006	0.15	481633	REC_START	n/a	n/a	n/a	-999	2	[0, 0, 0]	n/a	FR1	1	R1463E
306.156	2.337	481795	REC_WORD	2.337	n/a	SPREAD	-999	2	[0, 0, 0]	n/a	FR1	1	R1463E
308.493	6.593	484132	REC_WORD	6.593	n/a	CLEAN	-999	2	[0, 0, 0]	n/a	FR1	1	R1463E
315.086	4.252	490725	REC_WORD	4.252	n/a	WASP	12	2	[0, 0, 0]	n/a	FR1	1	R1463E
319.338	13.253	494977	REC_WORD	13.253	n/a	SQUAD	-999	2	[0, 0, 0]	n/a	FR1	1	R1463E
332.591	3.632	508230	REC_WORD	3.632	n/a	BRAVE	-999	2	[0, 0, 0]	n/a	FR1	1	R1463E
336.223	2.899	511851	REC_END	n/a	n/a	n/a	-999	2	[0, 0, 0]	n/a	FR1	1	R1463E
339.122	10.349	514756	COUNTDOWN_START	n/a	n/a	n/a	-999	3	[0, 0, 0]	n/a	FR1	1	R1463E
349.471	0.0	525101	COUNTDOWN_END	n/a	n/a	n/a	-999	3	[0, 0, 0]	n/a	FR1	1	R1463E
349.471	2.083	525101	ENCODING_START	n/a	n/a	n/a	-999	3	[0, 0, 0]	n/a	FR1	1	R1463E
351.554	1.601	527186	WORD	n/a	wordpools/wordpool_long_EN.txt	CRIB	1	3	[0, 0, 0]	n/a	FR1	1	R1463E
353.155	0.833	528786	WORD_OFF	n/a	n/a	CRIB	1	3	[0, 0, 0]	n/a	FR1	1	R1463E
353.988	1.617	529616	WORD	n/a	wordpools/wordpool_long_EN.txt	CHEEK	2	3	[0, 0, 0]	n/a	FR1	1	R1463E
355.605	0.85	531235	WORD_OFF	n/a	n/a	CHEEK	2	3	[0, 0, 0]	n/a	FR1	1	R1463E
356.455	1.616	532086	WORD	n/a	wordpools/wordpool_long_EN.txt	JAIL	3	3	[0, 0, 0]	n/a	FR1	1	R1463E
358.071	0.918	533695	WORD_OFF	n/a	n/a	JAIL	3	3	[0, 0, 0]	n/a	FR1	1	R1463E
358.989	1.599	534616	WORD	n/a	wordpools/wordpool_long_EN.txt	CHILD	4	3	[0, 0, 0]	n/a	FR1	1	R1463E
360.588	0.95	536216	WORD_OFF	n/a	n/a	CHILD	4	3	[0, 0, 0]	n/a	FR1	1	R1463E
361.538	1.617	537167	WORD	n/a	wordpools/wordpool_long_EN.txt	SLIDE	5	3	[0, 0, 0]	n/a	FR1	1	R1463E
363.155	0.95	538777	WORD_OFF	n/a	n/a	SLIDE	5	3	[0, 0, 0]	n/a	FR1	1	R1463E
364.105	1.616	539728	WORD	n/a	wordpools/wordpool_long_EN.txt	SHARK	6	3	[0, 0, 0]	n/a	FR1	1	R1463E
365.721	0.917	541348	WORD_OFF	n/a	n/a	SHARK	6	3	[0, 0, 0]	n/a	FR1	1	R1463E
366.638	1.616	542269	WORD	n/a	wordpools/wordpool_long_EN.txt	HOLE	7	3	[0, 0, 0]	n/a	FR1	1	R1463E
368.254	0.917	543878	WORD_OFF	n/a	n/a	HOLE	7	3	[0, 0, 0]	n/a	FR1	1	R1463E
369.171	1.6	544799	WORD	n/a	wordpools/wordpool_long_EN.txt	TRIBE	8	3	[0, 0, 0]	n/a	FR1	1	R1463E
370.771	0.999	546399	WORD_OFF	n/a	n/a	TRIBE	8	3	[0, 0, 0]	n/a	FR1	1	R1463E
371.77	1.601	547401	WORD	n/a	wordpools/wordpool_long_EN.txt	WING	9	3	[0, 0, 0]	n/a	FR1	1	R1463E
373.371	0.866	549000	WORD_OFF	n/a	n/a	WING	9	3	[0, 0, 0]	n/a	FR1	1	R1463E
374.237	1.601	549861	WORD	n/a	wordpools/wordpool_long_EN.txt	DEER	10	3	[0, 0, 0]	n/a	FR1	1	R1463E
375.838	1.0	551460	WORD_OFF	n/a	n/a	DEER	10	3	[0, 0, 0]	n/a	FR1	1	R1463E
376.838	1.6	552462	WORD	n/a	wordpools/wordpool_long_EN.txt	GOAL	11	3	[0, 0, 0]	n/a	FR1	1	R1463E
378.438	1.0	554062	WORD_OFF	n/a	n/a	GOAL	11	3	[0, 0, 0]	n/a	FR1	1	R1463E
379.438	1.616	555064	WORD	n/a	wordpools/wordpool_long_EN.txt	RUST	12	3	[0, 0, 0]	n/a	FR1	1	R1463E
381.054	0.002	556683	WORD_OFF	n/a	n/a	RUST	12	3	[0, 0, 0]	n/a	FR1	1	R1463E
381.056	0.0	556683	ENCODING_END	n/a	n/a	n/a	-999	3	[0, 0, 0]	n/a	FR1	1	R1463E
381.056	0.0	556683	DISTRACT_START	n/a	n/a	n/a	-999	3	[0, 0, 0]	n/a	FR1	1	R1463E
381.055	0.001	556695	PROB	0.001	n/a	n/a	-999	3	[2, 8, 7]	17	FR1	1	R1463E
381.056	5.232	556696	START	n/a	n/a	n/a	-999	3	[-999, -999, -999]	n/a	FR1	1	R1463E
386.288	6.064	561928	PROB	6.064	n/a	n/a	-999	3	[2, 4, 7]	13	FR1	1	R1463E
392.352	4.001	567992	PROB	4.001	n/a	n/a	-999	3	[3, 7, 7]	17	FR1	1	R1463E
396.353	3.201	571993	PROB	3.201	n/a	n/a	-999	3	[6, 6, 1]	13	FR1	1	R1463E
399.554	3.866	575194	PROB	3.866	n/a	n/a	-999	3	[7, 3, 7]	17	FR1	1	R1463E
403.42	0.0	579044	DISTRACT_END	n/a	n/a	n/a	-999	3	[0, 0, 0]	n/a	FR1	1	R1463E
403.42	2.067	579060	STOP	n/a	n/a	n/a	-999	3	[-999, -999, -999]	n/a	FR1	1	R1463E
405.487	1.203	581117	REC_START	n/a	n/a	n/a	-999	3	[0, 0, 0]	n/a	FR1	1	R1463E
406.69	1.915	582330	REC_WORD	1.915	n/a	WING	9	3	[0, 0, 0]	n/a	FR1	1	R1463E
408.605	2.192	584245	REC_WORD	2.192	n/a	CHEEK	2	3	[0, 0, 0]	n/a	FR1	1	R1463E
410.797	3.172	586437	REC_WORD	3.172	n/a	DEER	10	3	[0, 0, 0]	n/a	FR1	1	R1463E
413.969	3.53	589609	REC_WORD	3.53	n/a	GOAL	11	3	[0, 0, 0]	n/a	FR1	1	R1463E
417.499	3.236	593139	REC_WORD	3.236	n/a	RUST	12	3	[0, 0, 0]	n/a	FR1	1	R1463E
420.735	8.246	596375	REC_WORD	8.246	n/a	TRIBE	8	3	[0, 0, 0]	n/a	FR1	1	R1463E
428.981	6.738	604621	REC_WORD	6.738	n/a	SPEAR	-999	3	[0, 0, 0]	n/a	FR1	1	R1463E
435.719	3.218	611344	REC_END	n/a	n/a	n/a	-999	3	[0, 0, 0]	n/a	FR1	1	R1463E
438.937	10.35	614584	COUNTDOWN_START	n/a	n/a	n/a	-999	4	[0, 0, 0]	n/a	FR1	1	R1463E
449.287	0.0	624929	COUNTDOWN_END	n/a	n/a	n/a	-999	4	[0, 0, 0]	n/a	FR1	1	R1463E
449.287	2.234	624929	ENCODING_START	n/a	n/a	n/a	-999	4	[0, 0, 0]	n/a	FR1	1	R1463E
451.521	1.617	627166	WORD	n/a	wordpools/wordpool_long_EN.txt	SHELL	1	4	[0, 0, 0]	n/a	FR1	1	R1463E
453.138	0.899	628775	WORD_OFF	n/a	n/a	SHELL	1	4	[0, 0, 0]	n/a	FR1	1	R1463E
454.037	1.601	629676	WORD	n/a	wordpools/wordpool_long_EN.txt	FILM	2	4	[0, 0, 0]	n/a	FR1	1	R1463E
455.638	0.983	631276	WORD_OFF	n/a	n/a	FILM	2	4	[0, 0, 0]	n/a	FR1	1	R1463E
456.621	1.616	632257	WORD	n/a	wordpools/wordpool_long_EN.txt	CUBE	3	4	[0, 0, 0]	n/a	FR1	1	R1463E
458.237	0.901	633877	WORD_OFF	n/a	n/a	CUBE	3	4	[0, 0, 0]	n/a	FR1	1	R1463E
459.138	1.6	634778	WORD	n/a	wordpools/wordpool_long_EN.txt	SHEET	4	4	[0, 0, 0]	n/a	FR1	1	R1463E
460.738	0.766	636377	WORD_OFF	n/a	n/a	SHEET	4	4	[0, 0, 0]	n/a	FR1	1	R1463E
461.504	1.617	637147	WORD	n/a	wordpools/wordpool_long_EN.txt	PET	5	4	[0, 0, 0]	n/a	FR1	1	R1463E
463.121	0.866	638766	WORD_OFF	n/a	n/a	PET	5	4	[0, 0, 0]	n/a	FR1	1	R1463E
463.987	1.601	639627	WORD	n/a	wordpools/wordpool_long_EN.txt	COD	6	4	[0, 0, 0]	n/a	FR1	1	R1463E
465.588	0.799	641226	WORD_OFF	n/a	n/a	COD	6	4	[0, 0, 0]	n/a	FR1	1	R1463E
466.387	1.616	642026	WORD	n/a	wordpools/wordpool_long_EN.txt	CHALK	7	4	[0, 0, 0]	n/a	FR1	1	R1463E
468.003	0.967	643645	WORD_OFF	n/a	n/a	CHALK	7	4	[0, 0, 0]	n/a	FR1	1	R1463E
468.97	1.6	644607	WORD	n/a	wordpools/wordpool_long_EN.txt	INK	8	4	[0, 0, 0]	n/a	FR1	1	R1463E
470.57	0.967	646211	WORD_OFF	n/a	n/a	INK	8	4	[0, 0, 0]	n/a	FR1	1	R1463E
471.537	1.616	647178	WORD	n/a	wordpools/wordpool_long_EN.txt	WHEEL	9	4	[0, 0, 0]	n/a	FR1	1	R1463E
473.153	0.801	648797	WORD_OFF	n/a	n/a	WHEEL	9	4	[0, 0, 0]	n/a	FR1	1	R1463E
473.954	1.6	649597	WORD	n/a	wordpools/wordpool_long_EN.txt	FOX	10	4	[0, 0, 0]	n/a	FR1	1	R1463E
475.554	0.916	651196	WORD_OFF	n/a	n/a	FOX	10	4	[0, 0, 0]	n/a	FR1	1	R1463E
476.47	1.617	652108	WORD	n/a	wordpools/wordpool_long_EN.txt	STICK	11	4	[0, 0, 0]	n/a	FR1	1	R1463E
478.087	0.799	653727	WORD_OFF	n/a	n/a	STICK	11	4	[0, 0, 0]	n/a	FR1	1	R1463E
478.886	1.601	654527	WORD	n/a	wordpools/wordpool_long_EN.txt	INN	12	4	[0, 0, 0]	n/a	FR1	1	R1463E
480.487	0.001	656126	WORD_OFF	n/a	n/a	INN	12	4	[0, 0, 0]	n/a	FR1	1	R1463E
480.488	0.0	656126	ENCODING_END	n/a	n/a	n/a	-999	4	[0, 0, 0]	n/a	FR1	1	R1463E
480.487	0.001	656128	PROB	0.001	n/a	n/a	-999	4	[3, 2, 5]	10	FR1	1	R1463E
480.488	0.0	656129	START	n/a	n/a	n/a	-999	4	[-999, -999, -999]	n/a	FR1	1	R1463E
480.488	3.649	656136	DISTRACT_START	n/a	n/a	n/a	-999	4	[0, 0, 0]	n/a	FR1	1	R1463E
484.137	3.451	659778	PROB	3.451	n/a	n/a	-999	4	[8, 7, 1]	16	FR1	1	R1463E
487.588	3.716	663229	PROB	3.716	n/a	n/a	-999	4	[2, 4, 8]	14	FR1	1	R1463E
491.304	3.182	666945	PROB	3.182	n/a	n/a	-999	4	[2, 7, 3]	12	FR1	1	R1463E
494.486	2.05	670127	PROB	2.05	n/a	n/a	-999	4	[1, 1, 2]	4	FR1	1	R1463E
496.536	1.8	672177	PROB	1.8	n/a	n/a	-999	4	[2, 1, 1]	4	FR1	1	R1463E
498.336	3.0	673977	PROB	3.0	n/a	n/a	-999	4	[6, 6, 6]	18	FR1	1	R1463E
501.336	0.0	676977	STOP	n/a	n/a	n/a	-999	4	[-999, -999, -999]	n/a	FR1	1	R1463E
501.336	2.182	676978	DISTRACT_END	n/a	n/a	n/a	-999	4	[0, 0, 0]	n/a	FR1	1	R1463E
503.518	0.756	679163	REC_START	n/a	n/a	n/a	-999	4	[0, 0, 0]	n/a	FR1	1	R1463E
504.274	1.787	679915	REC_WORD	1.787	n/a	INK	8	4	[0, 0, 0]	n/a	FR1	1	R1463E
506.061	2.179	681702	REC_WORD	2.179	n/a	STOCKS	-999	4	[0, 0, 0]	n/a	FR1	1	R1463E
508.24	2.129	683881	REC_WORD	2.129	n/a	FOOT	-999	4	[0, 0, 0]	n/a	FR1	1	R1463E
510.369	3.703	686010	REC_WORD	3.703	n/a	INN	12	4	[0, 0, 0]	n/a	FR1	1	R1463E
514.072	19.117	689713	REC_WORD	19.117	n/a	CLIMB	-999	4	[0, 0, 0]	n/a	FR1	1	R1463E
533.189	0.553	708830	REC_WORD	0.553	n/a	CHALK	7	4	[0, 0, 0]	n/a	FR1	1	R1463E
533.742	4.209	709380	REC_END	n/a	n/a	n/a	-999	4	[0, 0, 0]	n/a	FR1	1	R1463E
537.951	10.351	713591	COUNTDOWN_START	n/a	n/a	n/a	-999	5	[0, 0, 0]	n/a	FR1	1	R1463E
548.302	0.0	723946	COUNTDOWN_END	n/a	n/a	n/a	-999	5	[0, 0, 0]	n/a	FR1	1	R1463E
548.302	1.95	723946	ENCODING_START	n/a	n/a	n/a	-999	5	[0, 0, 0]	n/a	FR1	1	R1463E
550.252	1.616	725890	WORD	n/a	wordpools/wordpool_long_EN.txt	MULE	1	5	[0, 0, 0]	n/a	FR1	1	R1463E
551.868	0.8	727510	WORD_OFF	n/a	n/a	MULE	1	5	[0, 0, 0]	n/a	FR1	1	R1463E
552.668	1.617	728309	WORD	n/a	wordpools/wordpool_long_EN.txt	BAT	2	5	[0, 0, 0]	n/a	FR1	1	R1463E
554.285	0.933	729929	WORD_OFF	n/a	n/a	BAT	2	5	[0, 0, 0]	n/a	FR1	1	R1463E
555.218	1.617	730860	WORD	n/a	wordpools/wordpool_long_EN.txt	CART	3	5	[0, 0, 0]	n/a	FR1	1	R1463E
556.835	0.933	732480	WORD_OFF	n/a	n/a	CART	3	5	[0, 0, 0]	n/a	FR1	1	R1463E
557.768	1.616	733411	WORD	n/a	wordpools/wordpool_long_EN.txt	TIE	4	5	[0, 0, 0]	n/a	FR1	1	R1463E
559.384	0.901	735020	WORD_OFF	n/a	n/a	TIE	4	5	[0, 0, 0]	n/a	FR1	1	R1463E
560.285	1.6	735921	WORD	n/a	wordpools/wordpool_long_EN.txt	BOY	5	5	[0, 0, 0]	n/a	FR1	1	R1463E
561.885	0.982	737521	WORD_OFF	n/a	n/a	BOY	5	5	[0, 0, 0]	n/a	FR1	1	R1463E
562.867	1.617	738503	WORD	n/a	wordpools/wordpool_long_EN.txt	TENT	6	5	[0, 0, 0]	n/a	FR1	1	R1463E
564.484	0.784	740122	WORD_OFF	n/a	n/a	TENT	6	5	[0, 0, 0]	n/a	FR1	1	R1463E
565.268	1.616	740912	WORD	n/a	wordpools/wordpool_long_EN.txt	SCARF	7	5	[0, 0, 0]	n/a	FR1	1	R1463E
566.884	0.833	742521	WORD_OFF	n/a	n/a	SCARF	7	5	[0, 0, 0]	n/a	FR1	1	R1463E
567.717	1.601	743361	WORD	n/a	wordpools/wordpool_long_EN.txt	SUN	8	5	[0, 0, 0]	n/a	FR1	1	R1463E
569.318	0.9	744961	WORD_OFF	n/a	n/a	SUN	8	5	[0, 0, 0]	n/a	FR1	1	R1463E
570.218	1.616	745862	WORD	n/a	wordpools/wordpool_long_EN.txt	PRINCE	9	5	[0, 0, 0]	n/a	FR1	1	R1463E
571.834	0.884	747471	WORD_OFF	n/a	n/a	PRINCE	9	5	[0, 0, 0]	n/a	FR1	1	R1463E
572.718	1.616	748362	WORD	n/a	wordpools/wordpool_long_EN.txt	DUST	10	5	[0, 0, 0]	n/a	FR1	1	R1463E
574.334	0.767	749971	WORD_OFF	n/a	n/a	DUST	10	5	[0, 0, 0]	n/a	FR1	1	R1463E
575.101	1.616	750741	WORD	n/a	wordpools/wordpool_long_EN.txt	HOOD	11	5	[0, 0, 0]	n/a	FR1	1	R1463E
576.717	0.767	752360	WORD_OFF	n/a	n/a	HOOD	11	5	[0, 0, 0]	n/a	FR1	1	R1463E
577.484	1.617	753129	WORD	n/a	wordpools/wordpool_long_EN.txt	BEAK	12	5	[0, 0, 0]	n/a	FR1	1	R1463E
579.101	0.001	754739	WORD_OFF	n/a	n/a	BEAK	12	5	[0, 0, 0]	n/a	FR1	1	R1463E
579.102	0.0	754739	ENCODING_END	n/a	n/a	n/a	-999	5	[0, 0, 0]	n/a	FR1	1	R1463E
579.102	0.0	754743	START	n/a	n/a	n/a	-999	5	[-999, -999, -999]	n/a	FR1	1	R1463E
579.102	0.0	754743	PROB	0.0	n/a	n/a	-999	5	[8, 2, 7]	17	FR1	1	R1463E
579.102	3.982	754749	DISTRACT_START	n/a	n/a	n/a	-999	5	[0, 0, 0]	n/a	FR1	1	R1463E
583.084	3.201	758725	PROB	3.201	n/a	n/a	-999	5	[5, 1, 2]	8	FR1	1	R1463E
586.285	1.783	761926	PROB	1.783	n/a	n/a	-999	5	[2, 2, 1]	5	FR1	1	R1463E
588.068	6.184	763709	PROB	6.184	n/a	n/a	-999	5	[2, 5, 6]	1	FR1	1	R1463E
594.252	3.548	769893	PROB	3.548	n/a	n/a	-999	5	[1, 7, 8]	16	FR1	1	R1463E
597.8	2.583	773441	PROB	2.583	n/a	n/a	-999	5	[7, 5, 1]	13	FR1	1	R1463E
600.383	0.0	776024	STOP	n/a	n/a	n/a	-999	5	[-999, -999, -999]	n/a	FR1	1	R1463E
600.383	2.384	776026	DISTRACT_END	n/a	n/a	n/a	-999	5	[0, 0, 0]	n/a	FR1	1	R1463E
602.767	0.604	778403	REC_START	n/a	n/a	n/a	-999	5	[0, 0, 0]	n/a	FR1	1	R1463E
603.371	1.516	779013	REC_WORD	1.516	n/a	DUST	10	5	[0, 0, 0]	n/a	FR1	1	R1463E
604.887	1.685	780529	REC_WORD	1.685	n/a	MULE	1	5	[0, 0, 0]	n/a	FR1	1	R1463E
606.572	3.644	782214	REC_WORD	3.644	n/a	CART	3	5	[0, 0, 0]	n/a	FR1	1	R1463E
610.216	7.672	785858	REC_WORD	7.672	n/a	SLING	-999	5	[0, 0, 0]	n/a	FR1	1	R1463E
617.888	8.537	793530	REC_WORD	8.537	n/a	PACK	-999	5	[0, 0, 0]	n/a	FR1	1	R1463E
626.425	6.589	802067	REC_WORD	6.589	n/a	PRINCE	9	5	[0, 0, 0]	n/a	FR1	1	R1463E
633.014	3.534	808651	REC_END	n/a	n/a	n/a	-999	5	[0, 0, 0]	n/a	FR1	1	R1463E
636.548	10.351	812194	COUNTDOWN_START	n/a	n/a	n/a	-999	6	[0, 0, 0]	n/a	FR1	1	R1463E
646.899	0.0	822539	COUNTDOWN_END	n/a	n/a	n/a	-999	6	[0, 0, 0]	n/a	FR1	1	R1463E
646.899	2.099	822539	ENCODING_START	n/a	n/a	n/a	-999	6	[0, 0, 0]	n/a	FR1	1	R1463E
648.998	1.601	824634	WORD	n/a	wordpools/wordpool_long_EN.txt	CLIFF	1	6	[0, 0, 0]	n/a	FR1	1	R1463E
650.599	0.832	826234	WORD_OFF	n/a	n/a	CLIFF	1	6	[0, 0, 0]	n/a	FR1	1	R1463E
651.431	1.601	827074	WORD	n/a	wordpools/wordpool_long_EN.txt	TROUT	2	6	[0, 0, 0]	n/a	FR1	1	R1463E
653.032	0.816	828673	WORD_OFF	n/a	n/a	TROUT	2	6	[0, 0, 0]	n/a	FR1	1	R1463E
653.848	1.601	829493	WORD	n/a	wordpools/wordpool_long_EN.txt	BRICK	3	6	[0, 0, 0]	n/a	FR1	1	R1463E
655.449	0.899	831093	WORD_OFF	n/a	n/a	BRICK	3	6	[0, 0, 0]	n/a	FR1	1	R1463E
656.348	1.617	831993	WORD	n/a	wordpools/wordpool_long_EN.txt	TOAD	4	6	[0, 0, 0]	n/a	FR1	1	R1463E
657.965	0.8	833613	WORD_OFF	n/a	n/a	TOAD	4	6	[0, 0, 0]	n/a	FR1	1	R1463E
658.765	1.6	834403	WORD	n/a	wordpools/wordpool_long_EN.txt	CROSS	5	6	[0, 0, 0]	n/a	FR1	1	R1463E
660.365	0.783	836002	WORD_OFF	n/a	n/a	CROSS	5	6	[0, 0, 0]	n/a	FR1	1	R1463E
661.148	1.6	836791	WORD	n/a	wordpools/wordpool_long_EN.txt	PIT	6	6	[0, 0, 0]	n/a	FR1	1	R1463E
662.748	0.899	838391	WORD_OFF	n/a	n/a	PIT	6	6	[0, 0, 0]	n/a	FR1	1	R1463E
663.647	1.601	839292	WORD	n/a	wordpools/wordpool_long_EN.txt	SKATE	7	6	[0, 0, 0]	n/a	FR1	1	R1463E
665.248	0.783	840891	WORD_OFF	n/a	n/a	SKATE	7	6	[0, 0, 0]	n/a	FR1	1	R1463E
666.031	1.617	841670	WORD	n/a	wordpools/wordpool_long_EN.txt	WIFE	8	6	[0, 0, 0]	n/a	FR1	1	R1463E
667.648	0.917	843290	WORD_OFF	n/a	n/a	WIFE	8	6	[0, 0, 0]	n/a	FR1	1	R1463E
668.565	1.616	844201	WORD	n/a	wordpools/wordpool_long_EN.txt	SOUP	9	6	[0, 0, 0]	n/a	FR1	1	R1463E
670.181	0.8	845821	WORD_OFF	n/a	n/a	SOUP	9	6	[0, 0, 0]	n/a	FR1	1	R1463E
670.981	1.6	846620	WORD	n/a	wordpools/wordpool_long_EN.txt	SMILE	10	6	[0, 0, 0]	n/a	FR1	1	R1463E
672.581	0.883	848220	WORD_OFF	n/a	n/a	SMILE	10	6	[0, 0, 0]	n/a	FR1	1	R1463E
673.464	1.617	849100	WORD	n/a	wordpools/wordpool_long_EN.txt	ARCH	11	6	[0, 0, 0]	n/a	FR1	1	R1463E
675.081	0.95	850720	WORD_OFF	n/a	n/a	ARCH	11	6	[0, 0, 0]	n/a	FR1	1	R1463E
676.031	1.617	851671	WORD	n/a	wordpools/wordpool_long_EN.txt	WAVE	12	6	[0, 0, 0]	n/a	FR1	1	R1463E
677.648	0.001	853291	WORD_OFF	n/a	n/a	WAVE	12	6	[0, 0, 0]	n/a	FR1	1	R1463E
677.649	0.0	853291	ENCODING_END	n/a	n/a	n/a	-999	6	[0, 0, 0]	n/a	FR1	1	R1463E
677.649	0.0	853291	DISTRACT_START	n/a	n/a	n/a	-999	6	[0, 0, 0]	n/a	FR1	1	R1463E
677.649	0.0	853291	PROB	0.0	n/a	n/a	-999	6	[5, 2, 6]	13	FR1	1	R1463E
677.649	4.416	853291	START	n/a	n/a	n/a	-999	6	[-999, -999, -999]	n/a	FR1	1	R1463E
682.065	5.55	857707	PROB	5.55	n/a	n/a	-999	6	[8, 5, 4]	17	FR1	1	R1463E
687.615	3.416	863257	PROB	3.416	n/a	n/a	-999	6	[5, 5, 4]	14	FR1	1	R1463E
691.031	3.999	866673	PROB	3.999	n/a	n/a	-999	6	[6, 8, 2]	16	FR1	1	R1463E
695.03	3.284	870672	PROB	3.284	n/a	n/a	-999	6	[6, 7, 3]	16	FR1	1	R1463E
698.314	0.0	873951	DISTRACT_END	n/a	n/a	n/a	-999	6	[0, 0, 0]	n/a	FR1	1	R1463E
698.314	2.266	873956	STOP	n/a	n/a	n/a	-999	6	[-999, -999, -999]	n/a	FR1	1	R1463E
700.58	0.443	876216	REC_START	n/a	n/a	n/a	-999	6	[0, 0, 0]	n/a	FR1	1	R1463E
701.023	1.262	876665	REC_WORD	1.262	n/a	WIFE	8	6	[0, 0, 0]	n/a	FR1	1	R1463E
702.285	1.693	877927	REC_WORD	1.693	n/a	SOUP	9	6	[0, 0, 0]	n/a	FR1	1	R1463E
703.978	2.051	879620	REC_WORD	2.051	n/a	SMILE	10	6	[0, 0, 0]	n/a	FR1	1	R1463E
706.029	2.556	881671	REC_WORD	2.556	n/a	CLIFF	1	6	[0, 0, 0]	n/a	FR1	1	R1463E
708.585	5.135	884227	REC_WORD	5.135	n/a	ALF	-999	6	[0, 0, 0]	n/a	FR1	1	R1463E
713.72	17.093	889362	REC_WORD	17.093	n/a	CLIMB	-999	6	[0, 0, 0]	n/a	FR1	1	R1463E
730.813	5.3	906454	REC_END	n/a	n/a	n/a	-999	6	[0, 0, 0]	n/a	FR1	1	R1463E
736.113	10.35	911758	COUNTDOWN_START	n/a	n/a	n/a	-999	7	[0, 0, 0]	n/a	FR1	1	R1463E
746.463	0.0	922103	COUNTDOWN_END	n/a	n/a	n/a	-999	7	[0, 0, 0]	n/a	FR1	1	R1463E
746.463	2.348	922103	ENCODING_START	n/a	n/a	n/a	-999	7	[0, 0, 0]	n/a	FR1	1	R1463E
748.811	1.601	924452	WORD	n/a	wordpools/wordpool_long_EN.txt	ROCK	1	7	[0, 0, 0]	n/a	FR1	1	R1463E
750.412	0.866	926051	WORD_OFF	n/a	n/a	ROCK	1	7	[0, 0, 0]	n/a	FR1	1	R1463E
751.278	1.616	926922	WORD	n/a	wordpools/wordpool_long_EN.txt	JUDGE	2	7	[0, 0, 0]	n/a	FR1	1	R1463E
752.894	0.951	928531	WORD_OFF	n/a	n/a	JUDGE	2	7	[0, 0, 0]	n/a	FR1	1	R1463E
753.845	1.6	929483	WORD	n/a	wordpools/wordpool_long_EN.txt	YACHT	3	7	[0, 0, 0]	n/a	FR1	1	R1463E
755.445	0.833	931082	WORD_OFF	n/a	n/a	YACHT	3	7	[0, 0, 0]	n/a	FR1	1	R1463E
756.278	1.6	931912	WORD	n/a	wordpools/wordpool_long_EN.txt	TOY	4	7	[0, 0, 0]	n/a	FR1	1	R1463E
757.878	0.883	933522	WORD_OFF	n/a	n/a	TOY	4	7	[0, 0, 0]	n/a	FR1	1	R1463E
758.761	1.618	934402	WORD	n/a	wordpools/wordpool_long_EN.txt	ZOO	5	7	[0, 0, 0]	n/a	FR1	1	R1463E
760.379	0.916	936022	WORD_OFF	n/a	n/a	ZOO	5	7	[0, 0, 0]	n/a	FR1	1	R1463E
761.295	1.617	936933	WORD	n/a	wordpools/wordpool_long_EN.txt	CLOCK	6	7	[0, 0, 0]	n/a	FR1	1	R1463E
762.912	0.95	938552	WORD_OFF	n/a	n/a	CLOCK	6	7	[0, 0, 0]	n/a	FR1	1	R1463E
763.862	1.6	939504	WORD	n/a	wordpools/wordpool_long_EN.txt	STONE	7	7	[0, 0, 0]	n/a	FR1	1	R1463E
765.462	0.966	941103	WORD_OFF	n/a	n/a	STONE	7	7	[0, 0, 0]	n/a	FR1	1	R1463E
766.428	1.601	942065	WORD	n/a	wordpools/wordpool_long_EN.txt	GUARD	8	7	[0, 0, 0]	n/a	FR1	1	R1463E
768.029	0.966	943664	WORD_OFF	n/a	n/a	GUARD	8	7	[0, 0, 0]	n/a	FR1	1	R1463E
768.995	1.6	944636	WORD	n/a	wordpools/wordpool_long_EN.txt	FLASK	9	7	[0, 0, 0]	n/a	FR1	1	R1463E
770.595	0.849	946235	WORD_OFF	n/a	n/a	FLASK	9	7	[0, 0, 0]	n/a	FR1	1	R1463E
771.444	1.601	947086	WORD	n/a	wordpools/wordpool_long_EN.txt	GLOVE	10	7	[0, 0, 0]	n/a	FR1	1	R1463E
773.045	0.967	948685	WORD_OFF	n/a	n/a	GLOVE	10	7	[0, 0, 0]	n/a	FR1	1	R1463E
774.012	1.6	949647	WORD	n/a	wordpools/wordpool_long_EN.txt	BROOM	11	7	[0, 0, 0]	n/a	FR1	1	R1463E
775.612	0.949	951246	WORD_OFF	n/a	n/a	BROOM	11	7	[0, 0, 0]	n/a	FR1	1	R1463E
776.561	1.601	952197	WORD	n/a	wordpools/wordpool_long_EN.txt	PIPE	12	7	[0, 0, 0]	n/a	FR1	1	R1463E
778.162	0.0	953797	WORD_OFF	n/a	n/a	PIPE	12	7	[0, 0, 0]	n/a	FR1	1	R1463E
778.162	0.001	953805	PROB	0.001	n/a	n/a	-999	7	[3, 5, 3]	11	FR1	1	R1463E
778.163	0.0	953806	START	n/a	n/a	n/a	-999	7	[-999, -999, -999]	n/a	FR1	1	R1463E
778.163	0.0	953807	ENCODING_END	n/a	n/a	n/a	-999	7	[0, 0, 0]	n/a	FR1	1	R1463E
778.163	5.666	953807	DISTRACT_START	n/a	n/a	n/a	-999	7	[0, 0, 0]	n/a	FR1	1	R1463E
783.829	3.249	959472	PROB	3.249	n/a	n/a	-999	7	[2, 2, 3]	7	FR1	1	R1463E
787.078	3.051	962721	PROB	3.051	n/a	n/a	-999	7	[6, 8, 3]	17	FR1	1	R1463E
790.129	3.332	965772	PROB	3.332	n/a	n/a	-999	7	[5, 6, 8]	19	FR1	1	R1463E
793.461	5.066	969104	PROB	5.066	n/a	n/a	-999	7	[3, 2, 4]	9	FR1	1	R1463E
798.527	0.0	974163	DISTRACT_END	n/a	n/a	n/a	-999	7	[0, 0, 0]	n/a	FR1	1	R1463E
798.527	2.25	974170	STOP	n/a	n/a	n/a	-999	7	[-999, -999, -999]	n/a	FR1	1	R1463E
800.777	0.763	976418	REC_START	n/a	n/a	n/a	-999	7	[0, 0, 0]	n/a	FR1	1	R1463E
801.54	1.748	977183	REC_WORD	1.748	n/a	GLOVE	10	7	[0, 0, 0]	n/a	FR1	1	R1463E
803.288	13.29	978931	REC_WORD	13.29	n/a	BROOM	11	7	[0, 0, 0]	n/a	FR1	1	R1463E
816.578	13.47	992221	REC_WORD	13.47	n/a	SOCK	-999	7	[0, 0, 0]	n/a	FR1	1	R1463E
830.048	0.962	1005691	REC_WORD	0.962	n/a	CLIMB	-999	7	[0, 0, 0]	n/a	FR1	1	R1463E
831.01	2.75	1006646	REC_END	n/a	n/a	n/a	-999	7	[0, 0, 0]	n/a	FR1	1	R1463E
833.76	10.349	1009399	COUNTDOWN_START	n/a	n/a	n/a	-999	8	[0, 0, 0]	n/a	FR1	1	R1463E
844.109	0.0	1019744	COUNTDOWN_END	n/a	n/a	n/a	-999	8	[0, 0, 0]	n/a	FR1	1	R1463E
844.109	2.134	1019755	ENCODING_START	n/a	n/a	n/a	-999	8	[0, 0, 0]	n/a	FR1	1	R1463E
846.243	1.6	1021880	WORD	n/a	wordpools/wordpool_long_EN.txt	ROPE	1	8	[0, 0, 0]	n/a	FR1	1	R1463E
847.843	0.917	1023480	WORD_OFF	n/a	n/a	ROPE	1	8	[0, 0, 0]	n/a	FR1	1	R1463E
848.76	1.616	1024401	WORD	n/a	wordpools/wordpool_long_EN.txt	WEED	2	8	[0, 0, 0]	n/a	FR1	1	R1463E
850.376	0.833	1026010	WORD_OFF	n/a	n/a	WEED	2	8	[0, 0, 0]	n/a	FR1	1	R1463E
851.209	1.6	1026850	WORD	n/a	wordpools/wordpool_long_EN.txt	CAPE	3	8	[0, 0, 0]	n/a	FR1	1	R1463E
852.809	0.832	1028450	WORD_OFF	n/a	n/a	CAPE	3	8	[0, 0, 0]	n/a	FR1	1	R1463E
853.641	1.601	1029280	WORD	n/a	wordpools/wordpool_long_EN.txt	TEETH	4	8	[0, 0, 0]	n/a	FR1	1	R1463E
855.242	0.817	1030879	WORD_OFF	n/a	n/a	TEETH	4	8	[0, 0, 0]	n/a	FR1	1	R1463E
856.059	1.617	1031699	WORD	n/a	wordpools/wordpool_long_EN.txt	GOLD	5	8	[0, 0, 0]	n/a	FR1	1	R1463E
857.676	0.783	1033319	WORD_OFF	n/a	n/a	GOLD	5	8	[0, 0, 0]	n/a	FR1	1	R1463E
858.459	1.616	1034098	WORD	n/a	wordpools/wordpool_long_EN.txt	PORK	6	8	[0, 0, 0]	n/a	FR1	1	R1463E
860.075	0.768	1035718	WORD_OFF	n/a	n/a	PORK	6	8	[0, 0, 0]	n/a	FR1	1	R1463E
860.843	1.616	1036477	WORD	n/a	wordpools/wordpool_long_EN.txt	SNAIL	7	8	[0, 0, 0]	n/a	FR1	1	R1463E
862.459	0.867	1038096	WORD_OFF	n/a	n/a	SNAIL	7	8	[0, 0, 0]	n/a	FR1	1	R1463E
863.326	1.615	1038967	WORD	n/a	wordpools/wordpool_long_EN.txt	MOP	8	8	[0, 0, 0]	n/a	FR1	1	R1463E
864.941	0.767	1040576	WORD_OFF	n/a	n/a	MOP	8	8	[0, 0, 0]	n/a	FR1	1	R1463E
865.708	1.618	1041346	WORD	n/a	wordpools/wordpool_long_EN.txt	MOOSE	9	8	[0, 0, 0]	n/a	FR1	1	R1463E
867.326	0.783	1042965	WORD_OFF	n/a	n/a	MOOSE	9	8	[0, 0, 0]	n/a	FR1	1	R1463E
868.109	1.615	1043745	WORD	n/a	wordpools/wordpool_long_EN.txt	CROWN	10	8	[0, 0, 0]	n/a	FR1	1	R1463E
869.724	0.934	1045364	WORD_OFF	n/a	n/a	CROWN	10	8	[0, 0, 0]	n/a	FR1	1	R1463E
870.658	1.6	1046296	WORD	n/a	wordpools/wordpool_long_EN.txt	SIGN	11	8	[0, 0, 0]	n/a	FR1	1	R1463E
872.258	0.967	1047895	WORD_OFF	n/a	n/a	SIGN	11	8	[0, 0, 0]	n/a	FR1	1	R1463E
873.225	1.6	1048867	WORD	n/a	wordpools/wordpool_long_EN.txt	FORT	12	8	[0, 0, 0]	n/a	FR1	1	R1463E
874.825	0.001	1050466	WORD_OFF	n/a	n/a	FORT	12	8	[0, 0, 0]	n/a	FR1	1	R1463E
874.826	0.0	1050466	ENCODING_END	n/a	n/a	n/a	-999	8	[0, 0, 0]	n/a	FR1	1	R1463E
874.826	0.0	1050466	DISTRACT_START	n/a	n/a	n/a	-999	8	[0, 0, 0]	n/a	FR1	1	R1463E
874.826	0.0	1050470	START	n/a	n/a	n/a	-999	8	[-999, -999, -999]	n/a	FR1	1	R1463E
874.826	3.2	1050470	PROB	3.2	n/a	n/a	-999	8	[3, 5, 2]	10	FR1	1	R1463E
878.026	3.049	1053670	PROB	3.049	n/a	n/a	-999	8	[5, 5, 3]	13	FR1	1	R1463E
881.075	4.584	1056719	PROB	4.584	n/a	n/a	-999	8	[7, 1, 4]	12	FR1	1	R1463E
885.659	3.466	1061303	PROB	3.466	n/a	n/a	-999	8	[6, 7, 6]	19	FR1	1	R1463E
889.125	9.066	1064769	PROB	9.066	n/a	n/a	-999	8	[6, 7, 7]	20	FR1	1	R1463E
898.191	0.0	1073829	DISTRACT_END	n/a	n/a	n/a	-999	8	[0, 0, 0]	n/a	FR1	1	R1463E
898.191	2.116	1073835	STOP	n/a	n/a	n/a	-999	8	[-999, -999, -999]	n/a	FR1	1	R1463E
900.307	0.491	1075942	REC_START	n/a	n/a	n/a	-999	8	[0, 0, 0]	n/a	FR1	1	R1463E
900.798	1.721	1076442	REC_WORD	1.721	n/a	SNAIL	7	8	[0, 0, 0]	n/a	FR1	1	R1463E
902.519	2.123	1078163	REC_WORD	2.123	n/a	MOP	8	8	[0, 0, 0]	n/a	FR1	1	R1463E
904.642	2.144	1080286	REC_WORD	2.144	n/a	PORK	6	8	[0, 0, 0]	n/a	FR1	1	R1463E
906.786	9.235	1082430	REC_WORD	9.235	n/a	NEW	-999	8	[0, 0, 0]	n/a	FR1	1	R1463E
916.021	4.991	1091665	REC_WORD	4.991	n/a	MUG	-999	8	[0, 0, 0]	n/a	FR1	1	R1463E
921.012	2.729	1096656	REC_WORD	2.729	n/a	WEED	2	8	[0, 0, 0]	n/a	FR1	1	R1463E
923.741	6.796	1099385	REC_WORD	6.796	n/a	CROWN	10	8	[0, 0, 0]	n/a	FR1	1	R1463E
930.537	12.07	1106170	REC_END	n/a	n/a	n/a	-999	8	[0, 0, 0]	n/a	FR1	1	R1463E
942.607	10.35	1118246	COUNTDOWN_START	n/a	n/a	n/a	-999	9	[0, 0, 0]	n/a	FR1	1	R1463E
952.957	0.0	1128591	COUNTDOWN_END	n/a	n/a	n/a	-999	9	[0, 0, 0]	n/a	FR1	1	R1463E
952.957	2.064	1128601	ENCODING_START	n/a	n/a	n/a	-999	9	[0, 0, 0]	n/a	FR1	1	R1463E
955.021	1.602	1130656	WORD	n/a	wordpools/wordpool_long_EN.txt	STEAK	1	9	[0, 0, 0]	n/a	FR1	1	R1463E
956.623	0.917	1132266	WORD_OFF	n/a	n/a	STEAK	1	9	[0, 0, 0]	n/a	FR1	1	R1463E
957.54	1.6	1133177	WORD	n/a	wordpools/wordpool_long_EN.txt	FLEET	2	9	[0, 0, 0]	n/a	FR1	1	R1463E
959.14	0.967	1134776	WORD_OFF	n/a	n/a	FLEET	2	9	[0, 0, 0]	n/a	FR1	1	R1463E
960.107	1.616	1135748	WORD	n/a	wordpools/wordpool_long_EN.txt	TRENCH	3	9	[0, 0, 0]	n/a	FR1	1	R1463E
961.723	0.85	1137357	WORD_OFF	n/a	n/a	TRENCH	3	9	[0, 0, 0]	n/a	FR1	1	R1463E
962.573	1.6	1138207	WORD	n/a	wordpools/wordpool_long_EN.txt	SEA	4	9	[0, 0, 0]	n/a	FR1	1	R1463E
964.173	0.816	1139807	WORD_OFF	n/a	n/a	SEA	4	9	[0, 0, 0]	n/a	FR1	1	R1463E
964.989	1.6	1140627	WORD	n/a	wordpools/wordpool_long_EN.txt	STAKE	5	9	[0, 0, 0]	n/a	FR1	1	R1463E
966.589	0.817	1142226	WORD_OFF	n/a	n/a	STAKE	5	9	[0, 0, 0]	n/a	FR1	1	R1463E
967.406	1.616	1143056	WORD	n/a	wordpools/wordpool_long_EN.txt	PEARL	6	9	[0, 0, 0]	n/a	FR1	1	R1463E
969.022	0.867	1144655	WORD_OFF	n/a	n/a	PEARL	6	9	[0, 0, 0]	n/a	FR1	1	R1463E
969.889	1.616	1145526	WORD	n/a	wordpools/wordpool_long_EN.txt	MAZE	7	9	[0, 0, 0]	n/a	FR1	1	R1463E
971.505	0.834	1147146	WORD_OFF	n/a	n/a	MAZE	7	9	[0, 0, 0]	n/a	FR1	1	R1463E
972.339	1.617	1147976	WORD	n/a	wordpools/wordpool_long_EN.txt	EEL	8	9	[0, 0, 0]	n/a	FR1	1	R1463E
973.956	0.817	1149595	WORD_OFF	n/a	n/a	EEL	8	9	[0, 0, 0]	n/a	FR1	1	R1463E
974.773	1.6	1150415	WORD	n/a	wordpools/wordpool_long_EN.txt	KEY	9	9	[0, 0, 0]	n/a	FR1	1	R1463E
976.373	0.966	1152014	WORD_OFF	n/a	n/a	KEY	9	9	[0, 0, 0]	n/a	FR1	1	R1463E
977.339	1.616	1152976	WORD	n/a	wordpools/wordpool_long_EN.txt	GRILL	10	9	[0, 0, 0]	n/a	FR1	1	R1463E
978.955	0.917	1154596	WORD_OFF	n/a	n/a	GRILL	10	9	[0, 0, 0]	n/a	FR1	1	R1463E
979.872	1.617	1155507	WORD	n/a	wordpools/wordpool_long_EN.txt	PALM	11	9	[0, 0, 0]	n/a	FR1	1	R1463E
981.489	0.783	1157126	WORD_OFF	n/a	n/a	PALM	11	9	[0, 0, 0]	n/a	FR1	1	R1463E
982.272	1.617	1157906	WORD	n/a	wordpools/wordpool_long_EN.txt	SNAKE	12	9	[0, 0, 0]	n/a	FR1	1	R1463E
983.889	0.001	1159525	WORD_OFF	n/a	n/a	SNAKE	12	9	[0, 0, 0]	n/a	FR1	1	R1463E
983.89	0.0	1159525	ENCODING_END	n/a	n/a	n/a	-999	9	[0, 0, 0]	n/a	FR1	1	R1463E
983.889	0.001	1159534	PROB	0.001	n/a	n/a	-999	9	[1, 8, 7]	16	FR1	1	R1463E
983.89	0.0	1159535	DISTRACT_START	n/a	n/a	n/a	-999	9	[0, 0, 0]	n/a	FR1	1	R1463E
983.89	3.666	1159535	START	n/a	n/a	n/a	-999	9	[-999, -999, -999]	n/a	FR1	1	R1463E
987.556	4.649	1163201	PROB	4.649	n/a	n/a	-999	9	[2, 2, 4]	8	FR1	1	R1463E
992.205	4.25	1167850	PROB	4.25	n/a	n/a	-999	9	[8, 4, 3]	15	FR1	1	R1463E
996.455	3.418	1172100	PROB	3.418	n/a	n/a	-999	9	[8, 4, 5]	17	FR1	1	R1463E
999.873	3.518	1175518	PROB	3.518	n/a	n/a	-999	9	[6, 7, 7]	20	FR1	1	R1463E
1003.391	3.363	1179036	PROB	3.363	n/a	n/a	-999	9	[8, 4, 6]	18	FR1	1	R1463E
1006.754	0.0	1182392	DISTRACT_END	n/a	n/a	n/a	-999	9	[0, 0, 0]	n/a	FR1	1	R1463E
1006.754	2.251	1182399	STOP	n/a	n/a	n/a	-999	9	[-999, -999, -999]	n/a	FR1	1	R1463E
1009.005	0.356	1184647	REC_START	n/a	n/a	n/a	-999	9	[0, 0, 0]	n/a	FR1	1	R1463E
1009.361	2.013	1185006	REC_WORD	2.013	n/a	STEAK	1	9	[0, 0, 0]	n/a	FR1	1	R1463E
1011.374	1.548	1187019	REC_WORD	1.548	n/a	EEL	8	9	[0, 0, 0]	n/a	FR1	1	R1463E
1012.922	2.272	1188567	REC_WORD	2.272	n/a	PEARL	6	9	[0, 0, 0]	n/a	FR1	1	R1463E
1015.194	2.836	1190839	REC_WORD	2.836	n/a	STREAK	-999	9	[0, 0, 0]	n/a	FR1	1	R1463E
1018.03	6.896	1193675	REC_WORD	6.896	n/a	ALE	-999	9	[0, 0, 0]	n/a	FR1	1	R1463E
1024.926	10.173	1200571	REC_WORD	10.173	n/a	KEY	9	9	[0, 0, 0]	n/a	FR1	1	R1463E
1035.099	4.156	1210744	REC_WORD	4.156	n/a	MAZE	7	9	[0, 0, 0]	n/a	FR1	1	R1463E
1039.255	3.132	1214895	REC_END	n/a	n/a	n/a	-999	9	[0, 0, 0]	n/a	FR1	1	R1463E
1042.387	10.35	1218023	COUNTDOWN_START	n/a	n/a	n/a	-999	10	[0, 0, 0]	n/a	FR1	1	R1463E
1052.737	0.0	1228378	COUNTDOWN_END	n/a	n/a	n/a	-999	10	[0, 0, 0]	n/a	FR1	1	R1463E
1052.737	2.167	1228378	ENCODING_START	n/a	n/a	n/a	-999	10	[0, 0, 0]	n/a	FR1	1	R1463E
1054.904	1.617	1230544	WORD	n/a	wordpools/wordpool_long_EN.txt	STREET	1	10	[0, 0, 0]	n/a	FR1	1	R1463E
1056.521	0.883	1232154	WORD_OFF	n/a	n/a	STREET	1	10	[0, 0, 0]	n/a	FR1	1	R1463E
1057.404	1.616	1233045	WORD	n/a	wordpools/wordpool_long_EN.txt	HAT	2	10	[0, 0, 0]	n/a	FR1	1	R1463E
1059.02	0.9	1234654	WORD_OFF	n/a	n/a	HAT	2	10	[0, 0, 0]	n/a	FR1	1	R1463E
1059.92	1.601	1235555	WORD	n/a	wordpools/wordpool_long_EN.txt	NEST	3	10	[0, 0, 0]	n/a	FR1	1	R1463E
1061.521	0.899	1237154	WORD_OFF	n/a	n/a	NEST	3	10	[0, 0, 0]	n/a	FR1	1	R1463E
1062.42	1.615	1238055	WORD	n/a	wordpools/wordpool_long_EN.txt	GRASS	4	10	[0, 0, 0]	n/a	FR1	1	R1463E
1064.035	0.935	1239675	WORD_OFF	n/a	n/a	GRASS	4	10	[0, 0, 0]	n/a	FR1	1	R1463E
1064.97	1.615	1240606	WORD	n/a	wordpools/wordpool_long_EN.txt	YARD	5	10	[0, 0, 0]	n/a	FR1	1	R1463E
1066.585	0.885	1242226	WORD_OFF	n/a	n/a	YARD	5	10	[0, 0, 0]	n/a	FR1	1	R1463E
1067.47	1.617	1243106	WORD	n/a	wordpools/wordpool_long_EN.txt	ROOT	6	10	[0, 0, 0]	n/a	FR1	1	R1463E
1069.087	0.8	1244726	WORD_OFF	n/a	n/a	ROOT	6	10	[0, 0, 0]	n/a	FR1	1	R1463E
1069.887	1.599	1245526	WORD	n/a	wordpools/wordpool_long_EN.txt	JET	7	10	[0, 0, 0]	n/a	FR1	1	R1463E
1071.486	0.917	1247125	WORD_OFF	n/a	n/a	JET	7	10	[0, 0, 0]	n/a	FR1	1	R1463E
1072.403	1.616	1248036	WORD	n/a	wordpools/wordpool_long_EN.txt	PERCH	8	10	[0, 0, 0]	n/a	FR1	1	R1463E
1074.019	0.784	1249656	WORD_OFF	n/a	n/a	PERCH	8	10	[0, 0, 0]	n/a	FR1	1	R1463E
1074.803	1.6	1250445	WORD	n/a	wordpools/wordpool_long_EN.txt	RAKE	9	10	[0, 0, 0]	n/a	FR1	1	R1463E
1076.403	1.0	1252044	WORD_OFF	n/a	n/a	RAKE	9	10	[0, 0, 0]	n/a	FR1	1	R1463E
1077.403	1.6	1253036	WORD	n/a	wordpools/wordpool_long_EN.txt	STRING	10	10	[0, 0, 0]	n/a	FR1	1	R1463E
1079.003	0.765	1254636	WORD_OFF	n/a	n/a	STRING	10	10	[0, 0, 0]	n/a	FR1	1	R1463E
1079.768	1.602	1255405	WORD	n/a	wordpools/wordpool_long_EN.txt	STORM	11	10	[0, 0, 0]	n/a	FR1	1	R1463E
1081.37	0.765	1257004	WORD_OFF	n/a	n/a	STORM	11	10	[0, 0, 0]	n/a	FR1	1	R1463E
1082.135	1.6	1257774	WORD	n/a	wordpools/wordpool_long_EN.txt	SNACK	12	10	[0, 0, 0]	n/a	FR1	1	R1463E
1083.735	0.001	1259373	WORD_OFF	n/a	n/a	SNACK	12	10	[0, 0, 0]	n/a	FR1	1	R1463E
1083.736	0.0	1259373	ENCODING_END	n/a	n/a	n/a	-999	10	[0, 0, 0]	n/a	FR1	1	R1463E
1083.736	0.0	1259373	DISTRACT_START	n/a	n/a	n/a	-999	10	[0, 0, 0]	n/a	FR1	1	R1463E
1083.736	0.0	1259382	START	n/a	n/a	n/a	-999	10	[-999, -999, -999]	n/a	FR1	1	R1463E
1083.736	5.332	1259382	PROB	5.332	n/a	n/a	-999	10	[3, 8, 5]	16	FR1	1	R1463E
1089.068	2.317	1264714	PROB	2.317	n/a	n/a	-999	10	[5, 5, 1]	11	FR1	1	R1463E
1091.385	3.002	1267031	PROB	3.002	n/a	n/a	-999	10	[1, 2, 3]	6	FR1	1	R1463E
1094.387	3.715	1270033	PROB	3.715	n/a	n/a	-999	10	[1, 8, 8]	17	FR1	1	R1463E
1098.102	3.667	1273748	PROB	3.667	n/a	n/a	-999	10	[6, 2, 8]	16	FR1	1	R1463E
1101.769	3.049	1277415	PROB	3.049	n/a	n/a	-999	10	[2, 6, 4]	12	FR1	1	R1463E
1104.818	0.0	1280458	DISTRACT_END	n/a	n/a	n/a	-999	10	[0, 0, 0]	n/a	FR1	1	R1463E
1104.818	2.184	1280464	STOP	n/a	n/a	n/a	-999	10	[-999, -999, -999]	n/a	FR1	1	R1463E
1107.002	0.827	1282642	REC_START	n/a	n/a	n/a	-999	10	[0, 0, 0]	n/a	FR1	1	R1463E
1107.829	1.712	1283475	REC_WORD	1.712	n/a	RAKE	9	10	[0, 0, 0]	n/a	FR1	1	R1463E
1109.541	1.922	1285187	REC_WORD	1.922	n/a	STORM	11	10	[0, 0, 0]	n/a	FR1	1	R1463E
1111.463	2.67	1287109	REC_WORD	2.67	n/a	YARD	5	10	[0, 0, 0]	n/a	FR1	1	R1463E
1114.133	4.925	1289779	REC_WORD	4.925	n/a	STRING	10	10	[0, 0, 0]	n/a	FR1	1	R1463E
1119.058	3.25	1294704	REC_WORD	3.25	n/a	HOUSE	-999	10	[0, 0, 0]	n/a	FR1	1	R1463E
1122.308	14.943	1297954	REC_WORD	14.943	n/a	LAWN	-999	10	[0, 0, 0]	n/a	FR1	1	R1463E
1137.251	1.883	1312890	REC_END	n/a	n/a	n/a	-999	10	[0, 0, 0]	n/a	FR1	1	R1463E
1139.134	10.35	1314773	COUNTDOWN_START	n/a	n/a	n/a	-999	11	[0, 0, 0]	n/a	FR1	1	R1463E
1149.484	0.001	1325118	COUNTDOWN_END	n/a	n/a	n/a	-999	11	[0, 0, 0]	n/a	FR1	1	R1463E
1149.485	2.066	1325128	ENCODING_START	n/a	n/a	n/a	-999	11	[0, 0, 0]	n/a	FR1	1	R1463E
1151.551	1.6	1327183	WORD	n/a	wordpools/wordpool_long_EN.txt	BROOK	1	11	[0, 0, 0]	n/a	FR1	1	R1463E
1153.151	0.816	1328793	WORD_OFF	n/a	n/a	BROOK	1	11	[0, 0, 0]	n/a	FR1	1	R1463E
1153.967	1.616	1329603	WORD	n/a	wordpools/wordpool_long_EN.txt	SPRING	2	11	[0, 0, 0]	n/a	FR1	1	R1463E
1155.583	0.801	1331222	WORD_OFF	n/a	n/a	SPRING	2	11	[0, 0, 0]	n/a	FR1	1	R1463E
1156.384	1.615	1332022	WORD	n/a	wordpools/wordpool_long_EN.txt	MOLE	3	11	[0, 0, 0]	n/a	FR1	1	R1463E
1157.999	0.884	1333641	WORD_OFF	n/a	n/a	MOLE	3	11	[0, 0, 0]	n/a	FR1	1	R1463E
1158.883	1.617	1334522	WORD	n/a	wordpools/wordpool_long_EN.txt	HEART	4	11	[0, 0, 0]	n/a	FR1	1	R1463E
1160.5	0.966	1336142	WORD_OFF	n/a	n/a	HEART	4	11	[0, 0, 0]	n/a	FR1	1	R1463E
1161.466	1.6	1337103	WORD	n/a	wordpools/wordpool_long_EN.txt	SPOUSE	5	11	[0, 0, 0]	n/a	FR1	1	R1463E
1163.066	0.851	1338703	WORD_OFF	n/a	n/a	SPOUSE	5	11	[0, 0, 0]	n/a	FR1	1	R1463E
1163.917	1.6	1339553	WORD	n/a	wordpools/wordpool_long_EN.txt	LAMP	6	11	[0, 0, 0]	n/a	FR1	1	R1463E
1165.517	0.782	1341152	WORD_OFF	n/a	n/a	LAMP	6	11	[0, 0, 0]	n/a	FR1	1	R1463E
1166.299	1.601	1341932	WORD	n/a	wordpools/wordpool_long_EN.txt	YARN	7	11	[0, 0, 0]	n/a	FR1	1	R1463E
1167.9	0.916	1343541	WORD_OFF	n/a	n/a	YARN	7	11	[0, 0, 0]	n/a	FR1	1	R1463E
1168.816	1.601	1344452	WORD	n/a	wordpools/wordpool_long_EN.txt	BLOOM	8	11	[0, 0, 0]	n/a	FR1	1	R1463E
1170.417	0.899	1346052	WORD_OFF	n/a	n/a	BLOOM	8	11	[0, 0, 0]	n/a	FR1	1	R1463E
1171.316	1.618	1346952	WORD	n/a	wordpools/wordpool_long_EN.txt	SHOE	9	11	[0, 0, 0]	n/a	FR1	1	R1463E
1172.934	0.932	1348572	WORD_OFF	n/a	n/a	SHOE	9	11	[0, 0, 0]	n/a	FR1	1	R1463E
1173.866	1.6	1349503	WORD	n/a	wordpools/wordpool_long_EN.txt	STAIR	10	11	[0, 0, 0]	n/a	FR1	1	R1463E
1175.466	0.95	1351103	WORD_OFF	n/a	n/a	STAIR	10	11	[0, 0, 0]	n/a	FR1	1	R1463E
1176.416	1.616	1352054	WORD	n/a	wordpools/wordpool_long_EN.txt	SALT	11	11	[0, 0, 0]	n/a	FR1	1	R1463E
1178.032	0.767	1353674	WORD_OFF	n/a	n/a	SALT	11	11	[0, 0, 0]	n/a	FR1	1	R1463E
1178.799	1.6	1354433	WORD	n/a	wordpools/wordpool_long_EN.txt	SINK	12	11	[0, 0, 0]	n/a	FR1	1	R1463E
1180.399	0.002	1356032	WORD_OFF	n/a	n/a	SINK	12	11	[0, 0, 0]	n/a	FR1	1	R1463E
1180.401	0.0	1356042	ENCODING_END	n/a	n/a	n/a	-999	11	[0, 0, 0]	n/a	FR1	1	R1463E
1180.401	0.0	1356042	DISTRACT_START	n/a	n/a	n/a	-999	11	[0, 0, 0]	n/a	FR1	1	R1463E
1180.4	0.001	1356046	PROB	0.001	n/a	n/a	-999	11	[4, 7, 5]	16	FR1	1	R1463E
1180.401	4.816	1356047	START	n/a	n/a	n/a	-999	11	[-999, -999, -999]	n/a	FR1	1	R1463E
1185.217	4.533	1360863	PROB	4.533	n/a	n/a	-999	11	[8, 3, 5]	16	FR1	1	R1463E
1189.75	3.267	1365396	PROB	3.267	n/a	n/a	-999	11	[3, 4, 3]	10	FR1	1	R1463E
1193.017	2.816	1368663	PROB	2.816	n/a	n/a	-999	11	[8, 4, 4]	16	FR1	1	R1463E
1195.833	4.982	1371479	PROB	4.982	n/a	n/a	-999	11	[2, 7, 4]	13	FR1	1	R1463E
1200.815	0.0	1376449	DISTRACT_END	n/a	n/a	n/a	-999	11	[0, 0, 0]	n/a	FR1	1	R1463E
1200.815	2.201	1376461	STOP	n/a	n/a	n/a	-999	11	[-999, -999, -999]	n/a	FR1	1	R1463E
1203.016	0.731	1378654	REC_START	n/a	n/a	n/a	-999	11	[0, 0, 0]	n/a	FR1	1	R1463E
1203.747	2.102	1379394	REC_WORD	2.102	n/a	SPRING	2	11	[0, 0, 0]	n/a	FR1	1	R1463E
1205.849	3.311	1381496	REC_WORD	3.311	n/a	SING	-999	11	[0, 0, 0]	n/a	FR1	1	R1463E
1209.16	6.304	1384807	REC_WORD	6.304	n/a	BLOOM	8	11	[0, 0, 0]	n/a	FR1	1	R1463E
1215.464	9.517	1391111	REC_WORD	9.517	n/a	PLANT	-999	11	[0, 0, 0]	n/a	FR1	1	R1463E
1224.981	7.469	1400628	REC_WORD	7.469	n/a	LAWN	-999	11	[0, 0, 0]	n/a	FR1	1	R1463E
1232.45	0.809	1408097	REC_WORD	0.809	n/a	SINK	12	11	[0, 0, 0]	n/a	FR1	1	R1463E
1233.259	2.973	1408892	REC_END	n/a	n/a	n/a	-999	11	[0, 0, 0]	n/a	FR1	1	R1463E
1236.232	10.348	1411868	COUNTDOWN_START	n/a	n/a	n/a	-999	12	[0, 0, 0]	n/a	FR1	1	R1463E
1246.58	0.001	1422213	COUNTDOWN_END	n/a	n/a	n/a	-999	12	[0, 0, 0]	n/a	FR1	1	R1463E
1246.581	2.066	1422223	ENCODING_START	n/a	n/a	n/a	-999	12	[0, 0, 0]	n/a	FR1	1	R1463E
1248.647	1.601	1424288	WORD	n/a	wordpools/wordpool_long_EN.txt	LUNCH	1	12	[0, 0, 0]	n/a	FR1	1	R1463E
1250.248	0.999	1425887	WORD_OFF	n/a	n/a	LUNCH	1	12	[0, 0, 0]	n/a	FR1	1	R1463E
1251.247	1.601	1426879	WORD	n/a	wordpools/wordpool_long_EN.txt	MUG	2	12	[0, 0, 0]	n/a	FR1	1	R1463E
1252.848	0.932	1428489	WORD_OFF	n/a	n/a	MUG	2	12	[0, 0, 0]	n/a	FR1	1	R1463E
1253.78	1.6	1429420	WORD	n/a	wordpools/wordpool_long_EN.txt	GLASS	3	12	[0, 0, 0]	n/a	FR1	1	R1463E
1255.38	0.835	1431019	WORD_OFF	n/a	n/a	GLASS	3	12	[0, 0, 0]	n/a	FR1	1	R1463E
1256.215	1.616	1431849	WORD	n/a	wordpools/wordpool_long_EN.txt	CLAY	4	12	[0, 0, 0]	n/a	FR1	1	R1463E
1257.831	0.783	1433469	WORD_OFF	n/a	n/a	CLAY	4	12	[0, 0, 0]	n/a	FR1	1	R1463E
1258.614	1.6	1434248	WORD	n/a	wordpools/wordpool_long_EN.txt	PARK	5	12	[0, 0, 0]	n/a	FR1	1	R1463E
1260.214	0.784	1435858	WORD_OFF	n/a	n/a	PARK	5	12	[0, 0, 0]	n/a	FR1	1	R1463E
1260.998	1.615	1436637	WORD	n/a	wordpools/wordpool_long_EN.txt	TANK	6	12	[0, 0, 0]	n/a	FR1	1	R1463E
1262.613	0.851	1438247	WORD_OFF	n/a	n/a	TANK	6	12	[0, 0, 0]	n/a	FR1	1	R1463E
1263.464	1.6	1439097	WORD	n/a	wordpools/wordpool_long_EN.txt	BRANCH	7	12	[0, 0, 0]	n/a	FR1	1	R1463E
1265.064	0.866	1440696	WORD_OFF	n/a	n/a	BRANCH	7	12	[0, 0, 0]	n/a	FR1	1	R1463E
1265.93	1.6	1441567	WORD	n/a	wordpools/wordpool_long_EN.txt	SQUARE	8	12	[0, 0, 0]	n/a	FR1	1	R1463E
1267.53	0.883	1443166	WORD_OFF	n/a	n/a	SQUARE	8	12	[0, 0, 0]	n/a	FR1	1	R1463E
1268.413	1.6	1444047	WORD	n/a	wordpools/wordpool_long_EN.txt	FARM	9	12	[0, 0, 0]	n/a	FR1	1	R1463E
1270.013	0.967	1445646	WORD_OFF	n/a	n/a	FARM	9	12	[0, 0, 0]	n/a	FR1	1	R1463E
1270.98	1.6	1446618	WORD	n/a	wordpools/wordpool_long_EN.txt	RAT	10	12	[0, 0, 0]	n/a	FR1	1	R1463E
1272.58	0.783	1448217	WORD_OFF	n/a	n/a	RAT	10	12	[0, 0, 0]	n/a	FR1	1	R1463E
1273.363	1.601	1448997	WORD	n/a	wordpools/wordpool_long_EN.txt	SMOKE	11	12	[0, 0, 0]	n/a	FR1	1	R1463E
1274.964	0.832	1450596	WORD_OFF	n/a	n/a	SMOKE	11	12	[0, 0, 0]	n/a	FR1	1	R1463E
1275.796	1.601	1451436	WORD	n/a	wordpools/wordpool_long_EN.txt	MEAT	12	12	[0, 0, 0]	n/a	FR1	1	R1463E
1277.397	0.001	1453036	WORD_OFF	n/a	n/a	MEAT	12	12	[0, 0, 0]	n/a	FR1	1	R1463E
1277.398	0.0	1453036	ENCODING_END	n/a	n/a	n/a	-999	12	[0, 0, 0]	n/a	FR1	1	R1463E
1277.398	0.0	1453036	DISTRACT_START	n/a	n/a	n/a	-999	12	[0, 0, 0]	n/a	FR1	1	R1463E
1277.397	0.001	1453044	PROB	0.001	n/a	n/a	-999	12	[8, 6, 2]	16	FR1	1	R1463E
1277.398	3.916	1453045	START	n/a	n/a	n/a	-999	12	[-999, -999, -999]	n/a	FR1	1	R1463E
1281.314	3.116	1456961	PROB	3.116	n/a	n/a	-999	12	[7, 6, 8]	21	FR1	1	R1463E
1284.43	3.55	1460077	PROB	3.55	n/a	n/a	-999	12	[8, 4, 5]	17	FR1	1	R1463E
1287.98	3.284	1463627	PROB	3.284	n/a	n/a	-999	12	[3, 7, 7]	17	FR1	1	R1463E
1291.264	6.982	1466911	PROB	6.982	n/a	n/a	-999	12	[7, 2, 6]	15	FR1	1	R1463E
1298.246	0.0	1473888	DISTRACT_END	n/a	n/a	n/a	-999	12	[0, 0, 0]	n/a	FR1	1	R1463E
1298.246	2.1	1473893	STOP	n/a	n/a	n/a	-999	12	[-999, -999, -999]	n/a	FR1	1	R1463E
1300.346	0.767	1475981	REC_START	n/a	n/a	n/a	-999	12	[0, 0, 0]	n/a	FR1	1	R1463E
1301.113	1.884	1476760	REC_WORD	1.884	n/a	RAT	10	12	[0, 0, 0]	n/a	FR1	1	R1463E
1302.997	3.093	1478644	REC_WORD	3.093	n/a	MEAT	12	12	[0, 0, 0]	n/a	FR1	1	R1463E
1306.09	9.305	1481737	REC_WORD	9.305	n/a	SMOKE	11	12	[0, 0, 0]	n/a	FR1	1	R1463E
1315.395	15.195	1491042	REC_WORD	15.195	n/a	SQUARE	8	12	[0, 0, 0]	n/a	FR1	1	R1463E
1330.59	0.0	1506229	REC_END	n/a	n/a	n/a	-999	12	[0, 0, 0]	n/a	FR1	1	R1463E
