onset	duration	sample	trial_type	response_time	stim_file	item_name	serialpos	list	test	answer	experiment	session	subject
0.0	0.0	10529	INSTRUCT_START	n/a	n/a	n/a	-999	-999	[0, 0, 0]	n/a	FR1	0	R1178P
0.0	11.045	10529	INSTRUCT_END	n/a	n/a	n/a	-999	-999	[0, 0, 0]	n/a	FR1	0	R1178P
11.045	0.0	21573	SESS_START	n/a	n/a	n/a	-999	-999	[0, 0, 0]	n/a	FR1	0	R1178P
11.045	251.359	21573	MIC_TEST	n/a	n/a	n/a	-999	-999	[0, 0, 0]	n/a	FR1	0	R1178P
262.404	6.597	272919	PRACTICE_TRIAL	n/a	n/a	n/a	-999	-1	[0, 0, 0]	n/a	FR1	0	R1178P
269.001	10.428	279516	COUNTDOWN_START	n/a	n/a	n/a	-999	-1	[0, 0, 0]	n/a	FR1	0	R1178P
279.429	0.008	289944	COUNTDOWN_END	n/a	n/a	n/a	-999	-1	[0, 0, 0]	n/a	FR1	0	R1178P
279.437	1.616	289952	PRACTICE_ORIENT	n/a	n/a	n/a	-999	-1	[0, 0, 0]	n/a	FR1	0	R1178P
281.053	2.118	291567	PRACTICE_ORIENT_OFF	n/a	n/a	n/a	-999	-1	[0, 0, 0]	n/a	FR1	0	R1178P
283.171	1.616	293685	PRACTICE_WORD	n/a	n/a	TONGUE	1	-1	[0, 0, 0]	n/a	FR1	0	R1178P
284.787	0.884	295301	PRACTICE_WORD_OFF	n/a	n/a	TONGUE	-999	-1	[0, 0, 0]	n/a	FR1	0	R1178P
285.671	1.618	296185	PRACTICE_WORD	n/a	n/a	RING	2	-1	[0, 0, 0]	n/a	FR1	0	R1178P
287.289	1.0	297803	PRACTICE_WORD_OFF	n/a	n/a	RING	-999	-1	[0, 0, 0]	n/a	FR1	0	R1178P
288.289	1.616	298803	PRACTICE_WORD	n/a	n/a	IRON	3	-1	[0, 0, 0]	n/a	FR1	0	R1178P
289.905	0.833	300419	PRACTICE_WORD_OFF	n/a	n/a	IRON	-999	-1	[0, 0, 0]	n/a	FR1	0	R1178P
290.738	1.618	301252	PRACTICE_WORD	n/a	n/a	FLOOD	4	-1	[0, 0, 0]	n/a	FR1	0	R1178P
292.356	0.834	302870	PRACTICE_WORD_OFF	n/a	n/a	FLOOD	-999	-1	[0, 0, 0]	n/a	FR1	0	R1178P
293.19	1.616	303704	PRACTICE_WORD	n/a	n/a	COTTON	5	-1	[0, 0, 0]	n/a	FR1	0	R1178P
294.806	0.883	305320	PRACTICE_WORD_OFF	n/a	n/a	COTTON	-999	-1	[0, 0, 0]	n/a	FR1	0	R1178P
295.689	1.602	306203	PRACTICE_WORD	n/a	n/a	RHINO	6	-1	[0, 0, 0]	n/a	FR1	0	R1178P
297.291	0.849	307805	PRACTICE_WORD_OFF	n/a	n/a	RHINO	-999	-1	[0, 0, 0]	n/a	FR1	0	R1178P
298.14	1.617	308654	PRACTICE_WORD	n/a	n/a	WAGON	7	-1	[0, 0, 0]	n/a	FR1	0	R1178P
299.757	0.867	310271	PRACTICE_WORD_OFF	n/a	n/a	WAGON	-999	-1	[0, 0, 0]	n/a	FR1	0	R1178P
300.624	1.618	311138	PRACTICE_WORD	n/a	n/a	ATTIC	8	-1	[0, 0, 0]	n/a	FR1	0	R1178P
302.242	0.816	312755	PRACTICE_WORD_OFF	n/a	n/a	ATTIC	-999	-1	[0, 0, 0]	n/a	FR1	0	R1178P
303.058	1.617	313571	PRACTICE_WORD	n/a	n/a	CAMEL	9	-1	[0, 0, 0]	n/a	FR1	0	R1178P
304.675	0.816	315188	PRACTICE_WORD_OFF	n/a	n/a	CAMEL	-999	-1	[0, 0, 0]	n/a	FR1	0	R1178P
305.491	1.617	316004	PRACTICE_WORD	n/a	n/a	BEAM	10	-1	[0, 0, 0]	n/a	FR1	0	R1178P
307.108	0.917	317621	PRACTICE_WORD_OFF	n/a	n/a	BEAM	-999	-1	[0, 0, 0]	n/a	FR1	0	R1178P
308.025	1.617	318538	PRACTICE_WORD	n/a	n/a	WATCH	11	-1	[0, 0, 0]	n/a	FR1	0	R1178P
309.642	0.9	320155	PRACTICE_WORD_OFF	n/a	n/a	WATCH	-999	-1	[0, 0, 0]	n/a	FR1	0	R1178P
310.542	1.617	321055	PRACTICE_WORD	n/a	n/a	CHEST	12	-1	[0, 0, 0]	n/a	FR1	0	R1178P
312.159	0.0	322672	PRACTICE_WORD_OFF	n/a	n/a	CHEST	-999	-1	[0, 0, 0]	n/a	FR1	0	R1178P
312.159	0.001	322672	DISTRACT_START	n/a	n/a	n/a	-999	-1	[0, 0, 0]	n/a	FR1	0	R1178P
312.16	0.017	322673	START	n/a	n/a	n/a	-999	-1	[-999, -999, -999]	n/a	FR1	0	R1178P
312.177	17.203	322690	PROB	17.203	n/a	n/a	-999	-1	[3, 2, 4]	9	FR1	0	R1178P
329.38	16.376	339892	PROB	16.376	n/a	n/a	-999	-1	[4, 7, 4]	15	FR1	0	R1178P
345.756	0.009	356267	STOP	n/a	n/a	n/a	-999	-1	[-999, -999, -999]	n/a	FR1	0	R1178P
345.765	0.702	356276	DISTRACT_END	n/a	n/a	n/a	-999	-1	[0, 0, 0]	n/a	FR1	0	R1178P
346.467	0.52	356978	RETRIEVAL_ORIENT	n/a	n/a	n/a	-999	-1	[0, 0, 0]	n/a	FR1	0	R1178P
346.987	30.006	357498	PRACTICE_REC_START	n/a	n/a	n/a	-999	-1	[0, 0, 0]	n/a	FR1	0	R1178P
376.993	23.833	387503	PRACTICE_REC_END	n/a	n/a	n/a	-999	-1	[0, 0, 0]	n/a	FR1	0	R1178P
400.826	0.5	411334	TRIAL	n/a	n/a	n/a	-999	1	[0, 0, 0]	n/a	FR1	0	R1178P
401.326	10.428	411834	COUNTDOWN_START	n/a	n/a	n/a	-999	1	[0, 0, 0]	n/a	FR1	0	R1178P
411.754	0.007	422262	COUNTDOWN_END	n/a	n/a	n/a	-999	1	[0, 0, 0]	n/a	FR1	0	R1178P
411.761	1.618	422269	ORIENT	n/a	n/a	n/a	-999	1	[0, 0, 0]	n/a	FR1	0	R1178P
413.379	1.901	423887	ORIENT_OFF	n/a	n/a	n/a	-999	1	[0, 0, 0]	n/a	FR1	0	R1178P
415.28	1.616	425788	WORD	n/a	wordpools/wordpool_EN.txt	DESK	1	1	[0, 0, 0]	n/a	FR1	0	R1178P
416.896	0.917	427404	WORD_OFF	n/a	n/a	DESK	1	1	[0, 0, 0]	n/a	FR1	0	R1178P
417.813	1.618	428321	WORD	n/a	wordpools/wordpool_EN.txt	OAK	2	1	[0, 0, 0]	n/a	FR1	0	R1178P
419.431	0.816	429938	WORD_OFF	n/a	n/a	OAK	2	1	[0, 0, 0]	n/a	FR1	0	R1178P
420.247	1.616	430754	WORD	n/a	wordpools/wordpool_EN.txt	DRESS	3	1	[0, 0, 0]	n/a	FR1	0	R1178P
421.863	0.9	432370	WORD_OFF	n/a	n/a	DRESS	3	1	[0, 0, 0]	n/a	FR1	0	R1178P
422.763	1.618	433270	WORD	n/a	wordpools/wordpool_EN.txt	STONE	4	1	[0, 0, 0]	n/a	FR1	0	R1178P
424.381	0.801	434888	WORD_OFF	n/a	n/a	STONE	4	1	[0, 0, 0]	n/a	FR1	0	R1178P
425.182	1.616	435689	WORD	n/a	wordpools/wordpool_EN.txt	PANTS	5	1	[0, 0, 0]	n/a	FR1	0	R1178P
426.798	1.0	437305	WORD_OFF	n/a	n/a	PANTS	5	1	[0, 0, 0]	n/a	FR1	0	R1178P
427.798	1.618	438305	WORD	n/a	wordpools/wordpool_EN.txt	STICK	6	1	[0, 0, 0]	n/a	FR1	0	R1178P
429.416	0.9	439923	WORD_OFF	n/a	n/a	STICK	6	1	[0, 0, 0]	n/a	FR1	0	R1178P
430.316	1.616	440823	WORD	n/a	wordpools/wordpool_EN.txt	CHIN	7	1	[0, 0, 0]	n/a	FR1	0	R1178P
431.932	0.817	442439	WORD_OFF	n/a	n/a	CHIN	7	1	[0, 0, 0]	n/a	FR1	0	R1178P
432.749	1.618	443256	WORD	n/a	wordpools/wordpool_EN.txt	BAND	8	1	[0, 0, 0]	n/a	FR1	0	R1178P
434.367	1.017	444874	WORD_OFF	n/a	n/a	BAND	8	1	[0, 0, 0]	n/a	FR1	0	R1178P
435.384	1.616	445891	WORD	n/a	wordpools/wordpool_EN.txt	SHIELD	9	1	[0, 0, 0]	n/a	FR1	0	R1178P
437.0	0.816	447507	WORD_OFF	n/a	n/a	SHIELD	9	1	[0, 0, 0]	n/a	FR1	0	R1178P
437.816	1.601	448323	WORD	n/a	wordpools/wordpool_EN.txt	LEG	10	1	[0, 0, 0]	n/a	FR1	0	R1178P
439.417	0.951	449923	WORD_OFF	n/a	n/a	LEG	10	1	[0, 0, 0]	n/a	FR1	0	R1178P
440.368	1.616	450874	WORD	n/a	wordpools/wordpool_EN.txt	ELF	11	1	[0, 0, 0]	n/a	FR1	0	R1178P
441.984	0.833	452490	WORD_OFF	n/a	n/a	ELF	11	1	[0, 0, 0]	n/a	FR1	0	R1178P
442.817	1.601	453323	WORD	n/a	wordpools/wordpool_EN.txt	YARD	12	1	[0, 0, 0]	n/a	FR1	0	R1178P
444.418	0.0	454924	WORD_OFF	n/a	n/a	YARD	12	1	[0, 0, 0]	n/a	FR1	0	R1178P
444.418	0.001	454924	DISTRACT_START	n/a	n/a	n/a	-999	1	[0, 0, 0]	n/a	FR1	0	R1178P
444.419	0.016	454925	START	n/a	n/a	n/a	-999	1	[-999, -999, -999]	n/a	FR1	0	R1178P
444.435	14.77	454941	PROB	14.77	n/a	n/a	-999	1	[2, 7, 4]	13	FR1	0	R1178P
459.205	12.495	469710	PROB	12.495	n/a	n/a	-999	1	[1, 8, 7]	16	FR1	0	R1178P
471.7	0.006	482205	STOP	n/a	n/a	n/a	-999	1	[-999, -999, -999]	n/a	FR1	0	R1178P
471.706	0.684	482211	DISTRACT_END	n/a	n/a	n/a	-999	1	[0, 0, 0]	n/a	FR1	0	R1178P
472.39	0.517	482895	RETRIEVAL_ORIENT	n/a	n/a	n/a	-999	1	[0, 0, 0]	n/a	FR1	0	R1178P
472.907	4.569	483412	REC_START	n/a	n/a	n/a	-999	1	[0, 0, 0]	n/a	FR1	0	R1178P
477.476	0.64	487981	REC_WORD_VV	0.64	n/a	<>	-999	1	[0, 0, 0]	n/a	FR1	0	R1178P
478.116	1.815	488621	REC_WORD	1.815	n/a	DESK	1	1	[0, 0, 0]	n/a	FR1	0	R1178P
479.931	2.402	490435	REC_WORD	2.402	n/a	OAK	2	1	[0, 0, 0]	n/a	FR1	0	R1178P
482.333	0.383	492837	REC_WORD_VV	0.383	n/a	<>	-999	1	[0, 0, 0]	n/a	FR1	0	R1178P
482.716	1.92	493220	REC_WORD	1.92	n/a	CHIN	7	1	[0, 0, 0]	n/a	FR1	0	R1178P
484.636	3.0	495140	REC_WORD	3.0	n/a	LEG	10	1	[0, 0, 0]	n/a	FR1	0	R1178P
487.636	1.289	498140	REC_WORD_VV	1.289	n/a	<>	-999	1	[0, 0, 0]	n/a	FR1	0	R1178P
488.925	0.945	499429	REC_WORD_VV	0.945	n/a	<>	-999	1	[0, 0, 0]	n/a	FR1	0	R1178P
489.87	1.581	500374	REC_WORD_VV	1.581	n/a	<>	-999	1	[0, 0, 0]	n/a	FR1	0	R1178P
491.451	1.0	501955	REC_WORD_VV	1.0	n/a	<>	-999	1	[0, 0, 0]	n/a	FR1	0	R1178P
492.451	1.832	502955	REC_WORD_VV	1.832	n/a	<>	-999	1	[0, 0, 0]	n/a	FR1	0	R1178P
494.283	8.637	504787	REC_WORD_VV	8.637	n/a	<>	-999	1	[0, 0, 0]	n/a	FR1	0	R1178P
502.92	12.161	513423	REC_END	n/a	n/a	n/a	-999	1	[0, 0, 0]	n/a	FR1	0	R1178P
515.081	0.5	525584	TRIAL	n/a	n/a	n/a	-999	2	[0, 0, 0]	n/a	FR1	0	R1178P
515.581	10.428	526084	COUNTDOWN_START	n/a	n/a	n/a	-999	2	[0, 0, 0]	n/a	FR1	0	R1178P
526.009	0.007	536511	COUNTDOWN_END	n/a	n/a	n/a	-999	2	[0, 0, 0]	n/a	FR1	0	R1178P
526.016	1.617	536518	ORIENT	n/a	n/a	n/a	-999	2	[0, 0, 0]	n/a	FR1	0	R1178P
527.633	1.934	538135	ORIENT_OFF	n/a	n/a	n/a	-999	2	[0, 0, 0]	n/a	FR1	0	R1178P
529.567	1.618	540069	WORD	n/a	wordpools/wordpool_EN.txt	GATE	1	2	[0, 0, 0]	n/a	FR1	0	R1178P
531.185	0.949	541687	WORD_OFF	n/a	n/a	GATE	1	2	[0, 0, 0]	n/a	FR1	0	R1178P
532.134	1.617	542636	WORD	n/a	wordpools/wordpool_EN.txt	FARM	2	2	[0, 0, 0]	n/a	FR1	0	R1178P
533.751	0.767	544253	WORD_OFF	n/a	n/a	FARM	2	2	[0, 0, 0]	n/a	FR1	0	R1178P
534.518	1.617	545020	WORD	n/a	wordpools/wordpool_EN.txt	ROAD	3	2	[0, 0, 0]	n/a	FR1	0	R1178P
536.135	0.9	546637	WORD_OFF	n/a	n/a	ROAD	3	2	[0, 0, 0]	n/a	FR1	0	R1178P
537.035	1.617	547537	WORD	n/a	wordpools/wordpool_EN.txt	SLIME	4	2	[0, 0, 0]	n/a	FR1	0	R1178P
538.652	0.883	549153	WORD_OFF	n/a	n/a	SLIME	4	2	[0, 0, 0]	n/a	FR1	0	R1178P
539.535	1.618	550036	WORD	n/a	wordpools/wordpool_EN.txt	TRAY	5	2	[0, 0, 0]	n/a	FR1	0	R1178P
541.153	0.766	551654	WORD_OFF	n/a	n/a	TRAY	5	2	[0, 0, 0]	n/a	FR1	0	R1178P
541.919	1.617	552420	WORD	n/a	wordpools/wordpool_EN.txt	MUD	6	2	[0, 0, 0]	n/a	FR1	0	R1178P
543.536	0.785	554037	WORD_OFF	n/a	n/a	MUD	6	2	[0, 0, 0]	n/a	FR1	0	R1178P
544.321	1.616	554822	WORD	n/a	wordpools/wordpool_EN.txt	HEN	7	2	[0, 0, 0]	n/a	FR1	0	R1178P
545.937	0.9	556438	WORD_OFF	n/a	n/a	HEN	7	2	[0, 0, 0]	n/a	FR1	0	R1178P
546.837	1.618	557338	WORD	n/a	wordpools/wordpool_EN.txt	FOOT	8	2	[0, 0, 0]	n/a	FR1	0	R1178P
548.455	0.95	558956	WORD_OFF	n/a	n/a	FOOT	8	2	[0, 0, 0]	n/a	FR1	0	R1178P
549.405	1.616	559906	WORD	n/a	wordpools/wordpool_EN.txt	RUG	9	2	[0, 0, 0]	n/a	FR1	0	R1178P
551.021	0.85	561522	WORD_OFF	n/a	n/a	RUG	9	2	[0, 0, 0]	n/a	FR1	0	R1178P
551.871	1.617	562372	WORD	n/a	wordpools/wordpool_EN.txt	BRUSH	10	2	[0, 0, 0]	n/a	FR1	0	R1178P
553.488	0.901	563989	WORD_OFF	n/a	n/a	BRUSH	10	2	[0, 0, 0]	n/a	FR1	0	R1178P
554.389	1.616	564890	WORD	n/a	wordpools/wordpool_EN.txt	MOUTH	11	2	[0, 0, 0]	n/a	FR1	0	R1178P
556.005	0.884	566506	WORD_OFF	n/a	n/a	MOUTH	11	2	[0, 0, 0]	n/a	FR1	0	R1178P
556.889	1.617	567390	WORD	n/a	wordpools/wordpool_EN.txt	WHEEL	12	2	[0, 0, 0]	n/a	FR1	0	R1178P
558.506	0.0	569006	WORD_OFF	n/a	n/a	WHEEL	12	2	[0, 0, 0]	n/a	FR1	0	R1178P
558.506	0.0	569006	DISTRACT_START	n/a	n/a	n/a	-999	2	[0, 0, 0]	n/a	FR1	0	R1178P
558.506	0.016	569006	START	n/a	n/a	n/a	-999	2	[-999, -999, -999]	n/a	FR1	0	R1178P
558.522	5.168	569022	PROB	5.168	n/a	n/a	-999	2	[9, 1, 1]	11	FR1	0	R1178P
563.69	9.018	574190	PROB	9.018	n/a	n/a	-999	2	[2, 9, 9]	20	FR1	0	R1178P
572.708	10.738	583208	PROB	10.738	n/a	n/a	-999	2	[2, 9, 4]	15	FR1	0	R1178P
583.446	0.016	593945	STOP	n/a	n/a	n/a	-999	2	[-999, -999, -999]	n/a	FR1	0	R1178P
583.462	0.532	593961	DISTRACT_END	n/a	n/a	n/a	-999	2	[0, 0, 0]	n/a	FR1	0	R1178P
583.994	0.518	594493	RETRIEVAL_ORIENT	n/a	n/a	n/a	-999	2	[0, 0, 0]	n/a	FR1	0	R1178P
584.512	6.569	595011	REC_START	n/a	n/a	n/a	-999	2	[0, 0, 0]	n/a	FR1	0	R1178P
591.081	1.446	601580	REC_WORD_VV	1.446	n/a	<>	-999	2	[0, 0, 0]	n/a	FR1	0	R1178P
592.527	1.0	603026	REC_WORD_VV	1.0	n/a	<>	-999	2	[0, 0, 0]	n/a	FR1	0	R1178P
593.527	1.0	604026	REC_WORD_VV	1.0	n/a	<>	-999	2	[0, 0, 0]	n/a	FR1	0	R1178P
594.527	1.0	605026	REC_WORD_VV	1.0	n/a	<>	-999	2	[0, 0, 0]	n/a	FR1	0	R1178P
595.527	0.632	606026	REC_WORD_VV	0.632	n/a	<>	-999	2	[0, 0, 0]	n/a	FR1	0	R1178P
596.159	0.914	606658	REC_WORD	0.914	n/a	CHIN	-999	2	[0, 0, 0]	n/a	FR1	0	R1178P
597.073	2.052	607572	REC_WORD	2.052	n/a	MOUTH	11	2	[0, 0, 0]	n/a	FR1	0	R1178P
599.125	0.22	609623	REC_WORD_VV	0.22	n/a	<>	-999	2	[0, 0, 0]	n/a	FR1	0	R1178P
599.345	1.75	609843	REC_WORD	1.75	n/a	FOOT	8	2	[0, 0, 0]	n/a	FR1	0	R1178P
601.095	0.98	611593	REC_WORD_VV	0.98	n/a	<>	-999	2	[0, 0, 0]	n/a	FR1	0	R1178P
602.075	2.237	612573	REC_WORD_VV	2.237	n/a	<>	-999	2	[0, 0, 0]	n/a	FR1	0	R1178P
604.312	2.01	614810	REC_WORD_VV	2.01	n/a	<>	-999	2	[0, 0, 0]	n/a	FR1	0	R1178P
606.322	3.444	616820	REC_WORD_VV	3.444	n/a	<>	-999	2	[0, 0, 0]	n/a	FR1	0	R1178P
609.766	1.0	620264	REC_WORD_VV	1.0	n/a	<>	-999	2	[0, 0, 0]	n/a	FR1	0	R1178P
610.766	1.21	621264	REC_WORD_VV	1.21	n/a	<>	-999	2	[0, 0, 0]	n/a	FR1	0	R1178P
611.976	1.566	622474	REC_WORD	1.566	n/a	CHIN	-999	2	[0, 0, 0]	n/a	FR1	0	R1178P
613.542	0.981	624040	REC_WORD	0.981	n/a	FOOT	8	2	[0, 0, 0]	n/a	FR1	0	R1178P
614.523	14.263	625021	REC_END	n/a	n/a	n/a	-999	2	[0, 0, 0]	n/a	FR1	0	R1178P
628.786	0.5	639283	TRIAL	n/a	n/a	n/a	-999	3	[0, 0, 0]	n/a	FR1	0	R1178P
629.286	10.428	639783	COUNTDOWN_START	n/a	n/a	n/a	-999	3	[0, 0, 0]	n/a	FR1	0	R1178P
639.714	0.007	650210	COUNTDOWN_END	n/a	n/a	n/a	-999	3	[0, 0, 0]	n/a	FR1	0	R1178P
639.721	1.601	650217	ORIENT	n/a	n/a	n/a	-999	3	[0, 0, 0]	n/a	FR1	0	R1178P
641.322	2.183	651818	ORIENT_OFF	n/a	n/a	n/a	-999	3	[0, 0, 0]	n/a	FR1	0	R1178P
643.505	1.617	654001	WORD	n/a	wordpools/wordpool_EN.txt	FUDGE	1	3	[0, 0, 0]	n/a	FR1	0	R1178P
645.122	0.95	655618	WORD_OFF	n/a	n/a	FUDGE	1	3	[0, 0, 0]	n/a	FR1	0	R1178P
646.072	1.617	656568	WORD	n/a	wordpools/wordpool_EN.txt	DOCK	2	3	[0, 0, 0]	n/a	FR1	0	R1178P
647.689	0.785	658185	WORD_OFF	n/a	n/a	DOCK	2	3	[0, 0, 0]	n/a	FR1	0	R1178P
648.474	1.616	658970	WORD	n/a	wordpools/wordpool_EN.txt	TOAST	3	3	[0, 0, 0]	n/a	FR1	0	R1178P
650.09	0.9	660586	WORD_OFF	n/a	n/a	TOAST	3	3	[0, 0, 0]	n/a	FR1	0	R1178P
650.99	1.617	661486	WORD	n/a	wordpools/wordpool_EN.txt	MOLE	4	3	[0, 0, 0]	n/a	FR1	0	R1178P
652.607	0.801	663103	WORD_OFF	n/a	n/a	MOLE	4	3	[0, 0, 0]	n/a	FR1	0	R1178P
653.408	1.616	663904	WORD	n/a	wordpools/wordpool_EN.txt	LAMB	5	3	[0, 0, 0]	n/a	FR1	0	R1178P
655.024	0.983	665520	WORD_OFF	n/a	n/a	LAMB	5	3	[0, 0, 0]	n/a	FR1	0	R1178P
656.007	1.617	666503	WORD	n/a	wordpools/wordpool_EN.txt	THUMB	6	3	[0, 0, 0]	n/a	FR1	0	R1178P
657.624	0.967	668119	WORD_OFF	n/a	n/a	THUMB	6	3	[0, 0, 0]	n/a	FR1	0	R1178P
658.591	1.618	669086	WORD	n/a	wordpools/wordpool_EN.txt	CAVE	7	3	[0, 0, 0]	n/a	FR1	0	R1178P
660.209	0.933	670704	WORD_OFF	n/a	n/a	CAVE	7	3	[0, 0, 0]	n/a	FR1	0	R1178P
661.142	1.617	671637	WORD	n/a	wordpools/wordpool_EN.txt	TAIL	8	3	[0, 0, 0]	n/a	FR1	0	R1178P
662.759	0.983	673254	WORD_OFF	n/a	n/a	TAIL	8	3	[0, 0, 0]	n/a	FR1	0	R1178P
663.742	1.618	674237	WORD	n/a	wordpools/wordpool_EN.txt	SINK	9	3	[0, 0, 0]	n/a	FR1	0	R1178P
665.36	0.967	675855	WORD_OFF	n/a	n/a	SINK	9	3	[0, 0, 0]	n/a	FR1	0	R1178P
666.327	1.616	676822	WORD	n/a	wordpools/wordpool_EN.txt	SKUNK	10	3	[0, 0, 0]	n/a	FR1	0	R1178P
667.943	0.784	678438	WORD_OFF	n/a	n/a	SKUNK	10	3	[0, 0, 0]	n/a	FR1	0	R1178P
668.727	1.617	679222	WORD	n/a	wordpools/wordpool_EN.txt	BIRD	11	3	[0, 0, 0]	n/a	FR1	0	R1178P
670.344	0.884	680839	WORD_OFF	n/a	n/a	BIRD	11	3	[0, 0, 0]	n/a	FR1	0	R1178P
671.228	1.616	681723	WORD	n/a	wordpools/wordpool_EN.txt	CLOWN	12	3	[0, 0, 0]	n/a	FR1	0	R1178P
672.844	0.0	683339	WORD_OFF	n/a	n/a	CLOWN	12	3	[0, 0, 0]	n/a	FR1	0	R1178P
672.844	0.001	683339	DISTRACT_START	n/a	n/a	n/a	-999	3	[0, 0, 0]	n/a	FR1	0	R1178P
672.845	0.016	683340	START	n/a	n/a	n/a	-999	3	[-999, -999, -999]	n/a	FR1	0	R1178P
672.861	10.302	683356	PROB	10.302	n/a	n/a	-999	3	[7, 2, 2]	11	FR1	0	R1178P
683.163	16.018	693657	PROB	16.018	n/a	n/a	-999	3	[8, 7, 4]	19	FR1	0	R1178P
699.181	0.019	709674	STOP	n/a	n/a	n/a	-999	3	[-999, -999, -999]	n/a	FR1	0	R1178P
699.2	0.616	709693	DISTRACT_END	n/a	n/a	n/a	-999	3	[0, 0, 0]	n/a	FR1	0	R1178P
699.816	0.518	710309	RETRIEVAL_ORIENT	n/a	n/a	n/a	-999	3	[0, 0, 0]	n/a	FR1	0	R1178P
700.334	3.283	710827	REC_START	n/a	n/a	n/a	-999	3	[0, 0, 0]	n/a	FR1	0	R1178P
703.617	1.0	714110	REC_WORD_VV	1.0	n/a	<>	-999	3	[0, 0, 0]	n/a	FR1	0	R1178P
704.617	0.535	715110	REC_WORD_VV	0.535	n/a	<>	-999	3	[0, 0, 0]	n/a	FR1	0	R1178P
705.152	0.842	715645	REC_WORD	0.842	n/a	FUDGE	1	3	[0, 0, 0]	n/a	FR1	0	R1178P
705.994	1.295	716487	REC_WORD	1.295	n/a	DUCK	-999	3	[0, 0, 0]	n/a	FR1	0	R1178P
707.289	1.145	717782	REC_WORD_VV	1.145	n/a	<>	-999	3	[0, 0, 0]	n/a	FR1	0	R1178P
708.434	0.93	718927	REC_WORD_VV	0.93	n/a	<>	-999	3	[0, 0, 0]	n/a	FR1	0	R1178P
709.364	2.135	719857	REC_WORD_VV	2.135	n/a	<>	-999	3	[0, 0, 0]	n/a	FR1	0	R1178P
711.499	1.0	721992	REC_WORD_VV	1.0	n/a	<>	-999	3	[0, 0, 0]	n/a	FR1	0	R1178P
712.499	4.213	722992	REC_WORD_VV	4.213	n/a	<>	-999	3	[0, 0, 0]	n/a	FR1	0	R1178P
716.712	6.714	727204	REC_WORD_VV	6.714	n/a	<>	-999	3	[0, 0, 0]	n/a	FR1	0	R1178P
723.426	6.92	733918	REC_WORD_VV	6.92	n/a	<>	-999	3	[0, 0, 0]	n/a	FR1	0	R1178P
730.346	42.75	740838	REC_END	n/a	n/a	n/a	-999	3	[0, 0, 0]	n/a	FR1	0	R1178P
773.096	0.5	783586	TRIAL	n/a	n/a	n/a	-999	4	[0, 0, 0]	n/a	FR1	0	R1178P
773.596	10.428	784086	COUNTDOWN_START	n/a	n/a	n/a	-999	4	[0, 0, 0]	n/a	FR1	0	R1178P
784.024	0.008	794513	COUNTDOWN_END	n/a	n/a	n/a	-999	4	[0, 0, 0]	n/a	FR1	0	R1178P
784.032	1.617	794521	ORIENT	n/a	n/a	n/a	-999	4	[0, 0, 0]	n/a	FR1	0	R1178P
785.649	1.983	796138	ORIENT_OFF	n/a	n/a	n/a	-999	4	[0, 0, 0]	n/a	FR1	0	R1178P
787.632	1.602	798121	WORD	n/a	wordpools/wordpool_EN.txt	SMOKE	1	4	[0, 0, 0]	n/a	FR1	0	R1178P
789.234	0.765	799723	WORD_OFF	n/a	n/a	SMOKE	1	4	[0, 0, 0]	n/a	FR1	0	R1178P
789.999	1.617	800488	WORD	n/a	wordpools/wordpool_EN.txt	WORM	2	4	[0, 0, 0]	n/a	FR1	0	R1178P
791.616	0.818	802105	WORD_OFF	n/a	n/a	WORM	2	4	[0, 0, 0]	n/a	FR1	0	R1178P
792.434	1.616	802923	WORD	n/a	wordpools/wordpool_EN.txt	STAR	3	4	[0, 0, 0]	n/a	FR1	0	R1178P
794.05	0.9	804539	WORD_OFF	n/a	n/a	STAR	3	4	[0, 0, 0]	n/a	FR1	0	R1178P
794.95	1.617	805439	WORD	n/a	wordpools/wordpool_EN.txt	HAT	4	4	[0, 0, 0]	n/a	FR1	0	R1178P
796.567	0.95	807055	WORD_OFF	n/a	n/a	HAT	4	4	[0, 0, 0]	n/a	FR1	0	R1178P
797.517	1.617	808005	WORD	n/a	wordpools/wordpool_EN.txt	SEAL	5	4	[0, 0, 0]	n/a	FR1	0	R1178P
799.134	0.951	809622	WORD_OFF	n/a	n/a	SEAL	5	4	[0, 0, 0]	n/a	FR1	0	R1178P
800.085	1.617	810573	WORD	n/a	wordpools/wordpool_EN.txt	SALT	6	4	[0, 0, 0]	n/a	FR1	0	R1178P
801.702	0.767	812190	WORD_OFF	n/a	n/a	SALT	6	4	[0, 0, 0]	n/a	FR1	0	R1178P
802.469	1.616	812957	WORD	n/a	wordpools/wordpool_EN.txt	WING	7	4	[0, 0, 0]	n/a	FR1	0	R1178P
804.085	0.8	814573	WORD_OFF	n/a	n/a	WING	7	4	[0, 0, 0]	n/a	FR1	0	R1178P
804.885	1.617	815373	WORD	n/a	wordpools/wordpool_EN.txt	ANT	8	4	[0, 0, 0]	n/a	FR1	0	R1178P
806.502	1.017	816990	WORD_OFF	n/a	n/a	ANT	8	4	[0, 0, 0]	n/a	FR1	0	R1178P
807.519	1.617	818007	WORD	n/a	wordpools/wordpool_EN.txt	CORN	9	4	[0, 0, 0]	n/a	FR1	0	R1178P
809.136	0.8	819624	WORD_OFF	n/a	n/a	CORN	9	4	[0, 0, 0]	n/a	FR1	0	R1178P
809.936	1.617	820424	WORD	n/a	wordpools/wordpool_EN.txt	DART	10	4	[0, 0, 0]	n/a	FR1	0	R1178P
811.553	0.868	822041	WORD_OFF	n/a	n/a	DART	10	4	[0, 0, 0]	n/a	FR1	0	R1178P
812.421	1.616	822909	WORD	n/a	wordpools/wordpool_EN.txt	GLOVE	11	4	[0, 0, 0]	n/a	FR1	0	R1178P
814.037	0.8	824525	WORD_OFF	n/a	n/a	GLOVE	11	4	[0, 0, 0]	n/a	FR1	0	R1178P
814.837	1.618	825324	WORD	n/a	wordpools/wordpool_EN.txt	CASH	12	4	[0, 0, 0]	n/a	FR1	0	R1178P
816.455	0.0	826942	WORD_OFF	n/a	n/a	CASH	12	4	[0, 0, 0]	n/a	FR1	0	R1178P
816.455	0.001	826942	DISTRACT_START	n/a	n/a	n/a	-999	4	[0, 0, 0]	n/a	FR1	0	R1178P
816.456	0.016	826943	START	n/a	n/a	n/a	-999	4	[-999, -999, -999]	n/a	FR1	0	R1178P
816.472	9.785	826959	PROB	9.785	n/a	n/a	-999	4	[9, 8, 3]	20	FR1	0	R1178P
826.257	6.434	836744	PROB	6.434	n/a	n/a	-999	4	[1, 4, 4]	9	FR1	0	R1178P
832.691	4.098	843178	PROB	4.098	n/a	n/a	-999	4	[2, 9, 1]	12	FR1	0	R1178P
836.789	0.019	847275	STOP	n/a	n/a	n/a	-999	4	[-999, -999, -999]	n/a	FR1	0	R1178P
836.808	0.7	847294	DISTRACT_END	n/a	n/a	n/a	-999	4	[0, 0, 0]	n/a	FR1	0	R1178P
837.508	0.518	847994	RETRIEVAL_ORIENT	n/a	n/a	n/a	-999	4	[0, 0, 0]	n/a	FR1	0	R1178P
838.026	1.266	848512	REC_START	n/a	n/a	n/a	-999	4	[0, 0, 0]	n/a	FR1	0	R1178P
839.292	0.33	849778	REC_WORD_VV	0.33	n/a	<>	-999	4	[0, 0, 0]	n/a	FR1	0	R1178P
839.622	2.816	850108	REC_WORD	2.816	n/a	SMOKE	1	4	[0, 0, 0]	n/a	FR1	0	R1178P
842.438	2.243	852924	REC_WORD_VV	2.243	n/a	<>	-999	4	[0, 0, 0]	n/a	FR1	0	R1178P
844.681	1.0	855167	REC_WORD_VV	1.0	n/a	<>	-999	4	[0, 0, 0]	n/a	FR1	0	R1178P
845.681	6.777	856167	REC_WORD_VV	6.777	n/a	<>	-999	4	[0, 0, 0]	n/a	FR1	0	R1178P
852.458	1.0	862944	REC_WORD_VV	1.0	n/a	<>	-999	4	[0, 0, 0]	n/a	FR1	0	R1178P
853.458	0.652	863944	REC_WORD_VV	0.652	n/a	<>	-999	4	[0, 0, 0]	n/a	FR1	0	R1178P
854.11	3.513	864596	REC_WORD_VV	3.513	n/a	<>	-999	4	[0, 0, 0]	n/a	FR1	0	R1178P
857.623	1.0	868108	REC_WORD_VV	1.0	n/a	<>	-999	4	[0, 0, 0]	n/a	FR1	0	R1178P
858.623	3.492	869108	REC_WORD_VV	3.492	n/a	<>	-999	4	[0, 0, 0]	n/a	FR1	0	R1178P
862.115	1.0	872600	REC_WORD_VV	1.0	n/a	<>	-999	4	[0, 0, 0]	n/a	FR1	0	R1178P
863.115	4.923	873600	REC_WORD_VV	4.923	n/a	<>	-999	4	[0, 0, 0]	n/a	FR1	0	R1178P
868.038	10.246	878523	REC_END	n/a	n/a	n/a	-999	4	[0, 0, 0]	n/a	FR1	0	R1178P
878.284	0.5	888768	TRIAL	n/a	n/a	n/a	-999	5	[0, 0, 0]	n/a	FR1	0	R1178P
878.784	10.428	889268	COUNTDOWN_START	n/a	n/a	n/a	-999	5	[0, 0, 0]	n/a	FR1	0	R1178P
889.212	0.007	899696	COUNTDOWN_END	n/a	n/a	n/a	-999	5	[0, 0, 0]	n/a	FR1	0	R1178P
889.219	1.616	899703	ORIENT	n/a	n/a	n/a	-999	5	[0, 0, 0]	n/a	FR1	0	R1178P
890.835	2.234	901319	ORIENT_OFF	n/a	n/a	n/a	-999	5	[0, 0, 0]	n/a	FR1	0	R1178P
893.069	1.617	903553	WORD	n/a	wordpools/wordpool_EN.txt	CROWN	1	5	[0, 0, 0]	n/a	FR1	0	R1178P
894.686	0.967	905169	WORD_OFF	n/a	n/a	CROWN	1	5	[0, 0, 0]	n/a	FR1	0	R1178P
895.653	1.618	906136	WORD	n/a	wordpools/wordpool_EN.txt	HAND	2	5	[0, 0, 0]	n/a	FR1	0	R1178P
897.271	0.9	907754	WORD_OFF	n/a	n/a	HAND	2	5	[0, 0, 0]	n/a	FR1	0	R1178P
898.171	1.616	908654	WORD	n/a	wordpools/wordpool_EN.txt	CLAY	3	5	[0, 0, 0]	n/a	FR1	0	R1178P
899.787	0.866	910270	WORD_OFF	n/a	n/a	CLAY	3	5	[0, 0, 0]	n/a	FR1	0	R1178P
900.653	1.618	911136	WORD	n/a	wordpools/wordpool_EN.txt	CART	4	5	[0, 0, 0]	n/a	FR1	0	R1178P
902.271	0.901	912754	WORD_OFF	n/a	n/a	CART	4	5	[0, 0, 0]	n/a	FR1	0	R1178P
903.172	1.616	913655	WORD	n/a	wordpools/wordpool_EN.txt	CALF	5	5	[0, 0, 0]	n/a	FR1	0	R1178P
904.788	0.766	915271	WORD_OFF	n/a	n/a	CALF	5	5	[0, 0, 0]	n/a	FR1	0	R1178P
905.554	1.618	916037	WORD	n/a	wordpools/wordpool_EN.txt	PEA	6	5	[0, 0, 0]	n/a	FR1	0	R1178P
907.172	0.966	917655	WORD_OFF	n/a	n/a	PEA	6	5	[0, 0, 0]	n/a	FR1	0	R1178P
908.138	1.617	918621	WORD	n/a	wordpools/wordpool_EN.txt	STEAK	7	5	[0, 0, 0]	n/a	FR1	0	R1178P
909.755	0.984	920238	WORD_OFF	n/a	n/a	STEAK	7	5	[0, 0, 0]	n/a	FR1	0	R1178P
910.739	1.618	921222	WORD	n/a	wordpools/wordpool_EN.txt	STOOL	8	5	[0, 0, 0]	n/a	FR1	0	R1178P
912.357	0.95	922840	WORD_OFF	n/a	n/a	STOOL	8	5	[0, 0, 0]	n/a	FR1	0	R1178P
913.307	1.616	923790	WORD	n/a	wordpools/wordpool_EN.txt	TIE	9	5	[0, 0, 0]	n/a	FR1	0	R1178P
914.923	0.9	925405	WORD_OFF	n/a	n/a	TIE	9	5	[0, 0, 0]	n/a	FR1	0	R1178P
915.823	1.601	926305	WORD	n/a	wordpools/wordpool_EN.txt	GRASS	10	5	[0, 0, 0]	n/a	FR1	0	R1178P
917.424	0.951	927906	WORD_OFF	n/a	n/a	GRASS	10	5	[0, 0, 0]	n/a	FR1	0	R1178P
918.375	1.615	928857	WORD	n/a	wordpools/wordpool_EN.txt	DIME	11	5	[0, 0, 0]	n/a	FR1	0	R1178P
919.99	0.934	930472	WORD_OFF	n/a	n/a	DIME	11	5	[0, 0, 0]	n/a	FR1	0	R1178P
920.924	1.617	931406	WORD	n/a	wordpools/wordpool_EN.txt	BOOT	12	5	[0, 0, 0]	n/a	FR1	0	R1178P
922.541	0.0	933023	WORD_OFF	n/a	n/a	BOOT	12	5	[0, 0, 0]	n/a	FR1	0	R1178P
922.541	0.001	933023	DISTRACT_START	n/a	n/a	n/a	-999	5	[0, 0, 0]	n/a	FR1	0	R1178P
922.542	0.016	933024	START	n/a	n/a	n/a	-999	5	[-999, -999, -999]	n/a	FR1	0	R1178P
922.558	6.267	933040	PROB	6.267	n/a	n/a	-999	5	[8, 4, 5]	17	FR1	0	R1178P
928.825	15.125	939307	PROB	15.125	n/a	n/a	-999	5	[7, 9, 8]	25	FR1	0	R1178P
943.95	0.012	954431	STOP	n/a	n/a	n/a	-999	5	[-999, -999, -999]	n/a	FR1	0	R1178P
943.962	0.633	954443	DISTRACT_END	n/a	n/a	n/a	-999	5	[0, 0, 0]	n/a	FR1	0	R1178P
944.595	0.518	955076	RETRIEVAL_ORIENT	n/a	n/a	n/a	-999	5	[0, 0, 0]	n/a	FR1	0	R1178P
945.113	1.624	955594	REC_START	n/a	n/a	n/a	-999	5	[0, 0, 0]	n/a	FR1	0	R1178P
946.737	0.746	957218	REC_WORD_VV	0.746	n/a	<>	-999	5	[0, 0, 0]	n/a	FR1	0	R1178P
947.483	3.617	957964	REC_WORD	3.617	n/a	GRASS	10	5	[0, 0, 0]	n/a	FR1	0	R1178P
951.1	1.0	961581	REC_WORD_VV	1.0	n/a	<>	-999	5	[0, 0, 0]	n/a	FR1	0	R1178P
952.1	2.71	962581	REC_WORD_VV	2.71	n/a	<>	-999	5	[0, 0, 0]	n/a	FR1	0	R1178P
954.81	2.643	965290	REC_WORD_VV	2.643	n/a	<>	-999	5	[0, 0, 0]	n/a	FR1	0	R1178P
957.453	3.334	967933	REC_WORD	3.334	n/a	SMOKE	-999	5	[0, 0, 0]	n/a	FR1	0	R1178P
960.787	12.046	971267	REC_WORD_VV	12.046	n/a	<>	-999	5	[0, 0, 0]	n/a	FR1	0	R1178P
972.833	1.01	983313	REC_WORD_VV	1.01	n/a	<>	-999	5	[0, 0, 0]	n/a	FR1	0	R1178P
973.843	1.0	984322	REC_WORD_VV	1.0	n/a	<>	-999	5	[0, 0, 0]	n/a	FR1	0	R1178P
974.843	0.282	985322	REC_WORD_VV	0.282	n/a	<>	-999	5	[0, 0, 0]	n/a	FR1	0	R1178P
975.125	27.881	985604	REC_END	n/a	n/a	n/a	-999	5	[0, 0, 0]	n/a	FR1	0	R1178P
1003.006	0.5	1013484	TRIAL	n/a	n/a	n/a	-999	6	[0, 0, 0]	n/a	FR1	0	R1178P
1003.506	10.428	1013984	COUNTDOWN_START	n/a	n/a	n/a	-999	6	[0, 0, 0]	n/a	FR1	0	R1178P
1013.934	0.008	1024411	COUNTDOWN_END	n/a	n/a	n/a	-999	6	[0, 0, 0]	n/a	FR1	0	R1178P
1013.942	1.616	1024419	ORIENT	n/a	n/a	n/a	-999	6	[0, 0, 0]	n/a	FR1	0	R1178P
1015.558	1.868	1026035	ORIENT_OFF	n/a	n/a	n/a	-999	6	[0, 0, 0]	n/a	FR1	0	R1178P
1017.426	1.617	1027903	WORD	n/a	wordpools/wordpool_EN.txt	TRAIN	1	6	[0, 0, 0]	n/a	FR1	0	R1178P
1019.043	0.883	1029520	WORD_OFF	n/a	n/a	TRAIN	1	6	[0, 0, 0]	n/a	FR1	0	R1178P
1019.926	1.617	1030403	WORD	n/a	wordpools/wordpool_EN.txt	COIN	2	6	[0, 0, 0]	n/a	FR1	0	R1178P
1021.543	0.851	1032020	WORD_OFF	n/a	n/a	COIN	2	6	[0, 0, 0]	n/a	FR1	0	R1178P
1022.394	1.616	1032871	WORD	n/a	wordpools/wordpool_EN.txt	LAKE	3	6	[0, 0, 0]	n/a	FR1	0	R1178P
1024.01	0.834	1034487	WORD_OFF	n/a	n/a	LAKE	3	6	[0, 0, 0]	n/a	FR1	0	R1178P
1024.844	1.618	1035321	WORD	n/a	wordpools/wordpool_EN.txt	SPEAR	4	6	[0, 0, 0]	n/a	FR1	0	R1178P
1026.462	0.983	1036939	WORD_OFF	n/a	n/a	SPEAR	4	6	[0, 0, 0]	n/a	FR1	0	R1178P
1027.445	1.616	1037922	WORD	n/a	wordpools/wordpool_EN.txt	CHIEF	5	6	[0, 0, 0]	n/a	FR1	0	R1178P
1029.061	0.934	1039538	WORD_OFF	n/a	n/a	CHIEF	5	6	[0, 0, 0]	n/a	FR1	0	R1178P
1029.995	1.617	1040472	WORD	n/a	wordpools/wordpool_EN.txt	POOL	6	6	[0, 0, 0]	n/a	FR1	0	R1178P
1031.612	0.866	1042089	WORD_OFF	n/a	n/a	POOL	6	6	[0, 0, 0]	n/a	FR1	0	R1178P
1032.478	1.617	1042954	WORD	n/a	wordpools/wordpool_EN.txt	SHARK	7	6	[0, 0, 0]	n/a	FR1	0	R1178P
1034.095	1.001	1044571	WORD_OFF	n/a	n/a	SHARK	7	6	[0, 0, 0]	n/a	FR1	0	R1178P
1035.096	1.616	1045572	WORD	n/a	wordpools/wordpool_EN.txt	JEEP	8	6	[0, 0, 0]	n/a	FR1	0	R1178P
1036.712	0.834	1047188	WORD_OFF	n/a	n/a	JEEP	8	6	[0, 0, 0]	n/a	FR1	0	R1178P
1037.546	1.617	1048022	WORD	n/a	wordpools/wordpool_EN.txt	SEAT	9	6	[0, 0, 0]	n/a	FR1	0	R1178P
1039.163	0.867	1049639	WORD_OFF	n/a	n/a	SEAT	9	6	[0, 0, 0]	n/a	FR1	0	R1178P
1040.03	1.617	1050506	WORD	n/a	wordpools/wordpool_EN.txt	SPONGE	10	6	[0, 0, 0]	n/a	FR1	0	R1178P
1041.647	0.917	1052123	WORD_OFF	n/a	n/a	SPONGE	10	6	[0, 0, 0]	n/a	FR1	0	R1178P
1042.564	1.618	1053040	WORD	n/a	wordpools/wordpool_EN.txt	FISH	11	6	[0, 0, 0]	n/a	FR1	0	R1178P
1044.182	0.932	1054658	WORD_OFF	n/a	n/a	FISH	11	6	[0, 0, 0]	n/a	FR1	0	R1178P
1045.114	1.617	1055590	WORD	n/a	wordpools/wordpool_EN.txt	CAR	12	6	[0, 0, 0]	n/a	FR1	0	R1178P
1046.731	0.0	1057207	WORD_OFF	n/a	n/a	CAR	12	6	[0, 0, 0]	n/a	FR1	0	R1178P
1046.731	0.001	1057207	DISTRACT_START	n/a	n/a	n/a	-999	6	[0, 0, 0]	n/a	FR1	0	R1178P
1046.732	0.016	1057208	START	n/a	n/a	n/a	-999	6	[-999, -999, -999]	n/a	FR1	0	R1178P
1046.748	13.019	1057224	PROB	13.019	n/a	n/a	-999	6	[3, 7, 9]	19	FR1	0	R1178P
1059.767	5.217	1070242	PROB	5.217	n/a	n/a	-999	6	[3, 1, 3]	7	FR1	0	R1178P
1064.984	7.437	1075459	PROB	7.437	n/a	n/a	-999	6	[8, 3, 8]	19	FR1	0	R1178P
1072.421	0.016	1082895	STOP	n/a	n/a	n/a	-999	6	[-999, -999, -999]	n/a	FR1	0	R1178P
1072.437	0.649	1082911	DISTRACT_END	n/a	n/a	n/a	-999	6	[0, 0, 0]	n/a	FR1	0	R1178P
1073.086	0.517	1083560	RETRIEVAL_ORIENT	n/a	n/a	n/a	-999	6	[0, 0, 0]	n/a	FR1	0	R1178P
1073.603	2.591	1084077	REC_START	n/a	n/a	n/a	-999	6	[0, 0, 0]	n/a	FR1	0	R1178P
1076.194	6.407	1086668	REC_WORD_VV	6.407	n/a	<>	-999	6	[0, 0, 0]	n/a	FR1	0	R1178P
1082.601	1.97	1093075	REC_WORD_VV	1.97	n/a	<>	-999	6	[0, 0, 0]	n/a	FR1	0	R1178P
1084.571	1.0	1095045	REC_WORD_VV	1.0	n/a	<>	-999	6	[0, 0, 0]	n/a	FR1	0	R1178P
1085.571	1.731	1096045	REC_WORD_VV	1.731	n/a	<>	-999	6	[0, 0, 0]	n/a	FR1	0	R1178P
1087.302	1.0	1097776	REC_WORD_VV	1.0	n/a	<>	-999	6	[0, 0, 0]	n/a	FR1	0	R1178P
1088.302	1.0	1098776	REC_WORD_VV	1.0	n/a	<>	-999	6	[0, 0, 0]	n/a	FR1	0	R1178P
1089.302	6.197	1099776	REC_WORD_VV	6.197	n/a	<>	-999	6	[0, 0, 0]	n/a	FR1	0	R1178P
1095.499	1.0	1105972	REC_WORD_VV	1.0	n/a	<>	-999	6	[0, 0, 0]	n/a	FR1	0	R1178P
1096.499	1.0	1106972	REC_WORD_VV	1.0	n/a	<>	-999	6	[0, 0, 0]	n/a	FR1	0	R1178P
1097.499	1.0	1107972	REC_WORD_VV	1.0	n/a	<>	-999	6	[0, 0, 0]	n/a	FR1	0	R1178P
1098.499	1.0	1108972	REC_WORD_VV	1.0	n/a	<>	-999	6	[0, 0, 0]	n/a	FR1	0	R1178P
1099.499	1.0	1109972	REC_WORD_VV	1.0	n/a	<>	-999	6	[0, 0, 0]	n/a	FR1	0	R1178P
1100.499	3.118	1110972	REC_WORD_VV	3.118	n/a	<>	-999	6	[0, 0, 0]	n/a	FR1	0	R1178P
1103.617	68.504	1114090	REC_END	n/a	n/a	n/a	-999	6	[0, 0, 0]	n/a	FR1	0	R1178P
1172.121	0.5	1182590	TRIAL	n/a	n/a	n/a	-999	7	[0, 0, 0]	n/a	FR1	0	R1178P
1172.621	10.428	1183090	COUNTDOWN_START	n/a	n/a	n/a	-999	7	[0, 0, 0]	n/a	FR1	0	R1178P
1183.049	0.008	1193518	COUNTDOWN_END	n/a	n/a	n/a	-999	7	[0, 0, 0]	n/a	FR1	0	R1178P
1183.057	1.617	1193526	ORIENT	n/a	n/a	n/a	-999	7	[0, 0, 0]	n/a	FR1	0	R1178P
1184.674	2.283	1195143	ORIENT_OFF	n/a	n/a	n/a	-999	7	[0, 0, 0]	n/a	FR1	0	R1178P
1186.957	1.617	1197426	WORD	n/a	wordpools/wordpool_EN.txt	CANE	1	7	[0, 0, 0]	n/a	FR1	0	R1178P
1188.574	0.785	1199043	WORD_OFF	n/a	n/a	CANE	1	7	[0, 0, 0]	n/a	FR1	0	R1178P
1189.359	1.616	1199828	WORD	n/a	wordpools/wordpool_EN.txt	PALM	2	7	[0, 0, 0]	n/a	FR1	0	R1178P
1190.975	0.917	1201443	WORD_OFF	n/a	n/a	PALM	2	7	[0, 0, 0]	n/a	FR1	0	R1178P
1191.892	1.617	1202360	WORD	n/a	wordpools/wordpool_EN.txt	SHIRT	3	7	[0, 0, 0]	n/a	FR1	0	R1178P
1193.509	0.784	1203977	WORD_OFF	n/a	n/a	SHIRT	3	7	[0, 0, 0]	n/a	FR1	0	R1178P
1194.293	1.616	1204761	WORD	n/a	wordpools/wordpool_EN.txt	CROW	4	7	[0, 0, 0]	n/a	FR1	0	R1178P
1195.909	0.884	1206377	WORD_OFF	n/a	n/a	CROW	4	7	[0, 0, 0]	n/a	FR1	0	R1178P
1196.793	1.618	1207261	WORD	n/a	wordpools/wordpool_EN.txt	ROOF	5	7	[0, 0, 0]	n/a	FR1	0	R1178P
1198.411	0.9	1208879	WORD_OFF	n/a	n/a	ROOF	5	7	[0, 0, 0]	n/a	FR1	0	R1178P
1199.311	1.616	1209779	WORD	n/a	wordpools/wordpool_EN.txt	BEE	6	7	[0, 0, 0]	n/a	FR1	0	R1178P
1200.927	0.833	1211395	WORD_OFF	n/a	n/a	BEE	6	7	[0, 0, 0]	n/a	FR1	0	R1178P
1201.76	1.618	1212228	WORD	n/a	wordpools/wordpool_EN.txt	SOUP	7	7	[0, 0, 0]	n/a	FR1	0	R1178P
1203.378	0.817	1213846	WORD_OFF	n/a	n/a	SOUP	7	7	[0, 0, 0]	n/a	FR1	0	R1178P
1204.195	1.616	1214663	WORD	n/a	wordpools/wordpool_EN.txt	FROG	8	7	[0, 0, 0]	n/a	FR1	0	R1178P
1205.811	0.85	1216279	WORD_OFF	n/a	n/a	FROG	8	7	[0, 0, 0]	n/a	FR1	0	R1178P
1206.661	1.618	1217129	WORD	n/a	wordpools/wordpool_EN.txt	DUCK	9	7	[0, 0, 0]	n/a	FR1	0	R1178P
1208.279	0.816	1218747	WORD_OFF	n/a	n/a	DUCK	9	7	[0, 0, 0]	n/a	FR1	0	R1178P
1209.095	1.617	1219563	WORD	n/a	wordpools/wordpool_EN.txt	CUP	10	7	[0, 0, 0]	n/a	FR1	0	R1178P
1210.712	0.933	1221179	WORD_OFF	n/a	n/a	CUP	10	7	[0, 0, 0]	n/a	FR1	0	R1178P
1211.645	1.618	1222112	WORD	n/a	wordpools/wordpool_EN.txt	PLANT	11	7	[0, 0, 0]	n/a	FR1	0	R1178P
1213.263	1.017	1223730	WORD_OFF	n/a	n/a	PLANT	11	7	[0, 0, 0]	n/a	FR1	0	R1178P
1214.28	1.616	1224747	WORD	n/a	wordpools/wordpool_EN.txt	BROOM	12	7	[0, 0, 0]	n/a	FR1	0	R1178P
1215.896	0.0	1226363	WORD_OFF	n/a	n/a	BROOM	12	7	[0, 0, 0]	n/a	FR1	0	R1178P
1215.896	0.001	1226363	DISTRACT_START	n/a	n/a	n/a	-999	7	[0, 0, 0]	n/a	FR1	0	R1178P
1215.897	0.016	1226364	START	n/a	n/a	n/a	-999	7	[-999, -999, -999]	n/a	FR1	0	R1178P
1215.913	17.603	1226380	PROB	17.603	n/a	n/a	-999	7	[7, 5, 9]	21	FR1	0	R1178P
1233.516	4.769	1243982	PROB	4.769	n/a	n/a	-999	7	[8, 5, 5]	18	FR1	0	R1178P
1238.285	0.016	1248751	STOP	n/a	n/a	n/a	-999	7	[-999, -999, -999]	n/a	FR1	0	R1178P
1238.301	0.516	1248767	DISTRACT_END	n/a	n/a	n/a	-999	7	[0, 0, 0]	n/a	FR1	0	R1178P
1238.817	0.519	1249283	RETRIEVAL_ORIENT	n/a	n/a	n/a	-999	7	[0, 0, 0]	n/a	FR1	0	R1178P
1239.336	4.828	1249802	REC_START	n/a	n/a	n/a	-999	7	[0, 0, 0]	n/a	FR1	0	R1178P
1244.164	1.0	1254630	REC_WORD_VV	1.0	n/a	<>	-999	7	[0, 0, 0]	n/a	FR1	0	R1178P
1245.164	0.844	1255630	REC_WORD_VV	0.844	n/a	<>	-999	7	[0, 0, 0]	n/a	FR1	0	R1178P
1246.008	12.164	1256474	REC_WORD_VV	12.164	n/a	<>	-999	7	[0, 0, 0]	n/a	FR1	0	R1178P
1258.172	8.995	1268637	REC_WORD_VV	8.995	n/a	<>	-999	7	[0, 0, 0]	n/a	FR1	0	R1178P
1267.167	1.0	1277632	REC_WORD_VV	1.0	n/a	<>	-999	7	[0, 0, 0]	n/a	FR1	0	R1178P
1268.167	1.179	1278632	REC_WORD_VV	1.179	n/a	<>	-999	7	[0, 0, 0]	n/a	FR1	0	R1178P
1269.346	10.162	1279811	REC_END	n/a	n/a	n/a	-999	7	[0, 0, 0]	n/a	FR1	0	R1178P
1279.508	0.5	1289972	TRIAL	n/a	n/a	n/a	-999	8	[0, 0, 0]	n/a	FR1	0	R1178P
1280.008	10.428	1290472	COUNTDOWN_START	n/a	n/a	n/a	-999	8	[0, 0, 0]	n/a	FR1	0	R1178P
1290.436	0.009	1300899	COUNTDOWN_END	n/a	n/a	n/a	-999	8	[0, 0, 0]	n/a	FR1	0	R1178P
1290.445	1.616	1300908	ORIENT	n/a	n/a	n/a	-999	8	[0, 0, 0]	n/a	FR1	0	R1178P
1292.061	1.983	1302524	ORIENT_OFF	n/a	n/a	n/a	-999	8	[0, 0, 0]	n/a	FR1	0	R1178P
1294.044	1.617	1304507	WORD	n/a	wordpools/wordpool_EN.txt	WAVE	1	8	[0, 0, 0]	n/a	FR1	0	R1178P
1295.661	0.817	1306124	WORD_OFF	n/a	n/a	WAVE	1	8	[0, 0, 0]	n/a	FR1	0	R1178P
1296.478	1.617	1306941	WORD	n/a	wordpools/wordpool_EN.txt	SHELL	2	8	[0, 0, 0]	n/a	FR1	0	R1178P
1298.095	0.95	1308558	WORD_OFF	n/a	n/a	SHELL	2	8	[0, 0, 0]	n/a	FR1	0	R1178P
1299.045	1.617	1309508	WORD	n/a	wordpools/wordpool_EN.txt	CONE	3	8	[0, 0, 0]	n/a	FR1	0	R1178P
1300.662	0.85	1311125	WORD_OFF	n/a	n/a	CONE	3	8	[0, 0, 0]	n/a	FR1	0	R1178P
1301.512	1.617	1311975	WORD	n/a	wordpools/wordpool_EN.txt	CAPE	4	8	[0, 0, 0]	n/a	FR1	0	R1178P
1303.129	0.834	1313592	WORD_OFF	n/a	n/a	CAPE	4	8	[0, 0, 0]	n/a	FR1	0	R1178P
1303.963	1.617	1314426	WORD	n/a	wordpools/wordpool_EN.txt	PIG	5	8	[0, 0, 0]	n/a	FR1	0	R1178P
1305.58	0.95	1316043	WORD_OFF	n/a	n/a	PIG	5	8	[0, 0, 0]	n/a	FR1	0	R1178P
1306.53	1.617	1316993	WORD	n/a	wordpools/wordpool_EN.txt	VEST	6	8	[0, 0, 0]	n/a	FR1	0	R1178P
1308.147	0.867	1318610	WORD_OFF	n/a	n/a	VEST	6	8	[0, 0, 0]	n/a	FR1	0	R1178P
1309.014	1.617	1319477	WORD	n/a	wordpools/wordpool_EN.txt	ROOT	7	8	[0, 0, 0]	n/a	FR1	0	R1178P
1310.631	0.983	1321093	WORD_OFF	n/a	n/a	ROOT	7	8	[0, 0, 0]	n/a	FR1	0	R1178P
1311.614	1.618	1322076	WORD	n/a	wordpools/wordpool_EN.txt	BADGE	8	8	[0, 0, 0]	n/a	FR1	0	R1178P
1313.232	1.0	1323694	WORD_OFF	n/a	n/a	BADGE	8	8	[0, 0, 0]	n/a	FR1	0	R1178P
1314.232	1.616	1324694	WORD	n/a	wordpools/wordpool_EN.txt	BOOK	9	8	[0, 0, 0]	n/a	FR1	0	R1178P
1315.848	0.85	1326310	WORD_OFF	n/a	n/a	BOOK	9	8	[0, 0, 0]	n/a	FR1	0	R1178P
1316.698	1.618	1327160	WORD	n/a	wordpools/wordpool_EN.txt	BAT	10	8	[0, 0, 0]	n/a	FR1	0	R1178P
1318.316	0.884	1328778	WORD_OFF	n/a	n/a	BAT	10	8	[0, 0, 0]	n/a	FR1	0	R1178P
1319.2	1.616	1329662	WORD	n/a	wordpools/wordpool_EN.txt	KITE	11	8	[0, 0, 0]	n/a	FR1	0	R1178P
1320.816	0.783	1331278	WORD_OFF	n/a	n/a	KITE	11	8	[0, 0, 0]	n/a	FR1	0	R1178P
1321.599	1.618	1332061	WORD	n/a	wordpools/wordpool_EN.txt	SWORD	12	8	[0, 0, 0]	n/a	FR1	0	R1178P
1323.217	0.0	1333679	WORD_OFF	n/a	n/a	SWORD	12	8	[0, 0, 0]	n/a	FR1	0	R1178P
1323.217	0.001	1333679	DISTRACT_START	n/a	n/a	n/a	-999	8	[0, 0, 0]	n/a	FR1	0	R1178P
1323.218	0.016	1333680	START	n/a	n/a	n/a	-999	8	[-999, -999, -999]	n/a	FR1	0	R1178P
1323.234	16.086	1333696	PROB	16.086	n/a	n/a	-999	8	[5, 6, 7]	18	FR1	0	R1178P
1339.32	7.989	1349781	PROB	7.989	n/a	n/a	-999	8	[6, 8, 5]	19	FR1	0	R1178P
1347.309	0.013	1357770	STOP	n/a	n/a	n/a	-999	8	[-999, -999, -999]	n/a	FR1	0	R1178P
1347.322	0.599	1357783	DISTRACT_END	n/a	n/a	n/a	-999	8	[0, 0, 0]	n/a	FR1	0	R1178P
1347.921	0.519	1358382	RETRIEVAL_ORIENT	n/a	n/a	n/a	-999	8	[0, 0, 0]	n/a	FR1	0	R1178P
1348.44	5.213	1358901	REC_START	n/a	n/a	n/a	-999	8	[0, 0, 0]	n/a	FR1	0	R1178P
1353.653	19.375	1364113	REC_WORD_VV	19.375	n/a	<>	-999	8	[0, 0, 0]	n/a	FR1	0	R1178P
1373.028	2.852	1383487	REC_WORD_VV	2.852	n/a	<>	-999	8	[0, 0, 0]	n/a	FR1	0	R1178P
1375.88	1.0	1386339	REC_WORD_VV	1.0	n/a	<>	-999	8	[0, 0, 0]	n/a	FR1	0	R1178P
1376.88	1.0	1387339	REC_WORD_VV	1.0	n/a	<>	-999	8	[0, 0, 0]	n/a	FR1	0	R1178P
1377.88	0.571	1388339	REC_WORD_VV	0.571	n/a	<>	-999	8	[0, 0, 0]	n/a	FR1	0	R1178P
1378.451	8.795	1388910	REC_END	n/a	n/a	n/a	-999	8	[0, 0, 0]	n/a	FR1	0	R1178P
1387.246	0.0	1397705	TRIAL	n/a	n/a	n/a	-999	9	[0, 0, 0]	n/a	FR1	0	R1178P
