onset	duration	sample	trial_type	response_time	stim_file	item_name	serialpos	list	test	answer	experiment	session	subject
0.0	1.149	3520075	INSTRUCT_START	n/a	n/a	n/a	-999	-999	[0, 0, 0]	n/a	FR1	4	R1347D
1.149	33.032	3521225	INSTRUCT_END	n/a	n/a	n/a	-999	-999	[0, 0, 0]	n/a	FR1	4	R1347D
34.181	1.168	3554254	COUNTDOWN_START	n/a	n/a	n/a	-999	-999	[0, 0, 0]	n/a	FR1	4	R1347D
35.349	0.0	3555426	COUNTDOWN_END	n/a	n/a	n/a	-999	-999	[0, 0, 0]	n/a	FR1	4	R1347D
35.349	1.948	3555426	ENCODING_START	n/a	n/a	n/a	-999	-1	[0, 0, 0]	n/a	FR1	4	R1347D
37.297	1.601	3557376	WORD	n/a	n/a	COTTON	1	-1	[0, 0, 0]	n/a	FR1	4	R1347D
38.898	0.8	3558977	WORD_OFF	n/a	n/a	COTTON	1	-1	[0, 0, 0]	n/a	FR1	4	R1347D
39.698	1.6	3559778	WORD	n/a	n/a	CHEST	2	-1	[0, 0, 0]	n/a	FR1	4	R1347D
41.298	0.834	3561378	WORD_OFF	n/a	n/a	CHEST	2	-1	[0, 0, 0]	n/a	FR1	4	R1347D
42.132	1.6	3562212	WORD	n/a	n/a	IMAGE	3	-1	[0, 0, 0]	n/a	FR1	4	R1347D
43.732	0.983	3563802	WORD_OFF	n/a	n/a	IMAGE	3	-1	[0, 0, 0]	n/a	FR1	4	R1347D
44.715	1.616	3564794	WORD	n/a	n/a	BABY	4	-1	[0, 0, 0]	n/a	FR1	4	R1347D
46.331	0.851	3566406	WORD_OFF	n/a	n/a	BABY	4	-1	[0, 0, 0]	n/a	FR1	4	R1347D
47.182	1.6	3567251	WORD	n/a	n/a	CAMEL	5	-1	[0, 0, 0]	n/a	FR1	4	R1347D
48.782	0.9	3568852	WORD_OFF	n/a	n/a	CAMEL	5	-1	[0, 0, 0]	n/a	FR1	4	R1347D
49.682	1.616	3569754	WORD	n/a	n/a	FLOOD	6	-1	[0, 0, 0]	n/a	FR1	4	R1347D
51.298	0.866	3571377	WORD_OFF	n/a	n/a	FLOOD	6	-1	[0, 0, 0]	n/a	FR1	4	R1347D
52.164	1.6	3572234	WORD	n/a	n/a	RHINO	7	-1	[0, 0, 0]	n/a	FR1	4	R1347D
53.764	0.85	3573835	WORD_OFF	n/a	n/a	RHINO	7	-1	[0, 0, 0]	n/a	FR1	4	R1347D
54.614	1.618	3574691	WORD	n/a	n/a	RING	8	-1	[0, 0, 0]	n/a	FR1	4	R1347D
56.232	0.867	3576303	WORD_OFF	n/a	n/a	RING	8	-1	[0, 0, 0]	n/a	FR1	4	R1347D
57.099	1.615	3577171	WORD	n/a	n/a	BEAM	9	-1	[0, 0, 0]	n/a	FR1	4	R1347D
58.714	0.817	3578783	WORD_OFF	n/a	n/a	BEAM	9	-1	[0, 0, 0]	n/a	FR1	4	R1347D
59.531	1.6	3579606	WORD	n/a	n/a	WAGON	10	-1	[0, 0, 0]	n/a	FR1	4	R1347D
61.131	0.801	3581207	WORD_OFF	n/a	n/a	WAGON	10	-1	[0, 0, 0]	n/a	FR1	4	R1347D
61.932	1.6	3582007	WORD	n/a	n/a	WATCH	11	-1	[0, 0, 0]	n/a	FR1	4	R1347D
63.532	0.866	3583608	WORD_OFF	n/a	n/a	WATCH	11	-1	[0, 0, 0]	n/a	FR1	4	R1347D
64.398	1.601	3584476	WORD	n/a	n/a	TONGUE	12	-1	[0, 0, 0]	n/a	FR1	4	R1347D
65.999	0.003	3586072	PROB	0.003	n/a	n/a	-999	-1	[4, 5, 7]	16	FR1	4	R1347D
66.002	0.0	3586075	START	n/a	n/a	n/a	-999	-1	[-999, -999, -999]	n/a	FR1	4	R1347D
65.998	0.003	3586077	WORD_OFF	n/a	n/a	TONGUE	12	-1	[0, 0, 0]	n/a	FR1	4	R1347D
66.001	0.001	3586077	ENCODING_END	n/a	n/a	n/a	-999	-1	[0, 0, 0]	n/a	FR1	4	R1347D
66.002	13.363	3586077	DISTRACT_START	n/a	n/a	n/a	-999	-1	[0, 0, 0]	n/a	FR1	4	R1347D
79.365	5.384	3599438	PROB	5.384	n/a	n/a	-999	-1	[8, 1, 2]	11	FR1	4	R1347D
84.749	10.482	3604821	PROB	10.482	n/a	n/a	-999	-1	[7, 8, 2]	17	FR1	4	R1347D
95.231	0.0	3615303	STOP	n/a	n/a	n/a	-999	-1	[-999, -999, -999]	n/a	FR1	4	R1347D
95.231	1.134	3615307	DISTRACT_END	n/a	n/a	n/a	-999	-1	[0, 0, 0]	n/a	FR1	4	R1347D
96.365	2.133	3616434	REC_START	n/a	n/a	n/a	-999	-1	[0, 0, 0]	n/a	FR1	4	R1347D
98.498	0.946	3618570	REC_WORD	0.946	n/a	WAGON	10	-1	[0, 0, 0]	n/a	FR1	4	R1347D
99.444	1.225	3619515	REC_WORD	1.225	n/a	BEAM	9	-1	[0, 0, 0]	n/a	FR1	4	R1347D
100.669	21.161	3620740	REC_WORD	21.161	n/a	COTTON	1	-1	[0, 0, 0]	n/a	FR1	4	R1347D
121.83	4.791	3641900	REC_WORD	4.791	n/a	HAY	-999	-1	[0, 0, 0]	n/a	FR1	4	R1347D
126.621	8.26	3646690	REC_END	n/a	n/a	n/a	-999	-1	[0, 0, 0]	n/a	FR1	4	R1347D
134.881	10.35	3654953	COUNTDOWN_START	n/a	n/a	n/a	-999	1	[0, 0, 0]	n/a	FR1	4	R1347D
145.231	0.0	3665301	COUNTDOWN_END	n/a	n/a	n/a	-999	1	[0, 0, 0]	n/a	FR1	4	R1347D
145.231	2.233	3665301	ENCODING_START	n/a	n/a	n/a	-999	1	[0, 0, 0]	n/a	FR1	4	R1347D
147.464	1.617	3667533	WORD	n/a	wordpools/wordpool_short_EN.txt	BREAST	1	1	[0, 0, 0]	n/a	FR1	4	R1347D
149.081	0.967	3669157	WORD_OFF	n/a	n/a	BREAST	1	1	[0, 0, 0]	n/a	FR1	4	R1347D
150.048	1.616	3670115	WORD	n/a	wordpools/wordpool_short_EN.txt	TRAY	2	1	[0, 0, 0]	n/a	FR1	4	R1347D
151.664	0.851	3671738	WORD_OFF	n/a	n/a	TRAY	2	1	[0, 0, 0]	n/a	FR1	4	R1347D
152.515	1.616	3672584	WORD	n/a	wordpools/wordpool_short_EN.txt	MAZE	3	1	[0, 0, 0]	n/a	FR1	4	R1347D
154.131	0.901	3674196	WORD_OFF	n/a	n/a	MAZE	3	1	[0, 0, 0]	n/a	FR1	4	R1347D
155.032	1.615	3675097	WORD	n/a	wordpools/wordpool_short_EN.txt	FUR	4	1	[0, 0, 0]	n/a	FR1	4	R1347D
156.647	0.867	3676721	WORD_OFF	n/a	n/a	FUR	4	1	[0, 0, 0]	n/a	FR1	4	R1347D
157.514	1.6	3677589	WORD	n/a	wordpools/wordpool_short_EN.txt	SHORE	5	1	[0, 0, 0]	n/a	FR1	4	R1347D
159.114	0.818	3679189	WORD_OFF	n/a	n/a	SHORE	5	1	[0, 0, 0]	n/a	FR1	4	R1347D
159.932	1.616	3680001	WORD	n/a	wordpools/wordpool_short_EN.txt	LIP	6	1	[0, 0, 0]	n/a	FR1	4	R1347D
161.548	0.934	3681613	WORD_OFF	n/a	n/a	LIP	6	1	[0, 0, 0]	n/a	FR1	4	R1347D
162.482	1.616	3682549	WORD	n/a	wordpools/wordpool_short_EN.txt	SOAP	7	1	[0, 0, 0]	n/a	FR1	4	R1347D
164.098	0.8	3684172	WORD_OFF	n/a	n/a	SOAP	7	1	[0, 0, 0]	n/a	FR1	4	R1347D
164.898	1.616	3684972	WORD	n/a	wordpools/wordpool_short_EN.txt	WAX	8	1	[0, 0, 0]	n/a	FR1	4	R1347D
166.514	0.85	3686584	WORD_OFF	n/a	n/a	WAX	8	1	[0, 0, 0]	n/a	FR1	4	R1347D
167.364	1.6	3687430	WORD	n/a	wordpools/wordpool_short_EN.txt	SQUARE	9	1	[0, 0, 0]	n/a	FR1	4	R1347D
168.964	0.917	3689031	WORD_OFF	n/a	n/a	SQUARE	9	1	[0, 0, 0]	n/a	FR1	4	R1347D
169.881	1.601	3689955	WORD	n/a	wordpools/wordpool_short_EN.txt	PHONE	10	1	[0, 0, 0]	n/a	FR1	4	R1347D
171.482	0.816	3691549	WORD_OFF	n/a	n/a	PHONE	10	1	[0, 0, 0]	n/a	FR1	4	R1347D
172.298	1.6	3692367	WORD	n/a	wordpools/wordpool_short_EN.txt	BANK	11	1	[0, 0, 0]	n/a	FR1	4	R1347D
173.898	0.9	3693968	WORD_OFF	n/a	n/a	BANK	11	1	[0, 0, 0]	n/a	FR1	4	R1347D
174.798	1.616	3694870	WORD	n/a	wordpools/wordpool_short_EN.txt	STEAK	12	1	[0, 0, 0]	n/a	FR1	4	R1347D
176.414	0.001	3696482	WORD_OFF	n/a	n/a	STEAK	12	1	[0, 0, 0]	n/a	FR1	4	R1347D
176.415	0.0	3696482	ENCODING_END	n/a	n/a	n/a	-999	1	[0, 0, 0]	n/a	FR1	4	R1347D
176.415	0.0	3696482	DISTRACT_START	n/a	n/a	n/a	-999	1	[0, 0, 0]	n/a	FR1	4	R1347D
176.414	0.001	3696482	PROB	0.001	n/a	n/a	-999	1	[1, 3, 8]	12	FR1	4	R1347D
176.415	13.4	3696483	START	n/a	n/a	n/a	-999	1	[-999, -999, -999]	n/a	FR1	4	R1347D
189.815	5.467	3709882	PROB	5.467	n/a	n/a	-999	1	[1, 4, 3]	8	FR1	4	R1347D
195.282	4.649	3715349	PROB	4.649	n/a	n/a	-999	1	[6, 4, 2]	12	FR1	4	R1347D
199.931	0.0	3719997	DISTRACT_END	n/a	n/a	n/a	-999	1	[0, 0, 0]	n/a	FR1	4	R1347D
199.931	1.3	3719997	STOP	n/a	n/a	n/a	-999	1	[-999, -999, -999]	n/a	FR1	4	R1347D
201.231	3.486	3721293	REC_START	n/a	n/a	n/a	-999	1	[0, 0, 0]	n/a	FR1	4	R1347D
204.717	1.715	3724783	REC_WORD	1.715	n/a	WAGON	-999	1	[0, 0, 0]	n/a	FR1	4	R1347D
206.432	0.906	3726498	REC_WORD	0.906	n/a	LIP	6	1	[0, 0, 0]	n/a	FR1	4	R1347D
207.338	1.005	3727404	REC_WORD	1.005	n/a	TRAY	2	1	[0, 0, 0]	n/a	FR1	4	R1347D
208.343	3.714	3728409	REC_WORD	3.714	n/a	MAZE	3	1	[0, 0, 0]	n/a	FR1	4	R1347D
212.057	19.435	3732123	REC_WORD	19.435	n/a	HAY	-999	1	[0, 0, 0]	n/a	FR1	4	R1347D
231.492	1.69	3751560	REC_END	n/a	n/a	n/a	-999	1	[0, 0, 0]	n/a	FR1	4	R1347D
233.182	10.35	3753251	COUNTDOWN_START	n/a	n/a	n/a	-999	2	[0, 0, 0]	n/a	FR1	4	R1347D
243.532	0.001	3763600	COUNTDOWN_END	n/a	n/a	n/a	-999	2	[0, 0, 0]	n/a	FR1	4	R1347D
243.533	2.065	3763600	ENCODING_START	n/a	n/a	n/a	-999	2	[0, 0, 0]	n/a	FR1	4	R1347D
245.598	1.6	3765663	WORD	n/a	wordpools/wordpool_short_EN.txt	OIL	1	2	[0, 0, 0]	n/a	FR1	4	R1347D
247.198	1.0	3767263	WORD_OFF	n/a	n/a	OIL	1	2	[0, 0, 0]	n/a	FR1	4	R1347D
248.198	1.6	3768267	WORD	n/a	wordpools/wordpool_short_EN.txt	CUP	2	2	[0, 0, 0]	n/a	FR1	4	R1347D
249.798	0.933	3769867	WORD_OFF	n/a	n/a	CUP	2	2	[0, 0, 0]	n/a	FR1	4	R1347D
250.731	1.601	3770792	WORD	n/a	wordpools/wordpool_short_EN.txt	HOLE	3	2	[0, 0, 0]	n/a	FR1	4	R1347D
252.332	0.782	3772392	WORD_OFF	n/a	n/a	HOLE	3	2	[0, 0, 0]	n/a	FR1	4	R1347D
253.114	1.6	3773181	WORD	n/a	wordpools/wordpool_short_EN.txt	FROST	4	2	[0, 0, 0]	n/a	FR1	4	R1347D
254.714	0.9	3774782	WORD_OFF	n/a	n/a	FROST	4	2	[0, 0, 0]	n/a	FR1	4	R1347D
255.614	1.618	3775684	WORD	n/a	wordpools/wordpool_short_EN.txt	POOL	5	2	[0, 0, 0]	n/a	FR1	4	R1347D
257.232	0.899	3777296	WORD_OFF	n/a	n/a	POOL	5	2	[0, 0, 0]	n/a	FR1	4	R1347D
258.131	1.601	3778198	WORD	n/a	wordpools/wordpool_short_EN.txt	PRINCE	6	2	[0, 0, 0]	n/a	FR1	4	R1347D
259.732	0.832	3779799	WORD_OFF	n/a	n/a	PRINCE	6	2	[0, 0, 0]	n/a	FR1	4	R1347D
260.564	1.6	3780633	WORD	n/a	wordpools/wordpool_short_EN.txt	JAW	7	2	[0, 0, 0]	n/a	FR1	4	R1347D
262.164	0.818	3782233	WORD_OFF	n/a	n/a	JAW	7	2	[0, 0, 0]	n/a	FR1	4	R1347D
262.982	1.599	3783045	WORD	n/a	wordpools/wordpool_short_EN.txt	FORT	8	2	[0, 0, 0]	n/a	FR1	4	R1347D
264.581	0.966	3784646	WORD_OFF	n/a	n/a	FORT	8	2	[0, 0, 0]	n/a	FR1	4	R1347D
265.547	1.601	3785615	WORD	n/a	wordpools/wordpool_short_EN.txt	JET	9	2	[0, 0, 0]	n/a	FR1	4	R1347D
267.148	0.933	3787216	WORD_OFF	n/a	n/a	JET	9	2	[0, 0, 0]	n/a	FR1	4	R1347D
268.081	1.616	3788140	WORD	n/a	wordpools/wordpool_short_EN.txt	THROAT	10	2	[0, 0, 0]	n/a	FR1	4	R1347D
269.697	0.801	3789764	WORD_OFF	n/a	n/a	THROAT	10	2	[0, 0, 0]	n/a	FR1	4	R1347D
270.498	1.601	3790564	WORD	n/a	wordpools/wordpool_short_EN.txt	VINE	11	2	[0, 0, 0]	n/a	FR1	4	R1347D
272.099	0.982	3792165	WORD_OFF	n/a	n/a	VINE	11	2	[0, 0, 0]	n/a	FR1	4	R1347D
273.081	1.601	3793145	WORD	n/a	wordpools/wordpool_short_EN.txt	OAR	12	2	[0, 0, 0]	n/a	FR1	4	R1347D
274.682	0.001	3794744	PROB	0.001	n/a	n/a	-999	2	[6, 6, 2]	14	FR1	4	R1347D
274.683	0.0	3794745	START	n/a	n/a	n/a	-999	2	[-999, -999, -999]	n/a	FR1	4	R1347D
274.681	0.002	3794746	WORD_OFF	n/a	n/a	OAR	12	2	[0, 0, 0]	n/a	FR1	4	R1347D
274.683	0.0	3794746	ENCODING_END	n/a	n/a	n/a	-999	2	[0, 0, 0]	n/a	FR1	4	R1347D
274.683	8.732	3794746	DISTRACT_START	n/a	n/a	n/a	-999	2	[0, 0, 0]	n/a	FR1	4	R1347D
283.415	4.383	3803477	PROB	4.383	n/a	n/a	-999	2	[4, 6, 4]	14	FR1	4	R1347D
287.798	3.55	3807860	PROB	3.55	n/a	n/a	-999	2	[1, 5, 3]	9	FR1	4	R1347D
291.348	14.416	3811410	PROB	14.416	n/a	n/a	-999	2	[8, 7, 1]	16	FR1	4	R1347D
305.764	0.0	3825825	DISTRACT_END	n/a	n/a	n/a	-999	2	[0, 0, 0]	n/a	FR1	4	R1347D
305.764	1.05	3825825	STOP	n/a	n/a	n/a	-999	2	[-999, -999, -999]	n/a	FR1	4	R1347D
306.814	2.426	3826873	REC_START	n/a	n/a	n/a	-999	2	[0, 0, 0]	n/a	FR1	4	R1347D
309.24	0.751	3829301	REC_WORD	0.751	n/a	OIL	1	2	[0, 0, 0]	n/a	FR1	4	R1347D
309.991	0.765	3830052	REC_WORD	0.765	n/a	LIP	-999	2	[0, 0, 0]	n/a	FR1	4	R1347D
310.756	2.621	3830817	REC_WORD	2.621	n/a	CUP	2	2	[0, 0, 0]	n/a	FR1	4	R1347D
313.377	5.63	3833437	REC_WORD	5.63	n/a	HOLE	3	2	[0, 0, 0]	n/a	FR1	4	R1347D
319.007	18.076	3839067	REC_WORD	18.076	n/a	JET	9	2	[0, 0, 0]	n/a	FR1	4	R1347D
337.083	2.681	3857141	REC_END	n/a	n/a	n/a	-999	2	[0, 0, 0]	n/a	FR1	4	R1347D
339.764	10.351	3859824	COUNTDOWN_START	n/a	n/a	n/a	-999	3	[0, 0, 0]	n/a	FR1	4	R1347D
350.115	0.0	3870172	COUNTDOWN_END	n/a	n/a	n/a	-999	3	[0, 0, 0]	n/a	FR1	4	R1347D
350.115	2.049	3870172	ENCODING_START	n/a	n/a	n/a	-999	3	[0, 0, 0]	n/a	FR1	4	R1347D
352.164	1.6	3872224	WORD	n/a	wordpools/wordpool_short_EN.txt	LAWN	1	3	[0, 0, 0]	n/a	FR1	4	R1347D
353.764	0.867	3873824	WORD_OFF	n/a	n/a	LAWN	1	3	[0, 0, 0]	n/a	FR1	4	R1347D
354.631	1.617	3874692	WORD	n/a	wordpools/wordpool_short_EN.txt	MOON	2	3	[0, 0, 0]	n/a	FR1	4	R1347D
356.248	0.916	3876304	WORD_OFF	n/a	n/a	MOON	2	3	[0, 0, 0]	n/a	FR1	4	R1347D
357.164	1.6	3877229	WORD	n/a	wordpools/wordpool_short_EN.txt	HAT	3	3	[0, 0, 0]	n/a	FR1	4	R1347D
358.764	0.967	3878818	WORD_OFF	n/a	n/a	HAT	3	3	[0, 0, 0]	n/a	FR1	4	R1347D
359.731	1.617	3879788	WORD	n/a	wordpools/wordpool_short_EN.txt	BUSH	4	3	[0, 0, 0]	n/a	FR1	4	R1347D
361.348	0.833	3881411	WORD_OFF	n/a	n/a	BUSH	4	3	[0, 0, 0]	n/a	FR1	4	R1347D
362.181	1.6	3882245	WORD	n/a	wordpools/wordpool_short_EN.txt	BONE	5	3	[0, 0, 0]	n/a	FR1	4	R1347D
363.781	0.883	3883846	WORD_OFF	n/a	n/a	BONE	5	3	[0, 0, 0]	n/a	FR1	4	R1347D
364.664	1.6	3884725	WORD	n/a	wordpools/wordpool_short_EN.txt	DOG	6	3	[0, 0, 0]	n/a	FR1	4	R1347D
366.264	0.95	3886326	WORD_OFF	n/a	n/a	DOG	6	3	[0, 0, 0]	n/a	FR1	4	R1347D
367.214	1.6	3887273	WORD	n/a	wordpools/wordpool_short_EN.txt	SLUSH	7	3	[0, 0, 0]	n/a	FR1	4	R1347D
368.814	0.85	3888873	WORD_OFF	n/a	n/a	SLUSH	7	3	[0, 0, 0]	n/a	FR1	4	R1347D
369.664	1.617	3889719	WORD	n/a	wordpools/wordpool_short_EN.txt	DEW	8	3	[0, 0, 0]	n/a	FR1	4	R1347D
371.281	0.783	3891342	WORD_OFF	n/a	n/a	DEW	8	3	[0, 0, 0]	n/a	FR1	4	R1347D
372.064	1.617	3892120	WORD	n/a	wordpools/wordpool_short_EN.txt	NET	9	3	[0, 0, 0]	n/a	FR1	4	R1347D
373.681	1.0	3893743	WORD_OFF	n/a	n/a	NET	9	3	[0, 0, 0]	n/a	FR1	4	R1347D
374.681	1.617	3894735	WORD	n/a	wordpools/wordpool_short_EN.txt	COKE	10	3	[0, 0, 0]	n/a	FR1	4	R1347D
376.298	0.983	3896358	WORD_OFF	n/a	n/a	COKE	10	3	[0, 0, 0]	n/a	FR1	4	R1347D
377.281	1.6	3897339	WORD	n/a	wordpools/wordpool_short_EN.txt	MULE	11	3	[0, 0, 0]	n/a	FR1	4	R1347D
378.881	0.767	3898940	WORD_OFF	n/a	n/a	MULE	11	3	[0, 0, 0]	n/a	FR1	4	R1347D
379.648	1.616	3899706	WORD	n/a	wordpools/wordpool_short_EN.txt	PIT	12	3	[0, 0, 0]	n/a	FR1	4	R1347D
381.264	0.001	3901318	WORD_OFF	n/a	n/a	PIT	12	3	[0, 0, 0]	n/a	FR1	4	R1347D
381.265	0.0	3901318	ENCODING_END	n/a	n/a	n/a	-999	3	[0, 0, 0]	n/a	FR1	4	R1347D
381.265	0.0	3901322	START	n/a	n/a	n/a	-999	3	[-999, -999, -999]	n/a	FR1	4	R1347D
381.265	0.0	3901322	PROB	0.0	n/a	n/a	-999	3	[4, 1, 3]	8	FR1	4	R1347D
381.265	17.399	3901330	DISTRACT_START	n/a	n/a	n/a	-999	3	[0, 0, 0]	n/a	FR1	4	R1347D
398.664	4.651	3918720	PROB	4.651	n/a	n/a	-999	3	[4, 4, 5]	13	FR1	4	R1347D
403.315	0.0	3923368	DISTRACT_END	n/a	n/a	n/a	-999	3	[0, 0, 0]	n/a	FR1	4	R1347D
403.315	1.3	3923371	STOP	n/a	n/a	n/a	-999	3	[-999, -999, -999]	n/a	FR1	4	R1347D
404.615	1.977	3924675	REC_START	n/a	n/a	n/a	-999	3	[0, 0, 0]	n/a	FR1	4	R1347D
406.592	0.918	3926648	REC_WORD	0.918	n/a	HAT	3	3	[0, 0, 0]	n/a	FR1	4	R1347D
407.51	1.144	3927566	REC_WORD	1.144	n/a	BUSH	4	3	[0, 0, 0]	n/a	FR1	4	R1347D
408.654	1.759	3928710	REC_WORD	1.759	n/a	BONE	5	3	[0, 0, 0]	n/a	FR1	4	R1347D
410.413	2.127	3930468	REC_WORD	2.127	n/a	NET	9	3	[0, 0, 0]	n/a	FR1	4	R1347D
412.54	22.342	3932595	REC_WORD	22.342	n/a	PIT	12	3	[0, 0, 0]	n/a	FR1	4	R1347D
434.882	1.75	3954931	REC_END	n/a	n/a	n/a	-999	3	[0, 0, 0]	n/a	FR1	4	R1347D
436.632	10.35	3956690	COUNTDOWN_START	n/a	n/a	n/a	-999	4	[0, 0, 0]	n/a	FR1	4	R1347D
446.982	0.0	3967038	COUNTDOWN_END	n/a	n/a	n/a	-999	4	[0, 0, 0]	n/a	FR1	4	R1347D
446.982	1.916	3967038	ENCODING_START	n/a	n/a	n/a	-999	4	[0, 0, 0]	n/a	FR1	4	R1347D
448.898	1.616	3968955	WORD	n/a	wordpools/wordpool_short_EN.txt	LANE	1	4	[0, 0, 0]	n/a	FR1	4	R1347D
450.514	0.918	3970567	WORD_OFF	n/a	n/a	LANE	1	4	[0, 0, 0]	n/a	FR1	4	R1347D
451.432	1.616	3971491	WORD	n/a	wordpools/wordpool_short_EN.txt	FOOD	2	4	[0, 0, 0]	n/a	FR1	4	R1347D
453.048	0.917	3973103	WORD_OFF	n/a	n/a	FOOD	2	4	[0, 0, 0]	n/a	FR1	4	R1347D
453.965	1.6	3974016	WORD	n/a	wordpools/wordpool_short_EN.txt	SHOE	3	4	[0, 0, 0]	n/a	FR1	4	R1347D
455.565	0.899	3975617	WORD_OFF	n/a	n/a	SHOE	3	4	[0, 0, 0]	n/a	FR1	4	R1347D
456.464	1.6	3976519	WORD	n/a	wordpools/wordpool_short_EN.txt	FENCE	4	4	[0, 0, 0]	n/a	FR1	4	R1347D
458.064	0.851	3978119	WORD_OFF	n/a	n/a	FENCE	4	4	[0, 0, 0]	n/a	FR1	4	R1347D
458.915	1.616	3978965	WORD	n/a	wordpools/wordpool_short_EN.txt	ASH	5	4	[0, 0, 0]	n/a	FR1	4	R1347D
460.531	0.883	3980588	WORD_OFF	n/a	n/a	ASH	5	4	[0, 0, 0]	n/a	FR1	4	R1347D
461.414	1.617	3981467	WORD	n/a	wordpools/wordpool_short_EN.txt	LEAF	6	4	[0, 0, 0]	n/a	FR1	4	R1347D
463.031	0.95	3983091	WORD_OFF	n/a	n/a	LEAF	6	4	[0, 0, 0]	n/a	FR1	4	R1347D
463.981	1.6	3984038	WORD	n/a	wordpools/wordpool_short_EN.txt	TIE	7	4	[0, 0, 0]	n/a	FR1	4	R1347D
465.581	0.901	3985638	WORD_OFF	n/a	n/a	TIE	7	4	[0, 0, 0]	n/a	FR1	4	R1347D
466.482	1.6	3986540	WORD	n/a	wordpools/wordpool_short_EN.txt	TOAD	8	4	[0, 0, 0]	n/a	FR1	4	R1347D
468.082	0.915	3988130	WORD_OFF	n/a	n/a	TOAD	8	4	[0, 0, 0]	n/a	FR1	4	R1347D
468.997	1.601	3989054	WORD	n/a	wordpools/wordpool_short_EN.txt	BADGE	9	4	[0, 0, 0]	n/a	FR1	4	R1347D
470.598	0.816	3990655	WORD_OFF	n/a	n/a	BADGE	9	4	[0, 0, 0]	n/a	FR1	4	R1347D
471.414	1.617	3991466	WORD	n/a	wordpools/wordpool_short_EN.txt	SACK	10	4	[0, 0, 0]	n/a	FR1	4	R1347D
473.031	0.85	3993090	WORD_OFF	n/a	n/a	SACK	10	4	[0, 0, 0]	n/a	FR1	4	R1347D
473.881	1.617	3993935	WORD	n/a	wordpools/wordpool_short_EN.txt	WOOD	11	4	[0, 0, 0]	n/a	FR1	4	R1347D
475.498	1.0	3995547	WORD_OFF	n/a	n/a	WOOD	11	4	[0, 0, 0]	n/a	FR1	4	R1347D
476.498	1.616	3996550	WORD	n/a	wordpools/wordpool_short_EN.txt	KEY	12	4	[0, 0, 0]	n/a	FR1	4	R1347D
478.114	0.001	3998162	WORD_OFF	n/a	n/a	KEY	12	4	[0, 0, 0]	n/a	FR1	4	R1347D
478.115	0.0	3998167	START	n/a	n/a	n/a	-999	4	[-999, -999, -999]	n/a	FR1	4	R1347D
478.115	0.0	3998167	PROB	0.0	n/a	n/a	-999	4	[4, 6, 8]	18	FR1	4	R1347D
478.115	0.0	3998174	ENCODING_END	n/a	n/a	n/a	-999	4	[0, 0, 0]	n/a	FR1	4	R1347D
478.115	17.683	3998174	DISTRACT_START	n/a	n/a	n/a	-999	4	[0, 0, 0]	n/a	FR1	4	R1347D
495.798	12.083	4015849	PROB	12.083	n/a	n/a	-999	4	[3, 7, 1]	11	FR1	4	R1347D
507.881	0.0	4027931	STOP	n/a	n/a	n/a	-999	4	[-999, -999, -999]	n/a	FR1	4	R1347D
507.881	1.167	4027934	DISTRACT_END	n/a	n/a	n/a	-999	4	[0, 0, 0]	n/a	FR1	4	R1347D
509.048	1.735	4029095	REC_START	n/a	n/a	n/a	-999	4	[0, 0, 0]	n/a	FR1	4	R1347D
510.783	0.902	4030833	REC_WORD	0.902	n/a	SHOE	3	4	[0, 0, 0]	n/a	FR1	4	R1347D
511.685	0.639	4031735	REC_WORD	0.639	n/a	ASH	5	4	[0, 0, 0]	n/a	FR1	4	R1347D
512.324	0.68	4032374	REC_WORD	0.68	n/a	LEAF	6	4	[0, 0, 0]	n/a	FR1	4	R1347D
513.004	0.701	4033054	REC_WORD	0.701	n/a	TIE	7	4	[0, 0, 0]	n/a	FR1	4	R1347D
513.705	0.677	4033755	REC_WORD	0.677	n/a	TOE	-999	4	[0, 0, 0]	n/a	FR1	4	R1347D
514.382	2.284	4034432	REC_WORD	2.284	n/a	KEY	12	4	[0, 0, 0]	n/a	FR1	4	R1347D
516.666	1.0	4036716	REC_WORD_VV	1.0	n/a	<>	-999	4	[0, 0, 0]	n/a	FR1	4	R1347D
517.666	21.645	4037716	REC_WORD_VV	21.645	n/a	<>	-999	4	[0, 0, 0]	n/a	FR1	4	R1347D
539.311	2.621	4059362	REC_END	n/a	n/a	n/a	-999	4	[0, 0, 0]	n/a	FR1	4	R1347D
541.932	10.35	4061977	COUNTDOWN_START	n/a	n/a	n/a	-999	5	[0, 0, 0]	n/a	FR1	4	R1347D
552.282	0.0	4072326	COUNTDOWN_END	n/a	n/a	n/a	-999	5	[0, 0, 0]	n/a	FR1	4	R1347D
552.282	2.199	4072337	ENCODING_START	n/a	n/a	n/a	-999	5	[0, 0, 0]	n/a	FR1	4	R1347D
554.481	1.6	4074535	WORD	n/a	wordpools/wordpool_short_EN.txt	STEW	1	5	[0, 0, 0]	n/a	FR1	4	R1347D
556.081	0.883	4076124	WORD_OFF	n/a	n/a	STEW	1	5	[0, 0, 0]	n/a	FR1	4	R1347D
556.964	1.617	4077015	WORD	n/a	wordpools/wordpool_short_EN.txt	SAUCE	2	5	[0, 0, 0]	n/a	FR1	4	R1347D
558.581	0.916	4078627	WORD_OFF	n/a	n/a	SAUCE	2	5	[0, 0, 0]	n/a	FR1	4	R1347D
559.497	1.601	4079551	WORD	n/a	wordpools/wordpool_short_EN.txt	HARP	3	5	[0, 0, 0]	n/a	FR1	4	R1347D
561.098	0.883	4081141	WORD_OFF	n/a	n/a	HARP	3	5	[0, 0, 0]	n/a	FR1	4	R1347D
561.981	1.6	4082031	WORD	n/a	wordpools/wordpool_short_EN.txt	HAY	4	5	[0, 0, 0]	n/a	FR1	4	R1347D
563.581	1.0	4083632	WORD_OFF	n/a	n/a	HAY	4	5	[0, 0, 0]	n/a	FR1	4	R1347D
564.581	1.6	4084624	WORD	n/a	wordpools/wordpool_short_EN.txt	GOWN	5	5	[0, 0, 0]	n/a	FR1	4	R1347D
566.181	0.983	4086225	WORD_OFF	n/a	n/a	GOWN	5	5	[0, 0, 0]	n/a	FR1	4	R1347D
567.164	1.616	4087217	WORD	n/a	wordpools/wordpool_short_EN.txt	WORM	6	5	[0, 0, 0]	n/a	FR1	4	R1347D
568.78	0.917	4088829	WORD_OFF	n/a	n/a	WORM	6	5	[0, 0, 0]	n/a	FR1	4	R1347D
569.697	1.6	4089742	WORD	n/a	wordpools/wordpool_short_EN.txt	CLOTH	7	5	[0, 0, 0]	n/a	FR1	4	R1347D
571.297	0.767	4091343	WORD_OFF	n/a	n/a	CLOTH	7	5	[0, 0, 0]	n/a	FR1	4	R1347D
572.064	1.6	4092109	WORD	n/a	wordpools/wordpool_short_EN.txt	GEESE	8	5	[0, 0, 0]	n/a	FR1	4	R1347D
573.664	0.817	4093710	WORD_OFF	n/a	n/a	GEESE	8	5	[0, 0, 0]	n/a	FR1	4	R1347D
574.481	1.6	4094533	WORD	n/a	wordpools/wordpool_short_EN.txt	BRICK	9	5	[0, 0, 0]	n/a	FR1	4	R1347D
576.081	0.967	4096134	WORD_OFF	n/a	n/a	BRICK	9	5	[0, 0, 0]	n/a	FR1	4	R1347D
577.048	1.617	4097092	WORD	n/a	wordpools/wordpool_short_EN.txt	GRASS	10	5	[0, 0, 0]	n/a	FR1	4	R1347D
578.665	0.883	4098715	WORD_OFF	n/a	n/a	GRASS	10	5	[0, 0, 0]	n/a	FR1	4	R1347D
579.548	1.601	4099594	WORD	n/a	wordpools/wordpool_short_EN.txt	WORLD	11	5	[0, 0, 0]	n/a	FR1	4	R1347D
581.149	0.95	4101195	WORD_OFF	n/a	n/a	WORLD	11	5	[0, 0, 0]	n/a	FR1	4	R1347D
582.099	1.6	4102142	WORD	n/a	wordpools/wordpool_short_EN.txt	BOLT	12	5	[0, 0, 0]	n/a	FR1	4	R1347D
583.699	0.001	4103743	WORD_OFF	n/a	n/a	BOLT	12	5	[0, 0, 0]	n/a	FR1	4	R1347D
583.7	0.001	4103747	PROB	0.001	n/a	n/a	-999	5	[7, 7, 5]	19	FR1	4	R1347D
583.701	0.0	4103748	START	n/a	n/a	n/a	-999	5	[-999, -999, -999]	n/a	FR1	4	R1347D
583.701	0.0	4103754	ENCODING_END	n/a	n/a	n/a	-999	5	[0, 0, 0]	n/a	FR1	4	R1347D
583.701	12.515	4103754	DISTRACT_START	n/a	n/a	n/a	-999	5	[0, 0, 0]	n/a	FR1	4	R1347D
596.216	14.065	4116262	PROB	14.065	n/a	n/a	-999	5	[4, 2, 8]	14	FR1	4	R1347D
610.281	0.0	4130324	DISTRACT_END	n/a	n/a	n/a	-999	5	[0, 0, 0]	n/a	FR1	4	R1347D
610.281	1.017	4130326	STOP	n/a	n/a	n/a	-999	5	[-999, -999, -999]	n/a	FR1	4	R1347D
611.298	2.466	4131350	REC_START	n/a	n/a	n/a	-999	5	[0, 0, 0]	n/a	FR1	4	R1347D
613.764	0.989	4133809	REC_WORD	0.989	n/a	STEW	1	5	[0, 0, 0]	n/a	FR1	4	R1347D
614.753	5.233	4134798	REC_WORD	5.233	n/a	ASH	-999	5	[0, 0, 0]	n/a	FR1	4	R1347D
619.986	2.233	4140031	REC_WORD	2.233	n/a	CLOTHES	-999	5	[0, 0, 0]	n/a	FR1	4	R1347D
622.219	12.727	4142264	REC_WORD	12.727	n/a	BOLT	12	5	[0, 0, 0]	n/a	FR1	4	R1347D
634.946	6.624	4154990	REC_WORD	6.624	n/a	KEY	-999	5	[0, 0, 0]	n/a	FR1	4	R1347D
641.57	1.777	4161617	REC_END	n/a	n/a	n/a	-999	5	[0, 0, 0]	n/a	FR1	4	R1347D
643.347	10.352	4163398	COUNTDOWN_START	n/a	n/a	n/a	-999	6	[0, 0, 0]	n/a	FR1	4	R1347D
653.699	0.0	4173746	COUNTDOWN_END	n/a	n/a	n/a	-999	6	[0, 0, 0]	n/a	FR1	4	R1347D
653.699	2.232	4173746	ENCODING_START	n/a	n/a	n/a	-999	6	[0, 0, 0]	n/a	FR1	4	R1347D
655.931	1.6	4175978	WORD	n/a	wordpools/wordpool_short_EN.txt	BOARD	1	6	[0, 0, 0]	n/a	FR1	4	R1347D
657.531	0.85	4177579	WORD_OFF	n/a	n/a	BOARD	1	6	[0, 0, 0]	n/a	FR1	4	R1347D
658.381	1.617	4178424	WORD	n/a	wordpools/wordpool_short_EN.txt	HOSE	2	6	[0, 0, 0]	n/a	FR1	4	R1347D
659.998	0.834	4180036	WORD_OFF	n/a	n/a	HOSE	2	6	[0, 0, 0]	n/a	FR1	4	R1347D
660.832	1.616	4180871	WORD	n/a	wordpools/wordpool_short_EN.txt	ROOT	3	6	[0, 0, 0]	n/a	FR1	4	R1347D
662.448	0.933	4182494	WORD_OFF	n/a	n/a	ROOT	3	6	[0, 0, 0]	n/a	FR1	4	R1347D
663.381	1.617	4183429	WORD	n/a	wordpools/wordpool_short_EN.txt	STORM	4	6	[0, 0, 0]	n/a	FR1	4	R1347D
664.998	0.783	4185041	WORD_OFF	n/a	n/a	STORM	4	6	[0, 0, 0]	n/a	FR1	4	R1347D
665.781	1.6	4185819	WORD	n/a	wordpools/wordpool_short_EN.txt	SOCK	5	6	[0, 0, 0]	n/a	FR1	4	R1347D
667.381	0.8	4187420	WORD_OFF	n/a	n/a	SOCK	5	6	[0, 0, 0]	n/a	FR1	4	R1347D
668.181	1.6	4188220	WORD	n/a	wordpools/wordpool_short_EN.txt	ROPE	6	6	[0, 0, 0]	n/a	FR1	4	R1347D
669.781	0.916	4189821	WORD_OFF	n/a	n/a	ROPE	6	6	[0, 0, 0]	n/a	FR1	4	R1347D
670.697	1.601	4190745	WORD	n/a	wordpools/wordpool_short_EN.txt	BARN	7	6	[0, 0, 0]	n/a	FR1	4	R1347D
672.298	0.966	4192346	WORD_OFF	n/a	n/a	BARN	7	6	[0, 0, 0]	n/a	FR1	4	R1347D
673.264	1.6	4193304	WORD	n/a	wordpools/wordpool_short_EN.txt	PIPE	8	6	[0, 0, 0]	n/a	FR1	4	R1347D
674.864	0.951	4194905	WORD_OFF	n/a	n/a	PIPE	8	6	[0, 0, 0]	n/a	FR1	4	R1347D
675.815	1.617	4195852	WORD	n/a	wordpools/wordpool_short_EN.txt	TIN	9	6	[0, 0, 0]	n/a	FR1	4	R1347D
677.432	0.799	4197475	WORD_OFF	n/a	n/a	TIN	9	6	[0, 0, 0]	n/a	FR1	4	R1347D
678.231	1.601	4198276	WORD	n/a	wordpools/wordpool_short_EN.txt	GOLD	10	6	[0, 0, 0]	n/a	FR1	4	R1347D
679.832	0.883	4199876	WORD_OFF	n/a	n/a	GOLD	10	6	[0, 0, 0]	n/a	FR1	4	R1347D
680.715	1.617	4200756	WORD	n/a	wordpools/wordpool_short_EN.txt	RAT	11	6	[0, 0, 0]	n/a	FR1	4	R1347D
682.332	0.866	4202379	WORD_OFF	n/a	n/a	RAT	11	6	[0, 0, 0]	n/a	FR1	4	R1347D
683.198	1.618	4203236	WORD	n/a	wordpools/wordpool_short_EN.txt	TRASH	12	6	[0, 0, 0]	n/a	FR1	4	R1347D
684.816	0.0	4204857	START	n/a	n/a	n/a	-999	6	[-999, -999, -999]	n/a	FR1	4	R1347D
684.816	0.0	4204857	PROB	0.0	n/a	n/a	-999	6	[7, 2, 2]	11	FR1	4	R1347D
684.814	0.001	4204859	WORD_OFF	n/a	n/a	TRASH	12	6	[0, 0, 0]	n/a	FR1	4	R1347D
684.815	0.001	4204859	ENCODING_END	n/a	n/a	n/a	-999	6	[0, 0, 0]	n/a	FR1	4	R1347D
684.816	19.283	4204859	DISTRACT_START	n/a	n/a	n/a	-999	6	[0, 0, 0]	n/a	FR1	4	R1347D
704.099	6.832	4224139	PROB	6.832	n/a	n/a	-999	6	[3, 6, 3]	12	FR1	4	R1347D
710.931	0.0	4230967	DISTRACT_END	n/a	n/a	n/a	-999	6	[0, 0, 0]	n/a	FR1	4	R1347D
710.931	1.35	4230971	STOP	n/a	n/a	n/a	-999	6	[-999, -999, -999]	n/a	FR1	4	R1347D
712.281	3.663	4232319	REC_START	n/a	n/a	n/a	-999	6	[0, 0, 0]	n/a	FR1	4	R1347D
715.944	2.905	4235984	REC_WORD	2.905	n/a	SHOE	-999	6	[0, 0, 0]	n/a	FR1	4	R1347D
718.849	1.163	4238889	REC_WORD	1.163	n/a	BOWL	-999	6	[0, 0, 0]	n/a	FR1	4	R1347D
720.012	4.304	4240052	REC_WORD	4.304	n/a	KEY	-999	6	[0, 0, 0]	n/a	FR1	4	R1347D
724.316	3.06	4244355	REC_WORD	3.06	n/a	RAT	11	6	[0, 0, 0]	n/a	FR1	4	R1347D
727.376	15.167	4247415	REC_WORD	15.167	n/a	PIPE	8	6	[0, 0, 0]	n/a	FR1	4	R1347D
742.543	3.905	4262586	REC_END	n/a	n/a	n/a	-999	6	[0, 0, 0]	n/a	FR1	4	R1347D
746.448	10.35	4266487	COUNTDOWN_START	n/a	n/a	n/a	-999	7	[0, 0, 0]	n/a	FR1	4	R1347D
756.798	0.0	4276835	COUNTDOWN_END	n/a	n/a	n/a	-999	7	[0, 0, 0]	n/a	FR1	4	R1347D
756.798	2.284	4276835	ENCODING_START	n/a	n/a	n/a	-999	7	[0, 0, 0]	n/a	FR1	4	R1347D
759.082	1.6	4279124	WORD	n/a	wordpools/wordpool_short_EN.txt	CAPE	1	7	[0, 0, 0]	n/a	FR1	4	R1347D
760.682	0.9	4280724	WORD_OFF	n/a	n/a	CAPE	1	7	[0, 0, 0]	n/a	FR1	4	R1347D
761.582	1.6	4281615	WORD	n/a	wordpools/wordpool_short_EN.txt	ROCK	2	7	[0, 0, 0]	n/a	FR1	4	R1347D
763.182	0.801	4283216	WORD_OFF	n/a	n/a	ROCK	2	7	[0, 0, 0]	n/a	FR1	4	R1347D
763.983	1.615	4284016	WORD	n/a	wordpools/wordpool_short_EN.txt	BENCH	3	7	[0, 0, 0]	n/a	FR1	4	R1347D
765.598	0.9	4285639	WORD_OFF	n/a	n/a	BENCH	3	7	[0, 0, 0]	n/a	FR1	4	R1347D
766.498	1.616	4286530	WORD	n/a	wordpools/wordpool_short_EN.txt	NURSE	4	7	[0, 0, 0]	n/a	FR1	4	R1347D
768.114	0.968	4288153	WORD_OFF	n/a	n/a	NURSE	4	7	[0, 0, 0]	n/a	FR1	4	R1347D
769.082	1.616	4289122	WORD	n/a	wordpools/wordpool_short_EN.txt	DART	5	7	[0, 0, 0]	n/a	FR1	4	R1347D
770.698	0.883	4290734	WORD_OFF	n/a	n/a	DART	5	7	[0, 0, 0]	n/a	FR1	4	R1347D
771.581	1.601	4291614	WORD	n/a	wordpools/wordpool_short_EN.txt	COIN	6	7	[0, 0, 0]	n/a	FR1	4	R1347D
773.182	0.916	4293214	WORD_OFF	n/a	n/a	COIN	6	7	[0, 0, 0]	n/a	FR1	4	R1347D
774.098	1.6	4294139	WORD	n/a	wordpools/wordpool_short_EN.txt	SUIT	7	7	[0, 0, 0]	n/a	FR1	4	R1347D
775.698	0.833	4295740	WORD_OFF	n/a	n/a	SUIT	7	7	[0, 0, 0]	n/a	FR1	4	R1347D
776.531	1.616	4296574	WORD	n/a	wordpools/wordpool_short_EN.txt	LAND	8	7	[0, 0, 0]	n/a	FR1	4	R1347D
778.147	0.984	4298186	WORD_OFF	n/a	n/a	LAND	8	7	[0, 0, 0]	n/a	FR1	4	R1347D
779.131	1.601	4299166	WORD	n/a	wordpools/wordpool_short_EN.txt	MEAL	9	7	[0, 0, 0]	n/a	FR1	4	R1347D
780.732	0.866	4300767	WORD_OFF	n/a	n/a	MEAL	9	7	[0, 0, 0]	n/a	FR1	4	R1347D
781.598	1.6	4301635	WORD	n/a	wordpools/wordpool_short_EN.txt	RUG	10	7	[0, 0, 0]	n/a	FR1	4	R1347D
783.198	0.833	4303236	WORD_OFF	n/a	n/a	RUG	10	7	[0, 0, 0]	n/a	FR1	4	R1347D
784.031	1.6	4304070	WORD	n/a	wordpools/wordpool_short_EN.txt	SEAT	11	7	[0, 0, 0]	n/a	FR1	4	R1347D
785.631	0.8	4305671	WORD_OFF	n/a	n/a	SEAT	11	7	[0, 0, 0]	n/a	FR1	4	R1347D
786.431	1.601	4306471	WORD	n/a	wordpools/wordpool_short_EN.txt	THUMB	12	7	[0, 0, 0]	n/a	FR1	4	R1347D
788.032	0.001	4308068	PROB	0.001	n/a	n/a	-999	7	[8, 6, 2]	16	FR1	4	R1347D
788.033	0.0	4308069	START	n/a	n/a	n/a	-999	7	[-999, -999, -999]	n/a	FR1	4	R1347D
788.031	0.002	4308083	WORD_OFF	n/a	n/a	THUMB	12	7	[0, 0, 0]	n/a	FR1	4	R1347D
788.033	0.0	4308083	ENCODING_END	n/a	n/a	n/a	-999	7	[0, 0, 0]	n/a	FR1	4	R1347D
788.033	35.431	4308083	DISTRACT_START	n/a	n/a	n/a	-999	7	[0, 0, 0]	n/a	FR1	4	R1347D
823.464	0.0	4343498	STOP	n/a	n/a	n/a	-999	7	[-999, -999, -999]	n/a	FR1	4	R1347D
823.464	1.034	4343502	DISTRACT_END	n/a	n/a	n/a	-999	7	[0, 0, 0]	n/a	FR1	4	R1347D
824.498	5.014	4344528	REC_START	n/a	n/a	n/a	-999	7	[0, 0, 0]	n/a	FR1	4	R1347D
829.512	1.091	4349546	REC_WORD	1.091	n/a	DART	5	7	[0, 0, 0]	n/a	FR1	4	R1347D
830.603	24.163	4350637	REC_WORD	24.163	n/a	HOLE	-999	7	[0, 0, 0]	n/a	FR1	4	R1347D
854.766	1.798	4374795	REC_END	n/a	n/a	n/a	-999	7	[0, 0, 0]	n/a	FR1	4	R1347D
856.564	10.351	4376599	COUNTDOWN_START	n/a	n/a	n/a	-999	8	[0, 0, 0]	n/a	FR1	4	R1347D
866.915	0.0	4386947	COUNTDOWN_END	n/a	n/a	n/a	-999	8	[0, 0, 0]	n/a	FR1	4	R1347D
866.915	2.049	4386947	ENCODING_START	n/a	n/a	n/a	-999	8	[0, 0, 0]	n/a	FR1	4	R1347D
868.964	1.617	4388999	WORD	n/a	wordpools/wordpool_short_EN.txt	WHEAT	1	8	[0, 0, 0]	n/a	FR1	4	R1347D
870.581	0.783	4390611	WORD_OFF	n/a	n/a	WHEAT	1	8	[0, 0, 0]	n/a	FR1	4	R1347D
871.364	1.6	4391400	WORD	n/a	wordpools/wordpool_short_EN.txt	EGG	2	8	[0, 0, 0]	n/a	FR1	4	R1347D
872.964	0.95	4393001	WORD_OFF	n/a	n/a	EGG	2	8	[0, 0, 0]	n/a	FR1	4	R1347D
873.914	1.6	4393947	WORD	n/a	wordpools/wordpool_short_EN.txt	HOG	3	8	[0, 0, 0]	n/a	FR1	4	R1347D
875.514	0.984	4395548	WORD_OFF	n/a	n/a	HOG	3	8	[0, 0, 0]	n/a	FR1	4	R1347D
876.498	1.601	4396529	WORD	n/a	wordpools/wordpool_short_EN.txt	CAMP	4	8	[0, 0, 0]	n/a	FR1	4	R1347D
878.099	0.765	4398130	WORD_OFF	n/a	n/a	CAMP	4	8	[0, 0, 0]	n/a	FR1	4	R1347D
878.864	1.6	4398896	WORD	n/a	wordpools/wordpool_short_EN.txt	CAGE	5	8	[0, 0, 0]	n/a	FR1	4	R1347D
880.464	1.0	4400497	WORD_OFF	n/a	n/a	CAGE	5	8	[0, 0, 0]	n/a	FR1	4	R1347D
881.464	1.618	4401500	WORD	n/a	wordpools/wordpool_short_EN.txt	FRUIT	6	8	[0, 0, 0]	n/a	FR1	4	R1347D
883.082	0.932	4403112	WORD_OFF	n/a	n/a	FRUIT	6	8	[0, 0, 0]	n/a	FR1	4	R1347D
884.014	1.617	4404048	WORD	n/a	wordpools/wordpool_short_EN.txt	RAMP	7	8	[0, 0, 0]	n/a	FR1	4	R1347D
885.631	0.882	4405660	WORD_OFF	n/a	n/a	RAMP	7	8	[0, 0, 0]	n/a	FR1	4	R1347D
886.513	1.601	4406550	WORD	n/a	wordpools/wordpool_short_EN.txt	BLOOD	8	8	[0, 0, 0]	n/a	FR1	4	R1347D
888.114	0.884	4408140	WORD_OFF	n/a	n/a	BLOOD	8	8	[0, 0, 0]	n/a	FR1	4	R1347D
888.998	1.6	4409030	WORD	n/a	wordpools/wordpool_short_EN.txt	CHAIN	9	8	[0, 0, 0]	n/a	FR1	4	R1347D
890.598	0.834	4410631	WORD_OFF	n/a	n/a	CHAIN	9	8	[0, 0, 0]	n/a	FR1	4	R1347D
891.432	1.616	4411465	WORD	n/a	wordpools/wordpool_short_EN.txt	SLIME	10	8	[0, 0, 0]	n/a	FR1	4	R1347D
893.048	0.95	4413077	WORD_OFF	n/a	n/a	SLIME	10	8	[0, 0, 0]	n/a	FR1	4	R1347D
893.998	1.616	4414024	WORD	n/a	wordpools/wordpool_short_EN.txt	GATE	11	8	[0, 0, 0]	n/a	FR1	4	R1347D
895.614	0.818	4415647	WORD_OFF	n/a	n/a	GATE	11	8	[0, 0, 0]	n/a	FR1	4	R1347D
896.432	1.616	4416459	WORD	n/a	wordpools/wordpool_short_EN.txt	SMILE	12	8	[0, 0, 0]	n/a	FR1	4	R1347D
898.048	0.001	4418078	PROB	0.001	n/a	n/a	-999	8	[1, 5, 3]	9	FR1	4	R1347D
898.049	0.0	4418079	START	n/a	n/a	n/a	-999	8	[-999, -999, -999]	n/a	FR1	4	R1347D
898.047	0.002	4418082	WORD_OFF	n/a	n/a	SMILE	12	8	[0, 0, 0]	n/a	FR1	4	R1347D
898.049	0.0	4418082	ENCODING_END	n/a	n/a	n/a	-999	8	[0, 0, 0]	n/a	FR1	4	R1347D
898.049	20.832	4418082	DISTRACT_START	n/a	n/a	n/a	-999	8	[0, 0, 0]	n/a	FR1	4	R1347D
918.881	0.0	4438910	STOP	n/a	n/a	n/a	-999	8	[-999, -999, -999]	n/a	FR1	4	R1347D
918.881	1.133	4438914	DISTRACT_END	n/a	n/a	n/a	-999	8	[0, 0, 0]	n/a	FR1	4	R1347D
920.014	2.462	4440042	REC_START	n/a	n/a	n/a	-999	8	[0, 0, 0]	n/a	FR1	4	R1347D
922.476	2.068	4442505	REC_WORD	2.068	n/a	HOG	3	8	[0, 0, 0]	n/a	FR1	4	R1347D
924.544	1.417	4444573	REC_WORD	1.417	n/a	CAMP	4	8	[0, 0, 0]	n/a	FR1	4	R1347D
925.961	19.645	4445990	REC_WORD	19.645	n/a	RAMP	7	8	[0, 0, 0]	n/a	FR1	4	R1347D
945.606	4.677	4465634	REC_WORD	4.677	n/a	PAGE	-999	8	[0, 0, 0]	n/a	FR1	4	R1347D
950.283	2.399	4470309	REC_END	n/a	n/a	n/a	-999	8	[0, 0, 0]	n/a	FR1	4	R1347D
952.682	10.35	4472710	COUNTDOWN_START	n/a	n/a	n/a	-999	9	[0, 0, 0]	n/a	FR1	4	R1347D
963.032	0.0	4483058	COUNTDOWN_END	n/a	n/a	n/a	-999	9	[0, 0, 0]	n/a	FR1	4	R1347D
963.032	2.082	4483058	ENCODING_START	n/a	n/a	n/a	-999	9	[0, 0, 0]	n/a	FR1	4	R1347D
965.114	1.6	4485144	WORD	n/a	wordpools/wordpool_short_EN.txt	BRANCH	1	9	[0, 0, 0]	n/a	FR1	4	R1347D
966.714	0.984	4486745	WORD_OFF	n/a	n/a	BRANCH	1	9	[0, 0, 0]	n/a	FR1	4	R1347D
967.698	1.6	4487725	WORD	n/a	wordpools/wordpool_short_EN.txt	PALM	2	9	[0, 0, 0]	n/a	FR1	4	R1347D
969.298	0.916	4489326	WORD_OFF	n/a	n/a	PALM	2	9	[0, 0, 0]	n/a	FR1	4	R1347D
970.214	1.618	4490239	WORD	n/a	wordpools/wordpool_short_EN.txt	SOIL	3	9	[0, 0, 0]	n/a	FR1	4	R1347D
971.832	0.966	4491862	WORD_OFF	n/a	n/a	SOIL	3	9	[0, 0, 0]	n/a	FR1	4	R1347D
972.798	1.616	4492821	WORD	n/a	wordpools/wordpool_short_EN.txt	STAR	4	9	[0, 0, 0]	n/a	FR1	4	R1347D
974.414	0.8	4494444	WORD_OFF	n/a	n/a	STAR	4	9	[0, 0, 0]	n/a	FR1	4	R1347D
975.214	1.618	4495244	WORD	n/a	wordpools/wordpool_short_EN.txt	MOSS	5	9	[0, 0, 0]	n/a	FR1	4	R1347D
976.832	0.832	4496856	WORD_OFF	n/a	n/a	MOSS	5	9	[0, 0, 0]	n/a	FR1	4	R1347D
977.664	1.6	4497690	WORD	n/a	wordpools/wordpool_short_EN.txt	GLOBE	6	9	[0, 0, 0]	n/a	FR1	4	R1347D
979.264	0.818	4499291	WORD_OFF	n/a	n/a	GLOBE	6	9	[0, 0, 0]	n/a	FR1	4	R1347D
980.082	1.615	4500103	WORD	n/a	wordpools/wordpool_short_EN.txt	BOX	7	9	[0, 0, 0]	n/a	FR1	4	R1347D
981.697	0.985	4501726	WORD_OFF	n/a	n/a	BOX	7	9	[0, 0, 0]	n/a	FR1	4	R1347D
982.682	1.599	4502707	WORD	n/a	wordpools/wordpool_short_EN.txt	NAIL	8	9	[0, 0, 0]	n/a	FR1	4	R1347D
984.281	0.817	4504307	WORD_OFF	n/a	n/a	NAIL	8	9	[0, 0, 0]	n/a	FR1	4	R1347D
985.098	1.6	4505130	WORD	n/a	wordpools/wordpool_short_EN.txt	NEST	9	9	[0, 0, 0]	n/a	FR1	4	R1347D
986.698	0.8	4506720	WORD_OFF	n/a	n/a	NEST	9	9	[0, 0, 0]	n/a	FR1	4	R1347D
987.498	1.6	4507520	WORD	n/a	wordpools/wordpool_short_EN.txt	STONE	10	9	[0, 0, 0]	n/a	FR1	4	R1347D
989.098	0.884	4509121	WORD_OFF	n/a	n/a	STONE	10	9	[0, 0, 0]	n/a	FR1	4	R1347D
989.982	1.616	4510011	WORD	n/a	wordpools/wordpool_short_EN.txt	THORN	11	9	[0, 0, 0]	n/a	FR1	4	R1347D
991.598	0.916	4511623	WORD_OFF	n/a	n/a	THORN	11	9	[0, 0, 0]	n/a	FR1	4	R1347D
992.514	1.6	4512536	WORD	n/a	wordpools/wordpool_short_EN.txt	HILL	12	9	[0, 0, 0]	n/a	FR1	4	R1347D
994.114	0.001	4514137	WORD_OFF	n/a	n/a	HILL	12	9	[0, 0, 0]	n/a	FR1	4	R1347D
994.115	0.0	4514137	ENCODING_END	n/a	n/a	n/a	-999	9	[0, 0, 0]	n/a	FR1	4	R1347D
994.114	0.001	4514139	PROB	0.001	n/a	n/a	-999	9	[4, 3, 1]	8	FR1	4	R1347D
994.115	0.0	4514140	START	n/a	n/a	n/a	-999	9	[-999, -999, -999]	n/a	FR1	4	R1347D
994.115	15.116	4514148	DISTRACT_START	n/a	n/a	n/a	-999	9	[0, 0, 0]	n/a	FR1	4	R1347D
1009.231	13.466	4529256	PROB	13.466	n/a	n/a	-999	9	[4, 8, 5]	17	FR1	4	R1347D
1022.697	0.0	4542721	STOP	n/a	n/a	n/a	-999	9	[-999, -999, -999]	n/a	FR1	4	R1347D
1022.697	1.067	4542725	DISTRACT_END	n/a	n/a	n/a	-999	9	[0, 0, 0]	n/a	FR1	4	R1347D
1023.764	11.376	4543784	REC_START	n/a	n/a	n/a	-999	9	[0, 0, 0]	n/a	FR1	4	R1347D
1035.14	0.72	4555163	REC_WORD	0.72	n/a	HILL	12	9	[0, 0, 0]	n/a	FR1	4	R1347D
1035.86	1.713	4555883	REC_WORD	1.713	n/a	BOX	7	9	[0, 0, 0]	n/a	FR1	4	R1347D
1037.573	1.38	4557596	REC_WORD	1.38	n/a	RAMP	-999	9	[0, 0, 0]	n/a	FR1	4	R1347D
1038.953	15.058	4558976	REC_WORD	15.058	n/a	CAMP	-999	9	[0, 0, 0]	n/a	FR1	4	R1347D
1054.011	2.537	4574029	REC_END	n/a	n/a	n/a	-999	9	[0, 0, 0]	n/a	FR1	4	R1347D
1056.548	10.351	4576577	COUNTDOWN_START	n/a	n/a	n/a	-999	10	[0, 0, 0]	n/a	FR1	4	R1347D
1066.899	0.0	4586925	COUNTDOWN_END	n/a	n/a	n/a	-999	10	[0, 0, 0]	n/a	FR1	4	R1347D
1066.899	2.032	4586925	ENCODING_START	n/a	n/a	n/a	-999	10	[0, 0, 0]	n/a	FR1	4	R1347D
1068.931	1.6	4588954	WORD	n/a	wordpools/wordpool_short_EN.txt	TROUT	1	10	[0, 0, 0]	n/a	FR1	4	R1347D
1070.531	0.85	4590555	WORD_OFF	n/a	n/a	TROUT	1	10	[0, 0, 0]	n/a	FR1	4	R1347D
1071.381	1.601	4591400	WORD	n/a	wordpools/wordpool_short_EN.txt	MIST	2	10	[0, 0, 0]	n/a	FR1	4	R1347D
1072.982	0.932	4593001	WORD_OFF	n/a	n/a	MIST	2	10	[0, 0, 0]	n/a	FR1	4	R1347D
1073.914	1.6	4593937	WORD	n/a	wordpools/wordpool_short_EN.txt	GUN	3	10	[0, 0, 0]	n/a	FR1	4	R1347D
1075.514	0.934	4595538	WORD_OFF	n/a	n/a	GUN	3	10	[0, 0, 0]	n/a	FR1	4	R1347D
1076.448	1.6	4596473	WORD	n/a	wordpools/wordpool_short_EN.txt	FARM	4	10	[0, 0, 0]	n/a	FR1	4	R1347D
1078.048	0.817	4598074	WORD_OFF	n/a	n/a	FARM	4	10	[0, 0, 0]	n/a	FR1	4	R1347D
1078.865	1.617	4598886	WORD	n/a	wordpools/wordpool_short_EN.txt	BOOK	5	10	[0, 0, 0]	n/a	FR1	4	R1347D
1080.482	0.916	4600498	WORD_OFF	n/a	n/a	BOOK	5	10	[0, 0, 0]	n/a	FR1	4	R1347D
1081.398	1.616	4601422	WORD	n/a	wordpools/wordpool_short_EN.txt	SKIN	6	10	[0, 0, 0]	n/a	FR1	4	R1347D
1083.014	0.884	4603034	WORD_OFF	n/a	n/a	SKIN	6	10	[0, 0, 0]	n/a	FR1	4	R1347D
1083.898	1.616	4603924	WORD	n/a	wordpools/wordpool_short_EN.txt	WEED	7	10	[0, 0, 0]	n/a	FR1	4	R1347D
1085.514	0.984	4605536	WORD_OFF	n/a	n/a	WEED	7	10	[0, 0, 0]	n/a	FR1	4	R1347D
1086.498	1.6	4606517	WORD	n/a	wordpools/wordpool_short_EN.txt	DEER	8	10	[0, 0, 0]	n/a	FR1	4	R1347D
1088.098	0.85	4608118	WORD_OFF	n/a	n/a	DEER	8	10	[0, 0, 0]	n/a	FR1	4	R1347D
1088.948	1.616	4608963	WORD	n/a	wordpools/wordpool_short_EN.txt	SHEET	9	10	[0, 0, 0]	n/a	FR1	4	R1347D
1090.564	0.8	4610587	WORD_OFF	n/a	n/a	SHEET	9	10	[0, 0, 0]	n/a	FR1	4	R1347D
1091.364	1.6	4611387	WORD	n/a	wordpools/wordpool_short_EN.txt	POND	10	10	[0, 0, 0]	n/a	FR1	4	R1347D
1092.964	0.767	4612988	WORD_OFF	n/a	n/a	POND	10	10	[0, 0, 0]	n/a	FR1	4	R1347D
1093.731	1.6	4613754	WORD	n/a	wordpools/wordpool_short_EN.txt	BOOT	11	10	[0, 0, 0]	n/a	FR1	4	R1347D
1095.331	0.867	4615355	WORD_OFF	n/a	n/a	BOOT	11	10	[0, 0, 0]	n/a	FR1	4	R1347D
1096.198	1.616	4616223	WORD	n/a	wordpools/wordpool_short_EN.txt	POT	12	10	[0, 0, 0]	n/a	FR1	4	R1347D
1097.814	0.0	4617834	PROB	0.0	n/a	n/a	-999	10	[5, 7, 2]	15	FR1	4	R1347D
1097.814	0.001	4617835	WORD_OFF	n/a	n/a	POT	12	10	[0, 0, 0]	n/a	FR1	4	R1347D
1097.815	0.0	4617835	ENCODING_END	n/a	n/a	n/a	-999	10	[0, 0, 0]	n/a	FR1	4	R1347D
1097.815	0.0	4617835	DISTRACT_START	n/a	n/a	n/a	-999	10	[0, 0, 0]	n/a	FR1	4	R1347D
1097.815	28.649	4617835	START	n/a	n/a	n/a	-999	10	[-999, -999, -999]	n/a	FR1	4	R1347D
1126.464	0.0	4646479	DISTRACT_END	n/a	n/a	n/a	-999	10	[0, 0, 0]	n/a	FR1	4	R1347D
1126.464	1.317	4646483	STOP	n/a	n/a	n/a	-999	10	[-999, -999, -999]	n/a	FR1	4	R1347D
1127.781	2.498	4647798	REC_START	n/a	n/a	n/a	-999	10	[0, 0, 0]	n/a	FR1	4	R1347D
1130.279	0.983	4650297	REC_WORD	0.983	n/a	HILL	-999	10	[0, 0, 0]	n/a	FR1	4	R1347D
1131.262	2.247	4651280	REC_WORD	2.247	n/a	BOX	-999	10	[0, 0, 0]	n/a	FR1	4	R1347D
1133.509	0.883	4653527	REC_WORD	0.883	n/a	FARM	4	10	[0, 0, 0]	n/a	FR1	4	R1347D
1134.392	2.733	4654410	REC_WORD	2.733	n/a	GUN	3	10	[0, 0, 0]	n/a	FR1	4	R1347D
1137.125	20.931	4657143	REC_WORD	20.931	n/a	DEER	8	10	[0, 0, 0]	n/a	FR1	4	R1347D
1158.056	4.658	4678076	REC_END	n/a	n/a	n/a	-999	10	[0, 0, 0]	n/a	FR1	4	R1347D
1162.714	10.351	4682732	COUNTDOWN_START	n/a	n/a	n/a	-999	11	[0, 0, 0]	n/a	FR1	4	R1347D
1173.065	0.0	4693080	COUNTDOWN_END	n/a	n/a	n/a	-999	11	[0, 0, 0]	n/a	FR1	4	R1347D
1173.065	1.932	4693080	ENCODING_START	n/a	n/a	n/a	-999	11	[0, 0, 0]	n/a	FR1	4	R1347D
1174.997	1.601	4695019	WORD	n/a	wordpools/wordpool_short_EN.txt	TANK	1	11	[0, 0, 0]	n/a	FR1	4	R1347D
1176.598	0.833	4696609	WORD_OFF	n/a	n/a	TANK	1	11	[0, 0, 0]	n/a	FR1	4	R1347D
1177.431	1.617	4697443	WORD	n/a	wordpools/wordpool_short_EN.txt	NECK	2	11	[0, 0, 0]	n/a	FR1	4	R1347D
1179.048	0.834	4699066	WORD_OFF	n/a	n/a	NECK	2	11	[0, 0, 0]	n/a	FR1	4	R1347D
1179.882	1.599	4699900	WORD	n/a	wordpools/wordpool_short_EN.txt	FLAG	3	11	[0, 0, 0]	n/a	FR1	4	R1347D
1181.481	0.817	4701501	WORD_OFF	n/a	n/a	FLAG	3	11	[0, 0, 0]	n/a	FR1	4	R1347D
1182.298	1.616	4702313	WORD	n/a	wordpools/wordpool_short_EN.txt	JAIL	4	11	[0, 0, 0]	n/a	FR1	4	R1347D
1183.914	0.934	4703925	WORD_OFF	n/a	n/a	JAIL	4	11	[0, 0, 0]	n/a	FR1	4	R1347D
1184.848	1.6	4704860	WORD	n/a	wordpools/wordpool_short_EN.txt	FROG	5	11	[0, 0, 0]	n/a	FR1	4	R1347D
1186.448	0.949	4706461	WORD_OFF	n/a	n/a	FROG	5	11	[0, 0, 0]	n/a	FR1	4	R1347D
1187.397	1.601	4707408	WORD	n/a	wordpools/wordpool_short_EN.txt	SLEEVE	6	11	[0, 0, 0]	n/a	FR1	4	R1347D
1188.998	0.766	4709009	WORD_OFF	n/a	n/a	SLEEVE	6	11	[0, 0, 0]	n/a	FR1	4	R1347D
1189.764	1.6	4709775	WORD	n/a	wordpools/wordpool_short_EN.txt	KITE	7	11	[0, 0, 0]	n/a	FR1	4	R1347D
1191.364	0.9	4711376	WORD_OFF	n/a	n/a	KITE	7	11	[0, 0, 0]	n/a	FR1	4	R1347D
1192.264	1.6	4712278	WORD	n/a	wordpools/wordpool_short_EN.txt	THREAD	8	11	[0, 0, 0]	n/a	FR1	4	R1347D
1193.864	0.95	4713879	WORD_OFF	n/a	n/a	THREAD	8	11	[0, 0, 0]	n/a	FR1	4	R1347D
1194.814	1.6	4714825	WORD	n/a	wordpools/wordpool_short_EN.txt	ROAD	9	11	[0, 0, 0]	n/a	FR1	4	R1347D
1196.414	0.85	4716426	WORD_OFF	n/a	n/a	ROAD	9	11	[0, 0, 0]	n/a	FR1	4	R1347D
1197.264	1.6	4717283	WORD	n/a	wordpools/wordpool_short_EN.txt	SKUNK	10	11	[0, 0, 0]	n/a	FR1	4	R1347D
1198.864	0.867	4718884	WORD_OFF	n/a	n/a	SKUNK	10	11	[0, 0, 0]	n/a	FR1	4	R1347D
1199.731	1.6	4719740	WORD	n/a	wordpools/wordpool_short_EN.txt	SPRING	11	11	[0, 0, 0]	n/a	FR1	4	R1347D
1201.331	0.866	4721341	WORD_OFF	n/a	n/a	SPRING	11	11	[0, 0, 0]	n/a	FR1	4	R1347D
1202.197	1.6	4722209	WORD	n/a	wordpools/wordpool_short_EN.txt	CRANE	12	11	[0, 0, 0]	n/a	FR1	4	R1347D
1203.797	0.001	4723810	WORD_OFF	n/a	n/a	CRANE	12	11	[0, 0, 0]	n/a	FR1	4	R1347D
1203.798	0.001	4723810	ENCODING_END	n/a	n/a	n/a	-999	11	[0, 0, 0]	n/a	FR1	4	R1347D
1203.799	0.0	4723814	START	n/a	n/a	n/a	-999	11	[-999, -999, -999]	n/a	FR1	4	R1347D
1203.799	0.0	4723814	PROB	0.0	n/a	n/a	-999	11	[5, 5, 1]	11	FR1	4	R1347D
1203.799	11.95	4723821	DISTRACT_START	n/a	n/a	n/a	-999	11	[0, 0, 0]	n/a	FR1	4	R1347D
1215.749	4.165	4735763	PROB	4.165	n/a	n/a	-999	11	[2, 2, 4]	8	FR1	4	R1347D
1219.914	9.867	4739928	PROB	9.867	n/a	n/a	-999	11	[6, 8, 5]	19	FR1	4	R1347D
1229.781	0.0	4749793	DISTRACT_END	n/a	n/a	n/a	-999	11	[0, 0, 0]	n/a	FR1	4	R1347D
1229.781	1.233	4749794	STOP	n/a	n/a	n/a	-999	11	[-999, -999, -999]	n/a	FR1	4	R1347D
1231.014	8.009	4751022	REC_START	n/a	n/a	n/a	-999	11	[0, 0, 0]	n/a	FR1	4	R1347D
1239.023	0.884	4759036	REC_WORD	0.884	n/a	SHORE	-999	11	[0, 0, 0]	n/a	FR1	4	R1347D
1239.907	21.358	4759920	REC_WORD	21.358	n/a	ROAD	9	11	[0, 0, 0]	n/a	FR1	4	R1347D
1261.265	2.233	4781278	REC_END	n/a	n/a	n/a	-999	11	[0, 0, 0]	n/a	FR1	4	R1347D
1263.498	10.351	4783510	COUNTDOWN_START	n/a	n/a	n/a	-999	12	[0, 0, 0]	n/a	FR1	4	R1347D
1273.849	0.0	4793858	COUNTDOWN_END	n/a	n/a	n/a	-999	12	[0, 0, 0]	n/a	FR1	4	R1347D
1273.849	1.916	4793858	ENCODING_START	n/a	n/a	n/a	-999	12	[0, 0, 0]	n/a	FR1	4	R1347D
1275.765	1.616	4795775	WORD	n/a	wordpools/wordpool_short_EN.txt	CHIN	1	12	[0, 0, 0]	n/a	FR1	4	R1347D
1277.381	0.9	4797387	WORD_OFF	n/a	n/a	CHIN	1	12	[0, 0, 0]	n/a	FR1	4	R1347D
1278.281	1.6	4798289	WORD	n/a	wordpools/wordpool_short_EN.txt	CHALK	2	12	[0, 0, 0]	n/a	FR1	4	R1347D
1279.881	0.767	4799889	WORD_OFF	n/a	n/a	CHALK	2	12	[0, 0, 0]	n/a	FR1	4	R1347D
1280.648	1.6	4800656	WORD	n/a	wordpools/wordpool_short_EN.txt	SUN	3	12	[0, 0, 0]	n/a	FR1	4	R1347D
1282.248	0.95	4802257	WORD_OFF	n/a	n/a	SUN	3	12	[0, 0, 0]	n/a	FR1	4	R1347D
1283.198	1.6	4803204	WORD	n/a	wordpools/wordpool_short_EN.txt	MOUSE	4	12	[0, 0, 0]	n/a	FR1	4	R1347D
1284.798	1.0	4804804	WORD_OFF	n/a	n/a	MOUSE	4	12	[0, 0, 0]	n/a	FR1	4	R1347D
1285.798	1.6	4805808	WORD	n/a	wordpools/wordpool_short_EN.txt	CONE	5	12	[0, 0, 0]	n/a	FR1	4	R1347D
1287.398	0.8	4807408	WORD_OFF	n/a	n/a	CONE	5	12	[0, 0, 0]	n/a	FR1	4	R1347D
1288.198	1.6	4808209	WORD	n/a	wordpools/wordpool_short_EN.txt	LIMB	6	12	[0, 0, 0]	n/a	FR1	4	R1347D
1289.798	0.967	4809809	WORD_OFF	n/a	n/a	LIMB	6	12	[0, 0, 0]	n/a	FR1	4	R1347D
1290.765	1.616	4810779	WORD	n/a	wordpools/wordpool_short_EN.txt	AISLE	7	12	[0, 0, 0]	n/a	FR1	4	R1347D
1292.381	0.899	4812391	WORD_OFF	n/a	n/a	AISLE	7	12	[0, 0, 0]	n/a	FR1	4	R1347D
1293.28	1.601	4813293	WORD	n/a	wordpools/wordpool_short_EN.txt	STEAM	8	12	[0, 0, 0]	n/a	FR1	4	R1347D
1294.881	0.801	4814893	WORD_OFF	n/a	n/a	STEAM	8	12	[0, 0, 0]	n/a	FR1	4	R1347D
1295.682	1.615	4815694	WORD	n/a	wordpools/wordpool_short_EN.txt	APE	9	12	[0, 0, 0]	n/a	FR1	4	R1347D
1297.297	0.85	4817306	WORD_OFF	n/a	n/a	APE	9	12	[0, 0, 0]	n/a	FR1	4	R1347D
1298.147	1.601	4818162	WORD	n/a	wordpools/wordpool_short_EN.txt	TOY	10	12	[0, 0, 0]	n/a	FR1	4	R1347D
1299.748	0.984	4819763	WORD_OFF	n/a	n/a	TOY	10	12	[0, 0, 0]	n/a	FR1	4	R1347D
1300.732	1.6	4820744	WORD	n/a	wordpools/wordpool_short_EN.txt	PLATE	11	12	[0, 0, 0]	n/a	FR1	4	R1347D
1302.332	0.966	4822345	WORD_OFF	n/a	n/a	PLATE	11	12	[0, 0, 0]	n/a	FR1	4	R1347D
1303.298	1.6	4823303	WORD	n/a	wordpools/wordpool_short_EN.txt	TAIL	12	12	[0, 0, 0]	n/a	FR1	4	R1347D
1304.898	0.001	4824904	WORD_OFF	n/a	n/a	TAIL	12	12	[0, 0, 0]	n/a	FR1	4	R1347D
1304.899	0.001	4824908	PROB	0.001	n/a	n/a	-999	12	[3, 4, 5]	13	FR1	4	R1347D
1304.9	0.0	4824909	START	n/a	n/a	n/a	-999	12	[-999, -999, -999]	n/a	FR1	4	R1347D
1304.9	0.0	4824915	ENCODING_END	n/a	n/a	n/a	-999	12	[0, 0, 0]	n/a	FR1	4	R1347D
1304.9	13.515	4824915	DISTRACT_START	n/a	n/a	n/a	-999	12	[0, 0, 0]	n/a	FR1	4	R1347D
1318.415	8.233	4838424	PROB	8.233	n/a	n/a	-999	12	[5, 2, 5]	12	FR1	4	R1347D
1326.648	0.0	4846656	STOP	n/a	n/a	n/a	-999	12	[-999, -999, -999]	n/a	FR1	4	R1347D
1326.648	1.05	4846660	DISTRACT_END	n/a	n/a	n/a	-999	12	[0, 0, 0]	n/a	FR1	4	R1347D
1327.698	4.949	4847708	REC_START	n/a	n/a	n/a	-999	12	[0, 0, 0]	n/a	FR1	4	R1347D
1332.647	0.848	4852655	REC_WORD	0.848	n/a	CHIN	1	12	[0, 0, 0]	n/a	FR1	4	R1347D
1333.495	4.26	4853503	REC_WORD	4.26	n/a	SUN	3	12	[0, 0, 0]	n/a	FR1	4	R1347D
1337.755	1.26	4857763	REC_WORD	1.26	n/a	SHORE	-999	12	[0, 0, 0]	n/a	FR1	4	R1347D
1339.015	0.14	4859023	REC_WORD_VV	0.14	n/a	<>	-999	12	[0, 0, 0]	n/a	FR1	4	R1347D
1339.155	0.931	4859163	REC_WORD	0.931	n/a	CHAIN	-999	12	[0, 0, 0]	n/a	FR1	4	R1347D
1340.086	0.322	4860094	REC_WORD	0.322	n/a	CHAIN	-999	12	[0, 0, 0]	n/a	FR1	4	R1347D
1340.408	1.83	4860416	REC_WORD	1.83	n/a	SUN	3	12	[0, 0, 0]	n/a	FR1	4	R1347D
1342.238	9.269	4862245	REC_WORD	9.269	n/a	SHORE	-999	12	[0, 0, 0]	n/a	FR1	4	R1347D
1351.507	6.431	4871514	REC_WORD	6.431	n/a	LIMB	6	12	[0, 0, 0]	n/a	FR1	4	R1347D
1357.938	0.0	4877942	REC_END	n/a	n/a	n/a	-999	12	[0, 0, 0]	n/a	FR1	4	R1347D
