onset	duration	sample	trial_type	response_time	stim_file	item_name	serialpos	list	test	answer	experiment	session	subject
0.0	1006.72	1232	INSTRUCT_START	n/a	n/a	n/a	-999	-999	[0, 0, 0]	n/a	FR1	0	R1339D
1006.72	3.735	1007898	INSTRUCT_END	n/a	n/a	n/a	-999	-999	[0, 0, 0]	n/a	FR1	0	R1339D
1010.455	9.946	1011633	MIC TEST_START	n/a	n/a	n/a	-999	-999	[0, 0, 0]	n/a	FR1	0	R1339D
1020.401	0.009	1021578	MIC TEST_END	n/a	n/a	n/a	-999	-999	[0, 0, 0]	n/a	FR1	0	R1339D
1020.41	0.0	1021587	TRIAL_START	n/a	n/a	n/a	-999	-1	[0, 0, 0]	n/a	FR1	0	R1339D
1020.41	0.0	1021587	TRIAL	n/a	n/a	n/a	-999	-1	[0, 0, 0]	n/a	FR1	0	R1339D
1020.41	2.614	1021587	WAITING_START	n/a	n/a	n/a	-999	-1	[0, 0, 0]	n/a	FR1	0	R1339D
1023.024	0.0	1024201	WAITING_END	n/a	n/a	n/a	-999	-1	[0, 0, 0]	n/a	FR1	0	R1339D
1023.024	10.429	1024201	COUNTDOWN_START	n/a	n/a	n/a	-999	-1	[0, 0, 0]	n/a	FR1	0	R1339D
1033.453	0.0	1034630	ORIENT_START	n/a	n/a	n/a	-999	-1	[0, 0, 0]	n/a	FR1	0	R1339D
1033.453	1.238	1034630	COUNTDOWN_END	n/a	n/a	n/a	-999	-1	[0, 0, 0]	n/a	FR1	0	R1339D
1034.691	0.0	1035868	ORIENT_END	n/a	n/a	n/a	-999	-1	[0, 0, 0]	n/a	FR1	0	R1339D
1034.691	0.778	1035868	ENCODING_START	n/a	n/a	n/a	-999	-1	[0, 0, 0]	n/a	FR1	0	R1339D
1035.469	1.624	1036646	WORD	n/a	n/a	RHINO	1	-1	[0, 0, 0]	n/a	FR1	0	R1339D
1037.093	1.141	1038269	WORD_OFF	n/a	n/a	RHINO	1	-1	[0, 0, 0]	n/a	FR1	0	R1339D
1038.234	1.626	1039410	WORD	n/a	n/a	IMAGE	2	-1	[0, 0, 0]	n/a	FR1	0	R1339D
1039.86	0.999	1041036	WORD_OFF	n/a	n/a	IMAGE	2	-1	[0, 0, 0]	n/a	FR1	0	R1339D
1040.859	1.635	1042035	WORD	n/a	n/a	COTTON	3	-1	[0, 0, 0]	n/a	FR1	0	R1339D
1042.494	0.784	1043670	WORD_OFF	n/a	n/a	COTTON	3	-1	[0, 0, 0]	n/a	FR1	0	R1339D
1043.278	1.633	1044454	WORD	n/a	n/a	CAMEL	4	-1	[0, 0, 0]	n/a	FR1	0	R1339D
1044.911	0.853	1046087	WORD_OFF	n/a	n/a	CAMEL	4	-1	[0, 0, 0]	n/a	FR1	0	R1339D
1045.764	1.63	1046940	WORD	n/a	n/a	BABY	5	-1	[0, 0, 0]	n/a	FR1	0	R1339D
1047.394	0.959	1048570	WORD_OFF	n/a	n/a	BABY	5	-1	[0, 0, 0]	n/a	FR1	0	R1339D
1048.353	1.625	1049529	WORD	n/a	n/a	BEAM	6	-1	[0, 0, 0]	n/a	FR1	0	R1339D
1049.978	1.127	1051154	WORD_OFF	n/a	n/a	BEAM	6	-1	[0, 0, 0]	n/a	FR1	0	R1339D
1051.105	1.623	1052281	WORD	n/a	n/a	RING	7	-1	[0, 0, 0]	n/a	FR1	0	R1339D
1052.728	0.857	1053904	WORD_OFF	n/a	n/a	RING	7	-1	[0, 0, 0]	n/a	FR1	0	R1339D
1053.585	1.611	1054761	WORD	n/a	n/a	TONGUE	8	-1	[0, 0, 0]	n/a	FR1	0	R1339D
1055.196	1.144	1056372	WORD_OFF	n/a	n/a	TONGUE	8	-1	[0, 0, 0]	n/a	FR1	0	R1339D
1056.34	1.623	1057515	WORD	n/a	n/a	CHEST	9	-1	[0, 0, 0]	n/a	FR1	0	R1339D
1057.963	0.97	1059138	WORD_OFF	n/a	n/a	CHEST	9	-1	[0, 0, 0]	n/a	FR1	0	R1339D
1058.933	1.63	1060108	WORD	n/a	n/a	FLOOD	10	-1	[0, 0, 0]	n/a	FR1	0	R1339D
1060.563	0.827	1061738	WORD_OFF	n/a	n/a	FLOOD	10	-1	[0, 0, 0]	n/a	FR1	0	R1339D
1061.39	1.624	1062565	WORD	n/a	n/a	WATCH	11	-1	[0, 0, 0]	n/a	FR1	0	R1339D
1063.014	0.983	1064189	WORD_OFF	n/a	n/a	WATCH	11	-1	[0, 0, 0]	n/a	FR1	0	R1339D
1063.997	1.633	1065172	WORD	n/a	n/a	WAGON	12	-1	[0, 0, 0]	n/a	FR1	0	R1339D
1065.63	0.0	1066805	WORD_OFF	n/a	n/a	WAGON	12	-1	[0, 0, 0]	n/a	FR1	0	R1339D
1065.63	0.001	1066805	ENCODING_END	n/a	n/a	n/a	-999	-1	[0, 0, 0]	n/a	FR1	0	R1339D
1065.631	0.0	1066806	DISTRACT_START	n/a	n/a	n/a	-999	-1	[0, 0, 0]	n/a	FR1	0	R1339D
1065.631	0.015	1066806	START	n/a	n/a	n/a	-999	-1	[-999, -999, -999]	n/a	FR1	0	R1339D
1065.646	8.32	1066821	PROB	8.32	n/a	n/a	-999	-1	[1, 7, 2]	10	FR1	0	R1339D
1073.966	3.384	1075141	PROB	3.384	n/a	n/a	-999	-1	[9, 5, 1]	15	FR1	0	R1339D
1077.35	3.684	1078524	PROB	3.684	n/a	n/a	-999	-1	[2, 8, 6]	16	FR1	0	R1339D
1081.034	3.884	1082208	PROB	3.884	n/a	n/a	-999	-1	[7, 1, 6]	14	FR1	0	R1339D
1084.918	3.711	1086092	PROB	3.711	n/a	n/a	-999	-1	[6, 4, 7]	17	FR1	0	R1339D
1088.629	0.022	1089803	STOP	n/a	n/a	n/a	-999	-1	[-999, -999, -999]	n/a	FR1	0	R1339D
1088.651	0.564	1089825	DISTRACT_END	n/a	n/a	n/a	-999	-1	[0, 0, 0]	n/a	FR1	0	R1339D
1089.215	1.537	1090389	RETRIEVAL_ORIENT_START	n/a	n/a	n/a	-999	-1	[0, 0, 0]	n/a	FR1	0	R1339D
1090.752	0.001	1091926	RETRIEVAL_ORIENT_END	n/a	n/a	n/a	-999	-1	[0, 0, 0]	n/a	FR1	0	R1339D
1090.753	0.0	1091927	REC_START	n/a	n/a	n/a	-999	-1	[0, 0, 0]	n/a	FR1	0	R1339D
1090.753	30.01	1091927	REC_WORD_VV	30.01	n/a	<>	-999	-1	[0, 0, 0]	n/a	FR1	0	R1339D
1120.763	0.0	1121935	PRACTICE_POST_INSTRUCT_START	n/a	n/a	n/a	-999	-1	[0, 0, 0]	n/a	FR1	0	R1339D
1120.763	18.533	1121935	REC_END	n/a	n/a	n/a	-999	-1	[0, 0, 0]	n/a	FR1	0	R1339D
1139.296	0.0	1140467	PRACTICE_POST_INSTRUCT_END	n/a	n/a	n/a	-999	-1	[0, 0, 0]	n/a	FR1	0	R1339D
1139.296	0.017	1140467	TRIAL_END	n/a	n/a	n/a	-999	-1	[0, 0, 0]	n/a	FR1	0	R1339D
1139.313	0.0	1140484	TRIAL_START	n/a	n/a	n/a	-999	1	[0, 0, 0]	n/a	FR1	0	R1339D
1139.313	0.0	1140484	TRIAL	n/a	n/a	n/a	-999	1	[0, 0, 0]	n/a	FR1	0	R1339D
1139.313	2.715	1140484	WAITING_START	n/a	n/a	n/a	-999	1	[0, 0, 0]	n/a	FR1	0	R1339D
1142.028	0.001	1143199	WAITING_END	n/a	n/a	n/a	-999	1	[0, 0, 0]	n/a	FR1	0	R1339D
1142.029	10.43	1143200	COUNTDOWN_START	n/a	n/a	n/a	-999	1	[0, 0, 0]	n/a	FR1	0	R1339D
1152.459	0.001	1153629	COUNTDOWN_END	n/a	n/a	n/a	-999	1	[0, 0, 0]	n/a	FR1	0	R1339D
1152.46	1.203	1153630	ORIENT_START	n/a	n/a	n/a	-999	1	[0, 0, 0]	n/a	FR1	0	R1339D
1153.663	0.0	1154833	ENCODING_START	n/a	n/a	n/a	-999	1	[0, 0, 0]	n/a	FR1	0	R1339D
1153.663	1.124	1154833	ORIENT_END	n/a	n/a	n/a	-999	1	[0, 0, 0]	n/a	FR1	0	R1339D
1154.787	1.627	1155957	WORD	n/a	wordpools/wordpool_EN.txt	WOLF	1	1	[0, 0, 0]	n/a	FR1	0	R1339D
1156.414	0.797	1157584	WORD_OFF	n/a	n/a	WOLF	1	1	[0, 0, 0]	n/a	FR1	0	R1339D
1157.211	1.621	1158381	WORD	n/a	wordpools/wordpool_EN.txt	SOUP	2	1	[0, 0, 0]	n/a	FR1	0	R1339D
1158.832	1.055	1160002	WORD_OFF	n/a	n/a	SOUP	2	1	[0, 0, 0]	n/a	FR1	0	R1339D
1159.887	1.628	1161057	WORD	n/a	wordpools/wordpool_EN.txt	DIME	3	1	[0, 0, 0]	n/a	FR1	0	R1339D
1161.515	1.03	1162685	WORD_OFF	n/a	n/a	DIME	3	1	[0, 0, 0]	n/a	FR1	0	R1339D
1162.545	1.638	1163715	WORD	n/a	wordpools/wordpool_EN.txt	SKY	4	1	[0, 0, 0]	n/a	FR1	0	R1339D
1164.183	0.849	1165353	WORD_OFF	n/a	n/a	SKY	4	1	[0, 0, 0]	n/a	FR1	0	R1339D
1165.032	1.633	1166202	WORD	n/a	wordpools/wordpool_EN.txt	CLOCK	5	1	[0, 0, 0]	n/a	FR1	0	R1339D
1166.665	0.782	1167835	WORD_OFF	n/a	n/a	CLOCK	5	1	[0, 0, 0]	n/a	FR1	0	R1339D
1167.447	1.636	1168617	WORD	n/a	wordpools/wordpool_EN.txt	SOAP	6	1	[0, 0, 0]	n/a	FR1	0	R1339D
1169.083	1.014	1170252	WORD_OFF	n/a	n/a	SOAP	6	1	[0, 0, 0]	n/a	FR1	0	R1339D
1170.097	1.636	1171266	WORD	n/a	wordpools/wordpool_EN.txt	RAIN	7	1	[0, 0, 0]	n/a	FR1	0	R1339D
1171.733	1.017	1172902	WORD_OFF	n/a	n/a	RAIN	7	1	[0, 0, 0]	n/a	FR1	0	R1339D
1172.75	1.634	1173919	WORD	n/a	wordpools/wordpool_EN.txt	PET	8	1	[0, 0, 0]	n/a	FR1	0	R1339D
1174.384	1.046	1175553	WORD_OFF	n/a	n/a	PET	8	1	[0, 0, 0]	n/a	FR1	0	R1339D
1175.43	1.622	1176599	WORD	n/a	wordpools/wordpool_EN.txt	CALF	9	1	[0, 0, 0]	n/a	FR1	0	R1339D
1177.052	0.812	1178221	WORD_OFF	n/a	n/a	CALF	9	1	[0, 0, 0]	n/a	FR1	0	R1339D
1177.864	1.621	1179033	WORD	n/a	wordpools/wordpool_EN.txt	APE	10	1	[0, 0, 0]	n/a	FR1	0	R1339D
1179.485	1.075	1180654	WORD_OFF	n/a	n/a	APE	10	1	[0, 0, 0]	n/a	FR1	0	R1339D
1180.56	1.626	1181729	WORD	n/a	wordpools/wordpool_EN.txt	SCHOOL	11	1	[0, 0, 0]	n/a	FR1	0	R1339D
1182.186	0.833	1183355	WORD_OFF	n/a	n/a	SCHOOL	11	1	[0, 0, 0]	n/a	FR1	0	R1339D
1183.019	1.633	1184188	WORD	n/a	wordpools/wordpool_EN.txt	CLIFF	12	1	[0, 0, 0]	n/a	FR1	0	R1339D
1184.652	0.0	1185821	WORD_OFF	n/a	n/a	CLIFF	12	1	[0, 0, 0]	n/a	FR1	0	R1339D
1184.652	0.001	1185821	ENCODING_END	n/a	n/a	n/a	-999	1	[0, 0, 0]	n/a	FR1	0	R1339D
1184.653	0.0	1185822	DISTRACT_START	n/a	n/a	n/a	-999	1	[0, 0, 0]	n/a	FR1	0	R1339D
1184.653	0.015	1185822	START	n/a	n/a	n/a	-999	1	[-999, -999, -999]	n/a	FR1	0	R1339D
1184.668	10.42	1185837	PROB	10.42	n/a	n/a	-999	1	[2, 8, 4]	14	FR1	0	R1339D
1195.088	3.817	1196256	PROB	3.817	n/a	n/a	-999	1	[1, 6, 2]	9	FR1	0	R1339D
1198.905	3.134	1200073	PROB	3.134	n/a	n/a	-999	1	[7, 6, 3]	16	FR1	0	R1339D
1202.039	3.038	1203207	PROB	3.038	n/a	n/a	-999	1	[3, 6, 7]	16	FR1	0	R1339D
1205.077	0.013	1206245	STOP	n/a	n/a	n/a	-999	1	[-999, -999, -999]	n/a	FR1	0	R1339D
1205.09	0.624	1206258	DISTRACT_END	n/a	n/a	n/a	-999	1	[0, 0, 0]	n/a	FR1	0	R1339D
1205.714	1.593	1206882	RETRIEVAL_ORIENT_START	n/a	n/a	n/a	-999	1	[0, 0, 0]	n/a	FR1	0	R1339D
1207.307	0.0	1208474	RETRIEVAL_ORIENT_END	n/a	n/a	n/a	-999	1	[0, 0, 0]	n/a	FR1	0	R1339D
1207.307	8.632	1208474	REC_START	n/a	n/a	n/a	-999	1	[0, 0, 0]	n/a	FR1	0	R1339D
1215.939	10.488	1217106	REC_WORD_VV	10.488	n/a	<>	-999	1	[0, 0, 0]	n/a	FR1	0	R1339D
1226.427	1.031	1227593	REC_WORD_VV	1.031	n/a	<>	-999	1	[0, 0, 0]	n/a	FR1	0	R1339D
1227.458	0.751	1228624	REC_WORD	0.751	n/a	WOLF	1	1	[0, 0, 0]	n/a	FR1	0	R1339D
1228.209	0.871	1229375	REC_WORD	0.871	n/a	BABY	-999	1	[0, 0, 0]	n/a	FR1	0	R1339D
1229.08	2.729	1230246	REC_WORD	2.729	n/a	BEAM	-999	1	[0, 0, 0]	n/a	FR1	0	R1339D
1231.809	5.51	1232975	REC_WORD_VV	5.51	n/a	<>	-999	1	[0, 0, 0]	n/a	FR1	0	R1339D
1237.319	0.001	1238485	REC_END	n/a	n/a	n/a	-999	1	[0, 0, 0]	n/a	FR1	0	R1339D
1237.32	0.015	1238486	TRIAL_END	n/a	n/a	n/a	-999	1	[0, 0, 0]	n/a	FR1	0	R1339D
1237.335	0.0	1238501	TRIAL_START	n/a	n/a	n/a	-999	2	[0, 0, 0]	n/a	FR1	0	R1339D
1237.335	0.0	1238501	TRIAL	n/a	n/a	n/a	-999	2	[0, 0, 0]	n/a	FR1	0	R1339D
1237.335	2.511	1238501	WAITING_START	n/a	n/a	n/a	-999	2	[0, 0, 0]	n/a	FR1	0	R1339D
1239.846	0.001	1241012	WAITING_END	n/a	n/a	n/a	-999	2	[0, 0, 0]	n/a	FR1	0	R1339D
1239.847	10.429	1241013	COUNTDOWN_START	n/a	n/a	n/a	-999	2	[0, 0, 0]	n/a	FR1	0	R1339D
1250.276	0.0	1251441	ORIENT_START	n/a	n/a	n/a	-999	2	[0, 0, 0]	n/a	FR1	0	R1339D
1250.276	1.139	1251441	COUNTDOWN_END	n/a	n/a	n/a	-999	2	[0, 0, 0]	n/a	FR1	0	R1339D
1251.415	0.0	1252580	ORIENT_END	n/a	n/a	n/a	-999	2	[0, 0, 0]	n/a	FR1	0	R1339D
1251.415	0.894	1252580	ENCODING_START	n/a	n/a	n/a	-999	2	[0, 0, 0]	n/a	FR1	0	R1339D
1252.309	1.623	1253474	WORD	n/a	wordpools/wordpool_EN.txt	CAVE	1	2	[0, 0, 0]	n/a	FR1	0	R1339D
1253.932	1.008	1255097	WORD_OFF	n/a	n/a	CAVE	1	2	[0, 0, 0]	n/a	FR1	0	R1339D
1254.94	1.625	1256105	WORD	n/a	wordpools/wordpool_EN.txt	DOLL	2	2	[0, 0, 0]	n/a	FR1	0	R1339D
1256.565	0.987	1257730	WORD_OFF	n/a	n/a	DOLL	2	2	[0, 0, 0]	n/a	FR1	0	R1339D
1257.552	1.614	1258717	WORD	n/a	wordpools/wordpool_EN.txt	KEY	3	2	[0, 0, 0]	n/a	FR1	0	R1339D
1259.166	0.799	1260331	WORD_OFF	n/a	n/a	KEY	3	2	[0, 0, 0]	n/a	FR1	0	R1339D
1259.965	1.634	1261130	WORD	n/a	wordpools/wordpool_EN.txt	BEACH	4	2	[0, 0, 0]	n/a	FR1	0	R1339D
1261.599	1.111	1262764	WORD_OFF	n/a	n/a	BEACH	4	2	[0, 0, 0]	n/a	FR1	0	R1339D
1262.71	1.624	1263874	WORD	n/a	wordpools/wordpool_EN.txt	ELF	5	2	[0, 0, 0]	n/a	FR1	0	R1339D
1264.334	0.877	1265498	WORD_OFF	n/a	n/a	ELF	5	2	[0, 0, 0]	n/a	FR1	0	R1339D
1265.211	1.624	1266375	WORD	n/a	wordpools/wordpool_EN.txt	PHONE	6	2	[0, 0, 0]	n/a	FR1	0	R1339D
1266.835	0.876	1267999	WORD_OFF	n/a	n/a	PHONE	6	2	[0, 0, 0]	n/a	FR1	0	R1339D
1267.711	1.624	1268875	WORD	n/a	wordpools/wordpool_EN.txt	HEART	7	2	[0, 0, 0]	n/a	FR1	0	R1339D
1269.335	0.861	1270499	WORD_OFF	n/a	n/a	HEART	7	2	[0, 0, 0]	n/a	FR1	0	R1339D
1270.196	1.623	1271360	WORD	n/a	wordpools/wordpool_EN.txt	SNOW	8	2	[0, 0, 0]	n/a	FR1	0	R1339D
1271.819	1.095	1272983	WORD_OFF	n/a	n/a	SNOW	8	2	[0, 0, 0]	n/a	FR1	0	R1339D
1272.914	1.621	1274078	WORD	n/a	wordpools/wordpool_EN.txt	MOON	9	2	[0, 0, 0]	n/a	FR1	0	R1339D
1274.535	0.774	1275699	WORD_OFF	n/a	n/a	MOON	9	2	[0, 0, 0]	n/a	FR1	0	R1339D
1275.309	1.627	1276473	WORD	n/a	wordpools/wordpool_EN.txt	SQUARE	10	2	[0, 0, 0]	n/a	FR1	0	R1339D
1276.936	0.968	1278100	WORD_OFF	n/a	n/a	SQUARE	10	2	[0, 0, 0]	n/a	FR1	0	R1339D
1277.904	1.632	1279068	WORD	n/a	wordpools/wordpool_EN.txt	FLEA	11	2	[0, 0, 0]	n/a	FR1	0	R1339D
1279.536	1.025	1280700	WORD_OFF	n/a	n/a	FLEA	11	2	[0, 0, 0]	n/a	FR1	0	R1339D
1280.561	1.626	1281725	WORD	n/a	wordpools/wordpool_EN.txt	STOOL	12	2	[0, 0, 0]	n/a	FR1	0	R1339D
1282.187	0.001	1283350	WORD_OFF	n/a	n/a	STOOL	12	2	[0, 0, 0]	n/a	FR1	0	R1339D
1282.188	0.0	1283351	ENCODING_END	n/a	n/a	n/a	-999	2	[0, 0, 0]	n/a	FR1	0	R1339D
1282.188	0.0	1283351	DISTRACT_START	n/a	n/a	n/a	-999	2	[0, 0, 0]	n/a	FR1	0	R1339D
1282.188	0.016	1283351	START	n/a	n/a	n/a	-999	2	[-999, -999, -999]	n/a	FR1	0	R1339D
1282.204	6.551	1283367	PROB	6.551	n/a	n/a	-999	2	[9, 6, 9]	24	FR1	0	R1339D
1288.755	5.451	1289918	PROB	5.451	n/a	n/a	-999	2	[8, 1, 4]	13	FR1	0	R1339D
1294.206	6.018	1295369	PROB	6.018	n/a	n/a	-999	2	[8, 6, 5]	19	FR1	0	R1339D
1300.224	3.193	1301386	PROB	3.193	n/a	n/a	-999	2	[2, 2, 4]	8	FR1	0	R1339D
1303.417	0.008	1304579	STOP	n/a	n/a	n/a	-999	2	[-999, -999, -999]	n/a	FR1	0	R1339D
1303.425	0.658	1304587	DISTRACT_END	n/a	n/a	n/a	-999	2	[0, 0, 0]	n/a	FR1	0	R1339D
1304.083	1.624	1305245	RETRIEVAL_ORIENT_START	n/a	n/a	n/a	-999	2	[0, 0, 0]	n/a	FR1	0	R1339D
1305.707	0.0	1306869	RETRIEVAL_ORIENT_END	n/a	n/a	n/a	-999	2	[0, 0, 0]	n/a	FR1	0	R1339D
1305.707	0.619	1306869	REC_START	n/a	n/a	n/a	-999	2	[0, 0, 0]	n/a	FR1	0	R1339D
1306.326	0.702	1307488	REC_WORD	0.702	n/a	CAVE	1	2	[0, 0, 0]	n/a	FR1	0	R1339D
1307.028	1.357	1308190	REC_WORD	1.357	n/a	DOLL	2	2	[0, 0, 0]	n/a	FR1	0	R1339D
1308.385	1.28	1309547	REC_WORD	1.28	n/a	SNOW	8	2	[0, 0, 0]	n/a	FR1	0	R1339D
1309.665	0.748	1310827	REC_WORD	0.748	n/a	ELF	5	2	[0, 0, 0]	n/a	FR1	0	R1339D
1310.413	1.905	1311575	REC_WORD	1.905	n/a	PHONE	6	2	[0, 0, 0]	n/a	FR1	0	R1339D
1312.318	12.71	1313480	REC_WORD	12.71	n/a	SQUARE	10	2	[0, 0, 0]	n/a	FR1	0	R1339D
1325.028	10.691	1326189	REC_WORD	10.691	n/a	SNOW	8	2	[0, 0, 0]	n/a	FR1	0	R1339D
1335.719	0.001	1336880	REC_END	n/a	n/a	n/a	-999	2	[0, 0, 0]	n/a	FR1	0	R1339D
1335.72	0.017	1336881	TRIAL_END	n/a	n/a	n/a	-999	2	[0, 0, 0]	n/a	FR1	0	R1339D
1335.737	0.0	1336898	TRIAL_START	n/a	n/a	n/a	-999	3	[0, 0, 0]	n/a	FR1	0	R1339D
1335.737	0.0	1336898	TRIAL	n/a	n/a	n/a	-999	3	[0, 0, 0]	n/a	FR1	0	R1339D
1335.737	4.478	1336898	WAITING_START	n/a	n/a	n/a	-999	3	[0, 0, 0]	n/a	FR1	0	R1339D
1340.215	0.0	1341375	COUNTDOWN_START	n/a	n/a	n/a	-999	3	[0, 0, 0]	n/a	FR1	0	R1339D
1340.215	10.429	1341375	WAITING_END	n/a	n/a	n/a	-999	3	[0, 0, 0]	n/a	FR1	0	R1339D
1350.644	0.0	1351804	COUNTDOWN_END	n/a	n/a	n/a	-999	3	[0, 0, 0]	n/a	FR1	0	R1339D
1350.644	1.088	1351804	ORIENT_START	n/a	n/a	n/a	-999	3	[0, 0, 0]	n/a	FR1	0	R1339D
1351.732	0.001	1352892	ORIENT_END	n/a	n/a	n/a	-999	3	[0, 0, 0]	n/a	FR1	0	R1339D
1351.733	0.8	1352893	ENCODING_START	n/a	n/a	n/a	-999	3	[0, 0, 0]	n/a	FR1	0	R1339D
1352.533	1.618	1353693	WORD	n/a	wordpools/wordpool_EN.txt	STEAM	1	3	[0, 0, 0]	n/a	FR1	0	R1339D
1354.151	0.938	1355311	WORD_OFF	n/a	n/a	STEAM	1	3	[0, 0, 0]	n/a	FR1	0	R1339D
1355.089	1.628	1356249	WORD	n/a	wordpools/wordpool_EN.txt	TOAD	2	3	[0, 0, 0]	n/a	FR1	0	R1339D
1356.717	1.109	1357876	WORD_OFF	n/a	n/a	TOAD	2	3	[0, 0, 0]	n/a	FR1	0	R1339D
1357.826	1.626	1358985	WORD	n/a	wordpools/wordpool_EN.txt	TENT	3	3	[0, 0, 0]	n/a	FR1	0	R1339D
1359.452	0.808	1360611	WORD_OFF	n/a	n/a	TENT	3	3	[0, 0, 0]	n/a	FR1	0	R1339D
1360.26	1.625	1361419	WORD	n/a	wordpools/wordpool_EN.txt	NOSE	4	3	[0, 0, 0]	n/a	FR1	0	R1339D
1361.885	1.095	1363044	WORD_OFF	n/a	n/a	NOSE	4	3	[0, 0, 0]	n/a	FR1	0	R1339D
1362.98	1.621	1364139	WORD	n/a	wordpools/wordpool_EN.txt	PLATE	5	3	[0, 0, 0]	n/a	FR1	0	R1339D
1364.601	0.938	1365760	WORD_OFF	n/a	n/a	PLATE	5	3	[0, 0, 0]	n/a	FR1	0	R1339D
1365.539	1.631	1366698	WORD	n/a	wordpools/wordpool_EN.txt	JEEP	6	3	[0, 0, 0]	n/a	FR1	0	R1339D
1367.17	0.857	1368329	WORD_OFF	n/a	n/a	JEEP	6	3	[0, 0, 0]	n/a	FR1	0	R1339D
1368.027	1.625	1369186	WORD	n/a	wordpools/wordpool_EN.txt	FLAME	7	3	[0, 0, 0]	n/a	FR1	0	R1339D
1369.652	0.815	1370811	WORD_OFF	n/a	n/a	FLAME	7	3	[0, 0, 0]	n/a	FR1	0	R1339D
1370.467	1.637	1371626	WORD	n/a	wordpools/wordpool_EN.txt	FOOD	8	3	[0, 0, 0]	n/a	FR1	0	R1339D
1372.104	1.093	1373263	WORD_OFF	n/a	n/a	FOOD	8	3	[0, 0, 0]	n/a	FR1	0	R1339D
1373.197	1.624	1374356	WORD	n/a	wordpools/wordpool_EN.txt	BRANCH	9	3	[0, 0, 0]	n/a	FR1	0	R1339D
1374.821	1.075	1375980	WORD_OFF	n/a	n/a	BRANCH	9	3	[0, 0, 0]	n/a	FR1	0	R1339D
1375.896	1.626	1377054	WORD	n/a	wordpools/wordpool_EN.txt	WEED	10	3	[0, 0, 0]	n/a	FR1	0	R1339D
1377.522	1.085	1378680	WORD_OFF	n/a	n/a	WEED	10	3	[0, 0, 0]	n/a	FR1	0	R1339D
1378.607	1.632	1379765	WORD	n/a	wordpools/wordpool_EN.txt	VAN	11	3	[0, 0, 0]	n/a	FR1	0	R1339D
1380.239	1.036	1381397	WORD_OFF	n/a	n/a	VAN	11	3	[0, 0, 0]	n/a	FR1	0	R1339D
1381.275	1.632	1382433	WORD	n/a	wordpools/wordpool_EN.txt	CAPE	12	3	[0, 0, 0]	n/a	FR1	0	R1339D
1382.907	0.001	1384065	WORD_OFF	n/a	n/a	CAPE	12	3	[0, 0, 0]	n/a	FR1	0	R1339D
1382.908	0.0	1384066	ENCODING_END	n/a	n/a	n/a	-999	3	[0, 0, 0]	n/a	FR1	0	R1339D
1382.908	0.0	1384066	DISTRACT_START	n/a	n/a	n/a	-999	3	[0, 0, 0]	n/a	FR1	0	R1339D
1382.908	0.014	1384066	START	n/a	n/a	n/a	-999	3	[-999, -999, -999]	n/a	FR1	0	R1339D
1382.922	4.168	1384080	PROB	4.168	n/a	n/a	-999	3	[3, 3, 8]	14	FR1	0	R1339D
1387.09	3.667	1388248	PROB	3.667	n/a	n/a	-999	3	[6, 3, 9]	18	FR1	0	R1339D
1390.757	2.717	1391915	PROB	2.717	n/a	n/a	-999	3	[6, 8, 2]	16	FR1	0	R1339D
1393.474	3.133	1394632	PROB	3.133	n/a	n/a	-999	3	[5, 1, 2]	8	FR1	0	R1339D
1396.607	2.468	1397764	PROB	2.468	n/a	n/a	-999	3	[5, 2, 8]	15	FR1	0	R1339D
1399.075	5.172	1400232	PROB	5.172	n/a	n/a	-999	3	[3, 9, 6]	18	FR1	0	R1339D
1404.247	0.013	1405404	STOP	n/a	n/a	n/a	-999	3	[-999, -999, -999]	n/a	FR1	0	R1339D
1404.26	0.597	1405417	DISTRACT_END	n/a	n/a	n/a	-999	3	[0, 0, 0]	n/a	FR1	0	R1339D
1404.857	1.62	1406014	RETRIEVAL_ORIENT_START	n/a	n/a	n/a	-999	3	[0, 0, 0]	n/a	FR1	0	R1339D
1406.477	0.0	1407634	REC_START	n/a	n/a	n/a	-999	3	[0, 0, 0]	n/a	FR1	0	R1339D
1406.477	11.775	1407634	RETRIEVAL_ORIENT_END	n/a	n/a	n/a	-999	3	[0, 0, 0]	n/a	FR1	0	R1339D
1418.252	18.239	1419408	REC_WORD	18.239	n/a	BRANCH	9	3	[0, 0, 0]	n/a	FR1	0	R1339D
1436.491	0.0	1437646	REC_END	n/a	n/a	n/a	-999	3	[0, 0, 0]	n/a	FR1	0	R1339D
1436.491	0.017	1437646	TRIAL_END	n/a	n/a	n/a	-999	3	[0, 0, 0]	n/a	FR1	0	R1339D
1436.508	0.0	1437663	TRIAL_START	n/a	n/a	n/a	-999	4	[0, 0, 0]	n/a	FR1	0	R1339D
1436.508	0.0	1437663	TRIAL	n/a	n/a	n/a	-999	4	[0, 0, 0]	n/a	FR1	0	R1339D
1436.508	41.415	1437663	WAITING_START	n/a	n/a	n/a	-999	4	[0, 0, 0]	n/a	FR1	0	R1339D
1477.923	0.001	1479076	WAITING_END	n/a	n/a	n/a	-999	4	[0, 0, 0]	n/a	FR1	0	R1339D
1477.924	10.429	1479077	COUNTDOWN_START	n/a	n/a	n/a	-999	4	[0, 0, 0]	n/a	FR1	0	R1339D
1488.353	0.0	1489505	COUNTDOWN_END	n/a	n/a	n/a	-999	4	[0, 0, 0]	n/a	FR1	0	R1339D
1488.353	1.188	1489505	ORIENT_START	n/a	n/a	n/a	-999	4	[0, 0, 0]	n/a	FR1	0	R1339D
1489.541	0.0	1490693	ENCODING_START	n/a	n/a	n/a	-999	4	[0, 0, 0]	n/a	FR1	0	R1339D
1489.541	0.978	1490693	ORIENT_END	n/a	n/a	n/a	-999	4	[0, 0, 0]	n/a	FR1	0	R1339D
1490.519	1.623	1491671	WORD	n/a	wordpools/wordpool_EN.txt	COUCH	1	4	[0, 0, 0]	n/a	FR1	0	R1339D
1492.142	0.772	1493294	WORD_OFF	n/a	n/a	COUCH	1	4	[0, 0, 0]	n/a	FR1	0	R1339D
1492.914	1.628	1494066	WORD	n/a	wordpools/wordpool_EN.txt	SMOKE	2	4	[0, 0, 0]	n/a	FR1	0	R1339D
1494.542	0.782	1495694	WORD_OFF	n/a	n/a	SMOKE	2	4	[0, 0, 0]	n/a	FR1	0	R1339D
1495.324	1.636	1496476	WORD	n/a	wordpools/wordpool_EN.txt	NAIL	3	4	[0, 0, 0]	n/a	FR1	0	R1339D
1496.96	0.946	1498112	WORD_OFF	n/a	n/a	NAIL	3	4	[0, 0, 0]	n/a	FR1	0	R1339D
1497.906	1.621	1499058	WORD	n/a	wordpools/wordpool_EN.txt	ZOO	4	4	[0, 0, 0]	n/a	FR1	0	R1339D
1499.527	0.972	1500679	WORD_OFF	n/a	n/a	ZOO	4	4	[0, 0, 0]	n/a	FR1	0	R1339D
1500.499	1.629	1501651	WORD	n/a	wordpools/wordpool_EN.txt	STREET	5	4	[0, 0, 0]	n/a	FR1	0	R1339D
1502.128	0.897	1503280	WORD_OFF	n/a	n/a	STREET	5	4	[0, 0, 0]	n/a	FR1	0	R1339D
1503.025	1.635	1504177	WORD	n/a	wordpools/wordpool_EN.txt	SHIP	6	4	[0, 0, 0]	n/a	FR1	0	R1339D
1504.66	0.842	1505812	WORD_OFF	n/a	n/a	SHIP	6	4	[0, 0, 0]	n/a	FR1	0	R1339D
1505.502	1.627	1506654	WORD	n/a	wordpools/wordpool_EN.txt	BAG	7	4	[0, 0, 0]	n/a	FR1	0	R1339D
1507.129	0.794	1508280	WORD_OFF	n/a	n/a	BAG	7	4	[0, 0, 0]	n/a	FR1	0	R1339D
1507.923	1.622	1509074	WORD	n/a	wordpools/wordpool_EN.txt	DOCK	8	4	[0, 0, 0]	n/a	FR1	0	R1339D
1509.545	1.117	1510696	WORD_OFF	n/a	n/a	DOCK	8	4	[0, 0, 0]	n/a	FR1	0	R1339D
1510.662	1.634	1511813	WORD	n/a	wordpools/wordpool_EN.txt	PIE	9	4	[0, 0, 0]	n/a	FR1	0	R1339D
1512.296	0.805	1513447	WORD_OFF	n/a	n/a	PIE	9	4	[0, 0, 0]	n/a	FR1	0	R1339D
1513.101	1.628	1514252	WORD	n/a	wordpools/wordpool_EN.txt	RIB	10	4	[0, 0, 0]	n/a	FR1	0	R1339D
1514.729	0.815	1515880	WORD_OFF	n/a	n/a	RIB	10	4	[0, 0, 0]	n/a	FR1	0	R1339D
1515.544	1.62	1516695	WORD	n/a	wordpools/wordpool_EN.txt	SEED	11	4	[0, 0, 0]	n/a	FR1	0	R1339D
1517.164	1.057	1518315	WORD_OFF	n/a	n/a	SEED	11	4	[0, 0, 0]	n/a	FR1	0	R1339D
1518.221	1.627	1519372	WORD	n/a	wordpools/wordpool_EN.txt	CART	12	4	[0, 0, 0]	n/a	FR1	0	R1339D
1519.848	0.0	1520999	WORD_OFF	n/a	n/a	CART	12	4	[0, 0, 0]	n/a	FR1	0	R1339D
1519.848	0.0	1520999	ENCODING_END	n/a	n/a	n/a	-999	4	[0, 0, 0]	n/a	FR1	0	R1339D
1519.848	0.001	1520999	DISTRACT_START	n/a	n/a	n/a	-999	4	[0, 0, 0]	n/a	FR1	0	R1339D
1519.849	0.015	1521000	START	n/a	n/a	n/a	-999	4	[-999, -999, -999]	n/a	FR1	0	R1339D
1519.864	3.451	1521015	PROB	3.451	n/a	n/a	-999	4	[7, 5, 3]	15	FR1	0	R1339D
1523.315	3.65	1524466	PROB	3.65	n/a	n/a	-999	4	[7, 3, 1]	11	FR1	0	R1339D
1526.965	6.952	1528115	PROB	6.952	n/a	n/a	-999	4	[3, 6, 8]	17	FR1	0	R1339D
1533.917	6.225	1535067	PROB	6.225	n/a	n/a	-999	4	[2, 6, 3]	11	FR1	0	R1339D
1540.142	0.009	1541292	STOP	n/a	n/a	n/a	-999	4	[-999, -999, -999]	n/a	FR1	0	R1339D
1540.151	0.516	1541301	DISTRACT_END	n/a	n/a	n/a	-999	4	[0, 0, 0]	n/a	FR1	0	R1339D
1540.667	1.651	1541817	RETRIEVAL_ORIENT_START	n/a	n/a	n/a	-999	4	[0, 0, 0]	n/a	FR1	0	R1339D
1542.318	0.001	1543468	RETRIEVAL_ORIENT_END	n/a	n/a	n/a	-999	4	[0, 0, 0]	n/a	FR1	0	R1339D
1542.319	1.392	1543469	REC_START	n/a	n/a	n/a	-999	4	[0, 0, 0]	n/a	FR1	0	R1339D
1543.711	0.895	1544861	REC_WORD	0.895	n/a	DOCK	8	4	[0, 0, 0]	n/a	FR1	0	R1339D
1544.606	1.176	1545755	REC_WORD	1.176	n/a	SMOKE	2	4	[0, 0, 0]	n/a	FR1	0	R1339D
1545.782	0.88	1546931	REC_WORD	0.88	n/a	ZOO	4	4	[0, 0, 0]	n/a	FR1	0	R1339D
1546.662	1.446	1547811	REC_WORD	1.446	n/a	NAIL	3	4	[0, 0, 0]	n/a	FR1	0	R1339D
1548.108	1.175	1549257	REC_WORD	1.175	n/a	BENCH	-999	4	[0, 0, 0]	n/a	FR1	0	R1339D
1549.283	23.048	1550432	REC_WORD	23.048	n/a	COUCH	1	4	[0, 0, 0]	n/a	FR1	0	R1339D
1572.331	0.0	1573479	REC_END	n/a	n/a	n/a	-999	4	[0, 0, 0]	n/a	FR1	0	R1339D
1572.331	0.014	1573479	TRIAL_END	n/a	n/a	n/a	-999	4	[0, 0, 0]	n/a	FR1	0	R1339D
1572.345	0.001	1573493	TRIAL_START	n/a	n/a	n/a	-999	5	[0, 0, 0]	n/a	FR1	0	R1339D
1572.346	0.0	1573494	TRIAL	n/a	n/a	n/a	-999	5	[0, 0, 0]	n/a	FR1	0	R1339D
1572.346	12.464	1573494	WAITING_START	n/a	n/a	n/a	-999	5	[0, 0, 0]	n/a	FR1	0	R1339D
1584.81	0.0	1585957	WAITING_END	n/a	n/a	n/a	-999	5	[0, 0, 0]	n/a	FR1	0	R1339D
1584.81	10.429	1585957	COUNTDOWN_START	n/a	n/a	n/a	-999	5	[0, 0, 0]	n/a	FR1	0	R1339D
1595.239	0.0	1596386	ORIENT_START	n/a	n/a	n/a	-999	5	[0, 0, 0]	n/a	FR1	0	R1339D
1595.239	1.256	1596386	COUNTDOWN_END	n/a	n/a	n/a	-999	5	[0, 0, 0]	n/a	FR1	0	R1339D
1596.495	0.0	1597642	ORIENT_END	n/a	n/a	n/a	-999	5	[0, 0, 0]	n/a	FR1	0	R1339D
1596.495	1.092	1597642	ENCODING_START	n/a	n/a	n/a	-999	5	[0, 0, 0]	n/a	FR1	0	R1339D
1597.587	1.625	1598734	WORD	n/a	wordpools/wordpool_EN.txt	DESK	1	5	[0, 0, 0]	n/a	FR1	0	R1339D
1599.212	0.92	1600359	WORD_OFF	n/a	n/a	DESK	1	5	[0, 0, 0]	n/a	FR1	0	R1339D
1600.132	1.631	1601279	WORD	n/a	wordpools/wordpool_EN.txt	BANK	2	5	[0, 0, 0]	n/a	FR1	0	R1339D
1601.763	1.088	1602909	WORD_OFF	n/a	n/a	BANK	2	5	[0, 0, 0]	n/a	FR1	0	R1339D
1602.851	1.629	1603997	WORD	n/a	wordpools/wordpool_EN.txt	GRAPE	3	5	[0, 0, 0]	n/a	FR1	0	R1339D
1604.48	0.845	1605626	WORD_OFF	n/a	n/a	GRAPE	3	5	[0, 0, 0]	n/a	FR1	0	R1339D
1605.325	1.622	1606471	WORD	n/a	wordpools/wordpool_EN.txt	DOG	4	5	[0, 0, 0]	n/a	FR1	0	R1339D
1606.947	1.046	1608093	WORD_OFF	n/a	n/a	DOG	4	5	[0, 0, 0]	n/a	FR1	0	R1339D
1607.993	1.637	1609139	WORD	n/a	wordpools/wordpool_EN.txt	CHEEK	5	5	[0, 0, 0]	n/a	FR1	0	R1339D
1609.63	1.067	1610776	WORD_OFF	n/a	n/a	CHEEK	5	5	[0, 0, 0]	n/a	FR1	0	R1339D
1610.697	1.634	1611843	WORD	n/a	wordpools/wordpool_EN.txt	EAR	6	5	[0, 0, 0]	n/a	FR1	0	R1339D
1612.331	1.079	1613477	WORD_OFF	n/a	n/a	EAR	6	5	[0, 0, 0]	n/a	FR1	0	R1339D
1613.41	1.622	1614556	WORD	n/a	wordpools/wordpool_EN.txt	ROSE	7	5	[0, 0, 0]	n/a	FR1	0	R1339D
1615.032	1.085	1616178	WORD_OFF	n/a	n/a	ROSE	7	5	[0, 0, 0]	n/a	FR1	0	R1339D
1616.117	1.632	1617263	WORD	n/a	wordpools/wordpool_EN.txt	PALM	8	5	[0, 0, 0]	n/a	FR1	0	R1339D
1617.749	0.783	1618895	WORD_OFF	n/a	n/a	PALM	8	5	[0, 0, 0]	n/a	FR1	0	R1339D
1618.532	1.634	1619678	WORD	n/a	wordpools/wordpool_EN.txt	ARM	9	5	[0, 0, 0]	n/a	FR1	0	R1339D
1620.166	0.848	1621311	WORD_OFF	n/a	n/a	ARM	9	5	[0, 0, 0]	n/a	FR1	0	R1339D
1621.014	1.635	1622159	WORD	n/a	wordpools/wordpool_EN.txt	BOMB	10	5	[0, 0, 0]	n/a	FR1	0	R1339D
1622.649	1.148	1623794	WORD_OFF	n/a	n/a	BOMB	10	5	[0, 0, 0]	n/a	FR1	0	R1339D
1623.797	1.637	1624942	WORD	n/a	wordpools/wordpool_EN.txt	DRUM	11	5	[0, 0, 0]	n/a	FR1	0	R1339D
1625.434	1.106	1626579	WORD_OFF	n/a	n/a	DRUM	11	5	[0, 0, 0]	n/a	FR1	0	R1339D
1626.54	1.627	1627685	WORD	n/a	wordpools/wordpool_EN.txt	PANTS	12	5	[0, 0, 0]	n/a	FR1	0	R1339D
1628.167	0.001	1629312	WORD_OFF	n/a	n/a	PANTS	12	5	[0, 0, 0]	n/a	FR1	0	R1339D
1628.168	0.0	1629313	ENCODING_END	n/a	n/a	n/a	-999	5	[0, 0, 0]	n/a	FR1	0	R1339D
1628.168	0.0	1629313	DISTRACT_START	n/a	n/a	n/a	-999	5	[0, 0, 0]	n/a	FR1	0	R1339D
1628.168	0.016	1629313	START	n/a	n/a	n/a	-999	5	[-999, -999, -999]	n/a	FR1	0	R1339D
1628.184	4.6	1629329	PROB	4.6	n/a	n/a	-999	5	[8, 1, 5]	14	FR1	0	R1339D
1632.784	2.568	1633929	PROB	2.568	n/a	n/a	-999	5	[6, 9, 1]	16	FR1	0	R1339D
1635.352	2.417	1636497	PROB	2.417	n/a	n/a	-999	5	[5, 2, 1]	8	FR1	0	R1339D
1637.769	3.284	1638914	PROB	3.284	n/a	n/a	-999	5	[2, 7, 8]	17	FR1	0	R1339D
1641.053	2.633	1642197	PROB	2.633	n/a	n/a	-999	5	[7, 7, 2]	16	FR1	0	R1339D
1643.686	2.434	1644830	PROB	2.434	n/a	n/a	-999	5	[3, 7, 4]	14	FR1	0	R1339D
1646.12	2.697	1647264	PROB	2.697	n/a	n/a	-999	5	[2, 3, 1]	6	FR1	0	R1339D
1648.817	0.021	1649961	STOP	n/a	n/a	n/a	-999	5	[-999, -999, -999]	n/a	FR1	0	R1339D
1648.838	0.54	1649982	DISTRACT_END	n/a	n/a	n/a	-999	5	[0, 0, 0]	n/a	FR1	0	R1339D
1649.378	1.61	1650522	RETRIEVAL_ORIENT_START	n/a	n/a	n/a	-999	5	[0, 0, 0]	n/a	FR1	0	R1339D
1650.988	0.001	1652132	RETRIEVAL_ORIENT_END	n/a	n/a	n/a	-999	5	[0, 0, 0]	n/a	FR1	0	R1339D
1650.989	0.277	1652133	REC_START	n/a	n/a	n/a	-999	5	[0, 0, 0]	n/a	FR1	0	R1339D
1651.266	0.87	1652410	REC_WORD	0.87	n/a	PALM	8	5	[0, 0, 0]	n/a	FR1	0	R1339D
1652.136	2.591	1653280	REC_WORD	2.591	n/a	ARM	9	5	[0, 0, 0]	n/a	FR1	0	R1339D
1654.727	26.273	1655871	REC_WORD	26.273	n/a	BOMB	10	5	[0, 0, 0]	n/a	FR1	0	R1339D
1681.0	0.0	1682142	REC_END	n/a	n/a	n/a	-999	5	[0, 0, 0]	n/a	FR1	0	R1339D
1681.0	0.015	1682142	TRIAL_END	n/a	n/a	n/a	-999	5	[0, 0, 0]	n/a	FR1	0	R1339D
1681.015	0.0	1682157	TRIAL_START	n/a	n/a	n/a	-999	6	[0, 0, 0]	n/a	FR1	0	R1339D
1681.015	0.0	1682157	TRIAL	n/a	n/a	n/a	-999	6	[0, 0, 0]	n/a	FR1	0	R1339D
1681.015	2.879	1682157	WAITING_START	n/a	n/a	n/a	-999	6	[0, 0, 0]	n/a	FR1	0	R1339D
1683.894	0.001	1685036	WAITING_END	n/a	n/a	n/a	-999	6	[0, 0, 0]	n/a	FR1	0	R1339D
1683.895	10.429	1685037	COUNTDOWN_START	n/a	n/a	n/a	-999	6	[0, 0, 0]	n/a	FR1	0	R1339D
1694.324	0.001	1695466	COUNTDOWN_END	n/a	n/a	n/a	-999	6	[0, 0, 0]	n/a	FR1	0	R1339D
1694.325	1.055	1695467	ORIENT_START	n/a	n/a	n/a	-999	6	[0, 0, 0]	n/a	FR1	0	R1339D
1695.38	0.0	1696521	ORIENT_END	n/a	n/a	n/a	-999	6	[0, 0, 0]	n/a	FR1	0	R1339D
1695.38	1.0	1696521	ENCODING_START	n/a	n/a	n/a	-999	6	[0, 0, 0]	n/a	FR1	0	R1339D
1696.38	1.633	1697521	WORD	n/a	wordpools/wordpool_EN.txt	BRICK	1	6	[0, 0, 0]	n/a	FR1	0	R1339D
1698.013	0.841	1699154	WORD_OFF	n/a	n/a	BRICK	1	6	[0, 0, 0]	n/a	FR1	0	R1339D
1698.854	1.627	1699995	WORD	n/a	wordpools/wordpool_EN.txt	ROOF	2	6	[0, 0, 0]	n/a	FR1	0	R1339D
1700.481	1.081	1701622	WORD_OFF	n/a	n/a	ROOF	2	6	[0, 0, 0]	n/a	FR1	0	R1339D
1701.562	1.636	1702703	WORD	n/a	wordpools/wordpool_EN.txt	BOARD	3	6	[0, 0, 0]	n/a	FR1	0	R1339D
1703.198	0.778	1704339	WORD_OFF	n/a	n/a	BOARD	3	6	[0, 0, 0]	n/a	FR1	0	R1339D
1703.976	1.621	1705117	WORD	n/a	wordpools/wordpool_EN.txt	GUARD	4	6	[0, 0, 0]	n/a	FR1	0	R1339D
1705.597	0.984	1706738	WORD_OFF	n/a	n/a	GUARD	4	6	[0, 0, 0]	n/a	FR1	0	R1339D
1706.581	1.617	1707722	WORD	n/a	wordpools/wordpool_EN.txt	FILM	5	6	[0, 0, 0]	n/a	FR1	0	R1339D
1708.198	0.761	1709339	WORD_OFF	n/a	n/a	FILM	5	6	[0, 0, 0]	n/a	FR1	0	R1339D
1708.959	1.622	1710100	WORD	n/a	wordpools/wordpool_EN.txt	TOAST	6	6	[0, 0, 0]	n/a	FR1	0	R1339D
1710.581	1.118	1711722	WORD_OFF	n/a	n/a	TOAST	6	6	[0, 0, 0]	n/a	FR1	0	R1339D
1711.699	1.634	1712840	WORD	n/a	wordpools/wordpool_EN.txt	HOOF	7	6	[0, 0, 0]	n/a	FR1	0	R1339D
1713.333	0.978	1714473	WORD_OFF	n/a	n/a	HOOF	7	6	[0, 0, 0]	n/a	FR1	0	R1339D
1714.311	1.622	1715451	WORD	n/a	wordpools/wordpool_EN.txt	GLASS	8	6	[0, 0, 0]	n/a	FR1	0	R1339D
1715.933	0.994	1717073	WORD_OFF	n/a	n/a	GLASS	8	6	[0, 0, 0]	n/a	FR1	0	R1339D
1716.927	1.623	1718067	WORD	n/a	wordpools/wordpool_EN.txt	HEN	9	6	[0, 0, 0]	n/a	FR1	0	R1339D
1718.55	1.037	1719690	WORD_OFF	n/a	n/a	HEN	9	6	[0, 0, 0]	n/a	FR1	0	R1339D
1719.587	1.631	1720727	WORD	n/a	wordpools/wordpool_EN.txt	STONE	10	6	[0, 0, 0]	n/a	FR1	0	R1339D
1721.218	1.002	1722358	WORD_OFF	n/a	n/a	STONE	10	6	[0, 0, 0]	n/a	FR1	0	R1339D
1722.22	1.632	1723360	WORD	n/a	wordpools/wordpool_EN.txt	ROAD	11	6	[0, 0, 0]	n/a	FR1	0	R1339D
1723.852	0.971	1724992	WORD_OFF	n/a	n/a	ROAD	11	6	[0, 0, 0]	n/a	FR1	0	R1339D
1724.823	1.629	1725963	WORD	n/a	wordpools/wordpool_EN.txt	STRING	12	6	[0, 0, 0]	n/a	FR1	0	R1339D
1726.452	0.001	1727592	WORD_OFF	n/a	n/a	STRING	12	6	[0, 0, 0]	n/a	FR1	0	R1339D
1726.453	0.0	1727593	ENCODING_END	n/a	n/a	n/a	-999	6	[0, 0, 0]	n/a	FR1	0	R1339D
1726.453	0.0	1727593	DISTRACT_START	n/a	n/a	n/a	-999	6	[0, 0, 0]	n/a	FR1	0	R1339D
1726.453	0.015	1727593	START	n/a	n/a	n/a	-999	6	[-999, -999, -999]	n/a	FR1	0	R1339D
1726.468	4.2	1727608	PROB	4.2	n/a	n/a	-999	6	[8, 1, 6]	15	FR1	0	R1339D
1730.668	4.702	1731808	PROB	4.702	n/a	n/a	-999	6	[7, 1, 5]	13	FR1	0	R1339D
1735.37	9.769	1736509	PROB	9.769	n/a	n/a	-999	6	[9, 6, 7]	22	FR1	0	R1339D
1745.139	10.56	1746278	PROB	10.56	n/a	n/a	-999	6	[9, 4, 8]	21	FR1	0	R1339D
1755.699	0.007	1756837	STOP	n/a	n/a	n/a	-999	6	[-999, -999, -999]	n/a	FR1	0	R1339D
1755.706	0.539	1756844	DISTRACT_END	n/a	n/a	n/a	-999	6	[0, 0, 0]	n/a	FR1	0	R1339D
1756.245	1.563	1757383	RETRIEVAL_ORIENT_START	n/a	n/a	n/a	-999	6	[0, 0, 0]	n/a	FR1	0	R1339D
1757.808	0.0	1758946	RETRIEVAL_ORIENT_END	n/a	n/a	n/a	-999	6	[0, 0, 0]	n/a	FR1	0	R1339D
1757.808	7.397	1758946	REC_START	n/a	n/a	n/a	-999	6	[0, 0, 0]	n/a	FR1	0	R1339D
1765.205	22.615	1766343	REC_WORD	22.615	n/a	NONE	-999	6	[0, 0, 0]	n/a	FR1	0	R1339D
1787.82	0.0	1788957	TRIAL_END	n/a	n/a	n/a	-999	6	[0, 0, 0]	n/a	FR1	0	R1339D
1787.82	0.018	1788957	REC_END	n/a	n/a	n/a	-999	6	[0, 0, 0]	n/a	FR1	0	R1339D
1787.838	0.0	1788975	TRIAL_START	n/a	n/a	n/a	-999	7	[0, 0, 0]	n/a	FR1	0	R1339D
1787.838	0.0	1788975	TRIAL	n/a	n/a	n/a	-999	7	[0, 0, 0]	n/a	FR1	0	R1339D
1787.838	1751.528	1788975	WAITING_START	n/a	n/a	n/a	-999	7	[0, 0, 0]	n/a	FR1	0	R1339D
3539.366	0.0	3540409	WAITING_END	n/a	n/a	n/a	-999	7	[0, 0, 0]	n/a	FR1	0	R1339D
3539.366	10.429	3540409	COUNTDOWN_START	n/a	n/a	n/a	-999	7	[0, 0, 0]	n/a	FR1	0	R1339D
3549.795	0.0	3550838	COUNTDOWN_END	n/a	n/a	n/a	-999	7	[0, 0, 0]	n/a	FR1	0	R1339D
3549.795	1.106	3550838	ORIENT_START	n/a	n/a	n/a	-999	7	[0, 0, 0]	n/a	FR1	0	R1339D
3550.901	0.001	3551944	ORIENT_END	n/a	n/a	n/a	-999	7	[0, 0, 0]	n/a	FR1	0	R1339D
3550.902	1.032	3551945	ENCODING_START	n/a	n/a	n/a	-999	7	[0, 0, 0]	n/a	FR1	0	R1339D
3551.934	1.633	3552977	WORD	n/a	wordpools/wordpool_EN.txt	YARD	1	7	[0, 0, 0]	n/a	FR1	0	R1339D
3553.567	0.774	3554610	WORD_OFF	n/a	n/a	YARD	1	7	[0, 0, 0]	n/a	FR1	0	R1339D
3554.341	1.628	3555384	WORD	n/a	wordpools/wordpool_EN.txt	STICK	2	7	[0, 0, 0]	n/a	FR1	0	R1339D
3555.969	0.945	3557011	WORD_OFF	n/a	n/a	STICK	2	7	[0, 0, 0]	n/a	FR1	0	R1339D
3556.914	1.621	3557956	WORD	n/a	wordpools/wordpool_EN.txt	VEST	3	7	[0, 0, 0]	n/a	FR1	0	R1339D
3558.535	1.059	3559577	WORD_OFF	n/a	n/a	VEST	3	7	[0, 0, 0]	n/a	FR1	0	R1339D
3559.594	1.626	3560636	WORD	n/a	wordpools/wordpool_EN.txt	CONE	4	7	[0, 0, 0]	n/a	FR1	0	R1339D
3561.22	0.993	3562262	WORD_OFF	n/a	n/a	CONE	4	7	[0, 0, 0]	n/a	FR1	0	R1339D
3562.213	1.624	3563255	WORD	n/a	wordpools/wordpool_EN.txt	CHIEF	5	7	[0, 0, 0]	n/a	FR1	0	R1339D
3563.837	1.135	3564879	WORD_OFF	n/a	n/a	CHIEF	5	7	[0, 0, 0]	n/a	FR1	0	R1339D
3564.972	1.631	3566014	WORD	n/a	wordpools/wordpool_EN.txt	LIP	6	7	[0, 0, 0]	n/a	FR1	0	R1339D
3566.603	0.754	3567645	WORD_OFF	n/a	n/a	LIP	6	7	[0, 0, 0]	n/a	FR1	0	R1339D
3567.357	1.631	3568399	WORD	n/a	wordpools/wordpool_EN.txt	PARK	7	7	[0, 0, 0]	n/a	FR1	0	R1339D
3568.988	1.077	3570030	WORD_OFF	n/a	n/a	PARK	7	7	[0, 0, 0]	n/a	FR1	0	R1339D
3570.065	1.622	3571107	WORD	n/a	wordpools/wordpool_EN.txt	FOG	8	7	[0, 0, 0]	n/a	FR1	0	R1339D
3571.687	0.902	3572729	WORD_OFF	n/a	n/a	FOG	8	7	[0, 0, 0]	n/a	FR1	0	R1339D
3572.589	1.633	3573631	WORD	n/a	wordpools/wordpool_EN.txt	CANE	9	7	[0, 0, 0]	n/a	FR1	0	R1339D
3574.222	0.923	3575264	WORD_OFF	n/a	n/a	CANE	9	7	[0, 0, 0]	n/a	FR1	0	R1339D
3575.145	1.628	3576186	WORD	n/a	wordpools/wordpool_EN.txt	TOOTH	10	7	[0, 0, 0]	n/a	FR1	0	R1339D
3576.773	0.891	3577814	WORD_OFF	n/a	n/a	TOOTH	10	7	[0, 0, 0]	n/a	FR1	0	R1339D
3577.664	1.609	3578705	WORD	n/a	wordpools/wordpool_EN.txt	BADGE	11	7	[0, 0, 0]	n/a	FR1	0	R1339D
3579.273	0.921	3580314	WORD_OFF	n/a	n/a	BADGE	11	7	[0, 0, 0]	n/a	FR1	0	R1339D
3580.194	1.629	3581235	WORD	n/a	wordpools/wordpool_EN.txt	FARM	12	7	[0, 0, 0]	n/a	FR1	0	R1339D
3581.823	0.001	3582864	WORD_OFF	n/a	n/a	FARM	12	7	[0, 0, 0]	n/a	FR1	0	R1339D
3581.824	0.0	3582865	ENCODING_END	n/a	n/a	n/a	-999	7	[0, 0, 0]	n/a	FR1	0	R1339D
3581.824	0.0	3582865	DISTRACT_START	n/a	n/a	n/a	-999	7	[0, 0, 0]	n/a	FR1	0	R1339D
3581.824	0.016	3582865	START	n/a	n/a	n/a	-999	7	[-999, -999, -999]	n/a	FR1	0	R1339D
3581.84	3.484	3582881	PROB	3.484	n/a	n/a	-999	7	[6, 4, 6]	16	FR1	0	R1339D
3585.324	3.717	3586365	PROB	3.717	n/a	n/a	-999	7	[1, 8, 2]	11	FR1	0	R1339D
3589.041	3.384	3590082	PROB	3.384	n/a	n/a	-999	7	[7, 6, 4]	17	FR1	0	R1339D
3592.425	7.468	3593466	PROB	7.468	n/a	n/a	-999	7	[6, 3, 7]	16	FR1	0	R1339D
3599.893	4.484	3600933	PROB	4.484	n/a	n/a	-999	7	[6, 3, 7]	16	FR1	0	R1339D
3604.377	0.017	3605417	STOP	n/a	n/a	n/a	-999	7	[-999, -999, -999]	n/a	FR1	0	R1339D
3604.394	0.655	3605434	DISTRACT_END	n/a	n/a	n/a	-999	7	[0, 0, 0]	n/a	FR1	0	R1339D
3605.049	1.578	3606089	RETRIEVAL_ORIENT_START	n/a	n/a	n/a	-999	7	[0, 0, 0]	n/a	FR1	0	R1339D
3606.627	0.0	3607667	RETRIEVAL_ORIENT_END	n/a	n/a	n/a	-999	7	[0, 0, 0]	n/a	FR1	0	R1339D
3606.627	0.819	3607667	REC_START	n/a	n/a	n/a	-999	7	[0, 0, 0]	n/a	FR1	0	R1339D
3607.446	0.585	3608486	REC_WORD	0.585	n/a	YARD	1	7	[0, 0, 0]	n/a	FR1	0	R1339D
3608.031	0.761	3609071	REC_WORD	0.761	n/a	STICK	2	7	[0, 0, 0]	n/a	FR1	0	R1339D
3608.792	1.82	3609832	REC_WORD	1.82	n/a	TOOTH	10	7	[0, 0, 0]	n/a	FR1	0	R1339D
3610.612	8.874	3611652	REC_WORD	8.874	n/a	LIP	6	7	[0, 0, 0]	n/a	FR1	0	R1339D
3619.486	0.332	3620525	REC_WORD	0.332	n/a	YARD	1	7	[0, 0, 0]	n/a	FR1	0	R1339D
3619.818	1.182	3620857	REC_WORD	1.182	n/a	STICK	2	7	[0, 0, 0]	n/a	FR1	0	R1339D
3621.0	0.623	3622039	REC_WORD	0.623	n/a	TOOTH	10	7	[0, 0, 0]	n/a	FR1	0	R1339D
3621.623	15.016	3622662	REC_WORD	15.016	n/a	LIP	6	7	[0, 0, 0]	n/a	FR1	0	R1339D
3636.639	0.0	3637677	REC_END	n/a	n/a	n/a	-999	7	[0, 0, 0]	n/a	FR1	0	R1339D
3636.639	0.015	3637677	TRIAL_END	n/a	n/a	n/a	-999	7	[0, 0, 0]	n/a	FR1	0	R1339D
3636.654	0.0	3637692	TRIAL_START	n/a	n/a	n/a	-999	8	[0, 0, 0]	n/a	FR1	0	R1339D
3636.654	0.0	3637692	TRIAL	n/a	n/a	n/a	-999	8	[0, 0, 0]	n/a	FR1	0	R1339D
3636.654	60.724	3637692	WAITING_START	n/a	n/a	n/a	-999	8	[0, 0, 0]	n/a	FR1	0	R1339D
3697.378	0.0	3698413	WAITING_END	n/a	n/a	n/a	-999	8	[0, 0, 0]	n/a	FR1	0	R1339D
3697.378	10.429	3698413	COUNTDOWN_START	n/a	n/a	n/a	-999	8	[0, 0, 0]	n/a	FR1	0	R1339D
3707.807	0.001	3708841	COUNTDOWN_END	n/a	n/a	n/a	-999	8	[0, 0, 0]	n/a	FR1	0	R1339D
3707.808	1.155	3708842	ORIENT_START	n/a	n/a	n/a	-999	8	[0, 0, 0]	n/a	FR1	0	R1339D
3708.963	0.001	3709997	ORIENT_END	n/a	n/a	n/a	-999	8	[0, 0, 0]	n/a	FR1	0	R1339D
3708.964	0.825	3709998	ENCODING_START	n/a	n/a	n/a	-999	8	[0, 0, 0]	n/a	FR1	0	R1339D
3709.789	1.625	3710823	WORD	n/a	wordpools/wordpool_EN.txt	VASE	1	8	[0, 0, 0]	n/a	FR1	0	R1339D
3711.414	0.999	3712448	WORD_OFF	n/a	n/a	VASE	1	8	[0, 0, 0]	n/a	FR1	0	R1339D
3712.413	1.635	3713447	WORD	n/a	wordpools/wordpool_EN.txt	JAIL	2	8	[0, 0, 0]	n/a	FR1	0	R1339D
3714.048	1.104	3715082	WORD_OFF	n/a	n/a	JAIL	2	8	[0, 0, 0]	n/a	FR1	0	R1339D
3715.152	1.629	3716186	WORD	n/a	wordpools/wordpool_EN.txt	CAGE	3	8	[0, 0, 0]	n/a	FR1	0	R1339D
3716.781	0.806	3717815	WORD_OFF	n/a	n/a	CAGE	3	8	[0, 0, 0]	n/a	FR1	0	R1339D
3717.587	1.628	3718621	WORD	n/a	wordpools/wordpool_EN.txt	SHRIMP	4	8	[0, 0, 0]	n/a	FR1	0	R1339D
3719.215	0.834	3720249	WORD_OFF	n/a	n/a	SHRIMP	4	8	[0, 0, 0]	n/a	FR1	0	R1339D
3720.049	1.632	3721083	WORD	n/a	wordpools/wordpool_EN.txt	SKUNK	5	8	[0, 0, 0]	n/a	FR1	0	R1339D
3721.681	1.096	3722715	WORD_OFF	n/a	n/a	SKUNK	5	8	[0, 0, 0]	n/a	FR1	0	R1339D
3722.777	1.622	3723811	WORD	n/a	wordpools/wordpool_EN.txt	CLAY	6	8	[0, 0, 0]	n/a	FR1	0	R1339D
3724.399	0.948	3725433	WORD_OFF	n/a	n/a	CLAY	6	8	[0, 0, 0]	n/a	FR1	0	R1339D
3725.347	1.636	3726380	WORD	n/a	wordpools/wordpool_EN.txt	BEAR	7	8	[0, 0, 0]	n/a	FR1	0	R1339D
3726.983	1.041	3728016	WORD_OFF	n/a	n/a	BEAR	7	8	[0, 0, 0]	n/a	FR1	0	R1339D
3728.024	1.625	3729057	WORD	n/a	wordpools/wordpool_EN.txt	BAT	8	8	[0, 0, 0]	n/a	FR1	0	R1339D
3729.649	0.901	3730682	WORD_OFF	n/a	n/a	BAT	8	8	[0, 0, 0]	n/a	FR1	0	R1339D
3730.55	1.634	3731583	WORD	n/a	wordpools/wordpool_EN.txt	BOOT	9	8	[0, 0, 0]	n/a	FR1	0	R1339D
3732.184	0.778	3733217	WORD_OFF	n/a	n/a	BOOT	9	8	[0, 0, 0]	n/a	FR1	0	R1339D
3732.962	1.622	3733995	WORD	n/a	wordpools/wordpool_EN.txt	RICE	10	8	[0, 0, 0]	n/a	FR1	0	R1339D
3734.584	0.858	3735617	WORD_OFF	n/a	n/a	RICE	10	8	[0, 0, 0]	n/a	FR1	0	R1339D
3735.442	1.626	3736475	WORD	n/a	wordpools/wordpool_EN.txt	TRASH	11	8	[0, 0, 0]	n/a	FR1	0	R1339D
3737.068	1.143	3738101	WORD_OFF	n/a	n/a	TRASH	11	8	[0, 0, 0]	n/a	FR1	0	R1339D
3738.211	1.624	3739244	WORD	n/a	wordpools/wordpool_EN.txt	FISH	12	8	[0, 0, 0]	n/a	FR1	0	R1339D
3739.835	0.001	3740868	WORD_OFF	n/a	n/a	FISH	12	8	[0, 0, 0]	n/a	FR1	0	R1339D
3739.836	0.0	3740869	ENCODING_END	n/a	n/a	n/a	-999	8	[0, 0, 0]	n/a	FR1	0	R1339D
3739.836	0.0	3740869	DISTRACT_START	n/a	n/a	n/a	-999	8	[0, 0, 0]	n/a	FR1	0	R1339D
3739.836	0.016	3740869	START	n/a	n/a	n/a	-999	8	[-999, -999, -999]	n/a	FR1	0	R1339D
3739.852	3.816	3740885	PROB	3.816	n/a	n/a	-999	8	[4, 3, 1]	8	FR1	0	R1339D
3743.668	3.669	3744700	PROB	3.669	n/a	n/a	-999	8	[6, 1, 1]	8	FR1	0	R1339D
3747.337	4.834	3748369	PROB	4.834	n/a	n/a	-999	8	[8, 1, 3]	12	FR1	0	R1339D
3752.171	4.634	3753203	PROB	4.634	n/a	n/a	-999	8	[2, 3, 5]	10	FR1	0	R1339D
3756.805	4.625	3757837	PROB	4.625	n/a	n/a	-999	8	[6, 7, 1]	14	FR1	0	R1339D
3761.43	0.009	3762462	STOP	n/a	n/a	n/a	-999	8	[-999, -999, -999]	n/a	FR1	0	R1339D
3761.439	0.691	3762471	DISTRACT_END	n/a	n/a	n/a	-999	8	[0, 0, 0]	n/a	FR1	0	R1339D
3762.13	1.643	3763162	RETRIEVAL_ORIENT_START	n/a	n/a	n/a	-999	8	[0, 0, 0]	n/a	FR1	0	R1339D
3763.773	0.001	3764804	RETRIEVAL_ORIENT_END	n/a	n/a	n/a	-999	8	[0, 0, 0]	n/a	FR1	0	R1339D
3763.774	0.748	3764805	REC_START	n/a	n/a	n/a	-999	8	[0, 0, 0]	n/a	FR1	0	R1339D
3764.522	0.567	3765553	REC_WORD	0.567	n/a	CAGE	3	8	[0, 0, 0]	n/a	FR1	0	R1339D
3765.089	1.422	3766120	REC_WORD	1.422	n/a	SHRIMP	4	8	[0, 0, 0]	n/a	FR1	0	R1339D
3766.511	1.014	3767542	REC_WORD	1.014	n/a	JAIL	2	8	[0, 0, 0]	n/a	FR1	0	R1339D
3767.525	2.919	3768556	REC_WORD	2.919	n/a	BAT	8	8	[0, 0, 0]	n/a	FR1	0	R1339D
3770.444	23.341	3771475	REC_WORD	23.341	n/a	BEAR	7	8	[0, 0, 0]	n/a	FR1	0	R1339D
3793.785	0.0	3794815	REC_END	n/a	n/a	n/a	-999	8	[0, 0, 0]	n/a	FR1	0	R1339D
3793.785	0.014	3794815	TRIAL_END	n/a	n/a	n/a	-999	8	[0, 0, 0]	n/a	FR1	0	R1339D
3793.799	0.001	3794829	TRIAL_START	n/a	n/a	n/a	-999	9	[0, 0, 0]	n/a	FR1	0	R1339D
3793.8	0.0	3794830	TRIAL	n/a	n/a	n/a	-999	9	[0, 0, 0]	n/a	FR1	0	R1339D
3793.8	10.497	3794830	WAITING_START	n/a	n/a	n/a	-999	9	[0, 0, 0]	n/a	FR1	0	R1339D
3804.297	0.001	3805326	WAITING_END	n/a	n/a	n/a	-999	9	[0, 0, 0]	n/a	FR1	0	R1339D
3804.298	10.428	3805327	COUNTDOWN_START	n/a	n/a	n/a	-999	9	[0, 0, 0]	n/a	FR1	0	R1339D
3814.726	0.001	3815755	COUNTDOWN_END	n/a	n/a	n/a	-999	9	[0, 0, 0]	n/a	FR1	0	R1339D
3814.727	1.106	3815756	ORIENT_START	n/a	n/a	n/a	-999	9	[0, 0, 0]	n/a	FR1	0	R1339D
3815.833	0.0	3816862	ORIENT_END	n/a	n/a	n/a	-999	9	[0, 0, 0]	n/a	FR1	0	R1339D
3815.833	1.128	3816862	ENCODING_START	n/a	n/a	n/a	-999	9	[0, 0, 0]	n/a	FR1	0	R1339D
3816.961	1.621	3817990	WORD	n/a	wordpools/wordpool_EN.txt	BOAT	1	9	[0, 0, 0]	n/a	FR1	0	R1339D
3818.582	1.057	3819611	WORD_OFF	n/a	n/a	BOAT	1	9	[0, 0, 0]	n/a	FR1	0	R1339D
3819.639	1.611	3820667	WORD	n/a	wordpools/wordpool_EN.txt	CLOWN	2	9	[0, 0, 0]	n/a	FR1	0	R1339D
3821.25	1.09	3822278	WORD_OFF	n/a	n/a	CLOWN	2	9	[0, 0, 0]	n/a	FR1	0	R1339D
3822.34	1.611	3823368	WORD	n/a	wordpools/wordpool_EN.txt	CLOTH	3	9	[0, 0, 0]	n/a	FR1	0	R1339D
3823.951	0.891	3824979	WORD_OFF	n/a	n/a	CLOTH	3	9	[0, 0, 0]	n/a	FR1	0	R1339D
3824.842	1.626	3825870	WORD	n/a	wordpools/wordpool_EN.txt	STEM	4	9	[0, 0, 0]	n/a	FR1	0	R1339D
3826.468	1.09	3827496	WORD_OFF	n/a	n/a	STEM	4	9	[0, 0, 0]	n/a	FR1	0	R1339D
3827.558	1.61	3828586	WORD	n/a	wordpools/wordpool_EN.txt	PIG	5	9	[0, 0, 0]	n/a	FR1	0	R1339D
3829.168	1.071	3830196	WORD_OFF	n/a	n/a	PIG	5	9	[0, 0, 0]	n/a	FR1	0	R1339D
3830.239	1.63	3831267	WORD	n/a	wordpools/wordpool_EN.txt	PLANE	6	9	[0, 0, 0]	n/a	FR1	0	R1339D
3831.869	0.814	3832897	WORD_OFF	n/a	n/a	PLANE	6	9	[0, 0, 0]	n/a	FR1	0	R1339D
3832.683	1.636	3833711	WORD	n/a	wordpools/wordpool_EN.txt	SLIME	7	9	[0, 0, 0]	n/a	FR1	0	R1339D
3834.319	0.842	3835347	WORD_OFF	n/a	n/a	SLIME	7	9	[0, 0, 0]	n/a	FR1	0	R1339D
3835.161	1.626	3836189	WORD	n/a	wordpools/wordpool_EN.txt	FORT	8	9	[0, 0, 0]	n/a	FR1	0	R1339D
3836.787	1.043	3837815	WORD_OFF	n/a	n/a	FORT	8	9	[0, 0, 0]	n/a	FR1	0	R1339D
3837.83	1.624	3838857	WORD	n/a	wordpools/wordpool_EN.txt	BEAK	9	9	[0, 0, 0]	n/a	FR1	0	R1339D
3839.454	0.906	3840481	WORD_OFF	n/a	n/a	BEAK	9	9	[0, 0, 0]	n/a	FR1	0	R1339D
3840.36	1.628	3841387	WORD	n/a	wordpools/wordpool_EN.txt	CAT	10	9	[0, 0, 0]	n/a	FR1	0	R1339D
3841.988	0.886	3843015	WORD_OFF	n/a	n/a	CAT	10	9	[0, 0, 0]	n/a	FR1	0	R1339D
3842.874	1.631	3843901	WORD	n/a	wordpools/wordpool_EN.txt	SIGN	11	9	[0, 0, 0]	n/a	FR1	0	R1339D
3844.505	1.131	3845532	WORD_OFF	n/a	n/a	SIGN	11	9	[0, 0, 0]	n/a	FR1	0	R1339D
3845.636	1.636	3846663	WORD	n/a	wordpools/wordpool_EN.txt	LOCK	12	9	[0, 0, 0]	n/a	FR1	0	R1339D
3847.272	0.0	3848299	WORD_OFF	n/a	n/a	LOCK	12	9	[0, 0, 0]	n/a	FR1	0	R1339D
3847.272	0.0	3848299	ENCODING_END	n/a	n/a	n/a	-999	9	[0, 0, 0]	n/a	FR1	0	R1339D
3847.272	0.001	3848299	DISTRACT_START	n/a	n/a	n/a	-999	9	[0, 0, 0]	n/a	FR1	0	R1339D
3847.273	0.015	3848300	START	n/a	n/a	n/a	-999	9	[-999, -999, -999]	n/a	FR1	0	R1339D
3847.288	3.333	3848315	PROB	3.333	n/a	n/a	-999	9	[1, 3, 9]	13	FR1	0	R1339D
3850.621	4.719	3851648	PROB	4.719	n/a	n/a	-999	9	[4, 5, 3]	12	FR1	0	R1339D
3855.34	2.383	3856367	PROB	2.383	n/a	n/a	-999	9	[9, 4, 1]	14	FR1	0	R1339D
3857.723	5.418	3858749	PROB	5.418	n/a	n/a	-999	9	[4, 8, 5]	17	FR1	0	R1339D
3863.141	7.063	3864167	PROB	7.063	n/a	n/a	-999	9	[5, 1, 8]	14	FR1	0	R1339D
3870.204	0.022	3871230	STOP	n/a	n/a	n/a	-999	9	[-999, -999, -999]	n/a	FR1	0	R1339D
3870.226	0.673	3871252	DISTRACT_END	n/a	n/a	n/a	-999	9	[0, 0, 0]	n/a	FR1	0	R1339D
3870.899	1.627	3871925	RETRIEVAL_ORIENT_START	n/a	n/a	n/a	-999	9	[0, 0, 0]	n/a	FR1	0	R1339D
3872.526	0.001	3873552	RETRIEVAL_ORIENT_END	n/a	n/a	n/a	-999	9	[0, 0, 0]	n/a	FR1	0	R1339D
3872.527	2.82	3873553	REC_START	n/a	n/a	n/a	-999	9	[0, 0, 0]	n/a	FR1	0	R1339D
3875.347	11.077	3876372	REC_WORD	11.077	n/a	BOAT	1	9	[0, 0, 0]	n/a	FR1	0	R1339D
3886.424	16.114	3887449	REC_WORD	16.114	n/a	CAT	10	9	[0, 0, 0]	n/a	FR1	0	R1339D
3902.538	0.001	3903562	REC_END	n/a	n/a	n/a	-999	9	[0, 0, 0]	n/a	FR1	0	R1339D
3902.539	0.014	3903563	TRIAL_END	n/a	n/a	n/a	-999	9	[0, 0, 0]	n/a	FR1	0	R1339D
3902.553	0.0	3903577	TRIAL_START	n/a	n/a	n/a	-999	10	[0, 0, 0]	n/a	FR1	0	R1339D
3902.553	0.0	3903577	TRIAL	n/a	n/a	n/a	-999	10	[0, 0, 0]	n/a	FR1	0	R1339D
3902.553	238.789	3903577	WAITING_START	n/a	n/a	n/a	-999	10	[0, 0, 0]	n/a	FR1	0	R1339D
4141.342	0.001	4142353	WAITING_END	n/a	n/a	n/a	-999	10	[0, 0, 0]	n/a	FR1	0	R1339D
4141.343	10.429	4142354	COUNTDOWN_START	n/a	n/a	n/a	-999	10	[0, 0, 0]	n/a	FR1	0	R1339D
4151.772	0.0	4152783	COUNTDOWN_END	n/a	n/a	n/a	-999	10	[0, 0, 0]	n/a	FR1	0	R1339D
4151.772	1.239	4152783	ORIENT_START	n/a	n/a	n/a	-999	10	[0, 0, 0]	n/a	FR1	0	R1339D
4153.011	0.0	4154022	ENCODING_START	n/a	n/a	n/a	-999	10	[0, 0, 0]	n/a	FR1	0	R1339D
4153.011	0.759	4154022	ORIENT_END	n/a	n/a	n/a	-999	10	[0, 0, 0]	n/a	FR1	0	R1339D
4153.77	1.625	4154781	WORD	n/a	wordpools/wordpool_EN.txt	PEACH	1	10	[0, 0, 0]	n/a	FR1	0	R1339D
4155.395	0.921	4156406	WORD_OFF	n/a	n/a	PEACH	1	10	[0, 0, 0]	n/a	FR1	0	R1339D
4156.316	1.629	4157327	WORD	n/a	wordpools/wordpool_EN.txt	BED	2	10	[0, 0, 0]	n/a	FR1	0	R1339D
4157.945	0.751	4158955	WORD_OFF	n/a	n/a	BED	2	10	[0, 0, 0]	n/a	FR1	0	R1339D
4158.696	1.633	4159706	WORD	n/a	wordpools/wordpool_EN.txt	DOOR	3	10	[0, 0, 0]	n/a	FR1	0	R1339D
4160.329	0.827	4161339	WORD_OFF	n/a	n/a	DOOR	3	10	[0, 0, 0]	n/a	FR1	0	R1339D
4161.156	1.623	4162166	WORD	n/a	wordpools/wordpool_EN.txt	FLOOR	4	10	[0, 0, 0]	n/a	FR1	0	R1339D
4162.779	0.902	4163789	WORD_OFF	n/a	n/a	FLOOR	4	10	[0, 0, 0]	n/a	FR1	0	R1339D
4163.681	1.632	4164691	WORD	n/a	wordpools/wordpool_EN.txt	FORK	5	10	[0, 0, 0]	n/a	FR1	0	R1339D
4165.313	0.803	4166323	WORD_OFF	n/a	n/a	FORK	5	10	[0, 0, 0]	n/a	FR1	0	R1339D
4166.116	1.631	4167126	WORD	n/a	wordpools/wordpool_EN.txt	GEESE	6	10	[0, 0, 0]	n/a	FR1	0	R1339D
4167.747	0.927	4168757	WORD_OFF	n/a	n/a	GEESE	6	10	[0, 0, 0]	n/a	FR1	0	R1339D
4168.674	1.623	4169684	WORD	n/a	wordpools/wordpool_EN.txt	INK	7	10	[0, 0, 0]	n/a	FR1	0	R1339D
4170.297	1.133	4171307	WORD_OFF	n/a	n/a	INK	7	10	[0, 0, 0]	n/a	FR1	0	R1339D
4171.43	1.634	4172440	WORD	n/a	wordpools/wordpool_EN.txt	CHIN	8	10	[0, 0, 0]	n/a	FR1	0	R1339D
4173.064	0.902	4174074	WORD_OFF	n/a	n/a	CHIN	8	10	[0, 0, 0]	n/a	FR1	0	R1339D
4173.966	1.631	4174976	WORD	n/a	wordpools/wordpool_EN.txt	MUG	9	10	[0, 0, 0]	n/a	FR1	0	R1339D
4175.597	1.007	4176607	WORD_OFF	n/a	n/a	MUG	9	10	[0, 0, 0]	n/a	FR1	0	R1339D
4176.604	1.611	4177613	WORD	n/a	wordpools/wordpool_EN.txt	DART	10	10	[0, 0, 0]	n/a	FR1	0	R1339D
4178.215	0.961	4179224	WORD_OFF	n/a	n/a	DART	10	10	[0, 0, 0]	n/a	FR1	0	R1339D
4179.176	1.623	4180185	WORD	n/a	wordpools/wordpool_EN.txt	HILL	11	10	[0, 0, 0]	n/a	FR1	0	R1339D
4180.799	0.821	4181808	WORD_OFF	n/a	n/a	HILL	11	10	[0, 0, 0]	n/a	FR1	0	R1339D
4181.62	1.613	4182629	WORD	n/a	wordpools/wordpool_EN.txt	BARN	12	10	[0, 0, 0]	n/a	FR1	0	R1339D
4183.233	0.001	4184242	WORD_OFF	n/a	n/a	BARN	12	10	[0, 0, 0]	n/a	FR1	0	R1339D
4183.234	0.0	4184243	ENCODING_END	n/a	n/a	n/a	-999	10	[0, 0, 0]	n/a	FR1	0	R1339D
4183.234	0.0	4184243	DISTRACT_START	n/a	n/a	n/a	-999	10	[0, 0, 0]	n/a	FR1	0	R1339D
4183.234	0.015	4184243	START	n/a	n/a	n/a	-999	10	[-999, -999, -999]	n/a	FR1	0	R1339D
4183.249	6.852	4184258	PROB	6.852	n/a	n/a	-999	10	[8, 4, 9]	21	FR1	0	R1339D
4190.101	2.433	4191110	PROB	2.433	n/a	n/a	-999	10	[7, 1, 9]	17	FR1	0	R1339D
4192.534	2.984	4193543	PROB	2.984	n/a	n/a	-999	10	[7, 1, 1]	9	FR1	0	R1339D
4195.518	2.784	4196526	PROB	2.784	n/a	n/a	-999	10	[4, 1, 9]	14	FR1	0	R1339D
4198.302	5.039	4199310	PROB	5.039	n/a	n/a	-999	10	[2, 5, 6]	13	FR1	0	R1339D
4203.341	0.012	4204349	STOP	n/a	n/a	n/a	-999	10	[-999, -999, -999]	n/a	FR1	0	R1339D
4203.353	0.647	4204361	DISTRACT_END	n/a	n/a	n/a	-999	10	[0, 0, 0]	n/a	FR1	0	R1339D
4204.0	1.536	4205008	RETRIEVAL_ORIENT_START	n/a	n/a	n/a	-999	10	[0, 0, 0]	n/a	FR1	0	R1339D
4205.536	0.0	4206544	RETRIEVAL_ORIENT_END	n/a	n/a	n/a	-999	10	[0, 0, 0]	n/a	FR1	0	R1339D
4205.536	0.986	4206544	REC_START	n/a	n/a	n/a	-999	10	[0, 0, 0]	n/a	FR1	0	R1339D
4206.522	0.485	4207530	REC_WORD	0.485	n/a	PEACH	1	10	[0, 0, 0]	n/a	FR1	0	R1339D
4207.007	0.309	4208015	REC_WORD	0.309	n/a	PAD	-999	10	[0, 0, 0]	n/a	FR1	0	R1339D
4207.316	0.34	4208324	REC_WORD	0.34	n/a	DOOR	3	10	[0, 0, 0]	n/a	FR1	0	R1339D
4207.656	3.369	4208664	REC_WORD	3.369	n/a	FLOOR	4	10	[0, 0, 0]	n/a	FR1	0	R1339D
4211.025	24.525	4212033	REC_WORD	24.525	n/a	HORSE	-999	10	[0, 0, 0]	n/a	FR1	0	R1339D
4235.55	0.0	4236556	REC_END	n/a	n/a	n/a	-999	10	[0, 0, 0]	n/a	FR1	0	R1339D
4235.55	0.017	4236556	TRIAL_END	n/a	n/a	n/a	-999	10	[0, 0, 0]	n/a	FR1	0	R1339D
4235.567	0.0	4236573	TRIAL_START	n/a	n/a	n/a	-999	11	[0, 0, 0]	n/a	FR1	0	R1339D
4235.567	0.0	4236573	TRIAL	n/a	n/a	n/a	-999	11	[0, 0, 0]	n/a	FR1	0	R1339D
4235.567	25.129	4236573	WAITING_START	n/a	n/a	n/a	-999	11	[0, 0, 0]	n/a	FR1	0	R1339D
4260.696	0.001	4261701	WAITING_END	n/a	n/a	n/a	-999	11	[0, 0, 0]	n/a	FR1	0	R1339D
4260.697	10.428	4261702	COUNTDOWN_START	n/a	n/a	n/a	-999	11	[0, 0, 0]	n/a	FR1	0	R1339D
4271.125	0.001	4272129	COUNTDOWN_END	n/a	n/a	n/a	-999	11	[0, 0, 0]	n/a	FR1	0	R1339D
4271.126	1.19	4272130	ORIENT_START	n/a	n/a	n/a	-999	11	[0, 0, 0]	n/a	FR1	0	R1339D
4272.316	0.0	4273320	ENCODING_START	n/a	n/a	n/a	-999	11	[0, 0, 0]	n/a	FR1	0	R1339D
4272.316	1.15	4273320	ORIENT_END	n/a	n/a	n/a	-999	11	[0, 0, 0]	n/a	FR1	0	R1339D
4273.466	1.634	4274470	WORD	n/a	wordpools/wordpool_EN.txt	HOOK	1	11	[0, 0, 0]	n/a	FR1	0	R1339D
4275.1	1.055	4276104	WORD_OFF	n/a	n/a	HOOK	1	11	[0, 0, 0]	n/a	FR1	0	R1339D
4276.155	1.629	4277159	WORD	n/a	wordpools/wordpool_EN.txt	HOSE	2	11	[0, 0, 0]	n/a	FR1	0	R1339D
4277.784	0.885	4278788	WORD_OFF	n/a	n/a	HOSE	2	11	[0, 0, 0]	n/a	FR1	0	R1339D
4278.669	1.632	4279673	WORD	n/a	wordpools/wordpool_EN.txt	WORLD	3	11	[0, 0, 0]	n/a	FR1	0	R1339D
4280.301	1.145	4281305	WORD_OFF	n/a	n/a	WORLD	3	11	[0, 0, 0]	n/a	FR1	0	R1339D
4281.446	1.639	4282450	WORD	n/a	wordpools/wordpool_EN.txt	FLUTE	4	11	[0, 0, 0]	n/a	FR1	0	R1339D
4283.085	1.05	4284089	WORD_OFF	n/a	n/a	FLUTE	4	11	[0, 0, 0]	n/a	FR1	0	R1339D
4284.135	1.633	4285139	WORD	n/a	wordpools/wordpool_EN.txt	BLUSH	5	11	[0, 0, 0]	n/a	FR1	0	R1339D
4285.768	0.852	4286772	WORD_OFF	n/a	n/a	BLUSH	5	11	[0, 0, 0]	n/a	FR1	0	R1339D
4286.62	1.615	4287624	WORD	n/a	wordpools/wordpool_EN.txt	BREAD	6	11	[0, 0, 0]	n/a	FR1	0	R1339D
4288.235	0.919	4289239	WORD_OFF	n/a	n/a	BREAD	6	11	[0, 0, 0]	n/a	FR1	0	R1339D
4289.154	1.632	4290157	WORD	n/a	wordpools/wordpool_EN.txt	ANT	7	11	[0, 0, 0]	n/a	FR1	0	R1339D
4290.786	0.907	4291789	WORD_OFF	n/a	n/a	ANT	7	11	[0, 0, 0]	n/a	FR1	0	R1339D
4291.693	1.627	4292696	WORD	n/a	wordpools/wordpool_EN.txt	STRAW	8	11	[0, 0, 0]	n/a	FR1	0	R1339D
4293.32	0.88	4294323	WORD_OFF	n/a	n/a	STRAW	8	11	[0, 0, 0]	n/a	FR1	0	R1339D
4294.2	1.637	4295203	WORD	n/a	wordpools/wordpool_EN.txt	SMILE	9	11	[0, 0, 0]	n/a	FR1	0	R1339D
4295.837	1.073	4296840	WORD_OFF	n/a	n/a	SMILE	9	11	[0, 0, 0]	n/a	FR1	0	R1339D
4296.91	1.627	4297913	WORD	n/a	wordpools/wordpool_EN.txt	KITE	10	11	[0, 0, 0]	n/a	FR1	0	R1339D
4298.537	1.088	4299540	WORD_OFF	n/a	n/a	KITE	10	11	[0, 0, 0]	n/a	FR1	0	R1339D
4299.625	1.613	4300628	WORD	n/a	wordpools/wordpool_EN.txt	FENCE	11	11	[0, 0, 0]	n/a	FR1	0	R1339D
4301.238	1.141	4302241	WORD_OFF	n/a	n/a	FENCE	11	11	[0, 0, 0]	n/a	FR1	0	R1339D
4302.379	1.626	4303382	WORD	n/a	wordpools/wordpool_EN.txt	STEAK	12	11	[0, 0, 0]	n/a	FR1	0	R1339D
4304.005	0.001	4305008	WORD_OFF	n/a	n/a	STEAK	12	11	[0, 0, 0]	n/a	FR1	0	R1339D
4304.006	0.0	4305009	ENCODING_END	n/a	n/a	n/a	-999	11	[0, 0, 0]	n/a	FR1	0	R1339D
4304.006	0.0	4305009	DISTRACT_START	n/a	n/a	n/a	-999	11	[0, 0, 0]	n/a	FR1	0	R1339D
4304.006	0.015	4305009	START	n/a	n/a	n/a	-999	11	[-999, -999, -999]	n/a	FR1	0	R1339D
4304.021	3.55	4305024	PROB	3.55	n/a	n/a	-999	11	[5, 4, 5]	14	FR1	0	R1339D
4307.571	4.435	4308573	PROB	4.435	n/a	n/a	-999	11	[7, 1, 8]	16	FR1	0	R1339D
4312.006	2.784	4313008	PROB	2.784	n/a	n/a	-999	11	[6, 5, 1]	12	FR1	0	R1339D
4314.79	2.367	4315792	PROB	2.367	n/a	n/a	-999	11	[9, 2, 1]	12	FR1	0	R1339D
4317.157	2.317	4318159	PROB	2.317	n/a	n/a	-999	11	[3, 8, 2]	13	FR1	0	R1339D
4319.474	4.034	4320476	PROB	4.034	n/a	n/a	-999	11	[5, 3, 9]	17	FR1	0	R1339D
4323.508	5.445	4324510	PROB	5.445	n/a	n/a	-999	11	[2, 2, 3]	7	FR1	0	R1339D
4328.953	0.006	4329954	STOP	n/a	n/a	n/a	-999	11	[-999, -999, -999]	n/a	FR1	0	R1339D
4328.959	0.551	4329960	DISTRACT_END	n/a	n/a	n/a	-999	11	[0, 0, 0]	n/a	FR1	0	R1339D
4329.51	1.617	4330511	RETRIEVAL_ORIENT_START	n/a	n/a	n/a	-999	11	[0, 0, 0]	n/a	FR1	0	R1339D
4331.127	0.0	4332128	RETRIEVAL_ORIENT_END	n/a	n/a	n/a	-999	11	[0, 0, 0]	n/a	FR1	0	R1339D
4331.127	0.659	4332128	REC_START	n/a	n/a	n/a	-999	11	[0, 0, 0]	n/a	FR1	0	R1339D
4331.786	0.637	4332787	REC_WORD	0.637	n/a	HOOK	1	11	[0, 0, 0]	n/a	FR1	0	R1339D
4332.423	0.891	4333424	REC_WORD	0.891	n/a	HOSE	2	11	[0, 0, 0]	n/a	FR1	0	R1339D
4333.314	2.057	4334315	REC_WORD	2.057	n/a	SMILE	9	11	[0, 0, 0]	n/a	FR1	0	R1339D
4335.371	25.767	4336372	REC_WORD	25.767	n/a	KITE	10	11	[0, 0, 0]	n/a	FR1	0	R1339D
4361.138	0.0	4362138	REC_END	n/a	n/a	n/a	-999	11	[0, 0, 0]	n/a	FR1	0	R1339D
4361.138	0.014	4362138	TRIAL_END	n/a	n/a	n/a	-999	11	[0, 0, 0]	n/a	FR1	0	R1339D
4361.152	0.0	4362152	TRIAL_START	n/a	n/a	n/a	-999	12	[0, 0, 0]	n/a	FR1	0	R1339D
4361.152	0.0	4362152	TRIAL	n/a	n/a	n/a	-999	12	[0, 0, 0]	n/a	FR1	0	R1339D
4361.152	305.402	4362152	WAITING_START	n/a	n/a	n/a	-999	12	[0, 0, 0]	n/a	FR1	0	R1339D
4666.554	0.0	4667537	WAITING_END	n/a	n/a	n/a	-999	12	[0, 0, 0]	n/a	FR1	0	R1339D
4666.554	10.429	4667537	COUNTDOWN_START	n/a	n/a	n/a	-999	12	[0, 0, 0]	n/a	FR1	0	R1339D
4676.983	0.0	4677966	COUNTDOWN_END	n/a	n/a	n/a	-999	12	[0, 0, 0]	n/a	FR1	0	R1339D
4676.983	1.107	4677966	ORIENT_START	n/a	n/a	n/a	-999	12	[0, 0, 0]	n/a	FR1	0	R1339D
4678.09	0.0	4679073	ENCODING_START	n/a	n/a	n/a	-999	12	[0, 0, 0]	n/a	FR1	0	R1339D
4678.09	0.972	4679073	ORIENT_END	n/a	n/a	n/a	-999	12	[0, 0, 0]	n/a	FR1	0	R1339D
4679.062	1.627	4680045	WORD	n/a	wordpools/wordpool_EN.txt	GRASS	1	12	[0, 0, 0]	n/a	FR1	0	R1339D
4680.689	1.135	4681672	WORD_OFF	n/a	n/a	GRASS	1	12	[0, 0, 0]	n/a	FR1	0	R1339D
4681.824	1.633	4682807	WORD	n/a	wordpools/wordpool_EN.txt	SPRING	2	12	[0, 0, 0]	n/a	FR1	0	R1339D
4683.457	0.819	4684440	WORD_OFF	n/a	n/a	SPRING	2	12	[0, 0, 0]	n/a	FR1	0	R1339D
4684.276	1.632	4685258	WORD	n/a	wordpools/wordpool_EN.txt	SINK	3	12	[0, 0, 0]	n/a	FR1	0	R1339D
4685.908	1.122	4686890	WORD_OFF	n/a	n/a	SINK	3	12	[0, 0, 0]	n/a	FR1	0	R1339D
4687.03	1.627	4688012	WORD	n/a	wordpools/wordpool_EN.txt	SHELL	4	12	[0, 0, 0]	n/a	FR1	0	R1339D
4688.657	0.86	4689639	WORD_OFF	n/a	n/a	SHELL	4	12	[0, 0, 0]	n/a	FR1	0	R1339D
4689.517	1.625	4690499	WORD	n/a	wordpools/wordpool_EN.txt	ROPE	5	12	[0, 0, 0]	n/a	FR1	0	R1339D
4691.142	1.019	4692124	WORD_OFF	n/a	n/a	ROPE	5	12	[0, 0, 0]	n/a	FR1	0	R1339D
4692.161	1.632	4693143	WORD	n/a	wordpools/wordpool_EN.txt	HOUSE	6	12	[0, 0, 0]	n/a	FR1	0	R1339D
4693.793	0.753	4694775	WORD_OFF	n/a	n/a	HOUSE	6	12	[0, 0, 0]	n/a	FR1	0	R1339D
4694.546	1.614	4695528	WORD	n/a	wordpools/wordpool_EN.txt	GATE	7	12	[0, 0, 0]	n/a	FR1	0	R1339D
4696.16	0.821	4697142	WORD_OFF	n/a	n/a	GATE	7	12	[0, 0, 0]	n/a	FR1	0	R1339D
4696.981	1.628	4697963	WORD	n/a	wordpools/wordpool_EN.txt	TRAIN	8	12	[0, 0, 0]	n/a	FR1	0	R1339D
4698.609	1.097	4699591	WORD_OFF	n/a	n/a	TRAIN	8	12	[0, 0, 0]	n/a	FR1	0	R1339D
4699.706	1.638	4700688	WORD	n/a	wordpools/wordpool_EN.txt	JET	9	12	[0, 0, 0]	n/a	FR1	0	R1339D
4701.344	0.915	4702326	WORD_OFF	n/a	n/a	JET	9	12	[0, 0, 0]	n/a	FR1	0	R1339D
4702.259	1.636	4703241	WORD	n/a	wordpools/wordpool_EN.txt	BOY	10	12	[0, 0, 0]	n/a	FR1	0	R1339D
4703.895	1.069	4704876	WORD_OFF	n/a	n/a	BOY	10	12	[0, 0, 0]	n/a	FR1	0	R1339D
4704.964	1.63	4705945	WORD	n/a	wordpools/wordpool_EN.txt	SNAKE	11	12	[0, 0, 0]	n/a	FR1	0	R1339D
4706.594	0.972	4707575	WORD_OFF	n/a	n/a	SNAKE	11	12	[0, 0, 0]	n/a	FR1	0	R1339D
4707.566	1.63	4708547	WORD	n/a	wordpools/wordpool_EN.txt	PIPE	12	12	[0, 0, 0]	n/a	FR1	0	R1339D
4709.196	0.0	4710177	WORD_OFF	n/a	n/a	PIPE	12	12	[0, 0, 0]	n/a	FR1	0	R1339D
4709.196	0.0	4710177	ENCODING_END	n/a	n/a	n/a	-999	12	[0, 0, 0]	n/a	FR1	0	R1339D
4709.196	0.0	4710177	DISTRACT_START	n/a	n/a	n/a	-999	12	[0, 0, 0]	n/a	FR1	0	R1339D
4709.196	0.016	4710177	START	n/a	n/a	n/a	-999	12	[-999, -999, -999]	n/a	FR1	0	R1339D
4709.212	2.967	4710193	PROB	2.967	n/a	n/a	-999	12	[1, 4, 2]	7	FR1	0	R1339D
4712.179	2.466	4713160	PROB	2.466	n/a	n/a	-999	12	[2, 8, 3]	13	FR1	0	R1339D
4714.645	3.302	4715626	PROB	3.302	n/a	n/a	-999	12	[3, 6, 4]	13	FR1	0	R1339D
4717.947	3.65	4718928	PROB	3.65	n/a	n/a	-999	12	[2, 2, 9]	13	FR1	0	R1339D
4721.597	2.484	4722577	PROB	2.484	n/a	n/a	-999	12	[5, 1, 9]	15	FR1	0	R1339D
4724.081	4.567	4725061	PROB	4.567	n/a	n/a	-999	12	[5, 7, 9]	20	FR1	0	R1339D
4728.648	5.589	4729628	PROB	5.589	n/a	n/a	-999	12	[2, 3, 2]	7	FR1	0	R1339D
4734.237	0.013	4735217	STOP	n/a	n/a	n/a	-999	12	[-999, -999, -999]	n/a	FR1	0	R1339D
4734.25	0.657	4735230	DISTRACT_END	n/a	n/a	n/a	-999	12	[0, 0, 0]	n/a	FR1	0	R1339D
4734.907	1.577	4735887	RETRIEVAL_ORIENT_START	n/a	n/a	n/a	-999	12	[0, 0, 0]	n/a	FR1	0	R1339D
4736.484	0.0	4737464	RETRIEVAL_ORIENT_END	n/a	n/a	n/a	-999	12	[0, 0, 0]	n/a	FR1	0	R1339D
4736.484	1.95	4737464	REC_START	n/a	n/a	n/a	-999	12	[0, 0, 0]	n/a	FR1	0	R1339D
4738.434	0.889	4739414	REC_WORD	0.889	n/a	GRASS	1	12	[0, 0, 0]	n/a	FR1	0	R1339D
4739.323	0.819	4740303	REC_WORD	0.819	n/a	HOUSE	6	12	[0, 0, 0]	n/a	FR1	0	R1339D
4740.142	2.354	4741121	REC_WORD	2.354	n/a	SNAKE	11	12	[0, 0, 0]	n/a	FR1	0	R1339D
4742.496	1.008	4743475	REC_WORD	1.008	n/a	JET	9	12	[0, 0, 0]	n/a	FR1	0	R1339D
4743.504	22.993	4744483	REC_WORD	22.993	n/a	BOY	10	12	[0, 0, 0]	n/a	FR1	0	R1339D
4766.497	0.001	4767475	REC_END	n/a	n/a	n/a	-999	12	[0, 0, 0]	n/a	FR1	0	R1339D
4766.498	0.014	4767476	TRIAL_END	n/a	n/a	n/a	-999	12	[0, 0, 0]	n/a	FR1	0	R1339D
4766.512	0.0	4767490	TRIAL_START	n/a	n/a	n/a	-999	13	[0, 0, 0]	n/a	FR1	0	R1339D
4766.512	0.0	4767490	TRIAL	n/a	n/a	n/a	-999	13	[0, 0, 0]	n/a	FR1	0	R1339D
4766.512	3.261	4767490	WAITING_START	n/a	n/a	n/a	-999	13	[0, 0, 0]	n/a	FR1	0	R1339D
4769.773	0.001	4770751	WAITING_END	n/a	n/a	n/a	-999	13	[0, 0, 0]	n/a	FR1	0	R1339D
4769.774	10.428	4770752	COUNTDOWN_START	n/a	n/a	n/a	-999	13	[0, 0, 0]	n/a	FR1	0	R1339D
4780.202	0.001	4781179	COUNTDOWN_END	n/a	n/a	n/a	-999	13	[0, 0, 0]	n/a	FR1	0	R1339D
4780.203	1.022	4781180	ORIENT_START	n/a	n/a	n/a	-999	13	[0, 0, 0]	n/a	FR1	0	R1339D
4781.225	0.001	4782202	ORIENT_END	n/a	n/a	n/a	-999	13	[0, 0, 0]	n/a	FR1	0	R1339D
4781.226	0.923	4782203	ENCODING_START	n/a	n/a	n/a	-999	13	[0, 0, 0]	n/a	FR1	0	R1339D
4782.149	1.627	4783126	WORD	n/a	wordpools/wordpool_EN.txt	CHALK	1	13	[0, 0, 0]	n/a	FR1	0	R1339D
4783.776	1.059	4784753	WORD_OFF	n/a	n/a	CHALK	1	13	[0, 0, 0]	n/a	FR1	0	R1339D
4784.835	1.625	4785812	WORD	n/a	wordpools/wordpool_EN.txt	HORN	2	13	[0, 0, 0]	n/a	FR1	0	R1339D
4786.46	1.109	4787437	WORD_OFF	n/a	n/a	HORN	2	13	[0, 0, 0]	n/a	FR1	0	R1339D
4787.569	1.608	4788546	WORD	n/a	wordpools/wordpool_EN.txt	SHARK	3	13	[0, 0, 0]	n/a	FR1	0	R1339D
4789.177	0.859	4790154	WORD_OFF	n/a	n/a	SHARK	3	13	[0, 0, 0]	n/a	FR1	0	R1339D
4790.036	1.624	4791013	WORD	n/a	wordpools/wordpool_EN.txt	TOE	4	13	[0, 0, 0]	n/a	FR1	0	R1339D
4791.66	0.786	4792637	WORD_OFF	n/a	n/a	TOE	4	13	[0, 0, 0]	n/a	FR1	0	R1339D
4792.446	1.632	4793423	WORD	n/a	wordpools/wordpool_EN.txt	PURSE	5	13	[0, 0, 0]	n/a	FR1	0	R1339D
4794.078	0.805	4795055	WORD_OFF	n/a	n/a	PURSE	5	13	[0, 0, 0]	n/a	FR1	0	R1339D
4794.883	1.629	4795860	WORD	n/a	wordpools/wordpool_EN.txt	PRINCE	6	13	[0, 0, 0]	n/a	FR1	0	R1339D
4796.512	0.871	4797488	WORD_OFF	n/a	n/a	PRINCE	6	13	[0, 0, 0]	n/a	FR1	0	R1339D
4797.383	1.629	4798359	WORD	n/a	wordpools/wordpool_EN.txt	JUDGE	7	13	[0, 0, 0]	n/a	FR1	0	R1339D
4799.012	0.879	4799988	WORD_OFF	n/a	n/a	JUDGE	7	13	[0, 0, 0]	n/a	FR1	0	R1339D
4799.891	1.638	4800867	WORD	n/a	wordpools/wordpool_EN.txt	CORD	8	13	[0, 0, 0]	n/a	FR1	0	R1339D
4801.529	1.03	4802505	WORD_OFF	n/a	n/a	CORD	8	13	[0, 0, 0]	n/a	FR1	0	R1339D
4802.559	1.637	4803535	WORD	n/a	wordpools/wordpool_EN.txt	ROOT	9	13	[0, 0, 0]	n/a	FR1	0	R1339D
4804.196	0.897	4805172	WORD_OFF	n/a	n/a	ROOT	9	13	[0, 0, 0]	n/a	FR1	0	R1339D
4805.093	1.636	4806069	WORD	n/a	wordpools/wordpool_EN.txt	FOAM	10	13	[0, 0, 0]	n/a	FR1	0	R1339D
4806.729	0.973	4807705	WORD_OFF	n/a	n/a	FOAM	10	13	[0, 0, 0]	n/a	FR1	0	R1339D
4807.702	1.629	4808678	WORD	n/a	wordpools/wordpool_EN.txt	MUD	11	13	[0, 0, 0]	n/a	FR1	0	R1339D
4809.331	0.959	4810307	WORD_OFF	n/a	n/a	MUD	11	13	[0, 0, 0]	n/a	FR1	0	R1339D
4810.29	1.624	4811266	WORD	n/a	wordpools/wordpool_EN.txt	LEG	12	13	[0, 0, 0]	n/a	FR1	0	R1339D
4811.914	0.001	4812890	WORD_OFF	n/a	n/a	LEG	12	13	[0, 0, 0]	n/a	FR1	0	R1339D
4811.915	0.0	4812891	ENCODING_END	n/a	n/a	n/a	-999	13	[0, 0, 0]	n/a	FR1	0	R1339D
4811.915	0.0	4812891	DISTRACT_START	n/a	n/a	n/a	-999	13	[0, 0, 0]	n/a	FR1	0	R1339D
4811.915	0.016	4812891	START	n/a	n/a	n/a	-999	13	[-999, -999, -999]	n/a	FR1	0	R1339D
4811.931	4.201	4812907	PROB	4.201	n/a	n/a	-999	13	[1, 8, 8]	17	FR1	0	R1339D
4816.132	23.501	4817107	PROB	23.501	n/a	n/a	-999	13	[6, 8, 9]	23	FR1	0	R1339D
4839.633	0.019	4840607	STOP	n/a	n/a	n/a	-999	13	[-999, -999, -999]	n/a	FR1	0	R1339D
4839.652	0.691	4840626	DISTRACT_END	n/a	n/a	n/a	-999	13	[0, 0, 0]	n/a	FR1	0	R1339D
4840.343	1.61	4841317	RETRIEVAL_ORIENT_START	n/a	n/a	n/a	-999	13	[0, 0, 0]	n/a	FR1	0	R1339D
4841.953	0.001	4842927	RETRIEVAL_ORIENT_END	n/a	n/a	n/a	-999	13	[0, 0, 0]	n/a	FR1	0	R1339D
4841.954	5.61	4842928	REC_START	n/a	n/a	n/a	-999	13	[0, 0, 0]	n/a	FR1	0	R1339D
4847.564	24.403	4848538	REC_WORD	24.403	n/a	CORD	8	13	[0, 0, 0]	n/a	FR1	0	R1339D
4871.967	0.0	4872939	REC_END	n/a	n/a	n/a	-999	13	[0, 0, 0]	n/a	FR1	0	R1339D
4871.967	0.015	4872939	TRIAL_END	n/a	n/a	n/a	-999	13	[0, 0, 0]	n/a	FR1	0	R1339D
4871.982	0.0	4872954	WAITING_START	n/a	n/a	n/a	-999	14	[0, 0, 0]	n/a	FR1	0	R1339D
4871.982	0.0	4872954	TRIAL_START	n/a	n/a	n/a	-999	14	[0, 0, 0]	n/a	FR1	0	R1339D
4871.982	50.886	4872954	TRIAL	n/a	n/a	n/a	-999	14	[0, 0, 0]	n/a	FR1	0	R1339D
4922.868	0.0	4923838	WAITING_END	n/a	n/a	n/a	-999	14	[0, 0, 0]	n/a	FR1	0	R1339D
4922.868	10.429	4923838	COUNTDOWN_START	n/a	n/a	n/a	-999	14	[0, 0, 0]	n/a	FR1	0	R1339D
4933.297	0.001	4934266	COUNTDOWN_END	n/a	n/a	n/a	-999	14	[0, 0, 0]	n/a	FR1	0	R1339D
4933.298	1.105	4934267	ORIENT_START	n/a	n/a	n/a	-999	14	[0, 0, 0]	n/a	FR1	0	R1339D
4934.403	0.001	4935372	ORIENT_END	n/a	n/a	n/a	-999	14	[0, 0, 0]	n/a	FR1	0	R1339D
4934.404	0.852	4935373	ENCODING_START	n/a	n/a	n/a	-999	14	[0, 0, 0]	n/a	FR1	0	R1339D
4935.256	1.631	4936225	WORD	n/a	wordpools/wordpool_EN.txt	TREE	1	14	[0, 0, 0]	n/a	FR1	0	R1339D
4936.887	1.124	4937856	WORD_OFF	n/a	n/a	TREE	1	14	[0, 0, 0]	n/a	FR1	0	R1339D
4938.011	1.626	4938980	WORD	n/a	wordpools/wordpool_EN.txt	BRIDGE	2	14	[0, 0, 0]	n/a	FR1	0	R1339D
4939.637	1.07	4940606	WORD_OFF	n/a	n/a	BRIDGE	2	14	[0, 0, 0]	n/a	FR1	0	R1339D
4940.707	1.614	4941676	WORD	n/a	wordpools/wordpool_EN.txt	BOX	3	14	[0, 0, 0]	n/a	FR1	0	R1339D
4942.321	1.142	4943290	WORD_OFF	n/a	n/a	BOX	3	14	[0, 0, 0]	n/a	FR1	0	R1339D
4943.463	1.626	4944432	WORD	n/a	wordpools/wordpool_EN.txt	STAR	4	14	[0, 0, 0]	n/a	FR1	0	R1339D
4945.089	1.08	4946058	WORD_OFF	n/a	n/a	STAR	4	14	[0, 0, 0]	n/a	FR1	0	R1339D
4946.169	1.637	4947138	WORD	n/a	wordpools/wordpool_EN.txt	CLOUD	5	14	[0, 0, 0]	n/a	FR1	0	R1339D
4947.806	0.76	4948774	WORD_OFF	n/a	n/a	CLOUD	5	14	[0, 0, 0]	n/a	FR1	0	R1339D
4948.566	1.607	4949534	WORD	n/a	wordpools/wordpool_EN.txt	WHEEL	6	14	[0, 0, 0]	n/a	FR1	0	R1339D
4950.173	1.048	4951141	WORD_OFF	n/a	n/a	WHEEL	6	14	[0, 0, 0]	n/a	FR1	0	R1339D
4951.221	1.636	4952189	WORD	n/a	wordpools/wordpool_EN.txt	SEAL	7	14	[0, 0, 0]	n/a	FR1	0	R1339D
4952.857	1.034	4953825	WORD_OFF	n/a	n/a	SEAL	7	14	[0, 0, 0]	n/a	FR1	0	R1339D
4953.891	1.633	4954859	WORD	n/a	wordpools/wordpool_EN.txt	SUIT	8	14	[0, 0, 0]	n/a	FR1	0	R1339D
4955.524	0.971	4956492	WORD_OFF	n/a	n/a	SUIT	8	14	[0, 0, 0]	n/a	FR1	0	R1339D
4956.495	1.629	4957463	WORD	n/a	wordpools/wordpool_EN.txt	COW	9	14	[0, 0, 0]	n/a	FR1	0	R1339D
4958.124	0.791	4959092	WORD_OFF	n/a	n/a	COW	9	14	[0, 0, 0]	n/a	FR1	0	R1339D
4958.915	1.625	4959883	WORD	n/a	wordpools/wordpool_EN.txt	LAND	10	14	[0, 0, 0]	n/a	FR1	0	R1339D
4960.54	1.055	4961508	WORD_OFF	n/a	n/a	LAND	10	14	[0, 0, 0]	n/a	FR1	0	R1339D
4961.595	1.63	4962563	WORD	n/a	wordpools/wordpool_EN.txt	TEA	11	14	[0, 0, 0]	n/a	FR1	0	R1339D
4963.225	0.796	4964193	WORD_OFF	n/a	n/a	TEA	11	14	[0, 0, 0]	n/a	FR1	0	R1339D
4964.021	1.62	4964989	WORD	n/a	wordpools/wordpool_EN.txt	CORN	12	14	[0, 0, 0]	n/a	FR1	0	R1339D
4965.641	0.001	4966608	WORD_OFF	n/a	n/a	CORN	12	14	[0, 0, 0]	n/a	FR1	0	R1339D
4965.642	0.0	4966609	ENCODING_END	n/a	n/a	n/a	-999	14	[0, 0, 0]	n/a	FR1	0	R1339D
4965.642	0.0	4966609	DISTRACT_START	n/a	n/a	n/a	-999	14	[0, 0, 0]	n/a	FR1	0	R1339D
4965.642	0.016	4966609	START	n/a	n/a	n/a	-999	14	[-999, -999, -999]	n/a	FR1	0	R1339D
4965.658	3.785	4966625	PROB	3.785	n/a	n/a	-999	14	[4, 8, 2]	14	FR1	0	R1339D
4969.443	3.901	4970410	PROB	3.901	n/a	n/a	-999	14	[6, 3, 6]	15	FR1	0	R1339D
4973.344	6.784	4974311	PROB	6.784	n/a	n/a	-999	14	[1, 6, 7]	14	FR1	0	R1339D
4980.128	2.301	4981095	PROB	2.301	n/a	n/a	-999	14	[6, 3, 7]	16	FR1	0	R1339D
4982.429	3.288	4983396	PROB	3.288	n/a	n/a	-999	14	[7, 1, 7]	15	FR1	0	R1339D
4985.717	0.011	4986683	STOP	n/a	n/a	n/a	-999	14	[-999, -999, -999]	n/a	FR1	0	R1339D
4985.728	0.549	4986694	DISTRACT_END	n/a	n/a	n/a	-999	14	[0, 0, 0]	n/a	FR1	0	R1339D
4986.277	1.653	4987243	RETRIEVAL_ORIENT_START	n/a	n/a	n/a	-999	14	[0, 0, 0]	n/a	FR1	0	R1339D
4987.93	0.0	4988896	RETRIEVAL_ORIENT_END	n/a	n/a	n/a	-999	14	[0, 0, 0]	n/a	FR1	0	R1339D
4987.93	0.149	4988896	REC_START	n/a	n/a	n/a	-999	14	[0, 0, 0]	n/a	FR1	0	R1339D
4988.079	0.653	4989045	REC_WORD	0.653	n/a	WHEEL	6	14	[0, 0, 0]	n/a	FR1	0	R1339D
4988.732	3.326	4989698	REC_WORD	3.326	n/a	SEAL	7	14	[0, 0, 0]	n/a	FR1	0	R1339D
4992.058	1.424	4993024	REC_WORD	1.424	n/a	HOUSE	-999	14	[0, 0, 0]	n/a	FR1	0	R1339D
4993.482	24.462	4994448	REC_WORD	24.462	n/a	BOX	3	14	[0, 0, 0]	n/a	FR1	0	R1339D
5017.944	0.0	5018909	REC_END	n/a	n/a	n/a	-999	14	[0, 0, 0]	n/a	FR1	0	R1339D
5017.944	0.015	5018909	TRIAL_END	n/a	n/a	n/a	-999	14	[0, 0, 0]	n/a	FR1	0	R1339D
5017.959	0.0	5018924	WAITING_START	n/a	n/a	n/a	-999	15	[0, 0, 0]	n/a	FR1	0	R1339D
5017.959	0.0	5018924	TRIAL	n/a	n/a	n/a	-999	15	[0, 0, 0]	n/a	FR1	0	R1339D
5017.959	10.278	5018924	TRIAL_START	n/a	n/a	n/a	-999	15	[0, 0, 0]	n/a	FR1	0	R1339D
5028.237	0.001	5029201	WAITING_END	n/a	n/a	n/a	-999	15	[0, 0, 0]	n/a	FR1	0	R1339D
5028.238	10.428	5029202	COUNTDOWN_START	n/a	n/a	n/a	-999	15	[0, 0, 0]	n/a	FR1	0	R1339D
5038.666	0.0	5039630	COUNTDOWN_END	n/a	n/a	n/a	-999	15	[0, 0, 0]	n/a	FR1	0	R1339D
5038.666	1.022	5039630	ORIENT_START	n/a	n/a	n/a	-999	15	[0, 0, 0]	n/a	FR1	0	R1339D
5039.688	0.001	5040652	ORIENT_END	n/a	n/a	n/a	-999	15	[0, 0, 0]	n/a	FR1	0	R1339D
5039.689	0.785	5040653	ENCODING_START	n/a	n/a	n/a	-999	15	[0, 0, 0]	n/a	FR1	0	R1339D
5040.474	1.632	5041438	WORD	n/a	wordpools/wordpool_EN.txt	CUP	1	15	[0, 0, 0]	n/a	FR1	0	R1339D
5042.106	0.813	5043069	WORD_OFF	n/a	n/a	CUP	1	15	[0, 0, 0]	n/a	FR1	0	R1339D
5042.919	1.637	5043882	WORD	n/a	wordpools/wordpool_EN.txt	STORM	2	15	[0, 0, 0]	n/a	FR1	0	R1339D
5044.556	0.803	5045519	WORD_OFF	n/a	n/a	STORM	2	15	[0, 0, 0]	n/a	FR1	0	R1339D
5045.359	1.632	5046322	WORD	n/a	wordpools/wordpool_EN.txt	GOLD	3	15	[0, 0, 0]	n/a	FR1	0	R1339D
5046.991	0.875	5047954	WORD_OFF	n/a	n/a	GOLD	3	15	[0, 0, 0]	n/a	FR1	0	R1339D
5047.866	1.625	5048829	WORD	n/a	wordpools/wordpool_EN.txt	BRUSH	4	15	[0, 0, 0]	n/a	FR1	0	R1339D
5049.491	0.969	5050454	WORD_OFF	n/a	n/a	BRUSH	4	15	[0, 0, 0]	n/a	FR1	0	R1339D
5050.46	1.631	5051423	WORD	n/a	wordpools/wordpool_EN.txt	TANK	5	15	[0, 0, 0]	n/a	FR1	0	R1339D
5052.091	0.967	5053054	WORD_OFF	n/a	n/a	TANK	5	15	[0, 0, 0]	n/a	FR1	0	R1339D
5053.058	1.633	5054021	WORD	n/a	wordpools/wordpool_EN.txt	WING	6	15	[0, 0, 0]	n/a	FR1	0	R1339D
5054.691	0.848	5055654	WORD_OFF	n/a	n/a	WING	6	15	[0, 0, 0]	n/a	FR1	0	R1339D
5055.539	1.62	5056502	WORD	n/a	wordpools/wordpool_EN.txt	SPOON	7	15	[0, 0, 0]	n/a	FR1	0	R1339D
5057.159	1.15	5058122	WORD_OFF	n/a	n/a	SPOON	7	15	[0, 0, 0]	n/a	FR1	0	R1339D
5058.309	1.634	5059272	WORD	n/a	wordpools/wordpool_EN.txt	SHIRT	8	15	[0, 0, 0]	n/a	FR1	0	R1339D
5059.943	0.966	5060905	WORD_OFF	n/a	n/a	SHIRT	8	15	[0, 0, 0]	n/a	FR1	0	R1339D
5060.909	1.633	5061871	WORD	n/a	wordpools/wordpool_EN.txt	TAIL	9	15	[0, 0, 0]	n/a	FR1	0	R1339D
5062.542	0.975	5063504	WORD_OFF	n/a	n/a	TAIL	9	15	[0, 0, 0]	n/a	FR1	0	R1339D
5063.517	1.627	5064479	WORD	n/a	wordpools/wordpool_EN.txt	JUICE	10	15	[0, 0, 0]	n/a	FR1	0	R1339D
5065.144	0.84	5066106	WORD_OFF	n/a	n/a	JUICE	10	15	[0, 0, 0]	n/a	FR1	0	R1339D
5065.984	1.626	5066946	WORD	n/a	wordpools/wordpool_EN.txt	DRESS	11	15	[0, 0, 0]	n/a	FR1	0	R1339D
5067.61	0.832	5068572	WORD_OFF	n/a	n/a	DRESS	11	15	[0, 0, 0]	n/a	FR1	0	R1339D
5068.442	1.636	5069404	WORD	n/a	wordpools/wordpool_EN.txt	POLE	12	15	[0, 0, 0]	n/a	FR1	0	R1339D
5070.078	0.001	5071040	WORD_OFF	n/a	n/a	POLE	12	15	[0, 0, 0]	n/a	FR1	0	R1339D
5070.079	0.0	5071041	DISTRACT_START	n/a	n/a	n/a	-999	15	[0, 0, 0]	n/a	FR1	0	R1339D
5070.079	0.0	5071041	ENCODING_END	n/a	n/a	n/a	-999	15	[0, 0, 0]	n/a	FR1	0	R1339D
5070.079	0.016	5071041	START	n/a	n/a	n/a	-999	15	[-999, -999, -999]	n/a	FR1	0	R1339D
5070.095	5.351	5071057	PROB	5.351	n/a	n/a	-999	15	[9, 2, 7]	18	FR1	0	R1339D
5075.446	3.283	5076408	PROB	3.283	n/a	n/a	-999	15	[2, 7, 7]	16	FR1	0	R1339D
5078.729	2.501	5079690	PROB	2.501	n/a	n/a	-999	15	[9, 3, 1]	13	FR1	0	R1339D
5081.23	5.618	5082191	PROB	5.618	n/a	n/a	-999	15	[5, 7, 8]	20	FR1	0	R1339D
5086.848	2.917	5087809	PROB	2.917	n/a	n/a	-999	15	[2, 9, 9]	20	FR1	0	R1339D
5089.765	5.667	5090726	PROB	5.667	n/a	n/a	-999	15	[7, 4, 8]	19	FR1	0	R1339D
5095.432	0.017	5096393	STOP	n/a	n/a	n/a	-999	15	[-999, -999, -999]	n/a	FR1	0	R1339D
5095.449	0.577	5096410	DISTRACT_END	n/a	n/a	n/a	-999	15	[0, 0, 0]	n/a	FR1	0	R1339D
5096.026	1.69	5096987	RETRIEVAL_ORIENT_START	n/a	n/a	n/a	-999	15	[0, 0, 0]	n/a	FR1	0	R1339D
5097.716	0.0	5098676	RETRIEVAL_ORIENT_END	n/a	n/a	n/a	-999	15	[0, 0, 0]	n/a	FR1	0	R1339D
5097.716	8.403	5098676	REC_START	n/a	n/a	n/a	-999	15	[0, 0, 0]	n/a	FR1	0	R1339D
5106.119	1.683	5107079	REC_WORD	1.683	n/a	TREE	-999	15	[0, 0, 0]	n/a	FR1	0	R1339D
5107.802	19.927	5108762	REC_WORD	19.927	n/a	SEAL	-999	15	[0, 0, 0]	n/a	FR1	0	R1339D
5127.729	0.0	5128688	REC_END	n/a	n/a	n/a	-999	15	[0, 0, 0]	n/a	FR1	0	R1339D
5127.729	0.015	5128688	TRIAL_END	n/a	n/a	n/a	-999	15	[0, 0, 0]	n/a	FR1	0	R1339D
5127.744	0.001	5128703	TRIAL_START	n/a	n/a	n/a	-999	16	[0, 0, 0]	n/a	FR1	0	R1339D
5127.745	0.0	5128704	TRIAL	n/a	n/a	n/a	-999	16	[0, 0, 0]	n/a	FR1	0	R1339D
5127.745	0.0	5128704	WAITING_START	n/a	n/a	n/a	-999	16	[0, 0, 0]	n/a	FR1	0	R1339D
