onset	duration	sample	trial_type	response_time	stim_file	item_name	serialpos	list	test	answer	experiment	session	subject
0.0	0.0	8601	INSTRUCT_START	n/a	n/a	n/a	-999	-999	[0, 0, 0]	n/a	FR1	0	R1154D
0.0	10.881	8601	INSTRUCT_END	n/a	n/a	n/a	-999	-999	[0, 0, 0]	n/a	FR1	0	R1154D
10.881	0.0	19481	SESS_START	n/a	n/a	n/a	-999	-999	[0, 0, 0]	n/a	FR1	0	R1154D
10.881	41.002	19481	MIC_TEST	n/a	n/a	n/a	-999	-999	[0, 0, 0]	n/a	FR1	0	R1154D
51.883	41.834	60481	PRACTICE_TRIAL	n/a	n/a	n/a	-999	-1	[0, 0, 0]	n/a	FR1	0	R1154D
93.717	10.428	102313	COUNTDOWN_START	n/a	n/a	n/a	-999	-1	[0, 0, 0]	n/a	FR1	0	R1154D
104.145	0.008	112740	COUNTDOWN_END	n/a	n/a	n/a	-999	-1	[0, 0, 0]	n/a	FR1	0	R1154D
104.153	1.616	112748	PRACTICE_ORIENT	n/a	n/a	n/a	-999	-1	[0, 0, 0]	n/a	FR1	0	R1154D
105.769	2.368	114364	PRACTICE_ORIENT_OFF	n/a	n/a	n/a	-999	-1	[0, 0, 0]	n/a	FR1	0	R1154D
108.137	1.616	116732	PRACTICE_WORD	n/a	n/a	WAGON	1	-1	[0, 0, 0]	n/a	FR1	0	R1154D
109.753	0.867	118348	PRACTICE_WORD_OFF	n/a	n/a	WAGON	-999	-1	[0, 0, 0]	n/a	FR1	0	R1154D
110.62	1.617	119215	PRACTICE_WORD	n/a	n/a	WATCH	2	-1	[0, 0, 0]	n/a	FR1	0	R1154D
112.237	0.835	120832	PRACTICE_WORD_OFF	n/a	n/a	WATCH	-999	-1	[0, 0, 0]	n/a	FR1	0	R1154D
113.072	1.615	121667	PRACTICE_WORD	n/a	n/a	RING	3	-1	[0, 0, 0]	n/a	FR1	0	R1154D
114.687	0.817	123282	PRACTICE_WORD_OFF	n/a	n/a	RING	-999	-1	[0, 0, 0]	n/a	FR1	0	R1154D
115.504	1.618	124099	PRACTICE_WORD	n/a	n/a	CHEST	4	-1	[0, 0, 0]	n/a	FR1	0	R1154D
117.122	0.883	125717	PRACTICE_WORD_OFF	n/a	n/a	CHEST	-999	-1	[0, 0, 0]	n/a	FR1	0	R1154D
118.005	1.617	126600	PRACTICE_WORD	n/a	n/a	IRON	5	-1	[0, 0, 0]	n/a	FR1	0	R1154D
119.622	0.8	128217	PRACTICE_WORD_OFF	n/a	n/a	IRON	-999	-1	[0, 0, 0]	n/a	FR1	0	R1154D
120.422	1.618	129017	PRACTICE_WORD	n/a	n/a	CAMEL	6	-1	[0, 0, 0]	n/a	FR1	0	R1154D
122.04	0.816	130634	PRACTICE_WORD_OFF	n/a	n/a	CAMEL	-999	-1	[0, 0, 0]	n/a	FR1	0	R1154D
122.856	1.617	131450	PRACTICE_WORD	n/a	n/a	ATTIC	7	-1	[0, 0, 0]	n/a	FR1	0	R1154D
124.473	0.85	133067	PRACTICE_WORD_OFF	n/a	n/a	ATTIC	-999	-1	[0, 0, 0]	n/a	FR1	0	R1154D
125.323	1.617	133917	PRACTICE_WORD	n/a	n/a	TONGUE	8	-1	[0, 0, 0]	n/a	FR1	0	R1154D
126.94	0.833	135534	PRACTICE_WORD_OFF	n/a	n/a	TONGUE	-999	-1	[0, 0, 0]	n/a	FR1	0	R1154D
127.773	1.617	136367	PRACTICE_WORD	n/a	n/a	FLOOD	9	-1	[0, 0, 0]	n/a	FR1	0	R1154D
129.39	0.984	137984	PRACTICE_WORD_OFF	n/a	n/a	FLOOD	-999	-1	[0, 0, 0]	n/a	FR1	0	R1154D
130.374	1.617	138968	PRACTICE_WORD	n/a	n/a	BEAM	10	-1	[0, 0, 0]	n/a	FR1	0	R1154D
131.991	0.8	140585	PRACTICE_WORD_OFF	n/a	n/a	BEAM	-999	-1	[0, 0, 0]	n/a	FR1	0	R1154D
132.791	1.617	141385	PRACTICE_WORD	n/a	n/a	RHINO	11	-1	[0, 0, 0]	n/a	FR1	0	R1154D
134.408	0.933	143002	PRACTICE_WORD_OFF	n/a	n/a	RHINO	-999	-1	[0, 0, 0]	n/a	FR1	0	R1154D
135.341	1.617	143935	PRACTICE_WORD	n/a	n/a	COTTON	12	-1	[0, 0, 0]	n/a	FR1	0	R1154D
136.958	0.0	145552	DISTRACT_START	n/a	n/a	n/a	-999	-1	[0, 0, 0]	n/a	FR1	0	R1154D
136.958	0.001	145552	PRACTICE_WORD_OFF	n/a	n/a	COTTON	-999	-1	[0, 0, 0]	n/a	FR1	0	R1154D
136.959	0.016	145553	START	n/a	n/a	n/a	-999	-1	[-999, -999, -999]	n/a	FR1	0	R1154D
136.975	5.568	145569	PROB	5.568	n/a	n/a	-999	-1	[8, 6, 7]	21	FR1	0	R1154D
142.543	5.317	151136	PROB	5.317	n/a	n/a	-999	-1	[7, 7, 4]	18	FR1	0	R1154D
147.86	14.587	156453	PROB	14.587	n/a	n/a	-999	-1	[6, 5, 7]	18	FR1	0	R1154D
162.447	0.016	171039	STOP	n/a	n/a	n/a	-999	-1	[-999, -999, -999]	n/a	FR1	0	R1154D
162.463	0.567	171055	DISTRACT_END	n/a	n/a	n/a	-999	-1	[0, 0, 0]	n/a	FR1	0	R1154D
163.03	0.52	171622	RETRIEVAL_ORIENT	n/a	n/a	n/a	-999	-1	[0, 0, 0]	n/a	FR1	0	R1154D
163.55	30.009	172142	PRACTICE_REC_START	n/a	n/a	n/a	-999	-1	[0, 0, 0]	n/a	FR1	0	R1154D
193.559	14.613	202150	PRACTICE_REC_END	n/a	n/a	n/a	-999	-1	[0, 0, 0]	n/a	FR1	0	R1154D
208.172	0.5	216762	TRIAL	n/a	n/a	n/a	-999	1	[0, 0, 0]	n/a	FR1	0	R1154D
208.672	10.428	217262	COUNTDOWN_START	n/a	n/a	n/a	-999	1	[0, 0, 0]	n/a	FR1	0	R1154D
219.1	0.007	227689	COUNTDOWN_END	n/a	n/a	n/a	-999	1	[0, 0, 0]	n/a	FR1	0	R1154D
219.107	1.616	227696	ORIENT	n/a	n/a	n/a	-999	1	[0, 0, 0]	n/a	FR1	0	R1154D
220.723	2.134	229312	ORIENT_OFF	n/a	n/a	n/a	-999	1	[0, 0, 0]	n/a	FR1	0	R1154D
222.857	1.617	231446	WORD	n/a	wordpools/wordpool_EN.txt	SHRIMP	1	1	[0, 0, 0]	n/a	FR1	0	R1154D
224.474	0.984	233063	WORD_OFF	n/a	n/a	SHRIMP	1	1	[0, 0, 0]	n/a	FR1	0	R1154D
225.458	1.618	234047	WORD	n/a	wordpools/wordpool_EN.txt	SHELL	2	1	[0, 0, 0]	n/a	FR1	0	R1154D
227.076	0.782	235665	WORD_OFF	n/a	n/a	SHELL	2	1	[0, 0, 0]	n/a	FR1	0	R1154D
227.858	1.617	236447	WORD	n/a	wordpools/wordpool_EN.txt	POLE	3	1	[0, 0, 0]	n/a	FR1	0	R1154D
229.475	0.834	238064	WORD_OFF	n/a	n/a	POLE	3	1	[0, 0, 0]	n/a	FR1	0	R1154D
230.309	1.616	238898	WORD	n/a	wordpools/wordpool_EN.txt	BEACH	4	1	[0, 0, 0]	n/a	FR1	0	R1154D
231.925	0.951	240514	WORD_OFF	n/a	n/a	BEACH	4	1	[0, 0, 0]	n/a	FR1	0	R1154D
232.876	1.617	241465	WORD	n/a	wordpools/wordpool_EN.txt	WAND	5	1	[0, 0, 0]	n/a	FR1	0	R1154D
234.493	0.783	243081	WORD_OFF	n/a	n/a	WAND	5	1	[0, 0, 0]	n/a	FR1	0	R1154D
235.276	1.617	243864	WORD	n/a	wordpools/wordpool_EN.txt	SALT	6	1	[0, 0, 0]	n/a	FR1	0	R1154D
236.893	0.917	245481	WORD_OFF	n/a	n/a	SALT	6	1	[0, 0, 0]	n/a	FR1	0	R1154D
237.81	1.617	246398	WORD	n/a	wordpools/wordpool_EN.txt	SNAIL	7	1	[0, 0, 0]	n/a	FR1	0	R1154D
239.427	0.917	248015	WORD_OFF	n/a	n/a	SNAIL	7	1	[0, 0, 0]	n/a	FR1	0	R1154D
240.344	1.617	248932	WORD	n/a	wordpools/wordpool_EN.txt	FISH	8	1	[0, 0, 0]	n/a	FR1	0	R1154D
241.961	0.8	250549	WORD_OFF	n/a	n/a	FISH	8	1	[0, 0, 0]	n/a	FR1	0	R1154D
242.761	1.617	251349	WORD	n/a	wordpools/wordpool_EN.txt	SNOW	9	1	[0, 0, 0]	n/a	FR1	0	R1154D
244.378	0.95	252966	WORD_OFF	n/a	n/a	SNOW	9	1	[0, 0, 0]	n/a	FR1	0	R1154D
245.328	1.617	253916	WORD	n/a	wordpools/wordpool_EN.txt	TREE	10	1	[0, 0, 0]	n/a	FR1	0	R1154D
246.945	0.8	255533	WORD_OFF	n/a	n/a	TREE	10	1	[0, 0, 0]	n/a	FR1	0	R1154D
247.745	1.617	256333	WORD	n/a	wordpools/wordpool_EN.txt	BLOOM	11	1	[0, 0, 0]	n/a	FR1	0	R1154D
249.362	0.801	257950	WORD_OFF	n/a	n/a	BLOOM	11	1	[0, 0, 0]	n/a	FR1	0	R1154D
250.163	1.616	258751	WORD	n/a	wordpools/wordpool_EN.txt	POND	12	1	[0, 0, 0]	n/a	FR1	0	R1154D
251.779	0.0	260367	DISTRACT_START	n/a	n/a	n/a	-999	1	[0, 0, 0]	n/a	FR1	0	R1154D
251.779	0.001	260367	WORD_OFF	n/a	n/a	POND	12	1	[0, 0, 0]	n/a	FR1	0	R1154D
251.78	0.016	260368	START	n/a	n/a	n/a	-999	1	[-999, -999, -999]	n/a	FR1	0	R1154D
251.796	4.201	260384	PROB	4.201	n/a	n/a	-999	1	[4, 9, 1]	14	FR1	0	R1154D
255.997	4.384	264584	PROB	4.384	n/a	n/a	-999	1	[8, 7, 1]	16	FR1	0	R1154D
260.381	4.5	268968	PROB	4.5	n/a	n/a	-999	1	[5, 8, 6]	19	FR1	0	R1154D
264.881	6.585	273468	PROB	6.585	n/a	n/a	-999	1	[8, 5, 6]	19	FR1	0	R1154D
271.466	3.02	280053	PROB	3.02	n/a	n/a	-999	1	[7, 7, 2]	16	FR1	0	R1154D
274.486	0.014	283072	STOP	n/a	n/a	n/a	-999	1	[-999, -999, -999]	n/a	FR1	0	R1154D
274.5	0.7	283086	DISTRACT_END	n/a	n/a	n/a	-999	1	[0, 0, 0]	n/a	FR1	0	R1154D
275.2	0.517	283786	RETRIEVAL_ORIENT	n/a	n/a	n/a	-999	1	[0, 0, 0]	n/a	FR1	0	R1154D
275.717	2.468	284303	REC_START	n/a	n/a	n/a	-999	1	[0, 0, 0]	n/a	FR1	0	R1154D
278.185	0.699	286771	REC_WORD	0.699	n/a	FISH	-999	1	[0, 0, 0]	n/a	FR1	0	R1154D
278.884	0.38	287470	REC_WORD_VV	0.38	n/a	<>	-999	1	[0, 0, 0]	n/a	FR1	0	R1154D
279.264	0.998	287850	REC_WORD	0.998	n/a	FISH	-999	1	[0, 0, 0]	n/a	FR1	0	R1154D
280.262	3.07	288848	REC_WORD	3.07	n/a	BLOOM	-999	1	[0, 0, 0]	n/a	FR1	0	R1154D
283.332	10.66	291918	REC_WORD_VV	10.66	n/a	<>	-999	1	[0, 0, 0]	n/a	FR1	0	R1154D
293.992	3.828	302577	REC_WORD	3.828	n/a	SHRIMP	-999	1	[0, 0, 0]	n/a	FR1	0	R1154D
297.82	1.0	306405	REC_WORD_VV	1.0	n/a	<>	-999	1	[0, 0, 0]	n/a	FR1	0	R1154D
298.82	1.025	307405	REC_WORD_VV	1.025	n/a	<>	-999	1	[0, 0, 0]	n/a	FR1	0	R1154D
299.845	1.0	308430	REC_WORD_VV	1.0	n/a	<>	-999	1	[0, 0, 0]	n/a	FR1	0	R1154D
300.845	3.796	309430	REC_WORD_VV	3.796	n/a	<>	-999	1	[0, 0, 0]	n/a	FR1	0	R1154D
304.641	1.088	313226	REC_WORD_VV	1.088	n/a	<>	-999	1	[0, 0, 0]	n/a	FR1	0	R1154D
305.729	5.261	314314	REC_END	n/a	n/a	n/a	-999	1	[0, 0, 0]	n/a	FR1	0	R1154D
310.99	0.5	319574	TRIAL	n/a	n/a	n/a	-999	2	[0, 0, 0]	n/a	FR1	0	R1154D
311.49	10.428	320074	COUNTDOWN_START	n/a	n/a	n/a	-999	2	[0, 0, 0]	n/a	FR1	0	R1154D
321.918	0.007	330502	COUNTDOWN_END	n/a	n/a	n/a	-999	2	[0, 0, 0]	n/a	FR1	0	R1154D
321.925	1.617	330509	ORIENT	n/a	n/a	n/a	-999	2	[0, 0, 0]	n/a	FR1	0	R1154D
323.542	2.034	332126	ORIENT_OFF	n/a	n/a	n/a	-999	2	[0, 0, 0]	n/a	FR1	0	R1154D
325.576	1.617	334160	WORD	n/a	wordpools/wordpool_EN.txt	PLATE	1	2	[0, 0, 0]	n/a	FR1	0	R1154D
327.193	0.934	335777	WORD_OFF	n/a	n/a	PLATE	1	2	[0, 0, 0]	n/a	FR1	0	R1154D
328.127	1.616	336710	WORD	n/a	wordpools/wordpool_EN.txt	CLOWN	2	2	[0, 0, 0]	n/a	FR1	0	R1154D
329.743	0.8	338326	WORD_OFF	n/a	n/a	CLOWN	2	2	[0, 0, 0]	n/a	FR1	0	R1154D
330.543	1.601	339126	WORD	n/a	wordpools/wordpool_EN.txt	PIN	3	2	[0, 0, 0]	n/a	FR1	0	R1154D
332.144	0.85	340727	WORD_OFF	n/a	n/a	PIN	3	2	[0, 0, 0]	n/a	FR1	0	R1154D
332.994	1.617	341577	WORD	n/a	wordpools/wordpool_EN.txt	BOX	4	2	[0, 0, 0]	n/a	FR1	0	R1154D
334.611	0.933	343194	WORD_OFF	n/a	n/a	BOX	4	2	[0, 0, 0]	n/a	FR1	0	R1154D
335.544	1.618	344127	WORD	n/a	wordpools/wordpool_EN.txt	RUG	5	2	[0, 0, 0]	n/a	FR1	0	R1154D
337.162	0.85	345745	WORD_OFF	n/a	n/a	RUG	5	2	[0, 0, 0]	n/a	FR1	0	R1154D
338.012	1.616	346595	WORD	n/a	wordpools/wordpool_EN.txt	DRESS	6	2	[0, 0, 0]	n/a	FR1	0	R1154D
339.628	1.001	348211	WORD_OFF	n/a	n/a	DRESS	6	2	[0, 0, 0]	n/a	FR1	0	R1154D
340.629	1.617	349212	WORD	n/a	wordpools/wordpool_EN.txt	CAKE	7	2	[0, 0, 0]	n/a	FR1	0	R1154D
342.246	0.966	350829	WORD_OFF	n/a	n/a	CAKE	7	2	[0, 0, 0]	n/a	FR1	0	R1154D
343.212	1.617	351795	WORD	n/a	wordpools/wordpool_EN.txt	DIME	8	2	[0, 0, 0]	n/a	FR1	0	R1154D
344.829	0.901	353412	WORD_OFF	n/a	n/a	DIME	8	2	[0, 0, 0]	n/a	FR1	0	R1154D
345.73	1.616	354313	WORD	n/a	wordpools/wordpool_EN.txt	SHOE	9	2	[0, 0, 0]	n/a	FR1	0	R1154D
347.346	0.867	355928	WORD_OFF	n/a	n/a	SHOE	9	2	[0, 0, 0]	n/a	FR1	0	R1154D
348.213	1.617	356795	WORD	n/a	wordpools/wordpool_EN.txt	KITE	10	2	[0, 0, 0]	n/a	FR1	0	R1154D
349.83	0.784	358412	WORD_OFF	n/a	n/a	KITE	10	2	[0, 0, 0]	n/a	FR1	0	R1154D
350.614	1.617	359196	WORD	n/a	wordpools/wordpool_EN.txt	FAN	11	2	[0, 0, 0]	n/a	FR1	0	R1154D
352.231	0.851	360813	WORD_OFF	n/a	n/a	FAN	11	2	[0, 0, 0]	n/a	FR1	0	R1154D
353.082	1.616	361664	WORD	n/a	wordpools/wordpool_EN.txt	BOWL	12	2	[0, 0, 0]	n/a	FR1	0	R1154D
354.698	0.0	363280	WORD_OFF	n/a	n/a	BOWL	12	2	[0, 0, 0]	n/a	FR1	0	R1154D
354.698	0.0	363280	DISTRACT_START	n/a	n/a	n/a	-999	2	[0, 0, 0]	n/a	FR1	0	R1154D
354.698	0.017	363280	START	n/a	n/a	n/a	-999	2	[-999, -999, -999]	n/a	FR1	0	R1154D
354.715	3.683	363297	PROB	3.683	n/a	n/a	-999	2	[9, 8, 5]	22	FR1	0	R1154D
358.398	4.535	366980	PROB	4.535	n/a	n/a	-999	2	[8, 7, 6]	22	FR1	0	R1154D
362.933	4.584	371515	PROB	4.584	n/a	n/a	-999	2	[8, 9, 3]	20	FR1	0	R1154D
367.517	2.75	376098	PROB	2.75	n/a	n/a	-999	2	[2, 3, 6]	11	FR1	0	R1154D
370.267	3.018	378848	PROB	3.018	n/a	n/a	-999	2	[3, 4, 7]	14	FR1	0	R1154D
373.285	3.617	381866	PROB	3.617	n/a	n/a	-999	2	[4, 2, 6]	12	FR1	0	R1154D
376.902	0.017	385483	STOP	n/a	n/a	n/a	-999	2	[-999, -999, -999]	n/a	FR1	0	R1154D
376.919	0.55	385500	DISTRACT_END	n/a	n/a	n/a	-999	2	[0, 0, 0]	n/a	FR1	0	R1154D
377.469	0.517	386050	RETRIEVAL_ORIENT	n/a	n/a	n/a	-999	2	[0, 0, 0]	n/a	FR1	0	R1154D
377.986	3.58	386567	REC_START	n/a	n/a	n/a	-999	2	[0, 0, 0]	n/a	FR1	0	R1154D
381.566	0.682	390147	REC_WORD	0.682	n/a	PLATE	-999	2	[0, 0, 0]	n/a	FR1	0	R1154D
382.248	0.582	390829	REC_WORD	0.582	n/a	DRESS	-999	2	[0, 0, 0]	n/a	FR1	0	R1154D
382.83	5.681	391411	REC_WORD	5.681	n/a	SHOE	-999	2	[0, 0, 0]	n/a	FR1	0	R1154D
388.511	0.176	397091	REC_WORD	0.176	n/a	DRESS	-999	2	[0, 0, 0]	n/a	FR1	0	R1154D
388.687	2.04	397267	REC_WORD	2.04	n/a	SHOE	-999	2	[0, 0, 0]	n/a	FR1	0	R1154D
390.727	7.561	399307	REC_WORD_VV	7.561	n/a	<>	-999	2	[0, 0, 0]	n/a	FR1	0	R1154D
398.288	0.354	406868	REC_WORD_VV	0.354	n/a	<>	-999	2	[0, 0, 0]	n/a	FR1	0	R1154D
398.642	0.344	407222	REC_WORD	0.344	n/a	RHINO	-999	2	[0, 0, 0]	n/a	FR1	0	R1154D
398.986	1.0	407566	REC_WORD_VV	1.0	n/a	<>	-999	2	[0, 0, 0]	n/a	FR1	0	R1154D
399.986	1.93	408566	REC_WORD_VV	1.93	n/a	<>	-999	2	[0, 0, 0]	n/a	FR1	0	R1154D
401.916	2.415	410496	REC_WORD_VV	2.415	n/a	<>	-999	2	[0, 0, 0]	n/a	FR1	0	R1154D
404.331	0.49	412910	REC_WORD_VV	0.49	n/a	<>	-999	2	[0, 0, 0]	n/a	FR1	0	R1154D
404.821	1.0	413400	REC_WORD_VV	1.0	n/a	<>	-999	2	[0, 0, 0]	n/a	FR1	0	R1154D
405.821	1.0	414400	REC_WORD_VV	1.0	n/a	<>	-999	2	[0, 0, 0]	n/a	FR1	0	R1154D
406.821	1.178	415400	REC_WORD_VV	1.178	n/a	<>	-999	2	[0, 0, 0]	n/a	FR1	0	R1154D
407.999	5.476	416578	REC_END	n/a	n/a	n/a	-999	2	[0, 0, 0]	n/a	FR1	0	R1154D
413.475	0.5	422054	TRIAL	n/a	n/a	n/a	-999	3	[0, 0, 0]	n/a	FR1	0	R1154D
413.975	10.428	422554	COUNTDOWN_START	n/a	n/a	n/a	-999	3	[0, 0, 0]	n/a	FR1	0	R1154D
424.403	0.008	432981	COUNTDOWN_END	n/a	n/a	n/a	-999	3	[0, 0, 0]	n/a	FR1	0	R1154D
424.411	1.617	432989	ORIENT	n/a	n/a	n/a	-999	3	[0, 0, 0]	n/a	FR1	0	R1154D
426.028	2.367	434606	ORIENT_OFF	n/a	n/a	n/a	-999	3	[0, 0, 0]	n/a	FR1	0	R1154D
428.395	1.617	436973	WORD	n/a	wordpools/wordpool_EN.txt	SPONGE	1	3	[0, 0, 0]	n/a	FR1	0	R1154D
430.012	1.017	438590	WORD_OFF	n/a	n/a	SPONGE	1	3	[0, 0, 0]	n/a	FR1	0	R1154D
431.029	1.616	439607	WORD	n/a	wordpools/wordpool_EN.txt	FROG	2	3	[0, 0, 0]	n/a	FR1	0	R1154D
432.645	0.767	441223	WORD_OFF	n/a	n/a	FROG	2	3	[0, 0, 0]	n/a	FR1	0	R1154D
433.412	1.617	441990	WORD	n/a	wordpools/wordpool_EN.txt	CORD	3	3	[0, 0, 0]	n/a	FR1	0	R1154D
435.029	0.884	443607	WORD_OFF	n/a	n/a	CORD	3	3	[0, 0, 0]	n/a	FR1	0	R1154D
435.913	1.617	444491	WORD	n/a	wordpools/wordpool_EN.txt	STORE	4	3	[0, 0, 0]	n/a	FR1	0	R1154D
437.53	0.95	446108	WORD_OFF	n/a	n/a	STORE	4	3	[0, 0, 0]	n/a	FR1	0	R1154D
438.48	1.618	447058	WORD	n/a	wordpools/wordpool_EN.txt	EGG	5	3	[0, 0, 0]	n/a	FR1	0	R1154D
440.098	0.916	448676	WORD_OFF	n/a	n/a	EGG	5	3	[0, 0, 0]	n/a	FR1	0	R1154D
441.014	1.617	449591	WORD	n/a	wordpools/wordpool_EN.txt	INK	6	3	[0, 0, 0]	n/a	FR1	0	R1154D
442.631	0.883	451208	WORD_OFF	n/a	n/a	INK	6	3	[0, 0, 0]	n/a	FR1	0	R1154D
443.514	1.618	452091	WORD	n/a	wordpools/wordpool_EN.txt	BOARD	7	3	[0, 0, 0]	n/a	FR1	0	R1154D
445.132	0.849	453709	WORD_OFF	n/a	n/a	BOARD	7	3	[0, 0, 0]	n/a	FR1	0	R1154D
445.981	1.617	454558	WORD	n/a	wordpools/wordpool_EN.txt	FILM	8	3	[0, 0, 0]	n/a	FR1	0	R1154D
447.598	0.884	456175	WORD_OFF	n/a	n/a	FILM	8	3	[0, 0, 0]	n/a	FR1	0	R1154D
448.482	1.618	457059	WORD	n/a	wordpools/wordpool_EN.txt	SHEET	9	3	[0, 0, 0]	n/a	FR1	0	R1154D
450.1	0.916	458677	WORD_OFF	n/a	n/a	SHEET	9	3	[0, 0, 0]	n/a	FR1	0	R1154D
451.016	1.616	459593	WORD	n/a	wordpools/wordpool_EN.txt	PASTE	10	3	[0, 0, 0]	n/a	FR1	0	R1154D
452.632	0.917	461209	WORD_OFF	n/a	n/a	PASTE	10	3	[0, 0, 0]	n/a	FR1	0	R1154D
453.549	1.601	462126	WORD	n/a	wordpools/wordpool_EN.txt	JUICE	11	3	[0, 0, 0]	n/a	FR1	0	R1154D
455.15	1.001	463727	WORD_OFF	n/a	n/a	JUICE	11	3	[0, 0, 0]	n/a	FR1	0	R1154D
456.151	1.616	464728	WORD	n/a	wordpools/wordpool_EN.txt	MAIL	12	3	[0, 0, 0]	n/a	FR1	0	R1154D
457.767	0.0	466344	WORD_OFF	n/a	n/a	MAIL	12	3	[0, 0, 0]	n/a	FR1	0	R1154D
457.767	0.0	466344	DISTRACT_START	n/a	n/a	n/a	-999	3	[0, 0, 0]	n/a	FR1	0	R1154D
457.767	0.016	466344	START	n/a	n/a	n/a	-999	3	[-999, -999, -999]	n/a	FR1	0	R1154D
457.783	3.168	466360	PROB	3.168	n/a	n/a	-999	3	[7, 1, 2]	10	FR1	0	R1154D
460.951	7.468	469527	PROB	7.468	n/a	n/a	-999	3	[6, 9, 4]	19	FR1	0	R1154D
468.419	3.234	476995	PROB	3.234	n/a	n/a	-999	3	[9, 9, 4]	22	FR1	0	R1154D
471.653	3.35	480229	PROB	3.35	n/a	n/a	-999	3	[8, 6, 3]	17	FR1	0	R1154D
475.003	2.763	483579	PROB	2.763	n/a	n/a	-999	3	[6, 7, 2]	14	FR1	0	R1154D
477.766	0.021	486342	STOP	n/a	n/a	n/a	-999	3	[-999, -999, -999]	n/a	FR1	0	R1154D
477.787	0.65	486363	DISTRACT_END	n/a	n/a	n/a	-999	3	[0, 0, 0]	n/a	FR1	0	R1154D
478.437	0.518	487012	RETRIEVAL_ORIENT	n/a	n/a	n/a	-999	3	[0, 0, 0]	n/a	FR1	0	R1154D
478.955	1.064	487530	REC_START	n/a	n/a	n/a	-999	3	[0, 0, 0]	n/a	FR1	0	R1154D
480.019	0.353	488594	REC_WORD_VV	0.353	n/a	<>	-999	3	[0, 0, 0]	n/a	FR1	0	R1154D
480.372	2.897	488947	REC_WORD	2.897	n/a	MAIL	-999	3	[0, 0, 0]	n/a	FR1	0	R1154D
483.269	12.072	491844	REC_WORD	12.072	n/a	INK	-999	3	[0, 0, 0]	n/a	FR1	0	R1154D
495.341	1.301	503916	REC_WORD_VV	1.301	n/a	<>	-999	3	[0, 0, 0]	n/a	FR1	0	R1154D
496.642	1.0	505217	REC_WORD_VV	1.0	n/a	<>	-999	3	[0, 0, 0]	n/a	FR1	0	R1154D
497.642	1.0	506216	REC_WORD_VV	1.0	n/a	<>	-999	3	[0, 0, 0]	n/a	FR1	0	R1154D
498.642	10.326	507216	REC_WORD_VV	10.326	n/a	<>	-999	3	[0, 0, 0]	n/a	FR1	0	R1154D
508.968	5.127	517542	REC_END	n/a	n/a	n/a	-999	3	[0, 0, 0]	n/a	FR1	0	R1154D
514.095	0.5	522669	TRIAL	n/a	n/a	n/a	-999	4	[0, 0, 0]	n/a	FR1	0	R1154D
514.595	10.428	523169	COUNTDOWN_START	n/a	n/a	n/a	-999	4	[0, 0, 0]	n/a	FR1	0	R1154D
525.023	0.006	533596	COUNTDOWN_END	n/a	n/a	n/a	-999	4	[0, 0, 0]	n/a	FR1	0	R1154D
525.029	1.617	533602	ORIENT	n/a	n/a	n/a	-999	4	[0, 0, 0]	n/a	FR1	0	R1154D
526.646	1.967	535219	ORIENT_OFF	n/a	n/a	n/a	-999	4	[0, 0, 0]	n/a	FR1	0	R1154D
528.613	1.617	537186	WORD	n/a	wordpools/wordpool_EN.txt	PET	1	4	[0, 0, 0]	n/a	FR1	0	R1154D
530.23	1.017	538803	WORD_OFF	n/a	n/a	PET	1	4	[0, 0, 0]	n/a	FR1	0	R1154D
531.247	1.617	539820	WORD	n/a	wordpools/wordpool_EN.txt	BIRD	2	4	[0, 0, 0]	n/a	FR1	0	R1154D
532.864	0.833	541437	WORD_OFF	n/a	n/a	BIRD	2	4	[0, 0, 0]	n/a	FR1	0	R1154D
533.697	1.617	542270	WORD	n/a	wordpools/wordpool_EN.txt	ROAD	3	4	[0, 0, 0]	n/a	FR1	0	R1154D
535.314	0.867	543886	WORD_OFF	n/a	n/a	ROAD	3	4	[0, 0, 0]	n/a	FR1	0	R1154D
536.181	1.617	544753	WORD	n/a	wordpools/wordpool_EN.txt	HEN	4	4	[0, 0, 0]	n/a	FR1	0	R1154D
537.798	0.817	546370	WORD_OFF	n/a	n/a	HEN	4	4	[0, 0, 0]	n/a	FR1	0	R1154D
538.615	1.617	547187	WORD	n/a	wordpools/wordpool_EN.txt	MULE	5	4	[0, 0, 0]	n/a	FR1	0	R1154D
540.232	0.934	548804	WORD_OFF	n/a	n/a	MULE	5	4	[0, 0, 0]	n/a	FR1	0	R1154D
541.166	1.616	549738	WORD	n/a	wordpools/wordpool_EN.txt	BAT	6	4	[0, 0, 0]	n/a	FR1	0	R1154D
542.782	1.0	551354	WORD_OFF	n/a	n/a	BAT	6	4	[0, 0, 0]	n/a	FR1	0	R1154D
543.782	1.617	552354	WORD	n/a	wordpools/wordpool_EN.txt	WEB	7	4	[0, 0, 0]	n/a	FR1	0	R1154D
545.399	0.834	553971	WORD_OFF	n/a	n/a	WEB	7	4	[0, 0, 0]	n/a	FR1	0	R1154D
546.233	1.617	554805	WORD	n/a	wordpools/wordpool_EN.txt	FACE	8	4	[0, 0, 0]	n/a	FR1	0	R1154D
547.85	0.95	556422	WORD_OFF	n/a	n/a	FACE	8	4	[0, 0, 0]	n/a	FR1	0	R1154D
548.8	1.617	557372	WORD	n/a	wordpools/wordpool_EN.txt	GLOVE	9	4	[0, 0, 0]	n/a	FR1	0	R1154D
550.417	1.0	558989	WORD_OFF	n/a	n/a	GLOVE	9	4	[0, 0, 0]	n/a	FR1	0	R1154D
551.417	1.617	559989	WORD	n/a	wordpools/wordpool_EN.txt	CAT	10	4	[0, 0, 0]	n/a	FR1	0	R1154D
553.034	0.85	561606	WORD_OFF	n/a	n/a	CAT	10	4	[0, 0, 0]	n/a	FR1	0	R1154D
553.884	1.617	562455	WORD	n/a	wordpools/wordpool_EN.txt	OAR	11	4	[0, 0, 0]	n/a	FR1	0	R1154D
555.501	0.984	564072	WORD_OFF	n/a	n/a	OAR	11	4	[0, 0, 0]	n/a	FR1	0	R1154D
556.485	1.618	565056	WORD	n/a	wordpools/wordpool_EN.txt	DOG	12	4	[0, 0, 0]	n/a	FR1	0	R1154D
558.103	0.0	566674	WORD_OFF	n/a	n/a	DOG	12	4	[0, 0, 0]	n/a	FR1	0	R1154D
558.103	0.0	566674	DISTRACT_START	n/a	n/a	n/a	-999	4	[0, 0, 0]	n/a	FR1	0	R1154D
558.103	0.016	566674	START	n/a	n/a	n/a	-999	4	[-999, -999, -999]	n/a	FR1	0	R1154D
558.119	4.55	566690	PROB	4.55	n/a	n/a	-999	4	[8, 5, 6]	19	FR1	0	R1154D
562.669	2.517	571240	PROB	2.517	n/a	n/a	-999	4	[6, 2, 6]	14	FR1	0	R1154D
565.186	2.684	573757	PROB	2.684	n/a	n/a	-999	4	[1, 3, 9]	13	FR1	0	R1154D
567.87	2.551	576441	PROB	2.551	n/a	n/a	-999	4	[7, 4, 1]	12	FR1	0	R1154D
570.421	5.384	578992	PROB	5.384	n/a	n/a	-999	4	[7, 3, 8]	18	FR1	0	R1154D
575.805	2.283	584375	PROB	2.283	n/a	n/a	-999	4	[1, 9, 2]	12	FR1	0	R1154D
578.088	0.018	586658	STOP	n/a	n/a	n/a	-999	4	[-999, -999, -999]	n/a	FR1	0	R1154D
578.106	0.582	586676	DISTRACT_END	n/a	n/a	n/a	-999	4	[0, 0, 0]	n/a	FR1	0	R1154D
578.688	0.518	587258	RETRIEVAL_ORIENT	n/a	n/a	n/a	-999	4	[0, 0, 0]	n/a	FR1	0	R1154D
579.206	0.834	587776	REC_START	n/a	n/a	n/a	-999	4	[0, 0, 0]	n/a	FR1	0	R1154D
580.04	0.378	588610	REC_WORD_VV	0.378	n/a	<>	-999	4	[0, 0, 0]	n/a	FR1	0	R1154D
580.418	0.999	588988	REC_WORD	0.999	n/a	DOG	-999	4	[0, 0, 0]	n/a	FR1	0	R1154D
581.417	3.207	589987	REC_WORD	3.207	n/a	BIRD	-999	4	[0, 0, 0]	n/a	FR1	0	R1154D
584.624	2.641	593194	REC_WORD	2.641	n/a	PET	-999	4	[0, 0, 0]	n/a	FR1	0	R1154D
587.265	1.365	595835	REC_WORD_VV	1.365	n/a	<>	-999	4	[0, 0, 0]	n/a	FR1	0	R1154D
588.63	7.345	597200	REC_WORD	7.345	n/a	WEB	-999	4	[0, 0, 0]	n/a	FR1	0	R1154D
595.975	0.829	604544	REC_WORD_VV	0.829	n/a	<>	-999	4	[0, 0, 0]	n/a	FR1	0	R1154D
596.804	0.512	605373	REC_WORD_VV	0.512	n/a	<>	-999	4	[0, 0, 0]	n/a	FR1	0	R1154D
597.316	4.646	605885	REC_WORD_VV	4.646	n/a	<>	-999	4	[0, 0, 0]	n/a	FR1	0	R1154D
601.962	6.381	610531	REC_WORD	6.381	n/a	GLOVE	-999	4	[0, 0, 0]	n/a	FR1	0	R1154D
608.343	0.876	616912	REC_WORD_VV	0.876	n/a	<>	-999	4	[0, 0, 0]	n/a	FR1	0	R1154D
609.219	4.593	617788	REC_END	n/a	n/a	n/a	-999	4	[0, 0, 0]	n/a	FR1	0	R1154D
613.812	0.5	622380	TRIAL	n/a	n/a	n/a	-999	5	[0, 0, 0]	n/a	FR1	0	R1154D
614.312	10.428	622880	COUNTDOWN_START	n/a	n/a	n/a	-999	5	[0, 0, 0]	n/a	FR1	0	R1154D
624.74	0.007	633308	COUNTDOWN_END	n/a	n/a	n/a	-999	5	[0, 0, 0]	n/a	FR1	0	R1154D
624.747	1.617	633315	ORIENT	n/a	n/a	n/a	-999	5	[0, 0, 0]	n/a	FR1	0	R1154D
626.364	1.9	634932	ORIENT_OFF	n/a	n/a	n/a	-999	5	[0, 0, 0]	n/a	FR1	0	R1154D
628.264	1.617	636832	WORD	n/a	wordpools/wordpool_EN.txt	CUP	1	5	[0, 0, 0]	n/a	FR1	0	R1154D
629.881	0.917	638448	WORD_OFF	n/a	n/a	CUP	1	5	[0, 0, 0]	n/a	FR1	0	R1154D
630.798	1.617	639365	WORD	n/a	wordpools/wordpool_EN.txt	STONE	2	5	[0, 0, 0]	n/a	FR1	0	R1154D
632.415	0.784	640982	WORD_OFF	n/a	n/a	STONE	2	5	[0, 0, 0]	n/a	FR1	0	R1154D
633.199	1.617	641766	WORD	n/a	wordpools/wordpool_EN.txt	SUN	3	5	[0, 0, 0]	n/a	FR1	0	R1154D
634.816	0.783	643383	WORD_OFF	n/a	n/a	SUN	3	5	[0, 0, 0]	n/a	FR1	0	R1154D
635.599	1.617	644166	WORD	n/a	wordpools/wordpool_EN.txt	SHARK	4	5	[0, 0, 0]	n/a	FR1	0	R1154D
637.216	0.817	645783	WORD_OFF	n/a	n/a	SHARK	4	5	[0, 0, 0]	n/a	FR1	0	R1154D
638.033	1.617	646600	WORD	n/a	wordpools/wordpool_EN.txt	FLAME	5	5	[0, 0, 0]	n/a	FR1	0	R1154D
639.65	0.767	648217	WORD_OFF	n/a	n/a	FLAME	5	5	[0, 0, 0]	n/a	FR1	0	R1154D
640.417	1.617	648984	WORD	n/a	wordpools/wordpool_EN.txt	SOUP	6	5	[0, 0, 0]	n/a	FR1	0	R1154D
642.034	1.0	650601	WORD_OFF	n/a	n/a	SOUP	6	5	[0, 0, 0]	n/a	FR1	0	R1154D
643.034	1.617	651601	WORD	n/a	wordpools/wordpool_EN.txt	CORN	7	5	[0, 0, 0]	n/a	FR1	0	R1154D
644.651	0.8	653218	WORD_OFF	n/a	n/a	CORN	7	5	[0, 0, 0]	n/a	FR1	0	R1154D
645.451	1.618	654018	WORD	n/a	wordpools/wordpool_EN.txt	STRING	8	5	[0, 0, 0]	n/a	FR1	0	R1154D
647.069	0.866	655636	WORD_OFF	n/a	n/a	STRING	8	5	[0, 0, 0]	n/a	FR1	0	R1154D
647.935	1.617	656501	WORD	n/a	wordpools/wordpool_EN.txt	FENCE	9	5	[0, 0, 0]	n/a	FR1	0	R1154D
649.552	0.883	658118	WORD_OFF	n/a	n/a	FENCE	9	5	[0, 0, 0]	n/a	FR1	0	R1154D
650.435	1.618	659001	WORD	n/a	wordpools/wordpool_EN.txt	BALL	10	5	[0, 0, 0]	n/a	FR1	0	R1154D
652.053	0.799	660619	WORD_OFF	n/a	n/a	BALL	10	5	[0, 0, 0]	n/a	FR1	0	R1154D
652.852	1.617	661418	WORD	n/a	wordpools/wordpool_EN.txt	FORK	11	5	[0, 0, 0]	n/a	FR1	0	R1154D
654.469	0.784	663035	WORD_OFF	n/a	n/a	FORK	11	5	[0, 0, 0]	n/a	FR1	0	R1154D
655.253	1.617	663819	WORD	n/a	wordpools/wordpool_EN.txt	STEAK	12	5	[0, 0, 0]	n/a	FR1	0	R1154D
656.87	0.0	665436	WORD_OFF	n/a	n/a	STEAK	12	5	[0, 0, 0]	n/a	FR1	0	R1154D
656.87	0.0	665436	DISTRACT_START	n/a	n/a	n/a	-999	5	[0, 0, 0]	n/a	FR1	0	R1154D
656.87	0.016	665436	START	n/a	n/a	n/a	-999	5	[-999, -999, -999]	n/a	FR1	0	R1154D
656.886	3.968	665452	PROB	3.968	n/a	n/a	-999	5	[9, 1, 6]	16	FR1	0	R1154D
660.854	2.734	669420	PROB	2.734	n/a	n/a	-999	5	[2, 4, 3]	9	FR1	0	R1154D
663.588	2.817	672154	PROB	2.817	n/a	n/a	-999	5	[9, 2, 1]	12	FR1	0	R1154D
666.405	3.25	674971	PROB	3.25	n/a	n/a	-999	5	[8, 3, 8]	19	FR1	0	R1154D
669.655	2.402	678220	PROB	2.402	n/a	n/a	-999	5	[9, 1, 8]	18	FR1	0	R1154D
672.057	3.034	680622	PROB	3.034	n/a	n/a	-999	5	[7, 2, 7]	16	FR1	0	R1154D
675.091	3.251	683656	PROB	3.251	n/a	n/a	-999	5	[8, 3, 2]	13	FR1	0	R1154D
678.342	0.015	686907	STOP	n/a	n/a	n/a	-999	5	[-999, -999, -999]	n/a	FR1	0	R1154D
678.357	0.583	686922	DISTRACT_END	n/a	n/a	n/a	-999	5	[0, 0, 0]	n/a	FR1	0	R1154D
678.94	0.518	687505	RETRIEVAL_ORIENT	n/a	n/a	n/a	-999	5	[0, 0, 0]	n/a	FR1	0	R1154D
679.458	1.149	688023	REC_START	n/a	n/a	n/a	-999	5	[0, 0, 0]	n/a	FR1	0	R1154D
680.607	4.183	689172	REC_WORD	4.183	n/a	SHARK	-999	5	[0, 0, 0]	n/a	FR1	0	R1154D
684.79	3.914	693355	REC_WORD	3.914	n/a	SHAKE	-999	5	[0, 0, 0]	n/a	FR1	0	R1154D
688.704	4.811	697268	REC_WORD	4.811	n/a	BALL	-999	5	[0, 0, 0]	n/a	FR1	0	R1154D
693.515	5.564	702079	REC_WORD_VV	5.564	n/a	<>	-999	5	[0, 0, 0]	n/a	FR1	0	R1154D
699.079	3.106	707643	REC_WORD_VV	3.106	n/a	<>	-999	5	[0, 0, 0]	n/a	FR1	0	R1154D
702.185	2.405	710749	REC_WORD	2.405	n/a	STEAK	-999	5	[0, 0, 0]	n/a	FR1	0	R1154D
704.59	0.876	713153	REC_WORD_VV	0.876	n/a	<>	-999	5	[0, 0, 0]	n/a	FR1	0	R1154D
705.466	1.392	714029	REC_WORD_VV	1.392	n/a	<>	-999	5	[0, 0, 0]	n/a	FR1	0	R1154D
706.858	2.611	715421	REC_WORD_VV	2.611	n/a	<>	-999	5	[0, 0, 0]	n/a	FR1	0	R1154D
709.469	5.596	718032	REC_END	n/a	n/a	n/a	-999	5	[0, 0, 0]	n/a	FR1	0	R1154D
715.065	0.5	723628	TRIAL	n/a	n/a	n/a	-999	6	[0, 0, 0]	n/a	FR1	0	R1154D
715.565	10.428	724128	COUNTDOWN_START	n/a	n/a	n/a	-999	6	[0, 0, 0]	n/a	FR1	0	R1154D
725.993	0.006	734555	COUNTDOWN_END	n/a	n/a	n/a	-999	6	[0, 0, 0]	n/a	FR1	0	R1154D
725.999	1.617	734561	ORIENT	n/a	n/a	n/a	-999	6	[0, 0, 0]	n/a	FR1	0	R1154D
727.616	1.884	736178	ORIENT_OFF	n/a	n/a	n/a	-999	6	[0, 0, 0]	n/a	FR1	0	R1154D
729.5	1.618	738062	WORD	n/a	wordpools/wordpool_EN.txt	CHAIR	1	6	[0, 0, 0]	n/a	FR1	0	R1154D
731.118	0.882	739680	WORD_OFF	n/a	n/a	CHAIR	1	6	[0, 0, 0]	n/a	FR1	0	R1154D
732.0	1.617	740562	WORD	n/a	wordpools/wordpool_EN.txt	DART	2	6	[0, 0, 0]	n/a	FR1	0	R1154D
733.617	0.883	742179	WORD_OFF	n/a	n/a	DART	2	6	[0, 0, 0]	n/a	FR1	0	R1154D
734.5	1.618	743062	WORD	n/a	wordpools/wordpool_EN.txt	EAR	3	6	[0, 0, 0]	n/a	FR1	0	R1154D
736.118	1.001	744680	WORD_OFF	n/a	n/a	EAR	3	6	[0, 0, 0]	n/a	FR1	0	R1154D
737.119	1.616	745681	WORD	n/a	wordpools/wordpool_EN.txt	CLOCK	4	6	[0, 0, 0]	n/a	FR1	0	R1154D
738.735	0.916	747297	WORD_OFF	n/a	n/a	CLOCK	4	6	[0, 0, 0]	n/a	FR1	0	R1154D
739.651	1.617	748213	WORD	n/a	wordpools/wordpool_EN.txt	HOUSE	5	6	[0, 0, 0]	n/a	FR1	0	R1154D
741.268	0.818	749830	WORD_OFF	n/a	n/a	HOUSE	5	6	[0, 0, 0]	n/a	FR1	0	R1154D
742.086	1.616	750647	WORD	n/a	wordpools/wordpool_EN.txt	RAT	6	6	[0, 0, 0]	n/a	FR1	0	R1154D
743.702	0.984	752263	WORD_OFF	n/a	n/a	RAT	6	6	[0, 0, 0]	n/a	FR1	0	R1154D
744.686	1.617	753247	WORD	n/a	wordpools/wordpool_EN.txt	OWL	7	6	[0, 0, 0]	n/a	FR1	0	R1154D
746.303	0.883	754864	WORD_OFF	n/a	n/a	OWL	7	6	[0, 0, 0]	n/a	FR1	0	R1154D
747.186	1.617	755747	WORD	n/a	wordpools/wordpool_EN.txt	COUCH	8	6	[0, 0, 0]	n/a	FR1	0	R1154D
748.803	0.85	757364	WORD_OFF	n/a	n/a	COUCH	8	6	[0, 0, 0]	n/a	FR1	0	R1154D
749.653	1.617	758214	WORD	n/a	wordpools/wordpool_EN.txt	GUARD	9	6	[0, 0, 0]	n/a	FR1	0	R1154D
751.27	0.95	759831	WORD_OFF	n/a	n/a	GUARD	9	6	[0, 0, 0]	n/a	FR1	0	R1154D
752.22	1.617	760781	WORD	n/a	wordpools/wordpool_EN.txt	STOOL	10	6	[0, 0, 0]	n/a	FR1	0	R1154D
753.837	0.984	762398	WORD_OFF	n/a	n/a	STOOL	10	6	[0, 0, 0]	n/a	FR1	0	R1154D
754.821	1.617	763382	WORD	n/a	wordpools/wordpool_EN.txt	SLEEVE	11	6	[0, 0, 0]	n/a	FR1	0	R1154D
756.438	0.917	764999	WORD_OFF	n/a	n/a	SLEEVE	11	6	[0, 0, 0]	n/a	FR1	0	R1154D
757.355	1.617	765916	WORD	n/a	wordpools/wordpool_EN.txt	DESK	12	6	[0, 0, 0]	n/a	FR1	0	R1154D
758.972	0.0	767533	WORD_OFF	n/a	n/a	DESK	12	6	[0, 0, 0]	n/a	FR1	0	R1154D
758.972	0.0	767533	DISTRACT_START	n/a	n/a	n/a	-999	6	[0, 0, 0]	n/a	FR1	0	R1154D
758.972	0.016	767533	START	n/a	n/a	n/a	-999	6	[-999, -999, -999]	n/a	FR1	0	R1154D
758.988	3.601	767549	PROB	3.601	n/a	n/a	-999	6	[6, 8, 3]	17	FR1	0	R1154D
762.589	1.984	771149	PROB	1.984	n/a	n/a	-999	6	[8, 2, 3]	13	FR1	0	R1154D
764.573	2.667	773133	PROB	2.667	n/a	n/a	-999	6	[3, 1, 8]	12	FR1	0	R1154D
767.24	4.984	775800	PROB	4.984	n/a	n/a	-999	6	[9, 5, 8]	22	FR1	0	R1154D
772.224	2.852	780784	PROB	2.852	n/a	n/a	-999	6	[1, 9, 5]	15	FR1	0	R1154D
775.076	2.616	783636	PROB	2.616	n/a	n/a	-999	6	[5, 1, 4]	10	FR1	0	R1154D
777.692	2.97	786252	PROB	2.97	n/a	n/a	-999	6	[4, 8, 8]	20	FR1	0	R1154D
780.662	0.014	789221	STOP	n/a	n/a	n/a	-999	6	[-999, -999, -999]	n/a	FR1	0	R1154D
780.676	0.633	789235	DISTRACT_END	n/a	n/a	n/a	-999	6	[0, 0, 0]	n/a	FR1	0	R1154D
781.309	0.517	789868	RETRIEVAL_ORIENT	n/a	n/a	n/a	-999	6	[0, 0, 0]	n/a	FR1	0	R1154D
781.826	1.454	790385	REC_START	n/a	n/a	n/a	-999	6	[0, 0, 0]	n/a	FR1	0	R1154D
783.28	1.38	791839	REC_WORD	1.38	n/a	CHAIR	-999	6	[0, 0, 0]	n/a	FR1	0	R1154D
784.66	6.43	793219	REC_WORD	6.43	n/a	STOOL	-999	6	[0, 0, 0]	n/a	FR1	0	R1154D
791.09	2.516	799649	REC_WORD	2.516	n/a	HOUSE	-999	6	[0, 0, 0]	n/a	FR1	0	R1154D
793.606	13.728	802165	REC_WORD_VV	13.728	n/a	<>	-999	6	[0, 0, 0]	n/a	FR1	0	R1154D
807.334	4.506	815892	REC_WORD_VV	4.506	n/a	<>	-999	6	[0, 0, 0]	n/a	FR1	0	R1154D
811.84	4.542	820398	REC_END	n/a	n/a	n/a	-999	6	[0, 0, 0]	n/a	FR1	0	R1154D
816.382	0.5	824940	TRIAL	n/a	n/a	n/a	-999	7	[0, 0, 0]	n/a	FR1	0	R1154D
816.882	10.428	825440	COUNTDOWN_START	n/a	n/a	n/a	-999	7	[0, 0, 0]	n/a	FR1	0	R1154D
827.31	0.008	835867	COUNTDOWN_END	n/a	n/a	n/a	-999	7	[0, 0, 0]	n/a	FR1	0	R1154D
827.318	1.616	835875	ORIENT	n/a	n/a	n/a	-999	7	[0, 0, 0]	n/a	FR1	0	R1154D
828.934	2.118	837491	ORIENT_OFF	n/a	n/a	n/a	-999	7	[0, 0, 0]	n/a	FR1	0	R1154D
831.052	1.616	839609	WORD	n/a	wordpools/wordpool_EN.txt	SHIELD	1	7	[0, 0, 0]	n/a	FR1	0	R1154D
832.668	0.834	841225	WORD_OFF	n/a	n/a	SHIELD	1	7	[0, 0, 0]	n/a	FR1	0	R1154D
833.502	1.618	842059	WORD	n/a	wordpools/wordpool_EN.txt	SHIRT	2	7	[0, 0, 0]	n/a	FR1	0	R1154D
835.12	1.0	843677	WORD_OFF	n/a	n/a	SHIRT	2	7	[0, 0, 0]	n/a	FR1	0	R1154D
836.12	1.616	844676	WORD	n/a	wordpools/wordpool_EN.txt	BADGE	3	7	[0, 0, 0]	n/a	FR1	0	R1154D
837.736	1.0	846292	WORD_OFF	n/a	n/a	BADGE	3	7	[0, 0, 0]	n/a	FR1	0	R1154D
838.736	1.617	847292	WORD	n/a	wordpools/wordpool_EN.txt	CART	4	7	[0, 0, 0]	n/a	FR1	0	R1154D
840.353	0.984	848909	WORD_OFF	n/a	n/a	CART	4	7	[0, 0, 0]	n/a	FR1	0	R1154D
841.337	1.617	849893	WORD	n/a	wordpools/wordpool_EN.txt	CROWN	5	7	[0, 0, 0]	n/a	FR1	0	R1154D
842.954	0.95	851510	WORD_OFF	n/a	n/a	CROWN	5	7	[0, 0, 0]	n/a	FR1	0	R1154D
843.904	1.617	852460	WORD	n/a	wordpools/wordpool_EN.txt	BATH	6	7	[0, 0, 0]	n/a	FR1	0	R1154D
845.521	0.967	854077	WORD_OFF	n/a	n/a	BATH	6	7	[0, 0, 0]	n/a	FR1	0	R1154D
846.488	1.618	855044	WORD	n/a	wordpools/wordpool_EN.txt	CHEEK	7	7	[0, 0, 0]	n/a	FR1	0	R1154D
848.106	0.765	856662	WORD_OFF	n/a	n/a	CHEEK	7	7	[0, 0, 0]	n/a	FR1	0	R1154D
848.871	1.617	857427	WORD	n/a	wordpools/wordpool_EN.txt	HAND	8	7	[0, 0, 0]	n/a	FR1	0	R1154D
850.488	0.767	859044	WORD_OFF	n/a	n/a	HAND	8	7	[0, 0, 0]	n/a	FR1	0	R1154D
851.255	1.617	859811	WORD	n/a	wordpools/wordpool_EN.txt	PEARL	9	7	[0, 0, 0]	n/a	FR1	0	R1154D
852.872	0.8	861428	WORD_OFF	n/a	n/a	PEARL	9	7	[0, 0, 0]	n/a	FR1	0	R1154D
853.672	1.617	862228	WORD	n/a	wordpools/wordpool_EN.txt	VEST	10	7	[0, 0, 0]	n/a	FR1	0	R1154D
855.289	0.984	863844	WORD_OFF	n/a	n/a	VEST	10	7	[0, 0, 0]	n/a	FR1	0	R1154D
856.273	1.617	864828	WORD	n/a	wordpools/wordpool_EN.txt	LAMP	11	7	[0, 0, 0]	n/a	FR1	0	R1154D
857.89	0.766	866445	WORD_OFF	n/a	n/a	LAMP	11	7	[0, 0, 0]	n/a	FR1	0	R1154D
858.656	1.618	867211	WORD	n/a	wordpools/wordpool_EN.txt	BLUSH	12	7	[0, 0, 0]	n/a	FR1	0	R1154D
860.274	0.0	868829	WORD_OFF	n/a	n/a	BLUSH	12	7	[0, 0, 0]	n/a	FR1	0	R1154D
860.274	0.0	868829	DISTRACT_START	n/a	n/a	n/a	-999	7	[0, 0, 0]	n/a	FR1	0	R1154D
860.274	0.016	868829	START	n/a	n/a	n/a	-999	7	[-999, -999, -999]	n/a	FR1	0	R1154D
860.29	2.884	868845	PROB	2.884	n/a	n/a	-999	7	[3, 2, 8]	13	FR1	0	R1154D
863.174	2.567	871729	PROB	2.567	n/a	n/a	-999	7	[1, 6, 7]	14	FR1	0	R1154D
865.741	2.584	874296	PROB	2.584	n/a	n/a	-999	7	[7, 9, 2]	18	FR1	0	R1154D
868.325	2.0	876880	PROB	2.0	n/a	n/a	-999	7	[2, 3, 6]	11	FR1	0	R1154D
870.325	3.719	878880	PROB	3.719	n/a	n/a	-999	7	[8, 4, 2]	14	FR1	0	R1154D
874.044	2.182	882598	PROB	2.182	n/a	n/a	-999	7	[4, 1, 6]	11	FR1	0	R1154D
876.226	2.835	884780	PROB	2.835	n/a	n/a	-999	7	[6, 8, 2]	16	FR1	0	R1154D
879.061	2.226	887615	PROB	2.226	n/a	n/a	-999	7	[5, 1, 5]	11	FR1	0	R1154D
881.287	0.007	889841	STOP	n/a	n/a	n/a	-999	7	[-999, -999, -999]	n/a	FR1	0	R1154D
881.294	0.584	889848	DISTRACT_END	n/a	n/a	n/a	-999	7	[0, 0, 0]	n/a	FR1	0	R1154D
881.878	0.517	890432	RETRIEVAL_ORIENT	n/a	n/a	n/a	-999	7	[0, 0, 0]	n/a	FR1	0	R1154D
882.395	0.901	890949	REC_START	n/a	n/a	n/a	-999	7	[0, 0, 0]	n/a	FR1	0	R1154D
883.296	1.181	891850	REC_WORD	1.181	n/a	SHIELD	-999	7	[0, 0, 0]	n/a	FR1	0	R1154D
884.477	1.776	893031	REC_WORD	1.776	n/a	SLEEVE	-999	7	[0, 0, 0]	n/a	FR1	0	R1154D
886.253	3.355	894807	REC_WORD	3.355	n/a	BADGE	-999	7	[0, 0, 0]	n/a	FR1	0	R1154D
889.608	3.28	898162	REC_WORD	3.28	n/a	BLUSH	-999	7	[0, 0, 0]	n/a	FR1	0	R1154D
892.888	6.371	901441	REC_WORD_VV	6.371	n/a	<>	-999	7	[0, 0, 0]	n/a	FR1	0	R1154D
899.259	2.96	907812	REC_WORD_VV	2.96	n/a	<>	-999	7	[0, 0, 0]	n/a	FR1	0	R1154D
902.219	1.174	910772	REC_WORD_VV	1.174	n/a	<>	-999	7	[0, 0, 0]	n/a	FR1	0	R1154D
903.393	0.235	911946	REC_WORD_VV	0.235	n/a	<>	-999	7	[0, 0, 0]	n/a	FR1	0	R1154D
903.628	0.599	912181	REC_WORD	0.599	n/a	VEST	-999	7	[0, 0, 0]	n/a	FR1	0	R1154D
904.227	5.9	912780	REC_WORD_VV	5.9	n/a	<>	-999	7	[0, 0, 0]	n/a	FR1	0	R1154D
910.127	2.279	918680	REC_WORD_VV	2.279	n/a	<>	-999	7	[0, 0, 0]	n/a	FR1	0	R1154D
912.406	6.562	920958	REC_END	n/a	n/a	n/a	-999	7	[0, 0, 0]	n/a	FR1	0	R1154D
918.968	0.5	927520	TRIAL	n/a	n/a	n/a	-999	8	[0, 0, 0]	n/a	FR1	0	R1154D
919.468	10.428	928020	COUNTDOWN_START	n/a	n/a	n/a	-999	8	[0, 0, 0]	n/a	FR1	0	R1154D
929.896	0.007	938447	COUNTDOWN_END	n/a	n/a	n/a	-999	8	[0, 0, 0]	n/a	FR1	0	R1154D
929.903	1.617	938454	ORIENT	n/a	n/a	n/a	-999	8	[0, 0, 0]	n/a	FR1	0	R1154D
931.52	2.05	940071	ORIENT_OFF	n/a	n/a	n/a	-999	8	[0, 0, 0]	n/a	FR1	0	R1154D
933.57	1.617	942121	WORD	n/a	wordpools/wordpool_EN.txt	MOOSE	1	8	[0, 0, 0]	n/a	FR1	0	R1154D
935.187	0.8	943738	WORD_OFF	n/a	n/a	MOOSE	1	8	[0, 0, 0]	n/a	FR1	0	R1154D
935.987	1.617	944538	WORD	n/a	wordpools/wordpool_EN.txt	SWORD	2	8	[0, 0, 0]	n/a	FR1	0	R1154D
937.604	0.867	946155	WORD_OFF	n/a	n/a	SWORD	2	8	[0, 0, 0]	n/a	FR1	0	R1154D
938.471	1.618	947022	WORD	n/a	wordpools/wordpool_EN.txt	SHIP	3	8	[0, 0, 0]	n/a	FR1	0	R1154D
940.089	0.849	948640	WORD_OFF	n/a	n/a	SHIP	3	8	[0, 0, 0]	n/a	FR1	0	R1154D
940.938	1.617	949489	WORD	n/a	wordpools/wordpool_EN.txt	FOAM	4	8	[0, 0, 0]	n/a	FR1	0	R1154D
942.555	0.817	951106	WORD_OFF	n/a	n/a	FOAM	4	8	[0, 0, 0]	n/a	FR1	0	R1154D
943.372	1.617	951923	WORD	n/a	wordpools/wordpool_EN.txt	SAIL	5	8	[0, 0, 0]	n/a	FR1	0	R1154D
944.989	0.833	953540	WORD_OFF	n/a	n/a	SAIL	5	8	[0, 0, 0]	n/a	FR1	0	R1154D
945.822	1.617	954373	WORD	n/a	wordpools/wordpool_EN.txt	ARM	6	8	[0, 0, 0]	n/a	FR1	0	R1154D
947.439	0.934	955990	WORD_OFF	n/a	n/a	ARM	6	8	[0, 0, 0]	n/a	FR1	0	R1154D
948.373	1.617	956924	WORD	n/a	wordpools/wordpool_EN.txt	SIGN	7	8	[0, 0, 0]	n/a	FR1	0	R1154D
949.99	0.9	958540	WORD_OFF	n/a	n/a	SIGN	7	8	[0, 0, 0]	n/a	FR1	0	R1154D
950.89	1.617	959440	WORD	n/a	wordpools/wordpool_EN.txt	PALM	8	8	[0, 0, 0]	n/a	FR1	0	R1154D
952.507	0.967	961057	WORD_OFF	n/a	n/a	PALM	8	8	[0, 0, 0]	n/a	FR1	0	R1154D
953.474	1.601	962024	WORD	n/a	wordpools/wordpool_EN.txt	STAR	9	8	[0, 0, 0]	n/a	FR1	0	R1154D
955.075	0.984	963625	WORD_OFF	n/a	n/a	STAR	9	8	[0, 0, 0]	n/a	FR1	0	R1154D
956.059	1.616	964609	WORD	n/a	wordpools/wordpool_EN.txt	RAIN	10	8	[0, 0, 0]	n/a	FR1	0	R1154D
957.675	1.0	966225	WORD_OFF	n/a	n/a	RAIN	10	8	[0, 0, 0]	n/a	FR1	0	R1154D
958.675	1.617	967225	WORD	n/a	wordpools/wordpool_EN.txt	DOCK	11	8	[0, 0, 0]	n/a	FR1	0	R1154D
960.292	1.0	968842	WORD_OFF	n/a	n/a	DOCK	11	8	[0, 0, 0]	n/a	FR1	0	R1154D
961.292	1.617	969842	WORD	n/a	wordpools/wordpool_EN.txt	SKY	12	8	[0, 0, 0]	n/a	FR1	0	R1154D
962.909	0.0	971459	WORD_OFF	n/a	n/a	SKY	12	8	[0, 0, 0]	n/a	FR1	0	R1154D
962.909	0.0	971459	DISTRACT_START	n/a	n/a	n/a	-999	8	[0, 0, 0]	n/a	FR1	0	R1154D
962.909	0.017	971459	START	n/a	n/a	n/a	-999	8	[-999, -999, -999]	n/a	FR1	0	R1154D
962.926	3.017	971476	PROB	3.017	n/a	n/a	-999	8	[6, 2, 2]	10	FR1	0	R1154D
965.943	3.684	974493	PROB	3.684	n/a	n/a	-999	8	[8, 5, 1]	14	FR1	0	R1154D
969.627	3.468	978176	PROB	3.468	n/a	n/a	-999	8	[7, 5, 4]	16	FR1	0	R1154D
973.095	3.034	981644	PROB	3.034	n/a	n/a	-999	8	[7, 8, 1]	16	FR1	0	R1154D
976.129	2.666	984678	PROB	2.666	n/a	n/a	-999	8	[3, 8, 2]	13	FR1	0	R1154D
978.795	3.484	987344	PROB	3.484	n/a	n/a	-999	8	[3, 8, 5]	16	FR1	0	R1154D
982.279	3.536	990828	PROB	3.536	n/a	n/a	-999	8	[5, 6, 2]	13	FR1	0	R1154D
985.815	0.015	994364	STOP	n/a	n/a	n/a	-999	8	[-999, -999, -999]	n/a	FR1	0	R1154D
985.83	0.7	994379	DISTRACT_END	n/a	n/a	n/a	-999	8	[0, 0, 0]	n/a	FR1	0	R1154D
986.53	0.518	995078	RETRIEVAL_ORIENT	n/a	n/a	n/a	-999	8	[0, 0, 0]	n/a	FR1	0	R1154D
987.048	4.929	995596	REC_START	n/a	n/a	n/a	-999	8	[0, 0, 0]	n/a	FR1	0	R1154D
991.977	4.311	1000525	REC_WORD_VV	4.311	n/a	<>	-999	8	[0, 0, 0]	n/a	FR1	0	R1154D
996.288	2.105	1004836	REC_WORD	2.105	n/a	BOOTH	-999	8	[0, 0, 0]	n/a	FR1	0	R1154D
998.393	3.267	1006941	REC_WORD_VV	3.267	n/a	<>	-999	8	[0, 0, 0]	n/a	FR1	0	R1154D
1001.66	4.886	1010208	REC_WORD_VV	4.886	n/a	<>	-999	8	[0, 0, 0]	n/a	FR1	0	R1154D
1006.546	1.0	1015093	REC_WORD_VV	1.0	n/a	<>	-999	8	[0, 0, 0]	n/a	FR1	0	R1154D
1007.546	1.0	1016093	REC_WORD_VV	1.0	n/a	<>	-999	8	[0, 0, 0]	n/a	FR1	0	R1154D
1008.546	8.515	1017093	REC_WORD_VV	8.515	n/a	<>	-999	8	[0, 0, 0]	n/a	FR1	0	R1154D
1017.061	5.309	1025608	REC_END	n/a	n/a	n/a	-999	8	[0, 0, 0]	n/a	FR1	0	R1154D
1022.37	0.5	1030917	TRIAL	n/a	n/a	n/a	-999	9	[0, 0, 0]	n/a	FR1	0	R1154D
1022.87	10.428	1031417	COUNTDOWN_START	n/a	n/a	n/a	-999	9	[0, 0, 0]	n/a	FR1	0	R1154D
1033.298	0.007	1041844	COUNTDOWN_END	n/a	n/a	n/a	-999	9	[0, 0, 0]	n/a	FR1	0	R1154D
1033.305	1.617	1041851	ORIENT	n/a	n/a	n/a	-999	9	[0, 0, 0]	n/a	FR1	0	R1154D
1034.922	2.034	1043468	ORIENT_OFF	n/a	n/a	n/a	-999	9	[0, 0, 0]	n/a	FR1	0	R1154D
1036.956	1.617	1045502	WORD	n/a	wordpools/wordpool_EN.txt	SEA	1	9	[0, 0, 0]	n/a	FR1	0	R1154D
1038.573	0.95	1047119	WORD_OFF	n/a	n/a	SEA	1	9	[0, 0, 0]	n/a	FR1	0	R1154D
1039.523	1.601	1048069	WORD	n/a	wordpools/wordpool_EN.txt	STORM	2	9	[0, 0, 0]	n/a	FR1	0	R1154D
1041.124	0.934	1049670	WORD_OFF	n/a	n/a	STORM	2	9	[0, 0, 0]	n/a	FR1	0	R1154D
1042.058	1.616	1050604	WORD	n/a	wordpools/wordpool_EN.txt	STRAW	3	9	[0, 0, 0]	n/a	FR1	0	R1154D
1043.674	0.783	1052219	WORD_OFF	n/a	n/a	STRAW	3	9	[0, 0, 0]	n/a	FR1	0	R1154D
1044.457	1.618	1053002	WORD	n/a	wordpools/wordpool_EN.txt	BOAT	4	9	[0, 0, 0]	n/a	FR1	0	R1154D
1046.075	0.766	1054620	WORD_OFF	n/a	n/a	BOAT	4	9	[0, 0, 0]	n/a	FR1	0	R1154D
1046.841	1.617	1055386	WORD	n/a	wordpools/wordpool_EN.txt	FARM	5	9	[0, 0, 0]	n/a	FR1	0	R1154D
1048.458	0.85	1057003	WORD_OFF	n/a	n/a	FARM	5	9	[0, 0, 0]	n/a	FR1	0	R1154D
1049.308	1.617	1057853	WORD	n/a	wordpools/wordpool_EN.txt	ELF	6	9	[0, 0, 0]	n/a	FR1	0	R1154D
1050.925	0.833	1059470	WORD_OFF	n/a	n/a	ELF	6	9	[0, 0, 0]	n/a	FR1	0	R1154D
1051.758	1.617	1060303	WORD	n/a	wordpools/wordpool_EN.txt	MUD	7	9	[0, 0, 0]	n/a	FR1	0	R1154D
1053.375	0.901	1061920	WORD_OFF	n/a	n/a	MUD	7	9	[0, 0, 0]	n/a	FR1	0	R1154D
1054.276	1.617	1062821	WORD	n/a	wordpools/wordpool_EN.txt	MAP	8	9	[0, 0, 0]	n/a	FR1	0	R1154D
1055.893	0.883	1064438	WORD_OFF	n/a	n/a	MAP	8	9	[0, 0, 0]	n/a	FR1	0	R1154D
1056.776	1.617	1065321	WORD	n/a	wordpools/wordpool_EN.txt	LAND	9	9	[0, 0, 0]	n/a	FR1	0	R1154D
1058.393	0.95	1066938	WORD_OFF	n/a	n/a	LAND	9	9	[0, 0, 0]	n/a	FR1	0	R1154D
1059.343	1.617	1067888	WORD	n/a	wordpools/wordpool_EN.txt	HOOK	10	9	[0, 0, 0]	n/a	FR1	0	R1154D
1060.96	0.817	1069505	WORD_OFF	n/a	n/a	HOOK	10	9	[0, 0, 0]	n/a	FR1	0	R1154D
1061.777	1.617	1070321	WORD	n/a	wordpools/wordpool_EN.txt	STICK	11	9	[0, 0, 0]	n/a	FR1	0	R1154D
1063.394	0.9	1071938	WORD_OFF	n/a	n/a	STICK	11	9	[0, 0, 0]	n/a	FR1	0	R1154D
1064.294	1.617	1072838	WORD	n/a	wordpools/wordpool_EN.txt	CAPE	12	9	[0, 0, 0]	n/a	FR1	0	R1154D
1065.911	0.0	1074455	WORD_OFF	n/a	n/a	CAPE	12	9	[0, 0, 0]	n/a	FR1	0	R1154D
1065.911	0.001	1074455	DISTRACT_START	n/a	n/a	n/a	-999	9	[0, 0, 0]	n/a	FR1	0	R1154D
1065.912	0.016	1074456	START	n/a	n/a	n/a	-999	9	[-999, -999, -999]	n/a	FR1	0	R1154D
1065.928	4.634	1074472	PROB	4.634	n/a	n/a	-999	9	[1, 2, 3]	6	FR1	0	R1154D
1070.562	2.518	1079106	PROB	2.518	n/a	n/a	-999	9	[9, 5, 4]	18	FR1	0	R1154D
1073.08	2.017	1081624	PROB	2.017	n/a	n/a	-999	9	[3, 1, 7]	10	FR1	0	R1154D
1075.097	2.366	1083641	PROB	2.366	n/a	n/a	-999	9	[5, 5, 1]	11	FR1	0	R1154D
1077.463	2.484	1086007	PROB	2.484	n/a	n/a	-999	9	[4, 1, 3]	8	FR1	0	R1154D
1079.947	2.151	1088491	PROB	2.151	n/a	n/a	-999	9	[9, 1, 2]	12	FR1	0	R1154D
1082.098	7.285	1090641	PROB	7.285	n/a	n/a	-999	9	[9, 9, 8]	26	FR1	0	R1154D
1089.383	0.016	1097926	STOP	n/a	n/a	n/a	-999	9	[-999, -999, -999]	n/a	FR1	0	R1154D
1089.399	0.583	1097942	DISTRACT_END	n/a	n/a	n/a	-999	9	[0, 0, 0]	n/a	FR1	0	R1154D
1089.982	0.518	1098525	RETRIEVAL_ORIENT	n/a	n/a	n/a	-999	9	[0, 0, 0]	n/a	FR1	0	R1154D
1090.5	2.694	1099043	REC_START	n/a	n/a	n/a	-999	9	[0, 0, 0]	n/a	FR1	0	R1154D
1093.194	2.256	1101737	REC_WORD_VV	2.256	n/a	<>	-999	9	[0, 0, 0]	n/a	FR1	0	R1154D
1095.45	1.129	1103993	REC_WORD_VV	1.129	n/a	<>	-999	9	[0, 0, 0]	n/a	FR1	0	R1154D
1096.579	2.313	1105122	REC_WORD	2.313	n/a	CAPE	-999	9	[0, 0, 0]	n/a	FR1	0	R1154D
1098.892	1.0	1107435	REC_WORD_VV	1.0	n/a	<>	-999	9	[0, 0, 0]	n/a	FR1	0	R1154D
1099.892	1.0	1108434	REC_WORD_VV	1.0	n/a	<>	-999	9	[0, 0, 0]	n/a	FR1	0	R1154D
1100.892	0.544	1109434	REC_WORD_VV	0.544	n/a	<>	-999	9	[0, 0, 0]	n/a	FR1	0	R1154D
1101.436	1.839	1109978	REC_WORD	1.839	n/a	FARM	-999	9	[0, 0, 0]	n/a	FR1	0	R1154D
1103.275	2.408	1111817	REC_WORD_VV	2.408	n/a	<>	-999	9	[0, 0, 0]	n/a	FR1	0	R1154D
1105.683	1.42	1114225	REC_WORD_VV	1.42	n/a	<>	-999	9	[0, 0, 0]	n/a	FR1	0	R1154D
1107.103	5.133	1115645	REC_WORD	5.133	n/a	SEA	-999	9	[0, 0, 0]	n/a	FR1	0	R1154D
1112.236	8.277	1120778	REC_WORD_VV	8.277	n/a	<>	-999	9	[0, 0, 0]	n/a	FR1	0	R1154D
1120.513	4.509	1129054	REC_END	n/a	n/a	n/a	-999	9	[0, 0, 0]	n/a	FR1	0	R1154D
1125.022	0.5	1133563	TRIAL	n/a	n/a	n/a	-999	10	[0, 0, 0]	n/a	FR1	0	R1154D
1125.522	10.428	1134063	COUNTDOWN_START	n/a	n/a	n/a	-999	10	[0, 0, 0]	n/a	FR1	0	R1154D
1135.95	0.007	1144491	COUNTDOWN_END	n/a	n/a	n/a	-999	10	[0, 0, 0]	n/a	FR1	0	R1154D
1135.957	1.617	1144498	ORIENT	n/a	n/a	n/a	-999	10	[0, 0, 0]	n/a	FR1	0	R1154D
1137.574	1.917	1146114	ORIENT_OFF	n/a	n/a	n/a	-999	10	[0, 0, 0]	n/a	FR1	0	R1154D
1139.491	1.601	1148031	WORD	n/a	wordpools/wordpool_EN.txt	SMOKE	1	10	[0, 0, 0]	n/a	FR1	0	R1154D
1141.092	0.85	1149632	WORD_OFF	n/a	n/a	SMOKE	1	10	[0, 0, 0]	n/a	FR1	0	R1154D
1141.942	1.617	1150482	WORD	n/a	wordpools/wordpool_EN.txt	STAIR	2	10	[0, 0, 0]	n/a	FR1	0	R1154D
1143.559	0.883	1152099	WORD_OFF	n/a	n/a	STAIR	2	10	[0, 0, 0]	n/a	FR1	0	R1154D
1144.442	1.618	1152982	WORD	n/a	wordpools/wordpool_EN.txt	JAIL	3	10	[0, 0, 0]	n/a	FR1	0	R1154D
1146.06	0.833	1154600	WORD_OFF	n/a	n/a	JAIL	3	10	[0, 0, 0]	n/a	FR1	0	R1154D
1146.893	1.616	1155433	WORD	n/a	wordpools/wordpool_EN.txt	WALL	4	10	[0, 0, 0]	n/a	FR1	0	R1154D
1148.509	0.801	1157049	WORD_OFF	n/a	n/a	WALL	4	10	[0, 0, 0]	n/a	FR1	0	R1154D
1149.31	1.617	1157850	WORD	n/a	wordpools/wordpool_EN.txt	CAR	5	10	[0, 0, 0]	n/a	FR1	0	R1154D
1150.927	0.983	1159467	WORD_OFF	n/a	n/a	CAR	5	10	[0, 0, 0]	n/a	FR1	0	R1154D
1151.91	1.617	1160450	WORD	n/a	wordpools/wordpool_EN.txt	MAZE	6	10	[0, 0, 0]	n/a	FR1	0	R1154D
1153.527	0.917	1162067	WORD_OFF	n/a	n/a	MAZE	6	10	[0, 0, 0]	n/a	FR1	0	R1154D
1154.444	1.618	1162984	WORD	n/a	wordpools/wordpool_EN.txt	PHONE	7	10	[0, 0, 0]	n/a	FR1	0	R1154D
1156.062	0.899	1164601	WORD_OFF	n/a	n/a	PHONE	7	10	[0, 0, 0]	n/a	FR1	0	R1154D
1156.961	1.617	1165500	WORD	n/a	wordpools/wordpool_EN.txt	HAT	8	10	[0, 0, 0]	n/a	FR1	0	R1154D
1158.578	0.817	1167117	WORD_OFF	n/a	n/a	HAT	8	10	[0, 0, 0]	n/a	FR1	0	R1154D
1159.395	1.617	1167934	WORD	n/a	wordpools/wordpool_EN.txt	FUDGE	9	10	[0, 0, 0]	n/a	FR1	0	R1154D
1161.012	0.817	1169551	WORD_OFF	n/a	n/a	FUDGE	9	10	[0, 0, 0]	n/a	FR1	0	R1154D
1161.829	1.617	1170368	WORD	n/a	wordpools/wordpool_EN.txt	SUIT	10	10	[0, 0, 0]	n/a	FR1	0	R1154D
1163.446	0.966	1171985	WORD_OFF	n/a	n/a	SUIT	10	10	[0, 0, 0]	n/a	FR1	0	R1154D
1164.412	1.617	1172951	WORD	n/a	wordpools/wordpool_EN.txt	HEART	11	10	[0, 0, 0]	n/a	FR1	0	R1154D
1166.029	0.867	1174568	WORD_OFF	n/a	n/a	HEART	11	10	[0, 0, 0]	n/a	FR1	0	R1154D
1166.896	1.617	1175435	WORD	n/a	wordpools/wordpool_EN.txt	FLAG	12	10	[0, 0, 0]	n/a	FR1	0	R1154D
1168.513	0.0	1177052	WORD_OFF	n/a	n/a	FLAG	12	10	[0, 0, 0]	n/a	FR1	0	R1154D
1168.513	0.001	1177052	DISTRACT_START	n/a	n/a	n/a	-999	10	[0, 0, 0]	n/a	FR1	0	R1154D
1168.514	0.016	1177053	START	n/a	n/a	n/a	-999	10	[-999, -999, -999]	n/a	FR1	0	R1154D
1168.53	3.067	1177069	PROB	3.067	n/a	n/a	-999	10	[6, 3, 8]	17	FR1	0	R1154D
1171.597	2.067	1180136	PROB	2.067	n/a	n/a	-999	10	[8, 2, 8]	18	FR1	0	R1154D
1173.664	2.367	1182203	PROB	2.367	n/a	n/a	-999	10	[1, 2, 3]	6	FR1	0	R1154D
1176.031	2.384	1184569	PROB	2.384	n/a	n/a	-999	10	[2, 8, 7]	17	FR1	0	R1154D
1178.415	2.584	1186953	PROB	2.584	n/a	n/a	-999	10	[9, 3, 2]	14	FR1	0	R1154D
1180.999	5.651	1189537	PROB	5.651	n/a	n/a	-999	10	[7, 7, 3]	17	FR1	0	R1154D
1186.65	2.141	1195188	PROB	2.141	n/a	n/a	-999	10	[9, 1, 1]	11	FR1	0	R1154D
1188.791	0.009	1197329	STOP	n/a	n/a	n/a	-999	10	[-999, -999, -999]	n/a	FR1	0	R1154D
1188.8	0.633	1197338	DISTRACT_END	n/a	n/a	n/a	-999	10	[0, 0, 0]	n/a	FR1	0	R1154D
1189.433	0.518	1197971	RETRIEVAL_ORIENT	n/a	n/a	n/a	-999	10	[0, 0, 0]	n/a	FR1	0	R1154D
1189.951	1.053	1198489	REC_START	n/a	n/a	n/a	-999	10	[0, 0, 0]	n/a	FR1	0	R1154D
1191.004	0.838	1199542	REC_WORD_VV	0.838	n/a	<>	-999	10	[0, 0, 0]	n/a	FR1	0	R1154D
1191.842	1.796	1200380	REC_WORD	1.796	n/a	PHONE	-999	10	[0, 0, 0]	n/a	FR1	0	R1154D
1193.638	12.646	1202175	REC_WORD	12.646	n/a	FUDGE	-999	10	[0, 0, 0]	n/a	FR1	0	R1154D
1206.284	1.859	1214821	REC_WORD	1.859	n/a	SMOKE	-999	10	[0, 0, 0]	n/a	FR1	0	R1154D
1208.143	4.809	1216680	REC_WORD_VV	4.809	n/a	<>	-999	10	[0, 0, 0]	n/a	FR1	0	R1154D
1212.952	4.037	1221488	REC_WORD	4.037	n/a	HAT	-999	10	[0, 0, 0]	n/a	FR1	0	R1154D
1216.989	2.974	1225525	REC_WORD_VV	2.974	n/a	<>	-999	10	[0, 0, 0]	n/a	FR1	0	R1154D
1219.963	5.078	1228499	REC_END	n/a	n/a	n/a	-999	10	[0, 0, 0]	n/a	FR1	0	R1154D
1225.041	0.5	1233577	TRIAL	n/a	n/a	n/a	-999	11	[0, 0, 0]	n/a	FR1	0	R1154D
1225.541	10.428	1234077	COUNTDOWN_START	n/a	n/a	n/a	-999	11	[0, 0, 0]	n/a	FR1	0	R1154D
1235.969	0.006	1244504	COUNTDOWN_END	n/a	n/a	n/a	-999	11	[0, 0, 0]	n/a	FR1	0	R1154D
1235.975	1.617	1244510	ORIENT	n/a	n/a	n/a	-999	11	[0, 0, 0]	n/a	FR1	0	R1154D
1237.592	2.234	1246127	ORIENT_OFF	n/a	n/a	n/a	-999	11	[0, 0, 0]	n/a	FR1	0	R1154D
1239.826	1.617	1248361	WORD	n/a	wordpools/wordpool_EN.txt	TRUCK	1	11	[0, 0, 0]	n/a	FR1	0	R1154D
1241.443	1.0	1249978	WORD_OFF	n/a	n/a	TRUCK	1	11	[0, 0, 0]	n/a	FR1	0	R1154D
1242.443	1.601	1250978	WORD	n/a	wordpools/wordpool_EN.txt	TOAD	2	11	[0, 0, 0]	n/a	FR1	0	R1154D
1244.044	0.766	1252579	WORD_OFF	n/a	n/a	TOAD	2	11	[0, 0, 0]	n/a	FR1	0	R1154D
1244.81	1.617	1253345	WORD	n/a	wordpools/wordpool_EN.txt	TOOTH	3	11	[0, 0, 0]	n/a	FR1	0	R1154D
1246.427	0.884	1254962	WORD_OFF	n/a	n/a	TOOTH	3	11	[0, 0, 0]	n/a	FR1	0	R1154D
1247.311	1.617	1255846	WORD	n/a	wordpools/wordpool_EN.txt	TOY	4	11	[0, 0, 0]	n/a	FR1	0	R1154D
1248.928	0.85	1257463	WORD_OFF	n/a	n/a	TOY	4	11	[0, 0, 0]	n/a	FR1	0	R1154D
1249.778	1.617	1258312	WORD	n/a	wordpools/wordpool_EN.txt	TENT	5	11	[0, 0, 0]	n/a	FR1	0	R1154D
1251.395	0.783	1259929	WORD_OFF	n/a	n/a	TENT	5	11	[0, 0, 0]	n/a	FR1	0	R1154D
1252.178	1.617	1260712	WORD	n/a	wordpools/wordpool_EN.txt	DUCK	6	11	[0, 0, 0]	n/a	FR1	0	R1154D
1253.795	0.851	1262329	WORD_OFF	n/a	n/a	DUCK	6	11	[0, 0, 0]	n/a	FR1	0	R1154D
1254.646	1.617	1263180	WORD	n/a	wordpools/wordpool_EN.txt	PANTS	7	11	[0, 0, 0]	n/a	FR1	0	R1154D
1256.263	0.983	1264797	WORD_OFF	n/a	n/a	PANTS	7	11	[0, 0, 0]	n/a	FR1	0	R1154D
1257.246	1.617	1265780	WORD	n/a	wordpools/wordpool_EN.txt	BRUSH	8	11	[0, 0, 0]	n/a	FR1	0	R1154D
1258.863	0.817	1267397	WORD_OFF	n/a	n/a	BRUSH	8	11	[0, 0, 0]	n/a	FR1	0	R1154D
1259.68	1.617	1268214	WORD	n/a	wordpools/wordpool_EN.txt	SNAKE	9	11	[0, 0, 0]	n/a	FR1	0	R1154D
1261.297	0.834	1269831	WORD_OFF	n/a	n/a	SNAKE	9	11	[0, 0, 0]	n/a	FR1	0	R1154D
1262.131	1.616	1270665	WORD	n/a	wordpools/wordpool_EN.txt	CAGE	10	11	[0, 0, 0]	n/a	FR1	0	R1154D
1263.747	0.767	1272281	WORD_OFF	n/a	n/a	CAGE	10	11	[0, 0, 0]	n/a	FR1	0	R1154D
1264.514	1.618	1273048	WORD	n/a	wordpools/wordpool_EN.txt	TEETH	11	11	[0, 0, 0]	n/a	FR1	0	R1154D
1266.132	0.799	1274666	WORD_OFF	n/a	n/a	TEETH	11	11	[0, 0, 0]	n/a	FR1	0	R1154D
1266.931	1.617	1275465	WORD	n/a	wordpools/wordpool_EN.txt	PIG	12	11	[0, 0, 0]	n/a	FR1	0	R1154D
1268.548	0.0	1277081	WORD_OFF	n/a	n/a	PIG	12	11	[0, 0, 0]	n/a	FR1	0	R1154D
1268.548	0.001	1277081	DISTRACT_START	n/a	n/a	n/a	-999	11	[0, 0, 0]	n/a	FR1	0	R1154D
1268.549	0.016	1277082	START	n/a	n/a	n/a	-999	11	[-999, -999, -999]	n/a	FR1	0	R1154D
1268.565	7.985	1277098	PROB	7.985	n/a	n/a	-999	11	[6, 9, 5]	20	FR1	0	R1154D
1276.55	2.317	1285083	PROB	2.317	n/a	n/a	-999	11	[8, 8, 1]	17	FR1	0	R1154D
1278.867	2.184	1287400	PROB	2.184	n/a	n/a	-999	11	[3, 3, 7]	13	FR1	0	R1154D
1281.051	2.833	1289584	PROB	2.833	n/a	n/a	-999	11	[8, 6, 5]	19	FR1	0	R1154D
1283.884	2.218	1292417	PROB	2.218	n/a	n/a	-999	11	[7, 3, 3]	13	FR1	0	R1154D
1286.102	2.433	1294635	PROB	2.433	n/a	n/a	-999	11	[7, 2, 3]	12	FR1	0	R1154D
1288.535	2.36	1297067	PROB	2.36	n/a	n/a	-999	11	[6, 1, 4]	11	FR1	0	R1154D
1290.895	0.007	1299427	STOP	n/a	n/a	n/a	-999	11	[-999, -999, -999]	n/a	FR1	0	R1154D
1290.902	0.567	1299434	DISTRACT_END	n/a	n/a	n/a	-999	11	[0, 0, 0]	n/a	FR1	0	R1154D
1291.469	0.517	1300001	RETRIEVAL_ORIENT	n/a	n/a	n/a	-999	11	[0, 0, 0]	n/a	FR1	0	R1154D
1291.986	1.002	1300518	REC_START	n/a	n/a	n/a	-999	11	[0, 0, 0]	n/a	FR1	0	R1154D
1292.988	1.088	1301520	REC_WORD	1.088	n/a	TRUCK	-999	11	[0, 0, 0]	n/a	FR1	0	R1154D
1294.076	3.753	1302608	REC_WORD	3.753	n/a	PIG	-999	11	[0, 0, 0]	n/a	FR1	0	R1154D
1297.829	2.588	1306361	REC_WORD	2.588	n/a	TANK	-999	11	[0, 0, 0]	n/a	FR1	0	R1154D
1300.417	1.0	1308949	REC_WORD_VV	1.0	n/a	<>	-999	11	[0, 0, 0]	n/a	FR1	0	R1154D
1301.417	0.331	1309949	REC_WORD_VV	0.331	n/a	<>	-999	11	[0, 0, 0]	n/a	FR1	0	R1154D
1301.748	5.05	1310280	REC_WORD	5.05	n/a	TOAD	-999	11	[0, 0, 0]	n/a	FR1	0	R1154D
1306.798	2.187	1315329	REC_WORD_VV	2.187	n/a	<>	-999	11	[0, 0, 0]	n/a	FR1	0	R1154D
1308.985	13.013	1317516	REC_WORD_VV	13.013	n/a	<>	-999	11	[0, 0, 0]	n/a	FR1	0	R1154D
1321.998	5.095	1330529	REC_END	n/a	n/a	n/a	-999	11	[0, 0, 0]	n/a	FR1	0	R1154D
1327.093	0.5	1335623	TRIAL	n/a	n/a	n/a	-999	12	[0, 0, 0]	n/a	FR1	0	R1154D
1327.593	10.428	1336123	COUNTDOWN_START	n/a	n/a	n/a	-999	12	[0, 0, 0]	n/a	FR1	0	R1154D
1338.021	0.006	1346551	COUNTDOWN_END	n/a	n/a	n/a	-999	12	[0, 0, 0]	n/a	FR1	0	R1154D
1338.027	1.617	1346557	ORIENT	n/a	n/a	n/a	-999	12	[0, 0, 0]	n/a	FR1	0	R1154D
1339.644	1.884	1348174	ORIENT_OFF	n/a	n/a	n/a	-999	12	[0, 0, 0]	n/a	FR1	0	R1154D
1341.528	1.618	1350058	WORD	n/a	wordpools/wordpool_EN.txt	NET	1	12	[0, 0, 0]	n/a	FR1	0	R1154D
1343.146	0.849	1351676	WORD_OFF	n/a	n/a	NET	1	12	[0, 0, 0]	n/a	FR1	0	R1154D
1343.995	1.617	1352524	WORD	n/a	wordpools/wordpool_EN.txt	JET	2	12	[0, 0, 0]	n/a	FR1	0	R1154D
1345.612	0.767	1354141	WORD_OFF	n/a	n/a	JET	2	12	[0, 0, 0]	n/a	FR1	0	R1154D
1346.379	1.617	1354908	WORD	n/a	wordpools/wordpool_EN.txt	CLOUD	3	12	[0, 0, 0]	n/a	FR1	0	R1154D
1347.996	0.983	1356525	WORD_OFF	n/a	n/a	CLOUD	3	12	[0, 0, 0]	n/a	FR1	0	R1154D
1348.979	1.618	1357508	WORD	n/a	wordpools/wordpool_EN.txt	SLIME	4	12	[0, 0, 0]	n/a	FR1	0	R1154D
1350.597	0.899	1359126	WORD_OFF	n/a	n/a	SLIME	4	12	[0, 0, 0]	n/a	FR1	0	R1154D
1351.496	1.619	1360025	WORD	n/a	wordpools/wordpool_EN.txt	PLANE	5	12	[0, 0, 0]	n/a	FR1	0	R1154D
1353.115	0.782	1361644	WORD_OFF	n/a	n/a	PLANE	5	12	[0, 0, 0]	n/a	FR1	0	R1154D
1353.897	1.617	1362426	WORD	n/a	wordpools/wordpool_EN.txt	WHEEL	6	12	[0, 0, 0]	n/a	FR1	0	R1154D
1355.514	0.933	1364043	WORD_OFF	n/a	n/a	WHEEL	6	12	[0, 0, 0]	n/a	FR1	0	R1154D
1356.447	1.618	1364976	WORD	n/a	wordpools/wordpool_EN.txt	ICE	7	12	[0, 0, 0]	n/a	FR1	0	R1154D
1358.065	1.017	1366594	WORD_OFF	n/a	n/a	ICE	7	12	[0, 0, 0]	n/a	FR1	0	R1154D
1359.082	1.616	1367611	WORD	n/a	wordpools/wordpool_EN.txt	SKI	8	12	[0, 0, 0]	n/a	FR1	0	R1154D
1360.698	0.9	1369227	WORD_OFF	n/a	n/a	SKI	8	12	[0, 0, 0]	n/a	FR1	0	R1154D
1361.598	1.617	1370127	WORD	n/a	wordpools/wordpool_EN.txt	BEAR	9	12	[0, 0, 0]	n/a	FR1	0	R1154D
1363.215	0.935	1371743	WORD_OFF	n/a	n/a	BEAR	9	12	[0, 0, 0]	n/a	FR1	0	R1154D
1364.15	1.616	1372678	WORD	n/a	wordpools/wordpool_EN.txt	SPARK	10	12	[0, 0, 0]	n/a	FR1	0	R1154D
1365.766	0.85	1374294	WORD_OFF	n/a	n/a	SPARK	10	12	[0, 0, 0]	n/a	FR1	0	R1154D
1366.616	1.617	1375144	WORD	n/a	wordpools/wordpool_EN.txt	ZOO	11	12	[0, 0, 0]	n/a	FR1	0	R1154D
1368.233	0.984	1376761	WORD_OFF	n/a	n/a	ZOO	11	12	[0, 0, 0]	n/a	FR1	0	R1154D
1369.217	1.616	1377745	WORD	n/a	wordpools/wordpool_EN.txt	MOLE	12	12	[0, 0, 0]	n/a	FR1	0	R1154D
1370.833	0.0	1379361	WORD_OFF	n/a	n/a	MOLE	12	12	[0, 0, 0]	n/a	FR1	0	R1154D
1370.833	0.001	1379361	DISTRACT_START	n/a	n/a	n/a	-999	12	[0, 0, 0]	n/a	FR1	0	R1154D
1370.834	0.016	1379362	START	n/a	n/a	n/a	-999	12	[-999, -999, -999]	n/a	FR1	0	R1154D
1370.85	3.218	1379378	PROB	3.218	n/a	n/a	-999	12	[3, 5, 7]	15	FR1	0	R1154D
1374.068	5.6	1382596	PROB	5.6	n/a	n/a	-999	12	[4, 8, 7]	20	FR1	0	R1154D
1379.668	4.201	1388196	PROB	4.201	n/a	n/a	-999	12	[2, 7, 4]	13	FR1	0	R1154D
1383.869	5.169	1392396	PROB	5.169	n/a	n/a	-999	12	[7, 6, 9]	22	FR1	0	R1154D
1389.038	2.641	1397565	PROB	2.641	n/a	n/a	-999	12	[5, 6, 8]	19	FR1	0	R1154D
1391.679	0.008	1400206	STOP	n/a	n/a	n/a	-999	12	[-999, -999, -999]	n/a	FR1	0	R1154D
1391.687	0.617	1400214	DISTRACT_END	n/a	n/a	n/a	-999	12	[0, 0, 0]	n/a	FR1	0	R1154D
1392.304	0.517	1400831	RETRIEVAL_ORIENT	n/a	n/a	n/a	-999	12	[0, 0, 0]	n/a	FR1	0	R1154D
1392.821	2.562	1401348	REC_START	n/a	n/a	n/a	-999	12	[0, 0, 0]	n/a	FR1	0	R1154D
1395.383	16.867	1403910	REC_WORD_VV	16.867	n/a	<>	-999	12	[0, 0, 0]	n/a	FR1	0	R1154D
1412.25	1.0	1420776	REC_WORD_VV	1.0	n/a	<>	-999	12	[0, 0, 0]	n/a	FR1	0	R1154D
1413.25	9.584	1421776	REC_WORD_VV	9.584	n/a	<>	-999	12	[0, 0, 0]	n/a	FR1	0	R1154D
1422.834	5.027	1431359	REC_END	n/a	n/a	n/a	-999	12	[0, 0, 0]	n/a	FR1	0	R1154D
1427.861	0.5	1436386	TRIAL	n/a	n/a	n/a	-999	13	[0, 0, 0]	n/a	FR1	0	R1154D
1428.361	10.428	1436886	COUNTDOWN_START	n/a	n/a	n/a	-999	13	[0, 0, 0]	n/a	FR1	0	R1154D
1438.789	0.007	1447313	COUNTDOWN_END	n/a	n/a	n/a	-999	13	[0, 0, 0]	n/a	FR1	0	R1154D
1438.796	1.617	1447320	ORIENT	n/a	n/a	n/a	-999	13	[0, 0, 0]	n/a	FR1	0	R1154D
1440.413	2.25	1448937	ORIENT_OFF	n/a	n/a	n/a	-999	13	[0, 0, 0]	n/a	FR1	0	R1154D
1442.663	1.617	1451187	WORD	n/a	wordpools/wordpool_EN.txt	PLANT	1	13	[0, 0, 0]	n/a	FR1	0	R1154D
1444.28	0.951	1452804	WORD_OFF	n/a	n/a	PLANT	1	13	[0, 0, 0]	n/a	FR1	0	R1154D
1445.231	1.616	1453755	WORD	n/a	wordpools/wordpool_EN.txt	COW	2	13	[0, 0, 0]	n/a	FR1	0	R1154D
1446.847	0.817	1455371	WORD_OFF	n/a	n/a	COW	2	13	[0, 0, 0]	n/a	FR1	0	R1154D
1447.664	1.617	1456188	WORD	n/a	wordpools/wordpool_EN.txt	SPRING	3	13	[0, 0, 0]	n/a	FR1	0	R1154D
1449.281	0.835	1457805	WORD_OFF	n/a	n/a	SPRING	3	13	[0, 0, 0]	n/a	FR1	0	R1154D
1450.116	1.616	1458640	WORD	n/a	wordpools/wordpool_EN.txt	BEAN	4	13	[0, 0, 0]	n/a	FR1	0	R1154D
1451.732	0.933	1460256	WORD_OFF	n/a	n/a	BEAN	4	13	[0, 0, 0]	n/a	FR1	0	R1154D
1452.665	1.617	1461189	WORD	n/a	wordpools/wordpool_EN.txt	DITCH	5	13	[0, 0, 0]	n/a	FR1	0	R1154D
1454.282	0.9	1462806	WORD_OFF	n/a	n/a	DITCH	5	13	[0, 0, 0]	n/a	FR1	0	R1154D
1455.182	1.617	1463706	WORD	n/a	wordpools/wordpool_EN.txt	JEEP	6	13	[0, 0, 0]	n/a	FR1	0	R1154D
1456.799	0.934	1465322	WORD_OFF	n/a	n/a	JEEP	6	13	[0, 0, 0]	n/a	FR1	0	R1154D
1457.733	1.617	1466256	WORD	n/a	wordpools/wordpool_EN.txt	TEA	7	13	[0, 0, 0]	n/a	FR1	0	R1154D
1459.35	0.967	1467873	WORD_OFF	n/a	n/a	TEA	7	13	[0, 0, 0]	n/a	FR1	0	R1154D
1460.317	1.617	1468840	WORD	n/a	wordpools/wordpool_EN.txt	BUSH	8	13	[0, 0, 0]	n/a	FR1	0	R1154D
1461.934	0.9	1470457	WORD_OFF	n/a	n/a	BUSH	8	13	[0, 0, 0]	n/a	FR1	0	R1154D
1462.834	1.617	1471357	WORD	n/a	wordpools/wordpool_EN.txt	LAMB	9	13	[0, 0, 0]	n/a	FR1	0	R1154D
1464.451	0.9	1472974	WORD_OFF	n/a	n/a	LAMB	9	13	[0, 0, 0]	n/a	FR1	0	R1154D
1465.351	1.617	1473874	WORD	n/a	wordpools/wordpool_EN.txt	HOOF	10	13	[0, 0, 0]	n/a	FR1	0	R1154D
1466.968	0.983	1475491	WORD_OFF	n/a	n/a	HOOF	10	13	[0, 0, 0]	n/a	FR1	0	R1154D
1467.951	1.617	1476474	WORD	n/a	wordpools/wordpool_EN.txt	GRASS	11	13	[0, 0, 0]	n/a	FR1	0	R1154D
1469.568	0.85	1478091	WORD_OFF	n/a	n/a	GRASS	11	13	[0, 0, 0]	n/a	FR1	0	R1154D
1470.418	1.617	1478941	WORD	n/a	wordpools/wordpool_EN.txt	VINE	12	13	[0, 0, 0]	n/a	FR1	0	R1154D
1472.035	0.0	1480558	WORD_OFF	n/a	n/a	VINE	12	13	[0, 0, 0]	n/a	FR1	0	R1154D
1472.035	0.002	1480558	DISTRACT_START	n/a	n/a	n/a	-999	13	[0, 0, 0]	n/a	FR1	0	R1154D
1472.037	0.016	1480560	START	n/a	n/a	n/a	-999	13	[-999, -999, -999]	n/a	FR1	0	R1154D
1472.053	3.55	1480576	PROB	3.55	n/a	n/a	-999	13	[8, 1, 8]	17	FR1	0	R1154D
1475.603	2.117	1484125	PROB	2.117	n/a	n/a	-999	13	[6, 6, 1]	13	FR1	0	R1154D
1477.72	3.217	1486242	PROB	3.217	n/a	n/a	-999	13	[7, 5, 2]	14	FR1	0	R1154D
1480.937	2.867	1489459	PROB	2.867	n/a	n/a	-999	13	[1, 8, 9]	18	FR1	0	R1154D
1483.804	5.352	1492326	PROB	5.352	n/a	n/a	-999	13	[4, 8, 6]	18	FR1	0	R1154D
1489.156	4.075	1497678	PROB	4.075	n/a	n/a	-999	13	[5, 7, 7]	18	FR1	0	R1154D
1493.231	0.008	1501753	STOP	n/a	n/a	n/a	-999	13	[-999, -999, -999]	n/a	FR1	0	R1154D
1493.239	0.584	1501761	DISTRACT_END	n/a	n/a	n/a	-999	13	[0, 0, 0]	n/a	FR1	0	R1154D
1493.823	0.517	1502345	RETRIEVAL_ORIENT	n/a	n/a	n/a	-999	13	[0, 0, 0]	n/a	FR1	0	R1154D
1494.34	1.244	1502861	REC_START	n/a	n/a	n/a	-999	13	[0, 0, 0]	n/a	FR1	0	R1154D
1495.584	12.031	1504105	REC_WORD	12.031	n/a	BUSH	-999	13	[0, 0, 0]	n/a	FR1	0	R1154D
1507.615	2.187	1516136	REC_WORD_VV	2.187	n/a	<>	-999	13	[0, 0, 0]	n/a	FR1	0	R1154D
1509.802	2.598	1518323	REC_WORD	2.598	n/a	SPRING	-999	13	[0, 0, 0]	n/a	FR1	0	R1154D
1512.4	2.14	1520921	REC_WORD_VV	2.14	n/a	<>	-999	13	[0, 0, 0]	n/a	FR1	0	R1154D
1514.54	5.872	1523060	REC_WORD	5.872	n/a	COW	-999	13	[0, 0, 0]	n/a	FR1	0	R1154D
1520.412	0.347	1528932	REC_WORD_VV	0.347	n/a	<>	-999	13	[0, 0, 0]	n/a	FR1	0	R1154D
1520.759	1.325	1529279	REC_WORD	1.325	n/a	COW	-999	13	[0, 0, 0]	n/a	FR1	0	R1154D
1522.084	1.109	1530604	REC_WORD	1.109	n/a	BUSH	-999	13	[0, 0, 0]	n/a	FR1	0	R1154D
1523.193	1.159	1531713	REC_WORD_VV	1.159	n/a	<>	-999	13	[0, 0, 0]	n/a	FR1	0	R1154D
1524.352	5.795	1532872	REC_END	n/a	n/a	n/a	-999	13	[0, 0, 0]	n/a	FR1	0	R1154D
1530.147	0.5	1538667	TRIAL	n/a	n/a	n/a	-999	14	[0, 0, 0]	n/a	FR1	0	R1154D
1530.647	10.428	1539167	COUNTDOWN_START	n/a	n/a	n/a	-999	14	[0, 0, 0]	n/a	FR1	0	R1154D
1541.075	0.007	1549594	COUNTDOWN_END	n/a	n/a	n/a	-999	14	[0, 0, 0]	n/a	FR1	0	R1154D
1541.082	1.616	1549601	ORIENT	n/a	n/a	n/a	-999	14	[0, 0, 0]	n/a	FR1	0	R1154D
1542.698	1.984	1551217	ORIENT_OFF	n/a	n/a	n/a	-999	14	[0, 0, 0]	n/a	FR1	0	R1154D
1544.682	1.617	1553201	WORD	n/a	wordpools/wordpool_EN.txt	JAR	1	14	[0, 0, 0]	n/a	FR1	0	R1154D
1546.299	1.017	1554818	WORD_OFF	n/a	n/a	JAR	1	14	[0, 0, 0]	n/a	FR1	0	R1154D
1547.316	1.617	1555835	WORD	n/a	wordpools/wordpool_EN.txt	GRAPE	2	14	[0, 0, 0]	n/a	FR1	0	R1154D
1548.933	0.916	1557452	WORD_OFF	n/a	n/a	GRAPE	2	14	[0, 0, 0]	n/a	FR1	0	R1154D
1549.849	1.618	1558368	WORD	n/a	wordpools/wordpool_EN.txt	ARK	3	14	[0, 0, 0]	n/a	FR1	0	R1154D
1551.467	0.766	1559985	WORD_OFF	n/a	n/a	ARK	3	14	[0, 0, 0]	n/a	FR1	0	R1154D
1552.233	1.617	1560751	WORD	n/a	wordpools/wordpool_EN.txt	CAVE	4	14	[0, 0, 0]	n/a	FR1	0	R1154D
1553.85	0.767	1562368	WORD_OFF	n/a	n/a	CAVE	4	14	[0, 0, 0]	n/a	FR1	0	R1154D
1554.617	1.617	1563135	WORD	n/a	wordpools/wordpool_EN.txt	NAIL	5	14	[0, 0, 0]	n/a	FR1	0	R1154D
1556.234	0.818	1564752	WORD_OFF	n/a	n/a	NAIL	5	14	[0, 0, 0]	n/a	FR1	0	R1154D
1557.052	1.616	1565570	WORD	n/a	wordpools/wordpool_EN.txt	CHIN	6	14	[0, 0, 0]	n/a	FR1	0	R1154D
1558.668	0.933	1567186	WORD_OFF	n/a	n/a	CHIN	6	14	[0, 0, 0]	n/a	FR1	0	R1154D
1559.601	1.617	1568119	WORD	n/a	wordpools/wordpool_EN.txt	MOTH	7	14	[0, 0, 0]	n/a	FR1	0	R1154D
1561.218	0.868	1569736	WORD_OFF	n/a	n/a	MOTH	7	14	[0, 0, 0]	n/a	FR1	0	R1154D
1562.086	1.616	1570604	WORD	n/a	wordpools/wordpool_EN.txt	PIPE	8	14	[0, 0, 0]	n/a	FR1	0	R1154D
1563.702	0.867	1572220	WORD_OFF	n/a	n/a	PIPE	8	14	[0, 0, 0]	n/a	FR1	0	R1154D
1564.569	1.601	1573087	WORD	n/a	wordpools/wordpool_EN.txt	TIE	9	14	[0, 0, 0]	n/a	FR1	0	R1154D
1566.17	0.884	1574688	WORD_OFF	n/a	n/a	TIE	9	14	[0, 0, 0]	n/a	FR1	0	R1154D
1567.054	1.616	1575572	WORD	n/a	wordpools/wordpool_EN.txt	BEE	10	14	[0, 0, 0]	n/a	FR1	0	R1154D
1568.67	0.967	1577188	WORD_OFF	n/a	n/a	BEE	10	14	[0, 0, 0]	n/a	FR1	0	R1154D
1569.637	1.617	1578154	WORD	n/a	wordpools/wordpool_EN.txt	MUG	11	14	[0, 0, 0]	n/a	FR1	0	R1154D
1571.254	0.817	1579771	WORD_OFF	n/a	n/a	MUG	11	14	[0, 0, 0]	n/a	FR1	0	R1154D
1572.071	1.616	1580588	WORD	n/a	wordpools/wordpool_EN.txt	PIE	12	14	[0, 0, 0]	n/a	FR1	0	R1154D
1573.687	0.0	1582204	WORD_OFF	n/a	n/a	PIE	12	14	[0, 0, 0]	n/a	FR1	0	R1154D
1573.687	0.001	1582204	DISTRACT_START	n/a	n/a	n/a	-999	14	[0, 0, 0]	n/a	FR1	0	R1154D
1573.688	0.016	1582205	START	n/a	n/a	n/a	-999	14	[-999, -999, -999]	n/a	FR1	0	R1154D
1573.704	2.534	1582221	PROB	2.534	n/a	n/a	-999	14	[8, 1, 3]	12	FR1	0	R1154D
1576.238	2.567	1584755	PROB	2.567	n/a	n/a	-999	14	[6, 8, 4]	18	FR1	0	R1154D
1578.805	2.45	1587322	PROB	2.45	n/a	n/a	-999	14	[7, 5, 2]	14	FR1	0	R1154D
1581.255	1.934	1589772	PROB	1.934	n/a	n/a	-999	14	[8, 2, 1]	11	FR1	0	R1154D
1583.189	2.651	1591706	PROB	2.651	n/a	n/a	-999	14	[9, 2, 6]	17	FR1	0	R1154D
1585.84	2.417	1594357	PROB	2.417	n/a	n/a	-999	14	[2, 2, 7]	11	FR1	0	R1154D
1588.257	3.033	1596773	PROB	3.033	n/a	n/a	-999	14	[9, 7, 1]	17	FR1	0	R1154D
1591.29	2.542	1599806	PROB	2.542	n/a	n/a	-999	14	[4, 6, 2]	12	FR1	0	R1154D
1593.832	0.009	1602348	STOP	n/a	n/a	n/a	-999	14	[-999, -999, -999]	n/a	FR1	0	R1154D
1593.841	0.617	1602357	DISTRACT_END	n/a	n/a	n/a	-999	14	[0, 0, 0]	n/a	FR1	0	R1154D
1594.458	0.517	1602974	RETRIEVAL_ORIENT	n/a	n/a	n/a	-999	14	[0, 0, 0]	n/a	FR1	0	R1154D
1594.975	0.559	1603491	REC_START	n/a	n/a	n/a	-999	14	[0, 0, 0]	n/a	FR1	0	R1154D
1595.534	3.199	1604050	REC_WORD_VV	3.199	n/a	<>	-999	14	[0, 0, 0]	n/a	FR1	0	R1154D
1598.733	26.253	1607249	REC_WORD	26.253	n/a	PIE	-999	14	[0, 0, 0]	n/a	FR1	0	R1154D
1624.986	5.378	1633501	REC_END	n/a	n/a	n/a	-999	14	[0, 0, 0]	n/a	FR1	0	R1154D
1630.364	0.5	1638878	TRIAL	n/a	n/a	n/a	-999	15	[0, 0, 0]	n/a	FR1	0	R1154D
1630.864	10.428	1639378	COUNTDOWN_START	n/a	n/a	n/a	-999	15	[0, 0, 0]	n/a	FR1	0	R1154D
1641.292	0.008	1649806	COUNTDOWN_END	n/a	n/a	n/a	-999	15	[0, 0, 0]	n/a	FR1	0	R1154D
1641.3	1.617	1649814	ORIENT	n/a	n/a	n/a	-999	15	[0, 0, 0]	n/a	FR1	0	R1154D
1642.917	2.201	1651431	ORIENT_OFF	n/a	n/a	n/a	-999	15	[0, 0, 0]	n/a	FR1	0	R1154D
1645.118	1.616	1653631	WORD	n/a	wordpools/wordpool_EN.txt	NEST	1	15	[0, 0, 0]	n/a	FR1	0	R1154D
1646.734	0.817	1655247	WORD_OFF	n/a	n/a	NEST	1	15	[0, 0, 0]	n/a	FR1	0	R1154D
1647.551	1.618	1656064	WORD	n/a	wordpools/wordpool_EN.txt	MILK	2	15	[0, 0, 0]	n/a	FR1	0	R1154D
1649.169	0.933	1657682	WORD_OFF	n/a	n/a	MILK	2	15	[0, 0, 0]	n/a	FR1	0	R1154D
1650.102	1.616	1658615	WORD	n/a	wordpools/wordpool_EN.txt	FOOD	3	15	[0, 0, 0]	n/a	FR1	0	R1154D
1651.718	0.784	1660231	WORD_OFF	n/a	n/a	FOOD	3	15	[0, 0, 0]	n/a	FR1	0	R1154D
1652.502	1.618	1661015	WORD	n/a	wordpools/wordpool_EN.txt	PRINCE	4	15	[0, 0, 0]	n/a	FR1	0	R1154D
1654.12	0.815	1662633	WORD_OFF	n/a	n/a	PRINCE	4	15	[0, 0, 0]	n/a	FR1	0	R1154D
1654.935	1.617	1663448	WORD	n/a	wordpools/wordpool_EN.txt	PEACH	5	15	[0, 0, 0]	n/a	FR1	0	R1154D
1656.552	0.984	1665065	WORD_OFF	n/a	n/a	PEACH	5	15	[0, 0, 0]	n/a	FR1	0	R1154D
1657.536	1.618	1666049	WORD	n/a	wordpools/wordpool_EN.txt	BREAD	6	15	[0, 0, 0]	n/a	FR1	0	R1154D
1659.154	0.967	1667667	WORD_OFF	n/a	n/a	BREAD	6	15	[0, 0, 0]	n/a	FR1	0	R1154D
1660.121	1.616	1668634	WORD	n/a	wordpools/wordpool_EN.txt	WOLF	7	15	[0, 0, 0]	n/a	FR1	0	R1154D
1661.737	1.0	1670250	WORD_OFF	n/a	n/a	WOLF	7	15	[0, 0, 0]	n/a	FR1	0	R1154D
1662.737	1.617	1671250	WORD	n/a	wordpools/wordpool_EN.txt	DEER	8	15	[0, 0, 0]	n/a	FR1	0	R1154D
1664.354	0.85	1672866	WORD_OFF	n/a	n/a	DEER	8	15	[0, 0, 0]	n/a	FR1	0	R1154D
1665.204	1.617	1673716	WORD	n/a	wordpools/wordpool_EN.txt	CROW	9	15	[0, 0, 0]	n/a	FR1	0	R1154D
1666.821	0.983	1675333	WORD_OFF	n/a	n/a	CROW	9	15	[0, 0, 0]	n/a	FR1	0	R1154D
1667.804	1.617	1676316	WORD	n/a	wordpools/wordpool_EN.txt	GEESE	10	15	[0, 0, 0]	n/a	FR1	0	R1154D
1669.421	0.767	1677933	WORD_OFF	n/a	n/a	GEESE	10	15	[0, 0, 0]	n/a	FR1	0	R1154D
1670.188	1.617	1678700	WORD	n/a	wordpools/wordpool_EN.txt	EEL	11	15	[0, 0, 0]	n/a	FR1	0	R1154D
1671.805	0.934	1680317	WORD_OFF	n/a	n/a	EEL	11	15	[0, 0, 0]	n/a	FR1	0	R1154D
1672.739	1.617	1681251	WORD	n/a	wordpools/wordpool_EN.txt	PIT	12	15	[0, 0, 0]	n/a	FR1	0	R1154D
1674.356	0.0	1682868	WORD_OFF	n/a	n/a	PIT	12	15	[0, 0, 0]	n/a	FR1	0	R1154D
1674.356	0.0	1682868	DISTRACT_START	n/a	n/a	n/a	-999	15	[0, 0, 0]	n/a	FR1	0	R1154D
1674.356	0.016	1682868	START	n/a	n/a	n/a	-999	15	[-999, -999, -999]	n/a	FR1	0	R1154D
1674.372	4.151	1682884	PROB	4.151	n/a	n/a	-999	15	[2, 8, 7]	17	FR1	0	R1154D
1678.523	2.367	1687035	PROB	2.367	n/a	n/a	-999	15	[3, 3, 3]	9	FR1	0	R1154D
1680.89	2.751	1689402	PROB	2.751	n/a	n/a	-999	15	[9, 2, 9]	20	FR1	0	R1154D
1683.641	3.25	1692152	PROB	3.25	n/a	n/a	-999	15	[3, 9, 6]	18	FR1	0	R1154D
1686.891	2.067	1695402	PROB	2.067	n/a	n/a	-999	15	[7, 3, 3]	13	FR1	0	R1154D
1688.958	2.334	1697469	PROB	2.334	n/a	n/a	-999	15	[8, 5, 1]	14	FR1	0	R1154D
1691.292	5.363	1699803	PROB	5.363	n/a	n/a	-999	15	[9, 7, 7]	21	FR1	0	R1154D
1696.655	0.021	1705166	STOP	n/a	n/a	n/a	-999	15	[-999, -999, -999]	n/a	FR1	0	R1154D
1696.676	0.634	1705187	DISTRACT_END	n/a	n/a	n/a	-999	15	[0, 0, 0]	n/a	FR1	0	R1154D
1697.31	0.517	1705821	RETRIEVAL_ORIENT	n/a	n/a	n/a	-999	15	[0, 0, 0]	n/a	FR1	0	R1154D
1697.827	0.884	1706338	REC_START	n/a	n/a	n/a	-999	15	[0, 0, 0]	n/a	FR1	0	R1154D
1698.711	2.009	1707222	REC_WORD_VV	2.009	n/a	<>	-999	15	[0, 0, 0]	n/a	FR1	0	R1154D
1700.72	2.38	1709231	REC_WORD_VV	2.38	n/a	<>	-999	15	[0, 0, 0]	n/a	FR1	0	R1154D
1703.1	2.705	1711610	REC_WORD_VV	2.705	n/a	<>	-999	15	[0, 0, 0]	n/a	FR1	0	R1154D
1705.805	16.509	1714315	REC_WORD	16.509	n/a	FOOD	-999	15	[0, 0, 0]	n/a	FR1	0	R1154D
1722.314	1.0	1730823	REC_WORD_VV	1.0	n/a	<>	-999	15	[0, 0, 0]	n/a	FR1	0	R1154D
1723.314	4.526	1731823	REC_WORD_VV	4.526	n/a	<>	-999	15	[0, 0, 0]	n/a	FR1	0	R1154D
1727.84	4.61	1736349	REC_END	n/a	n/a	n/a	-999	15	[0, 0, 0]	n/a	FR1	0	R1154D
1732.45	0.5	1740959	TRIAL	n/a	n/a	n/a	-999	16	[0, 0, 0]	n/a	FR1	0	R1154D
1732.95	10.428	1741459	COUNTDOWN_START	n/a	n/a	n/a	-999	16	[0, 0, 0]	n/a	FR1	0	R1154D
1743.378	0.007	1751886	COUNTDOWN_END	n/a	n/a	n/a	-999	16	[0, 0, 0]	n/a	FR1	0	R1154D
1743.385	1.617	1751893	ORIENT	n/a	n/a	n/a	-999	16	[0, 0, 0]	n/a	FR1	0	R1154D
1745.002	1.934	1753510	ORIENT_OFF	n/a	n/a	n/a	-999	16	[0, 0, 0]	n/a	FR1	0	R1154D
1746.936	1.617	1755444	WORD	n/a	wordpools/wordpool_EN.txt	BENCH	1	16	[0, 0, 0]	n/a	FR1	0	R1154D
1748.553	0.783	1757061	WORD_OFF	n/a	n/a	BENCH	1	16	[0, 0, 0]	n/a	FR1	0	R1154D
1749.336	1.617	1757844	WORD	n/a	wordpools/wordpool_EN.txt	THUMB	2	16	[0, 0, 0]	n/a	FR1	0	R1154D
1750.953	0.8	1759461	WORD_OFF	n/a	n/a	THUMB	2	16	[0, 0, 0]	n/a	FR1	0	R1154D
1751.753	1.617	1760261	WORD	n/a	wordpools/wordpool_EN.txt	SMILE	3	16	[0, 0, 0]	n/a	FR1	0	R1154D
1753.37	0.867	1761878	WORD_OFF	n/a	n/a	SMILE	3	16	[0, 0, 0]	n/a	FR1	0	R1154D
1754.237	1.617	1762745	WORD	n/a	wordpools/wordpool_EN.txt	PEA	4	16	[0, 0, 0]	n/a	FR1	0	R1154D
1755.854	0.9	1764362	WORD_OFF	n/a	n/a	PEA	4	16	[0, 0, 0]	n/a	FR1	0	R1154D
1756.754	1.617	1765262	WORD	n/a	wordpools/wordpool_EN.txt	FOX	5	16	[0, 0, 0]	n/a	FR1	0	R1154D
1758.371	0.95	1766878	WORD_OFF	n/a	n/a	FOX	5	16	[0, 0, 0]	n/a	FR1	0	R1154D
1759.321	1.617	1767828	WORD	n/a	wordpools/wordpool_EN.txt	FOOT	6	16	[0, 0, 0]	n/a	FR1	0	R1154D
1760.938	0.85	1769445	WORD_OFF	n/a	n/a	FOOT	6	16	[0, 0, 0]	n/a	FR1	0	R1154D
1761.788	1.617	1770295	WORD	n/a	wordpools/wordpool_EN.txt	BARN	7	16	[0, 0, 0]	n/a	FR1	0	R1154D
1763.405	0.834	1771912	WORD_OFF	n/a	n/a	BARN	7	16	[0, 0, 0]	n/a	FR1	0	R1154D
1764.239	1.617	1772746	WORD	n/a	wordpools/wordpool_EN.txt	TAIL	8	16	[0, 0, 0]	n/a	FR1	0	R1154D
1765.856	0.933	1774363	WORD_OFF	n/a	n/a	TAIL	8	16	[0, 0, 0]	n/a	FR1	0	R1154D
1766.789	1.617	1775296	WORD	n/a	wordpools/wordpool_EN.txt	SKUNK	9	16	[0, 0, 0]	n/a	FR1	0	R1154D
1768.406	0.95	1776913	WORD_OFF	n/a	n/a	SKUNK	9	16	[0, 0, 0]	n/a	FR1	0	R1154D
1769.356	1.617	1777863	WORD	n/a	wordpools/wordpool_EN.txt	CALF	10	16	[0, 0, 0]	n/a	FR1	0	R1154D
1770.973	0.867	1779480	WORD_OFF	n/a	n/a	CALF	10	16	[0, 0, 0]	n/a	FR1	0	R1154D
1771.84	1.617	1780347	WORD	n/a	wordpools/wordpool_EN.txt	SINK	11	16	[0, 0, 0]	n/a	FR1	0	R1154D
1773.457	0.934	1781964	WORD_OFF	n/a	n/a	SINK	11	16	[0, 0, 0]	n/a	FR1	0	R1154D
1774.391	1.617	1782898	WORD	n/a	wordpools/wordpool_EN.txt	PEN	12	16	[0, 0, 0]	n/a	FR1	0	R1154D
1776.008	0.0	1784515	WORD_OFF	n/a	n/a	PEN	12	16	[0, 0, 0]	n/a	FR1	0	R1154D
1776.008	0.0	1784515	DISTRACT_START	n/a	n/a	n/a	-999	16	[0, 0, 0]	n/a	FR1	0	R1154D
1776.008	0.016	1784515	START	n/a	n/a	n/a	-999	16	[-999, -999, -999]	n/a	FR1	0	R1154D
1776.024	4.301	1784531	PROB	4.301	n/a	n/a	-999	16	[6, 2, 3]	11	FR1	0	R1154D
1780.325	2.217	1788831	PROB	2.217	n/a	n/a	-999	16	[2, 8, 4]	14	FR1	0	R1154D
1782.542	2.984	1791048	PROB	2.984	n/a	n/a	-999	16	[5, 7, 2]	13	FR1	0	R1154D
1785.526	2.4	1794032	PROB	2.4	n/a	n/a	-999	16	[1, 3, 1]	5	FR1	0	R1154D
1787.926	4.618	1796432	PROB	4.618	n/a	n/a	-999	16	[3, 2, 8]	13	FR1	0	R1154D
1792.544	3.167	1801050	PROB	3.167	n/a	n/a	-999	16	[4, 5, 8]	17	FR1	0	R1154D
1795.711	2.417	1804216	PROB	2.417	n/a	n/a	-999	16	[7, 2, 5]	14	FR1	0	R1154D
1798.128	0.018	1806633	STOP	n/a	n/a	n/a	-999	16	[-999, -999, -999]	n/a	FR1	0	R1154D
1798.146	0.616	1806651	DISTRACT_END	n/a	n/a	n/a	-999	16	[0, 0, 0]	n/a	FR1	0	R1154D
1798.762	0.517	1807267	RETRIEVAL_ORIENT	n/a	n/a	n/a	-999	16	[0, 0, 0]	n/a	FR1	0	R1154D
1799.279	1.036	1807784	REC_START	n/a	n/a	n/a	-999	16	[0, 0, 0]	n/a	FR1	0	R1154D
1800.315	2.313	1808820	REC_WORD	2.313	n/a	THUMB	-999	16	[0, 0, 0]	n/a	FR1	0	R1154D
1802.628	0.738	1811133	REC_WORD_VV	0.738	n/a	<>	-999	16	[0, 0, 0]	n/a	FR1	0	R1154D
1803.366	2.485	1811871	REC_WORD	2.485	n/a	SKUNK	-999	16	[0, 0, 0]	n/a	FR1	0	R1154D
1805.851	5.232	1814356	REC_WORD	5.232	n/a	CALF	-999	16	[0, 0, 0]	n/a	FR1	0	R1154D
1811.083	18.21	1819588	REC_WORD	18.21	n/a	BENCH	-999	16	[0, 0, 0]	n/a	FR1	0	R1154D
1829.293	5.843	1837797	REC_END	n/a	n/a	n/a	-999	16	[0, 0, 0]	n/a	FR1	0	R1154D
1835.136	0.5	1843639	TRIAL	n/a	n/a	n/a	-999	17	[0, 0, 0]	n/a	FR1	0	R1154D
1835.636	10.428	1844139	COUNTDOWN_START	n/a	n/a	n/a	-999	17	[0, 0, 0]	n/a	FR1	0	R1154D
1846.064	0.007	1854567	COUNTDOWN_END	n/a	n/a	n/a	-999	17	[0, 0, 0]	n/a	FR1	0	R1154D
1846.071	1.616	1854574	ORIENT	n/a	n/a	n/a	-999	17	[0, 0, 0]	n/a	FR1	0	R1154D
1847.687	2.167	1856190	ORIENT_OFF	n/a	n/a	n/a	-999	17	[0, 0, 0]	n/a	FR1	0	R1154D
1849.854	1.617	1858357	WORD	n/a	wordpools/wordpool_EN.txt	FOG	1	17	[0, 0, 0]	n/a	FR1	0	R1154D
1851.471	0.851	1859973	WORD_OFF	n/a	n/a	FOG	1	17	[0, 0, 0]	n/a	FR1	0	R1154D
1852.322	1.617	1860824	WORD	n/a	wordpools/wordpool_EN.txt	FLEA	2	17	[0, 0, 0]	n/a	FR1	0	R1154D
1853.939	0.983	1862441	WORD_OFF	n/a	n/a	FLEA	2	17	[0, 0, 0]	n/a	FR1	0	R1154D
1854.922	1.617	1863424	WORD	n/a	wordpools/wordpool_EN.txt	WEED	3	17	[0, 0, 0]	n/a	FR1	0	R1154D
1856.539	0.817	1865041	WORD_OFF	n/a	n/a	WEED	3	17	[0, 0, 0]	n/a	FR1	0	R1154D
1857.356	1.617	1865858	WORD	n/a	wordpools/wordpool_EN.txt	VAN	4	17	[0, 0, 0]	n/a	FR1	0	R1154D
1858.973	0.983	1867475	WORD_OFF	n/a	n/a	VAN	4	17	[0, 0, 0]	n/a	FR1	0	R1154D
1859.956	1.617	1868458	WORD	n/a	wordpools/wordpool_EN.txt	COIN	5	17	[0, 0, 0]	n/a	FR1	0	R1154D
1861.573	0.767	1870075	WORD_OFF	n/a	n/a	COIN	5	17	[0, 0, 0]	n/a	FR1	0	R1154D
1862.34	1.617	1870842	WORD	n/a	wordpools/wordpool_EN.txt	SCHOOL	6	17	[0, 0, 0]	n/a	FR1	0	R1154D
1863.957	0.95	1872459	WORD_OFF	n/a	n/a	SCHOOL	6	17	[0, 0, 0]	n/a	FR1	0	R1154D
1864.907	1.617	1873409	WORD	n/a	wordpools/wordpool_EN.txt	DRUM	7	17	[0, 0, 0]	n/a	FR1	0	R1154D
1866.524	0.767	1875026	WORD_OFF	n/a	n/a	DRUM	7	17	[0, 0, 0]	n/a	FR1	0	R1154D
1867.291	1.617	1875793	WORD	n/a	wordpools/wordpool_EN.txt	GLASS	8	17	[0, 0, 0]	n/a	FR1	0	R1154D
1868.908	1.0	1877410	WORD_OFF	n/a	n/a	GLASS	8	17	[0, 0, 0]	n/a	FR1	0	R1154D
1869.908	1.617	1878410	WORD	n/a	wordpools/wordpool_EN.txt	STREET	9	17	[0, 0, 0]	n/a	FR1	0	R1154D
1871.525	0.95	1880026	WORD_OFF	n/a	n/a	STREET	9	17	[0, 0, 0]	n/a	FR1	0	R1154D
1872.475	1.618	1880976	WORD	n/a	wordpools/wordpool_EN.txt	BOY	10	17	[0, 0, 0]	n/a	FR1	0	R1154D
1874.093	0.816	1882594	WORD_OFF	n/a	n/a	BOY	10	17	[0, 0, 0]	n/a	FR1	0	R1154D
1874.909	1.617	1883410	WORD	n/a	wordpools/wordpool_EN.txt	CHIEF	11	17	[0, 0, 0]	n/a	FR1	0	R1154D
1876.526	0.817	1885027	WORD_OFF	n/a	n/a	CHIEF	11	17	[0, 0, 0]	n/a	FR1	0	R1154D
1877.343	1.617	1885844	WORD	n/a	wordpools/wordpool_EN.txt	CASH	12	17	[0, 0, 0]	n/a	FR1	0	R1154D
1878.96	0.0	1887461	DISTRACT_START	n/a	n/a	n/a	-999	17	[0, 0, 0]	n/a	FR1	0	R1154D
1878.96	0.0	1887461	WORD_OFF	n/a	n/a	CASH	12	17	[0, 0, 0]	n/a	FR1	0	R1154D
1878.96	0.016	1887461	START	n/a	n/a	n/a	-999	17	[-999, -999, -999]	n/a	FR1	0	R1154D
1878.976	3.018	1887477	PROB	3.018	n/a	n/a	-999	17	[3, 6, 4]	13	FR1	0	R1154D
1881.994	2.433	1890495	PROB	2.433	n/a	n/a	-999	17	[5, 6, 8]	19	FR1	0	R1154D
1884.427	4.535	1892928	PROB	4.535	n/a	n/a	-999	17	[9, 7, 4]	20	FR1	0	R1154D
1888.962	2.483	1897462	PROB	2.483	n/a	n/a	-999	17	[6, 7, 1]	14	FR1	0	R1154D
1891.445	2.718	1899945	PROB	2.718	n/a	n/a	-999	17	[1, 9, 9]	19	FR1	0	R1154D
1894.163	2.65	1902663	PROB	2.65	n/a	n/a	-999	17	[3, 6, 6]	15	FR1	0	R1154D
1896.813	2.386	1905313	PROB	2.386	n/a	n/a	-999	17	[3, 5, 6]	14	FR1	0	R1154D
1899.199	0.014	1907699	STOP	n/a	n/a	n/a	-999	17	[-999, -999, -999]	n/a	FR1	0	R1154D
1899.213	0.517	1907713	DISTRACT_END	n/a	n/a	n/a	-999	17	[0, 0, 0]	n/a	FR1	0	R1154D
1899.73	0.518	1908230	RETRIEVAL_ORIENT	n/a	n/a	n/a	-999	17	[0, 0, 0]	n/a	FR1	0	R1154D
1900.248	1.475	1908748	REC_START	n/a	n/a	n/a	-999	17	[0, 0, 0]	n/a	FR1	0	R1154D
1901.723	0.366	1910223	REC_WORD_VV	0.366	n/a	<>	-999	17	[0, 0, 0]	n/a	FR1	0	R1154D
1902.089	0.847	1910589	REC_WORD	0.847	n/a	WEED	-999	17	[0, 0, 0]	n/a	FR1	0	R1154D
1902.936	0.737	1911436	REC_WORD	0.737	n/a	BOY	-999	17	[0, 0, 0]	n/a	FR1	0	R1154D
1903.673	2.479	1912173	REC_WORD	2.479	n/a	CASH	-999	17	[0, 0, 0]	n/a	FR1	0	R1154D
1906.152	1.029	1914652	REC_WORD	1.029	n/a	CASH	-999	17	[0, 0, 0]	n/a	FR1	0	R1154D
1907.181	23.079	1915681	REC_WORD	23.079	n/a	CASH	-999	17	[0, 0, 0]	n/a	FR1	0	R1154D
1930.26	5.895	1938758	REC_END	n/a	n/a	n/a	-999	17	[0, 0, 0]	n/a	FR1	0	R1154D
1936.155	0.5	1944653	TRIAL	n/a	n/a	n/a	-999	18	[0, 0, 0]	n/a	FR1	0	R1154D
1936.655	10.428	1945153	COUNTDOWN_START	n/a	n/a	n/a	-999	18	[0, 0, 0]	n/a	FR1	0	R1154D
1947.083	0.007	1955580	COUNTDOWN_END	n/a	n/a	n/a	-999	18	[0, 0, 0]	n/a	FR1	0	R1154D
1947.09	1.616	1955587	ORIENT	n/a	n/a	n/a	-999	18	[0, 0, 0]	n/a	FR1	0	R1154D
1948.706	2.117	1957203	ORIENT_OFF	n/a	n/a	n/a	-999	18	[0, 0, 0]	n/a	FR1	0	R1154D
1950.823	1.617	1959320	WORD	n/a	wordpools/wordpool_EN.txt	FLUTE	1	18	[0, 0, 0]	n/a	FR1	0	R1154D
1952.44	0.767	1960937	WORD_OFF	n/a	n/a	FLUTE	1	18	[0, 0, 0]	n/a	FR1	0	R1154D
1953.207	1.617	1961704	WORD	n/a	wordpools/wordpool_EN.txt	TOAST	2	18	[0, 0, 0]	n/a	FR1	0	R1154D
1954.824	0.95	1963321	WORD_OFF	n/a	n/a	TOAST	2	18	[0, 0, 0]	n/a	FR1	0	R1154D
1955.774	1.617	1964271	WORD	n/a	wordpools/wordpool_EN.txt	BROOM	3	18	[0, 0, 0]	n/a	FR1	0	R1154D
1957.391	0.817	1965888	WORD_OFF	n/a	n/a	BROOM	3	18	[0, 0, 0]	n/a	FR1	0	R1154D
1958.208	1.617	1966705	WORD	n/a	wordpools/wordpool_EN.txt	POOL	4	18	[0, 0, 0]	n/a	FR1	0	R1154D
1959.825	0.916	1968322	WORD_OFF	n/a	n/a	POOL	4	18	[0, 0, 0]	n/a	FR1	0	R1154D
1960.741	1.617	1969238	WORD	n/a	wordpools/wordpool_EN.txt	GATE	5	18	[0, 0, 0]	n/a	FR1	0	R1154D
1962.358	0.984	1970855	WORD_OFF	n/a	n/a	GATE	5	18	[0, 0, 0]	n/a	FR1	0	R1154D
1963.342	1.617	1971839	WORD	n/a	wordpools/wordpool_EN.txt	BOOT	6	18	[0, 0, 0]	n/a	FR1	0	R1154D
1964.959	0.867	1973455	WORD_OFF	n/a	n/a	BOOT	6	18	[0, 0, 0]	n/a	FR1	0	R1154D
1965.826	1.617	1974322	WORD	n/a	wordpools/wordpool_EN.txt	HILL	7	18	[0, 0, 0]	n/a	FR1	0	R1154D
1967.443	0.983	1975939	WORD_OFF	n/a	n/a	HILL	7	18	[0, 0, 0]	n/a	FR1	0	R1154D
1968.426	1.618	1976922	WORD	n/a	wordpools/wordpool_EN.txt	SOCK	8	18	[0, 0, 0]	n/a	FR1	0	R1154D
1970.044	0.883	1978540	WORD_OFF	n/a	n/a	SOCK	8	18	[0, 0, 0]	n/a	FR1	0	R1154D
1970.927	1.617	1979423	WORD	n/a	wordpools/wordpool_EN.txt	VASE	9	18	[0, 0, 0]	n/a	FR1	0	R1154D
1972.544	0.766	1981040	WORD_OFF	n/a	n/a	VASE	9	18	[0, 0, 0]	n/a	FR1	0	R1154D
1973.31	1.617	1981806	WORD	n/a	wordpools/wordpool_EN.txt	MOUTH	10	18	[0, 0, 0]	n/a	FR1	0	R1154D
1974.927	0.984	1983423	WORD_OFF	n/a	n/a	MOUTH	10	18	[0, 0, 0]	n/a	FR1	0	R1154D
1975.911	1.617	1984407	WORD	n/a	wordpools/wordpool_EN.txt	ROOF	11	18	[0, 0, 0]	n/a	FR1	0	R1154D
1977.528	0.983	1986024	WORD_OFF	n/a	n/a	ROOF	11	18	[0, 0, 0]	n/a	FR1	0	R1154D
1978.511	1.618	1987007	WORD	n/a	wordpools/wordpool_EN.txt	DOOR	12	18	[0, 0, 0]	n/a	FR1	0	R1154D
1980.129	0.0	1988625	WORD_OFF	n/a	n/a	DOOR	12	18	[0, 0, 0]	n/a	FR1	0	R1154D
1980.129	0.001	1988625	DISTRACT_START	n/a	n/a	n/a	-999	18	[0, 0, 0]	n/a	FR1	0	R1154D
1980.13	0.016	1988626	START	n/a	n/a	n/a	-999	18	[-999, -999, -999]	n/a	FR1	0	R1154D
1980.146	3.6	1988642	PROB	3.6	n/a	n/a	-999	18	[9, 5, 4]	18	FR1	0	R1154D
1983.746	2.667	1992241	PROB	2.667	n/a	n/a	-999	18	[3, 9, 6]	18	FR1	0	R1154D
1986.413	4.652	1994908	PROB	4.652	n/a	n/a	-999	18	[6, 8, 6]	20	FR1	0	R1154D
1991.065	3.699	1999560	PROB	3.699	n/a	n/a	-999	18	[3, 3, 1]	7	FR1	0	R1154D
1994.764	3.319	2003259	PROB	3.319	n/a	n/a	-999	18	[4, 9, 4]	17	FR1	0	R1154D
1998.083	2.619	2006578	PROB	2.619	n/a	n/a	-999	18	[2, 1, 7]	10	FR1	0	R1154D
2000.702	0.013	2009197	STOP	n/a	n/a	n/a	-999	18	[-999, -999, -999]	n/a	FR1	0	R1154D
2000.715	0.684	2009210	DISTRACT_END	n/a	n/a	n/a	-999	18	[0, 0, 0]	n/a	FR1	0	R1154D
2001.399	0.517	2009894	RETRIEVAL_ORIENT	n/a	n/a	n/a	-999	18	[0, 0, 0]	n/a	FR1	0	R1154D
2001.916	1.128	2010410	REC_START	n/a	n/a	n/a	-999	18	[0, 0, 0]	n/a	FR1	0	R1154D
2003.044	9.036	2011538	REC_WORD	9.036	n/a	DOOR	-999	18	[0, 0, 0]	n/a	FR1	0	R1154D
2012.08	0.196	2020574	REC_WORD_VV	0.196	n/a	<>	-999	18	[0, 0, 0]	n/a	FR1	0	R1154D
2012.276	15.217	2020770	REC_WORD	15.217	n/a	HOUSE	-999	18	[0, 0, 0]	n/a	FR1	0	R1154D
2027.493	4.435	2035986	REC_WORD_VV	4.435	n/a	<>	-999	18	[0, 0, 0]	n/a	FR1	0	R1154D
2031.928	4.511	2040421	REC_END	n/a	n/a	n/a	-999	18	[0, 0, 0]	n/a	FR1	0	R1154D
2036.439	0.5	2044932	TRIAL	n/a	n/a	n/a	-999	19	[0, 0, 0]	n/a	FR1	0	R1154D
2036.939	10.428	2045432	COUNTDOWN_START	n/a	n/a	n/a	-999	19	[0, 0, 0]	n/a	FR1	0	R1154D
2047.367	0.007	2055859	COUNTDOWN_END	n/a	n/a	n/a	-999	19	[0, 0, 0]	n/a	FR1	0	R1154D
2047.374	1.617	2055866	ORIENT	n/a	n/a	n/a	-999	19	[0, 0, 0]	n/a	FR1	0	R1154D
2048.991	2.217	2057483	ORIENT_OFF	n/a	n/a	n/a	-999	19	[0, 0, 0]	n/a	FR1	0	R1154D
2051.208	1.617	2059700	WORD	n/a	wordpools/wordpool_EN.txt	BRANCH	1	19	[0, 0, 0]	n/a	FR1	0	R1154D
2052.825	0.95	2061317	WORD_OFF	n/a	n/a	BRANCH	1	19	[0, 0, 0]	n/a	FR1	0	R1154D
2053.775	1.617	2062267	WORD	n/a	wordpools/wordpool_EN.txt	LOCK	2	19	[0, 0, 0]	n/a	FR1	0	R1154D
2055.392	0.884	2063884	WORD_OFF	n/a	n/a	LOCK	2	19	[0, 0, 0]	n/a	FR1	0	R1154D
2056.276	1.616	2064768	WORD	n/a	wordpools/wordpool_EN.txt	WHALE	3	19	[0, 0, 0]	n/a	FR1	0	R1154D
2057.892	0.801	2066384	WORD_OFF	n/a	n/a	WHALE	3	19	[0, 0, 0]	n/a	FR1	0	R1154D
2058.693	1.617	2067184	WORD	n/a	wordpools/wordpool_EN.txt	JUDGE	4	19	[0, 0, 0]	n/a	FR1	0	R1154D
2060.31	0.933	2068801	WORD_OFF	n/a	n/a	JUDGE	4	19	[0, 0, 0]	n/a	FR1	0	R1154D
2061.243	1.617	2069734	WORD	n/a	wordpools/wordpool_EN.txt	KEY	5	19	[0, 0, 0]	n/a	FR1	0	R1154D
2062.86	0.867	2071351	WORD_OFF	n/a	n/a	KEY	5	19	[0, 0, 0]	n/a	FR1	0	R1154D
2063.727	1.617	2072218	WORD	n/a	wordpools/wordpool_EN.txt	HORN	6	19	[0, 0, 0]	n/a	FR1	0	R1154D
2065.344	0.933	2073835	WORD_OFF	n/a	n/a	HORN	6	19	[0, 0, 0]	n/a	FR1	0	R1154D
2066.277	1.617	2074768	WORD	n/a	wordpools/wordpool_EN.txt	LIP	7	19	[0, 0, 0]	n/a	FR1	0	R1154D
2067.894	0.784	2076385	WORD_OFF	n/a	n/a	LIP	7	19	[0, 0, 0]	n/a	FR1	0	R1154D
2068.678	1.617	2077169	WORD	n/a	wordpools/wordpool_EN.txt	LAWN	8	19	[0, 0, 0]	n/a	FR1	0	R1154D
2070.295	0.95	2078786	WORD_OFF	n/a	n/a	LAWN	8	19	[0, 0, 0]	n/a	FR1	0	R1154D
2071.245	1.617	2079736	WORD	n/a	wordpools/wordpool_EN.txt	TOE	9	19	[0, 0, 0]	n/a	FR1	0	R1154D
2072.862	0.85	2081353	WORD_OFF	n/a	n/a	TOE	9	19	[0, 0, 0]	n/a	FR1	0	R1154D
2073.712	1.617	2082203	WORD	n/a	wordpools/wordpool_EN.txt	PEAR	10	19	[0, 0, 0]	n/a	FR1	0	R1154D
2075.329	0.785	2083820	WORD_OFF	n/a	n/a	PEAR	10	19	[0, 0, 0]	n/a	FR1	0	R1154D
2076.114	1.615	2084605	WORD	n/a	wordpools/wordpool_EN.txt	AXE	11	19	[0, 0, 0]	n/a	FR1	0	R1154D
2077.729	0.984	2086219	WORD_OFF	n/a	n/a	AXE	11	19	[0, 0, 0]	n/a	FR1	0	R1154D
2078.713	1.617	2087203	WORD	n/a	wordpools/wordpool_EN.txt	PARK	12	19	[0, 0, 0]	n/a	FR1	0	R1154D
2080.33	0.0	2088820	WORD_OFF	n/a	n/a	PARK	12	19	[0, 0, 0]	n/a	FR1	0	R1154D
2080.33	0.0	2088820	DISTRACT_START	n/a	n/a	n/a	-999	19	[0, 0, 0]	n/a	FR1	0	R1154D
2080.33	0.017	2088820	START	n/a	n/a	n/a	-999	19	[-999, -999, -999]	n/a	FR1	0	R1154D
2080.347	3.917	2088837	PROB	3.917	n/a	n/a	-999	19	[3, 3, 4]	10	FR1	0	R1154D
2084.264	4.384	2092754	PROB	4.384	n/a	n/a	-999	19	[5, 8, 3]	16	FR1	0	R1154D
2088.648	3.017	2097138	PROB	3.017	n/a	n/a	-999	19	[3, 4, 9]	16	FR1	0	R1154D
2091.665	2.801	2100155	PROB	2.801	n/a	n/a	-999	19	[7, 2, 6]	15	FR1	0	R1154D
2094.466	3.602	2102956	PROB	3.602	n/a	n/a	-999	19	[7, 8, 3]	18	FR1	0	R1154D
2098.068	2.882	2106557	PROB	2.882	n/a	n/a	-999	19	[5, 6, 6]	17	FR1	0	R1154D
2100.95	0.017	2109439	STOP	n/a	n/a	n/a	-999	19	[-999, -999, -999]	n/a	FR1	0	R1154D
2100.967	0.65	2109456	DISTRACT_END	n/a	n/a	n/a	-999	19	[0, 0, 0]	n/a	FR1	0	R1154D
2101.617	0.519	2110106	RETRIEVAL_ORIENT	n/a	n/a	n/a	-999	19	[0, 0, 0]	n/a	FR1	0	R1154D
2102.136	0.651	2110625	REC_START	n/a	n/a	n/a	-999	19	[0, 0, 0]	n/a	FR1	0	R1154D
2102.787	6.854	2111276	REC_WORD	6.854	n/a	TOE	-999	19	[0, 0, 0]	n/a	FR1	0	R1154D
2109.641	1.54	2118130	REC_WORD	1.54	n/a	JUDGE	-999	19	[0, 0, 0]	n/a	FR1	0	R1154D
2111.181	3.267	2119670	REC_WORD	3.267	n/a	TREE	-999	19	[0, 0, 0]	n/a	FR1	0	R1154D
2114.448	0.09	2122937	REC_WORD_VV	0.09	n/a	<>	-999	19	[0, 0, 0]	n/a	FR1	0	R1154D
2114.538	5.444	2123027	REC_WORD	5.444	n/a	LIP	-999	19	[0, 0, 0]	n/a	FR1	0	R1154D
2119.982	1.0	2128470	REC_WORD_VV	1.0	n/a	<>	-999	19	[0, 0, 0]	n/a	FR1	0	R1154D
2120.982	11.167	2129470	REC_WORD_VV	11.167	n/a	<>	-999	19	[0, 0, 0]	n/a	FR1	0	R1154D
2132.149	8.893	2140637	REC_END	n/a	n/a	n/a	-999	19	[0, 0, 0]	n/a	FR1	0	R1154D
2141.042	0.5	2149529	TRIAL	n/a	n/a	n/a	-999	20	[0, 0, 0]	n/a	FR1	0	R1154D
2141.542	10.428	2150029	COUNTDOWN_START	n/a	n/a	n/a	-999	20	[0, 0, 0]	n/a	FR1	0	R1154D
2151.97	0.006	2160457	COUNTDOWN_END	n/a	n/a	n/a	-999	20	[0, 0, 0]	n/a	FR1	0	R1154D
2151.976	1.617	2160463	ORIENT	n/a	n/a	n/a	-999	20	[0, 0, 0]	n/a	FR1	0	R1154D
2153.593	2.051	2162079	ORIENT_OFF	n/a	n/a	n/a	-999	20	[0, 0, 0]	n/a	FR1	0	R1154D
2155.644	1.617	2164130	WORD	n/a	wordpools/wordpool_EN.txt	STOVE	1	20	[0, 0, 0]	n/a	FR1	0	R1154D
2157.261	0.917	2165747	WORD_OFF	n/a	n/a	STOVE	1	20	[0, 0, 0]	n/a	FR1	0	R1154D
2158.178	1.616	2166664	WORD	n/a	wordpools/wordpool_EN.txt	BAG	2	20	[0, 0, 0]	n/a	FR1	0	R1154D
2159.794	0.917	2168280	WORD_OFF	n/a	n/a	BAG	2	20	[0, 0, 0]	n/a	FR1	0	R1154D
2160.711	1.617	2169197	WORD	n/a	wordpools/wordpool_EN.txt	PURSE	3	20	[0, 0, 0]	n/a	FR1	0	R1154D
2162.328	0.768	2170814	WORD_OFF	n/a	n/a	PURSE	3	20	[0, 0, 0]	n/a	FR1	0	R1154D
2163.096	1.616	2171582	WORD	n/a	wordpools/wordpool_EN.txt	LEG	4	20	[0, 0, 0]	n/a	FR1	0	R1154D
2164.712	0.9	2173198	WORD_OFF	n/a	n/a	LEG	4	20	[0, 0, 0]	n/a	FR1	0	R1154D
2165.612	1.617	2174098	WORD	n/a	wordpools/wordpool_EN.txt	CANE	5	20	[0, 0, 0]	n/a	FR1	0	R1154D
2167.229	0.818	2175715	WORD_OFF	n/a	n/a	CANE	5	20	[0, 0, 0]	n/a	FR1	0	R1154D
2168.047	1.616	2176533	WORD	n/a	wordpools/wordpool_EN.txt	MAT	6	20	[0, 0, 0]	n/a	FR1	0	R1154D
2169.663	0.85	2178149	WORD_OFF	n/a	n/a	MAT	6	20	[0, 0, 0]	n/a	FR1	0	R1154D
2170.513	1.618	2178999	WORD	n/a	wordpools/wordpool_EN.txt	NOSE	7	20	[0, 0, 0]	n/a	FR1	0	R1154D
2172.131	0.849	2180616	WORD_OFF	n/a	n/a	NOSE	7	20	[0, 0, 0]	n/a	FR1	0	R1154D
2172.98	1.617	2181465	WORD	n/a	wordpools/wordpool_EN.txt	CUBE	8	20	[0, 0, 0]	n/a	FR1	0	R1154D
2174.597	0.8	2183082	WORD_OFF	n/a	n/a	CUBE	8	20	[0, 0, 0]	n/a	FR1	0	R1154D
2175.397	1.617	2183882	WORD	n/a	wordpools/wordpool_EN.txt	SPOON	9	20	[0, 0, 0]	n/a	FR1	0	R1154D
2177.014	0.9	2185499	WORD_OFF	n/a	n/a	SPOON	9	20	[0, 0, 0]	n/a	FR1	0	R1154D
2177.914	1.617	2186399	WORD	n/a	wordpools/wordpool_EN.txt	TRAY	10	20	[0, 0, 0]	n/a	FR1	0	R1154D
2179.531	0.884	2188016	WORD_OFF	n/a	n/a	TRAY	10	20	[0, 0, 0]	n/a	FR1	0	R1154D
2180.415	1.617	2188900	WORD	n/a	wordpools/wordpool_EN.txt	DOLL	11	20	[0, 0, 0]	n/a	FR1	0	R1154D
2182.032	0.817	2190517	WORD_OFF	n/a	n/a	DOLL	11	20	[0, 0, 0]	n/a	FR1	0	R1154D
2182.849	1.617	2191334	WORD	n/a	wordpools/wordpool_EN.txt	SEAT	12	20	[0, 0, 0]	n/a	FR1	0	R1154D
2184.466	0.0	2192951	WORD_OFF	n/a	n/a	SEAT	12	20	[0, 0, 0]	n/a	FR1	0	R1154D
2184.466	0.0	2192951	DISTRACT_START	n/a	n/a	n/a	-999	20	[0, 0, 0]	n/a	FR1	0	R1154D
2184.466	0.016	2192951	START	n/a	n/a	n/a	-999	20	[-999, -999, -999]	n/a	FR1	0	R1154D
2184.482	3.669	2192967	PROB	3.669	n/a	n/a	-999	20	[4, 8, 7]	19	FR1	0	R1154D
2188.151	5.033	2196636	PROB	5.033	n/a	n/a	-999	20	[6, 4, 6]	16	FR1	0	R1154D
2193.184	2.985	2201668	PROB	2.985	n/a	n/a	-999	20	[2, 7, 4]	13	FR1	0	R1154D
2196.169	3.399	2204653	PROB	3.399	n/a	n/a	-999	20	[6, 7, 6]	19	FR1	0	R1154D
2199.568	3.134	2208052	PROB	3.134	n/a	n/a	-999	20	[9, 1, 7]	17	FR1	0	R1154D
2202.702	3.465	2211186	PROB	3.465	n/a	n/a	-999	20	[3, 9, 8]	20	FR1	0	R1154D
2206.167	0.019	2214651	STOP	n/a	n/a	n/a	-999	20	[-999, -999, -999]	n/a	FR1	0	R1154D
2206.186	0.6	2214670	DISTRACT_END	n/a	n/a	n/a	-999	20	[0, 0, 0]	n/a	FR1	0	R1154D
2206.786	0.518	2215270	RETRIEVAL_ORIENT	n/a	n/a	n/a	-999	20	[0, 0, 0]	n/a	FR1	0	R1154D
2207.304	2.603	2215788	REC_START	n/a	n/a	n/a	-999	20	[0, 0, 0]	n/a	FR1	0	R1154D
2209.907	1.961	2218390	REC_WORD_VV	1.961	n/a	<>	-999	20	[0, 0, 0]	n/a	FR1	0	R1154D
2211.868	1.495	2220351	REC_WORD	1.495	n/a	SPOON	-999	20	[0, 0, 0]	n/a	FR1	0	R1154D
2213.363	7.747	2221846	REC_WORD	7.747	n/a	STOVE	-999	20	[0, 0, 0]	n/a	FR1	0	R1154D
2221.11	4.993	2229593	REC_WORD	4.993	n/a	PURSE	-999	20	[0, 0, 0]	n/a	FR1	0	R1154D
2226.103	1.0	2234586	REC_WORD_VV	1.0	n/a	<>	-999	20	[0, 0, 0]	n/a	FR1	0	R1154D
2227.103	10.214	2235586	REC_WORD_VV	10.214	n/a	<>	-999	20	[0, 0, 0]	n/a	FR1	0	R1154D
2237.317	4.059	2245799	REC_END	n/a	n/a	n/a	-999	20	[0, 0, 0]	n/a	FR1	0	R1154D
2241.376	0.5	2249858	TRIAL	n/a	n/a	n/a	-999	21	[0, 0, 0]	n/a	FR1	0	R1154D
2241.876	10.428	2250358	COUNTDOWN_START	n/a	n/a	n/a	-999	21	[0, 0, 0]	n/a	FR1	0	R1154D
2252.304	0.007	2260785	COUNTDOWN_END	n/a	n/a	n/a	-999	21	[0, 0, 0]	n/a	FR1	0	R1154D
2252.311	1.617	2260792	ORIENT	n/a	n/a	n/a	-999	21	[0, 0, 0]	n/a	FR1	0	R1154D
2253.928	2.202	2262409	ORIENT_OFF	n/a	n/a	n/a	-999	21	[0, 0, 0]	n/a	FR1	0	R1154D
2256.13	1.616	2264611	WORD	n/a	wordpools/wordpool_EN.txt	WOOD	1	21	[0, 0, 0]	n/a	FR1	0	R1154D
2257.746	0.8	2266227	WORD_OFF	n/a	n/a	WOOD	1	21	[0, 0, 0]	n/a	FR1	0	R1154D
2258.546	1.618	2267027	WORD	n/a	wordpools/wordpool_EN.txt	BRICK	2	21	[0, 0, 0]	n/a	FR1	0	R1154D
2260.164	1.0	2268645	WORD_OFF	n/a	n/a	BRICK	2	21	[0, 0, 0]	n/a	FR1	0	R1154D
2261.164	1.616	2269645	WORD	n/a	wordpools/wordpool_EN.txt	CLAY	3	21	[0, 0, 0]	n/a	FR1	0	R1154D
2262.78	0.784	2271261	WORD_OFF	n/a	n/a	CLAY	3	21	[0, 0, 0]	n/a	FR1	0	R1154D
2263.564	1.616	2272045	WORD	n/a	wordpools/wordpool_EN.txt	TANK	4	21	[0, 0, 0]	n/a	FR1	0	R1154D
2265.18	0.767	2273660	WORD_OFF	n/a	n/a	TANK	4	21	[0, 0, 0]	n/a	FR1	0	R1154D
2265.947	1.617	2274427	WORD	n/a	wordpools/wordpool_EN.txt	CLOTH	5	21	[0, 0, 0]	n/a	FR1	0	R1154D
2267.564	0.934	2276044	WORD_OFF	n/a	n/a	CLOTH	5	21	[0, 0, 0]	n/a	FR1	0	R1154D
2268.498	1.618	2276978	WORD	n/a	wordpools/wordpool_EN.txt	WORLD	6	21	[0, 0, 0]	n/a	FR1	0	R1154D
2270.116	0.782	2278596	WORD_OFF	n/a	n/a	WORLD	6	21	[0, 0, 0]	n/a	FR1	0	R1154D
2270.898	1.617	2279378	WORD	n/a	wordpools/wordpool_EN.txt	RICE	7	21	[0, 0, 0]	n/a	FR1	0	R1154D
2272.515	0.934	2280995	WORD_OFF	n/a	n/a	RICE	7	21	[0, 0, 0]	n/a	FR1	0	R1154D
2273.449	1.618	2281929	WORD	n/a	wordpools/wordpool_EN.txt	ROCK	8	21	[0, 0, 0]	n/a	FR1	0	R1154D
2275.067	0.849	2283547	WORD_OFF	n/a	n/a	ROCK	8	21	[0, 0, 0]	n/a	FR1	0	R1154D
2275.916	1.617	2284396	WORD	n/a	wordpools/wordpool_EN.txt	SOAP	9	21	[0, 0, 0]	n/a	FR1	0	R1154D
2277.533	0.983	2286013	WORD_OFF	n/a	n/a	SOAP	9	21	[0, 0, 0]	n/a	FR1	0	R1154D
2278.516	1.618	2286996	WORD	n/a	wordpools/wordpool_EN.txt	FRUIT	10	21	[0, 0, 0]	n/a	FR1	0	R1154D
2280.134	0.934	2288614	WORD_OFF	n/a	n/a	FRUIT	10	21	[0, 0, 0]	n/a	FR1	0	R1154D
2281.068	1.616	2289548	WORD	n/a	wordpools/wordpool_EN.txt	SEED	11	21	[0, 0, 0]	n/a	FR1	0	R1154D
2282.684	0.883	2291164	WORD_OFF	n/a	n/a	SEED	11	21	[0, 0, 0]	n/a	FR1	0	R1154D
2283.567	1.617	2292047	WORD	n/a	wordpools/wordpool_EN.txt	HOSE	12	21	[0, 0, 0]	n/a	FR1	0	R1154D
2285.184	0.0	2293663	WORD_OFF	n/a	n/a	HOSE	12	21	[0, 0, 0]	n/a	FR1	0	R1154D
2285.184	0.001	2293663	DISTRACT_START	n/a	n/a	n/a	-999	21	[0, 0, 0]	n/a	FR1	0	R1154D
2285.185	0.016	2293664	START	n/a	n/a	n/a	-999	21	[-999, -999, -999]	n/a	FR1	0	R1154D
2285.201	3.234	2293680	PROB	3.234	n/a	n/a	-999	21	[1, 1, 7]	9	FR1	0	R1154D
2288.435	3.55	2296914	PROB	3.55	n/a	n/a	-999	21	[4, 8, 7]	19	FR1	0	R1154D
2291.985	2.351	2300464	PROB	2.351	n/a	n/a	-999	21	[7, 7, 1]	15	FR1	0	R1154D
2294.336	3.934	2302815	PROB	3.934	n/a	n/a	-999	21	[6, 7, 4]	17	FR1	0	R1154D
2298.27	3.601	2306749	PROB	3.601	n/a	n/a	-999	21	[6, 8, 6]	20	FR1	0	R1154D
2301.871	2.367	2310350	PROB	2.367	n/a	n/a	-999	21	[1, 9, 9]	19	FR1	0	R1154D
2304.238	4.737	2312716	PROB	4.737	n/a	n/a	-999	21	[5, 9, 8]	22	FR1	0	R1154D
2308.975	0.013	2317453	STOP	n/a	n/a	n/a	-999	21	[-999, -999, -999]	n/a	FR1	0	R1154D
2308.988	0.551	2317466	DISTRACT_END	n/a	n/a	n/a	-999	21	[0, 0, 0]	n/a	FR1	0	R1154D
2309.539	0.518	2318017	RETRIEVAL_ORIENT	n/a	n/a	n/a	-999	21	[0, 0, 0]	n/a	FR1	0	R1154D
2310.057	0.371	2318535	REC_START	n/a	n/a	n/a	-999	21	[0, 0, 0]	n/a	FR1	0	R1154D
2310.428	0.705	2318906	REC_WORD_VV	0.705	n/a	<>	-999	21	[0, 0, 0]	n/a	FR1	0	R1154D
2311.133	0.624	2319611	REC_WORD_VV	0.624	n/a	<>	-999	21	[0, 0, 0]	n/a	FR1	0	R1154D
2311.757	0.69	2320235	REC_WORD	0.69	n/a	WOOD	-999	21	[0, 0, 0]	n/a	FR1	0	R1154D
2312.447	0.996	2320925	REC_WORD	0.996	n/a	CLAY	-999	21	[0, 0, 0]	n/a	FR1	0	R1154D
2313.443	2.656	2321921	REC_WORD	2.656	n/a	BRICK	-999	21	[0, 0, 0]	n/a	FR1	0	R1154D
2316.099	14.182	2324577	REC_WORD	14.182	n/a	FRUIT	-999	21	[0, 0, 0]	n/a	FR1	0	R1154D
2330.281	0.94	2338758	REC_WORD_VV	0.94	n/a	<>	-999	21	[0, 0, 0]	n/a	FR1	0	R1154D
2331.221	1.0	2339698	REC_WORD_VV	1.0	n/a	<>	-999	21	[0, 0, 0]	n/a	FR1	0	R1154D
2332.221	7.849	2340698	REC_WORD_VV	7.849	n/a	<>	-999	21	[0, 0, 0]	n/a	FR1	0	R1154D
2340.07	4.875	2348547	REC_END	n/a	n/a	n/a	-999	21	[0, 0, 0]	n/a	FR1	0	R1154D
2344.945	0.5	2353421	TRIAL	n/a	n/a	n/a	-999	22	[0, 0, 0]	n/a	FR1	0	R1154D
2345.445	10.428	2353921	COUNTDOWN_START	n/a	n/a	n/a	-999	22	[0, 0, 0]	n/a	FR1	0	R1154D
2355.873	0.007	2364349	COUNTDOWN_END	n/a	n/a	n/a	-999	22	[0, 0, 0]	n/a	FR1	0	R1154D
2355.88	1.617	2364356	ORIENT	n/a	n/a	n/a	-999	22	[0, 0, 0]	n/a	FR1	0	R1154D
2357.497	2.034	2365973	ORIENT_OFF	n/a	n/a	n/a	-999	22	[0, 0, 0]	n/a	FR1	0	R1154D
2359.531	1.601	2368006	WORD	n/a	wordpools/wordpool_EN.txt	BAND	1	22	[0, 0, 0]	n/a	FR1	0	R1154D
2361.132	0.833	2369607	WORD_OFF	n/a	n/a	BAND	1	22	[0, 0, 0]	n/a	FR1	0	R1154D
2361.965	1.617	2370440	WORD	n/a	wordpools/wordpool_EN.txt	SEAL	2	22	[0, 0, 0]	n/a	FR1	0	R1154D
2363.582	0.867	2372057	WORD_OFF	n/a	n/a	SEAL	2	22	[0, 0, 0]	n/a	FR1	0	R1154D
2364.449	1.618	2372924	WORD	n/a	wordpools/wordpool_EN.txt	SQUARE	3	22	[0, 0, 0]	n/a	FR1	0	R1154D
2366.067	0.983	2374542	WORD_OFF	n/a	n/a	SQUARE	3	22	[0, 0, 0]	n/a	FR1	0	R1154D
2367.05	1.616	2375525	WORD	n/a	wordpools/wordpool_EN.txt	CHALK	4	22	[0, 0, 0]	n/a	FR1	0	R1154D
2368.666	0.8	2377141	WORD_OFF	n/a	n/a	CHALK	4	22	[0, 0, 0]	n/a	FR1	0	R1154D
2369.466	1.601	2377941	WORD	n/a	wordpools/wordpool_EN.txt	TOOL	5	22	[0, 0, 0]	n/a	FR1	0	R1154D
2371.067	0.883	2379542	WORD_OFF	n/a	n/a	TOOL	5	22	[0, 0, 0]	n/a	FR1	0	R1154D
2371.95	1.617	2380425	WORD	n/a	wordpools/wordpool_EN.txt	YARD	6	22	[0, 0, 0]	n/a	FR1	0	R1154D
2373.567	0.85	2382042	WORD_OFF	n/a	n/a	YARD	6	22	[0, 0, 0]	n/a	FR1	0	R1154D
2374.417	1.617	2382892	WORD	n/a	wordpools/wordpool_EN.txt	RIB	7	22	[0, 0, 0]	n/a	FR1	0	R1154D
2376.034	0.784	2384509	WORD_OFF	n/a	n/a	RIB	7	22	[0, 0, 0]	n/a	FR1	0	R1154D
2376.818	1.616	2385293	WORD	n/a	wordpools/wordpool_EN.txt	CRANE	8	22	[0, 0, 0]	n/a	FR1	0	R1154D
2378.434	0.834	2386908	WORD_OFF	n/a	n/a	CRANE	8	22	[0, 0, 0]	n/a	FR1	0	R1154D
2379.268	1.617	2387742	WORD	n/a	wordpools/wordpool_EN.txt	HOLE	9	22	[0, 0, 0]	n/a	FR1	0	R1154D
2380.885	0.834	2389359	WORD_OFF	n/a	n/a	HOLE	9	22	[0, 0, 0]	n/a	FR1	0	R1154D
2381.719	1.616	2390193	WORD	n/a	wordpools/wordpool_EN.txt	WORM	10	22	[0, 0, 0]	n/a	FR1	0	R1154D
2383.335	0.934	2391809	WORD_OFF	n/a	n/a	WORM	10	22	[0, 0, 0]	n/a	FR1	0	R1154D
2384.269	1.617	2392743	WORD	n/a	wordpools/wordpool_EN.txt	FUR	11	22	[0, 0, 0]	n/a	FR1	0	R1154D
2385.886	0.783	2394360	WORD_OFF	n/a	n/a	FUR	11	22	[0, 0, 0]	n/a	FR1	0	R1154D
2386.669	1.617	2395143	WORD	n/a	wordpools/wordpool_EN.txt	THREAD	12	22	[0, 0, 0]	n/a	FR1	0	R1154D
2388.286	0.0	2396760	WORD_OFF	n/a	n/a	THREAD	12	22	[0, 0, 0]	n/a	FR1	0	R1154D
2388.286	0.001	2396760	DISTRACT_START	n/a	n/a	n/a	-999	22	[0, 0, 0]	n/a	FR1	0	R1154D
2388.287	0.016	2396761	START	n/a	n/a	n/a	-999	22	[-999, -999, -999]	n/a	FR1	0	R1154D
2388.303	2.752	2396777	PROB	2.752	n/a	n/a	-999	22	[6, 2, 3]	11	FR1	0	R1154D
2391.055	2.799	2399529	PROB	2.799	n/a	n/a	-999	22	[2, 9, 6]	17	FR1	0	R1154D
2393.854	3.651	2402328	PROB	3.651	n/a	n/a	-999	22	[2, 7, 9]	18	FR1	0	R1154D
2397.505	2.7	2405978	PROB	2.7	n/a	n/a	-999	22	[6, 7, 6]	19	FR1	0	R1154D
2400.205	4.684	2408678	PROB	4.684	n/a	n/a	-999	22	[8, 5, 1]	14	FR1	0	R1154D
2404.889	3.169	2413362	PROB	3.169	n/a	n/a	-999	22	[4, 9, 7]	20	FR1	0	R1154D
2408.058	2.749	2416531	PROB	2.749	n/a	n/a	-999	22	[1, 6, 3]	10	FR1	0	R1154D
2410.807	0.017	2419280	STOP	n/a	n/a	n/a	-999	22	[-999, -999, -999]	n/a	FR1	0	R1154D
2410.824	0.6	2419297	DISTRACT_END	n/a	n/a	n/a	-999	22	[0, 0, 0]	n/a	FR1	0	R1154D
2411.424	0.517	2419897	RETRIEVAL_ORIENT	n/a	n/a	n/a	-999	22	[0, 0, 0]	n/a	FR1	0	R1154D
2411.941	0.924	2420414	REC_START	n/a	n/a	n/a	-999	22	[0, 0, 0]	n/a	FR1	0	R1154D
2412.865	1.508	2421338	REC_WORD	1.508	n/a	CRANE	-999	22	[0, 0, 0]	n/a	FR1	0	R1154D
2414.373	6.769	2422846	REC_WORD	6.769	n/a	HOLE	-999	22	[0, 0, 0]	n/a	FR1	0	R1154D
2421.142	20.81	2429614	REC_WORD	20.81	n/a	SHED	-999	22	[0, 0, 0]	n/a	FR1	0	R1154D
2441.952	4.096	2450423	REC_END	n/a	n/a	n/a	-999	22	[0, 0, 0]	n/a	FR1	0	R1154D
2446.048	0.5	2454519	TRIAL	n/a	n/a	n/a	-999	23	[0, 0, 0]	n/a	FR1	0	R1154D
2446.548	10.428	2455019	COUNTDOWN_START	n/a	n/a	n/a	-999	23	[0, 0, 0]	n/a	FR1	0	R1154D
2456.976	0.006	2465446	COUNTDOWN_END	n/a	n/a	n/a	-999	23	[0, 0, 0]	n/a	FR1	0	R1154D
2456.982	1.617	2465452	ORIENT	n/a	n/a	n/a	-999	23	[0, 0, 0]	n/a	FR1	0	R1154D
2458.599	2.084	2467069	ORIENT_OFF	n/a	n/a	n/a	-999	23	[0, 0, 0]	n/a	FR1	0	R1154D
2460.683	1.617	2469153	WORD	n/a	wordpools/wordpool_EN.txt	ANT	1	23	[0, 0, 0]	n/a	FR1	0	R1154D
2462.3	0.801	2470770	WORD_OFF	n/a	n/a	ANT	1	23	[0, 0, 0]	n/a	FR1	0	R1154D
2463.101	1.616	2471571	WORD	n/a	wordpools/wordpool_EN.txt	WING	2	23	[0, 0, 0]	n/a	FR1	0	R1154D
2464.717	0.8	2473187	WORD_OFF	n/a	n/a	WING	2	23	[0, 0, 0]	n/a	FR1	0	R1154D
2465.517	1.618	2473987	WORD	n/a	wordpools/wordpool_EN.txt	ROOT	3	23	[0, 0, 0]	n/a	FR1	0	R1154D
2467.135	0.883	2475605	WORD_OFF	n/a	n/a	ROOT	3	23	[0, 0, 0]	n/a	FR1	0	R1154D
2468.018	1.617	2476488	WORD	n/a	wordpools/wordpool_EN.txt	BED	4	23	[0, 0, 0]	n/a	FR1	0	R1154D
2469.635	0.95	2478105	WORD_OFF	n/a	n/a	BED	4	23	[0, 0, 0]	n/a	FR1	0	R1154D
2470.585	1.617	2479055	WORD	n/a	wordpools/wordpool_EN.txt	STEM	5	23	[0, 0, 0]	n/a	FR1	0	R1154D
2472.202	1.0	2480671	WORD_OFF	n/a	n/a	STEM	5	23	[0, 0, 0]	n/a	FR1	0	R1154D
2473.202	1.617	2481671	WORD	n/a	wordpools/wordpool_EN.txt	CLIFF	6	23	[0, 0, 0]	n/a	FR1	0	R1154D
2474.819	0.833	2483288	WORD_OFF	n/a	n/a	CLIFF	6	23	[0, 0, 0]	n/a	FR1	0	R1154D
2475.652	1.617	2484121	WORD	n/a	wordpools/wordpool_EN.txt	ROOM	7	23	[0, 0, 0]	n/a	FR1	0	R1154D
2477.269	0.917	2485738	WORD_OFF	n/a	n/a	ROOM	7	23	[0, 0, 0]	n/a	FR1	0	R1154D
2478.186	1.617	2486655	WORD	n/a	wordpools/wordpool_EN.txt	OAK	8	23	[0, 0, 0]	n/a	FR1	0	R1154D
2479.803	0.9	2488272	WORD_OFF	n/a	n/a	OAK	8	23	[0, 0, 0]	n/a	FR1	0	R1154D
2480.703	1.617	2489172	WORD	n/a	wordpools/wordpool_EN.txt	SLUSH	9	23	[0, 0, 0]	n/a	FR1	0	R1154D
2482.32	0.851	2490789	WORD_OFF	n/a	n/a	SLUSH	9	23	[0, 0, 0]	n/a	FR1	0	R1154D
2483.171	1.616	2491640	WORD	n/a	wordpools/wordpool_EN.txt	LEAF	10	23	[0, 0, 0]	n/a	FR1	0	R1154D
2484.787	0.767	2493256	WORD_OFF	n/a	n/a	LEAF	10	23	[0, 0, 0]	n/a	FR1	0	R1154D
2485.554	1.618	2494023	WORD	n/a	wordpools/wordpool_EN.txt	FLOOR	11	23	[0, 0, 0]	n/a	FR1	0	R1154D
2487.172	0.884	2495641	WORD_OFF	n/a	n/a	FLOOR	11	23	[0, 0, 0]	n/a	FR1	0	R1154D
2488.056	1.616	2496525	WORD	n/a	wordpools/wordpool_EN.txt	HAWK	12	23	[0, 0, 0]	n/a	FR1	0	R1154D
2489.672	0.0	2498141	WORD_OFF	n/a	n/a	HAWK	12	23	[0, 0, 0]	n/a	FR1	0	R1154D
2489.672	0.0	2498141	DISTRACT_START	n/a	n/a	n/a	-999	23	[0, 0, 0]	n/a	FR1	0	R1154D
2489.672	0.016	2498141	START	n/a	n/a	n/a	-999	23	[-999, -999, -999]	n/a	FR1	0	R1154D
2489.688	2.667	2498157	PROB	2.667	n/a	n/a	-999	23	[3, 5, 5]	13	FR1	0	R1154D
2492.355	2.501	2500823	PROB	2.501	n/a	n/a	-999	23	[6, 5, 6]	17	FR1	0	R1154D
2494.856	2.934	2503324	PROB	2.934	n/a	n/a	-999	23	[4, 1, 6]	11	FR1	0	R1154D
2497.79	3.534	2506258	PROB	3.534	n/a	n/a	-999	23	[7, 9, 8]	24	FR1	0	R1154D
2501.324	4.667	2509792	PROB	4.667	n/a	n/a	-999	23	[8, 8, 7]	23	FR1	0	R1154D
2505.991	2.784	2514459	PROB	2.784	n/a	n/a	-999	23	[9, 6, 4]	19	FR1	0	R1154D
2508.775	3.913	2517243	PROB	3.913	n/a	n/a	-999	23	[9, 7, 6]	22	FR1	0	R1154D
2512.688	0.021	2521155	STOP	n/a	n/a	n/a	-999	23	[-999, -999, -999]	n/a	FR1	0	R1154D
2512.709	0.7	2521176	DISTRACT_END	n/a	n/a	n/a	-999	23	[0, 0, 0]	n/a	FR1	0	R1154D
2513.409	0.518	2521876	RETRIEVAL_ORIENT	n/a	n/a	n/a	-999	23	[0, 0, 0]	n/a	FR1	0	R1154D
2513.927	0.426	2522394	REC_START	n/a	n/a	n/a	-999	23	[0, 0, 0]	n/a	FR1	0	R1154D
2514.353	0.842	2522820	REC_WORD	0.842	n/a	HAWK	-999	23	[0, 0, 0]	n/a	FR1	0	R1154D
2515.195	0.497	2523662	REC_WORD_VV	0.497	n/a	<>	-999	23	[0, 0, 0]	n/a	FR1	0	R1154D
2515.692	1.231	2524159	REC_WORD	1.231	n/a	HAWK	-999	23	[0, 0, 0]	n/a	FR1	0	R1154D
2516.923	9.162	2525390	REC_WORD_VV	9.162	n/a	<>	-999	23	[0, 0, 0]	n/a	FR1	0	R1154D
2526.085	0.301	2534552	REC_WORD_VV	0.301	n/a	<>	-999	23	[0, 0, 0]	n/a	FR1	0	R1154D
2526.386	8.285	2534853	REC_WORD	8.285	n/a	ROOM	-999	23	[0, 0, 0]	n/a	FR1	0	R1154D
2534.671	9.268	2543137	REC_WORD_VV	9.268	n/a	<>	-999	23	[0, 0, 0]	n/a	FR1	0	R1154D
2543.939	4.377	2552405	REC_END	n/a	n/a	n/a	-999	23	[0, 0, 0]	n/a	FR1	0	R1154D
2548.316	0.5	2556781	TRIAL	n/a	n/a	n/a	-999	24	[0, 0, 0]	n/a	FR1	0	R1154D
2548.816	10.428	2557281	COUNTDOWN_START	n/a	n/a	n/a	-999	24	[0, 0, 0]	n/a	FR1	0	R1154D
2559.244	0.007	2567709	COUNTDOWN_END	n/a	n/a	n/a	-999	24	[0, 0, 0]	n/a	FR1	0	R1154D
2559.251	1.617	2567716	ORIENT	n/a	n/a	n/a	-999	24	[0, 0, 0]	n/a	FR1	0	R1154D
2560.868	2.35	2569333	ORIENT_OFF	n/a	n/a	n/a	-999	24	[0, 0, 0]	n/a	FR1	0	R1154D
2563.218	1.617	2571683	WORD	n/a	wordpools/wordpool_EN.txt	GOAT	1	24	[0, 0, 0]	n/a	FR1	0	R1154D
2564.835	0.8	2573300	WORD_OFF	n/a	n/a	GOAT	1	24	[0, 0, 0]	n/a	FR1	0	R1154D
2565.635	1.617	2574100	WORD	n/a	wordpools/wordpool_EN.txt	ROPE	2	24	[0, 0, 0]	n/a	FR1	0	R1154D
2567.252	0.918	2575716	WORD_OFF	n/a	n/a	ROPE	2	24	[0, 0, 0]	n/a	FR1	0	R1154D
2568.17	1.616	2576634	WORD	n/a	wordpools/wordpool_EN.txt	SWAMP	3	24	[0, 0, 0]	n/a	FR1	0	R1154D
2569.786	0.967	2578250	WORD_OFF	n/a	n/a	SWAMP	3	24	[0, 0, 0]	n/a	FR1	0	R1154D
2570.753	1.617	2579217	WORD	n/a	wordpools/wordpool_EN.txt	CONE	4	24	[0, 0, 0]	n/a	FR1	0	R1154D
2572.37	0.768	2580834	WORD_OFF	n/a	n/a	CONE	4	24	[0, 0, 0]	n/a	FR1	0	R1154D
2573.138	1.616	2581602	WORD	n/a	wordpools/wordpool_EN.txt	BRIDGE	5	24	[0, 0, 0]	n/a	FR1	0	R1154D
2574.754	1.0	2583218	WORD_OFF	n/a	n/a	BRIDGE	5	24	[0, 0, 0]	n/a	FR1	0	R1154D
2575.754	1.617	2584218	WORD	n/a	wordpools/wordpool_EN.txt	RAKE	6	24	[0, 0, 0]	n/a	FR1	0	R1154D
2577.371	0.967	2585835	WORD_OFF	n/a	n/a	RAKE	6	24	[0, 0, 0]	n/a	FR1	0	R1154D
2578.338	1.617	2586802	WORD	n/a	wordpools/wordpool_EN.txt	BEAK	7	24	[0, 0, 0]	n/a	FR1	0	R1154D
2579.955	0.767	2588419	WORD_OFF	n/a	n/a	BEAK	7	24	[0, 0, 0]	n/a	FR1	0	R1154D
2580.722	1.616	2589186	WORD	n/a	wordpools/wordpool_EN.txt	STEAM	8	24	[0, 0, 0]	n/a	FR1	0	R1154D
2582.338	0.785	2590802	WORD_OFF	n/a	n/a	STEAM	8	24	[0, 0, 0]	n/a	FR1	0	R1154D
2583.123	1.616	2591587	WORD	n/a	wordpools/wordpool_EN.txt	LAKE	9	24	[0, 0, 0]	n/a	FR1	0	R1154D
2584.739	1.0	2593203	WORD_OFF	n/a	n/a	LAKE	9	24	[0, 0, 0]	n/a	FR1	0	R1154D
2585.739	1.617	2594202	WORD	n/a	wordpools/wordpool_EN.txt	ROSE	10	24	[0, 0, 0]	n/a	FR1	0	R1154D
2587.356	0.967	2595819	WORD_OFF	n/a	n/a	ROSE	10	24	[0, 0, 0]	n/a	FR1	0	R1154D
2588.323	1.617	2596786	WORD	n/a	wordpools/wordpool_EN.txt	SPEAR	11	24	[0, 0, 0]	n/a	FR1	0	R1154D
