onset	duration	sample	trial_type	response_time	stim_file	item_name	serialpos	list	test	answer	experiment	session	subject
0.0	0.0	9736	INSTRUCT_START	n/a	n/a	n/a	-999	-999	[0, 0, 0]	n/a	FR1	2	R1170J
0.0	10.947	9736	INSTRUCT_END	n/a	n/a	n/a	-999	-999	[0, 0, 0]	n/a	FR1	2	R1170J
10.947	0.0	20683	SESS_START	n/a	n/a	n/a	-999	-999	[0, 0, 0]	n/a	FR1	2	R1170J
10.947	104.023	20683	MIC_TEST	n/a	n/a	n/a	-999	-999	[0, 0, 0]	n/a	FR1	2	R1170J
114.97	13.58	124704	PRACTICE_TRIAL	n/a	n/a	n/a	-999	-1	[0, 0, 0]	n/a	FR1	2	R1170J
128.55	10.428	138284	COUNTDOWN_START	n/a	n/a	n/a	-999	-1	[0, 0, 0]	n/a	FR1	2	R1170J
138.978	0.006	148712	COUNTDOWN_END	n/a	n/a	n/a	-999	-1	[0, 0, 0]	n/a	FR1	2	R1170J
138.984	1.617	148718	PRACTICE_ORIENT	n/a	n/a	n/a	-999	-1	[0, 0, 0]	n/a	FR1	2	R1170J
140.601	2.151	150335	PRACTICE_ORIENT_OFF	n/a	n/a	n/a	-999	-1	[0, 0, 0]	n/a	FR1	2	R1170J
142.752	1.615	152486	PRACTICE_WORD	n/a	n/a	RHINO	1	-1	[0, 0, 0]	n/a	FR1	2	R1170J
144.367	0.852	154101	PRACTICE_WORD_OFF	n/a	n/a	RHINO	-999	-1	[0, 0, 0]	n/a	FR1	2	R1170J
145.219	1.616	154953	PRACTICE_WORD	n/a	n/a	CAMEL	2	-1	[0, 0, 0]	n/a	FR1	2	R1170J
146.835	0.934	156569	PRACTICE_WORD_OFF	n/a	n/a	CAMEL	-999	-1	[0, 0, 0]	n/a	FR1	2	R1170J
147.769	1.616	157503	PRACTICE_WORD	n/a	n/a	TONGUE	3	-1	[0, 0, 0]	n/a	FR1	2	R1170J
149.385	0.801	159119	PRACTICE_WORD_OFF	n/a	n/a	TONGUE	-999	-1	[0, 0, 0]	n/a	FR1	2	R1170J
150.186	1.617	159920	PRACTICE_WORD	n/a	n/a	WATCH	4	-1	[0, 0, 0]	n/a	FR1	2	R1170J
151.803	0.983	161537	PRACTICE_WORD_OFF	n/a	n/a	WATCH	-999	-1	[0, 0, 0]	n/a	FR1	2	R1170J
152.786	1.616	162520	PRACTICE_WORD	n/a	n/a	FLOOD	5	-1	[0, 0, 0]	n/a	FR1	2	R1170J
154.402	0.966	164136	PRACTICE_WORD_OFF	n/a	n/a	FLOOD	-999	-1	[0, 0, 0]	n/a	FR1	2	R1170J
155.368	1.602	165102	PRACTICE_WORD	n/a	n/a	ATTIC	6	-1	[0, 0, 0]	n/a	FR1	2	R1170J
156.97	0.783	166704	PRACTICE_WORD_OFF	n/a	n/a	ATTIC	-999	-1	[0, 0, 0]	n/a	FR1	2	R1170J
157.753	1.616	167487	PRACTICE_WORD	n/a	n/a	WAGON	7	-1	[0, 0, 0]	n/a	FR1	2	R1170J
159.369	0.902	169103	PRACTICE_WORD_OFF	n/a	n/a	WAGON	-999	-1	[0, 0, 0]	n/a	FR1	2	R1170J
160.271	1.617	170005	PRACTICE_WORD	n/a	n/a	IRON	8	-1	[0, 0, 0]	n/a	FR1	2	R1170J
161.888	0.816	171622	PRACTICE_WORD_OFF	n/a	n/a	IRON	-999	-1	[0, 0, 0]	n/a	FR1	2	R1170J
162.704	1.616	172438	PRACTICE_WORD	n/a	n/a	RING	9	-1	[0, 0, 0]	n/a	FR1	2	R1170J
164.32	0.784	174054	PRACTICE_WORD_OFF	n/a	n/a	RING	-999	-1	[0, 0, 0]	n/a	FR1	2	R1170J
165.104	1.617	174838	PRACTICE_WORD	n/a	n/a	CHEST	10	-1	[0, 0, 0]	n/a	FR1	2	R1170J
166.721	1.017	176454	PRACTICE_WORD_OFF	n/a	n/a	CHEST	-999	-1	[0, 0, 0]	n/a	FR1	2	R1170J
167.738	1.616	177471	PRACTICE_WORD	n/a	n/a	COTTON	11	-1	[0, 0, 0]	n/a	FR1	2	R1170J
169.354	0.851	179087	PRACTICE_WORD_OFF	n/a	n/a	COTTON	-999	-1	[0, 0, 0]	n/a	FR1	2	R1170J
170.205	1.617	179938	PRACTICE_WORD	n/a	n/a	BEAM	12	-1	[0, 0, 0]	n/a	FR1	2	R1170J
171.822	0.0	181555	DISTRACT_START	n/a	n/a	n/a	-999	-1	[0, 0, 0]	n/a	FR1	2	R1170J
171.822	0.001	181555	PRACTICE_WORD_OFF	n/a	n/a	BEAM	-999	-1	[0, 0, 0]	n/a	FR1	2	R1170J
171.823	0.016	181556	START	n/a	n/a	n/a	-999	-1	[-999, -999, -999]	n/a	FR1	2	R1170J
171.839	4.95	181572	PROB	4.95	n/a	n/a	-999	-1	[2, 5, 9]	16	FR1	2	R1170J
176.789	2.317	186522	PROB	2.317	n/a	n/a	-999	-1	[5, 5, 1]	11	FR1	2	R1170J
179.106	11.069	188839	PROB	11.069	n/a	n/a	-999	-1	[7, 9, 8]	24	FR1	2	R1170J
190.175	3.65	199908	PROB	3.65	n/a	n/a	-999	-1	[2, 1, 6]	9	FR1	2	R1170J
193.825	0.017	203558	STOP	n/a	n/a	n/a	-999	-1	[-999, -999, -999]	n/a	FR1	2	R1170J
193.842	0.7	203575	DISTRACT_END	n/a	n/a	n/a	-999	-1	[0, 0, 0]	n/a	FR1	2	R1170J
194.542	0.517	204275	RETRIEVAL_ORIENT	n/a	n/a	n/a	-999	-1	[0, 0, 0]	n/a	FR1	2	R1170J
195.059	30.011	204792	PRACTICE_REC_START	n/a	n/a	n/a	-999	-1	[0, 0, 0]	n/a	FR1	2	R1170J
225.07	11.427	234803	PRACTICE_REC_END	n/a	n/a	n/a	-999	-1	[0, 0, 0]	n/a	FR1	2	R1170J
236.497	0.5	246229	TRIAL	n/a	n/a	n/a	-999	1	[0, 0, 0]	n/a	FR1	2	R1170J
236.997	10.428	246729	COUNTDOWN_START	n/a	n/a	n/a	-999	1	[0, 0, 0]	n/a	FR1	2	R1170J
247.425	0.006	257157	COUNTDOWN_END	n/a	n/a	n/a	-999	1	[0, 0, 0]	n/a	FR1	2	R1170J
247.431	1.601	257163	ORIENT	n/a	n/a	n/a	-999	1	[0, 0, 0]	n/a	FR1	2	R1170J
249.032	2.201	258764	ORIENT_OFF	n/a	n/a	n/a	-999	1	[0, 0, 0]	n/a	FR1	2	R1170J
251.233	1.617	260965	WORD	n/a	wordpools/wordpool_EN.txt	BLOOM	1	1	[0, 0, 0]	n/a	FR1	2	R1170J
252.85	0.933	262582	WORD_OFF	n/a	n/a	BLOOM	1	1	[0, 0, 0]	n/a	FR1	2	R1170J
253.783	1.616	263515	WORD	n/a	wordpools/wordpool_EN.txt	STEM	2	1	[0, 0, 0]	n/a	FR1	2	R1170J
255.399	0.801	265131	WORD_OFF	n/a	n/a	STEM	2	1	[0, 0, 0]	n/a	FR1	2	R1170J
256.2	1.617	265932	WORD	n/a	wordpools/wordpool_EN.txt	THUMB	3	1	[0, 0, 0]	n/a	FR1	2	R1170J
257.817	0.883	267549	WORD_OFF	n/a	n/a	THUMB	3	1	[0, 0, 0]	n/a	FR1	2	R1170J
258.7	1.616	268432	WORD	n/a	wordpools/wordpool_EN.txt	LEAF	4	1	[0, 0, 0]	n/a	FR1	2	R1170J
260.316	0.935	270048	WORD_OFF	n/a	n/a	LEAF	4	1	[0, 0, 0]	n/a	FR1	2	R1170J
261.251	1.617	270983	WORD	n/a	wordpools/wordpool_EN.txt	TOE	5	1	[0, 0, 0]	n/a	FR1	2	R1170J
262.868	0.983	272600	WORD_OFF	n/a	n/a	TOE	5	1	[0, 0, 0]	n/a	FR1	2	R1170J
263.851	1.616	273583	WORD	n/a	wordpools/wordpool_EN.txt	WEED	6	1	[0, 0, 0]	n/a	FR1	2	R1170J
265.467	0.767	275199	WORD_OFF	n/a	n/a	WEED	6	1	[0, 0, 0]	n/a	FR1	2	R1170J
266.234	1.617	275966	WORD	n/a	wordpools/wordpool_EN.txt	MOTH	7	1	[0, 0, 0]	n/a	FR1	2	R1170J
267.851	0.934	277583	WORD_OFF	n/a	n/a	MOTH	7	1	[0, 0, 0]	n/a	FR1	2	R1170J
268.785	1.616	278517	WORD	n/a	wordpools/wordpool_EN.txt	PASTE	8	1	[0, 0, 0]	n/a	FR1	2	R1170J
270.401	0.9	280133	WORD_OFF	n/a	n/a	PASTE	8	1	[0, 0, 0]	n/a	FR1	2	R1170J
271.301	1.618	281033	WORD	n/a	wordpools/wordpool_EN.txt	TOAST	9	1	[0, 0, 0]	n/a	FR1	2	R1170J
272.919	0.783	282651	WORD_OFF	n/a	n/a	TOAST	9	1	[0, 0, 0]	n/a	FR1	2	R1170J
273.702	1.616	283434	WORD	n/a	wordpools/wordpool_EN.txt	ARM	10	1	[0, 0, 0]	n/a	FR1	2	R1170J
275.318	0.918	285050	WORD_OFF	n/a	n/a	ARM	10	1	[0, 0, 0]	n/a	FR1	2	R1170J
276.236	1.617	285968	WORD	n/a	wordpools/wordpool_EN.txt	CONE	11	1	[0, 0, 0]	n/a	FR1	2	R1170J
277.853	0.8	287585	WORD_OFF	n/a	n/a	CONE	11	1	[0, 0, 0]	n/a	FR1	2	R1170J
278.653	1.617	288385	WORD	n/a	wordpools/wordpool_EN.txt	FRUIT	12	1	[0, 0, 0]	n/a	FR1	2	R1170J
280.27	0.0	290002	DISTRACT_START	n/a	n/a	n/a	-999	1	[0, 0, 0]	n/a	FR1	2	R1170J
280.27	0.0	290002	WORD_OFF	n/a	n/a	FRUIT	12	1	[0, 0, 0]	n/a	FR1	2	R1170J
280.27	0.016	290002	START	n/a	n/a	n/a	-999	1	[-999, -999, -999]	n/a	FR1	2	R1170J
280.286	5.868	290018	PROB	5.868	n/a	n/a	-999	1	[8, 5, 2]	15	FR1	2	R1170J
286.154	3.483	295886	PROB	3.483	n/a	n/a	-999	1	[3, 6, 9]	18	FR1	2	R1170J
289.637	2.918	299369	PROB	2.918	n/a	n/a	-999	1	[2, 1, 2]	5	FR1	2	R1170J
292.555	3.25	302287	PROB	3.25	n/a	n/a	-999	1	[4, 6, 2]	12	FR1	2	R1170J
295.805	3.167	305537	PROB	3.167	n/a	n/a	-999	1	[8, 4, 6]	18	FR1	2	R1170J
298.972	3.738	308703	PROB	3.738	n/a	n/a	-999	1	[1, 6, 9]	16	FR1	2	R1170J
302.71	0.013	312441	STOP	n/a	n/a	n/a	-999	1	[-999, -999, -999]	n/a	FR1	2	R1170J
302.723	0.665	312454	DISTRACT_END	n/a	n/a	n/a	-999	1	[0, 0, 0]	n/a	FR1	2	R1170J
303.388	0.519	313119	RETRIEVAL_ORIENT	n/a	n/a	n/a	-999	1	[0, 0, 0]	n/a	FR1	2	R1170J
303.907	0.733	313638	REC_START	n/a	n/a	n/a	-999	1	[0, 0, 0]	n/a	FR1	2	R1170J
304.64	1.916	314371	REC_WORD	1.916	n/a	ARM	-999	1	[0, 0, 0]	n/a	FR1	2	R1170J
306.556	1.905	316287	REC_WORD_VV	1.905	n/a	<>	-999	1	[0, 0, 0]	n/a	FR1	2	R1170J
308.461	2.531	318192	REC_WORD	2.531	n/a	FINGER	-999	1	[0, 0, 0]	n/a	FR1	2	R1170J
310.992	22.926	320723	REC_WORD	22.926	n/a	TOE	-999	1	[0, 0, 0]	n/a	FR1	2	R1170J
333.918	6.61	343649	REC_END	n/a	n/a	n/a	-999	1	[0, 0, 0]	n/a	FR1	2	R1170J
340.528	0.5	350259	TRIAL	n/a	n/a	n/a	-999	2	[0, 0, 0]	n/a	FR1	2	R1170J
341.028	10.428	350759	COUNTDOWN_START	n/a	n/a	n/a	-999	2	[0, 0, 0]	n/a	FR1	2	R1170J
351.456	0.006	361187	COUNTDOWN_END	n/a	n/a	n/a	-999	2	[0, 0, 0]	n/a	FR1	2	R1170J
351.462	1.617	361193	ORIENT	n/a	n/a	n/a	-999	2	[0, 0, 0]	n/a	FR1	2	R1170J
353.079	2.051	362810	ORIENT_OFF	n/a	n/a	n/a	-999	2	[0, 0, 0]	n/a	FR1	2	R1170J
355.13	1.616	364861	WORD	n/a	wordpools/wordpool_EN.txt	WAVE	1	2	[0, 0, 0]	n/a	FR1	2	R1170J
356.746	0.934	366477	WORD_OFF	n/a	n/a	WAVE	1	2	[0, 0, 0]	n/a	FR1	2	R1170J
357.68	1.616	367411	WORD	n/a	wordpools/wordpool_EN.txt	BOOK	2	2	[0, 0, 0]	n/a	FR1	2	R1170J
359.296	0.784	369027	WORD_OFF	n/a	n/a	BOOK	2	2	[0, 0, 0]	n/a	FR1	2	R1170J
360.08	1.617	369811	WORD	n/a	wordpools/wordpool_EN.txt	HEART	3	2	[0, 0, 0]	n/a	FR1	2	R1170J
361.697	0.867	371428	WORD_OFF	n/a	n/a	HEART	3	2	[0, 0, 0]	n/a	FR1	2	R1170J
362.564	1.617	372295	WORD	n/a	wordpools/wordpool_EN.txt	STEAM	4	2	[0, 0, 0]	n/a	FR1	2	R1170J
364.181	1.0	373911	WORD_OFF	n/a	n/a	STEAM	4	2	[0, 0, 0]	n/a	FR1	2	R1170J
365.181	1.617	374911	WORD	n/a	wordpools/wordpool_EN.txt	SHEET	5	2	[0, 0, 0]	n/a	FR1	2	R1170J
366.798	0.9	376528	WORD_OFF	n/a	n/a	SHEET	5	2	[0, 0, 0]	n/a	FR1	2	R1170J
367.698	1.616	377428	WORD	n/a	wordpools/wordpool_EN.txt	DRUM	6	2	[0, 0, 0]	n/a	FR1	2	R1170J
369.314	0.785	379044	WORD_OFF	n/a	n/a	DRUM	6	2	[0, 0, 0]	n/a	FR1	2	R1170J
370.099	1.617	379829	WORD	n/a	wordpools/wordpool_EN.txt	WHEEL	7	2	[0, 0, 0]	n/a	FR1	2	R1170J
371.716	0.916	381446	WORD_OFF	n/a	n/a	WHEEL	7	2	[0, 0, 0]	n/a	FR1	2	R1170J
372.632	1.617	382362	WORD	n/a	wordpools/wordpool_EN.txt	KEY	8	2	[0, 0, 0]	n/a	FR1	2	R1170J
374.249	0.933	383979	WORD_OFF	n/a	n/a	KEY	8	2	[0, 0, 0]	n/a	FR1	2	R1170J
375.182	1.617	384912	WORD	n/a	wordpools/wordpool_EN.txt	PEA	9	2	[0, 0, 0]	n/a	FR1	2	R1170J
376.799	0.884	386529	WORD_OFF	n/a	n/a	PEA	9	2	[0, 0, 0]	n/a	FR1	2	R1170J
377.683	1.616	387413	WORD	n/a	wordpools/wordpool_EN.txt	WING	10	2	[0, 0, 0]	n/a	FR1	2	R1170J
379.299	0.784	389029	WORD_OFF	n/a	n/a	WING	10	2	[0, 0, 0]	n/a	FR1	2	R1170J
380.083	1.617	389813	WORD	n/a	wordpools/wordpool_EN.txt	PHONE	11	2	[0, 0, 0]	n/a	FR1	2	R1170J
381.7	0.95	391430	WORD_OFF	n/a	n/a	PHONE	11	2	[0, 0, 0]	n/a	FR1	2	R1170J
382.65	1.617	392380	WORD	n/a	wordpools/wordpool_EN.txt	BOMB	12	2	[0, 0, 0]	n/a	FR1	2	R1170J
384.267	0.0	393997	WORD_OFF	n/a	n/a	BOMB	12	2	[0, 0, 0]	n/a	FR1	2	R1170J
384.267	0.001	393997	DISTRACT_START	n/a	n/a	n/a	-999	2	[0, 0, 0]	n/a	FR1	2	R1170J
384.268	0.016	393998	START	n/a	n/a	n/a	-999	2	[-999, -999, -999]	n/a	FR1	2	R1170J
384.284	3.884	394014	PROB	3.884	n/a	n/a	-999	2	[2, 9, 1]	12	FR1	2	R1170J
388.168	5.383	397898	PROB	5.383	n/a	n/a	-999	2	[2, 2, 3]	7	FR1	2	R1170J
393.551	7.168	403281	PROB	7.168	n/a	n/a	-999	2	[8, 6, 4]	18	FR1	2	R1170J
400.719	5.89	410449	PROB	5.89	n/a	n/a	-999	2	[6, 4, 6]	16	FR1	2	R1170J
406.609	0.011	416339	STOP	n/a	n/a	n/a	-999	2	[-999, -999, -999]	n/a	FR1	2	R1170J
406.62	0.666	416350	DISTRACT_END	n/a	n/a	n/a	-999	2	[0, 0, 0]	n/a	FR1	2	R1170J
407.286	0.519	417016	RETRIEVAL_ORIENT	n/a	n/a	n/a	-999	2	[0, 0, 0]	n/a	FR1	2	R1170J
407.805	1.453	417535	REC_START	n/a	n/a	n/a	-999	2	[0, 0, 0]	n/a	FR1	2	R1170J
409.258	2.341	418988	REC_WORD_VV	2.341	n/a	<>	-999	2	[0, 0, 0]	n/a	FR1	2	R1170J
411.599	2.522	421329	REC_WORD_VV	2.522	n/a	<>	-999	2	[0, 0, 0]	n/a	FR1	2	R1170J
414.121	23.694	423851	REC_WORD_VV	23.694	n/a	<>	-999	2	[0, 0, 0]	n/a	FR1	2	R1170J
437.815	4.777	447544	REC_END	n/a	n/a	n/a	-999	2	[0, 0, 0]	n/a	FR1	2	R1170J
442.592	0.5	452321	TRIAL	n/a	n/a	n/a	-999	3	[0, 0, 0]	n/a	FR1	2	R1170J
443.092	10.428	452821	COUNTDOWN_START	n/a	n/a	n/a	-999	3	[0, 0, 0]	n/a	FR1	2	R1170J
453.52	0.006	463249	COUNTDOWN_END	n/a	n/a	n/a	-999	3	[0, 0, 0]	n/a	FR1	2	R1170J
453.526	1.617	463255	ORIENT	n/a	n/a	n/a	-999	3	[0, 0, 0]	n/a	FR1	2	R1170J
455.143	2.05	464872	ORIENT_OFF	n/a	n/a	n/a	-999	3	[0, 0, 0]	n/a	FR1	2	R1170J
457.193	1.617	466922	WORD	n/a	wordpools/wordpool_EN.txt	HAND	1	3	[0, 0, 0]	n/a	FR1	2	R1170J
458.81	0.967	468539	WORD_OFF	n/a	n/a	HAND	1	3	[0, 0, 0]	n/a	FR1	2	R1170J
459.777	1.616	469506	WORD	n/a	wordpools/wordpool_EN.txt	MOUTH	2	3	[0, 0, 0]	n/a	FR1	2	R1170J
461.393	0.785	471122	WORD_OFF	n/a	n/a	MOUTH	2	3	[0, 0, 0]	n/a	FR1	2	R1170J
462.178	1.616	471907	WORD	n/a	wordpools/wordpool_EN.txt	PURSE	3	3	[0, 0, 0]	n/a	FR1	2	R1170J
463.794	0.783	473523	WORD_OFF	n/a	n/a	PURSE	3	3	[0, 0, 0]	n/a	FR1	2	R1170J
464.577	1.617	474306	WORD	n/a	wordpools/wordpool_EN.txt	MAZE	4	3	[0, 0, 0]	n/a	FR1	2	R1170J
466.194	1.0	475923	WORD_OFF	n/a	n/a	MAZE	4	3	[0, 0, 0]	n/a	FR1	2	R1170J
467.194	1.618	476923	WORD	n/a	wordpools/wordpool_EN.txt	FUDGE	5	3	[0, 0, 0]	n/a	FR1	2	R1170J
468.812	0.866	478541	WORD_OFF	n/a	n/a	FUDGE	5	3	[0, 0, 0]	n/a	FR1	2	R1170J
469.678	1.616	479407	WORD	n/a	wordpools/wordpool_EN.txt	PEAR	6	3	[0, 0, 0]	n/a	FR1	2	R1170J
471.294	0.935	481023	WORD_OFF	n/a	n/a	PEAR	6	3	[0, 0, 0]	n/a	FR1	2	R1170J
472.229	1.616	481958	WORD	n/a	wordpools/wordpool_EN.txt	STEAK	7	3	[0, 0, 0]	n/a	FR1	2	R1170J
473.845	1.0	483574	WORD_OFF	n/a	n/a	STEAK	7	3	[0, 0, 0]	n/a	FR1	2	R1170J
474.845	1.617	484574	WORD	n/a	wordpools/wordpool_EN.txt	TENT	8	3	[0, 0, 0]	n/a	FR1	2	R1170J
476.462	0.983	486191	WORD_OFF	n/a	n/a	TENT	8	3	[0, 0, 0]	n/a	FR1	2	R1170J
477.445	1.618	487174	WORD	n/a	wordpools/wordpool_EN.txt	SPEAR	9	3	[0, 0, 0]	n/a	FR1	2	R1170J
479.063	1.0	488792	WORD_OFF	n/a	n/a	SPEAR	9	3	[0, 0, 0]	n/a	FR1	2	R1170J
480.063	1.617	489792	WORD	n/a	wordpools/wordpool_EN.txt	BREAD	10	3	[0, 0, 0]	n/a	FR1	2	R1170J
481.68	0.9	491409	WORD_OFF	n/a	n/a	BREAD	10	3	[0, 0, 0]	n/a	FR1	2	R1170J
482.58	1.617	492309	WORD	n/a	wordpools/wordpool_EN.txt	CHEEK	11	3	[0, 0, 0]	n/a	FR1	2	R1170J
484.197	0.884	493926	WORD_OFF	n/a	n/a	CHEEK	11	3	[0, 0, 0]	n/a	FR1	2	R1170J
485.081	1.617	494810	WORD	n/a	wordpools/wordpool_EN.txt	SWAMP	12	3	[0, 0, 0]	n/a	FR1	2	R1170J
486.698	0.0	496427	WORD_OFF	n/a	n/a	SWAMP	12	3	[0, 0, 0]	n/a	FR1	2	R1170J
486.698	0.0	496427	DISTRACT_START	n/a	n/a	n/a	-999	3	[0, 0, 0]	n/a	FR1	2	R1170J
486.698	0.016	496427	START	n/a	n/a	n/a	-999	3	[-999, -999, -999]	n/a	FR1	2	R1170J
486.714	5.717	496443	PROB	5.717	n/a	n/a	-999	3	[9, 7, 3]	19	FR1	2	R1170J
492.431	3.251	502160	PROB	3.251	n/a	n/a	-999	3	[7, 4, 7]	18	FR1	2	R1170J
495.682	3.2	505410	PROB	3.2	n/a	n/a	-999	3	[1, 8, 8]	17	FR1	2	R1170J
498.882	4.068	508610	PROB	4.068	n/a	n/a	-999	3	[1, 7, 8]	16	FR1	2	R1170J
502.95	5.127	512678	PROB	5.127	n/a	n/a	-999	3	[1, 7, 9]	17	FR1	2	R1170J
508.077	0.007	517805	STOP	n/a	n/a	n/a	-999	3	[-999, -999, -999]	n/a	FR1	2	R1170J
508.084	0.55	517812	DISTRACT_END	n/a	n/a	n/a	-999	3	[0, 0, 0]	n/a	FR1	2	R1170J
508.634	0.517	518362	RETRIEVAL_ORIENT	n/a	n/a	n/a	-999	3	[0, 0, 0]	n/a	FR1	2	R1170J
509.151	2.188	518879	REC_START	n/a	n/a	n/a	-999	3	[0, 0, 0]	n/a	FR1	2	R1170J
511.339	9.771	521067	REC_WORD	9.771	n/a	ARM	-999	3	[0, 0, 0]	n/a	FR1	2	R1170J
521.11	3.16	530838	REC_WORD_VV	3.16	n/a	<>	-999	3	[0, 0, 0]	n/a	FR1	2	R1170J
524.27	0.348	533998	REC_WORD	0.348	n/a	FINGER	-999	3	[0, 0, 0]	n/a	FR1	2	R1170J
524.618	14.543	534346	REC_WORD	14.543	n/a	NAIL	-999	3	[0, 0, 0]	n/a	FR1	2	R1170J
539.161	7.277	548889	REC_END	n/a	n/a	n/a	-999	3	[0, 0, 0]	n/a	FR1	2	R1170J
546.438	0.5	556166	TRIAL	n/a	n/a	n/a	-999	4	[0, 0, 0]	n/a	FR1	2	R1170J
546.938	10.428	556666	COUNTDOWN_START	n/a	n/a	n/a	-999	4	[0, 0, 0]	n/a	FR1	2	R1170J
557.366	0.007	567094	COUNTDOWN_END	n/a	n/a	n/a	-999	4	[0, 0, 0]	n/a	FR1	2	R1170J
557.373	1.601	567101	ORIENT	n/a	n/a	n/a	-999	4	[0, 0, 0]	n/a	FR1	2	R1170J
558.974	2.117	568702	ORIENT_OFF	n/a	n/a	n/a	-999	4	[0, 0, 0]	n/a	FR1	2	R1170J
561.091	1.617	570818	WORD	n/a	wordpools/wordpool_EN.txt	BADGE	1	4	[0, 0, 0]	n/a	FR1	2	R1170J
562.708	0.966	572435	WORD_OFF	n/a	n/a	BADGE	1	4	[0, 0, 0]	n/a	FR1	2	R1170J
563.674	1.617	573401	WORD	n/a	wordpools/wordpool_EN.txt	POOL	2	4	[0, 0, 0]	n/a	FR1	2	R1170J
565.291	0.984	575018	WORD_OFF	n/a	n/a	POOL	2	4	[0, 0, 0]	n/a	FR1	2	R1170J
566.275	1.617	576002	WORD	n/a	wordpools/wordpool_EN.txt	FACE	3	4	[0, 0, 0]	n/a	FR1	2	R1170J
567.892	0.867	577619	WORD_OFF	n/a	n/a	FACE	3	4	[0, 0, 0]	n/a	FR1	2	R1170J
568.759	1.615	578486	WORD	n/a	wordpools/wordpool_EN.txt	BAND	4	4	[0, 0, 0]	n/a	FR1	2	R1170J
570.374	1.017	580101	WORD_OFF	n/a	n/a	BAND	4	4	[0, 0, 0]	n/a	FR1	2	R1170J
571.391	1.618	581118	WORD	n/a	wordpools/wordpool_EN.txt	SLUSH	5	4	[0, 0, 0]	n/a	FR1	2	R1170J
573.009	0.817	582736	WORD_OFF	n/a	n/a	SLUSH	5	4	[0, 0, 0]	n/a	FR1	2	R1170J
573.826	1.616	583553	WORD	n/a	wordpools/wordpool_EN.txt	JAIL	6	4	[0, 0, 0]	n/a	FR1	2	R1170J
575.442	0.966	585169	WORD_OFF	n/a	n/a	JAIL	6	4	[0, 0, 0]	n/a	FR1	2	R1170J
576.408	1.618	586135	WORD	n/a	wordpools/wordpool_EN.txt	HAT	7	4	[0, 0, 0]	n/a	FR1	2	R1170J
578.026	0.784	587753	WORD_OFF	n/a	n/a	HAT	7	4	[0, 0, 0]	n/a	FR1	2	R1170J
578.81	1.616	588537	WORD	n/a	wordpools/wordpool_EN.txt	STREET	8	4	[0, 0, 0]	n/a	FR1	2	R1170J
580.426	0.933	590153	WORD_OFF	n/a	n/a	STREET	8	4	[0, 0, 0]	n/a	FR1	2	R1170J
581.359	1.618	591086	WORD	n/a	wordpools/wordpool_EN.txt	SIGN	9	4	[0, 0, 0]	n/a	FR1	2	R1170J
582.977	0.783	592704	WORD_OFF	n/a	n/a	SIGN	9	4	[0, 0, 0]	n/a	FR1	2	R1170J
583.76	1.616	593487	WORD	n/a	wordpools/wordpool_EN.txt	FLAG	10	4	[0, 0, 0]	n/a	FR1	2	R1170J
585.376	0.95	595103	WORD_OFF	n/a	n/a	FLAG	10	4	[0, 0, 0]	n/a	FR1	2	R1170J
586.326	1.618	596053	WORD	n/a	wordpools/wordpool_EN.txt	JUDGE	11	4	[0, 0, 0]	n/a	FR1	2	R1170J
587.944	0.917	597671	WORD_OFF	n/a	n/a	JUDGE	11	4	[0, 0, 0]	n/a	FR1	2	R1170J
588.861	1.617	598588	WORD	n/a	wordpools/wordpool_EN.txt	CRANE	12	4	[0, 0, 0]	n/a	FR1	2	R1170J
590.478	0.0	600205	WORD_OFF	n/a	n/a	CRANE	12	4	[0, 0, 0]	n/a	FR1	2	R1170J
590.478	0.001	600205	DISTRACT_START	n/a	n/a	n/a	-999	4	[0, 0, 0]	n/a	FR1	2	R1170J
590.479	0.016	600206	START	n/a	n/a	n/a	-999	4	[-999, -999, -999]	n/a	FR1	2	R1170J
590.495	3.816	600222	PROB	3.816	n/a	n/a	-999	4	[4, 4, 6]	14	FR1	2	R1170J
594.311	4.401	604038	PROB	4.401	n/a	n/a	-999	4	[2, 3, 5]	10	FR1	2	R1170J
598.712	5.385	608439	PROB	5.385	n/a	n/a	-999	4	[7, 4, 8]	19	FR1	2	R1170J
604.097	3.667	613824	PROB	3.667	n/a	n/a	-999	4	[9, 5, 1]	15	FR1	2	R1170J
607.764	7.013	617491	PROB	7.013	n/a	n/a	-999	4	[6, 1, 7]	14	FR1	2	R1170J
614.777	0.021	624504	STOP	n/a	n/a	n/a	-999	4	[-999, -999, -999]	n/a	FR1	2	R1170J
614.798	0.632	624525	DISTRACT_END	n/a	n/a	n/a	-999	4	[0, 0, 0]	n/a	FR1	2	R1170J
615.43	0.519	625157	RETRIEVAL_ORIENT	n/a	n/a	n/a	-999	4	[0, 0, 0]	n/a	FR1	2	R1170J
615.949	0.465	625676	REC_START	n/a	n/a	n/a	-999	4	[0, 0, 0]	n/a	FR1	2	R1170J
616.414	1.021	626141	REC_WORD	1.021	n/a	JAIL	-999	4	[0, 0, 0]	n/a	FR1	2	R1170J
617.435	4.178	627162	REC_WORD	4.178	n/a	SWIMMING	-999	4	[0, 0, 0]	n/a	FR1	2	R1170J
621.613	13.266	631340	REC_WORD	13.266	n/a	STREAM	-999	4	[0, 0, 0]	n/a	FR1	2	R1170J
634.879	11.081	644605	REC_WORD	11.081	n/a	FLOOD	-999	4	[0, 0, 0]	n/a	FR1	2	R1170J
645.96	9.426	655686	REC_END	n/a	n/a	n/a	-999	4	[0, 0, 0]	n/a	FR1	2	R1170J
655.386	0.5	665112	TRIAL	n/a	n/a	n/a	-999	5	[0, 0, 0]	n/a	FR1	2	R1170J
655.886	10.428	665612	COUNTDOWN_START	n/a	n/a	n/a	-999	5	[0, 0, 0]	n/a	FR1	2	R1170J
666.314	0.007	676040	COUNTDOWN_END	n/a	n/a	n/a	-999	5	[0, 0, 0]	n/a	FR1	2	R1170J
666.321	1.618	676047	ORIENT	n/a	n/a	n/a	-999	5	[0, 0, 0]	n/a	FR1	2	R1170J
667.939	1.983	677665	ORIENT_OFF	n/a	n/a	n/a	-999	5	[0, 0, 0]	n/a	FR1	2	R1170J
669.922	1.617	679648	WORD	n/a	wordpools/wordpool_EN.txt	SKUNK	1	5	[0, 0, 0]	n/a	FR1	2	R1170J
671.539	0.916	681265	WORD_OFF	n/a	n/a	SKUNK	1	5	[0, 0, 0]	n/a	FR1	2	R1170J
672.455	1.618	682181	WORD	n/a	wordpools/wordpool_EN.txt	HORSE	2	5	[0, 0, 0]	n/a	FR1	2	R1170J
674.073	0.8	683799	WORD_OFF	n/a	n/a	HORSE	2	5	[0, 0, 0]	n/a	FR1	2	R1170J
674.873	1.617	684599	WORD	n/a	wordpools/wordpool_EN.txt	ZOO	3	5	[0, 0, 0]	n/a	FR1	2	R1170J
676.49	0.949	686216	WORD_OFF	n/a	n/a	ZOO	3	5	[0, 0, 0]	n/a	FR1	2	R1170J
677.439	1.618	687165	WORD	n/a	wordpools/wordpool_EN.txt	BIRD	4	5	[0, 0, 0]	n/a	FR1	2	R1170J
679.057	0.933	688783	WORD_OFF	n/a	n/a	BIRD	4	5	[0, 0, 0]	n/a	FR1	2	R1170J
679.99	1.617	689716	WORD	n/a	wordpools/wordpool_EN.txt	RIB	5	5	[0, 0, 0]	n/a	FR1	2	R1170J
681.607	1.0	691333	WORD_OFF	n/a	n/a	RIB	5	5	[0, 0, 0]	n/a	FR1	2	R1170J
682.607	1.617	692333	WORD	n/a	wordpools/wordpool_EN.txt	CAT	6	5	[0, 0, 0]	n/a	FR1	2	R1170J
684.224	0.833	693950	WORD_OFF	n/a	n/a	CAT	6	5	[0, 0, 0]	n/a	FR1	2	R1170J
685.057	1.617	694783	WORD	n/a	wordpools/wordpool_EN.txt	SNAKE	7	5	[0, 0, 0]	n/a	FR1	2	R1170J
686.674	1.001	696400	WORD_OFF	n/a	n/a	SNAKE	7	5	[0, 0, 0]	n/a	FR1	2	R1170J
687.675	1.616	697401	WORD	n/a	wordpools/wordpool_EN.txt	MOUSE	8	5	[0, 0, 0]	n/a	FR1	2	R1170J
689.291	0.984	699017	WORD_OFF	n/a	n/a	MOUSE	8	5	[0, 0, 0]	n/a	FR1	2	R1170J
690.275	1.617	700001	WORD	n/a	wordpools/wordpool_EN.txt	GRASS	9	5	[0, 0, 0]	n/a	FR1	2	R1170J
691.892	0.867	701617	WORD_OFF	n/a	n/a	GRASS	9	5	[0, 0, 0]	n/a	FR1	2	R1170J
692.759	1.615	702484	WORD	n/a	wordpools/wordpool_EN.txt	CLOUD	10	5	[0, 0, 0]	n/a	FR1	2	R1170J
694.374	0.785	704099	WORD_OFF	n/a	n/a	CLOUD	10	5	[0, 0, 0]	n/a	FR1	2	R1170J
695.159	1.617	704884	WORD	n/a	wordpools/wordpool_EN.txt	HAWK	11	5	[0, 0, 0]	n/a	FR1	2	R1170J
696.776	0.866	706501	WORD_OFF	n/a	n/a	HAWK	11	5	[0, 0, 0]	n/a	FR1	2	R1170J
697.642	1.617	707367	WORD	n/a	wordpools/wordpool_EN.txt	NEST	12	5	[0, 0, 0]	n/a	FR1	2	R1170J
699.259	0.0	708984	WORD_OFF	n/a	n/a	NEST	12	5	[0, 0, 0]	n/a	FR1	2	R1170J
699.259	0.001	708984	DISTRACT_START	n/a	n/a	n/a	-999	5	[0, 0, 0]	n/a	FR1	2	R1170J
699.26	0.016	708985	START	n/a	n/a	n/a	-999	5	[-999, -999, -999]	n/a	FR1	2	R1170J
699.276	3.367	709001	PROB	3.367	n/a	n/a	-999	5	[6, 4, 3]	13	FR1	2	R1170J
702.643	2.367	712368	PROB	2.367	n/a	n/a	-999	5	[7, 2, 3]	12	FR1	2	R1170J
705.01	2.167	714735	PROB	2.167	n/a	n/a	-999	5	[3, 2, 7]	12	FR1	2	R1170J
707.177	3.2	716902	PROB	3.2	n/a	n/a	-999	5	[3, 5, 6]	14	FR1	2	R1170J
710.377	2.667	720102	PROB	2.667	n/a	n/a	-999	5	[2, 1, 4]	7	FR1	2	R1170J
713.044	2.784	722769	PROB	2.784	n/a	n/a	-999	5	[4, 4, 6]	14	FR1	2	R1170J
715.828	4.955	725553	PROB	4.955	n/a	n/a	-999	5	[7, 5, 4]	16	FR1	2	R1170J
720.783	0.012	730508	STOP	n/a	n/a	n/a	-999	5	[-999, -999, -999]	n/a	FR1	2	R1170J
720.795	0.701	730520	DISTRACT_END	n/a	n/a	n/a	-999	5	[0, 0, 0]	n/a	FR1	2	R1170J
721.496	0.517	731221	RETRIEVAL_ORIENT	n/a	n/a	n/a	-999	5	[0, 0, 0]	n/a	FR1	2	R1170J
722.013	0.313	731738	REC_START	n/a	n/a	n/a	-999	5	[0, 0, 0]	n/a	FR1	2	R1170J
722.326	1.032	732051	REC_WORD	1.032	n/a	SKUNK	-999	5	[0, 0, 0]	n/a	FR1	2	R1170J
723.358	1.0	733083	REC_WORD	1.0	n/a	HORSE	-999	5	[0, 0, 0]	n/a	FR1	2	R1170J
724.358	1.561	734083	REC_WORD_VV	1.561	n/a	<>	-999	5	[0, 0, 0]	n/a	FR1	2	R1170J
725.919	1.327	735644	REC_WORD	1.327	n/a	HAWK	-999	5	[0, 0, 0]	n/a	FR1	2	R1170J
727.246	1.0	736971	REC_WORD_VV	1.0	n/a	<>	-999	5	[0, 0, 0]	n/a	FR1	2	R1170J
728.246	0.825	737971	REC_WORD_VV	0.825	n/a	<>	-999	5	[0, 0, 0]	n/a	FR1	2	R1170J
729.071	1.172	738796	REC_WORD	1.172	n/a	THREAD	-999	5	[0, 0, 0]	n/a	FR1	2	R1170J
730.243	4.025	739968	REC_WORD	4.025	n/a	RIB	-999	5	[0, 0, 0]	n/a	FR1	2	R1170J
734.268	10.849	743993	REC_WORD	10.849	n/a	SNAKE	-999	5	[0, 0, 0]	n/a	FR1	2	R1170J
745.117	1.0	754842	REC_WORD_VV	1.0	n/a	<>	-999	5	[0, 0, 0]	n/a	FR1	2	R1170J
746.117	0.386	755842	REC_WORD_VV	0.386	n/a	<>	-999	5	[0, 0, 0]	n/a	FR1	2	R1170J
746.503	2.563	756228	REC_WORD	2.563	n/a	FINGER	-999	5	[0, 0, 0]	n/a	FR1	2	R1170J
749.066	1.761	758791	REC_WORD_VV	1.761	n/a	<>	-999	5	[0, 0, 0]	n/a	FR1	2	R1170J
750.827	1.196	760552	REC_WORD_VV	1.196	n/a	<>	-999	5	[0, 0, 0]	n/a	FR1	2	R1170J
752.023	8.145	761748	REC_END	n/a	n/a	n/a	-999	5	[0, 0, 0]	n/a	FR1	2	R1170J
760.168	0.5	769892	TRIAL	n/a	n/a	n/a	-999	6	[0, 0, 0]	n/a	FR1	2	R1170J
760.668	10.428	770392	COUNTDOWN_START	n/a	n/a	n/a	-999	6	[0, 0, 0]	n/a	FR1	2	R1170J
771.096	0.006	780820	COUNTDOWN_END	n/a	n/a	n/a	-999	6	[0, 0, 0]	n/a	FR1	2	R1170J
771.102	1.617	780826	ORIENT	n/a	n/a	n/a	-999	6	[0, 0, 0]	n/a	FR1	2	R1170J
772.719	1.917	782443	ORIENT_OFF	n/a	n/a	n/a	-999	6	[0, 0, 0]	n/a	FR1	2	R1170J
774.636	1.617	784360	WORD	n/a	wordpools/wordpool_EN.txt	CAGE	1	6	[0, 0, 0]	n/a	FR1	2	R1170J
776.253	0.917	785977	WORD_OFF	n/a	n/a	CAGE	1	6	[0, 0, 0]	n/a	FR1	2	R1170J
777.17	1.617	786894	WORD	n/a	wordpools/wordpool_EN.txt	PALM	2	6	[0, 0, 0]	n/a	FR1	2	R1170J
778.787	0.783	788511	WORD_OFF	n/a	n/a	PALM	2	6	[0, 0, 0]	n/a	FR1	2	R1170J
779.57	1.617	789294	WORD	n/a	wordpools/wordpool_EN.txt	SLEEVE	3	6	[0, 0, 0]	n/a	FR1	2	R1170J
781.187	0.9	790911	WORD_OFF	n/a	n/a	SLEEVE	3	6	[0, 0, 0]	n/a	FR1	2	R1170J
782.087	1.617	791811	WORD	n/a	wordpools/wordpool_EN.txt	FAN	4	6	[0, 0, 0]	n/a	FR1	2	R1170J
783.704	0.85	793428	WORD_OFF	n/a	n/a	FAN	4	6	[0, 0, 0]	n/a	FR1	2	R1170J
784.554	1.617	794278	WORD	n/a	wordpools/wordpool_EN.txt	PLANE	5	6	[0, 0, 0]	n/a	FR1	2	R1170J
786.171	1.0	795895	WORD_OFF	n/a	n/a	PLANE	5	6	[0, 0, 0]	n/a	FR1	2	R1170J
787.171	1.617	796895	WORD	n/a	wordpools/wordpool_EN.txt	VASE	6	6	[0, 0, 0]	n/a	FR1	2	R1170J
788.788	0.8	798512	WORD_OFF	n/a	n/a	VASE	6	6	[0, 0, 0]	n/a	FR1	2	R1170J
789.588	1.617	799312	WORD	n/a	wordpools/wordpool_EN.txt	NOSE	7	6	[0, 0, 0]	n/a	FR1	2	R1170J
791.205	0.784	800929	WORD_OFF	n/a	n/a	NOSE	7	6	[0, 0, 0]	n/a	FR1	2	R1170J
791.989	1.616	801713	WORD	n/a	wordpools/wordpool_EN.txt	VAN	8	6	[0, 0, 0]	n/a	FR1	2	R1170J
793.605	0.9	803329	WORD_OFF	n/a	n/a	VAN	8	6	[0, 0, 0]	n/a	FR1	2	R1170J
794.505	1.617	804229	WORD	n/a	wordpools/wordpool_EN.txt	COUCH	9	6	[0, 0, 0]	n/a	FR1	2	R1170J
796.122	1.001	805846	WORD_OFF	n/a	n/a	COUCH	9	6	[0, 0, 0]	n/a	FR1	2	R1170J
797.123	1.617	806847	WORD	n/a	wordpools/wordpool_EN.txt	SQUARE	10	6	[0, 0, 0]	n/a	FR1	2	R1170J
798.74	0.916	808464	WORD_OFF	n/a	n/a	SQUARE	10	6	[0, 0, 0]	n/a	FR1	2	R1170J
799.656	1.617	809380	WORD	n/a	wordpools/wordpool_EN.txt	WAND	11	6	[0, 0, 0]	n/a	FR1	2	R1170J
801.273	0.917	810997	WORD_OFF	n/a	n/a	WAND	11	6	[0, 0, 0]	n/a	FR1	2	R1170J
802.19	1.617	811914	WORD	n/a	wordpools/wordpool_EN.txt	CAPE	12	6	[0, 0, 0]	n/a	FR1	2	R1170J
803.807	0.0	813531	WORD_OFF	n/a	n/a	CAPE	12	6	[0, 0, 0]	n/a	FR1	2	R1170J
803.807	0.0	813531	DISTRACT_START	n/a	n/a	n/a	-999	6	[0, 0, 0]	n/a	FR1	2	R1170J
803.807	0.016	813531	START	n/a	n/a	n/a	-999	6	[-999, -999, -999]	n/a	FR1	2	R1170J
803.823	6.818	813547	PROB	6.818	n/a	n/a	-999	6	[3, 4, 9]	16	FR1	2	R1170J
810.641	3.4	820365	PROB	3.4	n/a	n/a	-999	6	[8, 5, 2]	15	FR1	2	R1170J
814.041	5.885	823765	PROB	5.885	n/a	n/a	-999	6	[9, 4, 8]	21	FR1	2	R1170J
819.926	4.515	829650	PROB	4.515	n/a	n/a	-999	6	[8, 6, 8]	22	FR1	2	R1170J
824.441	0.018	834164	STOP	n/a	n/a	n/a	-999	6	[-999, -999, -999]	n/a	FR1	2	R1170J
824.459	0.667	834182	DISTRACT_END	n/a	n/a	n/a	-999	6	[0, 0, 0]	n/a	FR1	2	R1170J
825.126	0.518	834849	RETRIEVAL_ORIENT	n/a	n/a	n/a	-999	6	[0, 0, 0]	n/a	FR1	2	R1170J
825.644	2.486	835367	REC_START	n/a	n/a	n/a	-999	6	[0, 0, 0]	n/a	FR1	2	R1170J
828.13	5.24	837853	REC_WORD	5.24	n/a	SQUIRREL	-999	6	[0, 0, 0]	n/a	FR1	2	R1170J
833.37	1.0	843093	REC_WORD_VV	1.0	n/a	<>	-999	6	[0, 0, 0]	n/a	FR1	2	R1170J
834.37	6.762	844093	REC_WORD_VV	6.762	n/a	<>	-999	6	[0, 0, 0]	n/a	FR1	2	R1170J
841.132	1.0	850855	REC_WORD_VV	1.0	n/a	<>	-999	6	[0, 0, 0]	n/a	FR1	2	R1170J
842.132	13.524	851855	REC_WORD_VV	13.524	n/a	<>	-999	6	[0, 0, 0]	n/a	FR1	2	R1170J
855.656	23.561	865379	REC_END	n/a	n/a	n/a	-999	6	[0, 0, 0]	n/a	FR1	2	R1170J
879.217	0.5	888940	TRIAL	n/a	n/a	n/a	-999	7	[0, 0, 0]	n/a	FR1	2	R1170J
879.717	10.428	889440	COUNTDOWN_START	n/a	n/a	n/a	-999	7	[0, 0, 0]	n/a	FR1	2	R1170J
890.145	0.007	899867	COUNTDOWN_END	n/a	n/a	n/a	-999	7	[0, 0, 0]	n/a	FR1	2	R1170J
890.152	1.617	899874	ORIENT	n/a	n/a	n/a	-999	7	[0, 0, 0]	n/a	FR1	2	R1170J
891.769	1.933	901491	ORIENT_OFF	n/a	n/a	n/a	-999	7	[0, 0, 0]	n/a	FR1	2	R1170J
893.702	1.616	903424	WORD	n/a	wordpools/wordpool_EN.txt	POND	1	7	[0, 0, 0]	n/a	FR1	2	R1170J
895.318	0.918	905040	WORD_OFF	n/a	n/a	POND	1	7	[0, 0, 0]	n/a	FR1	2	R1170J
896.236	1.617	905958	WORD	n/a	wordpools/wordpool_EN.txt	ARK	2	7	[0, 0, 0]	n/a	FR1	2	R1170J
897.853	0.983	907575	WORD_OFF	n/a	n/a	ARK	2	7	[0, 0, 0]	n/a	FR1	2	R1170J
898.836	1.616	908558	WORD	n/a	wordpools/wordpool_EN.txt	SPOON	3	7	[0, 0, 0]	n/a	FR1	2	R1170J
900.452	0.818	910174	WORD_OFF	n/a	n/a	SPOON	3	7	[0, 0, 0]	n/a	FR1	2	R1170J
901.27	1.617	910992	WORD	n/a	wordpools/wordpool_EN.txt	FLAME	4	7	[0, 0, 0]	n/a	FR1	2	R1170J
902.887	0.9	912609	WORD_OFF	n/a	n/a	FLAME	4	7	[0, 0, 0]	n/a	FR1	2	R1170J
903.787	1.616	913509	WORD	n/a	wordpools/wordpool_EN.txt	GLASS	5	7	[0, 0, 0]	n/a	FR1	2	R1170J
905.403	1.017	915125	WORD_OFF	n/a	n/a	GLASS	5	7	[0, 0, 0]	n/a	FR1	2	R1170J
906.42	1.618	916142	WORD	n/a	wordpools/wordpool_EN.txt	SHRIMP	6	7	[0, 0, 0]	n/a	FR1	2	R1170J
908.038	1.0	917760	WORD_OFF	n/a	n/a	SHRIMP	6	7	[0, 0, 0]	n/a	FR1	2	R1170J
909.038	1.617	918760	WORD	n/a	wordpools/wordpool_EN.txt	JAR	7	7	[0, 0, 0]	n/a	FR1	2	R1170J
910.655	0.983	920377	WORD_OFF	n/a	n/a	JAR	7	7	[0, 0, 0]	n/a	FR1	2	R1170J
911.638	1.617	921360	WORD	n/a	wordpools/wordpool_EN.txt	FOAM	8	7	[0, 0, 0]	n/a	FR1	2	R1170J
913.255	0.967	922977	WORD_OFF	n/a	n/a	FOAM	8	7	[0, 0, 0]	n/a	FR1	2	R1170J
914.222	1.617	923944	WORD	n/a	wordpools/wordpool_EN.txt	CHALK	9	7	[0, 0, 0]	n/a	FR1	2	R1170J
915.839	0.85	925561	WORD_OFF	n/a	n/a	CHALK	9	7	[0, 0, 0]	n/a	FR1	2	R1170J
916.689	1.616	926411	WORD	n/a	wordpools/wordpool_EN.txt	CAKE	10	7	[0, 0, 0]	n/a	FR1	2	R1170J
918.305	0.817	928027	WORD_OFF	n/a	n/a	CAKE	10	7	[0, 0, 0]	n/a	FR1	2	R1170J
919.122	1.617	928844	WORD	n/a	wordpools/wordpool_EN.txt	BEE	11	7	[0, 0, 0]	n/a	FR1	2	R1170J
920.739	0.851	930461	WORD_OFF	n/a	n/a	BEE	11	7	[0, 0, 0]	n/a	FR1	2	R1170J
921.59	1.616	931312	WORD	n/a	wordpools/wordpool_EN.txt	STOVE	12	7	[0, 0, 0]	n/a	FR1	2	R1170J
923.206	0.0	932928	DISTRACT_START	n/a	n/a	n/a	-999	7	[0, 0, 0]	n/a	FR1	2	R1170J
923.206	0.001	932928	WORD_OFF	n/a	n/a	STOVE	12	7	[0, 0, 0]	n/a	FR1	2	R1170J
923.207	0.016	932929	START	n/a	n/a	n/a	-999	7	[-999, -999, -999]	n/a	FR1	2	R1170J
923.223	7.15	932945	PROB	7.15	n/a	n/a	-999	7	[9, 6, 5]	20	FR1	2	R1170J
930.373	9.152	940095	PROB	9.152	n/a	n/a	-999	7	[9, 3, 5]	17	FR1	2	R1170J
939.525	8.962	949247	PROB	8.962	n/a	n/a	-999	7	[6, 9, 6]	21	FR1	2	R1170J
948.487	0.006	958209	STOP	n/a	n/a	n/a	-999	7	[-999, -999, -999]	n/a	FR1	2	R1170J
948.493	0.567	958215	DISTRACT_END	n/a	n/a	n/a	-999	7	[0, 0, 0]	n/a	FR1	2	R1170J
949.06	0.517	958782	RETRIEVAL_ORIENT	n/a	n/a	n/a	-999	7	[0, 0, 0]	n/a	FR1	2	R1170J
949.577	1.335	959299	REC_START	n/a	n/a	n/a	-999	7	[0, 0, 0]	n/a	FR1	2	R1170J
950.912	2.058	960634	REC_WORD_VV	2.058	n/a	<>	-999	7	[0, 0, 0]	n/a	FR1	2	R1170J
952.97	2.988	962692	REC_WORD	2.988	n/a	STOVE	-999	7	[0, 0, 0]	n/a	FR1	2	R1170J
955.958	3.2	965679	REC_WORD	3.2	n/a	PRICK	-999	7	[0, 0, 0]	n/a	FR1	2	R1170J
959.158	20.431	968879	REC_WORD	20.431	n/a	HOT	-999	7	[0, 0, 0]	n/a	FR1	2	R1170J
979.589	5.625	989310	REC_END	n/a	n/a	n/a	-999	7	[0, 0, 0]	n/a	FR1	2	R1170J
985.214	0.5	994935	TRIAL	n/a	n/a	n/a	-999	8	[0, 0, 0]	n/a	FR1	2	R1170J
985.714	10.428	995435	COUNTDOWN_START	n/a	n/a	n/a	-999	8	[0, 0, 0]	n/a	FR1	2	R1170J
996.142	0.007	1005863	COUNTDOWN_END	n/a	n/a	n/a	-999	8	[0, 0, 0]	n/a	FR1	2	R1170J
996.149	1.617	1005870	ORIENT	n/a	n/a	n/a	-999	8	[0, 0, 0]	n/a	FR1	2	R1170J
997.766	1.967	1007487	ORIENT_OFF	n/a	n/a	n/a	-999	8	[0, 0, 0]	n/a	FR1	2	R1170J
999.733	1.616	1009454	WORD	n/a	wordpools/wordpool_EN.txt	CAR	1	8	[0, 0, 0]	n/a	FR1	2	R1170J
1001.349	0.785	1011070	WORD_OFF	n/a	n/a	CAR	1	8	[0, 0, 0]	n/a	FR1	2	R1170J
1002.134	1.616	1011855	WORD	n/a	wordpools/wordpool_EN.txt	ROSE	2	8	[0, 0, 0]	n/a	FR1	2	R1170J
1003.75	0.917	1013471	WORD_OFF	n/a	n/a	ROSE	2	8	[0, 0, 0]	n/a	FR1	2	R1170J
1004.667	1.617	1014388	WORD	n/a	wordpools/wordpool_EN.txt	FOX	3	8	[0, 0, 0]	n/a	FR1	2	R1170J
1006.284	0.917	1016005	WORD_OFF	n/a	n/a	FOX	3	8	[0, 0, 0]	n/a	FR1	2	R1170J
1007.201	1.617	1016922	WORD	n/a	wordpools/wordpool_EN.txt	PEN	4	8	[0, 0, 0]	n/a	FR1	2	R1170J
1008.818	0.9	1018539	WORD_OFF	n/a	n/a	PEN	4	8	[0, 0, 0]	n/a	FR1	2	R1170J
1009.718	1.616	1019439	WORD	n/a	wordpools/wordpool_EN.txt	ROAD	5	8	[0, 0, 0]	n/a	FR1	2	R1170J
1011.334	0.784	1021055	WORD_OFF	n/a	n/a	ROAD	5	8	[0, 0, 0]	n/a	FR1	2	R1170J
1012.118	1.617	1021839	WORD	n/a	wordpools/wordpool_EN.txt	MULE	6	8	[0, 0, 0]	n/a	FR1	2	R1170J
1013.735	1.0	1023456	WORD_OFF	n/a	n/a	MULE	6	8	[0, 0, 0]	n/a	FR1	2	R1170J
1014.735	1.616	1024456	WORD	n/a	wordpools/wordpool_EN.txt	BEAK	7	8	[0, 0, 0]	n/a	FR1	2	R1170J
1016.351	0.868	1026072	WORD_OFF	n/a	n/a	BEAK	7	8	[0, 0, 0]	n/a	FR1	2	R1170J
1017.219	1.617	1026940	WORD	n/a	wordpools/wordpool_EN.txt	PIPE	8	8	[0, 0, 0]	n/a	FR1	2	R1170J
1018.836	0.816	1028556	WORD_OFF	n/a	n/a	PIPE	8	8	[0, 0, 0]	n/a	FR1	2	R1170J
1019.652	1.617	1029372	WORD	n/a	wordpools/wordpool_EN.txt	CLOCK	9	8	[0, 0, 0]	n/a	FR1	2	R1170J
1021.269	0.784	1030989	WORD_OFF	n/a	n/a	CLOCK	9	8	[0, 0, 0]	n/a	FR1	2	R1170J
1022.053	1.617	1031773	WORD	n/a	wordpools/wordpool_EN.txt	BATH	10	8	[0, 0, 0]	n/a	FR1	2	R1170J
1023.67	0.8	1033390	WORD_OFF	n/a	n/a	BATH	10	8	[0, 0, 0]	n/a	FR1	2	R1170J
1024.47	1.617	1034190	WORD	n/a	wordpools/wordpool_EN.txt	BOY	11	8	[0, 0, 0]	n/a	FR1	2	R1170J
1026.087	0.917	1035807	WORD_OFF	n/a	n/a	BOY	11	8	[0, 0, 0]	n/a	FR1	2	R1170J
1027.004	1.617	1036724	WORD	n/a	wordpools/wordpool_EN.txt	HOUSE	12	8	[0, 0, 0]	n/a	FR1	2	R1170J
1028.621	0.0	1038341	WORD_OFF	n/a	n/a	HOUSE	12	8	[0, 0, 0]	n/a	FR1	2	R1170J
1028.621	0.0	1038341	DISTRACT_START	n/a	n/a	n/a	-999	8	[0, 0, 0]	n/a	FR1	2	R1170J
1028.621	0.016	1038341	START	n/a	n/a	n/a	-999	8	[-999, -999, -999]	n/a	FR1	2	R1170J
1028.637	8.784	1038357	PROB	8.784	n/a	n/a	-999	8	[6, 4, 6]	16	FR1	2	R1170J
1037.421	3.934	1047141	PROB	3.934	n/a	n/a	-999	8	[9, 9, 5]	23	FR1	2	R1170J
1041.355	6.301	1051075	PROB	6.301	n/a	n/a	-999	8	[5, 6, 3]	14	FR1	2	R1170J
1047.656	3.884	1057376	PROB	3.884	n/a	n/a	-999	8	[8, 5, 3]	16	FR1	2	R1170J
1051.54	0.017	1061260	STOP	n/a	n/a	n/a	-999	8	[-999, -999, -999]	n/a	FR1	2	R1170J
1051.557	0.667	1061277	DISTRACT_END	n/a	n/a	n/a	-999	8	[0, 0, 0]	n/a	FR1	2	R1170J
1052.224	0.517	1061944	RETRIEVAL_ORIENT	n/a	n/a	n/a	-999	8	[0, 0, 0]	n/a	FR1	2	R1170J
1052.741	1.466	1062461	REC_START	n/a	n/a	n/a	-999	8	[0, 0, 0]	n/a	FR1	2	R1170J
1054.207	0.935	1063927	REC_WORD_VV	0.935	n/a	<>	-999	8	[0, 0, 0]	n/a	FR1	2	R1170J
1055.142	2.027	1064862	REC_WORD	2.027	n/a	SNAKE	-999	8	[0, 0, 0]	n/a	FR1	2	R1170J
1057.169	9.718	1066889	REC_WORD_VV	9.718	n/a	<>	-999	8	[0, 0, 0]	n/a	FR1	2	R1170J
1066.887	1.0	1076607	REC_WORD_VV	1.0	n/a	<>	-999	8	[0, 0, 0]	n/a	FR1	2	R1170J
1067.887	1.922	1077607	REC_WORD_VV	1.922	n/a	<>	-999	8	[0, 0, 0]	n/a	FR1	2	R1170J
1069.809	7.666	1079529	REC_WORD	7.666	n/a	FOX	-999	8	[0, 0, 0]	n/a	FR1	2	R1170J
1077.475	5.276	1087195	REC_WORD_VV	5.276	n/a	<>	-999	8	[0, 0, 0]	n/a	FR1	2	R1170J
1082.751	6.044	1092471	REC_END	n/a	n/a	n/a	-999	8	[0, 0, 0]	n/a	FR1	2	R1170J
1088.795	0.5	1098514	TRIAL	n/a	n/a	n/a	-999	9	[0, 0, 0]	n/a	FR1	2	R1170J
1089.295	10.428	1099014	COUNTDOWN_START	n/a	n/a	n/a	-999	9	[0, 0, 0]	n/a	FR1	2	R1170J
1099.723	0.007	1109442	COUNTDOWN_END	n/a	n/a	n/a	-999	9	[0, 0, 0]	n/a	FR1	2	R1170J
1099.73	1.616	1109449	ORIENT	n/a	n/a	n/a	-999	9	[0, 0, 0]	n/a	FR1	2	R1170J
1101.346	2.134	1111065	ORIENT_OFF	n/a	n/a	n/a	-999	9	[0, 0, 0]	n/a	FR1	2	R1170J
1103.48	1.617	1113199	WORD	n/a	wordpools/wordpool_EN.txt	SHARK	1	9	[0, 0, 0]	n/a	FR1	2	R1170J
1105.097	0.8	1114816	WORD_OFF	n/a	n/a	SHARK	1	9	[0, 0, 0]	n/a	FR1	2	R1170J
1105.897	1.617	1115616	WORD	n/a	wordpools/wordpool_EN.txt	FORK	2	9	[0, 0, 0]	n/a	FR1	2	R1170J
1107.514	0.899	1117233	WORD_OFF	n/a	n/a	FORK	2	9	[0, 0, 0]	n/a	FR1	2	R1170J
1108.413	1.618	1118132	WORD	n/a	wordpools/wordpool_EN.txt	PIT	3	9	[0, 0, 0]	n/a	FR1	2	R1170J
1110.031	0.984	1119750	WORD_OFF	n/a	n/a	PIT	3	9	[0, 0, 0]	n/a	FR1	2	R1170J
1111.015	1.617	1120734	WORD	n/a	wordpools/wordpool_EN.txt	MUD	4	9	[0, 0, 0]	n/a	FR1	2	R1170J
1112.632	0.983	1122351	WORD_OFF	n/a	n/a	MUD	4	9	[0, 0, 0]	n/a	FR1	2	R1170J
1113.615	1.617	1123334	WORD	n/a	wordpools/wordpool_EN.txt	CHIN	5	9	[0, 0, 0]	n/a	FR1	2	R1170J
1115.232	0.8	1124951	WORD_OFF	n/a	n/a	CHIN	5	9	[0, 0, 0]	n/a	FR1	2	R1170J
1116.032	1.617	1125751	WORD	n/a	wordpools/wordpool_EN.txt	EAR	6	9	[0, 0, 0]	n/a	FR1	2	R1170J
1117.649	0.85	1127368	WORD_OFF	n/a	n/a	EAR	6	9	[0, 0, 0]	n/a	FR1	2	R1170J
1118.499	1.617	1128218	WORD	n/a	wordpools/wordpool_EN.txt	SHIRT	7	9	[0, 0, 0]	n/a	FR1	2	R1170J
1120.116	0.9	1129835	WORD_OFF	n/a	n/a	SHIRT	7	9	[0, 0, 0]	n/a	FR1	2	R1170J
1121.016	1.617	1130735	WORD	n/a	wordpools/wordpool_EN.txt	SMILE	8	9	[0, 0, 0]	n/a	FR1	2	R1170J
1122.633	0.799	1132352	WORD_OFF	n/a	n/a	SMILE	8	9	[0, 0, 0]	n/a	FR1	2	R1170J
1123.432	1.601	1133151	WORD	n/a	wordpools/wordpool_EN.txt	MAT	9	9	[0, 0, 0]	n/a	FR1	2	R1170J
1125.033	0.867	1134752	WORD_OFF	n/a	n/a	MAT	9	9	[0, 0, 0]	n/a	FR1	2	R1170J
1125.9	1.617	1135619	WORD	n/a	wordpools/wordpool_EN.txt	GRAPE	10	9	[0, 0, 0]	n/a	FR1	2	R1170J
1127.517	0.767	1137236	WORD_OFF	n/a	n/a	GRAPE	10	9	[0, 0, 0]	n/a	FR1	2	R1170J
1128.284	1.617	1138003	WORD	n/a	wordpools/wordpool_EN.txt	CUP	11	9	[0, 0, 0]	n/a	FR1	2	R1170J
1129.901	0.867	1139620	WORD_OFF	n/a	n/a	CUP	11	9	[0, 0, 0]	n/a	FR1	2	R1170J
1130.768	1.615	1140487	WORD	n/a	wordpools/wordpool_EN.txt	CAVE	12	9	[0, 0, 0]	n/a	FR1	2	R1170J
1132.383	0.0	1142102	WORD_OFF	n/a	n/a	CAVE	12	9	[0, 0, 0]	n/a	FR1	2	R1170J
1132.383	0.001	1142102	DISTRACT_START	n/a	n/a	n/a	-999	9	[0, 0, 0]	n/a	FR1	2	R1170J
1132.384	0.016	1142103	START	n/a	n/a	n/a	-999	9	[-999, -999, -999]	n/a	FR1	2	R1170J
1132.4	4.652	1142119	PROB	4.652	n/a	n/a	-999	9	[9, 6, 7]	24	FR1	2	R1170J
1137.052	4.033	1146771	PROB	4.033	n/a	n/a	-999	9	[9, 4, 8]	21	FR1	2	R1170J
1141.085	2.501	1150804	PROB	2.501	n/a	n/a	-999	9	[6, 1, 4]	11	FR1	2	R1170J
1143.586	3.451	1153305	PROB	3.451	n/a	n/a	-999	9	[5, 9, 2]	16	FR1	2	R1170J
1147.037	3.633	1156756	PROB	3.633	n/a	n/a	-999	9	[8, 8, 6]	22	FR1	2	R1170J
1150.67	3.234	1160388	PROB	3.234	n/a	n/a	-999	9	[7, 4, 7]	18	FR1	2	R1170J
1153.904	0.017	1163622	STOP	n/a	n/a	n/a	-999	9	[-999, -999, -999]	n/a	FR1	2	R1170J
1153.921	0.55	1163639	DISTRACT_END	n/a	n/a	n/a	-999	9	[0, 0, 0]	n/a	FR1	2	R1170J
1154.471	0.518	1164189	RETRIEVAL_ORIENT	n/a	n/a	n/a	-999	9	[0, 0, 0]	n/a	FR1	2	R1170J
1154.989	0.153	1164707	REC_START	n/a	n/a	n/a	-999	9	[0, 0, 0]	n/a	FR1	2	R1170J
1155.142	1.0	1164860	REC_WORD	1.0	n/a	SHARK	-999	9	[0, 0, 0]	n/a	FR1	2	R1170J
1156.142	4.802	1165860	REC_WORD_VV	4.802	n/a	<>	-999	9	[0, 0, 0]	n/a	FR1	2	R1170J
1160.944	1.0	1170662	REC_WORD_VV	1.0	n/a	<>	-999	9	[0, 0, 0]	n/a	FR1	2	R1170J
1161.944	3.512	1171662	REC_WORD_VV	3.512	n/a	<>	-999	9	[0, 0, 0]	n/a	FR1	2	R1170J
1165.456	8.311	1175174	REC_WORD	8.311	n/a	BIRD	-999	9	[0, 0, 0]	n/a	FR1	2	R1170J
1173.767	11.232	1183485	REC_WORD_VV	11.232	n/a	<>	-999	9	[0, 0, 0]	n/a	FR1	2	R1170J
1184.999	13.293	1194717	REC_END	n/a	n/a	n/a	-999	9	[0, 0, 0]	n/a	FR1	2	R1170J
1198.292	0.5	1208010	TRIAL	n/a	n/a	n/a	-999	10	[0, 0, 0]	n/a	FR1	2	R1170J
1198.792	10.428	1208510	COUNTDOWN_START	n/a	n/a	n/a	-999	10	[0, 0, 0]	n/a	FR1	2	R1170J
1209.22	0.008	1218938	COUNTDOWN_END	n/a	n/a	n/a	-999	10	[0, 0, 0]	n/a	FR1	2	R1170J
1209.228	1.617	1218946	ORIENT	n/a	n/a	n/a	-999	10	[0, 0, 0]	n/a	FR1	2	R1170J
1210.845	2.167	1220563	ORIENT_OFF	n/a	n/a	n/a	-999	10	[0, 0, 0]	n/a	FR1	2	R1170J
1213.012	1.617	1222730	WORD	n/a	wordpools/wordpool_EN.txt	CLIFF	1	10	[0, 0, 0]	n/a	FR1	2	R1170J
1214.629	0.967	1224347	WORD_OFF	n/a	n/a	CLIFF	1	10	[0, 0, 0]	n/a	FR1	2	R1170J
1215.596	1.617	1225313	WORD	n/a	wordpools/wordpool_EN.txt	GLOVE	2	10	[0, 0, 0]	n/a	FR1	2	R1170J
1217.213	0.766	1226930	WORD_OFF	n/a	n/a	GLOVE	2	10	[0, 0, 0]	n/a	FR1	2	R1170J
1217.979	1.617	1227696	WORD	n/a	wordpools/wordpool_EN.txt	BAT	3	10	[0, 0, 0]	n/a	FR1	2	R1170J
1219.596	0.967	1229313	WORD_OFF	n/a	n/a	BAT	3	10	[0, 0, 0]	n/a	FR1	2	R1170J
1220.563	1.617	1230280	WORD	n/a	wordpools/wordpool_EN.txt	GUARD	4	10	[0, 0, 0]	n/a	FR1	2	R1170J
1222.18	0.95	1231897	WORD_OFF	n/a	n/a	GUARD	4	10	[0, 0, 0]	n/a	FR1	2	R1170J
1223.13	1.617	1232847	WORD	n/a	wordpools/wordpool_EN.txt	THREAD	5	10	[0, 0, 0]	n/a	FR1	2	R1170J
1224.747	0.883	1234464	WORD_OFF	n/a	n/a	THREAD	5	10	[0, 0, 0]	n/a	FR1	2	R1170J
1225.63	1.617	1235347	WORD	n/a	wordpools/wordpool_EN.txt	LEG	6	10	[0, 0, 0]	n/a	FR1	2	R1170J
1227.247	0.817	1236964	WORD_OFF	n/a	n/a	LEG	6	10	[0, 0, 0]	n/a	FR1	2	R1170J
1228.064	1.617	1237781	WORD	n/a	wordpools/wordpool_EN.txt	TOOL	7	10	[0, 0, 0]	n/a	FR1	2	R1170J
1229.681	0.765	1239398	WORD_OFF	n/a	n/a	TOOL	7	10	[0, 0, 0]	n/a	FR1	2	R1170J
1230.446	1.602	1240163	WORD	n/a	wordpools/wordpool_EN.txt	WORM	8	10	[0, 0, 0]	n/a	FR1	2	R1170J
1232.048	0.8	1241765	WORD_OFF	n/a	n/a	WORM	8	10	[0, 0, 0]	n/a	FR1	2	R1170J
1232.848	1.617	1242565	WORD	n/a	wordpools/wordpool_EN.txt	SLIME	9	10	[0, 0, 0]	n/a	FR1	2	R1170J
1234.465	0.832	1244182	WORD_OFF	n/a	n/a	SLIME	9	10	[0, 0, 0]	n/a	FR1	2	R1170J
1235.297	1.618	1245014	WORD	n/a	wordpools/wordpool_EN.txt	STRING	10	10	[0, 0, 0]	n/a	FR1	2	R1170J
1236.915	0.85	1246632	WORD_OFF	n/a	n/a	STRING	10	10	[0, 0, 0]	n/a	FR1	2	R1170J
1237.765	1.616	1247482	WORD	n/a	wordpools/wordpool_EN.txt	BRUSH	11	10	[0, 0, 0]	n/a	FR1	2	R1170J
1239.381	0.983	1249098	WORD_OFF	n/a	n/a	BRUSH	11	10	[0, 0, 0]	n/a	FR1	2	R1170J
1240.364	1.619	1250081	WORD	n/a	wordpools/wordpool_EN.txt	DITCH	12	10	[0, 0, 0]	n/a	FR1	2	R1170J
1241.983	0.0	1251700	DISTRACT_START	n/a	n/a	n/a	-999	10	[0, 0, 0]	n/a	FR1	2	R1170J
1241.983	0.0	1251700	WORD_OFF	n/a	n/a	DITCH	12	10	[0, 0, 0]	n/a	FR1	2	R1170J
1241.983	0.016	1251700	START	n/a	n/a	n/a	-999	10	[-999, -999, -999]	n/a	FR1	2	R1170J
1241.999	4.433	1251716	PROB	4.433	n/a	n/a	-999	10	[3, 7, 8]	18	FR1	2	R1170J
1246.432	6.468	1256149	PROB	6.468	n/a	n/a	-999	10	[7, 1, 6]	14	FR1	2	R1170J
1252.9	5.985	1262617	PROB	5.985	n/a	n/a	-999	10	[8, 9, 9]	26	FR1	2	R1170J
1258.885	3.159	1268602	PROB	3.159	n/a	n/a	-999	10	[1, 8, 2]	11	FR1	2	R1170J
1262.044	0.008	1271761	STOP	n/a	n/a	n/a	-999	10	[-999, -999, -999]	n/a	FR1	2	R1170J
1262.052	0.65	1271769	DISTRACT_END	n/a	n/a	n/a	-999	10	[0, 0, 0]	n/a	FR1	2	R1170J
1262.702	0.518	1272419	RETRIEVAL_ORIENT	n/a	n/a	n/a	-999	10	[0, 0, 0]	n/a	FR1	2	R1170J
1263.22	2.25	1272937	REC_START	n/a	n/a	n/a	-999	10	[0, 0, 0]	n/a	FR1	2	R1170J
1265.47	1.827	1275187	REC_WORD	1.827	n/a	LEG	-999	10	[0, 0, 0]	n/a	FR1	2	R1170J
1267.297	1.0	1277014	REC_WORD_VV	1.0	n/a	<>	-999	10	[0, 0, 0]	n/a	FR1	2	R1170J
1268.297	1.0	1278014	REC_WORD_VV	1.0	n/a	<>	-999	10	[0, 0, 0]	n/a	FR1	2	R1170J
1269.297	1.0	1279014	REC_WORD_VV	1.0	n/a	<>	-999	10	[0, 0, 0]	n/a	FR1	2	R1170J
1270.297	6.051	1280014	REC_WORD_VV	6.051	n/a	<>	-999	10	[0, 0, 0]	n/a	FR1	2	R1170J
1276.348	1.0	1286065	REC_WORD_VV	1.0	n/a	<>	-999	10	[0, 0, 0]	n/a	FR1	2	R1170J
1277.348	4.884	1287065	REC_WORD_VV	4.884	n/a	<>	-999	10	[0, 0, 0]	n/a	FR1	2	R1170J
1282.232	3.097	1291948	REC_WORD_VV	3.097	n/a	<>	-999	10	[0, 0, 0]	n/a	FR1	2	R1170J
1285.329	1.0	1295045	REC_WORD_VV	1.0	n/a	<>	-999	10	[0, 0, 0]	n/a	FR1	2	R1170J
1286.329	6.901	1296045	REC_WORD_VV	6.901	n/a	<>	-999	10	[0, 0, 0]	n/a	FR1	2	R1170J
1293.23	6.527	1302946	REC_END	n/a	n/a	n/a	-999	10	[0, 0, 0]	n/a	FR1	2	R1170J
1299.757	0.5	1309473	TRIAL	n/a	n/a	n/a	-999	11	[0, 0, 0]	n/a	FR1	2	R1170J
1300.257	10.428	1309973	COUNTDOWN_START	n/a	n/a	n/a	-999	11	[0, 0, 0]	n/a	FR1	2	R1170J
1310.685	0.007	1320401	COUNTDOWN_END	n/a	n/a	n/a	-999	11	[0, 0, 0]	n/a	FR1	2	R1170J
1310.692	1.616	1320408	ORIENT	n/a	n/a	n/a	-999	11	[0, 0, 0]	n/a	FR1	2	R1170J
1312.308	2.083	1322024	ORIENT_OFF	n/a	n/a	n/a	-999	11	[0, 0, 0]	n/a	FR1	2	R1170J
1314.391	1.601	1324107	WORD	n/a	wordpools/wordpool_EN.txt	JUICE	1	11	[0, 0, 0]	n/a	FR1	2	R1170J
1315.992	0.767	1325708	WORD_OFF	n/a	n/a	JUICE	1	11	[0, 0, 0]	n/a	FR1	2	R1170J
1316.759	1.616	1326475	WORD	n/a	wordpools/wordpool_EN.txt	RAKE	2	11	[0, 0, 0]	n/a	FR1	2	R1170J
1318.375	0.967	1328091	WORD_OFF	n/a	n/a	RAKE	2	11	[0, 0, 0]	n/a	FR1	2	R1170J
1319.342	1.618	1329058	WORD	n/a	wordpools/wordpool_EN.txt	CUBE	3	11	[0, 0, 0]	n/a	FR1	2	R1170J
1320.96	0.867	1330676	WORD_OFF	n/a	n/a	CUBE	3	11	[0, 0, 0]	n/a	FR1	2	R1170J
1321.827	1.615	1331543	WORD	n/a	wordpools/wordpool_EN.txt	WEB	4	11	[0, 0, 0]	n/a	FR1	2	R1170J
1323.442	0.835	1333158	WORD_OFF	n/a	n/a	WEB	4	11	[0, 0, 0]	n/a	FR1	2	R1170J
1324.277	1.617	1333993	WORD	n/a	wordpools/wordpool_EN.txt	TAIL	5	11	[0, 0, 0]	n/a	FR1	2	R1170J
1325.894	0.8	1335610	WORD_OFF	n/a	n/a	TAIL	5	11	[0, 0, 0]	n/a	FR1	2	R1170J
1326.694	1.616	1336410	WORD	n/a	wordpools/wordpool_EN.txt	SOUP	6	11	[0, 0, 0]	n/a	FR1	2	R1170J
1328.31	0.868	1338026	WORD_OFF	n/a	n/a	SOUP	6	11	[0, 0, 0]	n/a	FR1	2	R1170J
1329.178	1.617	1338894	WORD	n/a	wordpools/wordpool_EN.txt	BEAN	7	11	[0, 0, 0]	n/a	FR1	2	R1170J
1330.795	0.967	1340511	WORD_OFF	n/a	n/a	BEAN	7	11	[0, 0, 0]	n/a	FR1	2	R1170J
1331.762	1.615	1341478	WORD	n/a	wordpools/wordpool_EN.txt	TOAD	8	11	[0, 0, 0]	n/a	FR1	2	R1170J
1333.377	1.0	1343093	WORD_OFF	n/a	n/a	TOAD	8	11	[0, 0, 0]	n/a	FR1	2	R1170J
1334.377	1.601	1344093	WORD	n/a	wordpools/wordpool_EN.txt	DUCK	9	11	[0, 0, 0]	n/a	FR1	2	R1170J
1335.978	0.917	1345694	WORD_OFF	n/a	n/a	DUCK	9	11	[0, 0, 0]	n/a	FR1	2	R1170J
1336.895	1.617	1346611	WORD	n/a	wordpools/wordpool_EN.txt	CLAY	10	11	[0, 0, 0]	n/a	FR1	2	R1170J
1338.512	0.967	1348228	WORD_OFF	n/a	n/a	CLAY	10	11	[0, 0, 0]	n/a	FR1	2	R1170J
1339.479	1.617	1349195	WORD	n/a	wordpools/wordpool_EN.txt	RAT	11	11	[0, 0, 0]	n/a	FR1	2	R1170J
1341.096	0.833	1350812	WORD_OFF	n/a	n/a	RAT	11	11	[0, 0, 0]	n/a	FR1	2	R1170J
1341.929	1.617	1351645	WORD	n/a	wordpools/wordpool_EN.txt	SINK	12	11	[0, 0, 0]	n/a	FR1	2	R1170J
1343.546	0.0	1353262	WORD_OFF	n/a	n/a	SINK	12	11	[0, 0, 0]	n/a	FR1	2	R1170J
1343.546	0.001	1353262	DISTRACT_START	n/a	n/a	n/a	-999	11	[0, 0, 0]	n/a	FR1	2	R1170J
1343.547	0.016	1353263	START	n/a	n/a	n/a	-999	11	[-999, -999, -999]	n/a	FR1	2	R1170J
1343.563	4.2	1353279	PROB	4.2	n/a	n/a	-999	11	[7, 7, 3]	17	FR1	2	R1170J
1347.763	7.185	1357478	PROB	7.185	n/a	n/a	-999	11	[7, 5, 5]	17	FR1	2	R1170J
1354.948	3.583	1364663	PROB	3.583	n/a	n/a	-999	11	[3, 1, 6]	10	FR1	2	R1170J
1358.531	3.301	1368246	PROB	3.301	n/a	n/a	-999	11	[6, 9, 4]	19	FR1	2	R1170J
1361.832	2.937	1371547	PROB	2.937	n/a	n/a	-999	11	[3, 3, 3]	9	FR1	2	R1170J
1364.769	0.013	1374484	STOP	n/a	n/a	n/a	-999	11	[-999, -999, -999]	n/a	FR1	2	R1170J
1364.782	0.633	1374497	DISTRACT_END	n/a	n/a	n/a	-999	11	[0, 0, 0]	n/a	FR1	2	R1170J
1365.415	0.518	1375130	RETRIEVAL_ORIENT	n/a	n/a	n/a	-999	11	[0, 0, 0]	n/a	FR1	2	R1170J
1365.933	0.0	1375648	REC_START	n/a	n/a	n/a	-999	11	[0, 0, 0]	n/a	FR1	2	R1170J
1365.933	5.201	1375648	REC_WORD_VV	5.201	n/a	<>	-999	11	[0, 0, 0]	n/a	FR1	2	R1170J
1371.134	3.914	1380849	REC_WORD_VV	3.914	n/a	<>	-999	11	[0, 0, 0]	n/a	FR1	2	R1170J
1375.048	2.263	1384763	REC_WORD	2.263	n/a	FOX	-999	11	[0, 0, 0]	n/a	FR1	2	R1170J
1377.311	2.056	1387026	REC_WORD	2.056	n/a	TUB	-999	11	[0, 0, 0]	n/a	FR1	2	R1170J
1379.367	2.903	1389082	REC_WORD	2.903	n/a	LIZARD	-999	11	[0, 0, 0]	n/a	FR1	2	R1170J
1382.27	0.899	1391985	REC_WORD_VV	0.899	n/a	<>	-999	11	[0, 0, 0]	n/a	FR1	2	R1170J
1383.169	3.103	1392884	REC_WORD	3.103	n/a	SKY	-999	11	[0, 0, 0]	n/a	FR1	2	R1170J
1386.272	2.089	1395987	REC_WORD	2.089	n/a	TENT	-999	11	[0, 0, 0]	n/a	FR1	2	R1170J
1388.361	2.864	1398076	REC_WORD	2.864	n/a	FOREST	-999	11	[0, 0, 0]	n/a	FR1	2	R1170J
1391.225	2.752	1400940	REC_WORD	2.752	n/a	RISK	-999	11	[0, 0, 0]	n/a	FR1	2	R1170J
1393.977	1.966	1403692	REC_WORD	1.966	n/a	NAIL	-999	11	[0, 0, 0]	n/a	FR1	2	R1170J
1395.943	5.028	1405658	REC_END	n/a	n/a	n/a	-999	11	[0, 0, 0]	n/a	FR1	2	R1170J
1400.971	0.5	1410686	TRIAL	n/a	n/a	n/a	-999	12	[0, 0, 0]	n/a	FR1	2	R1170J
1401.471	10.428	1411186	COUNTDOWN_START	n/a	n/a	n/a	-999	12	[0, 0, 0]	n/a	FR1	2	R1170J
1411.899	0.007	1421614	COUNTDOWN_END	n/a	n/a	n/a	-999	12	[0, 0, 0]	n/a	FR1	2	R1170J
1411.906	1.616	1421621	ORIENT	n/a	n/a	n/a	-999	12	[0, 0, 0]	n/a	FR1	2	R1170J
1413.522	2.334	1423236	ORIENT_OFF	n/a	n/a	n/a	-999	12	[0, 0, 0]	n/a	FR1	2	R1170J
1415.856	1.617	1425570	WORD	n/a	wordpools/wordpool_EN.txt	PEARL	1	12	[0, 0, 0]	n/a	FR1	2	R1170J
1417.473	0.982	1427187	WORD_OFF	n/a	n/a	PEARL	1	12	[0, 0, 0]	n/a	FR1	2	R1170J
1418.455	1.618	1428169	WORD	n/a	wordpools/wordpool_EN.txt	SWORD	2	12	[0, 0, 0]	n/a	FR1	2	R1170J
1420.073	1.0	1429787	WORD_OFF	n/a	n/a	SWORD	2	12	[0, 0, 0]	n/a	FR1	2	R1170J
1421.073	1.617	1430787	WORD	n/a	wordpools/wordpool_EN.txt	FOOD	3	12	[0, 0, 0]	n/a	FR1	2	R1170J
1422.69	0.883	1432404	WORD_OFF	n/a	n/a	FOOD	3	12	[0, 0, 0]	n/a	FR1	2	R1170J
1423.573	1.617	1433287	WORD	n/a	wordpools/wordpool_EN.txt	FROG	4	12	[0, 0, 0]	n/a	FR1	2	R1170J
1425.19	0.951	1434904	WORD_OFF	n/a	n/a	FROG	4	12	[0, 0, 0]	n/a	FR1	2	R1170J
1426.141	1.616	1435855	WORD	n/a	wordpools/wordpool_EN.txt	TEA	5	12	[0, 0, 0]	n/a	FR1	2	R1170J
1427.757	0.867	1437471	WORD_OFF	n/a	n/a	TEA	5	12	[0, 0, 0]	n/a	FR1	2	R1170J
1428.624	1.617	1438338	WORD	n/a	wordpools/wordpool_EN.txt	RICE	6	12	[0, 0, 0]	n/a	FR1	2	R1170J
1430.241	0.9	1439955	WORD_OFF	n/a	n/a	RICE	6	12	[0, 0, 0]	n/a	FR1	2	R1170J
1431.141	1.617	1440855	WORD	n/a	wordpools/wordpool_EN.txt	DRESS	7	12	[0, 0, 0]	n/a	FR1	2	R1170J
1432.758	0.867	1442472	WORD_OFF	n/a	n/a	DRESS	7	12	[0, 0, 0]	n/a	FR1	2	R1170J
1433.625	1.617	1443339	WORD	n/a	wordpools/wordpool_EN.txt	LAMP	8	12	[0, 0, 0]	n/a	FR1	2	R1170J
1435.242	1.0	1444956	WORD_OFF	n/a	n/a	LAMP	8	12	[0, 0, 0]	n/a	FR1	2	R1170J
1436.242	1.617	1445956	WORD	n/a	wordpools/wordpool_EN.txt	CROW	9	12	[0, 0, 0]	n/a	FR1	2	R1170J
1437.859	0.883	1447573	WORD_OFF	n/a	n/a	CROW	9	12	[0, 0, 0]	n/a	FR1	2	R1170J
1438.742	1.616	1448456	WORD	n/a	wordpools/wordpool_EN.txt	LAND	10	12	[0, 0, 0]	n/a	FR1	2	R1170J
1440.358	0.934	1450072	WORD_OFF	n/a	n/a	LAND	10	12	[0, 0, 0]	n/a	FR1	2	R1170J
1441.292	1.617	1451006	WORD	n/a	wordpools/wordpool_EN.txt	LAMB	11	12	[0, 0, 0]	n/a	FR1	2	R1170J
1442.909	0.934	1452623	WORD_OFF	n/a	n/a	LAMB	11	12	[0, 0, 0]	n/a	FR1	2	R1170J
1443.843	1.617	1453557	WORD	n/a	wordpools/wordpool_EN.txt	CHIEF	12	12	[0, 0, 0]	n/a	FR1	2	R1170J
1445.46	0.0	1455174	WORD_OFF	n/a	n/a	CHIEF	12	12	[0, 0, 0]	n/a	FR1	2	R1170J
1445.46	0.0	1455174	DISTRACT_START	n/a	n/a	n/a	-999	12	[0, 0, 0]	n/a	FR1	2	R1170J
1445.46	0.016	1455174	START	n/a	n/a	n/a	-999	12	[-999, -999, -999]	n/a	FR1	2	R1170J
1445.476	4.551	1455190	PROB	4.551	n/a	n/a	-999	12	[4, 9, 5]	18	FR1	2	R1170J
1450.027	2.933	1459741	PROB	2.933	n/a	n/a	-999	12	[3, 2, 7]	12	FR1	2	R1170J
1452.96	4.284	1462674	PROB	4.284	n/a	n/a	-999	12	[6, 9, 4]	22	FR1	2	R1170J
1457.244	5.951	1466958	PROB	5.951	n/a	n/a	-999	12	[9, 3, 5]	17	FR1	2	R1170J
1463.195	2.889	1472909	PROB	2.889	n/a	n/a	-999	12	[1, 6, 2]	9	FR1	2	R1170J
1466.084	0.012	1475798	STOP	n/a	n/a	n/a	-999	12	[-999, -999, -999]	n/a	FR1	2	R1170J
1466.096	0.55	1475810	DISTRACT_END	n/a	n/a	n/a	-999	12	[0, 0, 0]	n/a	FR1	2	R1170J
1466.646	0.517	1476360	RETRIEVAL_ORIENT	n/a	n/a	n/a	-999	12	[0, 0, 0]	n/a	FR1	2	R1170J
1467.163	2.569	1476877	REC_START	n/a	n/a	n/a	-999	12	[0, 0, 0]	n/a	FR1	2	R1170J
1469.732	3.605	1479446	REC_WORD	3.605	n/a	SWORD	-999	12	[0, 0, 0]	n/a	FR1	2	R1170J
1473.337	1.156	1483051	REC_WORD_VV	1.156	n/a	<>	-999	12	[0, 0, 0]	n/a	FR1	2	R1170J
1474.493	0.105	1484207	REC_WORD_VV	0.105	n/a	<>	-999	12	[0, 0, 0]	n/a	FR1	2	R1170J
1474.598	6.59	1484312	REC_WORD	6.59	n/a	RICE	-999	12	[0, 0, 0]	n/a	FR1	2	R1170J
1481.188	2.417	1490901	REC_WORD	2.417	n/a	COTTON	-999	12	[0, 0, 0]	n/a	FR1	2	R1170J
1483.605	1.419	1493318	REC_WORD	1.419	n/a	TALL	-999	12	[0, 0, 0]	n/a	FR1	2	R1170J
1485.024	3.172	1494737	REC_WORD	3.172	n/a	THIN	-999	12	[0, 0, 0]	n/a	FR1	2	R1170J
1488.196	3.021	1497909	REC_WORD	3.021	n/a	WEAK	-999	12	[0, 0, 0]	n/a	FR1	2	R1170J
1491.217	5.956	1500930	REC_WORD	5.956	n/a	HARD	-999	12	[0, 0, 0]	n/a	FR1	2	R1170J
1497.173	10.478	1506886	REC_END	n/a	n/a	n/a	-999	12	[0, 0, 0]	n/a	FR1	2	R1170J
1507.651	0.5	1517364	TRIAL	n/a	n/a	n/a	-999	13	[0, 0, 0]	n/a	FR1	2	R1170J
1508.151	10.428	1517864	COUNTDOWN_START	n/a	n/a	n/a	-999	13	[0, 0, 0]	n/a	FR1	2	R1170J
1518.579	0.007	1528292	COUNTDOWN_END	n/a	n/a	n/a	-999	13	[0, 0, 0]	n/a	FR1	2	R1170J
1518.586	1.617	1528299	ORIENT	n/a	n/a	n/a	-999	13	[0, 0, 0]	n/a	FR1	2	R1170J
1520.203	2.099	1529916	ORIENT_OFF	n/a	n/a	n/a	-999	13	[0, 0, 0]	n/a	FR1	2	R1170J
1522.302	1.618	1532015	WORD	n/a	wordpools/wordpool_EN.txt	BOARD	1	13	[0, 0, 0]	n/a	FR1	2	R1170J
1523.92	0.766	1533633	WORD_OFF	n/a	n/a	BOARD	1	13	[0, 0, 0]	n/a	FR1	2	R1170J
1524.686	1.616	1534399	WORD	n/a	wordpools/wordpool_EN.txt	JEEP	2	13	[0, 0, 0]	n/a	FR1	2	R1170J
1526.302	0.851	1536015	WORD_OFF	n/a	n/a	JEEP	2	13	[0, 0, 0]	n/a	FR1	2	R1170J
1527.153	1.617	1536866	WORD	n/a	wordpools/wordpool_EN.txt	SPRING	3	13	[0, 0, 0]	n/a	FR1	2	R1170J
1528.77	0.967	1538483	WORD_OFF	n/a	n/a	SPRING	3	13	[0, 0, 0]	n/a	FR1	2	R1170J
1529.737	1.616	1539450	WORD	n/a	wordpools/wordpool_EN.txt	BAG	4	13	[0, 0, 0]	n/a	FR1	2	R1170J
1531.353	0.851	1541066	WORD_OFF	n/a	n/a	BAG	4	13	[0, 0, 0]	n/a	FR1	2	R1170J
1532.204	1.617	1541917	WORD	n/a	wordpools/wordpool_EN.txt	CART	5	13	[0, 0, 0]	n/a	FR1	2	R1170J
1533.821	0.917	1543534	WORD_OFF	n/a	n/a	CART	5	13	[0, 0, 0]	n/a	FR1	2	R1170J
1534.738	1.616	1544451	WORD	n/a	wordpools/wordpool_EN.txt	BLUSH	6	13	[0, 0, 0]	n/a	FR1	2	R1170J
1536.354	0.851	1546067	WORD_OFF	n/a	n/a	BLUSH	6	13	[0, 0, 0]	n/a	FR1	2	R1170J
1537.205	1.617	1546918	WORD	n/a	wordpools/wordpool_EN.txt	HORN	7	13	[0, 0, 0]	n/a	FR1	2	R1170J
1538.822	1.0	1548535	WORD_OFF	n/a	n/a	HORN	7	13	[0, 0, 0]	n/a	FR1	2	R1170J
1539.822	1.616	1549535	WORD	n/a	wordpools/wordpool_EN.txt	CORN	8	13	[0, 0, 0]	n/a	FR1	2	R1170J
1541.438	0.95	1551151	WORD_OFF	n/a	n/a	CORN	8	13	[0, 0, 0]	n/a	FR1	2	R1170J
1542.388	1.617	1552101	WORD	n/a	wordpools/wordpool_EN.txt	FARM	9	13	[0, 0, 0]	n/a	FR1	2	R1170J
1544.005	0.784	1553717	WORD_OFF	n/a	n/a	FARM	9	13	[0, 0, 0]	n/a	FR1	2	R1170J
1544.789	1.616	1554501	WORD	n/a	wordpools/wordpool_EN.txt	CALF	10	13	[0, 0, 0]	n/a	FR1	2	R1170J
1546.405	0.933	1556117	WORD_OFF	n/a	n/a	CALF	10	13	[0, 0, 0]	n/a	FR1	2	R1170J
1547.338	1.601	1557050	WORD	n/a	wordpools/wordpool_EN.txt	BOWL	11	13	[0, 0, 0]	n/a	FR1	2	R1170J
1548.939	0.917	1558651	WORD_OFF	n/a	n/a	BOWL	11	13	[0, 0, 0]	n/a	FR1	2	R1170J
1549.856	1.617	1559568	WORD	n/a	wordpools/wordpool_EN.txt	MILK	12	13	[0, 0, 0]	n/a	FR1	2	R1170J
1551.473	0.0	1561185	WORD_OFF	n/a	n/a	MILK	12	13	[0, 0, 0]	n/a	FR1	2	R1170J
1551.473	0.001	1561185	DISTRACT_START	n/a	n/a	n/a	-999	13	[0, 0, 0]	n/a	FR1	2	R1170J
1551.474	0.016	1561186	START	n/a	n/a	n/a	-999	13	[-999, -999, -999]	n/a	FR1	2	R1170J
1551.49	3.784	1561202	PROB	3.784	n/a	n/a	-999	13	[1, 5, 4]	10	FR1	2	R1170J
1555.274	5.083	1564986	PROB	5.083	n/a	n/a	-999	13	[6, 6, 4]	16	FR1	2	R1170J
1560.357	6.269	1570069	PROB	6.269	n/a	n/a	-999	13	[7, 8, 7]	22	FR1	2	R1170J
1566.626	3.967	1576338	PROB	3.967	n/a	n/a	-999	13	[7, 3, 8]	18	FR1	2	R1170J
1570.593	4.271	1580305	PROB	4.271	n/a	n/a	-999	13	[4, 9, 5]	18	FR1	2	R1170J
1574.864	0.012	1584576	STOP	n/a	n/a	n/a	-999	13	[-999, -999, -999]	n/a	FR1	2	R1170J
1574.876	0.684	1584588	DISTRACT_END	n/a	n/a	n/a	-999	13	[0, 0, 0]	n/a	FR1	2	R1170J
1575.56	0.518	1585272	RETRIEVAL_ORIENT	n/a	n/a	n/a	-999	13	[0, 0, 0]	n/a	FR1	2	R1170J
1576.078	0.0	1585790	REC_WORD_VV	0.0	n/a	<>	-999	13	[0, 0, 0]	n/a	FR1	2	R1170J
1576.078	2.483	1585790	REC_START	n/a	n/a	n/a	-999	13	[0, 0, 0]	n/a	FR1	2	R1170J
1578.561	6.812	1588273	REC_WORD_VV	6.812	n/a	<>	-999	13	[0, 0, 0]	n/a	FR1	2	R1170J
1585.373	3.204	1595085	REC_WORD	3.204	n/a	RICE	-999	13	[0, 0, 0]	n/a	FR1	2	R1170J
1588.577	1.32	1598289	REC_WORD	1.32	n/a	SETH	-999	13	[0, 0, 0]	n/a	FR1	2	R1170J
1589.897	0.14	1599609	REC_WORD_VV	0.14	n/a	<>	-999	13	[0, 0, 0]	n/a	FR1	2	R1170J
1590.037	2.694	1599749	REC_WORD	2.694	n/a	SCENT	-999	13	[0, 0, 0]	n/a	FR1	2	R1170J
1592.731	0.474	1602443	REC_WORD_VV	0.474	n/a	<>	-999	13	[0, 0, 0]	n/a	FR1	2	R1170J
1593.205	10.113	1602917	REC_WORD	10.113	n/a	CRIB	-999	13	[0, 0, 0]	n/a	FR1	2	R1170J
1603.318	2.425	1613030	REC_WORD_VV	2.425	n/a	<>	-999	13	[0, 0, 0]	n/a	FR1	2	R1170J
1605.743	0.346	1615455	REC_WORD_VV	0.346	n/a	<>	-999	13	[0, 0, 0]	n/a	FR1	2	R1170J
1606.089	5.325	1615801	REC_END	n/a	n/a	n/a	-999	13	[0, 0, 0]	n/a	FR1	2	R1170J
1611.414	0.5	1621125	TRIAL	n/a	n/a	n/a	-999	14	[0, 0, 0]	n/a	FR1	2	R1170J
1611.914	10.428	1621625	COUNTDOWN_START	n/a	n/a	n/a	-999	14	[0, 0, 0]	n/a	FR1	2	R1170J
1622.342	0.006	1632053	COUNTDOWN_END	n/a	n/a	n/a	-999	14	[0, 0, 0]	n/a	FR1	2	R1170J
1622.348	1.619	1632059	ORIENT	n/a	n/a	n/a	-999	14	[0, 0, 0]	n/a	FR1	2	R1170J
1623.967	2.283	1633678	ORIENT_OFF	n/a	n/a	n/a	-999	14	[0, 0, 0]	n/a	FR1	2	R1170J
1626.25	1.617	1635961	WORD	n/a	wordpools/wordpool_EN.txt	BARN	1	14	[0, 0, 0]	n/a	FR1	2	R1170J
1627.867	0.934	1637578	WORD_OFF	n/a	n/a	BARN	1	14	[0, 0, 0]	n/a	FR1	2	R1170J
1628.801	1.616	1638512	WORD	n/a	wordpools/wordpool_EN.txt	PIN	2	14	[0, 0, 0]	n/a	FR1	2	R1170J
1630.417	0.883	1640128	WORD_OFF	n/a	n/a	PIN	2	14	[0, 0, 0]	n/a	FR1	2	R1170J
1631.3	1.618	1641011	WORD	n/a	wordpools/wordpool_EN.txt	VINE	3	14	[0, 0, 0]	n/a	FR1	2	R1170J
1632.918	0.916	1642629	WORD_OFF	n/a	n/a	VINE	3	14	[0, 0, 0]	n/a	FR1	2	R1170J
1633.834	1.616	1643545	WORD	n/a	wordpools/wordpool_EN.txt	BRANCH	4	14	[0, 0, 0]	n/a	FR1	2	R1170J
1635.45	1.0	1645161	WORD_OFF	n/a	n/a	BRANCH	4	14	[0, 0, 0]	n/a	FR1	2	R1170J
1636.45	1.619	1646161	WORD	n/a	wordpools/wordpool_EN.txt	ROOF	5	14	[0, 0, 0]	n/a	FR1	2	R1170J
1638.069	0.85	1647780	WORD_OFF	n/a	n/a	ROOF	5	14	[0, 0, 0]	n/a	FR1	2	R1170J
1638.919	1.616	1648630	WORD	n/a	wordpools/wordpool_EN.txt	SEAL	6	14	[0, 0, 0]	n/a	FR1	2	R1170J
1640.535	1.001	1650246	WORD_OFF	n/a	n/a	SEAL	6	14	[0, 0, 0]	n/a	FR1	2	R1170J
1641.536	1.616	1651247	WORD	n/a	wordpools/wordpool_EN.txt	GOAT	7	14	[0, 0, 0]	n/a	FR1	2	R1170J
1643.152	0.8	1652863	WORD_OFF	n/a	n/a	GOAT	7	14	[0, 0, 0]	n/a	FR1	2	R1170J
1643.952	1.617	1653663	WORD	n/a	wordpools/wordpool_EN.txt	TREE	8	14	[0, 0, 0]	n/a	FR1	2	R1170J
1645.569	0.816	1655280	WORD_OFF	n/a	n/a	TREE	8	14	[0, 0, 0]	n/a	FR1	2	R1170J
1646.385	1.618	1656096	WORD	n/a	wordpools/wordpool_EN.txt	BUSH	9	14	[0, 0, 0]	n/a	FR1	2	R1170J
1648.003	0.884	1657714	WORD_OFF	n/a	n/a	BUSH	9	14	[0, 0, 0]	n/a	FR1	2	R1170J
1648.887	1.616	1658598	WORD	n/a	wordpools/wordpool_EN.txt	HOLE	10	14	[0, 0, 0]	n/a	FR1	2	R1170J
1650.503	0.883	1660214	WORD_OFF	n/a	n/a	HOLE	10	14	[0, 0, 0]	n/a	FR1	2	R1170J
1651.386	1.618	1661097	WORD	n/a	wordpools/wordpool_EN.txt	KITE	11	14	[0, 0, 0]	n/a	FR1	2	R1170J
1653.004	0.816	1662715	WORD_OFF	n/a	n/a	KITE	11	14	[0, 0, 0]	n/a	FR1	2	R1170J
1653.82	1.616	1663531	WORD	n/a	wordpools/wordpool_EN.txt	HOOK	12	14	[0, 0, 0]	n/a	FR1	2	R1170J
1655.436	0.0	1665147	WORD_OFF	n/a	n/a	HOOK	12	14	[0, 0, 0]	n/a	FR1	2	R1170J
1655.436	0.001	1665147	DISTRACT_START	n/a	n/a	n/a	-999	14	[0, 0, 0]	n/a	FR1	2	R1170J
1655.437	0.016	1665148	START	n/a	n/a	n/a	-999	14	[-999, -999, -999]	n/a	FR1	2	R1170J
1655.453	3.984	1665164	PROB	3.984	n/a	n/a	-999	14	[2, 7, 2]	11	FR1	2	R1170J
1659.437	2.851	1669148	PROB	2.851	n/a	n/a	-999	14	[7, 1, 9]	17	FR1	2	R1170J
1662.288	2.3	1671999	PROB	2.3	n/a	n/a	-999	14	[6, 1, 5]	12	FR1	2	R1170J
1664.588	2.101	1674299	PROB	2.101	n/a	n/a	-999	14	[5, 6, 4]	15	FR1	2	R1170J
1666.689	2.267	1676400	PROB	2.267	n/a	n/a	-999	14	[8, 4, 6]	18	FR1	2	R1170J
1668.956	2.349	1678667	PROB	2.349	n/a	n/a	-999	14	[6, 4, 3]	13	FR1	2	R1170J
1671.305	3.351	1681016	PROB	3.351	n/a	n/a	-999	14	[2, 9, 7]	18	FR1	2	R1170J
1674.656	6.636	1684366	PROB	6.636	n/a	n/a	-999	14	[7, 8, 9]	24	FR1	2	R1170J
1681.292	0.014	1691002	STOP	n/a	n/a	n/a	-999	14	[-999, -999, -999]	n/a	FR1	2	R1170J
1681.306	0.685	1691016	DISTRACT_END	n/a	n/a	n/a	-999	14	[0, 0, 0]	n/a	FR1	2	R1170J
1681.991	0.517	1691701	RETRIEVAL_ORIENT	n/a	n/a	n/a	-999	14	[0, 0, 0]	n/a	FR1	2	R1170J
1682.508	1.07	1692218	REC_START	n/a	n/a	n/a	-999	14	[0, 0, 0]	n/a	FR1	2	R1170J
1683.578	1.0	1693288	REC_WORD	1.0	n/a	FARM	-999	14	[0, 0, 0]	n/a	FR1	2	R1170J
1684.578	2.342	1694288	REC_WORD_VV	2.342	n/a	<>	-999	14	[0, 0, 0]	n/a	FR1	2	R1170J
1686.92	1.0	1696630	REC_WORD_VV	1.0	n/a	<>	-999	14	[0, 0, 0]	n/a	FR1	2	R1170J
1687.92	1.496	1697630	REC_WORD_VV	1.496	n/a	<>	-999	14	[0, 0, 0]	n/a	FR1	2	R1170J
1689.416	2.691	1699126	REC_WORD	2.691	n/a	BARN	-999	14	[0, 0, 0]	n/a	FR1	2	R1170J
1692.107	3.094	1701817	REC_WORD	3.094	n/a	LIZARD	-999	14	[0, 0, 0]	n/a	FR1	2	R1170J
1695.201	3.838	1704911	REC_WORD	3.838	n/a	SKYPE	-999	14	[0, 0, 0]	n/a	FR1	2	R1170J
1699.039	12.419	1708749	REC_WORD	12.419	n/a	SKIRT	-999	14	[0, 0, 0]	n/a	FR1	2	R1170J
1711.458	1.063	1721168	REC_WORD	1.063	n/a	BAKE	-999	14	[0, 0, 0]	n/a	FR1	2	R1170J
1712.521	7.208	1722231	REC_END	n/a	n/a	n/a	-999	14	[0, 0, 0]	n/a	FR1	2	R1170J
1719.729	0.5	1729439	TRIAL	n/a	n/a	n/a	-999	15	[0, 0, 0]	n/a	FR1	2	R1170J
1720.229	10.428	1729939	COUNTDOWN_START	n/a	n/a	n/a	-999	15	[0, 0, 0]	n/a	FR1	2	R1170J
1730.657	0.007	1740367	COUNTDOWN_END	n/a	n/a	n/a	-999	15	[0, 0, 0]	n/a	FR1	2	R1170J
1730.664	1.617	1740374	ORIENT	n/a	n/a	n/a	-999	15	[0, 0, 0]	n/a	FR1	2	R1170J
1732.281	2.082	1741991	ORIENT_OFF	n/a	n/a	n/a	-999	15	[0, 0, 0]	n/a	FR1	2	R1170J
1734.363	1.618	1744073	WORD	n/a	wordpools/wordpool_EN.txt	EEL	1	15	[0, 0, 0]	n/a	FR1	2	R1170J
1735.981	0.801	1745691	WORD_OFF	n/a	n/a	EEL	1	15	[0, 0, 0]	n/a	FR1	2	R1170J
1736.782	1.615	1746492	WORD	n/a	wordpools/wordpool_EN.txt	ANT	2	15	[0, 0, 0]	n/a	FR1	2	R1170J
1738.397	0.785	1748107	WORD_OFF	n/a	n/a	ANT	2	15	[0, 0, 0]	n/a	FR1	2	R1170J
1739.182	1.617	1748892	WORD	n/a	wordpools/wordpool_EN.txt	PLANT	3	15	[0, 0, 0]	n/a	FR1	2	R1170J
1740.799	1.0	1750508	WORD_OFF	n/a	n/a	PLANT	3	15	[0, 0, 0]	n/a	FR1	2	R1170J
1741.799	1.616	1751508	WORD	n/a	wordpools/wordpool_EN.txt	EGG	4	15	[0, 0, 0]	n/a	FR1	2	R1170J
1743.415	0.917	1753124	WORD_OFF	n/a	n/a	EGG	4	15	[0, 0, 0]	n/a	FR1	2	R1170J
1744.332	1.618	1754041	WORD	n/a	wordpools/wordpool_EN.txt	FISH	5	15	[0, 0, 0]	n/a	FR1	2	R1170J
1745.95	0.916	1755659	WORD_OFF	n/a	n/a	FISH	5	15	[0, 0, 0]	n/a	FR1	2	R1170J
1746.866	1.617	1756575	WORD	n/a	wordpools/wordpool_EN.txt	SPONGE	6	15	[0, 0, 0]	n/a	FR1	2	R1170J
1748.483	0.85	1758192	WORD_OFF	n/a	n/a	SPONGE	6	15	[0, 0, 0]	n/a	FR1	2	R1170J
1749.333	1.618	1759042	WORD	n/a	wordpools/wordpool_EN.txt	NET	7	15	[0, 0, 0]	n/a	FR1	2	R1170J
1750.951	0.866	1760660	WORD_OFF	n/a	n/a	NET	7	15	[0, 0, 0]	n/a	FR1	2	R1170J
1751.817	1.616	1761526	WORD	n/a	wordpools/wordpool_EN.txt	MOLE	8	15	[0, 0, 0]	n/a	FR1	2	R1170J
1753.433	0.818	1763142	WORD_OFF	n/a	n/a	MOLE	8	15	[0, 0, 0]	n/a	FR1	2	R1170J
1754.251	1.617	1763960	WORD	n/a	wordpools/wordpool_EN.txt	ICE	9	15	[0, 0, 0]	n/a	FR1	2	R1170J
1755.868	0.866	1765577	WORD_OFF	n/a	n/a	ICE	9	15	[0, 0, 0]	n/a	FR1	2	R1170J
1756.734	1.616	1766443	WORD	n/a	wordpools/wordpool_EN.txt	SEED	10	15	[0, 0, 0]	n/a	FR1	2	R1170J
1758.35	0.984	1768059	WORD_OFF	n/a	n/a	SEED	10	15	[0, 0, 0]	n/a	FR1	2	R1170J
1759.334	1.618	1769043	WORD	n/a	wordpools/wordpool_EN.txt	STORE	11	15	[0, 0, 0]	n/a	FR1	2	R1170J
1760.952	1.0	1770661	WORD_OFF	n/a	n/a	STORE	11	15	[0, 0, 0]	n/a	FR1	2	R1170J
1761.952	1.617	1771661	WORD	n/a	wordpools/wordpool_EN.txt	SALT	12	15	[0, 0, 0]	n/a	FR1	2	R1170J
1763.569	0.0	1773278	WORD_OFF	n/a	n/a	SALT	12	15	[0, 0, 0]	n/a	FR1	2	R1170J
1763.569	0.0	1773278	DISTRACT_START	n/a	n/a	n/a	-999	15	[0, 0, 0]	n/a	FR1	2	R1170J
1763.569	0.016	1773278	START	n/a	n/a	n/a	-999	15	[-999, -999, -999]	n/a	FR1	2	R1170J
1763.585	39.407	1773294	PROB	39.407	n/a	n/a	-999	15	[8, 7, 8]	23	FR1	2	R1170J
1802.992	0.015	1812701	STOP	n/a	n/a	n/a	-999	15	[-999, -999, -999]	n/a	FR1	2	R1170J
1803.007	0.6	1812716	DISTRACT_END	n/a	n/a	n/a	-999	15	[0, 0, 0]	n/a	FR1	2	R1170J
1803.607	0.518	1813316	RETRIEVAL_ORIENT	n/a	n/a	n/a	-999	15	[0, 0, 0]	n/a	FR1	2	R1170J
1804.125	0.68	1813834	REC_START	n/a	n/a	n/a	-999	15	[0, 0, 0]	n/a	FR1	2	R1170J
1804.805	2.263	1814514	REC_WORD_VV	2.263	n/a	<>	-999	15	[0, 0, 0]	n/a	FR1	2	R1170J
1807.068	0.61	1816776	REC_WORD_VV	0.61	n/a	<>	-999	15	[0, 0, 0]	n/a	FR1	2	R1170J
1807.678	1.167	1817386	REC_WORD_VV	1.167	n/a	<>	-999	15	[0, 0, 0]	n/a	FR1	2	R1170J
1808.845	8.292	1818553	REC_WORD_VV	8.292	n/a	<>	-999	15	[0, 0, 0]	n/a	FR1	2	R1170J
1817.137	4.956	1826845	REC_WORD	4.956	n/a	CLIFF	-999	15	[0, 0, 0]	n/a	FR1	2	R1170J
1822.093	12.044	1831801	REC_WORD_VV	12.044	n/a	<>	-999	15	[0, 0, 0]	n/a	FR1	2	R1170J
1834.137	6.224	1843845	REC_END	n/a	n/a	n/a	-999	15	[0, 0, 0]	n/a	FR1	2	R1170J
1840.361	0.5	1850069	TRIAL	n/a	n/a	n/a	-999	16	[0, 0, 0]	n/a	FR1	2	R1170J
1840.861	10.428	1850569	COUNTDOWN_START	n/a	n/a	n/a	-999	16	[0, 0, 0]	n/a	FR1	2	R1170J
1851.289	0.007	1860997	COUNTDOWN_END	n/a	n/a	n/a	-999	16	[0, 0, 0]	n/a	FR1	2	R1170J
1851.296	1.601	1861004	ORIENT	n/a	n/a	n/a	-999	16	[0, 0, 0]	n/a	FR1	2	R1170J
1852.897	2.067	1862605	ORIENT_OFF	n/a	n/a	n/a	-999	16	[0, 0, 0]	n/a	FR1	2	R1170J
1854.964	1.617	1864672	WORD	n/a	wordpools/wordpool_EN.txt	SPARK	1	16	[0, 0, 0]	n/a	FR1	2	R1170J
1856.581	0.967	1866289	WORD_OFF	n/a	n/a	SPARK	1	16	[0, 0, 0]	n/a	FR1	2	R1170J
1857.548	1.617	1867256	WORD	n/a	wordpools/wordpool_EN.txt	TANK	2	16	[0, 0, 0]	n/a	FR1	2	R1170J
1859.165	0.8	1868873	WORD_OFF	n/a	n/a	TANK	2	16	[0, 0, 0]	n/a	FR1	2	R1170J
1859.965	1.617	1869673	WORD	n/a	wordpools/wordpool_EN.txt	SCHOOL	3	16	[0, 0, 0]	n/a	FR1	2	R1170J
1861.582	0.866	1871290	WORD_OFF	n/a	n/a	SCHOOL	3	16	[0, 0, 0]	n/a	FR1	2	R1170J
1862.448	1.618	1872156	WORD	n/a	wordpools/wordpool_EN.txt	INK	4	16	[0, 0, 0]	n/a	FR1	2	R1170J
1864.066	0.933	1873774	WORD_OFF	n/a	n/a	INK	4	16	[0, 0, 0]	n/a	FR1	2	R1170J
1864.999	1.617	1874707	WORD	n/a	wordpools/wordpool_EN.txt	DIME	5	16	[0, 0, 0]	n/a	FR1	2	R1170J
1866.616	0.85	1876324	WORD_OFF	n/a	n/a	DIME	5	16	[0, 0, 0]	n/a	FR1	2	R1170J
1867.466	1.617	1877174	WORD	n/a	wordpools/wordpool_EN.txt	WOOD	6	16	[0, 0, 0]	n/a	FR1	2	R1170J
1869.083	0.833	1878791	WORD_OFF	n/a	n/a	WOOD	6	16	[0, 0, 0]	n/a	FR1	2	R1170J
1869.916	1.617	1879624	WORD	n/a	wordpools/wordpool_EN.txt	FLUTE	7	16	[0, 0, 0]	n/a	FR1	2	R1170J
1871.533	0.984	1881240	WORD_OFF	n/a	n/a	FLUTE	7	16	[0, 0, 0]	n/a	FR1	2	R1170J
1872.517	1.617	1882224	WORD	n/a	wordpools/wordpool_EN.txt	CLOTH	8	16	[0, 0, 0]	n/a	FR1	2	R1170J
1874.134	0.85	1883841	WORD_OFF	n/a	n/a	CLOTH	8	16	[0, 0, 0]	n/a	FR1	2	R1170J
1874.984	1.617	1884691	WORD	n/a	wordpools/wordpool_EN.txt	HOSE	9	16	[0, 0, 0]	n/a	FR1	2	R1170J
1876.601	0.799	1886308	WORD_OFF	n/a	n/a	HOSE	9	16	[0, 0, 0]	n/a	FR1	2	R1170J
1877.4	1.618	1887107	WORD	n/a	wordpools/wordpool_EN.txt	COIN	10	16	[0, 0, 0]	n/a	FR1	2	R1170J
1879.018	0.866	1888725	WORD_OFF	n/a	n/a	COIN	10	16	[0, 0, 0]	n/a	FR1	2	R1170J
1879.884	1.617	1889591	WORD	n/a	wordpools/wordpool_EN.txt	SOAP	11	16	[0, 0, 0]	n/a	FR1	2	R1170J
1881.501	0.866	1891208	WORD_OFF	n/a	n/a	SOAP	11	16	[0, 0, 0]	n/a	FR1	2	R1170J
1882.367	1.618	1892074	WORD	n/a	wordpools/wordpool_EN.txt	BOX	12	16	[0, 0, 0]	n/a	FR1	2	R1170J
1883.985	0.0	1893692	WORD_OFF	n/a	n/a	BOX	12	16	[0, 0, 0]	n/a	FR1	2	R1170J
1883.985	0.0	1893692	DISTRACT_START	n/a	n/a	n/a	-999	16	[0, 0, 0]	n/a	FR1	2	R1170J
1883.985	0.016	1893692	START	n/a	n/a	n/a	-999	16	[-999, -999, -999]	n/a	FR1	2	R1170J
1884.001	3.468	1893708	PROB	3.468	n/a	n/a	-999	16	[4, 3, 7]	14	FR1	2	R1170J
1887.469	5.484	1897176	PROB	5.484	n/a	n/a	-999	16	[2, 8, 8]	18	FR1	2	R1170J
1892.953	3.067	1902660	PROB	3.067	n/a	n/a	-999	16	[7, 3, 3]	13	FR1	2	R1170J
1896.02	9.113	1905727	PROB	9.113	n/a	n/a	-999	16	[9, 2, 6]	12	FR1	2	R1170J
1905.133	0.021	1914840	STOP	n/a	n/a	n/a	-999	16	[-999, -999, -999]	n/a	FR1	2	R1170J
1905.154	0.617	1914861	DISTRACT_END	n/a	n/a	n/a	-999	16	[0, 0, 0]	n/a	FR1	2	R1170J
1905.771	0.518	1915478	RETRIEVAL_ORIENT	n/a	n/a	n/a	-999	16	[0, 0, 0]	n/a	FR1	2	R1170J
1906.289	5.258	1915996	REC_START	n/a	n/a	n/a	-999	16	[0, 0, 0]	n/a	FR1	2	R1170J
1911.547	1.0	1921254	REC_WORD_VV	1.0	n/a	<>	-999	16	[0, 0, 0]	n/a	FR1	2	R1170J
1912.547	1.0	1922254	REC_WORD_VV	1.0	n/a	<>	-999	16	[0, 0, 0]	n/a	FR1	2	R1170J
1913.547	2.449	1923254	REC_WORD_VV	2.449	n/a	<>	-999	16	[0, 0, 0]	n/a	FR1	2	R1170J
1915.996	0.765	1925703	REC_WORD	0.765	n/a	SWIM	-999	16	[0, 0, 0]	n/a	FR1	2	R1170J
1916.761	1.071	1926468	REC_WORD	1.071	n/a	OCEAN	-999	16	[0, 0, 0]	n/a	FR1	2	R1170J
1917.832	1.84	1927539	REC_WORD	1.84	n/a	TANK	-999	16	[0, 0, 0]	n/a	FR1	2	R1170J
1919.672	4.462	1929379	REC_WORD	4.462	n/a	CRISP	-999	16	[0, 0, 0]	n/a	FR1	2	R1170J
1924.134	0.683	1933841	REC_WORD_VV	0.683	n/a	<>	-999	16	[0, 0, 0]	n/a	FR1	2	R1170J
1924.817	2.693	1934524	REC_WORD	2.693	n/a	SHOWER	-999	16	[0, 0, 0]	n/a	FR1	2	R1170J
1927.51	8.274	1937217	REC_WORD	8.274	n/a	LIFT	-999	16	[0, 0, 0]	n/a	FR1	2	R1170J
1935.784	0.515	1945491	REC_WORD_VV	0.515	n/a	<>	-999	16	[0, 0, 0]	n/a	FR1	2	R1170J
1936.299	5.361	1946006	REC_END	n/a	n/a	n/a	-999	16	[0, 0, 0]	n/a	FR1	2	R1170J
1941.66	0.5	1951366	TRIAL	n/a	n/a	n/a	-999	17	[0, 0, 0]	n/a	FR1	2	R1170J
1942.16	10.428	1951866	COUNTDOWN_START	n/a	n/a	n/a	-999	17	[0, 0, 0]	n/a	FR1	2	R1170J
1952.588	0.006	1962294	COUNTDOWN_END	n/a	n/a	n/a	-999	17	[0, 0, 0]	n/a	FR1	2	R1170J
1952.594	1.617	1962300	ORIENT	n/a	n/a	n/a	-999	17	[0, 0, 0]	n/a	FR1	2	R1170J
1954.211	2.25	1963917	ORIENT_OFF	n/a	n/a	n/a	-999	17	[0, 0, 0]	n/a	FR1	2	R1170J
1956.461	1.617	1966167	WORD	n/a	wordpools/wordpool_EN.txt	OAK	1	17	[0, 0, 0]	n/a	FR1	2	R1170J
1958.078	0.984	1967784	WORD_OFF	n/a	n/a	OAK	1	17	[0, 0, 0]	n/a	FR1	2	R1170J
1959.062	1.617	1968768	WORD	n/a	wordpools/wordpool_EN.txt	PET	2	17	[0, 0, 0]	n/a	FR1	2	R1170J
1960.679	0.8	1970385	WORD_OFF	n/a	n/a	PET	2	17	[0, 0, 0]	n/a	FR1	2	R1170J
1961.479	1.616	1971185	WORD	n/a	wordpools/wordpool_EN.txt	LAWN	3	17	[0, 0, 0]	n/a	FR1	2	R1170J
1963.095	0.917	1972801	WORD_OFF	n/a	n/a	LAWN	3	17	[0, 0, 0]	n/a	FR1	2	R1170J
1964.012	1.617	1973718	WORD	n/a	wordpools/wordpool_EN.txt	PIG	4	17	[0, 0, 0]	n/a	FR1	2	R1170J
1965.629	0.9	1975335	WORD_OFF	n/a	n/a	PIG	4	17	[0, 0, 0]	n/a	FR1	2	R1170J
1966.529	1.617	1976235	WORD	n/a	wordpools/wordpool_EN.txt	OWL	5	17	[0, 0, 0]	n/a	FR1	2	R1170J
1968.146	0.784	1977852	WORD_OFF	n/a	n/a	OWL	5	17	[0, 0, 0]	n/a	FR1	2	R1170J
1968.93	1.617	1978636	WORD	n/a	wordpools/wordpool_EN.txt	PARK	6	17	[0, 0, 0]	n/a	FR1	2	R1170J
1970.547	0.798	1980253	WORD_OFF	n/a	n/a	PARK	6	17	[0, 0, 0]	n/a	FR1	2	R1170J
1971.345	1.601	1981051	WORD	n/a	wordpools/wordpool_EN.txt	FLEA	7	17	[0, 0, 0]	n/a	FR1	2	R1170J
1972.946	0.784	1982652	WORD_OFF	n/a	n/a	FLEA	7	17	[0, 0, 0]	n/a	FR1	2	R1170J
1973.73	1.616	1983436	WORD	n/a	wordpools/wordpool_EN.txt	STORM	8	17	[0, 0, 0]	n/a	FR1	2	R1170J
1975.346	0.983	1985052	WORD_OFF	n/a	n/a	STORM	8	17	[0, 0, 0]	n/a	FR1	2	R1170J
1976.329	1.618	1986035	WORD	n/a	wordpools/wordpool_EN.txt	OAR	9	17	[0, 0, 0]	n/a	FR1	2	R1170J
1977.947	0.95	1987653	WORD_OFF	n/a	n/a	OAR	9	17	[0, 0, 0]	n/a	FR1	2	R1170J
1978.897	1.617	1988603	WORD	n/a	wordpools/wordpool_EN.txt	DEER	10	17	[0, 0, 0]	n/a	FR1	2	R1170J
1980.514	0.8	1990220	WORD_OFF	n/a	n/a	DEER	10	17	[0, 0, 0]	n/a	FR1	2	R1170J
1981.314	1.617	1991020	WORD	n/a	wordpools/wordpool_EN.txt	FENCE	11	17	[0, 0, 0]	n/a	FR1	2	R1170J
1982.931	0.901	1992637	WORD_OFF	n/a	n/a	FENCE	11	17	[0, 0, 0]	n/a	FR1	2	R1170J
1983.832	1.616	1993538	WORD	n/a	wordpools/wordpool_EN.txt	SKY	12	17	[0, 0, 0]	n/a	FR1	2	R1170J
1985.448	0.0	1995154	WORD_OFF	n/a	n/a	SKY	12	17	[0, 0, 0]	n/a	FR1	2	R1170J
1985.448	0.0	1995154	DISTRACT_START	n/a	n/a	n/a	-999	17	[0, 0, 0]	n/a	FR1	2	R1170J
1985.448	0.017	1995154	START	n/a	n/a	n/a	-999	17	[-999, -999, -999]	n/a	FR1	2	R1170J
1985.465	8.335	1995171	PROB	8.335	n/a	n/a	-999	17	[6, 3, 6]	15	FR1	2	R1170J
1993.8	3.217	2003506	PROB	3.217	n/a	n/a	-999	17	[4, 3, 4]	11	FR1	2	R1170J
1997.017	5.167	2006723	PROB	5.167	n/a	n/a	-999	17	[4, 2, 9]	15	FR1	2	R1170J
2002.184	4.745	2011890	PROB	4.745	n/a	n/a	-999	17	[2, 5, 6]	13	FR1	2	R1170J
2006.929	0.005	2016634	STOP	n/a	n/a	n/a	-999	17	[-999, -999, -999]	n/a	FR1	2	R1170J
2006.934	0.584	2016639	DISTRACT_END	n/a	n/a	n/a	-999	17	[0, 0, 0]	n/a	FR1	2	R1170J
2007.518	0.518	2017223	RETRIEVAL_ORIENT	n/a	n/a	n/a	-999	17	[0, 0, 0]	n/a	FR1	2	R1170J
2008.036	0.311	2017741	REC_START	n/a	n/a	n/a	-999	17	[0, 0, 0]	n/a	FR1	2	R1170J
2008.347	0.695	2018052	REC_WORD	0.695	n/a	PIG	-999	17	[0, 0, 0]	n/a	FR1	2	R1170J
2009.042	3.005	2018747	REC_WORD	3.005	n/a	SKY	-999	17	[0, 0, 0]	n/a	FR1	2	R1170J
2012.047	11.851	2021752	REC_WORD_VV	11.851	n/a	<>	-999	17	[0, 0, 0]	n/a	FR1	2	R1170J
2023.898	1.615	2033603	REC_WORD_VV	1.615	n/a	<>	-999	17	[0, 0, 0]	n/a	FR1	2	R1170J
2025.513	1.427	2035218	REC_WORD_VV	1.427	n/a	<>	-999	17	[0, 0, 0]	n/a	FR1	2	R1170J
2026.94	4.258	2036645	REC_WORD	4.258	n/a	TIP	-999	17	[0, 0, 0]	n/a	FR1	2	R1170J
2031.198	4.804	2040903	REC_WORD	4.804	n/a	TINY	-999	17	[0, 0, 0]	n/a	FR1	2	R1170J
2036.002	1.0	2045707	REC_WORD_VV	1.0	n/a	<>	-999	17	[0, 0, 0]	n/a	FR1	2	R1170J
2037.002	1.0	2046707	REC_WORD_VV	1.0	n/a	<>	-999	17	[0, 0, 0]	n/a	FR1	2	R1170J
2038.002	0.045	2047707	REC_WORD_VV	0.045	n/a	<>	-999	17	[0, 0, 0]	n/a	FR1	2	R1170J
2038.047	6.226	2047752	REC_END	n/a	n/a	n/a	-999	17	[0, 0, 0]	n/a	FR1	2	R1170J
2044.273	0.5	2053978	TRIAL	n/a	n/a	n/a	-999	18	[0, 0, 0]	n/a	FR1	2	R1170J
2044.773	10.428	2054478	COUNTDOWN_START	n/a	n/a	n/a	-999	18	[0, 0, 0]	n/a	FR1	2	R1170J
2055.201	0.007	2064906	COUNTDOWN_END	n/a	n/a	n/a	-999	18	[0, 0, 0]	n/a	FR1	2	R1170J
2055.208	1.617	2064913	ORIENT	n/a	n/a	n/a	-999	18	[0, 0, 0]	n/a	FR1	2	R1170J
2056.825	2.217	2066530	ORIENT_OFF	n/a	n/a	n/a	-999	18	[0, 0, 0]	n/a	FR1	2	R1170J
2059.042	1.617	2068747	WORD	n/a	wordpools/wordpool_EN.txt	SHIP	1	18	[0, 0, 0]	n/a	FR1	2	R1170J
2060.659	0.9	2070364	WORD_OFF	n/a	n/a	SHIP	1	18	[0, 0, 0]	n/a	FR1	2	R1170J
2061.559	1.617	2071264	WORD	n/a	wordpools/wordpool_EN.txt	WORLD	2	18	[0, 0, 0]	n/a	FR1	2	R1170J
2063.176	1.0	2072881	WORD_OFF	n/a	n/a	WORLD	2	18	[0, 0, 0]	n/a	FR1	2	R1170J
2064.176	1.617	2073881	WORD	n/a	wordpools/wordpool_EN.txt	FORT	3	18	[0, 0, 0]	n/a	FR1	2	R1170J
2065.793	0.783	2075498	WORD_OFF	n/a	n/a	FORT	3	18	[0, 0, 0]	n/a	FR1	2	R1170J
2066.576	1.617	2076281	WORD	n/a	wordpools/wordpool_EN.txt	SHEEP	4	18	[0, 0, 0]	n/a	FR1	2	R1170J
2068.193	0.95	2077897	WORD_OFF	n/a	n/a	SHEEP	4	18	[0, 0, 0]	n/a	FR1	2	R1170J
2069.143	1.617	2078847	WORD	n/a	wordpools/wordpool_EN.txt	WALL	5	18	[0, 0, 0]	n/a	FR1	2	R1170J
2070.76	0.784	2080464	WORD_OFF	n/a	n/a	WALL	5	18	[0, 0, 0]	n/a	FR1	2	R1170J
2071.544	1.616	2081248	WORD	n/a	wordpools/wordpool_EN.txt	PRINCE	6	18	[0, 0, 0]	n/a	FR1	2	R1170J
2073.16	0.834	2082864	WORD_OFF	n/a	n/a	PRINCE	6	18	[0, 0, 0]	n/a	FR1	2	R1170J
2073.994	1.617	2083698	WORD	n/a	wordpools/wordpool_EN.txt	NAIL	7	18	[0, 0, 0]	n/a	FR1	2	R1170J
2075.611	1.0	2085315	WORD_OFF	n/a	n/a	NAIL	7	18	[0, 0, 0]	n/a	FR1	2	R1170J
2076.611	1.617	2086315	WORD	n/a	wordpools/wordpool_EN.txt	GOLD	8	18	[0, 0, 0]	n/a	FR1	2	R1170J
2078.228	0.917	2087932	WORD_OFF	n/a	n/a	GOLD	8	18	[0, 0, 0]	n/a	FR1	2	R1170J
2079.145	1.616	2088849	WORD	n/a	wordpools/wordpool_EN.txt	COW	9	18	[0, 0, 0]	n/a	FR1	2	R1170J
2080.761	0.851	2090465	WORD_OFF	n/a	n/a	COW	9	18	[0, 0, 0]	n/a	FR1	2	R1170J
2081.612	1.616	2091316	WORD	n/a	wordpools/wordpool_EN.txt	TRASH	10	18	[0, 0, 0]	n/a	FR1	2	R1170J
2083.228	0.817	2092932	WORD_OFF	n/a	n/a	TRASH	10	18	[0, 0, 0]	n/a	FR1	2	R1170J
2084.045	1.617	2093749	WORD	n/a	wordpools/wordpool_EN.txt	CROWN	11	18	[0, 0, 0]	n/a	FR1	2	R1170J
2085.662	1.0	2095366	WORD_OFF	n/a	n/a	CROWN	11	18	[0, 0, 0]	n/a	FR1	2	R1170J
2086.662	1.617	2096366	WORD	n/a	wordpools/wordpool_EN.txt	TOOTH	12	18	[0, 0, 0]	n/a	FR1	2	R1170J
2088.279	0.0	2097983	WORD_OFF	n/a	n/a	TOOTH	12	18	[0, 0, 0]	n/a	FR1	2	R1170J
2088.279	0.001	2097983	DISTRACT_START	n/a	n/a	n/a	-999	18	[0, 0, 0]	n/a	FR1	2	R1170J
2088.28	0.015	2097984	START	n/a	n/a	n/a	-999	18	[-999, -999, -999]	n/a	FR1	2	R1170J
2088.295	4.168	2097999	PROB	4.168	n/a	n/a	-999	18	[5, 5, 6]	16	FR1	2	R1170J
2092.463	3.1	2102167	PROB	3.1	n/a	n/a	-999	18	[3, 7, 5]	13	FR1	2	R1170J
2095.563	6.401	2105267	PROB	6.401	n/a	n/a	-999	18	[9, 9, 9]	27	FR1	2	R1170J
2101.964	2.784	2111668	PROB	2.784	n/a	n/a	-999	18	[9, 9, 4]	22	FR1	2	R1170J
2104.748	4.569	2114452	PROB	4.569	n/a	n/a	-999	18	[1, 5, 6]	12	FR1	2	R1170J
2109.317	0.014	2119021	STOP	n/a	n/a	n/a	-999	18	[-999, -999, -999]	n/a	FR1	2	R1170J
2109.331	0.651	2119035	DISTRACT_END	n/a	n/a	n/a	-999	18	[0, 0, 0]	n/a	FR1	2	R1170J
2109.982	0.518	2119686	RETRIEVAL_ORIENT	n/a	n/a	n/a	-999	18	[0, 0, 0]	n/a	FR1	2	R1170J
2110.5	1.234	2120204	REC_START	n/a	n/a	n/a	-999	18	[0, 0, 0]	n/a	FR1	2	R1170J
2111.734	1.0	2121438	REC_WORD_VV	1.0	n/a	<>	-999	18	[0, 0, 0]	n/a	FR1	2	R1170J
2112.734	0.46	2122438	REC_WORD_VV	0.46	n/a	<>	-999	18	[0, 0, 0]	n/a	FR1	2	R1170J
2113.194	5.182	2122898	REC_WORD	5.182	n/a	CROWN	-999	18	[0, 0, 0]	n/a	FR1	2	R1170J
2118.376	1.0	2128080	REC_WORD_VV	1.0	n/a	<>	-999	18	[0, 0, 0]	n/a	FR1	2	R1170J
2119.376	1.0	2129080	REC_WORD_VV	1.0	n/a	<>	-999	18	[0, 0, 0]	n/a	FR1	2	R1170J
2120.376	3.358	2130080	REC_WORD_VV	3.358	n/a	<>	-999	18	[0, 0, 0]	n/a	FR1	2	R1170J
2123.734	1.276	2133438	REC_WORD	1.276	n/a	SCHOOL	-999	18	[0, 0, 0]	n/a	FR1	2	R1170J
2125.01	2.946	2134714	REC_WORD	2.946	n/a	COLLEGE	-999	18	[0, 0, 0]	n/a	FR1	2	R1170J
2127.956	1.0	2137660	REC_WORD_VV	1.0	n/a	<>	-999	18	[0, 0, 0]	n/a	FR1	2	R1170J
2128.956	5.466	2138660	REC_WORD_VV	5.466	n/a	<>	-999	18	[0, 0, 0]	n/a	FR1	2	R1170J
2134.422	1.562	2144125	REC_WORD_VV	1.562	n/a	<>	-999	18	[0, 0, 0]	n/a	FR1	2	R1170J
2135.984	1.929	2145687	REC_WORD	1.929	n/a	RAIN	-999	18	[0, 0, 0]	n/a	FR1	2	R1170J
2137.913	1.632	2147616	REC_WORD	1.632	n/a	FALL	-999	18	[0, 0, 0]	n/a	FR1	2	R1170J
2139.545	0.966	2149248	REC_WORD	0.966	n/a	DOWN	-999	18	[0, 0, 0]	n/a	FR1	2	R1170J
2140.511	5.941	2150214	REC_END	n/a	n/a	n/a	-999	18	[0, 0, 0]	n/a	FR1	2	R1170J
2146.452	0.5	2156155	TRIAL	n/a	n/a	n/a	-999	19	[0, 0, 0]	n/a	FR1	2	R1170J
2146.952	10.428	2156655	COUNTDOWN_START	n/a	n/a	n/a	-999	19	[0, 0, 0]	n/a	FR1	2	R1170J
2157.38	0.007	2167083	COUNTDOWN_END	n/a	n/a	n/a	-999	19	[0, 0, 0]	n/a	FR1	2	R1170J
2157.387	1.618	2167090	ORIENT	n/a	n/a	n/a	-999	19	[0, 0, 0]	n/a	FR1	2	R1170J
2159.005	1.984	2168708	ORIENT_OFF	n/a	n/a	n/a	-999	19	[0, 0, 0]	n/a	FR1	2	R1170J
2160.989	1.617	2170692	WORD	n/a	wordpools/wordpool_EN.txt	MAP	1	19	[0, 0, 0]	n/a	FR1	2	R1170J
2162.606	0.832	2172309	WORD_OFF	n/a	n/a	MAP	1	19	[0, 0, 0]	n/a	FR1	2	R1170J
2163.438	1.618	2173141	WORD	n/a	wordpools/wordpool_EN.txt	MOON	2	19	[0, 0, 0]	n/a	FR1	2	R1170J
2165.056	1.017	2174759	WORD_OFF	n/a	n/a	MOON	2	19	[0, 0, 0]	n/a	FR1	2	R1170J
2166.073	1.617	2175776	WORD	n/a	wordpools/wordpool_EN.txt	BANK	3	19	[0, 0, 0]	n/a	FR1	2	R1170J
2167.69	0.817	2177393	WORD_OFF	n/a	n/a	BANK	3	19	[0, 0, 0]	n/a	FR1	2	R1170J
2168.507	1.617	2178210	WORD	n/a	wordpools/wordpool_EN.txt	BALL	4	19	[0, 0, 0]	n/a	FR1	2	R1170J
2170.124	0.933	2179827	WORD_OFF	n/a	n/a	BALL	4	19	[0, 0, 0]	n/a	FR1	2	R1170J
2171.057	1.617	2180760	WORD	n/a	wordpools/wordpool_EN.txt	FILM	5	19	[0, 0, 0]	n/a	FR1	2	R1170J
2172.674	0.916	2182377	WORD_OFF	n/a	n/a	FILM	5	19	[0, 0, 0]	n/a	FR1	2	R1170J
2173.59	1.618	2183293	WORD	n/a	wordpools/wordpool_EN.txt	MAIL	6	19	[0, 0, 0]	n/a	FR1	2	R1170J
2175.208	0.916	2184911	WORD_OFF	n/a	n/a	MAIL	6	19	[0, 0, 0]	n/a	FR1	2	R1170J
2176.124	1.617	2185827	WORD	n/a	wordpools/wordpool_EN.txt	POLE	7	19	[0, 0, 0]	n/a	FR1	2	R1170J
2177.741	0.767	2187444	WORD_OFF	n/a	n/a	POLE	7	19	[0, 0, 0]	n/a	FR1	2	R1170J
2178.508	1.617	2188211	WORD	n/a	wordpools/wordpool_EN.txt	ROOT	8	19	[0, 0, 0]	n/a	FR1	2	R1170J
2180.125	0.984	2189828	WORD_OFF	n/a	n/a	ROOT	8	19	[0, 0, 0]	n/a	FR1	2	R1170J
2181.109	1.616	2190812	WORD	n/a	wordpools/wordpool_EN.txt	STAR	9	19	[0, 0, 0]	n/a	FR1	2	R1170J
2182.725	0.967	2192428	WORD_OFF	n/a	n/a	STAR	9	19	[0, 0, 0]	n/a	FR1	2	R1170J
2183.692	1.616	2193395	WORD	n/a	wordpools/wordpool_EN.txt	HOOF	10	19	[0, 0, 0]	n/a	FR1	2	R1170J
2185.308	1.017	2195011	WORD_OFF	n/a	n/a	HOOF	10	19	[0, 0, 0]	n/a	FR1	2	R1170J
2186.325	1.618	2196028	WORD	n/a	wordpools/wordpool_EN.txt	CASH	11	19	[0, 0, 0]	n/a	FR1	2	R1170J
2187.943	0.983	2197646	WORD_OFF	n/a	n/a	CASH	11	19	[0, 0, 0]	n/a	FR1	2	R1170J
2188.926	1.617	2198629	WORD	n/a	wordpools/wordpool_EN.txt	CORD	12	19	[0, 0, 0]	n/a	FR1	2	R1170J
2190.543	0.0	2200246	WORD_OFF	n/a	n/a	CORD	12	19	[0, 0, 0]	n/a	FR1	2	R1170J
2190.543	0.0	2200246	DISTRACT_START	n/a	n/a	n/a	-999	19	[0, 0, 0]	n/a	FR1	2	R1170J
2190.543	0.017	2200246	START	n/a	n/a	n/a	-999	19	[-999, -999, -999]	n/a	FR1	2	R1170J
2190.56	6.1	2200263	PROB	6.1	n/a	n/a	-999	19	[1, 4, 7]	12	FR1	2	R1170J
2196.66	6.65	2206363	PROB	6.65	n/a	n/a	-999	19	[5, 9, 2]	16	FR1	2	R1170J
2203.31	15.667	2213012	PROB	15.667	n/a	n/a	-999	19	[1, 1, 2]	4	FR1	2	R1170J
2218.977	0.02	2228679	STOP	n/a	n/a	n/a	-999	19	[-999, -999, -999]	n/a	FR1	2	R1170J
2218.997	0.566	2228699	DISTRACT_END	n/a	n/a	n/a	-999	19	[0, 0, 0]	n/a	FR1	2	R1170J
2219.563	0.518	2229265	RETRIEVAL_ORIENT	n/a	n/a	n/a	-999	19	[0, 0, 0]	n/a	FR1	2	R1170J
2220.081	0.851	2229783	REC_START	n/a	n/a	n/a	-999	19	[0, 0, 0]	n/a	FR1	2	R1170J
2220.932	1.207	2230634	REC_WORD_VV	1.207	n/a	<>	-999	19	[0, 0, 0]	n/a	FR1	2	R1170J
2222.139	0.695	2231841	REC_WORD_VV	0.695	n/a	<>	-999	19	[0, 0, 0]	n/a	FR1	2	R1170J
2222.834	1.43	2232536	REC_WORD	1.43	n/a	CROW	-999	19	[0, 0, 0]	n/a	FR1	2	R1170J
2224.264	1.894	2233966	REC_WORD	1.894	n/a	CLIFF	-999	19	[0, 0, 0]	n/a	FR1	2	R1170J
2226.158	1.74	2235860	REC_WORD	1.74	n/a	CAMEL	-999	19	[0, 0, 0]	n/a	FR1	2	R1170J
2227.898	2.259	2237600	REC_WORD	2.259	n/a	PEACH	-999	19	[0, 0, 0]	n/a	FR1	2	R1170J
2230.157	5.56	2239859	REC_WORD	5.56	n/a	TIGHT	-999	19	[0, 0, 0]	n/a	FR1	2	R1170J
2235.717	1.0	2245419	REC_WORD_VV	1.0	n/a	<>	-999	19	[0, 0, 0]	n/a	FR1	2	R1170J
2236.717	1.0	2246419	REC_WORD_VV	1.0	n/a	<>	-999	19	[0, 0, 0]	n/a	FR1	2	R1170J
2237.717	10.297	2247419	REC_WORD_VV	10.297	n/a	<>	-999	19	[0, 0, 0]	n/a	FR1	2	R1170J
2248.014	2.076	2257716	REC_WORD_VV	2.076	n/a	<>	-999	19	[0, 0, 0]	n/a	FR1	2	R1170J
2250.09	4.795	2259792	REC_END	n/a	n/a	n/a	-999	19	[0, 0, 0]	n/a	FR1	2	R1170J
2254.885	0.5	2264587	TRIAL	n/a	n/a	n/a	-999	20	[0, 0, 0]	n/a	FR1	2	R1170J
2255.385	10.428	2265087	COUNTDOWN_START	n/a	n/a	n/a	-999	20	[0, 0, 0]	n/a	FR1	2	R1170J
2265.813	0.006	2275514	COUNTDOWN_END	n/a	n/a	n/a	-999	20	[0, 0, 0]	n/a	FR1	2	R1170J
2265.819	1.616	2275520	ORIENT	n/a	n/a	n/a	-999	20	[0, 0, 0]	n/a	FR1	2	R1170J
2267.435	1.951	2277136	ORIENT_OFF	n/a	n/a	n/a	-999	20	[0, 0, 0]	n/a	FR1	2	R1170J
2269.386	1.618	2279087	WORD	n/a	wordpools/wordpool_EN.txt	TRAY	1	20	[0, 0, 0]	n/a	FR1	2	R1170J
2271.004	0.8	2280705	WORD_OFF	n/a	n/a	TRAY	1	20	[0, 0, 0]	n/a	FR1	2	R1170J
2271.804	1.615	2281505	WORD	n/a	wordpools/wordpool_EN.txt	DART	2	20	[0, 0, 0]	n/a	FR1	2	R1170J
2273.419	0.868	2283120	WORD_OFF	n/a	n/a	DART	2	20	[0, 0, 0]	n/a	FR1	2	R1170J
2274.287	1.617	2283988	WORD	n/a	wordpools/wordpool_EN.txt	PLATE	3	20	[0, 0, 0]	n/a	FR1	2	R1170J
2275.904	0.85	2285605	WORD_OFF	n/a	n/a	PLATE	3	20	[0, 0, 0]	n/a	FR1	2	R1170J
2276.754	1.616	2286455	WORD	n/a	wordpools/wordpool_EN.txt	FLOOR	4	20	[0, 0, 0]	n/a	FR1	2	R1170J
2278.37	0.918	2288071	WORD_OFF	n/a	n/a	FLOOR	4	20	[0, 0, 0]	n/a	FR1	2	R1170J
2279.288	1.617	2288989	WORD	n/a	wordpools/wordpool_EN.txt	MUG	5	20	[0, 0, 0]	n/a	FR1	2	R1170J
2280.905	0.883	2290606	WORD_OFF	n/a	n/a	MUG	5	20	[0, 0, 0]	n/a	FR1	2	R1170J
2281.788	1.616	2291489	WORD	n/a	wordpools/wordpool_EN.txt	CANE	6	20	[0, 0, 0]	n/a	FR1	2	R1170J
2283.404	0.951	2293105	WORD_OFF	n/a	n/a	CANE	6	20	[0, 0, 0]	n/a	FR1	2	R1170J
2284.355	1.618	2294056	WORD	n/a	wordpools/wordpool_EN.txt	PIE	7	20	[0, 0, 0]	n/a	FR1	2	R1170J
2285.973	0.916	2295674	WORD_OFF	n/a	n/a	PIE	7	20	[0, 0, 0]	n/a	FR1	2	R1170J
2286.889	1.617	2296590	WORD	n/a	wordpools/wordpool_EN.txt	CHAIR	8	20	[0, 0, 0]	n/a	FR1	2	R1170J
2288.506	0.899	2298207	WORD_OFF	n/a	n/a	CHAIR	8	20	[0, 0, 0]	n/a	FR1	2	R1170J
2289.405	1.602	2299106	WORD	n/a	wordpools/wordpool_EN.txt	PEACH	9	20	[0, 0, 0]	n/a	FR1	2	R1170J
2291.007	0.8	2300708	WORD_OFF	n/a	n/a	PEACH	9	20	[0, 0, 0]	n/a	FR1	2	R1170J
2291.807	1.615	2301508	WORD	n/a	wordpools/wordpool_EN.txt	SUIT	10	20	[0, 0, 0]	n/a	FR1	2	R1170J
2293.422	0.818	2303123	WORD_OFF	n/a	n/a	SUIT	10	20	[0, 0, 0]	n/a	FR1	2	R1170J
2294.24	1.617	2303941	WORD	n/a	wordpools/wordpool_EN.txt	SOCK	11	20	[0, 0, 0]	n/a	FR1	2	R1170J
2295.857	0.784	2305558	WORD_OFF	n/a	n/a	SOCK	11	20	[0, 0, 0]	n/a	FR1	2	R1170J
2296.641	1.617	2306342	WORD	n/a	wordpools/wordpool_EN.txt	DOLL	12	20	[0, 0, 0]	n/a	FR1	2	R1170J
2298.258	0.0	2307959	DISTRACT_START	n/a	n/a	n/a	-999	20	[0, 0, 0]	n/a	FR1	2	R1170J
2298.258	0.0	2307959	WORD_OFF	n/a	n/a	DOLL	12	20	[0, 0, 0]	n/a	FR1	2	R1170J
2298.258	0.016	2307959	START	n/a	n/a	n/a	-999	20	[-999, -999, -999]	n/a	FR1	2	R1170J
2298.274	6.066	2307975	PROB	6.066	n/a	n/a	-999	20	[6, 7, 2]	15	FR1	2	R1170J
2304.34	3.051	2314041	PROB	3.051	n/a	n/a	-999	20	[7, 4, 3]	14	FR1	2	R1170J
2307.391	4.585	2317092	PROB	4.585	n/a	n/a	-999	20	[6, 9, 8]	23	FR1	2	R1170J
2311.976	3.7	2321677	PROB	3.7	n/a	n/a	-999	20	[5, 1, 5]	11	FR1	2	R1170J
2315.676	6.25	2325377	PROB	6.25	n/a	n/a	-999	20	[9, 6, 2]	17	FR1	2	R1170J
2321.926	0.018	2331627	STOP	n/a	n/a	n/a	-999	20	[-999, -999, -999]	n/a	FR1	2	R1170J
2321.944	0.633	2331645	DISTRACT_END	n/a	n/a	n/a	-999	20	[0, 0, 0]	n/a	FR1	2	R1170J
2322.577	0.517	2332278	RETRIEVAL_ORIENT	n/a	n/a	n/a	-999	20	[0, 0, 0]	n/a	FR1	2	R1170J
2323.094	0.0	2332795	REC_START	n/a	n/a	n/a	-999	20	[0, 0, 0]	n/a	FR1	2	R1170J
2323.094	1.0	2332795	REC_WORD_VV	1.0	n/a	<>	-999	20	[0, 0, 0]	n/a	FR1	2	R1170J
2324.094	11.353	2333795	REC_WORD_VV	11.353	n/a	<>	-999	20	[0, 0, 0]	n/a	FR1	2	R1170J
2335.447	6.343	2345147	REC_WORD	6.343	n/a	PIE	-999	20	[0, 0, 0]	n/a	FR1	2	R1170J
2341.79	4.214	2351490	REC_WORD	4.214	n/a	TAPE	-999	20	[0, 0, 0]	n/a	FR1	2	R1170J
2346.004	4.367	2355704	REC_WORD	4.367	n/a	ARMOUR	-999	20	[0, 0, 0]	n/a	FR1	2	R1170J
2350.371	2.734	2360071	REC_WORD	2.734	n/a	HARD	-999	20	[0, 0, 0]	n/a	FR1	2	R1170J
2353.105	6.177	2362805	REC_END	n/a	n/a	n/a	-999	20	[0, 0, 0]	n/a	FR1	2	R1170J
2359.282	0.5	2368982	TRIAL	n/a	n/a	n/a	-999	21	[0, 0, 0]	n/a	FR1	2	R1170J
2359.782	10.428	2369482	COUNTDOWN_START	n/a	n/a	n/a	-999	21	[0, 0, 0]	n/a	FR1	2	R1170J
2370.21	0.007	2379910	COUNTDOWN_END	n/a	n/a	n/a	-999	21	[0, 0, 0]	n/a	FR1	2	R1170J
2370.217	1.617	2379917	ORIENT	n/a	n/a	n/a	-999	21	[0, 0, 0]	n/a	FR1	2	R1170J
2371.834	2.183	2381534	ORIENT_OFF	n/a	n/a	n/a	-999	21	[0, 0, 0]	n/a	FR1	2	R1170J
2374.017	1.617	2383717	WORD	n/a	wordpools/wordpool_EN.txt	TRAIN	1	21	[0, 0, 0]	n/a	FR1	2	R1170J
2375.634	0.984	2385334	WORD_OFF	n/a	n/a	TRAIN	1	21	[0, 0, 0]	n/a	FR1	2	R1170J
2376.618	1.617	2386318	WORD	n/a	wordpools/wordpool_EN.txt	LAKE	2	21	[0, 0, 0]	n/a	FR1	2	R1170J
2378.235	0.767	2387935	WORD_OFF	n/a	n/a	LAKE	2	21	[0, 0, 0]	n/a	FR1	2	R1170J
2379.002	1.617	2388702	WORD	n/a	wordpools/wordpool_EN.txt	SNOW	3	21	[0, 0, 0]	n/a	FR1	2	R1170J
2380.619	0.85	2390319	WORD_OFF	n/a	n/a	SNOW	3	21	[0, 0, 0]	n/a	FR1	2	R1170J
2381.469	1.616	2391169	WORD	n/a	wordpools/wordpool_EN.txt	JET	4	21	[0, 0, 0]	n/a	FR1	2	R1170J
2383.085	0.884	2392785	WORD_OFF	n/a	n/a	JET	4	21	[0, 0, 0]	n/a	FR1	2	R1170J
2383.969	1.617	2393669	WORD	n/a	wordpools/wordpool_EN.txt	DOG	5	21	[0, 0, 0]	n/a	FR1	2	R1170J
2385.586	0.782	2395286	WORD_OFF	n/a	n/a	DOG	5	21	[0, 0, 0]	n/a	FR1	2	R1170J
2386.368	1.618	2396068	WORD	n/a	wordpools/wordpool_EN.txt	FOG	6	21	[0, 0, 0]	n/a	FR1	2	R1170J
2387.986	0.934	2397686	WORD_OFF	n/a	n/a	FOG	6	21	[0, 0, 0]	n/a	FR1	2	R1170J
2388.92	1.616	2398620	WORD	n/a	wordpools/wordpool_EN.txt	HEN	7	21	[0, 0, 0]	n/a	FR1	2	R1170J
2390.536	0.967	2400236	WORD_OFF	n/a	n/a	HEN	7	21	[0, 0, 0]	n/a	FR1	2	R1170J
2391.503	1.617	2401203	WORD	n/a	wordpools/wordpool_EN.txt	HILL	8	21	[0, 0, 0]	n/a	FR1	2	R1170J
2393.12	0.783	2402820	WORD_OFF	n/a	n/a	HILL	8	21	[0, 0, 0]	n/a	FR1	2	R1170J
2393.903	1.617	2403603	WORD	n/a	wordpools/wordpool_EN.txt	BOAT	9	21	[0, 0, 0]	n/a	FR1	2	R1170J
2395.52	0.899	2405220	WORD_OFF	n/a	n/a	BOAT	9	21	[0, 0, 0]	n/a	FR1	2	R1170J
2396.419	1.601	2406118	WORD	n/a	wordpools/wordpool_EN.txt	MOOSE	10	21	[0, 0, 0]	n/a	FR1	2	R1170J
2398.02	0.884	2407719	WORD_OFF	n/a	n/a	MOOSE	10	21	[0, 0, 0]	n/a	FR1	2	R1170J
2398.904	1.617	2408603	WORD	n/a	wordpools/wordpool_EN.txt	RAIN	11	21	[0, 0, 0]	n/a	FR1	2	R1170J
2400.521	0.816	2410220	WORD_OFF	n/a	n/a	RAIN	11	21	[0, 0, 0]	n/a	FR1	2	R1170J
2401.337	1.618	2411036	WORD	n/a	wordpools/wordpool_EN.txt	SMOKE	12	21	[0, 0, 0]	n/a	FR1	2	R1170J
2402.955	0.0	2412654	WORD_OFF	n/a	n/a	SMOKE	12	21	[0, 0, 0]	n/a	FR1	2	R1170J
2402.955	0.001	2412654	DISTRACT_START	n/a	n/a	n/a	-999	21	[0, 0, 0]	n/a	FR1	2	R1170J
2402.956	0.015	2412655	START	n/a	n/a	n/a	-999	21	[-999, -999, -999]	n/a	FR1	2	R1170J
2402.971	5.151	2412670	PROB	5.151	n/a	n/a	-999	21	[4, 1, 5]	10	FR1	2	R1170J
2408.122	2.867	2417821	PROB	2.867	n/a	n/a	-999	21	[7, 1, 1]	9	FR1	2	R1170J
2410.989	3.634	2420688	PROB	3.634	n/a	n/a	-999	21	[5, 1, 4]	10	FR1	2	R1170J
2414.623	4.318	2424322	PROB	4.318	n/a	n/a	-999	21	[6, 3, 9]	18	FR1	2	R1170J
2418.941	5.286	2428640	PROB	5.286	n/a	n/a	-999	21	[6, 8, 1]	15	FR1	2	R1170J
2424.227	0.014	2433926	STOP	n/a	n/a	n/a	-999	21	[-999, -999, -999]	n/a	FR1	2	R1170J
2424.241	0.55	2433940	DISTRACT_END	n/a	n/a	n/a	-999	21	[0, 0, 0]	n/a	FR1	2	R1170J
2424.791	0.516	2434490	RETRIEVAL_ORIENT	n/a	n/a	n/a	-999	21	[0, 0, 0]	n/a	FR1	2	R1170J
2425.307	0.874	2435006	REC_START	n/a	n/a	n/a	-999	21	[0, 0, 0]	n/a	FR1	2	R1170J
2426.181	2.022	2435880	REC_WORD	2.022	n/a	DOG	-999	21	[0, 0, 0]	n/a	FR1	2	R1170J
2428.203	0.947	2437902	REC_WORD_VV	0.947	n/a	<>	-999	21	[0, 0, 0]	n/a	FR1	2	R1170J
2429.15	1.383	2438849	REC_WORD	1.383	n/a	COW	-999	21	[0, 0, 0]	n/a	FR1	2	R1170J
2430.533	2.332	2440232	REC_WORD	2.332	n/a	NEST	-999	21	[0, 0, 0]	n/a	FR1	2	R1170J
2432.865	1.505	2442564	REC_WORD	1.505	n/a	RAIN	-999	21	[0, 0, 0]	n/a	FR1	2	R1170J
2434.37	2.161	2444069	REC_WORD	2.161	n/a	TREASURE	-999	21	[0, 0, 0]	n/a	FR1	2	R1170J
2436.531	2.664	2446230	REC_WORD	2.664	n/a	FLY	-999	21	[0, 0, 0]	n/a	FR1	2	R1170J
2439.195	16.121	2448894	REC_WORD	16.121	n/a	KITE	-999	21	[0, 0, 0]	n/a	FR1	2	R1170J
2455.316	7.062	2465015	REC_END	n/a	n/a	n/a	-999	21	[0, 0, 0]	n/a	FR1	2	R1170J
2462.378	0.5	2472076	TRIAL	n/a	n/a	n/a	-999	22	[0, 0, 0]	n/a	FR1	2	R1170J
2462.878	10.428	2472576	COUNTDOWN_START	n/a	n/a	n/a	-999	22	[0, 0, 0]	n/a	FR1	2	R1170J
2473.306	0.007	2483004	COUNTDOWN_END	n/a	n/a	n/a	-999	22	[0, 0, 0]	n/a	FR1	2	R1170J
2473.313	1.618	2483011	ORIENT	n/a	n/a	n/a	-999	22	[0, 0, 0]	n/a	FR1	2	R1170J
2474.931	2.034	2484629	ORIENT_OFF	n/a	n/a	n/a	-999	22	[0, 0, 0]	n/a	FR1	2	R1170J
2476.965	1.617	2486663	WORD	n/a	wordpools/wordpool_EN.txt	TRUCK	1	22	[0, 0, 0]	n/a	FR1	2	R1170J
2478.582	0.799	2488280	WORD_OFF	n/a	n/a	TRUCK	1	22	[0, 0, 0]	n/a	FR1	2	R1170J
2479.381	1.618	2489079	WORD	n/a	wordpools/wordpool_EN.txt	VEST	2	22	[0, 0, 0]	n/a	FR1	2	R1170J
2480.999	0.85	2490697	WORD_OFF	n/a	n/a	VEST	2	22	[0, 0, 0]	n/a	FR1	2	R1170J
2481.849	1.617	2491547	WORD	n/a	wordpools/wordpool_EN.txt	ROOM	3	22	[0, 0, 0]	n/a	FR1	2	R1170J
2483.466	0.8	2493164	WORD_OFF	n/a	n/a	ROOM	3	22	[0, 0, 0]	n/a	FR1	2	R1170J
2484.266	1.617	2493964	WORD	n/a	wordpools/wordpool_EN.txt	GATE	4	22	[0, 0, 0]	n/a	FR1	2	R1170J
2485.883	0.95	2495581	WORD_OFF	n/a	n/a	GATE	4	22	[0, 0, 0]	n/a	FR1	2	R1170J
2486.833	1.615	2496531	WORD	n/a	wordpools/wordpool_EN.txt	STAIR	5	22	[0, 0, 0]	n/a	FR1	2	R1170J
2488.448	1.001	2498146	WORD_OFF	n/a	n/a	STAIR	5	22	[0, 0, 0]	n/a	FR1	2	R1170J
2489.449	1.601	2499147	WORD	n/a	wordpools/wordpool_EN.txt	STICK	6	22	[0, 0, 0]	n/a	FR1	2	R1170J
2491.05	0.9	2500748	WORD_OFF	n/a	n/a	STICK	6	22	[0, 0, 0]	n/a	FR1	2	R1170J
2491.95	1.617	2501648	WORD	n/a	wordpools/wordpool_EN.txt	ELF	7	22	[0, 0, 0]	n/a	FR1	2	R1170J
2493.567	0.866	2503265	WORD_OFF	n/a	n/a	ELF	7	22	[0, 0, 0]	n/a	FR1	2	R1170J
2494.433	1.618	2504131	WORD	n/a	wordpools/wordpool_EN.txt	TIE	8	22	[0, 0, 0]	n/a	FR1	2	R1170J
2496.051	0.883	2505749	WORD_OFF	n/a	n/a	TIE	8	22	[0, 0, 0]	n/a	FR1	2	R1170J
2496.934	1.617	2506632	WORD	n/a	wordpools/wordpool_EN.txt	DESK	9	22	[0, 0, 0]	n/a	FR1	2	R1170J
2498.551	0.917	2508249	WORD_OFF	n/a	n/a	DESK	9	22	[0, 0, 0]	n/a	FR1	2	R1170J
2499.468	1.617	2509166	WORD	n/a	wordpools/wordpool_EN.txt	LIP	10	22	[0, 0, 0]	n/a	FR1	2	R1170J
2501.085	0.867	2510783	WORD_OFF	n/a	n/a	LIP	10	22	[0, 0, 0]	n/a	FR1	2	R1170J
2501.952	1.616	2511650	WORD	n/a	wordpools/wordpool_EN.txt	SEAT	11	22	[0, 0, 0]	n/a	FR1	2	R1170J
2503.568	0.832	2513266	WORD_OFF	n/a	n/a	SEAT	11	22	[0, 0, 0]	n/a	FR1	2	R1170J
2504.4	1.619	2514098	WORD	n/a	wordpools/wordpool_EN.txt	BROOM	12	22	[0, 0, 0]	n/a	FR1	2	R1170J
2506.019	0.0	2515717	WORD_OFF	n/a	n/a	BROOM	12	22	[0, 0, 0]	n/a	FR1	2	R1170J
2506.019	0.0	2515717	DISTRACT_START	n/a	n/a	n/a	-999	22	[0, 0, 0]	n/a	FR1	2	R1170J
2506.019	0.016	2515717	START	n/a	n/a	n/a	-999	22	[-999, -999, -999]	n/a	FR1	2	R1170J
2506.035	4.184	2515733	PROB	4.184	n/a	n/a	-999	22	[6, 4, 3]	13	FR1	2	R1170J
2510.219	8.284	2519917	PROB	8.284	n/a	n/a	-999	22	[9, 6, 2]	17	FR1	2	R1170J
2518.503	5.652	2528201	PROB	5.652	n/a	n/a	-999	22	[6, 9, 7]	22	FR1	2	R1170J
2524.155	2.219	2533853	PROB	2.219	n/a	n/a	-999	22	[2, 8, 1]	11	FR1	2	R1170J
2526.374	0.013	2536072	STOP	n/a	n/a	n/a	-999	22	[-999, -999, -999]	n/a	FR1	2	R1170J
2526.387	0.518	2536085	DISTRACT_END	n/a	n/a	n/a	-999	22	[0, 0, 0]	n/a	FR1	2	R1170J
2526.905	0.516	2536603	RETRIEVAL_ORIENT	n/a	n/a	n/a	-999	22	[0, 0, 0]	n/a	FR1	2	R1170J
2527.421	1.538	2537118	REC_START	n/a	n/a	n/a	-999	22	[0, 0, 0]	n/a	FR1	2	R1170J
2528.959	1.0	2538656	REC_WORD_VV	1.0	n/a	<>	-999	22	[0, 0, 0]	n/a	FR1	2	R1170J
2529.959	4.784	2539656	REC_WORD_VV	4.784	n/a	<>	-999	22	[0, 0, 0]	n/a	FR1	2	R1170J
2534.743	1.0	2544440	REC_WORD_VV	1.0	n/a	<>	-999	22	[0, 0, 0]	n/a	FR1	2	R1170J
2535.743	2.328	2545440	REC_WORD_VV	2.328	n/a	<>	-999	22	[0, 0, 0]	n/a	FR1	2	R1170J
2538.071	2.632	2547768	REC_WORD	2.632	n/a	GLASS	-999	22	[0, 0, 0]	n/a	FR1	2	R1170J
2540.703	3.88	2550400	REC_WORD	3.88	n/a	CARPET	-999	22	[0, 0, 0]	n/a	FR1	2	R1170J
2544.583	4.639	2554280	REC_WORD	4.639	n/a	FUZZY	-999	22	[0, 0, 0]	n/a	FR1	2	R1170J
2549.222	1.0	2558919	REC_WORD_VV	1.0	n/a	<>	-999	22	[0, 0, 0]	n/a	FR1	2	R1170J
2550.222	7.21	2559919	REC_WORD_VV	7.21	n/a	<>	-999	22	[0, 0, 0]	n/a	FR1	2	R1170J
2557.432	6.044	2567129	REC_END	n/a	n/a	n/a	-999	22	[0, 0, 0]	n/a	FR1	2	R1170J
2563.476	0.5	2573173	TRIAL	n/a	n/a	n/a	-999	23	[0, 0, 0]	n/a	FR1	2	R1170J
2563.976	10.428	2573673	COUNTDOWN_START	n/a	n/a	n/a	-999	23	[0, 0, 0]	n/a	FR1	2	R1170J
2574.404	0.006	2584101	COUNTDOWN_END	n/a	n/a	n/a	-999	23	[0, 0, 0]	n/a	FR1	2	R1170J
2574.41	1.618	2584107	ORIENT	n/a	n/a	n/a	-999	23	[0, 0, 0]	n/a	FR1	2	R1170J
2576.028	2.084	2585725	ORIENT_OFF	n/a	n/a	n/a	-999	23	[0, 0, 0]	n/a	FR1	2	R1170J
2578.112	1.617	2587809	WORD	n/a	wordpools/wordpool_EN.txt	BRICK	1	23	[0, 0, 0]	n/a	FR1	2	R1170J
2579.729	1.0	2589426	WORD_OFF	n/a	n/a	BRICK	1	23	[0, 0, 0]	n/a	FR1	2	R1170J
2580.729	1.616	2590426	WORD	n/a	wordpools/wordpool_EN.txt	STONE	2	23	[0, 0, 0]	n/a	FR1	2	R1170J
2582.345	0.867	2592042	WORD_OFF	n/a	n/a	STONE	2	23	[0, 0, 0]	n/a	FR1	2	R1170J
2583.212	1.617	2592909	WORD	n/a	wordpools/wordpool_EN.txt	SNAIL	3	23	[0, 0, 0]	n/a	FR1	2	R1170J
2584.829	1.001	2594526	WORD_OFF	n/a	n/a	SNAIL	3	23	[0, 0, 0]	n/a	FR1	2	R1170J
2585.83	1.615	2595527	WORD	n/a	wordpools/wordpool_EN.txt	SUN	4	23	[0, 0, 0]	n/a	FR1	2	R1170J
2587.445	0.85	2597142	WORD_OFF	n/a	n/a	SUN	4	23	[0, 0, 0]	n/a	FR1	2	R1170J
2588.295	1.602	2597992	WORD	n/a	wordpools/wordpool_EN.txt	APE	5	23	[0, 0, 0]	n/a	FR1	2	R1170J
2589.897	0.85	2599594	WORD_OFF	n/a	n/a	APE	5	23	[0, 0, 0]	n/a	FR1	2	R1170J
2590.747	1.616	2600444	WORD	n/a	wordpools/wordpool_EN.txt	BRIDGE	6	23	[0, 0, 0]	n/a	FR1	2	R1170J
2592.363	0.767	2602060	WORD_OFF	n/a	n/a	BRIDGE	6	23	[0, 0, 0]	n/a	FR1	2	R1170J
2593.13	1.617	2602826	WORD	n/a	wordpools/wordpool_EN.txt	SHIELD	7	23	[0, 0, 0]	n/a	FR1	2	R1170J
2594.747	0.95	2604443	WORD_OFF	n/a	n/a	SHIELD	7	23	[0, 0, 0]	n/a	FR1	2	R1170J
2595.697	1.616	2605393	WORD	n/a	wordpools/wordpool_EN.txt	BEACH	8	23	[0, 0, 0]	n/a	FR1	2	R1170J
2597.313	1.001	2607009	WORD_OFF	n/a	n/a	BEACH	8	23	[0, 0, 0]	n/a	FR1	2	R1170J
2598.314	1.618	2608010	WORD	n/a	wordpools/wordpool_EN.txt	ROCK	9	23	[0, 0, 0]	n/a	FR1	2	R1170J
2599.932	0.833	2609628	WORD_OFF	n/a	n/a	ROCK	9	23	[0, 0, 0]	n/a	FR1	2	R1170J
2600.765	1.616	2610461	WORD	n/a	wordpools/wordpool_EN.txt	ROPE	10	23	[0, 0, 0]	n/a	FR1	2	R1170J
2602.381	0.916	2612077	WORD_OFF	n/a	n/a	ROPE	10	23	[0, 0, 0]	n/a	FR1	2	R1170J
2603.297	1.618	2612993	WORD	n/a	wordpools/wordpool_EN.txt	SEA	11	23	[0, 0, 0]	n/a	FR1	2	R1170J
2604.915	0.867	2614611	WORD_OFF	n/a	n/a	SEA	11	23	[0, 0, 0]	n/a	FR1	2	R1170J
2605.782	1.616	2615478	WORD	n/a	wordpools/wordpool_EN.txt	SHELL	12	23	[0, 0, 0]	n/a	FR1	2	R1170J
2607.398	0.0	2617094	WORD_OFF	n/a	n/a	SHELL	12	23	[0, 0, 0]	n/a	FR1	2	R1170J
2607.398	0.001	2617094	DISTRACT_START	n/a	n/a	n/a	-999	23	[0, 0, 0]	n/a	FR1	2	R1170J
2607.399	0.016	2617095	START	n/a	n/a	n/a	-999	23	[-999, -999, -999]	n/a	FR1	2	R1170J
2607.415	6.151	2617111	PROB	6.151	n/a	n/a	-999	23	[1, 8, 9]	18	FR1	2	R1170J
2613.566	3.8	2623262	PROB	3.8	n/a	n/a	-999	23	[5, 7, 2]	14	FR1	2	R1170J
2617.366	3.552	2627062	PROB	3.552	n/a	n/a	-999	23	[7, 1, 2]	10	FR1	2	R1170J
2620.918	3.449	2630614	PROB	3.449	n/a	n/a	-999	23	[7, 1, 2]	10	FR1	2	R1170J
2624.367	4.246	2634063	PROB	4.246	n/a	n/a	-999	23	[2, 1, 7]	10	FR1	2	R1170J
2628.613	0.022	2638309	STOP	n/a	n/a	n/a	-999	23	[-999, -999, -999]	n/a	FR1	2	R1170J
2628.635	0.617	2638331	DISTRACT_END	n/a	n/a	n/a	-999	23	[0, 0, 0]	n/a	FR1	2	R1170J
2629.252	0.518	2638948	RETRIEVAL_ORIENT	n/a	n/a	n/a	-999	23	[0, 0, 0]	n/a	FR1	2	R1170J
2629.77	0.328	2639466	REC_START	n/a	n/a	n/a	-999	23	[0, 0, 0]	n/a	FR1	2	R1170J
2630.098	1.0	2639794	REC_WORD_VV	1.0	n/a	<>	-999	23	[0, 0, 0]	n/a	FR1	2	R1170J
2631.098	1.341	2640794	REC_WORD_VV	1.341	n/a	<>	-999	23	[0, 0, 0]	n/a	FR1	2	R1170J
2632.439	5.506	2642135	REC_WORD_VV	5.506	n/a	<>	-999	23	[0, 0, 0]	n/a	FR1	2	R1170J
2637.945	3.441	2647641	REC_WORD_VV	3.441	n/a	<>	-999	23	[0, 0, 0]	n/a	FR1	2	R1170J
2641.386	3.183	2651082	REC_WORD_VV	3.183	n/a	<>	-999	23	[0, 0, 0]	n/a	FR1	2	R1170J
2644.569	2.09	2654265	REC_WORD_VV	2.09	n/a	<>	-999	23	[0, 0, 0]	n/a	FR1	2	R1170J
2646.659	3.407	2656355	REC_WORD_VV	3.407	n/a	<>	-999	23	[0, 0, 0]	n/a	FR1	2	R1170J
2650.066	9.713	2659762	REC_WORD	9.713	n/a	DOG	-999	23	[0, 0, 0]	n/a	FR1	2	R1170J
2659.779	4.811	2669474	REC_END	n/a	n/a	n/a	-999	23	[0, 0, 0]	n/a	FR1	2	R1170J
2664.59	0.5	2674285	TRIAL	n/a	n/a	n/a	-999	24	[0, 0, 0]	n/a	FR1	2	R1170J
2665.09	10.428	2674785	COUNTDOWN_START	n/a	n/a	n/a	-999	24	[0, 0, 0]	n/a	FR1	2	R1170J
2675.518	0.007	2685213	COUNTDOWN_END	n/a	n/a	n/a	-999	24	[0, 0, 0]	n/a	FR1	2	R1170J
2675.525	1.617	2685220	ORIENT	n/a	n/a	n/a	-999	24	[0, 0, 0]	n/a	FR1	2	R1170J
2677.142	1.967	2686837	ORIENT_OFF	n/a	n/a	n/a	-999	24	[0, 0, 0]	n/a	FR1	2	R1170J
2679.109	1.617	2688804	WORD	n/a	wordpools/wordpool_EN.txt	DOCK	1	24	[0, 0, 0]	n/a	FR1	2	R1170J
2680.726	0.883	2690421	WORD_OFF	n/a	n/a	DOCK	1	24	[0, 0, 0]	n/a	FR1	2	R1170J
2681.609	1.617	2691304	WORD	n/a	wordpools/wordpool_EN.txt	PANTS	2	24	[0, 0, 0]	n/a	FR1	2	R1170J
2683.226	0.95	2692921	WORD_OFF	n/a	n/a	PANTS	2	24	[0, 0, 0]	n/a	FR1	2	R1170J
2684.176	1.617	2693871	WORD	n/a	wordpools/wordpool_EN.txt	RUG	3	24	[0, 0, 0]	n/a	FR1	2	R1170J
2685.793	0.883	2695488	WORD_OFF	n/a	n/a	RUG	3	24	[0, 0, 0]	n/a	FR1	2	R1170J
2686.676	1.616	2696371	WORD	n/a	wordpools/wordpool_EN.txt	SKI	4	24	[0, 0, 0]	n/a	FR1	2	R1170J
2688.292	0.918	2697987	WORD_OFF	n/a	n/a	SKI	4	24	[0, 0, 0]	n/a	FR1	2	R1170J
2689.21	1.617	2698905	WORD	n/a	wordpools/wordpool_EN.txt	WHALE	5	24	[0, 0, 0]	n/a	FR1	2	R1170J
2690.827	0.967	2700522	WORD_OFF	n/a	n/a	WHALE	5	24	[0, 0, 0]	n/a	FR1	2	R1170J
2691.794	1.615	2701489	WORD	n/a	wordpools/wordpool_EN.txt	SAIL	6	24	[0, 0, 0]	n/a	FR1	2	R1170J
2693.409	0.917	2703104	WORD_OFF	n/a	n/a	SAIL	6	24	[0, 0, 0]	n/a	FR1	2	R1170J
2694.326	1.618	2704021	WORD	n/a	wordpools/wordpool_EN.txt	DOOR	7	24	[0, 0, 0]	n/a	FR1	2	R1170J
2695.944	1.017	2705639	WORD_OFF	n/a	n/a	DOOR	7	24	[0, 0, 0]	n/a	FR1	2	R1170J
2696.961	1.617	2706656	WORD	n/a	wordpools/wordpool_EN.txt	FUR	8	24	[0, 0, 0]	n/a	FR1	2	R1170J
2698.578	0.917	2708273	WORD_OFF	n/a	n/a	FUR	8	24	[0, 0, 0]	n/a	FR1	2	R1170J
2699.495	1.617	2709190	WORD	n/a	wordpools/wordpool_EN.txt	BEAR	9	24	[0, 0, 0]	n/a	FR1	2	R1170J
2701.112	0.8	2710807	WORD_OFF	n/a	n/a	BEAR	9	24	[0, 0, 0]	n/a	FR1	2	R1170J
2701.912	1.617	2711607	WORD	n/a	wordpools/wordpool_EN.txt	WOLF	10	24	[0, 0, 0]	n/a	FR1	2	R1170J
2703.529	0.933	2713224	WORD_OFF	n/a	n/a	WOLF	10	24	[0, 0, 0]	n/a	FR1	2	R1170J
2704.462	1.617	2714157	WORD	n/a	wordpools/wordpool_EN.txt	GEESE	11	24	[0, 0, 0]	n/a	FR1	2	R1170J
2706.079	0.884	2715774	WORD_OFF	n/a	n/a	GEESE	11	24	[0, 0, 0]	n/a	FR1	2	R1170J
2706.963	1.617	2716658	WORD	n/a	wordpools/wordpool_EN.txt	CLOWN	12	24	[0, 0, 0]	n/a	FR1	2	R1170J
2708.58	0.0	2718275	WORD_OFF	n/a	n/a	CLOWN	12	24	[0, 0, 0]	n/a	FR1	2	R1170J
2708.58	0.0	2718275	DISTRACT_START	n/a	n/a	n/a	-999	24	[0, 0, 0]	n/a	FR1	2	R1170J
2708.58	0.016	2718275	START	n/a	n/a	n/a	-999	24	[-999, -999, -999]	n/a	FR1	2	R1170J
2708.596	3.951	2718291	PROB	3.951	n/a	n/a	-999	24	[3, 2, 7]	12	FR1	2	R1170J
2712.547	5.85	2722242	PROB	5.85	n/a	n/a	-999	24	[9, 1, 3]	13	FR1	2	R1170J
2718.397	2.834	2728092	PROB	2.834	n/a	n/a	-999	24	[2, 5, 1]	8	FR1	2	R1170J
2721.231	4.351	2730926	PROB	4.351	n/a	n/a	-999	24	[3, 5, 9]	17	FR1	2	R1170J
2725.582	4.163	2735276	PROB	4.163	n/a	n/a	-999	24	[2, 1, 2]	5	FR1	2	R1170J
2729.745	0.021	2739439	STOP	n/a	n/a	n/a	-999	24	[-999, -999, -999]	n/a	FR1	2	R1170J
2729.766	0.649	2739460	DISTRACT_END	n/a	n/a	n/a	-999	24	[0, 0, 0]	n/a	FR1	2	R1170J
2730.415	0.518	2740109	RETRIEVAL_ORIENT	n/a	n/a	n/a	-999	24	[0, 0, 0]	n/a	FR1	2	R1170J
2730.933	0.323	2740627	REC_START	n/a	n/a	n/a	-999	24	[0, 0, 0]	n/a	FR1	2	R1170J
2731.256	2.494	2740950	REC_WORD	2.494	n/a	CLOWN	-999	24	[0, 0, 0]	n/a	FR1	2	R1170J
2733.75	0.824	2743444	REC_WORD_VV	0.824	n/a	<>	-999	24	[0, 0, 0]	n/a	FR1	2	R1170J
2734.574	6.184	2744268	REC_WORD	6.184	n/a	ARMY	-999	24	[0, 0, 0]	n/a	FR1	2	R1170J
2740.758	0.81	2750452	REC_WORD_VV	0.81	n/a	<>	-999	24	[0, 0, 0]	n/a	FR1	2	R1170J
2741.568	1.512	2751262	REC_WORD	1.512	n/a	PANTS	-999	24	[0, 0, 0]	n/a	FR1	2	R1170J
2743.08	3.439	2752774	REC_WORD	3.439	n/a	LEG	-999	24	[0, 0, 0]	n/a	FR1	2	R1170J
2746.519	5.235	2756213	REC_WORD	5.235	n/a	WHALE	-999	24	[0, 0, 0]	n/a	FR1	2	R1170J
2751.754	9.19	2761448	REC_WORD	9.19	n/a	DUCK	-999	24	[0, 0, 0]	n/a	FR1	2	R1170J
2760.944	5.226	2770638	REC_END	n/a	n/a	n/a	-999	24	[0, 0, 0]	n/a	FR1	2	R1170J
2766.17	0.5	2775864	TRIAL	n/a	n/a	n/a	-999	25	[0, 0, 0]	n/a	FR1	2	R1170J
