onset	duration	sample	trial_type	response_time	stim_file	item_name	serialpos	list	test	answer	experiment	session	subject
0.0	0.0	6720	INSTRUCT_START	n/a	n/a	n/a	-999	-999	[0, 0, 0]	n/a	FR1	6	R1230J
0.0	10.804	6720	INSTRUCT_END	n/a	n/a	n/a	-999	-999	[0, 0, 0]	n/a	FR1	6	R1230J
10.804	0.0	17524	SESS_START	n/a	n/a	n/a	-999	-999	[0, 0, 0]	n/a	FR1	6	R1230J
10.804	911.67	17524	MIC_TEST	n/a	n/a	n/a	-999	-999	[0, 0, 0]	n/a	FR1	6	R1230J
922.474	2.81	929196	PRACTICE_TRIAL	n/a	n/a	n/a	-999	-1	[0, 0, 0]	n/a	FR1	6	R1230J
925.284	10.428	932006	COUNTDOWN_START	n/a	n/a	n/a	-999	-1	[0, 0, 0]	n/a	FR1	6	R1230J
935.712	0.006	942434	COUNTDOWN_END	n/a	n/a	n/a	-999	-1	[0, 0, 0]	n/a	FR1	6	R1230J
935.718	1.601	942440	PRACTICE_ORIENT	n/a	n/a	n/a	-999	-1	[0, 0, 0]	n/a	FR1	6	R1230J
937.319	2.001	944041	PRACTICE_ORIENT_OFF	n/a	n/a	n/a	-999	-1	[0, 0, 0]	n/a	FR1	6	R1230J
939.32	1.617	946042	PRACTICE_WORD	n/a	n/a	CHEST	1	-1	[0, 0, 0]	n/a	FR1	6	R1230J
940.937	0.816	947659	PRACTICE_WORD_OFF	n/a	n/a	CHEST	-999	-1	[0, 0, 0]	n/a	FR1	6	R1230J
941.753	1.617	948475	PRACTICE_WORD	n/a	n/a	RING	2	-1	[0, 0, 0]	n/a	FR1	6	R1230J
943.37	0.934	950092	PRACTICE_WORD_OFF	n/a	n/a	RING	-999	-1	[0, 0, 0]	n/a	FR1	6	R1230J
944.304	1.617	951026	PRACTICE_WORD	n/a	n/a	TONGUE	3	-1	[0, 0, 0]	n/a	FR1	6	R1230J
945.921	0.983	952643	PRACTICE_WORD_OFF	n/a	n/a	TONGUE	-999	-1	[0, 0, 0]	n/a	FR1	6	R1230J
946.904	1.617	953626	PRACTICE_WORD	n/a	n/a	RHINO	4	-1	[0, 0, 0]	n/a	FR1	6	R1230J
948.521	0.933	955243	PRACTICE_WORD_OFF	n/a	n/a	RHINO	-999	-1	[0, 0, 0]	n/a	FR1	6	R1230J
949.454	1.617	956176	PRACTICE_WORD	n/a	n/a	IRON	5	-1	[0, 0, 0]	n/a	FR1	6	R1230J
951.071	0.801	957793	PRACTICE_WORD_OFF	n/a	n/a	IRON	-999	-1	[0, 0, 0]	n/a	FR1	6	R1230J
951.872	1.616	958594	PRACTICE_WORD	n/a	n/a	WAGON	6	-1	[0, 0, 0]	n/a	FR1	6	R1230J
953.488	0.867	960210	PRACTICE_WORD_OFF	n/a	n/a	WAGON	-999	-1	[0, 0, 0]	n/a	FR1	6	R1230J
954.355	1.617	961077	PRACTICE_WORD	n/a	n/a	ATTIC	7	-1	[0, 0, 0]	n/a	FR1	6	R1230J
955.972	0.983	962694	PRACTICE_WORD_OFF	n/a	n/a	ATTIC	-999	-1	[0, 0, 0]	n/a	FR1	6	R1230J
956.955	1.616	963677	PRACTICE_WORD	n/a	n/a	WATCH	8	-1	[0, 0, 0]	n/a	FR1	6	R1230J
958.571	0.901	965293	PRACTICE_WORD_OFF	n/a	n/a	WATCH	-999	-1	[0, 0, 0]	n/a	FR1	6	R1230J
959.472	1.617	966194	PRACTICE_WORD	n/a	n/a	FLOOD	9	-1	[0, 0, 0]	n/a	FR1	6	R1230J
961.089	0.85	967811	PRACTICE_WORD_OFF	n/a	n/a	FLOOD	-999	-1	[0, 0, 0]	n/a	FR1	6	R1230J
961.939	1.617	968661	PRACTICE_WORD	n/a	n/a	CAMEL	10	-1	[0, 0, 0]	n/a	FR1	6	R1230J
963.556	0.767	970278	PRACTICE_WORD_OFF	n/a	n/a	CAMEL	-999	-1	[0, 0, 0]	n/a	FR1	6	R1230J
964.323	1.617	971045	PRACTICE_WORD	n/a	n/a	BEAM	11	-1	[0, 0, 0]	n/a	FR1	6	R1230J
965.94	0.85	972662	PRACTICE_WORD_OFF	n/a	n/a	BEAM	-999	-1	[0, 0, 0]	n/a	FR1	6	R1230J
966.79	1.617	973512	PRACTICE_WORD	n/a	n/a	COTTON	12	-1	[0, 0, 0]	n/a	FR1	6	R1230J
968.407	0.0	975129	PRACTICE_WORD_OFF	n/a	n/a	COTTON	-999	-1	[0, 0, 0]	n/a	FR1	6	R1230J
968.407	0.001	975129	DISTRACT_START	n/a	n/a	n/a	-999	-1	[0, 0, 0]	n/a	FR1	6	R1230J
968.408	0.016	975130	START	n/a	n/a	n/a	-999	-1	[-999, -999, -999]	n/a	FR1	6	R1230J
968.424	3.249	975146	PROB	3.249	n/a	n/a	-999	-1	[7, 4, 6]	17	FR1	6	R1230J
971.673	2.618	978395	PROB	2.618	n/a	n/a	-999	-1	[6, 5, 3]	14	FR1	6	R1230J
974.291	3.017	981013	PROB	3.017	n/a	n/a	-999	-1	[9, 4, 7]	20	FR1	6	R1230J
977.308	2.767	984030	PROB	2.767	n/a	n/a	-999	-1	[1, 4, 9]	14	FR1	6	R1230J
980.075	2.433	986797	PROB	2.433	n/a	n/a	-999	-1	[1, 7, 8]	16	FR1	6	R1230J
982.508	3.418	989230	PROB	3.418	n/a	n/a	-999	-1	[8, 4, 7]	20	FR1	6	R1230J
985.926	3.213	992648	PROB	3.213	n/a	n/a	-999	-1	[5, 2, 3]	10	FR1	6	R1230J
989.139	0.021	995861	STOP	n/a	n/a	n/a	-999	-1	[-999, -999, -999]	n/a	FR1	6	R1230J
989.16	0.65	995882	DISTRACT_END	n/a	n/a	n/a	-999	-1	[0, 0, 0]	n/a	FR1	6	R1230J
989.81	0.517	996532	RETRIEVAL_ORIENT	n/a	n/a	n/a	-999	-1	[0, 0, 0]	n/a	FR1	6	R1230J
990.327	30.013	997049	PRACTICE_REC_START	n/a	n/a	n/a	-999	-1	[0, 0, 0]	n/a	FR1	6	R1230J
1020.34	5.957	1027062	PRACTICE_REC_END	n/a	n/a	n/a	-999	-1	[0, 0, 0]	n/a	FR1	6	R1230J
1026.297	0.5	1033019	TRIAL	n/a	n/a	n/a	-999	1	[0, 0, 0]	n/a	FR1	6	R1230J
1026.797	10.428	1033519	COUNTDOWN_START	n/a	n/a	n/a	-999	1	[0, 0, 0]	n/a	FR1	6	R1230J
1037.225	0.007	1043947	COUNTDOWN_END	n/a	n/a	n/a	-999	1	[0, 0, 0]	n/a	FR1	6	R1230J
1037.232	1.617	1043954	ORIENT	n/a	n/a	n/a	-999	1	[0, 0, 0]	n/a	FR1	6	R1230J
1038.849	1.967	1045571	ORIENT_OFF	n/a	n/a	n/a	-999	1	[0, 0, 0]	n/a	FR1	6	R1230J
1040.816	1.617	1047538	WORD	n/a	wordpools/wordpool_EN.txt	TRASH	1	1	[0, 0, 0]	n/a	FR1	6	R1230J
1042.433	0.933	1049155	WORD_OFF	n/a	n/a	TRASH	1	1	[0, 0, 0]	n/a	FR1	6	R1230J
1043.366	1.617	1050088	WORD	n/a	wordpools/wordpool_EN.txt	WAVE	2	1	[0, 0, 0]	n/a	FR1	6	R1230J
1044.983	0.8	1051705	WORD_OFF	n/a	n/a	WAVE	2	1	[0, 0, 0]	n/a	FR1	6	R1230J
1045.783	1.617	1052505	WORD	n/a	wordpools/wordpool_EN.txt	CORD	3	1	[0, 0, 0]	n/a	FR1	6	R1230J
1047.4	1.0	1054122	WORD_OFF	n/a	n/a	CORD	3	1	[0, 0, 0]	n/a	FR1	6	R1230J
1048.4	1.617	1055122	WORD	n/a	wordpools/wordpool_EN.txt	SEED	4	1	[0, 0, 0]	n/a	FR1	6	R1230J
1050.017	0.884	1056739	WORD_OFF	n/a	n/a	SEED	4	1	[0, 0, 0]	n/a	FR1	6	R1230J
1050.901	1.617	1057623	WORD	n/a	wordpools/wordpool_EN.txt	WAND	5	1	[0, 0, 0]	n/a	FR1	6	R1230J
1052.518	0.85	1059240	WORD_OFF	n/a	n/a	WAND	5	1	[0, 0, 0]	n/a	FR1	6	R1230J
1053.368	1.617	1060090	WORD	n/a	wordpools/wordpool_EN.txt	HORSE	6	1	[0, 0, 0]	n/a	FR1	6	R1230J
1054.985	0.966	1061707	WORD_OFF	n/a	n/a	HORSE	6	1	[0, 0, 0]	n/a	FR1	6	R1230J
1055.951	1.617	1062673	WORD	n/a	wordpools/wordpool_EN.txt	STORE	7	1	[0, 0, 0]	n/a	FR1	6	R1230J
1057.568	0.967	1064290	WORD_OFF	n/a	n/a	STORE	7	1	[0, 0, 0]	n/a	FR1	6	R1230J
1058.535	1.617	1065257	WORD	n/a	wordpools/wordpool_EN.txt	BOMB	8	1	[0, 0, 0]	n/a	FR1	6	R1230J
1060.152	0.9	1066874	WORD_OFF	n/a	n/a	BOMB	8	1	[0, 0, 0]	n/a	FR1	6	R1230J
1061.052	1.616	1067774	WORD	n/a	wordpools/wordpool_EN.txt	STAR	9	1	[0, 0, 0]	n/a	FR1	6	R1230J
1062.668	0.983	1069390	WORD_OFF	n/a	n/a	STAR	9	1	[0, 0, 0]	n/a	FR1	6	R1230J
1063.651	1.618	1070373	WORD	n/a	wordpools/wordpool_EN.txt	BEAR	10	1	[0, 0, 0]	n/a	FR1	6	R1230J
1065.269	0.834	1071991	WORD_OFF	n/a	n/a	BEAR	10	1	[0, 0, 0]	n/a	FR1	6	R1230J
1066.103	1.616	1072825	WORD	n/a	wordpools/wordpool_EN.txt	JAIL	11	1	[0, 0, 0]	n/a	FR1	6	R1230J
1067.719	0.95	1074441	WORD_OFF	n/a	n/a	JAIL	11	1	[0, 0, 0]	n/a	FR1	6	R1230J
1068.669	1.618	1075391	WORD	n/a	wordpools/wordpool_EN.txt	NET	12	1	[0, 0, 0]	n/a	FR1	6	R1230J
1070.287	0.0	1077009	WORD_OFF	n/a	n/a	NET	12	1	[0, 0, 0]	n/a	FR1	6	R1230J
1070.287	0.0	1077009	DISTRACT_START	n/a	n/a	n/a	-999	1	[0, 0, 0]	n/a	FR1	6	R1230J
1070.287	0.016	1077009	START	n/a	n/a	n/a	-999	1	[-999, -999, -999]	n/a	FR1	6	R1230J
1070.303	2.467	1077025	PROB	2.467	n/a	n/a	-999	1	[3, 9, 1]	13	FR1	6	R1230J
1072.77	2.8	1079492	PROB	2.8	n/a	n/a	-999	1	[6, 7, 8]	21	FR1	6	R1230J
1075.57	3.0	1082292	PROB	3.0	n/a	n/a	-999	1	[5, 9, 5]	19	FR1	6	R1230J
1078.57	1.968	1085292	PROB	1.968	n/a	n/a	-999	1	[1, 1, 3]	5	FR1	6	R1230J
1080.538	2.35	1087260	PROB	2.35	n/a	n/a	-999	1	[3, 4, 1]	8	FR1	6	R1230J
1082.888	4.084	1089610	PROB	4.084	n/a	n/a	-999	1	[4, 9, 7]	20	FR1	6	R1230J
1086.972	2.951	1093694	PROB	2.951	n/a	n/a	-999	1	[9, 6, 7]	22	FR1	6	R1230J
1089.923	2.506	1096645	PROB	2.506	n/a	n/a	-999	1	[4, 6, 5]	15	FR1	6	R1230J
1092.429	0.011	1099151	STOP	n/a	n/a	n/a	-999	1	[-999, -999, -999]	n/a	FR1	6	R1230J
1092.44	0.666	1099162	DISTRACT_END	n/a	n/a	n/a	-999	1	[0, 0, 0]	n/a	FR1	6	R1230J
1093.106	0.517	1099828	RETRIEVAL_ORIENT	n/a	n/a	n/a	-999	1	[0, 0, 0]	n/a	FR1	6	R1230J
1093.623	0.487	1100345	REC_START	n/a	n/a	n/a	-999	1	[0, 0, 0]	n/a	FR1	6	R1230J
1094.11	0.74	1100832	REC_WORD	0.74	n/a	TRASH	1	1	[0, 0, 0]	n/a	FR1	6	R1230J
1094.85	0.72	1101572	REC_WORD	0.72	n/a	WAVE	2	1	[0, 0, 0]	n/a	FR1	6	R1230J
1095.57	1.049	1102292	REC_WORD	1.049	n/a	CORD	3	1	[0, 0, 0]	n/a	FR1	6	R1230J
1096.619	2.854	1103341	REC_WORD	2.854	n/a	HORSE	6	1	[0, 0, 0]	n/a	FR1	6	R1230J
1099.473	22.242	1106195	REC_WORD	22.242	n/a	BEAR	10	1	[0, 0, 0]	n/a	FR1	6	R1230J
1121.715	1.92	1128437	REC_WORD_VV	1.92	n/a	<>	-999	1	[0, 0, 0]	n/a	FR1	6	R1230J
1123.635	5.409	1130357	REC_END	n/a	n/a	n/a	-999	1	[0, 0, 0]	n/a	FR1	6	R1230J
1129.044	0.5	1135766	TRIAL	n/a	n/a	n/a	-999	2	[0, 0, 0]	n/a	FR1	6	R1230J
1129.544	10.428	1136266	COUNTDOWN_START	n/a	n/a	n/a	-999	2	[0, 0, 0]	n/a	FR1	6	R1230J
1139.972	0.007	1146694	COUNTDOWN_END	n/a	n/a	n/a	-999	2	[0, 0, 0]	n/a	FR1	6	R1230J
1139.979	1.616	1146701	ORIENT	n/a	n/a	n/a	-999	2	[0, 0, 0]	n/a	FR1	6	R1230J
1141.595	2.0	1148317	ORIENT_OFF	n/a	n/a	n/a	-999	2	[0, 0, 0]	n/a	FR1	6	R1230J
1143.595	1.618	1150317	WORD	n/a	wordpools/wordpool_EN.txt	GOLD	1	2	[0, 0, 0]	n/a	FR1	6	R1230J
1145.213	0.983	1151935	WORD_OFF	n/a	n/a	GOLD	1	2	[0, 0, 0]	n/a	FR1	6	R1230J
1146.196	1.617	1152918	WORD	n/a	wordpools/wordpool_EN.txt	CAVE	2	2	[0, 0, 0]	n/a	FR1	6	R1230J
1147.813	0.866	1154535	WORD_OFF	n/a	n/a	CAVE	2	2	[0, 0, 0]	n/a	FR1	6	R1230J
1148.679	1.618	1155401	WORD	n/a	wordpools/wordpool_EN.txt	CORN	3	2	[0, 0, 0]	n/a	FR1	6	R1230J
1150.297	0.95	1157019	WORD_OFF	n/a	n/a	CORN	3	2	[0, 0, 0]	n/a	FR1	6	R1230J
1151.247	1.617	1157969	WORD	n/a	wordpools/wordpool_EN.txt	WHALE	4	2	[0, 0, 0]	n/a	FR1	6	R1230J
1152.864	0.865	1159586	WORD_OFF	n/a	n/a	WHALE	4	2	[0, 0, 0]	n/a	FR1	6	R1230J
1153.729	1.601	1160451	WORD	n/a	wordpools/wordpool_EN.txt	FORT	5	2	[0, 0, 0]	n/a	FR1	6	R1230J
1155.33	0.818	1162052	WORD_OFF	n/a	n/a	FORT	5	2	[0, 0, 0]	n/a	FR1	6	R1230J
1156.148	1.616	1162870	WORD	n/a	wordpools/wordpool_EN.txt	SKI	6	2	[0, 0, 0]	n/a	FR1	6	R1230J
1157.764	0.833	1164486	WORD_OFF	n/a	n/a	SKI	6	2	[0, 0, 0]	n/a	FR1	6	R1230J
1158.597	1.618	1165319	WORD	n/a	wordpools/wordpool_EN.txt	CLAY	7	2	[0, 0, 0]	n/a	FR1	6	R1230J
1160.215	0.85	1166937	WORD_OFF	n/a	n/a	CLAY	7	2	[0, 0, 0]	n/a	FR1	6	R1230J
1161.065	1.616	1167787	WORD	n/a	wordpools/wordpool_EN.txt	SEAL	8	2	[0, 0, 0]	n/a	FR1	6	R1230J
1162.681	0.834	1169403	WORD_OFF	n/a	n/a	SEAL	8	2	[0, 0, 0]	n/a	FR1	6	R1230J
1163.515	1.617	1170237	WORD	n/a	wordpools/wordpool_EN.txt	SHIELD	9	2	[0, 0, 0]	n/a	FR1	6	R1230J
1165.132	0.95	1171854	WORD_OFF	n/a	n/a	SHIELD	9	2	[0, 0, 0]	n/a	FR1	6	R1230J
1166.082	1.616	1172804	WORD	n/a	wordpools/wordpool_EN.txt	SPEAR	10	2	[0, 0, 0]	n/a	FR1	6	R1230J
1167.698	0.9	1174420	WORD_OFF	n/a	n/a	SPEAR	10	2	[0, 0, 0]	n/a	FR1	6	R1230J
1168.598	1.601	1175320	WORD	n/a	wordpools/wordpool_EN.txt	JEEP	11	2	[0, 0, 0]	n/a	FR1	6	R1230J
1170.199	0.867	1176921	WORD_OFF	n/a	n/a	JEEP	11	2	[0, 0, 0]	n/a	FR1	6	R1230J
1171.066	1.616	1177788	WORD	n/a	wordpools/wordpool_EN.txt	LAND	12	2	[0, 0, 0]	n/a	FR1	6	R1230J
1172.682	0.0	1179404	DISTRACT_START	n/a	n/a	n/a	-999	2	[0, 0, 0]	n/a	FR1	6	R1230J
1172.682	0.001	1179404	WORD_OFF	n/a	n/a	LAND	12	2	[0, 0, 0]	n/a	FR1	6	R1230J
1172.683	0.015	1179405	START	n/a	n/a	n/a	-999	2	[-999, -999, -999]	n/a	FR1	6	R1230J
1172.698	3.385	1179420	PROB	3.385	n/a	n/a	-999	2	[7, 5, 8]	23	FR1	6	R1230J
1176.083	1.767	1182805	PROB	1.767	n/a	n/a	-999	2	[3, 3, 3]	12	FR1	6	R1230J
1177.85	3.217	1184572	PROB	3.217	n/a	n/a	-999	2	[6, 1, 7]	14	FR1	6	R1230J
1181.067	3.666	1187789	PROB	3.666	n/a	n/a	-999	2	[4, 7, 5]	16	FR1	6	R1230J
1184.733	2.652	1191455	PROB	2.652	n/a	n/a	-999	2	[7, 7, 3]	17	FR1	6	R1230J
1187.385	2.45	1194107	PROB	2.45	n/a	n/a	-999	2	[3, 1, 3]	7	FR1	6	R1230J
1189.835	1.951	1196557	PROB	1.951	n/a	n/a	-999	2	[1, 2, 2]	5	FR1	6	R1230J
1191.786	4.231	1198508	PROB	4.231	n/a	n/a	-999	2	[2, 9, 5]	16	FR1	6	R1230J
1196.017	0.019	1202740	STOP	n/a	n/a	n/a	-999	2	[-999, -999, -999]	n/a	FR1	6	R1230J
1196.036	0.666	1202759	DISTRACT_END	n/a	n/a	n/a	-999	2	[0, 0, 0]	n/a	FR1	6	R1230J
1196.702	0.518	1203425	RETRIEVAL_ORIENT	n/a	n/a	n/a	-999	2	[0, 0, 0]	n/a	FR1	6	R1230J
1197.22	1.464	1203943	REC_START	n/a	n/a	n/a	-999	2	[0, 0, 0]	n/a	FR1	6	R1230J
1198.684	1.526	1205407	REC_WORD	1.526	n/a	SKI	6	2	[0, 0, 0]	n/a	FR1	6	R1230J
1200.21	1.165	1206933	REC_WORD	1.165	n/a	CAVE	2	2	[0, 0, 0]	n/a	FR1	6	R1230J
1201.375	1.608	1208098	REC_WORD	1.608	n/a	CORN	3	2	[0, 0, 0]	n/a	FR1	6	R1230J
1202.983	24.249	1209706	REC_WORD	24.249	n/a	GOLD	1	2	[0, 0, 0]	n/a	FR1	6	R1230J
1227.232	4.125	1233955	REC_END	n/a	n/a	n/a	-999	2	[0, 0, 0]	n/a	FR1	6	R1230J
1231.357	0.5	1238080	TRIAL	n/a	n/a	n/a	-999	3	[0, 0, 0]	n/a	FR1	6	R1230J
1231.857	10.428	1238580	COUNTDOWN_START	n/a	n/a	n/a	-999	3	[0, 0, 0]	n/a	FR1	6	R1230J
1242.285	0.007	1249008	COUNTDOWN_END	n/a	n/a	n/a	-999	3	[0, 0, 0]	n/a	FR1	6	R1230J
1242.292	1.617	1249015	ORIENT	n/a	n/a	n/a	-999	3	[0, 0, 0]	n/a	FR1	6	R1230J
1243.909	2.017	1250632	ORIENT_OFF	n/a	n/a	n/a	-999	3	[0, 0, 0]	n/a	FR1	6	R1230J
1245.926	1.617	1252649	WORD	n/a	wordpools/wordpool_EN.txt	TEETH	1	3	[0, 0, 0]	n/a	FR1	6	R1230J
1247.543	0.983	1254266	WORD_OFF	n/a	n/a	TEETH	1	3	[0, 0, 0]	n/a	FR1	6	R1230J
1248.526	1.617	1255249	WORD	n/a	wordpools/wordpool_EN.txt	ROCK	2	3	[0, 0, 0]	n/a	FR1	6	R1230J
1250.143	0.85	1256866	WORD_OFF	n/a	n/a	ROCK	2	3	[0, 0, 0]	n/a	FR1	6	R1230J
1250.993	1.616	1257716	WORD	n/a	wordpools/wordpool_EN.txt	WORM	3	3	[0, 0, 0]	n/a	FR1	6	R1230J
1252.609	0.767	1259332	WORD_OFF	n/a	n/a	WORM	3	3	[0, 0, 0]	n/a	FR1	6	R1230J
1253.376	1.617	1260099	WORD	n/a	wordpools/wordpool_EN.txt	TOOL	4	3	[0, 0, 0]	n/a	FR1	6	R1230J
1254.993	0.917	1261716	WORD_OFF	n/a	n/a	TOOL	4	3	[0, 0, 0]	n/a	FR1	6	R1230J
1255.91	1.617	1262633	WORD	n/a	wordpools/wordpool_EN.txt	SQUARE	5	3	[0, 0, 0]	n/a	FR1	6	R1230J
1257.527	0.85	1264250	WORD_OFF	n/a	n/a	SQUARE	5	3	[0, 0, 0]	n/a	FR1	6	R1230J
1258.377	1.617	1265100	WORD	n/a	wordpools/wordpool_EN.txt	RAT	6	3	[0, 0, 0]	n/a	FR1	6	R1230J
1259.994	0.834	1266717	WORD_OFF	n/a	n/a	RAT	6	3	[0, 0, 0]	n/a	FR1	6	R1230J
1260.828	1.617	1267551	WORD	n/a	wordpools/wordpool_EN.txt	CAT	7	3	[0, 0, 0]	n/a	FR1	6	R1230J
1262.445	0.983	1269168	WORD_OFF	n/a	n/a	CAT	7	3	[0, 0, 0]	n/a	FR1	6	R1230J
1263.428	1.617	1270151	WORD	n/a	wordpools/wordpool_EN.txt	PLANE	8	3	[0, 0, 0]	n/a	FR1	6	R1230J
1265.045	0.883	1271768	WORD_OFF	n/a	n/a	PLANE	8	3	[0, 0, 0]	n/a	FR1	6	R1230J
1265.928	1.617	1272651	WORD	n/a	wordpools/wordpool_EN.txt	CAPE	9	3	[0, 0, 0]	n/a	FR1	6	R1230J
1267.545	1.0	1274268	WORD_OFF	n/a	n/a	CAPE	9	3	[0, 0, 0]	n/a	FR1	6	R1230J
1268.545	1.617	1275268	WORD	n/a	wordpools/wordpool_EN.txt	PEAR	10	3	[0, 0, 0]	n/a	FR1	6	R1230J
1270.162	0.917	1276885	WORD_OFF	n/a	n/a	PEAR	10	3	[0, 0, 0]	n/a	FR1	6	R1230J
1271.079	1.616	1277802	WORD	n/a	wordpools/wordpool_EN.txt	CONE	11	3	[0, 0, 0]	n/a	FR1	6	R1230J
1272.695	0.784	1279418	WORD_OFF	n/a	n/a	CONE	11	3	[0, 0, 0]	n/a	FR1	6	R1230J
1273.479	1.617	1280202	WORD	n/a	wordpools/wordpool_EN.txt	TOY	12	3	[0, 0, 0]	n/a	FR1	6	R1230J
1275.096	0.0	1281819	WORD_OFF	n/a	n/a	TOY	12	3	[0, 0, 0]	n/a	FR1	6	R1230J
1275.096	0.001	1281819	DISTRACT_START	n/a	n/a	n/a	-999	3	[0, 0, 0]	n/a	FR1	6	R1230J
1275.097	0.016	1281820	START	n/a	n/a	n/a	-999	3	[-999, -999, -999]	n/a	FR1	6	R1230J
1275.113	2.4	1281836	PROB	2.4	n/a	n/a	-999	3	[1, 6, 5]	12	FR1	6	R1230J
1277.513	2.9	1284236	PROB	2.9	n/a	n/a	-999	3	[9, 5, 2]	16	FR1	6	R1230J
1280.413	2.801	1287136	PROB	2.801	n/a	n/a	-999	3	[7, 8, 7]	23	FR1	6	R1230J
1283.214	3.117	1289937	PROB	3.117	n/a	n/a	-999	3	[2, 3, 2]	7	FR1	6	R1230J
1286.331	3.366	1293054	PROB	3.366	n/a	n/a	-999	3	[3, 8, 8]	19	FR1	6	R1230J
1289.697	2.435	1296420	PROB	2.435	n/a	n/a	-999	3	[9, 3, 6]	18	FR1	6	R1230J
1292.132	2.016	1298855	PROB	2.016	n/a	n/a	-999	3	[2, 7, 3]	12	FR1	6	R1230J
1294.148	3.689	1300871	PROB	3.689	n/a	n/a	-999	3	[9, 7, 5]	21	FR1	6	R1230J
1297.837	0.012	1304560	STOP	n/a	n/a	n/a	-999	3	[-999, -999, -999]	n/a	FR1	6	R1230J
1297.849	0.517	1304572	DISTRACT_END	n/a	n/a	n/a	-999	3	[0, 0, 0]	n/a	FR1	6	R1230J
1298.366	0.517	1305089	RETRIEVAL_ORIENT	n/a	n/a	n/a	-999	3	[0, 0, 0]	n/a	FR1	6	R1230J
1298.883	0.606	1305606	REC_START	n/a	n/a	n/a	-999	3	[0, 0, 0]	n/a	FR1	6	R1230J
1299.489	0.629	1306212	REC_WORD	0.629	n/a	TEETH	1	3	[0, 0, 0]	n/a	FR1	6	R1230J
1300.118	0.597	1306841	REC_WORD	0.597	n/a	ROCK	2	3	[0, 0, 0]	n/a	FR1	6	R1230J
1300.715	0.735	1307438	REC_WORD	0.735	n/a	WORM	3	3	[0, 0, 0]	n/a	FR1	6	R1230J
1301.45	1.032	1308173	REC_WORD	1.032	n/a	RAT	6	3	[0, 0, 0]	n/a	FR1	6	R1230J
1302.482	26.412	1309205	REC_WORD	26.412	n/a	CONE	11	3	[0, 0, 0]	n/a	FR1	6	R1230J
1328.894	4.159	1335617	REC_END	n/a	n/a	n/a	-999	3	[0, 0, 0]	n/a	FR1	6	R1230J
1333.053	0.5	1339776	TRIAL	n/a	n/a	n/a	-999	4	[0, 0, 0]	n/a	FR1	6	R1230J
1333.553	10.428	1340276	COUNTDOWN_START	n/a	n/a	n/a	-999	4	[0, 0, 0]	n/a	FR1	6	R1230J
1343.981	0.007	1350704	COUNTDOWN_END	n/a	n/a	n/a	-999	4	[0, 0, 0]	n/a	FR1	6	R1230J
1343.988	1.616	1350711	ORIENT	n/a	n/a	n/a	-999	4	[0, 0, 0]	n/a	FR1	6	R1230J
1345.604	2.151	1352327	ORIENT_OFF	n/a	n/a	n/a	-999	4	[0, 0, 0]	n/a	FR1	6	R1230J
1347.755	1.617	1354478	WORD	n/a	wordpools/wordpool_EN.txt	EEL	1	4	[0, 0, 0]	n/a	FR1	6	R1230J
1349.372	0.867	1356095	WORD_OFF	n/a	n/a	EEL	1	4	[0, 0, 0]	n/a	FR1	6	R1230J
1350.239	1.617	1356962	WORD	n/a	wordpools/wordpool_EN.txt	INK	2	4	[0, 0, 0]	n/a	FR1	6	R1230J
1351.856	0.983	1358579	WORD_OFF	n/a	n/a	INK	2	4	[0, 0, 0]	n/a	FR1	6	R1230J
1352.839	1.617	1359562	WORD	n/a	wordpools/wordpool_EN.txt	FILM	3	4	[0, 0, 0]	n/a	FR1	6	R1230J
1354.456	0.867	1361179	WORD_OFF	n/a	n/a	FILM	3	4	[0, 0, 0]	n/a	FR1	6	R1230J
1355.323	1.617	1362046	WORD	n/a	wordpools/wordpool_EN.txt	CAR	4	4	[0, 0, 0]	n/a	FR1	6	R1230J
1356.94	0.95	1363663	WORD_OFF	n/a	n/a	CAR	4	4	[0, 0, 0]	n/a	FR1	6	R1230J
1357.89	1.617	1364613	WORD	n/a	wordpools/wordpool_EN.txt	FARM	5	4	[0, 0, 0]	n/a	FR1	6	R1230J
1359.507	0.85	1366230	WORD_OFF	n/a	n/a	FARM	5	4	[0, 0, 0]	n/a	FR1	6	R1230J
1360.357	1.617	1367080	WORD	n/a	wordpools/wordpool_EN.txt	JUDGE	6	4	[0, 0, 0]	n/a	FR1	6	R1230J
1361.974	0.8	1368697	WORD_OFF	n/a	n/a	JUDGE	6	4	[0, 0, 0]	n/a	FR1	6	R1230J
1362.774	1.617	1369497	WORD	n/a	wordpools/wordpool_EN.txt	FLAG	7	4	[0, 0, 0]	n/a	FR1	6	R1230J
1364.391	0.85	1371114	WORD_OFF	n/a	n/a	FLAG	7	4	[0, 0, 0]	n/a	FR1	6	R1230J
1365.241	1.617	1371964	WORD	n/a	wordpools/wordpool_EN.txt	SHEET	8	4	[0, 0, 0]	n/a	FR1	6	R1230J
1366.858	0.967	1373581	WORD_OFF	n/a	n/a	SHEET	8	4	[0, 0, 0]	n/a	FR1	6	R1230J
1367.825	1.616	1374548	WORD	n/a	wordpools/wordpool_EN.txt	BANK	9	4	[0, 0, 0]	n/a	FR1	6	R1230J
1369.441	0.851	1376164	WORD_OFF	n/a	n/a	BANK	9	4	[0, 0, 0]	n/a	FR1	6	R1230J
1370.292	1.617	1377015	WORD	n/a	wordpools/wordpool_EN.txt	BRANCH	10	4	[0, 0, 0]	n/a	FR1	6	R1230J
1371.909	0.815	1378632	WORD_OFF	n/a	n/a	BRANCH	10	4	[0, 0, 0]	n/a	FR1	6	R1230J
1372.724	1.618	1379447	WORD	n/a	wordpools/wordpool_EN.txt	CASH	11	4	[0, 0, 0]	n/a	FR1	6	R1230J
1374.342	0.8	1381065	WORD_OFF	n/a	n/a	CASH	11	4	[0, 0, 0]	n/a	FR1	6	R1230J
1375.142	1.617	1381865	WORD	n/a	wordpools/wordpool_EN.txt	DRUM	12	4	[0, 0, 0]	n/a	FR1	6	R1230J
1376.759	0.0	1383482	WORD_OFF	n/a	n/a	DRUM	12	4	[0, 0, 0]	n/a	FR1	6	R1230J
1376.759	0.001	1383482	DISTRACT_START	n/a	n/a	n/a	-999	4	[0, 0, 0]	n/a	FR1	6	R1230J
1376.76	0.016	1383483	START	n/a	n/a	n/a	-999	4	[-999, -999, -999]	n/a	FR1	6	R1230J
1376.776	2.866	1383499	PROB	2.866	n/a	n/a	-999	4	[5, 6, 2]	13	FR1	6	R1230J
1379.642	3.868	1386365	PROB	3.868	n/a	n/a	-999	4	[7, 8, 5]	15	FR1	6	R1230J
1383.51	3.567	1390233	PROB	3.567	n/a	n/a	-999	4	[3, 4, 6]	13	FR1	6	R1230J
1387.077	3.801	1393800	PROB	3.801	n/a	n/a	-999	4	[2, 5, 1]	8	FR1	6	R1230J
1390.878	3.782	1397601	PROB	3.782	n/a	n/a	-999	4	[8, 1, 9]	18	FR1	6	R1230J
1394.66	3.181	1401383	PROB	3.181	n/a	n/a	-999	4	[2, 5, 3]	10	FR1	6	R1230J
1397.841	0.02	1404564	STOP	n/a	n/a	n/a	-999	4	[-999, -999, -999]	n/a	FR1	6	R1230J
1397.861	0.684	1404584	DISTRACT_END	n/a	n/a	n/a	-999	4	[0, 0, 0]	n/a	FR1	6	R1230J
1398.545	0.518	1405268	RETRIEVAL_ORIENT	n/a	n/a	n/a	-999	4	[0, 0, 0]	n/a	FR1	6	R1230J
1399.063	0.591	1405786	REC_START	n/a	n/a	n/a	-999	4	[0, 0, 0]	n/a	FR1	6	R1230J
1399.654	0.58	1406377	REC_WORD	0.58	n/a	EEL	1	4	[0, 0, 0]	n/a	FR1	6	R1230J
1400.234	0.588	1406957	REC_WORD	0.588	n/a	INK	2	4	[0, 0, 0]	n/a	FR1	6	R1230J
1400.822	0.975	1407545	REC_WORD	0.975	n/a	FILM	3	4	[0, 0, 0]	n/a	FR1	6	R1230J
1401.797	1.8	1408520	REC_WORD	1.8	n/a	CAR	4	4	[0, 0, 0]	n/a	FR1	6	R1230J
1403.597	25.478	1410320	REC_WORD	25.478	n/a	BANK	9	4	[0, 0, 0]	n/a	FR1	6	R1230J
1429.075	4.225	1435798	REC_END	n/a	n/a	n/a	-999	4	[0, 0, 0]	n/a	FR1	6	R1230J
1433.3	0.5	1440023	TRIAL	n/a	n/a	n/a	-999	5	[0, 0, 0]	n/a	FR1	6	R1230J
1433.8	10.428	1440523	COUNTDOWN_START	n/a	n/a	n/a	-999	5	[0, 0, 0]	n/a	FR1	6	R1230J
1444.228	0.006	1450951	COUNTDOWN_END	n/a	n/a	n/a	-999	5	[0, 0, 0]	n/a	FR1	6	R1230J
1444.234	1.617	1450957	ORIENT	n/a	n/a	n/a	-999	5	[0, 0, 0]	n/a	FR1	6	R1230J
1445.851	1.917	1452574	ORIENT_OFF	n/a	n/a	n/a	-999	5	[0, 0, 0]	n/a	FR1	6	R1230J
1447.768	1.617	1454491	WORD	n/a	wordpools/wordpool_EN.txt	BRUSH	1	5	[0, 0, 0]	n/a	FR1	6	R1230J
1449.385	0.8	1456108	WORD_OFF	n/a	n/a	BRUSH	1	5	[0, 0, 0]	n/a	FR1	6	R1230J
1450.185	1.617	1456908	WORD	n/a	wordpools/wordpool_EN.txt	ROOF	2	5	[0, 0, 0]	n/a	FR1	6	R1230J
1451.802	0.816	1458525	WORD_OFF	n/a	n/a	ROOF	2	5	[0, 0, 0]	n/a	FR1	6	R1230J
1452.618	1.617	1459341	WORD	n/a	wordpools/wordpool_EN.txt	LOCK	3	5	[0, 0, 0]	n/a	FR1	6	R1230J
1454.235	0.901	1460958	WORD_OFF	n/a	n/a	LOCK	3	5	[0, 0, 0]	n/a	FR1	6	R1230J
1455.136	1.617	1461859	WORD	n/a	wordpools/wordpool_EN.txt	STEAM	4	5	[0, 0, 0]	n/a	FR1	6	R1230J
1456.753	0.882	1463476	WORD_OFF	n/a	n/a	STEAM	4	5	[0, 0, 0]	n/a	FR1	6	R1230J
1457.635	1.618	1464358	WORD	n/a	wordpools/wordpool_EN.txt	BRIDGE	5	5	[0, 0, 0]	n/a	FR1	6	R1230J
1459.253	0.967	1465976	WORD_OFF	n/a	n/a	BRIDGE	5	5	[0, 0, 0]	n/a	FR1	6	R1230J
1460.22	1.617	1466943	WORD	n/a	wordpools/wordpool_EN.txt	DOCK	6	5	[0, 0, 0]	n/a	FR1	6	R1230J
1461.837	0.848	1468560	WORD_OFF	n/a	n/a	DOCK	6	5	[0, 0, 0]	n/a	FR1	6	R1230J
1462.685	1.618	1469408	WORD	n/a	wordpools/wordpool_EN.txt	SMOKE	7	5	[0, 0, 0]	n/a	FR1	6	R1230J
1464.303	1.001	1471026	WORD_OFF	n/a	n/a	SMOKE	7	5	[0, 0, 0]	n/a	FR1	6	R1230J
1465.304	1.617	1472027	WORD	n/a	wordpools/wordpool_EN.txt	SPARK	8	5	[0, 0, 0]	n/a	FR1	6	R1230J
1466.921	0.933	1473644	WORD_OFF	n/a	n/a	SPARK	8	5	[0, 0, 0]	n/a	FR1	6	R1230J
1467.854	1.617	1474577	WORD	n/a	wordpools/wordpool_EN.txt	CRANE	9	5	[0, 0, 0]	n/a	FR1	6	R1230J
1469.471	0.883	1476194	WORD_OFF	n/a	n/a	CRANE	9	5	[0, 0, 0]	n/a	FR1	6	R1230J
1470.354	1.617	1477077	WORD	n/a	wordpools/wordpool_EN.txt	LAKE	10	5	[0, 0, 0]	n/a	FR1	6	R1230J
1471.971	0.934	1478694	WORD_OFF	n/a	n/a	LAKE	10	5	[0, 0, 0]	n/a	FR1	6	R1230J
1472.905	1.616	1479628	WORD	n/a	wordpools/wordpool_EN.txt	APE	11	5	[0, 0, 0]	n/a	FR1	6	R1230J
1474.521	0.784	1481244	WORD_OFF	n/a	n/a	APE	11	5	[0, 0, 0]	n/a	FR1	6	R1230J
1475.305	1.617	1482028	WORD	n/a	wordpools/wordpool_EN.txt	BOAT	12	5	[0, 0, 0]	n/a	FR1	6	R1230J
1476.922	0.0	1483645	WORD_OFF	n/a	n/a	BOAT	12	5	[0, 0, 0]	n/a	FR1	6	R1230J
1476.922	0.001	1483645	DISTRACT_START	n/a	n/a	n/a	-999	5	[0, 0, 0]	n/a	FR1	6	R1230J
1476.923	0.015	1483646	START	n/a	n/a	n/a	-999	5	[-999, -999, -999]	n/a	FR1	6	R1230J
1476.938	3.318	1483661	PROB	3.318	n/a	n/a	-999	5	[8, 9, 1]	18	FR1	6	R1230J
1480.256	2.533	1486979	PROB	2.533	n/a	n/a	-999	5	[2, 4, 4]	10	FR1	6	R1230J
1482.789	3.101	1489512	PROB	3.101	n/a	n/a	-999	5	[3, 2, 9]	14	FR1	6	R1230J
1485.89	2.5	1492613	PROB	2.5	n/a	n/a	-999	5	[5, 4, 9]	18	FR1	6	R1230J
1488.39	3.717	1495113	PROB	3.717	n/a	n/a	-999	5	[6, 5, 3]	14	FR1	6	R1230J
1492.107	3.2	1498830	PROB	3.2	n/a	n/a	-999	5	[5, 2, 9]	16	FR1	6	R1230J
1495.307	2.826	1502030	PROB	2.826	n/a	n/a	-999	5	[4, 1, 1]	6	FR1	6	R1230J
1498.133	0.008	1504856	STOP	n/a	n/a	n/a	-999	5	[-999, -999, -999]	n/a	FR1	6	R1230J
1498.141	0.7	1504864	DISTRACT_END	n/a	n/a	n/a	-999	5	[0, 0, 0]	n/a	FR1	6	R1230J
1498.841	0.518	1505564	RETRIEVAL_ORIENT	n/a	n/a	n/a	-999	5	[0, 0, 0]	n/a	FR1	6	R1230J
1499.359	1.089	1506082	REC_START	n/a	n/a	n/a	-999	5	[0, 0, 0]	n/a	FR1	6	R1230J
1500.448	1.002	1507171	REC_WORD	1.002	n/a	EEL	-999	5	[0, 0, 0]	n/a	FR1	6	R1230J
1501.45	1.415	1508173	REC_WORD	1.415	n/a	APE	11	5	[0, 0, 0]	n/a	FR1	6	R1230J
1502.865	2.013	1509588	REC_WORD	2.013	n/a	BRUSH	1	5	[0, 0, 0]	n/a	FR1	6	R1230J
1504.878	2.348	1511601	REC_WORD	2.348	n/a	INK	-999	5	[0, 0, 0]	n/a	FR1	6	R1230J
1507.226	22.145	1513949	REC_WORD	22.145	n/a	BRIDGE	5	5	[0, 0, 0]	n/a	FR1	6	R1230J
1529.371	5.257	1536094	REC_END	n/a	n/a	n/a	-999	5	[0, 0, 0]	n/a	FR1	6	R1230J
1534.628	0.5	1541351	TRIAL	n/a	n/a	n/a	-999	6	[0, 0, 0]	n/a	FR1	6	R1230J
1535.128	10.428	1541851	COUNTDOWN_START	n/a	n/a	n/a	-999	6	[0, 0, 0]	n/a	FR1	6	R1230J
1545.556	0.008	1552279	COUNTDOWN_END	n/a	n/a	n/a	-999	6	[0, 0, 0]	n/a	FR1	6	R1230J
1545.564	1.617	1552287	ORIENT	n/a	n/a	n/a	-999	6	[0, 0, 0]	n/a	FR1	6	R1230J
1547.181	1.967	1553904	ORIENT_OFF	n/a	n/a	n/a	-999	6	[0, 0, 0]	n/a	FR1	6	R1230J
1549.148	1.617	1555871	WORD	n/a	wordpools/wordpool_EN.txt	CLIFF	1	6	[0, 0, 0]	n/a	FR1	6	R1230J
1550.765	0.882	1557488	WORD_OFF	n/a	n/a	CLIFF	1	6	[0, 0, 0]	n/a	FR1	6	R1230J
1551.647	1.618	1558370	WORD	n/a	wordpools/wordpool_EN.txt	NEST	2	6	[0, 0, 0]	n/a	FR1	6	R1230J
1553.265	0.967	1559988	WORD_OFF	n/a	n/a	NEST	2	6	[0, 0, 0]	n/a	FR1	6	R1230J
1554.232	1.616	1560955	WORD	n/a	wordpools/wordpool_EN.txt	FACE	3	6	[0, 0, 0]	n/a	FR1	6	R1230J
1555.848	0.883	1562571	WORD_OFF	n/a	n/a	FACE	3	6	[0, 0, 0]	n/a	FR1	6	R1230J
1556.731	1.618	1563454	WORD	n/a	wordpools/wordpool_EN.txt	COW	4	6	[0, 0, 0]	n/a	FR1	6	R1230J
1558.349	0.967	1565072	WORD_OFF	n/a	n/a	COW	4	6	[0, 0, 0]	n/a	FR1	6	R1230J
1559.316	1.617	1566039	WORD	n/a	wordpools/wordpool_EN.txt	MOLE	5	6	[0, 0, 0]	n/a	FR1	6	R1230J
1560.933	0.933	1567656	WORD_OFF	n/a	n/a	MOLE	5	6	[0, 0, 0]	n/a	FR1	6	R1230J
1561.866	1.617	1568589	WORD	n/a	wordpools/wordpool_EN.txt	STONE	6	6	[0, 0, 0]	n/a	FR1	6	R1230J
1563.483	0.917	1570206	WORD_OFF	n/a	n/a	STONE	6	6	[0, 0, 0]	n/a	FR1	6	R1230J
1564.4	1.616	1571123	WORD	n/a	wordpools/wordpool_EN.txt	TOE	7	6	[0, 0, 0]	n/a	FR1	6	R1230J
1566.016	1.017	1572739	WORD_OFF	n/a	n/a	TOE	7	6	[0, 0, 0]	n/a	FR1	6	R1230J
1567.033	1.616	1573756	WORD	n/a	wordpools/wordpool_EN.txt	MOTH	8	6	[0, 0, 0]	n/a	FR1	6	R1230J
1568.649	0.885	1575372	WORD_OFF	n/a	n/a	MOTH	8	6	[0, 0, 0]	n/a	FR1	6	R1230J
1569.534	1.617	1576257	WORD	n/a	wordpools/wordpool_EN.txt	SNAIL	9	6	[0, 0, 0]	n/a	FR1	6	R1230J
1571.151	0.866	1577874	WORD_OFF	n/a	n/a	SNAIL	9	6	[0, 0, 0]	n/a	FR1	6	R1230J
1572.017	1.616	1578740	WORD	n/a	wordpools/wordpool_EN.txt	ANT	10	6	[0, 0, 0]	n/a	FR1	6	R1230J
1573.633	0.785	1580356	WORD_OFF	n/a	n/a	ANT	10	6	[0, 0, 0]	n/a	FR1	6	R1230J
1574.418	1.616	1581141	WORD	n/a	wordpools/wordpool_EN.txt	WORLD	11	6	[0, 0, 0]	n/a	FR1	6	R1230J
1576.034	0.801	1582757	WORD_OFF	n/a	n/a	WORLD	11	6	[0, 0, 0]	n/a	FR1	6	R1230J
1576.835	1.617	1583558	WORD	n/a	wordpools/wordpool_EN.txt	FOX	12	6	[0, 0, 0]	n/a	FR1	6	R1230J
1578.452	0.0	1585175	DISTRACT_START	n/a	n/a	n/a	-999	6	[0, 0, 0]	n/a	FR1	6	R1230J
1578.452	0.0	1585175	WORD_OFF	n/a	n/a	FOX	12	6	[0, 0, 0]	n/a	FR1	6	R1230J
1578.452	0.016	1585175	START	n/a	n/a	n/a	-999	6	[-999, -999, -999]	n/a	FR1	6	R1230J
1578.468	3.467	1585191	PROB	3.467	n/a	n/a	-999	6	[1, 8, 9]	18	FR1	6	R1230J
1581.935	1.617	1588658	PROB	1.617	n/a	n/a	-999	6	[1, 3, 7]	11	FR1	6	R1230J
1583.552	2.984	1590275	PROB	2.984	n/a	n/a	-999	6	[6, 9, 4]	19	FR1	6	R1230J
1586.536	2.984	1593259	PROB	2.984	n/a	n/a	-999	6	[3, 5, 8]	16	FR1	6	R1230J
1589.52	4.683	1596243	PROB	4.683	n/a	n/a	-999	6	[5, 7, 8]	20	FR1	6	R1230J
1594.203	2.868	1600926	PROB	2.868	n/a	n/a	-999	6	[4, 2, 4]	10	FR1	6	R1230J
1597.071	3.098	1603794	PROB	3.098	n/a	n/a	-999	6	[9, 3, 5]	17	FR1	6	R1230J
1600.169	0.019	1606892	STOP	n/a	n/a	n/a	-999	6	[-999, -999, -999]	n/a	FR1	6	R1230J
1600.188	0.683	1606911	DISTRACT_END	n/a	n/a	n/a	-999	6	[0, 0, 0]	n/a	FR1	6	R1230J
1600.871	0.518	1607594	RETRIEVAL_ORIENT	n/a	n/a	n/a	-999	6	[0, 0, 0]	n/a	FR1	6	R1230J
1601.389	5.763	1608112	REC_START	n/a	n/a	n/a	-999	6	[0, 0, 0]	n/a	FR1	6	R1230J
1607.152	1.472	1613875	REC_WORD	1.472	n/a	CLIFF	1	6	[0, 0, 0]	n/a	FR1	6	R1230J
1608.624	3.76	1615347	REC_WORD	3.76	n/a	FIELD	-999	6	[0, 0, 0]	n/a	FR1	6	R1230J
1612.384	19.017	1619107	REC_WORD	19.017	n/a	STONE	6	6	[0, 0, 0]	n/a	FR1	6	R1230J
1631.401	5.641	1638124	REC_END	n/a	n/a	n/a	-999	6	[0, 0, 0]	n/a	FR1	6	R1230J
1637.042	0.5	1643765	TRIAL	n/a	n/a	n/a	-999	7	[0, 0, 0]	n/a	FR1	6	R1230J
1637.542	10.428	1644265	COUNTDOWN_START	n/a	n/a	n/a	-999	7	[0, 0, 0]	n/a	FR1	6	R1230J
1647.97	0.007	1654693	COUNTDOWN_END	n/a	n/a	n/a	-999	7	[0, 0, 0]	n/a	FR1	6	R1230J
1647.977	1.616	1654700	ORIENT	n/a	n/a	n/a	-999	7	[0, 0, 0]	n/a	FR1	6	R1230J
1649.593	2.0	1656316	ORIENT_OFF	n/a	n/a	n/a	-999	7	[0, 0, 0]	n/a	FR1	6	R1230J
1651.593	1.618	1658316	WORD	n/a	wordpools/wordpool_EN.txt	FOG	1	7	[0, 0, 0]	n/a	FR1	6	R1230J
1653.211	0.8	1659934	WORD_OFF	n/a	n/a	FOG	1	7	[0, 0, 0]	n/a	FR1	6	R1230J
1654.011	1.616	1660734	WORD	n/a	wordpools/wordpool_EN.txt	SUN	2	7	[0, 0, 0]	n/a	FR1	6	R1230J
1655.627	0.884	1662350	WORD_OFF	n/a	n/a	SUN	2	7	[0, 0, 0]	n/a	FR1	6	R1230J
1656.511	1.617	1663234	WORD	n/a	wordpools/wordpool_EN.txt	CLOUD	3	7	[0, 0, 0]	n/a	FR1	6	R1230J
1658.128	1.0	1664851	WORD_OFF	n/a	n/a	CLOUD	3	7	[0, 0, 0]	n/a	FR1	6	R1230J
1659.128	1.617	1665851	WORD	n/a	wordpools/wordpool_EN.txt	ICE	4	7	[0, 0, 0]	n/a	FR1	6	R1230J
1660.745	0.933	1667468	WORD_OFF	n/a	n/a	ICE	4	7	[0, 0, 0]	n/a	FR1	6	R1230J
1661.678	1.618	1668401	WORD	n/a	wordpools/wordpool_EN.txt	AXE	5	7	[0, 0, 0]	n/a	FR1	6	R1230J
1663.296	0.783	1670019	WORD_OFF	n/a	n/a	AXE	5	7	[0, 0, 0]	n/a	FR1	6	R1230J
1664.079	1.616	1670802	WORD	n/a	wordpools/wordpool_EN.txt	WEB	6	7	[0, 0, 0]	n/a	FR1	6	R1230J
1665.695	0.967	1672418	WORD_OFF	n/a	n/a	WEB	6	7	[0, 0, 0]	n/a	FR1	6	R1230J
1666.662	1.618	1673385	WORD	n/a	wordpools/wordpool_EN.txt	FOAM	7	7	[0, 0, 0]	n/a	FR1	6	R1230J
1668.28	1.0	1675003	WORD_OFF	n/a	n/a	FOAM	7	7	[0, 0, 0]	n/a	FR1	6	R1230J
1669.28	1.617	1676003	WORD	n/a	wordpools/wordpool_EN.txt	HOOK	8	7	[0, 0, 0]	n/a	FR1	6	R1230J
1670.897	0.799	1677620	WORD_OFF	n/a	n/a	HOOK	8	7	[0, 0, 0]	n/a	FR1	6	R1230J
1671.696	1.617	1678419	WORD	n/a	wordpools/wordpool_EN.txt	RAIN	9	7	[0, 0, 0]	n/a	FR1	6	R1230J
1673.313	0.834	1680036	WORD_OFF	n/a	n/a	RAIN	9	7	[0, 0, 0]	n/a	FR1	6	R1230J
1674.147	1.617	1680870	WORD	n/a	wordpools/wordpool_EN.txt	FUDGE	10	7	[0, 0, 0]	n/a	FR1	6	R1230J
1675.764	0.866	1682487	WORD_OFF	n/a	n/a	FUDGE	10	7	[0, 0, 0]	n/a	FR1	6	R1230J
1676.63	1.618	1683353	WORD	n/a	wordpools/wordpool_EN.txt	SNOW	11	7	[0, 0, 0]	n/a	FR1	6	R1230J
1678.248	0.816	1684971	WORD_OFF	n/a	n/a	SNOW	11	7	[0, 0, 0]	n/a	FR1	6	R1230J
1679.064	1.616	1685787	WORD	n/a	wordpools/wordpool_EN.txt	WING	12	7	[0, 0, 0]	n/a	FR1	6	R1230J
1680.68	0.0	1687403	WORD_OFF	n/a	n/a	WING	12	7	[0, 0, 0]	n/a	FR1	6	R1230J
1680.68	0.001	1687403	DISTRACT_START	n/a	n/a	n/a	-999	7	[0, 0, 0]	n/a	FR1	6	R1230J
1680.681	0.016	1687404	START	n/a	n/a	n/a	-999	7	[-999, -999, -999]	n/a	FR1	6	R1230J
1680.697	3.967	1687420	PROB	3.967	n/a	n/a	-999	7	[6, 2, 9]	17	FR1	6	R1230J
1684.664	2.285	1691387	PROB	2.285	n/a	n/a	-999	7	[7, 6, 4]	17	FR1	6	R1230J
1686.949	2.217	1693672	PROB	2.217	n/a	n/a	-999	7	[9, 4, 4]	17	FR1	6	R1230J
1689.166	2.934	1695889	PROB	2.934	n/a	n/a	-999	7	[2, 3, 2]	7	FR1	6	R1230J
1692.1	2.166	1698823	PROB	2.166	n/a	n/a	-999	7	[8, 4, 6]	18	FR1	6	R1230J
1694.266	3.967	1700989	PROB	3.967	n/a	n/a	-999	7	[8, 8, 3]	19	FR1	6	R1230J
1698.233	2.539	1704956	PROB	2.539	n/a	n/a	-999	7	[2, 1, 1]	4	FR1	6	R1230J
1700.772	0.012	1707495	STOP	n/a	n/a	n/a	-999	7	[-999, -999, -999]	n/a	FR1	6	R1230J
1700.784	0.6	1707507	DISTRACT_END	n/a	n/a	n/a	-999	7	[0, 0, 0]	n/a	FR1	6	R1230J
1701.384	0.517	1708107	RETRIEVAL_ORIENT	n/a	n/a	n/a	-999	7	[0, 0, 0]	n/a	FR1	6	R1230J
1701.901	0.421	1708624	REC_START	n/a	n/a	n/a	-999	7	[0, 0, 0]	n/a	FR1	6	R1230J
1702.322	0.696	1709045	REC_WORD	0.696	n/a	FOG	1	7	[0, 0, 0]	n/a	FR1	6	R1230J
1703.018	0.899	1709741	REC_WORD	0.899	n/a	SUN	2	7	[0, 0, 0]	n/a	FR1	6	R1230J
1703.917	0.7	1710640	REC_WORD	0.7	n/a	AXE	5	7	[0, 0, 0]	n/a	FR1	6	R1230J
1704.617	1.992	1711340	REC_WORD	1.992	n/a	FIELD	-999	7	[0, 0, 0]	n/a	FR1	6	R1230J
1706.609	0.904	1713332	REC_WORD	0.904	n/a	ICE	4	7	[0, 0, 0]	n/a	FR1	6	R1230J
1707.513	24.402	1714236	REC_WORD	24.402	n/a	SNOW	11	7	[0, 0, 0]	n/a	FR1	6	R1230J
1731.915	4.357	1738638	REC_END	n/a	n/a	n/a	-999	7	[0, 0, 0]	n/a	FR1	6	R1230J
1736.272	0.5	1742996	TRIAL	n/a	n/a	n/a	-999	8	[0, 0, 0]	n/a	FR1	6	R1230J
1736.772	10.428	1743496	COUNTDOWN_START	n/a	n/a	n/a	-999	8	[0, 0, 0]	n/a	FR1	6	R1230J
1747.2	0.006	1753924	COUNTDOWN_END	n/a	n/a	n/a	-999	8	[0, 0, 0]	n/a	FR1	6	R1230J
1747.206	1.617	1753930	ORIENT	n/a	n/a	n/a	-999	8	[0, 0, 0]	n/a	FR1	6	R1230J
1748.823	1.9	1755547	ORIENT_OFF	n/a	n/a	n/a	-999	8	[0, 0, 0]	n/a	FR1	6	R1230J
1750.723	1.617	1757447	WORD	n/a	wordpools/wordpool_EN.txt	GOAT	1	8	[0, 0, 0]	n/a	FR1	6	R1230J
1752.34	1.0	1759064	WORD_OFF	n/a	n/a	GOAT	1	8	[0, 0, 0]	n/a	FR1	6	R1230J
1753.34	1.617	1760064	WORD	n/a	wordpools/wordpool_EN.txt	JUICE	2	8	[0, 0, 0]	n/a	FR1	6	R1230J
1754.957	0.817	1761681	WORD_OFF	n/a	n/a	JUICE	2	8	[0, 0, 0]	n/a	FR1	6	R1230J
1755.774	1.617	1762498	WORD	n/a	wordpools/wordpool_EN.txt	BOARD	3	8	[0, 0, 0]	n/a	FR1	6	R1230J
1757.391	0.867	1764115	WORD_OFF	n/a	n/a	BOARD	3	8	[0, 0, 0]	n/a	FR1	6	R1230J
1758.258	1.617	1764982	WORD	n/a	wordpools/wordpool_EN.txt	CALF	4	8	[0, 0, 0]	n/a	FR1	6	R1230J
1759.875	0.883	1766599	WORD_OFF	n/a	n/a	CALF	4	8	[0, 0, 0]	n/a	FR1	6	R1230J
1760.758	1.617	1767482	WORD	n/a	wordpools/wordpool_EN.txt	THUMB	5	8	[0, 0, 0]	n/a	FR1	6	R1230J
1762.375	1.0	1769099	WORD_OFF	n/a	n/a	THUMB	5	8	[0, 0, 0]	n/a	FR1	6	R1230J
1763.375	1.617	1770099	WORD	n/a	wordpools/wordpool_EN.txt	PIG	6	8	[0, 0, 0]	n/a	FR1	6	R1230J
1764.992	1.0	1771716	WORD_OFF	n/a	n/a	PIG	6	8	[0, 0, 0]	n/a	FR1	6	R1230J
1765.992	1.616	1772716	WORD	n/a	wordpools/wordpool_EN.txt	WOOD	7	8	[0, 0, 0]	n/a	FR1	6	R1230J
1767.608	1.0	1774332	WORD_OFF	n/a	n/a	WOOD	7	8	[0, 0, 0]	n/a	FR1	6	R1230J
1768.608	1.618	1775332	WORD	n/a	wordpools/wordpool_EN.txt	KITE	8	8	[0, 0, 0]	n/a	FR1	6	R1230J
1770.226	0.984	1776950	WORD_OFF	n/a	n/a	KITE	8	8	[0, 0, 0]	n/a	FR1	6	R1230J
1771.21	1.616	1777934	WORD	n/a	wordpools/wordpool_EN.txt	TAIL	9	8	[0, 0, 0]	n/a	FR1	6	R1230J
1772.826	0.883	1779550	WORD_OFF	n/a	n/a	TAIL	9	8	[0, 0, 0]	n/a	FR1	6	R1230J
1773.709	1.618	1780433	WORD	n/a	wordpools/wordpool_EN.txt	BENCH	10	8	[0, 0, 0]	n/a	FR1	6	R1230J
1775.327	0.983	1782051	WORD_OFF	n/a	n/a	BENCH	10	8	[0, 0, 0]	n/a	FR1	6	R1230J
1776.31	1.617	1783034	WORD	n/a	wordpools/wordpool_EN.txt	JAR	11	8	[0, 0, 0]	n/a	FR1	6	R1230J
1777.927	0.95	1784651	WORD_OFF	n/a	n/a	JAR	11	8	[0, 0, 0]	n/a	FR1	6	R1230J
1778.877	1.617	1785601	WORD	n/a	wordpools/wordpool_EN.txt	BREAD	12	8	[0, 0, 0]	n/a	FR1	6	R1230J
1780.494	0.0	1787218	WORD_OFF	n/a	n/a	BREAD	12	8	[0, 0, 0]	n/a	FR1	6	R1230J
1780.494	0.001	1787218	DISTRACT_START	n/a	n/a	n/a	-999	8	[0, 0, 0]	n/a	FR1	6	R1230J
1780.495	0.016	1787219	START	n/a	n/a	n/a	-999	8	[-999, -999, -999]	n/a	FR1	6	R1230J
1780.511	3.199	1787235	PROB	3.199	n/a	n/a	-999	8	[1, 7, 6]	14	FR1	6	R1230J
1783.71	3.051	1790434	PROB	3.051	n/a	n/a	-999	8	[2, 4, 8]	14	FR1	6	R1230J
1786.761	2.401	1793485	PROB	2.401	n/a	n/a	-999	8	[2, 9, 2]	14	FR1	6	R1230J
1789.162	2.234	1795886	PROB	2.234	n/a	n/a	-999	8	[9, 4, 3]	16	FR1	6	R1230J
1791.396	2.55	1798120	PROB	2.55	n/a	n/a	-999	8	[2, 1, 5]	8	FR1	6	R1230J
1793.946	4.184	1800670	PROB	4.184	n/a	n/a	-999	8	[5, 1, 9]	15	FR1	6	R1230J
1798.13	2.846	1804854	PROB	2.846	n/a	n/a	-999	8	[1, 4, 4]	9	FR1	6	R1230J
1800.976	0.02	1807700	STOP	n/a	n/a	n/a	-999	8	[-999, -999, -999]	n/a	FR1	6	R1230J
1800.996	0.683	1807720	DISTRACT_END	n/a	n/a	n/a	-999	8	[0, 0, 0]	n/a	FR1	6	R1230J
1801.679	0.519	1808403	RETRIEVAL_ORIENT	n/a	n/a	n/a	-999	8	[0, 0, 0]	n/a	FR1	6	R1230J
1802.198	0.445	1808922	REC_START	n/a	n/a	n/a	-999	8	[0, 0, 0]	n/a	FR1	6	R1230J
1802.643	0.522	1809367	REC_WORD	0.522	n/a	GOAT	1	8	[0, 0, 0]	n/a	FR1	6	R1230J
1803.165	0.652	1809889	REC_WORD	0.652	n/a	JUICE	2	8	[0, 0, 0]	n/a	FR1	6	R1230J
1803.817	0.544	1810541	REC_WORD	0.544	n/a	BOARD	3	8	[0, 0, 0]	n/a	FR1	6	R1230J
1804.361	1.303	1811085	REC_WORD	1.303	n/a	FIELD	-999	8	[0, 0, 0]	n/a	FR1	6	R1230J
1805.664	2.394	1812388	REC_WORD	2.394	n/a	PIG	6	8	[0, 0, 0]	n/a	FR1	6	R1230J
1808.058	24.153	1814782	REC_WORD	24.153	n/a	FACE	-999	8	[0, 0, 0]	n/a	FR1	6	R1230J
1832.211	4.24	1838935	REC_END	n/a	n/a	n/a	-999	8	[0, 0, 0]	n/a	FR1	6	R1230J
1836.451	0.5	1843175	TRIAL	n/a	n/a	n/a	-999	9	[0, 0, 0]	n/a	FR1	6	R1230J
1836.951	10.428	1843675	COUNTDOWN_START	n/a	n/a	n/a	-999	9	[0, 0, 0]	n/a	FR1	6	R1230J
1847.379	0.007	1854103	COUNTDOWN_END	n/a	n/a	n/a	-999	9	[0, 0, 0]	n/a	FR1	6	R1230J
1847.386	1.617	1854110	ORIENT	n/a	n/a	n/a	-999	9	[0, 0, 0]	n/a	FR1	6	R1230J
1849.003	2.367	1855727	ORIENT_OFF	n/a	n/a	n/a	-999	9	[0, 0, 0]	n/a	FR1	6	R1230J
1851.37	1.616	1858094	WORD	n/a	wordpools/wordpool_EN.txt	STOOL	1	9	[0, 0, 0]	n/a	FR1	6	R1230J
1852.986	0.834	1859710	WORD_OFF	n/a	n/a	STOOL	1	9	[0, 0, 0]	n/a	FR1	6	R1230J
1853.82	1.617	1860544	WORD	n/a	wordpools/wordpool_EN.txt	PHONE	2	9	[0, 0, 0]	n/a	FR1	6	R1230J
1855.437	0.9	1862161	WORD_OFF	n/a	n/a	PHONE	2	9	[0, 0, 0]	n/a	FR1	6	R1230J
1856.337	1.617	1863061	WORD	n/a	wordpools/wordpool_EN.txt	PLANT	3	9	[0, 0, 0]	n/a	FR1	6	R1230J
1857.954	0.883	1864678	WORD_OFF	n/a	n/a	PLANT	3	9	[0, 0, 0]	n/a	FR1	6	R1230J
1858.837	1.617	1865561	WORD	n/a	wordpools/wordpool_EN.txt	SOUP	4	9	[0, 0, 0]	n/a	FR1	6	R1230J
1860.454	0.884	1867178	WORD_OFF	n/a	n/a	SOUP	4	9	[0, 0, 0]	n/a	FR1	6	R1230J
1861.338	1.616	1868062	WORD	n/a	wordpools/wordpool_EN.txt	CUBE	5	9	[0, 0, 0]	n/a	FR1	6	R1230J
1862.954	0.934	1869678	WORD_OFF	n/a	n/a	CUBE	5	9	[0, 0, 0]	n/a	FR1	6	R1230J
1863.888	1.617	1870612	WORD	n/a	wordpools/wordpool_EN.txt	BEAN	6	9	[0, 0, 0]	n/a	FR1	6	R1230J
1865.505	0.967	1872229	WORD_OFF	n/a	n/a	BEAN	6	9	[0, 0, 0]	n/a	FR1	6	R1230J
1866.472	1.616	1873196	WORD	n/a	wordpools/wordpool_EN.txt	SHEEP	7	9	[0, 0, 0]	n/a	FR1	6	R1230J
1868.088	0.784	1874812	WORD_OFF	n/a	n/a	SHEEP	7	9	[0, 0, 0]	n/a	FR1	6	R1230J
1868.872	1.617	1875596	WORD	n/a	wordpools/wordpool_EN.txt	RICE	8	9	[0, 0, 0]	n/a	FR1	6	R1230J
1870.489	0.833	1877213	WORD_OFF	n/a	n/a	RICE	8	9	[0, 0, 0]	n/a	FR1	6	R1230J
1871.322	1.617	1878046	WORD	n/a	wordpools/wordpool_EN.txt	LEAF	9	9	[0, 0, 0]	n/a	FR1	6	R1230J
1872.939	1.017	1879663	WORD_OFF	n/a	n/a	LEAF	9	9	[0, 0, 0]	n/a	FR1	6	R1230J
1873.956	1.616	1880680	WORD	n/a	wordpools/wordpool_EN.txt	STEM	10	9	[0, 0, 0]	n/a	FR1	6	R1230J
1875.572	0.984	1882296	WORD_OFF	n/a	n/a	STEM	10	9	[0, 0, 0]	n/a	FR1	6	R1230J
1876.556	1.617	1883280	WORD	n/a	wordpools/wordpool_EN.txt	THREAD	11	9	[0, 0, 0]	n/a	FR1	6	R1230J
1878.173	0.817	1884897	WORD_OFF	n/a	n/a	THREAD	11	9	[0, 0, 0]	n/a	FR1	6	R1230J
1878.99	1.616	1885714	WORD	n/a	wordpools/wordpool_EN.txt	FOOD	12	9	[0, 0, 0]	n/a	FR1	6	R1230J
1880.606	0.0	1887330	WORD_OFF	n/a	n/a	FOOD	12	9	[0, 0, 0]	n/a	FR1	6	R1230J
1880.606	0.001	1887330	DISTRACT_START	n/a	n/a	n/a	-999	9	[0, 0, 0]	n/a	FR1	6	R1230J
1880.607	0.016	1887331	START	n/a	n/a	n/a	-999	9	[-999, -999, -999]	n/a	FR1	6	R1230J
1880.623	4.05	1887347	PROB	4.05	n/a	n/a	-999	9	[9, 4, 9]	22	FR1	6	R1230J
1884.673	4.168	1891397	PROB	4.168	n/a	n/a	-999	9	[4, 9, 7]	20	FR1	6	R1230J
1888.841	2.833	1895565	PROB	2.833	n/a	n/a	-999	9	[8, 6, 2]	16	FR1	6	R1230J
1891.674	3.384	1898398	PROB	3.384	n/a	n/a	-999	9	[5, 1, 2]	8	FR1	6	R1230J
1895.058	2.768	1901782	PROB	2.768	n/a	n/a	-999	9	[3, 2, 2]	7	FR1	6	R1230J
1897.826	2.317	1904550	PROB	2.317	n/a	n/a	-999	9	[1, 2, 5]	8	FR1	6	R1230J
1900.143	2.349	1906867	PROB	2.349	n/a	n/a	-999	9	[8, 5, 5]	18	FR1	6	R1230J
1902.492	0.018	1909216	STOP	n/a	n/a	n/a	-999	9	[-999, -999, -999]	n/a	FR1	6	R1230J
1902.51	0.683	1909234	DISTRACT_END	n/a	n/a	n/a	-999	9	[0, 0, 0]	n/a	FR1	6	R1230J
1903.193	0.517	1909917	RETRIEVAL_ORIENT	n/a	n/a	n/a	-999	9	[0, 0, 0]	n/a	FR1	6	R1230J
1903.71	0.297	1910434	REC_START	n/a	n/a	n/a	-999	9	[0, 0, 0]	n/a	FR1	6	R1230J
1904.007	1.597	1910731	REC_WORD	1.597	n/a	STOOL	1	9	[0, 0, 0]	n/a	FR1	6	R1230J
1905.604	28.119	1912328	REC_WORD	28.119	n/a	SHEEP	7	9	[0, 0, 0]	n/a	FR1	6	R1230J
1933.723	4.374	1940447	REC_END	n/a	n/a	n/a	-999	9	[0, 0, 0]	n/a	FR1	6	R1230J
1938.097	0.5	1944821	TRIAL	n/a	n/a	n/a	-999	10	[0, 0, 0]	n/a	FR1	6	R1230J
1938.597	10.428	1945321	COUNTDOWN_START	n/a	n/a	n/a	-999	10	[0, 0, 0]	n/a	FR1	6	R1230J
1949.025	0.007	1955749	COUNTDOWN_END	n/a	n/a	n/a	-999	10	[0, 0, 0]	n/a	FR1	6	R1230J
1949.032	1.616	1955756	ORIENT	n/a	n/a	n/a	-999	10	[0, 0, 0]	n/a	FR1	6	R1230J
1950.648	2.134	1957372	ORIENT_OFF	n/a	n/a	n/a	-999	10	[0, 0, 0]	n/a	FR1	6	R1230J
1952.782	1.617	1959506	WORD	n/a	wordpools/wordpool_EN.txt	GRASS	1	10	[0, 0, 0]	n/a	FR1	6	R1230J
1954.399	0.901	1961123	WORD_OFF	n/a	n/a	GRASS	1	10	[0, 0, 0]	n/a	FR1	6	R1230J
1955.3	1.616	1962024	WORD	n/a	wordpools/wordpool_EN.txt	LAMB	2	10	[0, 0, 0]	n/a	FR1	6	R1230J
1956.916	0.934	1963640	WORD_OFF	n/a	n/a	LAMB	2	10	[0, 0, 0]	n/a	FR1	6	R1230J
1957.85	1.617	1964574	WORD	n/a	wordpools/wordpool_EN.txt	BARN	3	10	[0, 0, 0]	n/a	FR1	6	R1230J
1959.467	0.917	1966191	WORD_OFF	n/a	n/a	BARN	3	10	[0, 0, 0]	n/a	FR1	6	R1230J
1960.384	1.617	1967108	WORD	n/a	wordpools/wordpool_EN.txt	ARK	4	10	[0, 0, 0]	n/a	FR1	6	R1230J
1962.001	0.949	1968725	WORD_OFF	n/a	n/a	ARK	4	10	[0, 0, 0]	n/a	FR1	6	R1230J
1962.95	1.617	1969674	WORD	n/a	wordpools/wordpool_EN.txt	BOWL	5	10	[0, 0, 0]	n/a	FR1	6	R1230J
1964.567	0.817	1971291	WORD_OFF	n/a	n/a	BOWL	5	10	[0, 0, 0]	n/a	FR1	6	R1230J
1965.384	1.617	1972108	WORD	n/a	wordpools/wordpool_EN.txt	SKUNK	6	10	[0, 0, 0]	n/a	FR1	6	R1230J
1967.001	0.917	1973725	WORD_OFF	n/a	n/a	SKUNK	6	10	[0, 0, 0]	n/a	FR1	6	R1230J
1967.918	1.617	1974642	WORD	n/a	wordpools/wordpool_EN.txt	CHAIR	7	10	[0, 0, 0]	n/a	FR1	6	R1230J
1969.535	0.933	1976259	WORD_OFF	n/a	n/a	CHAIR	7	10	[0, 0, 0]	n/a	FR1	6	R1230J
1970.468	1.617	1977192	WORD	n/a	wordpools/wordpool_EN.txt	CAGE	8	10	[0, 0, 0]	n/a	FR1	6	R1230J
1972.085	0.933	1978809	WORD_OFF	n/a	n/a	CAGE	8	10	[0, 0, 0]	n/a	FR1	6	R1230J
1973.018	1.616	1979742	WORD	n/a	wordpools/wordpool_EN.txt	CAKE	9	10	[0, 0, 0]	n/a	FR1	6	R1230J
1974.634	0.885	1981358	WORD_OFF	n/a	n/a	CAKE	9	10	[0, 0, 0]	n/a	FR1	6	R1230J
1975.519	1.617	1982243	WORD	n/a	wordpools/wordpool_EN.txt	CHEEK	10	10	[0, 0, 0]	n/a	FR1	6	R1230J
1977.136	0.867	1983860	WORD_OFF	n/a	n/a	CHEEK	10	10	[0, 0, 0]	n/a	FR1	6	R1230J
1978.003	1.615	1984727	WORD	n/a	wordpools/wordpool_EN.txt	DRESS	11	10	[0, 0, 0]	n/a	FR1	6	R1230J
1979.618	0.785	1986342	WORD_OFF	n/a	n/a	DRESS	11	10	[0, 0, 0]	n/a	FR1	6	R1230J
1980.403	1.617	1987127	WORD	n/a	wordpools/wordpool_EN.txt	PIE	12	10	[0, 0, 0]	n/a	FR1	6	R1230J
1982.02	0.0	1988744	WORD_OFF	n/a	n/a	PIE	12	10	[0, 0, 0]	n/a	FR1	6	R1230J
1982.02	0.001	1988744	DISTRACT_START	n/a	n/a	n/a	-999	10	[0, 0, 0]	n/a	FR1	6	R1230J
1982.021	0.016	1988745	START	n/a	n/a	n/a	-999	10	[-999, -999, -999]	n/a	FR1	6	R1230J
1982.037	2.35	1988761	PROB	2.35	n/a	n/a	-999	10	[8, 1, 2]	11	FR1	6	R1230J
1984.387	3.033	1991111	PROB	3.033	n/a	n/a	-999	10	[3, 5, 4]	12	FR1	6	R1230J
1987.42	3.918	1994144	PROB	3.918	n/a	n/a	-999	10	[4, 2, 3]	9	FR1	6	R1230J
1991.338	3.717	1998062	PROB	3.717	n/a	n/a	-999	10	[9, 4, 1]	14	FR1	6	R1230J
1995.055	2.833	2001779	PROB	2.833	n/a	n/a	-999	10	[2, 5, 2]	9	FR1	6	R1230J
1997.888	2.134	2004612	PROB	2.134	n/a	n/a	-999	10	[5, 5, 4]	14	FR1	6	R1230J
2000.022	3.314	2006746	PROB	3.314	n/a	n/a	-999	10	[9, 7, 4]	20	FR1	6	R1230J
2003.336	0.02	2010060	STOP	n/a	n/a	n/a	-999	10	[-999, -999, -999]	n/a	FR1	6	R1230J
2003.356	0.683	2010080	DISTRACT_END	n/a	n/a	n/a	-999	10	[0, 0, 0]	n/a	FR1	6	R1230J
2004.039	0.517	2010763	RETRIEVAL_ORIENT	n/a	n/a	n/a	-999	10	[0, 0, 0]	n/a	FR1	6	R1230J
2004.556	1.136	2011280	REC_START	n/a	n/a	n/a	-999	10	[0, 0, 0]	n/a	FR1	6	R1230J
2005.692	0.753	2012416	REC_WORD	0.753	n/a	GRASS	1	10	[0, 0, 0]	n/a	FR1	6	R1230J
2006.445	3.384	2013169	REC_WORD	3.384	n/a	LAMB	2	10	[0, 0, 0]	n/a	FR1	6	R1230J
2009.829	24.74	2016553	REC_WORD	24.74	n/a	ARK	4	10	[0, 0, 0]	n/a	FR1	6	R1230J
2034.569	4.391	2041293	REC_END	n/a	n/a	n/a	-999	10	[0, 0, 0]	n/a	FR1	6	R1230J
2038.96	0.5	2045684	TRIAL	n/a	n/a	n/a	-999	11	[0, 0, 0]	n/a	FR1	6	R1230J
2039.46	10.428	2046184	COUNTDOWN_START	n/a	n/a	n/a	-999	11	[0, 0, 0]	n/a	FR1	6	R1230J
2049.888	0.007	2056612	COUNTDOWN_END	n/a	n/a	n/a	-999	11	[0, 0, 0]	n/a	FR1	6	R1230J
2049.895	1.617	2056619	ORIENT	n/a	n/a	n/a	-999	11	[0, 0, 0]	n/a	FR1	6	R1230J
2051.512	1.95	2058236	ORIENT_OFF	n/a	n/a	n/a	-999	11	[0, 0, 0]	n/a	FR1	6	R1230J
2053.462	1.617	2060186	WORD	n/a	wordpools/wordpool_EN.txt	MAZE	1	11	[0, 0, 0]	n/a	FR1	6	R1230J
2055.079	0.8	2061803	WORD_OFF	n/a	n/a	MAZE	1	11	[0, 0, 0]	n/a	FR1	6	R1230J
2055.879	1.617	2062603	WORD	n/a	wordpools/wordpool_EN.txt	SWORD	2	11	[0, 0, 0]	n/a	FR1	6	R1230J
2057.496	0.917	2064220	WORD_OFF	n/a	n/a	SWORD	2	11	[0, 0, 0]	n/a	FR1	6	R1230J
2058.413	1.617	2065137	WORD	n/a	wordpools/wordpool_EN.txt	HILL	3	11	[0, 0, 0]	n/a	FR1	6	R1230J
2060.03	0.783	2066754	WORD_OFF	n/a	n/a	HILL	3	11	[0, 0, 0]	n/a	FR1	6	R1230J
2060.813	1.617	2067537	WORD	n/a	wordpools/wordpool_EN.txt	GUARD	4	11	[0, 0, 0]	n/a	FR1	6	R1230J
2062.43	0.85	2069154	WORD_OFF	n/a	n/a	GUARD	4	11	[0, 0, 0]	n/a	FR1	6	R1230J
2063.28	1.617	2070004	WORD	n/a	wordpools/wordpool_EN.txt	VEST	5	11	[0, 0, 0]	n/a	FR1	6	R1230J
2064.897	0.967	2071621	WORD_OFF	n/a	n/a	VEST	5	11	[0, 0, 0]	n/a	FR1	6	R1230J
2065.864	1.617	2072588	WORD	n/a	wordpools/wordpool_EN.txt	HORN	6	11	[0, 0, 0]	n/a	FR1	6	R1230J
2067.481	0.95	2074205	WORD_OFF	n/a	n/a	HORN	6	11	[0, 0, 0]	n/a	FR1	6	R1230J
2068.431	1.617	2075155	WORD	n/a	wordpools/wordpool_EN.txt	FENCE	7	11	[0, 0, 0]	n/a	FR1	6	R1230J
2070.048	0.983	2076772	WORD_OFF	n/a	n/a	FENCE	7	11	[0, 0, 0]	n/a	FR1	6	R1230J
2071.031	1.616	2077755	WORD	n/a	wordpools/wordpool_EN.txt	RIB	8	11	[0, 0, 0]	n/a	FR1	6	R1230J
2072.647	0.95	2079371	WORD_OFF	n/a	n/a	RIB	8	11	[0, 0, 0]	n/a	FR1	6	R1230J
2073.597	1.618	2080321	WORD	n/a	wordpools/wordpool_EN.txt	NOSE	9	11	[0, 0, 0]	n/a	FR1	6	R1230J
2075.215	0.9	2081939	WORD_OFF	n/a	n/a	NOSE	9	11	[0, 0, 0]	n/a	FR1	6	R1230J
2076.115	1.616	2082839	WORD	n/a	wordpools/wordpool_EN.txt	ROAD	10	11	[0, 0, 0]	n/a	FR1	6	R1230J
2077.731	0.784	2084455	WORD_OFF	n/a	n/a	ROAD	10	11	[0, 0, 0]	n/a	FR1	6	R1230J
2078.515	1.617	2085239	WORD	n/a	wordpools/wordpool_EN.txt	FLAME	11	11	[0, 0, 0]	n/a	FR1	6	R1230J
2080.132	0.8	2086856	WORD_OFF	n/a	n/a	FLAME	11	11	[0, 0, 0]	n/a	FR1	6	R1230J
2080.932	1.617	2087656	WORD	n/a	wordpools/wordpool_EN.txt	HAT	12	11	[0, 0, 0]	n/a	FR1	6	R1230J
2082.549	0.0	2089273	WORD_OFF	n/a	n/a	HAT	12	11	[0, 0, 0]	n/a	FR1	6	R1230J
2082.549	0.001	2089273	DISTRACT_START	n/a	n/a	n/a	-999	11	[0, 0, 0]	n/a	FR1	6	R1230J
2082.55	0.016	2089274	START	n/a	n/a	n/a	-999	11	[-999, -999, -999]	n/a	FR1	6	R1230J
2082.566	2.9	2089290	PROB	2.9	n/a	n/a	-999	11	[3, 3, 6]	12	FR1	6	R1230J
2085.466	2.334	2092190	PROB	2.334	n/a	n/a	-999	11	[5, 5, 9]	19	FR1	6	R1230J
2087.8	3.35	2094524	PROB	3.35	n/a	n/a	-999	11	[5, 7, 4]	16	FR1	6	R1230J
2091.15	2.449	2097874	PROB	2.449	n/a	n/a	-999	11	[6, 7, 4]	17	FR1	6	R1230J
2093.599	2.235	2100323	PROB	2.235	n/a	n/a	-999	11	[2, 6, 4]	12	FR1	6	R1230J
2095.834	3.401	2102558	PROB	3.401	n/a	n/a	-999	11	[9, 9, 2]	20	FR1	6	R1230J
2099.235	2.317	2105959	PROB	2.317	n/a	n/a	-999	11	[6, 5, 2]	13	FR1	6	R1230J
2101.552	2.059	2108276	PROB	2.059	n/a	n/a	-999	11	[1, 2, 2]	5	FR1	6	R1230J
2103.611	0.023	2110335	STOP	n/a	n/a	n/a	-999	11	[-999, -999, -999]	n/a	FR1	6	R1230J
2103.634	0.684	2110358	DISTRACT_END	n/a	n/a	n/a	-999	11	[0, 0, 0]	n/a	FR1	6	R1230J
2104.318	0.518	2111042	RETRIEVAL_ORIENT	n/a	n/a	n/a	-999	11	[0, 0, 0]	n/a	FR1	6	R1230J
2104.836	0.325	2111560	REC_START	n/a	n/a	n/a	-999	11	[0, 0, 0]	n/a	FR1	6	R1230J
2105.161	0.65	2111885	REC_WORD	0.65	n/a	MAZE	1	11	[0, 0, 0]	n/a	FR1	6	R1230J
2105.811	0.906	2112535	REC_WORD	0.906	n/a	SWORD	2	11	[0, 0, 0]	n/a	FR1	6	R1230J
2106.717	28.13	2113441	REC_WORD	28.13	n/a	GOLD	-999	11	[0, 0, 0]	n/a	FR1	6	R1230J
2134.847	10.027	2141571	REC_END	n/a	n/a	n/a	-999	11	[0, 0, 0]	n/a	FR1	6	R1230J
2144.874	0.5	2151598	TRIAL	n/a	n/a	n/a	-999	12	[0, 0, 0]	n/a	FR1	6	R1230J
2145.374	10.428	2152098	COUNTDOWN_START	n/a	n/a	n/a	-999	12	[0, 0, 0]	n/a	FR1	6	R1230J
2155.802	0.006	2162526	COUNTDOWN_END	n/a	n/a	n/a	-999	12	[0, 0, 0]	n/a	FR1	6	R1230J
2155.808	1.617	2162532	ORIENT	n/a	n/a	n/a	-999	12	[0, 0, 0]	n/a	FR1	6	R1230J
2157.425	1.784	2164149	ORIENT_OFF	n/a	n/a	n/a	-999	12	[0, 0, 0]	n/a	FR1	6	R1230J
2159.209	1.617	2165933	WORD	n/a	wordpools/wordpool_EN.txt	FOOT	1	12	[0, 0, 0]	n/a	FR1	6	R1230J
2160.826	1.0	2167550	WORD_OFF	n/a	n/a	FOOT	1	12	[0, 0, 0]	n/a	FR1	6	R1230J
2161.826	1.617	2168550	WORD	n/a	wordpools/wordpool_EN.txt	ARM	2	12	[0, 0, 0]	n/a	FR1	6	R1230J
2163.443	0.983	2170167	WORD_OFF	n/a	n/a	ARM	2	12	[0, 0, 0]	n/a	FR1	6	R1230J
2164.426	1.617	2171150	WORD	n/a	wordpools/wordpool_EN.txt	RUG	3	12	[0, 0, 0]	n/a	FR1	6	R1230J
2166.043	0.884	2172767	WORD_OFF	n/a	n/a	RUG	3	12	[0, 0, 0]	n/a	FR1	6	R1230J
2166.927	1.617	2173651	WORD	n/a	wordpools/wordpool_EN.txt	WALL	4	12	[0, 0, 0]	n/a	FR1	6	R1230J
2168.544	0.916	2175268	WORD_OFF	n/a	n/a	WALL	4	12	[0, 0, 0]	n/a	FR1	6	R1230J
2169.46	1.617	2176184	WORD	n/a	wordpools/wordpool_EN.txt	PANTS	5	12	[0, 0, 0]	n/a	FR1	6	R1230J
2171.077	0.8	2177801	WORD_OFF	n/a	n/a	PANTS	5	12	[0, 0, 0]	n/a	FR1	6	R1230J
2171.877	1.617	2178601	WORD	n/a	wordpools/wordpool_EN.txt	BOOK	6	12	[0, 0, 0]	n/a	FR1	6	R1230J
2173.494	0.817	2180218	WORD_OFF	n/a	n/a	BOOK	6	12	[0, 0, 0]	n/a	FR1	6	R1230J
2174.311	1.617	2181035	WORD	n/a	wordpools/wordpool_EN.txt	SLUSH	7	12	[0, 0, 0]	n/a	FR1	6	R1230J
2175.928	0.9	2182652	WORD_OFF	n/a	n/a	SLUSH	7	12	[0, 0, 0]	n/a	FR1	6	R1230J
2176.828	1.617	2183552	WORD	n/a	wordpools/wordpool_EN.txt	GLOVE	8	12	[0, 0, 0]	n/a	FR1	6	R1230J
2178.445	0.933	2185169	WORD_OFF	n/a	n/a	GLOVE	8	12	[0, 0, 0]	n/a	FR1	6	R1230J
2179.378	1.617	2186102	WORD	n/a	wordpools/wordpool_EN.txt	MUG	9	12	[0, 0, 0]	n/a	FR1	6	R1230J
2180.995	0.984	2187719	WORD_OFF	n/a	n/a	MUG	9	12	[0, 0, 0]	n/a	FR1	6	R1230J
2181.979	1.615	2188703	WORD	n/a	wordpools/wordpool_EN.txt	PARK	10	12	[0, 0, 0]	n/a	FR1	6	R1230J
2183.594	0.984	2190318	WORD_OFF	n/a	n/a	PARK	10	12	[0, 0, 0]	n/a	FR1	6	R1230J
2184.578	1.618	2191302	WORD	n/a	wordpools/wordpool_EN.txt	ROSE	11	12	[0, 0, 0]	n/a	FR1	6	R1230J
2186.196	0.983	2192920	WORD_OFF	n/a	n/a	ROSE	11	12	[0, 0, 0]	n/a	FR1	6	R1230J
2187.179	1.617	2193903	WORD	n/a	wordpools/wordpool_EN.txt	SPOON	12	12	[0, 0, 0]	n/a	FR1	6	R1230J
2188.796	0.0	2195520	WORD_OFF	n/a	n/a	SPOON	12	12	[0, 0, 0]	n/a	FR1	6	R1230J
2188.796	0.001	2195520	DISTRACT_START	n/a	n/a	n/a	-999	12	[0, 0, 0]	n/a	FR1	6	R1230J
2188.797	0.016	2195521	START	n/a	n/a	n/a	-999	12	[-999, -999, -999]	n/a	FR1	6	R1230J
2188.813	3.483	2195537	PROB	3.483	n/a	n/a	-999	12	[9, 7, 2]	18	FR1	6	R1230J
2192.296	2.416	2199020	PROB	2.416	n/a	n/a	-999	12	[6, 4, 9]	19	FR1	6	R1230J
2194.712	4.802	2201436	PROB	4.802	n/a	n/a	-999	12	[4, 8, 4]	20	FR1	6	R1230J
2199.514	3.001	2206238	PROB	3.001	n/a	n/a	-999	12	[9, 3, 2]	14	FR1	6	R1230J
2202.515	2.016	2209239	PROB	2.016	n/a	n/a	-999	12	[1, 1, 2]	4	FR1	6	R1230J
2204.531	2.884	2211255	PROB	2.884	n/a	n/a	-999	12	[9, 6, 5]	20	FR1	6	R1230J
2207.415	3.128	2214139	PROB	3.128	n/a	n/a	-999	12	[8, 1, 9]	17	FR1	6	R1230J
2210.543	0.006	2217267	STOP	n/a	n/a	n/a	-999	12	[-999, -999, -999]	n/a	FR1	6	R1230J
2210.549	0.633	2217273	DISTRACT_END	n/a	n/a	n/a	-999	12	[0, 0, 0]	n/a	FR1	6	R1230J
2211.182	0.517	2217906	RETRIEVAL_ORIENT	n/a	n/a	n/a	-999	12	[0, 0, 0]	n/a	FR1	6	R1230J
2211.699	0.316	2218423	REC_START	n/a	n/a	n/a	-999	12	[0, 0, 0]	n/a	FR1	6	R1230J
2212.015	1.291	2218739	REC_WORD	1.291	n/a	FOOT	1	12	[0, 0, 0]	n/a	FR1	6	R1230J
2213.306	1.128	2220030	REC_WORD	1.128	n/a	HARM	-999	12	[0, 0, 0]	n/a	FR1	6	R1230J
2214.434	27.277	2221158	REC_WORD	27.277	n/a	PARK	10	12	[0, 0, 0]	n/a	FR1	6	R1230J
2241.711	4.426	2248435	REC_END	n/a	n/a	n/a	-999	12	[0, 0, 0]	n/a	FR1	6	R1230J
2246.137	0.5	2252861	TRIAL	n/a	n/a	n/a	-999	13	[0, 0, 0]	n/a	FR1	6	R1230J
2246.637	10.428	2253361	COUNTDOWN_START	n/a	n/a	n/a	-999	13	[0, 0, 0]	n/a	FR1	6	R1230J
2257.065	0.007	2263789	COUNTDOWN_END	n/a	n/a	n/a	-999	13	[0, 0, 0]	n/a	FR1	6	R1230J
2257.072	1.615	2263796	ORIENT	n/a	n/a	n/a	-999	13	[0, 0, 0]	n/a	FR1	6	R1230J
2258.687	2.169	2265411	ORIENT_OFF	n/a	n/a	n/a	-999	13	[0, 0, 0]	n/a	FR1	6	R1230J
2260.856	1.616	2267580	WORD	n/a	wordpools/wordpool_EN.txt	BRICK	1	13	[0, 0, 0]	n/a	FR1	6	R1230J
2262.472	0.8	2269196	WORD_OFF	n/a	n/a	BRICK	1	13	[0, 0, 0]	n/a	FR1	6	R1230J
2263.272	1.617	2269996	WORD	n/a	wordpools/wordpool_EN.txt	FLOOR	2	13	[0, 0, 0]	n/a	FR1	6	R1230J
2264.889	0.783	2271613	WORD_OFF	n/a	n/a	FLOOR	2	13	[0, 0, 0]	n/a	FR1	6	R1230J
2265.672	1.618	2272396	WORD	n/a	wordpools/wordpool_EN.txt	HAND	3	13	[0, 0, 0]	n/a	FR1	6	R1230J
2267.29	0.866	2274014	WORD_OFF	n/a	n/a	HAND	3	13	[0, 0, 0]	n/a	FR1	6	R1230J
2268.156	1.617	2274880	WORD	n/a	wordpools/wordpool_EN.txt	HOUSE	4	13	[0, 0, 0]	n/a	FR1	6	R1230J
2269.773	1.017	2276497	WORD_OFF	n/a	n/a	HOUSE	4	13	[0, 0, 0]	n/a	FR1	6	R1230J
2270.79	1.617	2277514	WORD	n/a	wordpools/wordpool_EN.txt	BLUSH	5	13	[0, 0, 0]	n/a	FR1	6	R1230J
2272.407	0.983	2279132	WORD_OFF	n/a	n/a	BLUSH	5	13	[0, 0, 0]	n/a	FR1	6	R1230J
2273.39	1.617	2280115	WORD	n/a	wordpools/wordpool_EN.txt	BAG	6	13	[0, 0, 0]	n/a	FR1	6	R1230J
2275.007	0.884	2281732	WORD_OFF	n/a	n/a	BAG	6	13	[0, 0, 0]	n/a	FR1	6	R1230J
2275.891	1.617	2282616	WORD	n/a	wordpools/wordpool_EN.txt	TRUCK	7	13	[0, 0, 0]	n/a	FR1	6	R1230J
2277.508	0.883	2284233	WORD_OFF	n/a	n/a	TRUCK	7	13	[0, 0, 0]	n/a	FR1	6	R1230J
2278.391	1.617	2285116	WORD	n/a	wordpools/wordpool_EN.txt	STAIR	8	13	[0, 0, 0]	n/a	FR1	6	R1230J
2280.008	0.917	2286733	WORD_OFF	n/a	n/a	STAIR	8	13	[0, 0, 0]	n/a	FR1	6	R1230J
2280.925	1.616	2287650	WORD	n/a	wordpools/wordpool_EN.txt	MUD	9	13	[0, 0, 0]	n/a	FR1	6	R1230J
2282.541	0.984	2289266	WORD_OFF	n/a	n/a	MUD	9	13	[0, 0, 0]	n/a	FR1	6	R1230J
2283.525	1.617	2290250	WORD	n/a	wordpools/wordpool_EN.txt	STRAW	10	13	[0, 0, 0]	n/a	FR1	6	R1230J
2285.142	0.95	2291867	WORD_OFF	n/a	n/a	STRAW	10	13	[0, 0, 0]	n/a	FR1	6	R1230J
2286.092	1.616	2292817	WORD	n/a	wordpools/wordpool_EN.txt	CART	11	13	[0, 0, 0]	n/a	FR1	6	R1230J
2287.708	0.851	2294433	WORD_OFF	n/a	n/a	CART	11	13	[0, 0, 0]	n/a	FR1	6	R1230J
2288.559	1.617	2295284	WORD	n/a	wordpools/wordpool_EN.txt	ROPE	12	13	[0, 0, 0]	n/a	FR1	6	R1230J
2290.176	0.0	2296901	WORD_OFF	n/a	n/a	ROPE	12	13	[0, 0, 0]	n/a	FR1	6	R1230J
2290.176	0.0	2296901	DISTRACT_START	n/a	n/a	n/a	-999	13	[0, 0, 0]	n/a	FR1	6	R1230J
2290.176	0.017	2296901	START	n/a	n/a	n/a	-999	13	[-999, -999, -999]	n/a	FR1	6	R1230J
2290.193	2.966	2296918	PROB	2.966	n/a	n/a	-999	13	[9, 5, 2]	16	FR1	6	R1230J
2293.159	2.834	2299884	PROB	2.834	n/a	n/a	-999	13	[3, 9, 9]	21	FR1	6	R1230J
2295.993	3.167	2302718	PROB	3.167	n/a	n/a	-999	13	[1, 8, 9]	18	FR1	6	R1230J
2299.16	2.667	2305885	PROB	2.667	n/a	n/a	-999	13	[7, 9, 1]	17	FR1	6	R1230J
2301.827	2.684	2308552	PROB	2.684	n/a	n/a	-999	13	[8, 4, 1]	13	FR1	6	R1230J
2304.511	2.199	2311236	PROB	2.199	n/a	n/a	-999	13	[3, 4, 7]	14	FR1	6	R1230J
2306.71	3.017	2313435	PROB	3.017	n/a	n/a	-999	13	[4, 5, 8]	17	FR1	6	R1230J
2309.727	2.604	2316452	PROB	2.604	n/a	n/a	-999	13	[6, 1, 1]	8	FR1	6	R1230J
2312.331	0.014	2319056	STOP	n/a	n/a	n/a	-999	13	[-999, -999, -999]	n/a	FR1	6	R1230J
2312.345	0.683	2319070	DISTRACT_END	n/a	n/a	n/a	-999	13	[0, 0, 0]	n/a	FR1	6	R1230J
2313.028	0.518	2319753	RETRIEVAL_ORIENT	n/a	n/a	n/a	-999	13	[0, 0, 0]	n/a	FR1	6	R1230J
2313.546	0.51	2320271	REC_START	n/a	n/a	n/a	-999	13	[0, 0, 0]	n/a	FR1	6	R1230J
2314.056	0.922	2320781	REC_WORD	0.922	n/a	BRICK	1	13	[0, 0, 0]	n/a	FR1	6	R1230J
2314.978	1.099	2321703	REC_WORD	1.099	n/a	FLOOR	2	13	[0, 0, 0]	n/a	FR1	6	R1230J
2316.077	1.165	2322802	REC_WORD	1.165	n/a	HAND	3	13	[0, 0, 0]	n/a	FR1	6	R1230J
2317.242	0.929	2323967	REC_WORD	0.929	n/a	MUG	-999	13	[0, 0, 0]	n/a	FR1	6	R1230J
2318.171	25.387	2324896	REC_WORD	25.387	n/a	MUD	9	13	[0, 0, 0]	n/a	FR1	6	R1230J
2343.558	4.458	2350283	REC_END	n/a	n/a	n/a	-999	13	[0, 0, 0]	n/a	FR1	6	R1230J
2348.016	0.5	2354741	TRIAL	n/a	n/a	n/a	-999	14	[0, 0, 0]	n/a	FR1	6	R1230J
2348.516	10.428	2355241	COUNTDOWN_START	n/a	n/a	n/a	-999	14	[0, 0, 0]	n/a	FR1	6	R1230J
2358.944	0.007	2365669	COUNTDOWN_END	n/a	n/a	n/a	-999	14	[0, 0, 0]	n/a	FR1	6	R1230J
2358.951	1.617	2365676	ORIENT	n/a	n/a	n/a	-999	14	[0, 0, 0]	n/a	FR1	6	R1230J
2360.568	2.066	2367293	ORIENT_OFF	n/a	n/a	n/a	-999	14	[0, 0, 0]	n/a	FR1	6	R1230J
2362.634	1.618	2369359	WORD	n/a	wordpools/wordpool_EN.txt	BOX	1	14	[0, 0, 0]	n/a	FR1	6	R1230J
2364.252	1.0	2370977	WORD_OFF	n/a	n/a	BOX	1	14	[0, 0, 0]	n/a	FR1	6	R1230J
2365.252	1.617	2371977	WORD	n/a	wordpools/wordpool_EN.txt	SMILE	2	14	[0, 0, 0]	n/a	FR1	6	R1230J
2366.869	0.849	2373594	WORD_OFF	n/a	n/a	SMILE	2	14	[0, 0, 0]	n/a	FR1	6	R1230J
2367.718	1.618	2374443	WORD	n/a	wordpools/wordpool_EN.txt	PIN	3	14	[0, 0, 0]	n/a	FR1	6	R1230J
2369.336	0.784	2376061	WORD_OFF	n/a	n/a	PIN	3	14	[0, 0, 0]	n/a	FR1	6	R1230J
2370.12	1.616	2376845	WORD	n/a	wordpools/wordpool_EN.txt	SHOE	4	14	[0, 0, 0]	n/a	FR1	6	R1230J
2371.736	0.882	2378461	WORD_OFF	n/a	n/a	SHOE	4	14	[0, 0, 0]	n/a	FR1	6	R1230J
2372.618	1.618	2379343	WORD	n/a	wordpools/wordpool_EN.txt	SEAT	5	14	[0, 0, 0]	n/a	FR1	6	R1230J
2374.236	0.967	2380961	WORD_OFF	n/a	n/a	SEAT	5	14	[0, 0, 0]	n/a	FR1	6	R1230J
2375.203	1.617	2381928	WORD	n/a	wordpools/wordpool_EN.txt	STICK	6	14	[0, 0, 0]	n/a	FR1	6	R1230J
2376.82	0.833	2383545	WORD_OFF	n/a	n/a	STICK	6	14	[0, 0, 0]	n/a	FR1	6	R1230J
2377.653	1.618	2384378	WORD	n/a	wordpools/wordpool_EN.txt	MULE	7	14	[0, 0, 0]	n/a	FR1	6	R1230J
2379.271	0.8	2385996	WORD_OFF	n/a	n/a	MULE	7	14	[0, 0, 0]	n/a	FR1	6	R1230J
2380.071	1.616	2386796	WORD	n/a	wordpools/wordpool_EN.txt	SIGN	8	14	[0, 0, 0]	n/a	FR1	6	R1230J
2381.687	0.801	2388412	WORD_OFF	n/a	n/a	SIGN	8	14	[0, 0, 0]	n/a	FR1	6	R1230J
2382.488	1.616	2389213	WORD	n/a	wordpools/wordpool_EN.txt	DITCH	9	14	[0, 0, 0]	n/a	FR1	6	R1230J
2384.104	0.884	2390829	WORD_OFF	n/a	n/a	DITCH	9	14	[0, 0, 0]	n/a	FR1	6	R1230J
2384.988	1.616	2391713	WORD	n/a	wordpools/wordpool_EN.txt	BEAK	10	14	[0, 0, 0]	n/a	FR1	6	R1230J
2386.604	0.967	2393329	WORD_OFF	n/a	n/a	BEAK	10	14	[0, 0, 0]	n/a	FR1	6	R1230J
2387.571	1.617	2394296	WORD	n/a	wordpools/wordpool_EN.txt	DOOR	11	14	[0, 0, 0]	n/a	FR1	6	R1230J
2389.188	0.934	2395913	WORD_OFF	n/a	n/a	DOOR	11	14	[0, 0, 0]	n/a	FR1	6	R1230J
2390.122	1.617	2396847	WORD	n/a	wordpools/wordpool_EN.txt	LAWN	12	14	[0, 0, 0]	n/a	FR1	6	R1230J
2391.739	0.0	2398464	WORD_OFF	n/a	n/a	LAWN	12	14	[0, 0, 0]	n/a	FR1	6	R1230J
2391.739	0.001	2398464	DISTRACT_START	n/a	n/a	n/a	-999	14	[0, 0, 0]	n/a	FR1	6	R1230J
2391.74	0.016	2398465	START	n/a	n/a	n/a	-999	14	[-999, -999, -999]	n/a	FR1	6	R1230J
2391.756	3.616	2398481	PROB	3.616	n/a	n/a	-999	14	[1, 3, 6]	10	FR1	6	R1230J
2395.372	3.068	2402097	PROB	3.068	n/a	n/a	-999	14	[9, 3, 3]	14	FR1	6	R1230J
2398.44	3.183	2405165	PROB	3.183	n/a	n/a	-999	14	[2, 3, 8]	13	FR1	6	R1230J
2401.623	3.767	2408348	PROB	3.767	n/a	n/a	-999	14	[2, 4, 8]	14	FR1	6	R1230J
2405.39	2.818	2412115	PROB	2.818	n/a	n/a	-999	14	[3, 3, 1]	7	FR1	6	R1230J
2408.208	2.6	2414933	PROB	2.6	n/a	n/a	-999	14	[4, 5, 8]	17	FR1	6	R1230J
2410.808	3.544	2417533	PROB	3.544	n/a	n/a	-999	14	[4, 5, 7]	16	FR1	6	R1230J
2414.352	0.006	2421077	STOP	n/a	n/a	n/a	-999	14	[-999, -999, -999]	n/a	FR1	6	R1230J
2414.358	0.55	2421083	DISTRACT_END	n/a	n/a	n/a	-999	14	[0, 0, 0]	n/a	FR1	6	R1230J
2414.908	0.518	2421633	RETRIEVAL_ORIENT	n/a	n/a	n/a	-999	14	[0, 0, 0]	n/a	FR1	6	R1230J
2415.426	1.944	2422151	REC_START	n/a	n/a	n/a	-999	14	[0, 0, 0]	n/a	FR1	6	R1230J
2417.37	4.604	2424095	REC_WORD	4.604	n/a	BRICK	-999	14	[0, 0, 0]	n/a	FR1	6	R1230J
2421.974	1.941	2428699	REC_WORD	1.941	n/a	FLOOR	-999	14	[0, 0, 0]	n/a	FR1	6	R1230J
2423.915	21.523	2430640	REC_WORD	21.523	n/a	HAND	-999	14	[0, 0, 0]	n/a	FR1	6	R1230J
2445.438	5.358	2452163	REC_END	n/a	n/a	n/a	-999	14	[0, 0, 0]	n/a	FR1	6	R1230J
2450.796	0.5	2457521	TRIAL	n/a	n/a	n/a	-999	15	[0, 0, 0]	n/a	FR1	6	R1230J
2451.296	10.428	2458021	COUNTDOWN_START	n/a	n/a	n/a	-999	15	[0, 0, 0]	n/a	FR1	6	R1230J
2461.724	0.006	2468449	COUNTDOWN_END	n/a	n/a	n/a	-999	15	[0, 0, 0]	n/a	FR1	6	R1230J
2461.73	1.618	2468455	ORIENT	n/a	n/a	n/a	-999	15	[0, 0, 0]	n/a	FR1	6	R1230J
2463.348	2.017	2470073	ORIENT_OFF	n/a	n/a	n/a	-999	15	[0, 0, 0]	n/a	FR1	6	R1230J
2465.365	1.617	2472090	WORD	n/a	wordpools/wordpool_EN.txt	BOY	1	15	[0, 0, 0]	n/a	FR1	6	R1230J
2466.982	0.866	2473707	WORD_OFF	n/a	n/a	BOY	1	15	[0, 0, 0]	n/a	FR1	6	R1230J
2467.848	1.617	2474573	WORD	n/a	wordpools/wordpool_EN.txt	CHIEF	2	15	[0, 0, 0]	n/a	FR1	6	R1230J
2469.465	0.784	2476190	WORD_OFF	n/a	n/a	CHIEF	2	15	[0, 0, 0]	n/a	FR1	6	R1230J
2470.249	1.617	2476974	WORD	n/a	wordpools/wordpool_EN.txt	SOAP	3	15	[0, 0, 0]	n/a	FR1	6	R1230J
2471.866	0.933	2478591	WORD_OFF	n/a	n/a	SOAP	3	15	[0, 0, 0]	n/a	FR1	6	R1230J
2472.799	1.617	2479524	WORD	n/a	wordpools/wordpool_EN.txt	WOLF	4	15	[0, 0, 0]	n/a	FR1	6	R1230J
2474.416	0.8	2481141	WORD_OFF	n/a	n/a	WOLF	4	15	[0, 0, 0]	n/a	FR1	6	R1230J
2475.216	1.617	2481941	WORD	n/a	wordpools/wordpool_EN.txt	BEE	5	15	[0, 0, 0]	n/a	FR1	6	R1230J
2476.833	0.816	2483558	WORD_OFF	n/a	n/a	BEE	5	15	[0, 0, 0]	n/a	FR1	6	R1230J
2477.649	1.618	2484374	WORD	n/a	wordpools/wordpool_EN.txt	BIRD	6	15	[0, 0, 0]	n/a	FR1	6	R1230J
2479.267	0.933	2485992	WORD_OFF	n/a	n/a	BIRD	6	15	[0, 0, 0]	n/a	FR1	6	R1230J
2480.2	1.617	2486925	WORD	n/a	wordpools/wordpool_EN.txt	MOUSE	7	15	[0, 0, 0]	n/a	FR1	6	R1230J
2481.817	1.0	2488542	WORD_OFF	n/a	n/a	MOUSE	7	15	[0, 0, 0]	n/a	FR1	6	R1230J
2482.817	1.617	2489542	WORD	n/a	wordpools/wordpool_EN.txt	TOAD	8	15	[0, 0, 0]	n/a	FR1	6	R1230J
2484.434	0.983	2491159	WORD_OFF	n/a	n/a	TOAD	8	15	[0, 0, 0]	n/a	FR1	6	R1230J
2485.417	1.617	2492142	WORD	n/a	wordpools/wordpool_EN.txt	WEED	9	15	[0, 0, 0]	n/a	FR1	6	R1230J
2487.034	0.884	2493759	WORD_OFF	n/a	n/a	WEED	9	15	[0, 0, 0]	n/a	FR1	6	R1230J
2487.918	1.617	2494643	WORD	n/a	wordpools/wordpool_EN.txt	MILK	10	15	[0, 0, 0]	n/a	FR1	6	R1230J
2489.535	0.95	2496260	WORD_OFF	n/a	n/a	MILK	10	15	[0, 0, 0]	n/a	FR1	6	R1230J
2490.485	1.617	2497210	WORD	n/a	wordpools/wordpool_EN.txt	GEESE	11	15	[0, 0, 0]	n/a	FR1	6	R1230J
2492.102	0.85	2498827	WORD_OFF	n/a	n/a	GEESE	11	15	[0, 0, 0]	n/a	FR1	6	R1230J
2492.952	1.616	2499677	WORD	n/a	wordpools/wordpool_EN.txt	SNAKE	12	15	[0, 0, 0]	n/a	FR1	6	R1230J
2494.568	0.0	2501293	WORD_OFF	n/a	n/a	SNAKE	12	15	[0, 0, 0]	n/a	FR1	6	R1230J
2494.568	0.001	2501293	DISTRACT_START	n/a	n/a	n/a	-999	15	[0, 0, 0]	n/a	FR1	6	R1230J
2494.569	0.015	2501294	START	n/a	n/a	n/a	-999	15	[-999, -999, -999]	n/a	FR1	6	R1230J
2494.584	3.368	2501309	PROB	3.368	n/a	n/a	-999	15	[5, 6, 6]	21	FR1	6	R1230J
2497.952	2.884	2504677	PROB	2.884	n/a	n/a	-999	15	[2, 3, 8]	13	FR1	6	R1230J
2500.836	3.35	2507561	PROB	3.35	n/a	n/a	-999	15	[3, 4, 5]	12	FR1	6	R1230J
2504.186	3.751	2510911	PROB	3.751	n/a	n/a	-999	15	[9, 7, 9]	17	FR1	6	R1230J
2507.937	2.217	2514662	PROB	2.217	n/a	n/a	-999	15	[8, 6, 4]	18	FR1	6	R1230J
2510.154	3.083	2516879	PROB	3.083	n/a	n/a	-999	15	[9, 5, 6]	2	FR1	6	R1230J
2513.237	4.094	2519962	PROB	4.094	n/a	n/a	-999	15	[9, 3, 1]	13	FR1	6	R1230J
2517.331	0.007	2524056	STOP	n/a	n/a	n/a	-999	15	[-999, -999, -999]	n/a	FR1	6	R1230J
2517.338	0.634	2524063	DISTRACT_END	n/a	n/a	n/a	-999	15	[0, 0, 0]	n/a	FR1	6	R1230J
2517.972	0.517	2524697	RETRIEVAL_ORIENT	n/a	n/a	n/a	-999	15	[0, 0, 0]	n/a	FR1	6	R1230J
2518.489	0.637	2525214	REC_START	n/a	n/a	n/a	-999	15	[0, 0, 0]	n/a	FR1	6	R1230J
2519.126	1.114	2525851	REC_WORD	1.114	n/a	BOY	1	15	[0, 0, 0]	n/a	FR1	6	R1230J
2520.24	1.88	2526965	REC_WORD	1.88	n/a	BIRD	6	15	[0, 0, 0]	n/a	FR1	6	R1230J
2522.12	5.186	2528845	REC_WORD	5.186	n/a	MOUSE	7	15	[0, 0, 0]	n/a	FR1	6	R1230J
2527.306	21.195	2534031	REC_WORD	21.195	n/a	GUARD	-999	15	[0, 0, 0]	n/a	FR1	6	R1230J
2548.501	4.742	2555226	REC_END	n/a	n/a	n/a	-999	15	[0, 0, 0]	n/a	FR1	6	R1230J
2553.243	0.5	2559968	TRIAL	n/a	n/a	n/a	-999	16	[0, 0, 0]	n/a	FR1	6	R1230J
2553.743	10.428	2560468	COUNTDOWN_START	n/a	n/a	n/a	-999	16	[0, 0, 0]	n/a	FR1	6	R1230J
2564.171	0.006	2570896	COUNTDOWN_END	n/a	n/a	n/a	-999	16	[0, 0, 0]	n/a	FR1	6	R1230J
2564.177	1.617	2570902	ORIENT	n/a	n/a	n/a	-999	16	[0, 0, 0]	n/a	FR1	6	R1230J
2565.794	1.967	2572519	ORIENT_OFF	n/a	n/a	n/a	-999	16	[0, 0, 0]	n/a	FR1	6	R1230J
2567.761	1.617	2574486	WORD	n/a	wordpools/wordpool_EN.txt	DUCK	1	16	[0, 0, 0]	n/a	FR1	6	R1230J
2569.378	0.884	2576103	WORD_OFF	n/a	n/a	DUCK	1	16	[0, 0, 0]	n/a	FR1	6	R1230J
2570.262	1.617	2576987	WORD	n/a	wordpools/wordpool_EN.txt	MOOSE	2	16	[0, 0, 0]	n/a	FR1	6	R1230J
2571.879	0.916	2578604	WORD_OFF	n/a	n/a	MOOSE	2	16	[0, 0, 0]	n/a	FR1	6	R1230J
2572.795	1.617	2579520	WORD	n/a	wordpools/wordpool_EN.txt	DOG	3	16	[0, 0, 0]	n/a	FR1	6	R1230J
2574.412	0.833	2581137	WORD_OFF	n/a	n/a	DOG	3	16	[0, 0, 0]	n/a	FR1	6	R1230J
2575.245	1.617	2581970	WORD	n/a	wordpools/wordpool_EN.txt	HAWK	4	16	[0, 0, 0]	n/a	FR1	6	R1230J
2576.862	0.766	2583587	WORD_OFF	n/a	n/a	HAWK	4	16	[0, 0, 0]	n/a	FR1	6	R1230J
2577.628	1.618	2584353	WORD	n/a	wordpools/wordpool_EN.txt	ZOO	5	16	[0, 0, 0]	n/a	FR1	6	R1230J
2579.246	0.767	2585971	WORD_OFF	n/a	n/a	ZOO	5	16	[0, 0, 0]	n/a	FR1	6	R1230J
2580.013	1.616	2586738	WORD	n/a	wordpools/wordpool_EN.txt	FLEA	6	16	[0, 0, 0]	n/a	FR1	6	R1230J
2581.629	0.834	2588354	WORD_OFF	n/a	n/a	FLEA	6	16	[0, 0, 0]	n/a	FR1	6	R1230J
2582.463	1.617	2589188	WORD	n/a	wordpools/wordpool_EN.txt	PET	7	16	[0, 0, 0]	n/a	FR1	6	R1230J
2584.08	0.9	2590805	WORD_OFF	n/a	n/a	PET	7	16	[0, 0, 0]	n/a	FR1	6	R1230J
2584.98	1.616	2591705	WORD	n/a	wordpools/wordpool_EN.txt	CHALK	8	16	[0, 0, 0]	n/a	FR1	6	R1230J
2586.596	0.785	2593321	WORD_OFF	n/a	n/a	CHALK	8	16	[0, 0, 0]	n/a	FR1	6	R1230J
2587.381	1.616	2594106	WORD	n/a	wordpools/wordpool_EN.txt	PEN	9	16	[0, 0, 0]	n/a	FR1	6	R1230J
2588.997	0.967	2595722	WORD_OFF	n/a	n/a	PEN	9	16	[0, 0, 0]	n/a	FR1	6	R1230J
2589.964	1.616	2596689	WORD	n/a	wordpools/wordpool_EN.txt	HEN	10	16	[0, 0, 0]	n/a	FR1	6	R1230J
2591.58	0.984	2598305	WORD_OFF	n/a	n/a	HEN	10	16	[0, 0, 0]	n/a	FR1	6	R1230J
2592.564	1.617	2599289	WORD	n/a	wordpools/wordpool_EN.txt	OWL	11	16	[0, 0, 0]	n/a	FR1	6	R1230J
2594.181	0.917	2600906	WORD_OFF	n/a	n/a	OWL	11	16	[0, 0, 0]	n/a	FR1	6	R1230J
2595.098	1.616	2601823	WORD	n/a	wordpools/wordpool_EN.txt	POOL	12	16	[0, 0, 0]	n/a	FR1	6	R1230J
2596.714	0.0	2603439	WORD_OFF	n/a	n/a	POOL	12	16	[0, 0, 0]	n/a	FR1	6	R1230J
2596.714	0.001	2603439	DISTRACT_START	n/a	n/a	n/a	-999	16	[0, 0, 0]	n/a	FR1	6	R1230J
2596.715	0.016	2603440	START	n/a	n/a	n/a	-999	16	[-999, -999, -999]	n/a	FR1	6	R1230J
2596.731	4.585	2603456	PROB	4.585	n/a	n/a	-999	16	[6, 1, 8]	15	FR1	6	R1230J
2601.316	2.85	2608041	PROB	2.85	n/a	n/a	-999	16	[2, 3, 7]	12	FR1	6	R1230J
2604.166	2.9	2610891	PROB	2.9	n/a	n/a	-999	16	[1, 2, 4]	7	FR1	6	R1230J
2607.066	5.884	2613791	PROB	5.884	n/a	n/a	-999	16	[4, 3, 3]	11	FR1	6	R1230J
2612.95	3.601	2619675	PROB	3.601	n/a	n/a	-999	16	[8, 8, 1]	17	FR1	6	R1230J
2616.551	3.175	2623276	PROB	3.175	n/a	n/a	-999	16	[6, 1, 6]	13	FR1	6	R1230J
2619.726	0.008	2626451	STOP	n/a	n/a	n/a	-999	16	[-999, -999, -999]	n/a	FR1	6	R1230J
2619.734	0.567	2626459	DISTRACT_END	n/a	n/a	n/a	-999	16	[0, 0, 0]	n/a	FR1	6	R1230J
2620.301	0.518	2627026	RETRIEVAL_ORIENT	n/a	n/a	n/a	-999	16	[0, 0, 0]	n/a	FR1	6	R1230J
2620.819	0.463	2627544	REC_START	n/a	n/a	n/a	-999	16	[0, 0, 0]	n/a	FR1	6	R1230J
2621.282	0.48	2628007	REC_WORD	0.48	n/a	DUCK	1	16	[0, 0, 0]	n/a	FR1	6	R1230J
2621.762	7.254	2628487	REC_WORD	7.254	n/a	MOUSE	-999	16	[0, 0, 0]	n/a	FR1	6	R1230J
2629.016	21.814	2635741	REC_WORD_VV	21.814	n/a	<>	-999	16	[0, 0, 0]	n/a	FR1	6	R1230J
2650.83	5.259	2657555	REC_END	n/a	n/a	n/a	-999	16	[0, 0, 0]	n/a	FR1	6	R1230J
2656.089	0.5	2662814	TRIAL	n/a	n/a	n/a	-999	17	[0, 0, 0]	n/a	FR1	6	R1230J
2656.589	10.428	2663314	COUNTDOWN_START	n/a	n/a	n/a	-999	17	[0, 0, 0]	n/a	FR1	6	R1230J
2667.017	0.007	2673742	COUNTDOWN_END	n/a	n/a	n/a	-999	17	[0, 0, 0]	n/a	FR1	6	R1230J
2667.024	1.616	2673749	ORIENT	n/a	n/a	n/a	-999	17	[0, 0, 0]	n/a	FR1	6	R1230J
2668.64	2.067	2675365	ORIENT_OFF	n/a	n/a	n/a	-999	17	[0, 0, 0]	n/a	FR1	6	R1230J
2670.707	1.601	2677432	WORD	n/a	wordpools/wordpool_EN.txt	HOLE	1	17	[0, 0, 0]	n/a	FR1	6	R1230J
2672.308	0.917	2679033	WORD_OFF	n/a	n/a	HOLE	1	17	[0, 0, 0]	n/a	FR1	6	R1230J
2673.225	1.617	2679950	WORD	n/a	wordpools/wordpool_EN.txt	VINE	2	17	[0, 0, 0]	n/a	FR1	6	R1230J
2674.842	0.765	2681567	WORD_OFF	n/a	n/a	VINE	2	17	[0, 0, 0]	n/a	FR1	6	R1230J
2675.607	1.601	2682332	WORD	n/a	wordpools/wordpool_EN.txt	FAN	3	17	[0, 0, 0]	n/a	FR1	6	R1230J
2677.208	0.834	2683933	WORD_OFF	n/a	n/a	FAN	3	17	[0, 0, 0]	n/a	FR1	6	R1230J
2678.042	1.616	2684767	WORD	n/a	wordpools/wordpool_EN.txt	DART	4	17	[0, 0, 0]	n/a	FR1	6	R1230J
2679.658	0.868	2686383	WORD_OFF	n/a	n/a	DART	4	17	[0, 0, 0]	n/a	FR1	6	R1230J
2680.526	1.617	2687251	WORD	n/a	wordpools/wordpool_EN.txt	BATH	5	17	[0, 0, 0]	n/a	FR1	6	R1230J
2682.143	0.916	2688868	WORD_OFF	n/a	n/a	BATH	5	17	[0, 0, 0]	n/a	FR1	6	R1230J
2683.059	1.616	2689784	WORD	n/a	wordpools/wordpool_EN.txt	VASE	6	17	[0, 0, 0]	n/a	FR1	6	R1230J
2684.675	0.785	2691400	WORD_OFF	n/a	n/a	VASE	6	17	[0, 0, 0]	n/a	FR1	6	R1230J
2685.46	1.616	2692185	WORD	n/a	wordpools/wordpool_EN.txt	CLOTH	7	17	[0, 0, 0]	n/a	FR1	6	R1230J
2687.076	0.917	2693801	WORD_OFF	n/a	n/a	CLOTH	7	17	[0, 0, 0]	n/a	FR1	6	R1230J
2687.993	1.616	2694718	WORD	n/a	wordpools/wordpool_EN.txt	FRUIT	8	17	[0, 0, 0]	n/a	FR1	6	R1230J
2689.609	0.868	2696334	WORD_OFF	n/a	n/a	FRUIT	8	17	[0, 0, 0]	n/a	FR1	6	R1230J
2690.477	1.617	2697202	WORD	n/a	wordpools/wordpool_EN.txt	STEAK	9	17	[0, 0, 0]	n/a	FR1	6	R1230J
2692.094	0.866	2698819	WORD_OFF	n/a	n/a	STEAK	9	17	[0, 0, 0]	n/a	FR1	6	R1230J
2692.96	1.616	2699685	WORD	n/a	wordpools/wordpool_EN.txt	ROOT	10	17	[0, 0, 0]	n/a	FR1	6	R1230J
2694.576	0.902	2701301	WORD_OFF	n/a	n/a	ROOT	10	17	[0, 0, 0]	n/a	FR1	6	R1230J
2695.478	1.616	2702203	WORD	n/a	wordpools/wordpool_EN.txt	GRAPE	11	17	[0, 0, 0]	n/a	FR1	6	R1230J
2697.094	0.934	2703819	WORD_OFF	n/a	n/a	GRAPE	11	17	[0, 0, 0]	n/a	FR1	6	R1230J
2698.028	1.616	2704753	WORD	n/a	wordpools/wordpool_EN.txt	PASTE	12	17	[0, 0, 0]	n/a	FR1	6	R1230J
2699.644	0.0	2706369	WORD_OFF	n/a	n/a	PASTE	12	17	[0, 0, 0]	n/a	FR1	6	R1230J
2699.644	0.001	2706369	DISTRACT_START	n/a	n/a	n/a	-999	17	[0, 0, 0]	n/a	FR1	6	R1230J
2699.645	0.016	2706370	START	n/a	n/a	n/a	-999	17	[-999, -999, -999]	n/a	FR1	6	R1230J
2699.661	3.584	2706386	PROB	3.584	n/a	n/a	-999	17	[6, 9, 7]	22	FR1	6	R1230J
2703.245	2.651	2709970	PROB	2.651	n/a	n/a	-999	17	[2, 3, 4]	9	FR1	6	R1230J
2705.896	1.883	2712621	PROB	1.883	n/a	n/a	-999	17	[5, 2, 5]	12	FR1	6	R1230J
2707.779	3.334	2714504	PROB	3.334	n/a	n/a	-999	17	[5, 4, 9]	18	FR1	6	R1230J
2711.113	1.917	2717838	PROB	1.917	n/a	n/a	-999	17	[5, 2, 5]	12	FR1	6	R1230J
2713.03	2.2	2719755	PROB	2.2	n/a	n/a	-999	17	[2, 6, 3]	11	FR1	6	R1230J
2715.23	2.851	2721955	PROB	2.851	n/a	n/a	-999	17	[8, 1, 9]	18	FR1	6	R1230J
2718.081	2.057	2724806	PROB	2.057	n/a	n/a	-999	17	[4, 7, 3]	14	FR1	6	R1230J
2720.138	0.01	2726863	STOP	n/a	n/a	n/a	-999	17	[-999, -999, -999]	n/a	FR1	6	R1230J
2720.148	0.7	2726873	DISTRACT_END	n/a	n/a	n/a	-999	17	[0, 0, 0]	n/a	FR1	6	R1230J
2720.848	0.517	2727573	RETRIEVAL_ORIENT	n/a	n/a	n/a	-999	17	[0, 0, 0]	n/a	FR1	6	R1230J
2721.365	1.479	2728090	REC_START	n/a	n/a	n/a	-999	17	[0, 0, 0]	n/a	FR1	6	R1230J
2722.844	28.533	2729569	REC_WORD_VV	28.533	n/a	<>	-999	17	[0, 0, 0]	n/a	FR1	6	R1230J
2751.377	4.575	2758102	REC_END	n/a	n/a	n/a	-999	17	[0, 0, 0]	n/a	FR1	6	R1230J
2755.952	0.5	2762677	TRIAL	n/a	n/a	n/a	-999	18	[0, 0, 0]	n/a	FR1	6	R1230J
2756.452	10.428	2763177	COUNTDOWN_START	n/a	n/a	n/a	-999	18	[0, 0, 0]	n/a	FR1	6	R1230J
2766.88	0.007	2773605	COUNTDOWN_END	n/a	n/a	n/a	-999	18	[0, 0, 0]	n/a	FR1	6	R1230J
2766.887	1.617	2773612	ORIENT	n/a	n/a	n/a	-999	18	[0, 0, 0]	n/a	FR1	6	R1230J
2768.504	2.25	2775229	ORIENT_OFF	n/a	n/a	n/a	-999	18	[0, 0, 0]	n/a	FR1	6	R1230J
2770.754	1.617	2777479	WORD	n/a	wordpools/wordpool_EN.txt	RAKE	1	18	[0, 0, 0]	n/a	FR1	6	R1230J
2772.371	0.983	2779096	WORD_OFF	n/a	n/a	RAKE	1	18	[0, 0, 0]	n/a	FR1	6	R1230J
2773.354	1.617	2780079	WORD	n/a	wordpools/wordpool_EN.txt	CROW	2	18	[0, 0, 0]	n/a	FR1	6	R1230J
2774.971	0.867	2781696	WORD_OFF	n/a	n/a	CROW	2	18	[0, 0, 0]	n/a	FR1	6	R1230J
2775.838	1.617	2782563	WORD	n/a	wordpools/wordpool_EN.txt	SHARK	3	18	[0, 0, 0]	n/a	FR1	6	R1230J
2777.455	0.95	2784180	WORD_OFF	n/a	n/a	SHARK	3	18	[0, 0, 0]	n/a	FR1	6	R1230J
2778.405	1.617	2785130	WORD	n/a	wordpools/wordpool_EN.txt	PRINCE	4	18	[0, 0, 0]	n/a	FR1	6	R1230J
2780.022	0.8	2786747	WORD_OFF	n/a	n/a	PRINCE	4	18	[0, 0, 0]	n/a	FR1	6	R1230J
2780.822	1.617	2787547	WORD	n/a	wordpools/wordpool_EN.txt	TREE	5	18	[0, 0, 0]	n/a	FR1	6	R1230J
2782.439	0.966	2789164	WORD_OFF	n/a	n/a	TREE	5	18	[0, 0, 0]	n/a	FR1	6	R1230J
2783.405	1.617	2790130	WORD	n/a	wordpools/wordpool_EN.txt	BOOT	6	18	[0, 0, 0]	n/a	FR1	6	R1230J
2785.022	0.817	2791747	WORD_OFF	n/a	n/a	BOOT	6	18	[0, 0, 0]	n/a	FR1	6	R1230J
2785.839	1.617	2792564	WORD	n/a	wordpools/wordpool_EN.txt	TOOTH	7	18	[0, 0, 0]	n/a	FR1	6	R1230J
2787.456	0.917	2794181	WORD_OFF	n/a	n/a	TOOTH	7	18	[0, 0, 0]	n/a	FR1	6	R1230J
2788.373	1.617	2795098	WORD	n/a	wordpools/wordpool_EN.txt	HOSE	8	18	[0, 0, 0]	n/a	FR1	6	R1230J
2789.99	0.933	2796715	WORD_OFF	n/a	n/a	HOSE	8	18	[0, 0, 0]	n/a	FR1	6	R1230J
2790.923	1.617	2797648	WORD	n/a	wordpools/wordpool_EN.txt	BLOOM	9	18	[0, 0, 0]	n/a	FR1	6	R1230J
2792.54	1.0	2799265	WORD_OFF	n/a	n/a	BLOOM	9	18	[0, 0, 0]	n/a	FR1	6	R1230J
2793.54	1.617	2800265	WORD	n/a	wordpools/wordpool_EN.txt	SLEEVE	10	18	[0, 0, 0]	n/a	FR1	6	R1230J
2795.157	0.983	2801882	WORD_OFF	n/a	n/a	SLEEVE	10	18	[0, 0, 0]	n/a	FR1	6	R1230J
2796.14	1.617	2802865	WORD	n/a	wordpools/wordpool_EN.txt	SPRING	11	18	[0, 0, 0]	n/a	FR1	6	R1230J
2797.757	0.9	2804482	WORD_OFF	n/a	n/a	SPRING	11	18	[0, 0, 0]	n/a	FR1	6	R1230J
2798.657	1.617	2805382	WORD	n/a	wordpools/wordpool_EN.txt	CROWN	12	18	[0, 0, 0]	n/a	FR1	6	R1230J
2800.274	0.0	2806999	WORD_OFF	n/a	n/a	CROWN	12	18	[0, 0, 0]	n/a	FR1	6	R1230J
2800.274	0.001	2806999	DISTRACT_START	n/a	n/a	n/a	-999	18	[0, 0, 0]	n/a	FR1	6	R1230J
2800.275	0.016	2807000	START	n/a	n/a	n/a	-999	18	[-999, -999, -999]	n/a	FR1	6	R1230J
2800.291	5.333	2807016	PROB	5.333	n/a	n/a	-999	18	[5, 9, 3]	17	FR1	6	R1230J
2805.624	2.235	2812349	PROB	2.235	n/a	n/a	-999	18	[8, 5, 5]	18	FR1	6	R1230J
2807.859	2.617	2814584	PROB	2.617	n/a	n/a	-999	18	[7, 3, 2]	12	FR1	6	R1230J
2810.476	2.516	2817201	PROB	2.516	n/a	n/a	-999	18	[3, 9, 4]	16	FR1	6	R1230J
2812.992	3.101	2819718	PROB	3.101	n/a	n/a	-999	18	[8, 4, 7]	21	FR1	6	R1230J
2816.093	4.184	2822819	PROB	4.184	n/a	n/a	-999	18	[4, 7, 6]	17	FR1	6	R1230J
2820.277	2.61	2827003	PROB	2.61	n/a	n/a	-999	18	[4, 2, 2]	8	FR1	6	R1230J
2822.887	0.006	2829613	STOP	n/a	n/a	n/a	-999	18	[-999, -999, -999]	n/a	FR1	6	R1230J
2822.893	0.683	2829619	DISTRACT_END	n/a	n/a	n/a	-999	18	[0, 0, 0]	n/a	FR1	6	R1230J
2823.576	0.519	2830302	RETRIEVAL_ORIENT	n/a	n/a	n/a	-999	18	[0, 0, 0]	n/a	FR1	6	R1230J
2824.095	0.626	2830821	REC_START	n/a	n/a	n/a	-999	18	[0, 0, 0]	n/a	FR1	6	R1230J
2824.721	0.919	2831447	REC_WORD	0.919	n/a	BREAK	-999	18	[0, 0, 0]	n/a	FR1	6	R1230J
2825.64	0.96	2832366	REC_WORD	0.96	n/a	CROW	2	18	[0, 0, 0]	n/a	FR1	6	R1230J
2826.6	1.128	2833326	REC_WORD	1.128	n/a	SHARK	3	18	[0, 0, 0]	n/a	FR1	6	R1230J
2827.728	26.379	2834454	REC_WORD	26.379	n/a	FRANCE	-999	18	[0, 0, 0]	n/a	FR1	6	R1230J
2854.107	4.892	2860833	REC_END	n/a	n/a	n/a	-999	18	[0, 0, 0]	n/a	FR1	6	R1230J
2858.999	0.5	2865725	TRIAL	n/a	n/a	n/a	-999	19	[0, 0, 0]	n/a	FR1	6	R1230J
2859.499	10.428	2866225	COUNTDOWN_START	n/a	n/a	n/a	-999	19	[0, 0, 0]	n/a	FR1	6	R1230J
2869.927	0.006	2876653	COUNTDOWN_END	n/a	n/a	n/a	-999	19	[0, 0, 0]	n/a	FR1	6	R1230J
2869.933	1.617	2876659	ORIENT	n/a	n/a	n/a	-999	19	[0, 0, 0]	n/a	FR1	6	R1230J
2871.55	2.066	2878276	ORIENT_OFF	n/a	n/a	n/a	-999	19	[0, 0, 0]	n/a	FR1	6	R1230J
2873.616	1.618	2880342	WORD	n/a	wordpools/wordpool_EN.txt	SHIRT	1	19	[0, 0, 0]	n/a	FR1	6	R1230J
2875.234	0.85	2881960	WORD_OFF	n/a	n/a	SHIRT	1	19	[0, 0, 0]	n/a	FR1	6	R1230J
2876.084	1.616	2882810	WORD	n/a	wordpools/wordpool_EN.txt	CHIN	2	19	[0, 0, 0]	n/a	FR1	6	R1230J
2877.7	1.0	2884426	WORD_OFF	n/a	n/a	CHIN	2	19	[0, 0, 0]	n/a	FR1	6	R1230J
2878.7	1.618	2885426	WORD	n/a	wordpools/wordpool_EN.txt	CUP	3	19	[0, 0, 0]	n/a	FR1	6	R1230J
2880.318	0.817	2887044	WORD_OFF	n/a	n/a	CUP	3	19	[0, 0, 0]	n/a	FR1	6	R1230J
2881.135	1.616	2887861	WORD	n/a	wordpools/wordpool_EN.txt	STRING	4	19	[0, 0, 0]	n/a	FR1	6	R1230J
2882.751	1.017	2889477	WORD_OFF	n/a	n/a	STRING	4	19	[0, 0, 0]	n/a	FR1	6	R1230J
2883.768	1.617	2890494	WORD	n/a	wordpools/wordpool_EN.txt	PURSE	5	19	[0, 0, 0]	n/a	FR1	6	R1230J
2885.385	0.817	2892111	WORD_OFF	n/a	n/a	PURSE	5	19	[0, 0, 0]	n/a	FR1	6	R1230J
2886.202	1.617	2892928	WORD	n/a	wordpools/wordpool_EN.txt	TIE	6	19	[0, 0, 0]	n/a	FR1	6	R1230J
2887.819	0.882	2894545	WORD_OFF	n/a	n/a	TIE	6	19	[0, 0, 0]	n/a	FR1	6	R1230J
2888.701	1.618	2895427	WORD	n/a	wordpools/wordpool_EN.txt	FORK	7	19	[0, 0, 0]	n/a	FR1	6	R1230J
2890.319	0.834	2897045	WORD_OFF	n/a	n/a	FORK	7	19	[0, 0, 0]	n/a	FR1	6	R1230J
2891.153	1.616	2897879	WORD	n/a	wordpools/wordpool_EN.txt	OAR	8	19	[0, 0, 0]	n/a	FR1	6	R1230J
2892.769	1.001	2899495	WORD_OFF	n/a	n/a	OAR	8	19	[0, 0, 0]	n/a	FR1	6	R1230J
2893.77	1.616	2900496	WORD	n/a	wordpools/wordpool_EN.txt	LEG	9	19	[0, 0, 0]	n/a	FR1	6	R1230J
2895.386	0.834	2902112	WORD_OFF	n/a	n/a	LEG	9	19	[0, 0, 0]	n/a	FR1	6	R1230J
2896.22	1.617	2902946	WORD	n/a	wordpools/wordpool_EN.txt	PLATE	10	19	[0, 0, 0]	n/a	FR1	6	R1230J
2897.837	0.917	2904563	WORD_OFF	n/a	n/a	PLATE	10	19	[0, 0, 0]	n/a	FR1	6	R1230J
2898.754	1.617	2905480	WORD	n/a	wordpools/wordpool_EN.txt	TRAY	11	19	[0, 0, 0]	n/a	FR1	6	R1230J
2900.371	0.9	2907097	WORD_OFF	n/a	n/a	TRAY	11	19	[0, 0, 0]	n/a	FR1	6	R1230J
2901.271	1.616	2907997	WORD	n/a	wordpools/wordpool_EN.txt	COUCH	12	19	[0, 0, 0]	n/a	FR1	6	R1230J
2902.887	0.0	2909613	WORD_OFF	n/a	n/a	COUCH	12	19	[0, 0, 0]	n/a	FR1	6	R1230J
2902.887	0.001	2909613	DISTRACT_START	n/a	n/a	n/a	-999	19	[0, 0, 0]	n/a	FR1	6	R1230J
2902.888	0.016	2909614	START	n/a	n/a	n/a	-999	19	[-999, -999, -999]	n/a	FR1	6	R1230J
2902.904	3.117	2909630	PROB	3.117	n/a	n/a	-999	19	[1, 9, 5]	15	FR1	6	R1230J
2906.021	2.317	2912747	PROB	2.317	n/a	n/a	-999	19	[6, 4, 4]	14	FR1	6	R1230J
2908.338	3.383	2915064	PROB	3.383	n/a	n/a	-999	19	[3, 5, 6]	14	FR1	6	R1230J
2911.721	3.418	2918447	PROB	3.418	n/a	n/a	-999	19	[5, 6, 9]	20	FR1	6	R1230J
2915.139	4.284	2921865	PROB	4.284	n/a	n/a	-999	19	[5, 7, 9]	22	FR1	6	R1230J
2919.423	2.851	2926149	PROB	2.851	n/a	n/a	-999	19	[4, 3, 2]	9	FR1	6	R1230J
2922.274	2.399	2929000	PROB	2.399	n/a	n/a	-999	19	[8, 2, 5]	15	FR1	6	R1230J
2924.673	0.016	2931399	STOP	n/a	n/a	n/a	-999	19	[-999, -999, -999]	n/a	FR1	6	R1230J
2924.689	0.585	2931415	DISTRACT_END	n/a	n/a	n/a	-999	19	[0, 0, 0]	n/a	FR1	6	R1230J
2925.274	0.518	2932000	RETRIEVAL_ORIENT	n/a	n/a	n/a	-999	19	[0, 0, 0]	n/a	FR1	6	R1230J
2925.792	1.285	2932518	REC_START	n/a	n/a	n/a	-999	19	[0, 0, 0]	n/a	FR1	6	R1230J
2927.077	0.974	2933803	REC_WORD	0.974	n/a	SHIRT	1	19	[0, 0, 0]	n/a	FR1	6	R1230J
2928.051	0.771	2934777	REC_WORD	0.771	n/a	CUP	3	19	[0, 0, 0]	n/a	FR1	6	R1230J
2928.822	2.504	2935548	REC_WORD	2.504	n/a	CHIN	2	19	[0, 0, 0]	n/a	FR1	6	R1230J
2931.326	24.478	2938052	REC_WORD	24.478	n/a	STRING	4	19	[0, 0, 0]	n/a	FR1	6	R1230J
2955.804	4.89	2962530	REC_END	n/a	n/a	n/a	-999	19	[0, 0, 0]	n/a	FR1	6	R1230J
2960.694	0.5	2967420	TRIAL	n/a	n/a	n/a	-999	20	[0, 0, 0]	n/a	FR1	6	R1230J
2961.194	10.428	2967920	COUNTDOWN_START	n/a	n/a	n/a	-999	20	[0, 0, 0]	n/a	FR1	6	R1230J
2971.622	0.007	2978348	COUNTDOWN_END	n/a	n/a	n/a	-999	20	[0, 0, 0]	n/a	FR1	6	R1230J
2971.629	1.617	2978355	ORIENT	n/a	n/a	n/a	-999	20	[0, 0, 0]	n/a	FR1	6	R1230J
2973.246	1.834	2979972	ORIENT_OFF	n/a	n/a	n/a	-999	20	[0, 0, 0]	n/a	FR1	6	R1230J
2975.08	1.616	2981806	WORD	n/a	wordpools/wordpool_EN.txt	TENT	1	20	[0, 0, 0]	n/a	FR1	6	R1230J
2976.696	0.784	2983422	WORD_OFF	n/a	n/a	TENT	1	20	[0, 0, 0]	n/a	FR1	6	R1230J
2977.48	1.617	2984206	WORD	n/a	wordpools/wordpool_EN.txt	DOLL	2	20	[0, 0, 0]	n/a	FR1	6	R1230J
2979.097	0.9	2985823	WORD_OFF	n/a	n/a	DOLL	2	20	[0, 0, 0]	n/a	FR1	6	R1230J
2979.997	1.616	2986723	WORD	n/a	wordpools/wordpool_EN.txt	SINK	3	20	[0, 0, 0]	n/a	FR1	6	R1230J
2981.613	1.0	2988339	WORD_OFF	n/a	n/a	SINK	3	20	[0, 0, 0]	n/a	FR1	6	R1230J
2982.613	1.618	2989339	WORD	n/a	wordpools/wordpool_EN.txt	BROOM	4	20	[0, 0, 0]	n/a	FR1	6	R1230J
2984.231	0.85	2990957	WORD_OFF	n/a	n/a	BROOM	4	20	[0, 0, 0]	n/a	FR1	6	R1230J
2985.081	1.616	2991807	WORD	n/a	wordpools/wordpool_EN.txt	LIP	5	20	[0, 0, 0]	n/a	FR1	6	R1230J
2986.697	1.0	2993423	WORD_OFF	n/a	n/a	LIP	5	20	[0, 0, 0]	n/a	FR1	6	R1230J
2987.697	1.618	2994423	WORD	n/a	wordpools/wordpool_EN.txt	STOVE	6	20	[0, 0, 0]	n/a	FR1	6	R1230J
2989.315	0.884	2996041	WORD_OFF	n/a	n/a	STOVE	6	20	[0, 0, 0]	n/a	FR1	6	R1230J
2990.199	1.617	2996925	WORD	n/a	wordpools/wordpool_EN.txt	MOUTH	7	20	[0, 0, 0]	n/a	FR1	6	R1230J
2991.816	0.815	2998542	WORD_OFF	n/a	n/a	MOUTH	7	20	[0, 0, 0]	n/a	FR1	6	R1230J
2992.631	1.618	2999357	WORD	n/a	wordpools/wordpool_EN.txt	PIT	8	20	[0, 0, 0]	n/a	FR1	6	R1230J
2994.249	0.817	3000975	WORD_OFF	n/a	n/a	PIT	8	20	[0, 0, 0]	n/a	FR1	6	R1230J
2995.066	1.616	3001792	WORD	n/a	wordpools/wordpool_EN.txt	GATE	9	20	[0, 0, 0]	n/a	FR1	6	R1230J
2996.682	0.884	3003408	WORD_OFF	n/a	n/a	GATE	9	20	[0, 0, 0]	n/a	FR1	6	R1230J
2997.566	1.617	3004292	WORD	n/a	wordpools/wordpool_EN.txt	ELF	10	20	[0, 0, 0]	n/a	FR1	6	R1230J
2999.183	0.95	3005909	WORD_OFF	n/a	n/a	ELF	10	20	[0, 0, 0]	n/a	FR1	6	R1230J
3000.133	1.617	3006859	WORD	n/a	wordpools/wordpool_EN.txt	MAT	11	20	[0, 0, 0]	n/a	FR1	6	R1230J
3001.75	0.849	3008476	WORD_OFF	n/a	n/a	MAT	11	20	[0, 0, 0]	n/a	FR1	6	R1230J
3002.599	1.618	3009325	WORD	n/a	wordpools/wordpool_EN.txt	SWAMP	12	20	[0, 0, 0]	n/a	FR1	6	R1230J
3004.217	0.0	3010943	WORD_OFF	n/a	n/a	SWAMP	12	20	[0, 0, 0]	n/a	FR1	6	R1230J
3004.217	0.001	3010943	DISTRACT_START	n/a	n/a	n/a	-999	20	[0, 0, 0]	n/a	FR1	6	R1230J
3004.218	0.016	3010944	START	n/a	n/a	n/a	-999	20	[-999, -999, -999]	n/a	FR1	6	R1230J
3004.234	3.567	3010960	PROB	3.567	n/a	n/a	-999	20	[9, 9, 3]	21	FR1	6	R1230J
3007.801	2.017	3014527	PROB	2.017	n/a	n/a	-999	20	[4, 5, 2]	11	FR1	6	R1230J
3009.818	2.75	3016544	PROB	2.75	n/a	n/a	-999	20	[9, 2, 4]	15	FR1	6	R1230J
3012.568	2.967	3019294	PROB	2.967	n/a	n/a	-999	20	[7, 2, 2]	11	FR1	6	R1230J
3015.535	4.818	3022261	PROB	4.818	n/a	n/a	-999	20	[4, 3, 3]	10	FR1	6	R1230J
3020.353	2.299	3027079	PROB	2.299	n/a	n/a	-999	20	[1, 7, 8]	16	FR1	6	R1230J
3022.652	2.193	3029378	PROB	2.193	n/a	n/a	-999	20	[6, 1, 5]	12	FR1	6	R1230J
3024.845	0.008	3031571	STOP	n/a	n/a	n/a	-999	20	[-999, -999, -999]	n/a	FR1	6	R1230J
3024.853	0.7	3031579	DISTRACT_END	n/a	n/a	n/a	-999	20	[0, 0, 0]	n/a	FR1	6	R1230J
3025.553	0.518	3032279	RETRIEVAL_ORIENT	n/a	n/a	n/a	-999	20	[0, 0, 0]	n/a	FR1	6	R1230J
3026.071	0.426	3032797	REC_START	n/a	n/a	n/a	-999	20	[0, 0, 0]	n/a	FR1	6	R1230J
3026.497	0.677	3033223	REC_WORD	0.677	n/a	TENT	1	20	[0, 0, 0]	n/a	FR1	6	R1230J
3027.174	0.978	3033900	REC_WORD	0.978	n/a	DOLL	2	20	[0, 0, 0]	n/a	FR1	6	R1230J
3028.152	1.037	3034878	REC_WORD	1.037	n/a	BROOM	4	20	[0, 0, 0]	n/a	FR1	6	R1230J
3029.189	26.893	3035915	REC_WORD	26.893	n/a	SINK	3	20	[0, 0, 0]	n/a	FR1	6	R1230J
3056.082	4.292	3062808	REC_END	n/a	n/a	n/a	-999	20	[0, 0, 0]	n/a	FR1	6	R1230J
3060.374	0.5	3067100	TRIAL	n/a	n/a	n/a	-999	21	[0, 0, 0]	n/a	FR1	6	R1230J
3060.874	10.428	3067600	COUNTDOWN_START	n/a	n/a	n/a	-999	21	[0, 0, 0]	n/a	FR1	6	R1230J
3071.302	0.007	3078028	COUNTDOWN_END	n/a	n/a	n/a	-999	21	[0, 0, 0]	n/a	FR1	6	R1230J
3071.309	1.617	3078035	ORIENT	n/a	n/a	n/a	-999	21	[0, 0, 0]	n/a	FR1	6	R1230J
3072.926	2.083	3079652	ORIENT_OFF	n/a	n/a	n/a	-999	21	[0, 0, 0]	n/a	FR1	6	R1230J
3075.009	1.616	3081735	WORD	n/a	wordpools/wordpool_EN.txt	SCHOOL	1	21	[0, 0, 0]	n/a	FR1	6	R1230J
3076.625	0.901	3083351	WORD_OFF	n/a	n/a	SCHOOL	1	21	[0, 0, 0]	n/a	FR1	6	R1230J
3077.526	1.617	3084252	WORD	n/a	wordpools/wordpool_EN.txt	DESK	2	21	[0, 0, 0]	n/a	FR1	6	R1230J
3079.143	0.984	3085869	WORD_OFF	n/a	n/a	DESK	2	21	[0, 0, 0]	n/a	FR1	6	R1230J
3080.127	1.617	3086853	WORD	n/a	wordpools/wordpool_EN.txt	PALM	3	21	[0, 0, 0]	n/a	FR1	6	R1230J
3081.744	1.016	3088470	WORD_OFF	n/a	n/a	PALM	3	21	[0, 0, 0]	n/a	FR1	6	R1230J
3082.76	1.617	3089486	WORD	n/a	wordpools/wordpool_EN.txt	TOAST	4	21	[0, 0, 0]	n/a	FR1	6	R1230J
3084.377	0.984	3091103	WORD_OFF	n/a	n/a	TOAST	4	21	[0, 0, 0]	n/a	FR1	6	R1230J
3085.361	1.617	3092087	WORD	n/a	wordpools/wordpool_EN.txt	TEA	5	21	[0, 0, 0]	n/a	FR1	6	R1230J
3086.978	0.783	3093704	WORD_OFF	n/a	n/a	TEA	5	21	[0, 0, 0]	n/a	FR1	6	R1230J
3087.761	1.617	3094487	WORD	n/a	wordpools/wordpool_EN.txt	PEACH	6	21	[0, 0, 0]	n/a	FR1	6	R1230J
3089.378	0.95	3096104	WORD_OFF	n/a	n/a	PEACH	6	21	[0, 0, 0]	n/a	FR1	6	R1230J
3090.328	1.617	3097054	WORD	n/a	wordpools/wordpool_EN.txt	SUIT	7	21	[0, 0, 0]	n/a	FR1	6	R1230J
3091.945	0.967	3098671	WORD_OFF	n/a	n/a	SUIT	7	21	[0, 0, 0]	n/a	FR1	6	R1230J
3092.912	1.617	3099638	WORD	n/a	wordpools/wordpool_EN.txt	SLIME	8	21	[0, 0, 0]	n/a	FR1	6	R1230J
3094.529	0.866	3101255	WORD_OFF	n/a	n/a	SLIME	8	21	[0, 0, 0]	n/a	FR1	6	R1230J
3095.395	1.617	3102121	WORD	n/a	wordpools/wordpool_EN.txt	SOCK	9	21	[0, 0, 0]	n/a	FR1	6	R1230J
3097.012	1.017	3103738	WORD_OFF	n/a	n/a	SOCK	9	21	[0, 0, 0]	n/a	FR1	6	R1230J
3098.029	1.616	3104755	WORD	n/a	wordpools/wordpool_EN.txt	DIME	10	21	[0, 0, 0]	n/a	FR1	6	R1230J
3099.645	0.918	3106371	WORD_OFF	n/a	n/a	DIME	10	21	[0, 0, 0]	n/a	FR1	6	R1230J
3100.563	1.617	3107289	WORD	n/a	wordpools/wordpool_EN.txt	OAK	11	21	[0, 0, 0]	n/a	FR1	6	R1230J
3102.18	1.0	3108906	WORD_OFF	n/a	n/a	OAK	11	21	[0, 0, 0]	n/a	FR1	6	R1230J
3103.18	1.617	3109906	WORD	n/a	wordpools/wordpool_EN.txt	CANE	12	21	[0, 0, 0]	n/a	FR1	6	R1230J
3104.797	0.0	3111523	WORD_OFF	n/a	n/a	CANE	12	21	[0, 0, 0]	n/a	FR1	6	R1230J
3104.797	0.0	3111523	DISTRACT_START	n/a	n/a	n/a	-999	21	[0, 0, 0]	n/a	FR1	6	R1230J
3104.797	0.016	3111523	START	n/a	n/a	n/a	-999	21	[-999, -999, -999]	n/a	FR1	6	R1230J
3104.813	2.85	3111539	PROB	2.85	n/a	n/a	-999	21	[3, 7, 8]	18	FR1	6	R1230J
3107.663	3.718	3114389	PROB	3.718	n/a	n/a	-999	21	[6, 7, 7]	23	FR1	6	R1230J
3111.381	2.817	3118107	PROB	2.817	n/a	n/a	-999	21	[4, 1, 4]	9	FR1	6	R1230J
3114.198	1.767	3120924	PROB	1.767	n/a	n/a	-999	21	[1, 6, 5]	12	FR1	6	R1230J
3115.965	2.699	3122691	PROB	2.699	n/a	n/a	-999	21	[6, 4, 8]	18	FR1	6	R1230J
3118.664	3.468	3125390	PROB	3.468	n/a	n/a	-999	21	[7, 8, 8]	23	FR1	6	R1230J
3122.132	1.784	3128858	PROB	1.784	n/a	n/a	-999	21	[4, 6, 3]	13	FR1	6	R1230J
3123.916	2.373	3130642	PROB	2.373	n/a	n/a	-999	21	[4, 2, 8]	14	FR1	6	R1230J
3126.289	0.01	3133015	STOP	n/a	n/a	n/a	-999	21	[-999, -999, -999]	n/a	FR1	6	R1230J
3126.299	0.567	3133025	DISTRACT_END	n/a	n/a	n/a	-999	21	[0, 0, 0]	n/a	FR1	6	R1230J
3126.866	0.518	3133592	RETRIEVAL_ORIENT	n/a	n/a	n/a	-999	21	[0, 0, 0]	n/a	FR1	6	R1230J
3127.384	2.39	3134110	REC_START	n/a	n/a	n/a	-999	21	[0, 0, 0]	n/a	FR1	6	R1230J
3129.774	2.902	3136500	REC_WORD	2.902	n/a	DESK	2	21	[0, 0, 0]	n/a	FR1	6	R1230J
3132.676	2.932	3139402	REC_WORD	2.932	n/a	TOOL	-999	21	[0, 0, 0]	n/a	FR1	6	R1230J
3135.608	1.533	3142334	REC_WORD	1.533	n/a	TEA	5	21	[0, 0, 0]	n/a	FR1	6	R1230J
3137.141	1.55	3143867	REC_WORD	1.55	n/a	PALM	3	21	[0, 0, 0]	n/a	FR1	6	R1230J
3138.691	18.706	3145417	REC_WORD	18.706	n/a	TOAST	4	21	[0, 0, 0]	n/a	FR1	6	R1230J
3157.397	4.407	3164123	REC_END	n/a	n/a	n/a	-999	21	[0, 0, 0]	n/a	FR1	6	R1230J
3161.804	0.5	3168530	TRIAL	n/a	n/a	n/a	-999	22	[0, 0, 0]	n/a	FR1	6	R1230J
3162.304	10.428	3169030	COUNTDOWN_START	n/a	n/a	n/a	-999	22	[0, 0, 0]	n/a	FR1	6	R1230J
3172.732	0.006	3179458	COUNTDOWN_END	n/a	n/a	n/a	-999	22	[0, 0, 0]	n/a	FR1	6	R1230J
3172.738	1.617	3179464	ORIENT	n/a	n/a	n/a	-999	22	[0, 0, 0]	n/a	FR1	6	R1230J
3174.355	2.001	3181081	ORIENT_OFF	n/a	n/a	n/a	-999	22	[0, 0, 0]	n/a	FR1	6	R1230J
3176.356	1.617	3183082	WORD	n/a	wordpools/wordpool_EN.txt	MAP	1	22	[0, 0, 0]	n/a	FR1	6	R1230J
3177.973	0.833	3184699	WORD_OFF	n/a	n/a	MAP	1	22	[0, 0, 0]	n/a	FR1	6	R1230J
3178.806	1.617	3185532	WORD	n/a	wordpools/wordpool_EN.txt	POLE	2	22	[0, 0, 0]	n/a	FR1	6	R1230J
3180.423	0.8	3187149	WORD_OFF	n/a	n/a	POLE	2	22	[0, 0, 0]	n/a	FR1	6	R1230J
3181.223	1.617	3187949	WORD	n/a	wordpools/wordpool_EN.txt	KEY	3	22	[0, 0, 0]	n/a	FR1	6	R1230J
3182.84	0.882	3189566	WORD_OFF	n/a	n/a	KEY	3	22	[0, 0, 0]	n/a	FR1	6	R1230J
3183.722	1.601	3190448	WORD	n/a	wordpools/wordpool_EN.txt	BAT	4	22	[0, 0, 0]	n/a	FR1	6	R1230J
3185.323	0.934	3192049	WORD_OFF	n/a	n/a	BAT	4	22	[0, 0, 0]	n/a	FR1	6	R1230J
3186.257	1.617	3192983	WORD	n/a	wordpools/wordpool_EN.txt	BALL	5	22	[0, 0, 0]	n/a	FR1	6	R1230J
3187.874	0.849	3194600	WORD_OFF	n/a	n/a	BALL	5	22	[0, 0, 0]	n/a	FR1	6	R1230J
3188.723	1.601	3195449	WORD	n/a	wordpools/wordpool_EN.txt	EAR	6	22	[0, 0, 0]	n/a	FR1	6	R1230J
3190.324	0.984	3197050	WORD_OFF	n/a	n/a	EAR	6	22	[0, 0, 0]	n/a	FR1	6	R1230J
3191.308	1.616	3198034	WORD	n/a	wordpools/wordpool_EN.txt	PEA	7	22	[0, 0, 0]	n/a	FR1	6	R1230J
3192.924	0.8	3199650	WORD_OFF	n/a	n/a	PEA	7	22	[0, 0, 0]	n/a	FR1	6	R1230J
3193.724	1.618	3200450	WORD	n/a	wordpools/wordpool_EN.txt	NAIL	8	22	[0, 0, 0]	n/a	FR1	6	R1230J
3195.342	0.983	3202068	WORD_OFF	n/a	n/a	NAIL	8	22	[0, 0, 0]	n/a	FR1	6	R1230J
3196.325	1.617	3203051	WORD	n/a	wordpools/wordpool_EN.txt	STORM	9	22	[0, 0, 0]	n/a	FR1	6	R1230J
3197.942	0.766	3204668	WORD_OFF	n/a	n/a	STORM	9	22	[0, 0, 0]	n/a	FR1	6	R1230J
3198.708	1.618	3205434	WORD	n/a	wordpools/wordpool_EN.txt	FUR	10	22	[0, 0, 0]	n/a	FR1	6	R1230J
3200.326	0.9	3207052	WORD_OFF	n/a	n/a	FUR	10	22	[0, 0, 0]	n/a	FR1	6	R1230J
3201.226	1.616	3207952	WORD	n/a	wordpools/wordpool_EN.txt	COIN	11	22	[0, 0, 0]	n/a	FR1	6	R1230J
3202.842	0.934	3209568	WORD_OFF	n/a	n/a	COIN	11	22	[0, 0, 0]	n/a	FR1	6	R1230J
3203.776	1.617	3210502	WORD	n/a	wordpools/wordpool_EN.txt	SAIL	12	22	[0, 0, 0]	n/a	FR1	6	R1230J
3205.393	0.0	3212119	WORD_OFF	n/a	n/a	SAIL	12	22	[0, 0, 0]	n/a	FR1	6	R1230J
3205.393	0.0	3212119	DISTRACT_START	n/a	n/a	n/a	-999	22	[0, 0, 0]	n/a	FR1	6	R1230J
3205.393	0.017	3212119	START	n/a	n/a	n/a	-999	22	[-999, -999, -999]	n/a	FR1	6	R1230J
3205.41	3.783	3212136	PROB	3.783	n/a	n/a	-999	22	[5, 3, 9]	17	FR1	6	R1230J
3209.193	2.433	3215919	PROB	2.433	n/a	n/a	-999	22	[2, 6, 2]	10	FR1	6	R1230J
3211.626	1.634	3218352	PROB	1.634	n/a	n/a	-999	22	[6, 4, 1]	11	FR1	6	R1230J
3213.26	1.651	3219986	PROB	1.651	n/a	n/a	-999	22	[7, 3, 4]	14	FR1	6	R1230J
3214.911	2.083	3221637	PROB	2.083	n/a	n/a	-999	22	[9, 5, 8]	23	FR1	6	R1230J
3216.994	3.251	3223720	PROB	3.251	n/a	n/a	-999	22	[7, 7, 3]	17	FR1	6	R1230J
3220.245	2.366	3226971	PROB	2.366	n/a	n/a	-999	22	[1, 7, 6]	14	FR1	6	R1230J
3222.611	1.884	3229337	PROB	1.884	n/a	n/a	-999	22	[7, 1, 3]	11	FR1	6	R1230J
3224.495	2.085	3231221	PROB	2.085	n/a	n/a	-999	22	[3, 7, 6]	16	FR1	6	R1230J
3226.58	0.015	3233306	STOP	n/a	n/a	n/a	-999	22	[-999, -999, -999]	n/a	FR1	6	R1230J
3226.595	0.667	3233321	DISTRACT_END	n/a	n/a	n/a	-999	22	[0, 0, 0]	n/a	FR1	6	R1230J
3227.262	0.518	3233988	RETRIEVAL_ORIENT	n/a	n/a	n/a	-999	22	[0, 0, 0]	n/a	FR1	6	R1230J
3227.78	0.354	3234506	REC_START	n/a	n/a	n/a	-999	22	[0, 0, 0]	n/a	FR1	6	R1230J
3228.134	0.595	3234860	REC_WORD	0.595	n/a	MAP	1	22	[0, 0, 0]	n/a	FR1	6	R1230J
3228.729	2.769	3235455	REC_WORD	2.769	n/a	POLE	2	22	[0, 0, 0]	n/a	FR1	6	R1230J
3231.498	2.137	3238224	REC_WORD	2.137	n/a	COIN	11	22	[0, 0, 0]	n/a	FR1	6	R1230J
3233.635	24.157	3240361	REC_WORD	24.157	n/a	SEAL	-999	22	[0, 0, 0]	n/a	FR1	6	R1230J
3257.792	4.275	3264518	REC_END	n/a	n/a	n/a	-999	22	[0, 0, 0]	n/a	FR1	6	R1230J
3262.067	0.5	3268793	TRIAL	n/a	n/a	n/a	-999	23	[0, 0, 0]	n/a	FR1	6	R1230J
3262.567	10.428	3269293	COUNTDOWN_START	n/a	n/a	n/a	-999	23	[0, 0, 0]	n/a	FR1	6	R1230J
3272.995	0.006	3279721	COUNTDOWN_END	n/a	n/a	n/a	-999	23	[0, 0, 0]	n/a	FR1	6	R1230J
3273.001	1.616	3279727	ORIENT	n/a	n/a	n/a	-999	23	[0, 0, 0]	n/a	FR1	6	R1230J
3274.617	2.017	3281343	ORIENT_OFF	n/a	n/a	n/a	-999	23	[0, 0, 0]	n/a	FR1	6	R1230J
3276.634	1.601	3283360	WORD	n/a	wordpools/wordpool_EN.txt	BUSH	1	23	[0, 0, 0]	n/a	FR1	6	R1230J
3278.235	0.901	3284961	WORD_OFF	n/a	n/a	BUSH	1	23	[0, 0, 0]	n/a	FR1	6	R1230J
3279.136	1.617	3285862	WORD	n/a	wordpools/wordpool_EN.txt	CLOCK	2	23	[0, 0, 0]	n/a	FR1	6	R1230J
3280.753	0.8	3287479	WORD_OFF	n/a	n/a	CLOCK	2	23	[0, 0, 0]	n/a	FR1	6	R1230J
3281.553	1.616	3288279	WORD	n/a	wordpools/wordpool_EN.txt	YARD	3	23	[0, 0, 0]	n/a	FR1	6	R1230J
3283.169	0.984	3289895	WORD_OFF	n/a	n/a	YARD	3	23	[0, 0, 0]	n/a	FR1	6	R1230J
3284.153	1.617	3290879	WORD	n/a	wordpools/wordpool_EN.txt	LAMP	4	23	[0, 0, 0]	n/a	FR1	6	R1230J
3285.77	0.849	3292496	WORD_OFF	n/a	n/a	LAMP	4	23	[0, 0, 0]	n/a	FR1	6	R1230J
3286.619	1.618	3293345	WORD	n/a	wordpools/wordpool_EN.txt	STREET	5	23	[0, 0, 0]	n/a	FR1	6	R1230J
3288.237	0.817	3294963	WORD_OFF	n/a	n/a	STREET	5	23	[0, 0, 0]	n/a	FR1	6	R1230J
3289.054	1.616	3295780	WORD	n/a	wordpools/wordpool_EN.txt	WHEEL	6	23	[0, 0, 0]	n/a	FR1	6	R1230J
3290.67	0.95	3297396	WORD_OFF	n/a	n/a	WHEEL	6	23	[0, 0, 0]	n/a	FR1	6	R1230J
3291.62	1.617	3298346	WORD	n/a	wordpools/wordpool_EN.txt	CLOWN	7	23	[0, 0, 0]	n/a	FR1	6	R1230J
3293.237	0.851	3299963	WORD_OFF	n/a	n/a	CLOWN	7	23	[0, 0, 0]	n/a	FR1	6	R1230J
3294.088	1.615	3300814	WORD	n/a	wordpools/wordpool_EN.txt	BAND	8	23	[0, 0, 0]	n/a	FR1	6	R1230J
3295.703	0.884	3302429	WORD_OFF	n/a	n/a	BAND	8	23	[0, 0, 0]	n/a	FR1	6	R1230J
3296.587	1.618	3303313	WORD	n/a	wordpools/wordpool_EN.txt	ROOM	9	23	[0, 0, 0]	n/a	FR1	6	R1230J
3298.205	0.8	3304931	WORD_OFF	n/a	n/a	ROOM	9	23	[0, 0, 0]	n/a	FR1	6	R1230J
3299.005	1.616	3305731	WORD	n/a	wordpools/wordpool_EN.txt	FLUTE	10	23	[0, 0, 0]	n/a	FR1	6	R1230J
3300.621	0.851	3307347	WORD_OFF	n/a	n/a	FLUTE	10	23	[0, 0, 0]	n/a	FR1	6	R1230J
3301.472	1.617	3308198	WORD	n/a	wordpools/wordpool_EN.txt	VAN	11	23	[0, 0, 0]	n/a	FR1	6	R1230J
3303.089	0.933	3309815	WORD_OFF	n/a	n/a	VAN	11	23	[0, 0, 0]	n/a	FR1	6	R1230J
3304.022	1.616	3310748	WORD	n/a	wordpools/wordpool_EN.txt	BADGE	12	23	[0, 0, 0]	n/a	FR1	6	R1230J
3305.638	0.0	3312364	WORD_OFF	n/a	n/a	BADGE	12	23	[0, 0, 0]	n/a	FR1	6	R1230J
3305.638	0.001	3312364	DISTRACT_START	n/a	n/a	n/a	-999	23	[0, 0, 0]	n/a	FR1	6	R1230J
3305.639	0.016	3312365	START	n/a	n/a	n/a	-999	23	[-999, -999, -999]	n/a	FR1	6	R1230J
3305.655	2.851	3312381	PROB	2.851	n/a	n/a	-999	23	[9, 4, 4]	17	FR1	6	R1230J
3308.506	2.317	3315232	PROB	2.317	n/a	n/a	-999	23	[6, 1, 9]	16	FR1	6	R1230J
3310.823	2.816	3317549	PROB	2.816	n/a	n/a	-999	23	[7, 1, 5]	13	FR1	6	R1230J
3313.639	1.768	3320365	PROB	1.768	n/a	n/a	-999	23	[1, 3, 7]	11	FR1	6	R1230J
3315.407	3.166	3322133	PROB	3.166	n/a	n/a	-999	23	[2, 5, 2]	9	FR1	6	R1230J
3318.573	2.084	3325299	PROB	2.084	n/a	n/a	-999	23	[2, 5, 2]	9	FR1	6	R1230J
3320.657	2.201	3327383	PROB	2.201	n/a	n/a	-999	23	[3, 7, 8]	18	FR1	6	R1230J
3322.858	3.104	3329584	PROB	3.104	n/a	n/a	-999	23	[2, 9, 3]	14	FR1	6	R1230J
3325.962	0.013	3332688	STOP	n/a	n/a	n/a	-999	23	[-999, -999, -999]	n/a	FR1	6	R1230J
3325.975	0.55	3332701	DISTRACT_END	n/a	n/a	n/a	-999	23	[0, 0, 0]	n/a	FR1	6	R1230J
3326.525	0.52	3333251	RETRIEVAL_ORIENT	n/a	n/a	n/a	-999	23	[0, 0, 0]	n/a	FR1	6	R1230J
3327.045	5.002	3333771	REC_START	n/a	n/a	n/a	-999	23	[0, 0, 0]	n/a	FR1	6	R1230J
3332.047	4.374	3338773	REC_WORD	4.374	n/a	STREET	5	23	[0, 0, 0]	n/a	FR1	6	R1230J
3336.421	3.65	3343147	REC_WORD	3.65	n/a	LAMP	4	23	[0, 0, 0]	n/a	FR1	6	R1230J
3340.071	1.977	3346797	REC_WORD	1.977	n/a	MAP	-999	23	[0, 0, 0]	n/a	FR1	6	R1230J
3342.048	15.007	3348774	REC_WORD_VV	15.007	n/a	<>	-999	23	[0, 0, 0]	n/a	FR1	6	R1230J
3357.055	4.425	3363782	REC_END	n/a	n/a	n/a	-999	23	[0, 0, 0]	n/a	FR1	6	R1230J
3361.48	0.5	3368207	TRIAL	n/a	n/a	n/a	-999	24	[0, 0, 0]	n/a	FR1	6	R1230J
3361.98	10.428	3368707	COUNTDOWN_START	n/a	n/a	n/a	-999	24	[0, 0, 0]	n/a	FR1	6	R1230J
3372.408	0.006	3379135	COUNTDOWN_END	n/a	n/a	n/a	-999	24	[0, 0, 0]	n/a	FR1	6	R1230J
3372.414	1.617	3379141	ORIENT	n/a	n/a	n/a	-999	24	[0, 0, 0]	n/a	FR1	6	R1230J
3374.031	2.284	3380758	ORIENT_OFF	n/a	n/a	n/a	-999	24	[0, 0, 0]	n/a	FR1	6	R1230J
3376.315	1.617	3383042	WORD	n/a	wordpools/wordpool_EN.txt	POND	1	24	[0, 0, 0]	n/a	FR1	6	R1230J
3377.932	0.866	3384659	WORD_OFF	n/a	n/a	POND	1	24	[0, 0, 0]	n/a	FR1	6	R1230J
3378.798	1.618	3385525	WORD	n/a	wordpools/wordpool_EN.txt	MOON	2	24	[0, 0, 0]	n/a	FR1	6	R1230J
3380.416	0.8	3387143	WORD_OFF	n/a	n/a	MOON	2	24	[0, 0, 0]	n/a	FR1	6	R1230J
3381.216	1.616	3387943	WORD	n/a	wordpools/wordpool_EN.txt	SHRIMP	3	24	[0, 0, 0]	n/a	FR1	6	R1230J
3382.832	0.95	3389559	WORD_OFF	n/a	n/a	SHRIMP	3	24	[0, 0, 0]	n/a	FR1	6	R1230J
3383.782	1.617	3390509	WORD	n/a	wordpools/wordpool_EN.txt	FROG	4	24	[0, 0, 0]	n/a	FR1	6	R1230J
3385.399	0.9	3392126	WORD_OFF	n/a	n/a	FROG	4	24	[0, 0, 0]	n/a	FR1	6	R1230J
3386.299	1.617	3393026	WORD	n/a	wordpools/wordpool_EN.txt	DEER	5	24	[0, 0, 0]	n/a	FR1	6	R1230J
3387.916	0.984	3394643	WORD_OFF	n/a	n/a	DEER	5	24	[0, 0, 0]	n/a	FR1	6	R1230J
3388.9	1.617	3395627	WORD	n/a	wordpools/wordpool_EN.txt	PIPE	6	24	[0, 0, 0]	n/a	FR1	6	R1230J
3390.517	0.8	3397244	WORD_OFF	n/a	n/a	PIPE	6	24	[0, 0, 0]	n/a	FR1	6	R1230J
3391.317	1.616	3398044	WORD	n/a	wordpools/wordpool_EN.txt	JET	7	24	[0, 0, 0]	n/a	FR1	6	R1230J
3392.933	0.934	3399660	WORD_OFF	n/a	n/a	JET	7	24	[0, 0, 0]	n/a	FR1	6	R1230J
3393.867	1.617	3400594	WORD	n/a	wordpools/wordpool_EN.txt	SKY	8	24	[0, 0, 0]	n/a	FR1	6	R1230J
3395.484	0.767	3402211	WORD_OFF	n/a	n/a	SKY	8	24	[0, 0, 0]	n/a	FR1	6	R1230J
3396.251	1.617	3402978	WORD	n/a	wordpools/wordpool_EN.txt	GLASS	9	24	[0, 0, 0]	n/a	FR1	6	R1230J
3397.868	1.016	3404595	WORD_OFF	n/a	n/a	GLASS	9	24	[0, 0, 0]	n/a	FR1	6	R1230J
3398.884	1.617	3405611	WORD	n/a	wordpools/wordpool_EN.txt	TANK	10	24	[0, 0, 0]	n/a	FR1	6	R1230J
3400.501	0.934	3407228	WORD_OFF	n/a	n/a	TANK	10	24	[0, 0, 0]	n/a	FR1	6	R1230J
3401.435	1.616	3408162	WORD	n/a	wordpools/wordpool_EN.txt	FISH	11	24	[0, 0, 0]	n/a	FR1	6	R1230J
3403.051	0.85	3409778	WORD_OFF	n/a	n/a	FISH	11	24	[0, 0, 0]	n/a	FR1	6	R1230J
3403.901	1.618	3410628	WORD	n/a	wordpools/wordpool_EN.txt	SPONGE	12	24	[0, 0, 0]	n/a	FR1	6	R1230J
3405.519	0.0	3412246	WORD_OFF	n/a	n/a	SPONGE	12	24	[0, 0, 0]	n/a	FR1	6	R1230J
3405.519	0.0	3412246	DISTRACT_START	n/a	n/a	n/a	-999	24	[0, 0, 0]	n/a	FR1	6	R1230J
3405.519	0.016	3412246	START	n/a	n/a	n/a	-999	24	[-999, -999, -999]	n/a	FR1	6	R1230J
3405.535	3.451	3412262	PROB	3.451	n/a	n/a	-999	24	[9, 4, 4]	17	FR1	6	R1230J
3408.986	3.134	3415713	PROB	3.134	n/a	n/a	-999	24	[9, 2, 1]	12	FR1	6	R1230J
3412.12	2.482	3418847	PROB	2.482	n/a	n/a	-999	24	[1, 5, 8]	14	FR1	6	R1230J
3414.602	2.785	3421329	PROB	2.785	n/a	n/a	-999	24	[7, 1, 3]	11	FR1	6	R1230J
3417.387	2.05	3424114	PROB	2.05	n/a	n/a	-999	24	[3, 7, 5]	15	FR1	6	R1230J
3419.437	3.767	3426164	PROB	3.767	n/a	n/a	-999	24	[6, 9, 8]	17	FR1	6	R1230J
3423.204	2.481	3429931	PROB	2.481	n/a	n/a	-999	24	[4, 9, 4]	17	FR1	6	R1230J
3425.685	0.019	3432412	STOP	n/a	n/a	n/a	-999	24	[-999, -999, -999]	n/a	FR1	6	R1230J
3425.704	0.617	3432431	DISTRACT_END	n/a	n/a	n/a	-999	24	[0, 0, 0]	n/a	FR1	6	R1230J
3426.321	0.518	3433048	RETRIEVAL_ORIENT	n/a	n/a	n/a	-999	24	[0, 0, 0]	n/a	FR1	6	R1230J
3426.839	0.454	3433566	REC_START	n/a	n/a	n/a	-999	24	[0, 0, 0]	n/a	FR1	6	R1230J
3427.293	4.536	3434020	REC_WORD	4.536	n/a	MAP	-999	24	[0, 0, 0]	n/a	FR1	6	R1230J
3431.829	1.774	3438556	REC_WORD	1.774	n/a	POND	1	24	[0, 0, 0]	n/a	FR1	6	R1230J
3433.603	2.201	3440330	REC_WORD	2.201	n/a	SHRIMP	3	24	[0, 0, 0]	n/a	FR1	6	R1230J
3435.804	21.048	3442531	REC_WORD	21.048	n/a	FIELD	-999	24	[0, 0, 0]	n/a	FR1	6	R1230J
3456.852	5.274	3463579	REC_END	n/a	n/a	n/a	-999	24	[0, 0, 0]	n/a	FR1	6	R1230J
3462.126	0.5	3468853	TRIAL	n/a	n/a	n/a	-999	25	[0, 0, 0]	n/a	FR1	6	R1230J
3462.626	10.428	3469353	COUNTDOWN_START	n/a	n/a	n/a	-999	25	[0, 0, 0]	n/a	FR1	6	R1230J
3473.054	0.006	3479781	COUNTDOWN_END	n/a	n/a	n/a	-999	25	[0, 0, 0]	n/a	FR1	6	R1230J
3473.06	1.616	3479787	ORIENT	n/a	n/a	n/a	-999	25	[0, 0, 0]	n/a	FR1	6	R1230J
3474.676	2.302	3481403	ORIENT_OFF	n/a	n/a	n/a	-999	25	[0, 0, 0]	n/a	FR1	6	R1230J
3476.978	1.616	3483705	WORD	n/a	wordpools/wordpool_EN.txt	SALT	1	25	[0, 0, 0]	n/a	FR1	6	R1230J
3478.594	0.917	3485321	WORD_OFF	n/a	n/a	SALT	1	25	[0, 0, 0]	n/a	FR1	6	R1230J
3479.511	1.617	3486238	WORD	n/a	wordpools/wordpool_EN.txt	HEART	2	25	[0, 0, 0]	n/a	FR1	6	R1230J
3481.128	0.967	3487855	WORD_OFF	n/a	n/a	HEART	2	25	[0, 0, 0]	n/a	FR1	6	R1230J
3482.095	1.616	3488822	WORD	n/a	wordpools/wordpool_EN.txt	HOOF	3	25	[0, 0, 0]	n/a	FR1	6	R1230J
3483.711	0.801	3490438	WORD_OFF	n/a	n/a	HOOF	3	25	[0, 0, 0]	n/a	FR1	6	R1230J
3484.512	1.617	3491239	WORD	n/a	wordpools/wordpool_EN.txt	SHIP	4	25	[0, 0, 0]	n/a	FR1	6	R1230J
3486.129	0.9	3492856	WORD_OFF	n/a	n/a	SHIP	4	25	[0, 0, 0]	n/a	FR1	6	R1230J
3487.029	1.616	3493756	WORD	n/a	wordpools/wordpool_EN.txt	SEA	5	25	[0, 0, 0]	n/a	FR1	6	R1230J
3488.645	0.901	3495372	WORD_OFF	n/a	n/a	SEA	5	25	[0, 0, 0]	n/a	FR1	6	R1230J
3489.546	1.617	3496273	WORD	n/a	wordpools/wordpool_EN.txt	TRAIN	6	25	[0, 0, 0]	n/a	FR1	6	R1230J
3491.163	0.8	3497890	WORD_OFF	n/a	n/a	TRAIN	6	25	[0, 0, 0]	n/a	FR1	6	R1230J
3491.963	1.616	3498690	WORD	n/a	wordpools/wordpool_EN.txt	BED	7	25	[0, 0, 0]	n/a	FR1	6	R1230J
3493.579	0.918	3500306	WORD_OFF	n/a	n/a	BED	7	25	[0, 0, 0]	n/a	FR1	6	R1230J
3494.497	1.616	3501224	WORD	n/a	wordpools/wordpool_EN.txt	EGG	8	25	[0, 0, 0]	n/a	FR1	6	R1230J
3496.113	1.001	3502840	WORD_OFF	n/a	n/a	EGG	8	25	[0, 0, 0]	n/a	FR1	6	R1230J
3497.114	1.616	3503841	WORD	n/a	wordpools/wordpool_EN.txt	PEARL	9	25	[0, 0, 0]	n/a	FR1	6	R1230J
3498.73	0.801	3505457	WORD_OFF	n/a	n/a	PEARL	9	25	[0, 0, 0]	n/a	FR1	6	R1230J
3499.531	1.617	3506258	WORD	n/a	wordpools/wordpool_EN.txt	MAIL	10	25	[0, 0, 0]	n/a	FR1	6	R1230J
3501.148	0.85	3507875	WORD_OFF	n/a	n/a	MAIL	10	25	[0, 0, 0]	n/a	FR1	6	R1230J
3501.998	1.615	3508725	WORD	n/a	wordpools/wordpool_EN.txt	BEACH	11	25	[0, 0, 0]	n/a	FR1	6	R1230J
3503.613	0.851	3510340	WORD_OFF	n/a	n/a	BEACH	11	25	[0, 0, 0]	n/a	FR1	6	R1230J
