onset	duration	sample	trial_type	response_time	stim_file	item_name	serialpos	list	test	answer	experiment	session	subject
0.0	0.0	54167	INSTRUCT_START	n/a	n/a	n/a	-999	-999	[0, 0, 0]	n/a	FR1	1	R1151E
0.0	10.911	54167	INSTRUCT_END	n/a	n/a	n/a	-999	-999	[0, 0, 0]	n/a	FR1	1	R1151E
10.911	0.0	65078	SESS_START	n/a	n/a	n/a	-999	-999	[0, 0, 0]	n/a	FR1	1	R1151E
10.911	38.501	65078	MIC_TEST	n/a	n/a	n/a	-999	-999	[0, 0, 0]	n/a	FR1	1	R1151E
49.412	8.831	103577	PRACTICE_TRIAL	n/a	n/a	n/a	-999	-1	[0, 0, 0]	n/a	FR1	1	R1151E
58.243	10.428	112408	COUNTDOWN_START	n/a	n/a	n/a	-999	-1	[0, 0, 0]	n/a	FR1	1	R1151E
68.671	0.007	122836	COUNTDOWN_END	n/a	n/a	n/a	-999	-1	[0, 0, 0]	n/a	FR1	1	R1151E
68.678	1.617	122843	PRACTICE_ORIENT	n/a	n/a	n/a	-999	-1	[0, 0, 0]	n/a	FR1	1	R1151E
70.295	1.967	124460	PRACTICE_ORIENT_OFF	n/a	n/a	n/a	-999	-1	[0, 0, 0]	n/a	FR1	1	R1151E
72.262	1.617	126427	PRACTICE_WORD	n/a	n/a	RHINO	1	-1	[0, 0, 0]	n/a	FR1	1	R1151E
73.879	0.867	128043	PRACTICE_WORD_OFF	n/a	n/a	RHINO	-999	-1	[0, 0, 0]	n/a	FR1	1	R1151E
74.746	1.617	128910	PRACTICE_WORD	n/a	n/a	BEAM	2	-1	[0, 0, 0]	n/a	FR1	1	R1151E
76.363	0.783	130527	PRACTICE_WORD_OFF	n/a	n/a	BEAM	-999	-1	[0, 0, 0]	n/a	FR1	1	R1151E
77.146	1.617	131310	PRACTICE_WORD	n/a	n/a	TONGUE	3	-1	[0, 0, 0]	n/a	FR1	1	R1151E
78.763	0.817	132927	PRACTICE_WORD_OFF	n/a	n/a	TONGUE	-999	-1	[0, 0, 0]	n/a	FR1	1	R1151E
79.58	1.617	133744	PRACTICE_WORD	n/a	n/a	FLOOD	4	-1	[0, 0, 0]	n/a	FR1	1	R1151E
81.197	0.9	135361	PRACTICE_WORD_OFF	n/a	n/a	FLOOD	-999	-1	[0, 0, 0]	n/a	FR1	1	R1151E
82.097	1.617	136261	PRACTICE_WORD	n/a	n/a	RING	5	-1	[0, 0, 0]	n/a	FR1	1	R1151E
83.714	0.95	137878	PRACTICE_WORD_OFF	n/a	n/a	RING	-999	-1	[0, 0, 0]	n/a	FR1	1	R1151E
84.664	1.617	138828	PRACTICE_WORD	n/a	n/a	CAMEL	6	-1	[0, 0, 0]	n/a	FR1	1	R1151E
86.281	0.95	140445	PRACTICE_WORD_OFF	n/a	n/a	CAMEL	-999	-1	[0, 0, 0]	n/a	FR1	1	R1151E
87.231	1.617	141395	PRACTICE_WORD	n/a	n/a	IRON	7	-1	[0, 0, 0]	n/a	FR1	1	R1151E
88.848	0.867	143012	PRACTICE_WORD_OFF	n/a	n/a	IRON	-999	-1	[0, 0, 0]	n/a	FR1	1	R1151E
89.715	1.617	143879	PRACTICE_WORD	n/a	n/a	ATTIC	8	-1	[0, 0, 0]	n/a	FR1	1	R1151E
91.332	0.9	145496	PRACTICE_WORD_OFF	n/a	n/a	ATTIC	-999	-1	[0, 0, 0]	n/a	FR1	1	R1151E
92.232	1.617	146396	PRACTICE_WORD	n/a	n/a	WAGON	9	-1	[0, 0, 0]	n/a	FR1	1	R1151E
93.849	0.884	148013	PRACTICE_WORD_OFF	n/a	n/a	WAGON	-999	-1	[0, 0, 0]	n/a	FR1	1	R1151E
94.733	1.617	148897	PRACTICE_WORD	n/a	n/a	COTTON	10	-1	[0, 0, 0]	n/a	FR1	1	R1151E
96.35	0.833	150514	PRACTICE_WORD_OFF	n/a	n/a	COTTON	-999	-1	[0, 0, 0]	n/a	FR1	1	R1151E
97.183	1.617	151347	PRACTICE_WORD	n/a	n/a	CHEST	11	-1	[0, 0, 0]	n/a	FR1	1	R1151E
98.8	0.9	152963	PRACTICE_WORD_OFF	n/a	n/a	CHEST	-999	-1	[0, 0, 0]	n/a	FR1	1	R1151E
99.7	1.617	153863	PRACTICE_WORD	n/a	n/a	WATCH	12	-1	[0, 0, 0]	n/a	FR1	1	R1151E
101.317	0.0	155480	PRACTICE_WORD_OFF	n/a	n/a	WATCH	-999	-1	[0, 0, 0]	n/a	FR1	1	R1151E
101.317	0.001	155480	DISTRACT_START	n/a	n/a	n/a	-999	-1	[0, 0, 0]	n/a	FR1	1	R1151E
101.318	0.016	155481	START	n/a	n/a	n/a	-999	-1	[-999, -999, -999]	n/a	FR1	1	R1151E
101.334	5.001	155497	PROB	5.001	n/a	n/a	-999	-1	[8, 2, 2]	12	FR1	1	R1151E
106.335	5.934	160498	PROB	5.934	n/a	n/a	-999	-1	[8, 6, 7]	21	FR1	1	R1151E
112.269	3.151	166432	PROB	3.151	n/a	n/a	-999	-1	[1, 8, 4]	13	FR1	1	R1151E
115.42	4.384	169583	PROB	4.384	n/a	n/a	-999	-1	[3, 6, 1]	10	FR1	1	R1151E
119.804	3.065	173967	PROB	3.065	n/a	n/a	-999	-1	[2, 2, 5]	9	FR1	1	R1151E
122.869	0.019	177031	STOP	n/a	n/a	n/a	-999	-1	[-999, -999, -999]	n/a	FR1	1	R1151E
122.888	0.633	177050	DISTRACT_END	n/a	n/a	n/a	-999	-1	[0, 0, 0]	n/a	FR1	1	R1151E
123.521	0.518	177683	RETRIEVAL_ORIENT	n/a	n/a	n/a	-999	-1	[0, 0, 0]	n/a	FR1	1	R1151E
124.039	30.009	178201	PRACTICE_REC_START	n/a	n/a	n/a	-999	-1	[0, 0, 0]	n/a	FR1	1	R1151E
154.048	26.466	208209	PRACTICE_REC_END	n/a	n/a	n/a	-999	-1	[0, 0, 0]	n/a	FR1	1	R1151E
180.514	0.5	234674	TRIAL	n/a	n/a	n/a	-999	1	[0, 0, 0]	n/a	FR1	1	R1151E
181.014	10.428	235174	COUNTDOWN_START	n/a	n/a	n/a	-999	1	[0, 0, 0]	n/a	FR1	1	R1151E
191.442	0.009	245602	COUNTDOWN_END	n/a	n/a	n/a	-999	1	[0, 0, 0]	n/a	FR1	1	R1151E
191.451	1.616	245611	ORIENT	n/a	n/a	n/a	-999	1	[0, 0, 0]	n/a	FR1	1	R1151E
193.067	2.183	247227	ORIENT_OFF	n/a	n/a	n/a	-999	1	[0, 0, 0]	n/a	FR1	1	R1151E
195.25	1.617	249410	WORD	n/a	wordpools/wordpool_EN.txt	GOAT	1	1	[0, 0, 0]	n/a	FR1	1	R1151E
196.867	0.817	251027	WORD_OFF	n/a	n/a	GOAT	1	1	[0, 0, 0]	n/a	FR1	1	R1151E
197.684	1.617	251843	WORD	n/a	wordpools/wordpool_EN.txt	BOOT	2	1	[0, 0, 0]	n/a	FR1	1	R1151E
199.301	0.833	253460	WORD_OFF	n/a	n/a	BOOT	2	1	[0, 0, 0]	n/a	FR1	1	R1151E
200.134	1.618	254293	WORD	n/a	wordpools/wordpool_EN.txt	CART	3	1	[0, 0, 0]	n/a	FR1	1	R1151E
201.752	0.9	255911	WORD_OFF	n/a	n/a	CART	3	1	[0, 0, 0]	n/a	FR1	1	R1151E
202.652	1.617	256811	WORD	n/a	wordpools/wordpool_EN.txt	PIE	4	1	[0, 0, 0]	n/a	FR1	1	R1151E
204.269	0.883	258428	WORD_OFF	n/a	n/a	PIE	4	1	[0, 0, 0]	n/a	FR1	1	R1151E
205.152	1.617	259311	WORD	n/a	wordpools/wordpool_EN.txt	ROCK	5	1	[0, 0, 0]	n/a	FR1	1	R1151E
206.769	0.883	260928	WORD_OFF	n/a	n/a	ROCK	5	1	[0, 0, 0]	n/a	FR1	1	R1151E
207.652	1.617	261811	WORD	n/a	wordpools/wordpool_EN.txt	HAND	6	1	[0, 0, 0]	n/a	FR1	1	R1151E
209.269	0.834	263428	WORD_OFF	n/a	n/a	HAND	6	1	[0, 0, 0]	n/a	FR1	1	R1151E
210.103	1.617	264262	WORD	n/a	wordpools/wordpool_EN.txt	PEACH	7	1	[0, 0, 0]	n/a	FR1	1	R1151E
211.72	0.816	265879	WORD_OFF	n/a	n/a	PEACH	7	1	[0, 0, 0]	n/a	FR1	1	R1151E
212.536	1.618	266695	WORD	n/a	wordpools/wordpool_EN.txt	BEAK	8	1	[0, 0, 0]	n/a	FR1	1	R1151E
214.154	0.866	268313	WORD_OFF	n/a	n/a	BEAK	8	1	[0, 0, 0]	n/a	FR1	1	R1151E
215.02	1.617	269179	WORD	n/a	wordpools/wordpool_EN.txt	CRANE	9	1	[0, 0, 0]	n/a	FR1	1	R1151E
216.637	0.934	270796	WORD_OFF	n/a	n/a	CRANE	9	1	[0, 0, 0]	n/a	FR1	1	R1151E
217.571	1.617	271730	WORD	n/a	wordpools/wordpool_EN.txt	TIE	10	1	[0, 0, 0]	n/a	FR1	1	R1151E
219.188	0.867	273347	WORD_OFF	n/a	n/a	TIE	10	1	[0, 0, 0]	n/a	FR1	1	R1151E
220.055	1.617	274214	WORD	n/a	wordpools/wordpool_EN.txt	MUD	11	1	[0, 0, 0]	n/a	FR1	1	R1151E
221.672	0.8	275831	WORD_OFF	n/a	n/a	MUD	11	1	[0, 0, 0]	n/a	FR1	1	R1151E
222.472	1.617	276630	WORD	n/a	wordpools/wordpool_EN.txt	VASE	12	1	[0, 0, 0]	n/a	FR1	1	R1151E
224.089	0.0	278247	WORD_OFF	n/a	n/a	VASE	12	1	[0, 0, 0]	n/a	FR1	1	R1151E
224.089	0.0	278247	DISTRACT_START	n/a	n/a	n/a	-999	1	[0, 0, 0]	n/a	FR1	1	R1151E
224.089	0.016	278247	START	n/a	n/a	n/a	-999	1	[-999, -999, -999]	n/a	FR1	1	R1151E
224.105	6.535	278263	PROB	6.535	n/a	n/a	-999	1	[5, 2, 8]	15	FR1	1	R1151E
230.64	4.818	284798	PROB	4.818	n/a	n/a	-999	1	[7, 9, 4]	20	FR1	1	R1151E
235.458	5.367	289616	PROB	5.367	n/a	n/a	-999	1	[8, 6, 8]	22	FR1	1	R1151E
240.825	6.783	294983	PROB	6.783	n/a	n/a	-999	1	[4, 4, 8]	16	FR1	1	R1151E
247.608	0.018	301765	STOP	n/a	n/a	n/a	-999	1	[-999, -999, -999]	n/a	FR1	1	R1151E
247.626	0.717	301783	DISTRACT_END	n/a	n/a	n/a	-999	1	[0, 0, 0]	n/a	FR1	1	R1151E
248.343	0.517	302500	RETRIEVAL_ORIENT	n/a	n/a	n/a	-999	1	[0, 0, 0]	n/a	FR1	1	R1151E
248.86	9.462	303017	REC_START	n/a	n/a	n/a	-999	1	[0, 0, 0]	n/a	FR1	1	R1151E
258.322	0.642	312479	REC_WORD	0.642	n/a	BEAK	8	1	[0, 0, 0]	n/a	FR1	1	R1151E
258.964	2.673	313121	REC_WORD	2.673	n/a	CRANE	9	1	[0, 0, 0]	n/a	FR1	1	R1151E
261.637	15.545	315794	REC_WORD_VV	15.545	n/a	<>	-999	1	[0, 0, 0]	n/a	FR1	1	R1151E
277.182	1.687	331338	REC_WORD	1.687	n/a	BOOT	2	1	[0, 0, 0]	n/a	FR1	1	R1151E
278.869	7.88	333025	REC_END	n/a	n/a	n/a	-999	1	[0, 0, 0]	n/a	FR1	1	R1151E
286.749	0.5	340905	TRIAL	n/a	n/a	n/a	-999	2	[0, 0, 0]	n/a	FR1	1	R1151E
287.249	10.428	341405	COUNTDOWN_START	n/a	n/a	n/a	-999	2	[0, 0, 0]	n/a	FR1	1	R1151E
297.677	0.008	351832	COUNTDOWN_END	n/a	n/a	n/a	-999	2	[0, 0, 0]	n/a	FR1	1	R1151E
297.685	1.617	351840	ORIENT	n/a	n/a	n/a	-999	2	[0, 0, 0]	n/a	FR1	1	R1151E
299.302	2.168	353457	ORIENT_OFF	n/a	n/a	n/a	-999	2	[0, 0, 0]	n/a	FR1	1	R1151E
301.47	1.616	355625	WORD	n/a	wordpools/wordpool_EN.txt	STRING	1	2	[0, 0, 0]	n/a	FR1	1	R1151E
303.086	1.0	357241	WORD_OFF	n/a	n/a	STRING	1	2	[0, 0, 0]	n/a	FR1	1	R1151E
304.086	1.617	358241	WORD	n/a	wordpools/wordpool_EN.txt	SHARK	2	2	[0, 0, 0]	n/a	FR1	1	R1151E
305.703	0.9	359858	WORD_OFF	n/a	n/a	SHARK	2	2	[0, 0, 0]	n/a	FR1	1	R1151E
306.603	1.617	360758	WORD	n/a	wordpools/wordpool_EN.txt	STORE	3	2	[0, 0, 0]	n/a	FR1	1	R1151E
308.22	0.884	362375	WORD_OFF	n/a	n/a	STORE	3	2	[0, 0, 0]	n/a	FR1	1	R1151E
309.104	1.616	363259	WORD	n/a	wordpools/wordpool_EN.txt	DRUM	4	2	[0, 0, 0]	n/a	FR1	1	R1151E
310.72	0.934	364875	WORD_OFF	n/a	n/a	DRUM	4	2	[0, 0, 0]	n/a	FR1	1	R1151E
311.654	1.617	365809	WORD	n/a	wordpools/wordpool_EN.txt	SIGN	5	2	[0, 0, 0]	n/a	FR1	1	R1151E
313.271	0.85	367426	WORD_OFF	n/a	n/a	SIGN	5	2	[0, 0, 0]	n/a	FR1	1	R1151E
314.121	1.617	368276	WORD	n/a	wordpools/wordpool_EN.txt	BALL	6	2	[0, 0, 0]	n/a	FR1	1	R1151E
315.738	0.867	369893	WORD_OFF	n/a	n/a	BALL	6	2	[0, 0, 0]	n/a	FR1	1	R1151E
316.605	1.617	370760	WORD	n/a	wordpools/wordpool_EN.txt	SNOW	7	2	[0, 0, 0]	n/a	FR1	1	R1151E
318.222	0.8	372377	WORD_OFF	n/a	n/a	SNOW	7	2	[0, 0, 0]	n/a	FR1	1	R1151E
319.022	1.617	373177	WORD	n/a	wordpools/wordpool_EN.txt	WING	8	2	[0, 0, 0]	n/a	FR1	1	R1151E
320.639	0.767	374794	WORD_OFF	n/a	n/a	WING	8	2	[0, 0, 0]	n/a	FR1	1	R1151E
321.406	1.617	375561	WORD	n/a	wordpools/wordpool_EN.txt	PIPE	9	2	[0, 0, 0]	n/a	FR1	1	R1151E
323.023	0.983	377177	WORD_OFF	n/a	n/a	PIPE	9	2	[0, 0, 0]	n/a	FR1	1	R1151E
324.006	1.617	378160	WORD	n/a	wordpools/wordpool_EN.txt	SWAMP	10	2	[0, 0, 0]	n/a	FR1	1	R1151E
325.623	0.917	379777	WORD_OFF	n/a	n/a	SWAMP	10	2	[0, 0, 0]	n/a	FR1	1	R1151E
326.54	1.617	380694	WORD	n/a	wordpools/wordpool_EN.txt	STICK	11	2	[0, 0, 0]	n/a	FR1	1	R1151E
328.157	0.85	382311	WORD_OFF	n/a	n/a	STICK	11	2	[0, 0, 0]	n/a	FR1	1	R1151E
329.007	1.617	383161	WORD	n/a	wordpools/wordpool_EN.txt	MULE	12	2	[0, 0, 0]	n/a	FR1	1	R1151E
330.624	0.0	384778	WORD_OFF	n/a	n/a	MULE	12	2	[0, 0, 0]	n/a	FR1	1	R1151E
330.624	0.001	384778	DISTRACT_START	n/a	n/a	n/a	-999	2	[0, 0, 0]	n/a	FR1	1	R1151E
330.625	0.016	384779	START	n/a	n/a	n/a	-999	2	[-999, -999, -999]	n/a	FR1	1	R1151E
330.641	8.001	384795	PROB	8.001	n/a	n/a	-999	2	[4, 9, 5]	18	FR1	1	R1151E
338.642	3.701	392796	PROB	3.701	n/a	n/a	-999	2	[5, 6, 6]	17	FR1	1	R1151E
342.343	5.617	396497	PROB	5.617	n/a	n/a	-999	2	[6, 9, 1]	16	FR1	1	R1151E
347.96	5.029	402113	PROB	5.029	n/a	n/a	-999	2	[5, 4, 9]	18	FR1	1	R1151E
352.989	0.005	407142	STOP	n/a	n/a	n/a	-999	2	[-999, -999, -999]	n/a	FR1	1	R1151E
352.994	0.617	407147	DISTRACT_END	n/a	n/a	n/a	-999	2	[0, 0, 0]	n/a	FR1	1	R1151E
353.611	0.518	407764	RETRIEVAL_ORIENT	n/a	n/a	n/a	-999	2	[0, 0, 0]	n/a	FR1	1	R1151E
354.129	1.049	408282	REC_START	n/a	n/a	n/a	-999	2	[0, 0, 0]	n/a	FR1	1	R1151E
355.178	0.902	409331	REC_WORD	0.902	n/a	SWAMP	10	2	[0, 0, 0]	n/a	FR1	1	R1151E
356.08	1.576	410233	REC_WORD	1.576	n/a	STICK	11	2	[0, 0, 0]	n/a	FR1	1	R1151E
357.656	16.413	411809	REC_WORD	16.413	n/a	MULE	12	2	[0, 0, 0]	n/a	FR1	1	R1151E
374.069	2.759	428221	REC_WORD	2.759	n/a	SWING	-999	2	[0, 0, 0]	n/a	FR1	1	R1151E
376.828	7.31	430980	REC_WORD	7.31	n/a	STOMP	-999	2	[0, 0, 0]	n/a	FR1	1	R1151E
384.138	16.448	438290	REC_END	n/a	n/a	n/a	-999	2	[0, 0, 0]	n/a	FR1	1	R1151E
400.586	0.5	454737	TRIAL	n/a	n/a	n/a	-999	3	[0, 0, 0]	n/a	FR1	1	R1151E
401.086	10.428	455237	COUNTDOWN_START	n/a	n/a	n/a	-999	3	[0, 0, 0]	n/a	FR1	1	R1151E
411.514	0.007	465665	COUNTDOWN_END	n/a	n/a	n/a	-999	3	[0, 0, 0]	n/a	FR1	1	R1151E
411.521	1.617	465672	ORIENT	n/a	n/a	n/a	-999	3	[0, 0, 0]	n/a	FR1	1	R1151E
413.138	2.117	467289	ORIENT_OFF	n/a	n/a	n/a	-999	3	[0, 0, 0]	n/a	FR1	1	R1151E
415.255	1.617	469406	WORD	n/a	wordpools/wordpool_EN.txt	WAND	1	3	[0, 0, 0]	n/a	FR1	1	R1151E
416.872	0.834	471023	WORD_OFF	n/a	n/a	WAND	1	3	[0, 0, 0]	n/a	FR1	1	R1151E
417.706	1.617	471857	WORD	n/a	wordpools/wordpool_EN.txt	BOX	2	3	[0, 0, 0]	n/a	FR1	1	R1151E
419.323	0.833	473474	WORD_OFF	n/a	n/a	BOX	2	3	[0, 0, 0]	n/a	FR1	1	R1151E
420.156	1.617	474307	WORD	n/a	wordpools/wordpool_EN.txt	TREE	3	3	[0, 0, 0]	n/a	FR1	1	R1151E
421.773	0.8	475924	WORD_OFF	n/a	n/a	TREE	3	3	[0, 0, 0]	n/a	FR1	1	R1151E
422.573	1.617	476723	WORD	n/a	wordpools/wordpool_EN.txt	SEAL	4	3	[0, 0, 0]	n/a	FR1	1	R1151E
424.19	0.884	478340	WORD_OFF	n/a	n/a	SEAL	4	3	[0, 0, 0]	n/a	FR1	1	R1151E
425.074	1.617	479224	WORD	n/a	wordpools/wordpool_EN.txt	ARM	5	3	[0, 0, 0]	n/a	FR1	1	R1151E
426.691	0.85	480841	WORD_OFF	n/a	n/a	ARM	5	3	[0, 0, 0]	n/a	FR1	1	R1151E
427.541	1.617	481691	WORD	n/a	wordpools/wordpool_EN.txt	BARN	6	3	[0, 0, 0]	n/a	FR1	1	R1151E
429.158	0.783	483308	WORD_OFF	n/a	n/a	BARN	6	3	[0, 0, 0]	n/a	FR1	1	R1151E
429.941	1.617	484091	WORD	n/a	wordpools/wordpool_EN.txt	SNAKE	7	3	[0, 0, 0]	n/a	FR1	1	R1151E
431.558	1.0	485708	WORD_OFF	n/a	n/a	SNAKE	7	3	[0, 0, 0]	n/a	FR1	1	R1151E
432.558	1.617	486708	WORD	n/a	wordpools/wordpool_EN.txt	HEART	8	3	[0, 0, 0]	n/a	FR1	1	R1151E
434.175	0.901	488325	WORD_OFF	n/a	n/a	HEART	8	3	[0, 0, 0]	n/a	FR1	1	R1151E
435.076	1.617	489226	WORD	n/a	wordpools/wordpool_EN.txt	LIP	9	3	[0, 0, 0]	n/a	FR1	1	R1151E
436.693	0.9	490843	WORD_OFF	n/a	n/a	LIP	9	3	[0, 0, 0]	n/a	FR1	1	R1151E
437.593	1.617	491743	WORD	n/a	wordpools/wordpool_EN.txt	DEER	10	3	[0, 0, 0]	n/a	FR1	1	R1151E
439.21	0.983	493360	WORD_OFF	n/a	n/a	DEER	10	3	[0, 0, 0]	n/a	FR1	1	R1151E
440.193	1.617	494343	WORD	n/a	wordpools/wordpool_EN.txt	STOVE	11	3	[0, 0, 0]	n/a	FR1	1	R1151E
441.81	0.784	495960	WORD_OFF	n/a	n/a	STOVE	11	3	[0, 0, 0]	n/a	FR1	1	R1151E
442.594	1.617	496744	WORD	n/a	wordpools/wordpool_EN.txt	PLATE	12	3	[0, 0, 0]	n/a	FR1	1	R1151E
444.211	0.0	498361	WORD_OFF	n/a	n/a	PLATE	12	3	[0, 0, 0]	n/a	FR1	1	R1151E
444.211	0.0	498361	DISTRACT_START	n/a	n/a	n/a	-999	3	[0, 0, 0]	n/a	FR1	1	R1151E
444.211	0.016	498361	START	n/a	n/a	n/a	-999	3	[-999, -999, -999]	n/a	FR1	1	R1151E
444.227	4.451	498377	PROB	4.451	n/a	n/a	-999	3	[6, 2, 4]	12	FR1	1	R1151E
448.678	2.801	502827	PROB	2.801	n/a	n/a	-999	3	[2, 9, 1]	12	FR1	1	R1151E
451.479	5.8	505628	PROB	5.8	n/a	n/a	-999	3	[4, 3, 3]	10	FR1	1	R1151E
457.279	3.634	511428	PROB	3.634	n/a	n/a	-999	3	[9, 9, 2]	21	FR1	1	R1151E
460.913	6.554	515062	PROB	6.554	n/a	n/a	-999	3	[9, 7, 2]	18	FR1	1	R1151E
467.467	0.015	521616	STOP	n/a	n/a	n/a	-999	3	[-999, -999, -999]	n/a	FR1	1	R1151E
467.482	0.549	521631	DISTRACT_END	n/a	n/a	n/a	-999	3	[0, 0, 0]	n/a	FR1	1	R1151E
468.031	0.518	522180	RETRIEVAL_ORIENT	n/a	n/a	n/a	-999	3	[0, 0, 0]	n/a	FR1	1	R1151E
468.549	5.851	522698	REC_START	n/a	n/a	n/a	-999	3	[0, 0, 0]	n/a	FR1	1	R1151E
474.4	0.727	528548	REC_WORD	0.727	n/a	WAND	1	3	[0, 0, 0]	n/a	FR1	1	R1151E
475.127	2.635	529275	REC_WORD	2.635	n/a	BOX	2	3	[0, 0, 0]	n/a	FR1	1	R1151E
477.762	6.625	531910	REC_WORD	6.625	n/a	STREAM	-999	3	[0, 0, 0]	n/a	FR1	1	R1151E
484.387	10.218	538535	REC_WORD	10.218	n/a	ARM	5	3	[0, 0, 0]	n/a	FR1	1	R1151E
494.605	3.953	548753	REC_WORD	3.953	n/a	PLATE	12	3	[0, 0, 0]	n/a	FR1	1	R1151E
498.558	6.881	552705	REC_END	n/a	n/a	n/a	-999	3	[0, 0, 0]	n/a	FR1	1	R1151E
505.439	0.5	559586	TRIAL	n/a	n/a	n/a	-999	4	[0, 0, 0]	n/a	FR1	1	R1151E
505.939	10.428	560086	COUNTDOWN_START	n/a	n/a	n/a	-999	4	[0, 0, 0]	n/a	FR1	1	R1151E
516.367	0.006	570514	COUNTDOWN_END	n/a	n/a	n/a	-999	4	[0, 0, 0]	n/a	FR1	1	R1151E
516.373	1.617	570520	ORIENT	n/a	n/a	n/a	-999	4	[0, 0, 0]	n/a	FR1	1	R1151E
517.99	1.884	572137	ORIENT_OFF	n/a	n/a	n/a	-999	4	[0, 0, 0]	n/a	FR1	1	R1151E
519.874	1.617	574021	WORD	n/a	wordpools/wordpool_EN.txt	DOOR	1	4	[0, 0, 0]	n/a	FR1	1	R1151E
521.491	0.968	575638	WORD_OFF	n/a	n/a	DOOR	1	4	[0, 0, 0]	n/a	FR1	1	R1151E
522.459	1.615	576605	WORD	n/a	wordpools/wordpool_EN.txt	ROSE	2	4	[0, 0, 0]	n/a	FR1	1	R1151E
524.074	0.901	578220	WORD_OFF	n/a	n/a	ROSE	2	4	[0, 0, 0]	n/a	FR1	1	R1151E
524.975	1.617	579121	WORD	n/a	wordpools/wordpool_EN.txt	HORN	3	4	[0, 0, 0]	n/a	FR1	1	R1151E
526.592	0.9	580738	WORD_OFF	n/a	n/a	HORN	3	4	[0, 0, 0]	n/a	FR1	1	R1151E
527.492	1.617	581638	WORD	n/a	wordpools/wordpool_EN.txt	OAK	4	4	[0, 0, 0]	n/a	FR1	1	R1151E
529.109	0.883	583255	WORD_OFF	n/a	n/a	OAK	4	4	[0, 0, 0]	n/a	FR1	1	R1151E
529.992	1.617	584138	WORD	n/a	wordpools/wordpool_EN.txt	WALL	5	4	[0, 0, 0]	n/a	FR1	1	R1151E
531.609	0.868	585755	WORD_OFF	n/a	n/a	WALL	5	4	[0, 0, 0]	n/a	FR1	1	R1151E
532.477	1.616	586623	WORD	n/a	wordpools/wordpool_EN.txt	SLUSH	6	4	[0, 0, 0]	n/a	FR1	1	R1151E
534.093	1.0	588239	WORD_OFF	n/a	n/a	SLUSH	6	4	[0, 0, 0]	n/a	FR1	1	R1151E
535.093	1.617	589239	WORD	n/a	wordpools/wordpool_EN.txt	SAIL	7	4	[0, 0, 0]	n/a	FR1	1	R1151E
536.71	0.85	590856	WORD_OFF	n/a	n/a	SAIL	7	4	[0, 0, 0]	n/a	FR1	1	R1151E
537.56	1.617	591706	WORD	n/a	wordpools/wordpool_EN.txt	PURSE	8	4	[0, 0, 0]	n/a	FR1	1	R1151E
539.177	0.934	593323	WORD_OFF	n/a	n/a	PURSE	8	4	[0, 0, 0]	n/a	FR1	1	R1151E
540.111	1.617	594257	WORD	n/a	wordpools/wordpool_EN.txt	THUMB	9	4	[0, 0, 0]	n/a	FR1	1	R1151E
541.728	0.95	595874	WORD_OFF	n/a	n/a	THUMB	9	4	[0, 0, 0]	n/a	FR1	1	R1151E
542.678	1.617	596824	WORD	n/a	wordpools/wordpool_EN.txt	YARD	10	4	[0, 0, 0]	n/a	FR1	1	R1151E
544.295	0.833	598441	WORD_OFF	n/a	n/a	YARD	10	4	[0, 0, 0]	n/a	FR1	1	R1151E
545.128	1.617	599274	WORD	n/a	wordpools/wordpool_EN.txt	DESK	11	4	[0, 0, 0]	n/a	FR1	1	R1151E
546.745	0.817	600890	WORD_OFF	n/a	n/a	DESK	11	4	[0, 0, 0]	n/a	FR1	1	R1151E
547.562	1.617	601707	WORD	n/a	wordpools/wordpool_EN.txt	BRANCH	12	4	[0, 0, 0]	n/a	FR1	1	R1151E
549.179	0.0	603324	WORD_OFF	n/a	n/a	BRANCH	12	4	[0, 0, 0]	n/a	FR1	1	R1151E
549.179	0.001	603324	DISTRACT_START	n/a	n/a	n/a	-999	4	[0, 0, 0]	n/a	FR1	1	R1151E
549.18	0.016	603325	START	n/a	n/a	n/a	-999	4	[-999, -999, -999]	n/a	FR1	1	R1151E
549.196	7.701	603341	PROB	7.701	n/a	n/a	-999	4	[6, 7, 5]	18	FR1	1	R1151E
556.897	3.751	611042	PROB	3.751	n/a	n/a	-999	4	[1, 7, 8]	16	FR1	1	R1151E
560.648	3.15	614793	PROB	3.15	n/a	n/a	-999	4	[8, 9, 2]	19	FR1	1	R1151E
563.798	5.251	617943	PROB	5.251	n/a	n/a	-999	4	[6, 4, 6]	16	FR1	1	R1151E
569.049	2.865	623194	PROB	2.865	n/a	n/a	-999	4	[5, 6, 2]	13	FR1	1	R1151E
571.914	0.019	626058	STOP	n/a	n/a	n/a	-999	4	[-999, -999, -999]	n/a	FR1	1	R1151E
571.933	0.7	626077	DISTRACT_END	n/a	n/a	n/a	-999	4	[0, 0, 0]	n/a	FR1	1	R1151E
572.633	0.517	626777	RETRIEVAL_ORIENT	n/a	n/a	n/a	-999	4	[0, 0, 0]	n/a	FR1	1	R1151E
573.15	2.665	627294	REC_START	n/a	n/a	n/a	-999	4	[0, 0, 0]	n/a	FR1	1	R1151E
575.815	0.716	629959	REC_WORD	0.716	n/a	DOOR	1	4	[0, 0, 0]	n/a	FR1	1	R1151E
576.531	2.231	630675	REC_WORD	2.231	n/a	ROSE	2	4	[0, 0, 0]	n/a	FR1	1	R1151E
578.762	24.397	632906	REC_WORD	24.397	n/a	SAIL	7	4	[0, 0, 0]	n/a	FR1	1	R1151E
603.159	6.514	657302	REC_END	n/a	n/a	n/a	-999	4	[0, 0, 0]	n/a	FR1	1	R1151E
609.673	0.5	663816	TRIAL	n/a	n/a	n/a	-999	5	[0, 0, 0]	n/a	FR1	1	R1151E
610.173	10.428	664316	COUNTDOWN_START	n/a	n/a	n/a	-999	5	[0, 0, 0]	n/a	FR1	1	R1151E
620.601	0.007	674744	COUNTDOWN_END	n/a	n/a	n/a	-999	5	[0, 0, 0]	n/a	FR1	1	R1151E
620.608	1.617	674751	ORIENT	n/a	n/a	n/a	-999	5	[0, 0, 0]	n/a	FR1	1	R1151E
622.225	2.218	676367	ORIENT_OFF	n/a	n/a	n/a	-999	5	[0, 0, 0]	n/a	FR1	1	R1151E
624.443	1.616	678585	WORD	n/a	wordpools/wordpool_EN.txt	AXE	1	5	[0, 0, 0]	n/a	FR1	1	R1151E
626.059	0.8	680201	WORD_OFF	n/a	n/a	AXE	1	5	[0, 0, 0]	n/a	FR1	1	R1151E
626.859	1.618	681001	WORD	n/a	wordpools/wordpool_EN.txt	OAR	2	5	[0, 0, 0]	n/a	FR1	1	R1151E
628.477	0.882	682619	WORD_OFF	n/a	n/a	OAR	2	5	[0, 0, 0]	n/a	FR1	1	R1151E
629.359	1.618	683501	WORD	n/a	wordpools/wordpool_EN.txt	HOLE	3	5	[0, 0, 0]	n/a	FR1	1	R1151E
630.977	0.966	685119	WORD_OFF	n/a	n/a	HOLE	3	5	[0, 0, 0]	n/a	FR1	1	R1151E
631.943	1.617	686085	WORD	n/a	wordpools/wordpool_EN.txt	BIRD	4	5	[0, 0, 0]	n/a	FR1	1	R1151E
633.56	1.0	687702	WORD_OFF	n/a	n/a	BIRD	4	5	[0, 0, 0]	n/a	FR1	1	R1151E
634.56	1.617	688702	WORD	n/a	wordpools/wordpool_EN.txt	WOOD	5	5	[0, 0, 0]	n/a	FR1	1	R1151E
636.177	0.801	690319	WORD_OFF	n/a	n/a	WOOD	5	5	[0, 0, 0]	n/a	FR1	1	R1151E
636.978	1.617	691120	WORD	n/a	wordpools/wordpool_EN.txt	CAVE	6	5	[0, 0, 0]	n/a	FR1	1	R1151E
638.595	0.983	692737	WORD_OFF	n/a	n/a	CAVE	6	5	[0, 0, 0]	n/a	FR1	1	R1151E
639.578	1.617	693720	WORD	n/a	wordpools/wordpool_EN.txt	SINK	7	5	[0, 0, 0]	n/a	FR1	1	R1151E
641.195	1.0	695337	WORD_OFF	n/a	n/a	SINK	7	5	[0, 0, 0]	n/a	FR1	1	R1151E
642.195	1.617	696337	WORD	n/a	wordpools/wordpool_EN.txt	SMOKE	8	5	[0, 0, 0]	n/a	FR1	1	R1151E
643.812	0.85	697954	WORD_OFF	n/a	n/a	SMOKE	8	5	[0, 0, 0]	n/a	FR1	1	R1151E
644.662	1.617	698804	WORD	n/a	wordpools/wordpool_EN.txt	PIN	9	5	[0, 0, 0]	n/a	FR1	1	R1151E
646.279	0.95	700421	WORD_OFF	n/a	n/a	PIN	9	5	[0, 0, 0]	n/a	FR1	1	R1151E
647.229	1.617	701370	WORD	n/a	wordpools/wordpool_EN.txt	BRUSH	10	5	[0, 0, 0]	n/a	FR1	1	R1151E
648.846	0.9	702987	WORD_OFF	n/a	n/a	BRUSH	10	5	[0, 0, 0]	n/a	FR1	1	R1151E
649.746	1.618	703887	WORD	n/a	wordpools/wordpool_EN.txt	POND	11	5	[0, 0, 0]	n/a	FR1	1	R1151E
651.364	0.766	705505	WORD_OFF	n/a	n/a	POND	11	5	[0, 0, 0]	n/a	FR1	1	R1151E
652.13	1.617	706271	WORD	n/a	wordpools/wordpool_EN.txt	SHIELD	12	5	[0, 0, 0]	n/a	FR1	1	R1151E
653.747	0.0	707888	WORD_OFF	n/a	n/a	SHIELD	12	5	[0, 0, 0]	n/a	FR1	1	R1151E
653.747	0.001	707888	DISTRACT_START	n/a	n/a	n/a	-999	5	[0, 0, 0]	n/a	FR1	1	R1151E
653.748	0.016	707889	START	n/a	n/a	n/a	-999	5	[-999, -999, -999]	n/a	FR1	1	R1151E
653.764	9.118	707905	PROB	9.118	n/a	n/a	-999	5	[6, 9, 4]	21	FR1	1	R1151E
662.882	5.084	717023	PROB	5.084	n/a	n/a	-999	5	[9, 4, 1]	14	FR1	1	R1151E
667.966	3.068	722107	PROB	3.068	n/a	n/a	-999	5	[8, 1, 8]	17	FR1	1	R1151E
671.034	3.419	725175	PROB	3.419	n/a	n/a	-999	5	[8, 5, 7]	20	FR1	1	R1151E
674.453	0.015	728593	STOP	n/a	n/a	n/a	-999	5	[-999, -999, -999]	n/a	FR1	1	R1151E
674.468	0.616	728608	DISTRACT_END	n/a	n/a	n/a	-999	5	[0, 0, 0]	n/a	FR1	1	R1151E
675.084	0.518	729224	RETRIEVAL_ORIENT	n/a	n/a	n/a	-999	5	[0, 0, 0]	n/a	FR1	1	R1151E
675.602	11.416	729742	REC_START	n/a	n/a	n/a	-999	5	[0, 0, 0]	n/a	FR1	1	R1151E
687.018	1.278	741158	REC_WORD	1.278	n/a	OAR	2	5	[0, 0, 0]	n/a	FR1	1	R1151E
688.296	17.316	742436	REC_WORD	17.316	n/a	OAK	-999	5	[0, 0, 0]	n/a	FR1	1	R1151E
705.612	6.863	759751	REC_END	n/a	n/a	n/a	-999	5	[0, 0, 0]	n/a	FR1	1	R1151E
712.475	0.5	766614	TRIAL	n/a	n/a	n/a	-999	6	[0, 0, 0]	n/a	FR1	1	R1151E
712.975	10.428	767114	COUNTDOWN_START	n/a	n/a	n/a	-999	6	[0, 0, 0]	n/a	FR1	1	R1151E
723.403	0.006	777541	COUNTDOWN_END	n/a	n/a	n/a	-999	6	[0, 0, 0]	n/a	FR1	1	R1151E
723.409	1.617	777547	ORIENT	n/a	n/a	n/a	-999	6	[0, 0, 0]	n/a	FR1	1	R1151E
725.026	2.301	779164	ORIENT_OFF	n/a	n/a	n/a	-999	6	[0, 0, 0]	n/a	FR1	1	R1151E
727.327	1.617	781465	WORD	n/a	wordpools/wordpool_EN.txt	DOG	1	6	[0, 0, 0]	n/a	FR1	1	R1151E
728.944	0.983	783082	WORD_OFF	n/a	n/a	DOG	1	6	[0, 0, 0]	n/a	FR1	1	R1151E
729.927	1.617	784065	WORD	n/a	wordpools/wordpool_EN.txt	CLOWN	2	6	[0, 0, 0]	n/a	FR1	1	R1151E
731.544	0.918	785682	WORD_OFF	n/a	n/a	CLOWN	2	6	[0, 0, 0]	n/a	FR1	1	R1151E
732.462	1.616	786600	WORD	n/a	wordpools/wordpool_EN.txt	ROPE	3	6	[0, 0, 0]	n/a	FR1	1	R1151E
734.078	0.983	788216	WORD_OFF	n/a	n/a	ROPE	3	6	[0, 0, 0]	n/a	FR1	1	R1151E
735.061	1.617	789199	WORD	n/a	wordpools/wordpool_EN.txt	FENCE	4	6	[0, 0, 0]	n/a	FR1	1	R1151E
736.678	0.967	790816	WORD_OFF	n/a	n/a	FENCE	4	6	[0, 0, 0]	n/a	FR1	1	R1151E
737.645	1.617	791783	WORD	n/a	wordpools/wordpool_EN.txt	TRAY	5	6	[0, 0, 0]	n/a	FR1	1	R1151E
739.262	0.983	793400	WORD_OFF	n/a	n/a	TRAY	5	6	[0, 0, 0]	n/a	FR1	1	R1151E
740.245	1.618	794383	WORD	n/a	wordpools/wordpool_EN.txt	MAP	6	6	[0, 0, 0]	n/a	FR1	1	R1151E
741.863	0.916	796001	WORD_OFF	n/a	n/a	MAP	6	6	[0, 0, 0]	n/a	FR1	1	R1151E
742.779	1.617	796917	WORD	n/a	wordpools/wordpool_EN.txt	RUG	7	6	[0, 0, 0]	n/a	FR1	1	R1151E
744.396	0.917	798534	WORD_OFF	n/a	n/a	RUG	7	6	[0, 0, 0]	n/a	FR1	1	R1151E
745.313	1.617	799451	WORD	n/a	wordpools/wordpool_EN.txt	RIB	8	6	[0, 0, 0]	n/a	FR1	1	R1151E
746.93	0.784	801067	WORD_OFF	n/a	n/a	RIB	8	6	[0, 0, 0]	n/a	FR1	1	R1151E
747.714	1.617	801851	WORD	n/a	wordpools/wordpool_EN.txt	PIG	9	6	[0, 0, 0]	n/a	FR1	1	R1151E
749.331	0.866	803468	WORD_OFF	n/a	n/a	PIG	9	6	[0, 0, 0]	n/a	FR1	1	R1151E
750.197	1.617	804334	WORD	n/a	wordpools/wordpool_EN.txt	SOCK	10	6	[0, 0, 0]	n/a	FR1	1	R1151E
751.814	0.967	805951	WORD_OFF	n/a	n/a	SOCK	10	6	[0, 0, 0]	n/a	FR1	1	R1151E
752.781	1.617	806918	WORD	n/a	wordpools/wordpool_EN.txt	PIT	11	6	[0, 0, 0]	n/a	FR1	1	R1151E
754.398	1.0	808535	WORD_OFF	n/a	n/a	PIT	11	6	[0, 0, 0]	n/a	FR1	1	R1151E
755.398	1.617	809535	WORD	n/a	wordpools/wordpool_EN.txt	BOAT	12	6	[0, 0, 0]	n/a	FR1	1	R1151E
757.015	0.0	811152	WORD_OFF	n/a	n/a	BOAT	12	6	[0, 0, 0]	n/a	FR1	1	R1151E
757.015	0.001	811152	DISTRACT_START	n/a	n/a	n/a	-999	6	[0, 0, 0]	n/a	FR1	1	R1151E
757.016	0.016	811153	START	n/a	n/a	n/a	-999	6	[-999, -999, -999]	n/a	FR1	1	R1151E
757.032	9.068	811169	PROB	9.068	n/a	n/a	-999	6	[4, 5, 7]	16	FR1	1	R1151E
766.1	4.968	820237	PROB	4.968	n/a	n/a	-999	6	[3, 9, 4]	16	FR1	1	R1151E
771.068	3.167	825204	PROB	3.167	n/a	n/a	-999	6	[2, 5, 7]	14	FR1	1	R1151E
774.235	4.499	828371	PROB	4.499	n/a	n/a	-999	6	[5, 7, 8]	20	FR1	1	R1151E
778.734	0.018	832870	STOP	n/a	n/a	n/a	-999	6	[-999, -999, -999]	n/a	FR1	1	R1151E
778.752	0.6	832888	DISTRACT_END	n/a	n/a	n/a	-999	6	[0, 0, 0]	n/a	FR1	1	R1151E
779.352	0.518	833488	RETRIEVAL_ORIENT	n/a	n/a	n/a	-999	6	[0, 0, 0]	n/a	FR1	1	R1151E
779.87	0.761	834006	REC_START	n/a	n/a	n/a	-999	6	[0, 0, 0]	n/a	FR1	1	R1151E
780.631	0.69	834767	REC_WORD	0.69	n/a	DOG	1	6	[0, 0, 0]	n/a	FR1	1	R1151E
781.321	1.05	835457	REC_WORD	1.05	n/a	CLOWN	2	6	[0, 0, 0]	n/a	FR1	1	R1151E
782.371	0.776	836507	REC_WORD	0.776	n/a	ROPE	3	6	[0, 0, 0]	n/a	FR1	1	R1151E
783.147	1.149	837283	REC_WORD	1.149	n/a	FENCE	4	6	[0, 0, 0]	n/a	FR1	1	R1151E
784.296	4.438	838432	REC_WORD	4.438	n/a	TRAY	5	6	[0, 0, 0]	n/a	FR1	1	R1151E
788.734	21.144	842870	REC_WORD	21.144	n/a	STEEL	-999	6	[0, 0, 0]	n/a	FR1	1	R1151E
809.878	10.882	864013	REC_END	n/a	n/a	n/a	-999	6	[0, 0, 0]	n/a	FR1	1	R1151E
820.76	0.5	874895	TRIAL	n/a	n/a	n/a	-999	7	[0, 0, 0]	n/a	FR1	1	R1151E
821.26	10.428	875394	COUNTDOWN_START	n/a	n/a	n/a	-999	7	[0, 0, 0]	n/a	FR1	1	R1151E
831.688	0.007	885822	COUNTDOWN_END	n/a	n/a	n/a	-999	7	[0, 0, 0]	n/a	FR1	1	R1151E
831.695	1.617	885829	ORIENT	n/a	n/a	n/a	-999	7	[0, 0, 0]	n/a	FR1	1	R1151E
833.312	2.25	887446	ORIENT_OFF	n/a	n/a	n/a	-999	7	[0, 0, 0]	n/a	FR1	1	R1151E
835.562	1.617	889696	WORD	n/a	wordpools/wordpool_EN.txt	OWL	1	7	[0, 0, 0]	n/a	FR1	1	R1151E
837.179	0.967	891313	WORD_OFF	n/a	n/a	OWL	1	7	[0, 0, 0]	n/a	FR1	1	R1151E
838.146	1.617	892280	WORD	n/a	wordpools/wordpool_EN.txt	CANE	2	7	[0, 0, 0]	n/a	FR1	1	R1151E
839.763	0.95	893897	WORD_OFF	n/a	n/a	CANE	2	7	[0, 0, 0]	n/a	FR1	1	R1151E
840.713	1.617	894847	WORD	n/a	wordpools/wordpool_EN.txt	COIN	3	7	[0, 0, 0]	n/a	FR1	1	R1151E
842.33	0.917	896464	WORD_OFF	n/a	n/a	COIN	3	7	[0, 0, 0]	n/a	FR1	1	R1151E
843.247	1.617	897381	WORD	n/a	wordpools/wordpool_EN.txt	BRICK	4	7	[0, 0, 0]	n/a	FR1	1	R1151E
844.864	0.9	898998	WORD_OFF	n/a	n/a	BRICK	4	7	[0, 0, 0]	n/a	FR1	1	R1151E
845.764	1.617	899898	WORD	n/a	wordpools/wordpool_EN.txt	GOLD	5	7	[0, 0, 0]	n/a	FR1	1	R1151E
847.381	0.817	901514	WORD_OFF	n/a	n/a	GOLD	5	7	[0, 0, 0]	n/a	FR1	1	R1151E
848.198	1.617	902331	WORD	n/a	wordpools/wordpool_EN.txt	WORLD	6	7	[0, 0, 0]	n/a	FR1	1	R1151E
849.815	0.983	903948	WORD_OFF	n/a	n/a	WORLD	6	7	[0, 0, 0]	n/a	FR1	1	R1151E
850.798	1.617	904931	WORD	n/a	wordpools/wordpool_EN.txt	BEACH	7	7	[0, 0, 0]	n/a	FR1	1	R1151E
852.415	1.0	906548	WORD_OFF	n/a	n/a	BEACH	7	7	[0, 0, 0]	n/a	FR1	1	R1151E
853.415	1.617	907548	WORD	n/a	wordpools/wordpool_EN.txt	CLOCK	8	7	[0, 0, 0]	n/a	FR1	1	R1151E
855.032	0.984	909165	WORD_OFF	n/a	n/a	CLOCK	8	7	[0, 0, 0]	n/a	FR1	1	R1151E
856.016	1.617	910149	WORD	n/a	wordpools/wordpool_EN.txt	GRAPE	9	7	[0, 0, 0]	n/a	FR1	1	R1151E
857.633	0.783	911766	WORD_OFF	n/a	n/a	GRAPE	9	7	[0, 0, 0]	n/a	FR1	1	R1151E
858.416	1.617	912549	WORD	n/a	wordpools/wordpool_EN.txt	FUR	10	7	[0, 0, 0]	n/a	FR1	1	R1151E
860.033	0.967	914166	WORD_OFF	n/a	n/a	FUR	10	7	[0, 0, 0]	n/a	FR1	1	R1151E
861.0	1.617	915133	WORD	n/a	wordpools/wordpool_EN.txt	LAND	11	7	[0, 0, 0]	n/a	FR1	1	R1151E
862.617	0.818	916750	WORD_OFF	n/a	n/a	LAND	11	7	[0, 0, 0]	n/a	FR1	1	R1151E
863.435	1.616	917568	WORD	n/a	wordpools/wordpool_EN.txt	GLOVE	12	7	[0, 0, 0]	n/a	FR1	1	R1151E
865.051	0.0	919184	WORD_OFF	n/a	n/a	GLOVE	12	7	[0, 0, 0]	n/a	FR1	1	R1151E
865.051	0.001	919184	DISTRACT_START	n/a	n/a	n/a	-999	7	[0, 0, 0]	n/a	FR1	1	R1151E
865.052	0.016	919185	START	n/a	n/a	n/a	-999	7	[-999, -999, -999]	n/a	FR1	1	R1151E
865.068	7.901	919201	PROB	7.901	n/a	n/a	-999	7	[8, 6, 8]	22	FR1	1	R1151E
872.969	10.52	927101	PROB	10.52	n/a	n/a	-999	7	[8, 8, 9]	25	FR1	1	R1151E
883.489	4.31	937621	PROB	4.31	n/a	n/a	-999	7	[1, 6, 5]	12	FR1	1	R1151E
887.799	0.006	941931	STOP	n/a	n/a	n/a	-999	7	[-999, -999, -999]	n/a	FR1	1	R1151E
887.805	0.583	941937	DISTRACT_END	n/a	n/a	n/a	-999	7	[0, 0, 0]	n/a	FR1	1	R1151E
888.388	0.518	942520	RETRIEVAL_ORIENT	n/a	n/a	n/a	-999	7	[0, 0, 0]	n/a	FR1	1	R1151E
888.906	2.38	943038	REC_START	n/a	n/a	n/a	-999	7	[0, 0, 0]	n/a	FR1	1	R1151E
891.286	0.92	945418	REC_WORD	0.92	n/a	OWL	1	7	[0, 0, 0]	n/a	FR1	1	R1151E
892.206	2.335	946338	REC_WORD	2.335	n/a	CANE	2	7	[0, 0, 0]	n/a	FR1	1	R1151E
894.541	1.865	948673	REC_WORD	1.865	n/a	COIN	3	7	[0, 0, 0]	n/a	FR1	1	R1151E
896.406	0.944	950537	REC_WORD	0.944	n/a	BRICK	4	7	[0, 0, 0]	n/a	FR1	1	R1151E
897.35	21.565	951481	REC_WORD	21.565	n/a	GOLD	5	7	[0, 0, 0]	n/a	FR1	1	R1151E
918.915	5.48	973046	REC_END	n/a	n/a	n/a	-999	7	[0, 0, 0]	n/a	FR1	1	R1151E
924.395	0.5	978525	TRIAL	n/a	n/a	n/a	-999	8	[0, 0, 0]	n/a	FR1	1	R1151E
924.895	10.428	979025	COUNTDOWN_START	n/a	n/a	n/a	-999	8	[0, 0, 0]	n/a	FR1	1	R1151E
935.323	0.007	989453	COUNTDOWN_END	n/a	n/a	n/a	-999	8	[0, 0, 0]	n/a	FR1	1	R1151E
935.33	1.617	989460	ORIENT	n/a	n/a	n/a	-999	8	[0, 0, 0]	n/a	FR1	1	R1151E
936.947	2.033	991077	ORIENT_OFF	n/a	n/a	n/a	-999	8	[0, 0, 0]	n/a	FR1	1	R1151E
938.98	1.617	993110	WORD	n/a	wordpools/wordpool_EN.txt	SHIP	1	8	[0, 0, 0]	n/a	FR1	1	R1151E
940.597	0.868	994727	WORD_OFF	n/a	n/a	SHIP	1	8	[0, 0, 0]	n/a	FR1	1	R1151E
941.465	1.616	995595	WORD	n/a	wordpools/wordpool_EN.txt	EAR	2	8	[0, 0, 0]	n/a	FR1	1	R1151E
943.081	0.817	997211	WORD_OFF	n/a	n/a	EAR	2	8	[0, 0, 0]	n/a	FR1	1	R1151E
943.898	1.617	998028	WORD	n/a	wordpools/wordpool_EN.txt	CALF	3	8	[0, 0, 0]	n/a	FR1	1	R1151E
945.515	0.934	999645	WORD_OFF	n/a	n/a	CALF	3	8	[0, 0, 0]	n/a	FR1	1	R1151E
946.449	1.616	1000578	WORD	n/a	wordpools/wordpool_EN.txt	TENT	4	8	[0, 0, 0]	n/a	FR1	1	R1151E
948.065	0.817	1002194	WORD_OFF	n/a	n/a	TENT	4	8	[0, 0, 0]	n/a	FR1	1	R1151E
948.882	1.617	1003011	WORD	n/a	wordpools/wordpool_EN.txt	JAIL	5	8	[0, 0, 0]	n/a	FR1	1	R1151E
950.499	0.951	1004628	WORD_OFF	n/a	n/a	JAIL	5	8	[0, 0, 0]	n/a	FR1	1	R1151E
951.45	1.616	1005579	WORD	n/a	wordpools/wordpool_EN.txt	FOOD	6	8	[0, 0, 0]	n/a	FR1	1	R1151E
953.066	0.95	1007195	WORD_OFF	n/a	n/a	FOOD	6	8	[0, 0, 0]	n/a	FR1	1	R1151E
954.016	1.617	1008145	WORD	n/a	wordpools/wordpool_EN.txt	LAMB	7	8	[0, 0, 0]	n/a	FR1	1	R1151E
955.633	0.784	1009762	WORD_OFF	n/a	n/a	LAMB	7	8	[0, 0, 0]	n/a	FR1	1	R1151E
956.417	1.617	1010546	WORD	n/a	wordpools/wordpool_EN.txt	BLUSH	8	8	[0, 0, 0]	n/a	FR1	1	R1151E
958.034	0.9	1012163	WORD_OFF	n/a	n/a	BLUSH	8	8	[0, 0, 0]	n/a	FR1	1	R1151E
958.934	1.617	1013063	WORD	n/a	wordpools/wordpool_EN.txt	PRINCE	9	8	[0, 0, 0]	n/a	FR1	1	R1151E
960.551	0.85	1014680	WORD_OFF	n/a	n/a	PRINCE	9	8	[0, 0, 0]	n/a	FR1	1	R1151E
961.401	1.617	1015530	WORD	n/a	wordpools/wordpool_EN.txt	VAN	10	8	[0, 0, 0]	n/a	FR1	1	R1151E
963.018	0.884	1017147	WORD_OFF	n/a	n/a	VAN	10	8	[0, 0, 0]	n/a	FR1	1	R1151E
963.902	1.617	1018031	WORD	n/a	wordpools/wordpool_EN.txt	INK	11	8	[0, 0, 0]	n/a	FR1	1	R1151E
965.519	0.934	1019648	WORD_OFF	n/a	n/a	INK	11	8	[0, 0, 0]	n/a	FR1	1	R1151E
966.453	1.616	1020582	WORD	n/a	wordpools/wordpool_EN.txt	HOOK	12	8	[0, 0, 0]	n/a	FR1	1	R1151E
968.069	0.0	1022198	WORD_OFF	n/a	n/a	HOOK	12	8	[0, 0, 0]	n/a	FR1	1	R1151E
968.069	0.001	1022198	DISTRACT_START	n/a	n/a	n/a	-999	8	[0, 0, 0]	n/a	FR1	1	R1151E
968.07	0.016	1022199	START	n/a	n/a	n/a	-999	8	[-999, -999, -999]	n/a	FR1	1	R1151E
968.086	6.584	1022215	PROB	6.584	n/a	n/a	-999	8	[2, 7, 6]	15	FR1	1	R1151E
974.67	3.567	1028798	PROB	3.567	n/a	n/a	-999	8	[3, 4, 2]	9	FR1	1	R1151E
978.237	3.918	1032365	PROB	3.918	n/a	n/a	-999	8	[5, 1, 6]	12	FR1	1	R1151E
982.155	5.151	1036283	PROB	5.151	n/a	n/a	-999	8	[6, 2, 5]	12	FR1	1	R1151E
987.306	4.607	1041434	PROB	4.607	n/a	n/a	-999	8	[8, 8, 1]	17	FR1	1	R1151E
991.913	0.01	1046041	STOP	n/a	n/a	n/a	-999	8	[-999, -999, -999]	n/a	FR1	1	R1151E
991.923	0.617	1046051	DISTRACT_END	n/a	n/a	n/a	-999	8	[0, 0, 0]	n/a	FR1	1	R1151E
992.54	0.517	1046668	RETRIEVAL_ORIENT	n/a	n/a	n/a	-999	8	[0, 0, 0]	n/a	FR1	1	R1151E
993.057	3.903	1047185	REC_START	n/a	n/a	n/a	-999	8	[0, 0, 0]	n/a	FR1	1	R1151E
996.96	0.823	1051087	REC_WORD	0.823	n/a	FOOD	6	8	[0, 0, 0]	n/a	FR1	1	R1151E
997.783	0.948	1051910	REC_WORD	0.948	n/a	LAMB	7	8	[0, 0, 0]	n/a	FR1	1	R1151E
998.731	24.336	1052858	REC_WORD	24.336	n/a	VEAL	-999	8	[0, 0, 0]	n/a	FR1	1	R1151E
1023.067	5.813	1077193	REC_END	n/a	n/a	n/a	-999	8	[0, 0, 0]	n/a	FR1	1	R1151E
1028.88	0.5	1083006	TRIAL	n/a	n/a	n/a	-999	9	[0, 0, 0]	n/a	FR1	1	R1151E
1029.38	10.428	1083506	COUNTDOWN_START	n/a	n/a	n/a	-999	9	[0, 0, 0]	n/a	FR1	1	R1151E
1039.808	0.007	1093934	COUNTDOWN_END	n/a	n/a	n/a	-999	9	[0, 0, 0]	n/a	FR1	1	R1151E
1039.815	1.618	1093941	ORIENT	n/a	n/a	n/a	-999	9	[0, 0, 0]	n/a	FR1	1	R1151E
1041.433	2.133	1095559	ORIENT_OFF	n/a	n/a	n/a	-999	9	[0, 0, 0]	n/a	FR1	1	R1151E
1043.566	1.617	1097692	WORD	n/a	wordpools/wordpool_EN.txt	MOTH	1	9	[0, 0, 0]	n/a	FR1	1	R1151E
1045.183	0.916	1099309	WORD_OFF	n/a	n/a	MOTH	1	9	[0, 0, 0]	n/a	FR1	1	R1151E
1046.099	1.617	1100224	WORD	n/a	wordpools/wordpool_EN.txt	BEAN	2	9	[0, 0, 0]	n/a	FR1	1	R1151E
1047.716	1.0	1101841	WORD_OFF	n/a	n/a	BEAN	2	9	[0, 0, 0]	n/a	FR1	1	R1151E
1048.716	1.617	1102841	WORD	n/a	wordpools/wordpool_EN.txt	BANK	3	9	[0, 0, 0]	n/a	FR1	1	R1151E
1050.333	0.867	1104458	WORD_OFF	n/a	n/a	BANK	3	9	[0, 0, 0]	n/a	FR1	1	R1151E
1051.2	1.617	1105325	WORD	n/a	wordpools/wordpool_EN.txt	FRUIT	4	9	[0, 0, 0]	n/a	FR1	1	R1151E
1052.817	0.85	1106942	WORD_OFF	n/a	n/a	FRUIT	4	9	[0, 0, 0]	n/a	FR1	1	R1151E
1053.667	1.617	1107792	WORD	n/a	wordpools/wordpool_EN.txt	PET	5	9	[0, 0, 0]	n/a	FR1	1	R1151E
1055.284	0.867	1109409	WORD_OFF	n/a	n/a	PET	5	9	[0, 0, 0]	n/a	FR1	1	R1151E
1056.151	1.617	1110276	WORD	n/a	wordpools/wordpool_EN.txt	TOOL	6	9	[0, 0, 0]	n/a	FR1	1	R1151E
1057.768	0.867	1111893	WORD_OFF	n/a	n/a	TOOL	6	9	[0, 0, 0]	n/a	FR1	1	R1151E
1058.635	1.617	1112760	WORD	n/a	wordpools/wordpool_EN.txt	ROAD	7	9	[0, 0, 0]	n/a	FR1	1	R1151E
1060.252	0.767	1114377	WORD_OFF	n/a	n/a	ROAD	7	9	[0, 0, 0]	n/a	FR1	1	R1151E
1061.019	1.616	1115144	WORD	n/a	wordpools/wordpool_EN.txt	WAVE	8	9	[0, 0, 0]	n/a	FR1	1	R1151E
1062.635	0.951	1116760	WORD_OFF	n/a	n/a	WAVE	8	9	[0, 0, 0]	n/a	FR1	1	R1151E
1063.586	1.617	1117711	WORD	n/a	wordpools/wordpool_EN.txt	CROW	9	9	[0, 0, 0]	n/a	FR1	1	R1151E
1065.203	0.983	1119328	WORD_OFF	n/a	n/a	CROW	9	9	[0, 0, 0]	n/a	FR1	1	R1151E
1066.186	1.617	1120311	WORD	n/a	wordpools/wordpool_EN.txt	SEA	10	9	[0, 0, 0]	n/a	FR1	1	R1151E
1067.803	0.9	1121928	WORD_OFF	n/a	n/a	SEA	10	9	[0, 0, 0]	n/a	FR1	1	R1151E
1068.703	1.617	1122828	WORD	n/a	wordpools/wordpool_EN.txt	CUBE	11	9	[0, 0, 0]	n/a	FR1	1	R1151E
1070.32	0.917	1124445	WORD_OFF	n/a	n/a	CUBE	11	9	[0, 0, 0]	n/a	FR1	1	R1151E
1071.237	1.617	1125361	WORD	n/a	wordpools/wordpool_EN.txt	CHIEF	12	9	[0, 0, 0]	n/a	FR1	1	R1151E
1072.854	0.0	1126978	DISTRACT_START	n/a	n/a	n/a	-999	9	[0, 0, 0]	n/a	FR1	1	R1151E
1072.854	0.001	1126978	WORD_OFF	n/a	n/a	CHIEF	12	9	[0, 0, 0]	n/a	FR1	1	R1151E
1072.855	0.016	1126979	START	n/a	n/a	n/a	-999	9	[-999, -999, -999]	n/a	FR1	1	R1151E
1072.871	5.134	1126995	PROB	5.134	n/a	n/a	-999	9	[4, 2, 2]	8	FR1	1	R1151E
1078.005	7.535	1132129	PROB	7.535	n/a	n/a	-999	9	[9, 5, 3]	17	FR1	1	R1151E
1085.54	4.467	1139664	PROB	4.467	n/a	n/a	-999	9	[7, 6, 4]	17	FR1	1	R1151E
1090.007	3.578	1144131	PROB	3.578	n/a	n/a	-999	9	[5, 4, 7]	16	FR1	1	R1151E
1093.585	0.006	1147709	STOP	n/a	n/a	n/a	-999	9	[-999, -999, -999]	n/a	FR1	1	R1151E
1093.591	0.567	1147715	DISTRACT_END	n/a	n/a	n/a	-999	9	[0, 0, 0]	n/a	FR1	1	R1151E
1094.158	0.517	1148282	RETRIEVAL_ORIENT	n/a	n/a	n/a	-999	9	[0, 0, 0]	n/a	FR1	1	R1151E
1094.675	4.028	1148799	REC_START	n/a	n/a	n/a	-999	9	[0, 0, 0]	n/a	FR1	1	R1151E
1098.703	0.732	1152826	REC_WORD	0.732	n/a	MOTH	1	9	[0, 0, 0]	n/a	FR1	1	R1151E
1099.435	0.916	1153558	REC_WORD	0.916	n/a	BEAN	2	9	[0, 0, 0]	n/a	FR1	1	R1151E
1100.351	1.006	1154474	REC_WORD	1.006	n/a	BANK	3	9	[0, 0, 0]	n/a	FR1	1	R1151E
1101.357	9.473	1155480	REC_WORD	9.473	n/a	FRUIT	4	9	[0, 0, 0]	n/a	FR1	1	R1151E
1110.83	2.235	1164953	REC_WORD	2.235	n/a	ICE	-999	9	[0, 0, 0]	n/a	FR1	1	R1151E
1113.065	11.619	1167188	REC_WORD_VV	11.619	n/a	<>	-999	9	[0, 0, 0]	n/a	FR1	1	R1151E
1124.684	7.38	1178806	REC_END	n/a	n/a	n/a	-999	9	[0, 0, 0]	n/a	FR1	1	R1151E
1132.064	0.5	1186186	TRIAL	n/a	n/a	n/a	-999	10	[0, 0, 0]	n/a	FR1	1	R1151E
1132.564	10.428	1186686	COUNTDOWN_START	n/a	n/a	n/a	-999	10	[0, 0, 0]	n/a	FR1	1	R1151E
1142.992	0.008	1197114	COUNTDOWN_END	n/a	n/a	n/a	-999	10	[0, 0, 0]	n/a	FR1	1	R1151E
1143.0	1.617	1197122	ORIENT	n/a	n/a	n/a	-999	10	[0, 0, 0]	n/a	FR1	1	R1151E
1144.617	1.867	1198739	ORIENT_OFF	n/a	n/a	n/a	-999	10	[0, 0, 0]	n/a	FR1	1	R1151E
1146.484	1.617	1200605	WORD	n/a	wordpools/wordpool_EN.txt	STORM	1	10	[0, 0, 0]	n/a	FR1	1	R1151E
1148.101	0.8	1202222	WORD_OFF	n/a	n/a	STORM	1	10	[0, 0, 0]	n/a	FR1	1	R1151E
1148.901	1.617	1203022	WORD	n/a	wordpools/wordpool_EN.txt	WOLF	2	10	[0, 0, 0]	n/a	FR1	1	R1151E
1150.518	0.917	1204639	WORD_OFF	n/a	n/a	WOLF	2	10	[0, 0, 0]	n/a	FR1	1	R1151E
1151.435	1.616	1205556	WORD	n/a	wordpools/wordpool_EN.txt	MAZE	3	10	[0, 0, 0]	n/a	FR1	1	R1151E
1153.051	0.884	1207172	WORD_OFF	n/a	n/a	MAZE	3	10	[0, 0, 0]	n/a	FR1	1	R1151E
1153.935	1.617	1208056	WORD	n/a	wordpools/wordpool_EN.txt	BEE	4	10	[0, 0, 0]	n/a	FR1	1	R1151E
1155.552	0.867	1209673	WORD_OFF	n/a	n/a	BEE	4	10	[0, 0, 0]	n/a	FR1	1	R1151E
1156.419	1.617	1210540	WORD	n/a	wordpools/wordpool_EN.txt	ROOT	5	10	[0, 0, 0]	n/a	FR1	1	R1151E
1158.036	0.783	1212157	WORD_OFF	n/a	n/a	ROOT	5	10	[0, 0, 0]	n/a	FR1	1	R1151E
1158.819	1.618	1212940	WORD	n/a	wordpools/wordpool_EN.txt	SMILE	6	10	[0, 0, 0]	n/a	FR1	1	R1151E
1160.437	0.949	1214558	WORD_OFF	n/a	n/a	SMILE	6	10	[0, 0, 0]	n/a	FR1	1	R1151E
1161.386	1.617	1215507	WORD	n/a	wordpools/wordpool_EN.txt	GLASS	7	10	[0, 0, 0]	n/a	FR1	1	R1151E
1163.003	0.984	1217124	WORD_OFF	n/a	n/a	GLASS	7	10	[0, 0, 0]	n/a	FR1	1	R1151E
1163.987	1.617	1218108	WORD	n/a	wordpools/wordpool_EN.txt	MILK	8	10	[0, 0, 0]	n/a	FR1	1	R1151E
1165.604	0.933	1219725	WORD_OFF	n/a	n/a	MILK	8	10	[0, 0, 0]	n/a	FR1	1	R1151E
1166.537	1.617	1220658	WORD	n/a	wordpools/wordpool_EN.txt	MOOSE	9	10	[0, 0, 0]	n/a	FR1	1	R1151E
1168.154	0.833	1222275	WORD_OFF	n/a	n/a	MOOSE	9	10	[0, 0, 0]	n/a	FR1	1	R1151E
1168.987	1.617	1223108	WORD	n/a	wordpools/wordpool_EN.txt	CAPE	10	10	[0, 0, 0]	n/a	FR1	1	R1151E
1170.604	0.951	1224724	WORD_OFF	n/a	n/a	CAPE	10	10	[0, 0, 0]	n/a	FR1	1	R1151E
1171.555	1.617	1225675	WORD	n/a	wordpools/wordpool_EN.txt	BED	11	10	[0, 0, 0]	n/a	FR1	1	R1151E
1173.172	0.783	1227292	WORD_OFF	n/a	n/a	BED	11	10	[0, 0, 0]	n/a	FR1	1	R1151E
1173.955	1.617	1228075	WORD	n/a	wordpools/wordpool_EN.txt	SKUNK	12	10	[0, 0, 0]	n/a	FR1	1	R1151E
1175.572	0.0	1229692	WORD_OFF	n/a	n/a	SKUNK	12	10	[0, 0, 0]	n/a	FR1	1	R1151E
1175.572	0.001	1229692	DISTRACT_START	n/a	n/a	n/a	-999	10	[0, 0, 0]	n/a	FR1	1	R1151E
1175.573	0.016	1229693	START	n/a	n/a	n/a	-999	10	[-999, -999, -999]	n/a	FR1	1	R1151E
1175.589	8.551	1229709	PROB	8.551	n/a	n/a	-999	10	[8, 7, 4]	19	FR1	1	R1151E
1184.14	5.751	1238260	PROB	5.751	n/a	n/a	-999	10	[2, 9, 2]	13	FR1	1	R1151E
1189.891	3.818	1244011	PROB	3.818	n/a	n/a	-999	10	[4, 5, 5]	14	FR1	1	R1151E
1193.709	5.732	1247829	PROB	5.732	n/a	n/a	-999	10	[8, 3, 2]	13	FR1	1	R1151E
1199.441	0.02	1253560	STOP	n/a	n/a	n/a	-999	10	[-999, -999, -999]	n/a	FR1	1	R1151E
1199.461	0.532	1253580	DISTRACT_END	n/a	n/a	n/a	-999	10	[0, 0, 0]	n/a	FR1	1	R1151E
1199.993	0.517	1254112	RETRIEVAL_ORIENT	n/a	n/a	n/a	-999	10	[0, 0, 0]	n/a	FR1	1	R1151E
1200.51	7.375	1254629	REC_START	n/a	n/a	n/a	-999	10	[0, 0, 0]	n/a	FR1	1	R1151E
1207.885	0.545	1262004	REC_WORD	0.545	n/a	MILK	8	10	[0, 0, 0]	n/a	FR1	1	R1151E
1208.43	5.069	1262549	REC_WORD	5.069	n/a	BROOM	-999	10	[0, 0, 0]	n/a	FR1	1	R1151E
1213.499	17.02	1267618	REC_WORD	17.02	n/a	CASE	-999	10	[0, 0, 0]	n/a	FR1	1	R1151E
1230.519	6.03	1284637	REC_END	n/a	n/a	n/a	-999	10	[0, 0, 0]	n/a	FR1	1	R1151E
1236.549	0.5	1290667	TRIAL	n/a	n/a	n/a	-999	11	[0, 0, 0]	n/a	FR1	1	R1151E
1237.049	10.428	1291167	COUNTDOWN_START	n/a	n/a	n/a	-999	11	[0, 0, 0]	n/a	FR1	1	R1151E
1247.477	0.009	1301594	COUNTDOWN_END	n/a	n/a	n/a	-999	11	[0, 0, 0]	n/a	FR1	1	R1151E
1247.486	1.616	1301603	ORIENT	n/a	n/a	n/a	-999	11	[0, 0, 0]	n/a	FR1	1	R1151E
1249.102	2.25	1303219	ORIENT_OFF	n/a	n/a	n/a	-999	11	[0, 0, 0]	n/a	FR1	1	R1151E
1251.352	1.617	1305469	WORD	n/a	wordpools/wordpool_EN.txt	FLEA	1	11	[0, 0, 0]	n/a	FR1	1	R1151E
1252.969	0.883	1307086	WORD_OFF	n/a	n/a	FLEA	1	11	[0, 0, 0]	n/a	FR1	1	R1151E
1253.852	1.618	1307969	WORD	n/a	wordpools/wordpool_EN.txt	CHIN	2	11	[0, 0, 0]	n/a	FR1	1	R1151E
1255.47	0.85	1309587	WORD_OFF	n/a	n/a	CHIN	2	11	[0, 0, 0]	n/a	FR1	1	R1151E
1256.32	1.616	1310437	WORD	n/a	wordpools/wordpool_EN.txt	SEED	3	11	[0, 0, 0]	n/a	FR1	1	R1151E
1257.936	0.884	1312053	WORD_OFF	n/a	n/a	SEED	3	11	[0, 0, 0]	n/a	FR1	1	R1151E
1258.82	1.618	1312937	WORD	n/a	wordpools/wordpool_EN.txt	SPOON	4	11	[0, 0, 0]	n/a	FR1	1	R1151E
1260.438	0.799	1314555	WORD_OFF	n/a	n/a	SPOON	4	11	[0, 0, 0]	n/a	FR1	1	R1151E
1261.237	1.617	1315354	WORD	n/a	wordpools/wordpool_EN.txt	ICE	5	11	[0, 0, 0]	n/a	FR1	1	R1151E
1262.854	0.833	1316971	WORD_OFF	n/a	n/a	ICE	5	11	[0, 0, 0]	n/a	FR1	1	R1151E
1263.687	1.617	1317804	WORD	n/a	wordpools/wordpool_EN.txt	LAKE	6	11	[0, 0, 0]	n/a	FR1	1	R1151E
1265.304	0.934	1319421	WORD_OFF	n/a	n/a	LAKE	6	11	[0, 0, 0]	n/a	FR1	1	R1151E
1266.238	1.617	1320355	WORD	n/a	wordpools/wordpool_EN.txt	NOSE	7	11	[0, 0, 0]	n/a	FR1	1	R1151E
1267.855	0.783	1321972	WORD_OFF	n/a	n/a	NOSE	7	11	[0, 0, 0]	n/a	FR1	1	R1151E
1268.638	1.617	1322755	WORD	n/a	wordpools/wordpool_EN.txt	HAWK	8	11	[0, 0, 0]	n/a	FR1	1	R1151E
1270.255	0.867	1324371	WORD_OFF	n/a	n/a	HAWK	8	11	[0, 0, 0]	n/a	FR1	1	R1151E
1271.122	1.617	1325238	WORD	n/a	wordpools/wordpool_EN.txt	CHAIR	9	11	[0, 0, 0]	n/a	FR1	1	R1151E
1272.739	0.934	1326855	WORD_OFF	n/a	n/a	CHAIR	9	11	[0, 0, 0]	n/a	FR1	1	R1151E
1273.673	1.617	1327789	WORD	n/a	wordpools/wordpool_EN.txt	MOUSE	10	11	[0, 0, 0]	n/a	FR1	1	R1151E
1275.29	0.8	1329406	WORD_OFF	n/a	n/a	MOUSE	10	11	[0, 0, 0]	n/a	FR1	1	R1151E
1276.09	1.617	1330206	WORD	n/a	wordpools/wordpool_EN.txt	CAT	11	11	[0, 0, 0]	n/a	FR1	1	R1151E
1277.707	0.9	1331823	WORD_OFF	n/a	n/a	CAT	11	11	[0, 0, 0]	n/a	FR1	1	R1151E
1278.607	1.617	1332723	WORD	n/a	wordpools/wordpool_EN.txt	DART	12	11	[0, 0, 0]	n/a	FR1	1	R1151E
1280.224	0.0	1334340	DISTRACT_START	n/a	n/a	n/a	-999	11	[0, 0, 0]	n/a	FR1	1	R1151E
1280.224	0.0	1334340	WORD_OFF	n/a	n/a	DART	12	11	[0, 0, 0]	n/a	FR1	1	R1151E
1280.224	0.016	1334340	START	n/a	n/a	n/a	-999	11	[-999, -999, -999]	n/a	FR1	1	R1151E
1280.24	5.385	1334356	PROB	5.385	n/a	n/a	-999	11	[2, 8, 5]	15	FR1	1	R1151E
1285.625	4.317	1339741	PROB	4.317	n/a	n/a	-999	11	[5, 1, 9]	15	FR1	1	R1151E
1289.942	6.135	1344058	PROB	6.135	n/a	n/a	-999	11	[8, 3, 5]	16	FR1	1	R1151E
1296.077	7.196	1350192	PROB	7.196	n/a	n/a	-999	11	[4, 3, 2]	9	FR1	1	R1151E
1303.273	0.021	1357388	STOP	n/a	n/a	n/a	-999	11	[-999, -999, -999]	n/a	FR1	1	R1151E
1303.294	0.667	1357409	DISTRACT_END	n/a	n/a	n/a	-999	11	[0, 0, 0]	n/a	FR1	1	R1151E
1303.961	0.519	1358076	RETRIEVAL_ORIENT	n/a	n/a	n/a	-999	11	[0, 0, 0]	n/a	FR1	1	R1151E
1304.48	1.116	1358595	REC_START	n/a	n/a	n/a	-999	11	[0, 0, 0]	n/a	FR1	1	R1151E
1305.596	1.518	1359711	REC_WORD	1.518	n/a	FLEA	1	11	[0, 0, 0]	n/a	FR1	1	R1151E
1307.114	1.749	1361229	REC_WORD	1.749	n/a	CHIN	2	11	[0, 0, 0]	n/a	FR1	1	R1151E
1308.863	5.606	1362978	REC_WORD	5.606	n/a	SEED	3	11	[0, 0, 0]	n/a	FR1	1	R1151E
1314.469	9.612	1368584	REC_WORD	9.612	n/a	ICE	5	11	[0, 0, 0]	n/a	FR1	1	R1151E
1324.081	10.408	1378195	REC_WORD	10.408	n/a	CHIN	2	11	[0, 0, 0]	n/a	FR1	1	R1151E
1334.489	5.879	1388603	REC_END	n/a	n/a	n/a	-999	11	[0, 0, 0]	n/a	FR1	1	R1151E
1340.368	0.5	1394482	TRIAL	n/a	n/a	n/a	-999	12	[0, 0, 0]	n/a	FR1	1	R1151E
1340.868	10.428	1394982	COUNTDOWN_START	n/a	n/a	n/a	-999	12	[0, 0, 0]	n/a	FR1	1	R1151E
1351.296	0.007	1405409	COUNTDOWN_END	n/a	n/a	n/a	-999	12	[0, 0, 0]	n/a	FR1	1	R1151E
1351.303	1.617	1405416	ORIENT	n/a	n/a	n/a	-999	12	[0, 0, 0]	n/a	FR1	1	R1151E
1352.92	2.183	1407033	ORIENT_OFF	n/a	n/a	n/a	-999	12	[0, 0, 0]	n/a	FR1	1	R1151E
1355.103	1.617	1409216	WORD	n/a	wordpools/wordpool_EN.txt	VINE	1	12	[0, 0, 0]	n/a	FR1	1	R1151E
1356.72	0.801	1410833	WORD_OFF	n/a	n/a	VINE	1	12	[0, 0, 0]	n/a	FR1	1	R1151E
1357.521	1.617	1411634	WORD	n/a	wordpools/wordpool_EN.txt	MAT	2	12	[0, 0, 0]	n/a	FR1	1	R1151E
1359.138	0.816	1413251	WORD_OFF	n/a	n/a	MAT	2	12	[0, 0, 0]	n/a	FR1	1	R1151E
1359.954	1.617	1414067	WORD	n/a	wordpools/wordpool_EN.txt	MOUTH	3	12	[0, 0, 0]	n/a	FR1	1	R1151E
1361.571	0.901	1415684	WORD_OFF	n/a	n/a	MOUTH	3	12	[0, 0, 0]	n/a	FR1	1	R1151E
1362.472	1.617	1416585	WORD	n/a	wordpools/wordpool_EN.txt	SOUP	4	12	[0, 0, 0]	n/a	FR1	1	R1151E
1364.089	1.0	1418202	WORD_OFF	n/a	n/a	SOUP	4	12	[0, 0, 0]	n/a	FR1	1	R1151E
1365.089	1.616	1419202	WORD	n/a	wordpools/wordpool_EN.txt	CAKE	5	12	[0, 0, 0]	n/a	FR1	1	R1151E
1366.705	0.984	1420818	WORD_OFF	n/a	n/a	CAKE	5	12	[0, 0, 0]	n/a	FR1	1	R1151E
1367.689	1.617	1421802	WORD	n/a	wordpools/wordpool_EN.txt	WHALE	6	12	[0, 0, 0]	n/a	FR1	1	R1151E
1369.306	0.934	1423419	WORD_OFF	n/a	n/a	WHALE	6	12	[0, 0, 0]	n/a	FR1	1	R1151E
1370.24	1.616	1424352	WORD	n/a	wordpools/wordpool_EN.txt	GEESE	7	12	[0, 0, 0]	n/a	FR1	1	R1151E
1371.856	0.867	1425968	WORD_OFF	n/a	n/a	GEESE	7	12	[0, 0, 0]	n/a	FR1	1	R1151E
1372.723	1.617	1426835	WORD	n/a	wordpools/wordpool_EN.txt	BUSH	8	12	[0, 0, 0]	n/a	FR1	1	R1151E
1374.34	0.834	1428452	WORD_OFF	n/a	n/a	BUSH	8	12	[0, 0, 0]	n/a	FR1	1	R1151E
1375.174	1.617	1429286	WORD	n/a	wordpools/wordpool_EN.txt	WEB	9	12	[0, 0, 0]	n/a	FR1	1	R1151E
1376.791	0.95	1430903	WORD_OFF	n/a	n/a	WEB	9	12	[0, 0, 0]	n/a	FR1	1	R1151E
1377.741	1.617	1431853	WORD	n/a	wordpools/wordpool_EN.txt	BAG	10	12	[0, 0, 0]	n/a	FR1	1	R1151E
1379.358	0.95	1433470	WORD_OFF	n/a	n/a	BAG	10	12	[0, 0, 0]	n/a	FR1	1	R1151E
1380.308	1.617	1434420	WORD	n/a	wordpools/wordpool_EN.txt	JUICE	11	12	[0, 0, 0]	n/a	FR1	1	R1151E
1381.925	0.933	1436037	WORD_OFF	n/a	n/a	JUICE	11	12	[0, 0, 0]	n/a	FR1	1	R1151E
1382.858	1.618	1436970	WORD	n/a	wordpools/wordpool_EN.txt	ROOF	12	12	[0, 0, 0]	n/a	FR1	1	R1151E
1384.476	0.0	1438588	WORD_OFF	n/a	n/a	ROOF	12	12	[0, 0, 0]	n/a	FR1	1	R1151E
1384.476	0.001	1438588	DISTRACT_START	n/a	n/a	n/a	-999	12	[0, 0, 0]	n/a	FR1	1	R1151E
1384.477	0.015	1438589	START	n/a	n/a	n/a	-999	12	[-999, -999, -999]	n/a	FR1	1	R1151E
1384.492	7.551	1438604	PROB	7.551	n/a	n/a	-999	12	[5, 4, 5]	14	FR1	1	R1151E
1392.043	3.134	1446155	PROB	3.134	n/a	n/a	-999	12	[3, 1, 5]	9	FR1	1	R1151E
1395.177	4.118	1449288	PROB	4.118	n/a	n/a	-999	12	[5, 6, 9]	20	FR1	1	R1151E
1399.295	2.867	1453406	PROB	2.867	n/a	n/a	-999	12	[5, 8, 8]	21	FR1	1	R1151E
1402.162	2.952	1456273	PROB	2.952	n/a	n/a	-999	12	[5, 1, 9]	15	FR1	1	R1151E
1405.114	0.015	1459225	STOP	n/a	n/a	n/a	-999	12	[-999, -999, -999]	n/a	FR1	1	R1151E
1405.129	0.667	1459240	DISTRACT_END	n/a	n/a	n/a	-999	12	[0, 0, 0]	n/a	FR1	1	R1151E
1405.796	0.517	1459907	RETRIEVAL_ORIENT	n/a	n/a	n/a	-999	12	[0, 0, 0]	n/a	FR1	1	R1151E
1406.313	2.09	1460424	REC_START	n/a	n/a	n/a	-999	12	[0, 0, 0]	n/a	FR1	1	R1151E
1408.403	1.31	1462514	REC_WORD	1.31	n/a	VINE	1	12	[0, 0, 0]	n/a	FR1	1	R1151E
1409.713	10.246	1463824	REC_WORD	10.246	n/a	MOUTH	3	12	[0, 0, 0]	n/a	FR1	1	R1151E
1419.959	1.256	1474069	REC_WORD	1.256	n/a	SMOOTH	-999	12	[0, 0, 0]	n/a	FR1	1	R1151E
1421.215	11.215	1475325	REC_WORD	11.215	n/a	CAKE	5	12	[0, 0, 0]	n/a	FR1	1	R1151E
1432.43	3.893	1486540	REC_WORD	3.893	n/a	MAT	2	12	[0, 0, 0]	n/a	FR1	1	R1151E
1436.323	18.116	1490433	REC_END	n/a	n/a	n/a	-999	12	[0, 0, 0]	n/a	FR1	1	R1151E
1454.439	0.5	1508548	TRIAL	n/a	n/a	n/a	-999	13	[0, 0, 0]	n/a	FR1	1	R1151E
1454.939	10.428	1509048	COUNTDOWN_START	n/a	n/a	n/a	-999	13	[0, 0, 0]	n/a	FR1	1	R1151E
1465.367	0.006	1519476	COUNTDOWN_END	n/a	n/a	n/a	-999	13	[0, 0, 0]	n/a	FR1	1	R1151E
1465.373	1.617	1519482	ORIENT	n/a	n/a	n/a	-999	13	[0, 0, 0]	n/a	FR1	1	R1151E
1466.99	2.217	1521099	ORIENT_OFF	n/a	n/a	n/a	-999	13	[0, 0, 0]	n/a	FR1	1	R1151E
1469.207	1.617	1523316	WORD	n/a	wordpools/wordpool_EN.txt	TAIL	1	13	[0, 0, 0]	n/a	FR1	1	R1151E
1470.824	0.867	1524932	WORD_OFF	n/a	n/a	TAIL	1	13	[0, 0, 0]	n/a	FR1	1	R1151E
1471.691	1.617	1525799	WORD	n/a	wordpools/wordpool_EN.txt	FLOOR	2	13	[0, 0, 0]	n/a	FR1	1	R1151E
1473.308	0.883	1527416	WORD_OFF	n/a	n/a	FLOOR	2	13	[0, 0, 0]	n/a	FR1	1	R1151E
1474.191	1.617	1528299	WORD	n/a	wordpools/wordpool_EN.txt	TOY	3	13	[0, 0, 0]	n/a	FR1	1	R1151E
1475.808	1.0	1529916	WORD_OFF	n/a	n/a	TOY	3	13	[0, 0, 0]	n/a	FR1	1	R1151E
1476.808	1.617	1530916	WORD	n/a	wordpools/wordpool_EN.txt	STOOL	4	13	[0, 0, 0]	n/a	FR1	1	R1151E
1478.425	0.8	1532533	WORD_OFF	n/a	n/a	STOOL	4	13	[0, 0, 0]	n/a	FR1	1	R1151E
1479.225	1.617	1533333	WORD	n/a	wordpools/wordpool_EN.txt	GATE	5	13	[0, 0, 0]	n/a	FR1	1	R1151E
1480.842	0.8	1534950	WORD_OFF	n/a	n/a	GATE	5	13	[0, 0, 0]	n/a	FR1	1	R1151E
1481.642	1.617	1535750	WORD	n/a	wordpools/wordpool_EN.txt	FORT	6	13	[0, 0, 0]	n/a	FR1	1	R1151E
1483.259	0.867	1537367	WORD_OFF	n/a	n/a	FORT	6	13	[0, 0, 0]	n/a	FR1	1	R1151E
1484.126	1.617	1538234	WORD	n/a	wordpools/wordpool_EN.txt	SKY	7	13	[0, 0, 0]	n/a	FR1	1	R1151E
1485.743	0.917	1539851	WORD_OFF	n/a	n/a	SKY	7	13	[0, 0, 0]	n/a	FR1	1	R1151E
1486.66	1.617	1540768	WORD	n/a	wordpools/wordpool_EN.txt	NET	8	13	[0, 0, 0]	n/a	FR1	1	R1151E
1488.277	0.867	1542385	WORD_OFF	n/a	n/a	NET	8	13	[0, 0, 0]	n/a	FR1	1	R1151E
1489.144	1.617	1543252	WORD	n/a	wordpools/wordpool_EN.txt	SALT	9	13	[0, 0, 0]	n/a	FR1	1	R1151E
1490.761	0.866	1544869	WORD_OFF	n/a	n/a	SALT	9	13	[0, 0, 0]	n/a	FR1	1	R1151E
1491.627	1.618	1545735	WORD	n/a	wordpools/wordpool_EN.txt	SEAT	10	13	[0, 0, 0]	n/a	FR1	1	R1151E
1493.245	0.883	1547353	WORD_OFF	n/a	n/a	SEAT	10	13	[0, 0, 0]	n/a	FR1	1	R1151E
1494.128	1.617	1548236	WORD	n/a	wordpools/wordpool_EN.txt	SPEAR	11	13	[0, 0, 0]	n/a	FR1	1	R1151E
1495.745	1.0	1549852	WORD_OFF	n/a	n/a	SPEAR	11	13	[0, 0, 0]	n/a	FR1	1	R1151E
1496.745	1.617	1550852	WORD	n/a	wordpools/wordpool_EN.txt	NEST	12	13	[0, 0, 0]	n/a	FR1	1	R1151E
1498.362	0.0	1552469	DISTRACT_START	n/a	n/a	n/a	-999	13	[0, 0, 0]	n/a	FR1	1	R1151E
1498.362	0.001	1552469	WORD_OFF	n/a	n/a	NEST	12	13	[0, 0, 0]	n/a	FR1	1	R1151E
1498.363	0.016	1552470	START	n/a	n/a	n/a	-999	13	[-999, -999, -999]	n/a	FR1	1	R1151E
1498.379	9.335	1552486	PROB	9.335	n/a	n/a	-999	13	[3, 7, 8]	18	FR1	1	R1151E
1507.714	4.217	1561821	PROB	4.217	n/a	n/a	-999	13	[2, 2, 6]	10	FR1	1	R1151E
1511.931	3.434	1566038	PROB	3.434	n/a	n/a	-999	13	[7, 5, 8]	20	FR1	1	R1151E
1515.365	2.901	1569472	PROB	2.901	n/a	n/a	-999	13	[8, 4, 1]	13	FR1	1	R1151E
1518.266	4.26	1572373	PROB	4.26	n/a	n/a	-999	13	[3, 6, 5]	14	FR1	1	R1151E
1522.526	0.007	1576632	STOP	n/a	n/a	n/a	-999	13	[-999, -999, -999]	n/a	FR1	1	R1151E
1522.533	0.617	1576639	DISTRACT_END	n/a	n/a	n/a	-999	13	[0, 0, 0]	n/a	FR1	1	R1151E
1523.15	0.517	1577256	RETRIEVAL_ORIENT	n/a	n/a	n/a	-999	13	[0, 0, 0]	n/a	FR1	1	R1151E
1523.667	0.47	1577773	REC_START	n/a	n/a	n/a	-999	13	[0, 0, 0]	n/a	FR1	1	R1151E
1524.137	0.905	1578243	REC_WORD	0.905	n/a	GATE	5	13	[0, 0, 0]	n/a	FR1	1	R1151E
1525.042	0.944	1579148	REC_WORD	0.944	n/a	FORT	6	13	[0, 0, 0]	n/a	FR1	1	R1151E
1525.986	1.561	1580092	REC_WORD	1.561	n/a	SKY	7	13	[0, 0, 0]	n/a	FR1	1	R1151E
1527.547	14.488	1581653	REC_WORD	14.488	n/a	NET	8	13	[0, 0, 0]	n/a	FR1	1	R1151E
1542.035	11.642	1596141	REC_WORD	11.642	n/a	SKY	7	13	[0, 0, 0]	n/a	FR1	1	R1151E
1553.677	6.346	1607782	REC_END	n/a	n/a	n/a	-999	13	[0, 0, 0]	n/a	FR1	1	R1151E
1560.023	0.5	1614128	TRIAL	n/a	n/a	n/a	-999	14	[0, 0, 0]	n/a	FR1	1	R1151E
1560.523	10.428	1614628	COUNTDOWN_START	n/a	n/a	n/a	-999	14	[0, 0, 0]	n/a	FR1	1	R1151E
1570.951	0.007	1625055	COUNTDOWN_END	n/a	n/a	n/a	-999	14	[0, 0, 0]	n/a	FR1	1	R1151E
1570.958	1.617	1625062	ORIENT	n/a	n/a	n/a	-999	14	[0, 0, 0]	n/a	FR1	1	R1151E
1572.575	1.95	1626679	ORIENT_OFF	n/a	n/a	n/a	-999	14	[0, 0, 0]	n/a	FR1	1	R1151E
1574.525	1.617	1628629	WORD	n/a	wordpools/wordpool_EN.txt	FAN	1	14	[0, 0, 0]	n/a	FR1	1	R1151E
1576.142	0.834	1630246	WORD_OFF	n/a	n/a	FAN	1	14	[0, 0, 0]	n/a	FR1	1	R1151E
1576.976	1.617	1631080	WORD	n/a	wordpools/wordpool_EN.txt	BOWL	2	14	[0, 0, 0]	n/a	FR1	1	R1151E
1578.593	0.933	1632697	WORD_OFF	n/a	n/a	BOWL	2	14	[0, 0, 0]	n/a	FR1	1	R1151E
1579.526	1.617	1633630	WORD	n/a	wordpools/wordpool_EN.txt	CLAY	3	14	[0, 0, 0]	n/a	FR1	1	R1151E
1581.143	0.9	1635247	WORD_OFF	n/a	n/a	CLAY	3	14	[0, 0, 0]	n/a	FR1	1	R1151E
1582.043	1.617	1636147	WORD	n/a	wordpools/wordpool_EN.txt	HORSE	4	14	[0, 0, 0]	n/a	FR1	1	R1151E
1583.66	0.818	1637764	WORD_OFF	n/a	n/a	HORSE	4	14	[0, 0, 0]	n/a	FR1	1	R1151E
1584.478	1.616	1638582	WORD	n/a	wordpools/wordpool_EN.txt	RAIN	5	14	[0, 0, 0]	n/a	FR1	1	R1151E
1586.094	0.967	1640198	WORD_OFF	n/a	n/a	RAIN	5	14	[0, 0, 0]	n/a	FR1	1	R1151E
1587.061	1.617	1641165	WORD	n/a	wordpools/wordpool_EN.txt	CORN	6	14	[0, 0, 0]	n/a	FR1	1	R1151E
1588.678	0.85	1642782	WORD_OFF	n/a	n/a	CORN	6	14	[0, 0, 0]	n/a	FR1	1	R1151E
1589.528	1.617	1643632	WORD	n/a	wordpools/wordpool_EN.txt	ARK	7	14	[0, 0, 0]	n/a	FR1	1	R1151E
1591.145	0.767	1645249	WORD_OFF	n/a	n/a	ARK	7	14	[0, 0, 0]	n/a	FR1	1	R1151E
1591.912	1.617	1646016	WORD	n/a	wordpools/wordpool_EN.txt	CLOUD	8	14	[0, 0, 0]	n/a	FR1	1	R1151E
1593.529	1.0	1647633	WORD_OFF	n/a	n/a	CLOUD	8	14	[0, 0, 0]	n/a	FR1	1	R1151E
1594.529	1.617	1648632	WORD	n/a	wordpools/wordpool_EN.txt	MAIL	9	14	[0, 0, 0]	n/a	FR1	1	R1151E
1596.146	1.0	1650249	WORD_OFF	n/a	n/a	MAIL	9	14	[0, 0, 0]	n/a	FR1	1	R1151E
1597.146	1.617	1651249	WORD	n/a	wordpools/wordpool_EN.txt	PLANE	10	14	[0, 0, 0]	n/a	FR1	1	R1151E
1598.763	0.85	1652866	WORD_OFF	n/a	n/a	PLANE	10	14	[0, 0, 0]	n/a	FR1	1	R1151E
1599.613	1.617	1653716	WORD	n/a	wordpools/wordpool_EN.txt	BOOK	11	14	[0, 0, 0]	n/a	FR1	1	R1151E
1601.23	0.85	1655333	WORD_OFF	n/a	n/a	BOOK	11	14	[0, 0, 0]	n/a	FR1	1	R1151E
1602.08	1.617	1656183	WORD	n/a	wordpools/wordpool_EN.txt	STAR	12	14	[0, 0, 0]	n/a	FR1	1	R1151E
1603.697	0.0	1657800	WORD_OFF	n/a	n/a	STAR	12	14	[0, 0, 0]	n/a	FR1	1	R1151E
1603.697	0.001	1657800	DISTRACT_START	n/a	n/a	n/a	-999	14	[0, 0, 0]	n/a	FR1	1	R1151E
1603.698	0.016	1657801	START	n/a	n/a	n/a	-999	14	[-999, -999, -999]	n/a	FR1	1	R1151E
1603.714	7.935	1657817	PROB	7.935	n/a	n/a	-999	14	[1, 4, 4]	9	FR1	1	R1151E
1611.649	5.551	1665752	PROB	5.551	n/a	n/a	-999	14	[9, 7, 1]	17	FR1	1	R1151E
1617.2	3.183	1671303	PROB	3.183	n/a	n/a	-999	14	[5, 7, 1]	13	FR1	1	R1151E
1620.383	2.601	1674485	PROB	2.601	n/a	n/a	-999	14	[7, 3, 8]	18	FR1	1	R1151E
1622.984	3.074	1677086	PROB	3.074	n/a	n/a	-999	14	[6, 4, 1]	11	FR1	1	R1151E
1626.058	0.01	1680160	STOP	n/a	n/a	n/a	-999	14	[-999, -999, -999]	n/a	FR1	1	R1151E
1626.068	0.617	1680170	DISTRACT_END	n/a	n/a	n/a	-999	14	[0, 0, 0]	n/a	FR1	1	R1151E
1626.685	0.517	1680787	RETRIEVAL_ORIENT	n/a	n/a	n/a	-999	14	[0, 0, 0]	n/a	FR1	1	R1151E
1627.202	3.548	1681304	REC_START	n/a	n/a	n/a	-999	14	[0, 0, 0]	n/a	FR1	1	R1151E
1630.75	1.163	1684852	REC_WORD	1.163	n/a	CLAY	3	14	[0, 0, 0]	n/a	FR1	1	R1151E
1631.913	1.927	1686015	REC_WORD	1.927	n/a	HORSE	4	14	[0, 0, 0]	n/a	FR1	1	R1151E
1633.84	1.144	1687942	REC_WORD	1.144	n/a	FAN	1	14	[0, 0, 0]	n/a	FR1	1	R1151E
1634.984	2.927	1689086	REC_WORD	2.927	n/a	BOWL	2	14	[0, 0, 0]	n/a	FR1	1	R1151E
1637.911	19.3	1692013	REC_WORD	19.3	n/a	CLAY	3	14	[0, 0, 0]	n/a	FR1	1	R1151E
1657.211	5.597	1711312	REC_END	n/a	n/a	n/a	-999	14	[0, 0, 0]	n/a	FR1	1	R1151E
1662.808	0.5	1716909	TRIAL	n/a	n/a	n/a	-999	15	[0, 0, 0]	n/a	FR1	1	R1151E
1663.308	10.428	1717409	COUNTDOWN_START	n/a	n/a	n/a	-999	15	[0, 0, 0]	n/a	FR1	1	R1151E
1673.736	0.007	1727836	COUNTDOWN_END	n/a	n/a	n/a	-999	15	[0, 0, 0]	n/a	FR1	1	R1151E
1673.743	1.617	1727843	ORIENT	n/a	n/a	n/a	-999	15	[0, 0, 0]	n/a	FR1	1	R1151E
1675.36	2.15	1729460	ORIENT_OFF	n/a	n/a	n/a	-999	15	[0, 0, 0]	n/a	FR1	1	R1151E
1677.51	1.617	1731610	WORD	n/a	wordpools/wordpool_EN.txt	TEA	1	15	[0, 0, 0]	n/a	FR1	1	R1151E
1679.127	0.934	1733227	WORD_OFF	n/a	n/a	TEA	1	15	[0, 0, 0]	n/a	FR1	1	R1151E
1680.061	1.616	1734161	WORD	n/a	wordpools/wordpool_EN.txt	POOL	2	15	[0, 0, 0]	n/a	FR1	1	R1151E
1681.677	0.802	1735777	WORD_OFF	n/a	n/a	POOL	2	15	[0, 0, 0]	n/a	FR1	1	R1151E
1682.479	1.616	1736579	WORD	n/a	wordpools/wordpool_EN.txt	LAWN	3	15	[0, 0, 0]	n/a	FR1	1	R1151E
1684.095	0.866	1738195	WORD_OFF	n/a	n/a	LAWN	3	15	[0, 0, 0]	n/a	FR1	1	R1151E
1684.961	1.617	1739061	WORD	n/a	wordpools/wordpool_EN.txt	PARK	4	15	[0, 0, 0]	n/a	FR1	1	R1151E
1686.578	0.885	1740678	WORD_OFF	n/a	n/a	PARK	4	15	[0, 0, 0]	n/a	FR1	1	R1151E
1687.463	1.616	1741563	WORD	n/a	wordpools/wordpool_EN.txt	HOSE	5	15	[0, 0, 0]	n/a	FR1	1	R1151E
1689.079	0.95	1743179	WORD_OFF	n/a	n/a	HOSE	5	15	[0, 0, 0]	n/a	FR1	1	R1151E
1690.029	1.617	1744129	WORD	n/a	wordpools/wordpool_EN.txt	BROOM	6	15	[0, 0, 0]	n/a	FR1	1	R1151E
1691.646	0.933	1745746	WORD_OFF	n/a	n/a	BROOM	6	15	[0, 0, 0]	n/a	FR1	1	R1151E
1692.579	1.617	1746679	WORD	n/a	wordpools/wordpool_EN.txt	BENCH	7	15	[0, 0, 0]	n/a	FR1	1	R1151E
1694.196	0.817	1748295	WORD_OFF	n/a	n/a	BENCH	7	15	[0, 0, 0]	n/a	FR1	1	R1151E
1695.013	1.617	1749112	WORD	n/a	wordpools/wordpool_EN.txt	CAGE	8	15	[0, 0, 0]	n/a	FR1	1	R1151E
1696.63	0.835	1750729	WORD_OFF	n/a	n/a	CAGE	8	15	[0, 0, 0]	n/a	FR1	1	R1151E
1697.465	1.616	1751564	WORD	n/a	wordpools/wordpool_EN.txt	HOUSE	9	15	[0, 0, 0]	n/a	FR1	1	R1151E
1699.081	0.799	1753180	WORD_OFF	n/a	n/a	HOUSE	9	15	[0, 0, 0]	n/a	FR1	1	R1151E
1699.88	1.618	1753979	WORD	n/a	wordpools/wordpool_EN.txt	WEED	10	15	[0, 0, 0]	n/a	FR1	1	R1151E
1701.498	0.867	1755597	WORD_OFF	n/a	n/a	WEED	10	15	[0, 0, 0]	n/a	FR1	1	R1151E
1702.365	1.616	1756464	WORD	n/a	wordpools/wordpool_EN.txt	SUIT	11	15	[0, 0, 0]	n/a	FR1	1	R1151E
1703.981	0.834	1758080	WORD_OFF	n/a	n/a	SUIT	11	15	[0, 0, 0]	n/a	FR1	1	R1151E
1704.815	1.618	1758914	WORD	n/a	wordpools/wordpool_EN.txt	TANK	12	15	[0, 0, 0]	n/a	FR1	1	R1151E
1706.433	0.0	1760532	DISTRACT_START	n/a	n/a	n/a	-999	15	[0, 0, 0]	n/a	FR1	1	R1151E
1706.433	0.0	1760532	WORD_OFF	n/a	n/a	TANK	12	15	[0, 0, 0]	n/a	FR1	1	R1151E
1706.433	0.017	1760532	START	n/a	n/a	n/a	-999	15	[-999, -999, -999]	n/a	FR1	1	R1151E
1706.45	8.733	1760549	PROB	8.733	n/a	n/a	-999	15	[8, 3, 9]	20	FR1	1	R1151E
1715.183	3.701	1769282	PROB	3.701	n/a	n/a	-999	15	[3, 8, 8]	19	FR1	1	R1151E
1718.884	4.418	1772983	PROB	4.418	n/a	n/a	-999	15	[8, 5, 2]	15	FR1	1	R1151E
1723.302	5.413	1777400	PROB	5.413	n/a	n/a	-999	15	[5, 3, 7]	17	FR1	1	R1151E
1728.715	0.021	1782813	STOP	n/a	n/a	n/a	-999	15	[-999, -999, -999]	n/a	FR1	1	R1151E
1728.736	0.583	1782834	DISTRACT_END	n/a	n/a	n/a	-999	15	[0, 0, 0]	n/a	FR1	1	R1151E
1729.319	0.518	1783417	RETRIEVAL_ORIENT	n/a	n/a	n/a	-999	15	[0, 0, 0]	n/a	FR1	1	R1151E
1729.837	1.846	1783935	REC_START	n/a	n/a	n/a	-999	15	[0, 0, 0]	n/a	FR1	1	R1151E
1731.683	0.844	1785781	REC_WORD	0.844	n/a	TEA	1	15	[0, 0, 0]	n/a	FR1	1	R1151E
1732.527	1.251	1786625	REC_WORD	1.251	n/a	POOL	2	15	[0, 0, 0]	n/a	FR1	1	R1151E
1733.778	2.631	1787876	REC_WORD	2.631	n/a	LAWN	3	15	[0, 0, 0]	n/a	FR1	1	R1151E
1736.409	0.687	1790507	REC_WORD	0.687	n/a	BARK	-999	15	[0, 0, 0]	n/a	FR1	1	R1151E
1737.096	1.529	1791194	REC_WORD	1.529	n/a	HOUSE	9	15	[0, 0, 0]	n/a	FR1	1	R1151E
1738.625	21.22	1792723	REC_WORD	21.22	n/a	BENCH	7	15	[0, 0, 0]	n/a	FR1	1	R1151E
1759.845	6.147	1813942	REC_END	n/a	n/a	n/a	-999	15	[0, 0, 0]	n/a	FR1	1	R1151E
1765.992	0.5	1820089	TRIAL	n/a	n/a	n/a	-999	16	[0, 0, 0]	n/a	FR1	1	R1151E
1766.492	10.428	1820589	COUNTDOWN_START	n/a	n/a	n/a	-999	16	[0, 0, 0]	n/a	FR1	1	R1151E
1776.92	0.008	1831016	COUNTDOWN_END	n/a	n/a	n/a	-999	16	[0, 0, 0]	n/a	FR1	1	R1151E
1776.928	1.617	1831024	ORIENT	n/a	n/a	n/a	-999	16	[0, 0, 0]	n/a	FR1	1	R1151E
1778.545	1.983	1832641	ORIENT_OFF	n/a	n/a	n/a	-999	16	[0, 0, 0]	n/a	FR1	1	R1151E
1780.528	1.617	1834624	WORD	n/a	wordpools/wordpool_EN.txt	PASTE	1	16	[0, 0, 0]	n/a	FR1	1	R1151E
1782.145	0.85	1836241	WORD_OFF	n/a	n/a	PASTE	1	16	[0, 0, 0]	n/a	FR1	1	R1151E
1782.995	1.617	1837091	WORD	n/a	wordpools/wordpool_EN.txt	PEAR	2	16	[0, 0, 0]	n/a	FR1	1	R1151E
1784.612	1.0	1838708	WORD_OFF	n/a	n/a	PEAR	2	16	[0, 0, 0]	n/a	FR1	1	R1151E
1785.612	1.617	1839708	WORD	n/a	wordpools/wordpool_EN.txt	FUDGE	3	16	[0, 0, 0]	n/a	FR1	1	R1151E
1787.229	0.884	1841325	WORD_OFF	n/a	n/a	FUDGE	3	16	[0, 0, 0]	n/a	FR1	1	R1151E
1788.113	1.617	1842209	WORD	n/a	wordpools/wordpool_EN.txt	TOAST	4	16	[0, 0, 0]	n/a	FR1	1	R1151E
1789.73	0.85	1843826	WORD_OFF	n/a	n/a	TOAST	4	16	[0, 0, 0]	n/a	FR1	1	R1151E
1790.58	1.617	1844676	WORD	n/a	wordpools/wordpool_EN.txt	TOAD	5	16	[0, 0, 0]	n/a	FR1	1	R1151E
1792.197	0.917	1846293	WORD_OFF	n/a	n/a	TOAD	5	16	[0, 0, 0]	n/a	FR1	1	R1151E
1793.114	1.617	1847210	WORD	n/a	wordpools/wordpool_EN.txt	GRASS	6	16	[0, 0, 0]	n/a	FR1	1	R1151E
1794.731	0.95	1848826	WORD_OFF	n/a	n/a	GRASS	6	16	[0, 0, 0]	n/a	FR1	1	R1151E
1795.681	1.617	1849776	WORD	n/a	wordpools/wordpool_EN.txt	CHEEK	7	16	[0, 0, 0]	n/a	FR1	1	R1151E
1797.298	0.983	1851393	WORD_OFF	n/a	n/a	CHEEK	7	16	[0, 0, 0]	n/a	FR1	1	R1151E
1798.281	1.617	1852376	WORD	n/a	wordpools/wordpool_EN.txt	ANT	8	16	[0, 0, 0]	n/a	FR1	1	R1151E
1799.898	0.767	1853993	WORD_OFF	n/a	n/a	ANT	8	16	[0, 0, 0]	n/a	FR1	1	R1151E
1800.665	1.617	1854760	WORD	n/a	wordpools/wordpool_EN.txt	DIME	9	16	[0, 0, 0]	n/a	FR1	1	R1151E
1802.282	0.867	1856377	WORD_OFF	n/a	n/a	DIME	9	16	[0, 0, 0]	n/a	FR1	1	R1151E
1803.149	1.617	1857244	WORD	n/a	wordpools/wordpool_EN.txt	HILL	10	16	[0, 0, 0]	n/a	FR1	1	R1151E
1804.766	0.9	1858861	WORD_OFF	n/a	n/a	HILL	10	16	[0, 0, 0]	n/a	FR1	1	R1151E
1805.666	1.617	1859761	WORD	n/a	wordpools/wordpool_EN.txt	LEAF	11	16	[0, 0, 0]	n/a	FR1	1	R1151E
1807.283	0.983	1861378	WORD_OFF	n/a	n/a	LEAF	11	16	[0, 0, 0]	n/a	FR1	1	R1151E
1808.266	1.617	1862361	WORD	n/a	wordpools/wordpool_EN.txt	DOLL	12	16	[0, 0, 0]	n/a	FR1	1	R1151E
1809.883	0.0	1863978	WORD_OFF	n/a	n/a	DOLL	12	16	[0, 0, 0]	n/a	FR1	1	R1151E
1809.883	0.001	1863978	DISTRACT_START	n/a	n/a	n/a	-999	16	[0, 0, 0]	n/a	FR1	1	R1151E
1809.884	0.016	1863979	START	n/a	n/a	n/a	-999	16	[-999, -999, -999]	n/a	FR1	1	R1151E
1809.9	10.402	1863995	PROB	10.402	n/a	n/a	-999	16	[2, 7, 4]	13	FR1	1	R1151E
1820.302	7.568	1874396	PROB	7.568	n/a	n/a	-999	16	[2, 7, 4]	13	FR1	1	R1151E
1827.87	4.894	1881964	PROB	4.894	n/a	n/a	-999	16	[4, 8, 9]	21	FR1	1	R1151E
1832.764	0.007	1886858	STOP	n/a	n/a	n/a	-999	16	[-999, -999, -999]	n/a	FR1	1	R1151E
1832.771	0.567	1886865	DISTRACT_END	n/a	n/a	n/a	-999	16	[0, 0, 0]	n/a	FR1	1	R1151E
1833.338	0.517	1887432	RETRIEVAL_ORIENT	n/a	n/a	n/a	-999	16	[0, 0, 0]	n/a	FR1	1	R1151E
1833.855	10.088	1887949	REC_START	n/a	n/a	n/a	-999	16	[0, 0, 0]	n/a	FR1	1	R1151E
1843.943	19.921	1898036	REC_WORD	19.921	n/a	TOAST	4	16	[0, 0, 0]	n/a	FR1	1	R1151E
1863.864	6.98	1917957	REC_END	n/a	n/a	n/a	-999	16	[0, 0, 0]	n/a	FR1	1	R1151E
1870.844	0.5	1924936	TRIAL	n/a	n/a	n/a	-999	17	[0, 0, 0]	n/a	FR1	1	R1151E
1871.344	10.428	1925436	COUNTDOWN_START	n/a	n/a	n/a	-999	17	[0, 0, 0]	n/a	FR1	1	R1151E
1881.772	0.007	1935864	COUNTDOWN_END	n/a	n/a	n/a	-999	17	[0, 0, 0]	n/a	FR1	1	R1151E
1881.779	1.617	1935871	ORIENT	n/a	n/a	n/a	-999	17	[0, 0, 0]	n/a	FR1	1	R1151E
1883.396	1.967	1937488	ORIENT_OFF	n/a	n/a	n/a	-999	17	[0, 0, 0]	n/a	FR1	1	R1151E
1885.363	1.617	1939455	WORD	n/a	wordpools/wordpool_EN.txt	STAIR	1	17	[0, 0, 0]	n/a	FR1	1	R1151E
1886.98	1.0	1941072	WORD_OFF	n/a	n/a	STAIR	1	17	[0, 0, 0]	n/a	FR1	1	R1151E
1887.98	1.617	1942072	WORD	n/a	wordpools/wordpool_EN.txt	FLUTE	2	17	[0, 0, 0]	n/a	FR1	1	R1151E
1889.597	0.784	1943689	WORD_OFF	n/a	n/a	FLUTE	2	17	[0, 0, 0]	n/a	FR1	1	R1151E
1890.381	1.617	1944473	WORD	n/a	wordpools/wordpool_EN.txt	ROOM	3	17	[0, 0, 0]	n/a	FR1	1	R1151E
1891.998	0.817	1946090	WORD_OFF	n/a	n/a	ROOM	3	17	[0, 0, 0]	n/a	FR1	1	R1151E
1892.815	1.618	1946907	WORD	n/a	wordpools/wordpool_EN.txt	SPRING	4	17	[0, 0, 0]	n/a	FR1	1	R1151E
1894.433	0.849	1948524	WORD_OFF	n/a	n/a	SPRING	4	17	[0, 0, 0]	n/a	FR1	1	R1151E
1895.282	1.617	1949373	WORD	n/a	wordpools/wordpool_EN.txt	STEAK	5	17	[0, 0, 0]	n/a	FR1	1	R1151E
1896.899	0.983	1950990	WORD_OFF	n/a	n/a	STEAK	5	17	[0, 0, 0]	n/a	FR1	1	R1151E
1897.882	1.617	1951973	WORD	n/a	wordpools/wordpool_EN.txt	WORM	6	17	[0, 0, 0]	n/a	FR1	1	R1151E
1899.499	0.8	1953590	WORD_OFF	n/a	n/a	WORM	6	17	[0, 0, 0]	n/a	FR1	1	R1151E
1900.299	1.617	1954390	WORD	n/a	wordpools/wordpool_EN.txt	SHOE	7	17	[0, 0, 0]	n/a	FR1	1	R1151E
1901.916	0.884	1956007	WORD_OFF	n/a	n/a	SHOE	7	17	[0, 0, 0]	n/a	FR1	1	R1151E
1902.8	1.617	1956891	WORD	n/a	wordpools/wordpool_EN.txt	MOLE	8	17	[0, 0, 0]	n/a	FR1	1	R1151E
1904.417	0.8	1958508	WORD_OFF	n/a	n/a	MOLE	8	17	[0, 0, 0]	n/a	FR1	1	R1151E
1905.217	1.617	1959308	WORD	n/a	wordpools/wordpool_EN.txt	FOOT	9	17	[0, 0, 0]	n/a	FR1	1	R1151E
1906.834	0.867	1960925	WORD_OFF	n/a	n/a	FOOT	9	17	[0, 0, 0]	n/a	FR1	1	R1151E
1907.701	1.617	1961792	WORD	n/a	wordpools/wordpool_EN.txt	TRUCK	10	17	[0, 0, 0]	n/a	FR1	1	R1151E
1909.318	0.983	1963409	WORD_OFF	n/a	n/a	TRUCK	10	17	[0, 0, 0]	n/a	FR1	1	R1151E
1910.301	1.617	1964392	WORD	n/a	wordpools/wordpool_EN.txt	BATH	11	17	[0, 0, 0]	n/a	FR1	1	R1151E
1911.918	0.95	1966009	WORD_OFF	n/a	n/a	BATH	11	17	[0, 0, 0]	n/a	FR1	1	R1151E
1912.868	1.618	1966959	WORD	n/a	wordpools/wordpool_EN.txt	SOAP	12	17	[0, 0, 0]	n/a	FR1	1	R1151E
1914.486	0.0	1968577	WORD_OFF	n/a	n/a	SOAP	12	17	[0, 0, 0]	n/a	FR1	1	R1151E
1914.486	0.001	1968577	DISTRACT_START	n/a	n/a	n/a	-999	17	[0, 0, 0]	n/a	FR1	1	R1151E
1914.487	0.015	1968578	START	n/a	n/a	n/a	-999	17	[-999, -999, -999]	n/a	FR1	1	R1151E
1914.502	8.818	1968593	PROB	8.818	n/a	n/a	-999	17	[3, 9, 4]	16	FR1	1	R1151E
1923.32	3.701	1977410	PROB	3.701	n/a	n/a	-999	17	[8, 1, 7]	16	FR1	1	R1151E
1927.021	6.435	1981111	PROB	6.435	n/a	n/a	-999	17	[8, 4, 1]	13	FR1	1	R1151E
1933.456	4.619	1987546	PROB	4.619	n/a	n/a	-999	17	[9, 4, 6]	19	FR1	1	R1151E
1938.075	0.014	1992165	STOP	n/a	n/a	n/a	-999	17	[-999, -999, -999]	n/a	FR1	1	R1151E
1938.089	0.667	1992179	DISTRACT_END	n/a	n/a	n/a	-999	17	[0, 0, 0]	n/a	FR1	1	R1151E
1938.756	0.517	1992846	RETRIEVAL_ORIENT	n/a	n/a	n/a	-999	17	[0, 0, 0]	n/a	FR1	1	R1151E
1939.273	0.695	1993363	REC_START	n/a	n/a	n/a	-999	17	[0, 0, 0]	n/a	FR1	1	R1151E
1939.968	1.283	1994058	REC_WORD	1.283	n/a	STAIR	1	17	[0, 0, 0]	n/a	FR1	1	R1151E
1941.251	0.819	1995341	REC_WORD	0.819	n/a	FLUTE	2	17	[0, 0, 0]	n/a	FR1	1	R1151E
1942.07	0.677	1996160	REC_WORD	0.677	n/a	ROOM	3	17	[0, 0, 0]	n/a	FR1	1	R1151E
1942.747	1.974	1996837	REC_WORD	1.974	n/a	SPRING	4	17	[0, 0, 0]	n/a	FR1	1	R1151E
1944.721	24.562	1998810	REC_WORD	24.562	n/a	STEAK	5	17	[0, 0, 0]	n/a	FR1	1	R1151E
1969.283	20.565	2023371	REC_END	n/a	n/a	n/a	-999	17	[0, 0, 0]	n/a	FR1	1	R1151E
1989.848	0.5	2043936	TRIAL	n/a	n/a	n/a	-999	18	[0, 0, 0]	n/a	FR1	1	R1151E
1990.348	10.428	2044436	COUNTDOWN_START	n/a	n/a	n/a	-999	18	[0, 0, 0]	n/a	FR1	1	R1151E
2000.776	0.008	2054863	COUNTDOWN_END	n/a	n/a	n/a	-999	18	[0, 0, 0]	n/a	FR1	1	R1151E
2000.784	1.617	2054871	ORIENT	n/a	n/a	n/a	-999	18	[0, 0, 0]	n/a	FR1	1	R1151E
2002.401	2.017	2056488	ORIENT_OFF	n/a	n/a	n/a	-999	18	[0, 0, 0]	n/a	FR1	1	R1151E
2004.418	1.617	2058505	WORD	n/a	wordpools/wordpool_EN.txt	DUCK	1	18	[0, 0, 0]	n/a	FR1	1	R1151E
2006.035	0.933	2060122	WORD_OFF	n/a	n/a	DUCK	1	18	[0, 0, 0]	n/a	FR1	1	R1151E
2006.968	1.617	2061055	WORD	n/a	wordpools/wordpool_EN.txt	BOY	2	18	[0, 0, 0]	n/a	FR1	1	R1151E
2008.585	0.95	2062672	WORD_OFF	n/a	n/a	BOY	2	18	[0, 0, 0]	n/a	FR1	1	R1151E
2009.535	1.617	2063622	WORD	n/a	wordpools/wordpool_EN.txt	FOAM	3	18	[0, 0, 0]	n/a	FR1	1	R1151E
2011.152	0.917	2065239	WORD_OFF	n/a	n/a	FOAM	3	18	[0, 0, 0]	n/a	FR1	1	R1151E
2012.069	1.617	2066156	WORD	n/a	wordpools/wordpool_EN.txt	COW	4	18	[0, 0, 0]	n/a	FR1	1	R1151E
2013.686	0.883	2067773	WORD_OFF	n/a	n/a	COW	4	18	[0, 0, 0]	n/a	FR1	1	R1151E
2014.569	1.617	2068656	WORD	n/a	wordpools/wordpool_EN.txt	ELF	5	18	[0, 0, 0]	n/a	FR1	1	R1151E
2016.186	0.884	2070273	WORD_OFF	n/a	n/a	ELF	5	18	[0, 0, 0]	n/a	FR1	1	R1151E
2017.07	1.617	2071157	WORD	n/a	wordpools/wordpool_EN.txt	STEAM	6	18	[0, 0, 0]	n/a	FR1	1	R1151E
2018.687	0.917	2072773	WORD_OFF	n/a	n/a	STEAM	6	18	[0, 0, 0]	n/a	FR1	1	R1151E
2019.604	1.617	2073690	WORD	n/a	wordpools/wordpool_EN.txt	PHONE	7	18	[0, 0, 0]	n/a	FR1	1	R1151E
2021.221	0.8	2075307	WORD_OFF	n/a	n/a	PHONE	7	18	[0, 0, 0]	n/a	FR1	1	R1151E
2022.021	1.617	2076107	WORD	n/a	wordpools/wordpool_EN.txt	BADGE	8	18	[0, 0, 0]	n/a	FR1	1	R1151E
2023.638	0.851	2077724	WORD_OFF	n/a	n/a	BADGE	8	18	[0, 0, 0]	n/a	FR1	1	R1151E
2024.489	1.616	2078575	WORD	n/a	wordpools/wordpool_EN.txt	FLAME	9	18	[0, 0, 0]	n/a	FR1	1	R1151E
2026.105	0.817	2080191	WORD_OFF	n/a	n/a	FLAME	9	18	[0, 0, 0]	n/a	FR1	1	R1151E
2026.922	1.616	2081008	WORD	n/a	wordpools/wordpool_EN.txt	BAT	10	18	[0, 0, 0]	n/a	FR1	1	R1151E
2028.538	0.935	2082624	WORD_OFF	n/a	n/a	BAT	10	18	[0, 0, 0]	n/a	FR1	1	R1151E
2029.473	1.616	2083559	WORD	n/a	wordpools/wordpool_EN.txt	SHELL	11	18	[0, 0, 0]	n/a	FR1	1	R1151E
2031.089	0.767	2085175	WORD_OFF	n/a	n/a	SHELL	11	18	[0, 0, 0]	n/a	FR1	1	R1151E
2031.856	1.618	2085942	WORD	n/a	wordpools/wordpool_EN.txt	JEEP	12	18	[0, 0, 0]	n/a	FR1	1	R1151E
2033.474	0.0	2087560	WORD_OFF	n/a	n/a	JEEP	12	18	[0, 0, 0]	n/a	FR1	1	R1151E
2033.474	0.0	2087560	DISTRACT_START	n/a	n/a	n/a	-999	18	[0, 0, 0]	n/a	FR1	1	R1151E
2033.474	0.016	2087560	START	n/a	n/a	n/a	-999	18	[-999, -999, -999]	n/a	FR1	1	R1151E
2033.49	10.935	2087576	PROB	10.935	n/a	n/a	-999	18	[7, 9, 6]	22	FR1	1	R1151E
2044.425	3.917	2098510	PROB	3.917	n/a	n/a	-999	18	[2, 8, 8]	18	FR1	1	R1151E
2048.342	9.789	2102427	PROB	9.789	n/a	n/a	-999	18	[2, 9, 1]	12	FR1	1	R1151E
2058.131	0.013	2112216	STOP	n/a	n/a	n/a	-999	18	[-999, -999, -999]	n/a	FR1	1	R1151E
2058.144	0.7	2112229	DISTRACT_END	n/a	n/a	n/a	-999	18	[0, 0, 0]	n/a	FR1	1	R1151E
2058.844	0.517	2112929	RETRIEVAL_ORIENT	n/a	n/a	n/a	-999	18	[0, 0, 0]	n/a	FR1	1	R1151E
2059.361	9.879	2113446	REC_START	n/a	n/a	n/a	-999	18	[0, 0, 0]	n/a	FR1	1	R1151E
2069.24	0.595	2123324	REC_WORD	0.595	n/a	DUNE	-999	18	[0, 0, 0]	n/a	FR1	1	R1151E
2069.835	0.672	2123919	REC_WORD	0.672	n/a	BOY	2	18	[0, 0, 0]	n/a	FR1	1	R1151E
2070.507	18.864	2124591	REC_WORD	18.864	n/a	ELF	5	18	[0, 0, 0]	n/a	FR1	1	R1151E
2089.371	7.913	2143455	REC_END	n/a	n/a	n/a	-999	18	[0, 0, 0]	n/a	FR1	1	R1151E
2097.284	0.5	2151367	TRIAL	n/a	n/a	n/a	-999	19	[0, 0, 0]	n/a	FR1	1	R1151E
2097.784	10.428	2151867	COUNTDOWN_START	n/a	n/a	n/a	-999	19	[0, 0, 0]	n/a	FR1	1	R1151E
2108.212	0.007	2162295	COUNTDOWN_END	n/a	n/a	n/a	-999	19	[0, 0, 0]	n/a	FR1	1	R1151E
2108.219	1.617	2162302	ORIENT	n/a	n/a	n/a	-999	19	[0, 0, 0]	n/a	FR1	1	R1151E
2109.836	2.301	2163919	ORIENT_OFF	n/a	n/a	n/a	-999	19	[0, 0, 0]	n/a	FR1	1	R1151E
2112.137	1.617	2166220	WORD	n/a	wordpools/wordpool_EN.txt	SPONGE	1	19	[0, 0, 0]	n/a	FR1	1	R1151E
2113.754	0.833	2167837	WORD_OFF	n/a	n/a	SPONGE	1	19	[0, 0, 0]	n/a	FR1	1	R1151E
2114.587	1.617	2168670	WORD	n/a	wordpools/wordpool_EN.txt	SHRIMP	2	19	[0, 0, 0]	n/a	FR1	1	R1151E
2116.204	0.933	2170287	WORD_OFF	n/a	n/a	SHRIMP	2	19	[0, 0, 0]	n/a	FR1	1	R1151E
2117.137	1.617	2171220	WORD	n/a	wordpools/wordpool_EN.txt	CLIFF	3	19	[0, 0, 0]	n/a	FR1	1	R1151E
2118.754	0.967	2172836	WORD_OFF	n/a	n/a	CLIFF	3	19	[0, 0, 0]	n/a	FR1	1	R1151E
2119.721	1.617	2173803	WORD	n/a	wordpools/wordpool_EN.txt	HEN	4	19	[0, 0, 0]	n/a	FR1	1	R1151E
2121.338	0.9	2175420	WORD_OFF	n/a	n/a	HEN	4	19	[0, 0, 0]	n/a	FR1	1	R1151E
2122.238	1.617	2176320	WORD	n/a	wordpools/wordpool_EN.txt	SLEEVE	5	19	[0, 0, 0]	n/a	FR1	1	R1151E
2123.855	0.934	2177937	WORD_OFF	n/a	n/a	SLEEVE	5	19	[0, 0, 0]	n/a	FR1	1	R1151E
2124.789	1.617	2178871	WORD	n/a	wordpools/wordpool_EN.txt	STONE	6	19	[0, 0, 0]	n/a	FR1	1	R1151E
2126.406	0.933	2180488	WORD_OFF	n/a	n/a	STONE	6	19	[0, 0, 0]	n/a	FR1	1	R1151E
2127.339	1.617	2181421	WORD	n/a	wordpools/wordpool_EN.txt	CONE	7	19	[0, 0, 0]	n/a	FR1	1	R1151E
2128.956	0.934	2183038	WORD_OFF	n/a	n/a	CONE	7	19	[0, 0, 0]	n/a	FR1	1	R1151E
2129.89	1.617	2183972	WORD	n/a	wordpools/wordpool_EN.txt	SUN	8	19	[0, 0, 0]	n/a	FR1	1	R1151E
2131.507	0.934	2185589	WORD_OFF	n/a	n/a	SUN	8	19	[0, 0, 0]	n/a	FR1	1	R1151E
2132.441	1.616	2186523	WORD	n/a	wordpools/wordpool_EN.txt	TRASH	9	19	[0, 0, 0]	n/a	FR1	1	R1151E
2134.057	0.85	2188139	WORD_OFF	n/a	n/a	TRASH	9	19	[0, 0, 0]	n/a	FR1	1	R1151E
2134.907	1.617	2188989	WORD	n/a	wordpools/wordpool_EN.txt	APE	10	19	[0, 0, 0]	n/a	FR1	1	R1151E
2136.524	0.85	2190606	WORD_OFF	n/a	n/a	APE	10	19	[0, 0, 0]	n/a	FR1	1	R1151E
2137.374	1.617	2191456	WORD	n/a	wordpools/wordpool_EN.txt	PALM	11	19	[0, 0, 0]	n/a	FR1	1	R1151E
2138.991	0.934	2193073	WORD_OFF	n/a	n/a	PALM	11	19	[0, 0, 0]	n/a	FR1	1	R1151E
2139.925	1.617	2194007	WORD	n/a	wordpools/wordpool_EN.txt	SQUARE	12	19	[0, 0, 0]	n/a	FR1	1	R1151E
2141.542	0.0	2195624	WORD_OFF	n/a	n/a	SQUARE	12	19	[0, 0, 0]	n/a	FR1	1	R1151E
2141.542	0.0	2195624	DISTRACT_START	n/a	n/a	n/a	-999	19	[0, 0, 0]	n/a	FR1	1	R1151E
2141.542	0.016	2195624	START	n/a	n/a	n/a	-999	19	[-999, -999, -999]	n/a	FR1	1	R1151E
2141.558	6.435	2195640	PROB	6.435	n/a	n/a	-999	19	[1, 5, 4]	10	FR1	1	R1151E
2147.993	4.034	2202074	PROB	4.034	n/a	n/a	-999	19	[7, 9, 4]	20	FR1	1	R1151E
2152.027	3.451	2206108	PROB	3.451	n/a	n/a	-999	19	[7, 1, 3]	11	FR1	1	R1151E
2155.478	3.317	2209559	PROB	3.317	n/a	n/a	-999	19	[8, 1, 2]	11	FR1	1	R1151E
2158.795	3.256	2212876	PROB	3.256	n/a	n/a	-999	19	[1, 4, 2]	7	FR1	1	R1151E
2162.051	0.011	2216132	STOP	n/a	n/a	n/a	-999	19	[-999, -999, -999]	n/a	FR1	1	R1151E
2162.062	0.584	2216143	DISTRACT_END	n/a	n/a	n/a	-999	19	[0, 0, 0]	n/a	FR1	1	R1151E
2162.646	0.517	2216727	RETRIEVAL_ORIENT	n/a	n/a	n/a	-999	19	[0, 0, 0]	n/a	FR1	1	R1151E
2163.163	0.461	2217244	REC_START	n/a	n/a	n/a	-999	19	[0, 0, 0]	n/a	FR1	1	R1151E
2163.624	1.055	2217705	REC_WORD	1.055	n/a	SPONGE	1	19	[0, 0, 0]	n/a	FR1	1	R1151E
2164.679	5.766	2218760	REC_WORD	5.766	n/a	SHRIMP	2	19	[0, 0, 0]	n/a	FR1	1	R1151E
2170.445	22.727	2224525	REC_WORD	22.727	n/a	CLIFF	3	19	[0, 0, 0]	n/a	FR1	1	R1151E
2193.172	5.947	2247251	REC_END	n/a	n/a	n/a	-999	19	[0, 0, 0]	n/a	FR1	1	R1151E
2199.119	0.5	2253198	TRIAL	n/a	n/a	n/a	-999	20	[0, 0, 0]	n/a	FR1	1	R1151E
2199.619	10.428	2253698	COUNTDOWN_START	n/a	n/a	n/a	-999	20	[0, 0, 0]	n/a	FR1	1	R1151E
2210.047	0.007	2264126	COUNTDOWN_END	n/a	n/a	n/a	-999	20	[0, 0, 0]	n/a	FR1	1	R1151E
2210.054	1.617	2264133	ORIENT	n/a	n/a	n/a	-999	20	[0, 0, 0]	n/a	FR1	1	R1151E
2211.671	2.1	2265750	ORIENT_OFF	n/a	n/a	n/a	-999	20	[0, 0, 0]	n/a	FR1	1	R1151E
2213.771	1.617	2267850	WORD	n/a	wordpools/wordpool_EN.txt	SHEEP	1	20	[0, 0, 0]	n/a	FR1	1	R1151E
2215.388	0.867	2269467	WORD_OFF	n/a	n/a	SHEEP	1	20	[0, 0, 0]	n/a	FR1	1	R1151E
2216.255	1.617	2270334	WORD	n/a	wordpools/wordpool_EN.txt	WHEEL	2	20	[0, 0, 0]	n/a	FR1	1	R1151E
2217.872	1.0	2271951	WORD_OFF	n/a	n/a	WHEEL	2	20	[0, 0, 0]	n/a	FR1	1	R1151E
2218.872	1.618	2272950	WORD	n/a	wordpools/wordpool_EN.txt	SWORD	3	20	[0, 0, 0]	n/a	FR1	1	R1151E
2220.49	0.983	2274568	WORD_OFF	n/a	n/a	SWORD	3	20	[0, 0, 0]	n/a	FR1	1	R1151E
2221.473	1.616	2275551	WORD	n/a	wordpools/wordpool_EN.txt	BRIDGE	4	20	[0, 0, 0]	n/a	FR1	1	R1151E
2223.089	0.817	2277167	WORD_OFF	n/a	n/a	BRIDGE	4	20	[0, 0, 0]	n/a	FR1	1	R1151E
2223.906	1.617	2277984	WORD	n/a	wordpools/wordpool_EN.txt	CAR	5	20	[0, 0, 0]	n/a	FR1	1	R1151E
2225.523	0.867	2279601	WORD_OFF	n/a	n/a	CAR	5	20	[0, 0, 0]	n/a	FR1	1	R1151E
2226.39	1.617	2280468	WORD	n/a	wordpools/wordpool_EN.txt	VEST	6	20	[0, 0, 0]	n/a	FR1	1	R1151E
2228.007	0.983	2282085	WORD_OFF	n/a	n/a	VEST	6	20	[0, 0, 0]	n/a	FR1	1	R1151E
2228.99	1.617	2283068	WORD	n/a	wordpools/wordpool_EN.txt	TRAIN	7	20	[0, 0, 0]	n/a	FR1	1	R1151E
2230.607	0.868	2284685	WORD_OFF	n/a	n/a	TRAIN	7	20	[0, 0, 0]	n/a	FR1	1	R1151E
2231.475	1.616	2285553	WORD	n/a	wordpools/wordpool_EN.txt	DOCK	8	20	[0, 0, 0]	n/a	FR1	1	R1151E
2233.091	0.867	2287169	WORD_OFF	n/a	n/a	DOCK	8	20	[0, 0, 0]	n/a	FR1	1	R1151E
2233.958	1.617	2288036	WORD	n/a	wordpools/wordpool_EN.txt	SCHOOL	9	20	[0, 0, 0]	n/a	FR1	1	R1151E
2235.575	0.933	2289653	WORD_OFF	n/a	n/a	SCHOOL	9	20	[0, 0, 0]	n/a	FR1	1	R1151E
2236.508	1.617	2290586	WORD	n/a	wordpools/wordpool_EN.txt	BLOOM	10	20	[0, 0, 0]	n/a	FR1	1	R1151E
2238.125	0.784	2292203	WORD_OFF	n/a	n/a	BLOOM	10	20	[0, 0, 0]	n/a	FR1	1	R1151E
2238.909	1.617	2292987	WORD	n/a	wordpools/wordpool_EN.txt	LAMP	11	20	[0, 0, 0]	n/a	FR1	1	R1151E
2240.526	0.967	2294604	WORD_OFF	n/a	n/a	LAMP	11	20	[0, 0, 0]	n/a	FR1	1	R1151E
2241.493	1.617	2295571	WORD	n/a	wordpools/wordpool_EN.txt	FROG	12	20	[0, 0, 0]	n/a	FR1	1	R1151E
2243.11	0.0	2297187	WORD_OFF	n/a	n/a	FROG	12	20	[0, 0, 0]	n/a	FR1	1	R1151E
2243.11	0.0	2297187	DISTRACT_START	n/a	n/a	n/a	-999	20	[0, 0, 0]	n/a	FR1	1	R1151E
2243.11	0.016	2297187	START	n/a	n/a	n/a	-999	20	[-999, -999, -999]	n/a	FR1	1	R1151E
2243.126	5.951	2297203	PROB	5.951	n/a	n/a	-999	20	[1, 6, 1]	8	FR1	1	R1151E
2249.077	3.484	2303154	PROB	3.484	n/a	n/a	-999	20	[3, 7, 8]	18	FR1	1	R1151E
2252.561	5.201	2306638	PROB	5.201	n/a	n/a	-999	20	[3, 7, 7]	17	FR1	1	R1151E
2257.762	6.152	2311839	PROB	6.152	n/a	n/a	-999	20	[5, 9, 4]	18	FR1	1	R1151E
2263.914	0.016	2317991	STOP	n/a	n/a	n/a	-999	20	[-999, -999, -999]	n/a	FR1	1	R1151E
2263.93	0.534	2318007	DISTRACT_END	n/a	n/a	n/a	-999	20	[0, 0, 0]	n/a	FR1	1	R1151E
2264.464	0.517	2318541	RETRIEVAL_ORIENT	n/a	n/a	n/a	-999	20	[0, 0, 0]	n/a	FR1	1	R1151E
2264.981	2.615	2319058	REC_START	n/a	n/a	n/a	-999	20	[0, 0, 0]	n/a	FR1	1	R1151E
2267.596	0.992	2321673	REC_WORD	0.992	n/a	SHEEP	1	20	[0, 0, 0]	n/a	FR1	1	R1151E
2268.588	4.688	2322664	REC_WORD	4.688	n/a	WHEEL	2	20	[0, 0, 0]	n/a	FR1	1	R1151E
2273.276	0.756	2327352	REC_WORD	0.756	n/a	STORE	-999	20	[0, 0, 0]	n/a	FR1	1	R1151E
2274.032	1.52	2328108	REC_WORD	1.52	n/a	CAR	5	20	[0, 0, 0]	n/a	FR1	1	R1151E
2275.552	19.439	2329628	REC_WORD	19.439	n/a	MOTH	-999	20	[0, 0, 0]	n/a	FR1	1	R1151E
2294.991	6.012	2349066	REC_END	n/a	n/a	n/a	-999	20	[0, 0, 0]	n/a	FR1	1	R1151E
2301.003	0.5	2355078	TRIAL	n/a	n/a	n/a	-999	21	[0, 0, 0]	n/a	FR1	1	R1151E
2301.503	10.428	2355578	COUNTDOWN_START	n/a	n/a	n/a	-999	21	[0, 0, 0]	n/a	FR1	1	R1151E
2311.931	0.007	2366006	COUNTDOWN_END	n/a	n/a	n/a	-999	21	[0, 0, 0]	n/a	FR1	1	R1151E
2311.938	1.617	2366013	ORIENT	n/a	n/a	n/a	-999	21	[0, 0, 0]	n/a	FR1	1	R1151E
2313.555	2.134	2367630	ORIENT_OFF	n/a	n/a	n/a	-999	21	[0, 0, 0]	n/a	FR1	1	R1151E
2315.689	1.617	2369764	WORD	n/a	wordpools/wordpool_EN.txt	STRAW	1	21	[0, 0, 0]	n/a	FR1	1	R1151E
2317.306	0.783	2371381	WORD_OFF	n/a	n/a	STRAW	1	21	[0, 0, 0]	n/a	FR1	1	R1151E
2318.089	1.617	2372163	WORD	n/a	wordpools/wordpool_EN.txt	JAR	2	21	[0, 0, 0]	n/a	FR1	1	R1151E
2319.706	0.951	2373780	WORD_OFF	n/a	n/a	JAR	2	21	[0, 0, 0]	n/a	FR1	1	R1151E
2320.657	1.617	2374731	WORD	n/a	wordpools/wordpool_EN.txt	LOCK	3	21	[0, 0, 0]	n/a	FR1	1	R1151E
2322.274	0.983	2376348	WORD_OFF	n/a	n/a	LOCK	3	21	[0, 0, 0]	n/a	FR1	1	R1151E
2323.257	1.617	2377331	WORD	n/a	wordpools/wordpool_EN.txt	ZOO	4	21	[0, 0, 0]	n/a	FR1	1	R1151E
2324.874	0.833	2378948	WORD_OFF	n/a	n/a	ZOO	4	21	[0, 0, 0]	n/a	FR1	1	R1151E
2325.707	1.617	2379781	WORD	n/a	wordpools/wordpool_EN.txt	BEAR	5	21	[0, 0, 0]	n/a	FR1	1	R1151E
2327.324	0.951	2381398	WORD_OFF	n/a	n/a	BEAR	5	21	[0, 0, 0]	n/a	FR1	1	R1151E
2328.275	1.616	2382349	WORD	n/a	wordpools/wordpool_EN.txt	KEY	6	21	[0, 0, 0]	n/a	FR1	1	R1151E
2329.891	0.917	2383965	WORD_OFF	n/a	n/a	KEY	6	21	[0, 0, 0]	n/a	FR1	1	R1151E
2330.808	1.617	2384882	WORD	n/a	wordpools/wordpool_EN.txt	EEL	7	21	[0, 0, 0]	n/a	FR1	1	R1151E
2332.425	1.0	2386499	WORD_OFF	n/a	n/a	EEL	7	21	[0, 0, 0]	n/a	FR1	1	R1151E
2333.425	1.617	2387499	WORD	n/a	wordpools/wordpool_EN.txt	BREAD	8	21	[0, 0, 0]	n/a	FR1	1	R1151E
2335.042	0.901	2389116	WORD_OFF	n/a	n/a	BREAD	8	21	[0, 0, 0]	n/a	FR1	1	R1151E
2335.943	1.617	2390017	WORD	n/a	wordpools/wordpool_EN.txt	BOMB	9	21	[0, 0, 0]	n/a	FR1	1	R1151E
2337.56	0.884	2391634	WORD_OFF	n/a	n/a	BOMB	9	21	[0, 0, 0]	n/a	FR1	1	R1151E
2338.444	1.616	2392518	WORD	n/a	wordpools/wordpool_EN.txt	STEM	10	21	[0, 0, 0]	n/a	FR1	1	R1151E
2340.06	0.95	2394134	WORD_OFF	n/a	n/a	STEM	10	21	[0, 0, 0]	n/a	FR1	1	R1151E
2341.01	1.617	2395084	WORD	n/a	wordpools/wordpool_EN.txt	POLE	11	21	[0, 0, 0]	n/a	FR1	1	R1151E
2342.627	0.784	2396701	WORD_OFF	n/a	n/a	POLE	11	21	[0, 0, 0]	n/a	FR1	1	R1151E
2343.411	1.617	2397484	WORD	n/a	wordpools/wordpool_EN.txt	FOG	12	21	[0, 0, 0]	n/a	FR1	1	R1151E
2345.028	0.0	2399101	WORD_OFF	n/a	n/a	FOG	12	21	[0, 0, 0]	n/a	FR1	1	R1151E
2345.028	0.0	2399101	DISTRACT_START	n/a	n/a	n/a	-999	21	[0, 0, 0]	n/a	FR1	1	R1151E
2345.028	0.016	2399101	START	n/a	n/a	n/a	-999	21	[-999, -999, -999]	n/a	FR1	1	R1151E
2345.044	7.018	2399117	PROB	7.018	n/a	n/a	-999	21	[8, 8, 9]	17	FR1	1	R1151E
2352.062	3.418	2406135	PROB	3.418	n/a	n/a	-999	21	[5, 5, 3]	13	FR1	1	R1151E
2355.48	11.703	2409553	PROB	11.703	n/a	n/a	-999	21	[3, 8, 3]	14	FR1	1	R1151E
2367.183	0.015	2421256	STOP	n/a	n/a	n/a	-999	21	[-999, -999, -999]	n/a	FR1	1	R1151E
2367.198	0.7	2421271	DISTRACT_END	n/a	n/a	n/a	-999	21	[0, 0, 0]	n/a	FR1	1	R1151E
2367.898	0.518	2421970	RETRIEVAL_ORIENT	n/a	n/a	n/a	-999	21	[0, 0, 0]	n/a	FR1	1	R1151E
2368.416	5.716	2422488	REC_START	n/a	n/a	n/a	-999	21	[0, 0, 0]	n/a	FR1	1	R1151E
2374.132	0.705	2428204	REC_WORD	0.705	n/a	STRAW	1	21	[0, 0, 0]	n/a	FR1	1	R1151E
2374.837	0.476	2428909	REC_WORD	0.476	n/a	LOCK	3	21	[0, 0, 0]	n/a	FR1	1	R1151E
2375.313	0.371	2429385	REC_WORD	0.371	n/a	KEY	6	21	[0, 0, 0]	n/a	FR1	1	R1151E
2375.684	22.741	2429756	REC_WORD	22.741	n/a	FROG	-999	21	[0, 0, 0]	n/a	FR1	1	R1151E
2398.425	6.413	2452496	REC_END	n/a	n/a	n/a	-999	21	[0, 0, 0]	n/a	FR1	1	R1151E
2404.838	0.5	2458909	TRIAL	n/a	n/a	n/a	-999	22	[0, 0, 0]	n/a	FR1	1	R1151E
2405.338	10.428	2459409	COUNTDOWN_START	n/a	n/a	n/a	-999	22	[0, 0, 0]	n/a	FR1	1	R1151E
2415.766	0.007	2469837	COUNTDOWN_END	n/a	n/a	n/a	-999	22	[0, 0, 0]	n/a	FR1	1	R1151E
2415.773	1.617	2469844	ORIENT	n/a	n/a	n/a	-999	22	[0, 0, 0]	n/a	FR1	1	R1151E
2417.39	2.052	2471461	ORIENT_OFF	n/a	n/a	n/a	-999	22	[0, 0, 0]	n/a	FR1	1	R1151E
2419.442	1.616	2473512	WORD	n/a	wordpools/wordpool_EN.txt	THREAD	1	22	[0, 0, 0]	n/a	FR1	1	R1151E
2421.058	0.833	2475128	WORD_OFF	n/a	n/a	THREAD	1	22	[0, 0, 0]	n/a	FR1	1	R1151E
2421.891	1.617	2475961	WORD	n/a	wordpools/wordpool_EN.txt	TOOTH	2	22	[0, 0, 0]	n/a	FR1	1	R1151E
2423.508	0.951	2477578	WORD_OFF	n/a	n/a	TOOTH	2	22	[0, 0, 0]	n/a	FR1	1	R1151E
2424.459	1.616	2478529	WORD	n/a	wordpools/wordpool_EN.txt	PEARL	3	22	[0, 0, 0]	n/a	FR1	1	R1151E
2426.075	0.767	2480145	WORD_OFF	n/a	n/a	PEARL	3	22	[0, 0, 0]	n/a	FR1	1	R1151E
2426.842	1.618	2480912	WORD	n/a	wordpools/wordpool_EN.txt	FOX	4	22	[0, 0, 0]	n/a	FR1	1	R1151E
2428.46	1.0	2482530	WORD_OFF	n/a	n/a	FOX	4	22	[0, 0, 0]	n/a	FR1	1	R1151E
2429.46	1.616	2483530	WORD	n/a	wordpools/wordpool_EN.txt	TEETH	5	22	[0, 0, 0]	n/a	FR1	1	R1151E
2431.076	1.0	2485146	WORD_OFF	n/a	n/a	TEETH	5	22	[0, 0, 0]	n/a	FR1	1	R1151E
2432.076	1.617	2486146	WORD	n/a	wordpools/wordpool_EN.txt	JUDGE	6	22	[0, 0, 0]	n/a	FR1	1	R1151E
2433.693	0.884	2487763	WORD_OFF	n/a	n/a	JUDGE	6	22	[0, 0, 0]	n/a	FR1	1	R1151E
2434.577	1.617	2488647	WORD	n/a	wordpools/wordpool_EN.txt	SHEET	7	22	[0, 0, 0]	n/a	FR1	1	R1151E
2436.194	0.833	2490264	WORD_OFF	n/a	n/a	SHEET	7	22	[0, 0, 0]	n/a	FR1	1	R1151E
2437.027	1.617	2491097	WORD	n/a	wordpools/wordpool_EN.txt	FILM	8	22	[0, 0, 0]	n/a	FR1	1	R1151E
2438.644	0.917	2492714	WORD_OFF	n/a	n/a	FILM	8	22	[0, 0, 0]	n/a	FR1	1	R1151E
2439.561	1.617	2493631	WORD	n/a	wordpools/wordpool_EN.txt	NAIL	9	22	[0, 0, 0]	n/a	FR1	1	R1151E
2441.178	0.917	2495248	WORD_OFF	n/a	n/a	NAIL	9	22	[0, 0, 0]	n/a	FR1	1	R1151E
2442.095	1.617	2496165	WORD	n/a	wordpools/wordpool_EN.txt	CORD	10	22	[0, 0, 0]	n/a	FR1	1	R1151E
2443.712	0.916	2497781	WORD_OFF	n/a	n/a	CORD	10	22	[0, 0, 0]	n/a	FR1	1	R1151E
2444.628	1.617	2498697	WORD	n/a	wordpools/wordpool_EN.txt	CASH	11	22	[0, 0, 0]	n/a	FR1	1	R1151E
2446.245	0.85	2500314	WORD_OFF	n/a	n/a	CASH	11	22	[0, 0, 0]	n/a	FR1	1	R1151E
2447.095	1.617	2501164	WORD	n/a	wordpools/wordpool_EN.txt	KITE	12	22	[0, 0, 0]	n/a	FR1	1	R1151E
2448.712	0.0	2502781	WORD_OFF	n/a	n/a	KITE	12	22	[0, 0, 0]	n/a	FR1	1	R1151E
2448.712	0.001	2502781	DISTRACT_START	n/a	n/a	n/a	-999	22	[0, 0, 0]	n/a	FR1	1	R1151E
2448.713	0.016	2502782	START	n/a	n/a	n/a	-999	22	[-999, -999, -999]	n/a	FR1	1	R1151E
2448.729	8.068	2502798	PROB	8.068	n/a	n/a	-999	22	[9, 8, 6]	23	FR1	1	R1151E
2456.797	3.584	2510866	PROB	3.584	n/a	n/a	-999	22	[4, 4, 4]	12	FR1	1	R1151E
2460.381	5.868	2514450	PROB	5.868	n/a	n/a	-999	22	[4, 3, 4]	11	FR1	1	R1151E
2466.249	3.452	2520318	PROB	3.452	n/a	n/a	-999	22	[9, 7, 4]	20	FR1	1	R1151E
2469.701	0.015	2523769	STOP	n/a	n/a	n/a	-999	22	[-999, -999, -999]	n/a	FR1	1	R1151E
2469.716	0.517	2523784	DISTRACT_END	n/a	n/a	n/a	-999	22	[0, 0, 0]	n/a	FR1	1	R1151E
2470.233	0.517	2524301	RETRIEVAL_ORIENT	n/a	n/a	n/a	-999	22	[0, 0, 0]	n/a	FR1	1	R1151E
2470.75	0.483	2524818	REC_START	n/a	n/a	n/a	-999	22	[0, 0, 0]	n/a	FR1	1	R1151E
2471.233	0.818	2525301	REC_WORD	0.818	n/a	THREAD	1	22	[0, 0, 0]	n/a	FR1	1	R1151E
2472.051	0.903	2526119	REC_WORD	0.903	n/a	TOOTH	2	22	[0, 0, 0]	n/a	FR1	1	R1151E
2472.954	0.786	2527022	REC_WORD	0.786	n/a	TEETH	5	22	[0, 0, 0]	n/a	FR1	1	R1151E
2473.74	27.02	2527808	REC_WORD	27.02	n/a	SHEET	7	22	[0, 0, 0]	n/a	FR1	1	R1151E
2500.76	8.463	2554827	REC_END	n/a	n/a	n/a	-999	22	[0, 0, 0]	n/a	FR1	1	R1151E
2509.223	0.5	2563290	TRIAL	n/a	n/a	n/a	-999	23	[0, 0, 0]	n/a	FR1	1	R1151E
2509.723	10.428	2563790	COUNTDOWN_START	n/a	n/a	n/a	-999	23	[0, 0, 0]	n/a	FR1	1	R1151E
2520.151	0.007	2574217	COUNTDOWN_END	n/a	n/a	n/a	-999	23	[0, 0, 0]	n/a	FR1	1	R1151E
2520.158	1.617	2574224	ORIENT	n/a	n/a	n/a	-999	23	[0, 0, 0]	n/a	FR1	1	R1151E
2521.775	2.101	2575841	ORIENT_OFF	n/a	n/a	n/a	-999	23	[0, 0, 0]	n/a	FR1	1	R1151E
2523.876	1.617	2577942	WORD	n/a	wordpools/wordpool_EN.txt	DITCH	1	23	[0, 0, 0]	n/a	FR1	1	R1151E
2525.493	0.9	2579559	WORD_OFF	n/a	n/a	DITCH	1	23	[0, 0, 0]	n/a	FR1	1	R1151E
2526.393	1.617	2580459	WORD	n/a	wordpools/wordpool_EN.txt	MOON	2	23	[0, 0, 0]	n/a	FR1	1	R1151E
2528.01	0.816	2582076	WORD_OFF	n/a	n/a	MOON	2	23	[0, 0, 0]	n/a	FR1	1	R1151E
2528.826	1.619	2582892	WORD	n/a	wordpools/wordpool_EN.txt	RICE	3	23	[0, 0, 0]	n/a	FR1	1	R1151E
2530.445	0.832	2584511	WORD_OFF	n/a	n/a	RICE	3	23	[0, 0, 0]	n/a	FR1	1	R1151E
2531.277	1.617	2585343	WORD	n/a	wordpools/wordpool_EN.txt	PEA	4	23	[0, 0, 0]	n/a	FR1	1	R1151E
2532.894	0.967	2586960	WORD_OFF	n/a	n/a	PEA	4	23	[0, 0, 0]	n/a	FR1	1	R1151E
2533.861	1.618	2587927	WORD	n/a	wordpools/wordpool_EN.txt	BAND	5	23	[0, 0, 0]	n/a	FR1	1	R1151E
2535.479	0.849	2589545	WORD_OFF	n/a	n/a	BAND	5	23	[0, 0, 0]	n/a	FR1	1	R1151E
2536.328	1.617	2590394	WORD	n/a	wordpools/wordpool_EN.txt	LEG	6	23	[0, 0, 0]	n/a	FR1	1	R1151E
2537.945	0.817	2592011	WORD_OFF	n/a	n/a	LEG	6	23	[0, 0, 0]	n/a	FR1	1	R1151E
2538.762	1.617	2592828	WORD	n/a	wordpools/wordpool_EN.txt	RAKE	7	23	[0, 0, 0]	n/a	FR1	1	R1151E
2540.379	0.9	2594445	WORD_OFF	n/a	n/a	RAKE	7	23	[0, 0, 0]	n/a	FR1	1	R1151E
2541.279	1.617	2595345	WORD	n/a	wordpools/wordpool_EN.txt	SPARK	8	23	[0, 0, 0]	n/a	FR1	1	R1151E
2542.896	0.766	2596961	WORD_OFF	n/a	n/a	SPARK	8	23	[0, 0, 0]	n/a	FR1	1	R1151E
2543.662	1.617	2597727	WORD	n/a	wordpools/wordpool_EN.txt	EGG	9	23	[0, 0, 0]	n/a	FR1	1	R1151E
2545.279	0.934	2599344	WORD_OFF	n/a	n/a	EGG	9	23	[0, 0, 0]	n/a	FR1	1	R1151E
2546.213	1.617	2600278	WORD	n/a	wordpools/wordpool_EN.txt	CUP	10	23	[0, 0, 0]	n/a	FR1	1	R1151E
2547.83	0.917	2601895	WORD_OFF	n/a	n/a	CUP	10	23	[0, 0, 0]	n/a	FR1	1	R1151E
2548.747	1.617	2602812	WORD	n/a	wordpools/wordpool_EN.txt	CROWN	11	23	[0, 0, 0]	n/a	FR1	1	R1151E
2550.364	0.8	2604429	WORD_OFF	n/a	n/a	CROWN	11	23	[0, 0, 0]	n/a	FR1	1	R1151E
2551.164	1.617	2605229	WORD	n/a	wordpools/wordpool_EN.txt	SKI	12	23	[0, 0, 0]	n/a	FR1	1	R1151E
2552.781	0.0	2606846	WORD_OFF	n/a	n/a	SKI	12	23	[0, 0, 0]	n/a	FR1	1	R1151E
2552.781	0.0	2606846	DISTRACT_START	n/a	n/a	n/a	-999	23	[0, 0, 0]	n/a	FR1	1	R1151E
2552.781	0.016	2606846	START	n/a	n/a	n/a	-999	23	[-999, -999, -999]	n/a	FR1	1	R1151E
2552.797	5.185	2606862	PROB	5.185	n/a	n/a	-999	23	[1, 6, 9]	16	FR1	1	R1151E
2557.982	1.933	2612047	PROB	1.933	n/a	n/a	-999	23	[4, 4, 4]	12	FR1	1	R1151E
2559.915	1.751	2613980	PROB	1.751	n/a	n/a	-999	23	[1, 1, 1]	3	FR1	1	R1151E
2561.666	3.55	2615731	PROB	3.55	n/a	n/a	-999	23	[2, 8, 1]	11	FR1	1	R1151E
2565.216	3.968	2619281	PROB	3.968	n/a	n/a	-999	23	[2, 8, 6]	16	FR1	1	R1151E
2569.184	5.057	2623248	PROB	5.057	n/a	n/a	-999	23	[9, 5, 2]	16	FR1	1	R1151E
2574.241	0.01	2628305	STOP	n/a	n/a	n/a	-999	23	[-999, -999, -999]	n/a	FR1	1	R1151E
2574.251	0.6	2628315	DISTRACT_END	n/a	n/a	n/a	-999	23	[0, 0, 0]	n/a	FR1	1	R1151E
2574.851	0.518	2628915	RETRIEVAL_ORIENT	n/a	n/a	n/a	-999	23	[0, 0, 0]	n/a	FR1	1	R1151E
2575.369	1.419	2629433	REC_START	n/a	n/a	n/a	-999	23	[0, 0, 0]	n/a	FR1	1	R1151E
2576.788	0.507	2630852	REC_WORD	0.507	n/a	DITCH	1	23	[0, 0, 0]	n/a	FR1	1	R1151E
2577.295	0.526	2631359	REC_WORD	0.526	n/a	ROOF	-999	23	[0, 0, 0]	n/a	FR1	1	R1151E
2577.821	0.549	2631885	REC_WORD	0.549	n/a	RICE	3	23	[0, 0, 0]	n/a	FR1	1	R1151E
2578.37	27.008	2632434	REC_WORD	27.008	n/a	BAND	5	23	[0, 0, 0]	n/a	FR1	1	R1151E
2605.378	5.613	2659441	REC_END	n/a	n/a	n/a	-999	23	[0, 0, 0]	n/a	FR1	1	R1151E
2610.991	0.5	2665054	TRIAL	n/a	n/a	n/a	-999	24	[0, 0, 0]	n/a	FR1	1	R1151E
2611.491	10.428	2665554	COUNTDOWN_START	n/a	n/a	n/a	-999	24	[0, 0, 0]	n/a	FR1	1	R1151E
2621.919	0.007	2675981	COUNTDOWN_END	n/a	n/a	n/a	-999	24	[0, 0, 0]	n/a	FR1	1	R1151E
2621.926	1.617	2675988	ORIENT	n/a	n/a	n/a	-999	24	[0, 0, 0]	n/a	FR1	1	R1151E
2623.543	1.967	2677605	ORIENT_OFF	n/a	n/a	n/a	-999	24	[0, 0, 0]	n/a	FR1	1	R1151E
2625.51	1.617	2679572	WORD	n/a	wordpools/wordpool_EN.txt	SLIME	1	24	[0, 0, 0]	n/a	FR1	1	R1151E
2627.127	0.95	2681189	WORD_OFF	n/a	n/a	SLIME	1	24	[0, 0, 0]	n/a	FR1	1	R1151E
2628.077	1.617	2682139	WORD	n/a	wordpools/wordpool_EN.txt	HAT	2	24	[0, 0, 0]	n/a	FR1	1	R1151E
2629.694	0.967	2683756	WORD_OFF	n/a	n/a	HAT	2	24	[0, 0, 0]	n/a	FR1	1	R1151E
2630.661	1.617	2684723	WORD	n/a	wordpools/wordpool_EN.txt	GUARD	3	24	[0, 0, 0]	n/a	FR1	1	R1151E
2632.278	0.784	2686340	WORD_OFF	n/a	n/a	GUARD	3	24	[0, 0, 0]	n/a	FR1	1	R1151E
2633.062	1.616	2687124	WORD	n/a	wordpools/wordpool_EN.txt	CHALK	4	24	[0, 0, 0]	n/a	FR1	1	R1151E
2634.678	0.768	2688740	WORD_OFF	n/a	n/a	CHALK	4	24	[0, 0, 0]	n/a	FR1	1	R1151E
2635.446	1.616	2689508	WORD	n/a	wordpools/wordpool_EN.txt	DRESS	5	24	[0, 0, 0]	n/a	FR1	1	R1151E
2637.062	0.967	2691124	WORD_OFF	n/a	n/a	DRESS	5	24	[0, 0, 0]	n/a	FR1	1	R1151E
2638.029	1.617	2692091	WORD	n/a	wordpools/wordpool_EN.txt	FARM	6	24	[0, 0, 0]	n/a	FR1	1	R1151E
2639.646	0.785	2693708	WORD_OFF	n/a	n/a	FARM	6	24	[0, 0, 0]	n/a	FR1	1	R1151E
2640.431	1.615	2694493	WORD	n/a	wordpools/wordpool_EN.txt	FACE	7	24	[0, 0, 0]	n/a	FR1	1	R1151E
2642.046	0.851	2696107	WORD_OFF	n/a	n/a	FACE	7	24	[0, 0, 0]	n/a	FR1	1	R1151E
2642.897	1.617	2696958	WORD	n/a	wordpools/wordpool_EN.txt	COUCH	8	24	[0, 0, 0]	n/a	FR1	1	R1151E
2644.514	0.833	2698575	WORD_OFF	n/a	n/a	COUCH	8	24	[0, 0, 0]	n/a	FR1	1	R1151E
2645.347	1.617	2699408	WORD	n/a	wordpools/wordpool_EN.txt	PEN	9	24	[0, 0, 0]	n/a	FR1	1	R1151E
2646.964	0.883	2701025	WORD_OFF	n/a	n/a	PEN	9	24	[0, 0, 0]	n/a	FR1	1	R1151E
2647.847	1.618	2701908	WORD	n/a	wordpools/wordpool_EN.txt	BOARD	10	24	[0, 0, 0]	n/a	FR1	1	R1151E
2649.465	0.85	2703526	WORD_OFF	n/a	n/a	BOARD	10	24	[0, 0, 0]	n/a	FR1	1	R1151E
2650.315	1.617	2704376	WORD	n/a	wordpools/wordpool_EN.txt	TOE	11	24	[0, 0, 0]	n/a	FR1	1	R1151E
2651.932	1.0	2705993	WORD_OFF	n/a	n/a	TOE	11	24	[0, 0, 0]	n/a	FR1	1	R1151E
2652.932	1.617	2706993	WORD	n/a	wordpools/wordpool_EN.txt	FORK	12	24	[0, 0, 0]	n/a	FR1	1	R1151E
2654.549	0.0	2708610	DISTRACT_START	n/a	n/a	n/a	-999	24	[0, 0, 0]	n/a	FR1	1	R1151E
2654.549	0.0	2708610	WORD_OFF	n/a	n/a	FORK	12	24	[0, 0, 0]	n/a	FR1	1	R1151E
2654.549	0.016	2708610	START	n/a	n/a	n/a	-999	24	[-999, -999, -999]	n/a	FR1	1	R1151E
2654.565	14.553	2708626	PROB	14.553	n/a	n/a	-999	24	[9, 5, 7]	21	FR1	1	R1151E
2669.118	6.373	2723178	PROB	6.373	n/a	n/a	-999	24	[2, 2, 8]	12	FR1	1	R1151E
2675.491	0.011	2729551	STOP	n/a	n/a	n/a	-999	24	[-999, -999, -999]	n/a	FR1	1	R1151E
2675.502	0.55	2729562	DISTRACT_END	n/a	n/a	n/a	-999	24	[0, 0, 0]	n/a	FR1	1	R1151E
2676.052	0.518	2730112	RETRIEVAL_ORIENT	n/a	n/a	n/a	-999	24	[0, 0, 0]	n/a	FR1	1	R1151E
2676.57	1.451	2730630	REC_START	n/a	n/a	n/a	-999	24	[0, 0, 0]	n/a	FR1	1	R1151E
2678.021	0.808	2732081	REC_WORD	0.808	n/a	SLIME	1	24	[0, 0, 0]	n/a	FR1	1	R1151E
2678.829	1.105	2732889	REC_WORD	1.105	n/a	HEART	-999	24	[0, 0, 0]	n/a	FR1	1	R1151E
2679.934	0.807	2733994	REC_WORD	0.807	n/a	GUARD	3	24	[0, 0, 0]	n/a	FR1	1	R1151E
2680.741	25.839	2734801	REC_WORD	25.839	n/a	CHALK	4	24	[0, 0, 0]	n/a	FR1	1	R1151E
2706.58	7.762	2760639	REC_END	n/a	n/a	n/a	-999	24	[0, 0, 0]	n/a	FR1	1	R1151E
2714.342	0.5	2768401	TRIAL	n/a	n/a	n/a	-999	25	[0, 0, 0]	n/a	FR1	1	R1151E
2714.842	10.428	2768901	COUNTDOWN_START	n/a	n/a	n/a	-999	25	[0, 0, 0]	n/a	FR1	1	R1151E
2725.27	0.008	2779328	COUNTDOWN_END	n/a	n/a	n/a	-999	25	[0, 0, 0]	n/a	FR1	1	R1151E
2725.278	1.617	2779336	ORIENT	n/a	n/a	n/a	-999	25	[0, 0, 0]	n/a	FR1	1	R1151E
2726.895	2.117	2780953	ORIENT_OFF	n/a	n/a	n/a	-999	25	[0, 0, 0]	n/a	FR1	1	R1151E
2729.012	1.617	2783070	WORD	n/a	wordpools/wordpool_EN.txt	JET	1	25	[0, 0, 0]	n/a	FR1	1	R1151E
2730.629	0.917	2784687	WORD_OFF	n/a	n/a	JET	1	25	[0, 0, 0]	n/a	FR1	1	R1151E
2731.546	1.617	2785604	WORD	n/a	wordpools/wordpool_EN.txt	RAT	2	25	[0, 0, 0]	n/a	FR1	1	R1151E
2733.163	0.85	2787221	WORD_OFF	n/a	n/a	RAT	2	25	[0, 0, 0]	n/a	FR1	1	R1151E
2734.013	1.617	2788071	WORD	n/a	wordpools/wordpool_EN.txt	SHIRT	3	25	[0, 0, 0]	n/a	FR1	1	R1151E
2735.63	0.95	2789688	WORD_OFF	n/a	n/a	SHIRT	3	25	[0, 0, 0]	n/a	FR1	1	R1151E
2736.58	1.617	2790638	WORD	n/a	wordpools/wordpool_EN.txt	PLANT	4	25	[0, 0, 0]	n/a	FR1	1	R1151E
2738.197	0.85	2792255	WORD_OFF	n/a	n/a	PLANT	4	25	[0, 0, 0]	n/a	FR1	1	R1151E
2739.047	1.617	2793105	WORD	n/a	wordpools/wordpool_EN.txt	CLOTH	5	25	[0, 0, 0]	n/a	FR1	1	R1151E
2740.664	0.9	2794722	WORD_OFF	n/a	n/a	CLOTH	5	25	[0, 0, 0]	n/a	FR1	1	R1151E
2741.564	1.617	2795622	WORD	n/a	wordpools/wordpool_EN.txt	MUG	6	25	[0, 0, 0]	n/a	FR1	1	R1151E
2743.181	0.85	2797238	WORD_OFF	n/a	n/a	MUG	6	25	[0, 0, 0]	n/a	FR1	1	R1151E
2744.031	1.617	2798088	WORD	n/a	wordpools/wordpool_EN.txt	FLAG	7	25	[0, 0, 0]	n/a	FR1	1	R1151E
2745.648	0.967	2799705	WORD_OFF	n/a	n/a	FLAG	7	25	[0, 0, 0]	n/a	FR1	1	R1151E
2746.615	1.617	2800672	WORD	n/a	wordpools/wordpool_EN.txt	FISH	8	25	[0, 0, 0]	n/a	FR1	1	R1151E
2748.232	0.867	2802289	WORD_OFF	n/a	n/a	FISH	8	25	[0, 0, 0]	n/a	FR1	1	R1151E
2749.099	1.617	2803156	WORD	n/a	wordpools/wordpool_EN.txt	PANTS	9	25	[0, 0, 0]	n/a	FR1	1	R1151E
2750.716	0.833	2804773	WORD_OFF	n/a	n/a	PANTS	9	25	[0, 0, 0]	n/a	FR1	1	R1151E
2751.549	1.617	2805606	WORD	n/a	wordpools/wordpool_EN.txt	SNAIL	10	25	[0, 0, 0]	n/a	FR1	1	R1151E
2753.166	0.917	2807223	WORD_OFF	n/a	n/a	SNAIL	10	25	[0, 0, 0]	n/a	FR1	1	R1151E
2754.083	1.617	2808140	WORD	n/a	wordpools/wordpool_EN.txt	HOOF	11	25	[0, 0, 0]	n/a	FR1	1	R1151E
2755.7	0.883	2809757	WORD_OFF	n/a	n/a	HOOF	11	25	[0, 0, 0]	n/a	FR1	1	R1151E
2756.583	1.617	2810640	WORD	n/a	wordpools/wordpool_EN.txt	STREET	12	25	[0, 0, 0]	n/a	FR1	1	R1151E
2758.2	0.0	2812257	WORD_OFF	n/a	n/a	STREET	12	25	[0, 0, 0]	n/a	FR1	1	R1151E
2758.2	0.001	2812257	DISTRACT_START	n/a	n/a	n/a	-999	25	[0, 0, 0]	n/a	FR1	1	R1151E
2758.201	0.016	2812258	START	n/a	n/a	n/a	-999	25	[-999, -999, -999]	n/a	FR1	1	R1151E
2758.217	5.868	2812274	PROB	5.868	n/a	n/a	-999	25	[9, 4, 9]	22	FR1	1	R1151E
2764.085	3.3	2818142	PROB	3.3	n/a	n/a	-999	25	[3, 9, 3]	15	FR1	1	R1151E
2767.385	5.401	2821441	PROB	5.401	n/a	n/a	-999	25	[6, 9, 1]	16	FR1	1	R1151E
2772.786	2.652	2826842	PROB	2.652	n/a	n/a	-999	25	[4, 4, 1]	9	FR1	1	R1151E
2775.438	3.299	2829494	PROB	3.299	n/a	n/a	-999	25	[1, 6, 1]	8	FR1	1	R1151E
2778.737	0.017	2832793	STOP	n/a	n/a	n/a	-999	25	[-999, -999, -999]	n/a	FR1	1	R1151E
2778.754	0.567	2832810	DISTRACT_END	n/a	n/a	n/a	-999	25	[0, 0, 0]	n/a	FR1	1	R1151E
2779.321	0.517	2833377	RETRIEVAL_ORIENT	n/a	n/a	n/a	-999	25	[0, 0, 0]	n/a	FR1	1	R1151E
2779.838	0.563	2833894	REC_START	n/a	n/a	n/a	-999	25	[0, 0, 0]	n/a	FR1	1	R1151E
2780.401	0.826	2834457	REC_WORD	0.826	n/a	JET	1	25	[0, 0, 0]	n/a	FR1	1	R1151E
2781.227	0.685	2835283	REC_WORD	0.685	n/a	RAT	2	25	[0, 0, 0]	n/a	FR1	1	R1151E
2781.912	1.035	2835968	REC_WORD	1.035	n/a	SNAIL	10	25	[0, 0, 0]	n/a	FR1	1	R1151E
2782.947	26.9	2837003	REC_WORD	26.9	n/a	SHIRT	3	25	[0, 0, 0]	n/a	FR1	1	R1151E
2809.847	0.0	2863902	REC_END	n/a	n/a	n/a	-999	25	[0, 0, 0]	n/a	FR1	1	R1151E
