onset	duration	sample	trial_type	response_time	stim_file	item_name	serialpos	list	test	answer	experiment	session	subject
0.0	26.514	7140	SESS_START	n/a	n/a	n/a	-999	-999	[0, 0, 0]	n/a	FR1	1	R1112M
26.514	10.428	20396	COUNTDOWN_START	n/a	n/a	n/a	-999	-999	[0, 0, 0]	n/a	FR1	1	R1112M
36.942	3.857	25610	COUNTDOWN_END	n/a	n/a	n/a	-999	-999	[0, 0, 0]	n/a	FR1	1	R1112M
40.799	2.602	27538	PRACTICE_WORD	n/a	n/a	CAMEL	1	-1	[0, 0, 0]	n/a	FR1	1	R1112M
43.401	2.499	28839	PRACTICE_WORD	n/a	n/a	RHINO	2	-1	[0, 0, 0]	n/a	FR1	1	R1112M
45.9	2.402	30089	PRACTICE_WORD	n/a	n/a	RING	3	-1	[0, 0, 0]	n/a	FR1	1	R1112M
48.302	2.549	31289	PRACTICE_WORD	n/a	n/a	IRON	4	-1	[0, 0, 0]	n/a	FR1	1	R1112M
50.851	2.585	32564	PRACTICE_WORD	n/a	n/a	BEAM	5	-1	[0, 0, 0]	n/a	FR1	1	R1112M
53.436	2.551	33856	PRACTICE_WORD	n/a	n/a	WAGON	6	-1	[0, 0, 0]	n/a	FR1	1	R1112M
55.987	2.599	35132	PRACTICE_WORD	n/a	n/a	ATTIC	7	-1	[0, 0, 0]	n/a	FR1	1	R1112M
58.586	2.502	36431	PRACTICE_WORD	n/a	n/a	CHEST	8	-1	[0, 0, 0]	n/a	FR1	1	R1112M
61.088	2.549	37682	PRACTICE_WORD	n/a	n/a	TONGUE	9	-1	[0, 0, 0]	n/a	FR1	1	R1112M
63.637	2.552	38957	PRACTICE_WORD	n/a	n/a	COTTON	10	-1	[0, 0, 0]	n/a	FR1	1	R1112M
66.189	2.599	40232	PRACTICE_WORD	n/a	n/a	FLOOD	11	-1	[0, 0, 0]	n/a	FR1	1	R1112M
68.788	1.601	41532	PRACTICE_WORD	n/a	n/a	WATCH	12	-1	[0, 0, 0]	n/a	FR1	1	R1112M
70.389	0.0	42332	PRACTICE_DISTRACT_START	n/a	n/a	n/a	-999	-1	[0, 0, 0]	n/a	FR1	1	R1112M
70.389	0.017	42332	START	n/a	n/a	n/a	-999	-1	[-999, -999, -999]	n/a	FR1	1	R1112M
70.406	20.969	42341	PROB	20.969	n/a	n/a	-999	-1	[9, 8, 7]	24	FR1	1	R1112M
91.375	0.018	52825	STOP	n/a	n/a	n/a	-999	-1	[-999, -999, -999]	n/a	FR1	1	R1112M
91.393	0.652	52834	PRACTICE_DISTRACT_END	n/a	n/a	n/a	-999	-1	[0, 0, 0]	n/a	FR1	1	R1112M
92.045	30.514	53160	PRACTICE_REC_START	n/a	n/a	n/a	-999	-1	[0, 0, 0]	n/a	FR1	1	R1112M
122.559	24.412	68416	PRACTICE_REC_END	n/a	n/a	n/a	-999	-1	[0, 0, 0]	n/a	FR1	1	R1112M
146.971	0.0	80621	TRIAL	n/a	n/a	n/a	-999	1	[0, 0, 0]	n/a	FR1	1	R1112M
146.971	10.428	80621	COUNTDOWN_START	n/a	n/a	n/a	-999	1	[0, 0, 0]	n/a	FR1	1	R1112M
157.399	0.007	85835	COUNTDOWN_END	n/a	n/a	n/a	-999	1	[0, 0, 0]	n/a	FR1	1	R1112M
157.406	2.5	85838	ORIENT	n/a	n/a	n/a	-999	1	[0, 0, 0]	n/a	FR1	1	R1112M
159.906	2.568	87088	WORD	n/a	wordpools/wordpool_EN.txt	STREET	1	1	[0, 0, 0]	n/a	FR1	1	R1112M
162.474	2.634	88372	WORD	n/a	wordpools/wordpool_EN.txt	CAGE	2	1	[0, 0, 0]	n/a	FR1	1	R1112M
165.108	2.434	89689	WORD	n/a	wordpools/wordpool_EN.txt	DIME	3	1	[0, 0, 0]	n/a	FR1	1	R1112M
167.542	2.433	90906	WORD	n/a	wordpools/wordpool_EN.txt	SLIME	4	1	[0, 0, 0]	n/a	FR1	1	R1112M
169.975	2.6	92122	WORD	n/a	wordpools/wordpool_EN.txt	PANTS	5	1	[0, 0, 0]	n/a	FR1	1	R1112M
172.575	2.484	93422	WORD	n/a	wordpools/wordpool_EN.txt	SINK	6	1	[0, 0, 0]	n/a	FR1	1	R1112M
175.059	2.485	94664	WORD	n/a	wordpools/wordpool_EN.txt	FUR	7	1	[0, 0, 0]	n/a	FR1	1	R1112M
177.544	2.633	95907	WORD	n/a	wordpools/wordpool_EN.txt	AXE	8	1	[0, 0, 0]	n/a	FR1	1	R1112M
180.177	2.5	97223	WORD	n/a	wordpools/wordpool_EN.txt	TRAIN	9	1	[0, 0, 0]	n/a	FR1	1	R1112M
182.677	2.618	98473	WORD	n/a	wordpools/wordpool_EN.txt	SLEEVE	10	1	[0, 0, 0]	n/a	FR1	1	R1112M
185.295	2.616	99782	WORD	n/a	wordpools/wordpool_EN.txt	TIE	11	1	[0, 0, 0]	n/a	FR1	1	R1112M
187.911	1.601	101090	WORD	n/a	wordpools/wordpool_EN.txt	HAND	12	1	[0, 0, 0]	n/a	FR1	1	R1112M
189.512	0.001	101890	DISTRACT_START	n/a	n/a	n/a	-999	1	[0, 0, 0]	n/a	FR1	1	R1112M
189.513	0.016	101891	START	n/a	n/a	n/a	-999	1	[-999, -999, -999]	n/a	FR1	1	R1112M
189.529	12.035	101899	PROB	12.035	n/a	n/a	-999	1	[2, 7, 7]	16	FR1	1	R1112M
201.564	11.122	107916	PROB	11.122	n/a	n/a	-999	1	[4, 4, 8]	16	FR1	1	R1112M
212.686	0.013	113477	STOP	n/a	n/a	n/a	-999	1	[-999, -999, -999]	n/a	FR1	1	R1112M
212.699	1.221	113483	DISTRACT_END	n/a	n/a	n/a	-999	1	[0, 0, 0]	n/a	FR1	1	R1112M
213.92	7.981	114094	REC_START	n/a	n/a	n/a	-999	1	[0, 0, 0]	n/a	FR1	1	R1112M
221.901	22.026	118084	REC_WORD	22.026	n/a	STREET	1	1	[0, 0, 0]	n/a	FR1	1	R1112M
243.927	112.8	129096	REC_END	n/a	n/a	n/a	-999	1	[0, 0, 0]	n/a	FR1	1	R1112M
356.727	0.0	185493	TRIAL	n/a	n/a	n/a	-999	2	[0, 0, 0]	n/a	FR1	1	R1112M
356.727	10.428	185493	COUNTDOWN_START	n/a	n/a	n/a	-999	2	[0, 0, 0]	n/a	FR1	1	R1112M
367.155	0.009	190707	COUNTDOWN_END	n/a	n/a	n/a	-999	2	[0, 0, 0]	n/a	FR1	1	R1112M
367.164	2.482	190711	ORIENT	n/a	n/a	n/a	-999	2	[0, 0, 0]	n/a	FR1	1	R1112M
369.646	2.368	191952	WORD	n/a	wordpools/wordpool_EN.txt	CAVE	1	2	[0, 0, 0]	n/a	FR1	1	R1112M
372.014	2.501	193136	WORD	n/a	wordpools/wordpool_EN.txt	STAIR	2	2	[0, 0, 0]	n/a	FR1	1	R1112M
374.515	2.417	194387	WORD	n/a	wordpools/wordpool_EN.txt	COUCH	3	2	[0, 0, 0]	n/a	FR1	1	R1112M
376.932	2.484	195595	WORD	n/a	wordpools/wordpool_EN.txt	DART	4	2	[0, 0, 0]	n/a	FR1	1	R1112M
379.416	2.584	196837	WORD	n/a	wordpools/wordpool_EN.txt	BED	5	2	[0, 0, 0]	n/a	FR1	1	R1112M
382.0	2.467	198129	WORD	n/a	wordpools/wordpool_EN.txt	MAZE	6	2	[0, 0, 0]	n/a	FR1	1	R1112M
384.467	2.567	199362	WORD	n/a	wordpools/wordpool_EN.txt	SNAKE	7	2	[0, 0, 0]	n/a	FR1	1	R1112M
387.034	2.434	200646	WORD	n/a	wordpools/wordpool_EN.txt	CLIFF	8	2	[0, 0, 0]	n/a	FR1	1	R1112M
389.468	2.517	201863	WORD	n/a	wordpools/wordpool_EN.txt	TOE	9	2	[0, 0, 0]	n/a	FR1	1	R1112M
391.985	2.434	203121	WORD	n/a	wordpools/wordpool_EN.txt	CHAIR	10	2	[0, 0, 0]	n/a	FR1	1	R1112M
394.419	2.55	204338	WORD	n/a	wordpools/wordpool_EN.txt	MUD	11	2	[0, 0, 0]	n/a	FR1	1	R1112M
396.969	1.616	205613	WORD	n/a	wordpools/wordpool_EN.txt	BROOM	12	2	[0, 0, 0]	n/a	FR1	1	R1112M
398.585	0.001	206421	DISTRACT_START	n/a	n/a	n/a	-999	2	[0, 0, 0]	n/a	FR1	1	R1112M
398.586	0.016	206421	START	n/a	n/a	n/a	-999	2	[-999, -999, -999]	n/a	FR1	1	R1112M
398.602	14.771	206429	PROB	14.771	n/a	n/a	-999	2	[7, 9, 2]	18	FR1	1	R1112M
413.373	8.058	213815	PROB	8.058	n/a	n/a	-999	2	[2, 1, 7]	10	FR1	1	R1112M
421.431	0.01	217843	STOP	n/a	n/a	n/a	-999	2	[-999, -999, -999]	n/a	FR1	1	R1112M
421.441	1.133	217848	DISTRACT_END	n/a	n/a	n/a	-999	2	[0, 0, 0]	n/a	FR1	1	R1112M
422.574	2.43	218415	REC_START	n/a	n/a	n/a	-999	2	[0, 0, 0]	n/a	FR1	1	R1112M
425.004	2.102	219630	REC_WORD	2.102	n/a	CAVE	1	2	[0, 0, 0]	n/a	FR1	1	R1112M
427.106	19.629	220681	REC_WORD	19.629	n/a	STAIR	2	2	[0, 0, 0]	n/a	FR1	1	R1112M
446.735	2.847	230495	REC_WORD	2.847	n/a	COUCH	3	2	[0, 0, 0]	n/a	FR1	1	R1112M
449.582	3.001	231918	REC_WORD	3.001	n/a	CHAIR	10	2	[0, 0, 0]	n/a	FR1	1	R1112M
452.583	7.648	233418	REC_END	n/a	n/a	n/a	-999	2	[0, 0, 0]	n/a	FR1	1	R1112M
460.231	0.001	237242	COUNTDOWN_START	n/a	n/a	n/a	-999	3	[0, 0, 0]	n/a	FR1	1	R1112M
460.232	10.427	237243	TRIAL	n/a	n/a	n/a	-999	3	[0, 0, 0]	n/a	FR1	1	R1112M
470.659	0.007	242456	COUNTDOWN_END	n/a	n/a	n/a	-999	3	[0, 0, 0]	n/a	FR1	1	R1112M
470.666	2.435	242459	ORIENT	n/a	n/a	n/a	-999	3	[0, 0, 0]	n/a	FR1	1	R1112M
473.101	2.633	243677	WORD	n/a	wordpools/wordpool_EN.txt	HOUSE	1	3	[0, 0, 0]	n/a	FR1	1	R1112M
475.734	2.601	244993	WORD	n/a	wordpools/wordpool_EN.txt	TRUCK	2	3	[0, 0, 0]	n/a	FR1	1	R1112M
478.335	2.533	246294	WORD	n/a	wordpools/wordpool_EN.txt	FARM	3	3	[0, 0, 0]	n/a	FR1	1	R1112M
480.868	2.468	247560	WORD	n/a	wordpools/wordpool_EN.txt	BLUSH	4	3	[0, 0, 0]	n/a	FR1	1	R1112M
483.336	2.466	248794	WORD	n/a	wordpools/wordpool_EN.txt	SMILE	5	3	[0, 0, 0]	n/a	FR1	1	R1112M
485.802	2.468	250027	WORD	n/a	wordpools/wordpool_EN.txt	SPRING	6	3	[0, 0, 0]	n/a	FR1	1	R1112M
488.27	2.616	251261	WORD	n/a	wordpools/wordpool_EN.txt	VINE	7	3	[0, 0, 0]	n/a	FR1	1	R1112M
490.886	2.535	252569	WORD	n/a	wordpools/wordpool_EN.txt	LIP	8	3	[0, 0, 0]	n/a	FR1	1	R1112M
493.421	2.584	253836	WORD	n/a	wordpools/wordpool_EN.txt	LAWN	9	3	[0, 0, 0]	n/a	FR1	1	R1112M
496.005	2.401	255128	WORD	n/a	wordpools/wordpool_EN.txt	STICK	10	3	[0, 0, 0]	n/a	FR1	1	R1112M
498.406	2.482	256329	WORD	n/a	wordpools/wordpool_EN.txt	TREE	11	3	[0, 0, 0]	n/a	FR1	1	R1112M
500.888	1.601	257570	WORD	n/a	wordpools/wordpool_EN.txt	TENT	12	3	[0, 0, 0]	n/a	FR1	1	R1112M
502.489	0.001	258370	DISTRACT_START	n/a	n/a	n/a	-999	3	[0, 0, 0]	n/a	FR1	1	R1112M
502.49	0.016	258371	START	n/a	n/a	n/a	-999	3	[-999, -999, -999]	n/a	FR1	1	R1112M
502.506	16.904	258379	PROB	16.904	n/a	n/a	-999	3	[6, 5, 9]	20	FR1	1	R1112M
519.41	6.412	266830	PROB	6.412	n/a	n/a	-999	3	[4, 2, 1]	7	FR1	1	R1112M
525.822	0.004	270036	STOP	n/a	n/a	n/a	-999	3	[-999, -999, -999]	n/a	FR1	1	R1112M
525.826	1.153	270038	DISTRACT_END	n/a	n/a	n/a	-999	3	[0, 0, 0]	n/a	FR1	1	R1112M
526.979	4.398	270614	REC_START	n/a	n/a	n/a	-999	3	[0, 0, 0]	n/a	FR1	1	R1112M
531.377	21.724	272813	REC_WORD	21.724	n/a	HOUSE	1	3	[0, 0, 0]	n/a	FR1	1	R1112M
553.101	3.887	283675	REC_WORD	3.887	n/a	STREET	-999	3	[0, 0, 0]	n/a	FR1	1	R1112M
556.988	22.317	285618	REC_END	n/a	n/a	n/a	-999	3	[0, 0, 0]	n/a	FR1	1	R1112M
579.305	0.0	296776	TRIAL	n/a	n/a	n/a	-999	4	[0, 0, 0]	n/a	FR1	1	R1112M
579.305	10.428	296776	COUNTDOWN_START	n/a	n/a	n/a	-999	4	[0, 0, 0]	n/a	FR1	1	R1112M
589.733	0.006	301990	COUNTDOWN_END	n/a	n/a	n/a	-999	4	[0, 0, 0]	n/a	FR1	1	R1112M
589.739	2.518	301993	ORIENT	n/a	n/a	n/a	-999	4	[0, 0, 0]	n/a	FR1	1	R1112M
592.257	2.4	303251	WORD	n/a	wordpools/wordpool_EN.txt	DUCK	1	4	[0, 0, 0]	n/a	FR1	1	R1112M
594.657	2.468	304451	WORD	n/a	wordpools/wordpool_EN.txt	CASH	2	4	[0, 0, 0]	n/a	FR1	1	R1112M
597.125	2.417	305685	WORD	n/a	wordpools/wordpool_EN.txt	BARN	3	4	[0, 0, 0]	n/a	FR1	1	R1112M
599.542	2.484	306894	WORD	n/a	wordpools/wordpool_EN.txt	FROG	4	4	[0, 0, 0]	n/a	FR1	1	R1112M
602.026	2.417	308136	WORD	n/a	wordpools/wordpool_EN.txt	POND	5	4	[0, 0, 0]	n/a	FR1	1	R1112M
604.443	2.517	309344	WORD	n/a	wordpools/wordpool_EN.txt	ARM	6	4	[0, 0, 0]	n/a	FR1	1	R1112M
606.96	2.517	310603	WORD	n/a	wordpools/wordpool_EN.txt	DEER	7	4	[0, 0, 0]	n/a	FR1	1	R1112M
609.477	2.383	311861	WORD	n/a	wordpools/wordpool_EN.txt	RAKE	8	4	[0, 0, 0]	n/a	FR1	1	R1112M
611.86	2.601	313052	WORD	n/a	wordpools/wordpool_EN.txt	JEEP	9	4	[0, 0, 0]	n/a	FR1	1	R1112M
614.461	2.45	314353	WORD	n/a	wordpools/wordpool_EN.txt	PARK	10	4	[0, 0, 0]	n/a	FR1	1	R1112M
616.911	2.501	315578	WORD	n/a	wordpools/wordpool_EN.txt	WOLF	11	4	[0, 0, 0]	n/a	FR1	1	R1112M
619.412	1.617	316828	WORD	n/a	wordpools/wordpool_EN.txt	ROPE	12	4	[0, 0, 0]	n/a	FR1	1	R1112M
621.029	0.001	317637	DISTRACT_START	n/a	n/a	n/a	-999	4	[0, 0, 0]	n/a	FR1	1	R1112M
621.03	0.016	317637	START	n/a	n/a	n/a	-999	4	[-999, -999, -999]	n/a	FR1	1	R1112M
621.046	9.085	317645	PROB	9.085	n/a	n/a	-999	4	[8, 5, 2]	15	FR1	1	R1112M
630.131	8.402	322187	PROB	8.402	n/a	n/a	-999	4	[6, 6, 3]	15	FR1	1	R1112M
638.533	14.018	326388	PROB	14.018	n/a	n/a	-999	4	[8, 6, 8]	22	FR1	1	R1112M
652.551	0.017	333397	STOP	n/a	n/a	n/a	-999	4	[-999, -999, -999]	n/a	FR1	1	R1112M
652.568	1.034	333405	DISTRACT_END	n/a	n/a	n/a	-999	4	[0, 0, 0]	n/a	FR1	1	R1112M
653.602	3.254	333922	REC_START	n/a	n/a	n/a	-999	4	[0, 0, 0]	n/a	FR1	1	R1112M
656.856	10.158	335549	REC_WORD	10.158	n/a	FROG	4	4	[0, 0, 0]	n/a	FR1	1	R1112M
667.014	12.815	340628	REC_WORD	12.815	n/a	FARM	-999	4	[0, 0, 0]	n/a	FR1	1	R1112M
679.829	3.782	347035	REC_WORD	3.782	n/a	TRUCK	-999	4	[0, 0, 0]	n/a	FR1	1	R1112M
683.611	24.418	348926	REC_END	n/a	n/a	n/a	-999	4	[0, 0, 0]	n/a	FR1	1	R1112M
708.029	0.001	361134	COUNTDOWN_START	n/a	n/a	n/a	-999	5	[0, 0, 0]	n/a	FR1	1	R1112M
708.03	10.427	361135	TRIAL	n/a	n/a	n/a	-999	5	[0, 0, 0]	n/a	FR1	1	R1112M
718.457	0.008	366348	COUNTDOWN_END	n/a	n/a	n/a	-999	5	[0, 0, 0]	n/a	FR1	1	R1112M
718.465	2.6	366352	ORIENT	n/a	n/a	n/a	-999	5	[0, 0, 0]	n/a	FR1	1	R1112M
721.065	2.417	367652	WORD	n/a	wordpools/wordpool_EN.txt	GLASS	1	5	[0, 0, 0]	n/a	FR1	1	R1112M
723.482	2.433	368860	WORD	n/a	wordpools/wordpool_EN.txt	MUG	2	5	[0, 0, 0]	n/a	FR1	1	R1112M
725.915	2.535	370077	WORD	n/a	wordpools/wordpool_EN.txt	SOCK	3	5	[0, 0, 0]	n/a	FR1	1	R1112M
728.45	2.383	371344	WORD	n/a	wordpools/wordpool_EN.txt	FLOOR	4	5	[0, 0, 0]	n/a	FR1	1	R1112M
730.833	2.418	372536	WORD	n/a	wordpools/wordpool_EN.txt	SHOE	5	5	[0, 0, 0]	n/a	FR1	1	R1112M
733.251	2.483	373744	WORD	n/a	wordpools/wordpool_EN.txt	JAR	6	5	[0, 0, 0]	n/a	FR1	1	R1112M
735.734	2.485	374986	WORD	n/a	wordpools/wordpool_EN.txt	ELF	7	5	[0, 0, 0]	n/a	FR1	1	R1112M
738.219	2.616	376228	WORD	n/a	wordpools/wordpool_EN.txt	TANK	8	5	[0, 0, 0]	n/a	FR1	1	R1112M
740.835	2.418	377536	WORD	n/a	wordpools/wordpool_EN.txt	POOL	9	5	[0, 0, 0]	n/a	FR1	1	R1112M
743.253	2.566	378745	WORD	n/a	wordpools/wordpool_EN.txt	ROOM	10	5	[0, 0, 0]	n/a	FR1	1	R1112M
745.819	2.402	380028	WORD	n/a	wordpools/wordpool_EN.txt	CANE	11	5	[0, 0, 0]	n/a	FR1	1	R1112M
748.221	1.616	381229	WORD	n/a	wordpools/wordpool_EN.txt	RUG	12	5	[0, 0, 0]	n/a	FR1	1	R1112M
749.837	0.001	382037	DISTRACT_START	n/a	n/a	n/a	-999	5	[0, 0, 0]	n/a	FR1	1	R1112M
749.838	0.015	382038	START	n/a	n/a	n/a	-999	5	[-999, -999, -999]	n/a	FR1	1	R1112M
749.853	9.57	382045	PROB	9.57	n/a	n/a	-999	5	[7, 5, 8]	20	FR1	1	R1112M
759.423	8.45	386830	PROB	8.45	n/a	n/a	-999	5	[2, 6, 8]	16	FR1	1	R1112M
767.873	8.725	391055	PROB	8.725	n/a	n/a	-999	5	[4, 7, 7]	18	FR1	1	R1112M
776.598	0.01	395417	STOP	n/a	n/a	n/a	-999	5	[-999, -999, -999]	n/a	FR1	1	R1112M
776.608	1.085	395422	DISTRACT_END	n/a	n/a	n/a	-999	5	[0, 0, 0]	n/a	FR1	1	R1112M
777.693	2.289	395964	REC_START	n/a	n/a	n/a	-999	5	[0, 0, 0]	n/a	FR1	1	R1112M
779.982	1.901	397109	REC_WORD	1.901	n/a	JAR	6	5	[0, 0, 0]	n/a	FR1	1	R1112M
781.883	12.061	398059	REC_WORD	12.061	n/a	MUG	2	5	[0, 0, 0]	n/a	FR1	1	R1112M
793.944	13.759	404089	REC_WORD	13.759	n/a	BROOM	-999	5	[0, 0, 0]	n/a	FR1	1	R1112M
807.703	10.631	410968	REC_END	n/a	n/a	n/a	-999	5	[0, 0, 0]	n/a	FR1	1	R1112M
818.334	0.0	416284	TRIAL	n/a	n/a	n/a	-999	6	[0, 0, 0]	n/a	FR1	1	R1112M
818.334	10.428	416284	COUNTDOWN_START	n/a	n/a	n/a	-999	6	[0, 0, 0]	n/a	FR1	1	R1112M
828.762	0.023	421497	COUNTDOWN_END	n/a	n/a	n/a	-999	6	[0, 0, 0]	n/a	FR1	1	R1112M
828.785	2.485	421509	ORIENT	n/a	n/a	n/a	-999	6	[0, 0, 0]	n/a	FR1	1	R1112M
831.27	2.449	422751	WORD	n/a	wordpools/wordpool_EN.txt	LAKE	1	6	[0, 0, 0]	n/a	FR1	1	R1112M
833.719	2.402	423976	WORD	n/a	wordpools/wordpool_EN.txt	MOUTH	2	6	[0, 0, 0]	n/a	FR1	1	R1112M
836.121	2.417	425177	WORD	n/a	wordpools/wordpool_EN.txt	PEACH	3	6	[0, 0, 0]	n/a	FR1	1	R1112M
838.538	2.401	426385	WORD	n/a	wordpools/wordpool_EN.txt	SQUARE	4	6	[0, 0, 0]	n/a	FR1	1	R1112M
840.939	2.467	427585	WORD	n/a	wordpools/wordpool_EN.txt	BLOOM	5	6	[0, 0, 0]	n/a	FR1	1	R1112M
843.406	2.399	428819	WORD	n/a	wordpools/wordpool_EN.txt	BIRD	6	6	[0, 0, 0]	n/a	FR1	1	R1112M
845.805	2.518	430018	WORD	n/a	wordpools/wordpool_EN.txt	TAIL	7	6	[0, 0, 0]	n/a	FR1	1	R1112M
848.323	2.433	431277	WORD	n/a	wordpools/wordpool_EN.txt	LAND	8	6	[0, 0, 0]	n/a	FR1	1	R1112M
850.756	2.468	432494	WORD	n/a	wordpools/wordpool_EN.txt	FACE	9	6	[0, 0, 0]	n/a	FR1	1	R1112M
853.224	2.383	433728	WORD	n/a	wordpools/wordpool_EN.txt	HAWK	10	6	[0, 0, 0]	n/a	FR1	1	R1112M
855.607	2.485	434919	WORD	n/a	wordpools/wordpool_EN.txt	EEL	11	6	[0, 0, 0]	n/a	FR1	1	R1112M
858.092	1.616	436161	WORD	n/a	wordpools/wordpool_EN.txt	SIGN	12	6	[0, 0, 0]	n/a	FR1	1	R1112M
859.708	0.001	436969	DISTRACT_START	n/a	n/a	n/a	-999	6	[0, 0, 0]	n/a	FR1	1	R1112M
859.709	0.015	436970	START	n/a	n/a	n/a	-999	6	[-999, -999, -999]	n/a	FR1	1	R1112M
859.724	17.887	436977	PROB	17.887	n/a	n/a	-999	6	[4, 9, 6]	19	FR1	1	R1112M
877.611	9.107	445920	PROB	9.107	n/a	n/a	-999	6	[6, 1, 6]	13	FR1	1	R1112M
886.718	0.012	450474	STOP	n/a	n/a	n/a	-999	6	[-999, -999, -999]	n/a	FR1	1	R1112M
886.73	1.202	450480	DISTRACT_END	n/a	n/a	n/a	-999	6	[0, 0, 0]	n/a	FR1	1	R1112M
887.932	3.496	451081	REC_START	n/a	n/a	n/a	-999	6	[0, 0, 0]	n/a	FR1	1	R1112M
891.428	3.806	452829	REC_WORD	3.806	n/a	MOUTH	2	6	[0, 0, 0]	n/a	FR1	1	R1112M
895.234	9.393	454731	REC_WORD	9.393	n/a	EEL	11	6	[0, 0, 0]	n/a	FR1	1	R1112M
904.627	11.541	459428	REC_WORD	11.541	n/a	SQUARE	4	6	[0, 0, 0]	n/a	FR1	1	R1112M
916.168	1.772	465198	REC_WORD	1.772	n/a	PEAR	-999	6	[0, 0, 0]	n/a	FR1	1	R1112M
917.94	16.3	466084	REC_END	n/a	n/a	n/a	-999	6	[0, 0, 0]	n/a	FR1	1	R1112M
934.24	0.0	474233	TRIAL	n/a	n/a	n/a	-999	7	[0, 0, 0]	n/a	FR1	1	R1112M
934.24	10.428	474233	COUNTDOWN_START	n/a	n/a	n/a	-999	7	[0, 0, 0]	n/a	FR1	1	R1112M
944.668	0.006	479447	COUNTDOWN_END	n/a	n/a	n/a	-999	7	[0, 0, 0]	n/a	FR1	1	R1112M
944.674	2.585	479450	ORIENT	n/a	n/a	n/a	-999	7	[0, 0, 0]	n/a	FR1	1	R1112M
947.259	2.466	480742	WORD	n/a	wordpools/wordpool_EN.txt	SHEEP	1	7	[0, 0, 0]	n/a	FR1	1	R1112M
949.725	2.452	481975	WORD	n/a	wordpools/wordpool_EN.txt	GOAT	2	7	[0, 0, 0]	n/a	FR1	1	R1112M
952.177	2.499	483201	WORD	n/a	wordpools/wordpool_EN.txt	MOOSE	3	7	[0, 0, 0]	n/a	FR1	1	R1112M
954.676	2.552	484451	WORD	n/a	wordpools/wordpool_EN.txt	MAIL	4	7	[0, 0, 0]	n/a	FR1	1	R1112M
957.228	2.616	485727	WORD	n/a	wordpools/wordpool_EN.txt	SKI	5	7	[0, 0, 0]	n/a	FR1	1	R1112M
959.844	2.485	487035	WORD	n/a	wordpools/wordpool_EN.txt	BREAD	6	7	[0, 0, 0]	n/a	FR1	1	R1112M
962.329	2.533	488277	WORD	n/a	wordpools/wordpool_EN.txt	HAT	7	7	[0, 0, 0]	n/a	FR1	1	R1112M
964.862	2.468	489543	WORD	n/a	wordpools/wordpool_EN.txt	BADGE	8	7	[0, 0, 0]	n/a	FR1	1	R1112M
967.33	2.566	490777	WORD	n/a	wordpools/wordpool_EN.txt	RICE	9	7	[0, 0, 0]	n/a	FR1	1	R1112M
969.896	2.551	492060	WORD	n/a	wordpools/wordpool_EN.txt	SNOW	10	7	[0, 0, 0]	n/a	FR1	1	R1112M
972.447	2.45	493336	WORD	n/a	wordpools/wordpool_EN.txt	FOG	11	7	[0, 0, 0]	n/a	FR1	1	R1112M
974.897	1.601	494561	WORD	n/a	wordpools/wordpool_EN.txt	STORE	12	7	[0, 0, 0]	n/a	FR1	1	R1112M
976.498	0.001	495361	DISTRACT_START	n/a	n/a	n/a	-999	7	[0, 0, 0]	n/a	FR1	1	R1112M
976.499	0.016	495362	START	n/a	n/a	n/a	-999	7	[-999, -999, -999]	n/a	FR1	1	R1112M
976.515	17.536	495370	PROB	17.536	n/a	n/a	-999	7	[8, 6, 6]	20	FR1	1	R1112M
994.051	15.348	504137	PROB	15.348	n/a	n/a	-999	7	[5, 9, 6]	20	FR1	1	R1112M
1009.399	0.005	511811	STOP	n/a	n/a	n/a	-999	7	[-999, -999, -999]	n/a	FR1	1	R1112M
1009.404	1.2	511813	DISTRACT_END	n/a	n/a	n/a	-999	7	[0, 0, 0]	n/a	FR1	1	R1112M
1010.604	5.62	512413	REC_START	n/a	n/a	n/a	-999	7	[0, 0, 0]	n/a	FR1	1	R1112M
1016.224	1.431	515223	REC_WORD	1.431	n/a	SHEEP	1	7	[0, 0, 0]	n/a	FR1	1	R1112M
1017.655	15.68	515938	REC_WORD	15.68	n/a	MOOSE	3	7	[0, 0, 0]	n/a	FR1	1	R1112M
1033.335	7.279	523778	REC_WORD	7.279	n/a	HAT	7	7	[0, 0, 0]	n/a	FR1	1	R1112M
1040.614	6.464	527417	REC_END	n/a	n/a	n/a	-999	7	[0, 0, 0]	n/a	FR1	1	R1112M
1047.078	0.001	530649	COUNTDOWN_START	n/a	n/a	n/a	-999	8	[0, 0, 0]	n/a	FR1	1	R1112M
1047.079	10.427	530650	TRIAL	n/a	n/a	n/a	-999	8	[0, 0, 0]	n/a	FR1	1	R1112M
1057.506	0.008	535863	COUNTDOWN_END	n/a	n/a	n/a	-999	8	[0, 0, 0]	n/a	FR1	1	R1112M
1057.514	2.6	535867	ORIENT	n/a	n/a	n/a	-999	8	[0, 0, 0]	n/a	FR1	1	R1112M
1060.114	2.467	537167	WORD	n/a	wordpools/wordpool_EN.txt	GOLD	1	8	[0, 0, 0]	n/a	FR1	1	R1112M
1062.581	2.634	538400	WORD	n/a	wordpools/wordpool_EN.txt	LAMP	2	8	[0, 0, 0]	n/a	FR1	1	R1112M
1065.215	2.55	539717	WORD	n/a	wordpools/wordpool_EN.txt	MOLE	3	8	[0, 0, 0]	n/a	FR1	1	R1112M
1067.765	2.501	540992	WORD	n/a	wordpools/wordpool_EN.txt	CROWN	4	8	[0, 0, 0]	n/a	FR1	1	R1112M
1070.266	2.5	542242	WORD	n/a	wordpools/wordpool_EN.txt	SHIP	5	8	[0, 0, 0]	n/a	FR1	1	R1112M
1072.766	2.368	543492	WORD	n/a	wordpools/wordpool_EN.txt	MOTH	6	8	[0, 0, 0]	n/a	FR1	1	R1112M
1075.134	2.616	544676	WORD	n/a	wordpools/wordpool_EN.txt	NEST	7	8	[0, 0, 0]	n/a	FR1	1	R1112M
1077.75	2.435	545984	WORD	n/a	wordpools/wordpool_EN.txt	BEE	8	8	[0, 0, 0]	n/a	FR1	1	R1112M
1080.185	2.449	547202	WORD	n/a	wordpools/wordpool_EN.txt	EGG	9	8	[0, 0, 0]	n/a	FR1	1	R1112M
1082.634	2.502	548426	WORD	n/a	wordpools/wordpool_EN.txt	TOAD	10	8	[0, 0, 0]	n/a	FR1	1	R1112M
1085.136	2.599	549677	WORD	n/a	wordpools/wordpool_EN.txt	SHELL	11	8	[0, 0, 0]	n/a	FR1	1	R1112M
1087.735	1.601	550976	WORD	n/a	wordpools/wordpool_EN.txt	HOOF	12	8	[0, 0, 0]	n/a	FR1	1	R1112M
1089.336	0.001	551777	DISTRACT_START	n/a	n/a	n/a	-999	8	[0, 0, 0]	n/a	FR1	1	R1112M
1089.337	0.016	551777	START	n/a	n/a	n/a	-999	8	[-999, -999, -999]	n/a	FR1	1	R1112M
1089.353	22.614	551785	PROB	22.614	n/a	n/a	-999	8	[3, 6, 8]	17	FR1	1	R1112M
1111.967	0.007	563092	STOP	n/a	n/a	n/a	-999	8	[-999, -999, -999]	n/a	FR1	1	R1112M
1111.974	1.101	563095	DISTRACT_END	n/a	n/a	n/a	-999	8	[0, 0, 0]	n/a	FR1	1	R1112M
1113.075	3.854	563646	REC_START	n/a	n/a	n/a	-999	8	[0, 0, 0]	n/a	FR1	1	R1112M
1116.929	2.256	565573	REC_WORD	2.256	n/a	BEE	8	8	[0, 0, 0]	n/a	FR1	1	R1112M
1119.185	2.718	566701	REC_WORD	2.718	n/a	NEST	7	8	[0, 0, 0]	n/a	FR1	1	R1112M
1121.903	8.176	568059	REC_WORD	8.176	n/a	EGG	9	8	[0, 0, 0]	n/a	FR1	1	R1112M
1130.079	9.559	572147	REC_WORD	9.559	n/a	MOTH	6	8	[0, 0, 0]	n/a	FR1	1	R1112M
1139.638	3.447	576926	REC_WORD	3.447	n/a	MOUTH	-999	8	[0, 0, 0]	n/a	FR1	1	R1112M
1143.085	15.365	578650	REC_END	n/a	n/a	n/a	-999	8	[0, 0, 0]	n/a	FR1	1	R1112M
1158.45	0.0	586332	TRIAL	n/a	n/a	n/a	-999	9	[0, 0, 0]	n/a	FR1	1	R1112M
1158.45	10.428	586332	COUNTDOWN_START	n/a	n/a	n/a	-999	9	[0, 0, 0]	n/a	FR1	1	R1112M
1168.878	0.006	591546	COUNTDOWN_END	n/a	n/a	n/a	-999	9	[0, 0, 0]	n/a	FR1	1	R1112M
1168.884	2.485	591549	ORIENT	n/a	n/a	n/a	-999	9	[0, 0, 0]	n/a	FR1	1	R1112M
1171.369	2.516	592791	WORD	n/a	wordpools/wordpool_EN.txt	GEESE	1	9	[0, 0, 0]	n/a	FR1	1	R1112M
1173.885	2.568	594049	WORD	n/a	wordpools/wordpool_EN.txt	SKUNK	2	9	[0, 0, 0]	n/a	FR1	1	R1112M
1176.453	2.501	595333	WORD	n/a	wordpools/wordpool_EN.txt	RIB	3	9	[0, 0, 0]	n/a	FR1	1	R1112M
1178.954	2.616	596583	WORD	n/a	wordpools/wordpool_EN.txt	WORM	4	9	[0, 0, 0]	n/a	FR1	1	R1112M
1181.57	2.385	597891	WORD	n/a	wordpools/wordpool_EN.txt	LOCK	5	9	[0, 0, 0]	n/a	FR1	1	R1112M
1183.955	2.584	599084	WORD	n/a	wordpools/wordpool_EN.txt	SPONGE	6	9	[0, 0, 0]	n/a	FR1	1	R1112M
1186.539	2.4	600376	WORD	n/a	wordpools/wordpool_EN.txt	OWL	7	9	[0, 0, 0]	n/a	FR1	1	R1112M
1188.939	2.584	601576	WORD	n/a	wordpools/wordpool_EN.txt	HEN	8	9	[0, 0, 0]	n/a	FR1	1	R1112M
1191.523	2.584	602867	WORD	n/a	wordpools/wordpool_EN.txt	PIN	9	9	[0, 0, 0]	n/a	FR1	1	R1112M
1194.107	2.45	604159	WORD	n/a	wordpools/wordpool_EN.txt	FOOD	10	9	[0, 0, 0]	n/a	FR1	1	R1112M
1196.557	2.451	605384	WORD	n/a	wordpools/wordpool_EN.txt	FISH	11	9	[0, 0, 0]	n/a	FR1	1	R1112M
1199.008	1.616	606610	WORD	n/a	wordpools/wordpool_EN.txt	WEB	12	9	[0, 0, 0]	n/a	FR1	1	R1112M
1200.624	0.001	607418	DISTRACT_START	n/a	n/a	n/a	-999	9	[0, 0, 0]	n/a	FR1	1	R1112M
1200.625	0.015	607418	START	n/a	n/a	n/a	-999	9	[-999, -999, -999]	n/a	FR1	1	R1112M
1200.64	19.589	607426	PROB	19.589	n/a	n/a	-999	9	[6, 9, 5]	20	FR1	1	R1112M
1220.229	9.593	617220	PROB	9.593	n/a	n/a	-999	9	[8, 8, 2]	18	FR1	1	R1112M
1229.822	0.007	622016	STOP	n/a	n/a	n/a	-999	9	[-999, -999, -999]	n/a	FR1	1	R1112M
1229.829	1.085	622019	DISTRACT_END	n/a	n/a	n/a	-999	9	[0, 0, 0]	n/a	FR1	1	R1112M
1230.914	5.921	622562	REC_START	n/a	n/a	n/a	-999	9	[0, 0, 0]	n/a	FR1	1	R1112M
1236.835	24.086	625522	REC_WORD	24.086	n/a	GEESE	1	9	[0, 0, 0]	n/a	FR1	1	R1112M
1260.921	8.833	637565	REC_END	n/a	n/a	n/a	-999	9	[0, 0, 0]	n/a	FR1	1	R1112M
1269.754	0.0	641981	COUNTDOWN_START	n/a	n/a	n/a	-999	10	[0, 0, 0]	n/a	FR1	1	R1112M
1269.754	10.428	641981	TRIAL	n/a	n/a	n/a	-999	10	[0, 0, 0]	n/a	FR1	1	R1112M
1280.182	0.008	647194	COUNTDOWN_END	n/a	n/a	n/a	-999	10	[0, 0, 0]	n/a	FR1	1	R1112M
1280.19	2.45	647198	ORIENT	n/a	n/a	n/a	-999	10	[0, 0, 0]	n/a	FR1	1	R1112M
1282.64	2.551	648423	WORD	n/a	wordpools/wordpool_EN.txt	STONE	1	10	[0, 0, 0]	n/a	FR1	1	R1112M
1285.191	2.516	649699	WORD	n/a	wordpools/wordpool_EN.txt	HORN	2	10	[0, 0, 0]	n/a	FR1	1	R1112M
1287.707	2.419	650957	WORD	n/a	wordpools/wordpool_EN.txt	SPEAR	3	10	[0, 0, 0]	n/a	FR1	1	R1112M
1290.126	2.482	652166	WORD	n/a	wordpools/wordpool_EN.txt	BUSH	4	10	[0, 0, 0]	n/a	FR1	1	R1112M
1292.608	2.552	653407	WORD	n/a	wordpools/wordpool_EN.txt	DRUM	5	10	[0, 0, 0]	n/a	FR1	1	R1112M
1295.16	2.483	654683	WORD	n/a	wordpools/wordpool_EN.txt	PEAR	6	10	[0, 0, 0]	n/a	FR1	1	R1112M
1297.643	2.468	655924	WORD	n/a	wordpools/wordpool_EN.txt	SWAMP	7	10	[0, 0, 0]	n/a	FR1	1	R1112M
1300.111	2.449	657158	WORD	n/a	wordpools/wordpool_EN.txt	FOX	8	10	[0, 0, 0]	n/a	FR1	1	R1112M
1302.56	2.418	658383	WORD	n/a	wordpools/wordpool_EN.txt	LEAF	9	10	[0, 0, 0]	n/a	FR1	1	R1112M
1304.978	2.401	659592	WORD	n/a	wordpools/wordpool_EN.txt	CHIEF	10	10	[0, 0, 0]	n/a	FR1	1	R1112M
1307.379	2.383	660792	WORD	n/a	wordpools/wordpool_EN.txt	FLUTE	11	10	[0, 0, 0]	n/a	FR1	1	R1112M
1309.762	1.618	661984	WORD	n/a	wordpools/wordpool_EN.txt	PLANT	12	10	[0, 0, 0]	n/a	FR1	1	R1112M
1311.38	0.001	662793	DISTRACT_START	n/a	n/a	n/a	-999	10	[0, 0, 0]	n/a	FR1	1	R1112M
1311.381	0.015	662793	START	n/a	n/a	n/a	-999	10	[-999, -999, -999]	n/a	FR1	1	R1112M
1311.396	13.903	662801	PROB	13.903	n/a	n/a	-999	10	[3, 7, 5]	15	FR1	1	R1112M
1325.299	16.212	669752	PROB	16.212	n/a	n/a	-999	10	[4, 7, 5]	16	FR1	1	R1112M
1341.511	0.008	677857	STOP	n/a	n/a	n/a	-999	10	[-999, -999, -999]	n/a	FR1	1	R1112M
1341.519	1.15	677861	DISTRACT_END	n/a	n/a	n/a	-999	10	[0, 0, 0]	n/a	FR1	1	R1112M
1342.669	2.097	678436	REC_START	n/a	n/a	n/a	-999	10	[0, 0, 0]	n/a	FR1	1	R1112M
1344.766	15.161	679485	REC_WORD	15.161	n/a	PEAR	6	10	[0, 0, 0]	n/a	FR1	1	R1112M
1359.927	4.306	687065	REC_WORD	4.306	n/a	STONE	1	10	[0, 0, 0]	n/a	FR1	1	R1112M
1364.233	8.444	689218	REC_WORD	8.444	n/a	LEAF	9	10	[0, 0, 0]	n/a	FR1	1	R1112M
1372.677	13.467	693439	REC_END	n/a	n/a	n/a	-999	10	[0, 0, 0]	n/a	FR1	1	R1112M
1386.144	0.0	700172	COUNTDOWN_START	n/a	n/a	n/a	-999	11	[0, 0, 0]	n/a	FR1	1	R1112M
1386.144	10.428	700172	TRIAL	n/a	n/a	n/a	-999	11	[0, 0, 0]	n/a	FR1	1	R1112M
1396.572	0.006	705386	COUNTDOWN_END	n/a	n/a	n/a	-999	11	[0, 0, 0]	n/a	FR1	1	R1112M
1396.578	2.485	705389	ORIENT	n/a	n/a	n/a	-999	11	[0, 0, 0]	n/a	FR1	1	R1112M
1399.063	2.467	706632	WORD	n/a	wordpools/wordpool_EN.txt	CROW	1	11	[0, 0, 0]	n/a	FR1	1	R1112M
1401.53	2.484	707865	WORD	n/a	wordpools/wordpool_EN.txt	CLOWN	2	11	[0, 0, 0]	n/a	FR1	1	R1112M
1404.014	2.55	709107	WORD	n/a	wordpools/wordpool_EN.txt	SCHOOL	3	11	[0, 0, 0]	n/a	FR1	1	R1112M
1406.564	2.418	710382	WORD	n/a	wordpools/wordpool_EN.txt	PRINCE	4	11	[0, 0, 0]	n/a	FR1	1	R1112M
1408.982	2.583	711591	WORD	n/a	wordpools/wordpool_EN.txt	JUICE	5	11	[0, 0, 0]	n/a	FR1	1	R1112M
1411.565	2.384	712882	WORD	n/a	wordpools/wordpool_EN.txt	BOARD	6	11	[0, 0, 0]	n/a	FR1	1	R1112M
1413.949	2.568	714074	WORD	n/a	wordpools/wordpool_EN.txt	WING	7	11	[0, 0, 0]	n/a	FR1	1	R1112M
1416.517	2.399	715358	WORD	n/a	wordpools/wordpool_EN.txt	DOLL	8	11	[0, 0, 0]	n/a	FR1	1	R1112M
1418.916	2.552	716558	WORD	n/a	wordpools/wordpool_EN.txt	BRANCH	9	11	[0, 0, 0]	n/a	FR1	1	R1112M
1421.468	2.432	717833	WORD	n/a	wordpools/wordpool_EN.txt	HORSE	10	11	[0, 0, 0]	n/a	FR1	1	R1112M
1423.9	2.419	719049	WORD	n/a	wordpools/wordpool_EN.txt	BEAR	11	11	[0, 0, 0]	n/a	FR1	1	R1112M
1426.319	1.617	720259	WORD	n/a	wordpools/wordpool_EN.txt	KITE	12	11	[0, 0, 0]	n/a	FR1	1	R1112M
1427.936	0.0	721067	DISTRACT_START	n/a	n/a	n/a	-999	11	[0, 0, 0]	n/a	FR1	1	R1112M
1427.936	0.016	721067	START	n/a	n/a	n/a	-999	11	[-999, -999, -999]	n/a	FR1	1	R1112M
1427.952	10.002	721075	PROB	10.002	n/a	n/a	-999	11	[5, 1, 4]	10	FR1	1	R1112M
1437.954	9.569	726076	PROB	9.569	n/a	n/a	-999	11	[4, 1, 4]	9	FR1	1	R1112M
1447.523	14.484	730860	PROB	14.484	n/a	n/a	-999	11	[9, 8, 2]	19	FR1	1	R1112M
1462.007	0.018	738102	STOP	n/a	n/a	n/a	-999	11	[-999, -999, -999]	n/a	FR1	1	R1112M
1462.025	1.151	738111	DISTRACT_END	n/a	n/a	n/a	-999	11	[0, 0, 0]	n/a	FR1	1	R1112M
1463.176	1.82	738686	REC_START	n/a	n/a	n/a	-999	11	[0, 0, 0]	n/a	FR1	1	R1112M
1464.996	3.181	739596	REC_WORD	3.181	n/a	SCHOOL	3	11	[0, 0, 0]	n/a	FR1	1	R1112M
1468.177	2.1	741187	REC_WORD	2.1	n/a	HORSE	10	11	[0, 0, 0]	n/a	FR1	1	R1112M
1470.277	3.892	742237	REC_WORD	3.892	n/a	BEAR	11	11	[0, 0, 0]	n/a	FR1	1	R1112M
1474.169	3.533	744182	REC_WORD	3.533	n/a	PRINCE	4	11	[0, 0, 0]	n/a	FR1	1	R1112M
1477.702	12.65	745949	REC_WORD	12.65	n/a	BOARD	6	11	[0, 0, 0]	n/a	FR1	1	R1112M
1490.352	2.838	752273	REC_WORD_VV	2.838	n/a	<>	-999	11	[0, 0, 0]	n/a	FR1	1	R1112M
1493.19	6.642	753692	REC_END	n/a	n/a	n/a	-999	11	[0, 0, 0]	n/a	FR1	1	R1112M
1499.832	0.0	757013	TRIAL	n/a	n/a	n/a	-999	12	[0, 0, 0]	n/a	FR1	1	R1112M
1499.832	10.428	757013	COUNTDOWN_START	n/a	n/a	n/a	-999	12	[0, 0, 0]	n/a	FR1	1	R1112M
1510.26	0.008	762227	COUNTDOWN_END	n/a	n/a	n/a	-999	12	[0, 0, 0]	n/a	FR1	1	R1112M
1510.268	2.449	762231	ORIENT	n/a	n/a	n/a	-999	12	[0, 0, 0]	n/a	FR1	1	R1112M
1512.717	2.469	763455	WORD	n/a	wordpools/wordpool_EN.txt	PEARL	1	12	[0, 0, 0]	n/a	FR1	1	R1112M
1515.186	2.599	764690	WORD	n/a	wordpools/wordpool_EN.txt	STEAM	2	12	[0, 0, 0]	n/a	FR1	1	R1112M
1517.785	2.435	765989	WORD	n/a	wordpools/wordpool_EN.txt	JET	3	12	[0, 0, 0]	n/a	FR1	1	R1112M
1520.22	2.433	767207	WORD	n/a	wordpools/wordpool_EN.txt	ICE	4	12	[0, 0, 0]	n/a	FR1	1	R1112M
1522.653	2.518	768423	WORD	n/a	wordpools/wordpool_EN.txt	SEA	5	12	[0, 0, 0]	n/a	FR1	1	R1112M
1525.171	2.55	769682	WORD	n/a	wordpools/wordpool_EN.txt	SPARK	6	12	[0, 0, 0]	n/a	FR1	1	R1112M
1527.721	2.584	770957	WORD	n/a	wordpools/wordpool_EN.txt	SUN	7	12	[0, 0, 0]	n/a	FR1	1	R1112M
1530.305	2.533	772249	WORD	n/a	wordpools/wordpool_EN.txt	SHARK	8	12	[0, 0, 0]	n/a	FR1	1	R1112M
1532.838	2.402	773515	WORD	n/a	wordpools/wordpool_EN.txt	PIT	9	12	[0, 0, 0]	n/a	FR1	1	R1112M
1535.24	2.449	774716	WORD	n/a	wordpools/wordpool_EN.txt	MAP	10	12	[0, 0, 0]	n/a	FR1	1	R1112M
1537.689	2.552	775941	WORD	n/a	wordpools/wordpool_EN.txt	PLANE	11	12	[0, 0, 0]	n/a	FR1	1	R1112M
1540.241	1.616	777217	WORD	n/a	wordpools/wordpool_EN.txt	SAIL	12	12	[0, 0, 0]	n/a	FR1	1	R1112M
1541.857	0.0	778025	DISTRACT_START	n/a	n/a	n/a	-999	12	[0, 0, 0]	n/a	FR1	1	R1112M
1541.857	0.016	778025	START	n/a	n/a	n/a	-999	12	[-999, -999, -999]	n/a	FR1	1	R1112M
1541.873	10.786	778033	PROB	10.786	n/a	n/a	-999	12	[8, 8, 1]	17	FR1	1	R1112M
1552.659	11.035	783425	PROB	11.035	n/a	n/a	-999	12	[5, 3, 4]	12	FR1	1	R1112M
1563.694	0.017	788942	STOP	n/a	n/a	n/a	-999	12	[-999, -999, -999]	n/a	FR1	1	R1112M
1563.711	1.117	788951	DISTRACT_END	n/a	n/a	n/a	-999	12	[0, 0, 0]	n/a	FR1	1	R1112M
1564.828	1.41	789509	REC_START	n/a	n/a	n/a	-999	12	[0, 0, 0]	n/a	FR1	1	R1112M
1566.238	1.937	790214	REC_WORD	1.937	n/a	ICE	4	12	[0, 0, 0]	n/a	FR1	1	R1112M
1568.175	26.668	791183	REC_WORD	26.668	n/a	PIT	9	12	[0, 0, 0]	n/a	FR1	1	R1112M
1594.843	7.443	804516	REC_END	n/a	n/a	n/a	-999	12	[0, 0, 0]	n/a	FR1	1	R1112M
1602.286	0.0	808237	TRIAL	n/a	n/a	n/a	-999	13	[0, 0, 0]	n/a	FR1	1	R1112M
1602.286	10.428	808237	COUNTDOWN_START	n/a	n/a	n/a	-999	13	[0, 0, 0]	n/a	FR1	1	R1112M
1612.714	0.006	813451	COUNTDOWN_END	n/a	n/a	n/a	-999	13	[0, 0, 0]	n/a	FR1	1	R1112M
1612.72	2.468	813454	ORIENT	n/a	n/a	n/a	-999	13	[0, 0, 0]	n/a	FR1	1	R1112M
1615.188	2.5	814688	WORD	n/a	wordpools/wordpool_EN.txt	ROSE	1	13	[0, 0, 0]	n/a	FR1	1	R1112M
1617.688	2.602	815938	WORD	n/a	wordpools/wordpool_EN.txt	FLAG	2	13	[0, 0, 0]	n/a	FR1	1	R1112M
1620.29	2.399	817239	WORD	n/a	wordpools/wordpool_EN.txt	WHEEL	3	13	[0, 0, 0]	n/a	FR1	1	R1112M
1622.689	2.601	818438	WORD	n/a	wordpools/wordpool_EN.txt	WORLD	4	13	[0, 0, 0]	n/a	FR1	1	R1112M
1625.29	2.417	819739	WORD	n/a	wordpools/wordpool_EN.txt	SPOON	5	13	[0, 0, 0]	n/a	FR1	1	R1112M
1627.707	2.401	820947	WORD	n/a	wordpools/wordpool_EN.txt	CAKE	6	13	[0, 0, 0]	n/a	FR1	1	R1112M
1630.108	2.417	822148	WORD	n/a	wordpools/wordpool_EN.txt	YARD	7	13	[0, 0, 0]	n/a	FR1	1	R1112M
1632.525	2.451	823356	WORD	n/a	wordpools/wordpool_EN.txt	DOCK	8	13	[0, 0, 0]	n/a	FR1	1	R1112M
1634.976	2.616	824581	WORD	n/a	wordpools/wordpool_EN.txt	KEY	9	13	[0, 0, 0]	n/a	FR1	1	R1112M
1637.592	2.585	825889	WORD	n/a	wordpools/wordpool_EN.txt	TOOL	10	13	[0, 0, 0]	n/a	FR1	1	R1112M
1640.177	2.449	827182	WORD	n/a	wordpools/wordpool_EN.txt	STRING	11	13	[0, 0, 0]	n/a	FR1	1	R1112M
1642.626	1.601	828406	WORD	n/a	wordpools/wordpool_EN.txt	HOSE	12	13	[0, 0, 0]	n/a	FR1	1	R1112M
1644.227	0.001	829207	DISTRACT_START	n/a	n/a	n/a	-999	13	[0, 0, 0]	n/a	FR1	1	R1112M
1644.228	0.016	829207	START	n/a	n/a	n/a	-999	13	[-999, -999, -999]	n/a	FR1	1	R1112M
1644.244	20.235	829215	PROB	20.235	n/a	n/a	-999	13	[6, 2, 9]	17	FR1	1	R1112M
1664.479	0.019	839332	STOP	n/a	n/a	n/a	-999	13	[-999, -999, -999]	n/a	FR1	1	R1112M
1664.498	1.117	839342	DISTRACT_END	n/a	n/a	n/a	-999	13	[0, 0, 0]	n/a	FR1	1	R1112M
1665.615	3.819	839900	REC_START	n/a	n/a	n/a	-999	13	[0, 0, 0]	n/a	FR1	1	R1112M
1669.434	22.124	841809	REC_WORD	22.124	n/a	HOSE	12	13	[0, 0, 0]	n/a	FR1	1	R1112M
1691.558	4.068	852871	REC_WORD	4.068	n/a	ROSE	1	13	[0, 0, 0]	n/a	FR1	1	R1112M
1695.626	8.145	854905	REC_END	n/a	n/a	n/a	-999	13	[0, 0, 0]	n/a	FR1	1	R1112M
1703.771	0.0	858977	TRIAL	n/a	n/a	n/a	-999	14	[0, 0, 0]	n/a	FR1	1	R1112M
1703.771	10.428	858977	COUNTDOWN_START	n/a	n/a	n/a	-999	14	[0, 0, 0]	n/a	FR1	1	R1112M
1714.199	0.009	864191	COUNTDOWN_END	n/a	n/a	n/a	-999	14	[0, 0, 0]	n/a	FR1	1	R1112M
1714.208	2.449	864195	ORIENT	n/a	n/a	n/a	-999	14	[0, 0, 0]	n/a	FR1	1	R1112M
1716.657	2.518	865420	WORD	n/a	wordpools/wordpool_EN.txt	SEAT	1	14	[0, 0, 0]	n/a	FR1	1	R1112M
1719.175	2.383	866679	WORD	n/a	wordpools/wordpool_EN.txt	MULE	2	14	[0, 0, 0]	n/a	FR1	1	R1112M
1721.558	2.452	867870	WORD	n/a	wordpools/wordpool_EN.txt	TOOTH	3	14	[0, 0, 0]	n/a	FR1	1	R1112M
1724.01	2.417	869096	WORD	n/a	wordpools/wordpool_EN.txt	PASTE	4	14	[0, 0, 0]	n/a	FR1	1	R1112M
1726.427	2.567	870304	WORD	n/a	wordpools/wordpool_EN.txt	TRAY	5	14	[0, 0, 0]	n/a	FR1	1	R1112M
1728.994	2.384	871588	WORD	n/a	wordpools/wordpool_EN.txt	TEETH	6	14	[0, 0, 0]	n/a	FR1	1	R1112M
1731.378	2.583	872780	WORD	n/a	wordpools/wordpool_EN.txt	BEAK	7	14	[0, 0, 0]	n/a	FR1	1	R1112M
1733.961	2.418	874071	WORD	n/a	wordpools/wordpool_EN.txt	BRIDGE	8	14	[0, 0, 0]	n/a	FR1	1	R1112M
1736.379	2.532	875280	WORD	n/a	wordpools/wordpool_EN.txt	SALT	9	14	[0, 0, 0]	n/a	FR1	1	R1112M
1738.911	2.452	876546	WORD	n/a	wordpools/wordpool_EN.txt	PIPE	10	14	[0, 0, 0]	n/a	FR1	1	R1112M
1741.363	2.6	877772	WORD	n/a	wordpools/wordpool_EN.txt	SOAP	11	14	[0, 0, 0]	n/a	FR1	1	R1112M
1743.963	1.616	879072	WORD	n/a	wordpools/wordpool_EN.txt	TOAST	12	14	[0, 0, 0]	n/a	FR1	1	R1112M
1745.579	0.001	879880	DISTRACT_START	n/a	n/a	n/a	-999	14	[0, 0, 0]	n/a	FR1	1	R1112M
1745.58	0.016	879880	START	n/a	n/a	n/a	-999	14	[-999, -999, -999]	n/a	FR1	1	R1112M
1745.596	18.771	879888	PROB	18.771	n/a	n/a	-999	14	[3, 7, 7]	17	FR1	1	R1112M
1764.367	6.255	889273	PROB	6.255	n/a	n/a	-999	14	[3, 1, 5]	9	FR1	1	R1112M
1770.622	0.012	892401	STOP	n/a	n/a	n/a	-999	14	[-999, -999, -999]	n/a	FR1	1	R1112M
1770.634	1.051	892407	DISTRACT_END	n/a	n/a	n/a	-999	14	[0, 0, 0]	n/a	FR1	1	R1112M
1771.685	3.005	892932	REC_START	n/a	n/a	n/a	-999	14	[0, 0, 0]	n/a	FR1	1	R1112M
1774.69	11.037	894434	REC_WORD	11.037	n/a	BEAK	7	14	[0, 0, 0]	n/a	FR1	1	R1112M
1785.727	3.018	899953	REC_WORD	3.018	n/a	TEETH	6	14	[0, 0, 0]	n/a	FR1	1	R1112M
1788.745	3.332	901462	REC_WORD	3.332	n/a	TOOTH	3	14	[0, 0, 0]	n/a	FR1	1	R1112M
1792.077	9.618	903127	REC_WORD	9.618	n/a	BRUSH	-999	14	[0, 0, 0]	n/a	FR1	1	R1112M
1801.695	12.682	907936	REC_END	n/a	n/a	n/a	-999	14	[0, 0, 0]	n/a	FR1	1	R1112M
1814.377	0.0	914277	TRIAL	n/a	n/a	n/a	-999	15	[0, 0, 0]	n/a	FR1	1	R1112M
1814.377	10.428	914277	COUNTDOWN_START	n/a	n/a	n/a	-999	15	[0, 0, 0]	n/a	FR1	1	R1112M
1824.805	0.006	919491	COUNTDOWN_END	n/a	n/a	n/a	-999	15	[0, 0, 0]	n/a	FR1	1	R1112M
1824.811	2.419	919494	ORIENT	n/a	n/a	n/a	-999	15	[0, 0, 0]	n/a	FR1	1	R1112M
1827.23	2.515	920703	WORD	n/a	wordpools/wordpool_EN.txt	CHIN	1	15	[0, 0, 0]	n/a	FR1	1	R1112M
1829.745	2.602	921960	WORD	n/a	wordpools/wordpool_EN.txt	STRAW	2	15	[0, 0, 0]	n/a	FR1	1	R1112M
1832.347	2.383	923261	WORD	n/a	wordpools/wordpool_EN.txt	APE	3	15	[0, 0, 0]	n/a	FR1	1	R1112M
1834.73	2.618	924453	WORD	n/a	wordpools/wordpool_EN.txt	CART	4	15	[0, 0, 0]	n/a	FR1	1	R1112M
1837.348	2.433	925762	WORD	n/a	wordpools/wordpool_EN.txt	STEAK	5	15	[0, 0, 0]	n/a	FR1	1	R1112M
1839.781	2.368	926978	WORD	n/a	wordpools/wordpool_EN.txt	VEST	6	15	[0, 0, 0]	n/a	FR1	1	R1112M
1842.149	2.483	928162	WORD	n/a	wordpools/wordpool_EN.txt	DRESS	7	15	[0, 0, 0]	n/a	FR1	1	R1112M
1844.632	2.585	929403	WORD	n/a	wordpools/wordpool_EN.txt	BOWL	8	15	[0, 0, 0]	n/a	FR1	1	R1112M
1847.217	2.566	930696	WORD	n/a	wordpools/wordpool_EN.txt	BENCH	9	15	[0, 0, 0]	n/a	FR1	1	R1112M
1849.783	2.568	931979	WORD	n/a	wordpools/wordpool_EN.txt	SWORD	10	15	[0, 0, 0]	n/a	FR1	1	R1112M
1852.351	2.383	933263	WORD	n/a	wordpools/wordpool_EN.txt	GLOVE	11	15	[0, 0, 0]	n/a	FR1	1	R1112M
1854.734	1.601	934454	WORD	n/a	wordpools/wordpool_EN.txt	GUARD	12	15	[0, 0, 0]	n/a	FR1	1	R1112M
1856.335	0.001	935255	DISTRACT_START	n/a	n/a	n/a	-999	15	[0, 0, 0]	n/a	FR1	1	R1112M
1856.336	0.016	935255	START	n/a	n/a	n/a	-999	15	[-999, -999, -999]	n/a	FR1	1	R1112M
1856.352	30.887	935263	PROB	30.887	n/a	n/a	-999	15	[7, 8, 7]	22	FR1	1	R1112M
1887.239	0.019	950706	STOP	n/a	n/a	n/a	-999	15	[-999, -999, -999]	n/a	FR1	1	R1112M
1887.258	1.151	950715	DISTRACT_END	n/a	n/a	n/a	-999	15	[0, 0, 0]	n/a	FR1	1	R1112M
1888.409	7.414	951291	REC_START	n/a	n/a	n/a	-999	15	[0, 0, 0]	n/a	FR1	1	R1112M
1895.823	22.596	954997	REC_WORD	22.596	n/a	DRESS	7	15	[0, 0, 0]	n/a	FR1	1	R1112M
1918.419	0.0	966295	REC_END	n/a	n/a	n/a	-999	15	[0, 0, 0]	n/a	FR1	1	R1112M
