onset	duration	sample	trial_type	response_time	stim_file	item_name	serialpos	list	test	answer	experiment	session	subject
0.0	1.798	102797	INSTRUCT_START	n/a	n/a	n/a	-999	-999	[0, 0, 0]	n/a	FR1	1	R1391T
1.798	21.683	104585	INSTRUCT_END	n/a	n/a	n/a	-999	-999	[0, 0, 0]	n/a	FR1	1	R1391T
23.481	10.35	126267	COUNTDOWN_START	n/a	n/a	n/a	-999	-999	[0, 0, 0]	n/a	FR1	1	R1391T
33.831	0.001	136626	COUNTDOWN_END	n/a	n/a	n/a	-999	-999	[0, 0, 0]	n/a	FR1	1	R1391T
33.832	1.832	136626	ENCODING_START	n/a	n/a	n/a	-999	-1	[0, 0, 0]	n/a	FR1	1	R1391T
35.664	1.6	138454	WORD	n/a	n/a	CAMEL	1	-1	[0, 0, 0]	n/a	FR1	1	R1391T
37.264	0.817	140056	WORD_OFF	n/a	n/a	CAMEL	1	-1	[0, 0, 0]	n/a	FR1	1	R1391T
38.081	1.616	140863	WORD	n/a	n/a	RING	2	-1	[0, 0, 0]	n/a	FR1	1	R1391T
39.697	0.967	142493	WORD_OFF	n/a	n/a	RING	2	-1	[0, 0, 0]	n/a	FR1	1	R1391T
40.664	1.617	143457	WORD	n/a	n/a	CHEST	3	-1	[0, 0, 0]	n/a	FR1	1	R1391T
42.281	0.983	145072	WORD_OFF	n/a	n/a	CHEST	3	-1	[0, 0, 0]	n/a	FR1	1	R1391T
43.264	1.6	146050	WORD	n/a	n/a	IMAGE	4	-1	[0, 0, 0]	n/a	FR1	1	R1391T
44.864	0.916	147652	WORD_OFF	n/a	n/a	IMAGE	4	-1	[0, 0, 0]	n/a	FR1	1	R1391T
45.78	1.617	148573	WORD	n/a	n/a	TONGUE	5	-1	[0, 0, 0]	n/a	FR1	1	R1391T
47.397	0.767	150188	WORD_OFF	n/a	n/a	TONGUE	5	-1	[0, 0, 0]	n/a	FR1	1	R1391T
48.164	1.616	150953	WORD	n/a	n/a	COTTON	6	-1	[0, 0, 0]	n/a	FR1	1	R1391T
49.78	0.967	152569	WORD_OFF	n/a	n/a	COTTON	6	-1	[0, 0, 0]	n/a	FR1	1	R1391T
50.747	1.6	153533	WORD	n/a	n/a	FLOOD	7	-1	[0, 0, 0]	n/a	FR1	1	R1391T
52.347	0.983	155148	WORD_OFF	n/a	n/a	FLOOD	7	-1	[0, 0, 0]	n/a	FR1	1	R1391T
53.33	1.6	156112	WORD	n/a	n/a	RHINO	8	-1	[0, 0, 0]	n/a	FR1	1	R1391T
54.93	0.85	157713	WORD_OFF	n/a	n/a	RHINO	8	-1	[0, 0, 0]	n/a	FR1	1	R1391T
55.78	1.617	158564	WORD	n/a	n/a	BEAM	9	-1	[0, 0, 0]	n/a	FR1	1	R1391T
57.397	0.8	160179	WORD_OFF	n/a	n/a	BEAM	9	-1	[0, 0, 0]	n/a	FR1	1	R1391T
58.197	1.617	160987	WORD	n/a	n/a	WATCH	10	-1	[0, 0, 0]	n/a	FR1	1	R1391T
59.814	0.949	162602	WORD_OFF	n/a	n/a	WATCH	10	-1	[0, 0, 0]	n/a	FR1	1	R1391T
60.763	1.617	163552	WORD	n/a	n/a	WAGON	11	-1	[0, 0, 0]	n/a	FR1	1	R1391T
62.38	0.95	165167	WORD_OFF	n/a	n/a	WAGON	11	-1	[0, 0, 0]	n/a	FR1	1	R1391T
63.33	1.6	166117	WORD	n/a	n/a	BABY	12	-1	[0, 0, 0]	n/a	FR1	1	R1391T
64.93	0.001	167718	WORD_OFF	n/a	n/a	BABY	12	-1	[0, 0, 0]	n/a	FR1	1	R1391T
64.931	0.002	167718	ENCODING_END	n/a	n/a	n/a	-999	-1	[0, 0, 0]	n/a	FR1	1	R1391T
64.933	0.0	167718	DISTRACT_START	n/a	n/a	n/a	-999	-1	[0, 0, 0]	n/a	FR1	1	R1391T
64.931	0.002	167718	PROB	0.002	n/a	n/a	-999	-1	[2, 7, 6]	15	FR1	1	R1391T
64.933	8.597	167720	START	n/a	n/a	n/a	-999	-1	[-999, -999, -999]	n/a	FR1	1	R1391T
73.53	3.017	176316	PROB	3.017	n/a	n/a	-999	-1	[7, 3, 8]	18	FR1	1	R1391T
76.547	3.283	179333	PROB	3.283	n/a	n/a	-999	-1	[7, 4, 6]	17	FR1	1	R1391T
79.83	2.651	182616	PROB	2.651	n/a	n/a	-999	-1	[7, 1, 4]	12	FR1	1	R1391T
82.481	3.533	185267	PROB	3.533	n/a	n/a	-999	-1	[6, 2, 3]	11	FR1	1	R1391T
86.014	0.0	188799	STOP	n/a	n/a	n/a	-999	-1	[-999, -999, -999]	n/a	FR1	1	R1391T
86.014	1.351	188805	DISTRACT_END	n/a	n/a	n/a	-999	-1	[0, 0, 0]	n/a	FR1	1	R1391T
87.365	1.397	190152	REC_START	n/a	n/a	n/a	-999	-1	[0, 0, 0]	n/a	FR1	1	R1391T
88.762	1.287	191547	REC_WORD	1.287	n/a	CAMEL	1	-1	[0, 0, 0]	n/a	FR1	1	R1391T
90.049	1.507	192834	REC_WORD	1.507	n/a	RING	2	-1	[0, 0, 0]	n/a	FR1	1	R1391T
91.556	1.574	194341	REC_WORD	1.574	n/a	CHEST	3	-1	[0, 0, 0]	n/a	FR1	1	R1391T
93.13	24.489	195915	REC_WORD	24.489	n/a	IMAGE	4	-1	[0, 0, 0]	n/a	FR1	1	R1391T
117.619	12.478	220408	REC_END	n/a	n/a	n/a	-999	-1	[0, 0, 0]	n/a	FR1	1	R1391T
130.097	10.351	232878	COUNTDOWN_START	n/a	n/a	n/a	-999	1	[0, 0, 0]	n/a	FR1	1	R1391T
140.448	0.0	243224	COUNTDOWN_END	n/a	n/a	n/a	-999	1	[0, 0, 0]	n/a	FR1	1	R1391T
140.448	2.333	243238	ENCODING_START	n/a	n/a	n/a	-999	1	[0, 0, 0]	n/a	FR1	1	R1391T
142.781	1.616	245562	WORD	n/a	wordpools/wordpool_short_EN.txt	SWAMP	1	1	[0, 0, 0]	n/a	FR1	1	R1391T
144.397	0.967	247177	WORD_OFF	n/a	n/a	SWAMP	1	1	[0, 0, 0]	n/a	FR1	1	R1391T
145.364	1.616	248141	WORD	n/a	wordpools/wordpool_short_EN.txt	PEA	2	1	[0, 0, 0]	n/a	FR1	1	R1391T
146.98	0.783	249757	WORD_OFF	n/a	n/a	PEA	2	1	[0, 0, 0]	n/a	FR1	1	R1391T
147.763	1.601	250550	WORD	n/a	wordpools/wordpool_short_EN.txt	DEW	3	1	[0, 0, 0]	n/a	FR1	1	R1391T
149.364	0.85	252152	WORD_OFF	n/a	n/a	DEW	3	1	[0, 0, 0]	n/a	FR1	1	R1391T
150.214	1.6	253002	WORD	n/a	wordpools/wordpool_short_EN.txt	GOLD	4	1	[0, 0, 0]	n/a	FR1	1	R1391T
151.814	0.95	254589	WORD_OFF	n/a	n/a	GOLD	4	1	[0, 0, 0]	n/a	FR1	1	R1391T
152.764	1.616	255553	WORD	n/a	wordpools/wordpool_short_EN.txt	RAT	5	1	[0, 0, 0]	n/a	FR1	1	R1391T
154.38	0.95	257168	WORD_OFF	n/a	n/a	RAT	5	1	[0, 0, 0]	n/a	FR1	1	R1391T
155.33	1.6	258118	WORD	n/a	wordpools/wordpool_short_EN.txt	BOWL	6	1	[0, 0, 0]	n/a	FR1	1	R1391T
156.93	0.8	259719	WORD_OFF	n/a	n/a	BOWL	6	1	[0, 0, 0]	n/a	FR1	1	R1391T
157.73	1.6	260513	WORD	n/a	wordpools/wordpool_short_EN.txt	SOUP	7	1	[0, 0, 0]	n/a	FR1	1	R1391T
159.33	0.917	262114	WORD_OFF	n/a	n/a	SOUP	7	1	[0, 0, 0]	n/a	FR1	1	R1391T
160.247	1.6	263035	WORD	n/a	wordpools/wordpool_short_EN.txt	SOIL	8	1	[0, 0, 0]	n/a	FR1	1	R1391T
161.847	0.767	264622	WORD_OFF	n/a	n/a	SOIL	8	1	[0, 0, 0]	n/a	FR1	1	R1391T
162.614	1.616	265402	WORD	n/a	wordpools/wordpool_short_EN.txt	CLAY	9	1	[0, 0, 0]	n/a	FR1	1	R1391T
164.23	0.85	267017	WORD_OFF	n/a	n/a	CLAY	9	1	[0, 0, 0]	n/a	FR1	1	R1391T
165.08	1.617	267868	WORD	n/a	wordpools/wordpool_short_EN.txt	SALT	10	1	[0, 0, 0]	n/a	FR1	1	R1391T
166.697	0.916	269483	WORD_OFF	n/a	n/a	SALT	10	1	[0, 0, 0]	n/a	FR1	1	R1391T
167.613	1.6	270390	WORD	n/a	wordpools/wordpool_short_EN.txt	KEY	11	1	[0, 0, 0]	n/a	FR1	1	R1391T
169.213	0.867	271992	WORD_OFF	n/a	n/a	KEY	11	1	[0, 0, 0]	n/a	FR1	1	R1391T
170.08	1.617	272856	WORD	n/a	wordpools/wordpool_short_EN.txt	CLOWN	12	1	[0, 0, 0]	n/a	FR1	1	R1391T
171.697	0.0	274472	WORD_OFF	n/a	n/a	CLOWN	12	1	[0, 0, 0]	n/a	FR1	1	R1391T
171.697	0.001	274478	PROB	0.001	n/a	n/a	-999	1	[4, 6, 3]	13	FR1	1	R1391T
171.698	0.0	274479	START	n/a	n/a	n/a	-999	1	[-999, -999, -999]	n/a	FR1	1	R1391T
171.698	0.0	274486	ENCODING_END	n/a	n/a	n/a	-999	1	[0, 0, 0]	n/a	FR1	1	R1391T
171.698	3.882	274486	DISTRACT_START	n/a	n/a	n/a	-999	1	[0, 0, 0]	n/a	FR1	1	R1391T
175.58	3.101	278361	PROB	3.101	n/a	n/a	-999	1	[4, 6, 5]	15	FR1	1	R1391T
178.681	2.566	281462	PROB	2.566	n/a	n/a	-999	1	[4, 3, 7]	14	FR1	1	R1391T
181.247	3.284	284027	PROB	3.284	n/a	n/a	-999	1	[3, 2, 8]	13	FR1	1	R1391T
184.531	2.349	287311	PROB	2.349	n/a	n/a	-999	1	[2, 4, 5]	11	FR1	1	R1391T
186.88	4.301	289660	PROB	4.301	n/a	n/a	-999	1	[7, 6, 8]	21	FR1	1	R1391T
191.181	3.7	293961	PROB	3.7	n/a	n/a	-999	1	[6, 4, 6]	16	FR1	1	R1391T
194.881	0.0	297656	DISTRACT_END	n/a	n/a	n/a	-999	1	[0, 0, 0]	n/a	FR1	1	R1391T
194.881	1.267	297661	STOP	n/a	n/a	n/a	-999	1	[-999, -999, -999]	n/a	FR1	1	R1391T
196.148	1.111	298931	REC_START	n/a	n/a	n/a	-999	1	[0, 0, 0]	n/a	FR1	1	R1391T
197.259	1.784	300039	REC_WORD	1.784	n/a	SWAMP	1	1	[0, 0, 0]	n/a	FR1	1	R1391T
199.043	1.553	301822	REC_WORD	1.553	n/a	PEA	2	1	[0, 0, 0]	n/a	FR1	1	R1391T
200.596	1.404	303375	REC_WORD	1.404	n/a	DEW	3	1	[0, 0, 0]	n/a	FR1	1	R1391T
202.0	24.387	304779	REC_WORD	24.387	n/a	GOLD	4	1	[0, 0, 0]	n/a	FR1	1	R1391T
226.387	4.894	329159	REC_END	n/a	n/a	n/a	-999	1	[0, 0, 0]	n/a	FR1	1	R1391T
231.281	10.35	334062	COUNTDOWN_START	n/a	n/a	n/a	-999	2	[0, 0, 0]	n/a	FR1	1	R1391T
241.631	0.001	344407	COUNTDOWN_END	n/a	n/a	n/a	-999	2	[0, 0, 0]	n/a	FR1	1	R1391T
241.632	2.015	344407	ENCODING_START	n/a	n/a	n/a	-999	2	[0, 0, 0]	n/a	FR1	1	R1391T
243.647	1.617	346420	WORD	n/a	wordpools/wordpool_short_EN.txt	SHIP	1	2	[0, 0, 0]	n/a	FR1	1	R1391T
245.264	0.817	348035	WORD_OFF	n/a	n/a	SHIP	1	2	[0, 0, 0]	n/a	FR1	1	R1391T
246.081	1.616	348857	WORD	n/a	wordpools/wordpool_short_EN.txt	NAIL	2	2	[0, 0, 0]	n/a	FR1	1	R1391T
247.697	0.917	350473	WORD_OFF	n/a	n/a	NAIL	2	2	[0, 0, 0]	n/a	FR1	1	R1391T
248.614	1.616	351394	WORD	n/a	wordpools/wordpool_short_EN.txt	STAR	3	2	[0, 0, 0]	n/a	FR1	1	R1391T
250.23	0.834	353010	WORD_OFF	n/a	n/a	STAR	3	2	[0, 0, 0]	n/a	FR1	1	R1391T
251.064	1.616	353846	WORD	n/a	wordpools/wordpool_short_EN.txt	LENS	4	2	[0, 0, 0]	n/a	FR1	1	R1391T
252.68	1.0	355461	WORD_OFF	n/a	n/a	LENS	4	2	[0, 0, 0]	n/a	FR1	1	R1391T
253.68	1.6	356453	WORD	n/a	wordpools/wordpool_short_EN.txt	PIPE	5	2	[0, 0, 0]	n/a	FR1	1	R1391T
255.28	0.784	358055	WORD_OFF	n/a	n/a	PIPE	5	2	[0, 0, 0]	n/a	FR1	1	R1391T
256.064	1.616	358834	WORD	n/a	wordpools/wordpool_short_EN.txt	TEETH	6	2	[0, 0, 0]	n/a	FR1	1	R1391T
257.68	0.8	360450	WORD_OFF	n/a	n/a	TEETH	6	2	[0, 0, 0]	n/a	FR1	1	R1391T
258.48	1.617	361257	WORD	n/a	wordpools/wordpool_short_EN.txt	STORM	7	2	[0, 0, 0]	n/a	FR1	1	R1391T
260.097	0.916	362873	WORD_OFF	n/a	n/a	STORM	7	2	[0, 0, 0]	n/a	FR1	1	R1391T
261.013	1.601	363794	WORD	n/a	wordpools/wordpool_short_EN.txt	BOY	8	2	[0, 0, 0]	n/a	FR1	1	R1391T
262.614	0.783	365395	WORD_OFF	n/a	n/a	BOY	8	2	[0, 0, 0]	n/a	FR1	1	R1391T
263.397	1.6	366175	WORD	n/a	wordpools/wordpool_short_EN.txt	MEAT	9	2	[0, 0, 0]	n/a	FR1	1	R1391T
264.997	0.766	367776	WORD_OFF	n/a	n/a	MEAT	9	2	[0, 0, 0]	n/a	FR1	1	R1391T
265.763	1.617	368541	WORD	n/a	wordpools/wordpool_short_EN.txt	HOOK	10	2	[0, 0, 0]	n/a	FR1	1	R1391T
267.38	0.833	370157	WORD_OFF	n/a	n/a	HOOK	10	2	[0, 0, 0]	n/a	FR1	1	R1391T
268.213	1.617	370993	WORD	n/a	wordpools/wordpool_short_EN.txt	PLANT	11	2	[0, 0, 0]	n/a	FR1	1	R1391T
269.83	0.9	372609	WORD_OFF	n/a	n/a	PLANT	11	2	[0, 0, 0]	n/a	FR1	1	R1391T
270.73	1.617	373501	WORD	n/a	wordpools/wordpool_short_EN.txt	PRIZE	12	2	[0, 0, 0]	n/a	FR1	1	R1391T
272.347	0.001	375117	WORD_OFF	n/a	n/a	PRIZE	12	2	[0, 0, 0]	n/a	FR1	1	R1391T
272.348	0.0	375117	ENCODING_END	n/a	n/a	n/a	-999	2	[0, 0, 0]	n/a	FR1	1	R1391T
272.347	0.001	375123	PROB	0.001	n/a	n/a	-999	2	[6, 2, 1]	9	FR1	1	R1391T
272.348	0.0	375124	START	n/a	n/a	n/a	-999	2	[-999, -999, -999]	n/a	FR1	1	R1391T
272.348	4.282	375131	DISTRACT_START	n/a	n/a	n/a	-999	2	[0, 0, 0]	n/a	FR1	1	R1391T
276.63	3.202	379405	PROB	3.202	n/a	n/a	-999	2	[5, 3, 7]	15	FR1	1	R1391T
279.832	5.614	382607	PROB	5.614	n/a	n/a	-999	2	[3, 5, 8]	16	FR1	1	R1391T
285.446	2.519	388221	PROB	2.519	n/a	n/a	-999	2	[7, 7, 3]	17	FR1	1	R1391T
287.965	2.482	390740	PROB	2.482	n/a	n/a	-999	2	[2, 2, 3]	7	FR1	1	R1391T
290.447	2.584	393222	PROB	2.584	n/a	n/a	-999	2	[4, 1, 3]	8	FR1	1	R1391T
293.031	0.0	395806	STOP	n/a	n/a	n/a	-999	2	[-999, -999, -999]	n/a	FR1	1	R1391T
293.031	1.116	395807	DISTRACT_END	n/a	n/a	n/a	-999	2	[0, 0, 0]	n/a	FR1	1	R1391T
294.147	1.114	396927	REC_START	n/a	n/a	n/a	-999	2	[0, 0, 0]	n/a	FR1	1	R1391T
295.261	1.471	398035	REC_WORD	1.471	n/a	SHIP	1	2	[0, 0, 0]	n/a	FR1	1	R1391T
296.732	1.315	399506	REC_WORD	1.315	n/a	NAIL	2	2	[0, 0, 0]	n/a	FR1	1	R1391T
298.047	1.603	400821	REC_WORD	1.603	n/a	STAR	3	2	[0, 0, 0]	n/a	FR1	1	R1391T
299.65	24.759	402424	REC_WORD	24.759	n/a	LENS	4	2	[0, 0, 0]	n/a	FR1	1	R1391T
324.409	1.505	427183	REC_END	n/a	n/a	n/a	-999	2	[0, 0, 0]	n/a	FR1	1	R1391T
325.914	10.351	428685	COUNTDOWN_START	n/a	n/a	n/a	-999	3	[0, 0, 0]	n/a	FR1	1	R1391T
336.265	0.0	439044	COUNTDOWN_END	n/a	n/a	n/a	-999	3	[0, 0, 0]	n/a	FR1	1	R1391T
336.265	2.032	439044	ENCODING_START	n/a	n/a	n/a	-999	3	[0, 0, 0]	n/a	FR1	1	R1391T
338.297	1.617	441071	WORD	n/a	wordpools/wordpool_short_EN.txt	STEM	1	3	[0, 0, 0]	n/a	FR1	1	R1391T
339.914	0.867	442686	WORD_OFF	n/a	n/a	STEM	1	3	[0, 0, 0]	n/a	FR1	1	R1391T
340.781	1.6	443551	WORD	n/a	wordpools/wordpool_short_EN.txt	VINE	2	3	[0, 0, 0]	n/a	FR1	1	R1391T
342.381	0.833	445152	WORD_OFF	n/a	n/a	VINE	2	3	[0, 0, 0]	n/a	FR1	1	R1391T
343.214	1.6	445988	WORD	n/a	wordpools/wordpool_short_EN.txt	SOCK	3	3	[0, 0, 0]	n/a	FR1	1	R1391T
344.814	0.766	447590	WORD_OFF	n/a	n/a	SOCK	3	3	[0, 0, 0]	n/a	FR1	1	R1391T
345.58	1.6	448355	WORD	n/a	wordpools/wordpool_short_EN.txt	BRIDGE	4	3	[0, 0, 0]	n/a	FR1	1	R1391T
347.18	0.984	449956	WORD_OFF	n/a	n/a	BRIDGE	4	3	[0, 0, 0]	n/a	FR1	1	R1391T
348.164	1.6	450934	WORD	n/a	wordpools/wordpool_short_EN.txt	BENCH	5	3	[0, 0, 0]	n/a	FR1	1	R1391T
349.764	0.867	452535	WORD_OFF	n/a	n/a	BENCH	5	3	[0, 0, 0]	n/a	FR1	1	R1391T
350.631	1.6	453400	WORD	n/a	wordpools/wordpool_short_EN.txt	CRANE	6	3	[0, 0, 0]	n/a	FR1	1	R1391T
352.231	0.899	455001	WORD_OFF	n/a	n/a	CRANE	6	3	[0, 0, 0]	n/a	FR1	1	R1391T
353.13	1.601	455908	WORD	n/a	wordpools/wordpool_short_EN.txt	HOLE	7	3	[0, 0, 0]	n/a	FR1	1	R1391T
354.731	0.966	457495	WORD_OFF	n/a	n/a	HOLE	7	3	[0, 0, 0]	n/a	FR1	1	R1391T
355.697	1.617	458473	WORD	n/a	wordpools/wordpool_short_EN.txt	STRING	8	3	[0, 0, 0]	n/a	FR1	1	R1391T
357.314	1.0	460089	WORD_OFF	n/a	n/a	STRING	8	3	[0, 0, 0]	n/a	FR1	1	R1391T
358.314	1.6	461081	WORD	n/a	wordpools/wordpool_short_EN.txt	FLAG	9	3	[0, 0, 0]	n/a	FR1	1	R1391T
359.914	0.833	462682	WORD_OFF	n/a	n/a	FLAG	9	3	[0, 0, 0]	n/a	FR1	1	R1391T
360.747	1.617	463518	WORD	n/a	wordpools/wordpool_short_EN.txt	HEEL	10	3	[0, 0, 0]	n/a	FR1	1	R1391T
362.364	0.8	465134	WORD_OFF	n/a	n/a	HEEL	10	3	[0, 0, 0]	n/a	FR1	1	R1391T
363.164	1.616	465942	WORD	n/a	wordpools/wordpool_short_EN.txt	POOL	11	3	[0, 0, 0]	n/a	FR1	1	R1391T
364.78	0.885	467557	WORD_OFF	n/a	n/a	POOL	11	3	[0, 0, 0]	n/a	FR1	1	R1391T
365.665	1.599	468436	WORD	n/a	wordpools/wordpool_short_EN.txt	BLADE	12	3	[0, 0, 0]	n/a	FR1	1	R1391T
367.264	0.001	470035	PROB	0.001	n/a	n/a	-999	3	[4, 2, 8]	14	FR1	1	R1391T
367.265	0.0	470036	START	n/a	n/a	n/a	-999	3	[-999, -999, -999]	n/a	FR1	1	R1391T
367.264	0.001	470037	WORD_OFF	n/a	n/a	BLADE	12	3	[0, 0, 0]	n/a	FR1	1	R1391T
367.265	0.0	470037	ENCODING_END	n/a	n/a	n/a	-999	3	[0, 0, 0]	n/a	FR1	1	R1391T
367.265	3.866	470037	DISTRACT_START	n/a	n/a	n/a	-999	3	[0, 0, 0]	n/a	FR1	1	R1391T
371.131	3.316	473901	PROB	3.316	n/a	n/a	-999	3	[6, 8, 3]	17	FR1	1	R1391T
374.447	2.433	477217	PROB	2.433	n/a	n/a	-999	3	[3, 1, 5]	9	FR1	1	R1391T
376.88	2.101	479650	PROB	2.101	n/a	n/a	-999	3	[2, 5, 4]	11	FR1	1	R1391T
378.981	4.816	481751	PROB	4.816	n/a	n/a	-999	3	[8, 1, 6]	15	FR1	1	R1391T
383.797	2.352	486567	PROB	2.352	n/a	n/a	-999	3	[3, 1, 4]	8	FR1	1	R1391T
386.149	3.481	488919	PROB	3.481	n/a	n/a	-999	3	[1, 8, 8]	17	FR1	1	R1391T
389.63	0.0	492399	STOP	n/a	n/a	n/a	-999	3	[-999, -999, -999]	n/a	FR1	1	R1391T
389.63	1.233	492400	DISTRACT_END	n/a	n/a	n/a	-999	3	[0, 0, 0]	n/a	FR1	1	R1391T
390.863	1.8	493632	REC_START	n/a	n/a	n/a	-999	3	[0, 0, 0]	n/a	FR1	1	R1391T
392.663	1.395	495432	REC_WORD	1.395	n/a	STEM	1	3	[0, 0, 0]	n/a	FR1	1	R1391T
394.058	1.377	496827	REC_WORD	1.377	n/a	VINE	2	3	[0, 0, 0]	n/a	FR1	1	R1391T
395.435	1.556	498204	REC_WORD	1.556	n/a	SOCK	3	3	[0, 0, 0]	n/a	FR1	1	R1391T
396.991	24.129	499760	REC_WORD	24.129	n/a	BRIDGE	4	3	[0, 0, 0]	n/a	FR1	1	R1391T
421.12	1.726	523888	REC_END	n/a	n/a	n/a	-999	3	[0, 0, 0]	n/a	FR1	1	R1391T
422.846	10.352	525617	COUNTDOWN_START	n/a	n/a	n/a	-999	4	[0, 0, 0]	n/a	FR1	1	R1391T
433.198	0.0	535962	COUNTDOWN_END	n/a	n/a	n/a	-999	4	[0, 0, 0]	n/a	FR1	1	R1391T
433.198	2.015	535962	ENCODING_START	n/a	n/a	n/a	-999	4	[0, 0, 0]	n/a	FR1	1	R1391T
435.213	1.601	537975	WORD	n/a	wordpools/wordpool_short_EN.txt	MAT	1	4	[0, 0, 0]	n/a	FR1	1	R1391T
436.814	0.967	539576	WORD_OFF	n/a	n/a	MAT	1	4	[0, 0, 0]	n/a	FR1	1	R1391T
437.781	1.617	540554	WORD	n/a	wordpools/wordpool_short_EN.txt	NET	2	4	[0, 0, 0]	n/a	FR1	1	R1391T
439.398	0.883	542170	WORD_OFF	n/a	n/a	NET	2	4	[0, 0, 0]	n/a	FR1	1	R1391T
440.281	1.6	543048	WORD	n/a	wordpools/wordpool_short_EN.txt	POLE	3	4	[0, 0, 0]	n/a	FR1	1	R1391T
441.881	0.899	544650	WORD_OFF	n/a	n/a	POLE	3	4	[0, 0, 0]	n/a	FR1	1	R1391T
442.78	1.601	545542	WORD	n/a	wordpools/wordpool_short_EN.txt	LAMP	4	4	[0, 0, 0]	n/a	FR1	1	R1391T
444.381	0.8	547144	WORD_OFF	n/a	n/a	LAMP	4	4	[0, 0, 0]	n/a	FR1	1	R1391T
445.181	1.616	547951	WORD	n/a	wordpools/wordpool_short_EN.txt	CURB	5	4	[0, 0, 0]	n/a	FR1	1	R1391T
446.797	0.999	549567	WORD_OFF	n/a	n/a	CURB	5	4	[0, 0, 0]	n/a	FR1	1	R1391T
447.796	1.602	550559	WORD	n/a	wordpools/wordpool_short_EN.txt	WORM	6	4	[0, 0, 0]	n/a	FR1	1	R1391T
449.398	0.866	552160	WORD_OFF	n/a	n/a	WORM	6	4	[0, 0, 0]	n/a	FR1	1	R1391T
450.264	1.6	553025	WORD	n/a	wordpools/wordpool_short_EN.txt	WAX	7	4	[0, 0, 0]	n/a	FR1	1	R1391T
451.864	0.783	554626	WORD_OFF	n/a	n/a	WAX	7	4	[0, 0, 0]	n/a	FR1	1	R1391T
452.647	1.616	555420	WORD	n/a	wordpools/wordpool_short_EN.txt	ZOO	8	4	[0, 0, 0]	n/a	FR1	1	R1391T
454.263	0.801	557035	WORD_OFF	n/a	n/a	ZOO	8	4	[0, 0, 0]	n/a	FR1	1	R1391T
455.064	1.617	557829	WORD	n/a	wordpools/wordpool_short_EN.txt	SEED	9	4	[0, 0, 0]	n/a	FR1	1	R1391T
456.681	0.916	559444	WORD_OFF	n/a	n/a	SEED	9	4	[0, 0, 0]	n/a	FR1	1	R1391T
457.597	1.617	560366	WORD	n/a	wordpools/wordpool_short_EN.txt	BATH	10	4	[0, 0, 0]	n/a	FR1	1	R1391T
459.214	0.95	561981	WORD_OFF	n/a	n/a	BATH	10	4	[0, 0, 0]	n/a	FR1	1	R1391T
460.164	1.616	562931	WORD	n/a	wordpools/wordpool_short_EN.txt	TOOL	11	4	[0, 0, 0]	n/a	FR1	1	R1391T
461.78	0.867	564546	WORD_OFF	n/a	n/a	TOOL	11	4	[0, 0, 0]	n/a	FR1	1	R1391T
462.647	1.617	565411	WORD	n/a	wordpools/wordpool_short_EN.txt	FUR	12	4	[0, 0, 0]	n/a	FR1	1	R1391T
464.264	0.001	567026	WORD_OFF	n/a	n/a	FUR	12	4	[0, 0, 0]	n/a	FR1	1	R1391T
464.265	0.0	567026	ENCODING_END	n/a	n/a	n/a	-999	4	[0, 0, 0]	n/a	FR1	1	R1391T
464.265	0.0	567030	START	n/a	n/a	n/a	-999	4	[-999, -999, -999]	n/a	FR1	1	R1391T
464.265	0.0	567030	PROB	0.0	n/a	n/a	-999	4	[1, 3, 8]	12	FR1	1	R1391T
464.265	6.216	567040	DISTRACT_START	n/a	n/a	n/a	-999	4	[0, 0, 0]	n/a	FR1	1	R1391T
470.481	2.532	573246	PROB	2.532	n/a	n/a	-999	4	[1, 8, 6]	15	FR1	1	R1391T
473.013	2.118	575778	PROB	2.118	n/a	n/a	-999	4	[4, 2, 5]	11	FR1	1	R1391T
475.131	3.233	577896	PROB	3.233	n/a	n/a	-999	4	[6, 2, 5]	13	FR1	1	R1391T
478.364	4.983	581129	PROB	4.983	n/a	n/a	-999	4	[4, 4, 8]	16	FR1	1	R1391T
483.347	2.316	586111	PROB	2.316	n/a	n/a	-999	4	[4, 4, 1]	9	FR1	1	R1391T
485.663	0.0	588425	DISTRACT_END	n/a	n/a	n/a	-999	4	[0, 0, 0]	n/a	FR1	1	R1391T
485.663	1.35	588427	STOP	n/a	n/a	n/a	-999	4	[-999, -999, -999]	n/a	FR1	1	R1391T
487.013	1.797	589771	REC_START	n/a	n/a	n/a	-999	4	[0, 0, 0]	n/a	FR1	1	R1391T
488.81	1.428	591574	REC_WORD	1.428	n/a	MAT	1	4	[0, 0, 0]	n/a	FR1	1	R1391T
490.238	1.514	593002	REC_WORD	1.514	n/a	NET	2	4	[0, 0, 0]	n/a	FR1	1	R1391T
491.752	1.5	594516	REC_WORD	1.5	n/a	POLE	3	4	[0, 0, 0]	n/a	FR1	1	R1391T
493.252	24.022	596016	REC_WORD	24.022	n/a	LAMP	4	4	[0, 0, 0]	n/a	FR1	1	R1391T
517.274	1.59	620041	REC_END	n/a	n/a	n/a	-999	4	[0, 0, 0]	n/a	FR1	1	R1391T
518.864	10.351	621629	COUNTDOWN_START	n/a	n/a	n/a	-999	5	[0, 0, 0]	n/a	FR1	1	R1391T
529.215	0.0	631974	COUNTDOWN_END	n/a	n/a	n/a	-999	5	[0, 0, 0]	n/a	FR1	1	R1391T
529.215	2.115	631974	ENCODING_START	n/a	n/a	n/a	-999	5	[0, 0, 0]	n/a	FR1	1	R1391T
531.33	1.601	634085	WORD	n/a	wordpools/wordpool_short_EN.txt	GATE	1	5	[0, 0, 0]	n/a	FR1	1	R1391T
532.931	0.8	635687	WORD_OFF	n/a	n/a	GATE	1	5	[0, 0, 0]	n/a	FR1	1	R1391T
533.731	1.616	636494	WORD	n/a	wordpools/wordpool_short_EN.txt	CAT	2	5	[0, 0, 0]	n/a	FR1	1	R1391T
535.347	1.0	638110	WORD_OFF	n/a	n/a	CAT	2	5	[0, 0, 0]	n/a	FR1	1	R1391T
536.347	1.6	639116	WORD	n/a	wordpools/wordpool_short_EN.txt	PET	3	5	[0, 0, 0]	n/a	FR1	1	R1391T
537.947	0.9	640703	WORD_OFF	n/a	n/a	PET	3	5	[0, 0, 0]	n/a	FR1	1	R1391T
538.847	1.6	641610	WORD	n/a	wordpools/wordpool_short_EN.txt	OIL	4	5	[0, 0, 0]	n/a	FR1	1	R1391T
540.447	0.9	643212	WORD_OFF	n/a	n/a	OIL	4	5	[0, 0, 0]	n/a	FR1	1	R1391T
541.347	1.616	644105	WORD	n/a	wordpools/wordpool_short_EN.txt	SUIT	5	5	[0, 0, 0]	n/a	FR1	1	R1391T
542.963	0.868	645720	WORD_OFF	n/a	n/a	SUIT	5	5	[0, 0, 0]	n/a	FR1	1	R1391T
543.831	1.6	646599	WORD	n/a	wordpools/wordpool_short_EN.txt	HAT	6	5	[0, 0, 0]	n/a	FR1	1	R1391T
545.431	0.783	648186	WORD_OFF	n/a	n/a	HAT	6	5	[0, 0, 0]	n/a	FR1	1	R1391T
546.214	1.6	648980	WORD	n/a	wordpools/wordpool_short_EN.txt	MOOSE	7	5	[0, 0, 0]	n/a	FR1	1	R1391T
547.814	0.8	650581	WORD_OFF	n/a	n/a	MOOSE	7	5	[0, 0, 0]	n/a	FR1	1	R1391T
548.614	1.6	651374	WORD	n/a	wordpools/wordpool_short_EN.txt	STORE	8	5	[0, 0, 0]	n/a	FR1	1	R1391T
550.214	0.899	652976	WORD_OFF	n/a	n/a	STORE	8	5	[0, 0, 0]	n/a	FR1	1	R1391T
551.113	1.601	653869	WORD	n/a	wordpools/wordpool_short_EN.txt	NECK	9	5	[0, 0, 0]	n/a	FR1	1	R1391T
552.714	0.883	655470	WORD_OFF	n/a	n/a	NECK	9	5	[0, 0, 0]	n/a	FR1	1	R1391T
553.597	1.617	656363	WORD	n/a	wordpools/wordpool_short_EN.txt	SHEET	10	5	[0, 0, 0]	n/a	FR1	1	R1391T
555.214	1.0	657978	WORD_OFF	n/a	n/a	SHEET	10	5	[0, 0, 0]	n/a	FR1	1	R1391T
556.214	1.6	658970	WORD	n/a	wordpools/wordpool_short_EN.txt	POT	11	5	[0, 0, 0]	n/a	FR1	1	R1391T
557.814	1.0	660572	WORD_OFF	n/a	n/a	POT	11	5	[0, 0, 0]	n/a	FR1	1	R1391T
558.814	1.601	661578	WORD	n/a	wordpools/wordpool_short_EN.txt	EARTH	12	5	[0, 0, 0]	n/a	FR1	1	R1391T
560.415	0.0	663175	START	n/a	n/a	n/a	-999	5	[-999, -999, -999]	n/a	FR1	1	R1391T
560.415	0.0	663175	PROB	0.0	n/a	n/a	-999	5	[7, 4, 4]	15	FR1	1	R1391T
560.414	0.001	663179	WORD_OFF	n/a	n/a	EARTH	12	5	[0, 0, 0]	n/a	FR1	1	R1391T
560.415	0.0	663179	ENCODING_END	n/a	n/a	n/a	-999	5	[0, 0, 0]	n/a	FR1	1	R1391T
560.415	6.666	663179	DISTRACT_START	n/a	n/a	n/a	-999	5	[0, 0, 0]	n/a	FR1	1	R1391T
567.081	2.616	669841	PROB	2.616	n/a	n/a	-999	5	[3, 2, 2]	7	FR1	1	R1391T
569.697	4.384	672457	PROB	4.384	n/a	n/a	-999	5	[6, 3, 5]	14	FR1	1	R1391T
574.081	6.766	676841	PROB	6.766	n/a	n/a	-999	5	[1, 7, 5]	13	FR1	1	R1391T
580.847	0.0	683600	DISTRACT_END	n/a	n/a	n/a	-999	5	[0, 0, 0]	n/a	FR1	1	R1391T
580.847	1.05	683606	STOP	n/a	n/a	n/a	-999	5	[-999, -999, -999]	n/a	FR1	1	R1391T
581.897	1.721	684649	REC_START	n/a	n/a	n/a	-999	5	[0, 0, 0]	n/a	FR1	1	R1391T
583.618	1.871	686377	REC_WORD	1.871	n/a	CAT	2	5	[0, 0, 0]	n/a	FR1	1	R1391T
585.489	1.905	688248	REC_WORD	1.905	n/a	PET	3	5	[0, 0, 0]	n/a	FR1	1	R1391T
587.394	2.293	690153	REC_WORD	2.293	n/a	OIL	4	5	[0, 0, 0]	n/a	FR1	1	R1391T
589.687	22.476	692446	REC_WORD	22.476	n/a	SUIT	5	5	[0, 0, 0]	n/a	FR1	1	R1391T
612.163	1.535	714919	REC_END	n/a	n/a	n/a	-999	5	[0, 0, 0]	n/a	FR1	1	R1391T
613.698	10.35	716464	COUNTDOWN_START	n/a	n/a	n/a	-999	6	[0, 0, 0]	n/a	FR1	1	R1391T
624.048	0.0	726809	COUNTDOWN_END	n/a	n/a	n/a	-999	6	[0, 0, 0]	n/a	FR1	1	R1391T
624.048	2.249	726809	ENCODING_START	n/a	n/a	n/a	-999	6	[0, 0, 0]	n/a	FR1	1	R1391T
626.297	1.6	729048	WORD	n/a	wordpools/wordpool_short_EN.txt	GLASS	1	6	[0, 0, 0]	n/a	FR1	1	R1391T
627.897	0.9	730649	WORD_OFF	n/a	n/a	GLASS	1	6	[0, 0, 0]	n/a	FR1	1	R1391T
628.797	1.617	731556	WORD	n/a	wordpools/wordpool_short_EN.txt	MOSS	2	6	[0, 0, 0]	n/a	FR1	1	R1391T
630.414	0.767	733172	WORD_OFF	n/a	n/a	MOSS	2	6	[0, 0, 0]	n/a	FR1	1	R1391T
631.181	1.616	733937	WORD	n/a	wordpools/wordpool_short_EN.txt	CLOTH	3	6	[0, 0, 0]	n/a	FR1	1	R1391T
632.797	0.8	735553	WORD_OFF	n/a	n/a	CLOTH	3	6	[0, 0, 0]	n/a	FR1	1	R1391T
633.597	1.617	736360	WORD	n/a	wordpools/wordpool_short_EN.txt	ROPE	4	6	[0, 0, 0]	n/a	FR1	1	R1391T
635.214	0.783	737976	WORD_OFF	n/a	n/a	ROPE	4	6	[0, 0, 0]	n/a	FR1	1	R1391T
635.997	1.617	738755	WORD	n/a	wordpools/wordpool_short_EN.txt	MOUTH	5	6	[0, 0, 0]	n/a	FR1	1	R1391T
637.614	0.833	740371	WORD_OFF	n/a	n/a	MOUTH	5	6	[0, 0, 0]	n/a	FR1	1	R1391T
638.447	1.617	741207	WORD	n/a	wordpools/wordpool_short_EN.txt	HAIR	6	6	[0, 0, 0]	n/a	FR1	1	R1391T
640.064	0.933	742823	WORD_OFF	n/a	n/a	HAIR	6	6	[0, 0, 0]	n/a	FR1	1	R1391T
640.997	1.616	743758	WORD	n/a	wordpools/wordpool_short_EN.txt	WOLF	7	6	[0, 0, 0]	n/a	FR1	1	R1391T
642.613	0.968	745373	WORD_OFF	n/a	n/a	WOLF	7	6	[0, 0, 0]	n/a	FR1	1	R1391T
643.581	1.616	746337	WORD	n/a	wordpools/wordpool_short_EN.txt	TREE	8	6	[0, 0, 0]	n/a	FR1	1	R1391T
645.197	0.917	747953	WORD_OFF	n/a	n/a	TREE	8	6	[0, 0, 0]	n/a	FR1	1	R1391T
646.114	1.6	748874	WORD	n/a	wordpools/wordpool_short_EN.txt	THREAD	9	6	[0, 0, 0]	n/a	FR1	1	R1391T
647.714	0.833	750475	WORD_OFF	n/a	n/a	THREAD	9	6	[0, 0, 0]	n/a	FR1	1	R1391T
648.547	1.617	751297	WORD	n/a	wordpools/wordpool_short_EN.txt	SPEAR	10	6	[0, 0, 0]	n/a	FR1	1	R1391T
650.164	0.95	752922	WORD_OFF	n/a	n/a	SPEAR	10	6	[0, 0, 0]	n/a	FR1	1	R1391T
651.114	1.617	753876	WORD	n/a	wordpools/wordpool_short_EN.txt	TENT	11	6	[0, 0, 0]	n/a	FR1	1	R1391T
652.731	0.883	755492	WORD_OFF	n/a	n/a	TENT	11	6	[0, 0, 0]	n/a	FR1	1	R1391T
653.614	1.6	756370	WORD	n/a	wordpools/wordpool_short_EN.txt	BIRD	12	6	[0, 0, 0]	n/a	FR1	1	R1391T
655.214	0.001	757969	PROB	0.001	n/a	n/a	-999	6	[3, 5, 7]	15	FR1	1	R1391T
655.215	0.0	757970	START	n/a	n/a	n/a	-999	6	[-999, -999, -999]	n/a	FR1	1	R1391T
655.214	0.001	757972	WORD_OFF	n/a	n/a	BIRD	12	6	[0, 0, 0]	n/a	FR1	1	R1391T
655.215	0.0	757972	ENCODING_END	n/a	n/a	n/a	-999	6	[0, 0, 0]	n/a	FR1	1	R1391T
655.215	5.299	757972	DISTRACT_START	n/a	n/a	n/a	-999	6	[0, 0, 0]	n/a	FR1	1	R1391T
660.514	3.785	763269	PROB	3.785	n/a	n/a	-999	6	[2, 2, 7]	11	FR1	1	R1391T
664.299	2.099	767054	PROB	2.099	n/a	n/a	-999	6	[2, 3, 1]	6	FR1	1	R1391T
666.398	5.533	769153	PROB	5.533	n/a	n/a	-999	6	[7, 5, 2]	14	FR1	1	R1391T
671.931	14.549	774685	PROB	14.549	n/a	n/a	-999	6	[5, 6, 6]	17	FR1	1	R1391T
686.48	0.0	789234	DISTRACT_END	n/a	n/a	n/a	-999	6	[0, 0, 0]	n/a	FR1	1	R1391T
686.48	1.283	789234	STOP	n/a	n/a	n/a	-999	6	[-999, -999, -999]	n/a	FR1	1	R1391T
687.763	2.082	790524	REC_START	n/a	n/a	n/a	-999	6	[0, 0, 0]	n/a	FR1	1	R1391T
689.845	1.521	792599	REC_WORD	1.521	n/a	GLASS	1	6	[0, 0, 0]	n/a	FR1	1	R1391T
691.366	1.44	794119	REC_WORD	1.44	n/a	MOTH	-999	6	[0, 0, 0]	n/a	FR1	1	R1391T
692.806	2.179	795559	REC_WORD	2.179	n/a	CLOTH	3	6	[0, 0, 0]	n/a	FR1	1	R1391T
694.985	23.043	797738	REC_WORD	23.043	n/a	ROPE	4	6	[0, 0, 0]	n/a	FR1	1	R1391T
718.028	1.436	820780	REC_END	n/a	n/a	n/a	-999	6	[0, 0, 0]	n/a	FR1	1	R1391T
719.464	10.351	822225	COUNTDOWN_START	n/a	n/a	n/a	-999	7	[0, 0, 0]	n/a	FR1	1	R1391T
729.815	0.0	832570	COUNTDOWN_END	n/a	n/a	n/a	-999	7	[0, 0, 0]	n/a	FR1	1	R1391T
729.815	2.165	832570	ENCODING_START	n/a	n/a	n/a	-999	7	[0, 0, 0]	n/a	FR1	1	R1391T
731.98	1.601	834738	WORD	n/a	wordpools/wordpool_short_EN.txt	NURSE	1	7	[0, 0, 0]	n/a	FR1	1	R1391T
733.581	0.833	836326	WORD_OFF	n/a	n/a	NURSE	1	7	[0, 0, 0]	n/a	FR1	1	R1391T
734.414	1.6	837162	WORD	n/a	wordpools/wordpool_short_EN.txt	SPONGE	2	7	[0, 0, 0]	n/a	FR1	1	R1391T
736.014	0.766	838763	WORD_OFF	n/a	n/a	SPONGE	2	7	[0, 0, 0]	n/a	FR1	1	R1391T
736.78	1.6	839528	WORD	n/a	wordpools/wordpool_short_EN.txt	CLIFF	3	7	[0, 0, 0]	n/a	FR1	1	R1391T
738.38	0.867	841130	WORD_OFF	n/a	n/a	CLIFF	3	7	[0, 0, 0]	n/a	FR1	1	R1391T
739.247	1.6	841994	WORD	n/a	wordpools/wordpool_short_EN.txt	MAIL	4	7	[0, 0, 0]	n/a	FR1	1	R1391T
740.847	0.767	843596	WORD_OFF	n/a	n/a	MAIL	4	7	[0, 0, 0]	n/a	FR1	1	R1391T
741.614	1.6	844361	WORD	n/a	wordpools/wordpool_short_EN.txt	CUBE	5	7	[0, 0, 0]	n/a	FR1	1	R1391T
743.214	0.933	845962	WORD_OFF	n/a	n/a	CUBE	5	7	[0, 0, 0]	n/a	FR1	1	R1391T
744.147	1.6	846897	WORD	n/a	wordpools/wordpool_short_EN.txt	GEESE	6	7	[0, 0, 0]	n/a	FR1	1	R1391T
745.747	0.95	848499	WORD_OFF	n/a	n/a	GEESE	6	7	[0, 0, 0]	n/a	FR1	1	R1391T
746.697	1.6	849448	WORD	n/a	wordpools/wordpool_short_EN.txt	PLATE	7	7	[0, 0, 0]	n/a	FR1	1	R1391T
748.297	0.85	851050	WORD_OFF	n/a	n/a	PLATE	7	7	[0, 0, 0]	n/a	FR1	1	R1391T
749.147	1.617	851900	WORD	n/a	wordpools/wordpool_short_EN.txt	DOG	8	7	[0, 0, 0]	n/a	FR1	1	R1391T
750.764	0.933	853516	WORD_OFF	n/a	n/a	DOG	8	7	[0, 0, 0]	n/a	FR1	1	R1391T
751.697	1.616	854451	WORD	n/a	wordpools/wordpool_short_EN.txt	COKE	9	7	[0, 0, 0]	n/a	FR1	1	R1391T
753.313	0.951	856066	WORD_OFF	n/a	n/a	COKE	9	7	[0, 0, 0]	n/a	FR1	1	R1391T
754.264	1.617	857016	WORD	n/a	wordpools/wordpool_short_EN.txt	CUP	10	7	[0, 0, 0]	n/a	FR1	1	R1391T
755.881	0.799	858631	WORD_OFF	n/a	n/a	CUP	10	7	[0, 0, 0]	n/a	FR1	1	R1391T
756.68	1.601	859425	WORD	n/a	wordpools/wordpool_short_EN.txt	APE	11	7	[0, 0, 0]	n/a	FR1	1	R1391T
758.281	0.883	861026	WORD_OFF	n/a	n/a	APE	11	7	[0, 0, 0]	n/a	FR1	1	R1391T
759.164	1.6	861919	WORD	n/a	wordpools/wordpool_short_EN.txt	YARD	12	7	[0, 0, 0]	n/a	FR1	1	R1391T
760.764	0.001	863514	PROB	0.001	n/a	n/a	-999	7	[6, 7, 3]	16	FR1	1	R1391T
760.765	0.0	863515	START	n/a	n/a	n/a	-999	7	[-999, -999, -999]	n/a	FR1	1	R1391T
760.764	0.001	863521	WORD_OFF	n/a	n/a	YARD	12	7	[0, 0, 0]	n/a	FR1	1	R1391T
760.765	0.0	863521	ENCODING_END	n/a	n/a	n/a	-999	7	[0, 0, 0]	n/a	FR1	1	R1391T
760.765	4.299	863521	DISTRACT_START	n/a	n/a	n/a	-999	7	[0, 0, 0]	n/a	FR1	1	R1391T
765.064	2.933	867814	PROB	2.933	n/a	n/a	-999	7	[1, 8, 3]	12	FR1	1	R1391T
767.997	1.967	870746	PROB	1.967	n/a	n/a	-999	7	[1, 1, 1]	3	FR1	1	R1391T
769.964	2.55	872713	PROB	2.55	n/a	n/a	-999	7	[1, 1, 5]	7	FR1	1	R1391T
772.514	2.684	875263	PROB	2.684	n/a	n/a	-999	7	[5, 1, 3]	9	FR1	1	R1391T
775.198	3.049	877947	PROB	3.049	n/a	n/a	-999	7	[7, 4, 6]	17	FR1	1	R1391T
778.247	4.385	880996	PROB	4.385	n/a	n/a	-999	7	[8, 6, 6]	20	FR1	1	R1391T
782.632	0.0	885381	STOP	n/a	n/a	n/a	-999	7	[-999, -999, -999]	n/a	FR1	1	R1391T
782.632	1.031	885387	DISTRACT_END	n/a	n/a	n/a	-999	7	[0, 0, 0]	n/a	FR1	1	R1391T
783.663	1.251	886407	REC_START	n/a	n/a	n/a	-999	7	[0, 0, 0]	n/a	FR1	1	R1391T
784.914	1.323	887662	REC_WORD	1.323	n/a	NURSE	1	7	[0, 0, 0]	n/a	FR1	1	R1391T
786.237	1.946	888985	REC_WORD	1.946	n/a	SPONGE	2	7	[0, 0, 0]	n/a	FR1	1	R1391T
788.183	1.787	890931	REC_WORD	1.787	n/a	CLIP	-999	7	[0, 0, 0]	n/a	FR1	1	R1391T
789.97	23.929	892718	REC_WORD	23.929	n/a	MAIL	4	7	[0, 0, 0]	n/a	FR1	1	R1391T
813.899	1.515	916649	REC_END	n/a	n/a	n/a	-999	7	[0, 0, 0]	n/a	FR1	1	R1391T
815.414	10.351	918166	COUNTDOWN_START	n/a	n/a	n/a	-999	8	[0, 0, 0]	n/a	FR1	1	R1391T
825.765	0.0	928511	COUNTDOWN_END	n/a	n/a	n/a	-999	8	[0, 0, 0]	n/a	FR1	1	R1391T
825.765	2.132	928511	ENCODING_START	n/a	n/a	n/a	-999	8	[0, 0, 0]	n/a	FR1	1	R1391T
827.897	1.617	930651	WORD	n/a	wordpools/wordpool_short_EN.txt	CHEEK	1	8	[0, 0, 0]	n/a	FR1	1	R1391T
829.514	0.85	932266	WORD_OFF	n/a	n/a	CHEEK	1	8	[0, 0, 0]	n/a	FR1	1	R1391T
830.364	1.616	933116	WORD	n/a	wordpools/wordpool_short_EN.txt	SPICE	2	8	[0, 0, 0]	n/a	FR1	1	R1391T
831.98	0.784	934732	WORD_OFF	n/a	n/a	SPICE	2	8	[0, 0, 0]	n/a	FR1	1	R1391T
832.764	1.601	935511	WORD	n/a	wordpools/wordpool_short_EN.txt	CASH	3	8	[0, 0, 0]	n/a	FR1	1	R1391T
834.365	0.849	937113	WORD_OFF	n/a	n/a	CASH	3	8	[0, 0, 0]	n/a	FR1	1	R1391T
835.214	1.6	937963	WORD	n/a	wordpools/wordpool_short_EN.txt	PAN	4	8	[0, 0, 0]	n/a	FR1	1	R1391T
836.814	0.783	939564	WORD_OFF	n/a	n/a	PAN	4	8	[0, 0, 0]	n/a	FR1	1	R1391T
837.597	1.6	940344	WORD	n/a	wordpools/wordpool_short_EN.txt	FLAME	5	8	[0, 0, 0]	n/a	FR1	1	R1391T
839.197	0.834	941945	WORD_OFF	n/a	n/a	FLAME	5	8	[0, 0, 0]	n/a	FR1	1	R1391T
840.031	1.6	942781	WORD	n/a	wordpools/wordpool_short_EN.txt	WEED	6	8	[0, 0, 0]	n/a	FR1	1	R1391T
841.631	0.983	944383	WORD_OFF	n/a	n/a	WEED	6	8	[0, 0, 0]	n/a	FR1	1	R1391T
842.614	1.6	945360	WORD	n/a	wordpools/wordpool_short_EN.txt	FRUIT	7	8	[0, 0, 0]	n/a	FR1	1	R1391T
844.214	0.916	946962	WORD_OFF	n/a	n/a	FRUIT	7	8	[0, 0, 0]	n/a	FR1	1	R1391T
845.13	1.6	947869	WORD	n/a	wordpools/wordpool_short_EN.txt	CAGE	8	8	[0, 0, 0]	n/a	FR1	1	R1391T
846.73	0.884	949470	WORD_OFF	n/a	n/a	CAGE	8	8	[0, 0, 0]	n/a	FR1	1	R1391T
847.614	1.617	950363	WORD	n/a	wordpools/wordpool_short_EN.txt	BEEF	9	8	[0, 0, 0]	n/a	FR1	1	R1391T
849.231	0.833	951979	WORD_OFF	n/a	n/a	BEEF	9	8	[0, 0, 0]	n/a	FR1	1	R1391T
850.064	1.6	952815	WORD	n/a	wordpools/wordpool_short_EN.txt	FOX	10	8	[0, 0, 0]	n/a	FR1	1	R1391T
851.664	0.833	954416	WORD_OFF	n/a	n/a	FOX	10	8	[0, 0, 0]	n/a	FR1	1	R1391T
852.497	1.6	955238	WORD	n/a	wordpools/wordpool_short_EN.txt	CHALK	11	8	[0, 0, 0]	n/a	FR1	1	R1391T
854.097	0.767	956839	WORD_OFF	n/a	n/a	CHALK	11	8	[0, 0, 0]	n/a	FR1	1	R1391T
854.864	1.616	957605	WORD	n/a	wordpools/wordpool_short_EN.txt	WHEEL	12	8	[0, 0, 0]	n/a	FR1	1	R1391T
856.48	0.0	959220	WORD_OFF	n/a	n/a	WHEEL	12	8	[0, 0, 0]	n/a	FR1	1	R1391T
856.48	0.001	959225	PROB	0.001	n/a	n/a	-999	8	[3, 6, 2]	11	FR1	1	R1391T
856.481	0.0	959226	START	n/a	n/a	n/a	-999	8	[-999, -999, -999]	n/a	FR1	1	R1391T
856.481	0.0	959234	ENCODING_END	n/a	n/a	n/a	-999	8	[0, 0, 0]	n/a	FR1	1	R1391T
856.481	5.933	959234	DISTRACT_START	n/a	n/a	n/a	-999	8	[0, 0, 0]	n/a	FR1	1	R1391T
862.414	1.601	965158	PROB	1.601	n/a	n/a	-999	8	[1, 4, 6]	11	FR1	1	R1391T
864.015	2.083	966759	PROB	2.083	n/a	n/a	-999	8	[2, 2, 1]	5	FR1	1	R1391T
866.098	4.233	968842	PROB	4.233	n/a	n/a	-999	8	[3, 8, 6]	17	FR1	1	R1391T
870.331	3.267	973075	PROB	3.267	n/a	n/a	-999	8	[5, 3, 4]	12	FR1	1	R1391T
873.598	2.082	976342	PROB	2.082	n/a	n/a	-999	8	[4, 7, 3]	14	FR1	1	R1391T
875.68	4.567	978424	PROB	4.567	n/a	n/a	-999	8	[5, 6, 6]	17	FR1	1	R1391T
880.247	0.0	982986	DISTRACT_END	n/a	n/a	n/a	-999	8	[0, 0, 0]	n/a	FR1	1	R1391T
880.247	1.133	982990	STOP	n/a	n/a	n/a	-999	8	[-999, -999, -999]	n/a	FR1	1	R1391T
881.38	1.611	984119	REC_START	n/a	n/a	n/a	-999	8	[0, 0, 0]	n/a	FR1	1	R1391T
882.991	1.386	985734	REC_WORD	1.386	n/a	WHEEL	12	8	[0, 0, 0]	n/a	FR1	1	R1391T
884.377	1.702	987120	REC_WORD	1.702	n/a	SPICE	2	8	[0, 0, 0]	n/a	FR1	1	R1391T
886.079	1.963	988822	REC_WORD	1.963	n/a	CASH	3	8	[0, 0, 0]	n/a	FR1	1	R1391T
888.042	23.581	990785	REC_WORD	23.581	n/a	PAN	4	8	[0, 0, 0]	n/a	FR1	1	R1391T
911.623	1.557	1014361	REC_END	n/a	n/a	n/a	-999	8	[0, 0, 0]	n/a	FR1	1	R1391T
913.18	10.351	1015920	COUNTDOWN_START	n/a	n/a	n/a	-999	9	[0, 0, 0]	n/a	FR1	1	R1391T
923.531	0.001	1026279	COUNTDOWN_END	n/a	n/a	n/a	-999	9	[0, 0, 0]	n/a	FR1	1	R1391T
923.532	1.815	1026279	ENCODING_START	n/a	n/a	n/a	-999	9	[0, 0, 0]	n/a	FR1	1	R1391T
925.347	1.6	1028093	WORD	n/a	wordpools/wordpool_short_EN.txt	SEAL	1	9	[0, 0, 0]	n/a	FR1	1	R1391T
926.947	0.849	1029695	WORD_OFF	n/a	n/a	SEAL	1	9	[0, 0, 0]	n/a	FR1	1	R1391T
927.796	1.601	1030545	WORD	n/a	wordpools/wordpool_short_EN.txt	MIST	2	9	[0, 0, 0]	n/a	FR1	1	R1391T
929.397	0.767	1032146	WORD_OFF	n/a	n/a	MIST	2	9	[0, 0, 0]	n/a	FR1	1	R1391T
930.164	1.6	1032911	WORD	n/a	wordpools/wordpool_short_EN.txt	SAUCE	3	9	[0, 0, 0]	n/a	FR1	1	R1391T
931.764	0.866	1034499	WORD_OFF	n/a	n/a	SAUCE	3	9	[0, 0, 0]	n/a	FR1	1	R1391T
932.63	1.6	1035377	WORD	n/a	wordpools/wordpool_short_EN.txt	LANE	4	9	[0, 0, 0]	n/a	FR1	1	R1391T
934.23	0.833	1036964	WORD_OFF	n/a	n/a	LANE	4	9	[0, 0, 0]	n/a	FR1	1	R1391T
935.063	1.601	1037801	WORD	n/a	wordpools/wordpool_short_EN.txt	STEEL	5	9	[0, 0, 0]	n/a	FR1	1	R1391T
936.664	0.935	1039402	WORD_OFF	n/a	n/a	STEEL	5	9	[0, 0, 0]	n/a	FR1	1	R1391T
937.599	1.598	1040337	WORD	n/a	wordpools/wordpool_short_EN.txt	DIME	6	9	[0, 0, 0]	n/a	FR1	1	R1391T
939.197	0.884	1041939	WORD_OFF	n/a	n/a	DIME	6	9	[0, 0, 0]	n/a	FR1	1	R1391T
940.081	1.616	1042817	WORD	n/a	wordpools/wordpool_short_EN.txt	SHOE	7	9	[0, 0, 0]	n/a	FR1	1	R1391T
941.697	0.85	1044433	WORD_OFF	n/a	n/a	SHOE	7	9	[0, 0, 0]	n/a	FR1	1	R1391T
942.547	1.617	1045283	WORD	n/a	wordpools/wordpool_short_EN.txt	TANK	8	9	[0, 0, 0]	n/a	FR1	1	R1391T
944.164	0.85	1046899	WORD_OFF	n/a	n/a	TANK	8	9	[0, 0, 0]	n/a	FR1	1	R1391T
945.014	1.617	1047749	WORD	n/a	wordpools/wordpool_short_EN.txt	CHIN	9	9	[0, 0, 0]	n/a	FR1	1	R1391T
946.631	0.916	1049364	WORD_OFF	n/a	n/a	CHIN	9	9	[0, 0, 0]	n/a	FR1	1	R1391T
947.547	1.6	1050286	WORD	n/a	wordpools/wordpool_short_EN.txt	FROG	10	9	[0, 0, 0]	n/a	FR1	1	R1391T
949.147	0.784	1051887	WORD_OFF	n/a	n/a	FROG	10	9	[0, 0, 0]	n/a	FR1	1	R1391T
949.931	1.6	1052666	WORD	n/a	wordpools/wordpool_short_EN.txt	STEAM	11	9	[0, 0, 0]	n/a	FR1	1	R1391T
951.531	0.833	1054268	WORD_OFF	n/a	n/a	STEAM	11	9	[0, 0, 0]	n/a	FR1	1	R1391T
952.364	1.6	1055104	WORD	n/a	wordpools/wordpool_short_EN.txt	BEAN	12	9	[0, 0, 0]	n/a	FR1	1	R1391T
953.964	0.001	1056705	WORD_OFF	n/a	n/a	BEAN	12	9	[0, 0, 0]	n/a	FR1	1	R1391T
953.965	0.0	1056705	ENCODING_END	n/a	n/a	n/a	-999	9	[0, 0, 0]	n/a	FR1	1	R1391T
953.965	0.0	1056705	DISTRACT_START	n/a	n/a	n/a	-999	9	[0, 0, 0]	n/a	FR1	1	R1391T
953.965	0.0	1056705	START	n/a	n/a	n/a	-999	9	[-999, -999, -999]	n/a	FR1	1	R1391T
953.965	8.617	1056705	PROB	8.617	n/a	n/a	-999	9	[7, 8, 7]	22	FR1	1	R1391T
962.582	2.865	1065321	PROB	2.865	n/a	n/a	-999	9	[7, 5, 3]	15	FR1	1	R1391T
965.447	2.767	1068186	PROB	2.767	n/a	n/a	-999	9	[5, 6, 5]	16	FR1	1	R1391T
968.214	3.017	1070953	PROB	3.017	n/a	n/a	-999	9	[2, 3, 6]	11	FR1	1	R1391T
971.231	3.116	1073970	PROB	3.116	n/a	n/a	-999	9	[8, 7, 4]	19	FR1	1	R1391T
974.347	0.0	1077084	DISTRACT_END	n/a	n/a	n/a	-999	9	[0, 0, 0]	n/a	FR1	1	R1391T
974.347	1.35	1077085	STOP	n/a	n/a	n/a	-999	9	[-999, -999, -999]	n/a	FR1	1	R1391T
975.697	1.58	1078430	REC_START	n/a	n/a	n/a	-999	9	[0, 0, 0]	n/a	FR1	1	R1391T
977.277	1.839	1080015	REC_WORD	1.839	n/a	SEAL	1	9	[0, 0, 0]	n/a	FR1	1	R1391T
979.116	3.319	1081854	REC_WORD	3.319	n/a	MIST	2	9	[0, 0, 0]	n/a	FR1	1	R1391T
982.435	1.436	1085173	REC_WORD	1.436	n/a	SAUCE	3	9	[0, 0, 0]	n/a	FR1	1	R1391T
983.871	22.083	1086609	REC_WORD	22.083	n/a	LANE	4	9	[0, 0, 0]	n/a	FR1	1	R1391T
1005.954	1.276	1108686	REC_END	n/a	n/a	n/a	-999	9	[0, 0, 0]	n/a	FR1	1	R1391T
1007.23	10.35	1109976	COUNTDOWN_START	n/a	n/a	n/a	-999	10	[0, 0, 0]	n/a	FR1	1	R1391T
1017.58	0.001	1120321	COUNTDOWN_END	n/a	n/a	n/a	-999	10	[0, 0, 0]	n/a	FR1	1	R1391T
1017.581	2.251	1120321	ENCODING_START	n/a	n/a	n/a	-999	10	[0, 0, 0]	n/a	FR1	1	R1391T
1019.832	1.599	1122574	WORD	n/a	wordpools/wordpool_short_EN.txt	ASH	1	10	[0, 0, 0]	n/a	FR1	1	R1391T
1021.431	0.95	1124161	WORD_OFF	n/a	n/a	ASH	1	10	[0, 0, 0]	n/a	FR1	1	R1391T
1022.381	1.6	1125111	WORD	n/a	wordpools/wordpool_short_EN.txt	TOY	2	10	[0, 0, 0]	n/a	FR1	1	R1391T
1023.981	1.0	1126712	WORD_OFF	n/a	n/a	TOY	2	10	[0, 0, 0]	n/a	FR1	1	R1391T
1024.981	1.6	1127718	WORD	n/a	wordpools/wordpool_short_EN.txt	SWORD	3	10	[0, 0, 0]	n/a	FR1	1	R1391T
1026.581	0.933	1129320	WORD_OFF	n/a	n/a	SWORD	3	10	[0, 0, 0]	n/a	FR1	1	R1391T
1027.514	1.617	1130255	WORD	n/a	wordpools/wordpool_short_EN.txt	BLOOD	4	10	[0, 0, 0]	n/a	FR1	1	R1391T
1029.131	0.866	1131870	WORD_OFF	n/a	n/a	BLOOD	4	10	[0, 0, 0]	n/a	FR1	1	R1391T
1029.997	1.6	1132735	WORD	n/a	wordpools/wordpool_short_EN.txt	SHED	5	10	[0, 0, 0]	n/a	FR1	1	R1391T
1031.597	1.0	1134336	WORD_OFF	n/a	n/a	SHED	5	10	[0, 0, 0]	n/a	FR1	1	R1391T
1032.597	1.6	1135328	WORD	n/a	wordpools/wordpool_short_EN.txt	HAY	6	10	[0, 0, 0]	n/a	FR1	1	R1391T
1034.197	1.0	1136930	WORD_OFF	n/a	n/a	HAY	6	10	[0, 0, 0]	n/a	FR1	1	R1391T
1035.197	1.617	1137936	WORD	n/a	wordpools/wordpool_short_EN.txt	BRANCH	7	10	[0, 0, 0]	n/a	FR1	1	R1391T
1036.814	0.767	1139551	WORD_OFF	n/a	n/a	BRANCH	7	10	[0, 0, 0]	n/a	FR1	1	R1391T
1037.581	1.6	1140317	WORD	n/a	wordpools/wordpool_short_EN.txt	LOCK	8	10	[0, 0, 0]	n/a	FR1	1	R1391T
1039.181	0.899	1141918	WORD_OFF	n/a	n/a	LOCK	8	10	[0, 0, 0]	n/a	FR1	1	R1391T
1040.08	1.601	1142811	WORD	n/a	wordpools/wordpool_short_EN.txt	RICE	9	10	[0, 0, 0]	n/a	FR1	1	R1391T
1041.681	0.982	1144412	WORD_OFF	n/a	n/a	RICE	9	10	[0, 0, 0]	n/a	FR1	1	R1391T
1042.663	1.601	1145404	WORD	n/a	wordpools/wordpool_short_EN.txt	MOUSE	10	10	[0, 0, 0]	n/a	FR1	1	R1391T
1044.264	0.933	1147006	WORD_OFF	n/a	n/a	MOUSE	10	10	[0, 0, 0]	n/a	FR1	1	R1391T
1045.197	1.6	1147927	WORD	n/a	wordpools/wordpool_short_EN.txt	MINK	11	10	[0, 0, 0]	n/a	FR1	1	R1391T
1046.797	0.917	1149528	WORD_OFF	n/a	n/a	MINK	11	10	[0, 0, 0]	n/a	FR1	1	R1391T
1047.714	1.601	1150449	WORD	n/a	wordpools/wordpool_short_EN.txt	TROUT	12	10	[0, 0, 0]	n/a	FR1	1	R1391T
1049.315	0.001	1152049	PROB	0.001	n/a	n/a	-999	10	[5, 3, 8]	16	FR1	1	R1391T
1049.316	0.0	1152050	START	n/a	n/a	n/a	-999	10	[-999, -999, -999]	n/a	FR1	1	R1391T
1049.314	0.001	1152051	WORD_OFF	n/a	n/a	TROUT	12	10	[0, 0, 0]	n/a	FR1	1	R1391T
1049.315	0.001	1152051	ENCODING_END	n/a	n/a	n/a	-999	10	[0, 0, 0]	n/a	FR1	1	R1391T
1049.316	5.784	1152051	DISTRACT_START	n/a	n/a	n/a	-999	10	[0, 0, 0]	n/a	FR1	1	R1391T
1055.1	3.248	1157834	PROB	3.248	n/a	n/a	-999	10	[6, 6, 6]	18	FR1	1	R1391T
1058.348	7.7	1161082	PROB	7.7	n/a	n/a	-999	10	[2, 4, 3]	9	FR1	1	R1391T
1066.048	3.05	1168782	PROB	3.05	n/a	n/a	-999	10	[6, 4, 3]	13	FR1	1	R1391T
1069.098	2.599	1171831	PROB	2.599	n/a	n/a	-999	10	[5, 3, 1]	9	FR1	1	R1391T
1071.697	0.0	1174427	DISTRACT_END	n/a	n/a	n/a	-999	10	[0, 0, 0]	n/a	FR1	1	R1391T
1071.697	1.316	1174430	STOP	n/a	n/a	n/a	-999	10	[-999, -999, -999]	n/a	FR1	1	R1391T
1073.013	1.413	1175745	REC_START	n/a	n/a	n/a	-999	10	[0, 0, 0]	n/a	FR1	1	R1391T
1074.426	1.413	1177159	REC_WORD	1.413	n/a	TOY	2	10	[0, 0, 0]	n/a	FR1	1	R1391T
1075.839	1.784	1178572	REC_WORD	1.784	n/a	SWORD	3	10	[0, 0, 0]	n/a	FR1	1	R1391T
1077.623	1.628	1180356	REC_WORD	1.628	n/a	BLOOD	4	10	[0, 0, 0]	n/a	FR1	1	R1391T
1079.251	24.02	1181984	REC_WORD	24.02	n/a	SHED	5	10	[0, 0, 0]	n/a	FR1	1	R1391T
1103.271	12.092	1206001	REC_END	n/a	n/a	n/a	-999	10	[0, 0, 0]	n/a	FR1	1	R1391T
1115.363	10.352	1218104	COUNTDOWN_START	n/a	n/a	n/a	-999	11	[0, 0, 0]	n/a	FR1	1	R1391T
1125.715	0.0	1228449	COUNTDOWN_END	n/a	n/a	n/a	-999	11	[0, 0, 0]	n/a	FR1	1	R1391T
1125.715	2.332	1228449	ENCODING_START	n/a	n/a	n/a	-999	11	[0, 0, 0]	n/a	FR1	1	R1391T
1128.047	1.6	1230773	WORD	n/a	wordpools/wordpool_short_EN.txt	MAP	1	11	[0, 0, 0]	n/a	FR1	1	R1391T
1129.647	0.967	1232374	WORD_OFF	n/a	n/a	MAP	1	11	[0, 0, 0]	n/a	FR1	1	R1391T
1130.614	1.6	1233338	WORD	n/a	wordpools/wordpool_short_EN.txt	BANK	2	11	[0, 0, 0]	n/a	FR1	1	R1391T
1132.214	0.85	1234939	WORD_OFF	n/a	n/a	BANK	2	11	[0, 0, 0]	n/a	FR1	1	R1391T
1133.064	1.617	1235789	WORD	n/a	wordpools/wordpool_short_EN.txt	SEA	3	11	[0, 0, 0]	n/a	FR1	1	R1391T
1134.681	0.966	1237405	WORD_OFF	n/a	n/a	SEA	3	11	[0, 0, 0]	n/a	FR1	1	R1391T
1135.647	1.6	1238383	WORD	n/a	wordpools/wordpool_short_EN.txt	BOOT	4	11	[0, 0, 0]	n/a	FR1	1	R1391T
1137.247	0.8	1239984	WORD_OFF	n/a	n/a	BOOT	4	11	[0, 0, 0]	n/a	FR1	1	R1391T
1138.047	1.617	1240778	WORD	n/a	wordpools/wordpool_short_EN.txt	LEAF	5	11	[0, 0, 0]	n/a	FR1	1	R1391T
1139.664	0.967	1242393	WORD_OFF	n/a	n/a	LEAF	5	11	[0, 0, 0]	n/a	FR1	1	R1391T
1140.631	1.6	1243357	WORD	n/a	wordpools/wordpool_short_EN.txt	ARK	6	11	[0, 0, 0]	n/a	FR1	1	R1391T
1142.231	0.782	1244958	WORD_OFF	n/a	n/a	ARK	6	11	[0, 0, 0]	n/a	FR1	1	R1391T
1143.013	1.601	1245738	WORD	n/a	wordpools/wordpool_short_EN.txt	SKUNK	7	11	[0, 0, 0]	n/a	FR1	1	R1391T
1144.614	0.933	1247339	WORD_OFF	n/a	n/a	SKUNK	7	11	[0, 0, 0]	n/a	FR1	1	R1391T
1145.547	1.599	1248274	WORD	n/a	wordpools/wordpool_short_EN.txt	BOARD	8	11	[0, 0, 0]	n/a	FR1	1	R1391T
1147.146	1.001	1249876	WORD_OFF	n/a	n/a	BOARD	8	11	[0, 0, 0]	n/a	FR1	1	R1391T
1148.147	1.617	1250882	WORD	n/a	wordpools/wordpool_short_EN.txt	SAIL	9	11	[0, 0, 0]	n/a	FR1	1	R1391T
1149.764	0.866	1252498	WORD_OFF	n/a	n/a	SAIL	9	11	[0, 0, 0]	n/a	FR1	1	R1391T
1150.63	1.601	1253362	WORD	n/a	wordpools/wordpool_short_EN.txt	TRAY	10	11	[0, 0, 0]	n/a	FR1	1	R1391T
1152.231	0.983	1254963	WORD_OFF	n/a	n/a	TRAY	10	11	[0, 0, 0]	n/a	FR1	1	R1391T
1153.214	1.617	1255941	WORD	n/a	wordpools/wordpool_short_EN.txt	MOON	11	11	[0, 0, 0]	n/a	FR1	1	R1391T
1154.831	0.766	1257557	WORD_OFF	n/a	n/a	MOON	11	11	[0, 0, 0]	n/a	FR1	1	R1391T
1155.597	1.617	1258322	WORD	n/a	wordpools/wordpool_short_EN.txt	VASE	12	11	[0, 0, 0]	n/a	FR1	1	R1391T
1157.214	0.001	1259938	WORD_OFF	n/a	n/a	VASE	12	11	[0, 0, 0]	n/a	FR1	1	R1391T
1157.215	0.0	1259944	START	n/a	n/a	n/a	-999	11	[-999, -999, -999]	n/a	FR1	1	R1391T
1157.215	0.0	1259944	PROB	0.0	n/a	n/a	-999	11	[8, 4, 5]	17	FR1	1	R1391T
1157.215	0.0	1259952	ENCODING_END	n/a	n/a	n/a	-999	11	[0, 0, 0]	n/a	FR1	1	R1391T
1157.215	6.633	1259952	DISTRACT_START	n/a	n/a	n/a	-999	11	[0, 0, 0]	n/a	FR1	1	R1391T
1163.848	3.683	1266576	PROB	3.683	n/a	n/a	-999	11	[3, 2, 4]	9	FR1	1	R1391T
1167.531	5.883	1270259	PROB	5.883	n/a	n/a	-999	11	[1, 7, 2]	10	FR1	1	R1391T
1173.414	3.883	1276142	PROB	3.883	n/a	n/a	-999	11	[2, 1, 5]	8	FR1	1	R1391T
1177.297	0.0	1280025	STOP	n/a	n/a	n/a	-999	11	[-999, -999, -999]	n/a	FR1	1	R1391T
1177.297	1.4	1280033	DISTRACT_END	n/a	n/a	n/a	-999	11	[0, 0, 0]	n/a	FR1	1	R1391T
1178.697	2.049	1281421	REC_START	n/a	n/a	n/a	-999	11	[0, 0, 0]	n/a	FR1	1	R1391T
1180.746	1.819	1283474	REC_WORD	1.819	n/a	MAP	1	11	[0, 0, 0]	n/a	FR1	1	R1391T
1182.565	2.357	1285292	REC_WORD	2.357	n/a	BANK	2	11	[0, 0, 0]	n/a	FR1	1	R1391T
1184.922	2.066	1287649	REC_WORD	2.066	n/a	BOARD	8	11	[0, 0, 0]	n/a	FR1	1	R1391T
1186.988	21.965	1289715	REC_WORD	21.965	n/a	SKUNK	7	11	[0, 0, 0]	n/a	FR1	1	R1391T
1208.953	2.244	1311677	REC_END	n/a	n/a	n/a	-999	11	[0, 0, 0]	n/a	FR1	1	R1391T
1211.197	10.351	1313931	COUNTDOWN_START	n/a	n/a	n/a	-999	12	[0, 0, 0]	n/a	FR1	1	R1391T
1221.548	0.0	1324276	COUNTDOWN_END	n/a	n/a	n/a	-999	12	[0, 0, 0]	n/a	FR1	1	R1391T
1221.548	1.882	1324276	ENCODING_START	n/a	n/a	n/a	-999	12	[0, 0, 0]	n/a	FR1	1	R1391T
1223.43	1.601	1326161	WORD	n/a	wordpools/wordpool_short_EN.txt	BROOM	1	12	[0, 0, 0]	n/a	FR1	1	R1391T
1225.031	0.867	1327762	WORD_OFF	n/a	n/a	BROOM	1	12	[0, 0, 0]	n/a	FR1	1	R1391T
1225.898	1.616	1328626	WORD	n/a	wordpools/wordpool_short_EN.txt	SNAKE	2	12	[0, 0, 0]	n/a	FR1	1	R1391T
1227.514	0.767	1330242	WORD_OFF	n/a	n/a	SNAKE	2	12	[0, 0, 0]	n/a	FR1	1	R1391T
1228.281	1.616	1331007	WORD	n/a	wordpools/wordpool_short_EN.txt	BAY	3	12	[0, 0, 0]	n/a	FR1	1	R1391T
1229.897	0.9	1332623	WORD_OFF	n/a	n/a	BAY	3	12	[0, 0, 0]	n/a	FR1	1	R1391T
1230.797	1.6	1333516	WORD	n/a	wordpools/wordpool_short_EN.txt	PURSE	4	12	[0, 0, 0]	n/a	FR1	1	R1391T
1232.397	0.983	1335117	WORD_OFF	n/a	n/a	PURSE	4	12	[0, 0, 0]	n/a	FR1	1	R1391T
1233.38	1.6	1336109	WORD	n/a	wordpools/wordpool_short_EN.txt	POND	5	12	[0, 0, 0]	n/a	FR1	1	R1391T
1234.98	0.784	1337710	WORD_OFF	n/a	n/a	POND	5	12	[0, 0, 0]	n/a	FR1	1	R1391T
1235.764	1.6	1338490	WORD	n/a	wordpools/wordpool_short_EN.txt	SMILE	6	12	[0, 0, 0]	n/a	FR1	1	R1391T
1237.364	0.9	1340091	WORD_OFF	n/a	n/a	SMILE	6	12	[0, 0, 0]	n/a	FR1	1	R1391T
1238.264	1.617	1340984	WORD	n/a	wordpools/wordpool_short_EN.txt	HOOF	7	12	[0, 0, 0]	n/a	FR1	1	R1391T
1239.881	0.766	1342599	WORD_OFF	n/a	n/a	HOOF	7	12	[0, 0, 0]	n/a	FR1	1	R1391T
1240.647	1.6	1343379	WORD	n/a	wordpools/wordpool_short_EN.txt	PORK	8	12	[0, 0, 0]	n/a	FR1	1	R1391T
1242.247	0.85	1344966	WORD_OFF	n/a	n/a	PORK	8	12	[0, 0, 0]	n/a	FR1	1	R1391T
1243.097	1.6	1345816	WORD	n/a	wordpools/wordpool_short_EN.txt	THROAT	9	12	[0, 0, 0]	n/a	FR1	1	R1391T
1244.697	1.0	1347418	WORD_OFF	n/a	n/a	THROAT	9	12	[0, 0, 0]	n/a	FR1	1	R1391T
1245.697	1.601	1348424	WORD	n/a	wordpools/wordpool_short_EN.txt	RAKE	10	12	[0, 0, 0]	n/a	FR1	1	R1391T
1247.298	0.799	1350025	WORD_OFF	n/a	n/a	RAKE	10	12	[0, 0, 0]	n/a	FR1	1	R1391T
1248.097	1.6	1350819	WORD	n/a	wordpools/wordpool_short_EN.txt	PARK	11	12	[0, 0, 0]	n/a	FR1	1	R1391T
1249.697	1.0	1352420	WORD_OFF	n/a	n/a	PARK	11	12	[0, 0, 0]	n/a	FR1	1	R1391T
1250.697	1.6	1353426	WORD	n/a	wordpools/wordpool_short_EN.txt	SLIME	12	12	[0, 0, 0]	n/a	FR1	1	R1391T
1252.297	0.002	1355021	PROB	0.002	n/a	n/a	-999	12	[2, 8, 2]	12	FR1	1	R1391T
1252.299	0.0	1355023	START	n/a	n/a	n/a	-999	12	[-999, -999, -999]	n/a	FR1	1	R1391T
1252.298	0.001	1355028	WORD_OFF	n/a	n/a	SLIME	12	12	[0, 0, 0]	n/a	FR1	1	R1391T
1252.299	0.0	1355028	ENCODING_END	n/a	n/a	n/a	-999	12	[0, 0, 0]	n/a	FR1	1	R1391T
1252.299	4.366	1355028	DISTRACT_START	n/a	n/a	n/a	-999	12	[0, 0, 0]	n/a	FR1	1	R1391T
1256.665	2.233	1359388	PROB	2.233	n/a	n/a	-999	12	[3, 1, 4]	8	FR1	1	R1391T
1258.898	3.283	1361621	PROB	3.283	n/a	n/a	-999	12	[8, 2, 7]	17	FR1	1	R1391T
1262.181	2.717	1364904	PROB	2.717	n/a	n/a	-999	12	[3, 7, 8]	18	FR1	1	R1391T
1264.898	2.3	1367621	PROB	2.3	n/a	n/a	-999	12	[3, 7, 7]	17	FR1	1	R1391T
1267.198	3.05	1369921	PROB	3.05	n/a	n/a	-999	12	[8, 6, 1]	15	FR1	1	R1391T
1270.248	2.916	1372971	PROB	2.916	n/a	n/a	-999	12	[5, 7, 2]	14	FR1	1	R1391T
1273.164	0.0	1375887	STOP	n/a	n/a	n/a	-999	12	[-999, -999, -999]	n/a	FR1	1	R1391T
1273.164	1.083	1375888	DISTRACT_END	n/a	n/a	n/a	-999	12	[0, 0, 0]	n/a	FR1	1	R1391T
1274.247	1.502	1376965	REC_START	n/a	n/a	n/a	-999	12	[0, 0, 0]	n/a	FR1	1	R1391T
1275.749	1.458	1378471	REC_WORD	1.458	n/a	BROOM	1	12	[0, 0, 0]	n/a	FR1	1	R1391T
1277.207	1.421	1379929	REC_WORD	1.421	n/a	BANK	-999	12	[0, 0, 0]	n/a	FR1	1	R1391T
1278.628	1.363	1381350	REC_WORD	1.363	n/a	POND	5	12	[0, 0, 0]	n/a	FR1	1	R1391T
1279.991	24.534	1382713	REC_WORD	24.534	n/a	SMILE	6	12	[0, 0, 0]	n/a	FR1	1	R1391T
1304.525	0.0	1407249	REC_END	n/a	n/a	n/a	-999	12	[0, 0, 0]	n/a	FR1	1	R1391T
