onset	duration	sample	trial_type	response_time	stim_file	item_name	serialpos	list	test	answer	experiment	session	subject
0.0	0.0	3886	INSTRUCT_START	n/a	n/a	n/a	-999	-999	[0, 0, 0]	n/a	FR1	2	R1200T
0.0	10.99	3886	INSTRUCT_END	n/a	n/a	n/a	-999	-999	[0, 0, 0]	n/a	FR1	2	R1200T
10.99	0.0	14875	SESS_START	n/a	n/a	n/a	-999	-999	[0, 0, 0]	n/a	FR1	2	R1200T
10.99	36.002	14875	MIC_TEST	n/a	n/a	n/a	-999	-999	[0, 0, 0]	n/a	FR1	2	R1200T
46.992	5.301	50875	PRACTICE_TRIAL	n/a	n/a	n/a	-999	-1	[0, 0, 0]	n/a	FR1	2	R1200T
52.293	10.428	56176	COUNTDOWN_START	n/a	n/a	n/a	-999	-1	[0, 0, 0]	n/a	FR1	2	R1200T
62.721	0.008	66603	COUNTDOWN_END	n/a	n/a	n/a	-999	-1	[0, 0, 0]	n/a	FR1	2	R1200T
62.729	1.617	66611	PRACTICE_ORIENT	n/a	n/a	n/a	-999	-1	[0, 0, 0]	n/a	FR1	2	R1200T
64.346	2.134	68228	PRACTICE_ORIENT_OFF	n/a	n/a	n/a	-999	-1	[0, 0, 0]	n/a	FR1	2	R1200T
66.48	1.616	70362	PRACTICE_WORD	n/a	n/a	ATTIC	1	-1	[0, 0, 0]	n/a	FR1	2	R1200T
68.096	0.966	71978	PRACTICE_WORD_OFF	n/a	n/a	ATTIC	-999	-1	[0, 0, 0]	n/a	FR1	2	R1200T
69.062	1.618	72944	PRACTICE_WORD	n/a	n/a	RING	2	-1	[0, 0, 0]	n/a	FR1	2	R1200T
70.68	0.984	74562	PRACTICE_WORD_OFF	n/a	n/a	RING	-999	-1	[0, 0, 0]	n/a	FR1	2	R1200T
71.664	1.616	75546	PRACTICE_WORD	n/a	n/a	CHEST	3	-1	[0, 0, 0]	n/a	FR1	2	R1200T
73.28	0.933	77162	PRACTICE_WORD_OFF	n/a	n/a	CHEST	-999	-1	[0, 0, 0]	n/a	FR1	2	R1200T
74.213	1.601	78094	PRACTICE_WORD	n/a	n/a	COTTON	4	-1	[0, 0, 0]	n/a	FR1	2	R1200T
75.814	0.767	79695	PRACTICE_WORD_OFF	n/a	n/a	COTTON	-999	-1	[0, 0, 0]	n/a	FR1	2	R1200T
76.581	1.616	80462	PRACTICE_WORD	n/a	n/a	RHINO	5	-1	[0, 0, 0]	n/a	FR1	2	R1200T
78.197	0.784	82078	PRACTICE_WORD_OFF	n/a	n/a	RHINO	-999	-1	[0, 0, 0]	n/a	FR1	2	R1200T
78.981	1.601	82862	PRACTICE_WORD	n/a	n/a	CAMEL	6	-1	[0, 0, 0]	n/a	FR1	2	R1200T
80.582	0.8	84463	PRACTICE_WORD_OFF	n/a	n/a	CAMEL	-999	-1	[0, 0, 0]	n/a	FR1	2	R1200T
81.382	1.616	85263	PRACTICE_WORD	n/a	n/a	WAGON	7	-1	[0, 0, 0]	n/a	FR1	2	R1200T
82.998	0.984	86879	PRACTICE_WORD_OFF	n/a	n/a	WAGON	-999	-1	[0, 0, 0]	n/a	FR1	2	R1200T
83.982	1.618	87863	PRACTICE_WORD	n/a	n/a	BEAM	8	-1	[0, 0, 0]	n/a	FR1	2	R1200T
85.6	0.833	89481	PRACTICE_WORD_OFF	n/a	n/a	BEAM	-999	-1	[0, 0, 0]	n/a	FR1	2	R1200T
86.433	1.616	90314	PRACTICE_WORD	n/a	n/a	TONGUE	9	-1	[0, 0, 0]	n/a	FR1	2	R1200T
88.049	0.967	91930	PRACTICE_WORD_OFF	n/a	n/a	TONGUE	-999	-1	[0, 0, 0]	n/a	FR1	2	R1200T
89.016	1.618	92897	PRACTICE_WORD	n/a	n/a	WATCH	10	-1	[0, 0, 0]	n/a	FR1	2	R1200T
90.634	0.9	94515	PRACTICE_WORD_OFF	n/a	n/a	WATCH	-999	-1	[0, 0, 0]	n/a	FR1	2	R1200T
91.534	1.616	95414	PRACTICE_WORD	n/a	n/a	IRON	11	-1	[0, 0, 0]	n/a	FR1	2	R1200T
93.15	0.9	97030	PRACTICE_WORD_OFF	n/a	n/a	IRON	-999	-1	[0, 0, 0]	n/a	FR1	2	R1200T
94.05	1.618	97930	PRACTICE_WORD	n/a	n/a	FLOOD	12	-1	[0, 0, 0]	n/a	FR1	2	R1200T
95.668	0.0	99548	PRACTICE_WORD_OFF	n/a	n/a	FLOOD	-999	-1	[0, 0, 0]	n/a	FR1	2	R1200T
95.668	0.001	99548	DISTRACT_START	n/a	n/a	n/a	-999	-1	[0, 0, 0]	n/a	FR1	2	R1200T
95.669	0.016	99549	START	n/a	n/a	n/a	-999	-1	[-999, -999, -999]	n/a	FR1	2	R1200T
95.685	19.977	99565	PROB	19.977	n/a	n/a	-999	-1	[2, 1, 5]	8	FR1	2	R1200T
115.662	0.01	119541	STOP	n/a	n/a	n/a	-999	-1	[-999, -999, -999]	n/a	FR1	2	R1200T
115.672	0.615	119551	DISTRACT_END	n/a	n/a	n/a	-999	-1	[0, 0, 0]	n/a	FR1	2	R1200T
116.287	0.519	120166	RETRIEVAL_ORIENT	n/a	n/a	n/a	-999	-1	[0, 0, 0]	n/a	FR1	2	R1200T
116.806	30.012	120685	PRACTICE_REC_START	n/a	n/a	n/a	-999	-1	[0, 0, 0]	n/a	FR1	2	R1200T
146.818	16.461	150695	PRACTICE_REC_END	n/a	n/a	n/a	-999	-1	[0, 0, 0]	n/a	FR1	2	R1200T
163.279	0.5	167155	TRIAL	n/a	n/a	n/a	-999	1	[0, 0, 0]	n/a	FR1	2	R1200T
163.779	10.428	167655	COUNTDOWN_START	n/a	n/a	n/a	-999	1	[0, 0, 0]	n/a	FR1	2	R1200T
174.207	0.008	178083	COUNTDOWN_END	n/a	n/a	n/a	-999	1	[0, 0, 0]	n/a	FR1	2	R1200T
174.215	1.618	178091	ORIENT	n/a	n/a	n/a	-999	1	[0, 0, 0]	n/a	FR1	2	R1200T
175.833	2.033	179709	ORIENT_OFF	n/a	n/a	n/a	-999	1	[0, 0, 0]	n/a	FR1	2	R1200T
177.866	1.617	181741	WORD	n/a	wordpools/wordpool_EN.txt	STAR	1	1	[0, 0, 0]	n/a	FR1	2	R1200T
179.483	0.934	183358	WORD_OFF	n/a	n/a	STAR	1	1	[0, 0, 0]	n/a	FR1	2	R1200T
180.417	1.616	184292	WORD	n/a	wordpools/wordpool_EN.txt	STORE	2	1	[0, 0, 0]	n/a	FR1	2	R1200T
182.033	0.983	185908	WORD_OFF	n/a	n/a	STORE	2	1	[0, 0, 0]	n/a	FR1	2	R1200T
183.016	1.618	186891	WORD	n/a	wordpools/wordpool_EN.txt	BEAR	3	1	[0, 0, 0]	n/a	FR1	2	R1200T
184.634	0.817	188509	WORD_OFF	n/a	n/a	BEAR	3	1	[0, 0, 0]	n/a	FR1	2	R1200T
185.451	1.616	189326	WORD	n/a	wordpools/wordpool_EN.txt	HORSE	4	1	[0, 0, 0]	n/a	FR1	2	R1200T
187.067	0.801	190942	WORD_OFF	n/a	n/a	HORSE	4	1	[0, 0, 0]	n/a	FR1	2	R1200T
187.868	1.617	191743	WORD	n/a	wordpools/wordpool_EN.txt	SEED	5	1	[0, 0, 0]	n/a	FR1	2	R1200T
189.485	0.9	193360	WORD_OFF	n/a	n/a	SEED	5	1	[0, 0, 0]	n/a	FR1	2	R1200T
190.385	1.616	194260	WORD	n/a	wordpools/wordpool_EN.txt	WAND	6	1	[0, 0, 0]	n/a	FR1	2	R1200T
192.001	1.017	195876	WORD_OFF	n/a	n/a	WAND	6	1	[0, 0, 0]	n/a	FR1	2	R1200T
193.018	1.618	196893	WORD	n/a	wordpools/wordpool_EN.txt	CORD	7	1	[0, 0, 0]	n/a	FR1	2	R1200T
194.636	0.9	198510	WORD_OFF	n/a	n/a	CORD	7	1	[0, 0, 0]	n/a	FR1	2	R1200T
195.536	1.616	199410	WORD	n/a	wordpools/wordpool_EN.txt	TRASH	8	1	[0, 0, 0]	n/a	FR1	2	R1200T
197.152	0.917	201026	WORD_OFF	n/a	n/a	TRASH	8	1	[0, 0, 0]	n/a	FR1	2	R1200T
198.069	1.601	201943	WORD	n/a	wordpools/wordpool_EN.txt	JAIL	9	1	[0, 0, 0]	n/a	FR1	2	R1200T
199.67	0.834	203544	WORD_OFF	n/a	n/a	JAIL	9	1	[0, 0, 0]	n/a	FR1	2	R1200T
200.504	1.616	204378	WORD	n/a	wordpools/wordpool_EN.txt	WAVE	10	1	[0, 0, 0]	n/a	FR1	2	R1200T
202.12	0.917	205994	WORD_OFF	n/a	n/a	WAVE	10	1	[0, 0, 0]	n/a	FR1	2	R1200T
203.037	1.618	206911	WORD	n/a	wordpools/wordpool_EN.txt	BOMB	11	1	[0, 0, 0]	n/a	FR1	2	R1200T
204.655	0.866	208529	WORD_OFF	n/a	n/a	BOMB	11	1	[0, 0, 0]	n/a	FR1	2	R1200T
205.521	1.616	209395	WORD	n/a	wordpools/wordpool_EN.txt	NET	12	1	[0, 0, 0]	n/a	FR1	2	R1200T
207.137	0.0	211011	WORD_OFF	n/a	n/a	NET	12	1	[0, 0, 0]	n/a	FR1	2	R1200T
207.137	0.001	211011	DISTRACT_START	n/a	n/a	n/a	-999	1	[0, 0, 0]	n/a	FR1	2	R1200T
207.138	0.016	211012	START	n/a	n/a	n/a	-999	1	[-999, -999, -999]	n/a	FR1	2	R1200T
207.154	8.436	211028	PROB	8.436	n/a	n/a	-999	1	[3, 9, 3]	16	FR1	2	R1200T
215.59	7.45	219463	PROB	7.45	n/a	n/a	-999	1	[7, 8, 6]	16	FR1	2	R1200T
223.04	2.518	226913	PROB	2.518	n/a	n/a	-999	1	[1, 3, 5]	9	FR1	2	R1200T
225.558	8.216	229431	PROB	8.216	n/a	n/a	-999	1	[1, 5, 8]	17	FR1	2	R1200T
233.774	0.019	237646	STOP	n/a	n/a	n/a	-999	1	[-999, -999, -999]	n/a	FR1	2	R1200T
233.793	0.65	237665	DISTRACT_END	n/a	n/a	n/a	-999	1	[0, 0, 0]	n/a	FR1	2	R1200T
234.443	0.517	238315	RETRIEVAL_ORIENT	n/a	n/a	n/a	-999	1	[0, 0, 0]	n/a	FR1	2	R1200T
234.96	2.894	238832	REC_START	n/a	n/a	n/a	-999	1	[0, 0, 0]	n/a	FR1	2	R1200T
237.854	4.387	241726	REC_WORD	4.387	n/a	STORE	2	1	[0, 0, 0]	n/a	FR1	2	R1200T
242.241	22.728	246113	REC_WORD	22.728	n/a	STAR	1	1	[0, 0, 0]	n/a	FR1	2	R1200T
264.969	5.08	268839	REC_END	n/a	n/a	n/a	-999	1	[0, 0, 0]	n/a	FR1	2	R1200T
270.049	0.5	273919	TRIAL	n/a	n/a	n/a	-999	2	[0, 0, 0]	n/a	FR1	2	R1200T
270.549	10.428	274419	COUNTDOWN_START	n/a	n/a	n/a	-999	2	[0, 0, 0]	n/a	FR1	2	R1200T
280.977	0.007	284846	COUNTDOWN_END	n/a	n/a	n/a	-999	2	[0, 0, 0]	n/a	FR1	2	R1200T
280.984	1.618	284853	ORIENT	n/a	n/a	n/a	-999	2	[0, 0, 0]	n/a	FR1	2	R1200T
282.602	2.0	286471	ORIENT_OFF	n/a	n/a	n/a	-999	2	[0, 0, 0]	n/a	FR1	2	R1200T
284.602	1.616	288471	WORD	n/a	wordpools/wordpool_EN.txt	SHIP	1	2	[0, 0, 0]	n/a	FR1	2	R1200T
286.218	0.984	290087	WORD_OFF	n/a	n/a	SHIP	1	2	[0, 0, 0]	n/a	FR1	2	R1200T
287.202	1.618	291071	WORD	n/a	wordpools/wordpool_EN.txt	PEARL	2	2	[0, 0, 0]	n/a	FR1	2	R1200T
288.82	0.983	292689	WORD_OFF	n/a	n/a	PEARL	2	2	[0, 0, 0]	n/a	FR1	2	R1200T
289.803	1.617	293672	WORD	n/a	wordpools/wordpool_EN.txt	BED	3	2	[0, 0, 0]	n/a	FR1	2	R1200T
291.42	1.0	295289	WORD_OFF	n/a	n/a	BED	3	2	[0, 0, 0]	n/a	FR1	2	R1200T
292.42	1.616	296289	WORD	n/a	wordpools/wordpool_EN.txt	MAIL	4	2	[0, 0, 0]	n/a	FR1	2	R1200T
294.036	0.934	297905	WORD_OFF	n/a	n/a	MAIL	4	2	[0, 0, 0]	n/a	FR1	2	R1200T
294.97	1.601	298839	WORD	n/a	wordpools/wordpool_EN.txt	SALT	5	2	[0, 0, 0]	n/a	FR1	2	R1200T
296.571	0.967	300439	WORD_OFF	n/a	n/a	SALT	5	2	[0, 0, 0]	n/a	FR1	2	R1200T
297.538	1.616	301406	WORD	n/a	wordpools/wordpool_EN.txt	HEART	6	2	[0, 0, 0]	n/a	FR1	2	R1200T
299.154	0.768	303022	WORD_OFF	n/a	n/a	HEART	6	2	[0, 0, 0]	n/a	FR1	2	R1200T
299.922	1.617	303790	WORD	n/a	wordpools/wordpool_EN.txt	HOOF	7	2	[0, 0, 0]	n/a	FR1	2	R1200T
301.539	0.817	305407	WORD_OFF	n/a	n/a	HOOF	7	2	[0, 0, 0]	n/a	FR1	2	R1200T
302.356	1.616	306224	WORD	n/a	wordpools/wordpool_EN.txt	TRAIN	8	2	[0, 0, 0]	n/a	FR1	2	R1200T
303.972	0.85	307840	WORD_OFF	n/a	n/a	TRAIN	8	2	[0, 0, 0]	n/a	FR1	2	R1200T
304.822	1.618	308690	WORD	n/a	wordpools/wordpool_EN.txt	BEACH	9	2	[0, 0, 0]	n/a	FR1	2	R1200T
306.44	0.9	310308	WORD_OFF	n/a	n/a	BEACH	9	2	[0, 0, 0]	n/a	FR1	2	R1200T
307.34	1.617	311208	WORD	n/a	wordpools/wordpool_EN.txt	SEA	10	2	[0, 0, 0]	n/a	FR1	2	R1200T
308.957	1.016	312825	WORD_OFF	n/a	n/a	SEA	10	2	[0, 0, 0]	n/a	FR1	2	R1200T
309.973	1.618	313841	WORD	n/a	wordpools/wordpool_EN.txt	SHELL	11	2	[0, 0, 0]	n/a	FR1	2	R1200T
311.591	0.8	315459	WORD_OFF	n/a	n/a	SHELL	11	2	[0, 0, 0]	n/a	FR1	2	R1200T
312.391	1.616	316259	WORD	n/a	wordpools/wordpool_EN.txt	EGG	12	2	[0, 0, 0]	n/a	FR1	2	R1200T
314.007	0.0	317874	WORD_OFF	n/a	n/a	EGG	12	2	[0, 0, 0]	n/a	FR1	2	R1200T
314.007	0.0	317874	DISTRACT_START	n/a	n/a	n/a	-999	2	[0, 0, 0]	n/a	FR1	2	R1200T
314.007	0.016	317874	START	n/a	n/a	n/a	-999	2	[-999, -999, -999]	n/a	FR1	2	R1200T
314.023	8.169	317890	PROB	8.169	n/a	n/a	-999	2	[8, 1, 5]	14	FR1	2	R1200T
322.192	6.335	326059	PROB	6.335	n/a	n/a	-999	2	[4, 3, 9]	16	FR1	2	R1200T
328.527	2.5	332394	PROB	2.5	n/a	n/a	-999	2	[9, 1, 1]	11	FR1	2	R1200T
331.027	7.58	334893	PROB	7.58	n/a	n/a	-999	2	[8, 7, 8]	23	FR1	2	R1200T
338.607	0.022	342473	STOP	n/a	n/a	n/a	-999	2	[-999, -999, -999]	n/a	FR1	2	R1200T
338.629	0.632	342495	DISTRACT_END	n/a	n/a	n/a	-999	2	[0, 0, 0]	n/a	FR1	2	R1200T
339.261	0.519	343127	RETRIEVAL_ORIENT	n/a	n/a	n/a	-999	2	[0, 0, 0]	n/a	FR1	2	R1200T
339.78	1.408	343646	REC_START	n/a	n/a	n/a	-999	2	[0, 0, 0]	n/a	FR1	2	R1200T
341.188	1.21	345054	REC_WORD	1.21	n/a	PEARL	2	2	[0, 0, 0]	n/a	FR1	2	R1200T
342.398	1.333	346264	REC_WORD	1.333	n/a	SHIP	1	2	[0, 0, 0]	n/a	FR1	2	R1200T
343.731	4.842	347597	REC_WORD	4.842	n/a	SAIL	-999	2	[0, 0, 0]	n/a	FR1	2	R1200T
348.573	10.694	352438	REC_WORD	10.694	n/a	BOAT	-999	2	[0, 0, 0]	n/a	FR1	2	R1200T
359.267	1.0	363132	REC_WORD_VV	1.0	n/a	<>	-999	2	[0, 0, 0]	n/a	FR1	2	R1200T
360.267	1.0	364132	REC_WORD_VV	1.0	n/a	<>	-999	2	[0, 0, 0]	n/a	FR1	2	R1200T
361.267	3.796	365132	REC_WORD_VV	3.796	n/a	<>	-999	2	[0, 0, 0]	n/a	FR1	2	R1200T
365.063	4.727	368927	REC_WORD_VV	4.727	n/a	<>	-999	2	[0, 0, 0]	n/a	FR1	2	R1200T
369.79	6.662	373654	REC_END	n/a	n/a	n/a	-999	2	[0, 0, 0]	n/a	FR1	2	R1200T
376.452	0.5	380316	TRIAL	n/a	n/a	n/a	-999	3	[0, 0, 0]	n/a	FR1	2	R1200T
376.952	10.428	380816	COUNTDOWN_START	n/a	n/a	n/a	-999	3	[0, 0, 0]	n/a	FR1	2	R1200T
387.38	0.008	391243	COUNTDOWN_END	n/a	n/a	n/a	-999	3	[0, 0, 0]	n/a	FR1	2	R1200T
387.388	1.616	391251	ORIENT	n/a	n/a	n/a	-999	3	[0, 0, 0]	n/a	FR1	2	R1200T
389.004	1.851	392867	ORIENT_OFF	n/a	n/a	n/a	-999	3	[0, 0, 0]	n/a	FR1	2	R1200T
390.855	1.617	394718	WORD	n/a	wordpools/wordpool_EN.txt	THUMB	1	3	[0, 0, 0]	n/a	FR1	2	R1200T
392.472	0.884	396335	WORD_OFF	n/a	n/a	THUMB	1	3	[0, 0, 0]	n/a	FR1	2	R1200T
393.356	1.615	397219	WORD	n/a	wordpools/wordpool_EN.txt	TAIL	2	3	[0, 0, 0]	n/a	FR1	2	R1200T
394.971	0.952	398834	WORD_OFF	n/a	n/a	TAIL	2	3	[0, 0, 0]	n/a	FR1	2	R1200T
395.923	1.617	399786	WORD	n/a	wordpools/wordpool_EN.txt	BREAD	3	3	[0, 0, 0]	n/a	FR1	2	R1200T
397.54	0.8	401403	WORD_OFF	n/a	n/a	BREAD	3	3	[0, 0, 0]	n/a	FR1	2	R1200T
398.34	1.617	402202	WORD	n/a	wordpools/wordpool_EN.txt	CALF	4	3	[0, 0, 0]	n/a	FR1	2	R1200T
399.957	0.817	403819	WORD_OFF	n/a	n/a	CALF	4	3	[0, 0, 0]	n/a	FR1	2	R1200T
400.774	1.617	404636	WORD	n/a	wordpools/wordpool_EN.txt	JUICE	5	3	[0, 0, 0]	n/a	FR1	2	R1200T
402.391	0.898	406253	WORD_OFF	n/a	n/a	JUICE	5	3	[0, 0, 0]	n/a	FR1	2	R1200T
403.289	1.619	407151	WORD	n/a	wordpools/wordpool_EN.txt	KITE	6	3	[0, 0, 0]	n/a	FR1	2	R1200T
404.908	0.866	408770	WORD_OFF	n/a	n/a	KITE	6	3	[0, 0, 0]	n/a	FR1	2	R1200T
405.774	1.617	409636	WORD	n/a	wordpools/wordpool_EN.txt	WOOD	7	3	[0, 0, 0]	n/a	FR1	2	R1200T
407.391	0.984	411253	WORD_OFF	n/a	n/a	WOOD	7	3	[0, 0, 0]	n/a	FR1	2	R1200T
408.375	1.616	412237	WORD	n/a	wordpools/wordpool_EN.txt	GOAT	8	3	[0, 0, 0]	n/a	FR1	2	R1200T
409.991	0.868	413853	WORD_OFF	n/a	n/a	GOAT	8	3	[0, 0, 0]	n/a	FR1	2	R1200T
410.859	1.617	414721	WORD	n/a	wordpools/wordpool_EN.txt	BOARD	9	3	[0, 0, 0]	n/a	FR1	2	R1200T
412.476	0.816	416338	WORD_OFF	n/a	n/a	BOARD	9	3	[0, 0, 0]	n/a	FR1	2	R1200T
413.292	1.617	417154	WORD	n/a	wordpools/wordpool_EN.txt	PIG	10	3	[0, 0, 0]	n/a	FR1	2	R1200T
414.909	0.867	418771	WORD_OFF	n/a	n/a	PIG	10	3	[0, 0, 0]	n/a	FR1	2	R1200T
415.776	1.617	419637	WORD	n/a	wordpools/wordpool_EN.txt	BENCH	11	3	[0, 0, 0]	n/a	FR1	2	R1200T
417.393	0.783	421254	WORD_OFF	n/a	n/a	BENCH	11	3	[0, 0, 0]	n/a	FR1	2	R1200T
418.176	1.618	422037	WORD	n/a	wordpools/wordpool_EN.txt	JAR	12	3	[0, 0, 0]	n/a	FR1	2	R1200T
419.794	0.0	423655	WORD_OFF	n/a	n/a	JAR	12	3	[0, 0, 0]	n/a	FR1	2	R1200T
419.794	0.0	423655	DISTRACT_START	n/a	n/a	n/a	-999	3	[0, 0, 0]	n/a	FR1	2	R1200T
419.794	0.016	423655	START	n/a	n/a	n/a	-999	3	[-999, -999, -999]	n/a	FR1	2	R1200T
419.81	6.568	423671	PROB	6.568	n/a	n/a	-999	3	[1, 7, 9]	17	FR1	2	R1200T
426.378	2.633	430239	PROB	2.633	n/a	n/a	-999	3	[2, 6, 1]	9	FR1	2	R1200T
429.011	3.967	432872	PROB	3.967	n/a	n/a	-999	3	[1, 1, 4]	6	FR1	2	R1200T
432.978	4.251	436838	PROB	4.251	n/a	n/a	-999	3	[4, 9, 1]	14	FR1	2	R1200T
437.229	3.698	441089	PROB	3.698	n/a	n/a	-999	3	[6, 3, 7]	16	FR1	2	R1200T
440.927	0.02	444787	STOP	n/a	n/a	n/a	-999	3	[-999, -999, -999]	n/a	FR1	2	R1200T
440.947	0.684	444807	DISTRACT_END	n/a	n/a	n/a	-999	3	[0, 0, 0]	n/a	FR1	2	R1200T
441.631	0.516	445491	RETRIEVAL_ORIENT	n/a	n/a	n/a	-999	3	[0, 0, 0]	n/a	FR1	2	R1200T
442.147	19.49	446007	REC_START	n/a	n/a	n/a	-999	3	[0, 0, 0]	n/a	FR1	2	R1200T
461.637	2.447	465496	REC_WORD_VV	2.447	n/a	<>	-999	3	[0, 0, 0]	n/a	FR1	2	R1200T
464.084	8.074	467943	REC_WORD_VV	8.074	n/a	<>	-999	3	[0, 0, 0]	n/a	FR1	2	R1200T
472.158	14.198	476016	REC_END	n/a	n/a	n/a	-999	3	[0, 0, 0]	n/a	FR1	2	R1200T
486.356	0.5	490213	TRIAL	n/a	n/a	n/a	-999	4	[0, 0, 0]	n/a	FR1	2	R1200T
486.856	10.428	490713	COUNTDOWN_START	n/a	n/a	n/a	-999	4	[0, 0, 0]	n/a	FR1	2	R1200T
497.284	0.006	501141	COUNTDOWN_END	n/a	n/a	n/a	-999	4	[0, 0, 0]	n/a	FR1	2	R1200T
497.29	1.601	501147	ORIENT	n/a	n/a	n/a	-999	4	[0, 0, 0]	n/a	FR1	2	R1200T
498.891	2.017	502748	ORIENT_OFF	n/a	n/a	n/a	-999	4	[0, 0, 0]	n/a	FR1	2	R1200T
500.908	1.617	504764	WORD	n/a	wordpools/wordpool_EN.txt	HAND	1	4	[0, 0, 0]	n/a	FR1	2	R1200T
502.525	0.85	506381	WORD_OFF	n/a	n/a	HAND	1	4	[0, 0, 0]	n/a	FR1	2	R1200T
503.375	1.616	507231	WORD	n/a	wordpools/wordpool_EN.txt	CART	2	4	[0, 0, 0]	n/a	FR1	2	R1200T
504.991	0.952	508847	WORD_OFF	n/a	n/a	CART	2	4	[0, 0, 0]	n/a	FR1	2	R1200T
505.943	1.617	509799	WORD	n/a	wordpools/wordpool_EN.txt	ROPE	3	4	[0, 0, 0]	n/a	FR1	2	R1200T
507.56	0.933	511416	WORD_OFF	n/a	n/a	ROPE	3	4	[0, 0, 0]	n/a	FR1	2	R1200T
508.493	1.616	512349	WORD	n/a	wordpools/wordpool_EN.txt	BLUSH	4	4	[0, 0, 0]	n/a	FR1	2	R1200T
510.109	0.95	513965	WORD_OFF	n/a	n/a	BLUSH	4	4	[0, 0, 0]	n/a	FR1	2	R1200T
511.059	1.618	514915	WORD	n/a	wordpools/wordpool_EN.txt	BRICK	5	4	[0, 0, 0]	n/a	FR1	2	R1200T
512.677	0.967	516533	WORD_OFF	n/a	n/a	BRICK	5	4	[0, 0, 0]	n/a	FR1	2	R1200T
513.644	1.616	517500	WORD	n/a	wordpools/wordpool_EN.txt	STRAW	6	4	[0, 0, 0]	n/a	FR1	2	R1200T
515.26	0.983	519116	WORD_OFF	n/a	n/a	STRAW	6	4	[0, 0, 0]	n/a	FR1	2	R1200T
516.243	1.618	520099	WORD	n/a	wordpools/wordpool_EN.txt	TRUCK	7	4	[0, 0, 0]	n/a	FR1	2	R1200T
517.861	0.984	521716	WORD_OFF	n/a	n/a	TRUCK	7	4	[0, 0, 0]	n/a	FR1	2	R1200T
518.845	1.617	522700	WORD	n/a	wordpools/wordpool_EN.txt	HOUSE	8	4	[0, 0, 0]	n/a	FR1	2	R1200T
520.462	0.9	524317	WORD_OFF	n/a	n/a	HOUSE	8	4	[0, 0, 0]	n/a	FR1	2	R1200T
521.362	1.616	525217	WORD	n/a	wordpools/wordpool_EN.txt	FLOOR	9	4	[0, 0, 0]	n/a	FR1	2	R1200T
522.978	0.768	526833	WORD_OFF	n/a	n/a	FLOOR	9	4	[0, 0, 0]	n/a	FR1	2	R1200T
523.746	1.617	527601	WORD	n/a	wordpools/wordpool_EN.txt	MUD	10	4	[0, 0, 0]	n/a	FR1	2	R1200T
525.363	0.849	529218	WORD_OFF	n/a	n/a	MUD	10	4	[0, 0, 0]	n/a	FR1	2	R1200T
526.212	1.618	530067	WORD	n/a	wordpools/wordpool_EN.txt	BAG	11	4	[0, 0, 0]	n/a	FR1	2	R1200T
527.83	0.834	531685	WORD_OFF	n/a	n/a	BAG	11	4	[0, 0, 0]	n/a	FR1	2	R1200T
528.664	1.615	532519	WORD	n/a	wordpools/wordpool_EN.txt	STAIR	12	4	[0, 0, 0]	n/a	FR1	2	R1200T
530.279	0.0	534134	WORD_OFF	n/a	n/a	STAIR	12	4	[0, 0, 0]	n/a	FR1	2	R1200T
530.279	0.001	534134	DISTRACT_START	n/a	n/a	n/a	-999	4	[0, 0, 0]	n/a	FR1	2	R1200T
530.28	0.016	534135	START	n/a	n/a	n/a	-999	4	[-999, -999, -999]	n/a	FR1	2	R1200T
530.296	3.535	534151	PROB	3.535	n/a	n/a	-999	4	[6, 4, 6]	16	FR1	2	R1200T
533.831	2.55	537686	PROB	2.55	n/a	n/a	-999	4	[6, 1, 3]	10	FR1	2	R1200T
536.381	3.034	540235	PROB	3.034	n/a	n/a	-999	4	[4, 7, 6]	13	FR1	2	R1200T
539.415	4.734	543269	PROB	4.734	n/a	n/a	-999	4	[5, 2, 9]	16	FR1	2	R1200T
544.149	6.627	548003	PROB	6.627	n/a	n/a	-999	4	[8, 2, 9]	19	FR1	2	R1200T
550.776	0.008	554630	STOP	n/a	n/a	n/a	-999	4	[-999, -999, -999]	n/a	FR1	2	R1200T
550.784	0.617	554638	DISTRACT_END	n/a	n/a	n/a	-999	4	[0, 0, 0]	n/a	FR1	2	R1200T
551.401	0.517	555255	RETRIEVAL_ORIENT	n/a	n/a	n/a	-999	4	[0, 0, 0]	n/a	FR1	2	R1200T
551.918	1.776	555771	REC_START	n/a	n/a	n/a	-999	4	[0, 0, 0]	n/a	FR1	2	R1200T
553.694	1.457	557547	REC_WORD	1.457	n/a	BRUSH	-999	4	[0, 0, 0]	n/a	FR1	2	R1200T
555.151	2.782	559004	REC_WORD	2.782	n/a	STAIR	12	4	[0, 0, 0]	n/a	FR1	2	R1200T
557.933	23.997	561786	REC_WORD_VV	23.997	n/a	<>	-999	4	[0, 0, 0]	n/a	FR1	2	R1200T
581.93	4.176	585782	REC_END	n/a	n/a	n/a	-999	4	[0, 0, 0]	n/a	FR1	2	R1200T
586.106	0.5	589957	TRIAL	n/a	n/a	n/a	-999	5	[0, 0, 0]	n/a	FR1	2	R1200T
586.606	10.428	590457	COUNTDOWN_START	n/a	n/a	n/a	-999	5	[0, 0, 0]	n/a	FR1	2	R1200T
597.034	0.007	600885	COUNTDOWN_END	n/a	n/a	n/a	-999	5	[0, 0, 0]	n/a	FR1	2	R1200T
597.041	1.618	600892	ORIENT	n/a	n/a	n/a	-999	5	[0, 0, 0]	n/a	FR1	2	R1200T
598.659	2.168	602510	ORIENT_OFF	n/a	n/a	n/a	-999	5	[0, 0, 0]	n/a	FR1	2	R1200T
600.827	1.616	604678	WORD	n/a	wordpools/wordpool_EN.txt	TOY	1	5	[0, 0, 0]	n/a	FR1	2	R1200T
602.443	0.917	606294	WORD_OFF	n/a	n/a	TOY	1	5	[0, 0, 0]	n/a	FR1	2	R1200T
603.36	1.616	607210	WORD	n/a	wordpools/wordpool_EN.txt	TEETH	2	5	[0, 0, 0]	n/a	FR1	2	R1200T
604.976	0.901	608826	WORD_OFF	n/a	n/a	TEETH	2	5	[0, 0, 0]	n/a	FR1	2	R1200T
605.877	1.617	609727	WORD	n/a	wordpools/wordpool_EN.txt	TOOL	3	5	[0, 0, 0]	n/a	FR1	2	R1200T
607.494	0.95	611344	WORD_OFF	n/a	n/a	TOOL	3	5	[0, 0, 0]	n/a	FR1	2	R1200T
608.444	1.616	612294	WORD	n/a	wordpools/wordpool_EN.txt	SQUARE	4	5	[0, 0, 0]	n/a	FR1	2	R1200T
610.06	0.901	613910	WORD_OFF	n/a	n/a	SQUARE	4	5	[0, 0, 0]	n/a	FR1	2	R1200T
610.961	1.618	614811	WORD	n/a	wordpools/wordpool_EN.txt	PLANE	5	5	[0, 0, 0]	n/a	FR1	2	R1200T
612.579	0.983	616429	WORD_OFF	n/a	n/a	PLANE	5	5	[0, 0, 0]	n/a	FR1	2	R1200T
613.562	1.616	617412	WORD	n/a	wordpools/wordpool_EN.txt	WORM	6	5	[0, 0, 0]	n/a	FR1	2	R1200T
615.178	0.834	619028	WORD_OFF	n/a	n/a	WORM	6	5	[0, 0, 0]	n/a	FR1	2	R1200T
616.012	1.618	619862	WORD	n/a	wordpools/wordpool_EN.txt	RAT	7	5	[0, 0, 0]	n/a	FR1	2	R1200T
617.63	0.816	621480	WORD_OFF	n/a	n/a	RAT	7	5	[0, 0, 0]	n/a	FR1	2	R1200T
618.446	1.616	622296	WORD	n/a	wordpools/wordpool_EN.txt	CONE	8	5	[0, 0, 0]	n/a	FR1	2	R1200T
620.062	0.917	623911	WORD_OFF	n/a	n/a	CONE	8	5	[0, 0, 0]	n/a	FR1	2	R1200T
620.979	1.618	624828	WORD	n/a	wordpools/wordpool_EN.txt	CAPE	9	5	[0, 0, 0]	n/a	FR1	2	R1200T
622.597	0.767	626446	WORD_OFF	n/a	n/a	CAPE	9	5	[0, 0, 0]	n/a	FR1	2	R1200T
623.364	1.616	627213	WORD	n/a	wordpools/wordpool_EN.txt	PEAR	10	5	[0, 0, 0]	n/a	FR1	2	R1200T
624.98	1.0	628829	WORD_OFF	n/a	n/a	PEAR	10	5	[0, 0, 0]	n/a	FR1	2	R1200T
625.98	1.618	629829	WORD	n/a	wordpools/wordpool_EN.txt	CAT	11	5	[0, 0, 0]	n/a	FR1	2	R1200T
627.598	0.834	631447	WORD_OFF	n/a	n/a	CAT	11	5	[0, 0, 0]	n/a	FR1	2	R1200T
628.432	1.616	632281	WORD	n/a	wordpools/wordpool_EN.txt	ROCK	12	5	[0, 0, 0]	n/a	FR1	2	R1200T
630.048	0.0	633897	WORD_OFF	n/a	n/a	ROCK	12	5	[0, 0, 0]	n/a	FR1	2	R1200T
630.048	0.0	633897	DISTRACT_START	n/a	n/a	n/a	-999	5	[0, 0, 0]	n/a	FR1	2	R1200T
630.048	0.016	633897	START	n/a	n/a	n/a	-999	5	[-999, -999, -999]	n/a	FR1	2	R1200T
630.064	6.552	633913	PROB	6.552	n/a	n/a	-999	5	[5, 1, 8]	14	FR1	2	R1200T
636.616	4.051	640465	PROB	4.051	n/a	n/a	-999	5	[3, 8, 7]	18	FR1	2	R1200T
640.667	4.101	644515	PROB	4.101	n/a	n/a	-999	5	[1, 3, 6]	4	FR1	2	R1200T
644.768	6.758	648616	PROB	6.758	n/a	n/a	-999	5	[1, 8, 3]	12	FR1	2	R1200T
651.526	0.01	655374	STOP	n/a	n/a	n/a	-999	5	[-999, -999, -999]	n/a	FR1	2	R1200T
651.536	0.616	655384	DISTRACT_END	n/a	n/a	n/a	-999	5	[0, 0, 0]	n/a	FR1	2	R1200T
652.152	0.518	656000	RETRIEVAL_ORIENT	n/a	n/a	n/a	-999	5	[0, 0, 0]	n/a	FR1	2	R1200T
652.67	1.131	656518	REC_START	n/a	n/a	n/a	-999	5	[0, 0, 0]	n/a	FR1	2	R1200T
653.801	2.3	657649	REC_WORD	2.3	n/a	TOY	1	5	[0, 0, 0]	n/a	FR1	2	R1200T
656.101	0.719	659948	REC_WORD	0.719	n/a	TEETH	2	5	[0, 0, 0]	n/a	FR1	2	R1200T
656.82	1.031	660667	REC_WORD	1.031	n/a	TOOL	3	5	[0, 0, 0]	n/a	FR1	2	R1200T
657.851	1.165	661698	REC_WORD	1.165	n/a	CAT	11	5	[0, 0, 0]	n/a	FR1	2	R1200T
659.016	6.503	662863	REC_WORD	6.503	n/a	RAT	7	5	[0, 0, 0]	n/a	FR1	2	R1200T
665.519	17.162	669366	REC_WORD_VV	17.162	n/a	<>	-999	5	[0, 0, 0]	n/a	FR1	2	R1200T
682.681	4.56	686527	REC_END	n/a	n/a	n/a	-999	5	[0, 0, 0]	n/a	FR1	2	R1200T
687.241	0.5	691087	TRIAL	n/a	n/a	n/a	-999	6	[0, 0, 0]	n/a	FR1	2	R1200T
687.741	10.428	691587	COUNTDOWN_START	n/a	n/a	n/a	-999	6	[0, 0, 0]	n/a	FR1	2	R1200T
698.169	0.008	702014	COUNTDOWN_END	n/a	n/a	n/a	-999	6	[0, 0, 0]	n/a	FR1	2	R1200T
698.177	1.617	702022	ORIENT	n/a	n/a	n/a	-999	6	[0, 0, 0]	n/a	FR1	2	R1200T
699.794	1.867	703639	ORIENT_OFF	n/a	n/a	n/a	-999	6	[0, 0, 0]	n/a	FR1	2	R1200T
701.661	1.616	705506	WORD	n/a	wordpools/wordpool_EN.txt	WALL	1	6	[0, 0, 0]	n/a	FR1	2	R1200T
703.277	0.984	707122	WORD_OFF	n/a	n/a	WALL	1	6	[0, 0, 0]	n/a	FR1	2	R1200T
704.261	1.618	708106	WORD	n/a	wordpools/wordpool_EN.txt	FOOT	2	6	[0, 0, 0]	n/a	FR1	2	R1200T
705.879	0.883	709723	WORD_OFF	n/a	n/a	FOOT	2	6	[0, 0, 0]	n/a	FR1	2	R1200T
706.762	1.617	710606	WORD	n/a	wordpools/wordpool_EN.txt	SLUSH	3	6	[0, 0, 0]	n/a	FR1	2	R1200T
708.379	0.833	712223	WORD_OFF	n/a	n/a	SLUSH	3	6	[0, 0, 0]	n/a	FR1	2	R1200T
709.212	1.618	713056	WORD	n/a	wordpools/wordpool_EN.txt	PARK	4	6	[0, 0, 0]	n/a	FR1	2	R1200T
710.83	0.933	714674	WORD_OFF	n/a	n/a	PARK	4	6	[0, 0, 0]	n/a	FR1	2	R1200T
711.763	1.617	715607	WORD	n/a	wordpools/wordpool_EN.txt	BOOK	5	6	[0, 0, 0]	n/a	FR1	2	R1200T
713.38	0.984	717224	WORD_OFF	n/a	n/a	BOOK	5	6	[0, 0, 0]	n/a	FR1	2	R1200T
714.364	1.616	718208	WORD	n/a	wordpools/wordpool_EN.txt	RUG	6	6	[0, 0, 0]	n/a	FR1	2	R1200T
715.98	0.884	719824	WORD_OFF	n/a	n/a	RUG	6	6	[0, 0, 0]	n/a	FR1	2	R1200T
716.864	1.617	720708	WORD	n/a	wordpools/wordpool_EN.txt	MUG	7	6	[0, 0, 0]	n/a	FR1	2	R1200T
718.481	0.917	722325	WORD_OFF	n/a	n/a	MUG	7	6	[0, 0, 0]	n/a	FR1	2	R1200T
719.398	1.616	723242	WORD	n/a	wordpools/wordpool_EN.txt	GLOVE	8	6	[0, 0, 0]	n/a	FR1	2	R1200T
721.014	0.95	724858	WORD_OFF	n/a	n/a	GLOVE	8	6	[0, 0, 0]	n/a	FR1	2	R1200T
721.964	1.618	725808	WORD	n/a	wordpools/wordpool_EN.txt	ROSE	9	6	[0, 0, 0]	n/a	FR1	2	R1200T
723.582	0.967	727425	WORD_OFF	n/a	n/a	ROSE	9	6	[0, 0, 0]	n/a	FR1	2	R1200T
724.549	1.616	728392	WORD	n/a	wordpools/wordpool_EN.txt	SPOON	10	6	[0, 0, 0]	n/a	FR1	2	R1200T
726.165	0.9	730008	WORD_OFF	n/a	n/a	SPOON	10	6	[0, 0, 0]	n/a	FR1	2	R1200T
727.065	1.618	730908	WORD	n/a	wordpools/wordpool_EN.txt	ARM	11	6	[0, 0, 0]	n/a	FR1	2	R1200T
728.683	0.784	732526	WORD_OFF	n/a	n/a	ARM	11	6	[0, 0, 0]	n/a	FR1	2	R1200T
729.467	1.616	733310	WORD	n/a	wordpools/wordpool_EN.txt	PANTS	12	6	[0, 0, 0]	n/a	FR1	2	R1200T
731.083	0.0	734926	WORD_OFF	n/a	n/a	PANTS	12	6	[0, 0, 0]	n/a	FR1	2	R1200T
731.083	0.0	734926	DISTRACT_START	n/a	n/a	n/a	-999	6	[0, 0, 0]	n/a	FR1	2	R1200T
731.083	0.016	734926	START	n/a	n/a	n/a	-999	6	[-999, -999, -999]	n/a	FR1	2	R1200T
731.099	5.552	734942	PROB	5.552	n/a	n/a	-999	6	[4, 8, 8]	16	FR1	2	R1200T
736.651	7.367	740494	PROB	7.367	n/a	n/a	-999	6	[4, 2, 5]	11	FR1	2	R1200T
744.018	4.719	747860	PROB	4.719	n/a	n/a	-999	6	[4, 8, 7]	21	FR1	2	R1200T
748.737	13.733	752579	PROB	13.733	n/a	n/a	-999	6	[6, 7, 3]	16	FR1	2	R1200T
762.47	0.019	766311	STOP	n/a	n/a	n/a	-999	6	[-999, -999, -999]	n/a	FR1	2	R1200T
762.489	0.549	766330	DISTRACT_END	n/a	n/a	n/a	-999	6	[0, 0, 0]	n/a	FR1	2	R1200T
763.038	0.519	766879	RETRIEVAL_ORIENT	n/a	n/a	n/a	-999	6	[0, 0, 0]	n/a	FR1	2	R1200T
763.557	1.335	767398	REC_START	n/a	n/a	n/a	-999	6	[0, 0, 0]	n/a	FR1	2	R1200T
764.892	3.369	768733	REC_WORD	3.369	n/a	MUG	7	6	[0, 0, 0]	n/a	FR1	2	R1200T
768.261	8.624	772102	REC_WORD	8.624	n/a	PARK	4	6	[0, 0, 0]	n/a	FR1	2	R1200T
776.885	16.682	780725	REC_WORD_VV	16.682	n/a	<>	-999	6	[0, 0, 0]	n/a	FR1	2	R1200T
793.567	4.661	797406	REC_END	n/a	n/a	n/a	-999	6	[0, 0, 0]	n/a	FR1	2	R1200T
798.228	0.5	802067	TRIAL	n/a	n/a	n/a	-999	7	[0, 0, 0]	n/a	FR1	2	R1200T
798.728	10.428	802567	COUNTDOWN_START	n/a	n/a	n/a	-999	7	[0, 0, 0]	n/a	FR1	2	R1200T
809.156	0.007	812994	COUNTDOWN_END	n/a	n/a	n/a	-999	7	[0, 0, 0]	n/a	FR1	2	R1200T
809.163	1.618	813001	ORIENT	n/a	n/a	n/a	-999	7	[0, 0, 0]	n/a	FR1	2	R1200T
810.781	2.051	814619	ORIENT_OFF	n/a	n/a	n/a	-999	7	[0, 0, 0]	n/a	FR1	2	R1200T
812.832	1.617	816670	WORD	n/a	wordpools/wordpool_EN.txt	VINE	1	7	[0, 0, 0]	n/a	FR1	2	R1200T
814.449	0.9	818287	WORD_OFF	n/a	n/a	VINE	1	7	[0, 0, 0]	n/a	FR1	2	R1200T
815.349	1.616	819187	WORD	n/a	wordpools/wordpool_EN.txt	ROOT	2	7	[0, 0, 0]	n/a	FR1	2	R1200T
816.965	0.868	820803	WORD_OFF	n/a	n/a	ROOT	2	7	[0, 0, 0]	n/a	FR1	2	R1200T
817.833	1.617	821671	WORD	n/a	wordpools/wordpool_EN.txt	BATH	3	7	[0, 0, 0]	n/a	FR1	2	R1200T
819.45	0.815	823288	WORD_OFF	n/a	n/a	BATH	3	7	[0, 0, 0]	n/a	FR1	2	R1200T
820.265	1.602	824103	WORD	n/a	wordpools/wordpool_EN.txt	FAN	4	7	[0, 0, 0]	n/a	FR1	2	R1200T
821.867	0.867	825705	WORD_OFF	n/a	n/a	FAN	4	7	[0, 0, 0]	n/a	FR1	2	R1200T
822.734	1.617	826572	WORD	n/a	wordpools/wordpool_EN.txt	STEAK	5	7	[0, 0, 0]	n/a	FR1	2	R1200T
824.351	0.849	828189	WORD_OFF	n/a	n/a	STEAK	5	7	[0, 0, 0]	n/a	FR1	2	R1200T
825.2	1.618	829037	WORD	n/a	wordpools/wordpool_EN.txt	HOLE	6	7	[0, 0, 0]	n/a	FR1	2	R1200T
826.818	0.966	830655	WORD_OFF	n/a	n/a	HOLE	6	7	[0, 0, 0]	n/a	FR1	2	R1200T
827.784	1.617	831621	WORD	n/a	wordpools/wordpool_EN.txt	CLOTH	7	7	[0, 0, 0]	n/a	FR1	2	R1200T
829.401	0.984	833238	WORD_OFF	n/a	n/a	CLOTH	7	7	[0, 0, 0]	n/a	FR1	2	R1200T
830.385	1.616	834222	WORD	n/a	wordpools/wordpool_EN.txt	FRUIT	8	7	[0, 0, 0]	n/a	FR1	2	R1200T
832.001	0.918	835838	WORD_OFF	n/a	n/a	FRUIT	8	7	[0, 0, 0]	n/a	FR1	2	R1200T
832.919	1.617	836756	WORD	n/a	wordpools/wordpool_EN.txt	VASE	9	7	[0, 0, 0]	n/a	FR1	2	R1200T
834.536	0.867	838373	WORD_OFF	n/a	n/a	VASE	9	7	[0, 0, 0]	n/a	FR1	2	R1200T
835.403	1.616	839240	WORD	n/a	wordpools/wordpool_EN.txt	DART	10	7	[0, 0, 0]	n/a	FR1	2	R1200T
837.019	0.917	840856	WORD_OFF	n/a	n/a	DART	10	7	[0, 0, 0]	n/a	FR1	2	R1200T
837.936	1.617	841773	WORD	n/a	wordpools/wordpool_EN.txt	GRAPE	11	7	[0, 0, 0]	n/a	FR1	2	R1200T
839.553	0.8	843390	WORD_OFF	n/a	n/a	GRAPE	11	7	[0, 0, 0]	n/a	FR1	2	R1200T
840.353	1.616	844190	WORD	n/a	wordpools/wordpool_EN.txt	PASTE	12	7	[0, 0, 0]	n/a	FR1	2	R1200T
841.969	0.0	845805	WORD_OFF	n/a	n/a	PASTE	12	7	[0, 0, 0]	n/a	FR1	2	R1200T
841.969	0.001	845805	DISTRACT_START	n/a	n/a	n/a	-999	7	[0, 0, 0]	n/a	FR1	2	R1200T
841.97	0.016	845806	START	n/a	n/a	n/a	-999	7	[-999, -999, -999]	n/a	FR1	2	R1200T
841.986	3.435	845822	PROB	3.435	n/a	n/a	-999	7	[3, 7, 9]	19	FR1	2	R1200T
845.421	4.084	849257	PROB	4.084	n/a	n/a	-999	7	[6, 8, 4]	18	FR1	2	R1200T
849.505	4.717	853341	PROB	4.717	n/a	n/a	-999	7	[8, 4, 8]	20	FR1	2	R1200T
854.222	5.318	858058	PROB	5.318	n/a	n/a	-999	7	[1, 1, 3]	5	FR1	2	R1200T
859.54	11.394	863375	PROB	11.394	n/a	n/a	-999	7	[3, 3, 2]	8	FR1	2	R1200T
870.934	0.008	874769	STOP	n/a	n/a	n/a	-999	7	[-999, -999, -999]	n/a	FR1	2	R1200T
870.942	0.567	874777	DISTRACT_END	n/a	n/a	n/a	-999	7	[0, 0, 0]	n/a	FR1	2	R1200T
871.509	0.517	875344	RETRIEVAL_ORIENT	n/a	n/a	n/a	-999	7	[0, 0, 0]	n/a	FR1	2	R1200T
872.026	17.469	875861	REC_START	n/a	n/a	n/a	-999	7	[0, 0, 0]	n/a	FR1	2	R1200T
889.495	3.571	893329	REC_WORD_VV	3.571	n/a	<>	-999	7	[0, 0, 0]	n/a	FR1	2	R1200T
893.066	4.035	896899	REC_WORD_VV	4.035	n/a	<>	-999	7	[0, 0, 0]	n/a	FR1	2	R1200T
897.101	2.351	900934	REC_WORD_VV	2.351	n/a	<>	-999	7	[0, 0, 0]	n/a	FR1	2	R1200T
899.452	2.584	903285	REC_WORD_VV	2.584	n/a	<>	-999	7	[0, 0, 0]	n/a	FR1	2	R1200T
902.036	21.499	905869	REC_END	n/a	n/a	n/a	-999	7	[0, 0, 0]	n/a	FR1	2	R1200T
923.535	0.5	927367	TRIAL	n/a	n/a	n/a	-999	8	[0, 0, 0]	n/a	FR1	2	R1200T
924.035	10.428	927867	COUNTDOWN_START	n/a	n/a	n/a	-999	8	[0, 0, 0]	n/a	FR1	2	R1200T
934.463	0.008	938294	COUNTDOWN_END	n/a	n/a	n/a	-999	8	[0, 0, 0]	n/a	FR1	2	R1200T
934.471	1.616	938302	ORIENT	n/a	n/a	n/a	-999	8	[0, 0, 0]	n/a	FR1	2	R1200T
936.087	2.301	939918	ORIENT_OFF	n/a	n/a	n/a	-999	8	[0, 0, 0]	n/a	FR1	2	R1200T
938.388	1.616	942219	WORD	n/a	wordpools/wordpool_EN.txt	HEN	1	8	[0, 0, 0]	n/a	FR1	2	R1200T
940.004	0.918	943835	WORD_OFF	n/a	n/a	HEN	1	8	[0, 0, 0]	n/a	FR1	2	R1200T
940.922	1.617	944753	WORD	n/a	wordpools/wordpool_EN.txt	POOL	2	8	[0, 0, 0]	n/a	FR1	2	R1200T
942.539	1.0	946370	WORD_OFF	n/a	n/a	POOL	2	8	[0, 0, 0]	n/a	FR1	2	R1200T
943.539	1.616	947370	WORD	n/a	wordpools/wordpool_EN.txt	MOOSE	3	8	[0, 0, 0]	n/a	FR1	2	R1200T
945.155	0.883	948985	WORD_OFF	n/a	n/a	MOOSE	3	8	[0, 0, 0]	n/a	FR1	2	R1200T
946.038	1.618	949868	WORD	n/a	wordpools/wordpool_EN.txt	CHALK	4	8	[0, 0, 0]	n/a	FR1	2	R1200T
947.656	0.834	951486	WORD_OFF	n/a	n/a	CHALK	4	8	[0, 0, 0]	n/a	FR1	2	R1200T
948.49	1.616	952320	WORD	n/a	wordpools/wordpool_EN.txt	ZOO	5	8	[0, 0, 0]	n/a	FR1	2	R1200T
950.106	1.0	953936	WORD_OFF	n/a	n/a	ZOO	5	8	[0, 0, 0]	n/a	FR1	2	R1200T
951.106	1.601	954936	WORD	n/a	wordpools/wordpool_EN.txt	PET	6	8	[0, 0, 0]	n/a	FR1	2	R1200T
952.707	1.017	956537	WORD_OFF	n/a	n/a	PET	6	8	[0, 0, 0]	n/a	FR1	2	R1200T
953.724	1.617	957554	WORD	n/a	wordpools/wordpool_EN.txt	DUCK	7	8	[0, 0, 0]	n/a	FR1	2	R1200T
955.341	1.0	959171	WORD_OFF	n/a	n/a	DUCK	7	8	[0, 0, 0]	n/a	FR1	2	R1200T
956.341	1.616	960171	WORD	n/a	wordpools/wordpool_EN.txt	PEN	8	8	[0, 0, 0]	n/a	FR1	2	R1200T
957.957	0.935	961787	WORD_OFF	n/a	n/a	PEN	8	8	[0, 0, 0]	n/a	FR1	2	R1200T
958.892	1.617	962722	WORD	n/a	wordpools/wordpool_EN.txt	DOG	9	8	[0, 0, 0]	n/a	FR1	2	R1200T
960.509	0.9	964339	WORD_OFF	n/a	n/a	DOG	9	8	[0, 0, 0]	n/a	FR1	2	R1200T
961.409	1.616	965238	WORD	n/a	wordpools/wordpool_EN.txt	OWL	10	8	[0, 0, 0]	n/a	FR1	2	R1200T
963.025	0.834	966854	WORD_OFF	n/a	n/a	OWL	10	8	[0, 0, 0]	n/a	FR1	2	R1200T
963.859	1.617	967688	WORD	n/a	wordpools/wordpool_EN.txt	HAWK	11	8	[0, 0, 0]	n/a	FR1	2	R1200T
965.476	0.934	969305	WORD_OFF	n/a	n/a	HAWK	11	8	[0, 0, 0]	n/a	FR1	2	R1200T
966.41	1.616	970239	WORD	n/a	wordpools/wordpool_EN.txt	FLEA	12	8	[0, 0, 0]	n/a	FR1	2	R1200T
968.026	0.0	971855	WORD_OFF	n/a	n/a	FLEA	12	8	[0, 0, 0]	n/a	FR1	2	R1200T
968.026	0.0	971855	DISTRACT_START	n/a	n/a	n/a	-999	8	[0, 0, 0]	n/a	FR1	2	R1200T
968.026	0.016	971855	START	n/a	n/a	n/a	-999	8	[-999, -999, -999]	n/a	FR1	2	R1200T
968.042	3.585	971871	PROB	3.585	n/a	n/a	-999	8	[4, 1, 8]	13	FR1	2	R1200T
971.627	3.567	975456	PROB	3.567	n/a	n/a	-999	8	[7, 4, 8]	19	FR1	2	R1200T
975.194	5.967	979023	PROB	5.967	n/a	n/a	-999	8	[5, 9, 9]	23	FR1	2	R1200T
981.161	5.319	984989	PROB	5.319	n/a	n/a	-999	8	[8, 1, 7]	15	FR1	2	R1200T
986.48	7.718	990308	PROB	7.718	n/a	n/a	-999	8	[4, 1, 6]	11	FR1	2	R1200T
994.198	0.016	998026	STOP	n/a	n/a	n/a	-999	8	[-999, -999, -999]	n/a	FR1	2	R1200T
994.214	0.568	998042	DISTRACT_END	n/a	n/a	n/a	-999	8	[0, 0, 0]	n/a	FR1	2	R1200T
994.782	0.516	998610	RETRIEVAL_ORIENT	n/a	n/a	n/a	-999	8	[0, 0, 0]	n/a	FR1	2	R1200T
995.298	0.658	999126	REC_START	n/a	n/a	n/a	-999	8	[0, 0, 0]	n/a	FR1	2	R1200T
995.956	1.242	999783	REC_WORD	1.242	n/a	HEN	1	8	[0, 0, 0]	n/a	FR1	2	R1200T
997.198	0.67	1001025	REC_WORD	0.67	n/a	PET	6	8	[0, 0, 0]	n/a	FR1	2	R1200T
997.868	1.86	1001695	REC_WORD	1.86	n/a	DUCK	7	8	[0, 0, 0]	n/a	FR1	2	R1200T
999.728	1.897	1003555	REC_WORD	1.897	n/a	FLEA	12	8	[0, 0, 0]	n/a	FR1	2	R1200T
1001.625	20.363	1005452	REC_WORD	20.363	n/a	DOG	9	8	[0, 0, 0]	n/a	FR1	2	R1200T
1021.988	1.0	1025814	REC_WORD_VV	1.0	n/a	<>	-999	8	[0, 0, 0]	n/a	FR1	2	R1200T
1022.988	1.0	1026814	REC_WORD_VV	1.0	n/a	<>	-999	8	[0, 0, 0]	n/a	FR1	2	R1200T
1023.988	1.32	1027814	REC_WORD_VV	1.32	n/a	<>	-999	8	[0, 0, 0]	n/a	FR1	2	R1200T
1025.308	5.297	1029134	REC_END	n/a	n/a	n/a	-999	8	[0, 0, 0]	n/a	FR1	2	R1200T
1030.605	0.5	1034430	TRIAL	n/a	n/a	n/a	-999	9	[0, 0, 0]	n/a	FR1	2	R1200T
1031.105	10.428	1034930	COUNTDOWN_START	n/a	n/a	n/a	-999	9	[0, 0, 0]	n/a	FR1	2	R1200T
1041.533	0.007	1045358	COUNTDOWN_END	n/a	n/a	n/a	-999	9	[0, 0, 0]	n/a	FR1	2	R1200T
1041.54	1.616	1045365	ORIENT	n/a	n/a	n/a	-999	9	[0, 0, 0]	n/a	FR1	2	R1200T
1043.156	2.15	1046981	ORIENT_OFF	n/a	n/a	n/a	-999	9	[0, 0, 0]	n/a	FR1	2	R1200T
1045.306	1.618	1049131	WORD	n/a	wordpools/wordpool_EN.txt	SIGN	1	9	[0, 0, 0]	n/a	FR1	2	R1200T
1046.924	0.934	1050748	WORD_OFF	n/a	n/a	SIGN	1	9	[0, 0, 0]	n/a	FR1	2	R1200T
1047.858	1.617	1051682	WORD	n/a	wordpools/wordpool_EN.txt	DITCH	2	9	[0, 0, 0]	n/a	FR1	2	R1200T
1049.475	0.9	1053299	WORD_OFF	n/a	n/a	DITCH	2	9	[0, 0, 0]	n/a	FR1	2	R1200T
1050.375	1.616	1054199	WORD	n/a	wordpools/wordpool_EN.txt	LAWN	3	9	[0, 0, 0]	n/a	FR1	2	R1200T
1051.991	0.967	1055815	WORD_OFF	n/a	n/a	LAWN	3	9	[0, 0, 0]	n/a	FR1	2	R1200T
1052.958	1.601	1056782	WORD	n/a	wordpools/wordpool_EN.txt	DOOR	4	9	[0, 0, 0]	n/a	FR1	2	R1200T
1054.559	0.817	1058383	WORD_OFF	n/a	n/a	DOOR	4	9	[0, 0, 0]	n/a	FR1	2	R1200T
1055.376	1.616	1059200	WORD	n/a	wordpools/wordpool_EN.txt	SHOE	5	9	[0, 0, 0]	n/a	FR1	2	R1200T
1056.992	0.818	1060816	WORD_OFF	n/a	n/a	SHOE	5	9	[0, 0, 0]	n/a	FR1	2	R1200T
1057.81	1.617	1061634	WORD	n/a	wordpools/wordpool_EN.txt	PIN	6	9	[0, 0, 0]	n/a	FR1	2	R1200T
1059.427	0.832	1063251	WORD_OFF	n/a	n/a	PIN	6	9	[0, 0, 0]	n/a	FR1	2	R1200T
1060.259	1.618	1064083	WORD	n/a	wordpools/wordpool_EN.txt	SEAT	7	9	[0, 0, 0]	n/a	FR1	2	R1200T
1061.877	0.917	1065701	WORD_OFF	n/a	n/a	SEAT	7	9	[0, 0, 0]	n/a	FR1	2	R1200T
1062.794	1.617	1066618	WORD	n/a	wordpools/wordpool_EN.txt	MULE	8	9	[0, 0, 0]	n/a	FR1	2	R1200T
1064.411	0.983	1068234	WORD_OFF	n/a	n/a	MULE	8	9	[0, 0, 0]	n/a	FR1	2	R1200T
1065.394	1.616	1069217	WORD	n/a	wordpools/wordpool_EN.txt	BOX	9	9	[0, 0, 0]	n/a	FR1	2	R1200T
1067.01	0.935	1070833	WORD_OFF	n/a	n/a	BOX	9	9	[0, 0, 0]	n/a	FR1	2	R1200T
1067.945	1.617	1071768	WORD	n/a	wordpools/wordpool_EN.txt	SMILE	10	9	[0, 0, 0]	n/a	FR1	2	R1200T
1069.562	1.0	1073385	WORD_OFF	n/a	n/a	SMILE	10	9	[0, 0, 0]	n/a	FR1	2	R1200T
1070.562	1.616	1074385	WORD	n/a	wordpools/wordpool_EN.txt	BEAK	11	9	[0, 0, 0]	n/a	FR1	2	R1200T
1072.178	0.85	1076001	WORD_OFF	n/a	n/a	BEAK	11	9	[0, 0, 0]	n/a	FR1	2	R1200T
1073.028	1.618	1076851	WORD	n/a	wordpools/wordpool_EN.txt	STICK	12	9	[0, 0, 0]	n/a	FR1	2	R1200T
1074.646	0.0	1078469	WORD_OFF	n/a	n/a	STICK	12	9	[0, 0, 0]	n/a	FR1	2	R1200T
1074.646	0.001	1078469	DISTRACT_START	n/a	n/a	n/a	-999	9	[0, 0, 0]	n/a	FR1	2	R1200T
1074.647	0.016	1078470	START	n/a	n/a	n/a	-999	9	[-999, -999, -999]	n/a	FR1	2	R1200T
1074.663	6.533	1078486	PROB	6.533	n/a	n/a	-999	9	[6, 9, 1]	16	FR1	2	R1200T
1081.196	4.752	1085018	PROB	4.752	n/a	n/a	-999	9	[1, 9, 6]	16	FR1	2	R1200T
1085.948	5.15	1089770	PROB	5.15	n/a	n/a	-999	9	[1, 9, 9]	19	FR1	2	R1200T
1091.098	6.772	1094920	PROB	6.772	n/a	n/a	-999	9	[2, 6, 3]	11	FR1	2	R1200T
1097.87	0.014	1101691	STOP	n/a	n/a	n/a	-999	9	[-999, -999, -999]	n/a	FR1	2	R1200T
1097.884	0.666	1101705	DISTRACT_END	n/a	n/a	n/a	-999	9	[0, 0, 0]	n/a	FR1	2	R1200T
1098.55	0.517	1102371	RETRIEVAL_ORIENT	n/a	n/a	n/a	-999	9	[0, 0, 0]	n/a	FR1	2	R1200T
1099.067	1.196	1102888	REC_START	n/a	n/a	n/a	-999	9	[0, 0, 0]	n/a	FR1	2	R1200T
1100.263	0.607	1104084	REC_WORD	0.607	n/a	DOOR	4	9	[0, 0, 0]	n/a	FR1	2	R1200T
1100.87	0.475	1104691	REC_WORD	0.475	n/a	PIN	6	9	[0, 0, 0]	n/a	FR1	2	R1200T
1101.345	27.734	1105166	REC_WORD	27.734	n/a	SHOE	5	9	[0, 0, 0]	n/a	FR1	2	R1200T
1129.079	5.828	1132899	REC_END	n/a	n/a	n/a	-999	9	[0, 0, 0]	n/a	FR1	2	R1200T
1134.907	0.5	1138726	TRIAL	n/a	n/a	n/a	-999	10	[0, 0, 0]	n/a	FR1	2	R1200T
1135.407	10.428	1139226	COUNTDOWN_START	n/a	n/a	n/a	-999	10	[0, 0, 0]	n/a	FR1	2	R1200T
1145.835	0.007	1149654	COUNTDOWN_END	n/a	n/a	n/a	-999	10	[0, 0, 0]	n/a	FR1	2	R1200T
1145.842	1.617	1149661	ORIENT	n/a	n/a	n/a	-999	10	[0, 0, 0]	n/a	FR1	2	R1200T
1147.459	2.051	1151278	ORIENT_OFF	n/a	n/a	n/a	-999	10	[0, 0, 0]	n/a	FR1	2	R1200T
1149.51	1.616	1153328	WORD	n/a	wordpools/wordpool_EN.txt	BAT	1	10	[0, 0, 0]	n/a	FR1	2	R1200T
1151.126	0.85	1154944	WORD_OFF	n/a	n/a	BAT	1	10	[0, 0, 0]	n/a	FR1	2	R1200T
1151.976	1.618	1155794	WORD	n/a	wordpools/wordpool_EN.txt	EAR	2	10	[0, 0, 0]	n/a	FR1	2	R1200T
1153.594	0.866	1157412	WORD_OFF	n/a	n/a	EAR	2	10	[0, 0, 0]	n/a	FR1	2	R1200T
1154.46	1.616	1158278	WORD	n/a	wordpools/wordpool_EN.txt	MAP	3	10	[0, 0, 0]	n/a	FR1	2	R1200T
1156.076	0.967	1159894	WORD_OFF	n/a	n/a	MAP	3	10	[0, 0, 0]	n/a	FR1	2	R1200T
1157.043	1.601	1160861	WORD	n/a	wordpools/wordpool_EN.txt	KEY	4	10	[0, 0, 0]	n/a	FR1	2	R1200T
1158.644	0.901	1162462	WORD_OFF	n/a	n/a	KEY	4	10	[0, 0, 0]	n/a	FR1	2	R1200T
1159.545	1.616	1163363	WORD	n/a	wordpools/wordpool_EN.txt	BALL	5	10	[0, 0, 0]	n/a	FR1	2	R1200T
1161.161	0.817	1164979	WORD_OFF	n/a	n/a	BALL	5	10	[0, 0, 0]	n/a	FR1	2	R1200T
1161.978	1.618	1165796	WORD	n/a	wordpools/wordpool_EN.txt	STORM	6	10	[0, 0, 0]	n/a	FR1	2	R1200T
1163.596	0.916	1167414	WORD_OFF	n/a	n/a	STORM	6	10	[0, 0, 0]	n/a	FR1	2	R1200T
1164.512	1.616	1168330	WORD	n/a	wordpools/wordpool_EN.txt	PEA	7	10	[0, 0, 0]	n/a	FR1	2	R1200T
1166.128	0.867	1169945	WORD_OFF	n/a	n/a	PEA	7	10	[0, 0, 0]	n/a	FR1	2	R1200T
1166.995	1.601	1170812	WORD	n/a	wordpools/wordpool_EN.txt	COIN	8	10	[0, 0, 0]	n/a	FR1	2	R1200T
1168.596	0.801	1172413	WORD_OFF	n/a	n/a	COIN	8	10	[0, 0, 0]	n/a	FR1	2	R1200T
1169.397	1.616	1173214	WORD	n/a	wordpools/wordpool_EN.txt	SAIL	9	10	[0, 0, 0]	n/a	FR1	2	R1200T
1171.013	0.901	1174830	WORD_OFF	n/a	n/a	SAIL	9	10	[0, 0, 0]	n/a	FR1	2	R1200T
1171.914	1.617	1175731	WORD	n/a	wordpools/wordpool_EN.txt	POLE	10	10	[0, 0, 0]	n/a	FR1	2	R1200T
1173.531	0.766	1177348	WORD_OFF	n/a	n/a	POLE	10	10	[0, 0, 0]	n/a	FR1	2	R1200T
1174.297	1.617	1178114	WORD	n/a	wordpools/wordpool_EN.txt	NAIL	11	10	[0, 0, 0]	n/a	FR1	2	R1200T
1175.914	0.901	1179731	WORD_OFF	n/a	n/a	NAIL	11	10	[0, 0, 0]	n/a	FR1	2	R1200T
1176.815	1.617	1180632	WORD	n/a	wordpools/wordpool_EN.txt	FUR	12	10	[0, 0, 0]	n/a	FR1	2	R1200T
1178.432	0.0	1182249	WORD_OFF	n/a	n/a	FUR	12	10	[0, 0, 0]	n/a	FR1	2	R1200T
1178.432	0.0	1182249	DISTRACT_START	n/a	n/a	n/a	-999	10	[0, 0, 0]	n/a	FR1	2	R1200T
1178.432	0.016	1182249	START	n/a	n/a	n/a	-999	10	[-999, -999, -999]	n/a	FR1	2	R1200T
1178.448	6.985	1182265	PROB	6.985	n/a	n/a	-999	10	[9, 6, 2]	17	FR1	2	R1200T
1185.433	5.184	1189249	PROB	5.184	n/a	n/a	-999	10	[5, 6, 8]	19	FR1	2	R1200T
1190.617	4.068	1194433	PROB	4.068	n/a	n/a	-999	10	[3, 1, 9]	13	FR1	2	R1200T
1194.685	7.074	1198501	PROB	7.074	n/a	n/a	-999	10	[9, 6, 1]	16	FR1	2	R1200T
1201.759	0.01	1205574	STOP	n/a	n/a	n/a	-999	10	[-999, -999, -999]	n/a	FR1	2	R1200T
1201.769	0.567	1205584	DISTRACT_END	n/a	n/a	n/a	-999	10	[0, 0, 0]	n/a	FR1	2	R1200T
1202.336	0.517	1206151	RETRIEVAL_ORIENT	n/a	n/a	n/a	-999	10	[0, 0, 0]	n/a	FR1	2	R1200T
1202.853	1.583	1206668	REC_START	n/a	n/a	n/a	-999	10	[0, 0, 0]	n/a	FR1	2	R1200T
1204.436	1.428	1208251	REC_WORD	1.428	n/a	BAT	1	10	[0, 0, 0]	n/a	FR1	2	R1200T
1205.864	14.651	1209679	REC_WORD	14.651	n/a	BALL	5	10	[0, 0, 0]	n/a	FR1	2	R1200T
1220.515	12.351	1224329	REC_WORD	12.351	n/a	GLOVE	-999	10	[0, 0, 0]	n/a	FR1	2	R1200T
1232.866	5.209	1236680	REC_END	n/a	n/a	n/a	-999	10	[0, 0, 0]	n/a	FR1	2	R1200T
1238.075	0.5	1241888	TRIAL	n/a	n/a	n/a	-999	11	[0, 0, 0]	n/a	FR1	2	R1200T
1238.575	10.428	1242388	COUNTDOWN_START	n/a	n/a	n/a	-999	11	[0, 0, 0]	n/a	FR1	2	R1200T
1249.003	0.007	1252816	COUNTDOWN_END	n/a	n/a	n/a	-999	11	[0, 0, 0]	n/a	FR1	2	R1200T
1249.01	1.618	1252823	ORIENT	n/a	n/a	n/a	-999	11	[0, 0, 0]	n/a	FR1	2	R1200T
1250.628	2.35	1254441	ORIENT_OFF	n/a	n/a	n/a	-999	11	[0, 0, 0]	n/a	FR1	2	R1200T
1252.978	1.617	1256790	WORD	n/a	wordpools/wordpool_EN.txt	RAIN	1	11	[0, 0, 0]	n/a	FR1	2	R1200T
1254.595	0.801	1258407	WORD_OFF	n/a	n/a	RAIN	1	11	[0, 0, 0]	n/a	FR1	2	R1200T
1255.396	1.616	1259208	WORD	n/a	wordpools/wordpool_EN.txt	FOG	2	11	[0, 0, 0]	n/a	FR1	2	R1200T
1257.012	0.884	1260824	WORD_OFF	n/a	n/a	FOG	2	11	[0, 0, 0]	n/a	FR1	2	R1200T
1257.896	1.617	1261708	WORD	n/a	wordpools/wordpool_EN.txt	FUDGE	3	11	[0, 0, 0]	n/a	FR1	2	R1200T
1259.513	0.967	1263325	WORD_OFF	n/a	n/a	FUDGE	3	11	[0, 0, 0]	n/a	FR1	2	R1200T
1260.48	1.616	1264292	WORD	n/a	wordpools/wordpool_EN.txt	WING	4	11	[0, 0, 0]	n/a	FR1	2	R1200T
1262.096	0.95	1265908	WORD_OFF	n/a	n/a	WING	4	11	[0, 0, 0]	n/a	FR1	2	R1200T
1263.046	1.601	1266858	WORD	n/a	wordpools/wordpool_EN.txt	SUN	5	11	[0, 0, 0]	n/a	FR1	2	R1200T
1264.647	0.8	1268459	WORD_OFF	n/a	n/a	SUN	5	11	[0, 0, 0]	n/a	FR1	2	R1200T
1265.447	1.616	1269259	WORD	n/a	wordpools/wordpool_EN.txt	CLOUD	6	11	[0, 0, 0]	n/a	FR1	2	R1200T
1267.063	0.885	1270875	WORD_OFF	n/a	n/a	CLOUD	6	11	[0, 0, 0]	n/a	FR1	2	R1200T
1267.948	1.617	1271760	WORD	n/a	wordpools/wordpool_EN.txt	ICE	7	11	[0, 0, 0]	n/a	FR1	2	R1200T
1269.565	0.933	1273376	WORD_OFF	n/a	n/a	ICE	7	11	[0, 0, 0]	n/a	FR1	2	R1200T
1270.498	1.616	1274309	WORD	n/a	wordpools/wordpool_EN.txt	AXE	8	11	[0, 0, 0]	n/a	FR1	2	R1200T
1272.114	0.967	1275925	WORD_OFF	n/a	n/a	AXE	8	11	[0, 0, 0]	n/a	FR1	2	R1200T
1273.081	1.618	1276892	WORD	n/a	wordpools/wordpool_EN.txt	FOAM	9	11	[0, 0, 0]	n/a	FR1	2	R1200T
1274.699	0.917	1278510	WORD_OFF	n/a	n/a	FOAM	9	11	[0, 0, 0]	n/a	FR1	2	R1200T
1275.616	1.616	1279427	WORD	n/a	wordpools/wordpool_EN.txt	HOOK	10	11	[0, 0, 0]	n/a	FR1	2	R1200T
1277.232	0.8	1281043	WORD_OFF	n/a	n/a	HOOK	10	11	[0, 0, 0]	n/a	FR1	2	R1200T
1278.032	1.618	1281843	WORD	n/a	wordpools/wordpool_EN.txt	SNOW	11	11	[0, 0, 0]	n/a	FR1	2	R1200T
1279.65	0.983	1283461	WORD_OFF	n/a	n/a	SNOW	11	11	[0, 0, 0]	n/a	FR1	2	R1200T
1280.633	1.616	1284444	WORD	n/a	wordpools/wordpool_EN.txt	WEB	12	11	[0, 0, 0]	n/a	FR1	2	R1200T
1282.249	0.0	1286060	DISTRACT_START	n/a	n/a	n/a	-999	11	[0, 0, 0]	n/a	FR1	2	R1200T
1282.249	0.001	1286060	WORD_OFF	n/a	n/a	WEB	12	11	[0, 0, 0]	n/a	FR1	2	R1200T
1282.25	0.016	1286061	START	n/a	n/a	n/a	-999	11	[-999, -999, -999]	n/a	FR1	2	R1200T
1282.266	8.136	1286077	PROB	8.136	n/a	n/a	-999	11	[9, 5, 3]	17	FR1	2	R1200T
1290.402	4.816	1294212	PROB	4.816	n/a	n/a	-999	11	[2, 7, 9]	16	FR1	2	R1200T
1295.218	3.951	1299028	PROB	3.951	n/a	n/a	-999	11	[9, 5, 7]	18	FR1	2	R1200T
1299.169	5.614	1302979	PROB	5.614	n/a	n/a	-999	11	[1, 5, 8]	14	FR1	2	R1200T
1304.783	0.021	1308592	STOP	n/a	n/a	n/a	-999	11	[-999, -999, -999]	n/a	FR1	2	R1200T
1304.804	0.516	1308613	DISTRACT_END	n/a	n/a	n/a	-999	11	[0, 0, 0]	n/a	FR1	2	R1200T
1305.32	0.519	1309129	RETRIEVAL_ORIENT	n/a	n/a	n/a	-999	11	[0, 0, 0]	n/a	FR1	2	R1200T
1305.839	1.654	1309648	REC_START	n/a	n/a	n/a	-999	11	[0, 0, 0]	n/a	FR1	2	R1200T
1307.493	1.923	1311302	REC_WORD	1.923	n/a	CLOUD	6	11	[0, 0, 0]	n/a	FR1	2	R1200T
1309.416	1.062	1313225	REC_WORD	1.062	n/a	GLOVE	-999	11	[0, 0, 0]	n/a	FR1	2	R1200T
1310.478	2.508	1314287	REC_WORD	2.508	n/a	STORM	-999	11	[0, 0, 0]	n/a	FR1	2	R1200T
1312.986	8.963	1316795	REC_WORD_VV	8.963	n/a	<>	-999	11	[0, 0, 0]	n/a	FR1	2	R1200T
1321.949	13.899	1325757	REC_WORD	13.899	n/a	SHADOW	-999	11	[0, 0, 0]	n/a	FR1	2	R1200T
1335.848	19.281	1339656	REC_END	n/a	n/a	n/a	-999	11	[0, 0, 0]	n/a	FR1	2	R1200T
1355.129	381.472	1358935	TRIAL	n/a	n/a	n/a	-999	12	[0, 0, 0]	n/a	FR1	2	R1200T
1736.601	0.0	16172	INSTRUCT_START	n/a	n/a	n/a	-999	12	[0, 0, 0]	n/a	FR1	2	R1200T
1736.601	11.048	16172	INSTRUCT_END	n/a	n/a	n/a	-999	12	[0, 0, 0]	n/a	FR1	2	R1200T
1747.649	0.0	27220	SESS_START	n/a	n/a	n/a	-999	12	[0, 0, 0]	n/a	FR1	2	R1200T
1747.649	13.04	27220	MIC_TEST	n/a	n/a	n/a	-999	12	[0, 0, 0]	n/a	FR1	2	R1200T
1760.689	0.5	40259	TRIAL	n/a	n/a	n/a	-999	12	[0, 0, 0]	n/a	FR1	2	R1200T
1761.189	10.428	40759	COUNTDOWN_START	n/a	n/a	n/a	-999	12	[0, 0, 0]	n/a	FR1	2	R1200T
1771.617	0.007	51186	COUNTDOWN_END	n/a	n/a	n/a	-999	12	[0, 0, 0]	n/a	FR1	2	R1200T
1771.624	1.616	51193	ORIENT	n/a	n/a	n/a	-999	12	[0, 0, 0]	n/a	FR1	2	R1200T
1773.24	2.034	52809	ORIENT_OFF	n/a	n/a	n/a	-999	12	[0, 0, 0]	n/a	FR1	2	R1200T
1775.274	1.618	54843	WORD	n/a	wordpools/wordpool_EN.txt	BADGE	1	12	[0, 0, 0]	n/a	FR1	2	R1200T
1776.892	0.833	56461	WORD_OFF	n/a	n/a	BADGE	1	12	[0, 0, 0]	n/a	FR1	2	R1200T
1777.725	1.617	57294	WORD	n/a	wordpools/wordpool_EN.txt	YARD	2	12	[0, 0, 0]	n/a	FR1	2	R1200T
1779.342	0.983	58911	WORD_OFF	n/a	n/a	YARD	2	12	[0, 0, 0]	n/a	FR1	2	R1200T
1780.325	1.618	59894	WORD	n/a	wordpools/wordpool_EN.txt	CLOWN	3	12	[0, 0, 0]	n/a	FR1	2	R1200T
1781.943	0.85	61512	WORD_OFF	n/a	n/a	CLOWN	3	12	[0, 0, 0]	n/a	FR1	2	R1200T
1782.793	1.617	62361	WORD	n/a	wordpools/wordpool_EN.txt	BUSH	4	12	[0, 0, 0]	n/a	FR1	2	R1200T
1784.41	0.899	63978	WORD_OFF	n/a	n/a	BUSH	4	12	[0, 0, 0]	n/a	FR1	2	R1200T
1785.309	1.601	64877	WORD	n/a	wordpools/wordpool_EN.txt	LAMP	5	12	[0, 0, 0]	n/a	FR1	2	R1200T
1786.91	0.834	66478	WORD_OFF	n/a	n/a	LAMP	5	12	[0, 0, 0]	n/a	FR1	2	R1200T
1787.744	1.617	67312	WORD	n/a	wordpools/wordpool_EN.txt	FLUTE	6	12	[0, 0, 0]	n/a	FR1	2	R1200T
1789.361	1.0	68929	WORD_OFF	n/a	n/a	FLUTE	6	12	[0, 0, 0]	n/a	FR1	2	R1200T
1790.361	1.616	69929	WORD	n/a	wordpools/wordpool_EN.txt	STREET	7	12	[0, 0, 0]	n/a	FR1	2	R1200T
1791.977	1.0	71545	WORD_OFF	n/a	n/a	STREET	7	12	[0, 0, 0]	n/a	FR1	2	R1200T
1792.977	1.618	72545	WORD	n/a	wordpools/wordpool_EN.txt	VAN	8	12	[0, 0, 0]	n/a	FR1	2	R1200T
1794.595	0.784	74163	WORD_OFF	n/a	n/a	VAN	8	12	[0, 0, 0]	n/a	FR1	2	R1200T
1795.379	1.616	74947	WORD	n/a	wordpools/wordpool_EN.txt	WHEEL	9	12	[0, 0, 0]	n/a	FR1	2	R1200T
1796.995	0.851	76563	WORD_OFF	n/a	n/a	WHEEL	9	12	[0, 0, 0]	n/a	FR1	2	R1200T
1797.846	1.617	77414	WORD	n/a	wordpools/wordpool_EN.txt	ROOM	10	12	[0, 0, 0]	n/a	FR1	2	R1200T
1799.463	0.832	79030	WORD_OFF	n/a	n/a	ROOM	10	12	[0, 0, 0]	n/a	FR1	2	R1200T
1800.295	1.618	79862	WORD	n/a	wordpools/wordpool_EN.txt	BAND	11	12	[0, 0, 0]	n/a	FR1	2	R1200T
1801.913	0.9	81480	WORD_OFF	n/a	n/a	BAND	11	12	[0, 0, 0]	n/a	FR1	2	R1200T
1802.813	1.617	82380	WORD	n/a	wordpools/wordpool_EN.txt	CLOCK	12	12	[0, 0, 0]	n/a	FR1	2	R1200T
1804.43	0.0	83997	WORD_OFF	n/a	n/a	CLOCK	12	12	[0, 0, 0]	n/a	FR1	2	R1200T
1804.43	0.001	83997	DISTRACT_START	n/a	n/a	n/a	-999	12	[0, 0, 0]	n/a	FR1	2	R1200T
1804.431	0.016	83998	START	n/a	n/a	n/a	-999	12	[-999, -999, -999]	n/a	FR1	2	R1200T
1804.447	3.384	84014	PROB	3.384	n/a	n/a	-999	12	[3, 2, 7]	12	FR1	2	R1200T
1807.831	1.7	87398	PROB	1.7	n/a	n/a	-999	12	[1, 6, 4]	11	FR1	2	R1200T
1809.531	1.967	89098	PROB	1.967	n/a	n/a	-999	12	[8, 2, 4]	14	FR1	2	R1200T
1811.498	3.55	91065	PROB	3.55	n/a	n/a	-999	12	[8, 3, 1]	12	FR1	2	R1200T
1815.048	3.501	94615	PROB	3.501	n/a	n/a	-999	12	[2, 1, 6]	9	FR1	2	R1200T
1818.549	9.69	98115	PROB	9.69	n/a	n/a	-999	12	[5, 1, 7]	13	FR1	2	R1200T
1828.239	0.011	107805	STOP	n/a	n/a	n/a	-999	12	[-999, -999, -999]	n/a	FR1	2	R1200T
1828.25	0.518	107816	DISTRACT_END	n/a	n/a	n/a	-999	12	[0, 0, 0]	n/a	FR1	2	R1200T
1828.768	0.517	108334	RETRIEVAL_ORIENT	n/a	n/a	n/a	-999	12	[0, 0, 0]	n/a	FR1	2	R1200T
1829.285	2.133	108851	REC_START	n/a	n/a	n/a	-999	12	[0, 0, 0]	n/a	FR1	2	R1200T
1831.418	0.969	110984	REC_WORD	0.969	n/a	YARD	2	12	[0, 0, 0]	n/a	FR1	2	R1200T
1832.387	13.469	111953	REC_WORD	13.469	n/a	BADGE	1	12	[0, 0, 0]	n/a	FR1	2	R1200T
1845.856	2.633	125421	REC_WORD_VV	2.633	n/a	<>	-999	12	[0, 0, 0]	n/a	FR1	2	R1200T
1848.489	10.807	128054	REC_WORD_VV	10.807	n/a	<>	-999	12	[0, 0, 0]	n/a	FR1	2	R1200T
1859.296	5.512	138860	REC_END	n/a	n/a	n/a	-999	12	[0, 0, 0]	n/a	FR1	2	R1200T
1864.808	0.5	144372	TRIAL	n/a	n/a	n/a	-999	13	[0, 0, 0]	n/a	FR1	2	R1200T
1865.308	10.428	144872	COUNTDOWN_START	n/a	n/a	n/a	-999	13	[0, 0, 0]	n/a	FR1	2	R1200T
1875.736	0.007	155299	COUNTDOWN_END	n/a	n/a	n/a	-999	13	[0, 0, 0]	n/a	FR1	2	R1200T
1875.743	1.617	155306	ORIENT	n/a	n/a	n/a	-999	13	[0, 0, 0]	n/a	FR1	2	R1200T
1877.36	2.234	156923	ORIENT_OFF	n/a	n/a	n/a	-999	13	[0, 0, 0]	n/a	FR1	2	R1200T
1879.594	1.616	159157	WORD	n/a	wordpools/wordpool_EN.txt	DOLL	1	13	[0, 0, 0]	n/a	FR1	2	R1200T
1881.21	0.85	160773	WORD_OFF	n/a	n/a	DOLL	1	13	[0, 0, 0]	n/a	FR1	2	R1200T
1882.06	1.618	161623	WORD	n/a	wordpools/wordpool_EN.txt	MOUTH	2	13	[0, 0, 0]	n/a	FR1	2	R1200T
1883.678	0.917	163240	WORD_OFF	n/a	n/a	MOUTH	2	13	[0, 0, 0]	n/a	FR1	2	R1200T
1884.595	1.616	164157	WORD	n/a	wordpools/wordpool_EN.txt	STOVE	3	13	[0, 0, 0]	n/a	FR1	2	R1200T
1886.211	0.767	165773	WORD_OFF	n/a	n/a	STOVE	3	13	[0, 0, 0]	n/a	FR1	2	R1200T
1886.978	1.617	166540	WORD	n/a	wordpools/wordpool_EN.txt	SWAMP	4	13	[0, 0, 0]	n/a	FR1	2	R1200T
1888.595	0.867	168157	WORD_OFF	n/a	n/a	SWAMP	4	13	[0, 0, 0]	n/a	FR1	2	R1200T
1889.462	1.616	169024	WORD	n/a	wordpools/wordpool_EN.txt	BROOM	5	13	[0, 0, 0]	n/a	FR1	2	R1200T
1891.078	0.984	170640	WORD_OFF	n/a	n/a	BROOM	5	13	[0, 0, 0]	n/a	FR1	2	R1200T
1892.062	1.618	171624	WORD	n/a	wordpools/wordpool_EN.txt	ELF	6	13	[0, 0, 0]	n/a	FR1	2	R1200T
1893.68	1.0	173242	WORD_OFF	n/a	n/a	ELF	6	13	[0, 0, 0]	n/a	FR1	2	R1200T
1894.68	1.616	174242	WORD	n/a	wordpools/wordpool_EN.txt	GATE	7	13	[0, 0, 0]	n/a	FR1	2	R1200T
1896.296	0.767	175858	WORD_OFF	n/a	n/a	GATE	7	13	[0, 0, 0]	n/a	FR1	2	R1200T
1897.063	1.618	176625	WORD	n/a	wordpools/wordpool_EN.txt	TENT	8	13	[0, 0, 0]	n/a	FR1	2	R1200T
1898.681	1.0	178243	WORD_OFF	n/a	n/a	TENT	8	13	[0, 0, 0]	n/a	FR1	2	R1200T
1899.681	1.616	179243	WORD	n/a	wordpools/wordpool_EN.txt	MAT	9	13	[0, 0, 0]	n/a	FR1	2	R1200T
1901.297	0.917	180858	WORD_OFF	n/a	n/a	MAT	9	13	[0, 0, 0]	n/a	FR1	2	R1200T
1902.214	1.618	181775	WORD	n/a	wordpools/wordpool_EN.txt	PIT	10	13	[0, 0, 0]	n/a	FR1	2	R1200T
1903.832	0.95	183393	WORD_OFF	n/a	n/a	PIT	10	13	[0, 0, 0]	n/a	FR1	2	R1200T
1904.782	1.617	184343	WORD	n/a	wordpools/wordpool_EN.txt	LIP	11	13	[0, 0, 0]	n/a	FR1	2	R1200T
1906.399	0.832	185960	WORD_OFF	n/a	n/a	LIP	11	13	[0, 0, 0]	n/a	FR1	2	R1200T
1907.231	1.601	186792	WORD	n/a	wordpools/wordpool_EN.txt	SINK	12	13	[0, 0, 0]	n/a	FR1	2	R1200T
1908.832	0.0	188393	WORD_OFF	n/a	n/a	SINK	12	13	[0, 0, 0]	n/a	FR1	2	R1200T
1908.832	0.001	188393	DISTRACT_START	n/a	n/a	n/a	-999	13	[0, 0, 0]	n/a	FR1	2	R1200T
1908.833	0.016	188394	START	n/a	n/a	n/a	-999	13	[-999, -999, -999]	n/a	FR1	2	R1200T
1908.849	6.685	188410	PROB	6.685	n/a	n/a	-999	13	[9, 5, 3]	17	FR1	2	R1200T
1915.534	9.534	195095	PROB	9.534	n/a	n/a	-999	13	[8, 8, 4]	20	FR1	2	R1200T
1925.068	2.967	204628	PROB	2.967	n/a	n/a	-999	13	[7, 1, 2]	10	FR1	2	R1200T
1928.035	12.836	207595	PROB	12.836	n/a	n/a	-999	13	[4, 9, 3]	14	FR1	2	R1200T
1940.871	0.017	220430	STOP	n/a	n/a	n/a	-999	13	[-999, -999, -999]	n/a	FR1	2	R1200T
1940.888	0.634	220447	DISTRACT_END	n/a	n/a	n/a	-999	13	[0, 0, 0]	n/a	FR1	2	R1200T
1941.522	0.516	221081	RETRIEVAL_ORIENT	n/a	n/a	n/a	-999	13	[0, 0, 0]	n/a	FR1	2	R1200T
1942.038	2.17	221597	REC_START	n/a	n/a	n/a	-999	13	[0, 0, 0]	n/a	FR1	2	R1200T
1944.208	1.443	223767	REC_WORD_VV	1.443	n/a	<>	-999	13	[0, 0, 0]	n/a	FR1	2	R1200T
1945.651	26.399	225210	REC_WORD_VV	26.399	n/a	<>	-999	13	[0, 0, 0]	n/a	FR1	2	R1200T
1972.05	5.161	251607	REC_END	n/a	n/a	n/a	-999	13	[0, 0, 0]	n/a	FR1	2	R1200T
1977.211	0.5	256768	TRIAL	n/a	n/a	n/a	-999	14	[0, 0, 0]	n/a	FR1	2	R1200T
1977.711	10.428	257268	COUNTDOWN_START	n/a	n/a	n/a	-999	14	[0, 0, 0]	n/a	FR1	2	R1200T
1988.139	0.007	267695	COUNTDOWN_END	n/a	n/a	n/a	-999	14	[0, 0, 0]	n/a	FR1	2	R1200T
1988.146	1.601	267702	ORIENT	n/a	n/a	n/a	-999	14	[0, 0, 0]	n/a	FR1	2	R1200T
1989.747	2.316	269303	ORIENT_OFF	n/a	n/a	n/a	-999	14	[0, 0, 0]	n/a	FR1	2	R1200T
1992.063	1.618	271619	WORD	n/a	wordpools/wordpool_EN.txt	RICE	1	14	[0, 0, 0]	n/a	FR1	2	R1200T
1993.681	0.934	273237	WORD_OFF	n/a	n/a	RICE	1	14	[0, 0, 0]	n/a	FR1	2	R1200T
1994.615	1.616	274171	WORD	n/a	wordpools/wordpool_EN.txt	STOOL	2	14	[0, 0, 0]	n/a	FR1	2	R1200T
1996.231	0.967	275787	WORD_OFF	n/a	n/a	STOOL	2	14	[0, 0, 0]	n/a	FR1	2	R1200T
1997.198	1.618	276754	WORD	n/a	wordpools/wordpool_EN.txt	BEAN	3	14	[0, 0, 0]	n/a	FR1	2	R1200T
1998.816	0.833	278372	WORD_OFF	n/a	n/a	BEAN	3	14	[0, 0, 0]	n/a	FR1	2	R1200T
1999.649	1.616	279205	WORD	n/a	wordpools/wordpool_EN.txt	SHEEP	4	14	[0, 0, 0]	n/a	FR1	2	R1200T
2001.265	0.9	280820	WORD_OFF	n/a	n/a	SHEEP	4	14	[0, 0, 0]	n/a	FR1	2	R1200T
2002.165	1.618	281720	WORD	n/a	wordpools/wordpool_EN.txt	LEAF	5	14	[0, 0, 0]	n/a	FR1	2	R1200T
2003.783	0.95	283338	WORD_OFF	n/a	n/a	LEAF	5	14	[0, 0, 0]	n/a	FR1	2	R1200T
2004.733	1.617	284288	WORD	n/a	wordpools/wordpool_EN.txt	FOOD	6	14	[0, 0, 0]	n/a	FR1	2	R1200T
2006.35	1.0	285905	WORD_OFF	n/a	n/a	FOOD	6	14	[0, 0, 0]	n/a	FR1	2	R1200T
2007.35	1.616	286905	WORD	n/a	wordpools/wordpool_EN.txt	PHONE	7	14	[0, 0, 0]	n/a	FR1	2	R1200T
2008.966	1.017	288521	WORD_OFF	n/a	n/a	PHONE	7	14	[0, 0, 0]	n/a	FR1	2	R1200T
2009.983	1.618	289538	WORD	n/a	wordpools/wordpool_EN.txt	STEM	8	14	[0, 0, 0]	n/a	FR1	2	R1200T
2011.601	0.917	291156	WORD_OFF	n/a	n/a	STEM	8	14	[0, 0, 0]	n/a	FR1	2	R1200T
2012.518	1.616	292073	WORD	n/a	wordpools/wordpool_EN.txt	CUBE	9	14	[0, 0, 0]	n/a	FR1	2	R1200T
2014.134	1.0	293689	WORD_OFF	n/a	n/a	CUBE	9	14	[0, 0, 0]	n/a	FR1	2	R1200T
2015.134	1.618	294689	WORD	n/a	wordpools/wordpool_EN.txt	THREAD	10	14	[0, 0, 0]	n/a	FR1	2	R1200T
2016.752	0.917	296307	WORD_OFF	n/a	n/a	THREAD	10	14	[0, 0, 0]	n/a	FR1	2	R1200T
2017.669	1.616	297223	WORD	n/a	wordpools/wordpool_EN.txt	SOUP	11	14	[0, 0, 0]	n/a	FR1	2	R1200T
2019.285	0.85	298839	WORD_OFF	n/a	n/a	SOUP	11	14	[0, 0, 0]	n/a	FR1	2	R1200T
2020.135	1.618	299689	WORD	n/a	wordpools/wordpool_EN.txt	PLANT	12	14	[0, 0, 0]	n/a	FR1	2	R1200T
2021.753	0.0	301307	WORD_OFF	n/a	n/a	PLANT	12	14	[0, 0, 0]	n/a	FR1	2	R1200T
2021.753	0.001	301307	DISTRACT_START	n/a	n/a	n/a	-999	14	[0, 0, 0]	n/a	FR1	2	R1200T
2021.754	0.016	301308	START	n/a	n/a	n/a	-999	14	[-999, -999, -999]	n/a	FR1	2	R1200T
2021.77	4.867	301324	PROB	4.867	n/a	n/a	-999	14	[2, 9, 4]	15	FR1	2	R1200T
2026.637	5.417	306191	PROB	5.417	n/a	n/a	-999	14	[3, 1, 2]	6	FR1	2	R1200T
2032.054	8.719	311608	PROB	8.719	n/a	n/a	-999	14	[2, 1, 2]	4	FR1	2	R1200T
2040.773	2.314	320326	PROB	2.314	n/a	n/a	-999	14	[1, 3, 1]	6	FR1	2	R1200T
2043.087	0.019	322640	STOP	n/a	n/a	n/a	-999	14	[-999, -999, -999]	n/a	FR1	2	R1200T
2043.106	0.701	322659	DISTRACT_END	n/a	n/a	n/a	-999	14	[0, 0, 0]	n/a	FR1	2	R1200T
2043.807	0.516	323360	RETRIEVAL_ORIENT	n/a	n/a	n/a	-999	14	[0, 0, 0]	n/a	FR1	2	R1200T
2044.323	1.085	323876	REC_START	n/a	n/a	n/a	-999	14	[0, 0, 0]	n/a	FR1	2	R1200T
2045.408	8.811	324961	REC_WORD	8.811	n/a	RICE	1	14	[0, 0, 0]	n/a	FR1	2	R1200T
2054.219	20.116	333771	REC_WORD	20.116	n/a	PLANT	12	14	[0, 0, 0]	n/a	FR1	2	R1200T
2074.335	8.112	353886	REC_END	n/a	n/a	n/a	-999	14	[0, 0, 0]	n/a	FR1	2	R1200T
2082.447	0.5	361998	TRIAL	n/a	n/a	n/a	-999	15	[0, 0, 0]	n/a	FR1	2	R1200T
2082.947	10.428	362498	COUNTDOWN_START	n/a	n/a	n/a	-999	15	[0, 0, 0]	n/a	FR1	2	R1200T
2093.375	0.008	372925	COUNTDOWN_END	n/a	n/a	n/a	-999	15	[0, 0, 0]	n/a	FR1	2	R1200T
2093.383	1.616	372933	ORIENT	n/a	n/a	n/a	-999	15	[0, 0, 0]	n/a	FR1	2	R1200T
2094.999	1.967	374549	ORIENT_OFF	n/a	n/a	n/a	-999	15	[0, 0, 0]	n/a	FR1	2	R1200T
2096.966	1.618	376516	WORD	n/a	wordpools/wordpool_EN.txt	BLOOM	1	15	[0, 0, 0]	n/a	FR1	2	R1200T
2098.584	0.983	378134	WORD_OFF	n/a	n/a	BLOOM	1	15	[0, 0, 0]	n/a	FR1	2	R1200T
2099.567	1.616	379117	WORD	n/a	wordpools/wordpool_EN.txt	HOSE	2	15	[0, 0, 0]	n/a	FR1	2	R1200T
2101.183	0.984	380733	WORD_OFF	n/a	n/a	HOSE	2	15	[0, 0, 0]	n/a	FR1	2	R1200T
2102.167	1.618	381716	WORD	n/a	wordpools/wordpool_EN.txt	SHARK	3	15	[0, 0, 0]	n/a	FR1	2	R1200T
2103.785	0.883	383334	WORD_OFF	n/a	n/a	SHARK	3	15	[0, 0, 0]	n/a	FR1	2	R1200T
2104.668	1.616	384217	WORD	n/a	wordpools/wordpool_EN.txt	SLEEVE	4	15	[0, 0, 0]	n/a	FR1	2	R1200T
2106.284	0.884	385833	WORD_OFF	n/a	n/a	SLEEVE	4	15	[0, 0, 0]	n/a	FR1	2	R1200T
2107.168	1.618	386717	WORD	n/a	wordpools/wordpool_EN.txt	TOOTH	5	15	[0, 0, 0]	n/a	FR1	2	R1200T
2108.786	0.8	388335	WORD_OFF	n/a	n/a	TOOTH	5	15	[0, 0, 0]	n/a	FR1	2	R1200T
2109.586	1.616	389135	WORD	n/a	wordpools/wordpool_EN.txt	PRINCE	6	15	[0, 0, 0]	n/a	FR1	2	R1200T
2111.202	0.883	390751	WORD_OFF	n/a	n/a	PRINCE	6	15	[0, 0, 0]	n/a	FR1	2	R1200T
2112.085	1.618	391634	WORD	n/a	wordpools/wordpool_EN.txt	CROWN	7	15	[0, 0, 0]	n/a	FR1	2	R1200T
2113.703	0.8	393252	WORD_OFF	n/a	n/a	CROWN	7	15	[0, 0, 0]	n/a	FR1	2	R1200T
2114.503	1.616	394052	WORD	n/a	wordpools/wordpool_EN.txt	TREE	8	15	[0, 0, 0]	n/a	FR1	2	R1200T
2116.119	0.917	395668	WORD_OFF	n/a	n/a	TREE	8	15	[0, 0, 0]	n/a	FR1	2	R1200T
2117.036	1.618	396585	WORD	n/a	wordpools/wordpool_EN.txt	RAKE	9	15	[0, 0, 0]	n/a	FR1	2	R1200T
2118.654	0.934	398202	WORD_OFF	n/a	n/a	RAKE	9	15	[0, 0, 0]	n/a	FR1	2	R1200T
2119.588	1.615	399136	WORD	n/a	wordpools/wordpool_EN.txt	CROW	10	15	[0, 0, 0]	n/a	FR1	2	R1200T
2121.203	0.801	400751	WORD_OFF	n/a	n/a	CROW	10	15	[0, 0, 0]	n/a	FR1	2	R1200T
2122.004	1.618	401552	WORD	n/a	wordpools/wordpool_EN.txt	SPRING	11	15	[0, 0, 0]	n/a	FR1	2	R1200T
2123.622	0.883	403170	WORD_OFF	n/a	n/a	SPRING	11	15	[0, 0, 0]	n/a	FR1	2	R1200T
2124.505	1.616	404053	WORD	n/a	wordpools/wordpool_EN.txt	BOOT	12	15	[0, 0, 0]	n/a	FR1	2	R1200T
2126.121	0.0	405669	DISTRACT_START	n/a	n/a	n/a	-999	15	[0, 0, 0]	n/a	FR1	2	R1200T
2126.121	0.001	405669	WORD_OFF	n/a	n/a	BOOT	12	15	[0, 0, 0]	n/a	FR1	2	R1200T
2126.122	0.016	405670	START	n/a	n/a	n/a	-999	15	[-999, -999, -999]	n/a	FR1	2	R1200T
2126.138	36.294	405686	PROB	36.294	n/a	n/a	-999	15	[4, 3, 8]	13	FR1	2	R1200T
2162.432	0.013	441978	STOP	n/a	n/a	n/a	-999	15	[-999, -999, -999]	n/a	FR1	2	R1200T
2162.445	0.549	441991	DISTRACT_END	n/a	n/a	n/a	-999	15	[0, 0, 0]	n/a	FR1	2	R1200T
2162.994	0.519	442540	RETRIEVAL_ORIENT	n/a	n/a	n/a	-999	15	[0, 0, 0]	n/a	FR1	2	R1200T
2163.513	9.443	443059	REC_START	n/a	n/a	n/a	-999	15	[0, 0, 0]	n/a	FR1	2	R1200T
2172.956	1.1	452501	REC_WORD	1.1	n/a	SHARK	3	15	[0, 0, 0]	n/a	FR1	2	R1200T
2174.056	1.152	453601	REC_WORD	1.152	n/a	TOOTH	5	15	[0, 0, 0]	n/a	FR1	2	R1200T
2175.208	6.479	454753	REC_WORD	6.479	n/a	SPRING	11	15	[0, 0, 0]	n/a	FR1	2	R1200T
2181.687	11.837	461232	REC_WORD_VV	11.837	n/a	<>	-999	15	[0, 0, 0]	n/a	FR1	2	R1200T
2193.524	16.213	473068	REC_END	n/a	n/a	n/a	-999	15	[0, 0, 0]	n/a	FR1	2	R1200T
2209.737	0.5	489280	TRIAL	n/a	n/a	n/a	-999	16	[0, 0, 0]	n/a	FR1	2	R1200T
2210.237	10.428	489780	COUNTDOWN_START	n/a	n/a	n/a	-999	16	[0, 0, 0]	n/a	FR1	2	R1200T
2220.665	0.008	500207	COUNTDOWN_END	n/a	n/a	n/a	-999	16	[0, 0, 0]	n/a	FR1	2	R1200T
2220.673	1.615	500215	ORIENT	n/a	n/a	n/a	-999	16	[0, 0, 0]	n/a	FR1	2	R1200T
2222.288	2.219	501830	ORIENT_OFF	n/a	n/a	n/a	-999	16	[0, 0, 0]	n/a	FR1	2	R1200T
2224.507	1.615	504049	WORD	n/a	wordpools/wordpool_EN.txt	FILM	1	16	[0, 0, 0]	n/a	FR1	2	R1200T
2226.122	0.851	505664	WORD_OFF	n/a	n/a	FILM	1	16	[0, 0, 0]	n/a	FR1	2	R1200T
2226.973	1.618	506515	WORD	n/a	wordpools/wordpool_EN.txt	INK	2	16	[0, 0, 0]	n/a	FR1	2	R1200T
2228.591	0.95	508133	WORD_OFF	n/a	n/a	INK	2	16	[0, 0, 0]	n/a	FR1	2	R1200T
2229.541	1.616	509083	WORD	n/a	wordpools/wordpool_EN.txt	JUDGE	3	16	[0, 0, 0]	n/a	FR1	2	R1200T
2231.157	0.85	510699	WORD_OFF	n/a	n/a	JUDGE	3	16	[0, 0, 0]	n/a	FR1	2	R1200T
2232.007	1.618	511549	WORD	n/a	wordpools/wordpool_EN.txt	SHEET	4	16	[0, 0, 0]	n/a	FR1	2	R1200T
2233.625	0.983	513167	WORD_OFF	n/a	n/a	SHEET	4	16	[0, 0, 0]	n/a	FR1	2	R1200T
2234.608	1.616	514150	WORD	n/a	wordpools/wordpool_EN.txt	EEL	5	16	[0, 0, 0]	n/a	FR1	2	R1200T
2236.224	0.767	515765	WORD_OFF	n/a	n/a	EEL	5	16	[0, 0, 0]	n/a	FR1	2	R1200T
2236.991	1.618	516532	WORD	n/a	wordpools/wordpool_EN.txt	FARM	6	16	[0, 0, 0]	n/a	FR1	2	R1200T
2238.609	0.917	518150	WORD_OFF	n/a	n/a	FARM	6	16	[0, 0, 0]	n/a	FR1	2	R1200T
2239.526	1.616	519067	WORD	n/a	wordpools/wordpool_EN.txt	CAR	7	16	[0, 0, 0]	n/a	FR1	2	R1200T
2241.142	0.801	520683	WORD_OFF	n/a	n/a	CAR	7	16	[0, 0, 0]	n/a	FR1	2	R1200T
2241.943	1.617	521484	WORD	n/a	wordpools/wordpool_EN.txt	BRANCH	8	16	[0, 0, 0]	n/a	FR1	2	R1200T
2243.56	1.0	523101	WORD_OFF	n/a	n/a	BRANCH	8	16	[0, 0, 0]	n/a	FR1	2	R1200T
2244.56	1.616	524101	WORD	n/a	wordpools/wordpool_EN.txt	FLAG	9	16	[0, 0, 0]	n/a	FR1	2	R1200T
2246.176	0.784	525717	WORD_OFF	n/a	n/a	FLAG	9	16	[0, 0, 0]	n/a	FR1	2	R1200T
2246.96	1.618	526501	WORD	n/a	wordpools/wordpool_EN.txt	CASH	10	16	[0, 0, 0]	n/a	FR1	2	R1200T
2248.578	0.983	528119	WORD_OFF	n/a	n/a	CASH	10	16	[0, 0, 0]	n/a	FR1	2	R1200T
2249.561	1.616	529102	WORD	n/a	wordpools/wordpool_EN.txt	DRUM	11	16	[0, 0, 0]	n/a	FR1	2	R1200T
2251.177	0.833	530718	WORD_OFF	n/a	n/a	DRUM	11	16	[0, 0, 0]	n/a	FR1	2	R1200T
2252.01	1.602	531551	WORD	n/a	wordpools/wordpool_EN.txt	BANK	12	16	[0, 0, 0]	n/a	FR1	2	R1200T
2253.612	0.0	533152	WORD_OFF	n/a	n/a	BANK	12	16	[0, 0, 0]	n/a	FR1	2	R1200T
2253.612	0.0	533152	DISTRACT_START	n/a	n/a	n/a	-999	16	[0, 0, 0]	n/a	FR1	2	R1200T
2253.612	0.017	533152	START	n/a	n/a	n/a	-999	16	[-999, -999, -999]	n/a	FR1	2	R1200T
2253.629	4.1	533169	PROB	4.1	n/a	n/a	-999	16	[4, 1, 9]	14	FR1	2	R1200T
2257.729	4.118	537269	PROB	4.118	n/a	n/a	-999	16	[2, 2, 3]	7	FR1	2	R1200T
2261.847	5.651	541387	PROB	5.651	n/a	n/a	-999	16	[8, 8, 2]	18	FR1	2	R1200T
2267.498	3.733	547038	PROB	3.733	n/a	n/a	-999	16	[9, 8, 1]	18	FR1	2	R1200T
2271.231	4.888	550770	PROB	4.888	n/a	n/a	-999	16	[4, 9, 5]	14	FR1	2	R1200T
2276.119	0.013	555658	STOP	n/a	n/a	n/a	-999	16	[-999, -999, -999]	n/a	FR1	2	R1200T
2276.132	0.601	555671	DISTRACT_END	n/a	n/a	n/a	-999	16	[0, 0, 0]	n/a	FR1	2	R1200T
2276.733	0.516	556272	RETRIEVAL_ORIENT	n/a	n/a	n/a	-999	16	[0, 0, 0]	n/a	FR1	2	R1200T
2277.249	8.483	556788	REC_START	n/a	n/a	n/a	-999	16	[0, 0, 0]	n/a	FR1	2	R1200T
2285.732	0.968	565271	REC_WORD	0.968	n/a	FILM	1	16	[0, 0, 0]	n/a	FR1	2	R1200T
2286.7	0.859	566238	REC_WORD	0.859	n/a	JUDGE	3	16	[0, 0, 0]	n/a	FR1	2	R1200T
2287.559	7.879	567097	REC_WORD	7.879	n/a	SHEET	4	16	[0, 0, 0]	n/a	FR1	2	R1200T
2295.438	11.821	574976	REC_WORD_VV	11.821	n/a	<>	-999	16	[0, 0, 0]	n/a	FR1	2	R1200T
2307.259	13.781	586796	REC_END	n/a	n/a	n/a	-999	16	[0, 0, 0]	n/a	FR1	2	R1200T
2321.04	0.5	600576	TRIAL	n/a	n/a	n/a	-999	17	[0, 0, 0]	n/a	FR1	2	R1200T
2321.54	10.428	601076	COUNTDOWN_START	n/a	n/a	n/a	-999	17	[0, 0, 0]	n/a	FR1	2	R1200T
2331.968	0.007	611504	COUNTDOWN_END	n/a	n/a	n/a	-999	17	[0, 0, 0]	n/a	FR1	2	R1200T
2331.975	1.601	611511	ORIENT	n/a	n/a	n/a	-999	17	[0, 0, 0]	n/a	FR1	2	R1200T
2333.576	2.084	613112	ORIENT_OFF	n/a	n/a	n/a	-999	17	[0, 0, 0]	n/a	FR1	2	R1200T
2335.66	1.616	615196	WORD	n/a	wordpools/wordpool_EN.txt	FISH	1	17	[0, 0, 0]	n/a	FR1	2	R1200T
2337.276	0.9	616811	WORD_OFF	n/a	n/a	FISH	1	17	[0, 0, 0]	n/a	FR1	2	R1200T
2338.176	1.618	617711	WORD	n/a	wordpools/wordpool_EN.txt	GLASS	2	17	[0, 0, 0]	n/a	FR1	2	R1200T
2339.794	0.934	619329	WORD_OFF	n/a	n/a	GLASS	2	17	[0, 0, 0]	n/a	FR1	2	R1200T
2340.728	1.617	620263	WORD	n/a	wordpools/wordpool_EN.txt	FROG	3	17	[0, 0, 0]	n/a	FR1	2	R1200T
2342.345	0.949	621880	WORD_OFF	n/a	n/a	FROG	3	17	[0, 0, 0]	n/a	FR1	2	R1200T
2343.294	1.601	622829	WORD	n/a	wordpools/wordpool_EN.txt	POND	4	17	[0, 0, 0]	n/a	FR1	2	R1200T
2344.895	0.934	624430	WORD_OFF	n/a	n/a	POND	4	17	[0, 0, 0]	n/a	FR1	2	R1200T
2345.829	1.617	625364	WORD	n/a	wordpools/wordpool_EN.txt	JET	5	17	[0, 0, 0]	n/a	FR1	2	R1200T
2347.446	0.9	626981	WORD_OFF	n/a	n/a	JET	5	17	[0, 0, 0]	n/a	FR1	2	R1200T
2348.346	1.616	627881	WORD	n/a	wordpools/wordpool_EN.txt	SHRIMP	6	17	[0, 0, 0]	n/a	FR1	2	R1200T
2349.962	0.967	629497	WORD_OFF	n/a	n/a	SHRIMP	6	17	[0, 0, 0]	n/a	FR1	2	R1200T
2350.929	1.617	630464	WORD	n/a	wordpools/wordpool_EN.txt	DEER	7	17	[0, 0, 0]	n/a	FR1	2	R1200T
2352.546	0.934	632081	WORD_OFF	n/a	n/a	DEER	7	17	[0, 0, 0]	n/a	FR1	2	R1200T
2353.48	1.616	633015	WORD	n/a	wordpools/wordpool_EN.txt	PIPE	8	17	[0, 0, 0]	n/a	FR1	2	R1200T
2355.096	0.983	634630	WORD_OFF	n/a	n/a	PIPE	8	17	[0, 0, 0]	n/a	FR1	2	R1200T
2356.079	1.618	635613	WORD	n/a	wordpools/wordpool_EN.txt	SPONGE	9	17	[0, 0, 0]	n/a	FR1	2	R1200T
2357.697	0.917	637231	WORD_OFF	n/a	n/a	SPONGE	9	17	[0, 0, 0]	n/a	FR1	2	R1200T
2358.614	1.616	638148	WORD	n/a	wordpools/wordpool_EN.txt	SKY	10	17	[0, 0, 0]	n/a	FR1	2	R1200T
2360.23	0.934	639764	WORD_OFF	n/a	n/a	SKY	10	17	[0, 0, 0]	n/a	FR1	2	R1200T
2361.164	1.618	640698	WORD	n/a	wordpools/wordpool_EN.txt	MOON	11	17	[0, 0, 0]	n/a	FR1	2	R1200T
2362.782	0.766	642316	WORD_OFF	n/a	n/a	MOON	11	17	[0, 0, 0]	n/a	FR1	2	R1200T
2363.548	1.616	643082	WORD	n/a	wordpools/wordpool_EN.txt	TANK	12	17	[0, 0, 0]	n/a	FR1	2	R1200T
2365.164	0.0	644698	WORD_OFF	n/a	n/a	TANK	12	17	[0, 0, 0]	n/a	FR1	2	R1200T
2365.164	0.001	644698	DISTRACT_START	n/a	n/a	n/a	-999	17	[0, 0, 0]	n/a	FR1	2	R1200T
2365.165	0.016	644699	START	n/a	n/a	n/a	-999	17	[-999, -999, -999]	n/a	FR1	2	R1200T
2365.181	3.618	644715	PROB	3.618	n/a	n/a	-999	17	[1, 3, 7]	11	FR1	2	R1200T
2368.799	4.018	648333	PROB	4.018	n/a	n/a	-999	17	[3, 4, 3]	10	FR1	2	R1200T
2372.817	9.585	652350	PROB	9.585	n/a	n/a	-999	17	[4, 7, 9]	21	FR1	2	R1200T
2382.402	3.892	661935	PROB	3.892	n/a	n/a	-999	17	[1, 8, 5]	14	FR1	2	R1200T
2386.294	0.007	665827	STOP	n/a	n/a	n/a	-999	17	[-999, -999, -999]	n/a	FR1	2	R1200T
2386.301	0.701	665834	DISTRACT_END	n/a	n/a	n/a	-999	17	[0, 0, 0]	n/a	FR1	2	R1200T
2387.002	0.518	666535	RETRIEVAL_ORIENT	n/a	n/a	n/a	-999	17	[0, 0, 0]	n/a	FR1	2	R1200T
2387.52	0.962	667052	REC_START	n/a	n/a	n/a	-999	17	[0, 0, 0]	n/a	FR1	2	R1200T
2388.482	0.572	668014	REC_WORD	0.572	n/a	FISH	1	17	[0, 0, 0]	n/a	FR1	2	R1200T
2389.054	0.799	668586	REC_WORD	0.799	n/a	SHRIMP	6	17	[0, 0, 0]	n/a	FR1	2	R1200T
2389.853	9.53	669385	REC_WORD	9.53	n/a	TANK	12	17	[0, 0, 0]	n/a	FR1	2	R1200T
2399.383	4.73	678915	REC_WORD	4.73	n/a	SPONGE	9	17	[0, 0, 0]	n/a	FR1	2	R1200T
2404.113	4.683	683645	REC_WORD_VV	4.683	n/a	<>	-999	17	[0, 0, 0]	n/a	FR1	2	R1200T
2408.796	8.734	688327	REC_WORD	8.734	n/a	MOON	11	17	[0, 0, 0]	n/a	FR1	2	R1200T
2417.53	9.863	697061	REC_END	n/a	n/a	n/a	-999	17	[0, 0, 0]	n/a	FR1	2	R1200T
2427.393	0.5	706923	TRIAL	n/a	n/a	n/a	-999	18	[0, 0, 0]	n/a	FR1	2	R1200T
2427.893	10.428	707423	COUNTDOWN_START	n/a	n/a	n/a	-999	18	[0, 0, 0]	n/a	FR1	2	R1200T
2438.321	0.007	717850	COUNTDOWN_END	n/a	n/a	n/a	-999	18	[0, 0, 0]	n/a	FR1	2	R1200T
2438.328	1.618	717857	ORIENT	n/a	n/a	n/a	-999	18	[0, 0, 0]	n/a	FR1	2	R1200T
2439.946	2.199	719475	ORIENT_OFF	n/a	n/a	n/a	-999	18	[0, 0, 0]	n/a	FR1	2	R1200T
2442.145	1.601	721674	WORD	n/a	wordpools/wordpool_EN.txt	WOLF	1	18	[0, 0, 0]	n/a	FR1	2	R1200T
2443.746	0.817	723275	WORD_OFF	n/a	n/a	WOLF	1	18	[0, 0, 0]	n/a	FR1	2	R1200T
2444.563	1.616	724092	WORD	n/a	wordpools/wordpool_EN.txt	MOUSE	2	18	[0, 0, 0]	n/a	FR1	2	R1200T
2446.179	0.784	725708	WORD_OFF	n/a	n/a	MOUSE	2	18	[0, 0, 0]	n/a	FR1	2	R1200T
2446.963	1.601	726492	WORD	n/a	wordpools/wordpool_EN.txt	CHIEF	3	18	[0, 0, 0]	n/a	FR1	2	R1200T
2448.564	0.867	728093	WORD_OFF	n/a	n/a	CHIEF	3	18	[0, 0, 0]	n/a	FR1	2	R1200T
2449.431	1.616	728960	WORD	n/a	wordpools/wordpool_EN.txt	BEE	4	18	[0, 0, 0]	n/a	FR1	2	R1200T
2451.047	0.767	730576	WORD_OFF	n/a	n/a	BEE	4	18	[0, 0, 0]	n/a	FR1	2	R1200T
2451.814	1.617	731343	WORD	n/a	wordpools/wordpool_EN.txt	MILK	5	18	[0, 0, 0]	n/a	FR1	2	R1200T
2453.431	0.917	732960	WORD_OFF	n/a	n/a	MILK	5	18	[0, 0, 0]	n/a	FR1	2	R1200T
2454.348	1.616	733877	WORD	n/a	wordpools/wordpool_EN.txt	TOAD	6	18	[0, 0, 0]	n/a	FR1	2	R1200T
2455.964	0.985	735492	WORD_OFF	n/a	n/a	TOAD	6	18	[0, 0, 0]	n/a	FR1	2	R1200T
2456.949	1.617	736477	WORD	n/a	wordpools/wordpool_EN.txt	BIRD	7	18	[0, 0, 0]	n/a	FR1	2	R1200T
2458.566	1.0	738094	WORD_OFF	n/a	n/a	BIRD	7	18	[0, 0, 0]	n/a	FR1	2	R1200T
2459.566	1.616	739094	WORD	n/a	wordpools/wordpool_EN.txt	GEESE	8	18	[0, 0, 0]	n/a	FR1	2	R1200T
2461.182	0.967	740710	WORD_OFF	n/a	n/a	GEESE	8	18	[0, 0, 0]	n/a	FR1	2	R1200T
2462.149	1.618	741677	WORD	n/a	wordpools/wordpool_EN.txt	SOAP	9	18	[0, 0, 0]	n/a	FR1	2	R1200T
2463.767	0.866	743295	WORD_OFF	n/a	n/a	SOAP	9	18	[0, 0, 0]	n/a	FR1	2	R1200T
2464.633	1.616	744161	WORD	n/a	wordpools/wordpool_EN.txt	SNAKE	10	18	[0, 0, 0]	n/a	FR1	2	R1200T
2466.249	0.917	745777	WORD_OFF	n/a	n/a	SNAKE	10	18	[0, 0, 0]	n/a	FR1	2	R1200T
2467.166	1.618	746694	WORD	n/a	wordpools/wordpool_EN.txt	WEED	11	18	[0, 0, 0]	n/a	FR1	2	R1200T
2468.784	1.0	748312	WORD_OFF	n/a	n/a	WEED	11	18	[0, 0, 0]	n/a	FR1	2	R1200T
2469.784	1.617	749312	WORD	n/a	wordpools/wordpool_EN.txt	BOY	12	18	[0, 0, 0]	n/a	FR1	2	R1200T
2471.401	0.0	750929	WORD_OFF	n/a	n/a	BOY	12	18	[0, 0, 0]	n/a	FR1	2	R1200T
2471.401	0.001	750929	DISTRACT_START	n/a	n/a	n/a	-999	18	[0, 0, 0]	n/a	FR1	2	R1200T
2471.402	0.016	750930	START	n/a	n/a	n/a	-999	18	[-999, -999, -999]	n/a	FR1	2	R1200T
2471.418	4.201	750946	PROB	4.201	n/a	n/a	-999	18	[2, 4, 8]	14	FR1	2	R1200T
2475.619	5.583	755146	PROB	5.583	n/a	n/a	-999	18	[9, 3, 3]	16	FR1	2	R1200T
2481.202	4.801	760729	PROB	4.801	n/a	n/a	-999	18	[6, 2, 2]	10	FR1	2	R1200T
2486.003	4.652	765530	PROB	4.652	n/a	n/a	-999	18	[7, 8, 4]	19	FR1	2	R1200T
2490.655	5.282	770181	PROB	5.282	n/a	n/a	-999	18	[8, 6, 1]	15	FR1	2	R1200T
2495.937	0.018	775463	STOP	n/a	n/a	n/a	-999	18	[-999, -999, -999]	n/a	FR1	2	R1200T
2495.955	0.617	775481	DISTRACT_END	n/a	n/a	n/a	-999	18	[0, 0, 0]	n/a	FR1	2	R1200T
2496.572	0.517	776098	RETRIEVAL_ORIENT	n/a	n/a	n/a	-999	18	[0, 0, 0]	n/a	FR1	2	R1200T
2497.089	1.679	776615	REC_START	n/a	n/a	n/a	-999	18	[0, 0, 0]	n/a	FR1	2	R1200T
2498.768	3.061	778294	REC_WORD_VV	3.061	n/a	<>	-999	18	[0, 0, 0]	n/a	FR1	2	R1200T
2501.829	0.674	781355	REC_WORD	0.674	n/a	WOLF	1	18	[0, 0, 0]	n/a	FR1	2	R1200T
2502.503	11.041	782029	REC_WORD	11.041	n/a	MOUSE	2	18	[0, 0, 0]	n/a	FR1	2	R1200T
2513.544	12.657	793069	REC_WORD	12.657	n/a	MOOSE	-999	18	[0, 0, 0]	n/a	FR1	2	R1200T
2526.201	0.899	805725	REC_WORD	0.899	n/a	SNAKE	10	18	[0, 0, 0]	n/a	FR1	2	R1200T
2527.1	3.645	806624	REC_END	n/a	n/a	n/a	-999	18	[0, 0, 0]	n/a	FR1	2	R1200T
2530.745	0.5	810269	TRIAL	n/a	n/a	n/a	-999	19	[0, 0, 0]	n/a	FR1	2	R1200T
2531.245	10.428	810769	COUNTDOWN_START	n/a	n/a	n/a	-999	19	[0, 0, 0]	n/a	FR1	2	R1200T
2541.673	0.008	821196	COUNTDOWN_END	n/a	n/a	n/a	-999	19	[0, 0, 0]	n/a	FR1	2	R1200T
2541.681	1.616	821204	ORIENT	n/a	n/a	n/a	-999	19	[0, 0, 0]	n/a	FR1	2	R1200T
2543.297	2.184	822820	ORIENT_OFF	n/a	n/a	n/a	-999	19	[0, 0, 0]	n/a	FR1	2	R1200T
2545.481	1.616	825004	WORD	n/a	wordpools/wordpool_EN.txt	APE	1	19	[0, 0, 0]	n/a	FR1	2	R1200T
2547.097	0.818	826620	WORD_OFF	n/a	n/a	APE	1	19	[0, 0, 0]	n/a	FR1	2	R1200T
2547.915	1.617	827438	WORD	n/a	wordpools/wordpool_EN.txt	BOAT	2	19	[0, 0, 0]	n/a	FR1	2	R1200T
2549.532	0.967	829055	WORD_OFF	n/a	n/a	BOAT	2	19	[0, 0, 0]	n/a	FR1	2	R1200T
2550.499	1.616	830022	WORD	n/a	wordpools/wordpool_EN.txt	STEAM	3	19	[0, 0, 0]	n/a	FR1	2	R1200T
2552.115	0.818	831638	WORD_OFF	n/a	n/a	STEAM	3	19	[0, 0, 0]	n/a	FR1	2	R1200T
2552.933	1.617	832456	WORD	n/a	wordpools/wordpool_EN.txt	BRIDGE	4	19	[0, 0, 0]	n/a	FR1	2	R1200T
2554.55	0.983	834073	WORD_OFF	n/a	n/a	BRIDGE	4	19	[0, 0, 0]	n/a	FR1	2	R1200T
2555.533	1.616	835055	WORD	n/a	wordpools/wordpool_EN.txt	LOCK	5	19	[0, 0, 0]	n/a	FR1	2	R1200T
2557.149	1.017	836671	WORD_OFF	n/a	n/a	LOCK	5	19	[0, 0, 0]	n/a	FR1	2	R1200T
2558.166	1.618	837688	WORD	n/a	wordpools/wordpool_EN.txt	ROOF	6	19	[0, 0, 0]	n/a	FR1	2	R1200T
2559.784	0.917	839306	WORD_OFF	n/a	n/a	ROOF	6	19	[0, 0, 0]	n/a	FR1	2	R1200T
2560.701	1.616	840223	WORD	n/a	wordpools/wordpool_EN.txt	LAKE	7	19	[0, 0, 0]	n/a	FR1	2	R1200T
2562.317	0.9	841839	WORD_OFF	n/a	n/a	LAKE	7	19	[0, 0, 0]	n/a	FR1	2	R1200T
2563.217	1.601	842739	WORD	n/a	wordpools/wordpool_EN.txt	DOCK	8	19	[0, 0, 0]	n/a	FR1	2	R1200T
2564.818	0.784	844340	WORD_OFF	n/a	n/a	DOCK	8	19	[0, 0, 0]	n/a	FR1	2	R1200T
2565.602	1.616	845124	WORD	n/a	wordpools/wordpool_EN.txt	SMOKE	9	19	[0, 0, 0]	n/a	FR1	2	R1200T
2567.218	0.917	846740	WORD_OFF	n/a	n/a	SMOKE	9	19	[0, 0, 0]	n/a	FR1	2	R1200T
2568.135	1.618	847657	WORD	n/a	wordpools/wordpool_EN.txt	SPARK	10	19	[0, 0, 0]	n/a	FR1	2	R1200T
2569.753	0.85	849275	WORD_OFF	n/a	n/a	SPARK	10	19	[0, 0, 0]	n/a	FR1	2	R1200T
2570.603	1.616	850125	WORD	n/a	wordpools/wordpool_EN.txt	CRANE	11	19	[0, 0, 0]	n/a	FR1	2	R1200T
2572.219	0.816	851741	WORD_OFF	n/a	n/a	CRANE	11	19	[0, 0, 0]	n/a	FR1	2	R1200T
2573.035	1.601	852556	WORD	n/a	wordpools/wordpool_EN.txt	BRUSH	12	19	[0, 0, 0]	n/a	FR1	2	R1200T
2574.636	0.0	854157	DISTRACT_START	n/a	n/a	n/a	-999	19	[0, 0, 0]	n/a	FR1	2	R1200T
2574.636	0.001	854157	WORD_OFF	n/a	n/a	BRUSH	12	19	[0, 0, 0]	n/a	FR1	2	R1200T
2574.637	0.017	854158	START	n/a	n/a	n/a	-999	19	[-999, -999, -999]	n/a	FR1	2	R1200T
2574.654	3.783	854175	PROB	3.783	n/a	n/a	-999	19	[3, 5, 1]	9	FR1	2	R1200T
2578.437	3.567	857958	PROB	3.567	n/a	n/a	-999	19	[8, 8, 8]	24	FR1	2	R1200T
2582.004	2.15	861525	PROB	2.15	n/a	n/a	-999	19	[3, 7, 3]	13	FR1	2	R1200T
2584.154	2.901	863675	PROB	2.901	n/a	n/a	-999	19	[7, 8, 1]	15	FR1	2	R1200T
2587.055	3.2	866576	PROB	3.2	n/a	n/a	-999	19	[7, 1, 1]	9	FR1	2	R1200T
2590.255	5.426	869775	PROB	5.426	n/a	n/a	-999	19	[5, 7, 7]	19	FR1	2	R1200T
2595.681	0.01	875201	STOP	n/a	n/a	n/a	-999	19	[-999, -999, -999]	n/a	FR1	2	R1200T
2595.691	0.532	875211	DISTRACT_END	n/a	n/a	n/a	-999	19	[0, 0, 0]	n/a	FR1	2	R1200T
2596.223	0.52	875743	RETRIEVAL_ORIENT	n/a	n/a	n/a	-999	19	[0, 0, 0]	n/a	FR1	2	R1200T
2596.743	1.042	876263	REC_START	n/a	n/a	n/a	-999	19	[0, 0, 0]	n/a	FR1	2	R1200T
2597.785	0.984	877305	REC_WORD	0.984	n/a	APE	1	19	[0, 0, 0]	n/a	FR1	2	R1200T
2598.769	7.053	878289	REC_WORD	7.053	n/a	BOAT	2	19	[0, 0, 0]	n/a	FR1	2	R1200T
2605.822	20.929	885342	REC_WORD_VV	20.929	n/a	<>	-999	19	[0, 0, 0]	n/a	FR1	2	R1200T
2626.751	9.463	906269	REC_END	n/a	n/a	n/a	-999	19	[0, 0, 0]	n/a	FR1	2	R1200T
2636.214	0.5	915732	TRIAL	n/a	n/a	n/a	-999	20	[0, 0, 0]	n/a	FR1	2	R1200T
2636.714	10.428	916232	COUNTDOWN_START	n/a	n/a	n/a	-999	20	[0, 0, 0]	n/a	FR1	2	R1200T
2647.142	0.007	926659	COUNTDOWN_END	n/a	n/a	n/a	-999	20	[0, 0, 0]	n/a	FR1	2	R1200T
2647.149	1.601	926666	ORIENT	n/a	n/a	n/a	-999	20	[0, 0, 0]	n/a	FR1	2	R1200T
2648.75	1.867	928267	ORIENT_OFF	n/a	n/a	n/a	-999	20	[0, 0, 0]	n/a	FR1	2	R1200T
2650.617	1.616	930134	WORD	n/a	wordpools/wordpool_EN.txt	ANT	1	20	[0, 0, 0]	n/a	FR1	2	R1200T
2652.233	0.834	931750	WORD_OFF	n/a	n/a	ANT	1	20	[0, 0, 0]	n/a	FR1	2	R1200T
2653.067	1.601	932584	WORD	n/a	wordpools/wordpool_EN.txt	TOE	2	20	[0, 0, 0]	n/a	FR1	2	R1200T
2654.668	0.934	934185	WORD_OFF	n/a	n/a	TOE	2	20	[0, 0, 0]	n/a	FR1	2	R1200T
2655.602	1.616	935119	WORD	n/a	wordpools/wordpool_EN.txt	STONE	3	20	[0, 0, 0]	n/a	FR1	2	R1200T
2657.218	1.0	936734	WORD_OFF	n/a	n/a	STONE	3	20	[0, 0, 0]	n/a	FR1	2	R1200T
2658.218	1.618	937734	WORD	n/a	wordpools/wordpool_EN.txt	MOTH	4	20	[0, 0, 0]	n/a	FR1	2	R1200T
2659.836	0.833	939352	WORD_OFF	n/a	n/a	MOTH	4	20	[0, 0, 0]	n/a	FR1	2	R1200T
2660.669	1.616	940185	WORD	n/a	wordpools/wordpool_EN.txt	SNAIL	5	20	[0, 0, 0]	n/a	FR1	2	R1200T
2662.285	0.8	941801	WORD_OFF	n/a	n/a	SNAIL	5	20	[0, 0, 0]	n/a	FR1	2	R1200T
2663.085	1.618	942601	WORD	n/a	wordpools/wordpool_EN.txt	COW	6	20	[0, 0, 0]	n/a	FR1	2	R1200T
2664.703	1.0	944219	WORD_OFF	n/a	n/a	COW	6	20	[0, 0, 0]	n/a	FR1	2	R1200T
2665.703	1.616	945219	WORD	n/a	wordpools/wordpool_EN.txt	CLIFF	7	20	[0, 0, 0]	n/a	FR1	2	R1200T
2667.319	0.934	946835	WORD_OFF	n/a	n/a	CLIFF	7	20	[0, 0, 0]	n/a	FR1	2	R1200T
2668.253	1.618	947769	WORD	n/a	wordpools/wordpool_EN.txt	MOLE	8	20	[0, 0, 0]	n/a	FR1	2	R1200T
2669.871	1.017	949387	WORD_OFF	n/a	n/a	MOLE	8	20	[0, 0, 0]	n/a	FR1	2	R1200T
2670.888	1.617	950404	WORD	n/a	wordpools/wordpool_EN.txt	FOX	9	20	[0, 0, 0]	n/a	FR1	2	R1200T
2672.505	0.916	952021	WORD_OFF	n/a	n/a	FOX	9	20	[0, 0, 0]	n/a	FR1	2	R1200T
2673.421	1.616	952936	WORD	n/a	wordpools/wordpool_EN.txt	FACE	10	20	[0, 0, 0]	n/a	FR1	2	R1200T
2675.037	0.951	954552	WORD_OFF	n/a	n/a	FACE	10	20	[0, 0, 0]	n/a	FR1	2	R1200T
2675.988	1.618	955503	WORD	n/a	wordpools/wordpool_EN.txt	WORLD	11	20	[0, 0, 0]	n/a	FR1	2	R1200T
2677.606	0.833	957121	WORD_OFF	n/a	n/a	WORLD	11	20	[0, 0, 0]	n/a	FR1	2	R1200T
2678.439	1.616	957954	WORD	n/a	wordpools/wordpool_EN.txt	NEST	12	20	[0, 0, 0]	n/a	FR1	2	R1200T
2680.055	0.0	959570	WORD_OFF	n/a	n/a	NEST	12	20	[0, 0, 0]	n/a	FR1	2	R1200T
2680.055	0.0	959570	DISTRACT_START	n/a	n/a	n/a	-999	20	[0, 0, 0]	n/a	FR1	2	R1200T
2680.055	0.017	959570	START	n/a	n/a	n/a	-999	20	[-999, -999, -999]	n/a	FR1	2	R1200T
2680.072	3.084	959587	PROB	3.084	n/a	n/a	-999	20	[2, 8, 2]	12	FR1	2	R1200T
2683.156	4.034	962671	PROB	4.034	n/a	n/a	-999	20	[3, 2, 7]	12	FR1	2	R1200T
2687.19	7.818	966705	PROB	7.818	n/a	n/a	-999	20	[6, 8, 9]	23	FR1	2	R1200T
2695.008	6.432	974522	PROB	6.432	n/a	n/a	-999	20	[1, 2, 3]	6	FR1	2	R1200T
2701.44	0.02	980954	STOP	n/a	n/a	n/a	-999	20	[-999, -999, -999]	n/a	FR1	2	R1200T
2701.46	0.666	980974	DISTRACT_END	n/a	n/a	n/a	-999	20	[0, 0, 0]	n/a	FR1	2	R1200T
2702.126	0.518	981640	RETRIEVAL_ORIENT	n/a	n/a	n/a	-999	20	[0, 0, 0]	n/a	FR1	2	R1200T
2702.644	1.364	982158	REC_START	n/a	n/a	n/a	-999	20	[0, 0, 0]	n/a	FR1	2	R1200T
2704.008	5.419	983522	REC_WORD	5.419	n/a	FOX	9	20	[0, 0, 0]	n/a	FR1	2	R1200T
2709.427	2.398	988940	REC_WORD	2.398	n/a	ANT	1	20	[0, 0, 0]	n/a	FR1	2	R1200T
2711.825	2.914	991338	REC_WORD	2.914	n/a	TOE	2	20	[0, 0, 0]	n/a	FR1	2	R1200T
2714.739	17.916	994252	REC_WORD	17.916	n/a	WORLD	11	20	[0, 0, 0]	n/a	FR1	2	R1200T
2732.655	6.644	1012167	REC_END	n/a	n/a	n/a	-999	20	[0, 0, 0]	n/a	FR1	2	R1200T
2739.299	0.5	1018811	TRIAL	n/a	n/a	n/a	-999	21	[0, 0, 0]	n/a	FR1	2	R1200T
2739.799	10.428	1019311	COUNTDOWN_START	n/a	n/a	n/a	-999	21	[0, 0, 0]	n/a	FR1	2	R1200T
2750.227	0.007	1029738	COUNTDOWN_END	n/a	n/a	n/a	-999	21	[0, 0, 0]	n/a	FR1	2	R1200T
2750.234	1.618	1029745	ORIENT	n/a	n/a	n/a	-999	21	[0, 0, 0]	n/a	FR1	2	R1200T
2751.852	1.884	1031363	ORIENT_OFF	n/a	n/a	n/a	-999	21	[0, 0, 0]	n/a	FR1	2	R1200T
2753.736	1.617	1033247	WORD	n/a	wordpools/wordpool_EN.txt	SLIME	1	21	[0, 0, 0]	n/a	FR1	2	R1200T
2755.353	0.949	1034864	WORD_OFF	n/a	n/a	SLIME	1	21	[0, 0, 0]	n/a	FR1	2	R1200T
2756.302	1.618	1035813	WORD	n/a	wordpools/wordpool_EN.txt	PALM	2	21	[0, 0, 0]	n/a	FR1	2	R1200T
2757.92	0.95	1037430	WORD_OFF	n/a	n/a	PALM	2	21	[0, 0, 0]	n/a	FR1	2	R1200T
2758.87	1.617	1038380	WORD	n/a	wordpools/wordpool_EN.txt	SUIT	3	21	[0, 0, 0]	n/a	FR1	2	R1200T
2760.487	0.984	1039997	WORD_OFF	n/a	n/a	SUIT	3	21	[0, 0, 0]	n/a	FR1	2	R1200T
2761.471	1.616	1040981	WORD	n/a	wordpools/wordpool_EN.txt	DESK	4	21	[0, 0, 0]	n/a	FR1	2	R1200T
2763.087	0.867	1042597	WORD_OFF	n/a	n/a	DESK	4	21	[0, 0, 0]	n/a	FR1	2	R1200T
2763.954	1.617	1043464	WORD	n/a	wordpools/wordpool_EN.txt	SOCK	5	21	[0, 0, 0]	n/a	FR1	2	R1200T
2765.571	0.984	1045081	WORD_OFF	n/a	n/a	SOCK	5	21	[0, 0, 0]	n/a	FR1	2	R1200T
2766.555	1.616	1046065	WORD	n/a	wordpools/wordpool_EN.txt	SCHOOL	6	21	[0, 0, 0]	n/a	FR1	2	R1200T
2768.171	1.017	1047681	WORD_OFF	n/a	n/a	SCHOOL	6	21	[0, 0, 0]	n/a	FR1	2	R1200T
2769.188	1.618	1048698	WORD	n/a	wordpools/wordpool_EN.txt	CANE	7	21	[0, 0, 0]	n/a	FR1	2	R1200T
2770.806	0.9	1050316	WORD_OFF	n/a	n/a	CANE	7	21	[0, 0, 0]	n/a	FR1	2	R1200T
2771.706	1.616	1051216	WORD	n/a	wordpools/wordpool_EN.txt	DIME	8	21	[0, 0, 0]	n/a	FR1	2	R1200T
2773.322	0.767	1052832	WORD_OFF	n/a	n/a	DIME	8	21	[0, 0, 0]	n/a	FR1	2	R1200T
2774.089	1.618	1053598	WORD	n/a	wordpools/wordpool_EN.txt	OAK	9	21	[0, 0, 0]	n/a	FR1	2	R1200T
2775.707	1.0	1055216	WORD_OFF	n/a	n/a	OAK	9	21	[0, 0, 0]	n/a	FR1	2	R1200T
2776.707	1.616	1056216	WORD	n/a	wordpools/wordpool_EN.txt	PEACH	10	21	[0, 0, 0]	n/a	FR1	2	R1200T
2778.323	0.85	1057832	WORD_OFF	n/a	n/a	PEACH	10	21	[0, 0, 0]	n/a	FR1	2	R1200T
2779.173	1.618	1058682	WORD	n/a	wordpools/wordpool_EN.txt	TEA	11	21	[0, 0, 0]	n/a	FR1	2	R1200T
2780.791	0.967	1060300	WORD_OFF	n/a	n/a	TEA	11	21	[0, 0, 0]	n/a	FR1	2	R1200T
2781.758	1.617	1061267	WORD	n/a	wordpools/wordpool_EN.txt	TOAST	12	21	[0, 0, 0]	n/a	FR1	2	R1200T
2783.375	0.0	1062884	WORD_OFF	n/a	n/a	TOAST	12	21	[0, 0, 0]	n/a	FR1	2	R1200T
2783.375	0.0	1062884	DISTRACT_START	n/a	n/a	n/a	-999	21	[0, 0, 0]	n/a	FR1	2	R1200T
2783.375	0.016	1062884	START	n/a	n/a	n/a	-999	21	[-999, -999, -999]	n/a	FR1	2	R1200T
2783.391	5.567	1062900	PROB	5.567	n/a	n/a	-999	21	[2, 4, 5]	11	FR1	2	R1200T
2788.958	7.852	1068467	PROB	7.852	n/a	n/a	-999	21	[7, 5, 7]	22	FR1	2	R1200T
2796.81	7.903	1076318	PROB	7.903	n/a	n/a	-999	21	[3, 6, 1]	10	FR1	2	R1200T
2804.713	0.016	1084221	STOP	n/a	n/a	n/a	-999	21	[-999, -999, -999]	n/a	FR1	2	R1200T
2804.729	0.683	1084237	DISTRACT_END	n/a	n/a	n/a	-999	21	[0, 0, 0]	n/a	FR1	2	R1200T
2805.412	0.517	1084920	RETRIEVAL_ORIENT	n/a	n/a	n/a	-999	21	[0, 0, 0]	n/a	FR1	2	R1200T
2805.929	30.0	1085437	REC_START	n/a	n/a	n/a	-999	21	[0, 0, 0]	n/a	FR1	2	R1200T
2835.929	0.012	1115435	REC_WORD_VV	0.012	n/a	<>	-999	21	[0, 0, 0]	n/a	FR1	2	R1200T
2835.941	6.711	1115447	REC_END	n/a	n/a	n/a	-999	21	[0, 0, 0]	n/a	FR1	2	R1200T
2842.652	0.5	1122157	TRIAL	n/a	n/a	n/a	-999	22	[0, 0, 0]	n/a	FR1	2	R1200T
2843.152	10.428	1122657	COUNTDOWN_START	n/a	n/a	n/a	-999	22	[0, 0, 0]	n/a	FR1	2	R1200T
2853.58	0.007	1133085	COUNTDOWN_END	n/a	n/a	n/a	-999	22	[0, 0, 0]	n/a	FR1	2	R1200T
2853.587	1.616	1133092	ORIENT	n/a	n/a	n/a	-999	22	[0, 0, 0]	n/a	FR1	2	R1200T
2855.203	1.984	1134708	ORIENT_OFF	n/a	n/a	n/a	-999	22	[0, 0, 0]	n/a	FR1	2	R1200T
2857.187	1.601	1136692	WORD	n/a	wordpools/wordpool_EN.txt	CUP	1	22	[0, 0, 0]	n/a	FR1	2	R1200T
2858.788	0.917	1138292	WORD_OFF	n/a	n/a	CUP	1	22	[0, 0, 0]	n/a	FR1	2	R1200T
2859.705	1.616	1139209	WORD	n/a	wordpools/wordpool_EN.txt	PURSE	2	22	[0, 0, 0]	n/a	FR1	2	R1200T
2861.321	0.917	1140825	WORD_OFF	n/a	n/a	PURSE	2	22	[0, 0, 0]	n/a	FR1	2	R1200T
2862.238	1.601	1141742	WORD	n/a	wordpools/wordpool_EN.txt	PLATE	3	22	[0, 0, 0]	n/a	FR1	2	R1200T
2863.839	0.967	1143343	WORD_OFF	n/a	n/a	PLATE	3	22	[0, 0, 0]	n/a	FR1	2	R1200T
2864.806	1.617	1144310	WORD	n/a	wordpools/wordpool_EN.txt	OAR	4	22	[0, 0, 0]	n/a	FR1	2	R1200T
2866.423	0.984	1145927	WORD_OFF	n/a	n/a	OAR	4	22	[0, 0, 0]	n/a	FR1	2	R1200T
2867.407	1.616	1146911	WORD	n/a	wordpools/wordpool_EN.txt	TRAY	5	22	[0, 0, 0]	n/a	FR1	2	R1200T
2869.023	0.801	1148527	WORD_OFF	n/a	n/a	TRAY	5	22	[0, 0, 0]	n/a	FR1	2	R1200T
2869.824	1.617	1149328	WORD	n/a	wordpools/wordpool_EN.txt	STRING	6	22	[0, 0, 0]	n/a	FR1	2	R1200T
2871.441	0.815	1150945	WORD_OFF	n/a	n/a	STRING	6	22	[0, 0, 0]	n/a	FR1	2	R1200T
2872.256	1.602	1151760	WORD	n/a	wordpools/wordpool_EN.txt	CHIN	7	22	[0, 0, 0]	n/a	FR1	2	R1200T
2873.858	0.783	1153362	WORD_OFF	n/a	n/a	CHIN	7	22	[0, 0, 0]	n/a	FR1	2	R1200T
2874.641	1.616	1154145	WORD	n/a	wordpools/wordpool_EN.txt	COUCH	8	22	[0, 0, 0]	n/a	FR1	2	R1200T
2876.257	0.85	1155760	WORD_OFF	n/a	n/a	COUCH	8	22	[0, 0, 0]	n/a	FR1	2	R1200T
2877.107	1.618	1156610	WORD	n/a	wordpools/wordpool_EN.txt	TIE	9	22	[0, 0, 0]	n/a	FR1	2	R1200T
2878.725	0.817	1158228	WORD_OFF	n/a	n/a	TIE	9	22	[0, 0, 0]	n/a	FR1	2	R1200T
2879.542	1.616	1159045	WORD	n/a	wordpools/wordpool_EN.txt	FORK	10	22	[0, 0, 0]	n/a	FR1	2	R1200T
2881.158	0.867	1160661	WORD_OFF	n/a	n/a	FORK	10	22	[0, 0, 0]	n/a	FR1	2	R1200T
2882.025	1.618	1161528	WORD	n/a	wordpools/wordpool_EN.txt	SHIRT	11	22	[0, 0, 0]	n/a	FR1	2	R1200T
2883.643	0.833	1163146	WORD_OFF	n/a	n/a	SHIRT	11	22	[0, 0, 0]	n/a	FR1	2	R1200T
2884.476	1.616	1163979	WORD	n/a	wordpools/wordpool_EN.txt	LEG	12	22	[0, 0, 0]	n/a	FR1	2	R1200T
2886.092	0.0	1165595	DISTRACT_START	n/a	n/a	n/a	-999	22	[0, 0, 0]	n/a	FR1	2	R1200T
2886.092	0.001	1165595	WORD_OFF	n/a	n/a	LEG	12	22	[0, 0, 0]	n/a	FR1	2	R1200T
2886.093	0.016	1165596	START	n/a	n/a	n/a	-999	22	[-999, -999, -999]	n/a	FR1	2	R1200T
2886.109	11.002	1165612	PROB	11.002	n/a	n/a	-999	22	[3, 8, 6]	17	FR1	2	R1200T
2897.111	3.217	1176613	PROB	3.217	n/a	n/a	-999	22	[6, 4, 6]	16	FR1	2	R1200T
2900.328	4.185	1179830	PROB	4.185	n/a	n/a	-999	22	[6, 7, 1]	14	FR1	2	R1200T
2904.513	7.295	1184015	PROB	7.295	n/a	n/a	-999	22	[9, 4, 2]	15	FR1	2	R1200T
2911.808	0.006	1191309	STOP	n/a	n/a	n/a	-999	22	[-999, -999, -999]	n/a	FR1	2	R1200T
2911.814	0.517	1191315	DISTRACT_END	n/a	n/a	n/a	-999	22	[0, 0, 0]	n/a	FR1	2	R1200T
2912.331	0.518	1191832	RETRIEVAL_ORIENT	n/a	n/a	n/a	-999	22	[0, 0, 0]	n/a	FR1	2	R1200T
2912.849	1.645	1192350	REC_START	n/a	n/a	n/a	-999	22	[0, 0, 0]	n/a	FR1	2	R1200T
2914.494	3.508	1193995	REC_WORD	3.508	n/a	CUP	1	22	[0, 0, 0]	n/a	FR1	2	R1200T
2918.002	3.113	1197503	REC_WORD_VV	3.113	n/a	<>	-999	22	[0, 0, 0]	n/a	FR1	2	R1200T
2921.115	8.194	1200616	REC_WORD_VV	8.194	n/a	<>	-999	22	[0, 0, 0]	n/a	FR1	2	R1200T
2929.309	3.94	1208809	REC_WORD_VV	3.94	n/a	<>	-999	22	[0, 0, 0]	n/a	FR1	2	R1200T
2933.249	2.145	1212749	REC_WORD_VV	2.145	n/a	<>	-999	22	[0, 0, 0]	n/a	FR1	2	R1200T
2935.394	7.464	1214894	REC_WORD_VV	7.464	n/a	<>	-999	22	[0, 0, 0]	n/a	FR1	2	R1200T
2942.858	8.163	1222357	REC_END	n/a	n/a	n/a	-999	22	[0, 0, 0]	n/a	FR1	2	R1200T
2951.021	0.5	1230520	TRIAL	n/a	n/a	n/a	-999	23	[0, 0, 0]	n/a	FR1	2	R1200T
2951.521	10.428	1231020	COUNTDOWN_START	n/a	n/a	n/a	-999	23	[0, 0, 0]	n/a	FR1	2	R1200T
2961.949	0.007	1241447	COUNTDOWN_END	n/a	n/a	n/a	-999	23	[0, 0, 0]	n/a	FR1	2	R1200T
2961.956	1.618	1241454	ORIENT	n/a	n/a	n/a	-999	23	[0, 0, 0]	n/a	FR1	2	R1200T
2963.574	1.934	1243072	ORIENT_OFF	n/a	n/a	n/a	-999	23	[0, 0, 0]	n/a	FR1	2	R1200T
2965.508	1.616	1245006	WORD	n/a	wordpools/wordpool_EN.txt	CHEEK	1	23	[0, 0, 0]	n/a	FR1	2	R1200T
2967.124	0.95	1246622	WORD_OFF	n/a	n/a	CHEEK	1	23	[0, 0, 0]	n/a	FR1	2	R1200T
2968.074	1.601	1247572	WORD	n/a	wordpools/wordpool_EN.txt	DRESS	2	23	[0, 0, 0]	n/a	FR1	2	R1200T
2969.675	0.767	1249173	WORD_OFF	n/a	n/a	DRESS	2	23	[0, 0, 0]	n/a	FR1	2	R1200T
2970.442	1.616	1249940	WORD	n/a	wordpools/wordpool_EN.txt	BARN	3	23	[0, 0, 0]	n/a	FR1	2	R1200T
2972.058	0.801	1251556	WORD_OFF	n/a	n/a	BARN	3	23	[0, 0, 0]	n/a	FR1	2	R1200T
2972.859	1.617	1252357	WORD	n/a	wordpools/wordpool_EN.txt	BOWL	4	23	[0, 0, 0]	n/a	FR1	2	R1200T
2974.476	1.0	1253974	WORD_OFF	n/a	n/a	BOWL	4	23	[0, 0, 0]	n/a	FR1	2	R1200T
2975.476	1.616	1254974	WORD	n/a	wordpools/wordpool_EN.txt	CAGE	5	23	[0, 0, 0]	n/a	FR1	2	R1200T
2977.092	0.967	1256589	WORD_OFF	n/a	n/a	CAGE	5	23	[0, 0, 0]	n/a	FR1	2	R1200T
2978.059	1.618	1257556	WORD	n/a	wordpools/wordpool_EN.txt	GRASS	6	23	[0, 0, 0]	n/a	FR1	2	R1200T
2979.677	0.984	1259174	WORD_OFF	n/a	n/a	GRASS	6	23	[0, 0, 0]	n/a	FR1	2	R1200T
2980.661	1.616	1260158	WORD	n/a	wordpools/wordpool_EN.txt	LAMB	7	23	[0, 0, 0]	n/a	FR1	2	R1200T
2982.277	0.866	1261774	WORD_OFF	n/a	n/a	LAMB	7	23	[0, 0, 0]	n/a	FR1	2	R1200T
2983.143	1.618	1262640	WORD	n/a	wordpools/wordpool_EN.txt	CAKE	8	23	[0, 0, 0]	n/a	FR1	2	R1200T
2984.761	0.884	1264258	WORD_OFF	n/a	n/a	CAKE	8	23	[0, 0, 0]	n/a	FR1	2	R1200T
2985.645	1.616	1265142	WORD	n/a	wordpools/wordpool_EN.txt	CHAIR	9	23	[0, 0, 0]	n/a	FR1	2	R1200T
2987.261	0.933	1266758	WORD_OFF	n/a	n/a	CHAIR	9	23	[0, 0, 0]	n/a	FR1	2	R1200T
2988.194	1.601	1267691	WORD	n/a	wordpools/wordpool_EN.txt	ARK	10	23	[0, 0, 0]	n/a	FR1	2	R1200T
2989.795	0.851	1269292	WORD_OFF	n/a	n/a	ARK	10	23	[0, 0, 0]	n/a	FR1	2	R1200T
2990.646	1.616	1270143	WORD	n/a	wordpools/wordpool_EN.txt	PIE	11	23	[0, 0, 0]	n/a	FR1	2	R1200T
2992.262	0.917	1271759	WORD_OFF	n/a	n/a	PIE	11	23	[0, 0, 0]	n/a	FR1	2	R1200T
2993.179	1.617	1272675	WORD	n/a	wordpools/wordpool_EN.txt	SKUNK	12	23	[0, 0, 0]	n/a	FR1	2	R1200T
2994.796	0.0	1274292	WORD_OFF	n/a	n/a	SKUNK	12	23	[0, 0, 0]	n/a	FR1	2	R1200T
2994.796	0.001	1274292	DISTRACT_START	n/a	n/a	n/a	-999	23	[0, 0, 0]	n/a	FR1	2	R1200T
2994.797	0.016	1274293	START	n/a	n/a	n/a	-999	23	[-999, -999, -999]	n/a	FR1	2	R1200T
2994.813	3.751	1274309	PROB	3.751	n/a	n/a	-999	23	[6, 4, 1]	11	FR1	2	R1200T
2998.564	4.466	1278060	PROB	4.466	n/a	n/a	-999	23	[3, 1, 1]	5	FR1	2	R1200T
3003.03	8.235	1282526	PROB	8.235	n/a	n/a	-999	23	[7, 7, 8]	23	FR1	2	R1200T
3011.265	3.051	1290760	PROB	3.051	n/a	n/a	-999	23	[5, 5, 5]	15	FR1	2	R1200T
3014.316	7.325	1293811	PROB	7.325	n/a	n/a	-999	23	[1, 2, 5]	8	FR1	2	R1200T
3021.641	0.01	1301136	STOP	n/a	n/a	n/a	-999	23	[-999, -999, -999]	n/a	FR1	2	R1200T
3021.651	0.649	1301146	DISTRACT_END	n/a	n/a	n/a	-999	23	[0, 0, 0]	n/a	FR1	2	R1200T
3022.3	0.519	1301795	RETRIEVAL_ORIENT	n/a	n/a	n/a	-999	23	[0, 0, 0]	n/a	FR1	2	R1200T
3022.819	18.731	1302314	REC_START	n/a	n/a	n/a	-999	23	[0, 0, 0]	n/a	FR1	2	R1200T
3041.55	11.278	1321044	REC_WORD_VV	11.278	n/a	<>	-999	23	[0, 0, 0]	n/a	FR1	2	R1200T
3052.828	6.797	1332321	REC_END	n/a	n/a	n/a	-999	23	[0, 0, 0]	n/a	FR1	2	R1200T
3059.625	0.5	1339118	TRIAL	n/a	n/a	n/a	-999	24	[0, 0, 0]	n/a	FR1	2	R1200T
3060.125	10.428	1339617	COUNTDOWN_START	n/a	n/a	n/a	-999	24	[0, 0, 0]	n/a	FR1	2	R1200T
3070.553	0.007	1350045	COUNTDOWN_END	n/a	n/a	n/a	-999	24	[0, 0, 0]	n/a	FR1	2	R1200T
3070.56	1.616	1350052	ORIENT	n/a	n/a	n/a	-999	24	[0, 0, 0]	n/a	FR1	2	R1200T
3072.176	2.168	1351668	ORIENT_OFF	n/a	n/a	n/a	-999	24	[0, 0, 0]	n/a	FR1	2	R1200T
3074.344	1.616	1353836	WORD	n/a	wordpools/wordpool_EN.txt	CAVE	1	24	[0, 0, 0]	n/a	FR1	2	R1200T
3075.96	0.868	1355452	WORD_OFF	n/a	n/a	CAVE	1	24	[0, 0, 0]	n/a	FR1	2	R1200T
3076.828	1.617	1356319	WORD	n/a	wordpools/wordpool_EN.txt	GOLD	2	24	[0, 0, 0]	n/a	FR1	2	R1200T
3078.445	0.967	1357936	WORD_OFF	n/a	n/a	GOLD	2	24	[0, 0, 0]	n/a	FR1	2	R1200T
3079.412	1.616	1358903	WORD	n/a	wordpools/wordpool_EN.txt	JEEP	3	24	[0, 0, 0]	n/a	FR1	2	R1200T
3081.028	0.918	1360519	WORD_OFF	n/a	n/a	JEEP	3	24	[0, 0, 0]	n/a	FR1	2	R1200T
3081.946	1.617	1361437	WORD	n/a	wordpools/wordpool_EN.txt	CORN	4	24	[0, 0, 0]	n/a	FR1	2	R1200T
3083.563	0.8	1363054	WORD_OFF	n/a	n/a	CORN	4	24	[0, 0, 0]	n/a	FR1	2	R1200T
3084.363	1.616	1363854	WORD	n/a	wordpools/wordpool_EN.txt	WHALE	5	24	[0, 0, 0]	n/a	FR1	2	R1200T
3085.979	0.983	1365470	WORD_OFF	n/a	n/a	WHALE	5	24	[0, 0, 0]	n/a	FR1	2	R1200T
3086.962	1.601	1366453	WORD	n/a	wordpools/wordpool_EN.txt	LAND	6	24	[0, 0, 0]	n/a	FR1	2	R1200T
3088.563	0.901	1368054	WORD_OFF	n/a	n/a	LAND	6	24	[0, 0, 0]	n/a	FR1	2	R1200T
3089.464	1.616	1368955	WORD	n/a	wordpools/wordpool_EN.txt	FORT	7	24	[0, 0, 0]	n/a	FR1	2	R1200T
3091.08	0.817	1370571	WORD_OFF	n/a	n/a	FORT	7	24	[0, 0, 0]	n/a	FR1	2	R1200T
3091.897	1.617	1371388	WORD	n/a	wordpools/wordpool_EN.txt	CLAY	8	24	[0, 0, 0]	n/a	FR1	2	R1200T
3093.514	0.951	1373004	WORD_OFF	n/a	n/a	CLAY	8	24	[0, 0, 0]	n/a	FR1	2	R1200T
3094.465	1.616	1373955	WORD	n/a	wordpools/wordpool_EN.txt	SHIELD	9	24	[0, 0, 0]	n/a	FR1	2	R1200T
3096.081	1.0	1375571	WORD_OFF	n/a	n/a	SHIELD	9	24	[0, 0, 0]	n/a	FR1	2	R1200T
3097.081	1.601	1376571	WORD	n/a	wordpools/wordpool_EN.txt	SPEAR	10	24	[0, 0, 0]	n/a	FR1	2	R1200T
3098.682	0.934	1378172	WORD_OFF	n/a	n/a	SPEAR	10	24	[0, 0, 0]	n/a	FR1	2	R1200T
3099.616	1.615	1379106	WORD	n/a	wordpools/wordpool_EN.txt	SEAL	11	24	[0, 0, 0]	n/a	FR1	2	R1200T
3101.231	0.867	1380721	WORD_OFF	n/a	n/a	SEAL	11	24	[0, 0, 0]	n/a	FR1	2	R1200T
3102.098	1.618	1381588	WORD	n/a	wordpools/wordpool_EN.txt	SKI	12	24	[0, 0, 0]	n/a	FR1	2	R1200T
3103.716	0.0	1383206	WORD_OFF	n/a	n/a	SKI	12	24	[0, 0, 0]	n/a	FR1	2	R1200T
3103.716	0.001	1383206	DISTRACT_START	n/a	n/a	n/a	-999	24	[0, 0, 0]	n/a	FR1	2	R1200T
3103.717	0.016	1383207	START	n/a	n/a	n/a	-999	24	[-999, -999, -999]	n/a	FR1	2	R1200T
3103.733	5.084	1383223	PROB	5.084	n/a	n/a	-999	24	[4, 6, 2]	12	FR1	2	R1200T
3108.817	3.884	1388307	PROB	3.884	n/a	n/a	-999	24	[1, 2, 8]	11	FR1	2	R1200T
3112.701	2.801	1392190	PROB	2.801	n/a	n/a	-999	24	[1, 4, 8]	13	FR1	2	R1200T
3115.502	3.867	1394991	PROB	3.867	n/a	n/a	-999	24	[8, 8, 3]	19	FR1	2	R1200T
3119.369	4.535	1398858	PROB	4.535	n/a	n/a	-999	24	[9, 4, 7]	20	FR1	2	R1200T
3123.904	0.016	1403393	STOP	n/a	n/a	n/a	-999	24	[-999, -999, -999]	n/a	FR1	2	R1200T
3123.92	0.533	1403409	DISTRACT_END	n/a	n/a	n/a	-999	24	[0, 0, 0]	n/a	FR1	2	R1200T
3124.453	0.517	1403942	RETRIEVAL_ORIENT	n/a	n/a	n/a	-999	24	[0, 0, 0]	n/a	FR1	2	R1200T
3124.97	1.678	1404459	REC_START	n/a	n/a	n/a	-999	24	[0, 0, 0]	n/a	FR1	2	R1200T
3126.648	1.101	1406137	REC_WORD	1.101	n/a	CAVE	1	24	[0, 0, 0]	n/a	FR1	2	R1200T
3127.749	1.0	1407237	REC_WORD	1.0	n/a	GOLD	2	24	[0, 0, 0]	n/a	FR1	2	R1200T
3128.749	1.082	1408237	REC_WORD	1.082	n/a	JEEP	3	24	[0, 0, 0]	n/a	FR1	2	R1200T
3129.831	2.083	1409319	REC_WORD	2.083	n/a	WHALE	5	24	[0, 0, 0]	n/a	FR1	2	R1200T
3131.914	23.064	1411402	REC_WORD	23.064	n/a	SKY	-999	24	[0, 0, 0]	n/a	FR1	2	R1200T
3154.978	30.837	1434465	REC_END	n/a	n/a	n/a	-999	24	[0, 0, 0]	n/a	FR1	2	R1200T
3185.815	0.5	1465300	TRIAL	n/a	n/a	n/a	-999	25	[0, 0, 0]	n/a	FR1	2	R1200T
3186.315	10.428	1465800	COUNTDOWN_START	n/a	n/a	n/a	-999	25	[0, 0, 0]	n/a	FR1	2	R1200T
3196.743	0.007	1476227	COUNTDOWN_END	n/a	n/a	n/a	-999	25	[0, 0, 0]	n/a	FR1	2	R1200T
3196.75	1.617	1476234	ORIENT	n/a	n/a	n/a	-999	25	[0, 0, 0]	n/a	FR1	2	R1200T
3198.367	2.183	1477851	ORIENT_OFF	n/a	n/a	n/a	-999	25	[0, 0, 0]	n/a	FR1	2	R1200T
3200.55	1.617	1480034	WORD	n/a	wordpools/wordpool_EN.txt	HILL	1	25	[0, 0, 0]	n/a	FR1	2	R1200T
3202.167	0.816	1481651	WORD_OFF	n/a	n/a	HILL	1	25	[0, 0, 0]	n/a	FR1	2	R1200T
3202.983	1.618	1482467	WORD	n/a	wordpools/wordpool_EN.txt	NOSE	2	25	[0, 0, 0]	n/a	FR1	2	R1200T
3204.601	0.867	1484085	WORD_OFF	n/a	n/a	NOSE	2	25	[0, 0, 0]	n/a	FR1	2	R1200T
3205.468	1.616	1484952	WORD	n/a	wordpools/wordpool_EN.txt	FLAME	3	25	[0, 0, 0]	n/a	FR1	2	R1200T
3207.084	0.967	1486568	WORD_OFF	n/a	n/a	FLAME	3	25	[0, 0, 0]	n/a	FR1	2	R1200T
3208.051	1.618	1487535	WORD	n/a	wordpools/wordpool_EN.txt	HAT	4	25	[0, 0, 0]	n/a	FR1	2	R1200T
3209.669	0.917	1489153	WORD_OFF	n/a	n/a	HAT	4	25	[0, 0, 0]	n/a	FR1	2	R1200T
3210.586	1.616	1490070	WORD	n/a	wordpools/wordpool_EN.txt	ROAD	5	25	[0, 0, 0]	n/a	FR1	2	R1200T
3212.202	0.933	1491685	WORD_OFF	n/a	n/a	ROAD	5	25	[0, 0, 0]	n/a	FR1	2	R1200T
3213.135	1.618	1492618	WORD	n/a	wordpools/wordpool_EN.txt	SWORD	6	25	[0, 0, 0]	n/a	FR1	2	R1200T
3214.753	0.867	1494236	WORD_OFF	n/a	n/a	SWORD	6	25	[0, 0, 0]	n/a	FR1	2	R1200T
3215.62	1.616	1495103	WORD	n/a	wordpools/wordpool_EN.txt	VEST	7	25	[0, 0, 0]	n/a	FR1	2	R1200T
3217.236	0.983	1496719	WORD_OFF	n/a	n/a	VEST	7	25	[0, 0, 0]	n/a	FR1	2	R1200T
3218.219	1.618	1497702	WORD	n/a	wordpools/wordpool_EN.txt	RIB	8	25	[0, 0, 0]	n/a	FR1	2	R1200T
3219.837	0.8	1499320	WORD_OFF	n/a	n/a	RIB	8	25	[0, 0, 0]	n/a	FR1	2	R1200T
3220.637	1.616	1500120	WORD	n/a	wordpools/wordpool_EN.txt	FENCE	9	25	[0, 0, 0]	n/a	FR1	2	R1200T
3222.253	0.817	1501736	WORD_OFF	n/a	n/a	FENCE	9	25	[0, 0, 0]	n/a	FR1	2	R1200T
3223.07	1.618	1502553	WORD	n/a	wordpools/wordpool_EN.txt	MAZE	10	25	[0, 0, 0]	n/a	FR1	2	R1200T
3224.688	1.017	1504171	WORD_OFF	n/a	n/a	MAZE	10	25	[0, 0, 0]	n/a	FR1	2	R1200T
3225.705	1.616	1505188	WORD	n/a	wordpools/wordpool_EN.txt	GUARD	11	25	[0, 0, 0]	n/a	FR1	2	R1200T
3227.321	0.9	1506804	WORD_OFF	n/a	n/a	GUARD	11	25	[0, 0, 0]	n/a	FR1	2	R1200T
3228.221	1.601	1507703	WORD	n/a	wordpools/wordpool_EN.txt	HORN	12	25	[0, 0, 0]	n/a	FR1	2	R1200T
3229.822	0.0	1509304	WORD_OFF	n/a	n/a	HORN	12	25	[0, 0, 0]	n/a	FR1	2	R1200T
3229.822	0.001	1509304	DISTRACT_START	n/a	n/a	n/a	-999	25	[0, 0, 0]	n/a	FR1	2	R1200T
3229.823	0.016	1509305	START	n/a	n/a	n/a	-999	25	[-999, -999, -999]	n/a	FR1	2	R1200T
3229.839	7.785	1509321	PROB	7.785	n/a	n/a	-999	25	[3, 2, 2]	7	FR1	2	R1200T
3237.624	3.784	1517106	PROB	3.784	n/a	n/a	-999	25	[4, 2, 2]	8	FR1	2	R1200T
3241.408	3.284	1520890	PROB	3.284	n/a	n/a	-999	25	[1, 2, 6]	9	FR1	2	R1200T
3244.692	5.164	1524173	PROB	5.164	n/a	n/a	-999	25	[1, 6, 9]	16	FR1	2	R1200T
3249.856	0.02	1529337	STOP	n/a	n/a	n/a	-999	25	[-999, -999, -999]	n/a	FR1	2	R1200T
3249.876	0.667	1529357	DISTRACT_END	n/a	n/a	n/a	-999	25	[0, 0, 0]	n/a	FR1	2	R1200T
3250.543	0.516	1530024	RETRIEVAL_ORIENT	n/a	n/a	n/a	-999	25	[0, 0, 0]	n/a	FR1	2	R1200T
3251.059	1.255	1530540	REC_START	n/a	n/a	n/a	-999	25	[0, 0, 0]	n/a	FR1	2	R1200T
3252.314	1.212	1531795	REC_WORD	1.212	n/a	RIB	8	25	[0, 0, 0]	n/a	FR1	2	R1200T
3253.526	3.24	1533007	REC_WORD	3.24	n/a	MAZE	10	25	[0, 0, 0]	n/a	FR1	2	R1200T
3256.766	1.211	1536247	REC_WORD_VV	1.211	n/a	<>	-999	25	[0, 0, 0]	n/a	FR1	2	R1200T
3257.977	23.092	1537458	REC_WORD_VV	23.092	n/a	<>	-999	25	[0, 0, 0]	n/a	FR1	2	R1200T
3281.069	0.0	1560548	REC_END	n/a	n/a	n/a	-999	25	[0, 0, 0]	n/a	FR1	2	R1200T
