onset	duration	sample	trial_type	response_time	stim_file	item_name	serialpos	list	test	answer	experiment	session	subject
0.0	174.754	43372	SESS_START	n/a	n/a	n/a	-999	-999	[0, 0, 0]	n/a	FR1	0	R1031M
174.754	10.428	130740	COUNTDOWN_START	n/a	n/a	n/a	-999	-999	[0, 0, 0]	n/a	FR1	0	R1031M
185.182	3.525	135954	COUNTDOWN_END	n/a	n/a	n/a	-999	-999	[0, 0, 0]	n/a	FR1	0	R1031M
188.707	2.584	137716	PRACTICE_WORD	n/a	n/a	TONGUE	1	-1	[0, 0, 0]	n/a	FR1	0	R1031M
191.291	2.417	139008	PRACTICE_WORD	n/a	n/a	IRON	2	-1	[0, 0, 0]	n/a	FR1	0	R1031M
193.708	2.567	140216	PRACTICE_WORD	n/a	n/a	RHINO	3	-1	[0, 0, 0]	n/a	FR1	0	R1031M
196.275	2.467	141500	PRACTICE_WORD	n/a	n/a	WATCH	4	-1	[0, 0, 0]	n/a	FR1	0	R1031M
198.742	2.484	142733	PRACTICE_WORD	n/a	n/a	WAGON	5	-1	[0, 0, 0]	n/a	FR1	0	R1031M
201.226	2.534	143975	PRACTICE_WORD	n/a	n/a	CHEST	6	-1	[0, 0, 0]	n/a	FR1	0	R1031M
203.76	2.55	145242	PRACTICE_WORD	n/a	n/a	FLOOD	7	-1	[0, 0, 0]	n/a	FR1	0	R1031M
206.31	2.601	146517	PRACTICE_WORD	n/a	n/a	RING	8	-1	[0, 0, 0]	n/a	FR1	0	R1031M
208.911	2.6	147817	PRACTICE_WORD	n/a	n/a	BEAM	9	-1	[0, 0, 0]	n/a	FR1	0	R1031M
211.511	2.534	149117	PRACTICE_WORD	n/a	n/a	ATTIC	10	-1	[0, 0, 0]	n/a	FR1	0	R1031M
214.045	2.417	150384	PRACTICE_WORD	n/a	n/a	COTTON	11	-1	[0, 0, 0]	n/a	FR1	0	R1031M
216.462	1.617	151592	PRACTICE_WORD	n/a	n/a	CAMEL	12	-1	[0, 0, 0]	n/a	FR1	0	R1031M
218.079	0.001	152401	PRACTICE_DISTRACT_START	n/a	n/a	n/a	-999	-1	[0, 0, 0]	n/a	FR1	0	R1031M
218.08	0.016	152401	START	n/a	n/a	n/a	-999	-1	[-999, -999, -999]	n/a	FR1	0	R1031M
218.096	5.818	152409	PROB	5.818	n/a	n/a	-999	-1	[7, 1, 5]	13	FR1	0	R1031M
223.914	3.35	155318	PROB	3.35	n/a	n/a	-999	-1	[7, 1, 7]	15	FR1	0	R1031M
227.264	3.568	156993	PROB	3.568	n/a	n/a	-999	-1	[7, 2, 7]	16	FR1	0	R1031M
230.832	3.267	158776	PROB	3.267	n/a	n/a	-999	-1	[2, 1, 8]	11	FR1	0	R1031M
234.099	3.317	160410	PROB	3.317	n/a	n/a	-999	-1	[8, 5, 4]	17	FR1	0	R1031M
237.416	3.511	162068	PROB	3.511	n/a	n/a	-999	-1	[9, 2, 8]	19	FR1	0	R1031M
240.927	0.007	163823	STOP	n/a	n/a	n/a	-999	-1	[-999, -999, -999]	n/a	FR1	0	R1031M
240.934	0.519	163827	PRACTICE_DISTRACT_END	n/a	n/a	n/a	-999	-1	[0, 0, 0]	n/a	FR1	0	R1031M
241.453	30.514	164086	PRACTICE_REC_START	n/a	n/a	n/a	-999	-1	[0, 0, 0]	n/a	FR1	0	R1031M
271.967	7.374	179342	PRACTICE_REC_END	n/a	n/a	n/a	-999	-1	[0, 0, 0]	n/a	FR1	0	R1031M
279.341	0.0	183028	TRIAL	n/a	n/a	n/a	-999	1	[0, 0, 0]	n/a	FR1	0	R1031M
279.341	10.428	183028	COUNTDOWN_START	n/a	n/a	n/a	-999	1	[0, 0, 0]	n/a	FR1	0	R1031M
289.769	0.008	188242	COUNTDOWN_END	n/a	n/a	n/a	-999	1	[0, 0, 0]	n/a	FR1	0	R1031M
289.777	2.567	188246	ORIENT	n/a	n/a	n/a	-999	1	[0, 0, 0]	n/a	FR1	0	R1031M
292.344	2.5	189529	WORD	n/a	wordpools/wordpool_EN.txt	ANT	1	1	[0, 0, 0]	n/a	FR1	0	R1031M
294.844	2.467	190779	WORD	n/a	wordpools/wordpool_EN.txt	RAT	2	1	[0, 0, 0]	n/a	FR1	0	R1031M
297.311	2.534	192013	WORD	n/a	wordpools/wordpool_EN.txt	PEAR	3	1	[0, 0, 0]	n/a	FR1	0	R1031M
299.845	2.551	193279	WORD	n/a	wordpools/wordpool_EN.txt	BRANCH	4	1	[0, 0, 0]	n/a	FR1	0	R1031M
302.396	2.383	194555	WORD	n/a	wordpools/wordpool_EN.txt	CAVE	5	1	[0, 0, 0]	n/a	FR1	0	R1031M
304.779	2.618	195746	WORD	n/a	wordpools/wordpool_EN.txt	MOLE	6	1	[0, 0, 0]	n/a	FR1	0	R1031M
307.397	2.467	197055	WORD	n/a	wordpools/wordpool_EN.txt	HEART	7	1	[0, 0, 0]	n/a	FR1	0	R1031M
309.864	2.6	198288	WORD	n/a	wordpools/wordpool_EN.txt	SLIME	8	1	[0, 0, 0]	n/a	FR1	0	R1031M
312.464	2.434	199588	WORD	n/a	wordpools/wordpool_EN.txt	FOOD	9	1	[0, 0, 0]	n/a	FR1	0	R1031M
314.898	2.534	200805	WORD	n/a	wordpools/wordpool_EN.txt	BEE	10	1	[0, 0, 0]	n/a	FR1	0	R1031M
317.432	2.584	202072	WORD	n/a	wordpools/wordpool_EN.txt	BED	11	1	[0, 0, 0]	n/a	FR1	0	R1031M
320.016	1.617	203364	WORD	n/a	wordpools/wordpool_EN.txt	PLANT	12	1	[0, 0, 0]	n/a	FR1	0	R1031M
321.633	0.001	204172	DISTRACT_START	n/a	n/a	n/a	-999	1	[0, 0, 0]	n/a	FR1	0	R1031M
321.634	0.015	204173	START	n/a	n/a	n/a	-999	1	[-999, -999, -999]	n/a	FR1	0	R1031M
321.649	3.568	204180	PROB	3.568	n/a	n/a	-999	1	[4, 7, 3]	14	FR1	0	R1031M
325.217	3.967	205964	PROB	3.967	n/a	n/a	-999	1	[1, 3, 5]	9	FR1	0	R1031M
329.184	3.351	207947	PROB	3.351	n/a	n/a	-999	1	[6, 8, 2]	16	FR1	0	R1031M
332.535	4.317	209623	PROB	4.317	n/a	n/a	-999	1	[9, 9, 7]	25	FR1	0	R1031M
336.852	3.234	211781	PROB	3.234	n/a	n/a	-999	1	[3, 7, 9]	19	FR1	0	R1031M
340.086	3.289	213398	PROB	3.289	n/a	n/a	-999	1	[2, 1, 6]	9	FR1	0	R1031M
343.375	0.012	215042	STOP	n/a	n/a	n/a	-999	1	[-999, -999, -999]	n/a	FR1	0	R1031M
343.387	1.134	215048	DISTRACT_END	n/a	n/a	n/a	-999	1	[0, 0, 0]	n/a	FR1	0	R1031M
344.521	2.096	215615	REC_START	n/a	n/a	n/a	-999	1	[0, 0, 0]	n/a	FR1	0	R1031M
346.617	1.421	216663	REC_WORD	1.421	n/a	ANT	-999	1	[0, 0, 0]	n/a	FR1	0	R1031M
348.038	8.791	217373	REC_WORD	8.791	n/a	RAT	-999	1	[0, 0, 0]	n/a	FR1	0	R1031M
356.829	17.702	221768	REC_WORD	17.702	n/a	PEAR	-999	1	[0, 0, 0]	n/a	FR1	0	R1031M
374.531	7.047	230619	REC_END	n/a	n/a	n/a	-999	1	[0, 0, 0]	n/a	FR1	0	R1031M
381.578	0.0	234142	TRIAL	n/a	n/a	n/a	-999	2	[0, 0, 0]	n/a	FR1	0	R1031M
381.578	10.428	234142	COUNTDOWN_START	n/a	n/a	n/a	-999	2	[0, 0, 0]	n/a	FR1	0	R1031M
392.006	0.007	239355	COUNTDOWN_END	n/a	n/a	n/a	-999	2	[0, 0, 0]	n/a	FR1	0	R1031M
392.013	2.467	239359	ORIENT	n/a	n/a	n/a	-999	2	[0, 0, 0]	n/a	FR1	0	R1031M
394.48	2.384	240592	WORD	n/a	wordpools/wordpool_EN.txt	CLAY	1	2	[0, 0, 0]	n/a	FR1	0	R1031M
396.864	2.534	241784	WORD	n/a	wordpools/wordpool_EN.txt	INK	2	2	[0, 0, 0]	n/a	FR1	0	R1031M
399.398	2.584	243051	WORD	n/a	wordpools/wordpool_EN.txt	CHIN	3	2	[0, 0, 0]	n/a	FR1	0	R1031M
401.982	2.567	244343	WORD	n/a	wordpools/wordpool_EN.txt	BANK	4	2	[0, 0, 0]	n/a	FR1	0	R1031M
404.549	2.434	245626	WORD	n/a	wordpools/wordpool_EN.txt	PEACH	5	2	[0, 0, 0]	n/a	FR1	0	R1031M
406.983	2.467	246843	WORD	n/a	wordpools/wordpool_EN.txt	STOOL	6	2	[0, 0, 0]	n/a	FR1	0	R1031M
409.45	2.534	248076	WORD	n/a	wordpools/wordpool_EN.txt	BENCH	7	2	[0, 0, 0]	n/a	FR1	0	R1031M
411.984	2.583	249343	WORD	n/a	wordpools/wordpool_EN.txt	THREAD	8	2	[0, 0, 0]	n/a	FR1	0	R1031M
414.567	2.518	250634	WORD	n/a	wordpools/wordpool_EN.txt	LAMP	9	2	[0, 0, 0]	n/a	FR1	0	R1031M
417.085	2.566	251893	WORD	n/a	wordpools/wordpool_EN.txt	SOAP	10	2	[0, 0, 0]	n/a	FR1	0	R1031M
419.651	2.568	253176	WORD	n/a	wordpools/wordpool_EN.txt	FLUTE	11	2	[0, 0, 0]	n/a	FR1	0	R1031M
422.219	1.617	254460	WORD	n/a	wordpools/wordpool_EN.txt	PASTE	12	2	[0, 0, 0]	n/a	FR1	0	R1031M
423.836	0.001	255269	DISTRACT_START	n/a	n/a	n/a	-999	2	[0, 0, 0]	n/a	FR1	0	R1031M
423.837	0.015	255269	START	n/a	n/a	n/a	-999	2	[-999, -999, -999]	n/a	FR1	0	R1031M
423.852	4.185	255277	PROB	4.185	n/a	n/a	-999	2	[6, 3, 8]	17	FR1	0	R1031M
428.037	3.649	257369	PROB	3.649	n/a	n/a	-999	2	[3, 6, 9]	18	FR1	0	R1031M
431.686	3.285	259193	PROB	3.285	n/a	n/a	-999	2	[9, 3, 9]	21	FR1	0	R1031M
434.971	3.951	260835	PROB	3.951	n/a	n/a	-999	2	[9, 5, 7]	21	FR1	0	R1031M
438.922	2.766	262811	PROB	2.766	n/a	n/a	-999	2	[3, 4, 2]	9	FR1	0	R1031M
441.688	3.487	264194	PROB	3.487	n/a	n/a	-999	2	[8, 2, 4]	14	FR1	0	R1031M
445.175	0.015	265937	STOP	n/a	n/a	n/a	-999	2	[-999, -999, -999]	n/a	FR1	0	R1031M
445.19	1.084	265944	DISTRACT_END	n/a	n/a	n/a	-999	2	[0, 0, 0]	n/a	FR1	0	R1031M
446.274	7.812	266486	REC_START	n/a	n/a	n/a	-999	2	[0, 0, 0]	n/a	FR1	0	R1031M
454.086	5.584	270392	REC_WORD	5.584	n/a	CLAY	-999	2	[0, 0, 0]	n/a	FR1	0	R1031M
459.67	3.583	273184	REC_WORD	3.583	n/a	PEAR	-999	2	[0, 0, 0]	n/a	FR1	0	R1031M
463.253	13.035	274975	REC_WORD	13.035	n/a	STOOL	-999	2	[0, 0, 0]	n/a	FR1	0	R1031M
476.288	3.842	281492	REC_END	n/a	n/a	n/a	-999	2	[0, 0, 0]	n/a	FR1	0	R1031M
480.13	0.0	283413	TRIAL	n/a	n/a	n/a	-999	3	[0, 0, 0]	n/a	FR1	0	R1031M
480.13	10.428	283413	COUNTDOWN_START	n/a	n/a	n/a	-999	3	[0, 0, 0]	n/a	FR1	0	R1031M
490.558	0.008	288626	COUNTDOWN_END	n/a	n/a	n/a	-999	3	[0, 0, 0]	n/a	FR1	0	R1031M
490.566	2.533	288630	ORIENT	n/a	n/a	n/a	-999	3	[0, 0, 0]	n/a	FR1	0	R1031M
493.099	2.484	289896	WORD	n/a	wordpools/wordpool_EN.txt	SEAT	1	3	[0, 0, 0]	n/a	FR1	0	R1031M
495.583	2.601	291138	WORD	n/a	wordpools/wordpool_EN.txt	ROOF	2	3	[0, 0, 0]	n/a	FR1	0	R1031M
498.184	2.417	292439	WORD	n/a	wordpools/wordpool_EN.txt	HAND	3	3	[0, 0, 0]	n/a	FR1	0	R1031M
500.601	2.434	293647	WORD	n/a	wordpools/wordpool_EN.txt	BADGE	4	3	[0, 0, 0]	n/a	FR1	0	R1031M
503.035	2.55	294864	WORD	n/a	wordpools/wordpool_EN.txt	DIME	5	3	[0, 0, 0]	n/a	FR1	0	R1031M
505.585	2.551	296139	WORD	n/a	wordpools/wordpool_EN.txt	MAT	6	3	[0, 0, 0]	n/a	FR1	0	R1031M
508.136	2.567	297414	WORD	n/a	wordpools/wordpool_EN.txt	STICK	7	3	[0, 0, 0]	n/a	FR1	0	R1031M
510.703	2.417	298698	WORD	n/a	wordpools/wordpool_EN.txt	KITE	8	3	[0, 0, 0]	n/a	FR1	0	R1031M
513.12	2.6	299906	WORD	n/a	wordpools/wordpool_EN.txt	SMILE	9	3	[0, 0, 0]	n/a	FR1	0	R1031M
515.72	2.418	301206	WORD	n/a	wordpools/wordpool_EN.txt	SCHOOL	10	3	[0, 0, 0]	n/a	FR1	0	R1031M
518.138	2.6	302415	WORD	n/a	wordpools/wordpool_EN.txt	CANE	11	3	[0, 0, 0]	n/a	FR1	0	R1031M
520.738	1.617	303715	WORD	n/a	wordpools/wordpool_EN.txt	COUCH	12	3	[0, 0, 0]	n/a	FR1	0	R1031M
522.355	0.001	304523	DISTRACT_START	n/a	n/a	n/a	-999	3	[0, 0, 0]	n/a	FR1	0	R1031M
522.356	0.016	304523	START	n/a	n/a	n/a	-999	3	[-999, -999, -999]	n/a	FR1	0	R1031M
522.372	3.7	304531	PROB	3.7	n/a	n/a	-999	3	[1, 1, 2]	4	FR1	0	R1031M
526.072	4.968	306381	PROB	4.968	n/a	n/a	-999	3	[8, 8, 9]	25	FR1	0	R1031M
531.04	4.868	308865	PROB	4.868	n/a	n/a	-999	3	[4, 4, 8]	16	FR1	0	R1031M
535.908	3.567	311299	PROB	3.567	n/a	n/a	-999	3	[4, 4, 5]	13	FR1	0	R1031M
539.475	3.292	313082	PROB	3.292	n/a	n/a	-999	3	[4, 9, 7]	20	FR1	0	R1031M
542.767	0.009	314728	STOP	n/a	n/a	n/a	-999	3	[-999, -999, -999]	n/a	FR1	0	R1031M
542.776	1.15	314732	DISTRACT_END	n/a	n/a	n/a	-999	3	[0, 0, 0]	n/a	FR1	0	R1031M
543.926	1.436	315307	REC_START	n/a	n/a	n/a	-999	3	[0, 0, 0]	n/a	FR1	0	R1031M
545.362	2.601	316025	REC_WORD	2.601	n/a	SEAT	-999	3	[0, 0, 0]	n/a	FR1	0	R1031M
547.963	2.311	317326	REC_WORD	2.311	n/a	COUCH	-999	3	[0, 0, 0]	n/a	FR1	0	R1031M
550.274	3.755	318481	REC_WORD	3.755	n/a	ROOF	-999	3	[0, 0, 0]	n/a	FR1	0	R1031M
554.029	6.92	320358	REC_WORD	6.92	n/a	SMILE	-999	3	[0, 0, 0]	n/a	FR1	0	R1031M
560.949	12.991	323818	REC_WORD	12.991	n/a	MAT	-999	3	[0, 0, 0]	n/a	FR1	0	R1031M
573.94	2.992	330313	REC_END	n/a	n/a	n/a	-999	3	[0, 0, 0]	n/a	FR1	0	R1031M
576.932	0.0	331809	COUNTDOWN_START	n/a	n/a	n/a	-999	4	[0, 0, 0]	n/a	FR1	0	R1031M
576.932	10.428	331809	TRIAL	n/a	n/a	n/a	-999	4	[0, 0, 0]	n/a	FR1	0	R1031M
587.36	0.008	337022	COUNTDOWN_END	n/a	n/a	n/a	-999	4	[0, 0, 0]	n/a	FR1	0	R1031M
587.368	2.583	337026	ORIENT	n/a	n/a	n/a	-999	4	[0, 0, 0]	n/a	FR1	0	R1031M
589.951	2.401	338317	WORD	n/a	wordpools/wordpool_EN.txt	GLASS	1	4	[0, 0, 0]	n/a	FR1	0	R1031M
592.352	2.45	339518	WORD	n/a	wordpools/wordpool_EN.txt	FOG	2	4	[0, 0, 0]	n/a	FR1	0	R1031M
594.802	2.618	340743	WORD	n/a	wordpools/wordpool_EN.txt	TRAY	3	4	[0, 0, 0]	n/a	FR1	0	R1031M
597.42	2.483	342052	WORD	n/a	wordpools/wordpool_EN.txt	FUDGE	4	4	[0, 0, 0]	n/a	FR1	0	R1031M
599.903	2.517	343293	WORD	n/a	wordpools/wordpool_EN.txt	STEAM	5	4	[0, 0, 0]	n/a	FR1	0	R1031M
602.42	2.551	344551	WORD	n/a	wordpools/wordpool_EN.txt	JET	6	4	[0, 0, 0]	n/a	FR1	0	R1031M
604.971	2.434	345827	WORD	n/a	wordpools/wordpool_EN.txt	LAND	7	4	[0, 0, 0]	n/a	FR1	0	R1031M
607.405	2.567	347044	WORD	n/a	wordpools/wordpool_EN.txt	SALT	8	4	[0, 0, 0]	n/a	FR1	0	R1031M
609.972	2.5	348327	WORD	n/a	wordpools/wordpool_EN.txt	FLAME	9	4	[0, 0, 0]	n/a	FR1	0	R1031M
612.472	2.468	349577	WORD	n/a	wordpools/wordpool_EN.txt	CLOUD	10	4	[0, 0, 0]	n/a	FR1	0	R1031M
614.94	2.517	350811	WORD	n/a	wordpools/wordpool_EN.txt	SHIP	11	4	[0, 0, 0]	n/a	FR1	0	R1031M
617.457	1.616	352069	WORD	n/a	wordpools/wordpool_EN.txt	SPONGE	12	4	[0, 0, 0]	n/a	FR1	0	R1031M
619.073	0.001	352877	DISTRACT_START	n/a	n/a	n/a	-999	4	[0, 0, 0]	n/a	FR1	0	R1031M
619.074	0.016	352877	START	n/a	n/a	n/a	-999	4	[-999, -999, -999]	n/a	FR1	0	R1031M
619.09	5.635	352885	PROB	5.635	n/a	n/a	-999	4	[7, 5, 4]	16	FR1	0	R1031M
624.725	4.667	355703	PROB	4.667	n/a	n/a	-999	4	[5, 7, 4]	16	FR1	0	R1031M
629.392	3.434	358036	PROB	3.434	n/a	n/a	-999	4	[7, 8, 8]	23	FR1	0	R1031M
632.826	3.101	359753	PROB	3.101	n/a	n/a	-999	4	[6, 6, 3]	15	FR1	0	R1031M
635.927	3.776	361303	PROB	3.776	n/a	n/a	-999	4	[3, 3, 8]	14	FR1	0	R1031M
639.703	0.008	363191	STOP	n/a	n/a	n/a	-999	4	[-999, -999, -999]	n/a	FR1	0	R1031M
639.711	1.134	363195	DISTRACT_END	n/a	n/a	n/a	-999	4	[0, 0, 0]	n/a	FR1	0	R1031M
640.845	2.142	363762	REC_START	n/a	n/a	n/a	-999	4	[0, 0, 0]	n/a	FR1	0	R1031M
642.987	3.959	364833	REC_WORD	3.959	n/a	SPONGE	-999	4	[0, 0, 0]	n/a	FR1	0	R1031M
646.946	2.686	366812	REC_WORD	2.686	n/a	GLASS	-999	4	[0, 0, 0]	n/a	FR1	0	R1031M
649.632	2.69	368155	REC_WORD	2.69	n/a	JET	-999	4	[0, 0, 0]	n/a	FR1	0	R1031M
652.322	3.14	369500	REC_WORD	3.14	n/a	TRAY	-999	4	[0, 0, 0]	n/a	FR1	0	R1031M
655.462	6.831	371070	REC_WORD	6.831	n/a	FUDGE	-999	4	[0, 0, 0]	n/a	FR1	0	R1031M
662.293	4.855	374485	REC_WORD	4.855	n/a	LAND	-999	4	[0, 0, 0]	n/a	FR1	0	R1031M
667.148	1.778	376912	REC_WORD	1.778	n/a	FOG	-999	4	[0, 0, 0]	n/a	FR1	0	R1031M
668.926	1.933	377801	REC_WORD	1.933	n/a	CLOUD	-999	4	[0, 0, 0]	n/a	FR1	0	R1031M
670.859	3.759	378767	REC_END	n/a	n/a	n/a	-999	4	[0, 0, 0]	n/a	FR1	0	R1031M
674.618	0.0	380647	TRIAL	n/a	n/a	n/a	-999	5	[0, 0, 0]	n/a	FR1	0	R1031M
674.618	10.428	380647	COUNTDOWN_START	n/a	n/a	n/a	-999	5	[0, 0, 0]	n/a	FR1	0	R1031M
685.046	0.007	385860	COUNTDOWN_END	n/a	n/a	n/a	-999	5	[0, 0, 0]	n/a	FR1	0	R1031M
685.053	2.6	385864	ORIENT	n/a	n/a	n/a	-999	5	[0, 0, 0]	n/a	FR1	0	R1031M
687.653	2.535	387163	WORD	n/a	wordpools/wordpool_EN.txt	NET	1	5	[0, 0, 0]	n/a	FR1	0	R1031M
690.188	2.383	388431	WORD	n/a	wordpools/wordpool_EN.txt	MILK	2	5	[0, 0, 0]	n/a	FR1	0	R1031M
692.571	2.517	389622	WORD	n/a	wordpools/wordpool_EN.txt	CASH	3	5	[0, 0, 0]	n/a	FR1	0	R1031M
695.088	2.618	390881	WORD	n/a	wordpools/wordpool_EN.txt	GOLD	4	5	[0, 0, 0]	n/a	FR1	0	R1031M
697.706	2.483	392189	WORD	n/a	wordpools/wordpool_EN.txt	STEAK	5	5	[0, 0, 0]	n/a	FR1	0	R1031M
700.189	2.568	393431	WORD	n/a	wordpools/wordpool_EN.txt	GRAPE	6	5	[0, 0, 0]	n/a	FR1	0	R1031M
702.757	2.45	394715	WORD	n/a	wordpools/wordpool_EN.txt	CORN	7	5	[0, 0, 0]	n/a	FR1	0	R1031M
705.207	2.417	395940	WORD	n/a	wordpools/wordpool_EN.txt	CLOTH	8	5	[0, 0, 0]	n/a	FR1	0	R1031M
707.624	2.401	397148	WORD	n/a	wordpools/wordpool_EN.txt	FILM	9	5	[0, 0, 0]	n/a	FR1	0	R1031M
710.025	2.5	398348	WORD	n/a	wordpools/wordpool_EN.txt	PIG	10	5	[0, 0, 0]	n/a	FR1	0	R1031M
712.525	2.551	399598	WORD	n/a	wordpools/wordpool_EN.txt	BEAK	11	5	[0, 0, 0]	n/a	FR1	0	R1031M
715.076	1.616	400874	WORD	n/a	wordpools/wordpool_EN.txt	PEARL	12	5	[0, 0, 0]	n/a	FR1	0	R1031M
716.692	0.001	401681	DISTRACT_START	n/a	n/a	n/a	-999	5	[0, 0, 0]	n/a	FR1	0	R1031M
716.693	0.016	401682	START	n/a	n/a	n/a	-999	5	[-999, -999, -999]	n/a	FR1	0	R1031M
716.709	3.534	401690	PROB	3.534	n/a	n/a	-999	5	[2, 8, 5]	15	FR1	0	R1031M
720.243	3.584	403457	PROB	3.584	n/a	n/a	-999	5	[9, 9, 9]	27	FR1	0	R1031M
723.827	3.751	405249	PROB	3.751	n/a	n/a	-999	5	[4, 7, 7]	18	FR1	0	R1031M
727.578	3.267	407124	PROB	3.267	n/a	n/a	-999	5	[9, 7, 7]	23	FR1	0	R1031M
730.845	3.118	408757	PROB	3.118	n/a	n/a	-999	5	[7, 5, 5]	17	FR1	0	R1031M
733.963	2.964	410316	PROB	2.964	n/a	n/a	-999	5	[4, 3, 5]	12	FR1	0	R1031M
736.927	0.02	411798	STOP	n/a	n/a	n/a	-999	5	[-999, -999, -999]	n/a	FR1	0	R1031M
736.947	1.051	411808	DISTRACT_END	n/a	n/a	n/a	-999	5	[0, 0, 0]	n/a	FR1	0	R1031M
737.998	3.854	412333	REC_START	n/a	n/a	n/a	-999	5	[0, 0, 0]	n/a	FR1	0	R1031M
741.852	26.156	414260	REC_WORD_VV	26.156	n/a	<>	-999	5	[0, 0, 0]	n/a	FR1	0	R1031M
768.008	25.733	427337	REC_END	n/a	n/a	n/a	-999	5	[0, 0, 0]	n/a	FR1	0	R1031M
793.741	0.0	440202	TRIAL	n/a	n/a	n/a	-999	6	[0, 0, 0]	n/a	FR1	0	R1031M
793.741	10.428	440202	COUNTDOWN_START	n/a	n/a	n/a	-999	6	[0, 0, 0]	n/a	FR1	0	R1031M
804.169	0.007	445415	COUNTDOWN_END	n/a	n/a	n/a	-999	6	[0, 0, 0]	n/a	FR1	0	R1031M
804.176	2.434	445419	ORIENT	n/a	n/a	n/a	-999	6	[0, 0, 0]	n/a	FR1	0	R1031M
806.61	2.401	446636	WORD	n/a	wordpools/wordpool_EN.txt	TANK	1	6	[0, 0, 0]	n/a	FR1	0	R1031M
809.011	2.383	447836	WORD	n/a	wordpools/wordpool_EN.txt	HOSE	2	6	[0, 0, 0]	n/a	FR1	0	R1031M
811.394	2.568	449028	WORD	n/a	wordpools/wordpool_EN.txt	BOMB	3	6	[0, 0, 0]	n/a	FR1	0	R1031M
813.962	2.4	450311	WORD	n/a	wordpools/wordpool_EN.txt	COIN	4	6	[0, 0, 0]	n/a	FR1	0	R1031M
816.362	2.401	451511	WORD	n/a	wordpools/wordpool_EN.txt	PLANE	5	6	[0, 0, 0]	n/a	FR1	0	R1031M
818.763	2.55	452712	WORD	n/a	wordpools/wordpool_EN.txt	BRICK	6	6	[0, 0, 0]	n/a	FR1	0	R1031M
821.313	2.417	453987	WORD	n/a	wordpools/wordpool_EN.txt	PLATE	7	6	[0, 0, 0]	n/a	FR1	0	R1031M
823.73	2.534	455195	WORD	n/a	wordpools/wordpool_EN.txt	SQUARE	8	6	[0, 0, 0]	n/a	FR1	0	R1031M
826.264	2.416	456462	WORD	n/a	wordpools/wordpool_EN.txt	MOON	9	6	[0, 0, 0]	n/a	FR1	0	R1031M
828.68	2.485	457670	WORD	n/a	wordpools/wordpool_EN.txt	SHEET	10	6	[0, 0, 0]	n/a	FR1	0	R1031M
831.165	2.434	458912	WORD	n/a	wordpools/wordpool_EN.txt	ARK	11	6	[0, 0, 0]	n/a	FR1	0	R1031M
833.599	1.617	460129	WORD	n/a	wordpools/wordpool_EN.txt	TRAIN	12	6	[0, 0, 0]	n/a	FR1	0	R1031M
835.216	0.0	460937	DISTRACT_START	n/a	n/a	n/a	-999	6	[0, 0, 0]	n/a	FR1	0	R1031M
835.216	0.016	460937	START	n/a	n/a	n/a	-999	6	[-999, -999, -999]	n/a	FR1	0	R1031M
835.232	3.918	460945	PROB	3.918	n/a	n/a	-999	6	[3, 6, 6]	15	FR1	0	R1031M
839.15	2.85	462904	PROB	2.85	n/a	n/a	-999	6	[8, 1, 2]	11	FR1	0	R1031M
842.0	3.051	464329	PROB	3.051	n/a	n/a	-999	6	[8, 6, 9]	23	FR1	0	R1031M
845.051	5.901	465854	PROB	5.901	n/a	n/a	-999	6	[8, 9, 7]	24	FR1	0	R1031M
850.952	4.839	468805	PROB	4.839	n/a	n/a	-999	6	[6, 9, 7]	22	FR1	0	R1031M
855.791	0.012	471224	STOP	n/a	n/a	n/a	-999	6	[-999, -999, -999]	n/a	FR1	0	R1031M
855.803	1.068	471230	DISTRACT_END	n/a	n/a	n/a	-999	6	[0, 0, 0]	n/a	FR1	0	R1031M
856.871	1.52	471764	REC_START	n/a	n/a	n/a	-999	6	[0, 0, 0]	n/a	FR1	0	R1031M
858.391	1.88	472524	REC_WORD	1.88	n/a	ARK	-999	6	[0, 0, 0]	n/a	FR1	0	R1031M
860.271	12.028	473464	REC_WORD	12.028	n/a	TRAIN	-999	6	[0, 0, 0]	n/a	FR1	0	R1031M
872.299	14.582	479477	REC_WORD	14.582	n/a	SHEET	-999	6	[0, 0, 0]	n/a	FR1	0	R1031M
886.881	2.629	486767	REC_END	n/a	n/a	n/a	-999	6	[0, 0, 0]	n/a	FR1	0	R1031M
889.51	0.0	488082	TRIAL	n/a	n/a	n/a	-999	7	[0, 0, 0]	n/a	FR1	0	R1031M
889.51	10.428	488082	COUNTDOWN_START	n/a	n/a	n/a	-999	7	[0, 0, 0]	n/a	FR1	0	R1031M
899.938	0.007	493295	COUNTDOWN_END	n/a	n/a	n/a	-999	7	[0, 0, 0]	n/a	FR1	0	R1031M
899.945	2.434	493299	ORIENT	n/a	n/a	n/a	-999	7	[0, 0, 0]	n/a	FR1	0	R1031M
902.379	2.45	494515	WORD	n/a	wordpools/wordpool_EN.txt	GLOVE	1	7	[0, 0, 0]	n/a	FR1	0	R1031M
904.829	2.434	495740	WORD	n/a	wordpools/wordpool_EN.txt	PIPE	2	7	[0, 0, 0]	n/a	FR1	0	R1031M
907.263	2.4	496957	WORD	n/a	wordpools/wordpool_EN.txt	FAN	3	7	[0, 0, 0]	n/a	FR1	0	R1031M
909.663	2.568	498157	WORD	n/a	wordpools/wordpool_EN.txt	PURSE	4	7	[0, 0, 0]	n/a	FR1	0	R1031M
912.231	2.617	499441	WORD	n/a	wordpools/wordpool_EN.txt	BAND	5	7	[0, 0, 0]	n/a	FR1	0	R1031M
914.848	2.384	500749	WORD	n/a	wordpools/wordpool_EN.txt	PIN	6	7	[0, 0, 0]	n/a	FR1	0	R1031M
917.232	2.417	501941	WORD	n/a	wordpools/wordpool_EN.txt	WAND	7	7	[0, 0, 0]	n/a	FR1	0	R1031M
919.649	2.5	503150	WORD	n/a	wordpools/wordpool_EN.txt	TOOL	8	7	[0, 0, 0]	n/a	FR1	0	R1031M
922.149	2.484	504399	WORD	n/a	wordpools/wordpool_EN.txt	THUMB	9	7	[0, 0, 0]	n/a	FR1	0	R1031M
924.633	2.501	505641	WORD	n/a	wordpools/wordpool_EN.txt	YARD	10	7	[0, 0, 0]	n/a	FR1	0	R1031M
927.134	2.467	506892	WORD	n/a	wordpools/wordpool_EN.txt	VEST	11	7	[0, 0, 0]	n/a	FR1	0	R1031M
929.601	1.617	508125	WORD	n/a	wordpools/wordpool_EN.txt	DESK	12	7	[0, 0, 0]	n/a	FR1	0	R1031M
931.218	0.001	508933	DISTRACT_START	n/a	n/a	n/a	-999	7	[0, 0, 0]	n/a	FR1	0	R1031M
931.219	0.015	508934	START	n/a	n/a	n/a	-999	7	[-999, -999, -999]	n/a	FR1	0	R1031M
931.234	4.118	508941	PROB	4.118	n/a	n/a	-999	7	[9, 3, 8]	20	FR1	0	R1031M
935.352	3.017	511000	PROB	3.017	n/a	n/a	-999	7	[3, 4, 3]	10	FR1	0	R1031M
938.369	3.151	512509	PROB	3.151	n/a	n/a	-999	7	[1, 8, 9]	18	FR1	0	R1031M
941.52	2.834	514084	PROB	2.834	n/a	n/a	-999	7	[3, 4, 3]	10	FR1	0	R1031M
944.354	2.867	515501	PROB	2.867	n/a	n/a	-999	7	[5, 2, 3]	10	FR1	0	R1031M
947.221	3.384	516934	PROB	3.384	n/a	n/a	-999	7	[5, 5, 4]	14	FR1	0	R1031M
950.605	2.986	518626	PROB	2.986	n/a	n/a	-999	7	[6, 9, 3]	18	FR1	0	R1031M
953.591	0.014	520119	STOP	n/a	n/a	n/a	-999	7	[-999, -999, -999]	n/a	FR1	0	R1031M
953.605	1.118	520126	DISTRACT_END	n/a	n/a	n/a	-999	7	[0, 0, 0]	n/a	FR1	0	R1031M
954.723	2.05	520685	REC_START	n/a	n/a	n/a	-999	7	[0, 0, 0]	n/a	FR1	0	R1031M
956.773	2.361	521710	REC_WORD	2.361	n/a	WAND	-999	7	[0, 0, 0]	n/a	FR1	0	R1031M
959.134	25.598	522890	REC_WORD	25.598	n/a	GLOVE	-999	7	[0, 0, 0]	n/a	FR1	0	R1031M
984.732	3.397	535688	REC_END	n/a	n/a	n/a	-999	7	[0, 0, 0]	n/a	FR1	0	R1031M
988.129	0.0	537386	TRIAL	n/a	n/a	n/a	-999	8	[0, 0, 0]	n/a	FR1	0	R1031M
988.129	10.428	537386	COUNTDOWN_START	n/a	n/a	n/a	-999	8	[0, 0, 0]	n/a	FR1	0	R1031M
998.557	0.007	542600	COUNTDOWN_END	n/a	n/a	n/a	-999	8	[0, 0, 0]	n/a	FR1	0	R1031M
998.564	2.451	542603	ORIENT	n/a	n/a	n/a	-999	8	[0, 0, 0]	n/a	FR1	0	R1031M
1001.015	2.4	543828	WORD	n/a	wordpools/wordpool_EN.txt	BRUSH	1	8	[0, 0, 0]	n/a	FR1	0	R1031M
1003.415	2.584	545028	WORD	n/a	wordpools/wordpool_EN.txt	MUD	2	8	[0, 0, 0]	n/a	FR1	0	R1031M
1005.999	2.4	546320	WORD	n/a	wordpools/wordpool_EN.txt	PHONE	3	8	[0, 0, 0]	n/a	FR1	0	R1031M
1008.399	2.484	547520	WORD	n/a	wordpools/wordpool_EN.txt	CHALK	4	8	[0, 0, 0]	n/a	FR1	0	R1031M
1010.883	2.384	548762	WORD	n/a	wordpools/wordpool_EN.txt	SMOKE	5	8	[0, 0, 0]	n/a	FR1	0	R1031M
1013.267	2.584	549954	WORD	n/a	wordpools/wordpool_EN.txt	BATH	6	8	[0, 0, 0]	n/a	FR1	0	R1031M
1015.851	2.434	551246	WORD	n/a	wordpools/wordpool_EN.txt	FOAM	7	8	[0, 0, 0]	n/a	FR1	0	R1031M
1018.285	2.533	552463	WORD	n/a	wordpools/wordpool_EN.txt	FROG	8	8	[0, 0, 0]	n/a	FR1	0	R1031M
1020.818	2.451	553729	WORD	n/a	wordpools/wordpool_EN.txt	STRING	9	8	[0, 0, 0]	n/a	FR1	0	R1031M
1023.269	2.6	554954	WORD	n/a	wordpools/wordpool_EN.txt	BOARD	10	8	[0, 0, 0]	n/a	FR1	0	R1031M
1025.869	2.451	556254	WORD	n/a	wordpools/wordpool_EN.txt	PIE	11	8	[0, 0, 0]	n/a	FR1	0	R1031M
1028.32	1.617	557479	WORD	n/a	wordpools/wordpool_EN.txt	TOOTH	12	8	[0, 0, 0]	n/a	FR1	0	R1031M
1029.937	0.001	558288	DISTRACT_START	n/a	n/a	n/a	-999	8	[0, 0, 0]	n/a	FR1	0	R1031M
1029.938	0.016	558288	START	n/a	n/a	n/a	-999	8	[-999, -999, -999]	n/a	FR1	0	R1031M
1029.954	3.667	558296	PROB	3.667	n/a	n/a	-999	8	[2, 6, 8]	16	FR1	0	R1031M
1033.621	3.101	560130	PROB	3.101	n/a	n/a	-999	8	[7, 5, 3]	15	FR1	0	R1031M
1036.722	2.567	561680	PROB	2.567	n/a	n/a	-999	8	[5, 1, 2]	8	FR1	0	R1031M
1039.289	3.834	562963	PROB	3.834	n/a	n/a	-999	8	[5, 1, 7]	13	FR1	0	R1031M
1043.123	3.3	564880	PROB	3.3	n/a	n/a	-999	8	[5, 8, 5]	18	FR1	0	R1031M
1046.423	4.048	566530	PROB	4.048	n/a	n/a	-999	8	[8, 8, 9]	25	FR1	0	R1031M
1050.471	0.02	568554	STOP	n/a	n/a	n/a	-999	8	[-999, -999, -999]	n/a	FR1	0	R1031M
1050.491	1.151	568564	DISTRACT_END	n/a	n/a	n/a	-999	8	[0, 0, 0]	n/a	FR1	0	R1031M
1051.642	6.273	569139	REC_START	n/a	n/a	n/a	-999	8	[0, 0, 0]	n/a	FR1	0	R1031M
1057.915	7.072	572275	REC_WORD	7.072	n/a	FROG	-999	8	[0, 0, 0]	n/a	FR1	0	R1031M
1064.987	11.539	575811	REC_WORD	11.539	n/a	WAND	-999	8	[0, 0, 0]	n/a	FR1	0	R1031M
1076.526	5.125	581580	REC_WORD	5.125	n/a	FOAM	-999	8	[0, 0, 0]	n/a	FR1	0	R1031M
1081.651	7.714	584142	REC_END	n/a	n/a	n/a	-999	8	[0, 0, 0]	n/a	FR1	0	R1031M
1089.365	0.0	587999	TRIAL	n/a	n/a	n/a	-999	9	[0, 0, 0]	n/a	FR1	0	R1031M
1089.365	10.428	587999	COUNTDOWN_START	n/a	n/a	n/a	-999	9	[0, 0, 0]	n/a	FR1	0	R1031M
1099.793	0.008	593212	COUNTDOWN_END	n/a	n/a	n/a	-999	9	[0, 0, 0]	n/a	FR1	0	R1031M
1099.801	2.467	593216	ORIENT	n/a	n/a	n/a	-999	9	[0, 0, 0]	n/a	FR1	0	R1031M
1102.268	2.467	594450	WORD	n/a	wordpools/wordpool_EN.txt	FORT	1	9	[0, 0, 0]	n/a	FR1	0	R1031M
1104.735	2.567	595683	WORD	n/a	wordpools/wordpool_EN.txt	ZOO	2	9	[0, 0, 0]	n/a	FR1	0	R1031M
1107.302	2.434	596966	WORD	n/a	wordpools/wordpool_EN.txt	SHARK	3	9	[0, 0, 0]	n/a	FR1	0	R1031M
1109.736	2.417	598183	WORD	n/a	wordpools/wordpool_EN.txt	ROCK	4	9	[0, 0, 0]	n/a	FR1	0	R1031M
1112.153	2.499	599392	WORD	n/a	wordpools/wordpool_EN.txt	SAIL	5	9	[0, 0, 0]	n/a	FR1	0	R1031M
1114.652	2.435	600641	WORD	n/a	wordpools/wordpool_EN.txt	BEACH	6	9	[0, 0, 0]	n/a	FR1	0	R1031M
1117.087	2.484	601858	WORD	n/a	wordpools/wordpool_EN.txt	FLAG	7	9	[0, 0, 0]	n/a	FR1	0	R1031M
1119.571	2.484	603100	WORD	n/a	wordpools/wordpool_EN.txt	FUR	8	9	[0, 0, 0]	n/a	FR1	0	R1031M
1122.055	2.484	604342	WORD	n/a	wordpools/wordpool_EN.txt	DOG	9	9	[0, 0, 0]	n/a	FR1	0	R1031M
1124.539	2.45	605584	WORD	n/a	wordpools/wordpool_EN.txt	FLEA	10	9	[0, 0, 0]	n/a	FR1	0	R1031M
1126.989	2.401	606809	WORD	n/a	wordpools/wordpool_EN.txt	JAIL	11	9	[0, 0, 0]	n/a	FR1	0	R1031M
1129.39	1.617	608009	WORD	n/a	wordpools/wordpool_EN.txt	TRASH	12	9	[0, 0, 0]	n/a	FR1	0	R1031M
1131.007	0.001	608818	DISTRACT_START	n/a	n/a	n/a	-999	9	[0, 0, 0]	n/a	FR1	0	R1031M
1131.008	0.015	608818	START	n/a	n/a	n/a	-999	9	[-999, -999, -999]	n/a	FR1	0	R1031M
1131.023	4.318	608826	PROB	4.318	n/a	n/a	-999	9	[6, 8, 3]	17	FR1	0	R1031M
1135.341	2.984	610984	PROB	2.984	n/a	n/a	-999	9	[8, 6, 9]	23	FR1	0	R1031M
1138.325	3.2	612476	PROB	3.2	n/a	n/a	-999	9	[4, 6, 9]	19	FR1	0	R1031M
1141.525	3.133	614076	PROB	3.133	n/a	n/a	-999	9	[2, 5, 7]	14	FR1	0	R1031M
1144.658	4.302	615643	PROB	4.302	n/a	n/a	-999	9	[3, 3, 7]	13	FR1	0	R1031M
1148.96	3.407	617793	PROB	3.407	n/a	n/a	-999	9	[9, 6, 5]	20	FR1	0	R1031M
1152.367	0.01	619497	STOP	n/a	n/a	n/a	-999	9	[-999, -999, -999]	n/a	FR1	0	R1031M
1152.377	1.118	619502	DISTRACT_END	n/a	n/a	n/a	-999	9	[0, 0, 0]	n/a	FR1	0	R1031M
1153.495	1.833	620061	REC_START	n/a	n/a	n/a	-999	9	[0, 0, 0]	n/a	FR1	0	R1031M
1155.328	1.392	620977	REC_WORD	1.392	n/a	DOG	-999	9	[0, 0, 0]	n/a	FR1	0	R1031M
1156.72	26.786	621673	REC_WORD	26.786	n/a	FLEA	-999	9	[0, 0, 0]	n/a	FR1	0	R1031M
1183.506	4.312	635065	REC_END	n/a	n/a	n/a	-999	9	[0, 0, 0]	n/a	FR1	0	R1031M
1187.818	0.0	637220	COUNTDOWN_START	n/a	n/a	n/a	-999	10	[0, 0, 0]	n/a	FR1	0	R1031M
1187.818	10.428	637220	TRIAL	n/a	n/a	n/a	-999	10	[0, 0, 0]	n/a	FR1	0	R1031M
1198.246	0.007	642434	COUNTDOWN_END	n/a	n/a	n/a	-999	10	[0, 0, 0]	n/a	FR1	0	R1031M
1198.253	2.617	642437	ORIENT	n/a	n/a	n/a	-999	10	[0, 0, 0]	n/a	FR1	0	R1031M
1200.87	2.5	643746	WORD	n/a	wordpools/wordpool_EN.txt	ROOT	1	10	[0, 0, 0]	n/a	FR1	0	R1031M
1203.37	2.618	644996	WORD	n/a	wordpools/wordpool_EN.txt	TREE	2	10	[0, 0, 0]	n/a	FR1	0	R1031M
1205.988	2.6	646304	WORD	n/a	wordpools/wordpool_EN.txt	POOL	3	10	[0, 0, 0]	n/a	FR1	0	R1031M
1208.588	2.501	647604	WORD	n/a	wordpools/wordpool_EN.txt	DART	4	10	[0, 0, 0]	n/a	FR1	0	R1031M
1211.089	2.55	648855	WORD	n/a	wordpools/wordpool_EN.txt	RICE	5	10	[0, 0, 0]	n/a	FR1	0	R1031M
1213.639	2.517	650129	WORD	n/a	wordpools/wordpool_EN.txt	LEAF	6	10	[0, 0, 0]	n/a	FR1	0	R1031M
1216.156	2.418	651388	WORD	n/a	wordpools/wordpool_EN.txt	OAK	7	10	[0, 0, 0]	n/a	FR1	0	R1031M
1218.574	2.433	652597	WORD	n/a	wordpools/wordpool_EN.txt	STEM	8	10	[0, 0, 0]	n/a	FR1	0	R1031M
1221.007	2.468	653813	WORD	n/a	wordpools/wordpool_EN.txt	SEED	9	10	[0, 0, 0]	n/a	FR1	0	R1031M
1223.475	2.5	655047	WORD	n/a	wordpools/wordpool_EN.txt	LAMB	10	10	[0, 0, 0]	n/a	FR1	0	R1031M
1225.975	2.484	656297	WORD	n/a	wordpools/wordpool_EN.txt	MUG	11	10	[0, 0, 0]	n/a	FR1	0	R1031M
1228.459	1.617	657539	WORD	n/a	wordpools/wordpool_EN.txt	TEA	12	10	[0, 0, 0]	n/a	FR1	0	R1031M
1230.076	0.001	658347	DISTRACT_START	n/a	n/a	n/a	-999	10	[0, 0, 0]	n/a	FR1	0	R1031M
1230.077	0.015	658348	START	n/a	n/a	n/a	-999	10	[-999, -999, -999]	n/a	FR1	0	R1031M
1230.092	5.202	658355	PROB	5.202	n/a	n/a	-999	10	[7, 5, 4]	16	FR1	0	R1031M
1235.294	3.784	660956	PROB	3.784	n/a	n/a	-999	10	[5, 9, 3]	17	FR1	0	R1031M
1239.078	3.117	662848	PROB	3.117	n/a	n/a	-999	10	[9, 1, 3]	13	FR1	0	R1031M
1242.195	2.917	664406	PROB	2.917	n/a	n/a	-999	10	[7, 4, 5]	16	FR1	0	R1031M
1245.112	3.017	665864	PROB	3.017	n/a	n/a	-999	10	[5, 7, 3]	15	FR1	0	R1031M
1248.129	4.078	667373	PROB	4.078	n/a	n/a	-999	10	[5, 2, 9]	16	FR1	0	R1031M
1252.207	0.007	669411	STOP	n/a	n/a	n/a	-999	10	[-999, -999, -999]	n/a	FR1	0	R1031M
1252.214	1.167	669415	DISTRACT_END	n/a	n/a	n/a	-999	10	[0, 0, 0]	n/a	FR1	0	R1031M
1253.381	2.727	669998	REC_START	n/a	n/a	n/a	-999	10	[0, 0, 0]	n/a	FR1	0	R1031M
1256.108	1.284	671362	REC_WORD	1.284	n/a	ROOT	-999	10	[0, 0, 0]	n/a	FR1	0	R1031M
1257.392	3.018	672004	REC_WORD	3.018	n/a	TREE	-999	10	[0, 0, 0]	n/a	FR1	0	R1031M
1260.41	1.76	673513	REC_WORD	1.76	n/a	LEAF	-999	10	[0, 0, 0]	n/a	FR1	0	R1031M
1262.17	2.805	674392	REC_WORD	2.805	n/a	STEM	-999	10	[0, 0, 0]	n/a	FR1	0	R1031M
1264.975	9.554	675795	REC_WORD	9.554	n/a	POOL	-999	10	[0, 0, 0]	n/a	FR1	0	R1031M
1274.529	8.862	680571	REC_WORD	8.862	n/a	OAK	-999	10	[0, 0, 0]	n/a	FR1	0	R1031M
1283.391	3.346	685002	REC_END	n/a	n/a	n/a	-999	10	[0, 0, 0]	n/a	FR1	0	R1031M
1286.737	0.0	686675	TRIAL	n/a	n/a	n/a	-999	11	[0, 0, 0]	n/a	FR1	0	R1031M
1286.737	10.428	686675	COUNTDOWN_START	n/a	n/a	n/a	-999	11	[0, 0, 0]	n/a	FR1	0	R1031M
1297.165	0.007	691888	COUNTDOWN_END	n/a	n/a	n/a	-999	11	[0, 0, 0]	n/a	FR1	0	R1031M
1297.172	2.467	691892	ORIENT	n/a	n/a	n/a	-999	11	[0, 0, 0]	n/a	FR1	0	R1031M
1299.639	2.601	693125	WORD	n/a	wordpools/wordpool_EN.txt	MOUTH	1	11	[0, 0, 0]	n/a	FR1	0	R1031M
1302.24	2.517	694425	WORD	n/a	wordpools/wordpool_EN.txt	ROSE	2	11	[0, 0, 0]	n/a	FR1	0	R1031M
1304.757	2.567	695684	WORD	n/a	wordpools/wordpool_EN.txt	FLOOR	3	11	[0, 0, 0]	n/a	FR1	0	R1031M
1307.324	2.567	696967	WORD	n/a	wordpools/wordpool_EN.txt	PARK	4	11	[0, 0, 0]	n/a	FR1	0	R1031M
1309.891	2.551	698251	WORD	n/a	wordpools/wordpool_EN.txt	SHOE	5	11	[0, 0, 0]	n/a	FR1	0	R1031M
1312.442	2.567	699526	WORD	n/a	wordpools/wordpool_EN.txt	BOOT	6	11	[0, 0, 0]	n/a	FR1	0	R1031M
1315.009	2.45	700809	WORD	n/a	wordpools/wordpool_EN.txt	CLOWN	7	11	[0, 0, 0]	n/a	FR1	0	R1031M
1317.459	2.468	702034	WORD	n/a	wordpools/wordpool_EN.txt	SUIT	8	11	[0, 0, 0]	n/a	FR1	0	R1031M
1319.927	2.583	703268	WORD	n/a	wordpools/wordpool_EN.txt	CAPE	9	11	[0, 0, 0]	n/a	FR1	0	R1031M
1322.51	2.518	704559	WORD	n/a	wordpools/wordpool_EN.txt	JUICE	10	11	[0, 0, 0]	n/a	FR1	0	R1031M
1325.028	2.617	705818	WORD	n/a	wordpools/wordpool_EN.txt	WORLD	11	11	[0, 0, 0]	n/a	FR1	0	R1031M
1327.645	1.617	707127	WORD	n/a	wordpools/wordpool_EN.txt	BAG	12	11	[0, 0, 0]	n/a	FR1	0	R1031M
1329.262	0.0	707935	DISTRACT_START	n/a	n/a	n/a	-999	11	[0, 0, 0]	n/a	FR1	0	R1031M
1329.262	0.017	707935	START	n/a	n/a	n/a	-999	11	[-999, -999, -999]	n/a	FR1	0	R1031M
1329.279	4.167	707944	PROB	4.167	n/a	n/a	-999	11	[1, 8, 9]	18	FR1	0	R1031M
1333.446	3.134	710027	PROB	3.134	n/a	n/a	-999	11	[4, 5, 3]	12	FR1	0	R1031M
1336.58	3.067	711594	PROB	3.067	n/a	n/a	-999	11	[6, 9, 3]	18	FR1	0	R1031M
1339.647	3.468	713127	PROB	3.468	n/a	n/a	-999	11	[6, 8, 1]	15	FR1	0	R1031M
1343.115	2.967	714861	PROB	2.967	n/a	n/a	-999	11	[4, 2, 2]	8	FR1	0	R1031M
1346.082	2.917	716344	PROB	2.917	n/a	n/a	-999	11	[9, 1, 8]	18	FR1	0	R1031M
1348.999	2.856	717803	PROB	2.856	n/a	n/a	-999	11	[7, 8, 8]	23	FR1	0	R1031M
1351.855	0.011	719230	STOP	n/a	n/a	n/a	-999	11	[-999, -999, -999]	n/a	FR1	0	R1031M
1351.866	1.101	719236	DISTRACT_END	n/a	n/a	n/a	-999	11	[0, 0, 0]	n/a	FR1	0	R1031M
1352.967	1.732	719786	REC_START	n/a	n/a	n/a	-999	11	[0, 0, 0]	n/a	FR1	0	R1031M
1354.699	1.867	720652	REC_WORD	1.867	n/a	SHOE	-999	11	[0, 0, 0]	n/a	FR1	0	R1031M
1356.566	3.657	721586	REC_WORD	3.657	n/a	BOOT	-999	11	[0, 0, 0]	n/a	FR1	0	R1031M
1360.223	22.752	723414	REC_WORD	22.752	n/a	FLOOR	-999	11	[0, 0, 0]	n/a	FR1	0	R1031M
1382.975	3.048	734789	REC_END	n/a	n/a	n/a	-999	11	[0, 0, 0]	n/a	FR1	0	R1031M
1386.023	0.0	736313	TRIAL	n/a	n/a	n/a	-999	12	[0, 0, 0]	n/a	FR1	0	R1031M
1386.023	10.428	736313	COUNTDOWN_START	n/a	n/a	n/a	-999	12	[0, 0, 0]	n/a	FR1	0	R1031M
1396.451	0.007	741526	COUNTDOWN_END	n/a	n/a	n/a	-999	12	[0, 0, 0]	n/a	FR1	0	R1031M
1396.458	2.567	741530	ORIENT	n/a	n/a	n/a	-999	12	[0, 0, 0]	n/a	FR1	0	R1031M
1399.025	2.534	742813	WORD	n/a	wordpools/wordpool_EN.txt	POLE	1	12	[0, 0, 0]	n/a	FR1	0	R1031M
1401.559	2.517	744080	WORD	n/a	wordpools/wordpool_EN.txt	HORSE	2	12	[0, 0, 0]	n/a	FR1	0	R1031M
1404.076	2.517	745338	WORD	n/a	wordpools/wordpool_EN.txt	BALL	3	12	[0, 0, 0]	n/a	FR1	0	R1031M
1406.593	2.584	746597	WORD	n/a	wordpools/wordpool_EN.txt	APE	4	12	[0, 0, 0]	n/a	FR1	0	R1031M
1409.177	2.534	747888	WORD	n/a	wordpools/wordpool_EN.txt	CORD	5	12	[0, 0, 0]	n/a	FR1	0	R1031M
1411.711	2.5	749155	WORD	n/a	wordpools/wordpool_EN.txt	MAP	6	12	[0, 0, 0]	n/a	FR1	0	R1031M
1414.211	2.518	750405	WORD	n/a	wordpools/wordpool_EN.txt	MAIL	7	12	[0, 0, 0]	n/a	FR1	0	R1031M
1416.729	2.5	751664	WORD	n/a	wordpools/wordpool_EN.txt	TOAD	8	12	[0, 0, 0]	n/a	FR1	0	R1031M
1419.229	2.501	752914	WORD	n/a	wordpools/wordpool_EN.txt	TEETH	9	12	[0, 0, 0]	n/a	FR1	0	R1031M
1421.73	2.567	754164	WORD	n/a	wordpools/wordpool_EN.txt	BEAR	10	12	[0, 0, 0]	n/a	FR1	0	R1031M
1424.297	2.417	755448	WORD	n/a	wordpools/wordpool_EN.txt	CAT	11	12	[0, 0, 0]	n/a	FR1	0	R1031M
1426.714	1.617	756656	WORD	n/a	wordpools/wordpool_EN.txt	JUDGE	12	12	[0, 0, 0]	n/a	FR1	0	R1031M
1428.331	0.001	757464	DISTRACT_START	n/a	n/a	n/a	-999	12	[0, 0, 0]	n/a	FR1	0	R1031M
1428.332	0.016	757465	START	n/a	n/a	n/a	-999	12	[-999, -999, -999]	n/a	FR1	0	R1031M
1428.348	3.017	757473	PROB	3.017	n/a	n/a	-999	12	[3, 2, 6]	11	FR1	0	R1031M
1431.365	3.067	758981	PROB	3.067	n/a	n/a	-999	12	[4, 4, 9]	17	FR1	0	R1031M
1434.432	2.818	760515	PROB	2.818	n/a	n/a	-999	12	[3, 7, 9]	19	FR1	0	R1031M
1437.25	2.95	761924	PROB	2.95	n/a	n/a	-999	12	[8, 5, 8]	21	FR1	0	R1031M
1440.2	3.284	763398	PROB	3.284	n/a	n/a	-999	12	[3, 3, 6]	12	FR1	0	R1031M
1443.484	2.651	765040	PROB	2.651	n/a	n/a	-999	12	[1, 2, 1]	4	FR1	0	R1031M
1446.135	2.64	766366	PROB	2.64	n/a	n/a	-999	12	[6, 1, 1]	8	FR1	0	R1031M
1448.775	0.01	767685	STOP	n/a	n/a	n/a	-999	12	[-999, -999, -999]	n/a	FR1	0	R1031M
1448.785	1.118	767690	DISTRACT_END	n/a	n/a	n/a	-999	12	[0, 0, 0]	n/a	FR1	0	R1031M
1449.903	1.546	768249	REC_START	n/a	n/a	n/a	-999	12	[0, 0, 0]	n/a	FR1	0	R1031M
1451.449	1.42	769022	REC_WORD	1.42	n/a	HORSE	-999	12	[0, 0, 0]	n/a	FR1	0	R1031M
1452.869	3.391	769732	REC_WORD	3.391	n/a	POLE	-999	12	[0, 0, 0]	n/a	FR1	0	R1031M
1456.26	9.606	771428	REC_WORD	9.606	n/a	TOAD	-999	12	[0, 0, 0]	n/a	FR1	0	R1031M
1465.866	14.047	776230	REC_WORD	14.047	n/a	TEETH	-999	12	[0, 0, 0]	n/a	FR1	0	R1031M
1479.913	2.862	783253	REC_END	n/a	n/a	n/a	-999	12	[0, 0, 0]	n/a	FR1	0	R1031M
1482.775	0.0	784684	TRIAL	n/a	n/a	n/a	-999	13	[0, 0, 0]	n/a	FR1	0	R1031M
1482.775	10.428	784684	COUNTDOWN_START	n/a	n/a	n/a	-999	13	[0, 0, 0]	n/a	FR1	0	R1031M
1493.203	0.007	789897	COUNTDOWN_END	n/a	n/a	n/a	-999	13	[0, 0, 0]	n/a	FR1	0	R1031M
1493.21	2.434	789901	ORIENT	n/a	n/a	n/a	-999	13	[0, 0, 0]	n/a	FR1	0	R1031M
1495.644	2.551	791118	WORD	n/a	wordpools/wordpool_EN.txt	WORM	1	13	[0, 0, 0]	n/a	FR1	0	R1031M
1498.195	2.534	792393	WORD	n/a	wordpools/wordpool_EN.txt	EGG	2	13	[0, 0, 0]	n/a	FR1	0	R1031M
1500.729	2.517	793660	WORD	n/a	wordpools/wordpool_EN.txt	HOOK	3	13	[0, 0, 0]	n/a	FR1	0	R1031M
1503.246	2.584	794918	WORD	n/a	wordpools/wordpool_EN.txt	WING	4	13	[0, 0, 0]	n/a	FR1	0	R1031M
1505.83	2.45	796210	WORD	n/a	wordpools/wordpool_EN.txt	FISH	5	13	[0, 0, 0]	n/a	FR1	0	R1031M
1508.28	2.434	797435	WORD	n/a	wordpools/wordpool_EN.txt	STORM	6	13	[0, 0, 0]	n/a	FR1	0	R1031M
1510.714	2.4	798652	WORD	n/a	wordpools/wordpool_EN.txt	SEA	7	13	[0, 0, 0]	n/a	FR1	0	R1031M
1513.114	2.434	799852	WORD	n/a	wordpools/wordpool_EN.txt	WEB	8	13	[0, 0, 0]	n/a	FR1	0	R1031M
1515.548	2.634	801068	WORD	n/a	wordpools/wordpool_EN.txt	SHRIMP	9	13	[0, 0, 0]	n/a	FR1	0	R1031M
1518.182	2.499	802385	WORD	n/a	wordpools/wordpool_EN.txt	SHELL	10	13	[0, 0, 0]	n/a	FR1	0	R1031M
1520.681	2.502	803635	WORD	n/a	wordpools/wordpool_EN.txt	CUBE	11	13	[0, 0, 0]	n/a	FR1	0	R1031M
1523.183	1.617	804886	WORD	n/a	wordpools/wordpool_EN.txt	BOAT	12	13	[0, 0, 0]	n/a	FR1	0	R1031M
1524.8	0.001	805694	DISTRACT_START	n/a	n/a	n/a	-999	13	[0, 0, 0]	n/a	FR1	0	R1031M
1524.801	0.016	805695	START	n/a	n/a	n/a	-999	13	[-999, -999, -999]	n/a	FR1	0	R1031M
1524.817	3.849	805703	PROB	3.849	n/a	n/a	-999	13	[7, 3, 3]	13	FR1	0	R1031M
1528.666	2.835	807627	PROB	2.835	n/a	n/a	-999	13	[3, 5, 4]	12	FR1	0	R1031M
1531.501	2.817	809044	PROB	2.817	n/a	n/a	-999	13	[9, 9, 5]	23	FR1	0	R1031M
1534.318	3.135	810453	PROB	3.135	n/a	n/a	-999	13	[9, 5, 4]	18	FR1	0	R1031M
1537.453	3.4	812020	PROB	3.4	n/a	n/a	-999	13	[3, 1, 6]	10	FR1	0	R1031M
1540.853	2.434	813720	PROB	2.434	n/a	n/a	-999	13	[8, 2, 2]	12	FR1	0	R1031M
1543.287	3.056	814937	PROB	3.056	n/a	n/a	-999	13	[4, 3, 7]	14	FR1	0	R1031M
1546.343	0.011	816464	STOP	n/a	n/a	n/a	-999	13	[-999, -999, -999]	n/a	FR1	0	R1031M
1546.354	1.104	816470	DISTRACT_END	n/a	n/a	n/a	-999	13	[0, 0, 0]	n/a	FR1	0	R1031M
1547.458	1.774	817022	REC_START	n/a	n/a	n/a	-999	13	[0, 0, 0]	n/a	FR1	0	R1031M
1549.232	1.238	817909	REC_WORD	1.238	n/a	HOOK	-999	13	[0, 0, 0]	n/a	FR1	0	R1031M
1550.47	2.665	818528	REC_WORD	2.665	n/a	WORM	-999	13	[0, 0, 0]	n/a	FR1	0	R1031M
1553.135	4.914	819860	REC_WORD	4.914	n/a	FISH	-999	13	[0, 0, 0]	n/a	FR1	0	R1031M
1558.049	2.121	822317	REC_WORD	2.121	n/a	SEA	-999	13	[0, 0, 0]	n/a	FR1	0	R1031M
1560.17	6.401	823377	REC_WORD	6.401	n/a	SHIP	-999	13	[0, 0, 0]	n/a	FR1	0	R1031M
1566.571	8.372	826577	REC_WORD	8.372	n/a	STORM	-999	13	[0, 0, 0]	n/a	FR1	0	R1031M
1574.943	2.522	830763	REC_WORD	2.522	n/a	WORM	-999	13	[0, 0, 0]	n/a	FR1	0	R1031M
1577.465	5.363	832024	REC_END	n/a	n/a	n/a	-999	13	[0, 0, 0]	n/a	FR1	0	R1031M
1582.828	0.0	834705	TRIAL	n/a	n/a	n/a	-999	14	[0, 0, 0]	n/a	FR1	0	R1031M
1582.828	10.428	834705	COUNTDOWN_START	n/a	n/a	n/a	-999	14	[0, 0, 0]	n/a	FR1	0	R1031M
1593.256	0.007	839918	COUNTDOWN_END	n/a	n/a	n/a	-999	14	[0, 0, 0]	n/a	FR1	0	R1031M
1593.263	2.4	839922	ORIENT	n/a	n/a	n/a	-999	14	[0, 0, 0]	n/a	FR1	0	R1031M
1595.663	2.451	841122	WORD	n/a	wordpools/wordpool_EN.txt	NOSE	1	14	[0, 0, 0]	n/a	FR1	0	R1031M
1598.114	2.418	842347	WORD	n/a	wordpools/wordpool_EN.txt	TAIL	2	14	[0, 0, 0]	n/a	FR1	0	R1031M
1600.532	2.466	843556	WORD	n/a	wordpools/wordpool_EN.txt	PIT	3	14	[0, 0, 0]	n/a	FR1	0	R1031M
1602.998	2.384	844789	WORD	n/a	wordpools/wordpool_EN.txt	PRINCE	4	14	[0, 0, 0]	n/a	FR1	0	R1031M
1605.382	2.417	845981	WORD	n/a	wordpools/wordpool_EN.txt	MOUSE	5	14	[0, 0, 0]	n/a	FR1	0	R1031M
1607.799	2.584	847189	WORD	n/a	wordpools/wordpool_EN.txt	SHIELD	6	14	[0, 0, 0]	n/a	FR1	0	R1031M
1610.383	2.434	848481	WORD	n/a	wordpools/wordpool_EN.txt	ARM	7	14	[0, 0, 0]	n/a	FR1	0	R1031M
1612.817	2.567	849698	WORD	n/a	wordpools/wordpool_EN.txt	TOE	8	14	[0, 0, 0]	n/a	FR1	0	R1031M
1615.384	2.534	850981	WORD	n/a	wordpools/wordpool_EN.txt	WALL	9	14	[0, 0, 0]	n/a	FR1	0	R1031M
1617.918	2.55	852248	WORD	n/a	wordpools/wordpool_EN.txt	SPEAR	10	14	[0, 0, 0]	n/a	FR1	0	R1031M
1620.468	2.518	853523	WORD	n/a	wordpools/wordpool_EN.txt	HOOF	11	14	[0, 0, 0]	n/a	FR1	0	R1031M
1622.986	1.617	854782	WORD	n/a	wordpools/wordpool_EN.txt	LAWN	12	14	[0, 0, 0]	n/a	FR1	0	R1031M
1624.603	0.001	855590	DISTRACT_START	n/a	n/a	n/a	-999	14	[0, 0, 0]	n/a	FR1	0	R1031M
1624.604	0.015	855591	START	n/a	n/a	n/a	-999	14	[-999, -999, -999]	n/a	FR1	0	R1031M
1624.619	3.601	855598	PROB	3.601	n/a	n/a	-999	14	[2, 6, 7]	15	FR1	0	R1031M
1628.22	3.084	857399	PROB	3.084	n/a	n/a	-999	14	[5, 6, 8]	19	FR1	0	R1031M
1631.304	2.601	858941	PROB	2.601	n/a	n/a	-999	14	[1, 3, 1]	5	FR1	0	R1031M
1633.905	2.6	860241	PROB	2.6	n/a	n/a	-999	14	[3, 8, 1]	12	FR1	0	R1031M
1636.505	2.901	861541	PROB	2.901	n/a	n/a	-999	14	[5, 3, 8]	16	FR1	0	R1031M
1639.406	3.484	862991	PROB	3.484	n/a	n/a	-999	14	[9, 8, 5]	23	FR1	0	R1031M
1642.89	3.629	864733	PROB	3.629	n/a	n/a	-999	14	[8, 4, 7]	19	FR1	0	R1031M
1646.519	0.005	866547	STOP	n/a	n/a	n/a	-999	14	[-999, -999, -999]	n/a	FR1	0	R1031M
1646.524	1.133	866550	DISTRACT_END	n/a	n/a	n/a	-999	14	[0, 0, 0]	n/a	FR1	0	R1031M
1647.657	2.343	867116	REC_START	n/a	n/a	n/a	-999	14	[0, 0, 0]	n/a	FR1	0	R1031M
1650.0	1.691	868288	REC_WORD	1.691	n/a	WALL	-999	14	[0, 0, 0]	n/a	FR1	0	R1031M
1651.691	1.69	869133	REC_WORD	1.69	n/a	NOSE	-999	14	[0, 0, 0]	n/a	FR1	0	R1031M
1653.381	5.946	869978	REC_WORD	5.946	n/a	TAIL	-999	14	[0, 0, 0]	n/a	FR1	0	R1031M
1659.327	7.85	872951	REC_WORD	7.85	n/a	ARM	-999	14	[0, 0, 0]	n/a	FR1	0	R1031M
1667.177	3.121	876875	REC_WORD	3.121	n/a	PRINCE	-999	14	[0, 0, 0]	n/a	FR1	0	R1031M
1670.298	1.99	878436	REC_WORD	1.99	n/a	SPEAR	-999	14	[0, 0, 0]	n/a	FR1	0	R1031M
1672.288	5.38	879430	REC_WORD	5.38	n/a	SHIELD	-999	14	[0, 0, 0]	n/a	FR1	0	R1031M
1677.668	4.096	882120	REC_END	n/a	n/a	n/a	-999	14	[0, 0, 0]	n/a	FR1	0	R1031M
1681.764	0.0	884168	TRIAL	n/a	n/a	n/a	-999	15	[0, 0, 0]	n/a	FR1	0	R1031M
1681.764	10.428	884168	COUNTDOWN_START	n/a	n/a	n/a	-999	15	[0, 0, 0]	n/a	FR1	0	R1031M
1692.192	0.007	889381	COUNTDOWN_END	n/a	n/a	n/a	-999	15	[0, 0, 0]	n/a	FR1	0	R1031M
1692.199	2.45	889385	ORIENT	n/a	n/a	n/a	-999	15	[0, 0, 0]	n/a	FR1	0	R1031M
1694.649	2.401	890610	WORD	n/a	wordpools/wordpool_EN.txt	RAIN	1	15	[0, 0, 0]	n/a	FR1	0	R1031M
1697.05	2.517	891810	WORD	n/a	wordpools/wordpool_EN.txt	SKI	2	15	[0, 0, 0]	n/a	FR1	0	R1031M
1699.567	2.618	893069	WORD	n/a	wordpools/wordpool_EN.txt	DRUM	3	15	[0, 0, 0]	n/a	FR1	0	R1031M
1702.185	2.433	894377	WORD	n/a	wordpools/wordpool_EN.txt	CAR	4	15	[0, 0, 0]	n/a	FR1	0	R1031M
1704.618	2.434	895594	WORD	n/a	wordpools/wordpool_EN.txt	CROWN	5	15	[0, 0, 0]	n/a	FR1	0	R1031M
1707.052	2.534	896811	WORD	n/a	wordpools/wordpool_EN.txt	STAIR	6	15	[0, 0, 0]	n/a	FR1	0	R1031M
1709.586	2.517	898078	WORD	n/a	wordpools/wordpool_EN.txt	KEY	7	15	[0, 0, 0]	n/a	FR1	0	R1031M
1712.103	2.434	899336	WORD	n/a	wordpools/wordpool_EN.txt	DOOR	8	15	[0, 0, 0]	n/a	FR1	0	R1031M
1714.537	2.434	900553	WORD	n/a	wordpools/wordpool_EN.txt	CHIEF	9	15	[0, 0, 0]	n/a	FR1	0	R1031M
1716.971	2.534	901770	WORD	n/a	wordpools/wordpool_EN.txt	WAVE	10	15	[0, 0, 0]	n/a	FR1	0	R1031M
1719.505	2.617	903037	WORD	n/a	wordpools/wordpool_EN.txt	TOY	11	15	[0, 0, 0]	n/a	FR1	0	R1031M
1722.122	1.617	904345	WORD	n/a	wordpools/wordpool_EN.txt	BLOOM	12	15	[0, 0, 0]	n/a	FR1	0	R1031M
1723.739	0.001	905153	DISTRACT_START	n/a	n/a	n/a	-999	15	[0, 0, 0]	n/a	FR1	0	R1031M
1723.74	0.015	905154	START	n/a	n/a	n/a	-999	15	[-999, -999, -999]	n/a	FR1	0	R1031M
1723.755	3.984	905161	PROB	3.984	n/a	n/a	-999	15	[5, 9, 5]	19	FR1	0	R1031M
1727.739	3.251	907153	PROB	3.251	n/a	n/a	-999	15	[6, 9, 3]	18	FR1	0	R1031M
1730.99	2.7	908778	PROB	2.7	n/a	n/a	-999	15	[5, 8, 6]	19	FR1	0	R1031M
1733.69	3.168	910128	PROB	3.168	n/a	n/a	-999	15	[4, 7, 3]	14	FR1	0	R1031M
1736.858	2.634	911712	PROB	2.634	n/a	n/a	-999	15	[4, 5, 3]	12	FR1	0	R1031M
1739.492	2.9	913029	PROB	2.9	n/a	n/a	-999	15	[7, 7, 9]	23	FR1	0	R1031M
1742.392	2.383	914479	PROB	2.383	n/a	n/a	-999	15	[6, 4, 2]	12	FR1	0	R1031M
1744.775	0.018	915670	STOP	n/a	n/a	n/a	-999	15	[-999, -999, -999]	n/a	FR1	0	R1031M
1744.793	1.167	915679	DISTRACT_END	n/a	n/a	n/a	-999	15	[0, 0, 0]	n/a	FR1	0	R1031M
1745.96	2.927	916263	REC_START	n/a	n/a	n/a	-999	15	[0, 0, 0]	n/a	FR1	0	R1031M
1748.887	5.225	917726	REC_WORD	5.225	n/a	WAVE	-999	15	[0, 0, 0]	n/a	FR1	0	R1031M
1754.112	21.862	920338	REC_WORD	21.862	n/a	DOOR	-999	15	[0, 0, 0]	n/a	FR1	0	R1031M
1775.974	3.459	931268	REC_END	n/a	n/a	n/a	-999	15	[0, 0, 0]	n/a	FR1	0	R1031M
1779.433	0.0	932997	TRIAL	n/a	n/a	n/a	-999	16	[0, 0, 0]	n/a	FR1	0	R1031M
1779.433	10.428	932997	COUNTDOWN_START	n/a	n/a	n/a	-999	16	[0, 0, 0]	n/a	FR1	0	R1031M
1789.861	0.007	938211	COUNTDOWN_END	n/a	n/a	n/a	-999	16	[0, 0, 0]	n/a	FR1	0	R1031M
1789.868	2.417	938214	ORIENT	n/a	n/a	n/a	-999	16	[0, 0, 0]	n/a	FR1	0	R1031M
1792.285	2.451	939423	WORD	n/a	wordpools/wordpool_EN.txt	LIP	1	16	[0, 0, 0]	n/a	FR1	0	R1031M
1794.736	2.617	940648	WORD	n/a	wordpools/wordpool_EN.txt	STORE	2	16	[0, 0, 0]	n/a	FR1	0	R1031M
1797.353	2.517	941957	WORD	n/a	wordpools/wordpool_EN.txt	SHIRT	3	16	[0, 0, 0]	n/a	FR1	0	R1031M
1799.87	2.451	943215	WORD	n/a	wordpools/wordpool_EN.txt	RIB	4	16	[0, 0, 0]	n/a	FR1	0	R1031M
1802.321	2.434	944440	WORD	n/a	wordpools/wordpool_EN.txt	MULE	5	16	[0, 0, 0]	n/a	FR1	0	R1031M
1804.755	2.55	945657	WORD	n/a	wordpools/wordpool_EN.txt	BOWL	6	16	[0, 0, 0]	n/a	FR1	0	R1031M
1807.305	2.634	946932	WORD	n/a	wordpools/wordpool_EN.txt	BREAD	7	16	[0, 0, 0]	n/a	FR1	0	R1031M
1809.939	2.517	948249	WORD	n/a	wordpools/wordpool_EN.txt	CHAIR	8	16	[0, 0, 0]	n/a	FR1	0	R1031M
1812.456	2.567	949507	WORD	n/a	wordpools/wordpool_EN.txt	BEAN	9	16	[0, 0, 0]	n/a	FR1	0	R1031M
1815.023	2.401	950791	WORD	n/a	wordpools/wordpool_EN.txt	PANTS	10	16	[0, 0, 0]	n/a	FR1	0	R1031M
1817.424	2.517	951991	WORD	n/a	wordpools/wordpool_EN.txt	BARN	11	16	[0, 0, 0]	n/a	FR1	0	R1031M
1819.941	1.617	953249	WORD	n/a	wordpools/wordpool_EN.txt	STOVE	12	16	[0, 0, 0]	n/a	FR1	0	R1031M
1821.558	0.001	954058	DISTRACT_START	n/a	n/a	n/a	-999	16	[0, 0, 0]	n/a	FR1	0	R1031M
1821.559	0.015	954058	START	n/a	n/a	n/a	-999	16	[-999, -999, -999]	n/a	FR1	0	R1031M
1821.574	3.701	954066	PROB	3.701	n/a	n/a	-999	16	[9, 1, 3]	13	FR1	0	R1031M
1825.275	2.617	955916	PROB	2.617	n/a	n/a	-999	16	[4, 4, 1]	9	FR1	0	R1031M
1827.892	2.8	957224	PROB	2.8	n/a	n/a	-999	16	[5, 9, 6]	21	FR1	0	R1031M
1830.692	3.402	958624	PROB	3.402	n/a	n/a	-999	16	[2, 3, 8]	13	FR1	0	R1031M
1834.094	2.566	960325	PROB	2.566	n/a	n/a	-999	16	[2, 3, 4]	9	FR1	0	R1031M
1836.66	2.918	961608	PROB	2.918	n/a	n/a	-999	16	[8, 1, 2]	11	FR1	0	R1031M
1839.578	2.981	963067	PROB	2.981	n/a	n/a	-999	16	[8, 5, 9]	22	FR1	0	R1031M
1842.559	0.019	964557	STOP	n/a	n/a	n/a	-999	16	[-999, -999, -999]	n/a	FR1	0	R1031M
1842.578	1.117	964567	DISTRACT_END	n/a	n/a	n/a	-999	16	[0, 0, 0]	n/a	FR1	0	R1031M
1843.695	9.607	965125	REC_START	n/a	n/a	n/a	-999	16	[0, 0, 0]	n/a	FR1	0	R1031M
1853.302	20.404	969928	REC_WORD	20.404	n/a	CHAIR	-999	16	[0, 0, 0]	n/a	FR1	0	R1031M
1873.706	3.879	980129	REC_END	n/a	n/a	n/a	-999	16	[0, 0, 0]	n/a	FR1	0	R1031M
1877.585	0.001	982068	COUNTDOWN_START	n/a	n/a	n/a	-999	17	[0, 0, 0]	n/a	FR1	0	R1031M
1877.586	10.427	982069	TRIAL	n/a	n/a	n/a	-999	17	[0, 0, 0]	n/a	FR1	0	R1031M
1888.013	0.008	987282	COUNTDOWN_END	n/a	n/a	n/a	-999	17	[0, 0, 0]	n/a	FR1	0	R1031M
1888.021	2.55	987286	ORIENT	n/a	n/a	n/a	-999	17	[0, 0, 0]	n/a	FR1	0	R1031M
1890.571	2.517	988561	WORD	n/a	wordpools/wordpool_EN.txt	COW	1	17	[0, 0, 0]	n/a	FR1	0	R1031M
1893.088	2.534	989819	WORD	n/a	wordpools/wordpool_EN.txt	STAR	2	17	[0, 0, 0]	n/a	FR1	0	R1031M
1895.622	2.567	991086	WORD	n/a	wordpools/wordpool_EN.txt	HOUSE	3	17	[0, 0, 0]	n/a	FR1	0	R1031M
1898.189	2.384	992369	WORD	n/a	wordpools/wordpool_EN.txt	DRESS	4	17	[0, 0, 0]	n/a	FR1	0	R1031M
1900.573	2.434	993561	WORD	n/a	wordpools/wordpool_EN.txt	BRIDGE	5	17	[0, 0, 0]	n/a	FR1	0	R1031M
1903.007	2.534	994778	WORD	n/a	wordpools/wordpool_EN.txt	GATE	6	17	[0, 0, 0]	n/a	FR1	0	R1031M
1905.541	2.584	996045	WORD	n/a	wordpools/wordpool_EN.txt	STONE	7	17	[0, 0, 0]	n/a	FR1	0	R1031M
1908.125	2.417	997337	WORD	n/a	wordpools/wordpool_EN.txt	FOX	8	17	[0, 0, 0]	n/a	FR1	0	R1031M
1910.542	2.45	998545	WORD	n/a	wordpools/wordpool_EN.txt	TIE	9	17	[0, 0, 0]	n/a	FR1	0	R1031M
1912.992	2.567	999770	WORD	n/a	wordpools/wordpool_EN.txt	SKY	10	17	[0, 0, 0]	n/a	FR1	0	R1031M
1915.559	2.484	1001053	WORD	n/a	wordpools/wordpool_EN.txt	PEA	11	17	[0, 0, 0]	n/a	FR1	0	R1031M
1918.043	1.616	1002295	WORD	n/a	wordpools/wordpool_EN.txt	HILL	12	17	[0, 0, 0]	n/a	FR1	0	R1031M
1919.659	0.001	1003103	DISTRACT_START	n/a	n/a	n/a	-999	17	[0, 0, 0]	n/a	FR1	0	R1031M
1919.66	0.016	1003104	START	n/a	n/a	n/a	-999	17	[-999, -999, -999]	n/a	FR1	0	R1031M
1919.676	3.051	1003112	PROB	3.051	n/a	n/a	-999	17	[7, 2, 3]	12	FR1	0	R1031M
1922.727	3.184	1004637	PROB	3.184	n/a	n/a	-999	17	[3, 7, 6]	16	FR1	0	R1031M
1925.911	3.118	1006229	PROB	3.118	n/a	n/a	-999	17	[9, 3, 1]	13	FR1	0	R1031M
1929.029	3.1	1007788	PROB	3.1	n/a	n/a	-999	17	[6, 4, 7]	17	FR1	0	R1031M
1932.129	3.201	1009338	PROB	3.201	n/a	n/a	-999	17	[1, 7, 2]	10	FR1	0	R1031M
1935.33	3.484	1010938	PROB	3.484	n/a	n/a	-999	17	[9, 9, 6]	24	FR1	0	R1031M
1938.814	3.753	1012680	PROB	3.753	n/a	n/a	-999	17	[3, 9, 7]	19	FR1	0	R1031M
1942.567	0.014	1014556	STOP	n/a	n/a	n/a	-999	17	[-999, -999, -999]	n/a	FR1	0	R1031M
1942.581	1.083	1014563	DISTRACT_END	n/a	n/a	n/a	-999	17	[0, 0, 0]	n/a	FR1	0	R1031M
1943.664	1.367	1015105	REC_START	n/a	n/a	n/a	-999	17	[0, 0, 0]	n/a	FR1	0	R1031M
1945.031	1.295	1015788	REC_WORD	1.295	n/a	COW	-999	17	[0, 0, 0]	n/a	FR1	0	R1031M
1946.326	12.47	1016435	REC_WORD	12.47	n/a	STAR	-999	17	[0, 0, 0]	n/a	FR1	0	R1031M
1958.796	14.883	1022670	REC_WORD	14.883	n/a	STONE	-999	17	[0, 0, 0]	n/a	FR1	0	R1031M
1973.679	3.359	1030110	REC_END	n/a	n/a	n/a	-999	17	[0, 0, 0]	n/a	FR1	0	R1031M
1977.038	0.0	1031790	TRIAL	n/a	n/a	n/a	-999	18	[0, 0, 0]	n/a	FR1	0	R1031M
1977.038	10.428	1031790	COUNTDOWN_START	n/a	n/a	n/a	-999	18	[0, 0, 0]	n/a	FR1	0	R1031M
1987.466	0.007	1037003	COUNTDOWN_END	n/a	n/a	n/a	-999	18	[0, 0, 0]	n/a	FR1	0	R1031M
1987.473	2.534	1037007	ORIENT	n/a	n/a	n/a	-999	18	[0, 0, 0]	n/a	FR1	0	R1031M
1990.007	2.434	1038274	WORD	n/a	wordpools/wordpool_EN.txt	WOLF	1	18	[0, 0, 0]	n/a	FR1	0	R1031M
1992.441	2.451	1039491	WORD	n/a	wordpools/wordpool_EN.txt	SHEEP	2	18	[0, 0, 0]	n/a	FR1	0	R1031M
1994.892	2.383	1040716	WORD	n/a	wordpools/wordpool_EN.txt	RUG	3	18	[0, 0, 0]	n/a	FR1	0	R1031M
1997.275	2.618	1041907	WORD	n/a	wordpools/wordpool_EN.txt	SPARK	4	18	[0, 0, 0]	n/a	FR1	0	R1031M
1999.893	2.483	1043216	WORD	n/a	wordpools/wordpool_EN.txt	SUN	5	18	[0, 0, 0]	n/a	FR1	0	R1031M
2002.376	2.418	1044457	WORD	n/a	wordpools/wordpool_EN.txt	CONE	6	18	[0, 0, 0]	n/a	FR1	0	R1031M
2004.794	2.567	1045666	WORD	n/a	wordpools/wordpool_EN.txt	ICE	7	18	[0, 0, 0]	n/a	FR1	0	R1031M
2007.361	2.417	1046950	WORD	n/a	wordpools/wordpool_EN.txt	WHALE	8	18	[0, 0, 0]	n/a	FR1	0	R1031M
2009.778	2.417	1048158	WORD	n/a	wordpools/wordpool_EN.txt	NAIL	9	18	[0, 0, 0]	n/a	FR1	0	R1031M
2012.195	2.567	1049366	WORD	n/a	wordpools/wordpool_EN.txt	CLIFF	10	18	[0, 0, 0]	n/a	FR1	0	R1031M
2014.762	2.401	1050650	WORD	n/a	wordpools/wordpool_EN.txt	JEEP	11	18	[0, 0, 0]	n/a	FR1	0	R1031M
2017.163	1.617	1051850	WORD	n/a	wordpools/wordpool_EN.txt	CROW	12	18	[0, 0, 0]	n/a	FR1	0	R1031M
2018.78	0.0	1052659	DISTRACT_START	n/a	n/a	n/a	-999	18	[0, 0, 0]	n/a	FR1	0	R1031M
2018.78	0.016	1052659	START	n/a	n/a	n/a	-999	18	[-999, -999, -999]	n/a	FR1	0	R1031M
2018.796	3.168	1052667	PROB	3.168	n/a	n/a	-999	18	[2, 6, 3]	11	FR1	0	R1031M
2021.964	2.967	1054250	PROB	2.967	n/a	n/a	-999	18	[3, 5, 7]	15	FR1	0	R1031M
2024.931	2.733	1055734	PROB	2.733	n/a	n/a	-999	18	[8, 6, 3]	17	FR1	0	R1031M
2027.664	2.901	1057100	PROB	2.901	n/a	n/a	-999	18	[1, 5, 3]	9	FR1	0	R1031M
2030.565	3.451	1058551	PROB	3.451	n/a	n/a	-999	18	[6, 9, 2]	17	FR1	0	R1031M
2034.016	3.0	1060276	PROB	3.0	n/a	n/a	-999	18	[9, 4, 8]	21	FR1	0	R1031M
2037.016	3.111	1061776	PROB	3.111	n/a	n/a	-999	18	[7, 6, 3]	16	FR1	0	R1031M
2040.127	0.007	1063331	STOP	n/a	n/a	n/a	-999	18	[-999, -999, -999]	n/a	FR1	0	R1031M
2040.134	1.184	1063335	DISTRACT_END	n/a	n/a	n/a	-999	18	[0, 0, 0]	n/a	FR1	0	R1031M
2041.318	1.062	1063926	REC_START	n/a	n/a	n/a	-999	18	[0, 0, 0]	n/a	FR1	0	R1031M
2042.38	0.874	1064457	REC_WORD	0.874	n/a	WOLF	-999	18	[0, 0, 0]	n/a	FR1	0	R1031M
2043.254	3.895	1064894	REC_WORD	3.895	n/a	SHEEP	-999	18	[0, 0, 0]	n/a	FR1	0	R1031M
2047.149	24.179	1066842	REC_WORD	24.179	n/a	CLIFF	-999	18	[0, 0, 0]	n/a	FR1	0	R1031M
2071.328	4.296	1078930	REC_END	n/a	n/a	n/a	-999	18	[0, 0, 0]	n/a	FR1	0	R1031M
2075.624	0.0	1081078	TRIAL	n/a	n/a	n/a	-999	19	[0, 0, 0]	n/a	FR1	0	R1031M
2075.624	10.428	1081078	COUNTDOWN_START	n/a	n/a	n/a	-999	19	[0, 0, 0]	n/a	FR1	0	R1031M
2086.052	0.007	1086291	COUNTDOWN_END	n/a	n/a	n/a	-999	19	[0, 0, 0]	n/a	FR1	0	R1031M
2086.059	2.551	1086295	ORIENT	n/a	n/a	n/a	-999	19	[0, 0, 0]	n/a	FR1	0	R1031M
2088.61	2.6	1087570	WORD	n/a	wordpools/wordpool_EN.txt	POND	1	19	[0, 0, 0]	n/a	FR1	0	R1031M
2091.21	2.584	1088870	WORD	n/a	wordpools/wordpool_EN.txt	STRAW	2	19	[0, 0, 0]	n/a	FR1	0	R1031M
2093.794	2.484	1090162	WORD	n/a	wordpools/wordpool_EN.txt	SLUSH	3	19	[0, 0, 0]	n/a	FR1	0	R1031M
2096.278	2.601	1091404	WORD	n/a	wordpools/wordpool_EN.txt	CAGE	4	19	[0, 0, 0]	n/a	FR1	0	R1031M
2098.879	2.383	1092704	WORD	n/a	wordpools/wordpool_EN.txt	VASE	5	19	[0, 0, 0]	n/a	FR1	0	R1031M
2101.262	2.584	1093895	WORD	n/a	wordpools/wordpool_EN.txt	SINK	6	19	[0, 0, 0]	n/a	FR1	0	R1031M
2103.846	2.417	1095187	WORD	n/a	wordpools/wordpool_EN.txt	JAR	7	19	[0, 0, 0]	n/a	FR1	0	R1031M
2106.263	2.551	1096396	WORD	n/a	wordpools/wordpool_EN.txt	SEAL	8	19	[0, 0, 0]	n/a	FR1	0	R1031M
2108.814	2.567	1097671	WORD	n/a	wordpools/wordpool_EN.txt	GEESE	9	19	[0, 0, 0]	n/a	FR1	0	R1031M
2111.381	2.584	1098954	WORD	n/a	wordpools/wordpool_EN.txt	HAT	10	19	[0, 0, 0]	n/a	FR1	0	R1031M
2113.965	2.55	1100246	WORD	n/a	wordpools/wordpool_EN.txt	BOX	11	19	[0, 0, 0]	n/a	FR1	0	R1031M
2116.515	1.617	1101521	WORD	n/a	wordpools/wordpool_EN.txt	PET	12	19	[0, 0, 0]	n/a	FR1	0	R1031M
2118.132	0.001	1102330	DISTRACT_START	n/a	n/a	n/a	-999	19	[0, 0, 0]	n/a	FR1	0	R1031M
2118.133	0.016	1102330	START	n/a	n/a	n/a	-999	19	[-999, -999, -999]	n/a	FR1	0	R1031M
2118.149	3.617	1102338	PROB	3.617	n/a	n/a	-999	19	[4, 3, 9]	16	FR1	0	R1031M
2121.766	2.734	1104146	PROB	2.734	n/a	n/a	-999	19	[5, 5, 2]	12	FR1	0	R1031M
2124.5	3.351	1105513	PROB	3.351	n/a	n/a	-999	19	[9, 4, 1]	14	FR1	0	R1031M
2127.851	2.65	1107189	PROB	2.65	n/a	n/a	-999	19	[4, 1, 6]	11	FR1	0	R1031M
2130.501	2.851	1108513	PROB	2.851	n/a	n/a	-999	19	[4, 3, 4]	11	FR1	0	R1031M
2133.352	3.316	1109939	PROB	3.316	n/a	n/a	-999	19	[3, 1, 3]	7	FR1	0	R1031M
2136.668	2.899	1111597	PROB	2.899	n/a	n/a	-999	19	[7, 7, 8]	23	FR1	0	R1031M
2139.567	0.019	1113046	STOP	n/a	n/a	n/a	-999	19	[-999, -999, -999]	n/a	FR1	0	R1031M
2139.586	1.083	1113055	DISTRACT_END	n/a	n/a	n/a	-999	19	[0, 0, 0]	n/a	FR1	0	R1031M
2140.669	11.045	1113597	REC_START	n/a	n/a	n/a	-999	19	[0, 0, 0]	n/a	FR1	0	R1031M
2151.714	3.735	1119119	REC_WORD	3.735	n/a	HAT	-999	19	[0, 0, 0]	n/a	FR1	0	R1031M
2155.449	1.355	1120986	REC_WORD	1.355	n/a	POND	-999	19	[0, 0, 0]	n/a	FR1	0	R1031M
2156.804	13.879	1121664	REC_WORD	13.879	n/a	STRAW	-999	19	[0, 0, 0]	n/a	FR1	0	R1031M
2170.683	4.96	1128602	REC_END	n/a	n/a	n/a	-999	19	[0, 0, 0]	n/a	FR1	0	R1031M
2175.643	0.001	1131082	COUNTDOWN_START	n/a	n/a	n/a	-999	20	[0, 0, 0]	n/a	FR1	0	R1031M
2175.644	10.427	1131083	TRIAL	n/a	n/a	n/a	-999	20	[0, 0, 0]	n/a	FR1	0	R1031M
2186.071	0.008	1136296	COUNTDOWN_END	n/a	n/a	n/a	-999	20	[0, 0, 0]	n/a	FR1	0	R1031M
2186.079	2.5	1136300	ORIENT	n/a	n/a	n/a	-999	20	[0, 0, 0]	n/a	FR1	0	R1031M
2188.579	2.534	1137549	WORD	n/a	wordpools/wordpool_EN.txt	NEST	1	20	[0, 0, 0]	n/a	FR1	0	R1031M
2191.113	2.501	1138816	WORD	n/a	wordpools/wordpool_EN.txt	CAKE	2	20	[0, 0, 0]	n/a	FR1	0	R1031M
2193.614	2.45	1140067	WORD	n/a	wordpools/wordpool_EN.txt	CHEEK	3	20	[0, 0, 0]	n/a	FR1	0	R1031M
2196.064	2.567	1141292	WORD	n/a	wordpools/wordpool_EN.txt	FACE	4	20	[0, 0, 0]	n/a	FR1	0	R1031M
2198.631	2.534	1142575	WORD	n/a	wordpools/wordpool_EN.txt	FORK	5	20	[0, 0, 0]	n/a	FR1	0	R1031M
2201.165	2.516	1143842	WORD	n/a	wordpools/wordpool_EN.txt	CUP	6	20	[0, 0, 0]	n/a	FR1	0	R1031M
2203.681	2.552	1145100	WORD	n/a	wordpools/wordpool_EN.txt	MOOSE	7	20	[0, 0, 0]	n/a	FR1	0	R1031M
2206.233	2.534	1146376	WORD	n/a	wordpools/wordpool_EN.txt	AXE	8	20	[0, 0, 0]	n/a	FR1	0	R1031M
2208.767	2.383	1147642	WORD	n/a	wordpools/wordpool_EN.txt	TOAST	9	20	[0, 0, 0]	n/a	FR1	0	R1031M
2211.15	2.484	1148834	WORD	n/a	wordpools/wordpool_EN.txt	HEN	10	20	[0, 0, 0]	n/a	FR1	0	R1031M
2213.634	2.501	1150076	WORD	n/a	wordpools/wordpool_EN.txt	FRUIT	11	20	[0, 0, 0]	n/a	FR1	0	R1031M
2216.135	1.617	1151326	WORD	n/a	wordpools/wordpool_EN.txt	PALM	12	20	[0, 0, 0]	n/a	FR1	0	R1031M
2217.752	0.001	1152134	DISTRACT_START	n/a	n/a	n/a	-999	20	[0, 0, 0]	n/a	FR1	0	R1031M
2217.753	0.015	1152135	START	n/a	n/a	n/a	-999	20	[-999, -999, -999]	n/a	FR1	0	R1031M
2217.768	3.684	1152142	PROB	3.684	n/a	n/a	-999	20	[8, 7, 3]	18	FR1	0	R1031M
2221.452	2.901	1153984	PROB	2.901	n/a	n/a	-999	20	[5, 5, 7]	17	FR1	0	R1031M
2224.353	2.817	1155435	PROB	2.817	n/a	n/a	-999	20	[7, 6, 8]	21	FR1	0	R1031M
2227.17	3.051	1156843	PROB	3.051	n/a	n/a	-999	20	[2, 4, 9]	15	FR1	0	R1031M
2230.221	2.967	1158368	PROB	2.967	n/a	n/a	-999	20	[5, 9, 8]	22	FR1	0	R1031M
2233.188	2.601	1159852	PROB	2.601	n/a	n/a	-999	20	[1, 1, 9]	11	FR1	0	R1031M
2235.789	2.962	1161152	PROB	2.962	n/a	n/a	-999	20	[6, 6, 3]	15	FR1	0	R1031M
2238.751	0.005	1162633	STOP	n/a	n/a	n/a	-999	20	[-999, -999, -999]	n/a	FR1	0	R1031M
2238.756	1.184	1162635	DISTRACT_END	n/a	n/a	n/a	-999	20	[0, 0, 0]	n/a	FR1	0	R1031M
2239.94	23.057	1163227	REC_START	n/a	n/a	n/a	-999	20	[0, 0, 0]	n/a	FR1	0	R1031M
2262.997	6.953	1174755	REC_WORD	6.953	n/a	HEN	-999	20	[0, 0, 0]	n/a	FR1	0	R1031M
2269.95	17.198	1178231	REC_END	n/a	n/a	n/a	-999	20	[0, 0, 0]	n/a	FR1	0	R1031M
2287.148	0.001	1186829	COUNTDOWN_START	n/a	n/a	n/a	-999	21	[0, 0, 0]	n/a	FR1	0	R1031M
2287.149	0.0	1186829	TRIAL	n/a	n/a	n/a	-999	21	[0, 0, 0]	n/a	FR1	0	R1031M
