onset	duration	sample	trial_type	response_time	stim_file	item_name	serialpos	list	test	answer	experiment	session	subject
0.0	13.506	32444	SESS_START	n/a	n/a	n/a	-999	-999	[0, 0, 0]	n/a	FR1	0	R1092J
13.506	10.428	45950	COUNTDOWN_START	n/a	n/a	n/a	-999	-999	[0, 0, 0]	n/a	FR1	0	R1092J
23.934	3.59	56378	COUNTDOWN_END	n/a	n/a	n/a	-999	-999	[0, 0, 0]	n/a	FR1	0	R1092J
27.524	2.451	59968	PRACTICE_WORD	n/a	n/a	FLOOD	1	-1	[0, 0, 0]	n/a	FR1	0	R1092J
29.975	2.566	62419	PRACTICE_WORD	n/a	n/a	WATCH	2	-1	[0, 0, 0]	n/a	FR1	0	R1092J
32.541	2.518	64985	PRACTICE_WORD	n/a	n/a	CAMEL	3	-1	[0, 0, 0]	n/a	FR1	0	R1092J
35.059	2.6	67503	PRACTICE_WORD	n/a	n/a	BEAM	4	-1	[0, 0, 0]	n/a	FR1	0	R1092J
37.659	2.435	70103	PRACTICE_WORD	n/a	n/a	CHEST	5	-1	[0, 0, 0]	n/a	FR1	0	R1092J
40.094	2.549	72538	PRACTICE_WORD	n/a	n/a	WAGON	6	-1	[0, 0, 0]	n/a	FR1	0	R1092J
42.643	2.584	75087	PRACTICE_WORD	n/a	n/a	COTTON	7	-1	[0, 0, 0]	n/a	FR1	0	R1092J
45.227	2.416	77671	PRACTICE_WORD	n/a	n/a	TONGUE	8	-1	[0, 0, 0]	n/a	FR1	0	R1092J
47.643	2.551	80087	PRACTICE_WORD	n/a	n/a	IRON	9	-1	[0, 0, 0]	n/a	FR1	0	R1092J
50.194	2.5	82638	PRACTICE_WORD	n/a	n/a	RING	10	-1	[0, 0, 0]	n/a	FR1	0	R1092J
52.694	2.518	85138	PRACTICE_WORD	n/a	n/a	ATTIC	11	-1	[0, 0, 0]	n/a	FR1	0	R1092J
55.212	1.616	87656	PRACTICE_WORD	n/a	n/a	RHINO	12	-1	[0, 0, 0]	n/a	FR1	0	R1092J
56.828	0.0	89272	PRACTICE_DISTRACT_START	n/a	n/a	n/a	-999	-1	[0, 0, 0]	n/a	FR1	0	R1092J
56.828	0.017	89272	START	n/a	n/a	n/a	-999	-1	[-999, -999, -999]	n/a	FR1	0	R1092J
56.845	4.151	89289	PROB	4.151	n/a	n/a	-999	-1	[2, 4, 8]	14	FR1	0	R1092J
60.996	3.25	93440	PROB	3.25	n/a	n/a	-999	-1	[7, 3, 3]	13	FR1	0	R1092J
64.246	3.684	96690	PROB	3.684	n/a	n/a	-999	-1	[1, 4, 5]	10	FR1	0	R1092J
67.93	2.733	100373	PROB	2.733	n/a	n/a	-999	-1	[1, 8, 1]	10	FR1	0	R1092J
70.663	4.084	103106	PROB	4.084	n/a	n/a	-999	-1	[5, 6, 4]	15	FR1	0	R1092J
74.747	4.517	107190	PROB	4.517	n/a	n/a	-999	-1	[9, 7, 7]	23	FR1	0	R1092J
79.264	0.017	111707	STOP	n/a	n/a	n/a	-999	-1	[-999, -999, -999]	n/a	FR1	0	R1092J
79.281	0.568	111724	PRACTICE_DISTRACT_END	n/a	n/a	n/a	-999	-1	[0, 0, 0]	n/a	FR1	0	R1092J
79.849	30.515	112292	PRACTICE_REC_START	n/a	n/a	n/a	-999	-1	[0, 0, 0]	n/a	FR1	0	R1092J
110.364	12.005	142807	PRACTICE_REC_END	n/a	n/a	n/a	-999	-1	[0, 0, 0]	n/a	FR1	0	R1092J
122.369	0.0	154812	COUNTDOWN_START	n/a	n/a	n/a	-999	1	[0, 0, 0]	n/a	FR1	0	R1092J
122.369	10.428	154812	TRIAL	n/a	n/a	n/a	-999	1	[0, 0, 0]	n/a	FR1	0	R1092J
132.797	0.007	165240	COUNTDOWN_END	n/a	n/a	n/a	-999	1	[0, 0, 0]	n/a	FR1	0	R1092J
132.804	2.385	165247	ORIENT	n/a	n/a	n/a	-999	1	[0, 0, 0]	n/a	FR1	0	R1092J
135.189	2.516	167632	WORD	n/a	wordpools/wordpool_EN.txt	HOLE	1	1	[0, 0, 0]	n/a	FR1	0	R1092J
137.705	2.501	170148	WORD	n/a	wordpools/wordpool_EN.txt	BED	2	1	[0, 0, 0]	n/a	FR1	0	R1092J
140.206	2.516	172649	WORD	n/a	wordpools/wordpool_EN.txt	TRAIN	3	1	[0, 0, 0]	n/a	FR1	0	R1092J
142.722	2.435	175165	WORD	n/a	wordpools/wordpool_EN.txt	CART	4	1	[0, 0, 0]	n/a	FR1	0	R1092J
145.157	2.499	177600	WORD	n/a	wordpools/wordpool_EN.txt	MAT	5	1	[0, 0, 0]	n/a	FR1	0	R1092J
147.656	2.468	180099	WORD	n/a	wordpools/wordpool_EN.txt	MAZE	6	1	[0, 0, 0]	n/a	FR1	0	R1092J
150.124	2.383	182567	WORD	n/a	wordpools/wordpool_EN.txt	HAT	7	1	[0, 0, 0]	n/a	FR1	0	R1092J
152.507	2.501	184950	WORD	n/a	wordpools/wordpool_EN.txt	PARK	8	1	[0, 0, 0]	n/a	FR1	0	R1092J
155.008	2.55	187451	WORD	n/a	wordpools/wordpool_EN.txt	TRUCK	9	1	[0, 0, 0]	n/a	FR1	0	R1092J
157.558	2.401	190001	WORD	n/a	wordpools/wordpool_EN.txt	SQUARE	10	1	[0, 0, 0]	n/a	FR1	0	R1092J
159.959	2.599	192402	WORD	n/a	wordpools/wordpool_EN.txt	PRINCE	11	1	[0, 0, 0]	n/a	FR1	0	R1092J
162.558	1.601	195001	WORD	n/a	wordpools/wordpool_EN.txt	HOOF	12	1	[0, 0, 0]	n/a	FR1	0	R1092J
164.159	0.001	196602	DISTRACT_START	n/a	n/a	n/a	-999	1	[0, 0, 0]	n/a	FR1	0	R1092J
164.16	0.016	196603	START	n/a	n/a	n/a	-999	1	[-999, -999, -999]	n/a	FR1	0	R1092J
164.176	3.416	196619	PROB	3.416	n/a	n/a	-999	1	[7, 8, 3]	18	FR1	0	R1092J
167.592	3.485	200035	PROB	3.485	n/a	n/a	-999	1	[8, 1, 3]	12	FR1	0	R1092J
171.077	4.316	203520	PROB	4.316	n/a	n/a	-999	1	[1, 6, 7]	14	FR1	0	R1092J
175.393	2.835	207836	PROB	2.835	n/a	n/a	-999	1	[4, 8, 8]	20	FR1	0	R1092J
178.228	3.333	210671	PROB	3.333	n/a	n/a	-999	1	[9, 8, 3]	20	FR1	0	R1092J
181.561	3.531	214004	PROB	3.531	n/a	n/a	-999	1	[7, 6, 5]	18	FR1	0	R1092J
185.092	0.02	217535	STOP	n/a	n/a	n/a	-999	1	[-999, -999, -999]	n/a	FR1	0	R1092J
185.112	1.201	217555	DISTRACT_END	n/a	n/a	n/a	-999	1	[0, 0, 0]	n/a	FR1	0	R1092J
186.313	1.557	218756	REC_START	n/a	n/a	n/a	-999	1	[0, 0, 0]	n/a	FR1	0	R1092J
187.87	0.948	220313	REC_WORD	0.948	n/a	FLOOD	-999	1	[0, 0, 0]	n/a	FR1	0	R1092J
188.818	2.641	221261	REC_WORD	2.641	n/a	MAT	5	1	[0, 0, 0]	n/a	FR1	0	R1092J
191.459	1.086	223902	REC_WORD	1.086	n/a	IRON	-999	1	[0, 0, 0]	n/a	FR1	0	R1092J
192.545	7.64	224988	REC_WORD	7.64	n/a	WAGON	-999	1	[0, 0, 0]	n/a	FR1	0	R1092J
200.185	15.934	232627	REC_WORD	15.934	n/a	TRAIN	3	1	[0, 0, 0]	n/a	FR1	0	R1092J
216.119	0.206	248561	REC_WORD_VV	0.206	n/a	<>	-999	1	[0, 0, 0]	n/a	FR1	0	R1092J
216.325	2.825	248767	REC_END	n/a	n/a	n/a	-999	1	[0, 0, 0]	n/a	FR1	0	R1092J
219.15	0.0	251592	TRIAL	n/a	n/a	n/a	-999	2	[0, 0, 0]	n/a	FR1	0	R1092J
219.15	10.428	251592	COUNTDOWN_START	n/a	n/a	n/a	-999	2	[0, 0, 0]	n/a	FR1	0	R1092J
229.578	0.006	262020	COUNTDOWN_END	n/a	n/a	n/a	-999	2	[0, 0, 0]	n/a	FR1	0	R1092J
229.584	2.418	262026	ORIENT	n/a	n/a	n/a	-999	2	[0, 0, 0]	n/a	FR1	0	R1092J
232.002	2.432	264444	WORD	n/a	wordpools/wordpool_EN.txt	RAKE	1	2	[0, 0, 0]	n/a	FR1	0	R1092J
234.434	2.551	266876	WORD	n/a	wordpools/wordpool_EN.txt	SPRING	2	2	[0, 0, 0]	n/a	FR1	0	R1092J
236.985	2.416	269427	WORD	n/a	wordpools/wordpool_EN.txt	WORM	3	2	[0, 0, 0]	n/a	FR1	0	R1092J
239.401	2.401	271843	WORD	n/a	wordpools/wordpool_EN.txt	BLUSH	4	2	[0, 0, 0]	n/a	FR1	0	R1092J
241.802	2.6	274244	WORD	n/a	wordpools/wordpool_EN.txt	MOLE	5	2	[0, 0, 0]	n/a	FR1	0	R1092J
244.402	2.4	276844	WORD	n/a	wordpools/wordpool_EN.txt	ROAD	6	2	[0, 0, 0]	n/a	FR1	0	R1092J
246.802	2.617	279244	WORD	n/a	wordpools/wordpool_EN.txt	LEAF	7	2	[0, 0, 0]	n/a	FR1	0	R1092J
249.419	2.618	281861	WORD	n/a	wordpools/wordpool_EN.txt	WEB	8	2	[0, 0, 0]	n/a	FR1	0	R1092J
252.037	2.516	284479	WORD	n/a	wordpools/wordpool_EN.txt	TAIL	9	2	[0, 0, 0]	n/a	FR1	0	R1092J
254.553	2.502	286995	WORD	n/a	wordpools/wordpool_EN.txt	BUSH	10	2	[0, 0, 0]	n/a	FR1	0	R1092J
257.055	2.582	289497	WORD	n/a	wordpools/wordpool_EN.txt	FLEA	11	2	[0, 0, 0]	n/a	FR1	0	R1092J
259.637	1.602	292079	WORD	n/a	wordpools/wordpool_EN.txt	CAGE	12	2	[0, 0, 0]	n/a	FR1	0	R1092J
261.239	0.001	293681	DISTRACT_START	n/a	n/a	n/a	-999	2	[0, 0, 0]	n/a	FR1	0	R1092J
261.24	0.015	293682	START	n/a	n/a	n/a	-999	2	[-999, -999, -999]	n/a	FR1	0	R1092J
261.255	3.599	293697	PROB	3.599	n/a	n/a	-999	2	[7, 3, 1]	11	FR1	0	R1092J
264.854	3.018	297296	PROB	3.018	n/a	n/a	-999	2	[2, 7, 9]	18	FR1	0	R1092J
267.872	3.834	300314	PROB	3.834	n/a	n/a	-999	2	[5, 6, 7]	18	FR1	0	R1092J
271.706	2.417	304148	PROB	2.417	n/a	n/a	-999	2	[3, 2, 3]	7	FR1	0	R1092J
274.123	3.35	306565	PROB	3.35	n/a	n/a	-999	2	[2, 7, 4]	13	FR1	0	R1092J
277.473	2.718	309915	PROB	2.718	n/a	n/a	-999	2	[1, 6, 7]	14	FR1	0	R1092J
280.191	2.48	312633	PROB	2.48	n/a	n/a	-999	2	[3, 5, 4]	12	FR1	0	R1092J
282.671	0.019	315113	STOP	n/a	n/a	n/a	-999	2	[-999, -999, -999]	n/a	FR1	0	R1092J
282.69	1.203	315132	DISTRACT_END	n/a	n/a	n/a	-999	2	[0, 0, 0]	n/a	FR1	0	R1092J
283.893	1.636	316335	REC_START	n/a	n/a	n/a	-999	2	[0, 0, 0]	n/a	FR1	0	R1092J
285.529	1.027	317971	REC_WORD	1.027	n/a	WAGON	-999	2	[0, 0, 0]	n/a	FR1	0	R1092J
286.556	1.685	318998	REC_WORD	1.685	n/a	FLOOD	-999	2	[0, 0, 0]	n/a	FR1	0	R1092J
288.241	5.004	320683	REC_WORD	5.004	n/a	TRAIN	-999	2	[0, 0, 0]	n/a	FR1	0	R1092J
293.245	6.671	325687	REC_WORD	6.671	n/a	MOLE	5	2	[0, 0, 0]	n/a	FR1	0	R1092J
299.916	7.888	332358	REC_WORD	7.888	n/a	IRON	-999	2	[0, 0, 0]	n/a	FR1	0	R1092J
307.804	4.756	340246	REC_WORD	4.756	n/a	POLE	-999	2	[0, 0, 0]	n/a	FR1	0	R1092J
312.56	1.344	345002	REC_WORD	1.344	n/a	WORM	3	2	[0, 0, 0]	n/a	FR1	0	R1092J
313.904	3.641	346346	REC_END	n/a	n/a	n/a	-999	2	[0, 0, 0]	n/a	FR1	0	R1092J
317.545	0.0	349987	COUNTDOWN_START	n/a	n/a	n/a	-999	3	[0, 0, 0]	n/a	FR1	0	R1092J
317.545	10.428	349987	TRIAL	n/a	n/a	n/a	-999	3	[0, 0, 0]	n/a	FR1	0	R1092J
327.973	0.007	360415	COUNTDOWN_END	n/a	n/a	n/a	-999	3	[0, 0, 0]	n/a	FR1	0	R1092J
327.98	2.616	360422	ORIENT	n/a	n/a	n/a	-999	3	[0, 0, 0]	n/a	FR1	0	R1092J
330.596	2.485	363037	WORD	n/a	wordpools/wordpool_EN.txt	TENT	1	3	[0, 0, 0]	n/a	FR1	0	R1092J
333.081	2.399	365522	WORD	n/a	wordpools/wordpool_EN.txt	STOOL	2	3	[0, 0, 0]	n/a	FR1	0	R1092J
335.48	2.468	367921	WORD	n/a	wordpools/wordpool_EN.txt	HORN	3	3	[0, 0, 0]	n/a	FR1	0	R1092J
337.948	2.383	370389	WORD	n/a	wordpools/wordpool_EN.txt	SHIRT	4	3	[0, 0, 0]	n/a	FR1	0	R1092J
340.331	2.383	372772	WORD	n/a	wordpools/wordpool_EN.txt	YARD	5	3	[0, 0, 0]	n/a	FR1	0	R1092J
342.714	2.552	375155	WORD	n/a	wordpools/wordpool_EN.txt	BOWL	6	3	[0, 0, 0]	n/a	FR1	0	R1092J
345.266	2.566	377707	WORD	n/a	wordpools/wordpool_EN.txt	SEAT	7	3	[0, 0, 0]	n/a	FR1	0	R1092J
347.832	2.468	380273	WORD	n/a	wordpools/wordpool_EN.txt	SLUSH	8	3	[0, 0, 0]	n/a	FR1	0	R1092J
350.3	2.566	382741	WORD	n/a	wordpools/wordpool_EN.txt	CHALK	9	3	[0, 0, 0]	n/a	FR1	0	R1092J
352.866	2.417	385307	WORD	n/a	wordpools/wordpool_EN.txt	PLATE	10	3	[0, 0, 0]	n/a	FR1	0	R1092J
355.283	2.567	387724	WORD	n/a	wordpools/wordpool_EN.txt	PANTS	11	3	[0, 0, 0]	n/a	FR1	0	R1092J
357.85	1.617	390291	WORD	n/a	wordpools/wordpool_EN.txt	BAND	12	3	[0, 0, 0]	n/a	FR1	0	R1092J
359.467	0.001	391908	DISTRACT_START	n/a	n/a	n/a	-999	3	[0, 0, 0]	n/a	FR1	0	R1092J
359.468	0.015	391909	START	n/a	n/a	n/a	-999	3	[-999, -999, -999]	n/a	FR1	0	R1092J
359.483	3.284	391924	PROB	3.284	n/a	n/a	-999	3	[5, 5, 8]	18	FR1	0	R1092J
362.767	3.201	395208	PROB	3.201	n/a	n/a	-999	3	[2, 9, 1]	12	FR1	0	R1092J
365.968	5.85	398409	PROB	5.85	n/a	n/a	-999	3	[9, 9, 5]	23	FR1	0	R1092J
371.818	2.285	404259	PROB	2.285	n/a	n/a	-999	3	[4, 1, 3]	8	FR1	0	R1092J
374.103	2.549	406544	PROB	2.549	n/a	n/a	-999	3	[7, 1, 4]	12	FR1	0	R1092J
376.652	2.935	409093	PROB	2.935	n/a	n/a	-999	3	[1, 6, 5]	12	FR1	0	R1092J
379.587	0.016	412028	STOP	n/a	n/a	n/a	-999	3	[-999, -999, -999]	n/a	FR1	0	R1092J
379.603	1.151	412044	DISTRACT_END	n/a	n/a	n/a	-999	3	[0, 0, 0]	n/a	FR1	0	R1092J
380.754	1.807	413195	REC_START	n/a	n/a	n/a	-999	3	[0, 0, 0]	n/a	FR1	0	R1092J
382.561	1.075	415002	REC_WORD	1.075	n/a	PLATE	10	3	[0, 0, 0]	n/a	FR1	0	R1092J
383.636	1.108	416077	REC_WORD	1.108	n/a	HOLE	-999	3	[0, 0, 0]	n/a	FR1	0	R1092J
384.744	1.748	417185	REC_WORD	1.748	n/a	TENT	1	3	[0, 0, 0]	n/a	FR1	0	R1092J
386.492	3.982	418933	REC_WORD	3.982	n/a	MOLE	-999	3	[0, 0, 0]	n/a	FR1	0	R1092J
390.474	1.238	422915	REC_WORD	1.238	n/a	FLOOD	-999	3	[0, 0, 0]	n/a	FR1	0	R1092J
391.712	5.632	424153	REC_WORD	5.632	n/a	FORK	-999	3	[0, 0, 0]	n/a	FR1	0	R1092J
397.344	4.959	429785	REC_WORD	4.959	n/a	TENT	1	3	[0, 0, 0]	n/a	FR1	0	R1092J
402.303	3.14	434744	REC_WORD	3.14	n/a	SPOON	-999	3	[0, 0, 0]	n/a	FR1	0	R1092J
405.443	3.428	437884	REC_WORD	3.428	n/a	BLUSH	-999	3	[0, 0, 0]	n/a	FR1	0	R1092J
408.871	1.894	441312	REC_WORD	1.894	n/a	STOOL	2	3	[0, 0, 0]	n/a	FR1	0	R1092J
410.765	2.608	443206	REC_END	n/a	n/a	n/a	-999	3	[0, 0, 0]	n/a	FR1	0	R1092J
413.373	0.0	445814	TRIAL	n/a	n/a	n/a	-999	4	[0, 0, 0]	n/a	FR1	0	R1092J
413.373	10.428	445814	COUNTDOWN_START	n/a	n/a	n/a	-999	4	[0, 0, 0]	n/a	FR1	0	R1092J
423.801	0.007	456242	COUNTDOWN_END	n/a	n/a	n/a	-999	4	[0, 0, 0]	n/a	FR1	0	R1092J
423.808	2.551	456249	ORIENT	n/a	n/a	n/a	-999	4	[0, 0, 0]	n/a	FR1	0	R1092J
426.359	2.417	458800	WORD	n/a	wordpools/wordpool_EN.txt	MAP	1	4	[0, 0, 0]	n/a	FR1	0	R1092J
428.776	2.467	461217	WORD	n/a	wordpools/wordpool_EN.txt	BEAR	2	4	[0, 0, 0]	n/a	FR1	0	R1092J
431.243	2.566	463684	WORD	n/a	wordpools/wordpool_EN.txt	STEM	3	4	[0, 0, 0]	n/a	FR1	0	R1092J
433.809	2.452	466250	WORD	n/a	wordpools/wordpool_EN.txt	POLE	4	4	[0, 0, 0]	n/a	FR1	0	R1092J
436.261	2.483	468702	WORD	n/a	wordpools/wordpool_EN.txt	TOOTH	5	4	[0, 0, 0]	n/a	FR1	0	R1092J
438.744	2.6	471185	WORD	n/a	wordpools/wordpool_EN.txt	INK	6	4	[0, 0, 0]	n/a	FR1	0	R1092J
441.344	2.517	473785	WORD	n/a	wordpools/wordpool_EN.txt	TEETH	7	4	[0, 0, 0]	n/a	FR1	0	R1092J
443.861	2.517	476302	WORD	n/a	wordpools/wordpool_EN.txt	SLIME	8	4	[0, 0, 0]	n/a	FR1	0	R1092J
446.378	2.45	478819	WORD	n/a	wordpools/wordpool_EN.txt	SALT	9	4	[0, 0, 0]	n/a	FR1	0	R1092J
448.828	2.485	481269	WORD	n/a	wordpools/wordpool_EN.txt	ROOT	10	4	[0, 0, 0]	n/a	FR1	0	R1092J
451.313	2.583	483754	WORD	n/a	wordpools/wordpool_EN.txt	WHEEL	11	4	[0, 0, 0]	n/a	FR1	0	R1092J
453.896	1.616	486337	WORD	n/a	wordpools/wordpool_EN.txt	BANK	12	4	[0, 0, 0]	n/a	FR1	0	R1092J
455.512	0.001	487953	DISTRACT_START	n/a	n/a	n/a	-999	4	[0, 0, 0]	n/a	FR1	0	R1092J
455.513	0.016	487954	START	n/a	n/a	n/a	-999	4	[-999, -999, -999]	n/a	FR1	0	R1092J
455.529	4.001	487970	PROB	4.001	n/a	n/a	-999	4	[6, 5, 3]	14	FR1	0	R1092J
459.53	3.417	491971	PROB	3.417	n/a	n/a	-999	4	[7, 1, 2]	10	FR1	0	R1092J
462.947	3.8	495387	PROB	3.8	n/a	n/a	-999	4	[7, 7, 3]	17	FR1	0	R1092J
466.747	3.734	499187	PROB	3.734	n/a	n/a	-999	4	[2, 6, 4]	12	FR1	0	R1092J
470.481	2.434	502921	PROB	2.434	n/a	n/a	-999	4	[7, 3, 1]	11	FR1	0	R1092J
472.915	2.401	505355	PROB	2.401	n/a	n/a	-999	4	[5, 2, 5]	12	FR1	0	R1092J
475.316	4.467	507756	PROB	4.467	n/a	n/a	-999	4	[9, 5, 7]	21	FR1	0	R1092J
479.783	0.016	512223	STOP	n/a	n/a	n/a	-999	4	[-999, -999, -999]	n/a	FR1	0	R1092J
479.799	1.067	512239	DISTRACT_END	n/a	n/a	n/a	-999	4	[0, 0, 0]	n/a	FR1	0	R1092J
480.866	1.409	513306	REC_START	n/a	n/a	n/a	-999	4	[0, 0, 0]	n/a	FR1	0	R1092J
482.275	0.992	514715	REC_WORD	0.992	n/a	FLOOD	-999	4	[0, 0, 0]	n/a	FR1	0	R1092J
483.267	1.252	515707	REC_WORD	1.252	n/a	HOLE	-999	4	[0, 0, 0]	n/a	FR1	0	R1092J
484.519	2.314	516959	REC_WORD	2.314	n/a	TENT	-999	4	[0, 0, 0]	n/a	FR1	0	R1092J
486.833	8.884	519273	REC_WORD	8.884	n/a	POLE	4	4	[0, 0, 0]	n/a	FR1	0	R1092J
495.717	2.307	528157	REC_WORD	2.307	n/a	PLATE	-999	4	[0, 0, 0]	n/a	FR1	0	R1092J
498.024	9.269	530464	REC_WORD	9.269	n/a	STEM	3	4	[0, 0, 0]	n/a	FR1	0	R1092J
507.293	3.591	539733	REC_WORD	3.591	n/a	MAT	-999	4	[0, 0, 0]	n/a	FR1	0	R1092J
510.884	4.187	543324	REC_END	n/a	n/a	n/a	-999	4	[0, 0, 0]	n/a	FR1	0	R1092J
515.071	0.0	547511	TRIAL	n/a	n/a	n/a	-999	5	[0, 0, 0]	n/a	FR1	0	R1092J
515.071	10.428	547511	COUNTDOWN_START	n/a	n/a	n/a	-999	5	[0, 0, 0]	n/a	FR1	0	R1092J
525.499	0.006	557939	COUNTDOWN_END	n/a	n/a	n/a	-999	5	[0, 0, 0]	n/a	FR1	0	R1092J
525.505	2.551	557945	ORIENT	n/a	n/a	n/a	-999	5	[0, 0, 0]	n/a	FR1	0	R1092J
528.056	2.449	560496	WORD	n/a	wordpools/wordpool_EN.txt	OAK	1	5	[0, 0, 0]	n/a	FR1	0	R1092J
530.505	2.435	562945	WORD	n/a	wordpools/wordpool_EN.txt	CUP	2	5	[0, 0, 0]	n/a	FR1	0	R1092J
532.94	2.432	565380	WORD	n/a	wordpools/wordpool_EN.txt	MUG	3	5	[0, 0, 0]	n/a	FR1	0	R1092J
535.372	2.384	567812	WORD	n/a	wordpools/wordpool_EN.txt	SHELL	4	5	[0, 0, 0]	n/a	FR1	0	R1092J
537.756	2.402	570196	WORD	n/a	wordpools/wordpool_EN.txt	PASTE	5	5	[0, 0, 0]	n/a	FR1	0	R1092J
540.158	2.499	572598	WORD	n/a	wordpools/wordpool_EN.txt	EGG	6	5	[0, 0, 0]	n/a	FR1	0	R1092J
542.657	2.568	575097	WORD	n/a	wordpools/wordpool_EN.txt	WAND	7	5	[0, 0, 0]	n/a	FR1	0	R1092J
545.225	2.583	577665	WORD	n/a	wordpools/wordpool_EN.txt	SPOON	8	5	[0, 0, 0]	n/a	FR1	0	R1092J
547.808	2.484	580248	WORD	n/a	wordpools/wordpool_EN.txt	HEN	9	5	[0, 0, 0]	n/a	FR1	0	R1092J
550.292	2.516	582732	WORD	n/a	wordpools/wordpool_EN.txt	LAMB	10	5	[0, 0, 0]	n/a	FR1	0	R1092J
552.808	2.634	585248	WORD	n/a	wordpools/wordpool_EN.txt	WOOD	11	5	[0, 0, 0]	n/a	FR1	0	R1092J
555.442	1.618	587882	WORD	n/a	wordpools/wordpool_EN.txt	PEACH	12	5	[0, 0, 0]	n/a	FR1	0	R1092J
557.06	0.001	589500	DISTRACT_START	n/a	n/a	n/a	-999	5	[0, 0, 0]	n/a	FR1	0	R1092J
557.061	0.015	589501	START	n/a	n/a	n/a	-999	5	[-999, -999, -999]	n/a	FR1	0	R1092J
557.076	4.101	589516	PROB	4.101	n/a	n/a	-999	5	[4, 9, 6]	19	FR1	0	R1092J
561.177	3.05	593617	PROB	3.05	n/a	n/a	-999	5	[2, 9, 7]	18	FR1	0	R1092J
564.227	3.316	596667	PROB	3.316	n/a	n/a	-999	5	[3, 5, 3]	11	FR1	0	R1092J
567.543	3.201	599983	PROB	3.201	n/a	n/a	-999	5	[8, 6, 7]	21	FR1	0	R1092J
570.744	3.65	603184	PROB	3.65	n/a	n/a	-999	5	[6, 8, 6]	20	FR1	0	R1092J
574.394	3.473	606834	PROB	3.473	n/a	n/a	-999	5	[8, 7, 4]	19	FR1	0	R1092J
577.867	0.011	610307	STOP	n/a	n/a	n/a	-999	5	[-999, -999, -999]	n/a	FR1	0	R1092J
577.878	1.102	610318	DISTRACT_END	n/a	n/a	n/a	-999	5	[0, 0, 0]	n/a	FR1	0	R1092J
578.98	2.292	611420	REC_START	n/a	n/a	n/a	-999	5	[0, 0, 0]	n/a	FR1	0	R1092J
581.272	1.008	613712	REC_WORD	1.008	n/a	PASTE	5	5	[0, 0, 0]	n/a	FR1	0	R1092J
582.28	1.267	614720	REC_WORD	1.267	n/a	HOLE	-999	5	[0, 0, 0]	n/a	FR1	0	R1092J
583.547	7.617	615987	REC_WORD	7.617	n/a	TENT	-999	5	[0, 0, 0]	n/a	FR1	0	R1092J
591.164	13.324	623604	REC_WORD	13.324	n/a	STEM	-999	5	[0, 0, 0]	n/a	FR1	0	R1092J
604.488	2.97	636927	REC_WORD	2.97	n/a	CUP	2	5	[0, 0, 0]	n/a	FR1	0	R1092J
607.458	1.531	639897	REC_WORD	1.531	n/a	FLOOD	-999	5	[0, 0, 0]	n/a	FR1	0	R1092J
608.989	4.793	641428	REC_END	n/a	n/a	n/a	-999	5	[0, 0, 0]	n/a	FR1	0	R1092J
613.782	0.001	646221	COUNTDOWN_START	n/a	n/a	n/a	-999	6	[0, 0, 0]	n/a	FR1	0	R1092J
613.783	10.427	646222	TRIAL	n/a	n/a	n/a	-999	6	[0, 0, 0]	n/a	FR1	0	R1092J
624.21	0.008	656649	COUNTDOWN_END	n/a	n/a	n/a	-999	6	[0, 0, 0]	n/a	FR1	0	R1092J
624.218	2.616	656657	ORIENT	n/a	n/a	n/a	-999	6	[0, 0, 0]	n/a	FR1	0	R1092J
626.834	2.468	659273	WORD	n/a	wordpools/wordpool_EN.txt	PHONE	1	6	[0, 0, 0]	n/a	FR1	0	R1092J
629.302	2.4	661741	WORD	n/a	wordpools/wordpool_EN.txt	GRAPE	2	6	[0, 0, 0]	n/a	FR1	0	R1092J
631.702	2.551	664141	WORD	n/a	wordpools/wordpool_EN.txt	KITE	3	6	[0, 0, 0]	n/a	FR1	0	R1092J
634.253	2.533	666692	WORD	n/a	wordpools/wordpool_EN.txt	CONE	4	6	[0, 0, 0]	n/a	FR1	0	R1092J
636.786	2.418	669225	WORD	n/a	wordpools/wordpool_EN.txt	LOCK	5	6	[0, 0, 0]	n/a	FR1	0	R1092J
639.204	2.466	671643	WORD	n/a	wordpools/wordpool_EN.txt	MILK	6	6	[0, 0, 0]	n/a	FR1	0	R1092J
641.67	2.484	674109	WORD	n/a	wordpools/wordpool_EN.txt	MOUSE	7	6	[0, 0, 0]	n/a	FR1	0	R1092J
644.154	2.599	676593	WORD	n/a	wordpools/wordpool_EN.txt	CROWN	8	6	[0, 0, 0]	n/a	FR1	0	R1092J
646.753	2.519	679192	WORD	n/a	wordpools/wordpool_EN.txt	PEAR	9	6	[0, 0, 0]	n/a	FR1	0	R1092J
649.272	2.432	681711	WORD	n/a	wordpools/wordpool_EN.txt	SNAKE	10	6	[0, 0, 0]	n/a	FR1	0	R1092J
651.704	2.435	684143	WORD	n/a	wordpools/wordpool_EN.txt	SHOE	11	6	[0, 0, 0]	n/a	FR1	0	R1092J
654.139	1.616	686578	WORD	n/a	wordpools/wordpool_EN.txt	PEARL	12	6	[0, 0, 0]	n/a	FR1	0	R1092J
655.755	0.001	688194	DISTRACT_START	n/a	n/a	n/a	-999	6	[0, 0, 0]	n/a	FR1	0	R1092J
655.756	0.015	688195	START	n/a	n/a	n/a	-999	6	[-999, -999, -999]	n/a	FR1	0	R1092J
655.771	3.668	688210	PROB	3.668	n/a	n/a	-999	6	[5, 2, 9]	16	FR1	0	R1092J
659.439	2.634	691878	PROB	2.634	n/a	n/a	-999	6	[1, 7, 7]	15	FR1	0	R1092J
662.073	3.416	694512	PROB	3.416	n/a	n/a	-999	6	[6, 7, 5]	18	FR1	0	R1092J
665.489	2.967	697928	PROB	2.967	n/a	n/a	-999	6	[7, 4, 1]	12	FR1	0	R1092J
668.456	3.001	700895	PROB	3.001	n/a	n/a	-999	6	[8, 6, 3]	17	FR1	0	R1092J
671.457	3.1	703896	PROB	3.1	n/a	n/a	-999	6	[6, 1, 2]	9	FR1	0	R1092J
674.557	2.977	706996	PROB	2.977	n/a	n/a	-999	6	[7, 5, 3]	15	FR1	0	R1092J
677.534	0.007	709973	STOP	n/a	n/a	n/a	-999	6	[-999, -999, -999]	n/a	FR1	0	R1092J
677.541	1.101	709980	DISTRACT_END	n/a	n/a	n/a	-999	6	[0, 0, 0]	n/a	FR1	0	R1092J
678.642	7.592	711081	REC_START	n/a	n/a	n/a	-999	6	[0, 0, 0]	n/a	FR1	0	R1092J
686.234	3.168	718673	REC_WORD	3.168	n/a	HOLE	-999	6	[0, 0, 0]	n/a	FR1	0	R1092J
689.402	9.879	721841	REC_WORD	9.879	n/a	CUP	-999	6	[0, 0, 0]	n/a	FR1	0	R1092J
699.281	3.759	731720	REC_WORD	3.759	n/a	WAIST	-999	6	[0, 0, 0]	n/a	FR1	0	R1092J
703.04	5.614	735479	REC_WORD	5.614	n/a	PEAR	9	6	[0, 0, 0]	n/a	FR1	0	R1092J
708.654	3.674	741093	REC_END	n/a	n/a	n/a	-999	6	[0, 0, 0]	n/a	FR1	0	R1092J
712.328	0.001	744767	COUNTDOWN_START	n/a	n/a	n/a	-999	7	[0, 0, 0]	n/a	FR1	0	R1092J
712.329	10.427	744768	TRIAL	n/a	n/a	n/a	-999	7	[0, 0, 0]	n/a	FR1	0	R1092J
722.756	0.007	755195	COUNTDOWN_END	n/a	n/a	n/a	-999	7	[0, 0, 0]	n/a	FR1	0	R1092J
722.763	2.468	755202	ORIENT	n/a	n/a	n/a	-999	7	[0, 0, 0]	n/a	FR1	0	R1092J
725.231	2.516	757669	WORD	n/a	wordpools/wordpool_EN.txt	BEAN	1	7	[0, 0, 0]	n/a	FR1	0	R1092J
727.747	2.552	760185	WORD	n/a	wordpools/wordpool_EN.txt	BIRD	2	7	[0, 0, 0]	n/a	FR1	0	R1092J
730.299	2.432	762737	WORD	n/a	wordpools/wordpool_EN.txt	FOOT	3	7	[0, 0, 0]	n/a	FR1	0	R1092J
732.731	2.634	765169	WORD	n/a	wordpools/wordpool_EN.txt	BEAK	4	7	[0, 0, 0]	n/a	FR1	0	R1092J
735.365	2.618	767803	WORD	n/a	wordpools/wordpool_EN.txt	PLANT	5	7	[0, 0, 0]	n/a	FR1	0	R1092J
737.983	2.516	770421	WORD	n/a	wordpools/wordpool_EN.txt	BLOOM	6	7	[0, 0, 0]	n/a	FR1	0	R1092J
740.499	2.501	772937	WORD	n/a	wordpools/wordpool_EN.txt	ANT	7	7	[0, 0, 0]	n/a	FR1	0	R1092J
743.0	2.399	775438	WORD	n/a	wordpools/wordpool_EN.txt	BEE	8	7	[0, 0, 0]	n/a	FR1	0	R1092J
745.399	2.434	777837	WORD	n/a	wordpools/wordpool_EN.txt	FOOD	9	7	[0, 0, 0]	n/a	FR1	0	R1092J
747.833	2.484	780271	WORD	n/a	wordpools/wordpool_EN.txt	BREAD	10	7	[0, 0, 0]	n/a	FR1	0	R1092J
750.317	2.55	782755	WORD	n/a	wordpools/wordpool_EN.txt	RICE	11	7	[0, 0, 0]	n/a	FR1	0	R1092J
752.867	1.617	785305	WORD	n/a	wordpools/wordpool_EN.txt	TREE	12	7	[0, 0, 0]	n/a	FR1	0	R1092J
754.484	0.001	786922	DISTRACT_START	n/a	n/a	n/a	-999	7	[0, 0, 0]	n/a	FR1	0	R1092J
754.485	0.015	786923	START	n/a	n/a	n/a	-999	7	[-999, -999, -999]	n/a	FR1	0	R1092J
754.5	4.569	786938	PROB	4.569	n/a	n/a	-999	7	[1, 7, 4]	12	FR1	0	R1092J
759.069	3.316	791507	PROB	3.316	n/a	n/a	-999	7	[5, 1, 4]	10	FR1	0	R1092J
762.385	3.284	794823	PROB	3.284	n/a	n/a	-999	7	[6, 6, 2]	14	FR1	0	R1092J
765.669	3.585	798107	PROB	3.585	n/a	n/a	-999	7	[4, 9, 7]	20	FR1	0	R1092J
769.254	2.366	801692	PROB	2.366	n/a	n/a	-999	7	[7, 3, 6]	16	FR1	0	R1092J
771.62	3.095	804058	PROB	3.095	n/a	n/a	-999	7	[7, 4, 8]	19	FR1	0	R1092J
774.715	0.005	807153	STOP	n/a	n/a	n/a	-999	7	[-999, -999, -999]	n/a	FR1	0	R1092J
774.72	1.051	807158	DISTRACT_END	n/a	n/a	n/a	-999	7	[0, 0, 0]	n/a	FR1	0	R1092J
775.771	2.258	808209	REC_START	n/a	n/a	n/a	-999	7	[0, 0, 0]	n/a	FR1	0	R1092J
778.029	1.005	810467	REC_WORD	1.005	n/a	BEAK	4	7	[0, 0, 0]	n/a	FR1	0	R1092J
779.034	2.086	811472	REC_WORD	2.086	n/a	BIRD	2	7	[0, 0, 0]	n/a	FR1	0	R1092J
781.12	7.565	813558	REC_WORD	7.565	n/a	FOOD	9	7	[0, 0, 0]	n/a	FR1	0	R1092J
788.685	8.205	821123	REC_WORD	8.205	n/a	ANT	7	7	[0, 0, 0]	n/a	FR1	0	R1092J
796.89	3.946	829328	REC_WORD	3.946	n/a	BREAD	10	7	[0, 0, 0]	n/a	FR1	0	R1092J
800.836	4.947	833274	REC_WORD	4.947	n/a	BEE	8	7	[0, 0, 0]	n/a	FR1	0	R1092J
805.783	3.058	838221	REC_END	n/a	n/a	n/a	-999	7	[0, 0, 0]	n/a	FR1	0	R1092J
808.841	0.0	841279	TRIAL	n/a	n/a	n/a	-999	8	[0, 0, 0]	n/a	FR1	0	R1092J
808.841	10.428	841279	COUNTDOWN_START	n/a	n/a	n/a	-999	8	[0, 0, 0]	n/a	FR1	0	R1092J
819.269	0.008	851707	COUNTDOWN_END	n/a	n/a	n/a	-999	8	[0, 0, 0]	n/a	FR1	0	R1092J
819.277	2.499	851715	ORIENT	n/a	n/a	n/a	-999	8	[0, 0, 0]	n/a	FR1	0	R1092J
821.776	2.434	854214	WORD	n/a	wordpools/wordpool_EN.txt	DOOR	1	8	[0, 0, 0]	n/a	FR1	0	R1092J
824.21	2.516	856648	WORD	n/a	wordpools/wordpool_EN.txt	SMILE	2	8	[0, 0, 0]	n/a	FR1	0	R1092J
826.726	2.618	859164	WORD	n/a	wordpools/wordpool_EN.txt	CLOCK	3	8	[0, 0, 0]	n/a	FR1	0	R1092J
829.344	2.483	861782	WORD	n/a	wordpools/wordpool_EN.txt	OAR	4	8	[0, 0, 0]	n/a	FR1	0	R1092J
831.827	2.567	864265	WORD	n/a	wordpools/wordpool_EN.txt	LAMP	5	8	[0, 0, 0]	n/a	FR1	0	R1092J
834.394	2.501	866832	WORD	n/a	wordpools/wordpool_EN.txt	STOVE	6	8	[0, 0, 0]	n/a	FR1	0	R1092J
836.895	2.467	869333	WORD	n/a	wordpools/wordpool_EN.txt	FLOOR	7	8	[0, 0, 0]	n/a	FR1	0	R1092J
839.362	2.483	871800	WORD	n/a	wordpools/wordpool_EN.txt	PEN	8	8	[0, 0, 0]	n/a	FR1	0	R1092J
841.845	2.6	874283	WORD	n/a	wordpools/wordpool_EN.txt	STICK	9	8	[0, 0, 0]	n/a	FR1	0	R1092J
844.445	2.502	876883	WORD	n/a	wordpools/wordpool_EN.txt	BOOT	10	8	[0, 0, 0]	n/a	FR1	0	R1092J
846.947	2.532	879385	WORD	n/a	wordpools/wordpool_EN.txt	DIME	11	8	[0, 0, 0]	n/a	FR1	0	R1092J
849.479	1.602	881917	WORD	n/a	wordpools/wordpool_EN.txt	ARM	12	8	[0, 0, 0]	n/a	FR1	0	R1092J
851.081	0.001	883519	DISTRACT_START	n/a	n/a	n/a	-999	8	[0, 0, 0]	n/a	FR1	0	R1092J
851.082	0.015	883520	START	n/a	n/a	n/a	-999	8	[-999, -999, -999]	n/a	FR1	0	R1092J
851.097	2.967	883535	PROB	2.967	n/a	n/a	-999	8	[5, 4, 3]	12	FR1	0	R1092J
854.064	2.884	886502	PROB	2.884	n/a	n/a	-999	8	[2, 7, 1]	10	FR1	0	R1092J
856.948	2.466	889386	PROB	2.466	n/a	n/a	-999	8	[8, 6, 8]	21	FR1	0	R1092J
859.414	3.735	891851	PROB	3.735	n/a	n/a	-999	8	[8, 3, 2]	13	FR1	0	R1092J
863.149	2.432	895586	PROB	2.432	n/a	n/a	-999	8	[5, 5, 7]	17	FR1	0	R1092J
865.581	2.318	898018	PROB	2.318	n/a	n/a	-999	8	[9, 1, 9]	19	FR1	0	R1092J
867.899	5.349	900336	PROB	5.349	n/a	n/a	-999	8	[1, 6, 7]	15	FR1	0	R1092J
873.248	0.019	905685	STOP	n/a	n/a	n/a	-999	8	[-999, -999, -999]	n/a	FR1	0	R1092J
873.267	1.083	905704	DISTRACT_END	n/a	n/a	n/a	-999	8	[0, 0, 0]	n/a	FR1	0	R1092J
874.35	4.363	906787	REC_START	n/a	n/a	n/a	-999	8	[0, 0, 0]	n/a	FR1	0	R1092J
878.713	0.719	911150	REC_WORD	0.719	n/a	CLOCK	3	8	[0, 0, 0]	n/a	FR1	0	R1092J
879.432	17.1	911869	REC_WORD	17.1	n/a	DOOR	1	8	[0, 0, 0]	n/a	FR1	0	R1092J
896.532	2.594	928969	REC_WORD	2.594	n/a	WALL	-999	8	[0, 0, 0]	n/a	FR1	0	R1092J
899.126	5.236	931563	REC_WORD	5.236	n/a	OAR	4	8	[0, 0, 0]	n/a	FR1	0	R1092J
904.362	7.092	936799	REC_END	n/a	n/a	n/a	-999	8	[0, 0, 0]	n/a	FR1	0	R1092J
911.454	0.0	943891	COUNTDOWN_START	n/a	n/a	n/a	-999	9	[0, 0, 0]	n/a	FR1	0	R1092J
911.454	10.428	943891	TRIAL	n/a	n/a	n/a	-999	9	[0, 0, 0]	n/a	FR1	0	R1092J
921.882	0.008	954319	COUNTDOWN_END	n/a	n/a	n/a	-999	9	[0, 0, 0]	n/a	FR1	0	R1092J
921.89	2.416	954327	ORIENT	n/a	n/a	n/a	-999	9	[0, 0, 0]	n/a	FR1	0	R1092J
924.306	2.433	956743	WORD	n/a	wordpools/wordpool_EN.txt	FLAME	1	9	[0, 0, 0]	n/a	FR1	0	R1092J
926.739	2.552	959176	WORD	n/a	wordpools/wordpool_EN.txt	SKI	2	9	[0, 0, 0]	n/a	FR1	0	R1092J
929.291	2.532	961728	WORD	n/a	wordpools/wordpool_EN.txt	PIN	3	9	[0, 0, 0]	n/a	FR1	0	R1092J
931.823	2.485	964260	WORD	n/a	wordpools/wordpool_EN.txt	APE	4	9	[0, 0, 0]	n/a	FR1	0	R1092J
934.308	2.584	966745	WORD	n/a	wordpools/wordpool_EN.txt	WAVE	5	9	[0, 0, 0]	n/a	FR1	0	R1092J
936.892	2.582	969329	WORD	n/a	wordpools/wordpool_EN.txt	BROOM	6	9	[0, 0, 0]	n/a	FR1	0	R1092J
939.474	2.502	971911	WORD	n/a	wordpools/wordpool_EN.txt	FUR	7	9	[0, 0, 0]	n/a	FR1	0	R1092J
941.976	2.599	974413	WORD	n/a	wordpools/wordpool_EN.txt	SNOW	8	9	[0, 0, 0]	n/a	FR1	0	R1092J
944.575	2.468	977012	WORD	n/a	wordpools/wordpool_EN.txt	FOG	9	9	[0, 0, 0]	n/a	FR1	0	R1092J
947.043	2.633	979480	WORD	n/a	wordpools/wordpool_EN.txt	BEACH	10	9	[0, 0, 0]	n/a	FR1	0	R1092J
949.676	2.467	982113	WORD	n/a	wordpools/wordpool_EN.txt	DRUM	11	9	[0, 0, 0]	n/a	FR1	0	R1092J
952.143	1.616	984580	WORD	n/a	wordpools/wordpool_EN.txt	LIP	12	9	[0, 0, 0]	n/a	FR1	0	R1092J
953.759	0.001	986196	DISTRACT_START	n/a	n/a	n/a	-999	9	[0, 0, 0]	n/a	FR1	0	R1092J
953.76	0.016	986197	START	n/a	n/a	n/a	-999	9	[-999, -999, -999]	n/a	FR1	0	R1092J
953.776	4.567	986213	PROB	4.567	n/a	n/a	-999	9	[1, 1, 4]	6	FR1	0	R1092J
958.343	2.251	990780	PROB	2.251	n/a	n/a	-999	9	[5, 6, 7]	18	FR1	0	R1092J
960.594	2.917	993031	PROB	2.917	n/a	n/a	-999	9	[2, 3, 8]	13	FR1	0	R1092J
963.511	3.033	995948	PROB	3.033	n/a	n/a	-999	9	[5, 1, 2]	8	FR1	0	R1092J
966.544	3.818	998981	PROB	3.818	n/a	n/a	-999	9	[4, 5, 7]	16	FR1	0	R1092J
970.362	2.383	1002799	PROB	2.383	n/a	n/a	-999	9	[7, 1, 7]	15	FR1	0	R1092J
972.745	2.194	1005182	PROB	2.194	n/a	n/a	-999	9	[8, 8, 2]	18	FR1	0	R1092J
974.939	0.007	1007376	STOP	n/a	n/a	n/a	-999	9	[-999, -999, -999]	n/a	FR1	0	R1092J
974.946	1.118	1007383	DISTRACT_END	n/a	n/a	n/a	-999	9	[0, 0, 0]	n/a	FR1	0	R1092J
976.064	1.743	1008501	REC_START	n/a	n/a	n/a	-999	9	[0, 0, 0]	n/a	FR1	0	R1092J
977.807	1.018	1010244	REC_WORD	1.018	n/a	SKI	2	9	[0, 0, 0]	n/a	FR1	0	R1092J
978.825	2.144	1011262	REC_WORD	2.144	n/a	SNOW	8	9	[0, 0, 0]	n/a	FR1	0	R1092J
980.969	16.544	1013406	REC_WORD	16.544	n/a	APE	4	9	[0, 0, 0]	n/a	FR1	0	R1092J
997.513	8.563	1029949	REC_WORD	8.563	n/a	FLOOD	-999	9	[0, 0, 0]	n/a	FR1	0	R1092J
1006.076	5.708	1038512	REC_END	n/a	n/a	n/a	-999	9	[0, 0, 0]	n/a	FR1	0	R1092J
1011.784	0.0	1044220	TRIAL	n/a	n/a	n/a	-999	10	[0, 0, 0]	n/a	FR1	0	R1092J
1011.784	10.428	1044220	COUNTDOWN_START	n/a	n/a	n/a	-999	10	[0, 0, 0]	n/a	FR1	0	R1092J
1022.212	0.007	1054648	COUNTDOWN_END	n/a	n/a	n/a	-999	10	[0, 0, 0]	n/a	FR1	0	R1092J
1022.219	2.616	1054655	ORIENT	n/a	n/a	n/a	-999	10	[0, 0, 0]	n/a	FR1	0	R1092J
1024.835	2.601	1057271	WORD	n/a	wordpools/wordpool_EN.txt	STORM	1	10	[0, 0, 0]	n/a	FR1	0	R1092J
1027.436	2.618	1059872	WORD	n/a	wordpools/wordpool_EN.txt	FOAM	2	10	[0, 0, 0]	n/a	FR1	0	R1092J
1030.054	2.465	1062490	WORD	n/a	wordpools/wordpool_EN.txt	STRAW	3	10	[0, 0, 0]	n/a	FR1	0	R1092J
1032.519	2.418	1064955	WORD	n/a	wordpools/wordpool_EN.txt	TRASH	4	10	[0, 0, 0]	n/a	FR1	0	R1092J
1034.937	2.433	1067373	WORD	n/a	wordpools/wordpool_EN.txt	CLIFF	5	10	[0, 0, 0]	n/a	FR1	0	R1092J
1037.37	2.451	1069806	WORD	n/a	wordpools/wordpool_EN.txt	STAIR	6	10	[0, 0, 0]	n/a	FR1	0	R1092J
1039.821	2.467	1072257	WORD	n/a	wordpools/wordpool_EN.txt	GLASS	7	10	[0, 0, 0]	n/a	FR1	0	R1092J
1042.288	2.416	1074724	WORD	n/a	wordpools/wordpool_EN.txt	WHALE	8	10	[0, 0, 0]	n/a	FR1	0	R1092J
1044.704	2.535	1077140	WORD	n/a	wordpools/wordpool_EN.txt	BRICK	9	10	[0, 0, 0]	n/a	FR1	0	R1092J
1047.239	2.5	1079675	WORD	n/a	wordpools/wordpool_EN.txt	SMOKE	10	10	[0, 0, 0]	n/a	FR1	0	R1092J
1049.739	2.417	1082175	WORD	n/a	wordpools/wordpool_EN.txt	ROPE	11	10	[0, 0, 0]	n/a	FR1	0	R1092J
1052.156	1.616	1084592	WORD	n/a	wordpools/wordpool_EN.txt	ROCK	12	10	[0, 0, 0]	n/a	FR1	0	R1092J
1053.772	0.001	1086208	DISTRACT_START	n/a	n/a	n/a	-999	10	[0, 0, 0]	n/a	FR1	0	R1092J
1053.773	0.016	1086209	START	n/a	n/a	n/a	-999	10	[-999, -999, -999]	n/a	FR1	0	R1092J
1053.789	4.485	1086225	PROB	4.485	n/a	n/a	-999	10	[9, 6, 9]	24	FR1	0	R1092J
1058.274	2.017	1090710	PROB	2.017	n/a	n/a	-999	10	[1, 5, 6]	12	FR1	0	R1092J
1060.291	4.433	1092727	PROB	4.433	n/a	n/a	-999	10	[7, 9, 7]	23	FR1	0	R1092J
1064.724	2.218	1097160	PROB	2.218	n/a	n/a	-999	10	[8, 2, 1]	11	FR1	0	R1092J
1066.942	2.666	1099378	PROB	2.666	n/a	n/a	-999	10	[3, 5, 2]	10	FR1	0	R1092J
1069.608	2.267	1102044	PROB	2.267	n/a	n/a	-999	10	[1, 5, 9]	15	FR1	0	R1092J
1071.875	2.14	1104311	PROB	2.14	n/a	n/a	-999	10	[9, 1, 3]	13	FR1	0	R1092J
1074.015	0.011	1106451	STOP	n/a	n/a	n/a	-999	10	[-999, -999, -999]	n/a	FR1	0	R1092J
1074.026	1.084	1106462	DISTRACT_END	n/a	n/a	n/a	-999	10	[0, 0, 0]	n/a	FR1	0	R1092J
1075.11	2.508	1107546	REC_START	n/a	n/a	n/a	-999	10	[0, 0, 0]	n/a	FR1	0	R1092J
1077.618	5.182	1110054	REC_WORD	5.182	n/a	STORM	1	10	[0, 0, 0]	n/a	FR1	0	R1092J
1082.8	6.873	1115236	REC_WORD	6.873	n/a	FOAM	2	10	[0, 0, 0]	n/a	FR1	0	R1092J
1089.673	0.442	1122109	REC_WORD_VV	0.442	n/a	<>	-999	10	[0, 0, 0]	n/a	FR1	0	R1092J
1090.115	5.953	1122551	REC_WORD	5.953	n/a	FLOOD	-999	10	[0, 0, 0]	n/a	FR1	0	R1092J
1096.068	3.458	1128504	REC_WORD	3.458	n/a	APE	-999	10	[0, 0, 0]	n/a	FR1	0	R1092J
1099.526	4.819	1131962	REC_WORD	4.819	n/a	WHALE	8	10	[0, 0, 0]	n/a	FR1	0	R1092J
1104.345	0.777	1136781	REC_WORD	0.777	n/a	FLOOD	-999	10	[0, 0, 0]	n/a	FR1	0	R1092J
1105.122	3.341	1137558	REC_END	n/a	n/a	n/a	-999	10	[0, 0, 0]	n/a	FR1	0	R1092J
1108.463	0.0	1140899	TRIAL	n/a	n/a	n/a	-999	11	[0, 0, 0]	n/a	FR1	0	R1092J
1108.463	10.428	1140899	COUNTDOWN_START	n/a	n/a	n/a	-999	11	[0, 0, 0]	n/a	FR1	0	R1092J
1118.891	0.007	1151327	COUNTDOWN_END	n/a	n/a	n/a	-999	11	[0, 0, 0]	n/a	FR1	0	R1092J
1118.898	2.55	1151334	ORIENT	n/a	n/a	n/a	-999	11	[0, 0, 0]	n/a	FR1	0	R1092J
1121.448	2.601	1153883	WORD	n/a	wordpools/wordpool_EN.txt	SEA	1	11	[0, 0, 0]	n/a	FR1	0	R1092J
1124.049	2.483	1156484	WORD	n/a	wordpools/wordpool_EN.txt	STAR	2	11	[0, 0, 0]	n/a	FR1	0	R1092J
1126.532	2.501	1158967	WORD	n/a	wordpools/wordpool_EN.txt	SHIP	3	11	[0, 0, 0]	n/a	FR1	0	R1092J
1129.033	2.533	1161468	WORD	n/a	wordpools/wordpool_EN.txt	STEAM	4	11	[0, 0, 0]	n/a	FR1	0	R1092J
1131.566	2.584	1164001	WORD	n/a	wordpools/wordpool_EN.txt	BOMB	5	11	[0, 0, 0]	n/a	FR1	0	R1092J
1134.15	2.566	1166585	WORD	n/a	wordpools/wordpool_EN.txt	JEEP	6	11	[0, 0, 0]	n/a	FR1	0	R1092J
1136.716	2.518	1169151	WORD	n/a	wordpools/wordpool_EN.txt	PLANE	7	11	[0, 0, 0]	n/a	FR1	0	R1092J
1139.234	2.45	1171669	WORD	n/a	wordpools/wordpool_EN.txt	MOON	8	11	[0, 0, 0]	n/a	FR1	0	R1092J
1141.684	2.417	1174119	WORD	n/a	wordpools/wordpool_EN.txt	FILM	9	11	[0, 0, 0]	n/a	FR1	0	R1092J
1144.101	2.566	1176536	WORD	n/a	wordpools/wordpool_EN.txt	CLOUD	10	11	[0, 0, 0]	n/a	FR1	0	R1092J
1146.667	2.402	1179102	WORD	n/a	wordpools/wordpool_EN.txt	TANK	11	11	[0, 0, 0]	n/a	FR1	0	R1092J
1149.069	1.616	1181504	WORD	n/a	wordpools/wordpool_EN.txt	FLUTE	12	11	[0, 0, 0]	n/a	FR1	0	R1092J
1150.685	0.001	1183120	DISTRACT_START	n/a	n/a	n/a	-999	11	[0, 0, 0]	n/a	FR1	0	R1092J
1150.686	0.015	1183121	START	n/a	n/a	n/a	-999	11	[-999, -999, -999]	n/a	FR1	0	R1092J
1150.701	3.751	1183136	PROB	3.751	n/a	n/a	-999	11	[4, 4, 7]	15	FR1	0	R1092J
1154.452	6.001	1186887	PROB	6.001	n/a	n/a	-999	11	[8, 6, 5]	19	FR1	0	R1092J
1160.453	3.183	1192888	PROB	3.183	n/a	n/a	-999	11	[6, 8, 9]	23	FR1	0	R1092J
1163.636	2.751	1196071	PROB	2.751	n/a	n/a	-999	11	[4, 3, 6]	13	FR1	0	R1092J
1166.387	2.868	1198822	PROB	2.868	n/a	n/a	-999	11	[1, 3, 1]	5	FR1	0	R1092J
1169.255	2.764	1201690	PROB	2.764	n/a	n/a	-999	11	[4, 2, 6]	12	FR1	0	R1092J
1172.019	0.003	1204454	STOP	n/a	n/a	n/a	-999	11	[-999, -999, -999]	n/a	FR1	0	R1092J
1172.022	1.117	1204457	DISTRACT_END	n/a	n/a	n/a	-999	11	[0, 0, 0]	n/a	FR1	0	R1092J
1173.139	8.445	1205574	REC_START	n/a	n/a	n/a	-999	11	[0, 0, 0]	n/a	FR1	0	R1092J
1181.584	1.252	1214019	REC_WORD	1.252	n/a	STORM	-999	11	[0, 0, 0]	n/a	FR1	0	R1092J
1182.836	0.993	1215271	REC_WORD	0.993	n/a	FLOW	-999	11	[0, 0, 0]	n/a	FR1	0	R1092J
1183.829	0.974	1216264	REC_WORD	0.974	n/a	SEA	1	11	[0, 0, 0]	n/a	FR1	0	R1092J
1184.803	12.196	1217238	REC_WORD	12.196	n/a	SHIP	3	11	[0, 0, 0]	n/a	FR1	0	R1092J
1196.999	0.753	1229434	REC_WORD	0.753	n/a	MOON	8	11	[0, 0, 0]	n/a	FR1	0	R1092J
1197.752	1.64	1230187	REC_WORD	1.64	n/a	STAR	2	11	[0, 0, 0]	n/a	FR1	0	R1092J
1199.392	3.759	1231827	REC_WORD	3.759	n/a	STEAM	4	11	[0, 0, 0]	n/a	FR1	0	R1092J
1203.151	3.759	1235586	REC_END	n/a	n/a	n/a	-999	11	[0, 0, 0]	n/a	FR1	0	R1092J
1206.91	0.0	1239345	TRIAL	n/a	n/a	n/a	-999	12	[0, 0, 0]	n/a	FR1	0	R1092J
1206.91	10.428	1239345	COUNTDOWN_START	n/a	n/a	n/a	-999	12	[0, 0, 0]	n/a	FR1	0	R1092J
1217.338	0.005	1249773	COUNTDOWN_END	n/a	n/a	n/a	-999	12	[0, 0, 0]	n/a	FR1	0	R1092J
1217.343	2.501	1249778	ORIENT	n/a	n/a	n/a	-999	12	[0, 0, 0]	n/a	FR1	0	R1092J
1219.844	2.533	1252279	WORD	n/a	wordpools/wordpool_EN.txt	GATE	1	12	[0, 0, 0]	n/a	FR1	0	R1092J
1222.377	2.45	1254812	WORD	n/a	wordpools/wordpool_EN.txt	HILL	2	12	[0, 0, 0]	n/a	FR1	0	R1092J
1224.827	2.485	1257262	WORD	n/a	wordpools/wordpool_EN.txt	MULE	3	12	[0, 0, 0]	n/a	FR1	0	R1092J
1227.312	2.433	1259747	WORD	n/a	wordpools/wordpool_EN.txt	NEST	4	12	[0, 0, 0]	n/a	FR1	0	R1092J
1229.745	2.401	1262180	WORD	n/a	wordpools/wordpool_EN.txt	DOG	5	12	[0, 0, 0]	n/a	FR1	0	R1092J
1232.146	2.599	1264581	WORD	n/a	wordpools/wordpool_EN.txt	GEESE	6	12	[0, 0, 0]	n/a	FR1	0	R1092J
1234.745	2.518	1267180	WORD	n/a	wordpools/wordpool_EN.txt	CHIEF	7	12	[0, 0, 0]	n/a	FR1	0	R1092J
1237.263	2.433	1269698	WORD	n/a	wordpools/wordpool_EN.txt	EEL	8	12	[0, 0, 0]	n/a	FR1	0	R1092J
1239.696	2.418	1272131	WORD	n/a	wordpools/wordpool_EN.txt	GOAT	9	12	[0, 0, 0]	n/a	FR1	0	R1092J
1242.114	2.499	1274549	WORD	n/a	wordpools/wordpool_EN.txt	SKY	10	12	[0, 0, 0]	n/a	FR1	0	R1092J
1244.613	2.568	1277048	WORD	n/a	wordpools/wordpool_EN.txt	DUCK	11	12	[0, 0, 0]	n/a	FR1	0	R1092J
1247.181	1.616	1279616	WORD	n/a	wordpools/wordpool_EN.txt	SWORD	12	12	[0, 0, 0]	n/a	FR1	0	R1092J
1248.797	0.001	1281232	DISTRACT_START	n/a	n/a	n/a	-999	12	[0, 0, 0]	n/a	FR1	0	R1092J
1248.798	0.016	1281233	START	n/a	n/a	n/a	-999	12	[-999, -999, -999]	n/a	FR1	0	R1092J
1248.814	3.534	1281249	PROB	3.534	n/a	n/a	-999	12	[9, 1, 3]	13	FR1	0	R1092J
1252.348	2.5	1284783	PROB	2.5	n/a	n/a	-999	12	[7, 2, 1]	10	FR1	0	R1092J
1254.848	3.667	1287282	PROB	3.667	n/a	n/a	-999	12	[9, 4, 3]	16	FR1	0	R1092J
1258.515	2.385	1290949	PROB	2.385	n/a	n/a	-999	12	[2, 6, 6]	14	FR1	0	R1092J
1260.9	2.217	1293334	PROB	2.217	n/a	n/a	-999	12	[7, 8, 2]	17	FR1	0	R1092J
1263.117	3.1	1295551	PROB	3.1	n/a	n/a	-999	12	[4, 9, 2]	15	FR1	0	R1092J
1266.217	1.867	1298651	PROB	1.867	n/a	n/a	-999	12	[1, 9, 2]	12	FR1	0	R1092J
1268.084	3.467	1300518	PROB	3.467	n/a	n/a	-999	12	[8, 3, 4]	15	FR1	0	R1092J
1271.551	0.016	1303985	STOP	n/a	n/a	n/a	-999	12	[-999, -999, -999]	n/a	FR1	0	R1092J
1271.567	1.118	1304001	DISTRACT_END	n/a	n/a	n/a	-999	12	[0, 0, 0]	n/a	FR1	0	R1092J
1272.685	3.66	1305119	REC_START	n/a	n/a	n/a	-999	12	[0, 0, 0]	n/a	FR1	0	R1092J
1276.345	2.951	1308779	REC_WORD	2.951	n/a	CHIEF	7	12	[0, 0, 0]	n/a	FR1	0	R1092J
1279.296	10.443	1311730	REC_WORD	10.443	n/a	EEL	8	12	[0, 0, 0]	n/a	FR1	0	R1092J
1289.739	1.198	1322173	REC_WORD	1.198	n/a	STORM	-999	12	[0, 0, 0]	n/a	FR1	0	R1092J
1290.937	11.758	1323371	REC_WORD	11.758	n/a	SEA	-999	12	[0, 0, 0]	n/a	FR1	0	R1092J
1302.695	4.294	1335129	REC_END	n/a	n/a	n/a	-999	12	[0, 0, 0]	n/a	FR1	0	R1092J
1306.989	0.0	1339423	TRIAL	n/a	n/a	n/a	-999	13	[0, 0, 0]	n/a	FR1	0	R1092J
1306.989	10.428	1339423	COUNTDOWN_START	n/a	n/a	n/a	-999	13	[0, 0, 0]	n/a	FR1	0	R1092J
1317.417	0.006	1349851	COUNTDOWN_END	n/a	n/a	n/a	-999	13	[0, 0, 0]	n/a	FR1	0	R1092J
1317.423	2.601	1349857	ORIENT	n/a	n/a	n/a	-999	13	[0, 0, 0]	n/a	FR1	0	R1092J
1320.024	2.516	1352458	WORD	n/a	wordpools/wordpool_EN.txt	LAND	1	13	[0, 0, 0]	n/a	FR1	0	R1092J
1322.54	2.601	1354974	WORD	n/a	wordpools/wordpool_EN.txt	LAKE	2	13	[0, 0, 0]	n/a	FR1	0	R1092J
1325.141	2.433	1357575	WORD	n/a	wordpools/wordpool_EN.txt	FARM	3	13	[0, 0, 0]	n/a	FR1	0	R1092J
1327.574	2.401	1360008	WORD	n/a	wordpools/wordpool_EN.txt	TOY	4	13	[0, 0, 0]	n/a	FR1	0	R1092J
1329.975	2.55	1362409	WORD	n/a	wordpools/wordpool_EN.txt	ZOO	5	13	[0, 0, 0]	n/a	FR1	0	R1092J
1332.525	2.551	1364959	WORD	n/a	wordpools/wordpool_EN.txt	TEA	6	13	[0, 0, 0]	n/a	FR1	0	R1092J
1335.076	2.383	1367510	WORD	n/a	wordpools/wordpool_EN.txt	HEART	7	13	[0, 0, 0]	n/a	FR1	0	R1092J
1337.459	2.518	1369893	WORD	n/a	wordpools/wordpool_EN.txt	CAT	8	13	[0, 0, 0]	n/a	FR1	0	R1092J
1339.977	2.565	1372411	WORD	n/a	wordpools/wordpool_EN.txt	BRIDGE	9	13	[0, 0, 0]	n/a	FR1	0	R1092J
1342.542	2.602	1374976	WORD	n/a	wordpools/wordpool_EN.txt	SHRIMP	10	13	[0, 0, 0]	n/a	FR1	0	R1092J
1345.144	2.549	1377578	WORD	n/a	wordpools/wordpool_EN.txt	FORT	11	13	[0, 0, 0]	n/a	FR1	0	R1092J
1347.693	1.601	1380127	WORD	n/a	wordpools/wordpool_EN.txt	GOLD	12	13	[0, 0, 0]	n/a	FR1	0	R1092J
1349.294	0.001	1381728	DISTRACT_START	n/a	n/a	n/a	-999	13	[0, 0, 0]	n/a	FR1	0	R1092J
1349.295	0.016	1381729	START	n/a	n/a	n/a	-999	13	[-999, -999, -999]	n/a	FR1	0	R1092J
1349.311	4.216	1381745	PROB	4.216	n/a	n/a	-999	13	[5, 9, 9]	23	FR1	0	R1092J
1353.527	2.251	1385961	PROB	2.251	n/a	n/a	-999	13	[5, 8, 9]	21	FR1	0	R1092J
1355.778	3.583	1388212	PROB	3.583	n/a	n/a	-999	13	[6, 9, 3]	18	FR1	0	R1092J
1359.361	2.868	1391795	PROB	2.868	n/a	n/a	-999	13	[9, 4, 9]	22	FR1	0	R1092J
1362.229	2.483	1394663	PROB	2.483	n/a	n/a	-999	13	[3, 2, 3]	8	FR1	0	R1092J
1364.712	2.617	1397146	PROB	2.617	n/a	n/a	-999	13	[3, 9, 8]	20	FR1	0	R1092J
1367.329	3.489	1399763	PROB	3.489	n/a	n/a	-999	13	[7, 1, 6]	15	FR1	0	R1092J
1370.818	0.012	1403252	STOP	n/a	n/a	n/a	-999	13	[-999, -999, -999]	n/a	FR1	0	R1092J
1370.83	1.118	1403264	DISTRACT_END	n/a	n/a	n/a	-999	13	[0, 0, 0]	n/a	FR1	0	R1092J
1371.948	5.211	1404382	REC_START	n/a	n/a	n/a	-999	13	[0, 0, 0]	n/a	FR1	0	R1092J
1377.159	0.866	1409593	REC_WORD	0.866	n/a	LAKE	2	13	[0, 0, 0]	n/a	FR1	0	R1092J
1378.025	1.161	1410459	REC_WORD	1.161	n/a	LAND	1	13	[0, 0, 0]	n/a	FR1	0	R1092J
1379.186	1.637	1411620	REC_WORD	1.637	n/a	STORM	-999	13	[0, 0, 0]	n/a	FR1	0	R1092J
1380.823	1.224	1413257	REC_WORD	1.224	n/a	EEL	-999	13	[0, 0, 0]	n/a	FR1	0	R1092J
1382.047	4.269	1414481	REC_WORD	4.269	n/a	SHRIMP	10	13	[0, 0, 0]	n/a	FR1	0	R1092J
1386.316	7.913	1418749	REC_WORD	7.913	n/a	TEA	6	13	[0, 0, 0]	n/a	FR1	0	R1092J
1394.229	5.123	1426662	REC_WORD	5.123	n/a	FARM	3	13	[0, 0, 0]	n/a	FR1	0	R1092J
1399.352	2.613	1431785	REC_WORD	2.613	n/a	INK	-999	13	[0, 0, 0]	n/a	FR1	0	R1092J
1401.965	2.769	1434398	REC_END	n/a	n/a	n/a	-999	13	[0, 0, 0]	n/a	FR1	0	R1092J
1404.734	0.0	1437167	TRIAL	n/a	n/a	n/a	-999	14	[0, 0, 0]	n/a	FR1	0	R1092J
1404.734	10.428	1437167	COUNTDOWN_START	n/a	n/a	n/a	-999	14	[0, 0, 0]	n/a	FR1	0	R1092J
1415.162	0.008	1447595	COUNTDOWN_END	n/a	n/a	n/a	-999	14	[0, 0, 0]	n/a	FR1	0	R1092J
1415.17	2.499	1447603	ORIENT	n/a	n/a	n/a	-999	14	[0, 0, 0]	n/a	FR1	0	R1092J
1417.669	2.618	1450102	WORD	n/a	wordpools/wordpool_EN.txt	JUDGE	1	14	[0, 0, 0]	n/a	FR1	0	R1092J
1420.287	2.617	1452720	WORD	n/a	wordpools/wordpool_EN.txt	KEY	2	14	[0, 0, 0]	n/a	FR1	0	R1092J
1422.904	2.515	1455337	WORD	n/a	wordpools/wordpool_EN.txt	BOY	3	14	[0, 0, 0]	n/a	FR1	0	R1092J
1425.419	2.368	1457852	WORD	n/a	wordpools/wordpool_EN.txt	DESK	4	14	[0, 0, 0]	n/a	FR1	0	R1092J
1427.787	2.518	1460220	WORD	n/a	wordpools/wordpool_EN.txt	CASH	5	14	[0, 0, 0]	n/a	FR1	0	R1092J
1430.305	2.432	1462738	WORD	n/a	wordpools/wordpool_EN.txt	FLAG	6	14	[0, 0, 0]	n/a	FR1	0	R1092J
1432.737	2.485	1465170	WORD	n/a	wordpools/wordpool_EN.txt	BADGE	7	14	[0, 0, 0]	n/a	FR1	0	R1092J
1435.222	2.433	1467655	WORD	n/a	wordpools/wordpool_EN.txt	ROOM	8	14	[0, 0, 0]	n/a	FR1	0	R1092J
1437.655	2.551	1470088	WORD	n/a	wordpools/wordpool_EN.txt	CAR	9	14	[0, 0, 0]	n/a	FR1	0	R1092J
1440.206	2.499	1472639	WORD	n/a	wordpools/wordpool_EN.txt	SIGN	10	14	[0, 0, 0]	n/a	FR1	0	R1092J
1442.705	2.468	1475138	WORD	n/a	wordpools/wordpool_EN.txt	ARK	11	14	[0, 0, 0]	n/a	FR1	0	R1092J
1445.173	1.616	1477606	WORD	n/a	wordpools/wordpool_EN.txt	PIE	12	14	[0, 0, 0]	n/a	FR1	0	R1092J
1446.789	0.001	1479222	DISTRACT_START	n/a	n/a	n/a	-999	14	[0, 0, 0]	n/a	FR1	0	R1092J
1446.79	0.016	1479223	START	n/a	n/a	n/a	-999	14	[-999, -999, -999]	n/a	FR1	0	R1092J
1446.806	3.517	1479239	PROB	3.517	n/a	n/a	-999	14	[4, 8, 3]	15	FR1	0	R1092J
1450.323	3.05	1482756	PROB	3.05	n/a	n/a	-999	14	[7, 9, 7]	22	FR1	0	R1092J
1453.373	2.067	1485806	PROB	2.067	n/a	n/a	-999	14	[1, 9, 2]	12	FR1	0	R1092J
1455.44	3.652	1487873	PROB	3.652	n/a	n/a	-999	14	[6, 7, 5]	18	FR1	0	R1092J
1459.092	2.533	1491525	PROB	2.533	n/a	n/a	-999	14	[7, 2, 7]	16	FR1	0	R1092J
1461.625	2.334	1494058	PROB	2.334	n/a	n/a	-999	14	[7, 7, 4]	18	FR1	0	R1092J
1463.959	4.455	1496392	PROB	4.455	n/a	n/a	-999	14	[5, 4, 7]	16	FR1	0	R1092J
1468.414	0.011	1500847	STOP	n/a	n/a	n/a	-999	14	[-999, -999, -999]	n/a	FR1	0	R1092J
1468.425	1.118	1500858	DISTRACT_END	n/a	n/a	n/a	-999	14	[0, 0, 0]	n/a	FR1	0	R1092J
1469.543	11.979	1501976	REC_START	n/a	n/a	n/a	-999	14	[0, 0, 0]	n/a	FR1	0	R1092J
1481.522	2.158	1513955	REC_WORD	2.158	n/a	BOY	3	14	[0, 0, 0]	n/a	FR1	0	R1092J
1483.68	2.369	1516113	REC_WORD	2.369	n/a	STORM	-999	14	[0, 0, 0]	n/a	FR1	0	R1092J
1486.049	2.695	1518482	REC_WORD	2.695	n/a	ARK	11	14	[0, 0, 0]	n/a	FR1	0	R1092J
1488.744	5.741	1521177	REC_WORD	5.741	n/a	EEL	-999	14	[0, 0, 0]	n/a	FR1	0	R1092J
1494.485	5.07	1526918	REC_WORD	5.07	n/a	MOOSE	-999	14	[0, 0, 0]	n/a	FR1	0	R1092J
1499.555	3.692	1531988	REC_END	n/a	n/a	n/a	-999	14	[0, 0, 0]	n/a	FR1	0	R1092J
1503.247	0.001	1535680	COUNTDOWN_START	n/a	n/a	n/a	-999	15	[0, 0, 0]	n/a	FR1	0	R1092J
1503.248	10.427	1535681	TRIAL	n/a	n/a	n/a	-999	15	[0, 0, 0]	n/a	FR1	0	R1092J
1513.675	0.006	1546108	COUNTDOWN_END	n/a	n/a	n/a	-999	15	[0, 0, 0]	n/a	FR1	0	R1092J
1513.681	2.401	1546114	ORIENT	n/a	n/a	n/a	-999	15	[0, 0, 0]	n/a	FR1	0	R1092J
1516.082	2.383	1548515	WORD	n/a	wordpools/wordpool_EN.txt	SUN	1	15	[0, 0, 0]	n/a	FR1	0	R1092J
1518.465	2.535	1550897	WORD	n/a	wordpools/wordpool_EN.txt	CAPE	2	15	[0, 0, 0]	n/a	FR1	0	R1092J
1521.0	2.599	1553432	WORD	n/a	wordpools/wordpool_EN.txt	BATH	3	15	[0, 0, 0]	n/a	FR1	0	R1092J
1523.599	2.635	1556031	WORD	n/a	wordpools/wordpool_EN.txt	SAIL	4	15	[0, 0, 0]	n/a	FR1	0	R1092J
1526.234	2.416	1558666	WORD	n/a	wordpools/wordpool_EN.txt	LEG	5	15	[0, 0, 0]	n/a	FR1	0	R1092J
1528.65	2.568	1561082	WORD	n/a	wordpools/wordpool_EN.txt	ROSE	6	15	[0, 0, 0]	n/a	FR1	0	R1092J
1531.218	2.466	1563650	WORD	n/a	wordpools/wordpool_EN.txt	RUG	7	15	[0, 0, 0]	n/a	FR1	0	R1092J
1533.684	2.568	1566116	WORD	n/a	wordpools/wordpool_EN.txt	MOOSE	8	15	[0, 0, 0]	n/a	FR1	0	R1092J
1536.252	2.566	1568684	WORD	n/a	wordpools/wordpool_EN.txt	BOAT	9	15	[0, 0, 0]	n/a	FR1	0	R1092J
1538.818	2.418	1571250	WORD	n/a	wordpools/wordpool_EN.txt	ICE	10	15	[0, 0, 0]	n/a	FR1	0	R1092J
1541.236	2.382	1573668	WORD	n/a	wordpools/wordpool_EN.txt	CAKE	11	15	[0, 0, 0]	n/a	FR1	0	R1092J
1543.618	1.601	1576050	WORD	n/a	wordpools/wordpool_EN.txt	FENCE	12	15	[0, 0, 0]	n/a	FR1	0	R1092J
1545.219	0.001	1577651	DISTRACT_START	n/a	n/a	n/a	-999	15	[0, 0, 0]	n/a	FR1	0	R1092J
1545.22	0.016	1577652	START	n/a	n/a	n/a	-999	15	[-999, -999, -999]	n/a	FR1	0	R1092J
1545.236	3.45	1577668	PROB	3.45	n/a	n/a	-999	15	[7, 3, 6]	16	FR1	0	R1092J
1548.686	3.034	1581118	PROB	3.034	n/a	n/a	-999	15	[6, 5, 6]	17	FR1	0	R1092J
1551.72	2.584	1584152	PROB	2.584	n/a	n/a	-999	15	[7, 1, 8]	16	FR1	0	R1092J
1554.304	1.8	1586736	PROB	1.8	n/a	n/a	-999	15	[6, 4, 2]	12	FR1	0	R1092J
1556.104	2.201	1588536	PROB	2.201	n/a	n/a	-999	15	[3, 5, 4]	12	FR1	0	R1092J
1558.305	2.482	1590737	PROB	2.482	n/a	n/a	-999	15	[8, 6, 2]	16	FR1	0	R1092J
1560.787	4.448	1593219	PROB	4.448	n/a	n/a	-999	15	[8, 1, 7]	16	FR1	0	R1092J
1565.235	0.02	1597667	STOP	n/a	n/a	n/a	-999	15	[-999, -999, -999]	n/a	FR1	0	R1092J
1565.255	1.167	1597687	DISTRACT_END	n/a	n/a	n/a	-999	15	[0, 0, 0]	n/a	FR1	0	R1092J
1566.422	2.527	1598854	REC_START	n/a	n/a	n/a	-999	15	[0, 0, 0]	n/a	FR1	0	R1092J
1568.949	1.02	1601381	REC_WORD	1.02	n/a	CAPE	2	15	[0, 0, 0]	n/a	FR1	0	R1092J
1569.969	2.677	1602401	REC_WORD	2.677	n/a	SUN	1	15	[0, 0, 0]	n/a	FR1	0	R1092J
1572.646	5.148	1605078	REC_WORD	5.148	n/a	STORM	-999	15	[0, 0, 0]	n/a	FR1	0	R1092J
1577.794	7.352	1610226	REC_WORD	7.352	n/a	ROSE	6	15	[0, 0, 0]	n/a	FR1	0	R1092J
1585.146	4.761	1617578	REC_WORD	4.761	n/a	SEA	-999	15	[0, 0, 0]	n/a	FR1	0	R1092J
1589.907	4.451	1622339	REC_WORD	4.451	n/a	ARM	-999	15	[0, 0, 0]	n/a	FR1	0	R1092J
1594.358	2.076	1626790	REC_WORD	2.076	n/a	FLEA	-999	15	[0, 0, 0]	n/a	FR1	0	R1092J
1596.434	5.092	1628866	REC_END	n/a	n/a	n/a	-999	15	[0, 0, 0]	n/a	FR1	0	R1092J
1601.526	0.0	1633958	TRIAL	n/a	n/a	n/a	-999	16	[0, 0, 0]	n/a	FR1	0	R1092J
1601.526	10.428	1633958	COUNTDOWN_START	n/a	n/a	n/a	-999	16	[0, 0, 0]	n/a	FR1	0	R1092J
1611.954	0.008	1644386	COUNTDOWN_END	n/a	n/a	n/a	-999	16	[0, 0, 0]	n/a	FR1	0	R1092J
1611.962	2.415	1644394	ORIENT	n/a	n/a	n/a	-999	16	[0, 0, 0]	n/a	FR1	0	R1092J
1614.377	2.535	1646809	WORD	n/a	wordpools/wordpool_EN.txt	SOAP	1	16	[0, 0, 0]	n/a	FR1	0	R1092J
1616.912	2.55	1649344	WORD	n/a	wordpools/wordpool_EN.txt	PALM	2	16	[0, 0, 0]	n/a	FR1	0	R1092J
1619.462	2.468	1651894	WORD	n/a	wordpools/wordpool_EN.txt	CANE	3	16	[0, 0, 0]	n/a	FR1	0	R1092J
1621.93	2.415	1654362	WORD	n/a	wordpools/wordpool_EN.txt	JAR	4	16	[0, 0, 0]	n/a	FR1	0	R1092J
1624.345	2.451	1656777	WORD	n/a	wordpools/wordpool_EN.txt	POOL	5	16	[0, 0, 0]	n/a	FR1	0	R1092J
1626.796	2.434	1659228	WORD	n/a	wordpools/wordpool_EN.txt	TOAST	6	16	[0, 0, 0]	n/a	FR1	0	R1092J
1629.23	2.583	1661662	WORD	n/a	wordpools/wordpool_EN.txt	VASE	7	16	[0, 0, 0]	n/a	FR1	0	R1092J
1631.813	2.484	1664245	WORD	n/a	wordpools/wordpool_EN.txt	TRAY	8	16	[0, 0, 0]	n/a	FR1	0	R1092J
1634.297	2.583	1666729	WORD	n/a	wordpools/wordpool_EN.txt	COUCH	9	16	[0, 0, 0]	n/a	FR1	0	R1092J
1636.88	2.567	1669312	WORD	n/a	wordpools/wordpool_EN.txt	HOUSE	10	16	[0, 0, 0]	n/a	FR1	0	R1092J
1639.447	2.552	1671879	WORD	n/a	wordpools/wordpool_EN.txt	CUBE	11	16	[0, 0, 0]	n/a	FR1	0	R1092J
1641.999	1.615	1674431	WORD	n/a	wordpools/wordpool_EN.txt	VAN	12	16	[0, 0, 0]	n/a	FR1	0	R1092J
1643.614	0.001	1676046	DISTRACT_START	n/a	n/a	n/a	-999	16	[0, 0, 0]	n/a	FR1	0	R1092J
1643.615	0.016	1676047	START	n/a	n/a	n/a	-999	16	[-999, -999, -999]	n/a	FR1	0	R1092J
1643.631	3.435	1676063	PROB	3.435	n/a	n/a	-999	16	[7, 4, 3]	14	FR1	0	R1092J
1647.066	3.633	1679498	PROB	3.633	n/a	n/a	-999	16	[8, 5, 1]	14	FR1	0	R1092J
1650.699	1.633	1683130	PROB	1.633	n/a	n/a	-999	16	[1, 1, 1]	3	FR1	0	R1092J
1652.332	3.685	1684763	PROB	3.685	n/a	n/a	-999	16	[6, 8, 3]	17	FR1	0	R1092J
1656.017	3.001	1688448	PROB	3.001	n/a	n/a	-999	16	[6, 6, 4]	16	FR1	0	R1092J
1659.018	2.267	1691449	PROB	2.267	n/a	n/a	-999	16	[1, 9, 7]	17	FR1	0	R1092J
1661.285	4.626	1693716	PROB	4.626	n/a	n/a	-999	16	[9, 4, 8]	21	FR1	0	R1092J
1665.911	0.007	1698342	STOP	n/a	n/a	n/a	-999	16	[-999, -999, -999]	n/a	FR1	0	R1092J
1665.918	1.018	1698349	DISTRACT_END	n/a	n/a	n/a	-999	16	[0, 0, 0]	n/a	FR1	0	R1092J
1666.936	5.501	1699367	REC_START	n/a	n/a	n/a	-999	16	[0, 0, 0]	n/a	FR1	0	R1092J
1672.437	1.537	1704868	REC_WORD	1.537	n/a	FLEA	-999	16	[0, 0, 0]	n/a	FR1	0	R1092J
1673.974	2.436	1706405	REC_WORD	2.436	n/a	CAPE	-999	16	[0, 0, 0]	n/a	FR1	0	R1092J
1676.41	5.268	1708841	REC_WORD	5.268	n/a	VAN	12	16	[0, 0, 0]	n/a	FR1	0	R1092J
1681.678	1.526	1714109	REC_WORD	1.526	n/a	SOAP	1	16	[0, 0, 0]	n/a	FR1	0	R1092J
1683.204	1.791	1715635	REC_WORD	1.791	n/a	PALM	2	16	[0, 0, 0]	n/a	FR1	0	R1092J
1684.995	2.542	1717426	REC_WORD	2.542	n/a	VAN	12	16	[0, 0, 0]	n/a	FR1	0	R1092J
1687.537	7.639	1719968	REC_WORD	7.639	n/a	FLUTE	-999	16	[0, 0, 0]	n/a	FR1	0	R1092J
1695.176	1.772	1727607	REC_WORD	1.772	n/a	PALM	2	16	[0, 0, 0]	n/a	FR1	0	R1092J
1696.948	3.574	1729379	REC_END	n/a	n/a	n/a	-999	16	[0, 0, 0]	n/a	FR1	0	R1092J
1700.522	0.0	1732953	TRIAL	n/a	n/a	n/a	-999	17	[0, 0, 0]	n/a	FR1	0	R1092J
1700.522	10.428	1732953	COUNTDOWN_START	n/a	n/a	n/a	-999	17	[0, 0, 0]	n/a	FR1	0	R1092J
1710.95	0.008	1743381	COUNTDOWN_END	n/a	n/a	n/a	-999	17	[0, 0, 0]	n/a	FR1	0	R1092J
1710.958	2.482	1743389	ORIENT	n/a	n/a	n/a	-999	17	[0, 0, 0]	n/a	FR1	0	R1092J
1713.44	2.535	1745871	WORD	n/a	wordpools/wordpool_EN.txt	GUARD	1	17	[0, 0, 0]	n/a	FR1	0	R1092J
1715.975	2.466	1748406	WORD	n/a	wordpools/wordpool_EN.txt	SWAMP	2	17	[0, 0, 0]	n/a	FR1	0	R1092J
1718.441	2.501	1750872	WORD	n/a	wordpools/wordpool_EN.txt	STONE	3	17	[0, 0, 0]	n/a	FR1	0	R1092J
1720.942	2.416	1753373	WORD	n/a	wordpools/wordpool_EN.txt	DART	4	17	[0, 0, 0]	n/a	FR1	0	R1092J
1723.358	2.551	1755789	WORD	n/a	wordpools/wordpool_EN.txt	CALF	5	17	[0, 0, 0]	n/a	FR1	0	R1092J
1725.909	2.466	1758340	WORD	n/a	wordpools/wordpool_EN.txt	CAVE	6	17	[0, 0, 0]	n/a	FR1	0	R1092J
1728.375	2.585	1760806	WORD	n/a	wordpools/wordpool_EN.txt	CORN	7	17	[0, 0, 0]	n/a	FR1	0	R1092J
1730.96	2.399	1763391	WORD	n/a	wordpools/wordpool_EN.txt	PIG	8	17	[0, 0, 0]	n/a	FR1	0	R1092J
1733.359	2.451	1765790	WORD	n/a	wordpools/wordpool_EN.txt	CLAY	9	17	[0, 0, 0]	n/a	FR1	0	R1092J
1735.81	2.401	1768241	WORD	n/a	wordpools/wordpool_EN.txt	DEER	10	17	[0, 0, 0]	n/a	FR1	0	R1092J
1738.211	2.599	1770642	WORD	n/a	wordpools/wordpool_EN.txt	DITCH	11	17	[0, 0, 0]	n/a	FR1	0	R1092J
1740.81	1.617	1773241	WORD	n/a	wordpools/wordpool_EN.txt	SPEAR	12	17	[0, 0, 0]	n/a	FR1	0	R1092J
1742.427	0.001	1774858	DISTRACT_START	n/a	n/a	n/a	-999	17	[0, 0, 0]	n/a	FR1	0	R1092J
1742.428	0.016	1774859	START	n/a	n/a	n/a	-999	17	[-999, -999, -999]	n/a	FR1	0	R1092J
1742.444	3.535	1774875	PROB	3.535	n/a	n/a	-999	17	[3, 1, 8]	12	FR1	0	R1092J
1745.979	3.233	1778410	PROB	3.233	n/a	n/a	-999	17	[3, 5, 3]	11	FR1	0	R1092J
1749.212	3.15	1781643	PROB	3.15	n/a	n/a	-999	17	[3, 6, 8]	17	FR1	0	R1092J
1752.362	3.5	1784793	PROB	3.5	n/a	n/a	-999	17	[2, 5, 4]	11	FR1	0	R1092J
1755.862	3.268	1788293	PROB	3.268	n/a	n/a	-999	17	[7, 7, 9]	23	FR1	0	R1092J
1759.13	4.519	1791561	PROB	4.519	n/a	n/a	-999	17	[8, 9, 7]	24	FR1	0	R1092J
1763.649	0.014	1796080	STOP	n/a	n/a	n/a	-999	17	[-999, -999, -999]	n/a	FR1	0	R1092J
1763.663	1.201	1796094	DISTRACT_END	n/a	n/a	n/a	-999	17	[0, 0, 0]	n/a	FR1	0	R1092J
1764.864	2.652	1797295	REC_START	n/a	n/a	n/a	-999	17	[0, 0, 0]	n/a	FR1	0	R1092J
1767.516	2.465	1799947	REC_WORD	2.465	n/a	SWAMP	2	17	[0, 0, 0]	n/a	FR1	0	R1092J
1769.981	8.174	1802412	REC_WORD	8.174	n/a	CAMP	-999	17	[0, 0, 0]	n/a	FR1	0	R1092J
1778.155	16.721	1810586	REC_WORD	16.721	n/a	STORM	-999	17	[0, 0, 0]	n/a	FR1	0	R1092J
1794.876	3.675	1827306	REC_END	n/a	n/a	n/a	-999	17	[0, 0, 0]	n/a	FR1	0	R1092J
1798.551	0.0	1830981	COUNTDOWN_START	n/a	n/a	n/a	-999	18	[0, 0, 0]	n/a	FR1	0	R1092J
1798.551	10.428	1830981	TRIAL	n/a	n/a	n/a	-999	18	[0, 0, 0]	n/a	FR1	0	R1092J
1808.979	0.008	1841409	COUNTDOWN_END	n/a	n/a	n/a	-999	18	[0, 0, 0]	n/a	FR1	0	R1092J
1808.987	2.433	1841417	ORIENT	n/a	n/a	n/a	-999	18	[0, 0, 0]	n/a	FR1	0	R1092J
1811.42	2.45	1843850	WORD	n/a	wordpools/wordpool_EN.txt	COIN	1	18	[0, 0, 0]	n/a	FR1	0	R1092J
1813.87	2.418	1846300	WORD	n/a	wordpools/wordpool_EN.txt	WALL	2	18	[0, 0, 0]	n/a	FR1	0	R1092J
1816.288	2.516	1848718	WORD	n/a	wordpools/wordpool_EN.txt	GLOVE	3	18	[0, 0, 0]	n/a	FR1	0	R1092J
1818.804	2.434	1851234	WORD	n/a	wordpools/wordpool_EN.txt	SHIELD	4	18	[0, 0, 0]	n/a	FR1	0	R1092J
1821.238	2.433	1853668	WORD	n/a	wordpools/wordpool_EN.txt	SPARK	5	18	[0, 0, 0]	n/a	FR1	0	R1092J
1823.671	2.385	1856101	WORD	n/a	wordpools/wordpool_EN.txt	RAIN	6	18	[0, 0, 0]	n/a	FR1	0	R1092J
1826.056	2.382	1858486	WORD	n/a	wordpools/wordpool_EN.txt	SPONGE	7	18	[0, 0, 0]	n/a	FR1	0	R1092J
1828.438	2.518	1860868	WORD	n/a	wordpools/wordpool_EN.txt	BOX	8	18	[0, 0, 0]	n/a	FR1	0	R1092J
1830.956	2.399	1863386	WORD	n/a	wordpools/wordpool_EN.txt	HOOK	9	18	[0, 0, 0]	n/a	FR1	0	R1092J
1833.355	2.535	1865785	WORD	n/a	wordpools/wordpool_EN.txt	BALL	10	18	[0, 0, 0]	n/a	FR1	0	R1092J
1835.89	2.533	1868320	WORD	n/a	wordpools/wordpool_EN.txt	ELF	11	18	[0, 0, 0]	n/a	FR1	0	R1092J
1838.423	1.618	1870853	WORD	n/a	wordpools/wordpool_EN.txt	HOSE	12	18	[0, 0, 0]	n/a	FR1	0	R1092J
1840.041	0.001	1872471	DISTRACT_START	n/a	n/a	n/a	-999	18	[0, 0, 0]	n/a	FR1	0	R1092J
1840.042	0.016	1872472	START	n/a	n/a	n/a	-999	18	[-999, -999, -999]	n/a	FR1	0	R1092J
1840.058	2.983	1872488	PROB	2.983	n/a	n/a	-999	18	[3, 1, 7]	11	FR1	0	R1092J
1843.041	3.316	1875471	PROB	3.316	n/a	n/a	-999	18	[2, 5, 8]	15	FR1	0	R1092J
1846.357	2.785	1878787	PROB	2.785	n/a	n/a	-999	18	[1, 8, 6]	15	FR1	0	R1092J
1849.142	3.432	1881572	PROB	3.432	n/a	n/a	-999	18	[6, 7, 5]	18	FR1	0	R1092J
1852.574	2.901	1885004	PROB	2.901	n/a	n/a	-999	18	[8, 4, 7]	19	FR1	0	R1092J
1855.475	3.217	1887905	PROB	3.217	n/a	n/a	-999	18	[5, 8, 4]	17	FR1	0	R1092J
1858.692	2.17	1891122	PROB	2.17	n/a	n/a	-999	18	[1, 1, 4]	6	FR1	0	R1092J
1860.862	0.014	1893292	STOP	n/a	n/a	n/a	-999	18	[-999, -999, -999]	n/a	FR1	0	R1092J
1860.876	1.202	1893306	DISTRACT_END	n/a	n/a	n/a	-999	18	[0, 0, 0]	n/a	FR1	0	R1092J
1862.078	3.786	1894508	REC_START	n/a	n/a	n/a	-999	18	[0, 0, 0]	n/a	FR1	0	R1092J
1865.864	1.2	1898294	REC_WORD	1.2	n/a	GLOVE	3	18	[0, 0, 0]	n/a	FR1	0	R1092J
1867.064	4.484	1899494	REC_WORD	4.484	n/a	CORN	-999	18	[0, 0, 0]	n/a	FR1	0	R1092J
1871.548	9.166	1903978	REC_WORD	9.166	n/a	HAND	-999	18	[0, 0, 0]	n/a	FR1	0	R1092J
1880.714	11.376	1913144	REC_WORD	11.376	n/a	WORM	-999	18	[0, 0, 0]	n/a	FR1	0	R1092J
1892.09	3.808	1924520	REC_END	n/a	n/a	n/a	-999	18	[0, 0, 0]	n/a	FR1	0	R1092J
1895.898	0.0	1928328	TRIAL	n/a	n/a	n/a	-999	19	[0, 0, 0]	n/a	FR1	0	R1092J
1895.898	10.428	1928328	COUNTDOWN_START	n/a	n/a	n/a	-999	19	[0, 0, 0]	n/a	FR1	0	R1092J
1906.326	0.006	1938756	COUNTDOWN_END	n/a	n/a	n/a	-999	19	[0, 0, 0]	n/a	FR1	0	R1092J
1906.332	2.533	1938762	ORIENT	n/a	n/a	n/a	-999	19	[0, 0, 0]	n/a	FR1	0	R1092J
1908.865	2.435	1941295	WORD	n/a	wordpools/wordpool_EN.txt	MOTH	1	19	[0, 0, 0]	n/a	FR1	0	R1092J
1911.3	2.532	1943730	WORD	n/a	wordpools/wordpool_EN.txt	WING	2	19	[0, 0, 0]	n/a	FR1	0	R1092J
1913.832	2.568	1946261	WORD	n/a	wordpools/wordpool_EN.txt	RIB	3	19	[0, 0, 0]	n/a	FR1	0	R1092J
1916.4	2.4	1948829	WORD	n/a	wordpools/wordpool_EN.txt	THREAD	4	19	[0, 0, 0]	n/a	FR1	0	R1092J
1918.8	2.418	1951229	WORD	n/a	wordpools/wordpool_EN.txt	NET	5	19	[0, 0, 0]	n/a	FR1	0	R1092J
1921.218	2.399	1953647	WORD	n/a	wordpools/wordpool_EN.txt	POND	6	19	[0, 0, 0]	n/a	FR1	0	R1092J
1923.617	2.601	1956046	WORD	n/a	wordpools/wordpool_EN.txt	SNAIL	7	19	[0, 0, 0]	n/a	FR1	0	R1092J
1926.218	2.417	1958647	WORD	n/a	wordpools/wordpool_EN.txt	FISH	8	19	[0, 0, 0]	n/a	FR1	0	R1092J
1928.635	2.401	1961064	WORD	n/a	wordpools/wordpool_EN.txt	STRING	9	19	[0, 0, 0]	n/a	FR1	0	R1092J
1931.036	2.449	1963465	WORD	n/a	wordpools/wordpool_EN.txt	HAND	10	19	[0, 0, 0]	n/a	FR1	0	R1092J
1933.485	2.384	1965914	WORD	n/a	wordpools/wordpool_EN.txt	OWL	11	19	[0, 0, 0]	n/a	FR1	0	R1092J
1935.869	1.617	1968298	WORD	n/a	wordpools/wordpool_EN.txt	SKUNK	12	19	[0, 0, 0]	n/a	FR1	0	R1092J
1937.486	0.001	1969915	DISTRACT_START	n/a	n/a	n/a	-999	19	[0, 0, 0]	n/a	FR1	0	R1092J
1937.487	0.015	1969916	START	n/a	n/a	n/a	-999	19	[-999, -999, -999]	n/a	FR1	0	R1092J
1937.502	3.001	1969931	PROB	3.001	n/a	n/a	-999	19	[6, 1, 2]	9	FR1	0	R1092J
1940.503	2.484	1972932	PROB	2.484	n/a	n/a	-999	19	[5, 4, 8]	17	FR1	0	R1092J
1942.987	2.533	1975416	PROB	2.533	n/a	n/a	-999	19	[1, 3, 9]	12	FR1	0	R1092J
1945.52	3.917	1977949	PROB	3.917	n/a	n/a	-999	19	[3, 8, 9]	20	FR1	0	R1092J
1949.437	2.101	1981866	PROB	2.101	n/a	n/a	-999	19	[1, 2, 1]	4	FR1	0	R1092J
1951.538	2.467	1983967	PROB	2.467	n/a	n/a	-999	19	[6, 5, 5]	16	FR1	0	R1092J
1954.005	3.477	1986434	PROB	3.477	n/a	n/a	-999	19	[2, 1, 6]	9	FR1	0	R1092J
1957.482	0.006	1989911	STOP	n/a	n/a	n/a	-999	19	[-999, -999, -999]	n/a	FR1	0	R1092J
1957.488	1.051	1989917	DISTRACT_END	n/a	n/a	n/a	-999	19	[0, 0, 0]	n/a	FR1	0	R1092J
1958.539	2.835	1990968	REC_START	n/a	n/a	n/a	-999	19	[0, 0, 0]	n/a	FR1	0	R1092J
1961.374	1.183	1993803	REC_WORD	1.183	n/a	WING	2	19	[0, 0, 0]	n/a	FR1	0	R1092J
1962.557	8.452	1994986	REC_WORD	8.452	n/a	FLEA	-999	19	[0, 0, 0]	n/a	FR1	0	R1092J
1971.009	1.857	2003438	REC_WORD	1.857	n/a	SWAMP	-999	19	[0, 0, 0]	n/a	FR1	0	R1092J
1972.866	4.115	2005295	REC_WORD	4.115	n/a	MOTH	1	19	[0, 0, 0]	n/a	FR1	0	R1092J
1976.981	11.04	2009410	REC_WORD	11.04	n/a	CORN	-999	19	[0, 0, 0]	n/a	FR1	0	R1092J
1988.021	0.53	2020450	REC_WORD	0.53	n/a	TENT	-999	19	[0, 0, 0]	n/a	FR1	0	R1092J
1988.551	2.526	2020980	REC_END	n/a	n/a	n/a	-999	19	[0, 0, 0]	n/a	FR1	0	R1092J
1991.077	0.0	2023506	TRIAL	n/a	n/a	n/a	-999	20	[0, 0, 0]	n/a	FR1	0	R1092J
1991.077	10.428	2023506	COUNTDOWN_START	n/a	n/a	n/a	-999	20	[0, 0, 0]	n/a	FR1	0	R1092J
2001.505	0.006	2033934	COUNTDOWN_END	n/a	n/a	n/a	-999	20	[0, 0, 0]	n/a	FR1	0	R1092J
2001.511	2.401	2033940	ORIENT	n/a	n/a	n/a	-999	20	[0, 0, 0]	n/a	FR1	0	R1092J
2003.912	2.566	2036341	WORD	n/a	wordpools/wordpool_EN.txt	DRESS	1	20	[0, 0, 0]	n/a	FR1	0	R1092J
2006.478	2.618	2038907	WORD	n/a	wordpools/wordpool_EN.txt	LAWN	2	20	[0, 0, 0]	n/a	FR1	0	R1092J
2009.096	2.416	2041525	WORD	n/a	wordpools/wordpool_EN.txt	BARN	3	20	[0, 0, 0]	n/a	FR1	0	R1092J
2011.512	2.534	2043941	WORD	n/a	wordpools/wordpool_EN.txt	SCHOOL	4	20	[0, 0, 0]	n/a	FR1	0	R1092J
2014.046	2.55	2046475	WORD	n/a	wordpools/wordpool_EN.txt	VEST	5	20	[0, 0, 0]	n/a	FR1	0	R1092J
2016.596	2.551	2049025	WORD	n/a	wordpools/wordpool_EN.txt	MUD	6	20	[0, 0, 0]	n/a	FR1	0	R1092J
2019.147	2.583	2051576	WORD	n/a	wordpools/wordpool_EN.txt	ROOF	7	20	[0, 0, 0]	n/a	FR1	0	R1092J
2021.73	2.434	2054159	WORD	n/a	wordpools/wordpool_EN.txt	NOSE	8	20	[0, 0, 0]	n/a	FR1	0	R1092J
2024.164	2.483	2056593	WORD	n/a	wordpools/wordpool_EN.txt	FACE	9	20	[0, 0, 0]	n/a	FR1	0	R1092J
2026.647	2.551	2059076	WORD	n/a	wordpools/wordpool_EN.txt	STREET	10	20	[0, 0, 0]	n/a	FR1	0	R1092J
2029.198	2.6	2061627	WORD	n/a	wordpools/wordpool_EN.txt	SHARK	11	20	[0, 0, 0]	n/a	FR1	0	R1092J
2031.798	1.616	2064227	WORD	n/a	wordpools/wordpool_EN.txt	CHEEK	12	20	[0, 0, 0]	n/a	FR1	0	R1092J
2033.414	0.001	2065843	DISTRACT_START	n/a	n/a	n/a	-999	20	[0, 0, 0]	n/a	FR1	0	R1092J
2033.415	0.016	2065844	START	n/a	n/a	n/a	-999	20	[-999, -999, -999]	n/a	FR1	0	R1092J
2033.431	3.852	2065860	PROB	3.852	n/a	n/a	-999	20	[7, 3, 2]	12	FR1	0	R1092J
2037.283	2.617	2069712	PROB	2.617	n/a	n/a	-999	20	[8, 4, 3]	15	FR1	0	R1092J
2039.9	1.966	2072329	PROB	1.966	n/a	n/a	-999	20	[7, 1, 1]	9	FR1	0	R1092J
2041.866	3.45	2074295	PROB	3.45	n/a	n/a	-999	20	[3, 1, 1]	5	FR1	0	R1092J
2045.316	2.284	2077745	PROB	2.284	n/a	n/a	-999	20	[7, 2, 1]	10	FR1	0	R1092J
2047.6	2.701	2080028	PROB	2.701	n/a	n/a	-999	20	[3, 8, 9]	20	FR1	0	R1092J
2050.301	5.666	2082729	PROB	5.666	n/a	n/a	-999	20	[6, 3, 4]	13	FR1	0	R1092J
2055.967	0.018	2088395	STOP	n/a	n/a	n/a	-999	20	[-999, -999, -999]	n/a	FR1	0	R1092J
2055.985	1.168	2088413	DISTRACT_END	n/a	n/a	n/a	-999	20	[0, 0, 0]	n/a	FR1	0	R1092J
2057.153	1.764	2089581	REC_START	n/a	n/a	n/a	-999	20	[0, 0, 0]	n/a	FR1	0	R1092J
2058.917	1.117	2091345	REC_WORD	1.117	n/a	FACE	9	20	[0, 0, 0]	n/a	FR1	0	R1092J
2060.034	4.843	2092462	REC_WORD	4.843	n/a	NOSE	8	20	[0, 0, 0]	n/a	FR1	0	R1092J
2064.877	3.188	2097305	REC_WORD	3.188	n/a	SCHOOL	4	20	[0, 0, 0]	n/a	FR1	0	R1092J
2068.065	5.123	2100493	REC_WORD	5.123	n/a	DRESS	1	20	[0, 0, 0]	n/a	FR1	0	R1092J
2073.188	13.979	2105616	REC_WORD	13.979	n/a	FACE	9	20	[0, 0, 0]	n/a	FR1	0	R1092J
2087.167	3.422	2119595	REC_END	n/a	n/a	n/a	-999	20	[0, 0, 0]	n/a	FR1	0	R1092J
2090.589	0.0	2123017	TRIAL	n/a	n/a	n/a	-999	21	[0, 0, 0]	n/a	FR1	0	R1092J
2090.589	10.428	2123017	COUNTDOWN_START	n/a	n/a	n/a	-999	21	[0, 0, 0]	n/a	FR1	0	R1092J
2101.017	0.007	2133445	COUNTDOWN_END	n/a	n/a	n/a	-999	21	[0, 0, 0]	n/a	FR1	0	R1092J
2101.024	2.416	2133452	ORIENT	n/a	n/a	n/a	-999	21	[0, 0, 0]	n/a	FR1	0	R1092J
2103.44	2.601	2135868	WORD	n/a	wordpools/wordpool_EN.txt	FOX	1	21	[0, 0, 0]	n/a	FR1	0	R1092J
2106.041	2.566	2138469	WORD	n/a	wordpools/wordpool_EN.txt	BAG	2	21	[0, 0, 0]	n/a	FR1	0	R1092J
2108.607	2.369	2141035	WORD	n/a	wordpools/wordpool_EN.txt	COW	3	21	[0, 0, 0]	n/a	FR1	0	R1092J
2110.976	2.415	2143404	WORD	n/a	wordpools/wordpool_EN.txt	CRANE	4	21	[0, 0, 0]	n/a	FR1	0	R1092J
2113.391	2.451	2145819	WORD	n/a	wordpools/wordpool_EN.txt	DOCK	5	21	[0, 0, 0]	n/a	FR1	0	R1092J
2115.842	2.517	2148270	WORD	n/a	wordpools/wordpool_EN.txt	AXE	6	21	[0, 0, 0]	n/a	FR1	0	R1092J
2118.359	2.484	2150787	WORD	n/a	wordpools/wordpool_EN.txt	EAR	7	21	[0, 0, 0]	n/a	FR1	0	R1092J
2120.843	2.6	2153271	WORD	n/a	wordpools/wordpool_EN.txt	GRASS	8	21	[0, 0, 0]	n/a	FR1	0	R1092J
2123.443	2.584	2155871	WORD	n/a	wordpools/wordpool_EN.txt	CROW	9	21	[0, 0, 0]	n/a	FR1	0	R1092J
2126.027	2.433	2158455	WORD	n/a	wordpools/wordpool_EN.txt	TOAD	10	21	[0, 0, 0]	n/a	FR1	0	R1092J
2128.46	2.435	2160888	WORD	n/a	wordpools/wordpool_EN.txt	WORLD	11	21	[0, 0, 0]	n/a	FR1	0	R1092J
2130.895	1.615	2163323	WORD	n/a	wordpools/wordpool_EN.txt	SHEEP	12	21	[0, 0, 0]	n/a	FR1	0	R1092J
2132.51	0.002	2164938	DISTRACT_START	n/a	n/a	n/a	-999	21	[0, 0, 0]	n/a	FR1	0	R1092J
2132.512	0.015	2164940	START	n/a	n/a	n/a	-999	21	[-999, -999, -999]	n/a	FR1	0	R1092J
2132.527	3.535	2164955	PROB	3.535	n/a	n/a	-999	21	[8, 1, 4]	13	FR1	0	R1092J
2136.062	2.834	2168490	PROB	2.834	n/a	n/a	-999	21	[7, 8, 6]	21	FR1	0	R1092J
2138.896	6.2	2171324	PROB	6.2	n/a	n/a	-999	21	[8, 5, 9]	22	FR1	0	R1092J
2145.096	4.835	2177524	PROB	4.835	n/a	n/a	-999	21	[7, 2, 7]	16	FR1	0	R1092J
2149.931	2.783	2182359	PROB	2.783	n/a	n/a	-999	21	[8, 8, 2]	18	FR1	0	R1092J
2152.714	0.016	2185142	STOP	n/a	n/a	n/a	-999	21	[-999, -999, -999]	n/a	FR1	0	R1092J
2152.73	1.067	2185158	DISTRACT_END	n/a	n/a	n/a	-999	21	[0, 0, 0]	n/a	FR1	0	R1092J
2153.797	2.937	2186225	REC_START	n/a	n/a	n/a	-999	21	[0, 0, 0]	n/a	FR1	0	R1092J
2156.734	0.991	2189162	REC_WORD	0.991	n/a	NOSE	-999	21	[0, 0, 0]	n/a	FR1	0	R1092J
2157.725	1.098	2190153	REC_WORD	1.098	n/a	CROWN	-999	21	[0, 0, 0]	n/a	FR1	0	R1092J
2158.823	5.648	2191251	REC_WORD	5.648	n/a	FACE	-999	21	[0, 0, 0]	n/a	FR1	0	R1092J
2164.471	1.892	2196899	REC_WORD	1.892	n/a	FIELD	-999	21	[0, 0, 0]	n/a	FR1	0	R1092J
2166.363	2.024	2198791	REC_WORD	2.024	n/a	LAWN	-999	21	[0, 0, 0]	n/a	FR1	0	R1092J
2168.387	10.125	2200815	REC_WORD	10.125	n/a	GLOVE	-999	21	[0, 0, 0]	n/a	FR1	0	R1092J
2178.512	2.901	2210939	REC_WORD	2.901	n/a	CROW	9	21	[0, 0, 0]	n/a	FR1	0	R1092J
2181.413	2.401	2213840	REC_WORD	2.401	n/a	FLEA	-999	21	[0, 0, 0]	n/a	FR1	0	R1092J
2183.814	2.854	2216241	REC_END	n/a	n/a	n/a	-999	21	[0, 0, 0]	n/a	FR1	0	R1092J
2186.668	0.0	2219095	TRIAL	n/a	n/a	n/a	-999	22	[0, 0, 0]	n/a	FR1	0	R1092J
2186.668	10.428	2219095	COUNTDOWN_START	n/a	n/a	n/a	-999	22	[0, 0, 0]	n/a	FR1	0	R1092J
2197.096	0.007	2229523	COUNTDOWN_END	n/a	n/a	n/a	-999	22	[0, 0, 0]	n/a	FR1	0	R1092J
2197.103	2.583	2229530	ORIENT	n/a	n/a	n/a	-999	22	[0, 0, 0]	n/a	FR1	0	R1092J
2199.686	2.601	2232113	WORD	n/a	wordpools/wordpool_EN.txt	THUMB	1	22	[0, 0, 0]	n/a	FR1	0	R1092J
2202.287	2.483	2234714	WORD	n/a	wordpools/wordpool_EN.txt	SLEEVE	2	22	[0, 0, 0]	n/a	FR1	0	R1092J
2204.77	2.55	2237197	WORD	n/a	wordpools/wordpool_EN.txt	FROG	3	22	[0, 0, 0]	n/a	FR1	0	R1092J
2207.32	2.467	2239747	WORD	n/a	wordpools/wordpool_EN.txt	SUIT	4	22	[0, 0, 0]	n/a	FR1	0	R1092J
2209.787	2.6	2242214	WORD	n/a	wordpools/wordpool_EN.txt	BOARD	5	22	[0, 0, 0]	n/a	FR1	0	R1092J
2212.387	2.568	2244814	WORD	n/a	wordpools/wordpool_EN.txt	BRUSH	6	22	[0, 0, 0]	n/a	FR1	0	R1092J
2214.955	2.417	2247382	WORD	n/a	wordpools/wordpool_EN.txt	PIPE	7	22	[0, 0, 0]	n/a	FR1	0	R1092J
2217.372	2.4	2249799	WORD	n/a	wordpools/wordpool_EN.txt	NAIL	8	22	[0, 0, 0]	n/a	FR1	0	R1092J
2219.772	2.55	2252199	WORD	n/a	wordpools/wordpool_EN.txt	PURSE	9	22	[0, 0, 0]	n/a	FR1	0	R1092J
2222.322	2.384	2254749	WORD	n/a	wordpools/wordpool_EN.txt	FORK	10	22	[0, 0, 0]	n/a	FR1	0	R1092J
2224.706	2.484	2257133	WORD	n/a	wordpools/wordpool_EN.txt	BENCH	11	22	[0, 0, 0]	n/a	FR1	0	R1092J
2227.19	1.616	2259617	WORD	n/a	wordpools/wordpool_EN.txt	SINK	12	22	[0, 0, 0]	n/a	FR1	0	R1092J
2228.806	0.001	2261233	DISTRACT_START	n/a	n/a	n/a	-999	22	[0, 0, 0]	n/a	FR1	0	R1092J
2228.807	0.016	2261234	START	n/a	n/a	n/a	-999	22	[-999, -999, -999]	n/a	FR1	0	R1092J
2228.823	2.567	2261250	PROB	2.567	n/a	n/a	-999	22	[4, 1, 3]	8	FR1	0	R1092J
2231.39	2.801	2263817	PROB	2.801	n/a	n/a	-999	22	[1, 3, 3]	7	FR1	0	R1092J
2234.191	3.15	2266618	PROB	3.15	n/a	n/a	-999	22	[6, 9, 1]	16	FR1	0	R1092J
2237.341	2.5	2269768	PROB	2.5	n/a	n/a	-999	22	[2, 1, 9]	12	FR1	0	R1092J
2239.841	4.0	2272268	PROB	4.0	n/a	n/a	-999	22	[5, 3, 9]	17	FR1	0	R1092J
2243.841	3.152	2276268	PROB	3.152	n/a	n/a	-999	22	[4, 7, 6]	17	FR1	0	R1092J
2246.993	2.701	2279420	PROB	2.701	n/a	n/a	-999	22	[5, 2, 3]	10	FR1	0	R1092J
2249.694	0.015	2282121	STOP	n/a	n/a	n/a	-999	22	[-999, -999, -999]	n/a	FR1	0	R1092J
2249.709	1.151	2282136	DISTRACT_END	n/a	n/a	n/a	-999	22	[0, 0, 0]	n/a	FR1	0	R1092J
2250.86	10.452	2283287	REC_START	n/a	n/a	n/a	-999	22	[0, 0, 0]	n/a	FR1	0	R1092J
2261.312	2.191	2293739	REC_WORD	2.191	n/a	BUG	-999	22	[0, 0, 0]	n/a	FR1	0	R1092J
2263.503	1.909	2295930	REC_WORD	1.909	n/a	FLEA	-999	22	[0, 0, 0]	n/a	FR1	0	R1092J
2265.412	2.81	2297839	REC_WORD	2.81	n/a	ROAD	-999	22	[0, 0, 0]	n/a	FR1	0	R1092J
2268.222	3.22	2300649	REC_WORD	3.22	n/a	PURSE	9	22	[0, 0, 0]	n/a	FR1	0	R1092J
2271.442	7.341	2303869	REC_WORD	7.341	n/a	WAGON	-999	22	[0, 0, 0]	n/a	FR1	0	R1092J
2278.783	2.088	2311210	REC_WORD	2.088	n/a	PIPE	7	22	[0, 0, 0]	n/a	FR1	0	R1092J
2280.871	3.11	2313298	REC_END	n/a	n/a	n/a	-999	22	[0, 0, 0]	n/a	FR1	0	R1092J
2283.981	0.0	2316408	TRIAL	n/a	n/a	n/a	-999	23	[0, 0, 0]	n/a	FR1	0	R1092J
2283.981	10.428	2316408	COUNTDOWN_START	n/a	n/a	n/a	-999	23	[0, 0, 0]	n/a	FR1	0	R1092J
2294.409	0.006	2326836	COUNTDOWN_END	n/a	n/a	n/a	-999	23	[0, 0, 0]	n/a	FR1	0	R1092J
2294.415	2.4	2326842	ORIENT	n/a	n/a	n/a	-999	23	[0, 0, 0]	n/a	FR1	0	R1092J
2296.815	2.418	2329242	WORD	n/a	wordpools/wordpool_EN.txt	CHIN	1	23	[0, 0, 0]	n/a	FR1	0	R1092J
2299.233	2.599	2331660	WORD	n/a	wordpools/wordpool_EN.txt	SEED	2	23	[0, 0, 0]	n/a	FR1	0	R1092J
2301.832	2.468	2334259	WORD	n/a	wordpools/wordpool_EN.txt	SOUP	3	23	[0, 0, 0]	n/a	FR1	0	R1092J
2304.3	2.433	2336727	WORD	n/a	wordpools/wordpool_EN.txt	VINE	4	23	[0, 0, 0]	n/a	FR1	0	R1092J
2306.733	2.617	2339160	WORD	n/a	wordpools/wordpool_EN.txt	CHAIR	5	23	[0, 0, 0]	n/a	FR1	0	R1092J
2309.35	2.517	2341777	WORD	n/a	wordpools/wordpool_EN.txt	BRANCH	6	23	[0, 0, 0]	n/a	FR1	0	R1092J
2311.867	2.418	2344293	WORD	n/a	wordpools/wordpool_EN.txt	FUDGE	7	23	[0, 0, 0]	n/a	FR1	0	R1092J
2314.285	2.383	2346711	WORD	n/a	wordpools/wordpool_EN.txt	FRUIT	8	23	[0, 0, 0]	n/a	FR1	0	R1092J
2316.668	2.518	2349094	WORD	n/a	wordpools/wordpool_EN.txt	JUICE	9	23	[0, 0, 0]	n/a	FR1	0	R1092J
2319.186	2.482	2351612	WORD	n/a	wordpools/wordpool_EN.txt	TOE	10	23	[0, 0, 0]	n/a	FR1	0	R1092J
2321.668	2.618	2354094	WORD	n/a	wordpools/wordpool_EN.txt	PIT	11	23	[0, 0, 0]	n/a	FR1	0	R1092J
2324.286	1.617	2356712	WORD	n/a	wordpools/wordpool_EN.txt	STEAK	12	23	[0, 0, 0]	n/a	FR1	0	R1092J
2325.903	0.001	2358329	DISTRACT_START	n/a	n/a	n/a	-999	23	[0, 0, 0]	n/a	FR1	0	R1092J
2325.904	0.016	2358330	START	n/a	n/a	n/a	-999	23	[-999, -999, -999]	n/a	FR1	0	R1092J
2325.92	5.616	2358346	PROB	5.616	n/a	n/a	-999	23	[3, 3, 1]	7	FR1	0	R1092J
2331.536	2.535	2363962	PROB	2.535	n/a	n/a	-999	23	[8, 1, 4]	13	FR1	0	R1092J
2334.071	3.884	2366497	PROB	3.884	n/a	n/a	-999	23	[7, 1, 8]	16	FR1	0	R1092J
2337.955	2.516	2370381	PROB	2.516	n/a	n/a	-999	23	[4, 1, 3]	8	FR1	0	R1092J
2340.471	4.434	2372897	PROB	4.434	n/a	n/a	-999	23	[7, 7, 8]	22	FR1	0	R1092J
2344.905	5.753	2377331	PROB	5.753	n/a	n/a	-999	23	[8, 8, 7]	24	FR1	0	R1092J
2350.658	0.014	2383084	STOP	n/a	n/a	n/a	-999	23	[-999, -999, -999]	n/a	FR1	0	R1092J
2350.672	1.134	2383098	DISTRACT_END	n/a	n/a	n/a	-999	23	[0, 0, 0]	n/a	FR1	0	R1092J
2351.806	1.592	2384232	REC_START	n/a	n/a	n/a	-999	23	[0, 0, 0]	n/a	FR1	0	R1092J
2353.398	1.151	2385824	REC_WORD	1.151	n/a	NOSE	-999	23	[0, 0, 0]	n/a	FR1	0	R1092J
2354.549	1.426	2386975	REC_WORD	1.426	n/a	CHIN	1	23	[0, 0, 0]	n/a	FR1	0	R1092J
2355.975	2.26	2388401	REC_WORD	2.26	n/a	SEED	2	23	[0, 0, 0]	n/a	FR1	0	R1092J
2358.235	5.801	2390661	REC_WORD	5.801	n/a	TOE	10	23	[0, 0, 0]	n/a	FR1	0	R1092J
2364.036	2.2	2396462	REC_WORD	2.2	n/a	FLOOD	-999	23	[0, 0, 0]	n/a	FR1	0	R1092J
2366.236	3.725	2398662	REC_WORD	3.725	n/a	SOUP	3	23	[0, 0, 0]	n/a	FR1	0	R1092J
2369.961	1.708	2402387	REC_WORD	1.708	n/a	CHIN	1	23	[0, 0, 0]	n/a	FR1	0	R1092J
2371.669	9.44	2404095	REC_WORD	9.44	n/a	FACE	-999	23	[0, 0, 0]	n/a	FR1	0	R1092J
2381.109	0.714	2413535	REC_WORD	0.714	n/a	GRAPE	-999	23	[0, 0, 0]	n/a	FR1	0	R1092J
2381.823	2.72	2414249	REC_END	n/a	n/a	n/a	-999	23	[0, 0, 0]	n/a	FR1	0	R1092J
2384.543	0.0	2416969	COUNTDOWN_START	n/a	n/a	n/a	-999	24	[0, 0, 0]	n/a	FR1	0	R1092J
2384.543	10.428	2416969	TRIAL	n/a	n/a	n/a	-999	24	[0, 0, 0]	n/a	FR1	0	R1092J
2394.971	0.007	2427397	COUNTDOWN_END	n/a	n/a	n/a	-999	24	[0, 0, 0]	n/a	FR1	0	R1092J
2394.978	2.5	2427404	ORIENT	n/a	n/a	n/a	-999	24	[0, 0, 0]	n/a	FR1	0	R1092J
2397.478	2.585	2429904	WORD	n/a	wordpools/wordpool_EN.txt	MOUTH	1	24	[0, 0, 0]	n/a	FR1	0	R1092J
2400.063	2.465	2432489	WORD	n/a	wordpools/wordpool_EN.txt	DOLL	2	24	[0, 0, 0]	n/a	FR1	0	R1092J
2402.528	2.552	2434954	WORD	n/a	wordpools/wordpool_EN.txt	SEAL	3	24	[0, 0, 0]	n/a	FR1	0	R1092J
2405.08	2.599	2437506	WORD	n/a	wordpools/wordpool_EN.txt	WEED	4	24	[0, 0, 0]	n/a	FR1	0	R1092J
2407.679	2.452	2440105	WORD	n/a	wordpools/wordpool_EN.txt	CLOWN	5	24	[0, 0, 0]	n/a	FR1	0	R1092J
2410.131	2.549	2442557	WORD	n/a	wordpools/wordpool_EN.txt	TIE	6	24	[0, 0, 0]	n/a	FR1	0	R1092J
2412.68	2.451	2445106	WORD	n/a	wordpools/wordpool_EN.txt	PET	7	24	[0, 0, 0]	n/a	FR1	0	R1092J
2415.131	2.566	2447557	WORD	n/a	wordpools/wordpool_EN.txt	CLOTH	8	24	[0, 0, 0]	n/a	FR1	0	R1092J
2417.697	2.402	2450123	WORD	n/a	wordpools/wordpool_EN.txt	FAN	9	24	[0, 0, 0]	n/a	FR1	0	R1092J
2420.099	2.565	2452525	WORD	n/a	wordpools/wordpool_EN.txt	WOLF	10	24	[0, 0, 0]	n/a	FR1	0	R1092J
2422.664	2.602	2455090	WORD	n/a	wordpools/wordpool_EN.txt	RAT	11	24	[0, 0, 0]	n/a	FR1	0	R1092J
2425.266	1.616	2457692	WORD	n/a	wordpools/wordpool_EN.txt	SOCK	12	24	[0, 0, 0]	n/a	FR1	0	R1092J
2426.882	0.001	2459308	DISTRACT_START	n/a	n/a	n/a	-999	24	[0, 0, 0]	n/a	FR1	0	R1092J
2426.883	0.016	2459309	START	n/a	n/a	n/a	-999	24	[-999, -999, -999]	n/a	FR1	0	R1092J
2426.899	4.401	2459325	PROB	4.401	n/a	n/a	-999	24	[7, 1, 3]	11	FR1	0	R1092J
2431.3	2.633	2463726	PROB	2.633	n/a	n/a	-999	24	[4, 7, 6]	17	FR1	0	R1092J
2433.933	2.318	2466359	PROB	2.318	n/a	n/a	-999	24	[6, 1, 4]	11	FR1	0	R1092J
2436.251	3.449	2468677	PROB	3.449	n/a	n/a	-999	24	[5, 9, 6]	19	FR1	0	R1092J
2439.7	4.468	2472126	PROB	4.468	n/a	n/a	-999	24	[1, 5, 6]	13	FR1	0	R1092J
2444.168	2.416	2476593	PROB	2.416	n/a	n/a	-999	24	[4, 4, 4]	12	FR1	0	R1092J
2446.584	3.269	2479009	PROB	3.269	n/a	n/a	-999	24	[6, 6, 5]	17	FR1	0	R1092J
2449.853	0.015	2482278	STOP	n/a	n/a	n/a	-999	24	[-999, -999, -999]	n/a	FR1	0	R1092J
2449.868	1.185	2482293	DISTRACT_END	n/a	n/a	n/a	-999	24	[0, 0, 0]	n/a	FR1	0	R1092J
2451.053	2.943	2483478	REC_START	n/a	n/a	n/a	-999	24	[0, 0, 0]	n/a	FR1	0	R1092J
2453.996	1.037	2486421	REC_WORD	1.037	n/a	SOCK	12	24	[0, 0, 0]	n/a	FR1	0	R1092J
2455.033	1.621	2487458	REC_WORD	1.621	n/a	WOLF	10	24	[0, 0, 0]	n/a	FR1	0	R1092J
2456.654	3.688	2489079	REC_WORD	3.688	n/a	RAT	11	24	[0, 0, 0]	n/a	FR1	0	R1092J
2460.342	3.525	2492767	REC_WORD	3.525	n/a	SEED	-999	24	[0, 0, 0]	n/a	FR1	0	R1092J
2463.867	2.923	2496292	REC_WORD	2.923	n/a	SUIT	-999	24	[0, 0, 0]	n/a	FR1	0	R1092J
2466.79	6.502	2499215	REC_WORD	6.502	n/a	MATCH	-999	24	[0, 0, 0]	n/a	FR1	0	R1092J
2473.292	4.739	2505717	REC_WORD	4.739	n/a	TOE	-999	24	[0, 0, 0]	n/a	FR1	0	R1092J
2478.031	3.039	2510456	REC_WORD	3.039	n/a	SUIT	-999	24	[0, 0, 0]	n/a	FR1	0	R1092J
2481.07	3.22	2513495	REC_END	n/a	n/a	n/a	-999	24	[0, 0, 0]	n/a	FR1	0	R1092J
2484.29	0.0	2516715	TRIAL	n/a	n/a	n/a	-999	25	[0, 0, 0]	n/a	FR1	0	R1092J
2484.29	10.428	2516715	COUNTDOWN_START	n/a	n/a	n/a	-999	25	[0, 0, 0]	n/a	FR1	0	R1092J
2494.718	0.006	2527143	COUNTDOWN_END	n/a	n/a	n/a	-999	25	[0, 0, 0]	n/a	FR1	0	R1092J
2494.724	2.401	2527149	ORIENT	n/a	n/a	n/a	-999	25	[0, 0, 0]	n/a	FR1	0	R1092J
2497.125	2.466	2529550	WORD	n/a	wordpools/wordpool_EN.txt	HAWK	1	25	[0, 0, 0]	n/a	FR1	0	R1092J
2499.591	2.601	2532016	WORD	n/a	wordpools/wordpool_EN.txt	MAIL	2	25	[0, 0, 0]	n/a	FR1	0	R1092J
2502.192	2.566	2534617	WORD	n/a	wordpools/wordpool_EN.txt	BOOK	3	25	[0, 0, 0]	n/a	FR1	0	R1092J
2504.758	2.435	2537183	WORD	n/a	wordpools/wordpool_EN.txt	STORE	4	25	[0, 0, 0]	n/a	FR1	0	R1092J
2507.193	2.433	2539618	WORD	n/a	wordpools/wordpool_EN.txt	HORSE	5	25	[0, 0, 0]	n/a	FR1	0	R1092J
2509.626	2.467	2542051	WORD	n/a	wordpools/wordpool_EN.txt	CORD	6	25	[0, 0, 0]	n/a	FR1	0	R1092J
2512.093	2.583	2544518	WORD	n/a	wordpools/wordpool_EN.txt	BAT	7	25	[0, 0, 0]	n/a	FR1	0	R1092J
2514.676	2.535	2547101	WORD	n/a	wordpools/wordpool_EN.txt	PEA	8	25	[0, 0, 0]	n/a	FR1	0	R1092J
2517.211	2.549	2549636	WORD	n/a	wordpools/wordpool_EN.txt	JET	9	25	[0, 0, 0]	n/a	FR1	0	R1092J
2519.76	2.6	2552185	WORD	n/a	wordpools/wordpool_EN.txt	JAIL	10	25	[0, 0, 0]	n/a	FR1	0	R1092J
2522.36	2.618	2554785	WORD	n/a	wordpools/wordpool_EN.txt	TOOL	11	25	[0, 0, 0]	n/a	FR1	0	R1092J
2524.978	1.616	2557403	WORD	n/a	wordpools/wordpool_EN.txt	SHEET	12	25	[0, 0, 0]	n/a	FR1	0	R1092J
2526.594	0.001	2559019	DISTRACT_START	n/a	n/a	n/a	-999	25	[0, 0, 0]	n/a	FR1	0	R1092J
2526.595	0.016	2559020	START	n/a	n/a	n/a	-999	25	[-999, -999, -999]	n/a	FR1	0	R1092J
2526.611	4.167	2559036	PROB	4.167	n/a	n/a	-999	25	[7, 4, 6]	17	FR1	0	R1092J
2530.778	5.068	2563203	PROB	5.068	n/a	n/a	-999	25	[7, 6, 7]	20	FR1	0	R1092J
2535.846	3.033	2568271	PROB	3.033	n/a	n/a	-999	25	[7, 5, 1]	13	FR1	0	R1092J
2538.879	3.967	2571304	PROB	3.967	n/a	n/a	-999	25	[9, 3, 8]	20	FR1	0	R1092J
2542.846	3.302	2575271	PROB	3.302	n/a	n/a	-999	25	[8, 6, 8]	22	FR1	0	R1092J
2546.148	3.286	2578573	PROB	3.286	n/a	n/a	-999	25	[4, 9, 5]	18	FR1	0	R1092J
2549.434	0.014	2581859	STOP	n/a	n/a	n/a	-999	25	[-999, -999, -999]	n/a	FR1	0	R1092J
2549.448	1.167	2581873	DISTRACT_END	n/a	n/a	n/a	-999	25	[0, 0, 0]	n/a	FR1	0	R1092J
2550.615	3.468	2583040	REC_START	n/a	n/a	n/a	-999	25	[0, 0, 0]	n/a	FR1	0	R1092J
2554.083	0.949	2586508	REC_WORD	0.949	n/a	JAIL	10	25	[0, 0, 0]	n/a	FR1	0	R1092J
2555.032	1.997	2587457	REC_WORD	1.997	n/a	MAIL	2	25	[0, 0, 0]	n/a	FR1	0	R1092J
2557.029	2.251	2589454	REC_WORD	2.251	n/a	HAWK	1	25	[0, 0, 0]	n/a	FR1	0	R1092J
2559.28	17.122	2591705	REC_WORD	17.122	n/a	SEED	-999	25	[0, 0, 0]	n/a	FR1	0	R1092J
2576.402	4.225	2608826	REC_WORD	4.225	n/a	FACE	-999	25	[0, 0, 0]	n/a	FR1	0	R1092J
2580.627	13.86	2613051	REC_END	n/a	n/a	n/a	-999	25	[0, 0, 0]	n/a	FR1	0	R1092J
2594.487	0.0	2626911	SESS_END	n/a	n/a	n/a	-999	25	[0, 0, 0]	n/a	FR1	0	R1092J
