onset	duration	sample	trial_type	response_time	stim_file	item_name	serialpos	list	test	answer	experiment	session	subject
0.0	0.0	9736	INSTRUCT_START	n/a	n/a	n/a	-999	-999	[0, 0, 0]	n/a	FR1	0	R1251M
0.0	10.963	9736	INSTRUCT_END	n/a	n/a	n/a	-999	-999	[0, 0, 0]	n/a	FR1	0	R1251M
10.963	0.0	20698	SESS_START	n/a	n/a	n/a	-999	-999	[0, 0, 0]	n/a	FR1	0	R1251M
10.963	250.757	20698	MIC_TEST	n/a	n/a	n/a	-999	-999	[0, 0, 0]	n/a	FR1	0	R1251M
261.72	2.764	271441	PRACTICE_TRIAL	n/a	n/a	n/a	-999	-1	[0, 0, 0]	n/a	FR1	0	R1251M
264.484	10.428	274205	COUNTDOWN_START	n/a	n/a	n/a	-999	-1	[0, 0, 0]	n/a	FR1	0	R1251M
274.912	0.008	284632	COUNTDOWN_END	n/a	n/a	n/a	-999	-1	[0, 0, 0]	n/a	FR1	0	R1251M
274.92	1.617	284640	PRACTICE_ORIENT	n/a	n/a	n/a	-999	-1	[0, 0, 0]	n/a	FR1	0	R1251M
276.537	2.084	286257	PRACTICE_ORIENT_OFF	n/a	n/a	n/a	-999	-1	[0, 0, 0]	n/a	FR1	0	R1251M
278.621	1.617	288341	PRACTICE_WORD	n/a	n/a	RHINO	1	-1	[0, 0, 0]	n/a	FR1	0	R1251M
280.238	0.95	289958	PRACTICE_WORD_OFF	n/a	n/a	RHINO	-999	-1	[0, 0, 0]	n/a	FR1	0	R1251M
281.188	1.617	290908	PRACTICE_WORD	n/a	n/a	BEAM	2	-1	[0, 0, 0]	n/a	FR1	0	R1251M
282.805	0.917	292525	PRACTICE_WORD_OFF	n/a	n/a	BEAM	-999	-1	[0, 0, 0]	n/a	FR1	0	R1251M
283.722	1.617	293442	PRACTICE_WORD	n/a	n/a	FLOOD	3	-1	[0, 0, 0]	n/a	FR1	0	R1251M
285.339	0.833	295058	PRACTICE_WORD_OFF	n/a	n/a	FLOOD	-999	-1	[0, 0, 0]	n/a	FR1	0	R1251M
286.172	1.617	295891	PRACTICE_WORD	n/a	n/a	COTTON	4	-1	[0, 0, 0]	n/a	FR1	0	R1251M
287.789	0.783	297508	PRACTICE_WORD_OFF	n/a	n/a	COTTON	-999	-1	[0, 0, 0]	n/a	FR1	0	R1251M
288.572	1.618	298291	PRACTICE_WORD	n/a	n/a	ATTIC	5	-1	[0, 0, 0]	n/a	FR1	0	R1251M
290.19	0.766	299909	PRACTICE_WORD_OFF	n/a	n/a	ATTIC	-999	-1	[0, 0, 0]	n/a	FR1	0	R1251M
290.956	1.617	300675	PRACTICE_WORD	n/a	n/a	RING	6	-1	[0, 0, 0]	n/a	FR1	0	R1251M
292.573	0.95	302292	PRACTICE_WORD_OFF	n/a	n/a	RING	-999	-1	[0, 0, 0]	n/a	FR1	0	R1251M
293.523	1.617	303242	PRACTICE_WORD	n/a	n/a	WATCH	7	-1	[0, 0, 0]	n/a	FR1	0	R1251M
295.14	0.867	304859	PRACTICE_WORD_OFF	n/a	n/a	WATCH	-999	-1	[0, 0, 0]	n/a	FR1	0	R1251M
296.007	1.617	305726	PRACTICE_WORD	n/a	n/a	IRON	8	-1	[0, 0, 0]	n/a	FR1	0	R1251M
297.624	0.801	307343	PRACTICE_WORD_OFF	n/a	n/a	IRON	-999	-1	[0, 0, 0]	n/a	FR1	0	R1251M
298.425	1.616	308144	PRACTICE_WORD	n/a	n/a	CHEST	9	-1	[0, 0, 0]	n/a	FR1	0	R1251M
300.041	0.867	309760	PRACTICE_WORD_OFF	n/a	n/a	CHEST	-999	-1	[0, 0, 0]	n/a	FR1	0	R1251M
300.908	1.617	310627	PRACTICE_WORD	n/a	n/a	TONGUE	10	-1	[0, 0, 0]	n/a	FR1	0	R1251M
302.525	0.834	312243	PRACTICE_WORD_OFF	n/a	n/a	TONGUE	-999	-1	[0, 0, 0]	n/a	FR1	0	R1251M
303.359	1.617	313077	PRACTICE_WORD	n/a	n/a	CAMEL	11	-1	[0, 0, 0]	n/a	FR1	0	R1251M
304.976	0.766	314694	PRACTICE_WORD_OFF	n/a	n/a	CAMEL	-999	-1	[0, 0, 0]	n/a	FR1	0	R1251M
305.742	1.617	315460	PRACTICE_WORD	n/a	n/a	WAGON	12	-1	[0, 0, 0]	n/a	FR1	0	R1251M
307.359	0.0	317077	DISTRACT_START	n/a	n/a	n/a	-999	-1	[0, 0, 0]	n/a	FR1	0	R1251M
307.359	0.001	317077	PRACTICE_WORD_OFF	n/a	n/a	WAGON	-999	-1	[0, 0, 0]	n/a	FR1	0	R1251M
307.36	0.017	317078	START	n/a	n/a	n/a	-999	-1	[-999, -999, -999]	n/a	FR1	0	R1251M
307.377	14.302	317095	PROB	14.302	n/a	n/a	-999	-1	[3, 3, 9]	15	FR1	0	R1251M
321.679	11.861	331396	PROB	11.861	n/a	n/a	-999	-1	[9, 9, 8]	28	FR1	0	R1251M
333.54	0.008	343257	STOP	n/a	n/a	n/a	-999	-1	[-999, -999, -999]	n/a	FR1	0	R1251M
333.548	0.533	343265	DISTRACT_END	n/a	n/a	n/a	-999	-1	[0, 0, 0]	n/a	FR1	0	R1251M
334.081	0.521	343798	RETRIEVAL_ORIENT	n/a	n/a	n/a	-999	-1	[0, 0, 0]	n/a	FR1	0	R1251M
334.602	30.006	344319	PRACTICE_REC_START	n/a	n/a	n/a	-999	-1	[0, 0, 0]	n/a	FR1	0	R1251M
364.608	89.546	374323	PRACTICE_REC_END	n/a	n/a	n/a	-999	-1	[0, 0, 0]	n/a	FR1	0	R1251M
454.154	0.5	463864	TRIAL	n/a	n/a	n/a	-999	1	[0, 0, 0]	n/a	FR1	0	R1251M
454.654	10.428	464364	COUNTDOWN_START	n/a	n/a	n/a	-999	1	[0, 0, 0]	n/a	FR1	0	R1251M
465.082	0.008	474791	COUNTDOWN_END	n/a	n/a	n/a	-999	1	[0, 0, 0]	n/a	FR1	0	R1251M
465.09	1.617	474799	ORIENT	n/a	n/a	n/a	-999	1	[0, 0, 0]	n/a	FR1	0	R1251M
466.707	2.217	476416	ORIENT_OFF	n/a	n/a	n/a	-999	1	[0, 0, 0]	n/a	FR1	0	R1251M
468.924	1.617	478633	WORD	n/a	wordpools/wordpool_EN.txt	SEED	1	1	[0, 0, 0]	n/a	FR1	0	R1251M
470.541	0.967	480250	WORD_OFF	n/a	n/a	SEED	1	1	[0, 0, 0]	n/a	FR1	0	R1251M
471.508	1.617	481217	WORD	n/a	wordpools/wordpool_EN.txt	SHEEP	2	1	[0, 0, 0]	n/a	FR1	0	R1251M
473.125	0.867	482834	WORD_OFF	n/a	n/a	SHEEP	2	1	[0, 0, 0]	n/a	FR1	0	R1251M
473.992	1.617	483701	WORD	n/a	wordpools/wordpool_EN.txt	BANK	3	1	[0, 0, 0]	n/a	FR1	0	R1251M
475.609	0.883	485318	WORD_OFF	n/a	n/a	BANK	3	1	[0, 0, 0]	n/a	FR1	0	R1251M
476.492	1.617	486201	WORD	n/a	wordpools/wordpool_EN.txt	HORSE	4	1	[0, 0, 0]	n/a	FR1	0	R1251M
478.109	0.8	487818	WORD_OFF	n/a	n/a	HORSE	4	1	[0, 0, 0]	n/a	FR1	0	R1251M
478.909	1.617	488618	WORD	n/a	wordpools/wordpool_EN.txt	GEESE	5	1	[0, 0, 0]	n/a	FR1	0	R1251M
480.526	0.851	490234	WORD_OFF	n/a	n/a	GEESE	5	1	[0, 0, 0]	n/a	FR1	0	R1251M
481.377	1.616	491085	WORD	n/a	wordpools/wordpool_EN.txt	TOY	6	1	[0, 0, 0]	n/a	FR1	0	R1251M
482.993	0.851	492701	WORD_OFF	n/a	n/a	TOY	6	1	[0, 0, 0]	n/a	FR1	0	R1251M
483.844	1.617	493552	WORD	n/a	wordpools/wordpool_EN.txt	RICE	7	1	[0, 0, 0]	n/a	FR1	0	R1251M
485.461	0.783	495169	WORD_OFF	n/a	n/a	RICE	7	1	[0, 0, 0]	n/a	FR1	0	R1251M
486.244	1.617	495952	WORD	n/a	wordpools/wordpool_EN.txt	AXE	8	1	[0, 0, 0]	n/a	FR1	0	R1251M
487.861	0.833	497569	WORD_OFF	n/a	n/a	AXE	8	1	[0, 0, 0]	n/a	FR1	0	R1251M
488.694	1.617	498402	WORD	n/a	wordpools/wordpool_EN.txt	SALT	9	1	[0, 0, 0]	n/a	FR1	0	R1251M
490.311	0.851	500019	WORD_OFF	n/a	n/a	SALT	9	1	[0, 0, 0]	n/a	FR1	0	R1251M
491.162	1.617	500870	WORD	n/a	wordpools/wordpool_EN.txt	WEB	10	1	[0, 0, 0]	n/a	FR1	0	R1251M
492.779	0.9	502487	WORD_OFF	n/a	n/a	WEB	10	1	[0, 0, 0]	n/a	FR1	0	R1251M
493.679	1.617	503387	WORD	n/a	wordpools/wordpool_EN.txt	FOOT	11	1	[0, 0, 0]	n/a	FR1	0	R1251M
495.296	0.833	505004	WORD_OFF	n/a	n/a	FOOT	11	1	[0, 0, 0]	n/a	FR1	0	R1251M
496.129	1.617	505837	WORD	n/a	wordpools/wordpool_EN.txt	FUR	12	1	[0, 0, 0]	n/a	FR1	0	R1251M
497.746	0.0	507453	WORD_OFF	n/a	n/a	FUR	12	1	[0, 0, 0]	n/a	FR1	0	R1251M
497.746	0.001	507453	DISTRACT_START	n/a	n/a	n/a	-999	1	[0, 0, 0]	n/a	FR1	0	R1251M
497.747	0.016	507454	START	n/a	n/a	n/a	-999	1	[-999, -999, -999]	n/a	FR1	0	R1251M
497.763	8.636	507470	PROB	8.636	n/a	n/a	-999	1	[8, 7, 3]	18	FR1	0	R1251M
506.399	5.583	516106	PROB	5.583	n/a	n/a	-999	1	[2, 9, 9]	20	FR1	0	R1251M
511.982	9.188	521689	PROB	9.188	n/a	n/a	-999	1	[6, 8, 2]	16	FR1	0	R1251M
521.17	0.014	530876	STOP	n/a	n/a	n/a	-999	1	[-999, -999, -999]	n/a	FR1	0	R1251M
521.184	0.534	530890	DISTRACT_END	n/a	n/a	n/a	-999	1	[0, 0, 0]	n/a	FR1	0	R1251M
521.718	0.517	531424	RETRIEVAL_ORIENT	n/a	n/a	n/a	-999	1	[0, 0, 0]	n/a	FR1	0	R1251M
522.235	2.14	531941	REC_START	n/a	n/a	n/a	-999	1	[0, 0, 0]	n/a	FR1	0	R1251M
524.375	3.497	534081	REC_WORD	3.497	n/a	SEED	-999	1	[0, 0, 0]	n/a	FR1	0	R1251M
527.872	2.188	537578	REC_WORD	2.188	n/a	HORSE	-999	1	[0, 0, 0]	n/a	FR1	0	R1251M
530.06	3.171	539766	REC_WORD	3.171	n/a	WEB	-999	1	[0, 0, 0]	n/a	FR1	0	R1251M
533.231	5.944	542936	REC_WORD	5.944	n/a	AXE	-999	1	[0, 0, 0]	n/a	FR1	0	R1251M
539.175	2.02	548880	REC_WORD	2.02	n/a	SALT	-999	1	[0, 0, 0]	n/a	FR1	0	R1251M
541.195	11.054	550900	REC_WORD_VV	11.054	n/a	<>	-999	1	[0, 0, 0]	n/a	FR1	0	R1251M
552.249	34.298	561953	REC_END	n/a	n/a	n/a	-999	1	[0, 0, 0]	n/a	FR1	0	R1251M
586.547	0.5	596249	TRIAL	n/a	n/a	n/a	-999	2	[0, 0, 0]	n/a	FR1	0	R1251M
587.047	10.428	596749	COUNTDOWN_START	n/a	n/a	n/a	-999	2	[0, 0, 0]	n/a	FR1	0	R1251M
597.475	0.007	607177	COUNTDOWN_END	n/a	n/a	n/a	-999	2	[0, 0, 0]	n/a	FR1	0	R1251M
597.482	1.617	607184	ORIENT	n/a	n/a	n/a	-999	2	[0, 0, 0]	n/a	FR1	0	R1251M
599.099	2.334	608801	ORIENT_OFF	n/a	n/a	n/a	-999	2	[0, 0, 0]	n/a	FR1	0	R1251M
601.433	1.617	611135	WORD	n/a	wordpools/wordpool_EN.txt	ARK	1	2	[0, 0, 0]	n/a	FR1	0	R1251M
603.05	0.884	612752	WORD_OFF	n/a	n/a	ARK	1	2	[0, 0, 0]	n/a	FR1	0	R1251M
603.934	1.616	613635	WORD	n/a	wordpools/wordpool_EN.txt	SNAIL	2	2	[0, 0, 0]	n/a	FR1	0	R1251M
605.55	0.784	615251	WORD_OFF	n/a	n/a	SNAIL	2	2	[0, 0, 0]	n/a	FR1	0	R1251M
606.334	1.617	616035	WORD	n/a	wordpools/wordpool_EN.txt	COW	3	2	[0, 0, 0]	n/a	FR1	0	R1251M
607.951	0.933	617652	WORD_OFF	n/a	n/a	COW	3	2	[0, 0, 0]	n/a	FR1	0	R1251M
608.884	1.617	618585	WORD	n/a	wordpools/wordpool_EN.txt	SHIRT	4	2	[0, 0, 0]	n/a	FR1	0	R1251M
610.501	0.984	620202	WORD_OFF	n/a	n/a	SHIRT	4	2	[0, 0, 0]	n/a	FR1	0	R1251M
611.485	1.617	621186	WORD	n/a	wordpools/wordpool_EN.txt	TRASH	5	2	[0, 0, 0]	n/a	FR1	0	R1251M
613.102	0.783	622803	WORD_OFF	n/a	n/a	TRASH	5	2	[0, 0, 0]	n/a	FR1	0	R1251M
613.885	1.617	623586	WORD	n/a	wordpools/wordpool_EN.txt	CLOTH	6	2	[0, 0, 0]	n/a	FR1	0	R1251M
615.502	0.918	625203	WORD_OFF	n/a	n/a	CLOTH	6	2	[0, 0, 0]	n/a	FR1	0	R1251M
616.42	1.616	626121	WORD	n/a	wordpools/wordpool_EN.txt	ROPE	7	2	[0, 0, 0]	n/a	FR1	0	R1251M
618.036	1.017	627737	WORD_OFF	n/a	n/a	ROPE	7	2	[0, 0, 0]	n/a	FR1	0	R1251M
619.053	1.617	628754	WORD	n/a	wordpools/wordpool_EN.txt	TREE	8	2	[0, 0, 0]	n/a	FR1	0	R1251M
620.67	1.017	630371	WORD_OFF	n/a	n/a	TREE	8	2	[0, 0, 0]	n/a	FR1	0	R1251M
621.687	1.617	631387	WORD	n/a	wordpools/wordpool_EN.txt	LAMB	9	2	[0, 0, 0]	n/a	FR1	0	R1251M
623.304	0.767	633004	WORD_OFF	n/a	n/a	LAMB	9	2	[0, 0, 0]	n/a	FR1	0	R1251M
624.071	1.617	633771	WORD	n/a	wordpools/wordpool_EN.txt	MAZE	10	2	[0, 0, 0]	n/a	FR1	0	R1251M
625.688	0.917	635388	WORD_OFF	n/a	n/a	MAZE	10	2	[0, 0, 0]	n/a	FR1	0	R1251M
626.605	1.616	636305	WORD	n/a	wordpools/wordpool_EN.txt	CHALK	11	2	[0, 0, 0]	n/a	FR1	0	R1251M
628.221	0.817	637921	WORD_OFF	n/a	n/a	CHALK	11	2	[0, 0, 0]	n/a	FR1	0	R1251M
629.038	1.617	638738	WORD	n/a	wordpools/wordpool_EN.txt	CAGE	12	2	[0, 0, 0]	n/a	FR1	0	R1251M
630.655	0.0	640355	WORD_OFF	n/a	n/a	CAGE	12	2	[0, 0, 0]	n/a	FR1	0	R1251M
630.655	0.001	640355	DISTRACT_START	n/a	n/a	n/a	-999	2	[0, 0, 0]	n/a	FR1	0	R1251M
630.656	0.016	640356	START	n/a	n/a	n/a	-999	2	[-999, -999, -999]	n/a	FR1	0	R1251M
630.672	6.068	640372	PROB	6.068	n/a	n/a	-999	2	[3, 8, 2]	13	FR1	0	R1251M
636.74	5.901	646440	PROB	5.901	n/a	n/a	-999	2	[5, 3, 5]	13	FR1	0	R1251M
642.641	5.568	652340	PROB	5.568	n/a	n/a	-999	2	[1, 2, 1]	4	FR1	0	R1251M
648.209	7.011	657908	PROB	7.011	n/a	n/a	-999	2	[6, 1, 9]	16	FR1	0	R1251M
655.22	0.006	664919	STOP	n/a	n/a	n/a	-999	2	[-999, -999, -999]	n/a	FR1	0	R1251M
655.226	0.701	664925	DISTRACT_END	n/a	n/a	n/a	-999	2	[0, 0, 0]	n/a	FR1	0	R1251M
655.927	0.517	665626	RETRIEVAL_ORIENT	n/a	n/a	n/a	-999	2	[0, 0, 0]	n/a	FR1	0	R1251M
656.444	1.786	666143	REC_START	n/a	n/a	n/a	-999	2	[0, 0, 0]	n/a	FR1	0	R1251M
658.23	1.745	667928	REC_WORD	1.745	n/a	ARK	-999	2	[0, 0, 0]	n/a	FR1	0	R1251M
659.975	26.484	669673	REC_WORD	26.484	n/a	TREE	-999	2	[0, 0, 0]	n/a	FR1	0	R1251M
686.459	32.497	696156	REC_END	n/a	n/a	n/a	-999	2	[0, 0, 0]	n/a	FR1	0	R1251M
718.956	0.5	728651	TRIAL	n/a	n/a	n/a	-999	3	[0, 0, 0]	n/a	FR1	0	R1251M
719.456	10.428	729151	COUNTDOWN_START	n/a	n/a	n/a	-999	3	[0, 0, 0]	n/a	FR1	0	R1251M
729.884	0.007	739578	COUNTDOWN_END	n/a	n/a	n/a	-999	3	[0, 0, 0]	n/a	FR1	0	R1251M
729.891	1.617	739585	ORIENT	n/a	n/a	n/a	-999	3	[0, 0, 0]	n/a	FR1	0	R1251M
731.508	2.267	741202	ORIENT_OFF	n/a	n/a	n/a	-999	3	[0, 0, 0]	n/a	FR1	0	R1251M
733.775	1.618	743469	WORD	n/a	wordpools/wordpool_EN.txt	NET	1	3	[0, 0, 0]	n/a	FR1	0	R1251M
735.393	0.984	745087	WORD_OFF	n/a	n/a	NET	1	3	[0, 0, 0]	n/a	FR1	0	R1251M
736.377	1.616	746071	WORD	n/a	wordpools/wordpool_EN.txt	CHAIR	2	3	[0, 0, 0]	n/a	FR1	0	R1251M
737.993	0.783	747687	WORD_OFF	n/a	n/a	CHAIR	2	3	[0, 0, 0]	n/a	FR1	0	R1251M
738.776	1.601	748470	WORD	n/a	wordpools/wordpool_EN.txt	NEST	3	3	[0, 0, 0]	n/a	FR1	0	R1251M
740.377	0.95	750071	WORD_OFF	n/a	n/a	NEST	3	3	[0, 0, 0]	n/a	FR1	0	R1251M
741.327	1.617	751021	WORD	n/a	wordpools/wordpool_EN.txt	CHEEK	4	3	[0, 0, 0]	n/a	FR1	0	R1251M
742.944	0.966	752638	WORD_OFF	n/a	n/a	CHEEK	4	3	[0, 0, 0]	n/a	FR1	0	R1251M
743.91	1.618	753604	WORD	n/a	wordpools/wordpool_EN.txt	ANT	5	3	[0, 0, 0]	n/a	FR1	0	R1251M
745.528	0.783	755222	WORD_OFF	n/a	n/a	ANT	5	3	[0, 0, 0]	n/a	FR1	0	R1251M
746.311	1.617	756004	WORD	n/a	wordpools/wordpool_EN.txt	TOE	6	3	[0, 0, 0]	n/a	FR1	0	R1251M
747.928	0.8	757621	WORD_OFF	n/a	n/a	TOE	6	3	[0, 0, 0]	n/a	FR1	0	R1251M
748.728	1.617	758421	WORD	n/a	wordpools/wordpool_EN.txt	CLIFF	7	3	[0, 0, 0]	n/a	FR1	0	R1251M
750.345	0.833	760038	WORD_OFF	n/a	n/a	CLIFF	7	3	[0, 0, 0]	n/a	FR1	0	R1251M
751.178	1.618	760871	WORD	n/a	wordpools/wordpool_EN.txt	PEA	8	3	[0, 0, 0]	n/a	FR1	0	R1251M
752.796	0.85	762489	WORD_OFF	n/a	n/a	PEA	8	3	[0, 0, 0]	n/a	FR1	0	R1251M
753.646	1.617	763339	WORD	n/a	wordpools/wordpool_EN.txt	ROOF	9	3	[0, 0, 0]	n/a	FR1	0	R1251M
755.263	0.9	764956	WORD_OFF	n/a	n/a	ROOF	9	3	[0, 0, 0]	n/a	FR1	0	R1251M
756.163	1.617	765856	WORD	n/a	wordpools/wordpool_EN.txt	MULE	10	3	[0, 0, 0]	n/a	FR1	0	R1251M
757.78	0.816	767473	WORD_OFF	n/a	n/a	MULE	10	3	[0, 0, 0]	n/a	FR1	0	R1251M
758.596	1.618	768289	WORD	n/a	wordpools/wordpool_EN.txt	LEAF	11	3	[0, 0, 0]	n/a	FR1	0	R1251M
760.214	0.9	769907	WORD_OFF	n/a	n/a	LEAF	11	3	[0, 0, 0]	n/a	FR1	0	R1251M
761.114	1.617	770807	WORD	n/a	wordpools/wordpool_EN.txt	HAWK	12	3	[0, 0, 0]	n/a	FR1	0	R1251M
762.731	0.0	772424	DISTRACT_START	n/a	n/a	n/a	-999	3	[0, 0, 0]	n/a	FR1	0	R1251M
762.731	0.0	772424	WORD_OFF	n/a	n/a	HAWK	12	3	[0, 0, 0]	n/a	FR1	0	R1251M
762.731	0.016	772424	START	n/a	n/a	n/a	-999	3	[-999, -999, -999]	n/a	FR1	0	R1251M
762.747	6.368	772440	PROB	6.368	n/a	n/a	-999	3	[2, 3, 5]	10	FR1	0	R1251M
769.115	6.768	778807	PROB	6.768	n/a	n/a	-999	3	[6, 5, 8]	21	FR1	0	R1251M
775.883	12.329	785575	PROB	12.329	n/a	n/a	-999	3	[3, 9, 5]	17	FR1	0	R1251M
788.212	0.007	797903	STOP	n/a	n/a	n/a	-999	3	[-999, -999, -999]	n/a	FR1	0	R1251M
788.219	0.567	797910	DISTRACT_END	n/a	n/a	n/a	-999	3	[0, 0, 0]	n/a	FR1	0	R1251M
788.786	0.517	798477	RETRIEVAL_ORIENT	n/a	n/a	n/a	-999	3	[0, 0, 0]	n/a	FR1	0	R1251M
789.303	3.372	798994	REC_START	n/a	n/a	n/a	-999	3	[0, 0, 0]	n/a	FR1	0	R1251M
792.675	9.565	802366	REC_WORD	9.565	n/a	CHEEK	-999	3	[0, 0, 0]	n/a	FR1	0	R1251M
802.24	3.216	811930	REC_WORD	3.216	n/a	ANT	-999	3	[0, 0, 0]	n/a	FR1	0	R1251M
805.456	13.859	815146	REC_WORD	13.859	n/a	TOE	-999	3	[0, 0, 0]	n/a	FR1	0	R1251M
819.315	150.422	829004	REC_END	n/a	n/a	n/a	-999	3	[0, 0, 0]	n/a	FR1	0	R1251M
969.737	0.5	979418	TRIAL	n/a	n/a	n/a	-999	4	[0, 0, 0]	n/a	FR1	0	R1251M
970.237	10.428	979918	COUNTDOWN_START	n/a	n/a	n/a	-999	4	[0, 0, 0]	n/a	FR1	0	R1251M
980.665	0.008	990345	COUNTDOWN_END	n/a	n/a	n/a	-999	4	[0, 0, 0]	n/a	FR1	0	R1251M
980.673	1.617	990353	ORIENT	n/a	n/a	n/a	-999	4	[0, 0, 0]	n/a	FR1	0	R1251M
982.29	1.917	991970	ORIENT_OFF	n/a	n/a	n/a	-999	4	[0, 0, 0]	n/a	FR1	0	R1251M
984.207	1.617	993887	WORD	n/a	wordpools/wordpool_EN.txt	FOAM	1	4	[0, 0, 0]	n/a	FR1	0	R1251M
985.824	0.85	995504	WORD_OFF	n/a	n/a	FOAM	1	4	[0, 0, 0]	n/a	FR1	0	R1251M
986.674	1.617	996354	WORD	n/a	wordpools/wordpool_EN.txt	FLUTE	2	4	[0, 0, 0]	n/a	FR1	0	R1251M
988.291	0.85	997971	WORD_OFF	n/a	n/a	FLUTE	2	4	[0, 0, 0]	n/a	FR1	0	R1251M
989.141	1.617	998821	WORD	n/a	wordpools/wordpool_EN.txt	INK	3	4	[0, 0, 0]	n/a	FR1	0	R1251M
990.758	1.0	1000438	WORD_OFF	n/a	n/a	INK	3	4	[0, 0, 0]	n/a	FR1	0	R1251M
991.758	1.618	1001438	WORD	n/a	wordpools/wordpool_EN.txt	BRUSH	4	4	[0, 0, 0]	n/a	FR1	0	R1251M
993.376	1.017	1003056	WORD_OFF	n/a	n/a	BRUSH	4	4	[0, 0, 0]	n/a	FR1	0	R1251M
994.393	1.616	1004072	WORD	n/a	wordpools/wordpool_EN.txt	GRAPE	5	4	[0, 0, 0]	n/a	FR1	0	R1251M
996.009	1.0	1005688	WORD_OFF	n/a	n/a	GRAPE	5	4	[0, 0, 0]	n/a	FR1	0	R1251M
997.009	1.618	1006688	WORD	n/a	wordpools/wordpool_EN.txt	PEAR	6	4	[0, 0, 0]	n/a	FR1	0	R1251M
998.627	0.8	1008306	WORD_OFF	n/a	n/a	PEAR	6	4	[0, 0, 0]	n/a	FR1	0	R1251M
999.427	1.617	1009106	WORD	n/a	wordpools/wordpool_EN.txt	SNAKE	7	4	[0, 0, 0]	n/a	FR1	0	R1251M
1001.044	0.816	1010723	WORD_OFF	n/a	n/a	SNAKE	7	4	[0, 0, 0]	n/a	FR1	0	R1251M
1001.86	1.617	1011539	WORD	n/a	wordpools/wordpool_EN.txt	BOY	8	4	[0, 0, 0]	n/a	FR1	0	R1251M
1003.477	0.85	1013156	WORD_OFF	n/a	n/a	BOY	8	4	[0, 0, 0]	n/a	FR1	0	R1251M
1004.327	1.617	1014006	WORD	n/a	wordpools/wordpool_EN.txt	RAIN	9	4	[0, 0, 0]	n/a	FR1	0	R1251M
1005.944	0.784	1015623	WORD_OFF	n/a	n/a	RAIN	9	4	[0, 0, 0]	n/a	FR1	0	R1251M
1006.728	1.617	1016407	WORD	n/a	wordpools/wordpool_EN.txt	BED	10	4	[0, 0, 0]	n/a	FR1	0	R1251M
1008.345	0.8	1018024	WORD_OFF	n/a	n/a	BED	10	4	[0, 0, 0]	n/a	FR1	0	R1251M
1009.145	1.617	1018824	WORD	n/a	wordpools/wordpool_EN.txt	CLOCK	11	4	[0, 0, 0]	n/a	FR1	0	R1251M
1010.762	0.867	1020441	WORD_OFF	n/a	n/a	CLOCK	11	4	[0, 0, 0]	n/a	FR1	0	R1251M
1011.629	1.617	1021308	WORD	n/a	wordpools/wordpool_EN.txt	TOOL	12	4	[0, 0, 0]	n/a	FR1	0	R1251M
1013.246	0.0	1022924	WORD_OFF	n/a	n/a	TOOL	12	4	[0, 0, 0]	n/a	FR1	0	R1251M
1013.246	0.0	1022924	DISTRACT_START	n/a	n/a	n/a	-999	4	[0, 0, 0]	n/a	FR1	0	R1251M
1013.246	0.017	1022924	START	n/a	n/a	n/a	-999	4	[-999, -999, -999]	n/a	FR1	0	R1251M
1013.263	6.617	1022941	PROB	6.617	n/a	n/a	-999	4	[2, 3, 9]	14	FR1	0	R1251M
1019.88	6.702	1029558	PROB	6.702	n/a	n/a	-999	4	[2, 3, 4]	9	FR1	0	R1251M
1026.582	11.7	1036260	PROB	11.7	n/a	n/a	-999	4	[6, 9, 5]	20	FR1	0	R1251M
1038.282	0.019	1047959	STOP	n/a	n/a	n/a	-999	4	[-999, -999, -999]	n/a	FR1	0	R1251M
1038.301	0.633	1047978	DISTRACT_END	n/a	n/a	n/a	-999	4	[0, 0, 0]	n/a	FR1	0	R1251M
1038.934	0.518	1048611	RETRIEVAL_ORIENT	n/a	n/a	n/a	-999	4	[0, 0, 0]	n/a	FR1	0	R1251M
1039.452	1.987	1049129	REC_START	n/a	n/a	n/a	-999	4	[0, 0, 0]	n/a	FR1	0	R1251M
1041.439	1.456	1051116	REC_WORD	1.456	n/a	BOY	-999	4	[0, 0, 0]	n/a	FR1	0	R1251M
1042.895	22.588	1052572	REC_WORD	22.588	n/a	SNAKE	-999	4	[0, 0, 0]	n/a	FR1	0	R1251M
1065.483	3.982	1075158	REC_WORD	3.982	n/a	FOAM	-999	4	[0, 0, 0]	n/a	FR1	0	R1251M
1069.465	34.949	1079140	REC_END	n/a	n/a	n/a	-999	4	[0, 0, 0]	n/a	FR1	0	R1251M
1104.414	0.5	1114087	TRIAL	n/a	n/a	n/a	-999	5	[0, 0, 0]	n/a	FR1	0	R1251M
1104.914	10.428	1114587	COUNTDOWN_START	n/a	n/a	n/a	-999	5	[0, 0, 0]	n/a	FR1	0	R1251M
1115.342	0.007	1125015	COUNTDOWN_END	n/a	n/a	n/a	-999	5	[0, 0, 0]	n/a	FR1	0	R1251M
1115.349	1.617	1125022	ORIENT	n/a	n/a	n/a	-999	5	[0, 0, 0]	n/a	FR1	0	R1251M
1116.966	2.067	1126639	ORIENT_OFF	n/a	n/a	n/a	-999	5	[0, 0, 0]	n/a	FR1	0	R1251M
1119.033	1.617	1128705	WORD	n/a	wordpools/wordpool_EN.txt	SHIP	1	5	[0, 0, 0]	n/a	FR1	0	R1251M
1120.65	0.85	1130322	WORD_OFF	n/a	n/a	SHIP	1	5	[0, 0, 0]	n/a	FR1	0	R1251M
1121.5	1.617	1131172	WORD	n/a	wordpools/wordpool_EN.txt	LOCK	2	5	[0, 0, 0]	n/a	FR1	0	R1251M
1123.117	0.834	1132789	WORD_OFF	n/a	n/a	LOCK	2	5	[0, 0, 0]	n/a	FR1	0	R1251M
1123.951	1.617	1133623	WORD	n/a	wordpools/wordpool_EN.txt	FOOD	3	5	[0, 0, 0]	n/a	FR1	0	R1251M
1125.568	0.95	1135240	WORD_OFF	n/a	n/a	FOOD	3	5	[0, 0, 0]	n/a	FR1	0	R1251M
1126.518	1.617	1136190	WORD	n/a	wordpools/wordpool_EN.txt	WAND	4	5	[0, 0, 0]	n/a	FR1	0	R1251M
1128.135	0.967	1137807	WORD_OFF	n/a	n/a	WAND	4	5	[0, 0, 0]	n/a	FR1	0	R1251M
1129.102	1.617	1138774	WORD	n/a	wordpools/wordpool_EN.txt	DEER	5	5	[0, 0, 0]	n/a	FR1	0	R1251M
1130.719	0.85	1140391	WORD_OFF	n/a	n/a	DEER	5	5	[0, 0, 0]	n/a	FR1	0	R1251M
1131.569	1.617	1141241	WORD	n/a	wordpools/wordpool_EN.txt	JET	6	5	[0, 0, 0]	n/a	FR1	0	R1251M
1133.186	0.867	1142858	WORD_OFF	n/a	n/a	JET	6	5	[0, 0, 0]	n/a	FR1	0	R1251M
1134.053	1.617	1143725	WORD	n/a	wordpools/wordpool_EN.txt	STREET	7	5	[0, 0, 0]	n/a	FR1	0	R1251M
1135.67	0.833	1145342	WORD_OFF	n/a	n/a	STREET	7	5	[0, 0, 0]	n/a	FR1	0	R1251M
1136.503	1.617	1146174	WORD	n/a	wordpools/wordpool_EN.txt	FOG	8	5	[0, 0, 0]	n/a	FR1	0	R1251M
1138.12	0.917	1147791	WORD_OFF	n/a	n/a	FOG	8	5	[0, 0, 0]	n/a	FR1	0	R1251M
1139.037	1.617	1148708	WORD	n/a	wordpools/wordpool_EN.txt	GLOVE	9	5	[0, 0, 0]	n/a	FR1	0	R1251M
1140.654	0.817	1150325	WORD_OFF	n/a	n/a	GLOVE	9	5	[0, 0, 0]	n/a	FR1	0	R1251M
1141.471	1.617	1151142	WORD	n/a	wordpools/wordpool_EN.txt	LAMP	10	5	[0, 0, 0]	n/a	FR1	0	R1251M
1143.088	0.916	1152759	WORD_OFF	n/a	n/a	LAMP	10	5	[0, 0, 0]	n/a	FR1	0	R1251M
1144.004	1.617	1153675	WORD	n/a	wordpools/wordpool_EN.txt	SPOON	11	5	[0, 0, 0]	n/a	FR1	0	R1251M
1145.621	0.884	1155292	WORD_OFF	n/a	n/a	SPOON	11	5	[0, 0, 0]	n/a	FR1	0	R1251M
1146.505	1.617	1156176	WORD	n/a	wordpools/wordpool_EN.txt	BATH	12	5	[0, 0, 0]	n/a	FR1	0	R1251M
1148.122	0.0	1157793	WORD_OFF	n/a	n/a	BATH	12	5	[0, 0, 0]	n/a	FR1	0	R1251M
1148.122	0.0	1157793	DISTRACT_START	n/a	n/a	n/a	-999	5	[0, 0, 0]	n/a	FR1	0	R1251M
1148.122	0.017	1157793	START	n/a	n/a	n/a	-999	5	[-999, -999, -999]	n/a	FR1	0	R1251M
1148.139	6.167	1157810	PROB	6.167	n/a	n/a	-999	5	[6, 3, 3]	12	FR1	0	R1251M
1154.306	8.919	1163976	PROB	8.919	n/a	n/a	-999	5	[8, 3, 9]	20	FR1	0	R1251M
1163.225	7.291	1172895	PROB	7.291	n/a	n/a	-999	5	[6, 1, 7]	14	FR1	0	R1251M
1170.516	0.01	1180186	STOP	n/a	n/a	n/a	-999	5	[-999, -999, -999]	n/a	FR1	0	R1251M
1170.526	0.617	1180196	DISTRACT_END	n/a	n/a	n/a	-999	5	[0, 0, 0]	n/a	FR1	0	R1251M
1171.143	0.517	1180813	RETRIEVAL_ORIENT	n/a	n/a	n/a	-999	5	[0, 0, 0]	n/a	FR1	0	R1251M
1171.66	2.278	1181329	REC_START	n/a	n/a	n/a	-999	5	[0, 0, 0]	n/a	FR1	0	R1251M
1173.938	1.611	1183607	REC_WORD	1.611	n/a	BOAT	-999	5	[0, 0, 0]	n/a	FR1	0	R1251M
1175.549	26.126	1185218	REC_WORD	26.126	n/a	FOG	-999	5	[0, 0, 0]	n/a	FR1	0	R1251M
1201.675	14.577	1211343	REC_END	n/a	n/a	n/a	-999	5	[0, 0, 0]	n/a	FR1	0	R1251M
1216.252	0.5	1225919	TRIAL	n/a	n/a	n/a	-999	6	[0, 0, 0]	n/a	FR1	0	R1251M
1216.752	10.428	1226419	COUNTDOWN_START	n/a	n/a	n/a	-999	6	[0, 0, 0]	n/a	FR1	0	R1251M
1227.18	0.007	1236846	COUNTDOWN_END	n/a	n/a	n/a	-999	6	[0, 0, 0]	n/a	FR1	0	R1251M
1227.187	1.617	1236853	ORIENT	n/a	n/a	n/a	-999	6	[0, 0, 0]	n/a	FR1	0	R1251M
1228.804	2.284	1238470	ORIENT_OFF	n/a	n/a	n/a	-999	6	[0, 0, 0]	n/a	FR1	0	R1251M
1231.088	1.617	1240754	WORD	n/a	wordpools/wordpool_EN.txt	SOAP	1	6	[0, 0, 0]	n/a	FR1	0	R1251M
1232.705	0.983	1242371	WORD_OFF	n/a	n/a	SOAP	1	6	[0, 0, 0]	n/a	FR1	0	R1251M
1233.688	1.617	1243354	WORD	n/a	wordpools/wordpool_EN.txt	WEED	2	6	[0, 0, 0]	n/a	FR1	0	R1251M
1235.305	0.834	1244971	WORD_OFF	n/a	n/a	WEED	2	6	[0, 0, 0]	n/a	FR1	0	R1251M
1236.139	1.617	1245805	WORD	n/a	wordpools/wordpool_EN.txt	SNOW	3	6	[0, 0, 0]	n/a	FR1	0	R1251M
1237.756	0.9	1247422	WORD_OFF	n/a	n/a	SNOW	3	6	[0, 0, 0]	n/a	FR1	0	R1251M
1238.656	1.617	1248322	WORD	n/a	wordpools/wordpool_EN.txt	COIN	4	6	[0, 0, 0]	n/a	FR1	0	R1251M
1240.273	0.767	1249939	WORD_OFF	n/a	n/a	COIN	4	6	[0, 0, 0]	n/a	FR1	0	R1251M
1241.04	1.617	1250706	WORD	n/a	wordpools/wordpool_EN.txt	FARM	5	6	[0, 0, 0]	n/a	FR1	0	R1251M
1242.657	0.917	1252322	WORD_OFF	n/a	n/a	FARM	5	6	[0, 0, 0]	n/a	FR1	0	R1251M
1243.574	1.617	1253239	WORD	n/a	wordpools/wordpool_EN.txt	JAIL	6	6	[0, 0, 0]	n/a	FR1	0	R1251M
1245.191	0.933	1254856	WORD_OFF	n/a	n/a	JAIL	6	6	[0, 0, 0]	n/a	FR1	0	R1251M
1246.124	1.617	1255789	WORD	n/a	wordpools/wordpool_EN.txt	PIPE	7	6	[0, 0, 0]	n/a	FR1	0	R1251M
1247.741	0.767	1257406	WORD_OFF	n/a	n/a	PIPE	7	6	[0, 0, 0]	n/a	FR1	0	R1251M
1248.508	1.617	1258173	WORD	n/a	wordpools/wordpool_EN.txt	SMOKE	8	6	[0, 0, 0]	n/a	FR1	0	R1251M
1250.125	0.767	1259790	WORD_OFF	n/a	n/a	SMOKE	8	6	[0, 0, 0]	n/a	FR1	0	R1251M
1250.892	1.617	1260557	WORD	n/a	wordpools/wordpool_EN.txt	MILK	9	6	[0, 0, 0]	n/a	FR1	0	R1251M
1252.509	0.901	1262174	WORD_OFF	n/a	n/a	MILK	9	6	[0, 0, 0]	n/a	FR1	0	R1251M
1253.41	1.616	1263075	WORD	n/a	wordpools/wordpool_EN.txt	CLOWN	10	6	[0, 0, 0]	n/a	FR1	0	R1251M
1255.026	0.95	1264691	WORD_OFF	n/a	n/a	CLOWN	10	6	[0, 0, 0]	n/a	FR1	0	R1251M
1255.976	1.617	1265641	WORD	n/a	wordpools/wordpool_EN.txt	BOMB	11	6	[0, 0, 0]	n/a	FR1	0	R1251M
1257.593	0.934	1267258	WORD_OFF	n/a	n/a	BOMB	11	6	[0, 0, 0]	n/a	FR1	0	R1251M
1258.527	1.617	1268192	WORD	n/a	wordpools/wordpool_EN.txt	VAN	12	6	[0, 0, 0]	n/a	FR1	0	R1251M
1260.144	0.0	1269809	DISTRACT_START	n/a	n/a	n/a	-999	6	[0, 0, 0]	n/a	FR1	0	R1251M
1260.144	0.0	1269809	WORD_OFF	n/a	n/a	VAN	12	6	[0, 0, 0]	n/a	FR1	0	R1251M
1260.144	0.016	1269809	START	n/a	n/a	n/a	-999	6	[-999, -999, -999]	n/a	FR1	0	R1251M
1260.16	9.719	1269825	PROB	9.719	n/a	n/a	-999	6	[2, 8, 6]	16	FR1	0	R1251M
1269.879	5.134	1279543	PROB	5.134	n/a	n/a	-999	6	[1, 2, 1]	4	FR1	0	R1251M
1275.013	12.678	1284677	PROB	12.678	n/a	n/a	-999	6	[4, 7, 9]	20	FR1	0	R1251M
1287.691	0.008	1297354	STOP	n/a	n/a	n/a	-999	6	[-999, -999, -999]	n/a	FR1	0	R1251M
1287.699	0.55	1297362	DISTRACT_END	n/a	n/a	n/a	-999	6	[0, 0, 0]	n/a	FR1	0	R1251M
1288.249	0.517	1297912	RETRIEVAL_ORIENT	n/a	n/a	n/a	-999	6	[0, 0, 0]	n/a	FR1	0	R1251M
1288.766	4.092	1298429	REC_START	n/a	n/a	n/a	-999	6	[0, 0, 0]	n/a	FR1	0	R1251M
1292.858	1.673	1302521	REC_WORD	1.673	n/a	SNOW	-999	6	[0, 0, 0]	n/a	FR1	0	R1251M
1294.531	24.248	1304194	REC_WORD	24.248	n/a	FARM	-999	6	[0, 0, 0]	n/a	FR1	0	R1251M
1318.779	24.214	1328440	REC_END	n/a	n/a	n/a	-999	6	[0, 0, 0]	n/a	FR1	0	R1251M
1342.993	0.5	1352653	TRIAL	n/a	n/a	n/a	-999	7	[0, 0, 0]	n/a	FR1	0	R1251M
1343.493	10.428	1353153	COUNTDOWN_START	n/a	n/a	n/a	-999	7	[0, 0, 0]	n/a	FR1	0	R1251M
1353.921	0.007	1363580	COUNTDOWN_END	n/a	n/a	n/a	-999	7	[0, 0, 0]	n/a	FR1	0	R1251M
1353.928	1.617	1363587	ORIENT	n/a	n/a	n/a	-999	7	[0, 0, 0]	n/a	FR1	0	R1251M
1355.545	1.984	1365204	ORIENT_OFF	n/a	n/a	n/a	-999	7	[0, 0, 0]	n/a	FR1	0	R1251M
1357.529	1.617	1367188	WORD	n/a	wordpools/wordpool_EN.txt	SUIT	1	7	[0, 0, 0]	n/a	FR1	0	R1251M
1359.146	1.0	1368805	WORD_OFF	n/a	n/a	SUIT	1	7	[0, 0, 0]	n/a	FR1	0	R1251M
1360.146	1.617	1369805	WORD	n/a	wordpools/wordpool_EN.txt	SMILE	2	7	[0, 0, 0]	n/a	FR1	0	R1251M
1361.763	0.967	1371422	WORD_OFF	n/a	n/a	SMILE	2	7	[0, 0, 0]	n/a	FR1	0	R1251M
1362.73	1.617	1372389	WORD	n/a	wordpools/wordpool_EN.txt	CRANE	3	7	[0, 0, 0]	n/a	FR1	0	R1251M
1364.347	0.884	1374006	WORD_OFF	n/a	n/a	CRANE	3	7	[0, 0, 0]	n/a	FR1	0	R1251M
1365.231	1.617	1374890	WORD	n/a	wordpools/wordpool_EN.txt	DITCH	4	7	[0, 0, 0]	n/a	FR1	0	R1251M
1366.848	0.933	1376506	WORD_OFF	n/a	n/a	DITCH	4	7	[0, 0, 0]	n/a	FR1	0	R1251M
1367.781	1.601	1377439	WORD	n/a	wordpools/wordpool_EN.txt	DRESS	5	7	[0, 0, 0]	n/a	FR1	0	R1251M
1369.382	0.85	1379040	WORD_OFF	n/a	n/a	DRESS	5	7	[0, 0, 0]	n/a	FR1	0	R1251M
1370.232	1.616	1379890	WORD	n/a	wordpools/wordpool_EN.txt	PIE	6	7	[0, 0, 0]	n/a	FR1	0	R1251M
1371.848	0.951	1381506	WORD_OFF	n/a	n/a	PIE	6	7	[0, 0, 0]	n/a	FR1	0	R1251M
1372.799	1.618	1382457	WORD	n/a	wordpools/wordpool_EN.txt	CANE	7	7	[0, 0, 0]	n/a	FR1	0	R1251M
1374.417	0.932	1384075	WORD_OFF	n/a	n/a	CANE	7	7	[0, 0, 0]	n/a	FR1	0	R1251M
1375.349	1.617	1385007	WORD	n/a	wordpools/wordpool_EN.txt	SEAT	8	7	[0, 0, 0]	n/a	FR1	0	R1251M
1376.966	1.0	1386624	WORD_OFF	n/a	n/a	SEAT	8	7	[0, 0, 0]	n/a	FR1	0	R1251M
1377.966	1.617	1387624	WORD	n/a	wordpools/wordpool_EN.txt	PURSE	9	7	[0, 0, 0]	n/a	FR1	0	R1251M
1379.583	0.884	1389241	WORD_OFF	n/a	n/a	PURSE	9	7	[0, 0, 0]	n/a	FR1	0	R1251M
1380.467	1.617	1390125	WORD	n/a	wordpools/wordpool_EN.txt	HOSE	10	7	[0, 0, 0]	n/a	FR1	0	R1251M
1382.084	0.817	1391742	WORD_OFF	n/a	n/a	HOSE	10	7	[0, 0, 0]	n/a	FR1	0	R1251M
1382.901	1.617	1392559	WORD	n/a	wordpools/wordpool_EN.txt	DIME	11	7	[0, 0, 0]	n/a	FR1	0	R1251M
1384.518	0.867	1394175	WORD_OFF	n/a	n/a	DIME	11	7	[0, 0, 0]	n/a	FR1	0	R1251M
1385.385	1.616	1395042	WORD	n/a	wordpools/wordpool_EN.txt	SHARK	12	7	[0, 0, 0]	n/a	FR1	0	R1251M
1387.001	0.0	1396658	WORD_OFF	n/a	n/a	SHARK	12	7	[0, 0, 0]	n/a	FR1	0	R1251M
1387.001	0.001	1396658	DISTRACT_START	n/a	n/a	n/a	-999	7	[0, 0, 0]	n/a	FR1	0	R1251M
1387.002	0.016	1396659	START	n/a	n/a	n/a	-999	7	[-999, -999, -999]	n/a	FR1	0	R1251M
1387.018	5.402	1396675	PROB	5.402	n/a	n/a	-999	7	[3, 4, 4]	11	FR1	0	R1251M
1392.42	8.884	1402077	PROB	8.884	n/a	n/a	-999	7	[7, 4, 6]	17	FR1	0	R1251M
1401.304	6.58	1410961	PROB	6.58	n/a	n/a	-999	7	[4, 8, 4]	16	FR1	0	R1251M
1407.884	0.022	1417540	STOP	n/a	n/a	n/a	-999	7	[-999, -999, -999]	n/a	FR1	0	R1251M
1407.906	0.566	1417562	DISTRACT_END	n/a	n/a	n/a	-999	7	[0, 0, 0]	n/a	FR1	0	R1251M
1408.472	0.518	1418128	RETRIEVAL_ORIENT	n/a	n/a	n/a	-999	7	[0, 0, 0]	n/a	FR1	0	R1251M
1408.99	2.454	1418646	REC_START	n/a	n/a	n/a	-999	7	[0, 0, 0]	n/a	FR1	0	R1251M
1411.444	2.475	1421100	REC_WORD	2.475	n/a	SUIT	-999	7	[0, 0, 0]	n/a	FR1	0	R1251M
1413.919	2.323	1423575	REC_WORD	2.323	n/a	PURSE	-999	7	[0, 0, 0]	n/a	FR1	0	R1251M
1416.242	3.236	1425898	REC_WORD	3.236	n/a	DRESS	-999	7	[0, 0, 0]	n/a	FR1	0	R1251M
1419.478	6.505	1429134	REC_WORD	6.505	n/a	DIME	-999	7	[0, 0, 0]	n/a	FR1	0	R1251M
1425.983	13.02	1435638	REC_WORD	13.02	n/a	SHARK	-999	7	[0, 0, 0]	n/a	FR1	0	R1251M
1439.003	12.111	1448657	REC_END	n/a	n/a	n/a	-999	7	[0, 0, 0]	n/a	FR1	0	R1251M
1451.114	0.5	1460768	TRIAL	n/a	n/a	n/a	-999	8	[0, 0, 0]	n/a	FR1	0	R1251M
1451.614	10.428	1461268	COUNTDOWN_START	n/a	n/a	n/a	-999	8	[0, 0, 0]	n/a	FR1	0	R1251M
1462.042	0.007	1471695	COUNTDOWN_END	n/a	n/a	n/a	-999	8	[0, 0, 0]	n/a	FR1	0	R1251M
1462.049	1.617	1471702	ORIENT	n/a	n/a	n/a	-999	8	[0, 0, 0]	n/a	FR1	0	R1251M
1463.666	2.051	1473319	ORIENT_OFF	n/a	n/a	n/a	-999	8	[0, 0, 0]	n/a	FR1	0	R1251M
1465.717	1.617	1475370	WORD	n/a	wordpools/wordpool_EN.txt	BROOM	1	8	[0, 0, 0]	n/a	FR1	0	R1251M
1467.334	0.767	1476987	WORD_OFF	n/a	n/a	BROOM	1	8	[0, 0, 0]	n/a	FR1	0	R1251M
1468.101	1.616	1477754	WORD	n/a	wordpools/wordpool_EN.txt	STICK	2	8	[0, 0, 0]	n/a	FR1	0	R1251M
1469.717	0.934	1479370	WORD_OFF	n/a	n/a	STICK	2	8	[0, 0, 0]	n/a	FR1	0	R1251M
1470.651	1.617	1480304	WORD	n/a	wordpools/wordpool_EN.txt	CUBE	3	8	[0, 0, 0]	n/a	FR1	0	R1251M
1472.268	0.783	1481921	WORD_OFF	n/a	n/a	CUBE	3	8	[0, 0, 0]	n/a	FR1	0	R1251M
1473.051	1.617	1482704	WORD	n/a	wordpools/wordpool_EN.txt	NAIL	4	8	[0, 0, 0]	n/a	FR1	0	R1251M
1474.668	0.784	1484320	WORD_OFF	n/a	n/a	NAIL	4	8	[0, 0, 0]	n/a	FR1	0	R1251M
1475.452	1.617	1485104	WORD	n/a	wordpools/wordpool_EN.txt	GUARD	5	8	[0, 0, 0]	n/a	FR1	0	R1251M
1477.069	0.766	1486721	WORD_OFF	n/a	n/a	GUARD	5	8	[0, 0, 0]	n/a	FR1	0	R1251M
1477.835	1.618	1487487	WORD	n/a	wordpools/wordpool_EN.txt	FORK	6	8	[0, 0, 0]	n/a	FR1	0	R1251M
1479.453	0.767	1489105	WORD_OFF	n/a	n/a	FORK	6	8	[0, 0, 0]	n/a	FR1	0	R1251M
1480.22	1.616	1489872	WORD	n/a	wordpools/wordpool_EN.txt	TOOTH	7	8	[0, 0, 0]	n/a	FR1	0	R1251M
1481.836	0.934	1491488	WORD_OFF	n/a	n/a	TOOTH	7	8	[0, 0, 0]	n/a	FR1	0	R1251M
1482.77	1.618	1492422	WORD	n/a	wordpools/wordpool_EN.txt	SIGN	8	8	[0, 0, 0]	n/a	FR1	0	R1251M
1484.388	0.849	1494040	WORD_OFF	n/a	n/a	SIGN	8	8	[0, 0, 0]	n/a	FR1	0	R1251M
1485.237	1.617	1494889	WORD	n/a	wordpools/wordpool_EN.txt	GLASS	9	8	[0, 0, 0]	n/a	FR1	0	R1251M
1486.854	0.884	1496506	WORD_OFF	n/a	n/a	GLASS	9	8	[0, 0, 0]	n/a	FR1	0	R1251M
1487.738	1.617	1497390	WORD	n/a	wordpools/wordpool_EN.txt	GOLD	10	8	[0, 0, 0]	n/a	FR1	0	R1251M
1489.355	1.0	1499007	WORD_OFF	n/a	n/a	GOLD	10	8	[0, 0, 0]	n/a	FR1	0	R1251M
1490.355	1.617	1500007	WORD	n/a	wordpools/wordpool_EN.txt	STEAK	11	8	[0, 0, 0]	n/a	FR1	0	R1251M
1491.972	0.967	1501623	WORD_OFF	n/a	n/a	STEAK	11	8	[0, 0, 0]	n/a	FR1	0	R1251M
1492.939	1.617	1502590	WORD	n/a	wordpools/wordpool_EN.txt	RAKE	12	8	[0, 0, 0]	n/a	FR1	0	R1251M
1494.556	0.0	1504207	WORD_OFF	n/a	n/a	RAKE	12	8	[0, 0, 0]	n/a	FR1	0	R1251M
1494.556	0.0	1504207	DISTRACT_START	n/a	n/a	n/a	-999	8	[0, 0, 0]	n/a	FR1	0	R1251M
1494.556	0.016	1504207	START	n/a	n/a	n/a	-999	8	[-999, -999, -999]	n/a	FR1	0	R1251M
1494.572	9.552	1504223	PROB	9.552	n/a	n/a	-999	8	[9, 4, 8]	21	FR1	0	R1251M
1504.124	9.835	1513775	PROB	9.835	n/a	n/a	-999	8	[9, 4, 1]	14	FR1	0	R1251M
1513.959	10.692	1523609	PROB	10.692	n/a	n/a	-999	8	[5, 7, 4]	16	FR1	0	R1251M
1524.651	0.01	1534301	STOP	n/a	n/a	n/a	-999	8	[-999, -999, -999]	n/a	FR1	0	R1251M
1524.661	0.651	1534311	DISTRACT_END	n/a	n/a	n/a	-999	8	[0, 0, 0]	n/a	FR1	0	R1251M
1525.312	0.517	1534962	RETRIEVAL_ORIENT	n/a	n/a	n/a	-999	8	[0, 0, 0]	n/a	FR1	0	R1251M
1525.829	2.53	1535479	REC_START	n/a	n/a	n/a	-999	8	[0, 0, 0]	n/a	FR1	0	R1251M
1528.359	27.483	1538008	REC_WORD_VV	27.483	n/a	<>	-999	8	[0, 0, 0]	n/a	FR1	0	R1251M
1555.842	50.702	1565490	REC_END	n/a	n/a	n/a	-999	8	[0, 0, 0]	n/a	FR1	0	R1251M
1606.544	0.5	1616189	TRIAL	n/a	n/a	n/a	-999	9	[0, 0, 0]	n/a	FR1	0	R1251M
1607.044	10.428	1616689	COUNTDOWN_START	n/a	n/a	n/a	-999	9	[0, 0, 0]	n/a	FR1	0	R1251M
1617.472	0.007	1627116	COUNTDOWN_END	n/a	n/a	n/a	-999	9	[0, 0, 0]	n/a	FR1	0	R1251M
1617.479	1.617	1627123	ORIENT	n/a	n/a	n/a	-999	9	[0, 0, 0]	n/a	FR1	0	R1251M
1619.096	2.184	1628740	ORIENT_OFF	n/a	n/a	n/a	-999	9	[0, 0, 0]	n/a	FR1	0	R1251M
1621.28	1.617	1630924	WORD	n/a	wordpools/wordpool_EN.txt	SWAMP	1	9	[0, 0, 0]	n/a	FR1	0	R1251M
1622.897	0.984	1632541	WORD_OFF	n/a	n/a	SWAMP	1	9	[0, 0, 0]	n/a	FR1	0	R1251M
1623.881	1.617	1633525	WORD	n/a	wordpools/wordpool_EN.txt	BOAT	2	9	[0, 0, 0]	n/a	FR1	0	R1251M
1625.498	0.833	1635142	WORD_OFF	n/a	n/a	BOAT	2	9	[0, 0, 0]	n/a	FR1	0	R1251M
1626.331	1.617	1635975	WORD	n/a	wordpools/wordpool_EN.txt	SLIME	3	9	[0, 0, 0]	n/a	FR1	0	R1251M
1627.948	1.0	1637592	WORD_OFF	n/a	n/a	SLIME	3	9	[0, 0, 0]	n/a	FR1	0	R1251M
1628.948	1.617	1638592	WORD	n/a	wordpools/wordpool_EN.txt	JEEP	4	9	[0, 0, 0]	n/a	FR1	0	R1251M
1630.565	0.851	1640209	WORD_OFF	n/a	n/a	JEEP	4	9	[0, 0, 0]	n/a	FR1	0	R1251M
1631.416	1.616	1641060	WORD	n/a	wordpools/wordpool_EN.txt	SLEEVE	5	9	[0, 0, 0]	n/a	FR1	0	R1251M
1633.032	0.917	1642675	WORD_OFF	n/a	n/a	SLEEVE	5	9	[0, 0, 0]	n/a	FR1	0	R1251M
1633.949	1.617	1643592	WORD	n/a	wordpools/wordpool_EN.txt	SQUARE	6	9	[0, 0, 0]	n/a	FR1	0	R1251M
1635.566	0.767	1645209	WORD_OFF	n/a	n/a	SQUARE	6	9	[0, 0, 0]	n/a	FR1	0	R1251M
1636.333	1.617	1645976	WORD	n/a	wordpools/wordpool_EN.txt	MOTH	7	9	[0, 0, 0]	n/a	FR1	0	R1251M
1637.95	0.983	1647593	WORD_OFF	n/a	n/a	MOTH	7	9	[0, 0, 0]	n/a	FR1	0	R1251M
1638.933	1.618	1648576	WORD	n/a	wordpools/wordpool_EN.txt	STRAW	8	9	[0, 0, 0]	n/a	FR1	0	R1251M
1640.551	0.916	1650194	WORD_OFF	n/a	n/a	STRAW	8	9	[0, 0, 0]	n/a	FR1	0	R1251M
1641.467	1.617	1651110	WORD	n/a	wordpools/wordpool_EN.txt	BRICK	9	9	[0, 0, 0]	n/a	FR1	0	R1251M
1643.084	0.834	1652727	WORD_OFF	n/a	n/a	BRICK	9	9	[0, 0, 0]	n/a	FR1	0	R1251M
1643.918	1.617	1653561	WORD	n/a	wordpools/wordpool_EN.txt	FLAME	10	9	[0, 0, 0]	n/a	FR1	0	R1251M
1645.535	1.017	1655178	WORD_OFF	n/a	n/a	FLAME	10	9	[0, 0, 0]	n/a	FR1	0	R1251M
1646.552	1.617	1656195	WORD	n/a	wordpools/wordpool_EN.txt	DUCK	11	9	[0, 0, 0]	n/a	FR1	0	R1251M
1648.169	0.867	1657812	WORD_OFF	n/a	n/a	DUCK	11	9	[0, 0, 0]	n/a	FR1	0	R1251M
1649.036	1.617	1658679	WORD	n/a	wordpools/wordpool_EN.txt	DESK	12	9	[0, 0, 0]	n/a	FR1	0	R1251M
1650.653	0.0	1660295	WORD_OFF	n/a	n/a	DESK	12	9	[0, 0, 0]	n/a	FR1	0	R1251M
1650.653	0.0	1660295	DISTRACT_START	n/a	n/a	n/a	-999	9	[0, 0, 0]	n/a	FR1	0	R1251M
1650.653	0.016	1660295	START	n/a	n/a	n/a	-999	9	[-999, -999, -999]	n/a	FR1	0	R1251M
1650.669	8.502	1660311	PROB	8.502	n/a	n/a	-999	9	[5, 7, 2]	14	FR1	0	R1251M
1659.171	5.834	1668813	PROB	5.834	n/a	n/a	-999	9	[2, 3, 5]	10	FR1	0	R1251M
1665.005	12.141	1674647	PROB	12.141	n/a	n/a	-999	9	[6, 8, 3]	17	FR1	0	R1251M
1677.146	0.012	1686787	STOP	n/a	n/a	n/a	-999	9	[-999, -999, -999]	n/a	FR1	0	R1251M
1677.158	0.633	1686799	DISTRACT_END	n/a	n/a	n/a	-999	9	[0, 0, 0]	n/a	FR1	0	R1251M
1677.791	0.517	1687432	RETRIEVAL_ORIENT	n/a	n/a	n/a	-999	9	[0, 0, 0]	n/a	FR1	0	R1251M
1678.308	1.215	1687949	REC_START	n/a	n/a	n/a	-999	9	[0, 0, 0]	n/a	FR1	0	R1251M
1679.523	2.18	1689164	REC_WORD	2.18	n/a	SWAMP	-999	9	[0, 0, 0]	n/a	FR1	0	R1251M
1681.703	2.136	1691344	REC_WORD	2.136	n/a	BOAT	-999	9	[0, 0, 0]	n/a	FR1	0	R1251M
1683.839	2.252	1693480	REC_WORD	2.252	n/a	MOTH	-999	9	[0, 0, 0]	n/a	FR1	0	R1251M
1686.091	22.231	1695731	REC_WORD	22.231	n/a	FLAME	-999	9	[0, 0, 0]	n/a	FR1	0	R1251M
1708.322	14.845	1717961	REC_END	n/a	n/a	n/a	-999	9	[0, 0, 0]	n/a	FR1	0	R1251M
1723.167	0.5	1732805	TRIAL	n/a	n/a	n/a	-999	10	[0, 0, 0]	n/a	FR1	0	R1251M
1723.667	10.428	1733305	COUNTDOWN_START	n/a	n/a	n/a	-999	10	[0, 0, 0]	n/a	FR1	0	R1251M
1734.095	0.007	1743733	COUNTDOWN_END	n/a	n/a	n/a	-999	10	[0, 0, 0]	n/a	FR1	0	R1251M
1734.102	1.617	1743740	ORIENT	n/a	n/a	n/a	-999	10	[0, 0, 0]	n/a	FR1	0	R1251M
1735.719	1.933	1745357	ORIENT_OFF	n/a	n/a	n/a	-999	10	[0, 0, 0]	n/a	FR1	0	R1251M
1737.652	1.618	1747290	WORD	n/a	wordpools/wordpool_EN.txt	FROG	1	10	[0, 0, 0]	n/a	FR1	0	R1251M
1739.27	0.833	1748907	WORD_OFF	n/a	n/a	FROG	1	10	[0, 0, 0]	n/a	FR1	0	R1251M
1740.103	1.617	1749740	WORD	n/a	wordpools/wordpool_EN.txt	STAR	2	10	[0, 0, 0]	n/a	FR1	0	R1251M
1741.72	0.8	1751357	WORD_OFF	n/a	n/a	STAR	2	10	[0, 0, 0]	n/a	FR1	0	R1251M
1742.52	1.617	1752157	WORD	n/a	wordpools/wordpool_EN.txt	SPONGE	3	10	[0, 0, 0]	n/a	FR1	0	R1251M
1744.137	0.85	1753774	WORD_OFF	n/a	n/a	SPONGE	3	10	[0, 0, 0]	n/a	FR1	0	R1251M
1744.987	1.617	1754624	WORD	n/a	wordpools/wordpool_EN.txt	RUG	4	10	[0, 0, 0]	n/a	FR1	0	R1251M
1746.604	1.017	1756241	WORD_OFF	n/a	n/a	RUG	4	10	[0, 0, 0]	n/a	FR1	0	R1251M
1747.621	1.617	1757258	WORD	n/a	wordpools/wordpool_EN.txt	CAPE	5	10	[0, 0, 0]	n/a	FR1	0	R1251M
1749.238	0.917	1758875	WORD_OFF	n/a	n/a	CAPE	5	10	[0, 0, 0]	n/a	FR1	0	R1251M
1750.155	1.617	1759792	WORD	n/a	wordpools/wordpool_EN.txt	EGG	6	10	[0, 0, 0]	n/a	FR1	0	R1251M
1751.772	0.9	1761409	WORD_OFF	n/a	n/a	EGG	6	10	[0, 0, 0]	n/a	FR1	0	R1251M
1752.672	1.617	1762309	WORD	n/a	wordpools/wordpool_EN.txt	HOLE	7	10	[0, 0, 0]	n/a	FR1	0	R1251M
1754.289	0.8	1763926	WORD_OFF	n/a	n/a	HOLE	7	10	[0, 0, 0]	n/a	FR1	0	R1251M
1755.089	1.617	1764726	WORD	n/a	wordpools/wordpool_EN.txt	ROOT	8	10	[0, 0, 0]	n/a	FR1	0	R1251M
1756.706	0.867	1766343	WORD_OFF	n/a	n/a	ROOT	8	10	[0, 0, 0]	n/a	FR1	0	R1251M
1757.573	1.617	1767209	WORD	n/a	wordpools/wordpool_EN.txt	HEART	9	10	[0, 0, 0]	n/a	FR1	0	R1251M
1759.19	0.95	1768826	WORD_OFF	n/a	n/a	HEART	9	10	[0, 0, 0]	n/a	FR1	0	R1251M
1760.14	1.617	1769776	WORD	n/a	wordpools/wordpool_EN.txt	BEAN	10	10	[0, 0, 0]	n/a	FR1	0	R1251M
1761.757	0.984	1771393	WORD_OFF	n/a	n/a	BEAN	10	10	[0, 0, 0]	n/a	FR1	0	R1251M
1762.741	1.617	1772377	WORD	n/a	wordpools/wordpool_EN.txt	DRUM	11	10	[0, 0, 0]	n/a	FR1	0	R1251M
1764.358	0.867	1773994	WORD_OFF	n/a	n/a	DRUM	11	10	[0, 0, 0]	n/a	FR1	0	R1251M
1765.225	1.617	1774861	WORD	n/a	wordpools/wordpool_EN.txt	SKY	12	10	[0, 0, 0]	n/a	FR1	0	R1251M
1766.842	0.0	1776478	WORD_OFF	n/a	n/a	SKY	12	10	[0, 0, 0]	n/a	FR1	0	R1251M
1766.842	0.0	1776478	DISTRACT_START	n/a	n/a	n/a	-999	10	[0, 0, 0]	n/a	FR1	0	R1251M
1766.842	0.016	1776478	START	n/a	n/a	n/a	-999	10	[-999, -999, -999]	n/a	FR1	0	R1251M
1766.858	7.568	1776494	PROB	7.568	n/a	n/a	-999	10	[2, 9, 4]	15	FR1	0	R1251M
1774.426	14.69	1784062	PROB	14.69	n/a	n/a	-999	10	[9, 6, 7]	22	FR1	0	R1251M
1789.116	0.013	1798751	STOP	n/a	n/a	n/a	-999	10	[-999, -999, -999]	n/a	FR1	0	R1251M
1789.129	0.584	1798764	DISTRACT_END	n/a	n/a	n/a	-999	10	[0, 0, 0]	n/a	FR1	0	R1251M
1789.713	0.517	1799348	RETRIEVAL_ORIENT	n/a	n/a	n/a	-999	10	[0, 0, 0]	n/a	FR1	0	R1251M
1790.23	1.614	1799865	REC_START	n/a	n/a	n/a	-999	10	[0, 0, 0]	n/a	FR1	0	R1251M
1791.844	1.696	1801479	REC_WORD	1.696	n/a	FROG	-999	10	[0, 0, 0]	n/a	FR1	0	R1251M
1793.54	26.704	1803174	REC_WORD	26.704	n/a	STAR	-999	10	[0, 0, 0]	n/a	FR1	0	R1251M
1820.244	11.178	1829877	REC_END	n/a	n/a	n/a	-999	10	[0, 0, 0]	n/a	FR1	0	R1251M
1831.422	0.5	1841054	TRIAL	n/a	n/a	n/a	-999	11	[0, 0, 0]	n/a	FR1	0	R1251M
1831.922	10.428	1841554	COUNTDOWN_START	n/a	n/a	n/a	-999	11	[0, 0, 0]	n/a	FR1	0	R1251M
1842.35	0.006	1851982	COUNTDOWN_END	n/a	n/a	n/a	-999	11	[0, 0, 0]	n/a	FR1	0	R1251M
1842.356	1.617	1851988	ORIENT	n/a	n/a	n/a	-999	11	[0, 0, 0]	n/a	FR1	0	R1251M
1843.973	2.217	1853605	ORIENT_OFF	n/a	n/a	n/a	-999	11	[0, 0, 0]	n/a	FR1	0	R1251M
1846.19	1.617	1855821	WORD	n/a	wordpools/wordpool_EN.txt	BAND	1	11	[0, 0, 0]	n/a	FR1	0	R1251M
1847.807	1.001	1857438	WORD_OFF	n/a	n/a	BAND	1	11	[0, 0, 0]	n/a	FR1	0	R1251M
1848.808	1.617	1858439	WORD	n/a	wordpools/wordpool_EN.txt	BOARD	2	11	[0, 0, 0]	n/a	FR1	0	R1251M
1850.425	0.883	1860056	WORD_OFF	n/a	n/a	BOARD	2	11	[0, 0, 0]	n/a	FR1	0	R1251M
1851.308	1.617	1860939	WORD	n/a	wordpools/wordpool_EN.txt	HOOK	3	11	[0, 0, 0]	n/a	FR1	0	R1251M
1852.925	1.0	1862556	WORD_OFF	n/a	n/a	HOOK	3	11	[0, 0, 0]	n/a	FR1	0	R1251M
1853.925	1.617	1863556	WORD	n/a	wordpools/wordpool_EN.txt	ROOM	4	11	[0, 0, 0]	n/a	FR1	0	R1251M
1855.542	0.767	1865173	WORD_OFF	n/a	n/a	ROOM	4	11	[0, 0, 0]	n/a	FR1	0	R1251M
1856.309	1.617	1865940	WORD	n/a	wordpools/wordpool_EN.txt	BEE	5	11	[0, 0, 0]	n/a	FR1	0	R1251M
1857.926	0.8	1867557	WORD_OFF	n/a	n/a	BEE	5	11	[0, 0, 0]	n/a	FR1	0	R1251M
1858.726	1.617	1868357	WORD	n/a	wordpools/wordpool_EN.txt	MOUSE	6	11	[0, 0, 0]	n/a	FR1	0	R1251M
1860.343	0.984	1869974	WORD_OFF	n/a	n/a	MOUSE	6	11	[0, 0, 0]	n/a	FR1	0	R1251M
1861.327	1.617	1870958	WORD	n/a	wordpools/wordpool_EN.txt	BEACH	7	11	[0, 0, 0]	n/a	FR1	0	R1251M
1862.944	0.95	1872575	WORD_OFF	n/a	n/a	BEACH	7	11	[0, 0, 0]	n/a	FR1	0	R1251M
1863.894	1.617	1873524	WORD	n/a	wordpools/wordpool_EN.txt	DART	8	11	[0, 0, 0]	n/a	FR1	0	R1251M
1865.511	0.901	1875141	WORD_OFF	n/a	n/a	DART	8	11	[0, 0, 0]	n/a	FR1	0	R1251M
1866.412	1.616	1876042	WORD	n/a	wordpools/wordpool_EN.txt	BRIDGE	9	11	[0, 0, 0]	n/a	FR1	0	R1251M
1868.028	0.933	1877658	WORD_OFF	n/a	n/a	BRIDGE	9	11	[0, 0, 0]	n/a	FR1	0	R1251M
1868.961	1.617	1878591	WORD	n/a	wordpools/wordpool_EN.txt	STORM	10	11	[0, 0, 0]	n/a	FR1	0	R1251M
1870.578	0.884	1880208	WORD_OFF	n/a	n/a	STORM	10	11	[0, 0, 0]	n/a	FR1	0	R1251M
1871.462	1.617	1881092	WORD	n/a	wordpools/wordpool_EN.txt	SPARK	11	11	[0, 0, 0]	n/a	FR1	0	R1251M
1873.079	0.85	1882709	WORD_OFF	n/a	n/a	SPARK	11	11	[0, 0, 0]	n/a	FR1	0	R1251M
1873.929	1.617	1883559	WORD	n/a	wordpools/wordpool_EN.txt	FLAG	12	11	[0, 0, 0]	n/a	FR1	0	R1251M
1875.546	0.0	1885176	WORD_OFF	n/a	n/a	FLAG	12	11	[0, 0, 0]	n/a	FR1	0	R1251M
1875.546	0.001	1885176	DISTRACT_START	n/a	n/a	n/a	-999	11	[0, 0, 0]	n/a	FR1	0	R1251M
1875.547	0.016	1885177	START	n/a	n/a	n/a	-999	11	[-999, -999, -999]	n/a	FR1	0	R1251M
1875.563	5.784	1885193	PROB	5.784	n/a	n/a	-999	11	[2, 3, 8]	13	FR1	0	R1251M
1881.347	8.102	1890976	PROB	8.102	n/a	n/a	-999	11	[6, 5, 3]	14	FR1	0	R1251M
1889.449	10.026	1899078	PROB	10.026	n/a	n/a	-999	11	[9, 9, 5]	23	FR1	0	R1251M
1899.475	0.009	1909103	STOP	n/a	n/a	n/a	-999	11	[-999, -999, -999]	n/a	FR1	0	R1251M
1899.484	0.683	1909112	DISTRACT_END	n/a	n/a	n/a	-999	11	[0, 0, 0]	n/a	FR1	0	R1251M
1900.167	0.518	1909795	RETRIEVAL_ORIENT	n/a	n/a	n/a	-999	11	[0, 0, 0]	n/a	FR1	0	R1251M
1900.685	2.804	1910313	REC_START	n/a	n/a	n/a	-999	11	[0, 0, 0]	n/a	FR1	0	R1251M
1903.489	2.188	1913117	REC_WORD	2.188	n/a	BAND	-999	11	[0, 0, 0]	n/a	FR1	0	R1251M
1905.677	25.019	1915305	REC_WORD	25.019	n/a	BEE	-999	11	[0, 0, 0]	n/a	FR1	0	R1251M
1930.696	15.147	1940323	REC_END	n/a	n/a	n/a	-999	11	[0, 0, 0]	n/a	FR1	0	R1251M
1945.843	0.5	1955469	TRIAL	n/a	n/a	n/a	-999	12	[0, 0, 0]	n/a	FR1	0	R1251M
1946.343	10.428	1955969	COUNTDOWN_START	n/a	n/a	n/a	-999	12	[0, 0, 0]	n/a	FR1	0	R1251M
1956.771	0.007	1966396	COUNTDOWN_END	n/a	n/a	n/a	-999	12	[0, 0, 0]	n/a	FR1	0	R1251M
1956.778	1.618	1966403	ORIENT	n/a	n/a	n/a	-999	12	[0, 0, 0]	n/a	FR1	0	R1251M
1958.396	2.066	1968021	ORIENT_OFF	n/a	n/a	n/a	-999	12	[0, 0, 0]	n/a	FR1	0	R1251M
1960.462	1.617	1970087	WORD	n/a	wordpools/wordpool_EN.txt	LEG	1	12	[0, 0, 0]	n/a	FR1	0	R1251M
1962.079	0.984	1971704	WORD_OFF	n/a	n/a	LEG	1	12	[0, 0, 0]	n/a	FR1	0	R1251M
1963.063	1.617	1972688	WORD	n/a	wordpools/wordpool_EN.txt	NOSE	2	12	[0, 0, 0]	n/a	FR1	0	R1251M
1964.68	1.0	1974305	WORD_OFF	n/a	n/a	NOSE	2	12	[0, 0, 0]	n/a	FR1	0	R1251M
1965.68	1.617	1975305	WORD	n/a	wordpools/wordpool_EN.txt	TOAST	3	12	[0, 0, 0]	n/a	FR1	0	R1251M
1967.297	0.934	1976922	WORD_OFF	n/a	n/a	TOAST	3	12	[0, 0, 0]	n/a	FR1	0	R1251M
1968.231	1.617	1977856	WORD	n/a	wordpools/wordpool_EN.txt	MUD	4	12	[0, 0, 0]	n/a	FR1	0	R1251M
1969.848	0.816	1979472	WORD_OFF	n/a	n/a	MUD	4	12	[0, 0, 0]	n/a	FR1	0	R1251M
1970.664	1.617	1980288	WORD	n/a	wordpools/wordpool_EN.txt	BRANCH	5	12	[0, 0, 0]	n/a	FR1	0	R1251M
1972.281	0.817	1981905	WORD_OFF	n/a	n/a	BRANCH	5	12	[0, 0, 0]	n/a	FR1	0	R1251M
1973.098	1.617	1982722	WORD	n/a	wordpools/wordpool_EN.txt	BEAK	6	12	[0, 0, 0]	n/a	FR1	0	R1251M
1974.715	0.834	1984339	WORD_OFF	n/a	n/a	BEAK	6	12	[0, 0, 0]	n/a	FR1	0	R1251M
1975.549	1.617	1985173	WORD	n/a	wordpools/wordpool_EN.txt	CAVE	7	12	[0, 0, 0]	n/a	FR1	0	R1251M
1977.166	0.917	1986790	WORD_OFF	n/a	n/a	CAVE	7	12	[0, 0, 0]	n/a	FR1	0	R1251M
1978.083	1.617	1987707	WORD	n/a	wordpools/wordpool_EN.txt	FLOOR	8	12	[0, 0, 0]	n/a	FR1	0	R1251M
1979.7	0.8	1989324	WORD_OFF	n/a	n/a	FLOOR	8	12	[0, 0, 0]	n/a	FR1	0	R1251M
1980.5	1.617	1990124	WORD	n/a	wordpools/wordpool_EN.txt	SHIELD	9	12	[0, 0, 0]	n/a	FR1	0	R1251M
1982.117	0.9	1991741	WORD_OFF	n/a	n/a	SHIELD	9	12	[0, 0, 0]	n/a	FR1	0	R1251M
1983.017	1.617	1992641	WORD	n/a	wordpools/wordpool_EN.txt	TENT	10	12	[0, 0, 0]	n/a	FR1	0	R1251M
1984.634	0.85	1994258	WORD_OFF	n/a	n/a	TENT	10	12	[0, 0, 0]	n/a	FR1	0	R1251M
1985.484	1.617	1995108	WORD	n/a	wordpools/wordpool_EN.txt	COUCH	11	12	[0, 0, 0]	n/a	FR1	0	R1251M
1987.101	0.833	1996725	WORD_OFF	n/a	n/a	COUCH	11	12	[0, 0, 0]	n/a	FR1	0	R1251M
1987.934	1.617	1997557	WORD	n/a	wordpools/wordpool_EN.txt	BREAD	12	12	[0, 0, 0]	n/a	FR1	0	R1251M
1989.551	0.0	1999174	WORD_OFF	n/a	n/a	BREAD	12	12	[0, 0, 0]	n/a	FR1	0	R1251M
1989.551	0.001	1999174	DISTRACT_START	n/a	n/a	n/a	-999	12	[0, 0, 0]	n/a	FR1	0	R1251M
1989.552	0.016	1999175	START	n/a	n/a	n/a	-999	12	[-999, -999, -999]	n/a	FR1	0	R1251M
1989.568	5.651	1999191	PROB	5.651	n/a	n/a	-999	12	[3, 6, 1]	10	FR1	0	R1251M
1995.219	4.851	2004842	PROB	4.851	n/a	n/a	-999	12	[3, 2, 6]	11	FR1	0	R1251M
2000.07	6.185	2009693	PROB	6.185	n/a	n/a	-999	12	[9, 4, 4]	17	FR1	0	R1251M
2006.255	7.036	2015877	PROB	7.036	n/a	n/a	-999	12	[9, 1, 8]	18	FR1	0	R1251M
2013.291	0.015	2022913	STOP	n/a	n/a	n/a	-999	12	[-999, -999, -999]	n/a	FR1	0	R1251M
2013.306	0.617	2022928	DISTRACT_END	n/a	n/a	n/a	-999	12	[0, 0, 0]	n/a	FR1	0	R1251M
2013.923	0.517	2023545	RETRIEVAL_ORIENT	n/a	n/a	n/a	-999	12	[0, 0, 0]	n/a	FR1	0	R1251M
2014.44	1.595	2024062	REC_START	n/a	n/a	n/a	-999	12	[0, 0, 0]	n/a	FR1	0	R1251M
2016.035	2.128	2025657	REC_WORD	2.128	n/a	LEG	-999	12	[0, 0, 0]	n/a	FR1	0	R1251M
2018.163	2.659	2027785	REC_WORD	2.659	n/a	NOSE	-999	12	[0, 0, 0]	n/a	FR1	0	R1251M
2020.822	3.766	2030444	REC_WORD	3.766	n/a	BEAK	-999	12	[0, 0, 0]	n/a	FR1	0	R1251M
2024.588	3.976	2034209	REC_WORD	3.976	n/a	CAVE	-999	12	[0, 0, 0]	n/a	FR1	0	R1251M
2028.564	15.887	2038185	REC_WORD	15.887	n/a	FLOOR	-999	12	[0, 0, 0]	n/a	FR1	0	R1251M
2044.451	33.384	2054071	REC_END	n/a	n/a	n/a	-999	12	[0, 0, 0]	n/a	FR1	0	R1251M
2077.835	0.5	2087453	TRIAL	n/a	n/a	n/a	-999	13	[0, 0, 0]	n/a	FR1	0	R1251M
2078.335	10.428	2087953	COUNTDOWN_START	n/a	n/a	n/a	-999	13	[0, 0, 0]	n/a	FR1	0	R1251M
2088.763	0.008	2098381	COUNTDOWN_END	n/a	n/a	n/a	-999	13	[0, 0, 0]	n/a	FR1	0	R1251M
2088.771	1.618	2098389	ORIENT	n/a	n/a	n/a	-999	13	[0, 0, 0]	n/a	FR1	0	R1251M
2090.389	2.116	2100007	ORIENT_OFF	n/a	n/a	n/a	-999	13	[0, 0, 0]	n/a	FR1	0	R1251M
2092.505	1.617	2102123	WORD	n/a	wordpools/wordpool_EN.txt	ROCK	1	13	[0, 0, 0]	n/a	FR1	0	R1251M
2094.122	0.833	2103739	WORD_OFF	n/a	n/a	ROCK	1	13	[0, 0, 0]	n/a	FR1	0	R1251M
2094.955	1.617	2104572	WORD	n/a	wordpools/wordpool_EN.txt	CLOUD	2	13	[0, 0, 0]	n/a	FR1	0	R1251M
2096.572	0.851	2106189	WORD_OFF	n/a	n/a	CLOUD	2	13	[0, 0, 0]	n/a	FR1	0	R1251M
2097.423	1.616	2107040	WORD	n/a	wordpools/wordpool_EN.txt	PANTS	3	13	[0, 0, 0]	n/a	FR1	0	R1251M
2099.039	0.784	2108656	WORD_OFF	n/a	n/a	PANTS	3	13	[0, 0, 0]	n/a	FR1	0	R1251M
2099.823	1.617	2109440	WORD	n/a	wordpools/wordpool_EN.txt	YARD	4	13	[0, 0, 0]	n/a	FR1	0	R1251M
2101.44	0.9	2111057	WORD_OFF	n/a	n/a	YARD	4	13	[0, 0, 0]	n/a	FR1	0	R1251M
2102.34	1.617	2111957	WORD	n/a	wordpools/wordpool_EN.txt	CASH	5	13	[0, 0, 0]	n/a	FR1	0	R1251M
2103.957	1.017	2113574	WORD_OFF	n/a	n/a	CASH	5	13	[0, 0, 0]	n/a	FR1	0	R1251M
2104.974	1.617	2114591	WORD	n/a	wordpools/wordpool_EN.txt	GOAT	6	13	[0, 0, 0]	n/a	FR1	0	R1251M
2106.591	0.783	2116208	WORD_OFF	n/a	n/a	GOAT	6	13	[0, 0, 0]	n/a	FR1	0	R1251M
2107.374	1.617	2116991	WORD	n/a	wordpools/wordpool_EN.txt	TEETH	7	13	[0, 0, 0]	n/a	FR1	0	R1251M
2108.991	0.784	2118608	WORD_OFF	n/a	n/a	TEETH	7	13	[0, 0, 0]	n/a	FR1	0	R1251M
2109.775	1.618	2119392	WORD	n/a	wordpools/wordpool_EN.txt	CONE	8	13	[0, 0, 0]	n/a	FR1	0	R1251M
2111.393	0.849	2121010	WORD_OFF	n/a	n/a	CONE	8	13	[0, 0, 0]	n/a	FR1	0	R1251M
2112.242	1.617	2121858	WORD	n/a	wordpools/wordpool_EN.txt	BENCH	9	13	[0, 0, 0]	n/a	FR1	0	R1251M
2113.859	0.983	2123475	WORD_OFF	n/a	n/a	BENCH	9	13	[0, 0, 0]	n/a	FR1	0	R1251M
2114.842	1.617	2124458	WORD	n/a	wordpools/wordpool_EN.txt	VASE	10	13	[0, 0, 0]	n/a	FR1	0	R1251M
2116.459	1.017	2126075	WORD_OFF	n/a	n/a	VASE	10	13	[0, 0, 0]	n/a	FR1	0	R1251M
2117.476	1.617	2127092	WORD	n/a	wordpools/wordpool_EN.txt	STORE	11	13	[0, 0, 0]	n/a	FR1	0	R1251M
2119.093	0.95	2128709	WORD_OFF	n/a	n/a	STORE	11	13	[0, 0, 0]	n/a	FR1	0	R1251M
2120.043	1.617	2129659	WORD	n/a	wordpools/wordpool_EN.txt	APE	12	13	[0, 0, 0]	n/a	FR1	0	R1251M
2121.66	0.0	2131276	WORD_OFF	n/a	n/a	APE	12	13	[0, 0, 0]	n/a	FR1	0	R1251M
2121.66	0.001	2131276	DISTRACT_START	n/a	n/a	n/a	-999	13	[0, 0, 0]	n/a	FR1	0	R1251M
2121.661	0.016	2131277	START	n/a	n/a	n/a	-999	13	[-999, -999, -999]	n/a	FR1	0	R1251M
2121.677	9.518	2131293	PROB	9.518	n/a	n/a	-999	13	[9, 5, 8]	22	FR1	0	R1251M
2131.195	13.488	2140810	PROB	13.488	n/a	n/a	-999	13	[9, 6, 8]	23	FR1	0	R1251M
2144.683	0.015	2154298	STOP	n/a	n/a	n/a	-999	13	[-999, -999, -999]	n/a	FR1	0	R1251M
2144.698	0.517	2154313	DISTRACT_END	n/a	n/a	n/a	-999	13	[0, 0, 0]	n/a	FR1	0	R1251M
2145.215	0.517	2154830	RETRIEVAL_ORIENT	n/a	n/a	n/a	-999	13	[0, 0, 0]	n/a	FR1	0	R1251M
2145.732	1.854	2155347	REC_START	n/a	n/a	n/a	-999	13	[0, 0, 0]	n/a	FR1	0	R1251M
2147.586	2.776	2157200	REC_WORD	2.776	n/a	ROCK	-999	13	[0, 0, 0]	n/a	FR1	0	R1251M
2150.362	2.663	2159976	REC_WORD	2.663	n/a	BENCH	-999	13	[0, 0, 0]	n/a	FR1	0	R1251M
2153.025	11.56	2162639	REC_WORD	11.56	n/a	VASE	-999	13	[0, 0, 0]	n/a	FR1	0	R1251M
2164.585	6.483	2174199	REC_WORD	6.483	n/a	YARD	-999	13	[0, 0, 0]	n/a	FR1	0	R1251M
2171.068	3.616	2180681	REC_WORD	3.616	n/a	CASH	-999	13	[0, 0, 0]	n/a	FR1	0	R1251M
2174.684	1.062	2184297	REC_WORD	1.062	n/a	PANTS	-999	13	[0, 0, 0]	n/a	FR1	0	R1251M
2175.746	15.694	2185359	REC_END	n/a	n/a	n/a	-999	13	[0, 0, 0]	n/a	FR1	0	R1251M
2191.44	0.5	2201052	TRIAL	n/a	n/a	n/a	-999	14	[0, 0, 0]	n/a	FR1	0	R1251M
2191.94	10.428	2201552	COUNTDOWN_START	n/a	n/a	n/a	-999	14	[0, 0, 0]	n/a	FR1	0	R1251M
2202.368	0.009	2211979	COUNTDOWN_END	n/a	n/a	n/a	-999	14	[0, 0, 0]	n/a	FR1	0	R1251M
2202.377	1.616	2211988	ORIENT	n/a	n/a	n/a	-999	14	[0, 0, 0]	n/a	FR1	0	R1251M
2203.993	2.0	2213604	ORIENT_OFF	n/a	n/a	n/a	-999	14	[0, 0, 0]	n/a	FR1	0	R1251M
2205.993	1.617	2215604	WORD	n/a	wordpools/wordpool_EN.txt	PIT	1	14	[0, 0, 0]	n/a	FR1	0	R1251M
2207.61	0.801	2217221	WORD_OFF	n/a	n/a	PIT	1	14	[0, 0, 0]	n/a	FR1	0	R1251M
2208.411	1.616	2218022	WORD	n/a	wordpools/wordpool_EN.txt	TEA	2	14	[0, 0, 0]	n/a	FR1	0	R1251M
2210.027	0.784	2219638	WORD_OFF	n/a	n/a	TEA	2	14	[0, 0, 0]	n/a	FR1	0	R1251M
2210.811	1.617	2220422	WORD	n/a	wordpools/wordpool_EN.txt	CAKE	3	14	[0, 0, 0]	n/a	FR1	0	R1251M
2212.428	1.0	2222039	WORD_OFF	n/a	n/a	CAKE	3	14	[0, 0, 0]	n/a	FR1	0	R1251M
2213.428	1.617	2223039	WORD	n/a	wordpools/wordpool_EN.txt	DOLL	4	14	[0, 0, 0]	n/a	FR1	0	R1251M
2215.045	0.934	2224656	WORD_OFF	n/a	n/a	DOLL	4	14	[0, 0, 0]	n/a	FR1	0	R1251M
2215.979	1.616	2225590	WORD	n/a	wordpools/wordpool_EN.txt	ARM	5	14	[0, 0, 0]	n/a	FR1	0	R1251M
2217.595	0.801	2227206	WORD_OFF	n/a	n/a	ARM	5	14	[0, 0, 0]	n/a	FR1	0	R1251M
2218.396	1.617	2228006	WORD	n/a	wordpools/wordpool_EN.txt	MOOSE	6	14	[0, 0, 0]	n/a	FR1	0	R1251M
2220.013	0.833	2229623	WORD_OFF	n/a	n/a	MOOSE	6	14	[0, 0, 0]	n/a	FR1	0	R1251M
2220.846	1.617	2230456	WORD	n/a	wordpools/wordpool_EN.txt	GRASS	7	14	[0, 0, 0]	n/a	FR1	0	R1251M
2222.463	0.935	2232073	WORD_OFF	n/a	n/a	GRASS	7	14	[0, 0, 0]	n/a	FR1	0	R1251M
2223.398	1.616	2233008	WORD	n/a	wordpools/wordpool_EN.txt	MOON	8	14	[0, 0, 0]	n/a	FR1	0	R1251M
2225.014	0.883	2234624	WORD_OFF	n/a	n/a	MOON	8	14	[0, 0, 0]	n/a	FR1	0	R1251M
2225.897	1.617	2235507	WORD	n/a	wordpools/wordpool_EN.txt	MOLE	9	14	[0, 0, 0]	n/a	FR1	0	R1251M
2227.514	0.901	2237124	WORD_OFF	n/a	n/a	MOLE	9	14	[0, 0, 0]	n/a	FR1	0	R1251M
2228.415	1.616	2238025	WORD	n/a	wordpools/wordpool_EN.txt	KEY	10	14	[0, 0, 0]	n/a	FR1	0	R1251M
2230.031	0.767	2239641	WORD_OFF	n/a	n/a	KEY	10	14	[0, 0, 0]	n/a	FR1	0	R1251M
2230.798	1.618	2240408	WORD	n/a	wordpools/wordpool_EN.txt	DOOR	11	14	[0, 0, 0]	n/a	FR1	0	R1251M
2232.416	0.866	2242026	WORD_OFF	n/a	n/a	DOOR	11	14	[0, 0, 0]	n/a	FR1	0	R1251M
2233.282	1.617	2242892	WORD	n/a	wordpools/wordpool_EN.txt	FOX	12	14	[0, 0, 0]	n/a	FR1	0	R1251M
2234.899	0.0	2244509	WORD_OFF	n/a	n/a	FOX	12	14	[0, 0, 0]	n/a	FR1	0	R1251M
2234.899	0.0	2244509	DISTRACT_START	n/a	n/a	n/a	-999	14	[0, 0, 0]	n/a	FR1	0	R1251M
2234.899	0.017	2244509	START	n/a	n/a	n/a	-999	14	[-999, -999, -999]	n/a	FR1	0	R1251M
2234.916	10.101	2244526	PROB	10.101	n/a	n/a	-999	14	[5, 8, 3]	15	FR1	0	R1251M
2245.017	7.902	2254626	PROB	7.902	n/a	n/a	-999	14	[2, 6, 3]	11	FR1	0	R1251M
2252.919	9.477	2262528	PROB	9.477	n/a	n/a	-999	14	[4, 3, 7]	14	FR1	0	R1251M
2262.396	0.009	2272004	STOP	n/a	n/a	n/a	-999	14	[-999, -999, -999]	n/a	FR1	0	R1251M
2262.405	0.599	2272013	DISTRACT_END	n/a	n/a	n/a	-999	14	[0, 0, 0]	n/a	FR1	0	R1251M
2263.004	0.518	2272612	RETRIEVAL_ORIENT	n/a	n/a	n/a	-999	14	[0, 0, 0]	n/a	FR1	0	R1251M
2263.522	3.149	2273130	REC_START	n/a	n/a	n/a	-999	14	[0, 0, 0]	n/a	FR1	0	R1251M
2266.671	26.863	2276279	REC_WORD	26.863	n/a	FOX	-999	14	[0, 0, 0]	n/a	FR1	0	R1251M
2293.534	10.879	2303140	REC_END	n/a	n/a	n/a	-999	14	[0, 0, 0]	n/a	FR1	0	R1251M
2304.413	0.5	2314019	TRIAL	n/a	n/a	n/a	-999	15	[0, 0, 0]	n/a	FR1	0	R1251M
2304.913	10.428	2314519	COUNTDOWN_START	n/a	n/a	n/a	-999	15	[0, 0, 0]	n/a	FR1	0	R1251M
2315.341	0.007	2324946	COUNTDOWN_END	n/a	n/a	n/a	-999	15	[0, 0, 0]	n/a	FR1	0	R1251M
2315.348	1.617	2324953	ORIENT	n/a	n/a	n/a	-999	15	[0, 0, 0]	n/a	FR1	0	R1251M
2316.965	2.25	2326570	ORIENT_OFF	n/a	n/a	n/a	-999	15	[0, 0, 0]	n/a	FR1	0	R1251M
2319.215	1.617	2328820	WORD	n/a	wordpools/wordpool_EN.txt	TANK	1	15	[0, 0, 0]	n/a	FR1	0	R1251M
2320.832	0.917	2330437	WORD_OFF	n/a	n/a	TANK	1	15	[0, 0, 0]	n/a	FR1	0	R1251M
2321.749	1.617	2331354	WORD	n/a	wordpools/wordpool_EN.txt	MUG	2	15	[0, 0, 0]	n/a	FR1	0	R1251M
2323.366	0.817	2332971	WORD_OFF	n/a	n/a	MUG	2	15	[0, 0, 0]	n/a	FR1	0	R1251M
2324.183	1.617	2333788	WORD	n/a	wordpools/wordpool_EN.txt	PIG	3	15	[0, 0, 0]	n/a	FR1	0	R1251M
2325.8	0.9	2335404	WORD_OFF	n/a	n/a	PIG	3	15	[0, 0, 0]	n/a	FR1	0	R1251M
2326.7	1.617	2336304	WORD	n/a	wordpools/wordpool_EN.txt	BOOK	4	15	[0, 0, 0]	n/a	FR1	0	R1251M
2328.317	0.917	2337921	WORD_OFF	n/a	n/a	BOOK	4	15	[0, 0, 0]	n/a	FR1	0	R1251M
2329.234	1.617	2338838	WORD	n/a	wordpools/wordpool_EN.txt	THREAD	5	15	[0, 0, 0]	n/a	FR1	0	R1251M
2330.851	0.9	2340455	WORD_OFF	n/a	n/a	THREAD	5	15	[0, 0, 0]	n/a	FR1	0	R1251M
2331.751	1.617	2341355	WORD	n/a	wordpools/wordpool_EN.txt	BALL	6	15	[0, 0, 0]	n/a	FR1	0	R1251M
2333.368	0.833	2342972	WORD_OFF	n/a	n/a	BALL	6	15	[0, 0, 0]	n/a	FR1	0	R1251M
2334.201	1.617	2343805	WORD	n/a	wordpools/wordpool_EN.txt	FUDGE	7	15	[0, 0, 0]	n/a	FR1	0	R1251M
2335.818	0.934	2345422	WORD_OFF	n/a	n/a	FUDGE	7	15	[0, 0, 0]	n/a	FR1	0	R1251M
2336.752	1.617	2346356	WORD	n/a	wordpools/wordpool_EN.txt	WAVE	8	15	[0, 0, 0]	n/a	FR1	0	R1251M
2338.369	0.917	2347973	WORD_OFF	n/a	n/a	WAVE	8	15	[0, 0, 0]	n/a	FR1	0	R1251M
2339.286	1.617	2348890	WORD	n/a	wordpools/wordpool_EN.txt	BEAR	9	15	[0, 0, 0]	n/a	FR1	0	R1251M
2340.903	0.967	2350507	WORD_OFF	n/a	n/a	BEAR	9	15	[0, 0, 0]	n/a	FR1	0	R1251M
2341.87	1.617	2351474	WORD	n/a	wordpools/wordpool_EN.txt	ICE	10	15	[0, 0, 0]	n/a	FR1	0	R1251M
2343.487	0.983	2353090	WORD_OFF	n/a	n/a	ICE	10	15	[0, 0, 0]	n/a	FR1	0	R1251M
2344.47	1.617	2354073	WORD	n/a	wordpools/wordpool_EN.txt	STEM	11	15	[0, 0, 0]	n/a	FR1	0	R1251M
2346.087	0.784	2355690	WORD_OFF	n/a	n/a	STEM	11	15	[0, 0, 0]	n/a	FR1	0	R1251M
2346.871	1.617	2356474	WORD	n/a	wordpools/wordpool_EN.txt	BADGE	12	15	[0, 0, 0]	n/a	FR1	0	R1251M
2348.488	0.0	2358091	DISTRACT_START	n/a	n/a	n/a	-999	15	[0, 0, 0]	n/a	FR1	0	R1251M
2348.488	0.0	2358091	WORD_OFF	n/a	n/a	BADGE	12	15	[0, 0, 0]	n/a	FR1	0	R1251M
2348.488	0.016	2358091	START	n/a	n/a	n/a	-999	15	[-999, -999, -999]	n/a	FR1	0	R1251M
2348.504	7.552	2358107	PROB	7.552	n/a	n/a	-999	15	[6, 3, 4]	13	FR1	0	R1251M
2356.056	6.301	2365659	PROB	6.301	n/a	n/a	-999	15	[4, 3, 7]	14	FR1	0	R1251M
2362.357	8.605	2371959	PROB	8.605	n/a	n/a	-999	15	[4, 8, 4]	16	FR1	0	R1251M
2370.962	0.013	2380564	STOP	n/a	n/a	n/a	-999	15	[-999, -999, -999]	n/a	FR1	0	R1251M
2370.975	0.65	2380577	DISTRACT_END	n/a	n/a	n/a	-999	15	[0, 0, 0]	n/a	FR1	0	R1251M
2371.625	0.518	2381227	RETRIEVAL_ORIENT	n/a	n/a	n/a	-999	15	[0, 0, 0]	n/a	FR1	0	R1251M
2372.143	4.62	2381745	REC_START	n/a	n/a	n/a	-999	15	[0, 0, 0]	n/a	FR1	0	R1251M
2376.763	2.663	2386365	REC_WORD	2.663	n/a	TANK	-999	15	[0, 0, 0]	n/a	FR1	0	R1251M
2379.426	2.467	2389027	REC_WORD	2.467	n/a	PIG	-999	15	[0, 0, 0]	n/a	FR1	0	R1251M
2381.893	20.262	2391494	REC_WORD	20.262	n/a	MUG	-999	15	[0, 0, 0]	n/a	FR1	0	R1251M
2402.155	6.744	2411755	REC_END	n/a	n/a	n/a	-999	15	[0, 0, 0]	n/a	FR1	0	R1251M
2408.899	0.5	2418499	TRIAL	n/a	n/a	n/a	-999	16	[0, 0, 0]	n/a	FR1	0	R1251M
2409.399	10.428	2418999	COUNTDOWN_START	n/a	n/a	n/a	-999	16	[0, 0, 0]	n/a	FR1	0	R1251M
2419.827	0.008	2429426	COUNTDOWN_END	n/a	n/a	n/a	-999	16	[0, 0, 0]	n/a	FR1	0	R1251M
2419.835	1.617	2429434	ORIENT	n/a	n/a	n/a	-999	16	[0, 0, 0]	n/a	FR1	0	R1251M
2421.452	2.183	2431051	ORIENT_OFF	n/a	n/a	n/a	-999	16	[0, 0, 0]	n/a	FR1	0	R1251M
2423.635	1.617	2433234	WORD	n/a	wordpools/wordpool_EN.txt	OWL	1	16	[0, 0, 0]	n/a	FR1	0	R1251M
2425.252	0.951	2434851	WORD_OFF	n/a	n/a	OWL	1	16	[0, 0, 0]	n/a	FR1	0	R1251M
2426.203	1.617	2435802	WORD	n/a	wordpools/wordpool_EN.txt	BOWL	2	16	[0, 0, 0]	n/a	FR1	0	R1251M
2427.82	0.916	2437419	WORD_OFF	n/a	n/a	BOWL	2	16	[0, 0, 0]	n/a	FR1	0	R1251M
2428.736	1.617	2438335	WORD	n/a	wordpools/wordpool_EN.txt	KITE	3	16	[0, 0, 0]	n/a	FR1	0	R1251M
2430.353	0.951	2439952	WORD_OFF	n/a	n/a	KITE	3	16	[0, 0, 0]	n/a	FR1	0	R1251M
2431.304	1.617	2440902	WORD	n/a	wordpools/wordpool_EN.txt	HORN	4	16	[0, 0, 0]	n/a	FR1	0	R1251M
2432.921	0.8	2442519	WORD_OFF	n/a	n/a	HORN	4	16	[0, 0, 0]	n/a	FR1	0	R1251M
2433.721	1.617	2443319	WORD	n/a	wordpools/wordpool_EN.txt	SHRIMP	5	16	[0, 0, 0]	n/a	FR1	0	R1251M
2435.338	0.817	2444936	WORD_OFF	n/a	n/a	SHRIMP	5	16	[0, 0, 0]	n/a	FR1	0	R1251M
2436.155	1.617	2445753	WORD	n/a	wordpools/wordpool_EN.txt	CHIN	6	16	[0, 0, 0]	n/a	FR1	0	R1251M
2437.772	0.95	2447370	WORD_OFF	n/a	n/a	CHIN	6	16	[0, 0, 0]	n/a	FR1	0	R1251M
2438.722	1.617	2448320	WORD	n/a	wordpools/wordpool_EN.txt	BOX	7	16	[0, 0, 0]	n/a	FR1	0	R1251M
2440.339	0.833	2449937	WORD_OFF	n/a	n/a	BOX	7	16	[0, 0, 0]	n/a	FR1	0	R1251M
2441.172	1.617	2450770	WORD	n/a	wordpools/wordpool_EN.txt	DOG	8	16	[0, 0, 0]	n/a	FR1	0	R1251M
2442.789	0.784	2452387	WORD_OFF	n/a	n/a	DOG	8	16	[0, 0, 0]	n/a	FR1	0	R1251M
2443.573	1.617	2453171	WORD	n/a	wordpools/wordpool_EN.txt	SPRING	9	16	[0, 0, 0]	n/a	FR1	0	R1251M
2445.19	0.9	2454788	WORD_OFF	n/a	n/a	SPRING	9	16	[0, 0, 0]	n/a	FR1	0	R1251M
2446.09	1.617	2455688	WORD	n/a	wordpools/wordpool_EN.txt	OAK	10	16	[0, 0, 0]	n/a	FR1	0	R1251M
2447.707	0.767	2457305	WORD_OFF	n/a	n/a	OAK	10	16	[0, 0, 0]	n/a	FR1	0	R1251M
2448.474	1.617	2458072	WORD	n/a	wordpools/wordpool_EN.txt	TRUCK	11	16	[0, 0, 0]	n/a	FR1	0	R1251M
2450.091	0.866	2459688	WORD_OFF	n/a	n/a	TRUCK	11	16	[0, 0, 0]	n/a	FR1	0	R1251M
2450.957	1.617	2460554	WORD	n/a	wordpools/wordpool_EN.txt	WHEEL	12	16	[0, 0, 0]	n/a	FR1	0	R1251M
2452.574	0.0	2462171	WORD_OFF	n/a	n/a	WHEEL	12	16	[0, 0, 0]	n/a	FR1	0	R1251M
2452.574	0.001	2462171	DISTRACT_START	n/a	n/a	n/a	-999	16	[0, 0, 0]	n/a	FR1	0	R1251M
2452.575	0.016	2462172	START	n/a	n/a	n/a	-999	16	[-999, -999, -999]	n/a	FR1	0	R1251M
2452.591	7.301	2462188	PROB	7.301	n/a	n/a	-999	16	[4, 3, 1]	8	FR1	0	R1251M
2459.892	6.935	2469489	PROB	6.935	n/a	n/a	-999	16	[3, 7, 6]	16	FR1	0	R1251M
2466.827	6.456	2476423	PROB	6.456	n/a	n/a	-999	16	[3, 4, 2]	9	FR1	0	R1251M
2473.283	0.012	2482879	STOP	n/a	n/a	n/a	-999	16	[-999, -999, -999]	n/a	FR1	0	R1251M
2473.295	0.533	2482891	DISTRACT_END	n/a	n/a	n/a	-999	16	[0, 0, 0]	n/a	FR1	0	R1251M
2473.828	0.518	2483424	RETRIEVAL_ORIENT	n/a	n/a	n/a	-999	16	[0, 0, 0]	n/a	FR1	0	R1251M
2474.346	6.053	2483942	REC_START	n/a	n/a	n/a	-999	16	[0, 0, 0]	n/a	FR1	0	R1251M
2480.399	7.246	2489995	REC_WORD	7.246	n/a	BOX	-999	16	[0, 0, 0]	n/a	FR1	0	R1251M
2487.645	3.117	2497240	REC_WORD	3.117	n/a	OWL	-999	16	[0, 0, 0]	n/a	FR1	0	R1251M
2490.762	2.889	2500357	REC_WORD	2.889	n/a	BOWL	-999	16	[0, 0, 0]	n/a	FR1	0	R1251M
2493.651	10.705	2503246	REC_WORD	10.705	n/a	KITE	-999	16	[0, 0, 0]	n/a	FR1	0	R1251M
2504.356	26.667	2513950	REC_END	n/a	n/a	n/a	-999	16	[0, 0, 0]	n/a	FR1	0	R1251M
2531.023	0.5	2540616	TRIAL	n/a	n/a	n/a	-999	17	[0, 0, 0]	n/a	FR1	0	R1251M
2531.523	10.428	2541116	COUNTDOWN_START	n/a	n/a	n/a	-999	17	[0, 0, 0]	n/a	FR1	0	R1251M
2541.951	0.007	2551543	COUNTDOWN_END	n/a	n/a	n/a	-999	17	[0, 0, 0]	n/a	FR1	0	R1251M
2541.958	1.617	2551550	ORIENT	n/a	n/a	n/a	-999	17	[0, 0, 0]	n/a	FR1	0	R1251M
2543.575	1.901	2553167	ORIENT_OFF	n/a	n/a	n/a	-999	17	[0, 0, 0]	n/a	FR1	0	R1251M
2545.476	1.617	2555068	WORD	n/a	wordpools/wordpool_EN.txt	PEACH	1	17	[0, 0, 0]	n/a	FR1	0	R1251M
2547.093	0.833	2556685	WORD_OFF	n/a	n/a	PEACH	1	17	[0, 0, 0]	n/a	FR1	0	R1251M
2547.926	1.617	2557518	WORD	n/a	wordpools/wordpool_EN.txt	CART	2	17	[0, 0, 0]	n/a	FR1	0	R1251M
2549.543	0.9	2559135	WORD_OFF	n/a	n/a	CART	2	17	[0, 0, 0]	n/a	FR1	0	R1251M
2550.443	1.617	2560035	WORD	n/a	wordpools/wordpool_EN.txt	WORM	3	17	[0, 0, 0]	n/a	FR1	0	R1251M
2552.06	0.951	2561652	WORD_OFF	n/a	n/a	WORM	3	17	[0, 0, 0]	n/a	FR1	0	R1251M
2553.011	1.617	2562603	WORD	n/a	wordpools/wordpool_EN.txt	PET	4	17	[0, 0, 0]	n/a	FR1	0	R1251M
2554.628	0.933	2564220	WORD_OFF	n/a	n/a	PET	4	17	[0, 0, 0]	n/a	FR1	0	R1251M
2555.561	1.617	2565152	WORD	n/a	wordpools/wordpool_EN.txt	VEST	5	17	[0, 0, 0]	n/a	FR1	0	R1251M
2557.178	0.967	2566769	WORD_OFF	n/a	n/a	VEST	5	17	[0, 0, 0]	n/a	FR1	0	R1251M
2558.145	1.617	2567736	WORD	n/a	wordpools/wordpool_EN.txt	WALL	6	17	[0, 0, 0]	n/a	FR1	0	R1251M
2559.762	0.967	2569353	WORD_OFF	n/a	n/a	WALL	6	17	[0, 0, 0]	n/a	FR1	0	R1251M
2560.729	1.617	2570320	WORD	n/a	wordpools/wordpool_EN.txt	TOAD	7	17	[0, 0, 0]	n/a	FR1	0	R1251M
2562.346	0.783	2571937	WORD_OFF	n/a	n/a	TOAD	7	17	[0, 0, 0]	n/a	FR1	0	R1251M
2563.129	1.617	2572720	WORD	n/a	wordpools/wordpool_EN.txt	GATE	8	17	[0, 0, 0]	n/a	FR1	0	R1251M
2564.746	0.867	2574337	WORD_OFF	n/a	n/a	GATE	8	17	[0, 0, 0]	n/a	FR1	0	R1251M
2565.613	1.617	2575204	WORD	n/a	wordpools/wordpool_EN.txt	HILL	9	17	[0, 0, 0]	n/a	FR1	0	R1251M
2567.23	0.933	2576821	WORD_OFF	n/a	n/a	HILL	9	17	[0, 0, 0]	n/a	FR1	0	R1251M
2568.163	1.617	2577754	WORD	n/a	wordpools/wordpool_EN.txt	WORLD	10	17	[0, 0, 0]	n/a	FR1	0	R1251M
2569.78	0.934	2579371	WORD_OFF	n/a	n/a	WORLD	10	17	[0, 0, 0]	n/a	FR1	0	R1251M
2570.714	1.617	2580305	WORD	n/a	wordpools/wordpool_EN.txt	HAT	11	17	[0, 0, 0]	n/a	FR1	0	R1251M
2572.331	1.017	2581922	WORD_OFF	n/a	n/a	HAT	11	17	[0, 0, 0]	n/a	FR1	0	R1251M
2573.348	1.617	2582938	WORD	n/a	wordpools/wordpool_EN.txt	BAG	12	17	[0, 0, 0]	n/a	FR1	0	R1251M
2574.965	0.0	2584555	WORD_OFF	n/a	n/a	BAG	12	17	[0, 0, 0]	n/a	FR1	0	R1251M
2574.965	0.0	2584555	DISTRACT_START	n/a	n/a	n/a	-999	17	[0, 0, 0]	n/a	FR1	0	R1251M
2574.965	0.016	2584555	START	n/a	n/a	n/a	-999	17	[-999, -999, -999]	n/a	FR1	0	R1251M
2574.981	10.352	2584571	PROB	10.352	n/a	n/a	-999	17	[7, 4, 8]	19	FR1	0	R1251M
2585.333	6.069	2594923	PROB	6.069	n/a	n/a	-999	17	[9, 6, 4]	19	FR1	0	R1251M
2591.402	9.05	2600991	PROB	9.05	n/a	n/a	-999	17	[7, 5, 8]	20	FR1	0	R1251M
2600.452	0.018	2610041	STOP	n/a	n/a	n/a	-999	17	[-999, -999, -999]	n/a	FR1	0	R1251M
2600.47	0.683	2610059	DISTRACT_END	n/a	n/a	n/a	-999	17	[0, 0, 0]	n/a	FR1	0	R1251M
2601.153	0.517	2610742	RETRIEVAL_ORIENT	n/a	n/a	n/a	-999	17	[0, 0, 0]	n/a	FR1	0	R1251M
2601.67	4.597	2611259	REC_START	n/a	n/a	n/a	-999	17	[0, 0, 0]	n/a	FR1	0	R1251M
2606.267	6.472	2615856	REC_WORD	6.472	n/a	HAT	-999	17	[0, 0, 0]	n/a	FR1	0	R1251M
2612.739	3.631	2622327	REC_WORD	3.631	n/a	TOAD	-999	17	[0, 0, 0]	n/a	FR1	0	R1251M
2616.37	15.312	2625958	REC_WORD	15.312	n/a	PET	-999	17	[0, 0, 0]	n/a	FR1	0	R1251M
2631.682	5.861	2641269	REC_END	n/a	n/a	n/a	-999	17	[0, 0, 0]	n/a	FR1	0	R1251M
2637.543	0.5	2647130	TRIAL	n/a	n/a	n/a	-999	18	[0, 0, 0]	n/a	FR1	0	R1251M
2638.043	10.428	2647630	COUNTDOWN_START	n/a	n/a	n/a	-999	18	[0, 0, 0]	n/a	FR1	0	R1251M
2648.471	0.008	2658057	COUNTDOWN_END	n/a	n/a	n/a	-999	18	[0, 0, 0]	n/a	FR1	0	R1251M
2648.479	1.617	2658065	ORIENT	n/a	n/a	n/a	-999	18	[0, 0, 0]	n/a	FR1	0	R1251M
2650.096	2.034	2659682	ORIENT_OFF	n/a	n/a	n/a	-999	18	[0, 0, 0]	n/a	FR1	0	R1251M
2652.13	1.617	2661716	WORD	n/a	wordpools/wordpool_EN.txt	PRINCE	1	18	[0, 0, 0]	n/a	FR1	0	R1251M
2653.747	0.8	2663333	WORD_OFF	n/a	n/a	PRINCE	1	18	[0, 0, 0]	n/a	FR1	0	R1251M
2654.547	1.617	2664133	WORD	n/a	wordpools/wordpool_EN.txt	BLUSH	2	18	[0, 0, 0]	n/a	FR1	0	R1251M
2656.164	0.8	2665750	WORD_OFF	n/a	n/a	BLUSH	2	18	[0, 0, 0]	n/a	FR1	0	R1251M
2656.964	1.617	2666550	WORD	n/a	wordpools/wordpool_EN.txt	SWORD	3	18	[0, 0, 0]	n/a	FR1	0	R1251M
2658.581	0.835	2668167	WORD_OFF	n/a	n/a	SWORD	3	18	[0, 0, 0]	n/a	FR1	0	R1251M
2659.416	1.616	2669002	WORD	n/a	wordpools/wordpool_EN.txt	CROWN	4	18	[0, 0, 0]	n/a	FR1	0	R1251M
2661.032	0.816	2670618	WORD_OFF	n/a	n/a	CROWN	4	18	[0, 0, 0]	n/a	FR1	0	R1251M
2661.848	1.617	2671433	WORD	n/a	wordpools/wordpool_EN.txt	WING	5	18	[0, 0, 0]	n/a	FR1	0	R1251M
2663.465	0.817	2673050	WORD_OFF	n/a	n/a	WING	5	18	[0, 0, 0]	n/a	FR1	0	R1251M
2664.282	1.617	2673867	WORD	n/a	wordpools/wordpool_EN.txt	HAND	6	18	[0, 0, 0]	n/a	FR1	0	R1251M
2665.899	0.784	2675484	WORD_OFF	n/a	n/a	HAND	6	18	[0, 0, 0]	n/a	FR1	0	R1251M
2666.683	1.617	2676268	WORD	n/a	wordpools/wordpool_EN.txt	SPEAR	7	18	[0, 0, 0]	n/a	FR1	0	R1251M
2668.3	0.883	2677885	WORD_OFF	n/a	n/a	SPEAR	7	18	[0, 0, 0]	n/a	FR1	0	R1251M
2669.183	1.617	2678768	WORD	n/a	wordpools/wordpool_EN.txt	STONE	8	18	[0, 0, 0]	n/a	FR1	0	R1251M
2670.8	0.917	2680385	WORD_OFF	n/a	n/a	STONE	8	18	[0, 0, 0]	n/a	FR1	0	R1251M
2671.717	1.617	2681302	WORD	n/a	wordpools/wordpool_EN.txt	PIN	9	18	[0, 0, 0]	n/a	FR1	0	R1251M
2673.334	1.0	2682919	WORD_OFF	n/a	n/a	PIN	9	18	[0, 0, 0]	n/a	FR1	0	R1251M
2674.334	1.617	2683919	WORD	n/a	wordpools/wordpool_EN.txt	FACE	10	18	[0, 0, 0]	n/a	FR1	0	R1251M
2675.951	0.867	2685536	WORD_OFF	n/a	n/a	FACE	10	18	[0, 0, 0]	n/a	FR1	0	R1251M
2676.818	1.617	2686403	WORD	n/a	wordpools/wordpool_EN.txt	LAWN	11	18	[0, 0, 0]	n/a	FR1	0	R1251M
2678.435	0.85	2688020	WORD_OFF	n/a	n/a	LAWN	11	18	[0, 0, 0]	n/a	FR1	0	R1251M
2679.285	1.617	2688869	WORD	n/a	wordpools/wordpool_EN.txt	BLOOM	12	18	[0, 0, 0]	n/a	FR1	0	R1251M
2680.902	0.0	2690486	WORD_OFF	n/a	n/a	BLOOM	12	18	[0, 0, 0]	n/a	FR1	0	R1251M
2680.902	0.001	2690486	DISTRACT_START	n/a	n/a	n/a	-999	18	[0, 0, 0]	n/a	FR1	0	R1251M
2680.903	0.016	2690487	START	n/a	n/a	n/a	-999	18	[-999, -999, -999]	n/a	FR1	0	R1251M
2680.919	4.468	2690503	PROB	4.468	n/a	n/a	-999	18	[3, 7, 1]	11	FR1	0	R1251M
2685.387	5.65	2694971	PROB	5.65	n/a	n/a	-999	18	[2, 9, 1]	12	FR1	0	R1251M
2691.037	7.168	2700621	PROB	7.168	n/a	n/a	-999	18	[9, 5, 6]	20	FR1	0	R1251M
2698.205	6.166	2707788	PROB	6.166	n/a	n/a	-999	18	[5, 5, 6]	16	FR1	0	R1251M
2704.371	0.02	2713954	STOP	n/a	n/a	n/a	-999	18	[-999, -999, -999]	n/a	FR1	0	R1251M
2704.391	0.599	2713974	DISTRACT_END	n/a	n/a	n/a	-999	18	[0, 0, 0]	n/a	FR1	0	R1251M
2704.99	0.517	2714573	RETRIEVAL_ORIENT	n/a	n/a	n/a	-999	18	[0, 0, 0]	n/a	FR1	0	R1251M
2705.507	2.017	2715090	REC_START	n/a	n/a	n/a	-999	18	[0, 0, 0]	n/a	FR1	0	R1251M
2707.524	2.22	2717107	REC_WORD	2.22	n/a	PRINCE	-999	18	[0, 0, 0]	n/a	FR1	0	R1251M
2709.744	2.742	2719327	REC_WORD	2.742	n/a	CROWN	-999	18	[0, 0, 0]	n/a	FR1	0	R1251M
2712.486	5.331	2722069	REC_WORD	5.331	n/a	HAND	-999	18	[0, 0, 0]	n/a	FR1	0	R1251M
2717.817	17.704	2727399	REC_WORD	17.704	n/a	LAWN	-999	18	[0, 0, 0]	n/a	FR1	0	R1251M
2735.521	12.211	2745102	REC_END	n/a	n/a	n/a	-999	18	[0, 0, 0]	n/a	FR1	0	R1251M
2747.732	0.0	2757313	TRIAL	n/a	n/a	n/a	-999	19	[0, 0, 0]	n/a	FR1	0	R1251M
