onset	duration	sample	trial_type	response_time	stim_file	item_name	serialpos	list	test	answer	experiment	session	subject
0.0	58.267	336426	INSTRUCT_START	n/a	n/a	n/a	-999	-999	[0, 0, 0]	n/a	FR1	0	R1542J
58.267	34.25	394694	INSTRUCT_END	n/a	n/a	n/a	-999	-999	[0, 0, 0]	n/a	FR1	0	R1542J
92.517	10.349	428942	COUNTDOWN_START	n/a	n/a	n/a	-999	-999	[0, 0, 0]	n/a	FR1	0	R1542J
102.866	0.0	439285	COUNTDOWN_END	n/a	n/a	n/a	-999	-999	[0, 0, 0]	n/a	FR1	0	R1542J
102.866	2.201	439301	ENCODING_START	n/a	n/a	n/a	-999	-1	[0, 0, 0]	n/a	FR1	0	R1542J
105.067	1.617	441497	WORD	n/a	n/a	SPARK	1	-1	[0, 0, 0]	n/a	FR1	0	R1542J
106.684	1.0	443107	WORD_OFF	n/a	n/a	SPARK	1	-1	[0, 0, 0]	n/a	FR1	0	R1542J
107.684	1.616	444115	WORD	n/a	n/a	TEETH	2	-1	[0, 0, 0]	n/a	FR1	0	R1542J
109.3	0.784	445725	WORD_OFF	n/a	n/a	TEETH	2	-1	[0, 0, 0]	n/a	FR1	0	R1542J
110.084	1.6	446505	WORD	n/a	n/a	VAULT	3	-1	[0, 0, 0]	n/a	FR1	0	R1542J
111.684	0.866	448115	WORD_OFF	n/a	n/a	VAULT	3	-1	[0, 0, 0]	n/a	FR1	0	R1542J
112.55	1.6	448977	WORD	n/a	n/a	TENT	4	-1	[0, 0, 0]	n/a	FR1	0	R1542J
114.15	0.866	450571	WORD_OFF	n/a	n/a	TENT	4	-1	[0, 0, 0]	n/a	FR1	0	R1542J
115.016	1.601	451433	WORD	n/a	n/a	BAND	5	-1	[0, 0, 0]	n/a	FR1	0	R1542J
116.617	0.883	453043	WORD_OFF	n/a	n/a	BAND	5	-1	[0, 0, 0]	n/a	FR1	0	R1542J
117.5	1.6	453921	WORD	n/a	n/a	RAIL	6	-1	[0, 0, 0]	n/a	FR1	0	R1542J
119.1	0.883	455531	WORD_OFF	n/a	n/a	RAIL	6	-1	[0, 0, 0]	n/a	FR1	0	R1542J
119.983	1.601	456409	WORD	n/a	n/a	HOUND	7	-1	[0, 0, 0]	n/a	FR1	0	R1542J
121.584	0.949	458003	WORD_OFF	n/a	n/a	HOUND	7	-1	[0, 0, 0]	n/a	FR1	0	R1542J
122.533	1.6	458962	WORD	n/a	n/a	SHOE	8	-1	[0, 0, 0]	n/a	FR1	0	R1542J
124.133	0.984	460556	WORD_OFF	n/a	n/a	SHOE	8	-1	[0, 0, 0]	n/a	FR1	0	R1542J
125.117	1.616	461548	WORD	n/a	n/a	HUT	9	-1	[0, 0, 0]	n/a	FR1	0	R1542J
126.733	0.984	463158	WORD_OFF	n/a	n/a	HUT	9	-1	[0, 0, 0]	n/a	FR1	0	R1542J
127.717	1.615	464134	WORD	n/a	n/a	GATE	10	-1	[0, 0, 0]	n/a	FR1	0	R1542J
129.332	0.801	465760	WORD_OFF	n/a	n/a	GATE	10	-1	[0, 0, 0]	n/a	FR1	0	R1542J
130.133	1.6	466557	WORD	n/a	n/a	BLADE	11	-1	[0, 0, 0]	n/a	FR1	0	R1542J
131.733	0.766	468151	WORD_OFF	n/a	n/a	BLADE	11	-1	[0, 0, 0]	n/a	FR1	0	R1542J
132.499	1.618	468931	WORD	n/a	n/a	HAZE	12	-1	[0, 0, 0]	n/a	FR1	0	R1542J
134.117	0.001	470534	PROB	0.001	n/a	n/a	-999	-1	[3, 8, 4]	15	FR1	0	R1542J
134.118	0.0	470535	START	n/a	n/a	n/a	-999	-1	[-999, -999, -999]	n/a	FR1	0	R1542J
134.117	0.001	470541	WORD_OFF	n/a	n/a	HAZE	12	-1	[0, 0, 0]	n/a	FR1	0	R1542J
134.118	0.0	470541	ENCODING_END	n/a	n/a	n/a	-999	-1	[0, 0, 0]	n/a	FR1	0	R1542J
134.118	3.166	470541	DISTRACT_START	n/a	n/a	n/a	-999	-1	[0, 0, 0]	n/a	FR1	0	R1542J
137.284	3.382	473701	PROB	3.382	n/a	n/a	-999	-1	[3, 5, 2]	10	FR1	0	R1542J
140.666	3.133	477083	PROB	3.133	n/a	n/a	-999	-1	[8, 4, 8]	20	FR1	0	R1542J
143.799	2.984	480216	PROB	2.984	n/a	n/a	-999	-1	[6, 5, 4]	15	FR1	0	R1542J
146.783	2.95	483200	PROB	2.95	n/a	n/a	-999	-1	[6, 7, 4]	17	FR1	0	R1542J
149.733	2.734	486149	PROB	2.734	n/a	n/a	-999	-1	[1, 3, 7]	11	FR1	0	R1542J
152.467	3.149	488883	PROB	3.149	n/a	n/a	-999	-1	[3, 1, 2]	6	FR1	0	R1542J
155.616	0.0	492032	STOP	n/a	n/a	n/a	-999	-1	[-999, -999, -999]	n/a	FR1	0	R1542J
155.616	1.616	492040	DISTRACT_END	n/a	n/a	n/a	-999	-1	[0, 0, 0]	n/a	FR1	0	R1542J
157.232	0.925	493650	REC_START	n/a	n/a	n/a	-999	-1	[0, 0, 0]	n/a	FR1	0	R1542J
158.157	1.156	494573	REC_WORD	1.156	n/a	HUT	9	-1	[0, 0, 0]	n/a	FR1	0	R1542J
159.313	3.067	495729	REC_WORD	3.067	n/a	GATE	10	-1	[0, 0, 0]	n/a	FR1	0	R1542J
162.38	3.345	498796	REC_WORD	3.345	n/a	SPARK	1	-1	[0, 0, 0]	n/a	FR1	0	R1542J
165.725	10.318	502141	REC_WORD	10.318	n/a	TEETH	2	-1	[0, 0, 0]	n/a	FR1	0	R1542J
176.043	11.382	512458	REC_WORD	11.382	n/a	RAIL	6	-1	[0, 0, 0]	n/a	FR1	0	R1542J
187.425	16.642	523849	REC_END	n/a	n/a	n/a	-999	-1	[0, 0, 0]	n/a	FR1	0	R1542J
204.067	10.35	540485	COUNTDOWN_START	n/a	n/a	n/a	-999	1	[0, 0, 0]	n/a	FR1	0	R1542J
214.417	0.0	550844	COUNTDOWN_END	n/a	n/a	n/a	-999	1	[0, 0, 0]	n/a	FR1	0	R1542J
214.417	2.1	550844	ENCODING_START	n/a	n/a	n/a	-999	1	[0, 0, 0]	n/a	FR1	0	R1542J
216.517	1.616	552942	WORD	n/a	wordpools/wordpool_long_EN.txt	WORM	1	1	[0, 0, 0]	n/a	FR1	0	R1542J
218.133	0.866	554552	WORD_OFF	n/a	n/a	WORM	1	1	[0, 0, 0]	n/a	FR1	0	R1542J
218.999	1.601	555414	WORD	n/a	wordpools/wordpool_long_EN.txt	SPOOL	2	1	[0, 0, 0]	n/a	FR1	0	R1542J
220.6	0.798	557024	WORD_OFF	n/a	n/a	SPOOL	2	1	[0, 0, 0]	n/a	FR1	0	R1542J
221.398	1.601	557821	WORD	n/a	wordpools/wordpool_long_EN.txt	STEM	3	1	[0, 0, 0]	n/a	FR1	0	R1542J
222.999	0.917	559414	WORD_OFF	n/a	n/a	STEM	3	1	[0, 0, 0]	n/a	FR1	0	R1542J
223.916	1.617	560341	WORD	n/a	wordpools/wordpool_long_EN.txt	WOOD	4	1	[0, 0, 0]	n/a	FR1	0	R1542J
225.533	0.984	561951	WORD_OFF	n/a	n/a	WOOD	4	1	[0, 0, 0]	n/a	FR1	0	R1542J
226.517	1.615	562943	WORD	n/a	wordpools/wordpool_long_EN.txt	FRAME	5	1	[0, 0, 0]	n/a	FR1	0	R1542J
228.132	0.917	564553	WORD_OFF	n/a	n/a	FRAME	5	1	[0, 0, 0]	n/a	FR1	0	R1542J
229.049	1.617	565464	WORD	n/a	wordpools/wordpool_long_EN.txt	SHIELD	6	1	[0, 0, 0]	n/a	FR1	0	R1542J
230.666	1.001	567090	WORD_OFF	n/a	n/a	SHIELD	6	1	[0, 0, 0]	n/a	FR1	0	R1542J
231.667	1.616	568082	WORD	n/a	wordpools/wordpool_long_EN.txt	TAIL	7	1	[0, 0, 0]	n/a	FR1	0	R1542J
233.283	0.983	569708	WORD_OFF	n/a	n/a	TAIL	7	1	[0, 0, 0]	n/a	FR1	0	R1542J
234.266	1.6	570684	WORD	n/a	wordpools/wordpool_long_EN.txt	FRUIT	8	1	[0, 0, 0]	n/a	FR1	0	R1542J
235.866	0.85	572278	WORD_OFF	n/a	n/a	FRUIT	8	1	[0, 0, 0]	n/a	FR1	0	R1542J
236.716	1.616	573140	WORD	n/a	wordpools/wordpool_long_EN.txt	RICE	9	1	[0, 0, 0]	n/a	FR1	0	R1542J
238.332	0.899	574750	WORD_OFF	n/a	n/a	RICE	9	1	[0, 0, 0]	n/a	FR1	0	R1542J
239.231	1.601	575644	WORD	n/a	wordpools/wordpool_long_EN.txt	MAIL	10	1	[0, 0, 0]	n/a	FR1	0	R1542J
240.832	0.968	577254	WORD_OFF	n/a	n/a	MAIL	10	1	[0, 0, 0]	n/a	FR1	0	R1542J
241.8	1.615	578214	WORD	n/a	wordpools/wordpool_long_EN.txt	SINK	11	1	[0, 0, 0]	n/a	FR1	0	R1542J
243.415	1.001	579840	WORD_OFF	n/a	n/a	SINK	11	1	[0, 0, 0]	n/a	FR1	0	R1542J
244.416	1.617	580832	WORD	n/a	wordpools/wordpool_long_EN.txt	TART	12	1	[0, 0, 0]	n/a	FR1	0	R1542J
246.033	0.0	582445	START	n/a	n/a	n/a	-999	1	[-999, -999, -999]	n/a	FR1	0	R1542J
246.033	0.0	582445	PROB	0.0	n/a	n/a	-999	1	[6, 3, 3]	12	FR1	0	R1542J
246.032	0.001	582458	WORD_OFF	n/a	n/a	TART	12	1	[0, 0, 0]	n/a	FR1	0	R1542J
246.033	0.0	582458	ENCODING_END	n/a	n/a	n/a	-999	1	[0, 0, 0]	n/a	FR1	0	R1542J
246.033	3.95	582458	DISTRACT_START	n/a	n/a	n/a	-999	1	[0, 0, 0]	n/a	FR1	0	R1542J
249.983	4.167	586395	PROB	4.167	n/a	n/a	-999	1	[2, 7, 5]	14	FR1	0	R1542J
254.15	2.549	590562	PROB	2.549	n/a	n/a	-999	1	[5, 1, 5]	11	FR1	0	R1542J
256.699	2.651	593111	PROB	2.651	n/a	n/a	-999	1	[7, 3, 3]	13	FR1	0	R1542J
259.35	2.898	595762	PROB	2.898	n/a	n/a	-999	1	[2, 6, 6]	14	FR1	0	R1542J
262.248	2.319	598660	PROB	2.319	n/a	n/a	-999	1	[1, 3, 3]	7	FR1	0	R1542J
264.567	3.715	600979	PROB	3.715	n/a	n/a	-999	1	[5, 4, 6]	15	FR1	0	R1542J
268.282	0.0	604694	STOP	n/a	n/a	n/a	-999	1	[-999, -999, -999]	n/a	FR1	0	R1542J
268.282	1.733	604705	DISTRACT_END	n/a	n/a	n/a	-999	1	[0, 0, 0]	n/a	FR1	0	R1542J
270.015	2.495	606429	REC_START	n/a	n/a	n/a	-999	1	[0, 0, 0]	n/a	FR1	0	R1542J
272.51	1.695	608921	REC_WORD	1.695	n/a	FRAME	5	1	[0, 0, 0]	n/a	FR1	0	R1542J
274.205	1.5	610616	REC_WORD	1.5	n/a	WOOD	4	1	[0, 0, 0]	n/a	FR1	0	R1542J
275.705	2.165	612116	REC_WORD	2.165	n/a	STEM	3	1	[0, 0, 0]	n/a	FR1	0	R1542J
277.87	2.05	614281	REC_WORD	2.05	n/a	WORM	1	1	[0, 0, 0]	n/a	FR1	0	R1542J
279.92	20.276	616331	REC_WORD	20.276	n/a	SINK	11	1	[0, 0, 0]	n/a	FR1	0	R1542J
300.196	1.521	636612	REC_END	n/a	n/a	n/a	-999	1	[0, 0, 0]	n/a	FR1	0	R1542J
301.717	10.348	638140	COUNTDOWN_START	n/a	n/a	n/a	-999	1	[0, 0, 0]	n/a	FR1	0	R1542J
312.065	0.0	648483	COUNTDOWN_END	n/a	n/a	n/a	-999	1	[0, 0, 0]	n/a	FR1	0	R1542J
312.065	1.968	648483	ENCODING_START	n/a	n/a	n/a	-999	2	[0, 0, 0]	n/a	FR1	0	R1542J
314.033	1.6	650451	WORD	n/a	wordpools/wordpool_long_EN.txt	DOCK	1	2	[0, 0, 0]	n/a	FR1	0	R1542J
315.633	0.967	652044	WORD_OFF	n/a	n/a	DOCK	1	2	[0, 0, 0]	n/a	FR1	0	R1542J
316.6	1.616	653020	WORD	n/a	wordpools/wordpool_long_EN.txt	TIE	2	2	[0, 0, 0]	n/a	FR1	0	R1542J
318.216	0.766	654630	WORD_OFF	n/a	n/a	TIE	2	2	[0, 0, 0]	n/a	FR1	0	R1542J
318.982	1.601	655394	WORD	n/a	wordpools/wordpool_long_EN.txt	THUMB	3	2	[0, 0, 0]	n/a	FR1	0	R1542J
320.583	0.9	657004	WORD_OFF	n/a	n/a	THUMB	3	2	[0, 0, 0]	n/a	FR1	0	R1542J
321.483	1.615	657899	WORD	n/a	wordpools/wordpool_long_EN.txt	HEDGE	4	2	[0, 0, 0]	n/a	FR1	0	R1542J
323.098	0.868	659509	WORD_OFF	n/a	n/a	HEDGE	4	2	[0, 0, 0]	n/a	FR1	0	R1542J
323.966	1.601	660387	WORD	n/a	wordpools/wordpool_long_EN.txt	BEEF	5	2	[0, 0, 0]	n/a	FR1	0	R1542J
325.567	0.915	661981	WORD_OFF	n/a	n/a	BEEF	5	2	[0, 0, 0]	n/a	FR1	0	R1542J
326.482	1.601	662891	WORD	n/a	wordpools/wordpool_long_EN.txt	SALT	6	2	[0, 0, 0]	n/a	FR1	0	R1542J
328.083	0.8	664501	WORD_OFF	n/a	n/a	SALT	6	2	[0, 0, 0]	n/a	FR1	0	R1542J
328.883	1.615	665298	WORD	n/a	wordpools/wordpool_long_EN.txt	GRILL	7	2	[0, 0, 0]	n/a	FR1	0	R1542J
330.498	0.969	666908	WORD_OFF	n/a	n/a	GRILL	7	2	[0, 0, 0]	n/a	FR1	0	R1542J
331.467	1.6	667884	WORD	n/a	wordpools/wordpool_long_EN.txt	COOK	8	2	[0, 0, 0]	n/a	FR1	0	R1542J
333.067	0.915	669478	WORD_OFF	n/a	n/a	COOK	8	2	[0, 0, 0]	n/a	FR1	0	R1542J
333.982	1.6	670404	WORD	n/a	wordpools/wordpool_long_EN.txt	SPONGE	9	2	[0, 0, 0]	n/a	FR1	0	R1542J
335.582	0.8	671998	WORD_OFF	n/a	n/a	SPONGE	9	2	[0, 0, 0]	n/a	FR1	0	R1542J
336.382	1.601	672795	WORD	n/a	wordpools/wordpool_long_EN.txt	HOOK	10	2	[0, 0, 0]	n/a	FR1	0	R1542J
337.983	0.933	674405	WORD_OFF	n/a	n/a	HOOK	10	2	[0, 0, 0]	n/a	FR1	0	R1542J
338.916	1.6	675332	WORD	n/a	wordpools/wordpool_long_EN.txt	INN	11	2	[0, 0, 0]	n/a	FR1	0	R1542J
340.516	0.899	676926	WORD_OFF	n/a	n/a	INN	11	2	[0, 0, 0]	n/a	FR1	0	R1542J
341.415	1.601	677836	WORD	n/a	wordpools/wordpool_long_EN.txt	MAZE	12	2	[0, 0, 0]	n/a	FR1	0	R1542J
343.016	0.001	679424	START	n/a	n/a	n/a	-999	2	[-999, -999, -999]	n/a	FR1	0	R1542J
343.017	0.0	679425	PROB	0.0	n/a	n/a	-999	2	[2, 1, 3]	6	FR1	0	R1542J
343.016	0.0	679430	WORD_OFF	n/a	n/a	MAZE	12	2	[0, 0, 0]	n/a	FR1	0	R1542J
343.016	0.0	679430	ENCODING_END	n/a	n/a	n/a	-999	2	[0, 0, 0]	n/a	FR1	0	R1542J
343.016	2.817	679430	DISTRACT_START	n/a	n/a	n/a	-999	2	[0, 0, 0]	n/a	FR1	0	R1542J
345.833	3.866	682241	PROB	3.866	n/a	n/a	-999	2	[7, 2, 6]	15	FR1	0	R1542J
349.699	2.9	686107	PROB	2.9	n/a	n/a	-999	2	[2, 4, 7]	13	FR1	0	R1542J
352.599	2.916	689007	PROB	2.916	n/a	n/a	-999	2	[6, 8, 7]	21	FR1	0	R1542J
355.515	3.834	691923	PROB	3.834	n/a	n/a	-999	2	[7, 7, 6]	20	FR1	0	R1542J
359.349	4.449	695757	PROB	4.449	n/a	n/a	-999	2	[5, 4, 4]	13	FR1	0	R1542J
363.798	0.0	700206	STOP	n/a	n/a	n/a	-999	2	[-999, -999, -999]	n/a	FR1	0	R1542J
363.798	1.717	700213	DISTRACT_END	n/a	n/a	n/a	-999	2	[0, 0, 0]	n/a	FR1	0	R1542J
365.515	1.355	701937	REC_START	n/a	n/a	n/a	-999	2	[0, 0, 0]	n/a	FR1	0	R1542J
366.87	1.325	703278	REC_WORD	1.325	n/a	BEEF	5	2	[0, 0, 0]	n/a	FR1	0	R1542J
368.195	1.75	704602	REC_WORD	1.75	n/a	SALT	6	2	[0, 0, 0]	n/a	FR1	0	R1542J
369.945	1.78	706352	REC_WORD	1.78	n/a	GRILL	7	2	[0, 0, 0]	n/a	FR1	0	R1542J
371.725	2.06	708132	REC_WORD	2.06	n/a	DOCK	1	2	[0, 0, 0]	n/a	FR1	0	R1542J
373.785	6.635	710192	REC_WORD	6.635	n/a	TIE	2	2	[0, 0, 0]	n/a	FR1	0	R1542J
380.42	15.278	716827	REC_WORD	15.278	n/a	THUMB	3	2	[0, 0, 0]	n/a	FR1	0	R1542J
395.698	1.386	732104	REC_END	n/a	n/a	n/a	-999	2	[0, 0, 0]	n/a	FR1	0	R1542J
397.084	10.35	733502	COUNTDOWN_START	n/a	n/a	n/a	-999	2	[0, 0, 0]	n/a	FR1	0	R1542J
407.434	0.0	743845	COUNTDOWN_END	n/a	n/a	n/a	-999	2	[0, 0, 0]	n/a	FR1	0	R1542J
407.434	2.233	743845	ENCODING_START	n/a	n/a	n/a	-999	3	[0, 0, 0]	n/a	FR1	0	R1542J
409.667	1.616	746073	WORD	n/a	wordpools/wordpool_long_EN.txt	DOG	1	3	[0, 0, 0]	n/a	FR1	0	R1542J
411.283	0.799	747699	WORD_OFF	n/a	n/a	DOG	1	3	[0, 0, 0]	n/a	FR1	0	R1542J
412.082	1.617	748496	WORD	n/a	wordpools/wordpool_long_EN.txt	FORT	2	3	[0, 0, 0]	n/a	FR1	0	R1542J
413.699	0.866	750106	WORD_OFF	n/a	n/a	FORT	2	3	[0, 0, 0]	n/a	FR1	0	R1542J
414.565	1.601	750984	WORD	n/a	wordpools/wordpool_long_EN.txt	ARK	3	3	[0, 0, 0]	n/a	FR1	0	R1542J
416.166	0.883	752578	WORD_OFF	n/a	n/a	ARK	3	3	[0, 0, 0]	n/a	FR1	0	R1542J
417.049	1.6	753456	WORD	n/a	wordpools/wordpool_long_EN.txt	MOON	4	3	[0, 0, 0]	n/a	FR1	0	R1542J
418.649	0.817	755066	WORD_OFF	n/a	n/a	MOON	4	3	[0, 0, 0]	n/a	FR1	0	R1542J
419.466	1.6	755879	WORD	n/a	wordpools/wordpool_long_EN.txt	PALM	5	3	[0, 0, 0]	n/a	FR1	0	R1542J
421.066	0.8	757473	WORD_OFF	n/a	n/a	PALM	5	3	[0, 0, 0]	n/a	FR1	0	R1542J
421.866	1.6	758270	WORD	n/a	wordpools/wordpool_long_EN.txt	LAMP	6	3	[0, 0, 0]	n/a	FR1	0	R1542J
423.466	0.816	759880	WORD_OFF	n/a	n/a	LAMP	6	3	[0, 0, 0]	n/a	FR1	0	R1542J
424.282	1.601	760693	WORD	n/a	wordpools/wordpool_long_EN.txt	GLOVE	7	3	[0, 0, 0]	n/a	FR1	0	R1542J
425.883	0.933	762303	WORD_OFF	n/a	n/a	GLOVE	7	3	[0, 0, 0]	n/a	FR1	0	R1542J
426.816	1.6	763230	WORD	n/a	wordpools/wordpool_long_EN.txt	HAT	8	3	[0, 0, 0]	n/a	FR1	0	R1542J
428.416	0.816	764823	WORD_OFF	n/a	n/a	HAT	8	3	[0, 0, 0]	n/a	FR1	0	R1542J
429.232	1.6	765636	WORD	n/a	wordpools/wordpool_long_EN.txt	HOSE	9	3	[0, 0, 0]	n/a	FR1	0	R1542J
430.832	0.9	767246	WORD_OFF	n/a	n/a	HOSE	9	3	[0, 0, 0]	n/a	FR1	0	R1542J
431.732	1.6	768141	WORD	n/a	wordpools/wordpool_long_EN.txt	CLOTH	10	3	[0, 0, 0]	n/a	FR1	0	R1542J
433.332	0.967	769751	WORD_OFF	n/a	n/a	CLOTH	10	3	[0, 0, 0]	n/a	FR1	0	R1542J
434.299	1.617	770710	WORD	n/a	wordpools/wordpool_long_EN.txt	CORD	11	3	[0, 0, 0]	n/a	FR1	0	R1542J
435.916	0.866	772320	WORD_OFF	n/a	n/a	CORD	11	3	[0, 0, 0]	n/a	FR1	0	R1542J
436.782	1.618	773198	WORD	n/a	wordpools/wordpool_long_EN.txt	SNAKE	12	3	[0, 0, 0]	n/a	FR1	0	R1542J
438.4	0.0	774805	START	n/a	n/a	n/a	-999	3	[-999, -999, -999]	n/a	FR1	0	R1542J
438.4	0.0	774805	PROB	0.0	n/a	n/a	-999	3	[1, 4, 7]	12	FR1	0	R1542J
438.399	0.001	774808	WORD_OFF	n/a	n/a	SNAKE	12	3	[0, 0, 0]	n/a	FR1	0	R1542J
438.4	0.0	774808	ENCODING_END	n/a	n/a	n/a	-999	3	[0, 0, 0]	n/a	FR1	0	R1542J
438.4	3.65	774808	DISTRACT_START	n/a	n/a	n/a	-999	3	[0, 0, 0]	n/a	FR1	0	R1542J
442.05	4.549	778454	PROB	4.549	n/a	n/a	-999	3	[6, 1, 6]	13	FR1	0	R1542J
446.599	3.034	783003	PROB	3.034	n/a	n/a	-999	3	[5, 1, 8]	14	FR1	0	R1542J
449.633	4.583	786037	PROB	4.583	n/a	n/a	-999	3	[8, 5, 4]	17	FR1	0	R1542J
454.216	3.684	790620	PROB	3.684	n/a	n/a	-999	3	[8, 6, 4]	18	FR1	0	R1542J
457.9	2.632	794304	PROB	2.632	n/a	n/a	-999	3	[1, 2, 5]	8	FR1	0	R1542J
460.532	0.0	796936	STOP	n/a	n/a	n/a	-999	3	[-999, -999, -999]	n/a	FR1	0	R1542J
460.532	1.683	796941	DISTRACT_END	n/a	n/a	n/a	-999	3	[0, 0, 0]	n/a	FR1	0	R1542J
462.215	1.595	798633	REC_START	n/a	n/a	n/a	-999	3	[0, 0, 0]	n/a	FR1	0	R1542J
463.81	1.805	800214	REC_WORD	1.805	n/a	FORT	2	3	[0, 0, 0]	n/a	FR1	0	R1542J
465.615	1.71	802018	REC_WORD	1.71	n/a	DOG	1	3	[0, 0, 0]	n/a	FR1	0	R1542J
467.325	3.47	803728	REC_WORD	3.47	n/a	HOSE	9	3	[0, 0, 0]	n/a	FR1	0	R1542J
470.795	21.594	807198	REC_WORD	21.594	n/a	PALM	5	3	[0, 0, 0]	n/a	FR1	0	R1542J
492.389	1.578	828799	REC_END	n/a	n/a	n/a	-999	3	[0, 0, 0]	n/a	FR1	0	R1542J
493.967	10.349	830377	COUNTDOWN_START	n/a	n/a	n/a	-999	3	[0, 0, 0]	n/a	FR1	0	R1542J
504.316	0.0	840719	COUNTDOWN_END	n/a	n/a	n/a	-999	3	[0, 0, 0]	n/a	FR1	0	R1542J
504.316	2.251	840719	ENCODING_START	n/a	n/a	n/a	-999	4	[0, 0, 0]	n/a	FR1	0	R1542J
506.567	1.616	842980	WORD	n/a	wordpools/wordpool_long_EN.txt	CUBE	1	4	[0, 0, 0]	n/a	FR1	0	R1542J
508.183	0.834	844590	WORD_OFF	n/a	n/a	CUBE	1	4	[0, 0, 0]	n/a	FR1	0	R1542J
509.017	1.615	845419	WORD	n/a	wordpools/wordpool_long_EN.txt	BAT	2	4	[0, 0, 0]	n/a	FR1	0	R1542J
510.632	0.801	847045	WORD_OFF	n/a	n/a	BAT	2	4	[0, 0, 0]	n/a	FR1	0	R1542J
511.433	1.599	847842	WORD	n/a	wordpools/wordpool_long_EN.txt	CLIFF	3	4	[0, 0, 0]	n/a	FR1	0	R1542J
513.032	0.784	849436	WORD_OFF	n/a	n/a	CLIFF	3	4	[0, 0, 0]	n/a	FR1	0	R1542J
513.816	1.617	850216	WORD	n/a	wordpools/wordpool_long_EN.txt	BRUSH	4	4	[0, 0, 0]	n/a	FR1	0	R1542J
515.433	0.866	851843	WORD_OFF	n/a	n/a	BRUSH	4	4	[0, 0, 0]	n/a	FR1	0	R1542J
516.299	1.6	852705	WORD	n/a	wordpools/wordpool_long_EN.txt	FROG	5	4	[0, 0, 0]	n/a	FR1	0	R1542J
517.899	0.867	854315	WORD_OFF	n/a	n/a	FROG	5	4	[0, 0, 0]	n/a	FR1	0	R1542J
518.766	1.617	855176	WORD	n/a	wordpools/wordpool_long_EN.txt	WOLF	6	4	[0, 0, 0]	n/a	FR1	0	R1542J
520.383	0.85	856786	WORD_OFF	n/a	n/a	WOLF	6	4	[0, 0, 0]	n/a	FR1	0	R1542J
521.233	1.616	857648	WORD	n/a	wordpools/wordpool_long_EN.txt	BEAN	7	4	[0, 0, 0]	n/a	FR1	0	R1542J
522.849	0.984	859258	WORD_OFF	n/a	n/a	BEAN	7	4	[0, 0, 0]	n/a	FR1	0	R1542J
523.833	1.616	860234	WORD	n/a	wordpools/wordpool_long_EN.txt	WAND	8	4	[0, 0, 0]	n/a	FR1	0	R1542J
525.449	0.9	861860	WORD_OFF	n/a	n/a	WAND	8	4	[0, 0, 0]	n/a	FR1	0	R1542J
526.349	1.601	862755	WORD	n/a	wordpools/wordpool_long_EN.txt	RAT	9	4	[0, 0, 0]	n/a	FR1	0	R1542J
527.95	0.783	864349	WORD_OFF	n/a	n/a	RAT	9	4	[0, 0, 0]	n/a	FR1	0	R1542J
528.733	1.599	865145	WORD	n/a	wordpools/wordpool_long_EN.txt	ROPE	10	4	[0, 0, 0]	n/a	FR1	0	R1542J
530.332	1.001	866739	WORD_OFF	n/a	n/a	ROPE	10	4	[0, 0, 0]	n/a	FR1	0	R1542J
531.333	1.616	867747	WORD	n/a	wordpools/wordpool_long_EN.txt	STAR	11	4	[0, 0, 0]	n/a	FR1	0	R1542J
532.949	0.984	869357	WORD_OFF	n/a	n/a	STAR	11	4	[0, 0, 0]	n/a	FR1	0	R1542J
533.933	1.6	870333	WORD	n/a	wordpools/wordpool_long_EN.txt	MAT	12	4	[0, 0, 0]	n/a	FR1	0	R1542J
535.533	0.0	871934	START	n/a	n/a	n/a	-999	4	[-999, -999, -999]	n/a	FR1	0	R1542J
535.533	0.0	871934	PROB	0.0	n/a	n/a	-999	4	[6, 7, 8]	21	FR1	0	R1542J
535.532	0.001	871943	WORD_OFF	n/a	n/a	MAT	12	4	[0, 0, 0]	n/a	FR1	0	R1542J
535.533	0.0	871943	ENCODING_END	n/a	n/a	n/a	-999	4	[0, 0, 0]	n/a	FR1	0	R1542J
535.533	3.033	871943	DISTRACT_START	n/a	n/a	n/a	-999	4	[0, 0, 0]	n/a	FR1	0	R1542J
538.566	2.8	874966	PROB	2.8	n/a	n/a	-999	4	[4, 7, 8]	19	FR1	0	R1542J
541.366	2.534	877766	PROB	2.534	n/a	n/a	-999	4	[4, 2, 5]	11	FR1	0	R1542J
543.9	3.133	880300	PROB	3.133	n/a	n/a	-999	4	[2, 6, 6]	14	FR1	0	R1542J
547.033	2.715	883433	PROB	2.715	n/a	n/a	-999	4	[4, 5, 4]	13	FR1	0	R1542J
549.748	2.585	886148	PROB	2.585	n/a	n/a	-999	4	[8, 6, 7]	21	FR1	0	R1542J
552.333	2.8	888733	PROB	2.8	n/a	n/a	-999	4	[3, 5, 6]	14	FR1	0	R1542J
555.133	3.215	891533	PROB	3.215	n/a	n/a	-999	4	[8, 7, 1]	16	FR1	0	R1542J
558.348	0.0	894748	STOP	n/a	n/a	n/a	-999	4	[-999, -999, -999]	n/a	FR1	0	R1542J
558.348	1.818	894759	DISTRACT_END	n/a	n/a	n/a	-999	4	[0, 0, 0]	n/a	FR1	0	R1542J
560.166	1.19	896564	REC_START	n/a	n/a	n/a	-999	4	[0, 0, 0]	n/a	FR1	0	R1542J
561.356	2.035	897756	REC_WORD	2.035	n/a	FROG	5	4	[0, 0, 0]	n/a	FR1	0	R1542J
563.391	2.09	899790	REC_WORD	2.09	n/a	BAT	2	4	[0, 0, 0]	n/a	FR1	0	R1542J
565.481	2.04	901880	REC_WORD	2.04	n/a	CLIFF	3	4	[0, 0, 0]	n/a	FR1	0	R1542J
567.521	22.816	903920	REC_WORD	22.816	n/a	MOON	-999	4	[0, 0, 0]	n/a	FR1	0	R1542J
590.337	1.78	926747	REC_END	n/a	n/a	n/a	-999	4	[0, 0, 0]	n/a	FR1	0	R1542J
592.117	10.35	928519	COUNTDOWN_START	n/a	n/a	n/a	-999	4	[0, 0, 0]	n/a	FR1	0	R1542J
602.467	0.0	938878	COUNTDOWN_END	n/a	n/a	n/a	-999	4	[0, 0, 0]	n/a	FR1	0	R1542J
602.467	2.049	938878	ENCODING_START	n/a	n/a	n/a	-999	5	[0, 0, 0]	n/a	FR1	0	R1542J
604.516	1.616	940928	WORD	n/a	wordpools/wordpool_long_EN.txt	CAT	1	5	[0, 0, 0]	n/a	FR1	0	R1542J
606.132	0.818	942537	WORD_OFF	n/a	n/a	CAT	1	5	[0, 0, 0]	n/a	FR1	0	R1542J
606.95	1.616	943351	WORD	n/a	wordpools/wordpool_long_EN.txt	HOOD	2	5	[0, 0, 0]	n/a	FR1	0	R1542J
608.566	0.967	944977	WORD_OFF	n/a	n/a	HOOD	2	5	[0, 0, 0]	n/a	FR1	0	R1542J
609.533	1.6	945936	WORD	n/a	wordpools/wordpool_long_EN.txt	THRONE	3	5	[0, 0, 0]	n/a	FR1	0	R1542J
611.133	0.783	947530	WORD_OFF	n/a	n/a	THRONE	3	5	[0, 0, 0]	n/a	FR1	0	R1542J
611.916	1.617	948327	WORD	n/a	wordpools/wordpool_long_EN.txt	BOOK	4	5	[0, 0, 0]	n/a	FR1	0	R1542J
613.533	0.9	949937	WORD_OFF	n/a	n/a	BOOK	4	5	[0, 0, 0]	n/a	FR1	0	R1542J
614.433	1.616	950831	WORD	n/a	wordpools/wordpool_long_EN.txt	MOOSE	5	5	[0, 0, 0]	n/a	FR1	0	R1542J
616.049	1.0	952457	WORD_OFF	n/a	n/a	MOOSE	5	5	[0, 0, 0]	n/a	FR1	0	R1542J
617.049	1.616	953449	WORD	n/a	wordpools/wordpool_long_EN.txt	CROSS	6	5	[0, 0, 0]	n/a	FR1	0	R1542J
618.665	0.968	955076	WORD_OFF	n/a	n/a	CROSS	6	5	[0, 0, 0]	n/a	FR1	0	R1542J
619.633	1.617	956035	WORD	n/a	wordpools/wordpool_long_EN.txt	SIGN	7	5	[0, 0, 0]	n/a	FR1	0	R1542J
621.25	0.982	957661	WORD_OFF	n/a	n/a	SIGN	7	5	[0, 0, 0]	n/a	FR1	0	R1542J
622.232	1.601	958637	WORD	n/a	wordpools/wordpool_long_EN.txt	BOY	8	5	[0, 0, 0]	n/a	FR1	0	R1542J
623.833	0.899	960231	WORD_OFF	n/a	n/a	BOY	8	5	[0, 0, 0]	n/a	FR1	0	R1542J
624.732	1.617	961141	WORD	n/a	wordpools/wordpool_long_EN.txt	FRIEND	9	5	[0, 0, 0]	n/a	FR1	0	R1542J
626.349	0.767	962751	WORD_OFF	n/a	n/a	FRIEND	9	5	[0, 0, 0]	n/a	FR1	0	R1542J
627.116	1.617	963516	WORD	n/a	wordpools/wordpool_long_EN.txt	FUR	10	5	[0, 0, 0]	n/a	FR1	0	R1542J
628.733	0.9	965142	WORD_OFF	n/a	n/a	FUR	10	5	[0, 0, 0]	n/a	FR1	0	R1542J
629.633	1.615	966036	WORD	n/a	wordpools/wordpool_long_EN.txt	STRAW	11	5	[0, 0, 0]	n/a	FR1	0	R1542J
631.248	0.767	967646	WORD_OFF	n/a	n/a	STRAW	11	5	[0, 0, 0]	n/a	FR1	0	R1542J
632.015	1.6	968411	WORD	n/a	wordpools/wordpool_long_EN.txt	SNAIL	12	5	[0, 0, 0]	n/a	FR1	0	R1542J
633.615	0.001	970012	PROB	0.001	n/a	n/a	-999	5	[4, 6, 2]	12	FR1	0	R1542J
633.616	0.0	970013	START	n/a	n/a	n/a	-999	5	[-999, -999, -999]	n/a	FR1	0	R1542J
633.615	0.001	970021	WORD_OFF	n/a	n/a	SNAIL	12	5	[0, 0, 0]	n/a	FR1	0	R1542J
633.616	0.0	970021	ENCODING_END	n/a	n/a	n/a	-999	5	[0, 0, 0]	n/a	FR1	0	R1542J
633.616	3.317	970021	DISTRACT_START	n/a	n/a	n/a	-999	5	[0, 0, 0]	n/a	FR1	0	R1542J
636.933	2.683	973329	PROB	2.683	n/a	n/a	-999	5	[2, 1, 7]	10	FR1	0	R1542J
639.616	3.401	976012	PROB	3.401	n/a	n/a	-999	5	[8, 8, 8]	24	FR1	0	R1542J
643.017	2.999	979413	PROB	2.999	n/a	n/a	-999	5	[8, 1, 5]	14	FR1	0	R1542J
646.016	2.316	982412	PROB	2.316	n/a	n/a	-999	5	[6, 1, 5]	12	FR1	0	R1542J
648.332	2.667	984728	PROB	2.667	n/a	n/a	-999	5	[7, 3, 7]	17	FR1	0	R1542J
650.999	3.966	987395	PROB	3.966	n/a	n/a	-999	5	[4, 7, 6]	17	FR1	0	R1542J
654.965	0.0	991361	STOP	n/a	n/a	n/a	-999	5	[-999, -999, -999]	n/a	FR1	0	R1542J
654.965	1.75	991373	DISTRACT_END	n/a	n/a	n/a	-999	5	[0, 0, 0]	n/a	FR1	0	R1542J
656.715	1.0	993113	REC_START	n/a	n/a	n/a	-999	5	[0, 0, 0]	n/a	FR1	0	R1542J
657.715	1.479	994111	REC_WORD	1.479	n/a	HOOD	2	5	[0, 0, 0]	n/a	FR1	0	R1542J
659.194	1.455	995590	REC_WORD	1.455	n/a	FRIEND	9	5	[0, 0, 0]	n/a	FR1	0	R1542J
660.649	2.855	997044	REC_WORD	2.855	n/a	SNAIL	12	5	[0, 0, 0]	n/a	FR1	0	R1542J
663.504	2.955	999899	REC_WORD	2.955	n/a	FUR	10	5	[0, 0, 0]	n/a	FR1	0	R1542J
666.459	9.545	1002854	REC_WORD	9.545	n/a	CAT	1	5	[0, 0, 0]	n/a	FR1	0	R1542J
676.004	8.375	1012399	REC_WORD	8.375	n/a	BOOK	4	5	[0, 0, 0]	n/a	FR1	0	R1542J
684.379	2.512	1020773	REC_WORD	2.512	n/a	THRONE	3	5	[0, 0, 0]	n/a	FR1	0	R1542J
686.891	1.526	1023296	REC_END	n/a	n/a	n/a	-999	5	[0, 0, 0]	n/a	FR1	0	R1542J
688.417	10.35	1024825	COUNTDOWN_START	n/a	n/a	n/a	-999	5	[0, 0, 0]	n/a	FR1	0	R1542J
698.767	0.0	1035167	COUNTDOWN_END	n/a	n/a	n/a	-999	5	[0, 0, 0]	n/a	FR1	0	R1542J
698.767	1.932	1035167	ENCODING_START	n/a	n/a	n/a	-999	6	[0, 0, 0]	n/a	FR1	0	R1542J
700.699	1.601	1037103	WORD	n/a	wordpools/wordpool_long_EN.txt	FACE	1	6	[0, 0, 0]	n/a	FR1	0	R1542J
702.3	0.833	1038696	WORD_OFF	n/a	n/a	FACE	1	6	[0, 0, 0]	n/a	FR1	0	R1542J
703.133	1.616	1039526	WORD	n/a	wordpools/wordpool_long_EN.txt	CHALK	2	6	[0, 0, 0]	n/a	FR1	0	R1542J
704.749	1.0	1041152	WORD_OFF	n/a	n/a	CHALK	2	6	[0, 0, 0]	n/a	FR1	0	R1542J
705.749	1.6	1042144	WORD	n/a	wordpools/wordpool_long_EN.txt	BLOOM	3	6	[0, 0, 0]	n/a	FR1	0	R1542J
707.349	0.967	1043754	WORD_OFF	n/a	n/a	BLOOM	3	6	[0, 0, 0]	n/a	FR1	0	R1542J
708.316	1.6	1044713	WORD	n/a	wordpools/wordpool_long_EN.txt	PIPE	4	6	[0, 0, 0]	n/a	FR1	0	R1542J
709.916	0.9	1046323	WORD_OFF	n/a	n/a	PIPE	4	6	[0, 0, 0]	n/a	FR1	0	R1542J
710.816	1.6	1047218	WORD	n/a	wordpools/wordpool_long_EN.txt	SCHOOL	5	6	[0, 0, 0]	n/a	FR1	0	R1542J
712.416	0.934	1048811	WORD_OFF	n/a	n/a	SCHOOL	5	6	[0, 0, 0]	n/a	FR1	0	R1542J
713.35	1.616	1049755	WORD	n/a	wordpools/wordpool_long_EN.txt	POOL	6	6	[0, 0, 0]	n/a	FR1	0	R1542J
714.966	0.983	1051365	WORD_OFF	n/a	n/a	POOL	6	6	[0, 0, 0]	n/a	FR1	0	R1542J
715.949	1.6	1052340	WORD	n/a	wordpools/wordpool_long_EN.txt	SUIT	7	6	[0, 0, 0]	n/a	FR1	0	R1542J
717.549	0.95	1053950	WORD_OFF	n/a	n/a	SUIT	7	6	[0, 0, 0]	n/a	FR1	0	R1542J
718.499	1.6	1054894	WORD	n/a	wordpools/wordpool_long_EN.txt	STONE	8	6	[0, 0, 0]	n/a	FR1	0	R1542J
720.099	0.766	1056504	WORD_OFF	n/a	n/a	STONE	8	6	[0, 0, 0]	n/a	FR1	0	R1542J
720.865	1.618	1057268	WORD	n/a	wordpools/wordpool_long_EN.txt	GOLD	9	6	[0, 0, 0]	n/a	FR1	0	R1542J
722.483	0.85	1058878	WORD_OFF	n/a	n/a	GOLD	9	6	[0, 0, 0]	n/a	FR1	0	R1542J
723.333	1.617	1059740	WORD	n/a	wordpools/wordpool_long_EN.txt	POLE	10	6	[0, 0, 0]	n/a	FR1	0	R1542J
724.95	0.8	1061350	WORD_OFF	n/a	n/a	POLE	10	6	[0, 0, 0]	n/a	FR1	0	R1542J
725.75	1.616	1062147	WORD	n/a	wordpools/wordpool_long_EN.txt	PIN	11	6	[0, 0, 0]	n/a	FR1	0	R1542J
727.366	0.95	1063756	WORD_OFF	n/a	n/a	PIN	11	6	[0, 0, 0]	n/a	FR1	0	R1542J
728.316	1.616	1064716	WORD	n/a	wordpools/wordpool_long_EN.txt	MUG	12	6	[0, 0, 0]	n/a	FR1	0	R1542J
729.932	0.001	1066326	WORD_OFF	n/a	n/a	MUG	12	6	[0, 0, 0]	n/a	FR1	0	R1542J
729.933	0.0	1066326	ENCODING_END	n/a	n/a	n/a	-999	6	[0, 0, 0]	n/a	FR1	0	R1542J
729.933	0.0	1066326	START	n/a	n/a	n/a	-999	6	[-999, -999, -999]	n/a	FR1	0	R1542J
729.933	0.0	1066326	PROB	0.0	n/a	n/a	-999	6	[1, 3, 5]	9	FR1	0	R1542J
729.933	2.633	1066342	DISTRACT_START	n/a	n/a	n/a	-999	6	[0, 0, 0]	n/a	FR1	0	R1542J
732.566	3.351	1068958	PROB	3.351	n/a	n/a	-999	6	[2, 7, 1]	10	FR1	0	R1542J
735.917	2.365	1072309	PROB	2.365	n/a	n/a	-999	6	[3, 4, 4]	11	FR1	0	R1542J
738.282	2.3	1074674	PROB	2.3	n/a	n/a	-999	6	[5, 5, 6]	16	FR1	0	R1542J
740.582	2.084	1076974	PROB	2.084	n/a	n/a	-999	6	[6, 7, 8]	21	FR1	0	R1542J
742.666	2.933	1079058	PROB	2.933	n/a	n/a	-999	6	[3, 4, 8]	15	FR1	0	R1542J
745.599	2.667	1081991	PROB	2.667	n/a	n/a	-999	6	[8, 6, 2]	16	FR1	0	R1542J
748.266	10.166	1084658	PROB	10.166	n/a	n/a	-999	6	[7, 2, 1]	10	FR1	0	R1542J
758.432	0.0	1094823	STOP	n/a	n/a	n/a	-999	6	[-999, -999, -999]	n/a	FR1	0	R1542J
758.432	1.917	1094834	DISTRACT_END	n/a	n/a	n/a	-999	6	[0, 0, 0]	n/a	FR1	0	R1542J
760.349	1.3	1096753	REC_START	n/a	n/a	n/a	-999	6	[0, 0, 0]	n/a	FR1	0	R1542J
761.649	1.0	1098040	REC_WORD_VV	1.0	n/a	<>	-999	6	[0, 0, 0]	n/a	FR1	0	R1542J
762.649	1.0	1099040	REC_WORD_VV	1.0	n/a	<>	-999	6	[0, 0, 0]	n/a	FR1	0	R1542J
763.649	1.0	1100040	REC_WORD_VV	1.0	n/a	<>	-999	6	[0, 0, 0]	n/a	FR1	0	R1542J
764.649	1.0	1101040	REC_WORD_VV	1.0	n/a	<>	-999	6	[0, 0, 0]	n/a	FR1	0	R1542J
765.649	1.0	1102040	REC_WORD_VV	1.0	n/a	<>	-999	6	[0, 0, 0]	n/a	FR1	0	R1542J
766.649	1.0	1103040	REC_WORD_VV	1.0	n/a	<>	-999	6	[0, 0, 0]	n/a	FR1	0	R1542J
767.649	4.08	1104040	REC_WORD_VV	4.08	n/a	<>	-999	6	[0, 0, 0]	n/a	FR1	0	R1542J
771.729	0.45	1108120	REC_WORD	0.45	n/a	PIN	11	6	[0, 0, 0]	n/a	FR1	0	R1542J
772.179	0.4	1108570	REC_WORD	0.4	n/a	POLE	10	6	[0, 0, 0]	n/a	FR1	0	R1542J
772.579	6.545	1108970	REC_WORD	6.545	n/a	PIPE	4	6	[0, 0, 0]	n/a	FR1	0	R1542J
779.124	11.414	1115515	REC_WORD	11.414	n/a	SCHOOL	5	6	[0, 0, 0]	n/a	FR1	0	R1542J
790.538	17.278	1126935	REC_END	n/a	n/a	n/a	-999	6	[0, 0, 0]	n/a	FR1	0	R1542J
807.816	10.35	1144206	COUNTDOWN_START	n/a	n/a	n/a	-999	6	[0, 0, 0]	n/a	FR1	0	R1542J
818.166	0.0	1154565	COUNTDOWN_END	n/a	n/a	n/a	-999	6	[0, 0, 0]	n/a	FR1	0	R1542J
818.166	2.25	1154565	ENCODING_START	n/a	n/a	n/a	-999	7	[0, 0, 0]	n/a	FR1	0	R1542J
820.416	1.616	1156809	WORD	n/a	wordpools/wordpool_long_EN.txt	BIRD	1	7	[0, 0, 0]	n/a	FR1	0	R1542J
822.032	0.95	1158435	WORD_OFF	n/a	n/a	BIRD	1	7	[0, 0, 0]	n/a	FR1	0	R1542J
822.982	1.601	1159379	WORD	n/a	wordpools/wordpool_long_EN.txt	HEART	2	7	[0, 0, 0]	n/a	FR1	0	R1542J
824.583	0.916	1160972	WORD_OFF	n/a	n/a	HEART	2	7	[0, 0, 0]	n/a	FR1	0	R1542J
825.499	1.617	1161899	WORD	n/a	wordpools/wordpool_long_EN.txt	WAVE	3	7	[0, 0, 0]	n/a	FR1	0	R1542J
827.116	0.782	1163509	WORD_OFF	n/a	n/a	WAVE	3	7	[0, 0, 0]	n/a	FR1	0	R1542J
827.898	1.617	1164290	WORD	n/a	wordpools/wordpool_long_EN.txt	TRIBE	4	7	[0, 0, 0]	n/a	FR1	0	R1542J
829.515	1.001	1165916	WORD_OFF	n/a	n/a	TRIBE	4	7	[0, 0, 0]	n/a	FR1	0	R1542J
830.516	1.6	1166908	WORD	n/a	wordpools/wordpool_long_EN.txt	APE	5	7	[0, 0, 0]	n/a	FR1	0	R1542J
832.116	0.899	1168518	WORD_OFF	n/a	n/a	APE	5	7	[0, 0, 0]	n/a	FR1	0	R1542J
833.015	1.601	1169412	WORD	n/a	wordpools/wordpool_long_EN.txt	WORLD	6	7	[0, 0, 0]	n/a	FR1	0	R1542J
834.616	0.767	1171006	WORD_OFF	n/a	n/a	WORLD	6	7	[0, 0, 0]	n/a	FR1	0	R1542J
835.383	1.616	1171771	WORD	n/a	wordpools/wordpool_long_EN.txt	BROOM	7	7	[0, 0, 0]	n/a	FR1	0	R1542J
836.999	0.949	1173397	WORD_OFF	n/a	n/a	BROOM	7	7	[0, 0, 0]	n/a	FR1	0	R1542J
837.948	1.601	1174340	WORD	n/a	wordpools/wordpool_long_EN.txt	GUARD	8	7	[0, 0, 0]	n/a	FR1	0	R1542J
839.549	0.917	1175950	WORD_OFF	n/a	n/a	GUARD	8	7	[0, 0, 0]	n/a	FR1	0	R1542J
840.466	1.616	1176861	WORD	n/a	wordpools/wordpool_long_EN.txt	SOAP	9	7	[0, 0, 0]	n/a	FR1	0	R1542J
842.082	1.0	1178471	WORD_OFF	n/a	n/a	SOAP	9	7	[0, 0, 0]	n/a	FR1	0	R1542J
843.082	1.6	1179479	WORD	n/a	wordpools/wordpool_long_EN.txt	SHELL	10	7	[0, 0, 0]	n/a	FR1	0	R1542J
844.682	0.767	1181073	WORD_OFF	n/a	n/a	SHELL	10	7	[0, 0, 0]	n/a	FR1	0	R1542J
845.449	1.6	1181837	WORD	n/a	wordpools/wordpool_long_EN.txt	STORE	11	7	[0, 0, 0]	n/a	FR1	0	R1542J
847.049	0.767	1183447	WORD_OFF	n/a	n/a	STORE	11	7	[0, 0, 0]	n/a	FR1	0	R1542J
847.816	1.616	1184211	WORD	n/a	wordpools/wordpool_long_EN.txt	SLUG	12	7	[0, 0, 0]	n/a	FR1	0	R1542J
849.432	0.001	1185821	WORD_OFF	n/a	n/a	SLUG	12	7	[0, 0, 0]	n/a	FR1	0	R1542J
849.433	0.0	1185821	ENCODING_END	n/a	n/a	n/a	-999	7	[0, 0, 0]	n/a	FR1	0	R1542J
849.433	0.0	1185821	START	n/a	n/a	n/a	-999	7	[-999, -999, -999]	n/a	FR1	0	R1542J
849.433	0.0	1185821	PROB	0.0	n/a	n/a	-999	7	[2, 1, 7]	10	FR1	0	R1542J
849.433	3.983	1185837	DISTRACT_START	n/a	n/a	n/a	-999	7	[0, 0, 0]	n/a	FR1	0	R1542J
853.416	2.334	1189804	PROB	2.334	n/a	n/a	-999	7	[1, 1, 4]	6	FR1	0	R1542J
855.75	2.233	1192137	PROB	2.233	n/a	n/a	-999	7	[6, 2, 1]	9	FR1	0	R1542J
857.983	3.9	1194370	PROB	3.9	n/a	n/a	-999	7	[4, 4, 6]	14	FR1	0	R1542J
861.883	2.634	1198270	PROB	2.634	n/a	n/a	-999	7	[8, 6, 7]	21	FR1	0	R1542J
864.517	2.816	1200904	PROB	2.816	n/a	n/a	-999	7	[2, 2, 7]	11	FR1	0	R1542J
867.333	2.282	1203720	PROB	2.282	n/a	n/a	-999	7	[2, 5, 5]	12	FR1	0	R1542J
869.615	0.0	1206002	STOP	n/a	n/a	n/a	-999	7	[-999, -999, -999]	n/a	FR1	0	R1542J
869.615	1.817	1206003	DISTRACT_END	n/a	n/a	n/a	-999	7	[0, 0, 0]	n/a	FR1	0	R1542J
871.432	1.535	1207824	REC_START	n/a	n/a	n/a	-999	7	[0, 0, 0]	n/a	FR1	0	R1542J
872.967	6.38	1209354	REC_WORD	6.38	n/a	SOAP	9	7	[0, 0, 0]	n/a	FR1	0	R1542J
879.347	22.27	1215733	REC_WORD	22.27	n/a	SLUG	12	7	[0, 0, 0]	n/a	FR1	0	R1542J
901.617	18.667	1238007	REC_END	n/a	n/a	n/a	-999	7	[0, 0, 0]	n/a	FR1	0	R1542J
920.284	10.349	1256676	COUNTDOWN_START	n/a	n/a	n/a	-999	7	[0, 0, 0]	n/a	FR1	0	R1542J
930.633	0.0	1267019	COUNTDOWN_END	n/a	n/a	n/a	-999	7	[0, 0, 0]	n/a	FR1	0	R1542J
930.633	2.15	1267019	ENCODING_START	n/a	n/a	n/a	-999	8	[0, 0, 0]	n/a	FR1	0	R1542J
932.783	1.601	1269165	WORD	n/a	wordpools/wordpool_long_EN.txt	SAIL	1	8	[0, 0, 0]	n/a	FR1	0	R1542J
934.384	0.931	1270775	WORD_OFF	n/a	n/a	SAIL	1	8	[0, 0, 0]	n/a	FR1	0	R1542J
935.315	1.602	1271702	WORD	n/a	wordpools/wordpool_long_EN.txt	SKI	2	8	[0, 0, 0]	n/a	FR1	0	R1542J
936.917	0.967	1273312	WORD_OFF	n/a	n/a	SKI	2	8	[0, 0, 0]	n/a	FR1	0	R1542J
937.884	1.616	1274272	WORD	n/a	wordpools/wordpool_long_EN.txt	ARCH	3	8	[0, 0, 0]	n/a	FR1	0	R1542J
939.5	0.884	1275898	WORD_OFF	n/a	n/a	ARCH	3	8	[0, 0, 0]	n/a	FR1	0	R1542J
940.384	1.6	1276776	WORD	n/a	wordpools/wordpool_long_EN.txt	STEAK	4	8	[0, 0, 0]	n/a	FR1	0	R1542J
941.984	0.983	1278370	WORD_OFF	n/a	n/a	STEAK	4	8	[0, 0, 0]	n/a	FR1	0	R1542J
942.967	1.6	1279362	WORD	n/a	wordpools/wordpool_long_EN.txt	JET	5	8	[0, 0, 0]	n/a	FR1	0	R1542J
944.567	0.916	1280955	WORD_OFF	n/a	n/a	JET	5	8	[0, 0, 0]	n/a	FR1	0	R1542J
945.483	1.601	1281866	WORD	n/a	wordpools/wordpool_long_EN.txt	BEAST	6	8	[0, 0, 0]	n/a	FR1	0	R1542J
947.084	0.967	1283476	WORD_OFF	n/a	n/a	BEAST	6	8	[0, 0, 0]	n/a	FR1	0	R1542J
948.051	1.616	1284436	WORD	n/a	wordpools/wordpool_long_EN.txt	DRINK	7	8	[0, 0, 0]	n/a	FR1	0	R1542J
949.667	1.0	1286062	WORD_OFF	n/a	n/a	DRINK	7	8	[0, 0, 0]	n/a	FR1	0	R1542J
950.667	1.617	1287054	WORD	n/a	wordpools/wordpool_long_EN.txt	SEAL	8	8	[0, 0, 0]	n/a	FR1	0	R1542J
952.284	0.815	1288680	WORD_OFF	n/a	n/a	SEAL	8	8	[0, 0, 0]	n/a	FR1	0	R1542J
953.099	1.601	1289493	WORD	n/a	wordpools/wordpool_long_EN.txt	CLOWN	9	8	[0, 0, 0]	n/a	FR1	0	R1542J
954.7	0.851	1291087	WORD_OFF	n/a	n/a	CLOWN	9	8	[0, 0, 0]	n/a	FR1	0	R1542J
955.551	1.6	1291932	WORD	n/a	wordpools/wordpool_long_EN.txt	THREAD	10	8	[0, 0, 0]	n/a	FR1	0	R1542J
957.151	0.849	1293542	WORD_OFF	n/a	n/a	THREAD	10	8	[0, 0, 0]	n/a	FR1	0	R1542J
958.0	1.601	1294388	WORD	n/a	wordpools/wordpool_long_EN.txt	LOCK	11	8	[0, 0, 0]	n/a	FR1	0	R1542J
959.601	0.783	1295982	WORD_OFF	n/a	n/a	LOCK	11	8	[0, 0, 0]	n/a	FR1	0	R1542J
960.384	1.6	1296779	WORD	n/a	wordpools/wordpool_long_EN.txt	VINE	12	8	[0, 0, 0]	n/a	FR1	0	R1542J
961.984	0.001	1298367	PROB	0.001	n/a	n/a	-999	8	[3, 5, 7]	15	FR1	0	R1542J
961.985	0.0	1298368	START	n/a	n/a	n/a	-999	8	[-999, -999, -999]	n/a	FR1	0	R1542J
961.984	0.001	1298372	WORD_OFF	n/a	n/a	VINE	12	8	[0, 0, 0]	n/a	FR1	0	R1542J
961.985	0.0	1298372	ENCODING_END	n/a	n/a	n/a	-999	8	[0, 0, 0]	n/a	FR1	0	R1542J
961.985	4.349	1298372	DISTRACT_START	n/a	n/a	n/a	-999	8	[0, 0, 0]	n/a	FR1	0	R1542J
966.334	3.084	1302717	PROB	3.084	n/a	n/a	-999	8	[8, 7, 3]	18	FR1	0	R1542J
969.418	2.865	1305801	PROB	2.865	n/a	n/a	-999	8	[3, 3, 2]	8	FR1	0	R1542J
972.283	2.317	1308666	PROB	2.317	n/a	n/a	-999	8	[2, 3, 1]	6	FR1	0	R1542J
974.6	4.318	1310983	PROB	4.318	n/a	n/a	-999	8	[7, 7, 3]	17	FR1	0	R1542J
978.918	2.983	1315300	PROB	2.983	n/a	n/a	-999	8	[7, 1, 8]	16	FR1	0	R1542J
981.901	2.482	1318283	PROB	2.482	n/a	n/a	-999	8	[6, 1, 4]	11	FR1	0	R1542J
984.383	0.0	1320765	STOP	n/a	n/a	n/a	-999	8	[-999, -999, -999]	n/a	FR1	0	R1542J
984.383	1.549	1320766	DISTRACT_END	n/a	n/a	n/a	-999	8	[0, 0, 0]	n/a	FR1	0	R1542J
985.932	29.0	1322327	REC_START	n/a	n/a	n/a	-999	8	[0, 0, 0]	n/a	FR1	0	R1542J
1014.932	1.158	1351313	REC_WORD_VV	1.158	n/a	<>	-999	8	[0, 0, 0]	n/a	FR1	0	R1542J
1016.09	1.559	1352477	REC_END	n/a	n/a	n/a	-999	8	[0, 0, 0]	n/a	FR1	0	R1542J
1017.649	10.351	1354038	COUNTDOWN_START	n/a	n/a	n/a	-999	8	[0, 0, 0]	n/a	FR1	0	R1542J
1028.0	0.0	1364381	COUNTDOWN_END	n/a	n/a	n/a	-999	8	[0, 0, 0]	n/a	FR1	0	R1542J
1028.0	2.066	1364397	ENCODING_START	n/a	n/a	n/a	-999	9	[0, 0, 0]	n/a	FR1	0	R1542J
1030.066	1.6	1366446	WORD	n/a	wordpools/wordpool_long_EN.txt	CHILD	1	9	[0, 0, 0]	n/a	FR1	0	R1542J
1031.666	0.816	1368056	WORD_OFF	n/a	n/a	CHILD	1	9	[0, 0, 0]	n/a	FR1	0	R1542J
1032.482	1.601	1368869	WORD	n/a	wordpools/wordpool_long_EN.txt	DART	2	9	[0, 0, 0]	n/a	FR1	0	R1542J
1034.083	0.999	1370463	WORD_OFF	n/a	n/a	DART	2	9	[0, 0, 0]	n/a	FR1	0	R1542J
1035.082	1.6	1371471	WORD	n/a	wordpools/wordpool_long_EN.txt	VASE	3	9	[0, 0, 0]	n/a	FR1	0	R1542J
1036.682	0.934	1373065	WORD_OFF	n/a	n/a	VASE	3	9	[0, 0, 0]	n/a	FR1	0	R1542J
1037.616	1.601	1374008	WORD	n/a	wordpools/wordpool_long_EN.txt	SCOTCH	4	9	[0, 0, 0]	n/a	FR1	0	R1542J
1039.217	0.916	1375602	WORD_OFF	n/a	n/a	SCOTCH	4	9	[0, 0, 0]	n/a	FR1	0	R1542J
1040.133	1.616	1376513	WORD	n/a	wordpools/wordpool_long_EN.txt	GLASS	5	9	[0, 0, 0]	n/a	FR1	0	R1542J
1041.749	0.85	1378139	WORD_OFF	n/a	n/a	GLASS	5	9	[0, 0, 0]	n/a	FR1	0	R1542J
1042.599	1.6	1378984	WORD	n/a	wordpools/wordpool_long_EN.txt	SPRING	6	9	[0, 0, 0]	n/a	FR1	0	R1542J
1044.199	0.949	1380578	WORD_OFF	n/a	n/a	SPRING	6	9	[0, 0, 0]	n/a	FR1	0	R1542J
1045.148	1.618	1381538	WORD	n/a	wordpools/wordpool_long_EN.txt	BOOT	7	9	[0, 0, 0]	n/a	FR1	0	R1542J
1046.766	0.883	1383148	WORD_OFF	n/a	n/a	BOOT	7	9	[0, 0, 0]	n/a	FR1	0	R1542J
1047.649	1.616	1384042	WORD	n/a	wordpools/wordpool_long_EN.txt	PAIL	8	9	[0, 0, 0]	n/a	FR1	0	R1542J
1049.265	0.834	1385652	WORD_OFF	n/a	n/a	PAIL	8	9	[0, 0, 0]	n/a	FR1	0	R1542J
1050.099	1.616	1386481	WORD	n/a	wordpools/wordpool_long_EN.txt	SMOKE	9	9	[0, 0, 0]	n/a	FR1	0	R1542J
1051.715	0.917	1388108	WORD_OFF	n/a	n/a	SMOKE	9	9	[0, 0, 0]	n/a	FR1	0	R1542J
1052.632	1.617	1389018	WORD	n/a	wordpools/wordpool_long_EN.txt	CHEEK	10	9	[0, 0, 0]	n/a	FR1	0	R1542J
1054.249	0.783	1390628	WORD_OFF	n/a	n/a	CHEEK	10	9	[0, 0, 0]	n/a	FR1	0	R1542J
1055.032	1.601	1391409	WORD	n/a	wordpools/wordpool_long_EN.txt	BATH	11	9	[0, 0, 0]	n/a	FR1	0	R1542J
1056.633	0.85	1393019	WORD_OFF	n/a	n/a	BATH	11	9	[0, 0, 0]	n/a	FR1	0	R1542J
1057.483	1.616	1393864	WORD	n/a	wordpools/wordpool_long_EN.txt	SKY	12	9	[0, 0, 0]	n/a	FR1	0	R1542J
1059.099	0.0	1395478	START	n/a	n/a	n/a	-999	9	[-999, -999, -999]	n/a	FR1	0	R1542J
1059.099	0.0	1395478	PROB	0.0	n/a	n/a	-999	9	[2, 4, 2]	8	FR1	0	R1542J
1059.098	0.001	1395491	WORD_OFF	n/a	n/a	SKY	12	9	[0, 0, 0]	n/a	FR1	0	R1542J
1059.099	0.0	1395491	ENCODING_END	n/a	n/a	n/a	-999	9	[0, 0, 0]	n/a	FR1	0	R1542J
1059.099	2.367	1395491	DISTRACT_START	n/a	n/a	n/a	-999	9	[0, 0, 0]	n/a	FR1	0	R1542J
1061.466	2.033	1397845	PROB	2.033	n/a	n/a	-999	9	[4, 3, 1]	8	FR1	0	R1542J
1063.499	2.967	1399878	PROB	2.967	n/a	n/a	-999	9	[8, 5, 4]	17	FR1	0	R1542J
1066.466	3.067	1402845	PROB	3.067	n/a	n/a	-999	9	[6, 2, 7]	15	FR1	0	R1542J
1069.533	3.116	1405912	PROB	3.116	n/a	n/a	-999	9	[6, 5, 3]	14	FR1	0	R1542J
1072.649	3.367	1409028	PROB	3.367	n/a	n/a	-999	9	[2, 3, 5]	10	FR1	0	R1542J
1076.016	3.332	1412394	PROB	3.332	n/a	n/a	-999	9	[5, 2, 6]	13	FR1	0	R1542J
1079.348	0.0	1415726	STOP	n/a	n/a	n/a	-999	9	[-999, -999, -999]	n/a	FR1	0	R1542J
1079.348	1.667	1415737	DISTRACT_END	n/a	n/a	n/a	-999	9	[0, 0, 0]	n/a	FR1	0	R1542J
1081.015	1.595	1417396	REC_START	n/a	n/a	n/a	-999	9	[0, 0, 0]	n/a	FR1	0	R1542J
1082.61	1.934	1418988	REC_WORD	1.934	n/a	BOOT	7	9	[0, 0, 0]	n/a	FR1	0	R1542J
1084.544	1.895	1420922	REC_WORD	1.895	n/a	VASE	3	9	[0, 0, 0]	n/a	FR1	0	R1542J
1086.439	2.276	1422817	REC_WORD	2.276	n/a	PAIL	8	9	[0, 0, 0]	n/a	FR1	0	R1542J
1088.715	1.0	1425093	REC_WORD	1.0	n/a	GLASS	5	9	[0, 0, 0]	n/a	FR1	0	R1542J
1089.715	1.145	1426093	REC_WORD_VV	1.145	n/a	<>	-999	9	[0, 0, 0]	n/a	FR1	0	R1542J
1090.86	8.071	1427238	REC_WORD	8.071	n/a	SPRING	6	9	[0, 0, 0]	n/a	FR1	0	R1542J
1098.931	12.245	1435308	REC_WORD	12.245	n/a	CHILD	1	9	[0, 0, 0]	n/a	FR1	0	R1542J
1111.176	1.59	1447562	REC_END	n/a	n/a	n/a	-999	9	[0, 0, 0]	n/a	FR1	0	R1542J
1112.766	10.349	1449156	COUNTDOWN_START	n/a	n/a	n/a	-999	9	[0, 0, 0]	n/a	FR1	0	R1542J
1123.115	0.0	1459499	COUNTDOWN_END	n/a	n/a	n/a	-999	9	[0, 0, 0]	n/a	FR1	0	R1542J
1123.115	2.334	1459499	ENCODING_START	n/a	n/a	n/a	-999	10	[0, 0, 0]	n/a	FR1	0	R1542J
1125.449	1.6	1461824	WORD	n/a	wordpools/wordpool_long_EN.txt	MOP	1	10	[0, 0, 0]	n/a	FR1	0	R1542J
1127.049	0.883	1463434	WORD_OFF	n/a	n/a	MOP	1	10	[0, 0, 0]	n/a	FR1	0	R1542J
1127.932	1.601	1464313	WORD	n/a	wordpools/wordpool_long_EN.txt	ICE	2	10	[0, 0, 0]	n/a	FR1	0	R1542J
1129.533	0.799	1465923	WORD_OFF	n/a	n/a	ICE	2	10	[0, 0, 0]	n/a	FR1	0	R1542J
1130.332	1.6	1466719	WORD	n/a	wordpools/wordpool_long_EN.txt	PRINCE	3	10	[0, 0, 0]	n/a	FR1	0	R1542J
1131.932	0.884	1468313	WORD_OFF	n/a	n/a	PRINCE	3	10	[0, 0, 0]	n/a	FR1	0	R1542J
1132.816	1.617	1469191	WORD	n/a	wordpools/wordpool_long_EN.txt	LODGE	4	10	[0, 0, 0]	n/a	FR1	0	R1542J
1134.433	0.965	1470818	WORD_OFF	n/a	n/a	LODGE	4	10	[0, 0, 0]	n/a	FR1	0	R1542J
1135.398	1.601	1471777	WORD	n/a	wordpools/wordpool_long_EN.txt	RAFT	5	10	[0, 0, 0]	n/a	FR1	0	R1542J
1136.999	1.0	1473387	WORD_OFF	n/a	n/a	RAFT	5	10	[0, 0, 0]	n/a	FR1	0	R1542J
1137.999	1.6	1474379	WORD	n/a	wordpools/wordpool_long_EN.txt	STREET	6	10	[0, 0, 0]	n/a	FR1	0	R1542J
1139.599	0.767	1475973	WORD_OFF	n/a	n/a	STREET	6	10	[0, 0, 0]	n/a	FR1	0	R1542J
1140.366	1.6	1476753	WORD	n/a	wordpools/wordpool_long_EN.txt	COIN	7	10	[0, 0, 0]	n/a	FR1	0	R1542J
1141.966	0.934	1478347	WORD_OFF	n/a	n/a	COIN	7	10	[0, 0, 0]	n/a	FR1	0	R1542J
1142.9	1.599	1479274	WORD	n/a	wordpools/wordpool_long_EN.txt	GEESE	8	10	[0, 0, 0]	n/a	FR1	0	R1542J
1144.499	0.8	1480884	WORD_OFF	n/a	n/a	GEESE	8	10	[0, 0, 0]	n/a	FR1	0	R1542J
1145.299	1.617	1481681	WORD	n/a	wordpools/wordpool_long_EN.txt	GIFT	9	10	[0, 0, 0]	n/a	FR1	0	R1542J
1146.916	0.834	1483291	WORD_OFF	n/a	n/a	GIFT	9	10	[0, 0, 0]	n/a	FR1	0	R1542J
1147.75	1.599	1484136	WORD	n/a	wordpools/wordpool_long_EN.txt	CONE	10	10	[0, 0, 0]	n/a	FR1	0	R1542J
1149.349	1.0	1485730	WORD_OFF	n/a	n/a	CONE	10	10	[0, 0, 0]	n/a	FR1	0	R1542J
1150.349	1.616	1486738	WORD	n/a	wordpools/wordpool_long_EN.txt	GRASS	11	10	[0, 0, 0]	n/a	FR1	0	R1542J
1151.965	0.917	1488348	WORD_OFF	n/a	n/a	GRASS	11	10	[0, 0, 0]	n/a	FR1	0	R1542J
1152.882	1.6	1489259	WORD	n/a	wordpools/wordpool_long_EN.txt	CLOCK	12	10	[0, 0, 0]	n/a	FR1	0	R1542J
1154.482	0.001	1490857	PROB	0.001	n/a	n/a	-999	10	[4, 6, 8]	18	FR1	0	R1542J
1154.483	0.0	1490858	START	n/a	n/a	n/a	-999	10	[-999, -999, -999]	n/a	FR1	0	R1542J
1154.482	0.001	1490869	WORD_OFF	n/a	n/a	CLOCK	12	10	[0, 0, 0]	n/a	FR1	0	R1542J
1154.483	0.0	1490869	ENCODING_END	n/a	n/a	n/a	-999	10	[0, 0, 0]	n/a	FR1	0	R1542J
1154.483	7.582	1490869	DISTRACT_START	n/a	n/a	n/a	-999	10	[0, 0, 0]	n/a	FR1	0	R1542J
1162.065	2.384	1498440	PROB	2.384	n/a	n/a	-999	10	[8, 5, 8]	21	FR1	0	R1542J
1164.449	2.501	1500824	PROB	2.501	n/a	n/a	-999	10	[1, 2, 5]	8	FR1	0	R1542J
1166.95	2.716	1503325	PROB	2.716	n/a	n/a	-999	10	[1, 6, 2]	9	FR1	0	R1542J
1169.666	2.566	1506041	PROB	2.566	n/a	n/a	-999	10	[1, 6, 6]	13	FR1	0	R1542J
1172.232	3.3	1508606	PROB	3.3	n/a	n/a	-999	10	[7, 6, 5]	18	FR1	0	R1542J
1175.532	0.0	1511906	STOP	n/a	n/a	n/a	-999	10	[-999, -999, -999]	n/a	FR1	0	R1542J
1175.532	1.733	1511912	DISTRACT_END	n/a	n/a	n/a	-999	10	[0, 0, 0]	n/a	FR1	0	R1542J
1177.265	1.61	1513652	REC_START	n/a	n/a	n/a	-999	10	[0, 0, 0]	n/a	FR1	0	R1542J
1178.875	1.48	1515249	REC_WORD	1.48	n/a	GEESE	8	10	[0, 0, 0]	n/a	FR1	0	R1542J
1180.355	1.485	1516729	REC_WORD	1.485	n/a	GIFT	9	10	[0, 0, 0]	n/a	FR1	0	R1542J
1181.84	1.57	1518214	REC_WORD	1.57	n/a	COIN	7	10	[0, 0, 0]	n/a	FR1	0	R1542J
1183.41	1.0	1519784	REC_WORD	1.0	n/a	STREET	6	10	[0, 0, 0]	n/a	FR1	0	R1542J
1184.41	1.0	1520784	REC_WORD_VV	1.0	n/a	<>	-999	10	[0, 0, 0]	n/a	FR1	0	R1542J
1185.41	22.025	1521784	REC_WORD	22.025	n/a	GRASS	11	10	[0, 0, 0]	n/a	FR1	0	R1542J
1207.435	1.365	1543819	REC_END	n/a	n/a	n/a	-999	10	[0, 0, 0]	n/a	FR1	0	R1542J
1208.8	10.349	1545185	COUNTDOWN_START	n/a	n/a	n/a	-999	10	[0, 0, 0]	n/a	FR1	0	R1542J
1219.149	0.0	1555528	COUNTDOWN_END	n/a	n/a	n/a	-999	10	[0, 0, 0]	n/a	FR1	0	R1542J
1219.149	1.952	1555528	ENCODING_START	n/a	n/a	n/a	-999	11	[0, 0, 0]	n/a	FR1	0	R1542J
1221.101	1.615	1557479	WORD	n/a	wordpools/wordpool_long_EN.txt	CRANE	1	11	[0, 0, 0]	n/a	FR1	0	R1542J
1222.716	0.784	1559089	WORD_OFF	n/a	n/a	CRANE	1	11	[0, 0, 0]	n/a	FR1	0	R1542J
1223.5	1.6	1559886	WORD	n/a	wordpools/wordpool_long_EN.txt	BANK	2	11	[0, 0, 0]	n/a	FR1	0	R1542J
1225.1	0.999	1561480	WORD_OFF	n/a	n/a	BANK	2	11	[0, 0, 0]	n/a	FR1	0	R1542J
1226.099	1.601	1562472	WORD	n/a	wordpools/wordpool_long_EN.txt	OWL	3	11	[0, 0, 0]	n/a	FR1	0	R1542J
1227.7	0.767	1564082	WORD_OFF	n/a	n/a	OWL	3	11	[0, 0, 0]	n/a	FR1	0	R1542J
1228.467	1.6	1564846	WORD	n/a	wordpools/wordpool_long_EN.txt	TREE	4	11	[0, 0, 0]	n/a	FR1	0	R1542J
1230.067	0.817	1566440	WORD_OFF	n/a	n/a	TREE	4	11	[0, 0, 0]	n/a	FR1	0	R1542J
1230.884	1.6	1567269	WORD	n/a	wordpools/wordpool_long_EN.txt	PURSE	5	11	[0, 0, 0]	n/a	FR1	0	R1542J
1232.484	0.766	1568863	WORD_OFF	n/a	n/a	PURSE	5	11	[0, 0, 0]	n/a	FR1	0	R1542J
1233.25	1.6	1569627	WORD	n/a	wordpools/wordpool_long_EN.txt	MOLE	6	11	[0, 0, 0]	n/a	FR1	0	R1542J
1234.85	0.967	1571221	WORD_OFF	n/a	n/a	MOLE	6	11	[0, 0, 0]	n/a	FR1	0	R1542J
1235.817	1.617	1572197	WORD	n/a	wordpools/wordpool_long_EN.txt	SMOG	7	11	[0, 0, 0]	n/a	FR1	0	R1542J
1237.434	0.999	1573807	WORD_OFF	n/a	n/a	SMOG	7	11	[0, 0, 0]	n/a	FR1	0	R1542J
1238.433	1.601	1574815	WORD	n/a	wordpools/wordpool_long_EN.txt	PARK	8	11	[0, 0, 0]	n/a	FR1	0	R1542J
1240.034	0.767	1576408	WORD_OFF	n/a	n/a	PARK	8	11	[0, 0, 0]	n/a	FR1	0	R1542J
1240.801	1.616	1577173	WORD	n/a	wordpools/wordpool_long_EN.txt	SLUSH	9	11	[0, 0, 0]	n/a	FR1	0	R1542J
1242.417	0.967	1578799	WORD_OFF	n/a	n/a	SLUSH	9	11	[0, 0, 0]	n/a	FR1	0	R1542J
1243.384	1.6	1579759	WORD	n/a	wordpools/wordpool_long_EN.txt	MEAT	10	11	[0, 0, 0]	n/a	FR1	0	R1542J
1244.984	0.8	1581368	WORD_OFF	n/a	n/a	MEAT	10	11	[0, 0, 0]	n/a	FR1	0	R1542J
1245.784	1.6	1582165	WORD	n/a	wordpools/wordpool_long_EN.txt	SNACK	11	11	[0, 0, 0]	n/a	FR1	0	R1542J
1247.384	1.0	1583759	WORD_OFF	n/a	n/a	SNACK	11	11	[0, 0, 0]	n/a	FR1	0	R1542J
1248.384	1.6	1584767	WORD	n/a	wordpools/wordpool_long_EN.txt	JAR	12	11	[0, 0, 0]	n/a	FR1	0	R1542J
1249.984	0.001	1586355	PROB	0.001	n/a	n/a	-999	11	[4, 3, 3]	10	FR1	0	R1542J
1249.985	0.0	1586356	START	n/a	n/a	n/a	-999	11	[-999, -999, -999]	n/a	FR1	0	R1542J
1249.984	0.001	1586361	WORD_OFF	n/a	n/a	JAR	12	11	[0, 0, 0]	n/a	FR1	0	R1542J
1249.985	0.0	1586361	ENCODING_END	n/a	n/a	n/a	-999	11	[0, 0, 0]	n/a	FR1	0	R1542J
1249.985	3.25	1586361	DISTRACT_START	n/a	n/a	n/a	-999	11	[0, 0, 0]	n/a	FR1	0	R1542J
1253.235	2.033	1589606	PROB	2.033	n/a	n/a	-999	11	[6, 4, 1]	11	FR1	0	R1542J
1255.268	2.048	1591639	PROB	2.048	n/a	n/a	-999	11	[2, 1, 5]	8	FR1	0	R1542J
1257.316	3.368	1593687	PROB	3.368	n/a	n/a	-999	11	[4, 6, 8]	18	FR1	0	R1542J
1260.684	2.6	1597055	PROB	2.6	n/a	n/a	-999	11	[1, 7, 6]	14	FR1	0	R1542J
1263.284	2.366	1599655	PROB	2.366	n/a	n/a	-999	11	[1, 7, 4]	12	FR1	0	R1542J
1265.65	2.767	1602021	PROB	2.767	n/a	n/a	-999	11	[2, 4, 8]	14	FR1	0	R1542J
1268.417	5.016	1604787	PROB	5.016	n/a	n/a	-999	11	[6, 6, 5]	17	FR1	0	R1542J
1273.433	0.0	1609803	STOP	n/a	n/a	n/a	-999	11	[-999, -999, -999]	n/a	FR1	0	R1542J
1273.433	1.584	1609811	DISTRACT_END	n/a	n/a	n/a	-999	11	[0, 0, 0]	n/a	FR1	0	R1542J
1275.017	0.975	1611389	REC_START	n/a	n/a	n/a	-999	11	[0, 0, 0]	n/a	FR1	0	R1542J
1275.992	1.71	1612362	REC_WORD	1.71	n/a	BANK	2	11	[0, 0, 0]	n/a	FR1	0	R1542J
1277.702	1.705	1614072	REC_WORD	1.705	n/a	CRANE	1	11	[0, 0, 0]	n/a	FR1	0	R1542J
1279.407	12.52	1615777	REC_WORD	12.52	n/a	OWL	3	11	[0, 0, 0]	n/a	FR1	0	R1542J
1291.927	13.275	1628297	REC_WORD	13.275	n/a	TREE	4	11	[0, 0, 0]	n/a	FR1	0	R1542J
1305.202	1.349	1641571	REC_END	n/a	n/a	n/a	-999	11	[0, 0, 0]	n/a	FR1	0	R1542J
1306.551	10.349	1642921	COUNTDOWN_START	n/a	n/a	n/a	-999	11	[0, 0, 0]	n/a	FR1	0	R1542J
1316.9	0.0	1653280	COUNTDOWN_END	n/a	n/a	n/a	-999	11	[0, 0, 0]	n/a	FR1	0	R1542J
1316.9	2.051	1653280	ENCODING_START	n/a	n/a	n/a	-999	12	[0, 0, 0]	n/a	FR1	0	R1542J
1318.951	1.616	1655329	WORD	n/a	wordpools/wordpool_long_EN.txt	YARN	1	12	[0, 0, 0]	n/a	FR1	0	R1542J
1320.567	0.766	1656939	WORD_OFF	n/a	n/a	YARN	1	12	[0, 0, 0]	n/a	FR1	0	R1542J
1321.333	1.6	1657704	WORD	n/a	wordpools/wordpool_long_EN.txt	HOUSE	2	12	[0, 0, 0]	n/a	FR1	0	R1542J
1322.933	0.984	1659314	WORD_OFF	n/a	n/a	HOUSE	2	12	[0, 0, 0]	n/a	FR1	0	R1542J
1323.917	1.6	1660289	WORD	n/a	wordpools/wordpool_long_EN.txt	ELF	3	12	[0, 0, 0]	n/a	FR1	0	R1542J
1325.517	0.899	1661899	WORD_OFF	n/a	n/a	ELF	3	12	[0, 0, 0]	n/a	FR1	0	R1542J
1326.416	1.617	1662794	WORD	n/a	wordpools/wordpool_long_EN.txt	TOAD	4	12	[0, 0, 0]	n/a	FR1	0	R1542J
1328.033	0.818	1664404	WORD_OFF	n/a	n/a	TOAD	4	12	[0, 0, 0]	n/a	FR1	0	R1542J
1328.851	1.616	1665217	WORD	n/a	wordpools/wordpool_long_EN.txt	GLOBE	5	12	[0, 0, 0]	n/a	FR1	0	R1542J
1330.467	0.95	1666843	WORD_OFF	n/a	n/a	GLOBE	5	12	[0, 0, 0]	n/a	FR1	0	R1542J
1331.417	1.6	1667786	WORD	n/a	wordpools/wordpool_long_EN.txt	SPACE	6	12	[0, 0, 0]	n/a	FR1	0	R1542J
1333.017	0.833	1669396	WORD_OFF	n/a	n/a	SPACE	6	12	[0, 0, 0]	n/a	FR1	0	R1542J
1333.85	1.617	1670226	WORD	n/a	wordpools/wordpool_long_EN.txt	MARSH	7	12	[0, 0, 0]	n/a	FR1	0	R1542J
1335.467	0.899	1671836	WORD_OFF	n/a	n/a	MARSH	7	12	[0, 0, 0]	n/a	FR1	0	R1542J
1336.366	1.601	1672746	WORD	n/a	wordpools/wordpool_long_EN.txt	TANK	8	12	[0, 0, 0]	n/a	FR1	0	R1542J
1337.967	0.815	1674340	WORD_OFF	n/a	n/a	TANK	8	12	[0, 0, 0]	n/a	FR1	0	R1542J
1338.782	1.602	1675153	WORD	n/a	wordpools/wordpool_long_EN.txt	SLIDE	9	12	[0, 0, 0]	n/a	FR1	0	R1542J
1340.384	0.966	1676763	WORD_OFF	n/a	n/a	SLIDE	9	12	[0, 0, 0]	n/a	FR1	0	R1542J
1341.35	1.617	1677723	WORD	n/a	wordpools/wordpool_long_EN.txt	FLAME	10	12	[0, 0, 0]	n/a	FR1	0	R1542J
1342.967	0.9	1679332	WORD_OFF	n/a	n/a	FLAME	10	12	[0, 0, 0]	n/a	FR1	0	R1542J
1343.867	1.6	1680243	WORD	n/a	wordpools/wordpool_long_EN.txt	FOAM	11	12	[0, 0, 0]	n/a	FR1	0	R1542J
1345.467	0.983	1681837	WORD_OFF	n/a	n/a	FOAM	11	12	[0, 0, 0]	n/a	FR1	0	R1542J
1346.45	1.617	1682829	WORD	n/a	wordpools/wordpool_long_EN.txt	BOX	12	12	[0, 0, 0]	n/a	FR1	0	R1542J
1348.067	0.0	1684434	START	n/a	n/a	n/a	-999	12	[-999, -999, -999]	n/a	FR1	0	R1542J
1348.067	0.0	1684434	PROB	0.0	n/a	n/a	-999	12	[4, 1, 1]	6	FR1	0	R1542J
1348.066	0.001	1684439	WORD_OFF	n/a	n/a	BOX	12	12	[0, 0, 0]	n/a	FR1	0	R1542J
1348.067	0.0	1684439	ENCODING_END	n/a	n/a	n/a	-999	12	[0, 0, 0]	n/a	FR1	0	R1542J
1348.067	2.884	1684439	DISTRACT_START	n/a	n/a	n/a	-999	12	[0, 0, 0]	n/a	FR1	0	R1542J
1350.951	2.233	1687318	PROB	2.233	n/a	n/a	-999	12	[2, 4, 2]	8	FR1	0	R1542J
1353.184	2.517	1689551	PROB	2.517	n/a	n/a	-999	12	[3, 5, 3]	11	FR1	0	R1542J
1355.701	3.35	1692068	PROB	3.35	n/a	n/a	-999	12	[2, 7, 8]	17	FR1	0	R1542J
1359.051	3.532	1695418	PROB	3.532	n/a	n/a	-999	12	[6, 6, 7]	19	FR1	0	R1542J
1362.583	2.684	1698950	PROB	2.684	n/a	n/a	-999	12	[5, 6, 7]	18	FR1	0	R1542J
1365.267	2.55	1701633	PROB	2.55	n/a	n/a	-999	12	[5, 6, 2]	13	FR1	0	R1542J
1367.817	5.233	1704183	PROB	5.233	n/a	n/a	-999	12	[2, 3, 6]	11	FR1	0	R1542J
1373.05	0.0	1709416	STOP	n/a	n/a	n/a	-999	12	[-999, -999, -999]	n/a	FR1	0	R1542J
1373.05	1.517	1709418	DISTRACT_END	n/a	n/a	n/a	-999	12	[0, 0, 0]	n/a	FR1	0	R1542J
1374.567	1.255	1710946	REC_START	n/a	n/a	n/a	-999	12	[0, 0, 0]	n/a	FR1	0	R1542J
1375.822	1.77	1712188	REC_WORD	1.77	n/a	FOAM	11	12	[0, 0, 0]	n/a	FR1	0	R1542J
1377.592	1.82	1713958	REC_WORD	1.82	n/a	FLAME	10	12	[0, 0, 0]	n/a	FR1	0	R1542J
1379.412	1.94	1715778	REC_WORD	1.94	n/a	HOUSE	2	12	[0, 0, 0]	n/a	FR1	0	R1542J
1381.352	1.96	1717718	REC_WORD	1.96	n/a	GLOBE	5	12	[0, 0, 0]	n/a	FR1	0	R1542J
1383.312	18.6	1719678	REC_WORD	18.6	n/a	ELF	3	12	[0, 0, 0]	n/a	FR1	0	R1542J
1401.912	2.826	1738277	REC_WORD	2.826	n/a	YARN	1	12	[0, 0, 0]	n/a	FR1	0	R1542J
1404.738	0.0	1741113	REC_END	n/a	n/a	n/a	-999	12	[0, 0, 0]	n/a	FR1	0	R1542J
