onset	duration	sample	trial_type	response_time	stim_file	item_name	serialpos	list	test	answer	experiment	session	subject
0.0	73.053	1892	INSTRUCT_START	n/a	n/a	n/a	-999	-999	[0, 0, 0]	n/a	FR1	6	R1299T
73.053	11.202	74941	INSTRUCT_END	n/a	n/a	n/a	-999	-999	[0, 0, 0]	n/a	FR1	6	R1299T
84.255	35.427	86143	MIC TEST_START	n/a	n/a	n/a	-999	-999	[0, 0, 0]	n/a	FR1	6	R1299T
119.682	0.011	121568	MIC TEST_END	n/a	n/a	n/a	-999	-999	[0, 0, 0]	n/a	FR1	6	R1299T
119.693	0.0	121579	TRIAL_START	n/a	n/a	n/a	-999	-1	[0, 0, 0]	n/a	FR1	6	R1299T
119.693	0.001	121579	TRIAL	n/a	n/a	n/a	-999	-1	[0, 0, 0]	n/a	FR1	6	R1299T
119.694	20.355	121580	WAITING_START	n/a	n/a	n/a	-999	-1	[0, 0, 0]	n/a	FR1	6	R1299T
140.049	0.0	141934	COUNTDOWN_START	n/a	n/a	n/a	-999	-1	[0, 0, 0]	n/a	FR1	6	R1299T
140.049	10.429	141934	WAITING_END	n/a	n/a	n/a	-999	-1	[0, 0, 0]	n/a	FR1	6	R1299T
150.478	0.0	152363	COUNTDOWN_END	n/a	n/a	n/a	-999	-1	[0, 0, 0]	n/a	FR1	6	R1299T
150.478	1.123	152363	ORIENT_START	n/a	n/a	n/a	-999	-1	[0, 0, 0]	n/a	FR1	6	R1299T
151.601	0.0	153486	ORIENT_END	n/a	n/a	n/a	-999	-1	[0, 0, 0]	n/a	FR1	6	R1299T
151.601	1.032	153486	ENCODING_START	n/a	n/a	n/a	-999	-1	[0, 0, 0]	n/a	FR1	6	R1299T
152.633	1.635	154518	WORD	n/a	n/a	ATTIC	1	-1	[0, 0, 0]	n/a	FR1	6	R1299T
154.268	0.848	156153	WORD_OFF	n/a	n/a	ATTIC	1	-1	[0, 0, 0]	n/a	FR1	6	R1299T
155.116	1.619	157001	WORD	n/a	n/a	BEAM	2	-1	[0, 0, 0]	n/a	FR1	6	R1299T
156.735	0.851	158620	WORD_OFF	n/a	n/a	BEAM	2	-1	[0, 0, 0]	n/a	FR1	6	R1299T
157.586	1.633	159471	WORD	n/a	n/a	CAMEL	3	-1	[0, 0, 0]	n/a	FR1	6	R1299T
159.219	0.777	161104	WORD_OFF	n/a	n/a	CAMEL	3	-1	[0, 0, 0]	n/a	FR1	6	R1299T
159.996	1.623	161880	WORD	n/a	n/a	CHEST	4	-1	[0, 0, 0]	n/a	FR1	6	R1299T
161.619	0.925	163503	WORD_OFF	n/a	n/a	CHEST	4	-1	[0, 0, 0]	n/a	FR1	6	R1299T
162.544	1.626	164428	WORD	n/a	n/a	COTTON	5	-1	[0, 0, 0]	n/a	FR1	6	R1299T
164.17	1.092	166054	WORD_OFF	n/a	n/a	COTTON	5	-1	[0, 0, 0]	n/a	FR1	6	R1299T
165.262	1.625	167146	WORD	n/a	n/a	FLOOD	6	-1	[0, 0, 0]	n/a	FR1	6	R1299T
166.887	1.078	168771	WORD_OFF	n/a	n/a	FLOOD	6	-1	[0, 0, 0]	n/a	FR1	6	R1299T
167.965	1.622	169849	WORD	n/a	n/a	IRON	7	-1	[0, 0, 0]	n/a	FR1	6	R1299T
169.587	1.004	171471	WORD_OFF	n/a	n/a	IRON	7	-1	[0, 0, 0]	n/a	FR1	6	R1299T
170.591	1.63	172475	WORD	n/a	n/a	RHINO	8	-1	[0, 0, 0]	n/a	FR1	6	R1299T
172.221	1.013	174105	WORD_OFF	n/a	n/a	RHINO	8	-1	[0, 0, 0]	n/a	FR1	6	R1299T
173.234	1.621	175118	WORD	n/a	n/a	RING	9	-1	[0, 0, 0]	n/a	FR1	6	R1299T
174.855	0.812	176739	WORD_OFF	n/a	n/a	RING	9	-1	[0, 0, 0]	n/a	FR1	6	R1299T
175.667	1.621	177551	WORD	n/a	n/a	TONGUE	10	-1	[0, 0, 0]	n/a	FR1	6	R1299T
177.288	0.771	179172	WORD_OFF	n/a	n/a	TONGUE	10	-1	[0, 0, 0]	n/a	FR1	6	R1299T
178.059	1.63	179943	WORD	n/a	n/a	WAGON	11	-1	[0, 0, 0]	n/a	FR1	6	R1299T
179.689	0.87	181573	WORD_OFF	n/a	n/a	WAGON	11	-1	[0, 0, 0]	n/a	FR1	6	R1299T
180.559	1.631	182443	WORD	n/a	n/a	WATCH	12	-1	[0, 0, 0]	n/a	FR1	6	R1299T
182.19	0.0	184073	WORD_OFF	n/a	n/a	WATCH	12	-1	[0, 0, 0]	n/a	FR1	6	R1299T
182.19	0.0	184073	ENCODING_END	n/a	n/a	n/a	-999	-1	[0, 0, 0]	n/a	FR1	6	R1299T
182.19	0.001	184073	DISTRACT_START	n/a	n/a	n/a	-999	-1	[0, 0, 0]	n/a	FR1	6	R1299T
182.191	0.015	184074	START	n/a	n/a	n/a	-999	-1	[-999, -999, -999]	n/a	FR1	6	R1299T
182.206	4.067	184089	PROB	4.067	n/a	n/a	-999	-1	[8, 7, 5]	20	FR1	6	R1299T
186.273	4.601	188156	PROB	4.601	n/a	n/a	-999	-1	[3, 3, 8]	14	FR1	6	R1299T
190.874	4.401	192757	PROB	4.401	n/a	n/a	-999	-1	[7, 2, 7]	16	FR1	6	R1299T
195.275	3.667	197158	PROB	3.667	n/a	n/a	-999	-1	[6, 8, 6]	20	FR1	6	R1299T
198.942	3.23	200825	PROB	3.23	n/a	n/a	-999	-1	[8, 7, 8]	23	FR1	6	R1299T
202.172	0.021	204055	STOP	n/a	n/a	n/a	-999	-1	[-999, -999, -999]	n/a	FR1	6	R1299T
202.193	0.687	204076	DISTRACT_END	n/a	n/a	n/a	-999	-1	[0, 0, 0]	n/a	FR1	6	R1299T
202.88	1.68	204763	RETRIEVAL_ORIENT_START	n/a	n/a	n/a	-999	-1	[0, 0, 0]	n/a	FR1	6	R1299T
204.56	0.001	206442	RETRIEVAL_ORIENT_END	n/a	n/a	n/a	-999	-1	[0, 0, 0]	n/a	FR1	6	R1299T
204.561	3.116	206443	REC_START	n/a	n/a	n/a	-999	-1	[0, 0, 0]	n/a	FR1	6	R1299T
207.677	0.872	209559	REC_WORD_VV	0.872	n/a	<>	-999	-1	[0, 0, 0]	n/a	FR1	6	R1299T
208.549	3.747	210431	REC_WORD	3.747	n/a	RHINO	-999	-1	[0, 0, 0]	n/a	FR1	6	R1299T
212.296	2.345	214178	REC_WORD	2.345	n/a	COTTON	-999	-1	[0, 0, 0]	n/a	FR1	6	R1299T
214.641	2.325	216523	REC_WORD	2.325	n/a	RING	-999	-1	[0, 0, 0]	n/a	FR1	6	R1299T
216.966	2.266	218848	REC_WORD	2.266	n/a	ATTIC	-999	-1	[0, 0, 0]	n/a	FR1	6	R1299T
219.232	6.346	221114	REC_WORD	6.346	n/a	BEAM	-999	-1	[0, 0, 0]	n/a	FR1	6	R1299T
225.578	8.712	227460	REC_WORD_VV	8.712	n/a	<>	-999	-1	[0, 0, 0]	n/a	FR1	6	R1299T
234.29	0.285	236171	REC_WORD_VV	0.285	n/a	<>	-999	-1	[0, 0, 0]	n/a	FR1	6	R1299T
234.575	0.0	236456	REC_END	n/a	n/a	n/a	-999	-1	[0, 0, 0]	n/a	FR1	6	R1299T
234.575	9.109	236456	PRACTICE_POST_INSTRUCT_START	n/a	n/a	n/a	-999	-1	[0, 0, 0]	n/a	FR1	6	R1299T
243.684	0.0	245565	TRIAL_END	n/a	n/a	n/a	-999	-1	[0, 0, 0]	n/a	FR1	6	R1299T
243.684	0.017	245565	PRACTICE_POST_INSTRUCT_END	n/a	n/a	n/a	-999	-1	[0, 0, 0]	n/a	FR1	6	R1299T
243.701	0.0	245582	TRIAL_START	n/a	n/a	n/a	-999	1	[0, 0, 0]	n/a	FR1	6	R1299T
243.701	0.001	245582	TRIAL	n/a	n/a	n/a	-999	1	[0, 0, 0]	n/a	FR1	6	R1299T
243.702	5.4	245583	WAITING_START	n/a	n/a	n/a	-999	1	[0, 0, 0]	n/a	FR1	6	R1299T
249.102	0.0	250982	WAITING_END	n/a	n/a	n/a	-999	1	[0, 0, 0]	n/a	FR1	6	R1299T
249.102	10.43	250982	COUNTDOWN_START	n/a	n/a	n/a	-999	1	[0, 0, 0]	n/a	FR1	6	R1299T
259.532	0.0	261412	COUNTDOWN_END	n/a	n/a	n/a	-999	1	[0, 0, 0]	n/a	FR1	6	R1299T
259.532	1.255	261412	ORIENT_START	n/a	n/a	n/a	-999	1	[0, 0, 0]	n/a	FR1	6	R1299T
260.787	0.0	262667	ENCODING_START	n/a	n/a	n/a	-999	1	[0, 0, 0]	n/a	FR1	6	R1299T
260.787	1.126	262667	ORIENT_END	n/a	n/a	n/a	-999	1	[0, 0, 0]	n/a	FR1	6	R1299T
261.913	1.625	263793	WORD	n/a	wordpools/wordpool_EN.txt	BOARD	1	1	[0, 0, 0]	n/a	FR1	6	R1299T
263.538	0.929	265418	WORD_OFF	n/a	n/a	BOARD	1	1	[0, 0, 0]	n/a	FR1	6	R1299T
264.467	1.638	266347	WORD	n/a	wordpools/wordpool_EN.txt	FACE	2	1	[0, 0, 0]	n/a	FR1	6	R1299T
266.105	0.973	267985	WORD_OFF	n/a	n/a	FACE	2	1	[0, 0, 0]	n/a	FR1	6	R1299T
267.078	1.627	268958	WORD	n/a	wordpools/wordpool_EN.txt	BRICK	3	1	[0, 0, 0]	n/a	FR1	6	R1299T
268.705	1.055	270585	WORD_OFF	n/a	n/a	BRICK	3	1	[0, 0, 0]	n/a	FR1	6	R1299T
269.76	1.629	271640	WORD	n/a	wordpools/wordpool_EN.txt	FORT	4	1	[0, 0, 0]	n/a	FR1	6	R1299T
271.389	1.142	273268	WORD_OFF	n/a	n/a	FORT	4	1	[0, 0, 0]	n/a	FR1	6	R1299T
272.531	1.625	274410	WORD	n/a	wordpools/wordpool_EN.txt	EEL	5	1	[0, 0, 0]	n/a	FR1	6	R1299T
274.156	1.035	276035	WORD_OFF	n/a	n/a	EEL	5	1	[0, 0, 0]	n/a	FR1	6	R1299T
275.191	1.632	277070	WORD	n/a	wordpools/wordpool_EN.txt	MOLE	6	1	[0, 0, 0]	n/a	FR1	6	R1299T
276.823	0.872	278702	WORD_OFF	n/a	n/a	MOLE	6	1	[0, 0, 0]	n/a	FR1	6	R1299T
277.695	1.629	279574	WORD	n/a	wordpools/wordpool_EN.txt	VEST	7	1	[0, 0, 0]	n/a	FR1	6	R1299T
279.324	0.926	281203	WORD_OFF	n/a	n/a	VEST	7	1	[0, 0, 0]	n/a	FR1	6	R1299T
280.25	1.624	282129	WORD	n/a	wordpools/wordpool_EN.txt	LAKE	8	1	[0, 0, 0]	n/a	FR1	6	R1299T
281.874	1.053	283753	WORD_OFF	n/a	n/a	LAKE	8	1	[0, 0, 0]	n/a	FR1	6	R1299T
282.927	1.631	284806	WORD	n/a	wordpools/wordpool_EN.txt	RAIN	9	1	[0, 0, 0]	n/a	FR1	6	R1299T
284.558	0.98	286437	WORD_OFF	n/a	n/a	RAIN	9	1	[0, 0, 0]	n/a	FR1	6	R1299T
285.538	1.637	287417	WORD	n/a	wordpools/wordpool_EN.txt	OAK	10	1	[0, 0, 0]	n/a	FR1	6	R1299T
287.175	0.967	289054	WORD_OFF	n/a	n/a	OAK	10	1	[0, 0, 0]	n/a	FR1	6	R1299T
288.142	1.634	290021	WORD	n/a	wordpools/wordpool_EN.txt	SPARK	11	1	[0, 0, 0]	n/a	FR1	6	R1299T
289.776	0.791	291655	WORD_OFF	n/a	n/a	SPARK	11	1	[0, 0, 0]	n/a	FR1	6	R1299T
290.567	1.626	292446	WORD	n/a	wordpools/wordpool_EN.txt	CAR	12	1	[0, 0, 0]	n/a	FR1	6	R1299T
292.193	0.0	294072	WORD_OFF	n/a	n/a	CAR	12	1	[0, 0, 0]	n/a	FR1	6	R1299T
292.193	0.0	294072	ENCODING_END	n/a	n/a	n/a	-999	1	[0, 0, 0]	n/a	FR1	6	R1299T
292.193	0.001	294072	DISTRACT_START	n/a	n/a	n/a	-999	1	[0, 0, 0]	n/a	FR1	6	R1299T
292.194	0.015	294073	START	n/a	n/a	n/a	-999	1	[-999, -999, -999]	n/a	FR1	6	R1299T
292.209	3.534	294088	PROB	3.534	n/a	n/a	-999	1	[1, 4, 8]	13	FR1	6	R1299T
295.743	3.701	297621	PROB	3.701	n/a	n/a	-999	1	[7, 6, 4]	17	FR1	6	R1299T
299.444	3.984	301322	PROB	3.984	n/a	n/a	-999	1	[5, 7, 6]	18	FR1	6	R1299T
303.428	3.367	305306	PROB	3.367	n/a	n/a	-999	1	[6, 2, 3]	9	FR1	6	R1299T
306.795	4.218	308673	PROB	4.218	n/a	n/a	-999	1	[4, 6, 1]	11	FR1	6	R1299T
311.013	3.523	312891	PROB	3.523	n/a	n/a	-999	1	[4, 6, 9]	19	FR1	6	R1299T
314.536	0.011	316414	STOP	n/a	n/a	n/a	-999	1	[-999, -999, -999]	n/a	FR1	6	R1299T
314.547	0.7	316425	DISTRACT_END	n/a	n/a	n/a	-999	1	[0, 0, 0]	n/a	FR1	6	R1299T
315.247	1.717	317125	RETRIEVAL_ORIENT_START	n/a	n/a	n/a	-999	1	[0, 0, 0]	n/a	FR1	6	R1299T
316.964	0.0	318841	RETRIEVAL_ORIENT_END	n/a	n/a	n/a	-999	1	[0, 0, 0]	n/a	FR1	6	R1299T
316.964	2.237	318841	REC_START	n/a	n/a	n/a	-999	1	[0, 0, 0]	n/a	FR1	6	R1299T
319.201	1.28	321078	REC_WORD_VV	1.28	n/a	<>	-999	1	[0, 0, 0]	n/a	FR1	6	R1299T
320.481	0.64	322358	REC_WORD_VV	0.64	n/a	<>	-999	1	[0, 0, 0]	n/a	FR1	6	R1299T
321.121	2.223	322998	REC_WORD	2.223	n/a	CAR	12	1	[0, 0, 0]	n/a	FR1	6	R1299T
323.344	6.259	325221	REC_WORD	6.259	n/a	SPARK	11	1	[0, 0, 0]	n/a	FR1	6	R1299T
329.603	17.375	331480	REC_WORD	17.375	n/a	EEL	5	1	[0, 0, 0]	n/a	FR1	6	R1299T
346.978	0.0	348854	TRIAL_END	n/a	n/a	n/a	-999	1	[0, 0, 0]	n/a	FR1	6	R1299T
346.978	0.015	348854	REC_END	n/a	n/a	n/a	-999	1	[0, 0, 0]	n/a	FR1	6	R1299T
346.993	0.0	348869	TRIAL_START	n/a	n/a	n/a	-999	2	[0, 0, 0]	n/a	FR1	6	R1299T
346.993	0.0	348869	TRIAL	n/a	n/a	n/a	-999	2	[0, 0, 0]	n/a	FR1	6	R1299T
346.993	4.994	348869	WAITING_START	n/a	n/a	n/a	-999	2	[0, 0, 0]	n/a	FR1	6	R1299T
351.987	0.0	353863	WAITING_END	n/a	n/a	n/a	-999	2	[0, 0, 0]	n/a	FR1	6	R1299T
351.987	10.428	353863	COUNTDOWN_START	n/a	n/a	n/a	-999	2	[0, 0, 0]	n/a	FR1	6	R1299T
362.415	0.0	364290	COUNTDOWN_END	n/a	n/a	n/a	-999	2	[0, 0, 0]	n/a	FR1	6	R1299T
362.415	1.057	364290	ORIENT_START	n/a	n/a	n/a	-999	2	[0, 0, 0]	n/a	FR1	6	R1299T
363.472	0.001	365347	ORIENT_END	n/a	n/a	n/a	-999	2	[0, 0, 0]	n/a	FR1	6	R1299T
363.473	1.14	365348	ENCODING_START	n/a	n/a	n/a	-999	2	[0, 0, 0]	n/a	FR1	6	R1299T
364.613	1.627	366488	WORD	n/a	wordpools/wordpool_EN.txt	TRAIN	1	2	[0, 0, 0]	n/a	FR1	6	R1299T
366.24	0.938	368115	WORD_OFF	n/a	n/a	TRAIN	1	2	[0, 0, 0]	n/a	FR1	6	R1299T
367.178	1.629	369053	WORD	n/a	wordpools/wordpool_EN.txt	SHEET	2	2	[0, 0, 0]	n/a	FR1	6	R1299T
368.807	0.934	370682	WORD_OFF	n/a	n/a	SHEET	2	2	[0, 0, 0]	n/a	FR1	6	R1299T
369.741	1.633	371616	WORD	n/a	wordpools/wordpool_EN.txt	ROSE	3	2	[0, 0, 0]	n/a	FR1	6	R1299T
371.374	1.057	373249	WORD_OFF	n/a	n/a	ROSE	3	2	[0, 0, 0]	n/a	FR1	6	R1299T
372.431	1.627	374306	WORD	n/a	wordpools/wordpool_EN.txt	ANT	4	2	[0, 0, 0]	n/a	FR1	6	R1299T
374.058	1.086	375933	WORD_OFF	n/a	n/a	ANT	4	2	[0, 0, 0]	n/a	FR1	6	R1299T
375.144	1.631	377019	WORD	n/a	wordpools/wordpool_EN.txt	FLAME	5	2	[0, 0, 0]	n/a	FR1	6	R1299T
376.775	1.07	378650	WORD_OFF	n/a	n/a	FLAME	5	2	[0, 0, 0]	n/a	FR1	6	R1299T
377.845	1.63	379720	WORD	n/a	wordpools/wordpool_EN.txt	DOG	6	2	[0, 0, 0]	n/a	FR1	6	R1299T
379.475	1.049	381350	WORD_OFF	n/a	n/a	DOG	6	2	[0, 0, 0]	n/a	FR1	6	R1299T
380.524	1.635	382399	WORD	n/a	wordpools/wordpool_EN.txt	SWAMP	7	2	[0, 0, 0]	n/a	FR1	6	R1299T
382.159	0.901	384033	WORD_OFF	n/a	n/a	SWAMP	7	2	[0, 0, 0]	n/a	FR1	6	R1299T
383.06	1.633	384934	WORD	n/a	wordpools/wordpool_EN.txt	WORLD	8	2	[0, 0, 0]	n/a	FR1	6	R1299T
384.693	1.034	386567	WORD_OFF	n/a	n/a	WORLD	8	2	[0, 0, 0]	n/a	FR1	6	R1299T
385.727	1.633	387601	WORD	n/a	wordpools/wordpool_EN.txt	STORE	9	2	[0, 0, 0]	n/a	FR1	6	R1299T
387.36	0.798	389234	WORD_OFF	n/a	n/a	STORE	9	2	[0, 0, 0]	n/a	FR1	6	R1299T
388.158	1.636	390032	WORD	n/a	wordpools/wordpool_EN.txt	AXE	10	2	[0, 0, 0]	n/a	FR1	6	R1299T
389.794	0.829	391668	WORD_OFF	n/a	n/a	AXE	10	2	[0, 0, 0]	n/a	FR1	6	R1299T
390.623	1.621	392497	WORD	n/a	wordpools/wordpool_EN.txt	LEAF	11	2	[0, 0, 0]	n/a	FR1	6	R1299T
392.244	0.872	394118	WORD_OFF	n/a	n/a	LEAF	11	2	[0, 0, 0]	n/a	FR1	6	R1299T
393.116	1.629	394990	WORD	n/a	wordpools/wordpool_EN.txt	SPOON	12	2	[0, 0, 0]	n/a	FR1	6	R1299T
394.745	0.0	396619	WORD_OFF	n/a	n/a	SPOON	12	2	[0, 0, 0]	n/a	FR1	6	R1299T
394.745	0.001	396619	ENCODING_END	n/a	n/a	n/a	-999	2	[0, 0, 0]	n/a	FR1	6	R1299T
394.746	0.0	396620	DISTRACT_START	n/a	n/a	n/a	-999	2	[0, 0, 0]	n/a	FR1	6	R1299T
394.746	0.015	396620	START	n/a	n/a	n/a	-999	2	[-999, -999, -999]	n/a	FR1	6	R1299T
394.761	3.551	396635	PROB	3.551	n/a	n/a	-999	2	[5, 2, 5]	12	FR1	6	R1299T
398.312	3.517	400186	PROB	3.517	n/a	n/a	-999	2	[6, 6, 8]	20	FR1	6	R1299T
401.829	2.184	403703	PROB	2.184	n/a	n/a	-999	2	[6, 6, 9]	21	FR1	6	R1299T
404.013	3.15	405887	PROB	3.15	n/a	n/a	-999	2	[8, 4, 8]	20	FR1	6	R1299T
407.163	4.951	409036	PROB	4.951	n/a	n/a	-999	2	[6, 9, 6]	21	FR1	6	R1299T
412.114	3.847	413987	PROB	3.847	n/a	n/a	-999	2	[9, 2, 3]	14	FR1	6	R1299T
415.961	0.021	417834	STOP	n/a	n/a	n/a	-999	2	[-999, -999, -999]	n/a	FR1	6	R1299T
415.982	0.555	417855	DISTRACT_END	n/a	n/a	n/a	-999	2	[0, 0, 0]	n/a	FR1	6	R1299T
416.537	1.729	418410	RETRIEVAL_ORIENT_START	n/a	n/a	n/a	-999	2	[0, 0, 0]	n/a	FR1	6	R1299T
418.266	0.0	420139	RETRIEVAL_ORIENT_END	n/a	n/a	n/a	-999	2	[0, 0, 0]	n/a	FR1	6	R1299T
418.266	2.449	420139	REC_START	n/a	n/a	n/a	-999	2	[0, 0, 0]	n/a	FR1	6	R1299T
420.715	0.784	422588	REC_WORD_VV	0.784	n/a	<>	-999	2	[0, 0, 0]	n/a	FR1	6	R1299T
421.499	3.022	423372	REC_WORD	3.022	n/a	TRAIN	1	2	[0, 0, 0]	n/a	FR1	6	R1299T
424.521	13.262	426394	REC_WORD_VV	13.262	n/a	<>	-999	2	[0, 0, 0]	n/a	FR1	6	R1299T
437.783	1.043	439655	REC_WORD	1.043	n/a	DOG	6	2	[0, 0, 0]	n/a	FR1	6	R1299T
438.826	9.452	440698	REC_WORD_VV	9.452	n/a	<>	-999	2	[0, 0, 0]	n/a	FR1	6	R1299T
448.278	0.001	450150	REC_END	n/a	n/a	n/a	-999	2	[0, 0, 0]	n/a	FR1	6	R1299T
448.279	0.014	450151	TRIAL_END	n/a	n/a	n/a	-999	2	[0, 0, 0]	n/a	FR1	6	R1299T
448.293	0.0	450165	TRIAL_START	n/a	n/a	n/a	-999	3	[0, 0, 0]	n/a	FR1	6	R1299T
448.293	0.0	450165	TRIAL	n/a	n/a	n/a	-999	3	[0, 0, 0]	n/a	FR1	6	R1299T
448.293	2.445	450165	WAITING_START	n/a	n/a	n/a	-999	3	[0, 0, 0]	n/a	FR1	6	R1299T
450.738	0.001	452609	WAITING_END	n/a	n/a	n/a	-999	3	[0, 0, 0]	n/a	FR1	6	R1299T
450.739	10.429	452610	COUNTDOWN_START	n/a	n/a	n/a	-999	3	[0, 0, 0]	n/a	FR1	6	R1299T
461.168	0.0	463039	COUNTDOWN_END	n/a	n/a	n/a	-999	3	[0, 0, 0]	n/a	FR1	6	R1299T
461.168	1.222	463039	ORIENT_START	n/a	n/a	n/a	-999	3	[0, 0, 0]	n/a	FR1	6	R1299T
462.39	0.001	464261	ORIENT_END	n/a	n/a	n/a	-999	3	[0, 0, 0]	n/a	FR1	6	R1299T
462.391	0.899	464262	ENCODING_START	n/a	n/a	n/a	-999	3	[0, 0, 0]	n/a	FR1	6	R1299T
463.29	1.634	465161	WORD	n/a	wordpools/wordpool_EN.txt	SHIELD	1	3	[0, 0, 0]	n/a	FR1	6	R1299T
464.924	0.804	466795	WORD_OFF	n/a	n/a	SHIELD	1	3	[0, 0, 0]	n/a	FR1	6	R1299T
465.728	1.63	467599	WORD	n/a	wordpools/wordpool_EN.txt	SIGN	2	3	[0, 0, 0]	n/a	FR1	6	R1299T
467.358	0.887	469229	WORD_OFF	n/a	n/a	SIGN	2	3	[0, 0, 0]	n/a	FR1	6	R1299T
468.245	1.63	470116	WORD	n/a	wordpools/wordpool_EN.txt	DOLL	3	3	[0, 0, 0]	n/a	FR1	6	R1299T
469.875	1.139	471746	WORD_OFF	n/a	n/a	DOLL	3	3	[0, 0, 0]	n/a	FR1	6	R1299T
471.014	1.628	472885	WORD	n/a	wordpools/wordpool_EN.txt	BEAK	4	3	[0, 0, 0]	n/a	FR1	6	R1299T
472.642	0.83	474512	WORD_OFF	n/a	n/a	BEAK	4	3	[0, 0, 0]	n/a	FR1	6	R1299T
473.472	1.637	475342	WORD	n/a	wordpools/wordpool_EN.txt	BREAD	5	3	[0, 0, 0]	n/a	FR1	6	R1299T
475.109	0.753	476979	WORD_OFF	n/a	n/a	BREAD	5	3	[0, 0, 0]	n/a	FR1	6	R1299T
475.862	1.631	477732	WORD	n/a	wordpools/wordpool_EN.txt	FAN	6	3	[0, 0, 0]	n/a	FR1	6	R1299T
477.493	0.959	479363	WORD_OFF	n/a	n/a	FAN	6	3	[0, 0, 0]	n/a	FR1	6	R1299T
478.452	1.625	480322	WORD	n/a	wordpools/wordpool_EN.txt	CAKE	7	3	[0, 0, 0]	n/a	FR1	6	R1299T
480.077	0.959	481947	WORD_OFF	n/a	n/a	CAKE	7	3	[0, 0, 0]	n/a	FR1	6	R1299T
481.036	1.624	482906	WORD	n/a	wordpools/wordpool_EN.txt	PIN	8	3	[0, 0, 0]	n/a	FR1	6	R1299T
482.66	1.139	484530	WORD_OFF	n/a	n/a	PIN	8	3	[0, 0, 0]	n/a	FR1	6	R1299T
483.799	1.629	485669	WORD	n/a	wordpools/wordpool_EN.txt	STEM	9	3	[0, 0, 0]	n/a	FR1	6	R1299T
485.428	0.982	487298	WORD_OFF	n/a	n/a	STEM	9	3	[0, 0, 0]	n/a	FR1	6	R1299T
486.41	1.635	488280	WORD	n/a	wordpools/wordpool_EN.txt	FARM	10	3	[0, 0, 0]	n/a	FR1	6	R1299T
488.045	0.922	489915	WORD_OFF	n/a	n/a	FARM	10	3	[0, 0, 0]	n/a	FR1	6	R1299T
488.967	1.629	490837	WORD	n/a	wordpools/wordpool_EN.txt	SHARK	11	3	[0, 0, 0]	n/a	FR1	6	R1299T
490.596	1.121	492466	WORD_OFF	n/a	n/a	SHARK	11	3	[0, 0, 0]	n/a	FR1	6	R1299T
491.717	1.629	493587	WORD	n/a	wordpools/wordpool_EN.txt	HAT	12	3	[0, 0, 0]	n/a	FR1	6	R1299T
493.346	0.0	495215	WORD_OFF	n/a	n/a	HAT	12	3	[0, 0, 0]	n/a	FR1	6	R1299T
493.346	0.001	495215	ENCODING_END	n/a	n/a	n/a	-999	3	[0, 0, 0]	n/a	FR1	6	R1299T
493.347	0.0	495216	DISTRACT_START	n/a	n/a	n/a	-999	3	[0, 0, 0]	n/a	FR1	6	R1299T
493.347	0.015	495216	START	n/a	n/a	n/a	-999	3	[-999, -999, -999]	n/a	FR1	6	R1299T
493.362	4.485	495231	PROB	4.485	n/a	n/a	-999	3	[1, 6, 8]	15	FR1	6	R1299T
497.847	4.833	499716	PROB	4.833	n/a	n/a	-999	3	[5, 7, 8]	20	FR1	6	R1299T
502.68	3.435	504549	PROB	3.435	n/a	n/a	-999	3	[1, 8, 4]	13	FR1	6	R1299T
506.115	4.734	507984	PROB	4.734	n/a	n/a	-999	3	[6, 5, 4]	15	FR1	6	R1299T
510.849	5.783	512718	PROB	5.783	n/a	n/a	-999	3	[8, 9, 3]	20	FR1	6	R1299T
516.632	0.017	518500	STOP	n/a	n/a	n/a	-999	3	[-999, -999, -999]	n/a	FR1	6	R1299T
516.649	0.685	518517	DISTRACT_END	n/a	n/a	n/a	-999	3	[0, 0, 0]	n/a	FR1	6	R1299T
517.334	1.55	519202	RETRIEVAL_ORIENT_START	n/a	n/a	n/a	-999	3	[0, 0, 0]	n/a	FR1	6	R1299T
518.884	0.0	520752	RETRIEVAL_ORIENT_END	n/a	n/a	n/a	-999	3	[0, 0, 0]	n/a	FR1	6	R1299T
518.884	3.451	520752	REC_START	n/a	n/a	n/a	-999	3	[0, 0, 0]	n/a	FR1	6	R1299T
522.335	6.511	524203	REC_WORD	6.511	n/a	SHARK	11	3	[0, 0, 0]	n/a	FR1	6	R1299T
528.846	19.602	530714	REC_WORD_VV	19.602	n/a	<>	-999	3	[0, 0, 0]	n/a	FR1	6	R1299T
548.448	0.451	550315	REC_WORD	0.451	n/a	STEM	9	3	[0, 0, 0]	n/a	FR1	6	R1299T
548.899	0.0	550766	REC_END	n/a	n/a	n/a	-999	3	[0, 0, 0]	n/a	FR1	6	R1299T
548.899	0.014	550766	TRIAL_END	n/a	n/a	n/a	-999	3	[0, 0, 0]	n/a	FR1	6	R1299T
548.913	0.0	550780	TRIAL_START	n/a	n/a	n/a	-999	4	[0, 0, 0]	n/a	FR1	6	R1299T
548.913	0.0	550780	TRIAL	n/a	n/a	n/a	-999	4	[0, 0, 0]	n/a	FR1	6	R1299T
548.913	3.127	550780	WAITING_START	n/a	n/a	n/a	-999	4	[0, 0, 0]	n/a	FR1	6	R1299T
552.04	0.0	553907	WAITING_END	n/a	n/a	n/a	-999	4	[0, 0, 0]	n/a	FR1	6	R1299T
552.04	10.43	553907	COUNTDOWN_START	n/a	n/a	n/a	-999	4	[0, 0, 0]	n/a	FR1	6	R1299T
562.47	0.0	564336	COUNTDOWN_END	n/a	n/a	n/a	-999	4	[0, 0, 0]	n/a	FR1	6	R1299T
562.47	1.022	564336	ORIENT_START	n/a	n/a	n/a	-999	4	[0, 0, 0]	n/a	FR1	6	R1299T
563.492	0.0	565358	ENCODING_START	n/a	n/a	n/a	-999	4	[0, 0, 0]	n/a	FR1	6	R1299T
563.492	1.148	565358	ORIENT_END	n/a	n/a	n/a	-999	4	[0, 0, 0]	n/a	FR1	6	R1299T
564.64	1.636	566506	WORD	n/a	wordpools/wordpool_EN.txt	PEACH	1	4	[0, 0, 0]	n/a	FR1	6	R1299T
566.276	0.89	568142	WORD_OFF	n/a	n/a	PEACH	1	4	[0, 0, 0]	n/a	FR1	6	R1299T
567.166	1.627	569032	WORD	n/a	wordpools/wordpool_EN.txt	CAT	2	4	[0, 0, 0]	n/a	FR1	6	R1299T
568.793	0.93	570659	WORD_OFF	n/a	n/a	CAT	2	4	[0, 0, 0]	n/a	FR1	6	R1299T
569.723	1.637	571589	WORD	n/a	wordpools/wordpool_EN.txt	CHAIR	3	4	[0, 0, 0]	n/a	FR1	6	R1299T
571.36	0.797	573226	WORD_OFF	n/a	n/a	CHAIR	3	4	[0, 0, 0]	n/a	FR1	6	R1299T
572.157	1.637	574023	WORD	n/a	wordpools/wordpool_EN.txt	STICK	4	4	[0, 0, 0]	n/a	FR1	6	R1299T
573.794	0.805	575660	WORD_OFF	n/a	n/a	STICK	4	4	[0, 0, 0]	n/a	FR1	6	R1299T
574.599	1.629	576465	WORD	n/a	wordpools/wordpool_EN.txt	LAND	5	4	[0, 0, 0]	n/a	FR1	6	R1299T
576.228	1.15	578094	WORD_OFF	n/a	n/a	LAND	5	4	[0, 0, 0]	n/a	FR1	6	R1299T
577.378	1.617	579244	WORD	n/a	wordpools/wordpool_EN.txt	TRASH	6	4	[0, 0, 0]	n/a	FR1	6	R1299T
578.995	0.869	580861	WORD_OFF	n/a	n/a	TRASH	6	4	[0, 0, 0]	n/a	FR1	6	R1299T
579.864	1.631	581730	WORD	n/a	wordpools/wordpool_EN.txt	DESK	7	4	[0, 0, 0]	n/a	FR1	6	R1299T
581.495	0.957	583361	WORD_OFF	n/a	n/a	DESK	7	4	[0, 0, 0]	n/a	FR1	6	R1299T
582.452	1.627	584317	WORD	n/a	wordpools/wordpool_EN.txt	PEARL	8	4	[0, 0, 0]	n/a	FR1	6	R1299T
584.079	0.879	585944	WORD_OFF	n/a	n/a	PEARL	8	4	[0, 0, 0]	n/a	FR1	6	R1299T
584.958	1.638	586823	WORD	n/a	wordpools/wordpool_EN.txt	SWORD	9	4	[0, 0, 0]	n/a	FR1	6	R1299T
586.596	0.855	588461	WORD_OFF	n/a	n/a	SWORD	9	4	[0, 0, 0]	n/a	FR1	6	R1299T
587.451	1.629	589316	WORD	n/a	wordpools/wordpool_EN.txt	FOG	10	4	[0, 0, 0]	n/a	FR1	6	R1299T
589.08	0.932	590945	WORD_OFF	n/a	n/a	FOG	10	4	[0, 0, 0]	n/a	FR1	6	R1299T
590.012	1.635	591877	WORD	n/a	wordpools/wordpool_EN.txt	CROW	11	4	[0, 0, 0]	n/a	FR1	6	R1299T
591.647	0.818	593512	WORD_OFF	n/a	n/a	CROW	11	4	[0, 0, 0]	n/a	FR1	6	R1299T
592.465	1.633	594330	WORD	n/a	wordpools/wordpool_EN.txt	POLE	12	4	[0, 0, 0]	n/a	FR1	6	R1299T
594.098	0.0	595963	WORD_OFF	n/a	n/a	POLE	12	4	[0, 0, 0]	n/a	FR1	6	R1299T
594.098	0.001	595963	ENCODING_END	n/a	n/a	n/a	-999	4	[0, 0, 0]	n/a	FR1	6	R1299T
594.099	0.0	595964	DISTRACT_START	n/a	n/a	n/a	-999	4	[0, 0, 0]	n/a	FR1	6	R1299T
594.099	0.015	595964	START	n/a	n/a	n/a	-999	4	[-999, -999, -999]	n/a	FR1	6	R1299T
594.114	7.185	595979	PROB	7.185	n/a	n/a	-999	4	[5, 1, 8]	14	FR1	6	R1299T
601.299	5.601	603164	PROB	5.601	n/a	n/a	-999	4	[7, 1, 8]	16	FR1	6	R1299T
606.9	6.901	608764	PROB	6.901	n/a	n/a	-999	4	[8, 6, 6]	20	FR1	6	R1299T
613.801	7.451	615665	PROB	7.451	n/a	n/a	-999	4	[7, 1, 9]	17	FR1	6	R1299T
621.252	0.017	623116	STOP	n/a	n/a	n/a	-999	4	[-999, -999, -999]	n/a	FR1	6	R1299T
621.269	0.525	623133	DISTRACT_END	n/a	n/a	n/a	-999	4	[0, 0, 0]	n/a	FR1	6	R1299T
621.794	1.676	623658	RETRIEVAL_ORIENT_START	n/a	n/a	n/a	-999	4	[0, 0, 0]	n/a	FR1	6	R1299T
623.47	0.0	625334	RETRIEVAL_ORIENT_END	n/a	n/a	n/a	-999	4	[0, 0, 0]	n/a	FR1	6	R1299T
623.47	10.722	625334	REC_START	n/a	n/a	n/a	-999	4	[0, 0, 0]	n/a	FR1	6	R1299T
634.192	19.289	636055	REC_WORD	19.289	n/a	ROSE	-999	4	[0, 0, 0]	n/a	FR1	6	R1299T
653.481	0.0	655343	REC_END	n/a	n/a	n/a	-999	4	[0, 0, 0]	n/a	FR1	6	R1299T
653.481	0.014	655343	TRIAL_END	n/a	n/a	n/a	-999	4	[0, 0, 0]	n/a	FR1	6	R1299T
653.495	0.0	655357	TRIAL_START	n/a	n/a	n/a	-999	5	[0, 0, 0]	n/a	FR1	6	R1299T
653.495	0.001	655357	TRIAL	n/a	n/a	n/a	-999	5	[0, 0, 0]	n/a	FR1	6	R1299T
653.496	2.696	655358	WAITING_START	n/a	n/a	n/a	-999	5	[0, 0, 0]	n/a	FR1	6	R1299T
656.192	0.001	658054	WAITING_END	n/a	n/a	n/a	-999	5	[0, 0, 0]	n/a	FR1	6	R1299T
656.193	10.428	658055	COUNTDOWN_START	n/a	n/a	n/a	-999	5	[0, 0, 0]	n/a	FR1	6	R1299T
666.621	0.0	668483	COUNTDOWN_END	n/a	n/a	n/a	-999	5	[0, 0, 0]	n/a	FR1	6	R1299T
666.621	1.207	668483	ORIENT_START	n/a	n/a	n/a	-999	5	[0, 0, 0]	n/a	FR1	6	R1299T
667.828	0.0	669690	ORIENT_END	n/a	n/a	n/a	-999	5	[0, 0, 0]	n/a	FR1	6	R1299T
667.828	1.137	669690	ENCODING_START	n/a	n/a	n/a	-999	5	[0, 0, 0]	n/a	FR1	6	R1299T
668.965	1.63	670827	WORD	n/a	wordpools/wordpool_EN.txt	ROOM	1	5	[0, 0, 0]	n/a	FR1	6	R1299T
670.595	0.946	672457	WORD_OFF	n/a	n/a	ROOM	1	5	[0, 0, 0]	n/a	FR1	6	R1299T
671.541	1.638	673402	WORD	n/a	wordpools/wordpool_EN.txt	LAWN	2	5	[0, 0, 0]	n/a	FR1	6	R1299T
673.179	0.835	675040	WORD_OFF	n/a	n/a	LAWN	2	5	[0, 0, 0]	n/a	FR1	6	R1299T
674.014	1.632	675875	WORD	n/a	wordpools/wordpool_EN.txt	DART	3	5	[0, 0, 0]	n/a	FR1	6	R1299T
675.646	0.951	677507	WORD_OFF	n/a	n/a	DART	3	5	[0, 0, 0]	n/a	FR1	6	R1299T
676.597	1.633	678458	WORD	n/a	wordpools/wordpool_EN.txt	PEN	4	5	[0, 0, 0]	n/a	FR1	6	R1299T
678.23	0.824	680091	WORD_OFF	n/a	n/a	PEN	4	5	[0, 0, 0]	n/a	FR1	6	R1299T
679.054	1.625	680915	WORD	n/a	wordpools/wordpool_EN.txt	DITCH	5	5	[0, 0, 0]	n/a	FR1	6	R1299T
680.679	1.1	682540	WORD_OFF	n/a	n/a	DITCH	5	5	[0, 0, 0]	n/a	FR1	6	R1299T
681.779	1.635	683640	WORD	n/a	wordpools/wordpool_EN.txt	CUP	6	5	[0, 0, 0]	n/a	FR1	6	R1299T
683.414	1.108	685275	WORD_OFF	n/a	n/a	CUP	6	5	[0, 0, 0]	n/a	FR1	6	R1299T
684.522	1.626	686383	WORD	n/a	wordpools/wordpool_EN.txt	PARK	7	5	[0, 0, 0]	n/a	FR1	6	R1299T
686.148	0.75	688009	WORD_OFF	n/a	n/a	PARK	7	5	[0, 0, 0]	n/a	FR1	6	R1299T
686.898	1.633	688759	WORD	n/a	wordpools/wordpool_EN.txt	PALM	8	5	[0, 0, 0]	n/a	FR1	6	R1299T
688.531	1.097	690392	WORD_OFF	n/a	n/a	PALM	8	5	[0, 0, 0]	n/a	FR1	6	R1299T
689.628	1.637	691489	WORD	n/a	wordpools/wordpool_EN.txt	CROWN	9	5	[0, 0, 0]	n/a	FR1	6	R1299T
691.265	0.872	693126	WORD_OFF	n/a	n/a	CROWN	9	5	[0, 0, 0]	n/a	FR1	6	R1299T
692.137	1.629	693998	WORD	n/a	wordpools/wordpool_EN.txt	MAP	10	5	[0, 0, 0]	n/a	FR1	6	R1299T
693.766	0.816	695626	WORD_OFF	n/a	n/a	MAP	10	5	[0, 0, 0]	n/a	FR1	6	R1299T
694.582	1.634	696442	WORD	n/a	wordpools/wordpool_EN.txt	CLOTH	11	5	[0, 0, 0]	n/a	FR1	6	R1299T
696.216	0.819	698076	WORD_OFF	n/a	n/a	CLOTH	11	5	[0, 0, 0]	n/a	FR1	6	R1299T
697.035	1.631	698895	WORD	n/a	wordpools/wordpool_EN.txt	DOOR	12	5	[0, 0, 0]	n/a	FR1	6	R1299T
698.666	0.0	700526	WORD_OFF	n/a	n/a	DOOR	12	5	[0, 0, 0]	n/a	FR1	6	R1299T
698.666	0.0	700526	ENCODING_END	n/a	n/a	n/a	-999	5	[0, 0, 0]	n/a	FR1	6	R1299T
698.666	0.0	700526	DISTRACT_START	n/a	n/a	n/a	-999	5	[0, 0, 0]	n/a	FR1	6	R1299T
698.666	0.016	700526	START	n/a	n/a	n/a	-999	5	[-999, -999, -999]	n/a	FR1	6	R1299T
698.682	5.952	700542	PROB	5.952	n/a	n/a	-999	5	[5, 8, 7]	20	FR1	6	R1299T
704.634	4.268	706494	PROB	4.268	n/a	n/a	-999	5	[2, 1, 8]	11	FR1	6	R1299T
708.902	9.451	710762	PROB	9.451	n/a	n/a	-999	5	[5, 6, 9]	20	FR1	6	R1299T
718.353	4.262	720212	PROB	4.262	n/a	n/a	-999	5	[7, 5, 6]	18	FR1	6	R1299T
722.615	0.006	724474	STOP	n/a	n/a	n/a	-999	5	[-999, -999, -999]	n/a	FR1	6	R1299T
722.621	0.698	724480	DISTRACT_END	n/a	n/a	n/a	-999	5	[0, 0, 0]	n/a	FR1	6	R1299T
723.319	1.586	725178	RETRIEVAL_ORIENT_START	n/a	n/a	n/a	-999	5	[0, 0, 0]	n/a	FR1	6	R1299T
724.905	0.0	726764	RETRIEVAL_ORIENT_END	n/a	n/a	n/a	-999	5	[0, 0, 0]	n/a	FR1	6	R1299T
724.905	2.463	726764	REC_START	n/a	n/a	n/a	-999	5	[0, 0, 0]	n/a	FR1	6	R1299T
727.368	6.788	729227	REC_WORD	6.788	n/a	LAWN	2	5	[0, 0, 0]	n/a	FR1	6	R1299T
734.156	2.595	736015	REC_WORD	2.595	n/a	CROWN	9	5	[0, 0, 0]	n/a	FR1	6	R1299T
736.751	3.212	738610	REC_WORD	3.212	n/a	DOOR	12	5	[0, 0, 0]	n/a	FR1	6	R1299T
739.963	14.953	741821	REC_WORD	14.953	n/a	SHIRT	-999	5	[0, 0, 0]	n/a	FR1	6	R1299T
754.916	0.0	756774	REC_END	n/a	n/a	n/a	-999	5	[0, 0, 0]	n/a	FR1	6	R1299T
754.916	0.015	756774	TRIAL_END	n/a	n/a	n/a	-999	5	[0, 0, 0]	n/a	FR1	6	R1299T
754.931	0.001	756789	TRIAL_START	n/a	n/a	n/a	-999	6	[0, 0, 0]	n/a	FR1	6	R1299T
754.932	0.0	756790	TRIAL	n/a	n/a	n/a	-999	6	[0, 0, 0]	n/a	FR1	6	R1299T
754.932	4.229	756790	WAITING_START	n/a	n/a	n/a	-999	6	[0, 0, 0]	n/a	FR1	6	R1299T
759.161	0.0	761019	COUNTDOWN_START	n/a	n/a	n/a	-999	6	[0, 0, 0]	n/a	FR1	6	R1299T
759.161	10.429	761019	WAITING_END	n/a	n/a	n/a	-999	6	[0, 0, 0]	n/a	FR1	6	R1299T
769.59	0.0	771447	COUNTDOWN_END	n/a	n/a	n/a	-999	6	[0, 0, 0]	n/a	FR1	6	R1299T
769.59	1.072	771447	ORIENT_START	n/a	n/a	n/a	-999	6	[0, 0, 0]	n/a	FR1	6	R1299T
770.662	0.0	772519	ORIENT_END	n/a	n/a	n/a	-999	6	[0, 0, 0]	n/a	FR1	6	R1299T
770.662	0.84	772519	ENCODING_START	n/a	n/a	n/a	-999	6	[0, 0, 0]	n/a	FR1	6	R1299T
771.502	1.628	773359	WORD	n/a	wordpools/wordpool_EN.txt	HEART	1	6	[0, 0, 0]	n/a	FR1	6	R1299T
773.13	0.908	774987	WORD_OFF	n/a	n/a	HEART	1	6	[0, 0, 0]	n/a	FR1	6	R1299T
774.038	1.625	775895	WORD	n/a	wordpools/wordpool_EN.txt	MUD	2	6	[0, 0, 0]	n/a	FR1	6	R1299T
775.663	0.79	777520	WORD_OFF	n/a	n/a	MUD	2	6	[0, 0, 0]	n/a	FR1	6	R1299T
776.453	1.628	778310	WORD	n/a	wordpools/wordpool_EN.txt	SEED	3	6	[0, 0, 0]	n/a	FR1	6	R1299T
778.081	1.061	779938	WORD_OFF	n/a	n/a	SEED	3	6	[0, 0, 0]	n/a	FR1	6	R1299T
779.142	1.623	780999	WORD	n/a	wordpools/wordpool_EN.txt	TOOL	4	6	[0, 0, 0]	n/a	FR1	6	R1299T
780.765	0.784	782622	WORD_OFF	n/a	n/a	TOOL	4	6	[0, 0, 0]	n/a	FR1	6	R1299T
781.549	1.633	783406	WORD	n/a	wordpools/wordpool_EN.txt	BOX	5	6	[0, 0, 0]	n/a	FR1	6	R1299T
783.182	1.049	785038	WORD_OFF	n/a	n/a	BOX	5	6	[0, 0, 0]	n/a	FR1	6	R1299T
784.231	1.635	786087	WORD	n/a	wordpools/wordpool_EN.txt	JAIL	6	6	[0, 0, 0]	n/a	FR1	6	R1299T
785.866	0.884	787722	WORD_OFF	n/a	n/a	JAIL	6	6	[0, 0, 0]	n/a	FR1	6	R1299T
786.75	1.633	788606	WORD	n/a	wordpools/wordpool_EN.txt	NEST	7	6	[0, 0, 0]	n/a	FR1	6	R1299T
788.383	1.103	790239	WORD_OFF	n/a	n/a	NEST	7	6	[0, 0, 0]	n/a	FR1	6	R1299T
789.486	1.631	791342	WORD	n/a	wordpools/wordpool_EN.txt	MAZE	8	6	[0, 0, 0]	n/a	FR1	6	R1299T
791.117	0.994	792973	WORD_OFF	n/a	n/a	MAZE	8	6	[0, 0, 0]	n/a	FR1	6	R1299T
792.111	1.623	793967	WORD	n/a	wordpools/wordpool_EN.txt	COW	9	6	[0, 0, 0]	n/a	FR1	6	R1299T
793.734	1.083	795590	WORD_OFF	n/a	n/a	COW	9	6	[0, 0, 0]	n/a	FR1	6	R1299T
794.817	1.634	796673	WORD	n/a	wordpools/wordpool_EN.txt	RAT	10	6	[0, 0, 0]	n/a	FR1	6	R1299T
796.451	0.895	798307	WORD_OFF	n/a	n/a	RAT	10	6	[0, 0, 0]	n/a	FR1	6	R1299T
797.346	1.622	799202	WORD	n/a	wordpools/wordpool_EN.txt	DOCK	11	6	[0, 0, 0]	n/a	FR1	6	R1299T
798.968	0.97	800824	WORD_OFF	n/a	n/a	DOCK	11	6	[0, 0, 0]	n/a	FR1	6	R1299T
799.938	1.631	801794	WORD	n/a	wordpools/wordpool_EN.txt	ROCK	12	6	[0, 0, 0]	n/a	FR1	6	R1299T
801.569	0.0	803425	DISTRACT_START	n/a	n/a	n/a	-999	6	[0, 0, 0]	n/a	FR1	6	R1299T
801.569	0.0	803425	WORD_OFF	n/a	n/a	ROCK	12	6	[0, 0, 0]	n/a	FR1	6	R1299T
801.569	0.0	803425	ENCODING_END	n/a	n/a	n/a	-999	6	[0, 0, 0]	n/a	FR1	6	R1299T
801.569	0.016	803425	START	n/a	n/a	n/a	-999	6	[-999, -999, -999]	n/a	FR1	6	R1299T
801.585	4.251	803441	PROB	4.251	n/a	n/a	-999	6	[6, 6, 7]	19	FR1	6	R1299T
805.836	3.534	807691	PROB	3.534	n/a	n/a	-999	6	[3, 2, 2]	7	FR1	6	R1299T
809.37	3.384	811225	PROB	3.384	n/a	n/a	-999	6	[2, 3, 8]	13	FR1	6	R1299T
812.754	5.101	814609	PROB	5.101	n/a	n/a	-999	6	[5, 7, 4]	16	FR1	6	R1299T
817.855	7.629	819710	PROB	7.629	n/a	n/a	-999	6	[8, 6, 8]	22	FR1	6	R1299T
825.484	0.006	827339	STOP	n/a	n/a	n/a	-999	6	[-999, -999, -999]	n/a	FR1	6	R1299T
825.49	0.639	827345	DISTRACT_END	n/a	n/a	n/a	-999	6	[0, 0, 0]	n/a	FR1	6	R1299T
826.129	1.694	827984	RETRIEVAL_ORIENT_START	n/a	n/a	n/a	-999	6	[0, 0, 0]	n/a	FR1	6	R1299T
827.823	0.001	829677	RETRIEVAL_ORIENT_END	n/a	n/a	n/a	-999	6	[0, 0, 0]	n/a	FR1	6	R1299T
827.824	1.848	829678	REC_START	n/a	n/a	n/a	-999	6	[0, 0, 0]	n/a	FR1	6	R1299T
829.672	2.33	831526	REC_WORD	2.33	n/a	HEART	1	6	[0, 0, 0]	n/a	FR1	6	R1299T
832.002	7.627	833856	REC_WORD	7.627	n/a	MUD	2	6	[0, 0, 0]	n/a	FR1	6	R1299T
839.629	3.427	841483	REC_WORD	3.427	n/a	RAT	10	6	[0, 0, 0]	n/a	FR1	6	R1299T
843.056	11.005	844910	REC_WORD	11.005	n/a	DOCK	11	6	[0, 0, 0]	n/a	FR1	6	R1299T
854.061	3.775	855914	REC_WORD	3.775	n/a	ROCK	12	6	[0, 0, 0]	n/a	FR1	6	R1299T
857.836	0.0	859689	REC_END	n/a	n/a	n/a	-999	6	[0, 0, 0]	n/a	FR1	6	R1299T
857.836	0.016	859689	TRIAL_END	n/a	n/a	n/a	-999	6	[0, 0, 0]	n/a	FR1	6	R1299T
857.852	0.0	859705	TRIAL_START	n/a	n/a	n/a	-999	7	[0, 0, 0]	n/a	FR1	6	R1299T
857.852	0.0	859705	TRIAL	n/a	n/a	n/a	-999	7	[0, 0, 0]	n/a	FR1	6	R1299T
857.852	1.861	859705	WAITING_START	n/a	n/a	n/a	-999	7	[0, 0, 0]	n/a	FR1	6	R1299T
859.713	0.0	861566	WAITING_END	n/a	n/a	n/a	-999	7	[0, 0, 0]	n/a	FR1	6	R1299T
859.713	10.428	861566	COUNTDOWN_START	n/a	n/a	n/a	-999	7	[0, 0, 0]	n/a	FR1	6	R1299T
870.141	0.001	871994	COUNTDOWN_END	n/a	n/a	n/a	-999	7	[0, 0, 0]	n/a	FR1	6	R1299T
870.142	1.073	871995	ORIENT_START	n/a	n/a	n/a	-999	7	[0, 0, 0]	n/a	FR1	6	R1299T
871.215	0.0	873068	ORIENT_END	n/a	n/a	n/a	-999	7	[0, 0, 0]	n/a	FR1	6	R1299T
871.215	0.765	873068	ENCODING_START	n/a	n/a	n/a	-999	7	[0, 0, 0]	n/a	FR1	6	R1299T
871.98	1.635	873832	WORD	n/a	wordpools/wordpool_EN.txt	SHIP	1	7	[0, 0, 0]	n/a	FR1	6	R1299T
873.615	0.79	875467	WORD_OFF	n/a	n/a	SHIP	1	7	[0, 0, 0]	n/a	FR1	6	R1299T
874.405	1.627	876257	WORD	n/a	wordpools/wordpool_EN.txt	CAPE	2	7	[0, 0, 0]	n/a	FR1	6	R1299T
876.032	1.032	877884	WORD_OFF	n/a	n/a	CAPE	2	7	[0, 0, 0]	n/a	FR1	6	R1299T
877.064	1.635	878916	WORD	n/a	wordpools/wordpool_EN.txt	BUSH	3	7	[0, 0, 0]	n/a	FR1	6	R1299T
878.699	0.852	880551	WORD_OFF	n/a	n/a	BUSH	3	7	[0, 0, 0]	n/a	FR1	6	R1299T
879.551	1.632	881403	WORD	n/a	wordpools/wordpool_EN.txt	HAND	4	7	[0, 0, 0]	n/a	FR1	6	R1299T
881.183	0.964	883035	WORD_OFF	n/a	n/a	HAND	4	7	[0, 0, 0]	n/a	FR1	6	R1299T
882.147	1.636	883999	WORD	n/a	wordpools/wordpool_EN.txt	MOUSE	5	7	[0, 0, 0]	n/a	FR1	6	R1299T
883.783	0.956	885635	WORD_OFF	n/a	n/a	MOUSE	5	7	[0, 0, 0]	n/a	FR1	6	R1299T
884.739	1.628	886591	WORD	n/a	wordpools/wordpool_EN.txt	BOMB	6	7	[0, 0, 0]	n/a	FR1	6	R1299T
886.367	1.082	888219	WORD_OFF	n/a	n/a	BOMB	6	7	[0, 0, 0]	n/a	FR1	6	R1299T
887.449	1.636	889301	WORD	n/a	wordpools/wordpool_EN.txt	BOAT	7	7	[0, 0, 0]	n/a	FR1	6	R1299T
889.085	0.972	890937	WORD_OFF	n/a	n/a	BOAT	7	7	[0, 0, 0]	n/a	FR1	6	R1299T
890.057	1.627	891909	WORD	n/a	wordpools/wordpool_EN.txt	FLOOR	8	7	[0, 0, 0]	n/a	FR1	6	R1299T
891.684	1.036	893536	WORD_OFF	n/a	n/a	FLOOR	8	7	[0, 0, 0]	n/a	FR1	6	R1299T
892.72	1.632	894572	WORD	n/a	wordpools/wordpool_EN.txt	ROOT	9	7	[0, 0, 0]	n/a	FR1	6	R1299T
894.352	1.127	896203	WORD_OFF	n/a	n/a	ROOT	9	7	[0, 0, 0]	n/a	FR1	6	R1299T
895.479	1.624	897330	WORD	n/a	wordpools/wordpool_EN.txt	BADGE	10	7	[0, 0, 0]	n/a	FR1	6	R1299T
897.103	0.796	898954	WORD_OFF	n/a	n/a	BADGE	10	7	[0, 0, 0]	n/a	FR1	6	R1299T
897.899	1.637	899750	WORD	n/a	wordpools/wordpool_EN.txt	SNAIL	11	7	[0, 0, 0]	n/a	FR1	6	R1299T
899.536	0.956	901387	WORD_OFF	n/a	n/a	SNAIL	11	7	[0, 0, 0]	n/a	FR1	6	R1299T
900.492	1.628	902343	WORD	n/a	wordpools/wordpool_EN.txt	GEESE	12	7	[0, 0, 0]	n/a	FR1	6	R1299T
902.12	0.001	903971	WORD_OFF	n/a	n/a	GEESE	12	7	[0, 0, 0]	n/a	FR1	6	R1299T
902.121	0.0	903972	ENCODING_END	n/a	n/a	n/a	-999	7	[0, 0, 0]	n/a	FR1	6	R1299T
902.121	0.0	903972	DISTRACT_START	n/a	n/a	n/a	-999	7	[0, 0, 0]	n/a	FR1	6	R1299T
902.121	0.016	903972	START	n/a	n/a	n/a	-999	7	[-999, -999, -999]	n/a	FR1	6	R1299T
902.137	3.734	903988	PROB	3.734	n/a	n/a	-999	7	[5, 9, 7]	21	FR1	6	R1299T
905.871	1.95	907722	PROB	1.95	n/a	n/a	-999	7	[9, 1, 1]	11	FR1	6	R1299T
907.821	4.801	909672	PROB	4.801	n/a	n/a	-999	7	[8, 8, 1]	17	FR1	6	R1299T
912.622	6.134	914473	PROB	6.134	n/a	n/a	-999	7	[4, 8, 6]	18	FR1	6	R1299T
918.756	4.288	920606	PROB	4.288	n/a	n/a	-999	7	[1, 5, 1]	7	FR1	6	R1299T
923.044	0.013	924894	STOP	n/a	n/a	n/a	-999	7	[-999, -999, -999]	n/a	FR1	6	R1299T
923.057	0.54	924907	DISTRACT_END	n/a	n/a	n/a	-999	7	[0, 0, 0]	n/a	FR1	6	R1299T
923.597	1.527	925447	RETRIEVAL_ORIENT_START	n/a	n/a	n/a	-999	7	[0, 0, 0]	n/a	FR1	6	R1299T
925.124	0.001	926974	RETRIEVAL_ORIENT_END	n/a	n/a	n/a	-999	7	[0, 0, 0]	n/a	FR1	6	R1299T
925.125	6.862	926975	REC_START	n/a	n/a	n/a	-999	7	[0, 0, 0]	n/a	FR1	6	R1299T
931.987	1.0	933837	REC_WORD	1.0	n/a	FLOOR	8	7	[0, 0, 0]	n/a	FR1	6	R1299T
932.987	22.15	934837	REC_WORD_VV	22.15	n/a	<>	-999	7	[0, 0, 0]	n/a	FR1	6	R1299T
955.137	0.0	956986	TRIAL_END	n/a	n/a	n/a	-999	7	[0, 0, 0]	n/a	FR1	6	R1299T
955.137	0.014	956986	REC_END	n/a	n/a	n/a	-999	7	[0, 0, 0]	n/a	FR1	6	R1299T
955.151	0.0	957000	TRIAL_START	n/a	n/a	n/a	-999	8	[0, 0, 0]	n/a	FR1	6	R1299T
955.151	0.0	957000	TRIAL	n/a	n/a	n/a	-999	8	[0, 0, 0]	n/a	FR1	6	R1299T
955.151	4.013	957000	WAITING_START	n/a	n/a	n/a	-999	8	[0, 0, 0]	n/a	FR1	6	R1299T
959.164	0.0	961013	WAITING_END	n/a	n/a	n/a	-999	8	[0, 0, 0]	n/a	FR1	6	R1299T
959.164	10.43	961013	COUNTDOWN_START	n/a	n/a	n/a	-999	8	[0, 0, 0]	n/a	FR1	6	R1299T
969.594	0.0	971442	COUNTDOWN_END	n/a	n/a	n/a	-999	8	[0, 0, 0]	n/a	FR1	6	R1299T
969.594	1.239	971442	ORIENT_START	n/a	n/a	n/a	-999	8	[0, 0, 0]	n/a	FR1	6	R1299T
970.833	0.0	972681	ENCODING_START	n/a	n/a	n/a	-999	8	[0, 0, 0]	n/a	FR1	6	R1299T
970.833	0.92	972681	ORIENT_END	n/a	n/a	n/a	-999	8	[0, 0, 0]	n/a	FR1	6	R1299T
971.753	1.63	973601	WORD	n/a	wordpools/wordpool_EN.txt	PEAR	1	8	[0, 0, 0]	n/a	FR1	6	R1299T
973.383	0.916	975231	WORD_OFF	n/a	n/a	PEAR	1	8	[0, 0, 0]	n/a	FR1	6	R1299T
974.299	1.635	976147	WORD	n/a	wordpools/wordpool_EN.txt	HAWK	2	8	[0, 0, 0]	n/a	FR1	6	R1299T
975.934	1.004	977782	WORD_OFF	n/a	n/a	HAWK	2	8	[0, 0, 0]	n/a	FR1	6	R1299T
976.938	1.629	978786	WORD	n/a	wordpools/wordpool_EN.txt	WOLF	3	8	[0, 0, 0]	n/a	FR1	6	R1299T
978.567	0.93	980415	WORD_OFF	n/a	n/a	WOLF	3	8	[0, 0, 0]	n/a	FR1	6	R1299T
979.497	1.638	981345	WORD	n/a	wordpools/wordpool_EN.txt	POND	4	8	[0, 0, 0]	n/a	FR1	6	R1299T
981.135	1.146	982983	WORD_OFF	n/a	n/a	POND	4	8	[0, 0, 0]	n/a	FR1	6	R1299T
982.281	1.621	984129	WORD	n/a	wordpools/wordpool_EN.txt	EGG	5	8	[0, 0, 0]	n/a	FR1	6	R1299T
983.902	0.757	985749	WORD_OFF	n/a	n/a	EGG	5	8	[0, 0, 0]	n/a	FR1	6	R1299T
984.659	1.627	986506	WORD	n/a	wordpools/wordpool_EN.txt	PASTE	6	8	[0, 0, 0]	n/a	FR1	6	R1299T
986.286	1.129	988133	WORD_OFF	n/a	n/a	PASTE	6	8	[0, 0, 0]	n/a	FR1	6	R1299T
987.415	1.621	989262	WORD	n/a	wordpools/wordpool_EN.txt	KITE	7	8	[0, 0, 0]	n/a	FR1	6	R1299T
989.036	0.754	990883	WORD_OFF	n/a	n/a	KITE	7	8	[0, 0, 0]	n/a	FR1	6	R1299T
989.79	1.63	991637	WORD	n/a	wordpools/wordpool_EN.txt	SEA	8	8	[0, 0, 0]	n/a	FR1	6	R1299T
991.42	0.761	993267	WORD_OFF	n/a	n/a	SEA	8	8	[0, 0, 0]	n/a	FR1	6	R1299T
992.181	1.623	994028	WORD	n/a	wordpools/wordpool_EN.txt	BRANCH	9	8	[0, 0, 0]	n/a	FR1	6	R1299T
993.804	0.961	995651	WORD_OFF	n/a	n/a	BRANCH	9	8	[0, 0, 0]	n/a	FR1	6	R1299T
994.765	1.622	996612	WORD	n/a	wordpools/wordpool_EN.txt	CUBE	10	8	[0, 0, 0]	n/a	FR1	6	R1299T
996.387	0.944	998234	WORD_OFF	n/a	n/a	CUBE	10	8	[0, 0, 0]	n/a	FR1	6	R1299T
997.331	1.624	999178	WORD	n/a	wordpools/wordpool_EN.txt	HORSE	11	8	[0, 0, 0]	n/a	FR1	6	R1299T
998.955	0.817	1000802	WORD_OFF	n/a	n/a	HORSE	11	8	[0, 0, 0]	n/a	FR1	6	R1299T
999.772	1.633	1001619	WORD	n/a	wordpools/wordpool_EN.txt	LEG	12	8	[0, 0, 0]	n/a	FR1	6	R1299T
1001.405	0.0	1003252	WORD_OFF	n/a	n/a	LEG	12	8	[0, 0, 0]	n/a	FR1	6	R1299T
1001.405	0.001	1003252	ENCODING_END	n/a	n/a	n/a	-999	8	[0, 0, 0]	n/a	FR1	6	R1299T
1001.406	0.0	1003253	DISTRACT_START	n/a	n/a	n/a	-999	8	[0, 0, 0]	n/a	FR1	6	R1299T
1001.406	0.015	1003253	START	n/a	n/a	n/a	-999	8	[-999, -999, -999]	n/a	FR1	6	R1299T
1001.421	3.501	1003268	PROB	3.501	n/a	n/a	-999	8	[3, 7, 1]	11	FR1	6	R1299T
1004.922	4.918	1006769	PROB	4.918	n/a	n/a	-999	8	[6, 5, 3]	14	FR1	6	R1299T
1009.84	5.634	1011686	PROB	5.634	n/a	n/a	-999	8	[2, 3, 6]	11	FR1	6	R1299T
1015.474	3.151	1017320	PROB	3.151	n/a	n/a	-999	8	[6, 3, 5]	14	FR1	6	R1299T
1018.625	4.86	1020471	PROB	4.86	n/a	n/a	-999	8	[8, 4, 2]	14	FR1	6	R1299T
1023.485	0.007	1025331	STOP	n/a	n/a	n/a	-999	8	[-999, -999, -999]	n/a	FR1	6	R1299T
1023.492	0.505	1025338	DISTRACT_END	n/a	n/a	n/a	-999	8	[0, 0, 0]	n/a	FR1	6	R1299T
1023.997	1.562	1025843	RETRIEVAL_ORIENT_START	n/a	n/a	n/a	-999	8	[0, 0, 0]	n/a	FR1	6	R1299T
1025.559	0.001	1027405	RETRIEVAL_ORIENT_END	n/a	n/a	n/a	-999	8	[0, 0, 0]	n/a	FR1	6	R1299T
1025.56	2.829	1027406	REC_START	n/a	n/a	n/a	-999	8	[0, 0, 0]	n/a	FR1	6	R1299T
1028.389	4.35	1030234	REC_WORD	4.35	n/a	HEART	-999	8	[0, 0, 0]	n/a	FR1	6	R1299T
1032.739	22.833	1034584	REC_WORD	22.833	n/a	WOLF	3	8	[0, 0, 0]	n/a	FR1	6	R1299T
1055.572	0.001	1057416	REC_END	n/a	n/a	n/a	-999	8	[0, 0, 0]	n/a	FR1	6	R1299T
1055.573	0.013	1057417	TRIAL_END	n/a	n/a	n/a	-999	8	[0, 0, 0]	n/a	FR1	6	R1299T
1055.586	0.0	1057430	TRIAL	n/a	n/a	n/a	-999	9	[0, 0, 0]	n/a	FR1	6	R1299T
1055.586	0.001	1057430	TRIAL_START	n/a	n/a	n/a	-999	9	[0, 0, 0]	n/a	FR1	6	R1299T
1055.587	2.828	1057431	WAITING_START	n/a	n/a	n/a	-999	9	[0, 0, 0]	n/a	FR1	6	R1299T
1058.415	0.001	1060259	WAITING_END	n/a	n/a	n/a	-999	9	[0, 0, 0]	n/a	FR1	6	R1299T
1058.416	10.429	1060260	COUNTDOWN_START	n/a	n/a	n/a	-999	9	[0, 0, 0]	n/a	FR1	6	R1299T
1068.845	0.001	1070689	COUNTDOWN_END	n/a	n/a	n/a	-999	9	[0, 0, 0]	n/a	FR1	6	R1299T
1068.846	1.105	1070690	ORIENT_START	n/a	n/a	n/a	-999	9	[0, 0, 0]	n/a	FR1	6	R1299T
1069.951	0.0	1071795	ENCODING_START	n/a	n/a	n/a	-999	9	[0, 0, 0]	n/a	FR1	6	R1299T
1069.951	1.119	1071795	ORIENT_END	n/a	n/a	n/a	-999	9	[0, 0, 0]	n/a	FR1	6	R1299T
1071.07	1.631	1072914	WORD	n/a	wordpools/wordpool_EN.txt	STOOL	1	9	[0, 0, 0]	n/a	FR1	6	R1299T
1072.701	0.967	1074544	WORD_OFF	n/a	n/a	STOOL	1	9	[0, 0, 0]	n/a	FR1	6	R1299T
1073.668	1.634	1075511	WORD	n/a	wordpools/wordpool_EN.txt	PIPE	2	9	[0, 0, 0]	n/a	FR1	6	R1299T
1075.302	0.988	1077145	WORD_OFF	n/a	n/a	PIPE	2	9	[0, 0, 0]	n/a	FR1	6	R1299T
1076.29	1.629	1078133	WORD	n/a	wordpools/wordpool_EN.txt	SKI	3	9	[0, 0, 0]	n/a	FR1	6	R1299T
1077.919	1.131	1079762	WORD_OFF	n/a	n/a	SKI	3	9	[0, 0, 0]	n/a	FR1	6	R1299T
1079.05	1.635	1080893	WORD	n/a	wordpools/wordpool_EN.txt	PEA	4	9	[0, 0, 0]	n/a	FR1	6	R1299T
1080.685	0.978	1082528	WORD_OFF	n/a	n/a	PEA	4	9	[0, 0, 0]	n/a	FR1	6	R1299T
1081.663	1.607	1083506	WORD	n/a	wordpools/wordpool_EN.txt	COUCH	5	9	[0, 0, 0]	n/a	FR1	6	R1299T
1083.27	0.905	1085113	WORD_OFF	n/a	n/a	COUCH	5	9	[0, 0, 0]	n/a	FR1	6	R1299T
1084.175	1.612	1086018	WORD	n/a	wordpools/wordpool_EN.txt	BAT	6	9	[0, 0, 0]	n/a	FR1	6	R1299T
1085.787	1.068	1087630	WORD_OFF	n/a	n/a	BAT	6	9	[0, 0, 0]	n/a	FR1	6	R1299T
1086.855	1.632	1088698	WORD	n/a	wordpools/wordpool_EN.txt	TEA	7	9	[0, 0, 0]	n/a	FR1	6	R1299T
1088.487	0.775	1090330	WORD_OFF	n/a	n/a	TEA	7	9	[0, 0, 0]	n/a	FR1	6	R1299T
1089.262	1.626	1091105	WORD	n/a	wordpools/wordpool_EN.txt	JUDGE	8	9	[0, 0, 0]	n/a	FR1	6	R1299T
1090.888	1.041	1092731	WORD_OFF	n/a	n/a	JUDGE	8	9	[0, 0, 0]	n/a	FR1	6	R1299T
1091.929	1.626	1093772	WORD	n/a	wordpools/wordpool_EN.txt	SOUP	9	9	[0, 0, 0]	n/a	FR1	6	R1299T
1093.555	1.131	1095398	WORD_OFF	n/a	n/a	SOUP	9	9	[0, 0, 0]	n/a	FR1	6	R1299T
1094.686	1.636	1096528	WORD	n/a	wordpools/wordpool_EN.txt	BOY	10	9	[0, 0, 0]	n/a	FR1	6	R1299T
1096.322	0.988	1098164	WORD_OFF	n/a	n/a	BOY	10	9	[0, 0, 0]	n/a	FR1	6	R1299T
1097.31	1.629	1099152	WORD	n/a	wordpools/wordpool_EN.txt	HILL	11	9	[0, 0, 0]	n/a	FR1	6	R1299T
1098.939	0.847	1100781	WORD_OFF	n/a	n/a	HILL	11	9	[0, 0, 0]	n/a	FR1	6	R1299T
1099.786	1.637	1101628	WORD	n/a	wordpools/wordpool_EN.txt	NAIL	12	9	[0, 0, 0]	n/a	FR1	6	R1299T
1101.423	0.0	1103265	WORD_OFF	n/a	n/a	NAIL	12	9	[0, 0, 0]	n/a	FR1	6	R1299T
1101.423	0.001	1103265	ENCODING_END	n/a	n/a	n/a	-999	9	[0, 0, 0]	n/a	FR1	6	R1299T
1101.424	0.0	1103266	DISTRACT_START	n/a	n/a	n/a	-999	9	[0, 0, 0]	n/a	FR1	6	R1299T
1101.424	0.016	1103266	START	n/a	n/a	n/a	-999	9	[-999, -999, -999]	n/a	FR1	6	R1299T
1101.44	9.051	1103282	PROB	9.051	n/a	n/a	-999	9	[3, 4, 9]	16	FR1	6	R1299T
1110.491	3.267	1112333	PROB	3.267	n/a	n/a	-999	9	[8, 8, 2]	18	FR1	6	R1299T
1113.758	3.185	1115600	PROB	3.185	n/a	n/a	-999	9	[2, 8, 5]	15	FR1	6	R1299T
1116.943	5.295	1118784	PROB	5.295	n/a	n/a	-999	9	[9, 7, 8]	23	FR1	6	R1299T
1122.238	0.022	1124079	STOP	n/a	n/a	n/a	-999	9	[-999, -999, -999]	n/a	FR1	6	R1299T
1122.26	0.628	1124101	DISTRACT_END	n/a	n/a	n/a	-999	9	[0, 0, 0]	n/a	FR1	6	R1299T
1122.888	1.589	1124729	RETRIEVAL_ORIENT_START	n/a	n/a	n/a	-999	9	[0, 0, 0]	n/a	FR1	6	R1299T
1124.477	0.001	1126318	RETRIEVAL_ORIENT_END	n/a	n/a	n/a	-999	9	[0, 0, 0]	n/a	FR1	6	R1299T
1124.478	3.075	1126319	REC_START	n/a	n/a	n/a	-999	9	[0, 0, 0]	n/a	FR1	6	R1299T
1127.553	0.306	1129394	REC_WORD_VV	0.306	n/a	<>	-999	9	[0, 0, 0]	n/a	FR1	6	R1299T
1127.859	4.742	1129700	REC_WORD	4.742	n/a	JUDGE	8	9	[0, 0, 0]	n/a	FR1	6	R1299T
1132.601	2.677	1134442	REC_WORD_VV	2.677	n/a	<>	-999	9	[0, 0, 0]	n/a	FR1	6	R1299T
1135.278	5.337	1137119	REC_WORD	5.337	n/a	BOY	10	9	[0, 0, 0]	n/a	FR1	6	R1299T
1140.615	1.0	1142455	REC_WORD	1.0	n/a	SEA	-999	9	[0, 0, 0]	n/a	FR1	6	R1299T
1141.615	1.0	1143455	REC_WORD_VV	1.0	n/a	<>	-999	9	[0, 0, 0]	n/a	FR1	6	R1299T
1142.615	11.875	1144455	REC_WORD_VV	11.875	n/a	<>	-999	9	[0, 0, 0]	n/a	FR1	6	R1299T
1154.49	0.0	1156330	TRIAL_END	n/a	n/a	n/a	-999	9	[0, 0, 0]	n/a	FR1	6	R1299T
1154.49	0.016	1156330	REC_END	n/a	n/a	n/a	-999	9	[0, 0, 0]	n/a	FR1	6	R1299T
1154.506	0.0	1156346	TRIAL_START	n/a	n/a	n/a	-999	10	[0, 0, 0]	n/a	FR1	6	R1299T
1154.506	0.0	1156346	TRIAL	n/a	n/a	n/a	-999	10	[0, 0, 0]	n/a	FR1	6	R1299T
1154.506	3.027	1156346	WAITING_START	n/a	n/a	n/a	-999	10	[0, 0, 0]	n/a	FR1	6	R1299T
1157.533	0.001	1159373	WAITING_END	n/a	n/a	n/a	-999	10	[0, 0, 0]	n/a	FR1	6	R1299T
1157.534	10.428	1159374	COUNTDOWN_START	n/a	n/a	n/a	-999	10	[0, 0, 0]	n/a	FR1	6	R1299T
1167.962	0.0	1169801	COUNTDOWN_END	n/a	n/a	n/a	-999	10	[0, 0, 0]	n/a	FR1	6	R1299T
1167.962	1.09	1169801	ORIENT_START	n/a	n/a	n/a	-999	10	[0, 0, 0]	n/a	FR1	6	R1299T
1169.052	0.001	1170891	ORIENT_END	n/a	n/a	n/a	-999	10	[0, 0, 0]	n/a	FR1	6	R1299T
1169.053	1.061	1170892	ENCODING_START	n/a	n/a	n/a	-999	10	[0, 0, 0]	n/a	FR1	6	R1299T
1170.114	1.622	1171953	WORD	n/a	wordpools/wordpool_EN.txt	STOVE	1	10	[0, 0, 0]	n/a	FR1	6	R1299T
1171.736	1.029	1173575	WORD_OFF	n/a	n/a	STOVE	1	10	[0, 0, 0]	n/a	FR1	6	R1299T
1172.765	1.621	1174604	WORD	n/a	wordpools/wordpool_EN.txt	PIE	2	10	[0, 0, 0]	n/a	FR1	6	R1299T
1174.386	1.143	1176225	WORD_OFF	n/a	n/a	PIE	2	10	[0, 0, 0]	n/a	FR1	6	R1299T
1175.529	1.625	1177368	WORD	n/a	wordpools/wordpool_EN.txt	STONE	3	10	[0, 0, 0]	n/a	FR1	6	R1299T
1177.154	0.949	1178993	WORD_OFF	n/a	n/a	STONE	3	10	[0, 0, 0]	n/a	FR1	6	R1299T
1178.103	1.634	1179942	WORD	n/a	wordpools/wordpool_EN.txt	CALF	4	10	[0, 0, 0]	n/a	FR1	6	R1299T
1179.737	0.825	1181576	WORD_OFF	n/a	n/a	CALF	4	10	[0, 0, 0]	n/a	FR1	6	R1299T
1180.562	1.626	1182401	WORD	n/a	wordpools/wordpool_EN.txt	CRANE	5	10	[0, 0, 0]	n/a	FR1	6	R1299T
1182.188	0.927	1184027	WORD_OFF	n/a	n/a	CRANE	5	10	[0, 0, 0]	n/a	FR1	6	R1299T
1183.115	1.623	1184953	WORD	n/a	wordpools/wordpool_EN.txt	JET	6	10	[0, 0, 0]	n/a	FR1	6	R1299T
1184.738	0.968	1186576	WORD_OFF	n/a	n/a	JET	6	10	[0, 0, 0]	n/a	FR1	6	R1299T
1185.706	1.633	1187544	WORD	n/a	wordpools/wordpool_EN.txt	SMILE	7	10	[0, 0, 0]	n/a	FR1	6	R1299T
1187.339	0.854	1189177	WORD_OFF	n/a	n/a	SMILE	7	10	[0, 0, 0]	n/a	FR1	6	R1299T
1188.193	1.63	1190031	WORD	n/a	wordpools/wordpool_EN.txt	WEB	8	10	[0, 0, 0]	n/a	FR1	6	R1299T
1189.823	0.773	1191661	WORD_OFF	n/a	n/a	WEB	8	10	[0, 0, 0]	n/a	FR1	6	R1299T
1190.596	1.627	1192434	WORD	n/a	wordpools/wordpool_EN.txt	BANK	9	10	[0, 0, 0]	n/a	FR1	6	R1299T
1192.223	0.851	1194061	WORD_OFF	n/a	n/a	BANK	9	10	[0, 0, 0]	n/a	FR1	6	R1299T
1193.074	1.633	1194912	WORD	n/a	wordpools/wordpool_EN.txt	WHEEL	10	10	[0, 0, 0]	n/a	FR1	6	R1299T
1194.707	1.111	1196545	WORD_OFF	n/a	n/a	WHEEL	10	10	[0, 0, 0]	n/a	FR1	6	R1299T
1195.818	1.623	1197656	WORD	n/a	wordpools/wordpool_EN.txt	WING	11	10	[0, 0, 0]	n/a	FR1	6	R1299T
1197.441	0.974	1199279	WORD_OFF	n/a	n/a	WING	11	10	[0, 0, 0]	n/a	FR1	6	R1299T
1198.415	1.626	1200253	WORD	n/a	wordpools/wordpool_EN.txt	BEAN	12	10	[0, 0, 0]	n/a	FR1	6	R1299T
1200.041	0.001	1201879	WORD_OFF	n/a	n/a	BEAN	12	10	[0, 0, 0]	n/a	FR1	6	R1299T
1200.042	0.0	1201880	DISTRACT_START	n/a	n/a	n/a	-999	10	[0, 0, 0]	n/a	FR1	6	R1299T
1200.042	0.0	1201880	ENCODING_END	n/a	n/a	n/a	-999	10	[0, 0, 0]	n/a	FR1	6	R1299T
1200.042	0.016	1201880	START	n/a	n/a	n/a	-999	10	[-999, -999, -999]	n/a	FR1	6	R1299T
1200.058	4.4	1201896	PROB	4.4	n/a	n/a	-999	10	[2, 3, 4]	9	FR1	6	R1299T
1204.458	7.002	1206296	PROB	7.002	n/a	n/a	-999	10	[5, 8, 6]	18	FR1	6	R1299T
1211.46	4.717	1213297	PROB	4.717	n/a	n/a	-999	10	[6, 1, 5]	12	FR1	6	R1299T
1216.177	4.317	1218014	PROB	4.317	n/a	n/a	-999	10	[5, 2, 5]	12	FR1	6	R1299T
1220.494	0.017	1222331	STOP	n/a	n/a	n/a	-999	10	[-999, -999, -999]	n/a	FR1	6	R1299T
1220.511	0.667	1222348	DISTRACT_END	n/a	n/a	n/a	-999	10	[0, 0, 0]	n/a	FR1	6	R1299T
1221.178	1.667	1223015	RETRIEVAL_ORIENT_START	n/a	n/a	n/a	-999	10	[0, 0, 0]	n/a	FR1	6	R1299T
1222.845	0.001	1224682	RETRIEVAL_ORIENT_END	n/a	n/a	n/a	-999	10	[0, 0, 0]	n/a	FR1	6	R1299T
1222.846	1.888	1224683	REC_START	n/a	n/a	n/a	-999	10	[0, 0, 0]	n/a	FR1	6	R1299T
1224.734	10.928	1226571	REC_WORD	10.928	n/a	SMILE	7	10	[0, 0, 0]	n/a	FR1	6	R1299T
1235.662	17.196	1237498	REC_WORD	17.196	n/a	BEAN	12	10	[0, 0, 0]	n/a	FR1	6	R1299T
1252.858	0.0	1254693	REC_END	n/a	n/a	n/a	-999	10	[0, 0, 0]	n/a	FR1	6	R1299T
1252.858	0.014	1254693	TRIAL_END	n/a	n/a	n/a	-999	10	[0, 0, 0]	n/a	FR1	6	R1299T
1252.872	0.0	1254707	TRIAL_START	n/a	n/a	n/a	-999	11	[0, 0, 0]	n/a	FR1	6	R1299T
1252.872	0.0	1254707	TRIAL	n/a	n/a	n/a	-999	11	[0, 0, 0]	n/a	FR1	6	R1299T
1252.872	3.896	1254707	WAITING_START	n/a	n/a	n/a	-999	11	[0, 0, 0]	n/a	FR1	6	R1299T
1256.768	0.0	1258603	WAITING_END	n/a	n/a	n/a	-999	11	[0, 0, 0]	n/a	FR1	6	R1299T
1256.768	10.429	1258603	COUNTDOWN_START	n/a	n/a	n/a	-999	11	[0, 0, 0]	n/a	FR1	6	R1299T
1267.197	0.001	1269032	COUNTDOWN_END	n/a	n/a	n/a	-999	11	[0, 0, 0]	n/a	FR1	6	R1299T
1267.198	1.156	1269033	ORIENT_START	n/a	n/a	n/a	-999	11	[0, 0, 0]	n/a	FR1	6	R1299T
1268.354	0.0	1270189	ENCODING_START	n/a	n/a	n/a	-999	11	[0, 0, 0]	n/a	FR1	6	R1299T
1268.354	1.114	1270189	ORIENT_END	n/a	n/a	n/a	-999	11	[0, 0, 0]	n/a	FR1	6	R1299T
1269.468	1.636	1271303	WORD	n/a	wordpools/wordpool_EN.txt	NOSE	1	11	[0, 0, 0]	n/a	FR1	6	R1299T
1271.104	0.858	1272939	WORD_OFF	n/a	n/a	NOSE	1	11	[0, 0, 0]	n/a	FR1	6	R1299T
1271.962	1.626	1273796	WORD	n/a	wordpools/wordpool_EN.txt	CAGE	2	11	[0, 0, 0]	n/a	FR1	6	R1299T
1273.588	0.811	1275422	WORD_OFF	n/a	n/a	CAGE	2	11	[0, 0, 0]	n/a	FR1	6	R1299T
1274.399	1.623	1276233	WORD	n/a	wordpools/wordpool_EN.txt	DIME	3	11	[0, 0, 0]	n/a	FR1	6	R1299T
1276.022	1.068	1277856	WORD_OFF	n/a	n/a	DIME	3	11	[0, 0, 0]	n/a	FR1	6	R1299T
1277.09	1.632	1278924	WORD	n/a	wordpools/wordpool_EN.txt	INK	4	11	[0, 0, 0]	n/a	FR1	6	R1299T
1278.722	0.932	1280556	WORD_OFF	n/a	n/a	INK	4	11	[0, 0, 0]	n/a	FR1	6	R1299T
1279.654	1.635	1281488	WORD	n/a	wordpools/wordpool_EN.txt	MOOSE	5	11	[0, 0, 0]	n/a	FR1	6	R1299T
1281.289	1.029	1283123	WORD_OFF	n/a	n/a	MOOSE	5	11	[0, 0, 0]	n/a	FR1	6	R1299T
1282.318	1.622	1284152	WORD	n/a	wordpools/wordpool_EN.txt	PLANE	6	11	[0, 0, 0]	n/a	FR1	6	R1299T
1283.94	0.795	1285774	WORD_OFF	n/a	n/a	PLANE	6	11	[0, 0, 0]	n/a	FR1	6	R1299T
1284.735	1.622	1286569	WORD	n/a	wordpools/wordpool_EN.txt	BEAR	7	11	[0, 0, 0]	n/a	FR1	6	R1299T
1286.357	1.11	1288191	WORD_OFF	n/a	n/a	BEAR	7	11	[0, 0, 0]	n/a	FR1	6	R1299T
1287.467	1.624	1289301	WORD	n/a	wordpools/wordpool_EN.txt	VAN	8	11	[0, 0, 0]	n/a	FR1	6	R1299T
1289.091	0.776	1290925	WORD_OFF	n/a	n/a	VAN	8	11	[0, 0, 0]	n/a	FR1	6	R1299T
1289.867	1.624	1291701	WORD	n/a	wordpools/wordpool_EN.txt	CLOWN	9	11	[0, 0, 0]	n/a	FR1	6	R1299T
1291.491	1.062	1293325	WORD_OFF	n/a	n/a	CLOWN	9	11	[0, 0, 0]	n/a	FR1	6	R1299T
1292.553	1.622	1294387	WORD	n/a	wordpools/wordpool_EN.txt	BIRD	10	11	[0, 0, 0]	n/a	FR1	6	R1299T
1294.175	0.915	1296008	WORD_OFF	n/a	n/a	BIRD	10	11	[0, 0, 0]	n/a	FR1	6	R1299T
1295.09	1.635	1296923	WORD	n/a	wordpools/wordpool_EN.txt	STAR	11	11	[0, 0, 0]	n/a	FR1	6	R1299T
1296.725	0.8	1298558	WORD_OFF	n/a	n/a	STAR	11	11	[0, 0, 0]	n/a	FR1	6	R1299T
1297.525	1.634	1299358	WORD	n/a	wordpools/wordpool_EN.txt	STREET	12	11	[0, 0, 0]	n/a	FR1	6	R1299T
1299.159	0.001	1300992	WORD_OFF	n/a	n/a	STREET	12	11	[0, 0, 0]	n/a	FR1	6	R1299T
1299.16	0.0	1300993	ENCODING_END	n/a	n/a	n/a	-999	11	[0, 0, 0]	n/a	FR1	6	R1299T
1299.16	0.0	1300993	DISTRACT_START	n/a	n/a	n/a	-999	11	[0, 0, 0]	n/a	FR1	6	R1299T
1299.16	0.016	1300993	START	n/a	n/a	n/a	-999	11	[-999, -999, -999]	n/a	FR1	6	R1299T
1299.176	3.767	1301009	PROB	3.767	n/a	n/a	-999	11	[9, 3, 2]	14	FR1	6	R1299T
1302.943	5.701	1304776	PROB	5.701	n/a	n/a	-999	11	[5, 9, 2]	16	FR1	6	R1299T
1308.644	9.402	1310477	PROB	9.402	n/a	n/a	-999	11	[8, 7, 8]	23	FR1	6	R1299T
1318.046	4.976	1319878	PROB	4.976	n/a	n/a	-999	11	[1, 4, 9]	14	FR1	6	R1299T
1323.022	0.008	1324854	STOP	n/a	n/a	n/a	-999	11	[-999, -999, -999]	n/a	FR1	6	R1299T
1323.03	0.692	1324862	DISTRACT_END	n/a	n/a	n/a	-999	11	[0, 0, 0]	n/a	FR1	6	R1299T
1323.722	1.609	1325554	RETRIEVAL_ORIENT_START	n/a	n/a	n/a	-999	11	[0, 0, 0]	n/a	FR1	6	R1299T
1325.331	0.0	1327163	REC_START	n/a	n/a	n/a	-999	11	[0, 0, 0]	n/a	FR1	6	R1299T
1325.331	12.674	1327163	RETRIEVAL_ORIENT_END	n/a	n/a	n/a	-999	11	[0, 0, 0]	n/a	FR1	6	R1299T
1338.005	2.935	1339837	REC_WORD	2.935	n/a	INK	4	11	[0, 0, 0]	n/a	FR1	6	R1299T
1340.94	3.891	1342771	REC_WORD	3.891	n/a	MOOSE	5	11	[0, 0, 0]	n/a	FR1	6	R1299T
1344.831	10.513	1346662	REC_WORD	10.513	n/a	BEAM	-999	11	[0, 0, 0]	n/a	FR1	6	R1299T
1355.344	0.0	1357175	REC_END	n/a	n/a	n/a	-999	11	[0, 0, 0]	n/a	FR1	6	R1299T
1355.344	0.014	1357175	TRIAL_END	n/a	n/a	n/a	-999	11	[0, 0, 0]	n/a	FR1	6	R1299T
1355.358	0.0	1357189	TRIAL_START	n/a	n/a	n/a	-999	12	[0, 0, 0]	n/a	FR1	6	R1299T
1355.358	0.0	1357189	TRIAL	n/a	n/a	n/a	-999	12	[0, 0, 0]	n/a	FR1	6	R1299T
1355.358	5.562	1357189	WAITING_START	n/a	n/a	n/a	-999	12	[0, 0, 0]	n/a	FR1	6	R1299T
1360.92	0.001	1362750	WAITING_END	n/a	n/a	n/a	-999	12	[0, 0, 0]	n/a	FR1	6	R1299T
1360.921	10.429	1362751	COUNTDOWN_START	n/a	n/a	n/a	-999	12	[0, 0, 0]	n/a	FR1	6	R1299T
1371.35	0.0	1373180	COUNTDOWN_END	n/a	n/a	n/a	-999	12	[0, 0, 0]	n/a	FR1	6	R1299T
1371.35	1.156	1373180	ORIENT_START	n/a	n/a	n/a	-999	12	[0, 0, 0]	n/a	FR1	6	R1299T
1372.506	0.0	1374336	ORIENT_END	n/a	n/a	n/a	-999	12	[0, 0, 0]	n/a	FR1	6	R1299T
1372.506	0.9	1374336	ENCODING_START	n/a	n/a	n/a	-999	12	[0, 0, 0]	n/a	FR1	6	R1299T
1373.406	1.634	1375236	WORD	n/a	wordpools/wordpool_EN.txt	ICE	1	12	[0, 0, 0]	n/a	FR1	6	R1299T
1375.04	0.815	1376870	WORD_OFF	n/a	n/a	ICE	1	12	[0, 0, 0]	n/a	FR1	6	R1299T
1375.855	1.635	1377685	WORD	n/a	wordpools/wordpool_EN.txt	OAR	2	12	[0, 0, 0]	n/a	FR1	6	R1299T
1377.49	1.009	1379320	WORD_OFF	n/a	n/a	OAR	2	12	[0, 0, 0]	n/a	FR1	6	R1299T
1378.499	1.625	1380329	WORD	n/a	wordpools/wordpool_EN.txt	FOX	3	12	[0, 0, 0]	n/a	FR1	6	R1299T
1380.124	0.976	1381954	WORD_OFF	n/a	n/a	FOX	3	12	[0, 0, 0]	n/a	FR1	6	R1299T
1381.1	1.624	1382930	WORD	n/a	wordpools/wordpool_EN.txt	FORK	4	12	[0, 0, 0]	n/a	FR1	6	R1299T
1382.724	0.801	1384554	WORD_OFF	n/a	n/a	FORK	4	12	[0, 0, 0]	n/a	FR1	6	R1299T
1383.525	1.633	1385354	WORD	n/a	wordpools/wordpool_EN.txt	BOOK	5	12	[0, 0, 0]	n/a	FR1	6	R1299T
1385.158	1.038	1386987	WORD_OFF	n/a	n/a	BOOK	5	12	[0, 0, 0]	n/a	FR1	6	R1299T
1386.196	1.629	1388025	WORD	n/a	wordpools/wordpool_EN.txt	SINK	6	12	[0, 0, 0]	n/a	FR1	6	R1299T
1387.825	1.096	1389654	WORD_OFF	n/a	n/a	SINK	6	12	[0, 0, 0]	n/a	FR1	6	R1299T
1388.921	1.638	1390750	WORD	n/a	wordpools/wordpool_EN.txt	SLUSH	7	12	[0, 0, 0]	n/a	FR1	6	R1299T
1390.559	0.869	1392388	WORD_OFF	n/a	n/a	SLUSH	7	12	[0, 0, 0]	n/a	FR1	6	R1299T
1391.428	1.631	1393257	WORD	n/a	wordpools/wordpool_EN.txt	PLANT	8	12	[0, 0, 0]	n/a	FR1	6	R1299T
1393.059	1.148	1394888	WORD_OFF	n/a	n/a	PLANT	8	12	[0, 0, 0]	n/a	FR1	6	R1299T
1394.207	1.636	1396036	WORD	n/a	wordpools/wordpool_EN.txt	BEE	9	12	[0, 0, 0]	n/a	FR1	6	R1299T
1395.843	0.896	1397672	WORD_OFF	n/a	n/a	BEE	9	12	[0, 0, 0]	n/a	FR1	6	R1299T
1396.739	1.621	1398568	WORD	n/a	wordpools/wordpool_EN.txt	TOY	10	12	[0, 0, 0]	n/a	FR1	6	R1299T
1398.36	0.779	1400189	WORD_OFF	n/a	n/a	TOY	10	12	[0, 0, 0]	n/a	FR1	6	R1299T
1399.139	1.622	1400968	WORD	n/a	wordpools/wordpool_EN.txt	SPRING	11	12	[0, 0, 0]	n/a	FR1	6	R1299T
1400.761	0.887	1402590	WORD_OFF	n/a	n/a	SPRING	11	12	[0, 0, 0]	n/a	FR1	6	R1299T
1401.648	1.63	1403477	WORD	n/a	wordpools/wordpool_EN.txt	GATE	12	12	[0, 0, 0]	n/a	FR1	6	R1299T
1403.278	0.0	1405107	WORD_OFF	n/a	n/a	GATE	12	12	[0, 0, 0]	n/a	FR1	6	R1299T
1403.278	0.001	1405107	ENCODING_END	n/a	n/a	n/a	-999	12	[0, 0, 0]	n/a	FR1	6	R1299T
1403.279	0.0	1405108	DISTRACT_START	n/a	n/a	n/a	-999	12	[0, 0, 0]	n/a	FR1	6	R1299T
1403.279	0.015	1405108	START	n/a	n/a	n/a	-999	12	[-999, -999, -999]	n/a	FR1	6	R1299T
1403.294	5.501	1405123	PROB	5.501	n/a	n/a	-999	12	[4, 5, 7]	16	FR1	6	R1299T
1408.795	5.752	1410623	PROB	5.752	n/a	n/a	-999	12	[7, 8, 6]	22	FR1	6	R1299T
1414.547	6.067	1416375	PROB	6.067	n/a	n/a	-999	12	[2, 1, 3]	6	FR1	6	R1299T
1420.614	5.773	1422442	PROB	5.773	n/a	n/a	-999	12	[1, 5, 4]	10	FR1	6	R1299T
1426.387	0.012	1428215	STOP	n/a	n/a	n/a	-999	12	[-999, -999, -999]	n/a	FR1	6	R1299T
1426.399	0.591	1428227	DISTRACT_END	n/a	n/a	n/a	-999	12	[0, 0, 0]	n/a	FR1	6	R1299T
1426.99	1.526	1428818	RETRIEVAL_ORIENT_START	n/a	n/a	n/a	-999	12	[0, 0, 0]	n/a	FR1	6	R1299T
1428.516	0.0	1430343	RETRIEVAL_ORIENT_END	n/a	n/a	n/a	-999	12	[0, 0, 0]	n/a	FR1	6	R1299T
1428.516	2.238	1430343	REC_START	n/a	n/a	n/a	-999	12	[0, 0, 0]	n/a	FR1	6	R1299T
1430.754	0.268	1432581	REC_WORD_VV	0.268	n/a	<>	-999	12	[0, 0, 0]	n/a	FR1	6	R1299T
1431.022	3.57	1432849	REC_WORD	3.57	n/a	TOY	10	12	[0, 0, 0]	n/a	FR1	6	R1299T
1434.592	3.666	1436419	REC_WORD	3.666	n/a	SLUSH	7	12	[0, 0, 0]	n/a	FR1	6	R1299T
1438.258	3.529	1440085	REC_WORD	3.529	n/a	BEAM	-999	12	[0, 0, 0]	n/a	FR1	6	R1299T
1441.787	16.743	1443614	REC_WORD_VV	16.743	n/a	<>	-999	12	[0, 0, 0]	n/a	FR1	6	R1299T
1458.53	0.0	1460356	REC_END	n/a	n/a	n/a	-999	12	[0, 0, 0]	n/a	FR1	6	R1299T
1458.53	0.014	1460356	TRIAL_END	n/a	n/a	n/a	-999	12	[0, 0, 0]	n/a	FR1	6	R1299T
1458.544	0.0	1460370	TRIAL_START	n/a	n/a	n/a	-999	13	[0, 0, 0]	n/a	FR1	6	R1299T
1458.544	0.0	1460370	TRIAL	n/a	n/a	n/a	-999	13	[0, 0, 0]	n/a	FR1	6	R1299T
1458.544	4.095	1460370	WAITING_START	n/a	n/a	n/a	-999	13	[0, 0, 0]	n/a	FR1	6	R1299T
1462.639	0.0	1464465	COUNTDOWN_START	n/a	n/a	n/a	-999	13	[0, 0, 0]	n/a	FR1	6	R1299T
1462.639	10.43	1464465	WAITING_END	n/a	n/a	n/a	-999	13	[0, 0, 0]	n/a	FR1	6	R1299T
1473.069	0.0	1474894	COUNTDOWN_END	n/a	n/a	n/a	-999	13	[0, 0, 0]	n/a	FR1	6	R1299T
1473.069	1.239	1474894	ORIENT_START	n/a	n/a	n/a	-999	13	[0, 0, 0]	n/a	FR1	6	R1299T
1474.308	0.0	1476133	ORIENT_END	n/a	n/a	n/a	-999	13	[0, 0, 0]	n/a	FR1	6	R1299T
1474.308	0.772	1476133	ENCODING_START	n/a	n/a	n/a	-999	13	[0, 0, 0]	n/a	FR1	6	R1299T
1475.08	1.628	1476905	WORD	n/a	wordpools/wordpool_EN.txt	GLASS	1	13	[0, 0, 0]	n/a	FR1	6	R1299T
1476.708	0.862	1478533	WORD_OFF	n/a	n/a	GLASS	1	13	[0, 0, 0]	n/a	FR1	6	R1299T
1477.57	1.622	1479395	WORD	n/a	wordpools/wordpool_EN.txt	MUG	2	13	[0, 0, 0]	n/a	FR1	6	R1299T
1479.192	1.074	1481017	WORD_OFF	n/a	n/a	MUG	2	13	[0, 0, 0]	n/a	FR1	6	R1299T
1480.266	1.626	1482091	WORD	n/a	wordpools/wordpool_EN.txt	PURSE	3	13	[0, 0, 0]	n/a	FR1	6	R1299T
1481.892	0.863	1483717	WORD_OFF	n/a	n/a	PURSE	3	13	[0, 0, 0]	n/a	FR1	6	R1299T
1482.755	1.621	1484580	WORD	n/a	wordpools/wordpool_EN.txt	GUARD	4	13	[0, 0, 0]	n/a	FR1	6	R1299T
1484.376	0.861	1486201	WORD_OFF	n/a	n/a	GUARD	4	13	[0, 0, 0]	n/a	FR1	6	R1299T
1485.237	1.623	1487062	WORD	n/a	wordpools/wordpool_EN.txt	PIG	5	13	[0, 0, 0]	n/a	FR1	6	R1299T
1486.86	1.132	1488685	WORD_OFF	n/a	n/a	PIG	5	13	[0, 0, 0]	n/a	FR1	6	R1299T
1487.992	1.635	1489817	WORD	n/a	wordpools/wordpool_EN.txt	SNOW	6	13	[0, 0, 0]	n/a	FR1	6	R1299T
1489.627	0.763	1491452	WORD_OFF	n/a	n/a	SNOW	6	13	[0, 0, 0]	n/a	FR1	6	R1299T
1490.39	1.621	1492215	WORD	n/a	wordpools/wordpool_EN.txt	RICE	7	13	[0, 0, 0]	n/a	FR1	6	R1299T
1492.011	0.877	1493836	WORD_OFF	n/a	n/a	RICE	7	13	[0, 0, 0]	n/a	FR1	6	R1299T
1492.888	1.623	1494713	WORD	n/a	wordpools/wordpool_EN.txt	FISH	8	13	[0, 0, 0]	n/a	FR1	6	R1299T
1494.511	1.068	1496335	WORD_OFF	n/a	n/a	FISH	8	13	[0, 0, 0]	n/a	FR1	6	R1299T
1495.579	1.633	1497403	WORD	n/a	wordpools/wordpool_EN.txt	SPEAR	9	13	[0, 0, 0]	n/a	FR1	6	R1299T
1497.212	0.79	1499036	WORD_OFF	n/a	n/a	SPEAR	9	13	[0, 0, 0]	n/a	FR1	6	R1299T
1498.002	1.627	1499826	WORD	n/a	wordpools/wordpool_EN.txt	EAR	10	13	[0, 0, 0]	n/a	FR1	6	R1299T
1499.629	0.779	1501453	WORD_OFF	n/a	n/a	EAR	10	13	[0, 0, 0]	n/a	FR1	6	R1299T
1500.408	1.638	1502232	WORD	n/a	wordpools/wordpool_EN.txt	CHEEK	11	13	[0, 0, 0]	n/a	FR1	6	R1299T
1502.046	1.085	1503870	WORD_OFF	n/a	n/a	CHEEK	11	13	[0, 0, 0]	n/a	FR1	6	R1299T
1503.131	1.632	1504955	WORD	n/a	wordpools/wordpool_EN.txt	DEER	12	13	[0, 0, 0]	n/a	FR1	6	R1299T
1504.763	0.001	1506587	WORD_OFF	n/a	n/a	DEER	12	13	[0, 0, 0]	n/a	FR1	6	R1299T
1504.764	0.0	1506588	ENCODING_END	n/a	n/a	n/a	-999	13	[0, 0, 0]	n/a	FR1	6	R1299T
1504.764	0.0	1506588	DISTRACT_START	n/a	n/a	n/a	-999	13	[0, 0, 0]	n/a	FR1	6	R1299T
1504.764	0.016	1506588	START	n/a	n/a	n/a	-999	13	[-999, -999, -999]	n/a	FR1	6	R1299T
1504.78	4.634	1506604	PROB	4.634	n/a	n/a	-999	13	[5, 7, 6]	18	FR1	6	R1299T
1509.414	6.067	1511238	PROB	6.067	n/a	n/a	-999	13	[3, 9, 3]	15	FR1	6	R1299T
1515.481	7.252	1517305	PROB	7.252	n/a	n/a	-999	13	[2, 7, 5]	14	FR1	6	R1299T
1522.733	5.189	1524556	PROB	5.189	n/a	n/a	-999	13	[2, 9, 9]	20	FR1	6	R1299T
1527.922	0.012	1529745	STOP	n/a	n/a	n/a	-999	13	[-999, -999, -999]	n/a	FR1	6	R1299T
1527.934	0.686	1529757	DISTRACT_END	n/a	n/a	n/a	-999	13	[0, 0, 0]	n/a	FR1	6	R1299T
1528.62	1.615	1530443	RETRIEVAL_ORIENT_START	n/a	n/a	n/a	-999	13	[0, 0, 0]	n/a	FR1	6	R1299T
1530.235	0.0	1532058	RETRIEVAL_ORIENT_END	n/a	n/a	n/a	-999	13	[0, 0, 0]	n/a	FR1	6	R1299T
1530.235	8.151	1532058	REC_START	n/a	n/a	n/a	-999	13	[0, 0, 0]	n/a	FR1	6	R1299T
1538.386	13.053	1540209	REC_WORD	13.053	n/a	SNOW	6	13	[0, 0, 0]	n/a	FR1	6	R1299T
1551.439	7.419	1553261	REC_WORD	7.419	n/a	EAR	10	13	[0, 0, 0]	n/a	FR1	6	R1299T
1558.858	1.389	1560680	REC_WORD	1.389	n/a	PIG	5	13	[0, 0, 0]	n/a	FR1	6	R1299T
1560.247	0.0	1562069	REC_END	n/a	n/a	n/a	-999	13	[0, 0, 0]	n/a	FR1	6	R1299T
1560.247	0.014	1562069	TRIAL_END	n/a	n/a	n/a	-999	13	[0, 0, 0]	n/a	FR1	6	R1299T
1560.261	0.0	1562083	TRIAL_START	n/a	n/a	n/a	-999	14	[0, 0, 0]	n/a	FR1	6	R1299T
1560.261	0.0	1562083	TRIAL	n/a	n/a	n/a	-999	14	[0, 0, 0]	n/a	FR1	6	R1299T
1560.261	1.979	1562083	WAITING_START	n/a	n/a	n/a	-999	14	[0, 0, 0]	n/a	FR1	6	R1299T
1562.24	0.001	1564061	WAITING_END	n/a	n/a	n/a	-999	14	[0, 0, 0]	n/a	FR1	6	R1299T
1562.241	10.428	1564062	COUNTDOWN_START	n/a	n/a	n/a	-999	14	[0, 0, 0]	n/a	FR1	6	R1299T
1572.669	0.001	1574490	COUNTDOWN_END	n/a	n/a	n/a	-999	14	[0, 0, 0]	n/a	FR1	6	R1299T
1572.67	1.189	1574491	ORIENT_START	n/a	n/a	n/a	-999	14	[0, 0, 0]	n/a	FR1	6	R1299T
1573.859	0.0	1575680	ORIENT_END	n/a	n/a	n/a	-999	14	[0, 0, 0]	n/a	FR1	6	R1299T
1573.859	0.98	1575680	ENCODING_START	n/a	n/a	n/a	-999	14	[0, 0, 0]	n/a	FR1	6	R1299T
1574.839	1.637	1576660	WORD	n/a	wordpools/wordpool_EN.txt	FOOD	1	14	[0, 0, 0]	n/a	FR1	6	R1299T
1576.476	0.772	1578297	WORD_OFF	n/a	n/a	FOOD	1	14	[0, 0, 0]	n/a	FR1	6	R1299T
1577.248	1.629	1579069	WORD	n/a	wordpools/wordpool_EN.txt	STRING	2	14	[0, 0, 0]	n/a	FR1	6	R1299T
1578.877	0.939	1580698	WORD_OFF	n/a	n/a	STRING	2	14	[0, 0, 0]	n/a	FR1	6	R1299T
1579.816	1.628	1581637	WORD	n/a	wordpools/wordpool_EN.txt	VASE	3	14	[0, 0, 0]	n/a	FR1	6	R1299T
1581.444	0.817	1583265	WORD_OFF	n/a	n/a	VASE	3	14	[0, 0, 0]	n/a	FR1	6	R1299T
1582.261	1.633	1584082	WORD	n/a	wordpools/wordpool_EN.txt	STRAW	4	14	[0, 0, 0]	n/a	FR1	6	R1299T
1583.894	0.974	1585714	WORD_OFF	n/a	n/a	STRAW	4	14	[0, 0, 0]	n/a	FR1	6	R1299T
1584.868	1.627	1586688	WORD	n/a	wordpools/wordpool_EN.txt	COIN	5	14	[0, 0, 0]	n/a	FR1	6	R1299T
1586.495	0.864	1588315	WORD_OFF	n/a	n/a	COIN	5	14	[0, 0, 0]	n/a	FR1	6	R1299T
1587.359	1.636	1589179	WORD	n/a	wordpools/wordpool_EN.txt	BROOM	6	14	[0, 0, 0]	n/a	FR1	6	R1299T
1588.995	0.757	1590815	WORD_OFF	n/a	n/a	BROOM	6	14	[0, 0, 0]	n/a	FR1	6	R1299T
1589.752	1.627	1591572	WORD	n/a	wordpools/wordpool_EN.txt	BRUSH	7	14	[0, 0, 0]	n/a	FR1	6	R1299T
1591.379	0.769	1593199	WORD_OFF	n/a	n/a	BRUSH	7	14	[0, 0, 0]	n/a	FR1	6	R1299T
1592.148	1.631	1593968	WORD	n/a	wordpools/wordpool_EN.txt	APE	8	14	[0, 0, 0]	n/a	FR1	6	R1299T
1593.779	0.913	1595599	WORD_OFF	n/a	n/a	APE	8	14	[0, 0, 0]	n/a	FR1	6	R1299T
1594.692	1.621	1596512	WORD	n/a	wordpools/wordpool_EN.txt	MAT	9	14	[0, 0, 0]	n/a	FR1	6	R1299T
1596.313	0.871	1598133	WORD_OFF	n/a	n/a	MAT	9	14	[0, 0, 0]	n/a	FR1	6	R1299T
1597.184	1.63	1599004	WORD	n/a	wordpools/wordpool_EN.txt	BRIDGE	10	14	[0, 0, 0]	n/a	FR1	6	R1299T
1598.814	0.945	1600634	WORD_OFF	n/a	n/a	BRIDGE	10	14	[0, 0, 0]	n/a	FR1	6	R1299T
1599.759	1.638	1601579	WORD	n/a	wordpools/wordpool_EN.txt	SHELL	11	14	[0, 0, 0]	n/a	FR1	6	R1299T
1601.397	0.884	1603217	WORD_OFF	n/a	n/a	SHELL	11	14	[0, 0, 0]	n/a	FR1	6	R1299T
1602.281	1.617	1604101	WORD	n/a	wordpools/wordpool_EN.txt	FUDGE	12	14	[0, 0, 0]	n/a	FR1	6	R1299T
1603.898	0.0	1605718	DISTRACT_START	n/a	n/a	n/a	-999	14	[0, 0, 0]	n/a	FR1	6	R1299T
1603.898	0.0	1605718	WORD_OFF	n/a	n/a	FUDGE	12	14	[0, 0, 0]	n/a	FR1	6	R1299T
1603.898	0.001	1605718	ENCODING_END	n/a	n/a	n/a	-999	14	[0, 0, 0]	n/a	FR1	6	R1299T
1603.899	0.015	1605719	START	n/a	n/a	n/a	-999	14	[-999, -999, -999]	n/a	FR1	6	R1299T
1603.914	3.684	1605734	PROB	3.684	n/a	n/a	-999	14	[1, 8, 3]	12	FR1	6	R1299T
1607.598	2.734	1609417	PROB	2.734	n/a	n/a	-999	14	[2, 3, 9]	14	FR1	6	R1299T
1610.332	4.051	1612151	PROB	4.051	n/a	n/a	-999	14	[6, 8, 4]	18	FR1	6	R1299T
1614.383	4.317	1616202	PROB	4.317	n/a	n/a	-999	14	[2, 2, 7]	11	FR1	6	R1299T
1618.7	4.534	1620519	PROB	4.534	n/a	n/a	-999	14	[5, 2, 6]	13	FR1	6	R1299T
1623.234	3.274	1625053	PROB	3.274	n/a	n/a	-999	14	[8, 3, 4]	15	FR1	6	R1299T
1626.508	0.011	1628327	STOP	n/a	n/a	n/a	-999	14	[-999, -999, -999]	n/a	FR1	6	R1299T
1626.519	0.559	1628338	DISTRACT_END	n/a	n/a	n/a	-999	14	[0, 0, 0]	n/a	FR1	6	R1299T
1627.078	1.59	1628897	RETRIEVAL_ORIENT_START	n/a	n/a	n/a	-999	14	[0, 0, 0]	n/a	FR1	6	R1299T
1628.668	0.0	1630486	RETRIEVAL_ORIENT_END	n/a	n/a	n/a	-999	14	[0, 0, 0]	n/a	FR1	6	R1299T
1628.668	4.273	1630486	REC_START	n/a	n/a	n/a	-999	14	[0, 0, 0]	n/a	FR1	6	R1299T
1632.941	1.998	1634759	REC_WORD	1.998	n/a	EAR	-999	14	[0, 0, 0]	n/a	FR1	6	R1299T
1634.939	1.0	1636757	REC_WORD	1.0	n/a	FOOD	1	14	[0, 0, 0]	n/a	FR1	6	R1299T
1635.939	22.742	1637757	REC_WORD_VV	22.742	n/a	<>	-999	14	[0, 0, 0]	n/a	FR1	6	R1299T
1658.681	0.0	1660498	REC_END	n/a	n/a	n/a	-999	14	[0, 0, 0]	n/a	FR1	6	R1299T
1658.681	0.015	1660498	TRIAL_END	n/a	n/a	n/a	-999	14	[0, 0, 0]	n/a	FR1	6	R1299T
1658.696	0.0	1660513	TRIAL_START	n/a	n/a	n/a	-999	15	[0, 0, 0]	n/a	FR1	6	R1299T
1658.696	0.0	1660513	TRIAL	n/a	n/a	n/a	-999	15	[0, 0, 0]	n/a	FR1	6	R1299T
1658.696	1.746	1660513	WAITING_START	n/a	n/a	n/a	-999	15	[0, 0, 0]	n/a	FR1	6	R1299T
1660.442	0.0	1662259	WAITING_END	n/a	n/a	n/a	-999	15	[0, 0, 0]	n/a	FR1	6	R1299T
1660.442	10.429	1662259	COUNTDOWN_START	n/a	n/a	n/a	-999	15	[0, 0, 0]	n/a	FR1	6	R1299T
1670.871	0.0	1672688	ORIENT_START	n/a	n/a	n/a	-999	15	[0, 0, 0]	n/a	FR1	6	R1299T
1670.871	1.239	1672688	COUNTDOWN_END	n/a	n/a	n/a	-999	15	[0, 0, 0]	n/a	FR1	6	R1299T
1672.11	0.001	1673927	ORIENT_END	n/a	n/a	n/a	-999	15	[0, 0, 0]	n/a	FR1	6	R1299T
1672.111	0.851	1673928	ENCODING_START	n/a	n/a	n/a	-999	15	[0, 0, 0]	n/a	FR1	6	R1299T
1672.962	1.632	1674778	WORD	n/a	wordpools/wordpool_EN.txt	MULE	1	15	[0, 0, 0]	n/a	FR1	6	R1299T
1674.594	0.879	1676410	WORD_OFF	n/a	n/a	MULE	1	15	[0, 0, 0]	n/a	FR1	6	R1299T
1675.473	1.638	1677289	WORD	n/a	wordpools/wordpool_EN.txt	FRUIT	2	15	[0, 0, 0]	n/a	FR1	6	R1299T
1677.111	1.129	1678927	WORD_OFF	n/a	n/a	FRUIT	2	15	[0, 0, 0]	n/a	FR1	6	R1299T
1678.24	1.622	1680056	WORD	n/a	wordpools/wordpool_EN.txt	CART	3	15	[0, 0, 0]	n/a	FR1	6	R1299T
1679.862	0.923	1681678	WORD_OFF	n/a	n/a	CART	3	15	[0, 0, 0]	n/a	FR1	6	R1299T
1680.785	1.627	1682601	WORD	n/a	wordpools/wordpool_EN.txt	VINE	4	15	[0, 0, 0]	n/a	FR1	6	R1299T
1682.412	1.02	1684228	WORD_OFF	n/a	n/a	VINE	4	15	[0, 0, 0]	n/a	FR1	6	R1299T
1683.432	1.631	1685248	WORD	n/a	wordpools/wordpool_EN.txt	CLAY	5	15	[0, 0, 0]	n/a	FR1	6	R1299T
1685.063	0.973	1686879	WORD_OFF	n/a	n/a	CLAY	5	15	[0, 0, 0]	n/a	FR1	6	R1299T
1686.036	1.626	1687852	WORD	n/a	wordpools/wordpool_EN.txt	BLOOM	6	15	[0, 0, 0]	n/a	FR1	6	R1299T
1687.662	0.863	1689478	WORD_OFF	n/a	n/a	BLOOM	6	15	[0, 0, 0]	n/a	FR1	6	R1299T
1688.525	1.622	1690341	WORD	n/a	wordpools/wordpool_EN.txt	NET	7	15	[0, 0, 0]	n/a	FR1	6	R1299T
1690.147	0.895	1691963	WORD_OFF	n/a	n/a	NET	7	15	[0, 0, 0]	n/a	FR1	6	R1299T
1691.042	1.621	1692858	WORD	n/a	wordpools/wordpool_EN.txt	ROOF	8	15	[0, 0, 0]	n/a	FR1	6	R1299T
1692.663	1.074	1694479	WORD_OFF	n/a	n/a	ROOF	8	15	[0, 0, 0]	n/a	FR1	6	R1299T
1693.737	1.628	1695553	WORD	n/a	wordpools/wordpool_EN.txt	SCHOOL	9	15	[0, 0, 0]	n/a	FR1	6	R1299T
1695.365	0.766	1697180	WORD_OFF	n/a	n/a	SCHOOL	9	15	[0, 0, 0]	n/a	FR1	6	R1299T
1696.131	1.634	1697946	WORD	n/a	wordpools/wordpool_EN.txt	RIB	10	15	[0, 0, 0]	n/a	FR1	6	R1299T
1697.765	0.885	1699580	WORD_OFF	n/a	n/a	RIB	10	15	[0, 0, 0]	n/a	FR1	6	R1299T
1698.65	1.632	1700465	WORD	n/a	wordpools/wordpool_EN.txt	TENT	11	15	[0, 0, 0]	n/a	FR1	6	R1299T
1700.282	1.141	1702097	WORD_OFF	n/a	n/a	TENT	11	15	[0, 0, 0]	n/a	FR1	6	R1299T
1701.423	1.626	1703238	WORD	n/a	wordpools/wordpool_EN.txt	MAIL	12	15	[0, 0, 0]	n/a	FR1	6	R1299T
1703.049	0.001	1704864	WORD_OFF	n/a	n/a	MAIL	12	15	[0, 0, 0]	n/a	FR1	6	R1299T
1703.05	0.0	1704865	DISTRACT_START	n/a	n/a	n/a	-999	15	[0, 0, 0]	n/a	FR1	6	R1299T
1703.05	0.0	1704865	ENCODING_END	n/a	n/a	n/a	-999	15	[0, 0, 0]	n/a	FR1	6	R1299T
1703.05	0.016	1704865	START	n/a	n/a	n/a	-999	15	[-999, -999, -999]	n/a	FR1	6	R1299T
1703.066	5.167	1704881	PROB	5.167	n/a	n/a	-999	15	[5, 2, 1]	8	FR1	6	R1299T
1708.233	4.151	1710048	PROB	4.151	n/a	n/a	-999	15	[3, 5, 8]	16	FR1	6	R1299T
1712.384	5.584	1714199	PROB	5.584	n/a	n/a	-999	15	[5, 8, 4]	17	FR1	6	R1299T
1717.968	3.934	1719782	PROB	3.934	n/a	n/a	-999	15	[6, 1, 9]	16	FR1	6	R1299T
1721.902	2.728	1723716	PROB	2.728	n/a	n/a	-999	15	[6, 2, 7]	15	FR1	6	R1299T
1724.63	0.022	1726444	STOP	n/a	n/a	n/a	-999	15	[-999, -999, -999]	n/a	FR1	6	R1299T
1724.652	0.578	1726466	DISTRACT_END	n/a	n/a	n/a	-999	15	[0, 0, 0]	n/a	FR1	6	R1299T
1725.23	1.674	1727044	RETRIEVAL_ORIENT_START	n/a	n/a	n/a	-999	15	[0, 0, 0]	n/a	FR1	6	R1299T
1726.904	0.0	1728718	RETRIEVAL_ORIENT_END	n/a	n/a	n/a	-999	15	[0, 0, 0]	n/a	FR1	6	R1299T
1726.904	2.156	1728718	REC_START	n/a	n/a	n/a	-999	15	[0, 0, 0]	n/a	FR1	6	R1299T
1729.06	4.688	1730874	REC_WORD	4.688	n/a	MULE	1	15	[0, 0, 0]	n/a	FR1	6	R1299T
1733.748	4.128	1735562	REC_WORD	4.128	n/a	CART	3	15	[0, 0, 0]	n/a	FR1	6	R1299T
1737.876	8.379	1739690	REC_WORD	8.379	n/a	EAR	-999	15	[0, 0, 0]	n/a	FR1	6	R1299T
1746.255	10.663	1748068	REC_WORD	10.663	n/a	BANK	-999	15	[0, 0, 0]	n/a	FR1	6	R1299T
1756.918	0.0	1758731	TRIAL_END	n/a	n/a	n/a	-999	15	[0, 0, 0]	n/a	FR1	6	R1299T
1756.918	0.014	1758731	REC_END	n/a	n/a	n/a	-999	15	[0, 0, 0]	n/a	FR1	6	R1299T
1756.932	0.001	1758745	TRIAL_START	n/a	n/a	n/a	-999	16	[0, 0, 0]	n/a	FR1	6	R1299T
1756.933	0.0	1758746	TRIAL	n/a	n/a	n/a	-999	16	[0, 0, 0]	n/a	FR1	6	R1299T
1756.933	5.394	1758746	WAITING_START	n/a	n/a	n/a	-999	16	[0, 0, 0]	n/a	FR1	6	R1299T
1762.327	0.0	1764139	WAITING_END	n/a	n/a	n/a	-999	16	[0, 0, 0]	n/a	FR1	6	R1299T
1762.327	10.428	1764139	COUNTDOWN_START	n/a	n/a	n/a	-999	16	[0, 0, 0]	n/a	FR1	6	R1299T
1772.755	0.0	1774567	COUNTDOWN_END	n/a	n/a	n/a	-999	16	[0, 0, 0]	n/a	FR1	6	R1299T
1772.755	1.04	1774567	ORIENT_START	n/a	n/a	n/a	-999	16	[0, 0, 0]	n/a	FR1	6	R1299T
1773.795	0.001	1775607	ORIENT_END	n/a	n/a	n/a	-999	16	[0, 0, 0]	n/a	FR1	6	R1299T
1773.796	0.817	1775608	ENCODING_START	n/a	n/a	n/a	-999	16	[0, 0, 0]	n/a	FR1	6	R1299T
1774.613	1.633	1776425	WORD	n/a	wordpools/wordpool_EN.txt	BAG	1	16	[0, 0, 0]	n/a	FR1	6	R1299T
1776.246	0.841	1778058	WORD_OFF	n/a	n/a	BAG	1	16	[0, 0, 0]	n/a	FR1	6	R1299T
1777.087	1.626	1778899	WORD	n/a	wordpools/wordpool_EN.txt	SHOE	2	16	[0, 0, 0]	n/a	FR1	6	R1299T
1778.713	1.049	1780525	WORD_OFF	n/a	n/a	SHOE	2	16	[0, 0, 0]	n/a	FR1	6	R1299T
1779.762	1.635	1781574	WORD	n/a	wordpools/wordpool_EN.txt	SPONGE	3	16	[0, 0, 0]	n/a	FR1	6	R1299T
1781.397	0.989	1783209	WORD_OFF	n/a	n/a	SPONGE	3	16	[0, 0, 0]	n/a	FR1	6	R1299T
1782.386	1.628	1784198	WORD	n/a	wordpools/wordpool_EN.txt	STEAK	4	16	[0, 0, 0]	n/a	FR1	6	R1299T
1784.014	1.004	1785825	WORD_OFF	n/a	n/a	STEAK	4	16	[0, 0, 0]	n/a	FR1	6	R1299T
1785.018	1.63	1786829	WORD	n/a	wordpools/wordpool_EN.txt	SOCK	5	16	[0, 0, 0]	n/a	FR1	6	R1299T
1786.648	1.001	1788459	WORD_OFF	n/a	n/a	SOCK	5	16	[0, 0, 0]	n/a	FR1	6	R1299T
1787.649	1.616	1789460	WORD	n/a	wordpools/wordpool_EN.txt	JUICE	6	16	[0, 0, 0]	n/a	FR1	6	R1299T
1789.265	0.84	1791076	WORD_OFF	n/a	n/a	JUICE	6	16	[0, 0, 0]	n/a	FR1	6	R1299T
1790.105	1.627	1791916	WORD	n/a	wordpools/wordpool_EN.txt	DRUM	7	16	[0, 0, 0]	n/a	FR1	6	R1299T
1791.732	1.101	1793543	WORD_OFF	n/a	n/a	DRUM	7	16	[0, 0, 0]	n/a	FR1	6	R1299T
1792.833	1.633	1794644	WORD	n/a	wordpools/wordpool_EN.txt	SLEEVE	8	16	[0, 0, 0]	n/a	FR1	6	R1299T
1794.466	0.935	1796277	WORD_OFF	n/a	n/a	SLEEVE	8	16	[0, 0, 0]	n/a	FR1	6	R1299T
1795.401	1.632	1797212	WORD	n/a	wordpools/wordpool_EN.txt	MOON	9	16	[0, 0, 0]	n/a	FR1	6	R1299T
1797.033	1.094	1798844	WORD_OFF	n/a	n/a	MOON	9	16	[0, 0, 0]	n/a	FR1	6	R1299T
1798.127	1.623	1799938	WORD	n/a	wordpools/wordpool_EN.txt	FUR	10	16	[0, 0, 0]	n/a	FR1	6	R1299T
1799.75	1.078	1801561	WORD_OFF	n/a	n/a	FUR	10	16	[0, 0, 0]	n/a	FR1	6	R1299T
1800.828	1.623	1802639	WORD	n/a	wordpools/wordpool_EN.txt	TANK	11	16	[0, 0, 0]	n/a	FR1	6	R1299T
1802.451	1.084	1804262	WORD_OFF	n/a	n/a	TANK	11	16	[0, 0, 0]	n/a	FR1	6	R1299T
1803.535	1.633	1805346	WORD	n/a	wordpools/wordpool_EN.txt	SALT	12	16	[0, 0, 0]	n/a	FR1	6	R1299T
1805.168	0.0	1806979	WORD_OFF	n/a	n/a	SALT	12	16	[0, 0, 0]	n/a	FR1	6	R1299T
1805.168	0.001	1806979	ENCODING_END	n/a	n/a	n/a	-999	16	[0, 0, 0]	n/a	FR1	6	R1299T
1805.169	0.0	1806980	DISTRACT_START	n/a	n/a	n/a	-999	16	[0, 0, 0]	n/a	FR1	6	R1299T
1805.169	0.015	1806980	START	n/a	n/a	n/a	-999	16	[-999, -999, -999]	n/a	FR1	6	R1299T
1805.184	4.618	1806995	PROB	4.618	n/a	n/a	-999	16	[9, 1, 9]	19	FR1	6	R1299T
1809.802	3.567	1811612	PROB	3.567	n/a	n/a	-999	16	[1, 5, 9]	15	FR1	6	R1299T
1813.369	3.967	1815179	PROB	3.967	n/a	n/a	-999	16	[5, 8, 5]	18	FR1	6	R1299T
1817.336	6.302	1819146	PROB	6.302	n/a	n/a	-999	16	[5, 9, 9]	23	FR1	6	R1299T
1823.638	3.191	1825448	PROB	3.191	n/a	n/a	-999	16	[4, 5, 5]	14	FR1	6	R1299T
1826.829	0.009	1828639	STOP	n/a	n/a	n/a	-999	16	[-999, -999, -999]	n/a	FR1	6	R1299T
1826.838	0.694	1828648	DISTRACT_END	n/a	n/a	n/a	-999	16	[0, 0, 0]	n/a	FR1	6	R1299T
1827.532	1.723	1829342	RETRIEVAL_ORIENT_START	n/a	n/a	n/a	-999	16	[0, 0, 0]	n/a	FR1	6	R1299T
1829.255	0.001	1831064	RETRIEVAL_ORIENT_END	n/a	n/a	n/a	-999	16	[0, 0, 0]	n/a	FR1	6	R1299T
1829.256	2.852	1831065	REC_START	n/a	n/a	n/a	-999	16	[0, 0, 0]	n/a	FR1	6	R1299T
1832.108	19.663	1833917	REC_WORD	19.663	n/a	DRUM	7	16	[0, 0, 0]	n/a	FR1	6	R1299T
1851.771	7.497	1853579	REC_WORD	7.497	n/a	SLEEVE	8	16	[0, 0, 0]	n/a	FR1	6	R1299T
1859.268	0.001	1861076	REC_END	n/a	n/a	n/a	-999	16	[0, 0, 0]	n/a	FR1	6	R1299T
1859.269	0.014	1861077	TRIAL_END	n/a	n/a	n/a	-999	16	[0, 0, 0]	n/a	FR1	6	R1299T
1859.283	0.0	1861091	TRIAL	n/a	n/a	n/a	-999	17	[0, 0, 0]	n/a	FR1	6	R1299T
1859.283	0.001	1861091	TRIAL_START	n/a	n/a	n/a	-999	17	[0, 0, 0]	n/a	FR1	6	R1299T
1859.284	2.977	1861092	WAITING_START	n/a	n/a	n/a	-999	17	[0, 0, 0]	n/a	FR1	6	R1299T
1862.261	0.001	1864069	WAITING_END	n/a	n/a	n/a	-999	17	[0, 0, 0]	n/a	FR1	6	R1299T
1862.262	10.429	1864070	COUNTDOWN_START	n/a	n/a	n/a	-999	17	[0, 0, 0]	n/a	FR1	6	R1299T
1872.691	0.001	1874498	COUNTDOWN_END	n/a	n/a	n/a	-999	17	[0, 0, 0]	n/a	FR1	6	R1299T
1872.692	1.105	1874499	ORIENT_START	n/a	n/a	n/a	-999	17	[0, 0, 0]	n/a	FR1	6	R1299T
1873.797	0.001	1875604	ORIENT_END	n/a	n/a	n/a	-999	17	[0, 0, 0]	n/a	FR1	6	R1299T
1873.798	0.801	1875605	ENCODING_START	n/a	n/a	n/a	-999	17	[0, 0, 0]	n/a	FR1	6	R1299T
1874.599	1.632	1876406	WORD	n/a	wordpools/wordpool_EN.txt	STEAM	1	17	[0, 0, 0]	n/a	FR1	6	R1299T
1876.231	1.043	1878038	WORD_OFF	n/a	n/a	STEAM	1	17	[0, 0, 0]	n/a	FR1	6	R1299T
1877.274	1.624	1879081	WORD	n/a	wordpools/wordpool_EN.txt	WHALE	2	17	[0, 0, 0]	n/a	FR1	6	R1299T
1878.898	1.047	1880705	WORD_OFF	n/a	n/a	WHALE	2	17	[0, 0, 0]	n/a	FR1	6	R1299T
1879.945	1.637	1881752	WORD	n/a	wordpools/wordpool_EN.txt	SQUARE	3	17	[0, 0, 0]	n/a	FR1	6	R1299T
1881.582	0.847	1883389	WORD_OFF	n/a	n/a	SQUARE	3	17	[0, 0, 0]	n/a	FR1	6	R1299T
1882.429	1.636	1884236	WORD	n/a	wordpools/wordpool_EN.txt	HOUSE	4	17	[0, 0, 0]	n/a	FR1	6	R1299T
1884.065	1.099	1885872	WORD_OFF	n/a	n/a	HOUSE	4	17	[0, 0, 0]	n/a	FR1	6	R1299T
1885.164	1.635	1886971	WORD	n/a	wordpools/wordpool_EN.txt	FOOT	5	17	[0, 0, 0]	n/a	FR1	6	R1299T
1886.799	0.899	1888606	WORD_OFF	n/a	n/a	FOOT	5	17	[0, 0, 0]	n/a	FR1	6	R1299T
1887.698	1.635	1889505	WORD	n/a	wordpools/wordpool_EN.txt	SNAKE	6	17	[0, 0, 0]	n/a	FR1	6	R1299T
1889.333	0.887	1891140	WORD_OFF	n/a	n/a	SNAKE	6	17	[0, 0, 0]	n/a	FR1	6	R1299T
1890.22	1.63	1892027	WORD	n/a	wordpools/wordpool_EN.txt	SEAT	7	17	[0, 0, 0]	n/a	FR1	6	R1299T
1891.85	0.969	1893657	WORD_OFF	n/a	n/a	SEAT	7	17	[0, 0, 0]	n/a	FR1	6	R1299T
1892.819	1.632	1894626	WORD	n/a	wordpools/wordpool_EN.txt	LAMP	8	17	[0, 0, 0]	n/a	FR1	6	R1299T
1894.451	0.843	1896258	WORD_OFF	n/a	n/a	LAMP	8	17	[0, 0, 0]	n/a	FR1	6	R1299T
1895.294	1.624	1897100	WORD	n/a	wordpools/wordpool_EN.txt	FLUTE	9	17	[0, 0, 0]	n/a	FR1	6	R1299T
1896.918	0.983	1898724	WORD_OFF	n/a	n/a	FLUTE	9	17	[0, 0, 0]	n/a	FR1	6	R1299T
1897.901	1.634	1899707	WORD	n/a	wordpools/wordpool_EN.txt	KEY	10	17	[0, 0, 0]	n/a	FR1	6	R1299T
1899.535	0.798	1901341	WORD_OFF	n/a	n/a	KEY	10	17	[0, 0, 0]	n/a	FR1	6	R1299T
1900.333	1.636	1902139	WORD	n/a	wordpools/wordpool_EN.txt	BALL	11	17	[0, 0, 0]	n/a	FR1	6	R1299T
1901.969	1.122	1903775	WORD_OFF	n/a	n/a	BALL	11	17	[0, 0, 0]	n/a	FR1	6	R1299T
1903.091	1.628	1904897	WORD	n/a	wordpools/wordpool_EN.txt	LIP	12	17	[0, 0, 0]	n/a	FR1	6	R1299T
1904.719	0.001	1906525	WORD_OFF	n/a	n/a	LIP	12	17	[0, 0, 0]	n/a	FR1	6	R1299T
1904.72	0.0	1906526	ENCODING_END	n/a	n/a	n/a	-999	17	[0, 0, 0]	n/a	FR1	6	R1299T
1904.72	0.0	1906526	DISTRACT_START	n/a	n/a	n/a	-999	17	[0, 0, 0]	n/a	FR1	6	R1299T
1904.72	0.016	1906526	START	n/a	n/a	n/a	-999	17	[-999, -999, -999]	n/a	FR1	6	R1299T
1904.736	4.617	1906542	PROB	4.617	n/a	n/a	-999	17	[4, 1, 6]	11	FR1	6	R1299T
1909.353	4.901	1911159	PROB	4.901	n/a	n/a	-999	17	[9, 4, 2]	15	FR1	6	R1299T
1914.254	3.867	1916060	PROB	3.867	n/a	n/a	-999	17	[3, 3, 3]	9	FR1	6	R1299T
1918.121	4.285	1919926	PROB	4.285	n/a	n/a	-999	17	[4, 6, 3]	13	FR1	6	R1299T
1922.406	4.867	1924211	PROB	4.867	n/a	n/a	-999	17	[4, 6, 4]	14	FR1	6	R1299T
1927.273	0.017	1929078	STOP	n/a	n/a	n/a	-999	17	[-999, -999, -999]	n/a	FR1	6	R1299T
1927.29	0.579	1929095	DISTRACT_END	n/a	n/a	n/a	-999	17	[0, 0, 0]	n/a	FR1	6	R1299T
1927.869	1.705	1929674	RETRIEVAL_ORIENT_START	n/a	n/a	n/a	-999	17	[0, 0, 0]	n/a	FR1	6	R1299T
1929.574	0.0	1931379	REC_START	n/a	n/a	n/a	-999	17	[0, 0, 0]	n/a	FR1	6	R1299T
1929.574	13.119	1931379	RETRIEVAL_ORIENT_END	n/a	n/a	n/a	-999	17	[0, 0, 0]	n/a	FR1	6	R1299T
1942.693	2.064	1944497	REC_WORD	2.064	n/a	FLUTE	9	17	[0, 0, 0]	n/a	FR1	6	R1299T
1944.757	3.74	1946561	REC_WORD	3.74	n/a	KEY	10	17	[0, 0, 0]	n/a	FR1	6	R1299T
1948.497	0.536	1950301	REC_WORD_VV	0.536	n/a	<>	-999	17	[0, 0, 0]	n/a	FR1	6	R1299T
1949.033	10.554	1950837	REC_WORD	10.554	n/a	NOTE	-999	17	[0, 0, 0]	n/a	FR1	6	R1299T
1959.587	0.0	1961391	REC_END	n/a	n/a	n/a	-999	17	[0, 0, 0]	n/a	FR1	6	R1299T
1959.587	0.014	1961391	TRIAL_END	n/a	n/a	n/a	-999	17	[0, 0, 0]	n/a	FR1	6	R1299T
1959.601	0.0	1961405	TRIAL	n/a	n/a	n/a	-999	18	[0, 0, 0]	n/a	FR1	6	R1299T
1959.601	0.0	1961405	WAITING_START	n/a	n/a	n/a	-999	18	[0, 0, 0]	n/a	FR1	6	R1299T
1959.601	1291.48	1961405	TRIAL_START	n/a	n/a	n/a	-999	18	[0, 0, 0]	n/a	FR1	6	R1299T
3251.081	0.0	3252827	WAITING_END	n/a	n/a	n/a	-999	18	[0, 0, 0]	n/a	FR1	6	R1299T
3251.081	10.428	3252827	COUNTDOWN_START	n/a	n/a	n/a	-999	18	[0, 0, 0]	n/a	FR1	6	R1299T
3261.509	0.0	3263254	COUNTDOWN_END	n/a	n/a	n/a	-999	18	[0, 0, 0]	n/a	FR1	6	R1299T
3261.509	1.173	3263254	ORIENT_START	n/a	n/a	n/a	-999	18	[0, 0, 0]	n/a	FR1	6	R1299T
3262.682	0.0	3264427	ORIENT_END	n/a	n/a	n/a	-999	18	[0, 0, 0]	n/a	FR1	6	R1299T
3262.682	0.955	3264427	ENCODING_START	n/a	n/a	n/a	-999	18	[0, 0, 0]	n/a	FR1	6	R1299T
3263.637	1.629	3265382	WORD	n/a	wordpools/wordpool_EN.txt	GLOVE	1	18	[0, 0, 0]	n/a	FR1	6	R1299T
3265.266	1.01	3267011	WORD_OFF	n/a	n/a	GLOVE	1	18	[0, 0, 0]	n/a	FR1	6	R1299T
3266.276	1.624	3268021	WORD	n/a	wordpools/wordpool_EN.txt	WEED	2	18	[0, 0, 0]	n/a	FR1	6	R1299T
3267.9	1.062	3269645	WORD_OFF	n/a	n/a	WEED	2	18	[0, 0, 0]	n/a	FR1	6	R1299T
3268.962	1.622	3270707	WORD	n/a	wordpools/wordpool_EN.txt	CLOUD	3	18	[0, 0, 0]	n/a	FR1	6	R1299T
3270.584	0.941	3272329	WORD_OFF	n/a	n/a	CLOUD	3	18	[0, 0, 0]	n/a	FR1	6	R1299T
3271.525	1.626	3273270	WORD	n/a	wordpools/wordpool_EN.txt	CORD	4	18	[0, 0, 0]	n/a	FR1	6	R1299T
3273.151	1.14	3274896	WORD_OFF	n/a	n/a	CORD	4	18	[0, 0, 0]	n/a	FR1	6	R1299T
3274.291	1.627	3276035	WORD	n/a	wordpools/wordpool_EN.txt	SHEEP	5	18	[0, 0, 0]	n/a	FR1	6	R1299T
3275.918	0.829	3277662	WORD_OFF	n/a	n/a	SHEEP	5	18	[0, 0, 0]	n/a	FR1	6	R1299T
3276.747	1.622	3278491	WORD	n/a	wordpools/wordpool_EN.txt	ROPE	6	18	[0, 0, 0]	n/a	FR1	6	R1299T
3278.369	0.818	3280113	WORD_OFF	n/a	n/a	ROPE	6	18	[0, 0, 0]	n/a	FR1	6	R1299T
3279.187	1.632	3280931	WORD	n/a	wordpools/wordpool_EN.txt	LAMB	7	18	[0, 0, 0]	n/a	FR1	6	R1299T
3280.819	0.87	3282563	WORD_OFF	n/a	n/a	LAMB	7	18	[0, 0, 0]	n/a	FR1	6	R1299T
3281.689	1.631	3283433	WORD	n/a	wordpools/wordpool_EN.txt	SMOKE	8	18	[0, 0, 0]	n/a	FR1	6	R1299T
3283.32	0.986	3285064	WORD_OFF	n/a	n/a	SMOKE	8	18	[0, 0, 0]	n/a	FR1	6	R1299T
3284.306	1.631	3286050	WORD	n/a	wordpools/wordpool_EN.txt	BOWL	9	18	[0, 0, 0]	n/a	FR1	6	R1299T
3285.937	0.993	3287681	WORD_OFF	n/a	n/a	BOWL	9	18	[0, 0, 0]	n/a	FR1	6	R1299T
3286.93	1.624	3288674	WORD	n/a	wordpools/wordpool_EN.txt	POOL	10	18	[0, 0, 0]	n/a	FR1	6	R1299T
3288.554	0.8	3290298	WORD_OFF	n/a	n/a	POOL	10	18	[0, 0, 0]	n/a	FR1	6	R1299T
3289.354	1.634	3291098	WORD	n/a	wordpools/wordpool_EN.txt	HOOK	11	18	[0, 0, 0]	n/a	FR1	6	R1299T
3290.988	1.11	3292732	WORD_OFF	n/a	n/a	HOOK	11	18	[0, 0, 0]	n/a	FR1	6	R1299T
3292.098	1.623	3293842	WORD	n/a	wordpools/wordpool_EN.txt	BLUSH	12	18	[0, 0, 0]	n/a	FR1	6	R1299T
3293.721	0.001	3295465	WORD_OFF	n/a	n/a	BLUSH	12	18	[0, 0, 0]	n/a	FR1	6	R1299T
3293.722	0.0	3295466	ENCODING_END	n/a	n/a	n/a	-999	18	[0, 0, 0]	n/a	FR1	6	R1299T
3293.722	0.0	3295466	DISTRACT_START	n/a	n/a	n/a	-999	18	[0, 0, 0]	n/a	FR1	6	R1299T
3293.722	0.016	3295466	START	n/a	n/a	n/a	-999	18	[-999, -999, -999]	n/a	FR1	6	R1299T
3293.738	4.701	3295482	PROB	4.701	n/a	n/a	-999	18	[7, 2, 9]	18	FR1	6	R1299T
3298.439	3.834	3300182	PROB	3.834	n/a	n/a	-999	18	[9, 6, 4]	19	FR1	6	R1299T
3302.273	4.383	3304016	PROB	4.383	n/a	n/a	-999	18	[1, 2, 1]	4	FR1	6	R1299T
3306.656	4.068	3308399	PROB	4.068	n/a	n/a	-999	18	[6, 5, 5]	16	FR1	6	R1299T
3310.724	4.529	3312467	PROB	4.529	n/a	n/a	-999	18	[5, 1, 4]	10	FR1	6	R1299T
3315.253	0.023	3316996	STOP	n/a	n/a	n/a	-999	18	[-999, -999, -999]	n/a	FR1	6	R1299T
3315.276	0.664	3317019	DISTRACT_END	n/a	n/a	n/a	-999	18	[0, 0, 0]	n/a	FR1	6	R1299T
3315.94	1.619	3317683	RETRIEVAL_ORIENT_START	n/a	n/a	n/a	-999	18	[0, 0, 0]	n/a	FR1	6	R1299T
3317.559	0.0	3319302	REC_START	n/a	n/a	n/a	-999	18	[0, 0, 0]	n/a	FR1	6	R1299T
3317.559	1.763	3319302	RETRIEVAL_ORIENT_END	n/a	n/a	n/a	-999	18	[0, 0, 0]	n/a	FR1	6	R1299T
3319.322	0.258	3321064	REC_WORD_VV	0.258	n/a	<>	-999	18	[0, 0, 0]	n/a	FR1	6	R1299T
3319.58	1.034	3321322	REC_WORD	1.034	n/a	WEED	2	18	[0, 0, 0]	n/a	FR1	6	R1299T
3320.614	1.218	3322356	REC_WORD	1.218	n/a	BOWL	9	18	[0, 0, 0]	n/a	FR1	6	R1299T
3321.832	2.597	3323574	REC_WORD	2.597	n/a	SMOKE	8	18	[0, 0, 0]	n/a	FR1	6	R1299T
3324.429	8.79	3326171	REC_WORD_VV	8.79	n/a	<>	-999	18	[0, 0, 0]	n/a	FR1	6	R1299T
3333.219	1.222	3334961	REC_WORD_VV	1.222	n/a	<>	-999	18	[0, 0, 0]	n/a	FR1	6	R1299T
3334.441	13.131	3336183	REC_WORD_VV	13.131	n/a	<>	-999	18	[0, 0, 0]	n/a	FR1	6	R1299T
3347.572	0.001	3349313	REC_END	n/a	n/a	n/a	-999	18	[0, 0, 0]	n/a	FR1	6	R1299T
3347.573	0.015	3349314	TRIAL_END	n/a	n/a	n/a	-999	18	[0, 0, 0]	n/a	FR1	6	R1299T
3347.588	0.0	3349329	TRIAL_START	n/a	n/a	n/a	-999	19	[0, 0, 0]	n/a	FR1	6	R1299T
3347.588	0.0	3349329	TRIAL	n/a	n/a	n/a	-999	19	[0, 0, 0]	n/a	FR1	6	R1299T
3347.588	22.181	3349329	WAITING_START	n/a	n/a	n/a	-999	19	[0, 0, 0]	n/a	FR1	6	R1299T
3369.769	0.0	3371509	WAITING_END	n/a	n/a	n/a	-999	19	[0, 0, 0]	n/a	FR1	6	R1299T
3369.769	10.429	3371509	COUNTDOWN_START	n/a	n/a	n/a	-999	19	[0, 0, 0]	n/a	FR1	6	R1299T
3380.198	0.0	3381938	COUNTDOWN_END	n/a	n/a	n/a	-999	19	[0, 0, 0]	n/a	FR1	6	R1299T
3380.198	1.19	3381938	ORIENT_START	n/a	n/a	n/a	-999	19	[0, 0, 0]	n/a	FR1	6	R1299T
3381.388	0.0	3383128	ENCODING_START	n/a	n/a	n/a	-999	19	[0, 0, 0]	n/a	FR1	6	R1299T
3381.388	1.063	3383128	ORIENT_END	n/a	n/a	n/a	-999	19	[0, 0, 0]	n/a	FR1	6	R1299T
3382.451	1.637	3384191	WORD	n/a	wordpools/wordpool_EN.txt	JEEP	1	19	[0, 0, 0]	n/a	FR1	6	R1299T
3384.088	0.768	3385828	WORD_OFF	n/a	n/a	JEEP	1	19	[0, 0, 0]	n/a	FR1	6	R1299T
3384.856	1.632	3386596	WORD	n/a	wordpools/wordpool_EN.txt	PET	2	19	[0, 0, 0]	n/a	FR1	6	R1299T
3386.488	0.757	3388227	WORD_OFF	n/a	n/a	PET	2	19	[0, 0, 0]	n/a	FR1	6	R1299T
3387.245	1.627	3388984	WORD	n/a	wordpools/wordpool_EN.txt	WALL	3	19	[0, 0, 0]	n/a	FR1	6	R1299T
3388.872	0.963	3390611	WORD_OFF	n/a	n/a	WALL	3	19	[0, 0, 0]	n/a	FR1	6	R1299T
3389.835	1.621	3391574	WORD	n/a	wordpools/wordpool_EN.txt	PIT	4	19	[0, 0, 0]	n/a	FR1	6	R1299T
3391.456	1.023	3393195	WORD_OFF	n/a	n/a	PIT	4	19	[0, 0, 0]	n/a	FR1	6	R1299T
3392.479	1.628	3394218	WORD	n/a	wordpools/wordpool_EN.txt	HEN	5	19	[0, 0, 0]	n/a	FR1	6	R1299T
3394.107	1.031	3395846	WORD_OFF	n/a	n/a	HEN	5	19	[0, 0, 0]	n/a	FR1	6	R1299T
3395.138	1.635	3396877	WORD	n/a	wordpools/wordpool_EN.txt	CAVE	6	19	[0, 0, 0]	n/a	FR1	6	R1299T
3396.773	1.079	3398512	WORD_OFF	n/a	n/a	CAVE	6	19	[0, 0, 0]	n/a	FR1	6	R1299T
3397.852	1.622	3399591	WORD	n/a	wordpools/wordpool_EN.txt	HOSE	7	19	[0, 0, 0]	n/a	FR1	6	R1299T
3399.474	0.959	3401213	WORD_OFF	n/a	n/a	HOSE	7	19	[0, 0, 0]	n/a	FR1	6	R1299T
3400.433	1.625	3402172	WORD	n/a	wordpools/wordpool_EN.txt	HORN	8	19	[0, 0, 0]	n/a	FR1	6	R1299T
3402.058	1.143	3403797	WORD_OFF	n/a	n/a	HORN	8	19	[0, 0, 0]	n/a	FR1	6	R1299T
3403.201	1.624	3404940	WORD	n/a	wordpools/wordpool_EN.txt	BOOT	9	19	[0, 0, 0]	n/a	FR1	6	R1299T
3404.825	0.871	3406564	WORD_OFF	n/a	n/a	BOOT	9	19	[0, 0, 0]	n/a	FR1	6	R1299T
3405.696	1.63	3407435	WORD	n/a	wordpools/wordpool_EN.txt	TOAD	10	19	[0, 0, 0]	n/a	FR1	6	R1299T
3407.326	0.995	3409065	WORD_OFF	n/a	n/a	TOAD	10	19	[0, 0, 0]	n/a	FR1	6	R1299T
3408.321	1.622	3410059	WORD	n/a	wordpools/wordpool_EN.txt	CASH	11	19	[0, 0, 0]	n/a	FR1	6	R1299T
3409.943	1.103	3411681	WORD_OFF	n/a	n/a	CASH	11	19	[0, 0, 0]	n/a	FR1	6	R1299T
3411.046	1.629	3412784	WORD	n/a	wordpools/wordpool_EN.txt	TRUCK	12	19	[0, 0, 0]	n/a	FR1	6	R1299T
3412.675	0.001	3414413	WORD_OFF	n/a	n/a	TRUCK	12	19	[0, 0, 0]	n/a	FR1	6	R1299T
3412.676	0.0	3414414	ENCODING_END	n/a	n/a	n/a	-999	19	[0, 0, 0]	n/a	FR1	6	R1299T
3412.676	0.0	3414414	DISTRACT_START	n/a	n/a	n/a	-999	19	[0, 0, 0]	n/a	FR1	6	R1299T
3412.676	0.017	3414414	START	n/a	n/a	n/a	-999	19	[-999, -999, -999]	n/a	FR1	6	R1299T
3412.693	6.634	3414431	PROB	6.634	n/a	n/a	-999	19	[4, 4, 5]	13	FR1	6	R1299T
3419.327	8.235	3421065	PROB	8.235	n/a	n/a	-999	19	[7, 4, 7]	18	FR1	6	R1299T
3427.562	4.518	3429300	PROB	4.518	n/a	n/a	-999	19	[2, 3, 2]	7	FR1	6	R1299T
3432.08	3.187	3433817	PROB	3.187	n/a	n/a	-999	19	[9, 4, 5]	18	FR1	6	R1299T
3435.267	0.014	3437004	STOP	n/a	n/a	n/a	-999	19	[-999, -999, -999]	n/a	FR1	6	R1299T
3435.281	0.504	3437018	DISTRACT_END	n/a	n/a	n/a	-999	19	[0, 0, 0]	n/a	FR1	6	R1299T
3435.785	1.629	3437522	RETRIEVAL_ORIENT_START	n/a	n/a	n/a	-999	19	[0, 0, 0]	n/a	FR1	6	R1299T
3437.414	0.001	3439151	RETRIEVAL_ORIENT_END	n/a	n/a	n/a	-999	19	[0, 0, 0]	n/a	FR1	6	R1299T
3437.415	3.3	3439152	REC_START	n/a	n/a	n/a	-999	19	[0, 0, 0]	n/a	FR1	6	R1299T
3440.715	26.713	3442452	REC_WORD	26.713	n/a	PIT	4	19	[0, 0, 0]	n/a	FR1	6	R1299T
3467.428	0.0	3469164	REC_END	n/a	n/a	n/a	-999	19	[0, 0, 0]	n/a	FR1	6	R1299T
3467.428	0.014	3469164	TRIAL_END	n/a	n/a	n/a	-999	19	[0, 0, 0]	n/a	FR1	6	R1299T
3467.442	0.0	3469178	TRIAL_START	n/a	n/a	n/a	-999	20	[0, 0, 0]	n/a	FR1	6	R1299T
3467.442	0.0	3469178	TRIAL	n/a	n/a	n/a	-999	20	[0, 0, 0]	n/a	FR1	6	R1299T
3467.442	3.628	3469178	WAITING_START	n/a	n/a	n/a	-999	20	[0, 0, 0]	n/a	FR1	6	R1299T
3471.07	0.001	3472806	WAITING_END	n/a	n/a	n/a	-999	20	[0, 0, 0]	n/a	FR1	6	R1299T
3471.071	10.428	3472807	COUNTDOWN_START	n/a	n/a	n/a	-999	20	[0, 0, 0]	n/a	FR1	6	R1299T
3481.499	0.001	3483234	COUNTDOWN_END	n/a	n/a	n/a	-999	20	[0, 0, 0]	n/a	FR1	6	R1299T
3481.5	1.139	3483235	ORIENT_START	n/a	n/a	n/a	-999	20	[0, 0, 0]	n/a	FR1	6	R1299T
3482.639	0.001	3484374	ORIENT_END	n/a	n/a	n/a	-999	20	[0, 0, 0]	n/a	FR1	6	R1299T
3482.64	0.803	3484375	ENCODING_START	n/a	n/a	n/a	-999	20	[0, 0, 0]	n/a	FR1	6	R1299T
3483.443	1.63	3485178	WORD	n/a	wordpools/wordpool_EN.txt	GRAPE	1	20	[0, 0, 0]	n/a	FR1	6	R1299T
3485.073	0.9	3486808	WORD_OFF	n/a	n/a	GRAPE	1	20	[0, 0, 0]	n/a	FR1	6	R1299T
3485.973	1.634	3487708	WORD	n/a	wordpools/wordpool_EN.txt	BED	2	20	[0, 0, 0]	n/a	FR1	6	R1299T
3487.607	0.836	3489342	WORD_OFF	n/a	n/a	BED	2	20	[0, 0, 0]	n/a	FR1	6	R1299T
3488.443	1.631	3490178	WORD	n/a	wordpools/wordpool_EN.txt	SKY	3	20	[0, 0, 0]	n/a	FR1	6	R1299T
3490.074	0.771	3491809	WORD_OFF	n/a	n/a	SKY	3	20	[0, 0, 0]	n/a	FR1	6	R1299T
3490.845	1.629	3492580	WORD	n/a	wordpools/wordpool_EN.txt	WOOD	4	20	[0, 0, 0]	n/a	FR1	6	R1299T
3492.474	1.135	3494209	WORD_OFF	n/a	n/a	WOOD	4	20	[0, 0, 0]	n/a	FR1	6	R1299T
3493.609	1.633	3495344	WORD	n/a	wordpools/wordpool_EN.txt	DUCK	5	20	[0, 0, 0]	n/a	FR1	6	R1299T
3495.242	1.051	3496977	WORD_OFF	n/a	n/a	DUCK	5	20	[0, 0, 0]	n/a	FR1	6	R1299T
3496.293	1.632	3498028	WORD	n/a	wordpools/wordpool_EN.txt	WORM	6	20	[0, 0, 0]	n/a	FR1	6	R1299T
3497.925	0.904	3499659	WORD_OFF	n/a	n/a	WORM	6	20	[0, 0, 0]	n/a	FR1	6	R1299T
3498.829	1.63	3500563	WORD	n/a	wordpools/wordpool_EN.txt	GOLD	7	20	[0, 0, 0]	n/a	FR1	6	R1299T
3500.459	1.124	3502193	WORD_OFF	n/a	n/a	GOLD	7	20	[0, 0, 0]	n/a	FR1	6	R1299T
3501.583	1.627	3503317	WORD	n/a	wordpools/wordpool_EN.txt	CANE	8	20	[0, 0, 0]	n/a	FR1	6	R1299T
3503.21	1.147	3504944	WORD_OFF	n/a	n/a	CANE	8	20	[0, 0, 0]	n/a	FR1	6	R1299T
3504.357	1.636	3506091	WORD	n/a	wordpools/wordpool_EN.txt	TIE	9	20	[0, 0, 0]	n/a	FR1	6	R1299T
3505.993	1.004	3507727	WORD_OFF	n/a	n/a	TIE	9	20	[0, 0, 0]	n/a	FR1	6	R1299T
3506.997	1.63	3508731	WORD	n/a	wordpools/wordpool_EN.txt	DRESS	10	20	[0, 0, 0]	n/a	FR1	6	R1299T
3508.627	1.141	3510361	WORD_OFF	n/a	n/a	DRESS	10	20	[0, 0, 0]	n/a	FR1	6	R1299T
3509.768	1.626	3511502	WORD	n/a	wordpools/wordpool_EN.txt	STORM	11	20	[0, 0, 0]	n/a	FR1	6	R1299T
3511.394	1.144	3513128	WORD_OFF	n/a	n/a	STORM	11	20	[0, 0, 0]	n/a	FR1	6	R1299T
3512.538	1.624	3514272	WORD	n/a	wordpools/wordpool_EN.txt	BATH	12	20	[0, 0, 0]	n/a	FR1	6	R1299T
3514.162	0.0	3515896	WORD_OFF	n/a	n/a	BATH	12	20	[0, 0, 0]	n/a	FR1	6	R1299T
3514.162	0.0	3515896	ENCODING_END	n/a	n/a	n/a	-999	20	[0, 0, 0]	n/a	FR1	6	R1299T
3514.162	0.001	3515896	DISTRACT_START	n/a	n/a	n/a	-999	20	[0, 0, 0]	n/a	FR1	6	R1299T
3514.163	0.015	3515897	START	n/a	n/a	n/a	-999	20	[-999, -999, -999]	n/a	FR1	6	R1299T
3514.178	5.483	3515912	PROB	5.483	n/a	n/a	-999	20	[5, 6, 9]	20	FR1	6	R1299T
3519.661	4.352	3521394	PROB	4.352	n/a	n/a	-999	20	[7, 7, 5]	19	FR1	6	R1299T
3524.013	4.618	3525746	PROB	4.618	n/a	n/a	-999	20	[2, 5, 3]	10	FR1	6	R1299T
3528.631	5.301	3530364	PROB	5.301	n/a	n/a	-999	20	[3, 6, 5]	14	FR1	6	R1299T
3533.932	3.835	3535665	PROB	3.835	n/a	n/a	-999	20	[4, 5, 1]	10	FR1	6	R1299T
3537.767	0.016	3539500	STOP	n/a	n/a	n/a	-999	20	[-999, -999, -999]	n/a	FR1	6	R1299T
3537.783	0.684	3539516	DISTRACT_END	n/a	n/a	n/a	-999	20	[0, 0, 0]	n/a	FR1	6	R1299T
3538.467	1.683	3540200	RETRIEVAL_ORIENT_START	n/a	n/a	n/a	-999	20	[0, 0, 0]	n/a	FR1	6	R1299T
3540.15	0.0	3541883	RETRIEVAL_ORIENT_END	n/a	n/a	n/a	-999	20	[0, 0, 0]	n/a	FR1	6	R1299T
3540.15	1.0	3541883	REC_START	n/a	n/a	n/a	-999	20	[0, 0, 0]	n/a	FR1	6	R1299T
3541.15	1.651	3542882	REC_WORD	1.651	n/a	BATH	12	20	[0, 0, 0]	n/a	FR1	6	R1299T
3542.801	5.918	3544533	REC_WORD	5.918	n/a	SKY	3	20	[0, 0, 0]	n/a	FR1	6	R1299T
3548.719	14.887	3550451	REC_WORD	14.887	n/a	TIE	9	20	[0, 0, 0]	n/a	FR1	6	R1299T
3563.606	6.555	3565337	REC_WORD	6.555	n/a	DRESS	10	20	[0, 0, 0]	n/a	FR1	6	R1299T
3570.161	0.0	3571892	REC_END	n/a	n/a	n/a	-999	20	[0, 0, 0]	n/a	FR1	6	R1299T
3570.161	0.014	3571892	TRIAL_END	n/a	n/a	n/a	-999	20	[0, 0, 0]	n/a	FR1	6	R1299T
3570.175	0.0	3571906	TRIAL_START	n/a	n/a	n/a	-999	21	[0, 0, 0]	n/a	FR1	6	R1299T
3570.175	0.001	3571906	TRIAL	n/a	n/a	n/a	-999	21	[0, 0, 0]	n/a	FR1	6	R1299T
3570.176	2.963	3571907	WAITING_START	n/a	n/a	n/a	-999	21	[0, 0, 0]	n/a	FR1	6	R1299T
3573.139	0.0	3574870	COUNTDOWN_START	n/a	n/a	n/a	-999	21	[0, 0, 0]	n/a	FR1	6	R1299T
3573.139	10.429	3574870	WAITING_END	n/a	n/a	n/a	-999	21	[0, 0, 0]	n/a	FR1	6	R1299T
3583.568	0.001	3585299	COUNTDOWN_END	n/a	n/a	n/a	-999	21	[0, 0, 0]	n/a	FR1	6	R1299T
3583.569	1.022	3585300	ORIENT_START	n/a	n/a	n/a	-999	21	[0, 0, 0]	n/a	FR1	6	R1299T
3584.591	0.001	3586322	ORIENT_END	n/a	n/a	n/a	-999	21	[0, 0, 0]	n/a	FR1	6	R1299T
3584.592	0.793	3586323	ENCODING_START	n/a	n/a	n/a	-999	21	[0, 0, 0]	n/a	FR1	6	R1299T
3585.385	1.623	3587116	WORD	n/a	wordpools/wordpool_EN.txt	FROG	1	21	[0, 0, 0]	n/a	FR1	6	R1299T
3587.008	0.819	3588738	WORD_OFF	n/a	n/a	FROG	1	21	[0, 0, 0]	n/a	FR1	6	R1299T
3587.827	1.632	3589557	WORD	n/a	wordpools/wordpool_EN.txt	TAIL	2	21	[0, 0, 0]	n/a	FR1	6	R1299T
3589.459	1.145	3591189	WORD_OFF	n/a	n/a	TAIL	2	21	[0, 0, 0]	n/a	FR1	6	R1299T
3590.604	1.638	3592334	WORD	n/a	wordpools/wordpool_EN.txt	MOUTH	3	21	[0, 0, 0]	n/a	FR1	6	R1299T
3592.242	0.779	3593972	WORD_OFF	n/a	n/a	MOUTH	3	21	[0, 0, 0]	n/a	FR1	6	R1299T
3593.021	1.622	3594751	WORD	n/a	wordpools/wordpool_EN.txt	SOAP	4	21	[0, 0, 0]	n/a	FR1	6	R1299T
3594.643	1.001	3596373	WORD_OFF	n/a	n/a	SOAP	4	21	[0, 0, 0]	n/a	FR1	6	R1299T
3595.644	1.633	3597374	WORD	n/a	wordpools/wordpool_EN.txt	PLATE	5	21	[0, 0, 0]	n/a	FR1	6	R1299T
3597.277	0.888	3599007	WORD_OFF	n/a	n/a	PLATE	5	21	[0, 0, 0]	n/a	FR1	6	R1299T
3598.165	1.629	3599895	WORD	n/a	wordpools/wordpool_EN.txt	SUIT	6	21	[0, 0, 0]	n/a	FR1	6	R1299T
3599.794	0.879	3601524	WORD_OFF	n/a	n/a	SUIT	6	21	[0, 0, 0]	n/a	FR1	6	R1299T
3600.673	1.638	3602403	WORD	n/a	wordpools/wordpool_EN.txt	BENCH	7	21	[0, 0, 0]	n/a	FR1	6	R1299T
3602.311	0.973	3604041	WORD_OFF	n/a	n/a	BENCH	7	21	[0, 0, 0]	n/a	FR1	6	R1299T
3603.284	1.627	3605014	WORD	n/a	wordpools/wordpool_EN.txt	CHIN	8	21	[0, 0, 0]	n/a	FR1	6	R1299T
3604.911	0.862	3606641	WORD_OFF	n/a	n/a	CHIN	8	21	[0, 0, 0]	n/a	FR1	6	R1299T
3605.773	1.622	3607503	WORD	n/a	wordpools/wordpool_EN.txt	YARD	9	21	[0, 0, 0]	n/a	FR1	6	R1299T
3607.395	0.802	3609125	WORD_OFF	n/a	n/a	YARD	9	21	[0, 0, 0]	n/a	FR1	6	R1299T
3608.197	1.632	3609926	WORD	n/a	wordpools/wordpool_EN.txt	CORN	10	21	[0, 0, 0]	n/a	FR1	6	R1299T
3609.829	1.068	3611558	WORD_OFF	n/a	n/a	CORN	10	21	[0, 0, 0]	n/a	FR1	6	R1299T
3610.897	1.632	3612626	WORD	n/a	wordpools/wordpool_EN.txt	GOAT	11	21	[0, 0, 0]	n/a	FR1	6	R1299T
3612.529	0.898	3614258	WORD_OFF	n/a	n/a	GOAT	11	21	[0, 0, 0]	n/a	FR1	6	R1299T
3613.427	1.636	3615156	WORD	n/a	wordpools/wordpool_EN.txt	CONE	12	21	[0, 0, 0]	n/a	FR1	6	R1299T
3615.063	0.001	3616792	WORD_OFF	n/a	n/a	CONE	12	21	[0, 0, 0]	n/a	FR1	6	R1299T
3615.064	0.0	3616793	ENCODING_END	n/a	n/a	n/a	-999	21	[0, 0, 0]	n/a	FR1	6	R1299T
3615.064	0.0	3616793	DISTRACT_START	n/a	n/a	n/a	-999	21	[0, 0, 0]	n/a	FR1	6	R1299T
3615.064	0.016	3616793	START	n/a	n/a	n/a	-999	21	[-999, -999, -999]	n/a	FR1	6	R1299T
3615.08	4.367	3616809	PROB	4.367	n/a	n/a	-999	21	[3, 8, 6]	17	FR1	6	R1299T
3619.447	2.584	3621176	PROB	2.584	n/a	n/a	-999	21	[1, 9, 1]	11	FR1	6	R1299T
3622.031	5.101	3623760	PROB	5.101	n/a	n/a	-999	21	[8, 9, 4]	21	FR1	6	R1299T
3627.132	4.167	3628861	PROB	4.167	n/a	n/a	-999	21	[6, 7, 4]	17	FR1	6	R1299T
3631.299	3.568	3633027	PROB	3.568	n/a	n/a	-999	21	[1, 7, 2]	10	FR1	6	R1299T
3634.867	3.817	3636595	PROB	3.817	n/a	n/a	-999	21	[9, 1, 7]	17	FR1	6	R1299T
3638.684	0.017	3640412	STOP	n/a	n/a	n/a	-999	21	[-999, -999, -999]	n/a	FR1	6	R1299T
3638.701	0.532	3640429	DISTRACT_END	n/a	n/a	n/a	-999	21	[0, 0, 0]	n/a	FR1	6	R1299T
3639.233	1.535	3640961	RETRIEVAL_ORIENT_START	n/a	n/a	n/a	-999	21	[0, 0, 0]	n/a	FR1	6	R1299T
3640.768	0.0	3642496	RETRIEVAL_ORIENT_END	n/a	n/a	n/a	-999	21	[0, 0, 0]	n/a	FR1	6	R1299T
3640.768	2.717	3642496	REC_START	n/a	n/a	n/a	-999	21	[0, 0, 0]	n/a	FR1	6	R1299T
3643.485	4.163	3645213	REC_WORD	4.163	n/a	BENCH	7	21	[0, 0, 0]	n/a	FR1	6	R1299T
3647.648	0.445	3649376	REC_WORD_VV	0.445	n/a	<>	-999	21	[0, 0, 0]	n/a	FR1	6	R1299T
3648.093	2.428	3649821	REC_WORD	2.428	n/a	TIE	-999	21	[0, 0, 0]	n/a	FR1	6	R1299T
3650.521	7.188	3652249	REC_WORD	7.188	n/a	YARD	9	21	[0, 0, 0]	n/a	FR1	6	R1299T
3657.709	1.0	3659436	REC_WORD	1.0	n/a	SUIT	6	21	[0, 0, 0]	n/a	FR1	6	R1299T
3658.709	12.071	3660436	REC_WORD_VV	12.071	n/a	<>	-999	21	[0, 0, 0]	n/a	FR1	6	R1299T
3670.78	0.0	3672507	REC_END	n/a	n/a	n/a	-999	21	[0, 0, 0]	n/a	FR1	6	R1299T
3670.78	0.015	3672507	TRIAL_END	n/a	n/a	n/a	-999	21	[0, 0, 0]	n/a	FR1	6	R1299T
3670.795	0.0	3672522	TRIAL_START	n/a	n/a	n/a	-999	22	[0, 0, 0]	n/a	FR1	6	R1299T
3670.795	0.0	3672522	TRIAL	n/a	n/a	n/a	-999	22	[0, 0, 0]	n/a	FR1	6	R1299T
3670.795	3.646	3672522	WAITING_START	n/a	n/a	n/a	-999	22	[0, 0, 0]	n/a	FR1	6	R1299T
3674.441	0.0	3676168	WAITING_END	n/a	n/a	n/a	-999	22	[0, 0, 0]	n/a	FR1	6	R1299T
3674.441	10.428	3676168	COUNTDOWN_START	n/a	n/a	n/a	-999	22	[0, 0, 0]	n/a	FR1	6	R1299T
3684.869	0.001	3686595	COUNTDOWN_END	n/a	n/a	n/a	-999	22	[0, 0, 0]	n/a	FR1	6	R1299T
3684.87	1.14	3686596	ORIENT_START	n/a	n/a	n/a	-999	22	[0, 0, 0]	n/a	FR1	6	R1299T
3686.01	0.0	3687736	ORIENT_END	n/a	n/a	n/a	-999	22	[0, 0, 0]	n/a	FR1	6	R1299T
3686.01	0.992	3687736	ENCODING_START	n/a	n/a	n/a	-999	22	[0, 0, 0]	n/a	FR1	6	R1299T
3687.002	1.625	3688728	WORD	n/a	wordpools/wordpool_EN.txt	PHONE	1	22	[0, 0, 0]	n/a	FR1	6	R1299T
3688.627	1.102	3690353	WORD_OFF	n/a	n/a	PHONE	1	22	[0, 0, 0]	n/a	FR1	6	R1299T
3689.729	1.632	3691455	WORD	n/a	wordpools/wordpool_EN.txt	SUN	2	22	[0, 0, 0]	n/a	FR1	6	R1299T
3691.361	0.84	3693087	WORD_OFF	n/a	n/a	SUN	2	22	[0, 0, 0]	n/a	FR1	6	R1299T
3692.201	1.627	3693927	WORD	n/a	wordpools/wordpool_EN.txt	MILK	3	22	[0, 0, 0]	n/a	FR1	6	R1299T
3693.828	0.875	3695554	WORD_OFF	n/a	n/a	MILK	3	22	[0, 0, 0]	n/a	FR1	6	R1299T
3694.703	1.625	3696429	WORD	n/a	wordpools/wordpool_EN.txt	FLEA	4	22	[0, 0, 0]	n/a	FR1	6	R1299T
3696.328	1.039	3698054	WORD_OFF	n/a	n/a	FLEA	4	22	[0, 0, 0]	n/a	FR1	6	R1299T
3697.367	1.628	3699092	WORD	n/a	wordpools/wordpool_EN.txt	GRASS	5	22	[0, 0, 0]	n/a	FR1	6	R1299T
3698.995	0.79	3700720	WORD_OFF	n/a	n/a	GRASS	5	22	[0, 0, 0]	n/a	FR1	6	R1299T
3699.785	1.627	3701510	WORD	n/a	wordpools/wordpool_EN.txt	FLAG	6	22	[0, 0, 0]	n/a	FR1	6	R1299T
3701.412	0.786	3703137	WORD_OFF	n/a	n/a	FLAG	6	22	[0, 0, 0]	n/a	FR1	6	R1299T
3702.198	1.631	3703923	WORD	n/a	wordpools/wordpool_EN.txt	TOE	7	22	[0, 0, 0]	n/a	FR1	6	R1299T
3703.829	0.955	3705554	WORD_OFF	n/a	n/a	TOE	7	22	[0, 0, 0]	n/a	FR1	6	R1299T
3704.784	1.629	3706509	WORD	n/a	wordpools/wordpool_EN.txt	TRAY	8	22	[0, 0, 0]	n/a	FR1	6	R1299T
3706.413	1.093	3708138	WORD_OFF	n/a	n/a	TRAY	8	22	[0, 0, 0]	n/a	FR1	6	R1299T
3707.506	1.624	3709231	WORD	n/a	wordpools/wordpool_EN.txt	LOCK	9	22	[0, 0, 0]	n/a	FR1	6	R1299T
3709.13	0.773	3710855	WORD_OFF	n/a	n/a	LOCK	9	22	[0, 0, 0]	n/a	FR1	6	R1299T
3709.903	1.628	3711628	WORD	n/a	wordpools/wordpool_EN.txt	SLIME	10	22	[0, 0, 0]	n/a	FR1	6	R1299T
3711.531	0.823	3713256	WORD_OFF	n/a	n/a	SLIME	10	22	[0, 0, 0]	n/a	FR1	6	R1299T
3712.354	1.627	3714079	WORD	n/a	wordpools/wordpool_EN.txt	JAR	11	22	[0, 0, 0]	n/a	FR1	6	R1299T
3713.981	0.81	3715706	WORD_OFF	n/a	n/a	JAR	11	22	[0, 0, 0]	n/a	FR1	6	R1299T
3714.791	1.624	3716516	WORD	n/a	wordpools/wordpool_EN.txt	CHALK	12	22	[0, 0, 0]	n/a	FR1	6	R1299T
3716.415	0.0	3718140	WORD_OFF	n/a	n/a	CHALK	12	22	[0, 0, 0]	n/a	FR1	6	R1299T
3716.415	0.001	3718140	ENCODING_END	n/a	n/a	n/a	-999	22	[0, 0, 0]	n/a	FR1	6	R1299T
3716.416	0.0	3718141	DISTRACT_START	n/a	n/a	n/a	-999	22	[0, 0, 0]	n/a	FR1	6	R1299T
3716.416	0.015	3718141	START	n/a	n/a	n/a	-999	22	[-999, -999, -999]	n/a	FR1	6	R1299T
3716.431	5.185	3718156	PROB	5.185	n/a	n/a	-999	22	[2, 8, 2]	12	FR1	6	R1299T
3721.616	4.801	3723340	PROB	4.801	n/a	n/a	-999	22	[6, 5, 3]	14	FR1	6	R1299T
3726.417	4.684	3728141	PROB	4.684	n/a	n/a	-999	22	[9, 1, 3]	13	FR1	6	R1299T
3731.101	5.514	3732825	PROB	5.514	n/a	n/a	-999	22	[7, 6, 6]	19	FR1	6	R1299T
3736.615	0.02	3738339	STOP	n/a	n/a	n/a	-999	22	[-999, -999, -999]	n/a	FR1	6	R1299T
3736.635	0.668	3738359	DISTRACT_END	n/a	n/a	n/a	-999	22	[0, 0, 0]	n/a	FR1	6	R1299T
3737.303	1.633	3739027	RETRIEVAL_ORIENT_START	n/a	n/a	n/a	-999	22	[0, 0, 0]	n/a	FR1	6	R1299T
3738.936	0.0	3740660	RETRIEVAL_ORIENT_END	n/a	n/a	n/a	-999	22	[0, 0, 0]	n/a	FR1	6	R1299T
3738.936	14.952	3740660	REC_START	n/a	n/a	n/a	-999	22	[0, 0, 0]	n/a	FR1	6	R1299T
3753.888	15.063	3755611	REC_WORD_VV	15.063	n/a	<>	-999	22	[0, 0, 0]	n/a	FR1	6	R1299T
3768.951	0.0	3770673	REC_END	n/a	n/a	n/a	-999	22	[0, 0, 0]	n/a	FR1	6	R1299T
3768.951	0.016	3770673	TRIAL_END	n/a	n/a	n/a	-999	22	[0, 0, 0]	n/a	FR1	6	R1299T
3768.967	0.0	3770689	TRIAL_START	n/a	n/a	n/a	-999	23	[0, 0, 0]	n/a	FR1	6	R1299T
3768.967	0.0	3770689	TRIAL	n/a	n/a	n/a	-999	23	[0, 0, 0]	n/a	FR1	6	R1299T
3768.967	3.992	3770689	WAITING_START	n/a	n/a	n/a	-999	23	[0, 0, 0]	n/a	FR1	6	R1299T
3772.959	0.0	3774681	WAITING_END	n/a	n/a	n/a	-999	23	[0, 0, 0]	n/a	FR1	6	R1299T
3772.959	10.429	3774681	COUNTDOWN_START	n/a	n/a	n/a	-999	23	[0, 0, 0]	n/a	FR1	6	R1299T
3783.388	0.0	3785110	ORIENT_START	n/a	n/a	n/a	-999	23	[0, 0, 0]	n/a	FR1	6	R1299T
3783.388	1.073	3785110	COUNTDOWN_END	n/a	n/a	n/a	-999	23	[0, 0, 0]	n/a	FR1	6	R1299T
3784.461	0.0	3786183	ORIENT_END	n/a	n/a	n/a	-999	23	[0, 0, 0]	n/a	FR1	6	R1299T
3784.461	1.077	3786183	ENCODING_START	n/a	n/a	n/a	-999	23	[0, 0, 0]	n/a	FR1	6	R1299T
3785.538	1.623	3787260	WORD	n/a	wordpools/wordpool_EN.txt	BEACH	1	23	[0, 0, 0]	n/a	FR1	6	R1299T
3787.161	0.943	3788882	WORD_OFF	n/a	n/a	BEACH	1	23	[0, 0, 0]	n/a	FR1	6	R1299T
3788.104	1.624	3789825	WORD	n/a	wordpools/wordpool_EN.txt	ARM	2	23	[0, 0, 0]	n/a	FR1	6	R1299T
3789.728	0.81	3791449	WORD_OFF	n/a	n/a	ARM	2	23	[0, 0, 0]	n/a	FR1	6	R1299T
3790.538	1.624	3792259	WORD	n/a	wordpools/wordpool_EN.txt	BARN	3	23	[0, 0, 0]	n/a	FR1	6	R1299T
3792.162	0.812	3793883	WORD_OFF	n/a	n/a	BARN	3	23	[0, 0, 0]	n/a	FR1	6	R1299T
3792.974	1.622	3794695	WORD	n/a	wordpools/wordpool_EN.txt	STAIR	4	23	[0, 0, 0]	n/a	FR1	6	R1299T
3794.596	0.764	3796317	WORD_OFF	n/a	n/a	STAIR	4	23	[0, 0, 0]	n/a	FR1	6	R1299T
3795.36	1.636	3797081	WORD	n/a	wordpools/wordpool_EN.txt	TEETH	5	23	[0, 0, 0]	n/a	FR1	6	R1299T
3796.996	1.06	3798717	WORD_OFF	n/a	n/a	TEETH	5	23	[0, 0, 0]	n/a	FR1	6	R1299T
3798.056	1.623	3799777	WORD	n/a	wordpools/wordpool_EN.txt	RAKE	6	23	[0, 0, 0]	n/a	FR1	6	R1299T
3799.679	0.989	3801400	WORD_OFF	n/a	n/a	RAKE	6	23	[0, 0, 0]	n/a	FR1	6	R1299T
3800.668	1.629	3802389	WORD	n/a	wordpools/wordpool_EN.txt	SKUNK	7	23	[0, 0, 0]	n/a	FR1	6	R1299T
