onset	duration	sample	trial_type	response_time	stim_file	item_name	serialpos	list	test	answer	experiment	session	subject
0.0	0.0	7120	INSTRUCT_START	n/a	n/a	n/a	-999	-999	[0, 0, 0]	n/a	FR1	0	R1147P
0.0	11.213	7120	INSTRUCT_END	n/a	n/a	n/a	-999	-999	[0, 0, 0]	n/a	FR1	0	R1147P
11.213	0.0	18332	SESS_START	n/a	n/a	n/a	-999	-999	[0, 0, 0]	n/a	FR1	0	R1147P
11.213	244.564	18332	MIC_TEST	n/a	n/a	n/a	-999	-999	[0, 0, 0]	n/a	FR1	0	R1147P
255.777	4.604	262884	PRACTICE_TRIAL	n/a	n/a	n/a	-999	-1	[0, 0, 0]	n/a	FR1	0	R1147P
260.381	10.428	267488	COUNTDOWN_START	n/a	n/a	n/a	-999	-1	[0, 0, 0]	n/a	FR1	0	R1147P
270.809	0.008	277915	COUNTDOWN_END	n/a	n/a	n/a	-999	-1	[0, 0, 0]	n/a	FR1	0	R1147P
270.817	1.618	277923	PRACTICE_ORIENT	n/a	n/a	n/a	-999	-1	[0, 0, 0]	n/a	FR1	0	R1147P
272.435	2.017	279541	PRACTICE_ORIENT_OFF	n/a	n/a	n/a	-999	-1	[0, 0, 0]	n/a	FR1	0	R1147P
274.452	1.617	281558	PRACTICE_WORD	n/a	n/a	ATTIC	1	-1	[0, 0, 0]	n/a	FR1	0	R1147P
276.069	0.816	283175	PRACTICE_WORD_OFF	n/a	n/a	ATTIC	-999	-1	[0, 0, 0]	n/a	FR1	0	R1147P
276.885	1.618	283991	PRACTICE_WORD	n/a	n/a	WAGON	2	-1	[0, 0, 0]	n/a	FR1	0	R1147P
278.503	0.866	285609	PRACTICE_WORD_OFF	n/a	n/a	WAGON	-999	-1	[0, 0, 0]	n/a	FR1	0	R1147P
279.369	1.617	286475	PRACTICE_WORD	n/a	n/a	CAMEL	3	-1	[0, 0, 0]	n/a	FR1	0	R1147P
280.986	0.767	288092	PRACTICE_WORD_OFF	n/a	n/a	CAMEL	-999	-1	[0, 0, 0]	n/a	FR1	0	R1147P
281.753	1.617	288859	PRACTICE_WORD	n/a	n/a	RHINO	4	-1	[0, 0, 0]	n/a	FR1	0	R1147P
283.37	1.0	290476	PRACTICE_WORD_OFF	n/a	n/a	RHINO	-999	-1	[0, 0, 0]	n/a	FR1	0	R1147P
284.37	1.617	291475	PRACTICE_WORD	n/a	n/a	RING	5	-1	[0, 0, 0]	n/a	FR1	0	R1147P
285.987	0.783	293092	PRACTICE_WORD_OFF	n/a	n/a	RING	-999	-1	[0, 0, 0]	n/a	FR1	0	R1147P
286.77	1.618	293875	PRACTICE_WORD	n/a	n/a	IRON	6	-1	[0, 0, 0]	n/a	FR1	0	R1147P
288.388	0.85	295493	PRACTICE_WORD_OFF	n/a	n/a	IRON	-999	-1	[0, 0, 0]	n/a	FR1	0	R1147P
289.238	1.616	296343	PRACTICE_WORD	n/a	n/a	FLOOD	7	-1	[0, 0, 0]	n/a	FR1	0	R1147P
290.854	0.884	297959	PRACTICE_WORD_OFF	n/a	n/a	FLOOD	-999	-1	[0, 0, 0]	n/a	FR1	0	R1147P
291.738	1.617	298843	PRACTICE_WORD	n/a	n/a	COTTON	8	-1	[0, 0, 0]	n/a	FR1	0	R1147P
293.355	0.867	300460	PRACTICE_WORD_OFF	n/a	n/a	COTTON	-999	-1	[0, 0, 0]	n/a	FR1	0	R1147P
294.222	1.616	301327	PRACTICE_WORD	n/a	n/a	CHEST	9	-1	[0, 0, 0]	n/a	FR1	0	R1147P
295.838	0.768	302943	PRACTICE_WORD_OFF	n/a	n/a	CHEST	-999	-1	[0, 0, 0]	n/a	FR1	0	R1147P
296.606	1.617	303711	PRACTICE_WORD	n/a	n/a	WATCH	10	-1	[0, 0, 0]	n/a	FR1	0	R1147P
298.223	0.984	305328	PRACTICE_WORD_OFF	n/a	n/a	WATCH	-999	-1	[0, 0, 0]	n/a	FR1	0	R1147P
299.207	1.616	306312	PRACTICE_WORD	n/a	n/a	BEAM	11	-1	[0, 0, 0]	n/a	FR1	0	R1147P
300.823	0.784	307928	PRACTICE_WORD_OFF	n/a	n/a	BEAM	-999	-1	[0, 0, 0]	n/a	FR1	0	R1147P
301.607	1.617	308712	PRACTICE_WORD	n/a	n/a	TONGUE	12	-1	[0, 0, 0]	n/a	FR1	0	R1147P
303.224	0.0	310329	PRACTICE_WORD_OFF	n/a	n/a	TONGUE	-999	-1	[0, 0, 0]	n/a	FR1	0	R1147P
303.224	0.0	310329	DISTRACT_START	n/a	n/a	n/a	-999	-1	[0, 0, 0]	n/a	FR1	0	R1147P
303.224	0.017	310329	START	n/a	n/a	n/a	-999	-1	[-999, -999, -999]	n/a	FR1	0	R1147P
303.241	6.318	310346	PROB	6.318	n/a	n/a	-999	-1	[6, 5, 7]	18	FR1	0	R1147P
309.559	3.384	316663	PROB	3.384	n/a	n/a	-999	-1	[1, 2, 6]	9	FR1	0	R1147P
312.943	3.883	320047	PROB	3.883	n/a	n/a	-999	-1	[6, 1, 8]	15	FR1	0	R1147P
316.826	4.017	323930	PROB	4.017	n/a	n/a	-999	-1	[8, 9, 2]	19	FR1	0	R1147P
320.843	3.849	327947	PROB	3.849	n/a	n/a	-999	-1	[7, 5, 2]	14	FR1	0	R1147P
324.692	0.019	331795	STOP	n/a	n/a	n/a	-999	-1	[-999, -999, -999]	n/a	FR1	0	R1147P
324.711	0.601	331814	DISTRACT_END	n/a	n/a	n/a	-999	-1	[0, 0, 0]	n/a	FR1	0	R1147P
325.312	0.516	332415	RETRIEVAL_ORIENT	n/a	n/a	n/a	-999	-1	[0, 0, 0]	n/a	FR1	0	R1147P
325.828	30.011	332931	PRACTICE_REC_START	n/a	n/a	n/a	-999	-1	[0, 0, 0]	n/a	FR1	0	R1147P
355.839	14.348	362941	PRACTICE_REC_END	n/a	n/a	n/a	-999	-1	[0, 0, 0]	n/a	FR1	0	R1147P
370.187	0.5	377288	TRIAL	n/a	n/a	n/a	-999	1	[0, 0, 0]	n/a	FR1	0	R1147P
370.687	10.428	377788	COUNTDOWN_START	n/a	n/a	n/a	-999	1	[0, 0, 0]	n/a	FR1	0	R1147P
381.115	0.007	388216	COUNTDOWN_END	n/a	n/a	n/a	-999	1	[0, 0, 0]	n/a	FR1	0	R1147P
381.122	1.617	388223	ORIENT	n/a	n/a	n/a	-999	1	[0, 0, 0]	n/a	FR1	0	R1147P
382.739	2.133	389839	ORIENT_OFF	n/a	n/a	n/a	-999	1	[0, 0, 0]	n/a	FR1	0	R1147P
384.872	1.618	391972	WORD	n/a	wordpools/wordpool_EN.txt	WOOD	1	1	[0, 0, 0]	n/a	FR1	0	R1147P
386.49	0.783	393590	WORD_OFF	n/a	n/a	WOOD	1	1	[0, 0, 0]	n/a	FR1	0	R1147P
387.273	1.616	394373	WORD	n/a	wordpools/wordpool_EN.txt	STEM	2	1	[0, 0, 0]	n/a	FR1	0	R1147P
388.889	0.934	395989	WORD_OFF	n/a	n/a	STEM	2	1	[0, 0, 0]	n/a	FR1	0	R1147P
389.823	1.618	396923	WORD	n/a	wordpools/wordpool_EN.txt	SEED	3	1	[0, 0, 0]	n/a	FR1	0	R1147P
391.441	0.867	398541	WORD_OFF	n/a	n/a	SEED	3	1	[0, 0, 0]	n/a	FR1	0	R1147P
392.308	1.615	399408	WORD	n/a	wordpools/wordpool_EN.txt	HEART	4	1	[0, 0, 0]	n/a	FR1	0	R1147P
393.923	1.018	401023	WORD_OFF	n/a	n/a	HEART	4	1	[0, 0, 0]	n/a	FR1	0	R1147P
394.941	1.617	402041	WORD	n/a	wordpools/wordpool_EN.txt	HOUSE	5	1	[0, 0, 0]	n/a	FR1	0	R1147P
396.558	0.884	403658	WORD_OFF	n/a	n/a	HOUSE	5	1	[0, 0, 0]	n/a	FR1	0	R1147P
397.442	1.617	404542	WORD	n/a	wordpools/wordpool_EN.txt	MOOSE	6	1	[0, 0, 0]	n/a	FR1	0	R1147P
399.059	0.782	406159	WORD_OFF	n/a	n/a	MOOSE	6	1	[0, 0, 0]	n/a	FR1	0	R1147P
399.841	1.601	406941	WORD	n/a	wordpools/wordpool_EN.txt	ROPE	7	1	[0, 0, 0]	n/a	FR1	0	R1147P
401.442	0.951	408542	WORD_OFF	n/a	n/a	ROPE	7	1	[0, 0, 0]	n/a	FR1	0	R1147P
402.393	1.617	409492	WORD	n/a	wordpools/wordpool_EN.txt	COW	8	1	[0, 0, 0]	n/a	FR1	0	R1147P
404.01	0.866	411109	WORD_OFF	n/a	n/a	COW	8	1	[0, 0, 0]	n/a	FR1	0	R1147P
404.876	1.618	411975	WORD	n/a	wordpools/wordpool_EN.txt	SNOW	9	1	[0, 0, 0]	n/a	FR1	0	R1147P
406.494	0.95	413593	WORD_OFF	n/a	n/a	SNOW	9	1	[0, 0, 0]	n/a	FR1	0	R1147P
407.444	1.617	414543	WORD	n/a	wordpools/wordpool_EN.txt	BEAR	10	1	[0, 0, 0]	n/a	FR1	0	R1147P
409.061	0.9	416160	WORD_OFF	n/a	n/a	BEAR	10	1	[0, 0, 0]	n/a	FR1	0	R1147P
409.961	1.617	417060	WORD	n/a	wordpools/wordpool_EN.txt	LAKE	11	1	[0, 0, 0]	n/a	FR1	0	R1147P
411.578	0.85	418677	WORD_OFF	n/a	n/a	LAKE	11	1	[0, 0, 0]	n/a	FR1	0	R1147P
412.428	1.617	419527	WORD	n/a	wordpools/wordpool_EN.txt	MAZE	12	1	[0, 0, 0]	n/a	FR1	0	R1147P
414.045	0.0	421144	WORD_OFF	n/a	n/a	MAZE	12	1	[0, 0, 0]	n/a	FR1	0	R1147P
414.045	0.0	421144	DISTRACT_START	n/a	n/a	n/a	-999	1	[0, 0, 0]	n/a	FR1	0	R1147P
414.045	0.017	421144	START	n/a	n/a	n/a	-999	1	[-999, -999, -999]	n/a	FR1	0	R1147P
414.062	5.334	421161	PROB	5.334	n/a	n/a	-999	1	[4, 9, 6]	19	FR1	0	R1147P
419.396	3.416	426495	PROB	3.416	n/a	n/a	-999	1	[2, 8, 1]	10	FR1	0	R1147P
422.812	7.286	429910	PROB	7.286	n/a	n/a	-999	1	[8, 7, 3]	18	FR1	0	R1147P
430.098	3.384	437196	PROB	3.384	n/a	n/a	-999	1	[9, 3, 6]	18	FR1	0	R1147P
433.482	5.361	440580	PROB	5.361	n/a	n/a	-999	1	[5, 6, 4]	15	FR1	0	R1147P
438.843	0.022	445941	STOP	n/a	n/a	n/a	-999	1	[-999, -999, -999]	n/a	FR1	0	R1147P
438.865	0.685	445963	DISTRACT_END	n/a	n/a	n/a	-999	1	[0, 0, 0]	n/a	FR1	0	R1147P
439.55	0.517	446648	RETRIEVAL_ORIENT	n/a	n/a	n/a	-999	1	[0, 0, 0]	n/a	FR1	0	R1147P
440.067	2.425	447165	REC_START	n/a	n/a	n/a	-999	1	[0, 0, 0]	n/a	FR1	0	R1147P
442.492	0.523	449589	REC_WORD	0.523	n/a	WOOD	1	1	[0, 0, 0]	n/a	FR1	0	R1147P
443.015	1.665	450112	REC_WORD	1.665	n/a	STEM	2	1	[0, 0, 0]	n/a	FR1	0	R1147P
444.68	9.908	451777	REC_WORD	9.908	n/a	HOUSE	5	1	[0, 0, 0]	n/a	FR1	0	R1147P
454.588	15.49	461685	REC_WORD_VV	15.49	n/a	<>	-999	1	[0, 0, 0]	n/a	FR1	0	R1147P
470.078	88.044	477174	REC_END	n/a	n/a	n/a	-999	1	[0, 0, 0]	n/a	FR1	0	R1147P
558.122	0.5	565214	TRIAL	n/a	n/a	n/a	-999	2	[0, 0, 0]	n/a	FR1	0	R1147P
558.622	10.428	565714	COUNTDOWN_START	n/a	n/a	n/a	-999	2	[0, 0, 0]	n/a	FR1	0	R1147P
569.05	0.008	576141	COUNTDOWN_END	n/a	n/a	n/a	-999	2	[0, 0, 0]	n/a	FR1	0	R1147P
569.058	1.616	576149	ORIENT	n/a	n/a	n/a	-999	2	[0, 0, 0]	n/a	FR1	0	R1147P
570.674	1.968	577765	ORIENT_OFF	n/a	n/a	n/a	-999	2	[0, 0, 0]	n/a	FR1	0	R1147P
572.642	1.616	579733	WORD	n/a	wordpools/wordpool_EN.txt	HILL	1	2	[0, 0, 0]	n/a	FR1	0	R1147P
574.258	0.784	581349	WORD_OFF	n/a	n/a	HILL	1	2	[0, 0, 0]	n/a	FR1	0	R1147P
575.042	1.617	582133	WORD	n/a	wordpools/wordpool_EN.txt	BOWL	2	2	[0, 0, 0]	n/a	FR1	0	R1147P
576.659	0.85	583750	WORD_OFF	n/a	n/a	BOWL	2	2	[0, 0, 0]	n/a	FR1	0	R1147P
577.509	1.617	584600	WORD	n/a	wordpools/wordpool_EN.txt	GLASS	3	2	[0, 0, 0]	n/a	FR1	0	R1147P
579.126	0.95	586217	WORD_OFF	n/a	n/a	GLASS	3	2	[0, 0, 0]	n/a	FR1	0	R1147P
580.076	1.617	587166	WORD	n/a	wordpools/wordpool_EN.txt	FOOD	4	2	[0, 0, 0]	n/a	FR1	0	R1147P
581.693	0.8	588783	WORD_OFF	n/a	n/a	FOOD	4	2	[0, 0, 0]	n/a	FR1	0	R1147P
582.493	1.617	589583	WORD	n/a	wordpools/wordpool_EN.txt	BED	5	2	[0, 0, 0]	n/a	FR1	0	R1147P
584.11	0.851	591200	WORD_OFF	n/a	n/a	BED	5	2	[0, 0, 0]	n/a	FR1	0	R1147P
584.961	1.616	592051	WORD	n/a	wordpools/wordpool_EN.txt	BENCH	6	2	[0, 0, 0]	n/a	FR1	0	R1147P
586.577	0.834	593667	WORD_OFF	n/a	n/a	BENCH	6	2	[0, 0, 0]	n/a	FR1	0	R1147P
587.411	1.617	594501	WORD	n/a	wordpools/wordpool_EN.txt	SHARK	7	2	[0, 0, 0]	n/a	FR1	0	R1147P
589.028	0.882	596118	WORD_OFF	n/a	n/a	SHARK	7	2	[0, 0, 0]	n/a	FR1	0	R1147P
589.91	1.618	597000	WORD	n/a	wordpools/wordpool_EN.txt	NOSE	8	2	[0, 0, 0]	n/a	FR1	0	R1147P
591.528	0.867	598618	WORD_OFF	n/a	n/a	NOSE	8	2	[0, 0, 0]	n/a	FR1	0	R1147P
592.395	1.617	599485	WORD	n/a	wordpools/wordpool_EN.txt	MUD	9	2	[0, 0, 0]	n/a	FR1	0	R1147P
594.012	0.816	601102	WORD_OFF	n/a	n/a	MUD	9	2	[0, 0, 0]	n/a	FR1	0	R1147P
594.828	1.618	601918	WORD	n/a	wordpools/wordpool_EN.txt	LEG	10	2	[0, 0, 0]	n/a	FR1	0	R1147P
596.446	0.8	603536	WORD_OFF	n/a	n/a	LEG	10	2	[0, 0, 0]	n/a	FR1	0	R1147P
597.246	1.616	604336	WORD	n/a	wordpools/wordpool_EN.txt	FACE	11	2	[0, 0, 0]	n/a	FR1	0	R1147P
598.862	0.768	605952	WORD_OFF	n/a	n/a	FACE	11	2	[0, 0, 0]	n/a	FR1	0	R1147P
599.63	1.617	606719	WORD	n/a	wordpools/wordpool_EN.txt	WORM	12	2	[0, 0, 0]	n/a	FR1	0	R1147P
601.247	0.0	608336	WORD_OFF	n/a	n/a	WORM	12	2	[0, 0, 0]	n/a	FR1	0	R1147P
601.247	0.0	608336	DISTRACT_START	n/a	n/a	n/a	-999	2	[0, 0, 0]	n/a	FR1	0	R1147P
601.247	0.017	608336	START	n/a	n/a	n/a	-999	2	[-999, -999, -999]	n/a	FR1	0	R1147P
601.264	4.134	608353	PROB	4.134	n/a	n/a	-999	2	[2, 7, 9]	18	FR1	0	R1147P
605.398	5.117	612487	PROB	5.117	n/a	n/a	-999	2	[3, 1, 7]	15	FR1	0	R1147P
610.515	5.4	617604	PROB	5.4	n/a	n/a	-999	2	[3, 3, 7]	13	FR1	0	R1147P
615.915	4.735	623004	PROB	4.735	n/a	n/a	-999	2	[8, 7, 7]	22	FR1	0	R1147P
620.65	3.818	627738	PROB	3.818	n/a	n/a	-999	2	[3, 6, 6]	15	FR1	0	R1147P
624.468	0.017	631556	STOP	n/a	n/a	n/a	-999	2	[-999, -999, -999]	n/a	FR1	0	R1147P
624.485	0.533	631573	DISTRACT_END	n/a	n/a	n/a	-999	2	[0, 0, 0]	n/a	FR1	0	R1147P
625.018	0.518	632106	RETRIEVAL_ORIENT	n/a	n/a	n/a	-999	2	[0, 0, 0]	n/a	FR1	0	R1147P
625.536	1.638	632624	REC_START	n/a	n/a	n/a	-999	2	[0, 0, 0]	n/a	FR1	0	R1147P
627.174	0.37	634262	REC_WORD_VV	0.37	n/a	<>	-999	2	[0, 0, 0]	n/a	FR1	0	R1147P
627.544	0.652	634632	REC_WORD	0.652	n/a	HILL	1	2	[0, 0, 0]	n/a	FR1	0	R1147P
628.196	3.18	635284	REC_WORD	3.18	n/a	BUILD	-999	2	[0, 0, 0]	n/a	FR1	0	R1147P
631.376	2.191	638464	REC_WORD	2.191	n/a	WOOD	-999	2	[0, 0, 0]	n/a	FR1	0	R1147P
633.567	8.541	640655	REC_WORD	8.541	n/a	HOUSE	-999	2	[0, 0, 0]	n/a	FR1	0	R1147P
642.108	0.259	649195	REC_WORD_VV	0.259	n/a	<>	-999	2	[0, 0, 0]	n/a	FR1	0	R1147P
642.367	13.181	649454	REC_WORD	13.181	n/a	POOL	-999	2	[0, 0, 0]	n/a	FR1	0	R1147P
655.548	6.093	662635	REC_END	n/a	n/a	n/a	-999	2	[0, 0, 0]	n/a	FR1	0	R1147P
661.641	0.5	668727	TRIAL	n/a	n/a	n/a	-999	3	[0, 0, 0]	n/a	FR1	0	R1147P
662.141	10.428	669227	COUNTDOWN_START	n/a	n/a	n/a	-999	3	[0, 0, 0]	n/a	FR1	0	R1147P
672.569	0.008	679655	COUNTDOWN_END	n/a	n/a	n/a	-999	3	[0, 0, 0]	n/a	FR1	0	R1147P
672.577	1.617	679663	ORIENT	n/a	n/a	n/a	-999	3	[0, 0, 0]	n/a	FR1	0	R1147P
674.194	2.05	681280	ORIENT_OFF	n/a	n/a	n/a	-999	3	[0, 0, 0]	n/a	FR1	0	R1147P
676.244	1.616	683330	WORD	n/a	wordpools/wordpool_EN.txt	FLAME	1	3	[0, 0, 0]	n/a	FR1	0	R1147P
677.86	0.785	684946	WORD_OFF	n/a	n/a	FLAME	1	3	[0, 0, 0]	n/a	FR1	0	R1147P
678.645	1.617	685730	WORD	n/a	wordpools/wordpool_EN.txt	MILK	2	3	[0, 0, 0]	n/a	FR1	0	R1147P
680.262	0.85	687347	WORD_OFF	n/a	n/a	MILK	2	3	[0, 0, 0]	n/a	FR1	0	R1147P
681.112	1.617	688197	WORD	n/a	wordpools/wordpool_EN.txt	PIT	3	3	[0, 0, 0]	n/a	FR1	0	R1147P
682.729	0.816	689814	WORD_OFF	n/a	n/a	PIT	3	3	[0, 0, 0]	n/a	FR1	0	R1147P
683.545	1.618	690630	WORD	n/a	wordpools/wordpool_EN.txt	BLUSH	4	3	[0, 0, 0]	n/a	FR1	0	R1147P
685.163	0.917	692248	WORD_OFF	n/a	n/a	BLUSH	4	3	[0, 0, 0]	n/a	FR1	0	R1147P
686.08	1.616	693165	WORD	n/a	wordpools/wordpool_EN.txt	MOUSE	5	3	[0, 0, 0]	n/a	FR1	0	R1147P
687.696	0.867	694781	WORD_OFF	n/a	n/a	MOUSE	5	3	[0, 0, 0]	n/a	FR1	0	R1147P
688.563	1.617	695648	WORD	n/a	wordpools/wordpool_EN.txt	SIGN	6	3	[0, 0, 0]	n/a	FR1	0	R1147P
690.18	0.784	697265	WORD_OFF	n/a	n/a	SIGN	6	3	[0, 0, 0]	n/a	FR1	0	R1147P
690.964	1.617	698049	WORD	n/a	wordpools/wordpool_EN.txt	ROOF	7	3	[0, 0, 0]	n/a	FR1	0	R1147P
692.581	0.967	699666	WORD_OFF	n/a	n/a	ROOF	7	3	[0, 0, 0]	n/a	FR1	0	R1147P
693.548	1.616	700633	WORD	n/a	wordpools/wordpool_EN.txt	SHOE	8	3	[0, 0, 0]	n/a	FR1	0	R1147P
695.164	0.901	702249	WORD_OFF	n/a	n/a	SHOE	8	3	[0, 0, 0]	n/a	FR1	0	R1147P
696.065	1.617	703150	WORD	n/a	wordpools/wordpool_EN.txt	VASE	9	3	[0, 0, 0]	n/a	FR1	0	R1147P
697.682	0.85	704767	WORD_OFF	n/a	n/a	VASE	9	3	[0, 0, 0]	n/a	FR1	0	R1147P
698.532	1.617	705616	WORD	n/a	wordpools/wordpool_EN.txt	CART	10	3	[0, 0, 0]	n/a	FR1	0	R1147P
700.149	0.917	707233	WORD_OFF	n/a	n/a	CART	10	3	[0, 0, 0]	n/a	FR1	0	R1147P
701.066	1.617	708150	WORD	n/a	wordpools/wordpool_EN.txt	AXE	11	3	[0, 0, 0]	n/a	FR1	0	R1147P
702.683	0.783	709767	WORD_OFF	n/a	n/a	AXE	11	3	[0, 0, 0]	n/a	FR1	0	R1147P
703.466	1.617	710550	WORD	n/a	wordpools/wordpool_EN.txt	FENCE	12	3	[0, 0, 0]	n/a	FR1	0	R1147P
705.083	0.0	712167	WORD_OFF	n/a	n/a	FENCE	12	3	[0, 0, 0]	n/a	FR1	0	R1147P
705.083	0.001	712167	DISTRACT_START	n/a	n/a	n/a	-999	3	[0, 0, 0]	n/a	FR1	0	R1147P
705.084	0.016	712168	START	n/a	n/a	n/a	-999	3	[-999, -999, -999]	n/a	FR1	0	R1147P
705.1	4.934	712184	PROB	4.934	n/a	n/a	-999	3	[8, 8, 6]	22	FR1	0	R1147P
710.034	2.584	717118	PROB	2.584	n/a	n/a	-999	3	[3, 2, 6]	11	FR1	0	R1147P
712.618	2.917	719702	PROB	2.917	n/a	n/a	-999	3	[6, 4, 9]	19	FR1	0	R1147P
715.535	4.101	722619	PROB	4.101	n/a	n/a	-999	3	[2, 4, 9]	15	FR1	0	R1147P
719.636	3.067	726719	PROB	3.067	n/a	n/a	-999	3	[2, 5, 7]	14	FR1	0	R1147P
722.703	5.51	729786	PROB	5.51	n/a	n/a	-999	3	[4, 7, 7]	18	FR1	0	R1147P
728.213	0.008	735296	STOP	n/a	n/a	n/a	-999	3	[-999, -999, -999]	n/a	FR1	0	R1147P
728.221	0.632	735304	DISTRACT_END	n/a	n/a	n/a	-999	3	[0, 0, 0]	n/a	FR1	0	R1147P
728.853	0.519	735936	RETRIEVAL_ORIENT	n/a	n/a	n/a	-999	3	[0, 0, 0]	n/a	FR1	0	R1147P
729.372	2.252	736455	REC_START	n/a	n/a	n/a	-999	3	[0, 0, 0]	n/a	FR1	0	R1147P
731.624	1.078	738707	REC_WORD	1.078	n/a	FLAME	1	3	[0, 0, 0]	n/a	FR1	0	R1147P
732.702	3.046	739785	REC_WORD	3.046	n/a	BUSH	-999	3	[0, 0, 0]	n/a	FR1	0	R1147P
735.748	1.0	742831	REC_WORD_VV	1.0	n/a	<>	-999	3	[0, 0, 0]	n/a	FR1	0	R1147P
736.748	0.52	743831	REC_WORD_VV	0.52	n/a	<>	-999	3	[0, 0, 0]	n/a	FR1	0	R1147P
737.268	0.257	744350	REC_WORD	0.257	n/a	FLAME	1	3	[0, 0, 0]	n/a	FR1	0	R1147P
737.525	1.818	744607	REC_WORD	1.818	n/a	BUSH	-999	3	[0, 0, 0]	n/a	FR1	0	R1147P
739.343	3.314	746425	REC_WORD	3.314	n/a	HILL	-999	3	[0, 0, 0]	n/a	FR1	0	R1147P
742.657	6.493	749739	REC_WORD	6.493	n/a	FIRE	-999	3	[0, 0, 0]	n/a	FR1	0	R1147P
749.15	9.427	756232	REC_WORD	9.427	n/a	MILK	2	3	[0, 0, 0]	n/a	FR1	0	R1147P
758.577	0.806	765658	REC_WORD	0.806	n/a	TORCH	-999	3	[0, 0, 0]	n/a	FR1	0	R1147P
759.383	19.647	766464	REC_END	n/a	n/a	n/a	-999	3	[0, 0, 0]	n/a	FR1	0	R1147P
779.03	0.5	786110	TRIAL	n/a	n/a	n/a	-999	4	[0, 0, 0]	n/a	FR1	0	R1147P
779.53	10.428	786610	COUNTDOWN_START	n/a	n/a	n/a	-999	4	[0, 0, 0]	n/a	FR1	0	R1147P
789.958	0.008	797038	COUNTDOWN_END	n/a	n/a	n/a	-999	4	[0, 0, 0]	n/a	FR1	0	R1147P
789.966	1.617	797046	ORIENT	n/a	n/a	n/a	-999	4	[0, 0, 0]	n/a	FR1	0	R1147P
791.583	2.216	798663	ORIENT_OFF	n/a	n/a	n/a	-999	4	[0, 0, 0]	n/a	FR1	0	R1147P
793.799	1.618	800879	WORD	n/a	wordpools/wordpool_EN.txt	FLAG	1	4	[0, 0, 0]	n/a	FR1	0	R1147P
795.417	1.0	802497	WORD_OFF	n/a	n/a	FLAG	1	4	[0, 0, 0]	n/a	FR1	0	R1147P
796.417	1.617	803496	WORD	n/a	wordpools/wordpool_EN.txt	SQUARE	2	4	[0, 0, 0]	n/a	FR1	0	R1147P
798.034	0.95	805113	WORD_OFF	n/a	n/a	SQUARE	2	4	[0, 0, 0]	n/a	FR1	0	R1147P
798.984	1.617	806063	WORD	n/a	wordpools/wordpool_EN.txt	TREE	3	4	[0, 0, 0]	n/a	FR1	0	R1147P
800.601	0.833	807680	WORD_OFF	n/a	n/a	TREE	3	4	[0, 0, 0]	n/a	FR1	0	R1147P
801.434	1.617	808513	WORD	n/a	wordpools/wordpool_EN.txt	DITCH	4	4	[0, 0, 0]	n/a	FR1	0	R1147P
803.051	1.001	810130	WORD_OFF	n/a	n/a	DITCH	4	4	[0, 0, 0]	n/a	FR1	0	R1147P
804.052	1.617	811131	WORD	n/a	wordpools/wordpool_EN.txt	ELF	5	4	[0, 0, 0]	n/a	FR1	0	R1147P
805.669	0.983	812748	WORD_OFF	n/a	n/a	ELF	5	4	[0, 0, 0]	n/a	FR1	0	R1147P
806.652	1.617	813731	WORD	n/a	wordpools/wordpool_EN.txt	FLOOR	6	4	[0, 0, 0]	n/a	FR1	0	R1147P
808.269	0.817	815348	WORD_OFF	n/a	n/a	FLOOR	6	4	[0, 0, 0]	n/a	FR1	0	R1147P
809.086	1.617	816165	WORD	n/a	wordpools/wordpool_EN.txt	CLAY	7	4	[0, 0, 0]	n/a	FR1	0	R1147P
810.703	0.933	817782	WORD_OFF	n/a	n/a	CLAY	7	4	[0, 0, 0]	n/a	FR1	0	R1147P
811.636	1.617	818715	WORD	n/a	wordpools/wordpool_EN.txt	TRUCK	8	4	[0, 0, 0]	n/a	FR1	0	R1147P
813.253	0.851	820332	WORD_OFF	n/a	n/a	TRUCK	8	4	[0, 0, 0]	n/a	FR1	0	R1147P
814.104	1.617	821183	WORD	n/a	wordpools/wordpool_EN.txt	FOX	9	4	[0, 0, 0]	n/a	FR1	0	R1147P
815.721	0.783	822800	WORD_OFF	n/a	n/a	FOX	9	4	[0, 0, 0]	n/a	FR1	0	R1147P
816.504	1.617	823582	WORD	n/a	wordpools/wordpool_EN.txt	TAIL	10	4	[0, 0, 0]	n/a	FR1	0	R1147P
818.121	0.867	825199	WORD_OFF	n/a	n/a	TAIL	10	4	[0, 0, 0]	n/a	FR1	0	R1147P
818.988	1.617	826066	WORD	n/a	wordpools/wordpool_EN.txt	PLANE	11	4	[0, 0, 0]	n/a	FR1	0	R1147P
820.605	0.9	827683	WORD_OFF	n/a	n/a	PLANE	11	4	[0, 0, 0]	n/a	FR1	0	R1147P
821.505	1.617	828583	WORD	n/a	wordpools/wordpool_EN.txt	JUDGE	12	4	[0, 0, 0]	n/a	FR1	0	R1147P
823.122	0.0	830200	WORD_OFF	n/a	n/a	JUDGE	12	4	[0, 0, 0]	n/a	FR1	0	R1147P
823.122	0.0	830200	DISTRACT_START	n/a	n/a	n/a	-999	4	[0, 0, 0]	n/a	FR1	0	R1147P
823.122	0.017	830200	START	n/a	n/a	n/a	-999	4	[-999, -999, -999]	n/a	FR1	0	R1147P
823.139	4.334	830217	PROB	4.334	n/a	n/a	-999	4	[7, 7, 4]	18	FR1	0	R1147P
827.473	3.449	834551	PROB	3.449	n/a	n/a	-999	4	[5, 5, 1]	11	FR1	0	R1147P
830.922	3.252	838000	PROB	3.252	n/a	n/a	-999	4	[9, 8, 1]	18	FR1	0	R1147P
834.174	2.616	841252	PROB	2.616	n/a	n/a	-999	4	[1, 3, 8]	12	FR1	0	R1147P
836.79	3.319	843867	PROB	3.319	n/a	n/a	-999	4	[4, 6, 7]	17	FR1	0	R1147P
840.109	3.881	847186	PROB	3.881	n/a	n/a	-999	4	[6, 2, 9]	17	FR1	0	R1147P
843.99	0.019	851067	STOP	n/a	n/a	n/a	-999	4	[-999, -999, -999]	n/a	FR1	0	R1147P
844.009	0.684	851086	DISTRACT_END	n/a	n/a	n/a	-999	4	[0, 0, 0]	n/a	FR1	0	R1147P
844.693	0.517	851770	RETRIEVAL_ORIENT	n/a	n/a	n/a	-999	4	[0, 0, 0]	n/a	FR1	0	R1147P
845.21	1.19	852287	REC_START	n/a	n/a	n/a	-999	4	[0, 0, 0]	n/a	FR1	0	R1147P
846.4	0.766	853477	REC_WORD	0.766	n/a	FLAG	1	4	[0, 0, 0]	n/a	FR1	0	R1147P
847.166	1.437	854243	REC_WORD	1.437	n/a	SQUARE	2	4	[0, 0, 0]	n/a	FR1	0	R1147P
848.603	1.574	855680	REC_WORD	1.574	n/a	TRUCK	8	4	[0, 0, 0]	n/a	FR1	0	R1147P
850.177	5.904	857254	REC_WORD	5.904	n/a	TREE	3	4	[0, 0, 0]	n/a	FR1	0	R1147P
856.081	7.302	863157	REC_WORD	7.302	n/a	FOX	9	4	[0, 0, 0]	n/a	FR1	0	R1147P
863.383	11.838	870459	REC_WORD	11.838	n/a	FIRE	-999	4	[0, 0, 0]	n/a	FR1	0	R1147P
875.221	10.213	882296	REC_END	n/a	n/a	n/a	-999	4	[0, 0, 0]	n/a	FR1	0	R1147P
885.434	0.5	892509	TRIAL	n/a	n/a	n/a	-999	5	[0, 0, 0]	n/a	FR1	0	R1147P
885.934	10.428	893009	COUNTDOWN_START	n/a	n/a	n/a	-999	5	[0, 0, 0]	n/a	FR1	0	R1147P
896.362	0.007	903436	COUNTDOWN_END	n/a	n/a	n/a	-999	5	[0, 0, 0]	n/a	FR1	0	R1147P
896.369	1.617	903443	ORIENT	n/a	n/a	n/a	-999	5	[0, 0, 0]	n/a	FR1	0	R1147P
897.986	2.1	905060	ORIENT_OFF	n/a	n/a	n/a	-999	5	[0, 0, 0]	n/a	FR1	0	R1147P
900.086	1.617	907160	WORD	n/a	wordpools/wordpool_EN.txt	LOCK	1	5	[0, 0, 0]	n/a	FR1	0	R1147P
901.703	0.834	908777	WORD_OFF	n/a	n/a	LOCK	1	5	[0, 0, 0]	n/a	FR1	0	R1147P
902.537	1.617	909611	WORD	n/a	wordpools/wordpool_EN.txt	FARM	2	5	[0, 0, 0]	n/a	FR1	0	R1147P
904.154	0.933	911228	WORD_OFF	n/a	n/a	FARM	2	5	[0, 0, 0]	n/a	FR1	0	R1147P
905.087	1.617	912161	WORD	n/a	wordpools/wordpool_EN.txt	CORN	3	5	[0, 0, 0]	n/a	FR1	0	R1147P
906.704	0.767	913778	WORD_OFF	n/a	n/a	CORN	3	5	[0, 0, 0]	n/a	FR1	0	R1147P
907.471	1.617	914545	WORD	n/a	wordpools/wordpool_EN.txt	GRAPE	4	5	[0, 0, 0]	n/a	FR1	0	R1147P
909.088	0.984	916162	WORD_OFF	n/a	n/a	GRAPE	4	5	[0, 0, 0]	n/a	FR1	0	R1147P
910.072	1.617	917146	WORD	n/a	wordpools/wordpool_EN.txt	CAVE	5	5	[0, 0, 0]	n/a	FR1	0	R1147P
911.689	0.883	918763	WORD_OFF	n/a	n/a	CAVE	5	5	[0, 0, 0]	n/a	FR1	0	R1147P
912.572	1.617	919646	WORD	n/a	wordpools/wordpool_EN.txt	JUICE	6	5	[0, 0, 0]	n/a	FR1	0	R1147P
914.189	1.017	921263	WORD_OFF	n/a	n/a	JUICE	6	5	[0, 0, 0]	n/a	FR1	0	R1147P
915.206	1.616	922279	WORD	n/a	wordpools/wordpool_EN.txt	WAND	7	5	[0, 0, 0]	n/a	FR1	0	R1147P
916.822	0.95	923895	WORD_OFF	n/a	n/a	WAND	7	5	[0, 0, 0]	n/a	FR1	0	R1147P
917.772	1.618	924845	WORD	n/a	wordpools/wordpool_EN.txt	CRANE	8	5	[0, 0, 0]	n/a	FR1	0	R1147P
919.39	0.967	926463	WORD_OFF	n/a	n/a	CRANE	8	5	[0, 0, 0]	n/a	FR1	0	R1147P
920.357	1.617	927430	WORD	n/a	wordpools/wordpool_EN.txt	SLEEVE	9	5	[0, 0, 0]	n/a	FR1	0	R1147P
921.974	0.816	929047	WORD_OFF	n/a	n/a	SLEEVE	9	5	[0, 0, 0]	n/a	FR1	0	R1147P
922.79	1.618	929863	WORD	n/a	wordpools/wordpool_EN.txt	EAR	10	5	[0, 0, 0]	n/a	FR1	0	R1147P
924.408	0.833	931481	WORD_OFF	n/a	n/a	EAR	10	5	[0, 0, 0]	n/a	FR1	0	R1147P
925.241	1.616	932314	WORD	n/a	wordpools/wordpool_EN.txt	COUCH	11	5	[0, 0, 0]	n/a	FR1	0	R1147P
926.857	0.885	933930	WORD_OFF	n/a	n/a	COUCH	11	5	[0, 0, 0]	n/a	FR1	0	R1147P
927.742	1.616	934815	WORD	n/a	wordpools/wordpool_EN.txt	SEAT	12	5	[0, 0, 0]	n/a	FR1	0	R1147P
929.358	0.0	936431	DISTRACT_START	n/a	n/a	n/a	-999	5	[0, 0, 0]	n/a	FR1	0	R1147P
929.358	0.001	936431	WORD_OFF	n/a	n/a	SEAT	12	5	[0, 0, 0]	n/a	FR1	0	R1147P
929.359	0.016	936432	START	n/a	n/a	n/a	-999	5	[-999, -999, -999]	n/a	FR1	0	R1147P
929.375	4.068	936448	PROB	4.068	n/a	n/a	-999	5	[5, 6, 6]	17	FR1	0	R1147P
933.443	4.067	940516	PROB	4.067	n/a	n/a	-999	5	[7, 7, 4]	18	FR1	0	R1147P
937.51	3.501	944582	PROB	3.501	n/a	n/a	-999	5	[8, 5, 2]	15	FR1	0	R1147P
941.011	2.899	948083	PROB	2.899	n/a	n/a	-999	5	[9, 1, 9]	19	FR1	0	R1147P
943.91	4.135	950982	PROB	4.135	n/a	n/a	-999	5	[7, 5, 9]	21	FR1	0	R1147P
948.045	3.775	955117	PROB	3.775	n/a	n/a	-999	5	[6, 1, 8]	15	FR1	0	R1147P
951.82	0.008	958892	STOP	n/a	n/a	n/a	-999	5	[-999, -999, -999]	n/a	FR1	0	R1147P
951.828	0.568	958900	DISTRACT_END	n/a	n/a	n/a	-999	5	[0, 0, 0]	n/a	FR1	0	R1147P
952.396	0.516	959468	RETRIEVAL_ORIENT	n/a	n/a	n/a	-999	5	[0, 0, 0]	n/a	FR1	0	R1147P
952.912	2.786	959984	REC_START	n/a	n/a	n/a	-999	5	[0, 0, 0]	n/a	FR1	0	R1147P
955.698	0.727	962769	REC_WORD	0.727	n/a	GRAPE	4	5	[0, 0, 0]	n/a	FR1	0	R1147P
956.425	2.106	963496	REC_WORD	2.106	n/a	JUICE	6	5	[0, 0, 0]	n/a	FR1	0	R1147P
958.531	11.952	965602	REC_WORD	11.952	n/a	COUCH	11	5	[0, 0, 0]	n/a	FR1	0	R1147P
970.483	0.504	977554	REC_WORD	0.504	n/a	TREE	-999	5	[0, 0, 0]	n/a	FR1	0	R1147P
970.987	0.685	978058	REC_WORD	0.685	n/a	FOX	-999	5	[0, 0, 0]	n/a	FR1	0	R1147P
971.672	6.022	978743	REC_WORD	6.022	n/a	TRUCK	-999	5	[0, 0, 0]	n/a	FR1	0	R1147P
977.694	5.229	984764	REC_WORD_VV	5.229	n/a	<>	-999	5	[0, 0, 0]	n/a	FR1	0	R1147P
982.923	6.097	989993	REC_END	n/a	n/a	n/a	-999	5	[0, 0, 0]	n/a	FR1	0	R1147P
989.02	0.5	996090	TRIAL	n/a	n/a	n/a	-999	6	[0, 0, 0]	n/a	FR1	0	R1147P
989.52	10.428	996590	COUNTDOWN_START	n/a	n/a	n/a	-999	6	[0, 0, 0]	n/a	FR1	0	R1147P
999.948	0.007	1007017	COUNTDOWN_END	n/a	n/a	n/a	-999	6	[0, 0, 0]	n/a	FR1	0	R1147P
999.955	1.617	1007024	ORIENT	n/a	n/a	n/a	-999	6	[0, 0, 0]	n/a	FR1	0	R1147P
1001.572	2.051	1008641	ORIENT_OFF	n/a	n/a	n/a	-999	6	[0, 0, 0]	n/a	FR1	0	R1147P
1003.623	1.617	1010692	WORD	n/a	wordpools/wordpool_EN.txt	GOAT	1	6	[0, 0, 0]	n/a	FR1	0	R1147P
1005.24	0.883	1012309	WORD_OFF	n/a	n/a	GOAT	1	6	[0, 0, 0]	n/a	FR1	0	R1147P
1006.123	1.617	1013192	WORD	n/a	wordpools/wordpool_EN.txt	FLUTE	2	6	[0, 0, 0]	n/a	FR1	0	R1147P
1007.74	1.0	1014809	WORD_OFF	n/a	n/a	FLUTE	2	6	[0, 0, 0]	n/a	FR1	0	R1147P
1008.74	1.617	1015809	WORD	n/a	wordpools/wordpool_EN.txt	LAMB	3	6	[0, 0, 0]	n/a	FR1	0	R1147P
1010.357	0.767	1017426	WORD_OFF	n/a	n/a	LAMB	3	6	[0, 0, 0]	n/a	FR1	0	R1147P
1011.124	1.617	1018193	WORD	n/a	wordpools/wordpool_EN.txt	LIP	4	6	[0, 0, 0]	n/a	FR1	0	R1147P
1012.741	0.817	1019810	WORD_OFF	n/a	n/a	LIP	4	6	[0, 0, 0]	n/a	FR1	0	R1147P
1013.558	1.617	1020626	WORD	n/a	wordpools/wordpool_EN.txt	FORK	5	6	[0, 0, 0]	n/a	FR1	0	R1147P
1015.175	0.833	1022243	WORD_OFF	n/a	n/a	FORK	5	6	[0, 0, 0]	n/a	FR1	0	R1147P
1016.008	1.617	1023076	WORD	n/a	wordpools/wordpool_EN.txt	DOLL	6	6	[0, 0, 0]	n/a	FR1	0	R1147P
1017.625	0.95	1024693	WORD_OFF	n/a	n/a	DOLL	6	6	[0, 0, 0]	n/a	FR1	0	R1147P
1018.575	1.617	1025643	WORD	n/a	wordpools/wordpool_EN.txt	BOOT	7	6	[0, 0, 0]	n/a	FR1	0	R1147P
1020.192	0.784	1027260	WORD_OFF	n/a	n/a	BOOT	7	6	[0, 0, 0]	n/a	FR1	0	R1147P
1020.976	1.617	1028044	WORD	n/a	wordpools/wordpool_EN.txt	BAT	8	6	[0, 0, 0]	n/a	FR1	0	R1147P
1022.593	0.817	1029661	WORD_OFF	n/a	n/a	BAT	8	6	[0, 0, 0]	n/a	FR1	0	R1147P
1023.41	1.617	1030478	WORD	n/a	wordpools/wordpool_EN.txt	CROW	9	6	[0, 0, 0]	n/a	FR1	0	R1147P
1025.027	0.933	1032095	WORD_OFF	n/a	n/a	CROW	9	6	[0, 0, 0]	n/a	FR1	0	R1147P
1025.96	1.617	1033028	WORD	n/a	wordpools/wordpool_EN.txt	TOAD	10	6	[0, 0, 0]	n/a	FR1	0	R1147P
1027.577	0.917	1034645	WORD_OFF	n/a	n/a	TOAD	10	6	[0, 0, 0]	n/a	FR1	0	R1147P
1028.494	1.617	1035562	WORD	n/a	wordpools/wordpool_EN.txt	FAN	11	6	[0, 0, 0]	n/a	FR1	0	R1147P
1030.111	0.816	1037179	WORD_OFF	n/a	n/a	FAN	11	6	[0, 0, 0]	n/a	FR1	0	R1147P
1030.927	1.618	1037995	WORD	n/a	wordpools/wordpool_EN.txt	SPEAR	12	6	[0, 0, 0]	n/a	FR1	0	R1147P
1032.545	0.0	1039613	WORD_OFF	n/a	n/a	SPEAR	12	6	[0, 0, 0]	n/a	FR1	0	R1147P
1032.545	0.0	1039613	DISTRACT_START	n/a	n/a	n/a	-999	6	[0, 0, 0]	n/a	FR1	0	R1147P
1032.545	0.016	1039613	START	n/a	n/a	n/a	-999	6	[-999, -999, -999]	n/a	FR1	0	R1147P
1032.561	3.684	1039629	PROB	3.684	n/a	n/a	-999	6	[6, 6, 9]	21	FR1	0	R1147P
1036.245	3.968	1043312	PROB	3.968	n/a	n/a	-999	6	[7, 9, 5]	21	FR1	0	R1147P
1040.213	2.467	1047280	PROB	2.467	n/a	n/a	-999	6	[9, 9, 4]	22	FR1	0	R1147P
1042.68	5.268	1049747	PROB	5.268	n/a	n/a	-999	6	[7, 4, 8]	19	FR1	0	R1147P
1047.948	4.067	1055015	PROB	4.067	n/a	n/a	-999	6	[9, 5, 8]	22	FR1	0	R1147P
1052.015	3.518	1059082	PROB	3.518	n/a	n/a	-999	6	[5, 3, 7]	15	FR1	0	R1147P
1055.533	0.016	1062599	STOP	n/a	n/a	n/a	-999	6	[-999, -999, -999]	n/a	FR1	0	R1147P
1055.549	0.667	1062615	DISTRACT_END	n/a	n/a	n/a	-999	6	[0, 0, 0]	n/a	FR1	0	R1147P
1056.216	0.517	1063282	RETRIEVAL_ORIENT	n/a	n/a	n/a	-999	6	[0, 0, 0]	n/a	FR1	0	R1147P
1056.733	1.193	1063799	REC_START	n/a	n/a	n/a	-999	6	[0, 0, 0]	n/a	FR1	0	R1147P
1057.926	0.51	1064992	REC_WORD_VV	0.51	n/a	<>	-999	6	[0, 0, 0]	n/a	FR1	0	R1147P
1058.436	0.492	1065502	REC_WORD	0.492	n/a	FORK	5	6	[0, 0, 0]	n/a	FR1	0	R1147P
1058.928	2.529	1065994	REC_WORD	2.529	n/a	SPEAR	12	6	[0, 0, 0]	n/a	FR1	0	R1147P
1061.457	23.046	1068523	REC_WORD	23.046	n/a	GOAT	1	6	[0, 0, 0]	n/a	FR1	0	R1147P
1084.503	1.0	1091568	REC_WORD_VV	1.0	n/a	<>	-999	6	[0, 0, 0]	n/a	FR1	0	R1147P
1085.503	1.241	1092568	REC_WORD_VV	1.241	n/a	<>	-999	6	[0, 0, 0]	n/a	FR1	0	R1147P
1086.744	19.414	1093809	REC_END	n/a	n/a	n/a	-999	6	[0, 0, 0]	n/a	FR1	0	R1147P
1106.158	0.5	1113222	TRIAL	n/a	n/a	n/a	-999	7	[0, 0, 0]	n/a	FR1	0	R1147P
1106.658	10.428	1113722	COUNTDOWN_START	n/a	n/a	n/a	-999	7	[0, 0, 0]	n/a	FR1	0	R1147P
1117.086	0.008	1124149	COUNTDOWN_END	n/a	n/a	n/a	-999	7	[0, 0, 0]	n/a	FR1	0	R1147P
1117.094	1.617	1124157	ORIENT	n/a	n/a	n/a	-999	7	[0, 0, 0]	n/a	FR1	0	R1147P
1118.711	1.984	1125774	ORIENT_OFF	n/a	n/a	n/a	-999	7	[0, 0, 0]	n/a	FR1	0	R1147P
1120.695	1.617	1127758	WORD	n/a	wordpools/wordpool_EN.txt	PEAR	1	7	[0, 0, 0]	n/a	FR1	0	R1147P
1122.312	0.933	1129375	WORD_OFF	n/a	n/a	PEAR	1	7	[0, 0, 0]	n/a	FR1	0	R1147P
1123.245	1.616	1130308	WORD	n/a	wordpools/wordpool_EN.txt	SNAKE	2	7	[0, 0, 0]	n/a	FR1	0	R1147P
1124.861	0.901	1131924	WORD_OFF	n/a	n/a	SNAKE	2	7	[0, 0, 0]	n/a	FR1	0	R1147P
1125.762	1.617	1132825	WORD	n/a	wordpools/wordpool_EN.txt	BALL	3	7	[0, 0, 0]	n/a	FR1	0	R1147P
1127.379	1.0	1134442	WORD_OFF	n/a	n/a	BALL	3	7	[0, 0, 0]	n/a	FR1	0	R1147P
1128.379	1.617	1135442	WORD	n/a	wordpools/wordpool_EN.txt	WHALE	4	7	[0, 0, 0]	n/a	FR1	0	R1147P
1129.996	1.001	1137059	WORD_OFF	n/a	n/a	WHALE	4	7	[0, 0, 0]	n/a	FR1	0	R1147P
1130.997	1.616	1138060	WORD	n/a	wordpools/wordpool_EN.txt	NEST	5	7	[0, 0, 0]	n/a	FR1	0	R1147P
1132.613	0.817	1139675	WORD_OFF	n/a	n/a	NEST	5	7	[0, 0, 0]	n/a	FR1	0	R1147P
1133.43	1.617	1140492	WORD	n/a	wordpools/wordpool_EN.txt	GEESE	6	7	[0, 0, 0]	n/a	FR1	0	R1147P
1135.047	0.799	1142109	WORD_OFF	n/a	n/a	GEESE	6	7	[0, 0, 0]	n/a	FR1	0	R1147P
1135.846	1.618	1142908	WORD	n/a	wordpools/wordpool_EN.txt	SHEEP	7	7	[0, 0, 0]	n/a	FR1	0	R1147P
1137.464	0.9	1144526	WORD_OFF	n/a	n/a	SHEEP	7	7	[0, 0, 0]	n/a	FR1	0	R1147P
1138.364	1.618	1145426	WORD	n/a	wordpools/wordpool_EN.txt	FRUIT	8	7	[0, 0, 0]	n/a	FR1	0	R1147P
1139.982	0.783	1147044	WORD_OFF	n/a	n/a	FRUIT	8	7	[0, 0, 0]	n/a	FR1	0	R1147P
1140.765	1.617	1147827	WORD	n/a	wordpools/wordpool_EN.txt	LAWN	9	7	[0, 0, 0]	n/a	FR1	0	R1147P
1142.382	1.0	1149444	WORD_OFF	n/a	n/a	LAWN	9	7	[0, 0, 0]	n/a	FR1	0	R1147P
1143.382	1.617	1150444	WORD	n/a	wordpools/wordpool_EN.txt	BLOOM	10	7	[0, 0, 0]	n/a	FR1	0	R1147P
1144.999	0.833	1152061	WORD_OFF	n/a	n/a	BLOOM	10	7	[0, 0, 0]	n/a	FR1	0	R1147P
1145.832	1.618	1152894	WORD	n/a	wordpools/wordpool_EN.txt	SUN	11	7	[0, 0, 0]	n/a	FR1	0	R1147P
1147.45	0.916	1154512	WORD_OFF	n/a	n/a	SUN	11	7	[0, 0, 0]	n/a	FR1	0	R1147P
1148.366	1.617	1155428	WORD	n/a	wordpools/wordpool_EN.txt	WING	12	7	[0, 0, 0]	n/a	FR1	0	R1147P
1149.983	0.0	1157045	WORD_OFF	n/a	n/a	WING	12	7	[0, 0, 0]	n/a	FR1	0	R1147P
1149.983	0.001	1157045	DISTRACT_START	n/a	n/a	n/a	-999	7	[0, 0, 0]	n/a	FR1	0	R1147P
1149.984	0.016	1157046	START	n/a	n/a	n/a	-999	7	[-999, -999, -999]	n/a	FR1	0	R1147P
1150.0	4.883	1157062	PROB	4.883	n/a	n/a	-999	7	[1, 9, 6]	16	FR1	0	R1147P
1154.883	3.752	1161944	PROB	3.752	n/a	n/a	-999	7	[6, 6, 2]	14	FR1	0	R1147P
1158.635	2.3	1165696	PROB	2.3	n/a	n/a	-999	7	[4, 5, 2]	11	FR1	0	R1147P
1160.935	3.434	1167996	PROB	3.434	n/a	n/a	-999	7	[9, 2, 6]	17	FR1	0	R1147P
1164.369	4.318	1171430	PROB	4.318	n/a	n/a	-999	7	[5, 5, 3]	13	FR1	0	R1147P
1168.687	3.702	1175748	PROB	3.702	n/a	n/a	-999	7	[1, 8, 6]	15	FR1	0	R1147P
1172.389	0.015	1179449	STOP	n/a	n/a	n/a	-999	7	[-999, -999, -999]	n/a	FR1	0	R1147P
1172.404	0.65	1179464	DISTRACT_END	n/a	n/a	n/a	-999	7	[0, 0, 0]	n/a	FR1	0	R1147P
1173.054	0.518	1180114	RETRIEVAL_ORIENT	n/a	n/a	n/a	-999	7	[0, 0, 0]	n/a	FR1	0	R1147P
1173.572	2.094	1180632	REC_START	n/a	n/a	n/a	-999	7	[0, 0, 0]	n/a	FR1	0	R1147P
1175.666	0.389	1182726	REC_WORD	0.389	n/a	PEAR	1	7	[0, 0, 0]	n/a	FR1	0	R1147P
1176.055	1.01	1183115	REC_WORD	1.01	n/a	SNAKE	2	7	[0, 0, 0]	n/a	FR1	0	R1147P
1177.065	2.778	1184125	REC_WORD	2.778	n/a	BOAT	-999	7	[0, 0, 0]	n/a	FR1	0	R1147P
1179.843	9.227	1186903	REC_WORD	9.227	n/a	SUN	11	7	[0, 0, 0]	n/a	FR1	0	R1147P
1189.07	3.339	1196130	REC_WORD	3.339	n/a	BALL	3	7	[0, 0, 0]	n/a	FR1	0	R1147P
1192.409	10.248	1199468	REC_WORD	10.248	n/a	FORK	-999	7	[0, 0, 0]	n/a	FR1	0	R1147P
1202.657	0.745	1209716	REC_WORD_VV	0.745	n/a	<>	-999	7	[0, 0, 0]	n/a	FR1	0	R1147P
1203.402	0.182	1210461	REC_WORD_VV	0.182	n/a	<>	-999	7	[0, 0, 0]	n/a	FR1	0	R1147P
1203.584	5.226	1210643	REC_END	n/a	n/a	n/a	-999	7	[0, 0, 0]	n/a	FR1	0	R1147P
1208.81	0.5	1215869	TRIAL	n/a	n/a	n/a	-999	8	[0, 0, 0]	n/a	FR1	0	R1147P
1209.31	10.428	1216369	COUNTDOWN_START	n/a	n/a	n/a	-999	8	[0, 0, 0]	n/a	FR1	0	R1147P
1219.738	0.008	1226796	COUNTDOWN_END	n/a	n/a	n/a	-999	8	[0, 0, 0]	n/a	FR1	0	R1147P
1219.746	1.618	1226804	ORIENT	n/a	n/a	n/a	-999	8	[0, 0, 0]	n/a	FR1	0	R1147P
1221.364	2.25	1228422	ORIENT_OFF	n/a	n/a	n/a	-999	8	[0, 0, 0]	n/a	FR1	0	R1147P
1223.614	1.617	1230672	WORD	n/a	wordpools/wordpool_EN.txt	CLOUD	1	8	[0, 0, 0]	n/a	FR1	0	R1147P
1225.231	0.917	1232289	WORD_OFF	n/a	n/a	CLOUD	1	8	[0, 0, 0]	n/a	FR1	0	R1147P
1226.148	1.617	1233206	WORD	n/a	wordpools/wordpool_EN.txt	PEN	2	8	[0, 0, 0]	n/a	FR1	0	R1147P
1227.765	0.95	1234823	WORD_OFF	n/a	n/a	PEN	2	8	[0, 0, 0]	n/a	FR1	0	R1147P
1228.715	1.617	1235773	WORD	n/a	wordpools/wordpool_EN.txt	PRINCE	3	8	[0, 0, 0]	n/a	FR1	0	R1147P
1230.332	0.767	1237389	WORD_OFF	n/a	n/a	PRINCE	3	8	[0, 0, 0]	n/a	FR1	0	R1147P
1231.099	1.617	1238156	WORD	n/a	wordpools/wordpool_EN.txt	FILM	4	8	[0, 0, 0]	n/a	FR1	0	R1147P
1232.716	0.8	1239773	WORD_OFF	n/a	n/a	FILM	4	8	[0, 0, 0]	n/a	FR1	0	R1147P
1233.516	1.617	1240573	WORD	n/a	wordpools/wordpool_EN.txt	ZOO	5	8	[0, 0, 0]	n/a	FR1	0	R1147P
1235.133	0.983	1242190	WORD_OFF	n/a	n/a	ZOO	5	8	[0, 0, 0]	n/a	FR1	0	R1147P
1236.116	1.617	1243173	WORD	n/a	wordpools/wordpool_EN.txt	MULE	6	8	[0, 0, 0]	n/a	FR1	0	R1147P
1237.733	0.767	1244790	WORD_OFF	n/a	n/a	MULE	6	8	[0, 0, 0]	n/a	FR1	0	R1147P
1238.5	1.617	1245557	WORD	n/a	wordpools/wordpool_EN.txt	LAMP	7	8	[0, 0, 0]	n/a	FR1	0	R1147P
1240.117	0.9	1247174	WORD_OFF	n/a	n/a	LAMP	7	8	[0, 0, 0]	n/a	FR1	0	R1147P
1241.017	1.617	1248074	WORD	n/a	wordpools/wordpool_EN.txt	FUDGE	8	8	[0, 0, 0]	n/a	FR1	0	R1147P
1242.634	0.767	1249691	WORD_OFF	n/a	n/a	FUDGE	8	8	[0, 0, 0]	n/a	FR1	0	R1147P
1243.401	1.617	1250458	WORD	n/a	wordpools/wordpool_EN.txt	TOE	9	8	[0, 0, 0]	n/a	FR1	0	R1147P
1245.018	0.983	1252075	WORD_OFF	n/a	n/a	TOE	9	8	[0, 0, 0]	n/a	FR1	0	R1147P
1246.001	1.617	1253058	WORD	n/a	wordpools/wordpool_EN.txt	ROSE	10	8	[0, 0, 0]	n/a	FR1	0	R1147P
1247.618	0.967	1254675	WORD_OFF	n/a	n/a	ROSE	10	8	[0, 0, 0]	n/a	FR1	0	R1147P
1248.585	1.617	1255642	WORD	n/a	wordpools/wordpool_EN.txt	CORD	11	8	[0, 0, 0]	n/a	FR1	0	R1147P
1250.202	0.95	1257258	WORD_OFF	n/a	n/a	CORD	11	8	[0, 0, 0]	n/a	FR1	0	R1147P
1251.152	1.616	1258208	WORD	n/a	wordpools/wordpool_EN.txt	BOAT	12	8	[0, 0, 0]	n/a	FR1	0	R1147P
1252.768	0.0	1259824	DISTRACT_START	n/a	n/a	n/a	-999	8	[0, 0, 0]	n/a	FR1	0	R1147P
1252.768	0.001	1259824	WORD_OFF	n/a	n/a	BOAT	12	8	[0, 0, 0]	n/a	FR1	0	R1147P
1252.769	0.016	1259825	START	n/a	n/a	n/a	-999	8	[-999, -999, -999]	n/a	FR1	0	R1147P
1252.785	4.535	1259841	PROB	4.535	n/a	n/a	-999	8	[1, 4, 9]	14	FR1	0	R1147P
1257.32	4.6	1264376	PROB	4.6	n/a	n/a	-999	8	[7, 9, 3]	19	FR1	0	R1147P
1261.92	3.535	1268976	PROB	3.535	n/a	n/a	-999	8	[1, 5, 4]	10	FR1	0	R1147P
1265.455	3.584	1272511	PROB	3.584	n/a	n/a	-999	8	[5, 4, 4]	13	FR1	0	R1147P
1269.039	2.8	1276094	PROB	2.8	n/a	n/a	-999	8	[3, 5, 3]	11	FR1	0	R1147P
1271.839	3.454	1278894	PROB	3.454	n/a	n/a	-999	8	[4, 1, 3]	8	FR1	0	R1147P
1275.293	0.014	1282348	STOP	n/a	n/a	n/a	-999	8	[-999, -999, -999]	n/a	FR1	0	R1147P
1275.307	0.7	1282362	DISTRACT_END	n/a	n/a	n/a	-999	8	[0, 0, 0]	n/a	FR1	0	R1147P
1276.007	0.517	1283062	RETRIEVAL_ORIENT	n/a	n/a	n/a	-999	8	[0, 0, 0]	n/a	FR1	0	R1147P
1276.524	2.29	1283579	REC_START	n/a	n/a	n/a	-999	8	[0, 0, 0]	n/a	FR1	0	R1147P
1278.814	6.111	1285869	REC_WORD	6.111	n/a	PRINCE	3	8	[0, 0, 0]	n/a	FR1	0	R1147P
1284.925	6.06	1291980	REC_WORD_VV	6.06	n/a	<>	-999	8	[0, 0, 0]	n/a	FR1	0	R1147P
1290.985	1.931	1298039	REC_WORD	1.931	n/a	SUN	-999	8	[0, 0, 0]	n/a	FR1	0	R1147P
1292.916	2.214	1299970	REC_WORD	2.214	n/a	CLOUD	1	8	[0, 0, 0]	n/a	FR1	0	R1147P
1295.13	4.048	1302184	REC_WORD_VV	4.048	n/a	<>	-999	8	[0, 0, 0]	n/a	FR1	0	R1147P
1299.178	5.343	1306232	REC_WORD	5.343	n/a	FORK	-999	8	[0, 0, 0]	n/a	FR1	0	R1147P
1304.521	2.013	1311575	REC_WORD	2.013	n/a	COBRA	-999	8	[0, 0, 0]	n/a	FR1	0	R1147P
1306.534	27.867	1313588	REC_END	n/a	n/a	n/a	-999	8	[0, 0, 0]	n/a	FR1	0	R1147P
1334.401	0.5	1341453	TRIAL	n/a	n/a	n/a	-999	9	[0, 0, 0]	n/a	FR1	0	R1147P
1334.901	10.428	1341953	COUNTDOWN_START	n/a	n/a	n/a	-999	9	[0, 0, 0]	n/a	FR1	0	R1147P
1345.329	0.008	1352381	COUNTDOWN_END	n/a	n/a	n/a	-999	9	[0, 0, 0]	n/a	FR1	0	R1147P
1345.337	1.617	1352389	ORIENT	n/a	n/a	n/a	-999	9	[0, 0, 0]	n/a	FR1	0	R1147P
1346.954	2.133	1354006	ORIENT_OFF	n/a	n/a	n/a	-999	9	[0, 0, 0]	n/a	FR1	0	R1147P
1349.087	1.617	1356138	WORD	n/a	wordpools/wordpool_EN.txt	HAT	1	9	[0, 0, 0]	n/a	FR1	0	R1147P
1350.704	0.851	1357755	WORD_OFF	n/a	n/a	HAT	1	9	[0, 0, 0]	n/a	FR1	0	R1147P
1351.555	1.617	1358606	WORD	n/a	wordpools/wordpool_EN.txt	FUR	2	9	[0, 0, 0]	n/a	FR1	0	R1147P
1353.172	0.95	1360223	WORD_OFF	n/a	n/a	FUR	2	9	[0, 0, 0]	n/a	FR1	0	R1147P
1354.122	1.617	1361173	WORD	n/a	wordpools/wordpool_EN.txt	ARK	3	9	[0, 0, 0]	n/a	FR1	0	R1147P
1355.739	0.983	1362790	WORD_OFF	n/a	n/a	ARK	3	9	[0, 0, 0]	n/a	FR1	0	R1147P
1356.722	1.617	1363773	WORD	n/a	wordpools/wordpool_EN.txt	MOTH	4	9	[0, 0, 0]	n/a	FR1	0	R1147P
1358.339	0.967	1365390	WORD_OFF	n/a	n/a	MOTH	4	9	[0, 0, 0]	n/a	FR1	0	R1147P
1359.306	1.616	1366357	WORD	n/a	wordpools/wordpool_EN.txt	BADGE	5	9	[0, 0, 0]	n/a	FR1	0	R1147P
1360.922	0.917	1367973	WORD_OFF	n/a	n/a	BADGE	5	9	[0, 0, 0]	n/a	FR1	0	R1147P
1361.839	1.618	1368890	WORD	n/a	wordpools/wordpool_EN.txt	FLEA	6	9	[0, 0, 0]	n/a	FR1	0	R1147P
1363.457	0.8	1370508	WORD_OFF	n/a	n/a	FLEA	6	9	[0, 0, 0]	n/a	FR1	0	R1147P
1364.257	1.616	1371308	WORD	n/a	wordpools/wordpool_EN.txt	POOL	7	9	[0, 0, 0]	n/a	FR1	0	R1147P
1365.873	0.818	1372924	WORD_OFF	n/a	n/a	POOL	7	9	[0, 0, 0]	n/a	FR1	0	R1147P
1366.691	1.617	1373742	WORD	n/a	wordpools/wordpool_EN.txt	DESK	8	9	[0, 0, 0]	n/a	FR1	0	R1147P
1368.308	0.783	1375358	WORD_OFF	n/a	n/a	DESK	8	9	[0, 0, 0]	n/a	FR1	0	R1147P
1369.091	1.617	1376141	WORD	n/a	wordpools/wordpool_EN.txt	DIME	9	9	[0, 0, 0]	n/a	FR1	0	R1147P
1370.708	0.95	1377758	WORD_OFF	n/a	n/a	DIME	9	9	[0, 0, 0]	n/a	FR1	0	R1147P
1371.658	1.617	1378708	WORD	n/a	wordpools/wordpool_EN.txt	CHALK	10	9	[0, 0, 0]	n/a	FR1	0	R1147P
1373.275	0.767	1380325	WORD_OFF	n/a	n/a	CHALK	10	9	[0, 0, 0]	n/a	FR1	0	R1147P
1374.042	1.617	1381092	WORD	n/a	wordpools/wordpool_EN.txt	HOOK	11	9	[0, 0, 0]	n/a	FR1	0	R1147P
1375.659	0.934	1382709	WORD_OFF	n/a	n/a	HOOK	11	9	[0, 0, 0]	n/a	FR1	0	R1147P
1376.593	1.617	1383643	WORD	n/a	wordpools/wordpool_EN.txt	SHRIMP	12	9	[0, 0, 0]	n/a	FR1	0	R1147P
1378.21	0.0	1385260	WORD_OFF	n/a	n/a	SHRIMP	12	9	[0, 0, 0]	n/a	FR1	0	R1147P
1378.21	0.0	1385260	DISTRACT_START	n/a	n/a	n/a	-999	9	[0, 0, 0]	n/a	FR1	0	R1147P
1378.21	0.016	1385260	START	n/a	n/a	n/a	-999	9	[-999, -999, -999]	n/a	FR1	0	R1147P
1378.226	4.584	1385276	PROB	4.584	n/a	n/a	-999	9	[6, 3, 4]	15	FR1	0	R1147P
1382.81	2.983	1389860	PROB	2.983	n/a	n/a	-999	9	[8, 1, 3]	12	FR1	0	R1147P
1385.793	3.752	1392843	PROB	3.752	n/a	n/a	-999	9	[7, 5, 7]	19	FR1	0	R1147P
1389.545	3.034	1396594	PROB	3.034	n/a	n/a	-999	9	[2, 3, 4]	9	FR1	0	R1147P
1392.579	6.018	1399628	PROB	6.018	n/a	n/a	-999	9	[7, 6, 5]	18	FR1	0	R1147P
1398.597	0.016	1405646	STOP	n/a	n/a	n/a	-999	9	[-999, -999, -999]	n/a	FR1	0	R1147P
1398.613	0.634	1405662	DISTRACT_END	n/a	n/a	n/a	-999	9	[0, 0, 0]	n/a	FR1	0	R1147P
1399.247	0.518	1406296	RETRIEVAL_ORIENT	n/a	n/a	n/a	-999	9	[0, 0, 0]	n/a	FR1	0	R1147P
1399.765	1.681	1406814	REC_START	n/a	n/a	n/a	-999	9	[0, 0, 0]	n/a	FR1	0	R1147P
1401.446	0.428	1408495	REC_WORD	0.428	n/a	HAT	1	9	[0, 0, 0]	n/a	FR1	0	R1147P
1401.874	5.104	1408923	REC_WORD	5.104	n/a	FUR	2	9	[0, 0, 0]	n/a	FR1	0	R1147P
1406.978	1.348	1414026	REC_WORD	1.348	n/a	COAT	-999	9	[0, 0, 0]	n/a	FR1	0	R1147P
1408.326	2.357	1415374	REC_WORD	2.357	n/a	ARK	3	9	[0, 0, 0]	n/a	FR1	0	R1147P
1410.683	6.132	1417731	REC_WORD	6.132	n/a	FOOD	-999	9	[0, 0, 0]	n/a	FR1	0	R1147P
1416.815	12.96	1423863	REC_WORD	12.96	n/a	POOL	7	9	[0, 0, 0]	n/a	FR1	0	R1147P
1429.775	5.795	1436822	REC_END	n/a	n/a	n/a	-999	9	[0, 0, 0]	n/a	FR1	0	R1147P
1435.57	0.5	1442617	TRIAL	n/a	n/a	n/a	-999	10	[0, 0, 0]	n/a	FR1	0	R1147P
1436.07	10.428	1443117	COUNTDOWN_START	n/a	n/a	n/a	-999	10	[0, 0, 0]	n/a	FR1	0	R1147P
1446.498	0.008	1453544	COUNTDOWN_END	n/a	n/a	n/a	-999	10	[0, 0, 0]	n/a	FR1	0	R1147P
1446.506	1.617	1453552	ORIENT	n/a	n/a	n/a	-999	10	[0, 0, 0]	n/a	FR1	0	R1147P
1448.123	2.3	1455169	ORIENT_OFF	n/a	n/a	n/a	-999	10	[0, 0, 0]	n/a	FR1	0	R1147P
1450.423	1.617	1457469	WORD	n/a	wordpools/wordpool_EN.txt	ROOM	1	10	[0, 0, 0]	n/a	FR1	0	R1147P
1452.04	0.883	1459086	WORD_OFF	n/a	n/a	ROOM	1	10	[0, 0, 0]	n/a	FR1	0	R1147P
1452.923	1.618	1459969	WORD	n/a	wordpools/wordpool_EN.txt	BUSH	2	10	[0, 0, 0]	n/a	FR1	0	R1147P
1454.541	0.9	1461587	WORD_OFF	n/a	n/a	BUSH	2	10	[0, 0, 0]	n/a	FR1	0	R1147P
1455.441	1.617	1462487	WORD	n/a	wordpools/wordpool_EN.txt	CHIN	3	10	[0, 0, 0]	n/a	FR1	0	R1147P
1457.058	0.917	1464104	WORD_OFF	n/a	n/a	CHIN	3	10	[0, 0, 0]	n/a	FR1	0	R1147P
1457.975	1.617	1465021	WORD	n/a	wordpools/wordpool_EN.txt	JAIL	4	10	[0, 0, 0]	n/a	FR1	0	R1147P
1459.592	0.95	1466638	WORD_OFF	n/a	n/a	JAIL	4	10	[0, 0, 0]	n/a	FR1	0	R1147P
1460.542	1.617	1467588	WORD	n/a	wordpools/wordpool_EN.txt	PIPE	5	10	[0, 0, 0]	n/a	FR1	0	R1147P
1462.159	1.0	1469205	WORD_OFF	n/a	n/a	PIPE	5	10	[0, 0, 0]	n/a	FR1	0	R1147P
1463.159	1.616	1470205	WORD	n/a	wordpools/wordpool_EN.txt	VEST	6	10	[0, 0, 0]	n/a	FR1	0	R1147P
1464.775	0.818	1471821	WORD_OFF	n/a	n/a	VEST	6	10	[0, 0, 0]	n/a	FR1	0	R1147P
1465.593	1.617	1472639	WORD	n/a	wordpools/wordpool_EN.txt	SEAL	7	10	[0, 0, 0]	n/a	FR1	0	R1147P
1467.21	0.766	1474255	WORD_OFF	n/a	n/a	SEAL	7	10	[0, 0, 0]	n/a	FR1	0	R1147P
1467.976	1.617	1475021	WORD	n/a	wordpools/wordpool_EN.txt	CUBE	8	10	[0, 0, 0]	n/a	FR1	0	R1147P
1469.593	0.967	1476638	WORD_OFF	n/a	n/a	CUBE	8	10	[0, 0, 0]	n/a	FR1	0	R1147P
1470.56	1.617	1477605	WORD	n/a	wordpools/wordpool_EN.txt	STRAW	9	10	[0, 0, 0]	n/a	FR1	0	R1147P
1472.177	1.0	1479222	WORD_OFF	n/a	n/a	STRAW	9	10	[0, 0, 0]	n/a	FR1	0	R1147P
1473.177	1.616	1480222	WORD	n/a	wordpools/wordpool_EN.txt	DEER	10	10	[0, 0, 0]	n/a	FR1	0	R1147P
1474.793	0.968	1481838	WORD_OFF	n/a	n/a	DEER	10	10	[0, 0, 0]	n/a	FR1	0	R1147P
1475.761	1.617	1482806	WORD	n/a	wordpools/wordpool_EN.txt	TOOL	11	10	[0, 0, 0]	n/a	FR1	0	R1147P
1477.378	0.817	1484423	WORD_OFF	n/a	n/a	TOOL	11	10	[0, 0, 0]	n/a	FR1	0	R1147P
1478.195	1.616	1485240	WORD	n/a	wordpools/wordpool_EN.txt	SALT	12	10	[0, 0, 0]	n/a	FR1	0	R1147P
1479.811	0.0	1486856	WORD_OFF	n/a	n/a	SALT	12	10	[0, 0, 0]	n/a	FR1	0	R1147P
1479.811	0.001	1486856	DISTRACT_START	n/a	n/a	n/a	-999	10	[0, 0, 0]	n/a	FR1	0	R1147P
1479.812	0.016	1486857	START	n/a	n/a	n/a	-999	10	[-999, -999, -999]	n/a	FR1	0	R1147P
1479.828	4.518	1486873	PROB	4.518	n/a	n/a	-999	10	[4, 8, 4]	16	FR1	0	R1147P
1484.346	3.567	1491391	PROB	3.567	n/a	n/a	-999	10	[7, 7, 2]	16	FR1	0	R1147P
1487.913	3.418	1494957	PROB	3.418	n/a	n/a	-999	10	[2, 5, 1]	8	FR1	0	R1147P
1491.331	3.45	1498375	PROB	3.45	n/a	n/a	-999	10	[2, 2, 7]	11	FR1	0	R1147P
1494.781	3.518	1501825	PROB	3.518	n/a	n/a	-999	10	[1, 9, 3]	13	FR1	0	R1147P
1498.299	4.529	1505343	PROB	4.529	n/a	n/a	-999	10	[5, 6, 7]	19	FR1	0	R1147P
1502.828	0.021	1509872	STOP	n/a	n/a	n/a	-999	10	[-999, -999, -999]	n/a	FR1	0	R1147P
1502.849	0.618	1509893	DISTRACT_END	n/a	n/a	n/a	-999	10	[0, 0, 0]	n/a	FR1	0	R1147P
1503.467	0.517	1510511	RETRIEVAL_ORIENT	n/a	n/a	n/a	-999	10	[0, 0, 0]	n/a	FR1	0	R1147P
1503.984	1.539	1511028	REC_START	n/a	n/a	n/a	-999	10	[0, 0, 0]	n/a	FR1	0	R1147P
1505.523	0.617	1512566	REC_WORD	0.617	n/a	DEER	10	10	[0, 0, 0]	n/a	FR1	0	R1147P
1506.14	1.017	1513183	REC_WORD	1.017	n/a	SALT	12	10	[0, 0, 0]	n/a	FR1	0	R1147P
1507.157	5.687	1514200	REC_WORD	5.687	n/a	ROOM	1	10	[0, 0, 0]	n/a	FR1	0	R1147P
1512.844	8.881	1519887	REC_WORD	8.881	n/a	FOOD	-999	10	[0, 0, 0]	n/a	FR1	0	R1147P
1521.725	2.578	1528768	REC_WORD	2.578	n/a	LICK	-999	10	[0, 0, 0]	n/a	FR1	0	R1147P
1524.303	6.461	1531346	REC_WORD	6.461	n/a	BUSH	2	10	[0, 0, 0]	n/a	FR1	0	R1147P
1530.764	3.232	1537806	REC_WORD	3.232	n/a	WATCH	-999	10	[0, 0, 0]	n/a	FR1	0	R1147P
1533.996	7.528	1541038	REC_END	n/a	n/a	n/a	-999	10	[0, 0, 0]	n/a	FR1	0	R1147P
1541.524	0.5	1548566	TRIAL	n/a	n/a	n/a	-999	11	[0, 0, 0]	n/a	FR1	0	R1147P
1542.024	10.428	1549066	COUNTDOWN_START	n/a	n/a	n/a	-999	11	[0, 0, 0]	n/a	FR1	0	R1147P
1552.452	0.007	1559493	COUNTDOWN_END	n/a	n/a	n/a	-999	11	[0, 0, 0]	n/a	FR1	0	R1147P
1552.459	1.617	1559500	ORIENT	n/a	n/a	n/a	-999	11	[0, 0, 0]	n/a	FR1	0	R1147P
1554.076	2.334	1561117	ORIENT_OFF	n/a	n/a	n/a	-999	11	[0, 0, 0]	n/a	FR1	0	R1147P
1556.41	1.617	1563451	WORD	n/a	wordpools/wordpool_EN.txt	NET	1	11	[0, 0, 0]	n/a	FR1	0	R1147P
1558.027	0.95	1565068	WORD_OFF	n/a	n/a	NET	1	11	[0, 0, 0]	n/a	FR1	0	R1147P
1558.977	1.617	1566018	WORD	n/a	wordpools/wordpool_EN.txt	STORM	2	11	[0, 0, 0]	n/a	FR1	0	R1147P
1560.594	0.983	1567635	WORD_OFF	n/a	n/a	STORM	2	11	[0, 0, 0]	n/a	FR1	0	R1147P
1561.577	1.618	1568618	WORD	n/a	wordpools/wordpool_EN.txt	SKY	3	11	[0, 0, 0]	n/a	FR1	0	R1147P
1563.195	1.0	1570236	WORD_OFF	n/a	n/a	SKY	3	11	[0, 0, 0]	n/a	FR1	0	R1147P
1564.195	1.616	1571236	WORD	n/a	wordpools/wordpool_EN.txt	BIRD	4	11	[0, 0, 0]	n/a	FR1	0	R1147P
1565.811	1.0	1572851	WORD_OFF	n/a	n/a	BIRD	4	11	[0, 0, 0]	n/a	FR1	0	R1147P
1566.811	1.618	1573851	WORD	n/a	wordpools/wordpool_EN.txt	RUG	5	11	[0, 0, 0]	n/a	FR1	0	R1147P
1568.429	0.917	1575469	WORD_OFF	n/a	n/a	RUG	5	11	[0, 0, 0]	n/a	FR1	0	R1147P
1569.346	1.617	1576386	WORD	n/a	wordpools/wordpool_EN.txt	EEL	6	11	[0, 0, 0]	n/a	FR1	0	R1147P
1570.963	0.932	1578003	WORD_OFF	n/a	n/a	EEL	6	11	[0, 0, 0]	n/a	FR1	0	R1147P
1571.895	1.601	1578935	WORD	n/a	wordpools/wordpool_EN.txt	TOOTH	7	11	[0, 0, 0]	n/a	FR1	0	R1147P
1573.496	0.784	1580536	WORD_OFF	n/a	n/a	TOOTH	7	11	[0, 0, 0]	n/a	FR1	0	R1147P
1574.28	1.616	1581320	WORD	n/a	wordpools/wordpool_EN.txt	CLOCK	8	11	[0, 0, 0]	n/a	FR1	0	R1147P
1575.896	1.0	1582936	WORD_OFF	n/a	n/a	CLOCK	8	11	[0, 0, 0]	n/a	FR1	0	R1147P
1576.896	1.601	1583936	WORD	n/a	wordpools/wordpool_EN.txt	LAND	9	11	[0, 0, 0]	n/a	FR1	0	R1147P
1578.497	0.95	1585537	WORD_OFF	n/a	n/a	LAND	9	11	[0, 0, 0]	n/a	FR1	0	R1147P
1579.447	1.617	1586487	WORD	n/a	wordpools/wordpool_EN.txt	DOG	10	11	[0, 0, 0]	n/a	FR1	0	R1147P
1581.064	0.901	1588104	WORD_OFF	n/a	n/a	DOG	10	11	[0, 0, 0]	n/a	FR1	0	R1147P
1581.965	1.617	1589005	WORD	n/a	wordpools/wordpool_EN.txt	ICE	11	11	[0, 0, 0]	n/a	FR1	0	R1147P
1583.582	0.966	1590622	WORD_OFF	n/a	n/a	ICE	11	11	[0, 0, 0]	n/a	FR1	0	R1147P
1584.548	1.617	1591587	WORD	n/a	wordpools/wordpool_EN.txt	INK	12	11	[0, 0, 0]	n/a	FR1	0	R1147P
1586.165	0.0	1593204	WORD_OFF	n/a	n/a	INK	12	11	[0, 0, 0]	n/a	FR1	0	R1147P
1586.165	0.001	1593204	DISTRACT_START	n/a	n/a	n/a	-999	11	[0, 0, 0]	n/a	FR1	0	R1147P
1586.166	0.016	1593205	START	n/a	n/a	n/a	-999	11	[-999, -999, -999]	n/a	FR1	0	R1147P
1586.182	5.084	1593221	PROB	5.084	n/a	n/a	-999	11	[2, 9, 4]	15	FR1	0	R1147P
1591.266	3.418	1598305	PROB	3.418	n/a	n/a	-999	11	[8, 3, 2]	13	FR1	0	R1147P
1594.684	4.251	1601723	PROB	4.251	n/a	n/a	-999	11	[4, 8, 8]	16	FR1	0	R1147P
1598.935	4.833	1605974	PROB	4.833	n/a	n/a	-999	11	[6, 5, 9]	20	FR1	0	R1147P
1603.768	3.23	1610807	PROB	3.23	n/a	n/a	-999	11	[4, 6, 2]	12	FR1	0	R1147P
1606.998	0.021	1614036	STOP	n/a	n/a	n/a	-999	11	[-999, -999, -999]	n/a	FR1	0	R1147P
1607.019	0.534	1614057	DISTRACT_END	n/a	n/a	n/a	-999	11	[0, 0, 0]	n/a	FR1	0	R1147P
1607.553	0.518	1614591	RETRIEVAL_ORIENT	n/a	n/a	n/a	-999	11	[0, 0, 0]	n/a	FR1	0	R1147P
1608.071	1.559	1615109	REC_START	n/a	n/a	n/a	-999	11	[0, 0, 0]	n/a	FR1	0	R1147P
1609.63	0.785	1616668	REC_WORD_VV	0.785	n/a	<>	-999	11	[0, 0, 0]	n/a	FR1	0	R1147P
1610.415	0.323	1617453	REC_WORD	0.323	n/a	NET	1	11	[0, 0, 0]	n/a	FR1	0	R1147P
1610.738	1.09	1617776	REC_WORD	1.09	n/a	STORM	2	11	[0, 0, 0]	n/a	FR1	0	R1147P
1611.828	2.717	1618866	REC_WORD	2.717	n/a	EEL	6	11	[0, 0, 0]	n/a	FR1	0	R1147P
1614.545	5.534	1621583	REC_WORD	5.534	n/a	SKY	3	11	[0, 0, 0]	n/a	FR1	0	R1147P
1620.079	0.694	1627117	REC_WORD	0.694	n/a	BUSH	-999	11	[0, 0, 0]	n/a	FR1	0	R1147P
1620.773	15.527	1627811	REC_WORD	15.527	n/a	BIRD	4	11	[0, 0, 0]	n/a	FR1	0	R1147P
1636.3	1.781	1643337	REC_WORD	1.781	n/a	GOAT	-999	11	[0, 0, 0]	n/a	FR1	0	R1147P
1638.081	6.312	1645118	REC_END	n/a	n/a	n/a	-999	11	[0, 0, 0]	n/a	FR1	0	R1147P
1644.393	0.5	1651429	TRIAL	n/a	n/a	n/a	-999	12	[0, 0, 0]	n/a	FR1	0	R1147P
1644.893	10.428	1651929	COUNTDOWN_START	n/a	n/a	n/a	-999	12	[0, 0, 0]	n/a	FR1	0	R1147P
1655.321	0.007	1662357	COUNTDOWN_END	n/a	n/a	n/a	-999	12	[0, 0, 0]	n/a	FR1	0	R1147P
1655.328	1.617	1662364	ORIENT	n/a	n/a	n/a	-999	12	[0, 0, 0]	n/a	FR1	0	R1147P
1656.945	2.201	1663981	ORIENT_OFF	n/a	n/a	n/a	-999	12	[0, 0, 0]	n/a	FR1	0	R1147P
1659.146	1.617	1666182	WORD	n/a	wordpools/wordpool_EN.txt	PEA	1	12	[0, 0, 0]	n/a	FR1	0	R1147P
1660.763	0.983	1667799	WORD_OFF	n/a	n/a	PEA	1	12	[0, 0, 0]	n/a	FR1	0	R1147P
1661.746	1.617	1668782	WORD	n/a	wordpools/wordpool_EN.txt	CLOWN	2	12	[0, 0, 0]	n/a	FR1	0	R1147P
1663.363	0.951	1670398	WORD_OFF	n/a	n/a	CLOWN	2	12	[0, 0, 0]	n/a	FR1	0	R1147P
1664.314	1.616	1671349	WORD	n/a	wordpools/wordpool_EN.txt	ROOT	3	12	[0, 0, 0]	n/a	FR1	0	R1147P
1665.93	0.983	1672965	WORD_OFF	n/a	n/a	ROOT	3	12	[0, 0, 0]	n/a	FR1	0	R1147P
1666.913	1.618	1673948	WORD	n/a	wordpools/wordpool_EN.txt	WOLF	4	12	[0, 0, 0]	n/a	FR1	0	R1147P
1668.531	0.967	1675566	WORD_OFF	n/a	n/a	WOLF	4	12	[0, 0, 0]	n/a	FR1	0	R1147P
1669.498	1.617	1676533	WORD	n/a	wordpools/wordpool_EN.txt	CLOTH	5	12	[0, 0, 0]	n/a	FR1	0	R1147P
1671.115	0.817	1678150	WORD_OFF	n/a	n/a	CLOTH	5	12	[0, 0, 0]	n/a	FR1	0	R1147P
1671.932	1.617	1678967	WORD	n/a	wordpools/wordpool_EN.txt	MOLE	6	12	[0, 0, 0]	n/a	FR1	0	R1147P
1673.549	0.783	1680584	WORD_OFF	n/a	n/a	MOLE	6	12	[0, 0, 0]	n/a	FR1	0	R1147P
1674.332	1.617	1681367	WORD	n/a	wordpools/wordpool_EN.txt	STONE	7	12	[0, 0, 0]	n/a	FR1	0	R1147P
1675.949	0.899	1682984	WORD_OFF	n/a	n/a	STONE	7	12	[0, 0, 0]	n/a	FR1	0	R1147P
1676.848	1.618	1683883	WORD	n/a	wordpools/wordpool_EN.txt	HORSE	8	12	[0, 0, 0]	n/a	FR1	0	R1147P
1678.466	0.817	1685501	WORD_OFF	n/a	n/a	HORSE	8	12	[0, 0, 0]	n/a	FR1	0	R1147P
1679.283	1.616	1686318	WORD	n/a	wordpools/wordpool_EN.txt	THUMB	9	12	[0, 0, 0]	n/a	FR1	0	R1147P
1680.899	0.917	1687934	WORD_OFF	n/a	n/a	THUMB	9	12	[0, 0, 0]	n/a	FR1	0	R1147P
1681.816	1.618	1688851	WORD	n/a	wordpools/wordpool_EN.txt	FORT	10	12	[0, 0, 0]	n/a	FR1	0	R1147P
1683.434	0.816	1690468	WORD_OFF	n/a	n/a	FORT	10	12	[0, 0, 0]	n/a	FR1	0	R1147P
1684.25	1.616	1691284	WORD	n/a	wordpools/wordpool_EN.txt	WHEEL	11	12	[0, 0, 0]	n/a	FR1	0	R1147P
1685.866	0.818	1692900	WORD_OFF	n/a	n/a	WHEEL	11	12	[0, 0, 0]	n/a	FR1	0	R1147P
1686.684	1.617	1693718	WORD	n/a	wordpools/wordpool_EN.txt	SAIL	12	12	[0, 0, 0]	n/a	FR1	0	R1147P
1688.301	0.0	1695335	WORD_OFF	n/a	n/a	SAIL	12	12	[0, 0, 0]	n/a	FR1	0	R1147P
1688.301	0.001	1695335	DISTRACT_START	n/a	n/a	n/a	-999	12	[0, 0, 0]	n/a	FR1	0	R1147P
1688.302	0.016	1695336	START	n/a	n/a	n/a	-999	12	[-999, -999, -999]	n/a	FR1	0	R1147P
1688.318	4.734	1695352	PROB	4.734	n/a	n/a	-999	12	[7, 7, 9]	23	FR1	0	R1147P
1693.052	3.517	1700086	PROB	3.517	n/a	n/a	-999	12	[1, 7, 5]	13	FR1	0	R1147P
1696.569	5.201	1703603	PROB	5.201	n/a	n/a	-999	12	[5, 3, 4]	12	FR1	0	R1147P
1701.77	4.768	1708804	PROB	4.768	n/a	n/a	-999	12	[9, 6, 5]	20	FR1	0	R1147P
1706.538	3.482	1713571	PROB	3.482	n/a	n/a	-999	12	[3, 2, 7]	12	FR1	0	R1147P
1710.02	0.019	1717053	STOP	n/a	n/a	n/a	-999	12	[-999, -999, -999]	n/a	FR1	0	R1147P
1710.039	0.533	1717072	DISTRACT_END	n/a	n/a	n/a	-999	12	[0, 0, 0]	n/a	FR1	0	R1147P
1710.572	0.517	1717605	RETRIEVAL_ORIENT	n/a	n/a	n/a	-999	12	[0, 0, 0]	n/a	FR1	0	R1147P
1711.089	1.146	1718122	REC_START	n/a	n/a	n/a	-999	12	[0, 0, 0]	n/a	FR1	0	R1147P
1712.235	0.35	1719268	REC_WORD_VV	0.35	n/a	<>	-999	12	[0, 0, 0]	n/a	FR1	0	R1147P
1712.585	1.466	1719618	REC_WORD	1.466	n/a	SAIL	12	12	[0, 0, 0]	n/a	FR1	0	R1147P
1714.051	2.287	1721084	REC_WORD	2.287	n/a	PEA	1	12	[0, 0, 0]	n/a	FR1	0	R1147P
1716.338	2.858	1723371	REC_WORD	2.858	n/a	STONE	7	12	[0, 0, 0]	n/a	FR1	0	R1147P
1719.196	9.381	1726229	REC_WORD	9.381	n/a	CLOTH	5	12	[0, 0, 0]	n/a	FR1	0	R1147P
1728.577	6.094	1735609	REC_WORD	6.094	n/a	EEL	-999	12	[0, 0, 0]	n/a	FR1	0	R1147P
1734.671	1.637	1741703	REC_WORD	1.637	n/a	SKY	-999	12	[0, 0, 0]	n/a	FR1	0	R1147P
1736.308	4.792	1743340	REC_WORD	4.792	n/a	CLOUD	-999	12	[0, 0, 0]	n/a	FR1	0	R1147P
1741.1	26.665	1748132	REC_END	n/a	n/a	n/a	-999	12	[0, 0, 0]	n/a	FR1	0	R1147P
1767.765	0.5	1774795	TRIAL	n/a	n/a	n/a	-999	13	[0, 0, 0]	n/a	FR1	0	R1147P
1768.265	10.428	1775295	COUNTDOWN_START	n/a	n/a	n/a	-999	13	[0, 0, 0]	n/a	FR1	0	R1147P
1778.693	0.009	1785723	COUNTDOWN_END	n/a	n/a	n/a	-999	13	[0, 0, 0]	n/a	FR1	0	R1147P
1778.702	1.617	1785732	ORIENT	n/a	n/a	n/a	-999	13	[0, 0, 0]	n/a	FR1	0	R1147P
1780.319	2.15	1787349	ORIENT_OFF	n/a	n/a	n/a	-999	13	[0, 0, 0]	n/a	FR1	0	R1147P
1782.469	1.617	1789498	WORD	n/a	wordpools/wordpool_EN.txt	SMILE	1	13	[0, 0, 0]	n/a	FR1	0	R1147P
1784.086	0.917	1791115	WORD_OFF	n/a	n/a	SMILE	1	13	[0, 0, 0]	n/a	FR1	0	R1147P
1785.003	1.617	1792032	WORD	n/a	wordpools/wordpool_EN.txt	CAGE	2	13	[0, 0, 0]	n/a	FR1	0	R1147P
1786.62	0.933	1793649	WORD_OFF	n/a	n/a	CAGE	2	13	[0, 0, 0]	n/a	FR1	0	R1147P
1787.553	1.617	1794582	WORD	n/a	wordpools/wordpool_EN.txt	TRAY	3	13	[0, 0, 0]	n/a	FR1	0	R1147P
1789.17	0.817	1796199	WORD_OFF	n/a	n/a	TRAY	3	13	[0, 0, 0]	n/a	FR1	0	R1147P
1789.987	1.617	1797016	WORD	n/a	wordpools/wordpool_EN.txt	PIN	4	13	[0, 0, 0]	n/a	FR1	0	R1147P
1791.604	0.767	1798633	WORD_OFF	n/a	n/a	PIN	4	13	[0, 0, 0]	n/a	FR1	0	R1147P
1792.371	1.617	1799400	WORD	n/a	wordpools/wordpool_EN.txt	CUP	5	13	[0, 0, 0]	n/a	FR1	0	R1147P
1793.988	0.967	1801017	WORD_OFF	n/a	n/a	CUP	5	13	[0, 0, 0]	n/a	FR1	0	R1147P
1794.955	1.617	1801984	WORD	n/a	wordpools/wordpool_EN.txt	DUCK	6	13	[0, 0, 0]	n/a	FR1	0	R1147P
1796.572	0.983	1803601	WORD_OFF	n/a	n/a	DUCK	6	13	[0, 0, 0]	n/a	FR1	0	R1147P
1797.555	1.617	1804584	WORD	n/a	wordpools/wordpool_EN.txt	SINK	7	13	[0, 0, 0]	n/a	FR1	0	R1147P
1799.172	0.95	1806201	WORD_OFF	n/a	n/a	SINK	7	13	[0, 0, 0]	n/a	FR1	0	R1147P
1800.122	1.617	1807151	WORD	n/a	wordpools/wordpool_EN.txt	RIB	8	13	[0, 0, 0]	n/a	FR1	0	R1147P
1801.739	0.95	1808767	WORD_OFF	n/a	n/a	RIB	8	13	[0, 0, 0]	n/a	FR1	0	R1147P
1802.689	1.617	1809717	WORD	n/a	wordpools/wordpool_EN.txt	BAND	9	13	[0, 0, 0]	n/a	FR1	0	R1147P
1804.306	0.884	1811334	WORD_OFF	n/a	n/a	BAND	9	13	[0, 0, 0]	n/a	FR1	0	R1147P
1805.19	1.616	1812218	WORD	n/a	wordpools/wordpool_EN.txt	PALM	10	13	[0, 0, 0]	n/a	FR1	0	R1147P
1806.806	1.0	1813834	WORD_OFF	n/a	n/a	PALM	10	13	[0, 0, 0]	n/a	FR1	0	R1147P
1807.806	1.618	1814834	WORD	n/a	wordpools/wordpool_EN.txt	BRUSH	11	13	[0, 0, 0]	n/a	FR1	0	R1147P
1809.424	0.867	1816452	WORD_OFF	n/a	n/a	BRUSH	11	13	[0, 0, 0]	n/a	FR1	0	R1147P
1810.291	1.616	1817319	WORD	n/a	wordpools/wordpool_EN.txt	CHAIR	12	13	[0, 0, 0]	n/a	FR1	0	R1147P
1811.907	0.0	1818935	WORD_OFF	n/a	n/a	CHAIR	12	13	[0, 0, 0]	n/a	FR1	0	R1147P
1811.907	0.0	1818935	DISTRACT_START	n/a	n/a	n/a	-999	13	[0, 0, 0]	n/a	FR1	0	R1147P
1811.907	0.016	1818935	START	n/a	n/a	n/a	-999	13	[-999, -999, -999]	n/a	FR1	0	R1147P
1811.923	3.569	1818951	PROB	3.569	n/a	n/a	-999	13	[6, 1, 4]	11	FR1	0	R1147P
1815.492	3.867	1822520	PROB	3.867	n/a	n/a	-999	13	[6, 5, 8]	19	FR1	0	R1147P
1819.359	3.467	1826387	PROB	3.467	n/a	n/a	-999	13	[3, 5, 5]	13	FR1	0	R1147P
1822.826	3.768	1829853	PROB	3.768	n/a	n/a	-999	13	[4, 2, 4]	10	FR1	0	R1147P
1826.594	3.517	1833621	PROB	3.517	n/a	n/a	-999	13	[1, 3, 8]	12	FR1	0	R1147P
1830.111	5.263	1837138	PROB	5.263	n/a	n/a	-999	13	[6, 7, 2]	15	FR1	0	R1147P
1835.374	0.022	1842401	STOP	n/a	n/a	n/a	-999	13	[-999, -999, -999]	n/a	FR1	0	R1147P
1835.396	0.7	1842423	DISTRACT_END	n/a	n/a	n/a	-999	13	[0, 0, 0]	n/a	FR1	0	R1147P
1836.096	0.517	1843123	RETRIEVAL_ORIENT	n/a	n/a	n/a	-999	13	[0, 0, 0]	n/a	FR1	0	R1147P
1836.613	2.116	1843640	REC_START	n/a	n/a	n/a	-999	13	[0, 0, 0]	n/a	FR1	0	R1147P
1838.729	3.139	1845756	REC_WORD	3.139	n/a	TRAY	3	13	[0, 0, 0]	n/a	FR1	0	R1147P
1841.868	5.701	1848894	REC_WORD	5.701	n/a	PIN	4	13	[0, 0, 0]	n/a	FR1	0	R1147P
1847.569	10.365	1854595	REC_WORD	10.365	n/a	WOOD	-999	13	[0, 0, 0]	n/a	FR1	0	R1147P
1857.934	0.512	1864960	REC_WORD	0.512	n/a	DUCK	6	13	[0, 0, 0]	n/a	FR1	0	R1147P
1858.446	5.816	1865472	REC_WORD	5.816	n/a	ARK	-999	13	[0, 0, 0]	n/a	FR1	0	R1147P
1864.262	2.361	1871287	REC_WORD	2.361	n/a	BILL	-999	13	[0, 0, 0]	n/a	FR1	0	R1147P
1866.623	11.464	1873648	REC_END	n/a	n/a	n/a	-999	13	[0, 0, 0]	n/a	FR1	0	R1147P
1878.087	0.5	1885112	TRIAL	n/a	n/a	n/a	-999	14	[0, 0, 0]	n/a	FR1	0	R1147P
1878.587	10.428	1885612	COUNTDOWN_START	n/a	n/a	n/a	-999	14	[0, 0, 0]	n/a	FR1	0	R1147P
1889.015	0.007	1896039	COUNTDOWN_END	n/a	n/a	n/a	-999	14	[0, 0, 0]	n/a	FR1	0	R1147P
1889.022	1.617	1896046	ORIENT	n/a	n/a	n/a	-999	14	[0, 0, 0]	n/a	FR1	0	R1147P
1890.639	2.1	1897663	ORIENT_OFF	n/a	n/a	n/a	-999	14	[0, 0, 0]	n/a	FR1	0	R1147P
1892.739	1.618	1899763	WORD	n/a	wordpools/wordpool_EN.txt	MOUTH	1	14	[0, 0, 0]	n/a	FR1	0	R1147P
1894.357	0.8	1901381	WORD_OFF	n/a	n/a	MOUTH	1	14	[0, 0, 0]	n/a	FR1	0	R1147P
1895.157	1.616	1902181	WORD	n/a	wordpools/wordpool_EN.txt	STAR	2	14	[0, 0, 0]	n/a	FR1	0	R1147P
1896.773	0.901	1903797	WORD_OFF	n/a	n/a	STAR	2	14	[0, 0, 0]	n/a	FR1	0	R1147P
1897.674	1.617	1904698	WORD	n/a	wordpools/wordpool_EN.txt	MAP	3	14	[0, 0, 0]	n/a	FR1	0	R1147P
1899.291	1.0	1906315	WORD_OFF	n/a	n/a	MAP	3	14	[0, 0, 0]	n/a	FR1	0	R1147P
1900.291	1.616	1907314	WORD	n/a	wordpools/wordpool_EN.txt	BEACH	4	14	[0, 0, 0]	n/a	FR1	0	R1147P
1901.907	0.984	1908930	WORD_OFF	n/a	n/a	BEACH	4	14	[0, 0, 0]	n/a	FR1	0	R1147P
1902.891	1.618	1909914	WORD	n/a	wordpools/wordpool_EN.txt	SNAIL	5	14	[0, 0, 0]	n/a	FR1	0	R1147P
1904.509	1.017	1911532	WORD_OFF	n/a	n/a	SNAIL	5	14	[0, 0, 0]	n/a	FR1	0	R1147P
1905.526	1.616	1912549	WORD	n/a	wordpools/wordpool_EN.txt	PIG	6	14	[0, 0, 0]	n/a	FR1	0	R1147P
1907.142	0.951	1914165	WORD_OFF	n/a	n/a	PIG	6	14	[0, 0, 0]	n/a	FR1	0	R1147P
1908.093	1.617	1915116	WORD	n/a	wordpools/wordpool_EN.txt	BREAD	7	14	[0, 0, 0]	n/a	FR1	0	R1147P
1909.71	0.833	1916733	WORD_OFF	n/a	n/a	BREAD	7	14	[0, 0, 0]	n/a	FR1	0	R1147P
1910.543	1.617	1917566	WORD	n/a	wordpools/wordpool_EN.txt	CAR	8	14	[0, 0, 0]	n/a	FR1	0	R1147P
1912.16	0.766	1919183	WORD_OFF	n/a	n/a	CAR	8	14	[0, 0, 0]	n/a	FR1	0	R1147P
1912.926	1.618	1919949	WORD	n/a	wordpools/wordpool_EN.txt	SHELL	9	14	[0, 0, 0]	n/a	FR1	0	R1147P
1914.544	0.983	1921567	WORD_OFF	n/a	n/a	SHELL	9	14	[0, 0, 0]	n/a	FR1	0	R1147P
1915.527	1.617	1922550	WORD	n/a	wordpools/wordpool_EN.txt	HAND	10	14	[0, 0, 0]	n/a	FR1	0	R1147P
1917.144	0.934	1924167	WORD_OFF	n/a	n/a	HAND	10	14	[0, 0, 0]	n/a	FR1	0	R1147P
1918.078	1.617	1925101	WORD	n/a	wordpools/wordpool_EN.txt	FROG	11	14	[0, 0, 0]	n/a	FR1	0	R1147P
1919.695	0.8	1926717	WORD_OFF	n/a	n/a	FROG	11	14	[0, 0, 0]	n/a	FR1	0	R1147P
1920.495	1.617	1927517	WORD	n/a	wordpools/wordpool_EN.txt	COIN	12	14	[0, 0, 0]	n/a	FR1	0	R1147P
1922.112	0.0	1929134	WORD_OFF	n/a	n/a	COIN	12	14	[0, 0, 0]	n/a	FR1	0	R1147P
1922.112	0.0	1929134	DISTRACT_START	n/a	n/a	n/a	-999	14	[0, 0, 0]	n/a	FR1	0	R1147P
1922.112	0.017	1929134	START	n/a	n/a	n/a	-999	14	[-999, -999, -999]	n/a	FR1	0	R1147P
1922.129	4.117	1929151	PROB	4.117	n/a	n/a	-999	14	[1, 7, 4]	12	FR1	0	R1147P
1926.246	3.934	1933268	PROB	3.934	n/a	n/a	-999	14	[9, 4, 7]	20	FR1	0	R1147P
1930.18	3.384	1937202	PROB	3.384	n/a	n/a	-999	14	[5, 4, 4]	13	FR1	0	R1147P
1933.564	3.667	1940586	PROB	3.667	n/a	n/a	-999	14	[8, 9, 1]	18	FR1	0	R1147P
1937.231	6.782	1944253	PROB	6.782	n/a	n/a	-999	14	[9, 4, 5]	18	FR1	0	R1147P
1944.013	0.02	1951034	STOP	n/a	n/a	n/a	-999	14	[-999, -999, -999]	n/a	FR1	0	R1147P
1944.033	0.55	1951054	DISTRACT_END	n/a	n/a	n/a	-999	14	[0, 0, 0]	n/a	FR1	0	R1147P
1944.583	0.517	1951604	RETRIEVAL_ORIENT	n/a	n/a	n/a	-999	14	[0, 0, 0]	n/a	FR1	0	R1147P
1945.1	1.601	1952121	REC_START	n/a	n/a	n/a	-999	14	[0, 0, 0]	n/a	FR1	0	R1147P
1946.701	0.379	1953722	REC_WORD	0.379	n/a	MOUTH	1	14	[0, 0, 0]	n/a	FR1	0	R1147P
1947.08	1.003	1954101	REC_WORD	1.003	n/a	STAR	2	14	[0, 0, 0]	n/a	FR1	0	R1147P
1948.083	0.801	1955104	REC_WORD	0.801	n/a	BEACH	4	14	[0, 0, 0]	n/a	FR1	0	R1147P
1948.884	5.1	1955905	REC_WORD	5.1	n/a	COIN	12	14	[0, 0, 0]	n/a	FR1	0	R1147P
1953.984	8.116	1961005	REC_WORD	8.116	n/a	SKY	-999	14	[0, 0, 0]	n/a	FR1	0	R1147P
1962.1	3.395	1969120	REC_WORD	3.395	n/a	SAND	-999	14	[0, 0, 0]	n/a	FR1	0	R1147P
1965.495	4.219	1972515	REC_WORD	4.219	n/a	EEL	-999	14	[0, 0, 0]	n/a	FR1	0	R1147P
1969.714	5.399	1976734	REC_WORD	5.399	n/a	FROG	11	14	[0, 0, 0]	n/a	FR1	0	R1147P
1975.113	5.61	1982133	REC_END	n/a	n/a	n/a	-999	14	[0, 0, 0]	n/a	FR1	0	R1147P
1980.723	0.5	1987742	TRIAL	n/a	n/a	n/a	-999	15	[0, 0, 0]	n/a	FR1	0	R1147P
1981.223	10.428	1988242	COUNTDOWN_START	n/a	n/a	n/a	-999	15	[0, 0, 0]	n/a	FR1	0	R1147P
1991.651	0.007	1998670	COUNTDOWN_END	n/a	n/a	n/a	-999	15	[0, 0, 0]	n/a	FR1	0	R1147P
1991.658	1.617	1998677	ORIENT	n/a	n/a	n/a	-999	15	[0, 0, 0]	n/a	FR1	0	R1147P
1993.275	1.817	2000294	ORIENT_OFF	n/a	n/a	n/a	-999	15	[0, 0, 0]	n/a	FR1	0	R1147P
1995.092	1.617	2002111	WORD	n/a	wordpools/wordpool_EN.txt	HAWK	1	15	[0, 0, 0]	n/a	FR1	0	R1147P
1996.709	0.817	2003728	WORD_OFF	n/a	n/a	HAWK	1	15	[0, 0, 0]	n/a	FR1	0	R1147P
1997.526	1.617	2004545	WORD	n/a	wordpools/wordpool_EN.txt	CLIFF	2	15	[0, 0, 0]	n/a	FR1	0	R1147P
1999.143	0.817	2006161	WORD_OFF	n/a	n/a	CLIFF	2	15	[0, 0, 0]	n/a	FR1	0	R1147P
1999.96	1.617	2006978	WORD	n/a	wordpools/wordpool_EN.txt	HOOF	3	15	[0, 0, 0]	n/a	FR1	0	R1147P
2001.577	0.95	2008595	WORD_OFF	n/a	n/a	HOOF	3	15	[0, 0, 0]	n/a	FR1	0	R1147P
2002.527	1.617	2009545	WORD	n/a	wordpools/wordpool_EN.txt	GATE	4	15	[0, 0, 0]	n/a	FR1	0	R1147P
2004.144	1.0	2011162	WORD_OFF	n/a	n/a	GATE	4	15	[0, 0, 0]	n/a	FR1	0	R1147P
2005.144	1.617	2012162	WORD	n/a	wordpools/wordpool_EN.txt	BRICK	5	15	[0, 0, 0]	n/a	FR1	0	R1147P
2006.761	0.767	2013779	WORD_OFF	n/a	n/a	BRICK	5	15	[0, 0, 0]	n/a	FR1	0	R1147P
2007.528	1.617	2014546	WORD	n/a	wordpools/wordpool_EN.txt	ANT	6	15	[0, 0, 0]	n/a	FR1	0	R1147P
2009.145	0.783	2016163	WORD_OFF	n/a	n/a	ANT	6	15	[0, 0, 0]	n/a	FR1	0	R1147P
2009.928	1.617	2016946	WORD	n/a	wordpools/wordpool_EN.txt	MOON	7	15	[0, 0, 0]	n/a	FR1	0	R1147P
2011.545	0.867	2018563	WORD_OFF	n/a	n/a	MOON	7	15	[0, 0, 0]	n/a	FR1	0	R1147P
2012.412	1.617	2019430	WORD	n/a	wordpools/wordpool_EN.txt	SOUP	8	15	[0, 0, 0]	n/a	FR1	0	R1147P
2014.029	0.849	2021047	WORD_OFF	n/a	n/a	SOUP	8	15	[0, 0, 0]	n/a	FR1	0	R1147P
2014.878	1.618	2021896	WORD	n/a	wordpools/wordpool_EN.txt	SPARK	9	15	[0, 0, 0]	n/a	FR1	0	R1147P
2016.496	0.917	2023514	WORD_OFF	n/a	n/a	SPARK	9	15	[0, 0, 0]	n/a	FR1	0	R1147P
2017.413	1.617	2024431	WORD	n/a	wordpools/wordpool_EN.txt	TEETH	10	15	[0, 0, 0]	n/a	FR1	0	R1147P
2019.03	0.816	2026047	WORD_OFF	n/a	n/a	TEETH	10	15	[0, 0, 0]	n/a	FR1	0	R1147P
2019.846	1.618	2026863	WORD	n/a	wordpools/wordpool_EN.txt	RAT	11	15	[0, 0, 0]	n/a	FR1	0	R1147P
2021.464	0.833	2028481	WORD_OFF	n/a	n/a	RAT	11	15	[0, 0, 0]	n/a	FR1	0	R1147P
2022.297	1.616	2029314	WORD	n/a	wordpools/wordpool_EN.txt	HOLE	12	15	[0, 0, 0]	n/a	FR1	0	R1147P
2023.913	0.0	2030930	WORD_OFF	n/a	n/a	HOLE	12	15	[0, 0, 0]	n/a	FR1	0	R1147P
2023.913	0.001	2030930	DISTRACT_START	n/a	n/a	n/a	-999	15	[0, 0, 0]	n/a	FR1	0	R1147P
2023.914	0.017	2030931	START	n/a	n/a	n/a	-999	15	[-999, -999, -999]	n/a	FR1	0	R1147P
2023.931	4.501	2030948	PROB	4.501	n/a	n/a	-999	15	[4, 4, 9]	17	FR1	0	R1147P
2028.432	3.35	2035449	PROB	3.35	n/a	n/a	-999	15	[1, 3, 1]	5	FR1	0	R1147P
2031.782	3.868	2038799	PROB	3.868	n/a	n/a	-999	15	[1, 2, 7]	10	FR1	0	R1147P
2035.65	3.467	2042667	PROB	3.467	n/a	n/a	-999	15	[2, 5, 4]	11	FR1	0	R1147P
2039.117	3.584	2046133	PROB	3.584	n/a	n/a	-999	15	[1, 7, 1]	9	FR1	0	R1147P
2042.701	4.44	2049717	PROB	4.44	n/a	n/a	-999	15	[5, 8, 4]	17	FR1	0	R1147P
2047.141	0.011	2054157	STOP	n/a	n/a	n/a	-999	15	[-999, -999, -999]	n/a	FR1	0	R1147P
2047.152	0.699	2054168	DISTRACT_END	n/a	n/a	n/a	-999	15	[0, 0, 0]	n/a	FR1	0	R1147P
2047.851	0.519	2054867	RETRIEVAL_ORIENT	n/a	n/a	n/a	-999	15	[0, 0, 0]	n/a	FR1	0	R1147P
2048.37	1.716	2055386	REC_START	n/a	n/a	n/a	-999	15	[0, 0, 0]	n/a	FR1	0	R1147P
2050.086	1.56	2057102	REC_WORD	1.56	n/a	HAWK	1	15	[0, 0, 0]	n/a	FR1	0	R1147P
2051.646	2.517	2058662	REC_WORD	2.517	n/a	CLIFF	2	15	[0, 0, 0]	n/a	FR1	0	R1147P
2054.163	4.148	2061179	REC_WORD	4.148	n/a	ANT	6	15	[0, 0, 0]	n/a	FR1	0	R1147P
2058.311	8.87	2065326	REC_WORD	8.87	n/a	SKY	-999	15	[0, 0, 0]	n/a	FR1	0	R1147P
2067.181	1.305	2074196	REC_WORD	1.305	n/a	WOOD	-999	15	[0, 0, 0]	n/a	FR1	0	R1147P
2068.486	9.895	2075501	REC_WORD_VV	9.895	n/a	<>	-999	15	[0, 0, 0]	n/a	FR1	0	R1147P
2078.381	6.745	2085395	REC_END	n/a	n/a	n/a	-999	15	[0, 0, 0]	n/a	FR1	0	R1147P
2085.126	0.5	2092140	TRIAL	n/a	n/a	n/a	-999	16	[0, 0, 0]	n/a	FR1	0	R1147P
2085.626	10.428	2092640	COUNTDOWN_START	n/a	n/a	n/a	-999	16	[0, 0, 0]	n/a	FR1	0	R1147P
2096.054	0.007	2103068	COUNTDOWN_END	n/a	n/a	n/a	-999	16	[0, 0, 0]	n/a	FR1	0	R1147P
2096.061	1.617	2103075	ORIENT	n/a	n/a	n/a	-999	16	[0, 0, 0]	n/a	FR1	0	R1147P
2097.678	1.867	2104691	ORIENT_OFF	n/a	n/a	n/a	-999	16	[0, 0, 0]	n/a	FR1	0	R1147P
2099.545	1.617	2106558	WORD	n/a	wordpools/wordpool_EN.txt	CAT	1	16	[0, 0, 0]	n/a	FR1	0	R1147P
2101.162	0.867	2108175	WORD_OFF	n/a	n/a	CAT	1	16	[0, 0, 0]	n/a	FR1	0	R1147P
2102.029	1.617	2109042	WORD	n/a	wordpools/wordpool_EN.txt	SEA	2	16	[0, 0, 0]	n/a	FR1	0	R1147P
2103.646	0.767	2110659	WORD_OFF	n/a	n/a	SEA	2	16	[0, 0, 0]	n/a	FR1	0	R1147P
2104.413	1.617	2111426	WORD	n/a	wordpools/wordpool_EN.txt	CROWN	3	16	[0, 0, 0]	n/a	FR1	0	R1147P
2106.03	0.917	2113043	WORD_OFF	n/a	n/a	CROWN	3	16	[0, 0, 0]	n/a	FR1	0	R1147P
2106.947	1.617	2113960	WORD	n/a	wordpools/wordpool_EN.txt	PASTE	4	16	[0, 0, 0]	n/a	FR1	0	R1147P
2108.564	0.85	2115577	WORD_OFF	n/a	n/a	PASTE	4	16	[0, 0, 0]	n/a	FR1	0	R1147P
2109.414	1.617	2116427	WORD	n/a	wordpools/wordpool_EN.txt	TRAIN	5	16	[0, 0, 0]	n/a	FR1	0	R1147P
2111.031	1.0	2118044	WORD_OFF	n/a	n/a	TRAIN	5	16	[0, 0, 0]	n/a	FR1	0	R1147P
2112.031	1.617	2119044	WORD	n/a	wordpools/wordpool_EN.txt	TOAST	6	16	[0, 0, 0]	n/a	FR1	0	R1147P
2113.648	0.817	2120661	WORD_OFF	n/a	n/a	TOAST	6	16	[0, 0, 0]	n/a	FR1	0	R1147P
2114.465	1.617	2121478	WORD	n/a	wordpools/wordpool_EN.txt	OAR	7	16	[0, 0, 0]	n/a	FR1	0	R1147P
2116.082	0.933	2123094	WORD_OFF	n/a	n/a	OAR	7	16	[0, 0, 0]	n/a	FR1	0	R1147P
2117.015	1.617	2124027	WORD	n/a	wordpools/wordpool_EN.txt	TANK	8	16	[0, 0, 0]	n/a	FR1	0	R1147P
2118.632	0.834	2125644	WORD_OFF	n/a	n/a	TANK	8	16	[0, 0, 0]	n/a	FR1	0	R1147P
2119.466	1.617	2126478	WORD	n/a	wordpools/wordpool_EN.txt	STEAK	9	16	[0, 0, 0]	n/a	FR1	0	R1147P
2121.083	0.916	2128095	WORD_OFF	n/a	n/a	STEAK	9	16	[0, 0, 0]	n/a	FR1	0	R1147P
2121.999	1.618	2129011	WORD	n/a	wordpools/wordpool_EN.txt	DOCK	10	16	[0, 0, 0]	n/a	FR1	0	R1147P
2123.617	1.0	2130629	WORD_OFF	n/a	n/a	DOCK	10	16	[0, 0, 0]	n/a	FR1	0	R1147P
2124.617	1.617	2131629	WORD	n/a	wordpools/wordpool_EN.txt	DOOR	11	16	[0, 0, 0]	n/a	FR1	0	R1147P
2126.234	1.017	2133246	WORD_OFF	n/a	n/a	DOOR	11	16	[0, 0, 0]	n/a	FR1	0	R1147P
2127.251	1.616	2134263	WORD	n/a	wordpools/wordpool_EN.txt	LEAF	12	16	[0, 0, 0]	n/a	FR1	0	R1147P
2128.867	0.0	2135879	WORD_OFF	n/a	n/a	LEAF	12	16	[0, 0, 0]	n/a	FR1	0	R1147P
2128.867	0.0	2135879	DISTRACT_START	n/a	n/a	n/a	-999	16	[0, 0, 0]	n/a	FR1	0	R1147P
2128.867	0.016	2135879	START	n/a	n/a	n/a	-999	16	[-999, -999, -999]	n/a	FR1	0	R1147P
2128.883	4.202	2135895	PROB	4.202	n/a	n/a	-999	16	[5, 8, 8]	21	FR1	0	R1147P
2133.085	3.651	2140097	PROB	3.651	n/a	n/a	-999	16	[3, 9, 4]	16	FR1	0	R1147P
2136.736	3.95	2143747	PROB	3.95	n/a	n/a	-999	16	[7, 4, 2]	13	FR1	0	R1147P
2140.686	3.584	2147697	PROB	3.584	n/a	n/a	-999	16	[5, 4, 5]	14	FR1	0	R1147P
2144.27	3.268	2151281	PROB	3.268	n/a	n/a	-999	16	[7, 4, 1]	12	FR1	0	R1147P
2147.538	3.562	2154549	PROB	3.562	n/a	n/a	-999	16	[5, 4, 7]	16	FR1	0	R1147P
2151.1	0.022	2158111	STOP	n/a	n/a	n/a	-999	16	[-999, -999, -999]	n/a	FR1	0	R1147P
2151.122	0.649	2158133	DISTRACT_END	n/a	n/a	n/a	-999	16	[0, 0, 0]	n/a	FR1	0	R1147P
2151.771	0.518	2158782	RETRIEVAL_ORIENT	n/a	n/a	n/a	-999	16	[0, 0, 0]	n/a	FR1	0	R1147P
2152.289	1.224	2159300	REC_START	n/a	n/a	n/a	-999	16	[0, 0, 0]	n/a	FR1	0	R1147P
2153.513	0.425	2160524	REC_WORD	0.425	n/a	CAT	1	16	[0, 0, 0]	n/a	FR1	0	R1147P
2153.938	0.867	2160949	REC_WORD	0.867	n/a	SEA	2	16	[0, 0, 0]	n/a	FR1	0	R1147P
2154.805	3.197	2161816	REC_WORD	3.197	n/a	DOOR	11	16	[0, 0, 0]	n/a	FR1	0	R1147P
2158.002	10.481	2165012	REC_WORD	10.481	n/a	CROWN	3	16	[0, 0, 0]	n/a	FR1	0	R1147P
2168.483	9.353	2175493	REC_WORD	9.353	n/a	CAT	1	16	[0, 0, 0]	n/a	FR1	0	R1147P
2177.836	0.614	2184845	REC_WORD	0.614	n/a	FOOD	-999	16	[0, 0, 0]	n/a	FR1	0	R1147P
2178.45	3.85	2185459	REC_WORD_VV	3.85	n/a	<>	-999	16	[0, 0, 0]	n/a	FR1	0	R1147P
2182.3	14.797	2189309	REC_END	n/a	n/a	n/a	-999	16	[0, 0, 0]	n/a	FR1	0	R1147P
2197.097	0.5	2204105	TRIAL	n/a	n/a	n/a	-999	17	[0, 0, 0]	n/a	FR1	0	R1147P
2197.597	10.428	2204605	COUNTDOWN_START	n/a	n/a	n/a	-999	17	[0, 0, 0]	n/a	FR1	0	R1147P
2208.025	0.007	2215033	COUNTDOWN_END	n/a	n/a	n/a	-999	17	[0, 0, 0]	n/a	FR1	0	R1147P
2208.032	1.617	2215040	ORIENT	n/a	n/a	n/a	-999	17	[0, 0, 0]	n/a	FR1	0	R1147P
2209.649	2.216	2216657	ORIENT_OFF	n/a	n/a	n/a	-999	17	[0, 0, 0]	n/a	FR1	0	R1147P
2211.865	1.618	2218873	WORD	n/a	wordpools/wordpool_EN.txt	STORE	1	17	[0, 0, 0]	n/a	FR1	0	R1147P
2213.483	0.867	2220491	WORD_OFF	n/a	n/a	STORE	1	17	[0, 0, 0]	n/a	FR1	0	R1147P
2214.35	1.617	2221358	WORD	n/a	wordpools/wordpool_EN.txt	PHONE	2	17	[0, 0, 0]	n/a	FR1	0	R1147P
2215.967	0.916	2222974	WORD_OFF	n/a	n/a	PHONE	2	17	[0, 0, 0]	n/a	FR1	0	R1147P
2216.883	1.618	2223890	WORD	n/a	wordpools/wordpool_EN.txt	POLE	3	17	[0, 0, 0]	n/a	FR1	0	R1147P
2218.501	0.8	2225508	WORD_OFF	n/a	n/a	POLE	3	17	[0, 0, 0]	n/a	FR1	0	R1147P
2219.301	1.616	2226308	WORD	n/a	wordpools/wordpool_EN.txt	PLANT	4	17	[0, 0, 0]	n/a	FR1	0	R1147P
2220.917	0.818	2227924	WORD_OFF	n/a	n/a	PLANT	4	17	[0, 0, 0]	n/a	FR1	0	R1147P
2221.735	1.617	2228742	WORD	n/a	wordpools/wordpool_EN.txt	WALL	5	17	[0, 0, 0]	n/a	FR1	0	R1147P
2223.352	0.967	2230359	WORD_OFF	n/a	n/a	WALL	5	17	[0, 0, 0]	n/a	FR1	0	R1147P
2224.319	1.617	2231326	WORD	n/a	wordpools/wordpool_EN.txt	OWL	6	17	[0, 0, 0]	n/a	FR1	0	R1147P
2225.936	0.783	2232943	WORD_OFF	n/a	n/a	OWL	6	17	[0, 0, 0]	n/a	FR1	0	R1147P
2226.719	1.617	2233726	WORD	n/a	wordpools/wordpool_EN.txt	SHIELD	7	17	[0, 0, 0]	n/a	FR1	0	R1147P
2228.336	0.984	2235343	WORD_OFF	n/a	n/a	SHIELD	7	17	[0, 0, 0]	n/a	FR1	0	R1147P
2229.32	1.617	2236327	WORD	n/a	wordpools/wordpool_EN.txt	BOY	8	17	[0, 0, 0]	n/a	FR1	0	R1147P
2230.937	0.916	2237944	WORD_OFF	n/a	n/a	BOY	8	17	[0, 0, 0]	n/a	FR1	0	R1147P
2231.853	1.617	2238860	WORD	n/a	wordpools/wordpool_EN.txt	WEED	9	17	[0, 0, 0]	n/a	FR1	0	R1147P
2233.47	0.901	2240477	WORD_OFF	n/a	n/a	WEED	9	17	[0, 0, 0]	n/a	FR1	0	R1147P
2234.371	1.617	2241377	WORD	n/a	wordpools/wordpool_EN.txt	PEARL	10	17	[0, 0, 0]	n/a	FR1	0	R1147P
2235.988	0.899	2242994	WORD_OFF	n/a	n/a	PEARL	10	17	[0, 0, 0]	n/a	FR1	0	R1147P
2236.887	1.618	2243893	WORD	n/a	wordpools/wordpool_EN.txt	PANTS	11	17	[0, 0, 0]	n/a	FR1	0	R1147P
2238.505	0.95	2245511	WORD_OFF	n/a	n/a	PANTS	11	17	[0, 0, 0]	n/a	FR1	0	R1147P
2239.455	1.617	2246461	WORD	n/a	wordpools/wordpool_EN.txt	TRASH	12	17	[0, 0, 0]	n/a	FR1	0	R1147P
2241.072	0.0	2248078	WORD_OFF	n/a	n/a	TRASH	12	17	[0, 0, 0]	n/a	FR1	0	R1147P
2241.072	0.001	2248078	DISTRACT_START	n/a	n/a	n/a	-999	17	[0, 0, 0]	n/a	FR1	0	R1147P
2241.073	0.016	2248079	START	n/a	n/a	n/a	-999	17	[-999, -999, -999]	n/a	FR1	0	R1147P
2241.089	4.484	2248095	PROB	4.484	n/a	n/a	-999	17	[5, 3, 8]	16	FR1	0	R1147P
2245.573	3.45	2252579	PROB	3.45	n/a	n/a	-999	17	[3, 9, 9]	21	FR1	0	R1147P
2249.023	8.519	2256029	PROB	8.519	n/a	n/a	-999	17	[8, 9, 7]	24	FR1	0	R1147P
2257.542	5.15	2264547	PROB	5.15	n/a	n/a	-999	17	[5, 9, 1]	15	FR1	0	R1147P
2262.692	0.017	2269697	STOP	n/a	n/a	n/a	-999	17	[-999, -999, -999]	n/a	FR1	0	R1147P
2262.709	0.567	2269714	DISTRACT_END	n/a	n/a	n/a	-999	17	[0, 0, 0]	n/a	FR1	0	R1147P
2263.276	0.516	2270281	RETRIEVAL_ORIENT	n/a	n/a	n/a	-999	17	[0, 0, 0]	n/a	FR1	0	R1147P
2263.792	1.42	2270797	REC_START	n/a	n/a	n/a	-999	17	[0, 0, 0]	n/a	FR1	0	R1147P
2265.212	0.29	2272217	REC_WORD_VV	0.29	n/a	<>	-999	17	[0, 0, 0]	n/a	FR1	0	R1147P
2265.502	0.462	2272507	REC_WORD	0.462	n/a	STORE	1	17	[0, 0, 0]	n/a	FR1	0	R1147P
2265.964	1.04	2272969	REC_WORD	1.04	n/a	PHONE	2	17	[0, 0, 0]	n/a	FR1	0	R1147P
2267.004	0.765	2274009	REC_WORD	0.765	n/a	BOY	8	17	[0, 0, 0]	n/a	FR1	0	R1147P
2267.769	6.337	2274774	REC_WORD	6.337	n/a	WEED	9	17	[0, 0, 0]	n/a	FR1	0	R1147P
2274.106	5.654	2281110	REC_WORD	5.654	n/a	WALL	5	17	[0, 0, 0]	n/a	FR1	0	R1147P
2279.76	1.659	2286764	REC_WORD	1.659	n/a	STORE	1	17	[0, 0, 0]	n/a	FR1	0	R1147P
2281.419	12.385	2288423	REC_WORD	12.385	n/a	APPLE	-999	17	[0, 0, 0]	n/a	FR1	0	R1147P
2293.804	7.229	2300807	REC_END	n/a	n/a	n/a	-999	17	[0, 0, 0]	n/a	FR1	0	R1147P
2301.033	0.5	2308036	TRIAL	n/a	n/a	n/a	-999	18	[0, 0, 0]	n/a	FR1	0	R1147P
2301.533	10.428	2308536	COUNTDOWN_START	n/a	n/a	n/a	-999	18	[0, 0, 0]	n/a	FR1	0	R1147P
2311.961	0.008	2318964	COUNTDOWN_END	n/a	n/a	n/a	-999	18	[0, 0, 0]	n/a	FR1	0	R1147P
2311.969	1.617	2318972	ORIENT	n/a	n/a	n/a	-999	18	[0, 0, 0]	n/a	FR1	0	R1147P
2313.586	1.983	2320588	ORIENT_OFF	n/a	n/a	n/a	-999	18	[0, 0, 0]	n/a	FR1	0	R1147P
2315.569	1.617	2322571	WORD	n/a	wordpools/wordpool_EN.txt	MUG	1	18	[0, 0, 0]	n/a	FR1	0	R1147P
2317.186	0.984	2324188	WORD_OFF	n/a	n/a	MUG	1	18	[0, 0, 0]	n/a	FR1	0	R1147P
2318.17	1.616	2325172	WORD	n/a	wordpools/wordpool_EN.txt	TOY	2	18	[0, 0, 0]	n/a	FR1	0	R1147P
2319.786	0.968	2326788	WORD_OFF	n/a	n/a	TOY	2	18	[0, 0, 0]	n/a	FR1	0	R1147P
2320.754	1.617	2327756	WORD	n/a	wordpools/wordpool_EN.txt	BANK	3	18	[0, 0, 0]	n/a	FR1	0	R1147P
2322.371	1.0	2329373	WORD_OFF	n/a	n/a	BANK	3	18	[0, 0, 0]	n/a	FR1	0	R1147P
2323.371	1.617	2330373	WORD	n/a	wordpools/wordpool_EN.txt	VAN	4	18	[0, 0, 0]	n/a	FR1	0	R1147P
2324.988	0.983	2331990	WORD_OFF	n/a	n/a	VAN	4	18	[0, 0, 0]	n/a	FR1	0	R1147P
2325.971	1.617	2332973	WORD	n/a	wordpools/wordpool_EN.txt	STAIR	5	18	[0, 0, 0]	n/a	FR1	0	R1147P
2327.588	0.95	2334590	WORD_OFF	n/a	n/a	STAIR	5	18	[0, 0, 0]	n/a	FR1	0	R1147P
2328.538	1.617	2335540	WORD	n/a	wordpools/wordpool_EN.txt	POND	6	18	[0, 0, 0]	n/a	FR1	0	R1147P
2330.155	0.834	2337157	WORD_OFF	n/a	n/a	POND	6	18	[0, 0, 0]	n/a	FR1	0	R1147P
2330.989	1.617	2337991	WORD	n/a	wordpools/wordpool_EN.txt	ROAD	7	18	[0, 0, 0]	n/a	FR1	0	R1147P
2332.606	0.983	2339608	WORD_OFF	n/a	n/a	ROAD	7	18	[0, 0, 0]	n/a	FR1	0	R1147P
2333.589	1.617	2340590	WORD	n/a	wordpools/wordpool_EN.txt	CONE	8	18	[0, 0, 0]	n/a	FR1	0	R1147P
2335.206	0.95	2342207	WORD_OFF	n/a	n/a	CONE	8	18	[0, 0, 0]	n/a	FR1	0	R1147P
2336.156	1.616	2343157	WORD	n/a	wordpools/wordpool_EN.txt	WEB	9	18	[0, 0, 0]	n/a	FR1	0	R1147P
2337.772	0.835	2344773	WORD_OFF	n/a	n/a	WEB	9	18	[0, 0, 0]	n/a	FR1	0	R1147P
2338.607	1.617	2345608	WORD	n/a	wordpools/wordpool_EN.txt	JAR	10	18	[0, 0, 0]	n/a	FR1	0	R1147P
2340.224	0.9	2347225	WORD_OFF	n/a	n/a	JAR	10	18	[0, 0, 0]	n/a	FR1	0	R1147P
2341.124	1.617	2348125	WORD	n/a	wordpools/wordpool_EN.txt	YARD	11	18	[0, 0, 0]	n/a	FR1	0	R1147P
2342.741	0.884	2349742	WORD_OFF	n/a	n/a	YARD	11	18	[0, 0, 0]	n/a	FR1	0	R1147P
2343.625	1.617	2350626	WORD	n/a	wordpools/wordpool_EN.txt	SUIT	12	18	[0, 0, 0]	n/a	FR1	0	R1147P
2345.242	0.0	2352243	WORD_OFF	n/a	n/a	SUIT	12	18	[0, 0, 0]	n/a	FR1	0	R1147P
2345.242	0.0	2352243	DISTRACT_START	n/a	n/a	n/a	-999	18	[0, 0, 0]	n/a	FR1	0	R1147P
2345.242	0.016	2352243	START	n/a	n/a	n/a	-999	18	[-999, -999, -999]	n/a	FR1	0	R1147P
2345.258	4.284	2352259	PROB	4.284	n/a	n/a	-999	18	[2, 3, 9]	14	FR1	0	R1147P
2349.542	4.135	2356543	PROB	4.135	n/a	n/a	-999	18	[4, 3, 1]	8	FR1	0	R1147P
2353.677	3.834	2360677	PROB	3.834	n/a	n/a	-999	18	[6, 4, 4]	14	FR1	0	R1147P
2357.511	3.617	2364511	PROB	3.617	n/a	n/a	-999	18	[5, 1, 2]	8	FR1	0	R1147P
2361.128	5.045	2368128	PROB	5.045	n/a	n/a	-999	18	[3, 2, 8]	13	FR1	0	R1147P
2366.173	0.006	2373173	STOP	n/a	n/a	n/a	-999	18	[-999, -999, -999]	n/a	FR1	0	R1147P
2366.179	0.682	2373179	DISTRACT_END	n/a	n/a	n/a	-999	18	[0, 0, 0]	n/a	FR1	0	R1147P
2366.861	0.519	2373861	RETRIEVAL_ORIENT	n/a	n/a	n/a	-999	18	[0, 0, 0]	n/a	FR1	0	R1147P
2367.38	1.295	2374380	REC_START	n/a	n/a	n/a	-999	18	[0, 0, 0]	n/a	FR1	0	R1147P
2368.675	0.438	2375675	REC_WORD_VV	0.438	n/a	<>	-999	18	[0, 0, 0]	n/a	FR1	0	R1147P
2369.113	0.442	2376113	REC_WORD	0.442	n/a	MUG	1	18	[0, 0, 0]	n/a	FR1	0	R1147P
2369.555	5.413	2376555	REC_WORD	5.413	n/a	TOY	2	18	[0, 0, 0]	n/a	FR1	0	R1147P
2374.968	7.367	2381967	REC_WORD_VV	7.367	n/a	<>	-999	18	[0, 0, 0]	n/a	FR1	0	R1147P
2382.335	0.588	2389334	REC_WORD	0.588	n/a	SKY	-999	18	[0, 0, 0]	n/a	FR1	0	R1147P
2382.923	6.621	2389922	REC_WORD	6.621	n/a	BRAND	-999	18	[0, 0, 0]	n/a	FR1	0	R1147P
2389.544	7.848	2396543	REC_WORD	7.848	n/a	WATER	-999	18	[0, 0, 0]	n/a	FR1	0	R1147P
2397.392	5.426	2404390	REC_END	n/a	n/a	n/a	-999	18	[0, 0, 0]	n/a	FR1	0	R1147P
2402.818	0.5	2409816	TRIAL	n/a	n/a	n/a	-999	19	[0, 0, 0]	n/a	FR1	0	R1147P
2403.318	10.428	2410316	COUNTDOWN_START	n/a	n/a	n/a	-999	19	[0, 0, 0]	n/a	FR1	0	R1147P
2413.746	0.008	2420743	COUNTDOWN_END	n/a	n/a	n/a	-999	19	[0, 0, 0]	n/a	FR1	0	R1147P
2413.754	1.617	2420751	ORIENT	n/a	n/a	n/a	-999	19	[0, 0, 0]	n/a	FR1	0	R1147P
2415.371	2.084	2422368	ORIENT_OFF	n/a	n/a	n/a	-999	19	[0, 0, 0]	n/a	FR1	0	R1147P
2417.455	1.617	2424452	WORD	n/a	wordpools/wordpool_EN.txt	STRING	1	19	[0, 0, 0]	n/a	FR1	0	R1147P
2419.072	0.9	2426069	WORD_OFF	n/a	n/a	STRING	1	19	[0, 0, 0]	n/a	FR1	0	R1147P
2419.972	1.617	2426969	WORD	n/a	wordpools/wordpool_EN.txt	CALF	2	19	[0, 0, 0]	n/a	FR1	0	R1147P
2421.589	0.8	2428586	WORD_OFF	n/a	n/a	CALF	2	19	[0, 0, 0]	n/a	FR1	0	R1147P
2422.389	1.617	2429386	WORD	n/a	wordpools/wordpool_EN.txt	SCHOOL	3	19	[0, 0, 0]	n/a	FR1	0	R1147P
2424.006	0.967	2431003	WORD_OFF	n/a	n/a	SCHOOL	3	19	[0, 0, 0]	n/a	FR1	0	R1147P
2424.973	1.617	2431970	WORD	n/a	wordpools/wordpool_EN.txt	FOAM	4	19	[0, 0, 0]	n/a	FR1	0	R1147P
2426.59	0.984	2433587	WORD_OFF	n/a	n/a	FOAM	4	19	[0, 0, 0]	n/a	FR1	0	R1147P
2427.574	1.617	2434571	WORD	n/a	wordpools/wordpool_EN.txt	SWORD	5	19	[0, 0, 0]	n/a	FR1	0	R1147P
2429.191	0.983	2436188	WORD_OFF	n/a	n/a	SWORD	5	19	[0, 0, 0]	n/a	FR1	0	R1147P
2430.174	1.616	2437171	WORD	n/a	wordpools/wordpool_EN.txt	SOCK	6	19	[0, 0, 0]	n/a	FR1	0	R1147P
2431.79	1.0	2438786	WORD_OFF	n/a	n/a	SOCK	6	19	[0, 0, 0]	n/a	FR1	0	R1147P
2432.79	1.618	2439786	WORD	n/a	wordpools/wordpool_EN.txt	PIE	7	19	[0, 0, 0]	n/a	FR1	0	R1147P
2434.408	0.784	2441404	WORD_OFF	n/a	n/a	PIE	7	19	[0, 0, 0]	n/a	FR1	0	R1147P
2435.192	1.616	2442188	WORD	n/a	wordpools/wordpool_EN.txt	BEE	8	19	[0, 0, 0]	n/a	FR1	0	R1147P
2436.808	0.951	2443804	WORD_OFF	n/a	n/a	BEE	8	19	[0, 0, 0]	n/a	FR1	0	R1147P
2437.759	1.617	2444755	WORD	n/a	wordpools/wordpool_EN.txt	BOARD	9	19	[0, 0, 0]	n/a	FR1	0	R1147P
2439.376	0.783	2446372	WORD_OFF	n/a	n/a	BOARD	9	19	[0, 0, 0]	n/a	FR1	0	R1147P
2440.159	1.616	2447155	WORD	n/a	wordpools/wordpool_EN.txt	STREET	10	19	[0, 0, 0]	n/a	FR1	0	R1147P
2441.775	0.985	2448771	WORD_OFF	n/a	n/a	STREET	10	19	[0, 0, 0]	n/a	FR1	0	R1147P
2442.76	1.617	2449756	WORD	n/a	wordpools/wordpool_EN.txt	GUARD	11	19	[0, 0, 0]	n/a	FR1	0	R1147P
2444.377	0.767	2451373	WORD_OFF	n/a	n/a	GUARD	11	19	[0, 0, 0]	n/a	FR1	0	R1147P
2445.144	1.617	2452140	WORD	n/a	wordpools/wordpool_EN.txt	SLUSH	12	19	[0, 0, 0]	n/a	FR1	0	R1147P
2446.761	0.0	2453757	WORD_OFF	n/a	n/a	SLUSH	12	19	[0, 0, 0]	n/a	FR1	0	R1147P
2446.761	0.0	2453757	DISTRACT_START	n/a	n/a	n/a	-999	19	[0, 0, 0]	n/a	FR1	0	R1147P
2446.761	0.015	2453757	START	n/a	n/a	n/a	-999	19	[-999, -999, -999]	n/a	FR1	0	R1147P
2446.776	4.219	2453772	PROB	4.219	n/a	n/a	-999	19	[7, 4, 5]	16	FR1	0	R1147P
2450.995	4.734	2457990	PROB	4.734	n/a	n/a	-999	19	[5, 8, 6]	19	FR1	0	R1147P
2455.729	8.452	2462724	PROB	8.452	n/a	n/a	-999	19	[6, 9, 8]	25	FR1	0	R1147P
2464.181	3.952	2471176	PROB	3.952	n/a	n/a	-999	19	[3, 6, 3]	12	FR1	0	R1147P
2468.133	0.015	2475128	STOP	n/a	n/a	n/a	-999	19	[-999, -999, -999]	n/a	FR1	0	R1147P
2468.148	0.632	2475143	DISTRACT_END	n/a	n/a	n/a	-999	19	[0, 0, 0]	n/a	FR1	0	R1147P
2468.78	0.519	2475775	RETRIEVAL_ORIENT	n/a	n/a	n/a	-999	19	[0, 0, 0]	n/a	FR1	0	R1147P
2469.299	2.017	2476294	REC_START	n/a	n/a	n/a	-999	19	[0, 0, 0]	n/a	FR1	0	R1147P
2471.316	0.599	2478310	REC_WORD	0.599	n/a	SCHOOL	3	19	[0, 0, 0]	n/a	FR1	0	R1147P
2471.915	0.993	2478909	REC_WORD	0.993	n/a	STRING	1	19	[0, 0, 0]	n/a	FR1	0	R1147P
2472.908	7.435	2479902	REC_WORD	7.435	n/a	CRAFT	-999	19	[0, 0, 0]	n/a	FR1	0	R1147P
2480.343	18.966	2487337	REC_WORD	18.966	n/a	DOOR	-999	19	[0, 0, 0]	n/a	FR1	0	R1147P
2499.309	7.013	2506302	REC_END	n/a	n/a	n/a	-999	19	[0, 0, 0]	n/a	FR1	0	R1147P
2506.322	0.5	2513315	TRIAL	n/a	n/a	n/a	-999	20	[0, 0, 0]	n/a	FR1	0	R1147P
2506.822	10.428	2513815	COUNTDOWN_START	n/a	n/a	n/a	-999	20	[0, 0, 0]	n/a	FR1	0	R1147P
2517.25	0.007	2524242	COUNTDOWN_END	n/a	n/a	n/a	-999	20	[0, 0, 0]	n/a	FR1	0	R1147P
2517.257	1.616	2524249	ORIENT	n/a	n/a	n/a	-999	20	[0, 0, 0]	n/a	FR1	0	R1147P
2518.873	2.135	2525865	ORIENT_OFF	n/a	n/a	n/a	-999	20	[0, 0, 0]	n/a	FR1	0	R1147P
2521.008	1.617	2528000	WORD	n/a	wordpools/wordpool_EN.txt	ARM	1	20	[0, 0, 0]	n/a	FR1	0	R1147P
2522.625	0.817	2529617	WORD_OFF	n/a	n/a	ARM	1	20	[0, 0, 0]	n/a	FR1	0	R1147P
2523.442	1.617	2530434	WORD	n/a	wordpools/wordpool_EN.txt	BRIDGE	2	20	[0, 0, 0]	n/a	FR1	0	R1147P
2525.059	1.0	2532051	WORD_OFF	n/a	n/a	BRIDGE	2	20	[0, 0, 0]	n/a	FR1	0	R1147P
2526.059	1.617	2533051	WORD	n/a	wordpools/wordpool_EN.txt	HEN	3	20	[0, 0, 0]	n/a	FR1	0	R1147P
2527.676	0.883	2534668	WORD_OFF	n/a	n/a	HEN	3	20	[0, 0, 0]	n/a	FR1	0	R1147P
2528.559	1.617	2535551	WORD	n/a	wordpools/wordpool_EN.txt	BOOK	4	20	[0, 0, 0]	n/a	FR1	0	R1147P
2530.176	0.834	2537167	WORD_OFF	n/a	n/a	BOOK	4	20	[0, 0, 0]	n/a	FR1	0	R1147P
2531.01	1.617	2538001	WORD	n/a	wordpools/wordpool_EN.txt	PET	5	20	[0, 0, 0]	n/a	FR1	0	R1147P
2532.627	0.8	2539618	WORD_OFF	n/a	n/a	PET	5	20	[0, 0, 0]	n/a	FR1	0	R1147P
2533.427	1.617	2540418	WORD	n/a	wordpools/wordpool_EN.txt	SKI	6	20	[0, 0, 0]	n/a	FR1	0	R1147P
2535.044	0.816	2542035	WORD_OFF	n/a	n/a	SKI	6	20	[0, 0, 0]	n/a	FR1	0	R1147P
2535.86	1.618	2542851	WORD	n/a	wordpools/wordpool_EN.txt	ROCK	7	20	[0, 0, 0]	n/a	FR1	0	R1147P
2537.478	0.883	2544469	WORD_OFF	n/a	n/a	ROCK	7	20	[0, 0, 0]	n/a	FR1	0	R1147P
2538.361	1.617	2545352	WORD	n/a	wordpools/wordpool_EN.txt	EGG	8	20	[0, 0, 0]	n/a	FR1	0	R1147P
2539.978	0.967	2546969	WORD_OFF	n/a	n/a	EGG	8	20	[0, 0, 0]	n/a	FR1	0	R1147P
2540.945	1.617	2547936	WORD	n/a	wordpools/wordpool_EN.txt	SWAMP	9	20	[0, 0, 0]	n/a	FR1	0	R1147P
2542.562	0.834	2549553	WORD_OFF	n/a	n/a	SWAMP	9	20	[0, 0, 0]	n/a	FR1	0	R1147P
2543.396	1.617	2550387	WORD	n/a	wordpools/wordpool_EN.txt	SPONGE	10	20	[0, 0, 0]	n/a	FR1	0	R1147P
2545.013	0.815	2552004	WORD_OFF	n/a	n/a	SPONGE	10	20	[0, 0, 0]	n/a	FR1	0	R1147P
2545.828	1.618	2552819	WORD	n/a	wordpools/wordpool_EN.txt	APE	11	20	[0, 0, 0]	n/a	FR1	0	R1147P
2547.446	0.85	2554437	WORD_OFF	n/a	n/a	APE	11	20	[0, 0, 0]	n/a	FR1	0	R1147P
2548.296	1.616	2555287	WORD	n/a	wordpools/wordpool_EN.txt	PURSE	12	20	[0, 0, 0]	n/a	FR1	0	R1147P
2549.912	0.0	2556902	WORD_OFF	n/a	n/a	PURSE	12	20	[0, 0, 0]	n/a	FR1	0	R1147P
2549.912	0.001	2556902	DISTRACT_START	n/a	n/a	n/a	-999	20	[0, 0, 0]	n/a	FR1	0	R1147P
2549.913	0.017	2556903	START	n/a	n/a	n/a	-999	20	[-999, -999, -999]	n/a	FR1	0	R1147P
2549.93	3.916	2556920	PROB	3.916	n/a	n/a	-999	20	[7, 2, 2]	11	FR1	0	R1147P
2553.846	3.752	2560836	PROB	3.752	n/a	n/a	-999	20	[5, 5, 7]	17	FR1	0	R1147P
2557.598	4.401	2564588	PROB	4.401	n/a	n/a	-999	20	[5, 5, 9]	19	FR1	0	R1147P
2561.999	4.9	2568989	PROB	4.9	n/a	n/a	-999	20	[7, 5, 4]	16	FR1	0	R1147P
2566.899	5.017	2573889	PROB	5.017	n/a	n/a	-999	20	[8, 4, 5]	17	FR1	0	R1147P
2571.916	0.018	2578905	STOP	n/a	n/a	n/a	-999	20	[-999, -999, -999]	n/a	FR1	0	R1147P
2571.934	0.584	2578923	DISTRACT_END	n/a	n/a	n/a	-999	20	[0, 0, 0]	n/a	FR1	0	R1147P
2572.518	0.517	2579507	RETRIEVAL_ORIENT	n/a	n/a	n/a	-999	20	[0, 0, 0]	n/a	FR1	0	R1147P
2573.035	1.29	2580024	REC_START	n/a	n/a	n/a	-999	20	[0, 0, 0]	n/a	FR1	0	R1147P
2574.325	2.728	2581314	REC_WORD	2.728	n/a	SPONGE	10	20	[0, 0, 0]	n/a	FR1	0	R1147P
2577.053	17.232	2584042	REC_WORD	17.232	n/a	TREE	-999	20	[0, 0, 0]	n/a	FR1	0	R1147P
2594.285	8.763	2601273	REC_WORD	8.763	n/a	ARCH	-999	20	[0, 0, 0]	n/a	FR1	0	R1147P
2603.048	5.426	2610036	REC_END	n/a	n/a	n/a	-999	20	[0, 0, 0]	n/a	FR1	0	R1147P
2608.474	0.5	2615461	TRIAL	n/a	n/a	n/a	-999	21	[0, 0, 0]	n/a	FR1	0	R1147P
2608.974	10.428	2615961	COUNTDOWN_START	n/a	n/a	n/a	-999	21	[0, 0, 0]	n/a	FR1	0	R1147P
2619.402	0.008	2626389	COUNTDOWN_END	n/a	n/a	n/a	-999	21	[0, 0, 0]	n/a	FR1	0	R1147P
2619.41	1.617	2626397	ORIENT	n/a	n/a	n/a	-999	21	[0, 0, 0]	n/a	FR1	0	R1147P
2621.027	2.067	2628014	ORIENT_OFF	n/a	n/a	n/a	-999	21	[0, 0, 0]	n/a	FR1	0	R1147P
2623.094	1.617	2630081	WORD	n/a	wordpools/wordpool_EN.txt	TIE	1	21	[0, 0, 0]	n/a	FR1	0	R1147P
2624.711	0.867	2631698	WORD_OFF	n/a	n/a	TIE	1	21	[0, 0, 0]	n/a	FR1	0	R1147P
2625.578	1.617	2632565	WORD	n/a	wordpools/wordpool_EN.txt	BARN	2	21	[0, 0, 0]	n/a	FR1	0	R1147P
2627.195	0.966	2634182	WORD_OFF	n/a	n/a	BARN	2	21	[0, 0, 0]	n/a	FR1	0	R1147P
2628.161	1.616	2635147	WORD	n/a	wordpools/wordpool_EN.txt	THREAD	3	21	[0, 0, 0]	n/a	FR1	0	R1147P
2629.777	0.885	2636763	WORD_OFF	n/a	n/a	THREAD	3	21	[0, 0, 0]	n/a	FR1	0	R1147P
2630.662	1.617	2637648	WORD	n/a	wordpools/wordpool_EN.txt	SPOON	4	21	[0, 0, 0]	n/a	FR1	0	R1147P
2632.279	0.883	2639265	WORD_OFF	n/a	n/a	SPOON	4	21	[0, 0, 0]	n/a	FR1	0	R1147P
2633.162	1.616	2640148	WORD	n/a	wordpools/wordpool_EN.txt	SPRING	5	21	[0, 0, 0]	n/a	FR1	0	R1147P
2634.778	0.968	2641764	WORD_OFF	n/a	n/a	SPRING	5	21	[0, 0, 0]	n/a	FR1	0	R1147P
2635.746	1.617	2642732	WORD	n/a	wordpools/wordpool_EN.txt	NAIL	6	21	[0, 0, 0]	n/a	FR1	0	R1147P
2637.363	0.884	2644349	WORD_OFF	n/a	n/a	NAIL	6	21	[0, 0, 0]	n/a	FR1	0	R1147P
2638.247	1.616	2645233	WORD	n/a	wordpools/wordpool_EN.txt	MAT	7	21	[0, 0, 0]	n/a	FR1	0	R1147P
2639.863	0.95	2646849	WORD_OFF	n/a	n/a	MAT	7	21	[0, 0, 0]	n/a	FR1	0	R1147P
2640.813	1.618	2647799	WORD	n/a	wordpools/wordpool_EN.txt	BEAN	8	21	[0, 0, 0]	n/a	FR1	0	R1147P
2642.431	0.967	2649417	WORD_OFF	n/a	n/a	BEAN	8	21	[0, 0, 0]	n/a	FR1	0	R1147P
2643.398	1.617	2650384	WORD	n/a	wordpools/wordpool_EN.txt	STICK	9	21	[0, 0, 0]	n/a	FR1	0	R1147P
2645.015	0.832	2652001	WORD_OFF	n/a	n/a	STICK	9	21	[0, 0, 0]	n/a	FR1	0	R1147P
2645.847	1.601	2652833	WORD	n/a	wordpools/wordpool_EN.txt	DART	10	21	[0, 0, 0]	n/a	FR1	0	R1147P
2647.448	0.9	2654434	WORD_OFF	n/a	n/a	DART	10	21	[0, 0, 0]	n/a	FR1	0	R1147P
2648.348	1.617	2655333	WORD	n/a	wordpools/wordpool_EN.txt	CAKE	11	21	[0, 0, 0]	n/a	FR1	0	R1147P
2649.965	0.866	2656950	WORD_OFF	n/a	n/a	CAKE	11	21	[0, 0, 0]	n/a	FR1	0	R1147P
2650.831	1.601	2657816	WORD	n/a	wordpools/wordpool_EN.txt	CANE	12	21	[0, 0, 0]	n/a	FR1	0	R1147P
2652.432	0.0	2659417	WORD_OFF	n/a	n/a	CANE	12	21	[0, 0, 0]	n/a	FR1	0	R1147P
2652.432	0.001	2659417	DISTRACT_START	n/a	n/a	n/a	-999	21	[0, 0, 0]	n/a	FR1	0	R1147P
2652.433	0.016	2659418	START	n/a	n/a	n/a	-999	21	[-999, -999, -999]	n/a	FR1	0	R1147P
2652.449	5.635	2659434	PROB	5.635	n/a	n/a	-999	21	[8, 4, 7]	19	FR1	0	R1147P
2658.084	4.034	2665069	PROB	4.034	n/a	n/a	-999	21	[3, 7, 5]	15	FR1	0	R1147P
2662.118	4.167	2669103	PROB	4.167	n/a	n/a	-999	21	[8, 3, 1]	12	FR1	0	R1147P
2666.285	4.418	2673270	PROB	4.418	n/a	n/a	-999	21	[6, 9, 8]	23	FR1	0	R1147P
2670.703	5.149	2677687	PROB	5.149	n/a	n/a	-999	21	[9, 5, 4]	18	FR1	0	R1147P
2675.852	0.017	2682836	STOP	n/a	n/a	n/a	-999	21	[-999, -999, -999]	n/a	FR1	0	R1147P
2675.869	0.651	2682853	DISTRACT_END	n/a	n/a	n/a	-999	21	[0, 0, 0]	n/a	FR1	0	R1147P
2676.52	0.518	2683504	RETRIEVAL_ORIENT	n/a	n/a	n/a	-999	21	[0, 0, 0]	n/a	FR1	0	R1147P
2677.038	1.335	2684022	REC_START	n/a	n/a	n/a	-999	21	[0, 0, 0]	n/a	FR1	0	R1147P
2678.373	0.557	2685357	REC_WORD	0.557	n/a	TIE	1	21	[0, 0, 0]	n/a	FR1	0	R1147P
2678.93	5.012	2685914	REC_WORD	5.012	n/a	BARN	2	21	[0, 0, 0]	n/a	FR1	0	R1147P
2683.942	4.67	2690926	REC_WORD	4.67	n/a	SHOE	-999	21	[0, 0, 0]	n/a	FR1	0	R1147P
2688.612	6.747	2695595	REC_WORD	6.747	n/a	TRAY	-999	21	[0, 0, 0]	n/a	FR1	0	R1147P
2695.359	6.276	2702342	REC_WORD	6.276	n/a	WOOD	-999	21	[0, 0, 0]	n/a	FR1	0	R1147P
2701.635	5.414	2708618	REC_WORD	5.414	n/a	FOOT	-999	21	[0, 0, 0]	n/a	FR1	0	R1147P
2707.049	5.345	2714031	REC_END	n/a	n/a	n/a	-999	21	[0, 0, 0]	n/a	FR1	0	R1147P
2712.394	0.5	2719376	TRIAL	n/a	n/a	n/a	-999	22	[0, 0, 0]	n/a	FR1	0	R1147P
2712.894	10.428	2719876	COUNTDOWN_START	n/a	n/a	n/a	-999	22	[0, 0, 0]	n/a	FR1	0	R1147P
2723.322	0.007	2730304	COUNTDOWN_END	n/a	n/a	n/a	-999	22	[0, 0, 0]	n/a	FR1	0	R1147P
2723.329	1.617	2730311	ORIENT	n/a	n/a	n/a	-999	22	[0, 0, 0]	n/a	FR1	0	R1147P
2724.946	1.95	2731928	ORIENT_OFF	n/a	n/a	n/a	-999	22	[0, 0, 0]	n/a	FR1	0	R1147P
2726.896	1.618	2733877	WORD	n/a	wordpools/wordpool_EN.txt	CHEEK	1	22	[0, 0, 0]	n/a	FR1	0	R1147P
2728.514	0.85	2735495	WORD_OFF	n/a	n/a	CHEEK	1	22	[0, 0, 0]	n/a	FR1	0	R1147P
2729.364	1.617	2736345	WORD	n/a	wordpools/wordpool_EN.txt	RAIN	2	22	[0, 0, 0]	n/a	FR1	0	R1147P
2730.981	0.783	2737962	WORD_OFF	n/a	n/a	RAIN	2	22	[0, 0, 0]	n/a	FR1	0	R1147P
2731.764	1.617	2738745	WORD	n/a	wordpools/wordpool_EN.txt	MAIL	3	22	[0, 0, 0]	n/a	FR1	0	R1147P
2733.381	0.9	2740362	WORD_OFF	n/a	n/a	MAIL	3	22	[0, 0, 0]	n/a	FR1	0	R1147P
2734.281	1.616	2741262	WORD	n/a	wordpools/wordpool_EN.txt	KEY	4	22	[0, 0, 0]	n/a	FR1	0	R1147P
2735.897	0.984	2742878	WORD_OFF	n/a	n/a	KEY	4	22	[0, 0, 0]	n/a	FR1	0	R1147P
2736.881	1.618	2743862	WORD	n/a	wordpools/wordpool_EN.txt	TENT	5	22	[0, 0, 0]	n/a	FR1	0	R1147P
2738.499	0.783	2745480	WORD_OFF	n/a	n/a	TENT	5	22	[0, 0, 0]	n/a	FR1	0	R1147P
2739.282	1.616	2746263	WORD	n/a	wordpools/wordpool_EN.txt	FISH	6	22	[0, 0, 0]	n/a	FR1	0	R1147P
2740.898	0.785	2747879	WORD_OFF	n/a	n/a	FISH	6	22	[0, 0, 0]	n/a	FR1	0	R1147P
2741.683	1.617	2748664	WORD	n/a	wordpools/wordpool_EN.txt	CHIEF	7	22	[0, 0, 0]	n/a	FR1	0	R1147P
2743.3	0.867	2750281	WORD_OFF	n/a	n/a	CHIEF	7	22	[0, 0, 0]	n/a	FR1	0	R1147P
2744.167	1.616	2751148	WORD	n/a	wordpools/wordpool_EN.txt	SKUNK	8	22	[0, 0, 0]	n/a	FR1	0	R1147P
2745.783	0.867	2752764	WORD_OFF	n/a	n/a	SKUNK	8	22	[0, 0, 0]	n/a	FR1	0	R1147P
2746.65	1.617	2753630	WORD	n/a	wordpools/wordpool_EN.txt	CASH	9	22	[0, 0, 0]	n/a	FR1	0	R1147P
2748.267	0.801	2755247	WORD_OFF	n/a	n/a	CASH	9	22	[0, 0, 0]	n/a	FR1	0	R1147P
2749.068	1.616	2756048	WORD	n/a	wordpools/wordpool_EN.txt	WORLD	10	22	[0, 0, 0]	n/a	FR1	0	R1147P
2750.684	0.784	2757664	WORD_OFF	n/a	n/a	WORLD	10	22	[0, 0, 0]	n/a	FR1	0	R1147P
2751.468	1.617	2758448	WORD	n/a	wordpools/wordpool_EN.txt	SHIP	11	22	[0, 0, 0]	n/a	FR1	0	R1147P
2753.085	0.782	2760065	WORD_OFF	n/a	n/a	SHIP	11	22	[0, 0, 0]	n/a	FR1	0	R1147P
2753.867	1.601	2760847	WORD	n/a	wordpools/wordpool_EN.txt	PARK	12	22	[0, 0, 0]	n/a	FR1	0	R1147P
2755.468	0.0	2762448	WORD_OFF	n/a	n/a	PARK	12	22	[0, 0, 0]	n/a	FR1	0	R1147P
2755.468	0.001	2762448	DISTRACT_START	n/a	n/a	n/a	-999	22	[0, 0, 0]	n/a	FR1	0	R1147P
2755.469	0.016	2762449	START	n/a	n/a	n/a	-999	22	[-999, -999, -999]	n/a	FR1	0	R1147P
2755.485	3.551	2762465	PROB	3.551	n/a	n/a	-999	22	[9, 6, 7]	22	FR1	0	R1147P
2759.036	3.167	2766016	PROB	3.167	n/a	n/a	-999	22	[1, 6, 4]	11	FR1	0	R1147P
2762.203	4.084	2769183	PROB	4.084	n/a	n/a	-999	22	[7, 4, 3]	14	FR1	0	R1147P
2766.287	3.55	2773266	PROB	3.55	n/a	n/a	-999	22	[9, 9, 5]	23	FR1	0	R1147P
2769.837	7.519	2776816	PROB	7.519	n/a	n/a	-999	22	[9, 8, 8]	25	FR1	0	R1147P
2777.356	0.017	2784335	STOP	n/a	n/a	n/a	-999	22	[-999, -999, -999]	n/a	FR1	0	R1147P
2777.373	0.65	2784352	DISTRACT_END	n/a	n/a	n/a	-999	22	[0, 0, 0]	n/a	FR1	0	R1147P
2778.023	0.518	2785002	RETRIEVAL_ORIENT	n/a	n/a	n/a	-999	22	[0, 0, 0]	n/a	FR1	0	R1147P
2778.541	1.196	2785520	REC_START	n/a	n/a	n/a	-999	22	[0, 0, 0]	n/a	FR1	0	R1147P
2779.737	0.653	2786716	REC_WORD	0.653	n/a	CHIEF	7	22	[0, 0, 0]	n/a	FR1	0	R1147P
2780.39	14.787	2787369	REC_WORD	14.787	n/a	RAIN	2	22	[0, 0, 0]	n/a	FR1	0	R1147P
2795.177	13.375	2802155	REC_WORD	13.375	n/a	SKY	-999	22	[0, 0, 0]	n/a	FR1	0	R1147P
2808.552	5.628	2815529	REC_END	n/a	n/a	n/a	-999	22	[0, 0, 0]	n/a	FR1	0	R1147P
2814.18	0.5	2821157	TRIAL	n/a	n/a	n/a	-999	23	[0, 0, 0]	n/a	FR1	0	R1147P
2814.68	10.428	2821657	COUNTDOWN_START	n/a	n/a	n/a	-999	23	[0, 0, 0]	n/a	FR1	0	R1147P
2825.108	0.007	2832085	COUNTDOWN_END	n/a	n/a	n/a	-999	23	[0, 0, 0]	n/a	FR1	0	R1147P
2825.115	1.617	2832092	ORIENT	n/a	n/a	n/a	-999	23	[0, 0, 0]	n/a	FR1	0	R1147P
2826.732	1.834	2833708	ORIENT_OFF	n/a	n/a	n/a	-999	23	[0, 0, 0]	n/a	FR1	0	R1147P
2828.566	1.617	2835542	WORD	n/a	wordpools/wordpool_EN.txt	SOAP	1	23	[0, 0, 0]	n/a	FR1	0	R1147P
2830.183	0.766	2837159	WORD_OFF	n/a	n/a	SOAP	1	23	[0, 0, 0]	n/a	FR1	0	R1147P
2830.949	1.601	2837925	WORD	n/a	wordpools/wordpool_EN.txt	SHEET	2	23	[0, 0, 0]	n/a	FR1	0	R1147P
2832.55	0.8	2839526	WORD_OFF	n/a	n/a	SHEET	2	23	[0, 0, 0]	n/a	FR1	0	R1147P
2833.35	1.617	2840326	WORD	n/a	wordpools/wordpool_EN.txt	GOLD	3	23	[0, 0, 0]	n/a	FR1	0	R1147P
2834.967	0.816	2841943	WORD_OFF	n/a	n/a	GOLD	3	23	[0, 0, 0]	n/a	FR1	0	R1147P
2835.783	1.618	2842759	WORD	n/a	wordpools/wordpool_EN.txt	STEAM	4	23	[0, 0, 0]	n/a	FR1	0	R1147P
2837.401	0.883	2844377	WORD_OFF	n/a	n/a	STEAM	4	23	[0, 0, 0]	n/a	FR1	0	R1147P
2838.284	1.616	2845260	WORD	n/a	wordpools/wordpool_EN.txt	DRUM	5	23	[0, 0, 0]	n/a	FR1	0	R1147P
2839.9	0.984	2846876	WORD_OFF	n/a	n/a	DRUM	5	23	[0, 0, 0]	n/a	FR1	0	R1147P
2840.884	1.618	2847860	WORD	n/a	wordpools/wordpool_EN.txt	BAG	6	23	[0, 0, 0]	n/a	FR1	0	R1147P
2842.502	1.0	2849478	WORD_OFF	n/a	n/a	BAG	6	23	[0, 0, 0]	n/a	FR1	0	R1147P
2843.502	1.617	2850478	WORD	n/a	wordpools/wordpool_EN.txt	BRANCH	7	23	[0, 0, 0]	n/a	FR1	0	R1147P
2845.119	0.9	2852094	WORD_OFF	n/a	n/a	BRANCH	7	23	[0, 0, 0]	n/a	FR1	0	R1147P
2846.019	1.617	2852994	WORD	n/a	wordpools/wordpool_EN.txt	SLIME	8	23	[0, 0, 0]	n/a	FR1	0	R1147P
2847.636	0.867	2854611	WORD_OFF	n/a	n/a	SLIME	8	23	[0, 0, 0]	n/a	FR1	0	R1147P
2848.503	1.617	2855478	WORD	n/a	wordpools/wordpool_EN.txt	OAK	9	23	[0, 0, 0]	n/a	FR1	0	R1147P
2850.12	0.883	2857095	WORD_OFF	n/a	n/a	OAK	9	23	[0, 0, 0]	n/a	FR1	0	R1147P
2851.003	1.617	2857978	WORD	n/a	wordpools/wordpool_EN.txt	RAKE	10	23	[0, 0, 0]	n/a	FR1	0	R1147P
2852.62	0.817	2859595	WORD_OFF	n/a	n/a	RAKE	10	23	[0, 0, 0]	n/a	FR1	0	R1147P
2853.437	1.617	2860412	WORD	n/a	wordpools/wordpool_EN.txt	SHIRT	11	23	[0, 0, 0]	n/a	FR1	0	R1147P
2855.054	0.816	2862029	WORD_OFF	n/a	n/a	SHIRT	11	23	[0, 0, 0]	n/a	FR1	0	R1147P
2855.87	1.618	2862845	WORD	n/a	wordpools/wordpool_EN.txt	JEEP	12	23	[0, 0, 0]	n/a	FR1	0	R1147P
2857.488	0.0	2864463	DISTRACT_START	n/a	n/a	n/a	-999	23	[0, 0, 0]	n/a	FR1	0	R1147P
2857.488	0.0	2864463	WORD_OFF	n/a	n/a	JEEP	12	23	[0, 0, 0]	n/a	FR1	0	R1147P
2857.488	0.017	2864463	START	n/a	n/a	n/a	-999	23	[-999, -999, -999]	n/a	FR1	0	R1147P
2857.505	3.934	2864480	PROB	3.934	n/a	n/a	-999	23	[2, 7, 5]	14	FR1	0	R1147P
2861.439	4.701	2868414	PROB	4.701	n/a	n/a	-999	23	[5, 3, 6]	14	FR1	0	R1147P
2866.14	7.001	2873114	PROB	7.001	n/a	n/a	-999	23	[9, 3, 5]	17	FR1	0	R1147P
2873.141	3.984	2880115	PROB	3.984	n/a	n/a	-999	23	[3, 2, 4]	9	FR1	0	R1147P
2877.125	3.976	2884099	PROB	3.976	n/a	n/a	-999	23	[9, 1, 9]	19	FR1	0	R1147P
2881.101	0.008	2888075	STOP	n/a	n/a	n/a	-999	23	[-999, -999, -999]	n/a	FR1	0	R1147P
2881.109	0.567	2888083	DISTRACT_END	n/a	n/a	n/a	-999	23	[0, 0, 0]	n/a	FR1	0	R1147P
2881.676	0.517	2888650	RETRIEVAL_ORIENT	n/a	n/a	n/a	-999	23	[0, 0, 0]	n/a	FR1	0	R1147P
2882.193	2.944	2889167	REC_START	n/a	n/a	n/a	-999	23	[0, 0, 0]	n/a	FR1	0	R1147P
2885.137	0.837	2892110	REC_WORD	0.837	n/a	SHIRT	11	23	[0, 0, 0]	n/a	FR1	0	R1147P
2885.974	0.479	2892947	REC_WORD	0.479	n/a	SHEET	2	23	[0, 0, 0]	n/a	FR1	0	R1147P
2886.453	0.832	2893426	REC_WORD	0.832	n/a	RAKE	10	23	[0, 0, 0]	n/a	FR1	0	R1147P
2887.285	12.879	2894258	REC_WORD	12.879	n/a	JEEP	12	23	[0, 0, 0]	n/a	FR1	0	R1147P
2900.164	6.221	2907137	REC_WORD	6.221	n/a	SKY	-999	23	[0, 0, 0]	n/a	FR1	0	R1147P
2906.385	5.82	2913357	REC_WORD_VV	5.82	n/a	<>	-999	23	[0, 0, 0]	n/a	FR1	0	R1147P
2912.205	6.928	2919177	REC_END	n/a	n/a	n/a	-999	23	[0, 0, 0]	n/a	FR1	0	R1147P
2919.133	0.5	2926105	TRIAL	n/a	n/a	n/a	-999	24	[0, 0, 0]	n/a	FR1	0	R1147P
2919.633	10.428	2926605	COUNTDOWN_START	n/a	n/a	n/a	-999	24	[0, 0, 0]	n/a	FR1	0	R1147P
2930.061	0.007	2937032	COUNTDOWN_END	n/a	n/a	n/a	-999	24	[0, 0, 0]	n/a	FR1	0	R1147P
2930.068	1.617	2937039	ORIENT	n/a	n/a	n/a	-999	24	[0, 0, 0]	n/a	FR1	0	R1147P
2931.685	2.216	2938656	ORIENT_OFF	n/a	n/a	n/a	-999	24	[0, 0, 0]	n/a	FR1	0	R1147P
2933.901	1.618	2940872	WORD	n/a	wordpools/wordpool_EN.txt	GRASS	1	24	[0, 0, 0]	n/a	FR1	0	R1147P
2935.519	0.917	2942490	WORD_OFF	n/a	n/a	GRASS	1	24	[0, 0, 0]	n/a	FR1	0	R1147P
2936.436	1.617	2943407	WORD	n/a	wordpools/wordpool_EN.txt	BATH	2	24	[0, 0, 0]	n/a	FR1	0	R1147P
2938.053	0.984	2945024	WORD_OFF	n/a	n/a	BATH	2	24	[0, 0, 0]	n/a	FR1	0	R1147P
2939.037	1.617	2946008	WORD	n/a	wordpools/wordpool_EN.txt	DRESS	3	24	[0, 0, 0]	n/a	FR1	0	R1147P
2940.654	0.85	2947625	WORD_OFF	n/a	n/a	DRESS	3	24	[0, 0, 0]	n/a	FR1	0	R1147P
2941.504	1.617	2948475	WORD	n/a	wordpools/wordpool_EN.txt	BOMB	4	24	[0, 0, 0]	n/a	FR1	0	R1147P
2943.121	0.967	2950092	WORD_OFF	n/a	n/a	BOMB	4	24	[0, 0, 0]	n/a	FR1	0	R1147P
2944.088	1.617	2951058	WORD	n/a	wordpools/wordpool_EN.txt	BEAK	5	24	[0, 0, 0]	n/a	FR1	0	R1147P
2945.705	0.866	2952675	WORD_OFF	n/a	n/a	BEAK	5	24	[0, 0, 0]	n/a	FR1	0	R1147P
2946.571	1.617	2953541	WORD	n/a	wordpools/wordpool_EN.txt	TEA	6	24	[0, 0, 0]	n/a	FR1	0	R1147P
2948.188	0.901	2955158	WORD_OFF	n/a	n/a	TEA	6	24	[0, 0, 0]	n/a	FR1	0	R1147P
2949.089	1.616	2956059	WORD	n/a	wordpools/wordpool_EN.txt	FOG	7	24	[0, 0, 0]	n/a	FR1	0	R1147P
2950.705	0.0	2957675	WORD_OFF	n/a	n/a	FOG	7	24	[0, 0, 0]	n/a	FR1	0	R1147P
