onset	duration	sample	trial_type	response_time	stim_file	item_name	serialpos	list	test	answer	experiment	session	subject
0.0	0.0	8998	INSTRUCT_START	n/a	n/a	n/a	-999	-999	[0, 0, 0]	n/a	FR1	1	R1171M
0.0	10.926	8998	INSTRUCT_END	n/a	n/a	n/a	-999	-999	[0, 0, 0]	n/a	FR1	1	R1171M
10.926	0.0	19923	SESS_START	n/a	n/a	n/a	-999	-999	[0, 0, 0]	n/a	FR1	1	R1171M
10.926	290.938	19923	MIC_TEST	n/a	n/a	n/a	-999	-999	[0, 0, 0]	n/a	FR1	1	R1171M
301.864	4.413	310845	PRACTICE_TRIAL	n/a	n/a	n/a	-999	-1	[0, 0, 0]	n/a	FR1	1	R1171M
306.277	10.428	315257	COUNTDOWN_START	n/a	n/a	n/a	-999	-1	[0, 0, 0]	n/a	FR1	1	R1171M
316.705	0.007	325685	COUNTDOWN_END	n/a	n/a	n/a	-999	-1	[0, 0, 0]	n/a	FR1	1	R1171M
316.712	1.616	325692	PRACTICE_ORIENT	n/a	n/a	n/a	-999	-1	[0, 0, 0]	n/a	FR1	1	R1171M
318.328	2.218	327308	PRACTICE_ORIENT_OFF	n/a	n/a	n/a	-999	-1	[0, 0, 0]	n/a	FR1	1	R1171M
320.546	1.616	329525	PRACTICE_WORD	n/a	n/a	ATTIC	1	-1	[0, 0, 0]	n/a	FR1	1	R1171M
322.162	1.0	331141	PRACTICE_WORD_OFF	n/a	n/a	ATTIC	-999	-1	[0, 0, 0]	n/a	FR1	1	R1171M
323.162	1.601	332141	PRACTICE_WORD	n/a	n/a	COTTON	2	-1	[0, 0, 0]	n/a	FR1	1	R1171M
324.763	0.801	333742	PRACTICE_WORD_OFF	n/a	n/a	COTTON	-999	-1	[0, 0, 0]	n/a	FR1	1	R1171M
325.564	1.616	334543	PRACTICE_WORD	n/a	n/a	BEAM	3	-1	[0, 0, 0]	n/a	FR1	1	R1171M
327.18	0.85	336159	PRACTICE_WORD_OFF	n/a	n/a	BEAM	-999	-1	[0, 0, 0]	n/a	FR1	1	R1171M
328.03	1.618	337009	PRACTICE_WORD	n/a	n/a	RHINO	4	-1	[0, 0, 0]	n/a	FR1	1	R1171M
329.648	0.833	338627	PRACTICE_WORD_OFF	n/a	n/a	RHINO	-999	-1	[0, 0, 0]	n/a	FR1	1	R1171M
330.481	1.616	339460	PRACTICE_WORD	n/a	n/a	WAGON	5	-1	[0, 0, 0]	n/a	FR1	1	R1171M
332.097	0.784	341076	PRACTICE_WORD_OFF	n/a	n/a	WAGON	-999	-1	[0, 0, 0]	n/a	FR1	1	R1171M
332.881	1.618	341860	PRACTICE_WORD	n/a	n/a	WATCH	6	-1	[0, 0, 0]	n/a	FR1	1	R1171M
334.499	0.95	343478	PRACTICE_WORD_OFF	n/a	n/a	WATCH	-999	-1	[0, 0, 0]	n/a	FR1	1	R1171M
335.449	1.616	344428	PRACTICE_WORD	n/a	n/a	FLOOD	7	-1	[0, 0, 0]	n/a	FR1	1	R1171M
337.065	0.784	346044	PRACTICE_WORD_OFF	n/a	n/a	FLOOD	-999	-1	[0, 0, 0]	n/a	FR1	1	R1171M
337.849	1.617	346827	PRACTICE_WORD	n/a	n/a	CHEST	8	-1	[0, 0, 0]	n/a	FR1	1	R1171M
339.466	0.783	348444	PRACTICE_WORD_OFF	n/a	n/a	CHEST	-999	-1	[0, 0, 0]	n/a	FR1	1	R1171M
340.249	1.617	349227	PRACTICE_WORD	n/a	n/a	RING	9	-1	[0, 0, 0]	n/a	FR1	1	R1171M
341.866	0.868	350844	PRACTICE_WORD_OFF	n/a	n/a	RING	-999	-1	[0, 0, 0]	n/a	FR1	1	R1171M
342.734	1.616	351712	PRACTICE_WORD	n/a	n/a	CAMEL	10	-1	[0, 0, 0]	n/a	FR1	1	R1171M
344.35	0.9	353328	PRACTICE_WORD_OFF	n/a	n/a	CAMEL	-999	-1	[0, 0, 0]	n/a	FR1	1	R1171M
345.25	1.617	354228	PRACTICE_WORD	n/a	n/a	TONGUE	11	-1	[0, 0, 0]	n/a	FR1	1	R1171M
346.867	0.884	355845	PRACTICE_WORD_OFF	n/a	n/a	TONGUE	-999	-1	[0, 0, 0]	n/a	FR1	1	R1171M
347.751	1.616	356729	PRACTICE_WORD	n/a	n/a	IRON	12	-1	[0, 0, 0]	n/a	FR1	1	R1171M
349.367	0.0	358345	PRACTICE_WORD_OFF	n/a	n/a	IRON	-999	-1	[0, 0, 0]	n/a	FR1	1	R1171M
349.367	0.001	358345	DISTRACT_START	n/a	n/a	n/a	-999	-1	[0, 0, 0]	n/a	FR1	1	R1171M
349.368	0.016	358346	START	n/a	n/a	n/a	-999	-1	[-999, -999, -999]	n/a	FR1	1	R1171M
349.384	20.989	358362	PROB	20.989	n/a	n/a	-999	-1	[7, 9, 1]	19	FR1	1	R1171M
370.373	0.015	379350	STOP	n/a	n/a	n/a	-999	-1	[-999, -999, -999]	n/a	FR1	1	R1171M
370.388	0.65	379365	DISTRACT_END	n/a	n/a	n/a	-999	-1	[0, 0, 0]	n/a	FR1	1	R1171M
371.038	0.522	380015	RETRIEVAL_ORIENT	n/a	n/a	n/a	-999	-1	[0, 0, 0]	n/a	FR1	1	R1171M
371.56	30.006	380537	PRACTICE_REC_START	n/a	n/a	n/a	-999	-1	[0, 0, 0]	n/a	FR1	1	R1171M
401.566	13.314	410541	PRACTICE_REC_END	n/a	n/a	n/a	-999	-1	[0, 0, 0]	n/a	FR1	1	R1171M
414.88	0.5	423854	TRIAL	n/a	n/a	n/a	-999	1	[0, 0, 0]	n/a	FR1	1	R1171M
415.38	10.428	424354	COUNTDOWN_START	n/a	n/a	n/a	-999	1	[0, 0, 0]	n/a	FR1	1	R1171M
425.808	0.009	434781	COUNTDOWN_END	n/a	n/a	n/a	-999	1	[0, 0, 0]	n/a	FR1	1	R1171M
425.817	1.616	434790	ORIENT	n/a	n/a	n/a	-999	1	[0, 0, 0]	n/a	FR1	1	R1171M
427.433	2.218	436406	ORIENT_OFF	n/a	n/a	n/a	-999	1	[0, 0, 0]	n/a	FR1	1	R1171M
429.651	1.616	438624	WORD	n/a	wordpools/wordpool_EN.txt	ROOF	1	1	[0, 0, 0]	n/a	FR1	1	R1171M
431.267	0.983	440240	WORD_OFF	n/a	n/a	ROOF	1	1	[0, 0, 0]	n/a	FR1	1	R1171M
432.25	1.617	441223	WORD	n/a	wordpools/wordpool_EN.txt	CHAIR	2	1	[0, 0, 0]	n/a	FR1	1	R1171M
433.867	0.884	442840	WORD_OFF	n/a	n/a	CHAIR	2	1	[0, 0, 0]	n/a	FR1	1	R1171M
434.751	1.617	443724	WORD	n/a	wordpools/wordpool_EN.txt	NET	3	1	[0, 0, 0]	n/a	FR1	1	R1171M
436.368	0.817	445341	WORD_OFF	n/a	n/a	NET	3	1	[0, 0, 0]	n/a	FR1	1	R1171M
437.185	1.618	446158	WORD	n/a	wordpools/wordpool_EN.txt	CLIFF	4	1	[0, 0, 0]	n/a	FR1	1	R1171M
438.803	0.833	447776	WORD_OFF	n/a	n/a	CLIFF	4	1	[0, 0, 0]	n/a	FR1	1	R1171M
439.636	1.616	448609	WORD	n/a	wordpools/wordpool_EN.txt	PEA	5	1	[0, 0, 0]	n/a	FR1	1	R1171M
441.252	0.933	450225	WORD_OFF	n/a	n/a	PEA	5	1	[0, 0, 0]	n/a	FR1	1	R1171M
442.185	1.618	451158	WORD	n/a	wordpools/wordpool_EN.txt	MULE	6	1	[0, 0, 0]	n/a	FR1	1	R1171M
443.803	0.851	452775	WORD_OFF	n/a	n/a	MULE	6	1	[0, 0, 0]	n/a	FR1	1	R1171M
444.654	1.616	453626	WORD	n/a	wordpools/wordpool_EN.txt	LEAF	7	1	[0, 0, 0]	n/a	FR1	1	R1171M
446.27	0.95	455242	WORD_OFF	n/a	n/a	LEAF	7	1	[0, 0, 0]	n/a	FR1	1	R1171M
447.22	1.617	456192	WORD	n/a	wordpools/wordpool_EN.txt	HAWK	8	1	[0, 0, 0]	n/a	FR1	1	R1171M
448.837	0.901	457809	WORD_OFF	n/a	n/a	HAWK	8	1	[0, 0, 0]	n/a	FR1	1	R1171M
449.738	1.616	458710	WORD	n/a	wordpools/wordpool_EN.txt	TOE	9	1	[0, 0, 0]	n/a	FR1	1	R1171M
451.354	0.833	460326	WORD_OFF	n/a	n/a	TOE	9	1	[0, 0, 0]	n/a	FR1	1	R1171M
452.187	1.618	461159	WORD	n/a	wordpools/wordpool_EN.txt	ANT	10	1	[0, 0, 0]	n/a	FR1	1	R1171M
453.805	0.934	462777	WORD_OFF	n/a	n/a	ANT	10	1	[0, 0, 0]	n/a	FR1	1	R1171M
454.739	1.616	463711	WORD	n/a	wordpools/wordpool_EN.txt	CHEEK	11	1	[0, 0, 0]	n/a	FR1	1	R1171M
456.355	0.95	465327	WORD_OFF	n/a	n/a	CHEEK	11	1	[0, 0, 0]	n/a	FR1	1	R1171M
457.305	1.617	466277	WORD	n/a	wordpools/wordpool_EN.txt	NEST	12	1	[0, 0, 0]	n/a	FR1	1	R1171M
458.922	0.0	467894	DISTRACT_START	n/a	n/a	n/a	-999	1	[0, 0, 0]	n/a	FR1	1	R1171M
458.922	0.0	467894	WORD_OFF	n/a	n/a	NEST	12	1	[0, 0, 0]	n/a	FR1	1	R1171M
458.922	0.017	467894	START	n/a	n/a	n/a	-999	1	[-999, -999, -999]	n/a	FR1	1	R1171M
458.939	25.433	467911	PROB	25.433	n/a	n/a	-999	1	[3, 6, 7]	16	FR1	1	R1171M
484.372	0.022	493342	STOP	n/a	n/a	n/a	-999	1	[-999, -999, -999]	n/a	FR1	1	R1171M
484.394	0.533	493364	DISTRACT_END	n/a	n/a	n/a	-999	1	[0, 0, 0]	n/a	FR1	1	R1171M
484.927	0.517	493897	RETRIEVAL_ORIENT	n/a	n/a	n/a	-999	1	[0, 0, 0]	n/a	FR1	1	R1171M
485.444	0.227	494414	REC_START	n/a	n/a	n/a	-999	1	[0, 0, 0]	n/a	FR1	1	R1171M
485.671	0.907	494641	REC_WORD	0.907	n/a	ROOF	1	1	[0, 0, 0]	n/a	FR1	1	R1171M
486.578	1.046	495548	REC_WORD	1.046	n/a	CHAIR	2	1	[0, 0, 0]	n/a	FR1	1	R1171M
487.624	3.848	496594	REC_WORD	3.848	n/a	NET	3	1	[0, 0, 0]	n/a	FR1	1	R1171M
491.472	0.294	500442	REC_WORD	0.294	n/a	ROOF	1	1	[0, 0, 0]	n/a	FR1	1	R1171M
491.766	0.225	500736	REC_WORD	0.225	n/a	CHAIR	2	1	[0, 0, 0]	n/a	FR1	1	R1171M
491.991	3.102	500961	REC_WORD	3.102	n/a	NET	3	1	[0, 0, 0]	n/a	FR1	1	R1171M
495.093	2.576	504063	REC_WORD_VV	2.576	n/a	<>	-999	1	[0, 0, 0]	n/a	FR1	1	R1171M
497.669	2.234	506638	REC_WORD_VV	2.234	n/a	<>	-999	1	[0, 0, 0]	n/a	FR1	1	R1171M
499.903	8.874	508872	REC_WORD_VV	8.874	n/a	<>	-999	1	[0, 0, 0]	n/a	FR1	1	R1171M
508.777	2.71	517746	REC_WORD_VV	2.71	n/a	<>	-999	1	[0, 0, 0]	n/a	FR1	1	R1171M
511.487	3.969	520456	REC_WORD_VV	3.969	n/a	<>	-999	1	[0, 0, 0]	n/a	FR1	1	R1171M
515.456	20.848	524424	REC_END	n/a	n/a	n/a	-999	1	[0, 0, 0]	n/a	FR1	1	R1171M
536.304	0.5	545271	TRIAL	n/a	n/a	n/a	-999	2	[0, 0, 0]	n/a	FR1	1	R1171M
536.804	10.428	545771	COUNTDOWN_START	n/a	n/a	n/a	-999	2	[0, 0, 0]	n/a	FR1	1	R1171M
547.232	0.007	556199	COUNTDOWN_END	n/a	n/a	n/a	-999	2	[0, 0, 0]	n/a	FR1	1	R1171M
547.239	1.617	556206	ORIENT	n/a	n/a	n/a	-999	2	[0, 0, 0]	n/a	FR1	1	R1171M
548.856	2.334	557822	ORIENT_OFF	n/a	n/a	n/a	-999	2	[0, 0, 0]	n/a	FR1	1	R1171M
551.19	1.618	560156	WORD	n/a	wordpools/wordpool_EN.txt	STREET	1	2	[0, 0, 0]	n/a	FR1	1	R1171M
552.808	0.833	561774	WORD_OFF	n/a	n/a	STREET	1	2	[0, 0, 0]	n/a	FR1	1	R1171M
553.641	1.616	562607	WORD	n/a	wordpools/wordpool_EN.txt	JET	2	2	[0, 0, 0]	n/a	FR1	1	R1171M
555.257	0.801	564223	WORD_OFF	n/a	n/a	JET	2	2	[0, 0, 0]	n/a	FR1	1	R1171M
556.058	1.618	565024	WORD	n/a	wordpools/wordpool_EN.txt	SPOON	3	2	[0, 0, 0]	n/a	FR1	1	R1171M
557.676	0.916	566642	WORD_OFF	n/a	n/a	SPOON	3	2	[0, 0, 0]	n/a	FR1	1	R1171M
558.592	1.616	567558	WORD	n/a	wordpools/wordpool_EN.txt	BATH	4	2	[0, 0, 0]	n/a	FR1	1	R1171M
560.208	0.934	569174	WORD_OFF	n/a	n/a	BATH	4	2	[0, 0, 0]	n/a	FR1	1	R1171M
561.142	1.601	570108	WORD	n/a	wordpools/wordpool_EN.txt	DEER	5	2	[0, 0, 0]	n/a	FR1	1	R1171M
562.743	0.834	571709	WORD_OFF	n/a	n/a	DEER	5	2	[0, 0, 0]	n/a	FR1	1	R1171M
563.577	1.616	572543	WORD	n/a	wordpools/wordpool_EN.txt	FOG	6	2	[0, 0, 0]	n/a	FR1	1	R1171M
565.193	0.85	574159	WORD_OFF	n/a	n/a	FOG	6	2	[0, 0, 0]	n/a	FR1	1	R1171M
566.043	1.618	575009	WORD	n/a	wordpools/wordpool_EN.txt	GLOVE	7	2	[0, 0, 0]	n/a	FR1	1	R1171M
567.661	0.85	576626	WORD_OFF	n/a	n/a	GLOVE	7	2	[0, 0, 0]	n/a	FR1	1	R1171M
568.511	1.616	577476	WORD	n/a	wordpools/wordpool_EN.txt	SHIP	8	2	[0, 0, 0]	n/a	FR1	1	R1171M
570.127	0.833	579092	WORD_OFF	n/a	n/a	SHIP	8	2	[0, 0, 0]	n/a	FR1	1	R1171M
570.96	1.618	579925	WORD	n/a	wordpools/wordpool_EN.txt	FOOD	9	2	[0, 0, 0]	n/a	FR1	1	R1171M
572.578	0.85	581543	WORD_OFF	n/a	n/a	FOOD	9	2	[0, 0, 0]	n/a	FR1	1	R1171M
573.428	1.617	582393	WORD	n/a	wordpools/wordpool_EN.txt	LAMP	10	2	[0, 0, 0]	n/a	FR1	1	R1171M
575.045	0.95	584010	WORD_OFF	n/a	n/a	LAMP	10	2	[0, 0, 0]	n/a	FR1	1	R1171M
575.995	1.618	584960	WORD	n/a	wordpools/wordpool_EN.txt	LOCK	11	2	[0, 0, 0]	n/a	FR1	1	R1171M
577.613	0.799	586578	WORD_OFF	n/a	n/a	LOCK	11	2	[0, 0, 0]	n/a	FR1	1	R1171M
578.412	1.617	587377	WORD	n/a	wordpools/wordpool_EN.txt	WAND	12	2	[0, 0, 0]	n/a	FR1	1	R1171M
580.029	0.0	588994	WORD_OFF	n/a	n/a	WAND	12	2	[0, 0, 0]	n/a	FR1	1	R1171M
580.029	0.0	588994	DISTRACT_START	n/a	n/a	n/a	-999	2	[0, 0, 0]	n/a	FR1	1	R1171M
580.029	0.017	588994	START	n/a	n/a	n/a	-999	2	[-999, -999, -999]	n/a	FR1	1	R1171M
580.046	11.852	589011	PROB	11.852	n/a	n/a	-999	2	[8, 7, 1]	16	FR1	1	R1171M
591.898	8.118	600862	PROB	8.118	n/a	n/a	-999	2	[9, 1, 9]	19	FR1	1	R1171M
600.016	4.565	608980	PROB	4.565	n/a	n/a	-999	2	[1, 4, 6]	11	FR1	1	R1171M
604.581	0.02	613544	STOP	n/a	n/a	n/a	-999	2	[-999, -999, -999]	n/a	FR1	1	R1171M
604.601	0.583	613564	DISTRACT_END	n/a	n/a	n/a	-999	2	[0, 0, 0]	n/a	FR1	1	R1171M
605.184	0.518	614147	RETRIEVAL_ORIENT	n/a	n/a	n/a	-999	2	[0, 0, 0]	n/a	FR1	1	R1171M
605.702	0.413	614665	REC_START	n/a	n/a	n/a	-999	2	[0, 0, 0]	n/a	FR1	1	R1171M
606.115	1.295	615078	REC_WORD	1.295	n/a	BATH	4	2	[0, 0, 0]	n/a	FR1	1	R1171M
607.41	1.119	616373	REC_WORD	1.119	n/a	DEER	5	2	[0, 0, 0]	n/a	FR1	1	R1171M
608.529	1.181	617492	REC_WORD	1.181	n/a	FOG	6	2	[0, 0, 0]	n/a	FR1	1	R1171M
609.71	3.88	618673	REC_WORD	3.88	n/a	SHIP	8	2	[0, 0, 0]	n/a	FR1	1	R1171M
613.59	22.123	622553	REC_WORD_VV	22.123	n/a	<>	-999	2	[0, 0, 0]	n/a	FR1	1	R1171M
635.713	6.829	644675	REC_END	n/a	n/a	n/a	-999	2	[0, 0, 0]	n/a	FR1	1	R1171M
642.542	0.5	651503	TRIAL	n/a	n/a	n/a	-999	3	[0, 0, 0]	n/a	FR1	1	R1171M
643.042	10.428	652003	COUNTDOWN_START	n/a	n/a	n/a	-999	3	[0, 0, 0]	n/a	FR1	1	R1171M
653.47	0.008	662431	COUNTDOWN_END	n/a	n/a	n/a	-999	3	[0, 0, 0]	n/a	FR1	1	R1171M
653.478	1.616	662439	ORIENT	n/a	n/a	n/a	-999	3	[0, 0, 0]	n/a	FR1	1	R1171M
655.094	2.183	664054	ORIENT_OFF	n/a	n/a	n/a	-999	3	[0, 0, 0]	n/a	FR1	1	R1171M
657.277	1.617	666237	WORD	n/a	wordpools/wordpool_EN.txt	PIE	1	3	[0, 0, 0]	n/a	FR1	1	R1171M
658.894	0.918	667854	WORD_OFF	n/a	n/a	PIE	1	3	[0, 0, 0]	n/a	FR1	1	R1171M
659.812	1.616	668772	WORD	n/a	wordpools/wordpool_EN.txt	HOSE	2	3	[0, 0, 0]	n/a	FR1	1	R1171M
661.428	0.984	670388	WORD_OFF	n/a	n/a	HOSE	2	3	[0, 0, 0]	n/a	FR1	1	R1171M
662.412	1.617	671372	WORD	n/a	wordpools/wordpool_EN.txt	DITCH	3	3	[0, 0, 0]	n/a	FR1	1	R1171M
664.029	0.833	672989	WORD_OFF	n/a	n/a	DITCH	3	3	[0, 0, 0]	n/a	FR1	1	R1171M
664.862	1.618	673822	WORD	n/a	wordpools/wordpool_EN.txt	PURSE	4	3	[0, 0, 0]	n/a	FR1	1	R1171M
666.48	0.783	675440	WORD_OFF	n/a	n/a	PURSE	4	3	[0, 0, 0]	n/a	FR1	1	R1171M
667.263	1.617	676223	WORD	n/a	wordpools/wordpool_EN.txt	DRESS	5	3	[0, 0, 0]	n/a	FR1	1	R1171M
668.88	1.0	677840	WORD_OFF	n/a	n/a	DRESS	5	3	[0, 0, 0]	n/a	FR1	1	R1171M
669.88	1.618	678840	WORD	n/a	wordpools/wordpool_EN.txt	CANE	6	3	[0, 0, 0]	n/a	FR1	1	R1171M
671.498	0.866	680458	WORD_OFF	n/a	n/a	CANE	6	3	[0, 0, 0]	n/a	FR1	1	R1171M
672.364	1.617	681323	WORD	n/a	wordpools/wordpool_EN.txt	SEAT	7	3	[0, 0, 0]	n/a	FR1	1	R1171M
673.981	1.0	682940	WORD_OFF	n/a	n/a	SEAT	7	3	[0, 0, 0]	n/a	FR1	1	R1171M
674.981	1.618	683940	WORD	n/a	wordpools/wordpool_EN.txt	DIME	8	3	[0, 0, 0]	n/a	FR1	1	R1171M
676.599	0.85	685558	WORD_OFF	n/a	n/a	DIME	8	3	[0, 0, 0]	n/a	FR1	1	R1171M
677.449	1.616	686408	WORD	n/a	wordpools/wordpool_EN.txt	CRANE	9	3	[0, 0, 0]	n/a	FR1	1	R1171M
679.065	0.8	688024	WORD_OFF	n/a	n/a	CRANE	9	3	[0, 0, 0]	n/a	FR1	1	R1171M
679.865	1.618	688824	WORD	n/a	wordpools/wordpool_EN.txt	SHARK	10	3	[0, 0, 0]	n/a	FR1	1	R1171M
681.483	0.967	690442	WORD_OFF	n/a	n/a	SHARK	10	3	[0, 0, 0]	n/a	FR1	1	R1171M
682.45	1.616	691409	WORD	n/a	wordpools/wordpool_EN.txt	SMILE	11	3	[0, 0, 0]	n/a	FR1	1	R1171M
684.066	0.767	693025	WORD_OFF	n/a	n/a	SMILE	11	3	[0, 0, 0]	n/a	FR1	1	R1171M
684.833	1.618	693792	WORD	n/a	wordpools/wordpool_EN.txt	SUIT	12	3	[0, 0, 0]	n/a	FR1	1	R1171M
686.451	0.0	695410	WORD_OFF	n/a	n/a	SUIT	12	3	[0, 0, 0]	n/a	FR1	1	R1171M
686.451	0.0	695410	DISTRACT_START	n/a	n/a	n/a	-999	3	[0, 0, 0]	n/a	FR1	1	R1171M
686.451	0.016	695410	START	n/a	n/a	n/a	-999	3	[-999, -999, -999]	n/a	FR1	1	R1171M
686.467	17.369	695426	PROB	17.369	n/a	n/a	-999	3	[5, 5, 6]	16	FR1	1	R1171M
703.836	20.999	712794	PROB	20.999	n/a	n/a	-999	3	[7, 9, 9]	25	FR1	1	R1171M
724.835	0.022	733791	STOP	n/a	n/a	n/a	-999	3	[-999, -999, -999]	n/a	FR1	1	R1171M
724.857	0.55	733813	DISTRACT_END	n/a	n/a	n/a	-999	3	[0, 0, 0]	n/a	FR1	1	R1171M
725.407	0.518	734363	RETRIEVAL_ORIENT	n/a	n/a	n/a	-999	3	[0, 0, 0]	n/a	FR1	1	R1171M
725.925	1.056	734881	REC_START	n/a	n/a	n/a	-999	3	[0, 0, 0]	n/a	FR1	1	R1171M
726.981	0.583	735937	REC_WORD_VV	0.583	n/a	<>	-999	3	[0, 0, 0]	n/a	FR1	1	R1171M
727.564	0.932	736520	REC_WORD	0.932	n/a	PIE	1	3	[0, 0, 0]	n/a	FR1	1	R1171M
728.496	0.988	737452	REC_WORD	0.988	n/a	HOSE	2	3	[0, 0, 0]	n/a	FR1	1	R1171M
729.484	13.68	738440	REC_WORD	13.68	n/a	DRESS	5	3	[0, 0, 0]	n/a	FR1	1	R1171M
743.164	3.941	752119	REC_WORD_VV	3.941	n/a	<>	-999	3	[0, 0, 0]	n/a	FR1	1	R1171M
747.105	8.831	756060	REC_WORD_VV	8.831	n/a	<>	-999	3	[0, 0, 0]	n/a	FR1	1	R1171M
755.936	5.746	764891	REC_END	n/a	n/a	n/a	-999	3	[0, 0, 0]	n/a	FR1	1	R1171M
761.682	0.5	770636	TRIAL	n/a	n/a	n/a	-999	4	[0, 0, 0]	n/a	FR1	1	R1171M
762.182	10.428	771136	COUNTDOWN_START	n/a	n/a	n/a	-999	4	[0, 0, 0]	n/a	FR1	1	R1171M
772.61	0.007	781564	COUNTDOWN_END	n/a	n/a	n/a	-999	4	[0, 0, 0]	n/a	FR1	1	R1171M
772.617	1.616	781571	ORIENT	n/a	n/a	n/a	-999	4	[0, 0, 0]	n/a	FR1	1	R1171M
774.233	2.117	783187	ORIENT_OFF	n/a	n/a	n/a	-999	4	[0, 0, 0]	n/a	FR1	1	R1171M
776.35	1.617	785304	WORD	n/a	wordpools/wordpool_EN.txt	CAVE	1	4	[0, 0, 0]	n/a	FR1	1	R1171M
777.967	0.818	786920	WORD_OFF	n/a	n/a	CAVE	1	4	[0, 0, 0]	n/a	FR1	1	R1171M
778.785	1.616	787738	WORD	n/a	wordpools/wordpool_EN.txt	NOSE	2	4	[0, 0, 0]	n/a	FR1	1	R1171M
780.401	0.9	789354	WORD_OFF	n/a	n/a	NOSE	2	4	[0, 0, 0]	n/a	FR1	1	R1171M
781.301	1.617	790254	WORD	n/a	wordpools/wordpool_EN.txt	MUD	3	4	[0, 0, 0]	n/a	FR1	1	R1171M
782.918	0.785	791871	WORD_OFF	n/a	n/a	MUD	3	4	[0, 0, 0]	n/a	FR1	1	R1171M
783.703	1.616	792656	WORD	n/a	wordpools/wordpool_EN.txt	BEAK	4	4	[0, 0, 0]	n/a	FR1	1	R1171M
785.319	0.85	794272	WORD_OFF	n/a	n/a	BEAK	4	4	[0, 0, 0]	n/a	FR1	1	R1171M
786.169	1.618	795122	WORD	n/a	wordpools/wordpool_EN.txt	COUCH	5	4	[0, 0, 0]	n/a	FR1	1	R1171M
787.787	0.95	796740	WORD_OFF	n/a	n/a	COUCH	5	4	[0, 0, 0]	n/a	FR1	1	R1171M
788.737	1.616	797690	WORD	n/a	wordpools/wordpool_EN.txt	BREAD	6	4	[0, 0, 0]	n/a	FR1	1	R1171M
790.353	1.017	799306	WORD_OFF	n/a	n/a	BREAD	6	4	[0, 0, 0]	n/a	FR1	1	R1171M
791.37	1.617	800323	WORD	n/a	wordpools/wordpool_EN.txt	SHIELD	7	4	[0, 0, 0]	n/a	FR1	1	R1171M
792.987	1.0	801940	WORD_OFF	n/a	n/a	SHIELD	7	4	[0, 0, 0]	n/a	FR1	1	R1171M
793.987	1.618	802940	WORD	n/a	wordpools/wordpool_EN.txt	FLOOR	8	4	[0, 0, 0]	n/a	FR1	1	R1171M
795.605	0.934	804557	WORD_OFF	n/a	n/a	FLOOR	8	4	[0, 0, 0]	n/a	FR1	1	R1171M
796.539	1.616	805491	WORD	n/a	wordpools/wordpool_EN.txt	TOAST	9	4	[0, 0, 0]	n/a	FR1	1	R1171M
798.155	0.833	807107	WORD_OFF	n/a	n/a	TOAST	9	4	[0, 0, 0]	n/a	FR1	1	R1171M
798.988	1.602	807940	WORD	n/a	wordpools/wordpool_EN.txt	TENT	10	4	[0, 0, 0]	n/a	FR1	1	R1171M
800.59	1.0	809542	WORD_OFF	n/a	n/a	TENT	10	4	[0, 0, 0]	n/a	FR1	1	R1171M
801.59	1.616	810542	WORD	n/a	wordpools/wordpool_EN.txt	LEG	11	4	[0, 0, 0]	n/a	FR1	1	R1171M
803.206	0.95	812158	WORD_OFF	n/a	n/a	LEG	11	4	[0, 0, 0]	n/a	FR1	1	R1171M
804.156	1.601	813108	WORD	n/a	wordpools/wordpool_EN.txt	BRANCH	12	4	[0, 0, 0]	n/a	FR1	1	R1171M
805.757	0.0	814709	WORD_OFF	n/a	n/a	BRANCH	12	4	[0, 0, 0]	n/a	FR1	1	R1171M
805.757	0.001	814709	DISTRACT_START	n/a	n/a	n/a	-999	4	[0, 0, 0]	n/a	FR1	1	R1171M
805.758	0.016	814710	START	n/a	n/a	n/a	-999	4	[-999, -999, -999]	n/a	FR1	1	R1171M
805.774	11.401	814726	PROB	11.401	n/a	n/a	-999	4	[4, 1, 1]	6	FR1	1	R1171M
817.175	15.461	826126	PROB	15.461	n/a	n/a	-999	4	[4, 7, 7]	18	FR1	1	R1171M
832.636	0.01	841586	STOP	n/a	n/a	n/a	-999	4	[-999, -999, -999]	n/a	FR1	1	R1171M
832.646	0.615	841596	DISTRACT_END	n/a	n/a	n/a	-999	4	[0, 0, 0]	n/a	FR1	1	R1171M
833.261	0.519	842211	RETRIEVAL_ORIENT	n/a	n/a	n/a	-999	4	[0, 0, 0]	n/a	FR1	1	R1171M
833.78	1.261	842730	REC_START	n/a	n/a	n/a	-999	4	[0, 0, 0]	n/a	FR1	1	R1171M
835.041	2.856	843991	REC_WORD_VV	2.856	n/a	<>	-999	4	[0, 0, 0]	n/a	FR1	1	R1171M
837.897	0.552	846847	REC_WORD	0.552	n/a	MUD	3	4	[0, 0, 0]	n/a	FR1	1	R1171M
838.449	0.496	847399	REC_WORD	0.496	n/a	BEAK	4	4	[0, 0, 0]	n/a	FR1	1	R1171M
838.945	6.04	847895	REC_WORD	6.04	n/a	COUCH	5	4	[0, 0, 0]	n/a	FR1	1	R1171M
844.985	1.39	853935	REC_WORD	1.39	n/a	TENT	10	4	[0, 0, 0]	n/a	FR1	1	R1171M
846.375	0.994	855325	REC_WORD_VV	0.994	n/a	<>	-999	4	[0, 0, 0]	n/a	FR1	1	R1171M
847.369	8.685	856319	REC_WORD_VV	8.685	n/a	<>	-999	4	[0, 0, 0]	n/a	FR1	1	R1171M
856.054	1.497	865003	REC_WORD_VV	1.497	n/a	<>	-999	4	[0, 0, 0]	n/a	FR1	1	R1171M
857.551	6.24	866500	REC_WORD_VV	6.24	n/a	<>	-999	4	[0, 0, 0]	n/a	FR1	1	R1171M
863.791	25.531	872740	REC_END	n/a	n/a	n/a	-999	4	[0, 0, 0]	n/a	FR1	1	R1171M
889.322	0.5	898269	TRIAL	n/a	n/a	n/a	-999	5	[0, 0, 0]	n/a	FR1	1	R1171M
889.822	10.428	898769	COUNTDOWN_START	n/a	n/a	n/a	-999	5	[0, 0, 0]	n/a	FR1	1	R1171M
900.25	0.008	909197	COUNTDOWN_END	n/a	n/a	n/a	-999	5	[0, 0, 0]	n/a	FR1	1	R1171M
900.258	1.617	909205	ORIENT	n/a	n/a	n/a	-999	5	[0, 0, 0]	n/a	FR1	1	R1171M
901.875	2.234	910821	ORIENT_OFF	n/a	n/a	n/a	-999	5	[0, 0, 0]	n/a	FR1	1	R1171M
904.109	1.618	913055	WORD	n/a	wordpools/wordpool_EN.txt	SKI	1	5	[0, 0, 0]	n/a	FR1	1	R1171M
905.727	0.8	914673	WORD_OFF	n/a	n/a	SKI	1	5	[0, 0, 0]	n/a	FR1	1	R1171M
906.527	1.616	915473	WORD	n/a	wordpools/wordpool_EN.txt	FENCE	2	5	[0, 0, 0]	n/a	FR1	1	R1171M
908.143	0.8	917089	WORD_OFF	n/a	n/a	FENCE	2	5	[0, 0, 0]	n/a	FR1	1	R1171M
908.943	1.618	917889	WORD	n/a	wordpools/wordpool_EN.txt	BARN	3	5	[0, 0, 0]	n/a	FR1	1	R1171M
910.561	0.866	919507	WORD_OFF	n/a	n/a	BARN	3	5	[0, 0, 0]	n/a	FR1	1	R1171M
911.427	1.617	920373	WORD	n/a	wordpools/wordpool_EN.txt	HEN	4	5	[0, 0, 0]	n/a	FR1	1	R1171M
913.044	0.85	921990	WORD_OFF	n/a	n/a	HEN	4	5	[0, 0, 0]	n/a	FR1	1	R1171M
913.894	1.618	922840	WORD	n/a	wordpools/wordpool_EN.txt	HOUSE	5	5	[0, 0, 0]	n/a	FR1	1	R1171M
915.512	0.799	924458	WORD_OFF	n/a	n/a	HOUSE	5	5	[0, 0, 0]	n/a	FR1	1	R1171M
916.311	1.617	925257	WORD	n/a	wordpools/wordpool_EN.txt	PALM	6	5	[0, 0, 0]	n/a	FR1	1	R1171M
917.928	0.885	926874	WORD_OFF	n/a	n/a	PALM	6	5	[0, 0, 0]	n/a	FR1	1	R1171M
918.813	1.616	927758	WORD	n/a	wordpools/wordpool_EN.txt	SUN	7	5	[0, 0, 0]	n/a	FR1	1	R1171M
920.429	0.883	929374	WORD_OFF	n/a	n/a	SUN	7	5	[0, 0, 0]	n/a	FR1	1	R1171M
921.312	1.617	930257	WORD	n/a	wordpools/wordpool_EN.txt	STRING	8	5	[0, 0, 0]	n/a	FR1	1	R1171M
922.929	0.983	931874	WORD_OFF	n/a	n/a	STRING	8	5	[0, 0, 0]	n/a	FR1	1	R1171M
923.912	1.602	932857	WORD	n/a	wordpools/wordpool_EN.txt	ELF	9	5	[0, 0, 0]	n/a	FR1	1	R1171M
925.514	0.899	934459	WORD_OFF	n/a	n/a	ELF	9	5	[0, 0, 0]	n/a	FR1	1	R1171M
926.413	1.617	935358	WORD	n/a	wordpools/wordpool_EN.txt	CLAY	10	5	[0, 0, 0]	n/a	FR1	1	R1171M
928.03	0.917	936975	WORD_OFF	n/a	n/a	CLAY	10	5	[0, 0, 0]	n/a	FR1	1	R1171M
928.947	1.618	937892	WORD	n/a	wordpools/wordpool_EN.txt	FORT	11	5	[0, 0, 0]	n/a	FR1	1	R1171M
930.565	0.866	939510	WORD_OFF	n/a	n/a	FORT	11	5	[0, 0, 0]	n/a	FR1	1	R1171M
931.431	1.616	940376	WORD	n/a	wordpools/wordpool_EN.txt	CAT	12	5	[0, 0, 0]	n/a	FR1	1	R1171M
933.047	0.0	941992	WORD_OFF	n/a	n/a	CAT	12	5	[0, 0, 0]	n/a	FR1	1	R1171M
933.047	0.001	941992	DISTRACT_START	n/a	n/a	n/a	-999	5	[0, 0, 0]	n/a	FR1	1	R1171M
933.048	0.016	941993	START	n/a	n/a	n/a	-999	5	[-999, -999, -999]	n/a	FR1	1	R1171M
933.064	7.753	942009	PROB	7.753	n/a	n/a	-999	5	[7, 4, 9]	20	FR1	1	R1171M
940.817	4.3	949761	PROB	4.3	n/a	n/a	-999	5	[5, 3, 2]	10	FR1	1	R1171M
945.117	2.95	954061	PROB	2.95	n/a	n/a	-999	5	[5, 2, 2]	9	FR1	1	R1171M
948.067	11.418	957011	PROB	11.418	n/a	n/a	-999	5	[8, 2, 5]	15	FR1	1	R1171M
959.485	0.019	968428	STOP	n/a	n/a	n/a	-999	5	[-999, -999, -999]	n/a	FR1	1	R1171M
959.504	0.632	968447	DISTRACT_END	n/a	n/a	n/a	-999	5	[0, 0, 0]	n/a	FR1	1	R1171M
960.136	0.519	969079	RETRIEVAL_ORIENT	n/a	n/a	n/a	-999	5	[0, 0, 0]	n/a	FR1	1	R1171M
960.655	1.77	969598	REC_START	n/a	n/a	n/a	-999	5	[0, 0, 0]	n/a	FR1	1	R1171M
962.425	2.017	971368	REC_WORD_VV	2.017	n/a	<>	-999	5	[0, 0, 0]	n/a	FR1	1	R1171M
964.442	1.166	973385	REC_WORD	1.166	n/a	SKI	1	5	[0, 0, 0]	n/a	FR1	1	R1171M
965.608	1.474	974551	REC_WORD	1.474	n/a	FENCE	2	5	[0, 0, 0]	n/a	FR1	1	R1171M
967.082	1.235	976025	REC_WORD	1.235	n/a	BARN	3	5	[0, 0, 0]	n/a	FR1	1	R1171M
968.317	2.429	977260	REC_WORD_VV	2.429	n/a	<>	-999	5	[0, 0, 0]	n/a	FR1	1	R1171M
970.746	2.409	979689	REC_WORD	2.409	n/a	HOUSE	5	5	[0, 0, 0]	n/a	FR1	1	R1171M
973.155	0.997	982097	REC_WORD_VV	0.997	n/a	<>	-999	5	[0, 0, 0]	n/a	FR1	1	R1171M
974.152	1.657	983094	REC_WORD_VV	1.657	n/a	<>	-999	5	[0, 0, 0]	n/a	FR1	1	R1171M
975.809	2.545	984751	REC_WORD_VV	2.545	n/a	<>	-999	5	[0, 0, 0]	n/a	FR1	1	R1171M
978.354	1.007	987296	REC_WORD_VV	1.007	n/a	<>	-999	5	[0, 0, 0]	n/a	FR1	1	R1171M
979.361	8.139	988303	REC_WORD_VV	8.139	n/a	<>	-999	5	[0, 0, 0]	n/a	FR1	1	R1171M
987.5	3.167	996442	REC_WORD_VV	3.167	n/a	<>	-999	5	[0, 0, 0]	n/a	FR1	1	R1171M
990.667	3.994	999608	REC_END	n/a	n/a	n/a	-999	5	[0, 0, 0]	n/a	FR1	1	R1171M
994.661	0.5	1003602	TRIAL	n/a	n/a	n/a	-999	6	[0, 0, 0]	n/a	FR1	1	R1171M
995.161	10.428	1004102	COUNTDOWN_START	n/a	n/a	n/a	-999	6	[0, 0, 0]	n/a	FR1	1	R1171M
1005.589	0.007	1014530	COUNTDOWN_END	n/a	n/a	n/a	-999	6	[0, 0, 0]	n/a	FR1	1	R1171M
1005.596	1.616	1014537	ORIENT	n/a	n/a	n/a	-999	6	[0, 0, 0]	n/a	FR1	1	R1171M
1007.212	2.151	1016152	ORIENT_OFF	n/a	n/a	n/a	-999	6	[0, 0, 0]	n/a	FR1	1	R1171M
1009.363	1.616	1018303	WORD	n/a	wordpools/wordpool_EN.txt	CART	1	6	[0, 0, 0]	n/a	FR1	1	R1171M
1010.979	0.967	1019919	WORD_OFF	n/a	n/a	CART	1	6	[0, 0, 0]	n/a	FR1	1	R1171M
1011.946	1.618	1020886	WORD	n/a	wordpools/wordpool_EN.txt	TOAD	2	6	[0, 0, 0]	n/a	FR1	1	R1171M
1013.564	0.783	1022504	WORD_OFF	n/a	n/a	TOAD	2	6	[0, 0, 0]	n/a	FR1	1	R1171M
1014.347	1.617	1023287	WORD	n/a	wordpools/wordpool_EN.txt	GATE	3	6	[0, 0, 0]	n/a	FR1	1	R1171M
1015.964	0.867	1024904	WORD_OFF	n/a	n/a	GATE	3	6	[0, 0, 0]	n/a	FR1	1	R1171M
1016.831	1.618	1025771	WORD	n/a	wordpools/wordpool_EN.txt	WALL	4	6	[0, 0, 0]	n/a	FR1	1	R1171M
1018.449	0.865	1027389	WORD_OFF	n/a	n/a	WALL	4	6	[0, 0, 0]	n/a	FR1	1	R1171M
1019.314	1.617	1028254	WORD	n/a	wordpools/wordpool_EN.txt	PEACH	5	6	[0, 0, 0]	n/a	FR1	1	R1171M
1020.931	0.984	1029871	WORD_OFF	n/a	n/a	PEACH	5	6	[0, 0, 0]	n/a	FR1	1	R1171M
1021.915	1.618	1030855	WORD	n/a	wordpools/wordpool_EN.txt	WORM	6	6	[0, 0, 0]	n/a	FR1	1	R1171M
1023.533	0.849	1032473	WORD_OFF	n/a	n/a	WORM	6	6	[0, 0, 0]	n/a	FR1	1	R1171M
1024.382	1.617	1033321	WORD	n/a	wordpools/wordpool_EN.txt	PET	7	6	[0, 0, 0]	n/a	FR1	1	R1171M
1025.999	0.801	1034938	WORD_OFF	n/a	n/a	PET	7	6	[0, 0, 0]	n/a	FR1	1	R1171M
1026.8	1.616	1035739	WORD	n/a	wordpools/wordpool_EN.txt	WORLD	8	6	[0, 0, 0]	n/a	FR1	1	R1171M
1028.416	1.0	1037355	WORD_OFF	n/a	n/a	WORLD	8	6	[0, 0, 0]	n/a	FR1	1	R1171M
1029.416	1.617	1038355	WORD	n/a	wordpools/wordpool_EN.txt	VEST	9	6	[0, 0, 0]	n/a	FR1	1	R1171M
1031.033	1.017	1039972	WORD_OFF	n/a	n/a	VEST	9	6	[0, 0, 0]	n/a	FR1	1	R1171M
1032.05	1.618	1040989	WORD	n/a	wordpools/wordpool_EN.txt	HAT	10	6	[0, 0, 0]	n/a	FR1	1	R1171M
1033.668	0.984	1042607	WORD_OFF	n/a	n/a	HAT	10	6	[0, 0, 0]	n/a	FR1	1	R1171M
1034.652	1.616	1043591	WORD	n/a	wordpools/wordpool_EN.txt	BAG	11	6	[0, 0, 0]	n/a	FR1	1	R1171M
1036.268	0.833	1045207	WORD_OFF	n/a	n/a	BAG	11	6	[0, 0, 0]	n/a	FR1	1	R1171M
1037.101	1.618	1046040	WORD	n/a	wordpools/wordpool_EN.txt	HILL	12	6	[0, 0, 0]	n/a	FR1	1	R1171M
1038.719	0.0	1047658	WORD_OFF	n/a	n/a	HILL	12	6	[0, 0, 0]	n/a	FR1	1	R1171M
1038.719	0.001	1047658	DISTRACT_START	n/a	n/a	n/a	-999	6	[0, 0, 0]	n/a	FR1	1	R1171M
1038.72	0.016	1047659	START	n/a	n/a	n/a	-999	6	[-999, -999, -999]	n/a	FR1	1	R1171M
1038.736	6.935	1047675	PROB	6.935	n/a	n/a	-999	6	[4, 1, 7]	12	FR1	1	R1171M
1045.671	17.733	1054609	PROB	17.733	n/a	n/a	-999	6	[4, 2, 9]	15	FR1	1	R1171M
1063.404	0.019	1072341	STOP	n/a	n/a	n/a	-999	6	[-999, -999, -999]	n/a	FR1	1	R1171M
1063.423	0.533	1072360	DISTRACT_END	n/a	n/a	n/a	-999	6	[0, 0, 0]	n/a	FR1	1	R1171M
1063.956	0.519	1072893	RETRIEVAL_ORIENT	n/a	n/a	n/a	-999	6	[0, 0, 0]	n/a	FR1	1	R1171M
1064.475	4.739	1073412	REC_START	n/a	n/a	n/a	-999	6	[0, 0, 0]	n/a	FR1	1	R1171M
1069.214	1.572	1078151	REC_WORD	1.572	n/a	PET	7	6	[0, 0, 0]	n/a	FR1	1	R1171M
1070.786	1.848	1079723	REC_WORD	1.848	n/a	VEST	9	6	[0, 0, 0]	n/a	FR1	1	R1171M
1072.634	4.157	1081571	REC_WORD	4.157	n/a	VEST	9	6	[0, 0, 0]	n/a	FR1	1	R1171M
1076.791	3.62	1085728	REC_WORD_VV	3.62	n/a	<>	-999	6	[0, 0, 0]	n/a	FR1	1	R1171M
1080.411	0.391	1089347	REC_WORD	0.391	n/a	PET	7	6	[0, 0, 0]	n/a	FR1	1	R1171M
1080.802	2.095	1089738	REC_WORD	2.095	n/a	VEST	9	6	[0, 0, 0]	n/a	FR1	1	R1171M
1082.897	2.046	1091833	REC_WORD_VV	2.046	n/a	<>	-999	6	[0, 0, 0]	n/a	FR1	1	R1171M
1084.943	0.988	1093879	REC_WORD_VV	0.988	n/a	<>	-999	6	[0, 0, 0]	n/a	FR1	1	R1171M
1085.931	3.72	1094867	REC_WORD_VV	3.72	n/a	<>	-999	6	[0, 0, 0]	n/a	FR1	1	R1171M
1089.651	1.224	1098587	REC_WORD_VV	1.224	n/a	<>	-999	6	[0, 0, 0]	n/a	FR1	1	R1171M
1090.875	1.519	1099811	REC_WORD_VV	1.519	n/a	<>	-999	6	[0, 0, 0]	n/a	FR1	1	R1171M
1092.394	2.093	1101330	REC_WORD_VV	2.093	n/a	<>	-999	6	[0, 0, 0]	n/a	FR1	1	R1171M
1094.487	24.965	1103422	REC_END	n/a	n/a	n/a	-999	6	[0, 0, 0]	n/a	FR1	1	R1171M
1119.452	0.5	1128386	TRIAL	n/a	n/a	n/a	-999	7	[0, 0, 0]	n/a	FR1	1	R1171M
1119.952	10.428	1128886	COUNTDOWN_START	n/a	n/a	n/a	-999	7	[0, 0, 0]	n/a	FR1	1	R1171M
1130.38	0.006	1139313	COUNTDOWN_END	n/a	n/a	n/a	-999	7	[0, 0, 0]	n/a	FR1	1	R1171M
1130.386	1.617	1139319	ORIENT	n/a	n/a	n/a	-999	7	[0, 0, 0]	n/a	FR1	1	R1171M
1132.003	2.084	1140936	ORIENT_OFF	n/a	n/a	n/a	-999	7	[0, 0, 0]	n/a	FR1	1	R1171M
1134.087	1.618	1143020	WORD	n/a	wordpools/wordpool_EN.txt	DESK	1	7	[0, 0, 0]	n/a	FR1	1	R1171M
1135.705	0.816	1144638	WORD_OFF	n/a	n/a	DESK	1	7	[0, 0, 0]	n/a	FR1	1	R1171M
1136.521	1.617	1145454	WORD	n/a	wordpools/wordpool_EN.txt	DUCK	2	7	[0, 0, 0]	n/a	FR1	1	R1171M
1138.138	0.916	1147071	WORD_OFF	n/a	n/a	DUCK	2	7	[0, 0, 0]	n/a	FR1	1	R1171M
1139.054	1.602	1147987	WORD	n/a	wordpools/wordpool_EN.txt	MOTH	3	7	[0, 0, 0]	n/a	FR1	1	R1171M
1140.656	0.883	1149589	WORD_OFF	n/a	n/a	MOTH	3	7	[0, 0, 0]	n/a	FR1	1	R1171M
1141.539	1.616	1150472	WORD	n/a	wordpools/wordpool_EN.txt	SWAMP	4	7	[0, 0, 0]	n/a	FR1	1	R1171M
1143.155	0.767	1152088	WORD_OFF	n/a	n/a	SWAMP	4	7	[0, 0, 0]	n/a	FR1	1	R1171M
1143.922	1.618	1152855	WORD	n/a	wordpools/wordpool_EN.txt	SLIME	5	7	[0, 0, 0]	n/a	FR1	1	R1171M
1145.54	1.0	1154473	WORD_OFF	n/a	n/a	SLIME	5	7	[0, 0, 0]	n/a	FR1	1	R1171M
1146.54	1.616	1155473	WORD	n/a	wordpools/wordpool_EN.txt	JEEP	6	7	[0, 0, 0]	n/a	FR1	1	R1171M
1148.156	0.8	1157088	WORD_OFF	n/a	n/a	JEEP	6	7	[0, 0, 0]	n/a	FR1	1	R1171M
1148.956	1.601	1157888	WORD	n/a	wordpools/wordpool_EN.txt	STRAW	7	7	[0, 0, 0]	n/a	FR1	1	R1171M
1150.557	0.918	1159489	WORD_OFF	n/a	n/a	STRAW	7	7	[0, 0, 0]	n/a	FR1	1	R1171M
1151.475	1.615	1160407	WORD	n/a	wordpools/wordpool_EN.txt	BOAT	8	7	[0, 0, 0]	n/a	FR1	1	R1171M
1153.09	0.817	1162022	WORD_OFF	n/a	n/a	BOAT	8	7	[0, 0, 0]	n/a	FR1	1	R1171M
1153.907	1.618	1162839	WORD	n/a	wordpools/wordpool_EN.txt	SQUARE	9	7	[0, 0, 0]	n/a	FR1	1	R1171M
1155.525	0.799	1164457	WORD_OFF	n/a	n/a	SQUARE	9	7	[0, 0, 0]	n/a	FR1	1	R1171M
1156.324	1.617	1165256	WORD	n/a	wordpools/wordpool_EN.txt	FLAME	10	7	[0, 0, 0]	n/a	FR1	1	R1171M
1157.941	0.984	1166873	WORD_OFF	n/a	n/a	FLAME	10	7	[0, 0, 0]	n/a	FR1	1	R1171M
1158.925	1.601	1167857	WORD	n/a	wordpools/wordpool_EN.txt	SLEEVE	11	7	[0, 0, 0]	n/a	FR1	1	R1171M
1160.526	0.766	1169458	WORD_OFF	n/a	n/a	SLEEVE	11	7	[0, 0, 0]	n/a	FR1	1	R1171M
1161.292	1.617	1170224	WORD	n/a	wordpools/wordpool_EN.txt	BRICK	12	7	[0, 0, 0]	n/a	FR1	1	R1171M
1162.909	0.0	1171841	WORD_OFF	n/a	n/a	BRICK	12	7	[0, 0, 0]	n/a	FR1	1	R1171M
1162.909	0.001	1171841	DISTRACT_START	n/a	n/a	n/a	-999	7	[0, 0, 0]	n/a	FR1	1	R1171M
1162.91	0.016	1171842	START	n/a	n/a	n/a	-999	7	[-999, -999, -999]	n/a	FR1	1	R1171M
1162.926	3.818	1171858	PROB	3.818	n/a	n/a	-999	7	[1, 3, 5]	9	FR1	1	R1171M
1166.744	7.035	1175675	PROB	7.035	n/a	n/a	-999	7	[3, 3, 7]	13	FR1	1	R1171M
1173.779	4.466	1182710	PROB	4.466	n/a	n/a	-999	7	[1, 7, 4]	12	FR1	1	R1171M
1178.245	6.312	1187176	PROB	6.312	n/a	n/a	-999	7	[2, 3, 6]	11	FR1	1	R1171M
1184.557	0.007	1193487	STOP	n/a	n/a	n/a	-999	7	[-999, -999, -999]	n/a	FR1	1	R1171M
1184.564	0.633	1193494	DISTRACT_END	n/a	n/a	n/a	-999	7	[0, 0, 0]	n/a	FR1	1	R1171M
1185.197	0.518	1194127	RETRIEVAL_ORIENT	n/a	n/a	n/a	-999	7	[0, 0, 0]	n/a	FR1	1	R1171M
1185.715	0.1	1194645	REC_START	n/a	n/a	n/a	-999	7	[0, 0, 0]	n/a	FR1	1	R1171M
1185.815	1.84	1194745	REC_WORD_VV	1.84	n/a	<>	-999	7	[0, 0, 0]	n/a	FR1	1	R1171M
1187.655	1.108	1196585	REC_WORD_VV	1.108	n/a	<>	-999	7	[0, 0, 0]	n/a	FR1	1	R1171M
1188.763	1.986	1197693	REC_WORD_VV	1.986	n/a	<>	-999	7	[0, 0, 0]	n/a	FR1	1	R1171M
1190.749	0.658	1199679	REC_WORD_VV	0.658	n/a	<>	-999	7	[0, 0, 0]	n/a	FR1	1	R1171M
1191.407	1.517	1200337	REC_WORD	1.517	n/a	DESK	1	7	[0, 0, 0]	n/a	FR1	1	R1171M
1192.924	1.217	1201854	REC_WORD	1.217	n/a	DUCK	2	7	[0, 0, 0]	n/a	FR1	1	R1171M
1194.141	1.0	1203071	REC_WORD	1.0	n/a	SLEEVE	11	7	[0, 0, 0]	n/a	FR1	1	R1171M
1195.141	2.214	1204071	REC_WORD_VV	2.214	n/a	<>	-999	7	[0, 0, 0]	n/a	FR1	1	R1171M
1197.355	5.729	1206285	REC_WORD_VV	5.729	n/a	<>	-999	7	[0, 0, 0]	n/a	FR1	1	R1171M
1203.084	0.999	1212013	REC_WORD_VV	0.999	n/a	<>	-999	7	[0, 0, 0]	n/a	FR1	1	R1171M
1204.083	0.997	1213012	REC_WORD_VV	0.997	n/a	<>	-999	7	[0, 0, 0]	n/a	FR1	1	R1171M
1205.08	1.653	1214009	REC_WORD_VV	1.653	n/a	<>	-999	7	[0, 0, 0]	n/a	FR1	1	R1171M
1206.733	1.0	1215662	REC_WORD_VV	1.0	n/a	<>	-999	7	[0, 0, 0]	n/a	FR1	1	R1171M
1207.733	5.404	1216662	REC_WORD_VV	5.404	n/a	<>	-999	7	[0, 0, 0]	n/a	FR1	1	R1171M
1213.137	1.0	1222066	REC_WORD_VV	1.0	n/a	<>	-999	7	[0, 0, 0]	n/a	FR1	1	R1171M
1214.137	1.0	1223066	REC_WORD_VV	1.0	n/a	<>	-999	7	[0, 0, 0]	n/a	FR1	1	R1171M
1215.137	0.589	1224066	REC_WORD_VV	0.589	n/a	<>	-999	7	[0, 0, 0]	n/a	FR1	1	R1171M
1215.726	23.049	1224655	REC_END	n/a	n/a	n/a	-999	7	[0, 0, 0]	n/a	FR1	1	R1171M
1238.775	0.5	1247702	TRIAL	n/a	n/a	n/a	-999	8	[0, 0, 0]	n/a	FR1	1	R1171M
1239.275	10.428	1248202	COUNTDOWN_START	n/a	n/a	n/a	-999	8	[0, 0, 0]	n/a	FR1	1	R1171M
1249.703	0.007	1258630	COUNTDOWN_END	n/a	n/a	n/a	-999	8	[0, 0, 0]	n/a	FR1	1	R1171M
1249.71	1.616	1258637	ORIENT	n/a	n/a	n/a	-999	8	[0, 0, 0]	n/a	FR1	1	R1171M
1251.326	1.951	1260253	ORIENT_OFF	n/a	n/a	n/a	-999	8	[0, 0, 0]	n/a	FR1	1	R1171M
1253.277	1.617	1262203	WORD	n/a	wordpools/wordpool_EN.txt	LAKE	1	8	[0, 0, 0]	n/a	FR1	1	R1171M
1254.894	0.933	1263820	WORD_OFF	n/a	n/a	LAKE	1	8	[0, 0, 0]	n/a	FR1	1	R1171M
1255.827	1.617	1264753	WORD	n/a	wordpools/wordpool_EN.txt	PHONE	2	8	[0, 0, 0]	n/a	FR1	1	R1171M
1257.444	0.95	1266370	WORD_OFF	n/a	n/a	PHONE	2	8	[0, 0, 0]	n/a	FR1	1	R1171M
1258.394	1.617	1267320	WORD	n/a	wordpools/wordpool_EN.txt	JUDGE	3	8	[0, 0, 0]	n/a	FR1	1	R1171M
1260.011	0.95	1268937	WORD_OFF	n/a	n/a	JUDGE	3	8	[0, 0, 0]	n/a	FR1	1	R1171M
1260.961	1.602	1269887	WORD	n/a	wordpools/wordpool_EN.txt	MAP	4	8	[0, 0, 0]	n/a	FR1	1	R1171M
1262.563	0.866	1271489	WORD_OFF	n/a	n/a	MAP	4	8	[0, 0, 0]	n/a	FR1	1	R1171M
1263.429	1.617	1272355	WORD	n/a	wordpools/wordpool_EN.txt	HOOF	5	8	[0, 0, 0]	n/a	FR1	1	R1171M
1265.046	0.783	1273972	WORD_OFF	n/a	n/a	HOOF	5	8	[0, 0, 0]	n/a	FR1	1	R1171M
1265.829	1.617	1274755	WORD	n/a	wordpools/wordpool_EN.txt	SEA	6	8	[0, 0, 0]	n/a	FR1	1	R1171M
1267.446	0.967	1276372	WORD_OFF	n/a	n/a	SEA	6	8	[0, 0, 0]	n/a	FR1	1	R1171M
1268.413	1.617	1277339	WORD	n/a	wordpools/wordpool_EN.txt	FRUIT	7	8	[0, 0, 0]	n/a	FR1	1	R1171M
1270.03	0.917	1278956	WORD_OFF	n/a	n/a	FRUIT	7	8	[0, 0, 0]	n/a	FR1	1	R1171M
1270.947	1.618	1279872	WORD	n/a	wordpools/wordpool_EN.txt	SHEET	8	8	[0, 0, 0]	n/a	FR1	1	R1171M
1272.565	0.799	1281490	WORD_OFF	n/a	n/a	SHEET	8	8	[0, 0, 0]	n/a	FR1	1	R1171M
1273.364	1.617	1282289	WORD	n/a	wordpools/wordpool_EN.txt	PEARL	9	8	[0, 0, 0]	n/a	FR1	1	R1171M
1274.981	0.867	1283906	WORD_OFF	n/a	n/a	PEARL	9	8	[0, 0, 0]	n/a	FR1	1	R1171M
1275.848	1.618	1284773	WORD	n/a	wordpools/wordpool_EN.txt	SHELL	10	8	[0, 0, 0]	n/a	FR1	1	R1171M
1277.466	0.766	1286391	WORD_OFF	n/a	n/a	SHELL	10	8	[0, 0, 0]	n/a	FR1	1	R1171M
1278.232	1.617	1287157	WORD	n/a	wordpools/wordpool_EN.txt	FILM	11	8	[0, 0, 0]	n/a	FR1	1	R1171M
1279.849	0.967	1288774	WORD_OFF	n/a	n/a	FILM	11	8	[0, 0, 0]	n/a	FR1	1	R1171M
1280.816	1.616	1289741	WORD	n/a	wordpools/wordpool_EN.txt	POND	12	8	[0, 0, 0]	n/a	FR1	1	R1171M
1282.432	0.0	1291357	WORD_OFF	n/a	n/a	POND	12	8	[0, 0, 0]	n/a	FR1	1	R1171M
1282.432	0.001	1291357	DISTRACT_START	n/a	n/a	n/a	-999	8	[0, 0, 0]	n/a	FR1	1	R1171M
1282.433	0.017	1291358	START	n/a	n/a	n/a	-999	8	[-999, -999, -999]	n/a	FR1	1	R1171M
1282.45	11.019	1291375	PROB	11.019	n/a	n/a	-999	8	[1, 4, 1]	6	FR1	1	R1171M
1293.469	4.716	1302393	PROB	4.716	n/a	n/a	-999	8	[4, 3, 4]	11	FR1	1	R1171M
1298.185	6.476	1307109	PROB	6.476	n/a	n/a	-999	8	[3, 2, 5]	10	FR1	1	R1171M
1304.661	0.01	1313585	STOP	n/a	n/a	n/a	-999	8	[-999, -999, -999]	n/a	FR1	1	R1171M
1304.671	0.649	1313595	DISTRACT_END	n/a	n/a	n/a	-999	8	[0, 0, 0]	n/a	FR1	1	R1171M
1305.32	0.518	1314244	RETRIEVAL_ORIENT	n/a	n/a	n/a	-999	8	[0, 0, 0]	n/a	FR1	1	R1171M
1305.838	1.071	1314761	REC_START	n/a	n/a	n/a	-999	8	[0, 0, 0]	n/a	FR1	1	R1171M
1306.909	1.4	1315832	REC_WORD_VV	1.4	n/a	<>	-999	8	[0, 0, 0]	n/a	FR1	1	R1171M
1308.309	1.073	1317232	REC_WORD	1.073	n/a	POND	12	8	[0, 0, 0]	n/a	FR1	1	R1171M
1309.382	0.91	1318305	REC_WORD	0.91	n/a	HOOF	5	8	[0, 0, 0]	n/a	FR1	1	R1171M
1310.292	1.405	1319215	REC_WORD	1.405	n/a	SEA	6	8	[0, 0, 0]	n/a	FR1	1	R1171M
1311.697	4.261	1320620	REC_WORD_VV	4.261	n/a	<>	-999	8	[0, 0, 0]	n/a	FR1	1	R1171M
1315.958	1.001	1324881	REC_WORD_VV	1.001	n/a	<>	-999	8	[0, 0, 0]	n/a	FR1	1	R1171M
1316.959	1.204	1325882	REC_WORD_VV	1.204	n/a	<>	-999	8	[0, 0, 0]	n/a	FR1	1	R1171M
1318.163	1.169	1327086	REC_WORD_VV	1.169	n/a	<>	-999	8	[0, 0, 0]	n/a	FR1	1	R1171M
1319.332	2.51	1328255	REC_WORD_VV	2.51	n/a	<>	-999	8	[0, 0, 0]	n/a	FR1	1	R1171M
1321.842	0.996	1330765	REC_WORD_VV	0.996	n/a	<>	-999	8	[0, 0, 0]	n/a	FR1	1	R1171M
1322.838	2.911	1331761	REC_WORD_VV	2.911	n/a	<>	-999	8	[0, 0, 0]	n/a	FR1	1	R1171M
1325.749	2.062	1334671	REC_WORD_VV	2.062	n/a	<>	-999	8	[0, 0, 0]	n/a	FR1	1	R1171M
1327.811	1.0	1336733	REC_WORD_VV	1.0	n/a	<>	-999	8	[0, 0, 0]	n/a	FR1	1	R1171M
1328.811	7.036	1337733	REC_WORD_VV	7.036	n/a	<>	-999	8	[0, 0, 0]	n/a	FR1	1	R1171M
1335.847	35.069	1344769	REC_END	n/a	n/a	n/a	-999	8	[0, 0, 0]	n/a	FR1	1	R1171M
1370.916	0.5	1379836	TRIAL	n/a	n/a	n/a	-999	9	[0, 0, 0]	n/a	FR1	1	R1171M
1371.416	10.428	1380336	COUNTDOWN_START	n/a	n/a	n/a	-999	9	[0, 0, 0]	n/a	FR1	1	R1171M
1381.844	0.008	1390763	COUNTDOWN_END	n/a	n/a	n/a	-999	9	[0, 0, 0]	n/a	FR1	1	R1171M
1381.852	1.618	1390771	ORIENT	n/a	n/a	n/a	-999	9	[0, 0, 0]	n/a	FR1	1	R1171M
1383.47	2.317	1392389	ORIENT_OFF	n/a	n/a	n/a	-999	9	[0, 0, 0]	n/a	FR1	1	R1171M
1385.787	1.616	1394706	WORD	n/a	wordpools/wordpool_EN.txt	HAND	1	9	[0, 0, 0]	n/a	FR1	1	R1171M
1387.403	0.817	1396322	WORD_OFF	n/a	n/a	HAND	1	9	[0, 0, 0]	n/a	FR1	1	R1171M
1388.22	1.617	1397139	WORD	n/a	wordpools/wordpool_EN.txt	BLUSH	2	9	[0, 0, 0]	n/a	FR1	1	R1171M
1389.837	0.767	1398756	WORD_OFF	n/a	n/a	BLUSH	2	9	[0, 0, 0]	n/a	FR1	1	R1171M
1390.604	1.616	1399523	WORD	n/a	wordpools/wordpool_EN.txt	SPEAR	3	9	[0, 0, 0]	n/a	FR1	1	R1171M
1392.22	0.767	1401139	WORD_OFF	n/a	n/a	SPEAR	3	9	[0, 0, 0]	n/a	FR1	1	R1171M
1392.987	1.601	1401906	WORD	n/a	wordpools/wordpool_EN.txt	PIN	4	9	[0, 0, 0]	n/a	FR1	1	R1171M
1394.588	0.766	1403506	WORD_OFF	n/a	n/a	PIN	4	9	[0, 0, 0]	n/a	FR1	1	R1171M
1395.354	1.617	1404272	WORD	n/a	wordpools/wordpool_EN.txt	FACE	5	9	[0, 0, 0]	n/a	FR1	1	R1171M
1396.971	0.785	1405889	WORD_OFF	n/a	n/a	FACE	5	9	[0, 0, 0]	n/a	FR1	1	R1171M
1397.756	1.616	1406674	WORD	n/a	wordpools/wordpool_EN.txt	LAWN	6	9	[0, 0, 0]	n/a	FR1	1	R1171M
1399.372	0.783	1408290	WORD_OFF	n/a	n/a	LAWN	6	9	[0, 0, 0]	n/a	FR1	1	R1171M
1400.155	1.618	1409073	WORD	n/a	wordpools/wordpool_EN.txt	SWORD	7	9	[0, 0, 0]	n/a	FR1	1	R1171M
1401.773	0.917	1410691	WORD_OFF	n/a	n/a	SWORD	7	9	[0, 0, 0]	n/a	FR1	1	R1171M
1402.69	1.616	1411608	WORD	n/a	wordpools/wordpool_EN.txt	BLOOM	8	9	[0, 0, 0]	n/a	FR1	1	R1171M
1404.306	0.867	1413224	WORD_OFF	n/a	n/a	BLOOM	8	9	[0, 0, 0]	n/a	FR1	1	R1171M
1405.173	1.618	1414091	WORD	n/a	wordpools/wordpool_EN.txt	CROWN	9	9	[0, 0, 0]	n/a	FR1	1	R1171M
1406.791	0.933	1415709	WORD_OFF	n/a	n/a	CROWN	9	9	[0, 0, 0]	n/a	FR1	1	R1171M
1407.724	1.616	1416642	WORD	n/a	wordpools/wordpool_EN.txt	STONE	10	9	[0, 0, 0]	n/a	FR1	1	R1171M
1409.34	0.834	1418258	WORD_OFF	n/a	n/a	STONE	10	9	[0, 0, 0]	n/a	FR1	1	R1171M
1410.174	1.618	1419092	WORD	n/a	wordpools/wordpool_EN.txt	WING	11	9	[0, 0, 0]	n/a	FR1	1	R1171M
1411.792	0.933	1420709	WORD_OFF	n/a	n/a	WING	11	9	[0, 0, 0]	n/a	FR1	1	R1171M
1412.725	1.616	1421642	WORD	n/a	wordpools/wordpool_EN.txt	PRINCE	12	9	[0, 0, 0]	n/a	FR1	1	R1171M
1414.341	0.0	1423258	WORD_OFF	n/a	n/a	PRINCE	12	9	[0, 0, 0]	n/a	FR1	1	R1171M
1414.341	0.001	1423258	DISTRACT_START	n/a	n/a	n/a	-999	9	[0, 0, 0]	n/a	FR1	1	R1171M
1414.342	0.016	1423259	START	n/a	n/a	n/a	-999	9	[-999, -999, -999]	n/a	FR1	1	R1171M
1414.358	11.153	1423275	PROB	11.153	n/a	n/a	-999	9	[6, 4, 8]	18	FR1	1	R1171M
1425.511	6.085	1434428	PROB	6.085	n/a	n/a	-999	9	[6, 5, 8]	19	FR1	1	R1171M
1431.596	4.791	1440512	PROB	4.791	n/a	n/a	-999	9	[9, 4, 2]	15	FR1	1	R1171M
1436.387	0.009	1445303	STOP	n/a	n/a	n/a	-999	9	[-999, -999, -999]	n/a	FR1	1	R1171M
1436.396	0.55	1445312	DISTRACT_END	n/a	n/a	n/a	-999	9	[0, 0, 0]	n/a	FR1	1	R1171M
1436.946	0.518	1445862	RETRIEVAL_ORIENT	n/a	n/a	n/a	-999	9	[0, 0, 0]	n/a	FR1	1	R1171M
1437.464	2.04	1446380	REC_START	n/a	n/a	n/a	-999	9	[0, 0, 0]	n/a	FR1	1	R1171M
1439.504	1.206	1448420	REC_WORD	1.206	n/a	WING	11	9	[0, 0, 0]	n/a	FR1	1	R1171M
1440.71	1.411	1449626	REC_WORD_VV	1.411	n/a	<>	-999	9	[0, 0, 0]	n/a	FR1	1	R1171M
1442.121	1.243	1451037	REC_WORD	1.243	n/a	FACE	5	9	[0, 0, 0]	n/a	FR1	1	R1171M
1443.364	3.998	1452280	REC_WORD	3.998	n/a	FENCE	-999	9	[0, 0, 0]	n/a	FR1	1	R1171M
1447.362	1.0	1456277	REC_WORD_VV	1.0	n/a	<>	-999	9	[0, 0, 0]	n/a	FR1	1	R1171M
1448.362	1.405	1457277	REC_WORD_VV	1.405	n/a	<>	-999	9	[0, 0, 0]	n/a	FR1	1	R1171M
1449.767	2.431	1458682	REC_WORD_VV	2.431	n/a	<>	-999	9	[0, 0, 0]	n/a	FR1	1	R1171M
1452.198	3.765	1461113	REC_WORD_VV	3.765	n/a	<>	-999	9	[0, 0, 0]	n/a	FR1	1	R1171M
1455.963	9.863	1464878	REC_WORD_VV	9.863	n/a	<>	-999	9	[0, 0, 0]	n/a	FR1	1	R1171M
1465.826	1.651	1474740	REC_WORD_VV	1.651	n/a	<>	-999	9	[0, 0, 0]	n/a	FR1	1	R1171M
1467.477	28.58	1476391	REC_END	n/a	n/a	n/a	-999	9	[0, 0, 0]	n/a	FR1	1	R1171M
1496.057	0.5	1504970	TRIAL	n/a	n/a	n/a	-999	10	[0, 0, 0]	n/a	FR1	1	R1171M
1496.557	10.428	1505470	COUNTDOWN_START	n/a	n/a	n/a	-999	10	[0, 0, 0]	n/a	FR1	1	R1171M
1506.985	0.008	1515897	COUNTDOWN_END	n/a	n/a	n/a	-999	10	[0, 0, 0]	n/a	FR1	1	R1171M
1506.993	1.618	1515905	ORIENT	n/a	n/a	n/a	-999	10	[0, 0, 0]	n/a	FR1	1	R1171M
1508.611	2.067	1517523	ORIENT_OFF	n/a	n/a	n/a	-999	10	[0, 0, 0]	n/a	FR1	1	R1171M
1510.678	1.616	1519590	WORD	n/a	wordpools/wordpool_EN.txt	SHIRT	1	10	[0, 0, 0]	n/a	FR1	1	R1171M
1512.294	0.817	1521206	WORD_OFF	n/a	n/a	SHIRT	1	10	[0, 0, 0]	n/a	FR1	1	R1171M
1513.111	1.618	1522023	WORD	n/a	wordpools/wordpool_EN.txt	COW	2	10	[0, 0, 0]	n/a	FR1	1	R1171M
1514.729	0.866	1523641	WORD_OFF	n/a	n/a	COW	2	10	[0, 0, 0]	n/a	FR1	1	R1171M
1515.595	1.616	1524507	WORD	n/a	wordpools/wordpool_EN.txt	CLOTH	3	10	[0, 0, 0]	n/a	FR1	1	R1171M
1517.211	0.784	1526122	WORD_OFF	n/a	n/a	CLOTH	3	10	[0, 0, 0]	n/a	FR1	1	R1171M
1517.995	1.618	1526906	WORD	n/a	wordpools/wordpool_EN.txt	MAZE	4	10	[0, 0, 0]	n/a	FR1	1	R1171M
1519.613	0.867	1528524	WORD_OFF	n/a	n/a	MAZE	4	10	[0, 0, 0]	n/a	FR1	1	R1171M
1520.48	1.616	1529391	WORD	n/a	wordpools/wordpool_EN.txt	TRASH	5	10	[0, 0, 0]	n/a	FR1	1	R1171M
1522.096	0.9	1531007	WORD_OFF	n/a	n/a	TRASH	5	10	[0, 0, 0]	n/a	FR1	1	R1171M
1522.996	1.618	1531907	WORD	n/a	wordpools/wordpool_EN.txt	ROPE	6	10	[0, 0, 0]	n/a	FR1	1	R1171M
1524.614	0.917	1533525	WORD_OFF	n/a	n/a	ROPE	6	10	[0, 0, 0]	n/a	FR1	1	R1171M
1525.531	1.616	1534442	WORD	n/a	wordpools/wordpool_EN.txt	SNAIL	7	10	[0, 0, 0]	n/a	FR1	1	R1171M
1527.147	0.766	1536058	WORD_OFF	n/a	n/a	SNAIL	7	10	[0, 0, 0]	n/a	FR1	1	R1171M
1527.913	1.602	1536824	WORD	n/a	wordpools/wordpool_EN.txt	LAMB	8	10	[0, 0, 0]	n/a	FR1	1	R1171M
1529.515	0.849	1538426	WORD_OFF	n/a	n/a	LAMB	8	10	[0, 0, 0]	n/a	FR1	1	R1171M
1530.364	1.617	1539275	WORD	n/a	wordpools/wordpool_EN.txt	TREE	9	10	[0, 0, 0]	n/a	FR1	1	R1171M
1531.981	0.784	1540892	WORD_OFF	n/a	n/a	TREE	9	10	[0, 0, 0]	n/a	FR1	1	R1171M
1532.765	1.616	1541676	WORD	n/a	wordpools/wordpool_EN.txt	ARK	10	10	[0, 0, 0]	n/a	FR1	1	R1171M
1534.381	0.917	1543292	WORD_OFF	n/a	n/a	ARK	10	10	[0, 0, 0]	n/a	FR1	1	R1171M
1535.298	1.617	1544208	WORD	n/a	wordpools/wordpool_EN.txt	CHALK	11	10	[0, 0, 0]	n/a	FR1	1	R1171M
1536.915	0.768	1545825	WORD_OFF	n/a	n/a	CHALK	11	10	[0, 0, 0]	n/a	FR1	1	R1171M
1537.683	1.616	1546593	WORD	n/a	wordpools/wordpool_EN.txt	CAGE	12	10	[0, 0, 0]	n/a	FR1	1	R1171M
1539.299	0.0	1548209	WORD_OFF	n/a	n/a	CAGE	12	10	[0, 0, 0]	n/a	FR1	1	R1171M
1539.299	0.001	1548209	DISTRACT_START	n/a	n/a	n/a	-999	10	[0, 0, 0]	n/a	FR1	1	R1171M
1539.3	0.016	1548210	START	n/a	n/a	n/a	-999	10	[-999, -999, -999]	n/a	FR1	1	R1171M
1539.316	12.019	1548226	PROB	12.019	n/a	n/a	-999	10	[3, 7, 6]	16	FR1	1	R1171M
1551.335	6.534	1560245	PROB	6.534	n/a	n/a	-999	10	[8, 5, 1]	14	FR1	1	R1171M
1557.869	4.584	1566778	PROB	4.584	n/a	n/a	-999	10	[1, 3, 4]	8	FR1	1	R1171M
1562.453	0.018	1571362	STOP	n/a	n/a	n/a	-999	10	[-999, -999, -999]	n/a	FR1	1	R1171M
1562.471	0.549	1571380	DISTRACT_END	n/a	n/a	n/a	-999	10	[0, 0, 0]	n/a	FR1	1	R1171M
1563.02	0.519	1571929	RETRIEVAL_ORIENT	n/a	n/a	n/a	-999	10	[0, 0, 0]	n/a	FR1	1	R1171M
1563.539	2.601	1572448	REC_START	n/a	n/a	n/a	-999	10	[0, 0, 0]	n/a	FR1	1	R1171M
1566.14	0.49	1575049	REC_WORD	0.49	n/a	FENCE	-999	10	[0, 0, 0]	n/a	FR1	1	R1171M
1566.63	1.271	1575539	REC_WORD	1.271	n/a	COW	2	10	[0, 0, 0]	n/a	FR1	1	R1171M
1567.901	1.031	1576810	REC_WORD_VV	1.031	n/a	<>	-999	10	[0, 0, 0]	n/a	FR1	1	R1171M
1568.932	0.435	1577841	REC_WORD	0.435	n/a	FENCE	-999	10	[0, 0, 0]	n/a	FR1	1	R1171M
1569.367	3.638	1578276	REC_WORD	3.638	n/a	COW	2	10	[0, 0, 0]	n/a	FR1	1	R1171M
1573.005	0.999	1581913	REC_WORD_VV	0.999	n/a	<>	-999	10	[0, 0, 0]	n/a	FR1	1	R1171M
1574.004	3.063	1582912	REC_WORD_VV	3.063	n/a	<>	-999	10	[0, 0, 0]	n/a	FR1	1	R1171M
1577.067	0.29	1585975	REC_WORD_VV	0.29	n/a	<>	-999	10	[0, 0, 0]	n/a	FR1	1	R1171M
1577.357	0.558	1586265	REC_WORD	0.558	n/a	FENCE	-999	10	[0, 0, 0]	n/a	FR1	1	R1171M
1577.915	2.354	1586823	REC_WORD	2.354	n/a	COW	2	10	[0, 0, 0]	n/a	FR1	1	R1171M
1580.269	1.783	1589177	REC_WORD_VV	1.783	n/a	<>	-999	10	[0, 0, 0]	n/a	FR1	1	R1171M
1582.052	1.001	1590960	REC_WORD_VV	1.001	n/a	<>	-999	10	[0, 0, 0]	n/a	FR1	1	R1171M
1583.053	0.998	1591961	REC_WORD_VV	0.998	n/a	<>	-999	10	[0, 0, 0]	n/a	FR1	1	R1171M
1584.051	6.063	1592959	REC_WORD_VV	6.063	n/a	<>	-999	10	[0, 0, 0]	n/a	FR1	1	R1171M
1590.114	3.437	1599021	REC_WORD_VV	3.437	n/a	<>	-999	10	[0, 0, 0]	n/a	FR1	1	R1171M
1593.551	25.215	1602458	REC_END	n/a	n/a	n/a	-999	10	[0, 0, 0]	n/a	FR1	1	R1171M
1618.766	0.5	1627672	TRIAL	n/a	n/a	n/a	-999	11	[0, 0, 0]	n/a	FR1	1	R1171M
1619.266	10.428	1628172	COUNTDOWN_START	n/a	n/a	n/a	-999	11	[0, 0, 0]	n/a	FR1	1	R1171M
1629.694	0.007	1638599	COUNTDOWN_END	n/a	n/a	n/a	-999	11	[0, 0, 0]	n/a	FR1	1	R1171M
1629.701	1.616	1638606	ORIENT	n/a	n/a	n/a	-999	11	[0, 0, 0]	n/a	FR1	1	R1171M
1631.317	1.8	1640222	ORIENT_OFF	n/a	n/a	n/a	-999	11	[0, 0, 0]	n/a	FR1	1	R1171M
1633.117	1.618	1642022	WORD	n/a	wordpools/wordpool_EN.txt	TAIL	1	11	[0, 0, 0]	n/a	FR1	1	R1171M
1634.735	0.967	1643640	WORD_OFF	n/a	n/a	TAIL	1	11	[0, 0, 0]	n/a	FR1	1	R1171M
1635.702	1.616	1644607	WORD	n/a	wordpools/wordpool_EN.txt	DOCK	2	11	[0, 0, 0]	n/a	FR1	1	R1171M
1637.318	0.85	1646223	WORD_OFF	n/a	n/a	DOCK	2	11	[0, 0, 0]	n/a	FR1	1	R1171M
1638.168	1.618	1647073	WORD	n/a	wordpools/wordpool_EN.txt	EAR	3	11	[0, 0, 0]	n/a	FR1	1	R1171M
1639.786	0.867	1648691	WORD_OFF	n/a	n/a	EAR	3	11	[0, 0, 0]	n/a	FR1	1	R1171M
1640.653	1.616	1649557	WORD	n/a	wordpools/wordpool_EN.txt	JUICE	4	11	[0, 0, 0]	n/a	FR1	1	R1171M
1642.269	1.017	1651173	WORD_OFF	n/a	n/a	JUICE	4	11	[0, 0, 0]	n/a	FR1	1	R1171M
1643.286	1.617	1652190	WORD	n/a	wordpools/wordpool_EN.txt	BIRD	5	11	[0, 0, 0]	n/a	FR1	1	R1171M
1644.903	0.868	1653807	WORD_OFF	n/a	n/a	BIRD	5	11	[0, 0, 0]	n/a	FR1	1	R1171M
1645.771	1.616	1654675	WORD	n/a	wordpools/wordpool_EN.txt	FISH	6	11	[0, 0, 0]	n/a	FR1	1	R1171M
1647.387	0.967	1656291	WORD_OFF	n/a	n/a	FISH	6	11	[0, 0, 0]	n/a	FR1	1	R1171M
1648.354	1.617	1657258	WORD	n/a	wordpools/wordpool_EN.txt	STOOL	7	11	[0, 0, 0]	n/a	FR1	1	R1171M
1649.971	0.866	1658875	WORD_OFF	n/a	n/a	STOOL	7	11	[0, 0, 0]	n/a	FR1	1	R1171M
1650.837	1.601	1659741	WORD	n/a	wordpools/wordpool_EN.txt	ROSE	8	11	[0, 0, 0]	n/a	FR1	1	R1171M
1652.438	0.867	1661342	WORD_OFF	n/a	n/a	ROSE	8	11	[0, 0, 0]	n/a	FR1	1	R1171M
1653.305	1.617	1662209	WORD	n/a	wordpools/wordpool_EN.txt	EEL	9	11	[0, 0, 0]	n/a	FR1	1	R1171M
1654.922	0.784	1663826	WORD_OFF	n/a	n/a	EEL	9	11	[0, 0, 0]	n/a	FR1	1	R1171M
1655.706	1.616	1664610	WORD	n/a	wordpools/wordpool_EN.txt	PLANE	10	11	[0, 0, 0]	n/a	FR1	1	R1171M
1657.322	0.817	1666226	WORD_OFF	n/a	n/a	PLANE	10	11	[0, 0, 0]	n/a	FR1	1	R1171M
1658.139	1.618	1667042	WORD	n/a	wordpools/wordpool_EN.txt	MAIL	11	11	[0, 0, 0]	n/a	FR1	1	R1171M
1659.757	0.9	1668660	WORD_OFF	n/a	n/a	MAIL	11	11	[0, 0, 0]	n/a	FR1	1	R1171M
1660.657	1.616	1669560	WORD	n/a	wordpools/wordpool_EN.txt	CALF	12	11	[0, 0, 0]	n/a	FR1	1	R1171M
1662.273	0.0	1671176	WORD_OFF	n/a	n/a	CALF	12	11	[0, 0, 0]	n/a	FR1	1	R1171M
1662.273	0.001	1671176	DISTRACT_START	n/a	n/a	n/a	-999	11	[0, 0, 0]	n/a	FR1	1	R1171M
1662.274	0.016	1671177	START	n/a	n/a	n/a	-999	11	[-999, -999, -999]	n/a	FR1	1	R1171M
1662.29	13.287	1671193	PROB	13.287	n/a	n/a	-999	11	[9, 9, 1]	11	FR1	1	R1171M
1675.577	13.788	1684480	PROB	13.788	n/a	n/a	-999	11	[5, 7, 5]	17	FR1	1	R1171M
1689.365	0.013	1698267	STOP	n/a	n/a	n/a	-999	11	[-999, -999, -999]	n/a	FR1	1	R1171M
1689.378	0.534	1698280	DISTRACT_END	n/a	n/a	n/a	-999	11	[0, 0, 0]	n/a	FR1	1	R1171M
1689.912	0.517	1698814	RETRIEVAL_ORIENT	n/a	n/a	n/a	-999	11	[0, 0, 0]	n/a	FR1	1	R1171M
1690.429	0.231	1699331	REC_START	n/a	n/a	n/a	-999	11	[0, 0, 0]	n/a	FR1	1	R1171M
1690.66	1.145	1699562	REC_WORD	1.145	n/a	TAIL	1	11	[0, 0, 0]	n/a	FR1	1	R1171M
1691.805	1.014	1700707	REC_WORD	1.014	n/a	DOCK	2	11	[0, 0, 0]	n/a	FR1	1	R1171M
1692.819	0.927	1701721	REC_WORD	0.927	n/a	EEL	9	11	[0, 0, 0]	n/a	FR1	1	R1171M
1693.746	1.613	1702647	REC_WORD	1.613	n/a	MAIL	11	11	[0, 0, 0]	n/a	FR1	1	R1171M
1695.359	1.0	1704260	REC_WORD_VV	1.0	n/a	<>	-999	11	[0, 0, 0]	n/a	FR1	1	R1171M
1696.359	4.293	1705260	REC_WORD_VV	4.293	n/a	<>	-999	11	[0, 0, 0]	n/a	FR1	1	R1171M
1700.652	0.569	1709553	REC_WORD_VV	0.569	n/a	<>	-999	11	[0, 0, 0]	n/a	FR1	1	R1171M
1701.221	1.002	1710122	REC_WORD_VV	1.002	n/a	<>	-999	11	[0, 0, 0]	n/a	FR1	1	R1171M
1702.223	2.057	1711124	REC_WORD_VV	2.057	n/a	<>	-999	11	[0, 0, 0]	n/a	FR1	1	R1171M
1704.28	6.117	1713181	REC_WORD_VV	6.117	n/a	<>	-999	11	[0, 0, 0]	n/a	FR1	1	R1171M
1710.397	2.39	1719298	REC_WORD_VV	2.39	n/a	<>	-999	11	[0, 0, 0]	n/a	FR1	1	R1171M
1712.787	0.998	1721687	REC_WORD_VV	0.998	n/a	<>	-999	11	[0, 0, 0]	n/a	FR1	1	R1171M
1713.785	4.935	1722685	REC_WORD_VV	4.935	n/a	<>	-999	11	[0, 0, 0]	n/a	FR1	1	R1171M
1718.72	1.719	1727620	REC_WORD_VV	1.719	n/a	<>	-999	11	[0, 0, 0]	n/a	FR1	1	R1171M
1720.439	23.218	1729339	REC_END	n/a	n/a	n/a	-999	11	[0, 0, 0]	n/a	FR1	1	R1171M
1743.657	0.5	1752556	TRIAL	n/a	n/a	n/a	-999	12	[0, 0, 0]	n/a	FR1	1	R1171M
1744.157	10.428	1753056	COUNTDOWN_START	n/a	n/a	n/a	-999	12	[0, 0, 0]	n/a	FR1	1	R1171M
1754.585	0.007	1763483	COUNTDOWN_END	n/a	n/a	n/a	-999	12	[0, 0, 0]	n/a	FR1	1	R1171M
1754.592	1.616	1763490	ORIENT	n/a	n/a	n/a	-999	12	[0, 0, 0]	n/a	FR1	1	R1171M
1756.208	2.251	1765106	ORIENT_OFF	n/a	n/a	n/a	-999	12	[0, 0, 0]	n/a	FR1	1	R1171M
1758.459	1.616	1767357	WORD	n/a	wordpools/wordpool_EN.txt	BEAN	1	12	[0, 0, 0]	n/a	FR1	1	R1171M
1760.075	0.767	1768973	WORD_OFF	n/a	n/a	BEAN	1	12	[0, 0, 0]	n/a	FR1	1	R1171M
1760.842	1.618	1769740	WORD	n/a	wordpools/wordpool_EN.txt	RUG	2	12	[0, 0, 0]	n/a	FR1	1	R1171M
1762.46	0.833	1771358	WORD_OFF	n/a	n/a	RUG	2	12	[0, 0, 0]	n/a	FR1	1	R1171M
1763.293	1.617	1772191	WORD	n/a	wordpools/wordpool_EN.txt	CAPE	3	12	[0, 0, 0]	n/a	FR1	1	R1171M
1764.91	0.834	1773807	WORD_OFF	n/a	n/a	CAPE	3	12	[0, 0, 0]	n/a	FR1	1	R1171M
1765.744	1.616	1774641	WORD	n/a	wordpools/wordpool_EN.txt	ROOT	4	12	[0, 0, 0]	n/a	FR1	1	R1171M
1767.36	0.917	1776257	WORD_OFF	n/a	n/a	ROOT	4	12	[0, 0, 0]	n/a	FR1	1	R1171M
1768.277	1.617	1777174	WORD	n/a	wordpools/wordpool_EN.txt	SKY	5	12	[0, 0, 0]	n/a	FR1	1	R1171M
1769.894	0.868	1778791	WORD_OFF	n/a	n/a	SKY	5	12	[0, 0, 0]	n/a	FR1	1	R1171M
1770.762	1.616	1779659	WORD	n/a	wordpools/wordpool_EN.txt	STAR	6	12	[0, 0, 0]	n/a	FR1	1	R1171M
1772.378	0.917	1781275	WORD_OFF	n/a	n/a	STAR	6	12	[0, 0, 0]	n/a	FR1	1	R1171M
1773.295	1.617	1782192	WORD	n/a	wordpools/wordpool_EN.txt	SPONGE	7	12	[0, 0, 0]	n/a	FR1	1	R1171M
1774.912	0.95	1783809	WORD_OFF	n/a	n/a	SPONGE	7	12	[0, 0, 0]	n/a	FR1	1	R1171M
1775.862	1.618	1784759	WORD	n/a	wordpools/wordpool_EN.txt	DRUM	8	12	[0, 0, 0]	n/a	FR1	1	R1171M
1777.48	0.799	1786377	WORD_OFF	n/a	n/a	DRUM	8	12	[0, 0, 0]	n/a	FR1	1	R1171M
1778.279	1.617	1787176	WORD	n/a	wordpools/wordpool_EN.txt	EGG	9	12	[0, 0, 0]	n/a	FR1	1	R1171M
1779.896	1.0	1788793	WORD_OFF	n/a	n/a	EGG	9	12	[0, 0, 0]	n/a	FR1	1	R1171M
1780.896	1.618	1789793	WORD	n/a	wordpools/wordpool_EN.txt	HEART	10	12	[0, 0, 0]	n/a	FR1	1	R1171M
1782.514	0.967	1791410	WORD_OFF	n/a	n/a	HEART	10	12	[0, 0, 0]	n/a	FR1	1	R1171M
1783.481	1.616	1792377	WORD	n/a	wordpools/wordpool_EN.txt	HOLE	11	12	[0, 0, 0]	n/a	FR1	1	R1171M
1785.097	0.8	1793993	WORD_OFF	n/a	n/a	HOLE	11	12	[0, 0, 0]	n/a	FR1	1	R1171M
1785.897	1.601	1794793	WORD	n/a	wordpools/wordpool_EN.txt	FROG	12	12	[0, 0, 0]	n/a	FR1	1	R1171M
1787.498	0.0	1796394	WORD_OFF	n/a	n/a	FROG	12	12	[0, 0, 0]	n/a	FR1	1	R1171M
1787.498	0.001	1796394	DISTRACT_START	n/a	n/a	n/a	-999	12	[0, 0, 0]	n/a	FR1	1	R1171M
1787.499	0.016	1796395	START	n/a	n/a	n/a	-999	12	[-999, -999, -999]	n/a	FR1	1	R1171M
1787.515	4.717	1796411	PROB	4.717	n/a	n/a	-999	12	[1, 5, 2]	8	FR1	1	R1171M
1792.232	6.001	1801128	PROB	6.001	n/a	n/a	-999	12	[6, 7, 2]	15	FR1	1	R1171M
1798.233	38.939	1807129	PROB	38.939	n/a	n/a	-999	12	[5, 9, 4]	18	FR1	1	R1171M
1837.172	0.018	1846065	STOP	n/a	n/a	n/a	-999	12	[-999, -999, -999]	n/a	FR1	1	R1171M
1837.19	0.651	1846083	DISTRACT_END	n/a	n/a	n/a	-999	12	[0, 0, 0]	n/a	FR1	1	R1171M
1837.841	0.517	1846734	RETRIEVAL_ORIENT	n/a	n/a	n/a	-999	12	[0, 0, 0]	n/a	FR1	1	R1171M
1838.358	2.886	1847251	REC_START	n/a	n/a	n/a	-999	12	[0, 0, 0]	n/a	FR1	1	R1171M
1841.244	0.438	1850137	REC_WORD	0.438	n/a	DUCK	-999	12	[0, 0, 0]	n/a	FR1	1	R1171M
1841.682	1.039	1850575	REC_WORD	1.039	n/a	HOLE	11	12	[0, 0, 0]	n/a	FR1	1	R1171M
1842.721	0.734	1851614	REC_WORD_VV	0.734	n/a	<>	-999	12	[0, 0, 0]	n/a	FR1	1	R1171M
1843.455	1.505	1852348	REC_WORD	1.505	n/a	HOLE	11	12	[0, 0, 0]	n/a	FR1	1	R1171M
1844.96	3.434	1853853	REC_WORD	3.434	n/a	DUCK	-999	12	[0, 0, 0]	n/a	FR1	1	R1171M
1848.394	1.0	1857287	REC_WORD_VV	1.0	n/a	<>	-999	12	[0, 0, 0]	n/a	FR1	1	R1171M
1849.394	2.144	1858287	REC_WORD_VV	2.144	n/a	<>	-999	12	[0, 0, 0]	n/a	FR1	1	R1171M
1851.538	1.0	1860431	REC_WORD_VV	1.0	n/a	<>	-999	12	[0, 0, 0]	n/a	FR1	1	R1171M
1852.538	4.442	1861430	REC_WORD_VV	4.442	n/a	<>	-999	12	[0, 0, 0]	n/a	FR1	1	R1171M
1856.98	1.0	1865872	REC_WORD_VV	1.0	n/a	<>	-999	12	[0, 0, 0]	n/a	FR1	1	R1171M
1857.98	1.001	1866872	REC_WORD_VV	1.001	n/a	<>	-999	12	[0, 0, 0]	n/a	FR1	1	R1171M
1858.981	6.264	1867873	REC_WORD_VV	6.264	n/a	<>	-999	12	[0, 0, 0]	n/a	FR1	1	R1171M
1865.245	1.0	1874137	REC_WORD_VV	1.0	n/a	<>	-999	12	[0, 0, 0]	n/a	FR1	1	R1171M
1866.245	1.0	1875137	REC_WORD_VV	1.0	n/a	<>	-999	12	[0, 0, 0]	n/a	FR1	1	R1171M
1867.245	0.998	1876137	REC_WORD_VV	0.998	n/a	<>	-999	12	[0, 0, 0]	n/a	FR1	1	R1171M
1868.243	0.126	1877135	REC_WORD_VV	0.126	n/a	<>	-999	12	[0, 0, 0]	n/a	FR1	1	R1171M
1868.369	14.398	1877261	REC_END	n/a	n/a	n/a	-999	12	[0, 0, 0]	n/a	FR1	1	R1171M
1882.767	0.5	1891658	TRIAL	n/a	n/a	n/a	-999	13	[0, 0, 0]	n/a	FR1	1	R1171M
1883.267	10.428	1892158	COUNTDOWN_START	n/a	n/a	n/a	-999	13	[0, 0, 0]	n/a	FR1	1	R1171M
1893.695	0.007	1902585	COUNTDOWN_END	n/a	n/a	n/a	-999	13	[0, 0, 0]	n/a	FR1	1	R1171M
1893.702	1.616	1902592	ORIENT	n/a	n/a	n/a	-999	13	[0, 0, 0]	n/a	FR1	1	R1171M
1895.318	2.169	1904208	ORIENT_OFF	n/a	n/a	n/a	-999	13	[0, 0, 0]	n/a	FR1	1	R1171M
1897.487	1.615	1906377	WORD	n/a	wordpools/wordpool_EN.txt	WEED	1	13	[0, 0, 0]	n/a	FR1	1	R1171M
1899.102	0.984	1907992	WORD_OFF	n/a	n/a	WEED	1	13	[0, 0, 0]	n/a	FR1	1	R1171M
1900.086	1.618	1908976	WORD	n/a	wordpools/wordpool_EN.txt	BOMB	2	13	[0, 0, 0]	n/a	FR1	1	R1171M
1901.704	0.883	1910594	WORD_OFF	n/a	n/a	BOMB	2	13	[0, 0, 0]	n/a	FR1	1	R1171M
1902.587	1.616	1911477	WORD	n/a	wordpools/wordpool_EN.txt	JAIL	3	13	[0, 0, 0]	n/a	FR1	1	R1171M
1904.203	0.967	1913093	WORD_OFF	n/a	n/a	JAIL	3	13	[0, 0, 0]	n/a	FR1	1	R1171M
1905.17	1.618	1914059	WORD	n/a	wordpools/wordpool_EN.txt	FARM	4	13	[0, 0, 0]	n/a	FR1	1	R1171M
1906.788	0.85	1915677	WORD_OFF	n/a	n/a	FARM	4	13	[0, 0, 0]	n/a	FR1	1	R1171M
1907.638	1.616	1916527	WORD	n/a	wordpools/wordpool_EN.txt	SNOW	5	13	[0, 0, 0]	n/a	FR1	1	R1171M
1909.254	0.917	1918143	WORD_OFF	n/a	n/a	SNOW	5	13	[0, 0, 0]	n/a	FR1	1	R1171M
1910.171	1.618	1919060	WORD	n/a	wordpools/wordpool_EN.txt	COIN	6	13	[0, 0, 0]	n/a	FR1	1	R1171M
1911.789	0.8	1920678	WORD_OFF	n/a	n/a	COIN	6	13	[0, 0, 0]	n/a	FR1	1	R1171M
1912.589	1.616	1921478	WORD	n/a	wordpools/wordpool_EN.txt	PIPE	7	13	[0, 0, 0]	n/a	FR1	1	R1171M
1914.205	0.951	1923094	WORD_OFF	n/a	n/a	PIPE	7	13	[0, 0, 0]	n/a	FR1	1	R1171M
1915.156	1.618	1924045	WORD	n/a	wordpools/wordpool_EN.txt	CLOWN	8	13	[0, 0, 0]	n/a	FR1	1	R1171M
1916.774	0.85	1925663	WORD_OFF	n/a	n/a	CLOWN	8	13	[0, 0, 0]	n/a	FR1	1	R1171M
1917.624	1.616	1926513	WORD	n/a	wordpools/wordpool_EN.txt	MILK	9	13	[0, 0, 0]	n/a	FR1	1	R1171M
1919.24	0.916	1928129	WORD_OFF	n/a	n/a	MILK	9	13	[0, 0, 0]	n/a	FR1	1	R1171M
1920.156	1.602	1929045	WORD	n/a	wordpools/wordpool_EN.txt	SMOKE	10	13	[0, 0, 0]	n/a	FR1	1	R1171M
1921.758	0.767	1930647	WORD_OFF	n/a	n/a	SMOKE	10	13	[0, 0, 0]	n/a	FR1	1	R1171M
1922.525	1.616	1931413	WORD	n/a	wordpools/wordpool_EN.txt	VAN	11	13	[0, 0, 0]	n/a	FR1	1	R1171M
1924.141	0.85	1933029	WORD_OFF	n/a	n/a	VAN	11	13	[0, 0, 0]	n/a	FR1	1	R1171M
1924.991	1.618	1933879	WORD	n/a	wordpools/wordpool_EN.txt	SOAP	12	13	[0, 0, 0]	n/a	FR1	1	R1171M
1926.609	0.0	1935497	WORD_OFF	n/a	n/a	SOAP	12	13	[0, 0, 0]	n/a	FR1	1	R1171M
1926.609	0.001	1935497	DISTRACT_START	n/a	n/a	n/a	-999	13	[0, 0, 0]	n/a	FR1	1	R1171M
1926.61	0.015	1935498	START	n/a	n/a	n/a	-999	13	[-999, -999, -999]	n/a	FR1	1	R1171M
1926.625	17.586	1935513	PROB	17.586	n/a	n/a	-999	13	[4, 7, 3]	14	FR1	1	R1171M
1944.211	7.377	1953098	PROB	7.377	n/a	n/a	-999	13	[7, 3, 6]	17	FR1	1	R1171M
1951.588	0.009	1960475	STOP	n/a	n/a	n/a	-999	13	[-999, -999, -999]	n/a	FR1	1	R1171M
1951.597	0.682	1960484	DISTRACT_END	n/a	n/a	n/a	-999	13	[0, 0, 0]	n/a	FR1	1	R1171M
1952.279	0.519	1961166	RETRIEVAL_ORIENT	n/a	n/a	n/a	-999	13	[0, 0, 0]	n/a	FR1	1	R1171M
1952.798	0.004	1961685	REC_START	n/a	n/a	n/a	-999	13	[0, 0, 0]	n/a	FR1	1	R1171M
1952.802	0.876	1961689	REC_WORD	0.876	n/a	WEED	1	13	[0, 0, 0]	n/a	FR1	1	R1171M
1953.678	0.463	1962565	REC_WORD	0.463	n/a	WEED	1	13	[0, 0, 0]	n/a	FR1	1	R1171M
1954.141	0.434	1963028	REC_WORD	0.434	n/a	BOMB	2	13	[0, 0, 0]	n/a	FR1	1	R1171M
1954.575	3.903	1963462	REC_WORD	3.903	n/a	JAIL	3	13	[0, 0, 0]	n/a	FR1	1	R1171M
1958.478	1.392	1967364	REC_WORD_VV	1.392	n/a	<>	-999	13	[0, 0, 0]	n/a	FR1	1	R1171M
1959.87	4.891	1968756	REC_WORD_VV	4.891	n/a	<>	-999	13	[0, 0, 0]	n/a	FR1	1	R1171M
1964.761	1.0	1973647	REC_WORD_VV	1.0	n/a	<>	-999	13	[0, 0, 0]	n/a	FR1	1	R1171M
1965.761	3.123	1974647	REC_WORD_VV	3.123	n/a	<>	-999	13	[0, 0, 0]	n/a	FR1	1	R1171M
1968.884	0.291	1977770	REC_WORD	0.291	n/a	WEED	1	13	[0, 0, 0]	n/a	FR1	1	R1171M
1969.175	0.317	1978061	REC_WORD	0.317	n/a	BOMB	2	13	[0, 0, 0]	n/a	FR1	1	R1171M
1969.492	4.99	1978378	REC_WORD	4.99	n/a	JAIL	3	13	[0, 0, 0]	n/a	FR1	1	R1171M
1974.482	1.0	1983368	REC_WORD_VV	1.0	n/a	<>	-999	13	[0, 0, 0]	n/a	FR1	1	R1171M
1975.482	0.988	1984367	REC_WORD_VV	0.988	n/a	<>	-999	13	[0, 0, 0]	n/a	FR1	1	R1171M
1976.47	1.0	1985355	REC_WORD_VV	1.0	n/a	<>	-999	13	[0, 0, 0]	n/a	FR1	1	R1171M
1977.47	5.339	1986355	REC_WORD_VV	5.339	n/a	<>	-999	13	[0, 0, 0]	n/a	FR1	1	R1171M
1982.809	21.715	1991694	REC_END	n/a	n/a	n/a	-999	13	[0, 0, 0]	n/a	FR1	1	R1171M
2004.524	0.5	2013408	TRIAL	n/a	n/a	n/a	-999	14	[0, 0, 0]	n/a	FR1	1	R1171M
2005.024	10.428	2013908	COUNTDOWN_START	n/a	n/a	n/a	-999	14	[0, 0, 0]	n/a	FR1	1	R1171M
2015.452	0.007	2024335	COUNTDOWN_END	n/a	n/a	n/a	-999	14	[0, 0, 0]	n/a	FR1	1	R1171M
2015.459	1.616	2024342	ORIENT	n/a	n/a	n/a	-999	14	[0, 0, 0]	n/a	FR1	1	R1171M
2017.075	1.901	2025958	ORIENT_OFF	n/a	n/a	n/a	-999	14	[0, 0, 0]	n/a	FR1	1	R1171M
2018.976	1.618	2027859	WORD	n/a	wordpools/wordpool_EN.txt	BOOK	1	14	[0, 0, 0]	n/a	FR1	1	R1171M
2020.594	0.95	2029477	WORD_OFF	n/a	n/a	BOOK	1	14	[0, 0, 0]	n/a	FR1	1	R1171M
2021.544	1.616	2030427	WORD	n/a	wordpools/wordpool_EN.txt	BADGE	2	14	[0, 0, 0]	n/a	FR1	1	R1171M
2023.16	0.9	2032043	WORD_OFF	n/a	n/a	BADGE	2	14	[0, 0, 0]	n/a	FR1	1	R1171M
2024.06	1.618	2032943	WORD	n/a	wordpools/wordpool_EN.txt	THREAD	3	14	[0, 0, 0]	n/a	FR1	1	R1171M
2025.678	0.884	2034561	WORD_OFF	n/a	n/a	THREAD	3	14	[0, 0, 0]	n/a	FR1	1	R1171M
2026.562	1.616	2035445	WORD	n/a	wordpools/wordpool_EN.txt	STEM	4	14	[0, 0, 0]	n/a	FR1	1	R1171M
2028.178	0.966	2037060	WORD_OFF	n/a	n/a	STEM	4	14	[0, 0, 0]	n/a	FR1	1	R1171M
2029.144	1.618	2038026	WORD	n/a	wordpools/wordpool_EN.txt	BALL	5	14	[0, 0, 0]	n/a	FR1	1	R1171M
2030.762	0.784	2039644	WORD_OFF	n/a	n/a	BALL	5	14	[0, 0, 0]	n/a	FR1	1	R1171M
2031.546	1.616	2040428	WORD	n/a	wordpools/wordpool_EN.txt	TANK	6	14	[0, 0, 0]	n/a	FR1	1	R1171M
2033.162	0.883	2042044	WORD_OFF	n/a	n/a	TANK	6	14	[0, 0, 0]	n/a	FR1	1	R1171M
2034.045	1.618	2042927	WORD	n/a	wordpools/wordpool_EN.txt	ICE	7	14	[0, 0, 0]	n/a	FR1	1	R1171M
2035.663	0.967	2044545	WORD_OFF	n/a	n/a	ICE	7	14	[0, 0, 0]	n/a	FR1	1	R1171M
2036.63	1.616	2045512	WORD	n/a	wordpools/wordpool_EN.txt	FUDGE	8	14	[0, 0, 0]	n/a	FR1	1	R1171M
2038.246	0.834	2047128	WORD_OFF	n/a	n/a	FUDGE	8	14	[0, 0, 0]	n/a	FR1	1	R1171M
2039.08	1.618	2047962	WORD	n/a	wordpools/wordpool_EN.txt	BEAR	9	14	[0, 0, 0]	n/a	FR1	1	R1171M
2040.698	0.95	2049580	WORD_OFF	n/a	n/a	BEAR	9	14	[0, 0, 0]	n/a	FR1	1	R1171M
2041.648	1.616	2050530	WORD	n/a	wordpools/wordpool_EN.txt	WAVE	10	14	[0, 0, 0]	n/a	FR1	1	R1171M
2043.264	0.9	2052146	WORD_OFF	n/a	n/a	WAVE	10	14	[0, 0, 0]	n/a	FR1	1	R1171M
2044.164	1.618	2053046	WORD	n/a	wordpools/wordpool_EN.txt	PIG	11	14	[0, 0, 0]	n/a	FR1	1	R1171M
2045.782	1.0	2054663	WORD_OFF	n/a	n/a	PIG	11	14	[0, 0, 0]	n/a	FR1	1	R1171M
2046.782	1.616	2055663	WORD	n/a	wordpools/wordpool_EN.txt	MUG	12	14	[0, 0, 0]	n/a	FR1	1	R1171M
2048.398	0.0	2057279	WORD_OFF	n/a	n/a	MUG	12	14	[0, 0, 0]	n/a	FR1	1	R1171M
2048.398	0.001	2057279	DISTRACT_START	n/a	n/a	n/a	-999	14	[0, 0, 0]	n/a	FR1	1	R1171M
2048.399	0.016	2057280	START	n/a	n/a	n/a	-999	14	[-999, -999, -999]	n/a	FR1	1	R1171M
2048.415	7.036	2057296	PROB	7.036	n/a	n/a	-999	14	[7, 1, 2]	10	FR1	1	R1171M
2055.451	3.516	2064332	PROB	3.516	n/a	n/a	-999	14	[6, 3, 4]	13	FR1	1	R1171M
2058.967	3.3	2067848	PROB	3.3	n/a	n/a	-999	14	[1, 3, 4]	8	FR1	1	R1171M
2062.267	2.634	2071148	PROB	2.634	n/a	n/a	-999	14	[1, 3, 5]	9	FR1	1	R1171M
2064.901	5.279	2073781	PROB	5.279	n/a	n/a	-999	14	[5, 3, 7]	15	FR1	1	R1171M
2070.18	0.022	2079060	STOP	n/a	n/a	n/a	-999	14	[-999, -999, -999]	n/a	FR1	1	R1171M
2070.202	0.634	2079082	DISTRACT_END	n/a	n/a	n/a	-999	14	[0, 0, 0]	n/a	FR1	1	R1171M
2070.836	0.517	2079716	RETRIEVAL_ORIENT	n/a	n/a	n/a	-999	14	[0, 0, 0]	n/a	FR1	1	R1171M
2071.353	2.285	2080233	REC_START	n/a	n/a	n/a	-999	14	[0, 0, 0]	n/a	FR1	1	R1171M
2073.638	1.028	2082518	REC_WORD	1.028	n/a	BOOK	1	14	[0, 0, 0]	n/a	FR1	1	R1171M
2074.666	1.054	2083546	REC_WORD	1.054	n/a	BADGE	2	14	[0, 0, 0]	n/a	FR1	1	R1171M
2075.72	7.956	2084600	REC_WORD	7.956	n/a	WAVE	10	14	[0, 0, 0]	n/a	FR1	1	R1171M
2083.676	1.0	2092555	REC_WORD_VV	1.0	n/a	<>	-999	14	[0, 0, 0]	n/a	FR1	1	R1171M
2084.676	1.001	2093555	REC_WORD_VV	1.001	n/a	<>	-999	14	[0, 0, 0]	n/a	FR1	1	R1171M
2085.677	2.449	2094556	REC_WORD_VV	2.449	n/a	<>	-999	14	[0, 0, 0]	n/a	FR1	1	R1171M
2088.126	1.0	2097005	REC_WORD_VV	1.0	n/a	<>	-999	14	[0, 0, 0]	n/a	FR1	1	R1171M
2089.126	2.638	2098005	REC_WORD_VV	2.638	n/a	<>	-999	14	[0, 0, 0]	n/a	FR1	1	R1171M
2091.764	1.0	2100643	REC_WORD_VV	1.0	n/a	<>	-999	14	[0, 0, 0]	n/a	FR1	1	R1171M
2092.764	1.602	2101643	REC_WORD_VV	1.602	n/a	<>	-999	14	[0, 0, 0]	n/a	FR1	1	R1171M
2094.366	0.997	2103245	REC_WORD_VV	0.997	n/a	<>	-999	14	[0, 0, 0]	n/a	FR1	1	R1171M
2095.363	6.003	2104242	REC_WORD_VV	6.003	n/a	<>	-999	14	[0, 0, 0]	n/a	FR1	1	R1171M
2101.366	12.662	2110244	REC_END	n/a	n/a	n/a	-999	14	[0, 0, 0]	n/a	FR1	1	R1171M
2114.028	0.5	2122906	TRIAL	n/a	n/a	n/a	-999	15	[0, 0, 0]	n/a	FR1	1	R1171M
2114.528	10.428	2123406	COUNTDOWN_START	n/a	n/a	n/a	-999	15	[0, 0, 0]	n/a	FR1	1	R1171M
2124.956	0.007	2133833	COUNTDOWN_END	n/a	n/a	n/a	-999	15	[0, 0, 0]	n/a	FR1	1	R1171M
2124.963	1.618	2133840	ORIENT	n/a	n/a	n/a	-999	15	[0, 0, 0]	n/a	FR1	1	R1171M
2126.581	2.034	2135458	ORIENT_OFF	n/a	n/a	n/a	-999	15	[0, 0, 0]	n/a	FR1	1	R1171M
2128.615	1.616	2137492	WORD	n/a	wordpools/wordpool_EN.txt	BED	1	15	[0, 0, 0]	n/a	FR1	1	R1171M
2130.231	0.833	2139108	WORD_OFF	n/a	n/a	BED	1	15	[0, 0, 0]	n/a	FR1	1	R1171M
2131.064	1.618	2139941	WORD	n/a	wordpools/wordpool_EN.txt	RAIN	2	15	[0, 0, 0]	n/a	FR1	1	R1171M
2132.682	0.817	2141559	WORD_OFF	n/a	n/a	RAIN	2	15	[0, 0, 0]	n/a	FR1	1	R1171M
2133.499	1.616	2142375	WORD	n/a	wordpools/wordpool_EN.txt	TOOL	3	15	[0, 0, 0]	n/a	FR1	1	R1171M
2135.115	0.917	2143991	WORD_OFF	n/a	n/a	TOOL	3	15	[0, 0, 0]	n/a	FR1	1	R1171M
2136.032	1.618	2144908	WORD	n/a	wordpools/wordpool_EN.txt	GRAPE	4	15	[0, 0, 0]	n/a	FR1	1	R1171M
2137.65	0.883	2146526	WORD_OFF	n/a	n/a	GRAPE	4	15	[0, 0, 0]	n/a	FR1	1	R1171M
2138.533	1.616	2147409	WORD	n/a	wordpools/wordpool_EN.txt	FLUTE	5	15	[0, 0, 0]	n/a	FR1	1	R1171M
2140.149	0.884	2149025	WORD_OFF	n/a	n/a	FLUTE	5	15	[0, 0, 0]	n/a	FR1	1	R1171M
2141.033	1.618	2149909	WORD	n/a	wordpools/wordpool_EN.txt	BOY	6	15	[0, 0, 0]	n/a	FR1	1	R1171M
2142.651	0.85	2151527	WORD_OFF	n/a	n/a	BOY	6	15	[0, 0, 0]	n/a	FR1	1	R1171M
2143.501	1.616	2152377	WORD	n/a	wordpools/wordpool_EN.txt	INK	7	15	[0, 0, 0]	n/a	FR1	1	R1171M
2145.117	0.767	2153993	WORD_OFF	n/a	n/a	INK	7	15	[0, 0, 0]	n/a	FR1	1	R1171M
2145.884	1.601	2154760	WORD	n/a	wordpools/wordpool_EN.txt	FOAM	8	15	[0, 0, 0]	n/a	FR1	1	R1171M
2147.485	1.0	2156361	WORD_OFF	n/a	n/a	FOAM	8	15	[0, 0, 0]	n/a	FR1	1	R1171M
2148.485	1.616	2157361	WORD	n/a	wordpools/wordpool_EN.txt	SNAKE	9	15	[0, 0, 0]	n/a	FR1	1	R1171M
2150.101	0.784	2158977	WORD_OFF	n/a	n/a	SNAKE	9	15	[0, 0, 0]	n/a	FR1	1	R1171M
2150.885	1.618	2159761	WORD	n/a	wordpools/wordpool_EN.txt	PEAR	10	15	[0, 0, 0]	n/a	FR1	1	R1171M
2152.503	0.932	2161378	WORD_OFF	n/a	n/a	PEAR	10	15	[0, 0, 0]	n/a	FR1	1	R1171M
2153.435	1.617	2162310	WORD	n/a	wordpools/wordpool_EN.txt	BRUSH	11	15	[0, 0, 0]	n/a	FR1	1	R1171M
2155.052	0.984	2163927	WORD_OFF	n/a	n/a	BRUSH	11	15	[0, 0, 0]	n/a	FR1	1	R1171M
2156.036	1.618	2164911	WORD	n/a	wordpools/wordpool_EN.txt	CLOCK	12	15	[0, 0, 0]	n/a	FR1	1	R1171M
2157.654	0.0	2166529	WORD_OFF	n/a	n/a	CLOCK	12	15	[0, 0, 0]	n/a	FR1	1	R1171M
2157.654	0.0	2166529	DISTRACT_START	n/a	n/a	n/a	-999	15	[0, 0, 0]	n/a	FR1	1	R1171M
2157.654	0.016	2166529	START	n/a	n/a	n/a	-999	15	[-999, -999, -999]	n/a	FR1	1	R1171M
2157.67	11.168	2166545	PROB	11.168	n/a	n/a	-999	15	[6, 6, 2]	14	FR1	1	R1171M
2168.838	15.493	2177712	PROB	15.493	n/a	n/a	-999	15	[6, 2, 7]	15	FR1	1	R1171M
2184.331	0.01	2193205	STOP	n/a	n/a	n/a	-999	15	[-999, -999, -999]	n/a	FR1	1	R1171M
2184.341	0.634	2193215	DISTRACT_END	n/a	n/a	n/a	-999	15	[0, 0, 0]	n/a	FR1	1	R1171M
2184.975	0.518	2193849	RETRIEVAL_ORIENT	n/a	n/a	n/a	-999	15	[0, 0, 0]	n/a	FR1	1	R1171M
2185.493	0.401	2194367	REC_START	n/a	n/a	n/a	-999	15	[0, 0, 0]	n/a	FR1	1	R1171M
2185.894	0.8	2194768	REC_WORD	0.8	n/a	BED	1	15	[0, 0, 0]	n/a	FR1	1	R1171M
2186.694	1.088	2195567	REC_WORD	1.088	n/a	RAIN	2	15	[0, 0, 0]	n/a	FR1	1	R1171M
2187.782	0.994	2196655	REC_WORD	0.994	n/a	INK	7	15	[0, 0, 0]	n/a	FR1	1	R1171M
2188.776	26.261	2197649	REC_WORD	26.261	n/a	TOOL	3	15	[0, 0, 0]	n/a	FR1	1	R1171M
2215.037	0.466	2223909	REC_WORD_VV	0.466	n/a	<>	-999	15	[0, 0, 0]	n/a	FR1	1	R1171M
2215.503	9.78	2224375	REC_END	n/a	n/a	n/a	-999	15	[0, 0, 0]	n/a	FR1	1	R1171M
2225.283	0.5	2234154	TRIAL	n/a	n/a	n/a	-999	16	[0, 0, 0]	n/a	FR1	1	R1171M
2225.783	10.428	2234654	COUNTDOWN_START	n/a	n/a	n/a	-999	16	[0, 0, 0]	n/a	FR1	1	R1171M
2236.211	0.007	2245082	COUNTDOWN_END	n/a	n/a	n/a	-999	16	[0, 0, 0]	n/a	FR1	1	R1171M
2236.218	1.617	2245089	ORIENT	n/a	n/a	n/a	-999	16	[0, 0, 0]	n/a	FR1	1	R1171M
2237.835	2.167	2246706	ORIENT_OFF	n/a	n/a	n/a	-999	16	[0, 0, 0]	n/a	FR1	1	R1171M
2240.002	1.618	2248872	WORD	n/a	wordpools/wordpool_EN.txt	BEACH	1	16	[0, 0, 0]	n/a	FR1	1	R1171M
2241.62	0.766	2250490	WORD_OFF	n/a	n/a	BEACH	1	16	[0, 0, 0]	n/a	FR1	1	R1171M
2242.386	1.617	2251256	WORD	n/a	wordpools/wordpool_EN.txt	BOARD	2	16	[0, 0, 0]	n/a	FR1	1	R1171M
2244.003	0.784	2252873	WORD_OFF	n/a	n/a	BOARD	2	16	[0, 0, 0]	n/a	FR1	1	R1171M
2244.787	1.616	2253657	WORD	n/a	wordpools/wordpool_EN.txt	BAND	3	16	[0, 0, 0]	n/a	FR1	1	R1171M
2246.403	1.001	2255273	WORD_OFF	n/a	n/a	BAND	3	16	[0, 0, 0]	n/a	FR1	1	R1171M
2247.404	1.617	2256274	WORD	n/a	wordpools/wordpool_EN.txt	BEE	4	16	[0, 0, 0]	n/a	FR1	1	R1171M
2249.021	0.933	2257891	WORD_OFF	n/a	n/a	BEE	4	16	[0, 0, 0]	n/a	FR1	1	R1171M
2249.954	1.601	2258824	WORD	n/a	wordpools/wordpool_EN.txt	MOUSE	5	16	[0, 0, 0]	n/a	FR1	1	R1171M
2251.555	0.883	2260425	WORD_OFF	n/a	n/a	MOUSE	5	16	[0, 0, 0]	n/a	FR1	1	R1171M
2252.438	1.617	2261308	WORD	n/a	wordpools/wordpool_EN.txt	SPARK	6	16	[0, 0, 0]	n/a	FR1	1	R1171M
2254.055	0.9	2262925	WORD_OFF	n/a	n/a	SPARK	6	16	[0, 0, 0]	n/a	FR1	1	R1171M
2254.955	1.618	2263825	WORD	n/a	wordpools/wordpool_EN.txt	HOOK	7	16	[0, 0, 0]	n/a	FR1	1	R1171M
2256.573	0.967	2265443	WORD_OFF	n/a	n/a	HOOK	7	16	[0, 0, 0]	n/a	FR1	1	R1171M
2257.54	1.616	2266409	WORD	n/a	wordpools/wordpool_EN.txt	ROOM	8	16	[0, 0, 0]	n/a	FR1	1	R1171M
2259.156	1.0	2268025	WORD_OFF	n/a	n/a	ROOM	8	16	[0, 0, 0]	n/a	FR1	1	R1171M
2260.156	1.618	2269025	WORD	n/a	wordpools/wordpool_EN.txt	STORM	9	16	[0, 0, 0]	n/a	FR1	1	R1171M
2261.774	0.783	2270643	WORD_OFF	n/a	n/a	STORM	9	16	[0, 0, 0]	n/a	FR1	1	R1171M
2262.557	1.617	2271426	WORD	n/a	wordpools/wordpool_EN.txt	DART	10	16	[0, 0, 0]	n/a	FR1	1	R1171M
2264.174	0.833	2273043	WORD_OFF	n/a	n/a	DART	10	16	[0, 0, 0]	n/a	FR1	1	R1171M
2265.007	1.618	2273876	WORD	n/a	wordpools/wordpool_EN.txt	BRIDGE	11	16	[0, 0, 0]	n/a	FR1	1	R1171M
2266.625	0.95	2275494	WORD_OFF	n/a	n/a	BRIDGE	11	16	[0, 0, 0]	n/a	FR1	1	R1171M
2267.575	1.616	2276444	WORD	n/a	wordpools/wordpool_EN.txt	FLAG	12	16	[0, 0, 0]	n/a	FR1	1	R1171M
2269.191	0.0	2278060	WORD_OFF	n/a	n/a	FLAG	12	16	[0, 0, 0]	n/a	FR1	1	R1171M
2269.191	0.001	2278060	DISTRACT_START	n/a	n/a	n/a	-999	16	[0, 0, 0]	n/a	FR1	1	R1171M
2269.192	0.016	2278061	START	n/a	n/a	n/a	-999	16	[-999, -999, -999]	n/a	FR1	1	R1171M
2269.208	13.119	2278077	PROB	13.119	n/a	n/a	-999	16	[3, 3, 1]	7	FR1	1	R1171M
2282.327	13.62	2291195	PROB	13.62	n/a	n/a	-999	16	[8, 4, 4]	16	FR1	1	R1171M
2295.947	0.016	2304814	STOP	n/a	n/a	n/a	-999	16	[-999, -999, -999]	n/a	FR1	1	R1171M
2295.963	0.618	2304830	DISTRACT_END	n/a	n/a	n/a	-999	16	[0, 0, 0]	n/a	FR1	1	R1171M
2296.581	0.516	2305448	RETRIEVAL_ORIENT	n/a	n/a	n/a	-999	16	[0, 0, 0]	n/a	FR1	1	R1171M
2297.097	0.394	2305964	REC_START	n/a	n/a	n/a	-999	16	[0, 0, 0]	n/a	FR1	1	R1171M
2297.491	1.496	2306358	REC_WORD	1.496	n/a	STORM	9	16	[0, 0, 0]	n/a	FR1	1	R1171M
2298.987	1.48	2307854	REC_WORD	1.48	n/a	DART	10	16	[0, 0, 0]	n/a	FR1	1	R1171M
2300.467	1.0	2309334	REC_WORD	1.0	n/a	BRIDGE	11	16	[0, 0, 0]	n/a	FR1	1	R1171M
2301.467	3.802	2310334	REC_WORD_VV	3.802	n/a	<>	-999	16	[0, 0, 0]	n/a	FR1	1	R1171M
2305.269	1.002	2314136	REC_WORD_VV	1.002	n/a	<>	-999	16	[0, 0, 0]	n/a	FR1	1	R1171M
2306.271	0.999	2315138	REC_WORD_VV	0.999	n/a	<>	-999	16	[0, 0, 0]	n/a	FR1	1	R1171M
2307.27	2.098	2316137	REC_WORD_VV	2.098	n/a	<>	-999	16	[0, 0, 0]	n/a	FR1	1	R1171M
2309.368	3.505	2318235	REC_WORD_VV	3.505	n/a	<>	-999	16	[0, 0, 0]	n/a	FR1	1	R1171M
2312.873	1.0	2321739	REC_WORD_VV	1.0	n/a	<>	-999	16	[0, 0, 0]	n/a	FR1	1	R1171M
2313.873	12.34	2322739	REC_WORD_VV	12.34	n/a	<>	-999	16	[0, 0, 0]	n/a	FR1	1	R1171M
2326.213	0.895	2335079	REC_WORD_VV	0.895	n/a	<>	-999	16	[0, 0, 0]	n/a	FR1	1	R1171M
2327.108	12.864	2335974	REC_END	n/a	n/a	n/a	-999	16	[0, 0, 0]	n/a	FR1	1	R1171M
2339.972	0.5	2348837	TRIAL	n/a	n/a	n/a	-999	17	[0, 0, 0]	n/a	FR1	1	R1171M
2340.472	10.428	2349337	COUNTDOWN_START	n/a	n/a	n/a	-999	17	[0, 0, 0]	n/a	FR1	1	R1171M
2350.9	0.007	2359764	COUNTDOWN_END	n/a	n/a	n/a	-999	17	[0, 0, 0]	n/a	FR1	1	R1171M
2350.907	1.618	2359771	ORIENT	n/a	n/a	n/a	-999	17	[0, 0, 0]	n/a	FR1	1	R1171M
2352.525	2.217	2361389	ORIENT_OFF	n/a	n/a	n/a	-999	17	[0, 0, 0]	n/a	FR1	1	R1171M
2354.742	1.616	2363606	WORD	n/a	wordpools/wordpool_EN.txt	OWL	1	17	[0, 0, 0]	n/a	FR1	1	R1171M
2356.358	0.867	2365222	WORD_OFF	n/a	n/a	OWL	1	17	[0, 0, 0]	n/a	FR1	1	R1171M
2357.225	1.617	2366089	WORD	n/a	wordpools/wordpool_EN.txt	BOWL	2	17	[0, 0, 0]	n/a	FR1	1	R1171M
2358.842	0.818	2367706	WORD_OFF	n/a	n/a	BOWL	2	17	[0, 0, 0]	n/a	FR1	1	R1171M
2359.66	1.616	2368524	WORD	n/a	wordpools/wordpool_EN.txt	BOX	3	17	[0, 0, 0]	n/a	FR1	1	R1171M
2361.276	0.95	2370140	WORD_OFF	n/a	n/a	BOX	3	17	[0, 0, 0]	n/a	FR1	1	R1171M
2362.226	1.617	2371090	WORD	n/a	wordpools/wordpool_EN.txt	CHIN	4	17	[0, 0, 0]	n/a	FR1	1	R1171M
2363.843	0.918	2372706	WORD_OFF	n/a	n/a	CHIN	4	17	[0, 0, 0]	n/a	FR1	1	R1171M
2364.761	1.615	2373624	WORD	n/a	wordpools/wordpool_EN.txt	WHEEL	5	17	[0, 0, 0]	n/a	FR1	1	R1171M
2366.376	0.801	2375239	WORD_OFF	n/a	n/a	WHEEL	5	17	[0, 0, 0]	n/a	FR1	1	R1171M
2367.177	1.618	2376040	WORD	n/a	wordpools/wordpool_EN.txt	OAK	6	17	[0, 0, 0]	n/a	FR1	1	R1171M
2368.795	0.983	2377658	WORD_OFF	n/a	n/a	OAK	6	17	[0, 0, 0]	n/a	FR1	1	R1171M
2369.778	1.616	2378641	WORD	n/a	wordpools/wordpool_EN.txt	SPRING	7	17	[0, 0, 0]	n/a	FR1	1	R1171M
2371.394	0.901	2380257	WORD_OFF	n/a	n/a	SPRING	7	17	[0, 0, 0]	n/a	FR1	1	R1171M
2372.295	1.617	2381158	WORD	n/a	wordpools/wordpool_EN.txt	HORN	8	17	[0, 0, 0]	n/a	FR1	1	R1171M
2373.912	0.983	2382775	WORD_OFF	n/a	n/a	HORN	8	17	[0, 0, 0]	n/a	FR1	1	R1171M
2374.895	1.618	2383758	WORD	n/a	wordpools/wordpool_EN.txt	TRUCK	9	17	[0, 0, 0]	n/a	FR1	1	R1171M
2376.513	0.833	2385376	WORD_OFF	n/a	n/a	TRUCK	9	17	[0, 0, 0]	n/a	FR1	1	R1171M
2377.346	1.617	2386209	WORD	n/a	wordpools/wordpool_EN.txt	DOG	10	17	[0, 0, 0]	n/a	FR1	1	R1171M
2378.963	0.883	2387826	WORD_OFF	n/a	n/a	DOG	10	17	[0, 0, 0]	n/a	FR1	1	R1171M
2379.846	1.618	2388709	WORD	n/a	wordpools/wordpool_EN.txt	SHRIMP	11	17	[0, 0, 0]	n/a	FR1	1	R1171M
2381.464	0.799	2390326	WORD_OFF	n/a	n/a	SHRIMP	11	17	[0, 0, 0]	n/a	FR1	1	R1171M
2382.263	1.617	2391125	WORD	n/a	wordpools/wordpool_EN.txt	KITE	12	17	[0, 0, 0]	n/a	FR1	1	R1171M
2383.88	0.0	2392742	WORD_OFF	n/a	n/a	KITE	12	17	[0, 0, 0]	n/a	FR1	1	R1171M
2383.88	0.001	2392742	DISTRACT_START	n/a	n/a	n/a	-999	17	[0, 0, 0]	n/a	FR1	1	R1171M
2383.881	0.016	2392743	START	n/a	n/a	n/a	-999	17	[-999, -999, -999]	n/a	FR1	1	R1171M
2383.897	15.186	2392759	PROB	15.186	n/a	n/a	-999	17	[5, 1, 8]	14	FR1	1	R1171M
2399.083	10.393	2407944	PROB	10.393	n/a	n/a	-999	17	[6, 2, 2]	10	FR1	1	R1171M
2409.476	0.01	2418337	STOP	n/a	n/a	n/a	-999	17	[-999, -999, -999]	n/a	FR1	1	R1171M
2409.486	0.666	2418347	DISTRACT_END	n/a	n/a	n/a	-999	17	[0, 0, 0]	n/a	FR1	1	R1171M
2410.152	0.518	2419013	RETRIEVAL_ORIENT	n/a	n/a	n/a	-999	17	[0, 0, 0]	n/a	FR1	1	R1171M
2410.67	1.64	2419531	REC_START	n/a	n/a	n/a	-999	17	[0, 0, 0]	n/a	FR1	1	R1171M
2412.31	1.208	2421171	REC_WORD	1.208	n/a	HOLE	-999	17	[0, 0, 0]	n/a	FR1	1	R1171M
2413.518	1.071	2422379	REC_WORD_VV	1.071	n/a	<>	-999	17	[0, 0, 0]	n/a	FR1	1	R1171M
2414.589	3.19	2423450	REC_WORD	3.19	n/a	HOLE	-999	17	[0, 0, 0]	n/a	FR1	1	R1171M
2417.779	1.0	2426639	REC_WORD_VV	1.0	n/a	<>	-999	17	[0, 0, 0]	n/a	FR1	1	R1171M
2418.779	1.0	2427639	REC_WORD_VV	1.0	n/a	<>	-999	17	[0, 0, 0]	n/a	FR1	1	R1171M
2419.779	1.987	2428639	REC_WORD_VV	1.987	n/a	<>	-999	17	[0, 0, 0]	n/a	FR1	1	R1171M
2421.766	1.452	2430626	REC_WORD_VV	1.452	n/a	<>	-999	17	[0, 0, 0]	n/a	FR1	1	R1171M
2423.218	0.84	2432078	REC_WORD_VV	0.84	n/a	<>	-999	17	[0, 0, 0]	n/a	FR1	1	R1171M
2424.058	3.278	2432918	REC_WORD_VV	3.278	n/a	<>	-999	17	[0, 0, 0]	n/a	FR1	1	R1171M
2427.336	4.426	2436196	REC_WORD_VV	4.426	n/a	<>	-999	17	[0, 0, 0]	n/a	FR1	1	R1171M
2431.762	2.9	2440622	REC_WORD	2.9	n/a	OWL	1	17	[0, 0, 0]	n/a	FR1	1	R1171M
2434.662	0.444	2443521	REC_WORD	0.444	n/a	HOLE	-999	17	[0, 0, 0]	n/a	FR1	1	R1171M
2435.106	0.714	2443965	REC_WORD	0.714	n/a	OWL	1	17	[0, 0, 0]	n/a	FR1	1	R1171M
2435.82	0.853	2444679	REC_WORD	0.853	n/a	HORN	8	17	[0, 0, 0]	n/a	FR1	1	R1171M
2436.673	0.859	2445532	REC_WORD	0.859	n/a	HORN	8	17	[0, 0, 0]	n/a	FR1	1	R1171M
2437.532	0.643	2446391	REC_WORD_VV	0.643	n/a	<>	-999	17	[0, 0, 0]	n/a	FR1	1	R1171M
2438.175	1.99	2447034	REC_WORD_VV	1.99	n/a	<>	-999	17	[0, 0, 0]	n/a	FR1	1	R1171M
2440.165	0.518	2449024	REC_WORD_VV	0.518	n/a	<>	-999	17	[0, 0, 0]	n/a	FR1	1	R1171M
2440.683	9.16	2449542	REC_END	n/a	n/a	n/a	-999	17	[0, 0, 0]	n/a	FR1	1	R1171M
2449.843	0.5	2458702	TRIAL	n/a	n/a	n/a	-999	18	[0, 0, 0]	n/a	FR1	1	R1171M
2450.343	10.428	2459202	COUNTDOWN_START	n/a	n/a	n/a	-999	18	[0, 0, 0]	n/a	FR1	1	R1171M
2460.771	0.009	2469629	COUNTDOWN_END	n/a	n/a	n/a	-999	18	[0, 0, 0]	n/a	FR1	1	R1171M
2460.78	1.615	2469638	ORIENT	n/a	n/a	n/a	-999	18	[0, 0, 0]	n/a	FR1	1	R1171M
2462.395	1.968	2471253	ORIENT_OFF	n/a	n/a	n/a	-999	18	[0, 0, 0]	n/a	FR1	1	R1171M
2464.363	1.617	2473221	WORD	n/a	wordpools/wordpool_EN.txt	ARM	1	18	[0, 0, 0]	n/a	FR1	1	R1171M
2465.98	0.866	2474838	WORD_OFF	n/a	n/a	ARM	1	18	[0, 0, 0]	n/a	FR1	1	R1171M
2466.846	1.618	2475704	WORD	n/a	wordpools/wordpool_EN.txt	MOOSE	2	18	[0, 0, 0]	n/a	FR1	1	R1171M
2468.464	0.883	2477321	WORD_OFF	n/a	n/a	MOOSE	2	18	[0, 0, 0]	n/a	FR1	1	R1171M
2469.347	1.617	2478204	WORD	n/a	wordpools/wordpool_EN.txt	FOX	3	18	[0, 0, 0]	n/a	FR1	1	R1171M
2470.964	0.851	2479821	WORD_OFF	n/a	n/a	FOX	3	18	[0, 0, 0]	n/a	FR1	1	R1171M
2471.815	1.616	2480672	WORD	n/a	wordpools/wordpool_EN.txt	KEY	4	18	[0, 0, 0]	n/a	FR1	1	R1171M
2473.431	0.917	2482288	WORD_OFF	n/a	n/a	KEY	4	18	[0, 0, 0]	n/a	FR1	1	R1171M
2474.348	1.617	2483205	WORD	n/a	wordpools/wordpool_EN.txt	DOLL	5	18	[0, 0, 0]	n/a	FR1	1	R1171M
2475.965	0.883	2484822	WORD_OFF	n/a	n/a	DOLL	5	18	[0, 0, 0]	n/a	FR1	1	R1171M
2476.848	1.618	2485705	WORD	n/a	wordpools/wordpool_EN.txt	MOON	6	18	[0, 0, 0]	n/a	FR1	1	R1171M
2478.466	0.966	2487323	WORD_OFF	n/a	n/a	MOON	6	18	[0, 0, 0]	n/a	FR1	1	R1171M
2479.432	1.617	2488289	WORD	n/a	wordpools/wordpool_EN.txt	CAKE	7	18	[0, 0, 0]	n/a	FR1	1	R1171M
2481.049	0.967	2489906	WORD_OFF	n/a	n/a	CAKE	7	18	[0, 0, 0]	n/a	FR1	1	R1171M
2482.016	1.601	2490873	WORD	n/a	wordpools/wordpool_EN.txt	PIT	8	18	[0, 0, 0]	n/a	FR1	1	R1171M
2483.617	0.984	2492474	WORD_OFF	n/a	n/a	PIT	8	18	[0, 0, 0]	n/a	FR1	1	R1171M
2484.601	1.616	2493458	WORD	n/a	wordpools/wordpool_EN.txt	GRASS	9	18	[0, 0, 0]	n/a	FR1	1	R1171M
2486.217	0.8	2495073	WORD_OFF	n/a	n/a	GRASS	9	18	[0, 0, 0]	n/a	FR1	1	R1171M
2487.017	1.618	2495873	WORD	n/a	wordpools/wordpool_EN.txt	TEA	10	18	[0, 0, 0]	n/a	FR1	1	R1171M
2488.635	0.799	2497491	WORD_OFF	n/a	n/a	TEA	10	18	[0, 0, 0]	n/a	FR1	1	R1171M
2489.434	1.617	2498290	WORD	n/a	wordpools/wordpool_EN.txt	MOLE	11	18	[0, 0, 0]	n/a	FR1	1	R1171M
2491.051	0.8	2499907	WORD_OFF	n/a	n/a	MOLE	11	18	[0, 0, 0]	n/a	FR1	1	R1171M
2491.851	1.601	2500707	WORD	n/a	wordpools/wordpool_EN.txt	DOOR	12	18	[0, 0, 0]	n/a	FR1	1	R1171M
2493.452	0.0	2502308	WORD_OFF	n/a	n/a	DOOR	12	18	[0, 0, 0]	n/a	FR1	1	R1171M
2493.452	0.001	2502308	DISTRACT_START	n/a	n/a	n/a	-999	18	[0, 0, 0]	n/a	FR1	1	R1171M
2493.453	0.016	2502309	START	n/a	n/a	n/a	-999	18	[-999, -999, -999]	n/a	FR1	1	R1171M
2493.469	15.12	2502325	PROB	15.12	n/a	n/a	-999	18	[3, 6, 9]	18	FR1	1	R1171M
2508.589	6.127	2517444	PROB	6.127	n/a	n/a	-999	18	[9, 1, 4]	14	FR1	1	R1171M
2514.716	0.007	2523571	STOP	n/a	n/a	n/a	-999	18	[-999, -999, -999]	n/a	FR1	1	R1171M
2514.723	0.533	2523578	DISTRACT_END	n/a	n/a	n/a	-999	18	[0, 0, 0]	n/a	FR1	1	R1171M
2515.256	0.518	2524111	RETRIEVAL_ORIENT	n/a	n/a	n/a	-999	18	[0, 0, 0]	n/a	FR1	1	R1171M
2515.774	2.961	2524629	REC_START	n/a	n/a	n/a	-999	18	[0, 0, 0]	n/a	FR1	1	R1171M
2518.735	0.999	2527590	REC_WORD_VV	0.999	n/a	<>	-999	18	[0, 0, 0]	n/a	FR1	1	R1171M
2519.734	0.494	2528589	REC_WORD_VV	0.494	n/a	<>	-999	18	[0, 0, 0]	n/a	FR1	1	R1171M
2520.228	1.244	2529083	REC_WORD	1.244	n/a	OWL	-999	18	[0, 0, 0]	n/a	FR1	1	R1171M
2521.472	0.998	2530326	REC_WORD	0.998	n/a	MOOSE	2	18	[0, 0, 0]	n/a	FR1	1	R1171M
2522.47	0.773	2531324	REC_WORD_VV	0.773	n/a	<>	-999	18	[0, 0, 0]	n/a	FR1	1	R1171M
2523.243	1.0	2532097	REC_WORD	1.0	n/a	FOX	3	18	[0, 0, 0]	n/a	FR1	1	R1171M
2524.243	0.641	2533097	REC_WORD_VV	0.641	n/a	<>	-999	18	[0, 0, 0]	n/a	FR1	1	R1171M
2524.884	2.054	2533738	REC_WORD	2.054	n/a	PIT	8	18	[0, 0, 0]	n/a	FR1	1	R1171M
2526.938	1.0	2535792	REC_WORD_VV	1.0	n/a	<>	-999	18	[0, 0, 0]	n/a	FR1	1	R1171M
2527.938	0.999	2536792	REC_WORD_VV	0.999	n/a	<>	-999	18	[0, 0, 0]	n/a	FR1	1	R1171M
2528.937	8.746	2537791	REC_WORD_VV	8.746	n/a	<>	-999	18	[0, 0, 0]	n/a	FR1	1	R1171M
2537.683	0.996	2546537	REC_WORD_VV	0.996	n/a	<>	-999	18	[0, 0, 0]	n/a	FR1	1	R1171M
2538.679	0.726	2547532	REC_WORD_VV	0.726	n/a	<>	-999	18	[0, 0, 0]	n/a	FR1	1	R1171M
2539.405	2.646	2548258	REC_WORD_VV	2.646	n/a	<>	-999	18	[0, 0, 0]	n/a	FR1	1	R1171M
2542.051	3.733	2550904	REC_WORD_VV	3.733	n/a	<>	-999	18	[0, 0, 0]	n/a	FR1	1	R1171M
2545.784	0.0	2554637	REC_END	n/a	n/a	n/a	-999	18	[0, 0, 0]	n/a	FR1	1	R1171M
