onset	duration	sample	trial_type	response_time	stim_file	item_name	serialpos	list	test	answer	experiment	session	subject
0.0	30.688	563	INSTRUCT_START	n/a	n/a	n/a	-999	-999	[0, 0, 0]	n/a	FR1	1	R1328E
30.688	3.499	31250	INSTRUCT_END	n/a	n/a	n/a	-999	-999	[0, 0, 0]	n/a	FR1	1	R1328E
34.187	13.587	34749	MIC TEST_START	n/a	n/a	n/a	-999	-999	[0, 0, 0]	n/a	FR1	1	R1328E
47.774	0.01	48335	MIC TEST_END	n/a	n/a	n/a	-999	-999	[0, 0, 0]	n/a	FR1	1	R1328E
47.784	0.0	48345	TRIAL_START	n/a	n/a	n/a	-999	-1	[0, 0, 0]	n/a	FR1	1	R1328E
47.784	0.001	48345	TRIAL	n/a	n/a	n/a	-999	-1	[0, 0, 0]	n/a	FR1	1	R1328E
47.785	6.79	48346	WAITING_START	n/a	n/a	n/a	-999	-1	[0, 0, 0]	n/a	FR1	1	R1328E
54.575	0.001	55136	WAITING_END	n/a	n/a	n/a	-999	-1	[0, 0, 0]	n/a	FR1	1	R1328E
54.576	10.429	55137	COUNTDOWN_START	n/a	n/a	n/a	-999	-1	[0, 0, 0]	n/a	FR1	1	R1328E
65.005	0.0	65566	COUNTDOWN_END	n/a	n/a	n/a	-999	-1	[0, 0, 0]	n/a	FR1	1	R1328E
65.005	1.055	65566	ORIENT_START	n/a	n/a	n/a	-999	-1	[0, 0, 0]	n/a	FR1	1	R1328E
66.06	0.001	66620	ORIENT_END	n/a	n/a	n/a	-999	-1	[0, 0, 0]	n/a	FR1	1	R1328E
66.061	0.839	66621	ENCODING_START	n/a	n/a	n/a	-999	-1	[0, 0, 0]	n/a	FR1	1	R1328E
66.9	1.627	67460	WORD	n/a	n/a	COTTON	1	-1	[0, 0, 0]	n/a	FR1	1	R1328E
68.527	0.857	69087	WORD_OFF	n/a	n/a	COTTON	1	-1	[0, 0, 0]	n/a	FR1	1	R1328E
69.384	1.627	69944	WORD	n/a	n/a	CAMEL	2	-1	[0, 0, 0]	n/a	FR1	1	R1328E
71.011	0.897	71571	WORD_OFF	n/a	n/a	CAMEL	2	-1	[0, 0, 0]	n/a	FR1	1	R1328E
71.908	1.637	72468	WORD	n/a	n/a	FLOOD	3	-1	[0, 0, 0]	n/a	FR1	1	R1328E
73.545	1.139	74105	WORD_OFF	n/a	n/a	FLOOD	3	-1	[0, 0, 0]	n/a	FR1	1	R1328E
74.684	1.628	75244	WORD	n/a	n/a	BEAM	4	-1	[0, 0, 0]	n/a	FR1	1	R1328E
76.312	0.811	76872	WORD_OFF	n/a	n/a	BEAM	4	-1	[0, 0, 0]	n/a	FR1	1	R1328E
77.123	1.623	77683	WORD	n/a	n/a	BABY	5	-1	[0, 0, 0]	n/a	FR1	1	R1328E
78.746	0.792	79306	WORD_OFF	n/a	n/a	BABY	5	-1	[0, 0, 0]	n/a	FR1	1	R1328E
79.538	1.624	80098	WORD	n/a	n/a	CHEST	6	-1	[0, 0, 0]	n/a	FR1	1	R1328E
81.162	0.816	81722	WORD_OFF	n/a	n/a	CHEST	6	-1	[0, 0, 0]	n/a	FR1	1	R1328E
81.978	1.636	82538	WORD	n/a	n/a	IMAGE	7	-1	[0, 0, 0]	n/a	FR1	1	R1328E
83.614	0.869	84174	WORD_OFF	n/a	n/a	IMAGE	7	-1	[0, 0, 0]	n/a	FR1	1	R1328E
84.483	1.63	85043	WORD	n/a	n/a	RING	8	-1	[0, 0, 0]	n/a	FR1	1	R1328E
86.113	0.877	86673	WORD_OFF	n/a	n/a	RING	8	-1	[0, 0, 0]	n/a	FR1	1	R1328E
86.99	1.624	87550	WORD	n/a	n/a	WATCH	9	-1	[0, 0, 0]	n/a	FR1	1	R1328E
88.614	1.075	89174	WORD_OFF	n/a	n/a	WATCH	9	-1	[0, 0, 0]	n/a	FR1	1	R1328E
89.689	1.626	90249	WORD	n/a	n/a	RHINO	10	-1	[0, 0, 0]	n/a	FR1	1	R1328E
91.315	0.987	91875	WORD_OFF	n/a	n/a	RHINO	10	-1	[0, 0, 0]	n/a	FR1	1	R1328E
92.302	1.63	92862	WORD	n/a	n/a	WAGON	11	-1	[0, 0, 0]	n/a	FR1	1	R1328E
93.932	1.116	94492	WORD_OFF	n/a	n/a	WAGON	11	-1	[0, 0, 0]	n/a	FR1	1	R1328E
95.048	1.634	95607	WORD	n/a	n/a	TONGUE	12	-1	[0, 0, 0]	n/a	FR1	1	R1328E
96.682	0.001	97241	WORD_OFF	n/a	n/a	TONGUE	12	-1	[0, 0, 0]	n/a	FR1	1	R1328E
96.683	0.0	97242	ENCODING_END	n/a	n/a	n/a	-999	-1	[0, 0, 0]	n/a	FR1	1	R1328E
96.683	0.0	97242	DISTRACT_START	n/a	n/a	n/a	-999	-1	[0, 0, 0]	n/a	FR1	1	R1328E
96.683	0.016	97242	START	n/a	n/a	n/a	-999	-1	[-999, -999, -999]	n/a	FR1	1	R1328E
96.699	16.853	97258	PROB	16.853	n/a	n/a	-999	-1	[6, 7, 5]	18	FR1	1	R1328E
113.552	11.189	114111	PROB	11.189	n/a	n/a	-999	-1	[9, 4, 9]	22	FR1	1	R1328E
124.741	0.013	125299	STOP	n/a	n/a	n/a	-999	-1	[-999, -999, -999]	n/a	FR1	1	R1328E
124.754	0.586	125312	DISTRACT_END	n/a	n/a	n/a	-999	-1	[0, 0, 0]	n/a	FR1	1	R1328E
125.34	1.581	125898	RETRIEVAL_ORIENT_START	n/a	n/a	n/a	-999	-1	[0, 0, 0]	n/a	FR1	1	R1328E
126.921	0.0	127479	RETRIEVAL_ORIENT_END	n/a	n/a	n/a	-999	-1	[0, 0, 0]	n/a	FR1	1	R1328E
126.921	0.512	127479	REC_START	n/a	n/a	n/a	-999	-1	[0, 0, 0]	n/a	FR1	1	R1328E
127.433	2.374	127991	REC_WORD	2.374	n/a	CAMEL	-999	-1	[0, 0, 0]	n/a	FR1	1	R1328E
129.807	9.368	130365	REC_WORD	9.368	n/a	TONGUE	-999	-1	[0, 0, 0]	n/a	FR1	1	R1328E
139.175	3.144	139733	REC_WORD	3.144	n/a	RHINO	-999	-1	[0, 0, 0]	n/a	FR1	1	R1328E
142.319	14.614	142877	REC_WORD	14.614	n/a	CHEST	-999	-1	[0, 0, 0]	n/a	FR1	1	R1328E
156.933	0.0	157490	REC_END	n/a	n/a	n/a	-999	-1	[0, 0, 0]	n/a	FR1	1	R1328E
156.933	6.128	157490	PRACTICE_POST_INSTRUCT_START	n/a	n/a	n/a	-999	-1	[0, 0, 0]	n/a	FR1	1	R1328E
163.061	0.001	163618	PRACTICE_POST_INSTRUCT_END	n/a	n/a	n/a	-999	-1	[0, 0, 0]	n/a	FR1	1	R1328E
163.062	0.018	163619	TRIAL_END	n/a	n/a	n/a	-999	-1	[0, 0, 0]	n/a	FR1	1	R1328E
163.08	0.001	163637	TRIAL_START	n/a	n/a	n/a	-999	1	[0, 0, 0]	n/a	FR1	1	R1328E
163.081	0.0	163638	TRIAL	n/a	n/a	n/a	-999	1	[0, 0, 0]	n/a	FR1	1	R1328E
163.081	2.847	163638	WAITING_START	n/a	n/a	n/a	-999	1	[0, 0, 0]	n/a	FR1	1	R1328E
165.928	0.0	166485	COUNTDOWN_START	n/a	n/a	n/a	-999	1	[0, 0, 0]	n/a	FR1	1	R1328E
165.928	10.429	166485	WAITING_END	n/a	n/a	n/a	-999	1	[0, 0, 0]	n/a	FR1	1	R1328E
176.357	0.0	176914	COUNTDOWN_END	n/a	n/a	n/a	-999	1	[0, 0, 0]	n/a	FR1	1	R1328E
176.357	1.039	176914	ORIENT_START	n/a	n/a	n/a	-999	1	[0, 0, 0]	n/a	FR1	1	R1328E
177.396	0.001	177953	ORIENT_END	n/a	n/a	n/a	-999	1	[0, 0, 0]	n/a	FR1	1	R1328E
177.397	0.925	177954	ENCODING_START	n/a	n/a	n/a	-999	1	[0, 0, 0]	n/a	FR1	1	R1328E
178.322	1.625	178879	WORD	n/a	n/a	BOOT	1	1	[0, 0, 0]	n/a	FR1	1	R1328E
179.947	0.934	180503	WORD_OFF	n/a	n/a	BOOT	1	1	[0, 0, 0]	n/a	FR1	1	R1328E
180.881	1.633	181437	WORD	n/a	n/a	CUBE	2	1	[0, 0, 0]	n/a	FR1	1	R1328E
182.514	1.085	183070	WORD_OFF	n/a	n/a	CUBE	2	1	[0, 0, 0]	n/a	FR1	1	R1328E
183.599	1.631	184155	WORD	n/a	n/a	HOSE	3	1	[0, 0, 0]	n/a	FR1	1	R1328E
185.23	1.023	185786	WORD_OFF	n/a	n/a	HOSE	3	1	[0, 0, 0]	n/a	FR1	1	R1328E
186.253	1.629	186809	WORD	n/a	n/a	SPRING	4	1	[0, 0, 0]	n/a	FR1	1	R1328E
187.882	0.798	188438	WORD_OFF	n/a	n/a	SPRING	4	1	[0, 0, 0]	n/a	FR1	1	R1328E
188.68	1.635	189236	WORD	n/a	n/a	SEAL	5	1	[0, 0, 0]	n/a	FR1	1	R1328E
190.315	0.885	190871	WORD_OFF	n/a	n/a	SEAL	5	1	[0, 0, 0]	n/a	FR1	1	R1328E
191.2	1.633	191756	WORD	n/a	n/a	HOOF	6	1	[0, 0, 0]	n/a	FR1	1	R1328E
192.833	1.144	193389	WORD_OFF	n/a	n/a	HOOF	6	1	[0, 0, 0]	n/a	FR1	1	R1328E
193.977	1.623	194533	WORD	n/a	n/a	ROPE	7	1	[0, 0, 0]	n/a	FR1	1	R1328E
195.6	1.088	196156	WORD_OFF	n/a	n/a	ROPE	7	1	[0, 0, 0]	n/a	FR1	1	R1328E
196.688	1.629	197244	WORD	n/a	n/a	CHIEF	8	1	[0, 0, 0]	n/a	FR1	1	R1328E
198.317	0.948	198873	WORD_OFF	n/a	n/a	CHIEF	8	1	[0, 0, 0]	n/a	FR1	1	R1328E
199.265	1.636	199821	WORD	n/a	n/a	MOUTH	9	1	[0, 0, 0]	n/a	FR1	1	R1328E
200.901	1.02	201457	WORD_OFF	n/a	n/a	MOUTH	9	1	[0, 0, 0]	n/a	FR1	1	R1328E
201.921	1.63	202477	WORD	n/a	n/a	SOAP	10	1	[0, 0, 0]	n/a	FR1	1	R1328E
203.551	0.813	204107	WORD_OFF	n/a	n/a	SOAP	10	1	[0, 0, 0]	n/a	FR1	1	R1328E
204.364	1.621	204920	WORD	n/a	n/a	JAIL	11	1	[0, 0, 0]	n/a	FR1	1	R1328E
205.985	1.074	206541	WORD_OFF	n/a	n/a	JAIL	11	1	[0, 0, 0]	n/a	FR1	1	R1328E
207.059	1.626	207615	WORD	n/a	n/a	SCHOOL	12	1	[0, 0, 0]	n/a	FR1	1	R1328E
208.685	0.001	209240	WORD_OFF	n/a	n/a	SCHOOL	12	1	[0, 0, 0]	n/a	FR1	1	R1328E
208.686	0.0	209241	ENCODING_END	n/a	n/a	n/a	-999	1	[0, 0, 0]	n/a	FR1	1	R1328E
208.686	0.0	209241	DISTRACT_START	n/a	n/a	n/a	-999	1	[0, 0, 0]	n/a	FR1	1	R1328E
208.686	0.016	209241	START	n/a	n/a	n/a	-999	1	[-999, -999, -999]	n/a	FR1	1	R1328E
208.702	9.55	209257	PROB	9.55	n/a	n/a	-999	1	[4, 7, 3]	17	FR1	1	R1328E
218.252	18.864	218807	PROB	18.864	n/a	n/a	-999	1	[6, 5, 8]	19	FR1	1	R1328E
237.116	0.006	237670	STOP	n/a	n/a	n/a	-999	1	[-999, -999, -999]	n/a	FR1	1	R1328E
237.122	0.596	237676	DISTRACT_END	n/a	n/a	n/a	-999	1	[0, 0, 0]	n/a	FR1	1	R1328E
237.718	1.639	238272	RETRIEVAL_ORIENT_START	n/a	n/a	n/a	-999	1	[0, 0, 0]	n/a	FR1	1	R1328E
239.357	0.0	239911	RETRIEVAL_ORIENT_END	n/a	n/a	n/a	-999	1	[0, 0, 0]	n/a	FR1	1	R1328E
239.357	0.281	239911	REC_START	n/a	n/a	n/a	-999	1	[0, 0, 0]	n/a	FR1	1	R1328E
239.638	1.484	240192	REC_WORD	1.484	n/a	HOSE	3	1	[0, 0, 0]	n/a	FR1	1	R1328E
241.122	1.375	241676	REC_WORD	1.375	n/a	BOOT	1	1	[0, 0, 0]	n/a	FR1	1	R1328E
242.497	5.408	243051	REC_WORD	5.408	n/a	SEAL	5	1	[0, 0, 0]	n/a	FR1	1	R1328E
247.905	21.465	248459	REC_WORD	21.465	n/a	STRING	-999	1	[0, 0, 0]	n/a	FR1	1	R1328E
269.37	0.0	269923	REC_END	n/a	n/a	n/a	-999	1	[0, 0, 0]	n/a	FR1	1	R1328E
269.37	0.018	269923	TRIAL_END	n/a	n/a	n/a	-999	1	[0, 0, 0]	n/a	FR1	1	R1328E
269.388	0.0	269941	TRIAL_START	n/a	n/a	n/a	-999	2	[0, 0, 0]	n/a	FR1	1	R1328E
269.388	0.0	269941	TRIAL	n/a	n/a	n/a	-999	2	[0, 0, 0]	n/a	FR1	1	R1328E
269.388	4.942	269941	WAITING_START	n/a	n/a	n/a	-999	2	[0, 0, 0]	n/a	FR1	1	R1328E
274.33	0.0	274883	COUNTDOWN_START	n/a	n/a	n/a	-999	2	[0, 0, 0]	n/a	FR1	1	R1328E
274.33	10.429	274883	WAITING_END	n/a	n/a	n/a	-999	2	[0, 0, 0]	n/a	FR1	1	R1328E
284.759	0.0	285312	COUNTDOWN_END	n/a	n/a	n/a	-999	2	[0, 0, 0]	n/a	FR1	1	R1328E
284.759	1.223	285312	ORIENT_START	n/a	n/a	n/a	-999	2	[0, 0, 0]	n/a	FR1	1	R1328E
285.982	0.0	286535	ORIENT_END	n/a	n/a	n/a	-999	2	[0, 0, 0]	n/a	FR1	1	R1328E
285.982	1.1	286535	ENCODING_START	n/a	n/a	n/a	-999	2	[0, 0, 0]	n/a	FR1	1	R1328E
287.082	1.634	287635	WORD	n/a	n/a	CLOWN	1	2	[0, 0, 0]	n/a	FR1	1	R1328E
288.716	0.77	289269	WORD_OFF	n/a	n/a	CLOWN	1	2	[0, 0, 0]	n/a	FR1	1	R1328E
289.486	1.629	290039	WORD	n/a	n/a	BLUSH	2	2	[0, 0, 0]	n/a	FR1	1	R1328E
291.115	0.984	291668	WORD_OFF	n/a	n/a	BLUSH	2	2	[0, 0, 0]	n/a	FR1	1	R1328E
292.099	1.634	292652	WORD	n/a	n/a	SIGN	3	2	[0, 0, 0]	n/a	FR1	1	R1328E
293.733	0.904	294285	WORD_OFF	n/a	n/a	SIGN	3	2	[0, 0, 0]	n/a	FR1	1	R1328E
294.637	1.63	295189	WORD	n/a	n/a	WHEEL	4	2	[0, 0, 0]	n/a	FR1	1	R1328E
296.267	1.096	296819	WORD_OFF	n/a	n/a	WHEEL	4	2	[0, 0, 0]	n/a	FR1	1	R1328E
297.363	1.621	297915	WORD	n/a	n/a	BEAK	5	2	[0, 0, 0]	n/a	FR1	1	R1328E
298.984	0.812	299536	WORD_OFF	n/a	n/a	BEAK	5	2	[0, 0, 0]	n/a	FR1	1	R1328E
299.796	1.622	300348	WORD	n/a	n/a	SWAMP	6	2	[0, 0, 0]	n/a	FR1	1	R1328E
301.418	0.926	301970	WORD_OFF	n/a	n/a	SWAMP	6	2	[0, 0, 0]	n/a	FR1	1	R1328E
302.344	1.625	302896	WORD	n/a	n/a	PANTS	7	2	[0, 0, 0]	n/a	FR1	1	R1328E
303.969	0.959	304521	WORD_OFF	n/a	n/a	PANTS	7	2	[0, 0, 0]	n/a	FR1	1	R1328E
304.928	1.624	305480	WORD	n/a	n/a	KITE	8	2	[0, 0, 0]	n/a	FR1	1	R1328E
306.552	0.912	307104	WORD_OFF	n/a	n/a	KITE	8	2	[0, 0, 0]	n/a	FR1	1	R1328E
307.464	1.621	308016	WORD	n/a	n/a	LAMP	9	2	[0, 0, 0]	n/a	FR1	1	R1328E
309.085	0.863	309637	WORD_OFF	n/a	n/a	LAMP	9	2	[0, 0, 0]	n/a	FR1	1	R1328E
309.948	1.622	310500	WORD	n/a	n/a	FRUIT	10	2	[0, 0, 0]	n/a	FR1	1	R1328E
311.57	0.984	312122	WORD_OFF	n/a	n/a	FRUIT	10	2	[0, 0, 0]	n/a	FR1	1	R1328E
312.554	1.632	313106	WORD	n/a	n/a	PEAR	11	2	[0, 0, 0]	n/a	FR1	1	R1328E
314.186	0.761	314738	WORD_OFF	n/a	n/a	PEAR	11	2	[0, 0, 0]	n/a	FR1	1	R1328E
314.947	1.624	315499	WORD	n/a	n/a	MAP	12	2	[0, 0, 0]	n/a	FR1	1	R1328E
316.571	0.0	317123	DISTRACT_START	n/a	n/a	n/a	-999	2	[0, 0, 0]	n/a	FR1	1	R1328E
316.571	0.0	317123	WORD_OFF	n/a	n/a	MAP	12	2	[0, 0, 0]	n/a	FR1	1	R1328E
316.571	0.0	317123	ENCODING_END	n/a	n/a	n/a	-999	2	[0, 0, 0]	n/a	FR1	1	R1328E
316.571	0.016	317123	START	n/a	n/a	n/a	-999	2	[-999, -999, -999]	n/a	FR1	1	R1328E
316.587	15.469	317139	PROB	15.469	n/a	n/a	-999	2	[3, 5, 4]	12	FR1	1	R1328E
332.056	16.632	332607	PROB	16.632	n/a	n/a	-999	2	[7, 1, 1]	9	FR1	1	R1328E
348.688	0.022	349239	STOP	n/a	n/a	n/a	-999	2	[-999, -999, -999]	n/a	FR1	1	R1328E
348.71	0.553	349261	DISTRACT_END	n/a	n/a	n/a	-999	2	[0, 0, 0]	n/a	FR1	1	R1328E
349.263	1.53	349814	RETRIEVAL_ORIENT_START	n/a	n/a	n/a	-999	2	[0, 0, 0]	n/a	FR1	1	R1328E
350.793	0.001	351343	RETRIEVAL_ORIENT_END	n/a	n/a	n/a	-999	2	[0, 0, 0]	n/a	FR1	1	R1328E
350.794	1.289	351344	REC_START	n/a	n/a	n/a	-999	2	[0, 0, 0]	n/a	FR1	1	R1328E
352.083	1.113	352633	REC_WORD	1.113	n/a	CLOWN	1	2	[0, 0, 0]	n/a	FR1	1	R1328E
353.196	1.424	353746	REC_WORD	1.424	n/a	BLUSH	2	2	[0, 0, 0]	n/a	FR1	1	R1328E
354.62	26.185	355170	REC_WORD	26.185	n/a	MAP	12	2	[0, 0, 0]	n/a	FR1	1	R1328E
380.805	0.001	381354	REC_END	n/a	n/a	n/a	-999	2	[0, 0, 0]	n/a	FR1	1	R1328E
380.806	0.017	381355	TRIAL_END	n/a	n/a	n/a	-999	2	[0, 0, 0]	n/a	FR1	1	R1328E
380.823	0.0	381372	TRIAL_START	n/a	n/a	n/a	-999	3	[0, 0, 0]	n/a	FR1	1	R1328E
380.823	0.0	381372	TRIAL	n/a	n/a	n/a	-999	3	[0, 0, 0]	n/a	FR1	1	R1328E
380.823	1.676	381372	WAITING_START	n/a	n/a	n/a	-999	3	[0, 0, 0]	n/a	FR1	1	R1328E
382.499	0.0	383048	WAITING_END	n/a	n/a	n/a	-999	3	[0, 0, 0]	n/a	FR1	1	R1328E
382.499	10.428	383048	COUNTDOWN_START	n/a	n/a	n/a	-999	3	[0, 0, 0]	n/a	FR1	1	R1328E
392.927	0.001	393476	COUNTDOWN_END	n/a	n/a	n/a	-999	3	[0, 0, 0]	n/a	FR1	1	R1328E
392.928	1.073	393477	ORIENT_START	n/a	n/a	n/a	-999	3	[0, 0, 0]	n/a	FR1	1	R1328E
394.001	0.0	394550	ENCODING_START	n/a	n/a	n/a	-999	3	[0, 0, 0]	n/a	FR1	1	R1328E
394.001	1.102	394550	ORIENT_END	n/a	n/a	n/a	-999	3	[0, 0, 0]	n/a	FR1	1	R1328E
395.103	1.632	395652	WORD	n/a	n/a	CORD	1	3	[0, 0, 0]	n/a	FR1	1	R1328E
396.735	1.141	397284	WORD_OFF	n/a	n/a	CORD	1	3	[0, 0, 0]	n/a	FR1	1	R1328E
397.876	1.626	398425	WORD	n/a	n/a	BIRD	2	3	[0, 0, 0]	n/a	FR1	1	R1328E
399.502	0.754	400051	WORD_OFF	n/a	n/a	BIRD	2	3	[0, 0, 0]	n/a	FR1	1	R1328E
400.256	1.63	400805	WORD	n/a	n/a	BUSH	3	3	[0, 0, 0]	n/a	FR1	1	R1328E
401.886	1.055	402435	WORD_OFF	n/a	n/a	BUSH	3	3	[0, 0, 0]	n/a	FR1	1	R1328E
402.941	1.628	403490	WORD	n/a	n/a	WHALE	4	3	[0, 0, 0]	n/a	FR1	1	R1328E
404.569	0.82	405118	WORD_OFF	n/a	n/a	WHALE	4	3	[0, 0, 0]	n/a	FR1	1	R1328E
405.389	1.631	405938	WORD	n/a	n/a	PEN	5	3	[0, 0, 0]	n/a	FR1	1	R1328E
407.02	1.049	407569	WORD_OFF	n/a	n/a	PEN	5	3	[0, 0, 0]	n/a	FR1	1	R1328E
408.069	1.635	408617	WORD	n/a	n/a	BOY	6	3	[0, 0, 0]	n/a	FR1	1	R1328E
409.704	0.783	410252	WORD_OFF	n/a	n/a	BOY	6	3	[0, 0, 0]	n/a	FR1	1	R1328E
410.487	1.632	411035	WORD	n/a	n/a	WAND	7	3	[0, 0, 0]	n/a	FR1	1	R1328E
412.119	0.806	412667	WORD_OFF	n/a	n/a	WAND	7	3	[0, 0, 0]	n/a	FR1	1	R1328E
412.925	1.63	413473	WORD	n/a	n/a	PIE	8	3	[0, 0, 0]	n/a	FR1	1	R1328E
414.555	1.013	415103	WORD_OFF	n/a	n/a	PIE	8	3	[0, 0, 0]	n/a	FR1	1	R1328E
415.568	1.636	416116	WORD	n/a	n/a	HOOK	9	3	[0, 0, 0]	n/a	FR1	1	R1328E
417.204	1.015	417752	WORD_OFF	n/a	n/a	HOOK	9	3	[0, 0, 0]	n/a	FR1	1	R1328E
418.219	1.619	418767	WORD	n/a	n/a	JUDGE	10	3	[0, 0, 0]	n/a	FR1	1	R1328E
419.838	1.055	420386	WORD_OFF	n/a	n/a	JUDGE	10	3	[0, 0, 0]	n/a	FR1	1	R1328E
420.893	1.629	421441	WORD	n/a	n/a	PIPE	11	3	[0, 0, 0]	n/a	FR1	1	R1328E
422.522	0.841	423070	WORD_OFF	n/a	n/a	PIPE	11	3	[0, 0, 0]	n/a	FR1	1	R1328E
423.363	1.627	423911	WORD	n/a	n/a	FOG	12	3	[0, 0, 0]	n/a	FR1	1	R1328E
424.99	0.0	425538	WORD_OFF	n/a	n/a	FOG	12	3	[0, 0, 0]	n/a	FR1	1	R1328E
424.99	0.0	425538	ENCODING_END	n/a	n/a	n/a	-999	3	[0, 0, 0]	n/a	FR1	1	R1328E
424.99	0.0	425538	DISTRACT_START	n/a	n/a	n/a	-999	3	[0, 0, 0]	n/a	FR1	1	R1328E
424.99	0.016	425538	START	n/a	n/a	n/a	-999	3	[-999, -999, -999]	n/a	FR1	1	R1328E
425.006	9.385	425554	PROB	9.385	n/a	n/a	-999	3	[9, 6, 1]	16	FR1	1	R1328E
434.391	19.549	434939	PROB	19.549	n/a	n/a	-999	3	[9, 5, 9]	23	FR1	1	R1328E
453.94	0.021	454487	STOP	n/a	n/a	n/a	-999	3	[-999, -999, -999]	n/a	FR1	1	R1328E
453.961	0.689	454508	DISTRACT_END	n/a	n/a	n/a	-999	3	[0, 0, 0]	n/a	FR1	1	R1328E
454.65	1.662	455197	RETRIEVAL_ORIENT_START	n/a	n/a	n/a	-999	3	[0, 0, 0]	n/a	FR1	1	R1328E
456.312	0.0	456859	RETRIEVAL_ORIENT_END	n/a	n/a	n/a	-999	3	[0, 0, 0]	n/a	FR1	1	R1328E
456.312	0.237	456859	REC_START	n/a	n/a	n/a	-999	3	[0, 0, 0]	n/a	FR1	1	R1328E
456.549	0.976	457096	REC_WORD	0.976	n/a	BIRD	2	3	[0, 0, 0]	n/a	FR1	1	R1328E
457.525	1.163	458072	REC_WORD	1.163	n/a	WHALE	4	3	[0, 0, 0]	n/a	FR1	1	R1328E
458.688	1.045	459235	REC_WORD	1.045	n/a	BUSH	3	3	[0, 0, 0]	n/a	FR1	1	R1328E
459.733	13.713	460280	REC_WORD	13.713	n/a	HOOK	9	3	[0, 0, 0]	n/a	FR1	1	R1328E
473.446	12.878	473992	REC_WORD	12.878	n/a	CORD	1	3	[0, 0, 0]	n/a	FR1	1	R1328E
486.324	0.0	486870	TRIAL_END	n/a	n/a	n/a	-999	3	[0, 0, 0]	n/a	FR1	1	R1328E
486.324	0.018	486870	REC_END	n/a	n/a	n/a	-999	3	[0, 0, 0]	n/a	FR1	1	R1328E
486.342	0.0	486888	TRIAL_START	n/a	n/a	n/a	-999	4	[0, 0, 0]	n/a	FR1	1	R1328E
486.342	0.0	486888	TRIAL	n/a	n/a	n/a	-999	4	[0, 0, 0]	n/a	FR1	1	R1328E
486.342	2.275	486888	WAITING_START	n/a	n/a	n/a	-999	4	[0, 0, 0]	n/a	FR1	1	R1328E
488.617	0.001	489163	WAITING_END	n/a	n/a	n/a	-999	4	[0, 0, 0]	n/a	FR1	1	R1328E
488.618	10.429	489164	COUNTDOWN_START	n/a	n/a	n/a	-999	4	[0, 0, 0]	n/a	FR1	1	R1328E
499.047	0.0	499592	COUNTDOWN_END	n/a	n/a	n/a	-999	4	[0, 0, 0]	n/a	FR1	1	R1328E
499.047	1.105	499592	ORIENT_START	n/a	n/a	n/a	-999	4	[0, 0, 0]	n/a	FR1	1	R1328E
500.152	0.0	500697	ENCODING_START	n/a	n/a	n/a	-999	4	[0, 0, 0]	n/a	FR1	1	R1328E
500.152	0.878	500697	ORIENT_END	n/a	n/a	n/a	-999	4	[0, 0, 0]	n/a	FR1	1	R1328E
501.03	1.623	501575	WORD	n/a	n/a	COIN	1	4	[0, 0, 0]	n/a	FR1	1	R1328E
502.653	1.123	503198	WORD_OFF	n/a	n/a	COIN	1	4	[0, 0, 0]	n/a	FR1	1	R1328E
503.776	1.628	504321	WORD	n/a	n/a	CLOCK	2	4	[0, 0, 0]	n/a	FR1	1	R1328E
505.404	1.107	505949	WORD_OFF	n/a	n/a	CLOCK	2	4	[0, 0, 0]	n/a	FR1	1	R1328E
506.511	1.625	507056	WORD	n/a	n/a	SAIL	3	4	[0, 0, 0]	n/a	FR1	1	R1328E
508.136	0.869	508681	WORD_OFF	n/a	n/a	SAIL	3	4	[0, 0, 0]	n/a	FR1	1	R1328E
509.005	1.633	509550	WORD	n/a	n/a	RUG	4	4	[0, 0, 0]	n/a	FR1	1	R1328E
510.638	0.772	511183	WORD_OFF	n/a	n/a	RUG	4	4	[0, 0, 0]	n/a	FR1	1	R1328E
511.41	1.628	511955	WORD	n/a	n/a	CLIFF	5	4	[0, 0, 0]	n/a	FR1	1	R1328E
513.038	1.145	513583	WORD_OFF	n/a	n/a	CLIFF	5	4	[0, 0, 0]	n/a	FR1	1	R1328E
514.183	1.606	514728	WORD	n/a	n/a	BOARD	6	4	[0, 0, 0]	n/a	FR1	1	R1328E
515.789	0.845	516334	WORD_OFF	n/a	n/a	BOARD	6	4	[0, 0, 0]	n/a	FR1	1	R1328E
516.634	1.621	517179	WORD	n/a	n/a	RAT	7	4	[0, 0, 0]	n/a	FR1	1	R1328E
518.255	0.814	518800	WORD_OFF	n/a	n/a	RAT	7	4	[0, 0, 0]	n/a	FR1	1	R1328E
519.069	1.637	519614	WORD	n/a	n/a	SWORD	8	4	[0, 0, 0]	n/a	FR1	1	R1328E
520.706	1.07	521251	WORD_OFF	n/a	n/a	SWORD	8	4	[0, 0, 0]	n/a	FR1	1	R1328E
521.776	1.631	522320	WORD	n/a	n/a	ELF	9	4	[0, 0, 0]	n/a	FR1	1	R1328E
523.407	0.916	523951	WORD_OFF	n/a	n/a	ELF	9	4	[0, 0, 0]	n/a	FR1	1	R1328E
524.323	1.634	524867	WORD	n/a	n/a	PURSE	10	4	[0, 0, 0]	n/a	FR1	1	R1328E
525.957	1.036	526501	WORD_OFF	n/a	n/a	PURSE	10	4	[0, 0, 0]	n/a	FR1	1	R1328E
526.993	1.631	527537	WORD	n/a	n/a	EEL	11	4	[0, 0, 0]	n/a	FR1	1	R1328E
528.624	1.075	529168	WORD_OFF	n/a	n/a	EEL	11	4	[0, 0, 0]	n/a	FR1	1	R1328E
529.699	1.626	530243	WORD	n/a	n/a	GLASS	12	4	[0, 0, 0]	n/a	FR1	1	R1328E
531.325	0.0	531869	WORD_OFF	n/a	n/a	GLASS	12	4	[0, 0, 0]	n/a	FR1	1	R1328E
531.325	0.0	531869	ENCODING_END	n/a	n/a	n/a	-999	4	[0, 0, 0]	n/a	FR1	1	R1328E
531.325	0.001	531869	DISTRACT_START	n/a	n/a	n/a	-999	4	[0, 0, 0]	n/a	FR1	1	R1328E
531.326	0.015	531870	START	n/a	n/a	n/a	-999	4	[-999, -999, -999]	n/a	FR1	1	R1328E
531.341	13.503	531885	PROB	13.503	n/a	n/a	-999	4	[3, 4, 5]	12	FR1	1	R1328E
544.844	15.244	545388	PROB	15.244	n/a	n/a	-999	4	[8, 4, 5]	17	FR1	1	R1328E
560.088	0.007	560631	STOP	n/a	n/a	n/a	-999	4	[-999, -999, -999]	n/a	FR1	1	R1328E
560.095	0.668	560638	DISTRACT_END	n/a	n/a	n/a	-999	4	[0, 0, 0]	n/a	FR1	1	R1328E
560.763	1.601	561306	RETRIEVAL_ORIENT_START	n/a	n/a	n/a	-999	4	[0, 0, 0]	n/a	FR1	1	R1328E
562.364	0.0	562907	RETRIEVAL_ORIENT_END	n/a	n/a	n/a	-999	4	[0, 0, 0]	n/a	FR1	1	R1328E
562.364	0.359	562907	REC_START	n/a	n/a	n/a	-999	4	[0, 0, 0]	n/a	FR1	1	R1328E
562.723	1.453	563266	REC_WORD	1.453	n/a	CLIFF	5	4	[0, 0, 0]	n/a	FR1	1	R1328E
564.176	1.413	564719	REC_WORD	1.413	n/a	BOARD	6	4	[0, 0, 0]	n/a	FR1	1	R1328E
565.589	15.287	566132	REC_WORD	15.287	n/a	SAIL	3	4	[0, 0, 0]	n/a	FR1	1	R1328E
580.876	6.412	581418	REC_WORD	6.412	n/a	WAND	-999	4	[0, 0, 0]	n/a	FR1	1	R1328E
587.288	5.09	587830	REC_WORD	5.09	n/a	CLOCK	2	4	[0, 0, 0]	n/a	FR1	1	R1328E
592.378	0.001	592920	REC_END	n/a	n/a	n/a	-999	4	[0, 0, 0]	n/a	FR1	1	R1328E
592.379	0.017	592921	TRIAL_END	n/a	n/a	n/a	-999	4	[0, 0, 0]	n/a	FR1	1	R1328E
592.396	0.0	592938	TRIAL_START	n/a	n/a	n/a	-999	5	[0, 0, 0]	n/a	FR1	1	R1328E
592.396	0.0	592938	TRIAL	n/a	n/a	n/a	-999	5	[0, 0, 0]	n/a	FR1	1	R1328E
592.396	2.739	592938	WAITING_START	n/a	n/a	n/a	-999	5	[0, 0, 0]	n/a	FR1	1	R1328E
595.135	0.0	595677	WAITING_END	n/a	n/a	n/a	-999	5	[0, 0, 0]	n/a	FR1	1	R1328E
595.135	10.429	595677	COUNTDOWN_START	n/a	n/a	n/a	-999	5	[0, 0, 0]	n/a	FR1	1	R1328E
605.564	0.0	606106	COUNTDOWN_END	n/a	n/a	n/a	-999	5	[0, 0, 0]	n/a	FR1	1	R1328E
605.564	1.224	606106	ORIENT_START	n/a	n/a	n/a	-999	5	[0, 0, 0]	n/a	FR1	1	R1328E
606.788	0.0	607329	ENCODING_START	n/a	n/a	n/a	-999	5	[0, 0, 0]	n/a	FR1	1	R1328E
606.788	0.871	607329	ORIENT_END	n/a	n/a	n/a	-999	5	[0, 0, 0]	n/a	FR1	1	R1328E
607.659	1.63	608200	WORD	n/a	n/a	FLAME	1	5	[0, 0, 0]	n/a	FR1	1	R1328E
609.289	1.121	609830	WORD_OFF	n/a	n/a	FLAME	1	5	[0, 0, 0]	n/a	FR1	1	R1328E
610.41	1.629	610951	WORD	n/a	n/a	LAKE	2	5	[0, 0, 0]	n/a	FR1	1	R1328E
612.039	1.009	612580	WORD_OFF	n/a	n/a	LAKE	2	5	[0, 0, 0]	n/a	FR1	1	R1328E
613.048	1.625	613589	WORD	n/a	n/a	SHOE	3	5	[0, 0, 0]	n/a	FR1	1	R1328E
614.673	0.996	615214	WORD_OFF	n/a	n/a	SHOE	3	5	[0, 0, 0]	n/a	FR1	1	R1328E
615.669	1.621	616210	WORD	n/a	n/a	HILL	4	5	[0, 0, 0]	n/a	FR1	1	R1328E
617.29	0.955	617831	WORD_OFF	n/a	n/a	HILL	4	5	[0, 0, 0]	n/a	FR1	1	R1328E
618.245	1.629	618786	WORD	n/a	n/a	SALT	5	5	[0, 0, 0]	n/a	FR1	1	R1328E
619.874	1.091	620415	WORD_OFF	n/a	n/a	SALT	5	5	[0, 0, 0]	n/a	FR1	1	R1328E
620.965	1.626	621506	WORD	n/a	n/a	WALL	6	5	[0, 0, 0]	n/a	FR1	1	R1328E
622.591	1.148	623132	WORD_OFF	n/a	n/a	WALL	6	5	[0, 0, 0]	n/a	FR1	1	R1328E
623.739	1.636	624280	WORD	n/a	n/a	FROG	7	5	[0, 0, 0]	n/a	FR1	1	R1328E
625.375	1.02	625916	WORD_OFF	n/a	n/a	FROG	7	5	[0, 0, 0]	n/a	FR1	1	R1328E
626.395	1.63	626936	WORD	n/a	n/a	COW	8	5	[0, 0, 0]	n/a	FR1	1	R1328E
628.025	0.948	628566	WORD_OFF	n/a	n/a	COW	8	5	[0, 0, 0]	n/a	FR1	1	R1328E
628.973	1.636	629514	WORD	n/a	n/a	SLIME	9	5	[0, 0, 0]	n/a	FR1	1	R1328E
630.609	0.99	631150	WORD_OFF	n/a	n/a	SLIME	9	5	[0, 0, 0]	n/a	FR1	1	R1328E
631.599	1.626	632140	WORD	n/a	n/a	SMOKE	10	5	[0, 0, 0]	n/a	FR1	1	R1328E
633.225	0.91	633766	WORD_OFF	n/a	n/a	SMOKE	10	5	[0, 0, 0]	n/a	FR1	1	R1328E
634.135	1.625	634676	WORD	n/a	n/a	POND	11	5	[0, 0, 0]	n/a	FR1	1	R1328E
635.76	0.778	636300	WORD_OFF	n/a	n/a	POND	11	5	[0, 0, 0]	n/a	FR1	1	R1328E
636.538	1.621	637078	WORD	n/a	n/a	RAKE	12	5	[0, 0, 0]	n/a	FR1	1	R1328E
638.159	0.001	638699	WORD_OFF	n/a	n/a	RAKE	12	5	[0, 0, 0]	n/a	FR1	1	R1328E
638.16	0.0	638700	ENCODING_END	n/a	n/a	n/a	-999	5	[0, 0, 0]	n/a	FR1	1	R1328E
638.16	0.0	638700	DISTRACT_START	n/a	n/a	n/a	-999	5	[0, 0, 0]	n/a	FR1	1	R1328E
638.16	0.016	638700	START	n/a	n/a	n/a	-999	5	[-999, -999, -999]	n/a	FR1	1	R1328E
638.176	22.16	638716	PROB	22.16	n/a	n/a	-999	5	[7, 6, 9]	22	FR1	1	R1328E
660.336	0.011	660876	STOP	n/a	n/a	n/a	-999	5	[-999, -999, -999]	n/a	FR1	1	R1328E
660.347	0.531	660887	DISTRACT_END	n/a	n/a	n/a	-999	5	[0, 0, 0]	n/a	FR1	1	R1328E
660.878	1.603	661418	RETRIEVAL_ORIENT_START	n/a	n/a	n/a	-999	5	[0, 0, 0]	n/a	FR1	1	R1328E
662.481	0.0	663021	RETRIEVAL_ORIENT_END	n/a	n/a	n/a	-999	5	[0, 0, 0]	n/a	FR1	1	R1328E
662.481	5.905	663021	REC_START	n/a	n/a	n/a	-999	5	[0, 0, 0]	n/a	FR1	1	R1328E
668.386	1.488	668925	REC_WORD	1.488	n/a	LAKE	2	5	[0, 0, 0]	n/a	FR1	1	R1328E
669.874	2.249	670413	REC_WORD	2.249	n/a	POND	11	5	[0, 0, 0]	n/a	FR1	1	R1328E
672.123	6.688	672662	REC_WORD	6.688	n/a	HILL	4	5	[0, 0, 0]	n/a	FR1	1	R1328E
678.811	13.683	679350	REC_WORD	13.683	n/a	WALL	6	5	[0, 0, 0]	n/a	FR1	1	R1328E
692.494	0.001	693032	REC_END	n/a	n/a	n/a	-999	5	[0, 0, 0]	n/a	FR1	1	R1328E
692.495	0.017	693033	TRIAL_END	n/a	n/a	n/a	-999	5	[0, 0, 0]	n/a	FR1	1	R1328E
692.512	0.0	693050	TRIAL_START	n/a	n/a	n/a	-999	6	[0, 0, 0]	n/a	FR1	1	R1328E
692.512	0.001	693050	TRIAL	n/a	n/a	n/a	-999	6	[0, 0, 0]	n/a	FR1	1	R1328E
692.513	2.524	693051	WAITING_START	n/a	n/a	n/a	-999	6	[0, 0, 0]	n/a	FR1	1	R1328E
695.037	0.0	695575	WAITING_END	n/a	n/a	n/a	-999	6	[0, 0, 0]	n/a	FR1	1	R1328E
695.037	10.429	695575	COUNTDOWN_START	n/a	n/a	n/a	-999	6	[0, 0, 0]	n/a	FR1	1	R1328E
705.466	0.0	706004	COUNTDOWN_END	n/a	n/a	n/a	-999	6	[0, 0, 0]	n/a	FR1	1	R1328E
705.466	1.056	706004	ORIENT_START	n/a	n/a	n/a	-999	6	[0, 0, 0]	n/a	FR1	1	R1328E
706.522	0.001	707060	ORIENT_END	n/a	n/a	n/a	-999	6	[0, 0, 0]	n/a	FR1	1	R1328E
706.523	1.131	707061	ENCODING_START	n/a	n/a	n/a	-999	6	[0, 0, 0]	n/a	FR1	1	R1328E
707.654	1.635	708192	WORD	n/a	n/a	RAIN	1	6	[0, 0, 0]	n/a	FR1	1	R1328E
709.289	1.14	709827	WORD_OFF	n/a	n/a	RAIN	1	6	[0, 0, 0]	n/a	FR1	1	R1328E
710.429	1.627	710967	WORD	n/a	n/a	FORK	2	6	[0, 0, 0]	n/a	FR1	1	R1328E
712.056	0.999	712594	WORD_OFF	n/a	n/a	FORK	2	6	[0, 0, 0]	n/a	FR1	1	R1328E
713.055	1.635	713593	WORD	n/a	n/a	STONE	3	6	[0, 0, 0]	n/a	FR1	1	R1328E
714.69	0.832	715228	WORD_OFF	n/a	n/a	STONE	3	6	[0, 0, 0]	n/a	FR1	1	R1328E
715.522	1.634	716060	WORD	n/a	n/a	MOOSE	4	6	[0, 0, 0]	n/a	FR1	1	R1328E
717.156	0.785	717694	WORD_OFF	n/a	n/a	MOOSE	4	6	[0, 0, 0]	n/a	FR1	1	R1328E
717.941	1.633	718479	WORD	n/a	n/a	PIT	5	6	[0, 0, 0]	n/a	FR1	1	R1328E
719.574	0.783	720112	WORD_OFF	n/a	n/a	PIT	5	6	[0, 0, 0]	n/a	FR1	1	R1328E
720.357	1.635	720895	WORD	n/a	n/a	CHEEK	6	6	[0, 0, 0]	n/a	FR1	1	R1328E
721.992	0.984	722529	WORD_OFF	n/a	n/a	CHEEK	6	6	[0, 0, 0]	n/a	FR1	1	R1328E
722.976	1.633	723513	WORD	n/a	n/a	LOCK	7	6	[0, 0, 0]	n/a	FR1	1	R1328E
724.609	0.862	725146	WORD_OFF	n/a	n/a	LOCK	7	6	[0, 0, 0]	n/a	FR1	1	R1328E
725.471	1.62	726008	WORD	n/a	n/a	TRAIN	8	6	[0, 0, 0]	n/a	FR1	1	R1328E
727.091	1.01	727628	WORD_OFF	n/a	n/a	TRAIN	8	6	[0, 0, 0]	n/a	FR1	1	R1328E
728.101	1.608	728638	WORD	n/a	n/a	STRING	9	6	[0, 0, 0]	n/a	FR1	1	R1328E
729.709	0.856	730246	WORD_OFF	n/a	n/a	STRING	9	6	[0, 0, 0]	n/a	FR1	1	R1328E
730.565	1.627	731102	WORD	n/a	n/a	HEN	10	6	[0, 0, 0]	n/a	FR1	1	R1328E
732.192	0.942	732729	WORD_OFF	n/a	n/a	HEN	10	6	[0, 0, 0]	n/a	FR1	1	R1328E
733.134	1.61	733671	WORD	n/a	n/a	PET	11	6	[0, 0, 0]	n/a	FR1	1	R1328E
734.744	0.959	735281	WORD_OFF	n/a	n/a	PET	11	6	[0, 0, 0]	n/a	FR1	1	R1328E
735.703	1.625	736240	WORD	n/a	n/a	TOAST	12	6	[0, 0, 0]	n/a	FR1	1	R1328E
737.328	0.0	737865	WORD_OFF	n/a	n/a	TOAST	12	6	[0, 0, 0]	n/a	FR1	1	R1328E
737.328	0.0	737865	ENCODING_END	n/a	n/a	n/a	-999	6	[0, 0, 0]	n/a	FR1	1	R1328E
737.328	0.0	737865	DISTRACT_START	n/a	n/a	n/a	-999	6	[0, 0, 0]	n/a	FR1	1	R1328E
737.328	0.016	737865	START	n/a	n/a	n/a	-999	6	[-999, -999, -999]	n/a	FR1	1	R1328E
737.344	11.635	737881	PROB	11.635	n/a	n/a	-999	6	[5, 5, 4]	14	FR1	1	R1328E
748.979	12.948	749515	PROB	12.948	n/a	n/a	-999	6	[4, 8, 4]	16	FR1	1	R1328E
761.927	0.022	762463	STOP	n/a	n/a	n/a	-999	6	[-999, -999, -999]	n/a	FR1	1	R1328E
761.949	0.587	762485	DISTRACT_END	n/a	n/a	n/a	-999	6	[0, 0, 0]	n/a	FR1	1	R1328E
762.536	1.628	763072	RETRIEVAL_ORIENT_START	n/a	n/a	n/a	-999	6	[0, 0, 0]	n/a	FR1	1	R1328E
764.164	0.001	764700	RETRIEVAL_ORIENT_END	n/a	n/a	n/a	-999	6	[0, 0, 0]	n/a	FR1	1	R1328E
764.165	0.338	764701	REC_START	n/a	n/a	n/a	-999	6	[0, 0, 0]	n/a	FR1	1	R1328E
764.503	0.872	765039	REC_WORD	0.872	n/a	LOCK	7	6	[0, 0, 0]	n/a	FR1	1	R1328E
765.375	1.204	765911	REC_WORD	1.204	n/a	STRING	9	6	[0, 0, 0]	n/a	FR1	1	R1328E
766.579	1.99	767115	REC_WORD	1.99	n/a	HEN	10	6	[0, 0, 0]	n/a	FR1	1	R1328E
768.569	6.339	769105	REC_WORD	6.339	n/a	PEN	-999	6	[0, 0, 0]	n/a	FR1	1	R1328E
774.908	19.269	775444	REC_WORD	19.269	n/a	FORK	2	6	[0, 0, 0]	n/a	FR1	1	R1328E
794.177	0.0	794712	REC_END	n/a	n/a	n/a	-999	6	[0, 0, 0]	n/a	FR1	1	R1328E
794.177	0.017	794712	TRIAL_END	n/a	n/a	n/a	-999	6	[0, 0, 0]	n/a	FR1	1	R1328E
794.194	0.001	794729	TRIAL_START	n/a	n/a	n/a	-999	7	[0, 0, 0]	n/a	FR1	1	R1328E
794.195	0.0	794730	WAITING_START	n/a	n/a	n/a	-999	7	[0, 0, 0]	n/a	FR1	1	R1328E
794.195	4.343	794730	TRIAL	n/a	n/a	n/a	-999	7	[0, 0, 0]	n/a	FR1	1	R1328E
798.538	0.001	799073	WAITING_END	n/a	n/a	n/a	-999	7	[0, 0, 0]	n/a	FR1	1	R1328E
798.539	10.429	799074	COUNTDOWN_START	n/a	n/a	n/a	-999	7	[0, 0, 0]	n/a	FR1	1	R1328E
808.968	0.0	809502	COUNTDOWN_END	n/a	n/a	n/a	-999	7	[0, 0, 0]	n/a	FR1	1	R1328E
808.968	1.072	809502	ORIENT_START	n/a	n/a	n/a	-999	7	[0, 0, 0]	n/a	FR1	1	R1328E
810.04	0.001	810574	ORIENT_END	n/a	n/a	n/a	-999	7	[0, 0, 0]	n/a	FR1	1	R1328E
810.041	1.007	810575	ENCODING_START	n/a	n/a	n/a	-999	7	[0, 0, 0]	n/a	FR1	1	R1328E
811.048	1.626	811582	WORD	n/a	n/a	ZOO	1	7	[0, 0, 0]	n/a	FR1	1	R1328E
812.674	0.969	813208	WORD_OFF	n/a	n/a	ZOO	1	7	[0, 0, 0]	n/a	FR1	1	R1328E
813.643	1.631	814177	WORD	n/a	n/a	MAT	2	7	[0, 0, 0]	n/a	FR1	1	R1328E
815.274	0.891	815808	WORD_OFF	n/a	n/a	MAT	2	7	[0, 0, 0]	n/a	FR1	1	R1328E
816.165	1.627	816699	WORD	n/a	n/a	MOTH	3	7	[0, 0, 0]	n/a	FR1	1	R1328E
817.792	0.838	818326	WORD_OFF	n/a	n/a	MOTH	3	7	[0, 0, 0]	n/a	FR1	1	R1328E
818.63	1.628	819164	WORD	n/a	n/a	OAK	4	7	[0, 0, 0]	n/a	FR1	1	R1328E
820.258	1.023	820792	WORD_OFF	n/a	n/a	OAK	4	7	[0, 0, 0]	n/a	FR1	1	R1328E
821.281	1.628	821815	WORD	n/a	n/a	PLANT	5	7	[0, 0, 0]	n/a	FR1	1	R1328E
822.909	0.936	823443	WORD_OFF	n/a	n/a	PLANT	5	7	[0, 0, 0]	n/a	FR1	1	R1328E
823.845	1.631	824379	WORD	n/a	n/a	CRANE	6	7	[0, 0, 0]	n/a	FR1	1	R1328E
825.476	0.801	826010	WORD_OFF	n/a	n/a	CRANE	6	7	[0, 0, 0]	n/a	FR1	1	R1328E
826.277	1.633	826811	WORD	n/a	n/a	SPARK	7	7	[0, 0, 0]	n/a	FR1	1	R1328E
827.91	0.979	828444	WORD_OFF	n/a	n/a	SPARK	7	7	[0, 0, 0]	n/a	FR1	1	R1328E
828.889	1.622	829423	WORD	n/a	n/a	FLOOR	8	7	[0, 0, 0]	n/a	FR1	1	R1328E
830.511	0.99	831045	WORD_OFF	n/a	n/a	FLOOR	8	7	[0, 0, 0]	n/a	FR1	1	R1328E
831.501	1.626	832035	WORD	n/a	n/a	CAKE	9	7	[0, 0, 0]	n/a	FR1	1	R1328E
833.127	0.963	833661	WORD_OFF	n/a	n/a	CAKE	9	7	[0, 0, 0]	n/a	FR1	1	R1328E
834.09	1.621	834624	WORD	n/a	n/a	BANK	10	7	[0, 0, 0]	n/a	FR1	1	R1328E
835.711	0.855	836244	WORD_OFF	n/a	n/a	BANK	10	7	[0, 0, 0]	n/a	FR1	1	R1328E
836.566	1.628	837099	WORD	n/a	n/a	WEED	11	7	[0, 0, 0]	n/a	FR1	1	R1328E
838.194	1.135	838727	WORD_OFF	n/a	n/a	WEED	11	7	[0, 0, 0]	n/a	FR1	1	R1328E
839.329	1.633	839862	WORD	n/a	n/a	CUP	12	7	[0, 0, 0]	n/a	FR1	1	R1328E
840.962	0.001	841495	WORD_OFF	n/a	n/a	CUP	12	7	[0, 0, 0]	n/a	FR1	1	R1328E
840.963	0.0	841496	ENCODING_END	n/a	n/a	n/a	-999	7	[0, 0, 0]	n/a	FR1	1	R1328E
840.963	0.0	841496	DISTRACT_START	n/a	n/a	n/a	-999	7	[0, 0, 0]	n/a	FR1	1	R1328E
840.963	0.016	841496	START	n/a	n/a	n/a	-999	7	[-999, -999, -999]	n/a	FR1	1	R1328E
840.979	6.734	841512	PROB	6.734	n/a	n/a	-999	7	[1, 4, 3]	8	FR1	1	R1328E
847.713	23.091	848246	PROB	23.091	n/a	n/a	-999	7	[7, 2, 2]	11	FR1	1	R1328E
870.804	0.013	871336	STOP	n/a	n/a	n/a	-999	7	[-999, -999, -999]	n/a	FR1	1	R1328E
870.817	0.616	871349	DISTRACT_END	n/a	n/a	n/a	-999	7	[0, 0, 0]	n/a	FR1	1	R1328E
871.433	1.568	871965	RETRIEVAL_ORIENT_START	n/a	n/a	n/a	-999	7	[0, 0, 0]	n/a	FR1	1	R1328E
873.001	0.0	873533	REC_START	n/a	n/a	n/a	-999	7	[0, 0, 0]	n/a	FR1	1	R1328E
873.001	0.5	873533	RETRIEVAL_ORIENT_END	n/a	n/a	n/a	-999	7	[0, 0, 0]	n/a	FR1	1	R1328E
873.501	1.36	874033	REC_WORD	1.36	n/a	PLANT	5	7	[0, 0, 0]	n/a	FR1	1	R1328E
874.861	6.596	875393	REC_WORD	6.596	n/a	WEED	11	7	[0, 0, 0]	n/a	FR1	1	R1328E
881.457	10.552	881989	REC_WORD	10.552	n/a	OAK	4	7	[0, 0, 0]	n/a	FR1	1	R1328E
892.009	6.767	892540	REC_WORD	6.767	n/a	MAT	2	7	[0, 0, 0]	n/a	FR1	1	R1328E
898.776	4.24	899307	REC_WORD	4.24	n/a	CRANE	6	7	[0, 0, 0]	n/a	FR1	1	R1328E
903.016	0.0	903547	REC_END	n/a	n/a	n/a	-999	7	[0, 0, 0]	n/a	FR1	1	R1328E
903.016	0.018	903547	TRIAL_END	n/a	n/a	n/a	-999	7	[0, 0, 0]	n/a	FR1	1	R1328E
903.034	0.0	903565	TRIAL	n/a	n/a	n/a	-999	8	[0, 0, 0]	n/a	FR1	1	R1328E
903.034	0.0	903565	WAITING_START	n/a	n/a	n/a	-999	8	[0, 0, 0]	n/a	FR1	1	R1328E
903.034	4.29	903565	TRIAL_START	n/a	n/a	n/a	-999	8	[0, 0, 0]	n/a	FR1	1	R1328E
907.324	0.0	907855	WAITING_END	n/a	n/a	n/a	-999	8	[0, 0, 0]	n/a	FR1	1	R1328E
907.324	10.429	907855	COUNTDOWN_START	n/a	n/a	n/a	-999	8	[0, 0, 0]	n/a	FR1	1	R1328E
917.753	0.0	918284	COUNTDOWN_END	n/a	n/a	n/a	-999	8	[0, 0, 0]	n/a	FR1	1	R1328E
917.753	1.156	918284	ORIENT_START	n/a	n/a	n/a	-999	8	[0, 0, 0]	n/a	FR1	1	R1328E
918.909	0.001	919440	ORIENT_END	n/a	n/a	n/a	-999	8	[0, 0, 0]	n/a	FR1	1	R1328E
918.91	1.022	919441	ENCODING_START	n/a	n/a	n/a	-999	8	[0, 0, 0]	n/a	FR1	1	R1328E
919.932	1.628	920462	WORD	n/a	n/a	PASTE	1	8	[0, 0, 0]	n/a	FR1	1	R1328E
921.56	0.811	922090	WORD_OFF	n/a	n/a	PASTE	1	8	[0, 0, 0]	n/a	FR1	1	R1328E
922.371	1.623	922901	WORD	n/a	n/a	PRINCE	2	8	[0, 0, 0]	n/a	FR1	1	R1328E
923.994	0.751	924524	WORD_OFF	n/a	n/a	PRINCE	2	8	[0, 0, 0]	n/a	FR1	1	R1328E
924.745	1.632	925275	WORD	n/a	n/a	FACE	3	8	[0, 0, 0]	n/a	FR1	1	R1328E
926.377	1.008	926907	WORD_OFF	n/a	n/a	FACE	3	8	[0, 0, 0]	n/a	FR1	1	R1328E
927.385	1.626	927915	WORD	n/a	n/a	DITCH	4	8	[0, 0, 0]	n/a	FR1	1	R1328E
929.011	0.824	929541	WORD_OFF	n/a	n/a	DITCH	4	8	[0, 0, 0]	n/a	FR1	1	R1328E
929.835	1.627	930365	WORD	n/a	n/a	POLE	5	8	[0, 0, 0]	n/a	FR1	1	R1328E
931.462	1.137	931992	WORD_OFF	n/a	n/a	POLE	5	8	[0, 0, 0]	n/a	FR1	1	R1328E
932.599	1.629	933129	WORD	n/a	n/a	TRAY	6	8	[0, 0, 0]	n/a	FR1	1	R1328E
934.228	0.914	934758	WORD_OFF	n/a	n/a	TRAY	6	8	[0, 0, 0]	n/a	FR1	1	R1328E
935.142	1.62	935672	WORD	n/a	n/a	LIP	7	8	[0, 0, 0]	n/a	FR1	1	R1328E
936.762	0.808	937292	WORD_OFF	n/a	n/a	LIP	7	8	[0, 0, 0]	n/a	FR1	1	R1328E
937.57	1.625	938100	WORD	n/a	n/a	SUN	8	8	[0, 0, 0]	n/a	FR1	1	R1328E
939.195	1.079	939725	WORD_OFF	n/a	n/a	SUN	8	8	[0, 0, 0]	n/a	FR1	1	R1328E
940.274	1.623	940804	WORD	n/a	n/a	CAGE	9	8	[0, 0, 0]	n/a	FR1	1	R1328E
941.897	0.945	942427	WORD_OFF	n/a	n/a	CAGE	9	8	[0, 0, 0]	n/a	FR1	1	R1328E
942.842	1.622	943372	WORD	n/a	n/a	ROOF	10	8	[0, 0, 0]	n/a	FR1	1	R1328E
944.464	1.046	944994	WORD_OFF	n/a	n/a	ROOF	10	8	[0, 0, 0]	n/a	FR1	1	R1328E
945.51	1.62	946040	WORD	n/a	n/a	RIB	11	8	[0, 0, 0]	n/a	FR1	1	R1328E
947.13	1.122	947660	WORD_OFF	n/a	n/a	RIB	11	8	[0, 0, 0]	n/a	FR1	1	R1328E
948.252	1.629	948781	WORD	n/a	n/a	GOAT	12	8	[0, 0, 0]	n/a	FR1	1	R1328E
949.881	0.001	950410	WORD_OFF	n/a	n/a	GOAT	12	8	[0, 0, 0]	n/a	FR1	1	R1328E
949.882	0.0	950411	ENCODING_END	n/a	n/a	n/a	-999	8	[0, 0, 0]	n/a	FR1	1	R1328E
949.882	0.0	950411	DISTRACT_START	n/a	n/a	n/a	-999	8	[0, 0, 0]	n/a	FR1	1	R1328E
949.882	0.016	950411	START	n/a	n/a	n/a	-999	8	[-999, -999, -999]	n/a	FR1	1	R1328E
949.898	5.634	950427	PROB	5.634	n/a	n/a	-999	8	[7, 2, 9]	18	FR1	1	R1328E
955.532	26.776	956061	PROB	26.776	n/a	n/a	-999	8	[8, 9, 3]	20	FR1	1	R1328E
982.308	0.012	982836	STOP	n/a	n/a	n/a	-999	8	[-999, -999, -999]	n/a	FR1	1	R1328E
982.32	0.563	982848	DISTRACT_END	n/a	n/a	n/a	-999	8	[0, 0, 0]	n/a	FR1	1	R1328E
982.883	1.705	983411	RETRIEVAL_ORIENT_START	n/a	n/a	n/a	-999	8	[0, 0, 0]	n/a	FR1	1	R1328E
984.588	0.0	985116	RETRIEVAL_ORIENT_END	n/a	n/a	n/a	-999	8	[0, 0, 0]	n/a	FR1	1	R1328E
984.588	3.544	985116	REC_START	n/a	n/a	n/a	-999	8	[0, 0, 0]	n/a	FR1	1	R1328E
988.132	3.826	988660	REC_WORD	3.826	n/a	FACE	3	8	[0, 0, 0]	n/a	FR1	1	R1328E
991.958	4.197	992486	REC_WORD	4.197	n/a	PASTE	1	8	[0, 0, 0]	n/a	FR1	1	R1328E
996.155	18.444	996683	REC_WORD	18.444	n/a	LIP	7	8	[0, 0, 0]	n/a	FR1	1	R1328E
1014.599	0.0	1015126	REC_END	n/a	n/a	n/a	-999	8	[0, 0, 0]	n/a	FR1	1	R1328E
1014.599	0.017	1015126	TRIAL_END	n/a	n/a	n/a	-999	8	[0, 0, 0]	n/a	FR1	1	R1328E
1014.616	0.001	1015143	TRIAL_START	n/a	n/a	n/a	-999	9	[0, 0, 0]	n/a	FR1	1	R1328E
1014.617	0.0	1015144	TRIAL	n/a	n/a	n/a	-999	9	[0, 0, 0]	n/a	FR1	1	R1328E
1014.617	2.093	1015144	WAITING_START	n/a	n/a	n/a	-999	9	[0, 0, 0]	n/a	FR1	1	R1328E
1016.71	0.0	1017237	COUNTDOWN_START	n/a	n/a	n/a	-999	9	[0, 0, 0]	n/a	FR1	1	R1328E
1016.71	10.429	1017237	WAITING_END	n/a	n/a	n/a	-999	9	[0, 0, 0]	n/a	FR1	1	R1328E
1027.139	0.0	1027666	COUNTDOWN_END	n/a	n/a	n/a	-999	9	[0, 0, 0]	n/a	FR1	1	R1328E
1027.139	1.239	1027666	ORIENT_START	n/a	n/a	n/a	-999	9	[0, 0, 0]	n/a	FR1	1	R1328E
1028.378	0.001	1028905	ORIENT_END	n/a	n/a	n/a	-999	9	[0, 0, 0]	n/a	FR1	1	R1328E
1028.379	0.768	1028906	ENCODING_START	n/a	n/a	n/a	-999	9	[0, 0, 0]	n/a	FR1	1	R1328E
1029.147	1.632	1029674	WORD	n/a	n/a	GRAPE	1	9	[0, 0, 0]	n/a	FR1	1	R1328E
1030.779	1.121	1031306	WORD_OFF	n/a	n/a	GRAPE	1	9	[0, 0, 0]	n/a	FR1	1	R1328E
1031.9	1.629	1032427	WORD	n/a	n/a	OWL	2	9	[0, 0, 0]	n/a	FR1	1	R1328E
1033.529	0.85	1034056	WORD_OFF	n/a	n/a	OWL	2	9	[0, 0, 0]	n/a	FR1	1	R1328E
1034.379	1.634	1034905	WORD	n/a	n/a	HORSE	3	9	[0, 0, 0]	n/a	FR1	1	R1328E
1036.013	1.101	1036539	WORD_OFF	n/a	n/a	HORSE	3	9	[0, 0, 0]	n/a	FR1	1	R1328E
1037.114	1.633	1037640	WORD	n/a	n/a	BEACH	4	9	[0, 0, 0]	n/a	FR1	1	R1328E
1038.747	0.913	1039273	WORD_OFF	n/a	n/a	BEACH	4	9	[0, 0, 0]	n/a	FR1	1	R1328E
1039.66	1.621	1040186	WORD	n/a	n/a	THUMB	5	9	[0, 0, 0]	n/a	FR1	1	R1328E
1041.281	0.915	1041807	WORD_OFF	n/a	n/a	THUMB	5	9	[0, 0, 0]	n/a	FR1	1	R1328E
1042.196	1.618	1042722	WORD	n/a	n/a	STORE	6	9	[0, 0, 0]	n/a	FR1	1	R1328E
1043.814	1.137	1044340	WORD_OFF	n/a	n/a	STORE	6	9	[0, 0, 0]	n/a	FR1	1	R1328E
1044.951	1.631	1045477	WORD	n/a	n/a	DOG	7	9	[0, 0, 0]	n/a	FR1	1	R1328E
1046.582	0.904	1047108	WORD_OFF	n/a	n/a	DOG	7	9	[0, 0, 0]	n/a	FR1	1	R1328E
1047.486	1.628	1048012	WORD	n/a	n/a	BAG	8	9	[0, 0, 0]	n/a	FR1	1	R1328E
1049.114	0.789	1049640	WORD_OFF	n/a	n/a	BAG	8	9	[0, 0, 0]	n/a	FR1	1	R1328E
1049.903	1.63	1050429	WORD	n/a	n/a	STEAK	9	9	[0, 0, 0]	n/a	FR1	1	R1328E
1051.533	1.111	1052059	WORD_OFF	n/a	n/a	STEAK	9	9	[0, 0, 0]	n/a	FR1	1	R1328E
1052.644	1.622	1053170	WORD	n/a	n/a	FOAM	10	9	[0, 0, 0]	n/a	FR1	1	R1328E
1054.266	0.896	1054792	WORD_OFF	n/a	n/a	FOAM	10	9	[0, 0, 0]	n/a	FR1	1	R1328E
1055.162	1.638	1055688	WORD	n/a	n/a	PLANE	11	9	[0, 0, 0]	n/a	FR1	1	R1328E
1056.8	0.8	1057326	WORD_OFF	n/a	n/a	PLANE	11	9	[0, 0, 0]	n/a	FR1	1	R1328E
1057.6	1.633	1058126	WORD	n/a	n/a	DEER	12	9	[0, 0, 0]	n/a	FR1	1	R1328E
1059.233	0.0	1059759	DISTRACT_START	n/a	n/a	n/a	-999	9	[0, 0, 0]	n/a	FR1	1	R1328E
1059.233	0.0	1059759	ENCODING_END	n/a	n/a	n/a	-999	9	[0, 0, 0]	n/a	FR1	1	R1328E
1059.233	0.001	1059759	WORD_OFF	n/a	n/a	DEER	12	9	[0, 0, 0]	n/a	FR1	1	R1328E
1059.234	0.015	1059760	START	n/a	n/a	n/a	-999	9	[-999, -999, -999]	n/a	FR1	1	R1328E
1059.249	17.754	1059775	PROB	17.754	n/a	n/a	-999	9	[7, 8, 3]	18	FR1	1	R1328E
1077.003	10.429	1077528	PROB	10.429	n/a	n/a	-999	9	[4, 2, 3]	9	FR1	1	R1328E
1087.432	0.007	1087957	STOP	n/a	n/a	n/a	-999	9	[-999, -999, -999]	n/a	FR1	1	R1328E
1087.439	0.678	1087964	DISTRACT_END	n/a	n/a	n/a	-999	9	[0, 0, 0]	n/a	FR1	1	R1328E
1088.117	1.589	1088642	RETRIEVAL_ORIENT_START	n/a	n/a	n/a	-999	9	[0, 0, 0]	n/a	FR1	1	R1328E
1089.706	0.0	1090231	RETRIEVAL_ORIENT_END	n/a	n/a	n/a	-999	9	[0, 0, 0]	n/a	FR1	1	R1328E
1089.706	0.0	1090231	REC_START	n/a	n/a	n/a	-999	9	[0, 0, 0]	n/a	FR1	1	R1328E
1089.706	0.782	1090231	REC_WORD	0.782	n/a	STEAK	9	9	[0, 0, 0]	n/a	FR1	1	R1328E
1090.488	1.0	1091013	REC_WORD	1.0	n/a	FOAM	10	9	[0, 0, 0]	n/a	FR1	1	R1328E
1091.488	0.756	1092012	REC_WORD_VV	0.756	n/a	<>	-999	9	[0, 0, 0]	n/a	FR1	1	R1328E
1092.244	1.144	1092768	REC_WORD	1.144	n/a	PLANE	11	9	[0, 0, 0]	n/a	FR1	1	R1328E
1093.388	6.433	1093912	REC_WORD	6.433	n/a	RIB	-999	9	[0, 0, 0]	n/a	FR1	1	R1328E
1099.821	6.956	1100345	REC_WORD	6.956	n/a	OWL	2	9	[0, 0, 0]	n/a	FR1	1	R1328E
1106.777	12.94	1107301	REC_WORD	12.94	n/a	HORSE	3	9	[0, 0, 0]	n/a	FR1	1	R1328E
1119.717	0.001	1120240	REC_END	n/a	n/a	n/a	-999	9	[0, 0, 0]	n/a	FR1	1	R1328E
1119.718	0.017	1120241	TRIAL_END	n/a	n/a	n/a	-999	9	[0, 0, 0]	n/a	FR1	1	R1328E
1119.735	0.0	1120258	TRIAL_START	n/a	n/a	n/a	-999	10	[0, 0, 0]	n/a	FR1	1	R1328E
1119.735	0.001	1120258	TRIAL	n/a	n/a	n/a	-999	10	[0, 0, 0]	n/a	FR1	1	R1328E
1119.736	3.508	1120259	WAITING_START	n/a	n/a	n/a	-999	10	[0, 0, 0]	n/a	FR1	1	R1328E
1123.244	0.0	1123767	COUNTDOWN_START	n/a	n/a	n/a	-999	10	[0, 0, 0]	n/a	FR1	1	R1328E
1123.244	10.43	1123767	WAITING_END	n/a	n/a	n/a	-999	10	[0, 0, 0]	n/a	FR1	1	R1328E
1133.674	0.001	1134197	COUNTDOWN_END	n/a	n/a	n/a	-999	10	[0, 0, 0]	n/a	FR1	1	R1328E
1133.675	1.072	1134198	ORIENT_START	n/a	n/a	n/a	-999	10	[0, 0, 0]	n/a	FR1	1	R1328E
1134.747	0.001	1135270	ORIENT_END	n/a	n/a	n/a	-999	10	[0, 0, 0]	n/a	FR1	1	R1328E
1134.748	0.958	1135271	ENCODING_START	n/a	n/a	n/a	-999	10	[0, 0, 0]	n/a	FR1	1	R1328E
1135.706	1.625	1136229	WORD	n/a	n/a	HAT	1	10	[0, 0, 0]	n/a	FR1	1	R1328E
1137.331	0.754	1137854	WORD_OFF	n/a	n/a	HAT	1	10	[0, 0, 0]	n/a	FR1	1	R1328E
1138.085	1.63	1138608	WORD	n/a	n/a	BREAD	2	10	[0, 0, 0]	n/a	FR1	1	R1328E
1139.715	0.826	1140238	WORD_OFF	n/a	n/a	BREAD	2	10	[0, 0, 0]	n/a	FR1	1	R1328E
1140.541	1.623	1141064	WORD	n/a	n/a	BLOOM	3	10	[0, 0, 0]	n/a	FR1	1	R1328E
1142.164	0.767	1142687	WORD_OFF	n/a	n/a	BLOOM	3	10	[0, 0, 0]	n/a	FR1	1	R1328E
1142.931	1.634	1143454	WORD	n/a	n/a	CANE	4	10	[0, 0, 0]	n/a	FR1	1	R1328E
1144.565	1.009	1145088	WORD_OFF	n/a	n/a	CANE	4	10	[0, 0, 0]	n/a	FR1	1	R1328E
1145.574	1.624	1146097	WORD	n/a	n/a	WOLF	5	10	[0, 0, 0]	n/a	FR1	1	R1328E
1147.198	1.056	1147721	WORD_OFF	n/a	n/a	WOLF	5	10	[0, 0, 0]	n/a	FR1	1	R1328E
1148.254	1.629	1148776	WORD	n/a	n/a	SQUARE	6	10	[0, 0, 0]	n/a	FR1	1	R1328E
1149.883	0.916	1150405	WORD_OFF	n/a	n/a	SQUARE	6	10	[0, 0, 0]	n/a	FR1	1	R1328E
1150.799	1.635	1151321	WORD	n/a	n/a	EGG	7	10	[0, 0, 0]	n/a	FR1	1	R1328E
1152.434	0.849	1152956	WORD_OFF	n/a	n/a	EGG	7	10	[0, 0, 0]	n/a	FR1	1	R1328E
1153.283	1.634	1153805	WORD	n/a	n/a	ARM	8	10	[0, 0, 0]	n/a	FR1	1	R1328E
1154.917	1.047	1155439	WORD_OFF	n/a	n/a	ARM	8	10	[0, 0, 0]	n/a	FR1	1	R1328E
1155.964	1.62	1156486	WORD	n/a	n/a	SOCK	9	10	[0, 0, 0]	n/a	FR1	1	R1328E
1157.584	1.094	1158106	WORD_OFF	n/a	n/a	SOCK	9	10	[0, 0, 0]	n/a	FR1	1	R1328E
1158.678	1.624	1159200	WORD	n/a	n/a	FOOD	10	10	[0, 0, 0]	n/a	FR1	1	R1328E
1160.302	0.823	1160824	WORD_OFF	n/a	n/a	FOOD	10	10	[0, 0, 0]	n/a	FR1	1	R1328E
1161.125	1.611	1161647	WORD	n/a	n/a	YARD	11	10	[0, 0, 0]	n/a	FR1	1	R1328E
1162.736	0.761	1163258	WORD_OFF	n/a	n/a	YARD	11	10	[0, 0, 0]	n/a	FR1	1	R1328E
1163.497	1.621	1164019	WORD	n/a	n/a	DUCK	12	10	[0, 0, 0]	n/a	FR1	1	R1328E
1165.118	0.001	1165640	WORD_OFF	n/a	n/a	DUCK	12	10	[0, 0, 0]	n/a	FR1	1	R1328E
1165.119	0.0	1165641	ENCODING_END	n/a	n/a	n/a	-999	10	[0, 0, 0]	n/a	FR1	1	R1328E
1165.119	0.0	1165641	DISTRACT_START	n/a	n/a	n/a	-999	10	[0, 0, 0]	n/a	FR1	1	R1328E
1165.119	0.016	1165641	START	n/a	n/a	n/a	-999	10	[-999, -999, -999]	n/a	FR1	1	R1328E
1165.135	7.017	1165657	PROB	7.017	n/a	n/a	-999	10	[9, 3, 5]	17	FR1	1	R1328E
1172.152	20.375	1172674	PROB	20.375	n/a	n/a	-999	10	[7, 9, 8]	24	FR1	1	R1328E
1192.527	0.014	1193048	STOP	n/a	n/a	n/a	-999	10	[-999, -999, -999]	n/a	FR1	1	R1328E
1192.541	0.69	1193062	DISTRACT_END	n/a	n/a	n/a	-999	10	[0, 0, 0]	n/a	FR1	1	R1328E
1193.231	1.71	1193752	RETRIEVAL_ORIENT_START	n/a	n/a	n/a	-999	10	[0, 0, 0]	n/a	FR1	1	R1328E
1194.941	0.0	1195462	RETRIEVAL_ORIENT_END	n/a	n/a	n/a	-999	10	[0, 0, 0]	n/a	FR1	1	R1328E
1194.941	0.228	1195462	REC_START	n/a	n/a	n/a	-999	10	[0, 0, 0]	n/a	FR1	1	R1328E
1195.169	1.1	1195690	REC_WORD	1.1	n/a	HAT	1	10	[0, 0, 0]	n/a	FR1	1	R1328E
1196.269	1.14	1196790	REC_WORD	1.14	n/a	ARM	8	10	[0, 0, 0]	n/a	FR1	1	R1328E
1197.409	5.878	1197930	REC_WORD	5.878	n/a	SOCK	9	10	[0, 0, 0]	n/a	FR1	1	R1328E
1203.287	2.194	1203808	REC_WORD	2.194	n/a	YARD	11	10	[0, 0, 0]	n/a	FR1	1	R1328E
1205.481	14.814	1206001	REC_WORD	14.814	n/a	DUCK	12	10	[0, 0, 0]	n/a	FR1	1	R1328E
1220.295	4.658	1220815	REC_WORD	4.658	n/a	FOOD	10	10	[0, 0, 0]	n/a	FR1	1	R1328E
1224.953	0.001	1225473	REC_END	n/a	n/a	n/a	-999	10	[0, 0, 0]	n/a	FR1	1	R1328E
1224.954	0.02	1225474	TRIAL_END	n/a	n/a	n/a	-999	10	[0, 0, 0]	n/a	FR1	1	R1328E
1224.974	0.0	1225494	TRIAL_START	n/a	n/a	n/a	-999	11	[0, 0, 0]	n/a	FR1	1	R1328E
1224.974	0.0	1225494	TRIAL	n/a	n/a	n/a	-999	11	[0, 0, 0]	n/a	FR1	1	R1328E
1224.974	5.189	1225494	WAITING_START	n/a	n/a	n/a	-999	11	[0, 0, 0]	n/a	FR1	1	R1328E
1230.163	0.0	1230683	COUNTDOWN_START	n/a	n/a	n/a	-999	11	[0, 0, 0]	n/a	FR1	1	R1328E
1230.163	10.429	1230683	WAITING_END	n/a	n/a	n/a	-999	11	[0, 0, 0]	n/a	FR1	1	R1328E
1240.592	0.0	1241111	COUNTDOWN_END	n/a	n/a	n/a	-999	11	[0, 0, 0]	n/a	FR1	1	R1328E
1240.592	1.057	1241111	ORIENT_START	n/a	n/a	n/a	-999	11	[0, 0, 0]	n/a	FR1	1	R1328E
1241.649	0.001	1242168	ORIENT_END	n/a	n/a	n/a	-999	11	[0, 0, 0]	n/a	FR1	1	R1328E
1241.65	0.794	1242169	ENCODING_START	n/a	n/a	n/a	-999	11	[0, 0, 0]	n/a	FR1	1	R1328E
1242.444	1.622	1242963	WORD	n/a	n/a	FAN	1	11	[0, 0, 0]	n/a	FR1	1	R1328E
1244.066	0.933	1244585	WORD_OFF	n/a	n/a	FAN	1	11	[0, 0, 0]	n/a	FR1	1	R1328E
1244.999	1.634	1245518	WORD	n/a	n/a	SUIT	2	11	[0, 0, 0]	n/a	FR1	1	R1328E
1246.633	1.048	1247152	WORD_OFF	n/a	n/a	SUIT	2	11	[0, 0, 0]	n/a	FR1	1	R1328E
1247.681	1.636	1248200	WORD	n/a	n/a	PIG	3	11	[0, 0, 0]	n/a	FR1	1	R1328E
1249.317	1.151	1249836	WORD_OFF	n/a	n/a	PIG	3	11	[0, 0, 0]	n/a	FR1	1	R1328E
1250.468	1.632	1250987	WORD	n/a	n/a	APE	4	11	[0, 0, 0]	n/a	FR1	1	R1328E
1252.1	0.956	1252619	WORD_OFF	n/a	n/a	APE	4	11	[0, 0, 0]	n/a	FR1	1	R1328E
1253.056	1.629	1253575	WORD	n/a	n/a	FOX	5	11	[0, 0, 0]	n/a	FR1	1	R1328E
1254.685	0.918	1255204	WORD_OFF	n/a	n/a	FOX	5	11	[0, 0, 0]	n/a	FR1	1	R1328E
1255.603	1.631	1256122	WORD	n/a	n/a	SPEAR	6	11	[0, 0, 0]	n/a	FR1	1	R1328E
1257.234	0.827	1257753	WORD_OFF	n/a	n/a	SPEAR	6	11	[0, 0, 0]	n/a	FR1	1	R1328E
1258.061	1.625	1258580	WORD	n/a	n/a	LAMB	7	11	[0, 0, 0]	n/a	FR1	1	R1328E
1259.686	1.095	1260205	WORD_OFF	n/a	n/a	LAMB	7	11	[0, 0, 0]	n/a	FR1	1	R1328E
1260.781	1.622	1261300	WORD	n/a	n/a	BOMB	8	11	[0, 0, 0]	n/a	FR1	1	R1328E
1262.403	0.854	1262921	WORD_OFF	n/a	n/a	BOMB	8	11	[0, 0, 0]	n/a	FR1	1	R1328E
1263.257	1.63	1263775	WORD	n/a	n/a	JAR	9	11	[0, 0, 0]	n/a	FR1	1	R1328E
1264.887	1.012	1265405	WORD_OFF	n/a	n/a	JAR	9	11	[0, 0, 0]	n/a	FR1	1	R1328E
1265.899	1.621	1266417	WORD	n/a	n/a	FORT	10	11	[0, 0, 0]	n/a	FR1	1	R1328E
1267.52	1.036	1268038	WORD_OFF	n/a	n/a	FORT	10	11	[0, 0, 0]	n/a	FR1	1	R1328E
1268.556	1.631	1269074	WORD	n/a	n/a	SMILE	11	11	[0, 0, 0]	n/a	FR1	1	R1328E
1270.187	0.842	1270705	WORD_OFF	n/a	n/a	SMILE	11	11	[0, 0, 0]	n/a	FR1	1	R1328E
1271.029	1.626	1271547	WORD	n/a	n/a	BEAN	12	11	[0, 0, 0]	n/a	FR1	1	R1328E
1272.655	0.0	1273173	DISTRACT_START	n/a	n/a	n/a	-999	11	[0, 0, 0]	n/a	FR1	1	R1328E
1272.655	0.0	1273173	WORD_OFF	n/a	n/a	BEAN	12	11	[0, 0, 0]	n/a	FR1	1	R1328E
1272.655	0.0	1273173	ENCODING_END	n/a	n/a	n/a	-999	11	[0, 0, 0]	n/a	FR1	1	R1328E
1272.655	0.016	1273173	START	n/a	n/a	n/a	-999	11	[-999, -999, -999]	n/a	FR1	1	R1328E
1272.671	9.068	1273189	PROB	9.068	n/a	n/a	-999	11	[5, 8, 9]	22	FR1	1	R1328E
1281.739	16.504	1282257	PROB	16.504	n/a	n/a	-999	11	[5, 7, 5]	17	FR1	1	R1328E
1298.243	0.015	1298760	STOP	n/a	n/a	n/a	-999	11	[-999, -999, -999]	n/a	FR1	1	R1328E
1298.258	0.69	1298775	DISTRACT_END	n/a	n/a	n/a	-999	11	[0, 0, 0]	n/a	FR1	1	R1328E
1298.948	1.645	1299465	RETRIEVAL_ORIENT_START	n/a	n/a	n/a	-999	11	[0, 0, 0]	n/a	FR1	1	R1328E
1300.593	0.0	1301110	RETRIEVAL_ORIENT_END	n/a	n/a	n/a	-999	11	[0, 0, 0]	n/a	FR1	1	R1328E
1300.593	2.083	1301110	REC_START	n/a	n/a	n/a	-999	11	[0, 0, 0]	n/a	FR1	1	R1328E
1302.676	0.965	1303193	REC_WORD	0.965	n/a	PHONE	-999	11	[0, 0, 0]	n/a	FR1	1	R1328E
1303.641	1.106	1304158	REC_WORD	1.106	n/a	SUIT	2	11	[0, 0, 0]	n/a	FR1	1	R1328E
1304.747	1.306	1305264	REC_WORD	1.306	n/a	PIG	3	11	[0, 0, 0]	n/a	FR1	1	R1328E
1306.053	24.552	1306570	REC_WORD	24.552	n/a	BEAN	12	11	[0, 0, 0]	n/a	FR1	1	R1328E
1330.605	0.001	1331121	REC_END	n/a	n/a	n/a	-999	11	[0, 0, 0]	n/a	FR1	1	R1328E
1330.606	0.053	1331122	TRIAL_END	n/a	n/a	n/a	-999	11	[0, 0, 0]	n/a	FR1	1	R1328E
1330.659	0.0	1331175	TRIAL_START	n/a	n/a	n/a	-999	12	[0, 0, 0]	n/a	FR1	1	R1328E
1330.659	0.001	1331175	TRIAL	n/a	n/a	n/a	-999	12	[0, 0, 0]	n/a	FR1	1	R1328E
1330.66	1.972	1331176	WAITING_START	n/a	n/a	n/a	-999	12	[0, 0, 0]	n/a	FR1	1	R1328E
1332.632	0.0	1333148	COUNTDOWN_START	n/a	n/a	n/a	-999	12	[0, 0, 0]	n/a	FR1	1	R1328E
1332.632	10.429	1333148	WAITING_END	n/a	n/a	n/a	-999	12	[0, 0, 0]	n/a	FR1	1	R1328E
1343.061	0.0	1343577	ORIENT_START	n/a	n/a	n/a	-999	12	[0, 0, 0]	n/a	FR1	1	R1328E
1343.061	1.122	1343577	COUNTDOWN_END	n/a	n/a	n/a	-999	12	[0, 0, 0]	n/a	FR1	1	R1328E
1344.183	0.0	1344699	ORIENT_END	n/a	n/a	n/a	-999	12	[0, 0, 0]	n/a	FR1	1	R1328E
1344.183	0.794	1344699	ENCODING_START	n/a	n/a	n/a	-999	12	[0, 0, 0]	n/a	FR1	1	R1328E
1344.977	1.624	1345493	WORD	n/a	n/a	PEA	1	12	[0, 0, 0]	n/a	FR1	1	R1328E
1346.601	0.871	1347117	WORD_OFF	n/a	n/a	PEA	1	12	[0, 0, 0]	n/a	FR1	1	R1328E
1347.472	1.628	1347987	WORD	n/a	n/a	SHIP	2	12	[0, 0, 0]	n/a	FR1	1	R1328E
1349.1	0.893	1349615	WORD_OFF	n/a	n/a	SHIP	2	12	[0, 0, 0]	n/a	FR1	1	R1328E
1349.993	1.625	1350508	WORD	n/a	n/a	MOLE	3	12	[0, 0, 0]	n/a	FR1	1	R1328E
1351.618	1.142	1352133	WORD_OFF	n/a	n/a	MOLE	3	12	[0, 0, 0]	n/a	FR1	1	R1328E
1352.76	1.626	1353275	WORD	n/a	n/a	ROOM	4	12	[0, 0, 0]	n/a	FR1	1	R1328E
1354.386	0.922	1354901	WORD_OFF	n/a	n/a	ROOM	4	12	[0, 0, 0]	n/a	FR1	1	R1328E
1355.308	1.628	1355823	WORD	n/a	n/a	PALM	5	12	[0, 0, 0]	n/a	FR1	1	R1328E
1356.936	0.915	1357451	WORD_OFF	n/a	n/a	PALM	5	12	[0, 0, 0]	n/a	FR1	1	R1328E
1357.851	1.636	1358366	WORD	n/a	n/a	BOOK	6	12	[0, 0, 0]	n/a	FR1	1	R1328E
1359.487	1.058	1360002	WORD_OFF	n/a	n/a	BOOK	6	12	[0, 0, 0]	n/a	FR1	1	R1328E
1360.545	1.624	1361060	WORD	n/a	n/a	JET	7	12	[0, 0, 0]	n/a	FR1	1	R1328E
1362.169	1.08	1362684	WORD_OFF	n/a	n/a	JET	7	12	[0, 0, 0]	n/a	FR1	1	R1328E
1363.249	1.605	1363764	WORD	n/a	n/a	FOOT	8	12	[0, 0, 0]	n/a	FR1	1	R1328E
1364.854	1.051	1365369	WORD_OFF	n/a	n/a	FOOT	8	12	[0, 0, 0]	n/a	FR1	1	R1328E
1365.905	1.633	1366420	WORD	n/a	n/a	THREAD	9	12	[0, 0, 0]	n/a	FR1	1	R1328E
1367.538	1.143	1368053	WORD_OFF	n/a	n/a	THREAD	9	12	[0, 0, 0]	n/a	FR1	1	R1328E
1368.681	1.624	1369196	WORD	n/a	n/a	BEAR	10	12	[0, 0, 0]	n/a	FR1	1	R1328E
1370.305	0.802	1370820	WORD_OFF	n/a	n/a	BEAR	10	12	[0, 0, 0]	n/a	FR1	1	R1328E
1371.107	1.632	1371622	WORD	n/a	n/a	SKY	11	12	[0, 0, 0]	n/a	FR1	1	R1328E
1372.739	0.899	1373254	WORD_OFF	n/a	n/a	SKY	11	12	[0, 0, 0]	n/a	FR1	1	R1328E
1373.638	1.635	1374153	WORD	n/a	n/a	FUDGE	12	12	[0, 0, 0]	n/a	FR1	1	R1328E
1375.273	0.0	1375787	DISTRACT_START	n/a	n/a	n/a	-999	12	[0, 0, 0]	n/a	FR1	1	R1328E
1375.273	0.0	1375787	ENCODING_END	n/a	n/a	n/a	-999	12	[0, 0, 0]	n/a	FR1	1	R1328E
1375.273	0.0	1375787	WORD_OFF	n/a	n/a	FUDGE	12	12	[0, 0, 0]	n/a	FR1	1	R1328E
1375.273	0.016	1375787	START	n/a	n/a	n/a	-999	12	[-999, -999, -999]	n/a	FR1	1	R1328E
1375.289	8.501	1375803	PROB	8.501	n/a	n/a	-999	12	[5, 9, 2]	16	FR1	1	R1328E
1383.79	21.859	1384304	PROB	21.859	n/a	n/a	-999	12	[6, 2, 6]	14	FR1	1	R1328E
1405.649	0.012	1406162	STOP	n/a	n/a	n/a	-999	12	[-999, -999, -999]	n/a	FR1	1	R1328E
1405.661	0.552	1406174	DISTRACT_END	n/a	n/a	n/a	-999	12	[0, 0, 0]	n/a	FR1	1	R1328E
1406.213	1.732	1406726	RETRIEVAL_ORIENT_START	n/a	n/a	n/a	-999	12	[0, 0, 0]	n/a	FR1	1	R1328E
1407.945	0.0	1408458	RETRIEVAL_ORIENT_END	n/a	n/a	n/a	-999	12	[0, 0, 0]	n/a	FR1	1	R1328E
1407.945	1.141	1408458	REC_START	n/a	n/a	n/a	-999	12	[0, 0, 0]	n/a	FR1	1	R1328E
1409.086	0.922	1409599	REC_WORD	0.922	n/a	THREAD	9	12	[0, 0, 0]	n/a	FR1	1	R1328E
1410.008	0.333	1410521	REC_WORD	0.333	n/a	BEAR	10	12	[0, 0, 0]	n/a	FR1	1	R1328E
1410.341	1.0	1410854	REC_WORD	1.0	n/a	SKY	11	12	[0, 0, 0]	n/a	FR1	1	R1328E
1411.341	1.072	1411854	REC_WORD_VV	1.072	n/a	<>	-999	12	[0, 0, 0]	n/a	FR1	1	R1328E
1412.413	2.322	1412926	REC_WORD	2.322	n/a	PLANE	-999	12	[0, 0, 0]	n/a	FR1	1	R1328E
1414.735	16.745	1415248	REC_WORD	16.745	n/a	JET	7	12	[0, 0, 0]	n/a	FR1	1	R1328E
1431.48	6.477	1431993	REC_WORD	6.477	n/a	BOOK	6	12	[0, 0, 0]	n/a	FR1	1	R1328E
1437.957	0.001	1438469	REC_END	n/a	n/a	n/a	-999	12	[0, 0, 0]	n/a	FR1	1	R1328E
1437.958	0.017	1438470	TRIAL_END	n/a	n/a	n/a	-999	12	[0, 0, 0]	n/a	FR1	1	R1328E
1437.975	0.0	1438487	TRIAL_START	n/a	n/a	n/a	-999	13	[0, 0, 0]	n/a	FR1	1	R1328E
1437.975	0.0	1438487	TRIAL	n/a	n/a	n/a	-999	13	[0, 0, 0]	n/a	FR1	1	R1328E
1437.975	3.776	1438487	WAITING_START	n/a	n/a	n/a	-999	13	[0, 0, 0]	n/a	FR1	1	R1328E
1441.751	0.0	1442263	COUNTDOWN_START	n/a	n/a	n/a	-999	13	[0, 0, 0]	n/a	FR1	1	R1328E
1441.751	10.43	1442263	WAITING_END	n/a	n/a	n/a	-999	13	[0, 0, 0]	n/a	FR1	1	R1328E
1452.181	0.001	1452693	COUNTDOWN_END	n/a	n/a	n/a	-999	13	[0, 0, 0]	n/a	FR1	1	R1328E
1452.182	1.254	1452694	ORIENT_START	n/a	n/a	n/a	-999	13	[0, 0, 0]	n/a	FR1	1	R1328E
1453.436	0.001	1453948	ORIENT_END	n/a	n/a	n/a	-999	13	[0, 0, 0]	n/a	FR1	1	R1328E
1453.437	1.062	1453949	ENCODING_START	n/a	n/a	n/a	-999	13	[0, 0, 0]	n/a	FR1	1	R1328E
1454.499	1.637	1455011	WORD	n/a	n/a	FLEA	1	13	[0, 0, 0]	n/a	FR1	1	R1328E
1456.136	0.985	1456648	WORD_OFF	n/a	n/a	FLEA	1	13	[0, 0, 0]	n/a	FR1	1	R1328E
1457.121	1.633	1457633	WORD	n/a	n/a	LEAF	2	13	[0, 0, 0]	n/a	FR1	1	R1328E
1458.754	1.004	1459266	WORD_OFF	n/a	n/a	LEAF	2	13	[0, 0, 0]	n/a	FR1	1	R1328E
1459.758	1.63	1460270	WORD	n/a	n/a	SHEET	3	13	[0, 0, 0]	n/a	FR1	1	R1328E
1461.388	1.062	1461899	WORD_OFF	n/a	n/a	SHEET	3	13	[0, 0, 0]	n/a	FR1	1	R1328E
1462.45	1.622	1462961	WORD	n/a	n/a	SINK	4	13	[0, 0, 0]	n/a	FR1	1	R1328E
1464.072	1.067	1464583	WORD_OFF	n/a	n/a	SINK	4	13	[0, 0, 0]	n/a	FR1	1	R1328E
1465.139	1.633	1465650	WORD	n/a	n/a	MAZE	5	13	[0, 0, 0]	n/a	FR1	1	R1328E
1466.772	0.94	1467283	WORD_OFF	n/a	n/a	MAZE	5	13	[0, 0, 0]	n/a	FR1	1	R1328E
1467.712	1.627	1468223	WORD	n/a	n/a	STOVE	6	13	[0, 0, 0]	n/a	FR1	1	R1328E
1469.339	1.044	1469850	WORD_OFF	n/a	n/a	STOVE	6	13	[0, 0, 0]	n/a	FR1	1	R1328E
1470.383	1.623	1470894	WORD	n/a	n/a	TIE	7	13	[0, 0, 0]	n/a	FR1	1	R1328E
1472.006	1.089	1472517	WORD_OFF	n/a	n/a	TIE	7	13	[0, 0, 0]	n/a	FR1	1	R1328E
1473.095	1.628	1473606	WORD	n/a	n/a	SHARK	8	13	[0, 0, 0]	n/a	FR1	1	R1328E
1474.723	1.013	1475234	WORD_OFF	n/a	n/a	SHARK	8	13	[0, 0, 0]	n/a	FR1	1	R1328E
1475.736	1.621	1476247	WORD	n/a	n/a	TOOL	9	13	[0, 0, 0]	n/a	FR1	1	R1328E
1477.357	0.938	1477868	WORD_OFF	n/a	n/a	TOOL	9	13	[0, 0, 0]	n/a	FR1	1	R1328E
1478.295	1.629	1478806	WORD	n/a	n/a	VEST	10	13	[0, 0, 0]	n/a	FR1	1	R1328E
1479.924	0.809	1480435	WORD_OFF	n/a	n/a	VEST	10	13	[0, 0, 0]	n/a	FR1	1	R1328E
1480.733	1.625	1481244	WORD	n/a	n/a	ICE	11	13	[0, 0, 0]	n/a	FR1	1	R1328E
1482.358	0.83	1482869	WORD_OFF	n/a	n/a	ICE	11	13	[0, 0, 0]	n/a	FR1	1	R1328E
1483.188	1.637	1483699	WORD	n/a	n/a	JEEP	12	13	[0, 0, 0]	n/a	FR1	1	R1328E
1484.825	0.001	1485336	WORD_OFF	n/a	n/a	JEEP	12	13	[0, 0, 0]	n/a	FR1	1	R1328E
1484.826	0.0	1485337	ENCODING_END	n/a	n/a	n/a	-999	13	[0, 0, 0]	n/a	FR1	1	R1328E
1484.826	0.0	1485337	DISTRACT_START	n/a	n/a	n/a	-999	13	[0, 0, 0]	n/a	FR1	1	R1328E
1484.826	0.016	1485337	START	n/a	n/a	n/a	-999	13	[-999, -999, -999]	n/a	FR1	1	R1328E
1484.842	10.735	1485353	PROB	10.735	n/a	n/a	-999	13	[4, 6, 6]	16	FR1	1	R1328E
1495.577	15.001	1496087	PROB	15.001	n/a	n/a	-999	13	[7, 8, 2]	17	FR1	1	R1328E
1510.578	0.018	1511088	STOP	n/a	n/a	n/a	-999	13	[-999, -999, -999]	n/a	FR1	1	R1328E
1510.596	0.6	1511106	DISTRACT_END	n/a	n/a	n/a	-999	13	[0, 0, 0]	n/a	FR1	1	R1328E
1511.196	1.701	1511706	RETRIEVAL_ORIENT_START	n/a	n/a	n/a	-999	13	[0, 0, 0]	n/a	FR1	1	R1328E
1512.897	0.0	1513407	RETRIEVAL_ORIENT_END	n/a	n/a	n/a	-999	13	[0, 0, 0]	n/a	FR1	1	R1328E
1512.897	0.146	1513407	REC_START	n/a	n/a	n/a	-999	13	[0, 0, 0]	n/a	FR1	1	R1328E
1513.043	1.497	1513553	REC_WORD	1.497	n/a	FLEA	1	13	[0, 0, 0]	n/a	FR1	1	R1328E
1514.54	1.868	1515050	REC_WORD	1.868	n/a	LEAF	2	13	[0, 0, 0]	n/a	FR1	1	R1328E
1516.408	6.25	1516918	REC_WORD	6.25	n/a	ICE	11	13	[0, 0, 0]	n/a	FR1	1	R1328E
1522.658	5.866	1523167	REC_WORD	5.866	n/a	MAZE	5	13	[0, 0, 0]	n/a	FR1	1	R1328E
1528.524	14.386	1529033	REC_WORD	14.386	n/a	SHEET	3	13	[0, 0, 0]	n/a	FR1	1	R1328E
1542.91	0.0	1543419	REC_END	n/a	n/a	n/a	-999	13	[0, 0, 0]	n/a	FR1	1	R1328E
1542.91	0.017	1543419	TRIAL_END	n/a	n/a	n/a	-999	13	[0, 0, 0]	n/a	FR1	1	R1328E
1542.927	0.0	1543436	TRIAL_START	n/a	n/a	n/a	-999	14	[0, 0, 0]	n/a	FR1	1	R1328E
1542.927	0.0	1543436	TRIAL	n/a	n/a	n/a	-999	14	[0, 0, 0]	n/a	FR1	1	R1328E
1542.927	2.676	1543436	WAITING_START	n/a	n/a	n/a	-999	14	[0, 0, 0]	n/a	FR1	1	R1328E
1545.603	0.0	1546112	COUNTDOWN_START	n/a	n/a	n/a	-999	14	[0, 0, 0]	n/a	FR1	1	R1328E
1545.603	10.428	1546112	WAITING_END	n/a	n/a	n/a	-999	14	[0, 0, 0]	n/a	FR1	1	R1328E
1556.031	0.001	1556539	COUNTDOWN_END	n/a	n/a	n/a	-999	14	[0, 0, 0]	n/a	FR1	1	R1328E
1556.032	1.088	1556540	ORIENT_START	n/a	n/a	n/a	-999	14	[0, 0, 0]	n/a	FR1	1	R1328E
1557.12	0.001	1557628	ORIENT_END	n/a	n/a	n/a	-999	14	[0, 0, 0]	n/a	FR1	1	R1328E
1557.121	1.137	1557629	ENCODING_START	n/a	n/a	n/a	-999	14	[0, 0, 0]	n/a	FR1	1	R1328E
1558.258	1.63	1558766	WORD	n/a	n/a	DIME	1	14	[0, 0, 0]	n/a	FR1	1	R1328E
1559.888	0.915	1560396	WORD_OFF	n/a	n/a	DIME	1	14	[0, 0, 0]	n/a	FR1	1	R1328E
1560.803	1.635	1561311	WORD	n/a	n/a	CALF	2	14	[0, 0, 0]	n/a	FR1	1	R1328E
1562.438	1.117	1562946	WORD_OFF	n/a	n/a	CALF	2	14	[0, 0, 0]	n/a	FR1	1	R1328E
1563.555	1.633	1564063	WORD	n/a	n/a	SHIRT	3	14	[0, 0, 0]	n/a	FR1	1	R1328E
1565.188	1.017	1565696	WORD_OFF	n/a	n/a	SHIRT	3	14	[0, 0, 0]	n/a	FR1	1	R1328E
1566.205	1.635	1566713	WORD	n/a	n/a	STRAW	4	14	[0, 0, 0]	n/a	FR1	1	R1328E
1567.84	1.025	1568348	WORD_OFF	n/a	n/a	STRAW	4	14	[0, 0, 0]	n/a	FR1	1	R1328E
1568.865	1.625	1569373	WORD	n/a	n/a	SEAT	5	14	[0, 0, 0]	n/a	FR1	1	R1328E
1570.49	0.802	1570998	WORD_OFF	n/a	n/a	SEAT	5	14	[0, 0, 0]	n/a	FR1	1	R1328E
1571.292	1.632	1571800	WORD	n/a	n/a	LAND	6	14	[0, 0, 0]	n/a	FR1	1	R1328E
1572.924	1.094	1573432	WORD_OFF	n/a	n/a	LAND	6	14	[0, 0, 0]	n/a	FR1	1	R1328E
1574.018	1.623	1574526	WORD	n/a	n/a	ROSE	7	14	[0, 0, 0]	n/a	FR1	1	R1328E
1575.641	0.971	1576148	WORD_OFF	n/a	n/a	ROSE	7	14	[0, 0, 0]	n/a	FR1	1	R1328E
1576.612	1.629	1577119	WORD	n/a	n/a	CHAIR	8	14	[0, 0, 0]	n/a	FR1	1	R1328E
1578.241	1.139	1578748	WORD_OFF	n/a	n/a	CHAIR	8	14	[0, 0, 0]	n/a	FR1	1	R1328E
1579.38	1.629	1579887	WORD	n/a	n/a	TRUCK	9	14	[0, 0, 0]	n/a	FR1	1	R1328E
1581.009	1.009	1581516	WORD_OFF	n/a	n/a	TRUCK	9	14	[0, 0, 0]	n/a	FR1	1	R1328E
1582.018	1.625	1582525	WORD	n/a	n/a	GEESE	10	14	[0, 0, 0]	n/a	FR1	1	R1328E
1583.643	0.822	1584150	WORD_OFF	n/a	n/a	GEESE	10	14	[0, 0, 0]	n/a	FR1	1	R1328E
1584.465	1.627	1584972	WORD	n/a	n/a	DOOR	11	14	[0, 0, 0]	n/a	FR1	1	R1328E
1586.092	0.784	1586599	WORD_OFF	n/a	n/a	DOOR	11	14	[0, 0, 0]	n/a	FR1	1	R1328E
1586.876	1.634	1587383	WORD	n/a	n/a	DRESS	12	14	[0, 0, 0]	n/a	FR1	1	R1328E
1588.51	0.001	1589017	WORD_OFF	n/a	n/a	DRESS	12	14	[0, 0, 0]	n/a	FR1	1	R1328E
1588.511	0.0	1589018	ENCODING_END	n/a	n/a	n/a	-999	14	[0, 0, 0]	n/a	FR1	1	R1328E
1588.511	0.0	1589018	DISTRACT_START	n/a	n/a	n/a	-999	14	[0, 0, 0]	n/a	FR1	1	R1328E
1588.511	0.016	1589018	START	n/a	n/a	n/a	-999	14	[-999, -999, -999]	n/a	FR1	1	R1328E
1588.527	14.869	1589034	PROB	14.869	n/a	n/a	-999	14	[3, 6, 7]	16	FR1	1	R1328E
1603.396	13.502	1603902	PROB	13.502	n/a	n/a	-999	14	[7, 8, 2]	17	FR1	1	R1328E
1616.898	0.017	1617404	STOP	n/a	n/a	n/a	-999	14	[-999, -999, -999]	n/a	FR1	1	R1328E
1616.915	0.625	1617421	DISTRACT_END	n/a	n/a	n/a	-999	14	[0, 0, 0]	n/a	FR1	1	R1328E
1617.54	1.691	1618046	RETRIEVAL_ORIENT_START	n/a	n/a	n/a	-999	14	[0, 0, 0]	n/a	FR1	1	R1328E
1619.231	0.001	1619737	RETRIEVAL_ORIENT_END	n/a	n/a	n/a	-999	14	[0, 0, 0]	n/a	FR1	1	R1328E
1619.232	0.773	1619738	REC_START	n/a	n/a	n/a	-999	14	[0, 0, 0]	n/a	FR1	1	R1328E
1620.005	1.171	1620511	REC_WORD	1.171	n/a	GEESE	10	14	[0, 0, 0]	n/a	FR1	1	R1328E
1621.176	1.249	1621682	REC_WORD	1.249	n/a	DOOR	11	14	[0, 0, 0]	n/a	FR1	1	R1328E
1622.425	5.517	1622931	REC_WORD	5.517	n/a	DRESS	12	14	[0, 0, 0]	n/a	FR1	1	R1328E
1627.942	21.302	1628448	REC_WORD	21.302	n/a	FLEA	-999	14	[0, 0, 0]	n/a	FR1	1	R1328E
1649.244	0.0	1649749	REC_END	n/a	n/a	n/a	-999	14	[0, 0, 0]	n/a	FR1	1	R1328E
1649.244	0.019	1649749	TRIAL_END	n/a	n/a	n/a	-999	14	[0, 0, 0]	n/a	FR1	1	R1328E
1649.263	0.0	1649768	TRIAL_START	n/a	n/a	n/a	-999	15	[0, 0, 0]	n/a	FR1	1	R1328E
1649.263	0.001	1649768	TRIAL	n/a	n/a	n/a	-999	15	[0, 0, 0]	n/a	FR1	1	R1328E
1649.264	1.557	1649769	WAITING_START	n/a	n/a	n/a	-999	15	[0, 0, 0]	n/a	FR1	1	R1328E
1650.821	0.0	1651326	WAITING_END	n/a	n/a	n/a	-999	15	[0, 0, 0]	n/a	FR1	1	R1328E
1650.821	10.429	1651326	COUNTDOWN_START	n/a	n/a	n/a	-999	15	[0, 0, 0]	n/a	FR1	1	R1328E
1661.25	0.001	1661754	COUNTDOWN_END	n/a	n/a	n/a	-999	15	[0, 0, 0]	n/a	FR1	1	R1328E
1661.251	1.255	1661755	ORIENT_START	n/a	n/a	n/a	-999	15	[0, 0, 0]	n/a	FR1	1	R1328E
1662.506	0.001	1663010	ORIENT_END	n/a	n/a	n/a	-999	15	[0, 0, 0]	n/a	FR1	1	R1328E
1662.507	1.065	1663011	ENCODING_START	n/a	n/a	n/a	-999	15	[0, 0, 0]	n/a	FR1	1	R1328E
1663.572	1.634	1664076	WORD	n/a	n/a	TANK	1	15	[0, 0, 0]	n/a	FR1	1	R1328E
1665.206	0.818	1665710	WORD_OFF	n/a	n/a	TANK	1	15	[0, 0, 0]	n/a	FR1	1	R1328E
1666.024	1.633	1666528	WORD	n/a	n/a	SOUP	2	15	[0, 0, 0]	n/a	FR1	1	R1328E
1667.657	0.965	1668161	WORD_OFF	n/a	n/a	SOUP	2	15	[0, 0, 0]	n/a	FR1	1	R1328E
1668.622	1.635	1669126	WORD	n/a	n/a	WAVE	3	15	[0, 0, 0]	n/a	FR1	1	R1328E
1670.257	0.764	1670761	WORD_OFF	n/a	n/a	WAVE	3	15	[0, 0, 0]	n/a	FR1	1	R1328E
1671.021	1.637	1671525	WORD	n/a	n/a	SHIELD	4	15	[0, 0, 0]	n/a	FR1	1	R1328E
1672.658	0.925	1673162	WORD_OFF	n/a	n/a	SHIELD	4	15	[0, 0, 0]	n/a	FR1	1	R1328E
1673.583	1.625	1674087	WORD	n/a	n/a	TOE	5	15	[0, 0, 0]	n/a	FR1	1	R1328E
1675.208	0.835	1675712	WORD_OFF	n/a	n/a	TOE	5	15	[0, 0, 0]	n/a	FR1	1	R1328E
1676.043	1.633	1676547	WORD	n/a	n/a	CAVE	6	15	[0, 0, 0]	n/a	FR1	1	R1328E
1677.676	0.957	1678180	WORD_OFF	n/a	n/a	CAVE	6	15	[0, 0, 0]	n/a	FR1	1	R1328E
1678.633	1.626	1679137	WORD	n/a	n/a	HOLE	7	15	[0, 0, 0]	n/a	FR1	1	R1328E
1680.259	0.934	1680763	WORD_OFF	n/a	n/a	HOLE	7	15	[0, 0, 0]	n/a	FR1	1	R1328E
1681.193	1.634	1681697	WORD	n/a	n/a	DOCK	8	15	[0, 0, 0]	n/a	FR1	1	R1328E
1682.827	0.793	1683331	WORD_OFF	n/a	n/a	DOCK	8	15	[0, 0, 0]	n/a	FR1	1	R1328E
1683.62	1.623	1684124	WORD	n/a	n/a	SNOW	9	15	[0, 0, 0]	n/a	FR1	1	R1328E
1685.243	1.004	1685747	WORD_OFF	n/a	n/a	SNOW	9	15	[0, 0, 0]	n/a	FR1	1	R1328E
1686.247	1.63	1686751	WORD	n/a	n/a	DESK	10	15	[0, 0, 0]	n/a	FR1	1	R1328E
1687.877	1.134	1688381	WORD_OFF	n/a	n/a	DESK	10	15	[0, 0, 0]	n/a	FR1	1	R1328E
1689.011	1.634	1689514	WORD	n/a	n/a	ROOT	11	15	[0, 0, 0]	n/a	FR1	1	R1328E
1690.645	1.101	1691148	WORD_OFF	n/a	n/a	ROOT	11	15	[0, 0, 0]	n/a	FR1	1	R1328E
1691.746	1.632	1692249	WORD	n/a	n/a	WOOD	12	15	[0, 0, 0]	n/a	FR1	1	R1328E
1693.378	0.001	1693881	WORD_OFF	n/a	n/a	WOOD	12	15	[0, 0, 0]	n/a	FR1	1	R1328E
1693.379	0.0	1693882	DISTRACT_START	n/a	n/a	n/a	-999	15	[0, 0, 0]	n/a	FR1	1	R1328E
1693.379	0.0	1693882	ENCODING_END	n/a	n/a	n/a	-999	15	[0, 0, 0]	n/a	FR1	1	R1328E
1693.379	0.016	1693882	START	n/a	n/a	n/a	-999	15	[-999, -999, -999]	n/a	FR1	1	R1328E
1693.395	7.784	1693898	PROB	7.784	n/a	n/a	-999	15	[2, 6, 4]	12	FR1	1	R1328E
1701.179	11.985	1701682	PROB	11.985	n/a	n/a	-999	15	[5, 2, 7]	14	FR1	1	R1328E
1713.164	11.071	1713667	PROB	11.071	n/a	n/a	-999	15	[8, 4, 2]	17	FR1	1	R1328E
1724.235	0.015	1724737	STOP	n/a	n/a	n/a	-999	15	[-999, -999, -999]	n/a	FR1	1	R1328E
1724.25	0.677	1724752	DISTRACT_END	n/a	n/a	n/a	-999	15	[0, 0, 0]	n/a	FR1	1	R1328E
1724.927	1.541	1725429	RETRIEVAL_ORIENT_START	n/a	n/a	n/a	-999	15	[0, 0, 0]	n/a	FR1	1	R1328E
1726.468	0.0	1726970	RETRIEVAL_ORIENT_END	n/a	n/a	n/a	-999	15	[0, 0, 0]	n/a	FR1	1	R1328E
1726.468	0.762	1726970	REC_START	n/a	n/a	n/a	-999	15	[0, 0, 0]	n/a	FR1	1	R1328E
1727.23	1.004	1727732	REC_WORD	1.004	n/a	TANK	1	15	[0, 0, 0]	n/a	FR1	1	R1328E
1728.234	1.741	1728736	REC_WORD	1.741	n/a	SHIELD	4	15	[0, 0, 0]	n/a	FR1	1	R1328E
1729.975	1.309	1730477	REC_WORD	1.309	n/a	DOOR	-999	15	[0, 0, 0]	n/a	FR1	1	R1328E
1731.284	25.195	1731786	REC_WORD	25.195	n/a	WAVE	3	15	[0, 0, 0]	n/a	FR1	1	R1328E
1756.479	0.001	1756980	REC_END	n/a	n/a	n/a	-999	15	[0, 0, 0]	n/a	FR1	1	R1328E
1756.48	0.017	1756981	TRIAL_END	n/a	n/a	n/a	-999	15	[0, 0, 0]	n/a	FR1	1	R1328E
1756.497	0.0	1756998	TRIAL_START	n/a	n/a	n/a	-999	16	[0, 0, 0]	n/a	FR1	1	R1328E
1756.497	0.001	1756998	TRIAL	n/a	n/a	n/a	-999	16	[0, 0, 0]	n/a	FR1	1	R1328E
1756.498	2.008	1756999	WAITING_START	n/a	n/a	n/a	-999	16	[0, 0, 0]	n/a	FR1	1	R1328E
1758.506	0.001	1759007	WAITING_END	n/a	n/a	n/a	-999	16	[0, 0, 0]	n/a	FR1	1	R1328E
1758.507	10.428	1759008	COUNTDOWN_START	n/a	n/a	n/a	-999	16	[0, 0, 0]	n/a	FR1	1	R1328E
1768.935	0.0	1769436	COUNTDOWN_END	n/a	n/a	n/a	-999	16	[0, 0, 0]	n/a	FR1	1	R1328E
1768.935	1.156	1769436	ORIENT_START	n/a	n/a	n/a	-999	16	[0, 0, 0]	n/a	FR1	1	R1328E
1770.091	0.0	1770592	ENCODING_START	n/a	n/a	n/a	-999	16	[0, 0, 0]	n/a	FR1	1	R1328E
1770.091	0.863	1770592	ORIENT_END	n/a	n/a	n/a	-999	16	[0, 0, 0]	n/a	FR1	1	R1328E
1770.954	1.622	1771455	WORD	n/a	n/a	MUG	1	16	[0, 0, 0]	n/a	FR1	1	R1328E
1772.576	0.916	1773077	WORD_OFF	n/a	n/a	MUG	1	16	[0, 0, 0]	n/a	FR1	1	R1328E
1773.492	1.633	1773993	WORD	n/a	n/a	DART	2	16	[0, 0, 0]	n/a	FR1	1	R1328E
1775.125	0.771	1775625	WORD_OFF	n/a	n/a	DART	2	16	[0, 0, 0]	n/a	FR1	1	R1328E
1775.896	1.631	1776396	WORD	n/a	n/a	TREE	3	16	[0, 0, 0]	n/a	FR1	1	R1328E
1777.527	0.788	1778027	WORD_OFF	n/a	n/a	TREE	3	16	[0, 0, 0]	n/a	FR1	1	R1328E
1778.315	1.629	1778815	WORD	n/a	n/a	BATH	4	16	[0, 0, 0]	n/a	FR1	1	R1328E
1779.944	0.939	1780444	WORD_OFF	n/a	n/a	BATH	4	16	[0, 0, 0]	n/a	FR1	1	R1328E
1780.883	1.628	1781383	WORD	n/a	n/a	FLUTE	5	16	[0, 0, 0]	n/a	FR1	1	R1328E
1782.511	1.102	1783011	WORD_OFF	n/a	n/a	FLUTE	5	16	[0, 0, 0]	n/a	FR1	1	R1328E
1783.613	1.631	1784113	WORD	n/a	n/a	WORLD	6	16	[0, 0, 0]	n/a	FR1	1	R1328E
1785.244	0.86	1785744	WORD_OFF	n/a	n/a	WORLD	6	16	[0, 0, 0]	n/a	FR1	1	R1328E
1786.104	1.608	1786604	WORD	n/a	n/a	BRUSH	7	16	[0, 0, 0]	n/a	FR1	1	R1328E
1787.712	0.876	1788212	WORD_OFF	n/a	n/a	BRUSH	7	16	[0, 0, 0]	n/a	FR1	1	R1328E
1788.588	1.623	1789088	WORD	n/a	n/a	PEACH	8	16	[0, 0, 0]	n/a	FR1	1	R1328E
1790.211	0.978	1790711	WORD_OFF	n/a	n/a	PEACH	8	16	[0, 0, 0]	n/a	FR1	1	R1328E
1791.189	1.607	1791689	WORD	n/a	n/a	SPONGE	9	16	[0, 0, 0]	n/a	FR1	1	R1328E
1792.796	0.929	1793296	WORD_OFF	n/a	n/a	SPONGE	9	16	[0, 0, 0]	n/a	FR1	1	R1328E
1793.725	1.621	1794225	WORD	n/a	n/a	GATE	10	16	[0, 0, 0]	n/a	FR1	1	R1328E
1795.346	1.141	1795846	WORD_OFF	n/a	n/a	GATE	10	16	[0, 0, 0]	n/a	FR1	1	R1328E
1796.487	1.626	1796987	WORD	n/a	n/a	CONE	11	16	[0, 0, 0]	n/a	FR1	1	R1328E
1798.113	0.888	1798613	WORD_OFF	n/a	n/a	CONE	11	16	[0, 0, 0]	n/a	FR1	1	R1328E
1799.001	1.63	1799501	WORD	n/a	n/a	SLEEVE	12	16	[0, 0, 0]	n/a	FR1	1	R1328E
1800.631	0.0	1801131	ENCODING_END	n/a	n/a	n/a	-999	16	[0, 0, 0]	n/a	FR1	1	R1328E
1800.631	0.0	1801131	DISTRACT_START	n/a	n/a	n/a	-999	16	[0, 0, 0]	n/a	FR1	1	R1328E
1800.631	0.0	1801131	WORD_OFF	n/a	n/a	SLEEVE	12	16	[0, 0, 0]	n/a	FR1	1	R1328E
1800.631	0.016	1801131	START	n/a	n/a	n/a	-999	16	[-999, -999, -999]	n/a	FR1	1	R1328E
1800.647	5.951	1801147	PROB	5.951	n/a	n/a	-999	16	[8, 8, 1]	17	FR1	1	R1328E
1806.598	15.504	1807097	PROB	15.504	n/a	n/a	-999	16	[4, 7, 8]	19	FR1	1	R1328E
1822.102	0.015	1822601	STOP	n/a	n/a	n/a	-999	16	[-999, -999, -999]	n/a	FR1	1	R1328E
1822.117	0.618	1822616	DISTRACT_END	n/a	n/a	n/a	-999	16	[0, 0, 0]	n/a	FR1	1	R1328E
1822.735	1.667	1823234	RETRIEVAL_ORIENT_START	n/a	n/a	n/a	-999	16	[0, 0, 0]	n/a	FR1	1	R1328E
1824.402	0.0	1824901	RETRIEVAL_ORIENT_END	n/a	n/a	n/a	-999	16	[0, 0, 0]	n/a	FR1	1	R1328E
1824.402	0.622	1824901	REC_START	n/a	n/a	n/a	-999	16	[0, 0, 0]	n/a	FR1	1	R1328E
1825.024	1.418	1825523	REC_WORD	1.418	n/a	FLUTE	5	16	[0, 0, 0]	n/a	FR1	1	R1328E
1826.442	27.971	1826941	REC_WORD	27.971	n/a	TREE	3	16	[0, 0, 0]	n/a	FR1	1	R1328E
1854.413	0.001	1854911	REC_END	n/a	n/a	n/a	-999	16	[0, 0, 0]	n/a	FR1	1	R1328E
1854.414	0.017	1854912	TRIAL_END	n/a	n/a	n/a	-999	16	[0, 0, 0]	n/a	FR1	1	R1328E
1854.431	0.0	1854929	WAITING_START	n/a	n/a	n/a	-999	17	[0, 0, 0]	n/a	FR1	1	R1328E
1854.431	0.0	1854929	TRIAL	n/a	n/a	n/a	-999	17	[0, 0, 0]	n/a	FR1	1	R1328E
1854.431	4.477	1854929	TRIAL_START	n/a	n/a	n/a	-999	17	[0, 0, 0]	n/a	FR1	1	R1328E
1858.908	0.0	1859406	WAITING_END	n/a	n/a	n/a	-999	17	[0, 0, 0]	n/a	FR1	1	R1328E
1858.908	10.428	1859406	COUNTDOWN_START	n/a	n/a	n/a	-999	17	[0, 0, 0]	n/a	FR1	1	R1328E
1869.336	0.001	1869833	COUNTDOWN_END	n/a	n/a	n/a	-999	17	[0, 0, 0]	n/a	FR1	1	R1328E
1869.337	1.156	1869834	ORIENT_START	n/a	n/a	n/a	-999	17	[0, 0, 0]	n/a	FR1	1	R1328E
1870.493	0.0	1870990	ORIENT_END	n/a	n/a	n/a	-999	17	[0, 0, 0]	n/a	FR1	1	R1328E
1870.493	1.017	1870990	ENCODING_START	n/a	n/a	n/a	-999	17	[0, 0, 0]	n/a	FR1	1	R1328E
1871.51	1.632	1872007	WORD	n/a	n/a	BRICK	1	17	[0, 0, 0]	n/a	FR1	1	R1328E
1873.142	0.882	1873639	WORD_OFF	n/a	n/a	BRICK	1	17	[0, 0, 0]	n/a	FR1	1	R1328E
1874.024	1.637	1874521	WORD	n/a	n/a	BALL	2	17	[0, 0, 0]	n/a	FR1	1	R1328E
1875.661	0.829	1876158	WORD_OFF	n/a	n/a	BALL	2	17	[0, 0, 0]	n/a	FR1	1	R1328E
1876.49	1.637	1876987	WORD	n/a	n/a	STEAM	3	17	[0, 0, 0]	n/a	FR1	1	R1328E
1878.127	1.024	1878624	WORD_OFF	n/a	n/a	STEAM	3	17	[0, 0, 0]	n/a	FR1	1	R1328E
1879.151	1.627	1879648	WORD	n/a	n/a	TOAD	4	17	[0, 0, 0]	n/a	FR1	1	R1328E
1880.778	1.015	1881275	WORD_OFF	n/a	n/a	TOAD	4	17	[0, 0, 0]	n/a	FR1	1	R1328E
1881.793	1.635	1882290	WORD	n/a	n/a	TAIL	5	17	[0, 0, 0]	n/a	FR1	1	R1328E
1883.428	0.973	1883925	WORD_OFF	n/a	n/a	TAIL	5	17	[0, 0, 0]	n/a	FR1	1	R1328E
1884.401	1.628	1884898	WORD	n/a	n/a	WEB	6	17	[0, 0, 0]	n/a	FR1	1	R1328E
1886.029	1.033	1886526	WORD_OFF	n/a	n/a	WEB	6	17	[0, 0, 0]	n/a	FR1	1	R1328E
1887.062	1.634	1887559	WORD	n/a	n/a	PLATE	7	17	[0, 0, 0]	n/a	FR1	1	R1328E
1888.696	1.057	1889192	WORD_OFF	n/a	n/a	PLATE	7	17	[0, 0, 0]	n/a	FR1	1	R1328E
1889.753	1.627	1890249	WORD	n/a	n/a	CORN	8	17	[0, 0, 0]	n/a	FR1	1	R1328E
1891.38	0.823	1891876	WORD_OFF	n/a	n/a	CORN	8	17	[0, 0, 0]	n/a	FR1	1	R1328E
1892.203	1.61	1892699	WORD	n/a	n/a	NOSE	9	17	[0, 0, 0]	n/a	FR1	1	R1328E
1893.813	0.994	1894309	WORD_OFF	n/a	n/a	NOSE	9	17	[0, 0, 0]	n/a	FR1	1	R1328E
1894.807	1.624	1895303	WORD	n/a	n/a	VINE	10	17	[0, 0, 0]	n/a	FR1	1	R1328E
1896.431	1.05	1896927	WORD_OFF	n/a	n/a	VINE	10	17	[0, 0, 0]	n/a	FR1	1	R1328E
1897.481	1.633	1897977	WORD	n/a	n/a	HAWK	11	17	[0, 0, 0]	n/a	FR1	1	R1328E
1899.114	0.896	1899610	WORD_OFF	n/a	n/a	HAWK	11	17	[0, 0, 0]	n/a	FR1	1	R1328E
1900.01	1.622	1900506	WORD	n/a	n/a	NET	12	17	[0, 0, 0]	n/a	FR1	1	R1328E
1901.632	0.0	1902128	WORD_OFF	n/a	n/a	NET	12	17	[0, 0, 0]	n/a	FR1	1	R1328E
1901.632	0.0	1902128	ENCODING_END	n/a	n/a	n/a	-999	17	[0, 0, 0]	n/a	FR1	1	R1328E
1901.632	0.0	1902128	DISTRACT_START	n/a	n/a	n/a	-999	17	[0, 0, 0]	n/a	FR1	1	R1328E
1901.632	0.016	1902128	START	n/a	n/a	n/a	-999	17	[-999, -999, -999]	n/a	FR1	1	R1328E
1901.648	13.369	1902144	PROB	13.369	n/a	n/a	-999	17	[3, 8, 9]	20	FR1	1	R1328E
1915.017	5.985	1915513	PROB	5.985	n/a	n/a	-999	17	[1, 5, 4]	10	FR1	1	R1328E
1921.002	3.764	1921497	PROB	3.764	n/a	n/a	-999	17	[1, 9, 9]	19	FR1	1	R1328E
1924.766	0.02	1925261	STOP	n/a	n/a	n/a	-999	17	[-999, -999, -999]	n/a	FR1	1	R1328E
1924.786	0.526	1925281	DISTRACT_END	n/a	n/a	n/a	-999	17	[0, 0, 0]	n/a	FR1	1	R1328E
1925.312	1.708	1925807	RETRIEVAL_ORIENT_START	n/a	n/a	n/a	-999	17	[0, 0, 0]	n/a	FR1	1	R1328E
1927.02	0.0	1927515	RETRIEVAL_ORIENT_END	n/a	n/a	n/a	-999	17	[0, 0, 0]	n/a	FR1	1	R1328E
1927.02	0.876	1927515	REC_START	n/a	n/a	n/a	-999	17	[0, 0, 0]	n/a	FR1	1	R1328E
1927.896	15.153	1928391	REC_WORD	15.153	n/a	NOSE	9	17	[0, 0, 0]	n/a	FR1	1	R1328E
1943.049	13.982	1943544	REC_WORD	13.982	n/a	PLATE	7	17	[0, 0, 0]	n/a	FR1	1	R1328E
1957.031	0.0	1957525	REC_END	n/a	n/a	n/a	-999	17	[0, 0, 0]	n/a	FR1	1	R1328E
1957.031	0.018	1957525	TRIAL_END	n/a	n/a	n/a	-999	17	[0, 0, 0]	n/a	FR1	1	R1328E
1957.049	0.0	1957543	TRIAL_START	n/a	n/a	n/a	-999	18	[0, 0, 0]	n/a	FR1	1	R1328E
1957.049	0.0	1957543	TRIAL	n/a	n/a	n/a	-999	18	[0, 0, 0]	n/a	FR1	1	R1328E
1957.049	3.91	1957543	WAITING_START	n/a	n/a	n/a	-999	18	[0, 0, 0]	n/a	FR1	1	R1328E
1960.959	0.0	1961453	WAITING_END	n/a	n/a	n/a	-999	18	[0, 0, 0]	n/a	FR1	1	R1328E
1960.959	10.428	1961453	COUNTDOWN_START	n/a	n/a	n/a	-999	18	[0, 0, 0]	n/a	FR1	1	R1328E
1971.387	0.001	1971881	COUNTDOWN_END	n/a	n/a	n/a	-999	18	[0, 0, 0]	n/a	FR1	1	R1328E
1971.388	1.039	1971882	ORIENT_START	n/a	n/a	n/a	-999	18	[0, 0, 0]	n/a	FR1	1	R1328E
1972.427	0.001	1972921	ORIENT_END	n/a	n/a	n/a	-999	18	[0, 0, 0]	n/a	FR1	1	R1328E
1972.428	0.898	1972922	ENCODING_START	n/a	n/a	n/a	-999	18	[0, 0, 0]	n/a	FR1	1	R1328E
1973.326	1.635	1973819	WORD	n/a	n/a	OAR	1	18	[0, 0, 0]	n/a	FR1	1	R1328E
1974.961	0.797	1975454	WORD_OFF	n/a	n/a	OAR	1	18	[0, 0, 0]	n/a	FR1	1	R1328E
1975.758	1.637	1976251	WORD	n/a	n/a	SEED	2	18	[0, 0, 0]	n/a	FR1	1	R1328E
1977.395	0.762	1977888	WORD_OFF	n/a	n/a	SEED	2	18	[0, 0, 0]	n/a	FR1	1	R1328E
1978.157	1.622	1978650	WORD	n/a	n/a	STEM	3	18	[0, 0, 0]	n/a	FR1	1	R1328E
1979.779	1.041	1980272	WORD_OFF	n/a	n/a	STEM	3	18	[0, 0, 0]	n/a	FR1	1	R1328E
1980.82	1.626	1981313	WORD	n/a	n/a	FARM	4	18	[0, 0, 0]	n/a	FR1	1	R1328E
1982.446	0.996	1982939	WORD_OFF	n/a	n/a	FARM	4	18	[0, 0, 0]	n/a	FR1	1	R1328E
1983.442	1.621	1983935	WORD	n/a	n/a	ARK	5	18	[0, 0, 0]	n/a	FR1	1	R1328E
1985.063	1.118	1985556	WORD_OFF	n/a	n/a	ARK	5	18	[0, 0, 0]	n/a	FR1	1	R1328E
1986.181	1.616	1986674	WORD	n/a	n/a	LEG	6	18	[0, 0, 0]	n/a	FR1	1	R1328E
1987.797	0.756	1988290	WORD_OFF	n/a	n/a	LEG	6	18	[0, 0, 0]	n/a	FR1	1	R1328E
1988.553	1.627	1989046	WORD	n/a	n/a	BED	7	18	[0, 0, 0]	n/a	FR1	1	R1328E
1990.18	0.807	1990673	WORD_OFF	n/a	n/a	BED	7	18	[0, 0, 0]	n/a	FR1	1	R1328E
1990.987	1.628	1991480	WORD	n/a	n/a	COUCH	8	18	[0, 0, 0]	n/a	FR1	1	R1328E
1992.615	0.839	1993108	WORD_OFF	n/a	n/a	COUCH	8	18	[0, 0, 0]	n/a	FR1	1	R1328E
1993.454	1.627	1993947	WORD	n/a	n/a	WING	9	18	[0, 0, 0]	n/a	FR1	1	R1328E
1995.081	0.791	1995574	WORD_OFF	n/a	n/a	WING	9	18	[0, 0, 0]	n/a	FR1	1	R1328E
1995.872	1.627	1996365	WORD	n/a	n/a	BAT	10	18	[0, 0, 0]	n/a	FR1	1	R1328E
1997.499	0.76	1997992	WORD_OFF	n/a	n/a	BAT	10	18	[0, 0, 0]	n/a	FR1	1	R1328E
1998.259	1.623	1998752	WORD	n/a	n/a	GUARD	11	18	[0, 0, 0]	n/a	FR1	1	R1328E
1999.882	0.85	2000375	WORD_OFF	n/a	n/a	GUARD	11	18	[0, 0, 0]	n/a	FR1	1	R1328E
2000.732	1.634	2001225	WORD	n/a	n/a	SNAIL	12	18	[0, 0, 0]	n/a	FR1	1	R1328E
2002.366	0.0	2002858	ENCODING_END	n/a	n/a	n/a	-999	18	[0, 0, 0]	n/a	FR1	1	R1328E
2002.366	0.001	2002858	WORD_OFF	n/a	n/a	SNAIL	12	18	[0, 0, 0]	n/a	FR1	1	R1328E
2002.367	0.0	2002859	DISTRACT_START	n/a	n/a	n/a	-999	18	[0, 0, 0]	n/a	FR1	1	R1328E
2002.367	0.016	2002859	START	n/a	n/a	n/a	-999	18	[-999, -999, -999]	n/a	FR1	1	R1328E
2002.383	14.801	2002875	PROB	14.801	n/a	n/a	-999	18	[2, 6, 9]	17	FR1	1	R1328E
2017.184	22.292	2017676	PROB	22.292	n/a	n/a	-999	18	[4, 6, 8]	18	FR1	1	R1328E
2039.476	0.013	2039967	STOP	n/a	n/a	n/a	-999	18	[-999, -999, -999]	n/a	FR1	1	R1328E
2039.489	0.581	2039980	DISTRACT_END	n/a	n/a	n/a	-999	18	[0, 0, 0]	n/a	FR1	1	R1328E
2040.07	1.553	2040561	RETRIEVAL_ORIENT_START	n/a	n/a	n/a	-999	18	[0, 0, 0]	n/a	FR1	1	R1328E
2041.623	0.0	2042114	RETRIEVAL_ORIENT_END	n/a	n/a	n/a	-999	18	[0, 0, 0]	n/a	FR1	1	R1328E
2041.623	0.777	2042114	REC_START	n/a	n/a	n/a	-999	18	[0, 0, 0]	n/a	FR1	1	R1328E
2042.4	1.405	2042891	REC_WORD	1.405	n/a	OAR	1	18	[0, 0, 0]	n/a	FR1	1	R1328E
2043.805	1.593	2044296	REC_WORD	1.593	n/a	WING	9	18	[0, 0, 0]	n/a	FR1	1	R1328E
2045.398	1.197	2045889	REC_WORD	1.197	n/a	STEM	3	18	[0, 0, 0]	n/a	FR1	1	R1328E
2046.595	3.385	2047086	REC_WORD	3.385	n/a	STEM	3	18	[0, 0, 0]	n/a	FR1	1	R1328E
2049.98	21.656	2050471	REC_WORD	21.656	n/a	SEED	2	18	[0, 0, 0]	n/a	FR1	1	R1328E
2071.636	0.0	2072126	REC_END	n/a	n/a	n/a	-999	18	[0, 0, 0]	n/a	FR1	1	R1328E
2071.636	0.018	2072126	TRIAL_END	n/a	n/a	n/a	-999	18	[0, 0, 0]	n/a	FR1	1	R1328E
2071.654	0.0	2072144	TRIAL_START	n/a	n/a	n/a	-999	19	[0, 0, 0]	n/a	FR1	1	R1328E
2071.654	0.0	2072144	TRIAL	n/a	n/a	n/a	-999	19	[0, 0, 0]	n/a	FR1	1	R1328E
2071.654	2.058	2072144	WAITING_START	n/a	n/a	n/a	-999	19	[0, 0, 0]	n/a	FR1	1	R1328E
2073.712	0.0	2074202	WAITING_END	n/a	n/a	n/a	-999	19	[0, 0, 0]	n/a	FR1	1	R1328E
2073.712	10.43	2074202	COUNTDOWN_START	n/a	n/a	n/a	-999	19	[0, 0, 0]	n/a	FR1	1	R1328E
2084.142	0.0	2084632	ORIENT_START	n/a	n/a	n/a	-999	19	[0, 0, 0]	n/a	FR1	1	R1328E
2084.142	1.139	2084632	COUNTDOWN_END	n/a	n/a	n/a	-999	19	[0, 0, 0]	n/a	FR1	1	R1328E
2085.281	0.0	2085771	ORIENT_END	n/a	n/a	n/a	-999	19	[0, 0, 0]	n/a	FR1	1	R1328E
2085.281	0.804	2085771	ENCODING_START	n/a	n/a	n/a	-999	19	[0, 0, 0]	n/a	FR1	1	R1328E
2086.085	1.613	2086575	WORD	n/a	n/a	CAPE	1	19	[0, 0, 0]	n/a	FR1	1	R1328E
2087.698	1.122	2088187	WORD_OFF	n/a	n/a	CAPE	1	19	[0, 0, 0]	n/a	FR1	1	R1328E
2088.82	1.628	2089309	WORD	n/a	n/a	MUD	2	19	[0, 0, 0]	n/a	FR1	1	R1328E
2090.448	0.976	2090937	WORD_OFF	n/a	n/a	MUD	2	19	[0, 0, 0]	n/a	FR1	1	R1328E
2091.424	1.625	2091913	WORD	n/a	n/a	SKUNK	3	19	[0, 0, 0]	n/a	FR1	1	R1328E
2093.049	1.032	2093538	WORD_OFF	n/a	n/a	SKUNK	3	19	[0, 0, 0]	n/a	FR1	1	R1328E
2094.081	1.635	2094570	WORD	n/a	n/a	CART	4	19	[0, 0, 0]	n/a	FR1	1	R1328E
2095.716	0.867	2096205	WORD_OFF	n/a	n/a	CART	4	19	[0, 0, 0]	n/a	FR1	1	R1328E
2096.583	1.632	2097072	WORD	n/a	n/a	STOOL	5	19	[0, 0, 0]	n/a	FR1	1	R1328E
2098.215	0.956	2098704	WORD_OFF	n/a	n/a	STOOL	5	19	[0, 0, 0]	n/a	FR1	1	R1328E
2099.171	1.612	2099660	WORD	n/a	n/a	CASH	6	19	[0, 0, 0]	n/a	FR1	1	R1328E
2100.783	1.084	2101272	WORD_OFF	n/a	n/a	CASH	6	19	[0, 0, 0]	n/a	FR1	1	R1328E
2101.867	1.633	2102356	WORD	n/a	n/a	BAND	7	19	[0, 0, 0]	n/a	FR1	1	R1328E
2103.5	1.001	2103989	WORD_OFF	n/a	n/a	BAND	7	19	[0, 0, 0]	n/a	FR1	1	R1328E
2104.501	1.632	2104990	WORD	n/a	n/a	BOAT	8	19	[0, 0, 0]	n/a	FR1	1	R1328E
2106.133	0.918	2106622	WORD_OFF	n/a	n/a	BOAT	8	19	[0, 0, 0]	n/a	FR1	1	R1328E
2107.051	1.634	2107540	WORD	n/a	n/a	HEART	9	19	[0, 0, 0]	n/a	FR1	1	R1328E
2108.685	0.872	2109174	WORD_OFF	n/a	n/a	HEART	9	19	[0, 0, 0]	n/a	FR1	1	R1328E
2109.557	1.627	2110046	WORD	n/a	n/a	TOY	10	19	[0, 0, 0]	n/a	FR1	1	R1328E
2111.184	0.89	2111673	WORD_OFF	n/a	n/a	TOY	10	19	[0, 0, 0]	n/a	FR1	1	R1328E
2112.074	1.628	2112563	WORD	n/a	n/a	BENCH	11	19	[0, 0, 0]	n/a	FR1	1	R1328E
2113.702	1.076	2114191	WORD_OFF	n/a	n/a	BENCH	11	19	[0, 0, 0]	n/a	FR1	1	R1328E
2114.778	1.625	2115267	WORD	n/a	n/a	CLOUD	12	19	[0, 0, 0]	n/a	FR1	1	R1328E
2116.403	0.0	2116891	ENCODING_END	n/a	n/a	n/a	-999	19	[0, 0, 0]	n/a	FR1	1	R1328E
2116.403	0.0	2116891	DISTRACT_START	n/a	n/a	n/a	-999	19	[0, 0, 0]	n/a	FR1	1	R1328E
2116.403	0.001	2116891	WORD_OFF	n/a	n/a	CLOUD	12	19	[0, 0, 0]	n/a	FR1	1	R1328E
2116.404	0.015	2116892	START	n/a	n/a	n/a	-999	19	[-999, -999, -999]	n/a	FR1	1	R1328E
2116.419	6.101	2116907	PROB	6.101	n/a	n/a	-999	19	[4, 2, 6]	12	FR1	1	R1328E
2122.52	34.615	2123008	PROB	34.615	n/a	n/a	-999	19	[9, 4, 8]	21	FR1	1	R1328E
2157.135	0.007	2157622	STOP	n/a	n/a	n/a	-999	19	[-999, -999, -999]	n/a	FR1	1	R1328E
2157.142	0.647	2157629	DISTRACT_END	n/a	n/a	n/a	-999	19	[0, 0, 0]	n/a	FR1	1	R1328E
2157.789	1.571	2158276	RETRIEVAL_ORIENT_START	n/a	n/a	n/a	-999	19	[0, 0, 0]	n/a	FR1	1	R1328E
2159.36	0.001	2159847	RETRIEVAL_ORIENT_END	n/a	n/a	n/a	-999	19	[0, 0, 0]	n/a	FR1	1	R1328E
2159.361	0.164	2159848	REC_START	n/a	n/a	n/a	-999	19	[0, 0, 0]	n/a	FR1	1	R1328E
2159.525	0.565	2160012	REC_WORD	0.565	n/a	CAPE	1	19	[0, 0, 0]	n/a	FR1	1	R1328E
2160.09	1.122	2160577	REC_WORD	1.122	n/a	MUD	2	19	[0, 0, 0]	n/a	FR1	1	R1328E
2161.212	5.754	2161699	REC_WORD	5.754	n/a	CASH	6	19	[0, 0, 0]	n/a	FR1	1	R1328E
2166.966	3.525	2167453	REC_WORD	3.525	n/a	BAT	-999	19	[0, 0, 0]	n/a	FR1	1	R1328E
2170.491	11.836	2170978	REC_WORD	11.836	n/a	HEART	9	19	[0, 0, 0]	n/a	FR1	1	R1328E
2182.327	6.268	2182813	REC_WORD	6.268	n/a	TOY	10	19	[0, 0, 0]	n/a	FR1	1	R1328E
2188.595	0.781	2189081	REC_WORD	0.781	n/a	BAND	7	19	[0, 0, 0]	n/a	FR1	1	R1328E
2189.376	0.0	2189862	REC_END	n/a	n/a	n/a	-999	19	[0, 0, 0]	n/a	FR1	1	R1328E
2189.376	0.017	2189862	TRIAL_END	n/a	n/a	n/a	-999	19	[0, 0, 0]	n/a	FR1	1	R1328E
2189.393	0.001	2189879	TRIAL_START	n/a	n/a	n/a	-999	20	[0, 0, 0]	n/a	FR1	1	R1328E
2189.394	0.0	2189880	TRIAL	n/a	n/a	n/a	-999	20	[0, 0, 0]	n/a	FR1	1	R1328E
2189.394	4.006	2189880	WAITING_START	n/a	n/a	n/a	-999	20	[0, 0, 0]	n/a	FR1	1	R1328E
2193.4	0.0	2193886	COUNTDOWN_START	n/a	n/a	n/a	-999	20	[0, 0, 0]	n/a	FR1	1	R1328E
2193.4	10.429	2193886	WAITING_END	n/a	n/a	n/a	-999	20	[0, 0, 0]	n/a	FR1	1	R1328E
2203.829	0.0	2204314	COUNTDOWN_END	n/a	n/a	n/a	-999	20	[0, 0, 0]	n/a	FR1	1	R1328E
2203.829	1.206	2204314	ORIENT_START	n/a	n/a	n/a	-999	20	[0, 0, 0]	n/a	FR1	1	R1328E
2205.035	0.0	2205520	ORIENT_END	n/a	n/a	n/a	-999	20	[0, 0, 0]	n/a	FR1	1	R1328E
2205.035	0.912	2205520	ENCODING_START	n/a	n/a	n/a	-999	20	[0, 0, 0]	n/a	FR1	1	R1328E
2205.947	1.622	2206432	WORD	n/a	n/a	MULE	1	20	[0, 0, 0]	n/a	FR1	1	R1328E
2207.569	0.894	2208054	WORD_OFF	n/a	n/a	MULE	1	20	[0, 0, 0]	n/a	FR1	1	R1328E
2208.463	1.622	2208948	WORD	n/a	n/a	HOUSE	2	20	[0, 0, 0]	n/a	FR1	1	R1328E
2210.085	0.782	2210570	WORD_OFF	n/a	n/a	HOUSE	2	20	[0, 0, 0]	n/a	FR1	1	R1328E
2210.867	1.636	2211352	WORD	n/a	n/a	BARN	3	20	[0, 0, 0]	n/a	FR1	1	R1328E
2212.503	0.879	2212988	WORD_OFF	n/a	n/a	BARN	3	20	[0, 0, 0]	n/a	FR1	1	R1328E
2213.382	1.622	2213867	WORD	n/a	n/a	CLAY	4	20	[0, 0, 0]	n/a	FR1	1	R1328E
2215.004	0.912	2215489	WORD_OFF	n/a	n/a	CLAY	4	20	[0, 0, 0]	n/a	FR1	1	R1328E
2215.916	1.621	2216401	WORD	n/a	n/a	HORN	5	20	[0, 0, 0]	n/a	FR1	1	R1328E
2217.537	0.952	2218022	WORD_OFF	n/a	n/a	HORN	5	20	[0, 0, 0]	n/a	FR1	1	R1328E
2218.489	1.631	2218974	WORD	n/a	n/a	INK	6	20	[0, 0, 0]	n/a	FR1	1	R1328E
2220.12	0.886	2220605	WORD_OFF	n/a	n/a	INK	6	20	[0, 0, 0]	n/a	FR1	1	R1328E
2221.006	1.632	2221491	WORD	n/a	n/a	VAN	7	20	[0, 0, 0]	n/a	FR1	1	R1328E
2222.638	0.755	2223123	WORD_OFF	n/a	n/a	VAN	7	20	[0, 0, 0]	n/a	FR1	1	R1328E
2223.393	1.629	2223878	WORD	n/a	n/a	GOLD	8	20	[0, 0, 0]	n/a	FR1	1	R1328E
2225.022	0.807	2225507	WORD_OFF	n/a	n/a	GOLD	8	20	[0, 0, 0]	n/a	FR1	1	R1328E
2225.829	1.627	2226314	WORD	n/a	n/a	MOON	9	20	[0, 0, 0]	n/a	FR1	1	R1328E
2227.456	0.961	2227941	WORD_OFF	n/a	n/a	MOON	9	20	[0, 0, 0]	n/a	FR1	1	R1328E
2228.417	1.623	2228902	WORD	n/a	n/a	WORM	10	20	[0, 0, 0]	n/a	FR1	1	R1328E
2230.04	0.821	2230524	WORD_OFF	n/a	n/a	WORM	10	20	[0, 0, 0]	n/a	FR1	1	R1328E
2230.861	1.629	2231345	WORD	n/a	n/a	LAWN	11	20	[0, 0, 0]	n/a	FR1	1	R1328E
2232.49	0.937	2232974	WORD_OFF	n/a	n/a	LAWN	11	20	[0, 0, 0]	n/a	FR1	1	R1328E
2233.427	1.63	2233911	WORD	n/a	n/a	BEE	12	20	[0, 0, 0]	n/a	FR1	1	R1328E
2235.057	0.001	2235541	WORD_OFF	n/a	n/a	BEE	12	20	[0, 0, 0]	n/a	FR1	1	R1328E
2235.058	0.0	2235542	ENCODING_END	n/a	n/a	n/a	-999	20	[0, 0, 0]	n/a	FR1	1	R1328E
2235.058	0.0	2235542	DISTRACT_START	n/a	n/a	n/a	-999	20	[0, 0, 0]	n/a	FR1	1	R1328E
2235.058	0.015	2235542	START	n/a	n/a	n/a	-999	20	[-999, -999, -999]	n/a	FR1	1	R1328E
2235.073	21.924	2235557	PROB	21.924	n/a	n/a	-999	20	[9, 8, 7]	24	FR1	1	R1328E
2256.997	0.014	2257481	STOP	n/a	n/a	n/a	-999	20	[-999, -999, -999]	n/a	FR1	1	R1328E
2257.011	0.524	2257495	DISTRACT_END	n/a	n/a	n/a	-999	20	[0, 0, 0]	n/a	FR1	1	R1328E
2257.535	1.625	2258018	RETRIEVAL_ORIENT_START	n/a	n/a	n/a	-999	20	[0, 0, 0]	n/a	FR1	1	R1328E
2259.16	0.0	2259643	RETRIEVAL_ORIENT_END	n/a	n/a	n/a	-999	20	[0, 0, 0]	n/a	FR1	1	R1328E
2259.16	1.382	2259643	REC_START	n/a	n/a	n/a	-999	20	[0, 0, 0]	n/a	FR1	1	R1328E
2260.542	1.11	2261025	REC_WORD	1.11	n/a	MULE	1	20	[0, 0, 0]	n/a	FR1	1	R1328E
2261.652	27.523	2262135	REC_WORD	27.523	n/a	BARN	3	20	[0, 0, 0]	n/a	FR1	1	R1328E
2289.175	0.0	2289657	REC_END	n/a	n/a	n/a	-999	20	[0, 0, 0]	n/a	FR1	1	R1328E
2289.175	0.017	2289657	TRIAL_END	n/a	n/a	n/a	-999	20	[0, 0, 0]	n/a	FR1	1	R1328E
2289.192	0.001	2289674	TRIAL_START	n/a	n/a	n/a	-999	21	[0, 0, 0]	n/a	FR1	1	R1328E
2289.193	0.0	2289675	TRIAL	n/a	n/a	n/a	-999	21	[0, 0, 0]	n/a	FR1	1	R1328E
2289.193	2.607	2289675	WAITING_START	n/a	n/a	n/a	-999	21	[0, 0, 0]	n/a	FR1	1	R1328E
2291.8	0.001	2292282	WAITING_END	n/a	n/a	n/a	-999	21	[0, 0, 0]	n/a	FR1	1	R1328E
2291.801	10.428	2292283	COUNTDOWN_START	n/a	n/a	n/a	-999	21	[0, 0, 0]	n/a	FR1	1	R1328E
2302.229	0.001	2302711	COUNTDOWN_END	n/a	n/a	n/a	-999	21	[0, 0, 0]	n/a	FR1	1	R1328E
2302.23	1.089	2302712	ORIENT_START	n/a	n/a	n/a	-999	21	[0, 0, 0]	n/a	FR1	1	R1328E
2303.319	0.0	2303801	ENCODING_START	n/a	n/a	n/a	-999	21	[0, 0, 0]	n/a	FR1	1	R1328E
2303.319	0.857	2303801	ORIENT_END	n/a	n/a	n/a	-999	21	[0, 0, 0]	n/a	FR1	1	R1328E
2304.176	1.627	2304658	WORD	n/a	n/a	FENCE	1	21	[0, 0, 0]	n/a	FR1	1	R1328E
2305.803	1.029	2306285	WORD_OFF	n/a	n/a	FENCE	1	21	[0, 0, 0]	n/a	FR1	1	R1328E
2306.832	1.621	2307314	WORD	n/a	n/a	CHALK	2	21	[0, 0, 0]	n/a	FR1	1	R1328E
2308.453	0.868	2308935	WORD_OFF	n/a	n/a	CHALK	2	21	[0, 0, 0]	n/a	FR1	1	R1328E
2309.321	1.633	2309803	WORD	n/a	n/a	CAT	3	21	[0, 0, 0]	n/a	FR1	1	R1328E
2310.954	1.116	2311436	WORD_OFF	n/a	n/a	CAT	3	21	[0, 0, 0]	n/a	FR1	1	R1328E
2312.07	1.634	2312552	WORD	n/a	n/a	TENT	4	21	[0, 0, 0]	n/a	FR1	1	R1328E
2313.704	0.794	2314186	WORD_OFF	n/a	n/a	TENT	4	21	[0, 0, 0]	n/a	FR1	1	R1328E
2314.498	1.622	2314979	WORD	n/a	n/a	TEA	5	21	[0, 0, 0]	n/a	FR1	1	R1328E
2316.12	1.099	2316601	WORD_OFF	n/a	n/a	TEA	5	21	[0, 0, 0]	n/a	FR1	1	R1328E
2317.219	1.636	2317700	WORD	n/a	n/a	CHIN	6	21	[0, 0, 0]	n/a	FR1	1	R1328E
2318.855	1.093	2319336	WORD_OFF	n/a	n/a	CHIN	6	21	[0, 0, 0]	n/a	FR1	1	R1328E
2319.948	1.624	2320429	WORD	n/a	n/a	TRASH	7	21	[0, 0, 0]	n/a	FR1	1	R1328E
2321.572	0.922	2322053	WORD_OFF	n/a	n/a	TRASH	7	21	[0, 0, 0]	n/a	FR1	1	R1328E
2322.494	1.628	2322975	WORD	n/a	n/a	CLOTH	8	21	[0, 0, 0]	n/a	FR1	1	R1328E
2324.122	0.898	2324603	WORD_OFF	n/a	n/a	CLOTH	8	21	[0, 0, 0]	n/a	FR1	1	R1328E
2325.02	1.636	2325501	WORD	n/a	n/a	GLOVE	9	21	[0, 0, 0]	n/a	FR1	1	R1328E
2326.656	1.016	2327137	WORD_OFF	n/a	n/a	GLOVE	9	21	[0, 0, 0]	n/a	FR1	1	R1328E
2327.672	1.635	2328153	WORD	n/a	n/a	POOL	10	21	[0, 0, 0]	n/a	FR1	1	R1328E
2329.307	0.807	2329788	WORD_OFF	n/a	n/a	POOL	10	21	[0, 0, 0]	n/a	FR1	1	R1328E
2330.114	1.61	2330595	WORD	n/a	n/a	SHELL	11	21	[0, 0, 0]	n/a	FR1	1	R1328E
2331.724	0.764	2332205	WORD_OFF	n/a	n/a	SHELL	11	21	[0, 0, 0]	n/a	FR1	1	R1328E
2332.488	1.635	2332969	WORD	n/a	n/a	EAR	12	21	[0, 0, 0]	n/a	FR1	1	R1328E
2334.123	0.001	2334604	WORD_OFF	n/a	n/a	EAR	12	21	[0, 0, 0]	n/a	FR1	1	R1328E
2334.124	0.0	2334605	ENCODING_END	n/a	n/a	n/a	-999	21	[0, 0, 0]	n/a	FR1	1	R1328E
2334.124	0.0	2334605	DISTRACT_START	n/a	n/a	n/a	-999	21	[0, 0, 0]	n/a	FR1	1	R1328E
2334.124	0.016	2334605	START	n/a	n/a	n/a	-999	21	[-999, -999, -999]	n/a	FR1	1	R1328E
2334.14	32.874	2334621	PROB	32.874	n/a	n/a	-999	21	[9, 7, 6]	22	FR1	1	R1328E
2367.014	0.016	2367494	STOP	n/a	n/a	n/a	-999	21	[-999, -999, -999]	n/a	FR1	1	R1328E
2367.03	0.658	2367510	DISTRACT_END	n/a	n/a	n/a	-999	21	[0, 0, 0]	n/a	FR1	1	R1328E
2367.688	1.593	2368168	RETRIEVAL_ORIENT_START	n/a	n/a	n/a	-999	21	[0, 0, 0]	n/a	FR1	1	R1328E
2369.281	0.0	2369761	RETRIEVAL_ORIENT_END	n/a	n/a	n/a	-999	21	[0, 0, 0]	n/a	FR1	1	R1328E
2369.281	0.719	2369761	REC_START	n/a	n/a	n/a	-999	21	[0, 0, 0]	n/a	FR1	1	R1328E
2370.0	1.915	2370480	REC_WORD	1.915	n/a	CLOTH	8	21	[0, 0, 0]	n/a	FR1	1	R1328E
2371.915	1.35	2372394	REC_WORD	1.35	n/a	GLOVE	9	21	[0, 0, 0]	n/a	FR1	1	R1328E
2373.265	26.031	2373744	REC_WORD	26.031	n/a	POOL	10	21	[0, 0, 0]	n/a	FR1	1	R1328E
2399.296	0.0	2399775	REC_END	n/a	n/a	n/a	-999	21	[0, 0, 0]	n/a	FR1	1	R1328E
2399.296	0.017	2399775	TRIAL_END	n/a	n/a	n/a	-999	21	[0, 0, 0]	n/a	FR1	1	R1328E
2399.313	0.0	2399792	WAITING_START	n/a	n/a	n/a	-999	22	[0, 0, 0]	n/a	FR1	1	R1328E
2399.313	0.0	2399792	TRIAL	n/a	n/a	n/a	-999	22	[0, 0, 0]	n/a	FR1	1	R1328E
2399.313	2.957	2399792	TRIAL_START	n/a	n/a	n/a	-999	22	[0, 0, 0]	n/a	FR1	1	R1328E
2402.27	0.0	2402748	WAITING_END	n/a	n/a	n/a	-999	22	[0, 0, 0]	n/a	FR1	1	R1328E
2402.27	10.429	2402748	COUNTDOWN_START	n/a	n/a	n/a	-999	22	[0, 0, 0]	n/a	FR1	1	R1328E
2412.699	0.0	2413177	COUNTDOWN_END	n/a	n/a	n/a	-999	22	[0, 0, 0]	n/a	FR1	1	R1328E
2412.699	1.123	2413177	ORIENT_START	n/a	n/a	n/a	-999	22	[0, 0, 0]	n/a	FR1	1	R1328E
2413.822	0.0	2414300	ORIENT_END	n/a	n/a	n/a	-999	22	[0, 0, 0]	n/a	FR1	1	R1328E
2413.822	0.904	2414300	ENCODING_START	n/a	n/a	n/a	-999	22	[0, 0, 0]	n/a	FR1	1	R1328E
2414.726	1.63	2415204	WORD	n/a	n/a	AXE	1	22	[0, 0, 0]	n/a	FR1	1	R1328E
2416.356	1.116	2416834	WORD_OFF	n/a	n/a	AXE	1	22	[0, 0, 0]	n/a	FR1	1	R1328E
2417.472	1.633	2417950	WORD	n/a	n/a	DOLL	2	22	[0, 0, 0]	n/a	FR1	1	R1328E
2419.105	0.932	2419583	WORD_OFF	n/a	n/a	DOLL	2	22	[0, 0, 0]	n/a	FR1	1	R1328E
2420.037	1.636	2420515	WORD	n/a	n/a	KEY	3	22	[0, 0, 0]	n/a	FR1	1	R1328E
2421.673	1.037	2422151	WORD_OFF	n/a	n/a	KEY	3	22	[0, 0, 0]	n/a	FR1	1	R1328E
2422.71	1.63	2423188	WORD	n/a	n/a	CROWN	4	22	[0, 0, 0]	n/a	FR1	1	R1328E
2424.34	0.912	2424818	WORD_OFF	n/a	n/a	CROWN	4	22	[0, 0, 0]	n/a	FR1	1	R1328E
2425.252	1.639	2425730	WORD	n/a	n/a	BADGE	5	22	[0, 0, 0]	n/a	FR1	1	R1328E
2426.891	0.83	2427369	WORD_OFF	n/a	n/a	BADGE	5	22	[0, 0, 0]	n/a	FR1	1	R1328E
2427.721	1.637	2428199	WORD	n/a	n/a	PARK	6	22	[0, 0, 0]	n/a	FR1	1	R1328E
2429.358	0.866	2429835	WORD_OFF	n/a	n/a	PARK	6	22	[0, 0, 0]	n/a	FR1	1	R1328E
2430.224	1.634	2430701	WORD	n/a	n/a	SPOON	7	22	[0, 0, 0]	n/a	FR1	1	R1328E
2431.858	0.816	2432335	WORD_OFF	n/a	n/a	SPOON	7	22	[0, 0, 0]	n/a	FR1	1	R1328E
2432.674	1.635	2433151	WORD	n/a	n/a	ROCK	8	22	[0, 0, 0]	n/a	FR1	1	R1328E
2434.309	0.922	2434786	WORD_OFF	n/a	n/a	ROCK	8	22	[0, 0, 0]	n/a	FR1	1	R1328E
2435.231	1.611	2435708	WORD	n/a	n/a	SNAKE	9	22	[0, 0, 0]	n/a	FR1	1	R1328E
2436.842	1.139	2437319	WORD_OFF	n/a	n/a	SNAKE	9	22	[0, 0, 0]	n/a	FR1	1	R1328E
2437.981	1.629	2438458	WORD	n/a	n/a	SHRIMP	10	22	[0, 0, 0]	n/a	FR1	1	R1328E
2439.61	0.758	2440087	WORD_OFF	n/a	n/a	SHRIMP	10	22	[0, 0, 0]	n/a	FR1	1	R1328E
2440.368	1.625	2440845	WORD	n/a	n/a	JUICE	11	22	[0, 0, 0]	n/a	FR1	1	R1328E
2441.993	1.056	2442470	WORD_OFF	n/a	n/a	JUICE	11	22	[0, 0, 0]	n/a	FR1	1	R1328E
2443.049	1.628	2443526	WORD	n/a	n/a	TOOTH	12	22	[0, 0, 0]	n/a	FR1	1	R1328E
2444.677	0.001	2445154	WORD_OFF	n/a	n/a	TOOTH	12	22	[0, 0, 0]	n/a	FR1	1	R1328E
2444.678	0.0	2445155	ENCODING_END	n/a	n/a	n/a	-999	22	[0, 0, 0]	n/a	FR1	1	R1328E
2444.678	0.0	2445155	DISTRACT_START	n/a	n/a	n/a	-999	22	[0, 0, 0]	n/a	FR1	1	R1328E
2444.678	0.016	2445155	START	n/a	n/a	n/a	-999	22	[-999, -999, -999]	n/a	FR1	1	R1328E
2444.694	26.442	2445171	PROB	26.442	n/a	n/a	-999	22	[5, 6, 7]	18	FR1	1	R1328E
2471.136	0.012	2471612	STOP	n/a	n/a	n/a	-999	22	[-999, -999, -999]	n/a	FR1	1	R1328E
2471.148	0.697	2471624	DISTRACT_END	n/a	n/a	n/a	-999	22	[0, 0, 0]	n/a	FR1	1	R1328E
2471.845	1.704	2472321	RETRIEVAL_ORIENT_START	n/a	n/a	n/a	-999	22	[0, 0, 0]	n/a	FR1	1	R1328E
2473.549	0.0	2474025	RETRIEVAL_ORIENT_END	n/a	n/a	n/a	-999	22	[0, 0, 0]	n/a	FR1	1	R1328E
2473.549	0.414	2474025	REC_START	n/a	n/a	n/a	-999	22	[0, 0, 0]	n/a	FR1	1	R1328E
2473.963	1.086	2474439	REC_WORD	1.086	n/a	KEY	3	22	[0, 0, 0]	n/a	FR1	1	R1328E
2475.049	1.332	2475525	REC_WORD	1.332	n/a	CROWN	4	22	[0, 0, 0]	n/a	FR1	1	R1328E
2476.381	9.967	2476857	REC_WORD	9.967	n/a	BADGE	5	22	[0, 0, 0]	n/a	FR1	1	R1328E
2486.348	17.213	2486823	REC_WORD	17.213	n/a	SPARK	-999	22	[0, 0, 0]	n/a	FR1	1	R1328E
2503.561	0.001	2504036	REC_END	n/a	n/a	n/a	-999	22	[0, 0, 0]	n/a	FR1	1	R1328E
2503.562	0.017	2504037	TRIAL_END	n/a	n/a	n/a	-999	22	[0, 0, 0]	n/a	FR1	1	R1328E
2503.579	0.0	2504054	TRIAL_START	n/a	n/a	n/a	-999	23	[0, 0, 0]	n/a	FR1	1	R1328E
2503.579	0.0	2504054	TRIAL	n/a	n/a	n/a	-999	23	[0, 0, 0]	n/a	FR1	1	R1328E
2503.579	4.043	2504054	WAITING_START	n/a	n/a	n/a	-999	23	[0, 0, 0]	n/a	FR1	1	R1328E
2507.622	0.0	2508097	COUNTDOWN_START	n/a	n/a	n/a	-999	23	[0, 0, 0]	n/a	FR1	1	R1328E
2507.622	10.429	2508097	WAITING_END	n/a	n/a	n/a	-999	23	[0, 0, 0]	n/a	FR1	1	R1328E
2518.051	0.0	2518525	COUNTDOWN_END	n/a	n/a	n/a	-999	23	[0, 0, 0]	n/a	FR1	1	R1328E
2518.051	1.256	2518525	ORIENT_START	n/a	n/a	n/a	-999	23	[0, 0, 0]	n/a	FR1	1	R1328E
2519.307	0.0	2519781	ORIENT_END	n/a	n/a	n/a	-999	23	[0, 0, 0]	n/a	FR1	1	R1328E
2519.307	1.139	2519781	ENCODING_START	n/a	n/a	n/a	-999	23	[0, 0, 0]	n/a	FR1	1	R1328E
2520.446	1.628	2520920	WORD	n/a	n/a	GRASS	1	23	[0, 0, 0]	n/a	FR1	1	R1328E
2522.074	0.949	2522548	WORD_OFF	n/a	n/a	GRASS	1	23	[0, 0, 0]	n/a	FR1	1	R1328E
2523.023	1.635	2523497	WORD	n/a	n/a	HAND	2	23	[0, 0, 0]	n/a	FR1	1	R1328E
2524.658	1.0	2525132	WORD_OFF	n/a	n/a	HAND	2	23	[0, 0, 0]	n/a	FR1	1	R1328E
2525.658	1.634	2526132	WORD	n/a	n/a	CROW	3	23	[0, 0, 0]	n/a	FR1	1	R1328E
2527.292	1.12	2527766	WORD_OFF	n/a	n/a	CROW	3	23	[0, 0, 0]	n/a	FR1	1	R1328E
2528.412	1.63	2528886	WORD	n/a	n/a	BOWL	4	23	[0, 0, 0]	n/a	FR1	1	R1328E
2530.042	0.955	2530516	WORD_OFF	n/a	n/a	BOWL	4	23	[0, 0, 0]	n/a	FR1	1	R1328E
2530.997	1.629	2531471	WORD	n/a	n/a	STORM	5	23	[0, 0, 0]	n/a	FR1	1	R1328E
2532.626	0.798	2533100	WORD_OFF	n/a	n/a	STORM	5	23	[0, 0, 0]	n/a	FR1	1	R1328E
2533.424	1.636	2533898	WORD	n/a	n/a	ROAD	6	23	[0, 0, 0]	n/a	FR1	1	R1328E
2535.06	0.878	2535534	WORD_OFF	n/a	n/a	ROAD	6	23	[0, 0, 0]	n/a	FR1	1	R1328E
2535.938	1.622	2536412	WORD	n/a	n/a	MILK	7	23	[0, 0, 0]	n/a	FR1	1	R1328E
2537.56	1.109	2538034	WORD_OFF	n/a	n/a	MILK	7	23	[0, 0, 0]	n/a	FR1	1	R1328E
2538.669	1.625	2539143	WORD	n/a	n/a	STAIR	8	23	[0, 0, 0]	n/a	FR1	1	R1328E
2540.294	1.104	2540768	WORD_OFF	n/a	n/a	STAIR	8	23	[0, 0, 0]	n/a	FR1	1	R1328E
2541.398	1.63	2541872	WORD	n/a	n/a	TEETH	9	23	[0, 0, 0]	n/a	FR1	1	R1328E
2543.028	1.057	2543501	WORD_OFF	n/a	n/a	TEETH	9	23	[0, 0, 0]	n/a	FR1	1	R1328E
2544.085	1.626	2544558	WORD	n/a	n/a	PHONE	10	23	[0, 0, 0]	n/a	FR1	1	R1328E
2545.711	0.942	2546184	WORD_OFF	n/a	n/a	PHONE	10	23	[0, 0, 0]	n/a	FR1	1	R1328E
2546.653	1.626	2547126	WORD	n/a	n/a	DRUM	11	23	[0, 0, 0]	n/a	FR1	1	R1328E
2548.279	0.959	2548752	WORD_OFF	n/a	n/a	DRUM	11	23	[0, 0, 0]	n/a	FR1	1	R1328E
2549.238	1.625	2549711	WORD	n/a	n/a	PIN	12	23	[0, 0, 0]	n/a	FR1	1	R1328E
2550.863	0.0	2551336	WORD_OFF	n/a	n/a	PIN	12	23	[0, 0, 0]	n/a	FR1	1	R1328E
2550.863	0.0	2551336	ENCODING_END	n/a	n/a	n/a	-999	23	[0, 0, 0]	n/a	FR1	1	R1328E
2550.863	0.0	2551336	DISTRACT_START	n/a	n/a	n/a	-999	23	[0, 0, 0]	n/a	FR1	1	R1328E
2550.863	0.016	2551336	START	n/a	n/a	n/a	-999	23	[-999, -999, -999]	n/a	FR1	1	R1328E
2550.879	7.485	2551352	PROB	7.485	n/a	n/a	-999	23	[4, 6, 6]	16	FR1	1	R1328E
2558.364	18.884	2558837	PROB	18.884	n/a	n/a	-999	23	[2, 2, 2]	6	FR1	1	R1328E
2577.248	0.019	2577720	STOP	n/a	n/a	n/a	-999	23	[-999, -999, -999]	n/a	FR1	1	R1328E
2577.267	0.515	2577739	DISTRACT_END	n/a	n/a	n/a	-999	23	[0, 0, 0]	n/a	FR1	1	R1328E
2577.782	1.619	2578254	RETRIEVAL_ORIENT_START	n/a	n/a	n/a	-999	23	[0, 0, 0]	n/a	FR1	1	R1328E
2579.401	0.0	2579873	RETRIEVAL_ORIENT_END	n/a	n/a	n/a	-999	23	[0, 0, 0]	n/a	FR1	1	R1328E
2579.401	0.0	2579873	REC_START	n/a	n/a	n/a	-999	23	[0, 0, 0]	n/a	FR1	1	R1328E
2579.401	0.999	2579873	REC_WORD	0.999	n/a	CROW	3	23	[0, 0, 0]	n/a	FR1	1	R1328E
2580.4	1.295	2580872	REC_WORD	1.295	n/a	STORM	5	23	[0, 0, 0]	n/a	FR1	1	R1328E
2581.695	0.945	2582167	REC_WORD	0.945	n/a	PIN	12	23	[0, 0, 0]	n/a	FR1	1	R1328E
2582.64	6.321	2583112	REC_WORD	6.321	n/a	HAND	2	23	[0, 0, 0]	n/a	FR1	1	R1328E
2588.961	2.247	2589433	REC_WORD	2.247	n/a	GRASS	1	23	[0, 0, 0]	n/a	FR1	1	R1328E
2591.208	8.465	2591680	REC_WORD	8.465	n/a	ROOM	-999	23	[0, 0, 0]	n/a	FR1	1	R1328E
2599.673	9.743	2600144	REC_WORD	9.743	n/a	KEY	-999	23	[0, 0, 0]	n/a	FR1	1	R1328E
2609.416	0.001	2609887	REC_END	n/a	n/a	n/a	-999	23	[0, 0, 0]	n/a	FR1	1	R1328E
2609.417	0.017	2609888	TRIAL_END	n/a	n/a	n/a	-999	23	[0, 0, 0]	n/a	FR1	1	R1328E
2609.434	0.0	2609905	TRIAL	n/a	n/a	n/a	-999	24	[0, 0, 0]	n/a	FR1	1	R1328E
2609.434	0.0	2609905	WAITING_START	n/a	n/a	n/a	-999	24	[0, 0, 0]	n/a	FR1	1	R1328E
2609.434	1.639	2609905	TRIAL_START	n/a	n/a	n/a	-999	24	[0, 0, 0]	n/a	FR1	1	R1328E
2611.073	0.001	2611544	WAITING_END	n/a	n/a	n/a	-999	24	[0, 0, 0]	n/a	FR1	1	R1328E
2611.074	10.429	2611545	COUNTDOWN_START	n/a	n/a	n/a	-999	24	[0, 0, 0]	n/a	FR1	1	R1328E
2621.503	0.0	2621974	COUNTDOWN_END	n/a	n/a	n/a	-999	24	[0, 0, 0]	n/a	FR1	1	R1328E
2621.503	1.239	2621974	ORIENT_START	n/a	n/a	n/a	-999	24	[0, 0, 0]	n/a	FR1	1	R1328E
2622.742	0.0	2623213	ORIENT_END	n/a	n/a	n/a	-999	24	[0, 0, 0]	n/a	FR1	1	R1328E
2622.742	0.926	2623213	ENCODING_START	n/a	n/a	n/a	-999	24	[0, 0, 0]	n/a	FR1	1	R1328E
2623.668	1.624	2624139	WORD	n/a	n/a	BRANCH	1	24	[0, 0, 0]	n/a	FR1	1	R1328E
2625.292	1.102	2625763	WORD_OFF	n/a	n/a	BRANCH	1	24	[0, 0, 0]	n/a	FR1	1	R1328E
2626.394	1.632	2626865	WORD	n/a	n/a	BOX	2	24	[0, 0, 0]	n/a	FR1	1	R1328E
2628.026	1.076	2628496	WORD_OFF	n/a	n/a	BOX	2	24	[0, 0, 0]	n/a	FR1	1	R1328E
2629.102	1.608	2629572	WORD	n/a	n/a	MOUSE	3	24	[0, 0, 0]	n/a	FR1	1	R1328E
2630.71	1.141	2631180	WORD_OFF	n/a	n/a	MOUSE	3	24	[0, 0, 0]	n/a	FR1	1	R1328E
2631.851	1.626	2632321	WORD	n/a	n/a	FUR	4	24	[0, 0, 0]	n/a	FR1	1	R1328E
2633.477	1.065	2633947	WORD_OFF	n/a	n/a	FUR	4	24	[0, 0, 0]	n/a	FR1	1	R1328E
2634.542	1.635	2635012	WORD	n/a	n/a	FISH	5	24	[0, 0, 0]	n/a	FR1	1	R1328E
2636.177	0.856	2636647	WORD_OFF	n/a	n/a	FISH	5	24	[0, 0, 0]	n/a	FR1	1	R1328E
2637.033	1.628	2637503	WORD	n/a	n/a	VASE	6	24	[0, 0, 0]	n/a	FR1	1	R1328E
2638.661	1.098	2639131	WORD_OFF	n/a	n/a	VASE	6	24	[0, 0, 0]	n/a	FR1	1	R1328E
2639.759	1.636	2640229	WORD	n/a	n/a	FILM	7	24	[0, 0, 0]	n/a	FR1	1	R1328E
2641.395	0.771	2641865	WORD_OFF	n/a	n/a	FILM	7	24	[0, 0, 0]	n/a	FR1	1	R1328E
2642.166	1.613	2642636	WORD	n/a	n/a	CAR	8	24	[0, 0, 0]	n/a	FR1	1	R1328E
2643.779	1.124	2644249	WORD_OFF	n/a	n/a	CAR	8	24	[0, 0, 0]	n/a	FR1	1	R1328E
2644.903	1.626	2645373	WORD	n/a	n/a	MAIL	9	24	[0, 0, 0]	n/a	FR1	1	R1328E
2646.529	1.124	2646999	WORD_OFF	n/a	n/a	MAIL	9	24	[0, 0, 0]	n/a	FR1	1	R1328E
2647.653	1.627	2648123	WORD	n/a	n/a	NEST	10	24	[0, 0, 0]	n/a	FR1	1	R1328E
2649.28	0.971	2649750	WORD_OFF	n/a	n/a	NEST	10	24	[0, 0, 0]	n/a	FR1	1	R1328E
2650.251	1.629	2650721	WORD	n/a	n/a	FLAG	11	24	[0, 0, 0]	n/a	FR1	1	R1328E
2651.88	1.049	2652350	WORD_OFF	n/a	n/a	FLAG	11	24	[0, 0, 0]	n/a	FR1	1	R1328E
2652.929	1.635	2653399	WORD	n/a	n/a	NAIL	12	24	[0, 0, 0]	n/a	FR1	1	R1328E
2654.564	0.001	2655034	WORD_OFF	n/a	n/a	NAIL	12	24	[0, 0, 0]	n/a	FR1	1	R1328E
2654.565	0.0	2655035	ENCODING_END	n/a	n/a	n/a	-999	24	[0, 0, 0]	n/a	FR1	1	R1328E
2654.565	0.0	2655035	DISTRACT_START	n/a	n/a	n/a	-999	24	[0, 0, 0]	n/a	FR1	1	R1328E
2654.565	0.016	2655035	START	n/a	n/a	n/a	-999	24	[-999, -999, -999]	n/a	FR1	1	R1328E
2654.581	5.633	2655051	PROB	5.633	n/a	n/a	-999	24	[2, 1, 3]	6	FR1	1	R1328E
2660.214	6.602	2660683	PROB	6.602	n/a	n/a	-999	24	[2, 4, 6]	12	FR1	1	R1328E
2666.816	14.643	2667285	PROB	14.643	n/a	n/a	-999	24	[5, 9, 7]	21	FR1	1	R1328E
2681.459	0.01	2681928	STOP	n/a	n/a	n/a	-999	24	[-999, -999, -999]	n/a	FR1	1	R1328E
2681.469	0.683	2681938	DISTRACT_END	n/a	n/a	n/a	-999	24	[0, 0, 0]	n/a	FR1	1	R1328E
2682.152	1.717	2682621	RETRIEVAL_ORIENT_START	n/a	n/a	n/a	-999	24	[0, 0, 0]	n/a	FR1	1	R1328E
2683.869	0.001	2684338	RETRIEVAL_ORIENT_END	n/a	n/a	n/a	-999	24	[0, 0, 0]	n/a	FR1	1	R1328E
2683.87	0.326	2684339	REC_START	n/a	n/a	n/a	-999	24	[0, 0, 0]	n/a	FR1	1	R1328E
2684.196	1.275	2684665	REC_WORD	1.275	n/a	FILM	7	24	[0, 0, 0]	n/a	FR1	1	R1328E
2685.471	1.065	2685939	REC_WORD	1.065	n/a	CAR	8	24	[0, 0, 0]	n/a	FR1	1	R1328E
2686.536	0.937	2687004	REC_WORD	0.937	n/a	MAIL	9	24	[0, 0, 0]	n/a	FR1	1	R1328E
2687.473	0.958	2687941	REC_WORD	0.958	n/a	NAIL	12	24	[0, 0, 0]	n/a	FR1	1	R1328E
2688.431	6.332	2688899	REC_WORD	6.332	n/a	MOUSE	3	24	[0, 0, 0]	n/a	FR1	1	R1328E
2694.763	7.791	2695231	REC_WORD	7.791	n/a	FUR	4	24	[0, 0, 0]	n/a	FR1	1	R1328E
2702.554	5.867	2703022	REC_WORD	5.867	n/a	NEST	10	24	[0, 0, 0]	n/a	FR1	1	R1328E
2708.421	5.46	2708889	REC_WORD	5.46	n/a	FLAG	11	24	[0, 0, 0]	n/a	FR1	1	R1328E
2713.881	0.0	2714348	TRIAL_END	n/a	n/a	n/a	-999	24	[0, 0, 0]	n/a	FR1	1	R1328E
2713.881	0.017	2714348	REC_END	n/a	n/a	n/a	-999	24	[0, 0, 0]	n/a	FR1	1	R1328E
2713.898	0.001	2714365	TRIAL_START	n/a	n/a	n/a	-999	25	[0, 0, 0]	n/a	FR1	1	R1328E
2713.899	0.0	2714366	TRIAL	n/a	n/a	n/a	-999	25	[0, 0, 0]	n/a	FR1	1	R1328E
2713.899	3.793	2714366	WAITING_START	n/a	n/a	n/a	-999	25	[0, 0, 0]	n/a	FR1	1	R1328E
2717.692	0.0	2718159	WAITING_END	n/a	n/a	n/a	-999	25	[0, 0, 0]	n/a	FR1	1	R1328E
2717.692	10.429	2718159	COUNTDOWN_START	n/a	n/a	n/a	-999	25	[0, 0, 0]	n/a	FR1	1	R1328E
2728.121	0.0	2728588	COUNTDOWN_END	n/a	n/a	n/a	-999	25	[0, 0, 0]	n/a	FR1	1	R1328E
2728.121	1.022	2728588	ORIENT_START	n/a	n/a	n/a	-999	25	[0, 0, 0]	n/a	FR1	1	R1328E
2729.143	0.0	2729610	ORIENT_END	n/a	n/a	n/a	-999	25	[0, 0, 0]	n/a	FR1	1	R1328E
2729.143	0.975	2729610	ENCODING_START	n/a	n/a	n/a	-999	25	[0, 0, 0]	n/a	FR1	1	R1328E
2730.118	1.626	2730585	WORD	n/a	n/a	BRIDGE	1	25	[0, 0, 0]	n/a	FR1	1	R1328E
2731.744	0.825	2732211	WORD_OFF	n/a	n/a	BRIDGE	1	25	[0, 0, 0]	n/a	FR1	1	R1328E
2732.569	1.625	2733036	WORD	n/a	n/a	RICE	2	25	[0, 0, 0]	n/a	FR1	1	R1328E
2734.194	1.093	2734661	WORD_OFF	n/a	n/a	RICE	2	25	[0, 0, 0]	n/a	FR1	1	R1328E
2735.287	1.625	2735754	WORD	n/a	n/a	SKI	3	25	[0, 0, 0]	n/a	FR1	1	R1328E
2736.912	0.767	2737379	WORD_OFF	n/a	n/a	SKI	3	25	[0, 0, 0]	n/a	FR1	1	R1328E
2737.679	1.633	2738146	WORD	n/a	n/a	PEARL	4	25	[0, 0, 0]	n/a	FR1	1	R1328E
2739.312	0.822	2739779	WORD_OFF	n/a	n/a	PEARL	4	25	[0, 0, 0]	n/a	FR1	1	R1328E
2740.134	1.629	2740601	WORD	n/a	n/a	STICK	5	25	[0, 0, 0]	n/a	FR1	1	R1328E
2741.763	0.848	2742229	WORD_OFF	n/a	n/a	STICK	5	25	[0, 0, 0]	n/a	FR1	1	R1328E
2742.611	1.635	2743077	WORD	n/a	n/a	STREET	6	25	[0, 0, 0]	n/a	FR1	1	R1328E
2744.246	0.97	2744712	WORD_OFF	n/a	n/a	STREET	6	25	[0, 0, 0]	n/a	FR1	1	R1328E
2745.216	1.631	2745682	WORD	n/a	n/a	SEA	7	25	[0, 0, 0]	n/a	FR1	1	R1328E
2746.847	0.757	2747313	WORD_OFF	n/a	n/a	SEA	7	25	[0, 0, 0]	n/a	FR1	1	R1328E
2747.604	1.626	2748070	WORD	n/a	n/a	SHEEP	8	25	[0, 0, 0]	n/a	FR1	1	R1328E
2749.23	0.992	2749696	WORD_OFF	n/a	n/a	SHEEP	8	25	[0, 0, 0]	n/a	FR1	1	R1328E
2750.222	1.609	2750688	WORD	n/a	n/a	BROOM	9	25	[0, 0, 0]	n/a	FR1	1	R1328E
2751.831	1.146	2752297	WORD_OFF	n/a	n/a	BROOM	9	25	[0, 0, 0]	n/a	FR1	1	R1328E
2752.977	1.621	2753443	WORD	n/a	n/a	ANT	10	25	[0, 0, 0]	n/a	FR1	1	R1328E
2754.598	1.123	2755064	WORD_OFF	n/a	n/a	ANT	10	25	[0, 0, 0]	n/a	FR1	1	R1328E
2755.721	1.628	2756187	WORD	n/a	n/a	SLUSH	11	25	[0, 0, 0]	n/a	FR1	1	R1328E
2757.349	1.114	2757815	WORD_OFF	n/a	n/a	SLUSH	11	25	[0, 0, 0]	n/a	FR1	1	R1328E
2758.463	1.635	2758929	WORD	n/a	n/a	STAR	12	25	[0, 0, 0]	n/a	FR1	1	R1328E
2760.098	0.001	2760564	WORD_OFF	n/a	n/a	STAR	12	25	[0, 0, 0]	n/a	FR1	1	R1328E
2760.099	0.0	2760565	ENCODING_END	n/a	n/a	n/a	-999	25	[0, 0, 0]	n/a	FR1	1	R1328E
2760.099	0.0	2760565	DISTRACT_START	n/a	n/a	n/a	-999	25	[0, 0, 0]	n/a	FR1	1	R1328E
2760.099	0.016	2760565	START	n/a	n/a	n/a	-999	25	[-999, -999, -999]	n/a	FR1	1	R1328E
2760.115	13.403	2760581	PROB	13.403	n/a	n/a	-999	25	[4, 5, 2]	11	FR1	1	R1328E
2773.518	5.868	2773983	PROB	5.868	n/a	n/a	-999	25	[1, 1, 5]	7	FR1	1	R1328E
2779.386	5.877	2779851	PROB	5.877	n/a	n/a	-999	25	[9, 4, 6]	19	FR1	1	R1328E
2785.263	0.007	2785728	STOP	n/a	n/a	n/a	-999	25	[-999, -999, -999]	n/a	FR1	1	R1328E
2785.27	0.539	2785735	DISTRACT_END	n/a	n/a	n/a	-999	25	[0, 0, 0]	n/a	FR1	1	R1328E
2785.809	1.662	2786274	RETRIEVAL_ORIENT_START	n/a	n/a	n/a	-999	25	[0, 0, 0]	n/a	FR1	1	R1328E
2787.471	0.0	2787936	REC_START	n/a	n/a	n/a	-999	25	[0, 0, 0]	n/a	FR1	1	R1328E
