onset	duration	sample	trial_type	response_time	stim_file	item_name	serialpos	list	test	answer	experiment	session	subject
0.0	0.0	8484	INSTRUCT_START	n/a	n/a	n/a	-999	-999	[0, 0, 0]	n/a	FR1	1	R1229M
0.0	11.027	8484	INSTRUCT_END	n/a	n/a	n/a	-999	-999	[0, 0, 0]	n/a	FR1	1	R1229M
11.027	0.0	19510	SESS_START	n/a	n/a	n/a	-999	-999	[0, 0, 0]	n/a	FR1	1	R1229M
11.027	32.001	19510	MIC_TEST	n/a	n/a	n/a	-999	-999	[0, 0, 0]	n/a	FR1	1	R1229M
43.028	3.364	51510	PRACTICE_TRIAL	n/a	n/a	n/a	-999	-1	[0, 0, 0]	n/a	FR1	1	R1229M
46.392	10.428	54873	COUNTDOWN_START	n/a	n/a	n/a	-999	-1	[0, 0, 0]	n/a	FR1	1	R1229M
56.82	0.007	65301	COUNTDOWN_END	n/a	n/a	n/a	-999	-1	[0, 0, 0]	n/a	FR1	1	R1229M
56.827	1.617	65308	PRACTICE_ORIENT	n/a	n/a	n/a	-999	-1	[0, 0, 0]	n/a	FR1	1	R1229M
58.444	2.034	66925	PRACTICE_ORIENT_OFF	n/a	n/a	n/a	-999	-1	[0, 0, 0]	n/a	FR1	1	R1229M
60.478	1.617	68959	PRACTICE_WORD	n/a	n/a	WATCH	1	-1	[0, 0, 0]	n/a	FR1	1	R1229M
62.095	0.867	70575	PRACTICE_WORD_OFF	n/a	n/a	WATCH	-999	-1	[0, 0, 0]	n/a	FR1	1	R1229M
62.962	1.616	71442	PRACTICE_WORD	n/a	n/a	CAMEL	2	-1	[0, 0, 0]	n/a	FR1	1	R1229M
64.578	0.885	73058	PRACTICE_WORD_OFF	n/a	n/a	CAMEL	-999	-1	[0, 0, 0]	n/a	FR1	1	R1229M
65.463	1.616	73943	PRACTICE_WORD	n/a	n/a	RHINO	3	-1	[0, 0, 0]	n/a	FR1	1	R1229M
67.079	0.867	75559	PRACTICE_WORD_OFF	n/a	n/a	RHINO	-999	-1	[0, 0, 0]	n/a	FR1	1	R1229M
67.946	1.617	76426	PRACTICE_WORD	n/a	n/a	FLOOD	4	-1	[0, 0, 0]	n/a	FR1	1	R1229M
69.563	0.917	78043	PRACTICE_WORD_OFF	n/a	n/a	FLOOD	-999	-1	[0, 0, 0]	n/a	FR1	1	R1229M
70.48	1.617	78960	PRACTICE_WORD	n/a	n/a	WAGON	5	-1	[0, 0, 0]	n/a	FR1	1	R1229M
72.097	0.784	80577	PRACTICE_WORD_OFF	n/a	n/a	WAGON	-999	-1	[0, 0, 0]	n/a	FR1	1	R1229M
72.881	1.617	81361	PRACTICE_WORD	n/a	n/a	COTTON	6	-1	[0, 0, 0]	n/a	FR1	1	R1229M
74.498	0.8	82978	PRACTICE_WORD_OFF	n/a	n/a	COTTON	-999	-1	[0, 0, 0]	n/a	FR1	1	R1229M
75.298	1.617	83778	PRACTICE_WORD	n/a	n/a	CHEST	7	-1	[0, 0, 0]	n/a	FR1	1	R1229M
76.915	0.967	85395	PRACTICE_WORD_OFF	n/a	n/a	CHEST	-999	-1	[0, 0, 0]	n/a	FR1	1	R1229M
77.882	1.617	86362	PRACTICE_WORD	n/a	n/a	IRON	8	-1	[0, 0, 0]	n/a	FR1	1	R1229M
79.499	0.85	87978	PRACTICE_WORD_OFF	n/a	n/a	IRON	-999	-1	[0, 0, 0]	n/a	FR1	1	R1229M
80.349	1.617	88828	PRACTICE_WORD	n/a	n/a	RING	9	-1	[0, 0, 0]	n/a	FR1	1	R1229M
81.966	0.816	90445	PRACTICE_WORD_OFF	n/a	n/a	RING	-999	-1	[0, 0, 0]	n/a	FR1	1	R1229M
82.782	1.617	91261	PRACTICE_WORD	n/a	n/a	TONGUE	10	-1	[0, 0, 0]	n/a	FR1	1	R1229M
84.399	0.767	92878	PRACTICE_WORD_OFF	n/a	n/a	TONGUE	-999	-1	[0, 0, 0]	n/a	FR1	1	R1229M
85.166	1.616	93645	PRACTICE_WORD	n/a	n/a	BEAM	11	-1	[0, 0, 0]	n/a	FR1	1	R1229M
86.782	0.8	95261	PRACTICE_WORD_OFF	n/a	n/a	BEAM	-999	-1	[0, 0, 0]	n/a	FR1	1	R1229M
87.582	1.602	96061	PRACTICE_WORD	n/a	n/a	ATTIC	12	-1	[0, 0, 0]	n/a	FR1	1	R1229M
89.184	0.0	97663	PRACTICE_WORD_OFF	n/a	n/a	ATTIC	-999	-1	[0, 0, 0]	n/a	FR1	1	R1229M
89.184	0.0	97663	DISTRACT_START	n/a	n/a	n/a	-999	-1	[0, 0, 0]	n/a	FR1	1	R1229M
89.184	0.016	97663	START	n/a	n/a	n/a	-999	-1	[-999, -999, -999]	n/a	FR1	1	R1229M
89.2	8.401	97679	PROB	8.401	n/a	n/a	-999	-1	[9, 4, 2]	9	FR1	1	R1229M
97.601	1.635	106079	PROB	1.635	n/a	n/a	-999	-1	[7, 8, 4]	9	FR1	1	R1229M
99.236	2.767	107714	PROB	2.767	n/a	n/a	-999	-1	[7, 8, 5]	9	FR1	1	R1229M
102.003	3.451	110481	PROB	3.451	n/a	n/a	-999	-1	[8, 2, 8]	9	FR1	1	R1229M
105.454	2.733	113932	PROB	2.733	n/a	n/a	-999	-1	[8, 9, 7]	9	FR1	1	R1229M
108.187	2.316	116665	PROB	2.316	n/a	n/a	-999	-1	[2, 9, 4]	9	FR1	1	R1229M
110.503	0.018	118981	STOP	n/a	n/a	n/a	-999	-1	[-999, -999, -999]	n/a	FR1	1	R1229M
110.521	0.717	118999	DISTRACT_END	n/a	n/a	n/a	-999	-1	[0, 0, 0]	n/a	FR1	1	R1229M
111.238	0.517	119716	RETRIEVAL_ORIENT	n/a	n/a	n/a	-999	-1	[0, 0, 0]	n/a	FR1	1	R1229M
111.755	30.011	120233	PRACTICE_REC_START	n/a	n/a	n/a	-999	-1	[0, 0, 0]	n/a	FR1	1	R1229M
141.766	30.899	150242	PRACTICE_REC_END	n/a	n/a	n/a	-999	-1	[0, 0, 0]	n/a	FR1	1	R1229M
172.665	0.5	181139	TRIAL	n/a	n/a	n/a	-999	1	[0, 0, 0]	n/a	FR1	1	R1229M
173.165	10.428	181639	COUNTDOWN_START	n/a	n/a	n/a	-999	1	[0, 0, 0]	n/a	FR1	1	R1229M
183.593	0.008	192066	COUNTDOWN_END	n/a	n/a	n/a	-999	1	[0, 0, 0]	n/a	FR1	1	R1229M
183.601	1.618	192074	ORIENT	n/a	n/a	n/a	-999	1	[0, 0, 0]	n/a	FR1	1	R1229M
185.219	2.067	193692	ORIENT_OFF	n/a	n/a	n/a	-999	1	[0, 0, 0]	n/a	FR1	1	R1229M
187.286	1.617	195759	WORD	n/a	wordpools/wordpool_EN.txt	SKY	1	1	[0, 0, 0]	n/a	FR1	1	R1229M
188.903	0.95	197376	WORD_OFF	n/a	n/a	SKY	1	1	[0, 0, 0]	n/a	FR1	1	R1229M
189.853	1.617	198326	WORD	n/a	wordpools/wordpool_EN.txt	PIG	2	1	[0, 0, 0]	n/a	FR1	1	R1229M
191.47	0.867	199943	WORD_OFF	n/a	n/a	PIG	2	1	[0, 0, 0]	n/a	FR1	1	R1229M
192.337	1.617	200810	WORD	n/a	wordpools/wordpool_EN.txt	FLEA	3	1	[0, 0, 0]	n/a	FR1	1	R1229M
193.954	0.867	202427	WORD_OFF	n/a	n/a	FLEA	3	1	[0, 0, 0]	n/a	FR1	1	R1229M
194.821	1.617	203294	WORD	n/a	wordpools/wordpool_EN.txt	PET	4	1	[0, 0, 0]	n/a	FR1	1	R1229M
196.438	0.817	204911	WORD_OFF	n/a	n/a	PET	4	1	[0, 0, 0]	n/a	FR1	1	R1229M
197.255	1.616	205728	WORD	n/a	wordpools/wordpool_EN.txt	OAK	5	1	[0, 0, 0]	n/a	FR1	1	R1229M
198.871	0.833	207344	WORD_OFF	n/a	n/a	OAK	5	1	[0, 0, 0]	n/a	FR1	1	R1229M
199.704	1.601	208177	WORD	n/a	wordpools/wordpool_EN.txt	OWL	6	1	[0, 0, 0]	n/a	FR1	1	R1229M
201.305	0.934	209777	WORD_OFF	n/a	n/a	OWL	6	1	[0, 0, 0]	n/a	FR1	1	R1229M
202.239	1.617	210711	WORD	n/a	wordpools/wordpool_EN.txt	STORM	7	1	[0, 0, 0]	n/a	FR1	1	R1229M
203.856	0.866	212328	WORD_OFF	n/a	n/a	STORM	7	1	[0, 0, 0]	n/a	FR1	1	R1229M
204.722	1.601	213194	WORD	n/a	wordpools/wordpool_EN.txt	OAR	8	1	[0, 0, 0]	n/a	FR1	1	R1229M
206.323	0.883	214795	WORD_OFF	n/a	n/a	OAR	8	1	[0, 0, 0]	n/a	FR1	1	R1229M
207.206	1.617	215678	WORD	n/a	wordpools/wordpool_EN.txt	DEER	9	1	[0, 0, 0]	n/a	FR1	1	R1229M
208.823	0.783	217295	WORD_OFF	n/a	n/a	DEER	9	1	[0, 0, 0]	n/a	FR1	1	R1229M
209.606	1.618	218078	WORD	n/a	wordpools/wordpool_EN.txt	PARK	10	1	[0, 0, 0]	n/a	FR1	1	R1229M
211.224	0.916	219696	WORD_OFF	n/a	n/a	PARK	10	1	[0, 0, 0]	n/a	FR1	1	R1229M
212.14	1.617	220612	WORD	n/a	wordpools/wordpool_EN.txt	FENCE	11	1	[0, 0, 0]	n/a	FR1	1	R1229M
213.757	0.85	222229	WORD_OFF	n/a	n/a	FENCE	11	1	[0, 0, 0]	n/a	FR1	1	R1229M
214.607	1.618	223079	WORD	n/a	wordpools/wordpool_EN.txt	LAWN	12	1	[0, 0, 0]	n/a	FR1	1	R1229M
216.225	0.0	224697	WORD_OFF	n/a	n/a	LAWN	12	1	[0, 0, 0]	n/a	FR1	1	R1229M
216.225	0.0	224697	DISTRACT_START	n/a	n/a	n/a	-999	1	[0, 0, 0]	n/a	FR1	1	R1229M
216.225	0.017	224697	START	n/a	n/a	n/a	-999	1	[-999, -999, -999]	n/a	FR1	1	R1229M
216.242	19.737	224714	PROB	19.737	n/a	n/a	-999	1	[6, 9, 7]	22	FR1	1	R1229M
235.979	6.259	244450	PROB	6.259	n/a	n/a	-999	1	[2, 6, 6]	14	FR1	1	R1229M
242.238	0.009	250708	STOP	n/a	n/a	n/a	-999	1	[-999, -999, -999]	n/a	FR1	1	R1229M
242.247	0.683	250717	DISTRACT_END	n/a	n/a	n/a	-999	1	[0, 0, 0]	n/a	FR1	1	R1229M
242.93	0.518	251400	RETRIEVAL_ORIENT	n/a	n/a	n/a	-999	1	[0, 0, 0]	n/a	FR1	1	R1229M
243.448	1.722	251918	REC_START	n/a	n/a	n/a	-999	1	[0, 0, 0]	n/a	FR1	1	R1229M
245.17	3.762	253640	REC_WORD	3.762	n/a	SKY	1	1	[0, 0, 0]	n/a	FR1	1	R1229M
248.932	4.08	257402	REC_WORD	4.08	n/a	OAR	8	1	[0, 0, 0]	n/a	FR1	1	R1229M
253.012	4.728	261482	REC_WORD	4.728	n/a	DEER	9	1	[0, 0, 0]	n/a	FR1	1	R1229M
257.74	2.521	266209	REC_WORD	2.521	n/a	PIG	2	1	[0, 0, 0]	n/a	FR1	1	R1229M
260.261	6.885	268730	REC_WORD	6.885	n/a	FLEA	3	1	[0, 0, 0]	n/a	FR1	1	R1229M
267.146	6.313	275615	REC_WORD	6.313	n/a	FLOOD	-999	1	[0, 0, 0]	n/a	FR1	1	R1229M
273.459	13.863	281927	REC_END	n/a	n/a	n/a	-999	1	[0, 0, 0]	n/a	FR1	1	R1229M
287.322	0.5	295790	TRIAL	n/a	n/a	n/a	-999	2	[0, 0, 0]	n/a	FR1	1	R1229M
287.822	10.428	296290	COUNTDOWN_START	n/a	n/a	n/a	-999	2	[0, 0, 0]	n/a	FR1	1	R1229M
298.25	0.007	306717	COUNTDOWN_END	n/a	n/a	n/a	-999	2	[0, 0, 0]	n/a	FR1	1	R1229M
298.257	1.617	306724	ORIENT	n/a	n/a	n/a	-999	2	[0, 0, 0]	n/a	FR1	1	R1229M
299.874	1.984	308341	ORIENT_OFF	n/a	n/a	n/a	-999	2	[0, 0, 0]	n/a	FR1	1	R1229M
301.858	1.617	310325	WORD	n/a	wordpools/wordpool_EN.txt	HAWK	1	2	[0, 0, 0]	n/a	FR1	1	R1229M
303.475	0.884	311942	WORD_OFF	n/a	n/a	HAWK	1	2	[0, 0, 0]	n/a	FR1	1	R1229M
304.359	1.617	312826	WORD	n/a	wordpools/wordpool_EN.txt	HORSE	2	2	[0, 0, 0]	n/a	FR1	1	R1229M
305.976	0.866	314443	WORD_OFF	n/a	n/a	HORSE	2	2	[0, 0, 0]	n/a	FR1	1	R1229M
306.842	1.617	315308	WORD	n/a	wordpools/wordpool_EN.txt	MOUSE	3	2	[0, 0, 0]	n/a	FR1	1	R1229M
308.459	0.817	316925	WORD_OFF	n/a	n/a	MOUSE	3	2	[0, 0, 0]	n/a	FR1	1	R1229M
309.276	1.617	317742	WORD	n/a	wordpools/wordpool_EN.txt	RIB	4	2	[0, 0, 0]	n/a	FR1	1	R1229M
310.893	0.934	319359	WORD_OFF	n/a	n/a	RIB	4	2	[0, 0, 0]	n/a	FR1	1	R1229M
311.827	1.617	320293	WORD	n/a	wordpools/wordpool_EN.txt	GRASS	5	2	[0, 0, 0]	n/a	FR1	1	R1229M
313.444	0.916	321910	WORD_OFF	n/a	n/a	GRASS	5	2	[0, 0, 0]	n/a	FR1	1	R1229M
314.36	1.617	322826	WORD	n/a	wordpools/wordpool_EN.txt	SKUNK	6	2	[0, 0, 0]	n/a	FR1	1	R1229M
315.977	0.901	324443	WORD_OFF	n/a	n/a	SKUNK	6	2	[0, 0, 0]	n/a	FR1	1	R1229M
316.878	1.617	325344	WORD	n/a	wordpools/wordpool_EN.txt	CAT	7	2	[0, 0, 0]	n/a	FR1	1	R1229M
318.495	0.85	326961	WORD_OFF	n/a	n/a	CAT	7	2	[0, 0, 0]	n/a	FR1	1	R1229M
319.345	1.617	327811	WORD	n/a	wordpools/wordpool_EN.txt	BIRD	8	2	[0, 0, 0]	n/a	FR1	1	R1229M
320.962	0.9	329428	WORD_OFF	n/a	n/a	BIRD	8	2	[0, 0, 0]	n/a	FR1	1	R1229M
321.862	1.617	330328	WORD	n/a	wordpools/wordpool_EN.txt	ZOO	9	2	[0, 0, 0]	n/a	FR1	1	R1229M
323.479	0.883	331945	WORD_OFF	n/a	n/a	ZOO	9	2	[0, 0, 0]	n/a	FR1	1	R1229M
324.362	1.617	332827	WORD	n/a	wordpools/wordpool_EN.txt	NEST	10	2	[0, 0, 0]	n/a	FR1	1	R1229M
325.979	0.951	334444	WORD_OFF	n/a	n/a	NEST	10	2	[0, 0, 0]	n/a	FR1	1	R1229M
326.93	1.617	335395	WORD	n/a	wordpools/wordpool_EN.txt	SNAKE	11	2	[0, 0, 0]	n/a	FR1	1	R1229M
328.547	0.933	337012	WORD_OFF	n/a	n/a	SNAKE	11	2	[0, 0, 0]	n/a	FR1	1	R1229M
329.48	1.617	337945	WORD	n/a	wordpools/wordpool_EN.txt	CLOUD	12	2	[0, 0, 0]	n/a	FR1	1	R1229M
331.097	0.0	339562	WORD_OFF	n/a	n/a	CLOUD	12	2	[0, 0, 0]	n/a	FR1	1	R1229M
331.097	0.001	339562	DISTRACT_START	n/a	n/a	n/a	-999	2	[0, 0, 0]	n/a	FR1	1	R1229M
331.098	0.016	339563	START	n/a	n/a	n/a	-999	2	[-999, -999, -999]	n/a	FR1	1	R1229M
331.114	7.184	339579	PROB	7.184	n/a	n/a	-999	2	[7, 5, 4]	16	FR1	1	R1229M
338.298	3.618	346763	PROB	3.618	n/a	n/a	-999	2	[5, 5, 8]	18	FR1	1	R1229M
341.916	4.833	350380	PROB	4.833	n/a	n/a	-999	2	[1, 2, 8]	11	FR1	1	R1229M
346.749	15.41	355213	PROB	15.41	n/a	n/a	-999	2	[6, 5, 2]	13	FR1	1	R1229M
362.159	0.011	370622	STOP	n/a	n/a	n/a	-999	2	[-999, -999, -999]	n/a	FR1	1	R1229M
362.17	0.683	370633	DISTRACT_END	n/a	n/a	n/a	-999	2	[0, 0, 0]	n/a	FR1	1	R1229M
362.853	0.518	371316	RETRIEVAL_ORIENT	n/a	n/a	n/a	-999	2	[0, 0, 0]	n/a	FR1	1	R1229M
363.371	4.377	371834	REC_START	n/a	n/a	n/a	-999	2	[0, 0, 0]	n/a	FR1	1	R1229M
367.748	15.733	376211	REC_WORD	15.733	n/a	HAWK	1	2	[0, 0, 0]	n/a	FR1	1	R1229M
383.481	9.899	391943	REC_WORD	9.899	n/a	MOUSE	3	2	[0, 0, 0]	n/a	FR1	1	R1229M
393.38	33.702	401842	REC_END	n/a	n/a	n/a	-999	2	[0, 0, 0]	n/a	FR1	1	R1229M
427.082	0.5	435542	TRIAL	n/a	n/a	n/a	-999	3	[0, 0, 0]	n/a	FR1	1	R1229M
427.582	10.428	436042	COUNTDOWN_START	n/a	n/a	n/a	-999	3	[0, 0, 0]	n/a	FR1	1	R1229M
438.01	0.008	446469	COUNTDOWN_END	n/a	n/a	n/a	-999	3	[0, 0, 0]	n/a	FR1	1	R1229M
438.018	1.616	446477	ORIENT	n/a	n/a	n/a	-999	3	[0, 0, 0]	n/a	FR1	1	R1229M
439.634	2.067	448093	ORIENT_OFF	n/a	n/a	n/a	-999	3	[0, 0, 0]	n/a	FR1	1	R1229M
441.701	1.618	450160	WORD	n/a	wordpools/wordpool_EN.txt	THUMB	1	3	[0, 0, 0]	n/a	FR1	1	R1229M
443.319	0.85	451778	WORD_OFF	n/a	n/a	THUMB	1	3	[0, 0, 0]	n/a	FR1	1	R1229M
444.169	1.616	452628	WORD	n/a	wordpools/wordpool_EN.txt	CONE	2	3	[0, 0, 0]	n/a	FR1	1	R1229M
445.785	0.817	454244	WORD_OFF	n/a	n/a	CONE	2	3	[0, 0, 0]	n/a	FR1	1	R1229M
446.602	1.618	455060	WORD	n/a	wordpools/wordpool_EN.txt	STEM	3	3	[0, 0, 0]	n/a	FR1	1	R1229M
448.22	0.9	456678	WORD_OFF	n/a	n/a	STEM	3	3	[0, 0, 0]	n/a	FR1	1	R1229M
449.12	1.616	457578	WORD	n/a	wordpools/wordpool_EN.txt	PASTE	4	3	[0, 0, 0]	n/a	FR1	1	R1229M
450.736	0.784	459194	WORD_OFF	n/a	n/a	PASTE	4	3	[0, 0, 0]	n/a	FR1	1	R1229M
451.52	1.617	459978	WORD	n/a	wordpools/wordpool_EN.txt	TOAST	5	3	[0, 0, 0]	n/a	FR1	1	R1229M
453.137	0.984	461595	WORD_OFF	n/a	n/a	TOAST	5	3	[0, 0, 0]	n/a	FR1	1	R1229M
454.121	1.616	462579	WORD	n/a	wordpools/wordpool_EN.txt	TOE	6	3	[0, 0, 0]	n/a	FR1	1	R1229M
455.737	0.867	464195	WORD_OFF	n/a	n/a	TOE	6	3	[0, 0, 0]	n/a	FR1	1	R1229M
456.604	1.618	465062	WORD	n/a	wordpools/wordpool_EN.txt	LEAF	7	3	[0, 0, 0]	n/a	FR1	1	R1229M
458.222	0.916	466680	WORD_OFF	n/a	n/a	LEAF	7	3	[0, 0, 0]	n/a	FR1	1	R1229M
459.138	1.616	467596	WORD	n/a	wordpools/wordpool_EN.txt	ARM	8	3	[0, 0, 0]	n/a	FR1	1	R1229M
460.754	0.785	469212	WORD_OFF	n/a	n/a	ARM	8	3	[0, 0, 0]	n/a	FR1	1	R1229M
461.539	1.617	469997	WORD	n/a	wordpools/wordpool_EN.txt	FRUIT	9	3	[0, 0, 0]	n/a	FR1	1	R1229M
463.156	0.8	471614	WORD_OFF	n/a	n/a	FRUIT	9	3	[0, 0, 0]	n/a	FR1	1	R1229M
463.956	1.617	472413	WORD	n/a	wordpools/wordpool_EN.txt	MOTH	10	3	[0, 0, 0]	n/a	FR1	1	R1229M
465.573	0.967	474030	WORD_OFF	n/a	n/a	MOTH	10	3	[0, 0, 0]	n/a	FR1	1	R1229M
466.54	1.617	474997	WORD	n/a	wordpools/wordpool_EN.txt	BLOOM	11	3	[0, 0, 0]	n/a	FR1	1	R1229M
468.157	0.817	476614	WORD_OFF	n/a	n/a	BLOOM	11	3	[0, 0, 0]	n/a	FR1	1	R1229M
468.974	1.616	477431	WORD	n/a	wordpools/wordpool_EN.txt	WEED	12	3	[0, 0, 0]	n/a	FR1	1	R1229M
470.59	0.0	479047	WORD_OFF	n/a	n/a	WEED	12	3	[0, 0, 0]	n/a	FR1	1	R1229M
470.59	0.0	479047	DISTRACT_START	n/a	n/a	n/a	-999	3	[0, 0, 0]	n/a	FR1	1	R1229M
470.59	0.016	479047	START	n/a	n/a	n/a	-999	3	[-999, -999, -999]	n/a	FR1	1	R1229M
470.606	8.119	479063	PROB	8.119	n/a	n/a	-999	3	[9, 9, 9]	27	FR1	1	R1229M
478.725	7.502	487182	PROB	7.502	n/a	n/a	-999	3	[2, 8, 3]	13	FR1	1	R1229M
486.227	5.731	494683	PROB	5.731	n/a	n/a	-999	3	[3, 7, 3]	13	FR1	1	R1229M
491.958	0.02	500414	STOP	n/a	n/a	n/a	-999	3	[-999, -999, -999]	n/a	FR1	1	R1229M
491.978	0.683	500434	DISTRACT_END	n/a	n/a	n/a	-999	3	[0, 0, 0]	n/a	FR1	1	R1229M
492.661	0.523	501117	RETRIEVAL_ORIENT	n/a	n/a	n/a	-999	3	[0, 0, 0]	n/a	FR1	1	R1229M
493.184	1.361	501640	REC_START	n/a	n/a	n/a	-999	3	[0, 0, 0]	n/a	FR1	1	R1229M
494.545	1.838	503001	REC_WORD	1.838	n/a	THUMB	1	3	[0, 0, 0]	n/a	FR1	1	R1229M
496.383	2.092	504839	REC_WORD	2.092	n/a	CONE	2	3	[0, 0, 0]	n/a	FR1	1	R1229M
498.475	24.716	506931	REC_WORD	24.716	n/a	STEM	3	3	[0, 0, 0]	n/a	FR1	1	R1229M
523.191	7.645	531645	REC_END	n/a	n/a	n/a	-999	3	[0, 0, 0]	n/a	FR1	1	R1229M
530.836	0.5	539290	TRIAL	n/a	n/a	n/a	-999	4	[0, 0, 0]	n/a	FR1	1	R1229M
531.336	10.428	539790	COUNTDOWN_START	n/a	n/a	n/a	-999	4	[0, 0, 0]	n/a	FR1	1	R1229M
541.764	0.006	550217	COUNTDOWN_END	n/a	n/a	n/a	-999	4	[0, 0, 0]	n/a	FR1	1	R1229M
541.77	1.618	550223	ORIENT	n/a	n/a	n/a	-999	4	[0, 0, 0]	n/a	FR1	1	R1229M
543.388	1.917	551841	ORIENT_OFF	n/a	n/a	n/a	-999	4	[0, 0, 0]	n/a	FR1	1	R1229M
545.305	1.617	553758	WORD	n/a	wordpools/wordpool_EN.txt	PALM	1	4	[0, 0, 0]	n/a	FR1	1	R1229M
546.922	0.799	555375	WORD_OFF	n/a	n/a	PALM	1	4	[0, 0, 0]	n/a	FR1	1	R1229M
547.721	1.618	556174	WORD	n/a	wordpools/wordpool_EN.txt	SLEEVE	2	4	[0, 0, 0]	n/a	FR1	1	R1229M
549.339	0.884	557792	WORD_OFF	n/a	n/a	SLEEVE	2	4	[0, 0, 0]	n/a	FR1	1	R1229M
550.223	1.617	558676	WORD	n/a	wordpools/wordpool_EN.txt	COUCH	3	4	[0, 0, 0]	n/a	FR1	1	R1229M
551.84	0.832	560292	WORD_OFF	n/a	n/a	COUCH	3	4	[0, 0, 0]	n/a	FR1	1	R1229M
552.672	1.618	561124	WORD	n/a	wordpools/wordpool_EN.txt	CAPE	4	4	[0, 0, 0]	n/a	FR1	1	R1229M
554.29	0.9	562742	WORD_OFF	n/a	n/a	CAPE	4	4	[0, 0, 0]	n/a	FR1	1	R1229M
555.19	1.617	563642	WORD	n/a	wordpools/wordpool_EN.txt	VAN	5	4	[0, 0, 0]	n/a	FR1	1	R1229M
556.807	0.799	565259	WORD_OFF	n/a	n/a	VAN	5	4	[0, 0, 0]	n/a	FR1	1	R1229M
557.606	1.618	566058	WORD	n/a	wordpools/wordpool_EN.txt	SQUARE	6	4	[0, 0, 0]	n/a	FR1	1	R1229M
559.224	0.984	567676	WORD_OFF	n/a	n/a	SQUARE	6	4	[0, 0, 0]	n/a	FR1	1	R1229M
560.208	1.617	568660	WORD	n/a	wordpools/wordpool_EN.txt	VASE	7	4	[0, 0, 0]	n/a	FR1	1	R1229M
561.825	0.983	570277	WORD_OFF	n/a	n/a	VASE	7	4	[0, 0, 0]	n/a	FR1	1	R1229M
562.808	1.617	571260	WORD	n/a	wordpools/wordpool_EN.txt	WAND	8	4	[0, 0, 0]	n/a	FR1	1	R1229M
564.425	1.0	572877	WORD_OFF	n/a	n/a	WAND	8	4	[0, 0, 0]	n/a	FR1	1	R1229M
565.425	1.618	573877	WORD	n/a	wordpools/wordpool_EN.txt	PLANE	9	4	[0, 0, 0]	n/a	FR1	1	R1229M
567.043	0.867	575495	WORD_OFF	n/a	n/a	PLANE	9	4	[0, 0, 0]	n/a	FR1	1	R1229M
567.91	1.617	576362	WORD	n/a	wordpools/wordpool_EN.txt	NOSE	10	4	[0, 0, 0]	n/a	FR1	1	R1229M
569.527	0.783	577978	WORD_OFF	n/a	n/a	NOSE	10	4	[0, 0, 0]	n/a	FR1	1	R1229M
570.31	1.617	578761	WORD	n/a	wordpools/wordpool_EN.txt	CAGE	11	4	[0, 0, 0]	n/a	FR1	1	R1229M
571.927	0.9	580378	WORD_OFF	n/a	n/a	CAGE	11	4	[0, 0, 0]	n/a	FR1	1	R1229M
572.827	1.617	581278	WORD	n/a	wordpools/wordpool_EN.txt	FAN	12	4	[0, 0, 0]	n/a	FR1	1	R1229M
574.444	0.0	582895	WORD_OFF	n/a	n/a	FAN	12	4	[0, 0, 0]	n/a	FR1	1	R1229M
574.444	0.001	582895	DISTRACT_START	n/a	n/a	n/a	-999	4	[0, 0, 0]	n/a	FR1	1	R1229M
574.445	0.016	582896	START	n/a	n/a	n/a	-999	4	[-999, -999, -999]	n/a	FR1	1	R1229M
574.461	3.367	582912	PROB	3.367	n/a	n/a	-999	4	[5, 5, 1]	11	FR1	1	R1229M
577.828	4.618	586279	PROB	4.618	n/a	n/a	-999	4	[5, 3, 5]	13	FR1	1	R1229M
582.446	3.75	590897	PROB	3.75	n/a	n/a	-999	4	[4, 1, 9]	14	FR1	1	R1229M
586.196	4.768	594647	PROB	4.768	n/a	n/a	-999	4	[1, 3, 2]	6	FR1	1	R1229M
590.964	3.69	599414	PROB	3.69	n/a	n/a	-999	4	[6, 2, 6]	14	FR1	1	R1229M
594.654	0.01	603104	STOP	n/a	n/a	n/a	-999	4	[-999, -999, -999]	n/a	FR1	1	R1229M
594.664	0.551	603114	DISTRACT_END	n/a	n/a	n/a	-999	4	[0, 0, 0]	n/a	FR1	1	R1229M
595.215	0.516	603665	RETRIEVAL_ORIENT	n/a	n/a	n/a	-999	4	[0, 0, 0]	n/a	FR1	1	R1229M
595.731	2.868	604181	REC_START	n/a	n/a	n/a	-999	4	[0, 0, 0]	n/a	FR1	1	R1229M
598.599	2.921	607049	REC_WORD	2.921	n/a	PLANE	9	4	[0, 0, 0]	n/a	FR1	1	R1229M
601.52	2.577	609970	REC_WORD	2.577	n/a	SLEEVE	2	4	[0, 0, 0]	n/a	FR1	1	R1229M
604.097	21.644	612546	REC_WORD	21.644	n/a	COUCH	3	4	[0, 0, 0]	n/a	FR1	1	R1229M
625.741	28.001	634189	REC_END	n/a	n/a	n/a	-999	4	[0, 0, 0]	n/a	FR1	1	R1229M
653.742	0.5	662189	TRIAL	n/a	n/a	n/a	-999	5	[0, 0, 0]	n/a	FR1	1	R1229M
654.242	10.428	662689	COUNTDOWN_START	n/a	n/a	n/a	-999	5	[0, 0, 0]	n/a	FR1	1	R1229M
664.67	0.007	673116	COUNTDOWN_END	n/a	n/a	n/a	-999	5	[0, 0, 0]	n/a	FR1	1	R1229M
664.677	1.618	673123	ORIENT	n/a	n/a	n/a	-999	5	[0, 0, 0]	n/a	FR1	1	R1229M
666.295	2.117	674741	ORIENT_OFF	n/a	n/a	n/a	-999	5	[0, 0, 0]	n/a	FR1	1	R1229M
668.412	1.617	676858	WORD	n/a	wordpools/wordpool_EN.txt	SHIRT	1	5	[0, 0, 0]	n/a	FR1	1	R1229M
670.029	0.867	678475	WORD_OFF	n/a	n/a	SHIRT	1	5	[0, 0, 0]	n/a	FR1	1	R1229M
670.896	1.617	679342	WORD	n/a	wordpools/wordpool_EN.txt	SHARK	2	5	[0, 0, 0]	n/a	FR1	1	R1229M
672.513	0.817	680959	WORD_OFF	n/a	n/a	SHARK	2	5	[0, 0, 0]	n/a	FR1	1	R1229M
673.33	1.617	681776	WORD	n/a	wordpools/wordpool_EN.txt	PIT	3	5	[0, 0, 0]	n/a	FR1	1	R1229M
674.947	1.0	683392	WORD_OFF	n/a	n/a	PIT	3	5	[0, 0, 0]	n/a	FR1	1	R1229M
675.947	1.617	684392	WORD	n/a	wordpools/wordpool_EN.txt	EAR	4	5	[0, 0, 0]	n/a	FR1	1	R1229M
677.564	0.817	686009	WORD_OFF	n/a	n/a	EAR	4	5	[0, 0, 0]	n/a	FR1	1	R1229M
678.381	1.617	686826	WORD	n/a	wordpools/wordpool_EN.txt	FORK	5	5	[0, 0, 0]	n/a	FR1	1	R1229M
679.998	0.867	688443	WORD_OFF	n/a	n/a	FORK	5	5	[0, 0, 0]	n/a	FR1	1	R1229M
680.865	1.617	689310	WORD	n/a	wordpools/wordpool_EN.txt	SMILE	6	5	[0, 0, 0]	n/a	FR1	1	R1229M
682.482	0.916	690927	WORD_OFF	n/a	n/a	SMILE	6	5	[0, 0, 0]	n/a	FR1	1	R1229M
683.398	1.617	691843	WORD	n/a	wordpools/wordpool_EN.txt	CUP	7	5	[0, 0, 0]	n/a	FR1	1	R1229M
685.015	0.867	693460	WORD_OFF	n/a	n/a	CUP	7	5	[0, 0, 0]	n/a	FR1	1	R1229M
685.882	1.617	694327	WORD	n/a	wordpools/wordpool_EN.txt	GRAPE	8	5	[0, 0, 0]	n/a	FR1	1	R1229M
687.499	0.817	695944	WORD_OFF	n/a	n/a	GRAPE	8	5	[0, 0, 0]	n/a	FR1	1	R1229M
688.316	1.617	696761	WORD	n/a	wordpools/wordpool_EN.txt	MUD	9	5	[0, 0, 0]	n/a	FR1	1	R1229M
689.933	0.867	698378	WORD_OFF	n/a	n/a	MUD	9	5	[0, 0, 0]	n/a	FR1	1	R1229M
690.8	1.617	699245	WORD	n/a	wordpools/wordpool_EN.txt	MAT	10	5	[0, 0, 0]	n/a	FR1	1	R1229M
692.417	0.867	700861	WORD_OFF	n/a	n/a	MAT	10	5	[0, 0, 0]	n/a	FR1	1	R1229M
693.284	1.617	701728	WORD	n/a	wordpools/wordpool_EN.txt	CHIN	11	5	[0, 0, 0]	n/a	FR1	1	R1229M
694.901	0.9	703345	WORD_OFF	n/a	n/a	CHIN	11	5	[0, 0, 0]	n/a	FR1	1	R1229M
695.801	1.617	704245	WORD	n/a	wordpools/wordpool_EN.txt	CAVE	12	5	[0, 0, 0]	n/a	FR1	1	R1229M
697.418	0.0	705862	DISTRACT_START	n/a	n/a	n/a	-999	5	[0, 0, 0]	n/a	FR1	1	R1229M
697.418	0.0	705862	WORD_OFF	n/a	n/a	CAVE	12	5	[0, 0, 0]	n/a	FR1	1	R1229M
697.418	0.016	705862	START	n/a	n/a	n/a	-999	5	[-999, -999, -999]	n/a	FR1	1	R1229M
697.434	5.284	705878	PROB	5.284	n/a	n/a	-999	5	[7, 1, 1]	9	FR1	1	R1229M
702.718	2.984	711162	PROB	2.984	n/a	n/a	-999	5	[2, 5, 5]	12	FR1	1	R1229M
705.702	3.301	714146	PROB	3.301	n/a	n/a	-999	5	[2, 3, 7]	12	FR1	1	R1229M
709.003	5.601	717446	PROB	5.601	n/a	n/a	-999	5	[7, 4, 3]	14	FR1	1	R1229M
714.604	13.033	723047	PROB	13.033	n/a	n/a	-999	5	[8, 6, 5]	19	FR1	1	R1229M
727.637	0.019	736079	STOP	n/a	n/a	n/a	-999	5	[-999, -999, -999]	n/a	FR1	1	R1229M
727.656	0.585	736098	DISTRACT_END	n/a	n/a	n/a	-999	5	[0, 0, 0]	n/a	FR1	1	R1229M
728.241	0.516	736683	RETRIEVAL_ORIENT	n/a	n/a	n/a	-999	5	[0, 0, 0]	n/a	FR1	1	R1229M
728.757	29.994	737199	REC_START	n/a	n/a	n/a	-999	5	[0, 0, 0]	n/a	FR1	1	R1229M
758.751	0.016	767192	REC_WORD_VV	0.016	n/a	<>	-999	5	[0, 0, 0]	n/a	FR1	1	R1229M
758.767	20.4	767208	REC_END	n/a	n/a	n/a	-999	5	[0, 0, 0]	n/a	FR1	1	R1229M
779.167	0.5	787606	TRIAL	n/a	n/a	n/a	-999	6	[0, 0, 0]	n/a	FR1	1	R1229M
779.667	10.428	788106	COUNTDOWN_START	n/a	n/a	n/a	-999	6	[0, 0, 0]	n/a	FR1	1	R1229M
790.095	0.007	798534	COUNTDOWN_END	n/a	n/a	n/a	-999	6	[0, 0, 0]	n/a	FR1	1	R1229M
790.102	1.616	798541	ORIENT	n/a	n/a	n/a	-999	6	[0, 0, 0]	n/a	FR1	1	R1229M
791.718	2.218	800157	ORIENT_OFF	n/a	n/a	n/a	-999	6	[0, 0, 0]	n/a	FR1	1	R1229M
793.936	1.617	802375	WORD	n/a	wordpools/wordpool_EN.txt	MAIL	1	6	[0, 0, 0]	n/a	FR1	1	R1229M
795.553	0.984	803992	WORD_OFF	n/a	n/a	MAIL	1	6	[0, 0, 0]	n/a	FR1	1	R1229M
796.537	1.617	804975	WORD	n/a	wordpools/wordpool_EN.txt	POLE	2	6	[0, 0, 0]	n/a	FR1	1	R1229M
798.154	0.833	806592	WORD_OFF	n/a	n/a	POLE	2	6	[0, 0, 0]	n/a	FR1	1	R1229M
798.987	1.616	807425	WORD	n/a	wordpools/wordpool_EN.txt	BALL	3	6	[0, 0, 0]	n/a	FR1	1	R1229M
800.603	0.785	809041	WORD_OFF	n/a	n/a	BALL	3	6	[0, 0, 0]	n/a	FR1	1	R1229M
801.388	1.617	809826	WORD	n/a	wordpools/wordpool_EN.txt	ROOT	4	6	[0, 0, 0]	n/a	FR1	1	R1229M
803.005	1.0	811443	WORD_OFF	n/a	n/a	ROOT	4	6	[0, 0, 0]	n/a	FR1	1	R1229M
804.005	1.616	812443	WORD	n/a	wordpools/wordpool_EN.txt	BANK	5	6	[0, 0, 0]	n/a	FR1	1	R1229M
805.621	0.951	814059	WORD_OFF	n/a	n/a	BANK	5	6	[0, 0, 0]	n/a	FR1	1	R1229M
806.572	1.617	815010	WORD	n/a	wordpools/wordpool_EN.txt	CORD	6	6	[0, 0, 0]	n/a	FR1	1	R1229M
808.189	1.0	816627	WORD_OFF	n/a	n/a	CORD	6	6	[0, 0, 0]	n/a	FR1	1	R1229M
809.189	1.617	817627	WORD	n/a	wordpools/wordpool_EN.txt	FILM	7	6	[0, 0, 0]	n/a	FR1	1	R1229M
810.806	0.767	819244	WORD_OFF	n/a	n/a	FILM	7	6	[0, 0, 0]	n/a	FR1	1	R1229M
811.573	1.617	820011	WORD	n/a	wordpools/wordpool_EN.txt	HOOF	8	6	[0, 0, 0]	n/a	FR1	1	R1229M
813.19	0.867	821628	WORD_OFF	n/a	n/a	HOOF	8	6	[0, 0, 0]	n/a	FR1	1	R1229M
814.057	1.616	822494	WORD	n/a	wordpools/wordpool_EN.txt	STAR	9	6	[0, 0, 0]	n/a	FR1	1	R1229M
815.673	0.835	824110	WORD_OFF	n/a	n/a	STAR	9	6	[0, 0, 0]	n/a	FR1	1	R1229M
816.508	1.616	824945	WORD	n/a	wordpools/wordpool_EN.txt	CASH	10	6	[0, 0, 0]	n/a	FR1	1	R1229M
818.124	0.951	826561	WORD_OFF	n/a	n/a	CASH	10	6	[0, 0, 0]	n/a	FR1	1	R1229M
819.075	1.616	827512	WORD	n/a	wordpools/wordpool_EN.txt	MAP	11	6	[0, 0, 0]	n/a	FR1	1	R1229M
820.691	0.834	829128	WORD_OFF	n/a	n/a	MAP	11	6	[0, 0, 0]	n/a	FR1	1	R1229M
821.525	1.617	829962	WORD	n/a	wordpools/wordpool_EN.txt	MOON	12	6	[0, 0, 0]	n/a	FR1	1	R1229M
823.142	0.0	831579	WORD_OFF	n/a	n/a	MOON	12	6	[0, 0, 0]	n/a	FR1	1	R1229M
823.142	0.001	831579	DISTRACT_START	n/a	n/a	n/a	-999	6	[0, 0, 0]	n/a	FR1	1	R1229M
823.143	0.016	831580	START	n/a	n/a	n/a	-999	6	[-999, -999, -999]	n/a	FR1	1	R1229M
823.159	7.835	831596	PROB	7.835	n/a	n/a	-999	6	[9, 9, 5]	23	FR1	1	R1229M
830.994	9.368	839431	PROB	9.368	n/a	n/a	-999	6	[6, 8, 5]	19	FR1	1	R1229M
840.362	6.331	848798	PROB	6.331	n/a	n/a	-999	6	[2, 5, 7]	14	FR1	1	R1229M
846.693	0.019	855129	STOP	n/a	n/a	n/a	-999	6	[-999, -999, -999]	n/a	FR1	1	R1229M
846.712	0.535	855148	DISTRACT_END	n/a	n/a	n/a	-999	6	[0, 0, 0]	n/a	FR1	1	R1229M
847.247	0.516	855683	RETRIEVAL_ORIENT	n/a	n/a	n/a	-999	6	[0, 0, 0]	n/a	FR1	1	R1229M
847.763	2.749	856199	REC_START	n/a	n/a	n/a	-999	6	[0, 0, 0]	n/a	FR1	1	R1229M
850.512	1.286	858947	REC_WORD	1.286	n/a	CORD	6	6	[0, 0, 0]	n/a	FR1	1	R1229M
851.798	2.665	860233	REC_WORD	2.665	n/a	HOOF	8	6	[0, 0, 0]	n/a	FR1	1	R1229M
854.463	23.311	862898	REC_WORD	23.311	n/a	MAIL	1	6	[0, 0, 0]	n/a	FR1	1	R1229M
877.774	8.846	886208	REC_END	n/a	n/a	n/a	-999	6	[0, 0, 0]	n/a	FR1	1	R1229M
886.62	0.5	895053	TRIAL	n/a	n/a	n/a	-999	7	[0, 0, 0]	n/a	FR1	1	R1229M
887.12	10.428	895553	COUNTDOWN_START	n/a	n/a	n/a	-999	7	[0, 0, 0]	n/a	FR1	1	R1229M
897.548	0.008	905981	COUNTDOWN_END	n/a	n/a	n/a	-999	7	[0, 0, 0]	n/a	FR1	1	R1229M
897.556	1.601	905989	ORIENT	n/a	n/a	n/a	-999	7	[0, 0, 0]	n/a	FR1	1	R1229M
899.157	2.067	907590	ORIENT_OFF	n/a	n/a	n/a	-999	7	[0, 0, 0]	n/a	FR1	1	R1229M
901.224	1.617	909657	WORD	n/a	wordpools/wordpool_EN.txt	YARD	1	7	[0, 0, 0]	n/a	FR1	1	R1229M
902.841	0.766	911273	WORD_OFF	n/a	n/a	YARD	1	7	[0, 0, 0]	n/a	FR1	1	R1229M
903.607	1.618	912039	WORD	n/a	wordpools/wordpool_EN.txt	SHOE	2	7	[0, 0, 0]	n/a	FR1	1	R1229M
905.225	0.867	913657	WORD_OFF	n/a	n/a	SHOE	2	7	[0, 0, 0]	n/a	FR1	1	R1229M
906.092	1.616	914524	WORD	n/a	wordpools/wordpool_EN.txt	BENCH	3	7	[0, 0, 0]	n/a	FR1	1	R1229M
907.708	0.916	916140	WORD_OFF	n/a	n/a	BENCH	3	7	[0, 0, 0]	n/a	FR1	1	R1229M
908.624	1.618	917056	WORD	n/a	wordpools/wordpool_EN.txt	LOCK	4	7	[0, 0, 0]	n/a	FR1	1	R1229M
910.242	0.901	918674	WORD_OFF	n/a	n/a	LOCK	4	7	[0, 0, 0]	n/a	FR1	1	R1229M
911.143	1.615	919575	WORD	n/a	wordpools/wordpool_EN.txt	TOY	5	7	[0, 0, 0]	n/a	FR1	1	R1229M
912.758	0.917	921190	WORD_OFF	n/a	n/a	TOY	5	7	[0, 0, 0]	n/a	FR1	1	R1229M
913.675	1.601	922107	WORD	n/a	wordpools/wordpool_EN.txt	BED	6	7	[0, 0, 0]	n/a	FR1	1	R1229M
915.276	0.851	923708	WORD_OFF	n/a	n/a	BED	6	7	[0, 0, 0]	n/a	FR1	1	R1229M
916.127	1.616	924559	WORD	n/a	wordpools/wordpool_EN.txt	STRAW	7	7	[0, 0, 0]	n/a	FR1	1	R1229M
917.743	0.867	926175	WORD_OFF	n/a	n/a	STRAW	7	7	[0, 0, 0]	n/a	FR1	1	R1229M
918.61	1.618	927042	WORD	n/a	wordpools/wordpool_EN.txt	BOOT	8	7	[0, 0, 0]	n/a	FR1	1	R1229M
920.228	0.883	928659	WORD_OFF	n/a	n/a	BOOT	8	7	[0, 0, 0]	n/a	FR1	1	R1229M
921.111	1.616	929542	WORD	n/a	wordpools/wordpool_EN.txt	AXE	9	7	[0, 0, 0]	n/a	FR1	1	R1229M
922.727	0.785	931158	WORD_OFF	n/a	n/a	AXE	9	7	[0, 0, 0]	n/a	FR1	1	R1229M
923.512	1.617	931943	WORD	n/a	wordpools/wordpool_EN.txt	TEETH	10	7	[0, 0, 0]	n/a	FR1	1	R1229M
925.129	0.766	933560	WORD_OFF	n/a	n/a	TEETH	10	7	[0, 0, 0]	n/a	FR1	1	R1229M
925.895	1.617	934326	WORD	n/a	wordpools/wordpool_EN.txt	FOOT	11	7	[0, 0, 0]	n/a	FR1	1	R1229M
927.512	0.917	935943	WORD_OFF	n/a	n/a	FOOT	11	7	[0, 0, 0]	n/a	FR1	1	R1229M
928.429	1.617	936860	WORD	n/a	wordpools/wordpool_EN.txt	STOOL	12	7	[0, 0, 0]	n/a	FR1	1	R1229M
930.046	0.0	938477	WORD_OFF	n/a	n/a	STOOL	12	7	[0, 0, 0]	n/a	FR1	1	R1229M
930.046	0.001	938477	DISTRACT_START	n/a	n/a	n/a	-999	7	[0, 0, 0]	n/a	FR1	1	R1229M
930.047	0.016	938478	START	n/a	n/a	n/a	-999	7	[-999, -999, -999]	n/a	FR1	1	R1229M
930.063	8.902	938494	PROB	8.902	n/a	n/a	-999	7	[8, 6, 9]	23	FR1	1	R1229M
938.965	3.884	947395	PROB	3.884	n/a	n/a	-999	7	[8, 8, 1]	17	FR1	1	R1229M
942.849	3.667	951279	PROB	3.667	n/a	n/a	-999	7	[5, 5, 7]	17	FR1	1	R1229M
946.516	3.779	954946	PROB	3.779	n/a	n/a	-999	7	[1, 4, 1]	6	FR1	1	R1229M
950.295	0.022	958725	STOP	n/a	n/a	n/a	-999	7	[-999, -999, -999]	n/a	FR1	1	R1229M
950.317	0.533	958747	DISTRACT_END	n/a	n/a	n/a	-999	7	[0, 0, 0]	n/a	FR1	1	R1229M
950.85	0.518	959280	RETRIEVAL_ORIENT	n/a	n/a	n/a	-999	7	[0, 0, 0]	n/a	FR1	1	R1229M
951.368	3.127	959798	REC_START	n/a	n/a	n/a	-999	7	[0, 0, 0]	n/a	FR1	1	R1229M
954.495	26.884	962924	REC_WORD	26.884	n/a	BENCH	3	7	[0, 0, 0]	n/a	FR1	1	R1229M
981.379	621.13	989807	REC_END	n/a	n/a	n/a	-999	7	[0, 0, 0]	n/a	FR1	1	R1229M
1602.509	0.5	1610901	TRIAL	n/a	n/a	n/a	-999	8	[0, 0, 0]	n/a	FR1	1	R1229M
1603.009	10.428	1611401	COUNTDOWN_START	n/a	n/a	n/a	-999	8	[0, 0, 0]	n/a	FR1	1	R1229M
1613.437	0.008	1621829	COUNTDOWN_END	n/a	n/a	n/a	-999	8	[0, 0, 0]	n/a	FR1	1	R1229M
1613.445	1.617	1621837	ORIENT	n/a	n/a	n/a	-999	8	[0, 0, 0]	n/a	FR1	1	R1229M
1615.062	2.2	1623454	ORIENT_OFF	n/a	n/a	n/a	-999	8	[0, 0, 0]	n/a	FR1	1	R1229M
1617.262	1.617	1625654	WORD	n/a	wordpools/wordpool_EN.txt	BARN	1	8	[0, 0, 0]	n/a	FR1	1	R1229M
1618.879	1.001	1627271	WORD_OFF	n/a	n/a	BARN	1	8	[0, 0, 0]	n/a	FR1	1	R1229M
1619.88	1.616	1628271	WORD	n/a	wordpools/wordpool_EN.txt	BRANCH	2	8	[0, 0, 0]	n/a	FR1	1	R1229M
1621.496	0.984	1629887	WORD_OFF	n/a	n/a	BRANCH	2	8	[0, 0, 0]	n/a	FR1	1	R1229M
1622.48	1.617	1630871	WORD	n/a	wordpools/wordpool_EN.txt	ROOF	3	8	[0, 0, 0]	n/a	FR1	1	R1229M
1624.097	0.933	1632488	WORD_OFF	n/a	n/a	ROOF	3	8	[0, 0, 0]	n/a	FR1	1	R1229M
1625.03	1.616	1633421	WORD	n/a	wordpools/wordpool_EN.txt	GOAT	4	8	[0, 0, 0]	n/a	FR1	1	R1229M
1626.646	0.852	1635037	WORD_OFF	n/a	n/a	GOAT	4	8	[0, 0, 0]	n/a	FR1	1	R1229M
1627.498	1.617	1635889	WORD	n/a	wordpools/wordpool_EN.txt	HOOK	5	8	[0, 0, 0]	n/a	FR1	1	R1229M
1629.115	0.85	1637506	WORD_OFF	n/a	n/a	HOOK	5	8	[0, 0, 0]	n/a	FR1	1	R1229M
1629.965	1.616	1638356	WORD	n/a	wordpools/wordpool_EN.txt	VINE	6	8	[0, 0, 0]	n/a	FR1	1	R1229M
1631.581	0.851	1639972	WORD_OFF	n/a	n/a	VINE	6	8	[0, 0, 0]	n/a	FR1	1	R1229M
1632.432	1.617	1640823	WORD	n/a	wordpools/wordpool_EN.txt	PIN	7	8	[0, 0, 0]	n/a	FR1	1	R1229M
1634.049	0.917	1642440	WORD_OFF	n/a	n/a	PIN	7	8	[0, 0, 0]	n/a	FR1	1	R1229M
1634.966	1.616	1643357	WORD	n/a	wordpools/wordpool_EN.txt	KITE	8	8	[0, 0, 0]	n/a	FR1	1	R1229M
1636.582	0.918	1644973	WORD_OFF	n/a	n/a	KITE	8	8	[0, 0, 0]	n/a	FR1	1	R1229M
1637.5	1.617	1645890	WORD	n/a	wordpools/wordpool_EN.txt	SEAL	9	8	[0, 0, 0]	n/a	FR1	1	R1229M
1639.117	0.95	1647507	WORD_OFF	n/a	n/a	SEAL	9	8	[0, 0, 0]	n/a	FR1	1	R1229M
1640.067	1.616	1648457	WORD	n/a	wordpools/wordpool_EN.txt	BUSH	10	8	[0, 0, 0]	n/a	FR1	1	R1229M
1641.683	1.0	1650073	WORD_OFF	n/a	n/a	BUSH	10	8	[0, 0, 0]	n/a	FR1	1	R1229M
1642.683	1.618	1651073	WORD	n/a	wordpools/wordpool_EN.txt	HOLE	11	8	[0, 0, 0]	n/a	FR1	1	R1229M
1644.301	0.783	1652691	WORD_OFF	n/a	n/a	HOLE	11	8	[0, 0, 0]	n/a	FR1	1	R1229M
1645.084	1.616	1653474	WORD	n/a	wordpools/wordpool_EN.txt	TREE	12	8	[0, 0, 0]	n/a	FR1	1	R1229M
1646.7	0.0	1655090	WORD_OFF	n/a	n/a	TREE	12	8	[0, 0, 0]	n/a	FR1	1	R1229M
1646.7	0.001	1655090	DISTRACT_START	n/a	n/a	n/a	-999	8	[0, 0, 0]	n/a	FR1	1	R1229M
1646.701	0.016	1655091	START	n/a	n/a	n/a	-999	8	[-999, -999, -999]	n/a	FR1	1	R1229M
1646.717	5.752	1655107	PROB	5.752	n/a	n/a	-999	8	[2, 9, 9]	20	FR1	1	R1229M
1652.469	6.985	1660859	PROB	6.985	n/a	n/a	-999	8	[8, 1, 3]	14	FR1	1	R1229M
1659.454	8.166	1667843	PROB	8.166	n/a	n/a	-999	8	[1, 8, 6]	15	FR1	1	R1229M
1667.62	0.018	1676009	STOP	n/a	n/a	n/a	-999	8	[-999, -999, -999]	n/a	FR1	1	R1229M
1667.638	0.568	1676027	DISTRACT_END	n/a	n/a	n/a	-999	8	[0, 0, 0]	n/a	FR1	1	R1229M
1668.206	0.516	1676595	RETRIEVAL_ORIENT	n/a	n/a	n/a	-999	8	[0, 0, 0]	n/a	FR1	1	R1229M
1668.722	2.954	1677111	REC_START	n/a	n/a	n/a	-999	8	[0, 0, 0]	n/a	FR1	1	R1229M
1671.676	4.674	1680065	REC_WORD	4.674	n/a	BARN	1	8	[0, 0, 0]	n/a	FR1	1	R1229M
1676.35	22.383	1684738	REC_WORD	22.383	n/a	BUSH	10	8	[0, 0, 0]	n/a	FR1	1	R1229M
1698.733	473.953	1707120	REC_END	n/a	n/a	n/a	-999	8	[0, 0, 0]	n/a	FR1	1	R1229M
2172.686	0.0	2181046	TRIAL	n/a	n/a	n/a	-999	9	[0, 0, 0]	n/a	FR1	1	R1229M
