onset	duration	sample	trial_type	response_time	stim_file	item_name	serialpos	list	test	answer	experiment	session	subject
0.0	44.033	40658	INSTRUCT_START	n/a	n/a	n/a	-999	-999	[0, 0, 0]	n/a	FR1	3	R1377M
44.033	26.365	84678	INSTRUCT_END	n/a	n/a	n/a	-999	-999	[0, 0, 0]	n/a	FR1	3	R1377M
70.398	10.352	111048	COUNTDOWN_START	n/a	n/a	n/a	-999	-999	[0, 0, 0]	n/a	FR1	3	R1377M
80.75	0.0	121395	COUNTDOWN_END	n/a	n/a	n/a	-999	-999	[0, 0, 0]	n/a	FR1	3	R1377M
80.75	1.933	121395	ENCODING_START	n/a	n/a	n/a	-999	-1	[0, 0, 0]	n/a	FR1	3	R1377M
82.683	1.615	123324	WORD	n/a	n/a	BABY	1	-1	[0, 0, 0]	n/a	FR1	3	R1377M
84.298	0.917	124936	WORD_OFF	n/a	n/a	BABY	1	-1	[0, 0, 0]	n/a	FR1	3	R1377M
85.215	1.617	125859	WORD	n/a	n/a	FLOOD	2	-1	[0, 0, 0]	n/a	FR1	3	R1377M
86.832	0.85	127471	WORD_OFF	n/a	n/a	FLOOD	2	-1	[0, 0, 0]	n/a	FR1	3	R1377M
87.682	1.617	128326	WORD	n/a	n/a	WATCH	3	-1	[0, 0, 0]	n/a	FR1	3	R1377M
89.299	0.916	129938	WORD_OFF	n/a	n/a	WATCH	3	-1	[0, 0, 0]	n/a	FR1	3	R1377M
90.215	1.617	130861	WORD	n/a	n/a	RING	4	-1	[0, 0, 0]	n/a	FR1	3	R1377M
91.832	0.833	132473	WORD_OFF	n/a	n/a	RING	4	-1	[0, 0, 0]	n/a	FR1	3	R1377M
92.665	1.617	133313	WORD	n/a	n/a	COTTON	5	-1	[0, 0, 0]	n/a	FR1	3	R1377M
94.282	0.85	134925	WORD_OFF	n/a	n/a	COTTON	5	-1	[0, 0, 0]	n/a	FR1	3	R1377M
95.132	1.617	135779	WORD	n/a	n/a	CAMEL	6	-1	[0, 0, 0]	n/a	FR1	3	R1377M
96.749	0.85	137391	WORD_OFF	n/a	n/a	CAMEL	6	-1	[0, 0, 0]	n/a	FR1	3	R1377M
97.599	1.6	138246	WORD	n/a	n/a	CHEST	7	-1	[0, 0, 0]	n/a	FR1	3	R1377M
99.199	0.85	139844	WORD_OFF	n/a	n/a	CHEST	7	-1	[0, 0, 0]	n/a	FR1	3	R1377M
100.049	1.616	140698	WORD	n/a	n/a	WAGON	8	-1	[0, 0, 0]	n/a	FR1	3	R1377M
101.665	0.95	142310	WORD_OFF	n/a	n/a	WAGON	8	-1	[0, 0, 0]	n/a	FR1	3	R1377M
102.615	1.6	143261	WORD	n/a	n/a	TONGUE	9	-1	[0, 0, 0]	n/a	FR1	3	R1377M
104.215	0.884	144859	WORD_OFF	n/a	n/a	TONGUE	9	-1	[0, 0, 0]	n/a	FR1	3	R1377M
105.099	1.6	145741	WORD	n/a	n/a	IMAGE	10	-1	[0, 0, 0]	n/a	FR1	3	R1377M
106.699	0.833	147339	WORD_OFF	n/a	n/a	IMAGE	10	-1	[0, 0, 0]	n/a	FR1	3	R1377M
107.532	1.6	148179	WORD	n/a	n/a	RHINO	11	-1	[0, 0, 0]	n/a	FR1	3	R1377M
109.132	0.867	149778	WORD_OFF	n/a	n/a	RHINO	11	-1	[0, 0, 0]	n/a	FR1	3	R1377M
109.999	1.616	150646	WORD	n/a	n/a	BEAM	12	-1	[0, 0, 0]	n/a	FR1	3	R1377M
111.615	0.002	152258	WORD_OFF	n/a	n/a	BEAM	12	-1	[0, 0, 0]	n/a	FR1	3	R1377M
111.617	0.001	152258	ENCODING_END	n/a	n/a	n/a	-999	-1	[0, 0, 0]	n/a	FR1	3	R1377M
111.618	0.0	152258	DISTRACT_START	n/a	n/a	n/a	-999	-1	[0, 0, 0]	n/a	FR1	3	R1377M
111.617	0.001	152259	PROB	0.001	n/a	n/a	-999	-1	[3, 2, 2]	7	FR1	3	R1377M
111.618	6.998	152260	START	n/a	n/a	n/a	-999	-1	[-999, -999, -999]	n/a	FR1	3	R1377M
118.616	5.783	159258	PROB	5.783	n/a	n/a	-999	-1	[3, 8, 7]	18	FR1	3	R1377M
124.399	3.217	165041	PROB	3.217	n/a	n/a	-999	-1	[1, 5, 6]	12	FR1	3	R1377M
127.616	3.416	168258	PROB	3.416	n/a	n/a	-999	-1	[1, 5, 6]	12	FR1	3	R1377M
131.032	4.083	171673	PROB	4.083	n/a	n/a	-999	-1	[5, 3, 5]	13	FR1	3	R1377M
135.115	0.0	175756	STOP	n/a	n/a	n/a	-999	-1	[-999, -999, -999]	n/a	FR1	3	R1377M
135.115	1.251	175763	DISTRACT_END	n/a	n/a	n/a	-999	-1	[0, 0, 0]	n/a	FR1	3	R1377M
136.366	4.066	177003	REC_START	n/a	n/a	n/a	-999	-1	[0, 0, 0]	n/a	FR1	3	R1377M
140.432	0.619	181073	REC_WORD	0.619	n/a	BABY	1	-1	[0, 0, 0]	n/a	FR1	3	R1377M
141.051	1.134	181692	REC_WORD	1.134	n/a	COTTON	5	-1	[0, 0, 0]	n/a	FR1	3	R1377M
142.185	2.667	182826	REC_WORD	2.667	n/a	CAMEL	6	-1	[0, 0, 0]	n/a	FR1	3	R1377M
144.852	2.524	185493	REC_WORD	2.524	n/a	WAGON	8	-1	[0, 0, 0]	n/a	FR1	3	R1377M
147.376	5.658	188017	REC_WORD	5.658	n/a	IMAGE	10	-1	[0, 0, 0]	n/a	FR1	3	R1377M
153.034	11.574	193674	REC_WORD	11.574	n/a	LOOP	-999	-1	[0, 0, 0]	n/a	FR1	3	R1377M
164.608	2.035	205248	REC_WORD_VV	2.035	n/a	<>	-999	-1	[0, 0, 0]	n/a	FR1	3	R1377M
166.643	34.556	207286	REC_END	n/a	n/a	n/a	-999	-1	[0, 0, 0]	n/a	FR1	3	R1377M
201.199	10.35	241841	COUNTDOWN_START	n/a	n/a	n/a	-999	1	[0, 0, 0]	n/a	FR1	3	R1377M
211.549	0.0	252188	COUNTDOWN_END	n/a	n/a	n/a	-999	1	[0, 0, 0]	n/a	FR1	3	R1377M
211.549	2.166	252188	ENCODING_START	n/a	n/a	n/a	-999	1	[0, 0, 0]	n/a	FR1	3	R1377M
213.715	1.6	254351	WORD	n/a	n/a	COKE	1	1	[0, 0, 0]	n/a	FR1	3	R1377M
215.315	0.767	255949	WORD_OFF	n/a	n/a	COKE	1	1	[0, 0, 0]	n/a	FR1	3	R1377M
216.082	1.6	256721	WORD	n/a	n/a	YARD	2	1	[0, 0, 0]	n/a	FR1	3	R1377M
217.682	0.766	258319	WORD_OFF	n/a	n/a	YARD	2	1	[0, 0, 0]	n/a	FR1	3	R1377M
218.448	1.616	259090	WORD	n/a	n/a	SUN	3	1	[0, 0, 0]	n/a	FR1	3	R1377M
220.064	0.918	260702	WORD_OFF	n/a	n/a	SUN	3	1	[0, 0, 0]	n/a	FR1	3	R1377M
220.982	1.616	261626	WORD	n/a	n/a	PAN	4	1	[0, 0, 0]	n/a	FR1	3	R1377M
222.598	0.867	263238	WORD_OFF	n/a	n/a	PAN	4	1	[0, 0, 0]	n/a	FR1	3	R1377M
223.465	1.6	264106	WORD	n/a	n/a	WORLD	5	1	[0, 0, 0]	n/a	FR1	3	R1377M
225.065	0.933	265704	WORD_OFF	n/a	n/a	WORLD	5	1	[0, 0, 0]	n/a	FR1	3	R1377M
225.998	1.617	266641	WORD	n/a	n/a	GLOBE	6	1	[0, 0, 0]	n/a	FR1	3	R1377M
227.615	0.95	268253	WORD_OFF	n/a	n/a	GLOBE	6	1	[0, 0, 0]	n/a	FR1	3	R1377M
228.565	1.616	269203	WORD	n/a	n/a	LEAF	7	1	[0, 0, 0]	n/a	FR1	3	R1377M
230.181	0.933	270815	WORD_OFF	n/a	n/a	LEAF	7	1	[0, 0, 0]	n/a	FR1	3	R1377M
231.114	1.601	271752	WORD	n/a	n/a	WAND	8	1	[0, 0, 0]	n/a	FR1	3	R1377M
232.715	0.916	273350	WORD_OFF	n/a	n/a	WAND	8	1	[0, 0, 0]	n/a	FR1	3	R1377M
233.631	1.617	274274	WORD	n/a	n/a	WAX	9	1	[0, 0, 0]	n/a	FR1	3	R1377M
235.248	0.833	275886	WORD_OFF	n/a	n/a	WAX	9	1	[0, 0, 0]	n/a	FR1	3	R1377M
236.081	1.6	276726	WORD	n/a	n/a	POND	10	1	[0, 0, 0]	n/a	FR1	3	R1377M
237.681	0.817	278324	WORD_OFF	n/a	n/a	POND	10	1	[0, 0, 0]	n/a	FR1	3	R1377M
238.498	1.601	279137	WORD	n/a	n/a	KNOB	11	1	[0, 0, 0]	n/a	FR1	3	R1377M
240.099	0.782	280735	WORD_OFF	n/a	n/a	KNOB	11	1	[0, 0, 0]	n/a	FR1	3	R1377M
240.881	1.601	281521	WORD	n/a	n/a	TOY	12	1	[0, 0, 0]	n/a	FR1	3	R1377M
242.482	0.0	283118	PROB	0.0	n/a	n/a	-999	1	[1, 7, 6]	14	FR1	3	R1377M
242.482	0.001	283119	WORD_OFF	n/a	n/a	TOY	12	1	[0, 0, 0]	n/a	FR1	3	R1377M
242.483	0.0	283119	ENCODING_END	n/a	n/a	n/a	-999	1	[0, 0, 0]	n/a	FR1	3	R1377M
242.483	0.0	283119	DISTRACT_START	n/a	n/a	n/a	-999	1	[0, 0, 0]	n/a	FR1	3	R1377M
242.483	9.199	283119	START	n/a	n/a	n/a	-999	1	[-999, -999, -999]	n/a	FR1	3	R1377M
251.682	4.317	292318	PROB	4.317	n/a	n/a	-999	1	[8, 3, 2]	13	FR1	3	R1377M
255.999	4.151	296635	PROB	4.151	n/a	n/a	-999	1	[5, 5, 7]	17	FR1	3	R1377M
260.15	2.615	300786	PROB	2.615	n/a	n/a	-999	1	[6, 1, 1]	8	FR1	3	R1377M
262.765	0.0	303400	DISTRACT_END	n/a	n/a	n/a	-999	1	[0, 0, 0]	n/a	FR1	3	R1377M
262.765	1.067	303400	STOP	n/a	n/a	n/a	-999	1	[-999, -999, -999]	n/a	FR1	3	R1377M
263.832	4.497	304474	REC_START	n/a	n/a	n/a	-999	1	[0, 0, 0]	n/a	FR1	3	R1377M
268.329	0.768	308964	REC_WORD	0.768	n/a	COKE	1	1	[0, 0, 0]	n/a	FR1	3	R1377M
269.097	1.447	309732	REC_WORD	1.447	n/a	YARD	2	1	[0, 0, 0]	n/a	FR1	3	R1377M
270.544	1.244	311179	REC_WORD	1.244	n/a	SUN	3	1	[0, 0, 0]	n/a	FR1	3	R1377M
271.788	3.048	312423	REC_WORD	3.048	n/a	PAN	4	1	[0, 0, 0]	n/a	FR1	3	R1377M
274.836	1.204	315471	REC_WORD_VV	1.204	n/a	<>	-999	1	[0, 0, 0]	n/a	FR1	3	R1377M
276.04	3.032	316675	REC_WORD	3.032	n/a	WORLD	5	1	[0, 0, 0]	n/a	FR1	3	R1377M
279.072	15.033	319707	REC_WORD	15.033	n/a	WAND	8	1	[0, 0, 0]	n/a	FR1	3	R1377M
294.105	4.694	334744	REC_END	n/a	n/a	n/a	-999	1	[0, 0, 0]	n/a	FR1	3	R1377M
298.799	10.35	339442	COUNTDOWN_START	n/a	n/a	n/a	-999	2	[0, 0, 0]	n/a	FR1	3	R1377M
309.149	0.0	349789	COUNTDOWN_END	n/a	n/a	n/a	-999	2	[0, 0, 0]	n/a	FR1	3	R1377M
309.149	2.099	349789	ENCODING_START	n/a	n/a	n/a	-999	2	[0, 0, 0]	n/a	FR1	3	R1377M
311.248	1.6	351884	WORD	n/a	n/a	NEST	1	2	[0, 0, 0]	n/a	FR1	3	R1377M
312.848	0.983	353482	WORD_OFF	n/a	n/a	NEST	1	2	[0, 0, 0]	n/a	FR1	3	R1377M
313.831	1.617	354460	WORD	n/a	n/a	CREAM	2	2	[0, 0, 0]	n/a	FR1	3	R1377M
315.448	0.833	356086	WORD_OFF	n/a	n/a	CREAM	2	2	[0, 0, 0]	n/a	FR1	3	R1377M
316.281	1.6	356913	WORD	n/a	n/a	WING	3	2	[0, 0, 0]	n/a	FR1	3	R1377M
317.881	0.934	358511	WORD_OFF	n/a	n/a	WING	3	2	[0, 0, 0]	n/a	FR1	3	R1377M
318.815	1.616	359448	WORD	n/a	n/a	FLAME	4	2	[0, 0, 0]	n/a	FR1	3	R1377M
320.431	0.867	361060	WORD_OFF	n/a	n/a	FLAME	4	2	[0, 0, 0]	n/a	FR1	3	R1377M
321.298	1.616	361928	WORD	n/a	n/a	MEAT	5	2	[0, 0, 0]	n/a	FR1	3	R1377M
322.914	0.967	363553	WORD_OFF	n/a	n/a	MEAT	5	2	[0, 0, 0]	n/a	FR1	3	R1377M
323.881	1.6	364518	WORD	n/a	n/a	FRUIT	6	2	[0, 0, 0]	n/a	FR1	3	R1377M
325.481	0.801	366116	WORD_OFF	n/a	n/a	FRUIT	6	2	[0, 0, 0]	n/a	FR1	3	R1377M
326.282	1.602	366915	WORD	n/a	n/a	THUMB	7	2	[0, 0, 0]	n/a	FR1	3	R1377M
327.884	0.982	368513	WORD_OFF	n/a	n/a	THUMB	7	2	[0, 0, 0]	n/a	FR1	3	R1377M
328.866	1.6	369505	WORD	n/a	n/a	SWORD	8	2	[0, 0, 0]	n/a	FR1	3	R1377M
330.466	0.884	371104	WORD_OFF	n/a	n/a	SWORD	8	2	[0, 0, 0]	n/a	FR1	3	R1377M
331.35	1.615	371985	WORD	n/a	n/a	STAR	9	2	[0, 0, 0]	n/a	FR1	3	R1377M
332.965	0.817	373597	WORD_OFF	n/a	n/a	STAR	9	2	[0, 0, 0]	n/a	FR1	3	R1377M
333.782	1.6	374410	WORD	n/a	n/a	CAVE	10	2	[0, 0, 0]	n/a	FR1	3	R1377M
335.382	0.917	376022	WORD_OFF	n/a	n/a	CAVE	10	2	[0, 0, 0]	n/a	FR1	3	R1377M
336.299	1.6	376932	WORD	n/a	n/a	BUSH	11	2	[0, 0, 0]	n/a	FR1	3	R1377M
337.899	0.816	378530	WORD_OFF	n/a	n/a	BUSH	11	2	[0, 0, 0]	n/a	FR1	3	R1377M
338.715	1.601	379357	WORD	n/a	n/a	TRAIL	12	2	[0, 0, 0]	n/a	FR1	3	R1377M
340.316	0.001	380948	PROB	0.001	n/a	n/a	-999	2	[4, 5, 1]	10	FR1	3	R1377M
340.317	0.0	380949	START	n/a	n/a	n/a	-999	2	[-999, -999, -999]	n/a	FR1	3	R1377M
340.315	0.002	380955	WORD_OFF	n/a	n/a	TRAIL	12	2	[0, 0, 0]	n/a	FR1	3	R1377M
340.317	0.0	380955	ENCODING_END	n/a	n/a	n/a	-999	2	[0, 0, 0]	n/a	FR1	3	R1377M
340.317	6.499	380955	DISTRACT_START	n/a	n/a	n/a	-999	2	[0, 0, 0]	n/a	FR1	3	R1377M
346.816	4.066	387448	PROB	4.066	n/a	n/a	-999	2	[2, 6, 7]	15	FR1	3	R1377M
350.882	6.467	391513	PROB	6.467	n/a	n/a	-999	2	[5, 8, 6]	19	FR1	3	R1377M
357.349	7.7	397980	PROB	7.7	n/a	n/a	-999	2	[7, 4, 3]	14	FR1	3	R1377M
365.049	0.0	405680	STOP	n/a	n/a	n/a	-999	2	[-999, -999, -999]	n/a	FR1	3	R1377M
365.049	1.4	405686	DISTRACT_END	n/a	n/a	n/a	-999	2	[0, 0, 0]	n/a	FR1	3	R1377M
366.449	2.88	407077	REC_START	n/a	n/a	n/a	-999	2	[0, 0, 0]	n/a	FR1	3	R1377M
369.329	0.64	409960	REC_WORD	0.64	n/a	NEST	1	2	[0, 0, 0]	n/a	FR1	3	R1377M
369.969	0.905	410600	REC_WORD	0.905	n/a	SWORD	8	2	[0, 0, 0]	n/a	FR1	3	R1377M
370.874	1.098	411505	REC_WORD	1.098	n/a	STAR	9	2	[0, 0, 0]	n/a	FR1	3	R1377M
371.972	3.466	412602	REC_WORD	3.466	n/a	TRAIL	12	2	[0, 0, 0]	n/a	FR1	3	R1377M
375.438	11.346	416068	REC_WORD_VV	11.346	n/a	<>	-999	2	[0, 0, 0]	n/a	FR1	3	R1377M
386.784	1.058	427414	REC_WORD_VV	1.058	n/a	<>	-999	2	[0, 0, 0]	n/a	FR1	3	R1377M
387.842	8.894	428472	REC_WORD	8.894	n/a	LEAF	-999	2	[0, 0, 0]	n/a	FR1	3	R1377M
396.736	7.762	437361	REC_END	n/a	n/a	n/a	-999	2	[0, 0, 0]	n/a	FR1	3	R1377M
404.498	10.351	445132	COUNTDOWN_START	n/a	n/a	n/a	-999	3	[0, 0, 0]	n/a	FR1	3	R1377M
414.849	0.001	455479	COUNTDOWN_END	n/a	n/a	n/a	-999	3	[0, 0, 0]	n/a	FR1	3	R1377M
414.85	2.149	455479	ENCODING_START	n/a	n/a	n/a	-999	3	[0, 0, 0]	n/a	FR1	3	R1377M
416.999	1.616	457628	WORD	n/a	n/a	HOOF	1	3	[0, 0, 0]	n/a	FR1	3	R1377M
418.615	0.984	459240	WORD_OFF	n/a	n/a	HOOF	1	3	[0, 0, 0]	n/a	FR1	3	R1377M
419.599	1.6	460232	WORD	n/a	n/a	LIP	2	3	[0, 0, 0]	n/a	FR1	3	R1377M
421.199	0.916	461830	WORD_OFF	n/a	n/a	LIP	2	3	[0, 0, 0]	n/a	FR1	3	R1377M
422.115	1.6	462740	WORD	n/a	n/a	POOL	3	3	[0, 0, 0]	n/a	FR1	3	R1377M
423.715	0.984	464352	WORD_OFF	n/a	n/a	POOL	3	3	[0, 0, 0]	n/a	FR1	3	R1377M
424.699	1.616	465330	WORD	n/a	n/a	SHIP	4	3	[0, 0, 0]	n/a	FR1	3	R1377M
426.315	0.967	466942	WORD_OFF	n/a	n/a	SHIP	4	3	[0, 0, 0]	n/a	FR1	3	R1377M
427.282	1.617	467906	WORD	n/a	n/a	PLATE	5	3	[0, 0, 0]	n/a	FR1	3	R1377M
428.899	0.966	469532	WORD_OFF	n/a	n/a	PLATE	5	3	[0, 0, 0]	n/a	FR1	3	R1377M
429.865	1.6	470496	WORD	n/a	n/a	BEAK	6	3	[0, 0, 0]	n/a	FR1	3	R1377M
431.465	0.867	472095	WORD_OFF	n/a	n/a	BEAK	6	3	[0, 0, 0]	n/a	FR1	3	R1377M
432.332	1.617	472963	WORD	n/a	n/a	OIL	7	3	[0, 0, 0]	n/a	FR1	3	R1377M
433.949	0.916	474575	WORD_OFF	n/a	n/a	OIL	7	3	[0, 0, 0]	n/a	FR1	3	R1377M
434.865	1.617	475498	WORD	n/a	n/a	CLOTH	8	3	[0, 0, 0]	n/a	FR1	3	R1377M
436.482	0.95	477110	WORD_OFF	n/a	n/a	CLOTH	8	3	[0, 0, 0]	n/a	FR1	3	R1377M
437.432	1.6	478060	WORD	n/a	n/a	BOWL	9	3	[0, 0, 0]	n/a	FR1	3	R1377M
439.032	0.866	479659	WORD_OFF	n/a	n/a	BOWL	9	3	[0, 0, 0]	n/a	FR1	3	R1377M
439.898	1.601	480527	WORD	n/a	n/a	CAMP	10	3	[0, 0, 0]	n/a	FR1	3	R1377M
441.499	0.783	482125	WORD_OFF	n/a	n/a	CAMP	10	3	[0, 0, 0]	n/a	FR1	3	R1377M
442.282	1.617	482910	WORD	n/a	n/a	RAT	11	3	[0, 0, 0]	n/a	FR1	3	R1377M
443.899	0.833	484522	WORD_OFF	n/a	n/a	RAT	11	3	[0, 0, 0]	n/a	FR1	3	R1377M
444.732	1.601	485363	WORD	n/a	n/a	STEAK	12	3	[0, 0, 0]	n/a	FR1	3	R1377M
446.333	0.0	486960	PROB	0.0	n/a	n/a	-999	3	[6, 3, 4]	13	FR1	3	R1377M
446.332	0.001	486961	WORD_OFF	n/a	n/a	STEAK	12	3	[0, 0, 0]	n/a	FR1	3	R1377M
446.333	0.001	486961	ENCODING_END	n/a	n/a	n/a	-999	3	[0, 0, 0]	n/a	FR1	3	R1377M
446.334	0.0	486961	DISTRACT_START	n/a	n/a	n/a	-999	3	[0, 0, 0]	n/a	FR1	3	R1377M
446.334	4.348	486961	START	n/a	n/a	n/a	-999	3	[-999, -999, -999]	n/a	FR1	3	R1377M
450.682	3.467	491309	PROB	3.467	n/a	n/a	-999	3	[8, 7, 2]	17	FR1	3	R1377M
454.149	3.25	494776	PROB	3.25	n/a	n/a	-999	3	[3, 5, 5]	13	FR1	3	R1377M
457.399	3.432	498026	PROB	3.432	n/a	n/a	-999	3	[5, 6, 3]	14	FR1	3	R1377M
460.831	3.385	501457	PROB	3.385	n/a	n/a	-999	3	[5, 4, 4]	13	FR1	3	R1377M
464.216	5.766	504842	PROB	5.766	n/a	n/a	-999	3	[5, 4, 8]	17	FR1	3	R1377M
469.982	0.0	510604	DISTRACT_END	n/a	n/a	n/a	-999	3	[0, 0, 0]	n/a	FR1	3	R1377M
469.982	1.216	510608	STOP	n/a	n/a	n/a	-999	3	[-999, -999, -999]	n/a	FR1	3	R1377M
471.198	3.779	511830	REC_START	n/a	n/a	n/a	-999	3	[0, 0, 0]	n/a	FR1	3	R1377M
474.977	1.007	515603	REC_WORD	1.007	n/a	HOOF	1	3	[0, 0, 0]	n/a	FR1	3	R1377M
475.984	1.189	516610	REC_WORD	1.189	n/a	LIP	2	3	[0, 0, 0]	n/a	FR1	3	R1377M
477.173	1.219	517799	REC_WORD	1.219	n/a	BEAK	6	3	[0, 0, 0]	n/a	FR1	3	R1377M
478.392	2.139	519018	REC_WORD	2.139	n/a	OIL	7	3	[0, 0, 0]	n/a	FR1	3	R1377M
480.531	3.178	521157	REC_WORD	3.178	n/a	CAMP	10	3	[0, 0, 0]	n/a	FR1	3	R1377M
483.709	3.448	524334	REC_WORD	3.448	n/a	RAMP	-999	3	[0, 0, 0]	n/a	FR1	3	R1377M
487.157	14.307	527782	REC_WORD	14.307	n/a	STEAK	12	3	[0, 0, 0]	n/a	FR1	3	R1377M
501.464	39.302	542086	REC_END	n/a	n/a	n/a	-999	3	[0, 0, 0]	n/a	FR1	3	R1377M
540.766	10.35	581394	COUNTDOWN_START	n/a	n/a	n/a	-999	4	[0, 0, 0]	n/a	FR1	3	R1377M
551.116	0.0	591741	COUNTDOWN_END	n/a	n/a	n/a	-999	4	[0, 0, 0]	n/a	FR1	3	R1377M
551.116	1.849	591741	ENCODING_START	n/a	n/a	n/a	-999	4	[0, 0, 0]	n/a	FR1	3	R1377M
552.965	1.6	593587	WORD	n/a	n/a	BADGE	1	4	[0, 0, 0]	n/a	FR1	3	R1377M
554.565	0.917	595185	WORD_OFF	n/a	n/a	BADGE	1	4	[0, 0, 0]	n/a	FR1	3	R1377M
555.482	1.616	596108	WORD	n/a	n/a	FENCE	2	4	[0, 0, 0]	n/a	FR1	3	R1377M
557.098	0.934	597720	WORD_OFF	n/a	n/a	FENCE	2	4	[0, 0, 0]	n/a	FR1	3	R1377M
558.032	1.6	598657	WORD	n/a	n/a	COAL	3	4	[0, 0, 0]	n/a	FR1	3	R1377M
559.632	0.766	600255	WORD_OFF	n/a	n/a	COAL	3	4	[0, 0, 0]	n/a	FR1	3	R1377M
560.398	1.616	601027	WORD	n/a	n/a	CLOCK	4	4	[0, 0, 0]	n/a	FR1	3	R1377M
562.014	0.867	602639	WORD_OFF	n/a	n/a	CLOCK	4	4	[0, 0, 0]	n/a	FR1	3	R1377M
562.881	1.6	603507	WORD	n/a	n/a	BEAN	5	4	[0, 0, 0]	n/a	FR1	3	R1377M
564.481	0.8	605105	WORD_OFF	n/a	n/a	BEAN	5	4	[0, 0, 0]	n/a	FR1	3	R1377M
565.281	1.617	605904	WORD	n/a	n/a	GUN	6	4	[0, 0, 0]	n/a	FR1	3	R1377M
566.898	0.867	607516	WORD_OFF	n/a	n/a	GUN	6	4	[0, 0, 0]	n/a	FR1	3	R1377M
567.765	1.616	608384	WORD	n/a	n/a	WOLF	7	4	[0, 0, 0]	n/a	FR1	3	R1377M
569.381	0.867	610010	WORD_OFF	n/a	n/a	WOLF	7	4	[0, 0, 0]	n/a	FR1	3	R1377M
570.248	1.616	610864	WORD	n/a	n/a	MUD	8	4	[0, 0, 0]	n/a	FR1	3	R1377M
571.864	0.817	612490	WORD_OFF	n/a	n/a	MUD	8	4	[0, 0, 0]	n/a	FR1	3	R1377M
572.681	1.6	613303	WORD	n/a	n/a	TOOL	9	4	[0, 0, 0]	n/a	FR1	3	R1377M
574.281	0.817	614901	WORD_OFF	n/a	n/a	TOOL	9	4	[0, 0, 0]	n/a	FR1	3	R1377M
575.098	1.6	615714	WORD	n/a	n/a	HAIR	10	4	[0, 0, 0]	n/a	FR1	3	R1377M
576.698	0.918	617326	WORD_OFF	n/a	n/a	HAIR	10	4	[0, 0, 0]	n/a	FR1	3	R1377M
577.616	1.616	618235	WORD	n/a	n/a	SAIL	11	4	[0, 0, 0]	n/a	FR1	3	R1377M
579.232	0.833	619847	WORD_OFF	n/a	n/a	SAIL	11	4	[0, 0, 0]	n/a	FR1	3	R1377M
580.065	1.601	620688	WORD	n/a	n/a	CRANE	12	4	[0, 0, 0]	n/a	FR1	3	R1377M
581.666	0.001	622286	WORD_OFF	n/a	n/a	CRANE	12	4	[0, 0, 0]	n/a	FR1	3	R1377M
581.667	0.0	622286	ENCODING_END	n/a	n/a	n/a	-999	4	[0, 0, 0]	n/a	FR1	3	R1377M
581.667	0.0	622286	DISTRACT_START	n/a	n/a	n/a	-999	4	[0, 0, 0]	n/a	FR1	3	R1377M
581.666	0.001	622287	PROB	0.001	n/a	n/a	-999	4	[1, 5, 7]	13	FR1	3	R1377M
581.667	6.682	622288	START	n/a	n/a	n/a	-999	4	[-999, -999, -999]	n/a	FR1	3	R1377M
588.349	3.183	628970	PROB	3.183	n/a	n/a	-999	4	[1, 5, 6]	12	FR1	3	R1377M
591.532	4.517	632152	PROB	4.517	n/a	n/a	-999	4	[7, 8, 3]	18	FR1	3	R1377M
596.049	5.317	636669	PROB	5.317	n/a	n/a	-999	4	[5, 1, 2]	8	FR1	3	R1377M
601.366	4.033	641986	PROB	4.033	n/a	n/a	-999	4	[6, 4, 6]	16	FR1	3	R1377M
605.399	0.0	646019	STOP	n/a	n/a	n/a	-999	4	[-999, -999, -999]	n/a	FR1	3	R1377M
605.399	1.083	646025	DISTRACT_END	n/a	n/a	n/a	-999	4	[0, 0, 0]	n/a	FR1	3	R1377M
606.482	2.333	647100	REC_START	n/a	n/a	n/a	-999	4	[0, 0, 0]	n/a	FR1	3	R1377M
608.815	0.607	649435	REC_WORD	0.607	n/a	BADGE	1	4	[0, 0, 0]	n/a	FR1	3	R1377M
609.422	0.715	650042	REC_WORD	0.715	n/a	FENCE	2	4	[0, 0, 0]	n/a	FR1	3	R1377M
610.137	1.131	650757	REC_WORD	1.131	n/a	COAL	3	4	[0, 0, 0]	n/a	FR1	3	R1377M
611.268	0.794	651888	REC_WORD	0.794	n/a	CLOCK	4	4	[0, 0, 0]	n/a	FR1	3	R1377M
612.062	24.718	652682	REC_WORD	24.718	n/a	SAIL	11	4	[0, 0, 0]	n/a	FR1	3	R1377M
636.78	8.752	677397	REC_END	n/a	n/a	n/a	-999	4	[0, 0, 0]	n/a	FR1	3	R1377M
645.532	10.35	686146	COUNTDOWN_START	n/a	n/a	n/a	-999	5	[0, 0, 0]	n/a	FR1	3	R1377M
655.882	0.0	696507	COUNTDOWN_END	n/a	n/a	n/a	-999	5	[0, 0, 0]	n/a	FR1	3	R1377M
655.882	2.049	696507	ENCODING_START	n/a	n/a	n/a	-999	5	[0, 0, 0]	n/a	FR1	3	R1377M
657.931	1.601	698546	WORD	n/a	n/a	PRINCE	1	5	[0, 0, 0]	n/a	FR1	3	R1377M
659.532	0.816	700144	WORD_OFF	n/a	n/a	PRINCE	1	5	[0, 0, 0]	n/a	FR1	3	R1377M
660.348	1.6	700971	WORD	n/a	n/a	SNAIL	2	5	[0, 0, 0]	n/a	FR1	3	R1377M
661.948	0.834	702569	WORD_OFF	n/a	n/a	SNAIL	2	5	[0, 0, 0]	n/a	FR1	3	R1377M
662.782	1.6	703396	WORD	n/a	n/a	HOLE	3	5	[0, 0, 0]	n/a	FR1	3	R1377M
664.382	0.834	704994	WORD_OFF	n/a	n/a	HOLE	3	5	[0, 0, 0]	n/a	FR1	3	R1377M
665.216	1.616	705834	WORD	n/a	n/a	ROPE	4	5	[0, 0, 0]	n/a	FR1	3	R1377M
666.832	1.001	707446	WORD_OFF	n/a	n/a	ROPE	4	5	[0, 0, 0]	n/a	FR1	3	R1377M
667.833	1.615	708452	WORD	n/a	n/a	NAIL	5	5	[0, 0, 0]	n/a	FR1	3	R1377M
669.448	0.784	710064	WORD_OFF	n/a	n/a	NAIL	5	5	[0, 0, 0]	n/a	FR1	3	R1377M
670.232	1.617	710850	WORD	n/a	n/a	ELF	6	5	[0, 0, 0]	n/a	FR1	3	R1377M
671.849	0.85	712462	WORD_OFF	n/a	n/a	ELF	6	5	[0, 0, 0]	n/a	FR1	3	R1377M
672.699	1.6	713316	WORD	n/a	n/a	LAWN	7	5	[0, 0, 0]	n/a	FR1	3	R1377M
674.299	0.783	714914	WORD_OFF	n/a	n/a	LAWN	7	5	[0, 0, 0]	n/a	FR1	3	R1377M
675.082	1.617	715699	WORD	n/a	n/a	MULE	8	5	[0, 0, 0]	n/a	FR1	3	R1377M
676.699	0.766	717311	WORD_OFF	n/a	n/a	MULE	8	5	[0, 0, 0]	n/a	FR1	3	R1377M
677.465	1.6	718083	WORD	n/a	n/a	TIE	9	5	[0, 0, 0]	n/a	FR1	3	R1377M
679.065	0.783	719681	WORD_OFF	n/a	n/a	TIE	9	5	[0, 0, 0]	n/a	FR1	3	R1377M
679.848	1.601	720466	WORD	n/a	n/a	MAZE	10	5	[0, 0, 0]	n/a	FR1	3	R1377M
681.449	0.8	722065	WORD_OFF	n/a	n/a	MAZE	10	5	[0, 0, 0]	n/a	FR1	3	R1377M
682.249	1.6	722864	WORD	n/a	n/a	SKI	11	5	[0, 0, 0]	n/a	FR1	3	R1377M
683.849	0.916	724462	WORD_OFF	n/a	n/a	SKI	11	5	[0, 0, 0]	n/a	FR1	3	R1377M
684.765	1.617	725385	WORD	n/a	n/a	STREET	12	5	[0, 0, 0]	n/a	FR1	3	R1377M
686.382	0.001	726997	WORD_OFF	n/a	n/a	STREET	12	5	[0, 0, 0]	n/a	FR1	3	R1377M
686.383	0.0	726997	ENCODING_END	n/a	n/a	n/a	-999	5	[0, 0, 0]	n/a	FR1	3	R1377M
686.383	0.0	726997	DISTRACT_START	n/a	n/a	n/a	-999	5	[0, 0, 0]	n/a	FR1	3	R1377M
686.383	0.0	726999	START	n/a	n/a	n/a	-999	5	[-999, -999, -999]	n/a	FR1	3	R1377M
686.383	5.95	726999	PROB	5.95	n/a	n/a	-999	5	[2, 7, 3]	12	FR1	3	R1377M
692.333	3.949	732949	PROB	3.949	n/a	n/a	-999	5	[1, 2, 3]	6	FR1	3	R1377M
696.282	7.15	736898	PROB	7.15	n/a	n/a	-999	5	[5, 2, 1]	8	FR1	3	R1377M
703.432	2.816	744047	PROB	2.816	n/a	n/a	-999	5	[2, 6, 1]	9	FR1	3	R1377M
706.248	3.751	746863	PROB	3.751	n/a	n/a	-999	5	[4, 4, 2]	10	FR1	3	R1377M
709.999	0.0	750612	DISTRACT_END	n/a	n/a	n/a	-999	5	[0, 0, 0]	n/a	FR1	3	R1377M
709.999	1.383	750614	STOP	n/a	n/a	n/a	-999	5	[-999, -999, -999]	n/a	FR1	3	R1377M
711.382	3.077	752004	REC_START	n/a	n/a	n/a	-999	5	[0, 0, 0]	n/a	FR1	3	R1377M
714.459	0.95	755074	REC_WORD	0.95	n/a	PRINCE	1	5	[0, 0, 0]	n/a	FR1	3	R1377M
715.409	0.99	756024	REC_WORD	0.99	n/a	SNAIL	2	5	[0, 0, 0]	n/a	FR1	3	R1377M
716.399	1.141	757014	REC_WORD	1.141	n/a	HOLE	3	5	[0, 0, 0]	n/a	FR1	3	R1377M
717.54	3.026	758155	REC_WORD	3.026	n/a	ROPE	4	5	[0, 0, 0]	n/a	FR1	3	R1377M
720.566	1.887	761181	REC_WORD	1.887	n/a	NAIL	5	5	[0, 0, 0]	n/a	FR1	3	R1377M
722.453	1.934	763067	REC_WORD	1.934	n/a	MAZE	10	5	[0, 0, 0]	n/a	FR1	3	R1377M
724.387	3.808	765001	REC_WORD	3.808	n/a	LAWN	7	5	[0, 0, 0]	n/a	FR1	3	R1377M
728.195	13.476	768809	REC_WORD	13.476	n/a	SKI	11	5	[0, 0, 0]	n/a	FR1	3	R1377M
741.671	10.127	782287	REC_END	n/a	n/a	n/a	-999	5	[0, 0, 0]	n/a	FR1	3	R1377M
751.798	10.351	792414	COUNTDOWN_START	n/a	n/a	n/a	-999	6	[0, 0, 0]	n/a	FR1	3	R1377M
762.149	0.0	802761	COUNTDOWN_END	n/a	n/a	n/a	-999	6	[0, 0, 0]	n/a	FR1	3	R1377M
762.149	2.25	802761	ENCODING_START	n/a	n/a	n/a	-999	6	[0, 0, 0]	n/a	FR1	3	R1377M
764.399	1.6	805007	WORD	n/a	n/a	HAT	1	6	[0, 0, 0]	n/a	FR1	3	R1377M
765.999	0.933	806619	WORD_OFF	n/a	n/a	HAT	1	6	[0, 0, 0]	n/a	FR1	3	R1377M
766.932	1.6	807542	WORD	n/a	n/a	CURB	2	6	[0, 0, 0]	n/a	FR1	3	R1377M
768.532	1.0	809140	WORD_OFF	n/a	n/a	CURB	2	6	[0, 0, 0]	n/a	FR1	3	R1377M
769.532	1.6	810146	WORD	n/a	n/a	VINE	3	6	[0, 0, 0]	n/a	FR1	3	R1377M
771.132	0.8	811744	WORD_OFF	n/a	n/a	VINE	3	6	[0, 0, 0]	n/a	FR1	3	R1377M
771.932	1.6	812543	WORD	n/a	n/a	TOAD	4	6	[0, 0, 0]	n/a	FR1	3	R1377M
773.532	0.968	814141	WORD_OFF	n/a	n/a	TOAD	4	6	[0, 0, 0]	n/a	FR1	3	R1377M
774.5	1.599	815120	WORD	n/a	n/a	CLAY	5	6	[0, 0, 0]	n/a	FR1	3	R1377M
776.099	0.916	816718	WORD_OFF	n/a	n/a	CLAY	5	6	[0, 0, 0]	n/a	FR1	3	R1377M
777.015	1.6	817627	WORD	n/a	n/a	COURT	6	6	[0, 0, 0]	n/a	FR1	3	R1377M
778.615	0.784	819225	WORD_OFF	n/a	n/a	COURT	6	6	[0, 0, 0]	n/a	FR1	3	R1377M
779.399	1.6	820011	WORD	n/a	n/a	SHED	7	6	[0, 0, 0]	n/a	FR1	3	R1377M
780.999	0.982	821609	WORD_OFF	n/a	n/a	SHED	7	6	[0, 0, 0]	n/a	FR1	3	R1377M
781.981	1.601	822601	WORD	n/a	n/a	LAND	8	6	[0, 0, 0]	n/a	FR1	3	R1377M
783.582	0.999	824199	WORD_OFF	n/a	n/a	LAND	8	6	[0, 0, 0]	n/a	FR1	3	R1377M
784.581	1.601	825191	WORD	n/a	n/a	MEAL	9	6	[0, 0, 0]	n/a	FR1	3	R1377M
786.182	0.867	826789	WORD_OFF	n/a	n/a	MEAL	9	6	[0, 0, 0]	n/a	FR1	3	R1377M
787.049	1.617	827657	WORD	n/a	n/a	STOOL	10	6	[0, 0, 0]	n/a	FR1	3	R1377M
788.666	0.766	829283	WORD_OFF	n/a	n/a	STOOL	10	6	[0, 0, 0]	n/a	FR1	3	R1377M
789.432	1.6	830041	WORD	n/a	n/a	MOUSE	11	6	[0, 0, 0]	n/a	FR1	3	R1377M
791.032	0.766	831639	WORD_OFF	n/a	n/a	MOUSE	11	6	[0, 0, 0]	n/a	FR1	3	R1377M
791.798	1.601	832411	WORD	n/a	n/a	SOCK	12	6	[0, 0, 0]	n/a	FR1	3	R1377M
793.399	0.001	834009	WORD_OFF	n/a	n/a	SOCK	12	6	[0, 0, 0]	n/a	FR1	3	R1377M
793.4	0.0	834009	ENCODING_END	n/a	n/a	n/a	-999	6	[0, 0, 0]	n/a	FR1	3	R1377M
793.4	0.0	834009	DISTRACT_START	n/a	n/a	n/a	-999	6	[0, 0, 0]	n/a	FR1	3	R1377M
793.399	0.001	834010	PROB	0.001	n/a	n/a	-999	6	[5, 3, 7]	15	FR1	3	R1377M
793.4	4.398	834011	START	n/a	n/a	n/a	-999	6	[-999, -999, -999]	n/a	FR1	3	R1377M
797.798	3.084	838409	PROB	3.084	n/a	n/a	-999	6	[4, 1, 2]	7	FR1	3	R1377M
800.882	2.867	841493	PROB	2.867	n/a	n/a	-999	6	[3, 1, 2]	6	FR1	3	R1377M
803.749	4.234	844360	PROB	4.234	n/a	n/a	-999	6	[6, 3, 5]	14	FR1	3	R1377M
807.983	3.866	848594	PROB	3.866	n/a	n/a	-999	6	[5, 8, 7]	20	FR1	3	R1377M
811.849	3.699	852459	PROB	3.699	n/a	n/a	-999	6	[4, 2, 8]	14	FR1	3	R1377M
815.548	0.0	856158	STOP	n/a	n/a	n/a	-999	6	[-999, -999, -999]	n/a	FR1	3	R1377M
815.548	1.283	856164	DISTRACT_END	n/a	n/a	n/a	-999	6	[0, 0, 0]	n/a	FR1	3	R1377M
816.831	4.572	857445	REC_START	n/a	n/a	n/a	-999	6	[0, 0, 0]	n/a	FR1	3	R1377M
821.403	0.365	862013	REC_WORD	0.365	n/a	HAT	1	6	[0, 0, 0]	n/a	FR1	3	R1377M
821.768	0.638	862378	REC_WORD	0.638	n/a	CURB	2	6	[0, 0, 0]	n/a	FR1	3	R1377M
822.406	0.645	863016	REC_WORD	0.645	n/a	VINE	3	6	[0, 0, 0]	n/a	FR1	3	R1377M
823.051	1.229	863661	REC_WORD	1.229	n/a	TOAD	4	6	[0, 0, 0]	n/a	FR1	3	R1377M
824.28	0.67	864890	REC_WORD	0.67	n/a	CLAY	5	6	[0, 0, 0]	n/a	FR1	3	R1377M
824.95	2.609	865560	REC_WORD	2.609	n/a	COURT	6	6	[0, 0, 0]	n/a	FR1	3	R1377M
827.559	19.539	868169	REC_WORD	19.539	n/a	SHED	7	6	[0, 0, 0]	n/a	FR1	3	R1377M
847.098	7.917	887701	REC_END	n/a	n/a	n/a	-999	6	[0, 0, 0]	n/a	FR1	3	R1377M
855.015	10.351	895623	COUNTDOWN_START	n/a	n/a	n/a	-999	7	[0, 0, 0]	n/a	FR1	3	R1377M
865.366	0.0	905970	COUNTDOWN_END	n/a	n/a	n/a	-999	7	[0, 0, 0]	n/a	FR1	3	R1377M
865.366	2.199	905970	ENCODING_START	n/a	n/a	n/a	-999	7	[0, 0, 0]	n/a	FR1	3	R1377M
867.565	1.6	908175	WORD	n/a	n/a	NECK	1	7	[0, 0, 0]	n/a	FR1	3	R1377M
869.165	0.867	909773	WORD_OFF	n/a	n/a	NECK	1	7	[0, 0, 0]	n/a	FR1	3	R1377M
870.032	1.617	910641	WORD	n/a	n/a	TENT	2	7	[0, 0, 0]	n/a	FR1	3	R1377M
871.649	0.8	912253	WORD_OFF	n/a	n/a	TENT	2	7	[0, 0, 0]	n/a	FR1	3	R1377M
872.449	1.6	913052	WORD	n/a	n/a	HILL	3	7	[0, 0, 0]	n/a	FR1	3	R1377M
874.049	0.766	914664	WORD_OFF	n/a	n/a	HILL	3	7	[0, 0, 0]	n/a	FR1	3	R1377M
874.815	1.6	915422	WORD	n/a	n/a	EGG	4	7	[0, 0, 0]	n/a	FR1	3	R1377M
876.415	0.917	917020	WORD_OFF	n/a	n/a	EGG	4	7	[0, 0, 0]	n/a	FR1	3	R1377M
877.332	1.617	917943	WORD	n/a	n/a	DIME	5	7	[0, 0, 0]	n/a	FR1	3	R1377M
878.949	0.883	919555	WORD_OFF	n/a	n/a	DIME	5	7	[0, 0, 0]	n/a	FR1	3	R1377M
879.832	1.6	920437	WORD	n/a	n/a	SHELL	6	7	[0, 0, 0]	n/a	FR1	3	R1377M
881.432	0.916	922035	WORD_OFF	n/a	n/a	SHELL	6	7	[0, 0, 0]	n/a	FR1	3	R1377M
882.348	1.6	922958	WORD	n/a	n/a	PILL	7	7	[0, 0, 0]	n/a	FR1	3	R1377M
883.948	0.851	924556	WORD_OFF	n/a	n/a	PILL	7	7	[0, 0, 0]	n/a	FR1	3	R1377M
884.799	1.6	925411	WORD	n/a	n/a	MEN	8	7	[0, 0, 0]	n/a	FR1	3	R1377M
886.399	0.799	927009	WORD_OFF	n/a	n/a	MEN	8	7	[0, 0, 0]	n/a	FR1	3	R1377M
887.198	1.6	927808	WORD	n/a	n/a	THORN	9	7	[0, 0, 0]	n/a	FR1	3	R1377M
888.798	0.95	929406	WORD_OFF	n/a	n/a	THORN	9	7	[0, 0, 0]	n/a	FR1	3	R1377M
889.748	1.6	930357	WORD	n/a	n/a	CLOWN	10	7	[0, 0, 0]	n/a	FR1	3	R1377M
891.348	0.901	931955	WORD_OFF	n/a	n/a	CLOWN	10	7	[0, 0, 0]	n/a	FR1	3	R1377M
892.249	1.599	932851	WORD	n/a	n/a	HEART	11	7	[0, 0, 0]	n/a	FR1	3	R1377M
893.848	0.85	934463	WORD_OFF	n/a	n/a	HEART	11	7	[0, 0, 0]	n/a	FR1	3	R1377M
894.698	1.617	935303	WORD	n/a	n/a	MOON	12	7	[0, 0, 0]	n/a	FR1	3	R1377M
896.315	0.001	936922	PROB	0.001	n/a	n/a	-999	7	[4, 2, 8]	14	FR1	3	R1377M
896.316	0.0	936923	START	n/a	n/a	n/a	-999	7	[-999, -999, -999]	n/a	FR1	3	R1377M
896.315	0.001	936929	WORD_OFF	n/a	n/a	MOON	12	7	[0, 0, 0]	n/a	FR1	3	R1377M
896.316	0.0	936929	ENCODING_END	n/a	n/a	n/a	-999	7	[0, 0, 0]	n/a	FR1	3	R1377M
896.316	7.799	936929	DISTRACT_START	n/a	n/a	n/a	-999	7	[0, 0, 0]	n/a	FR1	3	R1377M
904.115	3.033	944721	PROB	3.033	n/a	n/a	-999	7	[3, 1, 3]	7	FR1	3	R1377M
907.148	3.234	947754	PROB	3.234	n/a	n/a	-999	7	[2, 3, 7]	12	FR1	3	R1377M
910.382	5.568	950988	PROB	5.568	n/a	n/a	-999	7	[6, 4, 8]	18	FR1	3	R1377M
915.95	2.881	956556	PROB	2.881	n/a	n/a	-999	7	[2, 1, 3]	6	FR1	3	R1377M
918.831	0.0	959436	STOP	n/a	n/a	n/a	-999	7	[-999, -999, -999]	n/a	FR1	3	R1377M
918.831	1.118	959442	DISTRACT_END	n/a	n/a	n/a	-999	7	[0, 0, 0]	n/a	FR1	3	R1377M
919.949	0.697	960558	REC_START	n/a	n/a	n/a	-999	7	[0, 0, 0]	n/a	FR1	3	R1377M
920.646	1.808	961251	REC_WORD_VV	1.808	n/a	<>	-999	7	[0, 0, 0]	n/a	FR1	3	R1377M
922.454	0.985	963059	REC_WORD	0.985	n/a	NECK	1	7	[0, 0, 0]	n/a	FR1	3	R1377M
923.439	0.843	964044	REC_WORD	0.843	n/a	TENT	2	7	[0, 0, 0]	n/a	FR1	3	R1377M
924.282	0.465	964887	REC_WORD	0.465	n/a	HILL	3	7	[0, 0, 0]	n/a	FR1	3	R1377M
924.747	1.505	965352	REC_WORD	1.505	n/a	EGG	4	7	[0, 0, 0]	n/a	FR1	3	R1377M
926.252	0.689	966857	REC_WORD	0.689	n/a	MEN	8	7	[0, 0, 0]	n/a	FR1	3	R1377M
926.941	3.848	967546	REC_WORD	3.848	n/a	THORN	9	7	[0, 0, 0]	n/a	FR1	3	R1377M
930.789	19.434	971394	REC_WORD	19.434	n/a	VINE	-999	7	[0, 0, 0]	n/a	FR1	3	R1377M
950.223	5.126	990828	REC_END	n/a	n/a	n/a	-999	7	[0, 0, 0]	n/a	FR1	3	R1377M
955.349	10.35	995953	COUNTDOWN_START	n/a	n/a	n/a	-999	8	[0, 0, 0]	n/a	FR1	3	R1377M
965.699	0.0	1006300	COUNTDOWN_END	n/a	n/a	n/a	-999	8	[0, 0, 0]	n/a	FR1	3	R1377M
965.699	2.033	1006300	ENCODING_START	n/a	n/a	n/a	-999	8	[0, 0, 0]	n/a	FR1	3	R1377M
967.732	1.616	1008339	WORD	n/a	n/a	MOSS	1	8	[0, 0, 0]	n/a	FR1	3	R1377M
969.348	0.884	1009951	WORD_OFF	n/a	n/a	MOSS	1	8	[0, 0, 0]	n/a	FR1	3	R1377M
970.232	1.616	1010833	WORD	n/a	n/a	OAR	2	8	[0, 0, 0]	n/a	FR1	3	R1377M
971.848	0.884	1012459	WORD_OFF	n/a	n/a	OAR	2	8	[0, 0, 0]	n/a	FR1	3	R1377M
972.732	1.6	1013340	WORD	n/a	n/a	JAW	3	8	[0, 0, 0]	n/a	FR1	3	R1377M
974.332	0.85	1014939	WORD_OFF	n/a	n/a	JAW	3	8	[0, 0, 0]	n/a	FR1	3	R1377M
975.182	1.6	1015779	WORD	n/a	n/a	JAIL	4	8	[0, 0, 0]	n/a	FR1	3	R1377M
976.782	0.799	1017391	WORD_OFF	n/a	n/a	JAIL	4	8	[0, 0, 0]	n/a	FR1	3	R1377M
977.581	1.601	1018190	WORD	n/a	n/a	SKIN	5	8	[0, 0, 0]	n/a	FR1	3	R1377M
979.182	0.799	1019788	WORD_OFF	n/a	n/a	SKIN	5	8	[0, 0, 0]	n/a	FR1	3	R1377M
979.981	1.6	1020588	WORD	n/a	n/a	SLUSH	6	8	[0, 0, 0]	n/a	FR1	3	R1377M
981.581	0.9	1022186	WORD_OFF	n/a	n/a	SLUSH	6	8	[0, 0, 0]	n/a	FR1	3	R1377M
982.481	1.601	1023081	WORD	n/a	n/a	SOIL	7	8	[0, 0, 0]	n/a	FR1	3	R1377M
984.082	0.883	1024679	WORD_OFF	n/a	n/a	SOIL	7	8	[0, 0, 0]	n/a	FR1	3	R1377M
984.965	1.6	1025575	WORD	n/a	n/a	FUR	8	8	[0, 0, 0]	n/a	FR1	3	R1377M
986.565	0.766	1027173	WORD_OFF	n/a	n/a	FUR	8	8	[0, 0, 0]	n/a	FR1	3	R1377M
987.331	1.617	1027931	WORD	n/a	n/a	ROAD	9	8	[0, 0, 0]	n/a	FR1	3	R1377M
988.948	0.933	1029557	WORD_OFF	n/a	n/a	ROAD	9	8	[0, 0, 0]	n/a	FR1	3	R1377M
989.881	1.6	1030480	WORD	n/a	n/a	DOCK	10	8	[0, 0, 0]	n/a	FR1	3	R1377M
991.481	0.883	1032078	WORD_OFF	n/a	n/a	DOCK	10	8	[0, 0, 0]	n/a	FR1	3	R1377M
992.364	1.6	1032974	WORD	n/a	n/a	ZOO	11	8	[0, 0, 0]	n/a	FR1	3	R1377M
993.964	0.901	1034572	WORD_OFF	n/a	n/a	ZOO	11	8	[0, 0, 0]	n/a	FR1	3	R1377M
994.865	1.6	1035467	WORD	n/a	n/a	STEEL	12	8	[0, 0, 0]	n/a	FR1	3	R1377M
996.465	0.001	1037066	WORD_OFF	n/a	n/a	STEEL	12	8	[0, 0, 0]	n/a	FR1	3	R1377M
996.466	0.001	1037066	ENCODING_END	n/a	n/a	n/a	-999	8	[0, 0, 0]	n/a	FR1	3	R1377M
996.467	0.0	1037066	DISTRACT_START	n/a	n/a	n/a	-999	8	[0, 0, 0]	n/a	FR1	3	R1377M
996.465	0.002	1037067	PROB	0.002	n/a	n/a	-999	8	[3, 1, 2]	6	FR1	3	R1377M
996.467	6.75	1037069	START	n/a	n/a	n/a	-999	8	[-999, -999, -999]	n/a	FR1	3	R1377M
1003.217	2.982	1043819	PROB	2.982	n/a	n/a	-999	8	[1, 4, 3]	8	FR1	3	R1377M
1006.199	3.217	1046801	PROB	3.217	n/a	n/a	-999	8	[8, 2, 7]	17	FR1	3	R1377M
1009.416	3.249	1050017	PROB	3.249	n/a	n/a	-999	8	[4, 6, 4]	14	FR1	3	R1377M
1012.665	4.034	1053266	PROB	4.034	n/a	n/a	-999	8	[7, 8, 4]	19	FR1	3	R1377M
1016.699	0.0	1057300	STOP	n/a	n/a	n/a	-999	8	[-999, -999, -999]	n/a	FR1	3	R1377M
1016.699	1.35	1057305	DISTRACT_END	n/a	n/a	n/a	-999	8	[0, 0, 0]	n/a	FR1	3	R1377M
1018.049	2.94	1058655	REC_START	n/a	n/a	n/a	-999	8	[0, 0, 0]	n/a	FR1	3	R1377M
1020.989	0.839	1061590	REC_WORD	0.839	n/a	MOSS	1	8	[0, 0, 0]	n/a	FR1	3	R1377M
1021.828	0.96	1062429	REC_WORD	0.96	n/a	OAR	2	8	[0, 0, 0]	n/a	FR1	3	R1377M
1022.788	1.121	1063389	REC_WORD	1.121	n/a	JAIL	4	8	[0, 0, 0]	n/a	FR1	3	R1377M
1023.909	1.132	1064510	REC_WORD	1.132	n/a	SLUSH	6	8	[0, 0, 0]	n/a	FR1	3	R1377M
1025.041	2.458	1065642	REC_WORD	2.458	n/a	SOIL	7	8	[0, 0, 0]	n/a	FR1	3	R1377M
1027.499	11.638	1068100	REC_WORD	11.638	n/a	FUR	8	8	[0, 0, 0]	n/a	FR1	3	R1377M
1039.137	9.201	1079737	REC_WORD_VV	9.201	n/a	<>	-999	8	[0, 0, 0]	n/a	FR1	3	R1377M
1048.338	3.393	1088939	REC_END	n/a	n/a	n/a	-999	8	[0, 0, 0]	n/a	FR1	3	R1377M
1051.731	10.351	1092328	COUNTDOWN_START	n/a	n/a	n/a	-999	9	[0, 0, 0]	n/a	FR1	3	R1377M
1062.082	0.0	1102675	COUNTDOWN_END	n/a	n/a	n/a	-999	9	[0, 0, 0]	n/a	FR1	3	R1377M
1062.082	1.932	1102689	ENCODING_START	n/a	n/a	n/a	-999	9	[0, 0, 0]	n/a	FR1	3	R1377M
1064.014	1.601	1104618	WORD	n/a	n/a	CUP	1	9	[0, 0, 0]	n/a	FR1	3	R1377M
1065.615	0.9	1106216	WORD_OFF	n/a	n/a	CUP	1	9	[0, 0, 0]	n/a	FR1	3	R1377M
1066.515	1.6	1107112	WORD	n/a	n/a	STAIR	2	9	[0, 0, 0]	n/a	FR1	3	R1377M
1068.115	0.767	1108710	WORD_OFF	n/a	n/a	STAIR	2	9	[0, 0, 0]	n/a	FR1	3	R1377M
1068.882	1.6	1109482	WORD	n/a	n/a	SOAP	3	9	[0, 0, 0]	n/a	FR1	3	R1377M
1070.482	0.967	1111080	WORD_OFF	n/a	n/a	SOAP	3	9	[0, 0, 0]	n/a	FR1	3	R1377M
1071.449	1.6	1112044	WORD	n/a	n/a	PEARL	4	9	[0, 0, 0]	n/a	FR1	3	R1377M
1073.049	0.883	1113643	WORD_OFF	n/a	n/a	PEARL	4	9	[0, 0, 0]	n/a	FR1	3	R1377M
1073.932	1.617	1114538	WORD	n/a	n/a	CHEEK	5	9	[0, 0, 0]	n/a	FR1	3	R1377M
1075.549	0.866	1116150	WORD_OFF	n/a	n/a	CHEEK	5	9	[0, 0, 0]	n/a	FR1	3	R1377M
1076.415	1.616	1117018	WORD	n/a	n/a	SKY	6	9	[0, 0, 0]	n/a	FR1	3	R1377M
1078.031	0.917	1118630	WORD_OFF	n/a	n/a	SKY	6	9	[0, 0, 0]	n/a	FR1	3	R1377M
1078.948	1.601	1119553	WORD	n/a	n/a	BREAST	7	9	[0, 0, 0]	n/a	FR1	3	R1377M
1080.549	0.932	1121151	WORD_OFF	n/a	n/a	BREAST	7	9	[0, 0, 0]	n/a	FR1	3	R1377M
1081.481	1.601	1122075	WORD	n/a	n/a	SHORE	8	9	[0, 0, 0]	n/a	FR1	3	R1377M
1083.082	0.816	1123687	WORD_OFF	n/a	n/a	SHORE	8	9	[0, 0, 0]	n/a	FR1	3	R1377M
1083.898	1.617	1124499	WORD	n/a	n/a	LANE	9	9	[0, 0, 0]	n/a	FR1	3	R1377M
1085.515	0.95	1126111	WORD_OFF	n/a	n/a	LANE	9	9	[0, 0, 0]	n/a	FR1	3	R1377M
1086.465	1.6	1127062	WORD	n/a	n/a	PEA	10	9	[0, 0, 0]	n/a	FR1	3	R1377M
1088.065	0.967	1128660	WORD_OFF	n/a	n/a	PEA	10	9	[0, 0, 0]	n/a	FR1	3	R1377M
1089.032	1.6	1129625	WORD	n/a	n/a	TANK	11	9	[0, 0, 0]	n/a	FR1	3	R1377M
1090.632	0.983	1131237	WORD_OFF	n/a	n/a	TANK	11	9	[0, 0, 0]	n/a	FR1	3	R1377M
1091.615	1.6	1132215	WORD	n/a	n/a	NURSE	12	9	[0, 0, 0]	n/a	FR1	3	R1377M
1093.215	0.002	1133813	WORD_OFF	n/a	n/a	NURSE	12	9	[0, 0, 0]	n/a	FR1	3	R1377M
1093.217	0.0	1133813	ENCODING_END	n/a	n/a	n/a	-999	9	[0, 0, 0]	n/a	FR1	3	R1377M
1093.217	0.0	1133813	DISTRACT_START	n/a	n/a	n/a	-999	9	[0, 0, 0]	n/a	FR1	3	R1377M
1093.216	0.001	1133814	PROB	0.001	n/a	n/a	-999	9	[5, 2, 3]	10	FR1	3	R1377M
1093.217	8.366	1133815	START	n/a	n/a	n/a	-999	9	[-999, -999, -999]	n/a	FR1	3	R1377M
1101.583	4.833	1142180	PROB	4.833	n/a	n/a	-999	9	[8, 3, 1]	12	FR1	3	R1377M
1106.416	4.984	1147013	PROB	4.984	n/a	n/a	-999	9	[3, 6, 8]	17	FR1	3	R1377M
1111.4	5.431	1151997	PROB	5.431	n/a	n/a	-999	9	[4, 8, 7]	19	FR1	3	R1377M
1116.831	0.0	1157427	STOP	n/a	n/a	n/a	-999	9	[-999, -999, -999]	n/a	FR1	3	R1377M
1116.831	1.234	1157428	DISTRACT_END	n/a	n/a	n/a	-999	9	[0, 0, 0]	n/a	FR1	3	R1377M
1118.065	5.835	1158668	REC_START	n/a	n/a	n/a	-999	9	[0, 0, 0]	n/a	FR1	3	R1377M
1123.9	0.587	1164496	REC_WORD	0.587	n/a	CUP	1	9	[0, 0, 0]	n/a	FR1	3	R1377M
1124.487	1.13	1165083	REC_WORD	1.13	n/a	STAIR	2	9	[0, 0, 0]	n/a	FR1	3	R1377M
1125.617	2.14	1166213	REC_WORD	2.14	n/a	SOAP	3	9	[0, 0, 0]	n/a	FR1	3	R1377M
1127.757	4.034	1168353	REC_WORD	4.034	n/a	PEARL	4	9	[0, 0, 0]	n/a	FR1	3	R1377M
1131.791	2.476	1172387	REC_WORD	2.476	n/a	BREAST	7	9	[0, 0, 0]	n/a	FR1	3	R1377M
1134.267	6.148	1174863	REC_WORD_VV	6.148	n/a	<>	-999	9	[0, 0, 0]	n/a	FR1	3	R1377M
1140.415	0.673	1181010	REC_WORD	0.673	n/a	TIN	-999	9	[0, 0, 0]	n/a	FR1	3	R1377M
1141.088	7.249	1181683	REC_WORD_VV	7.249	n/a	<>	-999	9	[0, 0, 0]	n/a	FR1	3	R1377M
1148.337	11.427	1188938	REC_END	n/a	n/a	n/a	-999	9	[0, 0, 0]	n/a	FR1	3	R1377M
1159.764	10.351	1200360	COUNTDOWN_START	n/a	n/a	n/a	-999	10	[0, 0, 0]	n/a	FR1	3	R1377M
1170.115	0.0	1210707	COUNTDOWN_END	n/a	n/a	n/a	-999	10	[0, 0, 0]	n/a	FR1	3	R1377M
1170.115	1.884	1210707	ENCODING_START	n/a	n/a	n/a	-999	10	[0, 0, 0]	n/a	FR1	3	R1377M
1171.999	1.6	1212594	WORD	n/a	n/a	BRIDGE	1	10	[0, 0, 0]	n/a	FR1	3	R1377M
1173.599	0.867	1214193	WORD_OFF	n/a	n/a	BRIDGE	1	10	[0, 0, 0]	n/a	FR1	3	R1377M
1174.466	1.6	1215061	WORD	n/a	n/a	HAY	2	10	[0, 0, 0]	n/a	FR1	3	R1377M
1176.066	0.832	1216659	WORD_OFF	n/a	n/a	HAY	2	10	[0, 0, 0]	n/a	FR1	3	R1377M
1176.898	1.601	1217499	WORD	n/a	n/a	WHEEL	3	10	[0, 0, 0]	n/a	FR1	3	R1377M
1178.499	0.95	1219098	WORD_OFF	n/a	n/a	WHEEL	3	10	[0, 0, 0]	n/a	FR1	3	R1377M
1179.449	1.6	1220048	WORD	n/a	n/a	HOG	4	10	[0, 0, 0]	n/a	FR1	3	R1377M
1181.049	0.95	1221646	WORD_OFF	n/a	n/a	HOG	4	10	[0, 0, 0]	n/a	FR1	3	R1377M
1181.999	1.6	1222597	WORD	n/a	n/a	SACK	5	10	[0, 0, 0]	n/a	FR1	3	R1377M
1183.599	0.933	1224195	WORD_OFF	n/a	n/a	SACK	5	10	[0, 0, 0]	n/a	FR1	3	R1377M
1184.532	1.6	1225132	WORD	n/a	n/a	BIN	6	10	[0, 0, 0]	n/a	FR1	3	R1377M
1186.132	0.9	1226730	WORD_OFF	n/a	n/a	BIN	6	10	[0, 0, 0]	n/a	FR1	3	R1377M
1187.032	1.6	1227626	WORD	n/a	n/a	CUBE	7	10	[0, 0, 0]	n/a	FR1	3	R1377M
1188.632	0.883	1229224	WORD_OFF	n/a	n/a	CUBE	7	10	[0, 0, 0]	n/a	FR1	3	R1377M
1189.515	1.6	1230106	WORD	n/a	n/a	STICK	8	10	[0, 0, 0]	n/a	FR1	3	R1377M
1191.115	1.0	1231704	WORD_OFF	n/a	n/a	STICK	8	10	[0, 0, 0]	n/a	FR1	3	R1377M
1192.115	1.6	1232710	WORD	n/a	n/a	BOMB	9	10	[0, 0, 0]	n/a	FR1	3	R1377M
1193.715	0.834	1234308	WORD_OFF	n/a	n/a	BOMB	9	10	[0, 0, 0]	n/a	FR1	3	R1377M
1194.549	1.615	1235149	WORD	n/a	n/a	CORD	10	10	[0, 0, 0]	n/a	FR1	3	R1377M
1196.164	0.885	1236761	WORD_OFF	n/a	n/a	CORD	10	10	[0, 0, 0]	n/a	FR1	3	R1377M
1197.049	1.6	1237642	WORD	n/a	n/a	FROG	11	10	[0, 0, 0]	n/a	FR1	3	R1377M
1198.649	0.766	1239241	WORD_OFF	n/a	n/a	FROG	11	10	[0, 0, 0]	n/a	FR1	3	R1377M
1199.415	1.601	1240012	WORD	n/a	n/a	PAINT	12	10	[0, 0, 0]	n/a	FR1	3	R1377M
1201.016	0.0	1241609	PROB	0.0	n/a	n/a	-999	10	[3, 4, 2]	9	FR1	3	R1377M
1201.015	0.002	1241610	WORD_OFF	n/a	n/a	PAINT	12	10	[0, 0, 0]	n/a	FR1	3	R1377M
1201.017	0.0	1241610	ENCODING_END	n/a	n/a	n/a	-999	10	[0, 0, 0]	n/a	FR1	3	R1377M
1201.017	0.0	1241610	DISTRACT_START	n/a	n/a	n/a	-999	10	[0, 0, 0]	n/a	FR1	3	R1377M
1201.017	5.682	1241610	START	n/a	n/a	n/a	-999	10	[-999, -999, -999]	n/a	FR1	3	R1377M
1206.699	6.9	1247291	PROB	6.9	n/a	n/a	-999	10	[6, 1, 5]	12	FR1	3	R1377M
1213.599	9.133	1254191	PROB	9.133	n/a	n/a	-999	10	[7, 5, 4]	17	FR1	3	R1377M
1222.732	0.0	1263324	DISTRACT_END	n/a	n/a	n/a	-999	10	[0, 0, 0]	n/a	FR1	3	R1377M
1222.732	1.0	1263324	STOP	n/a	n/a	n/a	-999	10	[-999, -999, -999]	n/a	FR1	3	R1377M
1223.732	3.579	1264330	REC_START	n/a	n/a	n/a	-999	10	[0, 0, 0]	n/a	FR1	3	R1377M
1227.311	0.654	1267902	REC_WORD	0.654	n/a	BRIDGE	1	10	[0, 0, 0]	n/a	FR1	3	R1377M
1227.965	0.419	1268556	REC_WORD	0.419	n/a	HAY	2	10	[0, 0, 0]	n/a	FR1	3	R1377M
1228.384	1.446	1268975	REC_WORD	1.446	n/a	SOCK	-999	10	[0, 0, 0]	n/a	FR1	3	R1377M
1229.83	4.757	1270421	REC_WORD	4.757	n/a	BIN	6	10	[0, 0, 0]	n/a	FR1	3	R1377M
1234.587	1.001	1275178	REC_WORD_VV	1.001	n/a	<>	-999	10	[0, 0, 0]	n/a	FR1	3	R1377M
1235.588	2.123	1276179	REC_WORD_VV	2.123	n/a	<>	-999	10	[0, 0, 0]	n/a	FR1	3	R1377M
1237.711	16.287	1278302	REC_WORD	16.287	n/a	WHEEL	3	10	[0, 0, 0]	n/a	FR1	3	R1377M
1253.998	22.584	1294586	REC_END	n/a	n/a	n/a	-999	10	[0, 0, 0]	n/a	FR1	3	R1377M
1276.582	10.351	1317168	COUNTDOWN_START	n/a	n/a	n/a	-999	11	[0, 0, 0]	n/a	FR1	3	R1377M
1286.933	0.0	1327529	COUNTDOWN_END	n/a	n/a	n/a	-999	11	[0, 0, 0]	n/a	FR1	3	R1377M
1286.933	2.198	1327529	ENCODING_START	n/a	n/a	n/a	-999	11	[0, 0, 0]	n/a	FR1	3	R1377M
1289.131	1.601	1329719	WORD	n/a	n/a	GOWN	1	11	[0, 0, 0]	n/a	FR1	3	R1377M
1290.732	0.983	1331317	WORD_OFF	n/a	n/a	GOWN	1	11	[0, 0, 0]	n/a	FR1	3	R1377M
1291.715	1.6	1332309	WORD	n/a	n/a	JAR	2	11	[0, 0, 0]	n/a	FR1	3	R1377M
1293.315	0.816	1333908	WORD_OFF	n/a	n/a	JAR	2	11	[0, 0, 0]	n/a	FR1	3	R1377M
1294.131	1.601	1334721	WORD	n/a	n/a	BAT	3	11	[0, 0, 0]	n/a	FR1	3	R1377M
1295.732	0.934	1336319	WORD_OFF	n/a	n/a	BAT	3	11	[0, 0, 0]	n/a	FR1	3	R1377M
1296.666	1.616	1337256	WORD	n/a	n/a	TRASH	4	11	[0, 0, 0]	n/a	FR1	3	R1377M
1298.282	0.833	1338868	WORD_OFF	n/a	n/a	TRASH	4	11	[0, 0, 0]	n/a	FR1	3	R1377M
1299.115	1.617	1339708	WORD	n/a	n/a	RICE	5	11	[0, 0, 0]	n/a	FR1	3	R1377M
1300.732	1.0	1341320	WORD_OFF	n/a	n/a	RICE	5	11	[0, 0, 0]	n/a	FR1	3	R1377M
1301.732	1.617	1342326	WORD	n/a	n/a	BEEF	6	11	[0, 0, 0]	n/a	FR1	3	R1377M
1303.349	0.816	1343938	WORD_OFF	n/a	n/a	BEEF	6	11	[0, 0, 0]	n/a	FR1	3	R1377M
1304.165	1.617	1344751	WORD	n/a	n/a	DEW	7	11	[0, 0, 0]	n/a	FR1	3	R1377M
1305.782	0.816	1346377	WORD_OFF	n/a	n/a	DEW	7	11	[0, 0, 0]	n/a	FR1	3	R1377M
1306.598	1.617	1347189	WORD	n/a	n/a	TROUT	8	11	[0, 0, 0]	n/a	FR1	3	R1377M
1308.215	0.8	1348801	WORD_OFF	n/a	n/a	TROUT	8	11	[0, 0, 0]	n/a	FR1	3	R1377M
1309.015	1.617	1349601	WORD	n/a	n/a	SEA	9	11	[0, 0, 0]	n/a	FR1	3	R1377M
1310.632	0.9	1351226	WORD_OFF	n/a	n/a	SEA	9	11	[0, 0, 0]	n/a	FR1	3	R1377M
1311.532	1.6	1352122	WORD	n/a	n/a	MAP	10	11	[0, 0, 0]	n/a	FR1	3	R1377M
1313.132	0.866	1353720	WORD_OFF	n/a	n/a	MAP	10	11	[0, 0, 0]	n/a	FR1	3	R1377M
1313.998	1.6	1354588	WORD	n/a	n/a	FORT	11	11	[0, 0, 0]	n/a	FR1	3	R1377M
1315.598	1.0	1356186	WORD_OFF	n/a	n/a	FORT	11	11	[0, 0, 0]	n/a	FR1	3	R1377M
1316.598	1.617	1357192	WORD	n/a	n/a	SMILE	12	11	[0, 0, 0]	n/a	FR1	3	R1377M
1318.215	0.001	1358802	PROB	0.001	n/a	n/a	-999	11	[1, 8, 1]	10	FR1	3	R1377M
1318.216	0.0	1358803	START	n/a	n/a	n/a	-999	11	[-999, -999, -999]	n/a	FR1	3	R1377M
1318.215	0.001	1358804	WORD_OFF	n/a	n/a	SMILE	12	11	[0, 0, 0]	n/a	FR1	3	R1377M
1318.216	0.0	1358804	ENCODING_END	n/a	n/a	n/a	-999	11	[0, 0, 0]	n/a	FR1	3	R1377M
1318.216	4.416	1358804	DISTRACT_START	n/a	n/a	n/a	-999	11	[0, 0, 0]	n/a	FR1	3	R1377M
1322.632	4.666	1363219	PROB	4.666	n/a	n/a	-999	11	[4, 5, 2]	11	FR1	3	R1377M
1327.298	4.184	1367885	PROB	4.184	n/a	n/a	-999	11	[4, 3, 8]	15	FR1	3	R1377M
1331.482	7.9	1372069	PROB	7.9	n/a	n/a	-999	11	[4, 5, 4]	13	FR1	3	R1377M
1339.382	0.0	1379967	DISTRACT_END	n/a	n/a	n/a	-999	11	[0, 0, 0]	n/a	FR1	3	R1377M
1339.382	1.035	1379968	STOP	n/a	n/a	n/a	-999	11	[-999, -999, -999]	n/a	FR1	3	R1377M
1340.417	2.056	1381000	REC_START	n/a	n/a	n/a	-999	11	[0, 0, 0]	n/a	FR1	3	R1377M
1342.473	0.622	1383059	REC_WORD	0.622	n/a	GOWN	1	11	[0, 0, 0]	n/a	FR1	3	R1377M
1343.095	0.565	1383681	REC_WORD	0.565	n/a	BAT	3	11	[0, 0, 0]	n/a	FR1	3	R1377M
1343.66	1.03	1384246	REC_WORD	1.03	n/a	TRASH	4	11	[0, 0, 0]	n/a	FR1	3	R1377M
1344.69	4.886	1385276	REC_WORD	4.886	n/a	TROUT	8	11	[0, 0, 0]	n/a	FR1	3	R1377M
1349.576	21.126	1390162	REC_WORD	21.126	n/a	FORT	11	11	[0, 0, 0]	n/a	FR1	3	R1377M
1370.702	6.08	1411284	REC_END	n/a	n/a	n/a	-999	11	[0, 0, 0]	n/a	FR1	3	R1377M
1376.782	10.351	1417373	COUNTDOWN_START	n/a	n/a	n/a	-999	12	[0, 0, 0]	n/a	FR1	3	R1377M
1387.133	0.0	1427720	COUNTDOWN_END	n/a	n/a	n/a	-999	12	[0, 0, 0]	n/a	FR1	3	R1377M
1387.133	2.199	1427720	ENCODING_START	n/a	n/a	n/a	-999	12	[0, 0, 0]	n/a	FR1	3	R1377M
1389.332	1.617	1429911	WORD	n/a	n/a	BLOOM	1	12	[0, 0, 0]	n/a	FR1	3	R1377M
1390.949	0.966	1431537	WORD_OFF	n/a	n/a	BLOOM	1	12	[0, 0, 0]	n/a	FR1	3	R1377M
1391.915	1.6	1432501	WORD	n/a	n/a	GATE	2	12	[0, 0, 0]	n/a	FR1	3	R1377M
1393.515	0.817	1434100	WORD_OFF	n/a	n/a	GATE	2	12	[0, 0, 0]	n/a	FR1	3	R1377M
1394.332	1.617	1434912	WORD	n/a	n/a	SAUCE	3	12	[0, 0, 0]	n/a	FR1	3	R1377M
1395.949	0.933	1436538	WORD_OFF	n/a	n/a	SAUCE	3	12	[0, 0, 0]	n/a	FR1	3	R1377M
1396.882	1.6	1437461	WORD	n/a	n/a	JUDGE	4	12	[0, 0, 0]	n/a	FR1	3	R1377M
1398.482	0.766	1439073	WORD_OFF	n/a	n/a	JUDGE	4	12	[0, 0, 0]	n/a	FR1	3	R1377M
1399.248	1.601	1439831	WORD	n/a	n/a	ASH	5	12	[0, 0, 0]	n/a	FR1	3	R1377M
1400.849	0.999	1441429	WORD_OFF	n/a	n/a	ASH	5	12	[0, 0, 0]	n/a	FR1	3	R1377M
1401.848	1.601	1442435	WORD	n/a	n/a	TIN	6	12	[0, 0, 0]	n/a	FR1	3	R1377M
1403.449	0.85	1444033	WORD_OFF	n/a	n/a	TIN	6	12	[0, 0, 0]	n/a	FR1	3	R1377M
1404.299	1.616	1444888	WORD	n/a	n/a	BRUSH	7	12	[0, 0, 0]	n/a	FR1	3	R1377M
1405.915	0.967	1446500	WORD_OFF	n/a	n/a	BRUSH	7	12	[0, 0, 0]	n/a	FR1	3	R1377M
1406.882	1.618	1447464	WORD	n/a	n/a	BRANCH	8	12	[0, 0, 0]	n/a	FR1	3	R1377M
1408.5	0.882	1449090	WORD_OFF	n/a	n/a	BRANCH	8	12	[0, 0, 0]	n/a	FR1	3	R1377M
1409.382	1.617	1449972	WORD	n/a	n/a	SLIME	9	12	[0, 0, 0]	n/a	FR1	3	R1377M
1410.999	0.816	1451584	WORD_OFF	n/a	n/a	SLIME	9	12	[0, 0, 0]	n/a	FR1	3	R1377M
1411.815	1.6	1452396	WORD	n/a	n/a	SPICE	10	12	[0, 0, 0]	n/a	FR1	3	R1377M
1413.415	0.817	1453995	WORD_OFF	n/a	n/a	SPICE	10	12	[0, 0, 0]	n/a	FR1	3	R1377M
1414.232	1.616	1454821	WORD	n/a	n/a	FARM	11	12	[0, 0, 0]	n/a	FR1	3	R1377M
1415.848	0.801	1456433	WORD_OFF	n/a	n/a	FARM	11	12	[0, 0, 0]	n/a	FR1	3	R1377M
1416.649	1.616	1457232	WORD	n/a	n/a	SPRING	12	12	[0, 0, 0]	n/a	FR1	3	R1377M
1418.265	0.001	1458844	WORD_OFF	n/a	n/a	SPRING	12	12	[0, 0, 0]	n/a	FR1	3	R1377M
1418.266	0.0	1458844	ENCODING_END	n/a	n/a	n/a	-999	12	[0, 0, 0]	n/a	FR1	3	R1377M
1418.265	0.001	1458848	PROB	0.001	n/a	n/a	-999	12	[6, 2, 3]	11	FR1	3	R1377M
1418.266	0.0	1458849	START	n/a	n/a	n/a	-999	12	[-999, -999, -999]	n/a	FR1	3	R1377M
1418.266	5.417	1458858	DISTRACT_START	n/a	n/a	n/a	-999	12	[0, 0, 0]	n/a	FR1	3	R1377M
1423.683	7.783	1464265	PROB	7.783	n/a	n/a	-999	12	[6, 5, 2]	13	FR1	3	R1377M
1431.466	5.449	1472048	PROB	5.449	n/a	n/a	-999	12	[6, 2, 5]	13	FR1	3	R1377M
1436.915	4.217	1477497	PROB	4.217	n/a	n/a	-999	12	[3, 3, 4]	10	FR1	3	R1377M
1441.132	0.0	1481714	STOP	n/a	n/a	n/a	-999	12	[-999, -999, -999]	n/a	FR1	3	R1377M
1441.132	1.032	1481716	DISTRACT_END	n/a	n/a	n/a	-999	12	[0, 0, 0]	n/a	FR1	3	R1377M
1442.164	4.021	1482749	REC_START	n/a	n/a	n/a	-999	12	[0, 0, 0]	n/a	FR1	3	R1377M
1446.185	0.659	1486766	REC_WORD	0.659	n/a	BLOOM	1	12	[0, 0, 0]	n/a	FR1	3	R1377M
1446.844	1.151	1487425	REC_WORD	1.151	n/a	SLIME	9	12	[0, 0, 0]	n/a	FR1	3	R1377M
1447.995	19.73	1488576	REC_WORD	19.73	n/a	TIN	6	12	[0, 0, 0]	n/a	FR1	3	R1377M
1467.725	4.698	1508305	REC_WORD	4.698	n/a	GOWN	-999	12	[0, 0, 0]	n/a	FR1	3	R1377M
1472.423	0.0	1513005	REC_END	n/a	n/a	n/a	-999	12	[0, 0, 0]	n/a	FR1	3	R1377M
