onset	duration	sample	trial_type	response_time	stim_file	item_name	serialpos	list	test	answer	experiment	session	subject
0.0	0.0	86279	INSTRUCT_START	n/a	n/a	n/a	-999	-999	[0, 0, 0]	n/a	FR1	0	R1268T
0.0	11.046	86279	INSTRUCT_END	n/a	n/a	n/a	-999	-999	[0, 0, 0]	n/a	FR1	0	R1268T
11.046	0.0	97324	SESS_START	n/a	n/a	n/a	-999	-999	[0, 0, 0]	n/a	FR1	0	R1268T
11.046	13.5	97324	MIC_TEST	n/a	n/a	n/a	-999	-999	[0, 0, 0]	n/a	FR1	0	R1268T
24.546	2.926	110823	PRACTICE_TRIAL	n/a	n/a	n/a	-999	-1	[0, 0, 0]	n/a	FR1	0	R1268T
27.472	10.428	113749	COUNTDOWN_START	n/a	n/a	n/a	-999	-1	[0, 0, 0]	n/a	FR1	0	R1268T
37.9	0.006	124176	COUNTDOWN_END	n/a	n/a	n/a	-999	-1	[0, 0, 0]	n/a	FR1	0	R1268T
37.906	1.601	124182	PRACTICE_ORIENT	n/a	n/a	n/a	-999	-1	[0, 0, 0]	n/a	FR1	0	R1268T
39.507	1.867	125783	PRACTICE_ORIENT_OFF	n/a	n/a	n/a	-999	-1	[0, 0, 0]	n/a	FR1	0	R1268T
41.374	1.617	127650	PRACTICE_WORD	n/a	n/a	CAMEL	1	-1	[0, 0, 0]	n/a	FR1	0	R1268T
42.991	0.933	129267	PRACTICE_WORD_OFF	n/a	n/a	CAMEL	-999	-1	[0, 0, 0]	n/a	FR1	0	R1268T
43.924	1.618	130200	PRACTICE_WORD	n/a	n/a	IRON	2	-1	[0, 0, 0]	n/a	FR1	0	R1268T
45.542	0.833	131818	PRACTICE_WORD_OFF	n/a	n/a	IRON	-999	-1	[0, 0, 0]	n/a	FR1	0	R1268T
46.375	1.617	132651	PRACTICE_WORD	n/a	n/a	BEAM	3	-1	[0, 0, 0]	n/a	FR1	0	R1268T
47.992	0.832	134268	PRACTICE_WORD_OFF	n/a	n/a	BEAM	-999	-1	[0, 0, 0]	n/a	FR1	0	R1268T
48.824	1.618	135100	PRACTICE_WORD	n/a	n/a	RHINO	4	-1	[0, 0, 0]	n/a	FR1	0	R1268T
50.442	0.917	136717	PRACTICE_WORD_OFF	n/a	n/a	RHINO	-999	-1	[0, 0, 0]	n/a	FR1	0	R1268T
51.359	1.617	137634	PRACTICE_WORD	n/a	n/a	CHEST	5	-1	[0, 0, 0]	n/a	FR1	0	R1268T
52.976	0.933	139251	PRACTICE_WORD_OFF	n/a	n/a	CHEST	-999	-1	[0, 0, 0]	n/a	FR1	0	R1268T
53.909	1.618	140184	PRACTICE_WORD	n/a	n/a	RING	6	-1	[0, 0, 0]	n/a	FR1	0	R1268T
55.527	0.8	141802	PRACTICE_WORD_OFF	n/a	n/a	RING	-999	-1	[0, 0, 0]	n/a	FR1	0	R1268T
56.327	1.617	142602	PRACTICE_WORD	n/a	n/a	COTTON	7	-1	[0, 0, 0]	n/a	FR1	0	R1268T
57.944	0.966	144219	PRACTICE_WORD_OFF	n/a	n/a	COTTON	-999	-1	[0, 0, 0]	n/a	FR1	0	R1268T
58.91	1.618	145185	PRACTICE_WORD	n/a	n/a	WATCH	8	-1	[0, 0, 0]	n/a	FR1	0	R1268T
60.528	0.883	146803	PRACTICE_WORD_OFF	n/a	n/a	WATCH	-999	-1	[0, 0, 0]	n/a	FR1	0	R1268T
61.411	1.617	147686	PRACTICE_WORD	n/a	n/a	WAGON	9	-1	[0, 0, 0]	n/a	FR1	0	R1268T
63.028	1.017	149303	PRACTICE_WORD_OFF	n/a	n/a	WAGON	-999	-1	[0, 0, 0]	n/a	FR1	0	R1268T
64.045	1.617	150320	PRACTICE_WORD	n/a	n/a	FLOOD	10	-1	[0, 0, 0]	n/a	FR1	0	R1268T
65.662	0.8	151937	PRACTICE_WORD_OFF	n/a	n/a	FLOOD	-999	-1	[0, 0, 0]	n/a	FR1	0	R1268T
66.462	1.617	152736	PRACTICE_WORD	n/a	n/a	TONGUE	11	-1	[0, 0, 0]	n/a	FR1	0	R1268T
68.079	0.883	154353	PRACTICE_WORD_OFF	n/a	n/a	TONGUE	-999	-1	[0, 0, 0]	n/a	FR1	0	R1268T
68.962	1.617	155236	PRACTICE_WORD	n/a	n/a	ATTIC	12	-1	[0, 0, 0]	n/a	FR1	0	R1268T
70.579	0.0	156853	PRACTICE_WORD_OFF	n/a	n/a	ATTIC	-999	-1	[0, 0, 0]	n/a	FR1	0	R1268T
70.579	0.001	156853	DISTRACT_START	n/a	n/a	n/a	-999	-1	[0, 0, 0]	n/a	FR1	0	R1268T
70.58	0.016	156854	START	n/a	n/a	n/a	-999	-1	[-999, -999, -999]	n/a	FR1	0	R1268T
70.596	7.985	156870	PROB	7.985	n/a	n/a	-999	-1	[7, 3, 2]	12	FR1	0	R1268T
78.581	9.284	164855	PROB	9.284	n/a	n/a	-999	-1	[7, 5, 4]	16	FR1	0	R1268T
87.865	5.292	174138	PROB	5.292	n/a	n/a	-999	-1	[5, 6, 3]	14	FR1	0	R1268T
93.157	0.01	179430	STOP	n/a	n/a	n/a	-999	-1	[-999, -999, -999]	n/a	FR1	0	R1268T
93.167	0.649	179440	DISTRACT_END	n/a	n/a	n/a	-999	-1	[0, 0, 0]	n/a	FR1	0	R1268T
93.816	0.521	180089	RETRIEVAL_ORIENT	n/a	n/a	n/a	-999	-1	[0, 0, 0]	n/a	FR1	0	R1268T
94.337	30.01	180610	PRACTICE_REC_START	n/a	n/a	n/a	-999	-1	[0, 0, 0]	n/a	FR1	0	R1268T
124.347	45.167	210618	PRACTICE_REC_END	n/a	n/a	n/a	-999	-1	[0, 0, 0]	n/a	FR1	0	R1268T
169.514	0.5	255782	TRIAL	n/a	n/a	n/a	-999	1	[0, 0, 0]	n/a	FR1	0	R1268T
170.014	10.428	256282	COUNTDOWN_START	n/a	n/a	n/a	-999	1	[0, 0, 0]	n/a	FR1	0	R1268T
180.442	0.007	266709	COUNTDOWN_END	n/a	n/a	n/a	-999	1	[0, 0, 0]	n/a	FR1	0	R1268T
180.449	1.617	266716	ORIENT	n/a	n/a	n/a	-999	1	[0, 0, 0]	n/a	FR1	0	R1268T
182.066	2.251	268333	ORIENT_OFF	n/a	n/a	n/a	-999	1	[0, 0, 0]	n/a	FR1	0	R1268T
184.317	1.617	270584	WORD	n/a	wordpools/wordpool_EN.txt	OAK	1	1	[0, 0, 0]	n/a	FR1	0	R1268T
185.934	0.816	272201	WORD_OFF	n/a	n/a	OAK	1	1	[0, 0, 0]	n/a	FR1	0	R1268T
186.75	1.617	273017	WORD	n/a	wordpools/wordpool_EN.txt	SMOKE	2	1	[0, 0, 0]	n/a	FR1	0	R1268T
188.367	0.984	274634	WORD_OFF	n/a	n/a	SMOKE	2	1	[0, 0, 0]	n/a	FR1	0	R1268T
189.351	1.617	275618	WORD	n/a	wordpools/wordpool_EN.txt	SOCK	3	1	[0, 0, 0]	n/a	FR1	0	R1268T
190.968	0.832	277235	WORD_OFF	n/a	n/a	SOCK	3	1	[0, 0, 0]	n/a	FR1	0	R1268T
191.8	1.618	278067	WORD	n/a	wordpools/wordpool_EN.txt	FARM	4	1	[0, 0, 0]	n/a	FR1	0	R1268T
193.418	0.884	279685	WORD_OFF	n/a	n/a	FARM	4	1	[0, 0, 0]	n/a	FR1	0	R1268T
194.302	1.616	280569	WORD	n/a	wordpools/wordpool_EN.txt	ROOF	5	1	[0, 0, 0]	n/a	FR1	0	R1268T
195.918	1.0	282184	WORD_OFF	n/a	n/a	ROOF	5	1	[0, 0, 0]	n/a	FR1	0	R1268T
196.918	1.618	283184	WORD	n/a	wordpools/wordpool_EN.txt	PANTS	6	1	[0, 0, 0]	n/a	FR1	0	R1268T
198.536	0.767	284802	WORD_OFF	n/a	n/a	PANTS	6	1	[0, 0, 0]	n/a	FR1	0	R1268T
199.303	1.616	285569	WORD	n/a	wordpools/wordpool_EN.txt	SOAP	7	1	[0, 0, 0]	n/a	FR1	0	R1268T
200.919	1.0	287185	WORD_OFF	n/a	n/a	SOAP	7	1	[0, 0, 0]	n/a	FR1	0	R1268T
201.919	1.618	288185	WORD	n/a	wordpools/wordpool_EN.txt	GLOVE	8	1	[0, 0, 0]	n/a	FR1	0	R1268T
203.537	0.883	289803	WORD_OFF	n/a	n/a	GLOVE	8	1	[0, 0, 0]	n/a	FR1	0	R1268T
204.42	1.617	290686	WORD	n/a	wordpools/wordpool_EN.txt	PALM	9	1	[0, 0, 0]	n/a	FR1	0	R1268T
206.037	0.85	292303	WORD_OFF	n/a	n/a	PALM	9	1	[0, 0, 0]	n/a	FR1	0	R1268T
206.887	1.617	293153	WORD	n/a	wordpools/wordpool_EN.txt	DOOR	10	1	[0, 0, 0]	n/a	FR1	0	R1268T
208.504	0.901	294770	WORD_OFF	n/a	n/a	DOOR	10	1	[0, 0, 0]	n/a	FR1	0	R1268T
209.405	1.617	295671	WORD	n/a	wordpools/wordpool_EN.txt	WHALE	11	1	[0, 0, 0]	n/a	FR1	0	R1268T
211.022	0.798	297288	WORD_OFF	n/a	n/a	WHALE	11	1	[0, 0, 0]	n/a	FR1	0	R1268T
211.82	1.602	298085	WORD	n/a	wordpools/wordpool_EN.txt	RICE	12	1	[0, 0, 0]	n/a	FR1	0	R1268T
213.422	0.0	299687	WORD_OFF	n/a	n/a	RICE	12	1	[0, 0, 0]	n/a	FR1	0	R1268T
213.422	0.0	299687	DISTRACT_START	n/a	n/a	n/a	-999	1	[0, 0, 0]	n/a	FR1	0	R1268T
213.422	0.017	299687	START	n/a	n/a	n/a	-999	1	[-999, -999, -999]	n/a	FR1	0	R1268T
213.439	4.567	299704	PROB	4.567	n/a	n/a	-999	1	[4, 6, 1]	11	FR1	0	R1268T
218.006	9.602	304271	PROB	9.602	n/a	n/a	-999	1	[9, 4, 7]	20	FR1	0	R1268T
227.608	4.067	313872	PROB	4.067	n/a	n/a	-999	1	[5, 3, 4]	12	FR1	0	R1268T
231.675	2.89	317939	PROB	2.89	n/a	n/a	-999	1	[3, 1, 5]	9	FR1	0	R1268T
234.565	0.011	320829	STOP	n/a	n/a	n/a	-999	1	[-999, -999, -999]	n/a	FR1	0	R1268T
234.576	0.567	320840	DISTRACT_END	n/a	n/a	n/a	-999	1	[0, 0, 0]	n/a	FR1	0	R1268T
235.143	0.517	321407	RETRIEVAL_ORIENT	n/a	n/a	n/a	-999	1	[0, 0, 0]	n/a	FR1	0	R1268T
235.66	1.023	321924	REC_START	n/a	n/a	n/a	-999	1	[0, 0, 0]	n/a	FR1	0	R1268T
236.683	0.455	322947	REC_WORD	0.455	n/a	OAK	-999	1	[0, 0, 0]	n/a	FR1	0	R1268T
237.138	2.455	323402	REC_WORD	2.455	n/a	SMOKE	-999	1	[0, 0, 0]	n/a	FR1	0	R1268T
239.593	0.335	325857	REC_WORD	0.335	n/a	FARM	-999	1	[0, 0, 0]	n/a	FR1	0	R1268T
239.928	1.008	326192	REC_WORD	1.008	n/a	GLOVE	-999	1	[0, 0, 0]	n/a	FR1	0	R1268T
240.936	3.532	327200	REC_WORD_VV	3.532	n/a	<>	-999	1	[0, 0, 0]	n/a	FR1	0	R1268T
244.468	3.79	330731	REC_WORD_VV	3.79	n/a	<>	-999	1	[0, 0, 0]	n/a	FR1	0	R1268T
248.258	17.411	334521	REC_WORD	17.411	n/a	WHALE	-999	1	[0, 0, 0]	n/a	FR1	0	R1268T
265.669	8.331	351931	REC_END	n/a	n/a	n/a	-999	1	[0, 0, 0]	n/a	FR1	0	R1268T
274.0	0.5	360262	TRIAL	n/a	n/a	n/a	-999	2	[0, 0, 0]	n/a	FR1	0	R1268T
274.5	10.428	360762	COUNTDOWN_START	n/a	n/a	n/a	-999	2	[0, 0, 0]	n/a	FR1	0	R1268T
284.928	0.007	371189	COUNTDOWN_END	n/a	n/a	n/a	-999	2	[0, 0, 0]	n/a	FR1	0	R1268T
284.935	1.617	371196	ORIENT	n/a	n/a	n/a	-999	2	[0, 0, 0]	n/a	FR1	0	R1268T
286.552	2.017	372813	ORIENT_OFF	n/a	n/a	n/a	-999	2	[0, 0, 0]	n/a	FR1	0	R1268T
288.569	1.617	374830	WORD	n/a	wordpools/wordpool_EN.txt	STEAK	1	2	[0, 0, 0]	n/a	FR1	0	R1268T
290.186	0.833	376447	WORD_OFF	n/a	n/a	STEAK	1	2	[0, 0, 0]	n/a	FR1	0	R1268T
291.019	1.618	377280	WORD	n/a	wordpools/wordpool_EN.txt	BAND	2	2	[0, 0, 0]	n/a	FR1	0	R1268T
292.637	0.916	378897	WORD_OFF	n/a	n/a	BAND	2	2	[0, 0, 0]	n/a	FR1	0	R1268T
293.553	1.617	379813	WORD	n/a	wordpools/wordpool_EN.txt	SHEET	3	2	[0, 0, 0]	n/a	FR1	0	R1268T
295.17	0.984	381430	WORD_OFF	n/a	n/a	SHEET	3	2	[0, 0, 0]	n/a	FR1	0	R1268T
296.154	1.616	382414	WORD	n/a	wordpools/wordpool_EN.txt	SLUSH	4	2	[0, 0, 0]	n/a	FR1	0	R1268T
297.77	0.868	384030	WORD_OFF	n/a	n/a	SLUSH	4	2	[0, 0, 0]	n/a	FR1	0	R1268T
298.638	1.616	384898	WORD	n/a	wordpools/wordpool_EN.txt	SHIRT	5	2	[0, 0, 0]	n/a	FR1	0	R1268T
300.254	0.834	386514	WORD_OFF	n/a	n/a	SHIRT	5	2	[0, 0, 0]	n/a	FR1	0	R1268T
301.088	1.617	387348	WORD	n/a	wordpools/wordpool_EN.txt	LAKE	6	2	[0, 0, 0]	n/a	FR1	0	R1268T
302.705	0.767	388965	WORD_OFF	n/a	n/a	LAKE	6	2	[0, 0, 0]	n/a	FR1	0	R1268T
303.472	1.617	389732	WORD	n/a	wordpools/wordpool_EN.txt	BOY	7	2	[0, 0, 0]	n/a	FR1	0	R1268T
305.089	0.815	391349	WORD_OFF	n/a	n/a	BOY	7	2	[0, 0, 0]	n/a	FR1	0	R1268T
305.904	1.619	392164	WORD	n/a	wordpools/wordpool_EN.txt	BOARD	8	2	[0, 0, 0]	n/a	FR1	0	R1268T
307.523	0.883	393783	WORD_OFF	n/a	n/a	BOARD	8	2	[0, 0, 0]	n/a	FR1	0	R1268T
308.406	1.617	394665	WORD	n/a	wordpools/wordpool_EN.txt	BOAT	9	2	[0, 0, 0]	n/a	FR1	0	R1268T
310.023	0.933	396282	WORD_OFF	n/a	n/a	BOAT	9	2	[0, 0, 0]	n/a	FR1	0	R1268T
310.956	1.617	397215	WORD	n/a	wordpools/wordpool_EN.txt	CLOCK	10	2	[0, 0, 0]	n/a	FR1	0	R1268T
312.573	0.984	398832	WORD_OFF	n/a	n/a	CLOCK	10	2	[0, 0, 0]	n/a	FR1	0	R1268T
313.557	1.617	399816	WORD	n/a	wordpools/wordpool_EN.txt	JUICE	11	2	[0, 0, 0]	n/a	FR1	0	R1268T
315.174	1.0	401433	WORD_OFF	n/a	n/a	JUICE	11	2	[0, 0, 0]	n/a	FR1	0	R1268T
316.174	1.616	402433	WORD	n/a	wordpools/wordpool_EN.txt	PASTE	12	2	[0, 0, 0]	n/a	FR1	0	R1268T
317.79	0.0	404049	WORD_OFF	n/a	n/a	PASTE	12	2	[0, 0, 0]	n/a	FR1	0	R1268T
317.79	0.001	404049	DISTRACT_START	n/a	n/a	n/a	-999	2	[0, 0, 0]	n/a	FR1	0	R1268T
317.791	0.016	404050	START	n/a	n/a	n/a	-999	2	[-999, -999, -999]	n/a	FR1	0	R1268T
317.807	5.552	404066	PROB	5.552	n/a	n/a	-999	2	[2, 3, 1]	6	FR1	0	R1268T
323.359	3.7	409618	PROB	3.7	n/a	n/a	-999	2	[9, 8, 3]	12	FR1	0	R1268T
327.059	4.151	413317	PROB	4.151	n/a	n/a	-999	2	[3, 3, 4]	10	FR1	0	R1268T
331.21	3.867	417468	PROB	3.867	n/a	n/a	-999	2	[2, 6, 8]	16	FR1	0	R1268T
335.077	3.6	421335	PROB	3.6	n/a	n/a	-999	2	[8, 1, 5]	14	FR1	0	R1268T
338.677	0.018	424935	STOP	n/a	n/a	n/a	-999	2	[-999, -999, -999]	n/a	FR1	0	R1268T
338.695	0.65	424953	DISTRACT_END	n/a	n/a	n/a	-999	2	[0, 0, 0]	n/a	FR1	0	R1268T
339.345	0.516	425603	RETRIEVAL_ORIENT	n/a	n/a	n/a	-999	2	[0, 0, 0]	n/a	FR1	0	R1268T
339.861	1.978	426119	REC_START	n/a	n/a	n/a	-999	2	[0, 0, 0]	n/a	FR1	0	R1268T
341.839	0.461	428096	REC_WORD	0.461	n/a	STEAK	-999	2	[0, 0, 0]	n/a	FR1	0	R1268T
342.3	0.27	428557	REC_WORD	0.27	n/a	BAND	-999	2	[0, 0, 0]	n/a	FR1	0	R1268T
342.57	1.909	428827	REC_WORD	1.909	n/a	SHEET	-999	2	[0, 0, 0]	n/a	FR1	0	R1268T
344.479	2.744	430736	REC_WORD_VV	2.744	n/a	<>	-999	2	[0, 0, 0]	n/a	FR1	0	R1268T
347.223	10.78	433480	REC_WORD	10.78	n/a	BOY	-999	2	[0, 0, 0]	n/a	FR1	0	R1268T
358.003	11.87	444259	REC_WORD	11.87	n/a	SLUSH	-999	2	[0, 0, 0]	n/a	FR1	0	R1268T
369.873	14.513	456129	REC_END	n/a	n/a	n/a	-999	2	[0, 0, 0]	n/a	FR1	0	R1268T
384.386	0.5	470641	TRIAL	n/a	n/a	n/a	-999	3	[0, 0, 0]	n/a	FR1	0	R1268T
384.886	10.428	471141	COUNTDOWN_START	n/a	n/a	n/a	-999	3	[0, 0, 0]	n/a	FR1	0	R1268T
395.314	0.008	481568	COUNTDOWN_END	n/a	n/a	n/a	-999	3	[0, 0, 0]	n/a	FR1	0	R1268T
395.322	1.617	481576	ORIENT	n/a	n/a	n/a	-999	3	[0, 0, 0]	n/a	FR1	0	R1268T
396.939	2.183	483193	ORIENT_OFF	n/a	n/a	n/a	-999	3	[0, 0, 0]	n/a	FR1	0	R1268T
399.122	1.617	485376	WORD	n/a	wordpools/wordpool_EN.txt	SHOE	1	3	[0, 0, 0]	n/a	FR1	0	R1268T
400.739	0.984	486993	WORD_OFF	n/a	n/a	SHOE	1	3	[0, 0, 0]	n/a	FR1	0	R1268T
401.723	1.617	487977	WORD	n/a	wordpools/wordpool_EN.txt	TRAY	2	3	[0, 0, 0]	n/a	FR1	0	R1268T
403.34	0.85	489594	WORD_OFF	n/a	n/a	TRAY	2	3	[0, 0, 0]	n/a	FR1	0	R1268T
404.19	1.616	490444	WORD	n/a	wordpools/wordpool_EN.txt	LIP	3	3	[0, 0, 0]	n/a	FR1	0	R1268T
405.806	0.818	492059	WORD_OFF	n/a	n/a	LIP	3	3	[0, 0, 0]	n/a	FR1	0	R1268T
406.624	1.617	492877	WORD	n/a	wordpools/wordpool_EN.txt	MOTH	4	3	[0, 0, 0]	n/a	FR1	0	R1268T
408.241	0.983	494494	WORD_OFF	n/a	n/a	MOTH	4	3	[0, 0, 0]	n/a	FR1	0	R1268T
409.224	1.616	495477	WORD	n/a	wordpools/wordpool_EN.txt	STAIR	5	3	[0, 0, 0]	n/a	FR1	0	R1268T
410.84	0.768	497093	WORD_OFF	n/a	n/a	STAIR	5	3	[0, 0, 0]	n/a	FR1	0	R1268T
411.608	1.617	497861	WORD	n/a	wordpools/wordpool_EN.txt	ROOM	6	3	[0, 0, 0]	n/a	FR1	0	R1268T
413.225	0.867	499478	WORD_OFF	n/a	n/a	ROOM	6	3	[0, 0, 0]	n/a	FR1	0	R1268T
414.092	1.617	500345	WORD	n/a	wordpools/wordpool_EN.txt	CAGE	7	3	[0, 0, 0]	n/a	FR1	0	R1268T
415.709	0.983	501962	WORD_OFF	n/a	n/a	CAGE	7	3	[0, 0, 0]	n/a	FR1	0	R1268T
416.692	1.617	502945	WORD	n/a	wordpools/wordpool_EN.txt	BENCH	8	3	[0, 0, 0]	n/a	FR1	0	R1268T
418.309	0.967	504562	WORD_OFF	n/a	n/a	BENCH	8	3	[0, 0, 0]	n/a	FR1	0	R1268T
419.276	1.616	505529	WORD	n/a	wordpools/wordpool_EN.txt	FLAME	9	3	[0, 0, 0]	n/a	FR1	0	R1268T
420.892	0.818	507145	WORD_OFF	n/a	n/a	FLAME	9	3	[0, 0, 0]	n/a	FR1	0	R1268T
421.71	1.617	507962	WORD	n/a	wordpools/wordpool_EN.txt	SPOON	10	3	[0, 0, 0]	n/a	FR1	0	R1268T
423.327	0.817	509579	WORD_OFF	n/a	n/a	SPOON	10	3	[0, 0, 0]	n/a	FR1	0	R1268T
424.144	1.617	510396	WORD	n/a	wordpools/wordpool_EN.txt	TREE	11	3	[0, 0, 0]	n/a	FR1	0	R1268T
425.761	0.95	512013	WORD_OFF	n/a	n/a	TREE	11	3	[0, 0, 0]	n/a	FR1	0	R1268T
426.711	1.617	512963	WORD	n/a	wordpools/wordpool_EN.txt	OAR	12	3	[0, 0, 0]	n/a	FR1	0	R1268T
428.328	0.0	514580	WORD_OFF	n/a	n/a	OAR	12	3	[0, 0, 0]	n/a	FR1	0	R1268T
428.328	0.0	514580	DISTRACT_START	n/a	n/a	n/a	-999	3	[0, 0, 0]	n/a	FR1	0	R1268T
428.328	0.016	514580	START	n/a	n/a	n/a	-999	3	[-999, -999, -999]	n/a	FR1	0	R1268T
428.344	6.918	514596	PROB	6.918	n/a	n/a	-999	3	[8, 1, 2]	12	FR1	0	R1268T
435.262	3.917	521514	PROB	3.917	n/a	n/a	-999	3	[3, 4, 2]	9	FR1	0	R1268T
439.179	5.952	525430	PROB	5.952	n/a	n/a	-999	3	[3, 9, 6]	18	FR1	0	R1268T
445.131	3.906	531382	PROB	3.906	n/a	n/a	-999	3	[5, 8, 1]	14	FR1	0	R1268T
449.037	0.011	535288	STOP	n/a	n/a	n/a	-999	3	[-999, -999, -999]	n/a	FR1	0	R1268T
449.048	0.584	535299	DISTRACT_END	n/a	n/a	n/a	-999	3	[0, 0, 0]	n/a	FR1	0	R1268T
449.632	0.517	535883	RETRIEVAL_ORIENT	n/a	n/a	n/a	-999	3	[0, 0, 0]	n/a	FR1	0	R1268T
450.149	0.693	536400	REC_START	n/a	n/a	n/a	-999	3	[0, 0, 0]	n/a	FR1	0	R1268T
450.842	0.314	537093	REC_WORD	0.314	n/a	SHOE	-999	3	[0, 0, 0]	n/a	FR1	0	R1268T
451.156	0.336	537407	REC_WORD	0.336	n/a	TRAY	-999	3	[0, 0, 0]	n/a	FR1	0	R1268T
451.492	0.244	537743	REC_WORD	0.244	n/a	LIP	-999	3	[0, 0, 0]	n/a	FR1	0	R1268T
451.736	0.249	537987	REC_WORD	0.249	n/a	MOTH	-999	3	[0, 0, 0]	n/a	FR1	0	R1268T
451.985	1.49	538236	REC_WORD	1.49	n/a	STAIR	-999	3	[0, 0, 0]	n/a	FR1	0	R1268T
453.475	1.39	539726	REC_WORD	1.39	n/a	SPOON	-999	3	[0, 0, 0]	n/a	FR1	0	R1268T
454.865	1.576	541115	REC_WORD	1.576	n/a	FOOT	-999	3	[0, 0, 0]	n/a	FR1	0	R1268T
456.441	8.483	542691	REC_WORD_VV	8.483	n/a	<>	-999	3	[0, 0, 0]	n/a	FR1	0	R1268T
464.924	15.235	551174	REC_WORD	15.235	n/a	OAR	-999	3	[0, 0, 0]	n/a	FR1	0	R1268T
480.159	5.879	566408	REC_END	n/a	n/a	n/a	-999	3	[0, 0, 0]	n/a	FR1	0	R1268T
486.038	0.5	572287	TRIAL	n/a	n/a	n/a	-999	4	[0, 0, 0]	n/a	FR1	0	R1268T
486.538	10.428	572786	COUNTDOWN_START	n/a	n/a	n/a	-999	4	[0, 0, 0]	n/a	FR1	0	R1268T
496.966	0.007	583214	COUNTDOWN_END	n/a	n/a	n/a	-999	4	[0, 0, 0]	n/a	FR1	0	R1268T
496.973	1.618	583221	ORIENT	n/a	n/a	n/a	-999	4	[0, 0, 0]	n/a	FR1	0	R1268T
498.591	2.167	584839	ORIENT_OFF	n/a	n/a	n/a	-999	4	[0, 0, 0]	n/a	FR1	0	R1268T
500.758	1.617	587006	WORD	n/a	wordpools/wordpool_EN.txt	DOG	1	4	[0, 0, 0]	n/a	FR1	0	R1268T
502.375	0.85	588622	WORD_OFF	n/a	n/a	DOG	1	4	[0, 0, 0]	n/a	FR1	0	R1268T
503.225	1.616	589472	WORD	n/a	wordpools/wordpool_EN.txt	BANK	2	4	[0, 0, 0]	n/a	FR1	0	R1268T
504.841	0.851	591088	WORD_OFF	n/a	n/a	BANK	2	4	[0, 0, 0]	n/a	FR1	0	R1268T
505.692	1.617	591939	WORD	n/a	wordpools/wordpool_EN.txt	SNAKE	3	4	[0, 0, 0]	n/a	FR1	0	R1268T
507.309	0.983	593556	WORD_OFF	n/a	n/a	SNAKE	3	4	[0, 0, 0]	n/a	FR1	0	R1268T
508.292	1.616	594539	WORD	n/a	wordpools/wordpool_EN.txt	SKY	4	4	[0, 0, 0]	n/a	FR1	0	R1268T
509.908	0.768	596155	WORD_OFF	n/a	n/a	SKY	4	4	[0, 0, 0]	n/a	FR1	0	R1268T
510.676	1.617	596923	WORD	n/a	wordpools/wordpool_EN.txt	SKUNK	5	4	[0, 0, 0]	n/a	FR1	0	R1268T
512.293	0.983	598540	WORD_OFF	n/a	n/a	SKUNK	5	4	[0, 0, 0]	n/a	FR1	0	R1268T
513.276	1.616	599523	WORD	n/a	wordpools/wordpool_EN.txt	ARK	6	4	[0, 0, 0]	n/a	FR1	0	R1268T
514.892	0.917	601139	WORD_OFF	n/a	n/a	ARK	6	4	[0, 0, 0]	n/a	FR1	0	R1268T
515.809	1.618	602056	WORD	n/a	wordpools/wordpool_EN.txt	FORK	7	4	[0, 0, 0]	n/a	FR1	0	R1268T
517.427	0.95	603674	WORD_OFF	n/a	n/a	FORK	7	4	[0, 0, 0]	n/a	FR1	0	R1268T
518.377	1.617	604624	WORD	n/a	wordpools/wordpool_EN.txt	POND	8	4	[0, 0, 0]	n/a	FR1	0	R1268T
519.994	0.9	606240	WORD_OFF	n/a	n/a	POND	8	4	[0, 0, 0]	n/a	FR1	0	R1268T
520.894	1.617	607140	WORD	n/a	wordpools/wordpool_EN.txt	MUD	9	4	[0, 0, 0]	n/a	FR1	0	R1268T
522.511	0.801	608757	WORD_OFF	n/a	n/a	MUD	9	4	[0, 0, 0]	n/a	FR1	0	R1268T
523.312	1.617	609558	WORD	n/a	wordpools/wordpool_EN.txt	MOUSE	10	4	[0, 0, 0]	n/a	FR1	0	R1268T
524.929	0.882	611175	WORD_OFF	n/a	n/a	MOUSE	10	4	[0, 0, 0]	n/a	FR1	0	R1268T
525.811	1.618	612057	WORD	n/a	wordpools/wordpool_EN.txt	CHIEF	11	4	[0, 0, 0]	n/a	FR1	0	R1268T
527.429	0.884	613675	WORD_OFF	n/a	n/a	CHIEF	11	4	[0, 0, 0]	n/a	FR1	0	R1268T
528.313	1.617	614559	WORD	n/a	wordpools/wordpool_EN.txt	BRANCH	12	4	[0, 0, 0]	n/a	FR1	0	R1268T
529.93	0.0	616176	WORD_OFF	n/a	n/a	BRANCH	12	4	[0, 0, 0]	n/a	FR1	0	R1268T
529.93	0.0	616176	DISTRACT_START	n/a	n/a	n/a	-999	4	[0, 0, 0]	n/a	FR1	0	R1268T
529.93	0.016	616176	START	n/a	n/a	n/a	-999	4	[-999, -999, -999]	n/a	FR1	0	R1268T
529.946	11.901	616192	PROB	11.901	n/a	n/a	-999	4	[7, 8, 7]	22	FR1	0	R1268T
541.847	2.951	628092	PROB	2.951	n/a	n/a	-999	4	[2, 8, 4]	14	FR1	0	R1268T
544.798	5.512	631043	PROB	5.512	n/a	n/a	-999	4	[6, 7, 9]	22	FR1	0	R1268T
550.31	0.006	636555	STOP	n/a	n/a	n/a	-999	4	[-999, -999, -999]	n/a	FR1	0	R1268T
550.316	0.634	636561	DISTRACT_END	n/a	n/a	n/a	-999	4	[0, 0, 0]	n/a	FR1	0	R1268T
550.95	0.517	637194	RETRIEVAL_ORIENT	n/a	n/a	n/a	-999	4	[0, 0, 0]	n/a	FR1	0	R1268T
551.467	3.123	637711	REC_START	n/a	n/a	n/a	-999	4	[0, 0, 0]	n/a	FR1	0	R1268T
554.59	0.427	640834	REC_WORD	0.427	n/a	DOG	-999	4	[0, 0, 0]	n/a	FR1	0	R1268T
555.017	0.417	641261	REC_WORD	0.417	n/a	BANK	-999	4	[0, 0, 0]	n/a	FR1	0	R1268T
555.434	1.665	641678	REC_WORD	1.665	n/a	SNAKE	-999	4	[0, 0, 0]	n/a	FR1	0	R1268T
557.099	17.22	643343	REC_WORD_VV	17.22	n/a	<>	-999	4	[0, 0, 0]	n/a	FR1	0	R1268T
574.319	3.457	660562	REC_WORD	3.457	n/a	LAKE	-999	4	[0, 0, 0]	n/a	FR1	0	R1268T
577.776	3.703	664019	REC_WORD_VV	3.703	n/a	<>	-999	4	[0, 0, 0]	n/a	FR1	0	R1268T
581.479	6.044	667722	REC_END	n/a	n/a	n/a	-999	4	[0, 0, 0]	n/a	FR1	0	R1268T
587.523	0.5	673765	TRIAL	n/a	n/a	n/a	-999	5	[0, 0, 0]	n/a	FR1	0	R1268T
588.023	10.428	674265	COUNTDOWN_START	n/a	n/a	n/a	-999	5	[0, 0, 0]	n/a	FR1	0	R1268T
598.451	0.008	684693	COUNTDOWN_END	n/a	n/a	n/a	-999	5	[0, 0, 0]	n/a	FR1	0	R1268T
598.459	1.617	684701	ORIENT	n/a	n/a	n/a	-999	5	[0, 0, 0]	n/a	FR1	0	R1268T
600.076	2.183	686317	ORIENT_OFF	n/a	n/a	n/a	-999	5	[0, 0, 0]	n/a	FR1	0	R1268T
602.259	1.616	688500	WORD	n/a	wordpools/wordpool_EN.txt	COW	1	5	[0, 0, 0]	n/a	FR1	0	R1268T
603.875	0.868	690116	WORD_OFF	n/a	n/a	COW	1	5	[0, 0, 0]	n/a	FR1	0	R1268T
604.743	1.617	690984	WORD	n/a	wordpools/wordpool_EN.txt	EGG	2	5	[0, 0, 0]	n/a	FR1	0	R1268T
606.36	0.85	692601	WORD_OFF	n/a	n/a	EGG	2	5	[0, 0, 0]	n/a	FR1	0	R1268T
607.21	1.616	693451	WORD	n/a	wordpools/wordpool_EN.txt	FOX	3	5	[0, 0, 0]	n/a	FR1	0	R1268T
608.826	0.984	695067	WORD_OFF	n/a	n/a	FOX	3	5	[0, 0, 0]	n/a	FR1	0	R1268T
609.81	1.618	696051	WORD	n/a	wordpools/wordpool_EN.txt	SHRIMP	4	5	[0, 0, 0]	n/a	FR1	0	R1268T
611.428	0.983	697669	WORD_OFF	n/a	n/a	SHRIMP	4	5	[0, 0, 0]	n/a	FR1	0	R1268T
612.411	1.617	698652	WORD	n/a	wordpools/wordpool_EN.txt	SEED	5	5	[0, 0, 0]	n/a	FR1	0	R1268T
614.028	0.816	700269	WORD_OFF	n/a	n/a	SEED	5	5	[0, 0, 0]	n/a	FR1	0	R1268T
614.844	1.618	701085	WORD	n/a	wordpools/wordpool_EN.txt	ICE	6	5	[0, 0, 0]	n/a	FR1	0	R1268T
616.462	0.884	702702	WORD_OFF	n/a	n/a	ICE	6	5	[0, 0, 0]	n/a	FR1	0	R1268T
617.346	1.616	703586	WORD	n/a	wordpools/wordpool_EN.txt	JAR	7	5	[0, 0, 0]	n/a	FR1	0	R1268T
618.962	0.784	705202	WORD_OFF	n/a	n/a	JAR	7	5	[0, 0, 0]	n/a	FR1	0	R1268T
619.746	1.617	705986	WORD	n/a	wordpools/wordpool_EN.txt	BEAK	8	5	[0, 0, 0]	n/a	FR1	0	R1268T
621.363	0.833	707603	WORD_OFF	n/a	n/a	BEAK	8	5	[0, 0, 0]	n/a	FR1	0	R1268T
622.196	1.616	708436	WORD	n/a	wordpools/wordpool_EN.txt	JAIL	9	5	[0, 0, 0]	n/a	FR1	0	R1268T
623.812	0.851	710052	WORD_OFF	n/a	n/a	JAIL	9	5	[0, 0, 0]	n/a	FR1	0	R1268T
624.663	1.617	710903	WORD	n/a	wordpools/wordpool_EN.txt	PEAR	10	5	[0, 0, 0]	n/a	FR1	0	R1268T
626.28	0.784	712520	WORD_OFF	n/a	n/a	PEAR	10	5	[0, 0, 0]	n/a	FR1	0	R1268T
627.064	1.617	713304	WORD	n/a	wordpools/wordpool_EN.txt	TRAIN	11	5	[0, 0, 0]	n/a	FR1	0	R1268T
628.681	1.0	714921	WORD_OFF	n/a	n/a	TRAIN	11	5	[0, 0, 0]	n/a	FR1	0	R1268T
629.681	1.617	715921	WORD	n/a	wordpools/wordpool_EN.txt	ROOT	12	5	[0, 0, 0]	n/a	FR1	0	R1268T
631.298	0.0	717538	WORD_OFF	n/a	n/a	ROOT	12	5	[0, 0, 0]	n/a	FR1	0	R1268T
631.298	0.001	717538	DISTRACT_START	n/a	n/a	n/a	-999	5	[0, 0, 0]	n/a	FR1	0	R1268T
631.299	0.016	717539	START	n/a	n/a	n/a	-999	5	[-999, -999, -999]	n/a	FR1	0	R1268T
631.315	12.852	717555	PROB	12.852	n/a	n/a	-999	5	[8, 6, 4]	18	FR1	0	R1268T
644.167	5.101	730406	PROB	5.101	n/a	n/a	-999	5	[9, 9, 6]	24	FR1	0	R1268T
649.268	4.585	735506	PROB	4.585	n/a	n/a	-999	5	[8, 4, 4]	16	FR1	0	R1268T
653.853	0.015	740091	STOP	n/a	n/a	n/a	-999	5	[-999, -999, -999]	n/a	FR1	0	R1268T
653.868	0.568	740106	DISTRACT_END	n/a	n/a	n/a	-999	5	[0, 0, 0]	n/a	FR1	0	R1268T
654.436	0.517	740674	RETRIEVAL_ORIENT	n/a	n/a	n/a	-999	5	[0, 0, 0]	n/a	FR1	0	R1268T
654.953	0.474	741191	REC_START	n/a	n/a	n/a	-999	5	[0, 0, 0]	n/a	FR1	0	R1268T
655.427	0.378	741665	REC_WORD	0.378	n/a	COW	-999	5	[0, 0, 0]	n/a	FR1	0	R1268T
655.805	0.404	742043	REC_WORD	0.404	n/a	EGG	-999	5	[0, 0, 0]	n/a	FR1	0	R1268T
656.209	0.268	742447	REC_WORD	0.268	n/a	FOX	-999	5	[0, 0, 0]	n/a	FR1	0	R1268T
656.477	0.443	742715	REC_WORD	0.443	n/a	SHRIMP	-999	5	[0, 0, 0]	n/a	FR1	0	R1268T
656.92	1.557	743158	REC_WORD	1.557	n/a	SEED	-999	5	[0, 0, 0]	n/a	FR1	0	R1268T
658.477	26.487	744715	REC_WORD	26.487	n/a	ICE	-999	5	[0, 0, 0]	n/a	FR1	0	R1268T
684.964	5.745	771200	REC_END	n/a	n/a	n/a	-999	5	[0, 0, 0]	n/a	FR1	0	R1268T
690.709	0.5	776945	TRIAL	n/a	n/a	n/a	-999	6	[0, 0, 0]	n/a	FR1	0	R1268T
691.209	10.428	777445	COUNTDOWN_START	n/a	n/a	n/a	-999	6	[0, 0, 0]	n/a	FR1	0	R1268T
701.637	0.007	787872	COUNTDOWN_END	n/a	n/a	n/a	-999	6	[0, 0, 0]	n/a	FR1	0	R1268T
701.644	1.617	787879	ORIENT	n/a	n/a	n/a	-999	6	[0, 0, 0]	n/a	FR1	0	R1268T
703.261	2.334	789496	ORIENT_OFF	n/a	n/a	n/a	-999	6	[0, 0, 0]	n/a	FR1	0	R1268T
705.595	1.617	791830	WORD	n/a	wordpools/wordpool_EN.txt	RUG	1	6	[0, 0, 0]	n/a	FR1	0	R1268T
707.212	0.966	793447	WORD_OFF	n/a	n/a	RUG	1	6	[0, 0, 0]	n/a	FR1	0	R1268T
708.178	1.616	794413	WORD	n/a	wordpools/wordpool_EN.txt	RAKE	2	6	[0, 0, 0]	n/a	FR1	0	R1268T
709.794	0.952	796029	WORD_OFF	n/a	n/a	RAKE	2	6	[0, 0, 0]	n/a	FR1	0	R1268T
710.746	1.617	796981	WORD	n/a	wordpools/wordpool_EN.txt	POLE	3	6	[0, 0, 0]	n/a	FR1	0	R1268T
712.363	0.933	798598	WORD_OFF	n/a	n/a	POLE	3	6	[0, 0, 0]	n/a	FR1	0	R1268T
713.296	1.616	799530	WORD	n/a	wordpools/wordpool_EN.txt	STRING	4	6	[0, 0, 0]	n/a	FR1	0	R1268T
714.912	0.768	801146	WORD_OFF	n/a	n/a	STRING	4	6	[0, 0, 0]	n/a	FR1	0	R1268T
715.68	1.617	801914	WORD	n/a	wordpools/wordpool_EN.txt	CAR	5	6	[0, 0, 0]	n/a	FR1	0	R1268T
717.297	0.767	803531	WORD_OFF	n/a	n/a	CAR	5	6	[0, 0, 0]	n/a	FR1	0	R1268T
718.064	1.617	804298	WORD	n/a	wordpools/wordpool_EN.txt	MOON	6	6	[0, 0, 0]	n/a	FR1	0	R1268T
719.681	0.9	805915	WORD_OFF	n/a	n/a	MOON	6	6	[0, 0, 0]	n/a	FR1	0	R1268T
720.581	1.617	806815	WORD	n/a	wordpools/wordpool_EN.txt	LAMB	7	6	[0, 0, 0]	n/a	FR1	0	R1268T
722.198	0.917	808432	WORD_OFF	n/a	n/a	LAMB	7	6	[0, 0, 0]	n/a	FR1	0	R1268T
723.115	1.617	809349	WORD	n/a	wordpools/wordpool_EN.txt	SUIT	8	6	[0, 0, 0]	n/a	FR1	0	R1268T
724.732	0.983	810966	WORD_OFF	n/a	n/a	SUIT	8	6	[0, 0, 0]	n/a	FR1	0	R1268T
725.715	1.617	811949	WORD	n/a	wordpools/wordpool_EN.txt	CORN	9	6	[0, 0, 0]	n/a	FR1	0	R1268T
727.332	0.95	813566	WORD_OFF	n/a	n/a	CORN	9	6	[0, 0, 0]	n/a	FR1	0	R1268T
728.282	1.616	814516	WORD	n/a	wordpools/wordpool_EN.txt	WORLD	10	6	[0, 0, 0]	n/a	FR1	0	R1268T
729.898	0.884	816131	WORD_OFF	n/a	n/a	WORLD	10	6	[0, 0, 0]	n/a	FR1	0	R1268T
730.782	1.601	817015	WORD	n/a	wordpools/wordpool_EN.txt	STAR	11	6	[0, 0, 0]	n/a	FR1	0	R1268T
732.383	0.784	818616	WORD_OFF	n/a	n/a	STAR	11	6	[0, 0, 0]	n/a	FR1	0	R1268T
733.167	1.615	819400	WORD	n/a	wordpools/wordpool_EN.txt	BADGE	12	6	[0, 0, 0]	n/a	FR1	0	R1268T
734.782	0.0	821015	WORD_OFF	n/a	n/a	BADGE	12	6	[0, 0, 0]	n/a	FR1	0	R1268T
734.782	0.001	821015	DISTRACT_START	n/a	n/a	n/a	-999	6	[0, 0, 0]	n/a	FR1	0	R1268T
734.783	0.016	821016	START	n/a	n/a	n/a	-999	6	[-999, -999, -999]	n/a	FR1	0	R1268T
734.799	7.819	821032	PROB	7.819	n/a	n/a	-999	6	[1, 7, 8]	16	FR1	0	R1268T
742.618	3.25	828851	PROB	3.25	n/a	n/a	-999	6	[8, 1, 2]	11	FR1	0	R1268T
745.868	6.369	832100	PROB	6.369	n/a	n/a	-999	6	[5, 6, 9]	20	FR1	0	R1268T
752.237	2.3	838469	PROB	2.3	n/a	n/a	-999	6	[5, 1, 1]	7	FR1	0	R1268T
754.537	2.564	840769	PROB	2.564	n/a	n/a	-999	6	[6, 6, 1]	13	FR1	0	R1268T
757.101	0.02	843333	STOP	n/a	n/a	n/a	-999	6	[-999, -999, -999]	n/a	FR1	0	R1268T
757.121	0.55	843353	DISTRACT_END	n/a	n/a	n/a	-999	6	[0, 0, 0]	n/a	FR1	0	R1268T
757.671	0.517	843903	RETRIEVAL_ORIENT	n/a	n/a	n/a	-999	6	[0, 0, 0]	n/a	FR1	0	R1268T
758.188	1.58	844420	REC_START	n/a	n/a	n/a	-999	6	[0, 0, 0]	n/a	FR1	0	R1268T
759.768	0.353	846000	REC_WORD	0.353	n/a	RUG	-999	6	[0, 0, 0]	n/a	FR1	0	R1268T
760.121	0.728	846353	REC_WORD	0.728	n/a	RAKE	-999	6	[0, 0, 0]	n/a	FR1	0	R1268T
760.849	3.087	847081	REC_WORD	3.087	n/a	POLE	-999	6	[0, 0, 0]	n/a	FR1	0	R1268T
763.936	24.263	850167	REC_WORD	24.263	n/a	STRING	-999	6	[0, 0, 0]	n/a	FR1	0	R1268T
788.199	5.845	874429	REC_END	n/a	n/a	n/a	-999	6	[0, 0, 0]	n/a	FR1	0	R1268T
794.044	0.5	880273	TRIAL	n/a	n/a	n/a	-999	7	[0, 0, 0]	n/a	FR1	0	R1268T
794.544	10.428	880773	COUNTDOWN_START	n/a	n/a	n/a	-999	7	[0, 0, 0]	n/a	FR1	0	R1268T
804.972	0.008	891201	COUNTDOWN_END	n/a	n/a	n/a	-999	7	[0, 0, 0]	n/a	FR1	0	R1268T
804.98	1.617	891209	ORIENT	n/a	n/a	n/a	-999	7	[0, 0, 0]	n/a	FR1	0	R1268T
806.597	2.083	892826	ORIENT_OFF	n/a	n/a	n/a	-999	7	[0, 0, 0]	n/a	FR1	0	R1268T
808.68	1.617	894909	WORD	n/a	wordpools/wordpool_EN.txt	JUDGE	1	7	[0, 0, 0]	n/a	FR1	0	R1268T
810.297	0.867	896525	WORD_OFF	n/a	n/a	JUDGE	1	7	[0, 0, 0]	n/a	FR1	0	R1268T
811.164	1.616	897392	WORD	n/a	wordpools/wordpool_EN.txt	SHIELD	2	7	[0, 0, 0]	n/a	FR1	0	R1268T
812.78	0.851	899008	WORD_OFF	n/a	n/a	SHIELD	2	7	[0, 0, 0]	n/a	FR1	0	R1268T
813.631	1.617	899859	WORD	n/a	wordpools/wordpool_EN.txt	PIPE	3	7	[0, 0, 0]	n/a	FR1	0	R1268T
815.248	0.884	901476	WORD_OFF	n/a	n/a	PIPE	3	7	[0, 0, 0]	n/a	FR1	0	R1268T
816.132	1.617	902360	WORD	n/a	wordpools/wordpool_EN.txt	CUP	4	7	[0, 0, 0]	n/a	FR1	0	R1268T
817.749	0.95	903977	WORD_OFF	n/a	n/a	CUP	4	7	[0, 0, 0]	n/a	FR1	0	R1268T
818.699	1.617	904927	WORD	n/a	wordpools/wordpool_EN.txt	PLATE	5	7	[0, 0, 0]	n/a	FR1	0	R1268T
820.316	0.95	906544	WORD_OFF	n/a	n/a	PLATE	5	7	[0, 0, 0]	n/a	FR1	0	R1268T
821.266	1.616	907494	WORD	n/a	wordpools/wordpool_EN.txt	SQUARE	6	7	[0, 0, 0]	n/a	FR1	0	R1268T
822.882	0.884	909110	WORD_OFF	n/a	n/a	SQUARE	6	7	[0, 0, 0]	n/a	FR1	0	R1268T
823.766	1.617	909994	WORD	n/a	wordpools/wordpool_EN.txt	NAIL	7	7	[0, 0, 0]	n/a	FR1	0	R1268T
825.383	0.95	911611	WORD_OFF	n/a	n/a	NAIL	7	7	[0, 0, 0]	n/a	FR1	0	R1268T
826.333	1.618	912560	WORD	n/a	wordpools/wordpool_EN.txt	BED	8	7	[0, 0, 0]	n/a	FR1	0	R1268T
827.951	0.783	914178	WORD_OFF	n/a	n/a	BED	8	7	[0, 0, 0]	n/a	FR1	0	R1268T
828.734	1.617	914961	WORD	n/a	wordpools/wordpool_EN.txt	HOSE	9	7	[0, 0, 0]	n/a	FR1	0	R1268T
830.351	0.783	916578	WORD_OFF	n/a	n/a	HOSE	9	7	[0, 0, 0]	n/a	FR1	0	R1268T
831.134	1.617	917361	WORD	n/a	wordpools/wordpool_EN.txt	BLUSH	10	7	[0, 0, 0]	n/a	FR1	0	R1268T
832.751	0.8	918978	WORD_OFF	n/a	n/a	BLUSH	10	7	[0, 0, 0]	n/a	FR1	0	R1268T
833.551	1.617	919778	WORD	n/a	wordpools/wordpool_EN.txt	PIN	11	7	[0, 0, 0]	n/a	FR1	0	R1268T
835.168	0.784	921395	WORD_OFF	n/a	n/a	PIN	11	7	[0, 0, 0]	n/a	FR1	0	R1268T
835.952	1.617	922179	WORD	n/a	wordpools/wordpool_EN.txt	BATH	12	7	[0, 0, 0]	n/a	FR1	0	R1268T
837.569	0.0	923796	WORD_OFF	n/a	n/a	BATH	12	7	[0, 0, 0]	n/a	FR1	0	R1268T
837.569	0.0	923796	DISTRACT_START	n/a	n/a	n/a	-999	7	[0, 0, 0]	n/a	FR1	0	R1268T
837.569	0.017	923796	START	n/a	n/a	n/a	-999	7	[-999, -999, -999]	n/a	FR1	0	R1268T
837.586	8.601	923813	PROB	8.601	n/a	n/a	-999	7	[8, 4, 5]	17	FR1	0	R1268T
846.187	3.217	932413	PROB	3.217	n/a	n/a	-999	7	[7, 3, 5]	15	FR1	0	R1268T
849.404	4.851	935630	PROB	4.851	n/a	n/a	-999	7	[5, 9, 5]	19	FR1	0	R1268T
854.255	4.119	940481	PROB	4.119	n/a	n/a	-999	7	[4, 3, 3]	10	FR1	0	R1268T
858.374	0.015	944599	STOP	n/a	n/a	n/a	-999	7	[-999, -999, -999]	n/a	FR1	0	R1268T
858.389	0.634	944614	DISTRACT_END	n/a	n/a	n/a	-999	7	[0, 0, 0]	n/a	FR1	0	R1268T
859.023	0.517	945248	RETRIEVAL_ORIENT	n/a	n/a	n/a	-999	7	[0, 0, 0]	n/a	FR1	0	R1268T
859.54	1.106	945765	REC_START	n/a	n/a	n/a	-999	7	[0, 0, 0]	n/a	FR1	0	R1268T
860.646	0.259	946871	REC_WORD	0.259	n/a	JUDGE	-999	7	[0, 0, 0]	n/a	FR1	0	R1268T
860.905	0.435	947130	REC_WORD	0.435	n/a	SHIELD	-999	7	[0, 0, 0]	n/a	FR1	0	R1268T
861.34	0.35	947565	REC_WORD	0.35	n/a	PIPE	-999	7	[0, 0, 0]	n/a	FR1	0	R1268T
861.69	1.241	947915	REC_WORD	1.241	n/a	CUP	-999	7	[0, 0, 0]	n/a	FR1	0	R1268T
862.931	1.355	949156	REC_WORD	1.355	n/a	PLATE	-999	7	[0, 0, 0]	n/a	FR1	0	R1268T
864.286	1.391	950511	REC_WORD	1.391	n/a	SQUARE	-999	7	[0, 0, 0]	n/a	FR1	0	R1268T
865.677	23.873	951902	REC_WORD	23.873	n/a	BATH	-999	7	[0, 0, 0]	n/a	FR1	0	R1268T
889.55	6.213	975774	REC_END	n/a	n/a	n/a	-999	7	[0, 0, 0]	n/a	FR1	0	R1268T
895.763	0.5	981986	TRIAL	n/a	n/a	n/a	-999	8	[0, 0, 0]	n/a	FR1	0	R1268T
896.263	10.428	982486	COUNTDOWN_START	n/a	n/a	n/a	-999	8	[0, 0, 0]	n/a	FR1	0	R1268T
906.691	0.007	992913	COUNTDOWN_END	n/a	n/a	n/a	-999	8	[0, 0, 0]	n/a	FR1	0	R1268T
906.698	1.617	992920	ORIENT	n/a	n/a	n/a	-999	8	[0, 0, 0]	n/a	FR1	0	R1268T
908.315	2.051	994537	ORIENT_OFF	n/a	n/a	n/a	-999	8	[0, 0, 0]	n/a	FR1	0	R1268T
910.366	1.616	996588	WORD	n/a	wordpools/wordpool_EN.txt	SUN	1	8	[0, 0, 0]	n/a	FR1	0	R1268T
911.982	0.784	998204	WORD_OFF	n/a	n/a	SUN	1	8	[0, 0, 0]	n/a	FR1	0	R1268T
912.766	1.617	998988	WORD	n/a	wordpools/wordpool_EN.txt	FLAG	2	8	[0, 0, 0]	n/a	FR1	0	R1268T
914.383	0.833	1000605	WORD_OFF	n/a	n/a	FLAG	2	8	[0, 0, 0]	n/a	FR1	0	R1268T
915.216	1.616	1001438	WORD	n/a	wordpools/wordpool_EN.txt	WEB	3	8	[0, 0, 0]	n/a	FR1	0	R1268T
916.832	0.902	1003054	WORD_OFF	n/a	n/a	WEB	3	8	[0, 0, 0]	n/a	FR1	0	R1268T
917.734	1.616	1003956	WORD	n/a	wordpools/wordpool_EN.txt	SHARK	4	8	[0, 0, 0]	n/a	FR1	0	R1268T
919.35	0.867	1005572	WORD_OFF	n/a	n/a	SHARK	4	8	[0, 0, 0]	n/a	FR1	0	R1268T
920.217	1.616	1006439	WORD	n/a	wordpools/wordpool_EN.txt	WAVE	5	8	[0, 0, 0]	n/a	FR1	0	R1268T
921.833	1.0	1008055	WORD_OFF	n/a	n/a	WAVE	5	8	[0, 0, 0]	n/a	FR1	0	R1268T
922.833	1.601	1009054	WORD	n/a	wordpools/wordpool_EN.txt	STREET	6	8	[0, 0, 0]	n/a	FR1	0	R1268T
924.434	0.884	1010655	WORD_OFF	n/a	n/a	STREET	6	8	[0, 0, 0]	n/a	FR1	0	R1268T
925.318	1.617	1011539	WORD	n/a	wordpools/wordpool_EN.txt	TANK	7	8	[0, 0, 0]	n/a	FR1	0	R1268T
926.935	0.817	1013156	WORD_OFF	n/a	n/a	TANK	7	8	[0, 0, 0]	n/a	FR1	0	R1268T
927.752	1.617	1013973	WORD	n/a	wordpools/wordpool_EN.txt	RAIN	8	8	[0, 0, 0]	n/a	FR1	0	R1268T
929.369	0.95	1015590	WORD_OFF	n/a	n/a	RAIN	8	8	[0, 0, 0]	n/a	FR1	0	R1268T
930.319	1.617	1016540	WORD	n/a	wordpools/wordpool_EN.txt	MAP	9	8	[0, 0, 0]	n/a	FR1	0	R1268T
931.936	0.949	1018157	WORD_OFF	n/a	n/a	MAP	9	8	[0, 0, 0]	n/a	FR1	0	R1268T
932.885	1.618	1019106	WORD	n/a	wordpools/wordpool_EN.txt	GRASS	10	8	[0, 0, 0]	n/a	FR1	0	R1268T
934.503	0.934	1020724	WORD_OFF	n/a	n/a	GRASS	10	8	[0, 0, 0]	n/a	FR1	0	R1268T
935.437	1.617	1021658	WORD	n/a	wordpools/wordpool_EN.txt	PLANE	11	8	[0, 0, 0]	n/a	FR1	0	R1268T
937.054	0.766	1023275	WORD_OFF	n/a	n/a	PLANE	11	8	[0, 0, 0]	n/a	FR1	0	R1268T
937.82	1.617	1024041	WORD	n/a	wordpools/wordpool_EN.txt	MAIL	12	8	[0, 0, 0]	n/a	FR1	0	R1268T
939.437	0.0	1025657	WORD_OFF	n/a	n/a	MAIL	12	8	[0, 0, 0]	n/a	FR1	0	R1268T
939.437	0.001	1025657	DISTRACT_START	n/a	n/a	n/a	-999	8	[0, 0, 0]	n/a	FR1	0	R1268T
939.438	0.016	1025658	START	n/a	n/a	n/a	-999	8	[-999, -999, -999]	n/a	FR1	0	R1268T
939.454	7.935	1025674	PROB	7.935	n/a	n/a	-999	8	[8, 8, 9]	24	FR1	0	R1268T
947.389	4.751	1033609	PROB	4.751	n/a	n/a	-999	8	[7, 9, 2]	19	FR1	0	R1268T
952.14	7.329	1038360	PROB	7.329	n/a	n/a	-999	8	[9, 9, 2]	20	FR1	0	R1268T
959.469	0.022	1045688	STOP	n/a	n/a	n/a	-999	8	[-999, -999, -999]	n/a	FR1	0	R1268T
959.491	0.534	1045710	DISTRACT_END	n/a	n/a	n/a	-999	8	[0, 0, 0]	n/a	FR1	0	R1268T
960.025	0.517	1046244	RETRIEVAL_ORIENT	n/a	n/a	n/a	-999	8	[0, 0, 0]	n/a	FR1	0	R1268T
960.542	12.995	1046761	REC_START	n/a	n/a	n/a	-999	8	[0, 0, 0]	n/a	FR1	0	R1268T
973.537	1.715	1059755	REC_WORD	1.715	n/a	FLAG	-999	8	[0, 0, 0]	n/a	FR1	0	R1268T
975.252	8.045	1061470	REC_WORD	8.045	n/a	SUN	-999	8	[0, 0, 0]	n/a	FR1	0	R1268T
983.297	7.254	1069515	REC_WORD	7.254	n/a	GRASS	-999	8	[0, 0, 0]	n/a	FR1	0	R1268T
990.551	6.163	1076768	REC_END	n/a	n/a	n/a	-999	8	[0, 0, 0]	n/a	FR1	0	R1268T
996.714	0.5	1082931	TRIAL	n/a	n/a	n/a	-999	9	[0, 0, 0]	n/a	FR1	0	R1268T
997.214	10.428	1083431	COUNTDOWN_START	n/a	n/a	n/a	-999	9	[0, 0, 0]	n/a	FR1	0	R1268T
1007.642	0.008	1093858	COUNTDOWN_END	n/a	n/a	n/a	-999	9	[0, 0, 0]	n/a	FR1	0	R1268T
1007.65	1.617	1093866	ORIENT	n/a	n/a	n/a	-999	9	[0, 0, 0]	n/a	FR1	0	R1268T
1009.267	2.1	1095483	ORIENT_OFF	n/a	n/a	n/a	-999	9	[0, 0, 0]	n/a	FR1	0	R1268T
1011.367	1.617	1097583	WORD	n/a	wordpools/wordpool_EN.txt	LOCK	1	9	[0, 0, 0]	n/a	FR1	0	R1268T
1012.984	0.767	1099200	WORD_OFF	n/a	n/a	LOCK	1	9	[0, 0, 0]	n/a	FR1	0	R1268T
1013.751	1.617	1099967	WORD	n/a	wordpools/wordpool_EN.txt	TAIL	2	9	[0, 0, 0]	n/a	FR1	0	R1268T
1015.368	0.9	1101584	WORD_OFF	n/a	n/a	TAIL	2	9	[0, 0, 0]	n/a	FR1	0	R1268T
1016.268	1.616	1102484	WORD	n/a	wordpools/wordpool_EN.txt	ANT	3	9	[0, 0, 0]	n/a	FR1	0	R1268T
1017.884	0.801	1104100	WORD_OFF	n/a	n/a	ANT	3	9	[0, 0, 0]	n/a	FR1	0	R1268T
1018.685	1.617	1104901	WORD	n/a	wordpools/wordpool_EN.txt	BREAD	4	9	[0, 0, 0]	n/a	FR1	0	R1268T
1020.302	0.984	1106517	WORD_OFF	n/a	n/a	BREAD	4	9	[0, 0, 0]	n/a	FR1	0	R1268T
1021.286	1.616	1107501	WORD	n/a	wordpools/wordpool_EN.txt	FOOD	5	9	[0, 0, 0]	n/a	FR1	0	R1268T
1022.902	1.016	1109117	WORD_OFF	n/a	n/a	FOOD	5	9	[0, 0, 0]	n/a	FR1	0	R1268T
1023.918	1.618	1110133	WORD	n/a	wordpools/wordpool_EN.txt	BEE	6	9	[0, 0, 0]	n/a	FR1	0	R1268T
1025.536	0.801	1111751	WORD_OFF	n/a	n/a	BEE	6	9	[0, 0, 0]	n/a	FR1	0	R1268T
1026.337	1.617	1112552	WORD	n/a	wordpools/wordpool_EN.txt	PHONE	7	9	[0, 0, 0]	n/a	FR1	0	R1268T
1027.954	0.882	1114169	WORD_OFF	n/a	n/a	PHONE	7	9	[0, 0, 0]	n/a	FR1	0	R1268T
1028.836	1.618	1115051	WORD	n/a	wordpools/wordpool_EN.txt	SEAL	8	9	[0, 0, 0]	n/a	FR1	0	R1268T
1030.454	0.934	1116669	WORD_OFF	n/a	n/a	SEAL	8	9	[0, 0, 0]	n/a	FR1	0	R1268T
1031.388	1.616	1117603	WORD	n/a	wordpools/wordpool_EN.txt	HOOF	9	9	[0, 0, 0]	n/a	FR1	0	R1268T
1033.004	0.8	1119219	WORD_OFF	n/a	n/a	HOOF	9	9	[0, 0, 0]	n/a	FR1	0	R1268T
1033.804	1.618	1120019	WORD	n/a	wordpools/wordpool_EN.txt	PARK	10	9	[0, 0, 0]	n/a	FR1	0	R1268T
1035.422	0.816	1121637	WORD_OFF	n/a	n/a	PARK	10	9	[0, 0, 0]	n/a	FR1	0	R1268T
1036.238	1.616	1122452	WORD	n/a	wordpools/wordpool_EN.txt	ROCK	11	9	[0, 0, 0]	n/a	FR1	0	R1268T
1037.854	0.984	1124068	WORD_OFF	n/a	n/a	ROCK	11	9	[0, 0, 0]	n/a	FR1	0	R1268T
1038.838	1.618	1125052	WORD	n/a	wordpools/wordpool_EN.txt	WING	12	9	[0, 0, 0]	n/a	FR1	0	R1268T
1040.456	0.0	1126670	DISTRACT_START	n/a	n/a	n/a	-999	9	[0, 0, 0]	n/a	FR1	0	R1268T
1040.456	0.001	1126670	WORD_OFF	n/a	n/a	WING	12	9	[0, 0, 0]	n/a	FR1	0	R1268T
1040.457	0.015	1126671	START	n/a	n/a	n/a	-999	9	[-999, -999, -999]	n/a	FR1	0	R1268T
1040.472	5.735	1126686	PROB	5.735	n/a	n/a	-999	9	[7, 3, 4]	14	FR1	0	R1268T
1046.207	10.052	1132421	PROB	10.052	n/a	n/a	-999	9	[7, 6, 5]	18	FR1	0	R1268T
1056.259	2.5	1142472	PROB	2.5	n/a	n/a	-999	9	[2, 2, 2]	6	FR1	0	R1268T
1058.759	6.528	1144972	PROB	6.528	n/a	n/a	-999	9	[1, 6, 5]	12	FR1	0	R1268T
1065.287	0.007	1151500	STOP	n/a	n/a	n/a	-999	9	[-999, -999, -999]	n/a	FR1	0	R1268T
1065.294	0.7	1151507	DISTRACT_END	n/a	n/a	n/a	-999	9	[0, 0, 0]	n/a	FR1	0	R1268T
1065.994	0.517	1152207	RETRIEVAL_ORIENT	n/a	n/a	n/a	-999	9	[0, 0, 0]	n/a	FR1	0	R1268T
1066.511	1.06	1152724	REC_START	n/a	n/a	n/a	-999	9	[0, 0, 0]	n/a	FR1	0	R1268T
1067.571	0.365	1153784	REC_WORD	0.365	n/a	LOCK	-999	9	[0, 0, 0]	n/a	FR1	0	R1268T
1067.936	0.816	1154149	REC_WORD	0.816	n/a	TAIL	-999	9	[0, 0, 0]	n/a	FR1	0	R1268T
1068.752	1.217	1154964	REC_WORD	1.217	n/a	ANT	-999	9	[0, 0, 0]	n/a	FR1	0	R1268T
1069.969	0.478	1156181	REC_WORD	0.478	n/a	BREAD	-999	9	[0, 0, 0]	n/a	FR1	0	R1268T
1070.447	1.284	1156659	REC_WORD	1.284	n/a	FOOD	-999	9	[0, 0, 0]	n/a	FR1	0	R1268T
1071.731	7.106	1157943	REC_WORD	7.106	n/a	WING	-999	9	[0, 0, 0]	n/a	FR1	0	R1268T
1078.837	17.686	1165049	REC_WORD	17.686	n/a	BEE	-999	9	[0, 0, 0]	n/a	FR1	0	R1268T
1096.523	30.832	1182734	REC_END	n/a	n/a	n/a	-999	9	[0, 0, 0]	n/a	FR1	0	R1268T
1127.355	0.5	1213564	TRIAL	n/a	n/a	n/a	-999	10	[0, 0, 0]	n/a	FR1	0	R1268T
1127.855	10.428	1214064	COUNTDOWN_START	n/a	n/a	n/a	-999	10	[0, 0, 0]	n/a	FR1	0	R1268T
1138.283	0.007	1224491	COUNTDOWN_END	n/a	n/a	n/a	-999	10	[0, 0, 0]	n/a	FR1	0	R1268T
1138.29	1.616	1224498	ORIENT	n/a	n/a	n/a	-999	10	[0, 0, 0]	n/a	FR1	0	R1268T
1139.906	2.251	1226114	ORIENT_OFF	n/a	n/a	n/a	-999	10	[0, 0, 0]	n/a	FR1	0	R1268T
1142.157	1.617	1228365	WORD	n/a	wordpools/wordpool_EN.txt	STEAM	1	10	[0, 0, 0]	n/a	FR1	0	R1268T
1143.774	0.801	1229982	WORD_OFF	n/a	n/a	STEAM	1	10	[0, 0, 0]	n/a	FR1	0	R1268T
1144.575	1.617	1230783	WORD	n/a	wordpools/wordpool_EN.txt	TOY	2	10	[0, 0, 0]	n/a	FR1	0	R1268T
1146.192	0.867	1232400	WORD_OFF	n/a	n/a	TOY	2	10	[0, 0, 0]	n/a	FR1	0	R1268T
1147.059	1.617	1233267	WORD	n/a	wordpools/wordpool_EN.txt	SHELL	3	10	[0, 0, 0]	n/a	FR1	0	R1268T
1148.676	1.016	1234884	WORD_OFF	n/a	n/a	SHELL	3	10	[0, 0, 0]	n/a	FR1	0	R1268T
1149.692	1.617	1235899	WORD	n/a	wordpools/wordpool_EN.txt	COIN	4	10	[0, 0, 0]	n/a	FR1	0	R1268T
1151.309	0.984	1237516	WORD_OFF	n/a	n/a	COIN	4	10	[0, 0, 0]	n/a	FR1	0	R1268T
1152.293	1.616	1238500	WORD	n/a	wordpools/wordpool_EN.txt	GEESE	5	10	[0, 0, 0]	n/a	FR1	0	R1268T
1153.909	0.95	1240116	WORD_OFF	n/a	n/a	GEESE	5	10	[0, 0, 0]	n/a	FR1	0	R1268T
1154.859	1.618	1241066	WORD	n/a	wordpools/wordpool_EN.txt	PLANT	6	10	[0, 0, 0]	n/a	FR1	0	R1268T
1156.477	0.883	1242684	WORD_OFF	n/a	n/a	PLANT	6	10	[0, 0, 0]	n/a	FR1	0	R1268T
1157.36	1.617	1243567	WORD	n/a	wordpools/wordpool_EN.txt	FOAM	7	10	[0, 0, 0]	n/a	FR1	0	R1268T
1158.977	0.967	1245184	WORD_OFF	n/a	n/a	FOAM	7	10	[0, 0, 0]	n/a	FR1	0	R1268T
1159.944	1.617	1246151	WORD	n/a	wordpools/wordpool_EN.txt	ROPE	8	10	[0, 0, 0]	n/a	FR1	0	R1268T
1161.561	0.951	1247768	WORD_OFF	n/a	n/a	ROPE	8	10	[0, 0, 0]	n/a	FR1	0	R1268T
1162.512	1.616	1248719	WORD	n/a	wordpools/wordpool_EN.txt	HOUSE	9	10	[0, 0, 0]	n/a	FR1	0	R1268T
1164.128	0.766	1250335	WORD_OFF	n/a	n/a	HOUSE	9	10	[0, 0, 0]	n/a	FR1	0	R1268T
1164.894	1.618	1251101	WORD	n/a	wordpools/wordpool_EN.txt	HOOK	10	10	[0, 0, 0]	n/a	FR1	0	R1268T
1166.512	0.884	1252718	WORD_OFF	n/a	n/a	HOOK	10	10	[0, 0, 0]	n/a	FR1	0	R1268T
1167.396	1.617	1253602	WORD	n/a	wordpools/wordpool_EN.txt	SHIP	11	10	[0, 0, 0]	n/a	FR1	0	R1268T
1169.013	0.882	1255219	WORD_OFF	n/a	n/a	SHIP	11	10	[0, 0, 0]	n/a	FR1	0	R1268T
1169.895	1.618	1256101	WORD	n/a	wordpools/wordpool_EN.txt	CLOWN	12	10	[0, 0, 0]	n/a	FR1	0	R1268T
1171.513	0.0	1257719	WORD_OFF	n/a	n/a	CLOWN	12	10	[0, 0, 0]	n/a	FR1	0	R1268T
1171.513	0.0	1257719	DISTRACT_START	n/a	n/a	n/a	-999	10	[0, 0, 0]	n/a	FR1	0	R1268T
1171.513	0.017	1257719	START	n/a	n/a	n/a	-999	10	[-999, -999, -999]	n/a	FR1	0	R1268T
1171.53	7.784	1257736	PROB	7.784	n/a	n/a	-999	10	[4, 9, 4]	17	FR1	0	R1268T
1179.314	8.085	1265520	PROB	8.085	n/a	n/a	-999	10	[4, 9, 3]	15	FR1	0	R1268T
1187.399	3.801	1273604	PROB	3.801	n/a	n/a	-999	10	[3, 2, 3]	8	FR1	0	R1268T
1191.2	7.071	1277405	PROB	7.071	n/a	n/a	-999	10	[3, 3, 9]	15	FR1	0	R1268T
1198.271	0.014	1284475	STOP	n/a	n/a	n/a	-999	10	[-999, -999, -999]	n/a	FR1	0	R1268T
1198.285	0.666	1284489	DISTRACT_END	n/a	n/a	n/a	-999	10	[0, 0, 0]	n/a	FR1	0	R1268T
1198.951	0.518	1285155	RETRIEVAL_ORIENT	n/a	n/a	n/a	-999	10	[0, 0, 0]	n/a	FR1	0	R1268T
1199.469	1.65	1285673	REC_START	n/a	n/a	n/a	-999	10	[0, 0, 0]	n/a	FR1	0	R1268T
1201.119	0.605	1287323	REC_WORD	0.605	n/a	STEAM	-999	10	[0, 0, 0]	n/a	FR1	0	R1268T
1201.724	1.377	1287928	REC_WORD	1.377	n/a	TOY	-999	10	[0, 0, 0]	n/a	FR1	0	R1268T
1203.101	2.717	1289305	REC_WORD	2.717	n/a	SHELL	-999	10	[0, 0, 0]	n/a	FR1	0	R1268T
1205.818	13.375	1292022	REC_WORD	13.375	n/a	SHIP	-999	10	[0, 0, 0]	n/a	FR1	0	R1268T
1219.193	10.287	1305396	REC_WORD	10.287	n/a	HOOK	-999	10	[0, 0, 0]	n/a	FR1	0	R1268T
1229.48	5.911	1315683	REC_END	n/a	n/a	n/a	-999	10	[0, 0, 0]	n/a	FR1	0	R1268T
1235.391	0.5	1321593	TRIAL	n/a	n/a	n/a	-999	11	[0, 0, 0]	n/a	FR1	0	R1268T
1235.891	10.428	1322093	COUNTDOWN_START	n/a	n/a	n/a	-999	11	[0, 0, 0]	n/a	FR1	0	R1268T
1246.319	0.008	1332520	COUNTDOWN_END	n/a	n/a	n/a	-999	11	[0, 0, 0]	n/a	FR1	0	R1268T
1246.327	1.617	1332528	ORIENT	n/a	n/a	n/a	-999	11	[0, 0, 0]	n/a	FR1	0	R1268T
1247.944	2.0	1334145	ORIENT_OFF	n/a	n/a	n/a	-999	11	[0, 0, 0]	n/a	FR1	0	R1268T
1249.944	1.617	1336145	WORD	n/a	wordpools/wordpool_EN.txt	HAT	1	11	[0, 0, 0]	n/a	FR1	0	R1268T
1251.561	0.833	1337762	WORD_OFF	n/a	n/a	HAT	1	11	[0, 0, 0]	n/a	FR1	0	R1268T
1252.394	1.617	1338595	WORD	n/a	wordpools/wordpool_EN.txt	FAN	2	11	[0, 0, 0]	n/a	FR1	0	R1268T
1254.011	0.766	1340212	WORD_OFF	n/a	n/a	FAN	2	11	[0, 0, 0]	n/a	FR1	0	R1268T
1254.777	1.618	1340978	WORD	n/a	wordpools/wordpool_EN.txt	HAWK	3	11	[0, 0, 0]	n/a	FR1	0	R1268T
1256.395	0.817	1342596	WORD_OFF	n/a	n/a	HAWK	3	11	[0, 0, 0]	n/a	FR1	0	R1268T
1257.212	1.616	1343413	WORD	n/a	wordpools/wordpool_EN.txt	SNOW	4	11	[0, 0, 0]	n/a	FR1	0	R1268T
1258.828	0.884	1345029	WORD_OFF	n/a	n/a	SNOW	4	11	[0, 0, 0]	n/a	FR1	0	R1268T
1259.712	1.617	1345913	WORD	n/a	wordpools/wordpool_EN.txt	STEM	5	11	[0, 0, 0]	n/a	FR1	0	R1268T
1261.329	0.767	1347530	WORD_OFF	n/a	n/a	STEM	5	11	[0, 0, 0]	n/a	FR1	0	R1268T
1262.096	1.617	1348297	WORD	n/a	wordpools/wordpool_EN.txt	FUR	6	11	[0, 0, 0]	n/a	FR1	0	R1268T
1263.713	0.784	1349913	WORD_OFF	n/a	n/a	FUR	6	11	[0, 0, 0]	n/a	FR1	0	R1268T
1264.497	1.617	1350697	WORD	n/a	wordpools/wordpool_EN.txt	COUCH	7	11	[0, 0, 0]	n/a	FR1	0	R1268T
1266.114	0.966	1352314	WORD_OFF	n/a	n/a	COUCH	7	11	[0, 0, 0]	n/a	FR1	0	R1268T
1267.08	1.617	1353280	WORD	n/a	wordpools/wordpool_EN.txt	EEL	8	11	[0, 0, 0]	n/a	FR1	0	R1268T
1268.697	0.967	1354897	WORD_OFF	n/a	n/a	EEL	8	11	[0, 0, 0]	n/a	FR1	0	R1268T
1269.664	1.617	1355864	WORD	n/a	wordpools/wordpool_EN.txt	PIE	9	11	[0, 0, 0]	n/a	FR1	0	R1268T
1271.281	0.884	1357481	WORD_OFF	n/a	n/a	PIE	9	11	[0, 0, 0]	n/a	FR1	0	R1268T
1272.165	1.616	1358365	WORD	n/a	wordpools/wordpool_EN.txt	DRUM	10	11	[0, 0, 0]	n/a	FR1	0	R1268T
1273.781	0.851	1359981	WORD_OFF	n/a	n/a	DRUM	10	11	[0, 0, 0]	n/a	FR1	0	R1268T
1274.632	1.617	1360832	WORD	n/a	wordpools/wordpool_EN.txt	VINE	11	11	[0, 0, 0]	n/a	FR1	0	R1268T
1276.249	0.817	1362449	WORD_OFF	n/a	n/a	VINE	11	11	[0, 0, 0]	n/a	FR1	0	R1268T
1277.066	1.616	1363266	WORD	n/a	wordpools/wordpool_EN.txt	TEA	12	11	[0, 0, 0]	n/a	FR1	0	R1268T
1278.682	0.0	1364881	WORD_OFF	n/a	n/a	TEA	12	11	[0, 0, 0]	n/a	FR1	0	R1268T
1278.682	0.001	1364881	DISTRACT_START	n/a	n/a	n/a	-999	11	[0, 0, 0]	n/a	FR1	0	R1268T
1278.683	0.016	1364882	START	n/a	n/a	n/a	-999	11	[-999, -999, -999]	n/a	FR1	0	R1268T
1278.699	9.419	1364898	PROB	9.419	n/a	n/a	-999	11	[1, 6, 2]	9	FR1	0	R1268T
1288.118	6.8	1374317	PROB	6.8	n/a	n/a	-999	11	[9, 2, 6]	17	FR1	0	R1268T
1294.918	3.351	1381116	PROB	3.351	n/a	n/a	-999	11	[3, 5, 7]	15	FR1	0	R1268T
1298.269	2.785	1384467	PROB	2.785	n/a	n/a	-999	11	[3, 2, 7]	12	FR1	0	R1268T
1301.054	0.016	1387252	STOP	n/a	n/a	n/a	-999	11	[-999, -999, -999]	n/a	FR1	0	R1268T
1301.07	0.699	1387268	DISTRACT_END	n/a	n/a	n/a	-999	11	[0, 0, 0]	n/a	FR1	0	R1268T
1301.769	0.519	1387967	RETRIEVAL_ORIENT	n/a	n/a	n/a	-999	11	[0, 0, 0]	n/a	FR1	0	R1268T
1302.288	1.317	1388486	REC_START	n/a	n/a	n/a	-999	11	[0, 0, 0]	n/a	FR1	0	R1268T
1303.605	0.525	1389803	REC_WORD	0.525	n/a	HAT	-999	11	[0, 0, 0]	n/a	FR1	0	R1268T
1304.13	2.025	1390328	REC_WORD	2.025	n/a	FAN	-999	11	[0, 0, 0]	n/a	FR1	0	R1268T
1306.155	1.192	1392353	REC_WORD	1.192	n/a	SOCK	-999	11	[0, 0, 0]	n/a	FR1	0	R1268T
1307.347	2.39	1393545	REC_WORD_VV	2.39	n/a	<>	-999	11	[0, 0, 0]	n/a	FR1	0	R1268T
1309.737	4.891	1395935	REC_WORD	4.891	n/a	COUCH	-999	11	[0, 0, 0]	n/a	FR1	0	R1268T
1314.628	17.672	1400825	REC_WORD	17.672	n/a	SNOW	-999	11	[0, 0, 0]	n/a	FR1	0	R1268T
1332.3	15.478	1418496	REC_END	n/a	n/a	n/a	-999	11	[0, 0, 0]	n/a	FR1	0	R1268T
1347.778	0.5	1433973	TRIAL	n/a	n/a	n/a	-999	12	[0, 0, 0]	n/a	FR1	0	R1268T
1348.278	10.428	1434473	COUNTDOWN_START	n/a	n/a	n/a	-999	12	[0, 0, 0]	n/a	FR1	0	R1268T
1358.706	0.008	1444901	COUNTDOWN_END	n/a	n/a	n/a	-999	12	[0, 0, 0]	n/a	FR1	0	R1268T
1358.714	1.617	1444909	ORIENT	n/a	n/a	n/a	-999	12	[0, 0, 0]	n/a	FR1	0	R1268T
1360.331	2.033	1446525	ORIENT_OFF	n/a	n/a	n/a	-999	12	[0, 0, 0]	n/a	FR1	0	R1268T
1362.364	1.617	1448558	WORD	n/a	wordpools/wordpool_EN.txt	SLEEVE	1	12	[0, 0, 0]	n/a	FR1	0	R1268T
1363.981	0.866	1450175	WORD_OFF	n/a	n/a	SLEEVE	1	12	[0, 0, 0]	n/a	FR1	0	R1268T
1364.847	1.601	1451041	WORD	n/a	wordpools/wordpool_EN.txt	CAKE	2	12	[0, 0, 0]	n/a	FR1	0	R1268T
1366.448	0.867	1452642	WORD_OFF	n/a	n/a	CAKE	2	12	[0, 0, 0]	n/a	FR1	0	R1268T
1367.315	1.617	1453509	WORD	n/a	wordpools/wordpool_EN.txt	SPRING	3	12	[0, 0, 0]	n/a	FR1	0	R1268T
1368.932	0.866	1455126	WORD_OFF	n/a	n/a	SPRING	3	12	[0, 0, 0]	n/a	FR1	0	R1268T
1369.798	1.618	1455992	WORD	n/a	wordpools/wordpool_EN.txt	FORT	4	12	[0, 0, 0]	n/a	FR1	0	R1268T
1371.416	0.884	1457610	WORD_OFF	n/a	n/a	FORT	4	12	[0, 0, 0]	n/a	FR1	0	R1268T
1372.3	1.616	1458494	WORD	n/a	wordpools/wordpool_EN.txt	WOOD	5	12	[0, 0, 0]	n/a	FR1	0	R1268T
1373.916	0.866	1460110	WORD_OFF	n/a	n/a	WOOD	5	12	[0, 0, 0]	n/a	FR1	0	R1268T
1374.782	1.618	1460976	WORD	n/a	wordpools/wordpool_EN.txt	TOOTH	6	12	[0, 0, 0]	n/a	FR1	0	R1268T
1376.4	0.851	1462593	WORD_OFF	n/a	n/a	TOOTH	6	12	[0, 0, 0]	n/a	FR1	0	R1268T
1377.251	1.615	1463444	WORD	n/a	wordpools/wordpool_EN.txt	MOUTH	7	12	[0, 0, 0]	n/a	FR1	0	R1268T
1378.866	0.984	1465059	WORD_OFF	n/a	n/a	MOUTH	7	12	[0, 0, 0]	n/a	FR1	0	R1268T
1379.85	1.618	1466043	WORD	n/a	wordpools/wordpool_EN.txt	CAVE	8	12	[0, 0, 0]	n/a	FR1	0	R1268T
1381.468	0.85	1467661	WORD_OFF	n/a	n/a	CAVE	8	12	[0, 0, 0]	n/a	FR1	0	R1268T
1382.318	1.617	1468511	WORD	n/a	wordpools/wordpool_EN.txt	ELF	9	12	[0, 0, 0]	n/a	FR1	0	R1268T
1383.935	1.017	1470128	WORD_OFF	n/a	n/a	ELF	9	12	[0, 0, 0]	n/a	FR1	0	R1268T
1384.952	1.617	1471145	WORD	n/a	wordpools/wordpool_EN.txt	TOOL	10	12	[0, 0, 0]	n/a	FR1	0	R1268T
1386.569	0.933	1472762	WORD_OFF	n/a	n/a	TOOL	10	12	[0, 0, 0]	n/a	FR1	0	R1268T
1387.502	1.617	1473695	WORD	n/a	wordpools/wordpool_EN.txt	GLASS	11	12	[0, 0, 0]	n/a	FR1	0	R1268T
1389.119	0.967	1475312	WORD_OFF	n/a	n/a	GLASS	11	12	[0, 0, 0]	n/a	FR1	0	R1268T
1390.086	1.617	1476279	WORD	n/a	wordpools/wordpool_EN.txt	EAR	12	12	[0, 0, 0]	n/a	FR1	0	R1268T
1391.703	0.0	1477895	WORD_OFF	n/a	n/a	EAR	12	12	[0, 0, 0]	n/a	FR1	0	R1268T
1391.703	0.001	1477895	DISTRACT_START	n/a	n/a	n/a	-999	12	[0, 0, 0]	n/a	FR1	0	R1268T
1391.704	0.016	1477896	START	n/a	n/a	n/a	-999	12	[-999, -999, -999]	n/a	FR1	0	R1268T
1391.72	3.7	1477912	PROB	3.7	n/a	n/a	-999	12	[3, 7, 1]	1	FR1	0	R1268T
1395.42	9.468	1481612	PROB	9.468	n/a	n/a	-999	12	[4, 8, 7]	19	FR1	0	R1268T
1404.888	4.001	1491080	PROB	4.001	n/a	n/a	-999	12	[7, 8, 4]	19	FR1	0	R1268T
1408.889	5.621	1495080	PROB	5.621	n/a	n/a	-999	12	[9, 5, 4]	18	FR1	0	R1268T
1414.51	0.014	1500701	STOP	n/a	n/a	n/a	-999	12	[-999, -999, -999]	n/a	FR1	0	R1268T
1414.524	0.683	1500715	DISTRACT_END	n/a	n/a	n/a	-999	12	[0, 0, 0]	n/a	FR1	0	R1268T
1415.207	0.518	1501398	RETRIEVAL_ORIENT	n/a	n/a	n/a	-999	12	[0, 0, 0]	n/a	FR1	0	R1268T
1415.725	0.475	1501916	REC_START	n/a	n/a	n/a	-999	12	[0, 0, 0]	n/a	FR1	0	R1268T
1416.2	0.446	1502391	REC_WORD	0.446	n/a	SLEEVE	-999	12	[0, 0, 0]	n/a	FR1	0	R1268T
1416.646	0.331	1502837	REC_WORD	0.331	n/a	CAKE	-999	12	[0, 0, 0]	n/a	FR1	0	R1268T
1416.977	1.918	1503168	REC_WORD	1.918	n/a	SPRING	-999	12	[0, 0, 0]	n/a	FR1	0	R1268T
1418.895	1.801	1505086	REC_WORD	1.801	n/a	FORT	-999	12	[0, 0, 0]	n/a	FR1	0	R1268T
1420.696	5.524	1506887	REC_WORD_VV	5.524	n/a	<>	-999	12	[0, 0, 0]	n/a	FR1	0	R1268T
1426.22	0.998	1512410	REC_WORD	0.998	n/a	GLASS	-999	12	[0, 0, 0]	n/a	FR1	0	R1268T
1427.218	1.512	1513408	REC_WORD	1.512	n/a	WOOD	-999	12	[0, 0, 0]	n/a	FR1	0	R1268T
1428.73	0.691	1514920	REC_WORD	0.691	n/a	MOUTH	-999	12	[0, 0, 0]	n/a	FR1	0	R1268T
1429.421	16.314	1515611	REC_WORD	16.314	n/a	EAR	-999	12	[0, 0, 0]	n/a	FR1	0	R1268T
1445.735	12.03	1531924	REC_END	n/a	n/a	n/a	-999	12	[0, 0, 0]	n/a	FR1	0	R1268T
1457.765	0.5	1543953	TRIAL	n/a	n/a	n/a	-999	13	[0, 0, 0]	n/a	FR1	0	R1268T
1458.265	10.428	1544453	COUNTDOWN_START	n/a	n/a	n/a	-999	13	[0, 0, 0]	n/a	FR1	0	R1268T
1468.693	0.007	1554881	COUNTDOWN_END	n/a	n/a	n/a	-999	13	[0, 0, 0]	n/a	FR1	0	R1268T
1468.7	1.617	1554888	ORIENT	n/a	n/a	n/a	-999	13	[0, 0, 0]	n/a	FR1	0	R1268T
1470.317	1.951	1556505	ORIENT_OFF	n/a	n/a	n/a	-999	13	[0, 0, 0]	n/a	FR1	0	R1268T
1472.268	1.616	1558456	WORD	n/a	wordpools/wordpool_EN.txt	HORSE	1	13	[0, 0, 0]	n/a	FR1	0	R1268T
1473.884	0.834	1560071	WORD_OFF	n/a	n/a	HORSE	1	13	[0, 0, 0]	n/a	FR1	0	R1268T
1474.718	1.617	1560905	WORD	n/a	wordpools/wordpool_EN.txt	PEN	2	13	[0, 0, 0]	n/a	FR1	0	R1268T
1476.335	0.767	1562522	WORD_OFF	n/a	n/a	PEN	2	13	[0, 0, 0]	n/a	FR1	0	R1268T
1477.102	1.617	1563289	WORD	n/a	wordpools/wordpool_EN.txt	CHALK	3	13	[0, 0, 0]	n/a	FR1	0	R1268T
1478.719	0.917	1564906	WORD_OFF	n/a	n/a	CHALK	3	13	[0, 0, 0]	n/a	FR1	0	R1268T
1479.636	1.617	1565823	WORD	n/a	wordpools/wordpool_EN.txt	HEART	4	13	[0, 0, 0]	n/a	FR1	0	R1268T
1481.253	0.95	1567440	WORD_OFF	n/a	n/a	HEART	4	13	[0, 0, 0]	n/a	FR1	0	R1268T
1482.203	1.616	1568390	WORD	n/a	wordpools/wordpool_EN.txt	ARM	5	13	[0, 0, 0]	n/a	FR1	0	R1268T
1483.819	0.818	1570006	WORD_OFF	n/a	n/a	ARM	5	13	[0, 0, 0]	n/a	FR1	0	R1268T
1484.637	1.617	1570824	WORD	n/a	wordpools/wordpool_EN.txt	LEG	6	13	[0, 0, 0]	n/a	FR1	0	R1268T
1486.254	0.983	1572441	WORD_OFF	n/a	n/a	LEG	6	13	[0, 0, 0]	n/a	FR1	0	R1268T
1487.237	1.616	1573424	WORD	n/a	wordpools/wordpool_EN.txt	FOOT	7	13	[0, 0, 0]	n/a	FR1	0	R1268T
1488.853	0.801	1575039	WORD_OFF	n/a	n/a	FOOT	7	13	[0, 0, 0]	n/a	FR1	0	R1268T
1489.654	1.617	1575840	WORD	n/a	wordpools/wordpool_EN.txt	JEEP	8	13	[0, 0, 0]	n/a	FR1	0	R1268T
1491.271	0.817	1577457	WORD_OFF	n/a	n/a	JEEP	8	13	[0, 0, 0]	n/a	FR1	0	R1268T
1492.088	1.617	1578274	WORD	n/a	wordpools/wordpool_EN.txt	BUSH	9	13	[0, 0, 0]	n/a	FR1	0	R1268T
1493.705	0.95	1579891	WORD_OFF	n/a	n/a	BUSH	9	13	[0, 0, 0]	n/a	FR1	0	R1268T
1494.655	1.617	1580841	WORD	n/a	wordpools/wordpool_EN.txt	APE	10	13	[0, 0, 0]	n/a	FR1	0	R1268T
1496.272	0.834	1582458	WORD_OFF	n/a	n/a	APE	10	13	[0, 0, 0]	n/a	FR1	0	R1268T
1497.106	1.617	1583292	WORD	n/a	wordpools/wordpool_EN.txt	CHIN	11	13	[0, 0, 0]	n/a	FR1	0	R1268T
1498.723	0.966	1584909	WORD_OFF	n/a	n/a	CHIN	11	13	[0, 0, 0]	n/a	FR1	0	R1268T
1499.689	1.617	1585875	WORD	n/a	wordpools/wordpool_EN.txt	BROOM	12	13	[0, 0, 0]	n/a	FR1	0	R1268T
1501.306	0.0	1587492	WORD_OFF	n/a	n/a	BROOM	12	13	[0, 0, 0]	n/a	FR1	0	R1268T
1501.306	0.001	1587492	DISTRACT_START	n/a	n/a	n/a	-999	13	[0, 0, 0]	n/a	FR1	0	R1268T
1501.307	0.016	1587493	START	n/a	n/a	n/a	-999	13	[-999, -999, -999]	n/a	FR1	0	R1268T
1501.323	4.884	1587509	PROB	4.884	n/a	n/a	-999	13	[3, 5, 2]	10	FR1	0	R1268T
1506.207	3.834	1592392	PROB	3.834	n/a	n/a	-999	13	[7, 8, 2]	17	FR1	0	R1268T
1510.041	3.968	1596226	PROB	3.968	n/a	n/a	-999	13	[3, 7, 8]	18	FR1	0	R1268T
1514.009	6.318	1600194	PROB	6.318	n/a	n/a	-999	13	[7, 6, 8]	21	FR1	0	R1268T
1520.327	3.744	1606512	PROB	3.744	n/a	n/a	-999	13	[7, 7, 6]	20	FR1	0	R1268T
1524.071	0.006	1610255	STOP	n/a	n/a	n/a	-999	13	[-999, -999, -999]	n/a	FR1	0	R1268T
1524.077	0.634	1610261	DISTRACT_END	n/a	n/a	n/a	-999	13	[0, 0, 0]	n/a	FR1	0	R1268T
1524.711	0.517	1610895	RETRIEVAL_ORIENT	n/a	n/a	n/a	-999	13	[0, 0, 0]	n/a	FR1	0	R1268T
1525.228	1.116	1611412	REC_START	n/a	n/a	n/a	-999	13	[0, 0, 0]	n/a	FR1	0	R1268T
1526.344	1.277	1612528	REC_WORD	1.277	n/a	HORSE	-999	13	[0, 0, 0]	n/a	FR1	0	R1268T
1527.621	0.312	1613805	REC_WORD	0.312	n/a	PIN	-999	13	[0, 0, 0]	n/a	FR1	0	R1268T
1527.933	0.538	1614117	REC_WORD	0.538	n/a	CHALK	-999	13	[0, 0, 0]	n/a	FR1	0	R1268T
1528.471	1.345	1614655	REC_WORD	1.345	n/a	ART	-999	13	[0, 0, 0]	n/a	FR1	0	R1268T
1529.816	0.521	1616000	REC_WORD	0.521	n/a	BRUSH	-999	13	[0, 0, 0]	n/a	FR1	0	R1268T
1530.337	1.418	1616521	REC_WORD	1.418	n/a	BROOM	-999	13	[0, 0, 0]	n/a	FR1	0	R1268T
1531.755	10.222	1617939	REC_WORD	10.222	n/a	CHIN	-999	13	[0, 0, 0]	n/a	FR1	0	R1268T
1541.977	13.261	1628160	REC_WORD_VV	13.261	n/a	<>	-999	13	[0, 0, 0]	n/a	FR1	0	R1268T
1555.238	0.0	1641420	REC_END	n/a	n/a	n/a	-999	13	[0, 0, 0]	n/a	FR1	0	R1268T
