onset	duration	sample	trial_type	response_time	stim_file	item_name	serialpos	list	test	answer	experiment	session	subject
0.0	159.649	72570	SESS_START	n/a	n/a	n/a	-999	-999	[0, 0, 0]	n/a	FR1	0	R1039M
159.649	10.428	152390	COUNTDOWN_START	n/a	n/a	n/a	-999	-999	[0, 0, 0]	n/a	FR1	0	R1039M
170.077	3.675	157604	COUNTDOWN_END	n/a	n/a	n/a	-999	-999	[0, 0, 0]	n/a	FR1	0	R1039M
173.752	2.399	159441	PRACTICE_WORD	n/a	n/a	HIERRO	1	-1	[0, 0, 0]	n/a	FR1	0	R1039M
176.151	2.468	160641	PRACTICE_WORD	n/a	n/a	VAGON	2	-1	[0, 0, 0]	n/a	FR1	0	R1039M
178.619	2.433	161875	PRACTICE_WORD	n/a	n/a	ATICO	3	-1	[0, 0, 0]	n/a	FR1	0	R1039M
181.052	2.602	163091	PRACTICE_WORD	n/a	n/a	ALGODON	4	-1	[0, 0, 0]	n/a	FR1	0	R1039M
183.654	2.416	164392	PRACTICE_WORD	n/a	n/a	ANILLO	5	-1	[0, 0, 0]	n/a	FR1	0	R1039M
186.07	2.601	165600	PRACTICE_WORD	n/a	n/a	CAMELLO	6	-1	[0, 0, 0]	n/a	FR1	0	R1039M
188.671	2.566	166900	PRACTICE_WORD	n/a	n/a	LENGUA	7	-1	[0, 0, 0]	n/a	FR1	0	R1039M
191.237	2.402	168183	PRACTICE_WORD	n/a	n/a	RINOCERONTE	8	-1	[0, 0, 0]	n/a	FR1	0	R1039M
193.639	2.449	169384	PRACTICE_WORD	n/a	n/a	RELOJ	9	-1	[0, 0, 0]	n/a	FR1	0	R1039M
196.088	2.402	170609	PRACTICE_WORD	n/a	n/a	HAZ	10	-1	[0, 0, 0]	n/a	FR1	0	R1039M
198.49	2.599	171810	PRACTICE_WORD	n/a	n/a	INUNDACION	11	-1	[0, 0, 0]	n/a	FR1	0	R1039M
201.089	1.601	173109	PRACTICE_WORD	n/a	n/a	PECHO	12	-1	[0, 0, 0]	n/a	FR1	0	R1039M
202.69	0.001	173910	PRACTICE_DISTRACT_START	n/a	n/a	n/a	-999	-1	[0, 0, 0]	n/a	FR1	0	R1039M
202.691	0.016	173910	START	n/a	n/a	n/a	-999	-1	[-999, -999, -999]	n/a	FR1	0	R1039M
202.707	6.235	173918	PROB	6.235	n/a	n/a	-999	-1	[9, 1, 5]	15	FR1	0	R1039M
208.942	4.984	177035	PROB	4.984	n/a	n/a	-999	-1	[3, 1, 9]	13	FR1	0	R1039M
213.926	5.718	179527	PROB	5.718	n/a	n/a	-999	-1	[4, 4, 7]	15	FR1	0	R1039M
219.644	8.359	182386	PROB	8.359	n/a	n/a	-999	-1	[5, 6, 8]	19	FR1	0	R1039M
228.003	0.008	186565	STOP	n/a	n/a	n/a	-999	-1	[-999, -999, -999]	n/a	FR1	0	R1039M
228.011	0.57	186569	PRACTICE_DISTRACT_END	n/a	n/a	n/a	-999	-1	[0, 0, 0]	n/a	FR1	0	R1039M
228.581	30.514	186854	PRACTICE_REC_START	n/a	n/a	n/a	-999	-1	[0, 0, 0]	n/a	FR1	0	R1039M
259.095	45.248	202111	PRACTICE_REC_END	n/a	n/a	n/a	-999	-1	[0, 0, 0]	n/a	FR1	0	R1039M
304.343	0.001	224733	COUNTDOWN_START	n/a	n/a	n/a	-999	1	[0, 0, 0]	n/a	FR1	0	R1039M
304.344	10.427	224734	TRIAL	n/a	n/a	n/a	-999	1	[0, 0, 0]	n/a	FR1	0	R1039M
314.771	0.008	229947	COUNTDOWN_END	n/a	n/a	n/a	-999	1	[0, 0, 0]	n/a	FR1	0	R1039M
314.779	2.466	229951	ORIENT	n/a	n/a	n/a	-999	1	[0, 0, 0]	n/a	FR1	0	R1039M
317.245	2.468	231184	WORD	n/a	wordpools/wordpool_SP.txt	TARRO	1	1	[0, 0, 0]	n/a	FR1	0	R1039M
319.713	2.433	232418	WORD	n/a	wordpools/wordpool_SP.txt	SORBETE	2	1	[0, 0, 0]	n/a	FR1	0	R1039M
322.146	2.552	233634	WORD	n/a	wordpools/wordpool_SP.txt	MENTON	3	1	[0, 0, 0]	n/a	FR1	0	R1039M
324.698	2.432	234910	WORD	n/a	wordpools/wordpool_SP.txt	PICO	4	1	[0, 0, 0]	n/a	FR1	0	R1039M
327.13	2.619	236126	WORD	n/a	wordpools/wordpool_SP.txt	CARA	5	1	[0, 0, 0]	n/a	FR1	0	R1039M
329.749	2.617	237436	WORD	n/a	wordpools/wordpool_SP.txt	MUNECO	6	1	[0, 0, 0]	n/a	FR1	0	R1039M
332.366	2.484	238744	WORD	n/a	wordpools/wordpool_SP.txt	PATIO	7	1	[0, 0, 0]	n/a	FR1	0	R1039M
334.85	2.467	239986	WORD	n/a	wordpools/wordpool_SP.txt	MEJILLA	8	1	[0, 0, 0]	n/a	FR1	0	R1039M
337.317	2.467	241220	WORD	n/a	wordpools/wordpool_SP.txt	TE	9	1	[0, 0, 0]	n/a	FR1	0	R1039M
339.784	2.449	242453	WORD	n/a	wordpools/wordpool_SP.txt	FREGADERO	10	1	[0, 0, 0]	n/a	FR1	0	R1039M
342.233	2.469	243677	WORD	n/a	wordpools/wordpool_SP.txt	SILLA	11	1	[0, 0, 0]	n/a	FR1	0	R1039M
344.702	1.616	244912	WORD	n/a	wordpools/wordpool_SP.txt	BOLSA	12	1	[0, 0, 0]	n/a	FR1	0	R1039M
346.318	0.001	245720	DISTRACT_START	n/a	n/a	n/a	-999	1	[0, 0, 0]	n/a	FR1	0	R1039M
346.319	0.016	245720	START	n/a	n/a	n/a	-999	1	[-999, -999, -999]	n/a	FR1	0	R1039M
346.335	8.202	245728	PROB	8.202	n/a	n/a	-999	1	[4, 9, 3]	16	FR1	0	R1039M
354.537	8.801	249829	PROB	8.801	n/a	n/a	-999	1	[5, 3, 3]	14	FR1	0	R1039M
363.338	8.562	254229	PROB	8.562	n/a	n/a	-999	1	[6, 9, 2]	17	FR1	0	R1039M
371.9	0.007	258510	STOP	n/a	n/a	n/a	-999	1	[-999, -999, -999]	n/a	FR1	0	R1039M
371.907	1.084	258514	DISTRACT_END	n/a	n/a	n/a	-999	1	[0, 0, 0]	n/a	FR1	0	R1039M
372.991	4.806	259056	REC_START	n/a	n/a	n/a	-999	1	[0, 0, 0]	n/a	FR1	0	R1039M
377.797	1.29	261458	REC_WORD	1.29	n/a	LIBRO	-999	1	[0, 0, 0]	n/a	FR1	0	R1039M
379.087	0.955	262103	REC_WORD	0.955	n/a	MEJILLA	-999	1	[0, 0, 0]	n/a	FR1	0	R1039M
380.042	3.105	262581	REC_WORD	3.105	n/a	PERLA	-999	1	[0, 0, 0]	n/a	FR1	0	R1039M
383.147	3.498	264133	REC_WORD	3.498	n/a	SILLA	-999	1	[0, 0, 0]	n/a	FR1	0	R1039M
386.645	10.418	265882	REC_WORD	10.418	n/a	RELOJ	-999	1	[0, 0, 0]	n/a	FR1	0	R1039M
397.063	5.937	271091	REC_WORD	5.937	n/a	MESA	-999	1	[0, 0, 0]	n/a	FR1	0	R1039M
403.0	4.28	274059	REC_END	n/a	n/a	n/a	-999	1	[0, 0, 0]	n/a	FR1	0	R1039M
407.28	0.0	276199	TRIAL	n/a	n/a	n/a	-999	2	[0, 0, 0]	n/a	FR1	0	R1039M
407.28	10.428	276199	COUNTDOWN_START	n/a	n/a	n/a	-999	2	[0, 0, 0]	n/a	FR1	0	R1039M
417.708	0.007	281413	COUNTDOWN_END	n/a	n/a	n/a	-999	2	[0, 0, 0]	n/a	FR1	0	R1039M
417.715	2.45	281416	ORIENT	n/a	n/a	n/a	-999	2	[0, 0, 0]	n/a	FR1	0	R1039M
420.165	2.468	282641	WORD	n/a	wordpools/wordpool_SP.txt	JEEP	1	2	[0, 0, 0]	n/a	FR1	0	R1039M
422.633	2.516	283875	WORD	n/a	wordpools/wordpool_SP.txt	BOCA	2	2	[0, 0, 0]	n/a	FR1	0	R1039M
425.149	2.568	285133	WORD	n/a	wordpools/wordpool_SP.txt	ROBLE	3	2	[0, 0, 0]	n/a	FR1	0	R1039M
427.717	2.634	286417	WORD	n/a	wordpools/wordpool_SP.txt	CUBO	4	2	[0, 0, 0]	n/a	FR1	0	R1039M
430.351	2.434	287734	WORD	n/a	wordpools/wordpool_SP.txt	RASTRILLO	5	2	[0, 0, 0]	n/a	FR1	0	R1039M
432.785	2.551	288951	WORD	n/a	wordpools/wordpool_SP.txt	CARPA	6	2	[0, 0, 0]	n/a	FR1	0	R1039M
435.336	2.417	290226	WORD	n/a	wordpools/wordpool_SP.txt	MASCOTA	7	2	[0, 0, 0]	n/a	FR1	0	R1039M
437.753	2.466	291435	WORD	n/a	wordpools/wordpool_SP.txt	TREN	8	2	[0, 0, 0]	n/a	FR1	0	R1039M
440.219	2.385	292668	WORD	n/a	wordpools/wordpool_SP.txt	SOMBRERO	9	2	[0, 0, 0]	n/a	FR1	0	R1039M
442.604	2.616	293860	WORD	n/a	wordpools/wordpool_SP.txt	CAPA	10	2	[0, 0, 0]	n/a	FR1	0	R1039M
445.22	2.568	295168	WORD	n/a	wordpools/wordpool_SP.txt	GATO	11	2	[0, 0, 0]	n/a	FR1	0	R1039M
447.788	1.617	296452	WORD	n/a	wordpools/wordpool_SP.txt	VACA	12	2	[0, 0, 0]	n/a	FR1	0	R1039M
449.405	0.001	297261	DISTRACT_START	n/a	n/a	n/a	-999	2	[0, 0, 0]	n/a	FR1	0	R1039M
449.406	0.016	297261	START	n/a	n/a	n/a	-999	2	[-999, -999, -999]	n/a	FR1	0	R1039M
449.422	22.342	297269	PROB	22.342	n/a	n/a	-999	2	[5, 8, 9]	30	FR1	0	R1039M
471.764	0.012	308439	STOP	n/a	n/a	n/a	-999	2	[-999, -999, -999]	n/a	FR1	0	R1039M
471.776	1.101	308445	DISTRACT_END	n/a	n/a	n/a	-999	2	[0, 0, 0]	n/a	FR1	0	R1039M
472.877	1.644	308996	REC_START	n/a	n/a	n/a	-999	2	[0, 0, 0]	n/a	FR1	0	R1039M
474.521	0.473	309818	REC_WORD	0.473	n/a	CARA	-999	2	[0, 0, 0]	n/a	FR1	0	R1039M
474.994	0.774	310054	REC_WORD_VV	0.774	n/a	<>	-999	2	[0, 0, 0]	n/a	FR1	0	R1039M
475.768	9.15	310441	REC_WORD	9.15	n/a	MUNECO	-999	2	[0, 0, 0]	n/a	FR1	0	R1039M
484.918	2.479	315016	REC_WORD	2.479	n/a	GRIS	-999	2	[0, 0, 0]	n/a	FR1	0	R1039M
487.397	11.796	316256	REC_WORD	11.796	n/a	BOCA	-999	2	[0, 0, 0]	n/a	FR1	0	R1039M
499.193	1.768	322153	REC_WORD	1.768	n/a	MASCOTA	-999	2	[0, 0, 0]	n/a	FR1	0	R1039M
500.961	1.926	323037	REC_WORD	1.926	n/a	GATO	-999	2	[0, 0, 0]	n/a	FR1	0	R1039M
502.887	3.429	324000	REC_END	n/a	n/a	n/a	-999	2	[0, 0, 0]	n/a	FR1	0	R1039M
506.316	0.0	325715	TRIAL	n/a	n/a	n/a	-999	3	[0, 0, 0]	n/a	FR1	0	R1039M
506.316	10.428	325715	COUNTDOWN_START	n/a	n/a	n/a	-999	3	[0, 0, 0]	n/a	FR1	0	R1039M
516.744	0.007	330928	COUNTDOWN_END	n/a	n/a	n/a	-999	3	[0, 0, 0]	n/a	FR1	0	R1039M
516.751	2.433	330932	ORIENT	n/a	n/a	n/a	-999	3	[0, 0, 0]	n/a	FR1	0	R1039M
519.184	2.602	332148	WORD	n/a	wordpools/wordpool_SP.txt	CUADRADO	1	3	[0, 0, 0]	n/a	FR1	0	R1039M
521.786	2.432	333449	WORD	n/a	wordpools/wordpool_SP.txt	LADRILLO	2	3	[0, 0, 0]	n/a	FR1	0	R1039M
524.218	2.369	334665	WORD	n/a	wordpools/wordpool_SP.txt	HUMO	3	3	[0, 0, 0]	n/a	FR1	0	R1039M
526.587	2.582	335850	WORD	n/a	wordpools/wordpool_SP.txt	UNA	4	3	[0, 0, 0]	n/a	FR1	0	R1039M
529.169	2.552	337140	WORD	n/a	wordpools/wordpool_SP.txt	ALFILER	5	3	[0, 0, 0]	n/a	FR1	0	R1039M
531.721	2.416	338416	WORD	n/a	wordpools/wordpool_SP.txt	CHALECO	6	3	[0, 0, 0]	n/a	FR1	0	R1039M
534.137	2.451	339624	WORD	n/a	wordpools/wordpool_SP.txt	BALLENA	7	3	[0, 0, 0]	n/a	FR1	0	R1039M
536.588	2.483	340850	WORD	n/a	wordpools/wordpool_SP.txt	NIEVE	8	3	[0, 0, 0]	n/a	FR1	0	R1039M
539.071	2.485	342091	WORD	n/a	wordpools/wordpool_SP.txt	LLAMA	9	3	[0, 0, 0]	n/a	FR1	0	R1039M
541.556	2.566	343334	WORD	n/a	wordpools/wordpool_SP.txt	MUELLE	10	3	[0, 0, 0]	n/a	FR1	0	R1039M
544.122	2.535	344617	WORD	n/a	wordpools/wordpool_SP.txt	TORMENTA	11	3	[0, 0, 0]	n/a	FR1	0	R1039M
546.657	1.616	345884	WORD	n/a	wordpools/wordpool_SP.txt	LAGO	12	3	[0, 0, 0]	n/a	FR1	0	R1039M
548.273	0.001	346692	DISTRACT_START	n/a	n/a	n/a	-999	3	[0, 0, 0]	n/a	FR1	0	R1039M
548.274	0.017	346692	START	n/a	n/a	n/a	-999	3	[-999, -999, -999]	n/a	FR1	0	R1039M
548.291	8.268	346701	PROB	8.268	n/a	n/a	-999	3	[3, 8, 6]	17	FR1	0	R1039M
556.559	19.548	350835	PROB	19.548	n/a	n/a	-999	3	[4, 4, 7]	16	FR1	0	R1039M
576.107	0.004	360608	STOP	n/a	n/a	n/a	-999	3	[-999, -999, -999]	n/a	FR1	0	R1039M
576.111	1.085	360610	DISTRACT_END	n/a	n/a	n/a	-999	3	[0, 0, 0]	n/a	FR1	0	R1039M
577.196	1.295	361153	REC_START	n/a	n/a	n/a	-999	3	[0, 0, 0]	n/a	FR1	0	R1039M
578.491	3.945	361800	REC_WORD	3.945	n/a	ARROYO	-999	3	[0, 0, 0]	n/a	FR1	0	R1039M
582.436	15.213	363773	REC_WORD	15.213	n/a	TORMENTA	-999	3	[0, 0, 0]	n/a	FR1	0	R1039M
597.649	4.708	371379	REC_WORD	4.708	n/a	LAGO	-999	3	[0, 0, 0]	n/a	FR1	0	R1039M
602.357	4.849	373733	REC_WORD	4.849	n/a	LLAMA	-999	3	[0, 0, 0]	n/a	FR1	0	R1039M
607.206	11.648	376157	REC_END	n/a	n/a	n/a	-999	3	[0, 0, 0]	n/a	FR1	0	R1039M
618.854	0.001	381981	COUNTDOWN_START	n/a	n/a	n/a	-999	4	[0, 0, 0]	n/a	FR1	0	R1039M
618.855	10.427	381981	TRIAL	n/a	n/a	n/a	-999	4	[0, 0, 0]	n/a	FR1	0	R1039M
629.282	0.008	387194	COUNTDOWN_END	n/a	n/a	n/a	-999	4	[0, 0, 0]	n/a	FR1	0	R1039M
629.29	2.534	387198	ORIENT	n/a	n/a	n/a	-999	4	[0, 0, 0]	n/a	FR1	0	R1039M
631.824	2.449	388465	WORD	n/a	wordpools/wordpool_SP.txt	TENEDOR	1	4	[0, 0, 0]	n/a	FR1	0	R1039M
634.273	2.568	389690	WORD	n/a	wordpools/wordpool_SP.txt	BANCO	2	4	[0, 0, 0]	n/a	FR1	0	R1039M
636.841	2.617	390974	WORD	n/a	wordpools/wordpool_SP.txt	MANGA	3	4	[0, 0, 0]	n/a	FR1	0	R1039M
639.458	2.467	392282	WORD	n/a	wordpools/wordpool_SP.txt	VARITA	4	4	[0, 0, 0]	n/a	FR1	0	R1039M
641.925	2.418	393515	WORD	n/a	wordpools/wordpool_SP.txt	DEDO	5	4	[0, 0, 0]	n/a	FR1	0	R1039M
644.343	2.467	394724	WORD	n/a	wordpools/wordpool_SP.txt	CATRE	6	4	[0, 0, 0]	n/a	FR1	0	R1039M
646.81	2.484	395958	WORD	n/a	wordpools/wordpool_SP.txt	VERJA	7	4	[0, 0, 0]	n/a	FR1	0	R1039M
649.294	2.417	397200	WORD	n/a	wordpools/wordpool_SP.txt	CORDEL	8	4	[0, 0, 0]	n/a	FR1	0	R1039M
651.711	2.617	398408	WORD	n/a	wordpools/wordpool_SP.txt	VID	9	4	[0, 0, 0]	n/a	FR1	0	R1039M
654.328	2.584	399717	WORD	n/a	wordpools/wordpool_SP.txt	LANZA	10	4	[0, 0, 0]	n/a	FR1	0	R1039M
656.912	2.584	401009	WORD	n/a	wordpools/wordpool_SP.txt	CORBATA	11	4	[0, 0, 0]	n/a	FR1	0	R1039M
659.496	1.616	402300	WORD	n/a	wordpools/wordpool_SP.txt	PALMA	12	4	[0, 0, 0]	n/a	FR1	0	R1039M
661.112	0.001	403108	DISTRACT_START	n/a	n/a	n/a	-999	4	[0, 0, 0]	n/a	FR1	0	R1039M
661.113	0.015	403109	START	n/a	n/a	n/a	-999	4	[-999, -999, -999]	n/a	FR1	0	R1039M
661.128	4.535	403116	PROB	4.535	n/a	n/a	-999	4	[5, 5, 3]	13	FR1	0	R1039M
665.663	6.584	405384	PROB	6.584	n/a	n/a	-999	4	[4, 6, 9]	19	FR1	0	R1039M
672.247	7.252	408676	PROB	7.252	n/a	n/a	-999	4	[9, 3, 7]	19	FR1	0	R1039M
679.499	6.433	412301	PROB	6.433	n/a	n/a	-999	4	[3, 1, 9]	13	FR1	0	R1039M
685.932	0.019	415518	STOP	n/a	n/a	n/a	-999	4	[-999, -999, -999]	n/a	FR1	0	R1039M
685.951	1.183	415527	DISTRACT_END	n/a	n/a	n/a	-999	4	[0, 0, 0]	n/a	FR1	0	R1039M
687.134	0.619	416119	REC_START	n/a	n/a	n/a	-999	4	[0, 0, 0]	n/a	FR1	0	R1039M
687.753	2.192	416428	REC_WORD	2.192	n/a	ALFILER	-999	4	[0, 0, 0]	n/a	FR1	0	R1039M
689.945	0.859	417524	REC_WORD	0.859	n/a	LLAMA	-999	4	[0, 0, 0]	n/a	FR1	0	R1039M
690.804	5.293	417954	REC_WORD	5.293	n/a	CATRE	-999	4	[0, 0, 0]	n/a	FR1	0	R1039M
696.097	9.545	420600	REC_WORD	9.545	n/a	VAJILLA	-999	4	[0, 0, 0]	n/a	FR1	0	R1039M
705.642	3.865	425372	REC_WORD	3.865	n/a	BAHIA	-999	4	[0, 0, 0]	n/a	FR1	0	R1039M
709.507	7.637	427305	REC_WORD_VV	7.637	n/a	<>	-999	4	[0, 0, 0]	n/a	FR1	0	R1039M
717.144	12.548	431123	REC_END	n/a	n/a	n/a	-999	4	[0, 0, 0]	n/a	FR1	0	R1039M
729.692	0.001	437397	COUNTDOWN_START	n/a	n/a	n/a	-999	5	[0, 0, 0]	n/a	FR1	0	R1039M
729.693	10.427	437397	TRIAL	n/a	n/a	n/a	-999	5	[0, 0, 0]	n/a	FR1	0	R1039M
740.12	0.007	442610	COUNTDOWN_END	n/a	n/a	n/a	-999	5	[0, 0, 0]	n/a	FR1	0	R1039M
740.127	2.485	442614	ORIENT	n/a	n/a	n/a	-999	5	[0, 0, 0]	n/a	FR1	0	R1039M
742.612	2.399	443856	WORD	n/a	wordpools/wordpool_SP.txt	HILO	1	5	[0, 0, 0]	n/a	FR1	0	R1039M
745.011	2.601	445056	WORD	n/a	wordpools/wordpool_SP.txt	TARTA	2	5	[0, 0, 0]	n/a	FR1	0	R1039M
747.612	2.483	446356	WORD	n/a	wordpools/wordpool_SP.txt	PARED	3	5	[0, 0, 0]	n/a	FR1	0	R1039M
750.095	2.518	447598	WORD	n/a	wordpools/wordpool_SP.txt	TRAJE	4	5	[0, 0, 0]	n/a	FR1	0	R1039M
752.613	2.533	448857	WORD	n/a	wordpools/wordpool_SP.txt	FILETE	5	5	[0, 0, 0]	n/a	FR1	0	R1039M
755.146	2.568	450123	WORD	n/a	wordpools/wordpool_SP.txt	JARRON	6	5	[0, 0, 0]	n/a	FR1	0	R1039M
757.714	2.483	451407	WORD	n/a	wordpools/wordpool_SP.txt	AGUANIEVE	7	5	[0, 0, 0]	n/a	FR1	0	R1039M
760.197	2.552	452648	WORD	n/a	wordpools/wordpool_SP.txt	TOSTADA	8	5	[0, 0, 0]	n/a	FR1	0	R1039M
762.749	2.6	453924	WORD	n/a	wordpools/wordpool_SP.txt	TELEFONO	9	5	[0, 0, 0]	n/a	FR1	0	R1039M
765.349	2.467	455224	WORD	n/a	wordpools/wordpool_SP.txt	BANDA	10	5	[0, 0, 0]	n/a	FR1	0	R1039M
767.816	2.618	456458	WORD	n/a	wordpools/wordpool_SP.txt	CORREO	11	5	[0, 0, 0]	n/a	FR1	0	R1039M
770.434	1.616	457767	WORD	n/a	wordpools/wordpool_SP.txt	CAMARON	12	5	[0, 0, 0]	n/a	FR1	0	R1039M
772.05	0.001	458575	DISTRACT_START	n/a	n/a	n/a	-999	5	[0, 0, 0]	n/a	FR1	0	R1039M
772.051	0.015	458575	START	n/a	n/a	n/a	-999	5	[-999, -999, -999]	n/a	FR1	0	R1039M
772.066	5.201	458583	PROB	5.201	n/a	n/a	-999	5	[1, 8, 8]	17	FR1	0	R1039M
777.267	4.951	461183	PROB	4.951	n/a	n/a	-999	5	[7, 6, 1]	14	FR1	0	R1039M
782.218	5.236	463658	PROB	5.236	n/a	n/a	-999	5	[1, 6, 7]	14	FR1	0	R1039M
787.454	4.467	466276	PROB	4.467	n/a	n/a	-999	5	[2, 8, 1]	11	FR1	0	R1039M
791.921	12.787	468509	PROB	12.787	n/a	n/a	-999	5	[7, 7, 8]	20	FR1	0	R1039M
804.708	0.016	474903	STOP	n/a	n/a	n/a	-999	5	[-999, -999, -999]	n/a	FR1	0	R1039M
804.724	1.151	474911	DISTRACT_END	n/a	n/a	n/a	-999	5	[0, 0, 0]	n/a	FR1	0	R1039M
805.875	1.603	475486	REC_START	n/a	n/a	n/a	-999	5	[0, 0, 0]	n/a	FR1	0	R1039M
807.478	5.502	476288	REC_WORD_VV	5.502	n/a	<>	-999	5	[0, 0, 0]	n/a	FR1	0	R1039M
812.98	6.447	479038	REC_WORD_VV	6.447	n/a	<>	-999	5	[0, 0, 0]	n/a	FR1	0	R1039M
819.427	1.807	482262	REC_WORD	1.807	n/a	NIEVE	-999	5	[0, 0, 0]	n/a	FR1	0	R1039M
821.234	2.599	483165	REC_WORD	2.599	n/a	HIERRO	-999	5	[0, 0, 0]	n/a	FR1	0	R1039M
823.833	3.63	484465	REC_WORD	3.63	n/a	RELOJ	-999	5	[0, 0, 0]	n/a	FR1	0	R1039M
827.463	3.133	486280	REC_WORD	3.133	n/a	VAJILLA	-999	5	[0, 0, 0]	n/a	FR1	0	R1039M
830.596	2.285	487846	REC_WORD	2.285	n/a	CORREO	-999	5	[0, 0, 0]	n/a	FR1	0	R1039M
832.881	3.004	488988	REC_WORD	3.004	n/a	CAMARON	-999	5	[0, 0, 0]	n/a	FR1	0	R1039M
835.885	12.747	490490	REC_END	n/a	n/a	n/a	-999	5	[0, 0, 0]	n/a	FR1	0	R1039M
848.632	0.0	496863	COUNTDOWN_START	n/a	n/a	n/a	-999	6	[0, 0, 0]	n/a	FR1	0	R1039M
848.632	10.428	496863	TRIAL	n/a	n/a	n/a	-999	6	[0, 0, 0]	n/a	FR1	0	R1039M
859.06	0.006	502077	COUNTDOWN_END	n/a	n/a	n/a	-999	6	[0, 0, 0]	n/a	FR1	0	R1039M
859.066	2.368	502080	ORIENT	n/a	n/a	n/a	-999	6	[0, 0, 0]	n/a	FR1	0	R1039M
861.434	2.384	503264	WORD	n/a	wordpools/wordpool_SP.txt	ABEJA	1	6	[0, 0, 0]	n/a	FR1	0	R1039M
863.818	2.416	504456	WORD	n/a	wordpools/wordpool_SP.txt	TIENDA	2	6	[0, 0, 0]	n/a	FR1	0	R1039M
866.234	2.535	505664	WORD	n/a	wordpools/wordpool_SP.txt	LUNAR	3	6	[0, 0, 0]	n/a	FR1	0	R1039M
868.769	2.601	506931	WORD	n/a	wordpools/wordpool_SP.txt	ROCA	4	6	[0, 0, 0]	n/a	FR1	0	R1039M
871.37	2.484	508232	WORD	n/a	wordpools/wordpool_SP.txt	AVE	5	6	[0, 0, 0]	n/a	FR1	0	R1039M
873.854	2.516	509474	WORD	n/a	wordpools/wordpool_SP.txt	OSO	6	6	[0, 0, 0]	n/a	FR1	0	R1039M
876.37	2.551	510732	WORD	n/a	wordpools/wordpool_SP.txt	LLUVIA	7	6	[0, 0, 0]	n/a	FR1	0	R1039M
878.921	2.601	512007	WORD	n/a	wordpools/wordpool_SP.txt	MONO	8	6	[0, 0, 0]	n/a	FR1	0	R1039M
881.522	2.549	513308	WORD	n/a	wordpools/wordpool_SP.txt	HORMIGA	9	6	[0, 0, 0]	n/a	FR1	0	R1039M
884.071	2.402	514582	WORD	n/a	wordpools/wordpool_SP.txt	NIDO	10	6	[0, 0, 0]	n/a	FR1	0	R1039M
886.473	2.417	515783	WORD	n/a	wordpools/wordpool_SP.txt	CARCEL	11	6	[0, 0, 0]	n/a	FR1	0	R1039M
888.89	1.617	516991	WORD	n/a	wordpools/wordpool_SP.txt	RATA	12	6	[0, 0, 0]	n/a	FR1	0	R1039M
890.507	0.001	517800	DISTRACT_START	n/a	n/a	n/a	-999	6	[0, 0, 0]	n/a	FR1	0	R1039M
890.508	0.016	517800	START	n/a	n/a	n/a	-999	6	[-999, -999, -999]	n/a	FR1	0	R1039M
890.524	12.035	517808	PROB	12.035	n/a	n/a	-999	6	[1, 6, 7]	14	FR1	0	R1039M
902.559	9.333	523826	PROB	9.333	n/a	n/a	-999	6	[2, 9, 7]	18	FR1	0	R1039M
911.892	0.019	528492	STOP	n/a	n/a	n/a	-999	6	[-999, -999, -999]	n/a	FR1	0	R1039M
911.911	1.067	528501	DISTRACT_END	n/a	n/a	n/a	-999	6	[0, 0, 0]	n/a	FR1	0	R1039M
912.978	4.508	529035	REC_START	n/a	n/a	n/a	-999	6	[0, 0, 0]	n/a	FR1	0	R1039M
917.486	1.062	531289	REC_WORD	1.062	n/a	CAMARON	-999	6	[0, 0, 0]	n/a	FR1	0	R1039M
918.548	0.611	531820	REC_WORD	0.611	n/a	OSO	-999	6	[0, 0, 0]	n/a	FR1	0	R1039M
919.159	3.814	532125	REC_WORD	3.814	n/a	AVE	-999	6	[0, 0, 0]	n/a	FR1	0	R1039M
922.973	12.267	534032	REC_WORD	12.267	n/a	NIDO	-999	6	[0, 0, 0]	n/a	FR1	0	R1039M
935.24	7.748	540165	REC_WORD	7.748	n/a	BALLENA	-999	6	[0, 0, 0]	n/a	FR1	0	R1039M
942.988	33.319	544039	REC_END	n/a	n/a	n/a	-999	6	[0, 0, 0]	n/a	FR1	0	R1039M
976.307	0.0	560698	TRIAL	n/a	n/a	n/a	-999	7	[0, 0, 0]	n/a	FR1	0	R1039M
976.307	10.428	560698	COUNTDOWN_START	n/a	n/a	n/a	-999	7	[0, 0, 0]	n/a	FR1	0	R1039M
986.735	0.007	565911	COUNTDOWN_END	n/a	n/a	n/a	-999	7	[0, 0, 0]	n/a	FR1	0	R1039M
986.742	2.533	565915	ORIENT	n/a	n/a	n/a	-999	7	[0, 0, 0]	n/a	FR1	0	R1039M
989.275	2.418	567181	WORD	n/a	wordpools/wordpool_SP.txt	TALLO	1	7	[0, 0, 0]	n/a	FR1	0	R1039M
991.693	2.416	568390	WORD	n/a	wordpools/wordpool_SP.txt	LUNA	2	7	[0, 0, 0]	n/a	FR1	0	R1039M
994.109	2.385	569598	WORD	n/a	wordpools/wordpool_SP.txt	HUEVO	3	7	[0, 0, 0]	n/a	FR1	0	R1039M
996.494	2.384	570791	WORD	n/a	wordpools/wordpool_SP.txt	SAPO	4	7	[0, 0, 0]	n/a	FR1	0	R1039M
998.878	2.517	571983	WORD	n/a	wordpools/wordpool_SP.txt	HOJA	5	7	[0, 0, 0]	n/a	FR1	0	R1039M
1001.395	2.567	573241	WORD	n/a	wordpools/wordpool_SP.txt	CABALLO	6	7	[0, 0, 0]	n/a	FR1	0	R1039M
1003.962	2.551	574524	WORD	n/a	wordpools/wordpool_SP.txt	EFECTIVO	7	7	[0, 0, 0]	n/a	FR1	0	R1039M
1006.513	2.433	575800	WORD	n/a	wordpools/wordpool_SP.txt	POLO	8	7	[0, 0, 0]	n/a	FR1	0	R1039M
1008.946	2.551	577016	WORD	n/a	wordpools/wordpool_SP.txt	CUERDA	9	7	[0, 0, 0]	n/a	FR1	0	R1039M
1011.497	2.516	578292	WORD	n/a	wordpools/wordpool_SP.txt	LIBRO	10	7	[0, 0, 0]	n/a	FR1	0	R1039M
1014.013	2.418	579550	WORD	n/a	wordpools/wordpool_SP.txt	DULCE	11	7	[0, 0, 0]	n/a	FR1	0	R1039M
1016.431	1.616	580759	WORD	n/a	wordpools/wordpool_SP.txt	SEMILLA	12	7	[0, 0, 0]	n/a	FR1	0	R1039M
1018.047	0.001	581567	DISTRACT_START	n/a	n/a	n/a	-999	7	[0, 0, 0]	n/a	FR1	0	R1039M
1018.048	0.016	581567	START	n/a	n/a	n/a	-999	7	[-999, -999, -999]	n/a	FR1	0	R1039M
1018.064	17.237	581575	PROB	17.237	n/a	n/a	-999	7	[6, 7, 5]	18	FR1	0	R1039M
1035.301	3.846	590193	PROB	3.846	n/a	n/a	-999	7	[3, 3, 2]	8	FR1	0	R1039M
1039.147	0.004	592116	STOP	n/a	n/a	n/a	-999	7	[-999, -999, -999]	n/a	FR1	0	R1039M
1039.151	1.169	592118	DISTRACT_END	n/a	n/a	n/a	-999	7	[0, 0, 0]	n/a	FR1	0	R1039M
1040.32	2.632	592702	REC_START	n/a	n/a	n/a	-999	7	[0, 0, 0]	n/a	FR1	0	R1039M
1042.952	1.166	594018	REC_WORD	1.166	n/a	LUNAR	-999	7	[0, 0, 0]	n/a	FR1	0	R1039M
1044.118	1.83	594601	REC_WORD	1.83	n/a	DULCE	-999	7	[0, 0, 0]	n/a	FR1	0	R1039M
1045.948	3.42	595516	REC_WORD	3.42	n/a	CORRER	-999	7	[0, 0, 0]	n/a	FR1	0	R1039M
1049.368	0.994	597226	REC_WORD	0.994	n/a	HILO	-999	7	[0, 0, 0]	n/a	FR1	0	R1039M
1050.362	5.955	597723	REC_WORD	5.955	n/a	LIBRO	-999	7	[0, 0, 0]	n/a	FR1	0	R1039M
1056.317	11.273	600701	REC_WORD	11.273	n/a	CORRER	-999	7	[0, 0, 0]	n/a	FR1	0	R1039M
1067.59	2.741	606337	REC_WORD	2.741	n/a	POLO	-999	7	[0, 0, 0]	n/a	FR1	0	R1039M
1070.331	7.529	607707	REC_END	n/a	n/a	n/a	-999	7	[0, 0, 0]	n/a	FR1	0	R1039M
1077.86	0.0	611471	TRIAL	n/a	n/a	n/a	-999	8	[0, 0, 0]	n/a	FR1	0	R1039M
1077.86	10.428	611471	COUNTDOWN_START	n/a	n/a	n/a	-999	8	[0, 0, 0]	n/a	FR1	0	R1039M
1088.288	0.007	616685	COUNTDOWN_END	n/a	n/a	n/a	-999	8	[0, 0, 0]	n/a	FR1	0	R1039M
1088.295	2.567	616689	ORIENT	n/a	n/a	n/a	-999	8	[0, 0, 0]	n/a	FR1	0	R1039M
1090.862	2.534	617972	WORD	n/a	wordpools/wordpool_SP.txt	CAMISA	1	8	[0, 0, 0]	n/a	FR1	0	R1039M
1093.396	2.534	619239	WORD	n/a	wordpools/wordpool_SP.txt	PELAJE	2	8	[0, 0, 0]	n/a	FR1	0	R1039M
1095.93	2.55	620506	WORD	n/a	wordpools/wordpool_SP.txt	COSTILLA	3	8	[0, 0, 0]	n/a	FR1	0	R1039M
1098.48	2.55	621781	WORD	n/a	wordpools/wordpool_SP.txt	PISCINA	4	8	[0, 0, 0]	n/a	FR1	0	R1039M
1101.03	2.501	623056	WORD	n/a	wordpools/wordpool_SP.txt	ESPADA	5	8	[0, 0, 0]	n/a	FR1	0	R1039M
1103.531	2.483	624306	WORD	n/a	wordpools/wordpool_SP.txt	BRAZO	6	8	[0, 0, 0]	n/a	FR1	0	R1039M
1106.014	2.602	625548	WORD	n/a	wordpools/wordpool_SP.txt	VENTILADOR	7	8	[0, 0, 0]	n/a	FR1	0	R1039M
1108.616	2.466	626849	WORD	n/a	wordpools/wordpool_SP.txt	NINO	8	8	[0, 0, 0]	n/a	FR1	0	R1039M
1111.082	2.601	628082	WORD	n/a	wordpools/wordpool_SP.txt	BOLSO	9	8	[0, 0, 0]	n/a	FR1	0	R1039M
1113.683	2.55	629382	WORD	n/a	wordpools/wordpool_SP.txt	SOGA	10	8	[0, 0, 0]	n/a	FR1	0	R1039M
1116.233	2.501	630657	WORD	n/a	wordpools/wordpool_SP.txt	ARBUSTO	11	8	[0, 0, 0]	n/a	FR1	0	R1039M
1118.734	1.617	631907	WORD	n/a	wordpools/wordpool_SP.txt	PIE	12	8	[0, 0, 0]	n/a	FR1	0	R1039M
1120.351	0.001	632716	DISTRACT_START	n/a	n/a	n/a	-999	8	[0, 0, 0]	n/a	FR1	0	R1039M
1120.352	0.016	632716	START	n/a	n/a	n/a	-999	8	[-999, -999, -999]	n/a	FR1	0	R1039M
1120.368	4.633	632724	PROB	4.633	n/a	n/a	-999	8	[1, 5, 2]	8	FR1	0	R1039M
1125.001	6.686	635041	PROB	6.686	n/a	n/a	-999	8	[2, 7, 6]	15	FR1	0	R1039M
1131.687	6.901	638384	PROB	6.901	n/a	n/a	-999	8	[8, 4, 3]	15	FR1	0	R1039M
1138.588	4.439	641834	PROB	4.439	n/a	n/a	-999	8	[1, 8, 2]	11	FR1	0	R1039M
1143.027	0.011	644053	STOP	n/a	n/a	n/a	-999	8	[-999, -999, -999]	n/a	FR1	0	R1039M
1143.038	1.051	644059	DISTRACT_END	n/a	n/a	n/a	-999	8	[0, 0, 0]	n/a	FR1	0	R1039M
1144.089	2.337	644584	REC_START	n/a	n/a	n/a	-999	8	[0, 0, 0]	n/a	FR1	0	R1039M
1146.426	0.792	645753	REC_WORD	0.792	n/a	BOLSO	-999	8	[0, 0, 0]	n/a	FR1	0	R1039M
1147.218	1.579	646149	REC_WORD	1.579	n/a	PIE	-999	8	[0, 0, 0]	n/a	FR1	0	R1039M
1148.797	3.524	646938	REC_WORD	3.524	n/a	CORRER	-999	8	[0, 0, 0]	n/a	FR1	0	R1039M
1152.321	11.12	648700	REC_WORD	11.12	n/a	NINO	-999	8	[0, 0, 0]	n/a	FR1	0	R1039M
1163.441	2.259	654260	REC_WORD_VV	2.259	n/a	<>	-999	8	[0, 0, 0]	n/a	FR1	0	R1039M
1165.7	2.484	655389	REC_WORD_VV	2.484	n/a	<>	-999	8	[0, 0, 0]	n/a	FR1	0	R1039M
1168.184	5.915	656631	REC_WORD_VV	5.915	n/a	<>	-999	8	[0, 0, 0]	n/a	FR1	0	R1039M
1174.099	140.54	659588	REC_END	n/a	n/a	n/a	-999	8	[0, 0, 0]	n/a	FR1	0	R1039M
1314.639	0.0	729855	TRIAL	n/a	n/a	n/a	-999	9	[0, 0, 0]	n/a	FR1	0	R1039M
1314.639	10.428	729855	COUNTDOWN_START	n/a	n/a	n/a	-999	9	[0, 0, 0]	n/a	FR1	0	R1039M
1325.067	0.006	735068	COUNTDOWN_END	n/a	n/a	n/a	-999	9	[0, 0, 0]	n/a	FR1	0	R1039M
1325.073	2.551	735071	ORIENT	n/a	n/a	n/a	-999	9	[0, 0, 0]	n/a	FR1	0	R1039M
1327.624	2.55	736347	WORD	n/a	wordpools/wordpool_SP.txt	LLAVE	1	9	[0, 0, 0]	n/a	FR1	0	R1039M
1330.174	2.385	737622	WORD	n/a	wordpools/wordpool_SP.txt	ORO	2	9	[0, 0, 0]	n/a	FR1	0	R1039M
1332.559	2.417	738814	WORD	n/a	wordpools/wordpool_SP.txt	PELICULA	3	9	[0, 0, 0]	n/a	FR1	0	R1039M
1334.976	2.617	740023	WORD	n/a	wordpools/wordpool_SP.txt	BOMBA	4	9	[0, 0, 0]	n/a	FR1	0	R1039M
1337.593	2.516	741331	WORD	n/a	wordpools/wordpool_SP.txt	PRINCIPE	5	9	[0, 0, 0]	n/a	FR1	0	R1039M
1340.109	2.468	742589	WORD	n/a	wordpools/wordpool_SP.txt	OREJA	6	9	[0, 0, 0]	n/a	FR1	0	R1039M
1342.577	2.533	743823	WORD	n/a	wordpools/wordpool_SP.txt	DARDO	7	9	[0, 0, 0]	n/a	FR1	0	R1039M
1345.11	2.568	745089	WORD	n/a	wordpools/wordpool_SP.txt	BOLA	8	9	[0, 0, 0]	n/a	FR1	0	R1039M
1347.678	2.6	746373	WORD	n/a	wordpools/wordpool_SP.txt	AVION	9	9	[0, 0, 0]	n/a	FR1	0	R1039M
1350.278	2.618	747673	WORD	n/a	wordpools/wordpool_SP.txt	CHISPA	10	9	[0, 0, 0]	n/a	FR1	0	R1039M
1352.896	2.584	748982	WORD	n/a	wordpools/wordpool_SP.txt	MONEDA	11	9	[0, 0, 0]	n/a	FR1	0	R1039M
1355.48	1.616	750274	WORD	n/a	wordpools/wordpool_SP.txt	CUCHARA	12	9	[0, 0, 0]	n/a	FR1	0	R1039M
1357.096	0.0	751082	DISTRACT_START	n/a	n/a	n/a	-999	9	[0, 0, 0]	n/a	FR1	0	R1039M
1357.096	0.017	751082	START	n/a	n/a	n/a	-999	9	[-999, -999, -999]	n/a	FR1	0	R1039M
1357.113	6.518	751091	PROB	6.518	n/a	n/a	-999	9	[1, 4, 7]	12	FR1	0	R1039M
1363.631	4.45	754349	PROB	4.45	n/a	n/a	-999	9	[5, 9, 5]	19	FR1	0	R1039M
1368.081	3.785	756574	PROB	3.785	n/a	n/a	-999	9	[1, 2, 3]	6	FR1	0	R1039M
1371.866	7.866	758467	PROB	7.866	n/a	n/a	-999	9	[5, 6, 6]	17	FR1	0	R1039M
1379.732	0.019	762399	STOP	n/a	n/a	n/a	-999	9	[-999, -999, -999]	n/a	FR1	0	R1039M
1379.751	1.184	762409	DISTRACT_END	n/a	n/a	n/a	-999	9	[0, 0, 0]	n/a	FR1	0	R1039M
1380.935	1.269	763001	REC_START	n/a	n/a	n/a	-999	9	[0, 0, 0]	n/a	FR1	0	R1039M
1382.204	1.222	763635	REC_WORD	1.222	n/a	CUCHARA	-999	9	[0, 0, 0]	n/a	FR1	0	R1039M
1383.426	0.694	764246	REC_WORD	0.694	n/a	OREJA	-999	9	[0, 0, 0]	n/a	FR1	0	R1039M
1384.12	1.867	764593	REC_WORD	1.867	n/a	ORO	-999	9	[0, 0, 0]	n/a	FR1	0	R1039M
1385.987	2.75	765527	REC_WORD	2.75	n/a	DARDO	-999	9	[0, 0, 0]	n/a	FR1	0	R1039M
1388.737	8.25	766902	REC_WORD	8.25	n/a	PRINCIPE	-999	9	[0, 0, 0]	n/a	FR1	0	R1039M
1396.987	13.962	771026	REC_WORD	13.962	n/a	ABEJA	-999	9	[0, 0, 0]	n/a	FR1	0	R1039M
1410.949	24.045	778007	REC_END	n/a	n/a	n/a	-999	9	[0, 0, 0]	n/a	FR1	0	R1039M
1434.994	0.0	790029	TRIAL	n/a	n/a	n/a	-999	10	[0, 0, 0]	n/a	FR1	0	R1039M
1434.994	10.428	790029	COUNTDOWN_START	n/a	n/a	n/a	-999	10	[0, 0, 0]	n/a	FR1	0	R1039M
1445.422	0.009	795243	COUNTDOWN_END	n/a	n/a	n/a	-999	10	[0, 0, 0]	n/a	FR1	0	R1039M
1445.431	2.533	795247	ORIENT	n/a	n/a	n/a	-999	10	[0, 0, 0]	n/a	FR1	0	R1039M
1447.964	2.484	796514	WORD	n/a	wordpools/wordpool_SP.txt	JUGO	1	10	[0, 0, 0]	n/a	FR1	0	R1039M
1450.448	2.484	797756	WORD	n/a	wordpools/wordpool_SP.txt	FICHA	2	10	[0, 0, 0]	n/a	FR1	0	R1039M
1452.932	2.517	798998	WORD	n/a	wordpools/wordpool_SP.txt	RUBOR	3	10	[0, 0, 0]	n/a	FR1	0	R1039M
1455.449	2.534	800256	WORD	n/a	wordpools/wordpool_SP.txt	ZANJA	4	10	[0, 0, 0]	n/a	FR1	0	R1039M
1457.983	2.534	801523	WORD	n/a	wordpools/wordpool_SP.txt	HOYO	5	10	[0, 0, 0]	n/a	FR1	0	R1039M
1460.517	2.566	802790	WORD	n/a	wordpools/wordpool_SP.txt	ESTUFA	6	10	[0, 0, 0]	n/a	FR1	0	R1039M
1463.083	2.418	804073	WORD	n/a	wordpools/wordpool_SP.txt	PASTEL	7	10	[0, 0, 0]	n/a	FR1	0	R1039M
1465.501	2.384	805282	WORD	n/a	wordpools/wordpool_SP.txt	BANO	8	10	[0, 0, 0]	n/a	FR1	0	R1039M
1467.885	2.584	806474	WORD	n/a	wordpools/wordpool_SP.txt	GUANTE	9	10	[0, 0, 0]	n/a	FR1	0	R1039M
1470.469	2.549	807766	WORD	n/a	wordpools/wordpool_SP.txt	JABON	10	10	[0, 0, 0]	n/a	FR1	0	R1039M
1473.018	2.618	809040	WORD	n/a	wordpools/wordpool_SP.txt	MEDIA	11	10	[0, 0, 0]	n/a	FR1	0	R1039M
1475.636	1.616	810349	WORD	n/a	wordpools/wordpool_SP.txt	TIZA	12	10	[0, 0, 0]	n/a	FR1	0	R1039M
1477.252	0.001	811157	DISTRACT_START	n/a	n/a	n/a	-999	10	[0, 0, 0]	n/a	FR1	0	R1039M
1477.253	0.016	811157	START	n/a	n/a	n/a	-999	10	[-999, -999, -999]	n/a	FR1	0	R1039M
1477.269	8.735	811165	PROB	8.735	n/a	n/a	-999	10	[6, 6, 8]	20	FR1	0	R1039M
1486.004	10.587	815533	PROB	10.587	n/a	n/a	-999	10	[7, 2, 3]	12	FR1	0	R1039M
1496.591	3.5	820826	PROB	3.5	n/a	n/a	-999	10	[4, 1, 4]	9	FR1	0	R1039M
1500.091	0.016	822576	STOP	n/a	n/a	n/a	-999	10	[-999, -999, -999]	n/a	FR1	0	R1039M
1500.107	1.134	822584	DISTRACT_END	n/a	n/a	n/a	-999	10	[0, 0, 0]	n/a	FR1	0	R1039M
1501.241	1.745	823151	REC_START	n/a	n/a	n/a	-999	10	[0, 0, 0]	n/a	FR1	0	R1039M
1502.986	1.816	824023	REC_WORD	1.816	n/a	DARDO	-999	10	[0, 0, 0]	n/a	FR1	0	R1039M
1504.802	0.898	824931	REC_WORD	0.898	n/a	HOYO	-999	10	[0, 0, 0]	n/a	FR1	0	R1039M
1505.7	1.068	825380	REC_WORD	1.068	n/a	JABON	-999	10	[0, 0, 0]	n/a	FR1	0	R1039M
1506.768	0.53	825914	REC_WORD_VV	0.53	n/a	<>	-999	10	[0, 0, 0]	n/a	FR1	0	R1039M
1507.298	1.145	826179	REC_WORD	1.145	n/a	CUERDA	-999	10	[0, 0, 0]	n/a	FR1	0	R1039M
1508.443	4.613	826752	REC_WORD	4.613	n/a	GUANTE	-999	10	[0, 0, 0]	n/a	FR1	0	R1039M
1513.056	2.772	829058	REC_WORD	2.772	n/a	ESTUFA	-999	10	[0, 0, 0]	n/a	FR1	0	R1039M
1515.828	6.751	830444	REC_WORD	6.751	n/a	OLLA	-999	10	[0, 0, 0]	n/a	FR1	0	R1039M
1522.579	8.672	833819	REC_WORD	8.672	n/a	PASTELILLO	-999	10	[0, 0, 0]	n/a	FR1	0	R1039M
1531.251	32.985	838155	REC_END	n/a	n/a	n/a	-999	10	[0, 0, 0]	n/a	FR1	0	R1039M
1564.236	0.0	854647	TRIAL	n/a	n/a	n/a	-999	11	[0, 0, 0]	n/a	FR1	0	R1039M
1564.236	10.428	854647	COUNTDOWN_START	n/a	n/a	n/a	-999	11	[0, 0, 0]	n/a	FR1	0	R1039M
1574.664	0.008	859860	COUNTDOWN_END	n/a	n/a	n/a	-999	11	[0, 0, 0]	n/a	FR1	0	R1039M
1574.672	2.383	859864	ORIENT	n/a	n/a	n/a	-999	11	[0, 0, 0]	n/a	FR1	0	R1039M
1577.055	2.568	861056	WORD	n/a	wordpools/wordpool_SP.txt	PAGINA	1	11	[0, 0, 0]	n/a	FR1	0	R1039M
1579.623	2.416	862340	WORD	n/a	wordpools/wordpool_SP.txt	RED	2	11	[0, 0, 0]	n/a	FR1	0	R1039M
1582.039	2.535	863548	WORD	n/a	wordpools/wordpool_SP.txt	MUNDO	3	11	[0, 0, 0]	n/a	FR1	0	R1039M
1584.574	2.384	864815	WORD	n/a	wordpools/wordpool_SP.txt	LABIO	4	11	[0, 0, 0]	n/a	FR1	0	R1039M
1586.958	2.5	866007	WORD	n/a	wordpools/wordpool_SP.txt	ESCUELA	5	11	[0, 0, 0]	n/a	FR1	0	R1039M
1589.458	2.533	867257	WORD	n/a	wordpools/wordpool_SP.txt	ALA	6	11	[0, 0, 0]	n/a	FR1	0	R1039M
1591.991	2.468	868523	WORD	n/a	wordpools/wordpool_SP.txt	PANTANO	7	11	[0, 0, 0]	n/a	FR1	0	R1039M
1594.459	2.616	869757	WORD	n/a	wordpools/wordpool_SP.txt	MURCIELAGO	8	11	[0, 0, 0]	n/a	FR1	0	R1039M
1597.075	2.585	871065	WORD	n/a	wordpools/wordpool_SP.txt	LABERINTO	9	11	[0, 0, 0]	n/a	FR1	0	R1039M
1599.66	2.617	872358	WORD	n/a	wordpools/wordpool_SP.txt	TANQUE	10	11	[0, 0, 0]	n/a	FR1	0	R1039M
1602.277	2.451	873666	WORD	n/a	wordpools/wordpool_SP.txt	CARNET	11	11	[0, 0, 0]	n/a	FR1	0	R1039M
1604.728	1.617	874891	WORD	n/a	wordpools/wordpool_SP.txt	JET	12	11	[0, 0, 0]	n/a	FR1	0	R1039M
1606.345	0.001	875700	DISTRACT_START	n/a	n/a	n/a	-999	11	[0, 0, 0]	n/a	FR1	0	R1039M
1606.346	0.016	875700	START	n/a	n/a	n/a	-999	11	[-999, -999, -999]	n/a	FR1	0	R1039M
1606.362	6.134	875708	PROB	6.134	n/a	n/a	-999	11	[8, 6, 3]	17	FR1	0	R1039M
1612.496	8.235	878775	PROB	8.235	n/a	n/a	-999	11	[8, 3, 2]	13	FR1	0	R1039M
1620.731	9.145	882893	PROB	9.145	n/a	n/a	-999	11	[8, 4, 9]	21	FR1	0	R1039M
1629.876	0.007	887465	STOP	n/a	n/a	n/a	-999	11	[-999, -999, -999]	n/a	FR1	0	R1039M
1629.883	1.15	887468	DISTRACT_END	n/a	n/a	n/a	-999	11	[0, 0, 0]	n/a	FR1	0	R1039M
1631.033	1.147	888043	REC_START	n/a	n/a	n/a	-999	11	[0, 0, 0]	n/a	FR1	0	R1039M
1632.18	6.19	888617	REC_WORD	6.19	n/a	LABERINTO	-999	11	[0, 0, 0]	n/a	FR1	0	R1039M
1638.37	2.869	891712	REC_WORD	2.869	n/a	CORRER	-999	11	[0, 0, 0]	n/a	FR1	0	R1039M
1641.239	1.292	893146	REC_WORD	1.292	n/a	CORRER	-999	11	[0, 0, 0]	n/a	FR1	0	R1039M
1642.531	6.898	893792	REC_WORD	6.898	n/a	PANTANO	-999	11	[0, 0, 0]	n/a	FR1	0	R1039M
1649.429	6.593	897241	REC_WORD	6.593	n/a	LIBRETO	-999	11	[0, 0, 0]	n/a	FR1	0	R1039M
1656.022	3.925	900537	REC_WORD	3.925	n/a	CARNET	-999	11	[0, 0, 0]	n/a	FR1	0	R1039M
1659.947	1.096	902500	REC_WORD	1.096	n/a	CORRER	-999	11	[0, 0, 0]	n/a	FR1	0	R1039M
1661.043	41.771	903048	REC_END	n/a	n/a	n/a	-999	11	[0, 0, 0]	n/a	FR1	0	R1039M
1702.814	0.0	923932	TRIAL	n/a	n/a	n/a	-999	12	[0, 0, 0]	n/a	FR1	0	R1039M
1702.814	10.428	923932	COUNTDOWN_START	n/a	n/a	n/a	-999	12	[0, 0, 0]	n/a	FR1	0	R1039M
1713.242	0.006	929146	COUNTDOWN_END	n/a	n/a	n/a	-999	12	[0, 0, 0]	n/a	FR1	0	R1039M
1713.248	2.535	929149	ORIENT	n/a	n/a	n/a	-999	12	[0, 0, 0]	n/a	FR1	0	R1039M
1715.783	2.383	930416	WORD	n/a	wordpools/wordpool_SP.txt	POZO	1	12	[0, 0, 0]	n/a	FR1	0	R1039M
1718.166	2.551	931607	WORD	n/a	wordpools/wordpool_SP.txt	DURAZNO	2	12	[0, 0, 0]	n/a	FR1	0	R1039M
1720.717	2.416	932883	WORD	n/a	wordpools/wordpool_SP.txt	FLAUTA	3	12	[0, 0, 0]	n/a	FR1	0	R1039M
1723.133	2.585	934091	WORD	n/a	wordpools/wordpool_SP.txt	MAIZ	4	12	[0, 0, 0]	n/a	FR1	0	R1039M
1725.718	2.55	935383	WORD	n/a	wordpools/wordpool_SP.txt	JUEZ	5	12	[0, 0, 0]	n/a	FR1	0	R1039M
1728.268	2.418	936658	WORD	n/a	wordpools/wordpool_SP.txt	CARRO	6	12	[0, 0, 0]	n/a	FR1	0	R1039M
1730.686	2.532	937867	WORD	n/a	wordpools/wordpool_SP.txt	ARBOL	7	12	[0, 0, 0]	n/a	FR1	0	R1039M
1733.218	2.385	939133	WORD	n/a	wordpools/wordpool_SP.txt	HABITACION	8	12	[0, 0, 0]	n/a	FR1	0	R1039M
1735.603	2.45	940326	WORD	n/a	wordpools/wordpool_SP.txt	CALLE	9	12	[0, 0, 0]	n/a	FR1	0	R1039M
1738.053	2.535	941550	WORD	n/a	wordpools/wordpool_SP.txt	BANCA	10	12	[0, 0, 0]	n/a	FR1	0	R1039M
1740.588	2.432	942818	WORD	n/a	wordpools/wordpool_SP.txt	TAZON	11	12	[0, 0, 0]	n/a	FR1	0	R1039M
1743.02	1.601	944034	WORD	n/a	wordpools/wordpool_SP.txt	FRUTA	12	12	[0, 0, 0]	n/a	FR1	0	R1039M
1744.621	0.001	944834	DISTRACT_START	n/a	n/a	n/a	-999	12	[0, 0, 0]	n/a	FR1	0	R1039M
1744.622	0.016	944835	START	n/a	n/a	n/a	-999	12	[-999, -999, -999]	n/a	FR1	0	R1039M
1744.638	49.166	944843	PROB	49.166	n/a	n/a	-999	12	[9, 5, 3]	14	FR1	0	R1039M
1793.804	0.011	969424	STOP	n/a	n/a	n/a	-999	12	[-999, -999, -999]	n/a	FR1	0	R1039M
1793.815	1.134	969430	DISTRACT_END	n/a	n/a	n/a	-999	12	[0, 0, 0]	n/a	FR1	0	R1039M
1794.949	7.064	969997	REC_START	n/a	n/a	n/a	-999	12	[0, 0, 0]	n/a	FR1	0	R1039M
1802.013	22.947	973529	REC_WORD_VV	22.947	n/a	<>	-999	12	[0, 0, 0]	n/a	FR1	0	R1039M
1824.96	2.31	985002	REC_END	n/a	n/a	n/a	-999	12	[0, 0, 0]	n/a	FR1	0	R1039M
1827.27	0.0	986157	COUNTDOWN_START	n/a	n/a	n/a	-999	13	[0, 0, 0]	n/a	FR1	0	R1039M
1827.27	10.428	986157	TRIAL	n/a	n/a	n/a	-999	13	[0, 0, 0]	n/a	FR1	0	R1039M
1837.698	0.008	991370	COUNTDOWN_END	n/a	n/a	n/a	-999	13	[0, 0, 0]	n/a	FR1	0	R1039M
1837.706	2.516	991374	ORIENT	n/a	n/a	n/a	-999	13	[0, 0, 0]	n/a	FR1	0	R1039M
1840.222	2.535	992632	WORD	n/a	wordpools/wordpool_SP.txt	CARRETERA	1	13	[0, 0, 0]	n/a	FR1	0	R1039M
1842.757	2.383	993900	WORD	n/a	wordpools/wordpool_SP.txt	TECHO	2	13	[0, 0, 0]	n/a	FR1	0	R1039M
1845.14	2.385	995091	WORD	n/a	wordpools/wordpool_SP.txt	PARQUE	3	13	[0, 0, 0]	n/a	FR1	0	R1039M
1847.525	2.516	996284	WORD	n/a	wordpools/wordpool_SP.txt	PAPALOTE	4	13	[0, 0, 0]	n/a	FR1	0	R1039M
1850.041	2.585	997542	WORD	n/a	wordpools/wordpool_SP.txt	CAJA	5	13	[0, 0, 0]	n/a	FR1	0	R1039M
1852.626	2.616	998834	WORD	n/a	wordpools/wordpool_SP.txt	NIEBLA	6	13	[0, 0, 0]	n/a	FR1	0	R1039M
1855.242	2.535	1000142	WORD	n/a	wordpools/wordpool_SP.txt	SONRISA	7	13	[0, 0, 0]	n/a	FR1	0	R1039M
1857.777	2.6	1001409	WORD	n/a	wordpools/wordpool_SP.txt	CAMIONETA	8	13	[0, 0, 0]	n/a	FR1	0	R1039M
1860.377	2.601	1002709	WORD	n/a	wordpools/wordpool_SP.txt	AUTO	9	13	[0, 0, 0]	n/a	FR1	0	R1039M
1862.978	2.584	1004010	WORD	n/a	wordpools/wordpool_SP.txt	TAPETE	10	13	[0, 0, 0]	n/a	FR1	0	R1039M
1865.562	2.449	1005302	WORD	n/a	wordpools/wordpool_SP.txt	PAYASO	11	13	[0, 0, 0]	n/a	FR1	0	R1039M
1868.011	1.601	1006526	WORD	n/a	wordpools/wordpool_SP.txt	LAMPARA	12	13	[0, 0, 0]	n/a	FR1	0	R1039M
1869.612	0.001	1007326	DISTRACT_START	n/a	n/a	n/a	-999	13	[0, 0, 0]	n/a	FR1	0	R1039M
1869.613	0.016	1007327	START	n/a	n/a	n/a	-999	13	[-999, -999, -999]	n/a	FR1	0	R1039M
1869.629	4.885	1007335	PROB	4.885	n/a	n/a	-999	13	[3, 1, 9]	13	FR1	0	R1039M
1874.514	8.434	1009777	PROB	8.434	n/a	n/a	-999	13	[7, 6, 3]	16	FR1	0	R1039M
1882.948	6.167	1013994	PROB	6.167	n/a	n/a	-999	13	[2, 8, 7]	17	FR1	0	R1039M
1889.115	12.649	1017077	PROB	12.649	n/a	n/a	-999	13	[8, 9, 4]	21	FR1	0	R1039M
1901.764	0.005	1023402	STOP	n/a	n/a	n/a	-999	13	[-999, -999, -999]	n/a	FR1	0	R1039M
1901.769	1.1	1023404	DISTRACT_END	n/a	n/a	n/a	-999	13	[0, 0, 0]	n/a	FR1	0	R1039M
1902.869	1.871	1023954	REC_START	n/a	n/a	n/a	-999	13	[0, 0, 0]	n/a	FR1	0	R1039M
1904.74	0.907	1024890	REC_WORD	0.907	n/a	CARRETERA	-999	13	[0, 0, 0]	n/a	FR1	0	R1039M
1905.647	3.646	1025343	REC_WORD	3.646	n/a	AUTO	-999	13	[0, 0, 0]	n/a	FR1	0	R1039M
1909.293	5.449	1027166	REC_WORD	5.449	n/a	TECHO	-999	13	[0, 0, 0]	n/a	FR1	0	R1039M
1914.742	2.351	1029890	REC_WORD	2.351	n/a	CAMIONETA	-999	13	[0, 0, 0]	n/a	FR1	0	R1039M
1917.093	15.789	1031066	REC_WORD	15.789	n/a	TAPETE	-999	13	[0, 0, 0]	n/a	FR1	0	R1039M
1932.882	7.961	1038960	REC_END	n/a	n/a	n/a	-999	13	[0, 0, 0]	n/a	FR1	0	R1039M
1940.843	0.0	1042940	TRIAL	n/a	n/a	n/a	-999	14	[0, 0, 0]	n/a	FR1	0	R1039M
1940.843	10.428	1042940	COUNTDOWN_START	n/a	n/a	n/a	-999	14	[0, 0, 0]	n/a	FR1	0	R1039M
1951.271	0.006	1048154	COUNTDOWN_END	n/a	n/a	n/a	-999	14	[0, 0, 0]	n/a	FR1	0	R1039M
1951.277	2.552	1048157	ORIENT	n/a	n/a	n/a	-999	14	[0, 0, 0]	n/a	FR1	0	R1039M
1953.829	2.567	1049433	WORD	n/a	wordpools/wordpool_SP.txt	TINTA	1	14	[0, 0, 0]	n/a	FR1	0	R1039M
1956.396	2.616	1050716	WORD	n/a	wordpools/wordpool_SP.txt	CERCA	2	14	[0, 0, 0]	n/a	FR1	0	R1039M
1959.012	2.485	1052024	WORD	n/a	wordpools/wordpool_SP.txt	BANDEJA	3	14	[0, 0, 0]	n/a	FR1	0	R1039M
1961.497	2.566	1053267	WORD	n/a	wordpools/wordpool_SP.txt	PALO	4	14	[0, 0, 0]	n/a	FR1	0	R1039M
1964.063	2.518	1054549	WORD	n/a	wordpools/wordpool_SP.txt	ESCALERA	5	14	[0, 0, 0]	n/a	FR1	0	R1039M
1966.581	2.416	1055808	WORD	n/a	wordpools/wordpool_SP.txt	OVEJA	6	14	[0, 0, 0]	n/a	FR1	0	R1039M
1968.997	2.519	1057016	WORD	n/a	wordpools/wordpool_SP.txt	TAZA	7	14	[0, 0, 0]	n/a	FR1	0	R1039M
1971.516	2.499	1058276	WORD	n/a	wordpools/wordpool_SP.txt	TIBURON	8	14	[0, 0, 0]	n/a	FR1	0	R1039M
1974.015	2.451	1059525	WORD	n/a	wordpools/wordpool_SP.txt	ROSA	9	14	[0, 0, 0]	n/a	FR1	0	R1039M
1976.466	2.484	1060751	WORD	n/a	wordpools/wordpool_SP.txt	BASTON	10	14	[0, 0, 0]	n/a	FR1	0	R1039M
1978.95	2.517	1061993	WORD	n/a	wordpools/wordpool_SP.txt	GRANERO	11	14	[0, 0, 0]	n/a	FR1	0	R1039M
1981.467	1.616	1063251	WORD	n/a	wordpools/wordpool_SP.txt	BOLIGRAFO	12	14	[0, 0, 0]	n/a	FR1	0	R1039M
1983.083	0.001	1064059	DISTRACT_START	n/a	n/a	n/a	-999	14	[0, 0, 0]	n/a	FR1	0	R1039M
1983.084	0.016	1064059	START	n/a	n/a	n/a	-999	14	[-999, -999, -999]	n/a	FR1	0	R1039M
1983.1	20.903	1064067	PROB	20.903	n/a	n/a	-999	14	[6, 5, 9]	20	FR1	0	R1039M
2004.003	0.018	1074518	STOP	n/a	n/a	n/a	-999	14	[-999, -999, -999]	n/a	FR1	0	R1039M
2004.021	1.134	1074527	DISTRACT_END	n/a	n/a	n/a	-999	14	[0, 0, 0]	n/a	FR1	0	R1039M
2005.155	1.479	1075094	REC_START	n/a	n/a	n/a	-999	14	[0, 0, 0]	n/a	FR1	0	R1039M
2006.634	0.775	1075834	REC_WORD	0.775	n/a	BANDEJA	-999	14	[0, 0, 0]	n/a	FR1	0	R1039M
2007.409	2.976	1076221	REC_WORD	2.976	n/a	OVEJA	-999	14	[0, 0, 0]	n/a	FR1	0	R1039M
2010.385	11.084	1077709	REC_WORD	11.084	n/a	CAPILLA	-999	14	[0, 0, 0]	n/a	FR1	0	R1039M
2021.469	8.492	1083251	REC_WORD	8.492	n/a	CALIGRAFIA	-999	14	[0, 0, 0]	n/a	FR1	0	R1039M
2029.961	5.204	1087497	REC_WORD	5.204	n/a	CUCHARA	-999	14	[0, 0, 0]	n/a	FR1	0	R1039M
2035.165	12.399	1090099	REC_END	n/a	n/a	n/a	-999	14	[0, 0, 0]	n/a	FR1	0	R1039M
2047.564	0.0	1096298	TRIAL	n/a	n/a	n/a	-999	15	[0, 0, 0]	n/a	FR1	0	R1039M
2047.564	10.428	1096298	COUNTDOWN_START	n/a	n/a	n/a	-999	15	[0, 0, 0]	n/a	FR1	0	R1039M
2057.992	0.006	1101512	COUNTDOWN_END	n/a	n/a	n/a	-999	15	[0, 0, 0]	n/a	FR1	0	R1039M
2057.998	2.601	1101515	ORIENT	n/a	n/a	n/a	-999	15	[0, 0, 0]	n/a	FR1	0	R1039M
2060.599	2.45	1102815	WORD	n/a	wordpools/wordpool_SP.txt	VELA	1	15	[0, 0, 0]	n/a	FR1	0	R1039M
2063.049	2.501	1104040	WORD	n/a	wordpools/wordpool_SP.txt	BARCO	2	15	[0, 0, 0]	n/a	FR1	0	R1039M
2065.55	2.467	1105290	WORD	n/a	wordpools/wordpool_SP.txt	GUSANO	3	15	[0, 0, 0]	n/a	FR1	0	R1039M
2068.017	2.484	1106524	WORD	n/a	wordpools/wordpool_SP.txt	LIMO	4	15	[0, 0, 0]	n/a	FR1	0	R1039M
2070.501	2.516	1107766	WORD	n/a	wordpools/wordpool_SP.txt	VAPOR	5	15	[0, 0, 0]	n/a	FR1	0	R1039M
2073.017	2.535	1109024	WORD	n/a	wordpools/wordpool_SP.txt	BOTE	6	15	[0, 0, 0]	n/a	FR1	0	R1039M
2075.552	2.401	1110291	WORD	n/a	wordpools/wordpool_SP.txt	ANZUELO	7	15	[0, 0, 0]	n/a	FR1	0	R1039M
2077.953	2.45	1111491	WORD	n/a	wordpools/wordpool_SP.txt	ESCRITORIO	8	15	[0, 0, 0]	n/a	FR1	0	R1039M
2080.403	2.534	1112716	WORD	n/a	wordpools/wordpool_SP.txt	PERLA	9	15	[0, 0, 0]	n/a	FR1	0	R1039M
2082.937	2.601	1113983	WORD	n/a	wordpools/wordpool_SP.txt	RUEDA	10	15	[0, 0, 0]	n/a	FR1	0	R1039M
2085.538	2.549	1115284	WORD	n/a	wordpools/wordpool_SP.txt	PEZ	11	15	[0, 0, 0]	n/a	FR1	0	R1039M
2088.087	1.618	1116558	WORD	n/a	wordpools/wordpool_SP.txt	VESTIDO	12	15	[0, 0, 0]	n/a	FR1	0	R1039M
2089.705	0.001	1117367	DISTRACT_START	n/a	n/a	n/a	-999	15	[0, 0, 0]	n/a	FR1	0	R1039M
2089.706	0.016	1117368	START	n/a	n/a	n/a	-999	15	[-999, -999, -999]	n/a	FR1	0	R1039M
2089.722	15.318	1117376	PROB	15.318	n/a	n/a	-999	15	[8, 7, 7]	22	FR1	0	R1039M
2105.04	6.404	1125034	PROB	6.404	n/a	n/a	-999	15	[2, 7, 6]	15	FR1	0	R1039M
2111.444	0.015	1128236	STOP	n/a	n/a	n/a	-999	15	[-999, -999, -999]	n/a	FR1	0	R1039M
2111.459	1.184	1128244	DISTRACT_END	n/a	n/a	n/a	-999	15	[0, 0, 0]	n/a	FR1	0	R1039M
2112.643	7.438	1128836	REC_START	n/a	n/a	n/a	-999	15	[0, 0, 0]	n/a	FR1	0	R1039M
2120.081	6.431	1132554	REC_WORD	6.431	n/a	BANDEJA	-999	15	[0, 0, 0]	n/a	FR1	0	R1039M
2126.512	1.63	1135770	REC_WORD	1.63	n/a	CAPILLA	-999	15	[0, 0, 0]	n/a	FR1	0	R1039M
2128.142	1.809	1136585	REC_WORD	1.809	n/a	OVEJA	-999	15	[0, 0, 0]	n/a	FR1	0	R1039M
2129.951	12.706	1137489	REC_WORD	12.706	n/a	CAMARON	-999	15	[0, 0, 0]	n/a	FR1	0	R1039M
2142.657	16.678	1143842	REC_END	n/a	n/a	n/a	-999	15	[0, 0, 0]	n/a	FR1	0	R1039M
2159.335	0.0	1152180	TRIAL	n/a	n/a	n/a	-999	16	[0, 0, 0]	n/a	FR1	0	R1039M
2159.335	10.428	1152180	COUNTDOWN_START	n/a	n/a	n/a	-999	16	[0, 0, 0]	n/a	FR1	0	R1039M
2169.763	0.007	1157394	COUNTDOWN_END	n/a	n/a	n/a	-999	16	[0, 0, 0]	n/a	FR1	0	R1039M
2169.77	2.568	1157398	ORIENT	n/a	n/a	n/a	-999	16	[0, 0, 0]	n/a	FR1	0	R1039M
2172.338	2.5	1158681	WORD	n/a	wordpools/wordpool_SP.txt	CUERVO	1	16	[0, 0, 0]	n/a	FR1	0	R1039M
2174.838	2.501	1159931	WORD	n/a	wordpools/wordpool_SP.txt	RAIZ	2	16	[0, 0, 0]	n/a	FR1	0	R1039M
2177.339	2.533	1161182	WORD	n/a	wordpools/wordpool_SP.txt	PLANTA	3	16	[0, 0, 0]	n/a	FR1	0	R1039M
2179.872	2.468	1162448	WORD	n/a	wordpools/wordpool_SP.txt	JEFE	4	16	[0, 0, 0]	n/a	FR1	0	R1039M
2182.34	2.4	1163682	WORD	n/a	wordpools/wordpool_SP.txt	DIENTES	5	16	[0, 0, 0]	n/a	FR1	0	R1039M
2184.74	2.601	1164882	WORD	n/a	wordpools/wordpool_SP.txt	ESCUDO	6	16	[0, 0, 0]	n/a	FR1	0	R1039M
2187.341	2.45	1166183	WORD	n/a	wordpools/wordpool_SP.txt	CUEVA	7	16	[0, 0, 0]	n/a	FR1	0	R1039M
2189.791	2.534	1167408	WORD	n/a	wordpools/wordpool_SP.txt	MALEZA	8	16	[0, 0, 0]	n/a	FR1	0	R1039M
2192.325	2.617	1168674	WORD	n/a	wordpools/wordpool_SP.txt	CEPILLO	9	16	[0, 0, 0]	n/a	FR1	0	R1039M
2194.942	2.45	1169983	WORD	n/a	wordpools/wordpool_SP.txt	PASTA	10	16	[0, 0, 0]	n/a	FR1	0	R1039M
2197.392	2.434	1171208	WORD	n/a	wordpools/wordpool_SP.txt	SELLO	11	16	[0, 0, 0]	n/a	FR1	0	R1039M
2199.826	1.617	1172425	WORD	n/a	wordpools/wordpool_SP.txt	ESPUMA	12	16	[0, 0, 0]	n/a	FR1	0	R1039M
2201.443	0.001	1173233	DISTRACT_START	n/a	n/a	n/a	-999	16	[0, 0, 0]	n/a	FR1	0	R1039M
2201.444	0.016	1173234	START	n/a	n/a	n/a	-999	16	[-999, -999, -999]	n/a	FR1	0	R1039M
2201.46	4.151	1173242	PROB	4.151	n/a	n/a	-999	16	[3, 3, 1]	7	FR1	0	R1039M
2205.611	6.768	1175317	PROB	6.768	n/a	n/a	-999	16	[4, 5, 8]	19	FR1	0	R1039M
2212.379	5.984	1178701	PROB	5.984	n/a	n/a	-999	16	[3, 1, 7]	11	FR1	0	R1039M
2218.363	6.872	1181693	PROB	6.872	n/a	n/a	-999	16	[6, 2, 9]	17	FR1	0	R1039M
2225.235	0.012	1185129	STOP	n/a	n/a	n/a	-999	16	[-999, -999, -999]	n/a	FR1	0	R1039M
2225.247	1.118	1185135	DISTRACT_END	n/a	n/a	n/a	-999	16	[0, 0, 0]	n/a	FR1	0	R1039M
2226.365	3.648	1185694	REC_START	n/a	n/a	n/a	-999	16	[0, 0, 0]	n/a	FR1	0	R1039M
2230.013	0.788	1187517	REC_WORD	0.788	n/a	CABELLO	-999	16	[0, 0, 0]	n/a	FR1	0	R1039M
2230.801	1.064	1187911	REC_WORD	1.064	n/a	ESCUDO	-999	16	[0, 0, 0]	n/a	FR1	0	R1039M
2231.865	7.925	1188443	REC_WORD	7.925	n/a	CARPETA	-999	16	[0, 0, 0]	n/a	FR1	0	R1039M
2239.79	8.071	1192406	REC_WORD	8.071	n/a	CABELLO	-999	16	[0, 0, 0]	n/a	FR1	0	R1039M
2247.861	8.518	1196441	REC_WORD	8.518	n/a	DIENTES	-999	16	[0, 0, 0]	n/a	FR1	0	R1039M
2256.379	2.976	1200700	REC_END	n/a	n/a	n/a	-999	16	[0, 0, 0]	n/a	FR1	0	R1039M
2259.355	0.0	1202188	TRIAL	n/a	n/a	n/a	-999	17	[0, 0, 0]	n/a	FR1	0	R1039M
2259.355	10.428	1202188	COUNTDOWN_START	n/a	n/a	n/a	-999	17	[0, 0, 0]	n/a	FR1	0	R1039M
2269.783	0.007	1207401	COUNTDOWN_END	n/a	n/a	n/a	-999	17	[0, 0, 0]	n/a	FR1	0	R1039M
2269.79	2.433	1207405	ORIENT	n/a	n/a	n/a	-999	17	[0, 0, 0]	n/a	FR1	0	R1039M
2272.223	2.384	1208621	WORD	n/a	wordpools/wordpool_SP.txt	ESTRELLA	1	17	[0, 0, 0]	n/a	FR1	0	R1039M
2274.607	2.433	1209813	WORD	n/a	wordpools/wordpool_SP.txt	PIPA	2	17	[0, 0, 0]	n/a	FR1	0	R1039M
2277.04	2.502	1211030	WORD	n/a	wordpools/wordpool_SP.txt	BUHO	3	17	[0, 0, 0]	n/a	FR1	0	R1039M
2279.542	2.499	1212281	WORD	n/a	wordpools/wordpool_SP.txt	MADERA	4	17	[0, 0, 0]	n/a	FR1	0	R1039M
2282.041	2.502	1213530	WORD	n/a	wordpools/wordpool_SP.txt	PATO	5	17	[0, 0, 0]	n/a	FR1	0	R1039M
2284.543	2.533	1214781	WORD	n/a	wordpools/wordpool_SP.txt	ESTANQUE	6	17	[0, 0, 0]	n/a	FR1	0	R1039M
2287.076	2.401	1216047	WORD	n/a	wordpools/wordpool_SP.txt	NUBE	7	17	[0, 0, 0]	n/a	FR1	0	R1039M
2289.477	2.467	1217248	WORD	n/a	wordpools/wordpool_SP.txt	PISO	8	17	[0, 0, 0]	n/a	FR1	0	R1039M
2291.944	2.501	1218481	WORD	n/a	wordpools/wordpool_SP.txt	VENADO	9	17	[0, 0, 0]	n/a	FR1	0	R1039M
2294.445	2.5	1219732	WORD	n/a	wordpools/wordpool_SP.txt	ESQUI	10	17	[0, 0, 0]	n/a	FR1	0	R1039M
2296.945	2.417	1220982	WORD	n/a	wordpools/wordpool_SP.txt	JUGUETE	11	17	[0, 0, 0]	n/a	FR1	0	R1039M
2299.362	1.617	1222190	WORD	n/a	wordpools/wordpool_SP.txt	LOBO	12	17	[0, 0, 0]	n/a	FR1	0	R1039M
2300.979	0.001	1222999	DISTRACT_START	n/a	n/a	n/a	-999	17	[0, 0, 0]	n/a	FR1	0	R1039M
2300.98	0.015	1222999	START	n/a	n/a	n/a	-999	17	[-999, -999, -999]	n/a	FR1	0	R1039M
2300.995	4.935	1223007	PROB	4.935	n/a	n/a	-999	17	[7, 1, 8]	16	FR1	0	R1039M
2305.93	9.535	1225474	PROB	9.535	n/a	n/a	-999	17	[8, 9, 2]	19	FR1	0	R1039M
2315.465	6.57	1230241	PROB	6.57	n/a	n/a	-999	17	[5, 3, 6]	14	FR1	0	R1039M
2322.035	0.014	1233526	STOP	n/a	n/a	n/a	-999	17	[-999, -999, -999]	n/a	FR1	0	R1039M
2322.049	1.217	1233533	DISTRACT_END	n/a	n/a	n/a	-999	17	[0, 0, 0]	n/a	FR1	0	R1039M
2323.266	1.442	1234141	REC_START	n/a	n/a	n/a	-999	17	[0, 0, 0]	n/a	FR1	0	R1039M
2324.708	0.53	1234862	REC_WORD	0.53	n/a	PATO	-999	17	[0, 0, 0]	n/a	FR1	0	R1039M
2325.238	6.928	1235127	REC_WORD	6.928	n/a	VENADO	-999	17	[0, 0, 0]	n/a	FR1	0	R1039M
2332.166	0.74	1238591	REC_WORD	0.74	n/a	ESCUDO	-999	17	[0, 0, 0]	n/a	FR1	0	R1039M
2332.906	7.0	1238961	REC_WORD_VV	7.0	n/a	<>	-999	17	[0, 0, 0]	n/a	FR1	0	R1039M
2339.906	6.236	1242461	REC_WORD	6.236	n/a	OSO	-999	17	[0, 0, 0]	n/a	FR1	0	R1039M
2346.142	2.452	1245579	REC_WORD	2.452	n/a	PISO	-999	17	[0, 0, 0]	n/a	FR1	0	R1039M
2348.594	4.687	1246805	REC_WORD	4.687	n/a	TECHO	-999	17	[0, 0, 0]	n/a	FR1	0	R1039M
2353.281	13.111	1249148	REC_END	n/a	n/a	n/a	-999	17	[0, 0, 0]	n/a	FR1	0	R1039M
2366.392	0.0	1255703	TRIAL	n/a	n/a	n/a	-999	18	[0, 0, 0]	n/a	FR1	0	R1039M
2366.392	10.428	1255703	COUNTDOWN_START	n/a	n/a	n/a	-999	18	[0, 0, 0]	n/a	FR1	0	R1039M
2376.82	0.007	1260917	COUNTDOWN_END	n/a	n/a	n/a	-999	18	[0, 0, 0]	n/a	FR1	0	R1039M
2376.827	2.584	1260921	ORIENT	n/a	n/a	n/a	-999	18	[0, 0, 0]	n/a	FR1	0	R1039M
2379.411	2.4	1262213	WORD	n/a	wordpools/wordpool_SP.txt	PERRO	1	18	[0, 0, 0]	n/a	FR1	0	R1039M
2381.811	2.433	1263412	WORD	n/a	wordpools/wordpool_SP.txt	PERA	2	18	[0, 0, 0]	n/a	FR1	0	R1039M
2384.244	2.552	1264629	WORD	n/a	wordpools/wordpool_SP.txt	PAN	3	18	[0, 0, 0]	n/a	FR1	0	R1039M
2386.796	2.433	1265905	WORD	n/a	wordpools/wordpool_SP.txt	COLA	4	18	[0, 0, 0]	n/a	FR1	0	R1039M
2389.229	2.434	1267121	WORD	n/a	wordpools/wordpool_SP.txt	RAMA	5	18	[0, 0, 0]	n/a	FR1	0	R1039M
2391.663	2.45	1268338	WORD	n/a	wordpools/wordpool_SP.txt	FRIJOL	6	18	[0, 0, 0]	n/a	FR1	0	R1039M
2394.113	2.534	1269563	WORD	n/a	wordpools/wordpool_SP.txt	FLORECER	7	18	[0, 0, 0]	n/a	FR1	0	R1039M
2396.647	2.484	1270830	WORD	n/a	wordpools/wordpool_SP.txt	COMIDA	8	18	[0, 0, 0]	n/a	FR1	0	R1039M
2399.131	2.484	1272072	WORD	n/a	wordpools/wordpool_SP.txt	CESPED	9	18	[0, 0, 0]	n/a	FR1	0	R1039M
2401.615	2.5	1273314	WORD	n/a	wordpools/wordpool_SP.txt	ARROZ	10	18	[0, 0, 0]	n/a	FR1	0	R1039M
2404.115	2.451	1274564	WORD	n/a	wordpools/wordpool_SP.txt	ANGUILA	11	18	[0, 0, 0]	n/a	FR1	0	R1039M
2406.566	1.616	1275789	WORD	n/a	wordpools/wordpool_SP.txt	POLILLA	12	18	[0, 0, 0]	n/a	FR1	0	R1039M
2408.182	0.001	1276597	DISTRACT_START	n/a	n/a	n/a	-999	18	[0, 0, 0]	n/a	FR1	0	R1039M
2408.183	0.016	1276598	START	n/a	n/a	n/a	-999	18	[-999, -999, -999]	n/a	FR1	0	R1039M
2408.199	10.753	1276606	PROB	10.753	n/a	n/a	-999	18	[6, 5, 3]	14	FR1	0	R1039M
2418.952	6.918	1281982	PROB	6.918	n/a	n/a	-999	18	[8, 4, 5]	17	FR1	0	R1039M
2425.87	6.333	1285441	PROB	6.333	n/a	n/a	-999	18	[4, 8, 9]	21	FR1	0	R1039M
2432.203	0.017	1288607	STOP	n/a	n/a	n/a	-999	18	[-999, -999, -999]	n/a	FR1	0	R1039M
2432.22	1.085	1288616	DISTRACT_END	n/a	n/a	n/a	-999	18	[0, 0, 0]	n/a	FR1	0	R1039M
2433.305	0.842	1289158	REC_START	n/a	n/a	n/a	-999	18	[0, 0, 0]	n/a	FR1	0	R1039M
2434.147	0.57	1289579	REC_WORD	0.57	n/a	POLILLA	-999	18	[0, 0, 0]	n/a	FR1	0	R1039M
2434.717	0.577	1289864	REC_WORD	0.577	n/a	ARROZ	-999	18	[0, 0, 0]	n/a	FR1	0	R1039M
2435.294	3.651	1290153	REC_WORD	3.651	n/a	FRIJOL	-999	18	[0, 0, 0]	n/a	FR1	0	R1039M
2438.945	7.836	1291978	REC_WORD	7.836	n/a	COMIDA	-999	18	[0, 0, 0]	n/a	FR1	0	R1039M
2446.781	16.537	1295896	REC_WORD	16.537	n/a	PEZ	-999	18	[0, 0, 0]	n/a	FR1	0	R1039M
2463.318	265.177	1304164	REC_END	n/a	n/a	n/a	-999	18	[0, 0, 0]	n/a	FR1	0	R1039M
2728.495	0.0	-1	TRIAL	n/a	n/a	n/a	-999	19	[0, 0, 0]	n/a	FR1	0	R1039M
2728.495	0.0	-1	COUNTDOWN_START	n/a	n/a	n/a	-999	19	[0, 0, 0]	n/a	FR1	0	R1039M
