onset	duration	sample	trial_type	response_time	stim_file	item_name	serialpos	list	test	answer	experiment	session	subject
0.0	112.899	6378	INSTRUCT_START	n/a	n/a	n/a	-999	-999	[0, 0, 0]	n/a	FR1	1	R1416T
112.899	38.65	119263	INSTRUCT_END	n/a	n/a	n/a	-999	-999	[0, 0, 0]	n/a	FR1	1	R1416T
151.549	10.35	157905	COUNTDOWN_START	n/a	n/a	n/a	-999	-999	[0, 0, 0]	n/a	FR1	1	R1416T
161.899	0.0	168258	COUNTDOWN_END	n/a	n/a	n/a	-999	-999	[0, 0, 0]	n/a	FR1	1	R1416T
161.899	2.217	168258	ENCODING_START	n/a	n/a	n/a	-999	-1	[0, 0, 0]	n/a	FR1	1	R1416T
164.116	1.599	170471	WORD	n/a	n/a	SLUSH	1	-1	[0, 0, 0]	n/a	FR1	1	R1416T
165.715	0.95	172073	WORD_OFF	n/a	n/a	SLUSH	1	-1	[0, 0, 0]	n/a	FR1	1	R1416T
166.665	1.617	173014	WORD	n/a	n/a	ROAD	2	-1	[0, 0, 0]	n/a	FR1	1	R1416T
168.282	0.849	174642	WORD_OFF	n/a	n/a	ROAD	2	-1	[0, 0, 0]	n/a	FR1	1	R1416T
169.131	1.601	175482	WORD	n/a	n/a	MOLE	3	-1	[0, 0, 0]	n/a	FR1	1	R1416T
170.732	0.882	177084	WORD_OFF	n/a	n/a	MOLE	3	-1	[0, 0, 0]	n/a	FR1	1	R1416T
171.614	1.601	177974	WORD	n/a	n/a	EEL	4	-1	[0, 0, 0]	n/a	FR1	1	R1416T
173.215	0.9	179577	WORD_OFF	n/a	n/a	EEL	4	-1	[0, 0, 0]	n/a	FR1	1	R1416T
174.115	1.599	180467	WORD	n/a	n/a	RAKE	5	-1	[0, 0, 0]	n/a	FR1	1	R1416T
175.714	0.951	182069	WORD_OFF	n/a	n/a	RAKE	5	-1	[0, 0, 0]	n/a	FR1	1	R1416T
176.665	1.6	183030	WORD	n/a	n/a	CHEST	6	-1	[0, 0, 0]	n/a	FR1	1	R1416T
178.265	0.817	184633	WORD_OFF	n/a	n/a	CHEST	6	-1	[0, 0, 0]	n/a	FR1	1	R1416T
179.082	1.6	185447	WORD	n/a	n/a	WASP	7	-1	[0, 0, 0]	n/a	FR1	1	R1416T
180.682	0.916	187049	WORD_OFF	n/a	n/a	WASP	7	-1	[0, 0, 0]	n/a	FR1	1	R1416T
181.598	1.617	187965	WORD	n/a	n/a	MUG	8	-1	[0, 0, 0]	n/a	FR1	1	R1416T
183.215	0.983	189573	WORD_OFF	n/a	n/a	MUG	8	-1	[0, 0, 0]	n/a	FR1	1	R1416T
184.198	1.6	190565	WORD	n/a	n/a	PLANT	9	-1	[0, 0, 0]	n/a	FR1	1	R1416T
185.798	0.783	192167	WORD_OFF	n/a	n/a	PLANT	9	-1	[0, 0, 0]	n/a	FR1	1	R1416T
186.581	1.6	192930	WORD	n/a	n/a	BOWL	10	-1	[0, 0, 0]	n/a	FR1	1	R1416T
188.181	0.817	194533	WORD_OFF	n/a	n/a	BOWL	10	-1	[0, 0, 0]	n/a	FR1	1	R1416T
188.998	1.617	195347	WORD	n/a	n/a	CHEEK	11	-1	[0, 0, 0]	n/a	FR1	1	R1416T
190.615	0.866	196975	WORD_OFF	n/a	n/a	CHEEK	11	-1	[0, 0, 0]	n/a	FR1	1	R1416T
191.481	1.602	197840	WORD	n/a	n/a	SHELL	12	-1	[0, 0, 0]	n/a	FR1	1	R1416T
193.083	0.0	199440	START	n/a	n/a	n/a	-999	-1	[-999, -999, -999]	n/a	FR1	1	R1416T
193.083	0.0	199440	PROB	0.0	n/a	n/a	-999	-1	[1, 6, 3]	10	FR1	1	R1416T
193.081	0.002	199442	WORD_OFF	n/a	n/a	SHELL	12	-1	[0, 0, 0]	n/a	FR1	1	R1416T
193.083	0.0	199442	ENCODING_END	n/a	n/a	n/a	-999	-1	[0, 0, 0]	n/a	FR1	1	R1416T
193.083	6.265	199442	DISTRACT_START	n/a	n/a	n/a	-999	-1	[0, 0, 0]	n/a	FR1	1	R1416T
199.348	9.534	205705	PROB	9.534	n/a	n/a	-999	-1	[3, 8, 7]	18	FR1	1	R1416T
208.882	5.532	215239	PROB	5.532	n/a	n/a	-999	-1	[5, 4, 2]	11	FR1	1	R1416T
214.414	0.0	220770	STOP	n/a	n/a	n/a	-999	-1	[-999, -999, -999]	n/a	FR1	1	R1416T
214.414	2.4	220777	DISTRACT_END	n/a	n/a	n/a	-999	-1	[0, 0, 0]	n/a	FR1	1	R1416T
216.814	1.651	223176	REC_START	n/a	n/a	n/a	-999	-1	[0, 0, 0]	n/a	FR1	1	R1416T
218.465	1.874	224821	REC_WORD_VV	1.874	n/a	<>	-999	-1	[0, 0, 0]	n/a	FR1	1	R1416T
220.339	0.635	226695	REC_WORD_VV	0.635	n/a	<>	-999	-1	[0, 0, 0]	n/a	FR1	1	R1416T
220.974	2.011	227330	REC_WORD	2.011	n/a	CHEST	6	-1	[0, 0, 0]	n/a	FR1	1	R1416T
222.985	2.248	229341	REC_WORD	2.248	n/a	MUG	8	-1	[0, 0, 0]	n/a	FR1	1	R1416T
225.233	2.548	231589	REC_WORD_VV	2.548	n/a	<>	-999	-1	[0, 0, 0]	n/a	FR1	1	R1416T
227.781	0.494	234137	REC_WORD	0.494	n/a	CHEST	6	-1	[0, 0, 0]	n/a	FR1	1	R1416T
228.275	0.53	234631	REC_WORD_VV	0.53	n/a	<>	-999	-1	[0, 0, 0]	n/a	FR1	1	R1416T
228.805	14.049	235161	REC_WORD	14.049	n/a	WASP	7	-1	[0, 0, 0]	n/a	FR1	1	R1416T
242.854	1.075	249209	REC_WORD_VV	1.075	n/a	<>	-999	-1	[0, 0, 0]	n/a	FR1	1	R1416T
243.929	3.143	250284	REC_WORD_VV	3.143	n/a	<>	-999	-1	[0, 0, 0]	n/a	FR1	1	R1416T
247.072	24.676	253417	REC_END	n/a	n/a	n/a	-999	-1	[0, 0, 0]	n/a	FR1	1	R1416T
271.748	10.351	278115	COUNTDOWN_START	n/a	n/a	n/a	-999	1	[0, 0, 0]	n/a	FR1	1	R1416T
282.099	0.0	288442	COUNTDOWN_END	n/a	n/a	n/a	-999	1	[0, 0, 0]	n/a	FR1	1	R1416T
282.099	2.382	288462	ENCODING_START	n/a	n/a	n/a	-999	1	[0, 0, 0]	n/a	FR1	1	R1416T
284.481	1.617	290833	WORD	n/a	wordpools/wordpool_long_EN.txt	ROOT	1	1	[0, 0, 0]	n/a	FR1	1	R1416T
286.098	0.783	292461	WORD_OFF	n/a	n/a	ROOT	1	1	[0, 0, 0]	n/a	FR1	1	R1416T
286.881	1.6	293224	WORD	n/a	wordpools/wordpool_long_EN.txt	HEDGE	2	1	[0, 0, 0]	n/a	FR1	1	R1416T
288.481	0.817	294827	WORD_OFF	n/a	n/a	HEDGE	2	1	[0, 0, 0]	n/a	FR1	1	R1416T
289.298	1.6	295652	WORD	n/a	wordpools/wordpool_long_EN.txt	CAVE	3	1	[0, 0, 0]	n/a	FR1	1	R1416T
290.898	0.916	297243	WORD_OFF	n/a	n/a	CAVE	3	1	[0, 0, 0]	n/a	FR1	1	R1416T
291.814	1.617	298159	WORD	n/a	wordpools/wordpool_long_EN.txt	PALM	4	1	[0, 0, 0]	n/a	FR1	1	R1416T
293.431	0.85	299787	WORD_OFF	n/a	n/a	PALM	4	1	[0, 0, 0]	n/a	FR1	1	R1416T
294.281	1.6	300626	WORD	n/a	wordpools/wordpool_long_EN.txt	HOOK	5	1	[0, 0, 0]	n/a	FR1	1	R1416T
295.881	0.817	302228	WORD_OFF	n/a	n/a	HOOK	5	1	[0, 0, 0]	n/a	FR1	1	R1416T
296.698	1.616	303042	WORD	n/a	wordpools/wordpool_long_EN.txt	NEST	6	1	[0, 0, 0]	n/a	FR1	1	R1416T
298.314	1.0	304670	WORD_OFF	n/a	n/a	NEST	6	1	[0, 0, 0]	n/a	FR1	1	R1416T
299.314	1.617	305662	WORD	n/a	wordpools/wordpool_long_EN.txt	SHIELD	7	1	[0, 0, 0]	n/a	FR1	1	R1416T
300.931	0.85	307290	WORD_OFF	n/a	n/a	SHIELD	7	1	[0, 0, 0]	n/a	FR1	1	R1416T
301.781	1.6	308129	WORD	n/a	wordpools/wordpool_long_EN.txt	BIRD	8	1	[0, 0, 0]	n/a	FR1	1	R1416T
303.381	0.8	309732	WORD_OFF	n/a	n/a	BIRD	8	1	[0, 0, 0]	n/a	FR1	1	R1416T
304.181	1.616	310540	WORD	n/a	wordpools/wordpool_long_EN.txt	SLIME	9	1	[0, 0, 0]	n/a	FR1	1	R1416T
305.797	0.884	312148	WORD_OFF	n/a	n/a	SLIME	9	1	[0, 0, 0]	n/a	FR1	1	R1416T
306.681	1.599	313039	WORD	n/a	wordpools/wordpool_long_EN.txt	CAGE	10	1	[0, 0, 0]	n/a	FR1	1	R1416T
308.28	0.784	314641	WORD_OFF	n/a	n/a	CAGE	10	1	[0, 0, 0]	n/a	FR1	1	R1416T
309.064	1.601	315424	WORD	n/a	wordpools/wordpool_long_EN.txt	MOUTH	11	1	[0, 0, 0]	n/a	FR1	1	R1416T
310.665	0.782	317007	WORD_OFF	n/a	n/a	MOUTH	11	1	[0, 0, 0]	n/a	FR1	1	R1416T
311.447	1.601	317795	WORD	n/a	wordpools/wordpool_long_EN.txt	GLOBE	12	1	[0, 0, 0]	n/a	FR1	1	R1416T
313.048	0.001	319398	WORD_OFF	n/a	n/a	GLOBE	12	1	[0, 0, 0]	n/a	FR1	1	R1416T
313.049	0.001	319398	ENCODING_END	n/a	n/a	n/a	-999	1	[0, 0, 0]	n/a	FR1	1	R1416T
313.05	0.0	319398	DISTRACT_START	n/a	n/a	n/a	-999	1	[0, 0, 0]	n/a	FR1	1	R1416T
313.048	0.002	319399	PROB	0.002	n/a	n/a	-999	1	[8, 2, 2]	12	FR1	1	R1416T
313.05	5.465	319401	START	n/a	n/a	n/a	-999	1	[-999, -999, -999]	n/a	FR1	1	R1416T
318.515	6.967	324866	PROB	6.967	n/a	n/a	-999	1	[6, 3, 7]	16	FR1	1	R1416T
325.482	8.583	331833	PROB	8.583	n/a	n/a	-999	1	[5, 7, 8]	20	FR1	1	R1416T
334.065	0.0	340411	DISTRACT_END	n/a	n/a	n/a	-999	1	[0, 0, 0]	n/a	FR1	1	R1416T
334.065	2.183	340415	STOP	n/a	n/a	n/a	-999	1	[-999, -999, -999]	n/a	FR1	1	R1416T
336.248	0.926	342606	REC_START	n/a	n/a	n/a	-999	1	[0, 0, 0]	n/a	FR1	1	R1416T
337.174	1.798	343524	REC_WORD	1.798	n/a	ROOT	1	1	[0, 0, 0]	n/a	FR1	1	R1416T
338.972	1.441	345322	REC_WORD	1.441	n/a	HEDGE	2	1	[0, 0, 0]	n/a	FR1	1	R1416T
340.413	7.39	346763	REC_WORD	7.39	n/a	CAVE	3	1	[0, 0, 0]	n/a	FR1	1	R1416T
347.803	15.704	354153	REC_WORD_VV	15.704	n/a	<>	-999	1	[0, 0, 0]	n/a	FR1	1	R1416T
363.507	2.959	369856	REC_WORD_VV	2.959	n/a	<>	-999	1	[0, 0, 0]	n/a	FR1	1	R1416T
366.466	3.949	372816	REC_END	n/a	n/a	n/a	-999	1	[0, 0, 0]	n/a	FR1	1	R1416T
370.415	10.351	376758	COUNTDOWN_START	n/a	n/a	n/a	-999	2	[0, 0, 0]	n/a	FR1	1	R1416T
380.766	0.0	387111	COUNTDOWN_END	n/a	n/a	n/a	-999	2	[0, 0, 0]	n/a	FR1	1	R1416T
380.766	2.166	387111	ENCODING_START	n/a	n/a	n/a	-999	2	[0, 0, 0]	n/a	FR1	1	R1416T
382.932	1.6	389273	WORD	n/a	wordpools/wordpool_long_EN.txt	GUARD	1	2	[0, 0, 0]	n/a	FR1	1	R1416T
384.532	0.865	390875	WORD_OFF	n/a	n/a	GUARD	1	2	[0, 0, 0]	n/a	FR1	1	R1416T
385.397	1.601	391740	WORD	n/a	wordpools/wordpool_long_EN.txt	STOOL	2	2	[0, 0, 0]	n/a	FR1	1	R1416T
386.998	0.999	393343	WORD_OFF	n/a	n/a	STOOL	2	2	[0, 0, 0]	n/a	FR1	1	R1416T
387.997	1.601	394355	WORD	n/a	wordpools/wordpool_long_EN.txt	PLAID	3	2	[0, 0, 0]	n/a	FR1	1	R1416T
389.598	0.967	395937	WORD_OFF	n/a	n/a	PLAID	3	2	[0, 0, 0]	n/a	FR1	1	R1416T
390.565	1.6	396904	WORD	n/a	wordpools/wordpool_long_EN.txt	HEART	4	2	[0, 0, 0]	n/a	FR1	1	R1416T
392.165	0.917	398506	WORD_OFF	n/a	n/a	HEART	4	2	[0, 0, 0]	n/a	FR1	1	R1416T
393.082	1.6	399422	WORD	n/a	wordpools/wordpool_long_EN.txt	PEA	5	2	[0, 0, 0]	n/a	FR1	1	R1416T
394.682	0.833	401024	WORD_OFF	n/a	n/a	PEA	5	2	[0, 0, 0]	n/a	FR1	1	R1416T
395.515	1.6	401864	WORD	n/a	wordpools/wordpool_long_EN.txt	TROUT	6	2	[0, 0, 0]	n/a	FR1	1	R1416T
397.115	0.967	403466	WORD_OFF	n/a	n/a	TROUT	6	2	[0, 0, 0]	n/a	FR1	1	R1416T
398.082	1.616	404433	WORD	n/a	wordpools/wordpool_long_EN.txt	TRIBE	7	2	[0, 0, 0]	n/a	FR1	1	R1416T
399.698	0.799	406055	WORD_OFF	n/a	n/a	TRIBE	7	2	[0, 0, 0]	n/a	FR1	1	R1416T
400.497	1.618	406849	WORD	n/a	wordpools/wordpool_long_EN.txt	PARK	8	2	[0, 0, 0]	n/a	FR1	1	R1416T
402.115	0.949	408471	WORD_OFF	n/a	n/a	PARK	8	2	[0, 0, 0]	n/a	FR1	1	R1416T
403.064	1.6	409418	WORD	n/a	wordpools/wordpool_long_EN.txt	SEAL	9	2	[0, 0, 0]	n/a	FR1	1	R1416T
404.664	0.851	411015	WORD_OFF	n/a	n/a	SEAL	9	2	[0, 0, 0]	n/a	FR1	1	R1416T
405.515	1.616	411860	WORD	n/a	wordpools/wordpool_long_EN.txt	VAULT	10	2	[0, 0, 0]	n/a	FR1	1	R1416T
407.131	0.884	413488	WORD_OFF	n/a	n/a	VAULT	10	2	[0, 0, 0]	n/a	FR1	1	R1416T
408.015	1.6	414353	WORD	n/a	wordpools/wordpool_long_EN.txt	SOAP	11	2	[0, 0, 0]	n/a	FR1	1	R1416T
409.615	0.85	415955	WORD_OFF	n/a	n/a	SOAP	11	2	[0, 0, 0]	n/a	FR1	1	R1416T
410.465	1.601	416814	WORD	n/a	wordpools/wordpool_long_EN.txt	SLIDE	12	2	[0, 0, 0]	n/a	FR1	1	R1416T
412.066	0.001	418412	PROB	0.001	n/a	n/a	-999	2	[3, 6, 6]	15	FR1	1	R1416T
412.067	0.0	418413	START	n/a	n/a	n/a	-999	2	[-999, -999, -999]	n/a	FR1	1	R1416T
412.065	0.001	418417	WORD_OFF	n/a	n/a	SLIDE	12	2	[0, 0, 0]	n/a	FR1	1	R1416T
412.066	0.001	418422	ENCODING_END	n/a	n/a	n/a	-999	2	[0, 0, 0]	n/a	FR1	1	R1416T
412.067	8.681	418422	DISTRACT_START	n/a	n/a	n/a	-999	2	[0, 0, 0]	n/a	FR1	1	R1416T
420.748	17.334	427094	PROB	17.334	n/a	n/a	-999	2	[3, 8, 6]	17	FR1	1	R1416T
438.082	0.0	444418	DISTRACT_END	n/a	n/a	n/a	-999	2	[0, 0, 0]	n/a	FR1	1	R1416T
438.082	2.165	444427	STOP	n/a	n/a	n/a	-999	2	[-999, -999, -999]	n/a	FR1	1	R1416T
440.247	0.82	446588	REC_START	n/a	n/a	n/a	-999	2	[0, 0, 0]	n/a	FR1	1	R1416T
441.067	0.788	447412	REC_WORD	0.788	n/a	ROOT	-999	2	[0, 0, 0]	n/a	FR1	1	R1416T
441.855	1.894	448200	REC_WORD	1.894	n/a	HEDGE	-999	2	[0, 0, 0]	n/a	FR1	1	R1416T
443.749	1.13	450094	REC_WORD	1.13	n/a	GUARD	1	2	[0, 0, 0]	n/a	FR1	1	R1416T
444.879	19.253	451224	REC_WORD	19.253	n/a	STAIR	-999	2	[0, 0, 0]	n/a	FR1	1	R1416T
464.132	6.339	470476	REC_WORD_VV	6.339	n/a	<>	-999	2	[0, 0, 0]	n/a	FR1	1	R1416T
470.471	2.411	476818	REC_END	n/a	n/a	n/a	-999	2	[0, 0, 0]	n/a	FR1	1	R1416T
472.882	10.35	479239	COUNTDOWN_START	n/a	n/a	n/a	-999	3	[0, 0, 0]	n/a	FR1	1	R1416T
483.232	0.0	489566	COUNTDOWN_END	n/a	n/a	n/a	-999	3	[0, 0, 0]	n/a	FR1	1	R1416T
483.232	2.133	489566	ENCODING_START	n/a	n/a	n/a	-999	3	[0, 0, 0]	n/a	FR1	1	R1416T
485.365	1.617	491703	WORD	n/a	wordpools/wordpool_long_EN.txt	BAR	1	3	[0, 0, 0]	n/a	FR1	1	R1416T
486.982	0.783	493331	WORD_OFF	n/a	n/a	BAR	1	3	[0, 0, 0]	n/a	FR1	1	R1416T
487.765	1.6	494119	WORD	n/a	wordpools/wordpool_long_EN.txt	QUEEN	2	3	[0, 0, 0]	n/a	FR1	1	R1416T
489.365	0.95	495722	WORD_OFF	n/a	n/a	QUEEN	2	3	[0, 0, 0]	n/a	FR1	1	R1416T
490.315	1.616	496663	WORD	n/a	wordpools/wordpool_long_EN.txt	DEER	3	3	[0, 0, 0]	n/a	FR1	1	R1416T
491.931	0.766	498265	WORD_OFF	n/a	n/a	DEER	3	3	[0, 0, 0]	n/a	FR1	1	R1416T
492.697	1.617	499049	WORD	n/a	wordpools/wordpool_long_EN.txt	LEAF	4	3	[0, 0, 0]	n/a	FR1	1	R1416T
494.314	0.951	500656	WORD_OFF	n/a	n/a	LEAF	4	3	[0, 0, 0]	n/a	FR1	1	R1416T
495.265	1.6	501598	WORD	n/a	wordpools/wordpool_long_EN.txt	CRIB	5	3	[0, 0, 0]	n/a	FR1	1	R1416T
496.865	0.8	503200	WORD_OFF	n/a	n/a	CRIB	5	3	[0, 0, 0]	n/a	FR1	1	R1416T
497.665	1.617	504014	WORD	n/a	wordpools/wordpool_long_EN.txt	NAIL	6	3	[0, 0, 0]	n/a	FR1	1	R1416T
499.282	1.0	505616	WORD_OFF	n/a	n/a	NAIL	6	3	[0, 0, 0]	n/a	FR1	1	R1416T
500.282	1.6	506628	WORD	n/a	wordpools/wordpool_long_EN.txt	WEED	7	3	[0, 0, 0]	n/a	FR1	1	R1416T
501.882	0.883	508231	WORD_OFF	n/a	n/a	WEED	7	3	[0, 0, 0]	n/a	FR1	1	R1416T
502.765	1.617	509101	WORD	n/a	wordpools/wordpool_long_EN.txt	GLOVE	8	3	[0, 0, 0]	n/a	FR1	1	R1416T
504.382	0.949	510729	WORD_OFF	n/a	n/a	GLOVE	8	3	[0, 0, 0]	n/a	FR1	1	R1416T
505.331	1.617	511670	WORD	n/a	wordpools/wordpool_long_EN.txt	WOOD	9	3	[0, 0, 0]	n/a	FR1	1	R1416T
506.948	1.0	513298	WORD_OFF	n/a	n/a	WOOD	9	3	[0, 0, 0]	n/a	FR1	1	R1416T
507.948	1.6	514290	WORD	n/a	wordpools/wordpool_long_EN.txt	THIEF	10	3	[0, 0, 0]	n/a	FR1	1	R1416T
509.548	0.916	515893	WORD_OFF	n/a	n/a	THIEF	10	3	[0, 0, 0]	n/a	FR1	1	R1416T
510.464	1.601	516808	WORD	n/a	wordpools/wordpool_long_EN.txt	PERCH	11	3	[0, 0, 0]	n/a	FR1	1	R1416T
512.065	0.949	518411	WORD_OFF	n/a	n/a	PERCH	11	3	[0, 0, 0]	n/a	FR1	1	R1416T
513.014	1.601	519352	WORD	n/a	wordpools/wordpool_long_EN.txt	FOAM	12	3	[0, 0, 0]	n/a	FR1	1	R1416T
514.615	0.008	520954	WORD_OFF	n/a	n/a	FOAM	12	3	[0, 0, 0]	n/a	FR1	1	R1416T
514.623	0.0	520954	ENCODING_END	n/a	n/a	n/a	-999	3	[0, 0, 0]	n/a	FR1	1	R1416T
514.616	0.007	520957	PROB	0.007	n/a	n/a	-999	3	[2, 2, 6]	10	FR1	1	R1416T
514.623	0.0	520964	START	n/a	n/a	n/a	-999	3	[-999, -999, -999]	n/a	FR1	1	R1416T
514.623	6.126	520974	DISTRACT_START	n/a	n/a	n/a	-999	3	[0, 0, 0]	n/a	FR1	1	R1416T
520.749	13.749	527090	PROB	13.749	n/a	n/a	-999	3	[7, 5, 7]	19	FR1	1	R1416T
534.498	17.95	540838	PROB	17.95	n/a	n/a	-999	3	[4, 5, 6]	15	FR1	1	R1416T
552.448	0.0	558777	DISTRACT_END	n/a	n/a	n/a	-999	3	[0, 0, 0]	n/a	FR1	1	R1416T
552.448	2.133	558787	STOP	n/a	n/a	n/a	-999	3	[-999, -999, -999]	n/a	FR1	1	R1416T
554.581	1.966	560922	REC_START	n/a	n/a	n/a	-999	3	[0, 0, 0]	n/a	FR1	1	R1416T
556.547	2.515	562886	REC_WORD	2.515	n/a	QUEEN	2	3	[0, 0, 0]	n/a	FR1	1	R1416T
559.062	1.094	565401	REC_WORD	1.094	n/a	DEER	3	3	[0, 0, 0]	n/a	FR1	1	R1416T
560.156	6.968	566495	REC_WORD	6.968	n/a	WEED	7	3	[0, 0, 0]	n/a	FR1	1	R1416T
567.124	6.746	573463	REC_WORD	6.746	n/a	RIDE	-999	3	[0, 0, 0]	n/a	FR1	1	R1416T
573.87	10.946	580208	REC_WORD_VV	10.946	n/a	<>	-999	3	[0, 0, 0]	n/a	FR1	1	R1416T
584.816	3.515	591157	REC_END	n/a	n/a	n/a	-999	3	[0, 0, 0]	n/a	FR1	1	R1416T
588.331	10.351	594667	COUNTDOWN_START	n/a	n/a	n/a	-999	4	[0, 0, 0]	n/a	FR1	1	R1416T
598.682	0.001	605020	COUNTDOWN_END	n/a	n/a	n/a	-999	4	[0, 0, 0]	n/a	FR1	1	R1416T
598.683	1.865	605020	ENCODING_START	n/a	n/a	n/a	-999	4	[0, 0, 0]	n/a	FR1	1	R1416T
600.548	1.599	606877	WORD	n/a	wordpools/wordpool_long_EN.txt	HOSE	1	4	[0, 0, 0]	n/a	FR1	1	R1416T
602.147	1.0	608479	WORD_OFF	n/a	n/a	HOSE	1	4	[0, 0, 0]	n/a	FR1	1	R1416T
603.147	1.6	609496	WORD	n/a	wordpools/wordpool_long_EN.txt	BOARD	2	4	[0, 0, 0]	n/a	FR1	1	R1416T
604.747	0.935	611073	WORD_OFF	n/a	n/a	BOARD	2	4	[0, 0, 0]	n/a	FR1	1	R1416T
605.682	1.6	612015	WORD	n/a	wordpools/wordpool_long_EN.txt	STORE	3	4	[0, 0, 0]	n/a	FR1	1	R1416T
607.282	0.916	613617	WORD_OFF	n/a	n/a	STORE	3	4	[0, 0, 0]	n/a	FR1	1	R1416T
608.198	1.617	614533	WORD	n/a	wordpools/wordpool_long_EN.txt	BRIDGE	4	4	[0, 0, 0]	n/a	FR1	1	R1416T
609.815	1.0	616161	WORD_OFF	n/a	n/a	BRIDGE	4	4	[0, 0, 0]	n/a	FR1	1	R1416T
610.815	1.6	617153	WORD	n/a	wordpools/wordpool_long_EN.txt	FILM	5	4	[0, 0, 0]	n/a	FR1	1	R1416T
612.415	0.816	618755	WORD_OFF	n/a	n/a	FILM	5	4	[0, 0, 0]	n/a	FR1	1	R1416T
613.231	1.601	619569	WORD	n/a	wordpools/wordpool_long_EN.txt	BOOK	6	4	[0, 0, 0]	n/a	FR1	1	R1416T
614.832	0.765	621171	WORD_OFF	n/a	n/a	BOOK	6	4	[0, 0, 0]	n/a	FR1	1	R1416T
615.597	1.601	621935	WORD	n/a	wordpools/wordpool_long_EN.txt	PET	7	4	[0, 0, 0]	n/a	FR1	1	R1416T
617.198	0.767	623537	WORD_OFF	n/a	n/a	PET	7	4	[0, 0, 0]	n/a	FR1	1	R1416T
617.965	1.6	624300	WORD	n/a	wordpools/wordpool_long_EN.txt	THUMB	8	4	[0, 0, 0]	n/a	FR1	1	R1416T
619.565	0.917	625903	WORD_OFF	n/a	n/a	THUMB	8	4	[0, 0, 0]	n/a	FR1	1	R1416T
620.482	1.616	626818	WORD	n/a	wordpools/wordpool_long_EN.txt	KITE	9	4	[0, 0, 0]	n/a	FR1	1	R1416T
622.098	0.867	628446	WORD_OFF	n/a	n/a	KITE	9	4	[0, 0, 0]	n/a	FR1	1	R1416T
622.965	1.617	629306	WORD	n/a	wordpools/wordpool_long_EN.txt	BLUSH	10	4	[0, 0, 0]	n/a	FR1	1	R1416T
624.582	0.85	630913	WORD_OFF	n/a	n/a	BLUSH	10	4	[0, 0, 0]	n/a	FR1	1	R1416T
625.432	1.6	631773	WORD	n/a	wordpools/wordpool_long_EN.txt	BROOM	11	4	[0, 0, 0]	n/a	FR1	1	R1416T
627.032	0.966	633375	WORD_OFF	n/a	n/a	BROOM	11	4	[0, 0, 0]	n/a	FR1	1	R1416T
627.998	1.617	634347	WORD	n/a	wordpools/wordpool_long_EN.txt	SCOTCH	12	4	[0, 0, 0]	n/a	FR1	1	R1416T
629.615	0.001	635950	WORD_OFF	n/a	n/a	SCOTCH	12	4	[0, 0, 0]	n/a	FR1	1	R1416T
629.616	0.001	635950	ENCODING_END	n/a	n/a	n/a	-999	4	[0, 0, 0]	n/a	FR1	1	R1416T
629.617	0.0	635950	DISTRACT_START	n/a	n/a	n/a	-999	4	[0, 0, 0]	n/a	FR1	1	R1416T
629.615	0.002	635951	PROB	0.002	n/a	n/a	-999	4	[5, 7, 8]	20	FR1	1	R1416T
629.617	6.665	635953	START	n/a	n/a	n/a	-999	4	[-999, -999, -999]	n/a	FR1	1	R1416T
636.282	4.917	642617	PROB	4.917	n/a	n/a	-999	4	[8, 2, 4]	14	FR1	1	R1416T
641.199	14.766	647534	PROB	14.766	n/a	n/a	-999	4	[2, 6, 5]	13	FR1	1	R1416T
655.965	0.0	662299	STOP	n/a	n/a	n/a	-999	4	[-999, -999, -999]	n/a	FR1	1	R1416T
655.965	2.383	662301	DISTRACT_END	n/a	n/a	n/a	-999	4	[0, 0, 0]	n/a	FR1	1	R1416T
658.348	2.118	664675	REC_START	n/a	n/a	n/a	-999	4	[0, 0, 0]	n/a	FR1	1	R1416T
660.466	0.538	666800	REC_WORD_VV	0.538	n/a	<>	-999	4	[0, 0, 0]	n/a	FR1	1	R1416T
661.004	3.618	667338	REC_WORD	3.618	n/a	STORE	3	4	[0, 0, 0]	n/a	FR1	1	R1416T
664.622	1.092	670956	REC_WORD	1.092	n/a	GOLD	-999	4	[0, 0, 0]	n/a	FR1	1	R1416T
665.714	14.369	672048	REC_WORD	14.369	n/a	ROSE	-999	4	[0, 0, 0]	n/a	FR1	1	R1416T
680.083	8.486	686416	REC_WORD_VV	8.486	n/a	<>	-999	4	[0, 0, 0]	n/a	FR1	1	R1416T
688.569	0.479	694905	REC_END	n/a	n/a	n/a	-999	4	[0, 0, 0]	n/a	FR1	1	R1416T
689.048	10.351	695393	COUNTDOWN_START	n/a	n/a	n/a	-999	5	[0, 0, 0]	n/a	FR1	1	R1416T
699.399	0.0	705720	COUNTDOWN_END	n/a	n/a	n/a	-999	5	[0, 0, 0]	n/a	FR1	1	R1416T
699.399	1.866	705740	ENCODING_START	n/a	n/a	n/a	-999	5	[0, 0, 0]	n/a	FR1	1	R1416T
701.265	1.617	707603	WORD	n/a	wordpools/wordpool_long_EN.txt	WORLD	1	5	[0, 0, 0]	n/a	FR1	1	R1416T
702.882	0.899	709205	WORD_OFF	n/a	n/a	WORLD	1	5	[0, 0, 0]	n/a	FR1	1	R1416T
703.781	1.601	710115	WORD	n/a	wordpools/wordpool_long_EN.txt	EGG	2	5	[0, 0, 0]	n/a	FR1	1	R1416T
705.382	0.9	711718	WORD_OFF	n/a	n/a	EGG	2	5	[0, 0, 0]	n/a	FR1	1	R1416T
706.282	1.616	712613	WORD	n/a	wordpools/wordpool_long_EN.txt	DRINK	3	5	[0, 0, 0]	n/a	FR1	1	R1416T
707.898	0.85	714236	WORD_OFF	n/a	n/a	DRINK	3	5	[0, 0, 0]	n/a	FR1	1	R1416T
708.748	1.6	715081	WORD	n/a	wordpools/wordpool_long_EN.txt	STRAW	4	5	[0, 0, 0]	n/a	FR1	1	R1416T
710.348	0.9	716683	WORD_OFF	n/a	n/a	STRAW	4	5	[0, 0, 0]	n/a	FR1	1	R1416T
711.248	1.6	717573	WORD	n/a	wordpools/wordpool_long_EN.txt	SINK	5	5	[0, 0, 0]	n/a	FR1	1	R1416T
712.848	0.949	719176	WORD_OFF	n/a	n/a	SINK	5	5	[0, 0, 0]	n/a	FR1	1	R1416T
713.797	1.601	720137	WORD	n/a	wordpools/wordpool_long_EN.txt	SPARK	6	5	[0, 0, 0]	n/a	FR1	1	R1416T
715.398	1.0	721719	WORD_OFF	n/a	n/a	SPARK	6	5	[0, 0, 0]	n/a	FR1	1	R1416T
716.398	1.6	722737	WORD	n/a	wordpools/wordpool_long_EN.txt	SAIL	7	5	[0, 0, 0]	n/a	FR1	1	R1416T
717.998	0.9	724339	WORD_OFF	n/a	n/a	SAIL	7	5	[0, 0, 0]	n/a	FR1	1	R1416T
718.898	1.6	725230	WORD	n/a	wordpools/wordpool_long_EN.txt	PIN	8	5	[0, 0, 0]	n/a	FR1	1	R1416T
720.498	0.867	726832	WORD_OFF	n/a	n/a	PIN	8	5	[0, 0, 0]	n/a	FR1	1	R1416T
721.365	1.6	727697	WORD	n/a	wordpools/wordpool_long_EN.txt	PASTE	9	5	[0, 0, 0]	n/a	FR1	1	R1416T
722.965	0.766	729299	WORD_OFF	n/a	n/a	PASTE	9	5	[0, 0, 0]	n/a	FR1	1	R1416T
723.731	1.601	730062	WORD	n/a	wordpools/wordpool_long_EN.txt	TANK	10	5	[0, 0, 0]	n/a	FR1	1	R1416T
725.332	0.766	731665	WORD_OFF	n/a	n/a	TANK	10	5	[0, 0, 0]	n/a	FR1	1	R1416T
726.098	1.617	732428	WORD	n/a	wordpools/wordpool_long_EN.txt	BOY	11	5	[0, 0, 0]	n/a	FR1	1	R1416T
727.715	0.867	734050	WORD_OFF	n/a	n/a	BOY	11	5	[0, 0, 0]	n/a	FR1	1	R1416T
728.582	1.6	734921	WORD	n/a	wordpools/wordpool_long_EN.txt	GEESE	12	5	[0, 0, 0]	n/a	FR1	1	R1416T
730.182	0.001	736513	PROB	0.001	n/a	n/a	-999	5	[4, 2, 7]	13	FR1	1	R1416T
730.183	0.0	736514	START	n/a	n/a	n/a	-999	5	[-999, -999, -999]	n/a	FR1	1	R1416T
730.182	0.001	736518	WORD_OFF	n/a	n/a	GEESE	12	5	[0, 0, 0]	n/a	FR1	1	R1416T
730.183	0.0	736523	ENCODING_END	n/a	n/a	n/a	-999	5	[0, 0, 0]	n/a	FR1	1	R1416T
730.183	7.084	736523	DISTRACT_START	n/a	n/a	n/a	-999	5	[0, 0, 0]	n/a	FR1	1	R1416T
737.267	4.632	743597	PROB	4.632	n/a	n/a	-999	5	[5, 1, 3]	9	FR1	1	R1416T
741.899	7.566	748229	PROB	7.566	n/a	n/a	-999	5	[4, 4, 6]	14	FR1	1	R1416T
749.465	7.232	755795	PROB	7.232	n/a	n/a	-999	5	[5, 7, 4]	16	FR1	1	R1416T
756.697	0.0	763026	STOP	n/a	n/a	n/a	-999	5	[-999, -999, -999]	n/a	FR1	1	R1416T
756.697	2.117	763027	DISTRACT_END	n/a	n/a	n/a	-999	5	[0, 0, 0]	n/a	FR1	1	R1416T
758.814	0.854	765146	REC_START	n/a	n/a	n/a	-999	5	[0, 0, 0]	n/a	FR1	1	R1416T
759.668	1.776	765997	REC_WORD	1.776	n/a	WASTE	-999	5	[0, 0, 0]	n/a	FR1	1	R1416T
761.444	7.303	767773	REC_WORD	7.303	n/a	COW	-999	5	[0, 0, 0]	n/a	FR1	1	R1416T
768.747	2.7	775076	REC_WORD_VV	2.7	n/a	<>	-999	5	[0, 0, 0]	n/a	FR1	1	R1416T
771.447	17.599	777776	REC_WORD	17.599	n/a	TRAIL	-999	5	[0, 0, 0]	n/a	FR1	1	R1416T
789.046	1.335	795382	REC_END	n/a	n/a	n/a	-999	5	[0, 0, 0]	n/a	FR1	1	R1416T
790.381	10.351	796704	COUNTDOWN_START	n/a	n/a	n/a	-999	6	[0, 0, 0]	n/a	FR1	1	R1416T
800.732	0.001	807057	COUNTDOWN_END	n/a	n/a	n/a	-999	6	[0, 0, 0]	n/a	FR1	1	R1416T
800.733	2.032	807057	ENCODING_START	n/a	n/a	n/a	-999	6	[0, 0, 0]	n/a	FR1	1	R1416T
802.765	1.6	809092	WORD	n/a	wordpools/wordpool_long_EN.txt	STONE	1	6	[0, 0, 0]	n/a	FR1	1	R1416T
804.365	0.766	810694	WORD_OFF	n/a	n/a	STONE	1	6	[0, 0, 0]	n/a	FR1	1	R1416T
805.131	1.617	811457	WORD	n/a	wordpools/wordpool_long_EN.txt	GOAL	2	6	[0, 0, 0]	n/a	FR1	1	R1416T
806.748	0.884	813080	WORD_OFF	n/a	n/a	GOAL	2	6	[0, 0, 0]	n/a	FR1	1	R1416T
807.632	1.615	813950	WORD	n/a	wordpools/wordpool_long_EN.txt	MASK	3	6	[0, 0, 0]	n/a	FR1	1	R1416T
809.247	0.768	815578	WORD_OFF	n/a	n/a	MASK	3	6	[0, 0, 0]	n/a	FR1	1	R1416T
810.015	1.6	816341	WORD	n/a	wordpools/wordpool_long_EN.txt	GREASE	4	6	[0, 0, 0]	n/a	FR1	1	R1416T
811.615	0.783	817943	WORD_OFF	n/a	n/a	GREASE	4	6	[0, 0, 0]	n/a	FR1	1	R1416T
812.398	1.6	818732	WORD	n/a	wordpools/wordpool_long_EN.txt	GROUND	5	6	[0, 0, 0]	n/a	FR1	1	R1416T
813.998	0.967	820334	WORD_OFF	n/a	n/a	GROUND	5	6	[0, 0, 0]	n/a	FR1	1	R1416T
814.965	1.6	821301	WORD	n/a	wordpools/wordpool_long_EN.txt	ARCH	6	6	[0, 0, 0]	n/a	FR1	1	R1416T
816.565	0.833	822903	WORD_OFF	n/a	n/a	ARCH	6	6	[0, 0, 0]	n/a	FR1	1	R1416T
817.398	1.6	823717	WORD	n/a	wordpools/wordpool_long_EN.txt	LAWN	7	6	[0, 0, 0]	n/a	FR1	1	R1416T
818.998	0.85	825320	WORD_OFF	n/a	n/a	LAWN	7	6	[0, 0, 0]	n/a	FR1	1	R1416T
819.848	1.617	826185	WORD	n/a	wordpools/wordpool_long_EN.txt	FROG	8	6	[0, 0, 0]	n/a	FR1	1	R1416T
821.465	0.9	827787	WORD_OFF	n/a	n/a	FROG	8	6	[0, 0, 0]	n/a	FR1	1	R1416T
822.365	1.6	828703	WORD	n/a	wordpools/wordpool_long_EN.txt	ICE	9	6	[0, 0, 0]	n/a	FR1	1	R1416T
823.965	0.983	830300	WORD_OFF	n/a	n/a	ICE	9	6	[0, 0, 0]	n/a	FR1	1	R1416T
824.948	1.617	831272	WORD	n/a	wordpools/wordpool_long_EN.txt	BRANCH	10	6	[0, 0, 0]	n/a	FR1	1	R1416T
826.565	0.866	832900	WORD_OFF	n/a	n/a	BRANCH	10	6	[0, 0, 0]	n/a	FR1	1	R1416T
827.431	1.6	833764	WORD	n/a	wordpools/wordpool_long_EN.txt	WHEEL	11	6	[0, 0, 0]	n/a	FR1	1	R1416T
829.031	0.934	835361	WORD_OFF	n/a	n/a	WHEEL	11	6	[0, 0, 0]	n/a	FR1	1	R1416T
829.965	1.616	836283	WORD	n/a	wordpools/wordpool_long_EN.txt	TOWN	12	6	[0, 0, 0]	n/a	FR1	1	R1416T
831.581	0.002	837907	PROB	0.002	n/a	n/a	-999	6	[2, 4, 2]	8	FR1	1	R1416T
831.583	0.0	837909	START	n/a	n/a	n/a	-999	6	[-999, -999, -999]	n/a	FR1	1	R1416T
831.581	0.002	837910	WORD_OFF	n/a	n/a	TOWN	12	6	[0, 0, 0]	n/a	FR1	1	R1416T
831.583	0.0	837910	ENCODING_END	n/a	n/a	n/a	-999	6	[0, 0, 0]	n/a	FR1	1	R1416T
831.583	4.599	837910	DISTRACT_START	n/a	n/a	n/a	-999	6	[0, 0, 0]	n/a	FR1	1	R1416T
836.182	5.216	842507	PROB	5.216	n/a	n/a	-999	6	[4, 5, 1]	10	FR1	1	R1416T
841.398	9.333	847723	PROB	9.333	n/a	n/a	-999	6	[8, 3, 5]	16	FR1	1	R1416T
850.731	8.901	857056	PROB	8.901	n/a	n/a	-999	6	[4, 7, 4]	15	FR1	1	R1416T
859.632	0.0	865956	STOP	n/a	n/a	n/a	-999	6	[-999, -999, -999]	n/a	FR1	1	R1416T
859.632	2.317	865961	DISTRACT_END	n/a	n/a	n/a	-999	6	[0, 0, 0]	n/a	FR1	1	R1416T
861.949	1.615	868263	REC_START	n/a	n/a	n/a	-999	6	[0, 0, 0]	n/a	FR1	1	R1416T
863.564	2.285	869888	REC_WORD	2.285	n/a	STONE	1	6	[0, 0, 0]	n/a	FR1	1	R1416T
865.849	1.56	872173	REC_WORD	1.56	n/a	GOLD	-999	6	[0, 0, 0]	n/a	FR1	1	R1416T
867.409	4.724	873733	REC_WORD	4.724	n/a	MASK	3	6	[0, 0, 0]	n/a	FR1	1	R1416T
872.133	1.761	878457	REC_WORD	1.761	n/a	CHINA	-999	6	[0, 0, 0]	n/a	FR1	1	R1416T
873.894	5.831	880217	REC_WORD_VV	5.831	n/a	<>	-999	6	[0, 0, 0]	n/a	FR1	1	R1416T
879.725	12.457	886048	REC_WORD_VV	12.457	n/a	<>	-999	6	[0, 0, 0]	n/a	FR1	1	R1416T
892.182	2.066	898499	REC_END	n/a	n/a	n/a	-999	6	[0, 0, 0]	n/a	FR1	1	R1416T
894.248	10.35	900584	COUNTDOWN_START	n/a	n/a	n/a	-999	7	[0, 0, 0]	n/a	FR1	1	R1416T
904.598	0.0	910911	COUNTDOWN_END	n/a	n/a	n/a	-999	7	[0, 0, 0]	n/a	FR1	1	R1416T
904.598	2.099	910911	ENCODING_START	n/a	n/a	n/a	-999	7	[0, 0, 0]	n/a	FR1	1	R1416T
906.697	1.601	913022	WORD	n/a	wordpools/wordpool_long_EN.txt	PORK	1	7	[0, 0, 0]	n/a	FR1	1	R1416T
908.298	0.883	914625	WORD_OFF	n/a	n/a	PORK	1	7	[0, 0, 0]	n/a	FR1	1	R1416T
909.181	1.601	915510	WORD	n/a	wordpools/wordpool_long_EN.txt	BEAST	2	7	[0, 0, 0]	n/a	FR1	1	R1416T
910.782	0.899	917092	WORD_OFF	n/a	n/a	BEAST	2	7	[0, 0, 0]	n/a	FR1	1	R1416T
911.681	1.601	918002	WORD	n/a	wordpools/wordpool_long_EN.txt	THREAD	3	7	[0, 0, 0]	n/a	FR1	1	R1416T
913.282	0.833	919605	WORD_OFF	n/a	n/a	THREAD	3	7	[0, 0, 0]	n/a	FR1	1	R1416T
914.115	1.616	920444	WORD	n/a	wordpools/wordpool_long_EN.txt	JAR	4	7	[0, 0, 0]	n/a	FR1	1	R1416T
915.731	0.917	922052	WORD_OFF	n/a	n/a	JAR	4	7	[0, 0, 0]	n/a	FR1	1	R1416T
916.648	1.6	922968	WORD	n/a	wordpools/wordpool_long_EN.txt	SMILE	5	7	[0, 0, 0]	n/a	FR1	1	R1416T
918.248	0.833	924570	WORD_OFF	n/a	n/a	SMILE	5	7	[0, 0, 0]	n/a	FR1	1	R1416T
919.081	1.6	925404	WORD	n/a	wordpools/wordpool_long_EN.txt	SNAIL	6	7	[0, 0, 0]	n/a	FR1	1	R1416T
920.681	0.767	927007	WORD_OFF	n/a	n/a	SNAIL	6	7	[0, 0, 0]	n/a	FR1	1	R1416T
921.448	1.6	927775	WORD	n/a	wordpools/wordpool_long_EN.txt	SLEEVE	7	7	[0, 0, 0]	n/a	FR1	1	R1416T
923.048	0.8	929378	WORD_OFF	n/a	n/a	SLEEVE	7	7	[0, 0, 0]	n/a	FR1	1	R1416T
923.848	1.6	930166	WORD	n/a	wordpools/wordpool_long_EN.txt	SMOG	8	7	[0, 0, 0]	n/a	FR1	1	R1416T
925.448	0.866	931769	WORD_OFF	n/a	n/a	SMOG	8	7	[0, 0, 0]	n/a	FR1	1	R1416T
926.314	1.617	932634	WORD	n/a	wordpools/wordpool_long_EN.txt	SCHOOL	9	7	[0, 0, 0]	n/a	FR1	1	R1416T
927.931	0.883	934256	WORD_OFF	n/a	n/a	SCHOOL	9	7	[0, 0, 0]	n/a	FR1	1	R1416T
928.814	1.617	935126	WORD	n/a	wordpools/wordpool_long_EN.txt	TOOTH	10	7	[0, 0, 0]	n/a	FR1	1	R1416T
930.431	0.95	936754	WORD_OFF	n/a	n/a	TOOTH	10	7	[0, 0, 0]	n/a	FR1	1	R1416T
931.381	1.6	937695	WORD	n/a	wordpools/wordpool_long_EN.txt	RAT	11	7	[0, 0, 0]	n/a	FR1	1	R1416T
932.981	0.767	939298	WORD_OFF	n/a	n/a	RAT	11	7	[0, 0, 0]	n/a	FR1	1	R1416T
933.748	1.6	940061	WORD	n/a	wordpools/wordpool_long_EN.txt	PIPE	12	7	[0, 0, 0]	n/a	FR1	1	R1416T
935.348	0.001	941663	WORD_OFF	n/a	n/a	PIPE	12	7	[0, 0, 0]	n/a	FR1	1	R1416T
935.349	0.0	941663	ENCODING_END	n/a	n/a	n/a	-999	7	[0, 0, 0]	n/a	FR1	1	R1416T
935.349	0.0	941663	DISTRACT_START	n/a	n/a	n/a	-999	7	[0, 0, 0]	n/a	FR1	1	R1416T
935.348	0.001	941668	PROB	0.001	n/a	n/a	-999	7	[1, 2, 7]	10	FR1	1	R1416T
935.349	4.866	941669	START	n/a	n/a	n/a	-999	7	[-999, -999, -999]	n/a	FR1	1	R1416T
940.215	4.533	946535	PROB	4.533	n/a	n/a	-999	7	[6, 1, 4]	11	FR1	1	R1416T
944.748	8.435	951068	PROB	8.435	n/a	n/a	-999	7	[4, 6, 5]	15	FR1	1	R1416T
953.183	13.515	959502	PROB	13.515	n/a	n/a	-999	7	[2, 2, 1]	5	FR1	1	R1416T
966.698	0.0	973017	STOP	n/a	n/a	n/a	-999	7	[-999, -999, -999]	n/a	FR1	1	R1416T
966.698	2.017	973026	DISTRACT_END	n/a	n/a	n/a	-999	7	[0, 0, 0]	n/a	FR1	1	R1416T
968.715	0.045	975038	REC_START	n/a	n/a	n/a	-999	7	[0, 0, 0]	n/a	FR1	1	R1416T
968.76	3.177	975079	REC_WORD	3.177	n/a	SNORT	-999	7	[0, 0, 0]	n/a	FR1	1	R1416T
971.937	2.391	978256	REC_WORD	2.391	n/a	BREAST	-999	7	[0, 0, 0]	n/a	FR1	1	R1416T
974.328	24.607	980646	REC_WORD	24.607	n/a	PIG	-999	7	[0, 0, 0]	n/a	FR1	1	R1416T
998.935	5.997	1005253	REC_END	n/a	n/a	n/a	-999	7	[0, 0, 0]	n/a	FR1	1	R1416T
1004.932	10.35	1011256	COUNTDOWN_START	n/a	n/a	n/a	-999	8	[0, 0, 0]	n/a	FR1	1	R1416T
1015.282	0.0	1021608	COUNTDOWN_END	n/a	n/a	n/a	-999	8	[0, 0, 0]	n/a	FR1	1	R1416T
1015.282	2.083	1021608	ENCODING_START	n/a	n/a	n/a	-999	8	[0, 0, 0]	n/a	FR1	1	R1416T
1017.365	1.599	1023688	WORD	n/a	wordpools/wordpool_long_EN.txt	SKY	1	8	[0, 0, 0]	n/a	FR1	1	R1416T
1018.964	0.901	1025271	WORD_OFF	n/a	n/a	SKY	1	8	[0, 0, 0]	n/a	FR1	1	R1416T
1019.865	1.6	1026187	WORD	n/a	wordpools/wordpool_long_EN.txt	SOCK	2	8	[0, 0, 0]	n/a	FR1	1	R1416T
1021.465	0.983	1027789	WORD_OFF	n/a	n/a	SOCK	2	8	[0, 0, 0]	n/a	FR1	1	R1416T
1022.448	1.616	1028756	WORD	n/a	wordpools/wordpool_long_EN.txt	RAIL	3	8	[0, 0, 0]	n/a	FR1	1	R1416T
1024.064	0.9	1030383	WORD_OFF	n/a	n/a	RAIL	3	8	[0, 0, 0]	n/a	FR1	1	R1416T
1024.964	1.6	1031274	WORD	n/a	wordpools/wordpool_long_EN.txt	CHURCH	4	8	[0, 0, 0]	n/a	FR1	1	R1416T
1026.564	0.9	1032876	WORD_OFF	n/a	n/a	CHURCH	4	8	[0, 0, 0]	n/a	FR1	1	R1416T
1027.464	1.6	1033792	WORD	n/a	wordpools/wordpool_long_EN.txt	SALT	5	8	[0, 0, 0]	n/a	FR1	1	R1416T
1029.064	0.8	1035389	WORD_OFF	n/a	n/a	SALT	5	8	[0, 0, 0]	n/a	FR1	1	R1416T
1029.864	1.6	1036183	WORD	n/a	wordpools/wordpool_long_EN.txt	MAP	6	8	[0, 0, 0]	n/a	FR1	1	R1416T
1031.464	0.9	1037785	WORD_OFF	n/a	n/a	MAP	6	8	[0, 0, 0]	n/a	FR1	1	R1416T
1032.364	1.601	1038676	WORD	n/a	wordpools/wordpool_long_EN.txt	LOCK	7	8	[0, 0, 0]	n/a	FR1	1	R1416T
1033.965	0.817	1040278	WORD_OFF	n/a	n/a	LOCK	7	8	[0, 0, 0]	n/a	FR1	1	R1416T
1034.782	1.616	1041092	WORD	n/a	wordpools/wordpool_long_EN.txt	LINT	8	8	[0, 0, 0]	n/a	FR1	1	R1416T
1036.398	0.916	1042720	WORD_OFF	n/a	n/a	LINT	8	8	[0, 0, 0]	n/a	FR1	1	R1416T
1037.314	1.6	1043636	WORD	n/a	wordpools/wordpool_long_EN.txt	STEM	9	8	[0, 0, 0]	n/a	FR1	1	R1416T
1038.914	0.884	1045238	WORD_OFF	n/a	n/a	STEM	9	8	[0, 0, 0]	n/a	FR1	1	R1416T
1039.798	1.6	1046103	WORD	n/a	wordpools/wordpool_long_EN.txt	SPHINX	10	8	[0, 0, 0]	n/a	FR1	1	R1416T
1041.398	0.866	1047705	WORD_OFF	n/a	n/a	SPHINX	10	8	[0, 0, 0]	n/a	FR1	1	R1416T
1042.264	1.601	1048570	WORD	n/a	wordpools/wordpool_long_EN.txt	BAT	11	8	[0, 0, 0]	n/a	FR1	1	R1416T
1043.865	0.833	1050173	WORD_OFF	n/a	n/a	BAT	11	8	[0, 0, 0]	n/a	FR1	1	R1416T
1044.698	1.6	1051012	WORD	n/a	wordpools/wordpool_long_EN.txt	TRAY	12	8	[0, 0, 0]	n/a	FR1	1	R1416T
1046.298	0.0	1052613	PROB	0.0	n/a	n/a	-999	8	[3, 4, 6]	13	FR1	1	R1416T
1046.298	0.002	1052614	WORD_OFF	n/a	n/a	TRAY	12	8	[0, 0, 0]	n/a	FR1	1	R1416T
1046.3	0.0	1052614	ENCODING_END	n/a	n/a	n/a	-999	8	[0, 0, 0]	n/a	FR1	1	R1416T
1046.3	0.0	1052614	DISTRACT_START	n/a	n/a	n/a	-999	8	[0, 0, 0]	n/a	FR1	1	R1416T
1046.3	10.466	1052615	START	n/a	n/a	n/a	-999	8	[-999, -999, -999]	n/a	FR1	1	R1416T
1056.766	6.516	1063080	PROB	6.516	n/a	n/a	-999	8	[2, 6, 8]	16	FR1	1	R1416T
1063.282	3.1	1069596	PROB	3.1	n/a	n/a	-999	8	[2, 2, 3]	7	FR1	1	R1416T
1066.382	0.0	1072696	STOP	n/a	n/a	n/a	-999	8	[-999, -999, -999]	n/a	FR1	1	R1416T
1066.382	2.333	1072703	DISTRACT_END	n/a	n/a	n/a	-999	8	[0, 0, 0]	n/a	FR1	1	R1416T
1068.715	0.9	1075031	REC_START	n/a	n/a	n/a	-999	8	[0, 0, 0]	n/a	FR1	1	R1416T
1069.615	3.395	1075929	REC_WORD	3.395	n/a	SKY	1	8	[0, 0, 0]	n/a	FR1	1	R1416T
1073.01	4.315	1079324	REC_WORD	4.315	n/a	TRAIL	-999	8	[0, 0, 0]	n/a	FR1	1	R1416T
1077.325	3.317	1083638	REC_WORD_VV	3.317	n/a	<>	-999	8	[0, 0, 0]	n/a	FR1	1	R1416T
1080.642	0.311	1086955	REC_WORD	0.311	n/a	SKY	1	8	[0, 0, 0]	n/a	FR1	1	R1416T
1080.953	18.002	1087266	REC_WORD	18.002	n/a	TRAIL	-999	8	[0, 0, 0]	n/a	FR1	1	R1416T
1098.955	2.894	1105267	REC_END	n/a	n/a	n/a	-999	8	[0, 0, 0]	n/a	FR1	1	R1416T
1101.849	10.35	1108166	COUNTDOWN_START	n/a	n/a	n/a	-999	9	[0, 0, 0]	n/a	FR1	1	R1416T
1112.199	0.0	1118513	COUNTDOWN_END	n/a	n/a	n/a	-999	9	[0, 0, 0]	n/a	FR1	1	R1416T
1112.199	2.083	1118519	ENCODING_START	n/a	n/a	n/a	-999	9	[0, 0, 0]	n/a	FR1	1	R1416T
1114.282	1.6	1120605	WORD	n/a	wordpools/wordpool_long_EN.txt	SLOPE	1	9	[0, 0, 0]	n/a	FR1	1	R1416T
1115.882	1.0	1122202	WORD_OFF	n/a	n/a	SLOPE	1	9	[0, 0, 0]	n/a	FR1	1	R1416T
1116.882	1.6	1123199	WORD	n/a	wordpools/wordpool_long_EN.txt	LAND	2	9	[0, 0, 0]	n/a	FR1	1	R1416T
1118.482	0.85	1124801	WORD_OFF	n/a	n/a	LAND	2	9	[0, 0, 0]	n/a	FR1	1	R1416T
1119.332	1.616	1125641	WORD	n/a	wordpools/wordpool_long_EN.txt	SKI	3	9	[0, 0, 0]	n/a	FR1	1	R1416T
1120.948	1.0	1127263	WORD_OFF	n/a	n/a	SKI	3	9	[0, 0, 0]	n/a	FR1	1	R1416T
1121.948	1.6	1128261	WORD	n/a	wordpools/wordpool_long_EN.txt	MOUSE	4	9	[0, 0, 0]	n/a	FR1	1	R1416T
1123.548	0.767	1129863	WORD_OFF	n/a	n/a	MOUSE	4	9	[0, 0, 0]	n/a	FR1	1	R1416T
1124.315	1.6	1130626	WORD	n/a	wordpools/wordpool_long_EN.txt	CHIN	5	9	[0, 0, 0]	n/a	FR1	1	R1416T
1125.915	0.933	1132229	WORD_OFF	n/a	n/a	CHIN	5	9	[0, 0, 0]	n/a	FR1	1	R1416T
1126.848	1.616	1133164	WORD	n/a	wordpools/wordpool_long_EN.txt	SEAT	6	9	[0, 0, 0]	n/a	FR1	1	R1416T
1128.464	0.934	1134772	WORD_OFF	n/a	n/a	SEAT	6	9	[0, 0, 0]	n/a	FR1	1	R1416T
1129.398	1.616	1135713	WORD	n/a	wordpools/wordpool_long_EN.txt	BANK	7	9	[0, 0, 0]	n/a	FR1	1	R1416T
1131.014	0.9	1137316	WORD_OFF	n/a	n/a	BANK	7	9	[0, 0, 0]	n/a	FR1	1	R1416T
1131.914	1.6	1138232	WORD	n/a	wordpools/wordpool_long_EN.txt	TRASH	8	9	[0, 0, 0]	n/a	FR1	1	R1416T
1133.514	0.9	1139834	WORD_OFF	n/a	n/a	TRASH	8	9	[0, 0, 0]	n/a	FR1	1	R1416T
1134.414	1.601	1140724	WORD	n/a	wordpools/wordpool_long_EN.txt	PIT	9	9	[0, 0, 0]	n/a	FR1	1	R1416T
1136.015	0.966	1142327	WORD_OFF	n/a	n/a	PIT	9	9	[0, 0, 0]	n/a	FR1	1	R1416T
1136.981	1.6	1143293	WORD	n/a	wordpools/wordpool_long_EN.txt	CLOWN	10	9	[0, 0, 0]	n/a	FR1	1	R1416T
1138.581	0.984	1144896	WORD_OFF	n/a	n/a	CLOWN	10	9	[0, 0, 0]	n/a	FR1	1	R1416T
1139.565	1.617	1145882	WORD	n/a	wordpools/wordpool_long_EN.txt	BADGE	11	9	[0, 0, 0]	n/a	FR1	1	R1416T
1141.182	0.783	1147490	WORD_OFF	n/a	n/a	BADGE	11	9	[0, 0, 0]	n/a	FR1	1	R1416T
1141.965	1.6	1148279	WORD	n/a	wordpools/wordpool_long_EN.txt	STRING	12	9	[0, 0, 0]	n/a	FR1	1	R1416T
1143.565	0.002	1149875	PROB	0.002	n/a	n/a	-999	9	[3, 5, 4]	12	FR1	1	R1416T
1143.567	0.0	1149877	START	n/a	n/a	n/a	-999	9	[-999, -999, -999]	n/a	FR1	1	R1416T
1143.565	0.001	1149881	WORD_OFF	n/a	n/a	STRING	12	9	[0, 0, 0]	n/a	FR1	1	R1416T
1143.566	0.001	1149881	ENCODING_END	n/a	n/a	n/a	-999	9	[0, 0, 0]	n/a	FR1	1	R1416T
1143.567	6.565	1149881	DISTRACT_START	n/a	n/a	n/a	-999	9	[0, 0, 0]	n/a	FR1	1	R1416T
1150.132	11.367	1156442	PROB	11.367	n/a	n/a	-999	9	[7, 8, 1]	16	FR1	1	R1416T
1161.499	8.216	1167808	PROB	8.216	n/a	n/a	-999	9	[5, 3, 1]	9	FR1	1	R1416T
1169.715	0.0	1176024	DISTRACT_END	n/a	n/a	n/a	-999	9	[0, 0, 0]	n/a	FR1	1	R1416T
1169.715	2.25	1176024	STOP	n/a	n/a	n/a	-999	9	[-999, -999, -999]	n/a	FR1	1	R1416T
1171.965	1.198	1178276	REC_START	n/a	n/a	n/a	-999	9	[0, 0, 0]	n/a	FR1	1	R1416T
1173.163	1.736	1179472	REC_WORD	1.736	n/a	SLOPE	1	9	[0, 0, 0]	n/a	FR1	1	R1416T
1174.899	3.767	1181207	REC_WORD	3.767	n/a	TRAIL	-999	9	[0, 0, 0]	n/a	FR1	1	R1416T
1178.666	0.479	1184974	REC_WORD	0.479	n/a	SLOPE	1	9	[0, 0, 0]	n/a	FR1	1	R1416T
1179.145	23.038	1185453	REC_WORD	23.038	n/a	TRAIL	-999	9	[0, 0, 0]	n/a	FR1	1	R1416T
1202.183	1.85	1208485	REC_END	n/a	n/a	n/a	-999	9	[0, 0, 0]	n/a	FR1	1	R1416T
1204.033	10.349	1210342	COUNTDOWN_START	n/a	n/a	n/a	-999	10	[0, 0, 0]	n/a	FR1	1	R1416T
1214.382	0.0	1220695	COUNTDOWN_END	n/a	n/a	n/a	-999	10	[0, 0, 0]	n/a	FR1	1	R1416T
1214.382	2.016	1220695	ENCODING_START	n/a	n/a	n/a	-999	10	[0, 0, 0]	n/a	FR1	1	R1416T
1216.398	1.616	1222704	WORD	n/a	wordpools/wordpool_long_EN.txt	DOG	1	10	[0, 0, 0]	n/a	FR1	1	R1416T
1218.014	0.833	1224326	WORD_OFF	n/a	n/a	DOG	1	10	[0, 0, 0]	n/a	FR1	1	R1416T
1218.847	1.601	1225146	WORD	n/a	wordpools/wordpool_long_EN.txt	SWAMP	2	10	[0, 0, 0]	n/a	FR1	1	R1416T
1220.448	0.966	1226748	WORD_OFF	n/a	n/a	SWAMP	2	10	[0, 0, 0]	n/a	FR1	1	R1416T
1221.414	1.601	1227715	WORD	n/a	wordpools/wordpool_long_EN.txt	HOOD	3	10	[0, 0, 0]	n/a	FR1	1	R1416T
1223.015	0.816	1229317	WORD_OFF	n/a	n/a	HOOD	3	10	[0, 0, 0]	n/a	FR1	1	R1416T
1223.831	1.6	1230131	WORD	n/a	wordpools/wordpool_long_EN.txt	LACE	4	10	[0, 0, 0]	n/a	FR1	1	R1416T
1225.431	0.984	1231734	WORD_OFF	n/a	n/a	LACE	4	10	[0, 0, 0]	n/a	FR1	1	R1416T
1226.415	1.6	1232726	WORD	n/a	wordpools/wordpool_long_EN.txt	RUG	5	10	[0, 0, 0]	n/a	FR1	1	R1416T
1228.015	1.0	1234328	WORD_OFF	n/a	n/a	RUG	5	10	[0, 0, 0]	n/a	FR1	1	R1416T
1229.015	1.6	1235320	WORD	n/a	wordpools/wordpool_long_EN.txt	JAIL	6	10	[0, 0, 0]	n/a	FR1	1	R1416T
1230.615	0.767	1236923	WORD_OFF	n/a	n/a	JAIL	6	10	[0, 0, 0]	n/a	FR1	1	R1416T
1231.382	5.959	1237686	WORD	n/a	wordpools/wordpool_long_EN.txt	BOX	7	10	[0, 0, 0]	n/a	FR1	1	R1416T
1237.341	0.967	1243638	WORD_OFF	n/a	n/a	BOX	7	10	[0, 0, 0]	n/a	FR1	1	R1416T
1238.308	1.6	1244604	WORD	n/a	wordpools/wordpool_long_EN.txt	SPONGE	8	10	[0, 0, 0]	n/a	FR1	1	R1416T
1239.908	0.932	1246207	WORD_OFF	n/a	n/a	SPONGE	8	10	[0, 0, 0]	n/a	FR1	1	R1416T
1240.84	1.601	1247148	WORD	n/a	wordpools/wordpool_long_EN.txt	SHARK	9	10	[0, 0, 0]	n/a	FR1	1	R1416T
1242.441	0.999	1248750	WORD_OFF	n/a	n/a	SHARK	9	10	[0, 0, 0]	n/a	FR1	1	R1416T
1243.44	1.601	1249742	WORD	n/a	wordpools/wordpool_long_EN.txt	ROCK	10	10	[0, 0, 0]	n/a	FR1	1	R1416T
1245.041	0.883	1251345	WORD_OFF	n/a	n/a	ROCK	10	10	[0, 0, 0]	n/a	FR1	1	R1416T
1245.924	1.617	1252235	WORD	n/a	wordpools/wordpool_long_EN.txt	JUDGE	11	10	[0, 0, 0]	n/a	FR1	1	R1416T
1247.541	0.899	1253838	WORD_OFF	n/a	n/a	JUDGE	11	10	[0, 0, 0]	n/a	FR1	1	R1416T
1248.44	1.601	1254748	WORD	n/a	wordpools/wordpool_long_EN.txt	SPACE	12	10	[0, 0, 0]	n/a	FR1	1	R1416T
1250.041	0.001	1256346	PROB	0.001	n/a	n/a	-999	10	[8, 4, 6]	18	FR1	1	R1416T
1250.042	0.0	1256347	START	n/a	n/a	n/a	-999	10	[-999, -999, -999]	n/a	FR1	1	R1416T
1250.041	0.001	1256350	WORD_OFF	n/a	n/a	SPACE	12	10	[0, 0, 0]	n/a	FR1	1	R1416T
1250.042	0.0	1256356	ENCODING_END	n/a	n/a	n/a	-999	10	[0, 0, 0]	n/a	FR1	1	R1416T
1250.042	19.832	1256356	DISTRACT_START	n/a	n/a	n/a	-999	10	[0, 0, 0]	n/a	FR1	1	R1416T
1269.874	7.801	1276178	PROB	7.801	n/a	n/a	-999	10	[2, 1, 8]	11	FR1	1	R1416T
1277.675	0.0	1283978	STOP	n/a	n/a	n/a	-999	10	[-999, -999, -999]	n/a	FR1	1	R1416T
1277.675	2.016	1283979	DISTRACT_END	n/a	n/a	n/a	-999	10	[0, 0, 0]	n/a	FR1	1	R1416T
1279.691	0.0	1285994	REC_WORD_VV	0.0	n/a	<>	-999	10	[0, 0, 0]	n/a	FR1	1	R1416T
1279.691	3.442	1285996	REC_START	n/a	n/a	n/a	-999	10	[0, 0, 0]	n/a	FR1	1	R1416T
1283.133	1.0	1289436	REC_WORD_VV	1.0	n/a	<>	-999	10	[0, 0, 0]	n/a	FR1	1	R1416T
1284.133	3.282	1290436	REC_WORD_VV	3.282	n/a	<>	-999	10	[0, 0, 0]	n/a	FR1	1	R1416T
1287.415	3.192	1293718	REC_WORD	3.192	n/a	TRAIL	-999	10	[0, 0, 0]	n/a	FR1	1	R1416T
1290.607	15.341	1296910	REC_WORD	15.341	n/a	TRAIL	-999	10	[0, 0, 0]	n/a	FR1	1	R1416T
1305.948	3.968	1312250	REC_WORD_VV	3.968	n/a	<>	-999	10	[0, 0, 0]	n/a	FR1	1	R1416T
1309.916	2.408	1316206	REC_END	n/a	n/a	n/a	-999	10	[0, 0, 0]	n/a	FR1	1	R1416T
1312.324	10.351	1318623	COUNTDOWN_START	n/a	n/a	n/a	-999	11	[0, 0, 0]	n/a	FR1	1	R1416T
1322.675	0.0	1328975	COUNTDOWN_END	n/a	n/a	n/a	-999	11	[0, 0, 0]	n/a	FR1	1	R1416T
1322.675	2.015	1328975	ENCODING_START	n/a	n/a	n/a	-999	11	[0, 0, 0]	n/a	FR1	1	R1416T
1324.69	1.601	1330984	WORD	n/a	wordpools/wordpool_long_EN.txt	CORD	1	11	[0, 0, 0]	n/a	FR1	1	R1416T
1326.291	0.95	1332587	WORD_OFF	n/a	n/a	CORD	1	11	[0, 0, 0]	n/a	FR1	1	R1416T
1327.241	1.6	1333553	WORD	n/a	wordpools/wordpool_long_EN.txt	BLOOM	2	11	[0, 0, 0]	n/a	FR1	1	R1416T
1328.841	0.833	1335130	WORD_OFF	n/a	n/a	BLOOM	2	11	[0, 0, 0]	n/a	FR1	1	R1416T
1329.674	1.6	1335970	WORD	n/a	wordpools/wordpool_long_EN.txt	COOK	3	11	[0, 0, 0]	n/a	FR1	1	R1416T
1331.274	0.883	1337572	WORD_OFF	n/a	n/a	COOK	3	11	[0, 0, 0]	n/a	FR1	1	R1416T
1332.157	1.6	1338463	WORD	n/a	wordpools/wordpool_long_EN.txt	GRASS	4	11	[0, 0, 0]	n/a	FR1	1	R1416T
1333.757	0.834	1340060	WORD_OFF	n/a	n/a	GRASS	4	11	[0, 0, 0]	n/a	FR1	1	R1416T
1334.591	1.6	1340904	WORD	n/a	wordpools/wordpool_long_EN.txt	STORM	5	11	[0, 0, 0]	n/a	FR1	1	R1416T
1336.191	0.916	1342481	WORD_OFF	n/a	n/a	STORM	5	11	[0, 0, 0]	n/a	FR1	1	R1416T
1337.107	1.617	1343397	WORD	n/a	wordpools/wordpool_long_EN.txt	MUD	6	11	[0, 0, 0]	n/a	FR1	1	R1416T
1338.724	0.949	1345025	WORD_OFF	n/a	n/a	MUD	6	11	[0, 0, 0]	n/a	FR1	1	R1416T
1339.673	1.601	1345966	WORD	n/a	wordpools/wordpool_long_EN.txt	CASH	7	11	[0, 0, 0]	n/a	FR1	1	R1416T
1341.274	0.916	1347569	WORD_OFF	n/a	n/a	CASH	7	11	[0, 0, 0]	n/a	FR1	1	R1416T
1342.19	1.6	1348484	WORD	n/a	wordpools/wordpool_long_EN.txt	YARN	8	11	[0, 0, 0]	n/a	FR1	1	R1416T
1343.79	0.9	1350087	WORD_OFF	n/a	n/a	YARN	8	11	[0, 0, 0]	n/a	FR1	1	R1416T
1344.69	1.601	1350997	WORD	n/a	wordpools/wordpool_long_EN.txt	VEST	9	11	[0, 0, 0]	n/a	FR1	1	R1416T
1346.291	0.816	1352579	WORD_OFF	n/a	n/a	VEST	9	11	[0, 0, 0]	n/a	FR1	1	R1416T
1347.107	1.6	1353413	WORD	n/a	wordpools/wordpool_long_EN.txt	MAIL	10	11	[0, 0, 0]	n/a	FR1	1	R1416T
1348.707	0.767	1354996	WORD_OFF	n/a	n/a	MAIL	10	11	[0, 0, 0]	n/a	FR1	1	R1416T
1349.474	1.616	1355784	WORD	n/a	wordpools/wordpool_long_EN.txt	SHEET	11	11	[0, 0, 0]	n/a	FR1	1	R1416T
1351.09	0.9	1357387	WORD_OFF	n/a	n/a	SHEET	11	11	[0, 0, 0]	n/a	FR1	1	R1416T
1351.99	1.6	1358297	WORD	n/a	wordpools/wordpool_long_EN.txt	DUST	12	11	[0, 0, 0]	n/a	FR1	1	R1416T
1353.59	0.001	1359880	WORD_OFF	n/a	n/a	DUST	12	11	[0, 0, 0]	n/a	FR1	1	R1416T
1353.591	0.001	1359891	PROB	0.001	n/a	n/a	-999	11	[8, 5, 7]	20	FR1	1	R1416T
1353.592	0.0	1359892	START	n/a	n/a	n/a	-999	11	[-999, -999, -999]	n/a	FR1	1	R1416T
1353.592	0.0	1359905	ENCODING_END	n/a	n/a	n/a	-999	11	[0, 0, 0]	n/a	FR1	1	R1416T
1353.592	11.05	1359905	DISTRACT_START	n/a	n/a	n/a	-999	11	[0, 0, 0]	n/a	FR1	1	R1416T
1364.642	5.983	1370941	PROB	5.983	n/a	n/a	-999	11	[8, 3, 8]	19	FR1	1	R1416T
1370.625	9.399	1376924	PROB	9.399	n/a	n/a	-999	11	[3, 6, 6]	15	FR1	1	R1416T
1380.024	0.0	1386322	STOP	n/a	n/a	n/a	-999	11	[-999, -999, -999]	n/a	FR1	1	R1416T
1380.024	2.3	1386327	DISTRACT_END	n/a	n/a	n/a	-999	11	[0, 0, 0]	n/a	FR1	1	R1416T
1382.324	1.519	1388625	REC_START	n/a	n/a	n/a	-999	11	[0, 0, 0]	n/a	FR1	1	R1416T
1383.843	1.839	1390141	REC_WORD	1.839	n/a	CORD	1	11	[0, 0, 0]	n/a	FR1	1	R1416T
1385.682	4.586	1391980	REC_WORD	4.586	n/a	STUCK	-999	11	[0, 0, 0]	n/a	FR1	1	R1416T
1390.268	2.495	1396566	REC_WORD_VV	2.495	n/a	<>	-999	11	[0, 0, 0]	n/a	FR1	1	R1416T
1392.763	0.546	1399061	REC_WORD	0.546	n/a	CORD	1	11	[0, 0, 0]	n/a	FR1	1	R1416T
1393.309	2.83	1399607	REC_WORD	2.83	n/a	STUCK	-999	11	[0, 0, 0]	n/a	FR1	1	R1416T
1396.139	16.387	1402436	REC_WORD	16.387	n/a	BLOOM	2	11	[0, 0, 0]	n/a	FR1	1	R1416T
1412.526	1.949	1418814	REC_END	n/a	n/a	n/a	-999	11	[0, 0, 0]	n/a	FR1	1	R1416T
1414.475	10.35	1420773	COUNTDOWN_START	n/a	n/a	n/a	-999	12	[0, 0, 0]	n/a	FR1	1	R1416T
1424.825	0.0	1431125	COUNTDOWN_END	n/a	n/a	n/a	-999	12	[0, 0, 0]	n/a	FR1	1	R1416T
1424.825	2.283	1431125	ENCODING_START	n/a	n/a	n/a	-999	12	[0, 0, 0]	n/a	FR1	1	R1416T
1427.108	1.6	1433409	WORD	n/a	wordpools/wordpool_long_EN.txt	COIN	1	12	[0, 0, 0]	n/a	FR1	1	R1416T
1428.708	0.9	1435012	WORD_OFF	n/a	n/a	COIN	1	12	[0, 0, 0]	n/a	FR1	1	R1416T
1429.608	1.6	1435907	WORD	n/a	wordpools/wordpool_long_EN.txt	WIFE	2	12	[0, 0, 0]	n/a	FR1	1	R1416T
1431.208	0.866	1437504	WORD_OFF	n/a	n/a	WIFE	2	12	[0, 0, 0]	n/a	FR1	1	R1416T
1432.074	1.6	1438375	WORD	n/a	wordpools/wordpool_long_EN.txt	SWORD	3	12	[0, 0, 0]	n/a	FR1	1	R1416T
1433.674	0.851	1439977	WORD_OFF	n/a	n/a	SWORD	3	12	[0, 0, 0]	n/a	FR1	1	R1416T
1434.525	1.616	1440817	WORD	n/a	wordpools/wordpool_long_EN.txt	BRICK	4	12	[0, 0, 0]	n/a	FR1	1	R1416T
1436.141	0.867	1442444	WORD_OFF	n/a	n/a	BRICK	4	12	[0, 0, 0]	n/a	FR1	1	R1416T
1437.008	1.616	1443304	WORD	n/a	wordpools/wordpool_long_EN.txt	LOFT	5	12	[0, 0, 0]	n/a	FR1	1	R1416T
1438.624	1.0	1444912	WORD_OFF	n/a	n/a	LOFT	5	12	[0, 0, 0]	n/a	FR1	1	R1416T
1439.624	1.617	1445924	WORD	n/a	wordpools/wordpool_long_EN.txt	SLUG	6	12	[0, 0, 0]	n/a	FR1	1	R1416T
1441.241	0.767	1447531	WORD_OFF	n/a	n/a	SLUG	6	12	[0, 0, 0]	n/a	FR1	1	R1416T
1442.008	1.616	1448295	WORD	n/a	wordpools/wordpool_long_EN.txt	POND	7	12	[0, 0, 0]	n/a	FR1	1	R1416T
1443.624	0.85	1449922	WORD_OFF	n/a	n/a	POND	7	12	[0, 0, 0]	n/a	FR1	1	R1416T
1444.474	1.6	1450762	WORD	n/a	wordpools/wordpool_long_EN.txt	BEAN	8	12	[0, 0, 0]	n/a	FR1	1	R1416T
1446.074	0.9	1452364	WORD_OFF	n/a	n/a	BEAN	8	12	[0, 0, 0]	n/a	FR1	1	R1416T
1446.974	1.617	1453275	WORD	n/a	wordpools/wordpool_long_EN.txt	BRUSH	9	12	[0, 0, 0]	n/a	FR1	1	R1416T
1448.591	0.967	1454882	WORD_OFF	n/a	n/a	BRUSH	9	12	[0, 0, 0]	n/a	FR1	1	R1416T
1449.558	1.616	1455849	WORD	n/a	wordpools/wordpool_long_EN.txt	BARN	10	12	[0, 0, 0]	n/a	FR1	1	R1416T
1451.174	0.867	1457477	WORD_OFF	n/a	n/a	BARN	10	12	[0, 0, 0]	n/a	FR1	1	R1416T
1452.041	1.617	1458342	WORD	n/a	wordpools/wordpool_long_EN.txt	SKATE	11	12	[0, 0, 0]	n/a	FR1	1	R1416T
1453.658	0.833	1459944	WORD_OFF	n/a	n/a	SKATE	11	12	[0, 0, 0]	n/a	FR1	1	R1416T
1454.491	1.616	1460784	WORD	n/a	wordpools/wordpool_long_EN.txt	SHOE	12	12	[0, 0, 0]	n/a	FR1	1	R1416T
1456.107	0.001	1462401	PROB	0.001	n/a	n/a	-999	12	[8, 1, 2]	11	FR1	1	R1416T
1456.108	0.0	1462402	START	n/a	n/a	n/a	-999	12	[-999, -999, -999]	n/a	FR1	1	R1416T
1456.107	0.001	1462406	WORD_OFF	n/a	n/a	SHOE	12	12	[0, 0, 0]	n/a	FR1	1	R1416T
1456.108	0.0	1462411	ENCODING_END	n/a	n/a	n/a	-999	12	[0, 0, 0]	n/a	FR1	1	R1416T
1456.108	8.75	1462411	DISTRACT_START	n/a	n/a	n/a	-999	12	[0, 0, 0]	n/a	FR1	1	R1416T
1464.858	7.383	1471152	PROB	7.383	n/a	n/a	-999	12	[4, 1, 1]	6	FR1	1	R1416T
1472.241	3.8	1478535	PROB	3.8	n/a	n/a	-999	12	[5, 2, 1]	8	FR1	1	R1416T
1476.041	4.832	1482334	PROB	4.832	n/a	n/a	-999	12	[4, 2, 3]	9	FR1	1	R1416T
1480.873	0.0	1487161	DISTRACT_END	n/a	n/a	n/a	-999	12	[0, 0, 0]	n/a	FR1	1	R1416T
1480.873	2.251	1487166	STOP	n/a	n/a	n/a	-999	12	[-999, -999, -999]	n/a	FR1	1	R1416T
1483.124	1.437	1489407	REC_START	n/a	n/a	n/a	-999	12	[0, 0, 0]	n/a	FR1	1	R1416T
1484.561	0.671	1490854	REC_WORD	0.671	n/a	COIN	1	12	[0, 0, 0]	n/a	FR1	1	R1416T
1485.232	2.655	1491525	REC_WORD	2.655	n/a	WIFE	2	12	[0, 0, 0]	n/a	FR1	1	R1416T
1487.887	0.725	1494180	REC_WORD_VV	0.725	n/a	<>	-999	12	[0, 0, 0]	n/a	FR1	1	R1416T
1488.612	10.352	1494905	REC_WORD	10.352	n/a	SLUG	6	12	[0, 0, 0]	n/a	FR1	1	R1416T
1498.964	5.192	1505256	REC_WORD_VV	5.192	n/a	<>	-999	12	[0, 0, 0]	n/a	FR1	1	R1416T
1504.156	1.0	1510448	REC_WORD_VV	1.0	n/a	<>	-999	12	[0, 0, 0]	n/a	FR1	1	R1416T
1505.156	1.0	1511448	REC_WORD_VV	1.0	n/a	<>	-999	12	[0, 0, 0]	n/a	FR1	1	R1416T
1506.156	7.184	1512448	REC_WORD_VV	7.184	n/a	<>	-999	12	[0, 0, 0]	n/a	FR1	1	R1416T
1513.34	0.0	1519637	REC_END	n/a	n/a	n/a	-999	12	[0, 0, 0]	n/a	FR1	1	R1416T
