onset	duration	sample	trial_type	response_time	stim_file	item_name	serialpos	list	test	answer	experiment	session	subject
0.0	161.714	36786	INSTRUCT_START	n/a	n/a	n/a	-999	-999	[0, 0, 0]	n/a	FR1	0	R1375C
161.714	54.067	198482	INSTRUCT_END	n/a	n/a	n/a	-999	-999	[0, 0, 0]	n/a	FR1	0	R1375C
215.781	10.35	252546	COUNTDOWN_START	n/a	n/a	n/a	-999	-999	[0, 0, 0]	n/a	FR1	0	R1375C
226.131	0.001	262893	COUNTDOWN_END	n/a	n/a	n/a	-999	-999	[0, 0, 0]	n/a	FR1	0	R1375C
226.132	2.099	262907	ENCODING_START	n/a	n/a	n/a	-999	-1	[0, 0, 0]	n/a	FR1	0	R1375C
228.231	1.6	265001	WORD	n/a	n/a	RING	1	-1	[0, 0, 0]	n/a	FR1	0	R1375C
229.831	0.916	266599	WORD_OFF	n/a	n/a	RING	1	-1	[0, 0, 0]	n/a	FR1	0	R1375C
230.747	1.601	267509	WORD	n/a	n/a	WATCH	2	-1	[0, 0, 0]	n/a	FR1	0	R1375C
232.348	1.0	269121	WORD_OFF	n/a	n/a	WATCH	2	-1	[0, 0, 0]	n/a	FR1	0	R1375C
233.348	1.6	270113	WORD	n/a	n/a	BABY	3	-1	[0, 0, 0]	n/a	FR1	0	R1375C
234.948	0.966	271711	WORD_OFF	n/a	n/a	BABY	3	-1	[0, 0, 0]	n/a	FR1	0	R1375C
235.914	1.6	272675	WORD	n/a	n/a	WAGON	4	-1	[0, 0, 0]	n/a	FR1	0	R1375C
237.514	0.85	274287	WORD_OFF	n/a	n/a	WAGON	4	-1	[0, 0, 0]	n/a	FR1	0	R1375C
238.364	1.6	275128	WORD	n/a	n/a	IMAGE	5	-1	[0, 0, 0]	n/a	FR1	0	R1375C
239.964	0.999	276726	WORD_OFF	n/a	n/a	IMAGE	5	-1	[0, 0, 0]	n/a	FR1	0	R1375C
240.963	1.6	277732	WORD	n/a	n/a	CHEST	6	-1	[0, 0, 0]	n/a	FR1	0	R1375C
242.563	0.984	279330	WORD_OFF	n/a	n/a	CHEST	6	-1	[0, 0, 0]	n/a	FR1	0	R1375C
243.547	1.6	280308	WORD	n/a	n/a	BEAM	7	-1	[0, 0, 0]	n/a	FR1	0	R1375C
245.147	0.966	281920	WORD_OFF	n/a	n/a	BEAM	7	-1	[0, 0, 0]	n/a	FR1	0	R1375C
246.113	1.601	282885	WORD	n/a	n/a	COTTON	8	-1	[0, 0, 0]	n/a	FR1	0	R1375C
247.714	0.916	284483	WORD_OFF	n/a	n/a	COTTON	8	-1	[0, 0, 0]	n/a	FR1	0	R1375C
248.63	1.601	285392	WORD	n/a	n/a	FLOOD	9	-1	[0, 0, 0]	n/a	FR1	0	R1375C
250.231	0.85	287004	WORD_OFF	n/a	n/a	FLOOD	9	-1	[0, 0, 0]	n/a	FR1	0	R1375C
251.081	1.616	287845	WORD	n/a	n/a	TONGUE	10	-1	[0, 0, 0]	n/a	FR1	0	R1375C
252.697	0.833	289457	WORD_OFF	n/a	n/a	TONGUE	10	-1	[0, 0, 0]	n/a	FR1	0	R1375C
253.53	1.6	290297	WORD	n/a	n/a	RHINO	11	-1	[0, 0, 0]	n/a	FR1	0	R1375C
255.13	0.768	291895	WORD_OFF	n/a	n/a	RHINO	11	-1	[0, 0, 0]	n/a	FR1	0	R1375C
255.898	1.616	292667	WORD	n/a	n/a	CAMEL	12	-1	[0, 0, 0]	n/a	FR1	0	R1375C
257.514	0.002	294279	WORD_OFF	n/a	n/a	CAMEL	12	-1	[0, 0, 0]	n/a	FR1	0	R1375C
257.516	0.001	294279	ENCODING_END	n/a	n/a	n/a	-999	-1	[0, 0, 0]	n/a	FR1	0	R1375C
257.517	0.0	294279	DISTRACT_START	n/a	n/a	n/a	-999	-1	[0, 0, 0]	n/a	FR1	0	R1375C
257.517	0.0	294282	START	n/a	n/a	n/a	-999	-1	[-999, -999, -999]	n/a	FR1	0	R1375C
257.517	11.18	294282	PROB	11.18	n/a	n/a	-999	-1	[8, 3, 6]	17	FR1	0	R1375C
268.697	3.634	305462	PROB	3.634	n/a	n/a	-999	-1	[4, 3, 5]	12	FR1	0	R1375C
272.331	4.483	309096	PROB	4.483	n/a	n/a	-999	-1	[4, 3, 7]	14	FR1	0	R1375C
276.814	5.167	313578	PROB	5.167	n/a	n/a	-999	-1	[2, 7, 1]	10	FR1	0	R1375C
281.981	0.0	318745	STOP	n/a	n/a	n/a	-999	-1	[-999, -999, -999]	n/a	FR1	0	R1375C
281.981	1.4	318748	DISTRACT_END	n/a	n/a	n/a	-999	-1	[0, 0, 0]	n/a	FR1	0	R1375C
283.381	4.717	320140	REC_START	n/a	n/a	n/a	-999	-1	[0, 0, 0]	n/a	FR1	0	R1375C
288.098	0.246	324862	REC_WORD	0.246	n/a	RING	1	-1	[0, 0, 0]	n/a	FR1	0	R1375C
288.344	0.511	325108	REC_WORD	0.511	n/a	WATCH	2	-1	[0, 0, 0]	n/a	FR1	0	R1375C
288.855	2.783	325619	REC_WORD	2.783	n/a	BABY	3	-1	[0, 0, 0]	n/a	FR1	0	R1375C
291.638	1.389	328402	REC_WORD	1.389	n/a	RHINOX	-999	-1	[0, 0, 0]	n/a	FR1	0	R1375C
293.027	8.664	329791	REC_WORD	8.664	n/a	COTTON	8	-1	[0, 0, 0]	n/a	FR1	0	R1375C
301.691	11.976	338454	REC_WORD	11.976	n/a	IMAGE	5	-1	[0, 0, 0]	n/a	FR1	0	R1375C
313.667	13.714	350423	REC_END	n/a	n/a	n/a	-999	-1	[0, 0, 0]	n/a	FR1	0	R1375C
327.381	10.351	364146	COUNTDOWN_START	n/a	n/a	n/a	-999	1	[0, 0, 0]	n/a	FR1	0	R1375C
337.732	0.0	374493	COUNTDOWN_END	n/a	n/a	n/a	-999	1	[0, 0, 0]	n/a	FR1	0	R1375C
337.732	2.081	374493	ENCODING_START	n/a	n/a	n/a	-999	1	[0, 0, 0]	n/a	FR1	0	R1375C
339.813	1.6	376573	WORD	n/a	n/a	PORK	1	1	[0, 0, 0]	n/a	FR1	0	R1375C
341.413	0.817	378172	WORD_OFF	n/a	n/a	PORK	1	1	[0, 0, 0]	n/a	FR1	0	R1375C
342.23	1.601	378998	WORD	n/a	n/a	SOUP	2	1	[0, 0, 0]	n/a	FR1	0	R1375C
343.831	0.966	380597	WORD_OFF	n/a	n/a	SOUP	2	1	[0, 0, 0]	n/a	FR1	0	R1375C
344.797	1.616	381561	WORD	n/a	n/a	BONE	3	1	[0, 0, 0]	n/a	FR1	0	R1375C
346.413	0.868	383173	WORD_OFF	n/a	n/a	BONE	3	1	[0, 0, 0]	n/a	FR1	0	R1375C
347.281	1.6	384041	WORD	n/a	n/a	WORM	4	1	[0, 0, 0]	n/a	FR1	0	R1375C
348.881	0.95	385639	WORD_OFF	n/a	n/a	WORM	4	1	[0, 0, 0]	n/a	FR1	0	R1375C
349.831	1.6	386590	WORD	n/a	n/a	JUDGE	5	1	[0, 0, 0]	n/a	FR1	0	R1375C
351.431	0.833	388188	WORD_OFF	n/a	n/a	JUDGE	5	1	[0, 0, 0]	n/a	FR1	0	R1375C
352.264	1.617	389029	WORD	n/a	n/a	BLOOD	6	1	[0, 0, 0]	n/a	FR1	0	R1375C
353.881	0.966	390641	WORD_OFF	n/a	n/a	BLOOD	6	1	[0, 0, 0]	n/a	FR1	0	R1375C
354.847	1.601	391605	WORD	n/a	n/a	WAX	7	1	[0, 0, 0]	n/a	FR1	0	R1375C
356.448	0.998	393203	WORD_OFF	n/a	n/a	WAX	7	1	[0, 0, 0]	n/a	FR1	0	R1375C
357.446	1.601	394209	WORD	n/a	n/a	DIME	8	1	[0, 0, 0]	n/a	FR1	0	R1375C
359.047	0.917	395807	WORD_OFF	n/a	n/a	DIME	8	1	[0, 0, 0]	n/a	FR1	0	R1375C
359.964	1.6	396730	WORD	n/a	n/a	POT	9	1	[0, 0, 0]	n/a	FR1	0	R1375C
361.564	0.816	398329	WORD_OFF	n/a	n/a	POT	9	1	[0, 0, 0]	n/a	FR1	0	R1375C
362.38	1.601	399141	WORD	n/a	n/a	STOOL	10	1	[0, 0, 0]	n/a	FR1	0	R1375C
363.981	0.933	400740	WORD_OFF	n/a	n/a	STOOL	10	1	[0, 0, 0]	n/a	FR1	0	R1375C
364.914	1.6	401677	WORD	n/a	n/a	GUN	11	1	[0, 0, 0]	n/a	FR1	0	R1375C
366.514	0.933	403275	WORD_OFF	n/a	n/a	GUN	11	1	[0, 0, 0]	n/a	FR1	0	R1375C
367.447	1.601	404212	WORD	n/a	n/a	GLOVE	12	1	[0, 0, 0]	n/a	FR1	0	R1375C
369.048	0.001	405808	PROB	0.001	n/a	n/a	-999	1	[8, 5, 1]	14	FR1	0	R1375C
369.049	0.0	405809	START	n/a	n/a	n/a	-999	1	[-999, -999, -999]	n/a	FR1	0	R1375C
369.047	0.002	405810	WORD_OFF	n/a	n/a	GLOVE	12	1	[0, 0, 0]	n/a	FR1	0	R1375C
369.049	0.0	405810	ENCODING_END	n/a	n/a	n/a	-999	1	[0, 0, 0]	n/a	FR1	0	R1375C
369.049	4.083	405810	DISTRACT_START	n/a	n/a	n/a	-999	1	[0, 0, 0]	n/a	FR1	0	R1375C
373.132	3.065	409892	PROB	3.065	n/a	n/a	-999	1	[2, 3, 3]	8	FR1	0	R1375C
376.197	7.667	412956	PROB	7.667	n/a	n/a	-999	1	[5, 1, 6]	12	FR1	0	R1375C
383.864	4.684	420623	PROB	4.684	n/a	n/a	-999	1	[6, 3, 4]	13	FR1	0	R1375C
388.548	3.299	425307	PROB	3.299	n/a	n/a	-999	1	[5, 4, 5]	14	FR1	0	R1375C
391.847	0.0	428606	STOP	n/a	n/a	n/a	-999	1	[-999, -999, -999]	n/a	FR1	0	R1375C
391.847	1.266	428612	DISTRACT_END	n/a	n/a	n/a	-999	1	[0, 0, 0]	n/a	FR1	0	R1375C
393.113	5.802	429866	REC_START	n/a	n/a	n/a	-999	1	[0, 0, 0]	n/a	FR1	0	R1375C
398.915	3.994	435673	REC_WORD	3.994	n/a	WORM	4	1	[0, 0, 0]	n/a	FR1	0	R1375C
402.909	4.099	439667	REC_WORD	4.099	n/a	DIME	8	1	[0, 0, 0]	n/a	FR1	0	R1375C
407.008	0.419	443766	REC_WORD	0.419	n/a	PORK	1	1	[0, 0, 0]	n/a	FR1	0	R1375C
407.427	2.682	444185	REC_WORD	2.682	n/a	SOUP	2	1	[0, 0, 0]	n/a	FR1	0	R1375C
410.109	13.277	446867	REC_WORD	13.277	n/a	BONE	3	1	[0, 0, 0]	n/a	FR1	0	R1375C
423.386	1.995	460149	REC_END	n/a	n/a	n/a	-999	1	[0, 0, 0]	n/a	FR1	0	R1375C
425.381	10.351	462133	COUNTDOWN_START	n/a	n/a	n/a	-999	2	[0, 0, 0]	n/a	FR1	0	R1375C
435.732	0.0	472494	COUNTDOWN_END	n/a	n/a	n/a	-999	2	[0, 0, 0]	n/a	FR1	0	R1375C
435.732	2.199	472494	ENCODING_START	n/a	n/a	n/a	-999	2	[0, 0, 0]	n/a	FR1	0	R1375C
437.931	1.616	474685	WORD	n/a	n/a	MEN	1	2	[0, 0, 0]	n/a	FR1	0	R1375C
439.547	0.767	476311	WORD_OFF	n/a	n/a	MEN	1	2	[0, 0, 0]	n/a	FR1	0	R1375C
440.314	1.617	477068	WORD	n/a	n/a	DEER	2	2	[0, 0, 0]	n/a	FR1	0	R1375C
441.931	0.833	478694	WORD_OFF	n/a	n/a	DEER	2	2	[0, 0, 0]	n/a	FR1	0	R1375C
442.764	1.6	479535	WORD	n/a	n/a	RIB	3	2	[0, 0, 0]	n/a	FR1	0	R1375C
444.364	0.933	481119	WORD_OFF	n/a	n/a	RIB	3	2	[0, 0, 0]	n/a	FR1	0	R1375C
445.297	1.617	482056	WORD	n/a	n/a	MEAL	4	2	[0, 0, 0]	n/a	FR1	0	R1375C
446.914	0.9	483668	WORD_OFF	n/a	n/a	MEAL	4	2	[0, 0, 0]	n/a	FR1	0	R1375C
447.814	1.6	484577	WORD	n/a	n/a	WIG	5	2	[0, 0, 0]	n/a	FR1	0	R1375C
449.414	0.916	486176	WORD_OFF	n/a	n/a	WIG	5	2	[0, 0, 0]	n/a	FR1	0	R1375C
450.33	1.6	487085	WORD	n/a	n/a	FLEA	6	2	[0, 0, 0]	n/a	FR1	0	R1375C
451.93	0.95	488683	WORD_OFF	n/a	n/a	FLEA	6	2	[0, 0, 0]	n/a	FR1	0	R1375C
452.88	1.601	489634	WORD	n/a	n/a	THUMB	7	2	[0, 0, 0]	n/a	FR1	0	R1375C
454.481	0.983	491232	WORD_OFF	n/a	n/a	THUMB	7	2	[0, 0, 0]	n/a	FR1	0	R1375C
455.464	1.6	492224	WORD	n/a	n/a	LANE	8	2	[0, 0, 0]	n/a	FR1	0	R1375C
457.064	0.95	493822	WORD_OFF	n/a	n/a	LANE	8	2	[0, 0, 0]	n/a	FR1	0	R1375C
458.014	1.6	494773	WORD	n/a	n/a	BOX	9	2	[0, 0, 0]	n/a	FR1	0	R1375C
459.614	0.833	496371	WORD_OFF	n/a	n/a	BOX	9	2	[0, 0, 0]	n/a	FR1	0	R1375C
460.447	1.6	497198	WORD	n/a	n/a	PRINCE	10	2	[0, 0, 0]	n/a	FR1	0	R1375C
462.047	0.934	498796	WORD_OFF	n/a	n/a	PRINCE	10	2	[0, 0, 0]	n/a	FR1	0	R1375C
462.981	1.615	499733	WORD	n/a	n/a	DITCH	11	2	[0, 0, 0]	n/a	FR1	0	R1375C
464.596	0.851	501345	WORD_OFF	n/a	n/a	DITCH	11	2	[0, 0, 0]	n/a	FR1	0	R1375C
465.447	1.6	502199	WORD	n/a	n/a	PASTE	12	2	[0, 0, 0]	n/a	FR1	0	R1375C
467.047	0.0	503797	WORD_OFF	n/a	n/a	PASTE	12	2	[0, 0, 0]	n/a	FR1	0	R1375C
467.047	0.002	503802	PROB	0.002	n/a	n/a	-999	2	[7, 2, 4]	13	FR1	0	R1375C
467.049	0.0	503804	START	n/a	n/a	n/a	-999	2	[-999, -999, -999]	n/a	FR1	0	R1375C
467.049	0.0	503811	ENCODING_END	n/a	n/a	n/a	-999	2	[0, 0, 0]	n/a	FR1	0	R1375C
467.049	4.632	503811	DISTRACT_START	n/a	n/a	n/a	-999	2	[0, 0, 0]	n/a	FR1	0	R1375C
471.681	3.367	508435	PROB	3.367	n/a	n/a	-999	2	[8, 1, 3]	12	FR1	0	R1375C
475.048	4.55	511802	PROB	4.55	n/a	n/a	-999	2	[4, 7, 3]	14	FR1	0	R1375C
479.598	3.766	516352	PROB	3.766	n/a	n/a	-999	2	[4, 2, 2]	8	FR1	0	R1375C
483.364	3.651	520118	PROB	3.651	n/a	n/a	-999	2	[3, 4, 3]	10	FR1	0	R1375C
487.015	5.215	523769	PROB	5.215	n/a	n/a	-999	2	[5, 7, 2]	14	FR1	0	R1375C
492.23	0.0	528983	DISTRACT_END	n/a	n/a	n/a	-999	2	[0, 0, 0]	n/a	FR1	0	R1375C
492.23	1.317	528983	STOP	n/a	n/a	n/a	-999	2	[-999, -999, -999]	n/a	FR1	0	R1375C
493.547	2.981	530306	REC_START	n/a	n/a	n/a	-999	2	[0, 0, 0]	n/a	FR1	0	R1375C
496.528	1.905	533281	REC_WORD	1.905	n/a	RIB	3	2	[0, 0, 0]	n/a	FR1	0	R1375C
498.433	1.018	535186	REC_WORD	1.018	n/a	MEAL	4	2	[0, 0, 0]	n/a	FR1	0	R1375C
499.451	9.639	536204	REC_WORD	9.639	n/a	BONE	-999	2	[0, 0, 0]	n/a	FR1	0	R1375C
509.09	14.729	545843	REC_WORD	14.729	n/a	WIG	5	2	[0, 0, 0]	n/a	FR1	0	R1375C
523.819	3.13	560575	REC_END	n/a	n/a	n/a	-999	2	[0, 0, 0]	n/a	FR1	0	R1375C
526.949	10.349	563703	COUNTDOWN_START	n/a	n/a	n/a	-999	3	[0, 0, 0]	n/a	FR1	0	R1375C
537.298	0.0	574050	COUNTDOWN_END	n/a	n/a	n/a	-999	3	[0, 0, 0]	n/a	FR1	0	R1375C
537.298	2.082	574050	ENCODING_START	n/a	n/a	n/a	-999	3	[0, 0, 0]	n/a	FR1	0	R1375C
539.38	1.6	576131	WORD	n/a	n/a	WAVE	1	3	[0, 0, 0]	n/a	FR1	0	R1375C
540.98	0.817	577729	WORD_OFF	n/a	n/a	WAVE	1	3	[0, 0, 0]	n/a	FR1	0	R1375C
541.797	1.6	578555	WORD	n/a	n/a	HARP	2	3	[0, 0, 0]	n/a	FR1	0	R1375C
543.397	0.95	580154	WORD_OFF	n/a	n/a	HARP	2	3	[0, 0, 0]	n/a	FR1	0	R1375C
544.347	1.617	581104	WORD	n/a	n/a	TIE	3	3	[0, 0, 0]	n/a	FR1	0	R1375C
545.964	0.916	582716	WORD_OFF	n/a	n/a	TIE	3	3	[0, 0, 0]	n/a	FR1	0	R1375C
546.88	1.601	583626	WORD	n/a	n/a	SACK	4	3	[0, 0, 0]	n/a	FR1	0	R1375C
548.481	0.816	585238	WORD_OFF	n/a	n/a	SACK	4	3	[0, 0, 0]	n/a	FR1	0	R1375C
549.297	1.6	586051	WORD	n/a	n/a	TRAY	5	3	[0, 0, 0]	n/a	FR1	0	R1375C
550.897	1.001	587649	WORD_OFF	n/a	n/a	TRAY	5	3	[0, 0, 0]	n/a	FR1	0	R1375C
551.898	1.615	588655	WORD	n/a	n/a	SOAP	6	3	[0, 0, 0]	n/a	FR1	0	R1375C
553.513	0.817	590267	WORD_OFF	n/a	n/a	SOAP	6	3	[0, 0, 0]	n/a	FR1	0	R1375C
554.33	1.6	591079	WORD	n/a	n/a	PRIZE	7	3	[0, 0, 0]	n/a	FR1	0	R1375C
555.93	0.784	592678	WORD_OFF	n/a	n/a	PRIZE	7	3	[0, 0, 0]	n/a	FR1	0	R1375C
556.714	1.617	593463	WORD	n/a	n/a	SQUARE	8	3	[0, 0, 0]	n/a	FR1	0	R1375C
558.331	0.833	595075	WORD_OFF	n/a	n/a	SQUARE	8	3	[0, 0, 0]	n/a	FR1	0	R1375C
559.164	1.6	595915	WORD	n/a	n/a	CHIN	9	3	[0, 0, 0]	n/a	FR1	0	R1375C
560.764	0.899	597514	WORD_OFF	n/a	n/a	CHIN	9	3	[0, 0, 0]	n/a	FR1	0	R1375C
561.663	1.6	598409	WORD	n/a	n/a	VINE	10	3	[0, 0, 0]	n/a	FR1	0	R1375C
563.263	0.833	600007	WORD_OFF	n/a	n/a	VINE	10	3	[0, 0, 0]	n/a	FR1	0	R1375C
564.096	1.601	600848	WORD	n/a	n/a	POLE	11	3	[0, 0, 0]	n/a	FR1	0	R1375C
565.697	0.95	602446	WORD_OFF	n/a	n/a	POLE	11	3	[0, 0, 0]	n/a	FR1	0	R1375C
566.647	1.6	603397	WORD	n/a	n/a	PARK	12	3	[0, 0, 0]	n/a	FR1	0	R1375C
568.247	0.002	604995	WORD_OFF	n/a	n/a	PARK	12	3	[0, 0, 0]	n/a	FR1	0	R1375C
568.249	0.0	604995	ENCODING_END	n/a	n/a	n/a	-999	3	[0, 0, 0]	n/a	FR1	0	R1375C
568.249	0.0	604995	DISTRACT_START	n/a	n/a	n/a	-999	3	[0, 0, 0]	n/a	FR1	0	R1375C
568.248	0.001	604998	PROB	0.001	n/a	n/a	-999	3	[8, 5, 4]	17	FR1	0	R1375C
568.249	7.832	604999	START	n/a	n/a	n/a	-999	3	[-999, -999, -999]	n/a	FR1	0	R1375C
576.081	3.7	612830	PROB	3.7	n/a	n/a	-999	3	[4, 1, 4]	9	FR1	0	R1375C
579.781	5.3	616530	PROB	5.3	n/a	n/a	-999	3	[7, 5, 8]	19	FR1	0	R1375C
585.081	6.716	621830	PROB	6.716	n/a	n/a	-999	3	[4, 5, 3]	12	FR1	0	R1375C
591.797	0.0	628541	DISTRACT_END	n/a	n/a	n/a	-999	3	[0, 0, 0]	n/a	FR1	0	R1375C
591.797	1.333	628545	STOP	n/a	n/a	n/a	-999	3	[-999, -999, -999]	n/a	FR1	0	R1375C
593.13	11.501	629878	REC_START	n/a	n/a	n/a	-999	3	[0, 0, 0]	n/a	FR1	0	R1375C
604.631	0.528	641379	REC_WORD	0.528	n/a	SOAP	6	3	[0, 0, 0]	n/a	FR1	0	R1375C
605.159	9.705	641907	REC_WORD	9.705	n/a	SQUARE	8	3	[0, 0, 0]	n/a	FR1	0	R1375C
614.864	5.987	651611	REC_WORD	5.987	n/a	TRAY	5	3	[0, 0, 0]	n/a	FR1	0	R1375C
620.851	2.542	657598	REC_WORD	2.542	n/a	HARP	2	3	[0, 0, 0]	n/a	FR1	0	R1375C
623.393	3.12	660147	REC_END	n/a	n/a	n/a	-999	3	[0, 0, 0]	n/a	FR1	0	R1375C
626.513	10.351	663261	COUNTDOWN_START	n/a	n/a	n/a	-999	4	[0, 0, 0]	n/a	FR1	0	R1375C
636.864	0.0	673608	COUNTDOWN_END	n/a	n/a	n/a	-999	4	[0, 0, 0]	n/a	FR1	0	R1375C
636.864	2.183	673608	ENCODING_START	n/a	n/a	n/a	-999	4	[0, 0, 0]	n/a	FR1	0	R1375C
639.047	1.616	675799	WORD	n/a	n/a	SHIP	1	4	[0, 0, 0]	n/a	FR1	0	R1375C
640.663	0.884	677411	WORD_OFF	n/a	n/a	SHIP	1	4	[0, 0, 0]	n/a	FR1	0	R1375C
641.547	1.6	678293	WORD	n/a	n/a	SWAMP	2	4	[0, 0, 0]	n/a	FR1	0	R1375C
643.147	0.834	679891	WORD_OFF	n/a	n/a	SWAMP	2	4	[0, 0, 0]	n/a	FR1	0	R1375C
643.981	1.6	680731	WORD	n/a	n/a	MEAT	3	4	[0, 0, 0]	n/a	FR1	0	R1375C
645.581	0.916	682330	WORD_OFF	n/a	n/a	MEAT	3	4	[0, 0, 0]	n/a	FR1	0	R1375C
646.497	1.601	683239	WORD	n/a	n/a	SPARK	4	4	[0, 0, 0]	n/a	FR1	0	R1375C
648.098	0.95	684837	WORD_OFF	n/a	n/a	SPARK	4	4	[0, 0, 0]	n/a	FR1	0	R1375C
649.048	1.599	685788	WORD	n/a	n/a	BOLT	5	4	[0, 0, 0]	n/a	FR1	0	R1375C
650.647	0.849	687400	WORD_OFF	n/a	n/a	BOLT	5	4	[0, 0, 0]	n/a	FR1	0	R1375C
651.496	1.601	688240	WORD	n/a	n/a	JET	6	4	[0, 0, 0]	n/a	FR1	0	R1375C
653.097	0.817	689838	WORD_OFF	n/a	n/a	JET	6	4	[0, 0, 0]	n/a	FR1	0	R1375C
653.914	1.617	690665	WORD	n/a	n/a	MOUSE	7	4	[0, 0, 0]	n/a	FR1	0	R1375C
655.531	0.766	692277	WORD_OFF	n/a	n/a	MOUSE	7	4	[0, 0, 0]	n/a	FR1	0	R1375C
656.297	1.6	693049	WORD	n/a	n/a	EARTH	8	4	[0, 0, 0]	n/a	FR1	0	R1375C
657.897	0.934	694647	WORD_OFF	n/a	n/a	EARTH	8	4	[0, 0, 0]	n/a	FR1	0	R1375C
658.831	1.6	695570	WORD	n/a	n/a	FROST	9	4	[0, 0, 0]	n/a	FR1	0	R1375C
660.431	0.866	697182	WORD_OFF	n/a	n/a	FROST	9	4	[0, 0, 0]	n/a	FR1	0	R1375C
661.297	1.617	698036	WORD	n/a	n/a	CONE	10	4	[0, 0, 0]	n/a	FR1	0	R1375C
662.914	0.816	699662	WORD_OFF	n/a	n/a	CONE	10	4	[0, 0, 0]	n/a	FR1	0	R1375C
663.73	1.6	700475	WORD	n/a	n/a	SPICE	11	4	[0, 0, 0]	n/a	FR1	0	R1375C
665.33	0.767	702073	WORD_OFF	n/a	n/a	SPICE	11	4	[0, 0, 0]	n/a	FR1	0	R1375C
666.097	1.601	702845	WORD	n/a	n/a	GATE	12	4	[0, 0, 0]	n/a	FR1	0	R1375C
667.698	0.0	704442	PROB	0.0	n/a	n/a	-999	4	[4, 6, 6]	16	FR1	0	R1375C
667.698	0.002	704443	WORD_OFF	n/a	n/a	GATE	12	4	[0, 0, 0]	n/a	FR1	0	R1375C
667.7	0.0	704443	ENCODING_END	n/a	n/a	n/a	-999	4	[0, 0, 0]	n/a	FR1	0	R1375C
667.7	0.0	704443	DISTRACT_START	n/a	n/a	n/a	-999	4	[0, 0, 0]	n/a	FR1	0	R1375C
667.7	7.714	704444	START	n/a	n/a	n/a	-999	4	[-999, -999, -999]	n/a	FR1	0	R1375C
675.414	9.433	712158	PROB	9.433	n/a	n/a	-999	4	[7, 5, 2]	14	FR1	0	R1375C
684.847	3.316	721591	PROB	3.316	n/a	n/a	-999	4	[7, 1, 7]	15	FR1	0	R1375C
688.163	0.0	724903	DISTRACT_END	n/a	n/a	n/a	-999	4	[0, 0, 0]	n/a	FR1	0	R1375C
688.163	1.184	724906	STOP	n/a	n/a	n/a	-999	4	[-999, -999, -999]	n/a	FR1	0	R1375C
689.347	4.274	726088	REC_START	n/a	n/a	n/a	-999	4	[0, 0, 0]	n/a	FR1	0	R1375C
693.621	1.292	730364	REC_WORD	1.292	n/a	SHIP	1	4	[0, 0, 0]	n/a	FR1	0	R1375C
694.913	24.699	731656	REC_WORD	24.699	n/a	SWAMP	2	4	[0, 0, 0]	n/a	FR1	0	R1375C
719.612	1.869	756358	REC_END	n/a	n/a	n/a	-999	4	[0, 0, 0]	n/a	FR1	0	R1375C
721.481	10.35	758231	COUNTDOWN_START	n/a	n/a	n/a	-999	5	[0, 0, 0]	n/a	FR1	0	R1375C
731.831	0.0	768578	COUNTDOWN_END	n/a	n/a	n/a	-999	5	[0, 0, 0]	n/a	FR1	0	R1375C
731.831	1.966	768578	ENCODING_START	n/a	n/a	n/a	-999	5	[0, 0, 0]	n/a	FR1	0	R1375C
733.797	1.6	770535	WORD	n/a	n/a	OAR	1	5	[0, 0, 0]	n/a	FR1	0	R1375C
735.397	0.983	772133	WORD_OFF	n/a	n/a	OAR	1	5	[0, 0, 0]	n/a	FR1	0	R1375C
736.38	1.6	773125	WORD	n/a	n/a	WAND	2	5	[0, 0, 0]	n/a	FR1	0	R1375C
737.98	0.851	774723	WORD_OFF	n/a	n/a	WAND	2	5	[0, 0, 0]	n/a	FR1	0	R1375C
738.831	1.617	775578	WORD	n/a	n/a	TOOL	3	5	[0, 0, 0]	n/a	FR1	0	R1375C
740.448	0.782	777190	WORD_OFF	n/a	n/a	TOOL	3	5	[0, 0, 0]	n/a	FR1	0	R1375C
741.23	1.601	777975	WORD	n/a	n/a	THROAT	4	5	[0, 0, 0]	n/a	FR1	0	R1375C
742.831	0.95	779573	WORD_OFF	n/a	n/a	THROAT	4	5	[0, 0, 0]	n/a	FR1	0	R1375C
743.781	1.6	780524	WORD	n/a	n/a	BIN	5	5	[0, 0, 0]	n/a	FR1	0	R1375C
745.381	0.866	782122	WORD_OFF	n/a	n/a	BIN	5	5	[0, 0, 0]	n/a	FR1	0	R1375C
746.247	1.617	782990	WORD	n/a	n/a	LAMP	6	5	[0, 0, 0]	n/a	FR1	0	R1375C
747.864	0.866	784602	WORD_OFF	n/a	n/a	LAMP	6	5	[0, 0, 0]	n/a	FR1	0	R1375C
748.73	1.617	785470	WORD	n/a	n/a	ELF	7	5	[0, 0, 0]	n/a	FR1	0	R1375C
750.347	0.783	787082	WORD_OFF	n/a	n/a	ELF	7	5	[0, 0, 0]	n/a	FR1	0	R1375C
751.13	1.617	787867	WORD	n/a	n/a	STRING	8	5	[0, 0, 0]	n/a	FR1	0	R1375C
752.747	0.85	789493	WORD_OFF	n/a	n/a	STRING	8	5	[0, 0, 0]	n/a	FR1	0	R1375C
753.597	1.617	790333	WORD	n/a	n/a	BEEF	9	5	[0, 0, 0]	n/a	FR1	0	R1375C
755.214	0.9	791959	WORD_OFF	n/a	n/a	BEEF	9	5	[0, 0, 0]	n/a	FR1	0	R1375C
756.114	1.6	792855	WORD	n/a	n/a	MULE	10	5	[0, 0, 0]	n/a	FR1	0	R1375C
757.714	0.916	794453	WORD_OFF	n/a	n/a	MULE	10	5	[0, 0, 0]	n/a	FR1	0	R1375C
758.63	1.617	795376	WORD	n/a	n/a	GLASS	11	5	[0, 0, 0]	n/a	FR1	0	R1375C
760.247	0.783	796988	WORD_OFF	n/a	n/a	GLASS	11	5	[0, 0, 0]	n/a	FR1	0	R1375C
761.03	1.6	797773	WORD	n/a	n/a	BLOOM	12	5	[0, 0, 0]	n/a	FR1	0	R1375C
762.63	0.002	799368	WORD_OFF	n/a	n/a	BLOOM	12	5	[0, 0, 0]	n/a	FR1	0	R1375C
762.632	0.0	799368	ENCODING_END	n/a	n/a	n/a	-999	5	[0, 0, 0]	n/a	FR1	0	R1375C
762.632	0.0	799368	DISTRACT_START	n/a	n/a	n/a	-999	5	[0, 0, 0]	n/a	FR1	0	R1375C
762.631	0.001	799371	PROB	0.001	n/a	n/a	-999	5	[2, 5, 3]	10	FR1	0	R1375C
762.632	3.932	799372	START	n/a	n/a	n/a	-999	5	[-999, -999, -999]	n/a	FR1	0	R1375C
766.564	3.736	803303	PROB	3.736	n/a	n/a	-999	5	[3, 5, 2]	10	FR1	0	R1375C
770.3	6.665	807039	PROB	6.665	n/a	n/a	-999	5	[8, 3, 3]	14	FR1	0	R1375C
776.965	2.649	813704	PROB	2.649	n/a	n/a	-999	5	[5, 3, 5]	13	FR1	0	R1375C
779.614	3.817	816353	PROB	3.817	n/a	n/a	-999	5	[5, 5, 7]	17	FR1	0	R1375C
783.431	0.0	820170	STOP	n/a	n/a	n/a	-999	5	[-999, -999, -999]	n/a	FR1	0	R1375C
783.431	1.067	820172	DISTRACT_END	n/a	n/a	n/a	-999	5	[0, 0, 0]	n/a	FR1	0	R1375C
784.498	3.195	821233	REC_START	n/a	n/a	n/a	-999	5	[0, 0, 0]	n/a	FR1	0	R1375C
787.693	4.388	824431	REC_WORD	4.388	n/a	OAR	1	5	[0, 0, 0]	n/a	FR1	0	R1375C
792.081	1.135	828819	REC_WORD	1.135	n/a	ELF	7	5	[0, 0, 0]	n/a	FR1	0	R1375C
793.216	4.131	829954	REC_WORD	4.131	n/a	BEEF	9	5	[0, 0, 0]	n/a	FR1	0	R1375C
797.347	17.432	834085	REC_WORD	17.432	n/a	STRING	8	5	[0, 0, 0]	n/a	FR1	0	R1375C
814.779	2.035	851517	REC_END	n/a	n/a	n/a	-999	5	[0, 0, 0]	n/a	FR1	0	R1375C
816.814	10.368	853556	COUNTDOWN_START	n/a	n/a	n/a	-999	6	[0, 0, 0]	n/a	FR1	0	R1375C
827.182	0.0	863917	COUNTDOWN_END	n/a	n/a	n/a	-999	6	[0, 0, 0]	n/a	FR1	0	R1375C
827.182	1.982	863917	ENCODING_START	n/a	n/a	n/a	-999	6	[0, 0, 0]	n/a	FR1	0	R1375C
829.164	1.6	865901	WORD	n/a	n/a	BAY	1	6	[0, 0, 0]	n/a	FR1	0	R1375C
830.764	0.935	867499	WORD_OFF	n/a	n/a	BAY	1	6	[0, 0, 0]	n/a	FR1	0	R1375C
831.699	1.615	868436	WORD	n/a	n/a	VASE	2	6	[0, 0, 0]	n/a	FR1	0	R1375C
833.314	0.934	870048	WORD_OFF	n/a	n/a	VASE	2	6	[0, 0, 0]	n/a	FR1	0	R1375C
834.248	1.599	870985	WORD	n/a	n/a	RAT	3	6	[0, 0, 0]	n/a	FR1	0	R1375C
835.847	0.967	872583	WORD_OFF	n/a	n/a	RAT	3	6	[0, 0, 0]	n/a	FR1	0	R1375C
836.814	1.617	873547	WORD	n/a	n/a	BATH	4	6	[0, 0, 0]	n/a	FR1	0	R1375C
838.431	0.917	875173	WORD_OFF	n/a	n/a	BATH	4	6	[0, 0, 0]	n/a	FR1	0	R1375C
839.348	1.615	876082	WORD	n/a	n/a	HOLE	5	6	[0, 0, 0]	n/a	FR1	0	R1375C
840.963	0.884	877694	WORD_OFF	n/a	n/a	HOLE	5	6	[0, 0, 0]	n/a	FR1	0	R1375C
841.847	1.6	878576	WORD	n/a	n/a	ROPE	6	6	[0, 0, 0]	n/a	FR1	0	R1375C
843.447	0.934	880188	WORD_OFF	n/a	n/a	ROPE	6	6	[0, 0, 0]	n/a	FR1	0	R1375C
844.381	1.6	881111	WORD	n/a	n/a	KEY	7	6	[0, 0, 0]	n/a	FR1	0	R1375C
845.981	0.833	882723	WORD_OFF	n/a	n/a	KEY	7	6	[0, 0, 0]	n/a	FR1	0	R1375C
846.814	1.6	883550	WORD	n/a	n/a	BANK	8	6	[0, 0, 0]	n/a	FR1	0	R1375C
848.414	0.85	885148	WORD_OFF	n/a	n/a	BANK	8	6	[0, 0, 0]	n/a	FR1	0	R1375C
849.264	1.617	886002	WORD	n/a	n/a	BARN	9	6	[0, 0, 0]	n/a	FR1	0	R1375C
850.881	0.916	887614	WORD_OFF	n/a	n/a	BARN	9	6	[0, 0, 0]	n/a	FR1	0	R1375C
851.797	1.601	888537	WORD	n/a	n/a	STICK	10	6	[0, 0, 0]	n/a	FR1	0	R1375C
853.398	0.966	890136	WORD_OFF	n/a	n/a	STICK	10	6	[0, 0, 0]	n/a	FR1	0	R1375C
854.364	1.616	891100	WORD	n/a	n/a	BEAK	11	6	[0, 0, 0]	n/a	FR1	0	R1375C
855.98	0.783	892712	WORD_OFF	n/a	n/a	BEAK	11	6	[0, 0, 0]	n/a	FR1	0	R1375C
856.763	1.6	893497	WORD	n/a	n/a	SHOE	12	6	[0, 0, 0]	n/a	FR1	0	R1375C
858.363	0.002	895096	WORD_OFF	n/a	n/a	SHOE	12	6	[0, 0, 0]	n/a	FR1	0	R1375C
858.365	0.0	895096	ENCODING_END	n/a	n/a	n/a	-999	6	[0, 0, 0]	n/a	FR1	0	R1375C
858.365	0.0	895096	DISTRACT_START	n/a	n/a	n/a	-999	6	[0, 0, 0]	n/a	FR1	0	R1375C
858.363	0.002	895098	PROB	0.002	n/a	n/a	-999	6	[7, 4, 2]	13	FR1	0	R1375C
858.365	5.55	895100	START	n/a	n/a	n/a	-999	6	[-999, -999, -999]	n/a	FR1	0	R1375C
863.915	3.632	900649	PROB	3.632	n/a	n/a	-999	6	[1, 4, 8]	13	FR1	0	R1375C
867.547	4.117	904281	PROB	4.117	n/a	n/a	-999	6	[7, 3, 7]	17	FR1	0	R1375C
871.664	4.001	908398	PROB	4.001	n/a	n/a	-999	6	[5, 8, 5]	18	FR1	0	R1375C
875.665	2.982	912399	PROB	2.982	n/a	n/a	-999	6	[5, 1, 2]	8	FR1	0	R1375C
878.647	0.0	915377	DISTRACT_END	n/a	n/a	n/a	-999	6	[0, 0, 0]	n/a	FR1	0	R1375C
878.647	1.167	915381	STOP	n/a	n/a	n/a	-999	6	[-999, -999, -999]	n/a	FR1	0	R1375C
879.814	1.841	916548	REC_START	n/a	n/a	n/a	-999	6	[0, 0, 0]	n/a	FR1	0	R1375C
881.655	10.619	918389	REC_WORD	10.619	n/a	BARN	9	6	[0, 0, 0]	n/a	FR1	0	R1375C
892.274	17.819	929007	REC_WORD	17.819	n/a	THIS IS NOT GOING WELL	-999	6	[0, 0, 0]	n/a	FR1	0	R1375C
910.093	1.621	946831	REC_END	n/a	n/a	n/a	-999	6	[0, 0, 0]	n/a	FR1	0	R1375C
911.714	10.351	948443	COUNTDOWN_START	n/a	n/a	n/a	-999	7	[0, 0, 0]	n/a	FR1	0	R1375C
922.065	0.0	958790	COUNTDOWN_END	n/a	n/a	n/a	-999	7	[0, 0, 0]	n/a	FR1	0	R1375C
922.065	2.232	958804	ENCODING_START	n/a	n/a	n/a	-999	7	[0, 0, 0]	n/a	FR1	0	R1375C
924.297	1.6	961036	WORD	n/a	n/a	STRAW	1	7	[0, 0, 0]	n/a	FR1	0	R1375C
925.897	0.767	962634	WORD_OFF	n/a	n/a	STRAW	1	7	[0, 0, 0]	n/a	FR1	0	R1375C
926.664	1.6	963392	WORD	n/a	n/a	BLADE	2	7	[0, 0, 0]	n/a	FR1	0	R1375C
928.264	0.95	964990	WORD_OFF	n/a	n/a	BLADE	2	7	[0, 0, 0]	n/a	FR1	0	R1375C
929.214	1.6	965941	WORD	n/a	n/a	BIRD	3	7	[0, 0, 0]	n/a	FR1	0	R1375C
930.814	0.883	967539	WORD_OFF	n/a	n/a	BIRD	3	7	[0, 0, 0]	n/a	FR1	0	R1375C
931.697	1.617	968435	WORD	n/a	n/a	FROG	4	7	[0, 0, 0]	n/a	FR1	0	R1375C
933.314	0.933	970047	WORD_OFF	n/a	n/a	FROG	4	7	[0, 0, 0]	n/a	FR1	0	R1375C
934.247	1.617	970984	WORD	n/a	n/a	HAIR	5	7	[0, 0, 0]	n/a	FR1	0	R1375C
935.864	0.833	972596	WORD_OFF	n/a	n/a	HAIR	5	7	[0, 0, 0]	n/a	FR1	0	R1375C
936.697	1.616	973422	WORD	n/a	n/a	TOOTH	6	7	[0, 0, 0]	n/a	FR1	0	R1375C
938.313	0.833	975048	WORD_OFF	n/a	n/a	TOOTH	6	7	[0, 0, 0]	n/a	FR1	0	R1375C
939.146	1.601	975875	WORD	n/a	n/a	SLIME	7	7	[0, 0, 0]	n/a	FR1	0	R1375C
940.747	0.933	977473	WORD_OFF	n/a	n/a	SLIME	7	7	[0, 0, 0]	n/a	FR1	0	R1375C
941.68	1.616	978410	WORD	n/a	n/a	WEB	8	7	[0, 0, 0]	n/a	FR1	0	R1375C
943.296	0.784	980022	WORD_OFF	n/a	n/a	WEB	8	7	[0, 0, 0]	n/a	FR1	0	R1375C
944.08	1.6	980807	WORD	n/a	n/a	ARK	9	7	[0, 0, 0]	n/a	FR1	0	R1375C
945.68	0.917	982405	WORD_OFF	n/a	n/a	ARK	9	7	[0, 0, 0]	n/a	FR1	0	R1375C
946.597	1.616	983328	WORD	n/a	n/a	TROUT	10	7	[0, 0, 0]	n/a	FR1	0	R1375C
948.213	0.834	984940	WORD_OFF	n/a	n/a	TROUT	10	7	[0, 0, 0]	n/a	FR1	0	R1375C
949.047	1.6	985781	WORD	n/a	n/a	SKUNK	11	7	[0, 0, 0]	n/a	FR1	0	R1375C
950.647	0.934	987379	WORD_OFF	n/a	n/a	SKUNK	11	7	[0, 0, 0]	n/a	FR1	0	R1375C
951.581	1.6	988316	WORD	n/a	n/a	LENS	12	7	[0, 0, 0]	n/a	FR1	0	R1375C
953.181	0.002	989911	PROB	0.002	n/a	n/a	-999	7	[1, 5, 7]	13	FR1	0	R1375C
953.183	0.0	989913	START	n/a	n/a	n/a	-999	7	[-999, -999, -999]	n/a	FR1	0	R1375C
953.181	0.001	989914	WORD_OFF	n/a	n/a	LENS	12	7	[0, 0, 0]	n/a	FR1	0	R1375C
953.182	0.001	989914	ENCODING_END	n/a	n/a	n/a	-999	7	[0, 0, 0]	n/a	FR1	0	R1375C
953.183	5.398	989914	DISTRACT_START	n/a	n/a	n/a	-999	7	[0, 0, 0]	n/a	FR1	0	R1375C
958.581	2.417	995311	PROB	2.417	n/a	n/a	-999	7	[1, 8, 4]	13	FR1	0	R1375C
960.998	11.067	997727	PROB	11.067	n/a	n/a	-999	7	[7, 8, 7]	24	FR1	0	R1375C
972.065	4.631	1008794	PROB	4.631	n/a	n/a	-999	7	[4, 2, 4]	10	FR1	0	R1375C
976.696	0.0	1013419	DISTRACT_END	n/a	n/a	n/a	-999	7	[0, 0, 0]	n/a	FR1	0	R1375C
976.696	1.335	1013425	STOP	n/a	n/a	n/a	-999	7	[-999, -999, -999]	n/a	FR1	0	R1375C
978.031	3.166	1014756	REC_START	n/a	n/a	n/a	-999	7	[0, 0, 0]	n/a	FR1	0	R1375C
981.197	1.423	1017925	REC_WORD	1.423	n/a	SLIME	7	7	[0, 0, 0]	n/a	FR1	0	R1375C
982.62	1.09	1019348	REC_WORD	1.09	n/a	TOOTH	6	7	[0, 0, 0]	n/a	FR1	0	R1375C
983.71	12.369	1020438	REC_WORD	12.369	n/a	HAIR	5	7	[0, 0, 0]	n/a	FR1	0	R1375C
996.079	2.146	1032807	REC_WORD	2.146	n/a	TROUT	10	7	[0, 0, 0]	n/a	FR1	0	R1375C
998.225	1.828	1034953	REC_WORD	1.828	n/a	BIRD	3	7	[0, 0, 0]	n/a	FR1	0	R1375C
1000.053	8.246	1036780	REC_WORD	8.246	n/a	BARN	-999	7	[0, 0, 0]	n/a	FR1	0	R1375C
1008.299	3.465	1045025	REC_END	n/a	n/a	n/a	-999	7	[0, 0, 0]	n/a	FR1	0	R1375C
1011.764	10.351	1048497	COUNTDOWN_START	n/a	n/a	n/a	-999	8	[0, 0, 0]	n/a	FR1	0	R1375C
1022.115	0.0	1058844	COUNTDOWN_END	n/a	n/a	n/a	-999	8	[0, 0, 0]	n/a	FR1	0	R1375C
1022.115	2.166	1058844	ENCODING_START	n/a	n/a	n/a	-999	8	[0, 0, 0]	n/a	FR1	0	R1375C
1024.281	1.6	1061008	WORD	n/a	n/a	FOX	1	8	[0, 0, 0]	n/a	FR1	0	R1375C
1025.881	0.966	1062606	WORD_OFF	n/a	n/a	FOX	1	8	[0, 0, 0]	n/a	FR1	0	R1375C
1026.847	1.6	1063570	WORD	n/a	n/a	SPRING	2	8	[0, 0, 0]	n/a	FR1	0	R1375C
1028.447	0.967	1065168	WORD_OFF	n/a	n/a	SPRING	2	8	[0, 0, 0]	n/a	FR1	0	R1375C
1029.414	1.616	1066147	WORD	n/a	n/a	CLOWN	3	8	[0, 0, 0]	n/a	FR1	0	R1375C
1031.03	0.9	1067759	WORD_OFF	n/a	n/a	CLOWN	3	8	[0, 0, 0]	n/a	FR1	0	R1375C
1031.93	1.601	1068654	WORD	n/a	n/a	BAT	4	8	[0, 0, 0]	n/a	FR1	0	R1375C
1033.531	0.816	1070252	WORD_OFF	n/a	n/a	BAT	4	8	[0, 0, 0]	n/a	FR1	0	R1375C
1034.347	1.6	1071079	WORD	n/a	n/a	HOUSE	5	8	[0, 0, 0]	n/a	FR1	0	R1375C
1035.947	0.883	1072677	WORD_OFF	n/a	n/a	HOUSE	5	8	[0, 0, 0]	n/a	FR1	0	R1375C
1036.83	1.601	1073559	WORD	n/a	n/a	HOOF	6	8	[0, 0, 0]	n/a	FR1	0	R1375C
1038.431	0.9	1075157	WORD_OFF	n/a	n/a	HOOF	6	8	[0, 0, 0]	n/a	FR1	0	R1375C
1039.331	1.6	1076053	WORD	n/a	n/a	SEAL	7	8	[0, 0, 0]	n/a	FR1	0	R1375C
1040.931	0.967	1077651	WORD_OFF	n/a	n/a	SEAL	7	8	[0, 0, 0]	n/a	FR1	0	R1375C
1041.898	1.615	1078629	WORD	n/a	n/a	SINK	8	8	[0, 0, 0]	n/a	FR1	0	R1375C
1043.513	0.934	1080241	WORD_OFF	n/a	n/a	SINK	8	8	[0, 0, 0]	n/a	FR1	0	R1375C
1044.447	1.6	1081178	WORD	n/a	n/a	BOARD	9	8	[0, 0, 0]	n/a	FR1	0	R1375C
1046.047	0.85	1082776	WORD_OFF	n/a	n/a	BOARD	9	8	[0, 0, 0]	n/a	FR1	0	R1375C
1046.897	1.601	1083617	WORD	n/a	n/a	INK	10	8	[0, 0, 0]	n/a	FR1	0	R1375C
1048.498	0.783	1085229	WORD_OFF	n/a	n/a	INK	10	8	[0, 0, 0]	n/a	FR1	0	R1375C
1049.281	1.6	1086000	WORD	n/a	n/a	SALT	11	8	[0, 0, 0]	n/a	FR1	0	R1375C
1050.881	0.85	1087612	WORD_OFF	n/a	n/a	SALT	11	8	[0, 0, 0]	n/a	FR1	0	R1375C
1051.731	1.6	1088453	WORD	n/a	n/a	SLUSH	12	8	[0, 0, 0]	n/a	FR1	0	R1375C
1053.331	0.001	1090051	WORD_OFF	n/a	n/a	SLUSH	12	8	[0, 0, 0]	n/a	FR1	0	R1375C
1053.332	0.0	1090051	ENCODING_END	n/a	n/a	n/a	-999	8	[0, 0, 0]	n/a	FR1	0	R1375C
1053.332	0.001	1090057	PROB	0.001	n/a	n/a	-999	8	[4, 3, 5]	12	FR1	0	R1375C
1053.333	0.0	1090058	START	n/a	n/a	n/a	-999	8	[-999, -999, -999]	n/a	FR1	0	R1375C
1053.333	4.331	1090065	DISTRACT_START	n/a	n/a	n/a	-999	8	[0, 0, 0]	n/a	FR1	0	R1375C
1057.664	1.817	1094389	PROB	1.817	n/a	n/a	-999	8	[2, 1, 2]	5	FR1	0	R1375C
1059.481	1.9	1096205	PROB	1.9	n/a	n/a	-999	8	[4, 6, 1]	11	FR1	0	R1375C
1061.381	3.916	1098105	PROB	3.916	n/a	n/a	-999	8	[3, 8, 5]	16	FR1	0	R1375C
1065.297	5.335	1102021	PROB	5.335	n/a	n/a	-999	8	[6, 7, 1]	14	FR1	0	R1375C
1070.632	3.966	1107356	PROB	3.966	n/a	n/a	-999	8	[2, 3, 2]	7	FR1	0	R1375C
1074.598	0.0	1111322	STOP	n/a	n/a	n/a	-999	8	[-999, -999, -999]	n/a	FR1	0	R1375C
1074.598	1.033	1111324	DISTRACT_END	n/a	n/a	n/a	-999	8	[0, 0, 0]	n/a	FR1	0	R1375C
1075.631	1.795	1112357	REC_START	n/a	n/a	n/a	-999	8	[0, 0, 0]	n/a	FR1	0	R1375C
1077.426	23.887	1114150	REC_WORD	23.887	n/a	HOOF	6	8	[0, 0, 0]	n/a	FR1	0	R1375C
1101.313	4.601	1138035	REC_WORD	4.601	n/a	I LITERALLY DON'T KNOW	-999	8	[0, 0, 0]	n/a	FR1	0	R1375C
1105.914	3.917	1142641	REC_END	n/a	n/a	n/a	-999	8	[0, 0, 0]	n/a	FR1	0	R1375C
1109.831	10.35	1146554	COUNTDOWN_START	n/a	n/a	n/a	-999	9	[0, 0, 0]	n/a	FR1	0	R1375C
1120.181	0.0	1156901	COUNTDOWN_END	n/a	n/a	n/a	-999	9	[0, 0, 0]	n/a	FR1	0	R1375C
1120.181	2.382	1156901	ENCODING_START	n/a	n/a	n/a	-999	9	[0, 0, 0]	n/a	FR1	0	R1375C
1122.563	1.6	1159284	WORD	n/a	n/a	SEAT	1	9	[0, 0, 0]	n/a	FR1	0	R1375C
1124.163	1.0	1160883	WORD_OFF	n/a	n/a	SEAT	1	9	[0, 0, 0]	n/a	FR1	0	R1375C
1125.163	1.601	1161888	WORD	n/a	n/a	FUR	2	9	[0, 0, 0]	n/a	FR1	0	R1375C
1126.764	1.0	1163487	WORD_OFF	n/a	n/a	FUR	2	9	[0, 0, 0]	n/a	FR1	0	R1375C
1127.764	1.616	1164479	WORD	n/a	n/a	CHALK	3	9	[0, 0, 0]	n/a	FR1	0	R1375C
1129.38	0.85	1166104	WORD_OFF	n/a	n/a	CHALK	3	9	[0, 0, 0]	n/a	FR1	0	R1375C
1130.23	1.6	1166945	WORD	n/a	n/a	SCHOOL	4	9	[0, 0, 0]	n/a	FR1	0	R1375C
1131.83	0.9	1168557	WORD_OFF	n/a	n/a	SCHOOL	4	9	[0, 0, 0]	n/a	FR1	0	R1375C
1132.73	1.601	1169452	WORD	n/a	n/a	MAP	5	9	[0, 0, 0]	n/a	FR1	0	R1375C
1134.331	0.916	1171051	WORD_OFF	n/a	n/a	MAP	5	9	[0, 0, 0]	n/a	FR1	0	R1375C
1135.247	1.601	1171974	WORD	n/a	n/a	TANK	6	9	[0, 0, 0]	n/a	FR1	0	R1375C
1136.848	0.766	1173572	WORD_OFF	n/a	n/a	TANK	6	9	[0, 0, 0]	n/a	FR1	0	R1375C
1137.614	1.6	1174330	WORD	n/a	n/a	BRUSH	7	9	[0, 0, 0]	n/a	FR1	0	R1375C
1139.214	0.767	1175928	WORD_OFF	n/a	n/a	BRUSH	7	9	[0, 0, 0]	n/a	FR1	0	R1375C
1139.981	1.6	1176699	WORD	n/a	n/a	BRANCH	8	9	[0, 0, 0]	n/a	FR1	0	R1375C
1141.581	0.783	1178298	WORD_OFF	n/a	n/a	BRANCH	8	9	[0, 0, 0]	n/a	FR1	0	R1375C
1142.364	1.617	1179083	WORD	n/a	n/a	HAY	9	9	[0, 0, 0]	n/a	FR1	0	R1375C
1143.981	0.816	1180695	WORD_OFF	n/a	n/a	HAY	9	9	[0, 0, 0]	n/a	FR1	0	R1375C
1144.797	1.601	1181522	WORD	n/a	n/a	FRUIT	10	9	[0, 0, 0]	n/a	FR1	0	R1375C
1146.398	0.85	1183120	WORD_OFF	n/a	n/a	FRUIT	10	9	[0, 0, 0]	n/a	FR1	0	R1375C
1147.248	1.6	1183974	WORD	n/a	n/a	DRAIN	11	9	[0, 0, 0]	n/a	FR1	0	R1375C
1148.848	0.915	1185572	WORD_OFF	n/a	n/a	DRAIN	11	9	[0, 0, 0]	n/a	FR1	0	R1375C
1149.763	1.601	1186482	WORD	n/a	n/a	COKE	12	9	[0, 0, 0]	n/a	FR1	0	R1375C
1151.364	0.002	1188080	WORD_OFF	n/a	n/a	COKE	12	9	[0, 0, 0]	n/a	FR1	0	R1375C
1151.366	0.0	1188080	ENCODING_END	n/a	n/a	n/a	-999	9	[0, 0, 0]	n/a	FR1	0	R1375C
1151.364	0.002	1188084	PROB	0.002	n/a	n/a	-999	9	[1, 6, 5]	12	FR1	0	R1375C
1151.366	0.0	1188086	START	n/a	n/a	n/a	-999	9	[-999, -999, -999]	n/a	FR1	0	R1375C
1151.366	3.664	1188094	DISTRACT_START	n/a	n/a	n/a	-999	9	[0, 0, 0]	n/a	FR1	0	R1375C
1155.03	5.901	1191750	PROB	5.901	n/a	n/a	-999	9	[7, 4, 7]	18	FR1	0	R1375C
1160.931	4.35	1197650	PROB	4.35	n/a	n/a	-999	9	[8, 3, 1]	12	FR1	0	R1375C
1165.281	4.034	1202000	PROB	4.034	n/a	n/a	-999	9	[2, 7, 1]	10	FR1	0	R1375C
1169.315	6.199	1206034	PROB	6.199	n/a	n/a	-999	9	[7, 8, 7]	22	FR1	0	R1375C
1175.514	0.0	1212232	DISTRACT_END	n/a	n/a	n/a	-999	9	[0, 0, 0]	n/a	FR1	0	R1375C
1175.514	1.234	1212232	STOP	n/a	n/a	n/a	-999	9	[-999, -999, -999]	n/a	FR1	0	R1375C
1176.748	2.088	1213472	REC_START	n/a	n/a	n/a	-999	9	[0, 0, 0]	n/a	FR1	0	R1375C
1178.836	1.023	1215554	REC_WORD	1.023	n/a	FUR	2	9	[0, 0, 0]	n/a	FR1	0	R1375C
1179.859	0.778	1216577	REC_WORD	0.778	n/a	MAP	5	9	[0, 0, 0]	n/a	FR1	0	R1375C
1180.637	12.116	1217355	REC_WORD	12.116	n/a	SCHOOL	4	9	[0, 0, 0]	n/a	FR1	0	R1375C
1192.753	14.276	1229471	REC_WORD	14.276	n/a	TANK	6	9	[0, 0, 0]	n/a	FR1	0	R1375C
1207.029	3.702	1243742	REC_END	n/a	n/a	n/a	-999	9	[0, 0, 0]	n/a	FR1	0	R1375C
1210.731	10.35	1247448	COUNTDOWN_START	n/a	n/a	n/a	-999	10	[0, 0, 0]	n/a	FR1	0	R1375C
1221.081	0.0	1257795	COUNTDOWN_END	n/a	n/a	n/a	-999	10	[0, 0, 0]	n/a	FR1	0	R1375C
1221.081	2.016	1257795	ENCODING_START	n/a	n/a	n/a	-999	10	[0, 0, 0]	n/a	FR1	0	R1375C
1223.097	1.602	1259807	WORD	n/a	n/a	ICE	1	10	[0, 0, 0]	n/a	FR1	0	R1375C
1224.699	0.832	1261419	WORD_OFF	n/a	n/a	ICE	1	10	[0, 0, 0]	n/a	FR1	0	R1375C
1225.531	1.6	1262246	WORD	n/a	n/a	MOUTH	2	10	[0, 0, 0]	n/a	FR1	0	R1375C
1227.131	0.816	1263844	WORD_OFF	n/a	n/a	MOUTH	2	10	[0, 0, 0]	n/a	FR1	0	R1375C
1227.947	1.6	1264670	WORD	n/a	n/a	CROWN	3	10	[0, 0, 0]	n/a	FR1	0	R1375C
1229.547	0.95	1266269	WORD_OFF	n/a	n/a	CROWN	3	10	[0, 0, 0]	n/a	FR1	0	R1375C
1230.497	1.601	1267219	WORD	n/a	n/a	TOY	4	10	[0, 0, 0]	n/a	FR1	0	R1375C
1232.098	0.9	1268818	WORD_OFF	n/a	n/a	TOY	4	10	[0, 0, 0]	n/a	FR1	0	R1375C
1232.998	1.6	1269713	WORD	n/a	n/a	GOWN	5	10	[0, 0, 0]	n/a	FR1	0	R1375C
1234.598	0.916	1271311	WORD_OFF	n/a	n/a	GOWN	5	10	[0, 0, 0]	n/a	FR1	0	R1375C
1235.514	1.6	1272234	WORD	n/a	n/a	CURB	6	10	[0, 0, 0]	n/a	FR1	0	R1375C
1237.114	0.934	1273833	WORD_OFF	n/a	n/a	CURB	6	10	[0, 0, 0]	n/a	FR1	0	R1375C
1238.048	1.6	1274770	WORD	n/a	n/a	HEART	7	10	[0, 0, 0]	n/a	FR1	0	R1375C
1239.648	0.85	1276368	WORD_OFF	n/a	n/a	HEART	7	10	[0, 0, 0]	n/a	FR1	0	R1375C
1240.498	1.615	1277208	WORD	n/a	n/a	MAIL	8	10	[0, 0, 0]	n/a	FR1	0	R1375C
1242.113	0.817	1278834	WORD_OFF	n/a	n/a	MAIL	8	10	[0, 0, 0]	n/a	FR1	0	R1375C
1242.93	1.6	1279647	WORD	n/a	n/a	TRASH	9	10	[0, 0, 0]	n/a	FR1	0	R1375C
1244.53	0.784	1281245	WORD_OFF	n/a	n/a	TRASH	9	10	[0, 0, 0]	n/a	FR1	0	R1375C
1245.314	1.617	1282030	WORD	n/a	n/a	EGG	10	10	[0, 0, 0]	n/a	FR1	0	R1375C
1246.931	0.933	1283642	WORD_OFF	n/a	n/a	EGG	10	10	[0, 0, 0]	n/a	FR1	0	R1375C
1247.864	1.6	1284579	WORD	n/a	n/a	CLOCK	11	10	[0, 0, 0]	n/a	FR1	0	R1375C
1249.464	0.934	1286178	WORD_OFF	n/a	n/a	CLOCK	11	10	[0, 0, 0]	n/a	FR1	0	R1375C
1250.398	1.6	1287114	WORD	n/a	n/a	WOLF	12	10	[0, 0, 0]	n/a	FR1	0	R1375C
1251.998	0.001	1288713	WORD_OFF	n/a	n/a	WOLF	12	10	[0, 0, 0]	n/a	FR1	0	R1375C
1251.999	0.0	1288713	ENCODING_END	n/a	n/a	n/a	-999	10	[0, 0, 0]	n/a	FR1	0	R1375C
1251.999	0.0	1288713	DISTRACT_START	n/a	n/a	n/a	-999	10	[0, 0, 0]	n/a	FR1	0	R1375C
1251.998	0.001	1288713	PROB	0.001	n/a	n/a	-999	10	[6, 3, 4]	13	FR1	0	R1375C
1251.999	3.365	1288714	START	n/a	n/a	n/a	-999	10	[-999, -999, -999]	n/a	FR1	0	R1375C
1255.364	4.251	1292078	PROB	4.251	n/a	n/a	-999	10	[3, 4, 3]	10	FR1	0	R1375C
1259.615	2.899	1296329	PROB	2.899	n/a	n/a	-999	10	[6, 1, 2]	9	FR1	0	R1375C
1262.514	3.05	1299228	PROB	3.05	n/a	n/a	-999	10	[5, 5, 6]	16	FR1	0	R1375C
1265.564	4.834	1302278	PROB	4.834	n/a	n/a	-999	10	[2, 8, 7]	17	FR1	0	R1375C
1270.398	2.966	1307112	PROB	2.966	n/a	n/a	-999	10	[2, 3, 3]	8	FR1	0	R1375C
1273.364	0.0	1310077	STOP	n/a	n/a	n/a	-999	10	[-999, -999, -999]	n/a	FR1	0	R1375C
1273.364	1.067	1310082	DISTRACT_END	n/a	n/a	n/a	-999	10	[0, 0, 0]	n/a	FR1	0	R1375C
1274.431	3.465	1311143	REC_START	n/a	n/a	n/a	-999	10	[0, 0, 0]	n/a	FR1	0	R1375C
1277.896	0.513	1314609	REC_WORD	0.513	n/a	ICE	1	10	[0, 0, 0]	n/a	FR1	0	R1375C
1278.409	2.406	1315122	REC_WORD	2.406	n/a	MOUTH	2	10	[0, 0, 0]	n/a	FR1	0	R1375C
1280.815	3.14	1317528	REC_WORD	3.14	n/a	GOWN	5	10	[0, 0, 0]	n/a	FR1	0	R1375C
1283.955	20.749	1320668	REC_WORD	20.749	n/a	TOY	4	10	[0, 0, 0]	n/a	FR1	0	R1375C
1304.704	10.11	1341413	REC_END	n/a	n/a	n/a	-999	10	[0, 0, 0]	n/a	FR1	0	R1375C
1314.814	10.35	1351525	COUNTDOWN_START	n/a	n/a	n/a	-999	11	[0, 0, 0]	n/a	FR1	0	R1375C
1325.164	0.0	1361873	COUNTDOWN_END	n/a	n/a	n/a	-999	11	[0, 0, 0]	n/a	FR1	0	R1375C
1325.164	1.884	1361873	ENCODING_START	n/a	n/a	n/a	-999	11	[0, 0, 0]	n/a	FR1	0	R1375C
1327.048	1.615	1363760	WORD	n/a	n/a	DOCK	1	11	[0, 0, 0]	n/a	FR1	0	R1375C
1328.663	0.934	1365372	WORD_OFF	n/a	n/a	DOCK	1	11	[0, 0, 0]	n/a	FR1	0	R1375C
1329.597	1.6	1366309	WORD	n/a	n/a	MUG	2	11	[0, 0, 0]	n/a	FR1	0	R1375C
1331.197	0.984	1367907	WORD_OFF	n/a	n/a	MUG	2	11	[0, 0, 0]	n/a	FR1	0	R1375C
1332.181	1.6	1368885	WORD	n/a	n/a	BOWL	3	11	[0, 0, 0]	n/a	FR1	0	R1375C
1333.781	0.85	1370497	WORD_OFF	n/a	n/a	BOWL	3	11	[0, 0, 0]	n/a	FR1	0	R1375C
1334.631	1.6	1371338	WORD	n/a	n/a	ZOO	4	11	[0, 0, 0]	n/a	FR1	0	R1375C
1336.231	0.85	1372936	WORD_OFF	n/a	n/a	ZOO	4	11	[0, 0, 0]	n/a	FR1	0	R1375C
1337.081	1.616	1373790	WORD	n/a	n/a	MAZE	5	11	[0, 0, 0]	n/a	FR1	0	R1375C
1338.697	0.801	1375402	WORD_OFF	n/a	n/a	MAZE	5	11	[0, 0, 0]	n/a	FR1	0	R1375C
1339.498	1.6	1376215	WORD	n/a	n/a	HOOK	6	11	[0, 0, 0]	n/a	FR1	0	R1375C
1341.098	0.798	1377813	WORD_OFF	n/a	n/a	HOOK	6	11	[0, 0, 0]	n/a	FR1	0	R1375C
1341.896	1.601	1378613	WORD	n/a	n/a	FENCE	7	11	[0, 0, 0]	n/a	FR1	0	R1375C
1343.497	0.999	1380211	WORD_OFF	n/a	n/a	FENCE	7	11	[0, 0, 0]	n/a	FR1	0	R1375C
1344.496	1.601	1381203	WORD	n/a	n/a	SHORE	8	11	[0, 0, 0]	n/a	FR1	0	R1375C
1346.097	0.9	1382801	WORD_OFF	n/a	n/a	SHORE	8	11	[0, 0, 0]	n/a	FR1	0	R1375C
1346.997	1.601	1383710	WORD	n/a	n/a	SUN	9	11	[0, 0, 0]	n/a	FR1	0	R1375C
1348.598	0.95	1385309	WORD_OFF	n/a	n/a	SUN	9	11	[0, 0, 0]	n/a	FR1	0	R1375C
1349.548	1.6	1386259	WORD	n/a	n/a	HOG	10	11	[0, 0, 0]	n/a	FR1	0	R1375C
1351.148	0.998	1387857	WORD_OFF	n/a	n/a	HOG	10	11	[0, 0, 0]	n/a	FR1	0	R1375C
1352.146	1.601	1388863	WORD	n/a	n/a	DEW	11	11	[0, 0, 0]	n/a	FR1	0	R1375C
1353.747	0.817	1390461	WORD_OFF	n/a	n/a	DEW	11	11	[0, 0, 0]	n/a	FR1	0	R1375C
1354.564	1.6	1391274	WORD	n/a	n/a	COURT	12	11	[0, 0, 0]	n/a	FR1	0	R1375C
1356.164	0.002	1392873	WORD_OFF	n/a	n/a	COURT	12	11	[0, 0, 0]	n/a	FR1	0	R1375C
1356.166	0.0	1392873	ENCODING_END	n/a	n/a	n/a	-999	11	[0, 0, 0]	n/a	FR1	0	R1375C
1356.166	0.0	1392873	DISTRACT_START	n/a	n/a	n/a	-999	11	[0, 0, 0]	n/a	FR1	0	R1375C
1356.164	0.002	1392873	PROB	0.002	n/a	n/a	-999	11	[3, 6, 4]	13	FR1	0	R1375C
1356.166	2.765	1392875	START	n/a	n/a	n/a	-999	11	[-999, -999, -999]	n/a	FR1	0	R1375C
1358.931	2.55	1395640	PROB	2.55	n/a	n/a	-999	11	[6, 2, 6]	14	FR1	0	R1375C
1361.481	1.933	1398190	PROB	1.933	n/a	n/a	-999	11	[3, 6, 4]	12	FR1	0	R1375C
1363.414	4.683	1400123	PROB	4.683	n/a	n/a	-999	11	[3, 8, 7]	18	FR1	0	R1375C
1368.097	3.2	1404806	PROB	3.2	n/a	n/a	-999	11	[2, 3, 8]	13	FR1	0	R1375C
1371.297	3.201	1408005	PROB	3.201	n/a	n/a	-999	11	[6, 5, 3]	14	FR1	0	R1375C
1374.498	1.866	1411206	PROB	1.866	n/a	n/a	-999	11	[4, 1, 6]	11	FR1	0	R1375C
1376.364	0.0	1413071	DISTRACT_END	n/a	n/a	n/a	-999	11	[0, 0, 0]	n/a	FR1	0	R1375C
1376.364	1.166	1413072	STOP	n/a	n/a	n/a	-999	11	[-999, -999, -999]	n/a	FR1	0	R1375C
1377.53	2.184	1414242	REC_START	n/a	n/a	n/a	-999	11	[0, 0, 0]	n/a	FR1	0	R1375C
1379.714	0.36	1416422	REC_WORD	0.36	n/a	DOCK	1	11	[0, 0, 0]	n/a	FR1	0	R1375C
1380.074	1.253	1416782	REC_WORD	1.253	n/a	SUN	9	11	[0, 0, 0]	n/a	FR1	0	R1375C
1381.327	3.835	1418035	REC_WORD	3.835	n/a	ZOO	4	11	[0, 0, 0]	n/a	FR1	0	R1375C
1385.162	5.078	1421870	REC_WORD	5.078	n/a	FROST	-999	11	[0, 0, 0]	n/a	FR1	0	R1375C
1390.24	17.55	1426948	REC_WORD	17.55	n/a	HOOK	6	11	[0, 0, 0]	n/a	FR1	0	R1375C
1407.79	1.974	1444498	REC_END	n/a	n/a	n/a	-999	11	[0, 0, 0]	n/a	FR1	0	R1375C
1409.764	10.351	1446468	COUNTDOWN_START	n/a	n/a	n/a	-999	12	[0, 0, 0]	n/a	FR1	0	R1375C
1420.115	0.0	1456815	COUNTDOWN_END	n/a	n/a	n/a	-999	12	[0, 0, 0]	n/a	FR1	0	R1375C
1420.115	2.199	1456829	ENCODING_START	n/a	n/a	n/a	-999	12	[0, 0, 0]	n/a	FR1	0	R1375C
1422.314	1.6	1459020	WORD	n/a	n/a	PIN	1	12	[0, 0, 0]	n/a	FR1	0	R1375C
1423.914	0.899	1460618	WORD_OFF	n/a	n/a	PIN	1	12	[0, 0, 0]	n/a	FR1	0	R1375C
1424.813	1.601	1461513	WORD	n/a	n/a	TRAIL	2	12	[0, 0, 0]	n/a	FR1	0	R1375C
1426.414	0.817	1463125	WORD_OFF	n/a	n/a	TRAIL	2	12	[0, 0, 0]	n/a	FR1	0	R1375C
1427.231	1.617	1463938	WORD	n/a	n/a	PAINT	3	12	[0, 0, 0]	n/a	FR1	0	R1375C
1428.848	0.883	1465550	WORD_OFF	n/a	n/a	PAINT	3	12	[0, 0, 0]	n/a	FR1	0	R1375C
1429.731	1.616	1466432	WORD	n/a	n/a	TAIL	4	12	[0, 0, 0]	n/a	FR1	0	R1375C
1431.347	1.001	1468058	WORD_OFF	n/a	n/a	TAIL	4	12	[0, 0, 0]	n/a	FR1	0	R1375C
1432.348	1.616	1469050	WORD	n/a	n/a	OIL	5	12	[0, 0, 0]	n/a	FR1	0	R1375C
1433.964	0.95	1470676	WORD_OFF	n/a	n/a	OIL	5	12	[0, 0, 0]	n/a	FR1	0	R1375C
1434.914	1.6	1471626	WORD	n/a	n/a	CUBE	6	12	[0, 0, 0]	n/a	FR1	0	R1375C
1436.514	0.8	1473224	WORD_OFF	n/a	n/a	CUBE	6	12	[0, 0, 0]	n/a	FR1	0	R1375C
1437.314	1.6	1474024	WORD	n/a	n/a	STAR	7	12	[0, 0, 0]	n/a	FR1	0	R1375C
1438.914	0.866	1475622	WORD_OFF	n/a	n/a	STAR	7	12	[0, 0, 0]	n/a	FR1	0	R1375C
1439.78	1.6	1476490	WORD	n/a	n/a	LIP	8	12	[0, 0, 0]	n/a	FR1	0	R1375C
1441.38	0.984	1478088	WORD_OFF	n/a	n/a	LIP	8	12	[0, 0, 0]	n/a	FR1	0	R1375C
1442.364	1.6	1479066	WORD	n/a	n/a	THREAD	9	12	[0, 0, 0]	n/a	FR1	0	R1375C
1443.964	0.85	1480664	WORD_OFF	n/a	n/a	THREAD	9	12	[0, 0, 0]	n/a	FR1	0	R1375C
1444.814	1.617	1481519	WORD	n/a	n/a	BOY	10	12	[0, 0, 0]	n/a	FR1	0	R1375C
1446.431	0.767	1483131	WORD_OFF	n/a	n/a	BOY	10	12	[0, 0, 0]	n/a	FR1	0	R1375C
1447.198	1.616	1483902	WORD	n/a	n/a	APE	11	12	[0, 0, 0]	n/a	FR1	0	R1375C
1448.814	0.833	1485514	WORD_OFF	n/a	n/a	APE	11	12	[0, 0, 0]	n/a	FR1	0	R1375C
1449.647	1.616	1486355	WORD	n/a	n/a	LEAF	12	12	[0, 0, 0]	n/a	FR1	0	R1375C
1451.263	0.002	1487967	WORD_OFF	n/a	n/a	LEAF	12	12	[0, 0, 0]	n/a	FR1	0	R1375C
1451.265	0.0	1487967	ENCODING_END	n/a	n/a	n/a	-999	12	[0, 0, 0]	n/a	FR1	0	R1375C
1451.265	0.0	1487967	DISTRACT_START	n/a	n/a	n/a	-999	12	[0, 0, 0]	n/a	FR1	0	R1375C
1451.263	0.002	1487967	PROB	0.002	n/a	n/a	-999	12	[3, 8, 2]	13	FR1	0	R1375C
1451.265	3.883	1487969	START	n/a	n/a	n/a	-999	12	[-999, -999, -999]	n/a	FR1	0	R1375C
1455.148	5.167	1491852	PROB	5.167	n/a	n/a	-999	12	[7, 3, 5]	15	FR1	0	R1375C
1460.315	3.066	1497019	PROB	3.066	n/a	n/a	-999	12	[6, 4, 6]	16	FR1	0	R1375C
1463.381	3.032	1500085	PROB	3.032	n/a	n/a	-999	12	[2, 2, 6]	10	FR1	0	R1375C
1466.413	7.65	1503117	PROB	7.65	n/a	n/a	-999	12	[6, 6, 7]	20	FR1	0	R1375C
1474.063	0.0	1510766	STOP	n/a	n/a	n/a	-999	12	[-999, -999, -999]	n/a	FR1	0	R1375C
1474.063	1.084	1510769	DISTRACT_END	n/a	n/a	n/a	-999	12	[0, 0, 0]	n/a	FR1	0	R1375C
1475.147	4.499	1511844	REC_START	n/a	n/a	n/a	-999	12	[0, 0, 0]	n/a	FR1	0	R1375C
1479.646	1.186	1516349	REC_WORD	1.186	n/a	TAIL	4	12	[0, 0, 0]	n/a	FR1	0	R1375C
1480.832	4.716	1517535	REC_WORD	4.716	n/a	TREE	-999	12	[0, 0, 0]	n/a	FR1	0	R1375C
1485.548	0.634	1522251	REC_WORD	0.634	n/a	FUR	-999	12	[0, 0, 0]	n/a	FR1	0	R1375C
1486.182	19.237	1522885	REC_WORD	19.237	n/a	FOX	-999	12	[0, 0, 0]	n/a	FR1	0	R1375C
1505.419	0.0	1542127	REC_END	n/a	n/a	n/a	-999	12	[0, 0, 0]	n/a	FR1	0	R1375C
