onset	duration	sample	trial_type	response_time	stim_file	item_name	serialpos	list	test	answer	experiment	session	subject
0.0	0.24	-1	Logging	n/a	n/a	n/a	-999	25	[0, 0, 0]	n/a	FR1	0	R1350D
0.24	0.005	-1	INSTRUCT_START	n/a	n/a	n/a	-999	-999	[0, 0, 0]	n/a	FR1	0	R1350D
0.245	507.016	-1	Logging	n/a	n/a	n/a	-999	-999	[0, 0, 0]	n/a	FR1	0	R1350D
507.261	0.0	462380	MIC	n/a	n/a	n/a	-999	-999	[0, 0, 0]	n/a	FR1	0	R1350D
507.261	0.0	462380	WAITING_START	n/a	n/a	n/a	-999	-1	[0, 0, 0]	n/a	FR1	0	R1350D
507.261	0.0	462380	TRIAL	n/a	n/a	n/a	-999	-1	[0, 0, 0]	n/a	FR1	0	R1350D
507.261	0.0	462380	INSTRUCT_END	n/a	n/a	n/a	-999	-999	[0, 0, 0]	n/a	FR1	0	R1350D
507.261	0.0	462380	MIC	n/a	n/a	n/a	-999	-999	[0, 0, 0]	n/a	FR1	0	R1350D
507.261	921.785	462380	TRIAL_START	n/a	n/a	n/a	-999	-1	[0, 0, 0]	n/a	FR1	0	R1350D
1429.046	0.0	1384117	COUNTDOWN_START	n/a	n/a	n/a	-999	-1	[0, 0, 0]	n/a	FR1	0	R1350D
1429.046	0.0	1384117	ORIENT_START	n/a	n/a	n/a	-999	-1	[0, 0, 0]	n/a	FR1	0	R1350D
1429.046	0.0	1384117	WAITING_END	n/a	n/a	n/a	-999	-1	[0, 0, 0]	n/a	FR1	0	R1350D
1429.046	11.687	1384117	COUNTDOWN_END	n/a	n/a	n/a	-999	-1	[0, 0, 0]	n/a	FR1	0	R1350D
1440.733	0.0	1395803	ORIENT_END	n/a	n/a	n/a	-999	-1	[0, 0, 0]	n/a	FR1	0	R1350D
1440.733	1.149	1395803	ENCODING_START	n/a	n/a	n/a	-999	-1	[0, 0, 0]	n/a	FR1	0	R1350D
1441.882	1.634	1396952	WORD	n/a	n/a	FLOOD	1	-1	[0, 0, 0]	n/a	FR1	0	R1350D
1443.516	1.015	1398586	WORD_OFF	n/a	n/a	FLOOD	1	-1	[0, 0, 0]	n/a	FR1	0	R1350D
1444.531	1.635	1399601	WORD	n/a	n/a	IMAGE	2	-1	[0, 0, 0]	n/a	FR1	0	R1350D
1446.166	1.088	1401236	WORD_OFF	n/a	n/a	IMAGE	2	-1	[0, 0, 0]	n/a	FR1	0	R1350D
1447.254	1.614	1402324	WORD	n/a	n/a	WAGON	3	-1	[0, 0, 0]	n/a	FR1	0	R1350D
1448.868	0.868	1403937	WORD_OFF	n/a	n/a	WAGON	3	-1	[0, 0, 0]	n/a	FR1	0	R1350D
1449.736	1.631	1404805	WORD	n/a	n/a	TONGUE	4	-1	[0, 0, 0]	n/a	FR1	0	R1350D
1451.367	1.099	1406436	WORD_OFF	n/a	n/a	TONGUE	4	-1	[0, 0, 0]	n/a	FR1	0	R1350D
1452.466	1.635	1407535	WORD	n/a	n/a	BEAM	5	-1	[0, 0, 0]	n/a	FR1	0	R1350D
1454.101	1.066	1409170	WORD_OFF	n/a	n/a	BEAM	5	-1	[0, 0, 0]	n/a	FR1	0	R1350D
1455.167	1.619	1410236	WORD	n/a	n/a	RING	6	-1	[0, 0, 0]	n/a	FR1	0	R1350D
1456.786	1.042	1411855	WORD_OFF	n/a	n/a	RING	6	-1	[0, 0, 0]	n/a	FR1	0	R1350D
1457.828	1.624	1412897	WORD	n/a	n/a	RHINO	7	-1	[0, 0, 0]	n/a	FR1	0	R1350D
1459.452	0.884	1414521	WORD_OFF	n/a	n/a	RHINO	7	-1	[0, 0, 0]	n/a	FR1	0	R1350D
1460.336	1.617	1415405	WORD	n/a	n/a	WATCH	8	-1	[0, 0, 0]	n/a	FR1	0	R1350D
1461.953	1.111	1417022	WORD_OFF	n/a	n/a	WATCH	8	-1	[0, 0, 0]	n/a	FR1	0	R1350D
1463.064	1.64	1418133	WORD	n/a	n/a	CHEST	9	-1	[0, 0, 0]	n/a	FR1	0	R1350D
1464.704	1.14	1419773	WORD_OFF	n/a	n/a	CHEST	9	-1	[0, 0, 0]	n/a	FR1	0	R1350D
1465.844	1.626	1420913	WORD	n/a	n/a	COTTON	10	-1	[0, 0, 0]	n/a	FR1	0	R1350D
1467.47	0.788	1422539	WORD_OFF	n/a	n/a	COTTON	10	-1	[0, 0, 0]	n/a	FR1	0	R1350D
1468.258	1.613	1423326	WORD	n/a	n/a	BABY	11	-1	[0, 0, 0]	n/a	FR1	0	R1350D
1469.871	1.101	1424939	WORD_OFF	n/a	n/a	BABY	11	-1	[0, 0, 0]	n/a	FR1	0	R1350D
1470.972	1.632	1426040	WORD	n/a	n/a	CAMEL	12	-1	[0, 0, 0]	n/a	FR1	0	R1350D
1472.604	0.0	1427672	WORD_OFF	n/a	n/a	CAMEL	12	-1	[0, 0, 0]	n/a	FR1	0	R1350D
1472.604	0.0	1427672	ENCODING_END	n/a	n/a	n/a	-999	-1	[0, 0, 0]	n/a	FR1	0	R1350D
1472.604	0.001	1427672	DISTRACT_START	n/a	n/a	n/a	-999	-1	[0, 0, 0]	n/a	FR1	0	R1350D
1472.605	0.016	1427673	START	n/a	n/a	n/a	-999	-1	[-999, -999, -999]	n/a	FR1	0	R1350D
1472.621	6.701	1427689	PROB	6.701	n/a	n/a	-999	-1	[7, 6, 5]	16	FR1	0	R1350D
1479.322	4.652	1434390	PROB	4.652	n/a	n/a	-999	-1	[4, 9, 6]	19	FR1	0	R1350D
1483.974	2.967	1439042	PROB	2.967	n/a	n/a	-999	-1	[1, 7, 1]	9	FR1	0	R1350D
1486.941	4.2	1442008	PROB	4.2	n/a	n/a	-999	-1	[9, 3, 2]	14	FR1	0	R1350D
1491.141	5.304	1446208	PROB	5.304	n/a	n/a	-999	-1	[2, 4, 4]	10	FR1	0	R1350D
1496.445	0.014	1451512	STOP	n/a	n/a	n/a	-999	-1	[-999, -999, -999]	n/a	FR1	0	R1350D
1496.459	1.169	1451526	DISTRACT_END	n/a	n/a	n/a	-999	-1	[0, 0, 0]	n/a	FR1	0	R1350D
1497.628	1.031	1452695	RETRIEVAL_ORIENT_START	n/a	n/a	n/a	-999	-1	[0, 0, 0]	n/a	FR1	0	R1350D
1498.659	0.0	1453726	RETRIEVAL_ORIENT_END	n/a	n/a	n/a	-999	-1	[0, 0, 0]	n/a	FR1	0	R1350D
1498.659	3.854	1453726	REC_START	n/a	n/a	n/a	-999	-1	[0, 0, 0]	n/a	FR1	0	R1350D
1502.513	26.659	1457580	REC_WORD_VV	26.659	n/a	<>	-999	-1	[0, 0, 0]	n/a	FR1	0	R1350D
1529.172	0.0	1484237	PRACTICE_POST_INSTRUCT_START	n/a	n/a	n/a	-999	-1	[0, 0, 0]	n/a	FR1	0	R1350D
1529.172	35.366	1484237	REC_END	n/a	n/a	n/a	-999	-1	[0, 0, 0]	n/a	FR1	0	R1350D
1564.538	0.0	1519601	WAITING_START	n/a	n/a	n/a	-999	1	[0, 0, 0]	n/a	FR1	0	R1350D
1564.538	0.0	1519601	TRIAL	n/a	n/a	n/a	-999	1	[0, 0, 0]	n/a	FR1	0	R1350D
1564.538	0.0	1519601	PRACTICE_POST_INSTRUCT_END	n/a	n/a	n/a	-999	-1	[0, 0, 0]	n/a	FR1	0	R1350D
1564.538	0.0	1519601	TRIAL_END	n/a	n/a	n/a	-999	-1	[0, 0, 0]	n/a	FR1	0	R1350D
1564.538	1.85	1519601	TRIAL_START	n/a	n/a	n/a	-999	1	[0, 0, 0]	n/a	FR1	0	R1350D
1566.388	0.0	1521451	WAITING_END	n/a	n/a	n/a	-999	1	[0, 0, 0]	n/a	FR1	0	R1350D
1566.388	0.0	1521451	COUNTDOWN_START	n/a	n/a	n/a	-999	1	[0, 0, 0]	n/a	FR1	0	R1350D
1566.388	0.0	1521451	COUNTDOWN_END	n/a	n/a	n/a	-999	1	[0, 0, 0]	n/a	FR1	0	R1350D
1566.388	11.619	1521451	ORIENT_START	n/a	n/a	n/a	-999	1	[0, 0, 0]	n/a	FR1	0	R1350D
1578.007	0.0	1533070	ORIENT_END	n/a	n/a	n/a	-999	1	[0, 0, 0]	n/a	FR1	0	R1350D
1578.007	0.761	1533070	ENCODING_START	n/a	n/a	n/a	-999	1	[0, 0, 0]	n/a	FR1	0	R1350D
1578.768	1.623	1533831	WORD	n/a	n/a	HEN	1	1	[0, 0, 0]	n/a	FR1	0	R1350D
1580.391	0.839	1535454	WORD_OFF	n/a	n/a	HEN	1	1	[0, 0, 0]	n/a	FR1	0	R1350D
1581.23	1.629	1536293	WORD	n/a	n/a	BEE	2	1	[0, 0, 0]	n/a	FR1	0	R1350D
1582.859	0.889	1537921	WORD_OFF	n/a	n/a	BEE	2	1	[0, 0, 0]	n/a	FR1	0	R1350D
1583.748	1.627	1538810	WORD	n/a	n/a	COUCH	3	1	[0, 0, 0]	n/a	FR1	0	R1350D
1585.375	1.072	1540437	WORD_OFF	n/a	n/a	COUCH	3	1	[0, 0, 0]	n/a	FR1	0	R1350D
1586.447	1.628	1541509	WORD	n/a	n/a	TOY	4	1	[0, 0, 0]	n/a	FR1	0	R1350D
1588.075	0.855	1543137	WORD_OFF	n/a	n/a	TOY	4	1	[0, 0, 0]	n/a	FR1	0	R1350D
1588.93	1.629	1543992	WORD	n/a	n/a	JAIL	5	1	[0, 0, 0]	n/a	FR1	0	R1350D
1590.559	0.847	1545621	WORD_OFF	n/a	n/a	JAIL	5	1	[0, 0, 0]	n/a	FR1	0	R1350D
1591.406	1.637	1546468	WORD	n/a	n/a	STOOL	6	1	[0, 0, 0]	n/a	FR1	0	R1350D
1593.043	1.109	1548105	WORD_OFF	n/a	n/a	STOOL	6	1	[0, 0, 0]	n/a	FR1	0	R1350D
1594.152	1.626	1549214	WORD	n/a	n/a	SCHOOL	7	1	[0, 0, 0]	n/a	FR1	0	R1350D
1595.778	0.803	1550840	WORD_OFF	n/a	n/a	SCHOOL	7	1	[0, 0, 0]	n/a	FR1	0	R1350D
1596.581	1.629	1551643	WORD	n/a	n/a	PRINCE	8	1	[0, 0, 0]	n/a	FR1	0	R1350D
1598.21	0.81	1553272	WORD_OFF	n/a	n/a	PRINCE	8	1	[0, 0, 0]	n/a	FR1	0	R1350D
1599.02	1.624	1554082	WORD	n/a	n/a	VAN	9	1	[0, 0, 0]	n/a	FR1	0	R1350D
1600.644	0.871	1555706	WORD_OFF	n/a	n/a	VAN	9	1	[0, 0, 0]	n/a	FR1	0	R1350D
1601.515	1.63	1556577	WORD	n/a	n/a	STAIR	10	1	[0, 0, 0]	n/a	FR1	0	R1350D
1603.145	0.945	1558206	WORD_OFF	n/a	n/a	STAIR	10	1	[0, 0, 0]	n/a	FR1	0	R1350D
1604.09	1.606	1559151	WORD	n/a	n/a	MULE	11	1	[0, 0, 0]	n/a	FR1	0	R1350D
1605.696	0.934	1560757	WORD_OFF	n/a	n/a	MULE	11	1	[0, 0, 0]	n/a	FR1	0	R1350D
1606.63	1.632	1561691	WORD	n/a	n/a	CLOCK	12	1	[0, 0, 0]	n/a	FR1	0	R1350D
1608.262	0.0	1563323	DISTRACT_START	n/a	n/a	n/a	-999	1	[0, 0, 0]	n/a	FR1	0	R1350D
1608.262	0.0	1563323	WORD_OFF	n/a	n/a	CLOCK	12	1	[0, 0, 0]	n/a	FR1	0	R1350D
1608.262	0.002	1563323	ENCODING_END	n/a	n/a	n/a	-999	1	[0, 0, 0]	n/a	FR1	0	R1350D
1608.264	0.015	1563325	START	n/a	n/a	n/a	-999	1	[-999, -999, -999]	n/a	FR1	0	R1350D
1608.279	4.951	1563340	PROB	4.951	n/a	n/a	-999	1	[1, 3, 3]	5	FR1	0	R1350D
1613.23	5.502	1568291	PROB	5.502	n/a	n/a	-999	1	[5, 8, 8]	21	FR1	0	R1350D
1618.732	3.95	1573793	PROB	3.95	n/a	n/a	-999	1	[8, 3, 5]	16	FR1	0	R1350D
1622.682	4.118	1577742	PROB	4.118	n/a	n/a	-999	1	[9, 3, 9]	21	FR1	0	R1350D
1626.8	4.065	1581860	PROB	4.065	n/a	n/a	-999	1	[9, 2, 3]	14	FR1	0	R1350D
1630.865	0.019	1585925	STOP	n/a	n/a	n/a	-999	1	[-999, -999, -999]	n/a	FR1	0	R1350D
1630.884	1.198	1585944	DISTRACT_END	n/a	n/a	n/a	-999	1	[0, 0, 0]	n/a	FR1	0	R1350D
1632.082	1.035	1587142	RETRIEVAL_ORIENT_START	n/a	n/a	n/a	-999	1	[0, 0, 0]	n/a	FR1	0	R1350D
1633.117	0.0	1588177	REC_START	n/a	n/a	n/a	-999	1	[0, 0, 0]	n/a	FR1	0	R1350D
1633.117	2.187	1588177	RETRIEVAL_ORIENT_END	n/a	n/a	n/a	-999	1	[0, 0, 0]	n/a	FR1	0	R1350D
1635.304	1.287	1590364	REC_WORD	1.287	n/a	HEN	1	1	[0, 0, 0]	n/a	FR1	0	R1350D
1636.591	1.149	1591651	REC_WORD	1.149	n/a	BEE	2	1	[0, 0, 0]	n/a	FR1	0	R1350D
1637.74	1.382	1592800	REC_WORD	1.382	n/a	STOOL	6	1	[0, 0, 0]	n/a	FR1	0	R1350D
1639.122	5.166	1594182	REC_WORD	5.166	n/a	SCHOOL	7	1	[0, 0, 0]	n/a	FR1	0	R1350D
1644.288	19.34	1599347	REC_WORD_VV	19.34	n/a	<>	-999	1	[0, 0, 0]	n/a	FR1	0	R1350D
1663.628	0.0	1618686	REC_END	n/a	n/a	n/a	-999	1	[0, 0, 0]	n/a	FR1	0	R1350D
1663.628	0.0	1618686	TRIAL_END	n/a	n/a	n/a	-999	1	[0, 0, 0]	n/a	FR1	0	R1350D
1663.628	0.0	1618686	TRIAL_START	n/a	n/a	n/a	-999	2	[0, 0, 0]	n/a	FR1	0	R1350D
1663.628	0.0	1618686	TRIAL	n/a	n/a	n/a	-999	2	[0, 0, 0]	n/a	FR1	0	R1350D
1663.628	9.629	1618686	WAITING_START	n/a	n/a	n/a	-999	2	[0, 0, 0]	n/a	FR1	0	R1350D
1673.257	0.0	1628315	WAITING_END	n/a	n/a	n/a	-999	2	[0, 0, 0]	n/a	FR1	0	R1350D
1673.257	0.0	1628315	COUNTDOWN_START	n/a	n/a	n/a	-999	2	[0, 0, 0]	n/a	FR1	0	R1350D
1673.257	0.0	1628315	COUNTDOWN_END	n/a	n/a	n/a	-999	2	[0, 0, 0]	n/a	FR1	0	R1350D
1673.257	11.504	1628315	ORIENT_START	n/a	n/a	n/a	-999	2	[0, 0, 0]	n/a	FR1	0	R1350D
1684.761	0.0	1639818	ENCODING_START	n/a	n/a	n/a	-999	2	[0, 0, 0]	n/a	FR1	0	R1350D
1684.761	1.06	1639818	ORIENT_END	n/a	n/a	n/a	-999	2	[0, 0, 0]	n/a	FR1	0	R1350D
1685.821	1.622	1640878	WORD	n/a	n/a	PLATE	1	2	[0, 0, 0]	n/a	FR1	0	R1350D
1687.443	0.944	1642500	WORD_OFF	n/a	n/a	PLATE	1	2	[0, 0, 0]	n/a	FR1	0	R1350D
1688.387	1.624	1643444	WORD	n/a	n/a	DOLL	2	2	[0, 0, 0]	n/a	FR1	0	R1350D
1690.011	1.065	1645068	WORD_OFF	n/a	n/a	DOLL	2	2	[0, 0, 0]	n/a	FR1	0	R1350D
1691.076	1.636	1646133	WORD	n/a	n/a	VINE	3	2	[0, 0, 0]	n/a	FR1	0	R1350D
1692.712	0.963	1647769	WORD_OFF	n/a	n/a	VINE	3	2	[0, 0, 0]	n/a	FR1	0	R1350D
1693.675	1.636	1648732	WORD	n/a	n/a	MOOSE	4	2	[0, 0, 0]	n/a	FR1	0	R1350D
1695.311	0.901	1650368	WORD_OFF	n/a	n/a	MOOSE	4	2	[0, 0, 0]	n/a	FR1	0	R1350D
1696.212	1.634	1651269	WORD	n/a	n/a	CORN	5	2	[0, 0, 0]	n/a	FR1	0	R1350D
1697.846	0.992	1652902	WORD_OFF	n/a	n/a	CORN	5	2	[0, 0, 0]	n/a	FR1	0	R1350D
1698.838	1.624	1653894	WORD	n/a	n/a	THREAD	6	2	[0, 0, 0]	n/a	FR1	0	R1350D
1700.462	0.762	1655518	WORD_OFF	n/a	n/a	THREAD	6	2	[0, 0, 0]	n/a	FR1	0	R1350D
1701.224	1.623	1656280	WORD	n/a	n/a	BIRD	7	2	[0, 0, 0]	n/a	FR1	0	R1350D
1702.847	1.036	1657903	WORD_OFF	n/a	n/a	BIRD	7	2	[0, 0, 0]	n/a	FR1	0	R1350D
1703.883	1.63	1658939	WORD	n/a	n/a	SHIRT	8	2	[0, 0, 0]	n/a	FR1	0	R1350D
1705.513	0.785	1660569	WORD_OFF	n/a	n/a	SHIRT	8	2	[0, 0, 0]	n/a	FR1	0	R1350D
1706.298	1.616	1661354	WORD	n/a	n/a	BOX	9	2	[0, 0, 0]	n/a	FR1	0	R1350D
1707.914	0.956	1662970	WORD_OFF	n/a	n/a	BOX	9	2	[0, 0, 0]	n/a	FR1	0	R1350D
1708.87	1.628	1663926	WORD	n/a	n/a	TEETH	10	2	[0, 0, 0]	n/a	FR1	0	R1350D
1710.498	0.821	1665554	WORD_OFF	n/a	n/a	TEETH	10	2	[0, 0, 0]	n/a	FR1	0	R1350D
1711.319	1.613	1666375	WORD	n/a	n/a	BARN	11	2	[0, 0, 0]	n/a	FR1	0	R1350D
1712.932	1.033	1667988	WORD_OFF	n/a	n/a	BARN	11	2	[0, 0, 0]	n/a	FR1	0	R1350D
1713.965	1.633	1669021	WORD	n/a	n/a	CHEEK	12	2	[0, 0, 0]	n/a	FR1	0	R1350D
1715.598	0.0	1670654	WORD_OFF	n/a	n/a	CHEEK	12	2	[0, 0, 0]	n/a	FR1	0	R1350D
1715.598	0.0	1670654	ENCODING_END	n/a	n/a	n/a	-999	2	[0, 0, 0]	n/a	FR1	0	R1350D
1715.598	0.001	1670654	DISTRACT_START	n/a	n/a	n/a	-999	2	[0, 0, 0]	n/a	FR1	0	R1350D
1715.599	0.016	1670655	START	n/a	n/a	n/a	-999	2	[-999, -999, -999]	n/a	FR1	0	R1350D
1715.615	4.385	1670671	PROB	4.385	n/a	n/a	-999	2	[4, 8, 6]	18	FR1	0	R1350D
1720.0	3.884	1675055	PROB	3.884	n/a	n/a	-999	2	[9, 7, 9]	25	FR1	0	R1350D
1723.884	3.984	1678939	PROB	3.984	n/a	n/a	-999	2	[6, 8, 7]	22	FR1	0	R1350D
1727.868	5.534	1682923	PROB	5.534	n/a	n/a	-999	2	[7, 9, 6]	22	FR1	0	R1350D
1733.402	6.156	1688457	PROB	6.156	n/a	n/a	-999	2	[8, 3, 8]	21	FR1	0	R1350D
1739.558	0.012	1694612	STOP	n/a	n/a	n/a	-999	2	[-999, -999, -999]	n/a	FR1	0	R1350D
1739.57	1.294	1694624	DISTRACT_END	n/a	n/a	n/a	-999	2	[0, 0, 0]	n/a	FR1	0	R1350D
1740.864	1.024	1695918	RETRIEVAL_ORIENT_START	n/a	n/a	n/a	-999	2	[0, 0, 0]	n/a	FR1	0	R1350D
1741.888	0.0	1696942	RETRIEVAL_ORIENT_END	n/a	n/a	n/a	-999	2	[0, 0, 0]	n/a	FR1	0	R1350D
1741.888	4.801	1696942	REC_START	n/a	n/a	n/a	-999	2	[0, 0, 0]	n/a	FR1	0	R1350D
1746.689	1.369	1701743	REC_WORD	1.369	n/a	DOLL	2	2	[0, 0, 0]	n/a	FR1	0	R1350D
1748.058	0.961	1703112	REC_WORD	0.961	n/a	PLATE	1	2	[0, 0, 0]	n/a	FR1	0	R1350D
1749.019	3.677	1704073	REC_WORD	3.677	n/a	MOOSE	4	2	[0, 0, 0]	n/a	FR1	0	R1350D
1752.696	2.239	1707750	REC_WORD	2.239	n/a	BOX	9	2	[0, 0, 0]	n/a	FR1	0	R1350D
1754.935	7.333	1709988	REC_WORD	7.333	n/a	TEETH	10	2	[0, 0, 0]	n/a	FR1	0	R1350D
1762.268	0.764	1717321	REC_WORD	0.764	n/a	VINE	3	2	[0, 0, 0]	n/a	FR1	0	R1350D
1763.032	9.365	1718085	REC_WORD	9.365	n/a	VINES	-999	2	[0, 0, 0]	n/a	FR1	0	R1350D
1772.397	0.0	1727450	REC_END	n/a	n/a	n/a	-999	2	[0, 0, 0]	n/a	FR1	0	R1350D
1772.397	0.0	1727450	TRIAL_END	n/a	n/a	n/a	-999	2	[0, 0, 0]	n/a	FR1	0	R1350D
1772.397	0.0	1727450	TRIAL_START	n/a	n/a	n/a	-999	3	[0, 0, 0]	n/a	FR1	0	R1350D
1772.397	0.0	1727450	TRIAL	n/a	n/a	n/a	-999	3	[0, 0, 0]	n/a	FR1	0	R1350D
1772.397	2.862	1727450	WAITING_START	n/a	n/a	n/a	-999	3	[0, 0, 0]	n/a	FR1	0	R1350D
1775.259	0.0	1730311	WAITING_END	n/a	n/a	n/a	-999	3	[0, 0, 0]	n/a	FR1	0	R1350D
1775.259	0.0	1730311	COUNTDOWN_START	n/a	n/a	n/a	-999	3	[0, 0, 0]	n/a	FR1	0	R1350D
1775.259	0.0	1730311	COUNTDOWN_END	n/a	n/a	n/a	-999	3	[0, 0, 0]	n/a	FR1	0	R1350D
1775.259	11.47	1730311	ORIENT_START	n/a	n/a	n/a	-999	3	[0, 0, 0]	n/a	FR1	0	R1350D
1786.729	0.0	1741781	ORIENT_END	n/a	n/a	n/a	-999	3	[0, 0, 0]	n/a	FR1	0	R1350D
1786.729	0.938	1741781	ENCODING_START	n/a	n/a	n/a	-999	3	[0, 0, 0]	n/a	FR1	0	R1350D
1787.667	1.628	1742719	WORD	n/a	n/a	KEY	1	3	[0, 0, 0]	n/a	FR1	0	R1350D
1789.295	0.843	1744347	WORD_OFF	n/a	n/a	KEY	1	3	[0, 0, 0]	n/a	FR1	0	R1350D
1790.138	1.609	1745190	WORD	n/a	n/a	HEART	2	3	[0, 0, 0]	n/a	FR1	0	R1350D
1791.747	0.794	1746799	WORD_OFF	n/a	n/a	HEART	2	3	[0, 0, 0]	n/a	FR1	0	R1350D
1792.541	1.622	1747593	WORD	n/a	n/a	HOUSE	3	3	[0, 0, 0]	n/a	FR1	0	R1350D
1794.163	1.052	1749214	WORD_OFF	n/a	n/a	HOUSE	3	3	[0, 0, 0]	n/a	FR1	0	R1350D
1795.215	1.633	1750266	WORD	n/a	n/a	STICK	4	3	[0, 0, 0]	n/a	FR1	0	R1350D
1796.848	0.958	1751899	WORD_OFF	n/a	n/a	STICK	4	3	[0, 0, 0]	n/a	FR1	0	R1350D
1797.806	1.624	1752857	WORD	n/a	n/a	CAKE	5	3	[0, 0, 0]	n/a	FR1	0	R1350D
1799.43	1.145	1754481	WORD_OFF	n/a	n/a	CAKE	5	3	[0, 0, 0]	n/a	FR1	0	R1350D
1800.575	1.639	1755626	WORD	n/a	n/a	SPONGE	6	3	[0, 0, 0]	n/a	FR1	0	R1350D
1802.214	1.056	1757265	WORD_OFF	n/a	n/a	SPONGE	6	3	[0, 0, 0]	n/a	FR1	0	R1350D
1803.27	1.612	1758321	WORD	n/a	n/a	RAIN	7	3	[0, 0, 0]	n/a	FR1	0	R1350D
1804.882	0.991	1759933	WORD_OFF	n/a	n/a	RAIN	7	3	[0, 0, 0]	n/a	FR1	0	R1350D
1805.873	1.626	1760924	WORD	n/a	n/a	CONE	8	3	[0, 0, 0]	n/a	FR1	0	R1350D
1807.499	0.854	1762550	WORD_OFF	n/a	n/a	CONE	8	3	[0, 0, 0]	n/a	FR1	0	R1350D
1808.353	1.613	1763404	WORD	n/a	n/a	TRAY	9	3	[0, 0, 0]	n/a	FR1	0	R1350D
1809.966	0.997	1765017	WORD_OFF	n/a	n/a	TRAY	9	3	[0, 0, 0]	n/a	FR1	0	R1350D
1810.963	1.637	1766014	WORD	n/a	n/a	PEAR	10	3	[0, 0, 0]	n/a	FR1	0	R1350D
1812.6	0.974	1767650	WORD_OFF	n/a	n/a	PEAR	10	3	[0, 0, 0]	n/a	FR1	0	R1350D
1813.574	1.626	1768624	WORD	n/a	n/a	LAMB	11	3	[0, 0, 0]	n/a	FR1	0	R1350D
1815.2	1.139	1770250	WORD_OFF	n/a	n/a	LAMB	11	3	[0, 0, 0]	n/a	FR1	0	R1350D
1816.339	1.629	1771389	WORD	n/a	n/a	AXE	12	3	[0, 0, 0]	n/a	FR1	0	R1350D
1817.968	0.0	1773018	WORD_OFF	n/a	n/a	AXE	12	3	[0, 0, 0]	n/a	FR1	0	R1350D
1817.968	0.0	1773018	ENCODING_END	n/a	n/a	n/a	-999	3	[0, 0, 0]	n/a	FR1	0	R1350D
1817.968	0.001	1773018	DISTRACT_START	n/a	n/a	n/a	-999	3	[0, 0, 0]	n/a	FR1	0	R1350D
1817.969	0.016	1773019	START	n/a	n/a	n/a	-999	3	[-999, -999, -999]	n/a	FR1	0	R1350D
1817.985	4.817	1773035	PROB	4.817	n/a	n/a	-999	3	[3, 8, 7]	18	FR1	0	R1350D
1822.802	3.383	1777852	PROB	3.383	n/a	n/a	-999	3	[3, 1, 5]	9	FR1	0	R1350D
1826.185	3.868	1781235	PROB	3.868	n/a	n/a	-999	3	[2, 5, 5]	12	FR1	0	R1350D
1830.053	4.084	1785103	PROB	4.084	n/a	n/a	-999	3	[4, 8, 6]	18	FR1	0	R1350D
1834.137	4.391	1789186	PROB	4.391	n/a	n/a	-999	3	[6, 3, 7]	16	FR1	0	R1350D
1838.528	0.009	1793577	STOP	n/a	n/a	n/a	-999	3	[-999, -999, -999]	n/a	FR1	0	R1350D
1838.537	1.058	1793586	DISTRACT_END	n/a	n/a	n/a	-999	3	[0, 0, 0]	n/a	FR1	0	R1350D
1839.595	1.026	1794644	RETRIEVAL_ORIENT_START	n/a	n/a	n/a	-999	3	[0, 0, 0]	n/a	FR1	0	R1350D
1840.621	0.0	1795670	RETRIEVAL_ORIENT_END	n/a	n/a	n/a	-999	3	[0, 0, 0]	n/a	FR1	0	R1350D
1840.621	2.999	1795670	REC_START	n/a	n/a	n/a	-999	3	[0, 0, 0]	n/a	FR1	0	R1350D
1843.62	0.96	1798669	REC_WORD	0.96	n/a	KEY	1	3	[0, 0, 0]	n/a	FR1	0	R1350D
1844.58	1.565	1799629	REC_WORD	1.565	n/a	SPONGE	6	3	[0, 0, 0]	n/a	FR1	0	R1350D
1846.145	1.213	1801194	REC_WORD	1.213	n/a	HEART	2	3	[0, 0, 0]	n/a	FR1	0	R1350D
1847.358	6.326	1802407	REC_WORD	6.326	n/a	HOUSE	3	3	[0, 0, 0]	n/a	FR1	0	R1350D
1853.684	0.366	1808732	REC_WORD	0.366	n/a	MOOSE	-999	3	[0, 0, 0]	n/a	FR1	0	R1350D
1854.05	6.492	1809098	REC_WORD_VV	6.492	n/a	<>	-999	3	[0, 0, 0]	n/a	FR1	0	R1350D
1860.542	10.59	1815590	REC_WORD	10.59	n/a	RAIN	7	3	[0, 0, 0]	n/a	FR1	0	R1350D
1871.132	0.0	1826179	REC_END	n/a	n/a	n/a	-999	3	[0, 0, 0]	n/a	FR1	0	R1350D
1871.132	0.0	1826179	TRIAL_END	n/a	n/a	n/a	-999	3	[0, 0, 0]	n/a	FR1	0	R1350D
1871.132	0.0	1826179	TRIAL_START	n/a	n/a	n/a	-999	4	[0, 0, 0]	n/a	FR1	0	R1350D
1871.132	0.0	1826179	TRIAL	n/a	n/a	n/a	-999	4	[0, 0, 0]	n/a	FR1	0	R1350D
1871.132	1.846	1826179	WAITING_START	n/a	n/a	n/a	-999	4	[0, 0, 0]	n/a	FR1	0	R1350D
1872.978	0.0	1828025	ORIENT_START	n/a	n/a	n/a	-999	4	[0, 0, 0]	n/a	FR1	0	R1350D
1872.978	0.0	1828025	COUNTDOWN_START	n/a	n/a	n/a	-999	4	[0, 0, 0]	n/a	FR1	0	R1350D
1872.978	0.0	1828025	WAITING_END	n/a	n/a	n/a	-999	4	[0, 0, 0]	n/a	FR1	0	R1350D
1872.978	11.534	1828025	COUNTDOWN_END	n/a	n/a	n/a	-999	4	[0, 0, 0]	n/a	FR1	0	R1350D
1884.512	0.0	1839559	ENCODING_START	n/a	n/a	n/a	-999	4	[0, 0, 0]	n/a	FR1	0	R1350D
1884.512	1.064	1839559	ORIENT_END	n/a	n/a	n/a	-999	4	[0, 0, 0]	n/a	FR1	0	R1350D
1885.576	1.637	1840623	WORD	n/a	n/a	DART	1	4	[0, 0, 0]	n/a	FR1	0	R1350D
1887.213	0.859	1842260	WORD_OFF	n/a	n/a	DART	1	4	[0, 0, 0]	n/a	FR1	0	R1350D
1888.072	1.626	1843119	WORD	n/a	n/a	SPOON	2	4	[0, 0, 0]	n/a	FR1	0	R1350D
1889.698	1.003	1844744	WORD_OFF	n/a	n/a	SPOON	2	4	[0, 0, 0]	n/a	FR1	0	R1350D
1890.701	1.63	1845747	WORD	n/a	n/a	FLAME	3	4	[0, 0, 0]	n/a	FR1	0	R1350D
1892.331	0.845	1847377	WORD_OFF	n/a	n/a	FLAME	3	4	[0, 0, 0]	n/a	FR1	0	R1350D
1893.176	1.622	1848222	WORD	n/a	n/a	SOCK	4	4	[0, 0, 0]	n/a	FR1	0	R1350D
1894.798	0.842	1849844	WORD_OFF	n/a	n/a	SOCK	4	4	[0, 0, 0]	n/a	FR1	0	R1350D
1895.64	1.625	1850686	WORD	n/a	n/a	YARD	5	4	[0, 0, 0]	n/a	FR1	0	R1350D
1897.265	1.017	1852311	WORD_OFF	n/a	n/a	YARD	5	4	[0, 0, 0]	n/a	FR1	0	R1350D
1898.282	1.618	1853328	WORD	n/a	n/a	DOOR	6	4	[0, 0, 0]	n/a	FR1	0	R1350D
1899.9	0.971	1854946	WORD_OFF	n/a	n/a	DOOR	6	4	[0, 0, 0]	n/a	FR1	0	R1350D
1900.871	1.628	1855917	WORD	n/a	n/a	DIME	7	4	[0, 0, 0]	n/a	FR1	0	R1350D
1902.499	0.929	1857545	WORD_OFF	n/a	n/a	DIME	7	4	[0, 0, 0]	n/a	FR1	0	R1350D
1903.428	1.622	1858474	WORD	n/a	n/a	WALL	8	4	[0, 0, 0]	n/a	FR1	0	R1350D
1905.05	1.116	1860096	WORD_OFF	n/a	n/a	WALL	8	4	[0, 0, 0]	n/a	FR1	0	R1350D
1906.166	1.635	1861212	WORD	n/a	n/a	LOCK	9	4	[0, 0, 0]	n/a	FR1	0	R1350D
1907.801	1.116	1862846	WORD_OFF	n/a	n/a	LOCK	9	4	[0, 0, 0]	n/a	FR1	0	R1350D
1908.917	1.634	1863962	WORD	n/a	n/a	WORM	10	4	[0, 0, 0]	n/a	FR1	0	R1350D
1910.551	0.795	1865596	WORD_OFF	n/a	n/a	WORM	10	4	[0, 0, 0]	n/a	FR1	0	R1350D
1911.346	1.623	1866391	WORD	n/a	n/a	SKI	11	4	[0, 0, 0]	n/a	FR1	0	R1350D
1912.969	0.966	1868014	WORD_OFF	n/a	n/a	SKI	11	4	[0, 0, 0]	n/a	FR1	0	R1350D
1913.935	1.633	1868980	WORD	n/a	n/a	BEAR	12	4	[0, 0, 0]	n/a	FR1	0	R1350D
1915.568	0.0	1870613	WORD_OFF	n/a	n/a	BEAR	12	4	[0, 0, 0]	n/a	FR1	0	R1350D
1915.568	0.0	1870613	ENCODING_END	n/a	n/a	n/a	-999	4	[0, 0, 0]	n/a	FR1	0	R1350D
1915.568	0.002	1870613	DISTRACT_START	n/a	n/a	n/a	-999	4	[0, 0, 0]	n/a	FR1	0	R1350D
1915.57	0.015	1870615	START	n/a	n/a	n/a	-999	4	[-999, -999, -999]	n/a	FR1	0	R1350D
1915.585	6.418	1870630	PROB	6.418	n/a	n/a	-999	4	[4, 7, 3]	14	FR1	0	R1350D
1922.003	3.818	1877048	PROB	3.818	n/a	n/a	-999	4	[2, 5, 5]	12	FR1	0	R1350D
1925.821	3.466	1880866	PROB	3.466	n/a	n/a	-999	4	[7, 8, 2]	17	FR1	0	R1350D
1929.287	3.184	1884331	PROB	3.184	n/a	n/a	-999	4	[4, 6, 6]	16	FR1	0	R1350D
1932.471	4.174	1887515	PROB	4.174	n/a	n/a	-999	4	[1, 7, 3]	11	FR1	0	R1350D
1936.645	0.01	1891689	STOP	n/a	n/a	n/a	-999	4	[-999, -999, -999]	n/a	FR1	0	R1350D
1936.655	1.286	1891699	DISTRACT_END	n/a	n/a	n/a	-999	4	[0, 0, 0]	n/a	FR1	0	R1350D
1937.941	1.032	1892985	RETRIEVAL_ORIENT_START	n/a	n/a	n/a	-999	4	[0, 0, 0]	n/a	FR1	0	R1350D
1938.973	0.0	1894017	RETRIEVAL_ORIENT_END	n/a	n/a	n/a	-999	4	[0, 0, 0]	n/a	FR1	0	R1350D
1938.973	3.591	1894017	REC_START	n/a	n/a	n/a	-999	4	[0, 0, 0]	n/a	FR1	0	R1350D
1942.564	0.922	1897608	REC_WORD	0.922	n/a	WORM	10	4	[0, 0, 0]	n/a	FR1	0	R1350D
1943.486	2.398	1898530	REC_WORD	2.398	n/a	SKI	11	4	[0, 0, 0]	n/a	FR1	0	R1350D
1945.884	2.184	1900927	REC_WORD	2.184	n/a	BEAR	12	4	[0, 0, 0]	n/a	FR1	0	R1350D
1948.068	2.799	1903111	REC_WORD	2.799	n/a	DART	1	4	[0, 0, 0]	n/a	FR1	0	R1350D
1950.867	3.802	1905910	REC_WORD_VV	3.802	n/a	<>	-999	4	[0, 0, 0]	n/a	FR1	0	R1350D
1954.669	2.68	1909712	REC_WORD	2.68	n/a	SPOON	2	4	[0, 0, 0]	n/a	FR1	0	R1350D
1957.349	7.748	1912392	REC_WORD	7.748	n/a	YARD	5	4	[0, 0, 0]	n/a	FR1	0	R1350D
1965.097	1.518	1920139	REC_WORD	1.518	n/a	FIRE	-999	4	[0, 0, 0]	n/a	FR1	0	R1350D
1966.615	2.87	1921657	REC_WORD	2.87	n/a	FLAME	3	4	[0, 0, 0]	n/a	FR1	0	R1350D
1969.485	0.0	1924527	REC_END	n/a	n/a	n/a	-999	4	[0, 0, 0]	n/a	FR1	0	R1350D
1969.485	0.0	1924527	TRIAL_END	n/a	n/a	n/a	-999	4	[0, 0, 0]	n/a	FR1	0	R1350D
1969.485	0.0	1924527	TRIAL_START	n/a	n/a	n/a	-999	5	[0, 0, 0]	n/a	FR1	0	R1350D
1969.485	0.0	1924527	TRIAL	n/a	n/a	n/a	-999	5	[0, 0, 0]	n/a	FR1	0	R1350D
1969.485	1.91	1924527	WAITING_START	n/a	n/a	n/a	-999	5	[0, 0, 0]	n/a	FR1	0	R1350D
1971.395	0.0	1926437	WAITING_END	n/a	n/a	n/a	-999	5	[0, 0, 0]	n/a	FR1	0	R1350D
1971.395	0.0	1926437	COUNTDOWN_START	n/a	n/a	n/a	-999	5	[0, 0, 0]	n/a	FR1	0	R1350D
1971.395	0.0	1926437	COUNTDOWN_END	n/a	n/a	n/a	-999	5	[0, 0, 0]	n/a	FR1	0	R1350D
1971.395	11.603	1926437	ORIENT_START	n/a	n/a	n/a	-999	5	[0, 0, 0]	n/a	FR1	0	R1350D
1982.998	0.0	1938040	ORIENT_END	n/a	n/a	n/a	-999	5	[0, 0, 0]	n/a	FR1	0	R1350D
1982.998	0.958	1938040	ENCODING_START	n/a	n/a	n/a	-999	5	[0, 0, 0]	n/a	FR1	0	R1350D
1983.956	1.625	1938997	WORD	n/a	n/a	PALM	1	5	[0, 0, 0]	n/a	FR1	0	R1350D
1985.581	0.989	1940622	WORD_OFF	n/a	n/a	PALM	1	5	[0, 0, 0]	n/a	FR1	0	R1350D
1986.57	1.628	1941611	WORD	n/a	n/a	SEAT	2	5	[0, 0, 0]	n/a	FR1	0	R1350D
1988.198	1.132	1943239	WORD_OFF	n/a	n/a	SEAT	2	5	[0, 0, 0]	n/a	FR1	0	R1350D
1989.33	1.62	1944371	WORD	n/a	n/a	POLE	3	5	[0, 0, 0]	n/a	FR1	0	R1350D
1990.95	1.131	1945991	WORD_OFF	n/a	n/a	POLE	3	5	[0, 0, 0]	n/a	FR1	0	R1350D
1992.081	1.636	1947122	WORD	n/a	n/a	LIP	4	5	[0, 0, 0]	n/a	FR1	0	R1350D
1993.717	1.022	1948758	WORD_OFF	n/a	n/a	LIP	4	5	[0, 0, 0]	n/a	FR1	0	R1350D
1994.739	1.627	1949780	WORD	n/a	n/a	BOY	5	5	[0, 0, 0]	n/a	FR1	0	R1350D
1996.366	0.818	1951407	WORD_OFF	n/a	n/a	BOY	5	5	[0, 0, 0]	n/a	FR1	0	R1350D
1997.184	1.634	1952225	WORD	n/a	n/a	FUDGE	6	5	[0, 0, 0]	n/a	FR1	0	R1350D
1998.818	1.013	1953859	WORD_OFF	n/a	n/a	FUDGE	6	5	[0, 0, 0]	n/a	FR1	0	R1350D
1999.831	1.62	1954872	WORD	n/a	n/a	HILL	7	5	[0, 0, 0]	n/a	FR1	0	R1350D
2001.451	0.907	1956492	WORD_OFF	n/a	n/a	HILL	7	5	[0, 0, 0]	n/a	FR1	0	R1350D
2002.358	1.611	1957399	WORD	n/a	n/a	FISH	8	5	[0, 0, 0]	n/a	FR1	0	R1350D
2003.969	0.847	1959009	WORD_OFF	n/a	n/a	FISH	8	5	[0, 0, 0]	n/a	FR1	0	R1350D
2004.816	1.635	1959856	WORD	n/a	n/a	STORM	9	5	[0, 0, 0]	n/a	FR1	0	R1350D
2006.451	0.891	1961491	WORD_OFF	n/a	n/a	STORM	9	5	[0, 0, 0]	n/a	FR1	0	R1350D
2007.342	1.628	1962382	WORD	n/a	n/a	OAR	10	5	[0, 0, 0]	n/a	FR1	0	R1350D
2008.97	1.073	1964010	WORD_OFF	n/a	n/a	OAR	10	5	[0, 0, 0]	n/a	FR1	0	R1350D
2010.043	1.626	1965083	WORD	n/a	n/a	BAT	11	5	[0, 0, 0]	n/a	FR1	0	R1350D
2011.669	0.9	1966709	WORD_OFF	n/a	n/a	BAT	11	5	[0, 0, 0]	n/a	FR1	0	R1350D
2012.569	1.634	1967609	WORD	n/a	n/a	HOSE	12	5	[0, 0, 0]	n/a	FR1	0	R1350D
2014.203	0.0	1969243	ENCODING_END	n/a	n/a	n/a	-999	5	[0, 0, 0]	n/a	FR1	0	R1350D
2014.203	0.0	1969243	DISTRACT_START	n/a	n/a	n/a	-999	5	[0, 0, 0]	n/a	FR1	0	R1350D
2014.203	0.001	1969243	WORD_OFF	n/a	n/a	HOSE	12	5	[0, 0, 0]	n/a	FR1	0	R1350D
2014.204	0.016	1969244	START	n/a	n/a	n/a	-999	5	[-999, -999, -999]	n/a	FR1	0	R1350D
2014.22	5.901	1969260	PROB	5.901	n/a	n/a	-999	5	[1, 9, 2]	12	FR1	0	R1350D
2020.121	3.718	1975161	PROB	3.718	n/a	n/a	-999	5	[8, 6, 6]	20	FR1	0	R1350D
2023.839	2.733	1978878	PROB	2.733	n/a	n/a	-999	5	[5, 4, 4]	13	FR1	0	R1350D
2026.572	3.7	1981611	PROB	3.7	n/a	n/a	-999	5	[4, 3, 7]	14	FR1	0	R1350D
2030.272	3.151	1985311	PROB	3.151	n/a	n/a	-999	5	[1, 8, 7]	16	FR1	0	R1350D
2033.423	4.624	1988462	PROB	4.624	n/a	n/a	-999	5	[3, 4, 4]	11	FR1	0	R1350D
2038.047	0.01	1993086	STOP	n/a	n/a	n/a	-999	5	[-999, -999, -999]	n/a	FR1	0	R1350D
2038.057	1.125	1993096	DISTRACT_END	n/a	n/a	n/a	-999	5	[0, 0, 0]	n/a	FR1	0	R1350D
2039.182	1.026	1994221	RETRIEVAL_ORIENT_START	n/a	n/a	n/a	-999	5	[0, 0, 0]	n/a	FR1	0	R1350D
2040.208	0.0	1995247	RETRIEVAL_ORIENT_END	n/a	n/a	n/a	-999	5	[0, 0, 0]	n/a	FR1	0	R1350D
2040.208	3.016	1995247	REC_START	n/a	n/a	n/a	-999	5	[0, 0, 0]	n/a	FR1	0	R1350D
2043.224	0.7	1998262	REC_WORD	0.7	n/a	OAR	10	5	[0, 0, 0]	n/a	FR1	0	R1350D
2043.924	0.779	1998962	REC_WORD_VV	0.779	n/a	<>	-999	5	[0, 0, 0]	n/a	FR1	0	R1350D
2044.703	4.359	1999741	REC_WORD	4.359	n/a	OAR	10	5	[0, 0, 0]	n/a	FR1	0	R1350D
2049.062	8.467	2004100	REC_WORD	8.467	n/a	STORM	9	5	[0, 0, 0]	n/a	FR1	0	R1350D
2057.529	0.276	2012567	REC_WORD_VV	0.276	n/a	<>	-999	5	[0, 0, 0]	n/a	FR1	0	R1350D
2057.805	12.914	2012843	REC_WORD	12.914	n/a	BOAT	-999	5	[0, 0, 0]	n/a	FR1	0	R1350D
2070.719	0.0	2025756	TRIAL	n/a	n/a	n/a	-999	6	[0, 0, 0]	n/a	FR1	0	R1350D
2070.719	0.0	2025756	WAITING_START	n/a	n/a	n/a	-999	6	[0, 0, 0]	n/a	FR1	0	R1350D
2070.719	0.0	2025756	TRIAL_START	n/a	n/a	n/a	-999	6	[0, 0, 0]	n/a	FR1	0	R1350D
2070.719	0.0	2025756	REC_END	n/a	n/a	n/a	-999	5	[0, 0, 0]	n/a	FR1	0	R1350D
2070.719	31.35	2025756	TRIAL_END	n/a	n/a	n/a	-999	5	[0, 0, 0]	n/a	FR1	0	R1350D
2102.069	0.0	2057104	WAITING_END	n/a	n/a	n/a	-999	6	[0, 0, 0]	n/a	FR1	0	R1350D
2102.069	0.0	2057104	COUNTDOWN_START	n/a	n/a	n/a	-999	6	[0, 0, 0]	n/a	FR1	0	R1350D
2102.069	0.0	2057104	COUNTDOWN_END	n/a	n/a	n/a	-999	6	[0, 0, 0]	n/a	FR1	0	R1350D
2102.069	11.67	2057104	ORIENT_START	n/a	n/a	n/a	-999	6	[0, 0, 0]	n/a	FR1	0	R1350D
2113.739	0.0	2068774	ORIENT_END	n/a	n/a	n/a	-999	6	[0, 0, 0]	n/a	FR1	0	R1350D
2113.739	0.981	2068774	ENCODING_START	n/a	n/a	n/a	-999	6	[0, 0, 0]	n/a	FR1	0	R1350D
2114.72	1.635	2069755	WORD	n/a	n/a	MILK	1	6	[0, 0, 0]	n/a	FR1	0	R1350D
2116.355	0.828	2071390	WORD_OFF	n/a	n/a	MILK	1	6	[0, 0, 0]	n/a	FR1	0	R1350D
2117.183	1.623	2072218	WORD	n/a	n/a	MOUTH	2	6	[0, 0, 0]	n/a	FR1	0	R1350D
2118.806	0.836	2073840	WORD_OFF	n/a	n/a	MOUTH	2	6	[0, 0, 0]	n/a	FR1	0	R1350D
2119.642	1.63	2074676	WORD	n/a	n/a	CANE	3	6	[0, 0, 0]	n/a	FR1	0	R1350D
2121.272	1.077	2076306	WORD_OFF	n/a	n/a	CANE	3	6	[0, 0, 0]	n/a	FR1	0	R1350D
2122.349	1.625	2077383	WORD	n/a	n/a	ROCK	4	6	[0, 0, 0]	n/a	FR1	0	R1350D
2123.974	1.133	2079008	WORD_OFF	n/a	n/a	ROCK	4	6	[0, 0, 0]	n/a	FR1	0	R1350D
2125.107	1.634	2080141	WORD	n/a	n/a	APE	5	6	[0, 0, 0]	n/a	FR1	0	R1350D
2126.741	0.968	2081775	WORD_OFF	n/a	n/a	APE	5	6	[0, 0, 0]	n/a	FR1	0	R1350D
2127.709	1.631	2082743	WORD	n/a	n/a	FOAM	6	6	[0, 0, 0]	n/a	FR1	0	R1350D
2129.34	0.833	2084374	WORD_OFF	n/a	n/a	FOAM	6	6	[0, 0, 0]	n/a	FR1	0	R1350D
2130.173	1.636	2085207	WORD	n/a	n/a	CUP	7	6	[0, 0, 0]	n/a	FR1	0	R1350D
2131.809	1.07	2086843	WORD_OFF	n/a	n/a	CUP	7	6	[0, 0, 0]	n/a	FR1	0	R1350D
2132.879	1.629	2087913	WORD	n/a	n/a	BRICK	8	6	[0, 0, 0]	n/a	FR1	0	R1350D
2134.508	0.871	2089542	WORD_OFF	n/a	n/a	BRICK	8	6	[0, 0, 0]	n/a	FR1	0	R1350D
2135.379	1.63	2090413	WORD	n/a	n/a	SMOKE	9	6	[0, 0, 0]	n/a	FR1	0	R1350D
2137.009	0.855	2092042	WORD_OFF	n/a	n/a	SMOKE	9	6	[0, 0, 0]	n/a	FR1	0	R1350D
2137.864	1.628	2092897	WORD	n/a	n/a	ELF	10	6	[0, 0, 0]	n/a	FR1	0	R1350D
2139.492	0.911	2094525	WORD_OFF	n/a	n/a	ELF	10	6	[0, 0, 0]	n/a	FR1	0	R1350D
2140.403	1.623	2095436	WORD	n/a	n/a	BED	11	6	[0, 0, 0]	n/a	FR1	0	R1350D
2142.026	0.869	2097059	WORD_OFF	n/a	n/a	BED	11	6	[0, 0, 0]	n/a	FR1	0	R1350D
2142.895	1.632	2097928	WORD	n/a	n/a	WOLF	12	6	[0, 0, 0]	n/a	FR1	0	R1350D
2144.527	0.0	2099560	WORD_OFF	n/a	n/a	WOLF	12	6	[0, 0, 0]	n/a	FR1	0	R1350D
2144.527	0.0	2099560	ENCODING_END	n/a	n/a	n/a	-999	6	[0, 0, 0]	n/a	FR1	0	R1350D
2144.527	0.001	2099560	DISTRACT_START	n/a	n/a	n/a	-999	6	[0, 0, 0]	n/a	FR1	0	R1350D
2144.528	0.015	2099561	START	n/a	n/a	n/a	-999	6	[-999, -999, -999]	n/a	FR1	0	R1350D
2144.543	4.219	2099576	PROB	4.219	n/a	n/a	-999	6	[5, 4, 9]	18	FR1	0	R1350D
2148.762	4.266	2103795	PROB	4.266	n/a	n/a	-999	6	[6, 6, 4]	16	FR1	0	R1350D
2153.028	3.117	2108061	PROB	3.117	n/a	n/a	-999	6	[2, 6, 2]	10	FR1	0	R1350D
2156.145	3.068	2111177	PROB	3.068	n/a	n/a	-999	6	[7, 3, 3]	13	FR1	0	R1350D
2159.213	4.117	2114245	PROB	4.117	n/a	n/a	-999	6	[4, 7, 7]	18	FR1	0	R1350D
2163.33	4.033	2118362	PROB	4.033	n/a	n/a	-999	6	[8, 7, 3]	18	FR1	0	R1350D
2167.363	0.018	2122395	STOP	n/a	n/a	n/a	-999	6	[-999, -999, -999]	n/a	FR1	0	R1350D
2167.381	1.246	2122413	DISTRACT_END	n/a	n/a	n/a	-999	6	[0, 0, 0]	n/a	FR1	0	R1350D
2168.627	1.021	2123659	RETRIEVAL_ORIENT_START	n/a	n/a	n/a	-999	6	[0, 0, 0]	n/a	FR1	0	R1350D
2169.648	0.0	2124680	REC_START	n/a	n/a	n/a	-999	6	[0, 0, 0]	n/a	FR1	0	R1350D
2169.648	2.836	2124680	RETRIEVAL_ORIENT_END	n/a	n/a	n/a	-999	6	[0, 0, 0]	n/a	FR1	0	R1350D
2172.484	1.502	2127516	REC_WORD	1.502	n/a	BRICK	8	6	[0, 0, 0]	n/a	FR1	0	R1350D
2173.986	1.231	2129018	REC_WORD	1.231	n/a	APE	5	6	[0, 0, 0]	n/a	FR1	0	R1350D
2175.217	1.837	2130248	REC_WORD	1.837	n/a	MILK	1	6	[0, 0, 0]	n/a	FR1	0	R1350D
2177.054	1.534	2132085	REC_WORD	1.534	n/a	MOUTH	2	6	[0, 0, 0]	n/a	FR1	0	R1350D
2178.588	15.575	2133619	REC_WORD	15.575	n/a	FOAM	6	6	[0, 0, 0]	n/a	FR1	0	R1350D
2194.163	1.062	2149193	REC_WORD_VV	1.062	n/a	<>	-999	6	[0, 0, 0]	n/a	FR1	0	R1350D
2195.225	4.936	2150255	REC_WORD	4.936	n/a	APE	5	6	[0, 0, 0]	n/a	FR1	0	R1350D
2200.161	0.0	2155191	REC_END	n/a	n/a	n/a	-999	6	[0, 0, 0]	n/a	FR1	0	R1350D
2200.161	0.0	2155191	TRIAL_START	n/a	n/a	n/a	-999	7	[0, 0, 0]	n/a	FR1	0	R1350D
2200.161	0.0	2155191	TRIAL	n/a	n/a	n/a	-999	7	[0, 0, 0]	n/a	FR1	0	R1350D
2200.161	0.0	2155191	WAITING_START	n/a	n/a	n/a	-999	7	[0, 0, 0]	n/a	FR1	0	R1350D
2200.161	1.694	2155191	TRIAL_END	n/a	n/a	n/a	-999	6	[0, 0, 0]	n/a	FR1	0	R1350D
2201.855	0.0	2156885	ORIENT_START	n/a	n/a	n/a	-999	7	[0, 0, 0]	n/a	FR1	0	R1350D
2201.855	0.0	2156885	WAITING_END	n/a	n/a	n/a	-999	7	[0, 0, 0]	n/a	FR1	0	R1350D
2201.855	0.0	2156885	COUNTDOWN_START	n/a	n/a	n/a	-999	7	[0, 0, 0]	n/a	FR1	0	R1350D
2201.855	11.484	2156885	COUNTDOWN_END	n/a	n/a	n/a	-999	7	[0, 0, 0]	n/a	FR1	0	R1350D
2213.339	0.0	2168368	ENCODING_START	n/a	n/a	n/a	-999	7	[0, 0, 0]	n/a	FR1	0	R1350D
2213.339	0.98	2168368	ORIENT_END	n/a	n/a	n/a	-999	7	[0, 0, 0]	n/a	FR1	0	R1350D
2214.319	1.621	2169348	WORD	n/a	n/a	GATE	1	7	[0, 0, 0]	n/a	FR1	0	R1350D
2215.94	0.793	2170969	WORD_OFF	n/a	n/a	GATE	1	7	[0, 0, 0]	n/a	FR1	0	R1350D
2216.733	1.624	2171762	WORD	n/a	n/a	SEED	2	7	[0, 0, 0]	n/a	FR1	0	R1350D
2218.357	0.798	2173386	WORD_OFF	n/a	n/a	SEED	2	7	[0, 0, 0]	n/a	FR1	0	R1350D
2219.155	1.62	2174184	WORD	n/a	n/a	FOOT	3	7	[0, 0, 0]	n/a	FR1	0	R1350D
2220.775	1.005	2175804	WORD_OFF	n/a	n/a	FOOT	3	7	[0, 0, 0]	n/a	FR1	0	R1350D
2221.78	1.628	2176809	WORD	n/a	n/a	FLEA	4	7	[0, 0, 0]	n/a	FR1	0	R1350D
2223.408	0.922	2178437	WORD_OFF	n/a	n/a	FLEA	4	7	[0, 0, 0]	n/a	FR1	0	R1350D
2224.33	1.629	2179359	WORD	n/a	n/a	BEAK	5	7	[0, 0, 0]	n/a	FR1	0	R1350D
2225.959	0.937	2180988	WORD_OFF	n/a	n/a	BEAK	5	7	[0, 0, 0]	n/a	FR1	0	R1350D
2226.896	1.629	2181925	WORD	n/a	n/a	GLOVE	6	7	[0, 0, 0]	n/a	FR1	0	R1350D
2228.525	0.849	2183554	WORD_OFF	n/a	n/a	GLOVE	6	7	[0, 0, 0]	n/a	FR1	0	R1350D
2229.374	1.619	2184403	WORD	n/a	n/a	STOVE	7	7	[0, 0, 0]	n/a	FR1	0	R1350D
2230.993	0.961	2186022	WORD_OFF	n/a	n/a	STOVE	7	7	[0, 0, 0]	n/a	FR1	0	R1350D
2231.954	1.622	2186983	WORD	n/a	n/a	CHIN	8	7	[0, 0, 0]	n/a	FR1	0	R1350D
2233.576	0.796	2188604	WORD_OFF	n/a	n/a	CHIN	8	7	[0, 0, 0]	n/a	FR1	0	R1350D
2234.372	1.606	2189400	WORD	n/a	n/a	RUG	9	7	[0, 0, 0]	n/a	FR1	0	R1350D
2235.978	0.761	2191006	WORD_OFF	n/a	n/a	RUG	9	7	[0, 0, 0]	n/a	FR1	0	R1350D
2236.739	1.621	2191767	WORD	n/a	n/a	SEAL	10	7	[0, 0, 0]	n/a	FR1	0	R1350D
2238.36	0.878	2193388	WORD_OFF	n/a	n/a	SEAL	10	7	[0, 0, 0]	n/a	FR1	0	R1350D
2239.238	1.624	2194266	WORD	n/a	n/a	FARM	11	7	[0, 0, 0]	n/a	FR1	0	R1350D
2240.862	0.797	2195890	WORD_OFF	n/a	n/a	FARM	11	7	[0, 0, 0]	n/a	FR1	0	R1350D
2241.659	1.635	2196687	WORD	n/a	n/a	PANTS	12	7	[0, 0, 0]	n/a	FR1	0	R1350D
2243.294	0.0	2198322	WORD_OFF	n/a	n/a	PANTS	12	7	[0, 0, 0]	n/a	FR1	0	R1350D
2243.294	0.0	2198322	ENCODING_END	n/a	n/a	n/a	-999	7	[0, 0, 0]	n/a	FR1	0	R1350D
2243.294	0.002	2198322	DISTRACT_START	n/a	n/a	n/a	-999	7	[0, 0, 0]	n/a	FR1	0	R1350D
2243.296	0.015	2198324	START	n/a	n/a	n/a	-999	7	[-999, -999, -999]	n/a	FR1	0	R1350D
2243.311	3.652	2198339	PROB	3.652	n/a	n/a	-999	7	[6, 4, 2]	12	FR1	0	R1350D
2246.963	2.183	2201991	PROB	2.183	n/a	n/a	-999	7	[4, 4, 1]	9	FR1	0	R1350D
2249.146	2.933	2204174	PROB	2.933	n/a	n/a	-999	7	[4, 5, 8]	17	FR1	0	R1350D
2252.079	2.534	2207106	PROB	2.534	n/a	n/a	-999	7	[2, 2, 2]	6	FR1	0	R1350D
2254.613	3.369	2209640	PROB	3.369	n/a	n/a	-999	7	[4, 5, 2]	11	FR1	0	R1350D
2257.982	3.699	2213009	PROB	3.699	n/a	n/a	-999	7	[3, 8, 6]	17	FR1	0	R1350D
2261.681	3.976	2216708	PROB	3.976	n/a	n/a	-999	7	[2, 7, 5]	14	FR1	0	R1350D
2265.657	0.008	2220684	STOP	n/a	n/a	n/a	-999	7	[-999, -999, -999]	n/a	FR1	0	R1350D
2265.665	1.276	2220692	DISTRACT_END	n/a	n/a	n/a	-999	7	[0, 0, 0]	n/a	FR1	0	R1350D
2266.941	1.026	2221968	RETRIEVAL_ORIENT_START	n/a	n/a	n/a	-999	7	[0, 0, 0]	n/a	FR1	0	R1350D
2267.967	0.0	2222994	RETRIEVAL_ORIENT_END	n/a	n/a	n/a	-999	7	[0, 0, 0]	n/a	FR1	0	R1350D
2267.967	2.241	2222994	REC_START	n/a	n/a	n/a	-999	7	[0, 0, 0]	n/a	FR1	0	R1350D
2270.208	1.221	2225235	REC_WORD	1.221	n/a	GLOVE	6	7	[0, 0, 0]	n/a	FR1	0	R1350D
2271.429	2.456	2226455	REC_WORD	2.456	n/a	STOVE	7	7	[0, 0, 0]	n/a	FR1	0	R1350D
2273.885	2.993	2228911	REC_WORD	2.993	n/a	CHIN	8	7	[0, 0, 0]	n/a	FR1	0	R1350D
2276.878	21.601	2231904	REC_WORD	21.601	n/a	KNEEL	-999	7	[0, 0, 0]	n/a	FR1	0	R1350D
2298.479	0.0	2253504	WAITING_START	n/a	n/a	n/a	-999	8	[0, 0, 0]	n/a	FR1	0	R1350D
2298.479	0.0	2253504	TRIAL	n/a	n/a	n/a	-999	8	[0, 0, 0]	n/a	FR1	0	R1350D
2298.479	0.0	2253504	TRIAL_END	n/a	n/a	n/a	-999	7	[0, 0, 0]	n/a	FR1	0	R1350D
2298.479	0.0	2253504	TRIAL_START	n/a	n/a	n/a	-999	8	[0, 0, 0]	n/a	FR1	0	R1350D
2298.479	2.444	2253504	REC_END	n/a	n/a	n/a	-999	7	[0, 0, 0]	n/a	FR1	0	R1350D
2300.923	0.0	2255948	ORIENT_START	n/a	n/a	n/a	-999	8	[0, 0, 0]	n/a	FR1	0	R1350D
2300.923	0.0	2255948	WAITING_END	n/a	n/a	n/a	-999	8	[0, 0, 0]	n/a	FR1	0	R1350D
2300.923	0.0	2255948	COUNTDOWN_START	n/a	n/a	n/a	-999	8	[0, 0, 0]	n/a	FR1	0	R1350D
2300.923	11.467	2255948	COUNTDOWN_END	n/a	n/a	n/a	-999	8	[0, 0, 0]	n/a	FR1	0	R1350D
2312.39	0.0	2267414	ORIENT_END	n/a	n/a	n/a	-999	8	[0, 0, 0]	n/a	FR1	0	R1350D
2312.39	0.797	2267414	ENCODING_START	n/a	n/a	n/a	-999	8	[0, 0, 0]	n/a	FR1	0	R1350D
2313.187	1.621	2268211	WORD	n/a	n/a	PEARL	1	8	[0, 0, 0]	n/a	FR1	0	R1350D
2314.808	1.046	2269832	WORD_OFF	n/a	n/a	PEARL	1	8	[0, 0, 0]	n/a	FR1	0	R1350D
2315.854	1.621	2270878	WORD	n/a	n/a	SOUP	2	8	[0, 0, 0]	n/a	FR1	0	R1350D
2317.475	1.086	2272499	WORD_OFF	n/a	n/a	SOUP	2	8	[0, 0, 0]	n/a	FR1	0	R1350D
2318.561	1.631	2273585	WORD	n/a	n/a	PEA	3	8	[0, 0, 0]	n/a	FR1	0	R1350D
2320.192	0.861	2275216	WORD_OFF	n/a	n/a	PEA	3	8	[0, 0, 0]	n/a	FR1	0	R1350D
2321.053	1.623	2276077	WORD	n/a	n/a	SHELL	4	8	[0, 0, 0]	n/a	FR1	0	R1350D
2322.676	0.757	2277700	WORD_OFF	n/a	n/a	SHELL	4	8	[0, 0, 0]	n/a	FR1	0	R1350D
2323.433	1.626	2278457	WORD	n/a	n/a	SQUARE	5	8	[0, 0, 0]	n/a	FR1	0	R1350D
2325.059	1.0	2280083	WORD_OFF	n/a	n/a	SQUARE	5	8	[0, 0, 0]	n/a	FR1	0	R1350D
2326.059	1.635	2281083	WORD	n/a	n/a	COW	6	8	[0, 0, 0]	n/a	FR1	0	R1350D
2327.694	0.871	2282718	WORD_OFF	n/a	n/a	COW	6	8	[0, 0, 0]	n/a	FR1	0	R1350D
2328.565	1.629	2283588	WORD	n/a	n/a	SINK	7	8	[0, 0, 0]	n/a	FR1	0	R1350D
2330.194	0.846	2285217	WORD_OFF	n/a	n/a	SINK	7	8	[0, 0, 0]	n/a	FR1	0	R1350D
2331.04	1.637	2286063	WORD	n/a	n/a	ROOF	8	8	[0, 0, 0]	n/a	FR1	0	R1350D
2332.677	0.941	2287700	WORD_OFF	n/a	n/a	ROOF	8	8	[0, 0, 0]	n/a	FR1	0	R1350D
2333.618	1.627	2288641	WORD	n/a	n/a	SPEAR	9	8	[0, 0, 0]	n/a	FR1	0	R1350D
2335.245	0.952	2290268	WORD_OFF	n/a	n/a	SPEAR	9	8	[0, 0, 0]	n/a	FR1	0	R1350D
2336.197	1.616	2291220	WORD	n/a	n/a	ARM	10	8	[0, 0, 0]	n/a	FR1	0	R1350D
2337.813	1.073	2292836	WORD_OFF	n/a	n/a	ARM	10	8	[0, 0, 0]	n/a	FR1	0	R1350D
2338.886	1.626	2293909	WORD	n/a	n/a	SHOE	11	8	[0, 0, 0]	n/a	FR1	0	R1350D
2340.512	0.819	2295535	WORD_OFF	n/a	n/a	SHOE	11	8	[0, 0, 0]	n/a	FR1	0	R1350D
2341.331	1.633	2296354	WORD	n/a	n/a	CLAY	12	8	[0, 0, 0]	n/a	FR1	0	R1350D
2342.964	0.0	2297987	WORD_OFF	n/a	n/a	CLAY	12	8	[0, 0, 0]	n/a	FR1	0	R1350D
2342.964	0.0	2297987	ENCODING_END	n/a	n/a	n/a	-999	8	[0, 0, 0]	n/a	FR1	0	R1350D
2342.964	0.001	2297987	DISTRACT_START	n/a	n/a	n/a	-999	8	[0, 0, 0]	n/a	FR1	0	R1350D
2342.965	0.015	2297988	START	n/a	n/a	n/a	-999	8	[-999, -999, -999]	n/a	FR1	0	R1350D
2342.98	4.083	2298003	PROB	4.083	n/a	n/a	-999	8	[2, 2, 8]	12	FR1	0	R1350D
2347.063	3.168	2302085	PROB	3.168	n/a	n/a	-999	8	[2, 9, 6]	17	FR1	0	R1350D
2350.231	5.652	2305253	PROB	5.652	n/a	n/a	-999	8	[6, 1, 4]	11	FR1	0	R1350D
2355.883	3.9	2310905	PROB	3.9	n/a	n/a	-999	8	[6, 9, 9]	24	FR1	0	R1350D
2359.783	3.64	2314805	PROB	3.64	n/a	n/a	-999	8	[2, 6, 7]	15	FR1	0	R1350D
2363.423	0.01	2318445	STOP	n/a	n/a	n/a	-999	8	[-999, -999, -999]	n/a	FR1	0	R1350D
2363.433	1.274	2318455	DISTRACT_END	n/a	n/a	n/a	-999	8	[0, 0, 0]	n/a	FR1	0	R1350D
2364.707	1.028	2319729	RETRIEVAL_ORIENT_START	n/a	n/a	n/a	-999	8	[0, 0, 0]	n/a	FR1	0	R1350D
2365.735	0.0	2320757	REC_START	n/a	n/a	n/a	-999	8	[0, 0, 0]	n/a	FR1	0	R1350D
2365.735	4.184	2320757	RETRIEVAL_ORIENT_END	n/a	n/a	n/a	-999	8	[0, 0, 0]	n/a	FR1	0	R1350D
2369.919	11.164	2324940	REC_WORD_VV	11.164	n/a	<>	-999	8	[0, 0, 0]	n/a	FR1	0	R1350D
2381.083	1.681	2336104	REC_WORD	1.681	n/a	CLAY	12	8	[0, 0, 0]	n/a	FR1	0	R1350D
2382.764	4.205	2337785	REC_WORD_VV	4.205	n/a	<>	-999	8	[0, 0, 0]	n/a	FR1	0	R1350D
2386.969	9.277	2341989	REC_WORD	9.277	n/a	STOVE	-999	8	[0, 0, 0]	n/a	FR1	0	R1350D
2396.246	0.0	2351266	REC_END	n/a	n/a	n/a	-999	8	[0, 0, 0]	n/a	FR1	0	R1350D
2396.246	0.0	2351266	TRIAL_END	n/a	n/a	n/a	-999	8	[0, 0, 0]	n/a	FR1	0	R1350D
2396.246	0.0	2351266	TRIAL_START	n/a	n/a	n/a	-999	9	[0, 0, 0]	n/a	FR1	0	R1350D
2396.246	0.0	2351266	TRIAL	n/a	n/a	n/a	-999	9	[0, 0, 0]	n/a	FR1	0	R1350D
2396.246	6.061	2351266	WAITING_START	n/a	n/a	n/a	-999	9	[0, 0, 0]	n/a	FR1	0	R1350D
2402.307	0.0	2357327	WAITING_END	n/a	n/a	n/a	-999	9	[0, 0, 0]	n/a	FR1	0	R1350D
2402.307	0.0	2357327	COUNTDOWN_END	n/a	n/a	n/a	-999	9	[0, 0, 0]	n/a	FR1	0	R1350D
2402.307	0.0	2357327	ORIENT_START	n/a	n/a	n/a	-999	9	[0, 0, 0]	n/a	FR1	0	R1350D
2402.307	11.503	2357327	COUNTDOWN_START	n/a	n/a	n/a	-999	9	[0, 0, 0]	n/a	FR1	0	R1350D
2413.81	0.0	2368829	ORIENT_END	n/a	n/a	n/a	-999	9	[0, 0, 0]	n/a	FR1	0	R1350D
2413.81	0.969	2368829	ENCODING_START	n/a	n/a	n/a	-999	9	[0, 0, 0]	n/a	FR1	0	R1350D
2414.779	1.63	2369798	WORD	n/a	n/a	CLOTH	1	9	[0, 0, 0]	n/a	FR1	0	R1350D
2416.409	1.056	2371428	WORD_OFF	n/a	n/a	CLOTH	1	9	[0, 0, 0]	n/a	FR1	0	R1350D
2417.465	1.628	2372484	WORD	n/a	n/a	SOAP	2	9	[0, 0, 0]	n/a	FR1	0	R1350D
2419.093	1.036	2374112	WORD_OFF	n/a	n/a	SOAP	2	9	[0, 0, 0]	n/a	FR1	0	R1350D
2420.129	1.616	2375148	WORD	n/a	n/a	FENCE	3	9	[0, 0, 0]	n/a	FR1	0	R1350D
2421.745	0.984	2376764	WORD_OFF	n/a	n/a	FENCE	3	9	[0, 0, 0]	n/a	FR1	0	R1350D
2422.729	1.632	2377748	WORD	n/a	n/a	BROOM	4	9	[0, 0, 0]	n/a	FR1	0	R1350D
2424.361	0.791	2379379	WORD_OFF	n/a	n/a	BROOM	4	9	[0, 0, 0]	n/a	FR1	0	R1350D
2425.152	1.611	2380170	WORD	n/a	n/a	ROOT	5	9	[0, 0, 0]	n/a	FR1	0	R1350D
2426.763	0.77	2381781	WORD_OFF	n/a	n/a	ROOT	5	9	[0, 0, 0]	n/a	FR1	0	R1350D
2427.533	1.629	2382551	WORD	n/a	n/a	PASTE	6	9	[0, 0, 0]	n/a	FR1	0	R1350D
2429.162	1.063	2384180	WORD_OFF	n/a	n/a	PASTE	6	9	[0, 0, 0]	n/a	FR1	0	R1350D
2430.225	1.638	2385243	WORD	n/a	n/a	VASE	7	9	[0, 0, 0]	n/a	FR1	0	R1350D
2431.863	0.92	2386881	WORD_OFF	n/a	n/a	VASE	7	9	[0, 0, 0]	n/a	FR1	0	R1350D
2432.783	1.63	2387801	WORD	n/a	n/a	FORK	8	9	[0, 0, 0]	n/a	FR1	0	R1350D
2434.413	1.131	2389431	WORD_OFF	n/a	n/a	FORK	8	9	[0, 0, 0]	n/a	FR1	0	R1350D
2435.544	1.636	2390562	WORD	n/a	n/a	DOCK	9	9	[0, 0, 0]	n/a	FR1	0	R1350D
2437.18	0.953	2392198	WORD_OFF	n/a	n/a	DOCK	9	9	[0, 0, 0]	n/a	FR1	0	R1350D
2438.133	1.632	2393151	WORD	n/a	n/a	TRAIN	10	9	[0, 0, 0]	n/a	FR1	0	R1350D
2439.765	0.889	2394783	WORD_OFF	n/a	n/a	TRAIN	10	9	[0, 0, 0]	n/a	FR1	0	R1350D
2440.654	1.627	2395672	WORD	n/a	n/a	STAR	11	9	[0, 0, 0]	n/a	FR1	0	R1350D
2442.281	1.098	2397299	WORD_OFF	n/a	n/a	STAR	11	9	[0, 0, 0]	n/a	FR1	0	R1350D
2443.379	1.636	2398396	WORD	n/a	n/a	DRESS	12	9	[0, 0, 0]	n/a	FR1	0	R1350D
2445.015	0.0	2400032	DISTRACT_START	n/a	n/a	n/a	-999	9	[0, 0, 0]	n/a	FR1	0	R1350D
2445.015	0.0	2400032	WORD_OFF	n/a	n/a	DRESS	12	9	[0, 0, 0]	n/a	FR1	0	R1350D
2445.015	0.001	2400032	ENCODING_END	n/a	n/a	n/a	-999	9	[0, 0, 0]	n/a	FR1	0	R1350D
2445.016	0.015	2400033	START	n/a	n/a	n/a	-999	9	[-999, -999, -999]	n/a	FR1	0	R1350D
2445.031	5.318	2400048	PROB	5.318	n/a	n/a	-999	9	[3, 5, 6]	14	FR1	0	R1350D
2450.349	3.15	2405366	PROB	3.15	n/a	n/a	-999	9	[6, 6, 1]	13	FR1	0	R1350D
2453.499	4.168	2408516	PROB	4.168	n/a	n/a	-999	9	[9, 8, 7]	24	FR1	0	R1350D
2457.667	4.035	2412684	PROB	4.035	n/a	n/a	-999	9	[9, 8, 8]	25	FR1	0	R1350D
2461.702	3.267	2416718	PROB	3.267	n/a	n/a	-999	9	[9, 7, 6]	22	FR1	0	R1350D
2464.969	3.595	2419985	PROB	3.595	n/a	n/a	-999	9	[3, 6, 9]	18	FR1	0	R1350D
2468.564	0.022	2423580	STOP	n/a	n/a	n/a	-999	9	[-999, -999, -999]	n/a	FR1	0	R1350D
2468.586	1.197	2423602	DISTRACT_END	n/a	n/a	n/a	-999	9	[0, 0, 0]	n/a	FR1	0	R1350D
2469.783	1.021	2424799	RETRIEVAL_ORIENT_START	n/a	n/a	n/a	-999	9	[0, 0, 0]	n/a	FR1	0	R1350D
2470.804	0.0	2425820	RETRIEVAL_ORIENT_END	n/a	n/a	n/a	-999	9	[0, 0, 0]	n/a	FR1	0	R1350D
2470.804	1.974	2425820	REC_START	n/a	n/a	n/a	-999	9	[0, 0, 0]	n/a	FR1	0	R1350D
2472.778	1.461	2427794	REC_WORD	1.461	n/a	CLOTH	1	9	[0, 0, 0]	n/a	FR1	0	R1350D
2474.239	2.322	2429255	REC_WORD	2.322	n/a	SOAP	2	9	[0, 0, 0]	n/a	FR1	0	R1350D
2476.561	2.271	2431577	REC_WORD	2.271	n/a	FENCE	3	9	[0, 0, 0]	n/a	FR1	0	R1350D
2478.832	22.483	2433848	REC_WORD	22.483	n/a	DRESS	12	9	[0, 0, 0]	n/a	FR1	0	R1350D
2501.315	0.0	2456329	REC_END	n/a	n/a	n/a	-999	9	[0, 0, 0]	n/a	FR1	0	R1350D
2501.315	0.0	2456329	TRIAL_END	n/a	n/a	n/a	-999	9	[0, 0, 0]	n/a	FR1	0	R1350D
2501.315	0.0	2456329	TRIAL_START	n/a	n/a	n/a	-999	10	[0, 0, 0]	n/a	FR1	0	R1350D
2501.315	0.0	2456329	TRIAL	n/a	n/a	n/a	-999	10	[0, 0, 0]	n/a	FR1	0	R1350D
2501.315	1.445	2456329	WAITING_START	n/a	n/a	n/a	-999	10	[0, 0, 0]	n/a	FR1	0	R1350D
2502.76	0.0	2457774	WAITING_END	n/a	n/a	n/a	-999	10	[0, 0, 0]	n/a	FR1	0	R1350D
2502.76	0.0	2457774	COUNTDOWN_START	n/a	n/a	n/a	-999	10	[0, 0, 0]	n/a	FR1	0	R1350D
2502.76	0.0	2457774	COUNTDOWN_END	n/a	n/a	n/a	-999	10	[0, 0, 0]	n/a	FR1	0	R1350D
2502.76	11.584	2457774	ORIENT_START	n/a	n/a	n/a	-999	10	[0, 0, 0]	n/a	FR1	0	R1350D
2514.344	0.0	2469358	ENCODING_START	n/a	n/a	n/a	-999	10	[0, 0, 0]	n/a	FR1	0	R1350D
2514.344	0.905	2469358	ORIENT_END	n/a	n/a	n/a	-999	10	[0, 0, 0]	n/a	FR1	0	R1350D
2515.249	1.63	2470263	WORD	n/a	n/a	BRANCH	1	10	[0, 0, 0]	n/a	FR1	0	R1350D
2516.879	0.961	2471893	WORD_OFF	n/a	n/a	BRANCH	1	10	[0, 0, 0]	n/a	FR1	0	R1350D
2517.84	1.622	2472854	WORD	n/a	n/a	HOOK	2	10	[0, 0, 0]	n/a	FR1	0	R1350D
2519.462	0.937	2474475	WORD_OFF	n/a	n/a	HOOK	2	10	[0, 0, 0]	n/a	FR1	0	R1350D
2520.399	1.63	2475412	WORD	n/a	n/a	JET	3	10	[0, 0, 0]	n/a	FR1	0	R1350D
2522.029	0.895	2477042	WORD_OFF	n/a	n/a	JET	3	10	[0, 0, 0]	n/a	FR1	0	R1350D
2522.924	1.622	2477937	WORD	n/a	n/a	GEESE	4	10	[0, 0, 0]	n/a	FR1	0	R1350D
2524.546	0.846	2479559	WORD_OFF	n/a	n/a	GEESE	4	10	[0, 0, 0]	n/a	FR1	0	R1350D
2525.392	1.638	2480405	WORD	n/a	n/a	OWL	5	10	[0, 0, 0]	n/a	FR1	0	R1350D
2527.03	0.753	2482043	WORD_OFF	n/a	n/a	OWL	5	10	[0, 0, 0]	n/a	FR1	0	R1350D
2527.783	1.63	2482796	WORD	n/a	n/a	BAND	6	10	[0, 0, 0]	n/a	FR1	0	R1350D
2529.413	1.113	2484426	WORD_OFF	n/a	n/a	BAND	6	10	[0, 0, 0]	n/a	FR1	0	R1350D
2530.526	1.621	2485539	WORD	n/a	n/a	PHONE	7	10	[0, 0, 0]	n/a	FR1	0	R1350D
2532.147	0.9	2487160	WORD_OFF	n/a	n/a	PHONE	7	10	[0, 0, 0]	n/a	FR1	0	R1350D
2533.047	1.634	2488060	WORD	n/a	n/a	BENCH	8	10	[0, 0, 0]	n/a	FR1	0	R1350D
2534.681	1.043	2489694	WORD_OFF	n/a	n/a	BENCH	8	10	[0, 0, 0]	n/a	FR1	0	R1350D
2535.724	1.624	2490737	WORD	n/a	n/a	MUD	9	10	[0, 0, 0]	n/a	FR1	0	R1350D
2537.348	1.119	2492361	WORD_OFF	n/a	n/a	MUD	9	10	[0, 0, 0]	n/a	FR1	0	R1350D
2538.467	1.631	2493479	WORD	n/a	n/a	TENT	10	10	[0, 0, 0]	n/a	FR1	0	R1350D
2540.098	0.921	2495110	WORD_OFF	n/a	n/a	TENT	10	10	[0, 0, 0]	n/a	FR1	0	R1350D
2541.019	1.63	2496031	WORD	n/a	n/a	PIE	11	10	[0, 0, 0]	n/a	FR1	0	R1350D
2542.649	1.073	2497661	WORD_OFF	n/a	n/a	PIE	11	10	[0, 0, 0]	n/a	FR1	0	R1350D
2543.722	1.628	2498734	WORD	n/a	n/a	FAN	12	10	[0, 0, 0]	n/a	FR1	0	R1350D
2545.35	0.0	2500362	WORD_OFF	n/a	n/a	FAN	12	10	[0, 0, 0]	n/a	FR1	0	R1350D
2545.35	0.0	2500362	ENCODING_END	n/a	n/a	n/a	-999	10	[0, 0, 0]	n/a	FR1	0	R1350D
2545.35	0.001	2500362	DISTRACT_START	n/a	n/a	n/a	-999	10	[0, 0, 0]	n/a	FR1	0	R1350D
2545.351	0.015	2500363	START	n/a	n/a	n/a	-999	10	[-999, -999, -999]	n/a	FR1	0	R1350D
2545.366	4.718	2500378	PROB	4.718	n/a	n/a	-999	10	[2, 4, 3]	9	FR1	0	R1350D
2550.084	3.45	2505096	PROB	3.45	n/a	n/a	-999	10	[1, 6, 9]	16	FR1	0	R1350D
2553.534	3.018	2508546	PROB	3.018	n/a	n/a	-999	10	[2, 1, 9]	12	FR1	0	R1350D
2556.552	2.683	2511564	PROB	2.683	n/a	n/a	-999	10	[1, 3, 4]	8	FR1	0	R1350D
2559.235	2.934	2514246	PROB	2.934	n/a	n/a	-999	10	[7, 2, 4]	13	FR1	0	R1350D
2562.169	3.58	2517180	PROB	3.58	n/a	n/a	-999	10	[2, 1, 6]	9	FR1	0	R1350D
2565.749	0.005	2520760	STOP	n/a	n/a	n/a	-999	10	[-999, -999, -999]	n/a	FR1	0	R1350D
2565.754	1.337	2520765	DISTRACT_END	n/a	n/a	n/a	-999	10	[0, 0, 0]	n/a	FR1	0	R1350D
2567.091	1.029	2522102	RETRIEVAL_ORIENT_START	n/a	n/a	n/a	-999	10	[0, 0, 0]	n/a	FR1	0	R1350D
2568.12	0.0	2523131	RETRIEVAL_ORIENT_END	n/a	n/a	n/a	-999	10	[0, 0, 0]	n/a	FR1	0	R1350D
2568.12	1.691	2523131	REC_START	n/a	n/a	n/a	-999	10	[0, 0, 0]	n/a	FR1	0	R1350D
2569.811	1.83	2524822	REC_WORD	1.83	n/a	HOOK	2	10	[0, 0, 0]	n/a	FR1	0	R1350D
2571.641	1.217	2526652	REC_WORD	1.217	n/a	BRANCH	1	10	[0, 0, 0]	n/a	FR1	0	R1350D
2572.858	2.312	2527869	REC_WORD	2.312	n/a	JET	3	10	[0, 0, 0]	n/a	FR1	0	R1350D
2575.17	13.761	2530181	REC_WORD	13.761	n/a	GEESE	4	10	[0, 0, 0]	n/a	FR1	0	R1350D
2588.931	9.7	2543941	REC_WORD_VV	9.7	n/a	<>	-999	10	[0, 0, 0]	n/a	FR1	0	R1350D
2598.631	0.0	2553640	TRIAL_END	n/a	n/a	n/a	-999	10	[0, 0, 0]	n/a	FR1	0	R1350D
2598.631	0.0	2553640	WAITING_START	n/a	n/a	n/a	-999	11	[0, 0, 0]	n/a	FR1	0	R1350D
2598.631	0.0	2553640	REC_END	n/a	n/a	n/a	-999	10	[0, 0, 0]	n/a	FR1	0	R1350D
2598.631	0.0	2553640	TRIAL_START	n/a	n/a	n/a	-999	11	[0, 0, 0]	n/a	FR1	0	R1350D
2598.631	1.912	2553640	TRIAL	n/a	n/a	n/a	-999	11	[0, 0, 0]	n/a	FR1	0	R1350D
2600.543	0.0	2555552	WAITING_END	n/a	n/a	n/a	-999	11	[0, 0, 0]	n/a	FR1	0	R1350D
2600.543	0.0	2555552	COUNTDOWN_START	n/a	n/a	n/a	-999	11	[0, 0, 0]	n/a	FR1	0	R1350D
2600.543	0.0	2555552	COUNTDOWN_END	n/a	n/a	n/a	-999	11	[0, 0, 0]	n/a	FR1	0	R1350D
2600.543	11.619	2555552	ORIENT_START	n/a	n/a	n/a	-999	11	[0, 0, 0]	n/a	FR1	0	R1350D
2612.162	0.0	2567171	ENCODING_START	n/a	n/a	n/a	-999	11	[0, 0, 0]	n/a	FR1	0	R1350D
2612.162	0.817	2567171	ORIENT_END	n/a	n/a	n/a	-999	11	[0, 0, 0]	n/a	FR1	0	R1350D
2612.979	1.633	2567988	WORD	n/a	n/a	CASH	1	11	[0, 0, 0]	n/a	FR1	0	R1350D
2614.612	0.873	2569620	WORD_OFF	n/a	n/a	CASH	1	11	[0, 0, 0]	n/a	FR1	0	R1350D
2615.485	1.627	2570493	WORD	n/a	n/a	BAG	2	11	[0, 0, 0]	n/a	FR1	0	R1350D
2617.112	0.75	2572120	WORD_OFF	n/a	n/a	BAG	2	11	[0, 0, 0]	n/a	FR1	0	R1350D
2617.862	1.635	2572870	WORD	n/a	n/a	HAWK	3	11	[0, 0, 0]	n/a	FR1	0	R1350D
2619.497	0.783	2574505	WORD_OFF	n/a	n/a	HAWK	3	11	[0, 0, 0]	n/a	FR1	0	R1350D
2620.28	1.635	2575288	WORD	n/a	n/a	PIN	4	11	[0, 0, 0]	n/a	FR1	0	R1350D
2621.915	0.972	2576923	WORD_OFF	n/a	n/a	PIN	4	11	[0, 0, 0]	n/a	FR1	0	R1350D
2622.887	1.627	2577895	WORD	n/a	n/a	TRASH	5	11	[0, 0, 0]	n/a	FR1	0	R1350D
2624.514	1.01	2579522	WORD_OFF	n/a	n/a	TRASH	5	11	[0, 0, 0]	n/a	FR1	0	R1350D
2625.524	1.624	2580532	WORD	n/a	n/a	KITE	6	11	[0, 0, 0]	n/a	FR1	0	R1350D
2627.148	1.061	2582156	WORD_OFF	n/a	n/a	KITE	6	11	[0, 0, 0]	n/a	FR1	0	R1350D
2628.209	1.624	2583217	WORD	n/a	n/a	BOOK	7	11	[0, 0, 0]	n/a	FR1	0	R1350D
2629.833	0.836	2584841	WORD_OFF	n/a	n/a	BOOK	7	11	[0, 0, 0]	n/a	FR1	0	R1350D
2630.669	1.63	2585677	WORD	n/a	n/a	SWORD	8	11	[0, 0, 0]	n/a	FR1	0	R1350D
2632.299	0.832	2587307	WORD_OFF	n/a	n/a	SWORD	8	11	[0, 0, 0]	n/a	FR1	0	R1350D
2633.131	1.636	2588139	WORD	n/a	n/a	STEAM	9	11	[0, 0, 0]	n/a	FR1	0	R1350D
2634.767	0.924	2589774	WORD_OFF	n/a	n/a	STEAM	9	11	[0, 0, 0]	n/a	FR1	0	R1350D
2635.691	1.625	2590698	WORD	n/a	n/a	MUG	10	11	[0, 0, 0]	n/a	FR1	0	R1350D
2637.316	0.805	2592323	WORD_OFF	n/a	n/a	MUG	10	11	[0, 0, 0]	n/a	FR1	0	R1350D
2638.121	1.63	2593128	WORD	n/a	n/a	WEB	11	11	[0, 0, 0]	n/a	FR1	0	R1350D
2639.751	0.93	2594758	WORD_OFF	n/a	n/a	WEB	11	11	[0, 0, 0]	n/a	FR1	0	R1350D
2640.681	1.636	2595688	WORD	n/a	n/a	SNAKE	12	11	[0, 0, 0]	n/a	FR1	0	R1350D
2642.317	0.0	2597324	DISTRACT_START	n/a	n/a	n/a	-999	11	[0, 0, 0]	n/a	FR1	0	R1350D
2642.317	0.0	2597324	WORD_OFF	n/a	n/a	SNAKE	12	11	[0, 0, 0]	n/a	FR1	0	R1350D
2642.317	0.002	2597324	ENCODING_END	n/a	n/a	n/a	-999	11	[0, 0, 0]	n/a	FR1	0	R1350D
2642.319	0.015	2597326	START	n/a	n/a	n/a	-999	11	[-999, -999, -999]	n/a	FR1	0	R1350D
2642.334	4.301	2597341	PROB	4.301	n/a	n/a	-999	11	[6, 2, 3]	11	FR1	0	R1350D
2646.635	2.7	2601642	PROB	2.7	n/a	n/a	-999	11	[6, 6, 6]	18	FR1	0	R1350D
2649.335	4.918	2604342	PROB	4.918	n/a	n/a	-999	11	[7, 9, 5]	21	FR1	0	R1350D
2654.253	3.601	2609259	PROB	3.601	n/a	n/a	-999	11	[8, 6, 5]	20	FR1	0	R1350D
2657.854	4.623	2612860	PROB	4.623	n/a	n/a	-999	11	[7, 3, 6]	16	FR1	0	R1350D
2662.477	0.011	2617483	STOP	n/a	n/a	n/a	-999	11	[-999, -999, -999]	n/a	FR1	0	R1350D
2662.488	1.201	2617494	DISTRACT_END	n/a	n/a	n/a	-999	11	[0, 0, 0]	n/a	FR1	0	R1350D
2663.689	1.033	2618695	RETRIEVAL_ORIENT_START	n/a	n/a	n/a	-999	11	[0, 0, 0]	n/a	FR1	0	R1350D
2664.722	0.0	2619728	RETRIEVAL_ORIENT_END	n/a	n/a	n/a	-999	11	[0, 0, 0]	n/a	FR1	0	R1350D
2664.722	2.448	2619728	REC_START	n/a	n/a	n/a	-999	11	[0, 0, 0]	n/a	FR1	0	R1350D
2667.17	1.438	2622176	REC_WORD	1.438	n/a	CASH	1	11	[0, 0, 0]	n/a	FR1	0	R1350D
2668.608	4.131	2623614	REC_WORD	4.131	n/a	BAG	2	11	[0, 0, 0]	n/a	FR1	0	R1350D
2672.739	0.881	2627744	REC_WORD	0.881	n/a	STEAM	9	11	[0, 0, 0]	n/a	FR1	0	R1350D
2673.62	5.829	2628625	REC_WORD	5.829	n/a	SWORD	8	11	[0, 0, 0]	n/a	FR1	0	R1350D
2679.449	3.378	2634454	REC_WORD	3.378	n/a	TRASH	5	11	[0, 0, 0]	n/a	FR1	0	R1350D
2682.827	0.494	2637832	REC_WORD	0.494	n/a	MUD	-999	11	[0, 0, 0]	n/a	FR1	0	R1350D
2683.321	0.561	2638326	REC_WORD	0.561	n/a	MUG	10	11	[0, 0, 0]	n/a	FR1	0	R1350D
2683.882	11.351	2638887	REC_WORD_VV	11.351	n/a	<>	-999	11	[0, 0, 0]	n/a	FR1	0	R1350D
2695.233	0.0	2650237	REC_END	n/a	n/a	n/a	-999	11	[0, 0, 0]	n/a	FR1	0	R1350D
2695.233	0.0	2650237	TRIAL_END	n/a	n/a	n/a	-999	11	[0, 0, 0]	n/a	FR1	0	R1350D
2695.233	0.0	2650237	TRIAL_START	n/a	n/a	n/a	-999	12	[0, 0, 0]	n/a	FR1	0	R1350D
2695.233	0.0	2650237	TRIAL	n/a	n/a	n/a	-999	12	[0, 0, 0]	n/a	FR1	0	R1350D
2695.233	4.579	2650237	WAITING_START	n/a	n/a	n/a	-999	12	[0, 0, 0]	n/a	FR1	0	R1350D
2699.812	0.0	2654816	ORIENT_START	n/a	n/a	n/a	-999	12	[0, 0, 0]	n/a	FR1	0	R1350D
2699.812	0.0	2654816	COUNTDOWN_START	n/a	n/a	n/a	-999	12	[0, 0, 0]	n/a	FR1	0	R1350D
2699.812	0.0	2654816	WAITING_END	n/a	n/a	n/a	-999	12	[0, 0, 0]	n/a	FR1	0	R1350D
2699.812	11.585	2654816	COUNTDOWN_END	n/a	n/a	n/a	-999	12	[0, 0, 0]	n/a	FR1	0	R1350D
2711.397	0.0	2666400	ENCODING_START	n/a	n/a	n/a	-999	12	[0, 0, 0]	n/a	FR1	0	R1350D
2711.397	0.898	2666400	ORIENT_END	n/a	n/a	n/a	-999	12	[0, 0, 0]	n/a	FR1	0	R1350D
2712.295	1.636	2667298	WORD	n/a	n/a	DOG	1	12	[0, 0, 0]	n/a	FR1	0	R1350D
2713.931	0.815	2668934	WORD_OFF	n/a	n/a	DOG	1	12	[0, 0, 0]	n/a	FR1	0	R1350D
2714.746	1.635	2669749	WORD	n/a	n/a	STREET	2	12	[0, 0, 0]	n/a	FR1	0	R1350D
2716.381	0.891	2671384	WORD_OFF	n/a	n/a	STREET	2	12	[0, 0, 0]	n/a	FR1	0	R1350D
2717.272	1.627	2672275	WORD	n/a	n/a	SLUSH	3	12	[0, 0, 0]	n/a	FR1	0	R1350D
2718.899	0.974	2673902	WORD_OFF	n/a	n/a	SLUSH	3	12	[0, 0, 0]	n/a	FR1	0	R1350D
2719.873	1.625	2674876	WORD	n/a	n/a	WHEEL	4	12	[0, 0, 0]	n/a	FR1	0	R1350D
2721.498	0.857	2676501	WORD_OFF	n/a	n/a	WHEEL	4	12	[0, 0, 0]	n/a	FR1	0	R1350D
2722.355	1.611	2677358	WORD	n/a	n/a	GRASS	5	12	[0, 0, 0]	n/a	FR1	0	R1350D
2723.966	0.857	2678969	WORD_OFF	n/a	n/a	GRASS	5	12	[0, 0, 0]	n/a	FR1	0	R1350D
2724.823	1.626	2679826	WORD	n/a	n/a	BLOOM	6	12	[0, 0, 0]	n/a	FR1	0	R1350D
2726.449	1.146	2681452	WORD_OFF	n/a	n/a	BLOOM	6	12	[0, 0, 0]	n/a	FR1	0	R1350D
2727.595	1.638	2682598	WORD	n/a	n/a	DESK	7	12	[0, 0, 0]	n/a	FR1	0	R1350D
2729.233	0.758	2684235	WORD_OFF	n/a	n/a	DESK	7	12	[0, 0, 0]	n/a	FR1	0	R1350D
2729.991	1.626	2684993	WORD	n/a	n/a	TREE	8	12	[0, 0, 0]	n/a	FR1	0	R1350D
2731.617	1.078	2686619	WORD_OFF	n/a	n/a	TREE	8	12	[0, 0, 0]	n/a	FR1	0	R1350D
2732.695	1.622	2687697	WORD	n/a	n/a	CRANE	9	12	[0, 0, 0]	n/a	FR1	0	R1350D
2734.317	0.751	2689319	WORD_OFF	n/a	n/a	CRANE	9	12	[0, 0, 0]	n/a	FR1	0	R1350D
2735.068	1.634	2690070	WORD	n/a	n/a	SLEEVE	10	12	[0, 0, 0]	n/a	FR1	0	R1350D
2736.702	0.95	2691704	WORD_OFF	n/a	n/a	SLEEVE	10	12	[0, 0, 0]	n/a	FR1	0	R1350D
2737.652	1.633	2692654	WORD	n/a	n/a	STORE	11	12	[0, 0, 0]	n/a	FR1	0	R1350D
2739.285	1.115	2694287	WORD_OFF	n/a	n/a	STORE	11	12	[0, 0, 0]	n/a	FR1	0	R1350D
2740.4	1.635	2695402	WORD	n/a	n/a	MOLE	12	12	[0, 0, 0]	n/a	FR1	0	R1350D
2742.035	0.0	2697037	WORD_OFF	n/a	n/a	MOLE	12	12	[0, 0, 0]	n/a	FR1	0	R1350D
2742.035	0.0	2697037	ENCODING_END	n/a	n/a	n/a	-999	12	[0, 0, 0]	n/a	FR1	0	R1350D
2742.035	0.001	2697037	DISTRACT_START	n/a	n/a	n/a	-999	12	[0, 0, 0]	n/a	FR1	0	R1350D
2742.036	0.016	2697038	START	n/a	n/a	n/a	-999	12	[-999, -999, -999]	n/a	FR1	0	R1350D
2742.052	4.685	2697054	PROB	4.685	n/a	n/a	-999	12	[4, 5, 6]	15	FR1	0	R1350D
2746.737	4.834	2701739	PROB	4.834	n/a	n/a	-999	12	[4, 8, 1]	13	FR1	0	R1350D
2751.571	3.433	2706572	PROB	3.433	n/a	n/a	-999	12	[8, 4, 6]	18	FR1	0	R1350D
2755.004	5.468	2710005	PROB	5.468	n/a	n/a	-999	12	[7, 6, 6]	190	FR1	0	R1350D
2760.472	4.523	2715473	PROB	4.523	n/a	n/a	-999	12	[8, 2, 4]	14	FR1	0	R1350D
2764.995	0.011	2719996	STOP	n/a	n/a	n/a	-999	12	[-999, -999, -999]	n/a	FR1	0	R1350D
2765.006	1.221	2720007	DISTRACT_END	n/a	n/a	n/a	-999	12	[0, 0, 0]	n/a	FR1	0	R1350D
2766.227	1.03	2721228	RETRIEVAL_ORIENT_START	n/a	n/a	n/a	-999	12	[0, 0, 0]	n/a	FR1	0	R1350D
2767.257	0.0	2722258	RETRIEVAL_ORIENT_END	n/a	n/a	n/a	-999	12	[0, 0, 0]	n/a	FR1	0	R1350D
2767.257	1.528	2722258	REC_START	n/a	n/a	n/a	-999	12	[0, 0, 0]	n/a	FR1	0	R1350D
2768.785	3.056	2723785	REC_WORD_VV	3.056	n/a	<>	-999	12	[0, 0, 0]	n/a	FR1	0	R1350D
2771.841	2.032	2726841	REC_WORD	2.032	n/a	STORE	11	12	[0, 0, 0]	n/a	FR1	0	R1350D
2773.873	4.597	2728873	REC_WORD	4.597	n/a	SLEEVE	10	12	[0, 0, 0]	n/a	FR1	0	R1350D
2778.47	2.722	2733470	REC_WORD	2.722	n/a	DOG	1	12	[0, 0, 0]	n/a	FR1	0	R1350D
2781.192	1.042	2736192	REC_WORD	1.042	n/a	STREET	2	12	[0, 0, 0]	n/a	FR1	0	R1350D
2782.234	6.705	2737234	REC_WORD	6.705	n/a	BONE	-999	12	[0, 0, 0]	n/a	FR1	0	R1350D
2788.939	8.829	2743938	REC_WORD_VV	8.829	n/a	<>	-999	12	[0, 0, 0]	n/a	FR1	0	R1350D
2797.768	0.0	2752767	WAITING_START	n/a	n/a	n/a	-999	13	[0, 0, 0]	n/a	FR1	0	R1350D
2797.768	0.0	2752767	TRIAL	n/a	n/a	n/a	-999	13	[0, 0, 0]	n/a	FR1	0	R1350D
2797.768	0.0	2752767	REC_END	n/a	n/a	n/a	-999	12	[0, 0, 0]	n/a	FR1	0	R1350D
2797.768	0.0	2752767	TRIAL_END	n/a	n/a	n/a	-999	12	[0, 0, 0]	n/a	FR1	0	R1350D
2797.768	3.229	2752767	TRIAL_START	n/a	n/a	n/a	-999	13	[0, 0, 0]	n/a	FR1	0	R1350D
2800.997	0.0	2755996	COUNTDOWN_START	n/a	n/a	n/a	-999	13	[0, 0, 0]	n/a	FR1	0	R1350D
2800.997	0.0	2755996	ORIENT_START	n/a	n/a	n/a	-999	13	[0, 0, 0]	n/a	FR1	0	R1350D
2800.997	0.0	2755996	WAITING_END	n/a	n/a	n/a	-999	13	[0, 0, 0]	n/a	FR1	0	R1350D
2800.997	11.485	2755996	COUNTDOWN_END	n/a	n/a	n/a	-999	13	[0, 0, 0]	n/a	FR1	0	R1350D
2812.482	0.0	2767480	ORIENT_END	n/a	n/a	n/a	-999	13	[0, 0, 0]	n/a	FR1	0	R1350D
2812.482	0.75	2767480	ENCODING_START	n/a	n/a	n/a	-999	13	[0, 0, 0]	n/a	FR1	0	R1350D
2813.232	1.634	2768230	WORD	n/a	n/a	FROG	1	13	[0, 0, 0]	n/a	FR1	0	R1350D
2814.866	1.04	2769864	WORD_OFF	n/a	n/a	FROG	1	13	[0, 0, 0]	n/a	FR1	0	R1350D
2815.906	1.627	2770904	WORD	n/a	n/a	INK	2	13	[0, 0, 0]	n/a	FR1	0	R1350D
2817.533	0.914	2772531	WORD_OFF	n/a	n/a	INK	2	13	[0, 0, 0]	n/a	FR1	0	R1350D
2818.447	1.636	2773445	WORD	n/a	n/a	HOLE	3	13	[0, 0, 0]	n/a	FR1	0	R1350D
2820.083	0.933	2775081	WORD_OFF	n/a	n/a	HOLE	3	13	[0, 0, 0]	n/a	FR1	0	R1350D
2821.016	1.634	2776014	WORD	n/a	n/a	CART	4	13	[0, 0, 0]	n/a	FR1	0	R1350D
2822.65	1.017	2777648	WORD_OFF	n/a	n/a	CART	4	13	[0, 0, 0]	n/a	FR1	0	R1350D
2823.667	1.634	2778665	WORD	n/a	n/a	NET	5	13	[0, 0, 0]	n/a	FR1	0	R1350D
2825.301	0.789	2780298	WORD_OFF	n/a	n/a	NET	5	13	[0, 0, 0]	n/a	FR1	0	R1350D
2826.09	1.629	2781087	WORD	n/a	n/a	WORLD	6	13	[0, 0, 0]	n/a	FR1	0	R1350D
2827.719	0.795	2782716	WORD_OFF	n/a	n/a	WORLD	6	13	[0, 0, 0]	n/a	FR1	0	R1350D
2828.514	1.637	2783511	WORD	n/a	n/a	PARK	7	13	[0, 0, 0]	n/a	FR1	0	R1350D
2830.151	1.007	2785148	WORD_OFF	n/a	n/a	PARK	7	13	[0, 0, 0]	n/a	FR1	0	R1350D
2831.158	1.628	2786155	WORD	n/a	n/a	SHEET	8	13	[0, 0, 0]	n/a	FR1	0	R1350D
2832.786	0.885	2787783	WORD_OFF	n/a	n/a	SHEET	8	13	[0, 0, 0]	n/a	FR1	0	R1350D
2833.671	1.631	2788668	WORD	n/a	n/a	PIPE	9	13	[0, 0, 0]	n/a	FR1	0	R1350D
2835.302	0.793	2790299	WORD_OFF	n/a	n/a	PIPE	9	13	[0, 0, 0]	n/a	FR1	0	R1350D
2836.095	1.626	2791092	WORD	n/a	n/a	MOUSE	10	13	[0, 0, 0]	n/a	FR1	0	R1350D
2837.721	1.116	2792718	WORD_OFF	n/a	n/a	MOUSE	10	13	[0, 0, 0]	n/a	FR1	0	R1350D
2838.837	1.633	2793834	WORD	n/a	n/a	BRIDGE	11	13	[0, 0, 0]	n/a	FR1	0	R1350D
2840.47	0.964	2795467	WORD_OFF	n/a	n/a	BRIDGE	11	13	[0, 0, 0]	n/a	FR1	0	R1350D
2841.434	1.636	2796431	WORD	n/a	n/a	RICE	12	13	[0, 0, 0]	n/a	FR1	0	R1350D
2843.07	0.0	2798067	WORD_OFF	n/a	n/a	RICE	12	13	[0, 0, 0]	n/a	FR1	0	R1350D
2843.07	0.0	2798067	ENCODING_END	n/a	n/a	n/a	-999	13	[0, 0, 0]	n/a	FR1	0	R1350D
2843.07	0.002	2798067	DISTRACT_START	n/a	n/a	n/a	-999	13	[0, 0, 0]	n/a	FR1	0	R1350D
2843.072	0.015	2798069	START	n/a	n/a	n/a	-999	13	[-999, -999, -999]	n/a	FR1	0	R1350D
2843.087	4.284	2798084	PROB	4.284	n/a	n/a	-999	13	[1, 3, 7]	11	FR1	0	R1350D
2847.371	2.884	2802367	PROB	2.884	n/a	n/a	-999	13	[1, 4, 3]	8	FR1	0	R1350D
2850.255	3.485	2805251	PROB	3.485	n/a	n/a	-999	13	[5, 3, 2]	10	FR1	0	R1350D
2853.74	3.416	2808736	PROB	3.416	n/a	n/a	-999	13	[6, 6, 4]	16	FR1	0	R1350D
2857.156	3.201	2812152	PROB	3.201	n/a	n/a	-999	13	[7, 7, 6]	20	FR1	0	R1350D
2860.357	3.373	2815353	PROB	3.373	n/a	n/a	-999	13	[6, 7, 8]	21	FR1	0	R1350D
2863.73	0.012	2818725	STOP	n/a	n/a	n/a	-999	13	[-999, -999, -999]	n/a	FR1	0	R1350D
2863.742	1.132	2818737	DISTRACT_END	n/a	n/a	n/a	-999	13	[0, 0, 0]	n/a	FR1	0	R1350D
2864.874	1.035	2819869	RETRIEVAL_ORIENT_START	n/a	n/a	n/a	-999	13	[0, 0, 0]	n/a	FR1	0	R1350D
2865.909	0.0	2820904	REC_START	n/a	n/a	n/a	-999	13	[0, 0, 0]	n/a	FR1	0	R1350D
2865.909	3.28	2820904	RETRIEVAL_ORIENT_END	n/a	n/a	n/a	-999	13	[0, 0, 0]	n/a	FR1	0	R1350D
2869.189	1.096	2824184	REC_WORD_VV	1.096	n/a	<>	-999	13	[0, 0, 0]	n/a	FR1	0	R1350D
2870.285	1.66	2825280	REC_WORD	1.66	n/a	PIPE	9	13	[0, 0, 0]	n/a	FR1	0	R1350D
2871.945	24.474	2826940	REC_WORD	24.474	n/a	SHEET	8	13	[0, 0, 0]	n/a	FR1	0	R1350D
2896.419	0.0	2851413	REC_END	n/a	n/a	n/a	-999	13	[0, 0, 0]	n/a	FR1	0	R1350D
2896.419	0.0	2851413	TRIAL_END	n/a	n/a	n/a	-999	13	[0, 0, 0]	n/a	FR1	0	R1350D
2896.419	0.0	2851413	TRIAL_START	n/a	n/a	n/a	-999	14	[0, 0, 0]	n/a	FR1	0	R1350D
2896.419	0.0	2851413	TRIAL	n/a	n/a	n/a	-999	14	[0, 0, 0]	n/a	FR1	0	R1350D
2896.419	28.833	2851413	WAITING_START	n/a	n/a	n/a	-999	14	[0, 0, 0]	n/a	FR1	0	R1350D
2925.252	0.0	2880244	WAITING_END	n/a	n/a	n/a	-999	14	[0, 0, 0]	n/a	FR1	0	R1350D
2925.252	0.0	2880244	COUNTDOWN_START	n/a	n/a	n/a	-999	14	[0, 0, 0]	n/a	FR1	0	R1350D
2925.252	0.0	2880244	COUNTDOWN_END	n/a	n/a	n/a	-999	14	[0, 0, 0]	n/a	FR1	0	R1350D
2925.252	11.687	2880244	ORIENT_START	n/a	n/a	n/a	-999	14	[0, 0, 0]	n/a	FR1	0	R1350D
2936.939	0.0	2891931	ORIENT_END	n/a	n/a	n/a	-999	14	[0, 0, 0]	n/a	FR1	0	R1350D
2936.939	0.976	2891931	ENCODING_START	n/a	n/a	n/a	-999	14	[0, 0, 0]	n/a	FR1	0	R1350D
2937.915	1.623	2892907	WORD	n/a	n/a	PET	1	14	[0, 0, 0]	n/a	FR1	0	R1350D
2939.538	1.129	2894529	WORD_OFF	n/a	n/a	PET	1	14	[0, 0, 0]	n/a	FR1	0	R1350D
2940.667	1.638	2895658	WORD	n/a	n/a	PIG	2	14	[0, 0, 0]	n/a	FR1	0	R1350D
2942.305	1.056	2897296	WORD_OFF	n/a	n/a	PIG	2	14	[0, 0, 0]	n/a	FR1	0	R1350D
2943.361	1.629	2898352	WORD	n/a	n/a	CAT	3	14	[0, 0, 0]	n/a	FR1	0	R1350D
2944.99	1.13	2899981	WORD_OFF	n/a	n/a	CAT	3	14	[0, 0, 0]	n/a	FR1	0	R1350D
2946.12	1.637	2901111	WORD	n/a	n/a	BRUSH	4	14	[0, 0, 0]	n/a	FR1	0	R1350D
2947.757	1.035	2902748	WORD_OFF	n/a	n/a	BRUSH	4	14	[0, 0, 0]	n/a	FR1	0	R1350D
2948.792	1.631	2903783	WORD	n/a	n/a	CHALK	5	14	[0, 0, 0]	n/a	FR1	0	R1350D
2950.423	1.011	2905414	WORD_OFF	n/a	n/a	CHALK	5	14	[0, 0, 0]	n/a	FR1	0	R1350D
2951.434	1.623	2906425	WORD	n/a	n/a	BOAT	6	14	[0, 0, 0]	n/a	FR1	0	R1350D
2953.057	1.134	2908048	WORD_OFF	n/a	n/a	BOAT	6	14	[0, 0, 0]	n/a	FR1	0	R1350D
2954.191	1.617	2909182	WORD	n/a	n/a	SEA	7	14	[0, 0, 0]	n/a	FR1	0	R1350D
2955.808	1.149	2910799	WORD_OFF	n/a	n/a	SEA	7	14	[0, 0, 0]	n/a	FR1	0	R1350D
2956.957	1.635	2911948	WORD	n/a	n/a	LAND	8	14	[0, 0, 0]	n/a	FR1	0	R1350D
2958.592	0.835	2913582	WORD_OFF	n/a	n/a	LAND	8	14	[0, 0, 0]	n/a	FR1	0	R1350D
2959.427	1.632	2914417	WORD	n/a	n/a	SHIELD	9	14	[0, 0, 0]	n/a	FR1	0	R1350D
2961.059	0.907	2916049	WORD_OFF	n/a	n/a	SHIELD	9	14	[0, 0, 0]	n/a	FR1	0	R1350D
2961.966	1.626	2916956	WORD	n/a	n/a	DRUM	10	14	[0, 0, 0]	n/a	FR1	0	R1350D
2963.592	0.763	2918582	WORD_OFF	n/a	n/a	DRUM	10	14	[0, 0, 0]	n/a	FR1	0	R1350D
2964.355	1.639	2919345	WORD	n/a	n/a	ROOM	11	14	[0, 0, 0]	n/a	FR1	0	R1350D
2965.994	1.047	2920984	WORD_OFF	n/a	n/a	ROOM	11	14	[0, 0, 0]	n/a	FR1	0	R1350D
2967.041	1.636	2922031	WORD	n/a	n/a	STRING	12	14	[0, 0, 0]	n/a	FR1	0	R1350D
2968.677	0.0	2923667	WORD_OFF	n/a	n/a	STRING	12	14	[0, 0, 0]	n/a	FR1	0	R1350D
2968.677	0.0	2923667	ENCODING_END	n/a	n/a	n/a	-999	14	[0, 0, 0]	n/a	FR1	0	R1350D
2968.677	0.001	2923667	DISTRACT_START	n/a	n/a	n/a	-999	14	[0, 0, 0]	n/a	FR1	0	R1350D
2968.678	0.016	2923668	START	n/a	n/a	n/a	-999	14	[-999, -999, -999]	n/a	FR1	0	R1350D
2968.694	6.218	2923684	PROB	6.218	n/a	n/a	-999	14	[6, 7, 3]	16	FR1	0	R1350D
2974.912	2.766	2929902	PROB	2.766	n/a	n/a	-999	14	[4, 3, 4]	11	FR1	0	R1350D
2977.678	2.717	2932667	PROB	2.717	n/a	n/a	-999	14	[5, 9, 7]	21	FR1	0	R1350D
2980.395	3.502	2935384	PROB	3.502	n/a	n/a	-999	14	[7, 6, 9]	24	FR1	0	R1350D
2983.897	4.3	2938886	PROB	4.3	n/a	n/a	-999	14	[3, 6, 4]	13	FR1	0	R1350D
2988.197	2.607	2943186	PROB	2.607	n/a	n/a	-999	14	[7, 7, 9]	23	FR1	0	R1350D
2990.804	0.011	2945793	STOP	n/a	n/a	n/a	-999	14	[-999, -999, -999]	n/a	FR1	0	R1350D
2990.815	1.388	2945804	DISTRACT_END	n/a	n/a	n/a	-999	14	[0, 0, 0]	n/a	FR1	0	R1350D
2992.203	1.028	2947192	RETRIEVAL_ORIENT_START	n/a	n/a	n/a	-999	14	[0, 0, 0]	n/a	FR1	0	R1350D
2993.231	0.0	2948220	RETRIEVAL_ORIENT_END	n/a	n/a	n/a	-999	14	[0, 0, 0]	n/a	FR1	0	R1350D
2993.231	1.902	2948220	REC_START	n/a	n/a	n/a	-999	14	[0, 0, 0]	n/a	FR1	0	R1350D
2995.133	1.201	2950122	REC_WORD	1.201	n/a	PET	1	14	[0, 0, 0]	n/a	FR1	0	R1350D
2996.334	2.889	2951323	REC_WORD	2.889	n/a	PIG	2	14	[0, 0, 0]	n/a	FR1	0	R1350D
2999.223	2.616	2954211	REC_WORD	2.616	n/a	CAT	3	14	[0, 0, 0]	n/a	FR1	0	R1350D
3001.839	0.783	2956827	REC_WORD	0.783	n/a	ROOM	11	14	[0, 0, 0]	n/a	FR1	0	R1350D
3002.622	21.121	2957610	REC_WORD	21.121	n/a	DRUM	10	14	[0, 0, 0]	n/a	FR1	0	R1350D
3023.743	0.0	2978730	TRIAL	n/a	n/a	n/a	-999	15	[0, 0, 0]	n/a	FR1	0	R1350D
3023.743	0.0	2978730	WAITING_START	n/a	n/a	n/a	-999	15	[0, 0, 0]	n/a	FR1	0	R1350D
3023.743	0.0	2978730	TRIAL_END	n/a	n/a	n/a	-999	14	[0, 0, 0]	n/a	FR1	0	R1350D
3023.743	0.0	2978730	TRIAL_START	n/a	n/a	n/a	-999	15	[0, 0, 0]	n/a	FR1	0	R1350D
3023.743	2.478	2978730	REC_END	n/a	n/a	n/a	-999	14	[0, 0, 0]	n/a	FR1	0	R1350D
3026.221	0.0	2981208	ORIENT_START	n/a	n/a	n/a	-999	15	[0, 0, 0]	n/a	FR1	0	R1350D
3026.221	0.0	2981208	WAITING_END	n/a	n/a	n/a	-999	15	[0, 0, 0]	n/a	FR1	0	R1350D
3026.221	0.0	2981208	COUNTDOWN_START	n/a	n/a	n/a	-999	15	[0, 0, 0]	n/a	FR1	0	R1350D
3026.221	11.586	2981208	COUNTDOWN_END	n/a	n/a	n/a	-999	15	[0, 0, 0]	n/a	FR1	0	R1350D
3037.807	0.0	2992793	ORIENT_END	n/a	n/a	n/a	-999	15	[0, 0, 0]	n/a	FR1	0	R1350D
3037.807	1.089	2992793	ENCODING_START	n/a	n/a	n/a	-999	15	[0, 0, 0]	n/a	FR1	0	R1350D
3038.896	1.627	2993882	WORD	n/a	n/a	MOON	1	15	[0, 0, 0]	n/a	FR1	0	R1350D
3040.523	0.868	2995509	WORD_OFF	n/a	n/a	MOON	1	15	[0, 0, 0]	n/a	FR1	0	R1350D
3041.391	1.633	2996377	WORD	n/a	n/a	SKY	2	15	[0, 0, 0]	n/a	FR1	0	R1350D
3043.024	0.76	2998010	WORD_OFF	n/a	n/a	SKY	2	15	[0, 0, 0]	n/a	FR1	0	R1350D
3043.784	1.623	2998770	WORD	n/a	n/a	BEAN	3	15	[0, 0, 0]	n/a	FR1	0	R1350D
3045.407	1.009	3000393	WORD_OFF	n/a	n/a	BEAN	3	15	[0, 0, 0]	n/a	FR1	0	R1350D
3046.416	1.625	3001402	WORD	n/a	n/a	POOL	4	15	[0, 0, 0]	n/a	FR1	0	R1350D
3048.041	0.979	3003027	WORD_OFF	n/a	n/a	POOL	4	15	[0, 0, 0]	n/a	FR1	0	R1350D
3049.02	1.621	3004006	WORD	n/a	n/a	CAPE	5	15	[0, 0, 0]	n/a	FR1	0	R1350D
3050.641	0.918	3005627	WORD_OFF	n/a	n/a	CAPE	5	15	[0, 0, 0]	n/a	FR1	0	R1350D
3051.559	1.633	3006545	WORD	n/a	n/a	SPRING	6	15	[0, 0, 0]	n/a	FR1	0	R1350D
3053.192	0.774	3008178	WORD_OFF	n/a	n/a	SPRING	6	15	[0, 0, 0]	n/a	FR1	0	R1350D
3053.966	1.627	3008951	WORD	n/a	n/a	ARK	7	15	[0, 0, 0]	n/a	FR1	0	R1350D
3055.593	0.925	3010578	WORD_OFF	n/a	n/a	ARK	7	15	[0, 0, 0]	n/a	FR1	0	R1350D
3056.518	1.625	3011503	WORD	n/a	n/a	BLUSH	8	15	[0, 0, 0]	n/a	FR1	0	R1350D
3058.143	0.844	3013128	WORD_OFF	n/a	n/a	BLUSH	8	15	[0, 0, 0]	n/a	FR1	0	R1350D
3058.987	1.623	3013972	WORD	n/a	n/a	NOSE	9	15	[0, 0, 0]	n/a	FR1	0	R1350D
3060.61	0.854	3015595	WORD_OFF	n/a	n/a	NOSE	9	15	[0, 0, 0]	n/a	FR1	0	R1350D
3061.464	1.63	3016449	WORD	n/a	n/a	CUBE	10	15	[0, 0, 0]	n/a	FR1	0	R1350D
3063.094	1.016	3018079	WORD_OFF	n/a	n/a	CUBE	10	15	[0, 0, 0]	n/a	FR1	0	R1350D
3064.11	1.618	3019095	WORD	n/a	n/a	HAND	11	15	[0, 0, 0]	n/a	FR1	0	R1350D
3065.728	1.088	3020713	WORD_OFF	n/a	n/a	HAND	11	15	[0, 0, 0]	n/a	FR1	0	R1350D
3066.816	1.629	3021801	WORD	n/a	n/a	SHARK	12	15	[0, 0, 0]	n/a	FR1	0	R1350D
3068.445	0.0	3023430	WORD_OFF	n/a	n/a	SHARK	12	15	[0, 0, 0]	n/a	FR1	0	R1350D
3068.445	0.0	3023430	ENCODING_END	n/a	n/a	n/a	-999	15	[0, 0, 0]	n/a	FR1	0	R1350D
3068.445	0.001	3023430	DISTRACT_START	n/a	n/a	n/a	-999	15	[0, 0, 0]	n/a	FR1	0	R1350D
3068.446	0.016	3023431	START	n/a	n/a	n/a	-999	15	[-999, -999, -999]	n/a	FR1	0	R1350D
3068.462	3.584	3023447	PROB	3.584	n/a	n/a	-999	15	[2, 9, 1]	12	FR1	0	R1350D
3072.046	4.517	3027031	PROB	4.517	n/a	n/a	-999	15	[7, 5, 4]	16	FR1	0	R1350D
3076.563	4.534	3031547	PROB	4.534	n/a	n/a	-999	15	[4, 7, 5]	16	FR1	0	R1350D
3081.097	3.301	3036081	PROB	3.301	n/a	n/a	-999	15	[4, 5, 9]	18	FR1	0	R1350D
3084.398	3.184	3039382	PROB	3.184	n/a	n/a	-999	15	[9, 1, 3]	13	FR1	0	R1350D
3087.582	2.851	3042566	PROB	2.851	n/a	n/a	-999	15	[2, 2, 1]	5	FR1	0	R1350D
3090.433	0.016	3045417	STOP	n/a	n/a	n/a	-999	15	[-999, -999, -999]	n/a	FR1	0	R1350D
3090.449	1.247	3045433	DISTRACT_END	n/a	n/a	n/a	-999	15	[0, 0, 0]	n/a	FR1	0	R1350D
3091.696	1.021	3046680	RETRIEVAL_ORIENT_START	n/a	n/a	n/a	-999	15	[0, 0, 0]	n/a	FR1	0	R1350D
3092.717	0.0	3047700	REC_START	n/a	n/a	n/a	-999	15	[0, 0, 0]	n/a	FR1	0	R1350D
3092.717	2.634	3047700	RETRIEVAL_ORIENT_END	n/a	n/a	n/a	-999	15	[0, 0, 0]	n/a	FR1	0	R1350D
3095.351	2.052	3050334	REC_WORD	2.052	n/a	MOON	1	15	[0, 0, 0]	n/a	FR1	0	R1350D
3097.403	2.437	3052386	REC_WORD	2.437	n/a	SKY	2	15	[0, 0, 0]	n/a	FR1	0	R1350D
3099.84	2.353	3054823	REC_WORD	2.353	n/a	ARK	7	15	[0, 0, 0]	n/a	FR1	0	R1350D
3102.193	2.811	3057176	REC_WORD	2.811	n/a	BLUSH	8	15	[0, 0, 0]	n/a	FR1	0	R1350D
3105.004	18.223	3059987	REC_WORD	18.223	n/a	NOSE	9	15	[0, 0, 0]	n/a	FR1	0	R1350D
3123.227	0.0	3078209	REC_END	n/a	n/a	n/a	-999	15	[0, 0, 0]	n/a	FR1	0	R1350D
3123.227	0.0	3078209	TRIAL_END	n/a	n/a	n/a	-999	15	[0, 0, 0]	n/a	FR1	0	R1350D
3123.227	0.0	3078209	TRIAL_START	n/a	n/a	n/a	-999	16	[0, 0, 0]	n/a	FR1	0	R1350D
3123.227	0.0	3078209	TRIAL	n/a	n/a	n/a	-999	16	[0, 0, 0]	n/a	FR1	0	R1350D
3123.227	1.613	3078209	WAITING_START	n/a	n/a	n/a	-999	16	[0, 0, 0]	n/a	FR1	0	R1350D
3124.84	0.0	3079822	WAITING_END	n/a	n/a	n/a	-999	16	[0, 0, 0]	n/a	FR1	0	R1350D
3124.84	0.0	3079822	COUNTDOWN_START	n/a	n/a	n/a	-999	16	[0, 0, 0]	n/a	FR1	0	R1350D
3124.84	0.0	3079822	COUNTDOWN_END	n/a	n/a	n/a	-999	16	[0, 0, 0]	n/a	FR1	0	R1350D
3124.84	11.551	3079822	ORIENT_START	n/a	n/a	n/a	-999	16	[0, 0, 0]	n/a	FR1	0	R1350D
3136.391	0.0	3091372	ORIENT_END	n/a	n/a	n/a	-999	16	[0, 0, 0]	n/a	FR1	0	R1350D
3136.391	0.887	3091372	ENCODING_START	n/a	n/a	n/a	-999	16	[0, 0, 0]	n/a	FR1	0	R1350D
3137.278	1.631	3092259	WORD	n/a	n/a	RAT	1	16	[0, 0, 0]	n/a	FR1	0	R1350D
3138.909	0.785	3093890	WORD_OFF	n/a	n/a	RAT	1	16	[0, 0, 0]	n/a	FR1	0	R1350D
3139.694	1.631	3094675	WORD	n/a	n/a	TAIL	2	16	[0, 0, 0]	n/a	FR1	0	R1350D
3141.325	1.123	3096306	WORD_OFF	n/a	n/a	TAIL	2	16	[0, 0, 0]	n/a	FR1	0	R1350D
3142.448	1.627	3097429	WORD	n/a	n/a	PURSE	3	16	[0, 0, 0]	n/a	FR1	0	R1350D
3144.075	0.935	3099056	WORD_OFF	n/a	n/a	PURSE	3	16	[0, 0, 0]	n/a	FR1	0	R1350D
3145.01	1.616	3099991	WORD	n/a	n/a	SNOW	4	16	[0, 0, 0]	n/a	FR1	0	R1350D
3146.626	0.872	3101607	WORD_OFF	n/a	n/a	SNOW	4	16	[0, 0, 0]	n/a	FR1	0	R1350D
3147.498	1.628	3102479	WORD	n/a	n/a	TIE	5	16	[0, 0, 0]	n/a	FR1	0	R1350D
3149.126	0.881	3104107	WORD_OFF	n/a	n/a	TIE	5	16	[0, 0, 0]	n/a	FR1	0	R1350D
3150.007	1.636	3104987	WORD	n/a	n/a	STONE	6	16	[0, 0, 0]	n/a	FR1	0	R1350D
3151.643	1.009	3106623	WORD_OFF	n/a	n/a	STONE	6	16	[0, 0, 0]	n/a	FR1	0	R1350D
3152.652	1.625	3107632	WORD	n/a	n/a	TOAD	7	16	[0, 0, 0]	n/a	FR1	0	R1350D
3154.277	0.847	3109257	WORD_OFF	n/a	n/a	TOAD	7	16	[0, 0, 0]	n/a	FR1	0	R1350D
3155.124	1.638	3110104	WORD	n/a	n/a	STEM	8	16	[0, 0, 0]	n/a	FR1	0	R1350D
3156.762	1.14	3111742	WORD_OFF	n/a	n/a	STEM	8	16	[0, 0, 0]	n/a	FR1	0	R1350D
3157.902	1.626	3112882	WORD	n/a	n/a	CLOUD	9	16	[0, 0, 0]	n/a	FR1	0	R1350D
3159.528	0.807	3114508	WORD_OFF	n/a	n/a	CLOUD	9	16	[0, 0, 0]	n/a	FR1	0	R1350D
3160.335	1.628	3115315	WORD	n/a	n/a	WOOD	10	16	[0, 0, 0]	n/a	FR1	0	R1350D
3161.963	0.933	3116943	WORD_OFF	n/a	n/a	WOOD	10	16	[0, 0, 0]	n/a	FR1	0	R1350D
3162.896	1.633	3117876	WORD	n/a	n/a	LEAF	11	16	[0, 0, 0]	n/a	FR1	0	R1350D
3164.529	0.978	3119509	WORD_OFF	n/a	n/a	LEAF	11	16	[0, 0, 0]	n/a	FR1	0	R1350D
3165.507	1.623	3120487	WORD	n/a	n/a	CORD	12	16	[0, 0, 0]	n/a	FR1	0	R1350D
3167.13	0.0	3122110	DISTRACT_START	n/a	n/a	n/a	-999	16	[0, 0, 0]	n/a	FR1	0	R1350D
3167.13	0.0	3122110	ENCODING_END	n/a	n/a	n/a	-999	16	[0, 0, 0]	n/a	FR1	0	R1350D
3167.13	0.001	3122110	WORD_OFF	n/a	n/a	CORD	12	16	[0, 0, 0]	n/a	FR1	0	R1350D
3167.131	0.015	3122111	START	n/a	n/a	n/a	-999	16	[-999, -999, -999]	n/a	FR1	0	R1350D
3167.146	4.785	3122126	PROB	4.785	n/a	n/a	-999	16	[7, 8, 4]	19	FR1	0	R1350D
3171.931	3.167	3126910	PROB	3.167	n/a	n/a	-999	16	[8, 4, 1]	13	FR1	0	R1350D
3175.098	2.785	3130077	PROB	2.785	n/a	n/a	-999	16	[4, 5, 7]	16	FR1	0	R1350D
3177.883	2.983	3132862	PROB	2.983	n/a	n/a	-999	16	[9, 1, 6]	16	FR1	0	R1350D
3180.866	3.918	3135845	PROB	3.918	n/a	n/a	-999	16	[3, 7, 3]	13	FR1	0	R1350D
3184.784	3.025	3139763	PROB	3.025	n/a	n/a	-999	16	[8, 8, 5]	21	FR1	0	R1350D
3187.809	0.009	3142787	STOP	n/a	n/a	n/a	-999	16	[-999, -999, -999]	n/a	FR1	0	R1350D
3187.818	1.104	3142796	DISTRACT_END	n/a	n/a	n/a	-999	16	[0, 0, 0]	n/a	FR1	0	R1350D
3188.922	1.029	3143900	RETRIEVAL_ORIENT_START	n/a	n/a	n/a	-999	16	[0, 0, 0]	n/a	FR1	0	R1350D
3189.951	0.0	3144929	RETRIEVAL_ORIENT_END	n/a	n/a	n/a	-999	16	[0, 0, 0]	n/a	FR1	0	R1350D
3189.951	2.671	3144929	REC_START	n/a	n/a	n/a	-999	16	[0, 0, 0]	n/a	FR1	0	R1350D
3192.622	2.057	3147600	REC_WORD	2.057	n/a	RAT	1	16	[0, 0, 0]	n/a	FR1	0	R1350D
3194.679	1.842	3149657	REC_WORD	1.842	n/a	TAIL	2	16	[0, 0, 0]	n/a	FR1	0	R1350D
3196.521	6.134	3151499	REC_WORD	6.134	n/a	STEM	8	16	[0, 0, 0]	n/a	FR1	0	R1350D
3202.655	17.808	3157633	REC_WORD	17.808	n/a	CLOUD	9	16	[0, 0, 0]	n/a	FR1	0	R1350D
3220.463	0.0	3175440	REC_END	n/a	n/a	n/a	-999	16	[0, 0, 0]	n/a	FR1	0	R1350D
3220.463	0.0	3175440	TRIAL_END	n/a	n/a	n/a	-999	16	[0, 0, 0]	n/a	FR1	0	R1350D
3220.463	0.0	3175440	TRIAL_START	n/a	n/a	n/a	-999	17	[0, 0, 0]	n/a	FR1	0	R1350D
3220.463	0.0	3175440	TRIAL	n/a	n/a	n/a	-999	17	[0, 0, 0]	n/a	FR1	0	R1350D
3220.463	1.81	3175440	WAITING_START	n/a	n/a	n/a	-999	17	[0, 0, 0]	n/a	FR1	0	R1350D
3222.273	0.0	3177250	ORIENT_START	n/a	n/a	n/a	-999	17	[0, 0, 0]	n/a	FR1	0	R1350D
3222.273	0.0	3177250	COUNTDOWN_END	n/a	n/a	n/a	-999	17	[0, 0, 0]	n/a	FR1	0	R1350D
3222.273	0.0	3177250	COUNTDOWN_START	n/a	n/a	n/a	-999	17	[0, 0, 0]	n/a	FR1	0	R1350D
3222.273	11.67	3177250	WAITING_END	n/a	n/a	n/a	-999	17	[0, 0, 0]	n/a	FR1	0	R1350D
3233.943	0.0	3188919	ORIENT_END	n/a	n/a	n/a	-999	17	[0, 0, 0]	n/a	FR1	0	R1350D
3233.943	0.818	3188919	ENCODING_START	n/a	n/a	n/a	-999	17	[0, 0, 0]	n/a	FR1	0	R1350D
3234.761	1.631	3189737	WORD	n/a	n/a	CAGE	1	17	[0, 0, 0]	n/a	FR1	0	R1350D
3236.392	0.86	3191368	WORD_OFF	n/a	n/a	CAGE	1	17	[0, 0, 0]	n/a	FR1	0	R1350D
3237.252	1.625	3192228	WORD	n/a	n/a	SKUNK	2	17	[0, 0, 0]	n/a	FR1	0	R1350D
3238.877	1.068	3193853	WORD_OFF	n/a	n/a	SKUNK	2	17	[0, 0, 0]	n/a	FR1	0	R1350D
3239.945	1.631	3194921	WORD	n/a	n/a	BOOT	3	17	[0, 0, 0]	n/a	FR1	0	R1350D
3241.576	1.107	3196552	WORD_OFF	n/a	n/a	BOOT	3	17	[0, 0, 0]	n/a	FR1	0	R1350D
3242.683	1.627	3197659	WORD	n/a	n/a	SHIP	4	17	[0, 0, 0]	n/a	FR1	0	R1350D
3244.31	1.022	3199286	WORD_OFF	n/a	n/a	SHIP	4	17	[0, 0, 0]	n/a	FR1	0	R1350D
3245.332	1.63	3200307	WORD	n/a	n/a	HORSE	5	17	[0, 0, 0]	n/a	FR1	0	R1350D
3246.962	1.017	3201937	WORD_OFF	n/a	n/a	HORSE	5	17	[0, 0, 0]	n/a	FR1	0	R1350D
3247.979	1.632	3202954	WORD	n/a	n/a	PEACH	6	17	[0, 0, 0]	n/a	FR1	0	R1350D
3249.611	1.126	3204586	WORD_OFF	n/a	n/a	PEACH	6	17	[0, 0, 0]	n/a	FR1	0	R1350D
3250.737	1.625	3205712	WORD	n/a	n/a	DEER	7	17	[0, 0, 0]	n/a	FR1	0	R1350D
3252.362	0.753	3207337	WORD_OFF	n/a	n/a	DEER	7	17	[0, 0, 0]	n/a	FR1	0	R1350D
3253.115	1.632	3208090	WORD	n/a	n/a	BEACH	8	17	[0, 0, 0]	n/a	FR1	0	R1350D
3254.747	1.095	3209722	WORD_OFF	n/a	n/a	BEACH	8	17	[0, 0, 0]	n/a	FR1	0	R1350D
3255.842	1.621	3210817	WORD	n/a	n/a	CAR	9	17	[0, 0, 0]	n/a	FR1	0	R1350D
3257.463	1.129	3212438	WORD_OFF	n/a	n/a	CAR	9	17	[0, 0, 0]	n/a	FR1	0	R1350D
3258.592	1.638	3213567	WORD	n/a	n/a	CHIEF	10	17	[0, 0, 0]	n/a	FR1	0	R1350D
3260.23	1.083	3215205	WORD_OFF	n/a	n/a	CHIEF	10	17	[0, 0, 0]	n/a	FR1	0	R1350D
3261.313	1.635	3216288	WORD	n/a	n/a	TANK	11	17	[0, 0, 0]	n/a	FR1	0	R1350D
3262.948	0.8	3217923	WORD_OFF	n/a	n/a	TANK	11	17	[0, 0, 0]	n/a	FR1	0	R1350D
3263.748	1.633	3218723	WORD	n/a	n/a	RAKE	12	17	[0, 0, 0]	n/a	FR1	0	R1350D
3265.381	0.0	3220355	DISTRACT_START	n/a	n/a	n/a	-999	17	[0, 0, 0]	n/a	FR1	0	R1350D
3265.381	0.0	3220355	ENCODING_END	n/a	n/a	n/a	-999	17	[0, 0, 0]	n/a	FR1	0	R1350D
3265.381	0.001	3220355	WORD_OFF	n/a	n/a	RAKE	12	17	[0, 0, 0]	n/a	FR1	0	R1350D
3265.382	0.015	3220356	START	n/a	n/a	n/a	-999	17	[-999, -999, -999]	n/a	FR1	0	R1350D
3265.397	4.068	3220371	PROB	4.068	n/a	n/a	-999	17	[4, 1, 8]	13	FR1	0	R1350D
3269.465	4.001	3224439	PROB	4.001	n/a	n/a	-999	17	[6, 7, 8]	21	FR1	0	R1350D
3273.466	4.817	3228440	PROB	4.817	n/a	n/a	-999	17	[1, 6, 9]	16	FR1	0	R1350D
3278.283	2.867	3233257	PROB	2.867	n/a	n/a	-999	17	[5, 5, 4]	14	FR1	0	R1350D
3281.15	3.201	3236124	PROB	3.201	n/a	n/a	-999	17	[8, 5, 8]	21	FR1	0	R1350D
3284.351	5.851	3239324	PROB	5.851	n/a	n/a	-999	17	[9, 1, 2]	12	FR1	0	R1350D
3290.202	0.017	3245175	STOP	n/a	n/a	n/a	-999	17	[-999, -999, -999]	n/a	FR1	0	R1350D
3290.219	1.259	3245192	DISTRACT_END	n/a	n/a	n/a	-999	17	[0, 0, 0]	n/a	FR1	0	R1350D
3291.478	1.024	3246451	RETRIEVAL_ORIENT_START	n/a	n/a	n/a	-999	17	[0, 0, 0]	n/a	FR1	0	R1350D
3292.502	0.0	3247475	RETRIEVAL_ORIENT_END	n/a	n/a	n/a	-999	17	[0, 0, 0]	n/a	FR1	0	R1350D
3292.502	3.707	3247475	REC_START	n/a	n/a	n/a	-999	17	[0, 0, 0]	n/a	FR1	0	R1350D
3296.209	3.489	3251182	REC_WORD	3.489	n/a	CAGE	1	17	[0, 0, 0]	n/a	FR1	0	R1350D
3299.698	6.695	3254671	REC_WORD	6.695	n/a	SKUNK	2	17	[0, 0, 0]	n/a	FR1	0	R1350D
3306.393	16.621	3261365	REC_WORD_VV	16.621	n/a	<>	-999	17	[0, 0, 0]	n/a	FR1	0	R1350D
3323.014	0.0	3277985	TRIAL_END	n/a	n/a	n/a	-999	17	[0, 0, 0]	n/a	FR1	0	R1350D
3323.014	0.0	3277985	WAITING_START	n/a	n/a	n/a	-999	18	[0, 0, 0]	n/a	FR1	0	R1350D
3323.014	0.0	3277985	REC_END	n/a	n/a	n/a	-999	17	[0, 0, 0]	n/a	FR1	0	R1350D
3323.014	0.0	3277985	TRIAL_START	n/a	n/a	n/a	-999	18	[0, 0, 0]	n/a	FR1	0	R1350D
3323.014	2.311	3277985	TRIAL	n/a	n/a	n/a	-999	18	[0, 0, 0]	n/a	FR1	0	R1350D
3325.325	0.0	3280296	COUNTDOWN_START	n/a	n/a	n/a	-999	18	[0, 0, 0]	n/a	FR1	0	R1350D
3325.325	0.0	3280296	COUNTDOWN_END	n/a	n/a	n/a	-999	18	[0, 0, 0]	n/a	FR1	0	R1350D
3325.325	0.0	3280296	ORIENT_START	n/a	n/a	n/a	-999	18	[0, 0, 0]	n/a	FR1	0	R1350D
3325.325	11.57	3280296	WAITING_END	n/a	n/a	n/a	-999	18	[0, 0, 0]	n/a	FR1	0	R1350D
3336.895	0.0	3291866	ORIENT_END	n/a	n/a	n/a	-999	18	[0, 0, 0]	n/a	FR1	0	R1350D
3336.895	0.971	3291866	ENCODING_START	n/a	n/a	n/a	-999	18	[0, 0, 0]	n/a	FR1	0	R1350D
3337.866	1.628	3292837	WORD	n/a	n/a	WHALE	1	18	[0, 0, 0]	n/a	FR1	0	R1350D
3339.494	0.878	3294465	WORD_OFF	n/a	n/a	WHALE	1	18	[0, 0, 0]	n/a	FR1	0	R1350D
3340.372	1.624	3295343	WORD	n/a	n/a	EEL	2	18	[0, 0, 0]	n/a	FR1	0	R1350D
3341.996	1.01	3296966	WORD_OFF	n/a	n/a	EEL	2	18	[0, 0, 0]	n/a	FR1	0	R1350D
3343.006	1.623	3297976	WORD	n/a	n/a	BOWL	3	18	[0, 0, 0]	n/a	FR1	0	R1350D
3344.629	1.024	3299599	WORD_OFF	n/a	n/a	BOWL	3	18	[0, 0, 0]	n/a	FR1	0	R1350D
3345.653	1.626	3300623	WORD	n/a	n/a	BANK	4	18	[0, 0, 0]	n/a	FR1	0	R1350D
3347.279	1.06	3302249	WORD_OFF	n/a	n/a	BANK	4	18	[0, 0, 0]	n/a	FR1	0	R1350D
3348.339	1.625	3303309	WORD	n/a	n/a	HOOF	5	18	[0, 0, 0]	n/a	FR1	0	R1350D
3349.964	0.873	3304934	WORD_OFF	n/a	n/a	HOOF	5	18	[0, 0, 0]	n/a	FR1	0	R1350D
3350.837	1.626	3305807	WORD	n/a	n/a	THUMB	6	18	[0, 0, 0]	n/a	FR1	0	R1350D
3352.463	0.881	3307433	WORD_OFF	n/a	n/a	THUMB	6	18	[0, 0, 0]	n/a	FR1	0	R1350D
3353.344	1.621	3308314	WORD	n/a	n/a	BALL	7	18	[0, 0, 0]	n/a	FR1	0	R1350D
3354.965	1.075	3309935	WORD_OFF	n/a	n/a	BALL	7	18	[0, 0, 0]	n/a	FR1	0	R1350D
3356.04	1.624	3311010	WORD	n/a	n/a	FACE	8	18	[0, 0, 0]	n/a	FR1	0	R1350D
3357.664	1.12	3312634	WORD_OFF	n/a	n/a	FACE	8	18	[0, 0, 0]	n/a	FR1	0	R1350D
3358.784	1.631	3313754	WORD	n/a	n/a	SMILE	9	18	[0, 0, 0]	n/a	FR1	0	R1350D
3360.415	1.005	3315384	WORD_OFF	n/a	n/a	SMILE	9	18	[0, 0, 0]	n/a	FR1	0	R1350D
3361.42	1.629	3316389	WORD	n/a	n/a	POND	10	18	[0, 0, 0]	n/a	FR1	0	R1350D
3363.049	1.015	3318018	WORD_OFF	n/a	n/a	POND	10	18	[0, 0, 0]	n/a	FR1	0	R1350D
3364.064	1.636	3319033	WORD	n/a	n/a	BOMB	11	18	[0, 0, 0]	n/a	FR1	0	R1350D
3365.7	0.899	3320669	WORD_OFF	n/a	n/a	BOMB	11	18	[0, 0, 0]	n/a	FR1	0	R1350D
3366.599	1.634	3321568	WORD	n/a	n/a	FLAG	12	18	[0, 0, 0]	n/a	FR1	0	R1350D
3368.233	0.0	3323202	WORD_OFF	n/a	n/a	FLAG	12	18	[0, 0, 0]	n/a	FR1	0	R1350D
3368.233	0.0	3323202	ENCODING_END	n/a	n/a	n/a	-999	18	[0, 0, 0]	n/a	FR1	0	R1350D
3368.233	0.001	3323202	DISTRACT_START	n/a	n/a	n/a	-999	18	[0, 0, 0]	n/a	FR1	0	R1350D
3368.234	0.016	3323203	START	n/a	n/a	n/a	-999	18	[-999, -999, -999]	n/a	FR1	0	R1350D
3368.25	6.317	3323219	PROB	6.317	n/a	n/a	-999	18	[3, 4, 8]	15	FR1	0	R1350D
3374.567	3.851	3329536	PROB	3.851	n/a	n/a	-999	18	[9, 9, 2]	20	FR1	0	R1350D
3378.418	3.285	3333387	PROB	3.285	n/a	n/a	-999	18	[3, 2, 1]	6	FR1	0	R1350D
3381.703	5.268	3336671	PROB	5.268	n/a	n/a	-999	18	[7, 6, 8]	21	FR1	0	R1350D
3386.971	3.118	3341939	PROB	3.118	n/a	n/a	-999	18	[8, 1, 3]	12	FR1	0	R1350D
3390.089	0.015	3345057	STOP	n/a	n/a	n/a	-999	18	[-999, -999, -999]	n/a	FR1	0	R1350D
3390.104	1.219	3345072	DISTRACT_END	n/a	n/a	n/a	-999	18	[0, 0, 0]	n/a	FR1	0	R1350D
3391.323	1.031	3346291	RETRIEVAL_ORIENT_START	n/a	n/a	n/a	-999	18	[0, 0, 0]	n/a	FR1	0	R1350D
3392.354	0.0	3347322	RETRIEVAL_ORIENT_END	n/a	n/a	n/a	-999	18	[0, 0, 0]	n/a	FR1	0	R1350D
3392.354	1.722	3347322	REC_START	n/a	n/a	n/a	-999	18	[0, 0, 0]	n/a	FR1	0	R1350D
3394.076	1.581	3349044	REC_WORD	1.581	n/a	WHALE	1	18	[0, 0, 0]	n/a	FR1	0	R1350D
3395.657	3.439	3350625	REC_WORD	3.439	n/a	EEL	2	18	[0, 0, 0]	n/a	FR1	0	R1350D
3399.096	1.889	3354063	REC_WORD_VV	1.889	n/a	<>	-999	18	[0, 0, 0]	n/a	FR1	0	R1350D
3400.985	14.406	3355952	REC_WORD	14.406	n/a	FACE	8	18	[0, 0, 0]	n/a	FR1	0	R1350D
3415.391	1.006	3370358	REC_WORD	1.006	n/a	BOMB	11	18	[0, 0, 0]	n/a	FR1	0	R1350D
3416.397	6.469	3371364	REC_WORD	6.469	n/a	FLAG	12	18	[0, 0, 0]	n/a	FR1	0	R1350D
3422.866	0.0	3377832	REC_END	n/a	n/a	n/a	-999	18	[0, 0, 0]	n/a	FR1	0	R1350D
3422.866	0.0	3377832	TRIAL_END	n/a	n/a	n/a	-999	18	[0, 0, 0]	n/a	FR1	0	R1350D
3422.866	0.0	3377832	TRIAL_START	n/a	n/a	n/a	-999	19	[0, 0, 0]	n/a	FR1	0	R1350D
3422.866	0.0	3377832	TRIAL	n/a	n/a	n/a	-999	19	[0, 0, 0]	n/a	FR1	0	R1350D
3422.866	1.227	3377832	WAITING_START	n/a	n/a	n/a	-999	19	[0, 0, 0]	n/a	FR1	0	R1350D
3424.093	0.0	3379059	WAITING_END	n/a	n/a	n/a	-999	19	[0, 0, 0]	n/a	FR1	0	R1350D
3424.093	0.0	3379059	COUNTDOWN_START	n/a	n/a	n/a	-999	19	[0, 0, 0]	n/a	FR1	0	R1350D
3424.093	0.0	3379059	COUNTDOWN_END	n/a	n/a	n/a	-999	19	[0, 0, 0]	n/a	FR1	0	R1350D
3424.093	11.502	3379059	ORIENT_START	n/a	n/a	n/a	-999	19	[0, 0, 0]	n/a	FR1	0	R1350D
3435.595	0.0	3390561	ENCODING_START	n/a	n/a	n/a	-999	19	[0, 0, 0]	n/a	FR1	0	R1350D
3435.595	0.891	3390561	ORIENT_END	n/a	n/a	n/a	-999	19	[0, 0, 0]	n/a	FR1	0	R1350D
3436.486	1.626	3391451	WORD	n/a	n/a	PEN	1	19	[0, 0, 0]	n/a	FR1	0	R1350D
3438.112	1.027	3393077	WORD_OFF	n/a	n/a	PEN	1	19	[0, 0, 0]	n/a	FR1	0	R1350D
3439.139	1.608	3394104	WORD	n/a	n/a	BUSH	2	19	[0, 0, 0]	n/a	FR1	0	R1350D
3440.747	0.904	3395712	WORD_OFF	n/a	n/a	BUSH	2	19	[0, 0, 0]	n/a	FR1	0	R1350D
3441.651	1.629	3396616	WORD	n/a	n/a	MOTH	3	19	[0, 0, 0]	n/a	FR1	0	R1350D
3443.28	0.936	3398245	WORD_OFF	n/a	n/a	MOTH	3	19	[0, 0, 0]	n/a	FR1	0	R1350D
3444.216	1.615	3399181	WORD	n/a	n/a	BADGE	4	19	[0, 0, 0]	n/a	FR1	0	R1350D
3445.831	0.777	3400796	WORD_OFF	n/a	n/a	BADGE	4	19	[0, 0, 0]	n/a	FR1	0	R1350D
3446.608	1.623	3401573	WORD	n/a	n/a	LAKE	5	19	[0, 0, 0]	n/a	FR1	0	R1350D
3448.231	1.123	3403196	WORD_OFF	n/a	n/a	LAKE	5	19	[0, 0, 0]	n/a	FR1	0	R1350D
3449.354	1.612	3404319	WORD	n/a	n/a	EAR	6	19	[0, 0, 0]	n/a	FR1	0	R1350D
3450.966	0.829	3405931	WORD_OFF	n/a	n/a	EAR	6	19	[0, 0, 0]	n/a	FR1	0	R1350D
3451.795	1.637	3406760	WORD	n/a	n/a	DUCK	7	19	[0, 0, 0]	n/a	FR1	0	R1350D
3453.432	1.027	3408397	WORD_OFF	n/a	n/a	DUCK	7	19	[0, 0, 0]	n/a	FR1	0	R1350D
3454.459	1.623	3409424	WORD	n/a	n/a	JAR	8	19	[0, 0, 0]	n/a	FR1	0	R1350D
3456.082	0.764	3411046	WORD_OFF	n/a	n/a	JAR	8	19	[0, 0, 0]	n/a	FR1	0	R1350D
3456.846	1.637	3411810	WORD	n/a	n/a	FUR	9	19	[0, 0, 0]	n/a	FR1	0	R1350D
3458.483	0.754	3413447	WORD_OFF	n/a	n/a	FUR	9	19	[0, 0, 0]	n/a	FR1	0	R1350D
3459.237	1.614	3414201	WORD	n/a	n/a	ANT	10	19	[0, 0, 0]	n/a	FR1	0	R1350D
3460.851	1.115	3415815	WORD_OFF	n/a	n/a	ANT	10	19	[0, 0, 0]	n/a	FR1	0	R1350D
3461.966	1.634	3416930	WORD	n/a	n/a	SIGN	11	19	[0, 0, 0]	n/a	FR1	0	R1350D
3463.6	0.91	3418564	WORD_OFF	n/a	n/a	SIGN	11	19	[0, 0, 0]	n/a	FR1	0	R1350D
3464.51	1.624	3419474	WORD	n/a	n/a	LAWN	12	19	[0, 0, 0]	n/a	FR1	0	R1350D
3466.134	0.0	3421098	DISTRACT_START	n/a	n/a	n/a	-999	19	[0, 0, 0]	n/a	FR1	0	R1350D
3466.134	0.0	3421098	WORD_OFF	n/a	n/a	LAWN	12	19	[0, 0, 0]	n/a	FR1	0	R1350D
3466.134	0.001	3421098	ENCODING_END	n/a	n/a	n/a	-999	19	[0, 0, 0]	n/a	FR1	0	R1350D
3466.135	0.016	3421099	START	n/a	n/a	n/a	-999	19	[-999, -999, -999]	n/a	FR1	0	R1350D
3466.151	3.701	3421115	PROB	3.701	n/a	n/a	-999	19	[1, 6, 5]	12	FR1	0	R1350D
3469.852	3.55	3424816	PROB	3.55	n/a	n/a	-999	19	[6, 9, 6]	21	FR1	0	R1350D
3473.402	3.934	3428366	PROB	3.934	n/a	n/a	-999	19	[8, 1, 7]	16	FR1	0	R1350D
3477.336	3.934	3432299	PROB	3.934	n/a	n/a	-999	19	[4, 3, 8]	15	FR1	0	R1350D
3481.27	3.552	3436233	PROB	3.552	n/a	n/a	-999	19	[1, 3, 6]	10	FR1	0	R1350D
3484.822	3.462	3439785	PROB	3.462	n/a	n/a	-999	19	[4, 8, 4]	16	FR1	0	R1350D
3488.284	0.021	3443247	STOP	n/a	n/a	n/a	-999	19	[-999, -999, -999]	n/a	FR1	0	R1350D
3488.305	1.138	3443268	DISTRACT_END	n/a	n/a	n/a	-999	19	[0, 0, 0]	n/a	FR1	0	R1350D
3489.443	1.029	3444406	RETRIEVAL_ORIENT_START	n/a	n/a	n/a	-999	19	[0, 0, 0]	n/a	FR1	0	R1350D
3490.472	0.0	3445435	RETRIEVAL_ORIENT_END	n/a	n/a	n/a	-999	19	[0, 0, 0]	n/a	FR1	0	R1350D
3490.472	0.656	3445435	REC_START	n/a	n/a	n/a	-999	19	[0, 0, 0]	n/a	FR1	0	R1350D
3491.128	0.785	3446091	REC_WORD_VV	0.785	n/a	<>	-999	19	[0, 0, 0]	n/a	FR1	0	R1350D
3491.913	1.519	3446876	REC_WORD	1.519	n/a	JAR	8	19	[0, 0, 0]	n/a	FR1	0	R1350D
3493.432	1.465	3448395	REC_WORD	1.465	n/a	FUR	9	19	[0, 0, 0]	n/a	FR1	0	R1350D
3494.897	9.313	3449859	REC_WORD	9.313	n/a	ANT	10	19	[0, 0, 0]	n/a	FR1	0	R1350D
3504.21	16.774	3459172	REC_WORD_VV	16.774	n/a	<>	-999	19	[0, 0, 0]	n/a	FR1	0	R1350D
3520.984	0.0	3475945	REC_END	n/a	n/a	n/a	-999	19	[0, 0, 0]	n/a	FR1	0	R1350D
3520.984	0.0	3475945	TRIAL_END	n/a	n/a	n/a	-999	19	[0, 0, 0]	n/a	FR1	0	R1350D
3520.984	0.0	3475945	TRIAL_START	n/a	n/a	n/a	-999	20	[0, 0, 0]	n/a	FR1	0	R1350D
3520.984	0.0	3475945	TRIAL	n/a	n/a	n/a	-999	20	[0, 0, 0]	n/a	FR1	0	R1350D
3520.984	1.778	3475945	WAITING_START	n/a	n/a	n/a	-999	20	[0, 0, 0]	n/a	FR1	0	R1350D
3522.762	0.0	3477723	ORIENT_START	n/a	n/a	n/a	-999	20	[0, 0, 0]	n/a	FR1	0	R1350D
3522.762	0.0	3477723	COUNTDOWN_START	n/a	n/a	n/a	-999	20	[0, 0, 0]	n/a	FR1	0	R1350D
3522.762	0.0	3477723	COUNTDOWN_END	n/a	n/a	n/a	-999	20	[0, 0, 0]	n/a	FR1	0	R1350D
3522.762	11.534	3477723	WAITING_END	n/a	n/a	n/a	-999	20	[0, 0, 0]	n/a	FR1	0	R1350D
3534.296	0.0	3489256	ORIENT_END	n/a	n/a	n/a	-999	20	[0, 0, 0]	n/a	FR1	0	R1350D
3534.296	0.783	3489256	ENCODING_START	n/a	n/a	n/a	-999	20	[0, 0, 0]	n/a	FR1	0	R1350D
3535.079	1.636	3490039	WORD	n/a	n/a	MAZE	1	20	[0, 0, 0]	n/a	FR1	0	R1350D
3536.715	1.052	3491675	WORD_OFF	n/a	n/a	MAZE	1	20	[0, 0, 0]	n/a	FR1	0	R1350D
3537.767	1.63	3492727	WORD	n/a	n/a	WING	2	20	[0, 0, 0]	n/a	FR1	0	R1350D
3539.397	1.069	3494357	WORD_OFF	n/a	n/a	WING	2	20	[0, 0, 0]	n/a	FR1	0	R1350D
3540.466	1.632	3495426	WORD	n/a	n/a	SHRIMP	3	20	[0, 0, 0]	n/a	FR1	0	R1350D
3542.098	0.926	3497058	WORD_OFF	n/a	n/a	SHRIMP	3	20	[0, 0, 0]	n/a	FR1	0	R1350D
3543.024	1.624	3497984	WORD	n/a	n/a	MAP	4	20	[0, 0, 0]	n/a	FR1	0	R1350D
3544.648	1.047	3499608	WORD_OFF	n/a	n/a	MAP	4	20	[0, 0, 0]	n/a	FR1	0	R1350D
3545.695	1.637	3500655	WORD	n/a	n/a	HORN	5	20	[0, 0, 0]	n/a	FR1	0	R1350D
3547.332	1.033	3502292	WORD_OFF	n/a	n/a	HORN	5	20	[0, 0, 0]	n/a	FR1	0	R1350D
3548.365	1.635	3503325	WORD	n/a	n/a	RIB	6	20	[0, 0, 0]	n/a	FR1	0	R1350D
3550.0	1.049	3504960	WORD_OFF	n/a	n/a	RIB	6	20	[0, 0, 0]	n/a	FR1	0	R1350D
3551.049	1.634	3506008	WORD	n/a	n/a	SUIT	7	20	[0, 0, 0]	n/a	FR1	0	R1350D
3552.683	1.13	3507642	WORD_OFF	n/a	n/a	SUIT	7	20	[0, 0, 0]	n/a	FR1	0	R1350D
3553.813	1.621	3508772	WORD	n/a	n/a	TEA	8	20	[0, 0, 0]	n/a	FR1	0	R1350D
3555.434	0.84	3510393	WORD_OFF	n/a	n/a	TEA	8	20	[0, 0, 0]	n/a	FR1	0	R1350D
3556.274	1.611	3511233	WORD	n/a	n/a	JEEP	9	20	[0, 0, 0]	n/a	FR1	0	R1350D
3557.885	0.776	3512844	WORD_OFF	n/a	n/a	JEEP	9	20	[0, 0, 0]	n/a	FR1	0	R1350D
3558.661	1.624	3513620	WORD	n/a	n/a	PLANT	10	20	[0, 0, 0]	n/a	FR1	0	R1350D
3560.285	0.939	3515244	WORD_OFF	n/a	n/a	PLANT	10	20	[0, 0, 0]	n/a	FR1	0	R1350D
3561.224	1.629	3516183	WORD	n/a	n/a	SUN	11	20	[0, 0, 0]	n/a	FR1	0	R1350D
3562.853	0.87	3517812	WORD_OFF	n/a	n/a	SUN	11	20	[0, 0, 0]	n/a	FR1	0	R1350D
3563.723	1.629	3518682	WORD	n/a	n/a	HAT	12	20	[0, 0, 0]	n/a	FR1	0	R1350D
3565.352	0.0	3520311	WORD_OFF	n/a	n/a	HAT	12	20	[0, 0, 0]	n/a	FR1	0	R1350D
3565.352	0.0	3520311	ENCODING_END	n/a	n/a	n/a	-999	20	[0, 0, 0]	n/a	FR1	0	R1350D
3565.352	0.002	3520311	DISTRACT_START	n/a	n/a	n/a	-999	20	[0, 0, 0]	n/a	FR1	0	R1350D
3565.354	0.015	3520313	START	n/a	n/a	n/a	-999	20	[-999, -999, -999]	n/a	FR1	0	R1350D
3565.369	3.767	3520328	PROB	3.767	n/a	n/a	-999	20	[6, 4, 5]	15	FR1	0	R1350D
3569.136	4.619	3524095	PROB	4.619	n/a	n/a	-999	20	[9, 7, 7]	22	FR1	0	R1350D
3573.755	4.916	3528713	PROB	4.916	n/a	n/a	-999	20	[5, 2, 9]	16	FR1	0	R1350D
3578.671	4.901	3533629	PROB	4.901	n/a	n/a	-999	20	[6, 8, 9]	23	FR1	0	R1350D
3583.572	3.755	3538530	PROB	3.755	n/a	n/a	-999	20	[3, 6, 7]	16	FR1	0	R1350D
3587.327	0.013	3542285	STOP	n/a	n/a	n/a	-999	20	[-999, -999, -999]	n/a	FR1	0	R1350D
3587.34	1.266	3542298	DISTRACT_END	n/a	n/a	n/a	-999	20	[0, 0, 0]	n/a	FR1	0	R1350D
3588.606	1.034	3543564	RETRIEVAL_ORIENT_START	n/a	n/a	n/a	-999	20	[0, 0, 0]	n/a	FR1	0	R1350D
3589.64	0.0	3544597	RETRIEVAL_ORIENT_END	n/a	n/a	n/a	-999	20	[0, 0, 0]	n/a	FR1	0	R1350D
3589.64	2.019	3544597	REC_START	n/a	n/a	n/a	-999	20	[0, 0, 0]	n/a	FR1	0	R1350D
3591.659	2.005	3546616	REC_WORD	2.005	n/a	MAZE	1	20	[0, 0, 0]	n/a	FR1	0	R1350D
3593.664	2.313	3548621	REC_WORD	2.313	n/a	SHRIMP	3	20	[0, 0, 0]	n/a	FR1	0	R1350D
3595.977	4.047	3550934	REC_WORD	4.047	n/a	HAT	12	20	[0, 0, 0]	n/a	FR1	0	R1350D
3600.024	4.865	3554981	REC_WORD	4.865	n/a	MAP	4	20	[0, 0, 0]	n/a	FR1	0	R1350D
3604.889	15.263	3559846	REC_WORD	15.263	n/a	TEA	8	20	[0, 0, 0]	n/a	FR1	0	R1350D
3620.152	0.0	3575108	REC_END	n/a	n/a	n/a	-999	20	[0, 0, 0]	n/a	FR1	0	R1350D
3620.152	0.0	3575108	TRIAL_END	n/a	n/a	n/a	-999	20	[0, 0, 0]	n/a	FR1	0	R1350D
3620.152	0.0	3575108	TRIAL_START	n/a	n/a	n/a	-999	21	[0, 0, 0]	n/a	FR1	0	R1350D
3620.152	0.0	3575108	TRIAL	n/a	n/a	n/a	-999	21	[0, 0, 0]	n/a	FR1	0	R1350D
3620.152	1.277	3575108	WAITING_START	n/a	n/a	n/a	-999	21	[0, 0, 0]	n/a	FR1	0	R1350D
3621.429	0.0	3576385	WAITING_END	n/a	n/a	n/a	-999	21	[0, 0, 0]	n/a	FR1	0	R1350D
3621.429	0.0	3576385	COUNTDOWN_START	n/a	n/a	n/a	-999	21	[0, 0, 0]	n/a	FR1	0	R1350D
3621.429	0.0	3576385	COUNTDOWN_END	n/a	n/a	n/a	-999	21	[0, 0, 0]	n/a	FR1	0	R1350D
3621.429	11.669	3576385	ORIENT_START	n/a	n/a	n/a	-999	21	[0, 0, 0]	n/a	FR1	0	R1350D
3633.098	0.0	3588053	ORIENT_END	n/a	n/a	n/a	-999	21	[0, 0, 0]	n/a	FR1	0	R1350D
3633.098	0.79	3588053	ENCODING_START	n/a	n/a	n/a	-999	21	[0, 0, 0]	n/a	FR1	0	R1350D
3633.888	1.627	3588843	WORD	n/a	n/a	ZOO	1	21	[0, 0, 0]	n/a	FR1	0	R1350D
3635.515	0.905	3590470	WORD_OFF	n/a	n/a	ZOO	1	21	[0, 0, 0]	n/a	FR1	0	R1350D
3636.42	1.629	3591375	WORD	n/a	n/a	LEG	2	21	[0, 0, 0]	n/a	FR1	0	R1350D
3638.049	0.756	3593004	WORD_OFF	n/a	n/a	LEG	2	21	[0, 0, 0]	n/a	FR1	0	R1350D
3638.805	1.627	3593760	WORD	n/a	n/a	GOLD	3	21	[0, 0, 0]	n/a	FR1	0	R1350D
3640.432	0.814	3595387	WORD_OFF	n/a	n/a	GOLD	3	21	[0, 0, 0]	n/a	FR1	0	R1350D
3641.246	1.621	3596201	WORD	n/a	n/a	FILM	4	21	[0, 0, 0]	n/a	FR1	0	R1350D
3642.867	0.96	3597822	WORD_OFF	n/a	n/a	FILM	4	21	[0, 0, 0]	n/a	FR1	0	R1350D
3643.827	1.623	3598782	WORD	n/a	n/a	EGG	5	21	[0, 0, 0]	n/a	FR1	0	R1350D
3645.45	0.849	3600405	WORD_OFF	n/a	n/a	EGG	5	21	[0, 0, 0]	n/a	FR1	0	R1350D
3646.299	1.636	3601254	WORD	n/a	n/a	WAVE	6	21	[0, 0, 0]	n/a	FR1	0	R1350D
3647.935	0.785	3602889	WORD_OFF	n/a	n/a	WAVE	6	21	[0, 0, 0]	n/a	FR1	0	R1350D
3648.72	1.631	3603674	WORD	n/a	n/a	TOE	7	21	[0, 0, 0]	n/a	FR1	0	R1350D
3650.351	1.075	3605305	WORD_OFF	n/a	n/a	TOE	7	21	[0, 0, 0]	n/a	FR1	0	R1350D
3651.426	1.626	3606380	WORD	n/a	n/a	FLOOR	8	21	[0, 0, 0]	n/a	FR1	0	R1350D
3653.052	0.764	3608006	WORD_OFF	n/a	n/a	FLOOR	8	21	[0, 0, 0]	n/a	FR1	0	R1350D
3653.816	1.636	3608770	WORD	n/a	n/a	ROPE	9	21	[0, 0, 0]	n/a	FR1	0	R1350D
3655.452	1.062	3610406	WORD_OFF	n/a	n/a	ROPE	9	21	[0, 0, 0]	n/a	FR1	0	R1350D
3656.514	1.622	3611468	WORD	n/a	n/a	OAK	10	21	[0, 0, 0]	n/a	FR1	0	R1350D
3658.136	0.804	3613090	WORD_OFF	n/a	n/a	OAK	10	21	[0, 0, 0]	n/a	FR1	0	R1350D
3658.94	1.63	3613894	WORD	n/a	n/a	ROAD	11	21	[0, 0, 0]	n/a	FR1	0	R1350D
3660.57	0.998	3615524	WORD_OFF	n/a	n/a	ROAD	11	21	[0, 0, 0]	n/a	FR1	0	R1350D
3661.568	1.619	3616522	WORD	n/a	n/a	PIT	12	21	[0, 0, 0]	n/a	FR1	0	R1350D
3663.187	0.0	3618141	WORD_OFF	n/a	n/a	PIT	12	21	[0, 0, 0]	n/a	FR1	0	R1350D
3663.187	0.0	3618141	ENCODING_END	n/a	n/a	n/a	-999	21	[0, 0, 0]	n/a	FR1	0	R1350D
3663.187	0.001	3618141	DISTRACT_START	n/a	n/a	n/a	-999	21	[0, 0, 0]	n/a	FR1	0	R1350D
3663.188	0.015	3618142	START	n/a	n/a	n/a	-999	21	[-999, -999, -999]	n/a	FR1	0	R1350D
3663.203	3.301	3618157	PROB	3.301	n/a	n/a	-999	21	[4, 5, 3]	12	FR1	0	R1350D
3666.504	3.418	3621457	PROB	3.418	n/a	n/a	-999	21	[4, 4, 3]	11	FR1	0	R1350D
3669.922	3.317	3624875	PROB	3.317	n/a	n/a	-999	21	[2, 5, 3]	10	FR1	0	R1350D
3673.239	3.25	3628192	PROB	3.25	n/a	n/a	-999	21	[9, 7, 1]	17	FR1	0	R1350D
3676.489	3.335	3631442	PROB	3.335	n/a	n/a	-999	21	[5, 6, 4]	15	FR1	0	R1350D
3679.824	3.183	3634777	PROB	3.183	n/a	n/a	-999	21	[6, 3, 1]	10	FR1	0	R1350D
3683.007	5.394	3637960	PROB	5.394	n/a	n/a	-999	21	[7, 4, 6]	17	FR1	0	R1350D
3688.401	0.007	3643353	STOP	n/a	n/a	n/a	-999	21	[-999, -999, -999]	n/a	FR1	0	R1350D
3688.408	1.067	3643360	DISTRACT_END	n/a	n/a	n/a	-999	21	[0, 0, 0]	n/a	FR1	0	R1350D
3689.475	1.033	3644427	RETRIEVAL_ORIENT_START	n/a	n/a	n/a	-999	21	[0, 0, 0]	n/a	FR1	0	R1350D
3690.508	0.0	3645460	RETRIEVAL_ORIENT_END	n/a	n/a	n/a	-999	21	[0, 0, 0]	n/a	FR1	0	R1350D
3690.508	1.761	3645460	REC_START	n/a	n/a	n/a	-999	21	[0, 0, 0]	n/a	FR1	0	R1350D
3692.269	1.91	3647221	REC_WORD	1.91	n/a	ZOO	1	21	[0, 0, 0]	n/a	FR1	0	R1350D
3694.179	2.402	3649131	REC_WORD	2.402	n/a	LEG	2	21	[0, 0, 0]	n/a	FR1	0	R1350D
3696.581	3.589	3651533	REC_WORD	3.589	n/a	GOLD	3	21	[0, 0, 0]	n/a	FR1	0	R1350D
3700.17	2.977	3655122	REC_WORD	2.977	n/a	TOE	7	21	[0, 0, 0]	n/a	FR1	0	R1350D
3703.147	5.079	3658099	REC_WORD	5.079	n/a	FLOOR	8	21	[0, 0, 0]	n/a	FR1	0	R1350D
3708.226	3.008	3663177	REC_WORD	3.008	n/a	ROPE	9	21	[0, 0, 0]	n/a	FR1	0	R1350D
3711.234	9.785	3666185	REC_WORD	9.785	n/a	HOLE	-999	21	[0, 0, 0]	n/a	FR1	0	R1350D
3721.019	0.0	3675970	WAITING_START	n/a	n/a	n/a	-999	22	[0, 0, 0]	n/a	FR1	0	R1350D
3721.019	0.0	3675970	TRIAL	n/a	n/a	n/a	-999	22	[0, 0, 0]	n/a	FR1	0	R1350D
3721.019	0.0	3675970	TRIAL_END	n/a	n/a	n/a	-999	21	[0, 0, 0]	n/a	FR1	0	R1350D
3721.019	0.0	3675970	TRIAL_START	n/a	n/a	n/a	-999	22	[0, 0, 0]	n/a	FR1	0	R1350D
3721.019	2.245	3675970	REC_END	n/a	n/a	n/a	-999	21	[0, 0, 0]	n/a	FR1	0	R1350D
3723.264	0.0	3678214	WAITING_END	n/a	n/a	n/a	-999	22	[0, 0, 0]	n/a	FR1	0	R1350D
3723.264	0.0	3678214	COUNTDOWN_START	n/a	n/a	n/a	-999	22	[0, 0, 0]	n/a	FR1	0	R1350D
3723.264	0.0	3678214	COUNTDOWN_END	n/a	n/a	n/a	-999	22	[0, 0, 0]	n/a	FR1	0	R1350D
3723.264	11.503	3678214	ORIENT_START	n/a	n/a	n/a	-999	22	[0, 0, 0]	n/a	FR1	0	R1350D
3734.767	0.0	3689717	ORIENT_END	n/a	n/a	n/a	-999	22	[0, 0, 0]	n/a	FR1	0	R1350D
3734.767	0.949	3689717	ENCODING_START	n/a	n/a	n/a	-999	22	[0, 0, 0]	n/a	FR1	0	R1350D
3735.716	1.634	3690666	WORD	n/a	n/a	BOARD	1	22	[0, 0, 0]	n/a	FR1	0	R1350D
3737.35	0.79	3692300	WORD_OFF	n/a	n/a	BOARD	1	22	[0, 0, 0]	n/a	FR1	0	R1350D
3738.14	1.628	3693090	WORD	n/a	n/a	VEST	2	22	[0, 0, 0]	n/a	FR1	0	R1350D
3739.768	0.78	3694718	WORD_OFF	n/a	n/a	VEST	2	22	[0, 0, 0]	n/a	FR1	0	R1350D
3740.548	1.636	3695498	WORD	n/a	n/a	NEST	3	22	[0, 0, 0]	n/a	FR1	0	R1350D
3742.184	0.889	3697133	WORD_OFF	n/a	n/a	NEST	3	22	[0, 0, 0]	n/a	FR1	0	R1350D
3743.073	1.63	3698022	WORD	n/a	n/a	TOOTH	4	22	[0, 0, 0]	n/a	FR1	0	R1350D
3744.703	0.856	3699652	WORD_OFF	n/a	n/a	TOOTH	4	22	[0, 0, 0]	n/a	FR1	0	R1350D
3745.559	1.626	3700508	WORD	n/a	n/a	CAVE	5	22	[0, 0, 0]	n/a	FR1	0	R1350D
3747.185	0.924	3702134	WORD_OFF	n/a	n/a	CAVE	5	22	[0, 0, 0]	n/a	FR1	0	R1350D
3748.109	1.611	3703058	WORD	n/a	n/a	PLANE	6	22	[0, 0, 0]	n/a	FR1	0	R1350D
3749.72	0.843	3704669	WORD_OFF	n/a	n/a	PLANE	6	22	[0, 0, 0]	n/a	FR1	0	R1350D
3750.563	1.623	3705512	WORD	n/a	n/a	ICE	7	22	[0, 0, 0]	n/a	FR1	0	R1350D
3752.186	0.934	3707135	WORD_OFF	n/a	n/a	ICE	7	22	[0, 0, 0]	n/a	FR1	0	R1350D
3753.12	1.618	3708069	WORD	n/a	n/a	SHEEP	8	22	[0, 0, 0]	n/a	FR1	0	R1350D
3754.738	0.942	3709687	WORD_OFF	n/a	n/a	SHEEP	8	22	[0, 0, 0]	n/a	FR1	0	R1350D
3755.68	1.624	3710629	WORD	n/a	n/a	FRUIT	9	22	[0, 0, 0]	n/a	FR1	0	R1350D
3757.304	0.838	3712253	WORD_OFF	n/a	n/a	FRUIT	9	22	[0, 0, 0]	n/a	FR1	0	R1350D
3758.142	1.63	3713091	WORD	n/a	n/a	ROSE	10	22	[0, 0, 0]	n/a	FR1	0	R1350D
3759.772	1.11	3714721	WORD_OFF	n/a	n/a	ROSE	10	22	[0, 0, 0]	n/a	FR1	0	R1350D
3760.882	1.623	3715831	WORD	n/a	n/a	CROWN	11	22	[0, 0, 0]	n/a	FR1	0	R1350D
3762.505	1.037	3717453	WORD_OFF	n/a	n/a	CROWN	11	22	[0, 0, 0]	n/a	FR1	0	R1350D
3763.542	1.63	3718490	WORD	n/a	n/a	FOG	12	22	[0, 0, 0]	n/a	FR1	0	R1350D
3765.172	0.0	3720120	WORD_OFF	n/a	n/a	FOG	12	22	[0, 0, 0]	n/a	FR1	0	R1350D
3765.172	0.0	3720120	ENCODING_END	n/a	n/a	n/a	-999	22	[0, 0, 0]	n/a	FR1	0	R1350D
3765.172	0.001	3720120	DISTRACT_START	n/a	n/a	n/a	-999	22	[0, 0, 0]	n/a	FR1	0	R1350D
3765.173	0.016	3720121	START	n/a	n/a	n/a	-999	22	[-999, -999, -999]	n/a	FR1	0	R1350D
3765.189	3.967	3720137	PROB	3.967	n/a	n/a	-999	22	[4, 8, 1]	13	FR1	0	R1350D
3769.156	3.084	3724104	PROB	3.084	n/a	n/a	-999	22	[4, 5, 2]	11	FR1	0	R1350D
3772.24	3.017	3727188	PROB	3.017	n/a	n/a	-999	22	[1, 7, 1]	9	FR1	0	R1350D
3775.257	3.017	3730205	PROB	3.017	n/a	n/a	-999	22	[1, 2, 7]	10	FR1	0	R1350D
3778.274	4.901	3733222	PROB	4.901	n/a	n/a	-999	22	[3, 7, 9]	19	FR1	0	R1350D
3783.175	3.416	3738122	PROB	3.416	n/a	n/a	-999	22	[5, 5, 4]	14	FR1	0	R1350D
3786.591	0.018	3741538	STOP	n/a	n/a	n/a	-999	22	[-999, -999, -999]	n/a	FR1	0	R1350D
3786.609	1.138	3741556	DISTRACT_END	n/a	n/a	n/a	-999	22	[0, 0, 0]	n/a	FR1	0	R1350D
3787.747	1.03	3742694	RETRIEVAL_ORIENT_START	n/a	n/a	n/a	-999	22	[0, 0, 0]	n/a	FR1	0	R1350D
3788.777	0.0	3743724	REC_START	n/a	n/a	n/a	-999	22	[0, 0, 0]	n/a	FR1	0	R1350D
3788.777	2.306	3743724	RETRIEVAL_ORIENT_END	n/a	n/a	n/a	-999	22	[0, 0, 0]	n/a	FR1	0	R1350D
3791.083	1.715	3746030	REC_WORD	1.715	n/a	CAVE	5	22	[0, 0, 0]	n/a	FR1	0	R1350D
3792.798	1.816	3747745	REC_WORD	1.816	n/a	ICE	7	22	[0, 0, 0]	n/a	FR1	0	R1350D
3794.614	2.644	3749561	REC_WORD	2.644	n/a	NEST	3	22	[0, 0, 0]	n/a	FR1	0	R1350D
3797.258	1.554	3752205	REC_WORD	1.554	n/a	TEETH	-999	22	[0, 0, 0]	n/a	FR1	0	R1350D
3798.812	8.096	3753759	REC_WORD	8.096	n/a	FOG	12	22	[0, 0, 0]	n/a	FR1	0	R1350D
3806.908	12.379	3761854	REC_WORD	12.379	n/a	PLANE	6	22	[0, 0, 0]	n/a	FR1	0	R1350D
3819.287	0.0	3774232	REC_END	n/a	n/a	n/a	-999	22	[0, 0, 0]	n/a	FR1	0	R1350D
3819.287	0.0	3774232	TRIAL_END	n/a	n/a	n/a	-999	22	[0, 0, 0]	n/a	FR1	0	R1350D
3819.287	0.0	3774232	TRIAL_START	n/a	n/a	n/a	-999	23	[0, 0, 0]	n/a	FR1	0	R1350D
3819.287	0.0	3774232	TRIAL	n/a	n/a	n/a	-999	23	[0, 0, 0]	n/a	FR1	0	R1350D
3819.287	2.245	3774232	WAITING_START	n/a	n/a	n/a	-999	23	[0, 0, 0]	n/a	FR1	0	R1350D
3821.532	0.0	3776477	WAITING_END	n/a	n/a	n/a	-999	23	[0, 0, 0]	n/a	FR1	0	R1350D
3821.532	0.0	3776477	COUNTDOWN_START	n/a	n/a	n/a	-999	23	[0, 0, 0]	n/a	FR1	0	R1350D
3821.532	0.0	3776477	COUNTDOWN_END	n/a	n/a	n/a	-999	23	[0, 0, 0]	n/a	FR1	0	R1350D
3821.532	11.486	3776477	ORIENT_START	n/a	n/a	n/a	-999	23	[0, 0, 0]	n/a	FR1	0	R1350D
3833.018	0.0	3787963	ORIENT_END	n/a	n/a	n/a	-999	23	[0, 0, 0]	n/a	FR1	0	R1350D
3833.018	1.106	3787963	ENCODING_START	n/a	n/a	n/a	-999	23	[0, 0, 0]	n/a	FR1	0	R1350D
3834.124	1.612	3789069	WORD	n/a	n/a	CHAIR	1	23	[0, 0, 0]	n/a	FR1	0	R1350D
3835.736	0.805	3790681	WORD_OFF	n/a	n/a	CHAIR	1	23	[0, 0, 0]	n/a	FR1	0	R1350D
3836.541	1.628	3791486	WORD	n/a	n/a	FOOD	2	23	[0, 0, 0]	n/a	FR1	0	R1350D
3838.169	0.84	3793113	WORD_OFF	n/a	n/a	FOOD	2	23	[0, 0, 0]	n/a	FR1	0	R1350D
3839.009	1.627	3793953	WORD	n/a	n/a	DITCH	3	23	[0, 0, 0]	n/a	FR1	0	R1350D
3840.636	0.938	3795580	WORD_OFF	n/a	n/a	DITCH	3	23	[0, 0, 0]	n/a	FR1	0	R1350D
3841.574	1.629	3796518	WORD	n/a	n/a	STRAW	4	23	[0, 0, 0]	n/a	FR1	0	R1350D
3843.203	0.912	3798147	WORD_OFF	n/a	n/a	STRAW	4	23	[0, 0, 0]	n/a	FR1	0	R1350D
3844.115	1.623	3799059	WORD	n/a	n/a	FLUTE	5	23	[0, 0, 0]	n/a	FR1	0	R1350D
3845.738	1.125	3800682	WORD_OFF	n/a	n/a	FLUTE	5	23	[0, 0, 0]	n/a	FR1	0	R1350D
3846.863	1.624	3801807	WORD	n/a	n/a	COIN	6	23	[0, 0, 0]	n/a	FR1	0	R1350D
3848.487	0.867	3803431	WORD_OFF	n/a	n/a	COIN	6	23	[0, 0, 0]	n/a	FR1	0	R1350D
3849.354	1.635	3804298	WORD	n/a	n/a	CLIFF	7	23	[0, 0, 0]	n/a	FR1	0	R1350D
3850.989	1.105	3805933	WORD_OFF	n/a	n/a	CLIFF	7	23	[0, 0, 0]	n/a	FR1	0	R1350D
3852.094	1.628	3807038	WORD	n/a	n/a	JUDGE	8	23	[0, 0, 0]	n/a	FR1	0	R1350D
3853.722	0.817	3808666	WORD_OFF	n/a	n/a	JUDGE	8	23	[0, 0, 0]	n/a	FR1	0	R1350D
3854.539	1.633	3809483	WORD	n/a	n/a	LAMP	9	23	[0, 0, 0]	n/a	FR1	0	R1350D
3856.172	1.101	3811116	WORD_OFF	n/a	n/a	LAMP	9	23	[0, 0, 0]	n/a	FR1	0	R1350D
3857.273	1.634	3812216	WORD	n/a	n/a	SAIL	10	23	[0, 0, 0]	n/a	FR1	0	R1350D
3858.907	0.779	3813850	WORD_OFF	n/a	n/a	SAIL	10	23	[0, 0, 0]	n/a	FR1	0	R1350D
3859.686	1.637	3814629	WORD	n/a	n/a	FORT	11	23	[0, 0, 0]	n/a	FR1	0	R1350D
3861.323	1.147	3816266	WORD_OFF	n/a	n/a	FORT	11	23	[0, 0, 0]	n/a	FR1	0	R1350D
3862.47	1.637	3817413	WORD	n/a	n/a	STEAK	12	23	[0, 0, 0]	n/a	FR1	0	R1350D
3864.107	0.0	3819050	ENCODING_END	n/a	n/a	n/a	-999	23	[0, 0, 0]	n/a	FR1	0	R1350D
