onset	duration	sample	trial_type	response_time	stim_file	item_name	serialpos	list	test	answer	experiment	session	subject
0.0	26.118	28400	SESS_START	n/a	n/a	n/a	-999	-999	[0, 0, 0]	n/a	FR1	1	R1153T
26.118	10.428	54517	COUNTDOWN_START	n/a	n/a	n/a	-999	-999	[0, 0, 0]	n/a	FR1	1	R1153T
36.546	3.793	64944	COUNTDOWN_END	n/a	n/a	n/a	-999	-999	[0, 0, 0]	n/a	FR1	1	R1153T
40.339	2.482	68737	PRACTICE_WORD	n/a	n/a	FLOOD	1	-1	[0, 0, 0]	n/a	FR1	1	R1153T
42.821	2.502	71219	PRACTICE_WORD	n/a	n/a	ATTIC	2	-1	[0, 0, 0]	n/a	FR1	1	R1153T
45.323	2.583	73721	PRACTICE_WORD	n/a	n/a	COTTON	3	-1	[0, 0, 0]	n/a	FR1	1	R1153T
47.906	2.434	76304	PRACTICE_WORD	n/a	n/a	CAMEL	4	-1	[0, 0, 0]	n/a	FR1	1	R1153T
50.34	2.617	78738	PRACTICE_WORD	n/a	n/a	RING	5	-1	[0, 0, 0]	n/a	FR1	1	R1153T
52.957	2.601	81355	PRACTICE_WORD	n/a	n/a	TONGUE	6	-1	[0, 0, 0]	n/a	FR1	1	R1153T
55.558	2.583	83955	PRACTICE_WORD	n/a	n/a	WAGON	7	-1	[0, 0, 0]	n/a	FR1	1	R1153T
58.141	2.435	86538	PRACTICE_WORD	n/a	n/a	IRON	8	-1	[0, 0, 0]	n/a	FR1	1	R1153T
60.576	2.482	88973	PRACTICE_WORD	n/a	n/a	BEAM	9	-1	[0, 0, 0]	n/a	FR1	1	R1153T
63.058	2.569	91455	PRACTICE_WORD	n/a	n/a	CHEST	10	-1	[0, 0, 0]	n/a	FR1	1	R1153T
65.627	2.532	94024	PRACTICE_WORD	n/a	n/a	RHINO	11	-1	[0, 0, 0]	n/a	FR1	1	R1153T
68.159	1.617	96556	PRACTICE_WORD	n/a	n/a	WATCH	12	-1	[0, 0, 0]	n/a	FR1	1	R1153T
69.776	0.001	98173	PRACTICE_DISTRACT_START	n/a	n/a	n/a	-999	-1	[0, 0, 0]	n/a	FR1	1	R1153T
69.777	0.016	98174	START	n/a	n/a	n/a	-999	-1	[-999, -999, -999]	n/a	FR1	1	R1153T
69.793	4.785	98190	PROB	4.785	n/a	n/a	-999	-1	[3, 3, 9]	15	FR1	1	R1153T
74.578	9.251	102975	PROB	9.251	n/a	n/a	-999	-1	[9, 3, 8]	20	FR1	1	R1153T
83.829	4.251	112225	PROB	4.251	n/a	n/a	-999	-1	[2, 9, 7]	18	FR1	1	R1153T
88.08	3.941	116476	PROB	3.941	n/a	n/a	-999	-1	[5, 5, 2]	12	FR1	1	R1153T
92.021	0.009	120417	STOP	n/a	n/a	n/a	-999	-1	[-999, -999, -999]	n/a	FR1	1	R1153T
92.03	0.604	120426	PRACTICE_DISTRACT_END	n/a	n/a	n/a	-999	-1	[0, 0, 0]	n/a	FR1	1	R1153T
92.634	30.513	121030	PRACTICE_REC_START	n/a	n/a	n/a	-999	-1	[0, 0, 0]	n/a	FR1	1	R1153T
123.147	51.349	151541	PRACTICE_REC_END	n/a	n/a	n/a	-999	-1	[0, 0, 0]	n/a	FR1	1	R1153T
174.496	0.0	202888	TRIAL	n/a	n/a	n/a	-999	1	[0, 0, 0]	n/a	FR1	1	R1153T
174.496	10.428	202888	COUNTDOWN_START	n/a	n/a	n/a	-999	1	[0, 0, 0]	n/a	FR1	1	R1153T
184.924	0.007	213315	COUNTDOWN_END	n/a	n/a	n/a	-999	1	[0, 0, 0]	n/a	FR1	1	R1153T
184.931	2.468	213322	ORIENT	n/a	n/a	n/a	-999	1	[0, 0, 0]	n/a	FR1	1	R1153T
187.399	2.532	215790	WORD	n/a	wordpools/wordpool_EN.txt	MAT	1	1	[0, 0, 0]	n/a	FR1	1	R1153T
189.931	2.518	218322	WORD	n/a	wordpools/wordpool_EN.txt	HOOK	2	1	[0, 0, 0]	n/a	FR1	1	R1153T
192.449	2.583	220840	WORD	n/a	wordpools/wordpool_EN.txt	MOOSE	3	1	[0, 0, 0]	n/a	FR1	1	R1153T
195.032	2.552	223423	WORD	n/a	wordpools/wordpool_EN.txt	SKY	4	1	[0, 0, 0]	n/a	FR1	1	R1153T
197.584	2.483	225975	WORD	n/a	wordpools/wordpool_EN.txt	SUN	5	1	[0, 0, 0]	n/a	FR1	1	R1153T
200.067	2.384	228457	WORD	n/a	wordpools/wordpool_EN.txt	BEACH	6	1	[0, 0, 0]	n/a	FR1	1	R1153T
202.451	2.616	230841	WORD	n/a	wordpools/wordpool_EN.txt	DOCK	7	1	[0, 0, 0]	n/a	FR1	1	R1153T
205.067	2.419	233457	WORD	n/a	wordpools/wordpool_EN.txt	WAVE	8	1	[0, 0, 0]	n/a	FR1	1	R1153T
207.486	2.449	235876	WORD	n/a	wordpools/wordpool_EN.txt	FLAG	9	1	[0, 0, 0]	n/a	FR1	1	R1153T
209.935	2.602	238325	WORD	n/a	wordpools/wordpool_EN.txt	EAR	10	1	[0, 0, 0]	n/a	FR1	1	R1153T
212.537	2.549	240927	WORD	n/a	wordpools/wordpool_EN.txt	SPEAR	11	1	[0, 0, 0]	n/a	FR1	1	R1153T
215.086	1.617	243476	WORD	n/a	wordpools/wordpool_EN.txt	BADGE	12	1	[0, 0, 0]	n/a	FR1	1	R1153T
216.703	0.001	245093	DISTRACT_START	n/a	n/a	n/a	-999	1	[0, 0, 0]	n/a	FR1	1	R1153T
216.704	0.016	245094	START	n/a	n/a	n/a	-999	1	[-999, -999, -999]	n/a	FR1	1	R1153T
216.72	7.301	245110	PROB	7.301	n/a	n/a	-999	1	[8, 1, 5]	14	FR1	1	R1153T
224.021	13.352	252410	PROB	13.352	n/a	n/a	-999	1	[7, 8, 6]	21	FR1	1	R1153T
237.373	0.018	265762	STOP	n/a	n/a	n/a	-999	1	[-999, -999, -999]	n/a	FR1	1	R1153T
237.391	1.138	265780	DISTRACT_END	n/a	n/a	n/a	-999	1	[0, 0, 0]	n/a	FR1	1	R1153T
238.529	1.343	266918	REC_START	n/a	n/a	n/a	-999	1	[0, 0, 0]	n/a	FR1	1	R1153T
239.872	1.46	268261	REC_WORD	1.46	n/a	SKY	4	1	[0, 0, 0]	n/a	FR1	1	R1153T
241.332	1.723	269721	REC_WORD	1.723	n/a	EAR	10	1	[0, 0, 0]	n/a	FR1	1	R1153T
243.055	1.741	271443	REC_WORD	1.741	n/a	HOOK	2	1	[0, 0, 0]	n/a	FR1	1	R1153T
244.796	19.871	273184	REC_WORD	19.871	n/a	FEAR	-999	1	[0, 0, 0]	n/a	FR1	1	R1153T
264.667	3.869	293054	REC_WORD	3.869	n/a	MEAT	-999	1	[0, 0, 0]	n/a	FR1	1	R1153T
268.536	7.244	296923	REC_END	n/a	n/a	n/a	-999	1	[0, 0, 0]	n/a	FR1	1	R1153T
275.78	0.0	304167	COUNTDOWN_START	n/a	n/a	n/a	-999	2	[0, 0, 0]	n/a	FR1	1	R1153T
275.78	10.428	304167	TRIAL	n/a	n/a	n/a	-999	2	[0, 0, 0]	n/a	FR1	1	R1153T
286.208	0.008	314594	COUNTDOWN_END	n/a	n/a	n/a	-999	2	[0, 0, 0]	n/a	FR1	1	R1153T
286.216	2.483	314602	ORIENT	n/a	n/a	n/a	-999	2	[0, 0, 0]	n/a	FR1	1	R1153T
288.699	2.451	317085	WORD	n/a	wordpools/wordpool_EN.txt	PIE	1	2	[0, 0, 0]	n/a	FR1	1	R1153T
291.15	2.418	319536	WORD	n/a	wordpools/wordpool_EN.txt	CUP	2	2	[0, 0, 0]	n/a	FR1	1	R1153T
293.568	2.399	321954	WORD	n/a	wordpools/wordpool_EN.txt	SEAT	3	2	[0, 0, 0]	n/a	FR1	1	R1153T
295.967	2.585	324353	WORD	n/a	wordpools/wordpool_EN.txt	SINK	4	2	[0, 0, 0]	n/a	FR1	1	R1153T
298.552	2.616	326938	WORD	n/a	wordpools/wordpool_EN.txt	SMILE	5	2	[0, 0, 0]	n/a	FR1	1	R1153T
301.168	2.501	329554	WORD	n/a	wordpools/wordpool_EN.txt	VEST	6	2	[0, 0, 0]	n/a	FR1	1	R1153T
303.669	2.433	332054	WORD	n/a	wordpools/wordpool_EN.txt	OAR	7	2	[0, 0, 0]	n/a	FR1	1	R1153T
306.102	2.402	334487	WORD	n/a	wordpools/wordpool_EN.txt	PEACH	8	2	[0, 0, 0]	n/a	FR1	1	R1153T
308.504	2.599	336889	WORD	n/a	wordpools/wordpool_EN.txt	CAKE	9	2	[0, 0, 0]	n/a	FR1	1	R1153T
311.103	2.601	339488	WORD	n/a	wordpools/wordpool_EN.txt	SHIELD	10	2	[0, 0, 0]	n/a	FR1	1	R1153T
313.704	2.434	342089	WORD	n/a	wordpools/wordpool_EN.txt	GLOVE	11	2	[0, 0, 0]	n/a	FR1	1	R1153T
316.138	1.617	344523	WORD	n/a	wordpools/wordpool_EN.txt	DIME	12	2	[0, 0, 0]	n/a	FR1	1	R1153T
317.755	0.0	346140	DISTRACT_START	n/a	n/a	n/a	-999	2	[0, 0, 0]	n/a	FR1	1	R1153T
317.755	0.016	346140	START	n/a	n/a	n/a	-999	2	[-999, -999, -999]	n/a	FR1	1	R1153T
317.771	9.002	346156	PROB	9.002	n/a	n/a	-999	2	[5, 5, 9]	19	FR1	1	R1153T
326.773	3.552	355157	PROB	3.552	n/a	n/a	-999	2	[9, 5, 6]	20	FR1	1	R1153T
330.325	4.349	358709	PROB	4.349	n/a	n/a	-999	2	[4, 1, 5]	10	FR1	1	R1153T
334.674	4.45	363058	PROB	4.45	n/a	n/a	-999	2	[3, 1, 9]	13	FR1	1	R1153T
339.124	0.018	367508	STOP	n/a	n/a	n/a	-999	2	[-999, -999, -999]	n/a	FR1	1	R1153T
339.142	1.218	367526	DISTRACT_END	n/a	n/a	n/a	-999	2	[0, 0, 0]	n/a	FR1	1	R1153T
340.36	8.614	368744	REC_START	n/a	n/a	n/a	-999	2	[0, 0, 0]	n/a	FR1	1	R1153T
348.974	3.883	377357	REC_WORD	3.883	n/a	SUN	-999	2	[0, 0, 0]	n/a	FR1	1	R1153T
352.857	17.514	381240	REC_WORD	17.514	n/a	EAR	-999	2	[0, 0, 0]	n/a	FR1	1	R1153T
370.371	5.861	398753	REC_END	n/a	n/a	n/a	-999	2	[0, 0, 0]	n/a	FR1	1	R1153T
376.232	0.0	404614	TRIAL	n/a	n/a	n/a	-999	3	[0, 0, 0]	n/a	FR1	1	R1153T
376.232	10.428	404614	COUNTDOWN_START	n/a	n/a	n/a	-999	3	[0, 0, 0]	n/a	FR1	1	R1153T
386.66	0.007	415041	COUNTDOWN_END	n/a	n/a	n/a	-999	3	[0, 0, 0]	n/a	FR1	1	R1153T
386.667	2.517	415048	ORIENT	n/a	n/a	n/a	-999	3	[0, 0, 0]	n/a	FR1	1	R1153T
389.184	2.617	417565	WORD	n/a	wordpools/wordpool_EN.txt	POND	1	3	[0, 0, 0]	n/a	FR1	1	R1153T
391.801	2.518	420182	WORD	n/a	wordpools/wordpool_EN.txt	COW	2	3	[0, 0, 0]	n/a	FR1	1	R1153T
394.319	2.433	422700	WORD	n/a	wordpools/wordpool_EN.txt	BOY	3	3	[0, 0, 0]	n/a	FR1	1	R1153T
396.752	2.552	425133	WORD	n/a	wordpools/wordpool_EN.txt	HEART	4	3	[0, 0, 0]	n/a	FR1	1	R1153T
399.304	2.432	427685	WORD	n/a	wordpools/wordpool_EN.txt	CORD	5	3	[0, 0, 0]	n/a	FR1	1	R1153T
401.736	2.418	430117	WORD	n/a	wordpools/wordpool_EN.txt	FOAM	6	3	[0, 0, 0]	n/a	FR1	1	R1153T
404.154	2.401	432535	WORD	n/a	wordpools/wordpool_EN.txt	PEAR	7	3	[0, 0, 0]	n/a	FR1	1	R1153T
406.555	2.483	434936	WORD	n/a	wordpools/wordpool_EN.txt	BED	8	3	[0, 0, 0]	n/a	FR1	1	R1153T
409.038	2.468	437418	WORD	n/a	wordpools/wordpool_EN.txt	EGG	9	3	[0, 0, 0]	n/a	FR1	1	R1153T
411.506	2.466	439886	WORD	n/a	wordpools/wordpool_EN.txt	TOAST	10	3	[0, 0, 0]	n/a	FR1	1	R1153T
413.972	2.468	442352	WORD	n/a	wordpools/wordpool_EN.txt	HILL	11	3	[0, 0, 0]	n/a	FR1	1	R1153T
416.44	1.616	444820	WORD	n/a	wordpools/wordpool_EN.txt	TOY	12	3	[0, 0, 0]	n/a	FR1	1	R1153T
418.056	0.001	446436	DISTRACT_START	n/a	n/a	n/a	-999	3	[0, 0, 0]	n/a	FR1	1	R1153T
418.057	0.016	446437	START	n/a	n/a	n/a	-999	3	[-999, -999, -999]	n/a	FR1	1	R1153T
418.073	7.118	446453	PROB	7.118	n/a	n/a	-999	3	[6, 4, 6]	16	FR1	1	R1153T
425.191	3.584	453571	PROB	3.584	n/a	n/a	-999	3	[3, 2, 3]	8	FR1	1	R1153T
428.775	3.668	457154	PROB	3.668	n/a	n/a	-999	3	[8, 1, 3]	12	FR1	1	R1153T
432.443	13.769	460822	PROB	13.769	n/a	n/a	-999	3	[8, 1, 6]	15	FR1	1	R1153T
446.212	0.016	474591	STOP	n/a	n/a	n/a	-999	3	[-999, -999, -999]	n/a	FR1	1	R1153T
446.228	1.119	474607	DISTRACT_END	n/a	n/a	n/a	-999	3	[0, 0, 0]	n/a	FR1	1	R1153T
447.347	2.142	475726	REC_START	n/a	n/a	n/a	-999	3	[0, 0, 0]	n/a	FR1	1	R1153T
449.489	2.499	477867	REC_WORD	2.499	n/a	POND	1	3	[0, 0, 0]	n/a	FR1	1	R1153T
451.988	0.333	480366	REC_WORD	0.333	n/a	POND	1	3	[0, 0, 0]	n/a	FR1	1	R1153T
452.321	1.784	480699	REC_WORD	1.784	n/a	CORD	5	3	[0, 0, 0]	n/a	FR1	1	R1153T
454.105	2.587	482483	REC_WORD	2.587	n/a	COW	2	3	[0, 0, 0]	n/a	FR1	1	R1153T
456.692	1.59	485070	REC_WORD	1.59	n/a	SKY	-999	3	[0, 0, 0]	n/a	FR1	1	R1153T
458.282	19.075	486660	REC_WORD	19.075	n/a	TOY	12	3	[0, 0, 0]	n/a	FR1	1	R1153T
477.357	10.029	505734	REC_END	n/a	n/a	n/a	-999	3	[0, 0, 0]	n/a	FR1	1	R1153T
487.386	0.001	515763	COUNTDOWN_START	n/a	n/a	n/a	-999	4	[0, 0, 0]	n/a	FR1	1	R1153T
487.387	10.427	515764	TRIAL	n/a	n/a	n/a	-999	4	[0, 0, 0]	n/a	FR1	1	R1153T
497.814	0.007	526190	COUNTDOWN_END	n/a	n/a	n/a	-999	4	[0, 0, 0]	n/a	FR1	1	R1153T
497.821	2.584	526197	ORIENT	n/a	n/a	n/a	-999	4	[0, 0, 0]	n/a	FR1	1	R1153T
500.405	2.567	528781	WORD	n/a	wordpools/wordpool_EN.txt	MAP	1	4	[0, 0, 0]	n/a	FR1	1	R1153T
502.972	2.384	531348	WORD	n/a	wordpools/wordpool_EN.txt	LAKE	2	4	[0, 0, 0]	n/a	FR1	1	R1153T
505.356	2.433	533732	WORD	n/a	wordpools/wordpool_EN.txt	SNOW	3	4	[0, 0, 0]	n/a	FR1	1	R1153T
507.789	2.518	536165	WORD	n/a	wordpools/wordpool_EN.txt	TRAIN	4	4	[0, 0, 0]	n/a	FR1	1	R1153T
510.307	2.5	538683	WORD	n/a	wordpools/wordpool_EN.txt	SKUNK	5	4	[0, 0, 0]	n/a	FR1	1	R1153T
512.807	2.535	541182	WORD	n/a	wordpools/wordpool_EN.txt	CAPE	6	4	[0, 0, 0]	n/a	FR1	1	R1153T
515.342	2.482	543717	WORD	n/a	wordpools/wordpool_EN.txt	ICE	7	4	[0, 0, 0]	n/a	FR1	1	R1153T
517.824	2.535	546199	WORD	n/a	wordpools/wordpool_EN.txt	ROCK	8	4	[0, 0, 0]	n/a	FR1	1	R1153T
520.359	2.616	548734	WORD	n/a	wordpools/wordpool_EN.txt	RAIN	9	4	[0, 0, 0]	n/a	FR1	1	R1153T
522.975	2.618	551350	WORD	n/a	wordpools/wordpool_EN.txt	POLE	10	4	[0, 0, 0]	n/a	FR1	1	R1153T
525.593	2.417	553968	WORD	n/a	wordpools/wordpool_EN.txt	BAND	11	4	[0, 0, 0]	n/a	FR1	1	R1153T
528.01	1.617	556385	WORD	n/a	wordpools/wordpool_EN.txt	SLIME	12	4	[0, 0, 0]	n/a	FR1	1	R1153T
529.627	0.001	558002	DISTRACT_START	n/a	n/a	n/a	-999	4	[0, 0, 0]	n/a	FR1	1	R1153T
529.628	0.016	558003	START	n/a	n/a	n/a	-999	4	[-999, -999, -999]	n/a	FR1	1	R1153T
529.644	9.868	558019	PROB	9.868	n/a	n/a	-999	4	[7, 8, 3]	18	FR1	1	R1153T
539.512	3.517	567886	PROB	3.517	n/a	n/a	-999	4	[4, 1, 1]	6	FR1	1	R1153T
543.029	3.301	571403	PROB	3.301	n/a	n/a	-999	4	[5, 1, 4]	10	FR1	1	R1153T
546.33	3.301	574704	PROB	3.301	n/a	n/a	-999	4	[8, 4, 8]	20	FR1	1	R1153T
549.631	3.95	578005	PROB	3.95	n/a	n/a	-999	4	[7, 4, 4]	15	FR1	1	R1153T
553.581	0.017	581954	STOP	n/a	n/a	n/a	-999	4	[-999, -999, -999]	n/a	FR1	1	R1153T
553.598	1.15	581971	DISTRACT_END	n/a	n/a	n/a	-999	4	[0, 0, 0]	n/a	FR1	1	R1153T
554.748	3.33	583121	REC_START	n/a	n/a	n/a	-999	4	[0, 0, 0]	n/a	FR1	1	R1153T
558.078	4.156	586451	REC_WORD	4.156	n/a	POLE	10	4	[0, 0, 0]	n/a	FR1	1	R1153T
562.234	22.528	590607	REC_WORD	22.528	n/a	BAND	11	4	[0, 0, 0]	n/a	FR1	1	R1153T
584.762	7.259	613134	REC_END	n/a	n/a	n/a	-999	4	[0, 0, 0]	n/a	FR1	1	R1153T
592.021	0.0	620393	TRIAL	n/a	n/a	n/a	-999	5	[0, 0, 0]	n/a	FR1	1	R1153T
592.021	10.428	620393	COUNTDOWN_START	n/a	n/a	n/a	-999	5	[0, 0, 0]	n/a	FR1	1	R1153T
602.449	0.008	630820	COUNTDOWN_END	n/a	n/a	n/a	-999	5	[0, 0, 0]	n/a	FR1	1	R1153T
602.457	2.45	630828	ORIENT	n/a	n/a	n/a	-999	5	[0, 0, 0]	n/a	FR1	1	R1153T
604.907	2.601	633278	WORD	n/a	wordpools/wordpool_EN.txt	BROOM	1	5	[0, 0, 0]	n/a	FR1	1	R1153T
607.508	2.433	635879	WORD	n/a	wordpools/wordpool_EN.txt	PANTS	2	5	[0, 0, 0]	n/a	FR1	1	R1153T
609.941	2.451	638312	WORD	n/a	wordpools/wordpool_EN.txt	SWAMP	3	5	[0, 0, 0]	n/a	FR1	1	R1153T
612.392	2.617	640763	WORD	n/a	wordpools/wordpool_EN.txt	BREAD	4	5	[0, 0, 0]	n/a	FR1	1	R1153T
615.009	2.618	643379	WORD	n/a	wordpools/wordpool_EN.txt	BRANCH	5	5	[0, 0, 0]	n/a	FR1	1	R1153T
617.627	2.399	645997	WORD	n/a	wordpools/wordpool_EN.txt	FOX	6	5	[0, 0, 0]	n/a	FR1	1	R1153T
620.026	2.535	648396	WORD	n/a	wordpools/wordpool_EN.txt	BOWL	7	5	[0, 0, 0]	n/a	FR1	1	R1153T
622.561	2.433	650931	WORD	n/a	wordpools/wordpool_EN.txt	CROW	8	5	[0, 0, 0]	n/a	FR1	1	R1153T
624.994	2.618	653364	WORD	n/a	wordpools/wordpool_EN.txt	TREE	9	5	[0, 0, 0]	n/a	FR1	1	R1153T
627.612	2.516	655982	WORD	n/a	wordpools/wordpool_EN.txt	BEAR	10	5	[0, 0, 0]	n/a	FR1	1	R1153T
630.128	2.452	658498	WORD	n/a	wordpools/wordpool_EN.txt	SHOE	11	5	[0, 0, 0]	n/a	FR1	1	R1153T
632.58	1.615	660950	WORD	n/a	wordpools/wordpool_EN.txt	PEA	12	5	[0, 0, 0]	n/a	FR1	1	R1153T
634.195	0.001	662565	DISTRACT_START	n/a	n/a	n/a	-999	5	[0, 0, 0]	n/a	FR1	1	R1153T
634.196	0.016	662566	START	n/a	n/a	n/a	-999	5	[-999, -999, -999]	n/a	FR1	1	R1153T
634.212	5.684	662582	PROB	5.684	n/a	n/a	-999	5	[8, 3, 7]	18	FR1	1	R1153T
639.896	3.602	668265	PROB	3.602	n/a	n/a	-999	5	[1, 9, 8]	18	FR1	1	R1153T
643.498	11.811	671867	PROB	11.811	n/a	n/a	-999	5	[5, 9, 7]	21	FR1	1	R1153T
655.309	0.008	683678	STOP	n/a	n/a	n/a	-999	5	[-999, -999, -999]	n/a	FR1	1	R1153T
655.317	1.068	683685	DISTRACT_END	n/a	n/a	n/a	-999	5	[0, 0, 0]	n/a	FR1	1	R1153T
656.385	1.603	684753	REC_START	n/a	n/a	n/a	-999	5	[0, 0, 0]	n/a	FR1	1	R1153T
657.988	0.915	686356	REC_WORD	0.915	n/a	CROW	8	5	[0, 0, 0]	n/a	FR1	1	R1153T
658.903	3.801	687271	REC_WORD	3.801	n/a	PEA	12	5	[0, 0, 0]	n/a	FR1	1	R1153T
662.704	22.796	691072	REC_WORD	22.796	n/a	PANTS	2	5	[0, 0, 0]	n/a	FR1	1	R1153T
685.5	0.895	713867	REC_WORD	0.895	n/a	TREE	9	5	[0, 0, 0]	n/a	FR1	1	R1153T
686.395	5.578	714762	REC_END	n/a	n/a	n/a	-999	5	[0, 0, 0]	n/a	FR1	1	R1153T
691.973	0.0	720340	TRIAL	n/a	n/a	n/a	-999	6	[0, 0, 0]	n/a	FR1	1	R1153T
691.973	10.428	720340	COUNTDOWN_START	n/a	n/a	n/a	-999	6	[0, 0, 0]	n/a	FR1	1	R1153T
702.401	0.008	730767	COUNTDOWN_END	n/a	n/a	n/a	-999	6	[0, 0, 0]	n/a	FR1	1	R1153T
702.409	2.599	730775	ORIENT	n/a	n/a	n/a	-999	6	[0, 0, 0]	n/a	FR1	1	R1153T
705.008	2.585	733374	WORD	n/a	wordpools/wordpool_EN.txt	LAMP	1	6	[0, 0, 0]	n/a	FR1	1	R1153T
707.593	2.433	735959	WORD	n/a	wordpools/wordpool_EN.txt	BRIDGE	2	6	[0, 0, 0]	n/a	FR1	1	R1153T
710.026	2.418	738392	WORD	n/a	wordpools/wordpool_EN.txt	MOLE	3	6	[0, 0, 0]	n/a	FR1	1	R1153T
712.444	2.583	740810	WORD	n/a	wordpools/wordpool_EN.txt	STAIR	4	6	[0, 0, 0]	n/a	FR1	1	R1153T
715.027	2.585	743393	WORD	n/a	wordpools/wordpool_EN.txt	CHIEF	5	6	[0, 0, 0]	n/a	FR1	1	R1153T
717.612	2.482	745977	WORD	n/a	wordpools/wordpool_EN.txt	NET	6	6	[0, 0, 0]	n/a	FR1	1	R1153T
720.094	2.518	748459	WORD	n/a	wordpools/wordpool_EN.txt	LOCK	7	6	[0, 0, 0]	n/a	FR1	1	R1153T
722.612	2.517	750977	WORD	n/a	wordpools/wordpool_EN.txt	CART	8	6	[0, 0, 0]	n/a	FR1	1	R1153T
725.129	2.55	753494	WORD	n/a	wordpools/wordpool_EN.txt	PHONE	9	6	[0, 0, 0]	n/a	FR1	1	R1153T
727.679	2.384	756044	WORD	n/a	wordpools/wordpool_EN.txt	MAZE	10	6	[0, 0, 0]	n/a	FR1	1	R1153T
730.063	2.401	758428	WORD	n/a	wordpools/wordpool_EN.txt	FARM	11	6	[0, 0, 0]	n/a	FR1	1	R1153T
732.464	1.616	760829	WORD	n/a	wordpools/wordpool_EN.txt	WAND	12	6	[0, 0, 0]	n/a	FR1	1	R1153T
734.08	0.001	762445	DISTRACT_START	n/a	n/a	n/a	-999	6	[0, 0, 0]	n/a	FR1	1	R1153T
734.081	0.016	762446	START	n/a	n/a	n/a	-999	6	[-999, -999, -999]	n/a	FR1	1	R1153T
734.097	5.934	762462	PROB	5.934	n/a	n/a	-999	6	[2, 6, 6]	14	FR1	1	R1153T
740.031	2.951	768395	PROB	2.951	n/a	n/a	-999	6	[2, 8, 2]	12	FR1	1	R1153T
742.982	6.084	771346	PROB	6.084	n/a	n/a	-999	6	[7, 2, 4]	11	FR1	1	R1153T
749.066	4.319	777430	PROB	4.319	n/a	n/a	-999	6	[2, 4, 7]	13	FR1	1	R1153T
753.385	6.268	781749	PROB	6.268	n/a	n/a	-999	6	[5, 8, 7]	20	FR1	1	R1153T
759.653	0.015	788016	STOP	n/a	n/a	n/a	-999	6	[-999, -999, -999]	n/a	FR1	1	R1153T
759.668	1.201	788031	DISTRACT_END	n/a	n/a	n/a	-999	6	[0, 0, 0]	n/a	FR1	1	R1153T
760.869	5.054	789232	REC_START	n/a	n/a	n/a	-999	6	[0, 0, 0]	n/a	FR1	1	R1153T
765.923	4.434	794286	REC_WORD	4.434	n/a	MAZE	10	6	[0, 0, 0]	n/a	FR1	1	R1153T
770.357	20.522	798720	REC_WORD	20.522	n/a	LAMP	1	6	[0, 0, 0]	n/a	FR1	1	R1153T
790.879	7.129	819241	REC_END	n/a	n/a	n/a	-999	6	[0, 0, 0]	n/a	FR1	1	R1153T
798.008	0.001	826370	COUNTDOWN_START	n/a	n/a	n/a	-999	7	[0, 0, 0]	n/a	FR1	1	R1153T
798.009	10.427	826371	TRIAL	n/a	n/a	n/a	-999	7	[0, 0, 0]	n/a	FR1	1	R1153T
808.436	0.009	836797	COUNTDOWN_END	n/a	n/a	n/a	-999	7	[0, 0, 0]	n/a	FR1	1	R1153T
808.445	2.582	836806	ORIENT	n/a	n/a	n/a	-999	7	[0, 0, 0]	n/a	FR1	1	R1153T
811.027	2.519	839388	WORD	n/a	wordpools/wordpool_EN.txt	TRAY	1	7	[0, 0, 0]	n/a	FR1	1	R1153T
813.546	2.549	841907	WORD	n/a	wordpools/wordpool_EN.txt	JET	2	7	[0, 0, 0]	n/a	FR1	1	R1153T
816.095	2.552	844456	WORD	n/a	wordpools/wordpool_EN.txt	FORK	3	7	[0, 0, 0]	n/a	FR1	1	R1153T
818.647	2.566	847008	WORD	n/a	wordpools/wordpool_EN.txt	NOSE	4	7	[0, 0, 0]	n/a	FR1	1	R1153T
821.213	2.517	849573	WORD	n/a	wordpools/wordpool_EN.txt	TEA	5	7	[0, 0, 0]	n/a	FR1	1	R1153T
823.73	2.384	852090	WORD	n/a	wordpools/wordpool_EN.txt	SHIRT	6	7	[0, 0, 0]	n/a	FR1	1	R1153T
826.114	2.434	854474	WORD	n/a	wordpools/wordpool_EN.txt	RUG	7	7	[0, 0, 0]	n/a	FR1	1	R1153T
828.548	2.416	856908	WORD	n/a	wordpools/wordpool_EN.txt	LEG	8	7	[0, 0, 0]	n/a	FR1	1	R1153T
830.964	2.552	859324	WORD	n/a	wordpools/wordpool_EN.txt	HAT	9	7	[0, 0, 0]	n/a	FR1	1	R1153T
833.516	2.482	861876	WORD	n/a	wordpools/wordpool_EN.txt	TOE	10	7	[0, 0, 0]	n/a	FR1	1	R1153T
835.998	2.569	864358	WORD	n/a	wordpools/wordpool_EN.txt	CLOTH	11	7	[0, 0, 0]	n/a	FR1	1	R1153T
838.567	1.616	866927	WORD	n/a	wordpools/wordpool_EN.txt	RIB	12	7	[0, 0, 0]	n/a	FR1	1	R1153T
840.183	0.0	868543	DISTRACT_START	n/a	n/a	n/a	-999	7	[0, 0, 0]	n/a	FR1	1	R1153T
840.183	0.016	868543	START	n/a	n/a	n/a	-999	7	[-999, -999, -999]	n/a	FR1	1	R1153T
840.199	8.885	868559	PROB	8.885	n/a	n/a	-999	7	[9, 3, 3]	15	FR1	1	R1153T
849.084	3.851	877443	PROB	3.851	n/a	n/a	-999	7	[8, 5, 8]	21	FR1	1	R1153T
852.935	3.134	881294	PROB	3.134	n/a	n/a	-999	7	[5, 2, 3]	11	FR1	1	R1153T
856.069	3.967	884428	PROB	3.967	n/a	n/a	-999	7	[4, 2, 5]	11	FR1	1	R1153T
860.036	6.656	888395	PROB	6.656	n/a	n/a	-999	7	[9, 6, 7]	23	FR1	1	R1153T
866.692	0.012	895050	STOP	n/a	n/a	n/a	-999	7	[-999, -999, -999]	n/a	FR1	1	R1153T
866.704	1.201	895062	DISTRACT_END	n/a	n/a	n/a	-999	7	[0, 0, 0]	n/a	FR1	1	R1153T
867.905	2.834	896263	REC_START	n/a	n/a	n/a	-999	7	[0, 0, 0]	n/a	FR1	1	R1153T
870.739	3.189	899097	REC_WORD	3.189	n/a	JET	2	7	[0, 0, 0]	n/a	FR1	1	R1153T
873.928	3.176	902286	REC_WORD	3.176	n/a	TRAY	1	7	[0, 0, 0]	n/a	FR1	1	R1153T
877.104	20.811	905462	REC_WORD	20.811	n/a	TOE	10	7	[0, 0, 0]	n/a	FR1	1	R1153T
897.915	12.264	926272	REC_END	n/a	n/a	n/a	-999	7	[0, 0, 0]	n/a	FR1	1	R1153T
910.179	0.0	938535	TRIAL	n/a	n/a	n/a	-999	8	[0, 0, 0]	n/a	FR1	1	R1153T
910.179	10.428	938535	COUNTDOWN_START	n/a	n/a	n/a	-999	8	[0, 0, 0]	n/a	FR1	1	R1153T
920.607	0.008	948963	COUNTDOWN_END	n/a	n/a	n/a	-999	8	[0, 0, 0]	n/a	FR1	1	R1153T
920.615	2.45	948971	ORIENT	n/a	n/a	n/a	-999	8	[0, 0, 0]	n/a	FR1	1	R1153T
923.065	2.584	951421	WORD	n/a	wordpools/wordpool_EN.txt	FORT	1	8	[0, 0, 0]	n/a	FR1	1	R1153T
925.649	2.55	954004	WORD	n/a	wordpools/wordpool_EN.txt	STEM	2	8	[0, 0, 0]	n/a	FR1	1	R1153T
928.199	2.484	956554	WORD	n/a	wordpools/wordpool_EN.txt	SWORD	3	8	[0, 0, 0]	n/a	FR1	1	R1153T
930.683	2.45	959038	WORD	n/a	wordpools/wordpool_EN.txt	HORSE	4	8	[0, 0, 0]	n/a	FR1	1	R1153T
933.133	2.385	961488	WORD	n/a	wordpools/wordpool_EN.txt	SAIL	5	8	[0, 0, 0]	n/a	FR1	1	R1153T
935.518	2.549	963873	WORD	n/a	wordpools/wordpool_EN.txt	COIN	6	8	[0, 0, 0]	n/a	FR1	1	R1153T
938.067	2.585	966422	WORD	n/a	wordpools/wordpool_EN.txt	ROOT	7	8	[0, 0, 0]	n/a	FR1	1	R1153T
940.652	2.55	969007	WORD	n/a	wordpools/wordpool_EN.txt	STAR	8	8	[0, 0, 0]	n/a	FR1	1	R1153T
943.202	2.567	971557	WORD	n/a	wordpools/wordpool_EN.txt	LEAF	9	8	[0, 0, 0]	n/a	FR1	1	R1153T
945.769	2.551	974123	WORD	n/a	wordpools/wordpool_EN.txt	SHIP	10	8	[0, 0, 0]	n/a	FR1	1	R1153T
948.32	2.566	976674	WORD	n/a	wordpools/wordpool_EN.txt	SHELL	11	8	[0, 0, 0]	n/a	FR1	1	R1153T
950.886	1.601	979240	WORD	n/a	wordpools/wordpool_EN.txt	APE	12	8	[0, 0, 0]	n/a	FR1	1	R1153T
952.487	0.001	980841	DISTRACT_START	n/a	n/a	n/a	-999	8	[0, 0, 0]	n/a	FR1	1	R1153T
952.488	0.016	980842	START	n/a	n/a	n/a	-999	8	[-999, -999, -999]	n/a	FR1	1	R1153T
952.504	5.617	980858	PROB	5.617	n/a	n/a	-999	8	[5, 2, 3]	10	FR1	1	R1153T
958.121	5.634	986475	PROB	5.634	n/a	n/a	-999	8	[5, 3, 6]	14	FR1	1	R1153T
963.755	3.619	992109	PROB	3.619	n/a	n/a	-999	8	[6, 4, 4]	14	FR1	1	R1153T
967.374	2.95	995727	PROB	2.95	n/a	n/a	-999	8	[2, 3, 7]	12	FR1	1	R1153T
970.324	13.456	998677	PROB	13.456	n/a	n/a	-999	8	[8, 9, 9]	26	FR1	1	R1153T
983.78	0.012	1012133	STOP	n/a	n/a	n/a	-999	8	[-999, -999, -999]	n/a	FR1	1	R1153T
983.792	1.218	1012145	DISTRACT_END	n/a	n/a	n/a	-999	8	[0, 0, 0]	n/a	FR1	1	R1153T
985.01	30.0	1013363	REC_START	n/a	n/a	n/a	-999	8	[0, 0, 0]	n/a	FR1	1	R1153T
1015.01	0.011	1043361	REC_WORD_VV	0.011	n/a	<>	-999	8	[0, 0, 0]	n/a	FR1	1	R1153T
1015.021	59.472	1043372	REC_END	n/a	n/a	n/a	-999	8	[0, 0, 0]	n/a	FR1	1	R1153T
1074.493	0.001	1102841	COUNTDOWN_START	n/a	n/a	n/a	-999	9	[0, 0, 0]	n/a	FR1	1	R1153T
1074.494	10.427	1102842	TRIAL	n/a	n/a	n/a	-999	9	[0, 0, 0]	n/a	FR1	1	R1153T
1084.921	0.006	1113269	COUNTDOWN_END	n/a	n/a	n/a	-999	9	[0, 0, 0]	n/a	FR1	1	R1153T
1084.927	2.568	1113275	ORIENT	n/a	n/a	n/a	-999	9	[0, 0, 0]	n/a	FR1	1	R1153T
1087.495	2.5	1115843	WORD	n/a	wordpools/wordpool_EN.txt	SKI	1	9	[0, 0, 0]	n/a	FR1	1	R1153T
1089.995	2.618	1118342	WORD	n/a	wordpools/wordpool_EN.txt	SHRIMP	2	9	[0, 0, 0]	n/a	FR1	1	R1153T
1092.613	2.483	1120960	WORD	n/a	wordpools/wordpool_EN.txt	PLANE	3	9	[0, 0, 0]	n/a	FR1	1	R1153T
1095.096	2.567	1123443	WORD	n/a	wordpools/wordpool_EN.txt	DART	4	9	[0, 0, 0]	n/a	FR1	1	R1153T
1097.663	2.5	1126010	WORD	n/a	wordpools/wordpool_EN.txt	CLAY	5	9	[0, 0, 0]	n/a	FR1	1	R1153T
1100.163	2.485	1128510	WORD	n/a	wordpools/wordpool_EN.txt	CLOUD	6	9	[0, 0, 0]	n/a	FR1	1	R1153T
1102.648	2.416	1130995	WORD	n/a	wordpools/wordpool_EN.txt	BALL	7	9	[0, 0, 0]	n/a	FR1	1	R1153T
1105.064	2.435	1133411	WORD	n/a	wordpools/wordpool_EN.txt	BOMB	8	9	[0, 0, 0]	n/a	FR1	1	R1153T
1107.499	2.616	1135846	WORD	n/a	wordpools/wordpool_EN.txt	MOON	9	9	[0, 0, 0]	n/a	FR1	1	R1153T
1110.115	2.617	1138462	WORD	n/a	wordpools/wordpool_EN.txt	WHEEL	10	9	[0, 0, 0]	n/a	FR1	1	R1153T
1112.732	2.535	1141078	WORD	n/a	wordpools/wordpool_EN.txt	FILM	11	9	[0, 0, 0]	n/a	FR1	1	R1153T
1115.267	1.616	1143613	WORD	n/a	wordpools/wordpool_EN.txt	BAT	12	9	[0, 0, 0]	n/a	FR1	1	R1153T
1116.883	0.001	1145229	DISTRACT_START	n/a	n/a	n/a	-999	9	[0, 0, 0]	n/a	FR1	1	R1153T
1116.884	0.016	1145230	START	n/a	n/a	n/a	-999	9	[-999, -999, -999]	n/a	FR1	1	R1153T
1116.9	5.051	1145246	PROB	5.051	n/a	n/a	-999	9	[6, 5, 6]	16	FR1	1	R1153T
1121.951	18.398	1150297	PROB	18.398	n/a	n/a	-999	9	[5, 9, 8]	25	FR1	1	R1153T
1140.349	0.006	1168694	STOP	n/a	n/a	n/a	-999	9	[-999, -999, -999]	n/a	FR1	1	R1153T
1140.355	1.184	1168700	DISTRACT_END	n/a	n/a	n/a	-999	9	[0, 0, 0]	n/a	FR1	1	R1153T
1141.539	3.06	1169884	REC_START	n/a	n/a	n/a	-999	9	[0, 0, 0]	n/a	FR1	1	R1153T
1144.599	1.188	1172944	REC_WORD	1.188	n/a	SKI	1	9	[0, 0, 0]	n/a	FR1	1	R1153T
1145.787	25.762	1174132	REC_WORD	25.762	n/a	SHRIMP	2	9	[0, 0, 0]	n/a	FR1	1	R1153T
1171.549	55.17	1199893	REC_END	n/a	n/a	n/a	-999	9	[0, 0, 0]	n/a	FR1	1	R1153T
1226.719	0.001	1255060	COUNTDOWN_START	n/a	n/a	n/a	-999	10	[0, 0, 0]	n/a	FR1	1	R1153T
1226.72	10.427	1255061	TRIAL	n/a	n/a	n/a	-999	10	[0, 0, 0]	n/a	FR1	1	R1153T
1237.147	0.008	1265487	COUNTDOWN_END	n/a	n/a	n/a	-999	10	[0, 0, 0]	n/a	FR1	1	R1153T
1237.155	2.6	1265495	ORIENT	n/a	n/a	n/a	-999	10	[0, 0, 0]	n/a	FR1	1	R1153T
1239.755	2.535	1268095	WORD	n/a	wordpools/wordpool_EN.txt	JAR	1	10	[0, 0, 0]	n/a	FR1	1	R1153T
1242.29	2.483	1270630	WORD	n/a	wordpools/wordpool_EN.txt	MILK	2	10	[0, 0, 0]	n/a	FR1	1	R1153T
1244.773	2.434	1273113	WORD	n/a	wordpools/wordpool_EN.txt	STORM	3	10	[0, 0, 0]	n/a	FR1	1	R1153T
1247.207	2.467	1275547	WORD	n/a	wordpools/wordpool_EN.txt	DITCH	4	10	[0, 0, 0]	n/a	FR1	1	R1153T
1249.674	2.601	1278014	WORD	n/a	wordpools/wordpool_EN.txt	FLEA	5	10	[0, 0, 0]	n/a	FR1	1	R1153T
1252.275	2.483	1280615	WORD	n/a	wordpools/wordpool_EN.txt	MOTH	6	10	[0, 0, 0]	n/a	FR1	1	R1153T
1254.758	2.401	1283098	WORD	n/a	wordpools/wordpool_EN.txt	STRAW	7	10	[0, 0, 0]	n/a	FR1	1	R1153T
1257.159	2.55	1285498	WORD	n/a	wordpools/wordpool_EN.txt	SOUP	8	10	[0, 0, 0]	n/a	FR1	1	R1153T
1259.709	2.4	1288048	WORD	n/a	wordpools/wordpool_EN.txt	CHEEK	9	10	[0, 0, 0]	n/a	FR1	1	R1153T
1262.109	2.584	1290448	WORD	n/a	wordpools/wordpool_EN.txt	RAKE	10	10	[0, 0, 0]	n/a	FR1	1	R1153T
1264.693	2.367	1293032	WORD	n/a	wordpools/wordpool_EN.txt	ARK	11	10	[0, 0, 0]	n/a	FR1	1	R1153T
1267.06	1.617	1295399	WORD	n/a	wordpools/wordpool_EN.txt	FRUIT	12	10	[0, 0, 0]	n/a	FR1	1	R1153T
1268.677	0.001	1297016	DISTRACT_START	n/a	n/a	n/a	-999	10	[0, 0, 0]	n/a	FR1	1	R1153T
1268.678	0.016	1297017	START	n/a	n/a	n/a	-999	10	[-999, -999, -999]	n/a	FR1	1	R1153T
1268.694	7.268	1297033	PROB	7.268	n/a	n/a	-999	10	[6, 4, 7]	17	FR1	1	R1153T
1275.962	5.234	1304301	PROB	5.234	n/a	n/a	-999	10	[1, 7, 6]	14	FR1	1	R1153T
1281.196	4.435	1309534	PROB	4.435	n/a	n/a	-999	10	[8, 3, 5]	16	FR1	1	R1153T
1285.631	3.173	1313969	PROB	3.173	n/a	n/a	-999	10	[4, 4, 6]	14	FR1	1	R1153T
1288.804	0.01	1317142	STOP	n/a	n/a	n/a	-999	10	[-999, -999, -999]	n/a	FR1	1	R1153T
1288.814	1.084	1317152	DISTRACT_END	n/a	n/a	n/a	-999	10	[0, 0, 0]	n/a	FR1	1	R1153T
1289.898	4.343	1318236	REC_START	n/a	n/a	n/a	-999	10	[0, 0, 0]	n/a	FR1	1	R1153T
1294.241	25.665	1322579	REC_WORD	25.665	n/a	MOOSE	-999	10	[0, 0, 0]	n/a	FR1	1	R1153T
1319.906	21.602	1348242	REC_END	n/a	n/a	n/a	-999	10	[0, 0, 0]	n/a	FR1	1	R1153T
1341.508	0.0	1369843	TRIAL	n/a	n/a	n/a	-999	11	[0, 0, 0]	n/a	FR1	1	R1153T
1341.508	10.428	1369843	COUNTDOWN_START	n/a	n/a	n/a	-999	11	[0, 0, 0]	n/a	FR1	1	R1153T
1351.936	0.006	1380271	COUNTDOWN_END	n/a	n/a	n/a	-999	11	[0, 0, 0]	n/a	FR1	1	R1153T
1351.942	2.452	1380277	ORIENT	n/a	n/a	n/a	-999	11	[0, 0, 0]	n/a	FR1	1	R1153T
1354.394	2.399	1382729	WORD	n/a	wordpools/wordpool_EN.txt	PEARL	1	11	[0, 0, 0]	n/a	FR1	1	R1153T
1356.793	2.618	1385128	WORD	n/a	wordpools/wordpool_EN.txt	MAIL	2	11	[0, 0, 0]	n/a	FR1	1	R1153T
1359.411	2.55	1387745	WORD	n/a	wordpools/wordpool_EN.txt	BOOK	3	11	[0, 0, 0]	n/a	FR1	1	R1153T
1361.961	2.601	1390295	WORD	n/a	wordpools/wordpool_EN.txt	MULE	4	11	[0, 0, 0]	n/a	FR1	1	R1153T
1364.562	2.4	1392896	WORD	n/a	wordpools/wordpool_EN.txt	SHEEP	5	11	[0, 0, 0]	n/a	FR1	1	R1153T
1366.962	2.585	1395296	WORD	n/a	wordpools/wordpool_EN.txt	BEAN	6	11	[0, 0, 0]	n/a	FR1	1	R1153T
1369.547	2.449	1397881	WORD	n/a	wordpools/wordpool_EN.txt	CORN	7	11	[0, 0, 0]	n/a	FR1	1	R1153T
1371.996	2.468	1400330	WORD	n/a	wordpools/wordpool_EN.txt	BEAK	8	11	[0, 0, 0]	n/a	FR1	1	R1153T
1374.464	2.6	1402798	WORD	n/a	wordpools/wordpool_EN.txt	GRAPE	9	11	[0, 0, 0]	n/a	FR1	1	R1153T
1377.064	2.534	1405398	WORD	n/a	wordpools/wordpool_EN.txt	RICE	10	11	[0, 0, 0]	n/a	FR1	1	R1153T
1379.598	2.433	1407932	WORD	n/a	wordpools/wordpool_EN.txt	LAND	11	11	[0, 0, 0]	n/a	FR1	1	R1153T
1382.031	1.601	1410364	WORD	n/a	wordpools/wordpool_EN.txt	GOLD	12	11	[0, 0, 0]	n/a	FR1	1	R1153T
1383.632	0.001	1411965	DISTRACT_START	n/a	n/a	n/a	-999	11	[0, 0, 0]	n/a	FR1	1	R1153T
1383.633	0.016	1411966	START	n/a	n/a	n/a	-999	11	[-999, -999, -999]	n/a	FR1	1	R1153T
1383.649	3.934	1411982	PROB	3.934	n/a	n/a	-999	11	[3, 7, 9]	19	FR1	1	R1153T
1387.583	4.183	1415916	PROB	4.183	n/a	n/a	-999	11	[2, 8, 6]	16	FR1	1	R1153T
1391.766	2.785	1420099	PROB	2.785	n/a	n/a	-999	11	[6, 1, 5]	12	FR1	1	R1153T
1394.551	2.583	1422884	PROB	2.583	n/a	n/a	-999	11	[1, 8, 1]	10	FR1	1	R1153T
1397.134	3.385	1425467	PROB	3.385	n/a	n/a	-999	11	[5, 3, 9]	17	FR1	1	R1153T
1400.519	3.814	1428851	PROB	3.814	n/a	n/a	-999	11	[6, 3, 5]	17	FR1	1	R1153T
1404.333	0.02	1432665	STOP	n/a	n/a	n/a	-999	11	[-999, -999, -999]	n/a	FR1	1	R1153T
1404.353	1.068	1432685	DISTRACT_END	n/a	n/a	n/a	-999	11	[0, 0, 0]	n/a	FR1	1	R1153T
1405.421	4.905	1433753	REC_START	n/a	n/a	n/a	-999	11	[0, 0, 0]	n/a	FR1	1	R1153T
1410.326	1.611	1438658	REC_WORD	1.611	n/a	COW	-999	11	[0, 0, 0]	n/a	FR1	1	R1153T
1411.937	3.06	1440269	REC_WORD	3.06	n/a	CROW	-999	11	[0, 0, 0]	n/a	FR1	1	R1153T
1414.997	20.434	1443329	REC_WORD	20.434	n/a	LAND	11	11	[0, 0, 0]	n/a	FR1	1	R1153T
1435.431	26.866	1463762	REC_END	n/a	n/a	n/a	-999	11	[0, 0, 0]	n/a	FR1	1	R1153T
1462.297	0.0	1490627	TRIAL	n/a	n/a	n/a	-999	12	[0, 0, 0]	n/a	FR1	1	R1153T
1462.297	10.428	1490627	COUNTDOWN_START	n/a	n/a	n/a	-999	12	[0, 0, 0]	n/a	FR1	1	R1153T
1472.725	0.006	1501054	COUNTDOWN_END	n/a	n/a	n/a	-999	12	[0, 0, 0]	n/a	FR1	1	R1153T
1472.731	2.384	1501060	ORIENT	n/a	n/a	n/a	-999	12	[0, 0, 0]	n/a	FR1	1	R1153T
1475.115	2.385	1503444	WORD	n/a	wordpools/wordpool_EN.txt	SIGN	1	12	[0, 0, 0]	n/a	FR1	1	R1153T
1477.5	2.549	1505829	WORD	n/a	wordpools/wordpool_EN.txt	KEY	2	12	[0, 0, 0]	n/a	FR1	1	R1153T
1480.049	2.551	1508378	WORD	n/a	wordpools/wordpool_EN.txt	MOUTH	3	12	[0, 0, 0]	n/a	FR1	1	R1153T
1482.6	2.4	1510929	WORD	n/a	wordpools/wordpool_EN.txt	DRUM	4	12	[0, 0, 0]	n/a	FR1	1	R1153T
1485.0	2.601	1513328	WORD	n/a	wordpools/wordpool_EN.txt	JAIL	5	12	[0, 0, 0]	n/a	FR1	1	R1153T
1487.601	2.483	1515929	WORD	n/a	wordpools/wordpool_EN.txt	SCHOOL	6	12	[0, 0, 0]	n/a	FR1	1	R1153T
1490.084	2.617	1518412	WORD	n/a	wordpools/wordpool_EN.txt	JUDGE	7	12	[0, 0, 0]	n/a	FR1	1	R1153T
1492.701	2.602	1521029	WORD	n/a	wordpools/wordpool_EN.txt	BLUSH	8	12	[0, 0, 0]	n/a	FR1	1	R1153T
1495.303	2.383	1523631	WORD	n/a	wordpools/wordpool_EN.txt	FOOT	9	12	[0, 0, 0]	n/a	FR1	1	R1153T
1497.686	2.601	1526014	WORD	n/a	wordpools/wordpool_EN.txt	PASTE	10	12	[0, 0, 0]	n/a	FR1	1	R1153T
1500.287	2.483	1528615	WORD	n/a	wordpools/wordpool_EN.txt	INK	11	12	[0, 0, 0]	n/a	FR1	1	R1153T
1502.77	1.618	1531098	WORD	n/a	wordpools/wordpool_EN.txt	BOARD	12	12	[0, 0, 0]	n/a	FR1	1	R1153T
1504.388	0.001	1532715	DISTRACT_START	n/a	n/a	n/a	-999	12	[0, 0, 0]	n/a	FR1	1	R1153T
1504.389	0.015	1532716	START	n/a	n/a	n/a	-999	12	[-999, -999, -999]	n/a	FR1	1	R1153T
1504.404	4.817	1532731	PROB	4.817	n/a	n/a	-999	12	[2, 2, 8]	12	FR1	1	R1153T
1509.221	4.418	1537548	PROB	4.418	n/a	n/a	-999	12	[8, 5, 6]	19	FR1	1	R1153T
1513.639	4.951	1541966	PROB	4.951	n/a	n/a	-999	12	[9, 6, 6]	21	FR1	1	R1153T
1518.59	8.11	1546917	PROB	8.11	n/a	n/a	-999	12	[8, 9, 5]	21	FR1	1	R1153T
1526.7	0.008	1555026	STOP	n/a	n/a	n/a	-999	12	[-999, -999, -999]	n/a	FR1	1	R1153T
1526.708	1.134	1555034	DISTRACT_END	n/a	n/a	n/a	-999	12	[0, 0, 0]	n/a	FR1	1	R1153T
1527.842	2.651	1556168	REC_START	n/a	n/a	n/a	-999	12	[0, 0, 0]	n/a	FR1	1	R1153T
1530.493	1.242	1558819	REC_WORD	1.242	n/a	MAIL	-999	12	[0, 0, 0]	n/a	FR1	1	R1153T
1531.735	26.119	1560061	REC_WORD	26.119	n/a	JAIL	5	12	[0, 0, 0]	n/a	FR1	1	R1153T
1557.854	58.554	1586179	REC_END	n/a	n/a	n/a	-999	12	[0, 0, 0]	n/a	FR1	1	R1153T
1616.408	0.0	1644730	COUNTDOWN_START	n/a	n/a	n/a	-999	13	[0, 0, 0]	n/a	FR1	1	R1153T
1616.408	10.428	1644730	TRIAL	n/a	n/a	n/a	-999	13	[0, 0, 0]	n/a	FR1	1	R1153T
1626.836	0.006	1655158	COUNTDOWN_END	n/a	n/a	n/a	-999	13	[0, 0, 0]	n/a	FR1	1	R1153T
1626.842	2.518	1655164	ORIENT	n/a	n/a	n/a	-999	13	[0, 0, 0]	n/a	FR1	1	R1153T
1629.36	2.383	1657681	WORD	n/a	wordpools/wordpool_EN.txt	BENCH	1	13	[0, 0, 0]	n/a	FR1	1	R1153T
1631.743	2.568	1660064	WORD	n/a	wordpools/wordpool_EN.txt	CLOCK	2	13	[0, 0, 0]	n/a	FR1	1	R1153T
1634.311	2.617	1662632	WORD	n/a	wordpools/wordpool_EN.txt	TRUCK	3	13	[0, 0, 0]	n/a	FR1	1	R1153T
1636.928	2.384	1665249	WORD	n/a	wordpools/wordpool_EN.txt	DESK	4	13	[0, 0, 0]	n/a	FR1	1	R1153T
1639.312	2.45	1667633	WORD	n/a	wordpools/wordpool_EN.txt	BATH	5	13	[0, 0, 0]	n/a	FR1	1	R1153T
1641.762	2.551	1670083	WORD	n/a	wordpools/wordpool_EN.txt	BAG	6	13	[0, 0, 0]	n/a	FR1	1	R1153T
1644.313	2.516	1672634	WORD	n/a	wordpools/wordpool_EN.txt	SPOON	7	13	[0, 0, 0]	n/a	FR1	1	R1153T
1646.829	2.368	1675150	WORD	n/a	wordpools/wordpool_EN.txt	FUDGE	8	13	[0, 0, 0]	n/a	FR1	1	R1153T
1649.197	2.451	1677517	WORD	n/a	wordpools/wordpool_EN.txt	BOX	9	13	[0, 0, 0]	n/a	FR1	1	R1153T
1651.648	2.399	1679968	WORD	n/a	wordpools/wordpool_EN.txt	MUG	10	13	[0, 0, 0]	n/a	FR1	1	R1153T
1654.047	2.452	1682367	WORD	n/a	wordpools/wordpool_EN.txt	HAND	11	13	[0, 0, 0]	n/a	FR1	1	R1153T
1656.499	1.616	1684819	WORD	n/a	wordpools/wordpool_EN.txt	VAN	12	13	[0, 0, 0]	n/a	FR1	1	R1153T
1658.115	0.001	1686435	DISTRACT_START	n/a	n/a	n/a	-999	13	[0, 0, 0]	n/a	FR1	1	R1153T
1658.116	0.015	1686436	START	n/a	n/a	n/a	-999	13	[-999, -999, -999]	n/a	FR1	1	R1153T
1658.131	17.07	1686451	PROB	17.07	n/a	n/a	-999	13	[5, 9, 9]	23	FR1	1	R1153T
1675.201	8.587	1703520	PROB	8.587	n/a	n/a	-999	13	[5, 2, 7]	13	FR1	1	R1153T
1683.788	0.015	1712107	STOP	n/a	n/a	n/a	-999	13	[-999, -999, -999]	n/a	FR1	1	R1153T
1683.803	1.117	1712122	DISTRACT_END	n/a	n/a	n/a	-999	13	[0, 0, 0]	n/a	FR1	1	R1153T
1684.92	30.005	1713239	REC_START	n/a	n/a	n/a	-999	13	[0, 0, 0]	n/a	FR1	1	R1153T
1714.925	0.007	1743242	REC_WORD_VV	0.007	n/a	<>	-999	13	[0, 0, 0]	n/a	FR1	1	R1153T
1714.932	65.606	1743249	REC_END	n/a	n/a	n/a	-999	13	[0, 0, 0]	n/a	FR1	1	R1153T
1780.538	0.0	1808852	TRIAL	n/a	n/a	n/a	-999	14	[0, 0, 0]	n/a	FR1	1	R1153T
1780.538	10.428	1808852	COUNTDOWN_START	n/a	n/a	n/a	-999	14	[0, 0, 0]	n/a	FR1	1	R1153T
1790.966	0.006	1819280	COUNTDOWN_END	n/a	n/a	n/a	-999	14	[0, 0, 0]	n/a	FR1	1	R1153T
1790.972	2.452	1819286	ORIENT	n/a	n/a	n/a	-999	14	[0, 0, 0]	n/a	FR1	1	R1153T
1793.424	2.583	1821738	WORD	n/a	wordpools/wordpool_EN.txt	RAT	1	14	[0, 0, 0]	n/a	FR1	1	R1153T
1796.007	2.434	1824320	WORD	n/a	wordpools/wordpool_EN.txt	CAT	2	14	[0, 0, 0]	n/a	FR1	1	R1153T
1798.441	2.5	1826754	WORD	n/a	wordpools/wordpool_EN.txt	ANT	3	14	[0, 0, 0]	n/a	FR1	1	R1153T
1800.941	2.568	1829254	WORD	n/a	wordpools/wordpool_EN.txt	FOOD	4	14	[0, 0, 0]	n/a	FR1	1	R1153T
1803.509	2.449	1831822	WORD	n/a	wordpools/wordpool_EN.txt	STORE	5	14	[0, 0, 0]	n/a	FR1	1	R1153T
1805.958	2.518	1834271	WORD	n/a	wordpools/wordpool_EN.txt	BANK	6	14	[0, 0, 0]	n/a	FR1	1	R1153T
1808.476	2.483	1836789	WORD	n/a	wordpools/wordpool_EN.txt	DUCK	7	14	[0, 0, 0]	n/a	FR1	1	R1153T
1810.959	2.402	1839272	WORD	n/a	wordpools/wordpool_EN.txt	PIG	8	14	[0, 0, 0]	n/a	FR1	1	R1153T
1813.361	2.583	1841674	WORD	n/a	wordpools/wordpool_EN.txt	GEESE	9	14	[0, 0, 0]	n/a	FR1	1	R1153T
1815.944	2.534	1844256	WORD	n/a	wordpools/wordpool_EN.txt	WOLF	10	14	[0, 0, 0]	n/a	FR1	1	R1153T
1818.478	2.516	1846790	WORD	n/a	wordpools/wordpool_EN.txt	FLUTE	11	14	[0, 0, 0]	n/a	FR1	1	R1153T
1820.994	1.618	1849306	WORD	n/a	wordpools/wordpool_EN.txt	LAMB	12	14	[0, 0, 0]	n/a	FR1	1	R1153T
1822.612	0.001	1850924	DISTRACT_START	n/a	n/a	n/a	-999	14	[0, 0, 0]	n/a	FR1	1	R1153T
1822.613	0.016	1850925	START	n/a	n/a	n/a	-999	14	[-999, -999, -999]	n/a	FR1	1	R1153T
1822.629	6.317	1850941	PROB	6.317	n/a	n/a	-999	14	[4, 5, 1]	10	FR1	1	R1153T
1828.946	3.518	1857258	PROB	3.518	n/a	n/a	-999	14	[9, 2, 3]	13	FR1	1	R1153T
1832.464	4.567	1860776	PROB	4.567	n/a	n/a	-999	14	[7, 7, 6]	20	FR1	1	R1153T
1837.031	2.95	1865342	PROB	2.95	n/a	n/a	-999	14	[3, 2, 7]	12	FR1	1	R1153T
1839.981	16.823	1868292	PROB	16.823	n/a	n/a	-999	14	[9, 4, 1]	13	FR1	1	R1153T
1856.804	0.014	1885114	STOP	n/a	n/a	n/a	-999	14	[-999, -999, -999]	n/a	FR1	1	R1153T
1856.818	1.084	1885128	DISTRACT_END	n/a	n/a	n/a	-999	14	[0, 0, 0]	n/a	FR1	1	R1153T
1857.902	1.669	1886212	REC_START	n/a	n/a	n/a	-999	14	[0, 0, 0]	n/a	FR1	1	R1153T
1859.571	0.598	1887881	REC_WORD	0.598	n/a	RAT	1	14	[0, 0, 0]	n/a	FR1	1	R1153T
1860.169	2.136	1888479	REC_WORD	2.136	n/a	CAT	2	14	[0, 0, 0]	n/a	FR1	1	R1153T
1862.305	11.18	1890615	REC_WORD	11.18	n/a	STORE	5	14	[0, 0, 0]	n/a	FR1	1	R1153T
1873.485	14.427	1901795	REC_WORD	14.427	n/a	HOUSE	-999	14	[0, 0, 0]	n/a	FR1	1	R1153T
1887.912	22.132	1916221	REC_END	n/a	n/a	n/a	-999	14	[0, 0, 0]	n/a	FR1	1	R1153T
1910.044	0.0	1938352	COUNTDOWN_START	n/a	n/a	n/a	-999	15	[0, 0, 0]	n/a	FR1	1	R1153T
1910.044	10.428	1938352	TRIAL	n/a	n/a	n/a	-999	15	[0, 0, 0]	n/a	FR1	1	R1153T
1920.472	0.008	1948779	COUNTDOWN_END	n/a	n/a	n/a	-999	15	[0, 0, 0]	n/a	FR1	1	R1153T
1920.48	2.466	1948787	ORIENT	n/a	n/a	n/a	-999	15	[0, 0, 0]	n/a	FR1	1	R1153T
1922.946	2.585	1951253	WORD	n/a	wordpools/wordpool_EN.txt	TANK	1	15	[0, 0, 0]	n/a	FR1	1	R1153T
1925.531	2.599	1953838	WORD	n/a	wordpools/wordpool_EN.txt	LIP	2	15	[0, 0, 0]	n/a	FR1	1	R1153T
1928.13	2.618	1956437	WORD	n/a	wordpools/wordpool_EN.txt	HOOF	3	15	[0, 0, 0]	n/a	FR1	1	R1153T
1930.748	2.384	1959055	WORD	n/a	wordpools/wordpool_EN.txt	PARK	4	15	[0, 0, 0]	n/a	FR1	1	R1153T
1933.132	2.401	1961439	WORD	n/a	wordpools/wordpool_EN.txt	STICK	5	15	[0, 0, 0]	n/a	FR1	1	R1153T
1935.533	2.466	1963840	WORD	n/a	wordpools/wordpool_EN.txt	CASH	6	15	[0, 0, 0]	n/a	FR1	1	R1153T
1937.999	2.402	1966306	WORD	n/a	wordpools/wordpool_EN.txt	FUR	7	15	[0, 0, 0]	n/a	FR1	1	R1153T
1940.401	2.532	1968707	WORD	n/a	wordpools/wordpool_EN.txt	CAVE	8	15	[0, 0, 0]	n/a	FR1	1	R1153T
1942.933	2.519	1971239	WORD	n/a	wordpools/wordpool_EN.txt	CALF	9	15	[0, 0, 0]	n/a	FR1	1	R1153T
1945.452	2.499	1973758	WORD	n/a	wordpools/wordpool_EN.txt	ZOO	10	15	[0, 0, 0]	n/a	FR1	1	R1153T
1947.951	2.618	1976257	WORD	n/a	wordpools/wordpool_EN.txt	SPRING	11	15	[0, 0, 0]	n/a	FR1	1	R1153T
1950.569	1.616	1978875	WORD	n/a	wordpools/wordpool_EN.txt	ARM	12	15	[0, 0, 0]	n/a	FR1	1	R1153T
1952.185	0.001	1980491	DISTRACT_START	n/a	n/a	n/a	-999	15	[0, 0, 0]	n/a	FR1	1	R1153T
1952.186	0.016	1980492	START	n/a	n/a	n/a	-999	15	[-999, -999, -999]	n/a	FR1	1	R1153T
1952.202	8.901	1980508	PROB	8.901	n/a	n/a	-999	15	[4, 7, 9]	20	FR1	1	R1153T
1961.103	9.486	1989408	PROB	9.486	n/a	n/a	-999	15	[9, 7, 2]	18	FR1	1	R1153T
1970.589	5.064	1998894	PROB	5.064	n/a	n/a	-999	15	[6, 8, 3]	15	FR1	1	R1153T
1975.653	0.003	2003958	STOP	n/a	n/a	n/a	-999	15	[-999, -999, -999]	n/a	FR1	1	R1153T
1975.656	1.151	2003961	DISTRACT_END	n/a	n/a	n/a	-999	15	[0, 0, 0]	n/a	FR1	1	R1153T
1976.807	29.994	2005112	REC_START	n/a	n/a	n/a	-999	15	[0, 0, 0]	n/a	FR1	1	R1153T
2006.801	0.016	2035104	REC_WORD_VV	0.016	n/a	<>	-999	15	[0, 0, 0]	n/a	FR1	1	R1153T
2006.817	19.566	2035120	REC_END	n/a	n/a	n/a	-999	15	[0, 0, 0]	n/a	FR1	1	R1153T
2026.383	0.0	2054685	TRIAL	n/a	n/a	n/a	-999	16	[0, 0, 0]	n/a	FR1	1	R1153T
2026.383	10.428	2054685	COUNTDOWN_START	n/a	n/a	n/a	-999	16	[0, 0, 0]	n/a	FR1	1	R1153T
2036.811	0.006	2065113	COUNTDOWN_END	n/a	n/a	n/a	-999	16	[0, 0, 0]	n/a	FR1	1	R1153T
2036.817	2.367	2065119	ORIENT	n/a	n/a	n/a	-999	16	[0, 0, 0]	n/a	FR1	1	R1153T
2039.184	2.551	2067486	WORD	n/a	wordpools/wordpool_EN.txt	CONE	1	16	[0, 0, 0]	n/a	FR1	1	R1153T
2041.735	2.551	2070037	WORD	n/a	wordpools/wordpool_EN.txt	TRASH	2	16	[0, 0, 0]	n/a	FR1	1	R1153T
2044.286	2.466	2072587	WORD	n/a	wordpools/wordpool_EN.txt	PLANT	3	16	[0, 0, 0]	n/a	FR1	1	R1153T
2046.752	2.585	2075053	WORD	n/a	wordpools/wordpool_EN.txt	SMOKE	4	16	[0, 0, 0]	n/a	FR1	1	R1153T
2049.337	2.433	2077638	WORD	n/a	wordpools/wordpool_EN.txt	DOG	5	16	[0, 0, 0]	n/a	FR1	1	R1153T
2051.77	2.501	2080071	WORD	n/a	wordpools/wordpool_EN.txt	TOAD	6	16	[0, 0, 0]	n/a	FR1	1	R1153T
2054.271	2.6	2082572	WORD	n/a	wordpools/wordpool_EN.txt	FLAME	7	16	[0, 0, 0]	n/a	FR1	1	R1153T
2056.871	2.584	2085172	WORD	n/a	wordpools/wordpool_EN.txt	WEED	8	16	[0, 0, 0]	n/a	FR1	1	R1153T
2059.455	2.433	2087756	WORD	n/a	wordpools/wordpool_EN.txt	BEE	9	16	[0, 0, 0]	n/a	FR1	1	R1153T
2061.888	2.452	2090189	WORD	n/a	wordpools/wordpool_EN.txt	SEED	10	16	[0, 0, 0]	n/a	FR1	1	R1153T
2064.34	2.566	2092640	WORD	n/a	wordpools/wordpool_EN.txt	BUSH	11	16	[0, 0, 0]	n/a	FR1	1	R1153T
2066.906	1.601	2095206	WORD	n/a	wordpools/wordpool_EN.txt	FOG	12	16	[0, 0, 0]	n/a	FR1	1	R1153T
2068.507	0.001	2096807	DISTRACT_START	n/a	n/a	n/a	-999	16	[0, 0, 0]	n/a	FR1	1	R1153T
2068.508	0.016	2096808	START	n/a	n/a	n/a	-999	16	[-999, -999, -999]	n/a	FR1	1	R1153T
2068.524	4.55	2096824	PROB	4.55	n/a	n/a	-999	16	[7, 1, 7]	15	FR1	1	R1153T
2073.074	5.667	2101374	PROB	5.667	n/a	n/a	-999	16	[3, 5, 1]	9	FR1	1	R1153T
2078.741	3.735	2107041	PROB	3.735	n/a	n/a	-999	16	[2, 4, 2]	8	FR1	1	R1153T
2082.476	9.889	2110776	PROB	9.889	n/a	n/a	-999	16	[8, 8, 8]	14	FR1	1	R1153T
2092.365	0.013	2120664	STOP	n/a	n/a	n/a	-999	16	[-999, -999, -999]	n/a	FR1	1	R1153T
2092.378	1.068	2120677	DISTRACT_END	n/a	n/a	n/a	-999	16	[0, 0, 0]	n/a	FR1	1	R1153T
2093.446	1.835	2121745	REC_START	n/a	n/a	n/a	-999	16	[0, 0, 0]	n/a	FR1	1	R1153T
2095.281	3.067	2123580	REC_WORD	3.067	n/a	TRASH	2	16	[0, 0, 0]	n/a	FR1	1	R1153T
2098.348	1.195	2126647	REC_WORD	1.195	n/a	SEED	10	16	[0, 0, 0]	n/a	FR1	1	R1153T
2099.543	23.913	2127842	REC_WORD	23.913	n/a	WEED	8	16	[0, 0, 0]	n/a	FR1	1	R1153T
2123.456	7.462	2151754	REC_END	n/a	n/a	n/a	-999	16	[0, 0, 0]	n/a	FR1	1	R1153T
2130.918	0.0	2159215	TRIAL	n/a	n/a	n/a	-999	17	[0, 0, 0]	n/a	FR1	1	R1153T
2130.918	10.428	2159215	COUNTDOWN_START	n/a	n/a	n/a	-999	17	[0, 0, 0]	n/a	FR1	1	R1153T
2141.346	0.008	2169643	COUNTDOWN_END	n/a	n/a	n/a	-999	17	[0, 0, 0]	n/a	FR1	1	R1153T
2141.354	2.499	2169651	ORIENT	n/a	n/a	n/a	-999	17	[0, 0, 0]	n/a	FR1	1	R1153T
2143.853	2.585	2172150	WORD	n/a	wordpools/wordpool_EN.txt	CLOWN	1	17	[0, 0, 0]	n/a	FR1	1	R1153T
2146.438	2.566	2174734	WORD	n/a	wordpools/wordpool_EN.txt	BOOT	2	17	[0, 0, 0]	n/a	FR1	1	R1153T
2149.004	2.435	2177300	WORD	n/a	wordpools/wordpool_EN.txt	WORM	3	17	[0, 0, 0]	n/a	FR1	1	R1153T
2151.439	2.566	2179735	WORD	n/a	wordpools/wordpool_EN.txt	DEER	4	17	[0, 0, 0]	n/a	FR1	1	R1153T
2154.005	2.601	2182301	WORD	n/a	wordpools/wordpool_EN.txt	HAWK	5	17	[0, 0, 0]	n/a	FR1	1	R1153T
2156.606	2.45	2184902	WORD	n/a	wordpools/wordpool_EN.txt	CROWN	6	17	[0, 0, 0]	n/a	FR1	1	R1153T
2159.056	2.451	2187352	WORD	n/a	wordpools/wordpool_EN.txt	PIT	7	17	[0, 0, 0]	n/a	FR1	1	R1153T
2161.507	2.583	2189803	WORD	n/a	wordpools/wordpool_EN.txt	FISH	8	17	[0, 0, 0]	n/a	FR1	1	R1153T
2164.09	2.402	2192386	WORD	n/a	wordpools/wordpool_EN.txt	MOUSE	9	17	[0, 0, 0]	n/a	FR1	1	R1153T
2166.492	2.549	2194787	WORD	n/a	wordpools/wordpool_EN.txt	STEAK	10	17	[0, 0, 0]	n/a	FR1	1	R1153T
2169.041	2.535	2197336	WORD	n/a	wordpools/wordpool_EN.txt	TAIL	11	17	[0, 0, 0]	n/a	FR1	1	R1153T
2171.576	1.616	2199871	WORD	n/a	wordpools/wordpool_EN.txt	WORLD	12	17	[0, 0, 0]	n/a	FR1	1	R1153T
2173.192	0.001	2201487	DISTRACT_START	n/a	n/a	n/a	-999	17	[0, 0, 0]	n/a	FR1	1	R1153T
2173.193	0.016	2201488	START	n/a	n/a	n/a	-999	17	[-999, -999, -999]	n/a	FR1	1	R1153T
2173.209	3.134	2201504	PROB	3.134	n/a	n/a	-999	17	[1, 3, 1]	5	FR1	1	R1153T
2176.343	8.219	2204638	PROB	8.219	n/a	n/a	-999	17	[7, 7, 3]	17	FR1	1	R1153T
2184.562	16.338	2212857	PROB	16.338	n/a	n/a	-999	17	[9, 6, 7]	23	FR1	1	R1153T
2200.9	0.014	2229194	STOP	n/a	n/a	n/a	-999	17	[-999, -999, -999]	n/a	FR1	1	R1153T
2200.914	1.201	2229208	DISTRACT_END	n/a	n/a	n/a	-999	17	[0, 0, 0]	n/a	FR1	1	R1153T
2202.115	2.313	2230409	REC_START	n/a	n/a	n/a	-999	17	[0, 0, 0]	n/a	FR1	1	R1153T
2204.428	2.147	2232722	REC_WORD	2.147	n/a	WORLD	12	17	[0, 0, 0]	n/a	FR1	1	R1153T
2206.575	7.152	2234869	REC_WORD	7.152	n/a	TAIL	11	17	[0, 0, 0]	n/a	FR1	1	R1153T
2213.727	18.4	2242020	REC_WORD	18.4	n/a	DEER	4	17	[0, 0, 0]	n/a	FR1	1	R1153T
2232.127	23.913	2260419	REC_END	n/a	n/a	n/a	-999	17	[0, 0, 0]	n/a	FR1	1	R1153T
2256.04	0.0	2284331	TRIAL	n/a	n/a	n/a	-999	18	[0, 0, 0]	n/a	FR1	1	R1153T
2256.04	10.428	2284331	COUNTDOWN_START	n/a	n/a	n/a	-999	18	[0, 0, 0]	n/a	FR1	1	R1153T
2266.468	0.009	2294759	COUNTDOWN_END	n/a	n/a	n/a	-999	18	[0, 0, 0]	n/a	FR1	1	R1153T
2266.477	2.382	2294768	ORIENT	n/a	n/a	n/a	-999	18	[0, 0, 0]	n/a	FR1	1	R1153T
2268.859	2.367	2297150	WORD	n/a	wordpools/wordpool_EN.txt	JUICE	1	18	[0, 0, 0]	n/a	FR1	1	R1153T
2271.226	2.385	2299516	WORD	n/a	wordpools/wordpool_EN.txt	SPONGE	2	18	[0, 0, 0]	n/a	FR1	1	R1153T
2273.611	2.416	2301901	WORD	n/a	wordpools/wordpool_EN.txt	SOAP	3	18	[0, 0, 0]	n/a	FR1	1	R1153T
2276.027	2.468	2304317	WORD	n/a	wordpools/wordpool_EN.txt	FROG	4	18	[0, 0, 0]	n/a	FR1	1	R1153T
2278.495	2.617	2306785	WORD	n/a	wordpools/wordpool_EN.txt	ROOM	5	18	[0, 0, 0]	n/a	FR1	1	R1153T
2281.112	2.567	2309402	WORD	n/a	wordpools/wordpool_EN.txt	PALM	6	18	[0, 0, 0]	n/a	FR1	1	R1153T
2283.679	2.534	2311969	WORD	n/a	wordpools/wordpool_EN.txt	SEA	7	18	[0, 0, 0]	n/a	FR1	1	R1153T
2286.213	2.434	2314503	WORD	n/a	wordpools/wordpool_EN.txt	TEETH	8	18	[0, 0, 0]	n/a	FR1	1	R1153T
2288.647	2.516	2316937	WORD	n/a	wordpools/wordpool_EN.txt	PLATE	9	18	[0, 0, 0]	n/a	FR1	1	R1153T
2291.163	2.452	2319452	WORD	n/a	wordpools/wordpool_EN.txt	TOOTH	10	18	[0, 0, 0]	n/a	FR1	1	R1153T
2293.615	2.499	2321904	WORD	n/a	wordpools/wordpool_EN.txt	SNAIL	11	18	[0, 0, 0]	n/a	FR1	1	R1153T
2296.114	1.617	2324403	WORD	n/a	wordpools/wordpool_EN.txt	SALT	12	18	[0, 0, 0]	n/a	FR1	1	R1153T
2297.731	0.001	2326020	DISTRACT_START	n/a	n/a	n/a	-999	18	[0, 0, 0]	n/a	FR1	1	R1153T
2297.732	0.016	2326021	START	n/a	n/a	n/a	-999	18	[-999, -999, -999]	n/a	FR1	1	R1153T
2297.748	12.002	2326037	PROB	12.002	n/a	n/a	-999	18	[5, 9, 7]	21	FR1	1	R1153T
2309.75	7.268	2338039	PROB	7.268	n/a	n/a	-999	18	[7, 7, 7]	21	FR1	1	R1153T
2317.018	4.515	2345306	PROB	4.515	n/a	n/a	-999	18	[3, 7, 8]	18	FR1	1	R1153T
2321.533	0.003	2349821	STOP	n/a	n/a	n/a	-999	18	[-999, -999, -999]	n/a	FR1	1	R1153T
2321.536	1.217	2349824	DISTRACT_END	n/a	n/a	n/a	-999	18	[0, 0, 0]	n/a	FR1	1	R1153T
2322.753	2.954	2351041	REC_START	n/a	n/a	n/a	-999	18	[0, 0, 0]	n/a	FR1	1	R1153T
2325.707	15.43	2353995	REC_WORD	15.43	n/a	TEETH	8	18	[0, 0, 0]	n/a	FR1	1	R1153T
2341.137	2.678	2369424	REC_WORD	2.678	n/a	BEAR	-999	18	[0, 0, 0]	n/a	FR1	1	R1153T
2343.815	1.988	2372102	REC_WORD	1.988	n/a	DEER	-999	18	[0, 0, 0]	n/a	FR1	1	R1153T
2345.803	2.045	2374090	REC_WORD	2.045	n/a	FROG	4	18	[0, 0, 0]	n/a	FR1	1	R1153T
2347.848	4.917	2376135	REC_WORD	4.917	n/a	TAIL	-999	18	[0, 0, 0]	n/a	FR1	1	R1153T
2352.765	6.294	2381051	REC_END	n/a	n/a	n/a	-999	18	[0, 0, 0]	n/a	FR1	1	R1153T
2359.059	0.0	2387345	COUNTDOWN_START	n/a	n/a	n/a	-999	19	[0, 0, 0]	n/a	FR1	1	R1153T
2359.059	10.428	2387345	TRIAL	n/a	n/a	n/a	-999	19	[0, 0, 0]	n/a	FR1	1	R1153T
2369.487	0.008	2397773	COUNTDOWN_END	n/a	n/a	n/a	-999	19	[0, 0, 0]	n/a	FR1	1	R1153T
2369.495	2.466	2397781	ORIENT	n/a	n/a	n/a	-999	19	[0, 0, 0]	n/a	FR1	1	R1153T
2371.961	2.469	2400247	WORD	n/a	wordpools/wordpool_EN.txt	VASE	1	19	[0, 0, 0]	n/a	FR1	1	R1153T
2374.43	2.499	2402715	WORD	n/a	wordpools/wordpool_EN.txt	BIRD	2	19	[0, 0, 0]	n/a	FR1	1	R1153T
2376.929	2.418	2405214	WORD	n/a	wordpools/wordpool_EN.txt	NEST	3	19	[0, 0, 0]	n/a	FR1	1	R1153T
2379.347	2.533	2407632	WORD	n/a	wordpools/wordpool_EN.txt	SHARK	4	19	[0, 0, 0]	n/a	FR1	1	R1153T
2381.88	2.451	2410165	WORD	n/a	wordpools/wordpool_EN.txt	HOUSE	5	19	[0, 0, 0]	n/a	FR1	1	R1153T
2384.331	2.4	2412616	WORD	n/a	wordpools/wordpool_EN.txt	DOOR	6	19	[0, 0, 0]	n/a	FR1	1	R1153T
2386.731	2.618	2415016	WORD	n/a	wordpools/wordpool_EN.txt	WING	7	19	[0, 0, 0]	n/a	FR1	1	R1153T
2389.349	2.499	2417634	WORD	n/a	wordpools/wordpool_EN.txt	CAGE	8	19	[0, 0, 0]	n/a	FR1	1	R1153T
2391.848	2.569	2420133	WORD	n/a	wordpools/wordpool_EN.txt	ROPE	9	19	[0, 0, 0]	n/a	FR1	1	R1153T
2394.417	2.432	2422701	WORD	n/a	wordpools/wordpool_EN.txt	SEAL	10	19	[0, 0, 0]	n/a	FR1	1	R1153T
2396.849	2.468	2425133	WORD	n/a	wordpools/wordpool_EN.txt	WEB	11	19	[0, 0, 0]	n/a	FR1	1	R1153T
2399.317	1.616	2427601	WORD	n/a	wordpools/wordpool_EN.txt	SNAKE	12	19	[0, 0, 0]	n/a	FR1	1	R1153T
2400.933	0.001	2429217	DISTRACT_START	n/a	n/a	n/a	-999	19	[0, 0, 0]	n/a	FR1	1	R1153T
2400.934	0.016	2429218	START	n/a	n/a	n/a	-999	19	[-999, -999, -999]	n/a	FR1	1	R1153T
2400.95	3.368	2429234	PROB	3.368	n/a	n/a	-999	19	[6, 3, 7]	16	FR1	1	R1153T
2404.318	3.284	2432602	PROB	3.284	n/a	n/a	-999	19	[9, 1, 1]	11	FR1	1	R1153T
2407.602	2.884	2435886	PROB	2.884	n/a	n/a	-999	19	[1, 1, 8]	10	FR1	1	R1153T
2410.486	4.5	2438770	PROB	4.5	n/a	n/a	-999	19	[8, 2, 9]	19	FR1	1	R1153T
2414.986	9.371	2443269	PROB	9.371	n/a	n/a	-999	19	[9, 2, 4]	15	FR1	1	R1153T
2424.357	0.015	2452640	STOP	n/a	n/a	n/a	-999	19	[-999, -999, -999]	n/a	FR1	1	R1153T
2424.372	1.051	2452655	DISTRACT_END	n/a	n/a	n/a	-999	19	[0, 0, 0]	n/a	FR1	1	R1153T
2425.423	2.328	2453706	REC_START	n/a	n/a	n/a	-999	19	[0, 0, 0]	n/a	FR1	1	R1153T
2427.751	2.261	2456034	REC_WORD	2.261	n/a	CAGE	8	19	[0, 0, 0]	n/a	FR1	1	R1153T
2430.012	1.774	2458295	REC_WORD	1.774	n/a	HOUSE	5	19	[0, 0, 0]	n/a	FR1	1	R1153T
2431.786	4.07	2460069	REC_WORD	4.07	n/a	DOOR	6	19	[0, 0, 0]	n/a	FR1	1	R1153T
2435.856	5.027	2464138	REC_WORD	5.027	n/a	SHARK	4	19	[0, 0, 0]	n/a	FR1	1	R1153T
2440.883	5.582	2469165	REC_WORD	5.582	n/a	WEB	11	19	[0, 0, 0]	n/a	FR1	1	R1153T
2446.465	8.969	2474747	REC_WORD	8.969	n/a	SNAKE	12	19	[0, 0, 0]	n/a	FR1	1	R1153T
2455.434	15.229	2483716	REC_END	n/a	n/a	n/a	-999	19	[0, 0, 0]	n/a	FR1	1	R1153T
2470.663	0.0	2498944	TRIAL	n/a	n/a	n/a	-999	20	[0, 0, 0]	n/a	FR1	1	R1153T
2470.663	10.428	2498944	COUNTDOWN_START	n/a	n/a	n/a	-999	20	[0, 0, 0]	n/a	FR1	1	R1153T
2481.091	0.007	2509371	COUNTDOWN_END	n/a	n/a	n/a	-999	20	[0, 0, 0]	n/a	FR1	1	R1153T
2481.098	2.567	2509378	ORIENT	n/a	n/a	n/a	-999	20	[0, 0, 0]	n/a	FR1	1	R1153T
2483.665	2.417	2511945	WORD	n/a	wordpools/wordpool_EN.txt	PURSE	1	20	[0, 0, 0]	n/a	FR1	1	R1153T
2486.082	2.552	2514362	WORD	n/a	wordpools/wordpool_EN.txt	CHAIR	2	20	[0, 0, 0]	n/a	FR1	1	R1153T
2488.634	2.516	2516914	WORD	n/a	wordpools/wordpool_EN.txt	KITE	3	20	[0, 0, 0]	n/a	FR1	1	R1153T
2491.15	2.517	2519430	WORD	n/a	wordpools/wordpool_EN.txt	STOOL	4	20	[0, 0, 0]	n/a	FR1	1	R1153T
2493.667	2.585	2521947	WORD	n/a	wordpools/wordpool_EN.txt	CHIN	5	20	[0, 0, 0]	n/a	FR1	1	R1153T
2496.252	2.416	2524532	WORD	n/a	wordpools/wordpool_EN.txt	BRUSH	6	20	[0, 0, 0]	n/a	FR1	1	R1153T
2498.668	2.484	2526947	WORD	n/a	wordpools/wordpool_EN.txt	CANE	7	20	[0, 0, 0]	n/a	FR1	1	R1153T
2501.152	2.617	2529431	WORD	n/a	wordpools/wordpool_EN.txt	ROSE	8	20	[0, 0, 0]	n/a	FR1	1	R1153T
2503.769	2.501	2532048	WORD	n/a	wordpools/wordpool_EN.txt	DRESS	9	20	[0, 0, 0]	n/a	FR1	1	R1153T
2506.27	2.6	2534549	WORD	n/a	wordpools/wordpool_EN.txt	BLOOM	10	20	[0, 0, 0]	n/a	FR1	1	R1153T
2508.87	2.551	2537149	WORD	n/a	wordpools/wordpool_EN.txt	SQUARE	11	20	[0, 0, 0]	n/a	FR1	1	R1153T
2511.421	1.616	2539700	WORD	n/a	wordpools/wordpool_EN.txt	SOCK	12	20	[0, 0, 0]	n/a	FR1	1	R1153T
2513.037	0.001	2541316	DISTRACT_START	n/a	n/a	n/a	-999	20	[0, 0, 0]	n/a	FR1	1	R1153T
2513.038	0.016	2541317	START	n/a	n/a	n/a	-999	20	[-999, -999, -999]	n/a	FR1	1	R1153T
2513.054	4.617	2541333	PROB	4.617	n/a	n/a	-999	20	[6, 4, 5]	15	FR1	1	R1153T
2517.671	6.518	2545950	PROB	6.518	n/a	n/a	-999	20	[4, 5, 4]	13	FR1	1	R1153T
2524.189	3.768	2552467	PROB	3.768	n/a	n/a	-999	20	[1, 4, 1]	6	FR1	1	R1153T
2527.957	3.468	2556235	PROB	3.468	n/a	n/a	-999	20	[3, 7, 4]	14	FR1	1	R1153T
2531.425	3.172	2559703	PROB	3.172	n/a	n/a	-999	20	[1, 3, 4]	8	FR1	1	R1153T
2534.597	0.012	2562875	STOP	n/a	n/a	n/a	-999	20	[-999, -999, -999]	n/a	FR1	1	R1153T
2534.609	1.133	2562887	DISTRACT_END	n/a	n/a	n/a	-999	20	[0, 0, 0]	n/a	FR1	1	R1153T
2535.742	6.453	2564020	REC_START	n/a	n/a	n/a	-999	20	[0, 0, 0]	n/a	FR1	1	R1153T
2542.195	4.565	2570472	REC_WORD	4.565	n/a	DEER	-999	20	[0, 0, 0]	n/a	FR1	1	R1153T
2546.76	2.487	2575037	REC_WORD	2.487	n/a	SKY	-999	20	[0, 0, 0]	n/a	FR1	1	R1153T
2549.247	11.81	2577524	REC_WORD	11.81	n/a	SQUARE	11	20	[0, 0, 0]	n/a	FR1	1	R1153T
2561.057	4.696	2589333	REC_WORD	4.696	n/a	DOOR	-999	20	[0, 0, 0]	n/a	FR1	1	R1153T
2565.753	9.88	2594029	REC_END	n/a	n/a	n/a	-999	20	[0, 0, 0]	n/a	FR1	1	R1153T
2575.633	0.0	2603909	TRIAL	n/a	n/a	n/a	-999	21	[0, 0, 0]	n/a	FR1	1	R1153T
2575.633	10.428	2603909	COUNTDOWN_START	n/a	n/a	n/a	-999	21	[0, 0, 0]	n/a	FR1	1	R1153T
2586.061	0.006	2614336	COUNTDOWN_END	n/a	n/a	n/a	-999	21	[0, 0, 0]	n/a	FR1	1	R1153T
2586.067	2.435	2614342	ORIENT	n/a	n/a	n/a	-999	21	[0, 0, 0]	n/a	FR1	1	R1153T
2588.502	2.466	2616777	WORD	n/a	wordpools/wordpool_EN.txt	STRING	1	21	[0, 0, 0]	n/a	FR1	1	R1153T
2590.968	2.535	2619243	WORD	n/a	wordpools/wordpool_EN.txt	BOAT	2	21	[0, 0, 0]	n/a	FR1	1	R1153T
2593.503	2.533	2621778	WORD	n/a	wordpools/wordpool_EN.txt	HEN	3	21	[0, 0, 0]	n/a	FR1	1	R1153T
2596.036	2.633	2624311	WORD	n/a	wordpools/wordpool_EN.txt	CLIFF	4	21	[0, 0, 0]	n/a	FR1	1	R1153T
2598.669	2.468	2626944	WORD	n/a	wordpools/wordpool_EN.txt	STEAM	5	21	[0, 0, 0]	n/a	FR1	1	R1153T
2601.137	2.468	2629411	WORD	n/a	wordpools/wordpool_EN.txt	CHALK	6	21	[0, 0, 0]	n/a	FR1	1	R1153T
2603.605	2.399	2631879	WORD	n/a	wordpools/wordpool_EN.txt	STONE	7	21	[0, 0, 0]	n/a	FR1	1	R1153T
2606.004	2.368	2634278	WORD	n/a	wordpools/wordpool_EN.txt	SHEET	8	21	[0, 0, 0]	n/a	FR1	1	R1153T
2608.372	2.583	2636646	WORD	n/a	wordpools/wordpool_EN.txt	OWL	9	21	[0, 0, 0]	n/a	FR1	1	R1153T
2610.955	2.518	2639229	WORD	n/a	wordpools/wordpool_EN.txt	PEN	10	21	[0, 0, 0]	n/a	FR1	1	R1153T
2613.473	2.45	2641747	WORD	n/a	wordpools/wordpool_EN.txt	WHALE	11	21	[0, 0, 0]	n/a	FR1	1	R1153T
2615.923	1.618	2644197	WORD	n/a	wordpools/wordpool_EN.txt	GRASS	12	21	[0, 0, 0]	n/a	FR1	1	R1153T
2617.541	0.0	2645815	DISTRACT_START	n/a	n/a	n/a	-999	21	[0, 0, 0]	n/a	FR1	1	R1153T
2617.541	0.016	2645815	START	n/a	n/a	n/a	-999	21	[-999, -999, -999]	n/a	FR1	1	R1153T
2617.557	6.835	2645831	PROB	6.835	n/a	n/a	-999	21	[8, 7, 2]	17	FR1	1	R1153T
2624.392	6.35	2652665	PROB	6.35	n/a	n/a	-999	21	[6, 2, 5]	13	FR1	1	R1153T
2630.742	5.101	2659015	PROB	5.101	n/a	n/a	-999	21	[6, 6, 9]	21	FR1	1	R1153T
2635.843	3.009	2664116	PROB	3.009	n/a	n/a	-999	21	[3, 6, 7]	16	FR1	1	R1153T
2638.852	0.008	2667125	STOP	n/a	n/a	n/a	-999	21	[-999, -999, -999]	n/a	FR1	1	R1153T
2638.86	1.234	2667133	DISTRACT_END	n/a	n/a	n/a	-999	21	[0, 0, 0]	n/a	FR1	1	R1153T
2640.094	6.791	2668367	REC_START	n/a	n/a	n/a	-999	21	[0, 0, 0]	n/a	FR1	1	R1153T
2646.885	3.009	2675157	REC_WORD	3.009	n/a	GRASS	12	21	[0, 0, 0]	n/a	FR1	1	R1153T
2649.894	20.216	2678166	REC_WORD	20.216	n/a	WHALE	11	21	[0, 0, 0]	n/a	FR1	1	R1153T
2670.11	7.358	2698381	REC_END	n/a	n/a	n/a	-999	21	[0, 0, 0]	n/a	FR1	1	R1153T
2677.468	0.0	2705739	COUNTDOWN_START	n/a	n/a	n/a	-999	22	[0, 0, 0]	n/a	FR1	1	R1153T
2677.468	10.428	2705739	TRIAL	n/a	n/a	n/a	-999	22	[0, 0, 0]	n/a	FR1	1	R1153T
2687.896	0.006	2716166	COUNTDOWN_END	n/a	n/a	n/a	-999	22	[0, 0, 0]	n/a	FR1	1	R1153T
2687.902	2.552	2716172	ORIENT	n/a	n/a	n/a	-999	22	[0, 0, 0]	n/a	FR1	1	R1153T
2690.454	2.499	2718724	WORD	n/a	wordpools/wordpool_EN.txt	BRICK	1	22	[0, 0, 0]	n/a	FR1	1	R1153T
2692.953	2.368	2721223	WORD	n/a	wordpools/wordpool_EN.txt	CRANE	2	22	[0, 0, 0]	n/a	FR1	1	R1153T
2695.321	2.4	2723591	WORD	n/a	wordpools/wordpool_EN.txt	TOOL	3	22	[0, 0, 0]	n/a	FR1	1	R1153T
2697.721	2.601	2725991	WORD	n/a	wordpools/wordpool_EN.txt	HOSE	4	22	[0, 0, 0]	n/a	FR1	1	R1153T
2700.322	2.55	2728592	WORD	n/a	wordpools/wordpool_EN.txt	AXE	5	22	[0, 0, 0]	n/a	FR1	1	R1153T
2702.872	2.568	2731142	WORD	n/a	wordpools/wordpool_EN.txt	THUMB	6	22	[0, 0, 0]	n/a	FR1	1	R1153T
2705.44	2.599	2733709	WORD	n/a	wordpools/wordpool_EN.txt	VINE	7	22	[0, 0, 0]	n/a	FR1	1	R1153T
2708.039	2.519	2736308	WORD	n/a	wordpools/wordpool_EN.txt	SUIT	8	22	[0, 0, 0]	n/a	FR1	1	R1153T
2710.558	2.415	2738827	WORD	n/a	wordpools/wordpool_EN.txt	WOOD	9	22	[0, 0, 0]	n/a	FR1	1	R1153T
2712.973	2.519	2741242	WORD	n/a	wordpools/wordpool_EN.txt	PIPE	10	22	[0, 0, 0]	n/a	FR1	1	R1153T
2715.492	2.566	2743761	WORD	n/a	wordpools/wordpool_EN.txt	OAK	11	22	[0, 0, 0]	n/a	FR1	1	R1153T
2718.058	1.617	2746327	WORD	n/a	wordpools/wordpool_EN.txt	EEL	12	22	[0, 0, 0]	n/a	FR1	1	R1153T
2719.675	0.001	2747944	DISTRACT_START	n/a	n/a	n/a	-999	22	[0, 0, 0]	n/a	FR1	1	R1153T
2719.676	0.016	2747945	START	n/a	n/a	n/a	-999	22	[-999, -999, -999]	n/a	FR1	1	R1153T
2719.692	6.417	2747961	PROB	6.417	n/a	n/a	-999	22	[2, 2, 4]	8	FR1	1	R1153T
2726.109	2.751	2754377	PROB	2.751	n/a	n/a	-999	22	[3, 8, 1]	12	FR1	1	R1153T
2728.86	3.2	2757128	PROB	3.2	n/a	n/a	-999	22	[2, 5, 6]	13	FR1	1	R1153T
2732.06	2.067	2760328	PROB	2.067	n/a	n/a	-999	22	[1, 7, 3]	11	FR1	1	R1153T
2734.127	4.601	2762395	PROB	4.601	n/a	n/a	-999	22	[6, 6, 9]	21	FR1	1	R1153T
2738.728	4.805	2766996	PROB	4.805	n/a	n/a	-999	22	[7, 2, 9]	18	FR1	1	R1153T
2743.533	0.014	2771801	STOP	n/a	n/a	n/a	-999	22	[-999, -999, -999]	n/a	FR1	1	R1153T
2743.547	1.183	2771815	DISTRACT_END	n/a	n/a	n/a	-999	22	[0, 0, 0]	n/a	FR1	1	R1153T
2744.73	7.342	2772998	REC_START	n/a	n/a	n/a	-999	22	[0, 0, 0]	n/a	FR1	1	R1153T
2752.072	22.67	2780339	REC_WORD	22.67	n/a	TOOL	3	22	[0, 0, 0]	n/a	FR1	1	R1153T
2774.742	10.211	2803008	REC_END	n/a	n/a	n/a	-999	22	[0, 0, 0]	n/a	FR1	1	R1153T
2784.953	0.001	2813219	COUNTDOWN_START	n/a	n/a	n/a	-999	23	[0, 0, 0]	n/a	FR1	1	R1153T
2784.954	10.427	2813220	TRIAL	n/a	n/a	n/a	-999	23	[0, 0, 0]	n/a	FR1	1	R1153T
2795.381	0.009	2823646	COUNTDOWN_END	n/a	n/a	n/a	-999	23	[0, 0, 0]	n/a	FR1	1	R1153T
2795.39	2.549	2823655	ORIENT	n/a	n/a	n/a	-999	23	[0, 0, 0]	n/a	FR1	1	R1153T
2797.939	2.452	2826204	WORD	n/a	wordpools/wordpool_EN.txt	PET	1	23	[0, 0, 0]	n/a	FR1	1	R1153T
2800.391	2.416	2828656	WORD	n/a	wordpools/wordpool_EN.txt	HOLE	2	23	[0, 0, 0]	n/a	FR1	1	R1153T
2802.807	2.468	2831072	WORD	n/a	wordpools/wordpool_EN.txt	SLEEVE	3	23	[0, 0, 0]	n/a	FR1	1	R1153T
2805.275	2.449	2833540	WORD	n/a	wordpools/wordpool_EN.txt	CUBE	4	23	[0, 0, 0]	n/a	FR1	1	R1153T
2807.724	2.417	2835989	WORD	n/a	wordpools/wordpool_EN.txt	NAIL	5	23	[0, 0, 0]	n/a	FR1	1	R1153T
2810.141	2.402	2838405	WORD	n/a	wordpools/wordpool_EN.txt	COUCH	6	23	[0, 0, 0]	n/a	FR1	1	R1153T
2812.543	2.382	2840807	WORD	n/a	wordpools/wordpool_EN.txt	BARN	7	23	[0, 0, 0]	n/a	FR1	1	R1153T
2814.925	2.502	2843189	WORD	n/a	wordpools/wordpool_EN.txt	YARD	8	23	[0, 0, 0]	n/a	FR1	1	R1153T
2817.427	2.483	2845691	WORD	n/a	wordpools/wordpool_EN.txt	PIN	9	23	[0, 0, 0]	n/a	FR1	1	R1153T
2819.91	2.435	2848174	WORD	n/a	wordpools/wordpool_EN.txt	WALL	10	23	[0, 0, 0]	n/a	FR1	1	R1153T
2822.345	2.532	2850609	WORD	n/a	wordpools/wordpool_EN.txt	LAWN	11	23	[0, 0, 0]	n/a	FR1	1	R1153T
2824.877	1.601	2853141	WORD	n/a	wordpools/wordpool_EN.txt	TIE	12	23	[0, 0, 0]	n/a	FR1	1	R1153T
2826.478	0.001	2854742	DISTRACT_START	n/a	n/a	n/a	-999	23	[0, 0, 0]	n/a	FR1	1	R1153T
2826.479	0.016	2854743	START	n/a	n/a	n/a	-999	23	[-999, -999, -999]	n/a	FR1	1	R1153T
2826.495	6.617	2854759	PROB	6.617	n/a	n/a	-999	23	[3, 4, 4]	11	FR1	1	R1153T
2833.112	3.684	2861375	PROB	3.684	n/a	n/a	-999	23	[2, 2, 6]	10	FR1	1	R1153T
2836.796	3.184	2865059	PROB	3.184	n/a	n/a	-999	23	[7, 1, 1]	9	FR1	1	R1153T
2839.98	3.201	2868243	PROB	3.201	n/a	n/a	-999	23	[1, 5, 3]	9	FR1	1	R1153T
2843.181	8.863	2871444	PROB	8.863	n/a	n/a	-999	23	[9, 9, 4]	22	FR1	1	R1153T
2852.044	0.005	2880306	STOP	n/a	n/a	n/a	-999	23	[-999, -999, -999]	n/a	FR1	1	R1153T
2852.049	1.051	2880311	DISTRACT_END	n/a	n/a	n/a	-999	23	[0, 0, 0]	n/a	FR1	1	R1153T
2853.1	2.658	2881362	REC_START	n/a	n/a	n/a	-999	23	[0, 0, 0]	n/a	FR1	1	R1153T
2855.758	14.288	2884020	REC_WORD	14.288	n/a	HOLE	2	23	[0, 0, 0]	n/a	FR1	1	R1153T
2870.046	13.065	2898307	REC_WORD	13.065	n/a	ZOO	-999	23	[0, 0, 0]	n/a	FR1	1	R1153T
2883.111	6.313	2911372	REC_END	n/a	n/a	n/a	-999	23	[0, 0, 0]	n/a	FR1	1	R1153T
2889.424	0.0	2917685	TRIAL	n/a	n/a	n/a	-999	24	[0, 0, 0]	n/a	FR1	1	R1153T
2889.424	10.428	2917685	COUNTDOWN_START	n/a	n/a	n/a	-999	24	[0, 0, 0]	n/a	FR1	1	R1153T
2899.852	0.006	2928112	COUNTDOWN_END	n/a	n/a	n/a	-999	24	[0, 0, 0]	n/a	FR1	1	R1153T
2899.858	2.401	2928118	ORIENT	n/a	n/a	n/a	-999	24	[0, 0, 0]	n/a	FR1	1	R1153T
2902.259	2.4	2930519	WORD	n/a	wordpools/wordpool_EN.txt	HORN	1	24	[0, 0, 0]	n/a	FR1	1	R1153T
2904.659	2.517	2932919	WORD	n/a	wordpools/wordpool_EN.txt	PRINCE	2	24	[0, 0, 0]	n/a	FR1	1	R1153T
2907.176	2.484	2935436	WORD	n/a	wordpools/wordpool_EN.txt	GATE	3	24	[0, 0, 0]	n/a	FR1	1	R1153T
2909.66	2.467	2937920	WORD	n/a	wordpools/wordpool_EN.txt	FACE	4	24	[0, 0, 0]	n/a	FR1	1	R1153T
2912.127	2.468	2940386	WORD	n/a	wordpools/wordpool_EN.txt	THREAD	5	24	[0, 0, 0]	n/a	FR1	1	R1153T
2914.595	2.383	2942854	WORD	n/a	wordpools/wordpool_EN.txt	FENCE	6	24	[0, 0, 0]	n/a	FR1	1	R1153T
2916.978	2.584	2945237	WORD	n/a	wordpools/wordpool_EN.txt	ELF	7	24	[0, 0, 0]	n/a	FR1	1	R1153T
2919.562	2.566	2947821	WORD	n/a	wordpools/wordpool_EN.txt	POOL	8	24	[0, 0, 0]	n/a	FR1	1	R1153T
2922.128	2.551	2950387	WORD	n/a	wordpools/wordpool_EN.txt	STREET	9	24	[0, 0, 0]	n/a	FR1	1	R1153T
2924.679	2.417	2952938	WORD	n/a	wordpools/wordpool_EN.txt	SPARK	10	24	[0, 0, 0]	n/a	FR1	1	R1153T
2927.096	2.435	2955355	WORD	n/a	wordpools/wordpool_EN.txt	DOLL	11	24	[0, 0, 0]	n/a	FR1	1	R1153T
2929.531	1.616	2957790	WORD	n/a	wordpools/wordpool_EN.txt	TENT	12	24	[0, 0, 0]	n/a	FR1	1	R1153T
2931.147	0.001	2959406	DISTRACT_START	n/a	n/a	n/a	-999	24	[0, 0, 0]	n/a	FR1	1	R1153T
2931.148	0.016	2959407	START	n/a	n/a	n/a	-999	24	[-999, -999, -999]	n/a	FR1	1	R1153T
2931.164	6.617	2959423	PROB	6.617	n/a	n/a	-999	24	[2, 8, 6]	16	FR1	1	R1153T
2937.781	4.835	2966039	PROB	4.835	n/a	n/a	-999	24	[1, 6, 3]	10	FR1	1	R1153T
2942.616	3.001	2970874	PROB	3.001	n/a	n/a	-999	24	[4, 2, 6]	12	FR1	1	R1153T
2945.617	3.133	2973875	PROB	3.133	n/a	n/a	-999	24	[8, 3, 2]	13	FR1	1	R1153T
2948.75	4.567	2977008	PROB	4.567	n/a	n/a	-999	24	[6, 8, 5]	19	FR1	1	R1153T
2953.317	0.018	2981574	STOP	n/a	n/a	n/a	-999	24	[-999, -999, -999]	n/a	FR1	1	R1153T
2953.335	1.218	2981592	DISTRACT_END	n/a	n/a	n/a	-999	24	[0, 0, 0]	n/a	FR1	1	R1153T
2954.553	5.878	2982810	REC_START	n/a	n/a	n/a	-999	24	[0, 0, 0]	n/a	FR1	1	R1153T
2960.431	24.134	2988688	REC_WORD	24.134	n/a	STREET	9	24	[0, 0, 0]	n/a	FR1	1	R1153T
2984.565	11.627	3012821	REC_END	n/a	n/a	n/a	-999	24	[0, 0, 0]	n/a	FR1	1	R1153T
2996.192	0.0	3024447	TRIAL	n/a	n/a	n/a	-999	25	[0, 0, 0]	n/a	FR1	1	R1153T
2996.192	10.428	3024447	COUNTDOWN_START	n/a	n/a	n/a	-999	25	[0, 0, 0]	n/a	FR1	1	R1153T
3006.62	0.008	3034875	COUNTDOWN_END	n/a	n/a	n/a	-999	25	[0, 0, 0]	n/a	FR1	1	R1153T
3006.628	2.499	3034883	ORIENT	n/a	n/a	n/a	-999	25	[0, 0, 0]	n/a	FR1	1	R1153T
3009.127	2.534	3037382	WORD	n/a	wordpools/wordpool_EN.txt	CAR	1	25	[0, 0, 0]	n/a	FR1	1	R1153T
3011.661	2.468	3039916	WORD	n/a	wordpools/wordpool_EN.txt	FLOOR	2	25	[0, 0, 0]	n/a	FR1	1	R1153T
3014.129	2.434	3042384	WORD	n/a	wordpools/wordpool_EN.txt	ROAD	3	25	[0, 0, 0]	n/a	FR1	1	R1153T
3016.563	2.616	3044817	WORD	n/a	wordpools/wordpool_EN.txt	GUARD	4	25	[0, 0, 0]	n/a	FR1	1	R1153T
3019.179	2.469	3047433	WORD	n/a	wordpools/wordpool_EN.txt	ROOF	5	25	[0, 0, 0]	n/a	FR1	1	R1153T
3021.648	2.617	3049902	WORD	n/a	wordpools/wordpool_EN.txt	GOAT	6	25	[0, 0, 0]	n/a	FR1	1	R1153T
3024.265	2.433	3052519	WORD	n/a	wordpools/wordpool_EN.txt	MUD	7	25	[0, 0, 0]	n/a	FR1	1	R1153T
3026.698	2.417	3054952	WORD	n/a	wordpools/wordpool_EN.txt	SLUSH	8	25	[0, 0, 0]	n/a	FR1	1	R1153T
3029.115	2.451	3057369	WORD	n/a	wordpools/wordpool_EN.txt	GLASS	9	25	[0, 0, 0]	n/a	FR1	1	R1153T
3031.566	2.616	3059820	WORD	n/a	wordpools/wordpool_EN.txt	STOVE	10	25	[0, 0, 0]	n/a	FR1	1	R1153T
3034.182	2.418	3062436	WORD	n/a	wordpools/wordpool_EN.txt	FAN	11	25	[0, 0, 0]	n/a	FR1	1	R1153T
3036.6	1.616	3064853	WORD	n/a	wordpools/wordpool_EN.txt	JEEP	12	25	[0, 0, 0]	n/a	FR1	1	R1153T
3038.216	0.001	3066469	DISTRACT_START	n/a	n/a	n/a	-999	25	[0, 0, 0]	n/a	FR1	1	R1153T
3038.217	0.016	3066470	START	n/a	n/a	n/a	-999	25	[-999, -999, -999]	n/a	FR1	1	R1153T
3038.233	25.011	3066486	PROB	25.011	n/a	n/a	-999	25	[8, 5, 6]	16	FR1	1	R1153T
3063.244	0.011	3091496	STOP	n/a	n/a	n/a	-999	25	[-999, -999, -999]	n/a	FR1	1	R1153T
3063.255	1.068	3091507	DISTRACT_END	n/a	n/a	n/a	-999	25	[0, 0, 0]	n/a	FR1	1	R1153T
3064.323	4.495	3092575	REC_START	n/a	n/a	n/a	-999	25	[0, 0, 0]	n/a	FR1	1	R1153T
3068.818	25.516	3097070	REC_WORD	25.516	n/a	STOVE	10	25	[0, 0, 0]	n/a	FR1	1	R1153T
3094.334	0.0	3122585	REC_END	n/a	n/a	n/a	-999	25	[0, 0, 0]	n/a	FR1	1	R1153T
