onset	duration	sample	trial_type	response_time	stim_file	item_name	serialpos	list	test	answer	experiment	session	subject
0.0	23.339	246835	SESS_START	n/a	n/a	n/a	-999	-999	[0, 0, 0]	n/a	FR1	2	R1083J
23.339	10.428	270174	COUNTDOWN_START	n/a	n/a	n/a	-999	-999	[0, 0, 0]	n/a	FR1	2	R1083J
33.767	3.624	280601	COUNTDOWN_END	n/a	n/a	n/a	-999	-999	[0, 0, 0]	n/a	FR1	2	R1083J
37.391	2.466	284225	PRACTICE_WORD	n/a	n/a	RING	1	-1	[0, 0, 0]	n/a	FR1	2	R1083J
39.857	2.551	286691	PRACTICE_WORD	n/a	n/a	BEAM	2	-1	[0, 0, 0]	n/a	FR1	2	R1083J
42.408	2.4	289242	PRACTICE_WORD	n/a	n/a	CHEST	3	-1	[0, 0, 0]	n/a	FR1	2	R1083J
44.808	2.417	291642	PRACTICE_WORD	n/a	n/a	RHINO	4	-1	[0, 0, 0]	n/a	FR1	2	R1083J
47.225	2.384	294059	PRACTICE_WORD	n/a	n/a	FLOOD	5	-1	[0, 0, 0]	n/a	FR1	2	R1083J
49.609	2.499	296443	PRACTICE_WORD	n/a	n/a	IRON	6	-1	[0, 0, 0]	n/a	FR1	2	R1083J
52.108	2.485	298942	PRACTICE_WORD	n/a	n/a	COTTON	7	-1	[0, 0, 0]	n/a	FR1	2	R1083J
54.593	2.433	301427	PRACTICE_WORD	n/a	n/a	CAMEL	8	-1	[0, 0, 0]	n/a	FR1	2	R1083J
57.026	2.384	303860	PRACTICE_WORD	n/a	n/a	WAGON	9	-1	[0, 0, 0]	n/a	FR1	2	R1083J
59.41	2.55	306244	PRACTICE_WORD	n/a	n/a	ATTIC	10	-1	[0, 0, 0]	n/a	FR1	2	R1083J
61.96	2.501	308794	PRACTICE_WORD	n/a	n/a	WATCH	11	-1	[0, 0, 0]	n/a	FR1	2	R1083J
64.461	1.616	311295	PRACTICE_WORD	n/a	n/a	TONGUE	12	-1	[0, 0, 0]	n/a	FR1	2	R1083J
66.077	0.0	312911	PRACTICE_DISTRACT_START	n/a	n/a	n/a	-999	-1	[0, 0, 0]	n/a	FR1	2	R1083J
66.077	0.017	312911	START	n/a	n/a	n/a	-999	-1	[-999, -999, -999]	n/a	FR1	2	R1083J
66.094	4.817	312928	PROB	4.817	n/a	n/a	-999	-1	[5, 8, 3]	16	FR1	2	R1083J
70.911	2.167	317745	PROB	2.167	n/a	n/a	-999	-1	[2, 5, 6]	13	FR1	2	R1083J
73.078	2.535	319912	PROB	2.535	n/a	n/a	-999	-1	[8, 5, 8]	21	FR1	2	R1083J
75.613	2.8	322447	PROB	2.8	n/a	n/a	-999	-1	[2, 4, 3]	9	FR1	2	R1083J
78.413	2.2	325247	PROB	2.2	n/a	n/a	-999	-1	[9, 8, 5]	22	FR1	2	R1083J
80.613	2.566	327447	PROB	2.566	n/a	n/a	-999	-1	[2, 5, 3]	10	FR1	2	R1083J
83.179	2.335	330013	PROB	2.335	n/a	n/a	-999	-1	[8, 7, 7]	23	FR1	2	R1083J
85.514	2.347	332348	PROB	2.347	n/a	n/a	-999	-1	[1, 4, 6]	11	FR1	2	R1083J
87.861	0.019	334695	STOP	n/a	n/a	n/a	-999	-1	[-999, -999, -999]	n/a	FR1	2	R1083J
87.88	0.67	334714	PRACTICE_DISTRACT_END	n/a	n/a	n/a	-999	-1	[0, 0, 0]	n/a	FR1	2	R1083J
88.55	30.514	335384	PRACTICE_REC_START	n/a	n/a	n/a	-999	-1	[0, 0, 0]	n/a	FR1	2	R1083J
119.064	12.189	365898	PRACTICE_REC_END	n/a	n/a	n/a	-999	-1	[0, 0, 0]	n/a	FR1	2	R1083J
131.253	0.0	378087	TRIAL	n/a	n/a	n/a	-999	1	[0, 0, 0]	n/a	FR1	2	R1083J
131.253	10.428	378087	COUNTDOWN_START	n/a	n/a	n/a	-999	1	[0, 0, 0]	n/a	FR1	2	R1083J
141.681	0.006	388515	COUNTDOWN_END	n/a	n/a	n/a	-999	1	[0, 0, 0]	n/a	FR1	2	R1083J
141.687	2.618	388521	ORIENT	n/a	n/a	n/a	-999	1	[0, 0, 0]	n/a	FR1	2	R1083J
144.305	2.516	391139	WORD	n/a	wordpools/wordpool_EN.txt	LAMP	1	1	[0, 0, 0]	n/a	FR1	2	R1083J
146.821	2.417	393655	WORD	n/a	wordpools/wordpool_EN.txt	BOX	2	1	[0, 0, 0]	n/a	FR1	2	R1083J
149.238	2.567	396072	WORD	n/a	wordpools/wordpool_EN.txt	CHAIR	3	1	[0, 0, 0]	n/a	FR1	2	R1083J
151.805	2.534	398639	WORD	n/a	wordpools/wordpool_EN.txt	PHONE	4	1	[0, 0, 0]	n/a	FR1	2	R1083J
154.339	2.466	401173	WORD	n/a	wordpools/wordpool_EN.txt	GATE	5	1	[0, 0, 0]	n/a	FR1	2	R1083J
156.805	2.535	403639	WORD	n/a	wordpools/wordpool_EN.txt	OAK	6	1	[0, 0, 0]	n/a	FR1	2	R1083J
159.34	2.466	406174	WORD	n/a	wordpools/wordpool_EN.txt	SHARK	7	1	[0, 0, 0]	n/a	FR1	2	R1083J
161.806	2.535	408640	WORD	n/a	wordpools/wordpool_EN.txt	LOCK	8	1	[0, 0, 0]	n/a	FR1	2	R1083J
164.341	2.549	411175	WORD	n/a	wordpools/wordpool_EN.txt	STREET	9	1	[0, 0, 0]	n/a	FR1	2	R1083J
166.89	2.468	413724	WORD	n/a	wordpools/wordpool_EN.txt	MAZE	10	1	[0, 0, 0]	n/a	FR1	2	R1083J
169.358	2.482	416192	WORD	n/a	wordpools/wordpool_EN.txt	CLOCK	11	1	[0, 0, 0]	n/a	FR1	2	R1083J
171.84	1.601	418674	WORD	n/a	wordpools/wordpool_EN.txt	LAWN	12	1	[0, 0, 0]	n/a	FR1	2	R1083J
173.441	0.001	420275	DISTRACT_START	n/a	n/a	n/a	-999	1	[0, 0, 0]	n/a	FR1	2	R1083J
173.442	0.016	420276	START	n/a	n/a	n/a	-999	1	[-999, -999, -999]	n/a	FR1	2	R1083J
173.458	4.985	420292	PROB	4.985	n/a	n/a	-999	1	[6, 8, 2]	16	FR1	2	R1083J
178.443	1.949	425277	PROB	1.949	n/a	n/a	-999	1	[6, 4, 3]	13	FR1	2	R1083J
180.392	2.65	427226	PROB	2.65	n/a	n/a	-999	1	[9, 5, 4]	18	FR1	2	R1083J
183.042	2.401	429876	PROB	2.401	n/a	n/a	-999	1	[8, 7, 5]	20	FR1	2	R1083J
185.443	2.201	432277	PROB	2.201	n/a	n/a	-999	1	[6, 5, 5]	17	FR1	2	R1083J
187.644	3.199	434478	PROB	3.199	n/a	n/a	-999	1	[6, 8, 9]	23	FR1	2	R1083J
190.843	2.869	437677	PROB	2.869	n/a	n/a	-999	1	[5, 7, 7]	17	FR1	2	R1083J
193.712	0.015	440546	STOP	n/a	n/a	n/a	-999	1	[-999, -999, -999]	n/a	FR1	2	R1083J
193.727	1.14	440561	DISTRACT_END	n/a	n/a	n/a	-999	1	[0, 0, 0]	n/a	FR1	2	R1083J
194.867	2.09	441701	REC_START	n/a	n/a	n/a	-999	1	[0, 0, 0]	n/a	FR1	2	R1083J
196.957	1.885	443791	REC_WORD	1.885	n/a	BOX	-999	1	[0, 0, 0]	n/a	FR1	2	R1083J
198.842	3.524	445676	REC_WORD	3.524	n/a	LAWN	-999	1	[0, 0, 0]	n/a	FR1	2	R1083J
202.366	5.236	449200	REC_WORD	5.236	n/a	GLOVE	-999	1	[0, 0, 0]	n/a	FR1	2	R1083J
207.602	4.459	454436	REC_WORD	4.459	n/a	COAT	-999	1	[0, 0, 0]	n/a	FR1	2	R1083J
212.061	1.167	458895	REC_WORD	1.167	n/a	GATE	-999	1	[0, 0, 0]	n/a	FR1	2	R1083J
213.228	4.43	460062	REC_WORD_VV	4.43	n/a	<>	-999	1	[0, 0, 0]	n/a	FR1	2	R1083J
217.658	4.061	464492	REC_WORD	4.061	n/a	BARN	-999	1	[0, 0, 0]	n/a	FR1	2	R1083J
221.719	3.032	468553	REC_WORD	3.032	n/a	WOOD	-999	1	[0, 0, 0]	n/a	FR1	2	R1083J
224.751	0.121	471585	REC_WORD_VV	0.121	n/a	<>	-999	1	[0, 0, 0]	n/a	FR1	2	R1083J
224.872	2.594	471706	REC_END	n/a	n/a	n/a	-999	1	[0, 0, 0]	n/a	FR1	2	R1083J
227.466	0.0	474300	TRIAL	n/a	n/a	n/a	-999	2	[0, 0, 0]	n/a	FR1	2	R1083J
227.466	10.428	474300	COUNTDOWN_START	n/a	n/a	n/a	-999	2	[0, 0, 0]	n/a	FR1	2	R1083J
237.894	0.005	484727	COUNTDOWN_END	n/a	n/a	n/a	-999	2	[0, 0, 0]	n/a	FR1	2	R1083J
237.899	2.434	484732	ORIENT	n/a	n/a	n/a	-999	2	[0, 0, 0]	n/a	FR1	2	R1083J
240.333	2.617	487166	WORD	n/a	wordpools/wordpool_EN.txt	TENT	1	2	[0, 0, 0]	n/a	FR1	2	R1083J
242.95	2.384	489783	WORD	n/a	wordpools/wordpool_EN.txt	GUARD	2	2	[0, 0, 0]	n/a	FR1	2	R1083J
245.334	2.383	492167	WORD	n/a	wordpools/wordpool_EN.txt	JEEP	3	2	[0, 0, 0]	n/a	FR1	2	R1083J
247.717	2.467	494550	WORD	n/a	wordpools/wordpool_EN.txt	ARK	4	2	[0, 0, 0]	n/a	FR1	2	R1083J
250.184	2.601	497017	WORD	n/a	wordpools/wordpool_EN.txt	LIP	5	2	[0, 0, 0]	n/a	FR1	2	R1083J
252.785	2.534	499618	WORD	n/a	wordpools/wordpool_EN.txt	PEN	6	2	[0, 0, 0]	n/a	FR1	2	R1083J
255.319	2.616	502152	WORD	n/a	wordpools/wordpool_EN.txt	CHEEK	7	2	[0, 0, 0]	n/a	FR1	2	R1083J
257.935	2.518	504768	WORD	n/a	wordpools/wordpool_EN.txt	BADGE	8	2	[0, 0, 0]	n/a	FR1	2	R1083J
260.453	2.616	507286	WORD	n/a	wordpools/wordpool_EN.txt	HAT	9	2	[0, 0, 0]	n/a	FR1	2	R1083J
263.069	2.552	509902	WORD	n/a	wordpools/wordpool_EN.txt	MUD	10	2	[0, 0, 0]	n/a	FR1	2	R1083J
265.621	2.532	512454	WORD	n/a	wordpools/wordpool_EN.txt	GEESE	11	2	[0, 0, 0]	n/a	FR1	2	R1083J
268.153	1.617	514986	WORD	n/a	wordpools/wordpool_EN.txt	HAND	12	2	[0, 0, 0]	n/a	FR1	2	R1083J
269.77	0.001	516603	DISTRACT_START	n/a	n/a	n/a	-999	2	[0, 0, 0]	n/a	FR1	2	R1083J
269.771	0.015	516604	START	n/a	n/a	n/a	-999	2	[-999, -999, -999]	n/a	FR1	2	R1083J
269.786	4.401	516619	PROB	4.401	n/a	n/a	-999	2	[6, 6, 3]	15	FR1	2	R1083J
274.187	2.452	521020	PROB	2.452	n/a	n/a	-999	2	[7, 1, 3]	11	FR1	2	R1083J
276.639	2.332	523472	PROB	2.332	n/a	n/a	-999	2	[6, 9, 9]	24	FR1	2	R1083J
278.971	2.117	525804	PROB	2.117	n/a	n/a	-999	2	[2, 4, 5]	11	FR1	2	R1083J
281.088	2.235	527921	PROB	2.235	n/a	n/a	-999	2	[4, 8, 4]	16	FR1	2	R1083J
283.323	2.382	530156	PROB	2.382	n/a	n/a	-999	2	[3, 4, 9]	16	FR1	2	R1083J
285.705	3.001	532538	PROB	3.001	n/a	n/a	-999	2	[7, 9, 3]	19	FR1	2	R1083J
288.706	2.394	535539	PROB	2.394	n/a	n/a	-999	2	[8, 6, 5]	19	FR1	2	R1083J
291.1	0.006	537933	STOP	n/a	n/a	n/a	-999	2	[-999, -999, -999]	n/a	FR1	2	R1083J
291.106	1.051	537939	DISTRACT_END	n/a	n/a	n/a	-999	2	[0, 0, 0]	n/a	FR1	2	R1083J
292.157	2.386	538990	REC_START	n/a	n/a	n/a	-999	2	[0, 0, 0]	n/a	FR1	2	R1083J
294.543	3.298	541376	REC_WORD	3.298	n/a	JEEP	-999	2	[0, 0, 0]	n/a	FR1	2	R1083J
297.841	3.486	544674	REC_WORD	3.486	n/a	CAMP	-999	2	[0, 0, 0]	n/a	FR1	2	R1083J
301.327	2.246	548160	REC_WORD	2.246	n/a	TENT	-999	2	[0, 0, 0]	n/a	FR1	2	R1083J
303.573	2.426	550406	REC_WORD	2.426	n/a	ARK	-999	2	[0, 0, 0]	n/a	FR1	2	R1083J
305.999	5.841	552832	REC_WORD	5.841	n/a	BADGE	-999	2	[0, 0, 0]	n/a	FR1	2	R1083J
311.84	3.1	558673	REC_WORD	3.1	n/a	ARM	-999	2	[0, 0, 0]	n/a	FR1	2	R1083J
314.94	3.437	561773	REC_WORD	3.437	n/a	GEESE	-999	2	[0, 0, 0]	n/a	FR1	2	R1083J
318.377	3.788	565210	REC_WORD	3.788	n/a	PEN	-999	2	[0, 0, 0]	n/a	FR1	2	R1083J
322.165	2.529	568998	REC_END	n/a	n/a	n/a	-999	2	[0, 0, 0]	n/a	FR1	2	R1083J
324.694	0.0	571527	TRIAL	n/a	n/a	n/a	-999	3	[0, 0, 0]	n/a	FR1	2	R1083J
324.694	10.428	571527	COUNTDOWN_START	n/a	n/a	n/a	-999	3	[0, 0, 0]	n/a	FR1	2	R1083J
335.122	0.006	581955	COUNTDOWN_END	n/a	n/a	n/a	-999	3	[0, 0, 0]	n/a	FR1	2	R1083J
335.128	2.535	581961	ORIENT	n/a	n/a	n/a	-999	3	[0, 0, 0]	n/a	FR1	2	R1083J
337.663	2.6	584496	WORD	n/a	wordpools/wordpool_EN.txt	SCHOOL	1	3	[0, 0, 0]	n/a	FR1	2	R1083J
340.263	2.533	587096	WORD	n/a	wordpools/wordpool_EN.txt	RAT	2	3	[0, 0, 0]	n/a	FR1	2	R1083J
342.796	2.417	589629	WORD	n/a	wordpools/wordpool_EN.txt	VAN	3	3	[0, 0, 0]	n/a	FR1	2	R1083J
345.213	2.584	592046	WORD	n/a	wordpools/wordpool_EN.txt	PET	4	3	[0, 0, 0]	n/a	FR1	2	R1083J
347.797	2.416	594630	WORD	n/a	wordpools/wordpool_EN.txt	HAWK	5	3	[0, 0, 0]	n/a	FR1	2	R1083J
350.213	2.584	597046	WORD	n/a	wordpools/wordpool_EN.txt	SKUNK	6	3	[0, 0, 0]	n/a	FR1	2	R1083J
352.797	2.4	599630	WORD	n/a	wordpools/wordpool_EN.txt	POND	7	3	[0, 0, 0]	n/a	FR1	2	R1083J
355.197	2.601	602030	WORD	n/a	wordpools/wordpool_EN.txt	DUCK	8	3	[0, 0, 0]	n/a	FR1	2	R1083J
357.798	2.433	604631	WORD	n/a	wordpools/wordpool_EN.txt	BOARD	9	3	[0, 0, 0]	n/a	FR1	2	R1083J
360.231	2.617	607064	WORD	n/a	wordpools/wordpool_EN.txt	DOCK	10	3	[0, 0, 0]	n/a	FR1	2	R1083J
362.848	2.535	609681	WORD	n/a	wordpools/wordpool_EN.txt	STORE	11	3	[0, 0, 0]	n/a	FR1	2	R1083J
365.383	1.616	612216	WORD	n/a	wordpools/wordpool_EN.txt	APE	12	3	[0, 0, 0]	n/a	FR1	2	R1083J
366.999	0.001	613832	DISTRACT_START	n/a	n/a	n/a	-999	3	[0, 0, 0]	n/a	FR1	2	R1083J
367.0	0.016	613833	START	n/a	n/a	n/a	-999	3	[-999, -999, -999]	n/a	FR1	2	R1083J
367.016	2.7	613849	PROB	2.7	n/a	n/a	-999	3	[6, 8, 8]	22	FR1	2	R1083J
369.716	3.234	616549	PROB	3.234	n/a	n/a	-999	3	[5, 8, 3]	16	FR1	2	R1083J
372.95	3.685	619783	PROB	3.685	n/a	n/a	-999	3	[2, 1, 7]	10	FR1	2	R1083J
376.635	2.183	623468	PROB	2.183	n/a	n/a	-999	3	[2, 2, 5]	9	FR1	2	R1083J
378.818	2.983	625651	PROB	2.983	n/a	n/a	-999	3	[7, 2, 3]	12	FR1	2	R1083J
381.801	3.652	628634	PROB	3.652	n/a	n/a	-999	3	[6, 2, 9]	17	FR1	2	R1083J
385.453	5.076	632286	PROB	5.076	n/a	n/a	-999	3	[6, 8, 4]	16	FR1	2	R1083J
390.529	0.007	637362	STOP	n/a	n/a	n/a	-999	3	[-999, -999, -999]	n/a	FR1	2	R1083J
390.536	1.018	637369	DISTRACT_END	n/a	n/a	n/a	-999	3	[0, 0, 0]	n/a	FR1	2	R1083J
391.554	1.245	638387	REC_START	n/a	n/a	n/a	-999	3	[0, 0, 0]	n/a	FR1	2	R1083J
392.799	1.745	639632	REC_WORD_VV	1.745	n/a	<>	-999	3	[0, 0, 0]	n/a	FR1	2	R1083J
394.544	2.778	641377	REC_WORD	2.778	n/a	SCHOOL	-999	3	[0, 0, 0]	n/a	FR1	2	R1083J
397.322	4.234	644155	REC_WORD	4.234	n/a	RAT	-999	3	[0, 0, 0]	n/a	FR1	2	R1083J
401.556	4.292	648389	REC_WORD	4.292	n/a	BOOK	-999	3	[0, 0, 0]	n/a	FR1	2	R1083J
405.848	1.273	652681	REC_WORD_VV	1.273	n/a	<>	-999	3	[0, 0, 0]	n/a	FR1	2	R1083J
407.121	3.28	653954	REC_WORD	3.28	n/a	GLOVE	-999	3	[0, 0, 0]	n/a	FR1	2	R1083J
410.401	3.903	657234	REC_WORD	3.903	n/a	RHINO	-999	3	[0, 0, 0]	n/a	FR1	2	R1083J
414.304	0.731	661137	REC_WORD_VV	0.731	n/a	<>	-999	3	[0, 0, 0]	n/a	FR1	2	R1083J
415.035	3.678	661868	REC_WORD	3.678	n/a	APE	-999	3	[0, 0, 0]	n/a	FR1	2	R1083J
418.713	2.851	665546	REC_WORD_VV	2.851	n/a	<>	-999	3	[0, 0, 0]	n/a	FR1	2	R1083J
421.564	2.609	668397	REC_END	n/a	n/a	n/a	-999	3	[0, 0, 0]	n/a	FR1	2	R1083J
424.173	0.0	671006	COUNTDOWN_START	n/a	n/a	n/a	-999	4	[0, 0, 0]	n/a	FR1	2	R1083J
424.173	10.428	671006	TRIAL	n/a	n/a	n/a	-999	4	[0, 0, 0]	n/a	FR1	2	R1083J
434.601	0.008	681434	COUNTDOWN_END	n/a	n/a	n/a	-999	4	[0, 0, 0]	n/a	FR1	2	R1083J
434.609	2.466	681442	ORIENT	n/a	n/a	n/a	-999	4	[0, 0, 0]	n/a	FR1	2	R1083J
437.075	2.401	683908	WORD	n/a	wordpools/wordpool_EN.txt	MAT	1	4	[0, 0, 0]	n/a	FR1	2	R1083J
439.476	2.549	686309	WORD	n/a	wordpools/wordpool_EN.txt	COW	2	4	[0, 0, 0]	n/a	FR1	2	R1083J
442.025	2.485	688858	WORD	n/a	wordpools/wordpool_EN.txt	PIE	3	4	[0, 0, 0]	n/a	FR1	2	R1083J
444.51	2.55	691343	WORD	n/a	wordpools/wordpool_EN.txt	BREAD	4	4	[0, 0, 0]	n/a	FR1	2	R1083J
447.06	2.384	693892	WORD	n/a	wordpools/wordpool_EN.txt	DOLL	5	4	[0, 0, 0]	n/a	FR1	2	R1083J
449.444	2.499	696276	WORD	n/a	wordpools/wordpool_EN.txt	VASE	6	4	[0, 0, 0]	n/a	FR1	2	R1083J
451.943	2.435	698775	WORD	n/a	wordpools/wordpool_EN.txt	SPRING	7	4	[0, 0, 0]	n/a	FR1	2	R1083J
454.378	2.499	701210	WORD	n/a	wordpools/wordpool_EN.txt	SINK	8	4	[0, 0, 0]	n/a	FR1	2	R1083J
456.877	2.468	703709	WORD	n/a	wordpools/wordpool_EN.txt	SEAT	9	4	[0, 0, 0]	n/a	FR1	2	R1083J
459.345	2.583	706177	WORD	n/a	wordpools/wordpool_EN.txt	SHEEP	10	4	[0, 0, 0]	n/a	FR1	2	R1083J
461.928	2.535	708760	WORD	n/a	wordpools/wordpool_EN.txt	CLOTH	11	4	[0, 0, 0]	n/a	FR1	2	R1083J
464.463	1.616	711295	WORD	n/a	wordpools/wordpool_EN.txt	BLUSH	12	4	[0, 0, 0]	n/a	FR1	2	R1083J
466.079	0.001	712911	DISTRACT_START	n/a	n/a	n/a	-999	4	[0, 0, 0]	n/a	FR1	2	R1083J
466.08	0.015	712912	START	n/a	n/a	n/a	-999	4	[-999, -999, -999]	n/a	FR1	2	R1083J
466.095	4.435	712927	PROB	4.435	n/a	n/a	-999	4	[5, 6, 8]	19	FR1	2	R1083J
470.53	3.249	717362	PROB	3.249	n/a	n/a	-999	4	[1, 5, 2]	8	FR1	2	R1083J
473.779	2.518	720611	PROB	2.518	n/a	n/a	-999	4	[3, 2, 9]	14	FR1	2	R1083J
476.297	2.201	723129	PROB	2.201	n/a	n/a	-999	4	[6, 7, 4]	17	FR1	2	R1083J
478.498	2.382	725330	PROB	2.382	n/a	n/a	-999	4	[1, 6, 3]	10	FR1	2	R1083J
480.88	1.884	727712	PROB	1.884	n/a	n/a	-999	4	[4, 2, 7]	13	FR1	2	R1083J
482.764	2.133	729596	PROB	2.133	n/a	n/a	-999	4	[1, 8, 8]	17	FR1	2	R1083J
484.897	6.644	731729	PROB	6.644	n/a	n/a	-999	4	[9, 9, 8]	26	FR1	2	R1083J
491.541	0.009	738373	STOP	n/a	n/a	n/a	-999	4	[-999, -999, -999]	n/a	FR1	2	R1083J
491.55	1.101	738382	DISTRACT_END	n/a	n/a	n/a	-999	4	[0, 0, 0]	n/a	FR1	2	R1083J
492.651	1.711	739483	REC_START	n/a	n/a	n/a	-999	4	[0, 0, 0]	n/a	FR1	2	R1083J
494.362	1.223	741194	REC_WORD_VV	1.223	n/a	<>	-999	4	[0, 0, 0]	n/a	FR1	2	R1083J
495.585	3.934	742417	REC_WORD	3.934	n/a	SPRING	-999	4	[0, 0, 0]	n/a	FR1	2	R1083J
499.519	3.123	746351	REC_WORD	3.123	n/a	CLOTH	-999	4	[0, 0, 0]	n/a	FR1	2	R1083J
502.642	4.69	749474	REC_WORD_VV	4.69	n/a	<>	-999	4	[0, 0, 0]	n/a	FR1	2	R1083J
507.332	4.833	754164	REC_WORD	4.833	n/a	DUCK	-999	4	[0, 0, 0]	n/a	FR1	2	R1083J
512.165	5.221	758997	REC_WORD	5.221	n/a	VASE	-999	4	[0, 0, 0]	n/a	FR1	2	R1083J
517.386	3.254	764218	REC_WORD_VV	3.254	n/a	<>	-999	4	[0, 0, 0]	n/a	FR1	2	R1083J
520.64	2.022	767472	REC_WORD	2.022	n/a	BARN	-999	4	[0, 0, 0]	n/a	FR1	2	R1083J
522.662	2.441	769494	REC_END	n/a	n/a	n/a	-999	4	[0, 0, 0]	n/a	FR1	2	R1083J
525.103	0.0	771935	TRIAL	n/a	n/a	n/a	-999	5	[0, 0, 0]	n/a	FR1	2	R1083J
525.103	10.428	771935	COUNTDOWN_START	n/a	n/a	n/a	-999	5	[0, 0, 0]	n/a	FR1	2	R1083J
535.531	0.007	782363	COUNTDOWN_END	n/a	n/a	n/a	-999	5	[0, 0, 0]	n/a	FR1	2	R1083J
535.538	2.567	782370	ORIENT	n/a	n/a	n/a	-999	5	[0, 0, 0]	n/a	FR1	2	R1083J
538.105	2.45	784937	WORD	n/a	wordpools/wordpool_EN.txt	MOON	1	5	[0, 0, 0]	n/a	FR1	2	R1083J
540.555	2.483	787387	WORD	n/a	wordpools/wordpool_EN.txt	GRAPE	2	5	[0, 0, 0]	n/a	FR1	2	R1083J
543.038	2.452	789870	WORD	n/a	wordpools/wordpool_EN.txt	ICE	3	5	[0, 0, 0]	n/a	FR1	2	R1083J
545.49	2.566	792322	WORD	n/a	wordpools/wordpool_EN.txt	PLANE	4	5	[0, 0, 0]	n/a	FR1	2	R1083J
548.056	2.468	794888	WORD	n/a	wordpools/wordpool_EN.txt	JET	5	5	[0, 0, 0]	n/a	FR1	2	R1083J
550.524	2.482	797356	WORD	n/a	wordpools/wordpool_EN.txt	CAPE	6	5	[0, 0, 0]	n/a	FR1	2	R1083J
553.006	2.385	799838	WORD	n/a	wordpools/wordpool_EN.txt	SLUSH	7	5	[0, 0, 0]	n/a	FR1	2	R1083J
555.391	2.483	802223	WORD	n/a	wordpools/wordpool_EN.txt	ROCK	8	5	[0, 0, 0]	n/a	FR1	2	R1083J
557.874	2.384	804706	WORD	n/a	wordpools/wordpool_EN.txt	DOG	9	5	[0, 0, 0]	n/a	FR1	2	R1083J
560.258	2.45	807090	WORD	n/a	wordpools/wordpool_EN.txt	STAR	10	5	[0, 0, 0]	n/a	FR1	2	R1083J
562.708	2.551	809540	WORD	n/a	wordpools/wordpool_EN.txt	PRINCE	11	5	[0, 0, 0]	n/a	FR1	2	R1083J
565.259	1.616	812091	WORD	n/a	wordpools/wordpool_EN.txt	FISH	12	5	[0, 0, 0]	n/a	FR1	2	R1083J
566.875	0.001	813707	DISTRACT_START	n/a	n/a	n/a	-999	5	[0, 0, 0]	n/a	FR1	2	R1083J
566.876	0.016	813708	START	n/a	n/a	n/a	-999	5	[-999, -999, -999]	n/a	FR1	2	R1083J
566.892	3.816	813724	PROB	3.816	n/a	n/a	-999	5	[3, 3, 8]	14	FR1	2	R1083J
570.708	3.218	817540	PROB	3.218	n/a	n/a	-999	5	[7, 8, 9]	24	FR1	2	R1083J
573.926	2.2	820758	PROB	2.2	n/a	n/a	-999	5	[3, 3, 1]	7	FR1	2	R1083J
576.126	2.151	822958	PROB	2.151	n/a	n/a	-999	5	[6, 7, 2]	15	FR1	2	R1083J
578.277	2.267	825109	PROB	2.267	n/a	n/a	-999	5	[3, 7, 8]	18	FR1	2	R1083J
580.544	2.499	827376	PROB	2.499	n/a	n/a	-999	5	[1, 1, 6]	8	FR1	2	R1083J
583.043	1.817	829875	PROB	1.817	n/a	n/a	-999	5	[7, 1, 1]	9	FR1	2	R1083J
584.86	1.834	831692	PROB	1.834	n/a	n/a	-999	5	[3, 8, 1]	12	FR1	2	R1083J
586.694	1.828	833526	PROB	1.828	n/a	n/a	-999	5	[5, 6, 3]	14	FR1	2	R1083J
588.522	0.007	835354	STOP	n/a	n/a	n/a	-999	5	[-999, -999, -999]	n/a	FR1	2	R1083J
588.529	1.182	835361	DISTRACT_END	n/a	n/a	n/a	-999	5	[0, 0, 0]	n/a	FR1	2	R1083J
589.711	1.902	836543	REC_START	n/a	n/a	n/a	-999	5	[0, 0, 0]	n/a	FR1	2	R1083J
591.613	1.446	838445	REC_WORD	1.446	n/a	ROCK	-999	5	[0, 0, 0]	n/a	FR1	2	R1083J
593.059	2.381	839891	REC_WORD	2.381	n/a	STAR	-999	5	[0, 0, 0]	n/a	FR1	2	R1083J
595.44	2.05	842272	REC_WORD	2.05	n/a	PAINT	-999	5	[0, 0, 0]	n/a	FR1	2	R1083J
597.49	3.461	844322	REC_WORD	3.461	n/a	FISH	-999	5	[0, 0, 0]	n/a	FR1	2	R1083J
600.951	3.088	847783	REC_WORD	3.088	n/a	GRAPE	-999	5	[0, 0, 0]	n/a	FR1	2	R1083J
604.039	4.178	850871	REC_WORD	4.178	n/a	JET	-999	5	[0, 0, 0]	n/a	FR1	2	R1083J
608.217	5.47	855049	REC_WORD_VV	5.47	n/a	<>	-999	5	[0, 0, 0]	n/a	FR1	2	R1083J
613.687	3.838	860519	REC_WORD_VV	3.838	n/a	<>	-999	5	[0, 0, 0]	n/a	FR1	2	R1083J
617.525	2.199	864357	REC_WORD	2.199	n/a	JET	-999	5	[0, 0, 0]	n/a	FR1	2	R1083J
619.724	3.408	866556	REC_END	n/a	n/a	n/a	-999	5	[0, 0, 0]	n/a	FR1	2	R1083J
623.132	0.0	869964	TRIAL	n/a	n/a	n/a	-999	6	[0, 0, 0]	n/a	FR1	2	R1083J
623.132	10.428	869964	COUNTDOWN_START	n/a	n/a	n/a	-999	6	[0, 0, 0]	n/a	FR1	2	R1083J
633.56	0.008	880392	COUNTDOWN_END	n/a	n/a	n/a	-999	6	[0, 0, 0]	n/a	FR1	2	R1083J
633.568	2.566	880400	ORIENT	n/a	n/a	n/a	-999	6	[0, 0, 0]	n/a	FR1	2	R1083J
636.134	2.485	882966	WORD	n/a	wordpools/wordpool_EN.txt	RICE	1	6	[0, 0, 0]	n/a	FR1	2	R1083J
638.619	2.582	885451	WORD	n/a	wordpools/wordpool_EN.txt	EGG	2	6	[0, 0, 0]	n/a	FR1	2	R1083J
641.201	2.517	888033	WORD	n/a	wordpools/wordpool_EN.txt	CORD	3	6	[0, 0, 0]	n/a	FR1	2	R1083J
643.718	2.618	890550	WORD	n/a	wordpools/wordpool_EN.txt	NET	4	6	[0, 0, 0]	n/a	FR1	2	R1083J
646.336	2.633	893168	WORD	n/a	wordpools/wordpool_EN.txt	WAVE	5	6	[0, 0, 0]	n/a	FR1	2	R1083J
648.969	2.617	895801	WORD	n/a	wordpools/wordpool_EN.txt	POLE	6	6	[0, 0, 0]	n/a	FR1	2	R1083J
651.586	2.483	898418	WORD	n/a	wordpools/wordpool_EN.txt	PEA	7	6	[0, 0, 0]	n/a	FR1	2	R1083J
654.069	2.452	900901	WORD	n/a	wordpools/wordpool_EN.txt	TOAD	8	6	[0, 0, 0]	n/a	FR1	2	R1083J
656.521	2.432	903353	WORD	n/a	wordpools/wordpool_EN.txt	SHEET	9	6	[0, 0, 0]	n/a	FR1	2	R1083J
658.953	2.468	905784	WORD	n/a	wordpools/wordpool_EN.txt	CASH	10	6	[0, 0, 0]	n/a	FR1	2	R1083J
661.421	2.416	908252	WORD	n/a	wordpools/wordpool_EN.txt	HEN	11	6	[0, 0, 0]	n/a	FR1	2	R1083J
663.837	1.601	910668	WORD	n/a	wordpools/wordpool_EN.txt	COIN	12	6	[0, 0, 0]	n/a	FR1	2	R1083J
665.438	0.001	912269	DISTRACT_START	n/a	n/a	n/a	-999	6	[0, 0, 0]	n/a	FR1	2	R1083J
665.439	0.016	912270	START	n/a	n/a	n/a	-999	6	[-999, -999, -999]	n/a	FR1	2	R1083J
665.455	3.283	912286	PROB	3.283	n/a	n/a	-999	6	[8, 3, 2]	13	FR1	2	R1083J
668.738	4.117	915569	PROB	4.117	n/a	n/a	-999	6	[9, 8, 8]	25	FR1	2	R1083J
672.855	2.284	919686	PROB	2.284	n/a	n/a	-999	6	[5, 7, 7]	19	FR1	2	R1083J
675.139	1.617	921970	PROB	1.617	n/a	n/a	-999	6	[5, 3, 5]	13	FR1	2	R1083J
676.756	2.334	923587	PROB	2.334	n/a	n/a	-999	6	[6, 2, 2]	10	FR1	2	R1083J
679.09	1.866	925921	PROB	1.866	n/a	n/a	-999	6	[6, 1, 1]	8	FR1	2	R1083J
680.956	2.635	927787	PROB	2.635	n/a	n/a	-999	6	[9, 6, 1]	16	FR1	2	R1083J
683.591	3.071	930422	PROB	3.071	n/a	n/a	-999	6	[3, 9, 6]	18	FR1	2	R1083J
686.662	0.013	933493	STOP	n/a	n/a	n/a	-999	6	[-999, -999, -999]	n/a	FR1	2	R1083J
686.675	1.066	933506	DISTRACT_END	n/a	n/a	n/a	-999	6	[0, 0, 0]	n/a	FR1	2	R1083J
687.741	2.499	934572	REC_START	n/a	n/a	n/a	-999	6	[0, 0, 0]	n/a	FR1	2	R1083J
690.24	2.858	937071	REC_WORD	2.858	n/a	RICE	-999	6	[0, 0, 0]	n/a	FR1	2	R1083J
693.098	2.106	939929	REC_WORD	2.106	n/a	TOAD	-999	6	[0, 0, 0]	n/a	FR1	2	R1083J
695.204	3.006	942035	REC_WORD	3.006	n/a	SHEET	-999	6	[0, 0, 0]	n/a	FR1	2	R1083J
698.21	4.377	945041	REC_WORD	4.377	n/a	EGG	-999	6	[0, 0, 0]	n/a	FR1	2	R1083J
702.587	1.685	949418	REC_WORD_VV	1.685	n/a	<>	-999	6	[0, 0, 0]	n/a	FR1	2	R1083J
704.272	3.077	951103	REC_WORD	3.077	n/a	FARM	-999	6	[0, 0, 0]	n/a	FR1	2	R1083J
707.349	0.89	954180	REC_WORD	0.89	n/a	EGG	-999	6	[0, 0, 0]	n/a	FR1	2	R1083J
708.239	6.454	955070	REC_WORD	6.454	n/a	GEESE	-999	6	[0, 0, 0]	n/a	FR1	2	R1083J
714.693	3.062	961524	REC_WORD	3.062	n/a	COW	-999	6	[0, 0, 0]	n/a	FR1	2	R1083J
717.755	3.023	964586	REC_END	n/a	n/a	n/a	-999	6	[0, 0, 0]	n/a	FR1	2	R1083J
720.778	0.0	967609	TRIAL	n/a	n/a	n/a	-999	7	[0, 0, 0]	n/a	FR1	2	R1083J
720.778	10.428	967609	COUNTDOWN_START	n/a	n/a	n/a	-999	7	[0, 0, 0]	n/a	FR1	2	R1083J
731.206	0.007	978037	COUNTDOWN_END	n/a	n/a	n/a	-999	7	[0, 0, 0]	n/a	FR1	2	R1083J
731.213	2.534	978044	ORIENT	n/a	n/a	n/a	-999	7	[0, 0, 0]	n/a	FR1	2	R1083J
733.747	2.518	980578	WORD	n/a	wordpools/wordpool_EN.txt	SPARK	1	7	[0, 0, 0]	n/a	FR1	2	R1083J
736.265	2.566	983096	WORD	n/a	wordpools/wordpool_EN.txt	SEAL	2	7	[0, 0, 0]	n/a	FR1	2	R1083J
738.831	2.501	985662	WORD	n/a	wordpools/wordpool_EN.txt	THREAD	3	7	[0, 0, 0]	n/a	FR1	2	R1083J
741.332	2.466	988163	WORD	n/a	wordpools/wordpool_EN.txt	DITCH	4	7	[0, 0, 0]	n/a	FR1	2	R1083J
743.798	2.501	990629	WORD	n/a	wordpools/wordpool_EN.txt	FLAG	5	7	[0, 0, 0]	n/a	FR1	2	R1083J
746.299	2.483	993130	WORD	n/a	wordpools/wordpool_EN.txt	SAIL	6	7	[0, 0, 0]	n/a	FR1	2	R1083J
748.782	2.467	995613	WORD	n/a	wordpools/wordpool_EN.txt	TANK	7	7	[0, 0, 0]	n/a	FR1	2	R1083J
751.249	2.466	998080	WORD	n/a	wordpools/wordpool_EN.txt	TOY	8	7	[0, 0, 0]	n/a	FR1	2	R1083J
753.715	2.384	1000546	WORD	n/a	wordpools/wordpool_EN.txt	GRASS	9	7	[0, 0, 0]	n/a	FR1	2	R1083J
756.099	2.584	1002930	WORD	n/a	wordpools/wordpool_EN.txt	SEA	10	7	[0, 0, 0]	n/a	FR1	2	R1083J
758.683	2.45	1005514	WORD	n/a	wordpools/wordpool_EN.txt	SHIP	11	7	[0, 0, 0]	n/a	FR1	2	R1083J
761.133	1.617	1007964	WORD	n/a	wordpools/wordpool_EN.txt	PIN	12	7	[0, 0, 0]	n/a	FR1	2	R1083J
762.75	0.001	1009581	DISTRACT_START	n/a	n/a	n/a	-999	7	[0, 0, 0]	n/a	FR1	2	R1083J
762.751	0.016	1009582	START	n/a	n/a	n/a	-999	7	[-999, -999, -999]	n/a	FR1	2	R1083J
762.767	4.134	1009598	PROB	4.134	n/a	n/a	-999	7	[5, 8, 7]	20	FR1	2	R1083J
766.901	2.734	1013732	PROB	2.734	n/a	n/a	-999	7	[6, 1, 9]	16	FR1	2	R1083J
769.635	1.934	1016466	PROB	1.934	n/a	n/a	-999	7	[4, 6, 8]	18	FR1	2	R1083J
771.569	4.017	1018400	PROB	4.017	n/a	n/a	-999	7	[5, 7, 8]	20	FR1	2	R1083J
775.586	2.466	1022417	PROB	2.466	n/a	n/a	-999	7	[6, 2, 5]	13	FR1	2	R1083J
778.052	2.1	1024883	PROB	2.1	n/a	n/a	-999	7	[2, 2, 5]	9	FR1	2	R1083J
780.152	2.944	1026983	PROB	2.944	n/a	n/a	-999	7	[7, 6, 6]	19	FR1	2	R1083J
783.096	0.006	1029927	STOP	n/a	n/a	n/a	-999	7	[-999, -999, -999]	n/a	FR1	2	R1083J
783.102	1.118	1029933	DISTRACT_END	n/a	n/a	n/a	-999	7	[0, 0, 0]	n/a	FR1	2	R1083J
784.22	1.87	1031051	REC_START	n/a	n/a	n/a	-999	7	[0, 0, 0]	n/a	FR1	2	R1083J
786.09	2.144	1032921	REC_WORD	2.144	n/a	GRASS	-999	7	[0, 0, 0]	n/a	FR1	2	R1083J
788.234	3.708	1035065	REC_WORD	3.708	n/a	SAIL	-999	7	[0, 0, 0]	n/a	FR1	2	R1083J
791.942	6.453	1038773	REC_WORD	6.453	n/a	NUT	-999	7	[0, 0, 0]	n/a	FR1	2	R1083J
798.395	3.958	1045226	REC_WORD	3.958	n/a	JET	-999	7	[0, 0, 0]	n/a	FR1	2	R1083J
802.353	6.482	1049184	REC_WORD	6.482	n/a	EGG	-999	7	[0, 0, 0]	n/a	FR1	2	R1083J
808.835	2.764	1055666	REC_WORD	2.764	n/a	GRASS	-999	7	[0, 0, 0]	n/a	FR1	2	R1083J
811.599	2.631	1058430	REC_WORD_VV	2.631	n/a	<>	-999	7	[0, 0, 0]	n/a	FR1	2	R1083J
814.23	2.643	1061061	REC_END	n/a	n/a	n/a	-999	7	[0, 0, 0]	n/a	FR1	2	R1083J
816.873	0.001	1063704	COUNTDOWN_START	n/a	n/a	n/a	-999	8	[0, 0, 0]	n/a	FR1	2	R1083J
816.874	10.427	1063705	TRIAL	n/a	n/a	n/a	-999	8	[0, 0, 0]	n/a	FR1	2	R1083J
827.301	0.008	1074132	COUNTDOWN_END	n/a	n/a	n/a	-999	8	[0, 0, 0]	n/a	FR1	2	R1083J
827.309	2.416	1074140	ORIENT	n/a	n/a	n/a	-999	8	[0, 0, 0]	n/a	FR1	2	R1083J
829.725	2.45	1076556	WORD	n/a	wordpools/wordpool_EN.txt	FOAM	1	8	[0, 0, 0]	n/a	FR1	2	R1083J
832.175	2.418	1079006	WORD	n/a	wordpools/wordpool_EN.txt	PEARL	2	8	[0, 0, 0]	n/a	FR1	2	R1083J
834.593	2.55	1081424	WORD	n/a	wordpools/wordpool_EN.txt	PEACH	3	8	[0, 0, 0]	n/a	FR1	2	R1083J
837.143	2.518	1083974	WORD	n/a	wordpools/wordpool_EN.txt	BEAN	4	8	[0, 0, 0]	n/a	FR1	2	R1083J
839.661	2.6	1086492	WORD	n/a	wordpools/wordpool_EN.txt	JAR	5	8	[0, 0, 0]	n/a	FR1	2	R1083J
842.261	2.416	1089092	WORD	n/a	wordpools/wordpool_EN.txt	DESK	6	8	[0, 0, 0]	n/a	FR1	2	R1083J
844.677	2.567	1091508	WORD	n/a	wordpools/wordpool_EN.txt	SLIME	7	8	[0, 0, 0]	n/a	FR1	2	R1083J
847.244	2.551	1094075	WORD	n/a	wordpools/wordpool_EN.txt	CUP	8	8	[0, 0, 0]	n/a	FR1	2	R1083J
849.795	2.534	1096626	WORD	n/a	wordpools/wordpool_EN.txt	HOOK	9	8	[0, 0, 0]	n/a	FR1	2	R1083J
852.329	2.483	1099160	WORD	n/a	wordpools/wordpool_EN.txt	SOUP	10	8	[0, 0, 0]	n/a	FR1	2	R1083J
854.812	2.585	1101643	WORD	n/a	wordpools/wordpool_EN.txt	STOOL	11	8	[0, 0, 0]	n/a	FR1	2	R1083J
857.397	1.616	1104228	WORD	n/a	wordpools/wordpool_EN.txt	FRUIT	12	8	[0, 0, 0]	n/a	FR1	2	R1083J
859.013	0.001	1105844	DISTRACT_START	n/a	n/a	n/a	-999	8	[0, 0, 0]	n/a	FR1	2	R1083J
859.014	0.015	1105845	START	n/a	n/a	n/a	-999	8	[-999, -999, -999]	n/a	FR1	2	R1083J
859.029	2.967	1105860	PROB	2.967	n/a	n/a	-999	8	[6, 5, 2]	13	FR1	2	R1083J
861.996	2.468	1108827	PROB	2.468	n/a	n/a	-999	8	[1, 2, 4]	7	FR1	2	R1083J
864.464	2.366	1111295	PROB	2.366	n/a	n/a	-999	8	[8, 7, 8]	23	FR1	2	R1083J
866.83	2.485	1113661	PROB	2.485	n/a	n/a	-999	8	[1, 4, 4]	8	FR1	2	R1083J
869.315	2.25	1116146	PROB	2.25	n/a	n/a	-999	8	[3, 8, 3]	14	FR1	2	R1083J
871.565	2.233	1118395	PROB	2.233	n/a	n/a	-999	8	[3, 8, 2]	13	FR1	2	R1083J
873.798	1.768	1120628	PROB	1.768	n/a	n/a	-999	8	[7, 2, 2]	11	FR1	2	R1083J
875.566	2.033	1122396	PROB	2.033	n/a	n/a	-999	8	[5, 9, 7]	23	FR1	2	R1083J
877.599	3.687	1124429	PROB	3.687	n/a	n/a	-999	8	[9, 5, 8]	22	FR1	2	R1083J
881.286	0.013	1128116	STOP	n/a	n/a	n/a	-999	8	[-999, -999, -999]	n/a	FR1	2	R1083J
881.299	1.085	1128129	DISTRACT_END	n/a	n/a	n/a	-999	8	[0, 0, 0]	n/a	FR1	2	R1083J
882.384	2.003	1129214	REC_START	n/a	n/a	n/a	-999	8	[0, 0, 0]	n/a	FR1	2	R1083J
884.387	1.772	1131217	REC_WORD_VV	1.772	n/a	<>	-999	8	[0, 0, 0]	n/a	FR1	2	R1083J
886.159	5.722	1132989	REC_WORD_VV	5.722	n/a	<>	-999	8	[0, 0, 0]	n/a	FR1	2	R1083J
891.881	2.261	1138711	REC_WORD_VV	2.261	n/a	<>	-999	8	[0, 0, 0]	n/a	FR1	2	R1083J
894.142	3.529	1140972	REC_WORD	3.529	n/a	LOG	-999	8	[0, 0, 0]	n/a	FR1	2	R1083J
897.671	2.445	1144501	REC_WORD_VV	2.445	n/a	<>	-999	8	[0, 0, 0]	n/a	FR1	2	R1083J
900.116	5.589	1146946	REC_WORD_VV	5.589	n/a	<>	-999	8	[0, 0, 0]	n/a	FR1	2	R1083J
905.705	6.689	1152535	REC_WORD	6.689	n/a	SOUP	-999	8	[0, 0, 0]	n/a	FR1	2	R1083J
912.394	6.293	1159224	REC_END	n/a	n/a	n/a	-999	8	[0, 0, 0]	n/a	FR1	2	R1083J
918.687	0.0	1165517	TRIAL	n/a	n/a	n/a	-999	9	[0, 0, 0]	n/a	FR1	2	R1083J
918.687	10.428	1165517	COUNTDOWN_START	n/a	n/a	n/a	-999	9	[0, 0, 0]	n/a	FR1	2	R1083J
929.115	0.007	1175945	COUNTDOWN_END	n/a	n/a	n/a	-999	9	[0, 0, 0]	n/a	FR1	2	R1083J
929.122	2.616	1175952	ORIENT	n/a	n/a	n/a	-999	9	[0, 0, 0]	n/a	FR1	2	R1083J
931.738	2.467	1178568	WORD	n/a	wordpools/wordpool_EN.txt	PEAR	1	9	[0, 0, 0]	n/a	FR1	2	R1083J
934.205	2.484	1181035	WORD	n/a	wordpools/wordpool_EN.txt	CALF	2	9	[0, 0, 0]	n/a	FR1	2	R1083J
936.689	2.401	1183519	WORD	n/a	wordpools/wordpool_EN.txt	FOX	3	9	[0, 0, 0]	n/a	FR1	2	R1083J
939.09	2.384	1185920	WORD	n/a	wordpools/wordpool_EN.txt	EEL	4	9	[0, 0, 0]	n/a	FR1	2	R1083J
941.474	2.416	1188304	WORD	n/a	wordpools/wordpool_EN.txt	MOUTH	5	9	[0, 0, 0]	n/a	FR1	2	R1083J
943.89	2.401	1190720	WORD	n/a	wordpools/wordpool_EN.txt	ROOT	6	9	[0, 0, 0]	n/a	FR1	2	R1083J
946.291	2.433	1193121	WORD	n/a	wordpools/wordpool_EN.txt	CHIEF	7	9	[0, 0, 0]	n/a	FR1	2	R1083J
948.724	2.568	1195554	WORD	n/a	wordpools/wordpool_EN.txt	LEAF	8	9	[0, 0, 0]	n/a	FR1	2	R1083J
951.292	2.432	1198122	WORD	n/a	wordpools/wordpool_EN.txt	TOOTH	9	9	[0, 0, 0]	n/a	FR1	2	R1083J
953.724	2.451	1200554	WORD	n/a	wordpools/wordpool_EN.txt	WEB	10	9	[0, 0, 0]	n/a	FR1	2	R1083J
956.175	2.5	1203005	WORD	n/a	wordpools/wordpool_EN.txt	CHALK	11	9	[0, 0, 0]	n/a	FR1	2	R1083J
958.675	1.618	1205505	WORD	n/a	wordpools/wordpool_EN.txt	BRANCH	12	9	[0, 0, 0]	n/a	FR1	2	R1083J
960.293	0.001	1207123	DISTRACT_START	n/a	n/a	n/a	-999	9	[0, 0, 0]	n/a	FR1	2	R1083J
960.294	0.015	1207124	START	n/a	n/a	n/a	-999	9	[-999, -999, -999]	n/a	FR1	2	R1083J
960.309	4.367	1207139	PROB	4.367	n/a	n/a	-999	9	[8, 1, 7]	16	FR1	2	R1083J
964.676	2.25	1211506	PROB	2.25	n/a	n/a	-999	9	[2, 1, 5]	8	FR1	2	R1083J
966.926	3.267	1213756	PROB	3.267	n/a	n/a	-999	9	[7, 9, 4]	20	FR1	2	R1083J
970.193	2.118	1217023	PROB	2.118	n/a	n/a	-999	9	[3, 3, 6]	12	FR1	2	R1083J
972.311	2.8	1219141	PROB	2.8	n/a	n/a	-999	9	[6, 5, 8]	20	FR1	2	R1083J
975.111	2.967	1221941	PROB	2.967	n/a	n/a	-999	9	[5, 7, 6]	18	FR1	2	R1083J
978.078	1.9	1224908	PROB	1.9	n/a	n/a	-999	9	[5, 8, 8]	21	FR1	2	R1083J
979.978	2.183	1226808	PROB	2.183	n/a	n/a	-999	9	[4, 4, 3]	11	FR1	2	R1083J
982.161	0.017	1228991	STOP	n/a	n/a	n/a	-999	9	[-999, -999, -999]	n/a	FR1	2	R1083J
982.178	1.202	1229008	DISTRACT_END	n/a	n/a	n/a	-999	9	[0, 0, 0]	n/a	FR1	2	R1083J
983.38	2.318	1230210	REC_START	n/a	n/a	n/a	-999	9	[0, 0, 0]	n/a	FR1	2	R1083J
985.698	2.832	1232528	REC_WORD	2.832	n/a	BRANCH	-999	9	[0, 0, 0]	n/a	FR1	2	R1083J
988.53	3.863	1235360	REC_WORD	3.863	n/a	EEL	-999	9	[0, 0, 0]	n/a	FR1	2	R1083J
992.393	3.444	1239223	REC_WORD	3.444	n/a	TOOTH	-999	9	[0, 0, 0]	n/a	FR1	2	R1083J
995.837	13.254	1242667	REC_WORD	13.254	n/a	WELL	-999	9	[0, 0, 0]	n/a	FR1	2	R1083J
1009.091	1.661	1255921	REC_WORD	1.661	n/a	LAKE	-999	9	[0, 0, 0]	n/a	FR1	2	R1083J
1010.752	1.456	1257582	REC_WORD	1.456	n/a	HOOP	-999	9	[0, 0, 0]	n/a	FR1	2	R1083J
1012.208	1.183	1259038	REC_WORD	1.183	n/a	ROOT	-999	9	[0, 0, 0]	n/a	FR1	2	R1083J
1013.391	2.109	1260221	REC_END	n/a	n/a	n/a	-999	9	[0, 0, 0]	n/a	FR1	2	R1083J
1015.5	0.0	1262330	TRIAL	n/a	n/a	n/a	-999	10	[0, 0, 0]	n/a	FR1	2	R1083J
1015.5	10.428	1262330	COUNTDOWN_START	n/a	n/a	n/a	-999	10	[0, 0, 0]	n/a	FR1	2	R1083J
1025.928	0.006	1272758	COUNTDOWN_END	n/a	n/a	n/a	-999	10	[0, 0, 0]	n/a	FR1	2	R1083J
1025.934	2.418	1272764	ORIENT	n/a	n/a	n/a	-999	10	[0, 0, 0]	n/a	FR1	2	R1083J
1028.352	2.483	1275182	WORD	n/a	wordpools/wordpool_EN.txt	MAP	1	10	[0, 0, 0]	n/a	FR1	2	R1083J
1030.835	2.568	1277665	WORD	n/a	wordpools/wordpool_EN.txt	SEED	2	10	[0, 0, 0]	n/a	FR1	2	R1083J
1033.403	2.516	1280233	WORD	n/a	wordpools/wordpool_EN.txt	SHELL	3	10	[0, 0, 0]	n/a	FR1	2	R1083J
1035.919	2.551	1282749	WORD	n/a	wordpools/wordpool_EN.txt	GOLD	4	10	[0, 0, 0]	n/a	FR1	2	R1083J
1038.47	2.583	1285300	WORD	n/a	wordpools/wordpool_EN.txt	SNAKE	5	10	[0, 0, 0]	n/a	FR1	2	R1083J
1041.053	2.501	1287883	WORD	n/a	wordpools/wordpool_EN.txt	PLANT	6	10	[0, 0, 0]	n/a	FR1	2	R1083J
1043.554	2.583	1290384	WORD	n/a	wordpools/wordpool_EN.txt	WORLD	7	10	[0, 0, 0]	n/a	FR1	2	R1083J
1046.137	2.468	1292967	WORD	n/a	wordpools/wordpool_EN.txt	STEM	8	10	[0, 0, 0]	n/a	FR1	2	R1083J
1048.605	2.549	1295435	WORD	n/a	wordpools/wordpool_EN.txt	ROSE	9	10	[0, 0, 0]	n/a	FR1	2	R1083J
1051.154	2.434	1297984	WORD	n/a	wordpools/wordpool_EN.txt	MOTH	10	10	[0, 0, 0]	n/a	FR1	2	R1083J
1053.588	2.55	1300418	WORD	n/a	wordpools/wordpool_EN.txt	CLOUD	11	10	[0, 0, 0]	n/a	FR1	2	R1083J
1056.138	1.617	1302968	WORD	n/a	wordpools/wordpool_EN.txt	KEY	12	10	[0, 0, 0]	n/a	FR1	2	R1083J
1057.755	0.001	1304585	DISTRACT_START	n/a	n/a	n/a	-999	10	[0, 0, 0]	n/a	FR1	2	R1083J
1057.756	0.015	1304586	START	n/a	n/a	n/a	-999	10	[-999, -999, -999]	n/a	FR1	2	R1083J
1057.771	6.468	1304601	PROB	6.468	n/a	n/a	-999	10	[8, 4, 1]	13	FR1	2	R1083J
1064.239	2.251	1311069	PROB	2.251	n/a	n/a	-999	10	[1, 3, 8]	12	FR1	2	R1083J
1066.49	2.85	1313320	PROB	2.85	n/a	n/a	-999	10	[9, 3, 3]	15	FR1	2	R1083J
1069.34	2.816	1316170	PROB	2.816	n/a	n/a	-999	10	[5, 6, 7]	18	FR1	2	R1083J
1072.156	2.001	1318986	PROB	2.001	n/a	n/a	-999	10	[9, 1, 9]	19	FR1	2	R1083J
1074.157	1.717	1320987	PROB	1.717	n/a	n/a	-999	10	[5, 4, 3]	12	FR1	2	R1083J
1075.874	1.701	1322704	PROB	1.701	n/a	n/a	-999	10	[2, 9, 3]	14	FR1	2	R1083J
1077.575	2.246	1324405	PROB	2.246	n/a	n/a	-999	10	[7, 6, 6]	19	FR1	2	R1083J
1079.821	0.019	1326651	STOP	n/a	n/a	n/a	-999	10	[-999, -999, -999]	n/a	FR1	2	R1083J
1079.84	1.201	1326670	DISTRACT_END	n/a	n/a	n/a	-999	10	[0, 0, 0]	n/a	FR1	2	R1083J
1081.041	2.067	1327870	REC_START	n/a	n/a	n/a	-999	10	[0, 0, 0]	n/a	FR1	2	R1083J
1083.108	2.793	1329937	REC_WORD	2.793	n/a	MOTH	-999	10	[0, 0, 0]	n/a	FR1	2	R1083J
1085.901	3.735	1332730	REC_WORD	3.735	n/a	CLOUD	-999	10	[0, 0, 0]	n/a	FR1	2	R1083J
1089.636	3.084	1336465	REC_WORD	3.084	n/a	KEY	-999	10	[0, 0, 0]	n/a	FR1	2	R1083J
1092.72	1.974	1339549	REC_WORD	1.974	n/a	NEST	-999	10	[0, 0, 0]	n/a	FR1	2	R1083J
1094.694	3.429	1341523	REC_WORD	3.429	n/a	NET	-999	10	[0, 0, 0]	n/a	FR1	2	R1083J
1098.123	8.195	1344952	REC_WORD	8.195	n/a	ANT	-999	10	[0, 0, 0]	n/a	FR1	2	R1083J
1106.318	4.733	1353147	REC_WORD	4.733	n/a	BEAN	-999	10	[0, 0, 0]	n/a	FR1	2	R1083J
1111.051	3.412	1357880	REC_END	n/a	n/a	n/a	-999	10	[0, 0, 0]	n/a	FR1	2	R1083J
1114.463	0.0	1361292	TRIAL	n/a	n/a	n/a	-999	11	[0, 0, 0]	n/a	FR1	2	R1083J
1114.463	10.428	1361292	COUNTDOWN_START	n/a	n/a	n/a	-999	11	[0, 0, 0]	n/a	FR1	2	R1083J
1124.891	0.006	1371720	COUNTDOWN_END	n/a	n/a	n/a	-999	11	[0, 0, 0]	n/a	FR1	2	R1083J
1124.897	2.451	1371726	ORIENT	n/a	n/a	n/a	-999	11	[0, 0, 0]	n/a	FR1	2	R1083J
1127.348	2.582	1374177	WORD	n/a	wordpools/wordpool_EN.txt	VINE	1	11	[0, 0, 0]	n/a	FR1	2	R1083J
1129.93	2.385	1376759	WORD	n/a	wordpools/wordpool_EN.txt	EAR	2	11	[0, 0, 0]	n/a	FR1	2	R1083J
1132.315	2.416	1379144	WORD	n/a	wordpools/wordpool_EN.txt	FOOD	3	11	[0, 0, 0]	n/a	FR1	2	R1083J
1134.731	2.384	1381560	WORD	n/a	wordpools/wordpool_EN.txt	HEART	4	11	[0, 0, 0]	n/a	FR1	2	R1083J
1137.115	2.401	1383944	WORD	n/a	wordpools/wordpool_EN.txt	BED	5	11	[0, 0, 0]	n/a	FR1	2	R1083J
1139.516	2.566	1386345	WORD	n/a	wordpools/wordpool_EN.txt	HOSE	6	11	[0, 0, 0]	n/a	FR1	2	R1083J
1142.082	2.451	1388911	WORD	n/a	wordpools/wordpool_EN.txt	TRAIN	7	11	[0, 0, 0]	n/a	FR1	2	R1083J
1144.533	2.516	1391362	WORD	n/a	wordpools/wordpool_EN.txt	MOUSE	8	11	[0, 0, 0]	n/a	FR1	2	R1083J
1147.049	2.402	1393878	WORD	n/a	wordpools/wordpool_EN.txt	SMOKE	9	11	[0, 0, 0]	n/a	FR1	2	R1083J
1149.451	2.449	1396280	WORD	n/a	wordpools/wordpool_EN.txt	ROOM	10	11	[0, 0, 0]	n/a	FR1	2	R1083J
1151.9	2.485	1398729	WORD	n/a	wordpools/wordpool_EN.txt	MOOSE	11	11	[0, 0, 0]	n/a	FR1	2	R1083J
1154.385	1.616	1401214	WORD	n/a	wordpools/wordpool_EN.txt	CAKE	12	11	[0, 0, 0]	n/a	FR1	2	R1083J
1156.001	0.0	1402830	DISTRACT_START	n/a	n/a	n/a	-999	11	[0, 0, 0]	n/a	FR1	2	R1083J
1156.001	0.017	1402830	START	n/a	n/a	n/a	-999	11	[-999, -999, -999]	n/a	FR1	2	R1083J
1156.018	4.401	1402847	PROB	4.401	n/a	n/a	-999	11	[3, 1, 8]	12	FR1	2	R1083J
1160.419	3.15	1407248	PROB	3.15	n/a	n/a	-999	11	[8, 8, 1]	17	FR1	2	R1083J
1163.569	3.667	1410398	PROB	3.667	n/a	n/a	-999	11	[6, 9, 7]	23	FR1	2	R1083J
1167.236	4.218	1414065	PROB	4.218	n/a	n/a	-999	11	[4, 1, 5]	10	FR1	2	R1083J
1171.454	3.884	1418283	PROB	3.884	n/a	n/a	-999	11	[4, 6, 5]	15	FR1	2	R1083J
1175.338	3.105	1422167	PROB	3.105	n/a	n/a	-999	11	[8, 3, 3]	14	FR1	2	R1083J
1178.443	0.012	1425272	STOP	n/a	n/a	n/a	-999	11	[-999, -999, -999]	n/a	FR1	2	R1083J
1178.455	1.083	1425284	DISTRACT_END	n/a	n/a	n/a	-999	11	[0, 0, 0]	n/a	FR1	2	R1083J
1179.538	2.457	1426367	REC_START	n/a	n/a	n/a	-999	11	[0, 0, 0]	n/a	FR1	2	R1083J
1181.995	2.028	1428824	REC_WORD	2.028	n/a	MOOSE	-999	11	[0, 0, 0]	n/a	FR1	2	R1083J
1184.023	5.182	1430852	REC_WORD	5.182	n/a	ROOM	-999	11	[0, 0, 0]	n/a	FR1	2	R1083J
1189.205	5.818	1436034	REC_WORD	5.818	n/a	GLUE	-999	11	[0, 0, 0]	n/a	FR1	2	R1083J
1195.023	4.886	1441852	REC_WORD	4.886	n/a	GOOSE	-999	11	[0, 0, 0]	n/a	FR1	2	R1083J
1199.909	6.7	1446738	REC_WORD	6.7	n/a	MUD	-999	11	[0, 0, 0]	n/a	FR1	2	R1083J
1206.609	2.409	1453438	REC_WORD	2.409	n/a	NOSE	-999	11	[0, 0, 0]	n/a	FR1	2	R1083J
1209.018	0.533	1455847	REC_WORD	0.533	n/a	MOUTH	-999	11	[0, 0, 0]	n/a	FR1	2	R1083J
1209.551	3.224	1456380	REC_END	n/a	n/a	n/a	-999	11	[0, 0, 0]	n/a	FR1	2	R1083J
1212.775	0.0	1459604	TRIAL	n/a	n/a	n/a	-999	12	[0, 0, 0]	n/a	FR1	2	R1083J
1212.775	10.428	1459604	COUNTDOWN_START	n/a	n/a	n/a	-999	12	[0, 0, 0]	n/a	FR1	2	R1083J
1223.203	0.006	1470032	COUNTDOWN_END	n/a	n/a	n/a	-999	12	[0, 0, 0]	n/a	FR1	2	R1083J
1223.209	2.567	1470038	ORIENT	n/a	n/a	n/a	-999	12	[0, 0, 0]	n/a	FR1	2	R1083J
1225.776	2.585	1472605	WORD	n/a	wordpools/wordpool_EN.txt	SMILE	1	12	[0, 0, 0]	n/a	FR1	2	R1083J
1228.361	2.466	1475190	WORD	n/a	wordpools/wordpool_EN.txt	LAKE	2	12	[0, 0, 0]	n/a	FR1	2	R1083J
1230.827	2.4	1477656	WORD	n/a	wordpools/wordpool_EN.txt	TRAY	3	12	[0, 0, 0]	n/a	FR1	2	R1083J
1233.227	2.567	1480056	WORD	n/a	wordpools/wordpool_EN.txt	SUN	4	12	[0, 0, 0]	n/a	FR1	2	R1083J
1235.794	2.485	1482623	WORD	n/a	wordpools/wordpool_EN.txt	THUMB	5	12	[0, 0, 0]	n/a	FR1	2	R1083J
1238.279	2.466	1485108	WORD	n/a	wordpools/wordpool_EN.txt	SKY	6	12	[0, 0, 0]	n/a	FR1	2	R1083J
1240.745	2.535	1487574	WORD	n/a	wordpools/wordpool_EN.txt	BEACH	7	12	[0, 0, 0]	n/a	FR1	2	R1083J
1243.28	2.532	1490109	WORD	n/a	wordpools/wordpool_EN.txt	BEAK	8	12	[0, 0, 0]	n/a	FR1	2	R1083J
1245.812	2.452	1492641	WORD	n/a	wordpools/wordpool_EN.txt	WALL	9	12	[0, 0, 0]	n/a	FR1	2	R1083J
1248.264	2.515	1495093	WORD	n/a	wordpools/wordpool_EN.txt	STORM	10	12	[0, 0, 0]	n/a	FR1	2	R1083J
1250.779	2.552	1497608	WORD	n/a	wordpools/wordpool_EN.txt	BIRD	11	12	[0, 0, 0]	n/a	FR1	2	R1083J
1253.331	1.616	1500160	WORD	n/a	wordpools/wordpool_EN.txt	TIE	12	12	[0, 0, 0]	n/a	FR1	2	R1083J
1254.947	0.001	1501776	DISTRACT_START	n/a	n/a	n/a	-999	12	[0, 0, 0]	n/a	FR1	2	R1083J
1254.948	0.015	1501777	START	n/a	n/a	n/a	-999	12	[-999, -999, -999]	n/a	FR1	2	R1083J
1254.963	3.685	1501792	PROB	3.685	n/a	n/a	-999	12	[3, 2, 5]	10	FR1	2	R1083J
1258.648	2.249	1505477	PROB	2.249	n/a	n/a	-999	12	[9, 3, 2]	14	FR1	2	R1083J
1260.897	2.234	1507726	PROB	2.234	n/a	n/a	-999	12	[4, 3, 1]	8	FR1	2	R1083J
1263.131	2.067	1509960	PROB	2.067	n/a	n/a	-999	12	[4, 7, 1]	12	FR1	2	R1083J
1265.198	1.733	1512027	PROB	1.733	n/a	n/a	-999	12	[2, 7, 4]	13	FR1	2	R1083J
1266.931	2.768	1513760	PROB	2.768	n/a	n/a	-999	12	[6, 8, 5]	18	FR1	2	R1083J
1269.699	1.634	1516528	PROB	1.634	n/a	n/a	-999	12	[3, 3, 5]	11	FR1	2	R1083J
1271.333	1.984	1518162	PROB	1.984	n/a	n/a	-999	12	[7, 5, 2]	14	FR1	2	R1083J
1273.317	2.697	1520146	PROB	2.697	n/a	n/a	-999	12	[5, 9, 4]	18	FR1	2	R1083J
1276.014	0.019	1522843	STOP	n/a	n/a	n/a	-999	12	[-999, -999, -999]	n/a	FR1	2	R1083J
1276.033	1.134	1522862	DISTRACT_END	n/a	n/a	n/a	-999	12	[0, 0, 0]	n/a	FR1	2	R1083J
1277.167	1.779	1523996	REC_START	n/a	n/a	n/a	-999	12	[0, 0, 0]	n/a	FR1	2	R1083J
1278.946	3.007	1525775	REC_WORD	3.007	n/a	STORM	-999	12	[0, 0, 0]	n/a	FR1	2	R1083J
1281.953	3.403	1528782	REC_WORD	3.403	n/a	BEACH	-999	12	[0, 0, 0]	n/a	FR1	2	R1083J
1285.356	2.91	1532185	REC_WORD	2.91	n/a	BARK	-999	12	[0, 0, 0]	n/a	FR1	2	R1083J
1288.266	4.465	1535095	REC_WORD	4.465	n/a	BEAK	-999	12	[0, 0, 0]	n/a	FR1	2	R1083J
1292.731	4.582	1539559	REC_WORD	4.582	n/a	GRASS	-999	12	[0, 0, 0]	n/a	FR1	2	R1083J
1297.313	7.208	1544141	REC_WORD	7.208	n/a	SAND	-999	12	[0, 0, 0]	n/a	FR1	2	R1083J
1304.521	1.996	1551349	REC_WORD	1.996	n/a	MUD	-999	12	[0, 0, 0]	n/a	FR1	2	R1083J
1306.517	0.667	1553345	REC_WORD	0.667	n/a	HEAT	-999	12	[0, 0, 0]	n/a	FR1	2	R1083J
1307.184	3.803	1554012	REC_END	n/a	n/a	n/a	-999	12	[0, 0, 0]	n/a	FR1	2	R1083J
1310.987	0.0	1557815	TRIAL	n/a	n/a	n/a	-999	13	[0, 0, 0]	n/a	FR1	2	R1083J
1310.987	10.428	1557815	COUNTDOWN_START	n/a	n/a	n/a	-999	13	[0, 0, 0]	n/a	FR1	2	R1083J
1321.415	0.008	1568243	COUNTDOWN_END	n/a	n/a	n/a	-999	13	[0, 0, 0]	n/a	FR1	2	R1083J
1321.423	2.499	1568251	ORIENT	n/a	n/a	n/a	-999	13	[0, 0, 0]	n/a	FR1	2	R1083J
1323.922	2.435	1570750	WORD	n/a	wordpools/wordpool_EN.txt	BOMB	1	13	[0, 0, 0]	n/a	FR1	2	R1083J
1326.357	2.599	1573185	WORD	n/a	wordpools/wordpool_EN.txt	FORT	2	13	[0, 0, 0]	n/a	FR1	2	R1083J
1328.956	2.568	1575784	WORD	n/a	wordpools/wordpool_EN.txt	STEAM	3	13	[0, 0, 0]	n/a	FR1	2	R1083J
1331.524	2.383	1578352	WORD	n/a	wordpools/wordpool_EN.txt	DRUM	4	13	[0, 0, 0]	n/a	FR1	2	R1083J
1333.907	2.501	1580735	WORD	n/a	wordpools/wordpool_EN.txt	BARN	5	13	[0, 0, 0]	n/a	FR1	2	R1083J
1336.408	2.583	1583236	WORD	n/a	wordpools/wordpool_EN.txt	TRASH	6	13	[0, 0, 0]	n/a	FR1	2	R1083J
1338.991	2.501	1585819	WORD	n/a	wordpools/wordpool_EN.txt	FLUTE	7	13	[0, 0, 0]	n/a	FR1	2	R1083J
1341.492	2.416	1588320	WORD	n/a	wordpools/wordpool_EN.txt	WHEEL	8	13	[0, 0, 0]	n/a	FR1	2	R1083J
1343.908	2.418	1590736	WORD	n/a	wordpools/wordpool_EN.txt	RAIN	9	13	[0, 0, 0]	n/a	FR1	2	R1083J
1346.326	2.383	1593154	WORD	n/a	wordpools/wordpool_EN.txt	BRIDGE	10	13	[0, 0, 0]	n/a	FR1	2	R1083J
1348.709	2.4	1595537	WORD	n/a	wordpools/wordpool_EN.txt	LAND	11	13	[0, 0, 0]	n/a	FR1	2	R1083J
1351.109	1.617	1597937	WORD	n/a	wordpools/wordpool_EN.txt	FOG	12	13	[0, 0, 0]	n/a	FR1	2	R1083J
1352.726	0.001	1599554	DISTRACT_START	n/a	n/a	n/a	-999	13	[0, 0, 0]	n/a	FR1	2	R1083J
1352.727	0.016	1599555	START	n/a	n/a	n/a	-999	13	[-999, -999, -999]	n/a	FR1	2	R1083J
1352.743	3.217	1599571	PROB	3.217	n/a	n/a	-999	13	[9, 3, 1]	13	FR1	2	R1083J
1355.96	1.784	1602788	PROB	1.784	n/a	n/a	-999	13	[7, 2, 4]	13	FR1	2	R1083J
1357.744	2.784	1604572	PROB	2.784	n/a	n/a	-999	13	[7, 1, 8]	16	FR1	2	R1083J
1360.528	4.101	1607356	PROB	4.101	n/a	n/a	-999	13	[1, 4, 3]	8	FR1	2	R1083J
1364.629	2.8	1611457	PROB	2.8	n/a	n/a	-999	13	[6, 3, 1]	10	FR1	2	R1083J
1367.429	1.649	1614257	PROB	1.649	n/a	n/a	-999	13	[6, 6, 1]	13	FR1	2	R1083J
1369.078	2.218	1615906	PROB	2.218	n/a	n/a	-999	13	[4, 9, 5]	18	FR1	2	R1083J
1371.296	1.921	1618124	PROB	1.921	n/a	n/a	-999	13	[3, 6, 3]	12	FR1	2	R1083J
1373.217	0.011	1620045	STOP	n/a	n/a	n/a	-999	13	[-999, -999, -999]	n/a	FR1	2	R1083J
1373.228	1.052	1620056	DISTRACT_END	n/a	n/a	n/a	-999	13	[0, 0, 0]	n/a	FR1	2	R1083J
1374.28	2.08	1621108	REC_START	n/a	n/a	n/a	-999	13	[0, 0, 0]	n/a	FR1	2	R1083J
1376.36	1.394	1623188	REC_WORD	1.394	n/a	LAND	-999	13	[0, 0, 0]	n/a	FR1	2	R1083J
1377.754	1.802	1624582	REC_WORD	1.802	n/a	FOG	-999	13	[0, 0, 0]	n/a	FR1	2	R1083J
1379.556	2.442	1626384	REC_WORD	2.442	n/a	BOMB	-999	13	[0, 0, 0]	n/a	FR1	2	R1083J
1381.998	4.772	1628826	REC_WORD	4.772	n/a	BARN	-999	13	[0, 0, 0]	n/a	FR1	2	R1083J
1386.77	6.604	1633598	REC_WORD	6.604	n/a	DUST	-999	13	[0, 0, 0]	n/a	FR1	2	R1083J
1393.374	4.193	1640202	REC_WORD	4.193	n/a	KITE	-999	13	[0, 0, 0]	n/a	FR1	2	R1083J
1397.567	6.731	1644395	REC_WORD	6.731	n/a	LAND	-999	13	[0, 0, 0]	n/a	FR1	2	R1083J
1404.298	6.569	1651126	REC_END	n/a	n/a	n/a	-999	13	[0, 0, 0]	n/a	FR1	2	R1083J
1410.867	0.0	1657695	TRIAL	n/a	n/a	n/a	-999	14	[0, 0, 0]	n/a	FR1	2	R1083J
1410.867	0.0	1657695	COUNTDOWN_START	n/a	n/a	n/a	-999	14	[0, 0, 0]	n/a	FR1	2	R1083J
