onset	duration	sample	trial_type	response_time	stim_file	item_name	serialpos	list	test	answer	experiment	session	subject
0.0	13.413	164757	SESS_START	n/a	n/a	n/a	-999	-999	[0, 0, 0]	n/a	FR1	5	R1065J
13.413	10.428	178170	COUNTDOWN_START	n/a	n/a	n/a	-999	-999	[0, 0, 0]	n/a	FR1	5	R1065J
23.841	3.691	188598	COUNTDOWN_END	n/a	n/a	n/a	-999	-999	[0, 0, 0]	n/a	FR1	5	R1065J
27.532	2.417	192289	PRACTICE_WORD	n/a	n/a	COTTON	1	-1	[0, 0, 0]	n/a	FR1	5	R1065J
29.949	2.467	194706	PRACTICE_WORD	n/a	n/a	WATCH	2	-1	[0, 0, 0]	n/a	FR1	5	R1065J
32.416	2.6	197173	PRACTICE_WORD	n/a	n/a	RHINO	3	-1	[0, 0, 0]	n/a	FR1	5	R1065J
35.016	2.484	199773	PRACTICE_WORD	n/a	n/a	FLOOD	4	-1	[0, 0, 0]	n/a	FR1	5	R1065J
37.5	2.401	202257	PRACTICE_WORD	n/a	n/a	IRON	5	-1	[0, 0, 0]	n/a	FR1	5	R1065J
39.901	2.483	204658	PRACTICE_WORD	n/a	n/a	CHEST	6	-1	[0, 0, 0]	n/a	FR1	5	R1065J
42.384	2.567	207141	PRACTICE_WORD	n/a	n/a	ATTIC	7	-1	[0, 0, 0]	n/a	FR1	5	R1065J
44.951	2.484	209708	PRACTICE_WORD	n/a	n/a	WAGON	8	-1	[0, 0, 0]	n/a	FR1	5	R1065J
47.435	2.467	212192	PRACTICE_WORD	n/a	n/a	RING	9	-1	[0, 0, 0]	n/a	FR1	5	R1065J
49.902	2.533	214659	PRACTICE_WORD	n/a	n/a	BEAM	10	-1	[0, 0, 0]	n/a	FR1	5	R1065J
52.435	2.551	217192	PRACTICE_WORD	n/a	n/a	CAMEL	11	-1	[0, 0, 0]	n/a	FR1	5	R1065J
54.986	1.617	219743	PRACTICE_WORD	n/a	n/a	TONGUE	12	-1	[0, 0, 0]	n/a	FR1	5	R1065J
56.603	0.0	221360	PRACTICE_DISTRACT_START	n/a	n/a	n/a	-999	-1	[0, 0, 0]	n/a	FR1	5	R1065J
56.603	0.016	221360	START	n/a	n/a	n/a	-999	-1	[-999, -999, -999]	n/a	FR1	5	R1065J
56.619	2.017	221376	PROB	2.017	n/a	n/a	-999	-1	[2, 1, 3]	6	FR1	5	R1065J
58.636	1.717	223393	PROB	1.717	n/a	n/a	-999	-1	[2, 2, 1]	5	FR1	5	R1065J
60.353	4.001	225110	PROB	4.001	n/a	n/a	-999	-1	[9, 7, 5]	21	FR1	5	R1065J
64.354	1.984	229111	PROB	1.984	n/a	n/a	-999	-1	[2, 1, 6]	9	FR1	5	R1065J
66.338	1.917	231095	PROB	1.917	n/a	n/a	-999	-1	[6, 5, 7]	20	FR1	5	R1065J
68.255	3.717	233012	PROB	3.717	n/a	n/a	-999	-1	[7, 4, 7]	18	FR1	5	R1065J
71.972	1.716	236729	PROB	1.716	n/a	n/a	-999	-1	[8, 2, 2]	12	FR1	5	R1065J
73.688	2.133	238446	PROB	2.133	n/a	n/a	-999	-1	[5, 2, 4]	11	FR1	5	R1065J
75.821	1.887	240579	PROB	1.887	n/a	n/a	-999	-1	[3, 7, 8]	18	FR1	5	R1065J
77.708	0.013	242466	STOP	n/a	n/a	n/a	-999	-1	[-999, -999, -999]	n/a	FR1	5	R1065J
77.721	0.687	242479	PRACTICE_DISTRACT_END	n/a	n/a	n/a	-999	-1	[0, 0, 0]	n/a	FR1	5	R1065J
78.408	30.515	243166	PRACTICE_REC_START	n/a	n/a	n/a	-999	-1	[0, 0, 0]	n/a	FR1	5	R1065J
108.923	4.388	273681	PRACTICE_REC_END	n/a	n/a	n/a	-999	-1	[0, 0, 0]	n/a	FR1	5	R1065J
113.311	0.0	278069	TRIAL	n/a	n/a	n/a	-999	1	[0, 0, 0]	n/a	FR1	5	R1065J
113.311	10.428	278069	COUNTDOWN_START	n/a	n/a	n/a	-999	1	[0, 0, 0]	n/a	FR1	5	R1065J
123.739	0.006	288497	COUNTDOWN_END	n/a	n/a	n/a	-999	1	[0, 0, 0]	n/a	FR1	5	R1065J
123.745	2.584	288503	ORIENT	n/a	n/a	n/a	-999	1	[0, 0, 0]	n/a	FR1	5	R1065J
126.329	2.4	291087	WORD	n/a	wordpools/wordpool_EN.txt	CORN	1	1	[0, 0, 0]	n/a	FR1	5	R1065J
128.729	2.534	293487	WORD	n/a	wordpools/wordpool_EN.txt	SMILE	2	1	[0, 0, 0]	n/a	FR1	5	R1065J
131.263	2.634	296021	WORD	n/a	wordpools/wordpool_EN.txt	SKY	3	1	[0, 0, 0]	n/a	FR1	5	R1065J
133.897	2.517	298655	WORD	n/a	wordpools/wordpool_EN.txt	VASE	4	1	[0, 0, 0]	n/a	FR1	5	R1065J
136.414	2.501	301172	WORD	n/a	wordpools/wordpool_EN.txt	BOWL	5	1	[0, 0, 0]	n/a	FR1	5	R1065J
138.915	2.616	303673	WORD	n/a	wordpools/wordpool_EN.txt	BAND	6	1	[0, 0, 0]	n/a	FR1	5	R1065J
141.531	2.384	306289	WORD	n/a	wordpools/wordpool_EN.txt	OAR	7	1	[0, 0, 0]	n/a	FR1	5	R1065J
143.915	2.601	308673	WORD	n/a	wordpools/wordpool_EN.txt	CHAIR	8	1	[0, 0, 0]	n/a	FR1	5	R1065J
146.516	2.55	311274	WORD	n/a	wordpools/wordpool_EN.txt	STEAK	9	1	[0, 0, 0]	n/a	FR1	5	R1065J
149.066	2.517	313824	WORD	n/a	wordpools/wordpool_EN.txt	BENCH	10	1	[0, 0, 0]	n/a	FR1	5	R1065J
151.583	2.55	316341	WORD	n/a	wordpools/wordpool_EN.txt	LAMP	11	1	[0, 0, 0]	n/a	FR1	5	R1065J
154.133	1.616	318891	WORD	n/a	wordpools/wordpool_EN.txt	HOOK	12	1	[0, 0, 0]	n/a	FR1	5	R1065J
155.749	0.001	320507	DISTRACT_START	n/a	n/a	n/a	-999	1	[0, 0, 0]	n/a	FR1	5	R1065J
155.75	0.016	320508	START	n/a	n/a	n/a	-999	1	[-999, -999, -999]	n/a	FR1	5	R1065J
155.766	1.883	320524	PROB	1.883	n/a	n/a	-999	1	[2, 1, 3]	6	FR1	5	R1065J
157.649	3.685	322407	PROB	3.685	n/a	n/a	-999	1	[6, 3, 7]	16	FR1	5	R1065J
161.334	2.817	326092	PROB	2.817	n/a	n/a	-999	1	[1, 6, 8]	15	FR1	5	R1065J
164.151	2.917	328909	PROB	2.917	n/a	n/a	-999	1	[8, 9, 2]	19	FR1	5	R1065J
167.068	1.867	331826	PROB	1.867	n/a	n/a	-999	1	[1, 4, 7]	12	FR1	5	R1065J
168.935	2.267	333693	PROB	2.267	n/a	n/a	-999	1	[7, 5, 6]	17	FR1	5	R1065J
171.202	3.001	335960	PROB	3.001	n/a	n/a	-999	1	[2, 5, 7]	16	FR1	5	R1065J
174.203	2.927	338961	PROB	2.927	n/a	n/a	-999	1	[7, 3, 1]	11	FR1	5	R1065J
177.13	0.007	341888	STOP	n/a	n/a	n/a	-999	1	[-999, -999, -999]	n/a	FR1	5	R1065J
177.137	1.217	341895	DISTRACT_END	n/a	n/a	n/a	-999	1	[0, 0, 0]	n/a	FR1	5	R1065J
178.354	1.529	343112	REC_START	n/a	n/a	n/a	-999	1	[0, 0, 0]	n/a	FR1	5	R1065J
179.883	1.663	344641	REC_WORD	1.663	n/a	BENCH	-999	1	[0, 0, 0]	n/a	FR1	5	R1065J
181.546	2.559	346304	REC_WORD	2.559	n/a	CHAIR	-999	1	[0, 0, 0]	n/a	FR1	5	R1065J
184.105	1.788	348863	REC_WORD	1.788	n/a	SKY	-999	1	[0, 0, 0]	n/a	FR1	5	R1065J
185.893	3.34	350651	REC_WORD	3.34	n/a	SMILE	-999	1	[0, 0, 0]	n/a	FR1	5	R1065J
189.233	8.377	353991	REC_WORD	8.377	n/a	VASE	-999	1	[0, 0, 0]	n/a	FR1	5	R1065J
197.61	2.37	362368	REC_WORD	2.37	n/a	CORN	-999	1	[0, 0, 0]	n/a	FR1	5	R1065J
199.98	8.384	364738	REC_WORD	8.384	n/a	STEAK	-999	1	[0, 0, 0]	n/a	FR1	5	R1065J
208.364	1.811	373122	REC_END	n/a	n/a	n/a	-999	1	[0, 0, 0]	n/a	FR1	5	R1065J
210.175	0.0	374933	TRIAL	n/a	n/a	n/a	-999	2	[0, 0, 0]	n/a	FR1	5	R1065J
210.175	10.428	374933	COUNTDOWN_START	n/a	n/a	n/a	-999	2	[0, 0, 0]	n/a	FR1	5	R1065J
220.603	0.006	385362	COUNTDOWN_END	n/a	n/a	n/a	-999	2	[0, 0, 0]	n/a	FR1	5	R1065J
220.609	2.601	385368	ORIENT	n/a	n/a	n/a	-999	2	[0, 0, 0]	n/a	FR1	5	R1065J
223.21	2.499	387969	WORD	n/a	wordpools/wordpool_EN.txt	STOOL	1	2	[0, 0, 0]	n/a	FR1	5	R1065J
225.709	2.535	390468	WORD	n/a	wordpools/wordpool_EN.txt	TEA	2	2	[0, 0, 0]	n/a	FR1	5	R1065J
228.244	2.499	393003	WORD	n/a	wordpools/wordpool_EN.txt	GEESE	3	2	[0, 0, 0]	n/a	FR1	5	R1065J
230.743	2.535	395502	WORD	n/a	wordpools/wordpool_EN.txt	SOCK	4	2	[0, 0, 0]	n/a	FR1	5	R1065J
233.278	2.482	398037	WORD	n/a	wordpools/wordpool_EN.txt	CLOWN	5	2	[0, 0, 0]	n/a	FR1	5	R1065J
235.76	2.585	400519	WORD	n/a	wordpools/wordpool_EN.txt	PIG	6	2	[0, 0, 0]	n/a	FR1	5	R1065J
238.345	2.399	403104	WORD	n/a	wordpools/wordpool_EN.txt	FLUTE	7	2	[0, 0, 0]	n/a	FR1	5	R1065J
240.744	2.602	405503	WORD	n/a	wordpools/wordpool_EN.txt	BARN	8	2	[0, 0, 0]	n/a	FR1	5	R1065J
243.346	2.567	408105	WORD	n/a	wordpools/wordpool_EN.txt	TRUCK	9	2	[0, 0, 0]	n/a	FR1	5	R1065J
245.913	2.617	410672	WORD	n/a	wordpools/wordpool_EN.txt	FAN	10	2	[0, 0, 0]	n/a	FR1	5	R1065J
248.53	2.433	413289	WORD	n/a	wordpools/wordpool_EN.txt	HAT	11	2	[0, 0, 0]	n/a	FR1	5	R1065J
250.963	1.617	415722	WORD	n/a	wordpools/wordpool_EN.txt	MUG	12	2	[0, 0, 0]	n/a	FR1	5	R1065J
252.58	0.001	417339	DISTRACT_START	n/a	n/a	n/a	-999	2	[0, 0, 0]	n/a	FR1	5	R1065J
252.581	0.016	417340	START	n/a	n/a	n/a	-999	2	[-999, -999, -999]	n/a	FR1	5	R1065J
252.597	2.35	417356	PROB	2.35	n/a	n/a	-999	2	[3, 4, 5]	12	FR1	5	R1065J
254.947	1.484	419706	PROB	1.484	n/a	n/a	-999	2	[1, 5, 1]	7	FR1	5	R1065J
256.431	1.817	421190	PROB	1.817	n/a	n/a	-999	2	[3, 2, 8]	13	FR1	5	R1065J
258.248	1.85	423007	PROB	1.85	n/a	n/a	-999	2	[1, 9, 9]	19	FR1	5	R1065J
260.098	1.734	424857	PROB	1.734	n/a	n/a	-999	2	[5, 5, 4]	14	FR1	5	R1065J
261.832	1.617	426591	PROB	1.617	n/a	n/a	-999	2	[6, 3, 2]	11	FR1	5	R1065J
263.449	1.983	428208	PROB	1.983	n/a	n/a	-999	2	[6, 8, 2]	16	FR1	5	R1065J
265.432	1.767	430191	PROB	1.767	n/a	n/a	-999	2	[5, 5, 6]	16	FR1	5	R1065J
267.199	2.151	431958	PROB	2.151	n/a	n/a	-999	2	[7, 5, 7]	17	FR1	5	R1065J
269.35	1.933	434109	PROB	1.933	n/a	n/a	-999	2	[6, 6, 2]	14	FR1	5	R1065J
271.283	2.404	436042	PROB	2.404	n/a	n/a	-999	2	[7, 9, 9]	25	FR1	5	R1065J
273.687	0.012	438446	STOP	n/a	n/a	n/a	-999	2	[-999, -999, -999]	n/a	FR1	5	R1065J
273.699	1.035	438458	DISTRACT_END	n/a	n/a	n/a	-999	2	[0, 0, 0]	n/a	FR1	5	R1065J
274.734	2.545	439493	REC_START	n/a	n/a	n/a	-999	2	[0, 0, 0]	n/a	FR1	5	R1065J
277.279	1.334	442038	REC_WORD	1.334	n/a	GEESE	-999	2	[0, 0, 0]	n/a	FR1	5	R1065J
278.613	2.673	443372	REC_WORD	2.673	n/a	PIG	-999	2	[0, 0, 0]	n/a	FR1	5	R1065J
281.286	4.775	446045	REC_WORD	4.775	n/a	BARN	-999	2	[0, 0, 0]	n/a	FR1	5	R1065J
286.061	18.683	450820	REC_WORD	18.683	n/a	TRUCK	-999	2	[0, 0, 0]	n/a	FR1	5	R1065J
304.744	1.611	469503	REC_END	n/a	n/a	n/a	-999	2	[0, 0, 0]	n/a	FR1	5	R1065J
306.355	0.0	471114	TRIAL	n/a	n/a	n/a	-999	3	[0, 0, 0]	n/a	FR1	5	R1065J
306.355	10.428	471114	COUNTDOWN_START	n/a	n/a	n/a	-999	3	[0, 0, 0]	n/a	FR1	5	R1065J
316.783	0.005	481542	COUNTDOWN_END	n/a	n/a	n/a	-999	3	[0, 0, 0]	n/a	FR1	5	R1065J
316.788	2.519	481547	ORIENT	n/a	n/a	n/a	-999	3	[0, 0, 0]	n/a	FR1	5	R1065J
319.307	2.499	484066	WORD	n/a	wordpools/wordpool_EN.txt	BUSH	1	3	[0, 0, 0]	n/a	FR1	5	R1065J
321.806	2.501	486565	WORD	n/a	wordpools/wordpool_EN.txt	HAND	2	3	[0, 0, 0]	n/a	FR1	5	R1065J
324.307	2.617	489066	WORD	n/a	wordpools/wordpool_EN.txt	CHALK	3	3	[0, 0, 0]	n/a	FR1	5	R1065J
326.924	2.401	491683	WORD	n/a	wordpools/wordpool_EN.txt	FENCE	4	3	[0, 0, 0]	n/a	FR1	5	R1065J
329.325	2.449	494084	WORD	n/a	wordpools/wordpool_EN.txt	DEER	5	3	[0, 0, 0]	n/a	FR1	5	R1065J
331.774	2.518	496533	WORD	n/a	wordpools/wordpool_EN.txt	SKI	6	3	[0, 0, 0]	n/a	FR1	5	R1065J
334.292	2.433	499051	WORD	n/a	wordpools/wordpool_EN.txt	MULE	7	3	[0, 0, 0]	n/a	FR1	5	R1065J
336.725	2.485	501484	WORD	n/a	wordpools/wordpool_EN.txt	STORM	8	3	[0, 0, 0]	n/a	FR1	5	R1065J
339.21	2.415	503969	WORD	n/a	wordpools/wordpool_EN.txt	HILL	9	3	[0, 0, 0]	n/a	FR1	5	R1065J
341.625	2.452	506384	WORD	n/a	wordpools/wordpool_EN.txt	BRUSH	10	3	[0, 0, 0]	n/a	FR1	5	R1065J
344.077	2.566	508836	WORD	n/a	wordpools/wordpool_EN.txt	WAND	11	3	[0, 0, 0]	n/a	FR1	5	R1065J
346.643	1.618	511402	WORD	n/a	wordpools/wordpool_EN.txt	FOOT	12	3	[0, 0, 0]	n/a	FR1	5	R1065J
348.261	0.001	513021	DISTRACT_START	n/a	n/a	n/a	-999	3	[0, 0, 0]	n/a	FR1	5	R1065J
348.262	0.015	513022	START	n/a	n/a	n/a	-999	3	[-999, -999, -999]	n/a	FR1	5	R1065J
348.277	2.483	513037	PROB	2.483	n/a	n/a	-999	3	[6, 6, 6]	18	FR1	5	R1065J
350.76	1.751	515520	PROB	1.751	n/a	n/a	-999	3	[1, 4, 1]	6	FR1	5	R1065J
352.511	1.9	517271	PROB	1.9	n/a	n/a	-999	3	[1, 7, 8]	16	FR1	5	R1065J
354.411	2.034	519171	PROB	2.034	n/a	n/a	-999	3	[3, 9, 6]	18	FR1	5	R1065J
356.445	1.7	521205	PROB	1.7	n/a	n/a	-999	3	[1, 2, 9]	12	FR1	5	R1065J
358.145	1.901	522905	PROB	1.901	n/a	n/a	-999	3	[3, 2, 6]	11	FR1	5	R1065J
360.046	1.782	524806	PROB	1.782	n/a	n/a	-999	3	[4, 7, 7]	18	FR1	5	R1065J
361.828	2.068	526588	PROB	2.068	n/a	n/a	-999	3	[2, 9, 6]	17	FR1	5	R1065J
363.896	1.717	528656	PROB	1.717	n/a	n/a	-999	3	[7, 5, 7]	17	FR1	5	R1065J
365.613	1.817	530373	PROB	1.817	n/a	n/a	-999	3	[1, 2, 6]	9	FR1	5	R1065J
367.43	2.007	532190	PROB	2.007	n/a	n/a	-999	3	[3, 9, 3]	15	FR1	5	R1065J
369.437	0.01	534197	STOP	n/a	n/a	n/a	-999	3	[-999, -999, -999]	n/a	FR1	5	R1065J
369.447	1.051	534207	DISTRACT_END	n/a	n/a	n/a	-999	3	[0, 0, 0]	n/a	FR1	5	R1065J
370.498	2.686	535258	REC_START	n/a	n/a	n/a	-999	3	[0, 0, 0]	n/a	FR1	5	R1065J
373.184	2.408	537944	REC_WORD	2.408	n/a	BUSH	-999	3	[0, 0, 0]	n/a	FR1	5	R1065J
375.592	3.019	540352	REC_WORD	3.019	n/a	FENCE	-999	3	[0, 0, 0]	n/a	FR1	5	R1065J
378.611	1.656	543371	REC_WORD	1.656	n/a	HAND	-999	3	[0, 0, 0]	n/a	FR1	5	R1065J
380.267	14.53	545027	REC_WORD	14.53	n/a	FOOT	-999	3	[0, 0, 0]	n/a	FR1	5	R1065J
394.797	5.71	559557	REC_WORD	5.71	n/a	HILL	-999	3	[0, 0, 0]	n/a	FR1	5	R1065J
400.507	1.628	565267	REC_END	n/a	n/a	n/a	-999	3	[0, 0, 0]	n/a	FR1	5	R1065J
402.135	0.0	566895	TRIAL	n/a	n/a	n/a	-999	4	[0, 0, 0]	n/a	FR1	5	R1065J
402.135	10.428	566895	COUNTDOWN_START	n/a	n/a	n/a	-999	4	[0, 0, 0]	n/a	FR1	5	R1065J
412.563	0.007	577323	COUNTDOWN_END	n/a	n/a	n/a	-999	4	[0, 0, 0]	n/a	FR1	5	R1065J
412.57	2.517	577330	ORIENT	n/a	n/a	n/a	-999	4	[0, 0, 0]	n/a	FR1	5	R1065J
415.087	2.533	579847	WORD	n/a	wordpools/wordpool_EN.txt	CAPE	1	4	[0, 0, 0]	n/a	FR1	5	R1065J
417.62	2.618	582380	WORD	n/a	wordpools/wordpool_EN.txt	FLOOR	2	4	[0, 0, 0]	n/a	FR1	5	R1065J
420.238	2.499	584998	WORD	n/a	wordpools/wordpool_EN.txt	ROCK	3	4	[0, 0, 0]	n/a	FR1	5	R1065J
422.737	2.601	587497	WORD	n/a	wordpools/wordpool_EN.txt	EEL	4	4	[0, 0, 0]	n/a	FR1	5	R1065J
425.338	2.416	590098	WORD	n/a	wordpools/wordpool_EN.txt	NEST	5	4	[0, 0, 0]	n/a	FR1	5	R1065J
427.754	2.402	592514	WORD	n/a	wordpools/wordpool_EN.txt	MOTH	6	4	[0, 0, 0]	n/a	FR1	5	R1065J
430.156	2.515	594916	WORD	n/a	wordpools/wordpool_EN.txt	WING	7	4	[0, 0, 0]	n/a	FR1	5	R1065J
432.671	2.569	597431	WORD	n/a	wordpools/wordpool_EN.txt	ROOM	8	4	[0, 0, 0]	n/a	FR1	5	R1065J
435.24	2.416	600000	WORD	n/a	wordpools/wordpool_EN.txt	BEACH	9	4	[0, 0, 0]	n/a	FR1	5	R1065J
437.656	2.384	602416	WORD	n/a	wordpools/wordpool_EN.txt	WHEEL	10	4	[0, 0, 0]	n/a	FR1	5	R1065J
440.04	2.501	604800	WORD	n/a	wordpools/wordpool_EN.txt	RAIN	11	4	[0, 0, 0]	n/a	FR1	5	R1065J
442.541	1.617	607301	WORD	n/a	wordpools/wordpool_EN.txt	GRASS	12	4	[0, 0, 0]	n/a	FR1	5	R1065J
444.158	0.0	608918	DISTRACT_START	n/a	n/a	n/a	-999	4	[0, 0, 0]	n/a	FR1	5	R1065J
444.158	0.016	608918	START	n/a	n/a	n/a	-999	4	[-999, -999, -999]	n/a	FR1	5	R1065J
444.174	4.868	608934	PROB	4.868	n/a	n/a	-999	4	[6, 8, 9]	22	FR1	5	R1065J
449.042	1.533	613802	PROB	1.533	n/a	n/a	-999	4	[3, 4, 1]	8	FR1	5	R1065J
450.575	2.367	615335	PROB	2.367	n/a	n/a	-999	4	[9, 3, 2]	15	FR1	5	R1065J
452.942	2.0	617702	PROB	2.0	n/a	n/a	-999	4	[5, 8, 9]	22	FR1	5	R1065J
454.942	1.984	619702	PROB	1.984	n/a	n/a	-999	4	[4, 5, 7]	16	FR1	5	R1065J
456.926	1.934	621686	PROB	1.934	n/a	n/a	-999	4	[3, 7, 7]	17	FR1	5	R1065J
458.86	1.832	623620	PROB	1.832	n/a	n/a	-999	4	[5, 1, 7]	13	FR1	5	R1065J
460.692	1.501	625452	PROB	1.501	n/a	n/a	-999	4	[2, 2, 1]	5	FR1	5	R1065J
462.193	2.066	626953	PROB	2.066	n/a	n/a	-999	4	[7, 2, 3]	12	FR1	5	R1065J
464.259	0.018	629019	STOP	n/a	n/a	n/a	-999	4	[-999, -999, -999]	n/a	FR1	5	R1065J
464.277	1.034	629037	DISTRACT_END	n/a	n/a	n/a	-999	4	[0, 0, 0]	n/a	FR1	5	R1065J
465.311	2.343	630071	REC_START	n/a	n/a	n/a	-999	4	[0, 0, 0]	n/a	FR1	5	R1065J
467.654	2.672	632414	REC_WORD	2.672	n/a	BEACH	-999	4	[0, 0, 0]	n/a	FR1	5	R1065J
470.326	2.348	635086	REC_WORD	2.348	n/a	GRASS	-999	4	[0, 0, 0]	n/a	FR1	5	R1065J
472.674	1.189	637434	REC_WORD	1.189	n/a	MOTH	-999	4	[0, 0, 0]	n/a	FR1	5	R1065J
473.863	9.176	638623	REC_WORD	9.176	n/a	WING	-999	4	[0, 0, 0]	n/a	FR1	5	R1065J
483.039	5.362	647799	REC_WORD	5.362	n/a	NEST	-999	4	[0, 0, 0]	n/a	FR1	5	R1065J
488.401	6.924	653162	REC_WORD	6.924	n/a	RAIN	-999	4	[0, 0, 0]	n/a	FR1	5	R1065J
495.325	1.607	660086	REC_END	n/a	n/a	n/a	-999	4	[0, 0, 0]	n/a	FR1	5	R1065J
496.932	0.0	661693	TRIAL	n/a	n/a	n/a	-999	5	[0, 0, 0]	n/a	FR1	5	R1065J
496.932	10.428	661693	COUNTDOWN_START	n/a	n/a	n/a	-999	5	[0, 0, 0]	n/a	FR1	5	R1065J
507.36	0.007	672121	COUNTDOWN_END	n/a	n/a	n/a	-999	5	[0, 0, 0]	n/a	FR1	5	R1065J
507.367	2.616	672128	ORIENT	n/a	n/a	n/a	-999	5	[0, 0, 0]	n/a	FR1	5	R1065J
509.983	2.384	674744	WORD	n/a	wordpools/wordpool_EN.txt	SLEEVE	1	5	[0, 0, 0]	n/a	FR1	5	R1065J
512.367	2.484	677128	WORD	n/a	wordpools/wordpool_EN.txt	TIE	2	5	[0, 0, 0]	n/a	FR1	5	R1065J
514.851	2.484	679612	WORD	n/a	wordpools/wordpool_EN.txt	HOSE	3	5	[0, 0, 0]	n/a	FR1	5	R1065J
517.335	2.617	682096	WORD	n/a	wordpools/wordpool_EN.txt	CANE	4	5	[0, 0, 0]	n/a	FR1	5	R1065J
519.952	2.467	684713	WORD	n/a	wordpools/wordpool_EN.txt	TRAY	5	5	[0, 0, 0]	n/a	FR1	5	R1065J
522.419	2.433	687180	WORD	n/a	wordpools/wordpool_EN.txt	FARM	6	5	[0, 0, 0]	n/a	FR1	5	R1065J
524.852	2.434	689613	WORD	n/a	wordpools/wordpool_EN.txt	WEED	7	5	[0, 0, 0]	n/a	FR1	5	R1065J
527.286	2.416	692047	WORD	n/a	wordpools/wordpool_EN.txt	CAKE	8	5	[0, 0, 0]	n/a	FR1	5	R1065J
529.702	2.534	694463	WORD	n/a	wordpools/wordpool_EN.txt	STICK	9	5	[0, 0, 0]	n/a	FR1	5	R1065J
532.236	2.567	696997	WORD	n/a	wordpools/wordpool_EN.txt	SEAL	10	5	[0, 0, 0]	n/a	FR1	5	R1065J
534.803	2.601	699564	WORD	n/a	wordpools/wordpool_EN.txt	LAMB	11	5	[0, 0, 0]	n/a	FR1	5	R1065J
537.404	1.617	702165	WORD	n/a	wordpools/wordpool_EN.txt	POOL	12	5	[0, 0, 0]	n/a	FR1	5	R1065J
539.021	0.001	703782	DISTRACT_START	n/a	n/a	n/a	-999	5	[0, 0, 0]	n/a	FR1	5	R1065J
539.022	0.016	703783	START	n/a	n/a	n/a	-999	5	[-999, -999, -999]	n/a	FR1	5	R1065J
539.038	1.917	703799	PROB	1.917	n/a	n/a	-999	5	[3, 4, 1]	8	FR1	5	R1065J
540.955	1.666	705716	PROB	1.666	n/a	n/a	-999	5	[9, 4, 1]	14	FR1	5	R1065J
542.621	1.634	707382	PROB	1.634	n/a	n/a	-999	5	[8, 1, 5]	14	FR1	5	R1065J
544.255	1.383	709016	PROB	1.383	n/a	n/a	-999	5	[5, 5, 2]	12	FR1	5	R1065J
545.638	2.734	710399	PROB	2.734	n/a	n/a	-999	5	[2, 1, 2]	5	FR1	5	R1065J
548.372	1.834	713133	PROB	1.834	n/a	n/a	-999	5	[4, 1, 7]	12	FR1	5	R1065J
550.206	2.183	714967	PROB	2.183	n/a	n/a	-999	5	[2, 6, 7]	15	FR1	5	R1065J
552.389	2.233	717150	PROB	2.233	n/a	n/a	-999	5	[9, 8, 1]	19	FR1	5	R1065J
554.622	2.485	719383	PROB	2.485	n/a	n/a	-999	5	[6, 4, 6]	16	FR1	5	R1065J
557.107	2.365	721868	PROB	2.365	n/a	n/a	-999	5	[9, 2, 2]	13	FR1	5	R1065J
559.472	0.019	724233	STOP	n/a	n/a	n/a	-999	5	[-999, -999, -999]	n/a	FR1	5	R1065J
559.491	1.183	724252	DISTRACT_END	n/a	n/a	n/a	-999	5	[0, 0, 0]	n/a	FR1	5	R1065J
560.674	2.93	725435	REC_START	n/a	n/a	n/a	-999	5	[0, 0, 0]	n/a	FR1	5	R1065J
563.604	7.36	728365	REC_WORD	7.36	n/a	STICK	-999	5	[0, 0, 0]	n/a	FR1	5	R1065J
570.964	19.72	735725	REC_WORD	19.72	n/a	TRAY	-999	5	[0, 0, 0]	n/a	FR1	5	R1065J
590.684	1.878	755445	REC_END	n/a	n/a	n/a	-999	5	[0, 0, 0]	n/a	FR1	5	R1065J
592.562	0.0	757323	TRIAL	n/a	n/a	n/a	-999	6	[0, 0, 0]	n/a	FR1	5	R1065J
592.562	10.428	757323	COUNTDOWN_START	n/a	n/a	n/a	-999	6	[0, 0, 0]	n/a	FR1	5	R1065J
602.99	0.007	767751	COUNTDOWN_END	n/a	n/a	n/a	-999	6	[0, 0, 0]	n/a	FR1	5	R1065J
602.997	2.517	767758	ORIENT	n/a	n/a	n/a	-999	6	[0, 0, 0]	n/a	FR1	5	R1065J
605.514	2.55	770275	WORD	n/a	wordpools/wordpool_EN.txt	MOLE	1	6	[0, 0, 0]	n/a	FR1	5	R1065J
608.064	2.5	772825	WORD	n/a	wordpools/wordpool_EN.txt	DUCK	2	6	[0, 0, 0]	n/a	FR1	5	R1065J
610.564	2.401	775325	WORD	n/a	wordpools/wordpool_EN.txt	TOOTH	3	6	[0, 0, 0]	n/a	FR1	5	R1065J
612.965	2.45	777726	WORD	n/a	wordpools/wordpool_EN.txt	SHIRT	4	6	[0, 0, 0]	n/a	FR1	5	R1065J
615.415	2.451	780176	WORD	n/a	wordpools/wordpool_EN.txt	BOAT	5	6	[0, 0, 0]	n/a	FR1	5	R1065J
617.866	2.583	782627	WORD	n/a	wordpools/wordpool_EN.txt	BOOT	6	6	[0, 0, 0]	n/a	FR1	5	R1065J
620.449	2.5	785210	WORD	n/a	wordpools/wordpool_EN.txt	SKUNK	7	6	[0, 0, 0]	n/a	FR1	5	R1065J
622.949	2.584	787710	WORD	n/a	wordpools/wordpool_EN.txt	TEETH	8	6	[0, 0, 0]	n/a	FR1	5	R1065J
625.533	2.617	790295	WORD	n/a	wordpools/wordpool_EN.txt	LOCK	9	6	[0, 0, 0]	n/a	FR1	5	R1065J
628.15	2.6	792912	WORD	n/a	wordpools/wordpool_EN.txt	SNAKE	10	6	[0, 0, 0]	n/a	FR1	5	R1065J
630.75	2.584	795512	WORD	n/a	wordpools/wordpool_EN.txt	ARK	11	6	[0, 0, 0]	n/a	FR1	5	R1065J
633.334	1.617	798096	WORD	n/a	wordpools/wordpool_EN.txt	CALF	12	6	[0, 0, 0]	n/a	FR1	5	R1065J
634.951	0.001	799713	DISTRACT_START	n/a	n/a	n/a	-999	6	[0, 0, 0]	n/a	FR1	5	R1065J
634.952	0.016	799714	START	n/a	n/a	n/a	-999	6	[-999, -999, -999]	n/a	FR1	5	R1065J
634.968	2.217	799730	PROB	2.217	n/a	n/a	-999	6	[1, 9, 3]	13	FR1	5	R1065J
637.185	2.017	801947	PROB	2.017	n/a	n/a	-999	6	[7, 9, 6]	22	FR1	5	R1065J
639.202	1.532	803964	PROB	1.532	n/a	n/a	-999	6	[8, 2, 1]	11	FR1	5	R1065J
640.734	2.685	805496	PROB	2.685	n/a	n/a	-999	6	[7, 9, 4]	20	FR1	5	R1065J
643.419	1.8	808181	PROB	1.8	n/a	n/a	-999	6	[9, 9, 7]	25	FR1	5	R1065J
645.219	1.667	809981	PROB	1.667	n/a	n/a	-999	6	[8, 4, 1]	13	FR1	5	R1065J
646.886	1.951	811648	PROB	1.951	n/a	n/a	-999	6	[7, 6, 4]	17	FR1	5	R1065J
648.837	1.849	813599	PROB	1.849	n/a	n/a	-999	6	[3, 7, 6]	16	FR1	5	R1065J
650.686	2.751	815448	PROB	2.751	n/a	n/a	-999	6	[3, 6, 5]	14	FR1	5	R1065J
653.437	1.656	818199	PROB	1.656	n/a	n/a	-999	6	[1, 6, 6]	13	FR1	5	R1065J
655.093	0.011	819855	STOP	n/a	n/a	n/a	-999	6	[-999, -999, -999]	n/a	FR1	5	R1065J
655.104	1.034	819866	DISTRACT_END	n/a	n/a	n/a	-999	6	[0, 0, 0]	n/a	FR1	5	R1065J
656.138	2.59	820900	REC_START	n/a	n/a	n/a	-999	6	[0, 0, 0]	n/a	FR1	5	R1065J
658.728	3.238	823490	REC_WORD	3.238	n/a	SHIRT	-999	6	[0, 0, 0]	n/a	FR1	5	R1065J
661.966	2.124	826728	REC_WORD	2.124	n/a	BOAT	-999	6	[0, 0, 0]	n/a	FR1	5	R1065J
664.09	4.506	828852	REC_WORD	4.506	n/a	ARK	-999	6	[0, 0, 0]	n/a	FR1	5	R1065J
668.596	7.62	833358	REC_WORD	7.62	n/a	SKUNK	-999	6	[0, 0, 0]	n/a	FR1	5	R1065J
676.216	3.336	840978	REC_WORD	3.336	n/a	DUCK	-999	6	[0, 0, 0]	n/a	FR1	5	R1065J
679.552	6.596	844314	REC_WORD	6.596	n/a	MOLE	-999	6	[0, 0, 0]	n/a	FR1	5	R1065J
686.148	1.844	850910	REC_END	n/a	n/a	n/a	-999	6	[0, 0, 0]	n/a	FR1	5	R1065J
687.992	0.0	852754	TRIAL	n/a	n/a	n/a	-999	7	[0, 0, 0]	n/a	FR1	5	R1065J
687.992	10.428	852754	COUNTDOWN_START	n/a	n/a	n/a	-999	7	[0, 0, 0]	n/a	FR1	5	R1065J
698.42	0.007	863182	COUNTDOWN_END	n/a	n/a	n/a	-999	7	[0, 0, 0]	n/a	FR1	5	R1065J
698.427	2.45	863189	ORIENT	n/a	n/a	n/a	-999	7	[0, 0, 0]	n/a	FR1	5	R1065J
700.877	2.6	865639	WORD	n/a	wordpools/wordpool_EN.txt	BEAR	1	7	[0, 0, 0]	n/a	FR1	5	R1065J
703.477	2.551	868239	WORD	n/a	wordpools/wordpool_EN.txt	ZOO	2	7	[0, 0, 0]	n/a	FR1	5	R1065J
706.028	2.517	870790	WORD	n/a	wordpools/wordpool_EN.txt	PIN	3	7	[0, 0, 0]	n/a	FR1	5	R1065J
708.545	2.484	873307	WORD	n/a	wordpools/wordpool_EN.txt	WORM	4	7	[0, 0, 0]	n/a	FR1	5	R1065J
711.029	2.583	875791	WORD	n/a	wordpools/wordpool_EN.txt	BED	5	7	[0, 0, 0]	n/a	FR1	5	R1065J
713.612	2.417	878374	WORD	n/a	wordpools/wordpool_EN.txt	BIRD	6	7	[0, 0, 0]	n/a	FR1	5	R1065J
716.029	2.384	880791	WORD	n/a	wordpools/wordpool_EN.txt	SLIME	7	7	[0, 0, 0]	n/a	FR1	5	R1065J
718.413	2.383	883175	WORD	n/a	wordpools/wordpool_EN.txt	BRANCH	8	7	[0, 0, 0]	n/a	FR1	5	R1065J
720.796	2.534	885558	WORD	n/a	wordpools/wordpool_EN.txt	BALL	9	7	[0, 0, 0]	n/a	FR1	5	R1065J
723.33	2.433	888092	WORD	n/a	wordpools/wordpool_EN.txt	BAT	10	7	[0, 0, 0]	n/a	FR1	5	R1065J
725.763	2.585	890525	WORD	n/a	wordpools/wordpool_EN.txt	WOLF	11	7	[0, 0, 0]	n/a	FR1	5	R1065J
728.348	1.617	893110	WORD	n/a	wordpools/wordpool_EN.txt	FUR	12	7	[0, 0, 0]	n/a	FR1	5	R1065J
729.965	0.001	894727	DISTRACT_START	n/a	n/a	n/a	-999	7	[0, 0, 0]	n/a	FR1	5	R1065J
729.966	0.015	894728	START	n/a	n/a	n/a	-999	7	[-999, -999, -999]	n/a	FR1	5	R1065J
729.981	3.234	894743	PROB	3.234	n/a	n/a	-999	7	[2, 9, 4]	15	FR1	5	R1065J
733.215	3.284	897977	PROB	3.284	n/a	n/a	-999	7	[3, 9, 6]	18	FR1	5	R1065J
736.499	1.717	901261	PROB	1.717	n/a	n/a	-999	7	[4, 9, 9]	22	FR1	5	R1065J
738.216	1.733	902978	PROB	1.733	n/a	n/a	-999	7	[5, 9, 4]	18	FR1	5	R1065J
739.949	2.434	904711	PROB	2.434	n/a	n/a	-999	7	[3, 2, 2]	7	FR1	5	R1065J
742.383	1.9	907145	PROB	1.9	n/a	n/a	-999	7	[6, 9, 2]	17	FR1	5	R1065J
744.283	2.817	909045	PROB	2.817	n/a	n/a	-999	7	[7, 6, 2]	15	FR1	5	R1065J
747.1	2.051	911862	PROB	2.051	n/a	n/a	-999	7	[9, 2, 8]	19	FR1	5	R1065J
749.151	1.523	913913	PROB	1.523	n/a	n/a	-999	7	[9, 1, 3]	13	FR1	5	R1065J
750.674	0.009	915436	STOP	n/a	n/a	n/a	-999	7	[-999, -999, -999]	n/a	FR1	5	R1065J
750.683	1.101	915445	DISTRACT_END	n/a	n/a	n/a	-999	7	[0, 0, 0]	n/a	FR1	5	R1065J
751.784	2.438	916546	REC_START	n/a	n/a	n/a	-999	7	[0, 0, 0]	n/a	FR1	5	R1065J
754.222	2.656	918984	REC_WORD	2.656	n/a	WORM	-999	7	[0, 0, 0]	n/a	FR1	5	R1065J
756.878	6.277	921640	REC_WORD	6.277	n/a	SLIME	-999	7	[0, 0, 0]	n/a	FR1	5	R1065J
763.155	1.007	927918	REC_WORD	1.007	n/a	BAT	-999	7	[0, 0, 0]	n/a	FR1	5	R1065J
764.162	1.897	928925	REC_WORD	1.897	n/a	BALL	-999	7	[0, 0, 0]	n/a	FR1	5	R1065J
766.059	15.735	930822	REC_WORD	15.735	n/a	BIRD	-999	7	[0, 0, 0]	n/a	FR1	5	R1065J
781.794	2.045	946557	REC_END	n/a	n/a	n/a	-999	7	[0, 0, 0]	n/a	FR1	5	R1065J
783.839	0.0	948602	TRIAL	n/a	n/a	n/a	-999	8	[0, 0, 0]	n/a	FR1	5	R1065J
783.839	10.428	948602	COUNTDOWN_START	n/a	n/a	n/a	-999	8	[0, 0, 0]	n/a	FR1	5	R1065J
794.267	0.007	959030	COUNTDOWN_END	n/a	n/a	n/a	-999	8	[0, 0, 0]	n/a	FR1	5	R1065J
794.274	2.499	959037	ORIENT	n/a	n/a	n/a	-999	8	[0, 0, 0]	n/a	FR1	5	R1065J
796.773	2.418	961536	WORD	n/a	wordpools/wordpool_EN.txt	DESK	1	8	[0, 0, 0]	n/a	FR1	5	R1065J
799.191	2.449	963954	WORD	n/a	wordpools/wordpool_EN.txt	PEARL	2	8	[0, 0, 0]	n/a	FR1	5	R1065J
801.64	2.452	966403	WORD	n/a	wordpools/wordpool_EN.txt	DOG	3	8	[0, 0, 0]	n/a	FR1	5	R1065J
804.092	2.45	968855	WORD	n/a	wordpools/wordpool_EN.txt	KEY	4	8	[0, 0, 0]	n/a	FR1	5	R1065J
806.542	2.401	971305	WORD	n/a	wordpools/wordpool_EN.txt	JUDGE	5	8	[0, 0, 0]	n/a	FR1	5	R1065J
808.943	2.616	973706	WORD	n/a	wordpools/wordpool_EN.txt	MAZE	6	8	[0, 0, 0]	n/a	FR1	5	R1065J
811.559	2.534	976322	WORD	n/a	wordpools/wordpool_EN.txt	SHARK	7	8	[0, 0, 0]	n/a	FR1	5	R1065J
814.093	2.401	978856	WORD	n/a	wordpools/wordpool_EN.txt	RUG	8	8	[0, 0, 0]	n/a	FR1	5	R1065J
816.494	2.483	981257	WORD	n/a	wordpools/wordpool_EN.txt	BADGE	9	8	[0, 0, 0]	n/a	FR1	5	R1065J
818.977	2.484	983740	WORD	n/a	wordpools/wordpool_EN.txt	COUCH	10	8	[0, 0, 0]	n/a	FR1	5	R1065J
821.461	2.6	986224	WORD	n/a	wordpools/wordpool_EN.txt	SUN	11	8	[0, 0, 0]	n/a	FR1	5	R1065J
824.061	1.616	988824	WORD	n/a	wordpools/wordpool_EN.txt	MAIL	12	8	[0, 0, 0]	n/a	FR1	5	R1065J
825.677	0.001	990440	DISTRACT_START	n/a	n/a	n/a	-999	8	[0, 0, 0]	n/a	FR1	5	R1065J
825.678	0.016	990441	START	n/a	n/a	n/a	-999	8	[-999, -999, -999]	n/a	FR1	5	R1065J
825.694	2.351	990457	PROB	2.351	n/a	n/a	-999	8	[3, 7, 3]	13	FR1	5	R1065J
828.045	1.551	992808	PROB	1.551	n/a	n/a	-999	8	[7, 1, 7]	15	FR1	5	R1065J
829.596	1.866	994359	PROB	1.866	n/a	n/a	-999	8	[6, 5, 9]	20	FR1	5	R1065J
831.462	1.851	996225	PROB	1.851	n/a	n/a	-999	8	[2, 4, 9]	15	FR1	5	R1065J
833.313	1.583	998076	PROB	1.583	n/a	n/a	-999	8	[8, 1, 1]	10	FR1	5	R1065J
834.896	1.866	999659	PROB	1.866	n/a	n/a	-999	8	[8, 9, 4]	21	FR1	5	R1065J
836.762	2.135	1001525	PROB	2.135	n/a	n/a	-999	8	[8, 9, 1]	19	FR1	5	R1065J
838.897	2.3	1003660	PROB	2.3	n/a	n/a	-999	8	[8, 3, 1]	14	FR1	5	R1065J
841.197	1.533	1005960	PROB	1.533	n/a	n/a	-999	8	[1, 1, 1]	3	FR1	5	R1065J
842.73	2.05	1007493	PROB	2.05	n/a	n/a	-999	8	[2, 9, 4]	15	FR1	5	R1065J
844.78	1.757	1009543	PROB	1.757	n/a	n/a	-999	8	[6, 6, 5]	17	FR1	5	R1065J
846.537	0.011	1011300	STOP	n/a	n/a	n/a	-999	8	[-999, -999, -999]	n/a	FR1	5	R1065J
846.548	1.068	1011311	DISTRACT_END	n/a	n/a	n/a	-999	8	[0, 0, 0]	n/a	FR1	5	R1065J
847.616	3.04	1012379	REC_START	n/a	n/a	n/a	-999	8	[0, 0, 0]	n/a	FR1	5	R1065J
850.656	3.328	1015419	REC_WORD	3.328	n/a	RUG	-999	8	[0, 0, 0]	n/a	FR1	5	R1065J
853.984	23.641	1018747	REC_WORD	23.641	n/a	MAIL	-999	8	[0, 0, 0]	n/a	FR1	5	R1065J
877.625	1.744	1042388	REC_END	n/a	n/a	n/a	-999	8	[0, 0, 0]	n/a	FR1	5	R1065J
879.369	0.0	1044132	TRIAL	n/a	n/a	n/a	-999	9	[0, 0, 0]	n/a	FR1	5	R1065J
879.369	10.428	1044132	COUNTDOWN_START	n/a	n/a	n/a	-999	9	[0, 0, 0]	n/a	FR1	5	R1065J
889.797	0.006	1054560	COUNTDOWN_END	n/a	n/a	n/a	-999	9	[0, 0, 0]	n/a	FR1	5	R1065J
889.803	2.518	1054566	ORIENT	n/a	n/a	n/a	-999	9	[0, 0, 0]	n/a	FR1	5	R1065J
892.321	2.584	1057084	WORD	n/a	wordpools/wordpool_EN.txt	STAR	1	9	[0, 0, 0]	n/a	FR1	5	R1065J
894.905	2.6	1059668	WORD	n/a	wordpools/wordpool_EN.txt	SCHOOL	2	9	[0, 0, 0]	n/a	FR1	5	R1065J
897.505	2.45	1062268	WORD	n/a	wordpools/wordpool_EN.txt	FLAG	3	9	[0, 0, 0]	n/a	FR1	5	R1065J
899.955	2.601	1064719	WORD	n/a	wordpools/wordpool_EN.txt	VEST	4	9	[0, 0, 0]	n/a	FR1	5	R1065J
902.556	2.433	1067320	WORD	n/a	wordpools/wordpool_EN.txt	BRIDGE	5	9	[0, 0, 0]	n/a	FR1	5	R1065J
904.989	2.401	1069753	WORD	n/a	wordpools/wordpool_EN.txt	CLIFF	6	9	[0, 0, 0]	n/a	FR1	5	R1065J
907.39	2.416	1072154	WORD	n/a	wordpools/wordpool_EN.txt	FACE	7	9	[0, 0, 0]	n/a	FR1	5	R1065J
909.806	2.551	1074570	WORD	n/a	wordpools/wordpool_EN.txt	FORT	8	9	[0, 0, 0]	n/a	FR1	5	R1065J
912.357	2.534	1077121	WORD	n/a	wordpools/wordpool_EN.txt	LAND	9	9	[0, 0, 0]	n/a	FR1	5	R1065J
914.891	2.484	1079655	WORD	n/a	wordpools/wordpool_EN.txt	CHIEF	10	9	[0, 0, 0]	n/a	FR1	5	R1065J
917.375	2.467	1082139	WORD	n/a	wordpools/wordpool_EN.txt	PEA	11	9	[0, 0, 0]	n/a	FR1	5	R1065J
919.842	1.616	1084606	WORD	n/a	wordpools/wordpool_EN.txt	ROAD	12	9	[0, 0, 0]	n/a	FR1	5	R1065J
921.458	0.001	1086222	DISTRACT_START	n/a	n/a	n/a	-999	9	[0, 0, 0]	n/a	FR1	5	R1065J
921.459	0.016	1086223	START	n/a	n/a	n/a	-999	9	[-999, -999, -999]	n/a	FR1	5	R1065J
921.475	2.417	1086239	PROB	2.417	n/a	n/a	-999	9	[6, 9, 6]	21	FR1	5	R1065J
923.892	1.766	1088656	PROB	1.766	n/a	n/a	-999	9	[8, 4, 8]	20	FR1	5	R1065J
925.658	1.868	1090422	PROB	1.868	n/a	n/a	-999	9	[5, 7, 2]	14	FR1	5	R1065J
927.526	1.884	1092290	PROB	1.884	n/a	n/a	-999	9	[1, 2, 8]	11	FR1	5	R1065J
929.41	2.8	1094174	PROB	2.8	n/a	n/a	-999	9	[8, 7, 9]	24	FR1	5	R1065J
932.21	3.616	1096974	PROB	3.616	n/a	n/a	-999	9	[5, 2, 6]	13	FR1	5	R1065J
935.826	2.101	1100590	PROB	2.101	n/a	n/a	-999	9	[4, 2, 9]	15	FR1	5	R1065J
937.927	1.783	1102691	PROB	1.783	n/a	n/a	-999	9	[9, 5, 8]	22	FR1	5	R1065J
939.71	1.601	1104474	PROB	1.601	n/a	n/a	-999	9	[3, 3, 5]	11	FR1	5	R1065J
941.311	1.87	1106075	PROB	1.87	n/a	n/a	-999	9	[1, 8, 8]	17	FR1	5	R1065J
943.181	0.014	1107945	STOP	n/a	n/a	n/a	-999	9	[-999, -999, -999]	n/a	FR1	5	R1065J
943.195	1.184	1107959	DISTRACT_END	n/a	n/a	n/a	-999	9	[0, 0, 0]	n/a	FR1	5	R1065J
944.379	1.761	1109143	REC_START	n/a	n/a	n/a	-999	9	[0, 0, 0]	n/a	FR1	5	R1065J
946.14	2.106	1110904	REC_WORD	2.106	n/a	SCHOOL	-999	9	[0, 0, 0]	n/a	FR1	5	R1065J
948.246	3.21	1113010	REC_WORD	3.21	n/a	STAR	-999	9	[0, 0, 0]	n/a	FR1	5	R1065J
951.456	1.724	1116220	REC_WORD	1.724	n/a	BRIDGE	-999	9	[0, 0, 0]	n/a	FR1	5	R1065J
953.18	4.181	1117944	REC_WORD	4.181	n/a	LAND	-999	9	[0, 0, 0]	n/a	FR1	5	R1065J
957.361	17.028	1122125	REC_WORD	17.028	n/a	FLAG	-999	9	[0, 0, 0]	n/a	FR1	5	R1065J
974.389	2.194	1139153	REC_END	n/a	n/a	n/a	-999	9	[0, 0, 0]	n/a	FR1	5	R1065J
976.583	0.0	1141347	TRIAL	n/a	n/a	n/a	-999	10	[0, 0, 0]	n/a	FR1	5	R1065J
976.583	10.428	1141347	COUNTDOWN_START	n/a	n/a	n/a	-999	10	[0, 0, 0]	n/a	FR1	5	R1065J
987.011	0.007	1151775	COUNTDOWN_END	n/a	n/a	n/a	-999	10	[0, 0, 0]	n/a	FR1	5	R1065J
987.018	2.616	1151782	ORIENT	n/a	n/a	n/a	-999	10	[0, 0, 0]	n/a	FR1	5	R1065J
989.634	2.534	1154398	WORD	n/a	wordpools/wordpool_EN.txt	FOOD	1	10	[0, 0, 0]	n/a	FR1	5	R1065J
992.168	2.401	1156932	WORD	n/a	wordpools/wordpool_EN.txt	BRICK	2	10	[0, 0, 0]	n/a	FR1	5	R1065J
994.569	2.567	1159333	WORD	n/a	wordpools/wordpool_EN.txt	PRINCE	3	10	[0, 0, 0]	n/a	FR1	5	R1065J
997.136	2.483	1161900	WORD	n/a	wordpools/wordpool_EN.txt	WALL	4	10	[0, 0, 0]	n/a	FR1	5	R1065J
999.619	2.434	1164383	WORD	n/a	wordpools/wordpool_EN.txt	SHIELD	5	10	[0, 0, 0]	n/a	FR1	5	R1065J
1002.053	2.517	1166817	WORD	n/a	wordpools/wordpool_EN.txt	PIE	6	10	[0, 0, 0]	n/a	FR1	5	R1065J
1004.57	2.384	1169334	WORD	n/a	wordpools/wordpool_EN.txt	FRUIT	7	10	[0, 0, 0]	n/a	FR1	5	R1065J
1006.954	2.417	1171718	WORD	n/a	wordpools/wordpool_EN.txt	CLAY	8	10	[0, 0, 0]	n/a	FR1	5	R1065J
1009.371	2.449	1174135	WORD	n/a	wordpools/wordpool_EN.txt	SHELL	9	10	[0, 0, 0]	n/a	FR1	5	R1065J
1011.82	2.485	1176584	WORD	n/a	wordpools/wordpool_EN.txt	SPEAR	10	10	[0, 0, 0]	n/a	FR1	5	R1065J
1014.305	2.55	1179069	WORD	n/a	wordpools/wordpool_EN.txt	CLOTH	11	10	[0, 0, 0]	n/a	FR1	5	R1065J
1016.855	1.617	1181619	WORD	n/a	wordpools/wordpool_EN.txt	FROG	12	10	[0, 0, 0]	n/a	FR1	5	R1065J
1018.472	0.001	1183236	DISTRACT_START	n/a	n/a	n/a	-999	10	[0, 0, 0]	n/a	FR1	5	R1065J
1018.473	0.016	1183237	START	n/a	n/a	n/a	-999	10	[-999, -999, -999]	n/a	FR1	5	R1065J
1018.489	2.117	1183253	PROB	2.117	n/a	n/a	-999	10	[4, 2, 3]	9	FR1	5	R1065J
1020.606	1.783	1185370	PROB	1.783	n/a	n/a	-999	10	[8, 1, 6]	15	FR1	5	R1065J
1022.389	1.484	1187153	PROB	1.484	n/a	n/a	-999	10	[4, 2, 1]	7	FR1	5	R1065J
1023.873	1.683	1188637	PROB	1.683	n/a	n/a	-999	10	[2, 4, 9]	15	FR1	5	R1065J
1025.556	2.233	1190320	PROB	2.233	n/a	n/a	-999	10	[4, 8, 4]	16	FR1	5	R1065J
1027.789	1.85	1192553	PROB	1.85	n/a	n/a	-999	10	[4, 1, 8]	13	FR1	5	R1065J
1029.639	1.835	1194403	PROB	1.835	n/a	n/a	-999	10	[8, 7, 1]	16	FR1	5	R1065J
1031.474	1.767	1196238	PROB	1.767	n/a	n/a	-999	10	[9, 1, 9]	19	FR1	5	R1065J
1033.241	1.8	1198005	PROB	1.8	n/a	n/a	-999	10	[7, 8, 5]	20	FR1	5	R1065J
1035.041	2.467	1199805	PROB	2.467	n/a	n/a	-999	10	[3, 5, 5]	13	FR1	5	R1065J
1037.508	1.927	1202273	PROB	1.927	n/a	n/a	-999	10	[9, 6, 1]	16	FR1	5	R1065J
1039.435	0.007	1204200	STOP	n/a	n/a	n/a	-999	10	[-999, -999, -999]	n/a	FR1	5	R1065J
1039.442	1.083	1204207	DISTRACT_END	n/a	n/a	n/a	-999	10	[0, 0, 0]	n/a	FR1	5	R1065J
1040.525	2.569	1205290	REC_START	n/a	n/a	n/a	-999	10	[0, 0, 0]	n/a	FR1	5	R1065J
1043.094	2.215	1207859	REC_WORD	2.215	n/a	PIE	-999	10	[0, 0, 0]	n/a	FR1	5	R1065J
1045.309	3.103	1210074	REC_WORD	3.103	n/a	SHELL	-999	10	[0, 0, 0]	n/a	FR1	5	R1065J
1048.412	1.61	1213177	REC_WORD	1.61	n/a	FRUIT	-999	10	[0, 0, 0]	n/a	FR1	5	R1065J
1050.022	4.042	1214787	REC_WORD	4.042	n/a	FOOD	-999	10	[0, 0, 0]	n/a	FR1	5	R1065J
1054.064	3.28	1218829	REC_WORD	3.28	n/a	BRICK	-999	10	[0, 0, 0]	n/a	FR1	5	R1065J
1057.344	2.41	1222109	REC_WORD	2.41	n/a	WALL	-999	10	[0, 0, 0]	n/a	FR1	5	R1065J
1059.754	10.785	1224519	REC_WORD	10.785	n/a	CLAY	-999	10	[0, 0, 0]	n/a	FR1	5	R1065J
1070.539	1.891	1235304	REC_END	n/a	n/a	n/a	-999	10	[0, 0, 0]	n/a	FR1	5	R1065J
1072.43	0.0	1237195	COUNTDOWN_START	n/a	n/a	n/a	-999	11	[0, 0, 0]	n/a	FR1	5	R1065J
1072.43	10.428	1237195	TRIAL	n/a	n/a	n/a	-999	11	[0, 0, 0]	n/a	FR1	5	R1065J
1082.858	0.007	1247623	COUNTDOWN_END	n/a	n/a	n/a	-999	11	[0, 0, 0]	n/a	FR1	5	R1065J
1082.865	2.45	1247630	ORIENT	n/a	n/a	n/a	-999	11	[0, 0, 0]	n/a	FR1	5	R1065J
1085.315	2.416	1250080	WORD	n/a	wordpools/wordpool_EN.txt	BEE	1	11	[0, 0, 0]	n/a	FR1	5	R1065J
1087.731	2.435	1252496	WORD	n/a	wordpools/wordpool_EN.txt	STORE	2	11	[0, 0, 0]	n/a	FR1	5	R1065J
1090.166	2.516	1254931	WORD	n/a	wordpools/wordpool_EN.txt	TRASH	3	11	[0, 0, 0]	n/a	FR1	5	R1065J
1092.682	2.617	1257447	WORD	n/a	wordpools/wordpool_EN.txt	APE	4	11	[0, 0, 0]	n/a	FR1	5	R1065J
1095.299	2.551	1260064	WORD	n/a	wordpools/wordpool_EN.txt	SMOKE	5	11	[0, 0, 0]	n/a	FR1	5	R1065J
1097.85	2.584	1262615	WORD	n/a	wordpools/wordpool_EN.txt	MOUSE	6	11	[0, 0, 0]	n/a	FR1	5	R1065J
1100.434	2.433	1265199	WORD	n/a	wordpools/wordpool_EN.txt	BANK	7	11	[0, 0, 0]	n/a	FR1	5	R1065J
1102.867	2.501	1267632	WORD	n/a	wordpools/wordpool_EN.txt	NET	8	11	[0, 0, 0]	n/a	FR1	5	R1065J
1105.368	2.5	1270133	WORD	n/a	wordpools/wordpool_EN.txt	MILK	9	11	[0, 0, 0]	n/a	FR1	5	R1065J
1107.868	2.451	1272633	WORD	n/a	wordpools/wordpool_EN.txt	CAT	10	11	[0, 0, 0]	n/a	FR1	5	R1065J
1110.319	2.567	1275084	WORD	n/a	wordpools/wordpool_EN.txt	CASH	11	11	[0, 0, 0]	n/a	FR1	5	R1065J
1112.886	1.616	1277651	WORD	n/a	wordpools/wordpool_EN.txt	HEART	12	11	[0, 0, 0]	n/a	FR1	5	R1065J
1114.502	0.001	1279267	DISTRACT_START	n/a	n/a	n/a	-999	11	[0, 0, 0]	n/a	FR1	5	R1065J
1114.503	0.016	1279268	START	n/a	n/a	n/a	-999	11	[-999, -999, -999]	n/a	FR1	5	R1065J
1114.519	2.667	1279284	PROB	2.667	n/a	n/a	-999	11	[1, 8, 9]	18	FR1	5	R1065J
1117.186	1.734	1281951	PROB	1.734	n/a	n/a	-999	11	[7, 4, 1]	12	FR1	5	R1065J
1118.92	1.633	1283685	PROB	1.633	n/a	n/a	-999	11	[1, 2, 4]	7	FR1	5	R1065J
1120.553	1.867	1285318	PROB	1.867	n/a	n/a	-999	11	[5, 4, 6]	15	FR1	5	R1065J
1122.42	2.3	1287185	PROB	2.3	n/a	n/a	-999	11	[8, 9, 1]	19	FR1	5	R1065J
1124.72	2.967	1289485	PROB	2.967	n/a	n/a	-999	11	[4, 7, 1]	12	FR1	5	R1065J
1127.687	2.384	1292452	PROB	2.384	n/a	n/a	-999	11	[4, 7, 9]	20	FR1	5	R1065J
1130.071	1.884	1294836	PROB	1.884	n/a	n/a	-999	11	[7, 6, 5]	20	FR1	5	R1065J
1131.955	2.0	1296720	PROB	2.0	n/a	n/a	-999	11	[6, 9, 7]	22	FR1	5	R1065J
1133.955	1.853	1298720	PROB	1.853	n/a	n/a	-999	11	[1, 6, 3]	10	FR1	5	R1065J
1135.808	0.013	1300573	STOP	n/a	n/a	n/a	-999	11	[-999, -999, -999]	n/a	FR1	5	R1065J
1135.821	1.102	1300586	DISTRACT_END	n/a	n/a	n/a	-999	11	[0, 0, 0]	n/a	FR1	5	R1065J
1136.923	1.56	1301688	REC_START	n/a	n/a	n/a	-999	11	[0, 0, 0]	n/a	FR1	5	R1065J
1138.483	1.728	1303248	REC_WORD	1.728	n/a	SMOKE	-999	11	[0, 0, 0]	n/a	FR1	5	R1065J
1140.211	2.112	1304976	REC_WORD	2.112	n/a	BEE	-999	11	[0, 0, 0]	n/a	FR1	5	R1065J
1142.323	2.269	1307088	REC_WORD	2.269	n/a	MILK	-999	11	[0, 0, 0]	n/a	FR1	5	R1065J
1144.592	22.341	1309357	REC_WORD	22.341	n/a	CAT	-999	11	[0, 0, 0]	n/a	FR1	5	R1065J
1166.933	1.826	1331698	REC_END	n/a	n/a	n/a	-999	11	[0, 0, 0]	n/a	FR1	5	R1065J
1168.759	0.0	1333524	TRIAL	n/a	n/a	n/a	-999	12	[0, 0, 0]	n/a	FR1	5	R1065J
1168.759	10.428	1333524	COUNTDOWN_START	n/a	n/a	n/a	-999	12	[0, 0, 0]	n/a	FR1	5	R1065J
1179.187	0.008	1343953	COUNTDOWN_END	n/a	n/a	n/a	-999	12	[0, 0, 0]	n/a	FR1	5	R1065J
1179.195	2.432	1343961	ORIENT	n/a	n/a	n/a	-999	12	[0, 0, 0]	n/a	FR1	5	R1065J
1181.627	2.369	1346393	WORD	n/a	wordpools/wordpool_EN.txt	TOAD	1	12	[0, 0, 0]	n/a	FR1	5	R1065J
1183.996	2.433	1348762	WORD	n/a	wordpools/wordpool_EN.txt	MUD	2	12	[0, 0, 0]	n/a	FR1	5	R1065J
1186.429	2.451	1351195	WORD	n/a	wordpools/wordpool_EN.txt	PLANT	3	12	[0, 0, 0]	n/a	FR1	5	R1065J
1188.88	2.466	1353646	WORD	n/a	wordpools/wordpool_EN.txt	FUDGE	4	12	[0, 0, 0]	n/a	FR1	5	R1065J
1191.346	2.383	1356112	WORD	n/a	wordpools/wordpool_EN.txt	TANK	5	12	[0, 0, 0]	n/a	FR1	5	R1065J
1193.729	2.452	1358495	WORD	n/a	wordpools/wordpool_EN.txt	BOARD	6	12	[0, 0, 0]	n/a	FR1	5	R1065J
1196.181	2.449	1360947	WORD	n/a	wordpools/wordpool_EN.txt	SAIL	7	12	[0, 0, 0]	n/a	FR1	5	R1065J
1198.63	2.435	1363396	WORD	n/a	wordpools/wordpool_EN.txt	SPONGE	8	12	[0, 0, 0]	n/a	FR1	5	R1065J
1201.065	2.533	1365831	WORD	n/a	wordpools/wordpool_EN.txt	JET	9	12	[0, 0, 0]	n/a	FR1	5	R1065J
1203.598	2.401	1368364	WORD	n/a	wordpools/wordpool_EN.txt	SPARK	10	12	[0, 0, 0]	n/a	FR1	5	R1065J
1205.999	2.617	1370765	WORD	n/a	wordpools/wordpool_EN.txt	SEA	11	12	[0, 0, 0]	n/a	FR1	5	R1065J
1208.616	1.617	1373382	WORD	n/a	wordpools/wordpool_EN.txt	STEAM	12	12	[0, 0, 0]	n/a	FR1	5	R1065J
1210.233	0.001	1374999	DISTRACT_START	n/a	n/a	n/a	-999	12	[0, 0, 0]	n/a	FR1	5	R1065J
1210.234	0.015	1375000	START	n/a	n/a	n/a	-999	12	[-999, -999, -999]	n/a	FR1	5	R1065J
1210.249	2.617	1375015	PROB	2.617	n/a	n/a	-999	12	[2, 6, 3]	11	FR1	5	R1065J
1212.866	2.184	1377632	PROB	2.184	n/a	n/a	-999	12	[6, 3, 9]	18	FR1	5	R1065J
1215.05	1.917	1379816	PROB	1.917	n/a	n/a	-999	12	[5, 7, 4]	16	FR1	5	R1065J
1216.967	1.65	1381733	PROB	1.65	n/a	n/a	-999	12	[7, 6, 8]	22	FR1	5	R1065J
1218.617	2.116	1383383	PROB	2.116	n/a	n/a	-999	12	[6, 5, 5]	16	FR1	5	R1065J
1220.733	2.151	1385499	PROB	2.151	n/a	n/a	-999	12	[7, 4, 7]	18	FR1	5	R1065J
1222.884	1.951	1387650	PROB	1.951	n/a	n/a	-999	12	[5, 5, 8]	18	FR1	5	R1065J
1224.835	4.0	1389601	PROB	4.0	n/a	n/a	-999	12	[8, 7, 8]	24	FR1	5	R1065J
1228.835	1.882	1393601	PROB	1.882	n/a	n/a	-999	12	[4, 7, 6]	17	FR1	5	R1065J
1230.717	0.017	1395483	STOP	n/a	n/a	n/a	-999	12	[-999, -999, -999]	n/a	FR1	5	R1065J
1230.734	1.186	1395500	DISTRACT_END	n/a	n/a	n/a	-999	12	[0, 0, 0]	n/a	FR1	5	R1065J
1231.92	2.359	1396686	REC_START	n/a	n/a	n/a	-999	12	[0, 0, 0]	n/a	FR1	5	R1065J
1234.279	2.453	1399045	REC_WORD	2.453	n/a	SPARK	-999	12	[0, 0, 0]	n/a	FR1	5	R1065J
1236.732	1.448	1401498	REC_WORD	1.448	n/a	BOARD	-999	12	[0, 0, 0]	n/a	FR1	5	R1065J
1238.18	4.259	1402946	REC_WORD	4.259	n/a	SAIL	-999	12	[0, 0, 0]	n/a	FR1	5	R1065J
1242.439	8.637	1407205	REC_WORD	8.637	n/a	PLANT	-999	12	[0, 0, 0]	n/a	FR1	5	R1065J
1251.076	10.856	1415842	REC_WORD	10.856	n/a	JET	-999	12	[0, 0, 0]	n/a	FR1	5	R1065J
1261.932	1.807	1426698	REC_END	n/a	n/a	n/a	-999	12	[0, 0, 0]	n/a	FR1	5	R1065J
1263.739	0.0	1428505	COUNTDOWN_START	n/a	n/a	n/a	-999	13	[0, 0, 0]	n/a	FR1	5	R1065J
1263.739	10.428	1428505	TRIAL	n/a	n/a	n/a	-999	13	[0, 0, 0]	n/a	FR1	5	R1065J
1274.167	0.008	1438933	COUNTDOWN_END	n/a	n/a	n/a	-999	13	[0, 0, 0]	n/a	FR1	5	R1065J
1274.175	2.449	1438941	ORIENT	n/a	n/a	n/a	-999	13	[0, 0, 0]	n/a	FR1	5	R1065J
1276.624	2.585	1441390	WORD	n/a	wordpools/wordpool_EN.txt	CORD	1	13	[0, 0, 0]	n/a	FR1	5	R1065J
1279.209	2.499	1443975	WORD	n/a	wordpools/wordpool_EN.txt	WAVE	2	13	[0, 0, 0]	n/a	FR1	5	R1065J
1281.708	2.468	1446474	WORD	n/a	wordpools/wordpool_EN.txt	JUICE	3	13	[0, 0, 0]	n/a	FR1	5	R1065J
1284.176	2.616	1448942	WORD	n/a	wordpools/wordpool_EN.txt	SHEEP	4	13	[0, 0, 0]	n/a	FR1	5	R1065J
1286.792	2.369	1451558	WORD	n/a	wordpools/wordpool_EN.txt	MAP	5	13	[0, 0, 0]	n/a	FR1	5	R1065J
1289.161	2.482	1453927	WORD	n/a	wordpools/wordpool_EN.txt	PLANE	6	13	[0, 0, 0]	n/a	FR1	5	R1065J
1291.643	2.418	1456409	WORD	n/a	wordpools/wordpool_EN.txt	CONE	7	13	[0, 0, 0]	n/a	FR1	5	R1065J
1294.061	2.534	1458827	WORD	n/a	wordpools/wordpool_EN.txt	SHIP	8	13	[0, 0, 0]	n/a	FR1	5	R1065J
1296.595	2.4	1461361	WORD	n/a	wordpools/wordpool_EN.txt	BOMB	9	13	[0, 0, 0]	n/a	FR1	5	R1065J
1298.995	2.467	1463761	WORD	n/a	wordpools/wordpool_EN.txt	POLE	10	13	[0, 0, 0]	n/a	FR1	5	R1065J
1301.462	2.517	1466228	WORD	n/a	wordpools/wordpool_EN.txt	ELF	11	13	[0, 0, 0]	n/a	FR1	5	R1065J
1303.979	1.617	1468745	WORD	n/a	wordpools/wordpool_EN.txt	MOON	12	13	[0, 0, 0]	n/a	FR1	5	R1065J
1305.596	0.001	1470362	DISTRACT_START	n/a	n/a	n/a	-999	13	[0, 0, 0]	n/a	FR1	5	R1065J
1305.597	0.016	1470363	START	n/a	n/a	n/a	-999	13	[-999, -999, -999]	n/a	FR1	5	R1065J
1305.613	2.45	1470379	PROB	2.45	n/a	n/a	-999	13	[6, 3, 7]	16	FR1	5	R1065J
1308.063	1.649	1472829	PROB	1.649	n/a	n/a	-999	13	[6, 1, 4]	11	FR1	5	R1065J
1309.712	2.118	1474478	PROB	2.118	n/a	n/a	-999	13	[2, 3, 2]	7	FR1	5	R1065J
1311.83	2.151	1476596	PROB	2.151	n/a	n/a	-999	13	[4, 9, 7]	20	FR1	5	R1065J
1313.981	2.25	1478748	PROB	2.25	n/a	n/a	-999	13	[6, 7, 1]	14	FR1	5	R1065J
1316.231	1.917	1480998	PROB	1.917	n/a	n/a	-999	13	[6, 7, 5]	18	FR1	5	R1065J
1318.148	1.483	1482915	PROB	1.483	n/a	n/a	-999	13	[7, 3, 1]	11	FR1	5	R1065J
1319.631	1.717	1484398	PROB	1.717	n/a	n/a	-999	13	[7, 1, 7]	15	FR1	5	R1065J
1321.348	2.117	1486115	PROB	2.117	n/a	n/a	-999	13	[7, 7, 4]	18	FR1	5	R1065J
1323.465	1.817	1488232	PROB	1.817	n/a	n/a	-999	13	[8, 1, 6]	15	FR1	5	R1065J
1325.282	2.257	1490049	PROB	2.257	n/a	n/a	-999	13	[3, 9, 5]	17	FR1	5	R1065J
1327.539	0.01	1492306	STOP	n/a	n/a	n/a	-999	13	[-999, -999, -999]	n/a	FR1	5	R1065J
1327.549	1.034	1492316	DISTRACT_END	n/a	n/a	n/a	-999	13	[0, 0, 0]	n/a	FR1	5	R1065J
1328.583	1.93	1493350	REC_START	n/a	n/a	n/a	-999	13	[0, 0, 0]	n/a	FR1	5	R1065J
1330.513	1.736	1495280	REC_WORD	1.736	n/a	CORD	-999	13	[0, 0, 0]	n/a	FR1	5	R1065J
1332.249	2.35	1497016	REC_WORD	2.35	n/a	BOMB	-999	13	[0, 0, 0]	n/a	FR1	5	R1065J
1334.599	23.997	1499366	REC_WORD	23.997	n/a	PLANE	-999	13	[0, 0, 0]	n/a	FR1	5	R1065J
1358.596	1.725	1523363	REC_END	n/a	n/a	n/a	-999	13	[0, 0, 0]	n/a	FR1	5	R1065J
1360.321	0.0	1525088	TRIAL	n/a	n/a	n/a	-999	14	[0, 0, 0]	n/a	FR1	5	R1065J
1360.321	10.428	1525088	COUNTDOWN_START	n/a	n/a	n/a	-999	14	[0, 0, 0]	n/a	FR1	5	R1065J
1370.749	0.005	1535516	COUNTDOWN_END	n/a	n/a	n/a	-999	14	[0, 0, 0]	n/a	FR1	5	R1065J
1370.754	2.551	1535521	ORIENT	n/a	n/a	n/a	-999	14	[0, 0, 0]	n/a	FR1	5	R1065J
1373.305	2.551	1538072	WORD	n/a	wordpools/wordpool_EN.txt	SUIT	1	14	[0, 0, 0]	n/a	FR1	5	R1065J
1375.856	2.584	1540623	WORD	n/a	wordpools/wordpool_EN.txt	EAR	2	14	[0, 0, 0]	n/a	FR1	5	R1065J
1378.44	2.583	1543207	WORD	n/a	wordpools/wordpool_EN.txt	SWORD	3	14	[0, 0, 0]	n/a	FR1	5	R1065J
1381.023	2.568	1545790	WORD	n/a	wordpools/wordpool_EN.txt	CLOCK	4	14	[0, 0, 0]	n/a	FR1	5	R1065J
1383.591	2.483	1548358	WORD	n/a	wordpools/wordpool_EN.txt	PHONE	5	14	[0, 0, 0]	n/a	FR1	5	R1065J
1386.074	2.434	1550841	WORD	n/a	wordpools/wordpool_EN.txt	GATE	6	14	[0, 0, 0]	n/a	FR1	5	R1065J
1388.508	2.383	1553275	WORD	n/a	wordpools/wordpool_EN.txt	BOOK	7	14	[0, 0, 0]	n/a	FR1	5	R1065J
1390.891	2.584	1555658	WORD	n/a	wordpools/wordpool_EN.txt	MOUTH	8	14	[0, 0, 0]	n/a	FR1	5	R1065J
1393.475	2.601	1558242	WORD	n/a	wordpools/wordpool_EN.txt	BOY	9	14	[0, 0, 0]	n/a	FR1	5	R1065J
1396.076	2.632	1560843	WORD	n/a	wordpools/wordpool_EN.txt	HOUSE	10	14	[0, 0, 0]	n/a	FR1	5	R1065J
1398.708	2.518	1563475	WORD	n/a	wordpools/wordpool_EN.txt	BLUSH	11	14	[0, 0, 0]	n/a	FR1	5	R1065J
1401.226	1.617	1565993	WORD	n/a	wordpools/wordpool_EN.txt	VAN	12	14	[0, 0, 0]	n/a	FR1	5	R1065J
1402.843	0.001	1567610	DISTRACT_START	n/a	n/a	n/a	-999	14	[0, 0, 0]	n/a	FR1	5	R1065J
1402.844	0.016	1567611	START	n/a	n/a	n/a	-999	14	[-999, -999, -999]	n/a	FR1	5	R1065J
1402.86	2.45	1567627	PROB	2.45	n/a	n/a	-999	14	[9, 4, 7]	20	FR1	5	R1065J
1405.31	1.851	1570077	PROB	1.851	n/a	n/a	-999	14	[6, 6, 3]	15	FR1	5	R1065J
1407.161	1.783	1571928	PROB	1.783	n/a	n/a	-999	14	[4, 9, 4]	17	FR1	5	R1065J
1408.944	1.65	1573711	PROB	1.65	n/a	n/a	-999	14	[9, 8, 5]	22	FR1	5	R1065J
1410.594	2.434	1575361	PROB	2.434	n/a	n/a	-999	14	[7, 1, 2]	10	FR1	5	R1065J
1413.028	2.599	1577795	PROB	2.599	n/a	n/a	-999	14	[2, 7, 1]	10	FR1	5	R1065J
1415.627	2.368	1580394	PROB	2.368	n/a	n/a	-999	14	[6, 3, 7]	16	FR1	5	R1065J
1417.995	1.65	1582762	PROB	1.65	n/a	n/a	-999	14	[6, 6, 2]	14	FR1	5	R1065J
1419.645	1.667	1584412	PROB	1.667	n/a	n/a	-999	14	[1, 7, 4]	12	FR1	5	R1065J
1421.312	2.553	1586079	PROB	2.553	n/a	n/a	-999	14	[7, 6, 8]	22	FR1	5	R1065J
1423.865	0.015	1588632	STOP	n/a	n/a	n/a	-999	14	[-999, -999, -999]	n/a	FR1	5	R1065J
1423.88	1.117	1588647	DISTRACT_END	n/a	n/a	n/a	-999	14	[0, 0, 0]	n/a	FR1	5	R1065J
1424.997	1.83	1589764	REC_START	n/a	n/a	n/a	-999	14	[0, 0, 0]	n/a	FR1	5	R1065J
1426.827	1.529	1591594	REC_WORD	1.529	n/a	BOY	-999	14	[0, 0, 0]	n/a	FR1	5	R1065J
1428.356	3.417	1593123	REC_WORD	3.417	n/a	BLUSH	-999	14	[0, 0, 0]	n/a	FR1	5	R1065J
1431.773	2.481	1596540	REC_WORD	2.481	n/a	BOOK	-999	14	[0, 0, 0]	n/a	FR1	5	R1065J
1434.254	1.512	1599021	REC_WORD	1.512	n/a	PHONE	-999	14	[0, 0, 0]	n/a	FR1	5	R1065J
1435.766	5.277	1600533	REC_WORD	5.277	n/a	CLOCK	-999	14	[0, 0, 0]	n/a	FR1	5	R1065J
1441.043	13.963	1605810	REC_WORD	13.963	n/a	MOUTH	-999	14	[0, 0, 0]	n/a	FR1	5	R1065J
1455.006	1.727	1619774	REC_END	n/a	n/a	n/a	-999	14	[0, 0, 0]	n/a	FR1	5	R1065J
1456.733	0.0	1621501	COUNTDOWN_START	n/a	n/a	n/a	-999	15	[0, 0, 0]	n/a	FR1	5	R1065J
1456.733	10.428	1621501	TRIAL	n/a	n/a	n/a	-999	15	[0, 0, 0]	n/a	FR1	5	R1065J
1467.161	0.008	1631929	COUNTDOWN_END	n/a	n/a	n/a	-999	15	[0, 0, 0]	n/a	FR1	5	R1065J
1467.169	2.417	1631937	ORIENT	n/a	n/a	n/a	-999	15	[0, 0, 0]	n/a	FR1	5	R1065J
1469.586	2.6	1634354	WORD	n/a	wordpools/wordpool_EN.txt	BAG	1	15	[0, 0, 0]	n/a	FR1	5	R1065J
1472.186	2.401	1636954	WORD	n/a	wordpools/wordpool_EN.txt	GOAT	2	15	[0, 0, 0]	n/a	FR1	5	R1065J
1474.587	2.583	1639355	WORD	n/a	wordpools/wordpool_EN.txt	YARD	3	15	[0, 0, 0]	n/a	FR1	5	R1065J
1477.17	2.616	1641938	WORD	n/a	wordpools/wordpool_EN.txt	SNAIL	4	15	[0, 0, 0]	n/a	FR1	5	R1065J
1479.786	2.468	1644554	WORD	n/a	wordpools/wordpool_EN.txt	SHOE	5	15	[0, 0, 0]	n/a	FR1	5	R1065J
1482.254	2.516	1647022	WORD	n/a	wordpools/wordpool_EN.txt	FLEA	6	15	[0, 0, 0]	n/a	FR1	5	R1065J
1484.77	2.435	1649538	WORD	n/a	wordpools/wordpool_EN.txt	DRUM	7	15	[0, 0, 0]	n/a	FR1	5	R1065J
1487.205	2.5	1651973	WORD	n/a	wordpools/wordpool_EN.txt	GLASS	8	15	[0, 0, 0]	n/a	FR1	5	R1065J
1489.705	2.418	1654473	WORD	n/a	wordpools/wordpool_EN.txt	NOSE	9	15	[0, 0, 0]	n/a	FR1	5	R1065J
1492.123	2.383	1656891	WORD	n/a	wordpools/wordpool_EN.txt	WEB	10	15	[0, 0, 0]	n/a	FR1	5	R1065J
1494.506	2.451	1659274	WORD	n/a	wordpools/wordpool_EN.txt	WORLD	11	15	[0, 0, 0]	n/a	FR1	5	R1065J
1496.957	1.617	1661725	WORD	n/a	wordpools/wordpool_EN.txt	PEN	12	15	[0, 0, 0]	n/a	FR1	5	R1065J
1498.574	0.001	1663342	DISTRACT_START	n/a	n/a	n/a	-999	15	[0, 0, 0]	n/a	FR1	5	R1065J
1498.575	0.015	1663343	START	n/a	n/a	n/a	-999	15	[-999, -999, -999]	n/a	FR1	5	R1065J
1498.59	2.55	1663358	PROB	2.55	n/a	n/a	-999	15	[7, 4, 7]	18	FR1	5	R1065J
1501.14	1.784	1665908	PROB	1.784	n/a	n/a	-999	15	[5, 7, 7]	17	FR1	5	R1065J
1502.924	1.749	1667692	PROB	1.749	n/a	n/a	-999	15	[7, 7, 4]	18	FR1	5	R1065J
1504.673	1.951	1669441	PROB	1.951	n/a	n/a	-999	15	[5, 2, 7]	14	FR1	5	R1065J
1506.624	1.651	1671392	PROB	1.651	n/a	n/a	-999	15	[8, 1, 6]	15	FR1	5	R1065J
1508.275	4.483	1673043	PROB	4.483	n/a	n/a	-999	15	[9, 7, 6]	20	FR1	5	R1065J
1512.758	2.184	1677526	PROB	2.184	n/a	n/a	-999	15	[8, 9, 9]	26	FR1	5	R1065J
1514.942	2.017	1679710	PROB	2.017	n/a	n/a	-999	15	[2, 6, 7]	14	FR1	5	R1065J
1516.959	1.928	1681727	PROB	1.928	n/a	n/a	-999	15	[7, 7, 2]	16	FR1	5	R1065J
1518.887	0.006	1683655	STOP	n/a	n/a	n/a	-999	15	[-999, -999, -999]	n/a	FR1	5	R1065J
1518.893	1.218	1683661	DISTRACT_END	n/a	n/a	n/a	-999	15	[0, 0, 0]	n/a	FR1	5	R1065J
1520.111	1.843	1684879	REC_START	n/a	n/a	n/a	-999	15	[0, 0, 0]	n/a	FR1	5	R1065J
1521.954	1.866	1686722	REC_WORD	1.866	n/a	WEB	-999	15	[0, 0, 0]	n/a	FR1	5	R1065J
1523.82	2.77	1688588	REC_WORD	2.77	n/a	FLEA	-999	15	[0, 0, 0]	n/a	FR1	5	R1065J
1526.59	3.959	1691358	REC_WORD	3.959	n/a	SHOE	-999	15	[0, 0, 0]	n/a	FR1	5	R1065J
1530.549	19.574	1695317	REC_WORD	19.574	n/a	WORLD	-999	15	[0, 0, 0]	n/a	FR1	5	R1065J
1550.123	2.025	1714891	REC_END	n/a	n/a	n/a	-999	15	[0, 0, 0]	n/a	FR1	5	R1065J
1552.148	0.0	1716916	TRIAL	n/a	n/a	n/a	-999	16	[0, 0, 0]	n/a	FR1	5	R1065J
1552.148	10.428	1716916	COUNTDOWN_START	n/a	n/a	n/a	-999	16	[0, 0, 0]	n/a	FR1	5	R1065J
1562.576	0.006	1727344	COUNTDOWN_END	n/a	n/a	n/a	-999	16	[0, 0, 0]	n/a	FR1	5	R1065J
1562.582	2.534	1727350	ORIENT	n/a	n/a	n/a	-999	16	[0, 0, 0]	n/a	FR1	5	R1065J
1565.116	2.616	1729884	WORD	n/a	wordpools/wordpool_EN.txt	INK	1	16	[0, 0, 0]	n/a	FR1	5	R1065J
1567.732	2.585	1732500	WORD	n/a	wordpools/wordpool_EN.txt	BREAD	2	16	[0, 0, 0]	n/a	FR1	5	R1065J
1570.317	2.6	1735085	WORD	n/a	wordpools/wordpool_EN.txt	PEACH	3	16	[0, 0, 0]	n/a	FR1	5	R1065J
1572.917	2.584	1737685	WORD	n/a	wordpools/wordpool_EN.txt	CART	4	16	[0, 0, 0]	n/a	FR1	5	R1065J
1575.501	2.517	1740269	WORD	n/a	wordpools/wordpool_EN.txt	SIGN	5	16	[0, 0, 0]	n/a	FR1	5	R1065J
1578.018	2.4	1742786	WORD	n/a	wordpools/wordpool_EN.txt	LAWN	6	16	[0, 0, 0]	n/a	FR1	5	R1065J
1580.418	2.451	1745186	WORD	n/a	wordpools/wordpool_EN.txt	WHALE	7	16	[0, 0, 0]	n/a	FR1	5	R1065J
1582.869	2.433	1747637	WORD	n/a	wordpools/wordpool_EN.txt	STREET	8	16	[0, 0, 0]	n/a	FR1	5	R1065J
1585.302	2.617	1750070	WORD	n/a	wordpools/wordpool_EN.txt	STOVE	9	16	[0, 0, 0]	n/a	FR1	5	R1065J
1587.919	2.551	1752687	WORD	n/a	wordpools/wordpool_EN.txt	GOLD	10	16	[0, 0, 0]	n/a	FR1	5	R1065J
1590.47	2.617	1755239	WORD	n/a	wordpools/wordpool_EN.txt	STONE	11	16	[0, 0, 0]	n/a	FR1	5	R1065J
1593.087	1.616	1757856	WORD	n/a	wordpools/wordpool_EN.txt	COIN	12	16	[0, 0, 0]	n/a	FR1	5	R1065J
1594.703	0.001	1759472	DISTRACT_START	n/a	n/a	n/a	-999	16	[0, 0, 0]	n/a	FR1	5	R1065J
1594.704	0.015	1759473	START	n/a	n/a	n/a	-999	16	[-999, -999, -999]	n/a	FR1	5	R1065J
1594.719	2.702	1759488	PROB	2.702	n/a	n/a	-999	16	[2, 5, 3]	10	FR1	5	R1065J
1597.421	1.65	1762190	PROB	1.65	n/a	n/a	-999	16	[5, 6, 1]	12	FR1	5	R1065J
1599.071	1.566	1763840	PROB	1.566	n/a	n/a	-999	16	[1, 1, 6]	8	FR1	5	R1065J
1600.637	3.183	1765406	PROB	3.183	n/a	n/a	-999	16	[8, 4, 9]	22	FR1	5	R1065J
1603.82	2.069	1768589	PROB	2.069	n/a	n/a	-999	16	[5, 2, 4]	11	FR1	5	R1065J
1605.889	1.749	1770658	PROB	1.749	n/a	n/a	-999	16	[3, 5, 3]	11	FR1	5	R1065J
1607.638	1.901	1772407	PROB	1.901	n/a	n/a	-999	16	[6, 3, 7]	16	FR1	5	R1065J
1609.539	1.7	1774308	PROB	1.7	n/a	n/a	-999	16	[3, 7, 2]	12	FR1	5	R1065J
1611.239	1.884	1776008	PROB	1.884	n/a	n/a	-999	16	[3, 9, 5]	17	FR1	5	R1065J
1613.123	1.68	1777892	PROB	1.68	n/a	n/a	-999	16	[5, 7, 7]	19	FR1	5	R1065J
1614.803	0.019	1779572	STOP	n/a	n/a	n/a	-999	16	[-999, -999, -999]	n/a	FR1	5	R1065J
1614.822	1.052	1779591	DISTRACT_END	n/a	n/a	n/a	-999	16	[0, 0, 0]	n/a	FR1	5	R1065J
1615.874	1.878	1780643	REC_START	n/a	n/a	n/a	-999	16	[0, 0, 0]	n/a	FR1	5	R1065J
1617.752	1.816	1782521	REC_WORD	1.816	n/a	STOVE	-999	16	[0, 0, 0]	n/a	FR1	5	R1065J
1619.568	2.085	1784337	REC_WORD	2.085	n/a	COIN	-999	16	[0, 0, 0]	n/a	FR1	5	R1065J
1621.653	4.05	1786422	REC_WORD	4.05	n/a	GOLD	-999	16	[0, 0, 0]	n/a	FR1	5	R1065J
1625.703	2.381	1790472	REC_WORD	2.381	n/a	LAWN	-999	16	[0, 0, 0]	n/a	FR1	5	R1065J
1628.084	17.803	1792853	REC_WORD	17.803	n/a	STREET	-999	16	[0, 0, 0]	n/a	FR1	5	R1065J
1645.887	3.675	1810656	REC_END	n/a	n/a	n/a	-999	16	[0, 0, 0]	n/a	FR1	5	R1065J
1649.562	0.0	1814331	COUNTDOWN_START	n/a	n/a	n/a	-999	17	[0, 0, 0]	n/a	FR1	5	R1065J
1649.562	10.428	1814331	TRIAL	n/a	n/a	n/a	-999	17	[0, 0, 0]	n/a	FR1	5	R1065J
1659.99	0.006	1824759	COUNTDOWN_END	n/a	n/a	n/a	-999	17	[0, 0, 0]	n/a	FR1	5	R1065J
1659.996	2.534	1824765	ORIENT	n/a	n/a	n/a	-999	17	[0, 0, 0]	n/a	FR1	5	R1065J
1662.53	2.517	1827299	WORD	n/a	wordpools/wordpool_EN.txt	EGG	1	17	[0, 0, 0]	n/a	FR1	5	R1065J
1665.047	2.384	1829816	WORD	n/a	wordpools/wordpool_EN.txt	FORK	2	17	[0, 0, 0]	n/a	FR1	5	R1065J
1667.431	2.584	1832200	WORD	n/a	wordpools/wordpool_EN.txt	SLUSH	3	17	[0, 0, 0]	n/a	FR1	5	R1065J
1670.015	2.55	1834784	WORD	n/a	wordpools/wordpool_EN.txt	SEAT	4	17	[0, 0, 0]	n/a	FR1	5	R1065J
1672.565	2.583	1837334	WORD	n/a	wordpools/wordpool_EN.txt	PARK	5	17	[0, 0, 0]	n/a	FR1	5	R1065J
1675.148	2.583	1839917	WORD	n/a	wordpools/wordpool_EN.txt	CAR	6	17	[0, 0, 0]	n/a	FR1	5	R1065J
1677.731	2.502	1842500	WORD	n/a	wordpools/wordpool_EN.txt	DITCH	7	17	[0, 0, 0]	n/a	FR1	5	R1065J
1680.233	2.516	1845002	WORD	n/a	wordpools/wordpool_EN.txt	GLOVE	8	17	[0, 0, 0]	n/a	FR1	5	R1065J
1682.749	2.501	1847518	WORD	n/a	wordpools/wordpool_EN.txt	PANTS	9	17	[0, 0, 0]	n/a	FR1	5	R1065J
1685.25	2.416	1850019	WORD	n/a	wordpools/wordpool_EN.txt	SQUARE	10	17	[0, 0, 0]	n/a	FR1	5	R1065J
1687.666	2.435	1852435	WORD	n/a	wordpools/wordpool_EN.txt	LEG	11	17	[0, 0, 0]	n/a	FR1	5	R1065J
1690.101	1.615	1854870	WORD	n/a	wordpools/wordpool_EN.txt	TRAIN	12	17	[0, 0, 0]	n/a	FR1	5	R1065J
1691.716	0.001	1856485	DISTRACT_START	n/a	n/a	n/a	-999	17	[0, 0, 0]	n/a	FR1	5	R1065J
1691.717	0.016	1856486	START	n/a	n/a	n/a	-999	17	[-999, -999, -999]	n/a	FR1	5	R1065J
1691.733	2.635	1856502	PROB	2.635	n/a	n/a	-999	17	[1, 2, 8]	11	FR1	5	R1065J
1694.368	2.184	1859137	PROB	2.184	n/a	n/a	-999	17	[6, 2, 4]	12	FR1	5	R1065J
1696.552	2.3	1861321	PROB	2.3	n/a	n/a	-999	17	[6, 8, 9]	24	FR1	5	R1065J
1698.852	1.717	1863621	PROB	1.717	n/a	n/a	-999	17	[1, 3, 3]	7	FR1	5	R1065J
1700.569	1.633	1865338	PROB	1.633	n/a	n/a	-999	17	[4, 3, 1]	8	FR1	5	R1065J
1702.202	1.75	1866971	PROB	1.75	n/a	n/a	-999	17	[3, 5, 6]	14	FR1	5	R1065J
1703.952	2.634	1868721	PROB	2.634	n/a	n/a	-999	17	[9, 7, 5]	21	FR1	5	R1065J
1706.586	2.133	1871355	PROB	2.133	n/a	n/a	-999	17	[6, 3, 5]	14	FR1	5	R1065J
1708.719	1.967	1873488	PROB	1.967	n/a	n/a	-999	17	[7, 5, 2]	14	FR1	5	R1065J
1710.686	2.042	1875455	PROB	2.042	n/a	n/a	-999	17	[9, 8, 2]	19	FR1	5	R1065J
1712.728	0.008	1877497	STOP	n/a	n/a	n/a	-999	17	[-999, -999, -999]	n/a	FR1	5	R1065J
1712.736	1.218	1877505	DISTRACT_END	n/a	n/a	n/a	-999	17	[0, 0, 0]	n/a	FR1	5	R1065J
1713.954	2.175	1878723	REC_START	n/a	n/a	n/a	-999	17	[0, 0, 0]	n/a	FR1	5	R1065J
1716.129	1.887	1880898	REC_WORD	1.887	n/a	PARK	-999	17	[0, 0, 0]	n/a	FR1	5	R1065J
1718.016	2.294	1882785	REC_WORD	2.294	n/a	SEAT	-999	17	[0, 0, 0]	n/a	FR1	5	R1065J
1720.31	2.478	1885079	REC_WORD	2.478	n/a	CAR	-999	17	[0, 0, 0]	n/a	FR1	5	R1065J
1722.788	6.592	1887557	REC_WORD	6.592	n/a	LEG	-999	17	[0, 0, 0]	n/a	FR1	5	R1065J
1729.38	10.094	1894150	REC_WORD	10.094	n/a	TRAIN	-999	17	[0, 0, 0]	n/a	FR1	5	R1065J
1739.474	4.497	1904244	REC_WORD	4.497	n/a	GLOVE	-999	17	[0, 0, 0]	n/a	FR1	5	R1065J
1743.971	2.288	1908741	REC_END	n/a	n/a	n/a	-999	17	[0, 0, 0]	n/a	FR1	5	R1065J
1746.259	0.0	1911029	TRIAL	n/a	n/a	n/a	-999	18	[0, 0, 0]	n/a	FR1	5	R1065J
1746.259	10.428	1911029	COUNTDOWN_START	n/a	n/a	n/a	-999	18	[0, 0, 0]	n/a	FR1	5	R1065J
1756.687	0.005	1921457	COUNTDOWN_END	n/a	n/a	n/a	-999	18	[0, 0, 0]	n/a	FR1	5	R1065J
1756.692	2.468	1921462	ORIENT	n/a	n/a	n/a	-999	18	[0, 0, 0]	n/a	FR1	5	R1065J
1759.16	2.451	1923930	WORD	n/a	wordpools/wordpool_EN.txt	SNOW	1	18	[0, 0, 0]	n/a	FR1	5	R1065J
1761.611	2.583	1926381	WORD	n/a	wordpools/wordpool_EN.txt	BLOOM	2	18	[0, 0, 0]	n/a	FR1	5	R1065J
1764.194	2.466	1928964	WORD	n/a	wordpools/wordpool_EN.txt	FLAME	3	18	[0, 0, 0]	n/a	FR1	5	R1065J
1766.66	2.602	1931430	WORD	n/a	wordpools/wordpool_EN.txt	FOG	4	18	[0, 0, 0]	n/a	FR1	5	R1065J
1769.262	2.6	1934032	WORD	n/a	wordpools/wordpool_EN.txt	CLOUD	5	18	[0, 0, 0]	n/a	FR1	5	R1065J
1771.862	2.617	1936632	WORD	n/a	wordpools/wordpool_EN.txt	PIT	6	18	[0, 0, 0]	n/a	FR1	5	R1065J
1774.479	2.534	1939249	WORD	n/a	wordpools/wordpool_EN.txt	POND	7	18	[0, 0, 0]	n/a	FR1	5	R1065J
1777.013	2.517	1941783	WORD	n/a	wordpools/wordpool_EN.txt	CROW	8	18	[0, 0, 0]	n/a	FR1	5	R1065J
1779.53	2.417	1944300	WORD	n/a	wordpools/wordpool_EN.txt	LAKE	9	18	[0, 0, 0]	n/a	FR1	5	R1065J
1781.947	2.467	1946717	WORD	n/a	wordpools/wordpool_EN.txt	MAT	10	18	[0, 0, 0]	n/a	FR1	5	R1065J
1784.414	2.517	1949184	WORD	n/a	wordpools/wordpool_EN.txt	CUBE	11	18	[0, 0, 0]	n/a	FR1	5	R1065J
1786.931	1.617	1951701	WORD	n/a	wordpools/wordpool_EN.txt	JEEP	12	18	[0, 0, 0]	n/a	FR1	5	R1065J
1788.548	0.001	1953318	DISTRACT_START	n/a	n/a	n/a	-999	18	[0, 0, 0]	n/a	FR1	5	R1065J
1788.549	0.016	1953319	START	n/a	n/a	n/a	-999	18	[-999, -999, -999]	n/a	FR1	5	R1065J
1788.565	2.85	1953335	PROB	2.85	n/a	n/a	-999	18	[3, 9, 4]	16	FR1	5	R1065J
1791.415	1.7	1956185	PROB	1.7	n/a	n/a	-999	18	[6, 2, 2]	10	FR1	5	R1065J
1793.115	2.117	1957885	PROB	2.117	n/a	n/a	-999	18	[2, 7, 9]	18	FR1	5	R1065J
1795.232	5.084	1960002	PROB	5.084	n/a	n/a	-999	18	[7, 9, 6]	23	FR1	5	R1065J
1800.316	1.967	1965086	PROB	1.967	n/a	n/a	-999	18	[9, 6, 6]	21	FR1	5	R1065J
1802.283	1.884	1967053	PROB	1.884	n/a	n/a	-999	18	[9, 6, 3]	18	FR1	5	R1065J
1804.167	2.15	1968937	PROB	2.15	n/a	n/a	-999	18	[3, 2, 4]	9	FR1	5	R1065J
1806.317	1.55	1971087	PROB	1.55	n/a	n/a	-999	18	[7, 7, 7]	21	FR1	5	R1065J
1807.867	2.38	1972637	PROB	2.38	n/a	n/a	-999	18	[4, 8, 7]	19	FR1	5	R1065J
1810.247	0.004	1975017	STOP	n/a	n/a	n/a	-999	18	[-999, -999, -999]	n/a	FR1	5	R1065J
1810.251	1.084	1975021	DISTRACT_END	n/a	n/a	n/a	-999	18	[0, 0, 0]	n/a	FR1	5	R1065J
1811.335	2.671	1976105	REC_START	n/a	n/a	n/a	-999	18	[0, 0, 0]	n/a	FR1	5	R1065J
1814.006	1.981	1978776	REC_WORD	1.981	n/a	POND	-999	18	[0, 0, 0]	n/a	FR1	5	R1065J
1815.987	2.849	1980757	REC_WORD	2.849	n/a	CLOUD	-999	18	[0, 0, 0]	n/a	FR1	5	R1065J
1818.836	22.511	1983606	REC_WORD	22.511	n/a	SNOW	-999	18	[0, 0, 0]	n/a	FR1	5	R1065J
1841.347	1.692	2006117	REC_END	n/a	n/a	n/a	-999	18	[0, 0, 0]	n/a	FR1	5	R1065J
1843.039	0.0	2007809	TRIAL	n/a	n/a	n/a	-999	19	[0, 0, 0]	n/a	FR1	5	R1065J
1843.039	10.428	2007809	COUNTDOWN_START	n/a	n/a	n/a	-999	19	[0, 0, 0]	n/a	FR1	5	R1065J
1853.467	0.007	2018237	COUNTDOWN_END	n/a	n/a	n/a	-999	19	[0, 0, 0]	n/a	FR1	5	R1065J
1853.474	2.383	2018244	ORIENT	n/a	n/a	n/a	-999	19	[0, 0, 0]	n/a	FR1	5	R1065J
1855.857	2.518	2020627	WORD	n/a	wordpools/wordpool_EN.txt	RAT	1	19	[0, 0, 0]	n/a	FR1	5	R1065J
1858.375	2.399	2023145	WORD	n/a	wordpools/wordpool_EN.txt	BROOM	2	19	[0, 0, 0]	n/a	FR1	5	R1065J
1860.774	2.418	2025544	WORD	n/a	wordpools/wordpool_EN.txt	OWL	3	19	[0, 0, 0]	n/a	FR1	5	R1065J
1863.192	2.499	2027962	WORD	n/a	wordpools/wordpool_EN.txt	HEN	4	19	[0, 0, 0]	n/a	FR1	5	R1065J
1865.691	2.552	2030462	WORD	n/a	wordpools/wordpool_EN.txt	ANT	5	19	[0, 0, 0]	n/a	FR1	5	R1065J
1868.243	2.565	2033014	WORD	n/a	wordpools/wordpool_EN.txt	ROPE	6	19	[0, 0, 0]	n/a	FR1	5	R1065J
1870.808	2.452	2035579	WORD	n/a	wordpools/wordpool_EN.txt	STRING	7	19	[0, 0, 0]	n/a	FR1	5	R1065J
1873.26	2.432	2038031	WORD	n/a	wordpools/wordpool_EN.txt	KITE	8	19	[0, 0, 0]	n/a	FR1	5	R1065J
1875.692	2.485	2040463	WORD	n/a	wordpools/wordpool_EN.txt	FOX	9	19	[0, 0, 0]	n/a	FR1	5	R1065J
1878.177	2.384	2042948	WORD	n/a	wordpools/wordpool_EN.txt	CHIN	10	19	[0, 0, 0]	n/a	FR1	5	R1065J
1880.561	2.55	2045332	WORD	n/a	wordpools/wordpool_EN.txt	ROOF	11	19	[0, 0, 0]	n/a	FR1	5	R1065J
1883.111	1.616	2047882	WORD	n/a	wordpools/wordpool_EN.txt	THUMB	12	19	[0, 0, 0]	n/a	FR1	5	R1065J
1884.727	0.001	2049498	DISTRACT_START	n/a	n/a	n/a	-999	19	[0, 0, 0]	n/a	FR1	5	R1065J
1884.728	0.016	2049499	START	n/a	n/a	n/a	-999	19	[-999, -999, -999]	n/a	FR1	5	R1065J
1884.744	2.0	2049515	PROB	2.0	n/a	n/a	-999	19	[4, 4, 1]	9	FR1	5	R1065J
1886.744	1.768	2051515	PROB	1.768	n/a	n/a	-999	19	[6, 1, 3]	10	FR1	5	R1065J
1888.512	2.132	2053283	PROB	2.132	n/a	n/a	-999	19	[2, 7, 6]	15	FR1	5	R1065J
1890.644	1.718	2055415	PROB	1.718	n/a	n/a	-999	19	[3, 9, 9]	21	FR1	5	R1065J
1892.362	2.35	2057133	PROB	2.35	n/a	n/a	-999	19	[6, 4, 9]	19	FR1	5	R1065J
1894.712	2.117	2059483	PROB	2.117	n/a	n/a	-999	19	[5, 4, 7]	16	FR1	5	R1065J
1896.829	1.884	2061600	PROB	1.884	n/a	n/a	-999	19	[2, 6, 7]	14	FR1	5	R1065J
1898.713	2.151	2063484	PROB	2.151	n/a	n/a	-999	19	[4, 6, 2]	12	FR1	5	R1065J
1900.864	2.183	2065635	PROB	2.183	n/a	n/a	-999	19	[8, 2, 9]	19	FR1	5	R1065J
1903.047	1.748	2067818	PROB	1.748	n/a	n/a	-999	19	[5, 4, 2]	11	FR1	5	R1065J
1904.795	0.018	2069566	STOP	n/a	n/a	n/a	-999	19	[-999, -999, -999]	n/a	FR1	5	R1065J
1904.813	1.169	2069584	DISTRACT_END	n/a	n/a	n/a	-999	19	[0, 0, 0]	n/a	FR1	5	R1065J
1905.982	2.825	2070753	REC_START	n/a	n/a	n/a	-999	19	[0, 0, 0]	n/a	FR1	5	R1065J
1908.807	2.307	2073578	REC_WORD	2.307	n/a	ROPE	-999	19	[0, 0, 0]	n/a	FR1	5	R1065J
1911.114	3.133	2075885	REC_WORD	3.133	n/a	KITE	-999	19	[0, 0, 0]	n/a	FR1	5	R1065J
1914.247	11.478	2079018	REC_WORD	11.478	n/a	ANT	-999	19	[0, 0, 0]	n/a	FR1	5	R1065J
1925.725	10.269	2090496	REC_WORD	10.269	n/a	CORD	-999	19	[0, 0, 0]	n/a	FR1	5	R1065J
1935.994	1.774	2100765	REC_END	n/a	n/a	n/a	-999	19	[0, 0, 0]	n/a	FR1	5	R1065J
1937.768	0.0	2102539	TRIAL	n/a	n/a	n/a	-999	20	[0, 0, 0]	n/a	FR1	5	R1065J
1937.768	10.428	2102539	COUNTDOWN_START	n/a	n/a	n/a	-999	20	[0, 0, 0]	n/a	FR1	5	R1065J
1948.196	0.008	2112967	COUNTDOWN_END	n/a	n/a	n/a	-999	20	[0, 0, 0]	n/a	FR1	5	R1065J
1948.204	2.616	2112975	ORIENT	n/a	n/a	n/a	-999	20	[0, 0, 0]	n/a	FR1	5	R1065J
1950.82	2.551	2115591	WORD	n/a	wordpools/wordpool_EN.txt	CAVE	1	20	[0, 0, 0]	n/a	FR1	5	R1065J
1953.371	2.551	2118142	WORD	n/a	wordpools/wordpool_EN.txt	STAIR	2	20	[0, 0, 0]	n/a	FR1	5	R1065J
1955.922	2.433	2120693	WORD	n/a	wordpools/wordpool_EN.txt	SWAMP	3	20	[0, 0, 0]	n/a	FR1	5	R1065J
1958.355	2.584	2123126	WORD	n/a	wordpools/wordpool_EN.txt	WOOD	4	20	[0, 0, 0]	n/a	FR1	5	R1065J
1960.939	2.467	2125710	WORD	n/a	wordpools/wordpool_EN.txt	CRANE	5	20	[0, 0, 0]	n/a	FR1	5	R1065J
1963.406	2.399	2128177	WORD	n/a	wordpools/wordpool_EN.txt	RAKE	6	20	[0, 0, 0]	n/a	FR1	5	R1065J
1965.805	2.468	2130576	WORD	n/a	wordpools/wordpool_EN.txt	HAWK	7	20	[0, 0, 0]	n/a	FR1	5	R1065J
1968.273	2.433	2133044	WORD	n/a	wordpools/wordpool_EN.txt	PIPE	8	20	[0, 0, 0]	n/a	FR1	5	R1065J
1970.706	2.435	2135477	WORD	n/a	wordpools/wordpool_EN.txt	HORSE	9	20	[0, 0, 0]	n/a	FR1	5	R1065J
1973.141	2.516	2137912	WORD	n/a	wordpools/wordpool_EN.txt	TREE	10	20	[0, 0, 0]	n/a	FR1	5	R1065J
1975.657	2.484	2140428	WORD	n/a	wordpools/wordpool_EN.txt	DART	11	20	[0, 0, 0]	n/a	FR1	5	R1065J
1978.141	1.616	2142912	WORD	n/a	wordpools/wordpool_EN.txt	BOX	12	20	[0, 0, 0]	n/a	FR1	5	R1065J
1979.757	0.001	2144528	DISTRACT_START	n/a	n/a	n/a	-999	20	[0, 0, 0]	n/a	FR1	5	R1065J
1979.758	0.016	2144529	START	n/a	n/a	n/a	-999	20	[-999, -999, -999]	n/a	FR1	5	R1065J
1979.774	2.585	2144545	PROB	2.585	n/a	n/a	-999	20	[4, 6, 7]	18	FR1	5	R1065J
1982.359	1.883	2147130	PROB	1.883	n/a	n/a	-999	20	[8, 5, 7]	20	FR1	5	R1065J
1984.242	2.4	2149013	PROB	2.4	n/a	n/a	-999	20	[6, 8, 3]	17	FR1	5	R1065J
1986.642	2.668	2151413	PROB	2.668	n/a	n/a	-999	20	[9, 3, 6]	18	FR1	5	R1065J
1989.31	1.55	2154081	PROB	1.55	n/a	n/a	-999	20	[4, 2, 5]	11	FR1	5	R1065J
1990.86	2.333	2155631	PROB	2.333	n/a	n/a	-999	20	[4, 2, 1]	7	FR1	5	R1065J
1993.193	1.384	2157964	PROB	1.384	n/a	n/a	-999	20	[5, 5, 1]	11	FR1	5	R1065J
1994.577	2.7	2159348	PROB	2.7	n/a	n/a	-999	20	[3, 8, 9]	19	FR1	5	R1065J
1997.277	2.629	2162048	PROB	2.629	n/a	n/a	-999	20	[4, 4, 2]	10	FR1	5	R1065J
1999.906	0.005	2164677	STOP	n/a	n/a	n/a	-999	20	[-999, -999, -999]	n/a	FR1	5	R1065J
1999.911	1.101	2164682	DISTRACT_END	n/a	n/a	n/a	-999	20	[0, 0, 0]	n/a	FR1	5	R1065J
2001.012	1.1	2165783	REC_START	n/a	n/a	n/a	-999	20	[0, 0, 0]	n/a	FR1	5	R1065J
2002.112	1.164	2166884	REC_WORD_VV	1.164	n/a	<>	-999	20	[0, 0, 0]	n/a	FR1	5	R1065J
2003.276	2.697	2168048	REC_WORD	2.697	n/a	SWAMP	-999	20	[0, 0, 0]	n/a	FR1	5	R1065J
2005.973	3.368	2170745	REC_WORD	3.368	n/a	CAVE	-999	20	[0, 0, 0]	n/a	FR1	5	R1065J
2009.341	21.683	2174113	REC_WORD	21.683	n/a	TREE	-999	20	[0, 0, 0]	n/a	FR1	5	R1065J
2031.024	1.808	2195796	REC_END	n/a	n/a	n/a	-999	20	[0, 0, 0]	n/a	FR1	5	R1065J
2032.832	0.001	2197604	COUNTDOWN_START	n/a	n/a	n/a	-999	21	[0, 0, 0]	n/a	FR1	5	R1065J
2032.833	10.427	2197605	TRIAL	n/a	n/a	n/a	-999	21	[0, 0, 0]	n/a	FR1	5	R1065J
2043.26	0.007	2208032	COUNTDOWN_END	n/a	n/a	n/a	-999	21	[0, 0, 0]	n/a	FR1	5	R1065J
2043.267	2.516	2208039	ORIENT	n/a	n/a	n/a	-999	21	[0, 0, 0]	n/a	FR1	5	R1065J
2045.783	2.435	2210555	WORD	n/a	wordpools/wordpool_EN.txt	DOCK	1	21	[0, 0, 0]	n/a	FR1	5	R1065J
2048.218	2.4	2212990	WORD	n/a	wordpools/wordpool_EN.txt	FOAM	2	21	[0, 0, 0]	n/a	FR1	5	R1065J
2050.618	2.467	2215390	WORD	n/a	wordpools/wordpool_EN.txt	DRESS	3	21	[0, 0, 0]	n/a	FR1	5	R1065J
2053.085	2.583	2217857	WORD	n/a	wordpools/wordpool_EN.txt	HOLE	4	21	[0, 0, 0]	n/a	FR1	5	R1065J
2055.668	2.602	2220440	WORD	n/a	wordpools/wordpool_EN.txt	SALT	5	21	[0, 0, 0]	n/a	FR1	5	R1065J
2058.27	2.566	2223042	WORD	n/a	wordpools/wordpool_EN.txt	JAR	6	21	[0, 0, 0]	n/a	FR1	5	R1065J
2060.836	2.451	2225608	WORD	n/a	wordpools/wordpool_EN.txt	ROSE	7	21	[0, 0, 0]	n/a	FR1	5	R1065J
2063.287	2.567	2228059	WORD	n/a	wordpools/wordpool_EN.txt	BEAK	8	21	[0, 0, 0]	n/a	FR1	5	R1065J
2065.854	2.45	2230626	WORD	n/a	wordpools/wordpool_EN.txt	SPOON	9	21	[0, 0, 0]	n/a	FR1	5	R1065J
2068.304	2.516	2233076	WORD	n/a	wordpools/wordpool_EN.txt	SINK	10	21	[0, 0, 0]	n/a	FR1	5	R1065J
2070.82	2.435	2235592	WORD	n/a	wordpools/wordpool_EN.txt	BATH	11	21	[0, 0, 0]	n/a	FR1	5	R1065J
2073.255	1.617	2238027	WORD	n/a	wordpools/wordpool_EN.txt	THREAD	12	21	[0, 0, 0]	n/a	FR1	5	R1065J
2074.872	0.001	2239644	DISTRACT_START	n/a	n/a	n/a	-999	21	[0, 0, 0]	n/a	FR1	5	R1065J
2074.873	0.015	2239645	START	n/a	n/a	n/a	-999	21	[-999, -999, -999]	n/a	FR1	5	R1065J
2074.888	2.733	2239660	PROB	2.733	n/a	n/a	-999	21	[6, 6, 9]	21	FR1	5	R1065J
2077.621	1.835	2242393	PROB	1.835	n/a	n/a	-999	21	[4, 2, 1]	7	FR1	5	R1065J
2079.456	1.666	2244228	PROB	1.666	n/a	n/a	-999	21	[8, 1, 9]	18	FR1	5	R1065J
2081.122	2.451	2245894	PROB	2.451	n/a	n/a	-999	21	[2, 6, 4]	12	FR1	5	R1065J
2083.573	2.049	2248345	PROB	2.049	n/a	n/a	-999	21	[6, 1, 3]	10	FR1	5	R1065J
2085.622	3.235	2250394	PROB	3.235	n/a	n/a	-999	21	[4, 3, 6]	13	FR1	5	R1065J
2088.857	3.833	2253629	PROB	3.833	n/a	n/a	-999	21	[2, 6, 7]	13	FR1	5	R1065J
2092.69	1.933	2257462	PROB	1.933	n/a	n/a	-999	21	[4, 3, 8]	15	FR1	5	R1065J
2094.623	1.576	2259395	PROB	1.576	n/a	n/a	-999	21	[4, 4, 1]	9	FR1	5	R1065J
2096.199	0.009	2260971	STOP	n/a	n/a	n/a	-999	21	[-999, -999, -999]	n/a	FR1	5	R1065J
2096.208	1.051	2260980	DISTRACT_END	n/a	n/a	n/a	-999	21	[0, 0, 0]	n/a	FR1	5	R1065J
2097.259	0.509	2262031	REC_START	n/a	n/a	n/a	-999	21	[0, 0, 0]	n/a	FR1	5	R1065J
2097.768	2.086	2262540	REC_WORD_VV	2.086	n/a	<>	-999	21	[0, 0, 0]	n/a	FR1	5	R1065J
2099.854	0.737	2264626	REC_WORD_VV	0.737	n/a	<>	-999	21	[0, 0, 0]	n/a	FR1	5	R1065J
2100.591	2.028	2265363	REC_WORD	2.028	n/a	SINK	-999	21	[0, 0, 0]	n/a	FR1	5	R1065J
2102.619	3.012	2267391	REC_WORD	3.012	n/a	BATH	-999	21	[0, 0, 0]	n/a	FR1	5	R1065J
2105.631	21.64	2270403	REC_WORD	21.64	n/a	HOLE	-999	21	[0, 0, 0]	n/a	FR1	5	R1065J
2127.271	3.407	2292043	REC_END	n/a	n/a	n/a	-999	21	[0, 0, 0]	n/a	FR1	5	R1065J
2130.678	0.001	2295450	COUNTDOWN_START	n/a	n/a	n/a	-999	22	[0, 0, 0]	n/a	FR1	5	R1065J
2130.679	10.427	2295451	TRIAL	n/a	n/a	n/a	-999	22	[0, 0, 0]	n/a	FR1	5	R1065J
2141.106	0.008	2305879	COUNTDOWN_END	n/a	n/a	n/a	-999	22	[0, 0, 0]	n/a	FR1	5	R1065J
2141.114	2.417	2305887	ORIENT	n/a	n/a	n/a	-999	22	[0, 0, 0]	n/a	FR1	5	R1065J
2143.531	2.384	2308304	WORD	n/a	wordpools/wordpool_EN.txt	AXE	1	22	[0, 0, 0]	n/a	FR1	5	R1065J
2145.915	2.617	2310688	WORD	n/a	wordpools/wordpool_EN.txt	ICE	2	22	[0, 0, 0]	n/a	FR1	5	R1065J
2148.532	2.417	2313305	WORD	n/a	wordpools/wordpool_EN.txt	PLATE	3	22	[0, 0, 0]	n/a	FR1	5	R1065J
2150.949	2.484	2315722	WORD	n/a	wordpools/wordpool_EN.txt	SHEET	4	22	[0, 0, 0]	n/a	FR1	5	R1065J
2153.433	2.517	2318206	WORD	n/a	wordpools/wordpool_EN.txt	JAIL	5	22	[0, 0, 0]	n/a	FR1	5	R1065J
2155.95	2.45	2320723	WORD	n/a	wordpools/wordpool_EN.txt	FILM	6	22	[0, 0, 0]	n/a	FR1	5	R1065J
2158.4	2.467	2323173	WORD	n/a	wordpools/wordpool_EN.txt	MOOSE	7	22	[0, 0, 0]	n/a	FR1	5	R1065J
2160.867	2.617	2325640	WORD	n/a	wordpools/wordpool_EN.txt	ROOT	8	22	[0, 0, 0]	n/a	FR1	5	R1065J
2163.484	2.601	2328257	WORD	n/a	wordpools/wordpool_EN.txt	CROWN	9	22	[0, 0, 0]	n/a	FR1	5	R1065J
2166.085	2.417	2330858	WORD	n/a	wordpools/wordpool_EN.txt	NAIL	10	22	[0, 0, 0]	n/a	FR1	5	R1065J
2168.502	2.4	2333275	WORD	n/a	wordpools/wordpool_EN.txt	TOOL	11	22	[0, 0, 0]	n/a	FR1	5	R1065J
2170.902	1.617	2335675	WORD	n/a	wordpools/wordpool_EN.txt	SEED	12	22	[0, 0, 0]	n/a	FR1	5	R1065J
2172.519	0.001	2337292	DISTRACT_START	n/a	n/a	n/a	-999	22	[0, 0, 0]	n/a	FR1	5	R1065J
2172.52	0.015	2337293	START	n/a	n/a	n/a	-999	22	[-999, -999, -999]	n/a	FR1	5	R1065J
2172.535	2.918	2337308	PROB	2.918	n/a	n/a	-999	22	[9, 7, 9]	25	FR1	5	R1065J
2175.453	1.983	2340226	PROB	1.983	n/a	n/a	-999	22	[5, 3, 9]	17	FR1	5	R1065J
2177.436	3.001	2342209	PROB	3.001	n/a	n/a	-999	22	[6, 5, 6]	16	FR1	5	R1065J
2180.437	2.266	2345210	PROB	2.266	n/a	n/a	-999	22	[7, 4, 2]	14	FR1	5	R1065J
2182.703	2.95	2347476	PROB	2.95	n/a	n/a	-999	22	[9, 5, 7]	21	FR1	5	R1065J
2185.653	1.984	2350426	PROB	1.984	n/a	n/a	-999	22	[7, 5, 7]	19	FR1	5	R1065J
2187.637	2.1	2352410	PROB	2.1	n/a	n/a	-999	22	[9, 1, 8]	18	FR1	5	R1065J
2189.737	2.0	2354510	PROB	2.0	n/a	n/a	-999	22	[4, 2, 6]	12	FR1	5	R1065J
2191.737	2.627	2356510	PROB	2.627	n/a	n/a	-999	22	[9, 3, 4]	16	FR1	5	R1065J
2194.364	0.008	2359137	STOP	n/a	n/a	n/a	-999	22	[-999, -999, -999]	n/a	FR1	5	R1065J
2194.372	1.084	2359145	DISTRACT_END	n/a	n/a	n/a	-999	22	[0, 0, 0]	n/a	FR1	5	R1065J
2195.456	2.127	2360229	REC_START	n/a	n/a	n/a	-999	22	[0, 0, 0]	n/a	FR1	5	R1065J
2197.583	1.883	2362356	REC_WORD	1.883	n/a	CROWN	-999	22	[0, 0, 0]	n/a	FR1	5	R1065J
2199.466	2.331	2364239	REC_WORD	2.331	n/a	TOOL	-999	22	[0, 0, 0]	n/a	FR1	5	R1065J
2201.797	3.174	2366570	REC_WORD	3.174	n/a	NAIL	-999	22	[0, 0, 0]	n/a	FR1	5	R1065J
2204.971	20.497	2369744	REC_WORD	20.497	n/a	SHEET	-999	22	[0, 0, 0]	n/a	FR1	5	R1065J
2225.468	1.992	2390241	REC_END	n/a	n/a	n/a	-999	22	[0, 0, 0]	n/a	FR1	5	R1065J
2227.46	0.0	2392233	TRIAL	n/a	n/a	n/a	-999	23	[0, 0, 0]	n/a	FR1	5	R1065J
2227.46	10.428	2392233	COUNTDOWN_START	n/a	n/a	n/a	-999	23	[0, 0, 0]	n/a	FR1	5	R1065J
2237.888	0.007	2402661	COUNTDOWN_END	n/a	n/a	n/a	-999	23	[0, 0, 0]	n/a	FR1	5	R1065J
2237.895	2.45	2402668	ORIENT	n/a	n/a	n/a	-999	23	[0, 0, 0]	n/a	FR1	5	R1065J
2240.345	2.416	2405118	WORD	n/a	wordpools/wordpool_EN.txt	COW	1	23	[0, 0, 0]	n/a	FR1	5	R1065J
2242.761	2.568	2407534	WORD	n/a	wordpools/wordpool_EN.txt	DOLL	2	23	[0, 0, 0]	n/a	FR1	5	R1065J
2245.329	2.5	2410102	WORD	n/a	wordpools/wordpool_EN.txt	HOOF	3	23	[0, 0, 0]	n/a	FR1	5	R1065J
2247.829	2.618	2412602	WORD	n/a	wordpools/wordpool_EN.txt	SOUP	4	23	[0, 0, 0]	n/a	FR1	5	R1065J
2250.447	2.617	2415220	WORD	n/a	wordpools/wordpool_EN.txt	STRAW	5	23	[0, 0, 0]	n/a	FR1	5	R1065J
2253.064	2.5	2417837	WORD	n/a	wordpools/wordpool_EN.txt	PASTE	6	23	[0, 0, 0]	n/a	FR1	5	R1065J
2255.564	2.467	2420337	WORD	n/a	wordpools/wordpool_EN.txt	OAK	7	23	[0, 0, 0]	n/a	FR1	5	R1065J
2258.031	2.484	2422804	WORD	n/a	wordpools/wordpool_EN.txt	CUP	8	23	[0, 0, 0]	n/a	FR1	5	R1065J
2260.515	2.433	2425288	WORD	n/a	wordpools/wordpool_EN.txt	TOAST	9	23	[0, 0, 0]	n/a	FR1	5	R1065J
2262.948	2.417	2427721	WORD	n/a	wordpools/wordpool_EN.txt	VINE	10	23	[0, 0, 0]	n/a	FR1	5	R1065J
2265.365	2.484	2430138	WORD	n/a	wordpools/wordpool_EN.txt	DOOR	11	23	[0, 0, 0]	n/a	FR1	5	R1065J
2267.849	1.617	2432622	WORD	n/a	wordpools/wordpool_EN.txt	PEAR	12	23	[0, 0, 0]	n/a	FR1	5	R1065J
2269.466	0.001	2434239	DISTRACT_START	n/a	n/a	n/a	-999	23	[0, 0, 0]	n/a	FR1	5	R1065J
2269.467	0.016	2434240	START	n/a	n/a	n/a	-999	23	[-999, -999, -999]	n/a	FR1	5	R1065J
2269.483	2.95	2434256	PROB	2.95	n/a	n/a	-999	23	[3, 4, 5]	12	FR1	5	R1065J
2272.433	1.934	2437206	PROB	1.934	n/a	n/a	-999	23	[8, 2, 4]	14	FR1	5	R1065J
2274.367	2.382	2439140	PROB	2.382	n/a	n/a	-999	23	[3, 5, 1]	9	FR1	5	R1065J
2276.749	1.802	2441522	PROB	1.802	n/a	n/a	-999	23	[2, 4, 3]	9	FR1	5	R1065J
2278.551	4.433	2443325	PROB	4.433	n/a	n/a	-999	23	[7, 9, 3]	13	FR1	5	R1065J
2282.984	2.067	2447758	PROB	2.067	n/a	n/a	-999	23	[7, 4, 8]	19	FR1	5	R1065J
2285.051	1.784	2449825	PROB	1.784	n/a	n/a	-999	23	[1, 6, 6]	13	FR1	5	R1065J
2286.835	1.833	2451609	PROB	1.833	n/a	n/a	-999	23	[5, 3, 1]	9	FR1	5	R1065J
2288.668	1.981	2453442	PROB	1.981	n/a	n/a	-999	23	[2, 9, 2]	13	FR1	5	R1065J
2290.649	0.019	2455423	STOP	n/a	n/a	n/a	-999	23	[-999, -999, -999]	n/a	FR1	5	R1065J
2290.668	1.084	2455442	DISTRACT_END	n/a	n/a	n/a	-999	23	[0, 0, 0]	n/a	FR1	5	R1065J
2291.752	2.14	2456526	REC_START	n/a	n/a	n/a	-999	23	[0, 0, 0]	n/a	FR1	5	R1065J
2293.892	2.997	2458666	REC_WORD	2.997	n/a	VINE	-999	23	[0, 0, 0]	n/a	FR1	5	R1065J
2296.889	24.874	2461663	REC_WORD	24.874	n/a	PEAR	-999	23	[0, 0, 0]	n/a	FR1	5	R1065J
2321.763	0.007	2486537	REC_WORD_VV	0.007	n/a	<>	-999	23	[0, 0, 0]	n/a	FR1	5	R1065J
2321.77	3.187	2486544	REC_END	n/a	n/a	n/a	-999	23	[0, 0, 0]	n/a	FR1	5	R1065J
2324.957	0.0	2489731	COUNTDOWN_START	n/a	n/a	n/a	-999	24	[0, 0, 0]	n/a	FR1	5	R1065J
2324.957	10.428	2489731	TRIAL	n/a	n/a	n/a	-999	24	[0, 0, 0]	n/a	FR1	5	R1065J
2335.385	0.007	2500159	COUNTDOWN_END	n/a	n/a	n/a	-999	24	[0, 0, 0]	n/a	FR1	5	R1065J
2335.392	2.584	2500166	ORIENT	n/a	n/a	n/a	-999	24	[0, 0, 0]	n/a	FR1	5	R1065J
2337.976	2.6	2502750	WORD	n/a	wordpools/wordpool_EN.txt	ARM	1	24	[0, 0, 0]	n/a	FR1	5	R1065J
2340.576	2.5	2505350	WORD	n/a	wordpools/wordpool_EN.txt	CHEEK	2	24	[0, 0, 0]	n/a	FR1	5	R1065J
2343.076	2.583	2507850	WORD	n/a	wordpools/wordpool_EN.txt	TOE	3	24	[0, 0, 0]	n/a	FR1	5	R1065J
2345.659	2.385	2510433	WORD	n/a	wordpools/wordpool_EN.txt	PET	4	24	[0, 0, 0]	n/a	FR1	5	R1065J
2348.044	2.45	2512818	WORD	n/a	wordpools/wordpool_EN.txt	TENT	5	24	[0, 0, 0]	n/a	FR1	5	R1065J
2350.494	2.6	2515268	WORD	n/a	wordpools/wordpool_EN.txt	PURSE	6	24	[0, 0, 0]	n/a	FR1	5	R1065J
2353.094	2.533	2517868	WORD	n/a	wordpools/wordpool_EN.txt	CAGE	7	24	[0, 0, 0]	n/a	FR1	5	R1065J
2355.627	2.468	2520401	WORD	n/a	wordpools/wordpool_EN.txt	PALM	8	24	[0, 0, 0]	n/a	FR1	5	R1065J
2358.095	2.533	2522869	WORD	n/a	wordpools/wordpool_EN.txt	GUARD	9	24	[0, 0, 0]	n/a	FR1	5	R1065J
2360.628	2.435	2525402	WORD	n/a	wordpools/wordpool_EN.txt	HORN	10	24	[0, 0, 0]	n/a	FR1	5	R1065J
2363.063	2.632	2527837	WORD	n/a	wordpools/wordpool_EN.txt	TOY	11	24	[0, 0, 0]	n/a	FR1	5	R1065J
2365.695	1.601	2530469	WORD	n/a	wordpools/wordpool_EN.txt	TAIL	12	24	[0, 0, 0]	n/a	FR1	5	R1065J
2367.296	0.001	2532070	DISTRACT_START	n/a	n/a	n/a	-999	24	[0, 0, 0]	n/a	FR1	5	R1065J
2367.297	0.016	2532071	START	n/a	n/a	n/a	-999	24	[-999, -999, -999]	n/a	FR1	5	R1065J
2367.313	3.617	2532087	PROB	3.617	n/a	n/a	-999	24	[8, 1, 7]	16	FR1	5	R1065J
2370.93	2.267	2535704	PROB	2.267	n/a	n/a	-999	24	[4, 4, 7]	15	FR1	5	R1065J
2373.197	1.951	2537971	PROB	1.951	n/a	n/a	-999	24	[9, 9, 1]	20	FR1	5	R1065J
2375.148	1.85	2539922	PROB	1.85	n/a	n/a	-999	24	[1, 3, 8]	12	FR1	5	R1065J
2376.998	1.749	2541772	PROB	1.749	n/a	n/a	-999	24	[7, 7, 2]	16	FR1	5	R1065J
2378.747	1.801	2543521	PROB	1.801	n/a	n/a	-999	24	[2, 5, 6]	13	FR1	5	R1065J
2380.548	2.384	2545322	PROB	2.384	n/a	n/a	-999	24	[9, 7, 4]	20	FR1	5	R1065J
2382.932	1.934	2547706	PROB	1.934	n/a	n/a	-999	24	[6, 6, 4]	16	FR1	5	R1065J
2384.866	1.949	2549640	PROB	1.949	n/a	n/a	-999	24	[4, 2, 7]	13	FR1	5	R1065J
2386.815	2.144	2551589	PROB	2.144	n/a	n/a	-999	24	[7, 1, 6]	14	FR1	5	R1065J
2388.959	0.007	2553733	STOP	n/a	n/a	n/a	-999	24	[-999, -999, -999]	n/a	FR1	5	R1065J
2388.966	1.134	2553740	DISTRACT_END	n/a	n/a	n/a	-999	24	[0, 0, 0]	n/a	FR1	5	R1065J
2390.1	1.983	2554874	REC_START	n/a	n/a	n/a	-999	24	[0, 0, 0]	n/a	FR1	5	R1065J
2392.083	1.758	2556857	REC_WORD	1.758	n/a	PET	-999	24	[0, 0, 0]	n/a	FR1	5	R1065J
2393.841	2.641	2558615	REC_WORD	2.641	n/a	CAGE	-999	24	[0, 0, 0]	n/a	FR1	5	R1065J
2396.482	3.072	2561256	REC_WORD	3.072	n/a	TAIL	-999	24	[0, 0, 0]	n/a	FR1	5	R1065J
2399.554	4.154	2564328	REC_WORD	4.154	n/a	TOE	-999	24	[0, 0, 0]	n/a	FR1	5	R1065J
2403.708	16.409	2568482	REC_WORD	16.409	n/a	ARM	-999	24	[0, 0, 0]	n/a	FR1	5	R1065J
2420.117	1.787	2584892	REC_END	n/a	n/a	n/a	-999	24	[0, 0, 0]	n/a	FR1	5	R1065J
2421.904	0.0	2586679	TRIAL	n/a	n/a	n/a	-999	25	[0, 0, 0]	n/a	FR1	5	R1065J
2421.904	10.428	2586679	COUNTDOWN_START	n/a	n/a	n/a	-999	25	[0, 0, 0]	n/a	FR1	5	R1065J
2432.332	0.007	2597107	COUNTDOWN_END	n/a	n/a	n/a	-999	25	[0, 0, 0]	n/a	FR1	5	R1065J
2432.339	2.55	2597114	ORIENT	n/a	n/a	n/a	-999	25	[0, 0, 0]	n/a	FR1	5	R1065J
2434.889	2.384	2599664	WORD	n/a	wordpools/wordpool_EN.txt	GRAPE	1	25	[0, 0, 0]	n/a	FR1	5	R1065J
2437.273	2.55	2602048	WORD	n/a	wordpools/wordpool_EN.txt	SOAP	2	25	[0, 0, 0]	n/a	FR1	5	R1065J
2439.823	2.401	2604598	WORD	n/a	wordpools/wordpool_EN.txt	FISH	3	25	[0, 0, 0]	n/a	FR1	5	R1065J
2442.224	2.482	2606999	WORD	n/a	wordpools/wordpool_EN.txt	SHRIMP	4	25	[0, 0, 0]	n/a	FR1	5	R1065J
2444.706	2.468	2609481	WORD	n/a	wordpools/wordpool_EN.txt	BEAN	5	25	[0, 0, 0]	n/a	FR1	5	R1065J
2447.174	2.45	2611949	WORD	n/a	wordpools/wordpool_EN.txt	SPRING	6	25	[0, 0, 0]	n/a	FR1	5	R1065J
2449.624	2.418	2614399	WORD	n/a	wordpools/wordpool_EN.txt	LIP	7	25	[0, 0, 0]	n/a	FR1	5	R1065J
2452.042	2.483	2616817	WORD	n/a	wordpools/wordpool_EN.txt	RIB	8	25	[0, 0, 0]	n/a	FR1	5	R1065J
2454.525	2.468	2619300	WORD	n/a	wordpools/wordpool_EN.txt	RICE	9	25	[0, 0, 0]	n/a	FR1	5	R1065J
2456.993	2.417	2621768	WORD	n/a	wordpools/wordpool_EN.txt	DIME	10	25	[0, 0, 0]	n/a	FR1	5	R1065J
2459.41	2.415	2624185	WORD	n/a	wordpools/wordpool_EN.txt	STEM	11	25	[0, 0, 0]	n/a	FR1	5	R1065J
2461.825	1.601	2626600	WORD	n/a	wordpools/wordpool_EN.txt	LEAF	12	25	[0, 0, 0]	n/a	FR1	5	R1065J
2463.426	0.001	2628201	DISTRACT_START	n/a	n/a	n/a	-999	25	[0, 0, 0]	n/a	FR1	5	R1065J
2463.427	0.016	2628202	START	n/a	n/a	n/a	-999	25	[-999, -999, -999]	n/a	FR1	5	R1065J
2463.443	2.25	2628218	PROB	2.25	n/a	n/a	-999	25	[1, 1, 8]	10	FR1	5	R1065J
2465.693	2.818	2630468	PROB	2.818	n/a	n/a	-999	25	[9, 7, 7]	25	FR1	5	R1065J
2468.511	1.7	2633286	PROB	1.7	n/a	n/a	-999	25	[2, 8, 1]	11	FR1	5	R1065J
2470.211	1.95	2634986	PROB	1.95	n/a	n/a	-999	25	[5, 7, 8]	22	FR1	5	R1065J
2472.161	2.117	2636936	PROB	2.117	n/a	n/a	-999	25	[3, 8, 6]	17	FR1	5	R1065J
2474.278	1.867	2639053	PROB	1.867	n/a	n/a	-999	25	[5, 8, 1]	14	FR1	5	R1065J
2476.145	1.633	2640920	PROB	1.633	n/a	n/a	-999	25	[1, 3, 9]	13	FR1	5	R1065J
2477.778	2.101	2642553	PROB	2.101	n/a	n/a	-999	25	[4, 9, 4]	17	FR1	5	R1065J
2479.879	2.167	2644654	PROB	2.167	n/a	n/a	-999	25	[7, 8, 8]	22	FR1	5	R1065J
2482.046	2.238	2646821	PROB	2.238	n/a	n/a	-999	25	[7, 5, 2]	14	FR1	5	R1065J
2484.284	0.012	2649059	STOP	n/a	n/a	n/a	-999	25	[-999, -999, -999]	n/a	FR1	5	R1065J
2484.296	1.101	2649071	DISTRACT_END	n/a	n/a	n/a	-999	25	[0, 0, 0]	n/a	FR1	5	R1065J
2485.397	2.376	2650172	REC_START	n/a	n/a	n/a	-999	25	[0, 0, 0]	n/a	FR1	5	R1065J
2487.773	1.856	2652548	REC_WORD	1.856	n/a	SHRIMP	-999	25	[0, 0, 0]	n/a	FR1	5	R1065J
2489.629	2.073	2654404	REC_WORD	2.073	n/a	FISH	-999	25	[0, 0, 0]	n/a	FR1	5	R1065J
2491.702	1.514	2656477	REC_WORD	1.514	n/a	GRAPE	-999	25	[0, 0, 0]	n/a	FR1	5	R1065J
2493.216	1.979	2657991	REC_WORD	1.979	n/a	RIB	-999	25	[0, 0, 0]	n/a	FR1	5	R1065J
2495.195	20.215	2659970	REC_WORD	20.215	n/a	RICE	-999	25	[0, 0, 0]	n/a	FR1	5	R1065J
2515.41	8.742	2680185	REC_END	n/a	n/a	n/a	-999	25	[0, 0, 0]	n/a	FR1	5	R1065J
2524.152	0.0	2688927	SESS_END	n/a	n/a	n/a	-999	25	[0, 0, 0]	n/a	FR1	5	R1065J
