onset	duration	sample	trial_type	response_time	stim_file	item_name	serialpos	list	test	answer	experiment	session	subject
0.0	223.804	1606	INSTRUCT_START	n/a	n/a	n/a	-999	-999	[0, 0, 0]	n/a	FR1	0	R1298E
223.804	2.1	225402	INSTRUCT_END	n/a	n/a	n/a	-999	-999	[0, 0, 0]	n/a	FR1	0	R1298E
225.904	10.459	227502	MIC TEST_START	n/a	n/a	n/a	-999	-999	[0, 0, 0]	n/a	FR1	0	R1298E
236.363	0.009	237960	MIC TEST_END	n/a	n/a	n/a	-999	-999	[0, 0, 0]	n/a	FR1	0	R1298E
236.372	0.0	237969	TRIAL_START	n/a	n/a	n/a	-999	-1	[0, 0, 0]	n/a	FR1	0	R1298E
236.372	0.001	237969	TRIAL	n/a	n/a	n/a	-999	-1	[0, 0, 0]	n/a	FR1	0	R1298E
236.373	6.166	237970	WAITING_START	n/a	n/a	n/a	-999	-1	[0, 0, 0]	n/a	FR1	0	R1298E
242.539	0.001	244136	WAITING_END	n/a	n/a	n/a	-999	-1	[0, 0, 0]	n/a	FR1	0	R1298E
242.54	10.429	244137	COUNTDOWN_START	n/a	n/a	n/a	-999	-1	[0, 0, 0]	n/a	FR1	0	R1298E
252.969	0.0	254566	COUNTDOWN_END	n/a	n/a	n/a	-999	-1	[0, 0, 0]	n/a	FR1	0	R1298E
252.969	1.122	254566	ORIENT_START	n/a	n/a	n/a	-999	-1	[0, 0, 0]	n/a	FR1	0	R1298E
254.091	0.0	255688	ORIENT_END	n/a	n/a	n/a	-999	-1	[0, 0, 0]	n/a	FR1	0	R1298E
254.091	1.029	255688	ENCODING_START	n/a	n/a	n/a	-999	-1	[0, 0, 0]	n/a	FR1	0	R1298E
255.12	1.622	256717	WORD	n/a	n/a	ATTIC	1	-1	[0, 0, 0]	n/a	FR1	0	R1298E
256.742	1.028	258339	WORD_OFF	n/a	n/a	ATTIC	1	-1	[0, 0, 0]	n/a	FR1	0	R1298E
257.77	1.622	259367	WORD	n/a	n/a	BEAM	2	-1	[0, 0, 0]	n/a	FR1	0	R1298E
259.392	1.042	260989	WORD_OFF	n/a	n/a	BEAM	2	-1	[0, 0, 0]	n/a	FR1	0	R1298E
260.434	1.626	262031	WORD	n/a	n/a	CAMEL	3	-1	[0, 0, 0]	n/a	FR1	0	R1298E
262.06	0.899	263657	WORD_OFF	n/a	n/a	CAMEL	3	-1	[0, 0, 0]	n/a	FR1	0	R1298E
262.959	1.634	264556	WORD	n/a	n/a	CHEST	4	-1	[0, 0, 0]	n/a	FR1	0	R1298E
264.593	0.781	266189	WORD_OFF	n/a	n/a	CHEST	4	-1	[0, 0, 0]	n/a	FR1	0	R1298E
265.374	1.637	266970	WORD	n/a	n/a	COTTON	5	-1	[0, 0, 0]	n/a	FR1	0	R1298E
267.011	1.14	268607	WORD_OFF	n/a	n/a	COTTON	5	-1	[0, 0, 0]	n/a	FR1	0	R1298E
268.151	1.627	269747	WORD	n/a	n/a	FLOOD	6	-1	[0, 0, 0]	n/a	FR1	0	R1298E
269.778	1.007	271374	WORD_OFF	n/a	n/a	FLOOD	6	-1	[0, 0, 0]	n/a	FR1	0	R1298E
270.785	1.626	272381	WORD	n/a	n/a	IRON	7	-1	[0, 0, 0]	n/a	FR1	0	R1298E
272.411	0.892	274007	WORD_OFF	n/a	n/a	IRON	7	-1	[0, 0, 0]	n/a	FR1	0	R1298E
273.303	1.626	274899	WORD	n/a	n/a	RHINO	8	-1	[0, 0, 0]	n/a	FR1	0	R1298E
274.929	0.958	276525	WORD_OFF	n/a	n/a	RHINO	8	-1	[0, 0, 0]	n/a	FR1	0	R1298E
275.887	1.625	277483	WORD	n/a	n/a	RING	9	-1	[0, 0, 0]	n/a	FR1	0	R1298E
277.512	0.832	279108	WORD_OFF	n/a	n/a	RING	9	-1	[0, 0, 0]	n/a	FR1	0	R1298E
278.344	1.636	279940	WORD	n/a	n/a	TONGUE	10	-1	[0, 0, 0]	n/a	FR1	0	R1298E
279.98	0.899	281576	WORD_OFF	n/a	n/a	TONGUE	10	-1	[0, 0, 0]	n/a	FR1	0	R1298E
280.879	1.634	282475	WORD	n/a	n/a	WAGON	11	-1	[0, 0, 0]	n/a	FR1	0	R1298E
282.513	1.14	284109	WORD_OFF	n/a	n/a	WAGON	11	-1	[0, 0, 0]	n/a	FR1	0	R1298E
283.653	1.627	285249	WORD	n/a	n/a	WATCH	12	-1	[0, 0, 0]	n/a	FR1	0	R1298E
285.28	0.0	286876	DISTRACT_START	n/a	n/a	n/a	-999	-1	[0, 0, 0]	n/a	FR1	0	R1298E
285.28	0.0	286876	WORD_OFF	n/a	n/a	WATCH	12	-1	[0, 0, 0]	n/a	FR1	0	R1298E
285.28	0.001	286876	ENCODING_END	n/a	n/a	n/a	-999	-1	[0, 0, 0]	n/a	FR1	0	R1298E
285.281	0.015	286877	START	n/a	n/a	n/a	-999	-1	[-999, -999, -999]	n/a	FR1	0	R1298E
285.296	14.554	286892	PROB	14.554	n/a	n/a	-999	-1	[7, 6, 9]	22	FR1	0	R1298E
299.85	6.8	301445	PROB	6.8	n/a	n/a	-999	-1	[7, 4, 7]	18	FR1	0	R1298E
306.65	0.017	308245	STOP	n/a	n/a	n/a	-999	-1	[-999, -999, -999]	n/a	FR1	0	R1298E
306.667	0.603	308262	DISTRACT_END	n/a	n/a	n/a	-999	-1	[0, 0, 0]	n/a	FR1	0	R1298E
307.27	1.598	308865	RETRIEVAL_ORIENT_START	n/a	n/a	n/a	-999	-1	[0, 0, 0]	n/a	FR1	0	R1298E
308.868	0.001	310463	RETRIEVAL_ORIENT_END	n/a	n/a	n/a	-999	-1	[0, 0, 0]	n/a	FR1	0	R1298E
308.869	0.899	310464	REC_START	n/a	n/a	n/a	-999	-1	[0, 0, 0]	n/a	FR1	0	R1298E
309.768	0.72	311363	REC_WORD	0.72	n/a	CAMEL	-999	-1	[0, 0, 0]	n/a	FR1	0	R1298E
310.488	1.16	312083	REC_WORD	1.16	n/a	FLOOD	-999	-1	[0, 0, 0]	n/a	FR1	0	R1298E
311.648	1.877	313243	REC_WORD	1.877	n/a	IRON	-999	-1	[0, 0, 0]	n/a	FR1	0	R1298E
313.525	1.293	315120	REC_WORD	1.293	n/a	GIANT	-999	-1	[0, 0, 0]	n/a	FR1	0	R1298E
314.818	24.06	316413	REC_WORD	24.06	n/a	CHEST	-999	-1	[0, 0, 0]	n/a	FR1	0	R1298E
338.878	0.001	340472	REC_END	n/a	n/a	n/a	-999	-1	[0, 0, 0]	n/a	FR1	0	R1298E
338.879	22.415	340473	PRACTICE_POST_INSTRUCT_START	n/a	n/a	n/a	-999	-1	[0, 0, 0]	n/a	FR1	0	R1298E
361.294	0.0	362887	PRACTICE_POST_INSTRUCT_END	n/a	n/a	n/a	-999	-1	[0, 0, 0]	n/a	FR1	0	R1298E
361.294	0.018	362887	TRIAL_END	n/a	n/a	n/a	-999	-1	[0, 0, 0]	n/a	FR1	0	R1298E
361.312	0.0	362905	TRIAL_START	n/a	n/a	n/a	-999	1	[0, 0, 0]	n/a	FR1	0	R1298E
361.312	0.001	362905	TRIAL	n/a	n/a	n/a	-999	1	[0, 0, 0]	n/a	FR1	0	R1298E
361.313	24.234	362906	WAITING_START	n/a	n/a	n/a	-999	1	[0, 0, 0]	n/a	FR1	0	R1298E
385.547	0.001	387139	WAITING_END	n/a	n/a	n/a	-999	1	[0, 0, 0]	n/a	FR1	0	R1298E
385.548	10.429	387140	COUNTDOWN_START	n/a	n/a	n/a	-999	1	[0, 0, 0]	n/a	FR1	0	R1298E
395.977	0.001	397569	COUNTDOWN_END	n/a	n/a	n/a	-999	1	[0, 0, 0]	n/a	FR1	0	R1298E
395.978	1.072	397570	ORIENT_START	n/a	n/a	n/a	-999	1	[0, 0, 0]	n/a	FR1	0	R1298E
397.05	0.001	398642	ORIENT_END	n/a	n/a	n/a	-999	1	[0, 0, 0]	n/a	FR1	0	R1298E
397.051	1.137	398643	ENCODING_START	n/a	n/a	n/a	-999	1	[0, 0, 0]	n/a	FR1	0	R1298E
398.188	1.613	399780	WORD	n/a	n/a	GEESE	1	1	[0, 0, 0]	n/a	FR1	0	R1298E
399.801	1.071	401393	WORD_OFF	n/a	n/a	GEESE	1	1	[0, 0, 0]	n/a	FR1	0	R1298E
400.872	1.628	402464	WORD	n/a	n/a	WAND	2	1	[0, 0, 0]	n/a	FR1	0	R1298E
402.5	0.893	404092	WORD_OFF	n/a	n/a	WAND	2	1	[0, 0, 0]	n/a	FR1	0	R1298E
403.393	1.609	404985	WORD	n/a	n/a	FROG	3	1	[0, 0, 0]	n/a	FR1	0	R1298E
405.002	0.9	406594	WORD_OFF	n/a	n/a	FROG	3	1	[0, 0, 0]	n/a	FR1	0	R1298E
405.902	1.633	407494	WORD	n/a	n/a	TOAD	4	1	[0, 0, 0]	n/a	FR1	0	R1298E
407.535	0.991	409127	WORD_OFF	n/a	n/a	TOAD	4	1	[0, 0, 0]	n/a	FR1	0	R1298E
408.526	1.626	410118	WORD	n/a	n/a	WHALE	5	1	[0, 0, 0]	n/a	FR1	0	R1298E
410.152	1.051	411743	WORD_OFF	n/a	n/a	WHALE	5	1	[0, 0, 0]	n/a	FR1	0	R1298E
411.203	1.617	412794	WORD	n/a	n/a	BADGE	6	1	[0, 0, 0]	n/a	FR1	0	R1298E
412.82	1.133	414411	WORD_OFF	n/a	n/a	BADGE	6	1	[0, 0, 0]	n/a	FR1	0	R1298E
413.953	1.633	415544	WORD	n/a	n/a	PET	7	1	[0, 0, 0]	n/a	FR1	0	R1298E
415.586	1.002	417177	WORD_OFF	n/a	n/a	PET	7	1	[0, 0, 0]	n/a	FR1	0	R1298E
416.588	1.632	418179	WORD	n/a	n/a	SKY	8	1	[0, 0, 0]	n/a	FR1	0	R1298E
418.22	1.114	419811	WORD_OFF	n/a	n/a	SKY	8	1	[0, 0, 0]	n/a	FR1	0	R1298E
419.334	1.637	420925	WORD	n/a	n/a	BAT	9	1	[0, 0, 0]	n/a	FR1	0	R1298E
420.971	0.813	422562	WORD_OFF	n/a	n/a	BAT	9	1	[0, 0, 0]	n/a	FR1	0	R1298E
421.784	1.62	423375	WORD	n/a	n/a	BROOM	10	1	[0, 0, 0]	n/a	FR1	0	R1298E
423.404	0.91	424995	WORD_OFF	n/a	n/a	BROOM	10	1	[0, 0, 0]	n/a	FR1	0	R1298E
424.314	1.625	425905	WORD	n/a	n/a	CLOCK	11	1	[0, 0, 0]	n/a	FR1	0	R1298E
425.939	1.118	427530	WORD_OFF	n/a	n/a	CLOCK	11	1	[0, 0, 0]	n/a	FR1	0	R1298E
427.057	1.631	428648	WORD	n/a	n/a	FUR	12	1	[0, 0, 0]	n/a	FR1	0	R1298E
428.688	0.001	430279	WORD_OFF	n/a	n/a	FUR	12	1	[0, 0, 0]	n/a	FR1	0	R1298E
428.689	0.0	430280	ENCODING_END	n/a	n/a	n/a	-999	1	[0, 0, 0]	n/a	FR1	0	R1298E
428.689	0.0	430280	DISTRACT_START	n/a	n/a	n/a	-999	1	[0, 0, 0]	n/a	FR1	0	R1298E
428.689	0.016	430280	START	n/a	n/a	n/a	-999	1	[-999, -999, -999]	n/a	FR1	0	R1298E
428.705	9.286	430296	PROB	9.286	n/a	n/a	-999	1	[7, 7, 6]	20	FR1	0	R1298E
437.991	2.666	439582	PROB	2.666	n/a	n/a	-999	1	[9, 1, 1]	11	FR1	0	R1298E
440.657	3.1	442247	PROB	3.1	n/a	n/a	-999	1	[1, 9, 4]	14	FR1	0	R1298E
443.757	6.706	445347	PROB	6.706	n/a	n/a	-999	1	[5, 6, 9]	20	FR1	0	R1298E
450.463	0.012	452053	STOP	n/a	n/a	n/a	-999	1	[-999, -999, -999]	n/a	FR1	0	R1298E
450.475	0.668	452065	DISTRACT_END	n/a	n/a	n/a	-999	1	[0, 0, 0]	n/a	FR1	0	R1298E
451.143	1.667	452733	RETRIEVAL_ORIENT_START	n/a	n/a	n/a	-999	1	[0, 0, 0]	n/a	FR1	0	R1298E
452.81	0.0	454400	RETRIEVAL_ORIENT_END	n/a	n/a	n/a	-999	1	[0, 0, 0]	n/a	FR1	0	R1298E
452.81	1.225	454400	REC_START	n/a	n/a	n/a	-999	1	[0, 0, 0]	n/a	FR1	0	R1298E
454.035	1.0	455625	REC_WORD	1.0	n/a	GEESE	1	1	[0, 0, 0]	n/a	FR1	0	R1298E
455.035	1.001	456625	REC_WORD_VV	1.001	n/a	<>	-999	1	[0, 0, 0]	n/a	FR1	0	R1298E
456.036	1.71	457626	REC_WORD	1.71	n/a	TOAD	4	1	[0, 0, 0]	n/a	FR1	0	R1298E
457.746	3.449	459336	REC_WORD	3.449	n/a	FROG	3	1	[0, 0, 0]	n/a	FR1	0	R1298E
461.195	1.0	462785	REC_WORD	1.0	n/a	SKY	8	1	[0, 0, 0]	n/a	FR1	0	R1298E
462.195	20.625	463785	REC_WORD_VV	20.625	n/a	<>	-999	1	[0, 0, 0]	n/a	FR1	0	R1298E
482.82	0.0	484409	REC_END	n/a	n/a	n/a	-999	1	[0, 0, 0]	n/a	FR1	0	R1298E
482.82	0.017	484409	TRIAL_END	n/a	n/a	n/a	-999	1	[0, 0, 0]	n/a	FR1	0	R1298E
482.837	0.001	484426	TRIAL_START	n/a	n/a	n/a	-999	2	[0, 0, 0]	n/a	FR1	0	R1298E
482.838	0.0	484427	WAITING_START	n/a	n/a	n/a	-999	2	[0, 0, 0]	n/a	FR1	0	R1298E
482.838	3.444	484427	TRIAL	n/a	n/a	n/a	-999	2	[0, 0, 0]	n/a	FR1	0	R1298E
486.282	0.0	487871	WAITING_END	n/a	n/a	n/a	-999	2	[0, 0, 0]	n/a	FR1	0	R1298E
486.282	10.429	487871	COUNTDOWN_START	n/a	n/a	n/a	-999	2	[0, 0, 0]	n/a	FR1	0	R1298E
496.711	0.001	498299	COUNTDOWN_END	n/a	n/a	n/a	-999	2	[0, 0, 0]	n/a	FR1	0	R1298E
496.712	1.206	498300	ORIENT_START	n/a	n/a	n/a	-999	2	[0, 0, 0]	n/a	FR1	0	R1298E
497.918	0.0	499506	ORIENT_END	n/a	n/a	n/a	-999	2	[0, 0, 0]	n/a	FR1	0	R1298E
497.918	1.081	499506	ENCODING_START	n/a	n/a	n/a	-999	2	[0, 0, 0]	n/a	FR1	0	R1298E
498.999	1.635	500587	WORD	n/a	n/a	HEART	1	2	[0, 0, 0]	n/a	FR1	0	R1298E
500.634	0.776	502222	WORD_OFF	n/a	n/a	HEART	1	2	[0, 0, 0]	n/a	FR1	0	R1298E
501.41	1.609	502998	WORD	n/a	n/a	JET	2	2	[0, 0, 0]	n/a	FR1	0	R1298E
503.019	1.049	504607	WORD_OFF	n/a	n/a	JET	2	2	[0, 0, 0]	n/a	FR1	0	R1298E
504.068	1.634	505656	WORD	n/a	n/a	MUG	3	2	[0, 0, 0]	n/a	FR1	0	R1298E
505.702	0.806	507290	WORD_OFF	n/a	n/a	MUG	3	2	[0, 0, 0]	n/a	FR1	0	R1298E
506.508	1.627	508096	WORD	n/a	n/a	BIRD	4	2	[0, 0, 0]	n/a	FR1	0	R1298E
508.135	0.816	509723	WORD_OFF	n/a	n/a	BIRD	4	2	[0, 0, 0]	n/a	FR1	0	R1298E
508.951	1.635	510539	WORD	n/a	n/a	BUSH	5	2	[0, 0, 0]	n/a	FR1	0	R1298E
510.586	0.87	512174	WORD_OFF	n/a	n/a	BUSH	5	2	[0, 0, 0]	n/a	FR1	0	R1298E
511.456	1.614	513044	WORD	n/a	n/a	HAT	6	2	[0, 0, 0]	n/a	FR1	0	R1298E
513.07	1.133	514658	WORD_OFF	n/a	n/a	HAT	6	2	[0, 0, 0]	n/a	FR1	0	R1298E
514.203	1.635	515791	WORD	n/a	n/a	POOL	7	2	[0, 0, 0]	n/a	FR1	0	R1298E
515.838	0.869	517426	WORD_OFF	n/a	n/a	POOL	7	2	[0, 0, 0]	n/a	FR1	0	R1298E
516.707	1.63	518295	WORD	n/a	n/a	DOLL	8	2	[0, 0, 0]	n/a	FR1	0	R1298E
518.337	0.811	519925	WORD_OFF	n/a	n/a	DOLL	8	2	[0, 0, 0]	n/a	FR1	0	R1298E
519.148	1.623	520736	WORD	n/a	n/a	SHEEP	9	2	[0, 0, 0]	n/a	FR1	0	R1298E
520.771	1.023	522359	WORD_OFF	n/a	n/a	SHEEP	9	2	[0, 0, 0]	n/a	FR1	0	R1298E
521.794	1.628	523382	WORD	n/a	n/a	FENCE	10	2	[0, 0, 0]	n/a	FR1	0	R1298E
523.422	1.105	525010	WORD_OFF	n/a	n/a	FENCE	10	2	[0, 0, 0]	n/a	FR1	0	R1298E
524.527	1.628	526115	WORD	n/a	n/a	WORLD	11	2	[0, 0, 0]	n/a	FR1	0	R1298E
526.155	0.934	527742	WORD_OFF	n/a	n/a	WORLD	11	2	[0, 0, 0]	n/a	FR1	0	R1298E
527.089	1.633	528676	WORD	n/a	n/a	STORE	12	2	[0, 0, 0]	n/a	FR1	0	R1298E
528.722	0.001	530309	WORD_OFF	n/a	n/a	STORE	12	2	[0, 0, 0]	n/a	FR1	0	R1298E
528.723	0.0	530310	ENCODING_END	n/a	n/a	n/a	-999	2	[0, 0, 0]	n/a	FR1	0	R1298E
528.723	0.0	530310	DISTRACT_START	n/a	n/a	n/a	-999	2	[0, 0, 0]	n/a	FR1	0	R1298E
528.723	0.016	530310	START	n/a	n/a	n/a	-999	2	[-999, -999, -999]	n/a	FR1	0	R1298E
528.739	8.985	530326	PROB	8.985	n/a	n/a	-999	2	[6, 7, 8]	21	FR1	0	R1298E
537.724	3.417	539311	PROB	3.417	n/a	n/a	-999	2	[6, 1, 2]	9	FR1	0	R1298E
541.141	5.268	542728	PROB	5.268	n/a	n/a	-999	2	[5, 3, 7]	15	FR1	0	R1298E
546.409	3.671	547996	PROB	3.671	n/a	n/a	-999	2	[1, 4, 7]	12	FR1	0	R1298E
550.08	0.013	551667	STOP	n/a	n/a	n/a	-999	2	[-999, -999, -999]	n/a	FR1	0	R1298E
550.093	0.541	551680	DISTRACT_END	n/a	n/a	n/a	-999	2	[0, 0, 0]	n/a	FR1	0	R1298E
550.634	1.609	552221	RETRIEVAL_ORIENT_START	n/a	n/a	n/a	-999	2	[0, 0, 0]	n/a	FR1	0	R1298E
552.243	0.001	553830	RETRIEVAL_ORIENT_END	n/a	n/a	n/a	-999	2	[0, 0, 0]	n/a	FR1	0	R1298E
552.244	1.314	553831	REC_START	n/a	n/a	n/a	-999	2	[0, 0, 0]	n/a	FR1	0	R1298E
553.558	0.976	555145	REC_WORD_VV	0.976	n/a	<>	-999	2	[0, 0, 0]	n/a	FR1	0	R1298E
554.534	1.364	556121	REC_WORD	1.364	n/a	ROAD	-999	2	[0, 0, 0]	n/a	FR1	0	R1298E
555.898	1.0	557484	REC_WORD	1.0	n/a	FLY	-999	2	[0, 0, 0]	n/a	FR1	0	R1298E
556.898	2.357	558484	REC_WORD_VV	2.357	n/a	<>	-999	2	[0, 0, 0]	n/a	FR1	0	R1298E
559.255	3.371	560841	REC_WORD	3.371	n/a	LOCK	-999	2	[0, 0, 0]	n/a	FR1	0	R1298E
562.626	1.0	564212	REC_WORD	1.0	n/a	HEART	1	2	[0, 0, 0]	n/a	FR1	0	R1298E
563.626	18.629	565212	REC_WORD_VV	18.629	n/a	<>	-999	2	[0, 0, 0]	n/a	FR1	0	R1298E
582.255	0.0	583841	REC_END	n/a	n/a	n/a	-999	2	[0, 0, 0]	n/a	FR1	0	R1298E
582.255	0.017	583841	TRIAL_END	n/a	n/a	n/a	-999	2	[0, 0, 0]	n/a	FR1	0	R1298E
582.272	0.0	583858	TRIAL	n/a	n/a	n/a	-999	3	[0, 0, 0]	n/a	FR1	0	R1298E
582.272	0.001	583858	TRIAL_START	n/a	n/a	n/a	-999	3	[0, 0, 0]	n/a	FR1	0	R1298E
582.273	2.56	583859	WAITING_START	n/a	n/a	n/a	-999	3	[0, 0, 0]	n/a	FR1	0	R1298E
584.833	0.001	586418	WAITING_END	n/a	n/a	n/a	-999	3	[0, 0, 0]	n/a	FR1	0	R1298E
584.834	10.429	586419	COUNTDOWN_START	n/a	n/a	n/a	-999	3	[0, 0, 0]	n/a	FR1	0	R1298E
595.263	0.0	596848	COUNTDOWN_END	n/a	n/a	n/a	-999	3	[0, 0, 0]	n/a	FR1	0	R1298E
595.263	1.205	596848	ORIENT_START	n/a	n/a	n/a	-999	3	[0, 0, 0]	n/a	FR1	0	R1298E
596.468	0.0	598053	ORIENT_END	n/a	n/a	n/a	-999	3	[0, 0, 0]	n/a	FR1	0	R1298E
596.468	1.089	598053	ENCODING_START	n/a	n/a	n/a	-999	3	[0, 0, 0]	n/a	FR1	0	R1298E
597.557	1.628	599142	WORD	n/a	n/a	MOOSE	1	3	[0, 0, 0]	n/a	FR1	0	R1298E
599.185	1.089	600770	WORD_OFF	n/a	n/a	MOOSE	1	3	[0, 0, 0]	n/a	FR1	0	R1298E
600.274	1.629	601859	WORD	n/a	n/a	CLOWN	2	3	[0, 0, 0]	n/a	FR1	0	R1298E
601.903	1.08	603488	WORD_OFF	n/a	n/a	CLOWN	2	3	[0, 0, 0]	n/a	FR1	0	R1298E
602.983	1.636	604568	WORD	n/a	n/a	FORK	3	3	[0, 0, 0]	n/a	FR1	0	R1298E
604.619	0.89	606204	WORD_OFF	n/a	n/a	FORK	3	3	[0, 0, 0]	n/a	FR1	0	R1298E
605.509	1.627	607094	WORD	n/a	n/a	STONE	4	3	[0, 0, 0]	n/a	FR1	0	R1298E
607.136	1.088	608721	WORD_OFF	n/a	n/a	STONE	4	3	[0, 0, 0]	n/a	FR1	0	R1298E
608.224	1.63	609809	WORD	n/a	n/a	SHEET	5	3	[0, 0, 0]	n/a	FR1	0	R1298E
609.854	1.029	611439	WORD_OFF	n/a	n/a	SHEET	5	3	[0, 0, 0]	n/a	FR1	0	R1298E
610.883	1.621	612468	WORD	n/a	n/a	BALL	6	3	[0, 0, 0]	n/a	FR1	0	R1298E
612.504	0.907	614089	WORD_OFF	n/a	n/a	BALL	6	3	[0, 0, 0]	n/a	FR1	0	R1298E
613.411	1.611	614995	WORD	n/a	n/a	STRAW	7	3	[0, 0, 0]	n/a	FR1	0	R1298E
615.022	0.925	616606	WORD_OFF	n/a	n/a	STRAW	7	3	[0, 0, 0]	n/a	FR1	0	R1298E
615.947	1.624	617531	WORD	n/a	n/a	SWAMP	8	3	[0, 0, 0]	n/a	FR1	0	R1298E
617.571	0.822	619155	WORD_OFF	n/a	n/a	SWAMP	8	3	[0, 0, 0]	n/a	FR1	0	R1298E
618.393	1.63	619977	WORD	n/a	n/a	MOUSE	9	3	[0, 0, 0]	n/a	FR1	0	R1298E
620.023	0.93	621607	WORD_OFF	n/a	n/a	MOUSE	9	3	[0, 0, 0]	n/a	FR1	0	R1298E
620.953	1.619	622537	WORD	n/a	n/a	STEAM	10	3	[0, 0, 0]	n/a	FR1	0	R1298E
622.572	0.902	624156	WORD_OFF	n/a	n/a	STEAM	10	3	[0, 0, 0]	n/a	FR1	0	R1298E
623.474	1.632	625058	WORD	n/a	n/a	PEAR	11	3	[0, 0, 0]	n/a	FR1	0	R1298E
625.106	1.033	626690	WORD_OFF	n/a	n/a	PEAR	11	3	[0, 0, 0]	n/a	FR1	0	R1298E
626.139	1.634	627723	WORD	n/a	n/a	BANK	12	3	[0, 0, 0]	n/a	FR1	0	R1298E
627.773	0.0	629357	WORD_OFF	n/a	n/a	BANK	12	3	[0, 0, 0]	n/a	FR1	0	R1298E
627.773	0.001	629357	ENCODING_END	n/a	n/a	n/a	-999	3	[0, 0, 0]	n/a	FR1	0	R1298E
627.774	0.0	629358	DISTRACT_START	n/a	n/a	n/a	-999	3	[0, 0, 0]	n/a	FR1	0	R1298E
627.774	0.017	629358	START	n/a	n/a	n/a	-999	3	[-999, -999, -999]	n/a	FR1	0	R1298E
627.791	11.101	629375	PROB	11.101	n/a	n/a	-999	3	[4, 6, 9]	19	FR1	0	R1298E
638.892	3.2	640476	PROB	3.2	n/a	n/a	-999	3	[3, 4, 4]	11	FR1	0	R1298E
642.092	4.051	643676	PROB	4.051	n/a	n/a	-999	3	[9, 6, 1]	16	FR1	0	R1298E
646.143	7.543	647726	PROB	7.543	n/a	n/a	-999	3	[7, 5, 9]	21	FR1	0	R1298E
653.686	0.008	655269	STOP	n/a	n/a	n/a	-999	3	[-999, -999, -999]	n/a	FR1	0	R1298E
653.694	0.537	655277	DISTRACT_END	n/a	n/a	n/a	-999	3	[0, 0, 0]	n/a	FR1	0	R1298E
654.231	1.665	655814	RETRIEVAL_ORIENT_START	n/a	n/a	n/a	-999	3	[0, 0, 0]	n/a	FR1	0	R1298E
655.896	0.0	657479	REC_START	n/a	n/a	n/a	-999	3	[0, 0, 0]	n/a	FR1	0	R1298E
655.896	3.294	657479	RETRIEVAL_ORIENT_END	n/a	n/a	n/a	-999	3	[0, 0, 0]	n/a	FR1	0	R1298E
659.19	26.717	660773	REC_WORD	26.717	n/a	BALL	6	3	[0, 0, 0]	n/a	FR1	0	R1298E
685.907	0.0	687489	REC_END	n/a	n/a	n/a	-999	3	[0, 0, 0]	n/a	FR1	0	R1298E
685.907	0.017	687489	TRIAL_END	n/a	n/a	n/a	-999	3	[0, 0, 0]	n/a	FR1	0	R1298E
685.924	0.0	687506	TRIAL_START	n/a	n/a	n/a	-999	4	[0, 0, 0]	n/a	FR1	0	R1298E
685.924	0.0	687506	TRIAL	n/a	n/a	n/a	-999	4	[0, 0, 0]	n/a	FR1	0	R1298E
685.924	21.763	687506	WAITING_START	n/a	n/a	n/a	-999	4	[0, 0, 0]	n/a	FR1	0	R1298E
707.687	0.0	709268	COUNTDOWN_START	n/a	n/a	n/a	-999	4	[0, 0, 0]	n/a	FR1	0	R1298E
707.687	10.429	709268	WAITING_END	n/a	n/a	n/a	-999	4	[0, 0, 0]	n/a	FR1	0	R1298E
718.116	0.001	719697	COUNTDOWN_END	n/a	n/a	n/a	-999	4	[0, 0, 0]	n/a	FR1	0	R1298E
718.117	1.255	719698	ORIENT_START	n/a	n/a	n/a	-999	4	[0, 0, 0]	n/a	FR1	0	R1298E
719.372	0.001	720953	ORIENT_END	n/a	n/a	n/a	-999	4	[0, 0, 0]	n/a	FR1	0	R1298E
719.373	1.012	720954	ENCODING_START	n/a	n/a	n/a	-999	4	[0, 0, 0]	n/a	FR1	0	R1298E
720.385	1.639	721966	WORD	n/a	n/a	BAND	1	4	[0, 0, 0]	n/a	FR1	0	R1298E
722.024	1.025	723605	WORD_OFF	n/a	n/a	BAND	1	4	[0, 0, 0]	n/a	FR1	0	R1298E
723.049	1.624	724630	WORD	n/a	n/a	PLANE	2	4	[0, 0, 0]	n/a	FR1	0	R1298E
724.673	0.823	726254	WORD_OFF	n/a	n/a	PLANE	2	4	[0, 0, 0]	n/a	FR1	0	R1298E
725.496	1.628	727077	WORD	n/a	n/a	BEACH	3	4	[0, 0, 0]	n/a	FR1	0	R1298E
727.124	0.758	728705	WORD_OFF	n/a	n/a	BEACH	3	4	[0, 0, 0]	n/a	FR1	0	R1298E
727.882	1.626	729463	WORD	n/a	n/a	CUP	4	4	[0, 0, 0]	n/a	FR1	0	R1298E
729.508	0.923	731089	WORD_OFF	n/a	n/a	CUP	4	4	[0, 0, 0]	n/a	FR1	0	R1298E
730.431	1.628	732011	WORD	n/a	n/a	BOWL	5	4	[0, 0, 0]	n/a	FR1	0	R1298E
732.059	0.842	733639	WORD_OFF	n/a	n/a	BOWL	5	4	[0, 0, 0]	n/a	FR1	0	R1298E
732.901	1.624	734481	WORD	n/a	n/a	CHEEK	6	4	[0, 0, 0]	n/a	FR1	0	R1298E
734.525	0.769	736105	WORD_OFF	n/a	n/a	CHEEK	6	4	[0, 0, 0]	n/a	FR1	0	R1298E
735.294	1.616	736874	WORD	n/a	n/a	PHONE	7	4	[0, 0, 0]	n/a	FR1	0	R1298E
736.91	0.924	738490	WORD_OFF	n/a	n/a	PHONE	7	4	[0, 0, 0]	n/a	FR1	0	R1298E
737.834	1.625	739414	WORD	n/a	n/a	RICE	8	4	[0, 0, 0]	n/a	FR1	0	R1298E
739.459	0.964	741039	WORD_OFF	n/a	n/a	RICE	8	4	[0, 0, 0]	n/a	FR1	0	R1298E
740.423	1.621	742003	WORD	n/a	n/a	PEA	9	4	[0, 0, 0]	n/a	FR1	0	R1298E
742.044	0.897	743624	WORD_OFF	n/a	n/a	PEA	9	4	[0, 0, 0]	n/a	FR1	0	R1298E
742.941	1.619	744521	WORD	n/a	n/a	RAIN	10	4	[0, 0, 0]	n/a	FR1	0	R1298E
744.56	1.061	746140	WORD_OFF	n/a	n/a	RAIN	10	4	[0, 0, 0]	n/a	FR1	0	R1298E
745.621	1.623	747201	WORD	n/a	n/a	PEACH	11	4	[0, 0, 0]	n/a	FR1	0	R1298E
747.244	0.834	748824	WORD_OFF	n/a	n/a	PEACH	11	4	[0, 0, 0]	n/a	FR1	0	R1298E
748.078	1.633	749658	WORD	n/a	n/a	ROPE	12	4	[0, 0, 0]	n/a	FR1	0	R1298E
749.711	0.001	751291	WORD_OFF	n/a	n/a	ROPE	12	4	[0, 0, 0]	n/a	FR1	0	R1298E
749.712	0.0	751292	DISTRACT_START	n/a	n/a	n/a	-999	4	[0, 0, 0]	n/a	FR1	0	R1298E
749.712	0.0	751292	ENCODING_END	n/a	n/a	n/a	-999	4	[0, 0, 0]	n/a	FR1	0	R1298E
749.712	0.016	751292	START	n/a	n/a	n/a	-999	4	[-999, -999, -999]	n/a	FR1	0	R1298E
749.728	6.884	751308	PROB	6.884	n/a	n/a	-999	4	[8, 3, 3]	14	FR1	0	R1298E
756.612	3.385	758192	PROB	3.385	n/a	n/a	-999	4	[2, 3, 5]	10	FR1	0	R1298E
759.997	5.533	761576	PROB	5.533	n/a	n/a	-999	4	[4, 9, 5]	18	FR1	0	R1298E
765.53	3.234	767109	PROB	3.234	n/a	n/a	-999	4	[2, 5, 2]	9	FR1	0	R1298E
768.764	4.831	770343	PROB	4.831	n/a	n/a	-999	4	[7, 3, 1]	11	FR1	0	R1298E
773.595	0.02	775174	STOP	n/a	n/a	n/a	-999	4	[-999, -999, -999]	n/a	FR1	0	R1298E
773.615	0.602	775194	DISTRACT_END	n/a	n/a	n/a	-999	4	[0, 0, 0]	n/a	FR1	0	R1298E
774.217	1.65	775796	RETRIEVAL_ORIENT_START	n/a	n/a	n/a	-999	4	[0, 0, 0]	n/a	FR1	0	R1298E
775.867	0.0	777446	RETRIEVAL_ORIENT_END	n/a	n/a	n/a	-999	4	[0, 0, 0]	n/a	FR1	0	R1298E
775.867	2.575	777446	REC_START	n/a	n/a	n/a	-999	4	[0, 0, 0]	n/a	FR1	0	R1298E
778.442	1.0	780021	REC_WORD	1.0	n/a	BEACH	3	4	[0, 0, 0]	n/a	FR1	0	R1298E
779.442	1.486	781021	REC_WORD_VV	1.486	n/a	<>	-999	4	[0, 0, 0]	n/a	FR1	0	R1298E
780.928	2.913	782507	REC_WORD	2.913	n/a	CUP	4	4	[0, 0, 0]	n/a	FR1	0	R1298E
783.841	4.189	785420	REC_WORD	4.189	n/a	BOWL	5	4	[0, 0, 0]	n/a	FR1	0	R1298E
788.03	3.403	789609	REC_WORD	3.403	n/a	FORK	-999	4	[0, 0, 0]	n/a	FR1	0	R1298E
791.433	8.082	793011	REC_WORD	8.082	n/a	PEACH	11	4	[0, 0, 0]	n/a	FR1	0	R1298E
799.515	6.362	801093	REC_WORD	6.362	n/a	RAIN	10	4	[0, 0, 0]	n/a	FR1	0	R1298E
805.877	0.0	807455	REC_END	n/a	n/a	n/a	-999	4	[0, 0, 0]	n/a	FR1	0	R1298E
805.877	0.021	807455	TRIAL_END	n/a	n/a	n/a	-999	4	[0, 0, 0]	n/a	FR1	0	R1298E
805.898	0.0	807476	TRIAL_START	n/a	n/a	n/a	-999	5	[0, 0, 0]	n/a	FR1	0	R1298E
805.898	0.0	807476	TRIAL	n/a	n/a	n/a	-999	5	[0, 0, 0]	n/a	FR1	0	R1298E
805.898	2.39	807476	WAITING_START	n/a	n/a	n/a	-999	5	[0, 0, 0]	n/a	FR1	0	R1298E
808.288	0.0	809866	COUNTDOWN_START	n/a	n/a	n/a	-999	5	[0, 0, 0]	n/a	FR1	0	R1298E
808.288	10.43	809866	WAITING_END	n/a	n/a	n/a	-999	5	[0, 0, 0]	n/a	FR1	0	R1298E
818.718	0.0	820295	COUNTDOWN_END	n/a	n/a	n/a	-999	5	[0, 0, 0]	n/a	FR1	0	R1298E
818.718	1.24	820295	ORIENT_START	n/a	n/a	n/a	-999	5	[0, 0, 0]	n/a	FR1	0	R1298E
819.958	0.0	821535	ORIENT_END	n/a	n/a	n/a	-999	5	[0, 0, 0]	n/a	FR1	0	R1298E
819.958	1.025	821535	ENCODING_START	n/a	n/a	n/a	-999	5	[0, 0, 0]	n/a	FR1	0	R1298E
820.983	1.624	822560	WORD	n/a	n/a	CROW	1	5	[0, 0, 0]	n/a	FR1	0	R1298E
822.607	0.76	824184	WORD_OFF	n/a	n/a	CROW	1	5	[0, 0, 0]	n/a	FR1	0	R1298E
823.367	1.625	824944	WORD	n/a	n/a	HORN	2	5	[0, 0, 0]	n/a	FR1	0	R1298E
824.992	1.13	826569	WORD_OFF	n/a	n/a	HORN	2	5	[0, 0, 0]	n/a	FR1	0	R1298E
826.122	1.636	827699	WORD	n/a	n/a	JEEP	3	5	[0, 0, 0]	n/a	FR1	0	R1298E
827.758	0.834	829335	WORD_OFF	n/a	n/a	JEEP	3	5	[0, 0, 0]	n/a	FR1	0	R1298E
828.592	1.633	830169	WORD	n/a	n/a	JUDGE	4	5	[0, 0, 0]	n/a	FR1	0	R1298E
830.225	0.798	831802	WORD_OFF	n/a	n/a	JUDGE	4	5	[0, 0, 0]	n/a	FR1	0	R1298E
831.023	1.636	832600	WORD	n/a	n/a	SEAL	5	5	[0, 0, 0]	n/a	FR1	0	R1298E
832.659	0.921	834236	WORD_OFF	n/a	n/a	SEAL	5	5	[0, 0, 0]	n/a	FR1	0	R1298E
833.58	1.629	835157	WORD	n/a	n/a	MILK	6	5	[0, 0, 0]	n/a	FR1	0	R1298E
835.209	1.13	836786	WORD_OFF	n/a	n/a	MILK	6	5	[0, 0, 0]	n/a	FR1	0	R1298E
836.339	1.622	837916	WORD	n/a	n/a	SPONGE	7	5	[0, 0, 0]	n/a	FR1	0	R1298E
837.961	0.81	839538	WORD_OFF	n/a	n/a	SPONGE	7	5	[0, 0, 0]	n/a	FR1	0	R1298E
838.771	1.623	840348	WORD	n/a	n/a	BAG	8	5	[0, 0, 0]	n/a	FR1	0	R1298E
840.394	0.793	841971	WORD_OFF	n/a	n/a	BAG	8	5	[0, 0, 0]	n/a	FR1	0	R1298E
841.187	1.625	842764	WORD	n/a	n/a	KEY	9	5	[0, 0, 0]	n/a	FR1	0	R1298E
842.812	0.815	844389	WORD_OFF	n/a	n/a	KEY	9	5	[0, 0, 0]	n/a	FR1	0	R1298E
843.627	1.634	845204	WORD	n/a	n/a	BOX	10	5	[0, 0, 0]	n/a	FR1	0	R1298E
845.261	0.794	846838	WORD_OFF	n/a	n/a	BOX	10	5	[0, 0, 0]	n/a	FR1	0	R1298E
846.055	1.623	847632	WORD	n/a	n/a	STOOL	11	5	[0, 0, 0]	n/a	FR1	0	R1298E
847.678	0.793	849254	WORD_OFF	n/a	n/a	STOOL	11	5	[0, 0, 0]	n/a	FR1	0	R1298E
848.471	1.624	850047	WORD	n/a	n/a	GUARD	12	5	[0, 0, 0]	n/a	FR1	0	R1298E
850.095	0.001	851671	WORD_OFF	n/a	n/a	GUARD	12	5	[0, 0, 0]	n/a	FR1	0	R1298E
850.096	0.0	851672	ENCODING_END	n/a	n/a	n/a	-999	5	[0, 0, 0]	n/a	FR1	0	R1298E
850.096	0.0	851672	DISTRACT_START	n/a	n/a	n/a	-999	5	[0, 0, 0]	n/a	FR1	0	R1298E
850.096	0.016	851672	START	n/a	n/a	n/a	-999	5	[-999, -999, -999]	n/a	FR1	0	R1298E
850.112	4.601	851688	PROB	4.601	n/a	n/a	-999	5	[2, 3, 5]	10	FR1	0	R1298E
854.713	3.318	856289	PROB	3.318	n/a	n/a	-999	5	[3, 8, 8]	19	FR1	0	R1298E
858.031	6.834	859607	PROB	6.834	n/a	n/a	-999	5	[3, 4, 8]	15	FR1	0	R1298E
864.865	2.984	866441	PROB	2.984	n/a	n/a	-999	5	[2, 7, 7]	16	FR1	0	R1298E
867.849	5.763	869425	PROB	5.763	n/a	n/a	-999	5	[2, 5, 4]	11	FR1	0	R1298E
873.612	0.021	875188	STOP	n/a	n/a	n/a	-999	5	[-999, -999, -999]	n/a	FR1	0	R1298E
873.633	0.567	875209	DISTRACT_END	n/a	n/a	n/a	-999	5	[0, 0, 0]	n/a	FR1	0	R1298E
874.2	1.55	875776	RETRIEVAL_ORIENT_START	n/a	n/a	n/a	-999	5	[0, 0, 0]	n/a	FR1	0	R1298E
875.75	0.0	877325	RETRIEVAL_ORIENT_END	n/a	n/a	n/a	-999	5	[0, 0, 0]	n/a	FR1	0	R1298E
875.75	2.209	877325	REC_START	n/a	n/a	n/a	-999	5	[0, 0, 0]	n/a	FR1	0	R1298E
877.959	2.27	879534	REC_WORD	2.27	n/a	KEY	9	5	[0, 0, 0]	n/a	FR1	0	R1298E
880.229	2.738	881804	REC_WORD	2.738	n/a	STOOL	11	5	[0, 0, 0]	n/a	FR1	0	R1298E
882.967	1.0	884542	REC_WORD	1.0	n/a	SPONGE	7	5	[0, 0, 0]	n/a	FR1	0	R1298E
883.967	5.552	885542	REC_WORD_VV	5.552	n/a	<>	-999	5	[0, 0, 0]	n/a	FR1	0	R1298E
889.519	16.24	891094	REC_WORD	16.24	n/a	BAG	8	5	[0, 0, 0]	n/a	FR1	0	R1298E
905.759	0.001	907333	REC_END	n/a	n/a	n/a	-999	5	[0, 0, 0]	n/a	FR1	0	R1298E
905.76	0.017	907334	TRIAL_END	n/a	n/a	n/a	-999	5	[0, 0, 0]	n/a	FR1	0	R1298E
905.777	0.001	907351	TRIAL_START	n/a	n/a	n/a	-999	6	[0, 0, 0]	n/a	FR1	0	R1298E
905.778	0.0	907352	TRIAL	n/a	n/a	n/a	-999	6	[0, 0, 0]	n/a	FR1	0	R1298E
905.778	114.397	907352	WAITING_START	n/a	n/a	n/a	-999	6	[0, 0, 0]	n/a	FR1	0	R1298E
1020.175	0.001	1021746	WAITING_END	n/a	n/a	n/a	-999	6	[0, 0, 0]	n/a	FR1	0	R1298E
1020.176	10.429	1021747	COUNTDOWN_START	n/a	n/a	n/a	-999	6	[0, 0, 0]	n/a	FR1	0	R1298E
1030.605	0.001	1032175	COUNTDOWN_END	n/a	n/a	n/a	-999	6	[0, 0, 0]	n/a	FR1	0	R1298E
1030.606	1.054	1032176	ORIENT_START	n/a	n/a	n/a	-999	6	[0, 0, 0]	n/a	FR1	0	R1298E
1031.66	0.0	1033230	ORIENT_END	n/a	n/a	n/a	-999	6	[0, 0, 0]	n/a	FR1	0	R1298E
1031.66	1.116	1033230	ENCODING_START	n/a	n/a	n/a	-999	6	[0, 0, 0]	n/a	FR1	0	R1298E
1032.776	1.635	1034346	WORD	n/a	n/a	SALT	1	6	[0, 0, 0]	n/a	FR1	0	R1298E
1034.411	1.081	1035981	WORD_OFF	n/a	n/a	SALT	1	6	[0, 0, 0]	n/a	FR1	0	R1298E
1035.492	1.636	1037062	WORD	n/a	n/a	DITCH	2	6	[0, 0, 0]	n/a	FR1	0	R1298E
1037.128	0.97	1038698	WORD_OFF	n/a	n/a	DITCH	2	6	[0, 0, 0]	n/a	FR1	0	R1298E
1038.098	1.631	1039668	WORD	n/a	n/a	FOX	3	6	[0, 0, 0]	n/a	FR1	0	R1298E
1039.729	0.947	1041299	WORD_OFF	n/a	n/a	FOX	3	6	[0, 0, 0]	n/a	FR1	0	R1298E
1040.676	1.636	1042246	WORD	n/a	n/a	SHOE	4	6	[0, 0, 0]	n/a	FR1	0	R1298E
1042.312	0.966	1043882	WORD_OFF	n/a	n/a	SHOE	4	6	[0, 0, 0]	n/a	FR1	0	R1298E
1043.278	1.636	1044848	WORD	n/a	n/a	CAPE	5	6	[0, 0, 0]	n/a	FR1	0	R1298E
1044.914	1.001	1046484	WORD_OFF	n/a	n/a	CAPE	5	6	[0, 0, 0]	n/a	FR1	0	R1298E
1045.915	1.632	1047485	WORD	n/a	n/a	CORN	6	6	[0, 0, 0]	n/a	FR1	0	R1298E
1047.547	0.962	1049117	WORD_OFF	n/a	n/a	CORN	6	6	[0, 0, 0]	n/a	FR1	0	R1298E
1048.509	1.621	1050079	WORD	n/a	n/a	FLAG	7	6	[0, 0, 0]	n/a	FR1	0	R1298E
1050.13	1.136	1051700	WORD_OFF	n/a	n/a	FLAG	7	6	[0, 0, 0]	n/a	FR1	0	R1298E
1051.266	1.633	1052835	WORD	n/a	n/a	FUDGE	8	6	[0, 0, 0]	n/a	FR1	0	R1298E
1052.899	0.793	1054468	WORD_OFF	n/a	n/a	FUDGE	8	6	[0, 0, 0]	n/a	FR1	0	R1298E
1053.692	1.623	1055261	WORD	n/a	n/a	CONE	9	6	[0, 0, 0]	n/a	FR1	0	R1298E
1055.315	0.802	1056884	WORD_OFF	n/a	n/a	CONE	9	6	[0, 0, 0]	n/a	FR1	0	R1298E
1056.117	1.631	1057686	WORD	n/a	n/a	TIE	10	6	[0, 0, 0]	n/a	FR1	0	R1298E
1057.748	0.911	1059317	WORD_OFF	n/a	n/a	TIE	10	6	[0, 0, 0]	n/a	FR1	0	R1298E
1058.659	1.623	1060228	WORD	n/a	n/a	BARN	11	6	[0, 0, 0]	n/a	FR1	0	R1298E
1060.282	1.046	1061851	WORD_OFF	n/a	n/a	BARN	11	6	[0, 0, 0]	n/a	FR1	0	R1298E
1061.328	1.622	1062897	WORD	n/a	n/a	ARM	12	6	[0, 0, 0]	n/a	FR1	0	R1298E
1062.95	0.001	1064519	WORD_OFF	n/a	n/a	ARM	12	6	[0, 0, 0]	n/a	FR1	0	R1298E
1062.951	0.0	1064520	ENCODING_END	n/a	n/a	n/a	-999	6	[0, 0, 0]	n/a	FR1	0	R1298E
1062.951	0.0	1064520	DISTRACT_START	n/a	n/a	n/a	-999	6	[0, 0, 0]	n/a	FR1	0	R1298E
1062.951	0.016	1064520	START	n/a	n/a	n/a	-999	6	[-999, -999, -999]	n/a	FR1	0	R1298E
1062.967	7.783	1064536	PROB	7.783	n/a	n/a	-999	6	[5, 7, 6]	18	FR1	0	R1298E
1070.75	4.052	1072319	PROB	4.052	n/a	n/a	-999	6	[4, 3, 7]	14	FR1	0	R1298E
1074.802	6.684	1076371	PROB	6.684	n/a	n/a	-999	6	[8, 1, 6]	15	FR1	0	R1298E
1081.486	6.281	1083054	PROB	6.281	n/a	n/a	-999	6	[8, 6, 3]	17	FR1	0	R1298E
1087.767	0.021	1089335	STOP	n/a	n/a	n/a	-999	6	[-999, -999, -999]	n/a	FR1	0	R1298E
1087.788	0.574	1089356	DISTRACT_END	n/a	n/a	n/a	-999	6	[0, 0, 0]	n/a	FR1	0	R1298E
1088.362	1.71	1089930	RETRIEVAL_ORIENT_START	n/a	n/a	n/a	-999	6	[0, 0, 0]	n/a	FR1	0	R1298E
1090.072	0.0	1091640	RETRIEVAL_ORIENT_END	n/a	n/a	n/a	-999	6	[0, 0, 0]	n/a	FR1	0	R1298E
1090.072	2.19	1091640	REC_START	n/a	n/a	n/a	-999	6	[0, 0, 0]	n/a	FR1	0	R1298E
1092.262	2.665	1093830	REC_WORD	2.665	n/a	SHOE	4	6	[0, 0, 0]	n/a	FR1	0	R1298E
1094.927	5.874	1096495	REC_WORD	5.874	n/a	BARN	11	6	[0, 0, 0]	n/a	FR1	0	R1298E
1100.801	9.046	1102369	REC_WORD	9.046	n/a	KEY	-999	6	[0, 0, 0]	n/a	FR1	0	R1298E
1109.847	10.233	1111414	REC_WORD	10.233	n/a	FOX	3	6	[0, 0, 0]	n/a	FR1	0	R1298E
1120.08	0.0	1121647	REC_END	n/a	n/a	n/a	-999	6	[0, 0, 0]	n/a	FR1	0	R1298E
1120.08	0.017	1121647	TRIAL_END	n/a	n/a	n/a	-999	6	[0, 0, 0]	n/a	FR1	0	R1298E
1120.097	0.0	1121664	TRIAL_START	n/a	n/a	n/a	-999	7	[0, 0, 0]	n/a	FR1	0	R1298E
1120.097	0.001	1121664	TRIAL	n/a	n/a	n/a	-999	7	[0, 0, 0]	n/a	FR1	0	R1298E
1120.098	4.146	1121665	WAITING_START	n/a	n/a	n/a	-999	7	[0, 0, 0]	n/a	FR1	0	R1298E
1124.244	0.0	1125811	WAITING_END	n/a	n/a	n/a	-999	7	[0, 0, 0]	n/a	FR1	0	R1298E
1124.244	10.429	1125811	COUNTDOWN_START	n/a	n/a	n/a	-999	7	[0, 0, 0]	n/a	FR1	0	R1298E
1134.673	0.0	1136240	ORIENT_START	n/a	n/a	n/a	-999	7	[0, 0, 0]	n/a	FR1	0	R1298E
1134.673	1.056	1136240	COUNTDOWN_END	n/a	n/a	n/a	-999	7	[0, 0, 0]	n/a	FR1	0	R1298E
1135.729	0.0	1137296	ORIENT_END	n/a	n/a	n/a	-999	7	[0, 0, 0]	n/a	FR1	0	R1298E
1135.729	0.791	1137296	ENCODING_START	n/a	n/a	n/a	-999	7	[0, 0, 0]	n/a	FR1	0	R1298E
1136.52	1.626	1138087	WORD	n/a	n/a	HOUSE	1	7	[0, 0, 0]	n/a	FR1	0	R1298E
1138.146	0.759	1139713	WORD_OFF	n/a	n/a	HOUSE	1	7	[0, 0, 0]	n/a	FR1	0	R1298E
1138.905	1.625	1140471	WORD	n/a	n/a	ROOF	2	7	[0, 0, 0]	n/a	FR1	0	R1298E
1140.53	0.879	1142096	WORD_OFF	n/a	n/a	ROOF	2	7	[0, 0, 0]	n/a	FR1	0	R1298E
1141.409	1.622	1142975	WORD	n/a	n/a	CAKE	3	7	[0, 0, 0]	n/a	FR1	0	R1298E
1143.031	0.825	1144597	WORD_OFF	n/a	n/a	CAKE	3	7	[0, 0, 0]	n/a	FR1	0	R1298E
1143.856	1.625	1145422	WORD	n/a	n/a	HOOF	4	7	[0, 0, 0]	n/a	FR1	0	R1298E
1145.481	0.939	1147047	WORD_OFF	n/a	n/a	HOOF	4	7	[0, 0, 0]	n/a	FR1	0	R1298E
1146.42	1.629	1147986	WORD	n/a	n/a	DOG	5	7	[0, 0, 0]	n/a	FR1	0	R1298E
1148.049	1.094	1149615	WORD_OFF	n/a	n/a	DOG	5	7	[0, 0, 0]	n/a	FR1	0	R1298E
1149.143	1.622	1150709	WORD	n/a	n/a	BOAT	6	7	[0, 0, 0]	n/a	FR1	0	R1298E
1150.765	0.872	1152331	WORD_OFF	n/a	n/a	BOAT	6	7	[0, 0, 0]	n/a	FR1	0	R1298E
1151.637	1.628	1153203	WORD	n/a	n/a	MUD	7	7	[0, 0, 0]	n/a	FR1	0	R1298E
1153.265	1.097	1154831	WORD_OFF	n/a	n/a	MUD	7	7	[0, 0, 0]	n/a	FR1	0	R1298E
1154.362	1.638	1155928	WORD	n/a	n/a	SHIRT	8	7	[0, 0, 0]	n/a	FR1	0	R1298E
1156.0	1.134	1157566	WORD_OFF	n/a	n/a	SHIRT	8	7	[0, 0, 0]	n/a	FR1	0	R1298E
1157.134	1.632	1158700	WORD	n/a	n/a	WORM	9	7	[0, 0, 0]	n/a	FR1	0	R1298E
1158.766	0.884	1160332	WORD_OFF	n/a	n/a	WORM	9	7	[0, 0, 0]	n/a	FR1	0	R1298E
1159.65	1.633	1161216	WORD	n/a	n/a	LAND	10	7	[0, 0, 0]	n/a	FR1	0	R1298E
1161.283	0.935	1162849	WORD_OFF	n/a	n/a	LAND	10	7	[0, 0, 0]	n/a	FR1	0	R1298E
1162.218	1.617	1163784	WORD	n/a	n/a	CHIEF	11	7	[0, 0, 0]	n/a	FR1	0	R1298E
1163.835	0.966	1165401	WORD_OFF	n/a	n/a	CHIEF	11	7	[0, 0, 0]	n/a	FR1	0	R1298E
1164.801	1.633	1166367	WORD	n/a	n/a	COUCH	12	7	[0, 0, 0]	n/a	FR1	0	R1298E
1166.434	0.001	1168000	WORD_OFF	n/a	n/a	COUCH	12	7	[0, 0, 0]	n/a	FR1	0	R1298E
1166.435	0.0	1168001	DISTRACT_START	n/a	n/a	n/a	-999	7	[0, 0, 0]	n/a	FR1	0	R1298E
1166.435	0.0	1168001	ENCODING_END	n/a	n/a	n/a	-999	7	[0, 0, 0]	n/a	FR1	0	R1298E
1166.435	0.016	1168001	START	n/a	n/a	n/a	-999	7	[-999, -999, -999]	n/a	FR1	0	R1298E
1166.451	9.552	1168017	PROB	9.552	n/a	n/a	-999	7	[7, 5, 4]	16	FR1	0	R1298E
1176.003	3.233	1177568	PROB	3.233	n/a	n/a	-999	7	[5, 3, 2]	10	FR1	0	R1298E
1179.236	6.001	1180801	PROB	6.001	n/a	n/a	-999	7	[8, 9, 3]	20	FR1	0	R1298E
1185.237	8.994	1186802	PROB	8.994	n/a	n/a	-999	7	[6, 5, 7]	18	FR1	0	R1298E
1194.231	0.008	1195796	STOP	n/a	n/a	n/a	-999	7	[-999, -999, -999]	n/a	FR1	0	R1298E
1194.239	0.577	1195804	DISTRACT_END	n/a	n/a	n/a	-999	7	[0, 0, 0]	n/a	FR1	0	R1298E
1194.816	1.54	1196381	RETRIEVAL_ORIENT_START	n/a	n/a	n/a	-999	7	[0, 0, 0]	n/a	FR1	0	R1298E
1196.356	0.0	1197921	RETRIEVAL_ORIENT_END	n/a	n/a	n/a	-999	7	[0, 0, 0]	n/a	FR1	0	R1298E
1196.356	2.89	1197921	REC_START	n/a	n/a	n/a	-999	7	[0, 0, 0]	n/a	FR1	0	R1298E
1199.246	2.576	1200810	REC_WORD	2.576	n/a	MUD	7	7	[0, 0, 0]	n/a	FR1	0	R1298E
1201.822	3.257	1203386	REC_WORD	3.257	n/a	HOUSE	1	7	[0, 0, 0]	n/a	FR1	0	R1298E
1205.079	4.992	1206643	REC_WORD	4.992	n/a	ROOF	2	7	[0, 0, 0]	n/a	FR1	0	R1298E
1210.071	2.086	1211635	REC_WORD_VV	2.086	n/a	<>	-999	7	[0, 0, 0]	n/a	FR1	0	R1298E
1212.157	4.554	1213721	REC_WORD	4.554	n/a	CAKE	3	7	[0, 0, 0]	n/a	FR1	0	R1298E
1216.711	6.785	1218275	REC_WORD	6.785	n/a	DOG	5	7	[0, 0, 0]	n/a	FR1	0	R1298E
1223.496	0.974	1225060	REC_WORD	0.974	n/a	COUCH	12	7	[0, 0, 0]	n/a	FR1	0	R1298E
1224.47	1.896	1226034	REC_WORD_VV	1.896	n/a	<>	-999	7	[0, 0, 0]	n/a	FR1	0	R1298E
1226.366	0.001	1227929	REC_END	n/a	n/a	n/a	-999	7	[0, 0, 0]	n/a	FR1	0	R1298E
1226.367	0.017	1227930	TRIAL_END	n/a	n/a	n/a	-999	7	[0, 0, 0]	n/a	FR1	0	R1298E
1226.384	0.0	1227947	TRIAL	n/a	n/a	n/a	-999	8	[0, 0, 0]	n/a	FR1	0	R1298E
1226.384	0.0	1227947	WAITING_START	n/a	n/a	n/a	-999	8	[0, 0, 0]	n/a	FR1	0	R1298E
1226.384	11.879	1227947	TRIAL_START	n/a	n/a	n/a	-999	8	[0, 0, 0]	n/a	FR1	0	R1298E
1238.263	0.001	1239826	WAITING_END	n/a	n/a	n/a	-999	8	[0, 0, 0]	n/a	FR1	0	R1298E
1238.264	10.429	1239827	COUNTDOWN_START	n/a	n/a	n/a	-999	8	[0, 0, 0]	n/a	FR1	0	R1298E
1248.693	0.001	1250256	COUNTDOWN_END	n/a	n/a	n/a	-999	8	[0, 0, 0]	n/a	FR1	0	R1298E
1248.694	1.222	1250257	ORIENT_START	n/a	n/a	n/a	-999	8	[0, 0, 0]	n/a	FR1	0	R1298E
1249.916	0.001	1251479	ORIENT_END	n/a	n/a	n/a	-999	8	[0, 0, 0]	n/a	FR1	0	R1298E
1249.917	1.086	1251480	ENCODING_START	n/a	n/a	n/a	-999	8	[0, 0, 0]	n/a	FR1	0	R1298E
1251.003	1.63	1252566	WORD	n/a	n/a	BRUSH	1	8	[0, 0, 0]	n/a	FR1	0	R1298E
1252.633	0.974	1254196	WORD_OFF	n/a	n/a	BRUSH	1	8	[0, 0, 0]	n/a	FR1	0	R1298E
1253.607	1.626	1255170	WORD	n/a	n/a	PLANT	2	8	[0, 0, 0]	n/a	FR1	0	R1298E
1255.233	0.973	1256795	WORD_OFF	n/a	n/a	PLANT	2	8	[0, 0, 0]	n/a	FR1	0	R1298E
1256.206	1.629	1257768	WORD	n/a	n/a	ZOO	3	8	[0, 0, 0]	n/a	FR1	0	R1298E
1257.835	0.934	1259397	WORD_OFF	n/a	n/a	ZOO	3	8	[0, 0, 0]	n/a	FR1	0	R1298E
1258.769	1.632	1260331	WORD	n/a	n/a	KITE	4	8	[0, 0, 0]	n/a	FR1	0	R1298E
1260.401	0.88	1261963	WORD_OFF	n/a	n/a	KITE	4	8	[0, 0, 0]	n/a	FR1	0	R1298E
1261.281	1.638	1262843	WORD	n/a	n/a	GLASS	5	8	[0, 0, 0]	n/a	FR1	0	R1298E
1262.919	0.967	1264481	WORD_OFF	n/a	n/a	GLASS	5	8	[0, 0, 0]	n/a	FR1	0	R1298E
1263.886	1.632	1265448	WORD	n/a	n/a	CORD	6	8	[0, 0, 0]	n/a	FR1	0	R1298E
1265.518	0.938	1267080	WORD_OFF	n/a	n/a	CORD	6	8	[0, 0, 0]	n/a	FR1	0	R1298E
1266.456	1.629	1268018	WORD	n/a	n/a	INK	7	8	[0, 0, 0]	n/a	FR1	0	R1298E
1268.085	0.832	1269647	WORD_OFF	n/a	n/a	INK	7	8	[0, 0, 0]	n/a	FR1	0	R1298E
1268.917	1.635	1270479	WORD	n/a	n/a	PANTS	8	8	[0, 0, 0]	n/a	FR1	0	R1298E
1270.552	0.964	1272114	WORD_OFF	n/a	n/a	PANTS	8	8	[0, 0, 0]	n/a	FR1	0	R1298E
1271.516	1.62	1273078	WORD	n/a	n/a	SOUP	9	8	[0, 0, 0]	n/a	FR1	0	R1298E
1273.136	0.856	1274698	WORD_OFF	n/a	n/a	SOUP	9	8	[0, 0, 0]	n/a	FR1	0	R1298E
1273.992	1.628	1275554	WORD	n/a	n/a	SHELL	10	8	[0, 0, 0]	n/a	FR1	0	R1298E
1275.62	0.879	1277182	WORD_OFF	n/a	n/a	SHELL	10	8	[0, 0, 0]	n/a	FR1	0	R1298E
1276.499	1.621	1278061	WORD	n/a	n/a	CLOUD	11	8	[0, 0, 0]	n/a	FR1	0	R1298E
1278.12	1.066	1279682	WORD_OFF	n/a	n/a	CLOUD	11	8	[0, 0, 0]	n/a	FR1	0	R1298E
1279.186	1.636	1280748	WORD	n/a	n/a	FISH	12	8	[0, 0, 0]	n/a	FR1	0	R1298E
1280.822	0.0	1282384	WORD_OFF	n/a	n/a	FISH	12	8	[0, 0, 0]	n/a	FR1	0	R1298E
1280.822	0.001	1282384	ENCODING_END	n/a	n/a	n/a	-999	8	[0, 0, 0]	n/a	FR1	0	R1298E
1280.823	0.0	1282385	DISTRACT_START	n/a	n/a	n/a	-999	8	[0, 0, 0]	n/a	FR1	0	R1298E
1280.823	0.015	1282385	START	n/a	n/a	n/a	-999	8	[-999, -999, -999]	n/a	FR1	0	R1298E
1280.838	6.701	1282400	PROB	6.701	n/a	n/a	-999	8	[4, 6, 3]	13	FR1	0	R1298E
1287.539	5.418	1289100	PROB	5.418	n/a	n/a	-999	8	[7, 6, 9]	22	FR1	0	R1298E
1292.957	3.101	1294518	PROB	3.101	n/a	n/a	-999	8	[1, 9, 4]	14	FR1	0	R1298E
1296.058	10.584	1297619	PROB	10.584	n/a	n/a	-999	8	[7, 4, 4]	15	FR1	0	R1298E
1306.642	0.017	1308203	STOP	n/a	n/a	n/a	-999	8	[-999, -999, -999]	n/a	FR1	0	R1298E
1306.659	0.576	1308220	DISTRACT_END	n/a	n/a	n/a	-999	8	[0, 0, 0]	n/a	FR1	0	R1298E
1307.235	1.708	1308796	RETRIEVAL_ORIENT_START	n/a	n/a	n/a	-999	8	[0, 0, 0]	n/a	FR1	0	R1298E
1308.943	0.001	1310504	RETRIEVAL_ORIENT_END	n/a	n/a	n/a	-999	8	[0, 0, 0]	n/a	FR1	0	R1298E
1308.944	3.564	1310505	REC_START	n/a	n/a	n/a	-999	8	[0, 0, 0]	n/a	FR1	0	R1298E
1312.508	3.002	1314069	REC_WORD	3.002	n/a	SHELL	10	8	[0, 0, 0]	n/a	FR1	0	R1298E
1315.51	4.139	1317070	REC_WORD	4.139	n/a	FISH	12	8	[0, 0, 0]	n/a	FR1	0	R1298E
1319.649	5.849	1321209	REC_WORD	5.849	n/a	KITE	4	8	[0, 0, 0]	n/a	FR1	0	R1298E
1325.498	3.935	1327058	REC_WORD	3.935	n/a	CORD	6	8	[0, 0, 0]	n/a	FR1	0	R1298E
1329.433	9.52	1330993	REC_WORD	9.52	n/a	MUD	-999	8	[0, 0, 0]	n/a	FR1	0	R1298E
1338.953	0.0	1340513	REC_END	n/a	n/a	n/a	-999	8	[0, 0, 0]	n/a	FR1	0	R1298E
1338.953	0.017	1340513	TRIAL_END	n/a	n/a	n/a	-999	8	[0, 0, 0]	n/a	FR1	0	R1298E
1338.97	0.0	1340530	TRIAL_START	n/a	n/a	n/a	-999	9	[0, 0, 0]	n/a	FR1	0	R1298E
1338.97	0.001	1340530	TRIAL	n/a	n/a	n/a	-999	9	[0, 0, 0]	n/a	FR1	0	R1298E
1338.971	16.58	1340531	WAITING_START	n/a	n/a	n/a	-999	9	[0, 0, 0]	n/a	FR1	0	R1298E
1355.551	0.0	1357110	COUNTDOWN_START	n/a	n/a	n/a	-999	9	[0, 0, 0]	n/a	FR1	0	R1298E
1355.551	10.429	1357110	WAITING_END	n/a	n/a	n/a	-999	9	[0, 0, 0]	n/a	FR1	0	R1298E
1365.98	0.0	1367539	COUNTDOWN_END	n/a	n/a	n/a	-999	9	[0, 0, 0]	n/a	FR1	0	R1298E
1365.98	1.074	1367539	ORIENT_START	n/a	n/a	n/a	-999	9	[0, 0, 0]	n/a	FR1	0	R1298E
1367.054	0.0	1368613	ORIENT_END	n/a	n/a	n/a	-999	9	[0, 0, 0]	n/a	FR1	0	R1298E
1367.054	1.067	1368613	ENCODING_START	n/a	n/a	n/a	-999	9	[0, 0, 0]	n/a	FR1	0	R1298E
1368.121	1.632	1369680	WORD	n/a	n/a	BOOK	1	9	[0, 0, 0]	n/a	FR1	0	R1298E
1369.753	1.082	1371312	WORD_OFF	n/a	n/a	BOOK	1	9	[0, 0, 0]	n/a	FR1	0	R1298E
1370.835	1.635	1372394	WORD	n/a	n/a	GRAPE	2	9	[0, 0, 0]	n/a	FR1	0	R1298E
1372.47	1.051	1374028	WORD_OFF	n/a	n/a	GRAPE	2	9	[0, 0, 0]	n/a	FR1	0	R1298E
1373.521	1.633	1375079	WORD	n/a	n/a	SNOW	3	9	[0, 0, 0]	n/a	FR1	0	R1298E
1375.154	1.044	1376712	WORD_OFF	n/a	n/a	SNOW	3	9	[0, 0, 0]	n/a	FR1	0	R1298E
1376.198	1.624	1377756	WORD	n/a	n/a	HOSE	4	9	[0, 0, 0]	n/a	FR1	0	R1298E
1377.822	0.815	1379380	WORD_OFF	n/a	n/a	HOSE	4	9	[0, 0, 0]	n/a	FR1	0	R1298E
1378.637	1.635	1380195	WORD	n/a	n/a	BOMB	5	9	[0, 0, 0]	n/a	FR1	0	R1298E
1380.272	0.822	1381830	WORD_OFF	n/a	n/a	BOMB	5	9	[0, 0, 0]	n/a	FR1	0	R1298E
1381.094	1.628	1382652	WORD	n/a	n/a	SMILE	6	9	[0, 0, 0]	n/a	FR1	0	R1298E
1382.722	0.802	1384280	WORD_OFF	n/a	n/a	SMILE	6	9	[0, 0, 0]	n/a	FR1	0	R1298E
1383.524	1.632	1385082	WORD	n/a	n/a	HOLE	7	9	[0, 0, 0]	n/a	FR1	0	R1298E
1385.156	0.933	1386714	WORD_OFF	n/a	n/a	HOLE	7	9	[0, 0, 0]	n/a	FR1	0	R1298E
1386.089	1.634	1387647	WORD	n/a	n/a	BATH	8	9	[0, 0, 0]	n/a	FR1	0	R1298E
1387.723	1.113	1389281	WORD_OFF	n/a	n/a	BATH	8	9	[0, 0, 0]	n/a	FR1	0	R1298E
1388.836	1.621	1390394	WORD	n/a	n/a	VEST	9	9	[0, 0, 0]	n/a	FR1	0	R1298E
1390.457	1.006	1392015	WORD_OFF	n/a	n/a	VEST	9	9	[0, 0, 0]	n/a	FR1	0	R1298E
1391.463	1.628	1393021	WORD	n/a	n/a	ROOT	10	9	[0, 0, 0]	n/a	FR1	0	R1298E
1393.091	1.069	1394649	WORD_OFF	n/a	n/a	ROOT	10	9	[0, 0, 0]	n/a	FR1	0	R1298E
1394.16	1.632	1395718	WORD	n/a	n/a	SEAT	11	9	[0, 0, 0]	n/a	FR1	0	R1298E
1395.792	1.017	1397350	WORD_OFF	n/a	n/a	SEAT	11	9	[0, 0, 0]	n/a	FR1	0	R1298E
1396.809	1.633	1398367	WORD	n/a	n/a	PARK	12	9	[0, 0, 0]	n/a	FR1	0	R1298E
1398.442	0.0	1400000	WORD_OFF	n/a	n/a	PARK	12	9	[0, 0, 0]	n/a	FR1	0	R1298E
1398.442	0.0	1400000	ENCODING_END	n/a	n/a	n/a	-999	9	[0, 0, 0]	n/a	FR1	0	R1298E
1398.442	0.0	1400000	DISTRACT_START	n/a	n/a	n/a	-999	9	[0, 0, 0]	n/a	FR1	0	R1298E
1398.442	0.016	1400000	START	n/a	n/a	n/a	-999	9	[-999, -999, -999]	n/a	FR1	0	R1298E
1398.458	5.834	1400016	PROB	5.834	n/a	n/a	-999	9	[4, 7, 4]	15	FR1	0	R1298E
1404.292	9.419	1405849	PROB	9.419	n/a	n/a	-999	9	[9, 6, 7]	22	FR1	0	R1298E
1413.711	3.05	1415268	PROB	3.05	n/a	n/a	-999	9	[5, 5, 8]	18	FR1	0	R1298E
1416.761	4.207	1418318	PROB	4.207	n/a	n/a	-999	9	[8, 8, 4]	20	FR1	0	R1298E
1420.968	0.012	1422525	STOP	n/a	n/a	n/a	-999	9	[-999, -999, -999]	n/a	FR1	0	R1298E
1420.98	0.597	1422537	DISTRACT_END	n/a	n/a	n/a	-999	9	[0, 0, 0]	n/a	FR1	0	R1298E
1421.577	1.702	1423134	RETRIEVAL_ORIENT_START	n/a	n/a	n/a	-999	9	[0, 0, 0]	n/a	FR1	0	R1298E
1423.279	0.0	1424836	RETRIEVAL_ORIENT_END	n/a	n/a	n/a	-999	9	[0, 0, 0]	n/a	FR1	0	R1298E
1423.279	5.31	1424836	REC_START	n/a	n/a	n/a	-999	9	[0, 0, 0]	n/a	FR1	0	R1298E
1428.589	0.845	1430146	REC_WORD_VV	0.845	n/a	<>	-999	9	[0, 0, 0]	n/a	FR1	0	R1298E
1429.434	8.015	1430991	REC_WORD	8.015	n/a	CHAIR	-999	9	[0, 0, 0]	n/a	FR1	0	R1298E
1437.449	4.511	1439005	REC_WORD	4.511	n/a	SNOW	3	9	[0, 0, 0]	n/a	FR1	0	R1298E
1441.96	11.329	1443516	REC_WORD	11.329	n/a	CLOUD	-999	9	[0, 0, 0]	n/a	FR1	0	R1298E
1453.289	0.0	1454845	REC_END	n/a	n/a	n/a	-999	9	[0, 0, 0]	n/a	FR1	0	R1298E
1453.289	0.02	1454845	TRIAL_END	n/a	n/a	n/a	-999	9	[0, 0, 0]	n/a	FR1	0	R1298E
1453.309	0.0	1454865	TRIAL_START	n/a	n/a	n/a	-999	10	[0, 0, 0]	n/a	FR1	0	R1298E
1453.309	0.0	1454865	TRIAL	n/a	n/a	n/a	-999	10	[0, 0, 0]	n/a	FR1	0	R1298E
1453.309	3.96	1454865	WAITING_START	n/a	n/a	n/a	-999	10	[0, 0, 0]	n/a	FR1	0	R1298E
1457.269	0.0	1458825	COUNTDOWN_START	n/a	n/a	n/a	-999	10	[0, 0, 0]	n/a	FR1	0	R1298E
1457.269	10.429	1458825	WAITING_END	n/a	n/a	n/a	-999	10	[0, 0, 0]	n/a	FR1	0	R1298E
1467.698	0.001	1469253	COUNTDOWN_END	n/a	n/a	n/a	-999	10	[0, 0, 0]	n/a	FR1	0	R1298E
1467.699	1.139	1469254	ORIENT_START	n/a	n/a	n/a	-999	10	[0, 0, 0]	n/a	FR1	0	R1298E
1468.838	0.001	1470393	ORIENT_END	n/a	n/a	n/a	-999	10	[0, 0, 0]	n/a	FR1	0	R1298E
1468.839	1.104	1470394	ENCODING_START	n/a	n/a	n/a	-999	10	[0, 0, 0]	n/a	FR1	0	R1298E
1469.943	1.628	1471498	WORD	n/a	n/a	DIME	1	10	[0, 0, 0]	n/a	FR1	0	R1298E
1471.571	0.883	1473126	WORD_OFF	n/a	n/a	DIME	1	10	[0, 0, 0]	n/a	FR1	0	R1298E
1472.454	1.634	1474009	WORD	n/a	n/a	SPOON	2	10	[0, 0, 0]	n/a	FR1	0	R1298E
1474.088	1.12	1475643	WORD_OFF	n/a	n/a	SPOON	2	10	[0, 0, 0]	n/a	FR1	0	R1298E
1475.208	1.615	1476763	WORD	n/a	n/a	PURSE	3	10	[0, 0, 0]	n/a	FR1	0	R1298E
1476.823	0.888	1478378	WORD_OFF	n/a	n/a	PURSE	3	10	[0, 0, 0]	n/a	FR1	0	R1298E
1477.711	1.628	1479266	WORD	n/a	n/a	SPEAR	4	10	[0, 0, 0]	n/a	FR1	0	R1298E
1479.339	1.095	1480894	WORD_OFF	n/a	n/a	SPEAR	4	10	[0, 0, 0]	n/a	FR1	0	R1298E
1480.434	1.623	1481989	WORD	n/a	n/a	FAN	5	10	[0, 0, 0]	n/a	FR1	0	R1298E
1482.057	0.982	1483612	WORD_OFF	n/a	n/a	FAN	5	10	[0, 0, 0]	n/a	FR1	0	R1298E
1483.039	1.634	1484594	WORD	n/a	n/a	GRASS	6	10	[0, 0, 0]	n/a	FR1	0	R1298E
1484.673	1.103	1486228	WORD_OFF	n/a	n/a	GRASS	6	10	[0, 0, 0]	n/a	FR1	0	R1298E
1485.776	1.631	1487331	WORD	n/a	n/a	VAN	7	10	[0, 0, 0]	n/a	FR1	0	R1298E
1487.407	0.794	1488962	WORD_OFF	n/a	n/a	VAN	7	10	[0, 0, 0]	n/a	FR1	0	R1298E
1488.201	1.607	1489756	WORD	n/a	n/a	FLEA	8	10	[0, 0, 0]	n/a	FR1	0	R1298E
1489.808	0.763	1491362	WORD_OFF	n/a	n/a	FLEA	8	10	[0, 0, 0]	n/a	FR1	0	R1298E
1490.571	1.637	1492125	WORD	n/a	n/a	GLOVE	9	10	[0, 0, 0]	n/a	FR1	0	R1298E
1492.208	1.107	1493762	WORD_OFF	n/a	n/a	GLOVE	9	10	[0, 0, 0]	n/a	FR1	0	R1298E
1493.315	1.628	1494869	WORD	n/a	n/a	SNAKE	10	10	[0, 0, 0]	n/a	FR1	0	R1298E
1494.943	1.083	1496497	WORD_OFF	n/a	n/a	SNAKE	10	10	[0, 0, 0]	n/a	FR1	0	R1298E
1496.026	1.633	1497580	WORD	n/a	n/a	STREET	11	10	[0, 0, 0]	n/a	FR1	0	R1298E
1497.659	1.15	1499213	WORD_OFF	n/a	n/a	STREET	11	10	[0, 0, 0]	n/a	FR1	0	R1298E
1498.809	1.634	1500363	WORD	n/a	n/a	RUG	12	10	[0, 0, 0]	n/a	FR1	0	R1298E
1500.443	0.0	1501997	DISTRACT_START	n/a	n/a	n/a	-999	10	[0, 0, 0]	n/a	FR1	0	R1298E
1500.443	0.0	1501997	WORD_OFF	n/a	n/a	RUG	12	10	[0, 0, 0]	n/a	FR1	0	R1298E
1500.443	0.001	1501997	ENCODING_END	n/a	n/a	n/a	-999	10	[0, 0, 0]	n/a	FR1	0	R1298E
1500.444	0.015	1501998	START	n/a	n/a	n/a	-999	10	[-999, -999, -999]	n/a	FR1	0	R1298E
1500.459	8.118	1502013	PROB	8.118	n/a	n/a	-999	10	[6, 8, 4]	18	FR1	0	R1298E
1508.577	3.034	1510131	PROB	3.034	n/a	n/a	-999	10	[6, 4, 2]	12	FR1	0	R1298E
1511.611	5.968	1513165	PROB	5.968	n/a	n/a	-999	10	[4, 5, 9]	18	FR1	0	R1298E
1517.579	2.867	1519133	PROB	2.867	n/a	n/a	-999	10	[5, 3, 3]	11	FR1	0	R1298E
1520.446	5.656	1521999	PROB	5.656	n/a	n/a	-999	10	[2, 9, 6]	17	FR1	0	R1298E
1526.102	0.012	1527655	STOP	n/a	n/a	n/a	-999	10	[-999, -999, -999]	n/a	FR1	0	R1298E
1526.114	0.631	1527667	DISTRACT_END	n/a	n/a	n/a	-999	10	[0, 0, 0]	n/a	FR1	0	R1298E
1526.745	1.586	1528298	RETRIEVAL_ORIENT_START	n/a	n/a	n/a	-999	10	[0, 0, 0]	n/a	FR1	0	R1298E
1528.331	0.0	1529884	RETRIEVAL_ORIENT_END	n/a	n/a	n/a	-999	10	[0, 0, 0]	n/a	FR1	0	R1298E
1528.331	2.624	1529884	REC_START	n/a	n/a	n/a	-999	10	[0, 0, 0]	n/a	FR1	0	R1298E
1530.955	1.0	1532508	REC_WORD	1.0	n/a	GRASS	6	10	[0, 0, 0]	n/a	FR1	0	R1298E
1531.955	11.958	1533508	REC_WORD_VV	11.958	n/a	<>	-999	10	[0, 0, 0]	n/a	FR1	0	R1298E
1543.913	1.0	1545466	REC_WORD	1.0	n/a	SKY	-999	10	[0, 0, 0]	n/a	FR1	0	R1298E
1544.913	8.325	1546466	REC_WORD_VV	8.325	n/a	<>	-999	10	[0, 0, 0]	n/a	FR1	0	R1298E
1553.238	4.064	1554790	REC_WORD	4.064	n/a	STREET	11	10	[0, 0, 0]	n/a	FR1	0	R1298E
1557.302	1.04	1558854	REC_WORD	1.04	n/a	VAN	7	10	[0, 0, 0]	n/a	FR1	0	R1298E
1558.342	0.0	1559894	REC_END	n/a	n/a	n/a	-999	10	[0, 0, 0]	n/a	FR1	0	R1298E
1558.342	0.017	1559894	TRIAL_END	n/a	n/a	n/a	-999	10	[0, 0, 0]	n/a	FR1	0	R1298E
1558.359	0.0	1559911	TRIAL_START	n/a	n/a	n/a	-999	11	[0, 0, 0]	n/a	FR1	0	R1298E
1558.359	0.001	1559911	TRIAL	n/a	n/a	n/a	-999	11	[0, 0, 0]	n/a	FR1	0	R1298E
1558.36	5.177	1559912	WAITING_START	n/a	n/a	n/a	-999	11	[0, 0, 0]	n/a	FR1	0	R1298E
1563.537	0.001	1565089	WAITING_END	n/a	n/a	n/a	-999	11	[0, 0, 0]	n/a	FR1	0	R1298E
1563.538	10.428	1565090	COUNTDOWN_START	n/a	n/a	n/a	-999	11	[0, 0, 0]	n/a	FR1	0	R1298E
1573.966	0.001	1575518	COUNTDOWN_END	n/a	n/a	n/a	-999	11	[0, 0, 0]	n/a	FR1	0	R1298E
1573.967	1.139	1575519	ORIENT_START	n/a	n/a	n/a	-999	11	[0, 0, 0]	n/a	FR1	0	R1298E
1575.106	0.0	1576658	ORIENT_END	n/a	n/a	n/a	-999	11	[0, 0, 0]	n/a	FR1	0	R1298E
1575.106	1.126	1576658	ENCODING_START	n/a	n/a	n/a	-999	11	[0, 0, 0]	n/a	FR1	0	R1298E
1576.232	1.625	1577783	WORD	n/a	n/a	TEA	1	11	[0, 0, 0]	n/a	FR1	0	R1298E
1577.857	1.083	1579408	WORD_OFF	n/a	n/a	TEA	1	11	[0, 0, 0]	n/a	FR1	0	R1298E
1578.94	1.633	1580491	WORD	n/a	n/a	SAIL	2	11	[0, 0, 0]	n/a	FR1	0	R1298E
1580.573	0.926	1582124	WORD_OFF	n/a	n/a	SAIL	2	11	[0, 0, 0]	n/a	FR1	0	R1298E
1581.499	1.625	1583050	WORD	n/a	n/a	HAWK	3	11	[0, 0, 0]	n/a	FR1	0	R1298E
1583.124	0.889	1584675	WORD_OFF	n/a	n/a	HAWK	3	11	[0, 0, 0]	n/a	FR1	0	R1298E
1584.013	1.628	1585564	WORD	n/a	n/a	CASH	4	11	[0, 0, 0]	n/a	FR1	0	R1298E
1585.641	0.792	1587192	WORD_OFF	n/a	n/a	CASH	4	11	[0, 0, 0]	n/a	FR1	0	R1298E
1586.433	1.626	1587984	WORD	n/a	n/a	TRASH	5	11	[0, 0, 0]	n/a	FR1	0	R1298E
1588.059	0.887	1589610	WORD_OFF	n/a	n/a	TRASH	5	11	[0, 0, 0]	n/a	FR1	0	R1298E
1588.946	1.629	1590497	WORD	n/a	n/a	EEL	6	11	[0, 0, 0]	n/a	FR1	0	R1298E
1590.575	1.061	1592126	WORD_OFF	n/a	n/a	EEL	6	11	[0, 0, 0]	n/a	FR1	0	R1298E
1591.636	1.623	1593187	WORD	n/a	n/a	RIB	7	11	[0, 0, 0]	n/a	FR1	0	R1298E
1593.259	0.956	1594810	WORD_OFF	n/a	n/a	RIB	7	11	[0, 0, 0]	n/a	FR1	0	R1298E
1594.215	1.629	1595766	WORD	n/a	n/a	STRING	8	11	[0, 0, 0]	n/a	FR1	0	R1298E
1595.844	1.143	1597395	WORD_OFF	n/a	n/a	STRING	8	11	[0, 0, 0]	n/a	FR1	0	R1298E
1596.987	1.623	1598538	WORD	n/a	n/a	TANK	9	11	[0, 0, 0]	n/a	FR1	0	R1298E
1598.61	0.802	1600161	WORD_OFF	n/a	n/a	TANK	9	11	[0, 0, 0]	n/a	FR1	0	R1298E
1599.412	1.633	1600963	WORD	n/a	n/a	EGG	10	11	[0, 0, 0]	n/a	FR1	0	R1298E
1601.045	0.914	1602596	WORD_OFF	n/a	n/a	EGG	10	11	[0, 0, 0]	n/a	FR1	0	R1298E
1601.959	1.635	1603510	WORD	n/a	n/a	AXE	11	11	[0, 0, 0]	n/a	FR1	0	R1298E
1603.594	1.123	1605145	WORD_OFF	n/a	n/a	AXE	11	11	[0, 0, 0]	n/a	FR1	0	R1298E
1604.717	1.628	1606268	WORD	n/a	n/a	CALF	12	11	[0, 0, 0]	n/a	FR1	0	R1298E
1606.345	0.0	1607895	WORD_OFF	n/a	n/a	CALF	12	11	[0, 0, 0]	n/a	FR1	0	R1298E
1606.345	0.0	1607895	ENCODING_END	n/a	n/a	n/a	-999	11	[0, 0, 0]	n/a	FR1	0	R1298E
1606.345	0.0	1607895	DISTRACT_START	n/a	n/a	n/a	-999	11	[0, 0, 0]	n/a	FR1	0	R1298E
1606.345	0.016	1607895	START	n/a	n/a	n/a	-999	11	[-999, -999, -999]	n/a	FR1	0	R1298E
1606.361	3.917	1607911	PROB	3.917	n/a	n/a	-999	11	[5, 5, 8]	18	FR1	0	R1298E
1610.278	5.451	1611828	PROB	5.451	n/a	n/a	-999	11	[6, 6, 8]	20	FR1	0	R1298E
1615.729	3.851	1617279	PROB	3.851	n/a	n/a	-999	11	[7, 6, 2]	15	FR1	0	R1298E
1619.58	7.662	1621130	PROB	7.662	n/a	n/a	-999	11	[7, 8, 8]	23	FR1	0	R1298E
1627.242	0.006	1628792	STOP	n/a	n/a	n/a	-999	11	[-999, -999, -999]	n/a	FR1	0	R1298E
1627.248	0.577	1628798	DISTRACT_END	n/a	n/a	n/a	-999	11	[0, 0, 0]	n/a	FR1	0	R1298E
1627.825	1.557	1629375	RETRIEVAL_ORIENT_START	n/a	n/a	n/a	-999	11	[0, 0, 0]	n/a	FR1	0	R1298E
1629.382	0.0	1630932	RETRIEVAL_ORIENT_END	n/a	n/a	n/a	-999	11	[0, 0, 0]	n/a	FR1	0	R1298E
1629.382	3.014	1630932	REC_START	n/a	n/a	n/a	-999	11	[0, 0, 0]	n/a	FR1	0	R1298E
1632.396	6.355	1633946	REC_WORD	6.355	n/a	SHELL	-999	11	[0, 0, 0]	n/a	FR1	0	R1298E
1638.751	1.0	1640300	REC_WORD	1.0	n/a	SAIL	2	11	[0, 0, 0]	n/a	FR1	0	R1298E
1639.751	6.804	1641300	REC_WORD_VV	6.804	n/a	<>	-999	11	[0, 0, 0]	n/a	FR1	0	R1298E
1646.555	10.909	1648104	REC_WORD	10.909	n/a	HAWK	3	11	[0, 0, 0]	n/a	FR1	0	R1298E
1657.464	1.928	1659013	REC_WORD	1.928	n/a	EEL	6	11	[0, 0, 0]	n/a	FR1	0	R1298E
1659.392	0.0	1660941	REC_END	n/a	n/a	n/a	-999	11	[0, 0, 0]	n/a	FR1	0	R1298E
1659.392	0.017	1660941	TRIAL_END	n/a	n/a	n/a	-999	11	[0, 0, 0]	n/a	FR1	0	R1298E
1659.409	0.0	1660958	TRIAL_START	n/a	n/a	n/a	-999	12	[0, 0, 0]	n/a	FR1	0	R1298E
1659.409	0.0	1660958	TRIAL	n/a	n/a	n/a	-999	12	[0, 0, 0]	n/a	FR1	0	R1298E
1659.409	9.13	1660958	WAITING_START	n/a	n/a	n/a	-999	12	[0, 0, 0]	n/a	FR1	0	R1298E
1668.539	0.0	1670087	COUNTDOWN_START	n/a	n/a	n/a	-999	12	[0, 0, 0]	n/a	FR1	0	R1298E
1668.539	10.429	1670087	WAITING_END	n/a	n/a	n/a	-999	12	[0, 0, 0]	n/a	FR1	0	R1298E
1678.968	0.0	1680516	COUNTDOWN_END	n/a	n/a	n/a	-999	12	[0, 0, 0]	n/a	FR1	0	R1298E
1678.968	1.19	1680516	ORIENT_START	n/a	n/a	n/a	-999	12	[0, 0, 0]	n/a	FR1	0	R1298E
1680.158	0.0	1681706	ORIENT_END	n/a	n/a	n/a	-999	12	[0, 0, 0]	n/a	FR1	0	R1298E
1680.158	0.763	1681706	ENCODING_START	n/a	n/a	n/a	-999	12	[0, 0, 0]	n/a	FR1	0	R1298E
1680.921	1.62	1682469	WORD	n/a	n/a	DUCK	1	12	[0, 0, 0]	n/a	FR1	0	R1298E
1682.541	0.96	1684089	WORD_OFF	n/a	n/a	DUCK	1	12	[0, 0, 0]	n/a	FR1	0	R1298E
1683.501	1.624	1685049	WORD	n/a	n/a	MAIL	2	12	[0, 0, 0]	n/a	FR1	0	R1298E
1685.125	0.92	1686673	WORD_OFF	n/a	n/a	MAIL	2	12	[0, 0, 0]	n/a	FR1	0	R1298E
1686.045	1.631	1687593	WORD	n/a	n/a	BOOT	3	12	[0, 0, 0]	n/a	FR1	0	R1298E
1687.676	1.129	1689224	WORD_OFF	n/a	n/a	BOOT	3	12	[0, 0, 0]	n/a	FR1	0	R1298E
1688.805	1.621	1690353	WORD	n/a	n/a	TEETH	4	12	[0, 0, 0]	n/a	FR1	0	R1298E
1690.426	0.88	1691974	WORD_OFF	n/a	n/a	TEETH	4	12	[0, 0, 0]	n/a	FR1	0	R1298E
1691.306	1.621	1692854	WORD	n/a	n/a	MOUTH	5	12	[0, 0, 0]	n/a	FR1	0	R1298E
1692.927	0.869	1694474	WORD_OFF	n/a	n/a	MOUTH	5	12	[0, 0, 0]	n/a	FR1	0	R1298E
1693.796	1.631	1695343	WORD	n/a	n/a	SKUNK	6	12	[0, 0, 0]	n/a	FR1	0	R1298E
1695.427	0.871	1696974	WORD_OFF	n/a	n/a	SKUNK	6	12	[0, 0, 0]	n/a	FR1	0	R1298E
1696.298	1.63	1697845	WORD	n/a	n/a	STORM	7	12	[0, 0, 0]	n/a	FR1	0	R1298E
1697.928	1.038	1699475	WORD_OFF	n/a	n/a	STORM	7	12	[0, 0, 0]	n/a	FR1	0	R1298E
1698.966	1.629	1700513	WORD	n/a	n/a	STAIR	8	12	[0, 0, 0]	n/a	FR1	0	R1298E
1700.595	0.778	1702142	WORD_OFF	n/a	n/a	STAIR	8	12	[0, 0, 0]	n/a	FR1	0	R1298E
1701.373	1.623	1702920	WORD	n/a	n/a	FLAME	9	12	[0, 0, 0]	n/a	FR1	0	R1298E
1702.996	0.937	1704543	WORD_OFF	n/a	n/a	FLAME	9	12	[0, 0, 0]	n/a	FR1	0	R1298E
1703.933	1.629	1705480	WORD	n/a	n/a	WAVE	10	12	[0, 0, 0]	n/a	FR1	0	R1298E
1705.562	1.08	1707109	WORD_OFF	n/a	n/a	WAVE	10	12	[0, 0, 0]	n/a	FR1	0	R1298E
1706.642	1.621	1708189	WORD	n/a	n/a	BEAN	11	12	[0, 0, 0]	n/a	FR1	0	R1298E
1708.263	0.97	1709810	WORD_OFF	n/a	n/a	BEAN	11	12	[0, 0, 0]	n/a	FR1	0	R1298E
1709.233	1.631	1710780	WORD	n/a	n/a	THREAD	12	12	[0, 0, 0]	n/a	FR1	0	R1298E
1710.864	0.0	1712411	DISTRACT_START	n/a	n/a	n/a	-999	12	[0, 0, 0]	n/a	FR1	0	R1298E
1710.864	0.0	1712411	ENCODING_END	n/a	n/a	n/a	-999	12	[0, 0, 0]	n/a	FR1	0	R1298E
1710.864	0.001	1712411	WORD_OFF	n/a	n/a	THREAD	12	12	[0, 0, 0]	n/a	FR1	0	R1298E
1710.865	0.015	1712412	START	n/a	n/a	n/a	-999	12	[-999, -999, -999]	n/a	FR1	0	R1298E
1710.88	5.968	1712427	PROB	5.968	n/a	n/a	-999	12	[1, 8, 9]	18	FR1	0	R1298E
1716.848	3.767	1718395	PROB	3.767	n/a	n/a	-999	12	[9, 1, 1]	11	FR1	0	R1298E
1720.615	3.934	1722162	PROB	3.934	n/a	n/a	-999	12	[2, 5, 7]	14	FR1	0	R1298E
1724.549	2.384	1726095	PROB	2.384	n/a	n/a	-999	12	[1, 3, 8]	12	FR1	0	R1298E
1726.933	5.345	1728479	PROB	5.345	n/a	n/a	-999	12	[6, 7, 5]	18	FR1	0	R1298E
1732.278	0.005	1733824	STOP	n/a	n/a	n/a	-999	12	[-999, -999, -999]	n/a	FR1	0	R1298E
1732.283	0.601	1733829	DISTRACT_END	n/a	n/a	n/a	-999	12	[0, 0, 0]	n/a	FR1	0	R1298E
1732.884	1.616	1734430	RETRIEVAL_ORIENT_START	n/a	n/a	n/a	-999	12	[0, 0, 0]	n/a	FR1	0	R1298E
1734.5	0.001	1736046	RETRIEVAL_ORIENT_END	n/a	n/a	n/a	-999	12	[0, 0, 0]	n/a	FR1	0	R1298E
1734.501	1.75	1736047	REC_START	n/a	n/a	n/a	-999	12	[0, 0, 0]	n/a	FR1	0	R1298E
1736.251	5.975	1737797	REC_WORD	5.975	n/a	WAVE	10	12	[0, 0, 0]	n/a	FR1	0	R1298E
1742.226	10.239	1743772	REC_WORD	10.239	n/a	SKUNK	6	12	[0, 0, 0]	n/a	FR1	0	R1298E
1752.465	3.328	1754010	REC_WORD	3.328	n/a	STORM	7	12	[0, 0, 0]	n/a	FR1	0	R1298E
1755.793	3.755	1757338	REC_WORD	3.755	n/a	TEETH	4	12	[0, 0, 0]	n/a	FR1	0	R1298E
1759.548	4.962	1761093	REC_WORD	4.962	n/a	SMILE	-999	12	[0, 0, 0]	n/a	FR1	0	R1298E
1764.51	0.0	1766055	REC_END	n/a	n/a	n/a	-999	12	[0, 0, 0]	n/a	FR1	0	R1298E
1764.51	0.017	1766055	TRIAL_END	n/a	n/a	n/a	-999	12	[0, 0, 0]	n/a	FR1	0	R1298E
1764.527	0.0	1766072	TRIAL_START	n/a	n/a	n/a	-999	13	[0, 0, 0]	n/a	FR1	0	R1298E
1764.527	0.0	1766072	TRIAL	n/a	n/a	n/a	-999	13	[0, 0, 0]	n/a	FR1	0	R1298E
1764.527	4.547	1766072	WAITING_START	n/a	n/a	n/a	-999	13	[0, 0, 0]	n/a	FR1	0	R1298E
1769.074	0.001	1770619	WAITING_END	n/a	n/a	n/a	-999	13	[0, 0, 0]	n/a	FR1	0	R1298E
1769.075	10.428	1770620	COUNTDOWN_START	n/a	n/a	n/a	-999	13	[0, 0, 0]	n/a	FR1	0	R1298E
1779.503	0.001	1781048	COUNTDOWN_END	n/a	n/a	n/a	-999	13	[0, 0, 0]	n/a	FR1	0	R1298E
1779.504	1.121	1781049	ORIENT_START	n/a	n/a	n/a	-999	13	[0, 0, 0]	n/a	FR1	0	R1298E
1780.625	0.001	1782169	ORIENT_END	n/a	n/a	n/a	-999	13	[0, 0, 0]	n/a	FR1	0	R1298E
1780.626	1.042	1782170	ENCODING_START	n/a	n/a	n/a	-999	13	[0, 0, 0]	n/a	FR1	0	R1298E
1781.668	1.624	1783212	WORD	n/a	n/a	FLUTE	1	13	[0, 0, 0]	n/a	FR1	0	R1298E
1783.292	0.856	1784836	WORD_OFF	n/a	n/a	FLUTE	1	13	[0, 0, 0]	n/a	FR1	0	R1298E
1784.148	1.629	1785692	WORD	n/a	n/a	CHALK	2	13	[0, 0, 0]	n/a	FR1	0	R1298E
1785.777	0.841	1787321	WORD_OFF	n/a	n/a	CHALK	2	13	[0, 0, 0]	n/a	FR1	0	R1298E
1786.618	1.625	1788162	WORD	n/a	n/a	CART	3	13	[0, 0, 0]	n/a	FR1	0	R1298E
1788.243	1.064	1789787	WORD_OFF	n/a	n/a	CART	3	13	[0, 0, 0]	n/a	FR1	0	R1298E
1789.307	1.638	1790851	WORD	n/a	n/a	APE	4	13	[0, 0, 0]	n/a	FR1	0	R1298E
1790.945	0.892	1792489	WORD_OFF	n/a	n/a	APE	4	13	[0, 0, 0]	n/a	FR1	0	R1298E
1791.837	1.624	1793381	WORD	n/a	n/a	MOTH	5	13	[0, 0, 0]	n/a	FR1	0	R1298E
1793.461	0.833	1795005	WORD_OFF	n/a	n/a	MOTH	5	13	[0, 0, 0]	n/a	FR1	0	R1298E
1794.294	1.635	1795838	WORD	n/a	n/a	BOARD	6	13	[0, 0, 0]	n/a	FR1	0	R1298E
1795.929	1.034	1797473	WORD_OFF	n/a	n/a	BOARD	6	13	[0, 0, 0]	n/a	FR1	0	R1298E
1796.963	1.632	1798507	WORD	n/a	n/a	FRUIT	7	13	[0, 0, 0]	n/a	FR1	0	R1298E
1798.595	0.831	1800139	WORD_OFF	n/a	n/a	FRUIT	7	13	[0, 0, 0]	n/a	FR1	0	R1298E
1799.426	1.637	1800970	WORD	n/a	n/a	PALM	8	13	[0, 0, 0]	n/a	FR1	0	R1298E
1801.063	1.024	1802607	WORD_OFF	n/a	n/a	PALM	8	13	[0, 0, 0]	n/a	FR1	0	R1298E
1802.087	1.626	1803631	WORD	n/a	n/a	SCHOOL	9	13	[0, 0, 0]	n/a	FR1	0	R1298E
1803.713	1.109	1805257	WORD_OFF	n/a	n/a	SCHOOL	9	13	[0, 0, 0]	n/a	FR1	0	R1298E
1804.822	1.624	1806366	WORD	n/a	n/a	MAT	10	13	[0, 0, 0]	n/a	FR1	0	R1298E
1806.446	0.907	1807990	WORD_OFF	n/a	n/a	MAT	10	13	[0, 0, 0]	n/a	FR1	0	R1298E
1807.353	1.628	1808897	WORD	n/a	n/a	CAGE	11	13	[0, 0, 0]	n/a	FR1	0	R1298E
1808.981	0.834	1810525	WORD_OFF	n/a	n/a	CAGE	11	13	[0, 0, 0]	n/a	FR1	0	R1298E
1809.815	1.632	1811358	WORD	n/a	n/a	FLOOR	12	13	[0, 0, 0]	n/a	FR1	0	R1298E
1811.447	0.001	1812990	WORD_OFF	n/a	n/a	FLOOR	12	13	[0, 0, 0]	n/a	FR1	0	R1298E
1811.448	0.0	1812991	DISTRACT_START	n/a	n/a	n/a	-999	13	[0, 0, 0]	n/a	FR1	0	R1298E
1811.448	0.0	1812991	ENCODING_END	n/a	n/a	n/a	-999	13	[0, 0, 0]	n/a	FR1	0	R1298E
1811.448	0.016	1812991	START	n/a	n/a	n/a	-999	13	[-999, -999, -999]	n/a	FR1	0	R1298E
1811.464	4.402	1813007	PROB	4.402	n/a	n/a	-999	13	[5, 2, 3]	10	FR1	0	R1298E
1815.866	8.5	1817409	PROB	8.5	n/a	n/a	-999	13	[6, 9, 7]	22	FR1	0	R1298E
1824.366	3.284	1825909	PROB	3.284	n/a	n/a	-999	13	[5, 6, 2]	13	FR1	0	R1298E
1827.65	10.154	1829193	PROB	10.154	n/a	n/a	-999	13	[7, 9, 3]	19	FR1	0	R1298E
1837.804	0.016	1839347	STOP	n/a	n/a	n/a	-999	13	[-999, -999, -999]	n/a	FR1	0	R1298E
1837.82	0.624	1839363	DISTRACT_END	n/a	n/a	n/a	-999	13	[0, 0, 0]	n/a	FR1	0	R1298E
1838.444	1.526	1839987	RETRIEVAL_ORIENT_START	n/a	n/a	n/a	-999	13	[0, 0, 0]	n/a	FR1	0	R1298E
1839.97	0.0	1841512	RETRIEVAL_ORIENT_END	n/a	n/a	n/a	-999	13	[0, 0, 0]	n/a	FR1	0	R1298E
1839.97	2.874	1841512	REC_START	n/a	n/a	n/a	-999	13	[0, 0, 0]	n/a	FR1	0	R1298E
1842.844	4.125	1844386	REC_WORD	4.125	n/a	SCHOOL	9	13	[0, 0, 0]	n/a	FR1	0	R1298E
1846.969	9.781	1848511	REC_WORD	9.781	n/a	FRUIT	7	13	[0, 0, 0]	n/a	FR1	0	R1298E
1856.75	13.23	1858292	REC_WORD	13.23	n/a	MOTH	5	13	[0, 0, 0]	n/a	FR1	0	R1298E
1869.98	0.001	1871521	REC_END	n/a	n/a	n/a	-999	13	[0, 0, 0]	n/a	FR1	0	R1298E
1869.981	0.017	1871522	TRIAL_END	n/a	n/a	n/a	-999	13	[0, 0, 0]	n/a	FR1	0	R1298E
1869.998	0.0	1871539	TRIAL_START	n/a	n/a	n/a	-999	14	[0, 0, 0]	n/a	FR1	0	R1298E
1869.998	0.0	1871539	TRIAL	n/a	n/a	n/a	-999	14	[0, 0, 0]	n/a	FR1	0	R1298E
1869.998	5.527	1871539	WAITING_START	n/a	n/a	n/a	-999	14	[0, 0, 0]	n/a	FR1	0	R1298E
1875.525	0.001	1877066	WAITING_END	n/a	n/a	n/a	-999	14	[0, 0, 0]	n/a	FR1	0	R1298E
1875.526	10.429	1877067	COUNTDOWN_START	n/a	n/a	n/a	-999	14	[0, 0, 0]	n/a	FR1	0	R1298E
1885.955	0.0	1887496	COUNTDOWN_END	n/a	n/a	n/a	-999	14	[0, 0, 0]	n/a	FR1	0	R1298E
1885.955	1.139	1887496	ORIENT_START	n/a	n/a	n/a	-999	14	[0, 0, 0]	n/a	FR1	0	R1298E
1887.094	0.0	1888635	ENCODING_START	n/a	n/a	n/a	-999	14	[0, 0, 0]	n/a	FR1	0	R1298E
1887.094	0.904	1888635	ORIENT_END	n/a	n/a	n/a	-999	14	[0, 0, 0]	n/a	FR1	0	R1298E
1887.998	1.63	1889539	WORD	n/a	n/a	BREAD	1	14	[0, 0, 0]	n/a	FR1	0	R1298E
1889.628	1.149	1891169	WORD_OFF	n/a	n/a	BREAD	1	14	[0, 0, 0]	n/a	FR1	0	R1298E
1890.777	1.635	1892318	WORD	n/a	n/a	HOOK	2	14	[0, 0, 0]	n/a	FR1	0	R1298E
1892.412	0.998	1893953	WORD_OFF	n/a	n/a	HOOK	2	14	[0, 0, 0]	n/a	FR1	0	R1298E
1893.41	1.619	1894951	WORD	n/a	n/a	MOON	3	14	[0, 0, 0]	n/a	FR1	0	R1298E
1895.029	1.024	1896570	WORD_OFF	n/a	n/a	MOON	3	14	[0, 0, 0]	n/a	FR1	0	R1298E
1896.053	1.626	1897594	WORD	n/a	n/a	PIPE	4	14	[0, 0, 0]	n/a	FR1	0	R1298E
1897.679	0.97	1899219	WORD_OFF	n/a	n/a	PIPE	4	14	[0, 0, 0]	n/a	FR1	0	R1298E
1898.649	1.631	1900189	WORD	n/a	n/a	SWORD	5	14	[0, 0, 0]	n/a	FR1	0	R1298E
1900.28	1.133	1901820	WORD_OFF	n/a	n/a	SWORD	5	14	[0, 0, 0]	n/a	FR1	0	R1298E
1901.413	1.635	1902953	WORD	n/a	n/a	ICE	6	14	[0, 0, 0]	n/a	FR1	0	R1298E
1903.048	1.033	1904588	WORD_OFF	n/a	n/a	ICE	6	14	[0, 0, 0]	n/a	FR1	0	R1298E
1904.081	1.633	1905621	WORD	n/a	n/a	DRESS	7	14	[0, 0, 0]	n/a	FR1	0	R1298E
1905.714	0.858	1907254	WORD_OFF	n/a	n/a	DRESS	7	14	[0, 0, 0]	n/a	FR1	0	R1298E
1906.572	1.626	1908112	WORD	n/a	n/a	FOAM	8	14	[0, 0, 0]	n/a	FR1	0	R1298E
1908.198	0.819	1909738	WORD_OFF	n/a	n/a	FOAM	8	14	[0, 0, 0]	n/a	FR1	0	R1298E
1909.017	1.631	1910557	WORD	n/a	n/a	BRANCH	9	14	[0, 0, 0]	n/a	FR1	0	R1298E
1910.648	0.898	1912188	WORD_OFF	n/a	n/a	BRANCH	9	14	[0, 0, 0]	n/a	FR1	0	R1298E
1911.546	1.636	1913086	WORD	n/a	n/a	CHAIR	10	14	[0, 0, 0]	n/a	FR1	0	R1298E
1913.182	1.02	1914722	WORD_OFF	n/a	n/a	CHAIR	10	14	[0, 0, 0]	n/a	FR1	0	R1298E
1914.202	1.631	1915742	WORD	n/a	n/a	BED	11	14	[0, 0, 0]	n/a	FR1	0	R1298E
1915.833	0.951	1917373	WORD_OFF	n/a	n/a	BED	11	14	[0, 0, 0]	n/a	FR1	0	R1298E
1916.784	1.632	1918324	WORD	n/a	n/a	NEST	12	14	[0, 0, 0]	n/a	FR1	0	R1298E
1918.416	0.0	1919956	WORD_OFF	n/a	n/a	NEST	12	14	[0, 0, 0]	n/a	FR1	0	R1298E
1918.416	0.001	1919956	ENCODING_END	n/a	n/a	n/a	-999	14	[0, 0, 0]	n/a	FR1	0	R1298E
1918.417	0.0	1919957	DISTRACT_START	n/a	n/a	n/a	-999	14	[0, 0, 0]	n/a	FR1	0	R1298E
1918.417	0.016	1919957	START	n/a	n/a	n/a	-999	14	[-999, -999, -999]	n/a	FR1	0	R1298E
1918.433	6.301	1919973	PROB	6.301	n/a	n/a	-999	14	[5, 7, 8]	20	FR1	0	R1298E
1924.734	5.367	1926274	PROB	5.367	n/a	n/a	-999	14	[5, 4, 3]	12	FR1	0	R1298E
1930.101	3.752	1931640	PROB	3.752	n/a	n/a	-999	14	[8, 1, 1]	10	FR1	0	R1298E
1933.853	5.215	1935392	PROB	5.215	n/a	n/a	-999	14	[1, 4, 9]	14	FR1	0	R1298E
1939.068	0.018	1940607	STOP	n/a	n/a	n/a	-999	14	[-999, -999, -999]	n/a	FR1	0	R1298E
1939.086	0.658	1940625	DISTRACT_END	n/a	n/a	n/a	-999	14	[0, 0, 0]	n/a	FR1	0	R1298E
1939.744	1.659	1941283	RETRIEVAL_ORIENT_START	n/a	n/a	n/a	-999	14	[0, 0, 0]	n/a	FR1	0	R1298E
1941.403	0.001	1942942	RETRIEVAL_ORIENT_END	n/a	n/a	n/a	-999	14	[0, 0, 0]	n/a	FR1	0	R1298E
1941.404	1.694	1942943	REC_START	n/a	n/a	n/a	-999	14	[0, 0, 0]	n/a	FR1	0	R1298E
1943.098	2.725	1944637	REC_WORD	2.725	n/a	CHAIR	10	14	[0, 0, 0]	n/a	FR1	0	R1298E
1945.823	6.212	1947362	REC_WORD	6.212	n/a	BED	11	14	[0, 0, 0]	n/a	FR1	0	R1298E
1952.035	1.0	1953574	REC_WORD	1.0	n/a	BRANCH	9	14	[0, 0, 0]	n/a	FR1	0	R1298E
1953.035	5.308	1954574	REC_WORD_VV	5.308	n/a	<>	-999	14	[0, 0, 0]	n/a	FR1	0	R1298E
1958.343	13.071	1959881	REC_WORD	13.071	n/a	FOAM	8	14	[0, 0, 0]	n/a	FR1	0	R1298E
1971.414	0.0	1972952	TRIAL_END	n/a	n/a	n/a	-999	14	[0, 0, 0]	n/a	FR1	0	R1298E
1971.414	0.017	1972952	REC_END	n/a	n/a	n/a	-999	14	[0, 0, 0]	n/a	FR1	0	R1298E
1971.431	0.0	1972969	TRIAL_START	n/a	n/a	n/a	-999	15	[0, 0, 0]	n/a	FR1	0	R1298E
1971.431	0.0	1972969	TRIAL	n/a	n/a	n/a	-999	15	[0, 0, 0]	n/a	FR1	0	R1298E
1971.431	5.062	1972969	WAITING_START	n/a	n/a	n/a	-999	15	[0, 0, 0]	n/a	FR1	0	R1298E
1976.493	0.0	1978031	WAITING_END	n/a	n/a	n/a	-999	15	[0, 0, 0]	n/a	FR1	0	R1298E
1976.493	10.431	1978031	COUNTDOWN_START	n/a	n/a	n/a	-999	15	[0, 0, 0]	n/a	FR1	0	R1298E
1986.924	0.0	1988461	COUNTDOWN_END	n/a	n/a	n/a	-999	15	[0, 0, 0]	n/a	FR1	0	R1298E
1986.924	1.072	1988461	ORIENT_START	n/a	n/a	n/a	-999	15	[0, 0, 0]	n/a	FR1	0	R1298E
1987.996	0.0	1989533	ENCODING_START	n/a	n/a	n/a	-999	15	[0, 0, 0]	n/a	FR1	0	R1298E
1987.996	0.91	1989533	ORIENT_END	n/a	n/a	n/a	-999	15	[0, 0, 0]	n/a	FR1	0	R1298E
1988.906	1.623	1990443	WORD	n/a	n/a	LAWN	1	15	[0, 0, 0]	n/a	FR1	0	R1298E
1990.529	0.994	1992066	WORD_OFF	n/a	n/a	LAWN	1	15	[0, 0, 0]	n/a	FR1	0	R1298E
1991.523	1.623	1993060	WORD	n/a	n/a	TRUCK	2	15	[0, 0, 0]	n/a	FR1	0	R1298E
1993.146	1.054	1994683	WORD_OFF	n/a	n/a	TRUCK	2	15	[0, 0, 0]	n/a	FR1	0	R1298E
1994.2	1.614	1995737	WORD	n/a	n/a	CUBE	3	15	[0, 0, 0]	n/a	FR1	0	R1298E
1995.814	0.912	1997351	WORD_OFF	n/a	n/a	CUBE	3	15	[0, 0, 0]	n/a	FR1	0	R1298E
1996.726	1.621	1998263	WORD	n/a	n/a	OAK	4	15	[0, 0, 0]	n/a	FR1	0	R1298E
1998.347	1.022	1999884	WORD_OFF	n/a	n/a	OAK	4	15	[0, 0, 0]	n/a	FR1	0	R1298E
1999.369	1.612	2000906	WORD	n/a	n/a	SQUARE	5	15	[0, 0, 0]	n/a	FR1	0	R1298E
2000.981	1.089	2002518	WORD_OFF	n/a	n/a	SQUARE	5	15	[0, 0, 0]	n/a	FR1	0	R1298E
2002.07	1.628	2003607	WORD	n/a	n/a	ROAD	6	15	[0, 0, 0]	n/a	FR1	0	R1298E
2003.698	0.814	2005235	WORD_OFF	n/a	n/a	ROAD	6	15	[0, 0, 0]	n/a	FR1	0	R1298E
2004.512	1.636	2006049	WORD	n/a	n/a	FOOD	7	15	[0, 0, 0]	n/a	FR1	0	R1298E
2006.148	1.081	2007685	WORD_OFF	n/a	n/a	FOOD	7	15	[0, 0, 0]	n/a	FR1	0	R1298E
2007.229	1.637	2008766	WORD	n/a	n/a	TOE	8	15	[0, 0, 0]	n/a	FR1	0	R1298E
2008.866	0.892	2010403	WORD_OFF	n/a	n/a	TOE	8	15	[0, 0, 0]	n/a	FR1	0	R1298E
2009.758	1.624	2011295	WORD	n/a	n/a	TENT	9	15	[0, 0, 0]	n/a	FR1	0	R1298E
2011.382	1.149	2012919	WORD_OFF	n/a	n/a	TENT	9	15	[0, 0, 0]	n/a	FR1	0	R1298E
2012.531	1.635	2014068	WORD	n/a	n/a	BRICK	10	15	[0, 0, 0]	n/a	FR1	0	R1298E
2014.166	1.046	2015702	WORD_OFF	n/a	n/a	BRICK	10	15	[0, 0, 0]	n/a	FR1	0	R1298E
2015.212	1.606	2016748	WORD	n/a	n/a	WOOD	11	15	[0, 0, 0]	n/a	FR1	0	R1298E
2016.818	1.075	2018354	WORD_OFF	n/a	n/a	WOOD	11	15	[0, 0, 0]	n/a	FR1	0	R1298E
2017.893	1.624	2019429	WORD	n/a	n/a	LAMP	12	15	[0, 0, 0]	n/a	FR1	0	R1298E
2019.517	0.001	2021053	WORD_OFF	n/a	n/a	LAMP	12	15	[0, 0, 0]	n/a	FR1	0	R1298E
2019.518	0.0	2021054	ENCODING_END	n/a	n/a	n/a	-999	15	[0, 0, 0]	n/a	FR1	0	R1298E
2019.518	0.0	2021054	DISTRACT_START	n/a	n/a	n/a	-999	15	[0, 0, 0]	n/a	FR1	0	R1298E
2019.518	0.016	2021054	START	n/a	n/a	n/a	-999	15	[-999, -999, -999]	n/a	FR1	0	R1298E
2019.534	7.668	2021070	PROB	7.668	n/a	n/a	-999	15	[1, 8, 7]	16	FR1	0	R1298E
2027.202	4.367	2028738	PROB	4.367	n/a	n/a	-999	15	[2, 5, 3]	10	FR1	0	R1298E
2031.569	5.335	2033105	PROB	5.335	n/a	n/a	-999	15	[8, 1, 7]	16	FR1	0	R1298E
2036.904	6.038	2038440	PROB	6.038	n/a	n/a	-999	15	[9, 2, 7]	18	FR1	0	R1298E
2042.942	0.013	2044477	STOP	n/a	n/a	n/a	-999	15	[-999, -999, -999]	n/a	FR1	0	R1298E
2042.955	0.552	2044490	DISTRACT_END	n/a	n/a	n/a	-999	15	[0, 0, 0]	n/a	FR1	0	R1298E
2043.507	1.549	2045042	RETRIEVAL_ORIENT_START	n/a	n/a	n/a	-999	15	[0, 0, 0]	n/a	FR1	0	R1298E
2045.056	0.0	2046591	RETRIEVAL_ORIENT_END	n/a	n/a	n/a	-999	15	[0, 0, 0]	n/a	FR1	0	R1298E
2045.056	4.485	2046591	REC_START	n/a	n/a	n/a	-999	15	[0, 0, 0]	n/a	FR1	0	R1298E
2049.541	3.995	2051076	REC_WORD	3.995	n/a	ROAD	6	15	[0, 0, 0]	n/a	FR1	0	R1298E
2053.536	21.531	2055071	REC_WORD	21.531	n/a	FOOD	7	15	[0, 0, 0]	n/a	FR1	0	R1298E
2075.067	0.001	2076601	REC_END	n/a	n/a	n/a	-999	15	[0, 0, 0]	n/a	FR1	0	R1298E
2075.068	0.016	2076602	TRIAL_END	n/a	n/a	n/a	-999	15	[0, 0, 0]	n/a	FR1	0	R1298E
2075.084	0.0	2076618	TRIAL	n/a	n/a	n/a	-999	16	[0, 0, 0]	n/a	FR1	0	R1298E
2075.084	0.0	2076618	TRIAL_START	n/a	n/a	n/a	-999	16	[0, 0, 0]	n/a	FR1	0	R1298E
2075.084	5.377	2076618	WAITING_START	n/a	n/a	n/a	-999	16	[0, 0, 0]	n/a	FR1	0	R1298E
2080.461	0.001	2081995	WAITING_END	n/a	n/a	n/a	-999	16	[0, 0, 0]	n/a	FR1	0	R1298E
2080.462	10.429	2081996	COUNTDOWN_START	n/a	n/a	n/a	-999	16	[0, 0, 0]	n/a	FR1	0	R1298E
2090.891	0.0	2092425	COUNTDOWN_END	n/a	n/a	n/a	-999	16	[0, 0, 0]	n/a	FR1	0	R1298E
2090.891	1.057	2092425	ORIENT_START	n/a	n/a	n/a	-999	16	[0, 0, 0]	n/a	FR1	0	R1298E
2091.948	0.0	2093482	ORIENT_END	n/a	n/a	n/a	-999	16	[0, 0, 0]	n/a	FR1	0	R1298E
2091.948	0.807	2093482	ENCODING_START	n/a	n/a	n/a	-999	16	[0, 0, 0]	n/a	FR1	0	R1298E
2092.755	1.625	2094289	WORD	n/a	n/a	LAMB	1	16	[0, 0, 0]	n/a	FR1	0	R1298E
2094.38	0.839	2095914	WORD_OFF	n/a	n/a	LAMB	1	16	[0, 0, 0]	n/a	FR1	0	R1298E
2095.219	1.629	2096753	WORD	n/a	n/a	WING	2	16	[0, 0, 0]	n/a	FR1	0	R1298E
2096.848	0.866	2098382	WORD_OFF	n/a	n/a	WING	2	16	[0, 0, 0]	n/a	FR1	0	R1298E
2097.714	1.634	2099248	WORD	n/a	n/a	DOOR	3	16	[0, 0, 0]	n/a	FR1	0	R1298E
2099.348	0.971	2100882	WORD_OFF	n/a	n/a	DOOR	3	16	[0, 0, 0]	n/a	FR1	0	R1298E
2100.319	1.63	2101853	WORD	n/a	n/a	SKI	4	16	[0, 0, 0]	n/a	FR1	0	R1298E
2101.949	1.008	2103482	WORD_OFF	n/a	n/a	SKI	4	16	[0, 0, 0]	n/a	FR1	0	R1298E
2102.957	1.625	2104490	WORD	n/a	n/a	RAKE	5	16	[0, 0, 0]	n/a	FR1	0	R1298E
2104.582	0.89	2106115	WORD_OFF	n/a	n/a	RAKE	5	16	[0, 0, 0]	n/a	FR1	0	R1298E
2105.472	1.627	2107005	WORD	n/a	n/a	ANT	6	16	[0, 0, 0]	n/a	FR1	0	R1298E
2107.099	0.843	2108632	WORD_OFF	n/a	n/a	ANT	6	16	[0, 0, 0]	n/a	FR1	0	R1298E
2107.942	1.624	2109475	WORD	n/a	n/a	CLAY	7	16	[0, 0, 0]	n/a	FR1	0	R1298E
2109.566	0.879	2111099	WORD_OFF	n/a	n/a	CLAY	7	16	[0, 0, 0]	n/a	FR1	0	R1298E
2110.445	1.623	2111978	WORD	n/a	n/a	SOAP	8	16	[0, 0, 0]	n/a	FR1	0	R1298E
2112.068	0.879	2113601	WORD_OFF	n/a	n/a	SOAP	8	16	[0, 0, 0]	n/a	FR1	0	R1298E
2112.947	1.62	2114480	WORD	n/a	n/a	TOOL	9	16	[0, 0, 0]	n/a	FR1	0	R1298E
2114.567	0.85	2116100	WORD_OFF	n/a	n/a	TOOL	9	16	[0, 0, 0]	n/a	FR1	0	R1298E
2115.417	1.618	2116950	WORD	n/a	n/a	DART	10	16	[0, 0, 0]	n/a	FR1	0	R1298E
2117.035	1.084	2118568	WORD_OFF	n/a	n/a	DART	10	16	[0, 0, 0]	n/a	FR1	0	R1298E
2118.119	1.632	2119652	WORD	n/a	n/a	SMOKE	11	16	[0, 0, 0]	n/a	FR1	0	R1298E
2119.751	0.963	2121284	WORD_OFF	n/a	n/a	SMOKE	11	16	[0, 0, 0]	n/a	FR1	0	R1298E
2120.714	1.621	2122247	WORD	n/a	n/a	SLUSH	12	16	[0, 0, 0]	n/a	FR1	0	R1298E
2122.335	0.001	2123868	WORD_OFF	n/a	n/a	SLUSH	12	16	[0, 0, 0]	n/a	FR1	0	R1298E
2122.336	0.0	2123869	ENCODING_END	n/a	n/a	n/a	-999	16	[0, 0, 0]	n/a	FR1	0	R1298E
2122.336	0.0	2123869	DISTRACT_START	n/a	n/a	n/a	-999	16	[0, 0, 0]	n/a	FR1	0	R1298E
2122.336	0.016	2123869	START	n/a	n/a	n/a	-999	16	[-999, -999, -999]	n/a	FR1	0	R1298E
2122.352	7.184	2123885	PROB	7.184	n/a	n/a	-999	16	[7, 2, 5]	14	FR1	0	R1298E
2129.536	5.568	2131069	PROB	5.568	n/a	n/a	-999	16	[8, 3, 4]	15	FR1	0	R1298E
2135.104	6.551	2136636	PROB	6.551	n/a	n/a	-999	16	[1, 3, 7]	11	FR1	0	R1298E
2141.655	5.736	2143187	PROB	5.736	n/a	n/a	-999	16	[9, 4, 5]	18	FR1	0	R1298E
2147.391	0.015	2148923	STOP	n/a	n/a	n/a	-999	16	[-999, -999, -999]	n/a	FR1	0	R1298E
2147.406	0.665	2148938	DISTRACT_END	n/a	n/a	n/a	-999	16	[0, 0, 0]	n/a	FR1	0	R1298E
2148.071	1.552	2149603	RETRIEVAL_ORIENT_START	n/a	n/a	n/a	-999	16	[0, 0, 0]	n/a	FR1	0	R1298E
2149.623	0.001	2151155	RETRIEVAL_ORIENT_END	n/a	n/a	n/a	-999	16	[0, 0, 0]	n/a	FR1	0	R1298E
2149.624	2.104	2151156	REC_START	n/a	n/a	n/a	-999	16	[0, 0, 0]	n/a	FR1	0	R1298E
2151.728	0.705	2153260	REC_WORD_VV	0.705	n/a	<>	-999	16	[0, 0, 0]	n/a	FR1	0	R1298E
2152.433	1.193	2153965	REC_WORD	1.193	n/a	SMOKE	11	16	[0, 0, 0]	n/a	FR1	0	R1298E
2153.626	1.326	2155158	REC_WORD_VV	1.326	n/a	<>	-999	16	[0, 0, 0]	n/a	FR1	0	R1298E
2154.952	8.015	2156484	REC_WORD	8.015	n/a	TOOL	9	16	[0, 0, 0]	n/a	FR1	0	R1298E
2162.967	6.427	2164498	REC_WORD	6.427	n/a	SOAP	8	16	[0, 0, 0]	n/a	FR1	0	R1298E
2169.394	10.24	2170925	REC_WORD	10.24	n/a	CLAY	7	16	[0, 0, 0]	n/a	FR1	0	R1298E
2179.634	0.0	2181165	REC_END	n/a	n/a	n/a	-999	16	[0, 0, 0]	n/a	FR1	0	R1298E
2179.634	0.017	2181165	TRIAL_END	n/a	n/a	n/a	-999	16	[0, 0, 0]	n/a	FR1	0	R1298E
2179.651	0.0	2181182	TRIAL_START	n/a	n/a	n/a	-999	17	[0, 0, 0]	n/a	FR1	0	R1298E
2179.651	0.001	2181182	TRIAL	n/a	n/a	n/a	-999	17	[0, 0, 0]	n/a	FR1	0	R1298E
2179.652	5.262	2181183	WAITING_START	n/a	n/a	n/a	-999	17	[0, 0, 0]	n/a	FR1	0	R1298E
2184.914	0.0	2186445	WAITING_END	n/a	n/a	n/a	-999	17	[0, 0, 0]	n/a	FR1	0	R1298E
2184.914	10.43	2186445	COUNTDOWN_START	n/a	n/a	n/a	-999	17	[0, 0, 0]	n/a	FR1	0	R1298E
2195.344	0.0	2196874	COUNTDOWN_END	n/a	n/a	n/a	-999	17	[0, 0, 0]	n/a	FR1	0	R1298E
2195.344	1.054	2196874	ORIENT_START	n/a	n/a	n/a	-999	17	[0, 0, 0]	n/a	FR1	0	R1298E
2196.398	0.001	2197928	ORIENT_END	n/a	n/a	n/a	-999	17	[0, 0, 0]	n/a	FR1	0	R1298E
2196.399	1.008	2197929	ENCODING_START	n/a	n/a	n/a	-999	17	[0, 0, 0]	n/a	FR1	0	R1298E
2197.407	1.626	2198937	WORD	n/a	n/a	HILL	1	17	[0, 0, 0]	n/a	FR1	0	R1298E
2199.033	0.754	2200563	WORD_OFF	n/a	n/a	HILL	1	17	[0, 0, 0]	n/a	FR1	0	R1298E
2199.787	1.629	2201317	WORD	n/a	n/a	OWL	2	17	[0, 0, 0]	n/a	FR1	0	R1298E
2201.416	1.131	2202946	WORD_OFF	n/a	n/a	OWL	2	17	[0, 0, 0]	n/a	FR1	0	R1298E
2202.547	1.636	2204077	WORD	n/a	n/a	WEED	3	17	[0, 0, 0]	n/a	FR1	0	R1298E
2204.183	1.08	2205713	WORD_OFF	n/a	n/a	WEED	3	17	[0, 0, 0]	n/a	FR1	0	R1298E
2205.263	1.604	2206793	WORD	n/a	n/a	YARD	4	17	[0, 0, 0]	n/a	FR1	0	R1298E
2206.867	1.081	2208397	WORD_OFF	n/a	n/a	YARD	4	17	[0, 0, 0]	n/a	FR1	0	R1298E
2207.948	1.636	2209478	WORD	n/a	n/a	ROCK	5	17	[0, 0, 0]	n/a	FR1	0	R1298E
2209.584	1.096	2211114	WORD_OFF	n/a	n/a	ROCK	5	17	[0, 0, 0]	n/a	FR1	0	R1298E
2210.68	1.638	2212210	WORD	n/a	n/a	SLIME	6	17	[0, 0, 0]	n/a	FR1	0	R1298E
2212.318	0.754	2213848	WORD_OFF	n/a	n/a	SLIME	6	17	[0, 0, 0]	n/a	FR1	0	R1298E
2213.072	1.629	2214602	WORD	n/a	n/a	MAP	7	17	[0, 0, 0]	n/a	FR1	0	R1298E
2214.701	1.104	2216231	WORD_OFF	n/a	n/a	MAP	7	17	[0, 0, 0]	n/a	FR1	0	R1298E
2215.805	1.63	2217335	WORD	n/a	n/a	ROOM	8	17	[0, 0, 0]	n/a	FR1	0	R1298E
2217.435	1.069	2218965	WORD_OFF	n/a	n/a	ROOM	8	17	[0, 0, 0]	n/a	FR1	0	R1298E
2218.504	1.632	2220033	WORD	n/a	n/a	LEAF	9	17	[0, 0, 0]	n/a	FR1	0	R1298E
2220.136	1.109	2221665	WORD_OFF	n/a	n/a	LEAF	9	17	[0, 0, 0]	n/a	FR1	0	R1298E
2221.245	1.609	2222774	WORD	n/a	n/a	SUN	10	17	[0, 0, 0]	n/a	FR1	0	R1298E
2222.854	1.074	2224383	WORD_OFF	n/a	n/a	SUN	10	17	[0, 0, 0]	n/a	FR1	0	R1298E
2223.928	1.626	2225457	WORD	n/a	n/a	WALL	11	17	[0, 0, 0]	n/a	FR1	0	R1298E
2225.554	0.858	2227083	WORD_OFF	n/a	n/a	WALL	11	17	[0, 0, 0]	n/a	FR1	0	R1298E
2226.412	1.609	2227941	WORD	n/a	n/a	PIE	12	17	[0, 0, 0]	n/a	FR1	0	R1298E
2228.021	0.001	2229550	WORD_OFF	n/a	n/a	PIE	12	17	[0, 0, 0]	n/a	FR1	0	R1298E
2228.022	0.0	2229551	ENCODING_END	n/a	n/a	n/a	-999	17	[0, 0, 0]	n/a	FR1	0	R1298E
2228.022	0.0	2229551	DISTRACT_START	n/a	n/a	n/a	-999	17	[0, 0, 0]	n/a	FR1	0	R1298E
2228.022	0.016	2229551	START	n/a	n/a	n/a	-999	17	[-999, -999, -999]	n/a	FR1	0	R1298E
2228.038	4.133	2229567	PROB	4.133	n/a	n/a	-999	17	[1, 2, 7]	10	FR1	0	R1298E
2232.171	6.034	2233700	PROB	6.034	n/a	n/a	-999	17	[1, 7, 6]	14	FR1	0	R1298E
2238.205	7.902	2239734	PROB	7.902	n/a	n/a	-999	17	[9, 7, 2]	18	FR1	0	R1298E
2246.107	5.191	2247636	PROB	5.191	n/a	n/a	-999	17	[3, 7, 8]	18	FR1	0	R1298E
2251.298	0.01	2252826	STOP	n/a	n/a	n/a	-999	17	[-999, -999, -999]	n/a	FR1	0	R1298E
2251.308	0.555	2252836	DISTRACT_END	n/a	n/a	n/a	-999	17	[0, 0, 0]	n/a	FR1	0	R1298E
2251.863	1.645	2253391	RETRIEVAL_ORIENT_START	n/a	n/a	n/a	-999	17	[0, 0, 0]	n/a	FR1	0	R1298E
2253.508	0.001	2255036	RETRIEVAL_ORIENT_END	n/a	n/a	n/a	-999	17	[0, 0, 0]	n/a	FR1	0	R1298E
2253.509	1.895	2255037	REC_START	n/a	n/a	n/a	-999	17	[0, 0, 0]	n/a	FR1	0	R1298E
2255.404	3.104	2256932	REC_WORD	3.104	n/a	WALL	11	17	[0, 0, 0]	n/a	FR1	0	R1298E
2258.508	5.232	2260036	REC_WORD	5.232	n/a	WEED	3	17	[0, 0, 0]	n/a	FR1	0	R1298E
2263.74	5.587	2265268	REC_WORD	5.587	n/a	HOUSE	-999	17	[0, 0, 0]	n/a	FR1	0	R1298E
2269.327	14.191	2270855	REC_WORD	14.191	n/a	PIE	12	17	[0, 0, 0]	n/a	FR1	0	R1298E
2283.518	0.0	2285045	REC_END	n/a	n/a	n/a	-999	17	[0, 0, 0]	n/a	FR1	0	R1298E
2283.518	0.017	2285045	TRIAL_END	n/a	n/a	n/a	-999	17	[0, 0, 0]	n/a	FR1	0	R1298E
2283.535	0.001	2285062	TRIAL_START	n/a	n/a	n/a	-999	18	[0, 0, 0]	n/a	FR1	0	R1298E
2283.536	0.0	2285063	TRIAL	n/a	n/a	n/a	-999	18	[0, 0, 0]	n/a	FR1	0	R1298E
2283.536	20.399	2285063	WAITING_START	n/a	n/a	n/a	-999	18	[0, 0, 0]	n/a	FR1	0	R1298E
2303.935	0.0	2305462	COUNTDOWN_START	n/a	n/a	n/a	-999	18	[0, 0, 0]	n/a	FR1	0	R1298E
2303.935	10.429	2305462	WAITING_END	n/a	n/a	n/a	-999	18	[0, 0, 0]	n/a	FR1	0	R1298E
2314.364	0.0	2315890	COUNTDOWN_END	n/a	n/a	n/a	-999	18	[0, 0, 0]	n/a	FR1	0	R1298E
2314.364	1.172	2315890	ORIENT_START	n/a	n/a	n/a	-999	18	[0, 0, 0]	n/a	FR1	0	R1298E
2315.536	0.0	2317062	ORIENT_END	n/a	n/a	n/a	-999	18	[0, 0, 0]	n/a	FR1	0	R1298E
2315.536	1.065	2317062	ENCODING_START	n/a	n/a	n/a	-999	18	[0, 0, 0]	n/a	FR1	0	R1298E
2316.601	1.635	2318127	WORD	n/a	n/a	BLUSH	1	18	[0, 0, 0]	n/a	FR1	0	R1298E
2318.236	0.964	2319762	WORD_OFF	n/a	n/a	BLUSH	1	18	[0, 0, 0]	n/a	FR1	0	R1298E
2319.2	1.638	2320726	WORD	n/a	n/a	SUIT	2	18	[0, 0, 0]	n/a	FR1	0	R1298E
2320.838	1.029	2322364	WORD_OFF	n/a	n/a	SUIT	2	18	[0, 0, 0]	n/a	FR1	0	R1298E
2321.867	1.62	2323393	WORD	n/a	n/a	ROSE	3	18	[0, 0, 0]	n/a	FR1	0	R1298E
2323.487	0.886	2325013	WORD_OFF	n/a	n/a	ROSE	3	18	[0, 0, 0]	n/a	FR1	0	R1298E
2324.373	1.615	2325899	WORD	n/a	n/a	FOOT	4	18	[0, 0, 0]	n/a	FR1	0	R1298E
2325.988	1.078	2327514	WORD_OFF	n/a	n/a	FOOT	4	18	[0, 0, 0]	n/a	FR1	0	R1298E
2327.066	1.622	2328592	WORD	n/a	n/a	HORSE	5	18	[0, 0, 0]	n/a	FR1	0	R1298E
2328.688	1.043	2330214	WORD_OFF	n/a	n/a	HORSE	5	18	[0, 0, 0]	n/a	FR1	0	R1298E
2329.731	1.624	2331257	WORD	n/a	n/a	PLATE	6	18	[0, 0, 0]	n/a	FR1	0	R1298E
2331.355	1.14	2332881	WORD_OFF	n/a	n/a	PLATE	6	18	[0, 0, 0]	n/a	FR1	0	R1298E
2332.495	1.627	2334021	WORD	n/a	n/a	CLIFF	7	18	[0, 0, 0]	n/a	FR1	0	R1298E
2334.122	0.801	2335648	WORD_OFF	n/a	n/a	CLIFF	7	18	[0, 0, 0]	n/a	FR1	0	R1298E
2334.923	1.633	2336448	WORD	n/a	n/a	FACE	8	18	[0, 0, 0]	n/a	FR1	0	R1298E
2336.556	1.081	2338081	WORD_OFF	n/a	n/a	FACE	8	18	[0, 0, 0]	n/a	FR1	0	R1298E
2337.637	1.636	2339162	WORD	n/a	n/a	STEAK	9	18	[0, 0, 0]	n/a	FR1	0	R1298E
2339.273	0.898	2340798	WORD_OFF	n/a	n/a	STEAK	9	18	[0, 0, 0]	n/a	FR1	0	R1298E
2340.171	1.637	2341696	WORD	n/a	n/a	CLOTH	10	18	[0, 0, 0]	n/a	FR1	0	R1298E
2341.808	1.114	2343333	WORD_OFF	n/a	n/a	CLOTH	10	18	[0, 0, 0]	n/a	FR1	0	R1298E
2342.922	1.636	2344447	WORD	n/a	n/a	VASE	11	18	[0, 0, 0]	n/a	FR1	0	R1298E
2344.558	0.912	2346083	WORD_OFF	n/a	n/a	VASE	11	18	[0, 0, 0]	n/a	FR1	0	R1298E
2345.47	1.621	2346995	WORD	n/a	n/a	JUICE	12	18	[0, 0, 0]	n/a	FR1	0	R1298E
2347.091	0.001	2348616	WORD_OFF	n/a	n/a	JUICE	12	18	[0, 0, 0]	n/a	FR1	0	R1298E
2347.092	0.0	2348617	ENCODING_END	n/a	n/a	n/a	-999	18	[0, 0, 0]	n/a	FR1	0	R1298E
2347.092	0.0	2348617	DISTRACT_START	n/a	n/a	n/a	-999	18	[0, 0, 0]	n/a	FR1	0	R1298E
2347.092	0.016	2348617	START	n/a	n/a	n/a	-999	18	[-999, -999, -999]	n/a	FR1	0	R1298E
2347.108	3.735	2348633	PROB	3.735	n/a	n/a	-999	18	[3, 3, 3]	9	FR1	0	R1298E
2350.843	2.967	2352368	PROB	2.967	n/a	n/a	-999	18	[2, 2, 2]	6	FR1	0	R1298E
2353.81	6.934	2355335	PROB	6.934	n/a	n/a	-999	18	[8, 2, 9]	19	FR1	0	R1298E
2360.744	2.767	2362269	PROB	2.767	n/a	n/a	-999	18	[2, 1, 1]	4	FR1	0	R1298E
2363.511	3.285	2365036	PROB	3.285	n/a	n/a	-999	18	[3, 6, 2]	11	FR1	0	R1298E
2366.796	7.7	2368320	PROB	7.7	n/a	n/a	-999	18	[1, 6, 6]	13	FR1	0	R1298E
2374.496	0.017	2376020	STOP	n/a	n/a	n/a	-999	18	[-999, -999, -999]	n/a	FR1	0	R1298E
2374.513	0.504	2376037	DISTRACT_END	n/a	n/a	n/a	-999	18	[0, 0, 0]	n/a	FR1	0	R1298E
2375.017	1.58	2376541	RETRIEVAL_ORIENT_START	n/a	n/a	n/a	-999	18	[0, 0, 0]	n/a	FR1	0	R1298E
2376.597	0.0	2378121	RETRIEVAL_ORIENT_END	n/a	n/a	n/a	-999	18	[0, 0, 0]	n/a	FR1	0	R1298E
2376.597	4.095	2378121	REC_START	n/a	n/a	n/a	-999	18	[0, 0, 0]	n/a	FR1	0	R1298E
2380.692	1.0	2382216	REC_WORD	1.0	n/a	SUIT	2	18	[0, 0, 0]	n/a	FR1	0	R1298E
2381.692	5.0	2383216	REC_WORD_VV	5.0	n/a	<>	-999	18	[0, 0, 0]	n/a	FR1	0	R1298E
2386.692	9.613	2388216	REC_WORD	9.613	n/a	PLATE	6	18	[0, 0, 0]	n/a	FR1	0	R1298E
2396.305	1.0	2397828	REC_WORD	1.0	n/a	STEAK	9	18	[0, 0, 0]	n/a	FR1	0	R1298E
2397.305	6.887	2398828	REC_WORD_VV	6.887	n/a	<>	-999	18	[0, 0, 0]	n/a	FR1	0	R1298E
2404.192	2.415	2405715	REC_WORD	2.415	n/a	SUN	-999	18	[0, 0, 0]	n/a	FR1	0	R1298E
2406.607	0.0	2408130	REC_END	n/a	n/a	n/a	-999	18	[0, 0, 0]	n/a	FR1	0	R1298E
2406.607	0.018	2408130	TRIAL_END	n/a	n/a	n/a	-999	18	[0, 0, 0]	n/a	FR1	0	R1298E
2406.625	0.001	2408148	TRIAL_START	n/a	n/a	n/a	-999	19	[0, 0, 0]	n/a	FR1	0	R1298E
2406.626	0.0	2408149	TRIAL	n/a	n/a	n/a	-999	19	[0, 0, 0]	n/a	FR1	0	R1298E
2406.626	6.01	2408149	WAITING_START	n/a	n/a	n/a	-999	19	[0, 0, 0]	n/a	FR1	0	R1298E
2412.636	0.001	2414159	WAITING_END	n/a	n/a	n/a	-999	19	[0, 0, 0]	n/a	FR1	0	R1298E
2412.637	10.429	2414160	COUNTDOWN_START	n/a	n/a	n/a	-999	19	[0, 0, 0]	n/a	FR1	0	R1298E
2423.066	0.0	2424588	COUNTDOWN_END	n/a	n/a	n/a	-999	19	[0, 0, 0]	n/a	FR1	0	R1298E
2423.066	1.122	2424588	ORIENT_START	n/a	n/a	n/a	-999	19	[0, 0, 0]	n/a	FR1	0	R1298E
2424.188	0.001	2425710	ORIENT_END	n/a	n/a	n/a	-999	19	[0, 0, 0]	n/a	FR1	0	R1298E
2424.189	0.887	2425711	ENCODING_START	n/a	n/a	n/a	-999	19	[0, 0, 0]	n/a	FR1	0	R1298E
2425.076	1.629	2426598	WORD	n/a	n/a	PIN	1	19	[0, 0, 0]	n/a	FR1	0	R1298E
2426.705	0.917	2428227	WORD_OFF	n/a	n/a	PIN	1	19	[0, 0, 0]	n/a	FR1	0	R1298E
2427.622	1.634	2429144	WORD	n/a	n/a	FORT	2	19	[0, 0, 0]	n/a	FR1	0	R1298E
2429.256	1.136	2430778	WORD_OFF	n/a	n/a	FORT	2	19	[0, 0, 0]	n/a	FR1	0	R1298E
2430.392	1.632	2431914	WORD	n/a	n/a	TOAST	3	19	[0, 0, 0]	n/a	FR1	0	R1298E
2432.024	1.055	2433546	WORD_OFF	n/a	n/a	TOAST	3	19	[0, 0, 0]	n/a	FR1	0	R1298E
2433.079	1.628	2434601	WORD	n/a	n/a	PRINCE	4	19	[0, 0, 0]	n/a	FR1	0	R1298E
2434.707	0.805	2436229	WORD_OFF	n/a	n/a	PRINCE	4	19	[0, 0, 0]	n/a	FR1	0	R1298E
2435.512	1.629	2437034	WORD	n/a	n/a	CAR	5	19	[0, 0, 0]	n/a	FR1	0	R1298E
2437.141	1.038	2438663	WORD_OFF	n/a	n/a	CAR	5	19	[0, 0, 0]	n/a	FR1	0	R1298E
2438.179	1.613	2439701	WORD	n/a	n/a	DESK	6	19	[0, 0, 0]	n/a	FR1	0	R1298E
2439.792	1.105	2441314	WORD_OFF	n/a	n/a	DESK	6	19	[0, 0, 0]	n/a	FR1	0	R1298E
2440.897	1.628	2442419	WORD	n/a	n/a	MOLE	7	19	[0, 0, 0]	n/a	FR1	0	R1298E
2442.525	1.101	2444047	WORD_OFF	n/a	n/a	MOLE	7	19	[0, 0, 0]	n/a	FR1	0	R1298E
2443.626	1.633	2445148	WORD	n/a	n/a	WOLF	8	19	[0, 0, 0]	n/a	FR1	0	R1298E
2445.259	1.112	2446781	WORD_OFF	n/a	n/a	WOLF	8	19	[0, 0, 0]	n/a	FR1	0	R1298E
2446.371	1.606	2447893	WORD	n/a	n/a	POND	9	19	[0, 0, 0]	n/a	FR1	0	R1298E
2447.977	0.999	2449499	WORD_OFF	n/a	n/a	POND	9	19	[0, 0, 0]	n/a	FR1	0	R1298E
2448.976	1.634	2450498	WORD	n/a	n/a	LOCK	10	19	[0, 0, 0]	n/a	FR1	0	R1298E
2450.61	0.993	2452132	WORD_OFF	n/a	n/a	LOCK	10	19	[0, 0, 0]	n/a	FR1	0	R1298E
2451.603	1.624	2453124	WORD	n/a	n/a	TRAY	11	19	[0, 0, 0]	n/a	FR1	0	R1298E
2453.227	1.102	2454748	WORD_OFF	n/a	n/a	TRAY	11	19	[0, 0, 0]	n/a	FR1	0	R1298E
2454.329	1.616	2455850	WORD	n/a	n/a	BRIDGE	12	19	[0, 0, 0]	n/a	FR1	0	R1298E
2455.945	0.0	2457466	DISTRACT_START	n/a	n/a	n/a	-999	19	[0, 0, 0]	n/a	FR1	0	R1298E
2455.945	0.0	2457466	WORD_OFF	n/a	n/a	BRIDGE	12	19	[0, 0, 0]	n/a	FR1	0	R1298E
2455.945	0.0	2457466	ENCODING_END	n/a	n/a	n/a	-999	19	[0, 0, 0]	n/a	FR1	0	R1298E
2455.945	0.016	2457466	START	n/a	n/a	n/a	-999	19	[-999, -999, -999]	n/a	FR1	0	R1298E
2455.961	6.935	2457482	PROB	6.935	n/a	n/a	-999	19	[3, 9, 2]	14	FR1	0	R1298E
2462.896	9.684	2464417	PROB	9.684	n/a	n/a	-999	19	[7, 5, 9]	21	FR1	0	R1298E
2472.58	6.213	2474101	PROB	6.213	n/a	n/a	-999	19	[2, 8, 9]	19	FR1	0	R1298E
2478.793	0.006	2480314	STOP	n/a	n/a	n/a	-999	19	[-999, -999, -999]	n/a	FR1	0	R1298E
2478.799	0.522	2480320	DISTRACT_END	n/a	n/a	n/a	-999	19	[0, 0, 0]	n/a	FR1	0	R1298E
2479.321	1.562	2480842	RETRIEVAL_ORIENT_START	n/a	n/a	n/a	-999	19	[0, 0, 0]	n/a	FR1	0	R1298E
2480.883	0.0	2482403	RETRIEVAL_ORIENT_END	n/a	n/a	n/a	-999	19	[0, 0, 0]	n/a	FR1	0	R1298E
2480.883	3.354	2482403	REC_START	n/a	n/a	n/a	-999	19	[0, 0, 0]	n/a	FR1	0	R1298E
2484.237	0.853	2485757	REC_WORD_VV	0.853	n/a	<>	-999	19	[0, 0, 0]	n/a	FR1	0	R1298E
2485.09	4.451	2486610	REC_WORD	4.451	n/a	TRAY	11	19	[0, 0, 0]	n/a	FR1	0	R1298E
2489.541	8.667	2491061	REC_WORD	8.667	n/a	CAR	5	19	[0, 0, 0]	n/a	FR1	0	R1298E
2498.208	12.684	2499728	REC_WORD	12.684	n/a	SUIT	-999	19	[0, 0, 0]	n/a	FR1	0	R1298E
2510.892	0.0	2512411	REC_END	n/a	n/a	n/a	-999	19	[0, 0, 0]	n/a	FR1	0	R1298E
2510.892	0.017	2512411	TRIAL_END	n/a	n/a	n/a	-999	19	[0, 0, 0]	n/a	FR1	0	R1298E
2510.909	0.001	2512428	TRIAL_START	n/a	n/a	n/a	-999	20	[0, 0, 0]	n/a	FR1	0	R1298E
2510.91	0.0	2512429	TRIAL	n/a	n/a	n/a	-999	20	[0, 0, 0]	n/a	FR1	0	R1298E
2510.91	4.194	2512429	WAITING_START	n/a	n/a	n/a	-999	20	[0, 0, 0]	n/a	FR1	0	R1298E
2515.104	0.001	2516623	WAITING_END	n/a	n/a	n/a	-999	20	[0, 0, 0]	n/a	FR1	0	R1298E
2515.105	10.429	2516624	COUNTDOWN_START	n/a	n/a	n/a	-999	20	[0, 0, 0]	n/a	FR1	0	R1298E
2525.534	0.0	2527053	ORIENT_START	n/a	n/a	n/a	-999	20	[0, 0, 0]	n/a	FR1	0	R1298E
2525.534	1.089	2527053	COUNTDOWN_END	n/a	n/a	n/a	-999	20	[0, 0, 0]	n/a	FR1	0	R1298E
2526.623	0.0	2528142	ORIENT_END	n/a	n/a	n/a	-999	20	[0, 0, 0]	n/a	FR1	0	R1298E
2526.623	0.993	2528142	ENCODING_START	n/a	n/a	n/a	-999	20	[0, 0, 0]	n/a	FR1	0	R1298E
2527.616	1.624	2529135	WORD	n/a	n/a	WHEEL	1	20	[0, 0, 0]	n/a	FR1	0	R1298E
2529.24	0.841	2530759	WORD_OFF	n/a	n/a	WHEEL	1	20	[0, 0, 0]	n/a	FR1	0	R1298E
2530.081	1.626	2531600	WORD	n/a	n/a	BEAK	2	20	[0, 0, 0]	n/a	FR1	0	R1298E
2531.707	1.054	2533226	WORD_OFF	n/a	n/a	BEAK	2	20	[0, 0, 0]	n/a	FR1	0	R1298E
2532.761	1.63	2534280	WORD	n/a	n/a	NAIL	3	20	[0, 0, 0]	n/a	FR1	0	R1298E
2534.391	0.821	2535910	WORD_OFF	n/a	n/a	NAIL	3	20	[0, 0, 0]	n/a	FR1	0	R1298E
2535.212	1.614	2536731	WORD	n/a	n/a	POLE	4	20	[0, 0, 0]	n/a	FR1	0	R1298E
2536.826	1.04	2538345	WORD_OFF	n/a	n/a	POLE	4	20	[0, 0, 0]	n/a	FR1	0	R1298E
2537.866	1.626	2539385	WORD	n/a	n/a	MAZE	5	20	[0, 0, 0]	n/a	FR1	0	R1298E
2539.492	0.896	2541010	WORD_OFF	n/a	n/a	MAZE	5	20	[0, 0, 0]	n/a	FR1	0	R1298E
2540.388	1.622	2541906	WORD	n/a	n/a	THUMB	6	20	[0, 0, 0]	n/a	FR1	0	R1298E
2542.01	0.869	2543528	WORD_OFF	n/a	n/a	THUMB	6	20	[0, 0, 0]	n/a	FR1	0	R1298E
2542.879	1.63	2544397	WORD	n/a	n/a	STOVE	7	20	[0, 0, 0]	n/a	FR1	0	R1298E
2544.509	0.985	2546027	WORD_OFF	n/a	n/a	STOVE	7	20	[0, 0, 0]	n/a	FR1	0	R1298E
2545.494	1.633	2547012	WORD	n/a	n/a	ELF	8	20	[0, 0, 0]	n/a	FR1	0	R1298E
2547.127	1.125	2548645	WORD_OFF	n/a	n/a	ELF	8	20	[0, 0, 0]	n/a	FR1	0	R1298E
2548.252	1.626	2549770	WORD	n/a	n/a	FARM	9	20	[0, 0, 0]	n/a	FR1	0	R1298E
2549.878	0.875	2551396	WORD_OFF	n/a	n/a	FARM	9	20	[0, 0, 0]	n/a	FR1	0	R1298E
2550.753	1.625	2552271	WORD	n/a	n/a	GOAT	10	20	[0, 0, 0]	n/a	FR1	0	R1298E
2552.378	0.794	2553896	WORD_OFF	n/a	n/a	GOAT	10	20	[0, 0, 0]	n/a	FR1	0	R1298E
2553.172	1.607	2554690	WORD	n/a	n/a	SHIP	11	20	[0, 0, 0]	n/a	FR1	0	R1298E
2554.779	0.866	2556297	WORD_OFF	n/a	n/a	SHIP	11	20	[0, 0, 0]	n/a	FR1	0	R1298E
2555.645	1.633	2557163	WORD	n/a	n/a	TOOTH	12	20	[0, 0, 0]	n/a	FR1	0	R1298E
2557.278	0.001	2558796	WORD_OFF	n/a	n/a	TOOTH	12	20	[0, 0, 0]	n/a	FR1	0	R1298E
2557.279	0.0	2558797	DISTRACT_START	n/a	n/a	n/a	-999	20	[0, 0, 0]	n/a	FR1	0	R1298E
2557.279	0.0	2558797	ENCODING_END	n/a	n/a	n/a	-999	20	[0, 0, 0]	n/a	FR1	0	R1298E
2557.279	0.016	2558797	START	n/a	n/a	n/a	-999	20	[-999, -999, -999]	n/a	FR1	0	R1298E
2557.295	7.234	2558813	PROB	7.234	n/a	n/a	-999	20	[6, 8, 7]	21	FR1	0	R1298E
2564.529	4.768	2566047	PROB	4.768	n/a	n/a	-999	20	[2, 4, 6]	12	FR1	0	R1298E
2569.297	4.234	2570814	PROB	4.234	n/a	n/a	-999	20	[1, 6, 1]	8	FR1	0	R1298E
2573.531	5.92	2575048	PROB	5.92	n/a	n/a	-999	20	[2, 5, 9]	16	FR1	0	R1298E
2579.451	0.015	2580968	STOP	n/a	n/a	n/a	-999	20	[-999, -999, -999]	n/a	FR1	0	R1298E
2579.466	0.552	2580983	DISTRACT_END	n/a	n/a	n/a	-999	20	[0, 0, 0]	n/a	FR1	0	R1298E
2580.018	1.698	2581535	RETRIEVAL_ORIENT_START	n/a	n/a	n/a	-999	20	[0, 0, 0]	n/a	FR1	0	R1298E
2581.716	0.0	2583233	RETRIEVAL_ORIENT_END	n/a	n/a	n/a	-999	20	[0, 0, 0]	n/a	FR1	0	R1298E
2581.716	3.07	2583233	REC_START	n/a	n/a	n/a	-999	20	[0, 0, 0]	n/a	FR1	0	R1298E
2584.786	4.596	2586303	REC_WORD	4.596	n/a	GOAT	10	20	[0, 0, 0]	n/a	FR1	0	R1298E
2589.382	5.461	2590899	REC_WORD	5.461	n/a	HOUSE	-999	20	[0, 0, 0]	n/a	FR1	0	R1298E
2594.843	16.883	2596360	REC_WORD	16.883	n/a	POLE	4	20	[0, 0, 0]	n/a	FR1	0	R1298E
2611.726	0.0	2613242	TRIAL_END	n/a	n/a	n/a	-999	20	[0, 0, 0]	n/a	FR1	0	R1298E
2611.726	0.017	2613242	REC_END	n/a	n/a	n/a	-999	20	[0, 0, 0]	n/a	FR1	0	R1298E
2611.743	0.0	2613259	TRIAL_START	n/a	n/a	n/a	-999	21	[0, 0, 0]	n/a	FR1	0	R1298E
2611.743	0.0	2613259	TRIAL	n/a	n/a	n/a	-999	21	[0, 0, 0]	n/a	FR1	0	R1298E
2611.743	6.596	2613259	WAITING_START	n/a	n/a	n/a	-999	21	[0, 0, 0]	n/a	FR1	0	R1298E
2618.339	0.001	2619855	WAITING_END	n/a	n/a	n/a	-999	21	[0, 0, 0]	n/a	FR1	0	R1298E
2618.34	10.429	2619856	COUNTDOWN_START	n/a	n/a	n/a	-999	21	[0, 0, 0]	n/a	FR1	0	R1298E
2628.769	0.001	2630284	COUNTDOWN_END	n/a	n/a	n/a	-999	21	[0, 0, 0]	n/a	FR1	0	R1298E
2628.77	1.189	2630285	ORIENT_START	n/a	n/a	n/a	-999	21	[0, 0, 0]	n/a	FR1	0	R1298E
2629.959	0.0	2631474	ENCODING_START	n/a	n/a	n/a	-999	21	[0, 0, 0]	n/a	FR1	0	R1298E
2629.959	1.022	2631474	ORIENT_END	n/a	n/a	n/a	-999	21	[0, 0, 0]	n/a	FR1	0	R1298E
2630.981	1.627	2632496	WORD	n/a	n/a	TRAIN	1	21	[0, 0, 0]	n/a	FR1	0	R1298E
2632.608	0.973	2634123	WORD_OFF	n/a	n/a	TRAIN	1	21	[0, 0, 0]	n/a	FR1	0	R1298E
2633.581	1.628	2635096	WORD	n/a	n/a	SPRING	2	21	[0, 0, 0]	n/a	FR1	0	R1298E
2635.209	0.819	2636724	WORD_OFF	n/a	n/a	SPRING	2	21	[0, 0, 0]	n/a	FR1	0	R1298E
2636.028	1.631	2637543	WORD	n/a	n/a	STICK	3	21	[0, 0, 0]	n/a	FR1	0	R1298E
2637.659	1.128	2639174	WORD_OFF	n/a	n/a	STICK	3	21	[0, 0, 0]	n/a	FR1	0	R1298E
2638.787	1.623	2640302	WORD	n/a	n/a	HEN	4	21	[0, 0, 0]	n/a	FR1	0	R1298E
2640.41	0.833	2641925	WORD_OFF	n/a	n/a	HEN	4	21	[0, 0, 0]	n/a	FR1	0	R1298E
2641.243	1.635	2642758	WORD	n/a	n/a	STAR	5	21	[0, 0, 0]	n/a	FR1	0	R1298E
2642.878	1.068	2644393	WORD_OFF	n/a	n/a	STAR	5	21	[0, 0, 0]	n/a	FR1	0	R1298E
2643.946	1.631	2645461	WORD	n/a	n/a	PIG	6	21	[0, 0, 0]	n/a	FR1	0	R1298E
2645.577	1.122	2647092	WORD_OFF	n/a	n/a	PIG	6	21	[0, 0, 0]	n/a	FR1	0	R1298E
2646.699	1.629	2648214	WORD	n/a	n/a	PEARL	7	21	[0, 0, 0]	n/a	FR1	0	R1298E
2648.328	0.849	2649843	WORD_OFF	n/a	n/a	PEARL	7	21	[0, 0, 0]	n/a	FR1	0	R1298E
2649.177	1.619	2650692	WORD	n/a	n/a	SLEEVE	8	21	[0, 0, 0]	n/a	FR1	0	R1298E
2650.796	0.911	2652311	WORD_OFF	n/a	n/a	SLEEVE	8	21	[0, 0, 0]	n/a	FR1	0	R1298E
2651.707	1.622	2653222	WORD	n/a	n/a	PEN	9	21	[0, 0, 0]	n/a	FR1	0	R1298E
2653.329	0.968	2654844	WORD_OFF	n/a	n/a	PEN	9	21	[0, 0, 0]	n/a	FR1	0	R1298E
2654.297	1.633	2655812	WORD	n/a	n/a	PASTE	10	21	[0, 0, 0]	n/a	FR1	0	R1298E
2655.93	0.943	2657444	WORD_OFF	n/a	n/a	PASTE	10	21	[0, 0, 0]	n/a	FR1	0	R1298E
2656.873	1.623	2658387	WORD	n/a	n/a	CANE	11	21	[0, 0, 0]	n/a	FR1	0	R1298E
2658.496	1.007	2660010	WORD_OFF	n/a	n/a	CANE	11	21	[0, 0, 0]	n/a	FR1	0	R1298E
2659.503	1.627	2661017	WORD	n/a	n/a	DOCK	12	21	[0, 0, 0]	n/a	FR1	0	R1298E
2661.13	0.0	2662644	WORD_OFF	n/a	n/a	DOCK	12	21	[0, 0, 0]	n/a	FR1	0	R1298E
2661.13	0.001	2662644	ENCODING_END	n/a	n/a	n/a	-999	21	[0, 0, 0]	n/a	FR1	0	R1298E
2661.131	0.0	2662645	DISTRACT_START	n/a	n/a	n/a	-999	21	[0, 0, 0]	n/a	FR1	0	R1298E
2661.131	0.015	2662645	START	n/a	n/a	n/a	-999	21	[-999, -999, -999]	n/a	FR1	0	R1298E
2661.146	6.468	2662660	PROB	6.468	n/a	n/a	-999	21	[6, 7, 4]	17	FR1	0	R1298E
2667.614	6.751	2669128	PROB	6.751	n/a	n/a	-999	21	[7, 5, 9]	21	FR1	0	R1298E
2674.365	4.536	2675879	PROB	4.536	n/a	n/a	-999	21	[3, 4, 1]	8	FR1	0	R1298E
2678.901	8.818	2680415	PROB	8.818	n/a	n/a	-999	21	[8, 9, 9]	26	FR1	0	R1298E
2687.719	0.016	2689232	STOP	n/a	n/a	n/a	-999	21	[-999, -999, -999]	n/a	FR1	0	R1298E
2687.735	0.648	2689248	DISTRACT_END	n/a	n/a	n/a	-999	21	[0, 0, 0]	n/a	FR1	0	R1298E
2688.383	1.57	2689896	RETRIEVAL_ORIENT_START	n/a	n/a	n/a	-999	21	[0, 0, 0]	n/a	FR1	0	R1298E
2689.953	0.0	2691466	RETRIEVAL_ORIENT_END	n/a	n/a	n/a	-999	21	[0, 0, 0]	n/a	FR1	0	R1298E
2689.953	5.219	2691466	REC_START	n/a	n/a	n/a	-999	21	[0, 0, 0]	n/a	FR1	0	R1298E
2695.172	5.952	2696685	REC_WORD	5.952	n/a	PIG	6	21	[0, 0, 0]	n/a	FR1	0	R1298E
2701.124	4.859	2702637	REC_WORD	4.859	n/a	HOUSE	-999	21	[0, 0, 0]	n/a	FR1	0	R1298E
2705.983	13.98	2707496	REC_WORD	13.98	n/a	SLEEVE	8	21	[0, 0, 0]	n/a	FR1	0	R1298E
2719.963	0.0	2721475	REC_END	n/a	n/a	n/a	-999	21	[0, 0, 0]	n/a	FR1	0	R1298E
2719.963	0.017	2721475	TRIAL_END	n/a	n/a	n/a	-999	21	[0, 0, 0]	n/a	FR1	0	R1298E
2719.98	0.0	2721492	WAITING_START	n/a	n/a	n/a	-999	22	[0, 0, 0]	n/a	FR1	0	R1298E
2719.98	0.0	2721492	TRIAL	n/a	n/a	n/a	-999	22	[0, 0, 0]	n/a	FR1	0	R1298E
2719.98	6.562	2721492	TRIAL_START	n/a	n/a	n/a	-999	22	[0, 0, 0]	n/a	FR1	0	R1298E
2726.542	0.0	2728054	WAITING_END	n/a	n/a	n/a	-999	22	[0, 0, 0]	n/a	FR1	0	R1298E
2726.542	10.428	2728054	COUNTDOWN_START	n/a	n/a	n/a	-999	22	[0, 0, 0]	n/a	FR1	0	R1298E
2736.97	0.001	2738482	COUNTDOWN_END	n/a	n/a	n/a	-999	22	[0, 0, 0]	n/a	FR1	0	R1298E
2736.971	1.222	2738483	ORIENT_START	n/a	n/a	n/a	-999	22	[0, 0, 0]	n/a	FR1	0	R1298E
2738.193	0.001	2739705	ORIENT_END	n/a	n/a	n/a	-999	22	[0, 0, 0]	n/a	FR1	0	R1298E
2738.194	1.006	2739706	ENCODING_START	n/a	n/a	n/a	-999	22	[0, 0, 0]	n/a	FR1	0	R1298E
2739.2	1.611	2740712	WORD	n/a	n/a	BEE	1	22	[0, 0, 0]	n/a	FR1	0	R1298E
2740.811	1.057	2742323	WORD_OFF	n/a	n/a	BEE	1	22	[0, 0, 0]	n/a	FR1	0	R1298E
2741.868	1.626	2743380	WORD	n/a	n/a	SOCK	2	22	[0, 0, 0]	n/a	FR1	0	R1298E
2743.494	1.127	2745005	WORD_OFF	n/a	n/a	SOCK	2	22	[0, 0, 0]	n/a	FR1	0	R1298E
2744.621	1.624	2746132	WORD	n/a	n/a	SPARK	3	22	[0, 0, 0]	n/a	FR1	0	R1298E
2746.245	0.784	2747756	WORD_OFF	n/a	n/a	SPARK	3	22	[0, 0, 0]	n/a	FR1	0	R1298E
2747.029	1.633	2748540	WORD	n/a	n/a	CHIN	4	22	[0, 0, 0]	n/a	FR1	0	R1298E
2748.662	1.146	2750173	WORD_OFF	n/a	n/a	CHIN	4	22	[0, 0, 0]	n/a	FR1	0	R1298E
2749.808	1.621	2751319	WORD	n/a	n/a	RAT	5	22	[0, 0, 0]	n/a	FR1	0	R1298E
2751.429	0.926	2752940	WORD_OFF	n/a	n/a	RAT	5	22	[0, 0, 0]	n/a	FR1	0	R1298E
2752.355	1.626	2753866	WORD	n/a	n/a	ARK	6	22	[0, 0, 0]	n/a	FR1	0	R1298E
2753.981	0.751	2755492	WORD_OFF	n/a	n/a	ARK	6	22	[0, 0, 0]	n/a	FR1	0	R1298E
2754.732	1.631	2756243	WORD	n/a	n/a	TOY	7	22	[0, 0, 0]	n/a	FR1	0	R1298E
2756.363	1.053	2757874	WORD_OFF	n/a	n/a	TOY	7	22	[0, 0, 0]	n/a	FR1	0	R1298E
2757.416	1.632	2758927	WORD	n/a	n/a	BEAR	8	22	[0, 0, 0]	n/a	FR1	0	R1298E
2759.048	0.888	2760559	WORD_OFF	n/a	n/a	BEAR	8	22	[0, 0, 0]	n/a	FR1	0	R1298E
2759.936	1.628	2761447	WORD	n/a	n/a	OAR	9	22	[0, 0, 0]	n/a	FR1	0	R1298E
2761.564	0.959	2763075	WORD_OFF	n/a	n/a	OAR	9	22	[0, 0, 0]	n/a	FR1	0	R1298E
2762.523	1.625	2764034	WORD	n/a	n/a	GATE	10	22	[0, 0, 0]	n/a	FR1	0	R1298E
2764.148	0.905	2765659	WORD_OFF	n/a	n/a	GATE	10	22	[0, 0, 0]	n/a	FR1	0	R1298E
2765.053	1.629	2766564	WORD	n/a	n/a	SIGN	11	22	[0, 0, 0]	n/a	FR1	0	R1298E
2766.682	0.768	2768193	WORD_OFF	n/a	n/a	SIGN	11	22	[0, 0, 0]	n/a	FR1	0	R1298E
2767.45	1.632	2768961	WORD	n/a	n/a	LEG	12	22	[0, 0, 0]	n/a	FR1	0	R1298E
2769.082	0.001	2770593	WORD_OFF	n/a	n/a	LEG	12	22	[0, 0, 0]	n/a	FR1	0	R1298E
2769.083	0.0	2770594	ENCODING_END	n/a	n/a	n/a	-999	22	[0, 0, 0]	n/a	FR1	0	R1298E
2769.083	0.0	2770594	DISTRACT_START	n/a	n/a	n/a	-999	22	[0, 0, 0]	n/a	FR1	0	R1298E
2769.083	0.016	2770594	START	n/a	n/a	n/a	-999	22	[-999, -999, -999]	n/a	FR1	0	R1298E
2769.099	6.935	2770610	PROB	6.935	n/a	n/a	-999	22	[5, 7, 1]	13	FR1	0	R1298E
2776.034	7.251	2777544	PROB	7.251	n/a	n/a	-999	22	[3, 4, 8]	15	FR1	0	R1298E
2783.285	4.618	2784795	PROB	4.618	n/a	n/a	-999	22	[8, 1, 5]	14	FR1	0	R1298E
2787.903	5.936	2789413	PROB	5.936	n/a	n/a	-999	22	[2, 6, 5]	13	FR1	0	R1298E
2793.839	0.015	2795349	STOP	n/a	n/a	n/a	-999	22	[-999, -999, -999]	n/a	FR1	0	R1298E
2793.854	0.565	2795364	DISTRACT_END	n/a	n/a	n/a	-999	22	[0, 0, 0]	n/a	FR1	0	R1298E
2794.419	1.569	2795929	RETRIEVAL_ORIENT_START	n/a	n/a	n/a	-999	22	[0, 0, 0]	n/a	FR1	0	R1298E
2795.988	0.0	2797498	REC_START	n/a	n/a	n/a	-999	22	[0, 0, 0]	n/a	FR1	0	R1298E
2795.988	2.33	2797498	RETRIEVAL_ORIENT_END	n/a	n/a	n/a	-999	22	[0, 0, 0]	n/a	FR1	0	R1298E
2798.318	3.9	2799828	REC_WORD	3.9	n/a	OAR	9	22	[0, 0, 0]	n/a	FR1	0	R1298E
2802.218	4.662	2803727	REC_WORD	4.662	n/a	LEG	12	22	[0, 0, 0]	n/a	FR1	0	R1298E
2806.88	19.118	2808389	REC_WORD	19.118	n/a	CANE	-999	22	[0, 0, 0]	n/a	FR1	0	R1298E
2825.998	0.0	2827507	REC_END	n/a	n/a	n/a	-999	22	[0, 0, 0]	n/a	FR1	0	R1298E
2825.998	0.017	2827507	TRIAL_END	n/a	n/a	n/a	-999	22	[0, 0, 0]	n/a	FR1	0	R1298E
2826.015	0.0	2827524	TRIAL	n/a	n/a	n/a	-999	23	[0, 0, 0]	n/a	FR1	0	R1298E
2826.015	0.001	2827524	TRIAL_START	n/a	n/a	n/a	-999	23	[0, 0, 0]	n/a	FR1	0	R1298E
2826.016	5.077	2827525	WAITING_START	n/a	n/a	n/a	-999	23	[0, 0, 0]	n/a	FR1	0	R1298E
2831.093	0.001	2832601	WAITING_END	n/a	n/a	n/a	-999	23	[0, 0, 0]	n/a	FR1	0	R1298E
2831.094	10.429	2832602	COUNTDOWN_START	n/a	n/a	n/a	-999	23	[0, 0, 0]	n/a	FR1	0	R1298E
2841.523	0.001	2843031	COUNTDOWN_END	n/a	n/a	n/a	-999	23	[0, 0, 0]	n/a	FR1	0	R1298E
2841.524	1.205	2843032	ORIENT_START	n/a	n/a	n/a	-999	23	[0, 0, 0]	n/a	FR1	0	R1298E
2842.729	0.0	2844237	ORIENT_END	n/a	n/a	n/a	-999	23	[0, 0, 0]	n/a	FR1	0	R1298E
2842.729	0.924	2844237	ENCODING_START	n/a	n/a	n/a	-999	23	[0, 0, 0]	n/a	FR1	0	R1298E
2843.653	1.626	2845161	WORD	n/a	n/a	TREE	1	23	[0, 0, 0]	n/a	FR1	0	R1298E
2845.279	0.847	2846787	WORD_OFF	n/a	n/a	TREE	1	23	[0, 0, 0]	n/a	FR1	0	R1298E
2846.126	1.637	2847634	WORD	n/a	n/a	VINE	2	23	[0, 0, 0]	n/a	FR1	0	R1298E
2847.763	0.994	2849271	WORD_OFF	n/a	n/a	VINE	2	23	[0, 0, 0]	n/a	FR1	0	R1298E
2848.757	1.623	2850265	WORD	n/a	n/a	FOG	3	23	[0, 0, 0]	n/a	FR1	0	R1298E
2850.38	0.869	2851888	WORD_OFF	n/a	n/a	FOG	3	23	[0, 0, 0]	n/a	FR1	0	R1298E
2851.249	1.616	2852757	WORD	n/a	n/a	SNAIL	4	23	[0, 0, 0]	n/a	FR1	0	R1298E
2852.865	1.0	2854373	WORD_OFF	n/a	n/a	SNAIL	4	23	[0, 0, 0]	n/a	FR1	0	R1298E
2853.865	1.632	2855373	WORD	n/a	n/a	PIT	5	23	[0, 0, 0]	n/a	FR1	0	R1298E
2855.497	0.779	2857005	WORD_OFF	n/a	n/a	PIT	5	23	[0, 0, 0]	n/a	FR1	0	R1298E
2856.276	1.623	2857784	WORD	n/a	n/a	EAR	6	23	[0, 0, 0]	n/a	FR1	0	R1298E
2857.899	0.764	2859407	WORD_OFF	n/a	n/a	EAR	6	23	[0, 0, 0]	n/a	FR1	0	R1298E
2858.663	1.635	2860171	WORD	n/a	n/a	SHARK	7	23	[0, 0, 0]	n/a	FR1	0	R1298E
2860.298	0.892	2861805	WORD_OFF	n/a	n/a	SHARK	7	23	[0, 0, 0]	n/a	FR1	0	R1298E
2861.19	1.61	2862697	WORD	n/a	n/a	SHRIMP	8	23	[0, 0, 0]	n/a	FR1	0	R1298E
2862.8	1.082	2864307	WORD_OFF	n/a	n/a	SHRIMP	8	23	[0, 0, 0]	n/a	FR1	0	R1298E
2863.882	1.634	2865389	WORD	n/a	n/a	WEB	9	23	[0, 0, 0]	n/a	FR1	0	R1298E
2865.516	0.891	2867023	WORD_OFF	n/a	n/a	WEB	9	23	[0, 0, 0]	n/a	FR1	0	R1298E
2866.407	1.627	2867914	WORD	n/a	n/a	CROWN	10	23	[0, 0, 0]	n/a	FR1	0	R1298E
2868.034	0.934	2869541	WORD_OFF	n/a	n/a	CROWN	10	23	[0, 0, 0]	n/a	FR1	0	R1298E
2868.968	1.632	2870475	WORD	n/a	n/a	CAVE	11	23	[0, 0, 0]	n/a	FR1	0	R1298E
2870.6	0.851	2872107	WORD_OFF	n/a	n/a	CAVE	11	23	[0, 0, 0]	n/a	FR1	0	R1298E
2871.451	1.633	2872958	WORD	n/a	n/a	HAND	12	23	[0, 0, 0]	n/a	FR1	0	R1298E
2873.084	0.0	2874591	WORD_OFF	n/a	n/a	HAND	12	23	[0, 0, 0]	n/a	FR1	0	R1298E
2873.084	0.0	2874591	ENCODING_END	n/a	n/a	n/a	-999	23	[0, 0, 0]	n/a	FR1	0	R1298E
2873.084	0.001	2874591	DISTRACT_START	n/a	n/a	n/a	-999	23	[0, 0, 0]	n/a	FR1	0	R1298E
2873.085	0.015	2874592	START	n/a	n/a	n/a	-999	23	[-999, -999, -999]	n/a	FR1	0	R1298E
2873.1	3.935	2874607	PROB	3.935	n/a	n/a	-999	23	[5, 9, 1]	15	FR1	0	R1298E
2877.035	3.383	2878542	PROB	3.383	n/a	n/a	-999	23	[3, 2, 1]	4	FR1	0	R1298E
2880.418	5.051	2881925	PROB	5.051	n/a	n/a	-999	23	[1, 8, 2]	11	FR1	0	R1298E
2885.469	5.868	2886976	PROB	5.868	n/a	n/a	-999	23	[1, 5, 3]	9	FR1	0	R1298E
2891.337	6.133	2892843	PROB	6.133	n/a	n/a	-999	23	[4, 5, 6]	15	FR1	0	R1298E
2897.47	0.018	2898976	STOP	n/a	n/a	n/a	-999	23	[-999, -999, -999]	n/a	FR1	0	R1298E
2897.488	0.586	2898994	DISTRACT_END	n/a	n/a	n/a	-999	23	[0, 0, 0]	n/a	FR1	0	R1298E
2898.074	1.615	2899580	RETRIEVAL_ORIENT_START	n/a	n/a	n/a	-999	23	[0, 0, 0]	n/a	FR1	0	R1298E
2899.689	0.0	2901195	RETRIEVAL_ORIENT_END	n/a	n/a	n/a	-999	23	[0, 0, 0]	n/a	FR1	0	R1298E
2899.689	6.694	2901195	REC_START	n/a	n/a	n/a	-999	23	[0, 0, 0]	n/a	FR1	0	R1298E
2906.383	9.917	2907889	REC_WORD	9.917	n/a	SAIL	-999	23	[0, 0, 0]	n/a	FR1	0	R1298E
2916.3	13.399	2917806	REC_WORD	13.399	n/a	HAND	12	23	[0, 0, 0]	n/a	FR1	0	R1298E
2929.699	0.0	2931204	REC_END	n/a	n/a	n/a	-999	23	[0, 0, 0]	n/a	FR1	0	R1298E
2929.699	0.017	2931204	TRIAL_END	n/a	n/a	n/a	-999	23	[0, 0, 0]	n/a	FR1	0	R1298E
2929.716	0.0	2931221	TRIAL_START	n/a	n/a	n/a	-999	24	[0, 0, 0]	n/a	FR1	0	R1298E
2929.716	0.001	2931221	TRIAL	n/a	n/a	n/a	-999	24	[0, 0, 0]	n/a	FR1	0	R1298E
2929.717	9.23	2931222	WAITING_START	n/a	n/a	n/a	-999	24	[0, 0, 0]	n/a	FR1	0	R1298E
2938.947	0.0	2940452	WAITING_END	n/a	n/a	n/a	-999	24	[0, 0, 0]	n/a	FR1	0	R1298E
2938.947	10.429	2940452	COUNTDOWN_START	n/a	n/a	n/a	-999	24	[0, 0, 0]	n/a	FR1	0	R1298E
2949.376	0.0	2950880	ORIENT_START	n/a	n/a	n/a	-999	24	[0, 0, 0]	n/a	FR1	0	R1298E
2949.376	1.105	2950880	COUNTDOWN_END	n/a	n/a	n/a	-999	24	[0, 0, 0]	n/a	FR1	0	R1298E
2950.481	0.0	2951985	ORIENT_END	n/a	n/a	n/a	-999	24	[0, 0, 0]	n/a	FR1	0	R1298E
2950.481	0.768	2951985	ENCODING_START	n/a	n/a	n/a	-999	24	[0, 0, 0]	n/a	FR1	0	R1298E
2951.249	1.616	2952753	WORD	n/a	n/a	COIN	1	24	[0, 0, 0]	n/a	FR1	0	R1298E
2952.865	0.862	2954369	WORD_OFF	n/a	n/a	COIN	1	24	[0, 0, 0]	n/a	FR1	0	R1298E
2953.727	1.621	2955231	WORD	n/a	n/a	BLOOM	2	24	[0, 0, 0]	n/a	FR1	0	R1298E
2955.348	1.142	2956852	WORD_OFF	n/a	n/a	BLOOM	2	24	[0, 0, 0]	n/a	FR1	0	R1298E
2956.49	1.626	2957994	WORD	n/a	n/a	BOY	3	24	[0, 0, 0]	n/a	FR1	0	R1298E
2958.116	0.984	2959620	WORD_OFF	n/a	n/a	BOY	3	24	[0, 0, 0]	n/a	FR1	0	R1298E
2959.1	1.633	2960604	WORD	n/a	n/a	SINK	4	24	[0, 0, 0]	n/a	FR1	0	R1298E
2960.733	0.838	2962237	WORD_OFF	n/a	n/a	SINK	4	24	[0, 0, 0]	n/a	FR1	0	R1298E
2961.571	1.629	2963075	WORD	n/a	n/a	TAIL	5	24	[0, 0, 0]	n/a	FR1	0	R1298E
2963.2	1.141	2964704	WORD_OFF	n/a	n/a	TAIL	5	24	[0, 0, 0]	n/a	FR1	0	R1298E
2964.341	1.61	2965845	WORD	n/a	n/a	FILM	6	24	[0, 0, 0]	n/a	FR1	0	R1298E
2965.951	1.021	2967455	WORD_OFF	n/a	n/a	FILM	6	24	[0, 0, 0]	n/a	FR1	0	R1298E
2966.972	1.629	2968476	WORD	n/a	n/a	SEED	7	24	[0, 0, 0]	n/a	FR1	0	R1298E
2968.601	1.0	2970105	WORD_OFF	n/a	n/a	SEED	7	24	[0, 0, 0]	n/a	FR1	0	R1298E
2969.601	1.634	2971105	WORD	n/a	n/a	LIP	8	24	[0, 0, 0]	n/a	FR1	0	R1298E
2971.235	1.098	2972739	WORD_OFF	n/a	n/a	LIP	8	24	[0, 0, 0]	n/a	FR1	0	R1298E
2972.333	1.636	2973837	WORD	n/a	n/a	LAKE	9	24	[0, 0, 0]	n/a	FR1	0	R1298E
2973.969	1.088	2975473	WORD_OFF	n/a	n/a	LAKE	9	24	[0, 0, 0]	n/a	FR1	0	R1298E
2975.057	1.628	2976561	WORD	n/a	n/a	JAR	10	24	[0, 0, 0]	n/a	FR1	0	R1298E
2976.685	0.873	2978188	WORD_OFF	n/a	n/a	JAR	10	24	[0, 0, 0]	n/a	FR1	0	R1298E
2977.558	1.628	2979061	WORD	n/a	n/a	NET	11	24	[0, 0, 0]	n/a	FR1	0	R1298E
2979.186	1.115	2980689	WORD_OFF	n/a	n/a	NET	11	24	[0, 0, 0]	n/a	FR1	0	R1298E
2980.301	1.636	2981804	WORD	n/a	n/a	BENCH	12	24	[0, 0, 0]	n/a	FR1	0	R1298E
2981.937	0.001	2983440	WORD_OFF	n/a	n/a	BENCH	12	24	[0, 0, 0]	n/a	FR1	0	R1298E
2981.938	0.0	2983441	DISTRACT_START	n/a	n/a	n/a	-999	24	[0, 0, 0]	n/a	FR1	0	R1298E
2981.938	0.0	2983441	ENCODING_END	n/a	n/a	n/a	-999	24	[0, 0, 0]	n/a	FR1	0	R1298E
2981.938	0.016	2983441	START	n/a	n/a	n/a	-999	24	[-999, -999, -999]	n/a	FR1	0	R1298E
2981.954	13.351	2983457	PROB	13.351	n/a	n/a	-999	24	[6, 3, 9]	18	FR1	0	R1298E
2995.305	3.067	2996808	PROB	3.067	n/a	n/a	-999	24	[7, 1, 1]	9	FR1	0	R1298E
2998.372	3.401	2999875	PROB	3.401	n/a	n/a	-999	24	[1, 4, 2]	7	FR1	0	R1298E
3001.773	7.046	3003276	PROB	7.046	n/a	n/a	-999	24	[6, 5, 8]	19	FR1	0	R1298E
