onset	duration	sample	trial_type	response_time	stim_file	item_name	serialpos	list	test	answer	experiment	session	subject
0.0	237.862	1057	INSTRUCT_START	n/a	n/a	n/a	-999	-999	[0, 0, 0]	n/a	FR1	0	R1331T
237.862	3.9	238909	INSTRUCT_END	n/a	n/a	n/a	-999	-999	[0, 0, 0]	n/a	FR1	0	R1331T
241.762	10.636	242809	MIC TEST_START	n/a	n/a	n/a	-999	-999	[0, 0, 0]	n/a	FR1	0	R1331T
252.398	0.009	253444	MIC TEST_END	n/a	n/a	n/a	-999	-999	[0, 0, 0]	n/a	FR1	0	R1331T
252.407	0.0	253453	TRIAL_START	n/a	n/a	n/a	-999	-1	[0, 0, 0]	n/a	FR1	0	R1331T
252.407	0.0	253453	TRIAL	n/a	n/a	n/a	-999	-1	[0, 0, 0]	n/a	FR1	0	R1331T
252.407	14.226	253453	WAITING_START	n/a	n/a	n/a	-999	-1	[0, 0, 0]	n/a	FR1	0	R1331T
266.633	0.0	267679	COUNTDOWN_START	n/a	n/a	n/a	-999	-1	[0, 0, 0]	n/a	FR1	0	R1331T
266.633	10.429	267679	WAITING_END	n/a	n/a	n/a	-999	-1	[0, 0, 0]	n/a	FR1	0	R1331T
277.062	0.0	278107	COUNTDOWN_END	n/a	n/a	n/a	-999	-1	[0, 0, 0]	n/a	FR1	0	R1331T
277.062	1.073	278107	ORIENT_START	n/a	n/a	n/a	-999	-1	[0, 0, 0]	n/a	FR1	0	R1331T
278.135	0.0	279180	ORIENT_END	n/a	n/a	n/a	-999	-1	[0, 0, 0]	n/a	FR1	0	R1331T
278.135	1.105	279180	ENCODING_START	n/a	n/a	n/a	-999	-1	[0, 0, 0]	n/a	FR1	0	R1331T
279.24	1.613	280285	WORD	n/a	n/a	ALGODON	1	-1	[0, 0, 0]	n/a	FR1	0	R1331T
280.853	1.022	281898	WORD_OFF	n/a	n/a	ALGODON	1	-1	[0, 0, 0]	n/a	FR1	0	R1331T
281.875	1.627	282920	WORD	n/a	n/a	CARRETA	2	-1	[0, 0, 0]	n/a	FR1	0	R1331T
283.502	0.955	284547	WORD_OFF	n/a	n/a	CARRETA	2	-1	[0, 0, 0]	n/a	FR1	0	R1331T
284.457	1.629	285502	WORD	n/a	n/a	RINOCERONTE	3	-1	[0, 0, 0]	n/a	FR1	0	R1331T
286.086	0.91	287131	WORD_OFF	n/a	n/a	RINOCERONTE	3	-1	[0, 0, 0]	n/a	FR1	0	R1331T
286.996	1.624	288041	WORD	n/a	n/a	ANILLO	4	-1	[0, 0, 0]	n/a	FR1	0	R1331T
288.62	1.043	289665	WORD_OFF	n/a	n/a	ANILLO	4	-1	[0, 0, 0]	n/a	FR1	0	R1331T
289.663	1.624	290708	WORD	n/a	n/a	RELOJ	5	-1	[0, 0, 0]	n/a	FR1	0	R1331T
291.287	0.953	292332	WORD_OFF	n/a	n/a	RELOJ	5	-1	[0, 0, 0]	n/a	FR1	0	R1331T
292.24	1.632	293285	WORD	n/a	n/a	PECHO	6	-1	[0, 0, 0]	n/a	FR1	0	R1331T
293.872	1.021	294917	WORD_OFF	n/a	n/a	PECHO	6	-1	[0, 0, 0]	n/a	FR1	0	R1331T
294.893	1.628	295938	WORD	n/a	n/a	IMAGEN	7	-1	[0, 0, 0]	n/a	FR1	0	R1331T
296.521	1.11	297566	WORD_OFF	n/a	n/a	IMAGEN	7	-1	[0, 0, 0]	n/a	FR1	0	R1331T
297.631	1.624	298676	WORD	n/a	n/a	INUNDACION	8	-1	[0, 0, 0]	n/a	FR1	0	R1331T
299.255	1.079	300299	WORD_OFF	n/a	n/a	INUNDACION	8	-1	[0, 0, 0]	n/a	FR1	0	R1331T
300.334	1.638	301378	WORD	n/a	n/a	CAMELLO	9	-1	[0, 0, 0]	n/a	FR1	0	R1331T
301.972	0.879	303016	WORD_OFF	n/a	n/a	CAMELLO	9	-1	[0, 0, 0]	n/a	FR1	0	R1331T
302.851	1.622	303895	WORD	n/a	n/a	VIGA	10	-1	[0, 0, 0]	n/a	FR1	0	R1331T
304.473	0.942	305517	WORD_OFF	n/a	n/a	VIGA	10	-1	[0, 0, 0]	n/a	FR1	0	R1331T
305.415	1.625	306459	WORD	n/a	n/a	BEBE	11	-1	[0, 0, 0]	n/a	FR1	0	R1331T
307.04	1.146	308084	WORD_OFF	n/a	n/a	BEBE	11	-1	[0, 0, 0]	n/a	FR1	0	R1331T
308.186	1.638	309230	WORD	n/a	n/a	LENGUA	12	-1	[0, 0, 0]	n/a	FR1	0	R1331T
309.824	0.0	310868	DISTRACT_START	n/a	n/a	n/a	-999	-1	[0, 0, 0]	n/a	FR1	0	R1331T
309.824	0.0	310868	ENCODING_END	n/a	n/a	n/a	-999	-1	[0, 0, 0]	n/a	FR1	0	R1331T
309.824	0.0	310868	WORD_OFF	n/a	n/a	LENGUA	12	-1	[0, 0, 0]	n/a	FR1	0	R1331T
309.824	0.017	310868	START	n/a	n/a	n/a	-999	-1	[-999, -999, -999]	n/a	FR1	0	R1331T
309.841	25.411	310885	PROB	25.411	n/a	n/a	-999	-1	[8, 1, 8]	17	FR1	0	R1331T
335.252	0.01	336295	STOP	n/a	n/a	n/a	-999	-1	[-999, -999, -999]	n/a	FR1	0	R1331T
335.262	0.524	336305	DISTRACT_END	n/a	n/a	n/a	-999	-1	[0, 0, 0]	n/a	FR1	0	R1331T
335.786	1.593	336829	RETRIEVAL_ORIENT_START	n/a	n/a	n/a	-999	-1	[0, 0, 0]	n/a	FR1	0	R1331T
337.379	0.0	338422	RETRIEVAL_ORIENT_END	n/a	n/a	n/a	-999	-1	[0, 0, 0]	n/a	FR1	0	R1331T
337.379	0.0	338422	REC_START	n/a	n/a	n/a	-999	-1	[0, 0, 0]	n/a	FR1	0	R1331T
337.379	1.0	338422	REC_WORD_VV	1.0	n/a	<>	-999	-1	[0, 0, 0]	n/a	FR1	0	R1331T
338.379	1.001	339422	REC_WORD_VV	1.001	n/a	<>	-999	-1	[0, 0, 0]	n/a	FR1	0	R1331T
339.38	1.003	340423	REC_WORD_VV	1.003	n/a	<>	-999	-1	[0, 0, 0]	n/a	FR1	0	R1331T
340.383	0.999	341426	REC_WORD_VV	0.999	n/a	<>	-999	-1	[0, 0, 0]	n/a	FR1	0	R1331T
341.382	0.998	342425	REC_WORD_VV	0.998	n/a	<>	-999	-1	[0, 0, 0]	n/a	FR1	0	R1331T
342.38	1.003	343423	REC_WORD_VV	1.003	n/a	<>	-999	-1	[0, 0, 0]	n/a	FR1	0	R1331T
343.383	1.0	344426	REC_WORD_VV	1.0	n/a	<>	-999	-1	[0, 0, 0]	n/a	FR1	0	R1331T
344.383	1.0	345426	REC_WORD_VV	1.0	n/a	<>	-999	-1	[0, 0, 0]	n/a	FR1	0	R1331T
345.383	0.996	346426	REC_WORD_VV	0.996	n/a	<>	-999	-1	[0, 0, 0]	n/a	FR1	0	R1331T
346.379	1.0	347421	REC_WORD_VV	1.0	n/a	<>	-999	-1	[0, 0, 0]	n/a	FR1	0	R1331T
347.379	1.0	348421	REC_WORD_VV	1.0	n/a	<>	-999	-1	[0, 0, 0]	n/a	FR1	0	R1331T
348.379	1.0	349421	REC_WORD_VV	1.0	n/a	<>	-999	-1	[0, 0, 0]	n/a	FR1	0	R1331T
349.379	1.0	350421	REC_WORD_VV	1.0	n/a	<>	-999	-1	[0, 0, 0]	n/a	FR1	0	R1331T
350.379	1.0	351421	REC_WORD_VV	1.0	n/a	<>	-999	-1	[0, 0, 0]	n/a	FR1	0	R1331T
351.379	1.0	352421	REC_WORD_VV	1.0	n/a	<>	-999	-1	[0, 0, 0]	n/a	FR1	0	R1331T
352.379	1.0	353421	REC_WORD_VV	1.0	n/a	<>	-999	-1	[0, 0, 0]	n/a	FR1	0	R1331T
353.379	1.0	354421	REC_WORD_VV	1.0	n/a	<>	-999	-1	[0, 0, 0]	n/a	FR1	0	R1331T
354.379	3.129	355421	REC_WORD_VV	3.129	n/a	<>	-999	-1	[0, 0, 0]	n/a	FR1	0	R1331T
357.508	9.882	358550	REC_WORD_VV	9.882	n/a	<>	-999	-1	[0, 0, 0]	n/a	FR1	0	R1331T
367.39	0.0	368432	REC_END	n/a	n/a	n/a	-999	-1	[0, 0, 0]	n/a	FR1	0	R1331T
367.39	104.014	368432	PRACTICE_POST_INSTRUCT_START	n/a	n/a	n/a	-999	-1	[0, 0, 0]	n/a	FR1	0	R1331T
471.404	0.0	472441	PRACTICE_POST_INSTRUCT_END	n/a	n/a	n/a	-999	-1	[0, 0, 0]	n/a	FR1	0	R1331T
471.404	0.016	472441	TRIAL_END	n/a	n/a	n/a	-999	-1	[0, 0, 0]	n/a	FR1	0	R1331T
471.42	0.0	472457	WAITING_START	n/a	n/a	n/a	-999	1	[0, 0, 0]	n/a	FR1	0	R1331T
471.42	0.0	472457	TRIAL_START	n/a	n/a	n/a	-999	1	[0, 0, 0]	n/a	FR1	0	R1331T
471.42	9.452	472457	TRIAL	n/a	n/a	n/a	-999	1	[0, 0, 0]	n/a	FR1	0	R1331T
480.872	0.001	481909	WAITING_END	n/a	n/a	n/a	-999	1	[0, 0, 0]	n/a	FR1	0	R1331T
480.873	10.43	481910	COUNTDOWN_START	n/a	n/a	n/a	-999	1	[0, 0, 0]	n/a	FR1	0	R1331T
491.303	0.0	492339	COUNTDOWN_END	n/a	n/a	n/a	-999	1	[0, 0, 0]	n/a	FR1	0	R1331T
491.303	1.221	492339	ORIENT_START	n/a	n/a	n/a	-999	1	[0, 0, 0]	n/a	FR1	0	R1331T
492.524	0.0	493560	ENCODING_START	n/a	n/a	n/a	-999	1	[0, 0, 0]	n/a	FR1	0	R1331T
492.524	0.833	493560	ORIENT_END	n/a	n/a	n/a	-999	1	[0, 0, 0]	n/a	FR1	0	R1331T
493.357	1.634	494393	WORD	n/a	wordpools/wordpool_long_SP.txt	CORDERO	1	1	[0, 0, 0]	n/a	FR1	0	R1331T
494.991	0.805	496027	WORD_OFF	n/a	n/a	CORDERO	1	1	[0, 0, 0]	n/a	FR1	0	R1331T
495.796	1.629	496832	WORD	n/a	wordpools/wordpool_long_SP.txt	REMO	2	1	[0, 0, 0]	n/a	FR1	0	R1331T
497.425	1.1	498461	WORD_OFF	n/a	n/a	REMO	2	1	[0, 0, 0]	n/a	FR1	0	R1331T
498.525	1.633	499561	WORD	n/a	wordpools/wordpool_long_SP.txt	CABRA	3	1	[0, 0, 0]	n/a	FR1	0	R1331T
500.158	0.93	501194	WORD_OFF	n/a	n/a	CABRA	3	1	[0, 0, 0]	n/a	FR1	0	R1331T
501.088	1.637	502124	WORD	n/a	wordpools/wordpool_long_SP.txt	FLORECER	4	1	[0, 0, 0]	n/a	FR1	0	R1331T
502.725	0.869	503761	WORD_OFF	n/a	n/a	FLORECER	4	1	[0, 0, 0]	n/a	FR1	0	R1331T
503.594	1.632	504630	WORD	n/a	wordpools/wordpool_long_SP.txt	TARRO	5	1	[0, 0, 0]	n/a	FR1	0	R1331T
505.226	1.007	506262	WORD_OFF	n/a	n/a	TARRO	5	1	[0, 0, 0]	n/a	FR1	0	R1331T
506.233	1.611	507269	WORD	n/a	wordpools/wordpool_long_SP.txt	FICHA	6	1	[0, 0, 0]	n/a	FR1	0	R1331T
507.844	0.91	508880	WORD_OFF	n/a	n/a	FICHA	6	1	[0, 0, 0]	n/a	FR1	0	R1331T
508.754	1.623	509790	WORD	n/a	wordpools/wordpool_long_SP.txt	SONRISA	7	1	[0, 0, 0]	n/a	FR1	0	R1331T
510.377	0.795	511413	WORD_OFF	n/a	n/a	SONRISA	7	1	[0, 0, 0]	n/a	FR1	0	R1331T
511.172	1.622	512207	WORD	n/a	wordpools/wordpool_long_SP.txt	NIEVE	8	1	[0, 0, 0]	n/a	FR1	0	R1331T
512.794	0.939	513829	WORD_OFF	n/a	n/a	NIEVE	8	1	[0, 0, 0]	n/a	FR1	0	R1331T
513.733	1.628	514768	WORD	n/a	wordpools/wordpool_long_SP.txt	MUNECO	9	1	[0, 0, 0]	n/a	FR1	0	R1331T
515.361	1.033	516396	WORD_OFF	n/a	n/a	MUNECO	9	1	[0, 0, 0]	n/a	FR1	0	R1331T
516.394	1.634	517429	WORD	n/a	wordpools/wordpool_long_SP.txt	UVA	10	1	[0, 0, 0]	n/a	FR1	0	R1331T
518.028	1.079	519063	WORD_OFF	n/a	n/a	UVA	10	1	[0, 0, 0]	n/a	FR1	0	R1331T
519.107	1.622	520142	WORD	n/a	wordpools/wordpool_long_SP.txt	UNA	11	1	[0, 0, 0]	n/a	FR1	0	R1331T
520.729	0.787	521764	WORD_OFF	n/a	n/a	UNA	11	1	[0, 0, 0]	n/a	FR1	0	R1331T
521.516	1.63	522551	WORD	n/a	wordpools/wordpool_long_SP.txt	PIPA	12	1	[0, 0, 0]	n/a	FR1	0	R1331T
523.146	0.0	524181	WORD_OFF	n/a	n/a	PIPA	12	1	[0, 0, 0]	n/a	FR1	0	R1331T
523.146	0.0	524181	ENCODING_END	n/a	n/a	n/a	-999	1	[0, 0, 0]	n/a	FR1	0	R1331T
523.146	0.001	524181	DISTRACT_START	n/a	n/a	n/a	-999	1	[0, 0, 0]	n/a	FR1	0	R1331T
523.147	0.015	524182	START	n/a	n/a	n/a	-999	1	[-999, -999, -999]	n/a	FR1	0	R1331T
523.162	7.485	524197	PROB	7.485	n/a	n/a	-999	1	[1, 2, 8]	11	FR1	0	R1331T
530.647	10.352	531682	PROB	10.352	n/a	n/a	-999	1	[5, 6, 9]	20	FR1	0	R1331T
540.999	7.891	542033	PROB	7.891	n/a	n/a	-999	1	[9, 8, 1]	18	FR1	0	R1331T
548.89	0.011	549924	STOP	n/a	n/a	n/a	-999	1	[-999, -999, -999]	n/a	FR1	0	R1331T
548.901	0.648	549935	DISTRACT_END	n/a	n/a	n/a	-999	1	[0, 0, 0]	n/a	FR1	0	R1331T
549.549	1.652	550583	RETRIEVAL_ORIENT_START	n/a	n/a	n/a	-999	1	[0, 0, 0]	n/a	FR1	0	R1331T
551.201	0.0	552235	REC_START	n/a	n/a	n/a	-999	1	[0, 0, 0]	n/a	FR1	0	R1331T
551.201	6.05	552235	RETRIEVAL_ORIENT_END	n/a	n/a	n/a	-999	1	[0, 0, 0]	n/a	FR1	0	R1331T
557.251	2.638	558285	REC_WORD	2.638	n/a	CORDERO	1	1	[0, 0, 0]	n/a	FR1	0	R1331T
559.889	1.994	560922	REC_WORD	1.994	n/a	FAMA	-999	1	[0, 0, 0]	n/a	FR1	0	R1331T
561.883	2.608	562916	REC_WORD	2.608	n/a	UNA	-999	1	[0, 0, 0]	n/a	FR1	0	R1331T
564.491	3.628	565524	REC_WORD	3.628	n/a	NIEVE	8	1	[0, 0, 0]	n/a	FR1	0	R1331T
568.119	0.787	569152	REC_WORD_VV	0.787	n/a	<>	-999	1	[0, 0, 0]	n/a	FR1	0	R1331T
568.906	4.739	569939	REC_WORD	4.739	n/a	PINTURA	-999	1	[0, 0, 0]	n/a	FR1	0	R1331T
573.645	6.593	574678	REC_WORD	6.593	n/a	FLORECER	4	1	[0, 0, 0]	n/a	FR1	0	R1331T
580.238	0.974	581271	REC_WORD_VV	0.974	n/a	<>	-999	1	[0, 0, 0]	n/a	FR1	0	R1331T
581.212	0.0	582244	TRIAL_END	n/a	n/a	n/a	-999	1	[0, 0, 0]	n/a	FR1	0	R1331T
581.212	0.016	582244	REC_END	n/a	n/a	n/a	-999	1	[0, 0, 0]	n/a	FR1	0	R1331T
581.228	0.0	582260	TRIAL_START	n/a	n/a	n/a	-999	2	[0, 0, 0]	n/a	FR1	0	R1331T
581.228	0.0	582260	TRIAL	n/a	n/a	n/a	-999	2	[0, 0, 0]	n/a	FR1	0	R1331T
581.228	11.93	582260	WAITING_START	n/a	n/a	n/a	-999	2	[0, 0, 0]	n/a	FR1	0	R1331T
593.158	0.001	594190	WAITING_END	n/a	n/a	n/a	-999	2	[0, 0, 0]	n/a	FR1	0	R1331T
593.159	10.429	594191	COUNTDOWN_START	n/a	n/a	n/a	-999	2	[0, 0, 0]	n/a	FR1	0	R1331T
603.588	0.0	604620	COUNTDOWN_END	n/a	n/a	n/a	-999	2	[0, 0, 0]	n/a	FR1	0	R1331T
603.588	1.123	604620	ORIENT_START	n/a	n/a	n/a	-999	2	[0, 0, 0]	n/a	FR1	0	R1331T
604.711	0.0	605742	ENCODING_START	n/a	n/a	n/a	-999	2	[0, 0, 0]	n/a	FR1	0	R1331T
604.711	0.901	605742	ORIENT_END	n/a	n/a	n/a	-999	2	[0, 0, 0]	n/a	FR1	0	R1331T
605.612	1.632	606643	WORD	n/a	wordpools/wordpool_long_SP.txt	GATO	1	2	[0, 0, 0]	n/a	FR1	0	R1331T
607.244	0.908	608275	WORD_OFF	n/a	n/a	GATO	1	2	[0, 0, 0]	n/a	FR1	0	R1331T
608.152	1.626	609183	WORD	n/a	wordpools/wordpool_long_SP.txt	MEDIA	2	2	[0, 0, 0]	n/a	FR1	0	R1331T
609.778	0.991	610809	WORD_OFF	n/a	n/a	MEDIA	2	2	[0, 0, 0]	n/a	FR1	0	R1331T
610.769	1.626	611800	WORD	n/a	wordpools/wordpool_long_SP.txt	TRAPO	3	2	[0, 0, 0]	n/a	FR1	0	R1331T
612.395	0.846	613426	WORD_OFF	n/a	n/a	TRAPO	3	2	[0, 0, 0]	n/a	FR1	0	R1331T
613.241	1.622	614272	WORD	n/a	wordpools/wordpool_long_SP.txt	FRUTA	4	2	[0, 0, 0]	n/a	FR1	0	R1331T
614.863	0.756	615894	WORD_OFF	n/a	n/a	FRUTA	4	2	[0, 0, 0]	n/a	FR1	0	R1331T
615.619	1.627	616650	WORD	n/a	wordpools/wordpool_long_SP.txt	CORREO	5	2	[0, 0, 0]	n/a	FR1	0	R1331T
617.246	0.928	618277	WORD_OFF	n/a	n/a	CORREO	5	2	[0, 0, 0]	n/a	FR1	0	R1331T
618.174	1.623	619205	WORD	n/a	wordpools/wordpool_long_SP.txt	RED	6	2	[0, 0, 0]	n/a	FR1	0	R1331T
619.797	0.779	620828	WORD_OFF	n/a	n/a	RED	6	2	[0, 0, 0]	n/a	FR1	0	R1331T
620.576	1.638	621607	WORD	n/a	wordpools/wordpool_long_SP.txt	ZORRO	7	2	[0, 0, 0]	n/a	FR1	0	R1331T
622.214	0.971	623245	WORD_OFF	n/a	n/a	ZORRO	7	2	[0, 0, 0]	n/a	FR1	0	R1331T
623.185	1.629	624216	WORD	n/a	wordpools/wordpool_long_SP.txt	CUERNO	8	2	[0, 0, 0]	n/a	FR1	0	R1331T
624.814	0.772	625845	WORD_OFF	n/a	n/a	CUERNO	8	2	[0, 0, 0]	n/a	FR1	0	R1331T
625.586	1.629	626617	WORD	n/a	wordpools/wordpool_long_SP.txt	MANGA	9	2	[0, 0, 0]	n/a	FR1	0	R1331T
627.215	1.117	628246	WORD_OFF	n/a	n/a	MANGA	9	2	[0, 0, 0]	n/a	FR1	0	R1331T
628.332	1.633	629362	WORD	n/a	wordpools/wordpool_long_SP.txt	LUNA	10	2	[0, 0, 0]	n/a	FR1	0	R1331T
629.965	0.802	630995	WORD_OFF	n/a	n/a	LUNA	10	2	[0, 0, 0]	n/a	FR1	0	R1331T
630.767	1.632	631797	WORD	n/a	wordpools/wordpool_long_SP.txt	BANDA	11	2	[0, 0, 0]	n/a	FR1	0	R1331T
632.399	1.021	633429	WORD_OFF	n/a	n/a	BANDA	11	2	[0, 0, 0]	n/a	FR1	0	R1331T
633.42	1.629	634450	WORD	n/a	wordpools/wordpool_long_SP.txt	TARTA	12	2	[0, 0, 0]	n/a	FR1	0	R1331T
635.049	0.001	636079	WORD_OFF	n/a	n/a	TARTA	12	2	[0, 0, 0]	n/a	FR1	0	R1331T
635.05	0.0	636080	ENCODING_END	n/a	n/a	n/a	-999	2	[0, 0, 0]	n/a	FR1	0	R1331T
635.05	0.0	636080	DISTRACT_START	n/a	n/a	n/a	-999	2	[0, 0, 0]	n/a	FR1	0	R1331T
635.05	0.016	636080	START	n/a	n/a	n/a	-999	2	[-999, -999, -999]	n/a	FR1	0	R1331T
635.066	9.735	636096	PROB	9.735	n/a	n/a	-999	2	[1, 8, 7]	16	FR1	0	R1331T
644.801	7.651	645831	PROB	7.651	n/a	n/a	-999	2	[7, 2, 3]	12	FR1	0	R1331T
652.452	6.951	653481	PROB	6.951	n/a	n/a	-999	2	[8, 4, 1]	13	FR1	0	R1331T
659.403	0.017	660432	STOP	n/a	n/a	n/a	-999	2	[-999, -999, -999]	n/a	FR1	0	R1331T
659.42	0.541	660449	DISTRACT_END	n/a	n/a	n/a	-999	2	[0, 0, 0]	n/a	FR1	0	R1331T
659.961	1.643	660990	RETRIEVAL_ORIENT_START	n/a	n/a	n/a	-999	2	[0, 0, 0]	n/a	FR1	0	R1331T
661.604	0.0	662633	REC_START	n/a	n/a	n/a	-999	2	[0, 0, 0]	n/a	FR1	0	R1331T
661.604	3.615	662633	RETRIEVAL_ORIENT_END	n/a	n/a	n/a	-999	2	[0, 0, 0]	n/a	FR1	0	R1331T
665.219	1.4	666248	REC_WORD_VV	1.4	n/a	<>	-999	2	[0, 0, 0]	n/a	FR1	0	R1331T
666.619	1.311	667648	REC_WORD	1.311	n/a	CORREO	5	2	[0, 0, 0]	n/a	FR1	0	R1331T
667.93	1.172	668959	REC_WORD	1.172	n/a	MANGA	9	2	[0, 0, 0]	n/a	FR1	0	R1331T
669.102	1.407	670131	REC_WORD	1.407	n/a	LUNA	10	2	[0, 0, 0]	n/a	FR1	0	R1331T
670.509	2.159	671538	REC_WORD	2.159	n/a	ALGODON	-999	2	[0, 0, 0]	n/a	FR1	0	R1331T
672.668	1.711	673697	REC_WORD	1.711	n/a	BEBE	-999	2	[0, 0, 0]	n/a	FR1	0	R1331T
674.379	2.243	675408	REC_WORD	2.243	n/a	SONRISA	-999	2	[0, 0, 0]	n/a	FR1	0	R1331T
676.622	4.093	677650	REC_WORD	4.093	n/a	UNA	-999	2	[0, 0, 0]	n/a	FR1	0	R1331T
680.715	0.895	681743	REC_WORD_VV	0.895	n/a	<>	-999	2	[0, 0, 0]	n/a	FR1	0	R1331T
681.61	5.009	682638	REC_WORD	5.009	n/a	CALCETA	-999	2	[0, 0, 0]	n/a	FR1	0	R1331T
686.619	1.249	687647	REC_WORD_VV	1.249	n/a	<>	-999	2	[0, 0, 0]	n/a	FR1	0	R1331T
687.868	3.748	688896	REC_WORD	3.748	n/a	MEDIA	2	2	[0, 0, 0]	n/a	FR1	0	R1331T
691.616	0.0	692644	REC_END	n/a	n/a	n/a	-999	2	[0, 0, 0]	n/a	FR1	0	R1331T
691.616	0.017	692644	TRIAL_END	n/a	n/a	n/a	-999	2	[0, 0, 0]	n/a	FR1	0	R1331T
691.633	0.001	692661	TRIAL_START	n/a	n/a	n/a	-999	3	[0, 0, 0]	n/a	FR1	0	R1331T
691.634	0.0	692662	TRIAL	n/a	n/a	n/a	-999	3	[0, 0, 0]	n/a	FR1	0	R1331T
691.634	3.927	692662	WAITING_START	n/a	n/a	n/a	-999	3	[0, 0, 0]	n/a	FR1	0	R1331T
695.561	0.0	696589	COUNTDOWN_START	n/a	n/a	n/a	-999	3	[0, 0, 0]	n/a	FR1	0	R1331T
695.561	10.428	696589	WAITING_END	n/a	n/a	n/a	-999	3	[0, 0, 0]	n/a	FR1	0	R1331T
705.989	0.001	707016	COUNTDOWN_END	n/a	n/a	n/a	-999	3	[0, 0, 0]	n/a	FR1	0	R1331T
705.99	1.139	707017	ORIENT_START	n/a	n/a	n/a	-999	3	[0, 0, 0]	n/a	FR1	0	R1331T
707.129	0.001	708156	ORIENT_END	n/a	n/a	n/a	-999	3	[0, 0, 0]	n/a	FR1	0	R1331T
707.13	0.939	708157	ENCODING_START	n/a	n/a	n/a	-999	3	[0, 0, 0]	n/a	FR1	0	R1331T
708.069	1.627	709096	WORD	n/a	wordpools/wordpool_long_SP.txt	CANDADO	1	3	[0, 0, 0]	n/a	FR1	0	R1331T
709.696	0.993	710723	WORD_OFF	n/a	n/a	CANDADO	1	3	[0, 0, 0]	n/a	FR1	0	R1331T
710.689	1.624	711716	WORD	n/a	wordpools/wordpool_long_SP.txt	JUEZ	2	3	[0, 0, 0]	n/a	FR1	0	R1331T
712.313	0.798	713340	WORD_OFF	n/a	n/a	JUEZ	2	3	[0, 0, 0]	n/a	FR1	0	R1331T
713.111	1.636	714138	WORD	n/a	wordpools/wordpool_long_SP.txt	ROBLE	3	3	[0, 0, 0]	n/a	FR1	0	R1331T
714.747	0.859	715774	WORD_OFF	n/a	n/a	ROBLE	3	3	[0, 0, 0]	n/a	FR1	0	R1331T
715.606	1.625	716633	WORD	n/a	wordpools/wordpool_long_SP.txt	LLAMA	4	3	[0, 0, 0]	n/a	FR1	0	R1331T
717.231	0.863	718258	WORD_OFF	n/a	n/a	LLAMA	4	3	[0, 0, 0]	n/a	FR1	0	R1331T
718.094	1.637	719121	WORD	n/a	wordpools/wordpool_long_SP.txt	PASTA	5	3	[0, 0, 0]	n/a	FR1	0	R1331T
719.731	0.972	720758	WORD_OFF	n/a	n/a	PASTA	5	3	[0, 0, 0]	n/a	FR1	0	R1331T
720.703	1.629	721730	WORD	n/a	wordpools/wordpool_long_SP.txt	HIELO	6	3	[0, 0, 0]	n/a	FR1	0	R1331T
722.332	0.894	723358	WORD_OFF	n/a	n/a	HIELO	6	3	[0, 0, 0]	n/a	FR1	0	R1331T
723.226	1.624	724252	WORD	n/a	wordpools/wordpool_long_SP.txt	JAULA	7	3	[0, 0, 0]	n/a	FR1	0	R1331T
724.85	1.103	725876	WORD_OFF	n/a	n/a	JAULA	7	3	[0, 0, 0]	n/a	FR1	0	R1331T
725.953	1.63	726979	WORD	n/a	wordpools/wordpool_long_SP.txt	AUTO	8	3	[0, 0, 0]	n/a	FR1	0	R1331T
727.583	0.792	728609	WORD_OFF	n/a	n/a	AUTO	8	3	[0, 0, 0]	n/a	FR1	0	R1331T
728.375	1.625	729401	WORD	n/a	wordpools/wordpool_long_SP.txt	FUERTE	9	3	[0, 0, 0]	n/a	FR1	0	R1331T
730.0	1.033	731026	WORD_OFF	n/a	n/a	FUERTE	9	3	[0, 0, 0]	n/a	FR1	0	R1331T
731.033	1.634	732059	WORD	n/a	wordpools/wordpool_long_SP.txt	TIENDA	10	3	[0, 0, 0]	n/a	FR1	0	R1331T
732.667	0.792	733693	WORD_OFF	n/a	n/a	TIENDA	10	3	[0, 0, 0]	n/a	FR1	0	R1331T
733.459	1.625	734485	WORD	n/a	wordpools/wordpool_long_SP.txt	HUMO	11	3	[0, 0, 0]	n/a	FR1	0	R1331T
735.084	1.02	736110	WORD_OFF	n/a	n/a	HUMO	11	3	[0, 0, 0]	n/a	FR1	0	R1331T
736.104	1.631	737130	WORD	n/a	wordpools/wordpool_long_SP.txt	CORONA	12	3	[0, 0, 0]	n/a	FR1	0	R1331T
737.735	0.0	738761	ENCODING_END	n/a	n/a	n/a	-999	3	[0, 0, 0]	n/a	FR1	0	R1331T
737.735	0.001	738761	WORD_OFF	n/a	n/a	CORONA	12	3	[0, 0, 0]	n/a	FR1	0	R1331T
737.736	0.0	738762	DISTRACT_START	n/a	n/a	n/a	-999	3	[0, 0, 0]	n/a	FR1	0	R1331T
737.736	0.015	738762	START	n/a	n/a	n/a	-999	3	[-999, -999, -999]	n/a	FR1	0	R1331T
737.751	7.585	738777	PROB	7.585	n/a	n/a	-999	3	[3, 6, 4]	13	FR1	0	R1331T
745.336	5.518	746362	PROB	5.518	n/a	n/a	-999	3	[1, 1, 2]	4	FR1	0	R1331T
750.854	13.146	751879	PROB	13.146	n/a	n/a	-999	3	[4, 3, 9]	16	FR1	0	R1331T
764.0	0.006	765025	STOP	n/a	n/a	n/a	-999	3	[-999, -999, -999]	n/a	FR1	0	R1331T
764.006	0.609	765031	DISTRACT_END	n/a	n/a	n/a	-999	3	[0, 0, 0]	n/a	FR1	0	R1331T
764.615	1.592	765640	RETRIEVAL_ORIENT_START	n/a	n/a	n/a	-999	3	[0, 0, 0]	n/a	FR1	0	R1331T
766.207	0.0	767232	RETRIEVAL_ORIENT_END	n/a	n/a	n/a	-999	3	[0, 0, 0]	n/a	FR1	0	R1331T
766.207	4.499	767232	REC_START	n/a	n/a	n/a	-999	3	[0, 0, 0]	n/a	FR1	0	R1331T
770.706	6.808	771730	REC_WORD_VV	6.808	n/a	<>	-999	3	[0, 0, 0]	n/a	FR1	0	R1331T
777.514	1.0	778538	REC_WORD	1.0	n/a	JUEZ	2	3	[0, 0, 0]	n/a	FR1	0	R1331T
778.514	2.37	779538	REC_WORD_VV	2.37	n/a	<>	-999	3	[0, 0, 0]	n/a	FR1	0	R1331T
780.884	1.0	781908	REC_WORD	1.0	n/a	TARRO	-999	3	[0, 0, 0]	n/a	FR1	0	R1331T
781.884	1.493	782908	REC_WORD_VV	1.493	n/a	<>	-999	3	[0, 0, 0]	n/a	FR1	0	R1331T
783.377	1.0	784401	REC_WORD	1.0	n/a	PINTURA	-999	3	[0, 0, 0]	n/a	FR1	0	R1331T
784.377	2.637	785401	REC_WORD_VV	2.637	n/a	<>	-999	3	[0, 0, 0]	n/a	FR1	0	R1331T
787.014	1.0	788038	REC_WORD	1.0	n/a	MESA	-999	3	[0, 0, 0]	n/a	FR1	0	R1331T
788.014	2.941	789038	REC_WORD_VV	2.941	n/a	<>	-999	3	[0, 0, 0]	n/a	FR1	0	R1331T
790.955	1.0	791979	REC_WORD_VV	1.0	n/a	<>	-999	3	[0, 0, 0]	n/a	FR1	0	R1331T
791.955	1.836	792979	REC_WORD_VV	1.836	n/a	<>	-999	3	[0, 0, 0]	n/a	FR1	0	R1331T
793.791	0.874	794814	REC_WORD	0.874	n/a	CORDERO	-999	3	[0, 0, 0]	n/a	FR1	0	R1331T
794.665	1.552	795688	REC_WORD	1.552	n/a	LLAMA	4	3	[0, 0, 0]	n/a	FR1	0	R1331T
796.217	0.0	797240	TRIAL_END	n/a	n/a	n/a	-999	3	[0, 0, 0]	n/a	FR1	0	R1331T
796.217	0.016	797240	REC_END	n/a	n/a	n/a	-999	3	[0, 0, 0]	n/a	FR1	0	R1331T
796.233	0.001	797256	TRIAL_START	n/a	n/a	n/a	-999	4	[0, 0, 0]	n/a	FR1	0	R1331T
796.234	0.0	797257	TRIAL	n/a	n/a	n/a	-999	4	[0, 0, 0]	n/a	FR1	0	R1331T
796.234	4.246	797257	WAITING_START	n/a	n/a	n/a	-999	4	[0, 0, 0]	n/a	FR1	0	R1331T
800.48	0.0	801503	WAITING_END	n/a	n/a	n/a	-999	4	[0, 0, 0]	n/a	FR1	0	R1331T
800.48	10.428	801503	COUNTDOWN_START	n/a	n/a	n/a	-999	4	[0, 0, 0]	n/a	FR1	0	R1331T
810.908	0.001	811931	COUNTDOWN_END	n/a	n/a	n/a	-999	4	[0, 0, 0]	n/a	FR1	0	R1331T
810.909	1.106	811932	ORIENT_START	n/a	n/a	n/a	-999	4	[0, 0, 0]	n/a	FR1	0	R1331T
812.015	0.0	813038	ENCODING_START	n/a	n/a	n/a	-999	4	[0, 0, 0]	n/a	FR1	0	R1331T
812.015	1.146	813038	ORIENT_END	n/a	n/a	n/a	-999	4	[0, 0, 0]	n/a	FR1	0	R1331T
813.161	1.638	814184	WORD	n/a	wordpools/wordpool_long_SP.txt	BASURA	1	4	[0, 0, 0]	n/a	FR1	0	R1331T
814.799	0.776	815822	WORD_OFF	n/a	n/a	BASURA	1	4	[0, 0, 0]	n/a	FR1	0	R1331T
815.575	1.624	816598	WORD	n/a	wordpools/wordpool_long_SP.txt	MEJILLA	2	4	[0, 0, 0]	n/a	FR1	0	R1331T
817.199	0.779	818221	WORD_OFF	n/a	n/a	MEJILLA	2	4	[0, 0, 0]	n/a	FR1	0	R1331T
817.978	1.638	819000	WORD	n/a	wordpools/wordpool_long_SP.txt	DIENTES	3	4	[0, 0, 0]	n/a	FR1	0	R1331T
819.616	0.887	820638	WORD_OFF	n/a	n/a	DIENTES	3	4	[0, 0, 0]	n/a	FR1	0	R1331T
820.503	1.63	821525	WORD	n/a	wordpools/wordpool_long_SP.txt	FRIJOL	4	4	[0, 0, 0]	n/a	FR1	0	R1331T
822.133	0.893	823155	WORD_OFF	n/a	n/a	FRIJOL	4	4	[0, 0, 0]	n/a	FR1	0	R1331T
823.026	1.624	824048	WORD	n/a	wordpools/wordpool_long_SP.txt	CESPED	5	4	[0, 0, 0]	n/a	FR1	0	R1331T
824.65	0.754	825672	WORD_OFF	n/a	n/a	CESPED	5	4	[0, 0, 0]	n/a	FR1	0	R1331T
825.404	1.63	826426	WORD	n/a	wordpools/wordpool_long_SP.txt	LABERINTO	6	4	[0, 0, 0]	n/a	FR1	0	R1331T
827.034	0.879	828056	WORD_OFF	n/a	n/a	LABERINTO	6	4	[0, 0, 0]	n/a	FR1	0	R1331T
827.913	1.622	828935	WORD	n/a	wordpools/wordpool_long_SP.txt	OSO	7	4	[0, 0, 0]	n/a	FR1	0	R1331T
829.535	0.999	830557	WORD_OFF	n/a	n/a	OSO	7	4	[0, 0, 0]	n/a	FR1	0	R1331T
830.534	1.635	831556	WORD	n/a	wordpools/wordpool_long_SP.txt	COPA	8	4	[0, 0, 0]	n/a	FR1	0	R1331T
832.169	1.039	833191	WORD_OFF	n/a	n/a	COPA	8	4	[0, 0, 0]	n/a	FR1	0	R1331T
833.208	1.628	834230	WORD	n/a	wordpools/wordpool_long_SP.txt	MURCIELAGO	9	4	[0, 0, 0]	n/a	FR1	0	R1331T
834.836	0.956	835858	WORD_OFF	n/a	n/a	MURCIELAGO	9	4	[0, 0, 0]	n/a	FR1	0	R1331T
835.792	1.628	836814	WORD	n/a	wordpools/wordpool_long_SP.txt	PAPALOTE	10	4	[0, 0, 0]	n/a	FR1	0	R1331T
837.42	1.101	838442	WORD_OFF	n/a	n/a	PAPALOTE	10	4	[0, 0, 0]	n/a	FR1	0	R1331T
838.521	1.632	839543	WORD	n/a	wordpools/wordpool_long_SP.txt	PARQUE	11	4	[0, 0, 0]	n/a	FR1	0	R1331T
840.153	1.047	841174	WORD_OFF	n/a	n/a	PARQUE	11	4	[0, 0, 0]	n/a	FR1	0	R1331T
841.2	1.638	842221	WORD	n/a	wordpools/wordpool_long_SP.txt	ESQUI	12	4	[0, 0, 0]	n/a	FR1	0	R1331T
842.838	0.001	843859	WORD_OFF	n/a	n/a	ESQUI	12	4	[0, 0, 0]	n/a	FR1	0	R1331T
842.839	0.0	843860	ENCODING_END	n/a	n/a	n/a	-999	4	[0, 0, 0]	n/a	FR1	0	R1331T
842.839	0.0	843860	DISTRACT_START	n/a	n/a	n/a	-999	4	[0, 0, 0]	n/a	FR1	0	R1331T
842.839	0.016	843860	START	n/a	n/a	n/a	-999	4	[-999, -999, -999]	n/a	FR1	0	R1331T
842.855	12.201	843876	PROB	12.201	n/a	n/a	-999	4	[2, 4, 7]	13	FR1	0	R1331T
855.056	6.984	856077	PROB	6.984	n/a	n/a	-999	4	[8, 2, 6]	16	FR1	0	R1331T
862.04	5.948	863061	PROB	5.948	n/a	n/a	-999	4	[4, 3, 6]	13	FR1	0	R1331T
867.988	0.02	869008	STOP	n/a	n/a	n/a	-999	4	[-999, -999, -999]	n/a	FR1	0	R1331T
868.008	0.602	869028	DISTRACT_END	n/a	n/a	n/a	-999	4	[0, 0, 0]	n/a	FR1	0	R1331T
868.61	1.616	869630	RETRIEVAL_ORIENT_START	n/a	n/a	n/a	-999	4	[0, 0, 0]	n/a	FR1	0	R1331T
870.226	0.0	871246	RETRIEVAL_ORIENT_END	n/a	n/a	n/a	-999	4	[0, 0, 0]	n/a	FR1	0	R1331T
870.226	3.146	871246	REC_START	n/a	n/a	n/a	-999	4	[0, 0, 0]	n/a	FR1	0	R1331T
873.372	6.014	874392	REC_WORD_VV	6.014	n/a	<>	-999	4	[0, 0, 0]	n/a	FR1	0	R1331T
879.386	1.176	880406	REC_WORD	1.176	n/a	CORDERO	-999	4	[0, 0, 0]	n/a	FR1	0	R1331T
880.562	2.853	881582	REC_WORD	2.853	n/a	ANILLO	-999	4	[0, 0, 0]	n/a	FR1	0	R1331T
883.415	1.33	884435	REC_WORD	1.33	n/a	PARQUE	11	4	[0, 0, 0]	n/a	FR1	0	R1331T
884.745	1.0	885765	REC_WORD	1.0	n/a	CESPED	-999	4	[0, 0, 0]	n/a	FR1	0	R1331T
885.745	1.313	886765	REC_WORD_VV	1.313	n/a	<>	-999	4	[0, 0, 0]	n/a	FR1	0	R1331T
887.058	1.0	888077	REC_WORD	1.0	n/a	ARBOL	-999	4	[0, 0, 0]	n/a	FR1	0	R1331T
888.058	1.63	889077	REC_WORD_VV	1.63	n/a	<>	-999	4	[0, 0, 0]	n/a	FR1	0	R1331T
889.688	1.0	890707	REC_WORD	1.0	n/a	LUNA	-999	4	[0, 0, 0]	n/a	FR1	0	R1331T
890.688	2.322	891707	REC_WORD_VV	2.322	n/a	<>	-999	4	[0, 0, 0]	n/a	FR1	0	R1331T
893.01	6.939	894029	REC_WORD_VV	6.939	n/a	<>	-999	4	[0, 0, 0]	n/a	FR1	0	R1331T
899.949	0.286	900968	REC_WORD_VV	0.286	n/a	<>	-999	4	[0, 0, 0]	n/a	FR1	0	R1331T
900.235	0.001	901254	REC_END	n/a	n/a	n/a	-999	4	[0, 0, 0]	n/a	FR1	0	R1331T
900.236	0.016	901255	TRIAL_END	n/a	n/a	n/a	-999	4	[0, 0, 0]	n/a	FR1	0	R1331T
900.252	0.0	901271	WAITING_START	n/a	n/a	n/a	-999	5	[0, 0, 0]	n/a	FR1	0	R1331T
900.252	0.0	901271	TRIAL	n/a	n/a	n/a	-999	5	[0, 0, 0]	n/a	FR1	0	R1331T
900.252	5.913	901271	TRIAL_START	n/a	n/a	n/a	-999	5	[0, 0, 0]	n/a	FR1	0	R1331T
906.165	0.001	907184	WAITING_END	n/a	n/a	n/a	-999	5	[0, 0, 0]	n/a	FR1	0	R1331T
906.166	10.428	907185	COUNTDOWN_START	n/a	n/a	n/a	-999	5	[0, 0, 0]	n/a	FR1	0	R1331T
916.594	0.001	917612	COUNTDOWN_END	n/a	n/a	n/a	-999	5	[0, 0, 0]	n/a	FR1	0	R1331T
916.595	1.039	917613	ORIENT_START	n/a	n/a	n/a	-999	5	[0, 0, 0]	n/a	FR1	0	R1331T
917.634	0.001	918652	ORIENT_END	n/a	n/a	n/a	-999	5	[0, 0, 0]	n/a	FR1	0	R1331T
917.635	0.787	918653	ENCODING_START	n/a	n/a	n/a	-999	5	[0, 0, 0]	n/a	FR1	0	R1331T
918.422	1.629	919440	WORD	n/a	wordpools/wordpool_long_SP.txt	TAPETE	1	5	[0, 0, 0]	n/a	FR1	0	R1331T
920.051	1.098	921069	WORD_OFF	n/a	n/a	TAPETE	1	5	[0, 0, 0]	n/a	FR1	0	R1331T
921.149	1.636	922167	WORD	n/a	wordpools/wordpool_long_SP.txt	MANO	2	5	[0, 0, 0]	n/a	FR1	0	R1331T
922.785	1.145	923803	WORD_OFF	n/a	n/a	MANO	2	5	[0, 0, 0]	n/a	FR1	0	R1331T
923.93	1.622	924948	WORD	n/a	wordpools/wordpool_long_SP.txt	HACHA	3	5	[0, 0, 0]	n/a	FR1	0	R1331T
925.552	1.11	926570	WORD_OFF	n/a	n/a	HACHA	3	5	[0, 0, 0]	n/a	FR1	0	R1331T
926.662	1.624	927680	WORD	n/a	wordpools/wordpool_long_SP.txt	MAPA	4	5	[0, 0, 0]	n/a	FR1	0	R1331T
928.286	0.924	929304	WORD_OFF	n/a	n/a	MAPA	4	5	[0, 0, 0]	n/a	FR1	0	R1331T
929.21	1.627	930228	WORD	n/a	wordpools/wordpool_long_SP.txt	GRANJA	5	5	[0, 0, 0]	n/a	FR1	0	R1331T
930.837	0.818	931855	WORD_OFF	n/a	n/a	GRANJA	5	5	[0, 0, 0]	n/a	FR1	0	R1331T
931.655	1.632	932673	WORD	n/a	wordpools/wordpool_long_SP.txt	CUBO	6	5	[0, 0, 0]	n/a	FR1	0	R1331T
933.287	1.123	934305	WORD_OFF	n/a	n/a	CUBO	6	5	[0, 0, 0]	n/a	FR1	0	R1331T
934.41	1.627	935427	WORD	n/a	wordpools/wordpool_long_SP.txt	CONO	7	5	[0, 0, 0]	n/a	FR1	0	R1331T
936.037	0.895	937054	WORD_OFF	n/a	n/a	CONO	7	5	[0, 0, 0]	n/a	FR1	0	R1331T
936.932	1.623	937949	WORD	n/a	wordpools/wordpool_long_SP.txt	ALFILER	8	5	[0, 0, 0]	n/a	FR1	0	R1331T
938.555	0.895	939572	WORD_OFF	n/a	n/a	ALFILER	8	5	[0, 0, 0]	n/a	FR1	0	R1331T
939.45	1.622	940467	WORD	n/a	wordpools/wordpool_long_SP.txt	BOLA	9	5	[0, 0, 0]	n/a	FR1	0	R1331T
941.072	0.846	942089	WORD_OFF	n/a	n/a	BOLA	9	5	[0, 0, 0]	n/a	FR1	0	R1331T
941.918	1.638	942935	WORD	n/a	wordpools/wordpool_long_SP.txt	JARRON	10	5	[0, 0, 0]	n/a	FR1	0	R1331T
943.556	0.986	944573	WORD_OFF	n/a	n/a	JARRON	10	5	[0, 0, 0]	n/a	FR1	0	R1331T
944.542	1.631	945559	WORD	n/a	wordpools/wordpool_long_SP.txt	RAMA	11	5	[0, 0, 0]	n/a	FR1	0	R1331T
946.173	0.952	947190	WORD_OFF	n/a	n/a	RAMA	11	5	[0, 0, 0]	n/a	FR1	0	R1331T
947.125	1.631	948142	WORD	n/a	wordpools/wordpool_long_SP.txt	RATON	12	5	[0, 0, 0]	n/a	FR1	0	R1331T
948.756	0.001	949773	WORD_OFF	n/a	n/a	RATON	12	5	[0, 0, 0]	n/a	FR1	0	R1331T
948.757	0.0	949774	ENCODING_END	n/a	n/a	n/a	-999	5	[0, 0, 0]	n/a	FR1	0	R1331T
948.757	0.0	949774	DISTRACT_START	n/a	n/a	n/a	-999	5	[0, 0, 0]	n/a	FR1	0	R1331T
948.757	0.016	949774	START	n/a	n/a	n/a	-999	5	[-999, -999, -999]	n/a	FR1	0	R1331T
948.773	8.401	949790	PROB	8.401	n/a	n/a	-999	5	[7, 5, 3]	15	FR1	0	R1331T
957.174	25.752	958190	PROB	25.752	n/a	n/a	-999	5	[8, 9, 6]	26	FR1	0	R1331T
982.926	0.021	983941	STOP	n/a	n/a	n/a	-999	5	[-999, -999, -999]	n/a	FR1	0	R1331T
982.947	0.639	983962	DISTRACT_END	n/a	n/a	n/a	-999	5	[0, 0, 0]	n/a	FR1	0	R1331T
983.586	1.677	984601	RETRIEVAL_ORIENT_START	n/a	n/a	n/a	-999	5	[0, 0, 0]	n/a	FR1	0	R1331T
985.263	0.0	986278	RETRIEVAL_ORIENT_END	n/a	n/a	n/a	-999	5	[0, 0, 0]	n/a	FR1	0	R1331T
985.263	1.097	986278	REC_START	n/a	n/a	n/a	-999	5	[0, 0, 0]	n/a	FR1	0	R1331T
986.36	0.999	987375	REC_WORD_VV	0.999	n/a	<>	-999	5	[0, 0, 0]	n/a	FR1	0	R1331T
987.359	1.0	988374	REC_WORD	1.0	n/a	TAPETE	1	5	[0, 0, 0]	n/a	FR1	0	R1331T
988.359	2.592	989374	REC_WORD_VV	2.592	n/a	<>	-999	5	[0, 0, 0]	n/a	FR1	0	R1331T
990.951	1.0	991966	REC_WORD	1.0	n/a	MANO	2	5	[0, 0, 0]	n/a	FR1	0	R1331T
991.951	0.532	992966	REC_WORD_VV	0.532	n/a	<>	-999	5	[0, 0, 0]	n/a	FR1	0	R1331T
992.483	1.0	993498	REC_WORD	1.0	n/a	CARRO	-999	5	[0, 0, 0]	n/a	FR1	0	R1331T
993.483	1.559	994498	REC_WORD_VV	1.559	n/a	<>	-999	5	[0, 0, 0]	n/a	FR1	0	R1331T
995.042	1.0	996057	REC_WORD_VV	1.0	n/a	<>	-999	5	[0, 0, 0]	n/a	FR1	0	R1331T
996.042	1.917	997057	REC_WORD_VV	1.917	n/a	<>	-999	5	[0, 0, 0]	n/a	FR1	0	R1331T
997.959	1.0	998974	REC_WORD	1.0	n/a	JARRON	-999	5	[0, 0, 0]	n/a	FR1	0	R1331T
998.959	1.609	999974	REC_WORD_VV	1.609	n/a	<>	-999	5	[0, 0, 0]	n/a	FR1	0	R1331T
1000.568	1.0	1001583	REC_WORD	1.0	n/a	FLORES	-999	5	[0, 0, 0]	n/a	FR1	0	R1331T
1001.568	2.743	1002583	REC_WORD_VV	2.743	n/a	<>	-999	5	[0, 0, 0]	n/a	FR1	0	R1331T
1004.311	3.953	1005325	REC_WORD_VV	3.953	n/a	<>	-999	5	[0, 0, 0]	n/a	FR1	0	R1331T
1008.264	1.0	1009278	REC_WORD	1.0	n/a	CAMISA	-999	5	[0, 0, 0]	n/a	FR1	0	R1331T
1009.264	3.393	1010278	REC_WORD_VV	3.393	n/a	<>	-999	5	[0, 0, 0]	n/a	FR1	0	R1331T
1012.657	1.0	1013671	REC_WORD	1.0	n/a	FLORETE	-999	5	[0, 0, 0]	n/a	FR1	0	R1331T
1013.657	1.616	1014671	REC_WORD_VV	1.616	n/a	<>	-999	5	[0, 0, 0]	n/a	FR1	0	R1331T
1015.273	0.0	1016287	TRIAL_END	n/a	n/a	n/a	-999	5	[0, 0, 0]	n/a	FR1	0	R1331T
1015.273	0.015	1016287	REC_END	n/a	n/a	n/a	-999	5	[0, 0, 0]	n/a	FR1	0	R1331T
1015.288	0.0	1016302	TRIAL_START	n/a	n/a	n/a	-999	6	[0, 0, 0]	n/a	FR1	0	R1331T
1015.288	0.0	1016302	TRIAL	n/a	n/a	n/a	-999	6	[0, 0, 0]	n/a	FR1	0	R1331T
1015.288	3.348	1016302	WAITING_START	n/a	n/a	n/a	-999	6	[0, 0, 0]	n/a	FR1	0	R1331T
1018.636	0.0	1019650	WAITING_END	n/a	n/a	n/a	-999	6	[0, 0, 0]	n/a	FR1	0	R1331T
1018.636	10.43	1019650	COUNTDOWN_START	n/a	n/a	n/a	-999	6	[0, 0, 0]	n/a	FR1	0	R1331T
1029.066	0.001	1030079	COUNTDOWN_END	n/a	n/a	n/a	-999	6	[0, 0, 0]	n/a	FR1	0	R1331T
1029.067	1.154	1030080	ORIENT_START	n/a	n/a	n/a	-999	6	[0, 0, 0]	n/a	FR1	0	R1331T
1030.221	0.001	1031234	ORIENT_END	n/a	n/a	n/a	-999	6	[0, 0, 0]	n/a	FR1	0	R1331T
1030.222	0.828	1031235	ENCODING_START	n/a	n/a	n/a	-999	6	[0, 0, 0]	n/a	FR1	0	R1331T
1031.05	1.638	1032063	WORD	n/a	wordpools/wordpool_long_SP.txt	CIELO	1	6	[0, 0, 0]	n/a	FR1	0	R1331T
1032.688	0.934	1033701	WORD_OFF	n/a	n/a	CIELO	1	6	[0, 0, 0]	n/a	FR1	0	R1331T
1033.622	1.634	1034635	WORD	n/a	wordpools/wordpool_long_SP.txt	HIERBA	2	6	[0, 0, 0]	n/a	FR1	0	R1331T
1035.256	0.85	1036269	WORD_OFF	n/a	n/a	HIERBA	2	6	[0, 0, 0]	n/a	FR1	0	R1331T
1036.106	1.633	1037119	WORD	n/a	wordpools/wordpool_long_SP.txt	TENEDOR	3	6	[0, 0, 0]	n/a	FR1	0	R1331T
1037.739	0.807	1038752	WORD_OFF	n/a	n/a	TENEDOR	3	6	[0, 0, 0]	n/a	FR1	0	R1331T
1038.546	1.627	1039559	WORD	n/a	wordpools/wordpool_long_SP.txt	ESPADA	4	6	[0, 0, 0]	n/a	FR1	0	R1331T
1040.173	0.803	1041186	WORD_OFF	n/a	n/a	ESPADA	4	6	[0, 0, 0]	n/a	FR1	0	R1331T
1040.976	1.631	1041989	WORD	n/a	wordpools/wordpool_long_SP.txt	ELFO	5	6	[0, 0, 0]	n/a	FR1	0	R1331T
1042.607	0.953	1043620	WORD_OFF	n/a	n/a	ELFO	5	6	[0, 0, 0]	n/a	FR1	0	R1331T
1043.56	1.631	1044573	WORD	n/a	wordpools/wordpool_long_SP.txt	PANTANO	6	6	[0, 0, 0]	n/a	FR1	0	R1331T
1045.191	0.979	1046204	WORD_OFF	n/a	n/a	PANTANO	6	6	[0, 0, 0]	n/a	FR1	0	R1331T
1046.17	1.638	1047183	WORD	n/a	wordpools/wordpool_long_SP.txt	ESTERA	7	6	[0, 0, 0]	n/a	FR1	0	R1331T
1047.808	0.814	1048821	WORD_OFF	n/a	n/a	ESTERA	7	6	[0, 0, 0]	n/a	FR1	0	R1331T
1048.622	1.636	1049635	WORD	n/a	wordpools/wordpool_long_SP.txt	HORMIGA	8	6	[0, 0, 0]	n/a	FR1	0	R1331T
1050.258	0.855	1051271	WORD_OFF	n/a	n/a	HORMIGA	8	6	[0, 0, 0]	n/a	FR1	0	R1331T
1051.113	1.629	1052125	WORD	n/a	wordpools/wordpool_long_SP.txt	BOLIGRAFO	9	6	[0, 0, 0]	n/a	FR1	0	R1331T
1052.742	1.123	1053754	WORD_OFF	n/a	n/a	BOLIGRAFO	9	6	[0, 0, 0]	n/a	FR1	0	R1331T
1053.865	1.627	1054877	WORD	n/a	wordpools/wordpool_long_SP.txt	TABURETE	10	6	[0, 0, 0]	n/a	FR1	0	R1331T
1055.492	0.956	1056504	WORD_OFF	n/a	n/a	TABURETE	10	6	[0, 0, 0]	n/a	FR1	0	R1331T
1056.448	1.628	1057460	WORD	n/a	wordpools/wordpool_long_SP.txt	PIERNA	11	6	[0, 0, 0]	n/a	FR1	0	R1331T
1058.076	1.019	1059088	WORD_OFF	n/a	n/a	PIERNA	11	6	[0, 0, 0]	n/a	FR1	0	R1331T
1059.095	1.632	1060107	WORD	n/a	wordpools/wordpool_long_SP.txt	LOBO	12	6	[0, 0, 0]	n/a	FR1	0	R1331T
1060.727	0.0	1061739	WORD_OFF	n/a	n/a	LOBO	12	6	[0, 0, 0]	n/a	FR1	0	R1331T
1060.727	0.0	1061739	ENCODING_END	n/a	n/a	n/a	-999	6	[0, 0, 0]	n/a	FR1	0	R1331T
1060.727	0.0	1061739	DISTRACT_START	n/a	n/a	n/a	-999	6	[0, 0, 0]	n/a	FR1	0	R1331T
1060.727	0.016	1061739	START	n/a	n/a	n/a	-999	6	[-999, -999, -999]	n/a	FR1	0	R1331T
1060.743	13.553	1061755	PROB	13.553	n/a	n/a	-999	6	[4, 5, 4]	13	FR1	0	R1331T
1074.296	9.555	1075308	PROB	9.555	n/a	n/a	-999	6	[8, 8, 6]	22	FR1	0	R1331T
1083.851	0.014	1084862	STOP	n/a	n/a	n/a	-999	6	[-999, -999, -999]	n/a	FR1	0	R1331T
1083.865	0.691	1084876	DISTRACT_END	n/a	n/a	n/a	-999	6	[0, 0, 0]	n/a	FR1	0	R1331T
1084.556	1.692	1085567	RETRIEVAL_ORIENT_START	n/a	n/a	n/a	-999	6	[0, 0, 0]	n/a	FR1	0	R1331T
1086.248	0.0	1087259	REC_START	n/a	n/a	n/a	-999	6	[0, 0, 0]	n/a	FR1	0	R1331T
1086.248	1.107	1087259	RETRIEVAL_ORIENT_END	n/a	n/a	n/a	-999	6	[0, 0, 0]	n/a	FR1	0	R1331T
1087.355	3.947	1088366	REC_WORD_VV	3.947	n/a	<>	-999	6	[0, 0, 0]	n/a	FR1	0	R1331T
1091.302	1.394	1092313	REC_WORD	1.394	n/a	ESTERA	7	6	[0, 0, 0]	n/a	FR1	0	R1331T
1092.696	2.027	1093707	REC_WORD	2.027	n/a	LUNA	-999	6	[0, 0, 0]	n/a	FR1	0	R1331T
1094.723	2.336	1095734	REC_WORD	2.336	n/a	TABURETE	10	6	[0, 0, 0]	n/a	FR1	0	R1331T
1097.059	0.454	1098070	REC_WORD_VV	0.454	n/a	<>	-999	6	[0, 0, 0]	n/a	FR1	0	R1331T
1097.513	2.895	1098524	REC_WORD	2.895	n/a	JARRON	-999	6	[0, 0, 0]	n/a	FR1	0	R1331T
1100.408	0.732	1101418	REC_WORD_VV	0.732	n/a	<>	-999	6	[0, 0, 0]	n/a	FR1	0	R1331T
1101.14	3.02	1102150	REC_WORD	3.02	n/a	SONRISA	-999	6	[0, 0, 0]	n/a	FR1	0	R1331T
1104.16	3.25	1105170	REC_WORD	3.25	n/a	CARRO	-999	6	[0, 0, 0]	n/a	FR1	0	R1331T
1107.41	1.0	1108420	REC_WORD_VV	1.0	n/a	<>	-999	6	[0, 0, 0]	n/a	FR1	0	R1331T
1108.41	7.85	1109420	REC_WORD_VV	7.85	n/a	<>	-999	6	[0, 0, 0]	n/a	FR1	0	R1331T
1116.26	0.0	1117270	REC_END	n/a	n/a	n/a	-999	6	[0, 0, 0]	n/a	FR1	0	R1331T
1116.26	0.016	1117270	TRIAL_END	n/a	n/a	n/a	-999	6	[0, 0, 0]	n/a	FR1	0	R1331T
1116.276	0.001	1117286	TRIAL_START	n/a	n/a	n/a	-999	7	[0, 0, 0]	n/a	FR1	0	R1331T
1116.277	0.0	1117287	TRIAL	n/a	n/a	n/a	-999	7	[0, 0, 0]	n/a	FR1	0	R1331T
1116.277	7.978	1117287	WAITING_START	n/a	n/a	n/a	-999	7	[0, 0, 0]	n/a	FR1	0	R1331T
1124.255	0.0	1125264	COUNTDOWN_START	n/a	n/a	n/a	-999	7	[0, 0, 0]	n/a	FR1	0	R1331T
1124.255	10.43	1125264	WAITING_END	n/a	n/a	n/a	-999	7	[0, 0, 0]	n/a	FR1	0	R1331T
1134.685	0.001	1135694	COUNTDOWN_END	n/a	n/a	n/a	-999	7	[0, 0, 0]	n/a	FR1	0	R1331T
1134.686	1.021	1135695	ORIENT_START	n/a	n/a	n/a	-999	7	[0, 0, 0]	n/a	FR1	0	R1331T
1135.707	0.0	1136716	ORIENT_END	n/a	n/a	n/a	-999	7	[0, 0, 0]	n/a	FR1	0	R1331T
1135.707	1.135	1136716	ENCODING_START	n/a	n/a	n/a	-999	7	[0, 0, 0]	n/a	FR1	0	R1331T
1136.842	1.632	1137851	WORD	n/a	wordpools/wordpool_long_SP.txt	NINO	1	7	[0, 0, 0]	n/a	FR1	0	R1331T
1138.474	0.854	1139483	WORD_OFF	n/a	n/a	NINO	1	7	[0, 0, 0]	n/a	FR1	0	R1331T
1139.328	1.63	1140337	WORD	n/a	wordpools/wordpool_long_SP.txt	ABEJA	2	7	[0, 0, 0]	n/a	FR1	0	R1331T
1140.958	0.794	1141967	WORD_OFF	n/a	n/a	ABEJA	2	7	[0, 0, 0]	n/a	FR1	0	R1331T
1141.752	1.623	1142761	WORD	n/a	wordpools/wordpool_long_SP.txt	PIE	3	7	[0, 0, 0]	n/a	FR1	0	R1331T
1143.375	1.004	1144384	WORD_OFF	n/a	n/a	PIE	3	7	[0, 0, 0]	n/a	FR1	0	R1331T
1144.379	1.63	1145388	WORD	n/a	wordpools/wordpool_long_SP.txt	CHALECO	4	7	[0, 0, 0]	n/a	FR1	0	R1331T
1146.009	0.96	1147017	WORD_OFF	n/a	n/a	CHALECO	4	7	[0, 0, 0]	n/a	FR1	0	R1331T
1146.969	1.624	1147977	WORD	n/a	wordpools/wordpool_long_SP.txt	OVEJA	5	7	[0, 0, 0]	n/a	FR1	0	R1331T
1148.593	0.824	1149601	WORD_OFF	n/a	n/a	OVEJA	5	7	[0, 0, 0]	n/a	FR1	0	R1331T
1149.417	1.626	1150425	WORD	n/a	wordpools/wordpool_long_SP.txt	CAMARON	6	7	[0, 0, 0]	n/a	FR1	0	R1331T
1151.043	1.041	1152051	WORD_OFF	n/a	n/a	CAMARON	6	7	[0, 0, 0]	n/a	FR1	0	R1331T
1152.084	1.626	1153092	WORD	n/a	wordpools/wordpool_long_SP.txt	HALCON	7	7	[0, 0, 0]	n/a	FR1	0	R1331T
1153.71	0.854	1154718	WORD_OFF	n/a	n/a	HALCON	7	7	[0, 0, 0]	n/a	FR1	0	R1331T
1154.564	1.63	1155572	WORD	n/a	wordpools/wordpool_long_SP.txt	ANZUELO	8	7	[0, 0, 0]	n/a	FR1	0	R1331T
1156.194	0.956	1157202	WORD_OFF	n/a	n/a	ANZUELO	8	7	[0, 0, 0]	n/a	FR1	0	R1331T
1157.15	1.628	1158158	WORD	n/a	wordpools/wordpool_long_SP.txt	VARITA	9	7	[0, 0, 0]	n/a	FR1	0	R1331T
1158.778	1.13	1159786	WORD_OFF	n/a	n/a	VARITA	9	7	[0, 0, 0]	n/a	FR1	0	R1331T
1159.908	1.62	1160916	WORD	n/a	wordpools/wordpool_long_SP.txt	RANA	10	7	[0, 0, 0]	n/a	FR1	0	R1331T
1161.528	0.932	1162536	WORD_OFF	n/a	n/a	RANA	10	7	[0, 0, 0]	n/a	FR1	0	R1331T
1162.46	1.635	1163468	WORD	n/a	wordpools/wordpool_long_SP.txt	CALLE	11	7	[0, 0, 0]	n/a	FR1	0	R1331T
1164.095	0.859	1165103	WORD_OFF	n/a	n/a	CALLE	11	7	[0, 0, 0]	n/a	FR1	0	R1331T
1164.954	1.625	1165962	WORD	n/a	wordpools/wordpool_long_SP.txt	CASA	12	7	[0, 0, 0]	n/a	FR1	0	R1331T
1166.579	0.0	1167587	ENCODING_END	n/a	n/a	n/a	-999	7	[0, 0, 0]	n/a	FR1	0	R1331T
1166.579	0.001	1167587	WORD_OFF	n/a	n/a	CASA	12	7	[0, 0, 0]	n/a	FR1	0	R1331T
1166.58	0.0	1167588	DISTRACT_START	n/a	n/a	n/a	-999	7	[0, 0, 0]	n/a	FR1	0	R1331T
1166.58	0.015	1167588	START	n/a	n/a	n/a	-999	7	[-999, -999, -999]	n/a	FR1	0	R1331T
1166.595	6.368	1167603	PROB	6.368	n/a	n/a	-999	7	[1, 2, 5]	8	FR1	0	R1331T
1172.963	4.068	1173970	PROB	4.068	n/a	n/a	-999	7	[1, 6, 1]	8	FR1	0	R1331T
1177.031	6.718	1178038	PROB	6.718	n/a	n/a	-999	7	[4, 7, 7]	18	FR1	0	R1331T
1183.749	6.896	1184756	PROB	6.896	n/a	n/a	-999	7	[6, 1, 5]	14	FR1	0	R1331T
1190.645	0.022	1191652	STOP	n/a	n/a	n/a	-999	7	[-999, -999, -999]	n/a	FR1	0	R1331T
1190.667	0.582	1191674	DISTRACT_END	n/a	n/a	n/a	-999	7	[0, 0, 0]	n/a	FR1	0	R1331T
1191.249	1.603	1192256	RETRIEVAL_ORIENT_START	n/a	n/a	n/a	-999	7	[0, 0, 0]	n/a	FR1	0	R1331T
1192.852	0.0	1193858	RETRIEVAL_ORIENT_END	n/a	n/a	n/a	-999	7	[0, 0, 0]	n/a	FR1	0	R1331T
1192.852	7.897	1193858	REC_START	n/a	n/a	n/a	-999	7	[0, 0, 0]	n/a	FR1	0	R1331T
1200.749	1.0	1201755	REC_WORD	1.0	n/a	NINO	-999	7	[0, 0, 0]	n/a	FR1	0	R1331T
1201.749	1.184	1202755	REC_WORD_VV	1.184	n/a	<>	-999	7	[0, 0, 0]	n/a	FR1	0	R1331T
1202.933	1.0	1203939	REC_WORD	1.0	n/a	ANZUELO	8	7	[0, 0, 0]	n/a	FR1	0	R1331T
1203.933	1.973	1204939	REC_WORD_VV	1.973	n/a	<>	-999	7	[0, 0, 0]	n/a	FR1	0	R1331T
1205.906	3.337	1206912	REC_WORD	3.337	n/a	CHALECO	4	7	[0, 0, 0]	n/a	FR1	0	R1331T
1209.243	0.56	1210249	REC_WORD_VV	0.56	n/a	<>	-999	7	[0, 0, 0]	n/a	FR1	0	R1331T
1209.803	2.267	1210809	REC_WORD	2.267	n/a	BARRA	-999	7	[0, 0, 0]	n/a	FR1	0	R1331T
1212.07	3.192	1213076	REC_WORD	3.192	n/a	CAMARON	-999	7	[0, 0, 0]	n/a	FR1	0	R1331T
1215.262	3.079	1216267	REC_WORD	3.079	n/a	PESCADO	-999	7	[0, 0, 0]	n/a	FR1	0	R1331T
1218.341	1.163	1219346	REC_WORD_VV	1.163	n/a	<>	-999	7	[0, 0, 0]	n/a	FR1	0	R1331T
1219.504	3.359	1220509	REC_WORD	3.359	n/a	ANZUELO	8	7	[0, 0, 0]	n/a	FR1	0	R1331T
1222.863	0.0	1223868	REC_END	n/a	n/a	n/a	-999	7	[0, 0, 0]	n/a	FR1	0	R1331T
1222.863	0.015	1223868	TRIAL_END	n/a	n/a	n/a	-999	7	[0, 0, 0]	n/a	FR1	0	R1331T
1222.878	0.0	1223883	TRIAL	n/a	n/a	n/a	-999	8	[0, 0, 0]	n/a	FR1	0	R1331T
1222.878	0.001	1223883	TRIAL_START	n/a	n/a	n/a	-999	8	[0, 0, 0]	n/a	FR1	0	R1331T
1222.879	5.378	1223884	WAITING_START	n/a	n/a	n/a	-999	8	[0, 0, 0]	n/a	FR1	0	R1331T
1228.257	0.0	1229262	WAITING_END	n/a	n/a	n/a	-999	8	[0, 0, 0]	n/a	FR1	0	R1331T
1228.257	10.43	1229262	COUNTDOWN_START	n/a	n/a	n/a	-999	8	[0, 0, 0]	n/a	FR1	0	R1331T
1238.687	0.001	1239692	COUNTDOWN_END	n/a	n/a	n/a	-999	8	[0, 0, 0]	n/a	FR1	0	R1331T
1238.688	1.105	1239693	ORIENT_START	n/a	n/a	n/a	-999	8	[0, 0, 0]	n/a	FR1	0	R1331T
1239.793	0.0	1240797	ORIENT_END	n/a	n/a	n/a	-999	8	[0, 0, 0]	n/a	FR1	0	R1331T
1239.793	0.837	1240797	ENCODING_START	n/a	n/a	n/a	-999	8	[0, 0, 0]	n/a	FR1	0	R1331T
1240.63	1.63	1241634	WORD	n/a	wordpools/wordpool_long_SP.txt	OLA	1	8	[0, 0, 0]	n/a	FR1	0	R1331T
1242.26	0.922	1243264	WORD_OFF	n/a	n/a	OLA	1	8	[0, 0, 0]	n/a	FR1	0	R1331T
1243.182	1.628	1244186	WORD	n/a	wordpools/wordpool_long_SP.txt	SERPIENTE	2	8	[0, 0, 0]	n/a	FR1	0	R1331T
1244.81	0.765	1245814	WORD_OFF	n/a	n/a	SERPIENTE	2	8	[0, 0, 0]	n/a	FR1	0	R1331T
1245.575	1.636	1246579	WORD	n/a	wordpools/wordpool_long_SP.txt	AGUANIEVE	3	8	[0, 0, 0]	n/a	FR1	0	R1331T
1247.211	1.028	1248215	WORD_OFF	n/a	n/a	AGUANIEVE	3	8	[0, 0, 0]	n/a	FR1	0	R1331T
1248.239	1.606	1249243	WORD	n/a	wordpools/wordpool_long_SP.txt	SORBETE	4	8	[0, 0, 0]	n/a	FR1	0	R1331T
1249.845	0.898	1250849	WORD_OFF	n/a	n/a	SORBETE	4	8	[0, 0, 0]	n/a	FR1	0	R1331T
1250.743	1.635	1251747	WORD	n/a	wordpools/wordpool_long_SP.txt	ROCA	5	8	[0, 0, 0]	n/a	FR1	0	R1331T
1252.378	1.113	1253382	WORD_OFF	n/a	n/a	ROCA	5	8	[0, 0, 0]	n/a	FR1	0	R1331T
1253.491	1.638	1254495	WORD	n/a	wordpools/wordpool_long_SP.txt	MONO	6	8	[0, 0, 0]	n/a	FR1	0	R1331T
1255.129	0.97	1256133	WORD_OFF	n/a	n/a	MONO	6	8	[0, 0, 0]	n/a	FR1	0	R1331T
1256.099	1.63	1257103	WORD	n/a	wordpools/wordpool_long_SP.txt	JUGO	7	8	[0, 0, 0]	n/a	FR1	0	R1331T
1257.729	0.895	1258733	WORD_OFF	n/a	n/a	JUGO	7	8	[0, 0, 0]	n/a	FR1	0	R1331T
1258.624	1.622	1259628	WORD	n/a	wordpools/wordpool_long_SP.txt	ALCES	8	8	[0, 0, 0]	n/a	FR1	0	R1331T
1260.246	1.087	1261250	WORD_OFF	n/a	n/a	ALCES	8	8	[0, 0, 0]	n/a	FR1	0	R1331T
1261.333	1.615	1262337	WORD	n/a	wordpools/wordpool_long_SP.txt	MALEZA	9	8	[0, 0, 0]	n/a	FR1	0	R1331T
1262.948	0.756	1263951	WORD_OFF	n/a	n/a	MALEZA	9	8	[0, 0, 0]	n/a	FR1	0	R1331T
1263.704	1.627	1264707	WORD	n/a	wordpools/wordpool_long_SP.txt	SEMILLA	10	8	[0, 0, 0]	n/a	FR1	0	R1331T
1265.331	0.881	1266334	WORD_OFF	n/a	n/a	SEMILLA	10	8	[0, 0, 0]	n/a	FR1	0	R1331T
1266.212	1.637	1267215	WORD	n/a	wordpools/wordpool_long_SP.txt	CAMA	11	8	[0, 0, 0]	n/a	FR1	0	R1331T
1267.849	0.783	1268852	WORD_OFF	n/a	n/a	CAMA	11	8	[0, 0, 0]	n/a	FR1	0	R1331T
1268.632	1.633	1269635	WORD	n/a	wordpools/wordpool_long_SP.txt	PLATO	12	8	[0, 0, 0]	n/a	FR1	0	R1331T
1270.265	0.0	1271268	WORD_OFF	n/a	n/a	PLATO	12	8	[0, 0, 0]	n/a	FR1	0	R1331T
1270.265	0.0	1271268	ENCODING_END	n/a	n/a	n/a	-999	8	[0, 0, 0]	n/a	FR1	0	R1331T
1270.265	0.001	1271268	DISTRACT_START	n/a	n/a	n/a	-999	8	[0, 0, 0]	n/a	FR1	0	R1331T
1270.266	0.015	1271269	START	n/a	n/a	n/a	-999	8	[-999, -999, -999]	n/a	FR1	0	R1331T
1270.281	7.318	1271284	PROB	7.318	n/a	n/a	-999	8	[1, 3, 9]	13	FR1	0	R1331T
1277.599	5.501	1278602	PROB	5.501	n/a	n/a	-999	8	[2, 3, 5]	10	FR1	0	R1331T
1283.1	3.568	1284103	PROB	3.568	n/a	n/a	-999	8	[1, 1, 6]	8	FR1	0	R1331T
1286.668	11.343	1287670	PROB	11.343	n/a	n/a	-999	8	[9, 8, 4]	21	FR1	0	R1331T
1298.011	0.008	1299013	STOP	n/a	n/a	n/a	-999	8	[-999, -999, -999]	n/a	FR1	0	R1331T
1298.019	0.585	1299021	DISTRACT_END	n/a	n/a	n/a	-999	8	[0, 0, 0]	n/a	FR1	0	R1331T
1298.604	1.716	1299606	RETRIEVAL_ORIENT_START	n/a	n/a	n/a	-999	8	[0, 0, 0]	n/a	FR1	0	R1331T
1300.32	0.0	1301322	REC_START	n/a	n/a	n/a	-999	8	[0, 0, 0]	n/a	FR1	0	R1331T
1300.32	2.214	1301322	RETRIEVAL_ORIENT_END	n/a	n/a	n/a	-999	8	[0, 0, 0]	n/a	FR1	0	R1331T
1302.534	3.14	1303536	REC_WORD_VV	3.14	n/a	<>	-999	8	[0, 0, 0]	n/a	FR1	0	R1331T
1305.674	1.0	1306676	REC_WORD_VV	1.0	n/a	<>	-999	8	[0, 0, 0]	n/a	FR1	0	R1331T
1306.674	1.0	1307676	REC_WORD_VV	1.0	n/a	<>	-999	8	[0, 0, 0]	n/a	FR1	0	R1331T
1307.674	22.657	1308676	REC_WORD_VV	22.657	n/a	<>	-999	8	[0, 0, 0]	n/a	FR1	0	R1331T
1330.331	0.001	1331332	REC_END	n/a	n/a	n/a	-999	8	[0, 0, 0]	n/a	FR1	0	R1331T
1330.332	0.015	1331333	TRIAL_END	n/a	n/a	n/a	-999	8	[0, 0, 0]	n/a	FR1	0	R1331T
1330.347	0.0	1331348	WAITING_START	n/a	n/a	n/a	-999	9	[0, 0, 0]	n/a	FR1	0	R1331T
1330.347	0.0	1331348	TRIAL	n/a	n/a	n/a	-999	9	[0, 0, 0]	n/a	FR1	0	R1331T
1330.347	4.597	1331348	TRIAL_START	n/a	n/a	n/a	-999	9	[0, 0, 0]	n/a	FR1	0	R1331T
1334.944	0.0	1335944	WAITING_END	n/a	n/a	n/a	-999	9	[0, 0, 0]	n/a	FR1	0	R1331T
1334.944	10.43	1335944	COUNTDOWN_START	n/a	n/a	n/a	-999	9	[0, 0, 0]	n/a	FR1	0	R1331T
1345.374	0.0	1346374	COUNTDOWN_END	n/a	n/a	n/a	-999	9	[0, 0, 0]	n/a	FR1	0	R1331T
1345.374	1.171	1346374	ORIENT_START	n/a	n/a	n/a	-999	9	[0, 0, 0]	n/a	FR1	0	R1331T
1346.545	0.001	1347545	ORIENT_END	n/a	n/a	n/a	-999	9	[0, 0, 0]	n/a	FR1	0	R1331T
1346.546	1.065	1347546	ENCODING_START	n/a	n/a	n/a	-999	9	[0, 0, 0]	n/a	FR1	0	R1331T
1347.611	1.635	1348611	WORD	n/a	wordpools/wordpool_long_SP.txt	TELARANA	1	9	[0, 0, 0]	n/a	FR1	0	R1331T
1349.246	1.008	1350246	WORD_OFF	n/a	n/a	TELARANA	1	9	[0, 0, 0]	n/a	FR1	0	R1331T
1350.254	1.61	1351254	WORD	n/a	wordpools/wordpool_long_SP.txt	JEEP	2	9	[0, 0, 0]	n/a	FR1	0	R1331T
1351.864	1.068	1352864	WORD_OFF	n/a	n/a	JEEP	2	9	[0, 0, 0]	n/a	FR1	0	R1331T
1352.932	1.631	1353932	WORD	n/a	wordpools/wordpool_long_SP.txt	BOTA	3	9	[0, 0, 0]	n/a	FR1	0	R1331T
1354.563	1.046	1355563	WORD_OFF	n/a	n/a	BOTA	3	9	[0, 0, 0]	n/a	FR1	0	R1331T
1355.609	1.638	1356609	WORD	n/a	wordpools/wordpool_long_SP.txt	PULGA	4	9	[0, 0, 0]	n/a	FR1	0	R1331T
1357.247	0.928	1358246	WORD_OFF	n/a	n/a	PULGA	4	9	[0, 0, 0]	n/a	FR1	0	R1331T
1358.175	1.623	1359174	WORD	n/a	wordpools/wordpool_long_SP.txt	VAPOR	5	9	[0, 0, 0]	n/a	FR1	0	R1331T
1359.798	1.001	1360797	WORD_OFF	n/a	n/a	VAPOR	5	9	[0, 0, 0]	n/a	FR1	0	R1331T
1360.799	1.633	1361798	WORD	n/a	wordpools/wordpool_long_SP.txt	BUHO	6	9	[0, 0, 0]	n/a	FR1	0	R1331T
1362.432	1.054	1363431	WORD_OFF	n/a	n/a	BUHO	6	9	[0, 0, 0]	n/a	FR1	0	R1331T
1363.486	1.629	1364485	WORD	n/a	wordpools/wordpool_long_SP.txt	CARACOL	7	9	[0, 0, 0]	n/a	FR1	0	R1331T
1365.115	1.104	1366114	WORD_OFF	n/a	n/a	CARACOL	7	9	[0, 0, 0]	n/a	FR1	0	R1331T
1366.219	1.631	1367218	WORD	n/a	wordpools/wordpool_long_SP.txt	POZO	8	9	[0, 0, 0]	n/a	FR1	0	R1331T
1367.85	0.991	1368849	WORD_OFF	n/a	n/a	POZO	8	9	[0, 0, 0]	n/a	FR1	0	R1331T
1368.841	1.625	1369840	WORD	n/a	wordpools/wordpool_long_SP.txt	CONCHA	9	9	[0, 0, 0]	n/a	FR1	0	R1331T
1370.466	0.9	1371465	WORD_OFF	n/a	n/a	CONCHA	9	9	[0, 0, 0]	n/a	FR1	0	R1331T
1371.366	1.634	1372365	WORD	n/a	wordpools/wordpool_long_SP.txt	JET	10	9	[0, 0, 0]	n/a	FR1	0	R1331T
1373.0	1.109	1373999	WORD_OFF	n/a	n/a	JET	10	9	[0, 0, 0]	n/a	FR1	0	R1331T
1374.109	1.625	1375108	WORD	n/a	wordpools/wordpool_long_SP.txt	MUELLE	11	9	[0, 0, 0]	n/a	FR1	0	R1331T
1375.734	0.985	1376733	WORD_OFF	n/a	n/a	MUELLE	11	9	[0, 0, 0]	n/a	FR1	0	R1331T
1376.719	1.632	1377718	WORD	n/a	wordpools/wordpool_long_SP.txt	PALO	12	9	[0, 0, 0]	n/a	FR1	0	R1331T
1378.351	0.0	1379350	WORD_OFF	n/a	n/a	PALO	12	9	[0, 0, 0]	n/a	FR1	0	R1331T
1378.351	0.001	1379350	ENCODING_END	n/a	n/a	n/a	-999	9	[0, 0, 0]	n/a	FR1	0	R1331T
1378.352	0.0	1379351	DISTRACT_START	n/a	n/a	n/a	-999	9	[0, 0, 0]	n/a	FR1	0	R1331T
1378.352	0.015	1379351	START	n/a	n/a	n/a	-999	9	[-999, -999, -999]	n/a	FR1	0	R1331T
1378.367	22.205	1379366	PROB	22.205	n/a	n/a	-999	9	[8, 6, 7]	21	FR1	0	R1331T
1400.572	0.016	1401570	STOP	n/a	n/a	n/a	-999	9	[-999, -999, -999]	n/a	FR1	0	R1331T
1400.588	0.608	1401586	DISTRACT_END	n/a	n/a	n/a	-999	9	[0, 0, 0]	n/a	FR1	0	R1331T
1401.196	1.677	1402194	RETRIEVAL_ORIENT_START	n/a	n/a	n/a	-999	9	[0, 0, 0]	n/a	FR1	0	R1331T
1402.873	0.0	1403871	RETRIEVAL_ORIENT_END	n/a	n/a	n/a	-999	9	[0, 0, 0]	n/a	FR1	0	R1331T
1402.873	1.589	1403871	REC_START	n/a	n/a	n/a	-999	9	[0, 0, 0]	n/a	FR1	0	R1331T
1404.462	2.127	1405459	REC_WORD_VV	2.127	n/a	<>	-999	9	[0, 0, 0]	n/a	FR1	0	R1331T
1406.589	1.848	1407586	REC_WORD	1.848	n/a	TELARANA	-999	9	[0, 0, 0]	n/a	FR1	0	R1331T
1408.437	1.345	1409434	REC_WORD	1.345	n/a	BOTA	3	9	[0, 0, 0]	n/a	FR1	0	R1331T
1409.782	1.767	1410779	REC_WORD	1.767	n/a	VAPOR	5	9	[0, 0, 0]	n/a	FR1	0	R1331T
1411.549	2.521	1412546	REC_WORD	2.521	n/a	NINO	-999	9	[0, 0, 0]	n/a	FR1	0	R1331T
1414.07	9.093	1415067	REC_WORD	9.093	n/a	ARBOL	-999	9	[0, 0, 0]	n/a	FR1	0	R1331T
1423.163	6.407	1424160	REC_WORD	6.407	n/a	HIELO	-999	9	[0, 0, 0]	n/a	FR1	0	R1331T
1429.57	3.314	1430566	REC_WORD	3.314	n/a	CALLE	-999	9	[0, 0, 0]	n/a	FR1	0	R1331T
1432.884	0.0	1433880	REC_END	n/a	n/a	n/a	-999	9	[0, 0, 0]	n/a	FR1	0	R1331T
1432.884	0.016	1433880	TRIAL_END	n/a	n/a	n/a	-999	9	[0, 0, 0]	n/a	FR1	0	R1331T
1432.9	0.0	1433896	TRIAL	n/a	n/a	n/a	-999	10	[0, 0, 0]	n/a	FR1	0	R1331T
1432.9	0.0	1433896	WAITING_START	n/a	n/a	n/a	-999	10	[0, 0, 0]	n/a	FR1	0	R1331T
1432.9	4.145	1433896	TRIAL_START	n/a	n/a	n/a	-999	10	[0, 0, 0]	n/a	FR1	0	R1331T
1437.045	0.001	1438041	WAITING_END	n/a	n/a	n/a	-999	10	[0, 0, 0]	n/a	FR1	0	R1331T
1437.046	10.429	1438042	COUNTDOWN_START	n/a	n/a	n/a	-999	10	[0, 0, 0]	n/a	FR1	0	R1331T
1447.475	0.0	1448471	COUNTDOWN_END	n/a	n/a	n/a	-999	10	[0, 0, 0]	n/a	FR1	0	R1331T
1447.475	1.055	1448471	ORIENT_START	n/a	n/a	n/a	-999	10	[0, 0, 0]	n/a	FR1	0	R1331T
1448.53	0.001	1449526	ORIENT_END	n/a	n/a	n/a	-999	10	[0, 0, 0]	n/a	FR1	0	R1331T
1448.531	1.043	1449527	ENCODING_START	n/a	n/a	n/a	-999	10	[0, 0, 0]	n/a	FR1	0	R1331T
1449.574	1.624	1450570	WORD	n/a	wordpools/wordpool_long_SP.txt	CAMIONETA	1	10	[0, 0, 0]	n/a	FR1	0	R1331T
1451.198	0.847	1452193	WORD_OFF	n/a	n/a	CAMIONETA	1	10	[0, 0, 0]	n/a	FR1	0	R1331T
1452.045	1.636	1453040	WORD	n/a	wordpools/wordpool_long_SP.txt	DIENTE	2	10	[0, 0, 0]	n/a	FR1	0	R1331T
1453.681	1.117	1454676	WORD_OFF	n/a	n/a	DIENTE	2	10	[0, 0, 0]	n/a	FR1	0	R1331T
1454.798	1.634	1455793	WORD	n/a	wordpools/wordpool_long_SP.txt	BALLENA	3	10	[0, 0, 0]	n/a	FR1	0	R1331T
1456.432	0.778	1457427	WORD_OFF	n/a	n/a	BALLENA	3	10	[0, 0, 0]	n/a	FR1	0	R1331T
1457.21	1.622	1458205	WORD	n/a	wordpools/wordpool_long_SP.txt	CORBATA	4	10	[0, 0, 0]	n/a	FR1	0	R1331T
1458.832	0.861	1459827	WORD_OFF	n/a	n/a	CORBATA	4	10	[0, 0, 0]	n/a	FR1	0	R1331T
1459.693	1.623	1460688	WORD	n/a	wordpools/wordpool_long_SP.txt	AVE	5	10	[0, 0, 0]	n/a	FR1	0	R1331T
1461.316	1.088	1462311	WORD_OFF	n/a	n/a	AVE	5	10	[0, 0, 0]	n/a	FR1	0	R1331T
1462.404	1.629	1463399	WORD	n/a	wordpools/wordpool_long_SP.txt	LIMO	6	10	[0, 0, 0]	n/a	FR1	0	R1331T
1464.033	1.137	1465028	WORD_OFF	n/a	n/a	LIMO	6	10	[0, 0, 0]	n/a	FR1	0	R1331T
1465.17	1.63	1466165	WORD	n/a	wordpools/wordpool_long_SP.txt	MANGUERA	7	10	[0, 0, 0]	n/a	FR1	0	R1331T
1466.8	1.105	1467795	WORD_OFF	n/a	n/a	MANGUERA	7	10	[0, 0, 0]	n/a	FR1	0	R1331T
1467.905	1.629	1468900	WORD	n/a	wordpools/wordpool_long_SP.txt	CAMION	8	10	[0, 0, 0]	n/a	FR1	0	R1331T
1469.534	0.788	1470529	WORD_OFF	n/a	n/a	CAMION	8	10	[0, 0, 0]	n/a	FR1	0	R1331T
1470.322	1.613	1471317	WORD	n/a	wordpools/wordpool_long_SP.txt	DEDO	9	10	[0, 0, 0]	n/a	FR1	0	R1331T
1471.935	0.988	1472930	WORD_OFF	n/a	n/a	DEDO	9	10	[0, 0, 0]	n/a	FR1	0	R1331T
1472.923	1.629	1473918	WORD	n/a	wordpools/wordpool_long_SP.txt	ESPONJA	10	10	[0, 0, 0]	n/a	FR1	0	R1331T
1474.552	0.955	1475546	WORD_OFF	n/a	n/a	ESPONJA	10	10	[0, 0, 0]	n/a	FR1	0	R1331T
1475.507	1.629	1476501	WORD	n/a	wordpools/wordpool_long_SP.txt	LLUVIA	11	10	[0, 0, 0]	n/a	FR1	0	R1331T
1477.136	0.781	1478130	WORD_OFF	n/a	n/a	LLUVIA	11	10	[0, 0, 0]	n/a	FR1	0	R1331T
1477.917	1.636	1478911	WORD	n/a	wordpools/wordpool_long_SP.txt	PUENTE	12	10	[0, 0, 0]	n/a	FR1	0	R1331T
1479.553	0.0	1480547	WORD_OFF	n/a	n/a	PUENTE	12	10	[0, 0, 0]	n/a	FR1	0	R1331T
1479.553	0.0	1480547	ENCODING_END	n/a	n/a	n/a	-999	10	[0, 0, 0]	n/a	FR1	0	R1331T
1479.553	0.0	1480547	DISTRACT_START	n/a	n/a	n/a	-999	10	[0, 0, 0]	n/a	FR1	0	R1331T
1479.553	0.016	1480547	START	n/a	n/a	n/a	-999	10	[-999, -999, -999]	n/a	FR1	0	R1331T
1479.569	4.868	1480563	PROB	4.868	n/a	n/a	-999	10	[4, 4, 1]	9	FR1	0	R1331T
1484.437	7.768	1485431	PROB	7.768	n/a	n/a	-999	10	[4, 5, 1]	10	FR1	0	R1331T
1492.205	19.542	1493199	PROB	19.542	n/a	n/a	-999	10	[6, 7, 9]	22	FR1	0	R1331T
1511.747	0.012	1512740	STOP	n/a	n/a	n/a	-999	10	[-999, -999, -999]	n/a	FR1	0	R1331T
1511.759	0.677	1512752	DISTRACT_END	n/a	n/a	n/a	-999	10	[0, 0, 0]	n/a	FR1	0	R1331T
1512.436	1.673	1513429	RETRIEVAL_ORIENT_START	n/a	n/a	n/a	-999	10	[0, 0, 0]	n/a	FR1	0	R1331T
1514.109	0.0	1515102	RETRIEVAL_ORIENT_END	n/a	n/a	n/a	-999	10	[0, 0, 0]	n/a	FR1	0	R1331T
1514.109	12.17	1515102	REC_START	n/a	n/a	n/a	-999	10	[0, 0, 0]	n/a	FR1	0	R1331T
1526.279	1.0	1527271	REC_WORD	1.0	n/a	CAMIONETA	1	10	[0, 0, 0]	n/a	FR1	0	R1331T
1527.279	11.894	1528271	REC_WORD_VV	11.894	n/a	<>	-999	10	[0, 0, 0]	n/a	FR1	0	R1331T
1539.173	1.0	1540165	REC_WORD	1.0	n/a	CAMIONETA	1	10	[0, 0, 0]	n/a	FR1	0	R1331T
1540.173	0.211	1541165	REC_WORD_VV	0.211	n/a	<>	-999	10	[0, 0, 0]	n/a	FR1	0	R1331T
1540.384	3.735	1541376	REC_WORD	3.735	n/a	PAPORES	-999	10	[0, 0, 0]	n/a	FR1	0	R1331T
1544.119	0.0	1545110	REC_END	n/a	n/a	n/a	-999	10	[0, 0, 0]	n/a	FR1	0	R1331T
1544.119	0.014	1545110	TRIAL_END	n/a	n/a	n/a	-999	10	[0, 0, 0]	n/a	FR1	0	R1331T
1544.133	0.001	1545124	TRIAL_START	n/a	n/a	n/a	-999	11	[0, 0, 0]	n/a	FR1	0	R1331T
1544.134	0.0	1545125	TRIAL	n/a	n/a	n/a	-999	11	[0, 0, 0]	n/a	FR1	0	R1331T
1544.134	8.432	1545125	WAITING_START	n/a	n/a	n/a	-999	11	[0, 0, 0]	n/a	FR1	0	R1331T
1552.566	0.0	1553557	COUNTDOWN_START	n/a	n/a	n/a	-999	11	[0, 0, 0]	n/a	FR1	0	R1331T
1552.566	10.429	1553557	WAITING_END	n/a	n/a	n/a	-999	11	[0, 0, 0]	n/a	FR1	0	R1331T
1562.995	0.0	1563986	COUNTDOWN_END	n/a	n/a	n/a	-999	11	[0, 0, 0]	n/a	FR1	0	R1331T
1562.995	1.156	1563986	ORIENT_START	n/a	n/a	n/a	-999	11	[0, 0, 0]	n/a	FR1	0	R1331T
1564.151	0.001	1565142	ORIENT_END	n/a	n/a	n/a	-999	11	[0, 0, 0]	n/a	FR1	0	R1331T
1564.152	0.942	1565143	ENCODING_START	n/a	n/a	n/a	-999	11	[0, 0, 0]	n/a	FR1	0	R1331T
1565.094	1.625	1566085	WORD	n/a	wordpools/wordpool_long_SP.txt	ESCOBA	1	11	[0, 0, 0]	n/a	FR1	0	R1331T
1566.719	0.924	1567710	WORD_OFF	n/a	n/a	ESCOBA	1	11	[0, 0, 0]	n/a	FR1	0	R1331T
1567.643	1.626	1568633	WORD	n/a	wordpools/wordpool_long_SP.txt	MAR	2	11	[0, 0, 0]	n/a	FR1	0	R1331T
1569.269	0.891	1570259	WORD_OFF	n/a	n/a	MAR	2	11	[0, 0, 0]	n/a	FR1	0	R1331T
1570.16	1.626	1571150	WORD	n/a	wordpools/wordpool_long_SP.txt	TOSTADA	3	11	[0, 0, 0]	n/a	FR1	0	R1331T
1571.786	0.766	1572776	WORD_OFF	n/a	n/a	TOSTADA	3	11	[0, 0, 0]	n/a	FR1	0	R1331T
1572.552	1.634	1573542	WORD	n/a	wordpools/wordpool_long_SP.txt	CAPA	4	11	[0, 0, 0]	n/a	FR1	0	R1331T
1574.186	1.147	1575176	WORD_OFF	n/a	n/a	CAPA	4	11	[0, 0, 0]	n/a	FR1	0	R1331T
1575.333	1.621	1576323	WORD	n/a	wordpools/wordpool_long_SP.txt	TORMENTA	5	11	[0, 0, 0]	n/a	FR1	0	R1331T
1576.954	1.056	1577944	WORD_OFF	n/a	n/a	TORMENTA	5	11	[0, 0, 0]	n/a	FR1	0	R1331T
1578.01	1.628	1579000	WORD	n/a	wordpools/wordpool_long_SP.txt	PISO	6	11	[0, 0, 0]	n/a	FR1	0	R1331T
1579.638	1.053	1580628	WORD_OFF	n/a	n/a	PISO	6	11	[0, 0, 0]	n/a	FR1	0	R1331T
1580.691	1.63	1581681	WORD	n/a	wordpools/wordpool_long_SP.txt	VASO	7	11	[0, 0, 0]	n/a	FR1	0	R1331T
1582.321	1.127	1583311	WORD_OFF	n/a	n/a	VASO	7	11	[0, 0, 0]	n/a	FR1	0	R1331T
1583.448	1.624	1584438	WORD	n/a	wordpools/wordpool_long_SP.txt	ARCA	8	11	[0, 0, 0]	n/a	FR1	0	R1331T
1585.072	1.052	1586062	WORD_OFF	n/a	n/a	ARCA	8	11	[0, 0, 0]	n/a	FR1	0	R1331T
1586.124	1.631	1587114	WORD	n/a	wordpools/wordpool_long_SP.txt	ALA	9	11	[0, 0, 0]	n/a	FR1	0	R1331T
1587.755	1.083	1588745	WORD_OFF	n/a	n/a	ALA	9	11	[0, 0, 0]	n/a	FR1	0	R1331T
1588.838	1.635	1589828	WORD	n/a	wordpools/wordpool_long_SP.txt	PULGAR	10	11	[0, 0, 0]	n/a	FR1	0	R1331T
1590.473	1.09	1591463	WORD_OFF	n/a	n/a	PULGAR	10	11	[0, 0, 0]	n/a	FR1	0	R1331T
1591.563	1.627	1592552	WORD	n/a	wordpools/wordpool_long_SP.txt	LANZA	11	11	[0, 0, 0]	n/a	FR1	0	R1331T
1593.19	0.954	1594179	WORD_OFF	n/a	n/a	LANZA	11	11	[0, 0, 0]	n/a	FR1	0	R1331T
1594.144	1.63	1595133	WORD	n/a	wordpools/wordpool_long_SP.txt	TELEFONO	12	11	[0, 0, 0]	n/a	FR1	0	R1331T
1595.774	0.0	1596763	ENCODING_END	n/a	n/a	n/a	-999	11	[0, 0, 0]	n/a	FR1	0	R1331T
1595.774	0.001	1596763	WORD_OFF	n/a	n/a	TELEFONO	12	11	[0, 0, 0]	n/a	FR1	0	R1331T
1595.775	0.0	1596764	DISTRACT_START	n/a	n/a	n/a	-999	11	[0, 0, 0]	n/a	FR1	0	R1331T
1595.775	0.015	1596764	START	n/a	n/a	n/a	-999	11	[-999, -999, -999]	n/a	FR1	0	R1331T
1595.79	20.237	1596779	PROB	20.237	n/a	n/a	-999	11	[4, 8, 6]	18	FR1	0	R1331T
1616.027	0.017	1617015	STOP	n/a	n/a	n/a	-999	11	[-999, -999, -999]	n/a	FR1	0	R1331T
1616.044	0.587	1617032	DISTRACT_END	n/a	n/a	n/a	-999	11	[0, 0, 0]	n/a	FR1	0	R1331T
1616.631	1.663	1617619	RETRIEVAL_ORIENT_START	n/a	n/a	n/a	-999	11	[0, 0, 0]	n/a	FR1	0	R1331T
1618.294	0.001	1619282	RETRIEVAL_ORIENT_END	n/a	n/a	n/a	-999	11	[0, 0, 0]	n/a	FR1	0	R1331T
1618.295	0.337	1619283	REC_START	n/a	n/a	n/a	-999	11	[0, 0, 0]	n/a	FR1	0	R1331T
1618.632	1.0	1619620	REC_WORD_VV	1.0	n/a	<>	-999	11	[0, 0, 0]	n/a	FR1	0	R1331T
1619.632	2.71	1620620	REC_WORD_VV	2.71	n/a	<>	-999	11	[0, 0, 0]	n/a	FR1	0	R1331T
1622.342	1.289	1623330	REC_WORD_VV	1.289	n/a	<>	-999	11	[0, 0, 0]	n/a	FR1	0	R1331T
1623.631	1.0	1624619	REC_WORD	1.0	n/a	ESCOBA	1	11	[0, 0, 0]	n/a	FR1	0	R1331T
1624.631	1.646	1625619	REC_WORD_VV	1.646	n/a	<>	-999	11	[0, 0, 0]	n/a	FR1	0	R1331T
1626.277	1.594	1627265	REC_WORD	1.594	n/a	MAR	2	11	[0, 0, 0]	n/a	FR1	0	R1331T
1627.871	2.683	1628859	REC_WORD_VV	2.683	n/a	<>	-999	11	[0, 0, 0]	n/a	FR1	0	R1331T
1630.554	6.078	1631542	REC_WORD_VV	6.078	n/a	<>	-999	11	[0, 0, 0]	n/a	FR1	0	R1331T
1636.632	1.0	1637620	REC_WORD	1.0	n/a	PAL	-999	11	[0, 0, 0]	n/a	FR1	0	R1331T
1637.632	0.55	1638620	REC_WORD	0.55	n/a	PALO	-999	11	[0, 0, 0]	n/a	FR1	0	R1331T
1638.182	2.276	1639169	REC_WORD_VV	2.276	n/a	<>	-999	11	[0, 0, 0]	n/a	FR1	0	R1331T
1640.458	1.0	1641445	REC_WORD	1.0	n/a	PALO	-999	11	[0, 0, 0]	n/a	FR1	0	R1331T
1641.458	6.847	1642445	REC_WORD_VV	6.847	n/a	<>	-999	11	[0, 0, 0]	n/a	FR1	0	R1331T
1648.305	0.0	1649292	TRIAL_END	n/a	n/a	n/a	-999	11	[0, 0, 0]	n/a	FR1	0	R1331T
1648.305	0.014	1649292	REC_END	n/a	n/a	n/a	-999	11	[0, 0, 0]	n/a	FR1	0	R1331T
1648.319	0.0	1649306	TRIAL_START	n/a	n/a	n/a	-999	12	[0, 0, 0]	n/a	FR1	0	R1331T
1648.319	0.0	1649306	TRIAL	n/a	n/a	n/a	-999	12	[0, 0, 0]	n/a	FR1	0	R1331T
1648.319	436.143	1649306	WAITING_START	n/a	n/a	n/a	-999	12	[0, 0, 0]	n/a	FR1	0	R1331T
2084.462	0.001	2085430	WAITING_END	n/a	n/a	n/a	-999	12	[0, 0, 0]	n/a	FR1	0	R1331T
2084.463	10.428	2085431	COUNTDOWN_START	n/a	n/a	n/a	-999	12	[0, 0, 0]	n/a	FR1	0	R1331T
2094.891	0.0	2095859	COUNTDOWN_END	n/a	n/a	n/a	-999	12	[0, 0, 0]	n/a	FR1	0	R1331T
2094.891	1.19	2095859	ORIENT_START	n/a	n/a	n/a	-999	12	[0, 0, 0]	n/a	FR1	0	R1331T
2096.081	0.001	2097049	ORIENT_END	n/a	n/a	n/a	-999	12	[0, 0, 0]	n/a	FR1	0	R1331T
2096.082	1.128	2097050	ENCODING_START	n/a	n/a	n/a	-999	12	[0, 0, 0]	n/a	FR1	0	R1331T
2097.21	1.639	2098178	WORD	n/a	wordpools/wordpool_long_SP.txt	GUARDIA	1	12	[0, 0, 0]	n/a	FR1	0	R1331T
2098.849	0.854	2099817	WORD_OFF	n/a	n/a	GUARDIA	1	12	[0, 0, 0]	n/a	FR1	0	R1331T
2099.703	1.629	2100671	WORD	n/a	wordpools/wordpool_long_SP.txt	CARPA	2	12	[0, 0, 0]	n/a	FR1	0	R1331T
2101.332	0.824	2102300	WORD_OFF	n/a	n/a	CARPA	2	12	[0, 0, 0]	n/a	FR1	0	R1331T
2102.156	1.626	2103124	WORD	n/a	wordpools/wordpool_long_SP.txt	PAN	3	12	[0, 0, 0]	n/a	FR1	0	R1331T
2103.782	0.791	2104750	WORD_OFF	n/a	n/a	PAN	3	12	[0, 0, 0]	n/a	FR1	0	R1331T
2104.573	1.627	2105541	WORD	n/a	wordpools/wordpool_long_SP.txt	CEPILLO	4	12	[0, 0, 0]	n/a	FR1	0	R1331T
2106.2	1.011	2107168	WORD_OFF	n/a	n/a	CEPILLO	4	12	[0, 0, 0]	n/a	FR1	0	R1331T
2107.211	1.623	2108179	WORD	n/a	wordpools/wordpool_long_SP.txt	BANDERA	5	12	[0, 0, 0]	n/a	FR1	0	R1331T
2108.834	1.081	2109801	WORD_OFF	n/a	n/a	BANDERA	5	12	[0, 0, 0]	n/a	FR1	0	R1331T
2109.915	1.636	2110882	WORD	n/a	wordpools/wordpool_long_SP.txt	CUEVA	6	12	[0, 0, 0]	n/a	FR1	0	R1331T
2111.551	0.979	2112518	WORD_OFF	n/a	n/a	CUEVA	6	12	[0, 0, 0]	n/a	FR1	0	R1331T
2112.53	1.638	2113497	WORD	n/a	wordpools/wordpool_long_SP.txt	BANCO	7	12	[0, 0, 0]	n/a	FR1	0	R1331T
2114.168	1.048	2115135	WORD_OFF	n/a	n/a	BANCO	7	12	[0, 0, 0]	n/a	FR1	0	R1331T
2115.216	1.637	2116183	WORD	n/a	wordpools/wordpool_long_SP.txt	POLO	8	12	[0, 0, 0]	n/a	FR1	0	R1331T
2116.853	0.776	2117820	WORD_OFF	n/a	n/a	POLO	8	12	[0, 0, 0]	n/a	FR1	0	R1331T
2117.629	1.623	2118596	WORD	n/a	wordpools/wordpool_long_SP.txt	HABITACION	9	12	[0, 0, 0]	n/a	FR1	0	R1331T
2119.252	0.784	2120219	WORD_OFF	n/a	n/a	HABITACION	9	12	[0, 0, 0]	n/a	FR1	0	R1331T
2120.036	1.633	2121003	WORD	n/a	wordpools/wordpool_long_SP.txt	VACA	10	12	[0, 0, 0]	n/a	FR1	0	R1331T
2121.669	0.999	2122636	WORD_OFF	n/a	n/a	VACA	10	12	[0, 0, 0]	n/a	FR1	0	R1331T
2122.668	1.635	2123635	WORD	n/a	wordpools/wordpool_long_SP.txt	TREN	11	12	[0, 0, 0]	n/a	FR1	0	R1331T
2124.303	0.915	2125270	WORD_OFF	n/a	n/a	TREN	11	12	[0, 0, 0]	n/a	FR1	0	R1331T
2125.218	1.636	2126185	WORD	n/a	wordpools/wordpool_long_SP.txt	BOLSA	12	12	[0, 0, 0]	n/a	FR1	0	R1331T
2126.854	0.001	2127821	WORD_OFF	n/a	n/a	BOLSA	12	12	[0, 0, 0]	n/a	FR1	0	R1331T
2126.855	0.0	2127822	ENCODING_END	n/a	n/a	n/a	-999	12	[0, 0, 0]	n/a	FR1	0	R1331T
2126.855	0.0	2127822	DISTRACT_START	n/a	n/a	n/a	-999	12	[0, 0, 0]	n/a	FR1	0	R1331T
2126.855	0.016	2127822	START	n/a	n/a	n/a	-999	12	[-999, -999, -999]	n/a	FR1	0	R1331T
2126.871	8.767	2127838	PROB	8.767	n/a	n/a	-999	12	[8, 8, 6]	22	FR1	0	R1331T
2135.638	4.968	2136604	PROB	4.968	n/a	n/a	-999	12	[8, 2, 2]	12	FR1	0	R1331T
2140.606	5.901	2141572	PROB	5.901	n/a	n/a	-999	12	[6, 2, 6]	14	FR1	0	R1331T
2146.507	9.359	2147473	PROB	9.359	n/a	n/a	-999	12	[6, 8, 7]	21	FR1	0	R1331T
2155.866	0.01	2156831	STOP	n/a	n/a	n/a	-999	12	[-999, -999, -999]	n/a	FR1	0	R1331T
2155.876	0.615	2156841	DISTRACT_END	n/a	n/a	n/a	-999	12	[0, 0, 0]	n/a	FR1	0	R1331T
2156.491	1.685	2157456	RETRIEVAL_ORIENT_START	n/a	n/a	n/a	-999	12	[0, 0, 0]	n/a	FR1	0	R1331T
2158.176	0.0	2159141	RETRIEVAL_ORIENT_END	n/a	n/a	n/a	-999	12	[0, 0, 0]	n/a	FR1	0	R1331T
2158.176	3.7	2159141	REC_START	n/a	n/a	n/a	-999	12	[0, 0, 0]	n/a	FR1	0	R1331T
2161.876	1.0	2162841	REC_WORD_VV	1.0	n/a	<>	-999	12	[0, 0, 0]	n/a	FR1	0	R1331T
2162.876	3.515	2163841	REC_WORD_VV	3.515	n/a	<>	-999	12	[0, 0, 0]	n/a	FR1	0	R1331T
2166.391	3.267	2167356	REC_WORD	3.267	n/a	BARCO	-999	12	[0, 0, 0]	n/a	FR1	0	R1331T
2169.658	1.0	2170623	REC_WORD_VV	1.0	n/a	<>	-999	12	[0, 0, 0]	n/a	FR1	0	R1331T
2170.658	6.251	2171623	REC_WORD_VV	6.251	n/a	<>	-999	12	[0, 0, 0]	n/a	FR1	0	R1331T
2176.909	1.858	2177874	REC_WORD	1.858	n/a	PALO	-999	12	[0, 0, 0]	n/a	FR1	0	R1331T
2178.767	3.424	2179731	REC_WORD	3.424	n/a	BOLSA	12	12	[0, 0, 0]	n/a	FR1	0	R1331T
2182.191	2.807	2183155	REC_WORD_VV	2.807	n/a	<>	-999	12	[0, 0, 0]	n/a	FR1	0	R1331T
2184.998	3.189	2185962	REC_WORD	3.189	n/a	ALGODON	-999	12	[0, 0, 0]	n/a	FR1	0	R1331T
2188.187	0.0	2189151	REC_END	n/a	n/a	n/a	-999	12	[0, 0, 0]	n/a	FR1	0	R1331T
2188.187	0.014	2189151	TRIAL_END	n/a	n/a	n/a	-999	12	[0, 0, 0]	n/a	FR1	0	R1331T
2188.201	0.0	2189165	TRIAL_START	n/a	n/a	n/a	-999	13	[0, 0, 0]	n/a	FR1	0	R1331T
2188.201	0.0	2189165	TRIAL	n/a	n/a	n/a	-999	13	[0, 0, 0]	n/a	FR1	0	R1331T
2188.201	5.931	2189165	WAITING_START	n/a	n/a	n/a	-999	13	[0, 0, 0]	n/a	FR1	0	R1331T
2194.132	0.001	2195096	WAITING_END	n/a	n/a	n/a	-999	13	[0, 0, 0]	n/a	FR1	0	R1331T
2194.133	10.429	2195097	COUNTDOWN_START	n/a	n/a	n/a	-999	13	[0, 0, 0]	n/a	FR1	0	R1331T
2204.562	0.0	2205525	ORIENT_START	n/a	n/a	n/a	-999	13	[0, 0, 0]	n/a	FR1	0	R1331T
2204.562	1.122	2205525	COUNTDOWN_END	n/a	n/a	n/a	-999	13	[0, 0, 0]	n/a	FR1	0	R1331T
2205.684	0.001	2206647	ORIENT_END	n/a	n/a	n/a	-999	13	[0, 0, 0]	n/a	FR1	0	R1331T
2205.685	0.86	2206648	ENCODING_START	n/a	n/a	n/a	-999	13	[0, 0, 0]	n/a	FR1	0	R1331T
2206.545	1.623	2207508	WORD	n/a	wordpools/wordpool_long_SP.txt	PLANTA	1	13	[0, 0, 0]	n/a	FR1	0	R1331T
2208.168	0.775	2209131	WORD_OFF	n/a	n/a	PLANTA	1	13	[0, 0, 0]	n/a	FR1	0	R1331T
2208.943	1.626	2209906	WORD	n/a	wordpools/wordpool_long_SP.txt	JEFE	2	13	[0, 0, 0]	n/a	FR1	0	R1331T
2210.569	1.036	2211532	WORD_OFF	n/a	n/a	JEFE	2	13	[0, 0, 0]	n/a	FR1	0	R1331T
2211.605	1.631	2212568	WORD	n/a	wordpools/wordpool_long_SP.txt	CARNET	3	13	[0, 0, 0]	n/a	FR1	0	R1331T
2213.236	0.79	2214199	WORD_OFF	n/a	n/a	CARNET	3	13	[0, 0, 0]	n/a	FR1	0	R1331T
2214.026	1.627	2214989	WORD	n/a	wordpools/wordpool_long_SP.txt	MONEDA	4	13	[0, 0, 0]	n/a	FR1	0	R1331T
2215.653	0.9	2216616	WORD_OFF	n/a	n/a	MONEDA	4	13	[0, 0, 0]	n/a	FR1	0	R1331T
2216.553	1.634	2217516	WORD	n/a	wordpools/wordpool_long_SP.txt	TRAJE	5	13	[0, 0, 0]	n/a	FR1	0	R1331T
2218.187	1.08	2219150	WORD_OFF	n/a	n/a	TRAJE	5	13	[0, 0, 0]	n/a	FR1	0	R1331T
2219.267	1.638	2220230	WORD	n/a	wordpools/wordpool_long_SP.txt	LADRILLO	6	13	[0, 0, 0]	n/a	FR1	0	R1331T
2220.905	0.851	2221868	WORD_OFF	n/a	n/a	LADRILLO	6	13	[0, 0, 0]	n/a	FR1	0	R1331T
2221.756	1.632	2222719	WORD	n/a	wordpools/wordpool_long_SP.txt	TALLO	7	13	[0, 0, 0]	n/a	FR1	0	R1331T
2223.388	0.94	2224351	WORD_OFF	n/a	n/a	TALLO	7	13	[0, 0, 0]	n/a	FR1	0	R1331T
2224.328	1.611	2225291	WORD	n/a	wordpools/wordpool_long_SP.txt	TAMBOR	8	13	[0, 0, 0]	n/a	FR1	0	R1331T
2225.939	0.931	2226901	WORD_OFF	n/a	n/a	TAMBOR	8	13	[0, 0, 0]	n/a	FR1	0	R1331T
2226.87	1.635	2227832	WORD	n/a	wordpools/wordpool_long_SP.txt	ASIENTO	9	13	[0, 0, 0]	n/a	FR1	0	R1331T
2228.505	0.961	2229467	WORD_OFF	n/a	n/a	ASIENTO	9	13	[0, 0, 0]	n/a	FR1	0	R1331T
2229.466	1.623	2230428	WORD	n/a	wordpools/wordpool_long_SP.txt	TIBURON	10	13	[0, 0, 0]	n/a	FR1	0	R1331T
2231.089	0.778	2232051	WORD_OFF	n/a	n/a	TIBURON	10	13	[0, 0, 0]	n/a	FR1	0	R1331T
2231.867	1.622	2232829	WORD	n/a	wordpools/wordpool_long_SP.txt	GUANTE	11	13	[0, 0, 0]	n/a	FR1	0	R1331T
2233.489	1.138	2234451	WORD_OFF	n/a	n/a	GUANTE	11	13	[0, 0, 0]	n/a	FR1	0	R1331T
2234.627	1.63	2235589	WORD	n/a	wordpools/wordpool_long_SP.txt	MENTON	12	13	[0, 0, 0]	n/a	FR1	0	R1331T
2236.257	0.0	2237219	ENCODING_END	n/a	n/a	n/a	-999	13	[0, 0, 0]	n/a	FR1	0	R1331T
2236.257	0.0	2237219	DISTRACT_START	n/a	n/a	n/a	-999	13	[0, 0, 0]	n/a	FR1	0	R1331T
2236.257	0.0	2237219	WORD_OFF	n/a	n/a	MENTON	12	13	[0, 0, 0]	n/a	FR1	0	R1331T
2236.257	0.016	2237219	START	n/a	n/a	n/a	-999	13	[-999, -999, -999]	n/a	FR1	0	R1331T
2236.273	12.119	2237235	PROB	12.119	n/a	n/a	-999	13	[9, 3, 6]	18	FR1	0	R1331T
2248.392	9.883	2249354	PROB	9.883	n/a	n/a	-999	13	[3, 8, 5]	16	FR1	0	R1331T
2258.275	0.019	2259236	STOP	n/a	n/a	n/a	-999	13	[-999, -999, -999]	n/a	FR1	0	R1331T
2258.294	0.542	2259255	DISTRACT_END	n/a	n/a	n/a	-999	13	[0, 0, 0]	n/a	FR1	0	R1331T
2258.836	1.725	2259797	RETRIEVAL_ORIENT_START	n/a	n/a	n/a	-999	13	[0, 0, 0]	n/a	FR1	0	R1331T
2260.561	0.0	2261522	RETRIEVAL_ORIENT_END	n/a	n/a	n/a	-999	13	[0, 0, 0]	n/a	FR1	0	R1331T
2260.561	3.616	2261522	REC_START	n/a	n/a	n/a	-999	13	[0, 0, 0]	n/a	FR1	0	R1331T
2264.177	1.032	2265138	REC_WORD	1.032	n/a	TRAJE	5	13	[0, 0, 0]	n/a	FR1	0	R1331T
2265.209	1.563	2266170	REC_WORD	1.563	n/a	TAMBOR	8	13	[0, 0, 0]	n/a	FR1	0	R1331T
2266.772	1.0	2267733	REC_WORD	1.0	n/a	LADRILLO	6	13	[0, 0, 0]	n/a	FR1	0	R1331T
2267.772	1.752	2268733	REC_WORD_VV	1.752	n/a	<>	-999	13	[0, 0, 0]	n/a	FR1	0	R1331T
2269.524	2.388	2270485	REC_WORD_VV	2.388	n/a	<>	-999	13	[0, 0, 0]	n/a	FR1	0	R1331T
2271.912	3.425	2272873	REC_WORD	3.425	n/a	ASIENTO	9	13	[0, 0, 0]	n/a	FR1	0	R1331T
2275.337	11.377	2276297	REC_WORD_VV	11.377	n/a	<>	-999	13	[0, 0, 0]	n/a	FR1	0	R1331T
2286.714	3.857	2287674	REC_WORD	3.857	n/a	MONEDA	4	13	[0, 0, 0]	n/a	FR1	0	R1331T
2290.571	0.0	2291531	REC_END	n/a	n/a	n/a	-999	13	[0, 0, 0]	n/a	FR1	0	R1331T
2290.571	0.018	2291531	TRIAL_END	n/a	n/a	n/a	-999	13	[0, 0, 0]	n/a	FR1	0	R1331T
2290.589	0.0	2291549	TRIAL_START	n/a	n/a	n/a	-999	14	[0, 0, 0]	n/a	FR1	0	R1331T
2290.589	0.001	2291549	TRIAL	n/a	n/a	n/a	-999	14	[0, 0, 0]	n/a	FR1	0	R1331T
2290.59	26.698	2291550	WAITING_START	n/a	n/a	n/a	-999	14	[0, 0, 0]	n/a	FR1	0	R1331T
2317.288	0.0	2318247	COUNTDOWN_START	n/a	n/a	n/a	-999	14	[0, 0, 0]	n/a	FR1	0	R1331T
2317.288	10.43	2318247	WAITING_END	n/a	n/a	n/a	-999	14	[0, 0, 0]	n/a	FR1	0	R1331T
2327.718	0.0	2328676	COUNTDOWN_END	n/a	n/a	n/a	-999	14	[0, 0, 0]	n/a	FR1	0	R1331T
2327.718	1.255	2328676	ORIENT_START	n/a	n/a	n/a	-999	14	[0, 0, 0]	n/a	FR1	0	R1331T
2328.973	0.001	2329931	ORIENT_END	n/a	n/a	n/a	-999	14	[0, 0, 0]	n/a	FR1	0	R1331T
2328.974	1.106	2329932	ENCODING_START	n/a	n/a	n/a	-999	14	[0, 0, 0]	n/a	FR1	0	R1331T
2330.08	1.627	2331038	WORD	n/a	wordpools/wordpool_long_SP.txt	POLILLA	1	14	[0, 0, 0]	n/a	FR1	0	R1331T
2331.707	0.853	2332665	WORD_OFF	n/a	n/a	POLILLA	1	14	[0, 0, 0]	n/a	FR1	0	R1331T
2332.56	1.631	2333518	WORD	n/a	wordpools/wordpool_long_SP.txt	ZANJA	2	14	[0, 0, 0]	n/a	FR1	0	R1331T
2334.191	0.885	2335149	WORD_OFF	n/a	n/a	ZANJA	2	14	[0, 0, 0]	n/a	FR1	0	R1331T
2335.076	1.632	2336034	WORD	n/a	wordpools/wordpool_long_SP.txt	TAZA	3	14	[0, 0, 0]	n/a	FR1	0	R1331T
2336.708	0.973	2337666	WORD_OFF	n/a	n/a	TAZA	3	14	[0, 0, 0]	n/a	FR1	0	R1331T
2337.681	1.628	2338639	WORD	n/a	wordpools/wordpool_long_SP.txt	PASTEL	4	14	[0, 0, 0]	n/a	FR1	0	R1331T
2339.309	0.945	2340267	WORD_OFF	n/a	n/a	PASTEL	4	14	[0, 0, 0]	n/a	FR1	0	R1331T
2340.254	1.623	2341212	WORD	n/a	wordpools/wordpool_long_SP.txt	CORDEL	5	14	[0, 0, 0]	n/a	FR1	0	R1331T
2341.877	1.146	2342835	WORD_OFF	n/a	n/a	CORDEL	5	14	[0, 0, 0]	n/a	FR1	0	R1331T
2343.023	1.637	2343980	WORD	n/a	wordpools/wordpool_long_SP.txt	VELA	6	14	[0, 0, 0]	n/a	FR1	0	R1331T
2344.66	0.753	2345617	WORD_OFF	n/a	n/a	VELA	6	14	[0, 0, 0]	n/a	FR1	0	R1331T
2345.413	1.63	2346370	WORD	n/a	wordpools/wordpool_long_SP.txt	RELOJ	7	14	[0, 0, 0]	n/a	FR1	0	R1331T
2347.043	1.016	2348000	WORD_OFF	n/a	n/a	RELOJ	7	14	[0, 0, 0]	n/a	FR1	0	R1331T
2348.059	1.635	2349016	WORD	n/a	wordpools/wordpool_long_SP.txt	HOJA	8	14	[0, 0, 0]	n/a	FR1	0	R1331T
2349.694	0.86	2350651	WORD_OFF	n/a	n/a	HOJA	8	14	[0, 0, 0]	n/a	FR1	0	R1331T
2350.554	1.623	2351511	WORD	n/a	wordpools/wordpool_long_SP.txt	SAL	9	14	[0, 0, 0]	n/a	FR1	0	R1331T
2352.177	0.932	2353134	WORD_OFF	n/a	n/a	SAL	9	14	[0, 0, 0]	n/a	FR1	0	R1331T
2353.109	1.636	2354066	WORD	n/a	wordpools/wordpool_long_SP.txt	PRIMAVERA	10	14	[0, 0, 0]	n/a	FR1	0	R1331T
2354.745	0.826	2355702	WORD_OFF	n/a	n/a	PRIMAVERA	10	14	[0, 0, 0]	n/a	FR1	0	R1331T
2355.571	1.624	2356528	WORD	n/a	wordpools/wordpool_long_SP.txt	PISCINA	11	14	[0, 0, 0]	n/a	FR1	0	R1331T
2357.195	0.921	2358152	WORD_OFF	n/a	n/a	PISCINA	11	14	[0, 0, 0]	n/a	FR1	0	R1331T
2358.116	1.63	2359073	WORD	n/a	wordpools/wordpool_long_SP.txt	BASTON	12	14	[0, 0, 0]	n/a	FR1	0	R1331T
2359.746	0.0	2360703	DISTRACT_START	n/a	n/a	n/a	-999	14	[0, 0, 0]	n/a	FR1	0	R1331T
2359.746	0.0	2360703	WORD_OFF	n/a	n/a	BASTON	12	14	[0, 0, 0]	n/a	FR1	0	R1331T
2359.746	0.001	2360703	ENCODING_END	n/a	n/a	n/a	-999	14	[0, 0, 0]	n/a	FR1	0	R1331T
2359.747	0.015	2360704	START	n/a	n/a	n/a	-999	14	[-999, -999, -999]	n/a	FR1	0	R1331T
2359.762	14.786	2360719	PROB	14.786	n/a	n/a	-999	14	[6, 5, 2]	13	FR1	0	R1331T
2374.548	13.22	2375504	PROB	13.22	n/a	n/a	-999	14	[9, 7, 8]	24	FR1	0	R1331T
2387.768	0.016	2388724	STOP	n/a	n/a	n/a	-999	14	[-999, -999, -999]	n/a	FR1	0	R1331T
2387.784	0.591	2388740	DISTRACT_END	n/a	n/a	n/a	-999	14	[0, 0, 0]	n/a	FR1	0	R1331T
2388.375	1.577	2389331	RETRIEVAL_ORIENT_START	n/a	n/a	n/a	-999	14	[0, 0, 0]	n/a	FR1	0	R1331T
2389.952	0.0	2390907	RETRIEVAL_ORIENT_END	n/a	n/a	n/a	-999	14	[0, 0, 0]	n/a	FR1	0	R1331T
2389.952	8.091	2390907	REC_START	n/a	n/a	n/a	-999	14	[0, 0, 0]	n/a	FR1	0	R1331T
2398.043	1.0	2398998	REC_WORD	1.0	n/a	POLILLA	1	14	[0, 0, 0]	n/a	FR1	0	R1331T
2399.043	1.613	2399998	REC_WORD_VV	1.613	n/a	<>	-999	14	[0, 0, 0]	n/a	FR1	0	R1331T
2400.656	2.269	2401611	REC_WORD_VV	2.269	n/a	<>	-999	14	[0, 0, 0]	n/a	FR1	0	R1331T
2402.925	2.137	2403880	REC_WORD	2.137	n/a	ZANJA	2	14	[0, 0, 0]	n/a	FR1	0	R1331T
2405.062	0.788	2406017	REC_WORD	0.788	n/a	ARBOL	-999	14	[0, 0, 0]	n/a	FR1	0	R1331T
2405.85	7.199	2406805	REC_WORD	7.199	n/a	FENCE	-999	14	[0, 0, 0]	n/a	FR1	0	R1331T
2413.049	4.551	2414004	REC_WORD_VV	4.551	n/a	<>	-999	14	[0, 0, 0]	n/a	FR1	0	R1331T
2417.6	2.363	2418554	REC_WORD	2.363	n/a	PELA	-999	14	[0, 0, 0]	n/a	FR1	0	R1331T
2419.963	0.001	2420917	REC_END	n/a	n/a	n/a	-999	14	[0, 0, 0]	n/a	FR1	0	R1331T
2419.964	0.014	2420918	TRIAL_END	n/a	n/a	n/a	-999	14	[0, 0, 0]	n/a	FR1	0	R1331T
2419.978	0.0	2420932	TRIAL_START	n/a	n/a	n/a	-999	15	[0, 0, 0]	n/a	FR1	0	R1331T
2419.978	0.0	2420932	TRIAL	n/a	n/a	n/a	-999	15	[0, 0, 0]	n/a	FR1	0	R1331T
2419.978	112.867	2420932	WAITING_START	n/a	n/a	n/a	-999	15	[0, 0, 0]	n/a	FR1	0	R1331T
2532.845	0.0	2533794	COUNTDOWN_START	n/a	n/a	n/a	-999	15	[0, 0, 0]	n/a	FR1	0	R1331T
2532.845	10.429	2533794	WAITING_END	n/a	n/a	n/a	-999	15	[0, 0, 0]	n/a	FR1	0	R1331T
2543.274	0.0	2544223	COUNTDOWN_END	n/a	n/a	n/a	-999	15	[0, 0, 0]	n/a	FR1	0	R1331T
2543.274	1.255	2544223	ORIENT_START	n/a	n/a	n/a	-999	15	[0, 0, 0]	n/a	FR1	0	R1331T
2544.529	0.001	2545478	ORIENT_END	n/a	n/a	n/a	-999	15	[0, 0, 0]	n/a	FR1	0	R1331T
2544.53	1.066	2545479	ENCODING_START	n/a	n/a	n/a	-999	15	[0, 0, 0]	n/a	FR1	0	R1331T
2545.596	1.617	2546545	WORD	n/a	wordpools/wordpool_long_SP.txt	ZAPATO	1	15	[0, 0, 0]	n/a	FR1	0	R1331T
2547.213	0.76	2548162	WORD_OFF	n/a	n/a	ZAPATO	1	15	[0, 0, 0]	n/a	FR1	0	R1331T
2547.973	1.624	2548922	WORD	n/a	wordpools/wordpool_long_SP.txt	MAIZ	2	15	[0, 0, 0]	n/a	FR1	0	R1331T
2549.597	0.866	2550546	WORD_OFF	n/a	n/a	MAIZ	2	15	[0, 0, 0]	n/a	FR1	0	R1331T
2550.463	1.634	2551412	WORD	n/a	wordpools/wordpool_long_SP.txt	TE	3	15	[0, 0, 0]	n/a	FR1	0	R1331T
2552.097	0.959	2553046	WORD_OFF	n/a	n/a	TE	3	15	[0, 0, 0]	n/a	FR1	0	R1331T
2553.056	1.625	2554005	WORD	n/a	wordpools/wordpool_long_SP.txt	PIEDRA	4	15	[0, 0, 0]	n/a	FR1	0	R1331T
2554.681	1.113	2555629	WORD_OFF	n/a	n/a	PIEDRA	4	15	[0, 0, 0]	n/a	FR1	0	R1331T
2555.794	1.637	2556742	WORD	n/a	wordpools/wordpool_long_SP.txt	SILLA	5	15	[0, 0, 0]	n/a	FR1	0	R1331T
2557.431	0.978	2558379	WORD_OFF	n/a	n/a	SILLA	5	15	[0, 0, 0]	n/a	FR1	0	R1331T
2558.409	1.623	2559357	WORD	n/a	wordpools/wordpool_long_SP.txt	CAMISA	6	15	[0, 0, 0]	n/a	FR1	0	R1331T
2560.032	0.981	2560980	WORD_OFF	n/a	n/a	CAMISA	6	15	[0, 0, 0]	n/a	FR1	0	R1331T
2561.013	1.636	2561961	WORD	n/a	wordpools/wordpool_long_SP.txt	VERJA	7	15	[0, 0, 0]	n/a	FR1	0	R1331T
2562.649	1.07	2563597	WORD_OFF	n/a	n/a	VERJA	7	15	[0, 0, 0]	n/a	FR1	0	R1331T
2563.719	1.631	2564667	WORD	n/a	wordpools/wordpool_long_SP.txt	LLAVE	8	15	[0, 0, 0]	n/a	FR1	0	R1331T
2565.35	0.88	2566298	WORD_OFF	n/a	n/a	LLAVE	8	15	[0, 0, 0]	n/a	FR1	0	R1331T
2566.23	1.638	2567178	WORD	n/a	wordpools/wordpool_long_SP.txt	PICO	9	15	[0, 0, 0]	n/a	FR1	0	R1331T
2567.868	0.845	2568816	WORD_OFF	n/a	n/a	PICO	9	15	[0, 0, 0]	n/a	FR1	0	R1331T
2568.713	1.637	2569661	WORD	n/a	wordpools/wordpool_long_SP.txt	PERRO	10	15	[0, 0, 0]	n/a	FR1	0	R1331T
2570.35	0.903	2571298	WORD_OFF	n/a	n/a	PERRO	10	15	[0, 0, 0]	n/a	FR1	0	R1331T
2571.253	1.615	2572201	WORD	n/a	wordpools/wordpool_long_SP.txt	CORAZON	11	15	[0, 0, 0]	n/a	FR1	0	R1331T
2572.868	0.85	2573816	WORD_OFF	n/a	n/a	CORAZON	11	15	[0, 0, 0]	n/a	FR1	0	R1331T
2573.718	1.633	2574666	WORD	n/a	wordpools/wordpool_long_SP.txt	LABIO	12	15	[0, 0, 0]	n/a	FR1	0	R1331T
2575.351	0.001	2576299	WORD_OFF	n/a	n/a	LABIO	12	15	[0, 0, 0]	n/a	FR1	0	R1331T
2575.352	0.0	2576300	ENCODING_END	n/a	n/a	n/a	-999	15	[0, 0, 0]	n/a	FR1	0	R1331T
2575.352	0.0	2576300	DISTRACT_START	n/a	n/a	n/a	-999	15	[0, 0, 0]	n/a	FR1	0	R1331T
2575.352	0.016	2576300	START	n/a	n/a	n/a	-999	15	[-999, -999, -999]	n/a	FR1	0	R1331T
2575.368	6.968	2576316	PROB	6.968	n/a	n/a	-999	15	[5, 3, 4]	12	FR1	0	R1331T
2582.336	4.867	2583283	PROB	4.867	n/a	n/a	-999	15	[3, 2, 2]	7	FR1	0	R1331T
2587.203	4.618	2588150	PROB	4.618	n/a	n/a	-999	15	[1, 9, 1]	11	FR1	0	R1331T
2591.821	8.463	2592768	PROB	8.463	n/a	n/a	-999	15	[6, 8, 8]	22	FR1	0	R1331T
2600.284	0.022	2601231	STOP	n/a	n/a	n/a	-999	15	[-999, -999, -999]	n/a	FR1	0	R1331T
2600.306	0.555	2601253	DISTRACT_END	n/a	n/a	n/a	-999	15	[0, 0, 0]	n/a	FR1	0	R1331T
2600.861	1.578	2601808	RETRIEVAL_ORIENT_START	n/a	n/a	n/a	-999	15	[0, 0, 0]	n/a	FR1	0	R1331T
2602.439	0.001	2603385	RETRIEVAL_ORIENT_END	n/a	n/a	n/a	-999	15	[0, 0, 0]	n/a	FR1	0	R1331T
2602.44	1.054	2603386	REC_START	n/a	n/a	n/a	-999	15	[0, 0, 0]	n/a	FR1	0	R1331T
2603.494	1.0	2604440	REC_WORD_VV	1.0	n/a	<>	-999	15	[0, 0, 0]	n/a	FR1	0	R1331T
2604.494	1.0	2605440	REC_WORD_VV	1.0	n/a	<>	-999	15	[0, 0, 0]	n/a	FR1	0	R1331T
2605.494	1.0	2606440	REC_WORD_VV	1.0	n/a	<>	-999	15	[0, 0, 0]	n/a	FR1	0	R1331T
2606.494	2.665	2607440	REC_WORD_VV	2.665	n/a	<>	-999	15	[0, 0, 0]	n/a	FR1	0	R1331T
2609.159	2.375	2610105	REC_WORD_VV	2.375	n/a	<>	-999	15	[0, 0, 0]	n/a	FR1	0	R1331T
2611.534	1.0	2612480	REC_WORD	1.0	n/a	MADERA	-999	15	[0, 0, 0]	n/a	FR1	0	R1331T
2612.534	1.053	2613480	REC_WORD_VV	1.053	n/a	<>	-999	15	[0, 0, 0]	n/a	FR1	0	R1331T
2613.587	1.405	2614533	REC_WORD	1.405	n/a	VERJA	7	15	[0, 0, 0]	n/a	FR1	0	R1331T
2614.992	2.184	2615938	REC_WORD	2.184	n/a	TE	-999	15	[0, 0, 0]	n/a	FR1	0	R1331T
2617.176	0.924	2618122	REC_WORD_VV	0.924	n/a	<>	-999	15	[0, 0, 0]	n/a	FR1	0	R1331T
2618.1	3.522	2619046	REC_WORD	3.522	n/a	ZAPATO	1	15	[0, 0, 0]	n/a	FR1	0	R1331T
2621.622	4.01	2622568	REC_WORD_VV	4.01	n/a	<>	-999	15	[0, 0, 0]	n/a	FR1	0	R1331T
2625.632	6.817	2626577	REC_WORD	6.817	n/a	HOJA	-999	15	[0, 0, 0]	n/a	FR1	0	R1331T
2632.449	0.0	2633394	REC_END	n/a	n/a	n/a	-999	15	[0, 0, 0]	n/a	FR1	0	R1331T
2632.449	0.014	2633394	TRIAL_END	n/a	n/a	n/a	-999	15	[0, 0, 0]	n/a	FR1	0	R1331T
2632.463	0.0	2633408	TRIAL_START	n/a	n/a	n/a	-999	16	[0, 0, 0]	n/a	FR1	0	R1331T
2632.463	0.0	2633408	TRIAL	n/a	n/a	n/a	-999	16	[0, 0, 0]	n/a	FR1	0	R1331T
2632.463	772.953	2633408	WAITING_START	n/a	n/a	n/a	-999	16	[0, 0, 0]	n/a	FR1	0	R1331T
3405.416	43.512	3406328	INSTRUCT_START	n/a	n/a	n/a	-999	16	[0, 0, 0]	n/a	FR1	0	R1331T
3448.928	7.833	3449838	INSTRUCT_END	n/a	n/a	n/a	-999	16	[0, 0, 0]	n/a	FR1	0	R1331T
3456.761	11.59	3457671	MIC TEST_START	n/a	n/a	n/a	-999	16	[0, 0, 0]	n/a	FR1	0	R1331T
3468.351	0.009	3469261	MIC TEST_END	n/a	n/a	n/a	-999	16	[0, 0, 0]	n/a	FR1	0	R1331T
3468.36	0.0	3469270	TRIAL_START	n/a	n/a	n/a	-999	-1	[0, 0, 0]	n/a	FR1	0	R1331T
3468.36	0.001	3469270	TRIAL	n/a	n/a	n/a	-999	-1	[0, 0, 0]	n/a	FR1	0	R1331T
3468.361	9.789	3469271	WAITING_START	n/a	n/a	n/a	-999	-1	[0, 0, 0]	n/a	FR1	0	R1331T
3478.15	0.0	3479059	WAITING_END	n/a	n/a	n/a	-999	-1	[0, 0, 0]	n/a	FR1	0	R1331T
3478.15	10.429	3479059	COUNTDOWN_START	n/a	n/a	n/a	-999	-1	[0, 0, 0]	n/a	FR1	0	R1331T
3488.579	0.001	3489488	COUNTDOWN_END	n/a	n/a	n/a	-999	-1	[0, 0, 0]	n/a	FR1	0	R1331T
3488.58	1.221	3489489	ORIENT_START	n/a	n/a	n/a	-999	-1	[0, 0, 0]	n/a	FR1	0	R1331T
3489.801	0.0	3490710	ENCODING_START	n/a	n/a	n/a	-999	-1	[0, 0, 0]	n/a	FR1	0	R1331T
3489.801	0.788	3490710	ORIENT_END	n/a	n/a	n/a	-999	-1	[0, 0, 0]	n/a	FR1	0	R1331T
3490.589	1.629	3491498	WORD	n/a	n/a	ALGODON	1	-1	[0, 0, 0]	n/a	FR1	0	R1331T
3492.218	0.922	3493127	WORD_OFF	n/a	n/a	ALGODON	1	-1	[0, 0, 0]	n/a	FR1	0	R1331T
3493.14	1.628	3494049	WORD	n/a	n/a	CARRETA	2	-1	[0, 0, 0]	n/a	FR1	0	R1331T
3494.768	1.104	3495676	WORD_OFF	n/a	n/a	CARRETA	2	-1	[0, 0, 0]	n/a	FR1	0	R1331T
3495.872	1.63	3496780	WORD	n/a	n/a	RINOCERONTE	3	-1	[0, 0, 0]	n/a	FR1	0	R1331T
3497.502	1.054	3498410	WORD_OFF	n/a	n/a	RINOCERONTE	3	-1	[0, 0, 0]	n/a	FR1	0	R1331T
3498.556	1.63	3499464	WORD	n/a	n/a	ANILLO	4	-1	[0, 0, 0]	n/a	FR1	0	R1331T
3500.186	0.858	3501094	WORD_OFF	n/a	n/a	ANILLO	4	-1	[0, 0, 0]	n/a	FR1	0	R1331T
3501.044	1.626	3501952	WORD	n/a	n/a	RELOJ	5	-1	[0, 0, 0]	n/a	FR1	0	R1331T
3502.67	0.885	3503578	WORD_OFF	n/a	n/a	RELOJ	5	-1	[0, 0, 0]	n/a	FR1	0	R1331T
3503.555	1.616	3504463	WORD	n/a	n/a	PECHO	6	-1	[0, 0, 0]	n/a	FR1	0	R1331T
3505.171	1.085	3506079	WORD_OFF	n/a	n/a	PECHO	6	-1	[0, 0, 0]	n/a	FR1	0	R1331T
3506.256	1.615	3507164	WORD	n/a	n/a	IMAGEN	7	-1	[0, 0, 0]	n/a	FR1	0	R1331T
3507.871	1.048	3508779	WORD_OFF	n/a	n/a	IMAGEN	7	-1	[0, 0, 0]	n/a	FR1	0	R1331T
3508.919	1.635	3509827	WORD	n/a	n/a	INUNDACION	8	-1	[0, 0, 0]	n/a	FR1	0	R1331T
3510.554	0.925	3511462	WORD_OFF	n/a	n/a	INUNDACION	8	-1	[0, 0, 0]	n/a	FR1	0	R1331T
3511.479	1.627	3512387	WORD	n/a	n/a	CAMELLO	9	-1	[0, 0, 0]	n/a	FR1	0	R1331T
3513.106	1.038	3514014	WORD_OFF	n/a	n/a	CAMELLO	9	-1	[0, 0, 0]	n/a	FR1	0	R1331T
3514.144	1.628	3515052	WORD	n/a	n/a	VIGA	10	-1	[0, 0, 0]	n/a	FR1	0	R1331T
3515.772	1.1	3516680	WORD_OFF	n/a	n/a	VIGA	10	-1	[0, 0, 0]	n/a	FR1	0	R1331T
3516.872	1.634	3517780	WORD	n/a	n/a	BEBE	11	-1	[0, 0, 0]	n/a	FR1	0	R1331T
3518.506	1.108	3519413	WORD_OFF	n/a	n/a	BEBE	11	-1	[0, 0, 0]	n/a	FR1	0	R1331T
3519.614	1.626	3520521	WORD	n/a	n/a	LENGUA	12	-1	[0, 0, 0]	n/a	FR1	0	R1331T
3521.24	0.0	3522147	WORD_OFF	n/a	n/a	LENGUA	12	-1	[0, 0, 0]	n/a	FR1	0	R1331T
3521.24	0.0	3522147	ENCODING_END	n/a	n/a	n/a	-999	-1	[0, 0, 0]	n/a	FR1	0	R1331T
3521.24	0.0	3522147	DISTRACT_START	n/a	n/a	n/a	-999	-1	[0, 0, 0]	n/a	FR1	0	R1331T
3521.24	0.016	3522147	START	n/a	n/a	n/a	-999	16	[-999, -999, -999]	n/a	FR1	0	R1331T
3521.256	12.269	3522163	PROB	12.269	n/a	n/a	-999	16	[9, 4, 9]	22	FR1	0	R1331T
3533.525	12.319	3534432	PROB	12.319	n/a	n/a	-999	16	[8, 6, 3]	17	FR1	0	R1331T
3545.844	0.018	3546750	STOP	n/a	n/a	n/a	-999	16	[-999, -999, -999]	n/a	FR1	0	R1331T
3545.862	0.529	3546768	DISTRACT_END	n/a	n/a	n/a	-999	-1	[0, 0, 0]	n/a	FR1	0	R1331T
3546.391	1.604	3547297	RETRIEVAL_ORIENT_START	n/a	n/a	n/a	-999	-1	[0, 0, 0]	n/a	FR1	0	R1331T
3547.995	0.001	3548901	RETRIEVAL_ORIENT_END	n/a	n/a	n/a	-999	-1	[0, 0, 0]	n/a	FR1	0	R1331T
3547.996	0.0	3548902	REC_START	n/a	n/a	n/a	-999	-1	[0, 0, 0]	n/a	FR1	0	R1331T
3547.996	1.0	3548902	REC_WORD_VV	1.0	n/a	<>	-999	-1	[0, 0, 0]	n/a	FR1	0	R1331T
3548.996	1.001	3549902	REC_WORD_VV	1.001	n/a	<>	-999	-1	[0, 0, 0]	n/a	FR1	0	R1331T
3549.997	1.003	3550903	REC_WORD_VV	1.003	n/a	<>	-999	-1	[0, 0, 0]	n/a	FR1	0	R1331T
3551.0	0.999	3551906	REC_WORD_VV	0.999	n/a	<>	-999	-1	[0, 0, 0]	n/a	FR1	0	R1331T
3551.999	0.998	3552905	REC_WORD_VV	0.998	n/a	<>	-999	-1	[0, 0, 0]	n/a	FR1	0	R1331T
3552.997	1.003	3553903	REC_WORD_VV	1.003	n/a	<>	-999	-1	[0, 0, 0]	n/a	FR1	0	R1331T
3554.0	1.0	3554906	REC_WORD_VV	1.0	n/a	<>	-999	-1	[0, 0, 0]	n/a	FR1	0	R1331T
3555.0	1.0	3555906	REC_WORD_VV	1.0	n/a	<>	-999	-1	[0, 0, 0]	n/a	FR1	0	R1331T
3556.0	0.996	3556906	REC_WORD_VV	0.996	n/a	<>	-999	-1	[0, 0, 0]	n/a	FR1	0	R1331T
3556.996	1.0	3557902	REC_WORD_VV	1.0	n/a	<>	-999	-1	[0, 0, 0]	n/a	FR1	0	R1331T
3557.996	1.0	3558902	REC_WORD_VV	1.0	n/a	<>	-999	-1	[0, 0, 0]	n/a	FR1	0	R1331T
3558.996	1.0	3559902	REC_WORD_VV	1.0	n/a	<>	-999	-1	[0, 0, 0]	n/a	FR1	0	R1331T
3559.996	1.0	3560902	REC_WORD_VV	1.0	n/a	<>	-999	-1	[0, 0, 0]	n/a	FR1	0	R1331T
3560.996	1.0	3561902	REC_WORD_VV	1.0	n/a	<>	-999	-1	[0, 0, 0]	n/a	FR1	0	R1331T
3561.996	1.0	3562902	REC_WORD_VV	1.0	n/a	<>	-999	-1	[0, 0, 0]	n/a	FR1	0	R1331T
3562.996	1.0	3563902	REC_WORD_VV	1.0	n/a	<>	-999	-1	[0, 0, 0]	n/a	FR1	0	R1331T
3563.996	1.0	3564902	REC_WORD_VV	1.0	n/a	<>	-999	-1	[0, 0, 0]	n/a	FR1	0	R1331T
3564.996	3.129	3565901	REC_WORD_VV	3.129	n/a	<>	-999	-1	[0, 0, 0]	n/a	FR1	0	R1331T
3568.125	9.881	3569030	REC_WORD_VV	9.881	n/a	<>	-999	-1	[0, 0, 0]	n/a	FR1	0	R1331T
3578.006	0.0	3578911	REC_END	n/a	n/a	n/a	-999	-1	[0, 0, 0]	n/a	FR1	0	R1331T
3578.006	8.329	3578911	PRACTICE_POST_INSTRUCT_START	n/a	n/a	n/a	-999	-1	[0, 0, 0]	n/a	FR1	0	R1331T
3586.335	0.0	3587240	PRACTICE_POST_INSTRUCT_END	n/a	n/a	n/a	-999	-1	[0, 0, 0]	n/a	FR1	0	R1331T
3586.335	0.017	3587240	TRIAL_END	n/a	n/a	n/a	-999	-1	[0, 0, 0]	n/a	FR1	0	R1331T
3586.352	0.0	3587257	TRIAL	n/a	n/a	n/a	-999	1	[0, 0, 0]	n/a	FR1	0	R1331T
3586.352	0.001	3587257	TRIAL_START	n/a	n/a	n/a	-999	1	[0, 0, 0]	n/a	FR1	0	R1331T
3586.353	61.226	3587258	WAITING_START	n/a	n/a	n/a	-999	1	[0, 0, 0]	n/a	FR1	0	R1331T
3647.579	0.001	3648481	WAITING_END	n/a	n/a	n/a	-999	1	[0, 0, 0]	n/a	FR1	0	R1331T
3647.58	10.429	3648482	COUNTDOWN_START	n/a	n/a	n/a	-999	1	[0, 0, 0]	n/a	FR1	0	R1331T
3658.009	0.0	3658910	COUNTDOWN_END	n/a	n/a	n/a	-999	1	[0, 0, 0]	n/a	FR1	0	R1331T
3658.009	1.173	3658910	ORIENT_START	n/a	n/a	n/a	-999	1	[0, 0, 0]	n/a	FR1	0	R1331T
3659.182	0.001	3660083	ORIENT_END	n/a	n/a	n/a	-999	1	[0, 0, 0]	n/a	FR1	0	R1331T
3659.183	1.05	3660084	ENCODING_START	n/a	n/a	n/a	-999	1	[0, 0, 0]	n/a	FR1	0	R1331T
3660.233	1.633	3661134	WORD	n/a	wordpools/wordpool_long_SP.txt	CORDERO	1	1	[0, 0, 0]	n/a	FR1	0	R1331T
3661.866	0.96	3662767	WORD_OFF	n/a	n/a	CORDERO	1	1	[0, 0, 0]	n/a	FR1	0	R1331T
3662.826	1.623	3663727	WORD	n/a	wordpools/wordpool_long_SP.txt	REMO	2	1	[0, 0, 0]	n/a	FR1	0	R1331T
3664.449	0.873	3665350	WORD_OFF	n/a	n/a	REMO	2	1	[0, 0, 0]	n/a	FR1	0	R1331T
3665.322	1.629	3666223	WORD	n/a	wordpools/wordpool_long_SP.txt	CABRA	3	1	[0, 0, 0]	n/a	FR1	0	R1331T
3666.951	0.896	3667852	WORD_OFF	n/a	n/a	CABRA	3	1	[0, 0, 0]	n/a	FR1	0	R1331T
3667.847	1.636	3668748	WORD	n/a	wordpools/wordpool_long_SP.txt	FLORECER	4	1	[0, 0, 0]	n/a	FR1	0	R1331T
3669.483	1.035	3670384	WORD_OFF	n/a	n/a	FLORECER	4	1	[0, 0, 0]	n/a	FR1	0	R1331T
3670.518	1.617	3671419	WORD	n/a	wordpools/wordpool_long_SP.txt	TARRO	5	1	[0, 0, 0]	n/a	FR1	0	R1331T
3672.135	1.148	3673036	WORD_OFF	n/a	n/a	TARRO	5	1	[0, 0, 0]	n/a	FR1	0	R1331T
3673.283	1.619	3674184	WORD	n/a	wordpools/wordpool_long_SP.txt	FICHA	6	1	[0, 0, 0]	n/a	FR1	0	R1331T
3674.902	0.945	3675803	WORD_OFF	n/a	n/a	FICHA	6	1	[0, 0, 0]	n/a	FR1	0	R1331T
3675.847	1.621	3676748	WORD	n/a	wordpools/wordpool_long_SP.txt	SONRISA	7	1	[0, 0, 0]	n/a	FR1	0	R1331T
3677.468	0.94	3678369	WORD_OFF	n/a	n/a	SONRISA	7	1	[0, 0, 0]	n/a	FR1	0	R1331T
3678.408	1.611	3679309	WORD	n/a	wordpools/wordpool_long_SP.txt	NIEVE	8	1	[0, 0, 0]	n/a	FR1	0	R1331T
3680.019	0.958	3680920	WORD_OFF	n/a	n/a	NIEVE	8	1	[0, 0, 0]	n/a	FR1	0	R1331T
3680.977	1.625	3681878	WORD	n/a	wordpools/wordpool_long_SP.txt	MUNECO	9	1	[0, 0, 0]	n/a	FR1	0	R1331T
3682.602	0.843	3683502	WORD_OFF	n/a	n/a	MUNECO	9	1	[0, 0, 0]	n/a	FR1	0	R1331T
3683.445	1.609	3684345	WORD	n/a	wordpools/wordpool_long_SP.txt	UVA	10	1	[0, 0, 0]	n/a	FR1	0	R1331T
3685.054	1.049	3685954	WORD_OFF	n/a	n/a	UVA	10	1	[0, 0, 0]	n/a	FR1	0	R1331T
3686.103	1.634	3687003	WORD	n/a	wordpools/wordpool_long_SP.txt	UNA	11	1	[0, 0, 0]	n/a	FR1	0	R1331T
3687.737	0.912	3688637	WORD_OFF	n/a	n/a	UNA	11	1	[0, 0, 0]	n/a	FR1	0	R1331T
3688.649	1.621	3689549	WORD	n/a	wordpools/wordpool_long_SP.txt	PIPA	12	1	[0, 0, 0]	n/a	FR1	0	R1331T
3690.27	0.001	3691170	WORD_OFF	n/a	n/a	PIPA	12	1	[0, 0, 0]	n/a	FR1	0	R1331T
3690.271	0.0	3691171	ENCODING_END	n/a	n/a	n/a	-999	1	[0, 0, 0]	n/a	FR1	0	R1331T
3690.271	0.0	3691171	DISTRACT_START	n/a	n/a	n/a	-999	1	[0, 0, 0]	n/a	FR1	0	R1331T
3690.271	0.016	3691171	START	n/a	n/a	n/a	-999	17	[-999, -999, -999]	n/a	FR1	0	R1331T
3690.287	10.135	3691187	PROB	10.135	n/a	n/a	-999	17	[8, 3, 9]	20	FR1	0	R1331T
3700.422	7.368	3701322	PROB	7.368	n/a	n/a	-999	17	[4, 6, 8]	18	FR1	0	R1331T
3707.79	7.313	3708689	PROB	7.313	n/a	n/a	-999	17	[1, 6, 3]	10	FR1	0	R1331T
3715.103	0.006	3716002	STOP	n/a	n/a	n/a	-999	17	[-999, -999, -999]	n/a	FR1	0	R1331T
3715.109	0.568	3716008	DISTRACT_END	n/a	n/a	n/a	-999	1	[0, 0, 0]	n/a	FR1	0	R1331T
3715.677	1.548	3716576	RETRIEVAL_ORIENT_START	n/a	n/a	n/a	-999	1	[0, 0, 0]	n/a	FR1	0	R1331T
3717.225	0.001	3718124	RETRIEVAL_ORIENT_END	n/a	n/a	n/a	-999	1	[0, 0, 0]	n/a	FR1	0	R1331T
3717.226	6.05	3718125	REC_START	n/a	n/a	n/a	-999	1	[0, 0, 0]	n/a	FR1	0	R1331T
3723.276	2.638	3724175	REC_WORD	2.638	n/a	CORDERO	1	1	[0, 0, 0]	n/a	FR1	0	R1331T
3725.914	1.994	3726813	REC_WORD	1.994	n/a	FAMA	-999	1	[0, 0, 0]	n/a	FR1	0	R1331T
3727.908	2.608	3728807	REC_WORD	2.608	n/a	UNA	-999	1	[0, 0, 0]	n/a	FR1	0	R1331T
3730.516	3.628	3731414	REC_WORD	3.628	n/a	NIEVE	8	1	[0, 0, 0]	n/a	FR1	0	R1331T
3734.144	0.787	3735042	REC_WORD_VV	0.787	n/a	<>	-999	1	[0, 0, 0]	n/a	FR1	0	R1331T
3734.931	4.739	3735829	REC_WORD	4.739	n/a	PINTURA	-999	1	[0, 0, 0]	n/a	FR1	0	R1331T
3739.67	6.593	3740568	REC_WORD	6.593	n/a	FLORECER	4	1	[0, 0, 0]	n/a	FR1	0	R1331T
3746.263	0.973	3747161	REC_WORD_VV	0.973	n/a	<>	-999	1	[0, 0, 0]	n/a	FR1	0	R1331T
3747.236	0.0	3748134	REC_END	n/a	n/a	n/a	-999	1	[0, 0, 0]	n/a	FR1	0	R1331T
3747.236	0.015	3748134	TRIAL_END	n/a	n/a	n/a	-999	1	[0, 0, 0]	n/a	FR1	0	R1331T
3747.251	0.0	3748149	TRIAL_START	n/a	n/a	n/a	-999	2	[0, 0, 0]	n/a	FR1	0	R1331T
3747.251	0.001	3748149	TRIAL	n/a	n/a	n/a	-999	2	[0, 0, 0]	n/a	FR1	0	R1331T
3747.252	4.714	3748150	WAITING_START	n/a	n/a	n/a	-999	2	[0, 0, 0]	n/a	FR1	0	R1331T
3751.966	0.0	3752863	WAITING_END	n/a	n/a	n/a	-999	2	[0, 0, 0]	n/a	FR1	0	R1331T
3751.966	10.429	3752863	COUNTDOWN_START	n/a	n/a	n/a	-999	2	[0, 0, 0]	n/a	FR1	0	R1331T
3762.395	0.001	3763292	COUNTDOWN_END	n/a	n/a	n/a	-999	2	[0, 0, 0]	n/a	FR1	0	R1331T
3762.396	1.121	3763293	ORIENT_START	n/a	n/a	n/a	-999	2	[0, 0, 0]	n/a	FR1	0	R1331T
3763.517	0.0	3764414	ORIENT_END	n/a	n/a	n/a	-999	2	[0, 0, 0]	n/a	FR1	0	R1331T
3763.517	1.031	3764414	ENCODING_START	n/a	n/a	n/a	-999	2	[0, 0, 0]	n/a	FR1	0	R1331T
3764.548	1.62	3765445	WORD	n/a	wordpools/wordpool_long_SP.txt	GATO	1	2	[0, 0, 0]	n/a	FR1	0	R1331T
3766.168	1.06	3767065	WORD_OFF	n/a	n/a	GATO	1	2	[0, 0, 0]	n/a	FR1	0	R1331T
3767.228	1.624	3768125	WORD	n/a	wordpools/wordpool_long_SP.txt	MEDIA	2	2	[0, 0, 0]	n/a	FR1	0	R1331T
3768.852	0.986	3769749	WORD_OFF	n/a	n/a	MEDIA	2	2	[0, 0, 0]	n/a	FR1	0	R1331T
3769.838	1.631	3770735	WORD	n/a	wordpools/wordpool_long_SP.txt	TRAPO	3	2	[0, 0, 0]	n/a	FR1	0	R1331T
3771.469	0.757	3772366	WORD_OFF	n/a	n/a	TRAPO	3	2	[0, 0, 0]	n/a	FR1	0	R1331T
3772.226	1.627	3773123	WORD	n/a	wordpools/wordpool_long_SP.txt	FRUTA	4	2	[0, 0, 0]	n/a	FR1	0	R1331T
3773.853	0.874	3774750	WORD_OFF	n/a	n/a	FRUTA	4	2	[0, 0, 0]	n/a	FR1	0	R1331T
3774.727	1.626	3775624	WORD	n/a	wordpools/wordpool_long_SP.txt	CORREO	5	2	[0, 0, 0]	n/a	FR1	0	R1331T
3776.353	1.05	3777249	WORD_OFF	n/a	n/a	CORREO	5	2	[0, 0, 0]	n/a	FR1	0	R1331T
3777.403	1.618	3778299	WORD	n/a	wordpools/wordpool_long_SP.txt	RED	6	2	[0, 0, 0]	n/a	FR1	0	R1331T
3779.021	0.995	3779917	WORD_OFF	n/a	n/a	RED	6	2	[0, 0, 0]	n/a	FR1	0	R1331T
3780.016	1.638	3780912	WORD	n/a	wordpools/wordpool_long_SP.txt	ZORRO	7	2	[0, 0, 0]	n/a	FR1	0	R1331T
3781.654	0.993	3782550	WORD_OFF	n/a	n/a	ZORRO	7	2	[0, 0, 0]	n/a	FR1	0	R1331T
3782.647	1.624	3783543	WORD	n/a	wordpools/wordpool_long_SP.txt	CUERNO	8	2	[0, 0, 0]	n/a	FR1	0	R1331T
3784.271	1.147	3785167	WORD_OFF	n/a	n/a	CUERNO	8	2	[0, 0, 0]	n/a	FR1	0	R1331T
3785.418	1.621	3786314	WORD	n/a	wordpools/wordpool_long_SP.txt	MANGA	9	2	[0, 0, 0]	n/a	FR1	0	R1331T
3787.039	0.795	3787935	WORD_OFF	n/a	n/a	MANGA	9	2	[0, 0, 0]	n/a	FR1	0	R1331T
3787.834	1.621	3788730	WORD	n/a	wordpools/wordpool_long_SP.txt	LUNA	10	2	[0, 0, 0]	n/a	FR1	0	R1331T
3789.455	0.898	3790351	WORD_OFF	n/a	n/a	LUNA	10	2	[0, 0, 0]	n/a	FR1	0	R1331T
3790.353	1.637	3791249	WORD	n/a	wordpools/wordpool_long_SP.txt	BANDA	11	2	[0, 0, 0]	n/a	FR1	0	R1331T
3791.99	0.912	3792886	WORD_OFF	n/a	n/a	BANDA	11	2	[0, 0, 0]	n/a	FR1	0	R1331T
3792.902	1.621	3793798	WORD	n/a	wordpools/wordpool_long_SP.txt	TARTA	12	2	[0, 0, 0]	n/a	FR1	0	R1331T
3794.523	0.0	3795419	WORD_OFF	n/a	n/a	TARTA	12	2	[0, 0, 0]	n/a	FR1	0	R1331T
3794.523	0.0	3795419	ENCODING_END	n/a	n/a	n/a	-999	2	[0, 0, 0]	n/a	FR1	0	R1331T
3794.523	0.0	3795419	DISTRACT_START	n/a	n/a	n/a	-999	2	[0, 0, 0]	n/a	FR1	0	R1331T
3794.523	0.016	3795419	START	n/a	n/a	n/a	-999	18	[-999, -999, -999]	n/a	FR1	0	R1331T
3794.539	10.019	3795435	PROB	10.019	n/a	n/a	-999	18	[6, 9, 5]	20	FR1	0	R1331T
3804.558	7.084	3805453	PROB	7.084	n/a	n/a	-999	18	[3, 9, 2]	14	FR1	0	R1331T
3811.642	5.79	3812537	PROB	5.79	n/a	n/a	-999	18	[6, 3, 4]	13	FR1	0	R1331T
3817.432	0.011	3818327	STOP	n/a	n/a	n/a	-999	18	[-999, -999, -999]	n/a	FR1	0	R1331T
3817.443	0.639	3818338	DISTRACT_END	n/a	n/a	n/a	-999	2	[0, 0, 0]	n/a	FR1	0	R1331T
3818.082	1.595	3818977	RETRIEVAL_ORIENT_START	n/a	n/a	n/a	-999	2	[0, 0, 0]	n/a	FR1	0	R1331T
3819.677	0.0	3820572	RETRIEVAL_ORIENT_END	n/a	n/a	n/a	-999	2	[0, 0, 0]	n/a	FR1	0	R1331T
3819.677	3.615	3820572	REC_START	n/a	n/a	n/a	-999	2	[0, 0, 0]	n/a	FR1	0	R1331T
3823.292	1.4	3824186	REC_WORD_VV	1.4	n/a	<>	-999	2	[0, 0, 0]	n/a	FR1	0	R1331T
3824.692	1.311	3825586	REC_WORD	1.311	n/a	CORREO	5	2	[0, 0, 0]	n/a	FR1	0	R1331T
3826.003	1.172	3826897	REC_WORD	1.172	n/a	MANGA	9	2	[0, 0, 0]	n/a	FR1	0	R1331T
3827.175	1.407	3828069	REC_WORD	1.407	n/a	LUNA	10	2	[0, 0, 0]	n/a	FR1	0	R1331T
3828.582	2.159	3829476	REC_WORD	2.159	n/a	ALGODON	-999	2	[0, 0, 0]	n/a	FR1	0	R1331T
3830.741	1.711	3831635	REC_WORD	1.711	n/a	BEBE	-999	2	[0, 0, 0]	n/a	FR1	0	R1331T
3832.452	2.243	3833346	REC_WORD	2.243	n/a	SONRISA	-999	2	[0, 0, 0]	n/a	FR1	0	R1331T
3834.695	4.093	3835589	REC_WORD	4.093	n/a	UNA	-999	2	[0, 0, 0]	n/a	FR1	0	R1331T
3838.788	0.895	3839682	REC_WORD_VV	0.895	n/a	<>	-999	2	[0, 0, 0]	n/a	FR1	0	R1331T
3839.683	5.009	3840577	REC_WORD	5.009	n/a	CALCETA	-999	2	[0, 0, 0]	n/a	FR1	0	R1331T
3844.692	1.249	3845586	REC_WORD_VV	1.249	n/a	<>	-999	2	[0, 0, 0]	n/a	FR1	0	R1331T
3845.941	3.749	3846834	REC_WORD	3.749	n/a	MEDIA	2	2	[0, 0, 0]	n/a	FR1	0	R1331T
3849.69	0.0	3850583	REC_END	n/a	n/a	n/a	-999	2	[0, 0, 0]	n/a	FR1	0	R1331T
3849.69	0.016	3850583	TRIAL_END	n/a	n/a	n/a	-999	2	[0, 0, 0]	n/a	FR1	0	R1331T
3849.706	0.0	3850599	TRIAL_START	n/a	n/a	n/a	-999	3	[0, 0, 0]	n/a	FR1	0	R1331T
3849.706	0.0	3850599	TRIAL	n/a	n/a	n/a	-999	3	[0, 0, 0]	n/a	FR1	0	R1331T
3849.706	2.661	3850599	WAITING_START	n/a	n/a	n/a	-999	3	[0, 0, 0]	n/a	FR1	0	R1331T
3852.367	0.0	3853260	WAITING_END	n/a	n/a	n/a	-999	3	[0, 0, 0]	n/a	FR1	0	R1331T
3852.367	10.428	3853260	COUNTDOWN_START	n/a	n/a	n/a	-999	3	[0, 0, 0]	n/a	FR1	0	R1331T
3862.795	0.001	3863688	COUNTDOWN_END	n/a	n/a	n/a	-999	3	[0, 0, 0]	n/a	FR1	0	R1331T
3862.796	1.224	3863689	ORIENT_START	n/a	n/a	n/a	-999	3	[0, 0, 0]	n/a	FR1	0	R1331T
3864.02	0.0	3864913	ORIENT_END	n/a	n/a	n/a	-999	3	[0, 0, 0]	n/a	FR1	0	R1331T
3864.02	1.035	3864913	ENCODING_START	n/a	n/a	n/a	-999	3	[0, 0, 0]	n/a	FR1	0	R1331T
3865.055	1.631	3865948	WORD	n/a	wordpools/wordpool_long_SP.txt	CANDADO	1	3	[0, 0, 0]	n/a	FR1	0	R1331T
3866.686	0.794	3867579	WORD_OFF	n/a	n/a	CANDADO	1	3	[0, 0, 0]	n/a	FR1	0	R1331T
3867.48	1.624	3868373	WORD	n/a	wordpools/wordpool_long_SP.txt	JUEZ	2	3	[0, 0, 0]	n/a	FR1	0	R1331T
3869.104	0.825	3869997	WORD_OFF	n/a	n/a	JUEZ	2	3	[0, 0, 0]	n/a	FR1	0	R1331T
3869.929	1.624	3870821	WORD	n/a	wordpools/wordpool_long_SP.txt	ROBLE	3	3	[0, 0, 0]	n/a	FR1	0	R1331T
3871.553	0.767	3872445	WORD_OFF	n/a	n/a	ROBLE	3	3	[0, 0, 0]	n/a	FR1	0	R1331T
3872.32	1.635	3873212	WORD	n/a	wordpools/wordpool_long_SP.txt	LLAMA	4	3	[0, 0, 0]	n/a	FR1	0	R1331T
3873.955	0.762	3874847	WORD_OFF	n/a	n/a	LLAMA	4	3	[0, 0, 0]	n/a	FR1	0	R1331T
3874.717	1.637	3875609	WORD	n/a	wordpools/wordpool_long_SP.txt	PASTA	5	3	[0, 0, 0]	n/a	FR1	0	R1331T
3876.354	1.091	3877246	WORD_OFF	n/a	n/a	PASTA	5	3	[0, 0, 0]	n/a	FR1	0	R1331T
3877.445	1.627	3878337	WORD	n/a	wordpools/wordpool_long_SP.txt	HIELO	6	3	[0, 0, 0]	n/a	FR1	0	R1331T
3879.072	0.827	3879964	WORD_OFF	n/a	n/a	HIELO	6	3	[0, 0, 0]	n/a	FR1	0	R1331T
3879.899	1.623	3880791	WORD	n/a	wordpools/wordpool_long_SP.txt	JAULA	7	3	[0, 0, 0]	n/a	FR1	0	R1331T
3881.522	0.833	3882414	WORD_OFF	n/a	n/a	JAULA	7	3	[0, 0, 0]	n/a	FR1	0	R1331T
3882.355	1.618	3883247	WORD	n/a	wordpools/wordpool_long_SP.txt	AUTO	8	3	[0, 0, 0]	n/a	FR1	0	R1331T
3883.973	0.802	3884865	WORD_OFF	n/a	n/a	AUTO	8	3	[0, 0, 0]	n/a	FR1	0	R1331T
3884.775	1.631	3885667	WORD	n/a	wordpools/wordpool_long_SP.txt	FUERTE	9	3	[0, 0, 0]	n/a	FR1	0	R1331T
3886.406	1.06	3887298	WORD_OFF	n/a	n/a	FUERTE	9	3	[0, 0, 0]	n/a	FR1	0	R1331T
3887.466	1.625	3888358	WORD	n/a	wordpools/wordpool_long_SP.txt	TIENDA	10	3	[0, 0, 0]	n/a	FR1	0	R1331T
3889.091	1.035	3889983	WORD_OFF	n/a	n/a	TIENDA	10	3	[0, 0, 0]	n/a	FR1	0	R1331T
3890.126	1.631	3891018	WORD	n/a	wordpools/wordpool_long_SP.txt	HUMO	11	3	[0, 0, 0]	n/a	FR1	0	R1331T
3891.757	0.857	3892649	WORD_OFF	n/a	n/a	HUMO	11	3	[0, 0, 0]	n/a	FR1	0	R1331T
3892.614	1.627	3893506	WORD	n/a	wordpools/wordpool_long_SP.txt	CORONA	12	3	[0, 0, 0]	n/a	FR1	0	R1331T
3894.241	0.0	3895132	ENCODING_END	n/a	n/a	n/a	-999	3	[0, 0, 0]	n/a	FR1	0	R1331T
3894.241	0.0	3895132	DISTRACT_START	n/a	n/a	n/a	-999	3	[0, 0, 0]	n/a	FR1	0	R1331T
3894.241	0.001	3895132	WORD_OFF	n/a	n/a	CORONA	12	3	[0, 0, 0]	n/a	FR1	0	R1331T
3894.242	0.015	3895133	START	n/a	n/a	n/a	-999	19	[-999, -999, -999]	n/a	FR1	0	R1331T
3894.257	9.586	3895148	PROB	9.586	n/a	n/a	-999	19	[2, 6, 5]	13	FR1	0	R1331T
3903.843	5.018	3904734	PROB	5.018	n/a	n/a	-999	19	[8, 8, 2]	18	FR1	0	R1331T
3908.861	7.191	3909752	PROB	7.191	n/a	n/a	-999	19	[9, 3, 5]	17	FR1	0	R1331T
3916.052	0.01	3916943	STOP	n/a	n/a	n/a	-999	19	[-999, -999, -999]	n/a	FR1	0	R1331T
3916.062	0.606	3916953	DISTRACT_END	n/a	n/a	n/a	-999	3	[0, 0, 0]	n/a	FR1	0	R1331T
3916.668	1.71	3917558	RETRIEVAL_ORIENT_START	n/a	n/a	n/a	-999	3	[0, 0, 0]	n/a	FR1	0	R1331T
3918.378	0.001	3919268	RETRIEVAL_ORIENT_END	n/a	n/a	n/a	-999	3	[0, 0, 0]	n/a	FR1	0	R1331T
3918.379	4.499	3919269	REC_START	n/a	n/a	n/a	-999	3	[0, 0, 0]	n/a	FR1	0	R1331T
3922.878	6.808	3923768	REC_WORD_VV	6.808	n/a	<>	-999	3	[0, 0, 0]	n/a	FR1	0	R1331T
3929.686	1.0	3930576	REC_WORD	1.0	n/a	JUEZ	2	3	[0, 0, 0]	n/a	FR1	0	R1331T
3930.686	2.37	3931576	REC_WORD_VV	2.37	n/a	<>	-999	3	[0, 0, 0]	n/a	FR1	0	R1331T
3933.056	1.0	3933946	REC_WORD	1.0	n/a	TARRO	-999	3	[0, 0, 0]	n/a	FR1	0	R1331T
3934.056	1.493	3934946	REC_WORD_VV	1.493	n/a	<>	-999	3	[0, 0, 0]	n/a	FR1	0	R1331T
3935.549	1.0	3936439	REC_WORD	1.0	n/a	PINTURA	-999	3	[0, 0, 0]	n/a	FR1	0	R1331T
3936.549	2.637	3937439	REC_WORD_VV	2.637	n/a	<>	-999	3	[0, 0, 0]	n/a	FR1	0	R1331T
3939.186	1.0	3940076	REC_WORD	1.0	n/a	MESA	-999	3	[0, 0, 0]	n/a	FR1	0	R1331T
3940.186	2.941	3941075	REC_WORD_VV	2.941	n/a	<>	-999	3	[0, 0, 0]	n/a	FR1	0	R1331T
3943.127	1.0	3944016	REC_WORD_VV	1.0	n/a	<>	-999	3	[0, 0, 0]	n/a	FR1	0	R1331T
3944.127	1.836	3945016	REC_WORD_VV	1.836	n/a	<>	-999	3	[0, 0, 0]	n/a	FR1	0	R1331T
3945.963	0.874	3946852	REC_WORD	0.874	n/a	CORDERO	-999	3	[0, 0, 0]	n/a	FR1	0	R1331T
3946.837	1.552	3947726	REC_WORD	1.552	n/a	LLAMA	4	3	[0, 0, 0]	n/a	FR1	0	R1331T
3948.389	0.0	3949278	TRIAL_END	n/a	n/a	n/a	-999	3	[0, 0, 0]	n/a	FR1	0	R1331T
3948.389	0.015	3949278	REC_END	n/a	n/a	n/a	-999	3	[0, 0, 0]	n/a	FR1	0	R1331T
3948.404	0.0	3949293	TRIAL_START	n/a	n/a	n/a	-999	4	[0, 0, 0]	n/a	FR1	0	R1331T
3948.404	0.0	3949293	TRIAL	n/a	n/a	n/a	-999	4	[0, 0, 0]	n/a	FR1	0	R1331T
3948.404	4.147	3949293	WAITING_START	n/a	n/a	n/a	-999	4	[0, 0, 0]	n/a	FR1	0	R1331T
3952.551	0.001	3953440	WAITING_END	n/a	n/a	n/a	-999	4	[0, 0, 0]	n/a	FR1	0	R1331T
3952.552	10.429	3953441	COUNTDOWN_START	n/a	n/a	n/a	-999	4	[0, 0, 0]	n/a	FR1	0	R1331T
3962.981	0.001	3963870	COUNTDOWN_END	n/a	n/a	n/a	-999	4	[0, 0, 0]	n/a	FR1	0	R1331T
3962.982	1.056	3963871	ORIENT_START	n/a	n/a	n/a	-999	4	[0, 0, 0]	n/a	FR1	0	R1331T
3964.038	0.0	3964926	ORIENT_END	n/a	n/a	n/a	-999	4	[0, 0, 0]	n/a	FR1	0	R1331T
3964.038	0.991	3964926	ENCODING_START	n/a	n/a	n/a	-999	4	[0, 0, 0]	n/a	FR1	0	R1331T
3965.029	1.625	3965917	WORD	n/a	wordpools/wordpool_long_SP.txt	BASURA	1	4	[0, 0, 0]	n/a	FR1	0	R1331T
3966.654	0.832	3967542	WORD_OFF	n/a	n/a	BASURA	1	4	[0, 0, 0]	n/a	FR1	0	R1331T
3967.486	1.636	3968374	WORD	n/a	wordpools/wordpool_long_SP.txt	MEJILLA	2	4	[0, 0, 0]	n/a	FR1	0	R1331T
3969.122	0.93	3970010	WORD_OFF	n/a	n/a	MEJILLA	2	4	[0, 0, 0]	n/a	FR1	0	R1331T
3970.052	1.636	3970940	WORD	n/a	wordpools/wordpool_long_SP.txt	DIENTES	3	4	[0, 0, 0]	n/a	FR1	0	R1331T
3971.688	0.904	3972576	WORD_OFF	n/a	n/a	DIENTES	3	4	[0, 0, 0]	n/a	FR1	0	R1331T
3972.592	1.63	3973480	WORD	n/a	wordpools/wordpool_long_SP.txt	FRIJOL	4	4	[0, 0, 0]	n/a	FR1	0	R1331T
3974.222	0.912	3975110	WORD_OFF	n/a	n/a	FRIJOL	4	4	[0, 0, 0]	n/a	FR1	0	R1331T
3975.134	1.622	3976022	WORD	n/a	wordpools/wordpool_long_SP.txt	CESPED	5	4	[0, 0, 0]	n/a	FR1	0	R1331T
3976.756	1.033	3977644	WORD_OFF	n/a	n/a	CESPED	5	4	[0, 0, 0]	n/a	FR1	0	R1331T
3977.789	1.634	3978677	WORD	n/a	wordpools/wordpool_long_SP.txt	LABERINTO	6	4	[0, 0, 0]	n/a	FR1	0	R1331T
3979.423	0.951	3980311	WORD_OFF	n/a	n/a	LABERINTO	6	4	[0, 0, 0]	n/a	FR1	0	R1331T
3980.374	1.617	3981262	WORD	n/a	wordpools/wordpool_long_SP.txt	OSO	7	4	[0, 0, 0]	n/a	FR1	0	R1331T
3981.991	0.991	3982879	WORD_OFF	n/a	n/a	OSO	7	4	[0, 0, 0]	n/a	FR1	0	R1331T
3982.982	1.625	3983870	WORD	n/a	wordpools/wordpool_long_SP.txt	COPA	8	4	[0, 0, 0]	n/a	FR1	0	R1331T
3984.607	1.112	3985495	WORD_OFF	n/a	n/a	COPA	8	4	[0, 0, 0]	n/a	FR1	0	R1331T
3985.719	1.639	3986607	WORD	n/a	wordpools/wordpool_long_SP.txt	MURCIELAGO	9	4	[0, 0, 0]	n/a	FR1	0	R1331T
3987.358	0.877	3988245	WORD_OFF	n/a	n/a	MURCIELAGO	9	4	[0, 0, 0]	n/a	FR1	0	R1331T
3988.235	1.624	3989122	WORD	n/a	wordpools/wordpool_long_SP.txt	PAPALOTE	10	4	[0, 0, 0]	n/a	FR1	0	R1331T
3989.859	0.89	3990746	WORD_OFF	n/a	n/a	PAPALOTE	10	4	[0, 0, 0]	n/a	FR1	0	R1331T
3990.749	1.626	3991636	WORD	n/a	wordpools/wordpool_long_SP.txt	PARQUE	11	4	[0, 0, 0]	n/a	FR1	0	R1331T
3992.375	0.884	3993262	WORD_OFF	n/a	n/a	PARQUE	11	4	[0, 0, 0]	n/a	FR1	0	R1331T
3993.259	1.634	3994146	WORD	n/a	wordpools/wordpool_long_SP.txt	ESQUI	12	4	[0, 0, 0]	n/a	FR1	0	R1331T
3994.893	0.001	3995780	WORD_OFF	n/a	n/a	ESQUI	12	4	[0, 0, 0]	n/a	FR1	0	R1331T
3994.894	0.0	3995781	ENCODING_END	n/a	n/a	n/a	-999	4	[0, 0, 0]	n/a	FR1	0	R1331T
3994.894	0.0	3995781	DISTRACT_START	n/a	n/a	n/a	-999	4	[0, 0, 0]	n/a	FR1	0	R1331T
3994.894	0.016	3995781	START	n/a	n/a	n/a	-999	20	[-999, -999, -999]	n/a	FR1	0	R1331T
3994.91	5.867	3995797	PROB	5.867	n/a	n/a	-999	20	[4, 4, 2]	10	FR1	0	R1331T
4000.777	5.101	4001664	PROB	5.101	n/a	n/a	-999	20	[1, 5, 4]	11	FR1	0	R1331T
4005.878	8.618	4006765	PROB	8.618	n/a	n/a	-999	20	[9, 5, 6]	20	FR1	0	R1331T
4014.496	9.089	4015382	PROB	9.089	n/a	n/a	-999	20	[1, 8, 7]	16	FR1	0	R1331T
4023.585	0.013	4024471	STOP	n/a	n/a	n/a	-999	20	[-999, -999, -999]	n/a	FR1	0	R1331T
4023.598	0.523	4024484	DISTRACT_END	n/a	n/a	n/a	-999	4	[0, 0, 0]	n/a	FR1	0	R1331T
4024.121	1.694	4025007	RETRIEVAL_ORIENT_START	n/a	n/a	n/a	-999	4	[0, 0, 0]	n/a	FR1	0	R1331T
