onset	duration	sample	trial_type	response_time	stim_file	item_name	serialpos	list	test	answer	experiment	session	subject
0.0	860.789	-1	SESS_START	n/a	n/a	n/a	-999	-999	[0, 0, 0]	n/a	FR1	1	R1221P
860.789	30.064	205831	SESS_START	n/a	n/a	n/a	-999	-999	[0, 0, 0]	n/a	FR1	1	R1221P
890.853	10.428	221224	COUNTDOWN_START	n/a	n/a	n/a	-999	-999	[0, 0, 0]	n/a	FR1	1	R1221P
901.281	3.624	226563	COUNTDOWN_END	n/a	n/a	n/a	-999	-999	[0, 0, 0]	n/a	FR1	1	R1221P
904.905	2.418	228418	PRACTICE_WORD	n/a	n/a	CHEST	1	-1	[0, 0, 0]	n/a	FR1	1	R1221P
907.323	2.45	229656	PRACTICE_WORD	n/a	n/a	WAGON	2	-1	[0, 0, 0]	n/a	FR1	1	R1221P
909.773	2.467	230910	PRACTICE_WORD	n/a	n/a	RHINO	3	-1	[0, 0, 0]	n/a	FR1	1	R1221P
912.24	2.467	232173	PRACTICE_WORD	n/a	n/a	WATCH	4	-1	[0, 0, 0]	n/a	FR1	1	R1221P
914.707	2.567	233436	PRACTICE_WORD	n/a	n/a	IRON	5	-1	[0, 0, 0]	n/a	FR1	1	R1221P
917.274	2.534	234751	PRACTICE_WORD	n/a	n/a	FLOOD	6	-1	[0, 0, 0]	n/a	FR1	1	R1221P
919.808	2.434	236048	PRACTICE_WORD	n/a	n/a	CAMEL	7	-1	[0, 0, 0]	n/a	FR1	1	R1221P
922.242	2.416	237294	PRACTICE_WORD	n/a	n/a	TONGUE	8	-1	[0, 0, 0]	n/a	FR1	1	R1221P
924.658	2.418	238531	PRACTICE_WORD	n/a	n/a	BEAM	9	-1	[0, 0, 0]	n/a	FR1	1	R1221P
927.076	2.617	239769	PRACTICE_WORD	n/a	n/a	COTTON	10	-1	[0, 0, 0]	n/a	FR1	1	R1221P
929.693	2.551	241109	PRACTICE_WORD	n/a	n/a	ATTIC	11	-1	[0, 0, 0]	n/a	FR1	1	R1221P
932.244	1.617	242415	PRACTICE_WORD	n/a	n/a	RING	12	-1	[0, 0, 0]	n/a	FR1	1	R1221P
933.861	0.0	243243	PRACTICE_DISTRACT_START	n/a	n/a	n/a	-999	-1	[0, 0, 0]	n/a	FR1	1	R1221P
933.861	0.017	243243	START	n/a	n/a	n/a	-999	-1	[-999, -999, -999]	n/a	FR1	1	R1221P
933.878	5.984	243252	PROB	5.984	n/a	n/a	-999	-1	[6, 1, 7]	14	FR1	1	R1221P
939.862	5.7	246315	PROB	5.7	n/a	n/a	-999	-1	[1, 5, 6]	12	FR1	1	R1221P
945.562	4.369	249234	PROB	4.369	n/a	n/a	-999	-1	[8, 2, 9]	19	FR1	1	R1221P
949.931	7.195	251471	PROB	7.195	n/a	n/a	-999	-1	[5, 3, 9]	18	FR1	1	R1221P
957.126	0.006	255154	STOP	n/a	n/a	n/a	-999	-1	[-999, -999, -999]	n/a	FR1	1	R1221P
957.132	0.518	255157	PRACTICE_DISTRACT_END	n/a	n/a	n/a	-999	-1	[0, 0, 0]	n/a	FR1	1	R1221P
957.65	30.516	255423	PRACTICE_REC_START	n/a	n/a	n/a	-999	-1	[0, 0, 0]	n/a	FR1	1	R1221P
988.166	129.913	271046	PRACTICE_REC_END	n/a	n/a	n/a	-999	-1	[0, 0, 0]	n/a	FR1	1	R1221P
1118.079	0.0	337560	TRIAL	n/a	n/a	n/a	-999	1	[0, 0, 0]	n/a	FR1	1	R1221P
1118.079	10.428	337560	COUNTDOWN_START	n/a	n/a	n/a	-999	1	[0, 0, 0]	n/a	FR1	1	R1221P
1128.507	0.006	342899	COUNTDOWN_END	n/a	n/a	n/a	-999	1	[0, 0, 0]	n/a	FR1	1	R1221P
1128.513	2.535	342902	ORIENT	n/a	n/a	n/a	-999	1	[0, 0, 0]	n/a	FR1	1	R1221P
1131.048	2.483	344199	WORD	n/a	wordpools/wordpool_EN.txt	SMILE	1	1	[0, 0, 0]	n/a	FR1	1	R1221P
1133.531	2.551	345471	WORD	n/a	wordpools/wordpool_EN.txt	FAN	2	1	[0, 0, 0]	n/a	FR1	1	R1221P
1136.082	2.566	346777	WORD	n/a	wordpools/wordpool_EN.txt	CART	3	1	[0, 0, 0]	n/a	FR1	1	R1221P
1138.648	2.552	348091	WORD	n/a	wordpools/wordpool_EN.txt	SEAT	4	1	[0, 0, 0]	n/a	FR1	1	R1221P
1141.2	2.484	349397	WORD	n/a	wordpools/wordpool_EN.txt	BOX	5	1	[0, 0, 0]	n/a	FR1	1	R1221P
1143.684	2.6	350669	WORD	n/a	wordpools/wordpool_EN.txt	GLOVE	6	1	[0, 0, 0]	n/a	FR1	1	R1221P
1146.284	2.401	352000	WORD	n/a	wordpools/wordpool_EN.txt	WAND	7	1	[0, 0, 0]	n/a	FR1	1	R1221P
1148.685	2.517	353229	WORD	n/a	wordpools/wordpool_EN.txt	ARM	8	1	[0, 0, 0]	n/a	FR1	1	R1221P
1151.202	2.433	354518	WORD	n/a	wordpools/wordpool_EN.txt	BAG	9	1	[0, 0, 0]	n/a	FR1	1	R1221P
1153.635	2.551	355764	WORD	n/a	wordpools/wordpool_EN.txt	BROOM	10	1	[0, 0, 0]	n/a	FR1	1	R1221P
1156.186	2.433	357070	WORD	n/a	wordpools/wordpool_EN.txt	FENCE	11	1	[0, 0, 0]	n/a	FR1	1	R1221P
1158.619	1.601	358315	WORD	n/a	wordpools/wordpool_EN.txt	SIGN	12	1	[0, 0, 0]	n/a	FR1	1	R1221P
1160.22	0.001	359135	DISTRACT_START	n/a	n/a	n/a	-999	1	[0, 0, 0]	n/a	FR1	1	R1221P
1160.221	0.016	359136	START	n/a	n/a	n/a	-999	1	[-999, -999, -999]	n/a	FR1	1	R1221P
1160.237	5.884	359144	PROB	5.884	n/a	n/a	-999	1	[5, 2, 4]	11	FR1	1	R1221P
1166.121	5.018	362156	PROB	5.018	n/a	n/a	-999	1	[6, 5, 5]	16	FR1	1	R1221P
1171.139	3.684	364725	PROB	3.684	n/a	n/a	-999	1	[8, 7, 5]	20	FR1	1	R1221P
1174.823	3.616	366612	PROB	3.616	n/a	n/a	-999	1	[3, 7, 7]	17	FR1	1	R1221P
1178.439	3.328	368463	PROB	3.328	n/a	n/a	-999	1	[5, 7, 3]	15	FR1	1	R1221P
1181.767	0.007	370167	STOP	n/a	n/a	n/a	-999	1	[-999, -999, -999]	n/a	FR1	1	R1221P
1181.774	1.155	370170	DISTRACT_END	n/a	n/a	n/a	-999	1	[0, 0, 0]	n/a	FR1	1	R1221P
1182.929	0.552	370762	REC_START	n/a	n/a	n/a	-999	1	[0, 0, 0]	n/a	FR1	1	R1221P
1183.481	1.22	371044	REC_WORD	1.22	n/a	SMILE	1	1	[0, 0, 0]	n/a	FR1	1	R1221P
1184.701	1.032	371669	REC_WORD	1.032	n/a	FAN	2	1	[0, 0, 0]	n/a	FR1	1	R1221P
1185.733	1.066	372197	REC_WORD	1.066	n/a	SEAT	4	1	[0, 0, 0]	n/a	FR1	1	R1221P
1186.799	0.994	372743	REC_WORD	0.994	n/a	CAR	-999	1	[0, 0, 0]	n/a	FR1	1	R1221P
1187.793	1.392	373252	REC_WORD	1.392	n/a	BOX	5	1	[0, 0, 0]	n/a	FR1	1	R1221P
1189.185	23.751	373965	REC_WORD	23.751	n/a	CEILING	-999	1	[0, 0, 0]	n/a	FR1	1	R1221P
1212.936	3.594	386125	REC_END	n/a	n/a	n/a	-999	1	[0, 0, 0]	n/a	FR1	1	R1221P
1216.53	0.0	387965	TRIAL	n/a	n/a	n/a	-999	2	[0, 0, 0]	n/a	FR1	1	R1221P
1216.53	10.428	387965	COUNTDOWN_START	n/a	n/a	n/a	-999	2	[0, 0, 0]	n/a	FR1	1	R1221P
1226.958	0.008	393304	COUNTDOWN_END	n/a	n/a	n/a	-999	2	[0, 0, 0]	n/a	FR1	1	R1221P
1226.966	2.616	393308	ORIENT	n/a	n/a	n/a	-999	2	[0, 0, 0]	n/a	FR1	1	R1221P
1229.582	2.552	394647	WORD	n/a	wordpools/wordpool_EN.txt	NOSE	1	2	[0, 0, 0]	n/a	FR1	1	R1221P
1232.134	2.567	395954	WORD	n/a	wordpools/wordpool_EN.txt	RAKE	2	2	[0, 0, 0]	n/a	FR1	1	R1221P
1234.701	2.534	397268	WORD	n/a	wordpools/wordpool_EN.txt	FOX	3	2	[0, 0, 0]	n/a	FR1	1	R1221P
1237.235	2.467	398565	WORD	n/a	wordpools/wordpool_EN.txt	ZOO	4	2	[0, 0, 0]	n/a	FR1	1	R1221P
1239.702	2.384	399828	WORD	n/a	wordpools/wordpool_EN.txt	SNAKE	5	2	[0, 0, 0]	n/a	FR1	1	R1221P
1242.086	2.399	401049	WORD	n/a	wordpools/wordpool_EN.txt	FLEA	6	2	[0, 0, 0]	n/a	FR1	1	R1221P
1244.485	2.451	402277	WORD	n/a	wordpools/wordpool_EN.txt	HOUSE	7	2	[0, 0, 0]	n/a	FR1	1	R1221P
1246.936	2.567	403532	WORD	n/a	wordpools/wordpool_EN.txt	DUCK	8	2	[0, 0, 0]	n/a	FR1	1	R1221P
1249.503	2.585	404846	WORD	n/a	wordpools/wordpool_EN.txt	PALM	9	2	[0, 0, 0]	n/a	FR1	1	R1221P
1252.088	2.499	406170	WORD	n/a	wordpools/wordpool_EN.txt	CAKE	10	2	[0, 0, 0]	n/a	FR1	1	R1221P
1254.587	2.601	407449	WORD	n/a	wordpools/wordpool_EN.txt	BLUSH	11	2	[0, 0, 0]	n/a	FR1	1	R1221P
1257.188	1.617	408781	WORD	n/a	wordpools/wordpool_EN.txt	BIRD	12	2	[0, 0, 0]	n/a	FR1	1	R1221P
1258.805	0.001	409609	DISTRACT_START	n/a	n/a	n/a	-999	2	[0, 0, 0]	n/a	FR1	1	R1221P
1258.806	0.016	409609	START	n/a	n/a	n/a	-999	2	[-999, -999, -999]	n/a	FR1	1	R1221P
1258.822	7.301	409618	PROB	7.301	n/a	n/a	-999	2	[2, 7, 9]	18	FR1	1	R1221P
1266.123	4.151	413356	PROB	4.151	n/a	n/a	-999	2	[8, 1, 9]	18	FR1	1	R1221P
1270.274	3.183	415481	PROB	3.183	n/a	n/a	-999	2	[2, 8, 4]	14	FR1	1	R1221P
1273.457	3.585	417110	PROB	3.585	n/a	n/a	-999	2	[3, 9, 2]	14	FR1	1	R1221P
1277.042	2.427	418946	PROB	2.427	n/a	n/a	-999	2	[3, 1, 1]	5	FR1	1	R1221P
1279.469	0.006	420189	STOP	n/a	n/a	n/a	-999	2	[-999, -999, -999]	n/a	FR1	1	R1221P
1279.475	1.218	420192	DISTRACT_END	n/a	n/a	n/a	-999	2	[0, 0, 0]	n/a	FR1	1	R1221P
1280.693	0.77	420815	REC_START	n/a	n/a	n/a	-999	2	[0, 0, 0]	n/a	FR1	1	R1221P
1281.463	1.009	421209	REC_WORD	1.009	n/a	NOSE	1	2	[0, 0, 0]	n/a	FR1	1	R1221P
1282.472	0.893	421726	REC_WORD	0.893	n/a	BREAK	-999	2	[0, 0, 0]	n/a	FR1	1	R1221P
1283.365	6.433	422183	REC_WORD	6.433	n/a	FOX	3	2	[0, 0, 0]	n/a	FR1	1	R1221P
1289.798	20.909	425477	REC_WORD	20.909	n/a	HOUSE	7	2	[0, 0, 0]	n/a	FR1	1	R1221P
1310.707	3.059	436182	REC_END	n/a	n/a	n/a	-999	2	[0, 0, 0]	n/a	FR1	1	R1221P
1313.766	0.0	437748	TRIAL	n/a	n/a	n/a	-999	3	[0, 0, 0]	n/a	FR1	1	R1221P
1313.766	10.428	437748	COUNTDOWN_START	n/a	n/a	n/a	-999	3	[0, 0, 0]	n/a	FR1	1	R1221P
1324.194	0.007	443087	COUNTDOWN_END	n/a	n/a	n/a	-999	3	[0, 0, 0]	n/a	FR1	1	R1221P
1324.201	2.567	443091	ORIENT	n/a	n/a	n/a	-999	3	[0, 0, 0]	n/a	FR1	1	R1221P
1326.768	2.534	444405	WORD	n/a	wordpools/wordpool_EN.txt	SUIT	1	3	[0, 0, 0]	n/a	FR1	1	R1221P
1329.302	2.4	445702	WORD	n/a	wordpools/wordpool_EN.txt	SEED	2	3	[0, 0, 0]	n/a	FR1	1	R1221P
1331.702	2.501	446931	WORD	n/a	wordpools/wordpool_EN.txt	MAIL	3	3	[0, 0, 0]	n/a	FR1	1	R1221P
1334.203	2.484	448211	WORD	n/a	wordpools/wordpool_EN.txt	FLOOR	4	3	[0, 0, 0]	n/a	FR1	1	R1221P
1336.687	2.517	449483	WORD	n/a	wordpools/wordpool_EN.txt	VASE	5	3	[0, 0, 0]	n/a	FR1	1	R1221P
1339.204	2.416	450772	WORD	n/a	wordpools/wordpool_EN.txt	DESK	6	3	[0, 0, 0]	n/a	FR1	1	R1221P
1341.62	2.585	452009	WORD	n/a	wordpools/wordpool_EN.txt	CONE	7	3	[0, 0, 0]	n/a	FR1	1	R1221P
1344.205	2.466	453332	WORD	n/a	wordpools/wordpool_EN.txt	ELF	8	3	[0, 0, 0]	n/a	FR1	1	R1221P
1346.671	2.501	454595	WORD	n/a	wordpools/wordpool_EN.txt	SNOW	9	3	[0, 0, 0]	n/a	FR1	1	R1221P
1349.172	2.416	455875	WORD	n/a	wordpools/wordpool_EN.txt	POLE	10	3	[0, 0, 0]	n/a	FR1	1	R1221P
1351.588	2.435	457112	WORD	n/a	wordpools/wordpool_EN.txt	ICE	11	3	[0, 0, 0]	n/a	FR1	1	R1221P
1354.023	1.616	458359	WORD	n/a	wordpools/wordpool_EN.txt	JUICE	12	3	[0, 0, 0]	n/a	FR1	1	R1221P
1355.639	0.001	459186	DISTRACT_START	n/a	n/a	n/a	-999	3	[0, 0, 0]	n/a	FR1	1	R1221P
1355.64	0.016	459187	START	n/a	n/a	n/a	-999	3	[-999, -999, -999]	n/a	FR1	1	R1221P
1355.656	3.801	459195	PROB	3.801	n/a	n/a	-999	3	[8, 8, 5]	21	FR1	1	R1221P
1359.457	3.184	461141	PROB	3.184	n/a	n/a	-999	3	[3, 2, 9]	14	FR1	1	R1221P
1362.641	2.733	462771	PROB	2.733	n/a	n/a	-999	3	[7, 6, 9]	22	FR1	1	R1221P
1365.374	2.935	464170	PROB	2.935	n/a	n/a	-999	3	[7, 8, 9]	24	FR1	1	R1221P
1368.309	3.083	465673	PROB	3.083	n/a	n/a	-999	3	[5, 9, 6]	20	FR1	1	R1221P
1371.392	3.201	467252	PROB	3.201	n/a	n/a	-999	3	[6, 8, 5]	19	FR1	1	R1221P
1374.593	2.949	468890	PROB	2.949	n/a	n/a	-999	3	[4, 3, 8]	15	FR1	1	R1221P
1377.542	0.018	470400	STOP	n/a	n/a	n/a	-999	3	[-999, -999, -999]	n/a	FR1	1	R1221P
1377.56	1.051	470409	DISTRACT_END	n/a	n/a	n/a	-999	3	[0, 0, 0]	n/a	FR1	1	R1221P
1378.611	0.663	470948	REC_START	n/a	n/a	n/a	-999	3	[0, 0, 0]	n/a	FR1	1	R1221P
1379.274	1.055	471287	REC_WORD	1.055	n/a	SOUP	-999	3	[0, 0, 0]	n/a	FR1	1	R1221P
1380.329	1.83	471827	REC_WORD	1.83	n/a	SEAL	-999	3	[0, 0, 0]	n/a	FR1	1	R1221P
1382.159	1.257	472764	REC_WORD	1.257	n/a	MAIL	3	3	[0, 0, 0]	n/a	FR1	1	R1221P
1383.416	3.059	473408	REC_WORD	3.059	n/a	ICE	11	3	[0, 0, 0]	n/a	FR1	1	R1221P
1386.475	2.431	474974	REC_WORD	2.431	n/a	STORE	-999	3	[0, 0, 0]	n/a	FR1	1	R1221P
1388.906	19.715	476218	REC_WORD	19.715	n/a	CEILING	-999	3	[0, 0, 0]	n/a	FR1	1	R1221P
1408.621	2.48	486312	REC_END	n/a	n/a	n/a	-999	3	[0, 0, 0]	n/a	FR1	1	R1221P
1411.101	0.0	487582	TRIAL	n/a	n/a	n/a	-999	4	[0, 0, 0]	n/a	FR1	1	R1221P
1411.101	10.428	487582	COUNTDOWN_START	n/a	n/a	n/a	-999	4	[0, 0, 0]	n/a	FR1	1	R1221P
1421.529	0.006	492921	COUNTDOWN_END	n/a	n/a	n/a	-999	4	[0, 0, 0]	n/a	FR1	1	R1221P
1421.535	2.535	492924	ORIENT	n/a	n/a	n/a	-999	4	[0, 0, 0]	n/a	FR1	1	R1221P
1424.07	2.449	494222	WORD	n/a	wordpools/wordpool_EN.txt	DITCH	1	4	[0, 0, 0]	n/a	FR1	1	R1221P
1426.519	2.485	495476	WORD	n/a	wordpools/wordpool_EN.txt	CHIN	2	4	[0, 0, 0]	n/a	FR1	1	R1221P
1429.004	2.433	496748	WORD	n/a	wordpools/wordpool_EN.txt	BRIDGE	3	4	[0, 0, 0]	n/a	FR1	1	R1221P
1431.437	2.518	497994	WORD	n/a	wordpools/wordpool_EN.txt	TRUCK	4	4	[0, 0, 0]	n/a	FR1	1	R1221P
1433.955	2.616	499283	WORD	n/a	wordpools/wordpool_EN.txt	SMOKE	5	4	[0, 0, 0]	n/a	FR1	1	R1221P
1436.571	2.368	500622	WORD	n/a	wordpools/wordpool_EN.txt	STEAM	6	4	[0, 0, 0]	n/a	FR1	1	R1221P
1438.939	2.6	501834	WORD	n/a	wordpools/wordpool_EN.txt	SLIME	7	4	[0, 0, 0]	n/a	FR1	1	R1221P
1441.539	2.584	503166	WORD	n/a	wordpools/wordpool_EN.txt	SHOE	8	4	[0, 0, 0]	n/a	FR1	1	R1221P
1444.123	2.584	504489	WORD	n/a	wordpools/wordpool_EN.txt	BUSH	9	4	[0, 0, 0]	n/a	FR1	1	R1221P
1446.707	2.517	505812	WORD	n/a	wordpools/wordpool_EN.txt	BARN	10	4	[0, 0, 0]	n/a	FR1	1	R1221P
1449.224	2.383	507100	WORD	n/a	wordpools/wordpool_EN.txt	ROAD	11	4	[0, 0, 0]	n/a	FR1	1	R1221P
1451.607	1.601	508320	WORD	n/a	wordpools/wordpool_EN.txt	FORK	12	4	[0, 0, 0]	n/a	FR1	1	R1221P
1453.208	0.001	509140	DISTRACT_START	n/a	n/a	n/a	-999	4	[0, 0, 0]	n/a	FR1	1	R1221P
1453.209	0.016	509140	START	n/a	n/a	n/a	-999	4	[-999, -999, -999]	n/a	FR1	1	R1221P
1453.225	4.801	509149	PROB	4.801	n/a	n/a	-999	4	[9, 5, 7]	21	FR1	1	R1221P
1458.026	3.851	511607	PROB	3.851	n/a	n/a	-999	4	[7, 5, 4]	16	FR1	1	R1221P
1461.877	2.984	513578	PROB	2.984	n/a	n/a	-999	4	[4, 2, 6]	12	FR1	1	R1221P
1464.861	3.516	515106	PROB	3.516	n/a	n/a	-999	4	[6, 4, 3]	13	FR1	1	R1221P
1468.377	2.885	516906	PROB	2.885	n/a	n/a	-999	4	[2, 7, 1]	10	FR1	1	R1221P
1471.262	3.753	518383	PROB	3.753	n/a	n/a	-999	4	[7, 6, 7]	20	FR1	1	R1221P
1475.015	0.014	520305	STOP	n/a	n/a	n/a	-999	4	[-999, -999, -999]	n/a	FR1	1	R1221P
1475.029	1.118	520312	DISTRACT_END	n/a	n/a	n/a	-999	4	[0, 0, 0]	n/a	FR1	1	R1221P
1476.147	0.825	520884	REC_START	n/a	n/a	n/a	-999	4	[0, 0, 0]	n/a	FR1	1	R1221P
1476.972	1.035	521307	REC_WORD	1.035	n/a	DITCH	1	4	[0, 0, 0]	n/a	FR1	1	R1221P
1478.007	1.081	521837	REC_WORD_VV	1.081	n/a	<>	-999	4	[0, 0, 0]	n/a	FR1	1	R1221P
1479.088	2.207	522390	REC_WORD	2.207	n/a	DITCH	1	4	[0, 0, 0]	n/a	FR1	1	R1221P
1481.295	2.142	523520	REC_WORD	2.142	n/a	TURN	-999	4	[0, 0, 0]	n/a	FR1	1	R1221P
1483.437	22.72	524617	REC_WORD	22.72	n/a	TRUCK	4	4	[0, 0, 0]	n/a	FR1	1	R1221P
1506.157	3.261	536249	REC_END	n/a	n/a	n/a	-999	4	[0, 0, 0]	n/a	FR1	1	R1221P
1509.418	0.0	537919	TRIAL	n/a	n/a	n/a	-999	5	[0, 0, 0]	n/a	FR1	1	R1221P
1509.418	10.428	537919	COUNTDOWN_START	n/a	n/a	n/a	-999	5	[0, 0, 0]	n/a	FR1	1	R1221P
1519.846	0.008	543258	COUNTDOWN_END	n/a	n/a	n/a	-999	5	[0, 0, 0]	n/a	FR1	1	R1221P
1519.854	2.583	543262	ORIENT	n/a	n/a	n/a	-999	5	[0, 0, 0]	n/a	FR1	1	R1221P
1522.437	2.602	544584	WORD	n/a	wordpools/wordpool_EN.txt	SCHOOL	1	5	[0, 0, 0]	n/a	FR1	1	R1221P
1525.039	2.566	545916	WORD	n/a	wordpools/wordpool_EN.txt	DRESS	2	5	[0, 0, 0]	n/a	FR1	1	R1221P
1527.605	2.485	547230	WORD	n/a	wordpools/wordpool_EN.txt	HORN	3	5	[0, 0, 0]	n/a	FR1	1	R1221P
1530.09	2.466	548502	WORD	n/a	wordpools/wordpool_EN.txt	ROOF	4	5	[0, 0, 0]	n/a	FR1	1	R1221P
1532.556	2.485	549765	WORD	n/a	wordpools/wordpool_EN.txt	STREET	5	5	[0, 0, 0]	n/a	FR1	1	R1221P
1535.041	2.465	551037	WORD	n/a	wordpools/wordpool_EN.txt	SLEEVE	6	5	[0, 0, 0]	n/a	FR1	1	R1221P
1537.506	2.502	552299	WORD	n/a	wordpools/wordpool_EN.txt	DART	7	5	[0, 0, 0]	n/a	FR1	1	R1221P
1540.008	2.416	553580	WORD	n/a	wordpools/wordpool_EN.txt	THUMB	8	5	[0, 0, 0]	n/a	FR1	1	R1221P
1542.424	2.602	554817	WORD	n/a	wordpools/wordpool_EN.txt	PEN	9	5	[0, 0, 0]	n/a	FR1	1	R1221P
1545.026	2.383	556149	WORD	n/a	wordpools/wordpool_EN.txt	VEST	10	5	[0, 0, 0]	n/a	FR1	1	R1221P
1547.409	2.468	557369	WORD	n/a	wordpools/wordpool_EN.txt	STICK	11	5	[0, 0, 0]	n/a	FR1	1	R1221P
1549.877	1.616	558633	WORD	n/a	wordpools/wordpool_EN.txt	PURSE	12	5	[0, 0, 0]	n/a	FR1	1	R1221P
1551.493	0.0	559460	DISTRACT_START	n/a	n/a	n/a	-999	5	[0, 0, 0]	n/a	FR1	1	R1221P
1551.493	0.016	559460	START	n/a	n/a	n/a	-999	5	[-999, -999, -999]	n/a	FR1	1	R1221P
1551.509	4.051	559468	PROB	4.051	n/a	n/a	-999	5	[3, 1, 8]	12	FR1	1	R1221P
1555.56	3.668	561542	PROB	3.668	n/a	n/a	-999	5	[7, 5, 2]	14	FR1	1	R1221P
1559.228	3.2	563420	PROB	3.2	n/a	n/a	-999	5	[1, 9, 8]	18	FR1	1	R1221P
1562.428	4.234	565059	PROB	4.234	n/a	n/a	-999	5	[3, 3, 9]	15	FR1	1	R1221P
1566.662	3.668	567227	PROB	3.668	n/a	n/a	-999	5	[4, 3, 6]	13	FR1	1	R1221P
1570.33	3.123	569104	PROB	3.123	n/a	n/a	-999	5	[2, 8, 5]	15	FR1	1	R1221P
1573.453	0.01	570703	STOP	n/a	n/a	n/a	-999	5	[-999, -999, -999]	n/a	FR1	1	R1221P
1573.463	1.068	570709	DISTRACT_END	n/a	n/a	n/a	-999	5	[0, 0, 0]	n/a	FR1	1	R1221P
1574.531	0.614	571255	REC_START	n/a	n/a	n/a	-999	5	[0, 0, 0]	n/a	FR1	1	R1221P
1575.145	0.919	571570	REC_WORD	0.919	n/a	SCHOOL	1	5	[0, 0, 0]	n/a	FR1	1	R1221P
1576.064	1.024	572040	REC_WORD	1.024	n/a	DRESS	2	5	[0, 0, 0]	n/a	FR1	1	R1221P
1577.088	0.929	572564	REC_WORD	0.929	n/a	HORN	3	5	[0, 0, 0]	n/a	FR1	1	R1221P
1578.017	0.931	573040	REC_WORD	0.931	n/a	ROOF	4	5	[0, 0, 0]	n/a	FR1	1	R1221P
1578.948	25.593	573517	REC_WORD	25.593	n/a	POOL	-999	5	[0, 0, 0]	n/a	FR1	1	R1221P
1604.541	1.979	586620	REC_END	n/a	n/a	n/a	-999	5	[0, 0, 0]	n/a	FR1	1	R1221P
1606.52	0.0	587633	TRIAL	n/a	n/a	n/a	-999	6	[0, 0, 0]	n/a	FR1	1	R1221P
1606.52	10.428	587633	COUNTDOWN_START	n/a	n/a	n/a	-999	6	[0, 0, 0]	n/a	FR1	1	R1221P
1616.948	0.008	592972	COUNTDOWN_END	n/a	n/a	n/a	-999	6	[0, 0, 0]	n/a	FR1	1	R1221P
1616.956	2.516	592976	ORIENT	n/a	n/a	n/a	-999	6	[0, 0, 0]	n/a	FR1	1	R1221P
1619.472	2.585	594264	WORD	n/a	wordpools/wordpool_EN.txt	STEM	1	6	[0, 0, 0]	n/a	FR1	1	R1221P
1622.057	2.634	595588	WORD	n/a	wordpools/wordpool_EN.txt	WALL	2	6	[0, 0, 0]	n/a	FR1	1	R1221P
1624.691	2.6	596936	WORD	n/a	wordpools/wordpool_EN.txt	GRASS	3	6	[0, 0, 0]	n/a	FR1	1	R1221P
1627.291	2.55	598268	WORD	n/a	wordpools/wordpool_EN.txt	WEED	4	6	[0, 0, 0]	n/a	FR1	1	R1221P
1629.841	2.617	599573	WORD	n/a	wordpools/wordpool_EN.txt	SPONGE	5	6	[0, 0, 0]	n/a	FR1	1	R1221P
1632.458	2.518	600913	WORD	n/a	wordpools/wordpool_EN.txt	SHELL	6	6	[0, 0, 0]	n/a	FR1	1	R1221P
1634.976	2.483	602202	WORD	n/a	wordpools/wordpool_EN.txt	COIN	7	6	[0, 0, 0]	n/a	FR1	1	R1221P
1637.459	2.401	603473	WORD	n/a	wordpools/wordpool_EN.txt	MAT	8	6	[0, 0, 0]	n/a	FR1	1	R1221P
1639.86	2.467	604703	WORD	n/a	wordpools/wordpool_EN.txt	LEAF	9	6	[0, 0, 0]	n/a	FR1	1	R1221P
1642.327	2.618	605966	WORD	n/a	wordpools/wordpool_EN.txt	ROOT	10	6	[0, 0, 0]	n/a	FR1	1	R1221P
1644.945	2.549	607306	WORD	n/a	wordpools/wordpool_EN.txt	SNAIL	11	6	[0, 0, 0]	n/a	FR1	1	R1221P
1647.494	1.618	608611	WORD	n/a	wordpools/wordpool_EN.txt	WORM	12	6	[0, 0, 0]	n/a	FR1	1	R1221P
1649.112	0.001	609440	DISTRACT_START	n/a	n/a	n/a	-999	6	[0, 0, 0]	n/a	FR1	1	R1221P
1649.113	0.016	609440	START	n/a	n/a	n/a	-999	6	[-999, -999, -999]	n/a	FR1	1	R1221P
1649.129	5.917	609448	PROB	5.917	n/a	n/a	-999	6	[1, 3, 9]	13	FR1	1	R1221P
1655.046	3.55	612478	PROB	3.55	n/a	n/a	-999	6	[2, 6, 3]	11	FR1	1	R1221P
1658.596	2.967	614295	PROB	2.967	n/a	n/a	-999	6	[3, 3, 5]	11	FR1	1	R1221P
1661.563	3.635	615814	PROB	3.635	n/a	n/a	-999	6	[8, 5, 6]	19	FR1	1	R1221P
1665.198	3.601	617675	PROB	3.601	n/a	n/a	-999	6	[8, 4, 6]	18	FR1	1	R1221P
1668.799	3.36	619519	PROB	3.36	n/a	n/a	-999	6	[9, 3, 1]	13	FR1	1	R1221P
1672.159	0.007	621239	STOP	n/a	n/a	n/a	-999	6	[-999, -999, -999]	n/a	FR1	1	R1221P
1672.166	1.151	621243	DISTRACT_END	n/a	n/a	n/a	-999	6	[0, 0, 0]	n/a	FR1	1	R1221P
1673.317	0.8	621832	REC_START	n/a	n/a	n/a	-999	6	[0, 0, 0]	n/a	FR1	1	R1221P
1674.117	1.022	622242	REC_WORD	1.022	n/a	WALL	2	6	[0, 0, 0]	n/a	FR1	1	R1221P
1675.139	0.843	622765	REC_WORD	0.843	n/a	GRASS	3	6	[0, 0, 0]	n/a	FR1	1	R1221P
1675.982	1.304	623197	REC_WORD	1.304	n/a	SEED	-999	6	[0, 0, 0]	n/a	FR1	1	R1221P
1677.286	26.041	623864	REC_WORD	26.041	n/a	BUN	-999	6	[0, 0, 0]	n/a	FR1	1	R1221P
1703.327	2.078	637197	REC_END	n/a	n/a	n/a	-999	6	[0, 0, 0]	n/a	FR1	1	R1221P
1705.405	0.0	638261	TRIAL	n/a	n/a	n/a	-999	7	[0, 0, 0]	n/a	FR1	1	R1221P
1705.405	10.428	638261	COUNTDOWN_START	n/a	n/a	n/a	-999	7	[0, 0, 0]	n/a	FR1	1	R1221P
1715.833	0.008	643600	COUNTDOWN_END	n/a	n/a	n/a	-999	7	[0, 0, 0]	n/a	FR1	1	R1221P
1715.841	2.501	643604	ORIENT	n/a	n/a	n/a	-999	7	[0, 0, 0]	n/a	FR1	1	R1221P
1718.342	2.533	644884	WORD	n/a	wordpools/wordpool_EN.txt	CRANE	1	7	[0, 0, 0]	n/a	FR1	1	R1221P
1720.875	2.451	646181	WORD	n/a	wordpools/wordpool_EN.txt	LOCK	2	7	[0, 0, 0]	n/a	FR1	1	R1221P
1723.326	2.6	647436	WORD	n/a	wordpools/wordpool_EN.txt	CROW	3	7	[0, 0, 0]	n/a	FR1	1	R1221P
1725.926	2.583	648767	WORD	n/a	wordpools/wordpool_EN.txt	OAK	4	7	[0, 0, 0]	n/a	FR1	1	R1221P
1728.509	2.435	650089	WORD	n/a	wordpools/wordpool_EN.txt	HOLE	5	7	[0, 0, 0]	n/a	FR1	1	R1221P
1730.944	2.566	651336	WORD	n/a	wordpools/wordpool_EN.txt	GUARD	6	7	[0, 0, 0]	n/a	FR1	1	R1221P
1733.51	2.385	652650	WORD	n/a	wordpools/wordpool_EN.txt	LIP	7	7	[0, 0, 0]	n/a	FR1	1	R1221P
1735.895	2.45	653871	WORD	n/a	wordpools/wordpool_EN.txt	TOOL	8	7	[0, 0, 0]	n/a	FR1	1	R1221P
1738.345	2.451	655125	WORD	n/a	wordpools/wordpool_EN.txt	COUCH	9	7	[0, 0, 0]	n/a	FR1	1	R1221P
1740.796	2.45	656380	WORD	n/a	wordpools/wordpool_EN.txt	LAWN	10	7	[0, 0, 0]	n/a	FR1	1	R1221P
1743.246	2.634	657635	WORD	n/a	wordpools/wordpool_EN.txt	TENT	11	7	[0, 0, 0]	n/a	FR1	1	R1221P
1745.88	1.616	658983	WORD	n/a	wordpools/wordpool_EN.txt	CUBE	12	7	[0, 0, 0]	n/a	FR1	1	R1221P
1747.496	0.001	659810	DISTRACT_START	n/a	n/a	n/a	-999	7	[0, 0, 0]	n/a	FR1	1	R1221P
1747.497	0.016	659811	START	n/a	n/a	n/a	-999	7	[-999, -999, -999]	n/a	FR1	1	R1221P
1747.513	5.418	659819	PROB	5.418	n/a	n/a	-999	7	[9, 4, 6]	19	FR1	1	R1221P
1752.931	3.6	662593	PROB	3.6	n/a	n/a	-999	7	[2, 7, 1]	10	FR1	1	R1221P
1756.531	3.685	664436	PROB	3.685	n/a	n/a	-999	7	[6, 7, 9]	22	FR1	1	R1221P
1760.216	3.133	666323	PROB	3.133	n/a	n/a	-999	7	[4, 2, 6]	12	FR1	1	R1221P
1763.349	3.352	667927	PROB	3.352	n/a	n/a	-999	7	[8, 4, 4]	16	FR1	1	R1221P
1766.701	3.273	669643	PROB	3.273	n/a	n/a	-999	7	[9, 4, 1]	14	FR1	1	R1221P
1769.974	0.011	671319	STOP	n/a	n/a	n/a	-999	7	[-999, -999, -999]	n/a	FR1	1	R1221P
1769.985	1.067	671324	DISTRACT_END	n/a	n/a	n/a	-999	7	[0, 0, 0]	n/a	FR1	1	R1221P
1771.052	0.932	671871	REC_START	n/a	n/a	n/a	-999	7	[0, 0, 0]	n/a	FR1	1	R1221P
1771.984	3.071	672348	REC_WORD	3.071	n/a	CRANE	1	7	[0, 0, 0]	n/a	FR1	1	R1221P
1775.055	1.486	673920	REC_WORD	1.486	n/a	CLOCK	-999	7	[0, 0, 0]	n/a	FR1	1	R1221P
1776.541	1.189	674681	REC_WORD	1.189	n/a	CROW	3	7	[0, 0, 0]	n/a	FR1	1	R1221P
1777.73	1.053	675290	REC_WORD	1.053	n/a	HOLE	5	7	[0, 0, 0]	n/a	FR1	1	R1221P
1778.783	22.279	675829	REC_WORD	22.279	n/a	LIP	7	7	[0, 0, 0]	n/a	FR1	1	R1221P
1801.062	2.912	687235	REC_END	n/a	n/a	n/a	-999	7	[0, 0, 0]	n/a	FR1	1	R1221P
1803.974	0.001	688726	COUNTDOWN_START	n/a	n/a	n/a	-999	8	[0, 0, 0]	n/a	FR1	1	R1221P
1803.975	10.427	688727	TRIAL	n/a	n/a	n/a	-999	8	[0, 0, 0]	n/a	FR1	1	R1221P
1814.402	0.007	694065	COUNTDOWN_END	n/a	n/a	n/a	-999	8	[0, 0, 0]	n/a	FR1	1	R1221P
1814.409	2.418	694069	ORIENT	n/a	n/a	n/a	-999	8	[0, 0, 0]	n/a	FR1	1	R1221P
1816.827	2.517	695307	WORD	n/a	wordpools/wordpool_EN.txt	TAIL	1	8	[0, 0, 0]	n/a	FR1	1	R1221P
1819.344	2.434	696595	WORD	n/a	wordpools/wordpool_EN.txt	MOUSE	2	8	[0, 0, 0]	n/a	FR1	1	R1221P
1821.778	2.55	697842	WORD	n/a	wordpools/wordpool_EN.txt	ROPE	3	8	[0, 0, 0]	n/a	FR1	1	R1221P
1824.328	2.551	699147	WORD	n/a	wordpools/wordpool_EN.txt	WEB	4	8	[0, 0, 0]	n/a	FR1	1	R1221P
1826.879	2.4	700453	WORD	n/a	wordpools/wordpool_EN.txt	MUG	5	8	[0, 0, 0]	n/a	FR1	1	R1221P
1829.279	2.417	701682	WORD	n/a	wordpools/wordpool_EN.txt	SKUNK	6	8	[0, 0, 0]	n/a	FR1	1	R1221P
1831.696	2.417	702919	WORD	n/a	wordpools/wordpool_EN.txt	SHEEP	7	8	[0, 0, 0]	n/a	FR1	1	R1221P
1834.113	2.55	704157	WORD	n/a	wordpools/wordpool_EN.txt	PET	8	8	[0, 0, 0]	n/a	FR1	1	R1221P
1836.663	2.468	705463	WORD	n/a	wordpools/wordpool_EN.txt	CLOTH	9	8	[0, 0, 0]	n/a	FR1	1	R1221P
1839.131	2.55	706726	WORD	n/a	wordpools/wordpool_EN.txt	HAWK	10	8	[0, 0, 0]	n/a	FR1	1	R1221P
1841.681	2.618	708032	WORD	n/a	wordpools/wordpool_EN.txt	FUDGE	11	8	[0, 0, 0]	n/a	FR1	1	R1221P
1844.299	1.616	709372	WORD	n/a	wordpools/wordpool_EN.txt	CALF	12	8	[0, 0, 0]	n/a	FR1	1	R1221P
1845.915	0.001	710199	DISTRACT_START	n/a	n/a	n/a	-999	8	[0, 0, 0]	n/a	FR1	1	R1221P
1845.916	0.016	710200	START	n/a	n/a	n/a	-999	8	[-999, -999, -999]	n/a	FR1	1	R1221P
1845.932	5.068	710208	PROB	5.068	n/a	n/a	-999	8	[9, 1, 3]	13	FR1	1	R1221P
1851.0	5.084	712803	PROB	5.084	n/a	n/a	-999	8	[8, 4, 5]	17	FR1	1	R1221P
1856.084	6.051	715406	PROB	6.051	n/a	n/a	-999	8	[7, 8, 3]	18	FR1	1	R1221P
1862.135	10.567	718504	PROB	10.567	n/a	n/a	-999	8	[4, 2, 8]	14	FR1	1	R1221P
1872.702	0.018	723914	STOP	n/a	n/a	n/a	-999	8	[-999, -999, -999]	n/a	FR1	1	R1221P
1872.72	1.185	723923	DISTRACT_END	n/a	n/a	n/a	-999	8	[0, 0, 0]	n/a	FR1	1	R1221P
1873.905	0.909	724530	REC_START	n/a	n/a	n/a	-999	8	[0, 0, 0]	n/a	FR1	1	R1221P
1874.814	0.956	724995	REC_WORD	0.956	n/a	MOUSE	2	8	[0, 0, 0]	n/a	FR1	1	R1221P
1875.77	0.744	725485	REC_WORD	0.744	n/a	ROPE	3	8	[0, 0, 0]	n/a	FR1	1	R1221P
1876.514	27.401	725866	REC_WORD	27.401	n/a	WALK	-999	8	[0, 0, 0]	n/a	FR1	1	R1221P
1903.915	1.945	739894	REC_END	n/a	n/a	n/a	-999	8	[0, 0, 0]	n/a	FR1	1	R1221P
1905.86	0.0	740890	COUNTDOWN_START	n/a	n/a	n/a	-999	9	[0, 0, 0]	n/a	FR1	1	R1221P
1905.86	10.428	740890	TRIAL	n/a	n/a	n/a	-999	9	[0, 0, 0]	n/a	FR1	1	R1221P
1916.288	0.007	746229	COUNTDOWN_END	n/a	n/a	n/a	-999	9	[0, 0, 0]	n/a	FR1	1	R1221P
1916.295	2.517	746233	ORIENT	n/a	n/a	n/a	-999	9	[0, 0, 0]	n/a	FR1	1	R1221P
1918.812	2.468	747521	WORD	n/a	wordpools/wordpool_EN.txt	CHEEK	1	9	[0, 0, 0]	n/a	FR1	1	R1221P
1921.28	2.483	748785	WORD	n/a	wordpools/wordpool_EN.txt	RAIN	2	9	[0, 0, 0]	n/a	FR1	1	R1221P
1923.763	2.617	750056	WORD	n/a	wordpools/wordpool_EN.txt	TOAST	3	9	[0, 0, 0]	n/a	FR1	1	R1221P
1926.38	2.484	751396	WORD	n/a	wordpools/wordpool_EN.txt	CAPE	4	9	[0, 0, 0]	n/a	FR1	1	R1221P
1928.864	2.401	752668	WORD	n/a	wordpools/wordpool_EN.txt	LAND	5	9	[0, 0, 0]	n/a	FR1	1	R1221P
1931.265	2.6	753897	WORD	n/a	wordpools/wordpool_EN.txt	RICE	6	9	[0, 0, 0]	n/a	FR1	1	R1221P
1933.865	2.384	755228	WORD	n/a	wordpools/wordpool_EN.txt	DOCK	7	9	[0, 0, 0]	n/a	FR1	1	R1221P
1936.249	2.584	756449	WORD	n/a	wordpools/wordpool_EN.txt	CANE	8	9	[0, 0, 0]	n/a	FR1	1	R1221P
1938.833	2.4	757772	WORD	n/a	wordpools/wordpool_EN.txt	SUN	9	9	[0, 0, 0]	n/a	FR1	1	R1221P
1941.233	2.617	759001	WORD	n/a	wordpools/wordpool_EN.txt	SHIP	10	9	[0, 0, 0]	n/a	FR1	1	R1221P
1943.85	2.533	760340	WORD	n/a	wordpools/wordpool_EN.txt	EEL	11	9	[0, 0, 0]	n/a	FR1	1	R1221P
1946.383	1.601	761637	WORD	n/a	wordpools/wordpool_EN.txt	FOAM	12	9	[0, 0, 0]	n/a	FR1	1	R1221P
1947.984	0.001	762457	DISTRACT_START	n/a	n/a	n/a	-999	9	[0, 0, 0]	n/a	FR1	1	R1221P
1947.985	0.016	762458	START	n/a	n/a	n/a	-999	9	[-999, -999, -999]	n/a	FR1	1	R1221P
1948.001	4.234	762466	PROB	4.234	n/a	n/a	-999	9	[4, 6, 3]	13	FR1	1	R1221P
1952.235	3.751	764633	PROB	3.751	n/a	n/a	-999	9	[5, 3, 2]	10	FR1	1	R1221P
1955.986	2.683	766554	PROB	2.683	n/a	n/a	-999	9	[5, 5, 3]	13	FR1	1	R1221P
1958.669	2.518	767928	PROB	2.518	n/a	n/a	-999	9	[5, 5, 2]	12	FR1	1	R1221P
1961.187	4.433	769217	PROB	4.433	n/a	n/a	-999	9	[3, 2, 8]	13	FR1	1	R1221P
1965.62	2.945	771486	PROB	2.945	n/a	n/a	-999	9	[5, 5, 9]	19	FR1	1	R1221P
1968.565	0.006	772994	STOP	n/a	n/a	n/a	-999	9	[-999, -999, -999]	n/a	FR1	1	R1221P
1968.571	1.084	772997	DISTRACT_END	n/a	n/a	n/a	-999	9	[0, 0, 0]	n/a	FR1	1	R1221P
1969.655	1.054	773552	REC_START	n/a	n/a	n/a	-999	9	[0, 0, 0]	n/a	FR1	1	R1221P
1970.709	0.879	774092	REC_WORD	0.879	n/a	CHEAT	-999	9	[0, 0, 0]	n/a	FR1	1	R1221P
1971.588	0.963	774542	REC_WORD	0.963	n/a	RAIN	2	9	[0, 0, 0]	n/a	FR1	1	R1221P
1972.551	1.126	775035	REC_WORD	1.126	n/a	TOAST	3	9	[0, 0, 0]	n/a	FR1	1	R1221P
1973.677	0.734	775611	REC_WORD	0.734	n/a	KEY	-999	9	[0, 0, 0]	n/a	FR1	1	R1221P
1974.411	25.254	775987	REC_WORD	25.254	n/a	SUN	9	9	[0, 0, 0]	n/a	FR1	1	R1221P
1999.665	2.346	788917	REC_END	n/a	n/a	n/a	-999	9	[0, 0, 0]	n/a	FR1	1	R1221P
2002.011	0.001	790118	COUNTDOWN_START	n/a	n/a	n/a	-999	10	[0, 0, 0]	n/a	FR1	1	R1221P
2002.012	10.427	790118	TRIAL	n/a	n/a	n/a	-999	10	[0, 0, 0]	n/a	FR1	1	R1221P
2012.439	0.007	795457	COUNTDOWN_END	n/a	n/a	n/a	-999	10	[0, 0, 0]	n/a	FR1	1	R1221P
2012.446	2.568	795460	ORIENT	n/a	n/a	n/a	-999	10	[0, 0, 0]	n/a	FR1	1	R1221P
2015.014	2.449	796775	WORD	n/a	wordpools/wordpool_EN.txt	JET	1	10	[0, 0, 0]	n/a	FR1	1	R1221P
2017.463	2.518	798029	WORD	n/a	wordpools/wordpool_EN.txt	FILM	2	10	[0, 0, 0]	n/a	FR1	1	R1221P
2019.981	2.583	799318	WORD	n/a	wordpools/wordpool_EN.txt	MOLE	3	10	[0, 0, 0]	n/a	FR1	1	R1221P
2022.564	2.585	800641	WORD	n/a	wordpools/wordpool_EN.txt	BOAT	4	10	[0, 0, 0]	n/a	FR1	1	R1221P
2025.149	2.416	801964	WORD	n/a	wordpools/wordpool_EN.txt	INK	5	10	[0, 0, 0]	n/a	FR1	1	R1221P
2027.565	2.452	803201	WORD	n/a	wordpools/wordpool_EN.txt	BOMB	6	10	[0, 0, 0]	n/a	FR1	1	R1221P
2030.017	2.616	804457	WORD	n/a	wordpools/wordpool_EN.txt	KITE	7	10	[0, 0, 0]	n/a	FR1	1	R1221P
2032.633	2.468	805796	WORD	n/a	wordpools/wordpool_EN.txt	SOAP	8	10	[0, 0, 0]	n/a	FR1	1	R1221P
2035.101	2.584	807059	WORD	n/a	wordpools/wordpool_EN.txt	SPARK	9	10	[0, 0, 0]	n/a	FR1	1	R1221P
2037.685	2.567	808382	WORD	n/a	wordpools/wordpool_EN.txt	WHEEL	10	10	[0, 0, 0]	n/a	FR1	1	R1221P
2040.252	2.399	809697	WORD	n/a	wordpools/wordpool_EN.txt	POND	11	10	[0, 0, 0]	n/a	FR1	1	R1221P
2042.651	1.601	810925	WORD	n/a	wordpools/wordpool_EN.txt	NET	12	10	[0, 0, 0]	n/a	FR1	1	R1221P
2044.252	0.001	811745	DISTRACT_START	n/a	n/a	n/a	-999	10	[0, 0, 0]	n/a	FR1	1	R1221P
2044.253	0.016	811745	START	n/a	n/a	n/a	-999	10	[-999, -999, -999]	n/a	FR1	1	R1221P
2044.269	5.1	811753	PROB	5.1	n/a	n/a	-999	10	[4, 7, 8]	19	FR1	1	R1221P
2049.369	3.134	814364	PROB	3.134	n/a	n/a	-999	10	[9, 2, 4]	15	FR1	1	R1221P
2052.503	2.335	815969	PROB	2.335	n/a	n/a	-999	10	[3, 2, 1]	6	FR1	1	R1221P
2054.838	3.55	817164	PROB	3.55	n/a	n/a	-999	10	[2, 7, 4]	15	FR1	1	R1221P
2058.388	4.184	818982	PROB	4.184	n/a	n/a	-999	10	[7, 3, 2]	12	FR1	1	R1221P
2062.572	2.977	821124	PROB	2.977	n/a	n/a	-999	10	[2, 8, 5]	15	FR1	1	R1221P
2065.549	0.007	822648	STOP	n/a	n/a	n/a	-999	10	[-999, -999, -999]	n/a	FR1	1	R1221P
2065.556	1.067	822652	DISTRACT_END	n/a	n/a	n/a	-999	10	[0, 0, 0]	n/a	FR1	1	R1221P
2066.623	0.838	823198	REC_START	n/a	n/a	n/a	-999	10	[0, 0, 0]	n/a	FR1	1	R1221P
2067.461	0.938	823627	REC_WORD	0.938	n/a	JET	1	10	[0, 0, 0]	n/a	FR1	1	R1221P
2068.399	2.301	824107	REC_WORD	2.301	n/a	BOMB	6	10	[0, 0, 0]	n/a	FR1	1	R1221P
2070.7	1.054	825286	REC_WORD	1.054	n/a	POND	11	10	[0, 0, 0]	n/a	FR1	1	R1221P
2071.754	24.883	825825	REC_WORD	24.883	n/a	KITE	7	10	[0, 0, 0]	n/a	FR1	1	R1221P
2096.637	2.226	838565	REC_END	n/a	n/a	n/a	-999	10	[0, 0, 0]	n/a	FR1	1	R1221P
2098.863	0.0	839705	TRIAL	n/a	n/a	n/a	-999	11	[0, 0, 0]	n/a	FR1	1	R1221P
2098.863	10.428	839705	COUNTDOWN_START	n/a	n/a	n/a	-999	11	[0, 0, 0]	n/a	FR1	1	R1221P
2109.291	0.007	845043	COUNTDOWN_END	n/a	n/a	n/a	-999	11	[0, 0, 0]	n/a	FR1	1	R1221P
2109.298	2.484	845047	ORIENT	n/a	n/a	n/a	-999	11	[0, 0, 0]	n/a	FR1	1	R1221P
2111.782	2.551	846319	WORD	n/a	wordpools/wordpool_EN.txt	BENCH	1	11	[0, 0, 0]	n/a	FR1	1	R1221P
2114.333	2.45	847625	WORD	n/a	wordpools/wordpool_EN.txt	STRAW	2	11	[0, 0, 0]	n/a	FR1	1	R1221P
2116.783	2.517	848879	WORD	n/a	wordpools/wordpool_EN.txt	YARD	3	11	[0, 0, 0]	n/a	FR1	1	R1221P
2119.3	2.384	850168	WORD	n/a	wordpools/wordpool_EN.txt	FOOT	4	11	[0, 0, 0]	n/a	FR1	1	R1221P
2121.684	2.483	851388	WORD	n/a	wordpools/wordpool_EN.txt	SHIRT	5	11	[0, 0, 0]	n/a	FR1	1	R1221P
2124.167	2.601	852660	WORD	n/a	wordpools/wordpool_EN.txt	BOWL	6	11	[0, 0, 0]	n/a	FR1	1	R1221P
2126.768	2.434	853991	WORD	n/a	wordpools/wordpool_EN.txt	FROG	7	11	[0, 0, 0]	n/a	FR1	1	R1221P
2129.202	2.449	855238	WORD	n/a	wordpools/wordpool_EN.txt	ROSE	8	11	[0, 0, 0]	n/a	FR1	1	R1221P
2131.651	2.419	856491	WORD	n/a	wordpools/wordpool_EN.txt	DOOR	9	11	[0, 0, 0]	n/a	FR1	1	R1221P
2134.07	2.499	857730	WORD	n/a	wordpools/wordpool_EN.txt	BRUSH	10	11	[0, 0, 0]	n/a	FR1	1	R1221P
2136.569	2.452	859009	WORD	n/a	wordpools/wordpool_EN.txt	CHAIR	11	11	[0, 0, 0]	n/a	FR1	1	R1221P
2139.021	1.615	860265	WORD	n/a	wordpools/wordpool_EN.txt	TIE	12	11	[0, 0, 0]	n/a	FR1	1	R1221P
2140.636	0.001	861092	DISTRACT_START	n/a	n/a	n/a	-999	11	[0, 0, 0]	n/a	FR1	1	R1221P
2140.637	0.016	861092	START	n/a	n/a	n/a	-999	11	[-999, -999, -999]	n/a	FR1	1	R1221P
2140.653	6.801	861100	PROB	6.801	n/a	n/a	-999	11	[3, 2, 7]	12	FR1	1	R1221P
2147.454	3.652	864582	PROB	3.652	n/a	n/a	-999	11	[7, 7, 2]	16	FR1	1	R1221P
2151.106	4.034	866452	PROB	4.034	n/a	n/a	-999	11	[3, 7, 1]	11	FR1	1	R1221P
2155.14	2.934	868517	PROB	2.934	n/a	n/a	-999	11	[3, 2, 4]	9	FR1	1	R1221P
2158.074	3.253	870020	PROB	3.253	n/a	n/a	-999	11	[9, 3, 5]	17	FR1	1	R1221P
2161.327	0.014	871685	STOP	n/a	n/a	n/a	-999	11	[-999, -999, -999]	n/a	FR1	1	R1221P
2161.341	1.217	871692	DISTRACT_END	n/a	n/a	n/a	-999	11	[0, 0, 0]	n/a	FR1	1	R1221P
2162.558	0.629	872315	REC_START	n/a	n/a	n/a	-999	11	[0, 0, 0]	n/a	FR1	1	R1221P
2163.187	0.861	872637	REC_WORD	0.861	n/a	BENCH	1	11	[0, 0, 0]	n/a	FR1	1	R1221P
2164.048	1.236	873078	REC_WORD	1.236	n/a	FROG	7	11	[0, 0, 0]	n/a	FR1	1	R1221P
2165.284	0.802	873711	REC_WORD	0.802	n/a	DOG	-999	11	[0, 0, 0]	n/a	FR1	1	R1221P
2166.086	26.482	874122	REC_WORD	26.482	n/a	TIE	12	11	[0, 0, 0]	n/a	FR1	1	R1221P
2192.568	2.163	887680	REC_END	n/a	n/a	n/a	-999	11	[0, 0, 0]	n/a	FR1	1	R1221P
2194.731	0.0	888787	TRIAL	n/a	n/a	n/a	-999	12	[0, 0, 0]	n/a	FR1	1	R1221P
2194.731	10.428	888787	COUNTDOWN_START	n/a	n/a	n/a	-999	12	[0, 0, 0]	n/a	FR1	1	R1221P
2205.159	0.007	894126	COUNTDOWN_END	n/a	n/a	n/a	-999	12	[0, 0, 0]	n/a	FR1	1	R1221P
2205.166	2.483	894130	ORIENT	n/a	n/a	n/a	-999	12	[0, 0, 0]	n/a	FR1	1	R1221P
2207.649	2.535	895401	WORD	n/a	wordpools/wordpool_EN.txt	LAMP	1	12	[0, 0, 0]	n/a	FR1	1	R1221P
2210.184	2.433	896699	WORD	n/a	wordpools/wordpool_EN.txt	BOOT	2	12	[0, 0, 0]	n/a	FR1	1	R1221P
2212.617	2.434	897945	WORD	n/a	wordpools/wordpool_EN.txt	FOG	3	12	[0, 0, 0]	n/a	FR1	1	R1221P
2215.051	2.617	899191	WORD	n/a	wordpools/wordpool_EN.txt	FLAG	4	12	[0, 0, 0]	n/a	FR1	1	R1221P
2217.668	2.384	900531	WORD	n/a	wordpools/wordpool_EN.txt	NAIL	5	12	[0, 0, 0]	n/a	FR1	1	R1221P
2220.052	2.433	901751	WORD	n/a	wordpools/wordpool_EN.txt	PARK	6	12	[0, 0, 0]	n/a	FR1	1	R1221P
2222.485	2.518	902997	WORD	n/a	wordpools/wordpool_EN.txt	CLOCK	7	12	[0, 0, 0]	n/a	FR1	1	R1221P
2225.003	2.4	904286	WORD	n/a	wordpools/wordpool_EN.txt	BED	8	12	[0, 0, 0]	n/a	FR1	1	R1221P
2227.403	2.435	905515	WORD	n/a	wordpools/wordpool_EN.txt	SWORD	9	12	[0, 0, 0]	n/a	FR1	1	R1221P
2229.838	2.582	906762	WORD	n/a	wordpools/wordpool_EN.txt	BAT	10	12	[0, 0, 0]	n/a	FR1	1	R1221P
2232.42	2.385	908083	WORD	n/a	wordpools/wordpool_EN.txt	SKI	11	12	[0, 0, 0]	n/a	FR1	1	R1221P
2234.805	1.616	909305	WORD	n/a	wordpools/wordpool_EN.txt	WHALE	12	12	[0, 0, 0]	n/a	FR1	1	R1221P
2236.421	0.001	910132	DISTRACT_START	n/a	n/a	n/a	-999	12	[0, 0, 0]	n/a	FR1	1	R1221P
2236.422	0.016	910132	START	n/a	n/a	n/a	-999	12	[-999, -999, -999]	n/a	FR1	1	R1221P
2236.438	6.951	910141	PROB	6.951	n/a	n/a	-999	12	[5, 9, 8]	22	FR1	1	R1221P
2243.389	3.302	913699	PROB	3.302	n/a	n/a	-999	12	[3, 2, 8]	13	FR1	1	R1221P
2246.691	3.267	915390	PROB	3.267	n/a	n/a	-999	12	[1, 3, 6]	10	FR1	1	R1221P
2249.958	3.55	917063	PROB	3.55	n/a	n/a	-999	12	[9, 1, 8]	18	FR1	1	R1221P
2253.508	2.318	918880	PROB	2.318	n/a	n/a	-999	12	[4, 2, 2]	8	FR1	1	R1221P
2255.826	3.157	920067	PROB	3.157	n/a	n/a	-999	12	[8, 9, 6]	23	FR1	1	R1221P
2258.983	0.01	921683	STOP	n/a	n/a	n/a	-999	12	[-999, -999, -999]	n/a	FR1	1	R1221P
2258.993	1.184	921688	DISTRACT_END	n/a	n/a	n/a	-999	12	[0, 0, 0]	n/a	FR1	1	R1221P
2260.177	0.513	922295	REC_START	n/a	n/a	n/a	-999	12	[0, 0, 0]	n/a	FR1	1	R1221P
2260.69	1.194	922557	REC_WORD	1.194	n/a	SKI	11	12	[0, 0, 0]	n/a	FR1	1	R1221P
2261.884	28.304	923169	REC_WORD	28.304	n/a	WHALE	12	12	[0, 0, 0]	n/a	FR1	1	R1221P
2290.188	2.477	937660	REC_END	n/a	n/a	n/a	-999	12	[0, 0, 0]	n/a	FR1	1	R1221P
2292.665	0.0	938928	TRIAL	n/a	n/a	n/a	-999	13	[0, 0, 0]	n/a	FR1	1	R1221P
2292.665	10.428	938928	COUNTDOWN_START	n/a	n/a	n/a	-999	13	[0, 0, 0]	n/a	FR1	1	R1221P
2303.093	0.008	944267	COUNTDOWN_END	n/a	n/a	n/a	-999	13	[0, 0, 0]	n/a	FR1	1	R1221P
2303.101	2.4	944271	ORIENT	n/a	n/a	n/a	-999	13	[0, 0, 0]	n/a	FR1	1	R1221P
2305.501	2.618	945500	WORD	n/a	wordpools/wordpool_EN.txt	KEY	1	13	[0, 0, 0]	n/a	FR1	1	R1221P
2308.119	2.483	946840	WORD	n/a	wordpools/wordpool_EN.txt	MAP	2	13	[0, 0, 0]	n/a	FR1	1	R1221P
2310.602	2.468	948111	WORD	n/a	wordpools/wordpool_EN.txt	CLOWN	3	13	[0, 0, 0]	n/a	FR1	1	R1221P
2313.07	2.483	949375	WORD	n/a	wordpools/wordpool_EN.txt	FRUIT	4	13	[0, 0, 0]	n/a	FR1	1	R1221P
2315.553	2.384	950646	WORD	n/a	wordpools/wordpool_EN.txt	FISH	5	13	[0, 0, 0]	n/a	FR1	1	R1221P
2317.937	2.617	951867	WORD	n/a	wordpools/wordpool_EN.txt	CHIEF	6	13	[0, 0, 0]	n/a	FR1	1	R1221P
2320.554	2.484	953207	WORD	n/a	wordpools/wordpool_EN.txt	MILK	7	13	[0, 0, 0]	n/a	FR1	1	R1221P
2323.038	2.416	954478	WORD	n/a	wordpools/wordpool_EN.txt	SHARK	8	13	[0, 0, 0]	n/a	FR1	1	R1221P
2325.454	2.469	955715	WORD	n/a	wordpools/wordpool_EN.txt	FORT	9	13	[0, 0, 0]	n/a	FR1	1	R1221P
2327.923	2.582	956979	WORD	n/a	wordpools/wordpool_EN.txt	SEA	10	13	[0, 0, 0]	n/a	FR1	1	R1221P
2330.505	2.368	958301	WORD	n/a	wordpools/wordpool_EN.txt	JUDGE	11	13	[0, 0, 0]	n/a	FR1	1	R1221P
2332.873	1.616	959514	WORD	n/a	wordpools/wordpool_EN.txt	PASTE	12	13	[0, 0, 0]	n/a	FR1	1	R1221P
2334.489	0.001	960341	DISTRACT_START	n/a	n/a	n/a	-999	13	[0, 0, 0]	n/a	FR1	1	R1221P
2334.49	0.016	960342	START	n/a	n/a	n/a	-999	13	[-999, -999, -999]	n/a	FR1	1	R1221P
2334.506	5.034	960350	PROB	5.034	n/a	n/a	-999	13	[3, 6, 9]	18	FR1	1	R1221P
2339.54	3.084	962927	PROB	3.084	n/a	n/a	-999	13	[4, 2, 7]	13	FR1	1	R1221P
2342.624	2.918	964506	PROB	2.918	n/a	n/a	-999	13	[3, 9, 2]	14	FR1	1	R1221P
2345.542	2.468	966000	PROB	2.468	n/a	n/a	-999	13	[3, 3, 3]	9	FR1	1	R1221P
2348.01	2.867	967264	PROB	2.867	n/a	n/a	-999	13	[9, 5, 2]	16	FR1	1	R1221P
2350.877	2.666	968731	PROB	2.666	n/a	n/a	-999	13	[1, 4, 8]	13	FR1	1	R1221P
2353.543	4.432	970096	PROB	4.432	n/a	n/a	-999	13	[9, 7, 9]	25	FR1	1	R1221P
2357.975	0.003	972366	STOP	n/a	n/a	n/a	-999	13	[-999, -999, -999]	n/a	FR1	1	R1221P
2357.978	1.101	972367	DISTRACT_END	n/a	n/a	n/a	-999	13	[0, 0, 0]	n/a	FR1	1	R1221P
2359.079	0.747	972931	REC_START	n/a	n/a	n/a	-999	13	[0, 0, 0]	n/a	FR1	1	R1221P
2359.826	0.766	973313	REC_WORD	0.766	n/a	KEY	1	13	[0, 0, 0]	n/a	FR1	1	R1221P
2360.592	0.718	973705	REC_WORD	0.718	n/a	MAP	2	13	[0, 0, 0]	n/a	FR1	1	R1221P
2361.31	1.454	974073	REC_WORD	1.454	n/a	CLOWN	3	13	[0, 0, 0]	n/a	FR1	1	R1221P
2362.764	26.329	974817	REC_WORD	26.329	n/a	FISH	5	13	[0, 0, 0]	n/a	FR1	1	R1221P
2389.093	2.374	988297	REC_END	n/a	n/a	n/a	-999	13	[0, 0, 0]	n/a	FR1	1	R1221P
2391.467	0.0	989513	TRIAL	n/a	n/a	n/a	-999	14	[0, 0, 0]	n/a	FR1	1	R1221P
2391.467	10.428	989513	COUNTDOWN_START	n/a	n/a	n/a	-999	14	[0, 0, 0]	n/a	FR1	1	R1221P
2401.895	0.008	994852	COUNTDOWN_END	n/a	n/a	n/a	-999	14	[0, 0, 0]	n/a	FR1	1	R1221P
2401.903	2.417	994856	ORIENT	n/a	n/a	n/a	-999	14	[0, 0, 0]	n/a	FR1	1	R1221P
2404.32	2.534	996093	WORD	n/a	wordpools/wordpool_EN.txt	BADGE	1	14	[0, 0, 0]	n/a	FR1	1	R1221P
2406.854	2.516	997391	WORD	n/a	wordpools/wordpool_EN.txt	BAND	2	14	[0, 0, 0]	n/a	FR1	1	R1221P
2409.37	2.502	998679	WORD	n/a	wordpools/wordpool_EN.txt	DOLL	3	14	[0, 0, 0]	n/a	FR1	1	R1221P
2411.872	2.599	999960	WORD	n/a	wordpools/wordpool_EN.txt	HOSE	4	14	[0, 0, 0]	n/a	FR1	1	R1221P
2414.471	2.618	1001291	WORD	n/a	wordpools/wordpool_EN.txt	PANTS	5	14	[0, 0, 0]	n/a	FR1	1	R1221P
2417.089	2.45	1002631	WORD	n/a	wordpools/wordpool_EN.txt	ROOM	6	14	[0, 0, 0]	n/a	FR1	1	R1221P
2419.539	2.401	1003885	WORD	n/a	wordpools/wordpool_EN.txt	RUG	7	14	[0, 0, 0]	n/a	FR1	1	R1221P
2421.94	2.483	1005115	WORD	n/a	wordpools/wordpool_EN.txt	HOOF	8	14	[0, 0, 0]	n/a	FR1	1	R1221P
2424.423	2.518	1006386	WORD	n/a	wordpools/wordpool_EN.txt	WAVE	9	14	[0, 0, 0]	n/a	FR1	1	R1221P
2426.941	2.533	1007675	WORD	n/a	wordpools/wordpool_EN.txt	HILL	10	14	[0, 0, 0]	n/a	FR1	1	R1221P
2429.474	2.551	1008972	WORD	n/a	wordpools/wordpool_EN.txt	SHIELD	11	14	[0, 0, 0]	n/a	FR1	1	R1221P
2432.025	1.616	1010278	WORD	n/a	wordpools/wordpool_EN.txt	LAKE	12	14	[0, 0, 0]	n/a	FR1	1	R1221P
2433.641	0.001	1011105	DISTRACT_START	n/a	n/a	n/a	-999	14	[0, 0, 0]	n/a	FR1	1	R1221P
2433.642	0.016	1011106	START	n/a	n/a	n/a	-999	14	[-999, -999, -999]	n/a	FR1	1	R1221P
2433.658	6.602	1011114	PROB	6.602	n/a	n/a	-999	14	[6, 6, 7]	20	FR1	1	R1221P
2440.26	3.568	1014494	PROB	3.568	n/a	n/a	-999	14	[3, 6, 6]	15	FR1	1	R1221P
2443.828	3.833	1016321	PROB	3.833	n/a	n/a	-999	14	[6, 4, 6]	16	FR1	1	R1221P
2447.661	4.118	1018283	PROB	4.118	n/a	n/a	-999	14	[1, 5, 5]	11	FR1	1	R1221P
2451.779	3.323	1020392	PROB	3.323	n/a	n/a	-999	14	[8, 2, 6]	16	FR1	1	R1221P
2455.102	0.011	1022093	STOP	n/a	n/a	n/a	-999	14	[-999, -999, -999]	n/a	FR1	1	R1221P
2455.113	1.101	1022099	DISTRACT_END	n/a	n/a	n/a	-999	14	[0, 0, 0]	n/a	FR1	1	R1221P
2456.214	0.663	1022662	REC_START	n/a	n/a	n/a	-999	14	[0, 0, 0]	n/a	FR1	1	R1221P
2456.877	1.004	1023002	REC_WORD	1.004	n/a	BADGE	1	14	[0, 0, 0]	n/a	FR1	1	R1221P
2457.881	0.955	1023516	REC_WORD	0.955	n/a	BAND	2	14	[0, 0, 0]	n/a	FR1	1	R1221P
2458.836	0.96	1024005	REC_WORD	0.96	n/a	DOLL	3	14	[0, 0, 0]	n/a	FR1	1	R1221P
2459.796	1.813	1024496	REC_WORD	1.813	n/a	HILL	10	14	[0, 0, 0]	n/a	FR1	1	R1221P
2461.609	24.615	1025424	REC_WORD	24.615	n/a	SHIELD	11	14	[0, 0, 0]	n/a	FR1	1	R1221P
2486.224	2.428	1038027	REC_END	n/a	n/a	n/a	-999	14	[0, 0, 0]	n/a	FR1	1	R1221P
2488.652	0.0	1039270	TRIAL	n/a	n/a	n/a	-999	15	[0, 0, 0]	n/a	FR1	1	R1221P
2488.652	10.428	1039270	COUNTDOWN_START	n/a	n/a	n/a	-999	15	[0, 0, 0]	n/a	FR1	1	R1221P
2499.08	0.025	1044609	COUNTDOWN_END	n/a	n/a	n/a	-999	15	[0, 0, 0]	n/a	FR1	1	R1221P
2499.105	2.449	1044622	ORIENT	n/a	n/a	n/a	-999	15	[0, 0, 0]	n/a	FR1	1	R1221P
2501.554	2.518	1045876	WORD	n/a	wordpools/wordpool_EN.txt	BRANCH	1	15	[0, 0, 0]	n/a	FR1	1	R1221P
2504.072	2.617	1047165	WORD	n/a	wordpools/wordpool_EN.txt	LAMB	2	15	[0, 0, 0]	n/a	FR1	1	R1221P
2506.689	2.551	1048505	WORD	n/a	wordpools/wordpool_EN.txt	AXE	3	15	[0, 0, 0]	n/a	FR1	1	R1221P
2509.24	2.534	1049811	WORD	n/a	wordpools/wordpool_EN.txt	WORLD	4	15	[0, 0, 0]	n/a	FR1	1	R1221P
2511.774	2.467	1051108	WORD	n/a	wordpools/wordpool_EN.txt	SPEAR	5	15	[0, 0, 0]	n/a	FR1	1	R1221P
2514.241	2.584	1052371	WORD	n/a	wordpools/wordpool_EN.txt	PEARL	6	15	[0, 0, 0]	n/a	FR1	1	R1221P
2516.825	2.566	1053694	WORD	n/a	wordpools/wordpool_EN.txt	BLOOM	7	15	[0, 0, 0]	n/a	FR1	1	R1221P
2519.391	2.551	1055008	WORD	n/a	wordpools/wordpool_EN.txt	THREAD	8	15	[0, 0, 0]	n/a	FR1	1	R1221P
2521.942	2.533	1056314	WORD	n/a	wordpools/wordpool_EN.txt	MOTH	9	15	[0, 0, 0]	n/a	FR1	1	R1221P
2524.475	2.435	1057611	WORD	n/a	wordpools/wordpool_EN.txt	PLANT	10	15	[0, 0, 0]	n/a	FR1	1	R1221P
2526.91	2.449	1058857	WORD	n/a	wordpools/wordpool_EN.txt	FOOD	11	15	[0, 0, 0]	n/a	FR1	1	R1221P
2529.359	1.601	1060111	WORD	n/a	wordpools/wordpool_EN.txt	BEE	12	15	[0, 0, 0]	n/a	FR1	1	R1221P
2530.96	0.001	1060931	DISTRACT_START	n/a	n/a	n/a	-999	15	[0, 0, 0]	n/a	FR1	1	R1221P
2530.961	0.016	1060931	START	n/a	n/a	n/a	-999	15	[-999, -999, -999]	n/a	FR1	1	R1221P
2530.977	5.251	1060940	PROB	5.251	n/a	n/a	-999	15	[6, 9, 9]	24	FR1	1	R1221P
2536.228	3.934	1063628	PROB	3.934	n/a	n/a	-999	15	[7, 2, 6]	15	FR1	1	R1221P
2540.162	4.685	1065642	PROB	4.685	n/a	n/a	-999	15	[5, 9, 2]	14	FR1	1	R1221P
2544.847	6.655	1068041	PROB	6.655	n/a	n/a	-999	15	[7, 9, 1]	16	FR1	1	R1221P
2551.502	0.012	1071448	STOP	n/a	n/a	n/a	-999	15	[-999, -999, -999]	n/a	FR1	1	R1221P
2551.514	1.05	1071454	DISTRACT_END	n/a	n/a	n/a	-999	15	[0, 0, 0]	n/a	FR1	1	R1221P
2552.564	0.897	1071992	REC_START	n/a	n/a	n/a	-999	15	[0, 0, 0]	n/a	FR1	1	R1221P
2553.461	0.819	1072451	REC_WORD	0.819	n/a	WORLD	4	15	[0, 0, 0]	n/a	FR1	1	R1221P
2554.28	0.704	1072870	REC_WORD	0.704	n/a	BLOOM	7	15	[0, 0, 0]	n/a	FR1	1	R1221P
2554.984	0.984	1073231	REC_WORD	0.984	n/a	THREAD	8	15	[0, 0, 0]	n/a	FR1	1	R1221P
2555.968	1.016	1073735	REC_WORD	1.016	n/a	MOTH	9	15	[0, 0, 0]	n/a	FR1	1	R1221P
2556.984	25.598	1074255	REC_WORD	25.598	n/a	BEE	12	15	[0, 0, 0]	n/a	FR1	1	R1221P
2582.582	2.522	1087361	REC_END	n/a	n/a	n/a	-999	15	[0, 0, 0]	n/a	FR1	1	R1221P
2585.104	0.0	1088652	TRIAL	n/a	n/a	n/a	-999	16	[0, 0, 0]	n/a	FR1	1	R1221P
2585.104	10.428	1088652	COUNTDOWN_START	n/a	n/a	n/a	-999	16	[0, 0, 0]	n/a	FR1	1	R1221P
2595.532	0.006	1093991	COUNTDOWN_END	n/a	n/a	n/a	-999	16	[0, 0, 0]	n/a	FR1	1	R1221P
2595.538	2.502	1093994	ORIENT	n/a	n/a	n/a	-999	16	[0, 0, 0]	n/a	FR1	1	R1221P
2598.04	2.616	1095275	WORD	n/a	wordpools/wordpool_EN.txt	ROCK	1	16	[0, 0, 0]	n/a	FR1	1	R1221P
2600.656	2.452	1096614	WORD	n/a	wordpools/wordpool_EN.txt	CLIFF	2	16	[0, 0, 0]	n/a	FR1	1	R1221P
2603.108	2.415	1097869	WORD	n/a	wordpools/wordpool_EN.txt	FUR	3	16	[0, 0, 0]	n/a	FR1	1	R1221P
2605.523	2.569	1099106	WORD	n/a	wordpools/wordpool_EN.txt	PIG	4	16	[0, 0, 0]	n/a	FR1	1	R1221P
2608.092	2.516	1100421	WORD	n/a	wordpools/wordpool_EN.txt	STORE	5	16	[0, 0, 0]	n/a	FR1	1	R1221P
2610.608	2.468	1101709	WORD	n/a	wordpools/wordpool_EN.txt	JAR	6	16	[0, 0, 0]	n/a	FR1	1	R1221P
2613.076	2.45	1102973	WORD	n/a	wordpools/wordpool_EN.txt	CORN	7	16	[0, 0, 0]	n/a	FR1	1	R1221P
2615.526	2.401	1104227	WORD	n/a	wordpools/wordpool_EN.txt	BEAK	8	16	[0, 0, 0]	n/a	FR1	1	R1221P
2617.927	2.466	1105457	WORD	n/a	wordpools/wordpool_EN.txt	CAVE	9	16	[0, 0, 0]	n/a	FR1	1	R1221P
2620.393	2.402	1106719	WORD	n/a	wordpools/wordpool_EN.txt	BEACH	10	16	[0, 0, 0]	n/a	FR1	1	R1221P
2622.795	2.45	1107949	WORD	n/a	wordpools/wordpool_EN.txt	DRUM	11	16	[0, 0, 0]	n/a	FR1	1	R1221P
2625.245	1.617	1109203	WORD	n/a	wordpools/wordpool_EN.txt	VINE	12	16	[0, 0, 0]	n/a	FR1	1	R1221P
2626.862	0.001	1110031	DISTRACT_START	n/a	n/a	n/a	-999	16	[0, 0, 0]	n/a	FR1	1	R1221P
2626.863	0.016	1110032	START	n/a	n/a	n/a	-999	16	[-999, -999, -999]	n/a	FR1	1	R1221P
2626.879	3.967	1110040	PROB	3.967	n/a	n/a	-999	16	[2, 4, 9]	15	FR1	1	R1221P
2630.846	3.583	1112071	PROB	3.583	n/a	n/a	-999	16	[1, 8, 7]	16	FR1	1	R1221P
2634.429	3.618	1113905	PROB	3.618	n/a	n/a	-999	16	[3, 7, 4]	14	FR1	1	R1221P
2638.047	4.168	1115758	PROB	4.168	n/a	n/a	-999	16	[4, 4, 3]	14	FR1	1	R1221P
2642.215	3.433	1117892	PROB	3.433	n/a	n/a	-999	16	[7, 6, 1]	14	FR1	1	R1221P
2645.648	3.909	1119649	PROB	3.909	n/a	n/a	-999	16	[4, 7, 8]	16	FR1	1	R1221P
2649.557	0.008	1121651	STOP	n/a	n/a	n/a	-999	16	[-999, -999, -999]	n/a	FR1	1	R1221P
2649.565	1.101	1121655	DISTRACT_END	n/a	n/a	n/a	-999	16	[0, 0, 0]	n/a	FR1	1	R1221P
2650.666	0.789	1122218	REC_START	n/a	n/a	n/a	-999	16	[0, 0, 0]	n/a	FR1	1	R1221P
2651.455	0.845	1122622	REC_WORD	0.845	n/a	ROCK	1	16	[0, 0, 0]	n/a	FR1	1	R1221P
2652.3	1.433	1123055	REC_WORD	1.433	n/a	CLIFF	2	16	[0, 0, 0]	n/a	FR1	1	R1221P
2653.733	0.968	1123789	REC_WORD	0.968	n/a	FUR	3	16	[0, 0, 0]	n/a	FR1	1	R1221P
2654.701	0.701	1124284	REC_WORD	0.701	n/a	PIG	4	16	[0, 0, 0]	n/a	FR1	1	R1221P
2655.402	25.277	1124643	REC_WORD	25.277	n/a	DRUM	11	16	[0, 0, 0]	n/a	FR1	1	R1221P
2680.679	2.41	1137585	REC_END	n/a	n/a	n/a	-999	16	[0, 0, 0]	n/a	FR1	1	R1221P
2683.089	0.0	1138818	TRIAL	n/a	n/a	n/a	-999	17	[0, 0, 0]	n/a	FR1	1	R1221P
2683.089	10.428	1138818	COUNTDOWN_START	n/a	n/a	n/a	-999	17	[0, 0, 0]	n/a	FR1	1	R1221P
2693.517	0.007	1144157	COUNTDOWN_END	n/a	n/a	n/a	-999	17	[0, 0, 0]	n/a	FR1	1	R1221P
2693.524	2.567	1144161	ORIENT	n/a	n/a	n/a	-999	17	[0, 0, 0]	n/a	FR1	1	R1221P
2696.091	2.618	1145475	WORD	n/a	wordpools/wordpool_EN.txt	POOL	1	17	[0, 0, 0]	n/a	FR1	1	R1221P
2698.709	2.433	1146816	WORD	n/a	wordpools/wordpool_EN.txt	SALT	2	17	[0, 0, 0]	n/a	FR1	1	R1221P
2701.142	2.634	1148061	WORD	n/a	wordpools/wordpool_EN.txt	OAR	3	17	[0, 0, 0]	n/a	FR1	1	R1221P
2703.776	2.468	1149410	WORD	n/a	wordpools/wordpool_EN.txt	BEAN	4	17	[0, 0, 0]	n/a	FR1	1	R1221P
2706.244	2.382	1150673	WORD	n/a	wordpools/wordpool_EN.txt	SHRIMP	5	17	[0, 0, 0]	n/a	FR1	1	R1221P
2708.626	2.469	1151893	WORD	n/a	wordpools/wordpool_EN.txt	FLAME	6	17	[0, 0, 0]	n/a	FR1	1	R1221P
2711.095	2.466	1153157	WORD	n/a	wordpools/wordpool_EN.txt	GEESE	7	17	[0, 0, 0]	n/a	FR1	1	R1221P
2713.561	2.584	1154420	WORD	n/a	wordpools/wordpool_EN.txt	WING	8	17	[0, 0, 0]	n/a	FR1	1	R1221P
2716.145	2.467	1155743	WORD	n/a	wordpools/wordpool_EN.txt	STOVE	9	17	[0, 0, 0]	n/a	FR1	1	R1221P
2718.612	2.384	1157006	WORD	n/a	wordpools/wordpool_EN.txt	SWAMP	10	17	[0, 0, 0]	n/a	FR1	1	R1221P
2720.996	2.617	1158226	WORD	n/a	wordpools/wordpool_EN.txt	DEER	11	17	[0, 0, 0]	n/a	FR1	1	R1221P
2723.613	1.617	1159566	WORD	n/a	wordpools/wordpool_EN.txt	PIE	12	17	[0, 0, 0]	n/a	FR1	1	R1221P
2725.23	0.001	1160394	DISTRACT_START	n/a	n/a	n/a	-999	17	[0, 0, 0]	n/a	FR1	1	R1221P
2725.231	0.016	1160394	START	n/a	n/a	n/a	-999	17	[-999, -999, -999]	n/a	FR1	1	R1221P
2725.247	4.718	1160403	PROB	4.718	n/a	n/a	-999	17	[4, 7, 9]	20	FR1	1	R1221P
2729.965	3.549	1162818	PROB	3.549	n/a	n/a	-999	17	[8, 6, 8]	22	FR1	1	R1221P
2733.514	2.918	1164635	PROB	2.918	n/a	n/a	-999	17	[8, 6, 7]	21	FR1	1	R1221P
2736.432	2.434	1166129	PROB	2.434	n/a	n/a	-999	17	[1, 3, 4]	8	FR1	1	R1221P
2738.866	2.6	1167375	PROB	2.6	n/a	n/a	-999	17	[5, 4, 2]	11	FR1	1	R1221P
2741.466	2.351	1168706	PROB	2.351	n/a	n/a	-999	17	[4, 2, 2]	8	FR1	1	R1221P
2743.817	3.621	1169910	PROB	3.621	n/a	n/a	-999	17	[8, 4, 4]	16	FR1	1	R1221P
2747.438	0.012	1171764	STOP	n/a	n/a	n/a	-999	17	[-999, -999, -999]	n/a	FR1	1	R1221P
2747.45	1.034	1171770	DISTRACT_END	n/a	n/a	n/a	-999	17	[0, 0, 0]	n/a	FR1	1	R1221P
2748.484	0.759	1172300	REC_START	n/a	n/a	n/a	-999	17	[0, 0, 0]	n/a	FR1	1	R1221P
2749.243	0.952	1172688	REC_WORD	0.952	n/a	POOL	1	17	[0, 0, 0]	n/a	FR1	1	R1221P
2750.195	1.095	1173176	REC_WORD	1.095	n/a	SHORE	-999	17	[0, 0, 0]	n/a	FR1	1	R1221P
2751.29	0.836	1173736	REC_WORD	0.836	n/a	OAR	3	17	[0, 0, 0]	n/a	FR1	1	R1221P
2752.126	1.106	1174164	REC_WORD	1.106	n/a	SIP	-999	17	[0, 0, 0]	n/a	FR1	1	R1221P
2753.232	1.228	1174730	REC_WORD	1.228	n/a	BEAN	4	17	[0, 0, 0]	n/a	FR1	1	R1221P
2754.46	24.041	1175359	REC_WORD	24.041	n/a	PIE	12	17	[0, 0, 0]	n/a	FR1	1	R1221P
2778.501	2.872	1187668	REC_END	n/a	n/a	n/a	-999	17	[0, 0, 0]	n/a	FR1	1	R1221P
2781.373	0.001	1189138	COUNTDOWN_START	n/a	n/a	n/a	-999	18	[0, 0, 0]	n/a	FR1	1	R1221P
2781.374	10.427	1189139	TRIAL	n/a	n/a	n/a	-999	18	[0, 0, 0]	n/a	FR1	1	R1221P
2791.801	0.009	1194477	COUNTDOWN_END	n/a	n/a	n/a	-999	18	[0, 0, 0]	n/a	FR1	1	R1221P
2791.81	2.433	1194482	ORIENT	n/a	n/a	n/a	-999	18	[0, 0, 0]	n/a	FR1	1	R1221P
2794.243	2.484	1195727	WORD	n/a	wordpools/wordpool_EN.txt	SHEET	1	18	[0, 0, 0]	n/a	FR1	1	R1221P
2796.727	2.467	1196999	WORD	n/a	wordpools/wordpool_EN.txt	STAR	2	18	[0, 0, 0]	n/a	FR1	1	R1221P
2799.194	2.4	1198262	WORD	n/a	wordpools/wordpool_EN.txt	WOLF	3	18	[0, 0, 0]	n/a	FR1	1	R1221P
2801.594	2.501	1199491	WORD	n/a	wordpools/wordpool_EN.txt	HORSE	4	18	[0, 0, 0]	n/a	FR1	1	R1221P
2804.095	2.584	1200771	WORD	n/a	wordpools/wordpool_EN.txt	TRASH	5	18	[0, 0, 0]	n/a	FR1	1	R1221P
2806.679	2.484	1202094	WORD	n/a	wordpools/wordpool_EN.txt	CORD	6	18	[0, 0, 0]	n/a	FR1	1	R1221P
2809.163	2.433	1203366	WORD	n/a	wordpools/wordpool_EN.txt	ANT	7	18	[0, 0, 0]	n/a	FR1	1	R1221P
2811.596	2.484	1204612	WORD	n/a	wordpools/wordpool_EN.txt	BOOK	8	18	[0, 0, 0]	n/a	FR1	1	R1221P
2814.08	2.601	1205884	WORD	n/a	wordpools/wordpool_EN.txt	TOAD	9	18	[0, 0, 0]	n/a	FR1	1	R1221P
2816.681	2.6	1207215	WORD	n/a	wordpools/wordpool_EN.txt	CASH	10	18	[0, 0, 0]	n/a	FR1	1	R1221P
2819.281	2.618	1208546	WORD	n/a	wordpools/wordpool_EN.txt	RIB	11	18	[0, 0, 0]	n/a	FR1	1	R1221P
2821.899	1.616	1209887	WORD	n/a	wordpools/wordpool_EN.txt	EGG	12	18	[0, 0, 0]	n/a	FR1	1	R1221P
2823.515	0.001	1210714	DISTRACT_START	n/a	n/a	n/a	-999	18	[0, 0, 0]	n/a	FR1	1	R1221P
2823.516	0.015	1210715	START	n/a	n/a	n/a	-999	18	[-999, -999, -999]	n/a	FR1	1	R1221P
2823.531	6.702	1210722	PROB	6.702	n/a	n/a	-999	18	[4, 4, 4]	12	FR1	1	R1221P
2830.233	3.668	1214154	PROB	3.668	n/a	n/a	-999	18	[1, 8, 7]	16	FR1	1	R1221P
2833.901	3.7	1216032	PROB	3.7	n/a	n/a	-999	18	[9, 8, 2]	19	FR1	1	R1221P
2837.601	4.485	1217926	PROB	4.485	n/a	n/a	-999	18	[4, 7, 9]	20	FR1	1	R1221P
2842.086	2.745	1220222	PROB	2.745	n/a	n/a	-999	18	[5, 5, 1]	11	FR1	1	R1221P
2844.831	0.005	1221628	STOP	n/a	n/a	n/a	-999	18	[-999, -999, -999]	n/a	FR1	1	R1221P
2844.836	1.068	1221630	DISTRACT_END	n/a	n/a	n/a	-999	18	[0, 0, 0]	n/a	FR1	1	R1221P
2845.904	0.585	1222177	REC_START	n/a	n/a	n/a	-999	18	[0, 0, 0]	n/a	FR1	1	R1221P
2846.489	0.803	1222476	REC_WORD	0.803	n/a	SHEET	1	18	[0, 0, 0]	n/a	FR1	1	R1221P
2847.292	0.989	1222888	REC_WORD	0.989	n/a	STAR	2	18	[0, 0, 0]	n/a	FR1	1	R1221P
2848.281	1.035	1223394	REC_WORD	1.035	n/a	WOLF	3	18	[0, 0, 0]	n/a	FR1	1	R1221P
2849.316	0.874	1223924	REC_WORD	0.874	n/a	HORSE	4	18	[0, 0, 0]	n/a	FR1	1	R1221P
2850.19	25.726	1224371	REC_WORD	25.726	n/a	ANT	7	18	[0, 0, 0]	n/a	FR1	1	R1221P
2875.916	2.442	1237543	REC_END	n/a	n/a	n/a	-999	18	[0, 0, 0]	n/a	FR1	1	R1221P
2878.358	0.0	1238793	TRIAL	n/a	n/a	n/a	-999	19	[0, 0, 0]	n/a	FR1	1	R1221P
2878.358	10.428	1238793	COUNTDOWN_START	n/a	n/a	n/a	-999	19	[0, 0, 0]	n/a	FR1	1	R1221P
2888.786	0.008	1244132	COUNTDOWN_END	n/a	n/a	n/a	-999	19	[0, 0, 0]	n/a	FR1	1	R1221P
2888.794	2.617	1244136	ORIENT	n/a	n/a	n/a	-999	19	[0, 0, 0]	n/a	FR1	1	R1221P
2891.411	2.484	1245476	WORD	n/a	wordpools/wordpool_EN.txt	BREAD	1	19	[0, 0, 0]	n/a	FR1	1	R1221P
2893.895	2.617	1246748	WORD	n/a	wordpools/wordpool_EN.txt	SPOON	2	19	[0, 0, 0]	n/a	FR1	1	R1221P
2896.512	2.601	1248087	WORD	n/a	wordpools/wordpool_EN.txt	RAT	3	19	[0, 0, 0]	n/a	FR1	1	R1221P
2899.113	2.45	1249419	WORD	n/a	wordpools/wordpool_EN.txt	CLAY	4	19	[0, 0, 0]	n/a	FR1	1	R1221P
2901.563	2.384	1250673	WORD	n/a	wordpools/wordpool_EN.txt	PIPE	5	19	[0, 0, 0]	n/a	FR1	1	R1221P
2903.947	2.583	1251894	WORD	n/a	wordpools/wordpool_EN.txt	PIT	6	19	[0, 0, 0]	n/a	FR1	1	R1221P
2906.53	2.435	1253216	WORD	n/a	wordpools/wordpool_EN.txt	CUP	7	19	[0, 0, 0]	n/a	FR1	1	R1221P
2908.965	2.516	1254463	WORD	n/a	wordpools/wordpool_EN.txt	HAND	8	19	[0, 0, 0]	n/a	FR1	1	R1221P
2911.481	2.368	1255751	WORD	n/a	wordpools/wordpool_EN.txt	PEACH	9	19	[0, 0, 0]	n/a	FR1	1	R1221P
2913.849	2.5	1256964	WORD	n/a	wordpools/wordpool_EN.txt	STONE	10	19	[0, 0, 0]	n/a	FR1	1	R1221P
2916.349	2.568	1258244	WORD	n/a	wordpools/wordpool_EN.txt	FLUTE	11	19	[0, 0, 0]	n/a	FR1	1	R1221P
2918.917	1.616	1259558	WORD	n/a	wordpools/wordpool_EN.txt	TOE	12	19	[0, 0, 0]	n/a	FR1	1	R1221P
2920.533	0.001	1260386	DISTRACT_START	n/a	n/a	n/a	-999	19	[0, 0, 0]	n/a	FR1	1	R1221P
2920.534	0.015	1260386	START	n/a	n/a	n/a	-999	19	[-999, -999, -999]	n/a	FR1	1	R1221P
2920.549	3.968	1260394	PROB	3.968	n/a	n/a	-999	19	[6, 1, 4]	11	FR1	1	R1221P
2924.517	3.735	1262426	PROB	3.735	n/a	n/a	-999	19	[3, 8, 7]	18	FR1	1	R1221P
2928.252	3.834	1264338	PROB	3.834	n/a	n/a	-999	19	[3, 6, 2]	11	FR1	1	R1221P
2932.086	5.051	1266301	PROB	5.051	n/a	n/a	-999	19	[4, 8, 7]	19	FR1	1	R1221P
2937.137	4.029	1268887	PROB	4.029	n/a	n/a	-999	19	[6, 6, 4]	16	FR1	1	R1221P
2941.166	0.005	1270950	STOP	n/a	n/a	n/a	-999	19	[-999, -999, -999]	n/a	FR1	1	R1221P
2941.171	1.151	1270952	DISTRACT_END	n/a	n/a	n/a	-999	19	[0, 0, 0]	n/a	FR1	1	R1221P
2942.322	0.792	1271541	REC_START	n/a	n/a	n/a	-999	19	[0, 0, 0]	n/a	FR1	1	R1221P
2943.114	0.678	1271947	REC_WORD	0.678	n/a	BREAD	1	19	[0, 0, 0]	n/a	FR1	1	R1221P
2943.792	1.0	1272294	REC_WORD	1.0	n/a	SPOON	2	19	[0, 0, 0]	n/a	FR1	1	R1221P
2944.792	0.707	1272806	REC_WORD_VV	0.707	n/a	<>	-999	19	[0, 0, 0]	n/a	FR1	1	R1221P
2945.499	0.917	1273168	REC_WORD	0.917	n/a	RAT	3	19	[0, 0, 0]	n/a	FR1	1	R1221P
2946.416	1.272	1273637	REC_WORD	1.272	n/a	CLAY	4	19	[0, 0, 0]	n/a	FR1	1	R1221P
2947.688	0.943	1274289	REC_WORD	0.943	n/a	PIPE	5	19	[0, 0, 0]	n/a	FR1	1	R1221P
2948.631	23.703	1274771	REC_WORD	23.703	n/a	HAND	8	19	[0, 0, 0]	n/a	FR1	1	R1221P
2972.334	2.326	1286907	REC_END	n/a	n/a	n/a	-999	19	[0, 0, 0]	n/a	FR1	1	R1221P
2974.66	0.0	1288098	COUNTDOWN_START	n/a	n/a	n/a	-999	20	[0, 0, 0]	n/a	FR1	1	R1221P
2974.66	10.428	1288098	TRIAL	n/a	n/a	n/a	-999	20	[0, 0, 0]	n/a	FR1	1	R1221P
2985.088	0.008	1293437	COUNTDOWN_END	n/a	n/a	n/a	-999	20	[0, 0, 0]	n/a	FR1	1	R1221P
2985.096	2.433	1293441	ORIENT	n/a	n/a	n/a	-999	20	[0, 0, 0]	n/a	FR1	1	R1221P
2987.529	2.534	1294687	WORD	n/a	wordpools/wordpool_EN.txt	DOG	1	20	[0, 0, 0]	n/a	FR1	1	R1221P
2990.063	2.583	1295984	WORD	n/a	wordpools/wordpool_EN.txt	LEG	2	20	[0, 0, 0]	n/a	FR1	1	R1221P
2992.646	2.402	1297306	WORD	n/a	wordpools/wordpool_EN.txt	STOOL	3	20	[0, 0, 0]	n/a	FR1	1	R1221P
2995.048	2.449	1298536	WORD	n/a	wordpools/wordpool_EN.txt	PLATE	4	20	[0, 0, 0]	n/a	FR1	1	R1221P
2997.497	2.618	1299790	WORD	n/a	wordpools/wordpool_EN.txt	CHALK	5	20	[0, 0, 0]	n/a	FR1	1	R1221P
3000.115	2.433	1301130	WORD	n/a	wordpools/wordpool_EN.txt	TRAY	6	20	[0, 0, 0]	n/a	FR1	1	R1221P
3002.548	2.568	1302376	WORD	n/a	wordpools/wordpool_EN.txt	WOOD	7	20	[0, 0, 0]	n/a	FR1	1	R1221P
3005.116	2.433	1303691	WORD	n/a	wordpools/wordpool_EN.txt	GLASS	8	20	[0, 0, 0]	n/a	FR1	1	R1221P
3007.549	2.502	1304937	WORD	n/a	wordpools/wordpool_EN.txt	STAIR	9	20	[0, 0, 0]	n/a	FR1	1	R1221P
3010.051	2.499	1306217	WORD	n/a	wordpools/wordpool_EN.txt	CROWN	10	20	[0, 0, 0]	n/a	FR1	1	R1221P
3012.55	2.468	1307497	WORD	n/a	wordpools/wordpool_EN.txt	SLUSH	11	20	[0, 0, 0]	n/a	FR1	1	R1221P
3015.018	1.616	1308761	WORD	n/a	wordpools/wordpool_EN.txt	SOCK	12	20	[0, 0, 0]	n/a	FR1	1	R1221P
3016.634	0.001	1309588	DISTRACT_START	n/a	n/a	n/a	-999	20	[0, 0, 0]	n/a	FR1	1	R1221P
3016.635	0.016	1309588	START	n/a	n/a	n/a	-999	20	[-999, -999, -999]	n/a	FR1	1	R1221P
3016.651	5.235	1309597	PROB	5.235	n/a	n/a	-999	20	[7, 1, 5]	13	FR1	1	R1221P
3021.886	3.801	1312277	PROB	3.801	n/a	n/a	-999	20	[7, 4, 4]	15	FR1	1	R1221P
3025.687	3.933	1314223	PROB	3.933	n/a	n/a	-999	20	[2, 5, 8]	15	FR1	1	R1221P
3029.62	3.502	1316236	PROB	3.502	n/a	n/a	-999	20	[5, 3, 4]	12	FR1	1	R1221P
3033.122	4.395	1318029	PROB	4.395	n/a	n/a	-999	20	[4, 3, 7]	15	FR1	1	R1221P
3037.517	0.004	1320280	STOP	n/a	n/a	n/a	-999	20	[-999, -999, -999]	n/a	FR1	1	R1221P
3037.521	1.034	1320282	DISTRACT_END	n/a	n/a	n/a	-999	20	[0, 0, 0]	n/a	FR1	1	R1221P
3038.555	0.626	1320811	REC_START	n/a	n/a	n/a	-999	20	[0, 0, 0]	n/a	FR1	1	R1221P
3039.181	1.019	1321132	REC_WORD	1.019	n/a	DOG	1	20	[0, 0, 0]	n/a	FR1	1	R1221P
3040.2	1.061	1321653	REC_WORD	1.061	n/a	LEG	2	20	[0, 0, 0]	n/a	FR1	1	R1221P
3041.261	0.929	1322196	REC_WORD	0.929	n/a	WOOD	7	20	[0, 0, 0]	n/a	FR1	1	R1221P
3042.19	1.741	1322672	REC_WORD	1.741	n/a	STAIR	9	20	[0, 0, 0]	n/a	FR1	1	R1221P
3043.931	24.641	1323563	REC_WORD	24.641	n/a	GRASS	-999	20	[0, 0, 0]	n/a	FR1	1	R1221P
3068.572	2.29	1336179	REC_END	n/a	n/a	n/a	-999	20	[0, 0, 0]	n/a	FR1	1	R1221P
3070.862	0.0	1337352	TRIAL	n/a	n/a	n/a	-999	21	[0, 0, 0]	n/a	FR1	1	R1221P
3070.862	10.428	1337352	COUNTDOWN_START	n/a	n/a	n/a	-999	21	[0, 0, 0]	n/a	FR1	1	R1221P
3081.29	0.007	1342691	COUNTDOWN_END	n/a	n/a	n/a	-999	21	[0, 0, 0]	n/a	FR1	1	R1221P
3081.297	2.534	1342694	ORIENT	n/a	n/a	n/a	-999	21	[0, 0, 0]	n/a	FR1	1	R1221P
3083.831	2.4	1343992	WORD	n/a	wordpools/wordpool_EN.txt	STEAK	1	21	[0, 0, 0]	n/a	FR1	1	R1221P
3086.231	2.584	1345220	WORD	n/a	wordpools/wordpool_EN.txt	EAR	2	21	[0, 0, 0]	n/a	FR1	1	R1221P
3088.815	2.401	1346543	WORD	n/a	wordpools/wordpool_EN.txt	MOUTH	3	21	[0, 0, 0]	n/a	FR1	1	R1221P
3091.216	2.617	1347773	WORD	n/a	wordpools/wordpool_EN.txt	CAGE	4	21	[0, 0, 0]	n/a	FR1	1	R1221P
3093.833	2.434	1349112	WORD	n/a	wordpools/wordpool_EN.txt	PHONE	5	21	[0, 0, 0]	n/a	FR1	1	R1221P
3096.267	2.534	1350359	WORD	n/a	wordpools/wordpool_EN.txt	MULE	6	21	[0, 0, 0]	n/a	FR1	1	R1221P
3098.801	2.549	1351656	WORD	n/a	wordpools/wordpool_EN.txt	ARK	7	21	[0, 0, 0]	n/a	FR1	1	R1221P
3101.35	2.468	1352961	WORD	n/a	wordpools/wordpool_EN.txt	BOY	8	21	[0, 0, 0]	n/a	FR1	1	R1221P
3103.818	2.616	1354225	WORD	n/a	wordpools/wordpool_EN.txt	TEETH	9	21	[0, 0, 0]	n/a	FR1	1	R1221P
3106.434	2.585	1355564	WORD	n/a	wordpools/wordpool_EN.txt	SEAL	10	21	[0, 0, 0]	n/a	FR1	1	R1221P
3109.019	2.533	1356887	WORD	n/a	wordpools/wordpool_EN.txt	TOOTH	11	21	[0, 0, 0]	n/a	FR1	1	R1221P
3111.552	1.601	1358184	WORD	n/a	wordpools/wordpool_EN.txt	PEAR	12	21	[0, 0, 0]	n/a	FR1	1	R1221P
3113.153	0.001	1359004	DISTRACT_START	n/a	n/a	n/a	-999	21	[0, 0, 0]	n/a	FR1	1	R1221P
3113.154	0.016	1359004	START	n/a	n/a	n/a	-999	21	[-999, -999, -999]	n/a	FR1	1	R1221P
3113.17	4.4	1359013	PROB	4.4	n/a	n/a	-999	21	[8, 6, 4]	18	FR1	1	R1221P
3117.57	2.701	1361265	PROB	2.701	n/a	n/a	-999	21	[2, 9, 1]	12	FR1	1	R1221P
3120.271	3.451	1362648	PROB	3.451	n/a	n/a	-999	21	[3, 3, 9]	15	FR1	1	R1221P
3123.722	5.168	1364415	PROB	5.168	n/a	n/a	-999	21	[4, 2, 7]	13	FR1	1	R1221P
3128.89	4.437	1367061	PROB	4.437	n/a	n/a	-999	21	[6, 3, 6]	15	FR1	1	R1221P
3133.327	0.013	1369333	STOP	n/a	n/a	n/a	-999	21	[-999, -999, -999]	n/a	FR1	1	R1221P
3133.34	1.217	1369339	DISTRACT_END	n/a	n/a	n/a	-999	21	[0, 0, 0]	n/a	FR1	1	R1221P
3134.557	0.514	1369962	REC_START	n/a	n/a	n/a	-999	21	[0, 0, 0]	n/a	FR1	1	R1221P
3135.071	1.106	1370226	REC_WORD	1.106	n/a	STEAK	1	21	[0, 0, 0]	n/a	FR1	1	R1221P
3136.177	1.928	1370792	REC_WORD	1.928	n/a	EAR	2	21	[0, 0, 0]	n/a	FR1	1	R1221P
3138.105	0.742	1371779	REC_WORD	0.742	n/a	MOUTH	3	21	[0, 0, 0]	n/a	FR1	1	R1221P
3138.847	1.235	1372159	REC_WORD	1.235	n/a	CAGE	4	21	[0, 0, 0]	n/a	FR1	1	R1221P
3140.082	24.487	1372791	REC_WORD	24.487	n/a	BOY	8	21	[0, 0, 0]	n/a	FR1	1	R1221P
3164.569	2.043	1385328	REC_END	n/a	n/a	n/a	-999	21	[0, 0, 0]	n/a	FR1	1	R1221P
3166.612	0.0	1386374	COUNTDOWN_START	n/a	n/a	n/a	-999	22	[0, 0, 0]	n/a	FR1	1	R1221P
3166.612	10.428	1386374	TRIAL	n/a	n/a	n/a	-999	22	[0, 0, 0]	n/a	FR1	1	R1221P
3177.04	0.009	1391713	COUNTDOWN_END	n/a	n/a	n/a	-999	22	[0, 0, 0]	n/a	FR1	1	R1221P
3177.049	2.549	1391718	ORIENT	n/a	n/a	n/a	-999	22	[0, 0, 0]	n/a	FR1	1	R1221P
3179.598	2.618	1393023	WORD	n/a	wordpools/wordpool_EN.txt	HAT	1	22	[0, 0, 0]	n/a	FR1	1	R1221P
3182.216	2.383	1394363	WORD	n/a	wordpools/wordpool_EN.txt	BATH	2	22	[0, 0, 0]	n/a	FR1	1	R1221P
3184.599	2.601	1395583	WORD	n/a	wordpools/wordpool_EN.txt	COW	3	22	[0, 0, 0]	n/a	FR1	1	R1221P
3187.2	2.4	1396915	WORD	n/a	wordpools/wordpool_EN.txt	GATE	4	22	[0, 0, 0]	n/a	FR1	1	R1221P
3189.6	2.568	1398144	WORD	n/a	wordpools/wordpool_EN.txt	MUD	5	22	[0, 0, 0]	n/a	FR1	1	R1221P
3192.168	2.45	1399458	WORD	n/a	wordpools/wordpool_EN.txt	DIME	6	22	[0, 0, 0]	n/a	FR1	1	R1221P
3194.618	2.484	1400713	WORD	n/a	wordpools/wordpool_EN.txt	MOOSE	7	22	[0, 0, 0]	n/a	FR1	1	R1221P
3197.102	2.483	1401984	WORD	n/a	wordpools/wordpool_EN.txt	SPRING	8	22	[0, 0, 0]	n/a	FR1	1	R1221P
3199.585	2.552	1403256	WORD	n/a	wordpools/wordpool_EN.txt	FACE	9	22	[0, 0, 0]	n/a	FR1	1	R1221P
3202.137	2.55	1404562	WORD	n/a	wordpools/wordpool_EN.txt	GOAT	10	22	[0, 0, 0]	n/a	FR1	1	R1221P
3204.687	2.384	1405868	WORD	n/a	wordpools/wordpool_EN.txt	SINK	11	22	[0, 0, 0]	n/a	FR1	1	R1221P
3207.071	1.617	1407088	WORD	n/a	wordpools/wordpool_EN.txt	TEA	12	22	[0, 0, 0]	n/a	FR1	1	R1221P
3208.688	0.001	1407916	DISTRACT_START	n/a	n/a	n/a	-999	22	[0, 0, 0]	n/a	FR1	1	R1221P
3208.689	0.015	1407917	START	n/a	n/a	n/a	-999	22	[-999, -999, -999]	n/a	FR1	1	R1221P
3208.704	4.667	1407924	PROB	4.667	n/a	n/a	-999	22	[9, 7, 7]	23	FR1	1	R1221P
3213.371	3.652	1410314	PROB	3.652	n/a	n/a	-999	22	[4, 6, 3]	13	FR1	1	R1221P
3217.023	3.9	1412184	PROB	3.9	n/a	n/a	-999	22	[2, 9, 9]	20	FR1	1	R1221P
3220.923	3.785	1414180	PROB	3.785	n/a	n/a	-999	22	[9, 7, 5]	22	FR1	1	R1221P
3224.708	2.932	1416118	PROB	2.932	n/a	n/a	-999	22	[2, 5, 1]	8	FR1	1	R1221P
3227.64	4.439	1417619	PROB	4.439	n/a	n/a	-999	22	[3, 6, 8]	16	FR1	1	R1221P
3232.079	0.013	1419892	STOP	n/a	n/a	n/a	-999	22	[-999, -999, -999]	n/a	FR1	1	R1221P
3232.092	1.134	1419899	DISTRACT_END	n/a	n/a	n/a	-999	22	[0, 0, 0]	n/a	FR1	1	R1221P
3233.226	0.948	1420479	REC_START	n/a	n/a	n/a	-999	22	[0, 0, 0]	n/a	FR1	1	R1221P
3234.174	0.888	1420965	REC_WORD	0.888	n/a	HAT	1	22	[0, 0, 0]	n/a	FR1	1	R1221P
3235.062	1.368	1421419	REC_WORD	1.368	n/a	BATH	2	22	[0, 0, 0]	n/a	FR1	1	R1221P
3236.43	2.482	1422120	REC_WORD	2.482	n/a	CAT	-999	22	[0, 0, 0]	n/a	FR1	1	R1221P
3238.912	2.84	1423390	REC_WORD	2.84	n/a	GOLF	-999	22	[0, 0, 0]	n/a	FR1	1	R1221P
3241.752	1.664	1424845	REC_WORD	1.664	n/a	MATH	-999	22	[0, 0, 0]	n/a	FR1	1	R1221P
3243.416	19.826	1425696	REC_WORD	19.826	n/a	BOY	-999	22	[0, 0, 0]	n/a	FR1	1	R1221P
3263.242	2.189	1435847	REC_END	n/a	n/a	n/a	-999	22	[0, 0, 0]	n/a	FR1	1	R1221P
3265.431	0.0	1436968	TRIAL	n/a	n/a	n/a	-999	23	[0, 0, 0]	n/a	FR1	1	R1221P
3265.431	10.428	1436968	COUNTDOWN_START	n/a	n/a	n/a	-999	23	[0, 0, 0]	n/a	FR1	1	R1221P
3275.859	0.008	1442307	COUNTDOWN_END	n/a	n/a	n/a	-999	23	[0, 0, 0]	n/a	FR1	1	R1221P
3275.867	2.467	1442311	ORIENT	n/a	n/a	n/a	-999	23	[0, 0, 0]	n/a	FR1	1	R1221P
3278.334	2.617	1443574	WORD	n/a	wordpools/wordpool_EN.txt	TANK	1	23	[0, 0, 0]	n/a	FR1	1	R1221P
3280.951	2.566	1444914	WORD	n/a	wordpools/wordpool_EN.txt	MAZE	2	23	[0, 0, 0]	n/a	FR1	1	R1221P
3283.517	2.469	1446227	WORD	n/a	wordpools/wordpool_EN.txt	CAR	3	23	[0, 0, 0]	n/a	FR1	1	R1221P
3285.986	2.382	1447492	WORD	n/a	wordpools/wordpool_EN.txt	VAN	4	23	[0, 0, 0]	n/a	FR1	1	R1221P
3288.368	2.452	1448711	WORD	n/a	wordpools/wordpool_EN.txt	SAIL	5	23	[0, 0, 0]	n/a	FR1	1	R1221P
3290.82	2.434	1449967	WORD	n/a	wordpools/wordpool_EN.txt	BOARD	6	23	[0, 0, 0]	n/a	FR1	1	R1221P
3293.254	2.533	1451213	WORD	n/a	wordpools/wordpool_EN.txt	SOUP	7	23	[0, 0, 0]	n/a	FR1	1	R1221P
3295.787	2.617	1452510	WORD	n/a	wordpools/wordpool_EN.txt	TOY	8	23	[0, 0, 0]	n/a	FR1	1	R1221P
3298.404	2.434	1453849	WORD	n/a	wordpools/wordpool_EN.txt	BRICK	9	23	[0, 0, 0]	n/a	FR1	1	R1221P
3300.838	2.501	1455096	WORD	n/a	wordpools/wordpool_EN.txt	JAIL	10	23	[0, 0, 0]	n/a	FR1	1	R1221P
3303.339	2.55	1456376	WORD	n/a	wordpools/wordpool_EN.txt	STORM	11	23	[0, 0, 0]	n/a	FR1	1	R1221P
3305.889	1.616	1457682	WORD	n/a	wordpools/wordpool_EN.txt	BANK	12	23	[0, 0, 0]	n/a	FR1	1	R1221P
3307.505	0.001	1458509	DISTRACT_START	n/a	n/a	n/a	-999	23	[0, 0, 0]	n/a	FR1	1	R1221P
3307.506	0.016	1458509	START	n/a	n/a	n/a	-999	23	[-999, -999, -999]	n/a	FR1	1	R1221P
3307.522	4.769	1458518	PROB	4.769	n/a	n/a	-999	23	[8, 4, 5]	17	FR1	1	R1221P
3312.291	3.834	1460959	PROB	3.834	n/a	n/a	-999	23	[1, 7, 6]	14	FR1	1	R1221P
3316.125	3.667	1462922	PROB	3.667	n/a	n/a	-999	23	[3, 7, 4]	14	FR1	1	R1221P
3319.792	2.683	1464800	PROB	2.683	n/a	n/a	-999	23	[1, 4, 1]	6	FR1	1	R1221P
3322.475	4.184	1466173	PROB	4.184	n/a	n/a	-999	23	[9, 5, 7]	21	FR1	1	R1221P
3326.659	3.323	1468315	PROB	3.323	n/a	n/a	-999	23	[8, 2, 6]	16	FR1	1	R1221P
3329.982	0.012	1470017	STOP	n/a	n/a	n/a	-999	23	[-999, -999, -999]	n/a	FR1	1	R1221P
3329.994	1.151	1470023	DISTRACT_END	n/a	n/a	n/a	-999	23	[0, 0, 0]	n/a	FR1	1	R1221P
3331.145	0.824	1470612	REC_START	n/a	n/a	n/a	-999	23	[0, 0, 0]	n/a	FR1	1	R1221P
3331.969	0.883	1471034	REC_WORD	0.883	n/a	TANK	1	23	[0, 0, 0]	n/a	FR1	1	R1221P
3332.852	1.051	1471486	REC_WORD	1.051	n/a	MAZE	2	23	[0, 0, 0]	n/a	FR1	1	R1221P
3333.903	0.891	1472024	REC_WORD	0.891	n/a	CAR	3	23	[0, 0, 0]	n/a	FR1	1	R1221P
3334.794	0.913	1472480	REC_WORD	0.913	n/a	VAN	4	23	[0, 0, 0]	n/a	FR1	1	R1221P
3335.707	1.155	1472948	REC_WORD	1.155	n/a	SAIL	5	23	[0, 0, 0]	n/a	FR1	1	R1221P
3336.862	24.294	1473539	REC_WORD	24.294	n/a	TOY	8	23	[0, 0, 0]	n/a	FR1	1	R1221P
3361.156	2.426	1485977	REC_END	n/a	n/a	n/a	-999	23	[0, 0, 0]	n/a	FR1	1	R1221P
3363.582	0.001	1487219	COUNTDOWN_START	n/a	n/a	n/a	-999	24	[0, 0, 0]	n/a	FR1	1	R1221P
3363.583	10.427	1487220	TRIAL	n/a	n/a	n/a	-999	24	[0, 0, 0]	n/a	FR1	1	R1221P
3374.01	0.009	1492558	COUNTDOWN_END	n/a	n/a	n/a	-999	24	[0, 0, 0]	n/a	FR1	1	R1221P
3374.019	2.499	1492563	ORIENT	n/a	n/a	n/a	-999	24	[0, 0, 0]	n/a	FR1	1	R1221P
3376.518	2.468	1493842	WORD	n/a	wordpools/wordpool_EN.txt	CAT	1	24	[0, 0, 0]	n/a	FR1	1	R1221P
3378.986	2.467	1495106	WORD	n/a	wordpools/wordpool_EN.txt	TRAIN	2	24	[0, 0, 0]	n/a	FR1	1	R1221P
3381.453	2.401	1496369	WORD	n/a	wordpools/wordpool_EN.txt	JEEP	3	24	[0, 0, 0]	n/a	FR1	1	R1221P
3383.854	2.566	1497598	WORD	n/a	wordpools/wordpool_EN.txt	MOON	4	24	[0, 0, 0]	n/a	FR1	1	R1221P
3386.42	2.385	1498912	WORD	n/a	wordpools/wordpool_EN.txt	PRINCE	5	24	[0, 0, 0]	n/a	FR1	1	R1221P
3388.805	2.45	1500133	WORD	n/a	wordpools/wordpool_EN.txt	HEART	6	24	[0, 0, 0]	n/a	FR1	1	R1221P
3391.255	2.518	1501388	WORD	n/a	wordpools/wordpool_EN.txt	BEAR	7	24	[0, 0, 0]	n/a	FR1	1	R1221P
3393.773	2.383	1502677	WORD	n/a	wordpools/wordpool_EN.txt	GOLD	8	24	[0, 0, 0]	n/a	FR1	1	R1221P
3396.156	2.433	1503897	WORD	n/a	wordpools/wordpool_EN.txt	GRAPE	9	24	[0, 0, 0]	n/a	FR1	1	R1221P
3398.589	2.518	1505142	WORD	n/a	wordpools/wordpool_EN.txt	BALL	10	24	[0, 0, 0]	n/a	FR1	1	R1221P
3401.107	2.617	1506432	WORD	n/a	wordpools/wordpool_EN.txt	FARM	11	24	[0, 0, 0]	n/a	FR1	1	R1221P
3403.724	1.617	1507771	WORD	n/a	wordpools/wordpool_EN.txt	APE	12	24	[0, 0, 0]	n/a	FR1	1	R1221P
3405.341	0.001	1508599	DISTRACT_START	n/a	n/a	n/a	-999	24	[0, 0, 0]	n/a	FR1	1	R1221P
3405.342	0.015	1508600	START	n/a	n/a	n/a	-999	24	[-999, -999, -999]	n/a	FR1	1	R1221P
3405.357	4.335	1508608	PROB	4.335	n/a	n/a	-999	24	[7, 7, 5]	19	FR1	1	R1221P
3409.692	4.468	1510827	PROB	4.468	n/a	n/a	-999	24	[9, 3, 6]	18	FR1	1	R1221P
3414.16	3.366	1513115	PROB	3.366	n/a	n/a	-999	24	[4, 2, 5]	11	FR1	1	R1221P
3417.526	4.017	1514838	PROB	4.017	n/a	n/a	-999	24	[5, 8, 1]	14	FR1	1	R1221P
3421.543	3.942	1516894	PROB	3.942	n/a	n/a	-999	24	[6, 5, 4]	15	FR1	1	R1221P
3425.485	0.009	1518913	STOP	n/a	n/a	n/a	-999	24	[-999, -999, -999]	n/a	FR1	1	R1221P
3425.494	1.068	1518917	DISTRACT_END	n/a	n/a	n/a	-999	24	[0, 0, 0]	n/a	FR1	1	R1221P
3426.562	0.807	1519464	REC_START	n/a	n/a	n/a	-999	24	[0, 0, 0]	n/a	FR1	1	R1221P
3427.369	1.219	1519877	REC_WORD	1.219	n/a	CAT	1	24	[0, 0, 0]	n/a	FR1	1	R1221P
3428.588	0.958	1520501	REC_WORD	0.958	n/a	TRIP	-999	24	[0, 0, 0]	n/a	FR1	1	R1221P
3429.546	2.681	1520992	REC_WORD	2.681	n/a	PRINCE	5	24	[0, 0, 0]	n/a	FR1	1	R1221P
3432.227	24.347	1522365	REC_WORD	24.347	n/a	BALL	10	24	[0, 0, 0]	n/a	FR1	1	R1221P
3456.574	2.344	1534830	REC_END	n/a	n/a	n/a	-999	24	[0, 0, 0]	n/a	FR1	1	R1221P
3458.918	0.0	1536030	TRIAL	n/a	n/a	n/a	-999	25	[0, 0, 0]	n/a	FR1	1	R1221P
3458.918	10.428	1536030	COUNTDOWN_START	n/a	n/a	n/a	-999	25	[0, 0, 0]	n/a	FR1	1	R1221P
3469.346	0.006	1541369	COUNTDOWN_END	n/a	n/a	n/a	-999	25	[0, 0, 0]	n/a	FR1	1	R1221P
3469.352	2.468	1541372	ORIENT	n/a	n/a	n/a	-999	25	[0, 0, 0]	n/a	FR1	1	R1221P
3471.82	2.567	1542635	WORD	n/a	wordpools/wordpool_EN.txt	STRING	1	25	[0, 0, 0]	n/a	FR1	1	R1221P
3474.387	2.551	1543950	WORD	n/a	wordpools/wordpool_EN.txt	CLOUD	2	25	[0, 0, 0]	n/a	FR1	1	R1221P
3476.938	2.4	1545256	WORD	n/a	wordpools/wordpool_EN.txt	HOOK	3	25	[0, 0, 0]	n/a	FR1	1	R1221P
3479.338	2.518	1546485	WORD	n/a	wordpools/wordpool_EN.txt	PEA	4	25	[0, 0, 0]	n/a	FR1	1	R1221P
3481.856	2.499	1547774	WORD	n/a	wordpools/wordpool_EN.txt	TREE	5	25	[0, 0, 0]	n/a	FR1	1	R1221P
3484.355	2.518	1549053	WORD	n/a	wordpools/wordpool_EN.txt	HEN	6	25	[0, 0, 0]	n/a	FR1	1	R1221P
3486.873	2.401	1550342	WORD	n/a	wordpools/wordpool_EN.txt	OWL	7	25	[0, 0, 0]	n/a	FR1	1	R1221P
3489.274	2.567	1551572	WORD	n/a	wordpools/wordpool_EN.txt	PIN	8	25	[0, 0, 0]	n/a	FR1	1	R1221P
3491.841	2.483	1552886	WORD	n/a	wordpools/wordpool_EN.txt	PLANE	9	25	[0, 0, 0]	n/a	FR1	1	R1221P
3494.324	2.501	1554157	WORD	n/a	wordpools/wordpool_EN.txt	SKY	10	25	[0, 0, 0]	n/a	FR1	1	R1221P
3496.825	2.484	1555438	WORD	n/a	wordpools/wordpool_EN.txt	NEST	11	25	[0, 0, 0]	n/a	FR1	1	R1221P
3499.309	1.617	1556709	WORD	n/a	wordpools/wordpool_EN.txt	SQUARE	12	25	[0, 0, 0]	n/a	FR1	1	R1221P
3500.926	0.001	1557537	DISTRACT_START	n/a	n/a	n/a	-999	25	[0, 0, 0]	n/a	FR1	1	R1221P
3500.927	0.016	1557538	START	n/a	n/a	n/a	-999	25	[-999, -999, -999]	n/a	FR1	1	R1221P
3500.943	4.817	1557546	PROB	4.817	n/a	n/a	-999	25	[2, 7, 6]	14	FR1	1	R1221P
3505.76	3.75	1560012	PROB	3.75	n/a	n/a	-999	25	[6, 3, 6]	15	FR1	1	R1221P
3509.51	3.168	1561932	PROB	3.168	n/a	n/a	-999	25	[5, 4, 2]	11	FR1	1	R1221P
3512.678	4.251	1563554	PROB	4.251	n/a	n/a	-999	25	[3, 6, 4]	13	FR1	1	R1221P
3516.929	3.616	1565731	PROB	3.616	n/a	n/a	-999	25	[9, 4, 7]	20	FR1	1	R1221P
3520.545	3.869	1567582	PROB	3.869	n/a	n/a	-999	25	[2, 4, 5]	11	FR1	1	R1221P
3524.414	0.015	1569563	STOP	n/a	n/a	n/a	-999	25	[-999, -999, -999]	n/a	FR1	1	R1221P
3524.429	1.185	1569570	DISTRACT_END	n/a	n/a	n/a	-999	25	[0, 0, 0]	n/a	FR1	1	R1221P
3525.614	0.628	1570177	REC_START	n/a	n/a	n/a	-999	25	[0, 0, 0]	n/a	FR1	1	R1221P
3526.242	1.37	1570499	REC_WORD	1.37	n/a	CLEAN	-999	25	[0, 0, 0]	n/a	FR1	1	R1221P
3527.612	1.435	1571200	REC_WORD	1.435	n/a	STRAW	-999	25	[0, 0, 0]	n/a	FR1	1	R1221P
3529.047	2.622	1571935	REC_WORD	2.622	n/a	HOOK	3	25	[0, 0, 0]	n/a	FR1	1	R1221P
3531.669	23.957	1573277	REC_WORD	23.957	n/a	BALL	-999	25	[0, 0, 0]	n/a	FR1	1	R1221P
3555.626	14.53	1585543	REC_END	n/a	n/a	n/a	-999	25	[0, 0, 0]	n/a	FR1	1	R1221P
3570.156	0.0	1592982	SESS_END	n/a	n/a	n/a	-999	25	[0, 0, 0]	n/a	FR1	1	R1221P
