onset	duration	sample	trial_type	response_time	stim_file	item_name	serialpos	list	test	answer	experiment	session	subject
0.0	75.193	1805	INSTRUCT_START	n/a	n/a	n/a	-999	-999	[0, 0, 0]	n/a	FR1	1	R1363T
75.193	1.767	76993	INSTRUCT_END	n/a	n/a	n/a	-999	-999	[0, 0, 0]	n/a	FR1	1	R1363T
76.96	9.871	78760	MIC TEST_START	n/a	n/a	n/a	-999	-999	[0, 0, 0]	n/a	FR1	1	R1363T
86.831	0.014	88630	MIC TEST_END	n/a	n/a	n/a	-999	-999	[0, 0, 0]	n/a	FR1	1	R1363T
86.845	0.0	88644	TRIAL_START	n/a	n/a	n/a	-999	-1	[0, 0, 0]	n/a	FR1	1	R1363T
86.845	0.0	88644	TRIAL	n/a	n/a	n/a	-999	-1	[0, 0, 0]	n/a	FR1	1	R1363T
86.845	186.967	88644	WAITING_START	n/a	n/a	n/a	-999	-1	[0, 0, 0]	n/a	FR1	1	R1363T
273.812	0.001	275597	WAITING_END	n/a	n/a	n/a	-999	-1	[0, 0, 0]	n/a	FR1	1	R1363T
273.813	10.429	275598	COUNTDOWN_START	n/a	n/a	n/a	-999	-1	[0, 0, 0]	n/a	FR1	1	R1363T
284.242	0.0	286026	COUNTDOWN_END	n/a	n/a	n/a	-999	-1	[0, 0, 0]	n/a	FR1	1	R1363T
284.242	1.205	286026	ORIENT_START	n/a	n/a	n/a	-999	-1	[0, 0, 0]	n/a	FR1	1	R1363T
285.447	0.0	287231	ENCODING_START	n/a	n/a	n/a	-999	-1	[0, 0, 0]	n/a	FR1	1	R1363T
285.447	0.886	287231	ORIENT_END	n/a	n/a	n/a	-999	-1	[0, 0, 0]	n/a	FR1	1	R1363T
286.333	1.632	288117	WORD	n/a	n/a	CAMEL	1	-1	[0, 0, 0]	n/a	FR1	1	R1363T
287.965	0.757	289749	WORD_OFF	n/a	n/a	CAMEL	1	-1	[0, 0, 0]	n/a	FR1	1	R1363T
288.722	1.626	290506	WORD	n/a	n/a	BEAM	2	-1	[0, 0, 0]	n/a	FR1	1	R1363T
290.348	0.791	292132	WORD_OFF	n/a	n/a	BEAM	2	-1	[0, 0, 0]	n/a	FR1	1	R1363T
291.139	1.627	292923	WORD	n/a	n/a	WAGON	3	-1	[0, 0, 0]	n/a	FR1	1	R1363T
292.766	1.013	294550	WORD_OFF	n/a	n/a	WAGON	3	-1	[0, 0, 0]	n/a	FR1	1	R1363T
293.779	1.636	295563	WORD	n/a	n/a	IMAGE	4	-1	[0, 0, 0]	n/a	FR1	1	R1363T
295.415	0.9	297199	WORD_OFF	n/a	n/a	IMAGE	4	-1	[0, 0, 0]	n/a	FR1	1	R1363T
296.315	1.618	298098	WORD	n/a	n/a	WATCH	5	-1	[0, 0, 0]	n/a	FR1	1	R1363T
297.933	0.979	299716	WORD_OFF	n/a	n/a	WATCH	5	-1	[0, 0, 0]	n/a	FR1	1	R1363T
298.912	1.639	300695	WORD	n/a	n/a	COTTON	6	-1	[0, 0, 0]	n/a	FR1	1	R1363T
300.551	0.941	302334	WORD_OFF	n/a	n/a	COTTON	6	-1	[0, 0, 0]	n/a	FR1	1	R1363T
301.492	1.626	303275	WORD	n/a	n/a	CHEST	7	-1	[0, 0, 0]	n/a	FR1	1	R1363T
303.118	0.878	304901	WORD_OFF	n/a	n/a	CHEST	7	-1	[0, 0, 0]	n/a	FR1	1	R1363T
303.996	1.622	305779	WORD	n/a	n/a	BABY	8	-1	[0, 0, 0]	n/a	FR1	1	R1363T
305.618	1.147	307401	WORD_OFF	n/a	n/a	BABY	8	-1	[0, 0, 0]	n/a	FR1	1	R1363T
306.765	1.636	308548	WORD	n/a	n/a	FLOOD	9	-1	[0, 0, 0]	n/a	FR1	1	R1363T
308.401	0.992	310184	WORD_OFF	n/a	n/a	FLOOD	9	-1	[0, 0, 0]	n/a	FR1	1	R1363T
309.393	1.609	311175	WORD	n/a	n/a	TONGUE	10	-1	[0, 0, 0]	n/a	FR1	1	R1363T
311.002	0.905	312784	WORD_OFF	n/a	n/a	TONGUE	10	-1	[0, 0, 0]	n/a	FR1	1	R1363T
311.907	1.629	313689	WORD	n/a	n/a	RING	11	-1	[0, 0, 0]	n/a	FR1	1	R1363T
313.536	1.049	315318	WORD_OFF	n/a	n/a	RING	11	-1	[0, 0, 0]	n/a	FR1	1	R1363T
314.585	1.635	316367	WORD	n/a	n/a	RHINO	12	-1	[0, 0, 0]	n/a	FR1	1	R1363T
316.22	0.001	318002	WORD_OFF	n/a	n/a	RHINO	12	-1	[0, 0, 0]	n/a	FR1	1	R1363T
316.221	0.0	318003	ENCODING_END	n/a	n/a	n/a	-999	-1	[0, 0, 0]	n/a	FR1	1	R1363T
316.221	0.0	318003	DISTRACT_START	n/a	n/a	n/a	-999	-1	[0, 0, 0]	n/a	FR1	1	R1363T
316.221	0.016	318003	START	n/a	n/a	n/a	-999	-1	[-999, -999, -999]	n/a	FR1	1	R1363T
316.237	5.501	318019	PROB	5.501	n/a	n/a	-999	-1	[3, 1, 6]	12	FR1	1	R1363T
321.738	10.301	323520	PROB	10.301	n/a	n/a	-999	-1	[8, 6, 2]	16	FR1	1	R1363T
332.039	7.82	333820	PROB	7.82	n/a	n/a	-999	-1	[6, 2, 1]	9	FR1	1	R1363T
339.859	0.015	341639	STOP	n/a	n/a	n/a	-999	-1	[-999, -999, -999]	n/a	FR1	1	R1363T
339.874	0.534	341654	DISTRACT_END	n/a	n/a	n/a	-999	-1	[0, 0, 0]	n/a	FR1	1	R1363T
340.408	1.567	342188	RETRIEVAL_ORIENT_START	n/a	n/a	n/a	-999	-1	[0, 0, 0]	n/a	FR1	1	R1363T
341.975	0.0	343755	RETRIEVAL_ORIENT_END	n/a	n/a	n/a	-999	-1	[0, 0, 0]	n/a	FR1	1	R1363T
341.975	3.032	343755	REC_START	n/a	n/a	n/a	-999	-1	[0, 0, 0]	n/a	FR1	1	R1363T
345.007	0.327	346787	REC_WORD_VV	0.327	n/a	<>	-999	-1	[0, 0, 0]	n/a	FR1	1	R1363T
345.334	0.501	347114	REC_WORD	0.501	n/a	WATCH	-999	-1	[0, 0, 0]	n/a	FR1	1	R1363T
345.835	2.076	347615	REC_WORD	2.076	n/a	CAMEL	-999	-1	[0, 0, 0]	n/a	FR1	1	R1363T
347.911	4.775	349691	REC_WORD	4.775	n/a	WALL	-999	-1	[0, 0, 0]	n/a	FR1	1	R1363T
352.686	1.0	354465	REC_WORD_VV	1.0	n/a	<>	-999	-1	[0, 0, 0]	n/a	FR1	1	R1363T
353.686	18.303	355465	REC_WORD_VV	18.303	n/a	<>	-999	-1	[0, 0, 0]	n/a	FR1	1	R1363T
371.989	0.0	373767	REC_END	n/a	n/a	n/a	-999	-1	[0, 0, 0]	n/a	FR1	1	R1363T
371.989	120.08	373767	PRACTICE_POST_INSTRUCT_START	n/a	n/a	n/a	-999	-1	[0, 0, 0]	n/a	FR1	1	R1363T
492.069	0.001	493838	PRACTICE_POST_INSTRUCT_END	n/a	n/a	n/a	-999	-1	[0, 0, 0]	n/a	FR1	1	R1363T
492.07	0.02	493839	TRIAL_END	n/a	n/a	n/a	-999	-1	[0, 0, 0]	n/a	FR1	1	R1363T
492.09	0.0	493859	TRIAL_START	n/a	n/a	n/a	-999	1	[0, 0, 0]	n/a	FR1	1	R1363T
492.09	0.001	493859	TRIAL	n/a	n/a	n/a	-999	1	[0, 0, 0]	n/a	FR1	1	R1363T
492.091	19.064	493860	WAITING_START	n/a	n/a	n/a	-999	1	[0, 0, 0]	n/a	FR1	1	R1363T
511.155	0.0	512922	WAITING_END	n/a	n/a	n/a	-999	1	[0, 0, 0]	n/a	FR1	1	R1363T
511.155	10.431	512922	COUNTDOWN_START	n/a	n/a	n/a	-999	1	[0, 0, 0]	n/a	FR1	1	R1363T
521.586	0.0	523353	ORIENT_START	n/a	n/a	n/a	-999	1	[0, 0, 0]	n/a	FR1	1	R1363T
521.586	1.155	523353	COUNTDOWN_END	n/a	n/a	n/a	-999	1	[0, 0, 0]	n/a	FR1	1	R1363T
522.741	0.0	524508	ORIENT_END	n/a	n/a	n/a	-999	1	[0, 0, 0]	n/a	FR1	1	R1363T
522.741	1.025	524508	ENCODING_START	n/a	n/a	n/a	-999	1	[0, 0, 0]	n/a	FR1	1	R1363T
523.766	1.624	525533	WORD	n/a	n/a	PLANE	1	1	[0, 0, 0]	n/a	FR1	1	R1363T
525.39	1.15	527156	WORD_OFF	n/a	n/a	PLANE	1	1	[0, 0, 0]	n/a	FR1	1	R1363T
526.54	1.635	528306	WORD	n/a	n/a	SHOE	2	1	[0, 0, 0]	n/a	FR1	1	R1363T
528.175	0.972	529941	WORD_OFF	n/a	n/a	SHOE	2	1	[0, 0, 0]	n/a	FR1	1	R1363T
529.147	1.628	530913	WORD	n/a	n/a	COIN	3	1	[0, 0, 0]	n/a	FR1	1	R1363T
530.775	1.095	532541	WORD_OFF	n/a	n/a	COIN	3	1	[0, 0, 0]	n/a	FR1	1	R1363T
531.87	1.622	533636	WORD	n/a	n/a	TEETH	4	1	[0, 0, 0]	n/a	FR1	1	R1363T
533.492	0.894	535258	WORD_OFF	n/a	n/a	TEETH	4	1	[0, 0, 0]	n/a	FR1	1	R1363T
534.386	1.624	536152	WORD	n/a	n/a	SWORD	5	1	[0, 0, 0]	n/a	FR1	1	R1363T
536.01	0.97	537776	WORD_OFF	n/a	n/a	SWORD	5	1	[0, 0, 0]	n/a	FR1	1	R1363T
536.98	1.63	538746	WORD	n/a	n/a	BROOM	6	1	[0, 0, 0]	n/a	FR1	1	R1363T
538.61	0.96	540375	WORD_OFF	n/a	n/a	BROOM	6	1	[0, 0, 0]	n/a	FR1	1	R1363T
539.57	1.624	541335	WORD	n/a	n/a	CUP	7	1	[0, 0, 0]	n/a	FR1	1	R1363T
541.194	1.097	542959	WORD_OFF	n/a	n/a	CUP	7	1	[0, 0, 0]	n/a	FR1	1	R1363T
542.291	1.637	544056	WORD	n/a	n/a	PIT	8	1	[0, 0, 0]	n/a	FR1	1	R1363T
543.928	0.865	545693	WORD_OFF	n/a	n/a	PIT	8	1	[0, 0, 0]	n/a	FR1	1	R1363T
544.793	1.635	546558	WORD	n/a	n/a	FOAM	9	1	[0, 0, 0]	n/a	FR1	1	R1363T
546.428	1.02	548193	WORD_OFF	n/a	n/a	FOAM	9	1	[0, 0, 0]	n/a	FR1	1	R1363T
547.448	1.631	549213	WORD	n/a	n/a	PEN	10	1	[0, 0, 0]	n/a	FR1	1	R1363T
549.079	0.858	550844	WORD_OFF	n/a	n/a	PEN	10	1	[0, 0, 0]	n/a	FR1	1	R1363T
549.937	1.626	551702	WORD	n/a	n/a	TEA	11	1	[0, 0, 0]	n/a	FR1	1	R1363T
551.563	0.837	553327	WORD_OFF	n/a	n/a	TEA	11	1	[0, 0, 0]	n/a	FR1	1	R1363T
552.4	1.63	554164	WORD	n/a	n/a	GLOVE	12	1	[0, 0, 0]	n/a	FR1	1	R1363T
554.03	0.0	555794	WORD_OFF	n/a	n/a	GLOVE	12	1	[0, 0, 0]	n/a	FR1	1	R1363T
554.03	0.001	555794	ENCODING_END	n/a	n/a	n/a	-999	1	[0, 0, 0]	n/a	FR1	1	R1363T
554.031	0.0	555795	DISTRACT_START	n/a	n/a	n/a	-999	1	[0, 0, 0]	n/a	FR1	1	R1363T
554.031	0.015	555795	START	n/a	n/a	n/a	-999	1	[-999, -999, -999]	n/a	FR1	1	R1363T
554.046	15.586	555810	PROB	15.586	n/a	n/a	-999	1	[3, 3, 5]	11	FR1	1	R1363T
569.632	3.717	571395	PROB	3.717	n/a	n/a	-999	1	[5, 5, 2]	12	FR1	1	R1363T
573.349	4.479	575112	PROB	4.479	n/a	n/a	-999	1	[1, 1, 2]	4	FR1	1	R1363T
577.828	0.006	579590	STOP	n/a	n/a	n/a	-999	1	[-999, -999, -999]	n/a	FR1	1	R1363T
577.834	0.619	579596	DISTRACT_END	n/a	n/a	n/a	-999	1	[0, 0, 0]	n/a	FR1	1	R1363T
578.453	1.615	580215	RETRIEVAL_ORIENT_START	n/a	n/a	n/a	-999	1	[0, 0, 0]	n/a	FR1	1	R1363T
580.068	0.0	581830	RETRIEVAL_ORIENT_END	n/a	n/a	n/a	-999	1	[0, 0, 0]	n/a	FR1	1	R1363T
580.068	6.644	581830	REC_START	n/a	n/a	n/a	-999	1	[0, 0, 0]	n/a	FR1	1	R1363T
586.712	1.0	588474	REC_WORD_VV	1.0	n/a	<>	-999	1	[0, 0, 0]	n/a	FR1	1	R1363T
587.712	1.0	589474	REC_WORD_VV	1.0	n/a	<>	-999	1	[0, 0, 0]	n/a	FR1	1	R1363T
588.712	0.945	590474	REC_WORD_VV	0.945	n/a	<>	-999	1	[0, 0, 0]	n/a	FR1	1	R1363T
589.657	1.623	591419	REC_WORD	1.623	n/a	PLANE	1	1	[0, 0, 0]	n/a	FR1	1	R1363T
591.28	1.484	593041	REC_WORD_VV	1.484	n/a	<>	-999	1	[0, 0, 0]	n/a	FR1	1	R1363T
592.764	1.792	594525	REC_WORD	1.792	n/a	TEA	11	1	[0, 0, 0]	n/a	FR1	1	R1363T
594.556	6.045	596317	REC_WORD	6.045	n/a	TRAIN	-999	1	[0, 0, 0]	n/a	FR1	1	R1363T
600.601	8.271	602362	REC_WORD	8.271	n/a	WATCH	-999	1	[0, 0, 0]	n/a	FR1	1	R1363T
608.872	1.0	610632	REC_WORD_VV	1.0	n/a	<>	-999	1	[0, 0, 0]	n/a	FR1	1	R1363T
609.872	0.209	611632	REC_WORD_VV	0.209	n/a	<>	-999	1	[0, 0, 0]	n/a	FR1	1	R1363T
610.081	0.0	611841	REC_END	n/a	n/a	n/a	-999	1	[0, 0, 0]	n/a	FR1	1	R1363T
610.081	0.014	611841	TRIAL_END	n/a	n/a	n/a	-999	1	[0, 0, 0]	n/a	FR1	1	R1363T
610.095	0.0	611855	TRIAL_START	n/a	n/a	n/a	-999	2	[0, 0, 0]	n/a	FR1	1	R1363T
610.095	0.0	611855	TRIAL	n/a	n/a	n/a	-999	2	[0, 0, 0]	n/a	FR1	1	R1363T
610.095	4.212	611855	WAITING_START	n/a	n/a	n/a	-999	2	[0, 0, 0]	n/a	FR1	1	R1363T
614.307	0.001	616067	WAITING_END	n/a	n/a	n/a	-999	2	[0, 0, 0]	n/a	FR1	1	R1363T
614.308	10.428	616068	COUNTDOWN_START	n/a	n/a	n/a	-999	2	[0, 0, 0]	n/a	FR1	1	R1363T
624.736	0.001	626495	COUNTDOWN_END	n/a	n/a	n/a	-999	2	[0, 0, 0]	n/a	FR1	1	R1363T
624.737	1.089	626496	ORIENT_START	n/a	n/a	n/a	-999	2	[0, 0, 0]	n/a	FR1	1	R1363T
625.826	0.0	627585	ORIENT_END	n/a	n/a	n/a	-999	2	[0, 0, 0]	n/a	FR1	1	R1363T
625.826	1.137	627585	ENCODING_START	n/a	n/a	n/a	-999	2	[0, 0, 0]	n/a	FR1	1	R1363T
626.963	1.63	628722	WORD	n/a	n/a	PEARL	1	2	[0, 0, 0]	n/a	FR1	1	R1363T
628.593	1.055	630352	WORD_OFF	n/a	n/a	PEARL	1	2	[0, 0, 0]	n/a	FR1	1	R1363T
629.648	1.629	631407	WORD	n/a	n/a	GRAPE	2	2	[0, 0, 0]	n/a	FR1	1	R1363T
631.277	0.783	633035	WORD_OFF	n/a	n/a	GRAPE	2	2	[0, 0, 0]	n/a	FR1	1	R1363T
632.06	1.634	633818	WORD	n/a	n/a	BOOT	3	2	[0, 0, 0]	n/a	FR1	1	R1363T
633.694	1.066	635452	WORD_OFF	n/a	n/a	BOOT	3	2	[0, 0, 0]	n/a	FR1	1	R1363T
634.76	1.634	636518	WORD	n/a	n/a	SUIT	4	2	[0, 0, 0]	n/a	FR1	1	R1363T
636.394	1.017	638152	WORD_OFF	n/a	n/a	SUIT	4	2	[0, 0, 0]	n/a	FR1	1	R1363T
637.411	1.634	639169	WORD	n/a	n/a	HOUSE	5	2	[0, 0, 0]	n/a	FR1	1	R1363T
639.045	0.869	640803	WORD_OFF	n/a	n/a	HOUSE	5	2	[0, 0, 0]	n/a	FR1	1	R1363T
639.914	1.632	641672	WORD	n/a	n/a	STRAW	6	2	[0, 0, 0]	n/a	FR1	1	R1363T
641.546	1.068	643304	WORD_OFF	n/a	n/a	STRAW	6	2	[0, 0, 0]	n/a	FR1	1	R1363T
642.614	1.633	644372	WORD	n/a	n/a	ROCK	7	2	[0, 0, 0]	n/a	FR1	1	R1363T
644.247	0.851	646005	WORD_OFF	n/a	n/a	ROCK	7	2	[0, 0, 0]	n/a	FR1	1	R1363T
645.098	1.632	646855	WORD	n/a	n/a	FROG	8	2	[0, 0, 0]	n/a	FR1	1	R1363T
646.73	1.122	648487	WORD_OFF	n/a	n/a	FROG	8	2	[0, 0, 0]	n/a	FR1	1	R1363T
647.852	1.627	649609	WORD	n/a	n/a	DART	9	2	[0, 0, 0]	n/a	FR1	1	R1363T
649.479	0.852	651236	WORD_OFF	n/a	n/a	DART	9	2	[0, 0, 0]	n/a	FR1	1	R1363T
650.331	1.633	652088	WORD	n/a	n/a	SLUSH	10	2	[0, 0, 0]	n/a	FR1	1	R1363T
651.964	0.795	653721	WORD_OFF	n/a	n/a	SLUSH	10	2	[0, 0, 0]	n/a	FR1	1	R1363T
652.759	1.621	654516	WORD	n/a	n/a	PIG	11	2	[0, 0, 0]	n/a	FR1	1	R1363T
654.38	1.011	656137	WORD_OFF	n/a	n/a	PIG	11	2	[0, 0, 0]	n/a	FR1	1	R1363T
655.391	1.624	657148	WORD	n/a	n/a	TOY	12	2	[0, 0, 0]	n/a	FR1	1	R1363T
657.015	0.0	658772	WORD_OFF	n/a	n/a	TOY	12	2	[0, 0, 0]	n/a	FR1	1	R1363T
657.015	0.001	658772	ENCODING_END	n/a	n/a	n/a	-999	2	[0, 0, 0]	n/a	FR1	1	R1363T
657.016	0.0	658773	DISTRACT_START	n/a	n/a	n/a	-999	2	[0, 0, 0]	n/a	FR1	1	R1363T
657.016	0.015	658773	START	n/a	n/a	n/a	-999	2	[-999, -999, -999]	n/a	FR1	1	R1363T
657.031	18.054	658788	PROB	18.054	n/a	n/a	-999	2	[8, 9, 3]	20	FR1	1	R1363T
675.085	5.966	676840	PROB	5.966	n/a	n/a	-999	2	[1, 6, 6]	13	FR1	1	R1363T
681.051	0.018	682806	STOP	n/a	n/a	n/a	-999	2	[-999, -999, -999]	n/a	FR1	1	R1363T
681.069	0.52	682824	DISTRACT_END	n/a	n/a	n/a	-999	2	[0, 0, 0]	n/a	FR1	1	R1363T
681.589	1.631	683344	RETRIEVAL_ORIENT_START	n/a	n/a	n/a	-999	2	[0, 0, 0]	n/a	FR1	1	R1363T
683.22	0.0	684975	RETRIEVAL_ORIENT_END	n/a	n/a	n/a	-999	2	[0, 0, 0]	n/a	FR1	1	R1363T
683.22	11.055	684975	REC_START	n/a	n/a	n/a	-999	2	[0, 0, 0]	n/a	FR1	1	R1363T
694.275	3.29	696029	REC_WORD_VV	3.29	n/a	<>	-999	2	[0, 0, 0]	n/a	FR1	1	R1363T
697.565	3.548	699319	REC_WORD_VV	3.548	n/a	<>	-999	2	[0, 0, 0]	n/a	FR1	1	R1363T
701.113	7.199	702866	REC_WORD	7.199	n/a	PEARL	1	2	[0, 0, 0]	n/a	FR1	1	R1363T
708.312	2.07	710065	REC_WORD_VV	2.07	n/a	<>	-999	2	[0, 0, 0]	n/a	FR1	1	R1363T
710.382	1.156	712135	REC_WORD_VV	1.156	n/a	<>	-999	2	[0, 0, 0]	n/a	FR1	1	R1363T
711.538	1.0	713291	REC_WORD_VV	1.0	n/a	<>	-999	2	[0, 0, 0]	n/a	FR1	1	R1363T
712.538	0.693	714290	REC_WORD_VV	0.693	n/a	<>	-999	2	[0, 0, 0]	n/a	FR1	1	R1363T
713.231	0.0	714983	REC_END	n/a	n/a	n/a	-999	2	[0, 0, 0]	n/a	FR1	1	R1363T
713.231	0.016	714983	TRIAL_END	n/a	n/a	n/a	-999	2	[0, 0, 0]	n/a	FR1	1	R1363T
713.247	0.0	714999	TRIAL_START	n/a	n/a	n/a	-999	3	[0, 0, 0]	n/a	FR1	1	R1363T
713.247	0.0	714999	TRIAL	n/a	n/a	n/a	-999	3	[0, 0, 0]	n/a	FR1	1	R1363T
713.247	48.236	714999	WAITING_START	n/a	n/a	n/a	-999	3	[0, 0, 0]	n/a	FR1	1	R1363T
761.483	0.001	763232	WAITING_END	n/a	n/a	n/a	-999	3	[0, 0, 0]	n/a	FR1	1	R1363T
761.484	10.429	763233	COUNTDOWN_START	n/a	n/a	n/a	-999	3	[0, 0, 0]	n/a	FR1	1	R1363T
771.913	0.0	773661	COUNTDOWN_END	n/a	n/a	n/a	-999	3	[0, 0, 0]	n/a	FR1	1	R1363T
771.913	1.24	773661	ORIENT_START	n/a	n/a	n/a	-999	3	[0, 0, 0]	n/a	FR1	1	R1363T
773.153	0.0	774901	ORIENT_END	n/a	n/a	n/a	-999	3	[0, 0, 0]	n/a	FR1	1	R1363T
773.153	0.964	774901	ENCODING_START	n/a	n/a	n/a	-999	3	[0, 0, 0]	n/a	FR1	1	R1363T
774.117	1.636	775865	WORD	n/a	n/a	FLOOR	1	3	[0, 0, 0]	n/a	FR1	1	R1363T
775.753	1.041	777501	WORD_OFF	n/a	n/a	FLOOR	1	3	[0, 0, 0]	n/a	FR1	1	R1363T
776.794	1.625	778542	WORD	n/a	n/a	JET	2	3	[0, 0, 0]	n/a	FR1	1	R1363T
778.419	0.926	780167	WORD_OFF	n/a	n/a	JET	2	3	[0, 0, 0]	n/a	FR1	1	R1363T
779.345	1.626	781092	WORD	n/a	n/a	PIE	3	3	[0, 0, 0]	n/a	FR1	1	R1363T
780.971	0.786	782718	WORD_OFF	n/a	n/a	PIE	3	3	[0, 0, 0]	n/a	FR1	1	R1363T
781.757	1.63	783504	WORD	n/a	n/a	TOAST	4	3	[0, 0, 0]	n/a	FR1	1	R1363T
783.387	0.765	785134	WORD_OFF	n/a	n/a	TOAST	4	3	[0, 0, 0]	n/a	FR1	1	R1363T
784.152	1.636	785899	WORD	n/a	n/a	STEAM	5	3	[0, 0, 0]	n/a	FR1	1	R1363T
785.788	1.078	787535	WORD_OFF	n/a	n/a	STEAM	5	3	[0, 0, 0]	n/a	FR1	1	R1363T
786.866	1.622	788613	WORD	n/a	n/a	SUN	6	3	[0, 0, 0]	n/a	FR1	1	R1363T
788.488	1.057	790235	WORD_OFF	n/a	n/a	SUN	6	3	[0, 0, 0]	n/a	FR1	1	R1363T
789.545	1.628	791292	WORD	n/a	n/a	CASH	7	3	[0, 0, 0]	n/a	FR1	1	R1363T
791.173	1.03	792920	WORD_OFF	n/a	n/a	CASH	7	3	[0, 0, 0]	n/a	FR1	1	R1363T
792.203	1.637	793950	WORD	n/a	n/a	CRANE	8	3	[0, 0, 0]	n/a	FR1	1	R1363T
793.84	0.883	795586	WORD_OFF	n/a	n/a	CRANE	8	3	[0, 0, 0]	n/a	FR1	1	R1363T
794.723	1.633	796469	WORD	n/a	n/a	ROOF	9	3	[0, 0, 0]	n/a	FR1	1	R1363T
796.356	0.854	798102	WORD_OFF	n/a	n/a	ROOF	9	3	[0, 0, 0]	n/a	FR1	1	R1363T
797.21	1.631	798956	WORD	n/a	n/a	TENT	10	3	[0, 0, 0]	n/a	FR1	1	R1363T
798.841	0.845	800587	WORD_OFF	n/a	n/a	TENT	10	3	[0, 0, 0]	n/a	FR1	1	R1363T
799.686	1.622	801432	WORD	n/a	n/a	BAT	11	3	[0, 0, 0]	n/a	FR1	1	R1363T
801.308	0.765	803054	WORD_OFF	n/a	n/a	BAT	11	3	[0, 0, 0]	n/a	FR1	1	R1363T
802.073	1.635	803819	WORD	n/a	n/a	CALF	12	3	[0, 0, 0]	n/a	FR1	1	R1363T
803.708	0.001	805454	WORD_OFF	n/a	n/a	CALF	12	3	[0, 0, 0]	n/a	FR1	1	R1363T
803.709	0.0	805455	ENCODING_END	n/a	n/a	n/a	-999	3	[0, 0, 0]	n/a	FR1	1	R1363T
803.709	0.0	805455	DISTRACT_START	n/a	n/a	n/a	-999	3	[0, 0, 0]	n/a	FR1	1	R1363T
803.709	0.016	805455	START	n/a	n/a	n/a	-999	3	[-999, -999, -999]	n/a	FR1	1	R1363T
803.725	9.918	805471	PROB	9.918	n/a	n/a	-999	3	[2, 8, 3]	13	FR1	1	R1363T
813.643	14.303	815388	PROB	14.303	n/a	n/a	-999	3	[4, 9, 7]	19	FR1	1	R1363T
827.946	0.017	829690	STOP	n/a	n/a	n/a	-999	3	[-999, -999, -999]	n/a	FR1	1	R1363T
827.963	0.614	829707	DISTRACT_END	n/a	n/a	n/a	-999	3	[0, 0, 0]	n/a	FR1	1	R1363T
828.577	1.619	830321	RETRIEVAL_ORIENT_START	n/a	n/a	n/a	-999	3	[0, 0, 0]	n/a	FR1	1	R1363T
830.196	0.001	831940	RETRIEVAL_ORIENT_END	n/a	n/a	n/a	-999	3	[0, 0, 0]	n/a	FR1	1	R1363T
830.197	3.961	831941	REC_START	n/a	n/a	n/a	-999	3	[0, 0, 0]	n/a	FR1	1	R1363T
834.158	2.46	835901	REC_WORD_VV	2.46	n/a	<>	-999	3	[0, 0, 0]	n/a	FR1	1	R1363T
836.618	3.538	838361	REC_WORD	3.538	n/a	WATCH	-999	3	[0, 0, 0]	n/a	FR1	1	R1363T
840.156	2.933	841899	REC_WORD	2.933	n/a	BALL	-999	3	[0, 0, 0]	n/a	FR1	1	R1363T
843.089	13.7	844832	REC_WORD	13.7	n/a	PLANE	-999	3	[0, 0, 0]	n/a	FR1	1	R1363T
856.789	1.0	858531	REC_WORD_VV	1.0	n/a	<>	-999	3	[0, 0, 0]	n/a	FR1	1	R1363T
857.789	2.418	859531	REC_WORD_VV	2.418	n/a	<>	-999	3	[0, 0, 0]	n/a	FR1	1	R1363T
860.207	0.0	861948	REC_END	n/a	n/a	n/a	-999	3	[0, 0, 0]	n/a	FR1	1	R1363T
860.207	0.014	861948	TRIAL_END	n/a	n/a	n/a	-999	3	[0, 0, 0]	n/a	FR1	1	R1363T
860.221	0.001	861962	TRIAL_START	n/a	n/a	n/a	-999	4	[0, 0, 0]	n/a	FR1	1	R1363T
860.222	0.0	861963	TRIAL	n/a	n/a	n/a	-999	4	[0, 0, 0]	n/a	FR1	1	R1363T
860.222	4.246	861963	WAITING_START	n/a	n/a	n/a	-999	4	[0, 0, 0]	n/a	FR1	1	R1363T
864.468	0.001	866209	WAITING_END	n/a	n/a	n/a	-999	4	[0, 0, 0]	n/a	FR1	1	R1363T
864.469	10.429	866210	COUNTDOWN_START	n/a	n/a	n/a	-999	4	[0, 0, 0]	n/a	FR1	1	R1363T
874.898	0.0	876638	ORIENT_START	n/a	n/a	n/a	-999	4	[0, 0, 0]	n/a	FR1	1	R1363T
874.898	1.04	876638	COUNTDOWN_END	n/a	n/a	n/a	-999	4	[0, 0, 0]	n/a	FR1	1	R1363T
875.938	0.0	877678	ORIENT_END	n/a	n/a	n/a	-999	4	[0, 0, 0]	n/a	FR1	1	R1363T
875.938	1.082	877678	ENCODING_START	n/a	n/a	n/a	-999	4	[0, 0, 0]	n/a	FR1	1	R1363T
877.02	1.635	878760	WORD	n/a	n/a	SLEEVE	1	4	[0, 0, 0]	n/a	FR1	1	R1363T
878.655	1.091	880395	WORD_OFF	n/a	n/a	SLEEVE	1	4	[0, 0, 0]	n/a	FR1	1	R1363T
879.746	1.625	881486	WORD	n/a	n/a	SHRIMP	2	4	[0, 0, 0]	n/a	FR1	1	R1363T
881.371	0.801	883111	WORD_OFF	n/a	n/a	SHRIMP	2	4	[0, 0, 0]	n/a	FR1	1	R1363T
882.172	1.634	883912	WORD	n/a	n/a	SHEEP	3	4	[0, 0, 0]	n/a	FR1	1	R1363T
883.806	0.817	885546	WORD_OFF	n/a	n/a	SHEEP	3	4	[0, 0, 0]	n/a	FR1	1	R1363T
884.623	1.634	886363	WORD	n/a	n/a	VINE	4	4	[0, 0, 0]	n/a	FR1	1	R1363T
886.257	0.891	887997	WORD_OFF	n/a	n/a	VINE	4	4	[0, 0, 0]	n/a	FR1	1	R1363T
887.148	1.625	888887	WORD	n/a	n/a	BOARD	5	4	[0, 0, 0]	n/a	FR1	1	R1363T
888.773	0.894	890512	WORD_OFF	n/a	n/a	BOARD	5	4	[0, 0, 0]	n/a	FR1	1	R1363T
889.667	1.624	891406	WORD	n/a	n/a	PEAR	6	4	[0, 0, 0]	n/a	FR1	1	R1363T
891.291	0.996	893030	WORD_OFF	n/a	n/a	PEAR	6	4	[0, 0, 0]	n/a	FR1	1	R1363T
892.287	1.621	894026	WORD	n/a	n/a	TRAY	7	4	[0, 0, 0]	n/a	FR1	1	R1363T
893.908	0.878	895647	WORD_OFF	n/a	n/a	TRAY	7	4	[0, 0, 0]	n/a	FR1	1	R1363T
894.786	1.621	896525	WORD	n/a	n/a	PEA	8	4	[0, 0, 0]	n/a	FR1	1	R1363T
896.407	1.054	898146	WORD_OFF	n/a	n/a	PEA	8	4	[0, 0, 0]	n/a	FR1	1	R1363T
897.461	1.614	899200	WORD	n/a	n/a	FRUIT	9	4	[0, 0, 0]	n/a	FR1	1	R1363T
899.075	1.026	900814	WORD_OFF	n/a	n/a	FRUIT	9	4	[0, 0, 0]	n/a	FR1	1	R1363T
900.101	1.625	901839	WORD	n/a	n/a	STICK	10	4	[0, 0, 0]	n/a	FR1	1	R1363T
901.726	1.12	903464	WORD_OFF	n/a	n/a	STICK	10	4	[0, 0, 0]	n/a	FR1	1	R1363T
902.846	1.629	904584	WORD	n/a	n/a	EAR	11	4	[0, 0, 0]	n/a	FR1	1	R1363T
904.475	0.876	906213	WORD_OFF	n/a	n/a	EAR	11	4	[0, 0, 0]	n/a	FR1	1	R1363T
905.351	1.609	907089	WORD	n/a	n/a	TRUCK	12	4	[0, 0, 0]	n/a	FR1	1	R1363T
906.96	0.0	908698	WORD_OFF	n/a	n/a	TRUCK	12	4	[0, 0, 0]	n/a	FR1	1	R1363T
906.96	0.0	908698	ENCODING_END	n/a	n/a	n/a	-999	4	[0, 0, 0]	n/a	FR1	1	R1363T
906.96	0.001	908698	DISTRACT_START	n/a	n/a	n/a	-999	4	[0, 0, 0]	n/a	FR1	1	R1363T
906.961	0.016	908699	START	n/a	n/a	n/a	-999	4	[-999, -999, -999]	n/a	FR1	1	R1363T
906.977	10.517	908715	PROB	10.517	n/a	n/a	-999	4	[3, 9, 3]	16	FR1	1	R1363T
917.494	8.153	919231	PROB	8.153	n/a	n/a	-999	4	[2, 9, 7]	18	FR1	1	R1363T
925.647	5.257	927384	PROB	5.257	n/a	n/a	-999	4	[4, 1, 4]	9	FR1	1	R1363T
930.904	0.01	932640	STOP	n/a	n/a	n/a	-999	4	[-999, -999, -999]	n/a	FR1	1	R1363T
930.914	0.635	932650	DISTRACT_END	n/a	n/a	n/a	-999	4	[0, 0, 0]	n/a	FR1	1	R1363T
931.549	1.549	933285	RETRIEVAL_ORIENT_START	n/a	n/a	n/a	-999	4	[0, 0, 0]	n/a	FR1	1	R1363T
933.098	0.001	934834	RETRIEVAL_ORIENT_END	n/a	n/a	n/a	-999	4	[0, 0, 0]	n/a	FR1	1	R1363T
933.099	0.722	934835	REC_START	n/a	n/a	n/a	-999	4	[0, 0, 0]	n/a	FR1	1	R1363T
933.821	0.859	935557	REC_WORD_VV	0.859	n/a	<>	-999	4	[0, 0, 0]	n/a	FR1	1	R1363T
934.68	5.735	936416	REC_WORD	5.735	n/a	BOAT	-999	4	[0, 0, 0]	n/a	FR1	1	R1363T
940.415	7.652	942150	REC_WORD	7.652	n/a	SHOE	-999	4	[0, 0, 0]	n/a	FR1	1	R1363T
948.067	1.078	949802	REC_WORD	1.078	n/a	SHOE	-999	4	[0, 0, 0]	n/a	FR1	1	R1363T
949.145	0.79	950880	REC_WORD	0.79	n/a	SHOVEL	-999	4	[0, 0, 0]	n/a	FR1	1	R1363T
949.935	13.088	951670	REC_WORD	13.088	n/a	TRAIN	-999	4	[0, 0, 0]	n/a	FR1	1	R1363T
963.023	0.087	964757	REC_WORD_VV	0.087	n/a	<>	-999	4	[0, 0, 0]	n/a	FR1	1	R1363T
963.11	0.0	964844	REC_END	n/a	n/a	n/a	-999	4	[0, 0, 0]	n/a	FR1	1	R1363T
963.11	0.015	964844	TRIAL_END	n/a	n/a	n/a	-999	4	[0, 0, 0]	n/a	FR1	1	R1363T
963.125	0.0	964859	TRIAL_START	n/a	n/a	n/a	-999	5	[0, 0, 0]	n/a	FR1	1	R1363T
963.125	0.0	964859	TRIAL	n/a	n/a	n/a	-999	5	[0, 0, 0]	n/a	FR1	1	R1363T
963.125	3.529	964859	WAITING_START	n/a	n/a	n/a	-999	5	[0, 0, 0]	n/a	FR1	1	R1363T
966.654	0.001	968388	WAITING_END	n/a	n/a	n/a	-999	5	[0, 0, 0]	n/a	FR1	1	R1363T
966.655	10.428	968389	COUNTDOWN_START	n/a	n/a	n/a	-999	5	[0, 0, 0]	n/a	FR1	1	R1363T
977.083	0.0	978816	ORIENT_START	n/a	n/a	n/a	-999	5	[0, 0, 0]	n/a	FR1	1	R1363T
977.083	1.123	978816	COUNTDOWN_END	n/a	n/a	n/a	-999	5	[0, 0, 0]	n/a	FR1	1	R1363T
978.206	0.001	979939	ORIENT_END	n/a	n/a	n/a	-999	5	[0, 0, 0]	n/a	FR1	1	R1363T
978.207	0.887	979940	ENCODING_START	n/a	n/a	n/a	-999	5	[0, 0, 0]	n/a	FR1	1	R1363T
979.094	1.629	980827	WORD	n/a	n/a	SOAP	1	5	[0, 0, 0]	n/a	FR1	1	R1363T
980.723	0.991	982455	WORD_OFF	n/a	n/a	SOAP	1	5	[0, 0, 0]	n/a	FR1	1	R1363T
981.714	1.626	983446	WORD	n/a	n/a	CLOCK	2	5	[0, 0, 0]	n/a	FR1	1	R1363T
983.34	0.993	985072	WORD_OFF	n/a	n/a	CLOCK	2	5	[0, 0, 0]	n/a	FR1	1	R1363T
984.333	1.625	986065	WORD	n/a	n/a	SKY	3	5	[0, 0, 0]	n/a	FR1	1	R1363T
985.958	0.993	987690	WORD_OFF	n/a	n/a	SKY	3	5	[0, 0, 0]	n/a	FR1	1	R1363T
986.951	1.624	988683	WORD	n/a	n/a	HORSE	4	5	[0, 0, 0]	n/a	FR1	1	R1363T
988.575	0.982	990307	WORD_OFF	n/a	n/a	HORSE	4	5	[0, 0, 0]	n/a	FR1	1	R1363T
989.557	1.635	991289	WORD	n/a	n/a	BOMB	5	5	[0, 0, 0]	n/a	FR1	1	R1363T
991.192	0.79	992924	WORD_OFF	n/a	n/a	BOMB	5	5	[0, 0, 0]	n/a	FR1	1	R1363T
991.982	1.627	993714	WORD	n/a	n/a	WOLF	6	5	[0, 0, 0]	n/a	FR1	1	R1363T
993.609	1.009	995341	WORD_OFF	n/a	n/a	WOLF	6	5	[0, 0, 0]	n/a	FR1	1	R1363T
994.618	1.625	996349	WORD	n/a	n/a	RAT	7	5	[0, 0, 0]	n/a	FR1	1	R1363T
996.243	0.866	997974	WORD_OFF	n/a	n/a	RAT	7	5	[0, 0, 0]	n/a	FR1	1	R1363T
997.109	1.634	998840	WORD	n/a	n/a	BOWL	8	5	[0, 0, 0]	n/a	FR1	1	R1363T
998.743	0.979	1000474	WORD_OFF	n/a	n/a	BOWL	8	5	[0, 0, 0]	n/a	FR1	1	R1363T
999.722	1.621	1001453	WORD	n/a	n/a	SINK	9	5	[0, 0, 0]	n/a	FR1	1	R1363T
1001.343	0.789	1003074	WORD_OFF	n/a	n/a	SINK	9	5	[0, 0, 0]	n/a	FR1	1	R1363T
1002.132	1.629	1003863	WORD	n/a	n/a	MOLE	10	5	[0, 0, 0]	n/a	FR1	1	R1363T
1003.761	0.949	1005492	WORD_OFF	n/a	n/a	MOLE	10	5	[0, 0, 0]	n/a	FR1	1	R1363T
1004.71	1.634	1006441	WORD	n/a	n/a	STOOL	11	5	[0, 0, 0]	n/a	FR1	1	R1363T
1006.344	0.817	1008075	WORD_OFF	n/a	n/a	STOOL	11	5	[0, 0, 0]	n/a	FR1	1	R1363T
1007.161	1.634	1008892	WORD	n/a	n/a	HEART	12	5	[0, 0, 0]	n/a	FR1	1	R1363T
1008.795	0.001	1010525	WORD_OFF	n/a	n/a	HEART	12	5	[0, 0, 0]	n/a	FR1	1	R1363T
1008.796	0.0	1010526	ENCODING_END	n/a	n/a	n/a	-999	5	[0, 0, 0]	n/a	FR1	1	R1363T
1008.796	0.0	1010526	DISTRACT_START	n/a	n/a	n/a	-999	5	[0, 0, 0]	n/a	FR1	1	R1363T
1008.796	0.016	1010526	START	n/a	n/a	n/a	-999	5	[-999, -999, -999]	n/a	FR1	1	R1363T
1008.812	29.842	1010542	PROB	29.842	n/a	n/a	-999	5	[9, 8, 7]	24	FR1	1	R1363T
1038.654	0.013	1040382	STOP	n/a	n/a	n/a	-999	5	[-999, -999, -999]	n/a	FR1	1	R1363T
1038.667	0.638	1040395	DISTRACT_END	n/a	n/a	n/a	-999	5	[0, 0, 0]	n/a	FR1	1	R1363T
1039.305	1.663	1041033	RETRIEVAL_ORIENT_START	n/a	n/a	n/a	-999	5	[0, 0, 0]	n/a	FR1	1	R1363T
1040.968	0.0	1042696	RETRIEVAL_ORIENT_END	n/a	n/a	n/a	-999	5	[0, 0, 0]	n/a	FR1	1	R1363T
1040.968	3.787	1042696	REC_START	n/a	n/a	n/a	-999	5	[0, 0, 0]	n/a	FR1	1	R1363T
1044.755	0.944	1046483	REC_WORD	0.944	n/a	CLOCK	2	5	[0, 0, 0]	n/a	FR1	1	R1363T
1045.699	0.836	1047427	REC_WORD	0.836	n/a	BOAT	-999	5	[0, 0, 0]	n/a	FR1	1	R1363T
1046.535	6.88	1048263	REC_WORD	6.88	n/a	SHIP	-999	5	[0, 0, 0]	n/a	FR1	1	R1363T
1053.415	6.153	1055142	REC_WORD	6.153	n/a	CLOUD	-999	5	[0, 0, 0]	n/a	FR1	1	R1363T
1059.568	11.412	1061295	REC_WORD_VV	11.412	n/a	<>	-999	5	[0, 0, 0]	n/a	FR1	1	R1363T
1070.98	0.0	1072706	REC_END	n/a	n/a	n/a	-999	5	[0, 0, 0]	n/a	FR1	1	R1363T
1070.98	0.014	1072706	TRIAL_END	n/a	n/a	n/a	-999	5	[0, 0, 0]	n/a	FR1	1	R1363T
1070.994	0.0	1072720	TRIAL_START	n/a	n/a	n/a	-999	6	[0, 0, 0]	n/a	FR1	1	R1363T
1070.994	0.0	1072720	TRIAL	n/a	n/a	n/a	-999	6	[0, 0, 0]	n/a	FR1	1	R1363T
1070.994	3.547	1072720	WAITING_START	n/a	n/a	n/a	-999	6	[0, 0, 0]	n/a	FR1	1	R1363T
1074.541	0.0	1076266	WAITING_END	n/a	n/a	n/a	-999	6	[0, 0, 0]	n/a	FR1	1	R1363T
1074.541	10.429	1076266	COUNTDOWN_START	n/a	n/a	n/a	-999	6	[0, 0, 0]	n/a	FR1	1	R1363T
1084.97	0.0	1086695	COUNTDOWN_END	n/a	n/a	n/a	-999	6	[0, 0, 0]	n/a	FR1	1	R1363T
1084.97	1.139	1086695	ORIENT_START	n/a	n/a	n/a	-999	6	[0, 0, 0]	n/a	FR1	1	R1363T
1086.109	0.001	1087834	ORIENT_END	n/a	n/a	n/a	-999	6	[0, 0, 0]	n/a	FR1	1	R1363T
1086.11	0.979	1087835	ENCODING_START	n/a	n/a	n/a	-999	6	[0, 0, 0]	n/a	FR1	1	R1363T
1087.089	1.621	1088814	WORD	n/a	n/a	APE	1	6	[0, 0, 0]	n/a	FR1	1	R1363T
1088.71	0.806	1090434	WORD_OFF	n/a	n/a	APE	1	6	[0, 0, 0]	n/a	FR1	1	R1363T
1089.516	1.627	1091240	WORD	n/a	n/a	VEST	2	6	[0, 0, 0]	n/a	FR1	1	R1363T
1091.143	1.103	1092867	WORD_OFF	n/a	n/a	VEST	2	6	[0, 0, 0]	n/a	FR1	1	R1363T
1092.246	1.631	1093970	WORD	n/a	n/a	HOOK	3	6	[0, 0, 0]	n/a	FR1	1	R1363T
1093.877	0.972	1095601	WORD_OFF	n/a	n/a	HOOK	3	6	[0, 0, 0]	n/a	FR1	1	R1363T
1094.849	1.628	1096573	WORD	n/a	n/a	BED	4	6	[0, 0, 0]	n/a	FR1	1	R1363T
1096.477	0.938	1098201	WORD_OFF	n/a	n/a	BED	4	6	[0, 0, 0]	n/a	FR1	1	R1363T
1097.415	1.63	1099139	WORD	n/a	n/a	BOX	5	6	[0, 0, 0]	n/a	FR1	1	R1363T
1099.045	1.086	1100769	WORD_OFF	n/a	n/a	BOX	5	6	[0, 0, 0]	n/a	FR1	1	R1363T
1100.131	1.631	1101855	WORD	n/a	n/a	SEED	6	6	[0, 0, 0]	n/a	FR1	1	R1363T
1101.762	0.958	1103485	WORD_OFF	n/a	n/a	SEED	6	6	[0, 0, 0]	n/a	FR1	1	R1363T
1102.72	1.625	1104443	WORD	n/a	n/a	RAKE	7	6	[0, 0, 0]	n/a	FR1	1	R1363T
1104.345	0.845	1106068	WORD_OFF	n/a	n/a	RAKE	7	6	[0, 0, 0]	n/a	FR1	1	R1363T
1105.19	1.623	1106913	WORD	n/a	n/a	BATH	8	6	[0, 0, 0]	n/a	FR1	1	R1363T
1106.813	0.866	1108536	WORD_OFF	n/a	n/a	BATH	8	6	[0, 0, 0]	n/a	FR1	1	R1363T
1107.679	1.634	1109402	WORD	n/a	n/a	SKI	9	6	[0, 0, 0]	n/a	FR1	1	R1363T
1109.313	0.885	1111036	WORD_OFF	n/a	n/a	SKI	9	6	[0, 0, 0]	n/a	FR1	1	R1363T
1110.198	1.633	1111921	WORD	n/a	n/a	WHALE	10	6	[0, 0, 0]	n/a	FR1	1	R1363T
1111.831	0.872	1113554	WORD_OFF	n/a	n/a	WHALE	10	6	[0, 0, 0]	n/a	FR1	1	R1363T
1112.703	1.627	1114426	WORD	n/a	n/a	BENCH	11	6	[0, 0, 0]	n/a	FR1	1	R1363T
1114.33	0.924	1116053	WORD_OFF	n/a	n/a	BENCH	11	6	[0, 0, 0]	n/a	FR1	1	R1363T
1115.254	1.627	1116976	WORD	n/a	n/a	SAIL	12	6	[0, 0, 0]	n/a	FR1	1	R1363T
1116.881	0.001	1118603	WORD_OFF	n/a	n/a	SAIL	12	6	[0, 0, 0]	n/a	FR1	1	R1363T
1116.882	0.0	1118604	DISTRACT_START	n/a	n/a	n/a	-999	6	[0, 0, 0]	n/a	FR1	1	R1363T
1116.882	0.001	1118604	ENCODING_END	n/a	n/a	n/a	-999	6	[0, 0, 0]	n/a	FR1	1	R1363T
1116.883	0.015	1118605	START	n/a	n/a	n/a	-999	6	[-999, -999, -999]	n/a	FR1	1	R1363T
1116.898	11.534	1118620	PROB	11.534	n/a	n/a	-999	6	[8, 7, 5]	20	FR1	1	R1363T
1128.432	6.119	1130153	PROB	6.119	n/a	n/a	-999	6	[7, 4, 7]	18	FR1	1	R1363T
1134.551	7.019	1136272	PROB	7.019	n/a	n/a	-999	6	[9, 1, 7]	17	FR1	1	R1363T
1141.57	0.016	1143290	STOP	n/a	n/a	n/a	-999	6	[-999, -999, -999]	n/a	FR1	1	R1363T
1141.586	0.691	1143306	DISTRACT_END	n/a	n/a	n/a	-999	6	[0, 0, 0]	n/a	FR1	1	R1363T
1142.277	1.593	1143997	RETRIEVAL_ORIENT_START	n/a	n/a	n/a	-999	6	[0, 0, 0]	n/a	FR1	1	R1363T
1143.87	0.0	1145590	RETRIEVAL_ORIENT_END	n/a	n/a	n/a	-999	6	[0, 0, 0]	n/a	FR1	1	R1363T
1143.87	2.799	1145590	REC_START	n/a	n/a	n/a	-999	6	[0, 0, 0]	n/a	FR1	1	R1363T
1146.669	0.812	1148389	REC_WORD	0.812	n/a	BENCH	11	6	[0, 0, 0]	n/a	FR1	1	R1363T
1147.481	1.219	1149201	REC_WORD	1.219	n/a	BOAT	-999	6	[0, 0, 0]	n/a	FR1	1	R1363T
1148.7	3.27	1150420	REC_WORD	3.27	n/a	SAIL	12	6	[0, 0, 0]	n/a	FR1	1	R1363T
1151.97	0.355	1153690	REC_WORD	0.355	n/a	BENCH	11	6	[0, 0, 0]	n/a	FR1	1	R1363T
1152.325	0.257	1154045	REC_WORD	0.257	n/a	BOAT	-999	6	[0, 0, 0]	n/a	FR1	1	R1363T
1152.582	0.513	1154302	REC_WORD	0.513	n/a	SAIL	12	6	[0, 0, 0]	n/a	FR1	1	R1363T
1153.095	18.853	1154815	REC_WORD	18.853	n/a	APE	1	6	[0, 0, 0]	n/a	FR1	1	R1363T
1171.948	1.0	1173666	REC_WORD_VV	1.0	n/a	<>	-999	6	[0, 0, 0]	n/a	FR1	1	R1363T
1172.948	0.932	1174666	REC_WORD_VV	0.932	n/a	<>	-999	6	[0, 0, 0]	n/a	FR1	1	R1363T
1173.88	0.0	1175598	REC_END	n/a	n/a	n/a	-999	6	[0, 0, 0]	n/a	FR1	1	R1363T
1173.88	0.015	1175598	TRIAL_END	n/a	n/a	n/a	-999	6	[0, 0, 0]	n/a	FR1	1	R1363T
1173.895	0.0	1175613	TRIAL_START	n/a	n/a	n/a	-999	7	[0, 0, 0]	n/a	FR1	1	R1363T
1173.895	0.0	1175613	TRIAL	n/a	n/a	n/a	-999	7	[0, 0, 0]	n/a	FR1	1	R1363T
1173.895	2.247	1175613	WAITING_START	n/a	n/a	n/a	-999	7	[0, 0, 0]	n/a	FR1	1	R1363T
1176.142	0.001	1177860	WAITING_END	n/a	n/a	n/a	-999	7	[0, 0, 0]	n/a	FR1	1	R1363T
1176.143	10.428	1177861	COUNTDOWN_START	n/a	n/a	n/a	-999	7	[0, 0, 0]	n/a	FR1	1	R1363T
1186.571	0.001	1188288	COUNTDOWN_END	n/a	n/a	n/a	-999	7	[0, 0, 0]	n/a	FR1	1	R1363T
1186.572	1.206	1188289	ORIENT_START	n/a	n/a	n/a	-999	7	[0, 0, 0]	n/a	FR1	1	R1363T
1187.778	0.0	1189495	ENCODING_START	n/a	n/a	n/a	-999	7	[0, 0, 0]	n/a	FR1	1	R1363T
1187.778	0.811	1189495	ORIENT_END	n/a	n/a	n/a	-999	7	[0, 0, 0]	n/a	FR1	1	R1363T
1188.589	1.622	1190306	WORD	n/a	n/a	JUICE	1	7	[0, 0, 0]	n/a	FR1	1	R1363T
1190.211	0.873	1191928	WORD_OFF	n/a	n/a	JUICE	1	7	[0, 0, 0]	n/a	FR1	1	R1363T
1191.084	1.628	1192801	WORD	n/a	n/a	COW	2	7	[0, 0, 0]	n/a	FR1	1	R1363T
1192.712	0.923	1194429	WORD_OFF	n/a	n/a	COW	2	7	[0, 0, 0]	n/a	FR1	1	R1363T
1193.635	1.627	1195352	WORD	n/a	n/a	STORE	3	7	[0, 0, 0]	n/a	FR1	1	R1363T
1195.262	1.146	1196979	WORD_OFF	n/a	n/a	STORE	3	7	[0, 0, 0]	n/a	FR1	1	R1363T
1196.408	1.621	1198124	WORD	n/a	n/a	CHEEK	4	7	[0, 0, 0]	n/a	FR1	1	R1363T
1198.029	0.766	1199745	WORD_OFF	n/a	n/a	CHEEK	4	7	[0, 0, 0]	n/a	FR1	1	R1363T
1198.795	1.634	1200511	WORD	n/a	n/a	PURSE	5	7	[0, 0, 0]	n/a	FR1	1	R1363T
1200.429	0.839	1202145	WORD_OFF	n/a	n/a	PURSE	5	7	[0, 0, 0]	n/a	FR1	1	R1363T
1201.268	1.629	1202984	WORD	n/a	n/a	LAMB	6	7	[0, 0, 0]	n/a	FR1	1	R1363T
1202.897	1.086	1204613	WORD_OFF	n/a	n/a	LAMB	6	7	[0, 0, 0]	n/a	FR1	1	R1363T
1203.983	1.631	1205699	WORD	n/a	n/a	BEE	7	7	[0, 0, 0]	n/a	FR1	1	R1363T
1205.614	1.059	1207330	WORD_OFF	n/a	n/a	BEE	7	7	[0, 0, 0]	n/a	FR1	1	R1363T
1206.673	1.625	1208389	WORD	n/a	n/a	FARM	8	7	[0, 0, 0]	n/a	FR1	1	R1363T
1208.298	0.976	1210014	WORD_OFF	n/a	n/a	FARM	8	7	[0, 0, 0]	n/a	FR1	1	R1363T
1209.274	1.625	1210989	WORD	n/a	n/a	PEACH	9	7	[0, 0, 0]	n/a	FR1	1	R1363T
1210.899	0.906	1212614	WORD_OFF	n/a	n/a	PEACH	9	7	[0, 0, 0]	n/a	FR1	1	R1363T
1211.805	1.626	1213520	WORD	n/a	n/a	BUSH	10	7	[0, 0, 0]	n/a	FR1	1	R1363T
1213.431	0.807	1215146	WORD_OFF	n/a	n/a	BUSH	10	7	[0, 0, 0]	n/a	FR1	1	R1363T
1214.238	1.628	1215953	WORD	n/a	n/a	BREAD	11	7	[0, 0, 0]	n/a	FR1	1	R1363T
1215.866	0.861	1217581	WORD_OFF	n/a	n/a	BREAD	11	7	[0, 0, 0]	n/a	FR1	1	R1363T
1216.727	1.622	1218442	WORD	n/a	n/a	CAR	12	7	[0, 0, 0]	n/a	FR1	1	R1363T
1218.349	0.0	1220064	WORD_OFF	n/a	n/a	CAR	12	7	[0, 0, 0]	n/a	FR1	1	R1363T
1218.349	0.0	1220064	ENCODING_END	n/a	n/a	n/a	-999	7	[0, 0, 0]	n/a	FR1	1	R1363T
1218.349	0.001	1220064	DISTRACT_START	n/a	n/a	n/a	-999	7	[0, 0, 0]	n/a	FR1	1	R1363T
1218.35	0.015	1220065	START	n/a	n/a	n/a	-999	7	[-999, -999, -999]	n/a	FR1	1	R1363T
1218.365	12.554	1220080	PROB	12.554	n/a	n/a	-999	7	[1, 2, 4]	7	FR1	1	R1363T
1230.919	10.711	1232633	PROB	10.711	n/a	n/a	-999	7	[9, 3, 9]	21	FR1	1	R1363T
1241.63	0.007	1243343	STOP	n/a	n/a	n/a	-999	7	[-999, -999, -999]	n/a	FR1	1	R1363T
1241.637	0.556	1243350	DISTRACT_END	n/a	n/a	n/a	-999	7	[0, 0, 0]	n/a	FR1	1	R1363T
1242.193	1.628	1243906	RETRIEVAL_ORIENT_START	n/a	n/a	n/a	-999	7	[0, 0, 0]	n/a	FR1	1	R1363T
1243.821	0.0	1245534	RETRIEVAL_ORIENT_END	n/a	n/a	n/a	-999	7	[0, 0, 0]	n/a	FR1	1	R1363T
1243.821	11.649	1245534	REC_START	n/a	n/a	n/a	-999	7	[0, 0, 0]	n/a	FR1	1	R1363T
1255.47	1.0	1257182	REC_WORD_VV	1.0	n/a	<>	-999	7	[0, 0, 0]	n/a	FR1	1	R1363T
1256.47	2.251	1258182	REC_WORD_VV	2.251	n/a	<>	-999	7	[0, 0, 0]	n/a	FR1	1	R1363T
1258.721	1.0	1260433	REC_WORD_VV	1.0	n/a	<>	-999	7	[0, 0, 0]	n/a	FR1	1	R1363T
1259.721	1.0	1261433	REC_WORD_VV	1.0	n/a	<>	-999	7	[0, 0, 0]	n/a	FR1	1	R1363T
1260.721	1.002	1262433	REC_WORD_VV	1.002	n/a	<>	-999	7	[0, 0, 0]	n/a	FR1	1	R1363T
1261.723	12.11	1263435	REC_WORD_VV	12.11	n/a	<>	-999	7	[0, 0, 0]	n/a	FR1	1	R1363T
1273.833	0.0	1275544	REC_END	n/a	n/a	n/a	-999	7	[0, 0, 0]	n/a	FR1	1	R1363T
1273.833	0.016	1275544	TRIAL_END	n/a	n/a	n/a	-999	7	[0, 0, 0]	n/a	FR1	1	R1363T
1273.849	0.0	1275560	TRIAL_START	n/a	n/a	n/a	-999	8	[0, 0, 0]	n/a	FR1	1	R1363T
1273.849	0.0	1275560	TRIAL	n/a	n/a	n/a	-999	8	[0, 0, 0]	n/a	FR1	1	R1363T
1273.849	3.195	1275560	WAITING_START	n/a	n/a	n/a	-999	8	[0, 0, 0]	n/a	FR1	1	R1363T
1277.044	0.0	1278754	WAITING_END	n/a	n/a	n/a	-999	8	[0, 0, 0]	n/a	FR1	1	R1363T
1277.044	10.429	1278754	COUNTDOWN_START	n/a	n/a	n/a	-999	8	[0, 0, 0]	n/a	FR1	1	R1363T
1287.473	0.001	1289183	COUNTDOWN_END	n/a	n/a	n/a	-999	8	[0, 0, 0]	n/a	FR1	1	R1363T
1287.474	1.139	1289184	ORIENT_START	n/a	n/a	n/a	-999	8	[0, 0, 0]	n/a	FR1	1	R1363T
1288.613	0.0	1290323	ORIENT_END	n/a	n/a	n/a	-999	8	[0, 0, 0]	n/a	FR1	1	R1363T
1288.613	1.12	1290323	ENCODING_START	n/a	n/a	n/a	-999	8	[0, 0, 0]	n/a	FR1	1	R1363T
1289.733	1.629	1291442	WORD	n/a	n/a	SEA	1	8	[0, 0, 0]	n/a	FR1	1	R1363T
1291.362	1.088	1293071	WORD_OFF	n/a	n/a	SEA	1	8	[0, 0, 0]	n/a	FR1	1	R1363T
1292.45	1.63	1294159	WORD	n/a	n/a	FISH	2	8	[0, 0, 0]	n/a	FR1	1	R1363T
1294.08	0.923	1295789	WORD_OFF	n/a	n/a	FISH	2	8	[0, 0, 0]	n/a	FR1	1	R1363T
1295.003	1.628	1296712	WORD	n/a	n/a	SNAIL	3	8	[0, 0, 0]	n/a	FR1	1	R1363T
1296.631	1.144	1298340	WORD_OFF	n/a	n/a	SNAIL	3	8	[0, 0, 0]	n/a	FR1	1	R1363T
1297.775	1.622	1299484	WORD	n/a	n/a	MUD	4	8	[0, 0, 0]	n/a	FR1	1	R1363T
1299.397	0.86	1301106	WORD_OFF	n/a	n/a	MUD	4	8	[0, 0, 0]	n/a	FR1	1	R1363T
1300.257	1.625	1301966	WORD	n/a	n/a	CORD	5	8	[0, 0, 0]	n/a	FR1	1	R1363T
1301.882	0.92	1303591	WORD_OFF	n/a	n/a	CORD	5	8	[0, 0, 0]	n/a	FR1	1	R1363T
1302.802	1.629	1304510	WORD	n/a	n/a	BEAK	6	8	[0, 0, 0]	n/a	FR1	1	R1363T
1304.431	0.847	1306139	WORD_OFF	n/a	n/a	BEAK	6	8	[0, 0, 0]	n/a	FR1	1	R1363T
1305.278	1.621	1306986	WORD	n/a	n/a	MAIL	7	8	[0, 0, 0]	n/a	FR1	1	R1363T
1306.899	0.8	1308607	WORD_OFF	n/a	n/a	MAIL	7	8	[0, 0, 0]	n/a	FR1	1	R1363T
1307.699	1.633	1309407	WORD	n/a	n/a	BIRD	8	8	[0, 0, 0]	n/a	FR1	1	R1363T
1309.332	1.15	1311040	WORD_OFF	n/a	n/a	BIRD	8	8	[0, 0, 0]	n/a	FR1	1	R1363T
1310.482	1.635	1312190	WORD	n/a	n/a	BRANCH	9	8	[0, 0, 0]	n/a	FR1	1	R1363T
1312.117	0.933	1313825	WORD_OFF	n/a	n/a	BRANCH	9	8	[0, 0, 0]	n/a	FR1	1	R1363T
1313.05	1.634	1314758	WORD	n/a	n/a	DESK	10	8	[0, 0, 0]	n/a	FR1	1	R1363T
1314.684	0.8	1316392	WORD_OFF	n/a	n/a	DESK	10	8	[0, 0, 0]	n/a	FR1	1	R1363T
1315.484	1.634	1317192	WORD	n/a	n/a	GRASS	11	8	[0, 0, 0]	n/a	FR1	1	R1363T
1317.118	1.014	1318825	WORD_OFF	n/a	n/a	GRASS	11	8	[0, 0, 0]	n/a	FR1	1	R1363T
1318.132	1.636	1319839	WORD	n/a	n/a	FENCE	12	8	[0, 0, 0]	n/a	FR1	1	R1363T
1319.768	0.001	1321475	WORD_OFF	n/a	n/a	FENCE	12	8	[0, 0, 0]	n/a	FR1	1	R1363T
1319.769	0.0	1321476	DISTRACT_START	n/a	n/a	n/a	-999	8	[0, 0, 0]	n/a	FR1	1	R1363T
1319.769	0.0	1321476	ENCODING_END	n/a	n/a	n/a	-999	8	[0, 0, 0]	n/a	FR1	1	R1363T
1319.769	0.016	1321476	START	n/a	n/a	n/a	-999	8	[-999, -999, -999]	n/a	FR1	1	R1363T
1319.785	31.494	1321492	PROB	31.494	n/a	n/a	-999	8	[6, 7, 7]	20	FR1	1	R1363T
1351.279	0.011	1352984	STOP	n/a	n/a	n/a	-999	8	[-999, -999, -999]	n/a	FR1	1	R1363T
1351.29	0.677	1352995	DISTRACT_END	n/a	n/a	n/a	-999	8	[0, 0, 0]	n/a	FR1	1	R1363T
1351.967	1.624	1353672	RETRIEVAL_ORIENT_START	n/a	n/a	n/a	-999	8	[0, 0, 0]	n/a	FR1	1	R1363T
1353.591	0.0	1355296	RETRIEVAL_ORIENT_END	n/a	n/a	n/a	-999	8	[0, 0, 0]	n/a	FR1	1	R1363T
1353.591	3.281	1355296	REC_START	n/a	n/a	n/a	-999	8	[0, 0, 0]	n/a	FR1	1	R1363T
1356.872	1.543	1358576	REC_WORD_VV	1.543	n/a	<>	-999	8	[0, 0, 0]	n/a	FR1	1	R1363T
1358.415	0.47	1360119	REC_WORD_VV	0.47	n/a	<>	-999	8	[0, 0, 0]	n/a	FR1	1	R1363T
1358.885	5.486	1360589	REC_WORD	5.486	n/a	SEA	1	8	[0, 0, 0]	n/a	FR1	1	R1363T
1364.371	5.084	1366075	REC_WORD	5.084	n/a	CAR	-999	8	[0, 0, 0]	n/a	FR1	1	R1363T
1369.455	0.674	1371159	REC_WORD	0.674	n/a	SHIP	-999	8	[0, 0, 0]	n/a	FR1	1	R1363T
1370.129	5.468	1371832	REC_WORD	5.468	n/a	SNAIL	3	8	[0, 0, 0]	n/a	FR1	1	R1363T
1375.597	8.007	1377300	REC_WORD_VV	8.007	n/a	<>	-999	8	[0, 0, 0]	n/a	FR1	1	R1363T
1383.604	0.0	1385306	REC_END	n/a	n/a	n/a	-999	8	[0, 0, 0]	n/a	FR1	1	R1363T
1383.604	0.014	1385306	TRIAL_END	n/a	n/a	n/a	-999	8	[0, 0, 0]	n/a	FR1	1	R1363T
1383.618	0.0	1385320	TRIAL_START	n/a	n/a	n/a	-999	9	[0, 0, 0]	n/a	FR1	1	R1363T
1383.618	0.0	1385320	TRIAL	n/a	n/a	n/a	-999	9	[0, 0, 0]	n/a	FR1	1	R1363T
1383.618	152.656	1385320	WAITING_START	n/a	n/a	n/a	-999	9	[0, 0, 0]	n/a	FR1	1	R1363T
1536.274	0.0	1537965	WAITING_END	n/a	n/a	n/a	-999	9	[0, 0, 0]	n/a	FR1	1	R1363T
1536.274	10.43	1537965	COUNTDOWN_START	n/a	n/a	n/a	-999	9	[0, 0, 0]	n/a	FR1	1	R1363T
1546.704	0.0	1548394	COUNTDOWN_END	n/a	n/a	n/a	-999	9	[0, 0, 0]	n/a	FR1	1	R1363T
1546.704	1.089	1548394	ORIENT_START	n/a	n/a	n/a	-999	9	[0, 0, 0]	n/a	FR1	1	R1363T
1547.793	0.0	1549483	ORIENT_END	n/a	n/a	n/a	-999	9	[0, 0, 0]	n/a	FR1	1	R1363T
1547.793	0.886	1549483	ENCODING_START	n/a	n/a	n/a	-999	9	[0, 0, 0]	n/a	FR1	1	R1363T
1548.679	1.631	1550369	WORD	n/a	n/a	RAIN	1	9	[0, 0, 0]	n/a	FR1	1	R1363T
1550.31	0.893	1552000	WORD_OFF	n/a	n/a	RAIN	1	9	[0, 0, 0]	n/a	FR1	1	R1363T
1551.203	1.624	1552893	WORD	n/a	n/a	DEER	2	9	[0, 0, 0]	n/a	FR1	1	R1363T
1552.827	0.809	1554517	WORD_OFF	n/a	n/a	DEER	2	9	[0, 0, 0]	n/a	FR1	1	R1363T
1553.636	1.625	1555326	WORD	n/a	n/a	OWL	3	9	[0, 0, 0]	n/a	FR1	1	R1363T
1555.261	0.858	1556951	WORD_OFF	n/a	n/a	OWL	3	9	[0, 0, 0]	n/a	FR1	1	R1363T
1556.119	1.626	1557809	WORD	n/a	n/a	FLUTE	4	9	[0, 0, 0]	n/a	FR1	1	R1363T
1557.745	0.914	1559435	WORD_OFF	n/a	n/a	FLUTE	4	9	[0, 0, 0]	n/a	FR1	1	R1363T
1558.659	1.636	1560348	WORD	n/a	n/a	OAK	5	9	[0, 0, 0]	n/a	FR1	1	R1363T
1560.295	0.856	1561984	WORD_OFF	n/a	n/a	OAK	5	9	[0, 0, 0]	n/a	FR1	1	R1363T
1561.151	1.628	1562840	WORD	n/a	n/a	GATE	6	9	[0, 0, 0]	n/a	FR1	1	R1363T
1562.779	1.124	1564468	WORD_OFF	n/a	n/a	GATE	6	9	[0, 0, 0]	n/a	FR1	1	R1363T
1563.903	1.626	1565592	WORD	n/a	n/a	SEAL	7	9	[0, 0, 0]	n/a	FR1	1	R1363T
1565.529	1.046	1567218	WORD_OFF	n/a	n/a	SEAL	7	9	[0, 0, 0]	n/a	FR1	1	R1363T
1566.575	1.622	1568264	WORD	n/a	n/a	CHIN	8	9	[0, 0, 0]	n/a	FR1	1	R1363T
1568.197	0.927	1569886	WORD_OFF	n/a	n/a	CHIN	8	9	[0, 0, 0]	n/a	FR1	1	R1363T
1569.124	1.623	1570813	WORD	n/a	n/a	CAT	9	9	[0, 0, 0]	n/a	FR1	1	R1363T
1570.747	0.809	1572436	WORD_OFF	n/a	n/a	CAT	9	9	[0, 0, 0]	n/a	FR1	1	R1363T
1571.556	1.625	1573244	WORD	n/a	n/a	ARM	10	9	[0, 0, 0]	n/a	FR1	1	R1363T
1573.181	0.803	1574869	WORD_OFF	n/a	n/a	ARM	10	9	[0, 0, 0]	n/a	FR1	1	R1363T
1573.984	1.631	1575672	WORD	n/a	n/a	HILL	11	9	[0, 0, 0]	n/a	FR1	1	R1363T
1575.615	0.936	1577303	WORD_OFF	n/a	n/a	HILL	11	9	[0, 0, 0]	n/a	FR1	1	R1363T
1576.551	1.631	1578239	WORD	n/a	n/a	SWAMP	12	9	[0, 0, 0]	n/a	FR1	1	R1363T
1578.182	0.0	1579870	ENCODING_END	n/a	n/a	n/a	-999	9	[0, 0, 0]	n/a	FR1	1	R1363T
1578.182	0.001	1579870	WORD_OFF	n/a	n/a	SWAMP	12	9	[0, 0, 0]	n/a	FR1	1	R1363T
1578.183	0.0	1579871	DISTRACT_START	n/a	n/a	n/a	-999	9	[0, 0, 0]	n/a	FR1	1	R1363T
1578.183	0.015	1579871	START	n/a	n/a	n/a	-999	9	[-999, -999, -999]	n/a	FR1	1	R1363T
1578.198	13.719	1579886	PROB	13.719	n/a	n/a	-999	9	[5, 6, 4]	1	FR1	1	R1363T
1591.917	8.671	1593604	PROB	8.671	n/a	n/a	-999	9	[5, 9, 9]	23	FR1	1	R1363T
1600.588	0.014	1602274	STOP	n/a	n/a	n/a	-999	9	[-999, -999, -999]	n/a	FR1	1	R1363T
1600.602	0.607	1602288	DISTRACT_END	n/a	n/a	n/a	-999	9	[0, 0, 0]	n/a	FR1	1	R1363T
1601.209	1.594	1602895	RETRIEVAL_ORIENT_START	n/a	n/a	n/a	-999	9	[0, 0, 0]	n/a	FR1	1	R1363T
1602.803	0.0	1604489	RETRIEVAL_ORIENT_END	n/a	n/a	n/a	-999	9	[0, 0, 0]	n/a	FR1	1	R1363T
1602.803	2.237	1604489	REC_START	n/a	n/a	n/a	-999	9	[0, 0, 0]	n/a	FR1	1	R1363T
1605.04	17.901	1606726	REC_WORD	17.901	n/a	SWAMP	12	9	[0, 0, 0]	n/a	FR1	1	R1363T
1622.941	3.26	1624626	REC_WORD	3.26	n/a	SNAIL	-999	9	[0, 0, 0]	n/a	FR1	1	R1363T
1626.201	2.181	1627885	REC_WORD_VV	2.181	n/a	<>	-999	9	[0, 0, 0]	n/a	FR1	1	R1363T
1628.382	1.0	1630066	REC_WORD_VV	1.0	n/a	<>	-999	9	[0, 0, 0]	n/a	FR1	1	R1363T
1629.382	3.436	1631066	REC_WORD_VV	3.436	n/a	<>	-999	9	[0, 0, 0]	n/a	FR1	1	R1363T
1632.818	0.0	1634502	REC_END	n/a	n/a	n/a	-999	9	[0, 0, 0]	n/a	FR1	1	R1363T
1632.818	0.015	1634502	TRIAL_END	n/a	n/a	n/a	-999	9	[0, 0, 0]	n/a	FR1	1	R1363T
1632.833	0.001	1634517	TRIAL_START	n/a	n/a	n/a	-999	10	[0, 0, 0]	n/a	FR1	1	R1363T
1632.834	0.0	1634518	TRIAL	n/a	n/a	n/a	-999	10	[0, 0, 0]	n/a	FR1	1	R1363T
1632.834	2.657	1634518	WAITING_START	n/a	n/a	n/a	-999	10	[0, 0, 0]	n/a	FR1	1	R1363T
1635.491	0.001	1637175	WAITING_END	n/a	n/a	n/a	-999	10	[0, 0, 0]	n/a	FR1	1	R1363T
1635.492	10.428	1637176	COUNTDOWN_START	n/a	n/a	n/a	-999	10	[0, 0, 0]	n/a	FR1	1	R1363T
1645.92	0.001	1647603	COUNTDOWN_END	n/a	n/a	n/a	-999	10	[0, 0, 0]	n/a	FR1	1	R1363T
1645.921	1.023	1647604	ORIENT_START	n/a	n/a	n/a	-999	10	[0, 0, 0]	n/a	FR1	1	R1363T
1646.944	0.0	1648627	ORIENT_END	n/a	n/a	n/a	-999	10	[0, 0, 0]	n/a	FR1	1	R1363T
1646.944	0.943	1648627	ENCODING_START	n/a	n/a	n/a	-999	10	[0, 0, 0]	n/a	FR1	1	R1363T
1647.887	1.624	1649570	WORD	n/a	n/a	CLOUD	1	10	[0, 0, 0]	n/a	FR1	1	R1363T
1649.511	0.768	1651194	WORD_OFF	n/a	n/a	CLOUD	1	10	[0, 0, 0]	n/a	FR1	1	R1363T
1650.279	1.633	1651962	WORD	n/a	n/a	STRING	2	10	[0, 0, 0]	n/a	FR1	1	R1363T
1651.912	0.964	1653595	WORD_OFF	n/a	n/a	STRING	2	10	[0, 0, 0]	n/a	FR1	1	R1363T
1652.876	1.636	1654558	WORD	n/a	n/a	HOOF	3	10	[0, 0, 0]	n/a	FR1	1	R1363T
1654.512	0.861	1656194	WORD_OFF	n/a	n/a	HOOF	3	10	[0, 0, 0]	n/a	FR1	1	R1363T
1655.373	1.623	1657055	WORD	n/a	n/a	CONE	4	10	[0, 0, 0]	n/a	FR1	1	R1363T
1656.996	1.005	1658678	WORD_OFF	n/a	n/a	CONE	4	10	[0, 0, 0]	n/a	FR1	1	R1363T
1658.001	1.629	1659683	WORD	n/a	n/a	SOCK	5	10	[0, 0, 0]	n/a	FR1	1	R1363T
1659.63	0.789	1661312	WORD_OFF	n/a	n/a	SOCK	5	10	[0, 0, 0]	n/a	FR1	1	R1363T
1660.419	1.628	1662101	WORD	n/a	n/a	BOY	6	10	[0, 0, 0]	n/a	FR1	1	R1363T
1662.047	1.051	1663729	WORD_OFF	n/a	n/a	BOY	6	10	[0, 0, 0]	n/a	FR1	1	R1363T
1663.098	1.633	1664780	WORD	n/a	n/a	DOLL	7	10	[0, 0, 0]	n/a	FR1	1	R1363T
1664.731	1.106	1666413	WORD_OFF	n/a	n/a	DOLL	7	10	[0, 0, 0]	n/a	FR1	1	R1363T
1665.837	1.626	1667518	WORD	n/a	n/a	NOSE	8	10	[0, 0, 0]	n/a	FR1	1	R1363T
1667.463	1.057	1669144	WORD_OFF	n/a	n/a	NOSE	8	10	[0, 0, 0]	n/a	FR1	1	R1363T
1668.52	1.628	1670201	WORD	n/a	n/a	PIPE	9	10	[0, 0, 0]	n/a	FR1	1	R1363T
1670.148	0.834	1671829	WORD_OFF	n/a	n/a	PIPE	9	10	[0, 0, 0]	n/a	FR1	1	R1363T
1670.982	1.633	1672663	WORD	n/a	n/a	WORLD	10	10	[0, 0, 0]	n/a	FR1	1	R1363T
1672.615	1.057	1674296	WORD_OFF	n/a	n/a	WORLD	10	10	[0, 0, 0]	n/a	FR1	1	R1363T
1673.672	1.627	1675353	WORD	n/a	n/a	ROOM	11	10	[0, 0, 0]	n/a	FR1	1	R1363T
1675.299	1.059	1676980	WORD_OFF	n/a	n/a	ROOM	11	10	[0, 0, 0]	n/a	FR1	1	R1363T
1676.358	1.625	1678039	WORD	n/a	n/a	CHAIR	12	10	[0, 0, 0]	n/a	FR1	1	R1363T
1677.983	0.0	1679664	WORD_OFF	n/a	n/a	CHAIR	12	10	[0, 0, 0]	n/a	FR1	1	R1363T
1677.983	0.001	1679664	ENCODING_END	n/a	n/a	n/a	-999	10	[0, 0, 0]	n/a	FR1	1	R1363T
1677.984	0.0	1679665	DISTRACT_START	n/a	n/a	n/a	-999	10	[0, 0, 0]	n/a	FR1	1	R1363T
1677.984	0.015	1679665	START	n/a	n/a	n/a	-999	10	[-999, -999, -999]	n/a	FR1	1	R1363T
1677.999	13.369	1679680	PROB	13.369	n/a	n/a	-999	10	[2, 4, 8]	14	FR1	1	R1363T
1691.368	24.204	1693048	PROB	24.204	n/a	n/a	-999	10	[3, 9, 6]	18	FR1	1	R1363T
1715.572	0.018	1717250	STOP	n/a	n/a	n/a	-999	10	[-999, -999, -999]	n/a	FR1	1	R1363T
1715.59	0.594	1717268	DISTRACT_END	n/a	n/a	n/a	-999	10	[0, 0, 0]	n/a	FR1	1	R1363T
1716.184	1.556	1717862	RETRIEVAL_ORIENT_START	n/a	n/a	n/a	-999	10	[0, 0, 0]	n/a	FR1	1	R1363T
1717.74	0.0	1719418	RETRIEVAL_ORIENT_END	n/a	n/a	n/a	-999	10	[0, 0, 0]	n/a	FR1	1	R1363T
1717.74	0.988	1719418	REC_START	n/a	n/a	n/a	-999	10	[0, 0, 0]	n/a	FR1	1	R1363T
1718.728	2.026	1720406	REC_WORD	2.026	n/a	PIPE	9	10	[0, 0, 0]	n/a	FR1	1	R1363T
1720.754	4.892	1722431	REC_WORD	4.892	n/a	CLOUD	1	10	[0, 0, 0]	n/a	FR1	1	R1363T
1725.646	9.59	1727323	REC_WORD_VV	9.59	n/a	<>	-999	10	[0, 0, 0]	n/a	FR1	1	R1363T
1735.236	0.312	1736912	REC_WORD	0.312	n/a	PIPE	9	10	[0, 0, 0]	n/a	FR1	1	R1363T
1735.548	0.499	1737224	REC_WORD	0.499	n/a	CLOUD	1	10	[0, 0, 0]	n/a	FR1	1	R1363T
1736.047	7.473	1737723	REC_WORD	7.473	n/a	ROAD	-999	10	[0, 0, 0]	n/a	FR1	1	R1363T
1743.52	4.233	1745196	REC_WORD_VV	4.233	n/a	<>	-999	10	[0, 0, 0]	n/a	FR1	1	R1363T
1747.753	0.001	1749428	REC_END	n/a	n/a	n/a	-999	10	[0, 0, 0]	n/a	FR1	1	R1363T
1747.754	0.014	1749429	TRIAL_END	n/a	n/a	n/a	-999	10	[0, 0, 0]	n/a	FR1	1	R1363T
1747.768	0.0	1749443	WAITING_START	n/a	n/a	n/a	-999	11	[0, 0, 0]	n/a	FR1	1	R1363T
1747.768	0.0	1749443	TRIAL	n/a	n/a	n/a	-999	11	[0, 0, 0]	n/a	FR1	1	R1363T
1747.768	10.03	1749443	TRIAL_START	n/a	n/a	n/a	-999	11	[0, 0, 0]	n/a	FR1	1	R1363T
1757.798	0.0	1759473	WAITING_END	n/a	n/a	n/a	-999	11	[0, 0, 0]	n/a	FR1	1	R1363T
1757.798	10.429	1759473	COUNTDOWN_START	n/a	n/a	n/a	-999	11	[0, 0, 0]	n/a	FR1	1	R1363T
1768.227	0.0	1769901	COUNTDOWN_END	n/a	n/a	n/a	-999	11	[0, 0, 0]	n/a	FR1	1	R1363T
1768.227	1.056	1769901	ORIENT_START	n/a	n/a	n/a	-999	11	[0, 0, 0]	n/a	FR1	1	R1363T
1769.283	0.0	1770957	ORIENT_END	n/a	n/a	n/a	-999	11	[0, 0, 0]	n/a	FR1	1	R1363T
1769.283	1.054	1770957	ENCODING_START	n/a	n/a	n/a	-999	11	[0, 0, 0]	n/a	FR1	1	R1363T
1770.337	1.63	1772011	WORD	n/a	n/a	LAKE	1	11	[0, 0, 0]	n/a	FR1	1	R1363T
1771.967	0.905	1773641	WORD_OFF	n/a	n/a	LAKE	1	11	[0, 0, 0]	n/a	FR1	1	R1363T
1772.872	1.628	1774545	WORD	n/a	n/a	MAT	2	11	[0, 0, 0]	n/a	FR1	1	R1363T
1774.5	1.012	1776173	WORD_OFF	n/a	n/a	MAT	2	11	[0, 0, 0]	n/a	FR1	1	R1363T
1775.512	1.622	1777185	WORD	n/a	n/a	FLAME	3	11	[0, 0, 0]	n/a	FR1	1	R1363T
1777.134	1.079	1778807	WORD_OFF	n/a	n/a	FLAME	3	11	[0, 0, 0]	n/a	FR1	1	R1363T
1778.213	1.622	1779886	WORD	n/a	n/a	MAZE	4	11	[0, 0, 0]	n/a	FR1	1	R1363T
1779.835	0.935	1781508	WORD_OFF	n/a	n/a	MAZE	4	11	[0, 0, 0]	n/a	FR1	1	R1363T
1780.77	1.631	1782443	WORD	n/a	n/a	FOOD	5	11	[0, 0, 0]	n/a	FR1	1	R1363T
1782.401	1.113	1784074	WORD_OFF	n/a	n/a	FOOD	5	11	[0, 0, 0]	n/a	FR1	1	R1363T
1783.514	1.622	1785187	WORD	n/a	n/a	FILM	6	11	[0, 0, 0]	n/a	FR1	1	R1363T
1785.136	1.07	1786809	WORD_OFF	n/a	n/a	FILM	6	11	[0, 0, 0]	n/a	FR1	1	R1363T
1786.206	1.63	1787879	WORD	n/a	n/a	BRIDGE	7	11	[0, 0, 0]	n/a	FR1	1	R1363T
1787.836	1.046	1789508	WORD_OFF	n/a	n/a	BRIDGE	7	11	[0, 0, 0]	n/a	FR1	1	R1363T
1788.882	1.621	1790554	WORD	n/a	n/a	BANK	8	11	[0, 0, 0]	n/a	FR1	1	R1363T
1790.503	0.918	1792175	WORD_OFF	n/a	n/a	BANK	8	11	[0, 0, 0]	n/a	FR1	1	R1363T
1791.421	1.633	1793093	WORD	n/a	n/a	SHIP	9	11	[0, 0, 0]	n/a	FR1	1	R1363T
1793.054	1.048	1794726	WORD_OFF	n/a	n/a	SHIP	9	11	[0, 0, 0]	n/a	FR1	1	R1363T
1794.102	1.636	1795774	WORD	n/a	n/a	BADGE	10	11	[0, 0, 0]	n/a	FR1	1	R1363T
1795.738	0.966	1797410	WORD_OFF	n/a	n/a	BADGE	10	11	[0, 0, 0]	n/a	FR1	1	R1363T
1796.704	1.633	1798376	WORD	n/a	n/a	PALM	11	11	[0, 0, 0]	n/a	FR1	1	R1363T
1798.337	1.133	1800009	WORD_OFF	n/a	n/a	PALM	11	11	[0, 0, 0]	n/a	FR1	1	R1363T
1799.47	1.618	1801142	WORD	n/a	n/a	SNOW	12	11	[0, 0, 0]	n/a	FR1	1	R1363T
1801.088	0.001	1802759	WORD_OFF	n/a	n/a	SNOW	12	11	[0, 0, 0]	n/a	FR1	1	R1363T
1801.089	0.0	1802760	ENCODING_END	n/a	n/a	n/a	-999	11	[0, 0, 0]	n/a	FR1	1	R1363T
1801.089	0.0	1802760	DISTRACT_START	n/a	n/a	n/a	-999	11	[0, 0, 0]	n/a	FR1	1	R1363T
1801.089	0.016	1802760	START	n/a	n/a	n/a	-999	11	[-999, -999, -999]	n/a	FR1	1	R1363T
1801.105	7.885	1802776	PROB	7.885	n/a	n/a	-999	11	[8, 7, 3]	18	FR1	1	R1363T
1808.99	7.268	1810661	PROB	7.268	n/a	n/a	-999	11	[2, 8, 6]	16	FR1	1	R1363T
1816.258	8.399	1817928	PROB	8.399	n/a	n/a	-999	11	[6, 4, 6]	16	FR1	1	R1363T
1824.657	0.019	1826327	STOP	n/a	n/a	n/a	-999	11	[-999, -999, -999]	n/a	FR1	1	R1363T
1824.676	0.519	1826346	DISTRACT_END	n/a	n/a	n/a	-999	11	[0, 0, 0]	n/a	FR1	1	R1363T
1825.195	1.682	1826865	RETRIEVAL_ORIENT_START	n/a	n/a	n/a	-999	11	[0, 0, 0]	n/a	FR1	1	R1363T
1826.877	0.0	1828546	REC_START	n/a	n/a	n/a	-999	11	[0, 0, 0]	n/a	FR1	1	R1363T
1826.877	2.815	1828546	RETRIEVAL_ORIENT_END	n/a	n/a	n/a	-999	11	[0, 0, 0]	n/a	FR1	1	R1363T
1829.692	3.077	1831361	REC_WORD_VV	3.077	n/a	<>	-999	11	[0, 0, 0]	n/a	FR1	1	R1363T
1832.769	4.958	1834438	REC_WORD	4.958	n/a	BOAT	-999	11	[0, 0, 0]	n/a	FR1	1	R1363T
1837.727	10.825	1839396	REC_WORD	10.825	n/a	SWING	-999	11	[0, 0, 0]	n/a	FR1	1	R1363T
1848.552	0.552	1850220	REC_WORD	0.552	n/a	LAKE	1	11	[0, 0, 0]	n/a	FR1	1	R1363T
1849.104	7.782	1850772	REC_WORD_VV	7.782	n/a	<>	-999	11	[0, 0, 0]	n/a	FR1	1	R1363T
1856.886	0.001	1858553	REC_END	n/a	n/a	n/a	-999	11	[0, 0, 0]	n/a	FR1	1	R1363T
1856.887	0.014	1858554	TRIAL_END	n/a	n/a	n/a	-999	11	[0, 0, 0]	n/a	FR1	1	R1363T
1856.901	0.0	1858568	TRIAL_START	n/a	n/a	n/a	-999	12	[0, 0, 0]	n/a	FR1	1	R1363T
1856.901	0.0	1858568	TRIAL	n/a	n/a	n/a	-999	12	[0, 0, 0]	n/a	FR1	1	R1363T
1856.901	3.365	1858568	WAITING_START	n/a	n/a	n/a	-999	12	[0, 0, 0]	n/a	FR1	1	R1363T
1860.266	0.0	1861933	COUNTDOWN_START	n/a	n/a	n/a	-999	12	[0, 0, 0]	n/a	FR1	1	R1363T
1860.266	10.43	1861933	WAITING_END	n/a	n/a	n/a	-999	12	[0, 0, 0]	n/a	FR1	1	R1363T
1870.696	0.0	1872362	COUNTDOWN_END	n/a	n/a	n/a	-999	12	[0, 0, 0]	n/a	FR1	1	R1363T
1870.696	1.222	1872362	ORIENT_START	n/a	n/a	n/a	-999	12	[0, 0, 0]	n/a	FR1	1	R1363T
1871.918	0.001	1873584	ORIENT_END	n/a	n/a	n/a	-999	12	[0, 0, 0]	n/a	FR1	1	R1363T
1871.919	1.093	1873585	ENCODING_START	n/a	n/a	n/a	-999	12	[0, 0, 0]	n/a	FR1	1	R1363T
1873.012	1.623	1874678	WORD	n/a	n/a	BLOOM	1	12	[0, 0, 0]	n/a	FR1	1	R1363T
1874.635	1.02	1876301	WORD_OFF	n/a	n/a	BLOOM	1	12	[0, 0, 0]	n/a	FR1	1	R1363T
1875.655	1.631	1877321	WORD	n/a	n/a	TAIL	2	12	[0, 0, 0]	n/a	FR1	1	R1363T
1877.286	0.852	1878952	WORD_OFF	n/a	n/a	TAIL	2	12	[0, 0, 0]	n/a	FR1	1	R1363T
1878.138	1.632	1879804	WORD	n/a	n/a	GEESE	3	12	[0, 0, 0]	n/a	FR1	1	R1363T
1879.77	0.811	1881436	WORD_OFF	n/a	n/a	GEESE	3	12	[0, 0, 0]	n/a	FR1	1	R1363T
1880.581	1.622	1882246	WORD	n/a	n/a	SPEAR	4	12	[0, 0, 0]	n/a	FR1	1	R1363T
1882.203	1.136	1883868	WORD_OFF	n/a	n/a	SPEAR	4	12	[0, 0, 0]	n/a	FR1	1	R1363T
1883.339	1.615	1885004	WORD	n/a	n/a	WORM	5	12	[0, 0, 0]	n/a	FR1	1	R1363T
1884.954	0.835	1886619	WORD_OFF	n/a	n/a	WORM	5	12	[0, 0, 0]	n/a	FR1	1	R1363T
1885.789	1.631	1887454	WORD	n/a	n/a	DRUM	6	12	[0, 0, 0]	n/a	FR1	1	R1363T
1887.42	0.866	1889085	WORD_OFF	n/a	n/a	DRUM	6	12	[0, 0, 0]	n/a	FR1	1	R1363T
1888.286	1.635	1889951	WORD	n/a	n/a	DOG	7	12	[0, 0, 0]	n/a	FR1	1	R1363T
1889.921	1.007	1891586	WORD_OFF	n/a	n/a	DOG	7	12	[0, 0, 0]	n/a	FR1	1	R1363T
1890.928	1.627	1892593	WORD	n/a	n/a	HEN	8	12	[0, 0, 0]	n/a	FR1	1	R1363T
1892.555	1.042	1894220	WORD_OFF	n/a	n/a	HEN	8	12	[0, 0, 0]	n/a	FR1	1	R1363T
1893.597	1.625	1895262	WORD	n/a	n/a	STAR	9	12	[0, 0, 0]	n/a	FR1	1	R1363T
1895.222	0.959	1896886	WORD_OFF	n/a	n/a	STAR	9	12	[0, 0, 0]	n/a	FR1	1	R1363T
1896.181	1.625	1897845	WORD	n/a	n/a	WEB	10	12	[0, 0, 0]	n/a	FR1	1	R1363T
1897.806	0.942	1899470	WORD_OFF	n/a	n/a	WEB	10	12	[0, 0, 0]	n/a	FR1	1	R1363T
1898.748	1.624	1900412	WORD	n/a	n/a	SCHOOL	11	12	[0, 0, 0]	n/a	FR1	1	R1363T
1900.372	0.986	1902036	WORD_OFF	n/a	n/a	SCHOOL	11	12	[0, 0, 0]	n/a	FR1	1	R1363T
1901.358	1.632	1903022	WORD	n/a	n/a	RUG	12	12	[0, 0, 0]	n/a	FR1	1	R1363T
1902.99	0.001	1904654	WORD_OFF	n/a	n/a	RUG	12	12	[0, 0, 0]	n/a	FR1	1	R1363T
1902.991	0.0	1904655	ENCODING_END	n/a	n/a	n/a	-999	12	[0, 0, 0]	n/a	FR1	1	R1363T
1902.991	0.0	1904655	DISTRACT_START	n/a	n/a	n/a	-999	12	[0, 0, 0]	n/a	FR1	1	R1363T
1902.991	0.016	1904655	START	n/a	n/a	n/a	-999	12	[-999, -999, -999]	n/a	FR1	1	R1363T
1903.007	9.518	1904671	PROB	9.518	n/a	n/a	-999	12	[6, 3, 6]	15	FR1	1	R1363T
1912.525	5.501	1914188	PROB	5.501	n/a	n/a	-999	12	[7, 2, 1]	10	FR1	1	R1363T
1918.026	9.309	1919689	PROB	9.309	n/a	n/a	-999	12	[5, 3, 9]	18	FR1	1	R1363T
1927.335	0.009	1928997	STOP	n/a	n/a	n/a	-999	12	[-999, -999, -999]	n/a	FR1	1	R1363T
1927.344	0.633	1929006	DISTRACT_END	n/a	n/a	n/a	-999	12	[0, 0, 0]	n/a	FR1	1	R1363T
1927.977	1.551	1929639	RETRIEVAL_ORIENT_START	n/a	n/a	n/a	-999	12	[0, 0, 0]	n/a	FR1	1	R1363T
1929.528	0.001	1931190	RETRIEVAL_ORIENT_END	n/a	n/a	n/a	-999	12	[0, 0, 0]	n/a	FR1	1	R1363T
1929.529	7.156	1931191	REC_START	n/a	n/a	n/a	-999	12	[0, 0, 0]	n/a	FR1	1	R1363T
1936.685	1.0	1938346	REC_WORD_VV	1.0	n/a	<>	-999	12	[0, 0, 0]	n/a	FR1	1	R1363T
1937.685	0.415	1939346	REC_WORD_VV	0.415	n/a	<>	-999	12	[0, 0, 0]	n/a	FR1	1	R1363T
1938.1	1.665	1939761	REC_WORD	1.665	n/a	BLOOM	1	12	[0, 0, 0]	n/a	FR1	1	R1363T
1939.765	6.516	1941426	REC_WORD_VV	6.516	n/a	<>	-999	12	[0, 0, 0]	n/a	FR1	1	R1363T
1946.281	3.005	1947942	REC_WORD	3.005	n/a	CHASE	-999	12	[0, 0, 0]	n/a	FR1	1	R1363T
1949.286	8.879	1950946	REC_WORD_VV	8.879	n/a	<>	-999	12	[0, 0, 0]	n/a	FR1	1	R1363T
1958.165	1.376	1959825	REC_WORD_VV	1.376	n/a	<>	-999	12	[0, 0, 0]	n/a	FR1	1	R1363T
1959.541	0.001	1961201	REC_END	n/a	n/a	n/a	-999	12	[0, 0, 0]	n/a	FR1	1	R1363T
1959.542	0.015	1961202	TRIAL_END	n/a	n/a	n/a	-999	12	[0, 0, 0]	n/a	FR1	1	R1363T
1959.557	0.0	1961217	TRIAL_START	n/a	n/a	n/a	-999	13	[0, 0, 0]	n/a	FR1	1	R1363T
1959.557	0.0	1961217	TRIAL	n/a	n/a	n/a	-999	13	[0, 0, 0]	n/a	FR1	1	R1363T
1959.557	2.86	1961217	WAITING_START	n/a	n/a	n/a	-999	13	[0, 0, 0]	n/a	FR1	1	R1363T
1962.417	0.0	1964076	COUNTDOWN_START	n/a	n/a	n/a	-999	13	[0, 0, 0]	n/a	FR1	1	R1363T
1962.417	10.43	1964076	WAITING_END	n/a	n/a	n/a	-999	13	[0, 0, 0]	n/a	FR1	1	R1363T
1972.847	0.0	1974506	COUNTDOWN_END	n/a	n/a	n/a	-999	13	[0, 0, 0]	n/a	FR1	1	R1363T
1972.847	1.223	1974506	ORIENT_START	n/a	n/a	n/a	-999	13	[0, 0, 0]	n/a	FR1	1	R1363T
1974.07	0.0	1975729	ORIENT_END	n/a	n/a	n/a	-999	13	[0, 0, 0]	n/a	FR1	1	R1363T
1974.07	0.982	1975729	ENCODING_START	n/a	n/a	n/a	-999	13	[0, 0, 0]	n/a	FR1	1	R1363T
1975.052	1.635	1976710	WORD	n/a	n/a	PLANT	1	13	[0, 0, 0]	n/a	FR1	1	R1363T
1976.687	1.069	1978345	WORD_OFF	n/a	n/a	PLANT	1	13	[0, 0, 0]	n/a	FR1	1	R1363T
1977.756	1.631	1979414	WORD	n/a	n/a	MOON	2	13	[0, 0, 0]	n/a	FR1	1	R1363T
1979.387	0.878	1981045	WORD_OFF	n/a	n/a	MOON	2	13	[0, 0, 0]	n/a	FR1	1	R1363T
1980.265	1.623	1981923	WORD	n/a	n/a	FLAG	3	13	[0, 0, 0]	n/a	FR1	1	R1363T
1981.888	0.916	1983546	WORD_OFF	n/a	n/a	FLAG	3	13	[0, 0, 0]	n/a	FR1	1	R1363T
1982.804	1.633	1984462	WORD	n/a	n/a	ANT	4	13	[0, 0, 0]	n/a	FR1	1	R1363T
1984.437	0.898	1986095	WORD_OFF	n/a	n/a	ANT	4	13	[0, 0, 0]	n/a	FR1	1	R1363T
1985.335	1.637	1986993	WORD	n/a	n/a	ROAD	5	13	[0, 0, 0]	n/a	FR1	1	R1363T
1986.972	1.111	1988630	WORD_OFF	n/a	n/a	ROAD	5	13	[0, 0, 0]	n/a	FR1	1	R1363T
1988.083	1.623	1989740	WORD	n/a	n/a	FORK	6	13	[0, 0, 0]	n/a	FR1	1	R1363T
1989.706	1.051	1991363	WORD_OFF	n/a	n/a	FORK	6	13	[0, 0, 0]	n/a	FR1	1	R1363T
1990.757	1.632	1992414	WORD	n/a	n/a	TIE	7	13	[0, 0, 0]	n/a	FR1	1	R1363T
1992.389	0.926	1994046	WORD_OFF	n/a	n/a	TIE	7	13	[0, 0, 0]	n/a	FR1	1	R1363T
1993.315	1.609	1994972	WORD	n/a	n/a	LOCK	8	13	[0, 0, 0]	n/a	FR1	1	R1363T
1994.924	1.101	1996581	WORD_OFF	n/a	n/a	LOCK	8	13	[0, 0, 0]	n/a	FR1	1	R1363T
1996.025	1.633	1997682	WORD	n/a	n/a	DUCK	9	13	[0, 0, 0]	n/a	FR1	1	R1363T
1997.658	0.843	1999315	WORD_OFF	n/a	n/a	DUCK	9	13	[0, 0, 0]	n/a	FR1	1	R1363T
1998.501	1.624	2000158	WORD	n/a	n/a	MOUSE	10	13	[0, 0, 0]	n/a	FR1	1	R1363T
2000.125	0.89	2001782	WORD_OFF	n/a	n/a	MOUSE	10	13	[0, 0, 0]	n/a	FR1	1	R1363T
2001.015	1.627	2002672	WORD	n/a	n/a	SHARK	11	13	[0, 0, 0]	n/a	FR1	1	R1363T
2002.642	0.782	2004298	WORD_OFF	n/a	n/a	SHARK	11	13	[0, 0, 0]	n/a	FR1	1	R1363T
2003.424	1.635	2005080	WORD	n/a	n/a	CHALK	12	13	[0, 0, 0]	n/a	FR1	1	R1363T
2005.059	0.0	2006715	WORD_OFF	n/a	n/a	CHALK	12	13	[0, 0, 0]	n/a	FR1	1	R1363T
2005.059	0.0	2006715	ENCODING_END	n/a	n/a	n/a	-999	13	[0, 0, 0]	n/a	FR1	1	R1363T
2005.059	0.001	2006715	DISTRACT_START	n/a	n/a	n/a	-999	13	[0, 0, 0]	n/a	FR1	1	R1363T
2005.06	0.015	2006716	START	n/a	n/a	n/a	-999	13	[-999, -999, -999]	n/a	FR1	1	R1363T
2005.075	11.335	2006731	PROB	11.335	n/a	n/a	-999	13	[1, 2, 7]	10	FR1	1	R1363T
2016.41	4.885	2018065	PROB	4.885	n/a	n/a	-999	13	[1, 5, 3]	9	FR1	1	R1363T
2021.295	6.932	2022950	PROB	6.932	n/a	n/a	-999	13	[4, 2, 3]	10	FR1	1	R1363T
2028.227	0.019	2029881	STOP	n/a	n/a	n/a	-999	13	[-999, -999, -999]	n/a	FR1	1	R1363T
2028.246	0.505	2029900	DISTRACT_END	n/a	n/a	n/a	-999	13	[0, 0, 0]	n/a	FR1	1	R1363T
2028.751	1.562	2030405	RETRIEVAL_ORIENT_START	n/a	n/a	n/a	-999	13	[0, 0, 0]	n/a	FR1	1	R1363T
2030.313	0.001	2031967	RETRIEVAL_ORIENT_END	n/a	n/a	n/a	-999	13	[0, 0, 0]	n/a	FR1	1	R1363T
2030.314	4.431	2031968	REC_START	n/a	n/a	n/a	-999	13	[0, 0, 0]	n/a	FR1	1	R1363T
2034.745	1.486	2036399	REC_WORD	1.486	n/a	SHOE	-999	13	[0, 0, 0]	n/a	FR1	1	R1363T
2036.231	1.147	2037885	REC_WORD	1.147	n/a	BLOCK	-999	13	[0, 0, 0]	n/a	FR1	1	R1363T
2037.378	4.163	2039032	REC_WORD	4.163	n/a	RIVER	-999	13	[0, 0, 0]	n/a	FR1	1	R1363T
2041.541	10.719	2043194	REC_WORD_VV	10.719	n/a	<>	-999	13	[0, 0, 0]	n/a	FR1	1	R1363T
2052.26	1.0	2053913	REC_WORD_VV	1.0	n/a	<>	-999	13	[0, 0, 0]	n/a	FR1	1	R1363T
2053.26	1.0	2054913	REC_WORD_VV	1.0	n/a	<>	-999	13	[0, 0, 0]	n/a	FR1	1	R1363T
2054.26	1.0	2055913	REC_WORD_VV	1.0	n/a	<>	-999	13	[0, 0, 0]	n/a	FR1	1	R1363T
2055.26	1.0	2056912	REC_WORD_VV	1.0	n/a	<>	-999	13	[0, 0, 0]	n/a	FR1	1	R1363T
2056.26	1.0	2057912	REC_WORD_VV	1.0	n/a	<>	-999	13	[0, 0, 0]	n/a	FR1	1	R1363T
2057.26	1.0	2058912	REC_WORD_VV	1.0	n/a	<>	-999	13	[0, 0, 0]	n/a	FR1	1	R1363T
2058.26	1.0	2059912	REC_WORD_VV	1.0	n/a	<>	-999	13	[0, 0, 0]	n/a	FR1	1	R1363T
2059.26	1.0	2060912	REC_WORD_VV	1.0	n/a	<>	-999	13	[0, 0, 0]	n/a	FR1	1	R1363T
2060.26	0.065	2061912	REC_WORD_VV	0.065	n/a	<>	-999	13	[0, 0, 0]	n/a	FR1	1	R1363T
2060.325	0.001	2061977	REC_END	n/a	n/a	n/a	-999	13	[0, 0, 0]	n/a	FR1	1	R1363T
2060.326	0.014	2061978	TRIAL_END	n/a	n/a	n/a	-999	13	[0, 0, 0]	n/a	FR1	1	R1363T
2060.34	0.0	2061992	TRIAL_START	n/a	n/a	n/a	-999	14	[0, 0, 0]	n/a	FR1	1	R1363T
2060.34	0.0	2061992	TRIAL	n/a	n/a	n/a	-999	14	[0, 0, 0]	n/a	FR1	1	R1363T
2060.34	227.954	2061992	WAITING_START	n/a	n/a	n/a	-999	14	[0, 0, 0]	n/a	FR1	1	R1363T
2288.294	0.0	2289929	WAITING_END	n/a	n/a	n/a	-999	14	[0, 0, 0]	n/a	FR1	1	R1363T
2288.294	10.429	2289929	COUNTDOWN_START	n/a	n/a	n/a	-999	14	[0, 0, 0]	n/a	FR1	1	R1363T
2298.723	0.0	2300357	COUNTDOWN_END	n/a	n/a	n/a	-999	14	[0, 0, 0]	n/a	FR1	1	R1363T
2298.723	1.256	2300357	ORIENT_START	n/a	n/a	n/a	-999	14	[0, 0, 0]	n/a	FR1	1	R1363T
2299.979	0.0	2301613	ORIENT_END	n/a	n/a	n/a	-999	14	[0, 0, 0]	n/a	FR1	1	R1363T
2299.979	1.041	2301613	ENCODING_START	n/a	n/a	n/a	-999	14	[0, 0, 0]	n/a	FR1	1	R1363T
2301.02	1.626	2302654	WORD	n/a	n/a	SKUNK	1	14	[0, 0, 0]	n/a	FR1	1	R1363T
2302.646	0.756	2304280	WORD_OFF	n/a	n/a	SKUNK	1	14	[0, 0, 0]	n/a	FR1	1	R1363T
2303.402	1.628	2305036	WORD	n/a	n/a	POLE	2	14	[0, 0, 0]	n/a	FR1	1	R1363T
2305.03	1.112	2306664	WORD_OFF	n/a	n/a	POLE	2	14	[0, 0, 0]	n/a	FR1	1	R1363T
2306.142	1.622	2307776	WORD	n/a	n/a	LAMP	3	14	[0, 0, 0]	n/a	FR1	1	R1363T
2307.764	1.028	2309398	WORD_OFF	n/a	n/a	LAMP	3	14	[0, 0, 0]	n/a	FR1	1	R1363T
2308.792	1.621	2310426	WORD	n/a	n/a	SNAKE	4	14	[0, 0, 0]	n/a	FR1	1	R1363T
2310.413	0.994	2312046	WORD_OFF	n/a	n/a	SNAKE	4	14	[0, 0, 0]	n/a	FR1	1	R1363T
2311.407	1.624	2313040	WORD	n/a	n/a	DITCH	5	14	[0, 0, 0]	n/a	FR1	1	R1363T
2313.031	0.814	2314664	WORD_OFF	n/a	n/a	DITCH	5	14	[0, 0, 0]	n/a	FR1	1	R1363T
2313.845	1.636	2315478	WORD	n/a	n/a	SPOON	6	14	[0, 0, 0]	n/a	FR1	1	R1363T
2315.481	1.072	2317114	WORD_OFF	n/a	n/a	SPOON	6	14	[0, 0, 0]	n/a	FR1	1	R1363T
2316.553	1.629	2318186	WORD	n/a	n/a	GOAT	7	14	[0, 0, 0]	n/a	FR1	1	R1363T
2318.182	0.822	2319815	WORD_OFF	n/a	n/a	GOAT	7	14	[0, 0, 0]	n/a	FR1	1	R1363T
2319.004	1.629	2320637	WORD	n/a	n/a	HAT	8	14	[0, 0, 0]	n/a	FR1	1	R1363T
2320.633	1.056	2322266	WORD_OFF	n/a	n/a	HAT	8	14	[0, 0, 0]	n/a	FR1	1	R1363T
2321.689	1.628	2323322	WORD	n/a	n/a	SLIME	9	14	[0, 0, 0]	n/a	FR1	1	R1363T
2323.317	1.047	2324950	WORD_OFF	n/a	n/a	SLIME	9	14	[0, 0, 0]	n/a	FR1	1	R1363T
2324.364	1.62	2325996	WORD	n/a	n/a	PHONE	10	14	[0, 0, 0]	n/a	FR1	1	R1363T
2325.984	0.838	2327616	WORD_OFF	n/a	n/a	PHONE	10	14	[0, 0, 0]	n/a	FR1	1	R1363T
2326.822	1.628	2328454	WORD	n/a	n/a	THUMB	11	14	[0, 0, 0]	n/a	FR1	1	R1363T
2328.45	1.098	2330082	WORD_OFF	n/a	n/a	THUMB	11	14	[0, 0, 0]	n/a	FR1	1	R1363T
2329.548	1.637	2331180	WORD	n/a	n/a	VAN	12	14	[0, 0, 0]	n/a	FR1	1	R1363T
2331.185	0.0	2332817	WORD_OFF	n/a	n/a	VAN	12	14	[0, 0, 0]	n/a	FR1	1	R1363T
2331.185	0.0	2332817	ENCODING_END	n/a	n/a	n/a	-999	14	[0, 0, 0]	n/a	FR1	1	R1363T
2331.185	0.001	2332817	DISTRACT_START	n/a	n/a	n/a	-999	14	[0, 0, 0]	n/a	FR1	1	R1363T
2331.186	0.015	2332818	START	n/a	n/a	n/a	-999	14	[-999, -999, -999]	n/a	FR1	1	R1363T
2331.201	7.335	2332833	PROB	7.335	n/a	n/a	-999	14	[4, 7, 1]	12	FR1	1	R1363T
2338.536	8.718	2340167	PROB	8.718	n/a	n/a	-999	14	[3, 4, 1]	8	FR1	1	R1363T
2347.254	6.072	2348885	PROB	6.072	n/a	n/a	-999	14	[9, 8, 1]	18	FR1	1	R1363T
2353.326	0.012	2354956	STOP	n/a	n/a	n/a	-999	14	[-999, -999, -999]	n/a	FR1	1	R1363T
2353.338	0.578	2354968	DISTRACT_END	n/a	n/a	n/a	-999	14	[0, 0, 0]	n/a	FR1	1	R1363T
2353.916	1.723	2355546	RETRIEVAL_ORIENT_START	n/a	n/a	n/a	-999	14	[0, 0, 0]	n/a	FR1	1	R1363T
2355.639	0.0	2357269	RETRIEVAL_ORIENT_END	n/a	n/a	n/a	-999	14	[0, 0, 0]	n/a	FR1	1	R1363T
2355.639	1.692	2357269	REC_START	n/a	n/a	n/a	-999	14	[0, 0, 0]	n/a	FR1	1	R1363T
2357.331	1.14	2358961	REC_WORD	1.14	n/a	SKUNK	1	14	[0, 0, 0]	n/a	FR1	1	R1363T
2358.471	1.223	2360101	REC_WORD	1.223	n/a	POLE	2	14	[0, 0, 0]	n/a	FR1	1	R1363T
2359.694	3.778	2361324	REC_WORD	3.778	n/a	LAMP	3	14	[0, 0, 0]	n/a	FR1	1	R1363T
2363.472	19.001	2365102	REC_WORD	19.001	n/a	SLIME	9	14	[0, 0, 0]	n/a	FR1	1	R1363T
2382.473	3.178	2384101	REC_WORD_VV	3.178	n/a	<>	-999	14	[0, 0, 0]	n/a	FR1	1	R1363T
2385.651	0.0	2387279	REC_END	n/a	n/a	n/a	-999	14	[0, 0, 0]	n/a	FR1	1	R1363T
2385.651	0.014	2387279	TRIAL_END	n/a	n/a	n/a	-999	14	[0, 0, 0]	n/a	FR1	1	R1363T
2385.665	0.0	2387293	WAITING_START	n/a	n/a	n/a	-999	15	[0, 0, 0]	n/a	FR1	1	R1363T
2385.665	0.0	2387293	TRIAL	n/a	n/a	n/a	-999	15	[0, 0, 0]	n/a	FR1	1	R1363T
2385.665	11.482	2387293	TRIAL_START	n/a	n/a	n/a	-999	15	[0, 0, 0]	n/a	FR1	1	R1363T
2397.147	0.0	2398774	WAITING_END	n/a	n/a	n/a	-999	15	[0, 0, 0]	n/a	FR1	1	R1363T
2397.147	10.429	2398774	COUNTDOWN_START	n/a	n/a	n/a	-999	15	[0, 0, 0]	n/a	FR1	1	R1363T
2407.576	0.0	2409202	COUNTDOWN_END	n/a	n/a	n/a	-999	15	[0, 0, 0]	n/a	FR1	1	R1363T
2407.576	1.139	2409202	ORIENT_START	n/a	n/a	n/a	-999	15	[0, 0, 0]	n/a	FR1	1	R1363T
2408.715	0.001	2410341	ORIENT_END	n/a	n/a	n/a	-999	15	[0, 0, 0]	n/a	FR1	1	R1363T
2408.716	1.149	2410342	ENCODING_START	n/a	n/a	n/a	-999	15	[0, 0, 0]	n/a	FR1	1	R1363T
2409.865	1.633	2411491	WORD	n/a	n/a	INK	1	15	[0, 0, 0]	n/a	FR1	1	R1363T
2411.498	0.915	2413124	WORD_OFF	n/a	n/a	INK	1	15	[0, 0, 0]	n/a	FR1	1	R1363T
2412.413	1.62	2414039	WORD	n/a	n/a	POND	2	15	[0, 0, 0]	n/a	FR1	1	R1363T
2414.033	0.942	2415659	WORD_OFF	n/a	n/a	POND	2	15	[0, 0, 0]	n/a	FR1	1	R1363T
2414.975	1.625	2416601	WORD	n/a	n/a	THREAD	3	15	[0, 0, 0]	n/a	FR1	1	R1363T
2416.6	1.104	2418226	WORD_OFF	n/a	n/a	THREAD	3	15	[0, 0, 0]	n/a	FR1	1	R1363T
2417.704	1.629	2419329	WORD	n/a	n/a	BAG	4	15	[0, 0, 0]	n/a	FR1	1	R1363T
2419.333	1.068	2420958	WORD_OFF	n/a	n/a	BAG	4	15	[0, 0, 0]	n/a	FR1	1	R1363T
2420.401	1.633	2422026	WORD	n/a	n/a	BARN	5	15	[0, 0, 0]	n/a	FR1	1	R1363T
2422.034	1.044	2423659	WORD_OFF	n/a	n/a	BARN	5	15	[0, 0, 0]	n/a	FR1	1	R1363T
2423.078	1.624	2424703	WORD	n/a	n/a	MUG	6	15	[0, 0, 0]	n/a	FR1	1	R1363T
2424.702	1.121	2426327	WORD_OFF	n/a	n/a	MUG	6	15	[0, 0, 0]	n/a	FR1	1	R1363T
2425.823	1.628	2427448	WORD	n/a	n/a	TOOL	7	15	[0, 0, 0]	n/a	FR1	1	R1363T
2427.451	0.833	2429076	WORD_OFF	n/a	n/a	TOOL	7	15	[0, 0, 0]	n/a	FR1	1	R1363T
2428.284	1.635	2429909	WORD	n/a	n/a	KEY	8	15	[0, 0, 0]	n/a	FR1	1	R1363T
2429.919	1.022	2431544	WORD_OFF	n/a	n/a	KEY	8	15	[0, 0, 0]	n/a	FR1	1	R1363T
2430.941	1.629	2432565	WORD	n/a	n/a	BEAN	9	15	[0, 0, 0]	n/a	FR1	1	R1363T
2432.57	0.972	2434194	WORD_OFF	n/a	n/a	BEAN	9	15	[0, 0, 0]	n/a	FR1	1	R1363T
2433.542	1.628	2435166	WORD	n/a	n/a	ZOO	10	15	[0, 0, 0]	n/a	FR1	1	R1363T
2435.17	1.096	2436794	WORD_OFF	n/a	n/a	ZOO	10	15	[0, 0, 0]	n/a	FR1	1	R1363T
2436.266	1.621	2437890	WORD	n/a	n/a	PASTE	11	15	[0, 0, 0]	n/a	FR1	1	R1363T
2437.887	1.066	2439511	WORD_OFF	n/a	n/a	PASTE	11	15	[0, 0, 0]	n/a	FR1	1	R1363T
2438.953	1.635	2440577	WORD	n/a	n/a	STORM	12	15	[0, 0, 0]	n/a	FR1	1	R1363T
2440.588	0.0	2442212	WORD_OFF	n/a	n/a	STORM	12	15	[0, 0, 0]	n/a	FR1	1	R1363T
2440.588	0.0	2442212	ENCODING_END	n/a	n/a	n/a	-999	15	[0, 0, 0]	n/a	FR1	1	R1363T
2440.588	0.001	2442212	DISTRACT_START	n/a	n/a	n/a	-999	15	[0, 0, 0]	n/a	FR1	1	R1363T
2440.589	0.015	2442213	START	n/a	n/a	n/a	-999	15	[-999, -999, -999]	n/a	FR1	1	R1363T
2440.604	13.636	2442228	PROB	13.636	n/a	n/a	-999	15	[2, 9, 8]	19	FR1	1	R1363T
2454.24	12.202	2455863	PROB	12.202	n/a	n/a	-999	15	[5, 8, 8]	21	FR1	1	R1363T
2466.442	0.016	2468064	STOP	n/a	n/a	n/a	-999	15	[-999, -999, -999]	n/a	FR1	1	R1363T
2466.458	0.565	2468080	DISTRACT_END	n/a	n/a	n/a	-999	15	[0, 0, 0]	n/a	FR1	1	R1363T
2467.023	1.72	2468645	RETRIEVAL_ORIENT_START	n/a	n/a	n/a	-999	15	[0, 0, 0]	n/a	FR1	1	R1363T
2468.743	0.0	2470365	REC_START	n/a	n/a	n/a	-999	15	[0, 0, 0]	n/a	FR1	1	R1363T
2468.743	7.102	2470365	RETRIEVAL_ORIENT_END	n/a	n/a	n/a	-999	15	[0, 0, 0]	n/a	FR1	1	R1363T
2475.845	5.365	2477466	REC_WORD_VV	5.365	n/a	<>	-999	15	[0, 0, 0]	n/a	FR1	1	R1363T
2481.21	8.277	2482831	REC_WORD	8.277	n/a	PASTE	11	15	[0, 0, 0]	n/a	FR1	1	R1363T
2489.487	1.0	2491107	REC_WORD_VV	1.0	n/a	<>	-999	15	[0, 0, 0]	n/a	FR1	1	R1363T
2490.487	8.268	2492107	REC_WORD_VV	8.268	n/a	<>	-999	15	[0, 0, 0]	n/a	FR1	1	R1363T
2498.755	0.001	2500374	REC_END	n/a	n/a	n/a	-999	15	[0, 0, 0]	n/a	FR1	1	R1363T
2498.756	0.014	2500375	TRIAL_END	n/a	n/a	n/a	-999	15	[0, 0, 0]	n/a	FR1	1	R1363T
2498.77	0.0	2500389	TRIAL_START	n/a	n/a	n/a	-999	16	[0, 0, 0]	n/a	FR1	1	R1363T
2498.77	0.0	2500389	TRIAL	n/a	n/a	n/a	-999	16	[0, 0, 0]	n/a	FR1	1	R1363T
2498.77	32.583	2500389	WAITING_START	n/a	n/a	n/a	-999	16	[0, 0, 0]	n/a	FR1	1	R1363T
2531.353	0.001	2532970	WAITING_END	n/a	n/a	n/a	-999	16	[0, 0, 0]	n/a	FR1	1	R1363T
2531.354	0.0	2532971	COUNTDOWN_START	n/a	n/a	n/a	-999	16	[0, 0, 0]	n/a	FR1	1	R1363T
