onset	duration	sample	trial_type	response_time	stim_file	item_name	serialpos	list	test	answer	experiment	session	subject
0.0	42.677	826480	SESS_START	n/a	n/a	n/a	-999	-999	[0, 0, 0]	n/a	FR1	1	R1094T
42.677	10.428	869155	COUNTDOWN_START	n/a	n/a	n/a	-999	-999	[0, 0, 0]	n/a	FR1	1	R1094T
53.105	3.692	879582	COUNTDOWN_END	n/a	n/a	n/a	-999	-999	[0, 0, 0]	n/a	FR1	1	R1094T
56.797	2.517	883274	PRACTICE_WORD	n/a	n/a	VAGON	1	-1	[0, 0, 0]	n/a	FR1	1	R1094T
59.314	2.484	885791	PRACTICE_WORD	n/a	n/a	RELOJ	2	-1	[0, 0, 0]	n/a	FR1	1	R1094T
61.798	2.383	888275	PRACTICE_WORD	n/a	n/a	INUNDACION	3	-1	[0, 0, 0]	n/a	FR1	1	R1094T
64.181	2.583	890658	PRACTICE_WORD	n/a	n/a	HIERRO	4	-1	[0, 0, 0]	n/a	FR1	1	R1094T
66.764	2.418	893240	PRACTICE_WORD	n/a	n/a	HAZ	5	-1	[0, 0, 0]	n/a	FR1	1	R1094T
69.182	2.55	895658	PRACTICE_WORD	n/a	n/a	CAMELLO	6	-1	[0, 0, 0]	n/a	FR1	1	R1094T
71.732	2.601	898208	PRACTICE_WORD	n/a	n/a	RINOCERONTE	7	-1	[0, 0, 0]	n/a	FR1	1	R1094T
74.333	2.417	900809	PRACTICE_WORD	n/a	n/a	ATICO	8	-1	[0, 0, 0]	n/a	FR1	1	R1094T
76.75	2.451	903226	PRACTICE_WORD	n/a	n/a	PECHO	9	-1	[0, 0, 0]	n/a	FR1	1	R1094T
79.201	2.449	905677	PRACTICE_WORD	n/a	n/a	LENGUA	10	-1	[0, 0, 0]	n/a	FR1	1	R1094T
81.65	2.368	908126	PRACTICE_WORD	n/a	n/a	ANILLO	11	-1	[0, 0, 0]	n/a	FR1	1	R1094T
84.018	1.616	910494	PRACTICE_WORD	n/a	n/a	ALGODON	12	-1	[0, 0, 0]	n/a	FR1	1	R1094T
85.634	0.001	912109	PRACTICE_DISTRACT_START	n/a	n/a	n/a	-999	-1	[0, 0, 0]	n/a	FR1	1	R1094T
85.635	0.016	912110	START	n/a	n/a	n/a	-999	-1	[-999, -999, -999]	n/a	FR1	1	R1094T
85.651	5.968	912126	PROB	5.968	n/a	n/a	-999	-1	[2, 7, 7]	16	FR1	1	R1094T
91.619	8.001	918094	PROB	8.001	n/a	n/a	-999	-1	[4, 8, 3]	16	FR1	1	R1094T
99.62	7.911	926095	PROB	7.911	n/a	n/a	-999	-1	[8, 6, 5]	19	FR1	1	R1094T
107.531	0.008	934005	STOP	n/a	n/a	n/a	-999	-1	[-999, -999, -999]	n/a	FR1	1	R1094T
107.539	0.586	934013	PRACTICE_DISTRACT_END	n/a	n/a	n/a	-999	-1	[0, 0, 0]	n/a	FR1	1	R1094T
108.125	30.514	934599	PRACTICE_REC_START	n/a	n/a	n/a	-999	-1	[0, 0, 0]	n/a	FR1	1	R1094T
138.639	14.292	965112	PRACTICE_REC_END	n/a	n/a	n/a	-999	-1	[0, 0, 0]	n/a	FR1	1	R1094T
152.931	0.0	979403	TRIAL	n/a	n/a	n/a	-999	1	[0, 0, 0]	n/a	FR1	1	R1094T
152.931	10.428	979403	COUNTDOWN_START	n/a	n/a	n/a	-999	1	[0, 0, 0]	n/a	FR1	1	R1094T
163.359	0.007	989831	COUNTDOWN_END	n/a	n/a	n/a	-999	1	[0, 0, 0]	n/a	FR1	1	R1094T
163.366	2.467	989838	ORIENT	n/a	n/a	n/a	-999	1	[0, 0, 0]	n/a	FR1	1	R1094T
165.833	2.634	992305	WORD	n/a	wordpools/wordpool_SP.txt	COLINA	1	1	[0, 0, 0]	n/a	FR1	1	R1094T
168.467	2.401	994938	WORD	n/a	wordpools/wordpool_SP.txt	NUBE	2	1	[0, 0, 0]	n/a	FR1	1	R1094T
170.868	2.4	997339	WORD	n/a	wordpools/wordpool_SP.txt	ZAPATO	3	1	[0, 0, 0]	n/a	FR1	1	R1094T
173.268	2.433	999739	WORD	n/a	wordpools/wordpool_SP.txt	CAJA	4	1	[0, 0, 0]	n/a	FR1	1	R1094T
175.701	2.551	1002172	WORD	n/a	wordpools/wordpool_SP.txt	ARROZ	5	1	[0, 0, 0]	n/a	FR1	1	R1094T
178.252	2.433	1004723	WORD	n/a	wordpools/wordpool_SP.txt	TOSTADA	6	1	[0, 0, 0]	n/a	FR1	1	R1094T
180.685	2.601	1007156	WORD	n/a	wordpools/wordpool_SP.txt	LLUVIA	7	1	[0, 0, 0]	n/a	FR1	1	R1094T
183.286	2.534	1009757	WORD	n/a	wordpools/wordpool_SP.txt	ELFO	8	1	[0, 0, 0]	n/a	FR1	1	R1094T
185.82	2.551	1012291	WORD	n/a	wordpools/wordpool_SP.txt	PELICULA	9	1	[0, 0, 0]	n/a	FR1	1	R1094T
188.371	2.6	1014841	WORD	n/a	wordpools/wordpool_SP.txt	MENTON	10	1	[0, 0, 0]	n/a	FR1	1	R1094T
190.971	2.534	1017441	WORD	n/a	wordpools/wordpool_SP.txt	PANTANO	11	1	[0, 0, 0]	n/a	FR1	1	R1094T
193.505	1.617	1019975	WORD	n/a	wordpools/wordpool_SP.txt	SAL	12	1	[0, 0, 0]	n/a	FR1	1	R1094T
195.122	0.001	1021592	DISTRACT_START	n/a	n/a	n/a	-999	1	[0, 0, 0]	n/a	FR1	1	R1094T
195.123	0.016	1021593	START	n/a	n/a	n/a	-999	1	[-999, -999, -999]	n/a	FR1	1	R1094T
195.139	4.267	1021609	PROB	4.267	n/a	n/a	-999	1	[1, 5, 3]	9	FR1	1	R1094T
199.406	6.901	1025876	PROB	6.901	n/a	n/a	-999	1	[5, 7, 3]	15	FR1	1	R1094T
206.307	6.718	1032777	PROB	6.718	n/a	n/a	-999	1	[5, 5, 8]	18	FR1	1	R1094T
213.025	6.297	1039494	PROB	6.297	n/a	n/a	-999	1	[3, 8, 6]	17	FR1	1	R1094T
219.322	0.004	1045791	STOP	n/a	n/a	n/a	-999	1	[-999, -999, -999]	n/a	FR1	1	R1094T
219.326	1.087	1045795	DISTRACT_END	n/a	n/a	n/a	-999	1	[0, 0, 0]	n/a	FR1	1	R1094T
220.413	15.281	1046882	REC_START	n/a	n/a	n/a	-999	1	[0, 0, 0]	n/a	FR1	1	R1094T
235.694	14.727	1062162	REC_WORD	14.727	n/a	MENTON	-999	1	[0, 0, 0]	n/a	FR1	1	R1094T
250.421	2.145	1076888	REC_END	n/a	n/a	n/a	-999	1	[0, 0, 0]	n/a	FR1	1	R1094T
252.566	0.0	1079033	TRIAL	n/a	n/a	n/a	-999	2	[0, 0, 0]	n/a	FR1	1	R1094T
252.566	10.428	1079033	COUNTDOWN_START	n/a	n/a	n/a	-999	2	[0, 0, 0]	n/a	FR1	1	R1094T
262.994	0.007	1089461	COUNTDOWN_END	n/a	n/a	n/a	-999	2	[0, 0, 0]	n/a	FR1	1	R1094T
263.001	2.551	1089468	ORIENT	n/a	n/a	n/a	-999	2	[0, 0, 0]	n/a	FR1	1	R1094T
265.552	2.617	1092019	WORD	n/a	wordpools/wordpool_SP.txt	TE	1	2	[0, 0, 0]	n/a	FR1	1	R1094T
268.169	2.582	1094636	WORD	n/a	wordpools/wordpool_SP.txt	CAMARON	2	2	[0, 0, 0]	n/a	FR1	1	R1094T
270.751	2.485	1097217	WORD	n/a	wordpools/wordpool_SP.txt	LAMPARA	3	2	[0, 0, 0]	n/a	FR1	1	R1094T
273.236	2.601	1099702	WORD	n/a	wordpools/wordpool_SP.txt	TRAJE	4	2	[0, 0, 0]	n/a	FR1	1	R1094T
275.837	2.6	1102303	WORD	n/a	wordpools/wordpool_SP.txt	COMIDA	5	2	[0, 0, 0]	n/a	FR1	1	R1094T
278.437	2.501	1104903	WORD	n/a	wordpools/wordpool_SP.txt	DEDO	6	2	[0, 0, 0]	n/a	FR1	1	R1094T
280.938	2.45	1107404	WORD	n/a	wordpools/wordpool_SP.txt	PEZUNA	7	2	[0, 0, 0]	n/a	FR1	1	R1094T
283.388	2.45	1109854	WORD	n/a	wordpools/wordpool_SP.txt	RAIZ	8	2	[0, 0, 0]	n/a	FR1	1	R1094T
285.838	2.468	1112304	WORD	n/a	wordpools/wordpool_SP.txt	FRIJOL	9	2	[0, 0, 0]	n/a	FR1	1	R1094T
288.306	2.415	1114772	WORD	n/a	wordpools/wordpool_SP.txt	RASTRILLO	10	2	[0, 0, 0]	n/a	FR1	1	R1094T
290.721	2.552	1117186	WORD	n/a	wordpools/wordpool_SP.txt	MEDIA	11	2	[0, 0, 0]	n/a	FR1	1	R1094T
293.273	1.617	1119738	WORD	n/a	wordpools/wordpool_SP.txt	BANO	12	2	[0, 0, 0]	n/a	FR1	1	R1094T
294.89	0.001	1121355	DISTRACT_START	n/a	n/a	n/a	-999	2	[0, 0, 0]	n/a	FR1	1	R1094T
294.891	0.016	1121356	START	n/a	n/a	n/a	-999	2	[-999, -999, -999]	n/a	FR1	1	R1094T
294.907	7.951	1121372	PROB	7.951	n/a	n/a	-999	2	[7, 9, 6]	22	FR1	1	R1094T
302.858	6.801	1129323	PROB	6.801	n/a	n/a	-999	2	[7, 4, 5]	16	FR1	1	R1094T
309.659	6.343	1136123	PROB	6.343	n/a	n/a	-999	2	[3, 6, 3]	12	FR1	1	R1094T
316.002	0.009	1142466	STOP	n/a	n/a	n/a	-999	2	[-999, -999, -999]	n/a	FR1	1	R1094T
316.011	1.101	1142475	DISTRACT_END	n/a	n/a	n/a	-999	2	[0, 0, 0]	n/a	FR1	1	R1094T
317.112	1.939	1143576	REC_START	n/a	n/a	n/a	-999	2	[0, 0, 0]	n/a	FR1	1	R1094T
319.051	2.339	1145515	REC_WORD	2.339	n/a	RASTRILLO	-999	2	[0, 0, 0]	n/a	FR1	1	R1094T
321.39	10.718	1147854	REC_WORD	10.718	n/a	CAJA	-999	2	[0, 0, 0]	n/a	FR1	1	R1094T
332.108	15.015	1158571	REC_WORD	15.015	n/a	CAMARON	-999	2	[0, 0, 0]	n/a	FR1	1	R1094T
347.123	1.827	1173586	REC_END	n/a	n/a	n/a	-999	2	[0, 0, 0]	n/a	FR1	1	R1094T
348.95	0.0	1175413	TRIAL	n/a	n/a	n/a	-999	3	[0, 0, 0]	n/a	FR1	1	R1094T
348.95	10.428	1175413	COUNTDOWN_START	n/a	n/a	n/a	-999	3	[0, 0, 0]	n/a	FR1	1	R1094T
359.378	0.007	1185840	COUNTDOWN_END	n/a	n/a	n/a	-999	3	[0, 0, 0]	n/a	FR1	1	R1094T
359.385	2.484	1185847	ORIENT	n/a	n/a	n/a	-999	3	[0, 0, 0]	n/a	FR1	1	R1094T
361.869	2.484	1188331	WORD	n/a	wordpools/wordpool_SP.txt	CARNET	1	3	[0, 0, 0]	n/a	FR1	1	R1094T
364.353	2.55	1190815	WORD	n/a	wordpools/wordpool_SP.txt	JUEZ	2	3	[0, 0, 0]	n/a	FR1	1	R1094T
366.903	2.567	1193365	WORD	n/a	wordpools/wordpool_SP.txt	LIBRO	3	3	[0, 0, 0]	n/a	FR1	1	R1094T
369.47	2.601	1195932	WORD	n/a	wordpools/wordpool_SP.txt	CERDO	4	3	[0, 0, 0]	n/a	FR1	1	R1094T
372.071	2.633	1198532	WORD	n/a	wordpools/wordpool_SP.txt	AVION	5	3	[0, 0, 0]	n/a	FR1	1	R1094T
374.704	2.568	1201165	WORD	n/a	wordpools/wordpool_SP.txt	PAGINA	6	3	[0, 0, 0]	n/a	FR1	1	R1094T
377.272	2.416	1203733	WORD	n/a	wordpools/wordpool_SP.txt	AUTO	7	3	[0, 0, 0]	n/a	FR1	1	R1094T
379.688	2.485	1206149	WORD	n/a	wordpools/wordpool_SP.txt	HUMO	8	3	[0, 0, 0]	n/a	FR1	1	R1094T
382.173	2.4	1208634	WORD	n/a	wordpools/wordpool_SP.txt	OVEJA	9	3	[0, 0, 0]	n/a	FR1	1	R1094T
384.573	2.551	1211034	WORD	n/a	wordpools/wordpool_SP.txt	OLA	10	3	[0, 0, 0]	n/a	FR1	1	R1094T
387.124	2.417	1213585	WORD	n/a	wordpools/wordpool_SP.txt	ARCA	11	3	[0, 0, 0]	n/a	FR1	1	R1094T
389.541	1.617	1216002	WORD	n/a	wordpools/wordpool_SP.txt	JET	12	3	[0, 0, 0]	n/a	FR1	1	R1094T
391.158	0.001	1217618	DISTRACT_START	n/a	n/a	n/a	-999	3	[0, 0, 0]	n/a	FR1	1	R1094T
391.159	0.015	1217619	START	n/a	n/a	n/a	-999	3	[-999, -999, -999]	n/a	FR1	1	R1094T
391.174	6.885	1217634	PROB	6.885	n/a	n/a	-999	3	[7, 8, 2]	17	FR1	1	R1094T
398.059	4.818	1224519	PROB	4.818	n/a	n/a	-999	3	[8, 1, 3]	12	FR1	1	R1094T
402.877	8.068	1229337	PROB	8.068	n/a	n/a	-999	3	[5, 6, 9]	30	FR1	1	R1094T
410.945	6.594	1237405	PROB	6.594	n/a	n/a	-999	3	[9, 9, 6]	24	FR1	1	R1094T
417.539	0.007	1243998	STOP	n/a	n/a	n/a	-999	3	[-999, -999, -999]	n/a	FR1	1	R1094T
417.546	1.15	1244005	DISTRACT_END	n/a	n/a	n/a	-999	3	[0, 0, 0]	n/a	FR1	1	R1094T
418.696	1.303	1245155	REC_START	n/a	n/a	n/a	-999	3	[0, 0, 0]	n/a	FR1	1	R1094T
419.999	2.961	1246458	REC_WORD	2.961	n/a	CARNET	-999	3	[0, 0, 0]	n/a	FR1	1	R1094T
422.96	2.992	1249419	REC_WORD	2.992	n/a	CERDO	-999	3	[0, 0, 0]	n/a	FR1	1	R1094T
425.952	22.754	1252411	REC_WORD	22.754	n/a	AVION	-999	3	[0, 0, 0]	n/a	FR1	1	R1094T
448.706	1.662	1275164	REC_END	n/a	n/a	n/a	-999	3	[0, 0, 0]	n/a	FR1	1	R1094T
450.368	0.001	1276826	COUNTDOWN_START	n/a	n/a	n/a	-999	4	[0, 0, 0]	n/a	FR1	1	R1094T
450.369	10.427	1276827	TRIAL	n/a	n/a	n/a	-999	4	[0, 0, 0]	n/a	FR1	1	R1094T
460.796	0.008	1287253	COUNTDOWN_END	n/a	n/a	n/a	-999	4	[0, 0, 0]	n/a	FR1	1	R1094T
460.804	2.584	1287261	ORIENT	n/a	n/a	n/a	-999	4	[0, 0, 0]	n/a	FR1	1	R1094T
463.388	2.6	1289845	WORD	n/a	wordpools/wordpool_SP.txt	TAPETE	1	4	[0, 0, 0]	n/a	FR1	1	R1094T
465.988	2.501	1292445	WORD	n/a	wordpools/wordpool_SP.txt	PATIO	2	4	[0, 0, 0]	n/a	FR1	1	R1094T
468.489	2.5	1294946	WORD	n/a	wordpools/wordpool_SP.txt	ESTUFA	3	4	[0, 0, 0]	n/a	FR1	1	R1094T
470.989	2.6	1297446	WORD	n/a	wordpools/wordpool_SP.txt	CANDADO	4	4	[0, 0, 0]	n/a	FR1	1	R1094T
473.589	2.501	1300045	WORD	n/a	wordpools/wordpool_SP.txt	CARA	5	4	[0, 0, 0]	n/a	FR1	1	R1094T
476.09	2.417	1302546	WORD	n/a	wordpools/wordpool_SP.txt	TABLERO	6	4	[0, 0, 0]	n/a	FR1	1	R1094T
478.507	2.417	1304963	WORD	n/a	wordpools/wordpool_SP.txt	JAULA	7	4	[0, 0, 0]	n/a	FR1	1	R1094T
480.924	2.484	1307380	WORD	n/a	wordpools/wordpool_SP.txt	CUERNO	8	4	[0, 0, 0]	n/a	FR1	1	R1094T
483.408	2.417	1309864	WORD	n/a	wordpools/wordpool_SP.txt	VESTIDO	9	4	[0, 0, 0]	n/a	FR1	1	R1094T
485.825	2.5	1312281	WORD	n/a	wordpools/wordpool_SP.txt	MUELLE	10	4	[0, 0, 0]	n/a	FR1	1	R1094T
488.325	2.584	1314781	WORD	n/a	wordpools/wordpool_SP.txt	MADERA	11	4	[0, 0, 0]	n/a	FR1	1	R1094T
490.909	1.617	1317365	WORD	n/a	wordpools/wordpool_SP.txt	JUGUETE	12	4	[0, 0, 0]	n/a	FR1	1	R1094T
492.526	0.001	1318982	DISTRACT_START	n/a	n/a	n/a	-999	4	[0, 0, 0]	n/a	FR1	1	R1094T
492.527	0.016	1318983	START	n/a	n/a	n/a	-999	4	[-999, -999, -999]	n/a	FR1	1	R1094T
492.543	7.935	1318999	PROB	7.935	n/a	n/a	-999	4	[9, 7, 9]	25	FR1	1	R1094T
500.478	7.217	1326933	PROB	7.217	n/a	n/a	-999	4	[7, 3, 9]	19	FR1	1	R1094T
507.695	7.764	1334150	PROB	7.764	n/a	n/a	-999	4	[7, 5, 9]	21	FR1	1	R1094T
515.459	0.005	1341913	STOP	n/a	n/a	n/a	-999	4	[-999, -999, -999]	n/a	FR1	1	R1094T
515.464	1.1	1341918	DISTRACT_END	n/a	n/a	n/a	-999	4	[0, 0, 0]	n/a	FR1	1	R1094T
516.564	4.006	1343018	REC_START	n/a	n/a	n/a	-999	4	[0, 0, 0]	n/a	FR1	1	R1094T
520.57	9.79	1347024	REC_WORD	9.79	n/a	TABLERO	-999	4	[0, 0, 0]	n/a	FR1	1	R1094T
530.36	14.682	1356814	REC_WORD	14.682	n/a	JET	-999	4	[0, 0, 0]	n/a	FR1	1	R1094T
545.042	1.537	1371495	REC_WORD	1.537	n/a	JUGUETE	-999	4	[0, 0, 0]	n/a	FR1	1	R1094T
546.579	1.624	1373032	REC_END	n/a	n/a	n/a	-999	4	[0, 0, 0]	n/a	FR1	1	R1094T
548.203	0.0	1374656	TRIAL	n/a	n/a	n/a	-999	5	[0, 0, 0]	n/a	FR1	1	R1094T
548.203	10.428	1374656	COUNTDOWN_START	n/a	n/a	n/a	-999	5	[0, 0, 0]	n/a	FR1	1	R1094T
558.631	0.006	1385083	COUNTDOWN_END	n/a	n/a	n/a	-999	5	[0, 0, 0]	n/a	FR1	1	R1094T
558.637	2.452	1385089	ORIENT	n/a	n/a	n/a	-999	5	[0, 0, 0]	n/a	FR1	1	R1094T
561.089	2.5	1387541	WORD	n/a	wordpools/wordpool_SP.txt	BOLA	1	5	[0, 0, 0]	n/a	FR1	1	R1094T
563.589	2.467	1390041	WORD	n/a	wordpools/wordpool_SP.txt	GUANTE	2	5	[0, 0, 0]	n/a	FR1	1	R1094T
566.056	2.451	1392508	WORD	n/a	wordpools/wordpool_SP.txt	TAMBOR	3	5	[0, 0, 0]	n/a	FR1	1	R1094T
568.507	2.434	1394959	WORD	n/a	wordpools/wordpool_SP.txt	PALMA	4	5	[0, 0, 0]	n/a	FR1	1	R1094T
570.941	2.45	1397393	WORD	n/a	wordpools/wordpool_SP.txt	PLATO	5	5	[0, 0, 0]	n/a	FR1	1	R1094T
573.391	2.5	1399843	WORD	n/a	wordpools/wordpool_SP.txt	PRINCIPE	6	5	[0, 0, 0]	n/a	FR1	1	R1094T
575.891	2.401	1402342	WORD	n/a	wordpools/wordpool_SP.txt	SILLA	7	5	[0, 0, 0]	n/a	FR1	1	R1094T
578.292	2.399	1404743	WORD	n/a	wordpools/wordpool_SP.txt	RED	8	5	[0, 0, 0]	n/a	FR1	1	R1094T
580.691	2.618	1407142	WORD	n/a	wordpools/wordpool_SP.txt	ARBOL	9	5	[0, 0, 0]	n/a	FR1	1	R1094T
583.309	2.601	1409760	WORD	n/a	wordpools/wordpool_SP.txt	JARRON	10	5	[0, 0, 0]	n/a	FR1	1	R1094T
585.91	2.517	1412361	WORD	n/a	wordpools/wordpool_SP.txt	TIBURON	11	5	[0, 0, 0]	n/a	FR1	1	R1094T
588.427	1.617	1414878	WORD	n/a	wordpools/wordpool_SP.txt	MONEDA	12	5	[0, 0, 0]	n/a	FR1	1	R1094T
590.044	0.001	1416495	DISTRACT_START	n/a	n/a	n/a	-999	5	[0, 0, 0]	n/a	FR1	1	R1094T
590.045	0.016	1416496	START	n/a	n/a	n/a	-999	5	[-999, -999, -999]	n/a	FR1	1	R1094T
590.061	5.201	1416512	PROB	5.201	n/a	n/a	-999	5	[8, 8, 6]	22	FR1	1	R1094T
595.262	6.784	1421712	PROB	6.784	n/a	n/a	-999	5	[5, 4, 7]	16	FR1	1	R1094T
602.046	4.234	1428496	PROB	4.234	n/a	n/a	-999	5	[1, 8, 2]	11	FR1	1	R1094T
606.28	11.409	1432730	PROB	11.409	n/a	n/a	-999	5	[1, 1, 7]	9	FR1	1	R1094T
617.689	0.009	1444138	STOP	n/a	n/a	n/a	-999	5	[-999, -999, -999]	n/a	FR1	1	R1094T
617.698	1.051	1444147	DISTRACT_END	n/a	n/a	n/a	-999	5	[0, 0, 0]	n/a	FR1	1	R1094T
618.749	4.744	1445198	REC_START	n/a	n/a	n/a	-999	5	[0, 0, 0]	n/a	FR1	1	R1094T
623.493	25.266	1449942	REC_WORD	25.266	n/a	TIBURON	-999	5	[0, 0, 0]	n/a	FR1	1	R1094T
648.759	1.895	1475207	REC_END	n/a	n/a	n/a	-999	5	[0, 0, 0]	n/a	FR1	1	R1094T
650.654	0.0	1477102	TRIAL	n/a	n/a	n/a	-999	6	[0, 0, 0]	n/a	FR1	1	R1094T
650.654	10.428	1477102	COUNTDOWN_START	n/a	n/a	n/a	-999	6	[0, 0, 0]	n/a	FR1	1	R1094T
661.082	0.008	1487529	COUNTDOWN_END	n/a	n/a	n/a	-999	6	[0, 0, 0]	n/a	FR1	1	R1094T
661.09	2.517	1487537	ORIENT	n/a	n/a	n/a	-999	6	[0, 0, 0]	n/a	FR1	1	R1094T
663.607	2.601	1490054	WORD	n/a	wordpools/wordpool_SP.txt	TAZA	1	6	[0, 0, 0]	n/a	FR1	1	R1094T
666.208	2.483	1492655	WORD	n/a	wordpools/wordpool_SP.txt	CAMION	2	6	[0, 0, 0]	n/a	FR1	1	R1094T
668.691	2.501	1495138	WORD	n/a	wordpools/wordpool_SP.txt	TABURETE	3	6	[0, 0, 0]	n/a	FR1	1	R1094T
671.192	2.401	1497639	WORD	n/a	wordpools/wordpool_SP.txt	BOLSO	4	6	[0, 0, 0]	n/a	FR1	1	R1094T
673.593	2.4	1500040	WORD	n/a	wordpools/wordpool_SP.txt	CONCHA	5	6	[0, 0, 0]	n/a	FR1	1	R1094T
675.993	2.417	1502440	WORD	n/a	wordpools/wordpool_SP.txt	PERLA	6	6	[0, 0, 0]	n/a	FR1	1	R1094T
678.41	2.484	1504856	WORD	n/a	wordpools/wordpool_SP.txt	LABERINTO	7	6	[0, 0, 0]	n/a	FR1	1	R1094T
680.894	2.467	1507340	WORD	n/a	wordpools/wordpool_SP.txt	PISO	8	6	[0, 0, 0]	n/a	FR1	1	R1094T
683.361	2.567	1509807	WORD	n/a	wordpools/wordpool_SP.txt	CAMIONETA	9	6	[0, 0, 0]	n/a	FR1	1	R1094T
685.928	2.601	1512374	WORD	n/a	wordpools/wordpool_SP.txt	ANZUELO	10	6	[0, 0, 0]	n/a	FR1	1	R1094T
688.529	2.5	1514975	WORD	n/a	wordpools/wordpool_SP.txt	GUISANTE	11	6	[0, 0, 0]	n/a	FR1	1	R1094T
691.029	1.616	1517475	WORD	n/a	wordpools/wordpool_SP.txt	PAYASO	12	6	[0, 0, 0]	n/a	FR1	1	R1094T
692.645	0.001	1519091	DISTRACT_START	n/a	n/a	n/a	-999	6	[0, 0, 0]	n/a	FR1	1	R1094T
692.646	0.016	1519092	START	n/a	n/a	n/a	-999	6	[-999, -999, -999]	n/a	FR1	1	R1094T
692.662	7.752	1519108	PROB	7.752	n/a	n/a	-999	6	[8, 6, 6]	20	FR1	1	R1094T
700.414	6.768	1526859	PROB	6.768	n/a	n/a	-999	6	[4, 6, 5]	15	FR1	1	R1094T
707.182	6.005	1533627	PROB	6.005	n/a	n/a	-999	6	[3, 9, 5]	17	FR1	1	R1094T
713.187	0.013	1539632	STOP	n/a	n/a	n/a	-999	6	[-999, -999, -999]	n/a	FR1	1	R1094T
713.2	1.068	1539645	DISTRACT_END	n/a	n/a	n/a	-999	6	[0, 0, 0]	n/a	FR1	1	R1094T
714.268	0.937	1540713	REC_START	n/a	n/a	n/a	-999	6	[0, 0, 0]	n/a	FR1	1	R1094T
715.205	4.151	1541650	REC_WORD	4.151	n/a	TABURETE	-999	6	[0, 0, 0]	n/a	FR1	1	R1094T
719.356	6.806	1545800	REC_WORD	6.806	n/a	CAMION	-999	6	[0, 0, 0]	n/a	FR1	1	R1094T
726.162	5.432	1552606	REC_WORD	5.432	n/a	BOLSO	-999	6	[0, 0, 0]	n/a	FR1	1	R1094T
731.594	1.217	1558038	REC_WORD	1.217	n/a	BOLA	-999	6	[0, 0, 0]	n/a	FR1	1	R1094T
732.811	11.467	1559255	REC_WORD	11.467	n/a	PISO	-999	6	[0, 0, 0]	n/a	FR1	1	R1094T
744.278	1.844	1570721	REC_END	n/a	n/a	n/a	-999	6	[0, 0, 0]	n/a	FR1	1	R1094T
746.122	0.001	1572565	COUNTDOWN_START	n/a	n/a	n/a	-999	7	[0, 0, 0]	n/a	FR1	1	R1094T
746.123	10.427	1572566	TRIAL	n/a	n/a	n/a	-999	7	[0, 0, 0]	n/a	FR1	1	R1094T
756.55	0.008	1582993	COUNTDOWN_END	n/a	n/a	n/a	-999	7	[0, 0, 0]	n/a	FR1	1	R1094T
756.558	2.517	1583001	ORIENT	n/a	n/a	n/a	-999	7	[0, 0, 0]	n/a	FR1	1	R1094T
759.075	2.417	1585517	WORD	n/a	wordpools/wordpool_SP.txt	GATO	1	7	[0, 0, 0]	n/a	FR1	1	R1094T
761.492	2.584	1587934	WORD	n/a	wordpools/wordpool_SP.txt	TANQUE	2	7	[0, 0, 0]	n/a	FR1	1	R1094T
764.076	2.383	1590518	WORD	n/a	wordpools/wordpool_SP.txt	BOTE	3	7	[0, 0, 0]	n/a	FR1	1	R1094T
766.459	2.501	1592901	WORD	n/a	wordpools/wordpool_SP.txt	CHISPA	4	7	[0, 0, 0]	n/a	FR1	1	R1094T
768.96	2.55	1595402	WORD	n/a	wordpools/wordpool_SP.txt	GUSANO	5	7	[0, 0, 0]	n/a	FR1	1	R1094T
771.51	2.534	1597952	WORD	n/a	wordpools/wordpool_SP.txt	MANGUERA	6	7	[0, 0, 0]	n/a	FR1	1	R1094T
774.044	2.417	1600486	WORD	n/a	wordpools/wordpool_SP.txt	BASURA	7	7	[0, 0, 0]	n/a	FR1	1	R1094T
776.461	2.384	1602903	WORD	n/a	wordpools/wordpool_SP.txt	PAPALOTE	8	7	[0, 0, 0]	n/a	FR1	1	R1094T
778.845	2.417	1605287	WORD	n/a	wordpools/wordpool_SP.txt	PEZ	9	7	[0, 0, 0]	n/a	FR1	1	R1094T
781.262	2.584	1607703	WORD	n/a	wordpools/wordpool_SP.txt	RUEDA	10	7	[0, 0, 0]	n/a	FR1	1	R1094T
783.846	2.4	1610287	WORD	n/a	wordpools/wordpool_SP.txt	PERRO	11	7	[0, 0, 0]	n/a	FR1	1	R1094T
786.246	1.617	1612687	WORD	n/a	wordpools/wordpool_SP.txt	TERRENO	12	7	[0, 0, 0]	n/a	FR1	1	R1094T
787.863	0.001	1614304	DISTRACT_START	n/a	n/a	n/a	-999	7	[0, 0, 0]	n/a	FR1	1	R1094T
787.864	0.016	1614305	START	n/a	n/a	n/a	-999	7	[-999, -999, -999]	n/a	FR1	1	R1094T
787.88	5.951	1614321	PROB	5.951	n/a	n/a	-999	7	[5, 2, 2]	9	FR1	1	R1094T
793.831	4.933	1620272	PROB	4.933	n/a	n/a	-999	7	[8, 8, 3]	19	FR1	1	R1094T
798.764	3.619	1625205	PROB	3.619	n/a	n/a	-999	7	[4, 4, 1]	9	FR1	1	R1094T
802.383	7.251	1628823	PROB	7.251	n/a	n/a	-999	7	[6, 9, 4]	19	FR1	1	R1094T
809.634	0.016	1636074	STOP	n/a	n/a	n/a	-999	7	[-999, -999, -999]	n/a	FR1	1	R1094T
809.65	1.218	1636090	DISTRACT_END	n/a	n/a	n/a	-999	7	[0, 0, 0]	n/a	FR1	1	R1094T
810.868	30.005	1637308	REC_START	n/a	n/a	n/a	-999	7	[0, 0, 0]	n/a	FR1	1	R1094T
840.873	0.009	1667311	REC_WORD_VV	0.009	n/a	<>	-999	7	[0, 0, 0]	n/a	FR1	1	R1094T
840.882	1.725	1667320	REC_END	n/a	n/a	n/a	-999	7	[0, 0, 0]	n/a	FR1	1	R1094T
842.607	0.0	1669045	TRIAL	n/a	n/a	n/a	-999	8	[0, 0, 0]	n/a	FR1	1	R1094T
842.607	10.428	1669045	COUNTDOWN_START	n/a	n/a	n/a	-999	8	[0, 0, 0]	n/a	FR1	1	R1094T
853.035	0.007	1679473	COUNTDOWN_END	n/a	n/a	n/a	-999	8	[0, 0, 0]	n/a	FR1	1	R1094T
853.042	2.55	1679480	ORIENT	n/a	n/a	n/a	-999	8	[0, 0, 0]	n/a	FR1	1	R1094T
855.592	2.401	1682030	WORD	n/a	wordpools/wordpool_SP.txt	ESCUELA	1	8	[0, 0, 0]	n/a	FR1	1	R1094T
857.993	2.55	1684431	WORD	n/a	wordpools/wordpool_SP.txt	ALFILER	2	8	[0, 0, 0]	n/a	FR1	1	R1094T
860.543	2.467	1686981	WORD	n/a	wordpools/wordpool_SP.txt	RELOJ	3	8	[0, 0, 0]	n/a	FR1	1	R1094T
863.01	2.617	1689447	WORD	n/a	wordpools/wordpool_SP.txt	BANDERA	4	8	[0, 0, 0]	n/a	FR1	1	R1094T
865.627	2.384	1692064	WORD	n/a	wordpools/wordpool_SP.txt	PULGAR	5	8	[0, 0, 0]	n/a	FR1	1	R1094T
868.011	2.451	1694448	WORD	n/a	wordpools/wordpool_SP.txt	NINO	6	8	[0, 0, 0]	n/a	FR1	1	R1094T
870.462	2.384	1696899	WORD	n/a	wordpools/wordpool_SP.txt	MUNDO	7	8	[0, 0, 0]	n/a	FR1	1	R1094T
872.846	2.617	1699283	WORD	n/a	wordpools/wordpool_SP.txt	ESCRITORIO	8	8	[0, 0, 0]	n/a	FR1	1	R1094T
875.463	2.617	1701900	WORD	n/a	wordpools/wordpool_SP.txt	PUENTE	9	8	[0, 0, 0]	n/a	FR1	1	R1094T
878.08	2.45	1704517	WORD	n/a	wordpools/wordpool_SP.txt	HILO	10	8	[0, 0, 0]	n/a	FR1	1	R1094T
880.53	2.55	1706967	WORD	n/a	wordpools/wordpool_SP.txt	TINTA	11	8	[0, 0, 0]	n/a	FR1	1	R1094T
883.08	1.617	1709516	WORD	n/a	wordpools/wordpool_SP.txt	PISCINA	12	8	[0, 0, 0]	n/a	FR1	1	R1094T
884.697	0.0	1711133	DISTRACT_START	n/a	n/a	n/a	-999	8	[0, 0, 0]	n/a	FR1	1	R1094T
884.697	0.016	1711133	START	n/a	n/a	n/a	-999	8	[-999, -999, -999]	n/a	FR1	1	R1094T
884.713	4.001	1711149	PROB	4.001	n/a	n/a	-999	8	[1, 5, 2]	8	FR1	1	R1094T
888.714	6.419	1715150	PROB	6.419	n/a	n/a	-999	8	[8, 1, 5]	14	FR1	1	R1094T
895.133	6.234	1721569	PROB	6.234	n/a	n/a	-999	8	[8, 4, 1]	13	FR1	1	R1094T
901.367	7.507	1727803	PROB	7.507	n/a	n/a	-999	8	[5, 4, 6]	15	FR1	1	R1094T
908.874	0.011	1735309	STOP	n/a	n/a	n/a	-999	8	[-999, -999, -999]	n/a	FR1	1	R1094T
908.885	1.135	1735320	DISTRACT_END	n/a	n/a	n/a	-999	8	[0, 0, 0]	n/a	FR1	1	R1094T
910.02	0.832	1736455	REC_START	n/a	n/a	n/a	-999	8	[0, 0, 0]	n/a	FR1	1	R1094T
910.852	5.137	1737287	REC_WORD	5.137	n/a	ESCUELA	-999	8	[0, 0, 0]	n/a	FR1	1	R1094T
915.989	13.701	1742424	REC_WORD	13.701	n/a	RELOJ	-999	8	[0, 0, 0]	n/a	FR1	1	R1094T
929.69	10.341	1756124	REC_WORD	10.341	n/a	PUENTE	-999	8	[0, 0, 0]	n/a	FR1	1	R1094T
940.031	1.994	1766465	REC_END	n/a	n/a	n/a	-999	8	[0, 0, 0]	n/a	FR1	1	R1094T
942.025	0.0	1768459	TRIAL	n/a	n/a	n/a	-999	9	[0, 0, 0]	n/a	FR1	1	R1094T
942.025	10.428	1768459	COUNTDOWN_START	n/a	n/a	n/a	-999	9	[0, 0, 0]	n/a	FR1	1	R1094T
952.453	0.007	1778886	COUNTDOWN_END	n/a	n/a	n/a	-999	9	[0, 0, 0]	n/a	FR1	1	R1094T
952.46	2.4	1778893	ORIENT	n/a	n/a	n/a	-999	9	[0, 0, 0]	n/a	FR1	1	R1094T
954.86	2.484	1781293	WORD	n/a	wordpools/wordpool_SP.txt	FLORECER	1	9	[0, 0, 0]	n/a	FR1	1	R1094T
957.344	2.416	1783777	WORD	n/a	wordpools/wordpool_SP.txt	ESCOBA	2	9	[0, 0, 0]	n/a	FR1	1	R1094T
959.76	2.402	1786193	WORD	n/a	wordpools/wordpool_SP.txt	RAMA	3	9	[0, 0, 0]	n/a	FR1	1	R1094T
962.162	2.599	1788595	WORD	n/a	wordpools/wordpool_SP.txt	CARRETERA	4	9	[0, 0, 0]	n/a	FR1	1	R1094T
964.761	2.568	1791193	WORD	n/a	wordpools/wordpool_SP.txt	ROBLE	5	9	[0, 0, 0]	n/a	FR1	1	R1094T
967.329	2.45	1793761	WORD	n/a	wordpools/wordpool_SP.txt	HIERBA	6	9	[0, 0, 0]	n/a	FR1	1	R1094T
969.779	2.468	1796211	WORD	n/a	wordpools/wordpool_SP.txt	VID	7	9	[0, 0, 0]	n/a	FR1	1	R1094T
972.247	2.533	1798679	WORD	n/a	wordpools/wordpool_SP.txt	SORBETE	8	9	[0, 0, 0]	n/a	FR1	1	R1094T
974.78	2.585	1801212	WORD	n/a	wordpools/wordpool_SP.txt	SOGA	9	9	[0, 0, 0]	n/a	FR1	1	R1094T
977.365	2.399	1803797	WORD	n/a	wordpools/wordpool_SP.txt	PANTALONES	10	9	[0, 0, 0]	n/a	FR1	1	R1094T
979.764	2.568	1806196	WORD	n/a	wordpools/wordpool_SP.txt	DURAZNO	11	9	[0, 0, 0]	n/a	FR1	1	R1094T
982.332	1.617	1808764	WORD	n/a	wordpools/wordpool_SP.txt	MALEZA	12	9	[0, 0, 0]	n/a	FR1	1	R1094T
983.949	0.001	1810380	DISTRACT_START	n/a	n/a	n/a	-999	9	[0, 0, 0]	n/a	FR1	1	R1094T
983.95	0.016	1810381	START	n/a	n/a	n/a	-999	9	[-999, -999, -999]	n/a	FR1	1	R1094T
983.966	4.884	1810397	PROB	4.884	n/a	n/a	-999	9	[8, 3, 1]	12	FR1	1	R1094T
988.85	3.351	1815281	PROB	3.351	n/a	n/a	-999	9	[4, 1, 4]	9	FR1	1	R1094T
992.201	6.351	1818632	PROB	6.351	n/a	n/a	-999	9	[3, 6, 8]	17	FR1	1	R1094T
998.552	6.642	1824983	PROB	6.642	n/a	n/a	-999	9	[3, 3, 4]	10	FR1	1	R1094T
1005.194	0.009	1831624	STOP	n/a	n/a	n/a	-999	9	[-999, -999, -999]	n/a	FR1	1	R1094T
1005.203	1.218	1831633	DISTRACT_END	n/a	n/a	n/a	-999	9	[0, 0, 0]	n/a	FR1	1	R1094T
1006.421	12.888	1832851	REC_START	n/a	n/a	n/a	-999	9	[0, 0, 0]	n/a	FR1	1	R1094T
1019.309	7.353	1845739	REC_WORD	7.353	n/a	CARRETERA	-999	9	[0, 0, 0]	n/a	FR1	1	R1094T
1026.662	9.77	1853091	REC_WORD	9.77	n/a	VID	-999	9	[0, 0, 0]	n/a	FR1	1	R1094T
1036.432	1.644	1862861	REC_END	n/a	n/a	n/a	-999	9	[0, 0, 0]	n/a	FR1	1	R1094T
1038.076	0.0	1864505	TRIAL	n/a	n/a	n/a	-999	10	[0, 0, 0]	n/a	FR1	1	R1094T
1038.076	10.428	1864505	COUNTDOWN_START	n/a	n/a	n/a	-999	10	[0, 0, 0]	n/a	FR1	1	R1094T
1048.504	0.007	1874932	COUNTDOWN_END	n/a	n/a	n/a	-999	10	[0, 0, 0]	n/a	FR1	1	R1094T
1048.511	2.383	1874939	ORIENT	n/a	n/a	n/a	-999	10	[0, 0, 0]	n/a	FR1	1	R1094T
1050.894	2.401	1877322	WORD	n/a	wordpools/wordpool_SP.txt	HALCON	1	10	[0, 0, 0]	n/a	FR1	1	R1094T
1053.295	2.567	1879723	WORD	n/a	wordpools/wordpool_SP.txt	ABEJA	2	10	[0, 0, 0]	n/a	FR1	1	R1094T
1055.862	2.384	1882290	WORD	n/a	wordpools/wordpool_SP.txt	ASIENTO	3	10	[0, 0, 0]	n/a	FR1	1	R1094T
1058.246	2.6	1884674	WORD	n/a	wordpools/wordpool_SP.txt	MAIZ	4	10	[0, 0, 0]	n/a	FR1	1	R1094T
1060.846	2.484	1887274	WORD	n/a	wordpools/wordpool_SP.txt	VACA	5	10	[0, 0, 0]	n/a	FR1	1	R1094T
1063.33	2.383	1889758	WORD	n/a	wordpools/wordpool_SP.txt	GRANERO	6	10	[0, 0, 0]	n/a	FR1	1	R1094T
1065.713	2.418	1892140	WORD	n/a	wordpools/wordpool_SP.txt	BUHO	7	10	[0, 0, 0]	n/a	FR1	1	R1094T
1068.131	2.633	1894558	WORD	n/a	wordpools/wordpool_SP.txt	MASCOTA	8	10	[0, 0, 0]	n/a	FR1	1	R1094T
1070.764	2.601	1897191	WORD	n/a	wordpools/wordpool_SP.txt	CORDERO	9	10	[0, 0, 0]	n/a	FR1	1	R1094T
1073.365	2.484	1899792	WORD	n/a	wordpools/wordpool_SP.txt	CIELO	10	10	[0, 0, 0]	n/a	FR1	1	R1094T
1075.849	2.584	1902276	WORD	n/a	wordpools/wordpool_SP.txt	PULGA	11	10	[0, 0, 0]	n/a	FR1	1	R1094T
1078.433	1.617	1904860	WORD	n/a	wordpools/wordpool_SP.txt	ANGUILA	12	10	[0, 0, 0]	n/a	FR1	1	R1094T
1080.05	0.001	1906477	DISTRACT_START	n/a	n/a	n/a	-999	10	[0, 0, 0]	n/a	FR1	1	R1094T
1080.051	0.016	1906478	START	n/a	n/a	n/a	-999	10	[-999, -999, -999]	n/a	FR1	1	R1094T
1080.067	4.666	1906494	PROB	4.666	n/a	n/a	-999	10	[3, 1, 1]	5	FR1	1	R1094T
1084.733	4.069	1911160	PROB	4.069	n/a	n/a	-999	10	[1, 5, 2]	8	FR1	1	R1094T
1088.802	7.983	1915228	PROB	7.983	n/a	n/a	-999	10	[8, 6, 9]	23	FR1	1	R1094T
1096.785	4.577	1923211	PROB	4.577	n/a	n/a	-999	10	[2, 7, 1]	10	FR1	1	R1094T
1101.362	0.009	1927788	STOP	n/a	n/a	n/a	-999	10	[-999, -999, -999]	n/a	FR1	1	R1094T
1101.371	1.167	1927797	DISTRACT_END	n/a	n/a	n/a	-999	10	[0, 0, 0]	n/a	FR1	1	R1094T
1102.538	0.916	1928964	REC_START	n/a	n/a	n/a	-999	10	[0, 0, 0]	n/a	FR1	1	R1094T
1103.454	14.765	1929880	REC_WORD	14.765	n/a	ANGUILA	-999	10	[0, 0, 0]	n/a	FR1	1	R1094T
1118.219	12.997	1944644	REC_WORD	12.997	n/a	SORBETE	-999	10	[0, 0, 0]	n/a	FR1	1	R1094T
1131.216	1.332	1957640	REC_WORD	1.332	n/a	TERRENO	-999	10	[0, 0, 0]	n/a	FR1	1	R1094T
1132.548	1.895	1958972	REC_END	n/a	n/a	n/a	-999	10	[0, 0, 0]	n/a	FR1	1	R1094T
1134.443	0.001	1960867	COUNTDOWN_START	n/a	n/a	n/a	-999	11	[0, 0, 0]	n/a	FR1	1	R1094T
1134.444	10.427	1960868	TRIAL	n/a	n/a	n/a	-999	11	[0, 0, 0]	n/a	FR1	1	R1094T
1144.871	0.007	1971295	COUNTDOWN_END	n/a	n/a	n/a	-999	11	[0, 0, 0]	n/a	FR1	1	R1094T
1144.878	2.417	1971302	ORIENT	n/a	n/a	n/a	-999	11	[0, 0, 0]	n/a	FR1	1	R1094T
1147.295	2.601	1973718	WORD	n/a	wordpools/wordpool_SP.txt	VAPOR	1	11	[0, 0, 0]	n/a	FR1	1	R1094T
1149.896	2.467	1976319	WORD	n/a	wordpools/wordpool_SP.txt	SIGNO	2	11	[0, 0, 0]	n/a	FR1	1	R1094T
1152.363	2.467	1978786	WORD	n/a	wordpools/wordpool_SP.txt	BALLENA	3	11	[0, 0, 0]	n/a	FR1	1	R1094T
1154.83	2.517	1981253	WORD	n/a	wordpools/wordpool_SP.txt	ESCUDO	4	11	[0, 0, 0]	n/a	FR1	1	R1094T
1157.347	2.383	1983770	WORD	n/a	wordpools/wordpool_SP.txt	HIELO	5	11	[0, 0, 0]	n/a	FR1	1	R1094T
1159.73	2.602	1986153	WORD	n/a	wordpools/wordpool_SP.txt	CUERVO	6	11	[0, 0, 0]	n/a	FR1	1	R1094T
1162.332	2.5	1988755	WORD	n/a	wordpools/wordpool_SP.txt	HACHA	7	11	[0, 0, 0]	n/a	FR1	1	R1094T
1164.832	2.434	1991255	WORD	n/a	wordpools/wordpool_SP.txt	JEEP	8	11	[0, 0, 0]	n/a	FR1	1	R1094T
1167.266	2.617	1993688	WORD	n/a	wordpools/wordpool_SP.txt	PRIMAVERA	9	11	[0, 0, 0]	n/a	FR1	1	R1094T
1169.883	2.45	1996305	WORD	n/a	wordpools/wordpool_SP.txt	MANGA	10	11	[0, 0, 0]	n/a	FR1	1	R1094T
1172.333	2.618	1998755	WORD	n/a	wordpools/wordpool_SP.txt	GANSOS	11	11	[0, 0, 0]	n/a	FR1	1	R1094T
1174.951	1.617	2001373	WORD	n/a	wordpools/wordpool_SP.txt	VERJA	12	11	[0, 0, 0]	n/a	FR1	1	R1094T
1176.568	0.0	2002990	DISTRACT_START	n/a	n/a	n/a	-999	11	[0, 0, 0]	n/a	FR1	1	R1094T
1176.568	0.016	2002990	START	n/a	n/a	n/a	-999	11	[-999, -999, -999]	n/a	FR1	1	R1094T
1176.584	5.735	2003006	PROB	5.735	n/a	n/a	-999	11	[5, 2, 8]	15	FR1	1	R1094T
1182.319	4.817	2008741	PROB	4.817	n/a	n/a	-999	11	[1, 5, 4]	10	FR1	1	R1094T
1187.136	4.101	2013558	PROB	4.101	n/a	n/a	-999	11	[3, 3, 2]	8	FR1	1	R1094T
1191.237	6.388	2017658	PROB	6.388	n/a	n/a	-999	11	[2, 6, 7]	15	FR1	1	R1094T
1197.625	0.012	2024046	STOP	n/a	n/a	n/a	-999	11	[-999, -999, -999]	n/a	FR1	1	R1094T
1197.637	1.218	2024058	DISTRACT_END	n/a	n/a	n/a	-999	11	[0, 0, 0]	n/a	FR1	1	R1094T
1198.855	19.883	2025276	REC_START	n/a	n/a	n/a	-999	11	[0, 0, 0]	n/a	FR1	1	R1094T
1218.738	2.85	2045158	REC_WORD	2.85	n/a	HIELO	-999	11	[0, 0, 0]	n/a	FR1	1	R1094T
1221.588	7.281	2048008	REC_WORD	7.281	n/a	ABEJA	-999	11	[0, 0, 0]	n/a	FR1	1	R1094T
1228.869	1.958	2055288	REC_END	n/a	n/a	n/a	-999	11	[0, 0, 0]	n/a	FR1	1	R1094T
1230.827	0.001	2057246	COUNTDOWN_START	n/a	n/a	n/a	-999	12	[0, 0, 0]	n/a	FR1	1	R1094T
1230.828	10.427	2057247	TRIAL	n/a	n/a	n/a	-999	12	[0, 0, 0]	n/a	FR1	1	R1094T
1241.255	0.008	2067674	COUNTDOWN_END	n/a	n/a	n/a	-999	12	[0, 0, 0]	n/a	FR1	1	R1094T
1241.263	2.567	2067682	ORIENT	n/a	n/a	n/a	-999	12	[0, 0, 0]	n/a	FR1	1	R1094T
1243.83	2.467	2070249	WORD	n/a	wordpools/wordpool_SP.txt	PIPA	1	12	[0, 0, 0]	n/a	FR1	1	R1094T
1246.297	2.449	2072716	WORD	n/a	wordpools/wordpool_SP.txt	CORDEL	2	12	[0, 0, 0]	n/a	FR1	1	R1094T
1248.746	2.368	2075164	WORD	n/a	wordpools/wordpool_SP.txt	HABITACION	3	12	[0, 0, 0]	n/a	FR1	1	R1094T
1251.114	2.617	2077532	WORD	n/a	wordpools/wordpool_SP.txt	DARDO	4	12	[0, 0, 0]	n/a	FR1	1	R1094T
1253.731	2.418	2080149	WORD	n/a	wordpools/wordpool_SP.txt	BANDA	5	12	[0, 0, 0]	n/a	FR1	1	R1094T
1256.149	2.583	2082567	WORD	n/a	wordpools/wordpool_SP.txt	MEJILLA	6	12	[0, 0, 0]	n/a	FR1	1	R1094T
1258.732	2.384	2085150	WORD	n/a	wordpools/wordpool_SP.txt	NIDO	7	12	[0, 0, 0]	n/a	FR1	1	R1094T
1261.116	2.5	2087534	WORD	n/a	wordpools/wordpool_SP.txt	SOMBRERO	8	12	[0, 0, 0]	n/a	FR1	1	R1094T
1263.616	2.551	2090034	WORD	n/a	wordpools/wordpool_SP.txt	MUNECO	9	12	[0, 0, 0]	n/a	FR1	1	R1094T
1266.167	2.566	2092585	WORD	n/a	wordpools/wordpool_SP.txt	AVE	10	12	[0, 0, 0]	n/a	FR1	1	R1094T
1268.733	2.502	2095151	WORD	n/a	wordpools/wordpool_SP.txt	GRUA	11	12	[0, 0, 0]	n/a	FR1	1	R1094T
1271.235	1.617	2097652	WORD	n/a	wordpools/wordpool_SP.txt	COLA	12	12	[0, 0, 0]	n/a	FR1	1	R1094T
1272.852	0.001	2099269	DISTRACT_START	n/a	n/a	n/a	-999	12	[0, 0, 0]	n/a	FR1	1	R1094T
1272.853	0.016	2099270	START	n/a	n/a	n/a	-999	12	[-999, -999, -999]	n/a	FR1	1	R1094T
1272.869	5.833	2099286	PROB	5.833	n/a	n/a	-999	12	[2, 9, 4]	15	FR1	1	R1094T
1278.702	5.902	2105119	PROB	5.902	n/a	n/a	-999	12	[3, 9, 3]	15	FR1	1	R1094T
1284.604	5.701	2111021	PROB	5.701	n/a	n/a	-999	12	[6, 7, 6]	19	FR1	1	R1094T
1290.305	6.473	2116721	PROB	6.473	n/a	n/a	-999	12	[6, 5, 2]	13	FR1	1	R1094T
1296.778	0.012	2123194	STOP	n/a	n/a	n/a	-999	12	[-999, -999, -999]	n/a	FR1	1	R1094T
1296.79	1.134	2123206	DISTRACT_END	n/a	n/a	n/a	-999	12	[0, 0, 0]	n/a	FR1	1	R1094T
1297.924	2.816	2124340	REC_START	n/a	n/a	n/a	-999	12	[0, 0, 0]	n/a	FR1	1	R1094T
1300.74	4.615	2127156	REC_WORD	4.615	n/a	PIPA	-999	12	[0, 0, 0]	n/a	FR1	1	R1094T
1305.355	7.43	2131771	REC_WORD	7.43	n/a	COLA	-999	12	[0, 0, 0]	n/a	FR1	1	R1094T
1312.785	15.149	2139200	REC_WORD	15.149	n/a	VERJA	-999	12	[0, 0, 0]	n/a	FR1	1	R1094T
1327.934	1.727	2154349	REC_END	n/a	n/a	n/a	-999	12	[0, 0, 0]	n/a	FR1	1	R1094T
1329.661	0.0	2156076	COUNTDOWN_START	n/a	n/a	n/a	-999	13	[0, 0, 0]	n/a	FR1	1	R1094T
1329.661	10.428	2156076	TRIAL	n/a	n/a	n/a	-999	13	[0, 0, 0]	n/a	FR1	1	R1094T
1340.089	0.008	2166503	COUNTDOWN_END	n/a	n/a	n/a	-999	13	[0, 0, 0]	n/a	FR1	1	R1094T
1340.097	2.434	2166511	ORIENT	n/a	n/a	n/a	-999	13	[0, 0, 0]	n/a	FR1	1	R1094T
1342.531	2.401	2168945	WORD	n/a	wordpools/wordpool_SP.txt	OREJA	1	13	[0, 0, 0]	n/a	FR1	1	R1094T
1344.932	2.583	2171346	WORD	n/a	wordpools/wordpool_SP.txt	CASA	2	13	[0, 0, 0]	n/a	FR1	1	R1094T
1347.515	2.467	2173929	WORD	n/a	wordpools/wordpool_SP.txt	PUERTA	3	13	[0, 0, 0]	n/a	FR1	1	R1094T
1349.982	2.401	2176396	WORD	n/a	wordpools/wordpool_SP.txt	CALLE	4	13	[0, 0, 0]	n/a	FR1	1	R1094T
1352.383	2.6	2178796	WORD	n/a	wordpools/wordpool_SP.txt	FICHA	5	13	[0, 0, 0]	n/a	FR1	1	R1094T
1354.983	2.401	2181396	WORD	n/a	wordpools/wordpool_SP.txt	CAMA	6	13	[0, 0, 0]	n/a	FR1	1	R1094T
1357.384	2.584	2183797	WORD	n/a	wordpools/wordpool_SP.txt	PASTEL	7	13	[0, 0, 0]	n/a	FR1	1	R1094T
1359.968	2.533	2186381	WORD	n/a	wordpools/wordpool_SP.txt	CARRO	8	13	[0, 0, 0]	n/a	FR1	1	R1094T
1362.501	2.418	2188914	WORD	n/a	wordpools/wordpool_SP.txt	CERCA	9	13	[0, 0, 0]	n/a	FR1	1	R1094T
1364.919	2.567	2191332	WORD	n/a	wordpools/wordpool_SP.txt	COPA	10	13	[0, 0, 0]	n/a	FR1	1	R1094T
1367.486	2.45	2193899	WORD	n/a	wordpools/wordpool_SP.txt	AGUANIEVE	11	13	[0, 0, 0]	n/a	FR1	1	R1094T
1369.936	1.617	2196349	WORD	n/a	wordpools/wordpool_SP.txt	ESCALERA	12	13	[0, 0, 0]	n/a	FR1	1	R1094T
1371.553	0.001	2197965	DISTRACT_START	n/a	n/a	n/a	-999	13	[0, 0, 0]	n/a	FR1	1	R1094T
1371.554	0.016	2197966	START	n/a	n/a	n/a	-999	13	[-999, -999, -999]	n/a	FR1	1	R1094T
1371.57	9.735	2197982	PROB	9.735	n/a	n/a	-999	13	[9, 5, 8]	21	FR1	1	R1094T
1381.305	7.001	2207717	PROB	7.001	n/a	n/a	-999	13	[8, 6, 5]	19	FR1	1	R1094T
1388.306	4.136	2214718	PROB	4.136	n/a	n/a	-999	13	[1, 2, 4]	7	FR1	1	R1094T
1392.442	0.015	2218853	STOP	n/a	n/a	n/a	-999	13	[-999, -999, -999]	n/a	FR1	1	R1094T
1392.457	1.117	2218868	DISTRACT_END	n/a	n/a	n/a	-999	13	[0, 0, 0]	n/a	FR1	1	R1094T
1393.574	1.545	2219985	REC_START	n/a	n/a	n/a	-999	13	[0, 0, 0]	n/a	FR1	1	R1094T
1395.119	18.666	2221530	REC_WORD	18.666	n/a	AGUANIEVE	-999	13	[0, 0, 0]	n/a	FR1	1	R1094T
1413.785	9.8	2240195	REC_WORD	9.8	n/a	CASA	-999	13	[0, 0, 0]	n/a	FR1	1	R1094T
1423.585	2.561	2249995	REC_END	n/a	n/a	n/a	-999	13	[0, 0, 0]	n/a	FR1	1	R1094T
1426.146	0.001	2252556	COUNTDOWN_START	n/a	n/a	n/a	-999	14	[0, 0, 0]	n/a	FR1	1	R1094T
1426.147	10.427	2252557	TRIAL	n/a	n/a	n/a	-999	14	[0, 0, 0]	n/a	FR1	1	R1094T
1436.574	0.008	2262983	COUNTDOWN_END	n/a	n/a	n/a	-999	14	[0, 0, 0]	n/a	FR1	1	R1094T
1436.582	2.4	2262991	ORIENT	n/a	n/a	n/a	-999	14	[0, 0, 0]	n/a	FR1	1	R1094T
1438.982	2.517	2265391	WORD	n/a	wordpools/wordpool_SP.txt	CEPILLO	1	14	[0, 0, 0]	n/a	FR1	1	R1094T
1441.499	2.6	2267908	WORD	n/a	wordpools/wordpool_SP.txt	LLAMA	2	14	[0, 0, 0]	n/a	FR1	1	R1094T
1444.099	2.501	2270508	WORD	n/a	wordpools/wordpool_SP.txt	PALO	3	14	[0, 0, 0]	n/a	FR1	1	R1094T
1446.6	2.534	2273009	WORD	n/a	wordpools/wordpool_SP.txt	ROSA	4	14	[0, 0, 0]	n/a	FR1	1	R1094T
1449.134	2.417	2275543	WORD	n/a	wordpools/wordpool_SP.txt	ESTANQUE	5	14	[0, 0, 0]	n/a	FR1	1	R1094T
1451.551	2.601	2277960	WORD	n/a	wordpools/wordpool_SP.txt	PARQUE	6	14	[0, 0, 0]	n/a	FR1	1	R1094T
1454.152	2.466	2280560	WORD	n/a	wordpools/wordpool_SP.txt	LIMO	7	14	[0, 0, 0]	n/a	FR1	1	R1094T
1456.618	2.584	2283026	WORD	n/a	wordpools/wordpool_SP.txt	VENADO	8	14	[0, 0, 0]	n/a	FR1	1	R1094T
1459.202	2.45	2285610	WORD	n/a	wordpools/wordpool_SP.txt	LABIO	9	14	[0, 0, 0]	n/a	FR1	1	R1094T
1461.652	2.468	2288060	WORD	n/a	wordpools/wordpool_SP.txt	ESTERA	10	14	[0, 0, 0]	n/a	FR1	1	R1094T
1464.12	2.484	2290528	WORD	n/a	wordpools/wordpool_SP.txt	PRECIPICIO	11	14	[0, 0, 0]	n/a	FR1	1	R1094T
1466.604	1.617	2293012	WORD	n/a	wordpools/wordpool_SP.txt	TARRO	12	14	[0, 0, 0]	n/a	FR1	1	R1094T
1468.221	0.001	2294629	DISTRACT_START	n/a	n/a	n/a	-999	14	[0, 0, 0]	n/a	FR1	1	R1094T
1468.222	0.015	2294630	START	n/a	n/a	n/a	-999	14	[-999, -999, -999]	n/a	FR1	1	R1094T
1468.237	10.186	2294645	PROB	10.186	n/a	n/a	-999	14	[7, 8, 7]	20	FR1	1	R1094T
1478.423	7.501	2304830	PROB	7.501	n/a	n/a	-999	14	[7, 7, 6]	20	FR1	1	R1094T
1485.924	8.919	2312331	PROB	8.919	n/a	n/a	-999	14	[9, 4, 7]	20	FR1	1	R1094T
1494.843	0.016	2321249	STOP	n/a	n/a	n/a	-999	14	[-999, -999, -999]	n/a	FR1	1	R1094T
1494.859	1.118	2321265	DISTRACT_END	n/a	n/a	n/a	-999	14	[0, 0, 0]	n/a	FR1	1	R1094T
1495.977	14.02	2322383	REC_START	n/a	n/a	n/a	-999	14	[0, 0, 0]	n/a	FR1	1	R1094T
1509.997	15.99	2336403	REC_WORD	15.99	n/a	LLAMA	-999	14	[0, 0, 0]	n/a	FR1	1	R1094T
1525.987	2.111	2352392	REC_END	n/a	n/a	n/a	-999	14	[0, 0, 0]	n/a	FR1	1	R1094T
1528.098	0.001	2354503	COUNTDOWN_START	n/a	n/a	n/a	-999	15	[0, 0, 0]	n/a	FR1	1	R1094T
1528.099	10.427	2354504	TRIAL	n/a	n/a	n/a	-999	15	[0, 0, 0]	n/a	FR1	1	R1094T
1538.526	0.007	2364930	COUNTDOWN_END	n/a	n/a	n/a	-999	15	[0, 0, 0]	n/a	FR1	1	R1094T
1538.533	2.451	2364937	ORIENT	n/a	n/a	n/a	-999	15	[0, 0, 0]	n/a	FR1	1	R1094T
1540.984	2.384	2367388	WORD	n/a	wordpools/wordpool_SP.txt	PIEDRA	1	15	[0, 0, 0]	n/a	FR1	1	R1094T
1543.368	2.634	2369772	WORD	n/a	wordpools/wordpool_SP.txt	ESPUMA	2	15	[0, 0, 0]	n/a	FR1	1	R1094T
1546.002	2.483	2372406	WORD	n/a	wordpools/wordpool_SP.txt	CUBO	3	15	[0, 0, 0]	n/a	FR1	1	R1094T
1548.485	2.418	2374889	WORD	n/a	wordpools/wordpool_SP.txt	PLAYA	4	15	[0, 0, 0]	n/a	FR1	1	R1094T
1550.903	2.5	2377307	WORD	n/a	wordpools/wordpool_SP.txt	TECHO	5	15	[0, 0, 0]	n/a	FR1	1	R1094T
1553.403	2.55	2379807	WORD	n/a	wordpools/wordpool_SP.txt	CUEVA	6	15	[0, 0, 0]	n/a	FR1	1	R1094T
1555.953	2.501	2382356	WORD	n/a	wordpools/wordpool_SP.txt	TELARANA	7	15	[0, 0, 0]	n/a	FR1	1	R1094T
1558.454	2.584	2384857	WORD	n/a	wordpools/wordpool_SP.txt	HOYO	8	15	[0, 0, 0]	n/a	FR1	1	R1094T
1561.038	2.383	2387441	WORD	n/a	wordpools/wordpool_SP.txt	ARBUSTO	9	15	[0, 0, 0]	n/a	FR1	1	R1094T
1563.421	2.634	2389824	WORD	n/a	wordpools/wordpool_SP.txt	CARACOL	10	15	[0, 0, 0]	n/a	FR1	1	R1094T
1566.055	2.501	2392458	WORD	n/a	wordpools/wordpool_SP.txt	LAGO	11	15	[0, 0, 0]	n/a	FR1	1	R1094T
1568.556	1.617	2394959	WORD	n/a	wordpools/wordpool_SP.txt	LANZA	12	15	[0, 0, 0]	n/a	FR1	1	R1094T
1570.173	0.001	2396576	DISTRACT_START	n/a	n/a	n/a	-999	15	[0, 0, 0]	n/a	FR1	1	R1094T
1570.174	0.015	2396577	START	n/a	n/a	n/a	-999	15	[-999, -999, -999]	n/a	FR1	1	R1094T
1570.189	6.735	2396592	PROB	6.735	n/a	n/a	-999	15	[6, 7, 4]	17	FR1	1	R1094T
1576.924	4.884	2403326	PROB	4.884	n/a	n/a	-999	15	[9, 2, 2]	13	FR1	1	R1094T
1581.808	5.701	2408210	PROB	5.701	n/a	n/a	-999	15	[8, 6, 2]	16	FR1	1	R1094T
1587.509	6.013	2413911	PROB	6.013	n/a	n/a	-999	15	[4, 3, 7]	14	FR1	1	R1094T
1593.522	0.005	2419924	STOP	n/a	n/a	n/a	-999	15	[-999, -999, -999]	n/a	FR1	1	R1094T
1593.527	1.067	2419929	DISTRACT_END	n/a	n/a	n/a	-999	15	[0, 0, 0]	n/a	FR1	1	R1094T
1594.594	1.805	2420996	REC_START	n/a	n/a	n/a	-999	15	[0, 0, 0]	n/a	FR1	1	R1094T
1596.399	3.47	2422800	REC_WORD	3.47	n/a	CARACOL	-999	15	[0, 0, 0]	n/a	FR1	1	R1094T
1599.869	3.005	2426270	REC_WORD	3.005	n/a	TELARANA	-999	15	[0, 0, 0]	n/a	FR1	1	R1094T
1602.874	16.397	2429275	REC_WORD	16.397	n/a	PRECIPICIO	-999	15	[0, 0, 0]	n/a	FR1	1	R1094T
1619.271	5.341	2445671	REC_WORD	5.341	n/a	ESCALERA	-999	15	[0, 0, 0]	n/a	FR1	1	R1094T
1624.612	1.738	2451012	REC_END	n/a	n/a	n/a	-999	15	[0, 0, 0]	n/a	FR1	1	R1094T
1626.35	0.0	2452750	TRIAL	n/a	n/a	n/a	-999	16	[0, 0, 0]	n/a	FR1	1	R1094T
1626.35	10.428	2452750	COUNTDOWN_START	n/a	n/a	n/a	-999	16	[0, 0, 0]	n/a	FR1	1	R1094T
1636.778	0.006	2463177	COUNTDOWN_END	n/a	n/a	n/a	-999	16	[0, 0, 0]	n/a	FR1	1	R1094T
1636.784	2.434	2463183	ORIENT	n/a	n/a	n/a	-999	16	[0, 0, 0]	n/a	FR1	1	R1094T
1639.218	2.517	2465617	WORD	n/a	wordpools/wordpool_SP.txt	SELLO	1	16	[0, 0, 0]	n/a	FR1	1	R1094T
1641.735	2.451	2468134	WORD	n/a	wordpools/wordpool_SP.txt	ORO	2	16	[0, 0, 0]	n/a	FR1	1	R1094T
1644.186	2.5	2470585	WORD	n/a	wordpools/wordpool_SP.txt	GUARDIA	3	16	[0, 0, 0]	n/a	FR1	1	R1094T
1646.686	2.551	2473085	WORD	n/a	wordpools/wordpool_SP.txt	UNA	4	16	[0, 0, 0]	n/a	FR1	1	R1094T
1649.237	2.416	2475636	WORD	n/a	wordpools/wordpool_SP.txt	CUADRADO	5	16	[0, 0, 0]	n/a	FR1	1	R1094T
1651.653	2.485	2478052	WORD	n/a	wordpools/wordpool_SP.txt	CAPA	6	16	[0, 0, 0]	n/a	FR1	1	R1094T
1654.138	2.566	2480537	WORD	n/a	wordpools/wordpool_SP.txt	HERRAMIENTA	7	16	[0, 0, 0]	n/a	FR1	1	R1094T
1656.704	2.385	2483103	WORD	n/a	wordpools/wordpool_SP.txt	CORONA	8	16	[0, 0, 0]	n/a	FR1	1	R1094T
1659.089	2.583	2485487	WORD	n/a	wordpools/wordpool_SP.txt	ESPADA	9	16	[0, 0, 0]	n/a	FR1	1	R1094T
1661.672	2.401	2488070	WORD	n/a	wordpools/wordpool_SP.txt	MANO	10	16	[0, 0, 0]	n/a	FR1	1	R1094T
1664.073	2.434	2490471	WORD	n/a	wordpools/wordpool_SP.txt	RUBOR	11	16	[0, 0, 0]	n/a	FR1	1	R1094T
1666.507	1.617	2492905	WORD	n/a	wordpools/wordpool_SP.txt	POZO	12	16	[0, 0, 0]	n/a	FR1	1	R1094T
1668.124	0.001	2494522	DISTRACT_START	n/a	n/a	n/a	-999	16	[0, 0, 0]	n/a	FR1	1	R1094T
1668.125	0.016	2494523	START	n/a	n/a	n/a	-999	16	[-999, -999, -999]	n/a	FR1	1	R1094T
1668.141	3.667	2494539	PROB	3.667	n/a	n/a	-999	16	[2, 5, 1]	8	FR1	1	R1094T
1671.808	5.567	2498206	PROB	5.567	n/a	n/a	-999	16	[3, 9, 3]	15	FR1	1	R1094T
1677.375	6.652	2503773	PROB	6.652	n/a	n/a	-999	16	[4, 6, 8]	18	FR1	1	R1094T
1684.027	4.32	2510424	PROB	4.32	n/a	n/a	-999	16	[1, 3, 7]	11	FR1	1	R1094T
1688.347	0.014	2514744	STOP	n/a	n/a	n/a	-999	16	[-999, -999, -999]	n/a	FR1	1	R1094T
1688.361	1.134	2514758	DISTRACT_END	n/a	n/a	n/a	-999	16	[0, 0, 0]	n/a	FR1	1	R1094T
1689.495	1.909	2515892	REC_START	n/a	n/a	n/a	-999	16	[0, 0, 0]	n/a	FR1	1	R1094T
1691.404	10.001	2517801	REC_WORD	10.001	n/a	ESCALERA	-999	16	[0, 0, 0]	n/a	FR1	1	R1094T
1701.405	15.591	2527801	REC_WORD	15.591	n/a	POZO	-999	16	[0, 0, 0]	n/a	FR1	1	R1094T
1716.996	2.51	2543392	REC_WORD	2.51	n/a	VACA	-999	16	[0, 0, 0]	n/a	FR1	1	R1094T
1719.506	1.878	2545901	REC_END	n/a	n/a	n/a	-999	16	[0, 0, 0]	n/a	FR1	1	R1094T
1721.384	0.0	2547779	COUNTDOWN_START	n/a	n/a	n/a	-999	17	[0, 0, 0]	n/a	FR1	1	R1094T
1721.384	10.428	2547779	TRIAL	n/a	n/a	n/a	-999	17	[0, 0, 0]	n/a	FR1	1	R1094T
1731.812	0.007	2558207	COUNTDOWN_END	n/a	n/a	n/a	-999	17	[0, 0, 0]	n/a	FR1	1	R1094T
1731.819	2.617	2558214	ORIENT	n/a	n/a	n/a	-999	17	[0, 0, 0]	n/a	FR1	1	R1094T
1734.436	2.567	2560831	WORD	n/a	wordpools/wordpool_SP.txt	PIE	1	17	[0, 0, 0]	n/a	FR1	1	R1094T
1737.003	2.567	2563398	WORD	n/a	wordpools/wordpool_SP.txt	CABALLO	2	17	[0, 0, 0]	n/a	FR1	1	R1094T
1739.57	2.484	2565964	WORD	n/a	wordpools/wordpool_SP.txt	CRIA	3	17	[0, 0, 0]	n/a	FR1	1	R1094T
1742.054	2.417	2568448	WORD	n/a	wordpools/wordpool_SP.txt	BOLSA	4	17	[0, 0, 0]	n/a	FR1	1	R1094T
1744.471	2.417	2570865	WORD	n/a	wordpools/wordpool_SP.txt	NARIZ	5	17	[0, 0, 0]	n/a	FR1	1	R1094T
1746.888	2.617	2573282	WORD	n/a	wordpools/wordpool_SP.txt	ZANJA	6	17	[0, 0, 0]	n/a	FR1	1	R1094T
1749.505	2.501	2575899	WORD	n/a	wordpools/wordpool_SP.txt	VARITA	7	17	[0, 0, 0]	n/a	FR1	1	R1094T
1752.006	2.4	2578400	WORD	n/a	wordpools/wordpool_SP.txt	CAMISA	8	17	[0, 0, 0]	n/a	FR1	1	R1094T
1754.406	2.551	2580800	WORD	n/a	wordpools/wordpool_SP.txt	BOCA	9	17	[0, 0, 0]	n/a	FR1	1	R1094T
1756.957	2.583	2583351	WORD	n/a	wordpools/wordpool_SP.txt	TIZA	10	17	[0, 0, 0]	n/a	FR1	1	R1094T
1759.54	2.551	2585933	WORD	n/a	wordpools/wordpool_SP.txt	FREGADERO	11	17	[0, 0, 0]	n/a	FR1	1	R1094T
1762.091	1.616	2588484	WORD	n/a	wordpools/wordpool_SP.txt	LODO	12	17	[0, 0, 0]	n/a	FR1	1	R1094T
1763.707	0.001	2590100	DISTRACT_START	n/a	n/a	n/a	-999	17	[0, 0, 0]	n/a	FR1	1	R1094T
1763.708	0.016	2590101	START	n/a	n/a	n/a	-999	17	[-999, -999, -999]	n/a	FR1	1	R1094T
1763.724	6.968	2590117	PROB	6.968	n/a	n/a	-999	17	[2, 9, 7]	18	FR1	1	R1094T
1770.692	8.102	2597085	PROB	8.102	n/a	n/a	-999	17	[8, 9, 8]	25	FR1	1	R1094T
1778.794	7.432	2605187	PROB	7.432	n/a	n/a	-999	17	[7, 5, 5]	17	FR1	1	R1094T
1786.226	0.019	2612618	STOP	n/a	n/a	n/a	-999	17	[-999, -999, -999]	n/a	FR1	1	R1094T
1786.245	1.085	2612637	DISTRACT_END	n/a	n/a	n/a	-999	17	[0, 0, 0]	n/a	FR1	1	R1094T
1787.33	8.092	2613722	REC_START	n/a	n/a	n/a	-999	17	[0, 0, 0]	n/a	FR1	1	R1094T
1795.422	3.37	2621814	REC_WORD	3.37	n/a	FREGADERO	-999	17	[0, 0, 0]	n/a	FR1	1	R1094T
1798.792	0.643	2625184	REC_WORD_VV	0.643	n/a	<>	-999	17	[0, 0, 0]	n/a	FR1	1	R1094T
1799.435	0.739	2625827	REC_WORD	0.739	n/a	VACA	-999	17	[0, 0, 0]	n/a	FR1	1	R1094T
1800.174	17.166	2626565	REC_WORD	17.166	n/a	BOCA	-999	17	[0, 0, 0]	n/a	FR1	1	R1094T
1817.34	1.695	2643731	REC_END	n/a	n/a	n/a	-999	17	[0, 0, 0]	n/a	FR1	1	R1094T
1819.035	0.0	2645426	TRIAL	n/a	n/a	n/a	-999	18	[0, 0, 0]	n/a	FR1	1	R1094T
1819.035	10.428	2645426	COUNTDOWN_START	n/a	n/a	n/a	-999	18	[0, 0, 0]	n/a	FR1	1	R1094T
1829.463	0.007	2655853	COUNTDOWN_END	n/a	n/a	n/a	-999	18	[0, 0, 0]	n/a	FR1	1	R1094T
1829.47	2.4	2655860	ORIENT	n/a	n/a	n/a	-999	18	[0, 0, 0]	n/a	FR1	1	R1094T
1831.87	2.484	2658260	WORD	n/a	wordpools/wordpool_SP.txt	MULA	1	18	[0, 0, 0]	n/a	FR1	1	R1094T
1834.354	2.383	2660744	WORD	n/a	wordpools/wordpool_SP.txt	TORMENTA	2	18	[0, 0, 0]	n/a	FR1	1	R1094T
1836.737	2.401	2663127	WORD	n/a	wordpools/wordpool_SP.txt	GALLINA	3	18	[0, 0, 0]	n/a	FR1	1	R1094T
1839.138	2.567	2665528	WORD	n/a	wordpools/wordpool_SP.txt	HUEVO	4	18	[0, 0, 0]	n/a	FR1	1	R1094T
1841.705	2.534	2668094	WORD	n/a	wordpools/wordpool_SP.txt	ESQUI	5	18	[0, 0, 0]	n/a	FR1	1	R1094T
1844.239	2.551	2670628	WORD	n/a	wordpools/wordpool_SP.txt	BOLIGRAFO	6	18	[0, 0, 0]	n/a	FR1	1	R1094T
1846.79	2.5	2673179	WORD	n/a	wordpools/wordpool_SP.txt	FUERTE	7	18	[0, 0, 0]	n/a	FR1	1	R1094T
1849.29	2.601	2675679	WORD	n/a	wordpools/wordpool_SP.txt	PICO	8	18	[0, 0, 0]	n/a	FR1	1	R1094T
1851.891	2.583	2678280	WORD	n/a	wordpools/wordpool_SP.txt	VELA	9	18	[0, 0, 0]	n/a	FR1	1	R1094T
1854.474	2.601	2680863	WORD	n/a	wordpools/wordpool_SP.txt	GRANJA	10	18	[0, 0, 0]	n/a	FR1	1	R1094T
1857.075	2.417	2683464	WORD	n/a	wordpools/wordpool_SP.txt	PELAJE	11	18	[0, 0, 0]	n/a	FR1	1	R1094T
1859.492	1.617	2685881	WORD	n/a	wordpools/wordpool_SP.txt	TREN	12	18	[0, 0, 0]	n/a	FR1	1	R1094T
1861.109	0.001	2687498	DISTRACT_START	n/a	n/a	n/a	-999	18	[0, 0, 0]	n/a	FR1	1	R1094T
1861.11	0.016	2687499	START	n/a	n/a	n/a	-999	18	[-999, -999, -999]	n/a	FR1	1	R1094T
1861.126	4.934	2687515	PROB	4.934	n/a	n/a	-999	18	[1, 3, 8]	12	FR1	1	R1094T
1866.06	4.7	2692448	PROB	4.7	n/a	n/a	-999	18	[2, 5, 3]	10	FR1	1	R1094T
1870.76	8.286	2697148	PROB	8.286	n/a	n/a	-999	18	[8, 9, 3]	19	FR1	1	R1094T
1879.046	6.316	2705434	PROB	6.316	n/a	n/a	-999	18	[6, 9, 9]	24	FR1	1	R1094T
1885.362	0.018	2711749	STOP	n/a	n/a	n/a	-999	18	[-999, -999, -999]	n/a	FR1	1	R1094T
1885.38	1.051	2711767	DISTRACT_END	n/a	n/a	n/a	-999	18	[0, 0, 0]	n/a	FR1	1	R1094T
1886.431	13.82	2712818	REC_START	n/a	n/a	n/a	-999	18	[0, 0, 0]	n/a	FR1	1	R1094T
1900.251	4.194	2726638	REC_WORD	4.194	n/a	CEPILLO	-999	18	[0, 0, 0]	n/a	FR1	1	R1094T
1904.445	4.508	2730831	REC_WORD	4.508	n/a	TORMENTA	-999	18	[0, 0, 0]	n/a	FR1	1	R1094T
1908.953	1.304	2735339	REC_WORD	1.304	n/a	HUEVO	-999	18	[0, 0, 0]	n/a	FR1	1	R1094T
1910.257	2.571	2736643	REC_WORD	2.571	n/a	GALLINA	-999	18	[0, 0, 0]	n/a	FR1	1	R1094T
1912.828	3.613	2739214	REC_WORD	3.613	n/a	MULA	-999	18	[0, 0, 0]	n/a	FR1	1	R1094T
1916.441	2.278	2742827	REC_END	n/a	n/a	n/a	-999	18	[0, 0, 0]	n/a	FR1	1	R1094T
1918.719	0.0	2745105	TRIAL	n/a	n/a	n/a	-999	19	[0, 0, 0]	n/a	FR1	1	R1094T
1918.719	10.428	2745105	COUNTDOWN_START	n/a	n/a	n/a	-999	19	[0, 0, 0]	n/a	FR1	1	R1094T
1929.147	0.008	2755532	COUNTDOWN_END	n/a	n/a	n/a	-999	19	[0, 0, 0]	n/a	FR1	1	R1094T
1929.155	2.599	2755540	ORIENT	n/a	n/a	n/a	-999	19	[0, 0, 0]	n/a	FR1	1	R1094T
1931.754	2.585	2758139	WORD	n/a	wordpools/wordpool_SP.txt	LADRILLO	1	19	[0, 0, 0]	n/a	FR1	1	R1094T
1934.339	2.399	2760724	WORD	n/a	wordpools/wordpool_SP.txt	POLO	2	19	[0, 0, 0]	n/a	FR1	1	R1094T
1936.738	2.585	2763123	WORD	n/a	wordpools/wordpool_SP.txt	CARCEL	3	19	[0, 0, 0]	n/a	FR1	1	R1094T
1939.323	2.501	2765708	WORD	n/a	wordpools/wordpool_SP.txt	MAPA	4	19	[0, 0, 0]	n/a	FR1	1	R1094T
1941.824	2.467	2768209	WORD	n/a	wordpools/wordpool_SP.txt	LUNA	5	19	[0, 0, 0]	n/a	FR1	1	R1094T
1944.291	2.55	2770675	WORD	n/a	wordpools/wordpool_SP.txt	CUERDA	6	19	[0, 0, 0]	n/a	FR1	1	R1094T
1946.841	2.584	2773225	WORD	n/a	wordpools/wordpool_SP.txt	BOMBA	7	19	[0, 0, 0]	n/a	FR1	1	R1094T
1949.425	2.517	2775809	WORD	n/a	wordpools/wordpool_SP.txt	REMO	8	19	[0, 0, 0]	n/a	FR1	1	R1094T
1951.942	2.551	2778326	WORD	n/a	wordpools/wordpool_SP.txt	ESTRELLA	9	19	[0, 0, 0]	n/a	FR1	1	R1094T
1954.493	2.433	2780877	WORD	n/a	wordpools/wordpool_SP.txt	TALLO	10	19	[0, 0, 0]	n/a	FR1	1	R1094T
1956.926	2.518	2783310	WORD	n/a	wordpools/wordpool_SP.txt	MURCIELAGO	11	19	[0, 0, 0]	n/a	FR1	1	R1094T
1959.444	1.617	2785828	WORD	n/a	wordpools/wordpool_SP.txt	DIENTE	12	19	[0, 0, 0]	n/a	FR1	1	R1094T
1961.061	0.001	2787445	DISTRACT_START	n/a	n/a	n/a	-999	19	[0, 0, 0]	n/a	FR1	1	R1094T
1961.062	0.015	2787446	START	n/a	n/a	n/a	-999	19	[-999, -999, -999]	n/a	FR1	1	R1094T
1961.077	7.468	2787461	PROB	7.468	n/a	n/a	-999	19	[6, 7, 8]	21	FR1	1	R1094T
1968.545	3.318	2794928	PROB	3.318	n/a	n/a	-999	19	[1, 6, 2]	9	FR1	1	R1094T
1971.863	6.701	2798246	PROB	6.701	n/a	n/a	-999	19	[8, 4, 4]	16	FR1	1	R1094T
1978.564	4.903	2804947	PROB	4.903	n/a	n/a	-999	19	[1, 7, 4]	12	FR1	1	R1094T
1983.467	0.014	2809850	STOP	n/a	n/a	n/a	-999	19	[-999, -999, -999]	n/a	FR1	1	R1094T
1983.481	1.2	2809864	DISTRACT_END	n/a	n/a	n/a	-999	19	[0, 0, 0]	n/a	FR1	1	R1094T
1984.681	1.46	2811063	REC_START	n/a	n/a	n/a	-999	19	[0, 0, 0]	n/a	FR1	1	R1094T
1986.141	2.246	2812523	REC_WORD	2.246	n/a	MURCIELAGO	-999	19	[0, 0, 0]	n/a	FR1	1	R1094T
1988.387	26.304	2814769	REC_WORD	26.304	n/a	TALLO	-999	19	[0, 0, 0]	n/a	FR1	1	R1094T
2014.691	1.73	2841072	REC_END	n/a	n/a	n/a	-999	19	[0, 0, 0]	n/a	FR1	1	R1094T
2016.421	0.0	2842802	TRIAL	n/a	n/a	n/a	-999	20	[0, 0, 0]	n/a	FR1	1	R1094T
2016.421	10.428	2842802	COUNTDOWN_START	n/a	n/a	n/a	-999	20	[0, 0, 0]	n/a	FR1	1	R1094T
2026.849	0.007	2853229	COUNTDOWN_END	n/a	n/a	n/a	-999	20	[0, 0, 0]	n/a	FR1	1	R1094T
2026.856	2.617	2853236	ORIENT	n/a	n/a	n/a	-999	20	[0, 0, 0]	n/a	FR1	1	R1094T
2029.473	2.617	2855853	WORD	n/a	wordpools/wordpool_SP.txt	BANDEJA	1	20	[0, 0, 0]	n/a	FR1	1	R1094T
2032.09	2.384	2858470	WORD	n/a	wordpools/wordpool_SP.txt	CUCHARA	2	20	[0, 0, 0]	n/a	FR1	1	R1094T
2034.474	2.617	2860854	WORD	n/a	wordpools/wordpool_SP.txt	CORBATA	3	20	[0, 0, 0]	n/a	FR1	1	R1094T
2037.091	2.451	2863471	WORD	n/a	wordpools/wordpool_SP.txt	RANA	4	20	[0, 0, 0]	n/a	FR1	1	R1094T
2039.542	2.55	2865922	WORD	n/a	wordpools/wordpool_SP.txt	SONRISA	5	20	[0, 0, 0]	n/a	FR1	1	R1094T
2042.092	2.599	2868472	WORD	n/a	wordpools/wordpool_SP.txt	TENEDOR	6	20	[0, 0, 0]	n/a	FR1	1	R1094T
2044.691	2.502	2871071	WORD	n/a	wordpools/wordpool_SP.txt	CHALECO	7	20	[0, 0, 0]	n/a	FR1	1	R1094T
2047.193	2.566	2873572	WORD	n/a	wordpools/wordpool_SP.txt	BRAZO	8	20	[0, 0, 0]	n/a	FR1	1	R1094T
2049.759	2.518	2876138	WORD	n/a	wordpools/wordpool_SP.txt	PAN	9	20	[0, 0, 0]	n/a	FR1	1	R1094T
2052.277	2.534	2878656	WORD	n/a	wordpools/wordpool_SP.txt	CABRA	10	20	[0, 0, 0]	n/a	FR1	1	R1094T
2054.811	2.534	2881190	WORD	n/a	wordpools/wordpool_SP.txt	TARTA	11	20	[0, 0, 0]	n/a	FR1	1	R1094T
2057.345	1.617	2883724	WORD	n/a	wordpools/wordpool_SP.txt	FILETE	12	20	[0, 0, 0]	n/a	FR1	1	R1094T
2058.962	0.001	2885341	DISTRACT_START	n/a	n/a	n/a	-999	20	[0, 0, 0]	n/a	FR1	1	R1094T
2058.963	0.015	2885342	START	n/a	n/a	n/a	-999	20	[-999, -999, -999]	n/a	FR1	1	R1094T
2058.978	10.369	2885357	PROB	10.369	n/a	n/a	-999	20	[7, 8, 9]	24	FR1	1	R1094T
2069.347	6.068	2895725	PROB	6.068	n/a	n/a	-999	20	[3, 1, 1]	5	FR1	1	R1094T
2075.415	7.379	2901793	PROB	7.379	n/a	n/a	-999	20	[9, 3, 8]	20	FR1	1	R1094T
2082.794	0.005	2909172	STOP	n/a	n/a	n/a	-999	20	[-999, -999, -999]	n/a	FR1	1	R1094T
2082.799	1.151	2909177	DISTRACT_END	n/a	n/a	n/a	-999	20	[0, 0, 0]	n/a	FR1	1	R1094T
2083.95	30.0	2910328	REC_START	n/a	n/a	n/a	-999	20	[0, 0, 0]	n/a	FR1	1	R1094T
2113.95	0.011	2940326	REC_WORD_VV	0.011	n/a	<>	-999	20	[0, 0, 0]	n/a	FR1	1	R1094T
2113.961	1.878	2940337	REC_END	n/a	n/a	n/a	-999	20	[0, 0, 0]	n/a	FR1	1	R1094T
2115.839	0.0	2942215	COUNTDOWN_START	n/a	n/a	n/a	-999	21	[0, 0, 0]	n/a	FR1	1	R1094T
2115.839	10.428	2942215	TRIAL	n/a	n/a	n/a	-999	21	[0, 0, 0]	n/a	FR1	1	R1094T
2126.267	0.007	2952643	COUNTDOWN_END	n/a	n/a	n/a	-999	21	[0, 0, 0]	n/a	FR1	1	R1094T
2126.274	2.433	2952650	ORIENT	n/a	n/a	n/a	-999	21	[0, 0, 0]	n/a	FR1	1	R1094T
2128.707	2.535	2955082	WORD	n/a	wordpools/wordpool_SP.txt	SOL	1	21	[0, 0, 0]	n/a	FR1	1	R1094T
2131.242	2.482	2957617	WORD	n/a	wordpools/wordpool_SP.txt	SAPO	2	21	[0, 0, 0]	n/a	FR1	1	R1094T
2133.724	2.468	2960099	WORD	n/a	wordpools/wordpool_SP.txt	MAR	3	21	[0, 0, 0]	n/a	FR1	1	R1094T
2136.192	2.401	2962567	WORD	n/a	wordpools/wordpool_SP.txt	NIEVE	4	21	[0, 0, 0]	n/a	FR1	1	R1094T
2138.593	2.434	2964968	WORD	n/a	wordpools/wordpool_SP.txt	LOBO	5	21	[0, 0, 0]	n/a	FR1	1	R1094T
2141.027	2.5	2967402	WORD	n/a	wordpools/wordpool_SP.txt	BARCO	6	21	[0, 0, 0]	n/a	FR1	1	R1094T
2143.527	2.467	2969902	WORD	n/a	wordpools/wordpool_SP.txt	COSTILLA	7	21	[0, 0, 0]	n/a	FR1	1	R1094T
2145.994	2.567	2972369	WORD	n/a	wordpools/wordpool_SP.txt	LUNAR	8	21	[0, 0, 0]	n/a	FR1	1	R1094T
2148.561	2.401	2974935	WORD	n/a	wordpools/wordpool_SP.txt	POLILLA	9	21	[0, 0, 0]	n/a	FR1	1	R1094T
2150.962	2.6	2977336	WORD	n/a	wordpools/wordpool_SP.txt	DIENTES	10	21	[0, 0, 0]	n/a	FR1	1	R1094T
2153.562	2.484	2979936	WORD	n/a	wordpools/wordpool_SP.txt	ZORRO	11	21	[0, 0, 0]	n/a	FR1	1	R1094T
2156.046	1.616	2982420	WORD	n/a	wordpools/wordpool_SP.txt	OSO	12	21	[0, 0, 0]	n/a	FR1	1	R1094T
2157.662	0.001	2984036	DISTRACT_START	n/a	n/a	n/a	-999	21	[0, 0, 0]	n/a	FR1	1	R1094T
2157.663	0.016	2984037	START	n/a	n/a	n/a	-999	21	[-999, -999, -999]	n/a	FR1	1	R1094T
2157.679	6.585	2984053	PROB	6.585	n/a	n/a	-999	21	[9, 7, 3]	19	FR1	1	R1094T
2164.264	5.434	2990638	PROB	5.434	n/a	n/a	-999	21	[7, 1, 5]	13	FR1	1	R1094T
2169.698	4.901	2996071	PROB	4.901	n/a	n/a	-999	21	[7, 7, 2]	16	FR1	1	R1094T
2174.599	5.034	3000972	PROB	5.034	n/a	n/a	-999	21	[6, 4, 2]	12	FR1	1	R1094T
2179.633	0.016	3006006	STOP	n/a	n/a	n/a	-999	21	[-999, -999, -999]	n/a	FR1	1	R1094T
2179.649	1.186	3006022	DISTRACT_END	n/a	n/a	n/a	-999	21	[0, 0, 0]	n/a	FR1	1	R1094T
2180.835	29.994	3007208	REC_START	n/a	n/a	n/a	-999	21	[0, 0, 0]	n/a	FR1	1	R1094T
2210.829	0.016	3037200	REC_WORD_VV	0.016	n/a	<>	-999	21	[0, 0, 0]	n/a	FR1	1	R1094T
2210.845	1.694	3037216	REC_END	n/a	n/a	n/a	-999	21	[0, 0, 0]	n/a	FR1	1	R1094T
2212.539	0.001	3038910	COUNTDOWN_START	n/a	n/a	n/a	-999	22	[0, 0, 0]	n/a	FR1	1	R1094T
2212.54	10.427	3038911	TRIAL	n/a	n/a	n/a	-999	22	[0, 0, 0]	n/a	FR1	1	R1094T
2222.967	0.008	3049338	COUNTDOWN_END	n/a	n/a	n/a	-999	22	[0, 0, 0]	n/a	FR1	1	R1094T
2222.975	2.534	3049346	ORIENT	n/a	n/a	n/a	-999	22	[0, 0, 0]	n/a	FR1	1	R1094T
2225.509	2.55	3051880	WORD	n/a	wordpools/wordpool_SP.txt	PASTA	1	22	[0, 0, 0]	n/a	FR1	1	R1094T
2228.059	2.417	3054430	WORD	n/a	wordpools/wordpool_SP.txt	PERA	2	22	[0, 0, 0]	n/a	FR1	1	R1094T
2230.476	2.417	3056846	WORD	n/a	wordpools/wordpool_SP.txt	PIERNA	3	22	[0, 0, 0]	n/a	FR1	1	R1094T
2232.893	2.484	3059263	WORD	n/a	wordpools/wordpool_SP.txt	MONO	4	22	[0, 0, 0]	n/a	FR1	1	R1094T
2235.377	2.417	3061747	WORD	n/a	wordpools/wordpool_SP.txt	CONO	5	22	[0, 0, 0]	n/a	FR1	1	R1094T
2237.794	2.601	3064164	WORD	n/a	wordpools/wordpool_SP.txt	SEMILLA	6	22	[0, 0, 0]	n/a	FR1	1	R1094T
2240.395	2.5	3066765	WORD	n/a	wordpools/wordpool_SP.txt	TRAPO	7	22	[0, 0, 0]	n/a	FR1	1	R1094T
2242.895	2.484	3069265	WORD	n/a	wordpools/wordpool_SP.txt	HOJA	8	22	[0, 0, 0]	n/a	FR1	1	R1094T
2245.379	2.5	3071749	WORD	n/a	wordpools/wordpool_SP.txt	RATA	9	22	[0, 0, 0]	n/a	FR1	1	R1094T
2247.879	2.434	3074249	WORD	n/a	wordpools/wordpool_SP.txt	ALA	10	22	[0, 0, 0]	n/a	FR1	1	R1094T
2250.313	2.567	3076682	WORD	n/a	wordpools/wordpool_SP.txt	JEFE	11	22	[0, 0, 0]	n/a	FR1	1	R1094T
2252.88	1.617	3079249	WORD	n/a	wordpools/wordpool_SP.txt	PLANTA	12	22	[0, 0, 0]	n/a	FR1	1	R1094T
2254.497	0.001	3080866	DISTRACT_START	n/a	n/a	n/a	-999	22	[0, 0, 0]	n/a	FR1	1	R1094T
2254.498	0.016	3080867	START	n/a	n/a	n/a	-999	22	[-999, -999, -999]	n/a	FR1	1	R1094T
2254.514	6.635	3080883	PROB	6.635	n/a	n/a	-999	22	[9, 9, 7]	23	FR1	1	R1094T
2261.149	7.368	3087518	PROB	7.368	n/a	n/a	-999	22	[7, 9, 1]	17	FR1	1	R1094T
2268.517	7.244	3094886	PROB	7.244	n/a	n/a	-999	22	[9, 3, 7]	19	FR1	1	R1094T
2275.761	0.006	3102129	STOP	n/a	n/a	n/a	-999	22	[-999, -999, -999]	n/a	FR1	1	R1094T
2275.767	1.102	3102135	DISTRACT_END	n/a	n/a	n/a	-999	22	[0, 0, 0]	n/a	FR1	1	R1094T
2276.869	29.93	3103237	REC_START	n/a	n/a	n/a	-999	22	[0, 0, 0]	n/a	FR1	1	R1094T
2306.799	0.08	3133166	REC_WORD_VV	0.08	n/a	<>	-999	22	[0, 0, 0]	n/a	FR1	1	R1094T
2306.879	2.478	3133246	REC_END	n/a	n/a	n/a	-999	22	[0, 0, 0]	n/a	FR1	1	R1094T
2309.357	0.0	3135724	TRIAL	n/a	n/a	n/a	-999	23	[0, 0, 0]	n/a	FR1	1	R1094T
2309.357	10.428	3135724	COUNTDOWN_START	n/a	n/a	n/a	-999	23	[0, 0, 0]	n/a	FR1	1	R1094T
2319.785	0.008	3146151	COUNTDOWN_END	n/a	n/a	n/a	-999	23	[0, 0, 0]	n/a	FR1	1	R1094T
2319.793	2.417	3146159	ORIENT	n/a	n/a	n/a	-999	23	[0, 0, 0]	n/a	FR1	1	R1094T
2322.21	2.416	3148576	WORD	n/a	wordpools/wordpool_SP.txt	CORREO	1	23	[0, 0, 0]	n/a	FR1	1	R1094T
2324.626	2.501	3150992	WORD	n/a	wordpools/wordpool_SP.txt	BANCO	2	23	[0, 0, 0]	n/a	FR1	1	R1094T
2327.127	2.616	3153493	WORD	n/a	wordpools/wordpool_SP.txt	TIENDA	3	23	[0, 0, 0]	n/a	FR1	1	R1094T
2329.743	2.402	3156109	WORD	n/a	wordpools/wordpool_SP.txt	CESPED	4	23	[0, 0, 0]	n/a	FR1	1	R1094T
2332.145	2.467	3158510	WORD	n/a	wordpools/wordpool_SP.txt	TELEFONO	5	23	[0, 0, 0]	n/a	FR1	1	R1094T
2334.612	2.567	3160977	WORD	n/a	wordpools/wordpool_SP.txt	LLAVE	6	23	[0, 0, 0]	n/a	FR1	1	R1094T
2337.179	2.466	3163544	WORD	n/a	wordpools/wordpool_SP.txt	DULCE	7	23	[0, 0, 0]	n/a	FR1	1	R1094T
2339.645	2.435	3166010	WORD	n/a	wordpools/wordpool_SP.txt	EFECTIVO	8	23	[0, 0, 0]	n/a	FR1	1	R1094T
2342.08	2.517	3168445	WORD	n/a	wordpools/wordpool_SP.txt	PARED	9	23	[0, 0, 0]	n/a	FR1	1	R1094T
2344.597	2.584	3170962	WORD	n/a	wordpools/wordpool_SP.txt	LECHE	10	23	[0, 0, 0]	n/a	FR1	1	R1094T
2347.181	2.449	3173546	WORD	n/a	wordpools/wordpool_SP.txt	NIEBLA	11	23	[0, 0, 0]	n/a	FR1	1	R1094T
2349.63	1.601	3175995	WORD	n/a	wordpools/wordpool_SP.txt	CORAZON	12	23	[0, 0, 0]	n/a	FR1	1	R1094T
2351.231	0.001	3177596	DISTRACT_START	n/a	n/a	n/a	-999	23	[0, 0, 0]	n/a	FR1	1	R1094T
2351.232	0.016	3177597	START	n/a	n/a	n/a	-999	23	[-999, -999, -999]	n/a	FR1	1	R1094T
2351.248	6.268	3177613	PROB	6.268	n/a	n/a	-999	23	[9, 1, 6]	16	FR1	1	R1094T
2357.516	5.485	3183880	PROB	5.485	n/a	n/a	-999	23	[5, 1, 4]	10	FR1	1	R1094T
2363.001	9.865	3189365	PROB	9.865	n/a	n/a	-999	23	[9, 5, 5]	19	FR1	1	R1094T
2372.866	0.02	3199229	STOP	n/a	n/a	n/a	-999	23	[-999, -999, -999]	n/a	FR1	1	R1094T
2372.886	1.051	3199249	DISTRACT_END	n/a	n/a	n/a	-999	23	[0, 0, 0]	n/a	FR1	1	R1094T
2373.937	1.992	3200300	REC_START	n/a	n/a	n/a	-999	23	[0, 0, 0]	n/a	FR1	1	R1094T
2375.929	2.856	3202292	REC_WORD	2.856	n/a	NIEBLA	-999	23	[0, 0, 0]	n/a	FR1	1	R1094T
2378.785	25.162	3205148	REC_WORD	25.162	n/a	CORREO	-999	23	[0, 0, 0]	n/a	FR1	1	R1094T
2403.947	2.278	3230309	REC_END	n/a	n/a	n/a	-999	23	[0, 0, 0]	n/a	FR1	1	R1094T
2406.225	0.0	3232587	TRIAL	n/a	n/a	n/a	-999	24	[0, 0, 0]	n/a	FR1	1	R1094T
2406.225	10.428	3232587	COUNTDOWN_START	n/a	n/a	n/a	-999	24	[0, 0, 0]	n/a	FR1	1	R1094T
2416.653	0.006	3243014	COUNTDOWN_END	n/a	n/a	n/a	-999	24	[0, 0, 0]	n/a	FR1	1	R1094T
2416.659	2.435	3243020	ORIENT	n/a	n/a	n/a	-999	24	[0, 0, 0]	n/a	FR1	1	R1094T
2419.094	2.451	3245455	WORD	n/a	wordpools/wordpool_SP.txt	PATO	1	24	[0, 0, 0]	n/a	FR1	1	R1094T
2421.545	2.5	3247906	WORD	n/a	wordpools/wordpool_SP.txt	ZOOLOGICO	2	24	[0, 0, 0]	n/a	FR1	1	R1094T
2424.045	2.4	3250406	WORD	n/a	wordpools/wordpool_SP.txt	SOPA	3	24	[0, 0, 0]	n/a	FR1	1	R1094T
2426.445	2.384	3252806	WORD	n/a	wordpools/wordpool_SP.txt	BARRO	4	24	[0, 0, 0]	n/a	FR1	1	R1094T
2428.829	2.534	3255190	WORD	n/a	wordpools/wordpool_SP.txt	RATON	5	24	[0, 0, 0]	n/a	FR1	1	R1094T
2431.363	2.484	3257724	WORD	n/a	wordpools/wordpool_SP.txt	MOFETA	6	24	[0, 0, 0]	n/a	FR1	1	R1094T
2433.847	2.45	3260207	WORD	n/a	wordpools/wordpool_SP.txt	HORMIGA	7	24	[0, 0, 0]	n/a	FR1	1	R1094T
2436.297	2.416	3262657	WORD	n/a	wordpools/wordpool_SP.txt	ALCES	8	24	[0, 0, 0]	n/a	FR1	1	R1094T
2438.713	2.552	3265073	WORD	n/a	wordpools/wordpool_SP.txt	ROCA	9	24	[0, 0, 0]	n/a	FR1	1	R1094T
2441.265	2.466	3267625	WORD	n/a	wordpools/wordpool_SP.txt	ESPONJA	10	24	[0, 0, 0]	n/a	FR1	1	R1094T
2443.731	2.568	3270091	WORD	n/a	wordpools/wordpool_SP.txt	CARPA	11	24	[0, 0, 0]	n/a	FR1	1	R1094T
2446.299	1.617	3272659	WORD	n/a	wordpools/wordpool_SP.txt	SERPIENTE	12	24	[0, 0, 0]	n/a	FR1	1	R1094T
2447.916	0.001	3274276	DISTRACT_START	n/a	n/a	n/a	-999	24	[0, 0, 0]	n/a	FR1	1	R1094T
2447.917	0.016	3274277	START	n/a	n/a	n/a	-999	24	[-999, -999, -999]	n/a	FR1	1	R1094T
2447.933	6.817	3274293	PROB	6.817	n/a	n/a	-999	24	[6, 7, 2]	15	FR1	1	R1094T
2454.75	4.017	3281109	PROB	4.017	n/a	n/a	-999	24	[2, 6, 6]	14	FR1	1	R1094T
2458.767	6.135	3285126	PROB	6.135	n/a	n/a	-999	24	[3, 9, 5]	17	FR1	1	R1094T
2464.902	5.835	3291261	PROB	5.835	n/a	n/a	-999	24	[4, 9, 2]	15	FR1	1	R1094T
2470.737	0.015	3297096	STOP	n/a	n/a	n/a	-999	24	[-999, -999, -999]	n/a	FR1	1	R1094T
2470.752	1.136	3297111	DISTRACT_END	n/a	n/a	n/a	-999	24	[0, 0, 0]	n/a	FR1	1	R1094T
2471.888	12.291	3298247	REC_START	n/a	n/a	n/a	-999	24	[0, 0, 0]	n/a	FR1	1	R1094T
2484.179	9.555	3310537	REC_WORD	9.555	n/a	RATON	-999	24	[0, 0, 0]	n/a	FR1	1	R1094T
2493.734	8.164	3320092	REC_WORD	8.164	n/a	SERPIENTE	-999	24	[0, 0, 0]	n/a	FR1	1	R1094T
2501.898	1.978	3328255	REC_END	n/a	n/a	n/a	-999	24	[0, 0, 0]	n/a	FR1	1	R1094T
2503.876	0.0	3330233	TRIAL	n/a	n/a	n/a	-999	25	[0, 0, 0]	n/a	FR1	1	R1094T
2503.876	10.428	3330233	COUNTDOWN_START	n/a	n/a	n/a	-999	25	[0, 0, 0]	n/a	FR1	1	R1094T
2514.304	0.007	3340661	COUNTDOWN_END	n/a	n/a	n/a	-999	25	[0, 0, 0]	n/a	FR1	1	R1094T
2514.311	2.501	3340668	ORIENT	n/a	n/a	n/a	-999	25	[0, 0, 0]	n/a	FR1	1	R1094T
2516.812	2.534	3343168	WORD	n/a	wordpools/wordpool_SP.txt	JABON	1	25	[0, 0, 0]	n/a	FR1	1	R1094T
2519.346	2.55	3345702	WORD	n/a	wordpools/wordpool_SP.txt	UVA	2	25	[0, 0, 0]	n/a	FR1	1	R1094T
2521.896	2.517	3348252	WORD	n/a	wordpools/wordpool_SP.txt	FLAUTA	3	25	[0, 0, 0]	n/a	FR1	1	R1094T
2524.413	2.501	3350769	WORD	n/a	wordpools/wordpool_SP.txt	BANCA	4	25	[0, 0, 0]	n/a	FR1	1	R1094T
2526.914	2.5	3353270	WORD	n/a	wordpools/wordpool_SP.txt	VENTILADOR	5	25	[0, 0, 0]	n/a	FR1	1	R1094T
2529.414	2.434	3355770	WORD	n/a	wordpools/wordpool_SP.txt	JUGO	6	25	[0, 0, 0]	n/a	FR1	1	R1094T
2531.848	2.417	3358204	WORD	n/a	wordpools/wordpool_SP.txt	FRUTA	7	25	[0, 0, 0]	n/a	FR1	1	R1094T
2534.265	2.584	3360621	WORD	n/a	wordpools/wordpool_SP.txt	CATRE	8	25	[0, 0, 0]	n/a	FR1	1	R1094T
2536.849	2.484	3363204	WORD	n/a	wordpools/wordpool_SP.txt	VASO	9	25	[0, 0, 0]	n/a	FR1	1	R1094T
2539.333	2.449	3365688	WORD	n/a	wordpools/wordpool_SP.txt	TAZON	10	25	[0, 0, 0]	n/a	FR1	1	R1094T
2541.782	2.451	3368137	WORD	n/a	wordpools/wordpool_SP.txt	BOTA	11	25	[0, 0, 0]	n/a	FR1	1	R1094T
2544.233	1.617	3370588	WORD	n/a	wordpools/wordpool_SP.txt	BASTON	12	25	[0, 0, 0]	n/a	FR1	1	R1094T
2545.85	0.002	3372205	DISTRACT_START	n/a	n/a	n/a	-999	25	[0, 0, 0]	n/a	FR1	1	R1094T
2545.852	0.015	3372207	START	n/a	n/a	n/a	-999	25	[-999, -999, -999]	n/a	FR1	1	R1094T
2545.867	4.434	3372222	PROB	4.434	n/a	n/a	-999	25	[1, 9, 2]	12	FR1	1	R1094T
2550.301	6.668	3376656	PROB	6.668	n/a	n/a	-999	25	[9, 4, 5]	18	FR1	1	R1094T
2556.969	8.002	3383323	PROB	8.002	n/a	n/a	-999	25	[6, 5, 7]	18	FR1	1	R1094T
2564.971	4.367	3391325	PROB	4.367	n/a	n/a	-999	25	[7, 1, 3]	11	FR1	1	R1094T
2569.338	0.017	3395692	STOP	n/a	n/a	n/a	-999	25	[-999, -999, -999]	n/a	FR1	1	R1094T
2569.355	1.051	3395709	DISTRACT_END	n/a	n/a	n/a	-999	25	[0, 0, 0]	n/a	FR1	1	R1094T
2570.406	2.223	3396760	REC_START	n/a	n/a	n/a	-999	25	[0, 0, 0]	n/a	FR1	1	R1094T
2572.629	2.836	3398983	REC_WORD	2.836	n/a	BASTON	-999	25	[0, 0, 0]	n/a	FR1	1	R1094T
2575.465	23.684	3401819	REC_WORD	23.684	n/a	HORMIGA	-999	25	[0, 0, 0]	n/a	FR1	1	R1094T
2599.149	1.267	3425501	REC_WORD	1.267	n/a	JABON	-999	25	[0, 0, 0]	n/a	FR1	1	R1094T
2600.416	16.347	3426768	REC_END	n/a	n/a	n/a	-999	25	[0, 0, 0]	n/a	FR1	1	R1094T
2616.763	0.0	3443115	SESS_END	n/a	n/a	n/a	-999	25	[0, 0, 0]	n/a	FR1	1	R1094T
