onset	duration	sample	trial_type	response_time	stim_file	item_name	serialpos	list	test	answer	experiment	session	subject
0.0	27.127	15858	SESS_START	n/a	n/a	n/a	-999	-999	[0, 0, 0]	n/a	FR1	1	R1060M
27.127	10.428	29421	COUNTDOWN_START	n/a	n/a	n/a	-999	-999	[0, 0, 0]	n/a	FR1	1	R1060M
37.555	3.958	34635	COUNTDOWN_END	n/a	n/a	n/a	-999	-999	[0, 0, 0]	n/a	FR1	1	R1060M
41.513	2.434	36613	PRACTICE_WORD	n/a	n/a	ATTIC	1	-1	[0, 0, 0]	n/a	FR1	1	R1060M
43.947	2.45	37830	PRACTICE_WORD	n/a	n/a	BEAM	2	-1	[0, 0, 0]	n/a	FR1	1	R1060M
46.397	2.467	39055	PRACTICE_WORD	n/a	n/a	TONGUE	3	-1	[0, 0, 0]	n/a	FR1	1	R1060M
48.864	2.468	40289	PRACTICE_WORD	n/a	n/a	CAMEL	4	-1	[0, 0, 0]	n/a	FR1	1	R1060M
51.332	2.584	41523	PRACTICE_WORD	n/a	n/a	WATCH	5	-1	[0, 0, 0]	n/a	FR1	1	R1060M
53.916	2.618	42815	PRACTICE_WORD	n/a	n/a	RING	6	-1	[0, 0, 0]	n/a	FR1	1	R1060M
56.534	2.516	44124	PRACTICE_WORD	n/a	n/a	FLOOD	7	-1	[0, 0, 0]	n/a	FR1	1	R1060M
59.05	2.384	45381	PRACTICE_WORD	n/a	n/a	IRON	8	-1	[0, 0, 0]	n/a	FR1	1	R1060M
61.434	2.583	46573	PRACTICE_WORD	n/a	n/a	RHINO	9	-1	[0, 0, 0]	n/a	FR1	1	R1060M
64.017	2.535	47865	PRACTICE_WORD	n/a	n/a	CHEST	10	-1	[0, 0, 0]	n/a	FR1	1	R1060M
66.552	2.4	49132	PRACTICE_WORD	n/a	n/a	COTTON	11	-1	[0, 0, 0]	n/a	FR1	1	R1060M
68.952	1.601	50332	PRACTICE_WORD	n/a	n/a	WAGON	12	-1	[0, 0, 0]	n/a	FR1	1	R1060M
70.553	0.001	51133	PRACTICE_DISTRACT_START	n/a	n/a	n/a	-999	-1	[0, 0, 0]	n/a	FR1	1	R1060M
70.554	0.016	51133	START	n/a	n/a	n/a	-999	-1	[-999, -999, -999]	n/a	FR1	1	R1060M
70.57	3.066	51141	PROB	3.066	n/a	n/a	-999	-1	[3, 1, 8]	12	FR1	1	R1060M
73.636	2.517	52674	PROB	2.517	n/a	n/a	-999	-1	[1, 1, 4]	6	FR1	1	R1060M
76.153	3.751	53932	PROB	3.751	n/a	n/a	-999	-1	[7, 4, 8]	19	FR1	1	R1060M
79.904	12.96	55808	PROB	12.96	n/a	n/a	-999	-1	[9, 2, 7]	18	FR1	1	R1060M
92.864	0.009	62288	STOP	n/a	n/a	n/a	-999	-1	[-999, -999, -999]	n/a	FR1	1	R1060M
92.873	0.519	62292	PRACTICE_DISTRACT_END	n/a	n/a	n/a	-999	-1	[0, 0, 0]	n/a	FR1	1	R1060M
93.392	30.515	62551	PRACTICE_REC_START	n/a	n/a	n/a	-999	-1	[0, 0, 0]	n/a	FR1	1	R1060M
123.907	61.151	77808	PRACTICE_REC_END	n/a	n/a	n/a	-999	-1	[0, 0, 0]	n/a	FR1	1	R1060M
185.058	0.0	108382	COUNTDOWN_START	n/a	n/a	n/a	-999	1	[0, 0, 0]	n/a	FR1	1	R1060M
185.058	10.428	108382	TRIAL	n/a	n/a	n/a	-999	1	[0, 0, 0]	n/a	FR1	1	R1060M
195.486	0.007	113596	COUNTDOWN_END	n/a	n/a	n/a	-999	1	[0, 0, 0]	n/a	FR1	1	R1060M
195.493	2.567	113599	ORIENT	n/a	n/a	n/a	-999	1	[0, 0, 0]	n/a	FR1	1	R1060M
198.06	2.617	114883	WORD	n/a	wordpools/wordpool_EN.txt	PIT	1	1	[0, 0, 0]	n/a	FR1	1	R1060M
200.677	2.551	116191	WORD	n/a	wordpools/wordpool_EN.txt	PEACH	2	1	[0, 0, 0]	n/a	FR1	1	R1060M
203.228	2.517	117466	WORD	n/a	wordpools/wordpool_EN.txt	FLUTE	3	1	[0, 0, 0]	n/a	FR1	1	R1060M
205.745	2.417	118725	WORD	n/a	wordpools/wordpool_EN.txt	CORN	4	1	[0, 0, 0]	n/a	FR1	1	R1060M
208.162	2.534	119933	WORD	n/a	wordpools/wordpool_EN.txt	JUDGE	5	1	[0, 0, 0]	n/a	FR1	1	R1060M
210.696	2.417	121200	WORD	n/a	wordpools/wordpool_EN.txt	CART	6	1	[0, 0, 0]	n/a	FR1	1	R1060M
213.113	2.484	122409	WORD	n/a	wordpools/wordpool_EN.txt	TREE	7	1	[0, 0, 0]	n/a	FR1	1	R1060M
215.597	2.467	123651	WORD	n/a	wordpools/wordpool_EN.txt	ROOM	8	1	[0, 0, 0]	n/a	FR1	1	R1060M
218.064	2.551	124884	WORD	n/a	wordpools/wordpool_EN.txt	STREET	9	1	[0, 0, 0]	n/a	FR1	1	R1060M
220.615	2.6	126159	WORD	n/a	wordpools/wordpool_EN.txt	BENCH	10	1	[0, 0, 0]	n/a	FR1	1	R1060M
223.215	2.534	127459	WORD	n/a	wordpools/wordpool_EN.txt	BOWL	11	1	[0, 0, 0]	n/a	FR1	1	R1060M
225.749	1.617	128726	WORD	n/a	wordpools/wordpool_EN.txt	FRUIT	12	1	[0, 0, 0]	n/a	FR1	1	R1060M
227.366	0.001	129535	DISTRACT_START	n/a	n/a	n/a	-999	1	[0, 0, 0]	n/a	FR1	1	R1060M
227.367	0.016	129535	START	n/a	n/a	n/a	-999	1	[-999, -999, -999]	n/a	FR1	1	R1060M
227.383	3.767	129543	PROB	3.767	n/a	n/a	-999	1	[5, 4, 6]	15	FR1	1	R1060M
231.15	7.285	131427	PROB	7.285	n/a	n/a	-999	1	[6, 9, 5]	20	FR1	1	R1060M
238.435	3.118	135069	PROB	3.118	n/a	n/a	-999	1	[2, 1, 6]	9	FR1	1	R1060M
241.553	2.55	136628	PROB	2.55	n/a	n/a	-999	1	[5, 6, 2]	13	FR1	1	R1060M
244.103	2.6	137903	PROB	2.6	n/a	n/a	-999	1	[8, 8, 8]	24	FR1	1	R1060M
246.703	7.121	139203	PROB	7.121	n/a	n/a	-999	1	[6, 3, 6]	15	FR1	1	R1060M
253.824	0.014	142763	STOP	n/a	n/a	n/a	-999	1	[-999, -999, -999]	n/a	FR1	1	R1060M
253.838	1.101	142770	DISTRACT_END	n/a	n/a	n/a	-999	1	[0, 0, 0]	n/a	FR1	1	R1060M
254.939	1.885	143320	REC_START	n/a	n/a	n/a	-999	1	[0, 0, 0]	n/a	FR1	1	R1060M
256.824	0.938	144263	REC_WORD_VV	0.938	n/a	<>	-999	1	[0, 0, 0]	n/a	FR1	1	R1060M
257.762	1.015	144732	REC_WORD	1.015	n/a	PEACH	-999	1	[0, 0, 0]	n/a	FR1	1	R1060M
258.777	1.248	145239	REC_WORD	1.248	n/a	PIT	-999	1	[0, 0, 0]	n/a	FR1	1	R1060M
260.025	1.277	145863	REC_WORD	1.277	n/a	CORN	-999	1	[0, 0, 0]	n/a	FR1	1	R1060M
261.302	1.608	146502	REC_WORD	1.608	n/a	JUDGE	-999	1	[0, 0, 0]	n/a	FR1	1	R1060M
262.91	14.059	147306	REC_WORD	14.059	n/a	ROOM	-999	1	[0, 0, 0]	n/a	FR1	1	R1060M
276.969	7.98	154335	REC_WORD	7.98	n/a	TRIAL	-999	1	[0, 0, 0]	n/a	FR1	1	R1060M
284.949	3.245	158325	REC_END	n/a	n/a	n/a	-999	1	[0, 0, 0]	n/a	FR1	1	R1060M
288.194	0.001	159947	COUNTDOWN_START	n/a	n/a	n/a	-999	2	[0, 0, 0]	n/a	FR1	1	R1060M
288.195	10.427	159948	TRIAL	n/a	n/a	n/a	-999	2	[0, 0, 0]	n/a	FR1	1	R1060M
298.622	0.008	165161	COUNTDOWN_END	n/a	n/a	n/a	-999	2	[0, 0, 0]	n/a	FR1	1	R1060M
298.63	2.467	165165	ORIENT	n/a	n/a	n/a	-999	2	[0, 0, 0]	n/a	FR1	1	R1060M
301.097	2.634	166398	WORD	n/a	wordpools/wordpool_EN.txt	ROAD	1	2	[0, 0, 0]	n/a	FR1	1	R1060M
303.731	2.45	167715	WORD	n/a	wordpools/wordpool_EN.txt	ROOF	2	2	[0, 0, 0]	n/a	FR1	1	R1060M
306.181	2.451	168940	WORD	n/a	wordpools/wordpool_EN.txt	PARK	3	2	[0, 0, 0]	n/a	FR1	1	R1060M
308.632	2.567	170166	WORD	n/a	wordpools/wordpool_EN.txt	KITE	4	2	[0, 0, 0]	n/a	FR1	1	R1060M
311.199	2.417	171449	WORD	n/a	wordpools/wordpool_EN.txt	BOX	5	2	[0, 0, 0]	n/a	FR1	1	R1060M
313.616	2.417	172657	WORD	n/a	wordpools/wordpool_EN.txt	FOG	6	2	[0, 0, 0]	n/a	FR1	1	R1060M
316.033	2.601	173866	WORD	n/a	wordpools/wordpool_EN.txt	SMILE	7	2	[0, 0, 0]	n/a	FR1	1	R1060M
318.634	2.433	175166	WORD	n/a	wordpools/wordpool_EN.txt	VAN	8	2	[0, 0, 0]	n/a	FR1	1	R1060M
321.067	2.601	176383	WORD	n/a	wordpools/wordpool_EN.txt	CAR	9	2	[0, 0, 0]	n/a	FR1	1	R1060M
323.668	2.5	177683	WORD	n/a	wordpools/wordpool_EN.txt	RUG	10	2	[0, 0, 0]	n/a	FR1	1	R1060M
326.168	2.601	178933	WORD	n/a	wordpools/wordpool_EN.txt	CLOWN	11	2	[0, 0, 0]	n/a	FR1	1	R1060M
328.769	1.617	180233	WORD	n/a	wordpools/wordpool_EN.txt	LAMP	12	2	[0, 0, 0]	n/a	FR1	1	R1060M
330.386	0.001	181042	DISTRACT_START	n/a	n/a	n/a	-999	2	[0, 0, 0]	n/a	FR1	1	R1060M
330.387	0.015	181042	START	n/a	n/a	n/a	-999	2	[-999, -999, -999]	n/a	FR1	1	R1060M
330.402	2.684	181050	PROB	2.684	n/a	n/a	-999	2	[2, 8, 3]	13	FR1	1	R1060M
333.086	2.868	182392	PROB	2.868	n/a	n/a	-999	2	[7, 9, 5]	21	FR1	1	R1060M
335.954	2.783	183826	PROB	2.783	n/a	n/a	-999	2	[5, 1, 9]	15	FR1	1	R1060M
338.737	3.284	185217	PROB	3.284	n/a	n/a	-999	2	[5, 4, 9]	18	FR1	1	R1060M
342.021	2.901	186859	PROB	2.901	n/a	n/a	-999	2	[6, 7, 2]	15	FR1	1	R1060M
344.922	3.951	188309	PROB	3.951	n/a	n/a	-999	2	[1, 5, 4]	10	FR1	1	R1060M
348.873	4.303	190285	PROB	4.303	n/a	n/a	-999	2	[6, 8, 3]	18	FR1	1	R1060M
353.176	0.014	192436	STOP	n/a	n/a	n/a	-999	2	[-999, -999, -999]	n/a	FR1	1	R1060M
353.19	1.168	192443	DISTRACT_END	n/a	n/a	n/a	-999	2	[0, 0, 0]	n/a	FR1	1	R1060M
354.358	7.18	193027	REC_START	n/a	n/a	n/a	-999	2	[0, 0, 0]	n/a	FR1	1	R1060M
361.538	6.442	196617	REC_WORD	6.442	n/a	ROOF	-999	2	[0, 0, 0]	n/a	FR1	1	R1060M
367.98	4.034	199838	REC_WORD	4.034	n/a	RUG	-999	2	[0, 0, 0]	n/a	FR1	1	R1060M
372.014	4.703	201855	REC_WORD_VV	4.703	n/a	<>	-999	2	[0, 0, 0]	n/a	FR1	1	R1060M
376.717	1.335	204206	REC_WORD	1.335	n/a	PIT	-999	2	[0, 0, 0]	n/a	FR1	1	R1060M
378.052	5.099	204874	REC_WORD	5.099	n/a	TRIAL	-999	2	[0, 0, 0]	n/a	FR1	1	R1060M
383.151	1.217	207423	REC_WORD	1.217	n/a	VAN	-999	2	[0, 0, 0]	n/a	FR1	1	R1060M
384.368	2.062	208031	REC_END	n/a	n/a	n/a	-999	2	[0, 0, 0]	n/a	FR1	1	R1060M
386.43	0.0	209062	TRIAL	n/a	n/a	n/a	-999	3	[0, 0, 0]	n/a	FR1	1	R1060M
386.43	10.428	209062	COUNTDOWN_START	n/a	n/a	n/a	-999	3	[0, 0, 0]	n/a	FR1	1	R1060M
396.858	0.007	214276	COUNTDOWN_END	n/a	n/a	n/a	-999	3	[0, 0, 0]	n/a	FR1	1	R1060M
396.865	2.551	214280	ORIENT	n/a	n/a	n/a	-999	3	[0, 0, 0]	n/a	FR1	1	R1060M
399.416	2.417	215555	WORD	n/a	wordpools/wordpool_EN.txt	BRIDGE	1	3	[0, 0, 0]	n/a	FR1	1	R1060M
401.833	2.4	216763	WORD	n/a	wordpools/wordpool_EN.txt	CAGE	2	3	[0, 0, 0]	n/a	FR1	1	R1060M
404.233	2.484	217963	WORD	n/a	wordpools/wordpool_EN.txt	BOOT	3	3	[0, 0, 0]	n/a	FR1	1	R1060M
406.717	2.517	219205	WORD	n/a	wordpools/wordpool_EN.txt	GEESE	4	3	[0, 0, 0]	n/a	FR1	1	R1060M
409.234	2.617	220464	WORD	n/a	wordpools/wordpool_EN.txt	SKUNK	5	3	[0, 0, 0]	n/a	FR1	1	R1060M
411.851	2.601	221772	WORD	n/a	wordpools/wordpool_EN.txt	CLOCK	6	3	[0, 0, 0]	n/a	FR1	1	R1060M
414.452	2.567	223073	WORD	n/a	wordpools/wordpool_EN.txt	ICE	7	3	[0, 0, 0]	n/a	FR1	1	R1060M
417.019	2.584	224356	WORD	n/a	wordpools/wordpool_EN.txt	LAND	8	3	[0, 0, 0]	n/a	FR1	1	R1060M
419.603	2.501	225648	WORD	n/a	wordpools/wordpool_EN.txt	FARM	9	3	[0, 0, 0]	n/a	FR1	1	R1060M
422.104	2.567	226898	WORD	n/a	wordpools/wordpool_EN.txt	MAP	10	3	[0, 0, 0]	n/a	FR1	1	R1060M
424.671	2.45	228182	WORD	n/a	wordpools/wordpool_EN.txt	ARK	11	3	[0, 0, 0]	n/a	FR1	1	R1060M
427.121	1.617	229407	WORD	n/a	wordpools/wordpool_EN.txt	SKY	12	3	[0, 0, 0]	n/a	FR1	1	R1060M
428.738	0.001	230215	DISTRACT_START	n/a	n/a	n/a	-999	3	[0, 0, 0]	n/a	FR1	1	R1060M
428.739	0.016	230216	START	n/a	n/a	n/a	-999	3	[-999, -999, -999]	n/a	FR1	1	R1060M
428.755	2.267	230224	PROB	2.267	n/a	n/a	-999	3	[2, 3, 7]	12	FR1	1	R1060M
431.022	2.75	231357	PROB	2.75	n/a	n/a	-999	3	[6, 5, 3]	14	FR1	1	R1060M
433.772	5.535	232732	PROB	5.535	n/a	n/a	-999	3	[6, 9, 2]	18	FR1	1	R1060M
439.307	2.784	235499	PROB	2.784	n/a	n/a	-999	3	[4, 2, 1]	7	FR1	1	R1060M
442.091	2.717	236891	PROB	2.717	n/a	n/a	-999	3	[7, 7, 5]	19	FR1	1	R1060M
444.808	2.701	238250	PROB	2.701	n/a	n/a	-999	3	[1, 8, 3]	12	FR1	1	R1060M
447.509	2.651	239600	PROB	2.651	n/a	n/a	-999	3	[1, 4, 2]	7	FR1	1	R1060M
450.16	0.016	240926	STOP	n/a	n/a	n/a	-999	3	[-999, -999, -999]	n/a	FR1	1	R1060M
450.176	1.151	240934	DISTRACT_END	n/a	n/a	n/a	-999	3	[0, 0, 0]	n/a	FR1	1	R1060M
451.327	2.722	241509	REC_START	n/a	n/a	n/a	-999	3	[0, 0, 0]	n/a	FR1	1	R1060M
454.049	3.373	242870	REC_WORD	3.373	n/a	ICE	-999	3	[0, 0, 0]	n/a	FR1	1	R1060M
457.422	8.128	244556	REC_WORD	8.128	n/a	BRIDGE	-999	3	[0, 0, 0]	n/a	FR1	1	R1060M
465.55	6.556	248620	REC_WORD_VV	6.556	n/a	<>	-999	3	[0, 0, 0]	n/a	FR1	1	R1060M
472.106	9.232	251898	REC_WORD	9.232	n/a	FARM	-999	3	[0, 0, 0]	n/a	FR1	1	R1060M
481.338	1.761	256514	REC_END	n/a	n/a	n/a	-999	3	[0, 0, 0]	n/a	FR1	1	R1060M
483.099	0.0	257394	TRIAL	n/a	n/a	n/a	-999	4	[0, 0, 0]	n/a	FR1	1	R1060M
483.099	10.428	257394	COUNTDOWN_START	n/a	n/a	n/a	-999	4	[0, 0, 0]	n/a	FR1	1	R1060M
493.527	0.008	262608	COUNTDOWN_END	n/a	n/a	n/a	-999	4	[0, 0, 0]	n/a	FR1	1	R1060M
493.535	2.45	262612	ORIENT	n/a	n/a	n/a	-999	4	[0, 0, 0]	n/a	FR1	1	R1060M
495.985	2.533	263837	WORD	n/a	wordpools/wordpool_EN.txt	AXE	1	4	[0, 0, 0]	n/a	FR1	1	R1060M
498.518	2.401	265103	WORD	n/a	wordpools/wordpool_EN.txt	CLOTH	2	4	[0, 0, 0]	n/a	FR1	1	R1060M
500.919	2.5	266304	WORD	n/a	wordpools/wordpool_EN.txt	SPRING	3	4	[0, 0, 0]	n/a	FR1	1	R1060M
503.419	2.384	267554	WORD	n/a	wordpools/wordpool_EN.txt	CROWN	4	4	[0, 0, 0]	n/a	FR1	1	R1060M
505.803	2.417	268746	WORD	n/a	wordpools/wordpool_EN.txt	BED	5	4	[0, 0, 0]	n/a	FR1	1	R1060M
508.22	2.451	269954	WORD	n/a	wordpools/wordpool_EN.txt	HEART	6	4	[0, 0, 0]	n/a	FR1	1	R1060M
510.671	2.534	271179	WORD	n/a	wordpools/wordpool_EN.txt	BOARD	7	4	[0, 0, 0]	n/a	FR1	1	R1060M
513.205	2.483	272446	WORD	n/a	wordpools/wordpool_EN.txt	TOOTH	8	4	[0, 0, 0]	n/a	FR1	1	R1060M
515.688	2.484	273688	WORD	n/a	wordpools/wordpool_EN.txt	CUP	9	4	[0, 0, 0]	n/a	FR1	1	R1060M
518.172	2.402	274930	WORD	n/a	wordpools/wordpool_EN.txt	MUD	10	4	[0, 0, 0]	n/a	FR1	1	R1060M
520.574	2.616	276131	WORD	n/a	wordpools/wordpool_EN.txt	OAR	11	4	[0, 0, 0]	n/a	FR1	1	R1060M
523.19	1.617	277439	WORD	n/a	wordpools/wordpool_EN.txt	LAMB	12	4	[0, 0, 0]	n/a	FR1	1	R1060M
524.807	0.001	278247	DISTRACT_START	n/a	n/a	n/a	-999	4	[0, 0, 0]	n/a	FR1	1	R1060M
524.808	0.016	278247	START	n/a	n/a	n/a	-999	4	[-999, -999, -999]	n/a	FR1	1	R1060M
524.824	5.984	278255	PROB	5.984	n/a	n/a	-999	4	[8, 3, 5]	16	FR1	1	R1060M
530.808	2.634	281247	PROB	2.634	n/a	n/a	-999	4	[7, 4, 4]	15	FR1	1	R1060M
533.442	2.817	282564	PROB	2.817	n/a	n/a	-999	4	[8, 2, 3]	13	FR1	1	R1060M
536.259	3.751	283973	PROB	3.751	n/a	n/a	-999	4	[8, 4, 3]	15	FR1	1	R1060M
540.01	2.585	285848	PROB	2.585	n/a	n/a	-999	4	[1, 3, 4]	8	FR1	1	R1060M
542.595	2.669	287140	PROB	2.669	n/a	n/a	-999	4	[3, 6, 8]	17	FR1	1	R1060M
545.264	0.014	288475	STOP	n/a	n/a	n/a	-999	4	[-999, -999, -999]	n/a	FR1	1	R1060M
545.278	1.134	288482	DISTRACT_END	n/a	n/a	n/a	-999	4	[0, 0, 0]	n/a	FR1	1	R1060M
546.412	1.208	289049	REC_START	n/a	n/a	n/a	-999	4	[0, 0, 0]	n/a	FR1	1	R1060M
547.62	1.357	289653	REC_WORD	1.357	n/a	AXE	-999	4	[0, 0, 0]	n/a	FR1	1	R1060M
548.977	2.335	290331	REC_WORD	2.335	n/a	CLOTH	-999	4	[0, 0, 0]	n/a	FR1	1	R1060M
551.312	2.266	291499	REC_WORD	2.266	n/a	SPRING	-999	4	[0, 0, 0]	n/a	FR1	1	R1060M
553.578	1.67	292632	REC_WORD	1.67	n/a	BOARD	-999	4	[0, 0, 0]	n/a	FR1	1	R1060M
555.248	3.9	293467	REC_WORD	3.9	n/a	MUD	-999	4	[0, 0, 0]	n/a	FR1	1	R1060M
559.148	12.582	295417	REC_WORD	12.582	n/a	TRUCK	-999	4	[0, 0, 0]	n/a	FR1	1	R1060M
571.73	4.692	301707	REC_WORD_VV	4.692	n/a	<>	-999	4	[0, 0, 0]	n/a	FR1	1	R1060M
576.422	2.545	304053	REC_END	n/a	n/a	n/a	-999	4	[0, 0, 0]	n/a	FR1	1	R1060M
578.967	0.001	305325	COUNTDOWN_START	n/a	n/a	n/a	-999	5	[0, 0, 0]	n/a	FR1	1	R1060M
578.968	10.427	305326	TRIAL	n/a	n/a	n/a	-999	5	[0, 0, 0]	n/a	FR1	1	R1060M
589.395	0.008	310539	COUNTDOWN_END	n/a	n/a	n/a	-999	5	[0, 0, 0]	n/a	FR1	1	R1060M
589.403	2.5	310543	ORIENT	n/a	n/a	n/a	-999	5	[0, 0, 0]	n/a	FR1	1	R1060M
591.903	2.451	311793	WORD	n/a	wordpools/wordpool_EN.txt	MULE	1	5	[0, 0, 0]	n/a	FR1	1	R1060M
594.354	2.383	313019	WORD	n/a	wordpools/wordpool_EN.txt	FORT	2	5	[0, 0, 0]	n/a	FR1	1	R1060M
596.737	2.601	314210	WORD	n/a	wordpools/wordpool_EN.txt	PEA	3	5	[0, 0, 0]	n/a	FR1	1	R1060M
599.338	2.55	315510	WORD	n/a	wordpools/wordpool_EN.txt	HILL	4	5	[0, 0, 0]	n/a	FR1	1	R1060M
601.888	2.484	316785	WORD	n/a	wordpools/wordpool_EN.txt	HEN	5	5	[0, 0, 0]	n/a	FR1	1	R1060M
604.372	2.551	318027	WORD	n/a	wordpools/wordpool_EN.txt	MAT	6	5	[0, 0, 0]	n/a	FR1	1	R1060M
606.923	2.618	319303	WORD	n/a	wordpools/wordpool_EN.txt	PANTS	7	5	[0, 0, 0]	n/a	FR1	1	R1060M
609.541	2.399	320612	WORD	n/a	wordpools/wordpool_EN.txt	FOX	8	5	[0, 0, 0]	n/a	FR1	1	R1060M
611.94	2.401	321811	WORD	n/a	wordpools/wordpool_EN.txt	FLAG	9	5	[0, 0, 0]	n/a	FR1	1	R1060M
614.341	2.484	323011	WORD	n/a	wordpools/wordpool_EN.txt	SIGN	10	5	[0, 0, 0]	n/a	FR1	1	R1060M
616.825	2.45	324253	WORD	n/a	wordpools/wordpool_EN.txt	GUARD	11	5	[0, 0, 0]	n/a	FR1	1	R1060M
619.275	1.617	325478	WORD	n/a	wordpools/wordpool_EN.txt	HAWK	12	5	[0, 0, 0]	n/a	FR1	1	R1060M
620.892	0.001	326287	DISTRACT_START	n/a	n/a	n/a	-999	5	[0, 0, 0]	n/a	FR1	1	R1060M
620.893	0.016	326287	START	n/a	n/a	n/a	-999	5	[-999, -999, -999]	n/a	FR1	1	R1060M
620.909	2.651	326295	PROB	2.651	n/a	n/a	-999	5	[7, 7, 3]	17	FR1	1	R1060M
623.56	9.618	327621	PROB	9.618	n/a	n/a	-999	5	[7, 9, 8]	24	FR1	1	R1060M
633.178	2.351	332429	PROB	2.351	n/a	n/a	-999	5	[6, 4, 6]	16	FR1	1	R1060M
635.529	2.566	333605	PROB	2.566	n/a	n/a	-999	5	[3, 9, 5]	18	FR1	1	R1060M
638.095	2.801	334888	PROB	2.801	n/a	n/a	-999	5	[9, 5, 2]	16	FR1	1	R1060M
640.896	4.48	336288	PROB	4.48	n/a	n/a	-999	5	[1, 9, 2]	12	FR1	1	R1060M
645.376	0.004	338528	STOP	n/a	n/a	n/a	-999	5	[-999, -999, -999]	n/a	FR1	1	R1060M
645.38	1.085	338530	DISTRACT_END	n/a	n/a	n/a	-999	5	[0, 0, 0]	n/a	FR1	1	R1060M
646.465	1.295	339073	REC_START	n/a	n/a	n/a	-999	5	[0, 0, 0]	n/a	FR1	1	R1060M
647.76	1.145	339720	REC_WORD	1.145	n/a	MULE	-999	5	[0, 0, 0]	n/a	FR1	1	R1060M
648.905	1.637	340293	REC_WORD	1.637	n/a	FORT	-999	5	[0, 0, 0]	n/a	FR1	1	R1060M
650.542	6.08	341111	REC_WORD	6.08	n/a	PEA	-999	5	[0, 0, 0]	n/a	FR1	1	R1060M
656.622	5.503	344151	REC_WORD	5.503	n/a	AXE	-999	5	[0, 0, 0]	n/a	FR1	1	R1060M
662.125	12.482	346902	REC_WORD	12.482	n/a	STRUCK	-999	5	[0, 0, 0]	n/a	FR1	1	R1060M
674.607	1.868	353143	REC_WORD_VV	1.868	n/a	<>	-999	5	[0, 0, 0]	n/a	FR1	1	R1060M
676.475	1.728	354077	REC_END	n/a	n/a	n/a	-999	5	[0, 0, 0]	n/a	FR1	1	R1060M
678.203	0.0	354941	COUNTDOWN_START	n/a	n/a	n/a	-999	6	[0, 0, 0]	n/a	FR1	1	R1060M
678.203	10.428	354941	TRIAL	n/a	n/a	n/a	-999	6	[0, 0, 0]	n/a	FR1	1	R1060M
688.631	0.008	360154	COUNTDOWN_END	n/a	n/a	n/a	-999	6	[0, 0, 0]	n/a	FR1	1	R1060M
688.639	2.533	360158	ORIENT	n/a	n/a	n/a	-999	6	[0, 0, 0]	n/a	FR1	1	R1060M
691.172	2.568	361425	WORD	n/a	wordpools/wordpool_EN.txt	INK	1	6	[0, 0, 0]	n/a	FR1	1	R1060M
693.74	2.583	362709	WORD	n/a	wordpools/wordpool_EN.txt	FENCE	2	6	[0, 0, 0]	n/a	FR1	1	R1060M
696.323	2.418	364000	WORD	n/a	wordpools/wordpool_EN.txt	TRAY	3	6	[0, 0, 0]	n/a	FR1	1	R1060M
698.741	2.45	365209	WORD	n/a	wordpools/wordpool_EN.txt	STICK	4	6	[0, 0, 0]	n/a	FR1	1	R1060M
701.191	2.484	366434	WORD	n/a	wordpools/wordpool_EN.txt	STAIR	5	6	[0, 0, 0]	n/a	FR1	1	R1060M
703.675	2.417	367676	WORD	n/a	wordpools/wordpool_EN.txt	SHEEP	6	6	[0, 0, 0]	n/a	FR1	1	R1060M
706.092	2.534	368884	WORD	n/a	wordpools/wordpool_EN.txt	MUG	7	6	[0, 0, 0]	n/a	FR1	1	R1060M
708.626	2.467	370151	WORD	n/a	wordpools/wordpool_EN.txt	SHARK	8	6	[0, 0, 0]	n/a	FR1	1	R1060M
711.093	2.417	371385	WORD	n/a	wordpools/wordpool_EN.txt	ROSE	9	6	[0, 0, 0]	n/a	FR1	1	R1060M
713.51	2.484	372593	WORD	n/a	wordpools/wordpool_EN.txt	CANE	10	6	[0, 0, 0]	n/a	FR1	1	R1060M
715.994	2.434	373835	WORD	n/a	wordpools/wordpool_EN.txt	BARN	11	6	[0, 0, 0]	n/a	FR1	1	R1060M
718.428	1.617	375052	WORD	n/a	wordpools/wordpool_EN.txt	PEN	12	6	[0, 0, 0]	n/a	FR1	1	R1060M
720.045	0.001	375861	DISTRACT_START	n/a	n/a	n/a	-999	6	[0, 0, 0]	n/a	FR1	1	R1060M
720.046	0.015	375861	START	n/a	n/a	n/a	-999	6	[-999, -999, -999]	n/a	FR1	1	R1060M
720.061	2.567	375869	PROB	2.567	n/a	n/a	-999	6	[7, 9, 8]	21	FR1	1	R1060M
722.628	2.768	377152	PROB	2.768	n/a	n/a	-999	6	[2, 6, 2]	10	FR1	1	R1060M
725.396	2.317	378536	PROB	2.317	n/a	n/a	-999	6	[1, 4, 1]	6	FR1	1	R1060M
727.713	4.301	379694	PROB	4.301	n/a	n/a	-999	6	[8, 3, 4]	15	FR1	1	R1060M
732.014	7.418	381845	PROB	7.418	n/a	n/a	-999	6	[8, 7, 7]	22	FR1	1	R1060M
739.432	2.656	385554	PROB	2.656	n/a	n/a	-999	6	[4, 6, 3]	13	FR1	1	R1060M
742.088	0.011	386881	STOP	n/a	n/a	n/a	-999	6	[-999, -999, -999]	n/a	FR1	1	R1060M
742.099	1.101	386887	DISTRACT_END	n/a	n/a	n/a	-999	6	[0, 0, 0]	n/a	FR1	1	R1060M
743.2	2.705	387437	REC_START	n/a	n/a	n/a	-999	6	[0, 0, 0]	n/a	FR1	1	R1060M
745.905	2.172	388790	REC_WORD	2.172	n/a	INK	-999	6	[0, 0, 0]	n/a	FR1	1	R1060M
748.077	3.009	389876	REC_WORD	3.009	n/a	MULE	-999	6	[0, 0, 0]	n/a	FR1	1	R1060M
751.086	3.845	391380	REC_WORD	3.845	n/a	FENCE	-999	6	[0, 0, 0]	n/a	FR1	1	R1060M
754.931	1.806	393303	REC_WORD	1.806	n/a	FORK	-999	6	[0, 0, 0]	n/a	FR1	1	R1060M
756.737	5.406	394206	REC_WORD	5.406	n/a	TRAY	-999	6	[0, 0, 0]	n/a	FR1	1	R1060M
762.143	11.067	396908	REC_WORD_VV	11.067	n/a	<>	-999	6	[0, 0, 0]	n/a	FR1	1	R1060M
773.21	1.645	402442	REC_END	n/a	n/a	n/a	-999	6	[0, 0, 0]	n/a	FR1	1	R1060M
774.855	0.001	403264	COUNTDOWN_START	n/a	n/a	n/a	-999	7	[0, 0, 0]	n/a	FR1	1	R1060M
774.856	10.427	403265	TRIAL	n/a	n/a	n/a	-999	7	[0, 0, 0]	n/a	FR1	1	R1060M
785.283	0.008	408478	COUNTDOWN_END	n/a	n/a	n/a	-999	7	[0, 0, 0]	n/a	FR1	1	R1060M
785.291	2.417	408482	ORIENT	n/a	n/a	n/a	-999	7	[0, 0, 0]	n/a	FR1	1	R1060M
787.708	2.384	409690	WORD	n/a	wordpools/wordpool_EN.txt	SHEET	1	7	[0, 0, 0]	n/a	FR1	1	R1060M
790.092	2.6	410882	WORD	n/a	wordpools/wordpool_EN.txt	NET	2	7	[0, 0, 0]	n/a	FR1	1	R1060M
792.692	2.467	412182	WORD	n/a	wordpools/wordpool_EN.txt	WORLD	3	7	[0, 0, 0]	n/a	FR1	1	R1060M
795.159	2.584	413415	WORD	n/a	wordpools/wordpool_EN.txt	LIP	4	7	[0, 0, 0]	n/a	FR1	1	R1060M
797.743	2.401	414707	WORD	n/a	wordpools/wordpool_EN.txt	SCHOOL	5	7	[0, 0, 0]	n/a	FR1	1	R1060M
800.144	2.567	415908	WORD	n/a	wordpools/wordpool_EN.txt	WING	6	7	[0, 0, 0]	n/a	FR1	1	R1060M
802.711	2.45	417191	WORD	n/a	wordpools/wordpool_EN.txt	SWAMP	7	7	[0, 0, 0]	n/a	FR1	1	R1060M
805.161	2.551	418416	WORD	n/a	wordpools/wordpool_EN.txt	BAT	8	7	[0, 0, 0]	n/a	FR1	1	R1060M
807.712	2.5	419692	WORD	n/a	wordpools/wordpool_EN.txt	MAZE	9	7	[0, 0, 0]	n/a	FR1	1	R1060M
810.212	2.55	420942	WORD	n/a	wordpools/wordpool_EN.txt	TANK	10	7	[0, 0, 0]	n/a	FR1	1	R1060M
812.762	2.534	422216	WORD	n/a	wordpools/wordpool_EN.txt	BADGE	11	7	[0, 0, 0]	n/a	FR1	1	R1060M
815.296	1.617	423483	WORD	n/a	wordpools/wordpool_EN.txt	JET	12	7	[0, 0, 0]	n/a	FR1	1	R1060M
816.913	0.001	424292	DISTRACT_START	n/a	n/a	n/a	-999	7	[0, 0, 0]	n/a	FR1	1	R1060M
816.914	0.016	424292	START	n/a	n/a	n/a	-999	7	[-999, -999, -999]	n/a	FR1	1	R1060M
816.93	4.201	424300	PROB	4.201	n/a	n/a	-999	7	[9, 3, 6]	18	FR1	1	R1060M
821.131	1.984	426401	PROB	1.984	n/a	n/a	-999	7	[2, 1, 1]	4	FR1	1	R1060M
823.115	3.234	427393	PROB	3.234	n/a	n/a	-999	7	[3, 3, 9]	15	FR1	1	R1060M
826.349	2.8	429010	PROB	2.8	n/a	n/a	-999	7	[5, 8, 1]	14	FR1	1	R1060M
829.149	4.034	430410	PROB	4.034	n/a	n/a	-999	7	[4, 7, 6]	17	FR1	1	R1060M
833.183	2.567	432426	PROB	2.567	n/a	n/a	-999	7	[6, 2, 6]	14	FR1	1	R1060M
835.75	3.202	433710	PROB	3.202	n/a	n/a	-999	7	[7, 5, 8]	20	FR1	1	R1060M
838.952	0.016	435311	STOP	n/a	n/a	n/a	-999	7	[-999, -999, -999]	n/a	FR1	1	R1060M
838.968	1.084	435319	DISTRACT_END	n/a	n/a	n/a	-999	7	[0, 0, 0]	n/a	FR1	1	R1060M
840.052	26.047	435861	REC_START	n/a	n/a	n/a	-999	7	[0, 0, 0]	n/a	FR1	1	R1060M
866.099	3.963	448883	REC_WORD	3.963	n/a	INK	-999	7	[0, 0, 0]	n/a	FR1	1	R1060M
870.062	2.279	450865	REC_END	n/a	n/a	n/a	-999	7	[0, 0, 0]	n/a	FR1	1	R1060M
872.341	0.0	452004	TRIAL	n/a	n/a	n/a	-999	8	[0, 0, 0]	n/a	FR1	1	R1060M
872.341	10.428	452004	COUNTDOWN_START	n/a	n/a	n/a	-999	8	[0, 0, 0]	n/a	FR1	1	R1060M
882.769	0.007	457218	COUNTDOWN_END	n/a	n/a	n/a	-999	8	[0, 0, 0]	n/a	FR1	1	R1060M
882.776	2.467	457222	ORIENT	n/a	n/a	n/a	-999	8	[0, 0, 0]	n/a	FR1	1	R1060M
885.243	2.584	458455	WORD	n/a	wordpools/wordpool_EN.txt	SQUARE	1	8	[0, 0, 0]	n/a	FR1	1	R1060M
887.827	2.401	459747	WORD	n/a	wordpools/wordpool_EN.txt	BRICK	2	8	[0, 0, 0]	n/a	FR1	1	R1060M
890.228	2.484	460947	WORD	n/a	wordpools/wordpool_EN.txt	SMOKE	3	8	[0, 0, 0]	n/a	FR1	1	R1060M
892.712	2.6	462189	WORD	n/a	wordpools/wordpool_EN.txt	NAIL	4	8	[0, 0, 0]	n/a	FR1	1	R1060M
895.312	2.45	463489	WORD	n/a	wordpools/wordpool_EN.txt	PIN	5	8	[0, 0, 0]	n/a	FR1	1	R1060M
897.762	2.418	464714	WORD	n/a	wordpools/wordpool_EN.txt	VEST	6	8	[0, 0, 0]	n/a	FR1	1	R1060M
900.18	2.567	465923	WORD	n/a	wordpools/wordpool_EN.txt	WHALE	7	8	[0, 0, 0]	n/a	FR1	1	R1060M
902.747	2.5	467206	WORD	n/a	wordpools/wordpool_EN.txt	SNOW	8	8	[0, 0, 0]	n/a	FR1	1	R1060M
905.247	2.534	468456	WORD	n/a	wordpools/wordpool_EN.txt	FLAME	9	8	[0, 0, 0]	n/a	FR1	1	R1060M
907.781	2.517	469723	WORD	n/a	wordpools/wordpool_EN.txt	DOCK	10	8	[0, 0, 0]	n/a	FR1	1	R1060M
910.298	2.434	470982	WORD	n/a	wordpools/wordpool_EN.txt	STORM	11	8	[0, 0, 0]	n/a	FR1	1	R1060M
912.732	1.617	472199	WORD	n/a	wordpools/wordpool_EN.txt	LAKE	12	8	[0, 0, 0]	n/a	FR1	1	R1060M
914.349	0.001	473007	DISTRACT_START	n/a	n/a	n/a	-999	8	[0, 0, 0]	n/a	FR1	1	R1060M
914.35	0.016	473008	START	n/a	n/a	n/a	-999	8	[-999, -999, -999]	n/a	FR1	1	R1060M
914.366	3.218	473016	PROB	3.218	n/a	n/a	-999	8	[5, 1, 9]	15	FR1	1	R1060M
917.584	2.216	474625	PROB	2.216	n/a	n/a	-999	8	[4, 6, 1]	11	FR1	1	R1060M
919.8	2.334	475733	PROB	2.334	n/a	n/a	-999	8	[4, 4, 2]	10	FR1	1	R1060M
922.134	2.8	476899	PROB	2.8	n/a	n/a	-999	8	[3, 9, 8]	20	FR1	1	R1060M
924.934	3.284	478299	PROB	3.284	n/a	n/a	-999	8	[5, 3, 9]	17	FR1	1	R1060M
928.218	3.084	479941	PROB	3.084	n/a	n/a	-999	8	[8, 9, 7]	21	FR1	1	R1060M
931.302	1.717	481483	PROB	1.717	n/a	n/a	-999	8	[1, 1, 1]	3	FR1	1	R1060M
933.019	2.285	482342	PROB	2.285	n/a	n/a	-999	8	[4, 4, 1]	9	FR1	1	R1060M
935.304	0.016	483484	STOP	n/a	n/a	n/a	-999	8	[-999, -999, -999]	n/a	FR1	1	R1060M
935.32	1.184	483492	DISTRACT_END	n/a	n/a	n/a	-999	8	[0, 0, 0]	n/a	FR1	1	R1060M
936.504	1.103	484084	REC_START	n/a	n/a	n/a	-999	8	[0, 0, 0]	n/a	FR1	1	R1060M
937.607	5.39	484636	REC_WORD	5.39	n/a	SQUARE	-999	8	[0, 0, 0]	n/a	FR1	1	R1060M
942.997	8.631	487330	REC_WORD	8.631	n/a	DOCK	-999	8	[0, 0, 0]	n/a	FR1	1	R1060M
951.628	5.935	491646	REC_WORD	5.935	n/a	FENCE	-999	8	[0, 0, 0]	n/a	FR1	1	R1060M
957.563	8.951	494613	REC_WORD	8.951	n/a	INK	-999	8	[0, 0, 0]	n/a	FR1	1	R1060M
966.514	127.77	499088	REC_END	n/a	n/a	n/a	-999	8	[0, 0, 0]	n/a	FR1	1	R1060M
1094.284	0.0	562970	COUNTDOWN_START	n/a	n/a	n/a	-999	9	[0, 0, 0]	n/a	FR1	1	R1060M
1094.284	10.428	562970	TRIAL	n/a	n/a	n/a	-999	9	[0, 0, 0]	n/a	FR1	1	R1060M
1104.712	0.007	568183	COUNTDOWN_END	n/a	n/a	n/a	-999	9	[0, 0, 0]	n/a	FR1	1	R1060M
1104.719	2.584	568187	ORIENT	n/a	n/a	n/a	-999	9	[0, 0, 0]	n/a	FR1	1	R1060M
1107.303	2.601	569479	WORD	n/a	wordpools/wordpool_EN.txt	SAIL	1	9	[0, 0, 0]	n/a	FR1	1	R1060M
1109.904	2.383	570779	WORD	n/a	wordpools/wordpool_EN.txt	SHIP	2	9	[0, 0, 0]	n/a	FR1	1	R1060M
1112.287	2.418	571971	WORD	n/a	wordpools/wordpool_EN.txt	WORM	3	9	[0, 0, 0]	n/a	FR1	1	R1060M
1114.705	2.4	573180	WORD	n/a	wordpools/wordpool_EN.txt	SLIME	4	9	[0, 0, 0]	n/a	FR1	1	R1060M
1117.105	2.517	574380	WORD	n/a	wordpools/wordpool_EN.txt	STEAM	5	9	[0, 0, 0]	n/a	FR1	1	R1060M
1119.622	2.551	575638	WORD	n/a	wordpools/wordpool_EN.txt	BOAT	6	9	[0, 0, 0]	n/a	FR1	1	R1060M
1122.173	2.584	576913	WORD	n/a	wordpools/wordpool_EN.txt	HOOK	7	9	[0, 0, 0]	n/a	FR1	1	R1060M
1124.757	2.533	578205	WORD	n/a	wordpools/wordpool_EN.txt	DESK	8	9	[0, 0, 0]	n/a	FR1	1	R1060M
1127.29	2.451	579472	WORD	n/a	wordpools/wordpool_EN.txt	PEARL	9	9	[0, 0, 0]	n/a	FR1	1	R1060M
1129.741	2.417	580697	WORD	n/a	wordpools/wordpool_EN.txt	WHEEL	10	9	[0, 0, 0]	n/a	FR1	1	R1060M
1132.158	2.534	581906	WORD	n/a	wordpools/wordpool_EN.txt	FISH	11	9	[0, 0, 0]	n/a	FR1	1	R1060M
1134.692	1.617	583173	WORD	n/a	wordpools/wordpool_EN.txt	DRESS	12	9	[0, 0, 0]	n/a	FR1	1	R1060M
1136.309	0.001	583981	DISTRACT_START	n/a	n/a	n/a	-999	9	[0, 0, 0]	n/a	FR1	1	R1060M
1136.31	0.015	583981	START	n/a	n/a	n/a	-999	9	[-999, -999, -999]	n/a	FR1	1	R1060M
1136.325	3.384	583989	PROB	3.384	n/a	n/a	-999	9	[5, 4, 4]	13	FR1	1	R1060M
1139.709	3.301	585681	PROB	3.301	n/a	n/a	-999	9	[7, 1, 4]	12	FR1	1	R1060M
1143.01	2.518	587331	PROB	2.518	n/a	n/a	-999	9	[4, 4, 9]	17	FR1	1	R1060M
1145.528	2.566	588590	PROB	2.566	n/a	n/a	-999	9	[9, 6, 4]	19	FR1	1	R1060M
1148.094	2.684	589873	PROB	2.684	n/a	n/a	-999	9	[8, 3, 8]	19	FR1	1	R1060M
1150.778	2.417	591215	PROB	2.417	n/a	n/a	-999	9	[9, 2, 5]	16	FR1	1	R1060M
1153.195	6.261	592424	PROB	6.261	n/a	n/a	-999	9	[8, 8, 9]	25	FR1	1	R1060M
1159.456	0.007	595554	STOP	n/a	n/a	n/a	-999	9	[-999, -999, -999]	n/a	FR1	1	R1060M
1159.463	1.069	595557	DISTRACT_END	n/a	n/a	n/a	-999	9	[0, 0, 0]	n/a	FR1	1	R1060M
1160.532	0.899	596092	REC_START	n/a	n/a	n/a	-999	9	[0, 0, 0]	n/a	FR1	1	R1060M
1161.431	1.134	596541	REC_WORD	1.134	n/a	SAIL	-999	9	[0, 0, 0]	n/a	FR1	1	R1060M
1162.565	1.866	597108	REC_WORD	1.866	n/a	SHIP	-999	9	[0, 0, 0]	n/a	FR1	1	R1060M
1164.431	2.299	598041	REC_WORD	2.299	n/a	SLIME	-999	9	[0, 0, 0]	n/a	FR1	1	R1060M
1166.73	7.167	599191	REC_WORD	7.167	n/a	WORM	-999	9	[0, 0, 0]	n/a	FR1	1	R1060M
1173.897	9.634	602774	REC_WORD	9.634	n/a	BOAT	-999	9	[0, 0, 0]	n/a	FR1	1	R1060M
1183.531	3.693	607591	REC_WORD	3.693	n/a	DOCK	-999	9	[0, 0, 0]	n/a	FR1	1	R1060M
1187.224	3.319	609437	REC_WORD	3.319	n/a	SWIM	-999	9	[0, 0, 0]	n/a	FR1	1	R1060M
1190.543	3.06	611096	REC_END	n/a	n/a	n/a	-999	9	[0, 0, 0]	n/a	FR1	1	R1060M
1193.603	0.0	612626	TRIAL	n/a	n/a	n/a	-999	10	[0, 0, 0]	n/a	FR1	1	R1060M
1193.603	10.428	612626	COUNTDOWN_START	n/a	n/a	n/a	-999	10	[0, 0, 0]	n/a	FR1	1	R1060M
1204.031	0.008	617840	COUNTDOWN_END	n/a	n/a	n/a	-999	10	[0, 0, 0]	n/a	FR1	1	R1060M
1204.039	2.383	617844	ORIENT	n/a	n/a	n/a	-999	10	[0, 0, 0]	n/a	FR1	1	R1060M
1206.422	2.617	619036	WORD	n/a	wordpools/wordpool_EN.txt	DOG	1	10	[0, 0, 0]	n/a	FR1	1	R1060M
1209.039	2.634	620344	WORD	n/a	wordpools/wordpool_EN.txt	PEAR	2	10	[0, 0, 0]	n/a	FR1	1	R1060M
1211.673	2.401	621661	WORD	n/a	wordpools/wordpool_EN.txt	BREAD	3	10	[0, 0, 0]	n/a	FR1	1	R1060M
1214.074	2.451	622861	WORD	n/a	wordpools/wordpool_EN.txt	TAIL	4	10	[0, 0, 0]	n/a	FR1	1	R1060M
1216.525	2.5	624087	WORD	n/a	wordpools/wordpool_EN.txt	BRANCH	5	10	[0, 0, 0]	n/a	FR1	1	R1060M
1219.025	2.484	625337	WORD	n/a	wordpools/wordpool_EN.txt	BEAN	6	10	[0, 0, 0]	n/a	FR1	1	R1060M
1221.509	2.483	626579	WORD	n/a	wordpools/wordpool_EN.txt	BLOOM	7	10	[0, 0, 0]	n/a	FR1	1	R1060M
1223.992	2.468	627820	WORD	n/a	wordpools/wordpool_EN.txt	FOOD	8	10	[0, 0, 0]	n/a	FR1	1	R1060M
1226.46	2.433	629054	WORD	n/a	wordpools/wordpool_EN.txt	LAWN	9	10	[0, 0, 0]	n/a	FR1	1	R1060M
1228.893	2.401	630270	WORD	n/a	wordpools/wordpool_EN.txt	RICE	10	10	[0, 0, 0]	n/a	FR1	1	R1060M
1231.294	2.417	631471	WORD	n/a	wordpools/wordpool_EN.txt	EEL	11	10	[0, 0, 0]	n/a	FR1	1	R1060M
1233.711	1.617	632679	WORD	n/a	wordpools/wordpool_EN.txt	MOTH	12	10	[0, 0, 0]	n/a	FR1	1	R1060M
1235.328	0.001	633488	DISTRACT_START	n/a	n/a	n/a	-999	10	[0, 0, 0]	n/a	FR1	1	R1060M
1235.329	0.016	633488	START	n/a	n/a	n/a	-999	10	[-999, -999, -999]	n/a	FR1	1	R1060M
1235.345	3.817	633496	PROB	3.817	n/a	n/a	-999	10	[3, 7, 8]	18	FR1	1	R1060M
1239.162	5.385	635405	PROB	5.385	n/a	n/a	-999	10	[8, 9, 5]	22	FR1	1	R1060M
1244.547	2.25	638097	PROB	2.25	n/a	n/a	-999	10	[8, 9, 2]	19	FR1	1	R1060M
1246.797	2.65	639222	PROB	2.65	n/a	n/a	-999	10	[9, 2, 5]	14	FR1	1	R1060M
1249.447	5.451	640547	PROB	5.451	n/a	n/a	-999	10	[9, 8, 5]	22	FR1	1	R1060M
1254.898	2.054	643272	PROB	2.054	n/a	n/a	-999	10	[1, 1, 7]	9	FR1	1	R1060M
1256.952	0.013	644299	STOP	n/a	n/a	n/a	-999	10	[-999, -999, -999]	n/a	FR1	1	R1060M
1256.965	1.135	644306	DISTRACT_END	n/a	n/a	n/a	-999	10	[0, 0, 0]	n/a	FR1	1	R1060M
1258.1	2.224	644873	REC_START	n/a	n/a	n/a	-999	10	[0, 0, 0]	n/a	FR1	1	R1060M
1260.324	9.799	645985	REC_WORD	9.799	n/a	DOG	-999	10	[0, 0, 0]	n/a	FR1	1	R1060M
1270.123	8.876	650884	REC_WORD	8.876	n/a	SAIL	-999	10	[0, 0, 0]	n/a	FR1	1	R1060M
1278.999	8.86	655322	REC_WORD	8.86	n/a	MUD	-999	10	[0, 0, 0]	n/a	FR1	1	R1060M
1287.859	0.251	659752	REC_WORD_VV	0.251	n/a	<>	-999	10	[0, 0, 0]	n/a	FR1	1	R1060M
1288.11	2.829	659877	REC_END	n/a	n/a	n/a	-999	10	[0, 0, 0]	n/a	FR1	1	R1060M
1290.939	0.0	661292	COUNTDOWN_START	n/a	n/a	n/a	-999	11	[0, 0, 0]	n/a	FR1	1	R1060M
1290.939	10.428	661292	TRIAL	n/a	n/a	n/a	-999	11	[0, 0, 0]	n/a	FR1	1	R1060M
1301.367	0.007	666505	COUNTDOWN_END	n/a	n/a	n/a	-999	11	[0, 0, 0]	n/a	FR1	1	R1060M
1301.374	2.484	666509	ORIENT	n/a	n/a	n/a	-999	11	[0, 0, 0]	n/a	FR1	1	R1060M
1303.858	2.417	667751	WORD	n/a	wordpools/wordpool_EN.txt	STEM	1	11	[0, 0, 0]	n/a	FR1	1	R1060M
1306.275	2.384	668959	WORD	n/a	wordpools/wordpool_EN.txt	MOON	2	11	[0, 0, 0]	n/a	FR1	1	R1060M
1308.659	2.584	670151	WORD	n/a	wordpools/wordpool_EN.txt	EGG	3	11	[0, 0, 0]	n/a	FR1	1	R1060M
1311.243	2.533	671443	WORD	n/a	wordpools/wordpool_EN.txt	TOAD	4	11	[0, 0, 0]	n/a	FR1	1	R1060M
1313.776	2.551	672710	WORD	n/a	wordpools/wordpool_EN.txt	LEAF	5	11	[0, 0, 0]	n/a	FR1	1	R1060M
1316.327	2.4	673985	WORD	n/a	wordpools/wordpool_EN.txt	HORSE	6	11	[0, 0, 0]	n/a	FR1	1	R1060M
1318.727	2.618	675185	WORD	n/a	wordpools/wordpool_EN.txt	CASH	7	11	[0, 0, 0]	n/a	FR1	1	R1060M
1321.345	2.5	676494	WORD	n/a	wordpools/wordpool_EN.txt	POLE	8	11	[0, 0, 0]	n/a	FR1	1	R1060M
1323.845	2.434	677744	WORD	n/a	wordpools/wordpool_EN.txt	CORD	9	11	[0, 0, 0]	n/a	FR1	1	R1060M
1326.279	2.617	678961	WORD	n/a	wordpools/wordpool_EN.txt	BOOK	10	11	[0, 0, 0]	n/a	FR1	1	R1060M
1328.896	2.534	680269	WORD	n/a	wordpools/wordpool_EN.txt	FUDGE	11	11	[0, 0, 0]	n/a	FR1	1	R1060M
1331.43	1.617	681536	WORD	n/a	wordpools/wordpool_EN.txt	SEED	12	11	[0, 0, 0]	n/a	FR1	1	R1060M
1333.047	0.001	682345	DISTRACT_START	n/a	n/a	n/a	-999	11	[0, 0, 0]	n/a	FR1	1	R1060M
1333.048	0.016	682345	START	n/a	n/a	n/a	-999	11	[-999, -999, -999]	n/a	FR1	1	R1060M
1333.064	2.633	682353	PROB	2.633	n/a	n/a	-999	11	[8, 9, 6]	23	FR1	1	R1060M
1335.697	3.518	683669	PROB	3.518	n/a	n/a	-999	11	[6, 8, 9]	23	FR1	1	R1060M
1339.215	2.351	685428	PROB	2.351	n/a	n/a	-999	11	[3, 6, 1]	10	FR1	1	R1060M
1341.566	2.416	686604	PROB	2.416	n/a	n/a	-999	11	[6, 9, 9]	24	FR1	1	R1060M
1343.982	1.8	687812	PROB	1.8	n/a	n/a	-999	11	[6, 1, 6]	13	FR1	1	R1060M
1345.782	2.584	688712	PROB	2.584	n/a	n/a	-999	11	[9, 9, 8]	26	FR1	1	R1060M
1348.366	2.884	690004	PROB	2.884	n/a	n/a	-999	11	[8, 9, 5]	22	FR1	1	R1060M
1351.25	4.303	691445	PROB	4.303	n/a	n/a	-999	11	[5, 1, 2]	8	FR1	1	R1060M
1355.553	0.016	693597	STOP	n/a	n/a	n/a	-999	11	[-999, -999, -999]	n/a	FR1	1	R1060M
1355.569	1.133	693605	DISTRACT_END	n/a	n/a	n/a	-999	11	[0, 0, 0]	n/a	FR1	1	R1060M
1356.702	0.91	694171	REC_START	n/a	n/a	n/a	-999	11	[0, 0, 0]	n/a	FR1	1	R1060M
1357.612	1.01	694626	REC_WORD	1.01	n/a	STEM	-999	11	[0, 0, 0]	n/a	FR1	1	R1060M
1358.622	1.456	695131	REC_WORD	1.456	n/a	EGG	-999	11	[0, 0, 0]	n/a	FR1	1	R1060M
1360.078	1.755	695859	REC_WORD	1.755	n/a	HORSE	-999	11	[0, 0, 0]	n/a	FR1	1	R1060M
1361.833	3.481	696737	REC_WORD	3.481	n/a	CASH	-999	11	[0, 0, 0]	n/a	FR1	1	R1060M
1365.314	6.774	698477	REC_WORD	6.774	n/a	BOOK	-999	11	[0, 0, 0]	n/a	FR1	1	R1060M
1372.088	4.753	701864	REC_WORD	4.753	n/a	TOAD	-999	11	[0, 0, 0]	n/a	FR1	1	R1060M
1376.841	9.875	704240	REC_WORD	9.875	n/a	FLOOD	-999	11	[0, 0, 0]	n/a	FR1	1	R1060M
1386.716	2.075	709178	REC_END	n/a	n/a	n/a	-999	11	[0, 0, 0]	n/a	FR1	1	R1060M
1388.791	0.0	710215	TRIAL	n/a	n/a	n/a	-999	12	[0, 0, 0]	n/a	FR1	1	R1060M
1388.791	10.428	710215	COUNTDOWN_START	n/a	n/a	n/a	-999	12	[0, 0, 0]	n/a	FR1	1	R1060M
1399.219	0.007	715429	COUNTDOWN_END	n/a	n/a	n/a	-999	12	[0, 0, 0]	n/a	FR1	1	R1060M
1399.226	2.634	715432	ORIENT	n/a	n/a	n/a	-999	12	[0, 0, 0]	n/a	FR1	1	R1060M
1401.86	2.601	716749	WORD	n/a	wordpools/wordpool_EN.txt	JUICE	1	12	[0, 0, 0]	n/a	FR1	1	R1060M
1404.461	2.417	718050	WORD	n/a	wordpools/wordpool_EN.txt	DIME	2	12	[0, 0, 0]	n/a	FR1	1	R1060M
1406.878	2.45	719258	WORD	n/a	wordpools/wordpool_EN.txt	BLUSH	3	12	[0, 0, 0]	n/a	FR1	1	R1060M
1409.328	2.384	720483	WORD	n/a	wordpools/wordpool_EN.txt	DITCH	4	12	[0, 0, 0]	n/a	FR1	1	R1060M
1411.712	2.501	721675	WORD	n/a	wordpools/wordpool_EN.txt	HOLE	5	12	[0, 0, 0]	n/a	FR1	1	R1060M
1414.213	2.567	722925	WORD	n/a	wordpools/wordpool_EN.txt	STOVE	6	12	[0, 0, 0]	n/a	FR1	1	R1060M
1416.78	2.534	724209	WORD	n/a	wordpools/wordpool_EN.txt	CAKE	7	12	[0, 0, 0]	n/a	FR1	1	R1060M
1419.314	2.433	725476	WORD	n/a	wordpools/wordpool_EN.txt	BATH	8	12	[0, 0, 0]	n/a	FR1	1	R1060M
1421.747	2.584	726692	WORD	n/a	wordpools/wordpool_EN.txt	GLOVE	9	12	[0, 0, 0]	n/a	FR1	1	R1060M
1424.331	2.484	727984	WORD	n/a	wordpools/wordpool_EN.txt	SOAP	10	12	[0, 0, 0]	n/a	FR1	1	R1060M
1426.815	2.484	729226	WORD	n/a	wordpools/wordpool_EN.txt	SOCK	11	12	[0, 0, 0]	n/a	FR1	1	R1060M
1429.299	1.617	730468	WORD	n/a	wordpools/wordpool_EN.txt	CHALK	12	12	[0, 0, 0]	n/a	FR1	1	R1060M
1430.916	0.001	731276	DISTRACT_START	n/a	n/a	n/a	-999	12	[0, 0, 0]	n/a	FR1	1	R1060M
1430.917	0.016	731277	START	n/a	n/a	n/a	-999	12	[-999, -999, -999]	n/a	FR1	1	R1060M
1430.933	3.884	731285	PROB	3.884	n/a	n/a	-999	12	[9, 8, 9]	26	FR1	1	R1060M
1434.817	1.768	733227	PROB	1.768	n/a	n/a	-999	12	[1, 9, 1]	11	FR1	1	R1060M
1436.585	2.182	734111	PROB	2.182	n/a	n/a	-999	12	[3, 4, 3]	10	FR1	1	R1060M
1438.767	1.934	735202	PROB	1.934	n/a	n/a	-999	12	[1, 7, 7]	15	FR1	1	R1060M
1440.701	2.434	736169	PROB	2.434	n/a	n/a	-999	12	[2, 7, 1]	10	FR1	1	R1060M
1443.135	8.001	737385	PROB	8.001	n/a	n/a	-999	12	[9, 5, 8]	22	FR1	1	R1060M
1451.136	0.017	741386	STOP	n/a	n/a	n/a	-999	12	[-999, -999, -999]	n/a	FR1	1	R1060M
1451.153	1.084	741394	DISTRACT_END	n/a	n/a	n/a	-999	12	[0, 0, 0]	n/a	FR1	1	R1060M
1452.237	1.116	741936	REC_START	n/a	n/a	n/a	-999	12	[0, 0, 0]	n/a	FR1	1	R1060M
1453.353	1.352	742494	REC_WORD	1.352	n/a	JUICE	-999	12	[0, 0, 0]	n/a	FR1	1	R1060M
1454.705	1.69	743170	REC_WORD	1.69	n/a	DIME	-999	12	[0, 0, 0]	n/a	FR1	1	R1060M
1456.395	1.981	744015	REC_WORD	1.981	n/a	SOCK	-999	12	[0, 0, 0]	n/a	FR1	1	R1060M
1458.376	6.255	745006	REC_WORD	6.255	n/a	HOLE	-999	12	[0, 0, 0]	n/a	FR1	1	R1060M
1464.631	11.571	748133	REC_WORD	11.571	n/a	DITCH	-999	12	[0, 0, 0]	n/a	FR1	1	R1060M
1476.202	6.046	753918	REC_WORD	6.046	n/a	FLOOD	-999	12	[0, 0, 0]	n/a	FR1	1	R1060M
1482.248	1.512	756941	REC_END	n/a	n/a	n/a	-999	12	[0, 0, 0]	n/a	FR1	1	R1060M
1483.76	0.0	757697	TRIAL	n/a	n/a	n/a	-999	13	[0, 0, 0]	n/a	FR1	1	R1060M
1483.76	10.428	757697	COUNTDOWN_START	n/a	n/a	n/a	-999	13	[0, 0, 0]	n/a	FR1	1	R1060M
1494.188	0.007	762911	COUNTDOWN_END	n/a	n/a	n/a	-999	13	[0, 0, 0]	n/a	FR1	1	R1060M
1494.195	2.417	762914	ORIENT	n/a	n/a	n/a	-999	13	[0, 0, 0]	n/a	FR1	1	R1060M
1496.612	2.417	764122	WORD	n/a	wordpools/wordpool_EN.txt	SEAT	1	13	[0, 0, 0]	n/a	FR1	1	R1060M
1499.029	2.451	765331	WORD	n/a	wordpools/wordpool_EN.txt	DOOR	2	13	[0, 0, 0]	n/a	FR1	1	R1060M
1501.48	2.567	766556	WORD	n/a	wordpools/wordpool_EN.txt	THUMB	3	13	[0, 0, 0]	n/a	FR1	1	R1060M
1504.047	2.617	767840	WORD	n/a	wordpools/wordpool_EN.txt	BROOM	4	13	[0, 0, 0]	n/a	FR1	1	R1060M
1506.664	2.4	769148	WORD	n/a	wordpools/wordpool_EN.txt	HAND	5	13	[0, 0, 0]	n/a	FR1	1	R1060M
1509.064	2.551	770348	WORD	n/a	wordpools/wordpool_EN.txt	CRANE	6	13	[0, 0, 0]	n/a	FR1	1	R1060M
1511.615	2.45	771624	WORD	n/a	wordpools/wordpool_EN.txt	TOOL	7	13	[0, 0, 0]	n/a	FR1	1	R1060M
1514.065	2.601	772848	WORD	n/a	wordpools/wordpool_EN.txt	HOUSE	8	13	[0, 0, 0]	n/a	FR1	1	R1060M
1516.666	2.617	774149	WORD	n/a	wordpools/wordpool_EN.txt	SHOE	9	13	[0, 0, 0]	n/a	FR1	1	R1060M
1519.283	2.384	775457	WORD	n/a	wordpools/wordpool_EN.txt	HORN	10	13	[0, 0, 0]	n/a	FR1	1	R1060M
1521.667	2.55	776649	WORD	n/a	wordpools/wordpool_EN.txt	LOCK	11	13	[0, 0, 0]	n/a	FR1	1	R1060M
1524.217	1.617	777924	WORD	n/a	wordpools/wordpool_EN.txt	FROG	12	13	[0, 0, 0]	n/a	FR1	1	R1060M
1525.834	0.001	778733	DISTRACT_START	n/a	n/a	n/a	-999	13	[0, 0, 0]	n/a	FR1	1	R1060M
1525.835	0.016	778733	START	n/a	n/a	n/a	-999	13	[-999, -999, -999]	n/a	FR1	1	R1060M
1525.851	4.284	778741	PROB	4.284	n/a	n/a	-999	13	[5, 5, 9]	19	FR1	1	R1060M
1530.135	3.067	780883	PROB	3.067	n/a	n/a	-999	13	[2, 1, 2]	5	FR1	1	R1060M
1533.202	2.634	782416	PROB	2.634	n/a	n/a	-999	13	[1, 6, 2]	9	FR1	1	R1060M
1535.836	2.067	783733	PROB	2.067	n/a	n/a	-999	13	[1, 3, 5]	9	FR1	1	R1060M
1537.903	2.051	784767	PROB	2.051	n/a	n/a	-999	13	[1, 8, 5]	14	FR1	1	R1060M
1539.954	2.3	785792	PROB	2.3	n/a	n/a	-999	13	[2, 4, 9]	15	FR1	1	R1060M
1542.254	1.951	786942	PROB	1.951	n/a	n/a	-999	13	[7, 3, 3]	13	FR1	1	R1060M
1544.205	2.699	787918	PROB	2.699	n/a	n/a	-999	13	[4, 4, 7]	15	FR1	1	R1060M
1546.904	0.018	789267	STOP	n/a	n/a	n/a	-999	13	[-999, -999, -999]	n/a	FR1	1	R1060M
1546.922	1.151	789276	DISTRACT_END	n/a	n/a	n/a	-999	13	[0, 0, 0]	n/a	FR1	1	R1060M
1548.073	0.758	789852	REC_START	n/a	n/a	n/a	-999	13	[0, 0, 0]	n/a	FR1	1	R1060M
1548.831	1.25	790231	REC_WORD	1.25	n/a	SEAT	-999	13	[0, 0, 0]	n/a	FR1	1	R1060M
1550.081	1.52	790855	REC_WORD	1.52	n/a	DOOR	-999	13	[0, 0, 0]	n/a	FR1	1	R1060M
1551.601	2.074	791615	REC_WORD	2.074	n/a	CRANE	-999	13	[0, 0, 0]	n/a	FR1	1	R1060M
1553.675	2.274	792652	REC_WORD	2.274	n/a	LOCK	-999	13	[0, 0, 0]	n/a	FR1	1	R1060M
1555.949	6.043	793789	REC_WORD	6.043	n/a	HOUSE	-999	13	[0, 0, 0]	n/a	FR1	1	R1060M
1561.992	1.008	796811	REC_WORD_VV	1.008	n/a	<>	-999	13	[0, 0, 0]	n/a	FR1	1	R1060M
1563.0	7.788	797315	REC_WORD	7.788	n/a	FLOOD	-999	13	[0, 0, 0]	n/a	FR1	1	R1060M
1570.788	7.295	801208	REC_WORD	7.295	n/a	GREAT	-999	13	[0, 0, 0]	n/a	FR1	1	R1060M
1578.083	4.079	804856	REC_END	n/a	n/a	n/a	-999	13	[0, 0, 0]	n/a	FR1	1	R1060M
1582.162	0.0	806895	COUNTDOWN_START	n/a	n/a	n/a	-999	14	[0, 0, 0]	n/a	FR1	1	R1060M
1582.162	10.428	806895	TRIAL	n/a	n/a	n/a	-999	14	[0, 0, 0]	n/a	FR1	1	R1060M
1592.59	0.007	812109	COUNTDOWN_END	n/a	n/a	n/a	-999	14	[0, 0, 0]	n/a	FR1	1	R1060M
1592.597	2.484	812112	ORIENT	n/a	n/a	n/a	-999	14	[0, 0, 0]	n/a	FR1	1	R1060M
1595.081	2.534	813354	WORD	n/a	wordpools/wordpool_EN.txt	LEG	1	14	[0, 0, 0]	n/a	FR1	1	R1060M
1597.615	2.417	814621	WORD	n/a	wordpools/wordpool_EN.txt	SNAKE	2	14	[0, 0, 0]	n/a	FR1	1	R1060M
1600.032	2.535	815830	WORD	n/a	wordpools/wordpool_EN.txt	NOSE	3	14	[0, 0, 0]	n/a	FR1	1	R1060M
1602.567	2.466	817097	WORD	n/a	wordpools/wordpool_EN.txt	MOOSE	4	14	[0, 0, 0]	n/a	FR1	1	R1060M
1605.033	2.552	818330	WORD	n/a	wordpools/wordpool_EN.txt	GOAT	5	14	[0, 0, 0]	n/a	FR1	1	R1060M
1607.585	2.465	819606	WORD	n/a	wordpools/wordpool_EN.txt	MILK	6	14	[0, 0, 0]	n/a	FR1	1	R1060M
1610.05	2.451	820838	WORD	n/a	wordpools/wordpool_EN.txt	CLIFF	7	14	[0, 0, 0]	n/a	FR1	1	R1060M
1612.501	2.384	822064	WORD	n/a	wordpools/wordpool_EN.txt	MOUSE	8	14	[0, 0, 0]	n/a	FR1	1	R1060M
1614.885	2.584	823256	WORD	n/a	wordpools/wordpool_EN.txt	GRASS	9	14	[0, 0, 0]	n/a	FR1	1	R1060M
1617.469	2.567	824548	WORD	n/a	wordpools/wordpool_EN.txt	STOOL	10	14	[0, 0, 0]	n/a	FR1	1	R1060M
1620.036	2.417	825831	WORD	n/a	wordpools/wordpool_EN.txt	CALF	11	14	[0, 0, 0]	n/a	FR1	1	R1060M
1622.453	1.617	827039	WORD	n/a	wordpools/wordpool_EN.txt	WEB	12	14	[0, 0, 0]	n/a	FR1	1	R1060M
1624.07	0.001	827848	DISTRACT_START	n/a	n/a	n/a	-999	14	[0, 0, 0]	n/a	FR1	1	R1060M
1624.071	0.016	827848	START	n/a	n/a	n/a	-999	14	[-999, -999, -999]	n/a	FR1	1	R1060M
1624.087	2.934	827856	PROB	2.934	n/a	n/a	-999	14	[9, 9, 8]	26	FR1	1	R1060M
1627.021	2.75	829323	PROB	2.75	n/a	n/a	-999	14	[8, 2, 7]	17	FR1	1	R1060M
1629.771	2.084	830698	PROB	2.084	n/a	n/a	-999	14	[3, 2, 4]	9	FR1	1	R1060M
1631.855	2.6	831740	PROB	2.6	n/a	n/a	-999	14	[9, 9, 9]	26	FR1	1	R1060M
1634.455	6.585	833040	PROB	6.585	n/a	n/a	-999	14	[6, 6, 7]	19	FR1	1	R1060M
1641.04	2.367	836332	PROB	2.367	n/a	n/a	-999	14	[2, 8, 6]	16	FR1	1	R1060M
1643.407	2.513	837516	PROB	2.513	n/a	n/a	-999	14	[1, 7, 7]	15	FR1	1	R1060M
1645.92	0.004	838772	STOP	n/a	n/a	n/a	-999	14	[-999, -999, -999]	n/a	FR1	1	R1060M
1645.924	1.151	838774	DISTRACT_END	n/a	n/a	n/a	-999	14	[0, 0, 0]	n/a	FR1	1	R1060M
1647.075	2.287	839350	REC_START	n/a	n/a	n/a	-999	14	[0, 0, 0]	n/a	FR1	1	R1060M
1649.362	1.408	840493	REC_WORD	1.408	n/a	CRANE	-999	14	[0, 0, 0]	n/a	FR1	1	R1060M
1650.77	2.958	841197	REC_WORD	2.958	n/a	MOOSE	-999	14	[0, 0, 0]	n/a	FR1	1	R1060M
1653.728	3.516	842676	REC_WORD	3.516	n/a	LEG	-999	14	[0, 0, 0]	n/a	FR1	1	R1060M
1657.244	4.422	844434	REC_WORD	4.422	n/a	STOOL	-999	14	[0, 0, 0]	n/a	FR1	1	R1060M
1661.666	2.652	846645	REC_WORD	2.652	n/a	HOUSE	-999	14	[0, 0, 0]	n/a	FR1	1	R1060M
1664.318	12.767	847971	REC_WORD	12.767	n/a	GOAT	-999	14	[0, 0, 0]	n/a	FR1	1	R1060M
1677.085	3.013	854354	REC_END	n/a	n/a	n/a	-999	14	[0, 0, 0]	n/a	FR1	1	R1060M
1680.098	0.0	855860	TRIAL	n/a	n/a	n/a	-999	15	[0, 0, 0]	n/a	FR1	1	R1060M
1680.098	10.428	855860	COUNTDOWN_START	n/a	n/a	n/a	-999	15	[0, 0, 0]	n/a	FR1	1	R1060M
1690.526	0.008	861074	COUNTDOWN_END	n/a	n/a	n/a	-999	15	[0, 0, 0]	n/a	FR1	1	R1060M
1690.534	2.466	861078	ORIENT	n/a	n/a	n/a	-999	15	[0, 0, 0]	n/a	FR1	1	R1060M
1693.0	2.585	862311	WORD	n/a	wordpools/wordpool_EN.txt	HOSE	1	15	[0, 0, 0]	n/a	FR1	1	R1060M
1695.585	2.433	863603	WORD	n/a	wordpools/wordpool_EN.txt	TRASH	2	15	[0, 0, 0]	n/a	FR1	1	R1060M
1698.018	2.5	864820	WORD	n/a	wordpools/wordpool_EN.txt	TRUCK	3	15	[0, 0, 0]	n/a	FR1	1	R1060M
1700.518	2.484	866070	WORD	n/a	wordpools/wordpool_EN.txt	SOUP	4	15	[0, 0, 0]	n/a	FR1	1	R1060M
1703.002	2.451	867312	WORD	n/a	wordpools/wordpool_EN.txt	DRUM	5	15	[0, 0, 0]	n/a	FR1	1	R1060M
1705.453	2.467	868537	WORD	n/a	wordpools/wordpool_EN.txt	SUN	6	15	[0, 0, 0]	n/a	FR1	1	R1060M
1707.92	2.434	869771	WORD	n/a	wordpools/wordpool_EN.txt	PLATE	7	15	[0, 0, 0]	n/a	FR1	1	R1060M
1710.354	2.583	870988	WORD	n/a	wordpools/wordpool_EN.txt	PIG	8	15	[0, 0, 0]	n/a	FR1	1	R1060M
1712.937	2.368	872279	WORD	n/a	wordpools/wordpool_EN.txt	SALT	9	15	[0, 0, 0]	n/a	FR1	1	R1060M
1715.305	2.517	873463	WORD	n/a	wordpools/wordpool_EN.txt	STONE	10	15	[0, 0, 0]	n/a	FR1	1	R1060M
1717.822	2.45	874721	WORD	n/a	wordpools/wordpool_EN.txt	GRAPE	11	15	[0, 0, 0]	n/a	FR1	1	R1060M
1720.272	1.617	875946	WORD	n/a	wordpools/wordpool_EN.txt	ELF	12	15	[0, 0, 0]	n/a	FR1	1	R1060M
1721.889	0.001	876755	DISTRACT_START	n/a	n/a	n/a	-999	15	[0, 0, 0]	n/a	FR1	1	R1060M
1721.89	0.016	876755	START	n/a	n/a	n/a	-999	15	[-999, -999, -999]	n/a	FR1	1	R1060M
1721.906	2.784	876763	PROB	2.784	n/a	n/a	-999	15	[9, 3, 1]	13	FR1	1	R1060M
1724.69	2.717	878155	PROB	2.717	n/a	n/a	-999	15	[3, 1, 2]	6	FR1	1	R1060M
1727.407	2.634	879514	PROB	2.634	n/a	n/a	-999	15	[4, 3, 6]	16	FR1	1	R1060M
1730.041	3.217	880830	PROB	3.217	n/a	n/a	-999	15	[3, 6, 9]	18	FR1	1	R1060M
1733.258	2.184	882439	PROB	2.184	n/a	n/a	-999	15	[1, 7, 3]	11	FR1	1	R1060M
1735.442	2.184	883531	PROB	2.184	n/a	n/a	-999	15	[4, 3, 1]	8	FR1	1	R1060M
1737.626	2.918	884623	PROB	2.918	n/a	n/a	-999	15	[4, 7, 5]	16	FR1	1	R1060M
1740.544	2.552	886082	PROB	2.552	n/a	n/a	-999	15	[2, 7, 3]	12	FR1	1	R1060M
1743.096	0.014	887358	STOP	n/a	n/a	n/a	-999	15	[-999, -999, -999]	n/a	FR1	1	R1060M
1743.11	1.084	887365	DISTRACT_END	n/a	n/a	n/a	-999	15	[0, 0, 0]	n/a	FR1	1	R1060M
1744.194	25.492	887907	REC_START	n/a	n/a	n/a	-999	15	[0, 0, 0]	n/a	FR1	1	R1060M
1769.686	4.518	900652	REC_WORD	4.518	n/a	TRUCK	-999	15	[0, 0, 0]	n/a	FR1	1	R1060M
1774.204	1.612	902911	REC_END	n/a	n/a	n/a	-999	15	[0, 0, 0]	n/a	FR1	1	R1060M
1775.816	0.0	903717	TRIAL	n/a	n/a	n/a	-999	16	[0, 0, 0]	n/a	FR1	1	R1060M
1775.816	10.428	903717	COUNTDOWN_START	n/a	n/a	n/a	-999	16	[0, 0, 0]	n/a	FR1	1	R1060M
1786.244	0.008	908930	COUNTDOWN_END	n/a	n/a	n/a	-999	16	[0, 0, 0]	n/a	FR1	1	R1060M
1786.252	2.6	908934	ORIENT	n/a	n/a	n/a	-999	16	[0, 0, 0]	n/a	FR1	1	R1060M
1788.852	2.601	910234	WORD	n/a	wordpools/wordpool_EN.txt	KEY	1	16	[0, 0, 0]	n/a	FR1	1	R1060M
1791.453	2.483	911535	WORD	n/a	wordpools/wordpool_EN.txt	GOLD	2	16	[0, 0, 0]	n/a	FR1	1	R1060M
1793.936	2.418	912776	WORD	n/a	wordpools/wordpool_EN.txt	FILM	3	16	[0, 0, 0]	n/a	FR1	1	R1060M
1796.354	2.533	913985	WORD	n/a	wordpools/wordpool_EN.txt	BOMB	4	16	[0, 0, 0]	n/a	FR1	1	R1060M
1798.887	2.568	915252	WORD	n/a	wordpools/wordpool_EN.txt	PRINCE	5	16	[0, 0, 0]	n/a	FR1	1	R1060M
1801.455	2.617	916535	WORD	n/a	wordpools/wordpool_EN.txt	EAR	6	16	[0, 0, 0]	n/a	FR1	1	R1060M
1804.072	2.534	917844	WORD	n/a	wordpools/wordpool_EN.txt	DART	7	16	[0, 0, 0]	n/a	FR1	1	R1060M
1806.606	2.417	919111	WORD	n/a	wordpools/wordpool_EN.txt	BALL	8	16	[0, 0, 0]	n/a	FR1	1	R1060M
1809.023	2.583	920319	WORD	n/a	wordpools/wordpool_EN.txt	PLANE	9	16	[0, 0, 0]	n/a	FR1	1	R1060M
1811.606	2.384	921611	WORD	n/a	wordpools/wordpool_EN.txt	SPARK	10	16	[0, 0, 0]	n/a	FR1	1	R1060M
1813.99	2.602	922803	WORD	n/a	wordpools/wordpool_EN.txt	COIN	11	16	[0, 0, 0]	n/a	FR1	1	R1060M
1816.592	1.616	924104	WORD	n/a	wordpools/wordpool_EN.txt	SPOON	12	16	[0, 0, 0]	n/a	FR1	1	R1060M
1818.208	0.001	924912	DISTRACT_START	n/a	n/a	n/a	-999	16	[0, 0, 0]	n/a	FR1	1	R1060M
1818.209	0.015	924912	START	n/a	n/a	n/a	-999	16	[-999, -999, -999]	n/a	FR1	1	R1060M
1818.224	3.018	924920	PROB	3.018	n/a	n/a	-999	16	[6, 9, 8]	23	FR1	1	R1060M
1821.242	4.2	926428	PROB	4.2	n/a	n/a	-999	16	[7, 9, 4]	19	FR1	1	R1060M
1825.442	3.768	928528	PROB	3.768	n/a	n/a	-999	16	[8, 3, 9]	20	FR1	1	R1060M
1829.21	3.717	930412	PROB	3.717	n/a	n/a	-999	16	[9, 1, 7]	17	FR1	1	R1060M
1832.927	1.635	932271	PROB	1.635	n/a	n/a	-999	16	[5, 5, 1]	11	FR1	1	R1060M
1834.562	2.583	933088	PROB	2.583	n/a	n/a	-999	16	[7, 1, 6]	14	FR1	1	R1060M
1837.145	4.039	934379	PROB	4.039	n/a	n/a	-999	16	[8, 4, 3]	14	FR1	1	R1060M
1841.184	0.012	936399	STOP	n/a	n/a	n/a	-999	16	[-999, -999, -999]	n/a	FR1	1	R1060M
1841.196	1.15	936405	DISTRACT_END	n/a	n/a	n/a	-999	16	[0, 0, 0]	n/a	FR1	1	R1060M
1842.346	30.0	936980	REC_START	n/a	n/a	n/a	-999	16	[0, 0, 0]	n/a	FR1	1	R1060M
1872.346	0.011	951979	REC_WORD_VV	0.011	n/a	<>	-999	16	[0, 0, 0]	n/a	FR1	1	R1060M
1872.357	2.495	951984	REC_END	n/a	n/a	n/a	-999	16	[0, 0, 0]	n/a	FR1	1	R1060M
1874.852	0.0	953232	TRIAL	n/a	n/a	n/a	-999	17	[0, 0, 0]	n/a	FR1	1	R1060M
1874.852	10.428	953232	COUNTDOWN_START	n/a	n/a	n/a	-999	17	[0, 0, 0]	n/a	FR1	1	R1060M
1885.28	0.008	958446	COUNTDOWN_END	n/a	n/a	n/a	-999	17	[0, 0, 0]	n/a	FR1	1	R1060M
1885.288	2.417	958450	ORIENT	n/a	n/a	n/a	-999	17	[0, 0, 0]	n/a	FR1	1	R1060M
1887.705	2.617	959658	WORD	n/a	wordpools/wordpool_EN.txt	CROW	1	17	[0, 0, 0]	n/a	FR1	1	R1060M
1890.322	2.384	960966	WORD	n/a	wordpools/wordpool_EN.txt	ROOT	2	17	[0, 0, 0]	n/a	FR1	1	R1060M
1892.706	2.483	962158	WORD	n/a	wordpools/wordpool_EN.txt	PLANT	3	17	[0, 0, 0]	n/a	FR1	1	R1060M
1895.189	2.484	963400	WORD	n/a	wordpools/wordpool_EN.txt	CHIEF	4	17	[0, 0, 0]	n/a	FR1	1	R1060M
1897.673	2.584	964642	WORD	n/a	wordpools/wordpool_EN.txt	TEETH	5	17	[0, 0, 0]	n/a	FR1	1	R1060M
1900.257	2.517	965934	WORD	n/a	wordpools/wordpool_EN.txt	SHIELD	6	17	[0, 0, 0]	n/a	FR1	1	R1060M
1902.774	2.567	967192	WORD	n/a	wordpools/wordpool_EN.txt	CAVE	7	17	[0, 0, 0]	n/a	FR1	1	R1060M
1905.341	2.534	968476	WORD	n/a	wordpools/wordpool_EN.txt	WEED	8	17	[0, 0, 0]	n/a	FR1	1	R1060M
1907.875	2.384	969743	WORD	n/a	wordpools/wordpool_EN.txt	BRUSH	9	17	[0, 0, 0]	n/a	FR1	1	R1060M
1910.259	2.384	970934	WORD	n/a	wordpools/wordpool_EN.txt	PASTE	10	17	[0, 0, 0]	n/a	FR1	1	R1060M
1912.643	2.567	972126	WORD	n/a	wordpools/wordpool_EN.txt	SEAL	11	17	[0, 0, 0]	n/a	FR1	1	R1060M
1915.21	1.617	973410	WORD	n/a	wordpools/wordpool_EN.txt	FOAM	12	17	[0, 0, 0]	n/a	FR1	1	R1060M
1916.827	0.001	974218	DISTRACT_START	n/a	n/a	n/a	-999	17	[0, 0, 0]	n/a	FR1	1	R1060M
1916.828	0.016	974219	START	n/a	n/a	n/a	-999	17	[-999, -999, -999]	n/a	FR1	1	R1060M
1916.844	3.8	974227	PROB	3.8	n/a	n/a	-999	17	[6, 8, 7]	21	FR1	1	R1060M
1920.644	4.751	976127	PROB	4.751	n/a	n/a	-999	17	[9, 2, 5]	13	FR1	1	R1060M
1925.395	1.884	978502	PROB	1.884	n/a	n/a	-999	17	[4, 4, 5]	13	FR1	1	R1060M
1927.279	2.667	979444	PROB	2.667	n/a	n/a	-999	17	[2, 8, 5]	15	FR1	1	R1060M
1929.946	2.251	980777	PROB	2.251	n/a	n/a	-999	17	[9, 1, 6]	16	FR1	1	R1060M
1932.197	4.635	981903	PROB	4.635	n/a	n/a	-999	17	[2, 7, 9]	18	FR1	1	R1060M
1936.832	0.016	984220	STOP	n/a	n/a	n/a	-999	17	[-999, -999, -999]	n/a	FR1	1	R1060M
1936.848	1.218	984228	DISTRACT_END	n/a	n/a	n/a	-999	17	[0, 0, 0]	n/a	FR1	1	R1060M
1938.066	1.316	984837	REC_START	n/a	n/a	n/a	-999	17	[0, 0, 0]	n/a	FR1	1	R1060M
1939.382	2.759	985495	REC_WORD	2.759	n/a	CROW	-999	17	[0, 0, 0]	n/a	FR1	1	R1060M
1942.141	3.433	986875	REC_WORD	3.433	n/a	WEED	-999	17	[0, 0, 0]	n/a	FR1	1	R1060M
1945.574	4.343	988591	REC_WORD	4.343	n/a	SHIELD	-999	17	[0, 0, 0]	n/a	FR1	1	R1060M
1949.917	18.158	990762	REC_WORD	18.158	n/a	PLANT	-999	17	[0, 0, 0]	n/a	FR1	1	R1060M
1968.075	1.579	999841	REC_END	n/a	n/a	n/a	-999	17	[0, 0, 0]	n/a	FR1	1	R1060M
1969.654	0.0	1000630	TRIAL	n/a	n/a	n/a	-999	18	[0, 0, 0]	n/a	FR1	1	R1060M
1969.654	10.428	1000630	COUNTDOWN_START	n/a	n/a	n/a	-999	18	[0, 0, 0]	n/a	FR1	1	R1060M
1980.082	0.007	1005844	COUNTDOWN_END	n/a	n/a	n/a	-999	18	[0, 0, 0]	n/a	FR1	1	R1060M
1980.089	2.534	1005848	ORIENT	n/a	n/a	n/a	-999	18	[0, 0, 0]	n/a	FR1	1	R1060M
1982.623	2.534	1007114	WORD	n/a	wordpools/wordpool_EN.txt	JEEP	1	18	[0, 0, 0]	n/a	FR1	1	R1060M
1985.157	2.517	1008381	WORD	n/a	wordpools/wordpool_EN.txt	MOUTH	2	18	[0, 0, 0]	n/a	FR1	1	R1060M
1987.674	2.384	1009640	WORD	n/a	wordpools/wordpool_EN.txt	OAK	3	18	[0, 0, 0]	n/a	FR1	1	R1060M
1990.058	2.468	1010832	WORD	n/a	wordpools/wordpool_EN.txt	CUBE	4	18	[0, 0, 0]	n/a	FR1	1	R1060M
1992.526	2.583	1012066	WORD	n/a	wordpools/wordpool_EN.txt	RAKE	5	18	[0, 0, 0]	n/a	FR1	1	R1060M
1995.109	2.617	1013357	WORD	n/a	wordpools/wordpool_EN.txt	TENT	6	18	[0, 0, 0]	n/a	FR1	1	R1060M
1997.726	2.467	1014666	WORD	n/a	wordpools/wordpool_EN.txt	PET	7	18	[0, 0, 0]	n/a	FR1	1	R1060M
2000.193	2.467	1015899	WORD	n/a	wordpools/wordpool_EN.txt	TRAIN	8	18	[0, 0, 0]	n/a	FR1	1	R1060M
2002.66	2.534	1017132	WORD	n/a	wordpools/wordpool_EN.txt	HAT	9	18	[0, 0, 0]	n/a	FR1	1	R1060M
2005.194	2.434	1018399	WORD	n/a	wordpools/wordpool_EN.txt	CAPE	10	18	[0, 0, 0]	n/a	FR1	1	R1060M
2007.628	2.617	1019616	WORD	n/a	wordpools/wordpool_EN.txt	CAT	11	18	[0, 0, 0]	n/a	FR1	1	R1060M
2010.245	1.617	1020925	WORD	n/a	wordpools/wordpool_EN.txt	COW	12	18	[0, 0, 0]	n/a	FR1	1	R1060M
2011.862	0.001	1021733	DISTRACT_START	n/a	n/a	n/a	-999	18	[0, 0, 0]	n/a	FR1	1	R1060M
2011.863	0.016	1021734	START	n/a	n/a	n/a	-999	18	[-999, -999, -999]	n/a	FR1	1	R1060M
2011.879	4.167	1021742	PROB	4.167	n/a	n/a	-999	18	[4, 3, 7]	14	FR1	1	R1060M
2016.046	4.018	1023825	PROB	4.018	n/a	n/a	-999	18	[8, 4, 9]	21	FR1	1	R1060M
2020.064	3.8	1025834	PROB	3.8	n/a	n/a	-999	18	[6, 9, 9]	24	FR1	1	R1060M
2023.864	9.689	1027734	PROB	9.689	n/a	n/a	-999	18	[4, 3, 9]	14	FR1	1	R1060M
2033.553	0.014	1032578	STOP	n/a	n/a	n/a	-999	18	[-999, -999, -999]	n/a	FR1	1	R1060M
2033.567	1.183	1032585	DISTRACT_END	n/a	n/a	n/a	-999	18	[0, 0, 0]	n/a	FR1	1	R1060M
2034.75	1.635	1033176	REC_START	n/a	n/a	n/a	-999	18	[0, 0, 0]	n/a	FR1	1	R1060M
2036.385	2.39	1033994	REC_WORD	2.39	n/a	OAK	-999	18	[0, 0, 0]	n/a	FR1	1	R1060M
2038.775	3.23	1035189	REC_WORD	3.23	n/a	JEEP	-999	18	[0, 0, 0]	n/a	FR1	1	R1060M
2042.005	2.4	1036804	REC_WORD	2.4	n/a	CRANE	-999	18	[0, 0, 0]	n/a	FR1	1	R1060M
2044.405	2.073	1038004	REC_WORD	2.073	n/a	COW	-999	18	[0, 0, 0]	n/a	FR1	1	R1060M
2046.478	18.286	1039040	REC_WORD	18.286	n/a	SHEEP	-999	18	[0, 0, 0]	n/a	FR1	1	R1060M
2064.764	2.292	1048183	REC_END	n/a	n/a	n/a	-999	18	[0, 0, 0]	n/a	FR1	1	R1060M
2067.056	0.001	1049329	COUNTDOWN_START	n/a	n/a	n/a	-999	19	[0, 0, 0]	n/a	FR1	1	R1060M
2067.057	10.427	1049329	TRIAL	n/a	n/a	n/a	-999	19	[0, 0, 0]	n/a	FR1	1	R1060M
2077.484	0.008	1054542	COUNTDOWN_END	n/a	n/a	n/a	-999	19	[0, 0, 0]	n/a	FR1	1	R1060M
2077.492	2.5	1054546	ORIENT	n/a	n/a	n/a	-999	19	[0, 0, 0]	n/a	FR1	1	R1060M
2079.992	2.617	1055796	WORD	n/a	wordpools/wordpool_EN.txt	SHIRT	1	19	[0, 0, 0]	n/a	FR1	1	R1060M
2082.609	2.517	1057105	WORD	n/a	wordpools/wordpool_EN.txt	FUR	2	19	[0, 0, 0]	n/a	FR1	1	R1060M
2085.126	2.484	1058363	WORD	n/a	wordpools/wordpool_EN.txt	RIB	3	19	[0, 0, 0]	n/a	FR1	1	R1060M
2087.61	2.384	1059605	WORD	n/a	wordpools/wordpool_EN.txt	POOL	4	19	[0, 0, 0]	n/a	FR1	1	R1060M
2089.994	2.484	1060797	WORD	n/a	wordpools/wordpool_EN.txt	SWORD	5	19	[0, 0, 0]	n/a	FR1	1	R1060M
2092.478	2.384	1062039	WORD	n/a	wordpools/wordpool_EN.txt	ARM	6	19	[0, 0, 0]	n/a	FR1	1	R1060M
2094.862	2.433	1063231	WORD	n/a	wordpools/wordpool_EN.txt	FAN	7	19	[0, 0, 0]	n/a	FR1	1	R1060M
2097.295	2.551	1064447	WORD	n/a	wordpools/wordpool_EN.txt	BOY	8	19	[0, 0, 0]	n/a	FR1	1	R1060M
2099.846	2.417	1065723	WORD	n/a	wordpools/wordpool_EN.txt	PURSE	9	19	[0, 0, 0]	n/a	FR1	1	R1060M
2102.263	2.55	1066931	WORD	n/a	wordpools/wordpool_EN.txt	ROPE	10	19	[0, 0, 0]	n/a	FR1	1	R1060M
2104.813	2.468	1068206	WORD	n/a	wordpools/wordpool_EN.txt	BUSH	11	19	[0, 0, 0]	n/a	FR1	1	R1060M
2107.281	1.617	1069440	WORD	n/a	wordpools/wordpool_EN.txt	FOOT	12	19	[0, 0, 0]	n/a	FR1	1	R1060M
2108.898	0.001	1070248	DISTRACT_START	n/a	n/a	n/a	-999	19	[0, 0, 0]	n/a	FR1	1	R1060M
2108.899	0.015	1070249	START	n/a	n/a	n/a	-999	19	[-999, -999, -999]	n/a	FR1	1	R1060M
2108.914	4.051	1070256	PROB	4.051	n/a	n/a	-999	19	[7, 4, 6]	17	FR1	1	R1060M
2112.965	8.352	1072282	PROB	8.352	n/a	n/a	-999	19	[6, 7, 6]	19	FR1	1	R1060M
2121.317	1.717	1076458	PROB	1.717	n/a	n/a	-999	19	[1, 3, 5]	9	FR1	1	R1060M
2123.034	4.234	1077316	PROB	4.234	n/a	n/a	-999	19	[6, 7, 7]	20	FR1	1	R1060M
2127.268	2.604	1079433	PROB	2.604	n/a	n/a	-999	19	[6, 3, 3]	12	FR1	1	R1060M
2129.872	0.013	1080735	STOP	n/a	n/a	n/a	-999	19	[-999, -999, -999]	n/a	FR1	1	R1060M
2129.885	1.118	1080741	DISTRACT_END	n/a	n/a	n/a	-999	19	[0, 0, 0]	n/a	FR1	1	R1060M
2131.003	1.232	1081300	REC_START	n/a	n/a	n/a	-999	19	[0, 0, 0]	n/a	FR1	1	R1060M
2132.235	1.979	1081916	REC_WORD	1.979	n/a	SHIRT	-999	19	[0, 0, 0]	n/a	FR1	1	R1060M
2134.214	2.164	1082906	REC_WORD	2.164	n/a	FUR	-999	19	[0, 0, 0]	n/a	FR1	1	R1060M
2136.378	3.712	1083988	REC_WORD	3.712	n/a	BOY	-999	19	[0, 0, 0]	n/a	FR1	1	R1060M
2140.09	20.923	1085844	REC_WORD	20.923	n/a	POOL	-999	19	[0, 0, 0]	n/a	FR1	1	R1060M
2161.013	1.678	1096304	REC_END	n/a	n/a	n/a	-999	19	[0, 0, 0]	n/a	FR1	1	R1060M
2162.691	0.001	1097143	COUNTDOWN_START	n/a	n/a	n/a	-999	20	[0, 0, 0]	n/a	FR1	1	R1060M
2162.692	10.427	1097144	TRIAL	n/a	n/a	n/a	-999	20	[0, 0, 0]	n/a	FR1	1	R1060M
2173.119	0.008	1102357	COUNTDOWN_END	n/a	n/a	n/a	-999	20	[0, 0, 0]	n/a	FR1	1	R1060M
2173.127	2.55	1102361	ORIENT	n/a	n/a	n/a	-999	20	[0, 0, 0]	n/a	FR1	1	R1060M
2175.677	2.551	1103636	WORD	n/a	wordpools/wordpool_EN.txt	JAR	1	20	[0, 0, 0]	n/a	FR1	1	R1060M
2178.228	2.567	1104911	WORD	n/a	wordpools/wordpool_EN.txt	STRAW	2	20	[0, 0, 0]	n/a	FR1	1	R1060M
2180.795	2.55	1106195	WORD	n/a	wordpools/wordpool_EN.txt	CHIN	3	20	[0, 0, 0]	n/a	FR1	1	R1060M
2183.345	2.418	1107470	WORD	n/a	wordpools/wordpool_EN.txt	BEAK	4	20	[0, 0, 0]	n/a	FR1	1	R1060M
2185.763	2.383	1108679	WORD	n/a	wordpools/wordpool_EN.txt	FACE	5	20	[0, 0, 0]	n/a	FR1	1	R1060M
2188.146	2.435	1109870	WORD	n/a	wordpools/wordpool_EN.txt	DOLL	6	20	[0, 0, 0]	n/a	FR1	1	R1060M
2190.581	2.383	1111088	WORD	n/a	wordpools/wordpool_EN.txt	YARD	7	20	[0, 0, 0]	n/a	FR1	1	R1060M
2192.964	2.585	1112279	WORD	n/a	wordpools/wordpool_EN.txt	CHEEK	8	20	[0, 0, 0]	n/a	FR1	1	R1060M
2195.549	2.383	1113572	WORD	n/a	wordpools/wordpool_EN.txt	TEA	9	20	[0, 0, 0]	n/a	FR1	1	R1060M
2197.932	2.4	1114763	WORD	n/a	wordpools/wordpool_EN.txt	SINK	10	20	[0, 0, 0]	n/a	FR1	1	R1060M
2200.332	2.551	1115963	WORD	n/a	wordpools/wordpool_EN.txt	CHAIR	11	20	[0, 0, 0]	n/a	FR1	1	R1060M
2202.883	1.617	1117238	WORD	n/a	wordpools/wordpool_EN.txt	BAG	12	20	[0, 0, 0]	n/a	FR1	1	R1060M
2204.5	0.0	1118047	DISTRACT_START	n/a	n/a	n/a	-999	20	[0, 0, 0]	n/a	FR1	1	R1060M
2204.5	0.016	1118047	START	n/a	n/a	n/a	-999	20	[-999, -999, -999]	n/a	FR1	1	R1060M
2204.516	2.867	1118055	PROB	2.867	n/a	n/a	-999	20	[5, 3, 7]	15	FR1	1	R1060M
2207.383	1.951	1119488	PROB	1.951	n/a	n/a	-999	20	[9, 7, 1]	14	FR1	1	R1060M
2209.334	2.75	1120464	PROB	2.75	n/a	n/a	-999	20	[7, 9, 8]	24	FR1	1	R1060M
2212.084	2.884	1121839	PROB	2.884	n/a	n/a	-999	20	[5, 7, 5]	17	FR1	1	R1060M
2214.968	2.134	1123280	PROB	2.134	n/a	n/a	-999	20	[5, 1, 3]	9	FR1	1	R1060M
2217.102	3.284	1124347	PROB	3.284	n/a	n/a	-999	20	[7, 4, 3]	14	FR1	1	R1060M
2220.386	2.334	1125989	PROB	2.334	n/a	n/a	-999	20	[8, 5, 3]	16	FR1	1	R1060M
2222.72	2.36	1127156	PROB	2.36	n/a	n/a	-999	20	[9, 5, 2]	16	FR1	1	R1060M
2225.08	0.007	1128336	STOP	n/a	n/a	n/a	-999	20	[-999, -999, -999]	n/a	FR1	1	R1060M
2225.087	1.051	1128340	DISTRACT_END	n/a	n/a	n/a	-999	20	[0, 0, 0]	n/a	FR1	1	R1060M
2226.138	1.598	1128865	REC_START	n/a	n/a	n/a	-999	20	[0, 0, 0]	n/a	FR1	1	R1060M
2227.736	1.587	1129664	REC_WORD	1.587	n/a	JAR	-999	20	[0, 0, 0]	n/a	FR1	1	R1060M
2229.323	2.054	1130458	REC_WORD	2.054	n/a	BEAK	-999	20	[0, 0, 0]	n/a	FR1	1	R1060M
2231.377	4.96	1131485	REC_WORD	4.96	n/a	FACE	-999	20	[0, 0, 0]	n/a	FR1	1	R1060M
2236.337	12.592	1133964	REC_WORD	12.592	n/a	SQUARE	-999	20	[0, 0, 0]	n/a	FR1	1	R1060M
2248.929	7.219	1140260	REC_WORD	7.219	n/a	FUR	-999	20	[0, 0, 0]	n/a	FR1	1	R1060M
2256.148	1.895	1143869	REC_END	n/a	n/a	n/a	-999	20	[0, 0, 0]	n/a	FR1	1	R1060M
2258.043	0.001	1144817	COUNTDOWN_START	n/a	n/a	n/a	-999	21	[0, 0, 0]	n/a	FR1	1	R1060M
2258.044	10.427	1144817	TRIAL	n/a	n/a	n/a	-999	21	[0, 0, 0]	n/a	FR1	1	R1060M
2268.471	0.008	1150030	COUNTDOWN_END	n/a	n/a	n/a	-999	21	[0, 0, 0]	n/a	FR1	1	R1060M
2268.479	2.617	1150034	ORIENT	n/a	n/a	n/a	-999	21	[0, 0, 0]	n/a	FR1	1	R1060M
2271.096	2.485	1151343	WORD	n/a	wordpools/wordpool_EN.txt	SHELL	1	21	[0, 0, 0]	n/a	FR1	1	R1060M
2273.581	2.582	1152585	WORD	n/a	wordpools/wordpool_EN.txt	GLASS	2	21	[0, 0, 0]	n/a	FR1	1	R1060M
2276.163	2.451	1153876	WORD	n/a	wordpools/wordpool_EN.txt	HOOF	3	21	[0, 0, 0]	n/a	FR1	1	R1060M
2278.614	2.45	1155102	WORD	n/a	wordpools/wordpool_EN.txt	ZOO	4	21	[0, 0, 0]	n/a	FR1	1	R1060M
2281.064	2.485	1156327	WORD	n/a	wordpools/wordpool_EN.txt	FLEA	5	21	[0, 0, 0]	n/a	FR1	1	R1060M
2283.549	2.583	1157569	WORD	n/a	wordpools/wordpool_EN.txt	SEA	6	21	[0, 0, 0]	n/a	FR1	1	R1060M
2286.132	2.484	1158860	WORD	n/a	wordpools/wordpool_EN.txt	CONE	7	21	[0, 0, 0]	n/a	FR1	1	R1060M
2288.616	2.584	1160102	WORD	n/a	wordpools/wordpool_EN.txt	BEACH	8	21	[0, 0, 0]	n/a	FR1	1	R1060M
2291.2	2.484	1161394	WORD	n/a	wordpools/wordpool_EN.txt	SNAIL	9	21	[0, 0, 0]	n/a	FR1	1	R1060M
2293.684	2.5	1162636	WORD	n/a	wordpools/wordpool_EN.txt	CLAY	10	21	[0, 0, 0]	n/a	FR1	1	R1060M
2296.184	2.584	1163886	WORD	n/a	wordpools/wordpool_EN.txt	SPONGE	11	21	[0, 0, 0]	n/a	FR1	1	R1060M
2298.768	1.617	1165178	WORD	n/a	wordpools/wordpool_EN.txt	WAVE	12	21	[0, 0, 0]	n/a	FR1	1	R1060M
2300.385	0.001	1165987	DISTRACT_START	n/a	n/a	n/a	-999	21	[0, 0, 0]	n/a	FR1	1	R1060M
2300.386	0.016	1165987	START	n/a	n/a	n/a	-999	21	[-999, -999, -999]	n/a	FR1	1	R1060M
2300.402	2.983	1165995	PROB	2.983	n/a	n/a	-999	21	[4, 3, 9]	16	FR1	1	R1060M
2303.385	2.684	1167487	PROB	2.684	n/a	n/a	-999	21	[1, 5, 2]	8	FR1	1	R1060M
2306.069	2.151	1168828	PROB	2.151	n/a	n/a	-999	21	[2, 8, 8]	18	FR1	1	R1060M
2308.22	1.717	1169904	PROB	1.717	n/a	n/a	-999	21	[2, 2, 1]	5	FR1	1	R1060M
2309.937	2.75	1170762	PROB	2.75	n/a	n/a	-999	21	[7, 7, 1]	15	FR1	1	R1060M
2312.687	2.934	1172137	PROB	2.934	n/a	n/a	-999	21	[8, 8, 4]	20	FR1	1	R1060M
2315.621	2.968	1173604	PROB	2.968	n/a	n/a	-999	21	[5, 3, 2]	10	FR1	1	R1060M
2318.589	2.227	1175088	PROB	2.227	n/a	n/a	-999	21	[7, 7, 4]	18	FR1	1	R1060M
2320.816	0.006	1176202	STOP	n/a	n/a	n/a	-999	21	[-999, -999, -999]	n/a	FR1	1	R1060M
2320.822	1.151	1176205	DISTRACT_END	n/a	n/a	n/a	-999	21	[0, 0, 0]	n/a	FR1	1	R1060M
2321.973	1.146	1176780	REC_START	n/a	n/a	n/a	-999	21	[0, 0, 0]	n/a	FR1	1	R1060M
2323.119	2.369	1177353	REC_WORD	2.369	n/a	SHELL	-999	21	[0, 0, 0]	n/a	FR1	1	R1060M
2325.488	1.454	1178537	REC_WORD	1.454	n/a	BEAK	-999	21	[0, 0, 0]	n/a	FR1	1	R1060M
2326.942	1.761	1179264	REC_WORD	1.761	n/a	JAR	-999	21	[0, 0, 0]	n/a	FR1	1	R1060M
2328.703	3.115	1180145	REC_WORD	3.115	n/a	GLASS	-999	21	[0, 0, 0]	n/a	FR1	1	R1060M
2331.818	6.139	1181702	REC_WORD	6.139	n/a	SNAIL	-999	21	[0, 0, 0]	n/a	FR1	1	R1060M
2337.957	14.026	1184772	REC_WORD	14.026	n/a	SHORE	-999	21	[0, 0, 0]	n/a	FR1	1	R1060M
2351.983	3.196	1191784	REC_END	n/a	n/a	n/a	-999	21	[0, 0, 0]	n/a	FR1	1	R1060M
2355.179	0.0	1193382	TRIAL	n/a	n/a	n/a	-999	22	[0, 0, 0]	n/a	FR1	1	R1060M
2355.179	10.428	1193382	COUNTDOWN_START	n/a	n/a	n/a	-999	22	[0, 0, 0]	n/a	FR1	1	R1060M
2365.607	0.007	1198596	COUNTDOWN_END	n/a	n/a	n/a	-999	22	[0, 0, 0]	n/a	FR1	1	R1060M
2365.614	2.467	1198599	ORIENT	n/a	n/a	n/a	-999	22	[0, 0, 0]	n/a	FR1	1	R1060M
2368.081	2.634	1199833	WORD	n/a	wordpools/wordpool_EN.txt	THREAD	1	22	[0, 0, 0]	n/a	FR1	1	R1060M
2370.715	2.384	1201150	WORD	n/a	wordpools/wordpool_EN.txt	PIE	2	22	[0, 0, 0]	n/a	FR1	1	R1060M
2373.099	2.584	1202342	WORD	n/a	wordpools/wordpool_EN.txt	WALL	3	22	[0, 0, 0]	n/a	FR1	1	R1060M
2375.683	2.5	1203633	WORD	n/a	wordpools/wordpool_EN.txt	SUIT	4	22	[0, 0, 0]	n/a	FR1	1	R1060M
2378.183	2.451	1204883	WORD	n/a	wordpools/wordpool_EN.txt	STEAK	5	22	[0, 0, 0]	n/a	FR1	1	R1060M
2380.634	2.417	1206109	WORD	n/a	wordpools/wordpool_EN.txt	VASE	6	22	[0, 0, 0]	n/a	FR1	1	R1060M
2383.051	2.6	1207317	WORD	n/a	wordpools/wordpool_EN.txt	SLUSH	7	22	[0, 0, 0]	n/a	FR1	1	R1060M
2385.651	2.484	1208617	WORD	n/a	wordpools/wordpool_EN.txt	TOAST	8	22	[0, 0, 0]	n/a	FR1	1	R1060M
2388.135	2.601	1209859	WORD	n/a	wordpools/wordpool_EN.txt	PHONE	9	22	[0, 0, 0]	n/a	FR1	1	R1060M
2390.736	2.467	1211160	WORD	n/a	wordpools/wordpool_EN.txt	BAND	10	22	[0, 0, 0]	n/a	FR1	1	R1060M
2393.203	2.55	1212393	WORD	n/a	wordpools/wordpool_EN.txt	MAIL	11	22	[0, 0, 0]	n/a	FR1	1	R1060M
2395.753	1.601	1213668	WORD	n/a	wordpools/wordpool_EN.txt	SHRIMP	12	22	[0, 0, 0]	n/a	FR1	1	R1060M
2397.354	0.001	1214468	DISTRACT_START	n/a	n/a	n/a	-999	22	[0, 0, 0]	n/a	FR1	1	R1060M
2397.355	0.015	1214469	START	n/a	n/a	n/a	-999	22	[-999, -999, -999]	n/a	FR1	1	R1060M
2397.37	2.668	1214476	PROB	2.668	n/a	n/a	-999	22	[1, 5, 2]	8	FR1	1	R1060M
2400.038	4.851	1215810	PROB	4.851	n/a	n/a	-999	22	[6, 6, 8]	20	FR1	1	R1060M
2404.889	1.667	1218236	PROB	1.667	n/a	n/a	-999	22	[1, 5, 5]	11	FR1	1	R1060M
2406.556	2.483	1219069	PROB	2.483	n/a	n/a	-999	22	[8, 1, 8]	17	FR1	1	R1060M
2409.039	2.201	1220311	PROB	2.201	n/a	n/a	-999	22	[3, 1, 1]	5	FR1	1	R1060M
2411.24	3.25	1221411	PROB	3.25	n/a	n/a	-999	22	[9, 1, 4]	13	FR1	1	R1060M
2414.49	2.91	1223036	PROB	2.91	n/a	n/a	-999	22	[2, 8, 3]	13	FR1	1	R1060M
2417.4	0.008	1224491	STOP	n/a	n/a	n/a	-999	22	[-999, -999, -999]	n/a	FR1	1	R1060M
2417.408	1.217	1224495	DISTRACT_END	n/a	n/a	n/a	-999	22	[0, 0, 0]	n/a	FR1	1	R1060M
2418.625	1.722	1225103	REC_START	n/a	n/a	n/a	-999	22	[0, 0, 0]	n/a	FR1	1	R1060M
2420.347	6.062	1225964	REC_WORD	6.062	n/a	PIE	-999	22	[0, 0, 0]	n/a	FR1	1	R1060M
2426.409	14.96	1228995	REC_WORD	14.96	n/a	SHELL	-999	22	[0, 0, 0]	n/a	FR1	1	R1060M
2441.369	7.274	1236475	REC_WORD_VV	7.274	n/a	<>	-999	22	[0, 0, 0]	n/a	FR1	1	R1060M
2448.643	3.304	1240111	REC_END	n/a	n/a	n/a	-999	22	[0, 0, 0]	n/a	FR1	1	R1060M
2451.947	0.001	1241763	COUNTDOWN_START	n/a	n/a	n/a	-999	23	[0, 0, 0]	n/a	FR1	1	R1060M
2451.948	10.427	1241764	TRIAL	n/a	n/a	n/a	-999	23	[0, 0, 0]	n/a	FR1	1	R1060M
2462.375	0.008	1246977	COUNTDOWN_END	n/a	n/a	n/a	-999	23	[0, 0, 0]	n/a	FR1	1	R1060M
2462.383	2.417	1246981	ORIENT	n/a	n/a	n/a	-999	23	[0, 0, 0]	n/a	FR1	1	R1060M
2464.8	2.551	1248190	WORD	n/a	wordpools/wordpool_EN.txt	BEE	1	23	[0, 0, 0]	n/a	FR1	1	R1060M
2467.351	2.533	1249465	WORD	n/a	wordpools/wordpool_EN.txt	STORE	2	23	[0, 0, 0]	n/a	FR1	1	R1060M
2469.884	2.368	1250731	WORD	n/a	wordpools/wordpool_EN.txt	MOLE	3	23	[0, 0, 0]	n/a	FR1	1	R1060M
2472.252	2.417	1251915	WORD	n/a	wordpools/wordpool_EN.txt	ROCK	4	23	[0, 0, 0]	n/a	FR1	1	R1060M
2474.669	2.617	1253124	WORD	n/a	wordpools/wordpool_EN.txt	BIRD	5	23	[0, 0, 0]	n/a	FR1	1	R1060M
2477.286	2.534	1254432	WORD	n/a	wordpools/wordpool_EN.txt	BEAR	6	23	[0, 0, 0]	n/a	FR1	1	R1060M
2479.82	2.417	1255699	WORD	n/a	wordpools/wordpool_EN.txt	RAIN	7	23	[0, 0, 0]	n/a	FR1	1	R1060M
2482.237	2.5	1256908	WORD	n/a	wordpools/wordpool_EN.txt	APE	8	23	[0, 0, 0]	n/a	FR1	1	R1060M
2484.737	2.467	1258157	WORD	n/a	wordpools/wordpool_EN.txt	ANT	9	23	[0, 0, 0]	n/a	FR1	1	R1060M
2487.204	2.601	1259391	WORD	n/a	wordpools/wordpool_EN.txt	NEST	10	23	[0, 0, 0]	n/a	FR1	1	R1060M
2489.805	2.417	1260691	WORD	n/a	wordpools/wordpool_EN.txt	JAIL	11	23	[0, 0, 0]	n/a	FR1	1	R1060M
2492.222	1.617	1261900	WORD	n/a	wordpools/wordpool_EN.txt	RAT	12	23	[0, 0, 0]	n/a	FR1	1	R1060M
2493.839	0.001	1262708	DISTRACT_START	n/a	n/a	n/a	-999	23	[0, 0, 0]	n/a	FR1	1	R1060M
2493.84	0.016	1262709	START	n/a	n/a	n/a	-999	23	[-999, -999, -999]	n/a	FR1	1	R1060M
2493.856	5.618	1262717	PROB	5.618	n/a	n/a	-999	23	[4, 7, 5]	16	FR1	1	R1060M
2499.474	3.6	1265526	PROB	3.6	n/a	n/a	-999	23	[1, 9, 3]	13	FR1	1	R1060M
2503.074	2.601	1267325	PROB	2.601	n/a	n/a	-999	23	[1, 4, 3]	8	FR1	1	R1060M
2505.675	2.934	1268626	PROB	2.934	n/a	n/a	-999	23	[4, 2, 4]	10	FR1	1	R1060M
2508.609	2.968	1270093	PROB	2.968	n/a	n/a	-999	23	[2, 9, 1]	12	FR1	1	R1060M
2511.577	2.033	1271577	PROB	2.033	n/a	n/a	-999	23	[9, 5, 2]	16	FR1	1	R1060M
2513.61	2.294	1272593	PROB	2.294	n/a	n/a	-999	23	[2, 9, 9]	20	FR1	1	R1060M
2515.904	0.006	1273740	STOP	n/a	n/a	n/a	-999	23	[-999, -999, -999]	n/a	FR1	1	R1060M
2515.91	1.068	1273743	DISTRACT_END	n/a	n/a	n/a	-999	23	[0, 0, 0]	n/a	FR1	1	R1060M
2516.978	1.809	1274277	REC_START	n/a	n/a	n/a	-999	23	[0, 0, 0]	n/a	FR1	1	R1060M
2518.787	11.155	1275182	REC_WORD	11.155	n/a	BEE	-999	23	[0, 0, 0]	n/a	FR1	1	R1060M
2529.942	4.116	1280759	REC_WORD	4.116	n/a	JAIL	-999	23	[0, 0, 0]	n/a	FR1	1	R1060M
2534.058	3.505	1282817	REC_WORD	3.505	n/a	RAT	-999	23	[0, 0, 0]	n/a	FR1	1	R1060M
2537.563	9.427	1284569	REC_WORD	9.427	n/a	STORE	-999	23	[0, 0, 0]	n/a	FR1	1	R1060M
2546.99	2.827	1289282	REC_END	n/a	n/a	n/a	-999	23	[0, 0, 0]	n/a	FR1	1	R1060M
2549.817	0.0	1290696	TRIAL	n/a	n/a	n/a	-999	24	[0, 0, 0]	n/a	FR1	1	R1060M
2549.817	10.428	1290696	COUNTDOWN_START	n/a	n/a	n/a	-999	24	[0, 0, 0]	n/a	FR1	1	R1060M
2560.245	0.007	1295909	COUNTDOWN_END	n/a	n/a	n/a	-999	24	[0, 0, 0]	n/a	FR1	1	R1060M
2560.252	2.534	1295913	ORIENT	n/a	n/a	n/a	-999	24	[0, 0, 0]	n/a	FR1	1	R1060M
2562.786	2.467	1297180	WORD	n/a	wordpools/wordpool_EN.txt	FORK	1	24	[0, 0, 0]	n/a	FR1	1	R1060M
2565.253	2.401	1298413	WORD	n/a	wordpools/wordpool_EN.txt	BANK	2	24	[0, 0, 0]	n/a	FR1	1	R1060M
2567.654	2.5	1299614	WORD	n/a	wordpools/wordpool_EN.txt	SLEEVE	3	24	[0, 0, 0]	n/a	FR1	1	R1060M
2570.154	2.584	1300864	WORD	n/a	wordpools/wordpool_EN.txt	WAND	4	24	[0, 0, 0]	n/a	FR1	1	R1060M
2572.738	2.467	1302156	WORD	n/a	wordpools/wordpool_EN.txt	TOE	5	24	[0, 0, 0]	n/a	FR1	1	R1060M
2575.205	2.6	1303389	WORD	n/a	wordpools/wordpool_EN.txt	COUCH	6	24	[0, 0, 0]	n/a	FR1	1	R1060M
2577.805	2.384	1304689	WORD	n/a	wordpools/wordpool_EN.txt	GATE	7	24	[0, 0, 0]	n/a	FR1	1	R1060M
2580.189	2.467	1305881	WORD	n/a	wordpools/wordpool_EN.txt	STRING	8	24	[0, 0, 0]	n/a	FR1	1	R1060M
2582.656	2.501	1307114	WORD	n/a	wordpools/wordpool_EN.txt	VINE	9	24	[0, 0, 0]	n/a	FR1	1	R1060M
2585.157	2.5	1308365	WORD	n/a	wordpools/wordpool_EN.txt	SPEAR	10	24	[0, 0, 0]	n/a	FR1	1	R1060M
2587.657	2.468	1309615	WORD	n/a	wordpools/wordpool_EN.txt	TIE	11	24	[0, 0, 0]	n/a	FR1	1	R1060M
2590.125	1.617	1310849	WORD	n/a	wordpools/wordpool_EN.txt	PALM	12	24	[0, 0, 0]	n/a	FR1	1	R1060M
2591.742	0.0	1311657	DISTRACT_START	n/a	n/a	n/a	-999	24	[0, 0, 0]	n/a	FR1	1	R1060M
2591.742	0.016	1311657	START	n/a	n/a	n/a	-999	24	[-999, -999, -999]	n/a	FR1	1	R1060M
2591.758	3.301	1311665	PROB	3.301	n/a	n/a	-999	24	[3, 8, 6]	17	FR1	1	R1060M
2595.059	2.2	1313315	PROB	2.2	n/a	n/a	-999	24	[5, 6, 2]	13	FR1	1	R1060M
2597.259	2.051	1314415	PROB	2.051	n/a	n/a	-999	24	[5, 9, 2]	16	FR1	1	R1060M
2599.31	1.983	1315441	PROB	1.983	n/a	n/a	-999	24	[7, 4, 2]	13	FR1	1	R1060M
2601.293	2.167	1316432	PROB	2.167	n/a	n/a	-999	24	[6, 8, 1]	15	FR1	1	R1060M
2603.46	3.135	1317516	PROB	3.135	n/a	n/a	-999	24	[7, 6, 4]	17	FR1	1	R1060M
2606.595	2.968	1319083	PROB	2.968	n/a	n/a	-999	24	[3, 4, 5]	12	FR1	1	R1060M
2609.563	2.049	1320567	PROB	2.049	n/a	n/a	-999	24	[6, 4, 2]	12	FR1	1	R1060M
2611.612	2.276	1321591	PROB	2.276	n/a	n/a	-999	24	[3, 9, 1]	13	FR1	1	R1060M
2613.888	0.008	1322729	STOP	n/a	n/a	n/a	-999	24	[-999, -999, -999]	n/a	FR1	1	R1060M
2613.896	1.101	1322733	DISTRACT_END	n/a	n/a	n/a	-999	24	[0, 0, 0]	n/a	FR1	1	R1060M
2614.997	0.815	1323284	REC_START	n/a	n/a	n/a	-999	24	[0, 0, 0]	n/a	FR1	1	R1060M
2615.812	2.256	1323691	REC_WORD	2.256	n/a	FORK	-999	24	[0, 0, 0]	n/a	FR1	1	R1060M
2618.068	1.131	1324819	REC_WORD	1.131	n/a	BANK	-999	24	[0, 0, 0]	n/a	FR1	1	R1060M
2619.199	2.086	1325385	REC_WORD	2.086	n/a	SLEEVE	-999	24	[0, 0, 0]	n/a	FR1	1	R1060M
2621.285	2.559	1326428	REC_WORD	2.559	n/a	WAND	-999	24	[0, 0, 0]	n/a	FR1	1	R1060M
2623.844	4.609	1327707	REC_WORD	4.609	n/a	COUCH	-999	24	[0, 0, 0]	n/a	FR1	1	R1060M
2628.453	4.359	1330011	REC_WORD	4.359	n/a	TIE	-999	24	[0, 0, 0]	n/a	FR1	1	R1060M
2632.812	12.197	1332191	REC_WORD	12.197	n/a	JAIL	-999	24	[0, 0, 0]	n/a	FR1	1	R1060M
2645.009	3.06	1338289	REC_END	n/a	n/a	n/a	-999	24	[0, 0, 0]	n/a	FR1	1	R1060M
2648.069	0.0	1339819	TRIAL	n/a	n/a	n/a	-999	25	[0, 0, 0]	n/a	FR1	1	R1060M
2648.069	10.428	1339819	COUNTDOWN_START	n/a	n/a	n/a	-999	25	[0, 0, 0]	n/a	FR1	1	R1060M
2658.497	0.007	1345033	COUNTDOWN_END	n/a	n/a	n/a	-999	25	[0, 0, 0]	n/a	FR1	1	R1060M
2658.504	2.384	1345036	ORIENT	n/a	n/a	n/a	-999	25	[0, 0, 0]	n/a	FR1	1	R1060M
2660.888	2.567	1346228	WORD	n/a	wordpools/wordpool_EN.txt	STAR	1	25	[0, 0, 0]	n/a	FR1	1	R1060M
2663.455	2.451	1347511	WORD	n/a	wordpools/wordpool_EN.txt	PIPE	2	25	[0, 0, 0]	n/a	FR1	1	R1060M
2665.906	2.384	1348737	WORD	n/a	wordpools/wordpool_EN.txt	OWL	3	25	[0, 0, 0]	n/a	FR1	1	R1060M
2668.29	2.534	1349929	WORD	n/a	wordpools/wordpool_EN.txt	WOOD	4	25	[0, 0, 0]	n/a	FR1	1	R1060M
2670.824	2.566	1351196	WORD	n/a	wordpools/wordpool_EN.txt	DUCK	5	25	[0, 0, 0]	n/a	FR1	1	R1060M
2673.39	2.451	1352479	WORD	n/a	wordpools/wordpool_EN.txt	POND	6	25	[0, 0, 0]	n/a	FR1	1	R1060M
2675.841	2.617	1353704	WORD	n/a	wordpools/wordpool_EN.txt	CLOUD	7	25	[0, 0, 0]	n/a	FR1	1	R1060M
2678.458	2.417	1355013	WORD	n/a	wordpools/wordpool_EN.txt	FLOOR	8	25	[0, 0, 0]	n/a	FR1	1	R1060M
2680.875	2.468	1356221	WORD	n/a	wordpools/wordpool_EN.txt	DEER	9	25	[0, 0, 0]	n/a	FR1	1	R1060M
2683.343	2.484	1357455	WORD	n/a	wordpools/wordpool_EN.txt	SKI	10	25	[0, 0, 0]	n/a	FR1	1	R1060M
2685.827	2.583	1358697	WORD	n/a	wordpools/wordpool_EN.txt	TOY	11	25	[0, 0, 0]	n/a	FR1	1	R1060M
2688.41	1.617	1359988	WORD	n/a	wordpools/wordpool_EN.txt	WOLF	12	25	[0, 0, 0]	n/a	FR1	1	R1060M
2690.027	0.001	1360797	DISTRACT_START	n/a	n/a	n/a	-999	25	[0, 0, 0]	n/a	FR1	1	R1060M
2690.028	0.016	1360797	START	n/a	n/a	n/a	-999	25	[-999, -999, -999]	n/a	FR1	1	R1060M
2690.044	2.75	1360805	PROB	2.75	n/a	n/a	-999	25	[4, 8, 6]	18	FR1	1	R1060M
2692.794	2.168	1362180	PROB	2.168	n/a	n/a	-999	25	[6, 3, 7]	16	FR1	1	R1060M
2694.962	2.25	1363264	PROB	2.25	n/a	n/a	-999	25	[2, 9, 5]	16	FR1	1	R1060M
2697.212	3.201	1364389	PROB	3.201	n/a	n/a	-999	25	[3, 4, 5]	12	FR1	1	R1060M
2700.413	2.717	1365989	PROB	2.717	n/a	n/a	-999	25	[7, 6, 7]	20	FR1	1	R1060M
2703.13	4.452	1367348	PROB	4.452	n/a	n/a	-999	25	[4, 7, 4]	15	FR1	1	R1060M
2707.582	2.166	1369574	PROB	2.166	n/a	n/a	-999	25	[6, 3, 1]	10	FR1	1	R1060M
2709.748	2.284	1370657	PROB	2.284	n/a	n/a	-999	25	[5, 4, 2]	11	FR1	1	R1060M
2712.032	0.016	1371799	STOP	n/a	n/a	n/a	-999	25	[-999, -999, -999]	n/a	FR1	1	R1060M
2712.048	1.068	1371807	DISTRACT_END	n/a	n/a	n/a	-999	25	[0, 0, 0]	n/a	FR1	1	R1060M
2713.116	1.368	1372341	REC_START	n/a	n/a	n/a	-999	25	[0, 0, 0]	n/a	FR1	1	R1060M
2714.484	1.179	1373025	REC_WORD	1.179	n/a	STAR	-999	25	[0, 0, 0]	n/a	FR1	1	R1060M
2715.663	1.354	1373614	REC_WORD	1.354	n/a	PIPE	-999	25	[0, 0, 0]	n/a	FR1	1	R1060M
2717.017	1.457	1374291	REC_WORD	1.457	n/a	OWL	-999	25	[0, 0, 0]	n/a	FR1	1	R1060M
2718.474	2.58	1375019	REC_WORD	2.58	n/a	POND	-999	25	[0, 0, 0]	n/a	FR1	1	R1060M
2721.054	2.611	1376309	REC_WORD	2.611	n/a	DUCK	-999	25	[0, 0, 0]	n/a	FR1	1	R1060M
2723.665	4.085	1377615	REC_WORD	4.085	n/a	LEAF	-999	25	[0, 0, 0]	n/a	FR1	1	R1060M
2727.75	15.378	1379657	REC_WORD	15.378	n/a	CLOUD	-999	25	[0, 0, 0]	n/a	FR1	1	R1060M
2743.128	0.0	1387346	REC_END	n/a	n/a	n/a	-999	25	[0, 0, 0]	n/a	FR1	1	R1060M
