onset	duration	sample	trial_type	response_time	stim_file	item_name	serialpos	list	test	answer	experiment	session	subject
0.0	45.306	766	INSTRUCT_START	n/a	n/a	n/a	-999	-999	[0, 0, 0]	n/a	FR1	7	R1299T
45.306	9.319	46070	INSTRUCT_END	n/a	n/a	n/a	-999	-999	[0, 0, 0]	n/a	FR1	7	R1299T
54.625	9.91	55389	MIC TEST_START	n/a	n/a	n/a	-999	-999	[0, 0, 0]	n/a	FR1	7	R1299T
64.535	0.011	65298	MIC TEST_END	n/a	n/a	n/a	-999	-999	[0, 0, 0]	n/a	FR1	7	R1299T
64.546	0.0	65309	TRIAL_START	n/a	n/a	n/a	-999	-1	[0, 0, 0]	n/a	FR1	7	R1299T
64.546	0.0	65309	TRIAL	n/a	n/a	n/a	-999	-1	[0, 0, 0]	n/a	FR1	7	R1299T
64.546	1.097	65309	WAITING_START	n/a	n/a	n/a	-999	-1	[0, 0, 0]	n/a	FR1	7	R1299T
65.643	0.001	66406	WAITING_END	n/a	n/a	n/a	-999	-1	[0, 0, 0]	n/a	FR1	7	R1299T
65.644	10.428	66407	COUNTDOWN_START	n/a	n/a	n/a	-999	-1	[0, 0, 0]	n/a	FR1	7	R1299T
76.072	0.001	76835	COUNTDOWN_END	n/a	n/a	n/a	-999	-1	[0, 0, 0]	n/a	FR1	7	R1299T
76.073	1.238	76836	ORIENT_START	n/a	n/a	n/a	-999	-1	[0, 0, 0]	n/a	FR1	7	R1299T
77.311	0.001	78073	ORIENT_END	n/a	n/a	n/a	-999	-1	[0, 0, 0]	n/a	FR1	7	R1299T
77.312	1.13	78074	ENCODING_START	n/a	n/a	n/a	-999	-1	[0, 0, 0]	n/a	FR1	7	R1299T
78.442	1.636	79204	WORD	n/a	n/a	ATTIC	1	-1	[0, 0, 0]	n/a	FR1	7	R1299T
80.078	0.977	80840	WORD_OFF	n/a	n/a	ATTIC	1	-1	[0, 0, 0]	n/a	FR1	7	R1299T
81.055	1.625	81817	WORD	n/a	n/a	BEAM	2	-1	[0, 0, 0]	n/a	FR1	7	R1299T
82.68	1.089	83442	WORD_OFF	n/a	n/a	BEAM	2	-1	[0, 0, 0]	n/a	FR1	7	R1299T
83.769	1.627	84531	WORD	n/a	n/a	CAMEL	3	-1	[0, 0, 0]	n/a	FR1	7	R1299T
85.396	0.98	86158	WORD_OFF	n/a	n/a	CAMEL	3	-1	[0, 0, 0]	n/a	FR1	7	R1299T
86.376	1.637	87138	WORD	n/a	n/a	CHEST	4	-1	[0, 0, 0]	n/a	FR1	7	R1299T
88.013	0.927	88775	WORD_OFF	n/a	n/a	CHEST	4	-1	[0, 0, 0]	n/a	FR1	7	R1299T
88.94	1.608	89702	WORD	n/a	n/a	COTTON	5	-1	[0, 0, 0]	n/a	FR1	7	R1299T
90.548	0.99	91310	WORD_OFF	n/a	n/a	COTTON	5	-1	[0, 0, 0]	n/a	FR1	7	R1299T
91.538	1.626	92300	WORD	n/a	n/a	FLOOD	6	-1	[0, 0, 0]	n/a	FR1	7	R1299T
93.164	1.107	93926	WORD_OFF	n/a	n/a	FLOOD	6	-1	[0, 0, 0]	n/a	FR1	7	R1299T
94.271	1.628	95033	WORD	n/a	n/a	IRON	7	-1	[0, 0, 0]	n/a	FR1	7	R1299T
95.899	0.785	96661	WORD_OFF	n/a	n/a	IRON	7	-1	[0, 0, 0]	n/a	FR1	7	R1299T
96.684	1.631	97446	WORD	n/a	n/a	RHINO	8	-1	[0, 0, 0]	n/a	FR1	7	R1299T
98.315	0.837	99076	WORD_OFF	n/a	n/a	RHINO	8	-1	[0, 0, 0]	n/a	FR1	7	R1299T
99.152	1.614	99913	WORD	n/a	n/a	RING	9	-1	[0, 0, 0]	n/a	FR1	7	R1299T
100.766	0.788	101527	WORD_OFF	n/a	n/a	RING	9	-1	[0, 0, 0]	n/a	FR1	7	R1299T
101.554	1.629	102315	WORD	n/a	n/a	TONGUE	10	-1	[0, 0, 0]	n/a	FR1	7	R1299T
103.183	1.001	103944	WORD_OFF	n/a	n/a	TONGUE	10	-1	[0, 0, 0]	n/a	FR1	7	R1299T
104.184	1.616	104945	WORD	n/a	n/a	WAGON	11	-1	[0, 0, 0]	n/a	FR1	7	R1299T
105.8	0.937	106561	WORD_OFF	n/a	n/a	WAGON	11	-1	[0, 0, 0]	n/a	FR1	7	R1299T
106.737	1.63	107498	WORD	n/a	n/a	WATCH	12	-1	[0, 0, 0]	n/a	FR1	7	R1299T
108.367	0.0	109128	DISTRACT_START	n/a	n/a	n/a	-999	-1	[0, 0, 0]	n/a	FR1	7	R1299T
108.367	0.0	109128	WORD_OFF	n/a	n/a	WATCH	12	-1	[0, 0, 0]	n/a	FR1	7	R1299T
108.367	0.001	109128	ENCODING_END	n/a	n/a	n/a	-999	-1	[0, 0, 0]	n/a	FR1	7	R1299T
108.368	0.015	109129	START	n/a	n/a	n/a	-999	-1	[-999, -999, -999]	n/a	FR1	7	R1299T
108.383	3.584	109144	PROB	3.584	n/a	n/a	-999	-1	[3, 3, 3]	9	FR1	7	R1299T
111.967	2.918	112728	PROB	2.918	n/a	n/a	-999	-1	[6, 1, 5]	12	FR1	7	R1299T
114.885	3.985	115646	PROB	3.985	n/a	n/a	-999	-1	[9, 3, 8]	20	FR1	7	R1299T
118.87	3.9	119631	PROB	3.9	n/a	n/a	-999	-1	[5, 5, 5]	15	FR1	7	R1299T
122.77	4.25	123530	PROB	4.25	n/a	n/a	-999	-1	[7, 5, 4]	16	FR1	7	R1299T
127.02	2.234	127780	PROB	2.234	n/a	n/a	-999	-1	[3, 7, 1]	11	FR1	7	R1299T
129.254	0.017	130014	STOP	n/a	n/a	n/a	-999	-1	[-999, -999, -999]	n/a	FR1	7	R1299T
129.271	0.536	130031	DISTRACT_END	n/a	n/a	n/a	-999	-1	[0, 0, 0]	n/a	FR1	7	R1299T
129.807	1.648	130567	RETRIEVAL_ORIENT_START	n/a	n/a	n/a	-999	-1	[0, 0, 0]	n/a	FR1	7	R1299T
131.455	0.001	132215	RETRIEVAL_ORIENT_END	n/a	n/a	n/a	-999	-1	[0, 0, 0]	n/a	FR1	7	R1299T
131.456	0.632	132216	REC_START	n/a	n/a	n/a	-999	-1	[0, 0, 0]	n/a	FR1	7	R1299T
132.088	1.215	132848	REC_WORD_VV	1.215	n/a	<>	-999	-1	[0, 0, 0]	n/a	FR1	7	R1299T
133.303	1.744	134063	REC_WORD	1.744	n/a	ATTIC	-999	-1	[0, 0, 0]	n/a	FR1	7	R1299T
135.047	1.562	135807	REC_WORD	1.562	n/a	BEAN	-999	-1	[0, 0, 0]	n/a	FR1	7	R1299T
136.609	1.897	137369	REC_WORD	1.897	n/a	TONGUE	-999	-1	[0, 0, 0]	n/a	FR1	7	R1299T
138.506	2.191	139266	REC_WORD	2.191	n/a	CHEST	-999	-1	[0, 0, 0]	n/a	FR1	7	R1299T
140.697	5.488	141456	REC_WORD	5.488	n/a	RHINO	-999	-1	[0, 0, 0]	n/a	FR1	7	R1299T
146.185	1.189	146944	REC_WORD_VV	1.189	n/a	<>	-999	-1	[0, 0, 0]	n/a	FR1	7	R1299T
147.374	14.095	148133	REC_WORD_VV	14.095	n/a	<>	-999	-1	[0, 0, 0]	n/a	FR1	7	R1299T
161.469	0.001	162227	REC_END	n/a	n/a	n/a	-999	-1	[0, 0, 0]	n/a	FR1	7	R1299T
161.47	10.193	162228	PRACTICE_POST_INSTRUCT_START	n/a	n/a	n/a	-999	-1	[0, 0, 0]	n/a	FR1	7	R1299T
171.663	0.0	172421	PRACTICE_POST_INSTRUCT_END	n/a	n/a	n/a	-999	-1	[0, 0, 0]	n/a	FR1	7	R1299T
171.663	0.017	172421	TRIAL_END	n/a	n/a	n/a	-999	-1	[0, 0, 0]	n/a	FR1	7	R1299T
171.68	0.0	172438	TRIAL	n/a	n/a	n/a	-999	1	[0, 0, 0]	n/a	FR1	7	R1299T
171.68	0.001	172438	TRIAL_START	n/a	n/a	n/a	-999	1	[0, 0, 0]	n/a	FR1	7	R1299T
171.681	4.381	172439	WAITING_START	n/a	n/a	n/a	-999	1	[0, 0, 0]	n/a	FR1	7	R1299T
176.062	0.001	176820	WAITING_END	n/a	n/a	n/a	-999	1	[0, 0, 0]	n/a	FR1	7	R1299T
176.063	10.43	176821	COUNTDOWN_START	n/a	n/a	n/a	-999	1	[0, 0, 0]	n/a	FR1	7	R1299T
186.493	0.0	187250	COUNTDOWN_END	n/a	n/a	n/a	-999	1	[0, 0, 0]	n/a	FR1	7	R1299T
186.493	1.072	187250	ORIENT_START	n/a	n/a	n/a	-999	1	[0, 0, 0]	n/a	FR1	7	R1299T
187.565	0.001	188322	ORIENT_END	n/a	n/a	n/a	-999	1	[0, 0, 0]	n/a	FR1	7	R1299T
187.566	1.028	188323	ENCODING_START	n/a	n/a	n/a	-999	1	[0, 0, 0]	n/a	FR1	7	R1299T
188.594	1.638	189351	WORD	n/a	n/a	PLANE	1	1	[0, 0, 0]	n/a	FR1	7	R1299T
190.232	1.076	190989	WORD_OFF	n/a	n/a	PLANE	1	1	[0, 0, 0]	n/a	FR1	7	R1299T
191.308	1.608	192065	WORD	n/a	n/a	BEAN	2	1	[0, 0, 0]	n/a	FR1	7	R1299T
192.916	0.948	193673	WORD_OFF	n/a	n/a	BEAN	2	1	[0, 0, 0]	n/a	FR1	7	R1299T
193.864	1.636	194621	WORD	n/a	n/a	NOSE	3	1	[0, 0, 0]	n/a	FR1	7	R1299T
195.5	0.838	196257	WORD_OFF	n/a	n/a	NOSE	3	1	[0, 0, 0]	n/a	FR1	7	R1299T
196.338	1.628	197095	WORD	n/a	n/a	DEER	4	1	[0, 0, 0]	n/a	FR1	7	R1299T
197.966	1.057	198723	WORD_OFF	n/a	n/a	DEER	4	1	[0, 0, 0]	n/a	FR1	7	R1299T
199.023	1.611	199780	WORD	n/a	n/a	ZOO	5	1	[0, 0, 0]	n/a	FR1	7	R1299T
200.634	1.025	201391	WORD_OFF	n/a	n/a	ZOO	5	1	[0, 0, 0]	n/a	FR1	7	R1299T
201.659	1.625	202416	WORD	n/a	n/a	TOOL	6	1	[0, 0, 0]	n/a	FR1	7	R1299T
203.284	1.029	204040	WORD_OFF	n/a	n/a	TOOL	6	1	[0, 0, 0]	n/a	FR1	7	R1299T
204.313	1.638	205069	WORD	n/a	n/a	STONE	7	1	[0, 0, 0]	n/a	FR1	7	R1299T
205.951	1.117	206707	WORD_OFF	n/a	n/a	STONE	7	1	[0, 0, 0]	n/a	FR1	7	R1299T
207.068	1.618	207824	WORD	n/a	n/a	HILL	8	1	[0, 0, 0]	n/a	FR1	7	R1299T
208.686	0.8	209442	WORD_OFF	n/a	n/a	HILL	8	1	[0, 0, 0]	n/a	FR1	7	R1299T
209.486	1.633	210242	WORD	n/a	n/a	DART	9	1	[0, 0, 0]	n/a	FR1	7	R1299T
211.119	0.866	211875	WORD_OFF	n/a	n/a	DART	9	1	[0, 0, 0]	n/a	FR1	7	R1299T
211.985	1.635	212741	WORD	n/a	n/a	COW	10	1	[0, 0, 0]	n/a	FR1	7	R1299T
213.62	1.022	214376	WORD_OFF	n/a	n/a	COW	10	1	[0, 0, 0]	n/a	FR1	7	R1299T
214.642	1.628	215398	WORD	n/a	n/a	ARK	11	1	[0, 0, 0]	n/a	FR1	7	R1299T
216.27	1.106	217026	WORD_OFF	n/a	n/a	ARK	11	1	[0, 0, 0]	n/a	FR1	7	R1299T
217.376	1.627	218132	WORD	n/a	n/a	CALF	12	1	[0, 0, 0]	n/a	FR1	7	R1299T
219.003	0.001	219759	WORD_OFF	n/a	n/a	CALF	12	1	[0, 0, 0]	n/a	FR1	7	R1299T
219.004	0.0	219760	ENCODING_END	n/a	n/a	n/a	-999	1	[0, 0, 0]	n/a	FR1	7	R1299T
219.004	0.0	219760	DISTRACT_START	n/a	n/a	n/a	-999	1	[0, 0, 0]	n/a	FR1	7	R1299T
219.004	0.016	219760	START	n/a	n/a	n/a	-999	1	[-999, -999, -999]	n/a	FR1	7	R1299T
219.02	4.217	219776	PROB	4.217	n/a	n/a	-999	1	[4, 4, 7]	15	FR1	7	R1299T
223.237	5.868	223993	PROB	5.868	n/a	n/a	-999	1	[3, 1, 3]	7	FR1	7	R1299T
229.105	3.984	229860	PROB	3.984	n/a	n/a	-999	1	[8, 4, 9]	21	FR1	7	R1299T
233.089	2.552	233844	PROB	2.552	n/a	n/a	-999	1	[6, 6, 9]	21	FR1	7	R1299T
235.641	3.703	236396	PROB	3.703	n/a	n/a	-999	1	[5, 1, 2]	8	FR1	7	R1299T
239.344	0.013	240099	STOP	n/a	n/a	n/a	-999	1	[-999, -999, -999]	n/a	FR1	7	R1299T
239.357	0.567	240112	DISTRACT_END	n/a	n/a	n/a	-999	1	[0, 0, 0]	n/a	FR1	7	R1299T
239.924	1.584	240679	RETRIEVAL_ORIENT_START	n/a	n/a	n/a	-999	1	[0, 0, 0]	n/a	FR1	7	R1299T
241.508	0.001	242263	RETRIEVAL_ORIENT_END	n/a	n/a	n/a	-999	1	[0, 0, 0]	n/a	FR1	7	R1299T
241.509	2.45	242264	REC_START	n/a	n/a	n/a	-999	1	[0, 0, 0]	n/a	FR1	7	R1299T
243.959	2.78	244714	REC_WORD	2.78	n/a	PLANE	1	1	[0, 0, 0]	n/a	FR1	7	R1299T
246.739	24.782	247493	REC_WORD	24.782	n/a	BEAN	2	1	[0, 0, 0]	n/a	FR1	7	R1299T
271.521	0.0	272274	REC_END	n/a	n/a	n/a	-999	1	[0, 0, 0]	n/a	FR1	7	R1299T
271.521	0.015	272274	TRIAL_END	n/a	n/a	n/a	-999	1	[0, 0, 0]	n/a	FR1	7	R1299T
271.536	0.001	272289	TRIAL_START	n/a	n/a	n/a	-999	2	[0, 0, 0]	n/a	FR1	7	R1299T
271.537	0.0	272290	WAITING_START	n/a	n/a	n/a	-999	2	[0, 0, 0]	n/a	FR1	7	R1299T
271.537	2.194	272290	TRIAL	n/a	n/a	n/a	-999	2	[0, 0, 0]	n/a	FR1	7	R1299T
273.731	0.0	274484	WAITING_END	n/a	n/a	n/a	-999	2	[0, 0, 0]	n/a	FR1	7	R1299T
273.731	10.43	274484	COUNTDOWN_START	n/a	n/a	n/a	-999	2	[0, 0, 0]	n/a	FR1	7	R1299T
284.161	0.0	284914	COUNTDOWN_END	n/a	n/a	n/a	-999	2	[0, 0, 0]	n/a	FR1	7	R1299T
284.161	1.054	284914	ORIENT_START	n/a	n/a	n/a	-999	2	[0, 0, 0]	n/a	FR1	7	R1299T
285.215	0.001	285968	ORIENT_END	n/a	n/a	n/a	-999	2	[0, 0, 0]	n/a	FR1	7	R1299T
285.216	1.115	285969	ENCODING_START	n/a	n/a	n/a	-999	2	[0, 0, 0]	n/a	FR1	7	R1299T
286.331	1.635	287083	WORD	n/a	n/a	PLANT	1	2	[0, 0, 0]	n/a	FR1	7	R1299T
287.966	1.035	288718	WORD_OFF	n/a	n/a	PLANT	1	2	[0, 0, 0]	n/a	FR1	7	R1299T
289.001	1.616	289753	WORD	n/a	n/a	RAIN	2	2	[0, 0, 0]	n/a	FR1	7	R1299T
290.617	0.896	291369	WORD_OFF	n/a	n/a	RAIN	2	2	[0, 0, 0]	n/a	FR1	7	R1299T
291.513	1.621	292265	WORD	n/a	n/a	BRIDGE	3	2	[0, 0, 0]	n/a	FR1	7	R1299T
293.134	1.086	293886	WORD_OFF	n/a	n/a	BRIDGE	3	2	[0, 0, 0]	n/a	FR1	7	R1299T
294.22	1.632	294972	WORD	n/a	n/a	SWORD	4	2	[0, 0, 0]	n/a	FR1	7	R1299T
295.852	0.876	296604	WORD_OFF	n/a	n/a	SWORD	4	2	[0, 0, 0]	n/a	FR1	7	R1299T
296.728	1.623	297480	WORD	n/a	n/a	BED	5	2	[0, 0, 0]	n/a	FR1	7	R1299T
298.351	0.855	299103	WORD_OFF	n/a	n/a	BED	5	2	[0, 0, 0]	n/a	FR1	7	R1299T
299.206	1.63	299958	WORD	n/a	n/a	CAGE	6	2	[0, 0, 0]	n/a	FR1	7	R1299T
300.836	0.778	301588	WORD_OFF	n/a	n/a	CAGE	6	2	[0, 0, 0]	n/a	FR1	7	R1299T
301.614	1.621	302366	WORD	n/a	n/a	BANK	7	2	[0, 0, 0]	n/a	FR1	7	R1299T
303.235	1.133	303987	WORD_OFF	n/a	n/a	BANK	7	2	[0, 0, 0]	n/a	FR1	7	R1299T
304.368	1.635	305120	WORD	n/a	n/a	SHIRT	8	2	[0, 0, 0]	n/a	FR1	7	R1299T
306.003	1.026	306755	WORD_OFF	n/a	n/a	SHIRT	8	2	[0, 0, 0]	n/a	FR1	7	R1299T
307.029	1.608	307781	WORD	n/a	n/a	HOUSE	9	2	[0, 0, 0]	n/a	FR1	7	R1299T
308.637	0.893	309388	WORD_OFF	n/a	n/a	HOUSE	9	2	[0, 0, 0]	n/a	FR1	7	R1299T
309.53	1.624	310281	WORD	n/a	n/a	WORM	10	2	[0, 0, 0]	n/a	FR1	7	R1299T
311.154	0.962	311905	WORD_OFF	n/a	n/a	WORM	10	2	[0, 0, 0]	n/a	FR1	7	R1299T
312.116	1.606	312867	WORD	n/a	n/a	CLAY	11	2	[0, 0, 0]	n/a	FR1	7	R1299T
313.722	0.893	314473	WORD_OFF	n/a	n/a	CLAY	11	2	[0, 0, 0]	n/a	FR1	7	R1299T
314.615	1.623	315366	WORD	n/a	n/a	GOLD	12	2	[0, 0, 0]	n/a	FR1	7	R1299T
316.238	0.0	316989	WORD_OFF	n/a	n/a	GOLD	12	2	[0, 0, 0]	n/a	FR1	7	R1299T
316.238	0.0	316989	ENCODING_END	n/a	n/a	n/a	-999	2	[0, 0, 0]	n/a	FR1	7	R1299T
316.238	0.001	316989	DISTRACT_START	n/a	n/a	n/a	-999	2	[0, 0, 0]	n/a	FR1	7	R1299T
316.239	0.015	316990	START	n/a	n/a	n/a	-999	2	[-999, -999, -999]	n/a	FR1	7	R1299T
316.254	7.353	317005	PROB	7.353	n/a	n/a	-999	2	[6, 4, 9]	19	FR1	7	R1299T
323.607	3.449	324358	PROB	3.449	n/a	n/a	-999	2	[2, 5, 6]	13	FR1	7	R1299T
327.056	3.117	327807	PROB	3.117	n/a	n/a	-999	2	[3, 3, 8]	14	FR1	7	R1299T
330.173	4.901	330923	PROB	4.901	n/a	n/a	-999	2	[6, 9, 3]	18	FR1	7	R1299T
335.074	2.339	335824	PROB	2.339	n/a	n/a	-999	2	[1, 5, 1]	7	FR1	7	R1299T
337.413	0.013	338163	STOP	n/a	n/a	n/a	-999	2	[-999, -999, -999]	n/a	FR1	7	R1299T
337.426	0.567	338176	DISTRACT_END	n/a	n/a	n/a	-999	2	[0, 0, 0]	n/a	FR1	7	R1299T
337.993	1.65	338743	RETRIEVAL_ORIENT_START	n/a	n/a	n/a	-999	2	[0, 0, 0]	n/a	FR1	7	R1299T
339.643	0.0	340393	RETRIEVAL_ORIENT_END	n/a	n/a	n/a	-999	2	[0, 0, 0]	n/a	FR1	7	R1299T
339.643	2.235	340393	REC_START	n/a	n/a	n/a	-999	2	[0, 0, 0]	n/a	FR1	7	R1299T
341.878	0.185	342628	REC_WORD_VV	0.185	n/a	<>	-999	2	[0, 0, 0]	n/a	FR1	7	R1299T
342.063	2.546	342813	REC_WORD	2.546	n/a	SWORD	4	2	[0, 0, 0]	n/a	FR1	7	R1299T
344.609	1.687	345359	REC_WORD	1.687	n/a	PLANE	-999	2	[0, 0, 0]	n/a	FR1	7	R1299T
346.296	2.238	347046	REC_WORD	2.238	n/a	WORM	10	2	[0, 0, 0]	n/a	FR1	7	R1299T
348.534	21.121	349284	REC_WORD	21.121	n/a	GOLD	12	2	[0, 0, 0]	n/a	FR1	7	R1299T
369.655	0.0	370404	REC_END	n/a	n/a	n/a	-999	2	[0, 0, 0]	n/a	FR1	7	R1299T
369.655	0.015	370404	TRIAL_END	n/a	n/a	n/a	-999	2	[0, 0, 0]	n/a	FR1	7	R1299T
369.67	0.001	370419	TRIAL_START	n/a	n/a	n/a	-999	3	[0, 0, 0]	n/a	FR1	7	R1299T
369.671	0.0	370420	TRIAL	n/a	n/a	n/a	-999	3	[0, 0, 0]	n/a	FR1	7	R1299T
369.671	3.762	370420	WAITING_START	n/a	n/a	n/a	-999	3	[0, 0, 0]	n/a	FR1	7	R1299T
373.433	0.0	374181	COUNTDOWN_START	n/a	n/a	n/a	-999	3	[0, 0, 0]	n/a	FR1	7	R1299T
373.433	10.428	374181	WAITING_END	n/a	n/a	n/a	-999	3	[0, 0, 0]	n/a	FR1	7	R1299T
383.861	0.001	384609	COUNTDOWN_END	n/a	n/a	n/a	-999	3	[0, 0, 0]	n/a	FR1	7	R1299T
383.862	1.105	384610	ORIENT_START	n/a	n/a	n/a	-999	3	[0, 0, 0]	n/a	FR1	7	R1299T
384.967	0.0	385715	ORIENT_END	n/a	n/a	n/a	-999	3	[0, 0, 0]	n/a	FR1	7	R1299T
384.967	1.059	385715	ENCODING_START	n/a	n/a	n/a	-999	3	[0, 0, 0]	n/a	FR1	7	R1299T
386.026	1.626	386774	WORD	n/a	n/a	SHIELD	1	3	[0, 0, 0]	n/a	FR1	7	R1299T
387.652	1.03	388400	WORD_OFF	n/a	n/a	SHIELD	1	3	[0, 0, 0]	n/a	FR1	7	R1299T
388.682	1.636	389430	WORD	n/a	n/a	LEG	2	3	[0, 0, 0]	n/a	FR1	7	R1299T
390.318	0.945	391066	WORD_OFF	n/a	n/a	LEG	2	3	[0, 0, 0]	n/a	FR1	7	R1299T
391.263	1.623	392010	WORD	n/a	n/a	FORT	3	3	[0, 0, 0]	n/a	FR1	7	R1299T
392.886	0.777	393633	WORD_OFF	n/a	n/a	FORT	3	3	[0, 0, 0]	n/a	FR1	7	R1299T
393.663	1.623	394410	WORD	n/a	n/a	SEED	4	3	[0, 0, 0]	n/a	FR1	7	R1299T
395.286	1.021	396033	WORD_OFF	n/a	n/a	SEED	4	3	[0, 0, 0]	n/a	FR1	7	R1299T
396.307	1.629	397054	WORD	n/a	n/a	SIGN	5	3	[0, 0, 0]	n/a	FR1	7	R1299T
397.936	0.78	398683	WORD_OFF	n/a	n/a	SIGN	5	3	[0, 0, 0]	n/a	FR1	7	R1299T
398.716	1.62	399463	WORD	n/a	n/a	ROOF	6	3	[0, 0, 0]	n/a	FR1	7	R1299T
400.336	0.87	401083	WORD_OFF	n/a	n/a	ROOF	6	3	[0, 0, 0]	n/a	FR1	7	R1299T
401.206	1.615	401953	WORD	n/a	n/a	MOLE	7	3	[0, 0, 0]	n/a	FR1	7	R1299T
402.821	0.977	403568	WORD_OFF	n/a	n/a	MOLE	7	3	[0, 0, 0]	n/a	FR1	7	R1299T
403.798	1.624	404545	WORD	n/a	n/a	MAIL	8	3	[0, 0, 0]	n/a	FR1	7	R1299T
405.422	0.984	406169	WORD_OFF	n/a	n/a	MAIL	8	3	[0, 0, 0]	n/a	FR1	7	R1299T
406.406	1.632	407153	WORD	n/a	n/a	CLOWN	9	3	[0, 0, 0]	n/a	FR1	7	R1299T
408.038	1.089	408785	WORD_OFF	n/a	n/a	CLOWN	9	3	[0, 0, 0]	n/a	FR1	7	R1299T
409.127	1.612	409874	WORD	n/a	n/a	FUR	10	3	[0, 0, 0]	n/a	FR1	7	R1299T
410.739	1.133	411486	WORD_OFF	n/a	n/a	FUR	10	3	[0, 0, 0]	n/a	FR1	7	R1299T
411.872	1.634	412618	WORD	n/a	n/a	BOY	11	3	[0, 0, 0]	n/a	FR1	7	R1299T
413.506	0.885	414252	WORD_OFF	n/a	n/a	BOY	11	3	[0, 0, 0]	n/a	FR1	7	R1299T
414.391	1.632	415137	WORD	n/a	n/a	CLOTH	12	3	[0, 0, 0]	n/a	FR1	7	R1299T
416.023	0.0	416769	WORD_OFF	n/a	n/a	CLOTH	12	3	[0, 0, 0]	n/a	FR1	7	R1299T
416.023	0.0	416769	ENCODING_END	n/a	n/a	n/a	-999	3	[0, 0, 0]	n/a	FR1	7	R1299T
416.023	0.001	416769	DISTRACT_START	n/a	n/a	n/a	-999	3	[0, 0, 0]	n/a	FR1	7	R1299T
416.024	0.015	416770	START	n/a	n/a	n/a	-999	3	[-999, -999, -999]	n/a	FR1	7	R1299T
416.039	5.034	416785	PROB	5.034	n/a	n/a	-999	3	[3, 8, 9]	20	FR1	7	R1299T
421.073	4.301	421819	PROB	4.301	n/a	n/a	-999	3	[8, 9, 8]	25	FR1	7	R1299T
425.374	3.285	426120	PROB	3.285	n/a	n/a	-999	3	[5, 8, 1]	14	FR1	7	R1299T
428.659	3.416	429405	PROB	3.416	n/a	n/a	-999	3	[4, 3, 1]	8	FR1	7	R1299T
432.075	5.707	432821	PROB	5.707	n/a	n/a	-999	3	[9, 6, 7]	21	FR1	7	R1299T
437.782	0.012	438527	STOP	n/a	n/a	n/a	-999	3	[-999, -999, -999]	n/a	FR1	7	R1299T
437.794	0.676	438539	DISTRACT_END	n/a	n/a	n/a	-999	3	[0, 0, 0]	n/a	FR1	7	R1299T
438.47	1.707	439215	RETRIEVAL_ORIENT_START	n/a	n/a	n/a	-999	3	[0, 0, 0]	n/a	FR1	7	R1299T
440.177	0.0	440922	RETRIEVAL_ORIENT_END	n/a	n/a	n/a	-999	3	[0, 0, 0]	n/a	FR1	7	R1299T
440.177	0.951	440922	REC_START	n/a	n/a	n/a	-999	3	[0, 0, 0]	n/a	FR1	7	R1299T
441.128	4.069	441873	REC_WORD_VV	4.069	n/a	<>	-999	3	[0, 0, 0]	n/a	FR1	7	R1299T
445.197	2.714	445942	REC_WORD_VV	2.714	n/a	<>	-999	3	[0, 0, 0]	n/a	FR1	7	R1299T
447.911	1.747	448656	REC_WORD	1.747	n/a	CLOWN	9	3	[0, 0, 0]	n/a	FR1	7	R1299T
449.658	1.721	450403	REC_WORD	1.721	n/a	MAIL	8	3	[0, 0, 0]	n/a	FR1	7	R1299T
451.379	0.235	452124	REC_WORD_VV	0.235	n/a	<>	-999	3	[0, 0, 0]	n/a	FR1	7	R1299T
451.614	2.873	452359	REC_WORD	2.873	n/a	BOY	11	3	[0, 0, 0]	n/a	FR1	7	R1299T
454.487	7.524	455231	REC_WORD_VV	7.524	n/a	<>	-999	3	[0, 0, 0]	n/a	FR1	7	R1299T
462.011	1.0	462755	REC_WORD	1.0	n/a	FUR	10	3	[0, 0, 0]	n/a	FR1	7	R1299T
463.011	7.18	463755	REC_WORD_VV	7.18	n/a	<>	-999	3	[0, 0, 0]	n/a	FR1	7	R1299T
470.191	0.0	470935	REC_END	n/a	n/a	n/a	-999	3	[0, 0, 0]	n/a	FR1	7	R1299T
470.191	0.015	470935	TRIAL_END	n/a	n/a	n/a	-999	3	[0, 0, 0]	n/a	FR1	7	R1299T
470.206	0.001	470950	TRIAL_START	n/a	n/a	n/a	-999	4	[0, 0, 0]	n/a	FR1	7	R1299T
470.207	0.0	470951	TRIAL	n/a	n/a	n/a	-999	4	[0, 0, 0]	n/a	FR1	7	R1299T
470.207	3.059	470951	WAITING_START	n/a	n/a	n/a	-999	4	[0, 0, 0]	n/a	FR1	7	R1299T
473.266	0.001	474010	WAITING_END	n/a	n/a	n/a	-999	4	[0, 0, 0]	n/a	FR1	7	R1299T
473.267	10.428	474011	COUNTDOWN_START	n/a	n/a	n/a	-999	4	[0, 0, 0]	n/a	FR1	7	R1299T
483.695	0.0	484438	COUNTDOWN_END	n/a	n/a	n/a	-999	4	[0, 0, 0]	n/a	FR1	7	R1299T
483.695	1.224	484438	ORIENT_START	n/a	n/a	n/a	-999	4	[0, 0, 0]	n/a	FR1	7	R1299T
484.919	0.001	485662	ORIENT_END	n/a	n/a	n/a	-999	4	[0, 0, 0]	n/a	FR1	7	R1299T
484.92	0.792	485663	ENCODING_START	n/a	n/a	n/a	-999	4	[0, 0, 0]	n/a	FR1	7	R1299T
485.712	1.624	486455	WORD	n/a	n/a	MOOSE	1	4	[0, 0, 0]	n/a	FR1	7	R1299T
487.336	0.803	488079	WORD_OFF	n/a	n/a	MOOSE	1	4	[0, 0, 0]	n/a	FR1	7	R1299T
488.139	1.614	488882	WORD	n/a	n/a	CASH	2	4	[0, 0, 0]	n/a	FR1	7	R1299T
489.753	1.036	490496	WORD_OFF	n/a	n/a	CASH	2	4	[0, 0, 0]	n/a	FR1	7	R1299T
490.789	1.632	491532	WORD	n/a	n/a	RUG	3	4	[0, 0, 0]	n/a	FR1	7	R1299T
492.421	0.924	493164	WORD_OFF	n/a	n/a	RUG	3	4	[0, 0, 0]	n/a	FR1	7	R1299T
493.345	1.625	494088	WORD	n/a	n/a	WALL	4	4	[0, 0, 0]	n/a	FR1	7	R1299T
494.97	1.022	495713	WORD_OFF	n/a	n/a	WALL	4	4	[0, 0, 0]	n/a	FR1	7	R1299T
495.992	1.63	496734	WORD	n/a	n/a	ROSE	5	4	[0, 0, 0]	n/a	FR1	7	R1299T
497.622	0.915	498364	WORD_OFF	n/a	n/a	ROSE	5	4	[0, 0, 0]	n/a	FR1	7	R1299T
498.537	1.634	499279	WORD	n/a	n/a	SALT	6	4	[0, 0, 0]	n/a	FR1	7	R1299T
500.171	0.991	500913	WORD_OFF	n/a	n/a	SALT	6	4	[0, 0, 0]	n/a	FR1	7	R1299T
501.162	1.627	501904	WORD	n/a	n/a	CAT	7	4	[0, 0, 0]	n/a	FR1	7	R1299T
502.789	0.815	503531	WORD_OFF	n/a	n/a	CAT	7	4	[0, 0, 0]	n/a	FR1	7	R1299T
503.604	1.635	504346	WORD	n/a	n/a	OWL	8	4	[0, 0, 0]	n/a	FR1	7	R1299T
505.239	1.012	505981	WORD_OFF	n/a	n/a	OWL	8	4	[0, 0, 0]	n/a	FR1	7	R1299T
506.251	1.623	506993	WORD	n/a	n/a	MOON	9	4	[0, 0, 0]	n/a	FR1	7	R1299T
507.874	1.062	508616	WORD_OFF	n/a	n/a	MOON	9	4	[0, 0, 0]	n/a	FR1	7	R1299T
508.936	1.638	509678	WORD	n/a	n/a	CORD	10	4	[0, 0, 0]	n/a	FR1	7	R1299T
510.574	0.953	511316	WORD_OFF	n/a	n/a	CORD	10	4	[0, 0, 0]	n/a	FR1	7	R1299T
511.527	1.63	512269	WORD	n/a	n/a	BLUSH	11	4	[0, 0, 0]	n/a	FR1	7	R1299T
513.157	0.905	513899	WORD_OFF	n/a	n/a	BLUSH	11	4	[0, 0, 0]	n/a	FR1	7	R1299T
514.062	1.613	514804	WORD	n/a	n/a	MULE	12	4	[0, 0, 0]	n/a	FR1	7	R1299T
515.675	0.001	516417	WORD_OFF	n/a	n/a	MULE	12	4	[0, 0, 0]	n/a	FR1	7	R1299T
515.676	0.0	516418	ENCODING_END	n/a	n/a	n/a	-999	4	[0, 0, 0]	n/a	FR1	7	R1299T
515.676	0.0	516418	DISTRACT_START	n/a	n/a	n/a	-999	4	[0, 0, 0]	n/a	FR1	7	R1299T
515.676	0.015	516418	START	n/a	n/a	n/a	-999	4	[-999, -999, -999]	n/a	FR1	7	R1299T
515.691	3.567	516433	PROB	3.567	n/a	n/a	-999	4	[9, 5, 5]	19	FR1	7	R1299T
519.258	4.134	519999	PROB	4.134	n/a	n/a	-999	4	[2, 9, 9]	20	FR1	7	R1299T
523.392	4.567	524133	PROB	4.567	n/a	n/a	-999	4	[7, 2, 2]	11	FR1	7	R1299T
527.959	3.918	528700	PROB	3.918	n/a	n/a	-999	4	[1, 1, 2]	4	FR1	7	R1299T
531.877	8.118	532618	PROB	8.118	n/a	n/a	-999	4	[6, 9, 7]	22	FR1	7	R1299T
539.995	0.017	540735	STOP	n/a	n/a	n/a	-999	4	[-999, -999, -999]	n/a	FR1	7	R1299T
540.012	0.614	540752	DISTRACT_END	n/a	n/a	n/a	-999	4	[0, 0, 0]	n/a	FR1	7	R1299T
540.626	1.703	541366	RETRIEVAL_ORIENT_START	n/a	n/a	n/a	-999	4	[0, 0, 0]	n/a	FR1	7	R1299T
542.329	0.0	543069	REC_START	n/a	n/a	n/a	-999	4	[0, 0, 0]	n/a	FR1	7	R1299T
542.329	17.184	543069	RETRIEVAL_ORIENT_END	n/a	n/a	n/a	-999	4	[0, 0, 0]	n/a	FR1	7	R1299T
559.513	2.334	560252	REC_WORD	2.334	n/a	CORD	10	4	[0, 0, 0]	n/a	FR1	7	R1299T
561.847	0.398	562586	REC_WORD_VV	0.398	n/a	<>	-999	4	[0, 0, 0]	n/a	FR1	7	R1299T
562.245	1.0	562984	REC_WORD	1.0	n/a	SHIRT	-999	4	[0, 0, 0]	n/a	FR1	7	R1299T
563.245	0.963	563984	REC_WORD_VV	0.963	n/a	<>	-999	4	[0, 0, 0]	n/a	FR1	7	R1299T
564.208	2.759	564947	REC_WORD_VV	2.759	n/a	<>	-999	4	[0, 0, 0]	n/a	FR1	7	R1299T
566.967	5.374	567706	REC_WORD_VV	5.374	n/a	<>	-999	4	[0, 0, 0]	n/a	FR1	7	R1299T
572.341	0.001	573080	REC_END	n/a	n/a	n/a	-999	4	[0, 0, 0]	n/a	FR1	7	R1299T
572.342	0.014	573081	TRIAL_END	n/a	n/a	n/a	-999	4	[0, 0, 0]	n/a	FR1	7	R1299T
572.356	0.0	573095	TRIAL_START	n/a	n/a	n/a	-999	5	[0, 0, 0]	n/a	FR1	7	R1299T
572.356	0.0	573095	TRIAL	n/a	n/a	n/a	-999	5	[0, 0, 0]	n/a	FR1	7	R1299T
572.356	3.063	573095	WAITING_START	n/a	n/a	n/a	-999	5	[0, 0, 0]	n/a	FR1	7	R1299T
575.419	0.001	576158	WAITING_END	n/a	n/a	n/a	-999	5	[0, 0, 0]	n/a	FR1	7	R1299T
575.42	10.429	576159	COUNTDOWN_START	n/a	n/a	n/a	-999	5	[0, 0, 0]	n/a	FR1	7	R1299T
585.849	0.0	586587	COUNTDOWN_END	n/a	n/a	n/a	-999	5	[0, 0, 0]	n/a	FR1	7	R1299T
585.849	1.039	586587	ORIENT_START	n/a	n/a	n/a	-999	5	[0, 0, 0]	n/a	FR1	7	R1299T
586.888	0.0	587626	ENCODING_START	n/a	n/a	n/a	-999	5	[0, 0, 0]	n/a	FR1	7	R1299T
586.888	0.984	587626	ORIENT_END	n/a	n/a	n/a	-999	5	[0, 0, 0]	n/a	FR1	7	R1299T
587.872	1.633	588610	WORD	n/a	n/a	RIB	1	5	[0, 0, 0]	n/a	FR1	7	R1299T
589.505	0.934	590243	WORD_OFF	n/a	n/a	RIB	1	5	[0, 0, 0]	n/a	FR1	7	R1299T
590.439	1.632	591177	WORD	n/a	n/a	FOX	2	5	[0, 0, 0]	n/a	FR1	7	R1299T
592.071	0.931	592809	WORD_OFF	n/a	n/a	FOX	2	5	[0, 0, 0]	n/a	FR1	7	R1299T
593.002	1.637	593740	WORD	n/a	n/a	WAVE	3	5	[0, 0, 0]	n/a	FR1	7	R1299T
594.639	1.046	595377	WORD_OFF	n/a	n/a	WAVE	3	5	[0, 0, 0]	n/a	FR1	7	R1299T
595.685	1.621	596423	WORD	n/a	n/a	ROOT	4	5	[0, 0, 0]	n/a	FR1	7	R1299T
597.306	1.101	598044	WORD_OFF	n/a	n/a	ROOT	4	5	[0, 0, 0]	n/a	FR1	7	R1299T
598.407	1.632	599145	WORD	n/a	n/a	FARM	5	5	[0, 0, 0]	n/a	FR1	7	R1299T
600.039	1.082	600776	WORD_OFF	n/a	n/a	FARM	5	5	[0, 0, 0]	n/a	FR1	7	R1299T
601.121	1.637	601858	WORD	n/a	n/a	LAND	6	5	[0, 0, 0]	n/a	FR1	7	R1299T
602.758	0.943	603495	WORD_OFF	n/a	n/a	LAND	6	5	[0, 0, 0]	n/a	FR1	7	R1299T
603.701	1.623	604438	WORD	n/a	n/a	TANK	7	5	[0, 0, 0]	n/a	FR1	7	R1299T
605.324	1.135	606061	WORD_OFF	n/a	n/a	TANK	7	5	[0, 0, 0]	n/a	FR1	7	R1299T
606.459	1.632	607196	WORD	n/a	n/a	SCHOOL	8	5	[0, 0, 0]	n/a	FR1	7	R1299T
608.091	1.005	608828	WORD_OFF	n/a	n/a	SCHOOL	8	5	[0, 0, 0]	n/a	FR1	7	R1299T
609.096	1.63	609833	WORD	n/a	n/a	WING	9	5	[0, 0, 0]	n/a	FR1	7	R1299T
610.726	0.777	611463	WORD_OFF	n/a	n/a	WING	9	5	[0, 0, 0]	n/a	FR1	7	R1299T
611.503	1.622	612240	WORD	n/a	n/a	SPOON	10	5	[0, 0, 0]	n/a	FR1	7	R1299T
613.125	0.998	613862	WORD_OFF	n/a	n/a	SPOON	10	5	[0, 0, 0]	n/a	FR1	7	R1299T
614.123	1.637	614860	WORD	n/a	n/a	BOOT	11	5	[0, 0, 0]	n/a	FR1	7	R1299T
615.76	0.856	616497	WORD_OFF	n/a	n/a	BOOT	11	5	[0, 0, 0]	n/a	FR1	7	R1299T
616.616	1.627	617353	WORD	n/a	n/a	COUCH	12	5	[0, 0, 0]	n/a	FR1	7	R1299T
618.243	0.0	618980	WORD_OFF	n/a	n/a	COUCH	12	5	[0, 0, 0]	n/a	FR1	7	R1299T
618.243	0.001	618980	ENCODING_END	n/a	n/a	n/a	-999	5	[0, 0, 0]	n/a	FR1	7	R1299T
618.244	0.0	618981	DISTRACT_START	n/a	n/a	n/a	-999	5	[0, 0, 0]	n/a	FR1	7	R1299T
618.244	0.015	618981	START	n/a	n/a	n/a	-999	5	[-999, -999, -999]	n/a	FR1	7	R1299T
618.259	5.718	618996	PROB	5.718	n/a	n/a	-999	5	[2, 8, 2]	12	FR1	7	R1299T
623.977	2.735	624713	PROB	2.735	n/a	n/a	-999	5	[6, 4, 3]	13	FR1	7	R1299T
626.712	3.05	627448	PROB	3.05	n/a	n/a	-999	5	[3, 8, 6]	17	FR1	7	R1299T
629.762	4.818	630498	PROB	4.818	n/a	n/a	-999	5	[8, 5, 6]	19	FR1	7	R1299T
634.58	4.163	635316	PROB	4.163	n/a	n/a	-999	5	[2, 4, 3]	9	FR1	7	R1299T
638.743	0.021	639479	STOP	n/a	n/a	n/a	-999	5	[-999, -999, -999]	n/a	FR1	7	R1299T
638.764	0.657	639500	DISTRACT_END	n/a	n/a	n/a	-999	5	[0, 0, 0]	n/a	FR1	7	R1299T
639.421	1.726	640157	RETRIEVAL_ORIENT_START	n/a	n/a	n/a	-999	5	[0, 0, 0]	n/a	FR1	7	R1299T
641.147	0.0	641883	RETRIEVAL_ORIENT_END	n/a	n/a	n/a	-999	5	[0, 0, 0]	n/a	FR1	7	R1299T
641.147	1.806	641883	REC_START	n/a	n/a	n/a	-999	5	[0, 0, 0]	n/a	FR1	7	R1299T
642.953	0.155	643688	REC_WORD_VV	0.155	n/a	<>	-999	5	[0, 0, 0]	n/a	FR1	7	R1299T
643.108	1.856	643843	REC_WORD	1.856	n/a	COUCH	12	5	[0, 0, 0]	n/a	FR1	7	R1299T
644.964	4.849	645699	REC_WORD	4.849	n/a	FOX	2	5	[0, 0, 0]	n/a	FR1	7	R1299T
649.813	21.348	650548	REC_WORD	21.348	n/a	RIB	1	5	[0, 0, 0]	n/a	FR1	7	R1299T
671.161	0.0	671895	REC_END	n/a	n/a	n/a	-999	5	[0, 0, 0]	n/a	FR1	7	R1299T
671.161	0.016	671895	TRIAL_END	n/a	n/a	n/a	-999	5	[0, 0, 0]	n/a	FR1	7	R1299T
671.177	0.0	671911	TRIAL	n/a	n/a	n/a	-999	6	[0, 0, 0]	n/a	FR1	7	R1299T
671.177	0.001	671911	TRIAL_START	n/a	n/a	n/a	-999	6	[0, 0, 0]	n/a	FR1	7	R1299T
671.178	1.891	671912	WAITING_START	n/a	n/a	n/a	-999	6	[0, 0, 0]	n/a	FR1	7	R1299T
673.069	0.001	673803	WAITING_END	n/a	n/a	n/a	-999	6	[0, 0, 0]	n/a	FR1	7	R1299T
673.07	10.429	673804	COUNTDOWN_START	n/a	n/a	n/a	-999	6	[0, 0, 0]	n/a	FR1	7	R1299T
683.499	0.0	684232	COUNTDOWN_END	n/a	n/a	n/a	-999	6	[0, 0, 0]	n/a	FR1	7	R1299T
683.499	1.207	684232	ORIENT_START	n/a	n/a	n/a	-999	6	[0, 0, 0]	n/a	FR1	7	R1299T
684.706	0.0	685439	ORIENT_END	n/a	n/a	n/a	-999	6	[0, 0, 0]	n/a	FR1	7	R1299T
684.706	1.074	685439	ENCODING_START	n/a	n/a	n/a	-999	6	[0, 0, 0]	n/a	FR1	7	R1299T
685.78	1.626	686513	WORD	n/a	n/a	NET	1	6	[0, 0, 0]	n/a	FR1	7	R1299T
687.406	0.907	688139	WORD_OFF	n/a	n/a	NET	1	6	[0, 0, 0]	n/a	FR1	7	R1299T
688.313	1.626	689046	WORD	n/a	n/a	ROPE	2	6	[0, 0, 0]	n/a	FR1	7	R1299T
689.939	1.134	690672	WORD_OFF	n/a	n/a	ROPE	2	6	[0, 0, 0]	n/a	FR1	7	R1299T
691.073	1.634	691806	WORD	n/a	n/a	STOVE	3	6	[0, 0, 0]	n/a	FR1	7	R1299T
692.707	1.036	693440	WORD_OFF	n/a	n/a	STOVE	3	6	[0, 0, 0]	n/a	FR1	7	R1299T
693.743	1.63	694476	WORD	n/a	n/a	WOLF	4	6	[0, 0, 0]	n/a	FR1	7	R1299T
695.373	1.111	696106	WORD_OFF	n/a	n/a	WOLF	4	6	[0, 0, 0]	n/a	FR1	7	R1299T
696.484	1.623	697217	WORD	n/a	n/a	CORN	5	6	[0, 0, 0]	n/a	FR1	7	R1299T
698.107	0.775	698840	WORD_OFF	n/a	n/a	CORN	5	6	[0, 0, 0]	n/a	FR1	7	R1299T
698.882	1.627	699615	WORD	n/a	n/a	SEAT	6	6	[0, 0, 0]	n/a	FR1	7	R1299T
700.509	0.923	701242	WORD_OFF	n/a	n/a	SEAT	6	6	[0, 0, 0]	n/a	FR1	7	R1299T
701.432	1.626	702165	WORD	n/a	n/a	LAMB	7	6	[0, 0, 0]	n/a	FR1	7	R1299T
703.058	0.78	703791	WORD_OFF	n/a	n/a	LAMB	7	6	[0, 0, 0]	n/a	FR1	7	R1299T
703.838	1.622	704571	WORD	n/a	n/a	FOG	8	6	[0, 0, 0]	n/a	FR1	7	R1299T
705.46	1.105	706192	WORD_OFF	n/a	n/a	FOG	8	6	[0, 0, 0]	n/a	FR1	7	R1299T
706.565	1.627	707297	WORD	n/a	n/a	BLOOM	9	6	[0, 0, 0]	n/a	FR1	7	R1299T
708.192	0.934	708924	WORD_OFF	n/a	n/a	BLOOM	9	6	[0, 0, 0]	n/a	FR1	7	R1299T
709.126	1.618	709858	WORD	n/a	n/a	SEA	10	6	[0, 0, 0]	n/a	FR1	7	R1299T
710.744	0.979	711476	WORD_OFF	n/a	n/a	SEA	10	6	[0, 0, 0]	n/a	FR1	7	R1299T
711.723	1.62	712455	WORD	n/a	n/a	RAKE	11	6	[0, 0, 0]	n/a	FR1	7	R1299T
713.343	0.959	714075	WORD_OFF	n/a	n/a	RAKE	11	6	[0, 0, 0]	n/a	FR1	7	R1299T
714.302	1.625	715034	WORD	n/a	n/a	SKI	12	6	[0, 0, 0]	n/a	FR1	7	R1299T
715.927	0.0	716659	WORD_OFF	n/a	n/a	SKI	12	6	[0, 0, 0]	n/a	FR1	7	R1299T
715.927	0.001	716659	ENCODING_END	n/a	n/a	n/a	-999	6	[0, 0, 0]	n/a	FR1	7	R1299T
715.928	0.0	716660	DISTRACT_START	n/a	n/a	n/a	-999	6	[0, 0, 0]	n/a	FR1	7	R1299T
715.928	0.016	716660	START	n/a	n/a	n/a	-999	6	[-999, -999, -999]	n/a	FR1	7	R1299T
715.944	4.518	716676	PROB	4.518	n/a	n/a	-999	6	[3, 9, 4]	16	FR1	7	R1299T
720.462	4.55	721194	PROB	4.55	n/a	n/a	-999	6	[6, 5, 5]	16	FR1	7	R1299T
725.012	4.885	725744	PROB	4.885	n/a	n/a	-999	6	[5, 4, 7]	16	FR1	7	R1299T
729.897	4.534	730628	PROB	4.534	n/a	n/a	-999	6	[6, 3, 8]	17	FR1	7	R1299T
734.431	3.2	735162	PROB	3.2	n/a	n/a	-999	6	[5, 9, 1]	15	FR1	7	R1299T
737.631	0.018	738362	STOP	n/a	n/a	n/a	-999	6	[-999, -999, -999]	n/a	FR1	7	R1299T
737.649	0.689	738380	DISTRACT_END	n/a	n/a	n/a	-999	6	[0, 0, 0]	n/a	FR1	7	R1299T
738.338	1.66	739069	RETRIEVAL_ORIENT_START	n/a	n/a	n/a	-999	6	[0, 0, 0]	n/a	FR1	7	R1299T
739.998	0.0	740729	REC_START	n/a	n/a	n/a	-999	6	[0, 0, 0]	n/a	FR1	7	R1299T
739.998	3.601	740729	RETRIEVAL_ORIENT_END	n/a	n/a	n/a	-999	6	[0, 0, 0]	n/a	FR1	7	R1299T
743.599	2.091	744330	REC_WORD	2.091	n/a	NET	1	6	[0, 0, 0]	n/a	FR1	7	R1299T
745.69	2.351	746421	REC_WORD	2.351	n/a	WOLF	4	6	[0, 0, 0]	n/a	FR1	7	R1299T
748.041	2.849	748771	REC_WORD	2.849	n/a	LAMB	7	6	[0, 0, 0]	n/a	FR1	7	R1299T
750.89	19.121	751620	REC_WORD	19.121	n/a	SEA	10	6	[0, 0, 0]	n/a	FR1	7	R1299T
770.011	0.0	770740	REC_END	n/a	n/a	n/a	-999	6	[0, 0, 0]	n/a	FR1	7	R1299T
770.011	0.015	770740	TRIAL_END	n/a	n/a	n/a	-999	6	[0, 0, 0]	n/a	FR1	7	R1299T
770.026	0.0	770755	TRIAL	n/a	n/a	n/a	-999	7	[0, 0, 0]	n/a	FR1	7	R1299T
770.026	0.0	770755	WAITING_START	n/a	n/a	n/a	-999	7	[0, 0, 0]	n/a	FR1	7	R1299T
770.026	3.679	770755	TRIAL_START	n/a	n/a	n/a	-999	7	[0, 0, 0]	n/a	FR1	7	R1299T
773.705	0.001	774434	WAITING_END	n/a	n/a	n/a	-999	7	[0, 0, 0]	n/a	FR1	7	R1299T
773.706	10.428	774435	COUNTDOWN_START	n/a	n/a	n/a	-999	7	[0, 0, 0]	n/a	FR1	7	R1299T
784.134	0.001	784863	COUNTDOWN_END	n/a	n/a	n/a	-999	7	[0, 0, 0]	n/a	FR1	7	R1299T
784.135	1.088	784864	ORIENT_START	n/a	n/a	n/a	-999	7	[0, 0, 0]	n/a	FR1	7	R1299T
785.223	0.0	785952	ORIENT_END	n/a	n/a	n/a	-999	7	[0, 0, 0]	n/a	FR1	7	R1299T
785.223	0.986	785952	ENCODING_START	n/a	n/a	n/a	-999	7	[0, 0, 0]	n/a	FR1	7	R1299T
786.209	1.632	786938	WORD	n/a	n/a	TOOTH	1	7	[0, 0, 0]	n/a	FR1	7	R1299T
787.841	0.863	788570	WORD_OFF	n/a	n/a	TOOTH	1	7	[0, 0, 0]	n/a	FR1	7	R1299T
788.704	1.62	789432	WORD	n/a	n/a	LAKE	2	7	[0, 0, 0]	n/a	FR1	7	R1299T
790.324	1.11	791052	WORD_OFF	n/a	n/a	LAKE	2	7	[0, 0, 0]	n/a	FR1	7	R1299T
791.434	1.624	792162	WORD	n/a	n/a	COIN	3	7	[0, 0, 0]	n/a	FR1	7	R1299T
793.058	1.026	793786	WORD_OFF	n/a	n/a	COIN	3	7	[0, 0, 0]	n/a	FR1	7	R1299T
794.084	1.625	794812	WORD	n/a	n/a	HAT	4	7	[0, 0, 0]	n/a	FR1	7	R1299T
795.709	0.869	796437	WORD_OFF	n/a	n/a	HAT	4	7	[0, 0, 0]	n/a	FR1	7	R1299T
796.578	1.631	797306	WORD	n/a	n/a	BADGE	5	7	[0, 0, 0]	n/a	FR1	7	R1299T
798.209	0.925	798937	WORD_OFF	n/a	n/a	BADGE	5	7	[0, 0, 0]	n/a	FR1	7	R1299T
799.134	1.609	799862	WORD	n/a	n/a	VINE	6	7	[0, 0, 0]	n/a	FR1	7	R1299T
800.743	0.812	801471	WORD_OFF	n/a	n/a	VINE	6	7	[0, 0, 0]	n/a	FR1	7	R1299T
801.555	1.621	802283	WORD	n/a	n/a	CAR	7	7	[0, 0, 0]	n/a	FR1	7	R1299T
803.176	0.971	803904	WORD_OFF	n/a	n/a	CAR	7	7	[0, 0, 0]	n/a	FR1	7	R1299T
804.147	1.614	804875	WORD	n/a	n/a	HEART	8	7	[0, 0, 0]	n/a	FR1	7	R1299T
805.761	0.913	806489	WORD_OFF	n/a	n/a	HEART	8	7	[0, 0, 0]	n/a	FR1	7	R1299T
806.674	1.636	807402	WORD	n/a	n/a	APE	9	7	[0, 0, 0]	n/a	FR1	7	R1299T
808.31	0.76	809038	WORD_OFF	n/a	n/a	APE	9	7	[0, 0, 0]	n/a	FR1	7	R1299T
809.07	1.609	809797	WORD	n/a	n/a	FROG	10	7	[0, 0, 0]	n/a	FR1	7	R1299T
810.679	0.818	811406	WORD_OFF	n/a	n/a	FROG	10	7	[0, 0, 0]	n/a	FR1	7	R1299T
811.497	1.631	812224	WORD	n/a	n/a	PIG	11	7	[0, 0, 0]	n/a	FR1	7	R1299T
813.128	0.881	813855	WORD_OFF	n/a	n/a	PIG	11	7	[0, 0, 0]	n/a	FR1	7	R1299T
814.009	1.637	814736	WORD	n/a	n/a	BOMB	12	7	[0, 0, 0]	n/a	FR1	7	R1299T
815.646	0.0	816373	WORD_OFF	n/a	n/a	BOMB	12	7	[0, 0, 0]	n/a	FR1	7	R1299T
815.646	0.001	816373	ENCODING_END	n/a	n/a	n/a	-999	7	[0, 0, 0]	n/a	FR1	7	R1299T
815.647	0.0	816374	DISTRACT_START	n/a	n/a	n/a	-999	7	[0, 0, 0]	n/a	FR1	7	R1299T
815.647	0.016	816374	START	n/a	n/a	n/a	-999	7	[-999, -999, -999]	n/a	FR1	7	R1299T
815.663	3.599	816390	PROB	3.599	n/a	n/a	-999	7	[7, 9, 2]	18	FR1	7	R1299T
819.262	4.118	819989	PROB	4.118	n/a	n/a	-999	7	[6, 9, 9]	24	FR1	7	R1299T
823.38	3.667	824107	PROB	3.667	n/a	n/a	-999	7	[7, 3, 6]	16	FR1	7	R1299T
827.047	3.967	827774	PROB	3.967	n/a	n/a	-999	7	[4, 4, 1]	9	FR1	7	R1299T
831.014	6.075	831740	PROB	6.075	n/a	n/a	-999	7	[1, 7, 8]	16	FR1	7	R1299T
837.089	0.01	837815	STOP	n/a	n/a	n/a	-999	7	[-999, -999, -999]	n/a	FR1	7	R1299T
837.099	0.609	837825	DISTRACT_END	n/a	n/a	n/a	-999	7	[0, 0, 0]	n/a	FR1	7	R1299T
837.708	1.608	838434	RETRIEVAL_ORIENT_START	n/a	n/a	n/a	-999	7	[0, 0, 0]	n/a	FR1	7	R1299T
839.316	0.0	840042	RETRIEVAL_ORIENT_END	n/a	n/a	n/a	-999	7	[0, 0, 0]	n/a	FR1	7	R1299T
839.316	7.636	840042	REC_START	n/a	n/a	n/a	-999	7	[0, 0, 0]	n/a	FR1	7	R1299T
846.952	2.163	847678	REC_WORD	2.163	n/a	FROG	10	7	[0, 0, 0]	n/a	FR1	7	R1299T
849.115	3.91	849841	REC_WORD	3.91	n/a	NET	-999	7	[0, 0, 0]	n/a	FR1	7	R1299T
853.025	16.305	853750	REC_WORD	16.305	n/a	TOOTH	1	7	[0, 0, 0]	n/a	FR1	7	R1299T
869.33	0.0	870055	REC_END	n/a	n/a	n/a	-999	7	[0, 0, 0]	n/a	FR1	7	R1299T
869.33	0.016	870055	TRIAL_END	n/a	n/a	n/a	-999	7	[0, 0, 0]	n/a	FR1	7	R1299T
869.346	0.0	870071	TRIAL_START	n/a	n/a	n/a	-999	8	[0, 0, 0]	n/a	FR1	7	R1299T
869.346	0.0	870071	TRIAL	n/a	n/a	n/a	-999	8	[0, 0, 0]	n/a	FR1	7	R1299T
869.346	1.759	870071	WAITING_START	n/a	n/a	n/a	-999	8	[0, 0, 0]	n/a	FR1	7	R1299T
871.105	0.001	871830	WAITING_END	n/a	n/a	n/a	-999	8	[0, 0, 0]	n/a	FR1	7	R1299T
871.106	10.428	871831	COUNTDOWN_START	n/a	n/a	n/a	-999	8	[0, 0, 0]	n/a	FR1	7	R1299T
881.534	0.001	882258	COUNTDOWN_END	n/a	n/a	n/a	-999	8	[0, 0, 0]	n/a	FR1	7	R1299T
881.535	1.14	882259	ORIENT_START	n/a	n/a	n/a	-999	8	[0, 0, 0]	n/a	FR1	7	R1299T
882.675	0.0	883399	ORIENT_END	n/a	n/a	n/a	-999	8	[0, 0, 0]	n/a	FR1	7	R1299T
882.675	1.096	883399	ENCODING_START	n/a	n/a	n/a	-999	8	[0, 0, 0]	n/a	FR1	7	R1299T
883.771	1.638	884495	WORD	n/a	n/a	POND	1	8	[0, 0, 0]	n/a	FR1	7	R1299T
885.409	0.934	886133	WORD_OFF	n/a	n/a	POND	1	8	[0, 0, 0]	n/a	FR1	7	R1299T
886.343	1.632	887067	WORD	n/a	n/a	SPONGE	2	8	[0, 0, 0]	n/a	FR1	7	R1299T
887.975	0.986	888699	WORD_OFF	n/a	n/a	SPONGE	2	8	[0, 0, 0]	n/a	FR1	7	R1299T
888.961	1.632	889685	WORD	n/a	n/a	CLOUD	3	8	[0, 0, 0]	n/a	FR1	7	R1299T
890.593	0.842	891317	WORD_OFF	n/a	n/a	CLOUD	3	8	[0, 0, 0]	n/a	FR1	7	R1299T
891.435	1.624	892159	WORD	n/a	n/a	GEESE	4	8	[0, 0, 0]	n/a	FR1	7	R1299T
893.059	0.954	893782	WORD_OFF	n/a	n/a	GEESE	4	8	[0, 0, 0]	n/a	FR1	7	R1299T
894.013	1.614	894736	WORD	n/a	n/a	OAK	5	8	[0, 0, 0]	n/a	FR1	7	R1299T
895.627	1.138	896350	WORD_OFF	n/a	n/a	OAK	5	8	[0, 0, 0]	n/a	FR1	7	R1299T
896.765	1.629	897488	WORD	n/a	n/a	TEETH	6	8	[0, 0, 0]	n/a	FR1	7	R1299T
898.394	0.935	899117	WORD_OFF	n/a	n/a	TEETH	6	8	[0, 0, 0]	n/a	FR1	7	R1299T
899.329	1.632	900052	WORD	n/a	n/a	SWAMP	7	8	[0, 0, 0]	n/a	FR1	7	R1299T
900.961	0.928	901684	WORD_OFF	n/a	n/a	SWAMP	7	8	[0, 0, 0]	n/a	FR1	7	R1299T
901.889	1.623	902612	WORD	n/a	n/a	AXE	8	8	[0, 0, 0]	n/a	FR1	7	R1299T
903.512	0.829	904235	WORD_OFF	n/a	n/a	AXE	8	8	[0, 0, 0]	n/a	FR1	7	R1299T
904.341	1.637	905064	WORD	n/a	n/a	CHEEK	9	8	[0, 0, 0]	n/a	FR1	7	R1299T
905.978	0.883	906701	WORD_OFF	n/a	n/a	CHEEK	9	8	[0, 0, 0]	n/a	FR1	7	R1299T
906.861	1.635	907584	WORD	n/a	n/a	BOX	10	8	[0, 0, 0]	n/a	FR1	7	R1299T
908.496	0.849	909219	WORD_OFF	n/a	n/a	BOX	10	8	[0, 0, 0]	n/a	FR1	7	R1299T
909.345	1.634	910068	WORD	n/a	n/a	TRAY	11	8	[0, 0, 0]	n/a	FR1	7	R1299T
910.979	1.119	911702	WORD_OFF	n/a	n/a	TRAY	11	8	[0, 0, 0]	n/a	FR1	7	R1299T
912.098	1.633	912821	WORD	n/a	n/a	SINK	12	8	[0, 0, 0]	n/a	FR1	7	R1299T
913.731	0.0	914453	ENCODING_END	n/a	n/a	n/a	-999	8	[0, 0, 0]	n/a	FR1	7	R1299T
913.731	0.001	914453	WORD_OFF	n/a	n/a	SINK	12	8	[0, 0, 0]	n/a	FR1	7	R1299T
913.732	0.0	914454	DISTRACT_START	n/a	n/a	n/a	-999	8	[0, 0, 0]	n/a	FR1	7	R1299T
913.732	0.015	914454	START	n/a	n/a	n/a	-999	8	[-999, -999, -999]	n/a	FR1	7	R1299T
913.747	4.034	914469	PROB	4.034	n/a	n/a	-999	8	[6, 7, 8]	21	FR1	7	R1299T
917.781	2.333	918503	PROB	2.333	n/a	n/a	-999	8	[3, 9, 9]	21	FR1	7	R1299T
920.114	4.468	920836	PROB	4.468	n/a	n/a	-999	8	[1, 9, 9]	19	FR1	7	R1299T
924.582	3.683	925304	PROB	3.683	n/a	n/a	-999	8	[7, 7, 7]	21	FR1	7	R1299T
928.265	3.068	928987	PROB	3.068	n/a	n/a	-999	8	[5, 9, 5]	19	FR1	7	R1299T
931.333	3.416	932055	PROB	3.416	n/a	n/a	-999	8	[3, 4, 3]	10	FR1	7	R1299T
934.749	0.019	935470	STOP	n/a	n/a	n/a	-999	8	[-999, -999, -999]	n/a	FR1	7	R1299T
934.768	0.586	935489	DISTRACT_END	n/a	n/a	n/a	-999	8	[0, 0, 0]	n/a	FR1	7	R1299T
935.354	1.647	936075	RETRIEVAL_ORIENT_START	n/a	n/a	n/a	-999	8	[0, 0, 0]	n/a	FR1	7	R1299T
937.001	0.0	937722	RETRIEVAL_ORIENT_END	n/a	n/a	n/a	-999	8	[0, 0, 0]	n/a	FR1	7	R1299T
937.001	4.533	937722	REC_START	n/a	n/a	n/a	-999	8	[0, 0, 0]	n/a	FR1	7	R1299T
941.534	3.149	942255	REC_WORD	3.149	n/a	SWAMP	7	8	[0, 0, 0]	n/a	FR1	7	R1299T
944.683	0.35	945404	REC_WORD_VV	0.35	n/a	<>	-999	8	[0, 0, 0]	n/a	FR1	7	R1299T
945.033	3.092	945754	REC_WORD	3.092	n/a	CLOUD	3	8	[0, 0, 0]	n/a	FR1	7	R1299T
948.125	18.889	948846	REC_WORD_VV	18.889	n/a	<>	-999	8	[0, 0, 0]	n/a	FR1	7	R1299T
967.014	0.001	967734	REC_END	n/a	n/a	n/a	-999	8	[0, 0, 0]	n/a	FR1	7	R1299T
967.015	0.015	967735	TRIAL_END	n/a	n/a	n/a	-999	8	[0, 0, 0]	n/a	FR1	7	R1299T
967.03	0.0	967750	TRIAL_START	n/a	n/a	n/a	-999	9	[0, 0, 0]	n/a	FR1	7	R1299T
967.03	0.0	967750	TRIAL	n/a	n/a	n/a	-999	9	[0, 0, 0]	n/a	FR1	7	R1299T
967.03	2.678	967750	WAITING_START	n/a	n/a	n/a	-999	9	[0, 0, 0]	n/a	FR1	7	R1299T
969.708	0.0	970428	WAITING_END	n/a	n/a	n/a	-999	9	[0, 0, 0]	n/a	FR1	7	R1299T
969.708	10.428	970428	COUNTDOWN_START	n/a	n/a	n/a	-999	9	[0, 0, 0]	n/a	FR1	7	R1299T
980.136	0.001	980855	COUNTDOWN_END	n/a	n/a	n/a	-999	9	[0, 0, 0]	n/a	FR1	7	R1299T
980.137	1.238	980856	ORIENT_START	n/a	n/a	n/a	-999	9	[0, 0, 0]	n/a	FR1	7	R1299T
981.375	0.001	982094	ORIENT_END	n/a	n/a	n/a	-999	9	[0, 0, 0]	n/a	FR1	7	R1299T
981.376	0.875	982095	ENCODING_START	n/a	n/a	n/a	-999	9	[0, 0, 0]	n/a	FR1	7	R1299T
982.251	1.626	982970	WORD	n/a	n/a	BROOM	1	9	[0, 0, 0]	n/a	FR1	7	R1299T
983.877	0.795	984596	WORD_OFF	n/a	n/a	BROOM	1	9	[0, 0, 0]	n/a	FR1	7	R1299T
984.672	1.621	985391	WORD	n/a	n/a	CUP	2	9	[0, 0, 0]	n/a	FR1	7	R1299T
986.293	0.934	987012	WORD_OFF	n/a	n/a	CUP	2	9	[0, 0, 0]	n/a	FR1	7	R1299T
987.227	1.617	987946	WORD	n/a	n/a	WHEEL	3	9	[0, 0, 0]	n/a	FR1	7	R1299T
988.844	1.065	989563	WORD_OFF	n/a	n/a	WHEEL	3	9	[0, 0, 0]	n/a	FR1	7	R1299T
989.909	1.636	990628	WORD	n/a	n/a	SLIME	4	9	[0, 0, 0]	n/a	FR1	7	R1299T
991.545	0.872	992264	WORD_OFF	n/a	n/a	SLIME	4	9	[0, 0, 0]	n/a	FR1	7	R1299T
992.417	1.627	993136	WORD	n/a	n/a	MUG	5	9	[0, 0, 0]	n/a	FR1	7	R1299T
994.044	1.109	994763	WORD_OFF	n/a	n/a	MUG	5	9	[0, 0, 0]	n/a	FR1	7	R1299T
995.153	1.626	995872	WORD	n/a	n/a	HEN	6	9	[0, 0, 0]	n/a	FR1	7	R1299T
996.779	0.896	997498	WORD_OFF	n/a	n/a	HEN	6	9	[0, 0, 0]	n/a	FR1	7	R1299T
997.675	1.62	998393	WORD	n/a	n/a	JAIL	7	9	[0, 0, 0]	n/a	FR1	7	R1299T
999.295	1.015	1000013	WORD_OFF	n/a	n/a	JAIL	7	9	[0, 0, 0]	n/a	FR1	7	R1299T
1000.31	1.636	1001028	WORD	n/a	n/a	RAT	8	9	[0, 0, 0]	n/a	FR1	7	R1299T
1001.946	0.928	1002664	WORD_OFF	n/a	n/a	RAT	8	9	[0, 0, 0]	n/a	FR1	7	R1299T
1002.874	1.623	1003592	WORD	n/a	n/a	TOAD	9	9	[0, 0, 0]	n/a	FR1	7	R1299T
1004.497	0.979	1005215	WORD_OFF	n/a	n/a	TOAD	9	9	[0, 0, 0]	n/a	FR1	7	R1299T
1005.476	1.637	1006194	WORD	n/a	n/a	FRUIT	10	9	[0, 0, 0]	n/a	FR1	7	R1299T
1007.113	1.151	1007831	WORD_OFF	n/a	n/a	FRUIT	10	9	[0, 0, 0]	n/a	FR1	7	R1299T
1008.264	1.617	1008982	WORD	n/a	n/a	SHARK	11	9	[0, 0, 0]	n/a	FR1	7	R1299T
1009.881	0.782	1010599	WORD_OFF	n/a	n/a	SHARK	11	9	[0, 0, 0]	n/a	FR1	7	R1299T
1010.663	1.635	1011381	WORD	n/a	n/a	SOCK	12	9	[0, 0, 0]	n/a	FR1	7	R1299T
1012.298	0.0	1013016	ENCODING_END	n/a	n/a	n/a	-999	9	[0, 0, 0]	n/a	FR1	7	R1299T
1012.298	0.0	1013016	DISTRACT_START	n/a	n/a	n/a	-999	9	[0, 0, 0]	n/a	FR1	7	R1299T
1012.298	0.0	1013016	WORD_OFF	n/a	n/a	SOCK	12	9	[0, 0, 0]	n/a	FR1	7	R1299T
1012.298	0.016	1013016	START	n/a	n/a	n/a	-999	9	[-999, -999, -999]	n/a	FR1	7	R1299T
1012.314	4.135	1013032	PROB	4.135	n/a	n/a	-999	9	[7, 2, 5]	14	FR1	7	R1299T
1016.449	2.716	1017167	PROB	2.716	n/a	n/a	-999	9	[6, 2, 4]	12	FR1	7	R1299T
1019.165	4.285	1019882	PROB	4.285	n/a	n/a	-999	9	[4, 9, 3]	16	FR1	7	R1299T
1023.45	3.617	1024167	PROB	3.617	n/a	n/a	-999	9	[9, 4, 3]	16	FR1	7	R1299T
1027.067	3.518	1027784	PROB	3.518	n/a	n/a	-999	9	[5, 1, 8]	14	FR1	7	R1299T
1030.585	3.354	1031302	PROB	3.354	n/a	n/a	-999	9	[4, 7, 9]	20	FR1	7	R1299T
1033.939	0.013	1034656	STOP	n/a	n/a	n/a	-999	9	[-999, -999, -999]	n/a	FR1	7	R1299T
1033.952	0.604	1034669	DISTRACT_END	n/a	n/a	n/a	-999	9	[0, 0, 0]	n/a	FR1	7	R1299T
1034.556	1.546	1035273	RETRIEVAL_ORIENT_START	n/a	n/a	n/a	-999	9	[0, 0, 0]	n/a	FR1	7	R1299T
1036.102	0.0	1036819	RETRIEVAL_ORIENT_END	n/a	n/a	n/a	-999	9	[0, 0, 0]	n/a	FR1	7	R1299T
1036.102	1.692	1036819	REC_START	n/a	n/a	n/a	-999	9	[0, 0, 0]	n/a	FR1	7	R1299T
1037.794	3.554	1038511	REC_WORD	3.554	n/a	BROOM	1	9	[0, 0, 0]	n/a	FR1	7	R1299T
1041.348	3.723	1042064	REC_WORD	3.723	n/a	CUP	2	9	[0, 0, 0]	n/a	FR1	7	R1299T
1045.071	3.469	1045787	REC_WORD	3.469	n/a	SLIME	4	9	[0, 0, 0]	n/a	FR1	7	R1299T
1048.54	3.176	1049256	REC_WORD_VV	3.176	n/a	<>	-999	9	[0, 0, 0]	n/a	FR1	7	R1299T
1051.716	14.399	1052432	REC_WORD	14.399	n/a	WHEEL	3	9	[0, 0, 0]	n/a	FR1	7	R1299T
1066.115	0.0	1066830	REC_END	n/a	n/a	n/a	-999	9	[0, 0, 0]	n/a	FR1	7	R1299T
1066.115	0.015	1066830	TRIAL_END	n/a	n/a	n/a	-999	9	[0, 0, 0]	n/a	FR1	7	R1299T
1066.13	0.0	1066845	TRIAL_START	n/a	n/a	n/a	-999	10	[0, 0, 0]	n/a	FR1	7	R1299T
1066.13	0.001	1066845	TRIAL	n/a	n/a	n/a	-999	10	[0, 0, 0]	n/a	FR1	7	R1299T
1066.131	5.362	1066846	WAITING_START	n/a	n/a	n/a	-999	10	[0, 0, 0]	n/a	FR1	7	R1299T
1071.493	0.0	1072208	WAITING_END	n/a	n/a	n/a	-999	10	[0, 0, 0]	n/a	FR1	7	R1299T
1071.493	10.429	1072208	COUNTDOWN_START	n/a	n/a	n/a	-999	10	[0, 0, 0]	n/a	FR1	7	R1299T
1081.922	0.001	1082636	COUNTDOWN_END	n/a	n/a	n/a	-999	10	[0, 0, 0]	n/a	FR1	7	R1299T
1081.923	1.038	1082637	ORIENT_START	n/a	n/a	n/a	-999	10	[0, 0, 0]	n/a	FR1	7	R1299T
1082.961	0.0	1083675	ORIENT_END	n/a	n/a	n/a	-999	10	[0, 0, 0]	n/a	FR1	7	R1299T
1082.961	0.756	1083675	ENCODING_START	n/a	n/a	n/a	-999	10	[0, 0, 0]	n/a	FR1	7	R1299T
1083.717	1.627	1084431	WORD	n/a	n/a	FLUTE	1	10	[0, 0, 0]	n/a	FR1	7	R1299T
1085.344	0.998	1086058	WORD_OFF	n/a	n/a	FLUTE	1	10	[0, 0, 0]	n/a	FR1	7	R1299T
1086.342	1.636	1087056	WORD	n/a	n/a	ROOM	2	10	[0, 0, 0]	n/a	FR1	7	R1299T
1087.978	1.045	1088692	WORD_OFF	n/a	n/a	ROOM	2	10	[0, 0, 0]	n/a	FR1	7	R1299T
1089.023	1.606	1089737	WORD	n/a	n/a	EAR	3	10	[0, 0, 0]	n/a	FR1	7	R1299T
1090.629	0.772	1091343	WORD_OFF	n/a	n/a	EAR	3	10	[0, 0, 0]	n/a	FR1	7	R1299T
1091.401	1.628	1092115	WORD	n/a	n/a	PEA	4	10	[0, 0, 0]	n/a	FR1	7	R1299T
1093.029	1.135	1093743	WORD_OFF	n/a	n/a	PEA	4	10	[0, 0, 0]	n/a	FR1	7	R1299T
1094.164	1.616	1094878	WORD	n/a	n/a	HOLE	5	10	[0, 0, 0]	n/a	FR1	7	R1299T
1095.78	0.76	1096494	WORD_OFF	n/a	n/a	HOLE	5	10	[0, 0, 0]	n/a	FR1	7	R1299T
1096.54	1.623	1097254	WORD	n/a	n/a	STEAK	6	10	[0, 0, 0]	n/a	FR1	7	R1299T
1098.163	0.905	1098877	WORD_OFF	n/a	n/a	STEAK	6	10	[0, 0, 0]	n/a	FR1	7	R1299T
1099.068	1.63	1099782	WORD	n/a	n/a	ANT	7	10	[0, 0, 0]	n/a	FR1	7	R1299T
1100.698	1.132	1101412	WORD_OFF	n/a	n/a	ANT	7	10	[0, 0, 0]	n/a	FR1	7	R1299T
1101.83	1.635	1102543	WORD	n/a	n/a	BEE	8	10	[0, 0, 0]	n/a	FR1	7	R1299T
1103.465	0.864	1104178	WORD_OFF	n/a	n/a	BEE	8	10	[0, 0, 0]	n/a	FR1	7	R1299T
1104.329	1.636	1105042	WORD	n/a	n/a	HAND	9	10	[0, 0, 0]	n/a	FR1	7	R1299T
1105.965	0.934	1106678	WORD_OFF	n/a	n/a	HAND	9	10	[0, 0, 0]	n/a	FR1	7	R1299T
1106.899	1.634	1107612	WORD	n/a	n/a	LIP	10	10	[0, 0, 0]	n/a	FR1	7	R1299T
1108.533	0.763	1109246	WORD_OFF	n/a	n/a	LIP	10	10	[0, 0, 0]	n/a	FR1	7	R1299T
1109.296	1.636	1110009	WORD	n/a	n/a	MOUTH	11	10	[0, 0, 0]	n/a	FR1	7	R1299T
1110.932	0.772	1111645	WORD_OFF	n/a	n/a	MOUTH	11	10	[0, 0, 0]	n/a	FR1	7	R1299T
1111.704	1.629	1112417	WORD	n/a	n/a	STICK	12	10	[0, 0, 0]	n/a	FR1	7	R1299T
1113.333	0.0	1114046	ENCODING_END	n/a	n/a	n/a	-999	10	[0, 0, 0]	n/a	FR1	7	R1299T
1113.333	0.0	1114046	DISTRACT_START	n/a	n/a	n/a	-999	10	[0, 0, 0]	n/a	FR1	7	R1299T
1113.333	0.0	1114046	WORD_OFF	n/a	n/a	STICK	12	10	[0, 0, 0]	n/a	FR1	7	R1299T
1113.333	0.016	1114046	START	n/a	n/a	n/a	-999	10	[-999, -999, -999]	n/a	FR1	7	R1299T
1113.349	5.968	1114062	PROB	5.968	n/a	n/a	-999	10	[1, 8, 3]	12	FR1	7	R1299T
1119.317	6.335	1120030	PROB	6.335	n/a	n/a	-999	10	[9, 6, 8]	23	FR1	7	R1299T
1125.652	4.234	1126364	PROB	4.234	n/a	n/a	-999	10	[1, 8, 3]	12	FR1	7	R1299T
1129.886	4.44	1130598	PROB	4.44	n/a	n/a	-999	10	[2, 6, 5]	13	FR1	7	R1299T
1134.326	0.01	1135038	STOP	n/a	n/a	n/a	-999	10	[-999, -999, -999]	n/a	FR1	7	R1299T
1134.336	0.572	1135048	DISTRACT_END	n/a	n/a	n/a	-999	10	[0, 0, 0]	n/a	FR1	7	R1299T
1134.908	1.613	1135620	RETRIEVAL_ORIENT_START	n/a	n/a	n/a	-999	10	[0, 0, 0]	n/a	FR1	7	R1299T
1136.521	0.0	1137233	RETRIEVAL_ORIENT_END	n/a	n/a	n/a	-999	10	[0, 0, 0]	n/a	FR1	7	R1299T
1136.521	7.947	1137233	REC_START	n/a	n/a	n/a	-999	10	[0, 0, 0]	n/a	FR1	7	R1299T
1144.468	2.928	1145179	REC_WORD	2.928	n/a	BROOM	-999	10	[0, 0, 0]	n/a	FR1	7	R1299T
1147.396	1.888	1148107	REC_WORD_VV	1.888	n/a	<>	-999	10	[0, 0, 0]	n/a	FR1	7	R1299T
1149.284	4.389	1149995	REC_WORD	4.389	n/a	STICK	12	10	[0, 0, 0]	n/a	FR1	7	R1299T
1153.673	11.8	1154384	REC_WORD	11.8	n/a	PEA	4	10	[0, 0, 0]	n/a	FR1	7	R1299T
1165.473	1.06	1166183	REC_WORD	1.06	n/a	ROOM	2	10	[0, 0, 0]	n/a	FR1	7	R1299T
1166.533	0.001	1167243	REC_END	n/a	n/a	n/a	-999	10	[0, 0, 0]	n/a	FR1	7	R1299T
1166.534	0.015	1167244	TRIAL_END	n/a	n/a	n/a	-999	10	[0, 0, 0]	n/a	FR1	7	R1299T
1166.549	0.001	1167259	TRIAL_START	n/a	n/a	n/a	-999	11	[0, 0, 0]	n/a	FR1	7	R1299T
1166.55	0.0	1167260	TRIAL	n/a	n/a	n/a	-999	11	[0, 0, 0]	n/a	FR1	7	R1299T
1166.55	1.894	1167260	WAITING_START	n/a	n/a	n/a	-999	11	[0, 0, 0]	n/a	FR1	7	R1299T
1168.444	0.0	1169154	WAITING_END	n/a	n/a	n/a	-999	11	[0, 0, 0]	n/a	FR1	7	R1299T
1168.444	10.428	1169154	COUNTDOWN_START	n/a	n/a	n/a	-999	11	[0, 0, 0]	n/a	FR1	7	R1299T
1178.872	0.001	1179582	COUNTDOWN_END	n/a	n/a	n/a	-999	11	[0, 0, 0]	n/a	FR1	7	R1299T
1178.873	1.088	1179583	ORIENT_START	n/a	n/a	n/a	-999	11	[0, 0, 0]	n/a	FR1	7	R1299T
1179.961	0.001	1180671	ORIENT_END	n/a	n/a	n/a	-999	11	[0, 0, 0]	n/a	FR1	7	R1299T
1179.962	1.011	1180672	ENCODING_START	n/a	n/a	n/a	-999	11	[0, 0, 0]	n/a	FR1	7	R1299T
1180.973	1.64	1181683	WORD	n/a	n/a	SPARK	1	11	[0, 0, 0]	n/a	FR1	7	R1299T
1182.613	1.142	1183323	WORD_OFF	n/a	n/a	SPARK	1	11	[0, 0, 0]	n/a	FR1	7	R1299T
1183.755	1.624	1184465	WORD	n/a	n/a	SLUSH	2	11	[0, 0, 0]	n/a	FR1	7	R1299T
1185.379	0.755	1186088	WORD_OFF	n/a	n/a	SLUSH	2	11	[0, 0, 0]	n/a	FR1	7	R1299T
1186.134	1.613	1186843	WORD	n/a	n/a	BARN	3	11	[0, 0, 0]	n/a	FR1	7	R1299T
1187.747	0.817	1188456	WORD_OFF	n/a	n/a	BARN	3	11	[0, 0, 0]	n/a	FR1	7	R1299T
1188.564	1.633	1189273	WORD	n/a	n/a	ROAD	4	11	[0, 0, 0]	n/a	FR1	7	R1299T
1190.197	1.096	1190906	WORD_OFF	n/a	n/a	ROAD	4	11	[0, 0, 0]	n/a	FR1	7	R1299T
1191.293	1.605	1192002	WORD	n/a	n/a	TIE	5	11	[0, 0, 0]	n/a	FR1	7	R1299T
1192.898	0.89	1193607	WORD_OFF	n/a	n/a	TIE	5	11	[0, 0, 0]	n/a	FR1	7	R1299T
1193.788	1.627	1194497	WORD	n/a	n/a	SOAP	6	11	[0, 0, 0]	n/a	FR1	7	R1299T
1195.415	1.06	1196124	WORD_OFF	n/a	n/a	SOAP	6	11	[0, 0, 0]	n/a	FR1	7	R1299T
1196.475	1.623	1197184	WORD	n/a	n/a	ARM	7	11	[0, 0, 0]	n/a	FR1	7	R1299T
1198.098	0.759	1198807	WORD_OFF	n/a	n/a	ARM	7	11	[0, 0, 0]	n/a	FR1	7	R1299T
1198.857	1.626	1199566	WORD	n/a	n/a	PEN	8	11	[0, 0, 0]	n/a	FR1	7	R1299T
1200.483	1.15	1201192	WORD_OFF	n/a	n/a	PEN	8	11	[0, 0, 0]	n/a	FR1	7	R1299T
1201.633	1.633	1202342	WORD	n/a	n/a	SNAKE	9	11	[0, 0, 0]	n/a	FR1	7	R1299T
1203.266	0.984	1203975	WORD_OFF	n/a	n/a	SNAKE	9	11	[0, 0, 0]	n/a	FR1	7	R1299T
1204.25	1.634	1204959	WORD	n/a	n/a	BEACH	10	11	[0, 0, 0]	n/a	FR1	7	R1299T
1205.884	0.987	1206593	WORD_OFF	n/a	n/a	BEACH	10	11	[0, 0, 0]	n/a	FR1	7	R1299T
1206.871	1.63	1207579	WORD	n/a	n/a	CUBE	11	11	[0, 0, 0]	n/a	FR1	7	R1299T
1208.501	0.888	1209209	WORD_OFF	n/a	n/a	CUBE	11	11	[0, 0, 0]	n/a	FR1	7	R1299T
1209.389	1.628	1210097	WORD	n/a	n/a	JET	12	11	[0, 0, 0]	n/a	FR1	7	R1299T
1211.017	0.0	1211725	ENCODING_END	n/a	n/a	n/a	-999	11	[0, 0, 0]	n/a	FR1	7	R1299T
1211.017	0.0	1211725	DISTRACT_START	n/a	n/a	n/a	-999	11	[0, 0, 0]	n/a	FR1	7	R1299T
1211.017	0.001	1211725	WORD_OFF	n/a	n/a	JET	12	11	[0, 0, 0]	n/a	FR1	7	R1299T
1211.018	0.015	1211726	START	n/a	n/a	n/a	-999	11	[-999, -999, -999]	n/a	FR1	7	R1299T
1211.033	4.218	1211741	PROB	4.218	n/a	n/a	-999	11	[1, 1, 3]	5	FR1	7	R1299T
1215.251	2.834	1215959	PROB	2.834	n/a	n/a	-999	11	[9, 2, 1]	12	FR1	7	R1299T
1218.085	3.95	1218793	PROB	3.95	n/a	n/a	-999	11	[1, 3, 1]	5	FR1	7	R1299T
1222.035	4.486	1222743	PROB	4.486	n/a	n/a	-999	11	[9, 8, 5]	22	FR1	7	R1299T
1226.521	4.0	1227229	PROB	4.0	n/a	n/a	-999	11	[9, 1, 8]	18	FR1	7	R1299T
1230.521	5.642	1231228	PROB	5.642	n/a	n/a	-999	11	[6, 3, 2]	11	FR1	7	R1299T
1236.163	0.009	1236870	STOP	n/a	n/a	n/a	-999	11	[-999, -999, -999]	n/a	FR1	7	R1299T
1236.172	0.506	1236879	DISTRACT_END	n/a	n/a	n/a	-999	11	[0, 0, 0]	n/a	FR1	7	R1299T
1236.678	1.677	1237385	RETRIEVAL_ORIENT_START	n/a	n/a	n/a	-999	11	[0, 0, 0]	n/a	FR1	7	R1299T
1238.355	0.001	1239062	RETRIEVAL_ORIENT_END	n/a	n/a	n/a	-999	11	[0, 0, 0]	n/a	FR1	7	R1299T
1238.356	27.554	1239063	REC_START	n/a	n/a	n/a	-999	11	[0, 0, 0]	n/a	FR1	7	R1299T
1265.91	2.459	1266616	REC_WORD_VV	2.459	n/a	<>	-999	11	[0, 0, 0]	n/a	FR1	7	R1299T
1268.369	0.0	1269075	TRIAL_END	n/a	n/a	n/a	-999	11	[0, 0, 0]	n/a	FR1	7	R1299T
1268.369	0.015	1269075	REC_END	n/a	n/a	n/a	-999	11	[0, 0, 0]	n/a	FR1	7	R1299T
1268.384	0.0	1269090	TRIAL	n/a	n/a	n/a	-999	12	[0, 0, 0]	n/a	FR1	7	R1299T
1268.384	0.0	1269090	WAITING_START	n/a	n/a	n/a	-999	12	[0, 0, 0]	n/a	FR1	7	R1299T
1268.384	2.495	1269090	TRIAL_START	n/a	n/a	n/a	-999	12	[0, 0, 0]	n/a	FR1	7	R1299T
1270.879	0.0	1271584	WAITING_END	n/a	n/a	n/a	-999	12	[0, 0, 0]	n/a	FR1	7	R1299T
1270.879	10.43	1271584	COUNTDOWN_START	n/a	n/a	n/a	-999	12	[0, 0, 0]	n/a	FR1	7	R1299T
1281.309	0.0	1282014	COUNTDOWN_END	n/a	n/a	n/a	-999	12	[0, 0, 0]	n/a	FR1	7	R1299T
1281.309	1.255	1282014	ORIENT_START	n/a	n/a	n/a	-999	12	[0, 0, 0]	n/a	FR1	7	R1299T
1282.564	0.001	1283269	ORIENT_END	n/a	n/a	n/a	-999	12	[0, 0, 0]	n/a	FR1	7	R1299T
1282.565	0.987	1283270	ENCODING_START	n/a	n/a	n/a	-999	12	[0, 0, 0]	n/a	FR1	7	R1299T
1283.552	1.629	1284257	WORD	n/a	n/a	FOAM	1	12	[0, 0, 0]	n/a	FR1	7	R1299T
1285.181	0.904	1285886	WORD_OFF	n/a	n/a	FOAM	1	12	[0, 0, 0]	n/a	FR1	7	R1299T
1286.085	1.613	1286790	WORD	n/a	n/a	GLASS	2	12	[0, 0, 0]	n/a	FR1	7	R1299T
1287.698	0.899	1288403	WORD_OFF	n/a	n/a	GLASS	2	12	[0, 0, 0]	n/a	FR1	7	R1299T
1288.597	1.634	1289302	WORD	n/a	n/a	HOSE	3	12	[0, 0, 0]	n/a	FR1	7	R1299T
1290.231	0.765	1290935	WORD_OFF	n/a	n/a	HOSE	3	12	[0, 0, 0]	n/a	FR1	7	R1299T
1290.996	1.637	1291700	WORD	n/a	n/a	MAZE	4	12	[0, 0, 0]	n/a	FR1	7	R1299T
1292.633	0.799	1293337	WORD_OFF	n/a	n/a	MAZE	4	12	[0, 0, 0]	n/a	FR1	7	R1299T
1293.432	1.634	1294136	WORD	n/a	n/a	SAIL	5	12	[0, 0, 0]	n/a	FR1	7	R1299T
1295.066	1.053	1295770	WORD_OFF	n/a	n/a	SAIL	5	12	[0, 0, 0]	n/a	FR1	7	R1299T
1296.119	1.631	1296823	WORD	n/a	n/a	TRUCK	6	12	[0, 0, 0]	n/a	FR1	7	R1299T
1297.75	0.903	1298454	WORD_OFF	n/a	n/a	TRUCK	6	12	[0, 0, 0]	n/a	FR1	7	R1299T
1298.653	1.63	1299357	WORD	n/a	n/a	WEED	7	12	[0, 0, 0]	n/a	FR1	7	R1299T
1300.283	1.151	1300987	WORD_OFF	n/a	n/a	WEED	7	12	[0, 0, 0]	n/a	FR1	7	R1299T
1301.434	1.633	1302138	WORD	n/a	n/a	STAIR	8	12	[0, 0, 0]	n/a	FR1	7	R1299T
1303.067	0.9	1303771	WORD_OFF	n/a	n/a	STAIR	8	12	[0, 0, 0]	n/a	FR1	7	R1299T
1303.967	1.635	1304671	WORD	n/a	n/a	SLEEVE	9	12	[0, 0, 0]	n/a	FR1	7	R1299T
1305.602	1.097	1306306	WORD_OFF	n/a	n/a	SLEEVE	9	12	[0, 0, 0]	n/a	FR1	7	R1299T
1306.699	1.636	1307403	WORD	n/a	n/a	HOOF	10	12	[0, 0, 0]	n/a	FR1	7	R1299T
1308.335	1.023	1309039	WORD_OFF	n/a	n/a	HOOF	10	12	[0, 0, 0]	n/a	FR1	7	R1299T
1309.358	1.627	1310062	WORD	n/a	n/a	CANE	11	12	[0, 0, 0]	n/a	FR1	7	R1299T
1310.985	0.916	1311688	WORD_OFF	n/a	n/a	CANE	11	12	[0, 0, 0]	n/a	FR1	7	R1299T
1311.901	1.636	1312604	WORD	n/a	n/a	FOOD	12	12	[0, 0, 0]	n/a	FR1	7	R1299T
1313.537	0.0	1314240	WORD_OFF	n/a	n/a	FOOD	12	12	[0, 0, 0]	n/a	FR1	7	R1299T
1313.537	0.0	1314240	ENCODING_END	n/a	n/a	n/a	-999	12	[0, 0, 0]	n/a	FR1	7	R1299T
1313.537	0.001	1314240	DISTRACT_START	n/a	n/a	n/a	-999	12	[0, 0, 0]	n/a	FR1	7	R1299T
1313.538	0.015	1314241	START	n/a	n/a	n/a	-999	12	[-999, -999, -999]	n/a	FR1	7	R1299T
1313.553	4.833	1314256	PROB	4.833	n/a	n/a	-999	12	[3, 9, 1]	13	FR1	7	R1299T
1318.386	4.651	1319089	PROB	4.651	n/a	n/a	-999	12	[2, 4, 6]	12	FR1	7	R1299T
1323.037	3.051	1323740	PROB	3.051	n/a	n/a	-999	12	[7, 5, 7]	19	FR1	7	R1299T
1326.088	5.335	1326791	PROB	5.335	n/a	n/a	-999	12	[6, 1, 4]	11	FR1	7	R1299T
1331.423	3.78	1332126	PROB	3.78	n/a	n/a	-999	12	[8, 3, 7]	18	FR1	7	R1299T
1335.203	0.02	1335905	STOP	n/a	n/a	n/a	-999	12	[-999, -999, -999]	n/a	FR1	7	R1299T
1335.223	0.643	1335925	DISTRACT_END	n/a	n/a	n/a	-999	12	[0, 0, 0]	n/a	FR1	7	R1299T
1335.866	1.575	1336568	RETRIEVAL_ORIENT_START	n/a	n/a	n/a	-999	12	[0, 0, 0]	n/a	FR1	7	R1299T
1337.441	0.0	1338143	REC_START	n/a	n/a	n/a	-999	12	[0, 0, 0]	n/a	FR1	7	R1299T
1337.441	6.52	1338143	RETRIEVAL_ORIENT_END	n/a	n/a	n/a	-999	12	[0, 0, 0]	n/a	FR1	7	R1299T
1343.961	0.31	1344663	REC_WORD_VV	0.31	n/a	<>	-999	12	[0, 0, 0]	n/a	FR1	7	R1299T
1344.271	3.471	1344973	REC_WORD	3.471	n/a	GLASS	2	12	[0, 0, 0]	n/a	FR1	7	R1299T
1347.742	0.458	1348444	REC_WORD_VV	0.458	n/a	<>	-999	12	[0, 0, 0]	n/a	FR1	7	R1299T
1348.2	2.199	1348902	REC_WORD	2.199	n/a	WEEDS	-999	12	[0, 0, 0]	n/a	FR1	7	R1299T
1350.399	8.716	1351101	REC_WORD_VV	8.716	n/a	<>	-999	12	[0, 0, 0]	n/a	FR1	7	R1299T
1359.115	8.339	1359816	REC_WORD	8.339	n/a	SAIL	5	12	[0, 0, 0]	n/a	FR1	7	R1299T
1367.454	0.001	1368155	REC_END	n/a	n/a	n/a	-999	12	[0, 0, 0]	n/a	FR1	7	R1299T
1367.455	0.014	1368156	TRIAL_END	n/a	n/a	n/a	-999	12	[0, 0, 0]	n/a	FR1	7	R1299T
1367.469	0.0	1368170	TRIAL_START	n/a	n/a	n/a	-999	13	[0, 0, 0]	n/a	FR1	7	R1299T
1367.469	0.001	1368170	TRIAL	n/a	n/a	n/a	-999	13	[0, 0, 0]	n/a	FR1	7	R1299T
1367.47	3.444	1368171	WAITING_START	n/a	n/a	n/a	-999	13	[0, 0, 0]	n/a	FR1	7	R1299T
1370.914	0.0	1371615	WAITING_END	n/a	n/a	n/a	-999	13	[0, 0, 0]	n/a	FR1	7	R1299T
1370.914	10.43	1371615	COUNTDOWN_START	n/a	n/a	n/a	-999	13	[0, 0, 0]	n/a	FR1	7	R1299T
1381.344	0.0	1382044	COUNTDOWN_END	n/a	n/a	n/a	-999	13	[0, 0, 0]	n/a	FR1	7	R1299T
1381.344	1.072	1382044	ORIENT_START	n/a	n/a	n/a	-999	13	[0, 0, 0]	n/a	FR1	7	R1299T
1382.416	0.0	1383116	ORIENT_END	n/a	n/a	n/a	-999	13	[0, 0, 0]	n/a	FR1	7	R1299T
1382.416	1.071	1383116	ENCODING_START	n/a	n/a	n/a	-999	13	[0, 0, 0]	n/a	FR1	7	R1299T
1383.487	1.628	1384187	WORD	n/a	n/a	BAND	1	13	[0, 0, 0]	n/a	FR1	7	R1299T
1385.115	0.825	1385815	WORD_OFF	n/a	n/a	BAND	1	13	[0, 0, 0]	n/a	FR1	7	R1299T
1385.94	1.627	1386640	WORD	n/a	n/a	JEEP	2	13	[0, 0, 0]	n/a	FR1	7	R1299T
1387.567	1.095	1388267	WORD_OFF	n/a	n/a	JEEP	2	13	[0, 0, 0]	n/a	FR1	7	R1299T
1388.662	1.621	1389362	WORD	n/a	n/a	SHOE	3	13	[0, 0, 0]	n/a	FR1	7	R1299T
1390.283	1.063	1390983	WORD_OFF	n/a	n/a	SHOE	3	13	[0, 0, 0]	n/a	FR1	7	R1299T
1391.346	1.637	1392046	WORD	n/a	n/a	MUD	4	13	[0, 0, 0]	n/a	FR1	7	R1299T
1392.983	0.87	1393683	WORD_OFF	n/a	n/a	MUD	4	13	[0, 0, 0]	n/a	FR1	7	R1299T
1393.853	1.632	1394553	WORD	n/a	n/a	ICE	5	13	[0, 0, 0]	n/a	FR1	7	R1299T
1395.485	0.957	1396184	WORD_OFF	n/a	n/a	ICE	5	13	[0, 0, 0]	n/a	FR1	7	R1299T
1396.442	1.626	1397141	WORD	n/a	n/a	PEAR	6	13	[0, 0, 0]	n/a	FR1	7	R1299T
1398.068	1.055	1398767	WORD_OFF	n/a	n/a	PEAR	6	13	[0, 0, 0]	n/a	FR1	7	R1299T
1399.123	1.629	1399822	WORD	n/a	n/a	CROW	7	13	[0, 0, 0]	n/a	FR1	7	R1299T
1400.752	1.124	1401451	WORD_OFF	n/a	n/a	CROW	7	13	[0, 0, 0]	n/a	FR1	7	R1299T
1401.876	1.627	1402575	WORD	n/a	n/a	SNOW	8	13	[0, 0, 0]	n/a	FR1	7	R1299T
1403.503	0.805	1404202	WORD_OFF	n/a	n/a	SNOW	8	13	[0, 0, 0]	n/a	FR1	7	R1299T
1404.308	1.628	1405007	WORD	n/a	n/a	SHELL	9	13	[0, 0, 0]	n/a	FR1	7	R1299T
1405.936	1.145	1406635	WORD_OFF	n/a	n/a	SHELL	9	13	[0, 0, 0]	n/a	FR1	7	R1299T
1407.081	1.606	1407780	WORD	n/a	n/a	EEL	10	13	[0, 0, 0]	n/a	FR1	7	R1299T
1408.687	1.051	1409386	WORD_OFF	n/a	n/a	EEL	10	13	[0, 0, 0]	n/a	FR1	7	R1299T
1409.738	1.632	1410437	WORD	n/a	n/a	WOOD	11	13	[0, 0, 0]	n/a	FR1	7	R1299T
1411.37	1.054	1412069	WORD_OFF	n/a	n/a	WOOD	11	13	[0, 0, 0]	n/a	FR1	7	R1299T
1412.424	1.63	1413123	WORD	n/a	n/a	PIT	12	13	[0, 0, 0]	n/a	FR1	7	R1299T
1414.054	0.0	1414753	WORD_OFF	n/a	n/a	PIT	12	13	[0, 0, 0]	n/a	FR1	7	R1299T
1414.054	0.0	1414753	ENCODING_END	n/a	n/a	n/a	-999	13	[0, 0, 0]	n/a	FR1	7	R1299T
1414.054	0.001	1414753	DISTRACT_START	n/a	n/a	n/a	-999	13	[0, 0, 0]	n/a	FR1	7	R1299T
1414.055	0.015	1414754	START	n/a	n/a	n/a	-999	13	[-999, -999, -999]	n/a	FR1	7	R1299T
1414.07	4.951	1414769	PROB	4.951	n/a	n/a	-999	13	[9, 2, 3]	14	FR1	7	R1299T
1419.021	2.967	1419719	PROB	2.967	n/a	n/a	-999	13	[9, 1, 2]	12	FR1	7	R1299T
1421.988	3.585	1422686	PROB	3.585	n/a	n/a	-999	13	[5, 6, 6]	17	FR1	7	R1299T
1425.573	3.101	1426271	PROB	3.101	n/a	n/a	-999	13	[7, 2, 8]	17	FR1	7	R1299T
1428.674	2.934	1429372	PROB	2.934	n/a	n/a	-999	13	[6, 1, 1]	8	FR1	7	R1299T
1431.608	2.837	1432306	PROB	2.837	n/a	n/a	-999	13	[5, 3, 6]	14	FR1	7	R1299T
1434.445	0.014	1435143	STOP	n/a	n/a	n/a	-999	13	[-999, -999, -999]	n/a	FR1	7	R1299T
1434.459	0.608	1435157	DISTRACT_END	n/a	n/a	n/a	-999	13	[0, 0, 0]	n/a	FR1	7	R1299T
1435.067	1.659	1435765	RETRIEVAL_ORIENT_START	n/a	n/a	n/a	-999	13	[0, 0, 0]	n/a	FR1	7	R1299T
1436.726	0.0	1437423	RETRIEVAL_ORIENT_END	n/a	n/a	n/a	-999	13	[0, 0, 0]	n/a	FR1	7	R1299T
1436.726	0.755	1437423	REC_START	n/a	n/a	n/a	-999	13	[0, 0, 0]	n/a	FR1	7	R1299T
1437.481	1.658	1438178	REC_WORD_VV	1.658	n/a	<>	-999	13	[0, 0, 0]	n/a	FR1	7	R1299T
1439.139	2.228	1439836	REC_WORD	2.228	n/a	BAND	1	13	[0, 0, 0]	n/a	FR1	7	R1299T
1441.367	1.816	1442064	REC_WORD	1.816	n/a	JEEP	2	13	[0, 0, 0]	n/a	FR1	7	R1299T
1443.183	2.523	1443880	REC_WORD	2.523	n/a	MUD	4	13	[0, 0, 0]	n/a	FR1	7	R1299T
1445.706	21.032	1446403	REC_WORD_VV	21.032	n/a	<>	-999	13	[0, 0, 0]	n/a	FR1	7	R1299T
1466.738	0.0	1467434	REC_END	n/a	n/a	n/a	-999	13	[0, 0, 0]	n/a	FR1	7	R1299T
1466.738	0.017	1467434	TRIAL_END	n/a	n/a	n/a	-999	13	[0, 0, 0]	n/a	FR1	7	R1299T
1466.755	0.0	1467451	TRIAL	n/a	n/a	n/a	-999	14	[0, 0, 0]	n/a	FR1	7	R1299T
1466.755	0.0	1467451	WAITING_START	n/a	n/a	n/a	-999	14	[0, 0, 0]	n/a	FR1	7	R1299T
1466.755	1.642	1467451	TRIAL_START	n/a	n/a	n/a	-999	14	[0, 0, 0]	n/a	FR1	7	R1299T
1468.397	0.0	1469093	WAITING_END	n/a	n/a	n/a	-999	14	[0, 0, 0]	n/a	FR1	7	R1299T
1468.397	10.43	1469093	COUNTDOWN_START	n/a	n/a	n/a	-999	14	[0, 0, 0]	n/a	FR1	7	R1299T
1478.827	0.0	1479522	COUNTDOWN_END	n/a	n/a	n/a	-999	14	[0, 0, 0]	n/a	FR1	7	R1299T
1478.827	1.239	1479522	ORIENT_START	n/a	n/a	n/a	-999	14	[0, 0, 0]	n/a	FR1	7	R1299T
1480.066	0.0	1480761	ORIENT_END	n/a	n/a	n/a	-999	14	[0, 0, 0]	n/a	FR1	7	R1299T
1480.066	0.831	1480761	ENCODING_START	n/a	n/a	n/a	-999	14	[0, 0, 0]	n/a	FR1	7	R1299T
1480.897	1.637	1481592	WORD	n/a	n/a	WEB	1	14	[0, 0, 0]	n/a	FR1	7	R1299T
1482.534	1.118	1483229	WORD_OFF	n/a	n/a	WEB	1	14	[0, 0, 0]	n/a	FR1	7	R1299T
1483.652	1.631	1484347	WORD	n/a	n/a	STRAW	2	14	[0, 0, 0]	n/a	FR1	7	R1299T
1485.283	0.828	1485978	WORD_OFF	n/a	n/a	STRAW	2	14	[0, 0, 0]	n/a	FR1	7	R1299T
1486.111	1.607	1486806	WORD	n/a	n/a	HORN	3	14	[0, 0, 0]	n/a	FR1	7	R1299T
1487.718	0.903	1488413	WORD_OFF	n/a	n/a	HORN	3	14	[0, 0, 0]	n/a	FR1	7	R1299T
1488.621	1.63	1489316	WORD	n/a	n/a	STEAM	4	14	[0, 0, 0]	n/a	FR1	7	R1299T
1490.251	1.07	1490946	WORD_OFF	n/a	n/a	STEAM	4	14	[0, 0, 0]	n/a	FR1	7	R1299T
1491.321	1.631	1492016	WORD	n/a	n/a	BREAD	5	14	[0, 0, 0]	n/a	FR1	7	R1299T
1492.952	1.021	1493647	WORD_OFF	n/a	n/a	BREAD	5	14	[0, 0, 0]	n/a	FR1	7	R1299T
1493.973	1.63	1494668	WORD	n/a	n/a	POLE	6	14	[0, 0, 0]	n/a	FR1	7	R1299T
1495.603	0.98	1496298	WORD_OFF	n/a	n/a	POLE	6	14	[0, 0, 0]	n/a	FR1	7	R1299T
1496.583	1.636	1497278	WORD	n/a	n/a	DOG	7	14	[0, 0, 0]	n/a	FR1	7	R1299T
1498.219	1.133	1498914	WORD_OFF	n/a	n/a	DOG	7	14	[0, 0, 0]	n/a	FR1	7	R1299T
1499.352	1.634	1500046	WORD	n/a	n/a	KEY	8	14	[0, 0, 0]	n/a	FR1	7	R1299T
1500.986	1.148	1501680	WORD_OFF	n/a	n/a	KEY	8	14	[0, 0, 0]	n/a	FR1	7	R1299T
1502.134	1.62	1502828	WORD	n/a	n/a	DOCK	9	14	[0, 0, 0]	n/a	FR1	7	R1299T
1503.754	0.911	1504448	WORD_OFF	n/a	n/a	DOCK	9	14	[0, 0, 0]	n/a	FR1	7	R1299T
1504.665	1.622	1505359	WORD	n/a	n/a	FLAME	10	14	[0, 0, 0]	n/a	FR1	7	R1299T
1506.287	0.875	1506981	WORD_OFF	n/a	n/a	FLAME	10	14	[0, 0, 0]	n/a	FR1	7	R1299T
1507.162	1.61	1507856	WORD	n/a	n/a	STRING	11	14	[0, 0, 0]	n/a	FR1	7	R1299T
1508.772	0.941	1509466	WORD_OFF	n/a	n/a	STRING	11	14	[0, 0, 0]	n/a	FR1	7	R1299T
1509.713	1.625	1510407	WORD	n/a	n/a	BRUSH	12	14	[0, 0, 0]	n/a	FR1	7	R1299T
1511.338	0.001	1512032	WORD_OFF	n/a	n/a	BRUSH	12	14	[0, 0, 0]	n/a	FR1	7	R1299T
1511.339	0.0	1512033	ENCODING_END	n/a	n/a	n/a	-999	14	[0, 0, 0]	n/a	FR1	7	R1299T
1511.339	0.0	1512033	DISTRACT_START	n/a	n/a	n/a	-999	14	[0, 0, 0]	n/a	FR1	7	R1299T
1511.339	0.016	1512033	START	n/a	n/a	n/a	-999	14	[-999, -999, -999]	n/a	FR1	7	R1299T
1511.355	5.984	1512049	PROB	5.984	n/a	n/a	-999	14	[8, 7, 4]	19	FR1	7	R1299T
1517.339	5.618	1518033	PROB	5.618	n/a	n/a	-999	14	[9, 8, 9]	26	FR1	7	R1299T
1522.957	4.201	1523650	PROB	4.201	n/a	n/a	-999	14	[6, 4, 3]	13	FR1	7	R1299T
1527.158	3.368	1527851	PROB	3.368	n/a	n/a	-999	14	[2, 8, 6]	16	FR1	7	R1299T
1530.526	4.365	1531219	PROB	4.365	n/a	n/a	-999	14	[8, 8, 7]	23	FR1	7	R1299T
1534.891	0.019	1535584	STOP	n/a	n/a	n/a	-999	14	[-999, -999, -999]	n/a	FR1	7	R1299T
1534.91	0.615	1535603	DISTRACT_END	n/a	n/a	n/a	-999	14	[0, 0, 0]	n/a	FR1	7	R1299T
1535.525	1.668	1536218	RETRIEVAL_ORIENT_START	n/a	n/a	n/a	-999	14	[0, 0, 0]	n/a	FR1	7	R1299T
1537.193	0.0	1537886	RETRIEVAL_ORIENT_END	n/a	n/a	n/a	-999	14	[0, 0, 0]	n/a	FR1	7	R1299T
1537.193	3.829	1537886	REC_START	n/a	n/a	n/a	-999	14	[0, 0, 0]	n/a	FR1	7	R1299T
1541.022	1.256	1541714	REC_WORD_VV	1.256	n/a	<>	-999	14	[0, 0, 0]	n/a	FR1	7	R1299T
1542.278	24.233	1542970	REC_WORD	24.233	n/a	STRING	11	14	[0, 0, 0]	n/a	FR1	7	R1299T
1566.511	0.695	1567202	REC_WORD_VV	0.695	n/a	<>	-999	14	[0, 0, 0]	n/a	FR1	7	R1299T
1567.206	0.0	1567897	REC_END	n/a	n/a	n/a	-999	14	[0, 0, 0]	n/a	FR1	7	R1299T
1567.206	0.015	1567897	TRIAL_END	n/a	n/a	n/a	-999	14	[0, 0, 0]	n/a	FR1	7	R1299T
1567.221	0.0	1567912	TRIAL_START	n/a	n/a	n/a	-999	15	[0, 0, 0]	n/a	FR1	7	R1299T
1567.221	0.0	1567912	TRIAL	n/a	n/a	n/a	-999	15	[0, 0, 0]	n/a	FR1	7	R1299T
1567.221	2.696	1567912	WAITING_START	n/a	n/a	n/a	-999	15	[0, 0, 0]	n/a	FR1	7	R1299T
1569.917	0.0	1570608	COUNTDOWN_START	n/a	n/a	n/a	-999	15	[0, 0, 0]	n/a	FR1	7	R1299T
1569.917	10.428	1570608	WAITING_END	n/a	n/a	n/a	-999	15	[0, 0, 0]	n/a	FR1	7	R1299T
1580.345	0.001	1581036	COUNTDOWN_END	n/a	n/a	n/a	-999	15	[0, 0, 0]	n/a	FR1	7	R1299T
1580.346	1.056	1581037	ORIENT_START	n/a	n/a	n/a	-999	15	[0, 0, 0]	n/a	FR1	7	R1299T
1581.402	0.0	1582093	ORIENT_END	n/a	n/a	n/a	-999	15	[0, 0, 0]	n/a	FR1	7	R1299T
1581.402	1.118	1582093	ENCODING_START	n/a	n/a	n/a	-999	15	[0, 0, 0]	n/a	FR1	7	R1299T
1582.52	1.631	1583210	WORD	n/a	n/a	YARD	1	15	[0, 0, 0]	n/a	FR1	7	R1299T
1584.151	1.054	1584841	WORD_OFF	n/a	n/a	YARD	1	15	[0, 0, 0]	n/a	FR1	7	R1299T
1585.205	1.614	1585895	WORD	n/a	n/a	STORM	2	15	[0, 0, 0]	n/a	FR1	7	R1299T
1586.819	1.137	1587509	WORD_OFF	n/a	n/a	STORM	2	15	[0, 0, 0]	n/a	FR1	7	R1299T
1587.956	1.631	1588646	WORD	n/a	n/a	JUDGE	3	15	[0, 0, 0]	n/a	FR1	7	R1299T
1589.587	0.859	1590277	WORD_OFF	n/a	n/a	JUDGE	3	15	[0, 0, 0]	n/a	FR1	7	R1299T
1590.446	1.623	1591136	WORD	n/a	n/a	HAWK	4	15	[0, 0, 0]	n/a	FR1	7	R1299T
1592.069	1.102	1592759	WORD_OFF	n/a	n/a	HAWK	4	15	[0, 0, 0]	n/a	FR1	7	R1299T
1593.171	1.633	1593861	WORD	n/a	n/a	HORSE	5	15	[0, 0, 0]	n/a	FR1	7	R1299T
1594.804	0.926	1595494	WORD_OFF	n/a	n/a	HORSE	5	15	[0, 0, 0]	n/a	FR1	7	R1299T
1595.73	1.624	1596420	WORD	n/a	n/a	PANTS	6	15	[0, 0, 0]	n/a	FR1	7	R1299T
1597.354	1.138	1598044	WORD_OFF	n/a	n/a	PANTS	6	15	[0, 0, 0]	n/a	FR1	7	R1299T
1598.492	1.629	1599182	WORD	n/a	n/a	BAT	7	15	[0, 0, 0]	n/a	FR1	7	R1299T
1600.121	0.895	1600811	WORD_OFF	n/a	n/a	BAT	7	15	[0, 0, 0]	n/a	FR1	7	R1299T
1601.016	1.606	1601706	WORD	n/a	n/a	BIRD	8	15	[0, 0, 0]	n/a	FR1	7	R1299T
1602.622	0.796	1603312	WORD_OFF	n/a	n/a	BIRD	8	15	[0, 0, 0]	n/a	FR1	7	R1299T
1603.418	1.637	1604107	WORD	n/a	n/a	ROCK	9	15	[0, 0, 0]	n/a	FR1	7	R1299T
1605.055	1.08	1605744	WORD_OFF	n/a	n/a	ROCK	9	15	[0, 0, 0]	n/a	FR1	7	R1299T
1606.135	1.638	1606824	WORD	n/a	n/a	ELF	10	15	[0, 0, 0]	n/a	FR1	7	R1299T
1607.773	1.027	1608462	WORD_OFF	n/a	n/a	ELF	10	15	[0, 0, 0]	n/a	FR1	7	R1299T
1608.8	1.624	1609489	WORD	n/a	n/a	PALM	11	15	[0, 0, 0]	n/a	FR1	7	R1299T
1610.424	0.884	1611113	WORD_OFF	n/a	n/a	PALM	11	15	[0, 0, 0]	n/a	FR1	7	R1299T
1611.308	1.632	1611997	WORD	n/a	n/a	LOCK	12	15	[0, 0, 0]	n/a	FR1	7	R1299T
1612.94	0.0	1613629	DISTRACT_START	n/a	n/a	n/a	-999	15	[0, 0, 0]	n/a	FR1	7	R1299T
1612.94	0.0	1613629	ENCODING_END	n/a	n/a	n/a	-999	15	[0, 0, 0]	n/a	FR1	7	R1299T
1612.94	0.001	1613629	WORD_OFF	n/a	n/a	LOCK	12	15	[0, 0, 0]	n/a	FR1	7	R1299T
1612.941	0.015	1613630	START	n/a	n/a	n/a	-999	15	[-999, -999, -999]	n/a	FR1	7	R1299T
1612.956	5.001	1613645	PROB	5.001	n/a	n/a	-999	15	[8, 1, 8]	17	FR1	7	R1299T
1617.957	3.652	1618646	PROB	3.652	n/a	n/a	-999	15	[4, 6, 2]	12	FR1	7	R1299T
1621.609	2.783	1622298	PROB	2.783	n/a	n/a	-999	15	[2, 4, 8]	14	FR1	7	R1299T
1624.392	3.55	1625080	PROB	3.55	n/a	n/a	-999	15	[1, 2, 4]	7	FR1	7	R1299T
1627.942	5.422	1628630	PROB	5.422	n/a	n/a	-999	15	[5, 7, 2]	14	FR1	7	R1299T
1633.364	0.013	1634052	STOP	n/a	n/a	n/a	-999	15	[-999, -999, -999]	n/a	FR1	7	R1299T
1633.377	0.635	1634065	DISTRACT_END	n/a	n/a	n/a	-999	15	[0, 0, 0]	n/a	FR1	7	R1299T
1634.012	1.716	1634700	RETRIEVAL_ORIENT_START	n/a	n/a	n/a	-999	15	[0, 0, 0]	n/a	FR1	7	R1299T
1635.728	0.001	1636416	RETRIEVAL_ORIENT_END	n/a	n/a	n/a	-999	15	[0, 0, 0]	n/a	FR1	7	R1299T
1635.729	2.307	1636417	REC_START	n/a	n/a	n/a	-999	15	[0, 0, 0]	n/a	FR1	7	R1299T
1638.036	0.485	1638724	REC_WORD_VV	0.485	n/a	<>	-999	15	[0, 0, 0]	n/a	FR1	7	R1299T
1638.521	2.51	1639209	REC_WORD	2.51	n/a	JUDGE	3	15	[0, 0, 0]	n/a	FR1	7	R1299T
1641.031	2.803	1641719	REC_WORD	2.803	n/a	YARD	1	15	[0, 0, 0]	n/a	FR1	7	R1299T
1643.834	2.96	1644522	REC_WORD_VV	2.96	n/a	<>	-999	15	[0, 0, 0]	n/a	FR1	7	R1299T
1646.794	3.015	1647481	REC_WORD	3.015	n/a	LOCK	12	15	[0, 0, 0]	n/a	FR1	7	R1299T
1649.809	2.705	1650496	REC_WORD_VV	2.705	n/a	<>	-999	15	[0, 0, 0]	n/a	FR1	7	R1299T
1652.514	13.228	1653201	REC_WORD	13.228	n/a	STRAW	-999	15	[0, 0, 0]	n/a	FR1	7	R1299T
1665.742	0.0	1666429	REC_END	n/a	n/a	n/a	-999	15	[0, 0, 0]	n/a	FR1	7	R1299T
1665.742	0.015	1666429	TRIAL_END	n/a	n/a	n/a	-999	15	[0, 0, 0]	n/a	FR1	7	R1299T
1665.757	0.0	1666444	TRIAL_START	n/a	n/a	n/a	-999	16	[0, 0, 0]	n/a	FR1	7	R1299T
1665.757	0.0	1666444	TRIAL	n/a	n/a	n/a	-999	16	[0, 0, 0]	n/a	FR1	7	R1299T
1665.757	3.56	1666444	WAITING_START	n/a	n/a	n/a	-999	16	[0, 0, 0]	n/a	FR1	7	R1299T
1669.317	0.0	1670003	COUNTDOWN_START	n/a	n/a	n/a	-999	16	[0, 0, 0]	n/a	FR1	7	R1299T
1669.317	10.428	1670003	WAITING_END	n/a	n/a	n/a	-999	16	[0, 0, 0]	n/a	FR1	7	R1299T
1679.745	0.001	1680431	COUNTDOWN_END	n/a	n/a	n/a	-999	16	[0, 0, 0]	n/a	FR1	7	R1299T
1679.746	1.057	1680432	ORIENT_START	n/a	n/a	n/a	-999	16	[0, 0, 0]	n/a	FR1	7	R1299T
1680.803	0.0	1681489	ORIENT_END	n/a	n/a	n/a	-999	16	[0, 0, 0]	n/a	FR1	7	R1299T
1680.803	1.14	1681489	ENCODING_START	n/a	n/a	n/a	-999	16	[0, 0, 0]	n/a	FR1	7	R1299T
1681.943	1.61	1682629	WORD	n/a	n/a	BOAT	1	16	[0, 0, 0]	n/a	FR1	7	R1299T
1683.553	0.777	1684239	WORD_OFF	n/a	n/a	BOAT	1	16	[0, 0, 0]	n/a	FR1	7	R1299T
1684.33	1.623	1685016	WORD	n/a	n/a	STREET	2	16	[0, 0, 0]	n/a	FR1	7	R1299T
1685.953	0.756	1686639	WORD_OFF	n/a	n/a	STREET	2	16	[0, 0, 0]	n/a	FR1	7	R1299T
1686.709	1.628	1687395	WORD	n/a	n/a	MOUSE	3	16	[0, 0, 0]	n/a	FR1	7	R1299T
1688.337	0.89	1689022	WORD_OFF	n/a	n/a	MOUSE	3	16	[0, 0, 0]	n/a	FR1	7	R1299T
1689.227	1.628	1689912	WORD	n/a	n/a	SHEEP	4	16	[0, 0, 0]	n/a	FR1	7	R1299T
1690.855	0.902	1691540	WORD_OFF	n/a	n/a	SHEEP	4	16	[0, 0, 0]	n/a	FR1	7	R1299T
1691.757	1.631	1692442	WORD	n/a	n/a	BUSH	5	16	[0, 0, 0]	n/a	FR1	7	R1299T
1693.388	1.133	1694073	WORD_OFF	n/a	n/a	BUSH	5	16	[0, 0, 0]	n/a	FR1	7	R1299T
1694.521	1.634	1695206	WORD	n/a	n/a	SQUARE	6	16	[0, 0, 0]	n/a	FR1	7	R1299T
1696.155	0.855	1696840	WORD_OFF	n/a	n/a	SQUARE	6	16	[0, 0, 0]	n/a	FR1	7	R1299T
1697.01	1.63	1697695	WORD	n/a	n/a	SHIP	7	16	[0, 0, 0]	n/a	FR1	7	R1299T
1698.64	1.052	1699325	WORD_OFF	n/a	n/a	SHIP	7	16	[0, 0, 0]	n/a	FR1	7	R1299T
1699.692	1.631	1700377	WORD	n/a	n/a	FENCE	8	16	[0, 0, 0]	n/a	FR1	7	R1299T
1701.323	0.905	1702008	WORD_OFF	n/a	n/a	FENCE	8	16	[0, 0, 0]	n/a	FR1	7	R1299T
1702.228	1.629	1702913	WORD	n/a	n/a	BEAK	9	16	[0, 0, 0]	n/a	FR1	7	R1299T
1703.857	0.776	1704542	WORD_OFF	n/a	n/a	BEAK	9	16	[0, 0, 0]	n/a	FR1	7	R1299T
1704.633	1.624	1705318	WORD	n/a	n/a	DITCH	10	16	[0, 0, 0]	n/a	FR1	7	R1299T
1706.257	0.908	1706942	WORD_OFF	n/a	n/a	DITCH	10	16	[0, 0, 0]	n/a	FR1	7	R1299T
1707.165	1.627	1707850	WORD	n/a	n/a	MOTH	11	16	[0, 0, 0]	n/a	FR1	7	R1299T
1708.792	0.833	1709476	WORD_OFF	n/a	n/a	MOTH	11	16	[0, 0, 0]	n/a	FR1	7	R1299T
1709.625	1.633	1710309	WORD	n/a	n/a	CLOCK	12	16	[0, 0, 0]	n/a	FR1	7	R1299T
1711.258	0.0	1711942	WORD_OFF	n/a	n/a	CLOCK	12	16	[0, 0, 0]	n/a	FR1	7	R1299T
1711.258	0.001	1711942	ENCODING_END	n/a	n/a	n/a	-999	16	[0, 0, 0]	n/a	FR1	7	R1299T
1711.259	0.0	1711943	DISTRACT_START	n/a	n/a	n/a	-999	16	[0, 0, 0]	n/a	FR1	7	R1299T
1711.259	0.015	1711943	START	n/a	n/a	n/a	-999	16	[-999, -999, -999]	n/a	FR1	7	R1299T
1711.274	4.469	1711958	PROB	4.469	n/a	n/a	-999	16	[9, 5, 5]	19	FR1	7	R1299T
1715.743	7.483	1716427	PROB	7.483	n/a	n/a	-999	16	[9, 9, 9]	27	FR1	7	R1299T
1723.226	5.118	1723910	PROB	5.118	n/a	n/a	-999	16	[7, 7, 5]	19	FR1	7	R1299T
1728.344	5.455	1729028	PROB	5.455	n/a	n/a	-999	16	[8, 8, 3]	19	FR1	7	R1299T
1733.799	0.014	1734482	STOP	n/a	n/a	n/a	-999	16	[-999, -999, -999]	n/a	FR1	7	R1299T
1733.813	0.522	1734496	DISTRACT_END	n/a	n/a	n/a	-999	16	[0, 0, 0]	n/a	FR1	7	R1299T
1734.335	1.627	1735018	RETRIEVAL_ORIENT_START	n/a	n/a	n/a	-999	16	[0, 0, 0]	n/a	FR1	7	R1299T
1735.962	0.001	1736645	RETRIEVAL_ORIENT_END	n/a	n/a	n/a	-999	16	[0, 0, 0]	n/a	FR1	7	R1299T
1735.963	1.086	1736646	REC_START	n/a	n/a	n/a	-999	16	[0, 0, 0]	n/a	FR1	7	R1299T
1737.049	0.375	1737732	REC_WORD_VV	0.375	n/a	<>	-999	16	[0, 0, 0]	n/a	FR1	7	R1299T
1737.424	0.854	1738107	REC_WORD	0.854	n/a	BOAT	1	16	[0, 0, 0]	n/a	FR1	7	R1299T
1738.278	0.174	1738961	REC_WORD_VV	0.174	n/a	<>	-999	16	[0, 0, 0]	n/a	FR1	7	R1299T
1738.452	2.562	1739135	REC_WORD	2.562	n/a	SHIP	7	16	[0, 0, 0]	n/a	FR1	7	R1299T
1741.014	24.96	1741697	REC_WORD_VV	24.96	n/a	<>	-999	16	[0, 0, 0]	n/a	FR1	7	R1299T
1765.974	0.0	1766656	REC_END	n/a	n/a	n/a	-999	16	[0, 0, 0]	n/a	FR1	7	R1299T
1765.974	0.015	1766656	TRIAL_END	n/a	n/a	n/a	-999	16	[0, 0, 0]	n/a	FR1	7	R1299T
1765.989	0.0	1766671	TRIAL_START	n/a	n/a	n/a	-999	17	[0, 0, 0]	n/a	FR1	7	R1299T
1765.989	0.0	1766671	TRIAL	n/a	n/a	n/a	-999	17	[0, 0, 0]	n/a	FR1	7	R1299T
1765.989	4.163	1766671	WAITING_START	n/a	n/a	n/a	-999	17	[0, 0, 0]	n/a	FR1	7	R1299T
1770.152	0.0	1770834	COUNTDOWN_START	n/a	n/a	n/a	-999	17	[0, 0, 0]	n/a	FR1	7	R1299T
1770.152	10.428	1770834	WAITING_END	n/a	n/a	n/a	-999	17	[0, 0, 0]	n/a	FR1	7	R1299T
1780.58	0.0	1781261	COUNTDOWN_END	n/a	n/a	n/a	-999	17	[0, 0, 0]	n/a	FR1	7	R1299T
1780.58	1.258	1781261	ORIENT_START	n/a	n/a	n/a	-999	17	[0, 0, 0]	n/a	FR1	7	R1299T
1781.838	0.001	1782519	ORIENT_END	n/a	n/a	n/a	-999	17	[0, 0, 0]	n/a	FR1	7	R1299T
1781.839	1.008	1782520	ENCODING_START	n/a	n/a	n/a	-999	17	[0, 0, 0]	n/a	FR1	7	R1299T
1782.847	1.625	1783528	WORD	n/a	n/a	PET	1	17	[0, 0, 0]	n/a	FR1	7	R1299T
1784.472	1.002	1785153	WORD_OFF	n/a	n/a	PET	1	17	[0, 0, 0]	n/a	FR1	7	R1299T
1785.474	1.631	1786155	WORD	n/a	n/a	KITE	2	17	[0, 0, 0]	n/a	FR1	7	R1299T
1787.105	0.936	1787786	WORD_OFF	n/a	n/a	KITE	2	17	[0, 0, 0]	n/a	FR1	7	R1299T
1788.041	1.632	1788722	WORD	n/a	n/a	OAR	3	17	[0, 0, 0]	n/a	FR1	7	R1299T
1789.673	0.974	1790354	WORD_OFF	n/a	n/a	OAR	3	17	[0, 0, 0]	n/a	FR1	7	R1299T
1790.647	1.625	1791328	WORD	n/a	n/a	STEM	4	17	[0, 0, 0]	n/a	FR1	7	R1299T
1792.272	1.049	1792952	WORD_OFF	n/a	n/a	STEM	4	17	[0, 0, 0]	n/a	FR1	7	R1299T
1793.321	1.635	1794001	WORD	n/a	n/a	LAWN	5	17	[0, 0, 0]	n/a	FR1	7	R1299T
1794.956	1.084	1795636	WORD_OFF	n/a	n/a	LAWN	5	17	[0, 0, 0]	n/a	FR1	7	R1299T
1796.04	1.617	1796720	WORD	n/a	n/a	CHAIR	6	17	[0, 0, 0]	n/a	FR1	7	R1299T
1797.657	0.848	1798337	WORD_OFF	n/a	n/a	CHAIR	6	17	[0, 0, 0]	n/a	FR1	7	R1299T
1798.505	1.635	1799185	WORD	n/a	n/a	STORE	7	17	[0, 0, 0]	n/a	FR1	7	R1299T
1800.14	0.95	1800820	WORD_OFF	n/a	n/a	STORE	7	17	[0, 0, 0]	n/a	FR1	7	R1299T
1801.09	1.618	1801770	WORD	n/a	n/a	JUICE	8	17	[0, 0, 0]	n/a	FR1	7	R1299T
1802.708	1.094	1803388	WORD_OFF	n/a	n/a	JUICE	8	17	[0, 0, 0]	n/a	FR1	7	R1299T
1803.802	1.624	1804482	WORD	n/a	n/a	HOOK	9	17	[0, 0, 0]	n/a	FR1	7	R1299T
1805.426	0.795	1806106	WORD_OFF	n/a	n/a	HOOK	9	17	[0, 0, 0]	n/a	FR1	7	R1299T
1806.221	1.622	1806901	WORD	n/a	n/a	PHONE	10	17	[0, 0, 0]	n/a	FR1	7	R1299T
1807.843	0.981	1808523	WORD_OFF	n/a	n/a	PHONE	10	17	[0, 0, 0]	n/a	FR1	7	R1299T
1808.824	1.636	1809504	WORD	n/a	n/a	MAP	11	17	[0, 0, 0]	n/a	FR1	7	R1299T
1810.46	0.752	1811140	WORD_OFF	n/a	n/a	MAP	11	17	[0, 0, 0]	n/a	FR1	7	R1299T
1811.212	1.632	1811892	WORD	n/a	n/a	SKY	12	17	[0, 0, 0]	n/a	FR1	7	R1299T
1812.844	0.0	1813523	DISTRACT_START	n/a	n/a	n/a	-999	17	[0, 0, 0]	n/a	FR1	7	R1299T
1812.844	0.0	1813523	WORD_OFF	n/a	n/a	SKY	12	17	[0, 0, 0]	n/a	FR1	7	R1299T
1812.844	0.001	1813523	ENCODING_END	n/a	n/a	n/a	-999	17	[0, 0, 0]	n/a	FR1	7	R1299T
1812.845	0.015	1813524	START	n/a	n/a	n/a	-999	17	[-999, -999, -999]	n/a	FR1	7	R1299T
1812.86	5.417	1813539	PROB	5.417	n/a	n/a	-999	17	[5, 2, 5]	12	FR1	7	R1299T
1818.277	5.084	1818956	PROB	5.084	n/a	n/a	-999	17	[7, 5, 5]	17	FR1	7	R1299T
1823.361	2.817	1824040	PROB	2.817	n/a	n/a	-999	17	[3, 9, 9]	22	FR1	7	R1299T
1826.178	5.935	1826857	PROB	5.935	n/a	n/a	-999	17	[5, 7, 6]	18	FR1	7	R1299T
1832.113	8.405	1832792	PROB	8.405	n/a	n/a	-999	17	[3, 8, 4]	15	FR1	7	R1299T
1840.518	0.014	1841196	STOP	n/a	n/a	n/a	-999	17	[-999, -999, -999]	n/a	FR1	7	R1299T
1840.532	0.535	1841210	DISTRACT_END	n/a	n/a	n/a	-999	17	[0, 0, 0]	n/a	FR1	7	R1299T
1841.067	1.582	1841745	RETRIEVAL_ORIENT_START	n/a	n/a	n/a	-999	17	[0, 0, 0]	n/a	FR1	7	R1299T
1842.649	0.001	1843327	RETRIEVAL_ORIENT_END	n/a	n/a	n/a	-999	17	[0, 0, 0]	n/a	FR1	7	R1299T
1842.65	4.231	1843328	REC_START	n/a	n/a	n/a	-999	17	[0, 0, 0]	n/a	FR1	7	R1299T
1846.881	2.615	1847559	REC_WORD	2.615	n/a	KITE	2	17	[0, 0, 0]	n/a	FR1	7	R1299T
1849.496	9.668	1850174	REC_WORD	9.668	n/a	MAP	11	17	[0, 0, 0]	n/a	FR1	7	R1299T
1859.164	1.0	1859841	REC_WORD	1.0	n/a	STORE	7	17	[0, 0, 0]	n/a	FR1	7	R1299T
1860.164	12.498	1860841	REC_WORD_VV	12.498	n/a	<>	-999	17	[0, 0, 0]	n/a	FR1	7	R1299T
1872.662	0.0	1873339	REC_END	n/a	n/a	n/a	-999	17	[0, 0, 0]	n/a	FR1	7	R1299T
1872.662	0.017	1873339	TRIAL_END	n/a	n/a	n/a	-999	17	[0, 0, 0]	n/a	FR1	7	R1299T
1872.679	0.0	1873356	TRIAL_START	n/a	n/a	n/a	-999	18	[0, 0, 0]	n/a	FR1	7	R1299T
1872.679	0.0	1873356	TRIAL	n/a	n/a	n/a	-999	18	[0, 0, 0]	n/a	FR1	7	R1299T
1872.679	2.009	1873356	WAITING_START	n/a	n/a	n/a	-999	18	[0, 0, 0]	n/a	FR1	7	R1299T
1874.688	0.001	1875365	WAITING_END	n/a	n/a	n/a	-999	18	[0, 0, 0]	n/a	FR1	7	R1299T
1874.689	10.428	1875366	COUNTDOWN_START	n/a	n/a	n/a	-999	18	[0, 0, 0]	n/a	FR1	7	R1299T
1885.117	0.001	1885793	COUNTDOWN_END	n/a	n/a	n/a	-999	18	[0, 0, 0]	n/a	FR1	7	R1299T
1885.118	1.171	1885794	ORIENT_START	n/a	n/a	n/a	-999	18	[0, 0, 0]	n/a	FR1	7	R1299T
1886.289	0.001	1886965	ORIENT_END	n/a	n/a	n/a	-999	18	[0, 0, 0]	n/a	FR1	7	R1299T
1886.29	0.928	1886966	ENCODING_START	n/a	n/a	n/a	-999	18	[0, 0, 0]	n/a	FR1	7	R1299T
1887.218	1.623	1887894	WORD	n/a	n/a	TRASH	1	18	[0, 0, 0]	n/a	FR1	7	R1299T
1888.841	1.123	1889517	WORD_OFF	n/a	n/a	TRASH	1	18	[0, 0, 0]	n/a	FR1	7	R1299T
1889.964	1.611	1890640	WORD	n/a	n/a	TOY	2	18	[0, 0, 0]	n/a	FR1	7	R1299T
1891.575	0.988	1892251	WORD_OFF	n/a	n/a	TOY	2	18	[0, 0, 0]	n/a	FR1	7	R1299T
1892.563	1.628	1893239	WORD	n/a	n/a	NAIL	3	18	[0, 0, 0]	n/a	FR1	7	R1299T
1894.191	0.947	1894867	WORD_OFF	n/a	n/a	NAIL	3	18	[0, 0, 0]	n/a	FR1	7	R1299T
1895.138	1.638	1895814	WORD	n/a	n/a	CONE	4	18	[0, 0, 0]	n/a	FR1	7	R1299T
1896.776	0.835	1897451	WORD_OFF	n/a	n/a	CONE	4	18	[0, 0, 0]	n/a	FR1	7	R1299T
1897.611	1.631	1898286	WORD	n/a	n/a	FAN	5	18	[0, 0, 0]	n/a	FR1	7	R1299T
1899.242	0.878	1899917	WORD_OFF	n/a	n/a	FAN	5	18	[0, 0, 0]	n/a	FR1	7	R1299T
1900.12	1.623	1900795	WORD	n/a	n/a	VASE	6	18	[0, 0, 0]	n/a	FR1	7	R1299T
1901.743	0.896	1902418	WORD_OFF	n/a	n/a	VASE	6	18	[0, 0, 0]	n/a	FR1	7	R1299T
1902.639	1.62	1903314	WORD	n/a	n/a	FLEA	7	18	[0, 0, 0]	n/a	FR1	7	R1299T
1904.259	0.924	1904934	WORD_OFF	n/a	n/a	FLEA	7	18	[0, 0, 0]	n/a	FR1	7	R1299T
1905.183	1.628	1905858	WORD	n/a	n/a	CART	8	18	[0, 0, 0]	n/a	FR1	7	R1299T
1906.811	0.946	1907486	WORD_OFF	n/a	n/a	CART	8	18	[0, 0, 0]	n/a	FR1	7	R1299T
1907.757	1.637	1908432	WORD	n/a	n/a	GRASS	9	18	[0, 0, 0]	n/a	FR1	7	R1299T
1909.394	0.998	1910069	WORD_OFF	n/a	n/a	GRASS	9	18	[0, 0, 0]	n/a	FR1	7	R1299T
1910.392	1.635	1911067	WORD	n/a	n/a	VAN	10	18	[0, 0, 0]	n/a	FR1	7	R1299T
1912.027	0.788	1912702	WORD_OFF	n/a	n/a	VAN	10	18	[0, 0, 0]	n/a	FR1	7	R1299T
1912.815	1.631	1913490	WORD	n/a	n/a	WHALE	11	18	[0, 0, 0]	n/a	FR1	7	R1299T
1914.446	1.067	1915121	WORD_OFF	n/a	n/a	WHALE	11	18	[0, 0, 0]	n/a	FR1	7	R1299T
1915.513	1.632	1916188	WORD	n/a	n/a	DOLL	12	18	[0, 0, 0]	n/a	FR1	7	R1299T
1917.145	0.001	1917819	WORD_OFF	n/a	n/a	DOLL	12	18	[0, 0, 0]	n/a	FR1	7	R1299T
1917.146	0.0	1917820	ENCODING_END	n/a	n/a	n/a	-999	18	[0, 0, 0]	n/a	FR1	7	R1299T
1917.146	0.0	1917820	DISTRACT_START	n/a	n/a	n/a	-999	18	[0, 0, 0]	n/a	FR1	7	R1299T
1917.146	0.015	1917820	START	n/a	n/a	n/a	-999	18	[-999, -999, -999]	n/a	FR1	7	R1299T
1917.161	8.152	1917835	PROB	8.152	n/a	n/a	-999	18	[9, 8, 3]	20	FR1	7	R1299T
1925.313	2.984	1925987	PROB	2.984	n/a	n/a	-999	18	[6, 4, 9]	19	FR1	7	R1299T
1928.297	3.601	1928971	PROB	3.601	n/a	n/a	-999	18	[7, 7, 7]	21	FR1	7	R1299T
1931.898	5.234	1932572	PROB	5.234	n/a	n/a	-999	18	[6, 6, 7]	19	FR1	7	R1299T
1937.132	5.297	1937806	PROB	5.297	n/a	n/a	-999	18	[6, 2, 8]	16	FR1	7	R1299T
1942.429	0.021	1943102	STOP	n/a	n/a	n/a	-999	18	[-999, -999, -999]	n/a	FR1	7	R1299T
1942.45	0.622	1943123	DISTRACT_END	n/a	n/a	n/a	-999	18	[0, 0, 0]	n/a	FR1	7	R1299T
1943.072	1.696	1943745	RETRIEVAL_ORIENT_START	n/a	n/a	n/a	-999	18	[0, 0, 0]	n/a	FR1	7	R1299T
1944.768	0.0	1945441	RETRIEVAL_ORIENT_END	n/a	n/a	n/a	-999	18	[0, 0, 0]	n/a	FR1	7	R1299T
1944.768	1.56	1945441	REC_START	n/a	n/a	n/a	-999	18	[0, 0, 0]	n/a	FR1	7	R1299T
1946.328	0.768	1947001	REC_WORD_VV	0.768	n/a	<>	-999	18	[0, 0, 0]	n/a	FR1	7	R1299T
1947.096	3.014	1947769	REC_WORD	3.014	n/a	TRASH	1	18	[0, 0, 0]	n/a	FR1	7	R1299T
1950.11	24.407	1950783	REC_WORD	24.407	n/a	NAIL	3	18	[0, 0, 0]	n/a	FR1	7	R1299T
1974.517	0.264	1975189	REC_WORD_VV	0.264	n/a	<>	-999	18	[0, 0, 0]	n/a	FR1	7	R1299T
1974.781	0.001	1975453	REC_END	n/a	n/a	n/a	-999	18	[0, 0, 0]	n/a	FR1	7	R1299T
1974.782	0.014	1975454	TRIAL_END	n/a	n/a	n/a	-999	18	[0, 0, 0]	n/a	FR1	7	R1299T
1974.796	0.0	1975468	TRIAL_START	n/a	n/a	n/a	-999	19	[0, 0, 0]	n/a	FR1	7	R1299T
1974.796	0.001	1975468	TRIAL	n/a	n/a	n/a	-999	19	[0, 0, 0]	n/a	FR1	7	R1299T
1974.797	1.326	1975469	WAITING_START	n/a	n/a	n/a	-999	19	[0, 0, 0]	n/a	FR1	7	R1299T
1976.123	0.0	1976795	WAITING_END	n/a	n/a	n/a	-999	19	[0, 0, 0]	n/a	FR1	7	R1299T
1976.123	10.428	1976795	COUNTDOWN_START	n/a	n/a	n/a	-999	19	[0, 0, 0]	n/a	FR1	7	R1299T
1986.551	0.0	1987222	ORIENT_START	n/a	n/a	n/a	-999	19	[0, 0, 0]	n/a	FR1	7	R1299T
1986.551	1.158	1987222	COUNTDOWN_END	n/a	n/a	n/a	-999	19	[0, 0, 0]	n/a	FR1	7	R1299T
1987.709	0.0	1988380	ORIENT_END	n/a	n/a	n/a	-999	19	[0, 0, 0]	n/a	FR1	7	R1299T
1987.709	1.075	1988380	ENCODING_START	n/a	n/a	n/a	-999	19	[0, 0, 0]	n/a	FR1	7	R1299T
1988.784	1.625	1989455	WORD	n/a	n/a	CHIN	1	19	[0, 0, 0]	n/a	FR1	7	R1299T
1990.409	1.06	1991080	WORD_OFF	n/a	n/a	CHIN	1	19	[0, 0, 0]	n/a	FR1	7	R1299T
1991.469	1.623	1992140	WORD	n/a	n/a	FUDGE	2	19	[0, 0, 0]	n/a	FR1	7	R1299T
1993.092	0.779	1993763	WORD_OFF	n/a	n/a	FUDGE	2	19	[0, 0, 0]	n/a	FR1	7	R1299T
1993.871	1.623	1994542	WORD	n/a	n/a	GRAPE	3	19	[0, 0, 0]	n/a	FR1	7	R1299T
1995.494	1.104	1996165	WORD_OFF	n/a	n/a	GRAPE	3	19	[0, 0, 0]	n/a	FR1	7	R1299T
1996.598	1.628	1997269	WORD	n/a	n/a	VEST	4	19	[0, 0, 0]	n/a	FR1	7	R1299T
1998.226	0.836	1998897	WORD_OFF	n/a	n/a	VEST	4	19	[0, 0, 0]	n/a	FR1	7	R1299T
1999.062	1.616	1999733	WORD	n/a	n/a	BOWL	5	19	[0, 0, 0]	n/a	FR1	7	R1299T
2000.678	0.882	2001348	WORD_OFF	n/a	n/a	BOWL	5	19	[0, 0, 0]	n/a	FR1	7	R1299T
2001.56	1.634	2002230	WORD	n/a	n/a	PARK	6	19	[0, 0, 0]	n/a	FR1	7	R1299T
2003.194	0.967	2003864	WORD_OFF	n/a	n/a	PARK	6	19	[0, 0, 0]	n/a	FR1	7	R1299T
2004.161	1.634	2004831	WORD	n/a	n/a	LEAF	7	19	[0, 0, 0]	n/a	FR1	7	R1299T
2005.795	0.787	2006465	WORD_OFF	n/a	n/a	LEAF	7	19	[0, 0, 0]	n/a	FR1	7	R1299T
2006.582	1.629	2007252	WORD	n/a	n/a	TAIL	8	19	[0, 0, 0]	n/a	FR1	7	R1299T
2008.211	1.018	2008881	WORD_OFF	n/a	n/a	TAIL	8	19	[0, 0, 0]	n/a	FR1	7	R1299T
2009.229	1.634	2009899	WORD	n/a	n/a	SHEET	9	19	[0, 0, 0]	n/a	FR1	7	R1299T
2010.863	1.103	2011533	WORD_OFF	n/a	n/a	SHEET	9	19	[0, 0, 0]	n/a	FR1	7	R1299T
2011.966	1.631	2012636	WORD	n/a	n/a	BENCH	10	19	[0, 0, 0]	n/a	FR1	7	R1299T
2013.597	0.968	2014267	WORD_OFF	n/a	n/a	BENCH	10	19	[0, 0, 0]	n/a	FR1	7	R1299T
2014.565	1.631	2015235	WORD	n/a	n/a	THREAD	11	19	[0, 0, 0]	n/a	FR1	7	R1299T
2016.196	0.82	2016866	WORD_OFF	n/a	n/a	THREAD	11	19	[0, 0, 0]	n/a	FR1	7	R1299T
2017.016	1.632	2017686	WORD	n/a	n/a	BEAR	12	19	[0, 0, 0]	n/a	FR1	7	R1299T
2018.648	0.0	2019318	WORD_OFF	n/a	n/a	BEAR	12	19	[0, 0, 0]	n/a	FR1	7	R1299T
2018.648	0.001	2019318	ENCODING_END	n/a	n/a	n/a	-999	19	[0, 0, 0]	n/a	FR1	7	R1299T
2018.649	0.0	2019319	DISTRACT_START	n/a	n/a	n/a	-999	19	[0, 0, 0]	n/a	FR1	7	R1299T
2018.649	0.015	2019319	START	n/a	n/a	n/a	-999	19	[-999, -999, -999]	n/a	FR1	7	R1299T
2018.664	6.55	2019334	PROB	6.55	n/a	n/a	-999	19	[7, 2, 8]	17	FR1	7	R1299T
2025.214	3.252	2025883	PROB	3.252	n/a	n/a	-999	19	[1, 1, 2]	4	FR1	7	R1299T
2028.466	3.85	2029135	PROB	3.85	n/a	n/a	-999	19	[9, 8, 2]	19	FR1	7	R1299T
2032.316	6.285	2032985	PROB	6.285	n/a	n/a	-999	19	[5, 3, 2]	10	FR1	7	R1299T
2038.601	2.945	2039270	PROB	2.945	n/a	n/a	-999	19	[6, 3, 3]	12	FR1	7	R1299T
2041.546	0.006	2042215	STOP	n/a	n/a	n/a	-999	19	[-999, -999, -999]	n/a	FR1	7	R1299T
2041.552	0.674	2042221	DISTRACT_END	n/a	n/a	n/a	-999	19	[0, 0, 0]	n/a	FR1	7	R1299T
2042.226	1.66	2042895	RETRIEVAL_ORIENT_START	n/a	n/a	n/a	-999	19	[0, 0, 0]	n/a	FR1	7	R1299T
2043.886	0.0	2044554	RETRIEVAL_ORIENT_END	n/a	n/a	n/a	-999	19	[0, 0, 0]	n/a	FR1	7	R1299T
2043.886	1.899	2044554	REC_START	n/a	n/a	n/a	-999	19	[0, 0, 0]	n/a	FR1	7	R1299T
2045.785	1.0	2046453	REC_WORD_VV	1.0	n/a	<>	-999	19	[0, 0, 0]	n/a	FR1	7	R1299T
2046.785	27.114	2047453	REC_WORD	27.114	n/a	CHIN	1	19	[0, 0, 0]	n/a	FR1	7	R1299T
2073.899	0.0	2074566	REC_END	n/a	n/a	n/a	-999	19	[0, 0, 0]	n/a	FR1	7	R1299T
2073.899	0.015	2074566	TRIAL_END	n/a	n/a	n/a	-999	19	[0, 0, 0]	n/a	FR1	7	R1299T
2073.914	0.0	2074581	WAITING_START	n/a	n/a	n/a	-999	20	[0, 0, 0]	n/a	FR1	7	R1299T
2073.914	0.0	2074581	TRIAL_START	n/a	n/a	n/a	-999	20	[0, 0, 0]	n/a	FR1	7	R1299T
2073.914	2.528	2074581	TRIAL	n/a	n/a	n/a	-999	20	[0, 0, 0]	n/a	FR1	7	R1299T
2076.442	0.0	2077109	WAITING_END	n/a	n/a	n/a	-999	20	[0, 0, 0]	n/a	FR1	7	R1299T
2076.442	10.429	2077109	COUNTDOWN_START	n/a	n/a	n/a	-999	20	[0, 0, 0]	n/a	FR1	7	R1299T
2086.871	0.0	2087537	COUNTDOWN_END	n/a	n/a	n/a	-999	20	[0, 0, 0]	n/a	FR1	7	R1299T
2086.871	1.188	2087537	ORIENT_START	n/a	n/a	n/a	-999	20	[0, 0, 0]	n/a	FR1	7	R1299T
2088.059	0.001	2088725	ORIENT_END	n/a	n/a	n/a	-999	20	[0, 0, 0]	n/a	FR1	7	R1299T
2088.06	1.058	2088726	ENCODING_START	n/a	n/a	n/a	-999	20	[0, 0, 0]	n/a	FR1	7	R1299T
2089.118	1.626	2089784	WORD	n/a	n/a	CLIFF	1	20	[0, 0, 0]	n/a	FR1	7	R1299T
2090.744	1.105	2091410	WORD_OFF	n/a	n/a	CLIFF	1	20	[0, 0, 0]	n/a	FR1	7	R1299T
2091.849	1.629	2092515	WORD	n/a	n/a	SHRIMP	2	20	[0, 0, 0]	n/a	FR1	7	R1299T
2093.478	0.993	2094144	WORD_OFF	n/a	n/a	SHRIMP	2	20	[0, 0, 0]	n/a	FR1	7	R1299T
2094.471	1.623	2095137	WORD	n/a	n/a	WAND	3	20	[0, 0, 0]	n/a	FR1	7	R1299T
2096.094	1.086	2096760	WORD_OFF	n/a	n/a	WAND	3	20	[0, 0, 0]	n/a	FR1	7	R1299T
2097.18	1.616	2097846	WORD	n/a	n/a	SEAL	4	20	[0, 0, 0]	n/a	FR1	7	R1299T
2098.796	0.808	2099462	WORD_OFF	n/a	n/a	SEAL	4	20	[0, 0, 0]	n/a	FR1	7	R1299T
2099.604	1.624	2100270	WORD	n/a	n/a	SMOKE	5	20	[0, 0, 0]	n/a	FR1	7	R1299T
2101.228	0.944	2101894	WORD_OFF	n/a	n/a	SMOKE	5	20	[0, 0, 0]	n/a	FR1	7	R1299T
2102.172	1.608	2102838	WORD	n/a	n/a	FACE	6	20	[0, 0, 0]	n/a	FR1	7	R1299T
2103.78	1.022	2104446	WORD_OFF	n/a	n/a	FACE	6	20	[0, 0, 0]	n/a	FR1	7	R1299T
2104.802	1.628	2105468	WORD	n/a	n/a	PIPE	7	20	[0, 0, 0]	n/a	FR1	7	R1299T
2106.43	1.094	2107095	WORD_OFF	n/a	n/a	PIPE	7	20	[0, 0, 0]	n/a	FR1	7	R1299T
2107.524	1.623	2108189	WORD	n/a	n/a	PEACH	8	20	[0, 0, 0]	n/a	FR1	7	R1299T
2109.147	1.112	2109812	WORD_OFF	n/a	n/a	PEACH	8	20	[0, 0, 0]	n/a	FR1	7	R1299T
2110.259	1.605	2110924	WORD	n/a	n/a	CAKE	9	20	[0, 0, 0]	n/a	FR1	7	R1299T
2111.864	0.861	2112529	WORD_OFF	n/a	n/a	CAKE	9	20	[0, 0, 0]	n/a	FR1	7	R1299T
2112.725	1.622	2113390	WORD	n/a	n/a	FLOOR	10	20	[0, 0, 0]	n/a	FR1	7	R1299T
2114.347	1.082	2115012	WORD_OFF	n/a	n/a	FLOOR	10	20	[0, 0, 0]	n/a	FR1	7	R1299T
2115.429	1.636	2116094	WORD	n/a	n/a	DRESS	11	20	[0, 0, 0]	n/a	FR1	7	R1299T
2117.065	0.988	2117730	WORD_OFF	n/a	n/a	DRESS	11	20	[0, 0, 0]	n/a	FR1	7	R1299T
2118.053	1.63	2118718	WORD	n/a	n/a	TEA	12	20	[0, 0, 0]	n/a	FR1	7	R1299T
2119.683	0.0	2120348	WORD_OFF	n/a	n/a	TEA	12	20	[0, 0, 0]	n/a	FR1	7	R1299T
2119.683	0.001	2120348	ENCODING_END	n/a	n/a	n/a	-999	20	[0, 0, 0]	n/a	FR1	7	R1299T
2119.684	0.0	2120349	DISTRACT_START	n/a	n/a	n/a	-999	20	[0, 0, 0]	n/a	FR1	7	R1299T
2119.684	0.015	2120349	START	n/a	n/a	n/a	-999	20	[-999, -999, -999]	n/a	FR1	7	R1299T
2119.699	6.367	2120364	PROB	6.367	n/a	n/a	-999	20	[5, 7, 4]	16	FR1	7	R1299T
2126.066	3.802	2126730	PROB	3.802	n/a	n/a	-999	20	[7, 3, 7]	17	FR1	7	R1299T
2129.868	4.516	2130532	PROB	4.516	n/a	n/a	-999	20	[7, 3, 4]	14	FR1	7	R1299T
2134.384	9.698	2135048	PROB	9.698	n/a	n/a	-999	20	[9, 7, 8]	24	FR1	7	R1299T
2144.082	0.021	2144746	STOP	n/a	n/a	n/a	-999	20	[-999, -999, -999]	n/a	FR1	7	R1299T
2144.103	0.569	2144767	DISTRACT_END	n/a	n/a	n/a	-999	20	[0, 0, 0]	n/a	FR1	7	R1299T
2144.672	1.581	2145336	RETRIEVAL_ORIENT_START	n/a	n/a	n/a	-999	20	[0, 0, 0]	n/a	FR1	7	R1299T
2146.253	0.0	2146917	REC_START	n/a	n/a	n/a	-999	20	[0, 0, 0]	n/a	FR1	7	R1299T
2146.253	1.666	2146917	RETRIEVAL_ORIENT_END	n/a	n/a	n/a	-999	20	[0, 0, 0]	n/a	FR1	7	R1299T
2147.919	0.655	2148582	REC_WORD_VV	0.655	n/a	<>	-999	20	[0, 0, 0]	n/a	FR1	7	R1299T
2148.574	16.652	2149237	REC_WORD	16.652	n/a	PEACH	8	20	[0, 0, 0]	n/a	FR1	7	R1299T
2165.226	0.355	2165889	REC_WORD_VV	0.355	n/a	<>	-999	20	[0, 0, 0]	n/a	FR1	7	R1299T
2165.581	1.766	2166244	REC_WORD	1.766	n/a	BOWL	-999	20	[0, 0, 0]	n/a	FR1	7	R1299T
2167.347	7.274	2168010	REC_WORD_VV	7.274	n/a	<>	-999	20	[0, 0, 0]	n/a	FR1	7	R1299T
2174.621	1.0	2175283	REC_WORD	1.0	n/a	FLOOR	10	20	[0, 0, 0]	n/a	FR1	7	R1299T
2175.621	0.645	2176283	REC_WORD_VV	0.645	n/a	<>	-999	20	[0, 0, 0]	n/a	FR1	7	R1299T
2176.266	0.001	2176928	REC_END	n/a	n/a	n/a	-999	20	[0, 0, 0]	n/a	FR1	7	R1299T
2176.267	0.014	2176929	TRIAL_END	n/a	n/a	n/a	-999	20	[0, 0, 0]	n/a	FR1	7	R1299T
2176.281	0.0	2176943	TRIAL_START	n/a	n/a	n/a	-999	21	[0, 0, 0]	n/a	FR1	7	R1299T
2176.281	0.0	2176943	TRIAL	n/a	n/a	n/a	-999	21	[0, 0, 0]	n/a	FR1	7	R1299T
2176.281	3.163	2176943	WAITING_START	n/a	n/a	n/a	-999	21	[0, 0, 0]	n/a	FR1	7	R1299T
2179.444	0.0	2180106	WAITING_END	n/a	n/a	n/a	-999	21	[0, 0, 0]	n/a	FR1	7	R1299T
2179.444	10.429	2180106	COUNTDOWN_START	n/a	n/a	n/a	-999	21	[0, 0, 0]	n/a	FR1	7	R1299T
2189.873	0.0	2190534	COUNTDOWN_END	n/a	n/a	n/a	-999	21	[0, 0, 0]	n/a	FR1	7	R1299T
2189.873	1.039	2190534	ORIENT_START	n/a	n/a	n/a	-999	21	[0, 0, 0]	n/a	FR1	7	R1299T
2190.912	0.001	2191573	ORIENT_END	n/a	n/a	n/a	-999	21	[0, 0, 0]	n/a	FR1	7	R1299T
2190.913	0.889	2191574	ENCODING_START	n/a	n/a	n/a	-999	21	[0, 0, 0]	n/a	FR1	7	R1299T
2191.802	1.627	2192463	WORD	n/a	n/a	BOARD	1	21	[0, 0, 0]	n/a	FR1	7	R1299T
2193.429	0.777	2194090	WORD_OFF	n/a	n/a	BOARD	1	21	[0, 0, 0]	n/a	FR1	7	R1299T
2194.206	1.624	2194867	WORD	n/a	n/a	FLAG	2	21	[0, 0, 0]	n/a	FR1	7	R1299T
2195.83	0.92	2196491	WORD_OFF	n/a	n/a	FLAG	2	21	[0, 0, 0]	n/a	FR1	7	R1299T
2196.75	1.629	2197411	WORD	n/a	n/a	BOOK	3	21	[0, 0, 0]	n/a	FR1	7	R1299T
2198.379	1.049	2199040	WORD_OFF	n/a	n/a	BOOK	3	21	[0, 0, 0]	n/a	FR1	7	R1299T
2199.428	1.635	2200089	WORD	n/a	n/a	CROWN	4	21	[0, 0, 0]	n/a	FR1	7	R1299T
2201.063	0.921	2201724	WORD_OFF	n/a	n/a	CROWN	4	21	[0, 0, 0]	n/a	FR1	7	R1299T
2201.984	1.614	2202645	WORD	n/a	n/a	TREE	5	21	[0, 0, 0]	n/a	FR1	7	R1299T
2203.598	1.129	2204259	WORD_OFF	n/a	n/a	TREE	5	21	[0, 0, 0]	n/a	FR1	7	R1299T
2204.727	1.62	2205388	WORD	n/a	n/a	GLOVE	6	21	[0, 0, 0]	n/a	FR1	7	R1299T
2206.347	1.048	2207008	WORD_OFF	n/a	n/a	GLOVE	6	21	[0, 0, 0]	n/a	FR1	7	R1299T
2207.395	1.636	2208056	WORD	n/a	n/a	EGG	7	21	[0, 0, 0]	n/a	FR1	7	R1299T
2209.031	0.763	2209692	WORD_OFF	n/a	n/a	EGG	7	21	[0, 0, 0]	n/a	FR1	7	R1299T
2209.794	1.622	2210454	WORD	n/a	n/a	CAVE	8	21	[0, 0, 0]	n/a	FR1	7	R1299T
2211.416	0.786	2212076	WORD_OFF	n/a	n/a	CAVE	8	21	[0, 0, 0]	n/a	FR1	7	R1299T
2212.202	1.631	2212862	WORD	n/a	n/a	BRANCH	9	21	[0, 0, 0]	n/a	FR1	7	R1299T
2213.833	1.107	2214493	WORD_OFF	n/a	n/a	BRANCH	9	21	[0, 0, 0]	n/a	FR1	7	R1299T
2214.94	1.627	2215600	WORD	n/a	n/a	GUARD	10	21	[0, 0, 0]	n/a	FR1	7	R1299T
2216.567	0.981	2217227	WORD_OFF	n/a	n/a	GUARD	10	21	[0, 0, 0]	n/a	FR1	7	R1299T
2217.548	1.635	2218208	WORD	n/a	n/a	SMILE	11	21	[0, 0, 0]	n/a	FR1	7	R1299T
2219.183	0.829	2219843	WORD_OFF	n/a	n/a	SMILE	11	21	[0, 0, 0]	n/a	FR1	7	R1299T
2220.012	1.623	2220672	WORD	n/a	n/a	SUIT	12	21	[0, 0, 0]	n/a	FR1	7	R1299T
2221.635	0.0	2222295	WORD_OFF	n/a	n/a	SUIT	12	21	[0, 0, 0]	n/a	FR1	7	R1299T
2221.635	0.0	2222295	ENCODING_END	n/a	n/a	n/a	-999	21	[0, 0, 0]	n/a	FR1	7	R1299T
2221.635	0.001	2222295	DISTRACT_START	n/a	n/a	n/a	-999	21	[0, 0, 0]	n/a	FR1	7	R1299T
2221.636	0.015	2222296	START	n/a	n/a	n/a	-999	21	[-999, -999, -999]	n/a	FR1	7	R1299T
2221.651	5.134	2222311	PROB	5.134	n/a	n/a	-999	21	[6, 4, 7]	17	FR1	7	R1299T
2226.785	4.768	2227445	PROB	4.768	n/a	n/a	-999	21	[1, 5, 7]	13	FR1	7	R1299T
2231.553	3.25	2232212	PROB	3.25	n/a	n/a	-999	21	[2, 4, 9]	15	FR1	7	R1299T
2234.803	3.101	2235462	PROB	3.101	n/a	n/a	-999	21	[3, 6, 4]	13	FR1	7	R1299T
2237.904	4.072	2238563	PROB	4.072	n/a	n/a	-999	21	[2, 9, 4]	15	FR1	7	R1299T
2241.976	0.011	2242635	STOP	n/a	n/a	n/a	-999	21	[-999, -999, -999]	n/a	FR1	7	R1299T
2241.987	0.602	2242646	DISTRACT_END	n/a	n/a	n/a	-999	21	[0, 0, 0]	n/a	FR1	7	R1299T
2242.589	1.682	2243248	RETRIEVAL_ORIENT_START	n/a	n/a	n/a	-999	21	[0, 0, 0]	n/a	FR1	7	R1299T
2244.271	0.0	2244930	RETRIEVAL_ORIENT_END	n/a	n/a	n/a	-999	21	[0, 0, 0]	n/a	FR1	7	R1299T
2244.271	2.759	2244930	REC_START	n/a	n/a	n/a	-999	21	[0, 0, 0]	n/a	FR1	7	R1299T
2247.03	17.241	2247689	REC_WORD	17.241	n/a	SMILE	11	21	[0, 0, 0]	n/a	FR1	7	R1299T
2264.271	10.014	2264929	REC_WORD	10.014	n/a	BRANCH	9	21	[0, 0, 0]	n/a	FR1	7	R1299T
2274.285	0.0	2274942	REC_END	n/a	n/a	n/a	-999	21	[0, 0, 0]	n/a	FR1	7	R1299T
2274.285	0.015	2274942	TRIAL_END	n/a	n/a	n/a	-999	21	[0, 0, 0]	n/a	FR1	7	R1299T
2274.3	0.0	2274957	TRIAL	n/a	n/a	n/a	-999	22	[0, 0, 0]	n/a	FR1	7	R1299T
2274.3	0.0	2274957	WAITING_START	n/a	n/a	n/a	-999	22	[0, 0, 0]	n/a	FR1	7	R1299T
2274.3	1.927	2274957	TRIAL_START	n/a	n/a	n/a	-999	22	[0, 0, 0]	n/a	FR1	7	R1299T
2276.227	0.0	2276884	WAITING_END	n/a	n/a	n/a	-999	22	[0, 0, 0]	n/a	FR1	7	R1299T
2276.227	10.43	2276884	COUNTDOWN_START	n/a	n/a	n/a	-999	22	[0, 0, 0]	n/a	FR1	7	R1299T
2286.657	0.0	2287314	COUNTDOWN_END	n/a	n/a	n/a	-999	22	[0, 0, 0]	n/a	FR1	7	R1299T
2286.657	1.156	2287314	ORIENT_START	n/a	n/a	n/a	-999	22	[0, 0, 0]	n/a	FR1	7	R1299T
2287.813	0.0	2288470	ORIENT_END	n/a	n/a	n/a	-999	22	[0, 0, 0]	n/a	FR1	7	R1299T
2287.813	1.031	2288470	ENCODING_START	n/a	n/a	n/a	-999	22	[0, 0, 0]	n/a	FR1	7	R1299T
2288.844	1.636	2289501	WORD	n/a	n/a	GATE	1	22	[0, 0, 0]	n/a	FR1	7	R1299T
2290.48	0.8	2291137	WORD_OFF	n/a	n/a	GATE	1	22	[0, 0, 0]	n/a	FR1	7	R1299T
2291.28	1.634	2291937	WORD	n/a	n/a	PIE	2	22	[0, 0, 0]	n/a	FR1	7	R1299T
2292.914	1.063	2293571	WORD_OFF	n/a	n/a	PIE	2	22	[0, 0, 0]	n/a	FR1	7	R1299T
2293.977	1.638	2294633	WORD	n/a	n/a	STOOL	3	22	[0, 0, 0]	n/a	FR1	7	R1299T
2295.615	0.812	2296271	WORD_OFF	n/a	n/a	STOOL	3	22	[0, 0, 0]	n/a	FR1	7	R1299T
2296.427	1.62	2297083	WORD	n/a	n/a	SOUP	4	22	[0, 0, 0]	n/a	FR1	7	R1299T
2298.047	0.794	2298703	WORD_OFF	n/a	n/a	SOUP	4	22	[0, 0, 0]	n/a	FR1	7	R1299T
2298.841	1.624	2299497	WORD	n/a	n/a	SNAIL	5	22	[0, 0, 0]	n/a	FR1	7	R1299T
2300.465	0.798	2301121	WORD_OFF	n/a	n/a	SNAIL	5	22	[0, 0, 0]	n/a	FR1	7	R1299T
2301.263	1.636	2301919	WORD	n/a	n/a	STAR	6	22	[0, 0, 0]	n/a	FR1	7	R1299T
2302.899	0.944	2303555	WORD_OFF	n/a	n/a	STAR	6	22	[0, 0, 0]	n/a	FR1	7	R1299T
2303.843	1.623	2304499	WORD	n/a	n/a	DESK	7	22	[0, 0, 0]	n/a	FR1	7	R1299T
2305.466	0.993	2306122	WORD_OFF	n/a	n/a	DESK	7	22	[0, 0, 0]	n/a	FR1	7	R1299T
2306.459	1.623	2307115	WORD	n/a	n/a	DIME	8	22	[0, 0, 0]	n/a	FR1	7	R1299T
2308.082	1.013	2308738	WORD_OFF	n/a	n/a	DIME	8	22	[0, 0, 0]	n/a	FR1	7	R1299T
2309.095	1.639	2309751	WORD	n/a	n/a	THUMB	9	22	[0, 0, 0]	n/a	FR1	7	R1299T
2310.734	0.755	2311390	WORD_OFF	n/a	n/a	THUMB	9	22	[0, 0, 0]	n/a	FR1	7	R1299T
2311.489	1.628	2312145	WORD	n/a	n/a	JAR	10	22	[0, 0, 0]	n/a	FR1	7	R1299T
2313.117	1.009	2313773	WORD_OFF	n/a	n/a	JAR	10	22	[0, 0, 0]	n/a	FR1	7	R1299T
2314.126	1.609	2314781	WORD	n/a	n/a	MAT	11	22	[0, 0, 0]	n/a	FR1	7	R1299T
2315.735	0.893	2316390	WORD_OFF	n/a	n/a	MAT	11	22	[0, 0, 0]	n/a	FR1	7	R1299T
2316.628	1.623	2317283	WORD	n/a	n/a	SPRING	12	22	[0, 0, 0]	n/a	FR1	7	R1299T
2318.251	0.0	2318906	WORD_OFF	n/a	n/a	SPRING	12	22	[0, 0, 0]	n/a	FR1	7	R1299T
2318.251	0.001	2318906	ENCODING_END	n/a	n/a	n/a	-999	22	[0, 0, 0]	n/a	FR1	7	R1299T
2318.252	0.0	2318907	DISTRACT_START	n/a	n/a	n/a	-999	22	[0, 0, 0]	n/a	FR1	7	R1299T
2318.252	0.015	2318907	START	n/a	n/a	n/a	-999	22	[-999, -999, -999]	n/a	FR1	7	R1299T
2318.267	4.469	2318922	PROB	4.469	n/a	n/a	-999	22	[8, 6, 3]	17	FR1	7	R1299T
2322.736	5.3	2323391	PROB	5.3	n/a	n/a	-999	22	[8, 1, 6]	15	FR1	7	R1299T
2328.036	4.768	2328691	PROB	4.768	n/a	n/a	-999	22	[5, 9, 6]	20	FR1	7	R1299T
2332.804	3.934	2333459	PROB	3.934	n/a	n/a	-999	22	[9, 6, 1]	16	FR1	7	R1299T
2336.738	5.262	2337392	PROB	5.262	n/a	n/a	-999	22	[7, 8, 9]	23	FR1	7	R1299T
2342.0	0.022	2342654	STOP	n/a	n/a	n/a	-999	22	[-999, -999, -999]	n/a	FR1	7	R1299T
2342.022	0.593	2342676	DISTRACT_END	n/a	n/a	n/a	-999	22	[0, 0, 0]	n/a	FR1	7	R1299T
2342.615	1.591	2343269	RETRIEVAL_ORIENT_START	n/a	n/a	n/a	-999	22	[0, 0, 0]	n/a	FR1	7	R1299T
2344.206	0.0	2344860	RETRIEVAL_ORIENT_END	n/a	n/a	n/a	-999	22	[0, 0, 0]	n/a	FR1	7	R1299T
2344.206	3.788	2344860	REC_START	n/a	n/a	n/a	-999	22	[0, 0, 0]	n/a	FR1	7	R1299T
2347.994	0.575	2348648	REC_WORD_VV	0.575	n/a	<>	-999	22	[0, 0, 0]	n/a	FR1	7	R1299T
2348.569	2.741	2349223	REC_WORD	2.741	n/a	THUMB	9	22	[0, 0, 0]	n/a	FR1	7	R1299T
2351.31	11.329	2351964	REC_WORD	11.329	n/a	JAR	10	22	[0, 0, 0]	n/a	FR1	7	R1299T
2362.639	0.21	2363292	REC_WORD_VV	0.21	n/a	<>	-999	22	[0, 0, 0]	n/a	FR1	7	R1299T
2362.849	11.371	2363502	REC_WORD	11.371	n/a	STAR	6	22	[0, 0, 0]	n/a	FR1	7	R1299T
2374.22	0.0	2374873	REC_END	n/a	n/a	n/a	-999	22	[0, 0, 0]	n/a	FR1	7	R1299T
2374.22	0.015	2374873	TRIAL_END	n/a	n/a	n/a	-999	22	[0, 0, 0]	n/a	FR1	7	R1299T
2374.235	0.0	2374888	TRIAL_START	n/a	n/a	n/a	-999	23	[0, 0, 0]	n/a	FR1	7	R1299T
2374.235	0.0	2374888	TRIAL	n/a	n/a	n/a	-999	23	[0, 0, 0]	n/a	FR1	7	R1299T
2374.235	3.744	2374888	WAITING_START	n/a	n/a	n/a	-999	23	[0, 0, 0]	n/a	FR1	7	R1299T
2377.979	0.0	2378631	COUNTDOWN_START	n/a	n/a	n/a	-999	23	[0, 0, 0]	n/a	FR1	7	R1299T
2377.979	10.429	2378631	WAITING_END	n/a	n/a	n/a	-999	23	[0, 0, 0]	n/a	FR1	7	R1299T
2388.408	0.0	2389060	COUNTDOWN_END	n/a	n/a	n/a	-999	23	[0, 0, 0]	n/a	FR1	7	R1299T
2388.408	1.14	2389060	ORIENT_START	n/a	n/a	n/a	-999	23	[0, 0, 0]	n/a	FR1	7	R1299T
2389.548	0.001	2390200	ORIENT_END	n/a	n/a	n/a	-999	23	[0, 0, 0]	n/a	FR1	7	R1299T
2389.549	0.984	2390201	ENCODING_START	n/a	n/a	n/a	-999	23	[0, 0, 0]	n/a	FR1	7	R1299T
2390.533	1.631	2391185	WORD	n/a	n/a	WORLD	1	23	[0, 0, 0]	n/a	FR1	7	R1299T
2392.164	1.03	2392816	WORD_OFF	n/a	n/a	WORLD	1	23	[0, 0, 0]	n/a	FR1	7	R1299T
2393.194	1.622	2393846	WORD	n/a	n/a	DRUM	2	23	[0, 0, 0]	n/a	FR1	7	R1299T
2394.816	0.786	2395468	WORD_OFF	n/a	n/a	DRUM	2	23	[0, 0, 0]	n/a	FR1	7	R1299T
2395.602	1.63	2396254	WORD	n/a	n/a	PRINCE	3	23	[0, 0, 0]	n/a	FR1	7	R1299T
2397.232	0.964	2397884	WORD_OFF	n/a	n/a	PRINCE	3	23	[0, 0, 0]	n/a	FR1	7	R1299T
2398.196	1.621	2398847	WORD	n/a	n/a	PLATE	4	23	[0, 0, 0]	n/a	FR1	7	R1299T
2399.817	1.045	2400468	WORD_OFF	n/a	n/a	PLATE	4	23	[0, 0, 0]	n/a	FR1	7	R1299T
2400.862	1.622	2401513	WORD	n/a	n/a	LAMP	5	23	[0, 0, 0]	n/a	FR1	7	R1299T
2402.484	1.138	2403135	WORD_OFF	n/a	n/a	LAMP	5	23	[0, 0, 0]	n/a	FR1	7	R1299T
2403.622	1.628	2404273	WORD	n/a	n/a	PEARL	6	23	[0, 0, 0]	n/a	FR1	7	R1299T
2405.25	0.942	2405901	WORD_OFF	n/a	n/a	PEARL	6	23	[0, 0, 0]	n/a	FR1	7	R1299T
2406.192	1.609	2406843	WORD	n/a	n/a	SPEAR	7	23	[0, 0, 0]	n/a	FR1	7	R1299T
2407.801	0.785	2408452	WORD_OFF	n/a	n/a	SPEAR	7	23	[0, 0, 0]	n/a	FR1	7	R1299T
2408.586	1.632	2409237	WORD	n/a	n/a	FILM	8	23	[0, 0, 0]	n/a	FR1	7	R1299T
2410.218	0.897	2410869	WORD_OFF	n/a	n/a	FILM	8	23	[0, 0, 0]	n/a	FR1	7	R1299T
2411.115	1.637	2411766	WORD	n/a	n/a	SUN	9	23	[0, 0, 0]	n/a	FR1	7	R1299T
2412.752	0.814	2413403	WORD_OFF	n/a	n/a	SUN	9	23	[0, 0, 0]	n/a	FR1	7	R1299T
2413.566	1.636	2414217	WORD	n/a	n/a	PASTE	10	23	[0, 0, 0]	n/a	FR1	7	R1299T
2415.202	0.926	2415853	WORD_OFF	n/a	n/a	PASTE	10	23	[0, 0, 0]	n/a	FR1	7	R1299T
2416.128	1.625	2416779	WORD	n/a	n/a	BALL	11	23	[0, 0, 0]	n/a	FR1	7	R1299T
2417.753	0.912	2418404	WORD_OFF	n/a	n/a	BALL	11	23	[0, 0, 0]	n/a	FR1	7	R1299T
2418.665	1.621	2419315	WORD	n/a	n/a	NEST	12	23	[0, 0, 0]	n/a	FR1	7	R1299T
2420.286	0.001	2420936	WORD_OFF	n/a	n/a	NEST	12	23	[0, 0, 0]	n/a	FR1	7	R1299T
2420.287	0.0	2420937	ENCODING_END	n/a	n/a	n/a	-999	23	[0, 0, 0]	n/a	FR1	7	R1299T
2420.287	0.0	2420937	DISTRACT_START	n/a	n/a	n/a	-999	23	[0, 0, 0]	n/a	FR1	7	R1299T
2420.287	0.016	2420937	START	n/a	n/a	n/a	-999	23	[-999, -999, -999]	n/a	FR1	7	R1299T
2420.303	4.967	2420953	PROB	4.967	n/a	n/a	-999	23	[4, 3, 4]	11	FR1	7	R1299T
2425.27	2.967	2425920	PROB	2.967	n/a	n/a	-999	23	[1, 5, 2]	8	FR1	7	R1299T
2428.237	5.186	2428887	PROB	5.186	n/a	n/a	-999	23	[5, 7, 2]	14	FR1	7	R1299T
2433.423	7.104	2434073	PROB	7.104	n/a	n/a	-999	23	[8, 9, 5]	22	FR1	7	R1299T
2440.527	0.014	2441176	STOP	n/a	n/a	n/a	-999	23	[-999, -999, -999]	n/a	FR1	7	R1299T
2440.541	0.667	2441190	DISTRACT_END	n/a	n/a	n/a	-999	23	[0, 0, 0]	n/a	FR1	7	R1299T
2441.208	1.667	2441857	RETRIEVAL_ORIENT_START	n/a	n/a	n/a	-999	23	[0, 0, 0]	n/a	FR1	7	R1299T
2442.875	0.0	2443524	RETRIEVAL_ORIENT_END	n/a	n/a	n/a	-999	23	[0, 0, 0]	n/a	FR1	7	R1299T
2442.875	1.231	2443524	REC_START	n/a	n/a	n/a	-999	23	[0, 0, 0]	n/a	FR1	7	R1299T
2444.106	1.227	2444755	REC_WORD_VV	1.227	n/a	<>	-999	23	[0, 0, 0]	n/a	FR1	7	R1299T
2445.333	7.066	2445982	REC_WORD	7.066	n/a	DRUM	2	23	[0, 0, 0]	n/a	FR1	7	R1299T
2452.399	20.489	2453048	REC_WORD	20.489	n/a	PASTE	10	23	[0, 0, 0]	n/a	FR1	7	R1299T
2472.888	0.0	2473536	REC_END	n/a	n/a	n/a	-999	23	[0, 0, 0]	n/a	FR1	7	R1299T
2472.888	0.018	2473536	TRIAL_END	n/a	n/a	n/a	-999	23	[0, 0, 0]	n/a	FR1	7	R1299T
2472.906	0.001	2473554	TRIAL_START	n/a	n/a	n/a	-999	24	[0, 0, 0]	n/a	FR1	7	R1299T
2472.907	0.0	2473555	TRIAL	n/a	n/a	n/a	-999	24	[0, 0, 0]	n/a	FR1	7	R1299T
2472.907	2.156	2473555	WAITING_START	n/a	n/a	n/a	-999	24	[0, 0, 0]	n/a	FR1	7	R1299T
2475.063	0.0	2475711	WAITING_END	n/a	n/a	n/a	-999	24	[0, 0, 0]	n/a	FR1	7	R1299T
2475.063	10.428	2475711	COUNTDOWN_START	n/a	n/a	n/a	-999	24	[0, 0, 0]	n/a	FR1	7	R1299T
2485.491	0.001	2486138	COUNTDOWN_END	n/a	n/a	n/a	-999	24	[0, 0, 0]	n/a	FR1	7	R1299T
2485.492	1.174	2486139	ORIENT_START	n/a	n/a	n/a	-999	24	[0, 0, 0]	n/a	FR1	7	R1299T
2486.666	0.0	2487313	ORIENT_END	n/a	n/a	n/a	-999	24	[0, 0, 0]	n/a	FR1	7	R1299T
2486.666	0.83	2487313	ENCODING_START	n/a	n/a	n/a	-999	24	[0, 0, 0]	n/a	FR1	7	R1299T
2487.496	1.636	2488143	WORD	n/a	n/a	BAG	1	24	[0, 0, 0]	n/a	FR1	7	R1299T
2489.132	1.004	2489779	WORD_OFF	n/a	n/a	BAG	1	24	[0, 0, 0]	n/a	FR1	7	R1299T
2490.136	1.631	2490783	WORD	n/a	n/a	FORK	2	24	[0, 0, 0]	n/a	FR1	7	R1299T
2491.767	0.881	2492414	WORD_OFF	n/a	n/a	FORK	2	24	[0, 0, 0]	n/a	FR1	7	R1299T
2492.648	1.635	2493295	WORD	n/a	n/a	TOAST	3	24	[0, 0, 0]	n/a	FR1	7	R1299T
2494.283	0.754	2494930	WORD_OFF	n/a	n/a	TOAST	3	24	[0, 0, 0]	n/a	FR1	7	R1299T
2495.037	1.614	2495684	WORD	n/a	n/a	CHALK	4	24	[0, 0, 0]	n/a	FR1	7	R1299T
2496.651	0.764	2497298	WORD_OFF	n/a	n/a	CHALK	4	24	[0, 0, 0]	n/a	FR1	7	R1299T
2497.415	1.635	2498062	WORD	n/a	n/a	CHIEF	5	24	[0, 0, 0]	n/a	FR1	7	R1299T
2499.05	1.051	2499697	WORD_OFF	n/a	n/a	CHIEF	5	24	[0, 0, 0]	n/a	FR1	7	R1299T
2500.101	1.634	2500748	WORD	n/a	n/a	FOOT	6	24	[0, 0, 0]	n/a	FR1	7	R1299T
2501.735	0.75	2502382	WORD_OFF	n/a	n/a	FOOT	6	24	[0, 0, 0]	n/a	FR1	7	R1299T
2502.485	1.633	2503131	WORD	n/a	n/a	DUCK	7	24	[0, 0, 0]	n/a	FR1	7	R1299T
2504.118	1.09	2504764	WORD_OFF	n/a	n/a	DUCK	7	24	[0, 0, 0]	n/a	FR1	7	R1299T
2505.208	1.628	2505854	WORD	n/a	n/a	BATH	8	24	[0, 0, 0]	n/a	FR1	7	R1299T
