onset	duration	sample	trial_type	response_time	stim_file	item_name	serialpos	list	test	answer	experiment	session	subject
0.0	87.161	8343	SESS_START	n/a	n/a	n/a	-999	-999	[0, 0, 0]	n/a	FR1	1	R1108J
87.161	10.428	95503	COUNTDOWN_START	n/a	n/a	n/a	-999	-999	[0, 0, 0]	n/a	FR1	1	R1108J
97.589	0.008	105930	COUNTDOWN_END	n/a	n/a	n/a	-999	-999	[0, 0, 0]	n/a	FR1	1	R1108J
97.597	3.566	105938	PRACTICE_ORIENT	n/a	n/a	n/a	-999	-999	[0, 0, 0]	n/a	FR1	1	R1108J
101.163	2.551	109504	PRACTICE_WORD	n/a	n/a	WAGON	1	-1	[0, 0, 0]	n/a	FR1	1	R1108J
103.714	2.484	112055	PRACTICE_WORD	n/a	n/a	CHEST	2	-1	[0, 0, 0]	n/a	FR1	1	R1108J
106.198	2.567	114539	PRACTICE_WORD	n/a	n/a	FLOOD	3	-1	[0, 0, 0]	n/a	FR1	1	R1108J
108.765	2.467	117106	PRACTICE_WORD	n/a	n/a	IRON	4	-1	[0, 0, 0]	n/a	FR1	1	R1108J
111.232	2.517	119573	PRACTICE_WORD	n/a	n/a	RHINO	5	-1	[0, 0, 0]	n/a	FR1	1	R1108J
113.749	2.6	122090	PRACTICE_WORD	n/a	n/a	WATCH	6	-1	[0, 0, 0]	n/a	FR1	1	R1108J
116.349	2.434	124690	PRACTICE_WORD	n/a	n/a	ATTIC	7	-1	[0, 0, 0]	n/a	FR1	1	R1108J
118.783	2.433	127124	PRACTICE_WORD	n/a	n/a	CAMEL	8	-1	[0, 0, 0]	n/a	FR1	1	R1108J
121.216	2.484	129557	PRACTICE_WORD	n/a	n/a	COTTON	9	-1	[0, 0, 0]	n/a	FR1	1	R1108J
123.7	2.466	132041	PRACTICE_WORD	n/a	n/a	BEAM	10	-1	[0, 0, 0]	n/a	FR1	1	R1108J
126.166	2.485	134507	PRACTICE_WORD	n/a	n/a	RING	11	-1	[0, 0, 0]	n/a	FR1	1	R1108J
128.651	1.617	136992	PRACTICE_WORD	n/a	n/a	TONGUE	12	-1	[0, 0, 0]	n/a	FR1	1	R1108J
130.268	0.0	138609	PRACTICE_DISTRACT_START	n/a	n/a	n/a	-999	-1	[0, 0, 0]	n/a	FR1	1	R1108J
130.268	0.017	138609	START	n/a	n/a	n/a	-999	-1	[-999, -999, -999]	n/a	FR1	1	R1108J
130.285	15.368	138626	PROB	15.368	n/a	n/a	-999	-1	[6, 8, 7]	24	FR1	1	R1108J
145.653	8.392	153994	PROB	8.392	n/a	n/a	-999	-1	[8, 6, 4]	18	FR1	1	R1108J
154.045	0.659	162386	STOP	n/a	n/a	n/a	-999	-1	[-999, -999, -999]	n/a	FR1	1	R1108J
154.704	30.517	163045	PRACTICE_REC_START	n/a	n/a	n/a	-999	-1	[0, 0, 0]	n/a	FR1	1	R1108J
185.221	15.473	193561	PRACTICE_REC_END	n/a	n/a	n/a	-999	-1	[0, 0, 0]	n/a	FR1	1	R1108J
200.694	0.0	209034	COUNTDOWN_START	n/a	n/a	n/a	-999	1	[0, 0, 0]	n/a	FR1	1	R1108J
200.694	10.428	209034	TRIAL	n/a	n/a	n/a	-999	1	[0, 0, 0]	n/a	FR1	1	R1108J
211.122	0.006	219462	COUNTDOWN_END	n/a	n/a	n/a	-999	1	[0, 0, 0]	n/a	FR1	1	R1108J
211.128	3.701	219468	ORIENT	n/a	n/a	n/a	-999	1	[0, 0, 0]	n/a	FR1	1	R1108J
214.829	2.467	223169	WORD	n/a	wordpools/wordpool_EN.txt	CHIN	1	1	[0, 0, 0]	n/a	FR1	1	R1108J
217.296	2.401	225636	WORD	n/a	wordpools/wordpool_EN.txt	JEEP	2	1	[0, 0, 0]	n/a	FR1	1	R1108J
219.697	2.6	228037	WORD	n/a	wordpools/wordpool_EN.txt	LEG	3	1	[0, 0, 0]	n/a	FR1	1	R1108J
222.297	2.55	230637	WORD	n/a	wordpools/wordpool_EN.txt	HORSE	4	1	[0, 0, 0]	n/a	FR1	1	R1108J
224.847	2.417	233187	WORD	n/a	wordpools/wordpool_EN.txt	ARM	5	1	[0, 0, 0]	n/a	FR1	1	R1108J
227.264	2.584	235604	WORD	n/a	wordpools/wordpool_EN.txt	BROOM	6	1	[0, 0, 0]	n/a	FR1	1	R1108J
229.848	2.5	238188	WORD	n/a	wordpools/wordpool_EN.txt	PEN	7	1	[0, 0, 0]	n/a	FR1	1	R1108J
232.348	2.5	240688	WORD	n/a	wordpools/wordpool_EN.txt	FOOT	8	1	[0, 0, 0]	n/a	FR1	1	R1108J
234.848	2.601	243188	WORD	n/a	wordpools/wordpool_EN.txt	APE	9	1	[0, 0, 0]	n/a	FR1	1	R1108J
237.449	2.55	245789	WORD	n/a	wordpools/wordpool_EN.txt	BUSH	10	1	[0, 0, 0]	n/a	FR1	1	R1108J
239.999	2.45	248338	WORD	n/a	wordpools/wordpool_EN.txt	CHALK	11	1	[0, 0, 0]	n/a	FR1	1	R1108J
242.449	1.617	250788	WORD	n/a	wordpools/wordpool_EN.txt	HEART	12	1	[0, 0, 0]	n/a	FR1	1	R1108J
244.066	0.001	252405	DISTRACT_START	n/a	n/a	n/a	-999	1	[0, 0, 0]	n/a	FR1	1	R1108J
244.067	0.016	252406	START	n/a	n/a	n/a	-999	1	[-999, -999, -999]	n/a	FR1	1	R1108J
244.083	9.968	252422	PROB	9.968	n/a	n/a	-999	1	[9, 8, 9]	26	FR1	1	R1108J
254.051	5.951	262390	PROB	5.951	n/a	n/a	-999	1	[4, 8, 6]	18	FR1	1	R1108J
260.002	5.551	268341	PROB	5.551	n/a	n/a	-999	1	[6, 3, 8]	17	FR1	1	R1108J
265.553	0.017	273892	STOP	n/a	n/a	n/a	-999	1	[-999, -999, -999]	n/a	FR1	1	R1108J
265.57	1.137	273909	DISTRACT_END	n/a	n/a	n/a	-999	1	[0, 0, 0]	n/a	FR1	1	R1108J
266.707	0.795	275046	REC_START	n/a	n/a	n/a	-999	1	[0, 0, 0]	n/a	FR1	1	R1108J
267.502	2.096	275841	REC_WORD_VV	2.096	n/a	<>	-999	1	[0, 0, 0]	n/a	FR1	1	R1108J
269.598	2.12	277937	REC_WORD	2.12	n/a	HORSE	-999	1	[0, 0, 0]	n/a	FR1	1	R1108J
271.718	2.056	280057	REC_WORD	2.056	n/a	HEN	-999	1	[0, 0, 0]	n/a	FR1	1	R1108J
273.774	1.201	282113	REC_WORD_VV	1.201	n/a	<>	-999	1	[0, 0, 0]	n/a	FR1	1	R1108J
274.975	1.896	283314	REC_WORD	1.896	n/a	FOOT	-999	1	[0, 0, 0]	n/a	FR1	1	R1108J
276.871	4.731	285210	REC_WORD	4.731	n/a	LEG	-999	1	[0, 0, 0]	n/a	FR1	1	R1108J
281.602	6.498	289941	REC_WORD_VV	6.498	n/a	<>	-999	1	[0, 0, 0]	n/a	FR1	1	R1108J
288.1	8.614	296439	REC_WORD_VV	8.614	n/a	<>	-999	1	[0, 0, 0]	n/a	FR1	1	R1108J
296.714	5.51	305053	REC_END	n/a	n/a	n/a	-999	1	[0, 0, 0]	n/a	FR1	1	R1108J
302.224	0.0	310563	TRIAL	n/a	n/a	n/a	-999	2	[0, 0, 0]	n/a	FR1	1	R1108J
302.224	10.428	310563	COUNTDOWN_START	n/a	n/a	n/a	-999	2	[0, 0, 0]	n/a	FR1	1	R1108J
312.652	0.007	320991	COUNTDOWN_END	n/a	n/a	n/a	-999	2	[0, 0, 0]	n/a	FR1	1	R1108J
312.659	3.667	320998	ORIENT	n/a	n/a	n/a	-999	2	[0, 0, 0]	n/a	FR1	1	R1108J
316.326	2.45	324664	WORD	n/a	wordpools/wordpool_EN.txt	STICK	1	2	[0, 0, 0]	n/a	FR1	1	R1108J
318.776	2.568	327114	WORD	n/a	wordpools/wordpool_EN.txt	BALL	2	2	[0, 0, 0]	n/a	FR1	1	R1108J
321.344	2.45	329682	WORD	n/a	wordpools/wordpool_EN.txt	DOCK	3	2	[0, 0, 0]	n/a	FR1	1	R1108J
323.794	2.617	332132	WORD	n/a	wordpools/wordpool_EN.txt	FENCE	4	2	[0, 0, 0]	n/a	FR1	1	R1108J
326.411	2.534	334749	WORD	n/a	wordpools/wordpool_EN.txt	OWL	5	2	[0, 0, 0]	n/a	FR1	1	R1108J
328.945	2.6	337283	WORD	n/a	wordpools/wordpool_EN.txt	VEST	6	2	[0, 0, 0]	n/a	FR1	1	R1108J
331.545	2.45	339883	WORD	n/a	wordpools/wordpool_EN.txt	CLOTH	7	2	[0, 0, 0]	n/a	FR1	1	R1108J
333.995	2.634	342333	WORD	n/a	wordpools/wordpool_EN.txt	BAG	8	2	[0, 0, 0]	n/a	FR1	1	R1108J
336.629	2.567	344967	WORD	n/a	wordpools/wordpool_EN.txt	DIME	9	2	[0, 0, 0]	n/a	FR1	1	R1108J
339.196	2.383	347534	WORD	n/a	wordpools/wordpool_EN.txt	FUDGE	10	2	[0, 0, 0]	n/a	FR1	1	R1108J
341.579	2.618	349917	WORD	n/a	wordpools/wordpool_EN.txt	HILL	11	2	[0, 0, 0]	n/a	FR1	1	R1108J
344.197	1.617	352535	WORD	n/a	wordpools/wordpool_EN.txt	GRAPE	12	2	[0, 0, 0]	n/a	FR1	1	R1108J
345.814	0.0	354152	DISTRACT_START	n/a	n/a	n/a	-999	2	[0, 0, 0]	n/a	FR1	1	R1108J
345.814	0.016	354152	START	n/a	n/a	n/a	-999	2	[-999, -999, -999]	n/a	FR1	1	R1108J
345.83	4.601	354168	PROB	4.601	n/a	n/a	-999	2	[3, 4, 2]	9	FR1	1	R1108J
350.431	3.333	358769	PROB	3.333	n/a	n/a	-999	2	[4, 4, 2]	10	FR1	1	R1108J
353.764	3.634	362102	PROB	3.634	n/a	n/a	-999	2	[3, 3, 5]	11	FR1	1	R1108J
357.398	4.968	365736	PROB	4.968	n/a	n/a	-999	2	[4, 8, 8]	20	FR1	1	R1108J
362.366	7.079	370704	PROB	7.079	n/a	n/a	-999	2	[6, 2, 8]	16	FR1	1	R1108J
369.445	0.005	377783	STOP	n/a	n/a	n/a	-999	2	[-999, -999, -999]	n/a	FR1	1	R1108J
369.45	1.034	377788	DISTRACT_END	n/a	n/a	n/a	-999	2	[0, 0, 0]	n/a	FR1	1	R1108J
370.484	0.938	378822	REC_START	n/a	n/a	n/a	-999	2	[0, 0, 0]	n/a	FR1	1	R1108J
371.422	0.425	379760	REC_WORD_VV	0.425	n/a	<>	-999	2	[0, 0, 0]	n/a	FR1	1	R1108J
371.847	1.285	380185	REC_WORD	1.285	n/a	OWL	-999	2	[0, 0, 0]	n/a	FR1	1	R1108J
373.132	6.628	381470	REC_WORD_VV	6.628	n/a	<>	-999	2	[0, 0, 0]	n/a	FR1	1	R1108J
379.76	9.658	388098	REC_WORD	9.658	n/a	DUCK	-999	2	[0, 0, 0]	n/a	FR1	1	R1108J
389.418	0.92	397756	REC_WORD	0.92	n/a	CLOTH	-999	2	[0, 0, 0]	n/a	FR1	1	R1108J
390.338	1.208	398676	REC_WORD	1.208	n/a	VEST	-999	2	[0, 0, 0]	n/a	FR1	1	R1108J
391.546	1.401	399883	REC_WORD	1.401	n/a	BAG	-999	2	[0, 0, 0]	n/a	FR1	1	R1108J
392.947	7.551	401284	REC_WORD_VV	7.551	n/a	<>	-999	2	[0, 0, 0]	n/a	FR1	1	R1108J
400.498	2.006	408835	REC_END	n/a	n/a	n/a	-999	2	[0, 0, 0]	n/a	FR1	1	R1108J
402.504	0.0	410841	TRIAL	n/a	n/a	n/a	-999	3	[0, 0, 0]	n/a	FR1	1	R1108J
402.504	10.428	410841	COUNTDOWN_START	n/a	n/a	n/a	-999	3	[0, 0, 0]	n/a	FR1	1	R1108J
412.932	0.007	421269	COUNTDOWN_END	n/a	n/a	n/a	-999	3	[0, 0, 0]	n/a	FR1	1	R1108J
412.939	3.817	421276	ORIENT	n/a	n/a	n/a	-999	3	[0, 0, 0]	n/a	FR1	1	R1108J
416.756	2.416	425093	WORD	n/a	wordpools/wordpool_EN.txt	JAIL	1	3	[0, 0, 0]	n/a	FR1	1	R1108J
419.172	2.552	427509	WORD	n/a	wordpools/wordpool_EN.txt	EGG	2	3	[0, 0, 0]	n/a	FR1	1	R1108J
421.724	2.416	430061	WORD	n/a	wordpools/wordpool_EN.txt	TRAIN	3	3	[0, 0, 0]	n/a	FR1	1	R1108J
424.14	2.618	432477	WORD	n/a	wordpools/wordpool_EN.txt	ROOT	4	3	[0, 0, 0]	n/a	FR1	1	R1108J
426.758	2.584	435095	WORD	n/a	wordpools/wordpool_EN.txt	PEAR	5	3	[0, 0, 0]	n/a	FR1	1	R1108J
429.342	2.6	437679	WORD	n/a	wordpools/wordpool_EN.txt	FOX	6	3	[0, 0, 0]	n/a	FR1	1	R1108J
431.942	2.583	440279	WORD	n/a	wordpools/wordpool_EN.txt	COW	7	3	[0, 0, 0]	n/a	FR1	1	R1108J
434.525	2.401	442862	WORD	n/a	wordpools/wordpool_EN.txt	JAR	8	3	[0, 0, 0]	n/a	FR1	1	R1108J
436.926	2.483	445263	WORD	n/a	wordpools/wordpool_EN.txt	SEED	9	3	[0, 0, 0]	n/a	FR1	1	R1108J
439.409	2.434	447746	WORD	n/a	wordpools/wordpool_EN.txt	SHRIMP	10	3	[0, 0, 0]	n/a	FR1	1	R1108J
441.843	2.5	450180	WORD	n/a	wordpools/wordpool_EN.txt	BEAK	11	3	[0, 0, 0]	n/a	FR1	1	R1108J
444.343	1.617	452680	WORD	n/a	wordpools/wordpool_EN.txt	ICE	12	3	[0, 0, 0]	n/a	FR1	1	R1108J
445.96	0.0	454297	DISTRACT_START	n/a	n/a	n/a	-999	3	[0, 0, 0]	n/a	FR1	1	R1108J
445.96	0.017	454297	START	n/a	n/a	n/a	-999	3	[-999, -999, -999]	n/a	FR1	1	R1108J
445.977	5.334	454314	PROB	5.334	n/a	n/a	-999	3	[4, 1, 7]	12	FR1	1	R1108J
451.311	7.934	459648	PROB	7.934	n/a	n/a	-999	3	[8, 2, 8]	18	FR1	1	R1108J
459.245	3.617	467582	PROB	3.617	n/a	n/a	-999	3	[1, 1, 4]	6	FR1	1	R1108J
462.862	3.428	471199	PROB	3.428	n/a	n/a	-999	3	[2, 7, 3]	12	FR1	1	R1108J
466.29	0.006	474627	STOP	n/a	n/a	n/a	-999	3	[-999, -999, -999]	n/a	FR1	1	R1108J
466.296	1.101	474633	DISTRACT_END	n/a	n/a	n/a	-999	3	[0, 0, 0]	n/a	FR1	1	R1108J
467.397	0.965	475733	REC_START	n/a	n/a	n/a	-999	3	[0, 0, 0]	n/a	FR1	1	R1108J
468.362	0.703	476698	REC_WORD_VV	0.703	n/a	<>	-999	3	[0, 0, 0]	n/a	FR1	1	R1108J
469.065	1.394	477401	REC_WORD	1.394	n/a	BEAK	-999	3	[0, 0, 0]	n/a	FR1	1	R1108J
470.459	1.0	478795	REC_WORD_VV	1.0	n/a	<>	-999	3	[0, 0, 0]	n/a	FR1	1	R1108J
471.459	12.857	479795	REC_WORD_VV	12.857	n/a	<>	-999	3	[0, 0, 0]	n/a	FR1	1	R1108J
484.316	0.902	492652	REC_WORD	0.902	n/a	SHRIMP	-999	3	[0, 0, 0]	n/a	FR1	1	R1108J
485.218	1.362	493554	REC_WORD	1.362	n/a	SEED	-999	3	[0, 0, 0]	n/a	FR1	1	R1108J
486.58	4.406	494916	REC_WORD_VV	4.406	n/a	<>	-999	3	[0, 0, 0]	n/a	FR1	1	R1108J
490.986	6.421	499322	REC_WORD	6.421	n/a	COW	-999	3	[0, 0, 0]	n/a	FR1	1	R1108J
497.407	2.277	505743	REC_END	n/a	n/a	n/a	-999	3	[0, 0, 0]	n/a	FR1	1	R1108J
499.684	0.0	508020	TRIAL	n/a	n/a	n/a	-999	4	[0, 0, 0]	n/a	FR1	1	R1108J
499.684	10.428	508020	COUNTDOWN_START	n/a	n/a	n/a	-999	4	[0, 0, 0]	n/a	FR1	1	R1108J
510.112	0.006	518448	COUNTDOWN_END	n/a	n/a	n/a	-999	4	[0, 0, 0]	n/a	FR1	1	R1108J
510.118	3.634	518454	ORIENT	n/a	n/a	n/a	-999	4	[0, 0, 0]	n/a	FR1	1	R1108J
513.752	2.618	522088	WORD	n/a	wordpools/wordpool_EN.txt	LOCK	1	4	[0, 0, 0]	n/a	FR1	1	R1108J
516.37	2.533	524706	WORD	n/a	wordpools/wordpool_EN.txt	HOOF	2	4	[0, 0, 0]	n/a	FR1	1	R1108J
518.903	2.584	527239	WORD	n/a	wordpools/wordpool_EN.txt	FOOD	3	4	[0, 0, 0]	n/a	FR1	1	R1108J
521.487	2.483	529823	WORD	n/a	wordpools/wordpool_EN.txt	BREAD	4	4	[0, 0, 0]	n/a	FR1	1	R1108J
523.97	2.484	532306	WORD	n/a	wordpools/wordpool_EN.txt	BEE	5	4	[0, 0, 0]	n/a	FR1	1	R1108J
526.454	2.534	534790	WORD	n/a	wordpools/wordpool_EN.txt	WING	6	4	[0, 0, 0]	n/a	FR1	1	R1108J
528.988	2.567	537324	WORD	n/a	wordpools/wordpool_EN.txt	ROCK	7	4	[0, 0, 0]	n/a	FR1	1	R1108J
531.555	2.517	539891	WORD	n/a	wordpools/wordpool_EN.txt	PARK	8	4	[0, 0, 0]	n/a	FR1	1	R1108J
534.072	2.433	542408	WORD	n/a	wordpools/wordpool_EN.txt	PHONE	9	4	[0, 0, 0]	n/a	FR1	1	R1108J
536.505	2.468	544841	WORD	n/a	wordpools/wordpool_EN.txt	ANT	10	4	[0, 0, 0]	n/a	FR1	1	R1108J
538.973	2.433	547309	WORD	n/a	wordpools/wordpool_EN.txt	SEAL	11	4	[0, 0, 0]	n/a	FR1	1	R1108J
541.406	1.617	549742	WORD	n/a	wordpools/wordpool_EN.txt	TAIL	12	4	[0, 0, 0]	n/a	FR1	1	R1108J
543.023	0.0	551358	DISTRACT_START	n/a	n/a	n/a	-999	4	[0, 0, 0]	n/a	FR1	1	R1108J
543.023	0.017	551358	START	n/a	n/a	n/a	-999	4	[-999, -999, -999]	n/a	FR1	1	R1108J
543.04	4.434	551375	PROB	4.434	n/a	n/a	-999	4	[6, 4, 1]	11	FR1	1	R1108J
547.474	7.3	555809	PROB	7.3	n/a	n/a	-999	4	[5, 1, 9]	15	FR1	1	R1108J
554.774	4.018	563109	PROB	4.018	n/a	n/a	-999	4	[6, 2, 6]	14	FR1	1	R1108J
558.792	3.333	567127	PROB	3.333	n/a	n/a	-999	4	[7, 3, 2]	12	FR1	1	R1108J
562.125	4.905	570460	PROB	4.905	n/a	n/a	-999	4	[7, 3, 4]	14	FR1	1	R1108J
567.03	0.013	575365	STOP	n/a	n/a	n/a	-999	4	[-999, -999, -999]	n/a	FR1	1	R1108J
567.043	1.067	575378	DISTRACT_END	n/a	n/a	n/a	-999	4	[0, 0, 0]	n/a	FR1	1	R1108J
568.11	1.53	576445	REC_START	n/a	n/a	n/a	-999	4	[0, 0, 0]	n/a	FR1	1	R1108J
569.64	1.479	577975	REC_WORD	1.479	n/a	PEACH	-999	4	[0, 0, 0]	n/a	FR1	1	R1108J
571.119	1.706	579454	REC_WORD	1.706	n/a	TAIL	-999	4	[0, 0, 0]	n/a	FR1	1	R1108J
572.825	3.351	581160	REC_WORD_VV	3.351	n/a	<>	-999	4	[0, 0, 0]	n/a	FR1	1	R1108J
576.176	1.563	584511	REC_WORD	1.563	n/a	HOOF	-999	4	[0, 0, 0]	n/a	FR1	1	R1108J
577.739	5.03	586074	REC_WORD_VV	5.03	n/a	<>	-999	4	[0, 0, 0]	n/a	FR1	1	R1108J
582.769	15.351	591104	REC_WORD	15.351	n/a	PHONE	-999	4	[0, 0, 0]	n/a	FR1	1	R1108J
598.12	2.144	606455	REC_END	n/a	n/a	n/a	-999	4	[0, 0, 0]	n/a	FR1	1	R1108J
600.264	0.0	608599	TRIAL	n/a	n/a	n/a	-999	5	[0, 0, 0]	n/a	FR1	1	R1108J
600.264	10.428	608599	COUNTDOWN_START	n/a	n/a	n/a	-999	5	[0, 0, 0]	n/a	FR1	1	R1108J
610.692	0.007	619027	COUNTDOWN_END	n/a	n/a	n/a	-999	5	[0, 0, 0]	n/a	FR1	1	R1108J
610.699	3.717	619034	ORIENT	n/a	n/a	n/a	-999	5	[0, 0, 0]	n/a	FR1	1	R1108J
614.416	2.467	622751	WORD	n/a	wordpools/wordpool_EN.txt	SPARK	1	5	[0, 0, 0]	n/a	FR1	1	R1108J
616.883	2.55	625218	WORD	n/a	wordpools/wordpool_EN.txt	SNAIL	2	5	[0, 0, 0]	n/a	FR1	1	R1108J
619.433	2.467	627767	WORD	n/a	wordpools/wordpool_EN.txt	PRINCE	3	5	[0, 0, 0]	n/a	FR1	1	R1108J
621.9	2.484	630234	WORD	n/a	wordpools/wordpool_EN.txt	DESK	4	5	[0, 0, 0]	n/a	FR1	1	R1108J
624.384	2.617	632718	WORD	n/a	wordpools/wordpool_EN.txt	BOOK	5	5	[0, 0, 0]	n/a	FR1	1	R1108J
627.001	2.401	635335	WORD	n/a	wordpools/wordpool_EN.txt	LAWN	6	5	[0, 0, 0]	n/a	FR1	1	R1108J
629.402	2.416	637736	WORD	n/a	wordpools/wordpool_EN.txt	JET	7	5	[0, 0, 0]	n/a	FR1	1	R1108J
631.818	2.584	640152	WORD	n/a	wordpools/wordpool_EN.txt	NEST	8	5	[0, 0, 0]	n/a	FR1	1	R1108J
634.402	2.567	642736	WORD	n/a	wordpools/wordpool_EN.txt	FILM	9	5	[0, 0, 0]	n/a	FR1	1	R1108J
636.969	2.434	645303	WORD	n/a	wordpools/wordpool_EN.txt	KITE	10	5	[0, 0, 0]	n/a	FR1	1	R1108J
639.403	2.583	647737	WORD	n/a	wordpools/wordpool_EN.txt	MAZE	11	5	[0, 0, 0]	n/a	FR1	1	R1108J
641.986	1.617	650320	WORD	n/a	wordpools/wordpool_EN.txt	STORM	12	5	[0, 0, 0]	n/a	FR1	1	R1108J
643.603	0.001	651937	DISTRACT_START	n/a	n/a	n/a	-999	5	[0, 0, 0]	n/a	FR1	1	R1108J
643.604	0.016	651938	START	n/a	n/a	n/a	-999	5	[-999, -999, -999]	n/a	FR1	1	R1108J
643.62	4.533	651954	PROB	4.533	n/a	n/a	-999	5	[5, 5, 8]	18	FR1	1	R1108J
648.153	3.368	656487	PROB	3.368	n/a	n/a	-999	5	[1, 6, 5]	12	FR1	1	R1108J
651.521	4.566	659855	PROB	4.566	n/a	n/a	-999	5	[1, 3, 9]	13	FR1	1	R1108J
656.087	9.035	664421	PROB	9.035	n/a	n/a	-999	5	[8, 2, 5]	15	FR1	1	R1108J
665.122	0.016	673456	STOP	n/a	n/a	n/a	-999	5	[-999, -999, -999]	n/a	FR1	1	R1108J
665.138	1.136	673472	DISTRACT_END	n/a	n/a	n/a	-999	5	[0, 0, 0]	n/a	FR1	1	R1108J
666.274	0.451	674608	REC_START	n/a	n/a	n/a	-999	5	[0, 0, 0]	n/a	FR1	1	R1108J
666.725	11.508	675059	REC_WORD_VV	11.508	n/a	<>	-999	5	[0, 0, 0]	n/a	FR1	1	R1108J
678.233	1.0	686567	REC_WORD	1.0	n/a	SPARK	-999	5	[0, 0, 0]	n/a	FR1	1	R1108J
679.233	0.821	687567	REC_WORD_VV	0.821	n/a	<>	-999	5	[0, 0, 0]	n/a	FR1	1	R1108J
680.054	1.0	688388	REC_WORD_VV	1.0	n/a	<>	-999	5	[0, 0, 0]	n/a	FR1	1	R1108J
681.054	15.23	689388	REC_WORD_VV	15.23	n/a	<>	-999	5	[0, 0, 0]	n/a	FR1	1	R1108J
696.284	2.71	704617	REC_END	n/a	n/a	n/a	-999	5	[0, 0, 0]	n/a	FR1	1	R1108J
698.994	0.0	707327	TRIAL	n/a	n/a	n/a	-999	6	[0, 0, 0]	n/a	FR1	1	R1108J
698.994	10.428	707327	COUNTDOWN_START	n/a	n/a	n/a	-999	6	[0, 0, 0]	n/a	FR1	1	R1108J
709.422	0.007	717755	COUNTDOWN_END	n/a	n/a	n/a	-999	6	[0, 0, 0]	n/a	FR1	1	R1108J
709.429	3.666	717762	ORIENT	n/a	n/a	n/a	-999	6	[0, 0, 0]	n/a	FR1	1	R1108J
713.095	2.568	721428	WORD	n/a	wordpools/wordpool_EN.txt	ELF	1	6	[0, 0, 0]	n/a	FR1	1	R1108J
715.663	2.584	723996	WORD	n/a	wordpools/wordpool_EN.txt	CAVE	2	6	[0, 0, 0]	n/a	FR1	1	R1108J
718.247	2.6	726580	WORD	n/a	wordpools/wordpool_EN.txt	EAR	3	6	[0, 0, 0]	n/a	FR1	1	R1108J
720.847	2.5	729180	WORD	n/a	wordpools/wordpool_EN.txt	FORT	4	6	[0, 0, 0]	n/a	FR1	1	R1108J
723.347	2.601	731680	WORD	n/a	wordpools/wordpool_EN.txt	GLASS	5	6	[0, 0, 0]	n/a	FR1	1	R1108J
725.948	2.5	734281	WORD	n/a	wordpools/wordpool_EN.txt	WOOD	6	6	[0, 0, 0]	n/a	FR1	1	R1108J
728.448	2.483	736781	WORD	n/a	wordpools/wordpool_EN.txt	MOUTH	7	6	[0, 0, 0]	n/a	FR1	1	R1108J
730.931	2.551	739264	WORD	n/a	wordpools/wordpool_EN.txt	CAKE	8	6	[0, 0, 0]	n/a	FR1	1	R1108J
733.482	2.434	741815	WORD	n/a	wordpools/wordpool_EN.txt	SLEEVE	9	6	[0, 0, 0]	n/a	FR1	1	R1108J
735.916	2.45	744249	WORD	n/a	wordpools/wordpool_EN.txt	TOOTH	10	6	[0, 0, 0]	n/a	FR1	1	R1108J
738.366	2.533	746699	WORD	n/a	wordpools/wordpool_EN.txt	TOOL	11	6	[0, 0, 0]	n/a	FR1	1	R1108J
740.899	1.617	749232	WORD	n/a	wordpools/wordpool_EN.txt	SPRING	12	6	[0, 0, 0]	n/a	FR1	1	R1108J
742.516	0.001	750849	DISTRACT_START	n/a	n/a	n/a	-999	6	[0, 0, 0]	n/a	FR1	1	R1108J
742.517	0.016	750850	START	n/a	n/a	n/a	-999	6	[-999, -999, -999]	n/a	FR1	1	R1108J
742.533	3.884	750866	PROB	3.884	n/a	n/a	-999	6	[3, 2, 7]	12	FR1	1	R1108J
746.417	7.067	754750	PROB	7.067	n/a	n/a	-999	6	[6, 9, 6]	21	FR1	1	R1108J
753.484	4.801	761817	PROB	4.801	n/a	n/a	-999	6	[8, 4, 2]	14	FR1	1	R1108J
758.285	4.946	766618	PROB	4.946	n/a	n/a	-999	6	[6, 8, 1]	15	FR1	1	R1108J
763.231	0.005	771564	STOP	n/a	n/a	n/a	-999	6	[-999, -999, -999]	n/a	FR1	1	R1108J
763.236	1.068	771569	DISTRACT_END	n/a	n/a	n/a	-999	6	[0, 0, 0]	n/a	FR1	1	R1108J
764.304	16.278	772637	REC_START	n/a	n/a	n/a	-999	6	[0, 0, 0]	n/a	FR1	1	R1108J
780.582	1.075	788914	REC_WORD	1.075	n/a	WOOD	-999	6	[0, 0, 0]	n/a	FR1	1	R1108J
781.657	0.814	789989	REC_WORD	0.814	n/a	GLASS	-999	6	[0, 0, 0]	n/a	FR1	1	R1108J
782.471	1.0	790803	REC_WORD_VV	1.0	n/a	<>	-999	6	[0, 0, 0]	n/a	FR1	1	R1108J
783.471	5.28	791803	REC_WORD_VV	5.28	n/a	<>	-999	6	[0, 0, 0]	n/a	FR1	1	R1108J
788.751	1.911	797083	REC_WORD	1.911	n/a	ELF	-999	6	[0, 0, 0]	n/a	FR1	1	R1108J
790.662	3.651	798994	REC_WORD	3.651	n/a	CAVE	-999	6	[0, 0, 0]	n/a	FR1	1	R1108J
794.313	3.511	802645	REC_END	n/a	n/a	n/a	-999	6	[0, 0, 0]	n/a	FR1	1	R1108J
797.824	0.0	806156	TRIAL	n/a	n/a	n/a	-999	7	[0, 0, 0]	n/a	FR1	1	R1108J
797.824	10.428	806156	COUNTDOWN_START	n/a	n/a	n/a	-999	7	[0, 0, 0]	n/a	FR1	1	R1108J
808.252	0.007	816584	COUNTDOWN_END	n/a	n/a	n/a	-999	7	[0, 0, 0]	n/a	FR1	1	R1108J
808.259	3.817	816591	ORIENT	n/a	n/a	n/a	-999	7	[0, 0, 0]	n/a	FR1	1	R1108J
812.076	2.483	820408	WORD	n/a	wordpools/wordpool_EN.txt	MOON	1	7	[0, 0, 0]	n/a	FR1	1	R1108J
814.559	2.451	822891	WORD	n/a	wordpools/wordpool_EN.txt	WORLD	2	7	[0, 0, 0]	n/a	FR1	1	R1108J
817.01	2.567	825342	WORD	n/a	wordpools/wordpool_EN.txt	SUIT	3	7	[0, 0, 0]	n/a	FR1	1	R1108J
819.577	2.566	827909	WORD	n/a	wordpools/wordpool_EN.txt	POLE	4	7	[0, 0, 0]	n/a	FR1	1	R1108J
822.143	2.501	830475	WORD	n/a	wordpools/wordpool_EN.txt	STAR	5	7	[0, 0, 0]	n/a	FR1	1	R1108J
824.644	2.617	832976	WORD	n/a	wordpools/wordpool_EN.txt	RUG	6	7	[0, 0, 0]	n/a	FR1	1	R1108J
827.261	2.417	835593	WORD	n/a	wordpools/wordpool_EN.txt	CAR	7	7	[0, 0, 0]	n/a	FR1	1	R1108J
829.678	2.533	838010	WORD	n/a	wordpools/wordpool_EN.txt	STRING	8	7	[0, 0, 0]	n/a	FR1	1	R1108J
832.211	2.384	840543	WORD	n/a	wordpools/wordpool_EN.txt	CORN	9	7	[0, 0, 0]	n/a	FR1	1	R1108J
834.595	2.566	842927	WORD	n/a	wordpools/wordpool_EN.txt	LAMB	10	7	[0, 0, 0]	n/a	FR1	1	R1108J
837.161	2.435	845493	WORD	n/a	wordpools/wordpool_EN.txt	BADGE	11	7	[0, 0, 0]	n/a	FR1	1	R1108J
839.596	1.617	847928	WORD	n/a	wordpools/wordpool_EN.txt	RAKE	12	7	[0, 0, 0]	n/a	FR1	1	R1108J
841.213	0.0	849545	DISTRACT_START	n/a	n/a	n/a	-999	7	[0, 0, 0]	n/a	FR1	1	R1108J
841.213	0.016	849545	START	n/a	n/a	n/a	-999	7	[-999, -999, -999]	n/a	FR1	1	R1108J
841.229	8.502	849561	PROB	8.502	n/a	n/a	-999	7	[7, 1, 6]	13	FR1	1	R1108J
849.731	4.817	858062	PROB	4.817	n/a	n/a	-999	7	[3, 1, 6]	10	FR1	1	R1108J
854.548	7.991	862879	PROB	7.991	n/a	n/a	-999	7	[1, 6, 2]	9	FR1	1	R1108J
862.539	0.01	870870	STOP	n/a	n/a	n/a	-999	7	[-999, -999, -999]	n/a	FR1	1	R1108J
862.549	1.218	870880	DISTRACT_END	n/a	n/a	n/a	-999	7	[0, 0, 0]	n/a	FR1	1	R1108J
863.767	1.025	872098	REC_START	n/a	n/a	n/a	-999	7	[0, 0, 0]	n/a	FR1	1	R1108J
864.792	11.917	873123	REC_WORD_VV	11.917	n/a	<>	-999	7	[0, 0, 0]	n/a	FR1	1	R1108J
876.709	1.36	885040	REC_WORD	1.36	n/a	RUG	-999	7	[0, 0, 0]	n/a	FR1	1	R1108J
878.069	0.517	886400	REC_WORD_VV	0.517	n/a	<>	-999	7	[0, 0, 0]	n/a	FR1	1	R1108J
878.586	3.93	886917	REC_WORD	3.93	n/a	LAMB	-999	7	[0, 0, 0]	n/a	FR1	1	R1108J
882.516	2.011	890847	REC_WORD	2.011	n/a	CORN	-999	7	[0, 0, 0]	n/a	FR1	1	R1108J
884.527	1.677	892858	REC_WORD	1.677	n/a	STRING	-999	7	[0, 0, 0]	n/a	FR1	1	R1108J
886.204	7.572	894535	REC_WORD_VV	7.572	n/a	<>	-999	7	[0, 0, 0]	n/a	FR1	1	R1108J
893.776	2.228	902107	REC_END	n/a	n/a	n/a	-999	7	[0, 0, 0]	n/a	FR1	1	R1108J
896.004	0.0	904335	TRIAL	n/a	n/a	n/a	-999	8	[0, 0, 0]	n/a	FR1	1	R1108J
896.004	10.428	904335	COUNTDOWN_START	n/a	n/a	n/a	-999	8	[0, 0, 0]	n/a	FR1	1	R1108J
906.432	0.006	914763	COUNTDOWN_END	n/a	n/a	n/a	-999	8	[0, 0, 0]	n/a	FR1	1	R1108J
906.438	3.784	914769	ORIENT	n/a	n/a	n/a	-999	8	[0, 0, 0]	n/a	FR1	1	R1108J
910.222	2.6	918553	WORD	n/a	wordpools/wordpool_EN.txt	SIGN	1	8	[0, 0, 0]	n/a	FR1	1	R1108J
912.822	2.601	921153	WORD	n/a	wordpools/wordpool_EN.txt	BIRD	2	8	[0, 0, 0]	n/a	FR1	1	R1108J
915.423	2.5	923754	WORD	n/a	wordpools/wordpool_EN.txt	CUBE	3	8	[0, 0, 0]	n/a	FR1	1	R1108J
917.923	2.384	926254	WORD	n/a	wordpools/wordpool_EN.txt	DRESS	4	8	[0, 0, 0]	n/a	FR1	1	R1108J
920.307	2.584	928638	WORD	n/a	wordpools/wordpool_EN.txt	BARN	5	8	[0, 0, 0]	n/a	FR1	1	R1108J
922.891	2.416	931221	WORD	n/a	wordpools/wordpool_EN.txt	BRUSH	6	8	[0, 0, 0]	n/a	FR1	1	R1108J
925.307	2.551	933637	WORD	n/a	wordpools/wordpool_EN.txt	SEA	7	8	[0, 0, 0]	n/a	FR1	1	R1108J
927.858	2.384	936188	WORD	n/a	wordpools/wordpool_EN.txt	BRICK	8	8	[0, 0, 0]	n/a	FR1	1	R1108J
930.242	2.567	938572	WORD	n/a	wordpools/wordpool_EN.txt	BOX	9	8	[0, 0, 0]	n/a	FR1	1	R1108J
932.809	2.4	941139	WORD	n/a	wordpools/wordpool_EN.txt	GATE	10	8	[0, 0, 0]	n/a	FR1	1	R1108J
935.209	2.567	943539	WORD	n/a	wordpools/wordpool_EN.txt	SWAMP	11	8	[0, 0, 0]	n/a	FR1	1	R1108J
937.776	1.617	946106	WORD	n/a	wordpools/wordpool_EN.txt	RAT	12	8	[0, 0, 0]	n/a	FR1	1	R1108J
939.393	0.001	947723	DISTRACT_START	n/a	n/a	n/a	-999	8	[0, 0, 0]	n/a	FR1	1	R1108J
939.394	0.016	947724	START	n/a	n/a	n/a	-999	8	[-999, -999, -999]	n/a	FR1	1	R1108J
939.41	4.05	947740	PROB	4.05	n/a	n/a	-999	8	[1, 2, 9]	12	FR1	1	R1108J
943.46	3.584	951790	PROB	3.584	n/a	n/a	-999	8	[1, 1, 6]	8	FR1	1	R1108J
947.044	3.95	955374	PROB	3.95	n/a	n/a	-999	8	[3, 2, 9]	14	FR1	1	R1108J
950.994	5.668	959324	PROB	5.668	n/a	n/a	-999	8	[2, 6, 8]	16	FR1	1	R1108J
956.662	5.394	964992	PROB	5.394	n/a	n/a	-999	8	[4, 1, 7]	12	FR1	1	R1108J
962.056	0.006	970386	STOP	n/a	n/a	n/a	-999	8	[-999, -999, -999]	n/a	FR1	1	R1108J
962.062	1.218	970392	DISTRACT_END	n/a	n/a	n/a	-999	8	[0, 0, 0]	n/a	FR1	1	R1108J
963.28	1.482	971610	REC_START	n/a	n/a	n/a	-999	8	[0, 0, 0]	n/a	FR1	1	R1108J
964.762	1.074	973092	REC_WORD	1.074	n/a	SWAMP	-999	8	[0, 0, 0]	n/a	FR1	1	R1108J
965.836	1.265	974166	REC_WORD	1.265	n/a	RAT	-999	8	[0, 0, 0]	n/a	FR1	1	R1108J
967.101	2.074	975431	REC_WORD_VV	2.074	n/a	<>	-999	8	[0, 0, 0]	n/a	FR1	1	R1108J
969.175	2.177	977505	REC_WORD	2.177	n/a	BRICK	-999	8	[0, 0, 0]	n/a	FR1	1	R1108J
971.352	21.937	979682	REC_WORD_VV	21.937	n/a	<>	-999	8	[0, 0, 0]	n/a	FR1	1	R1108J
993.289	2.245	1001619	REC_END	n/a	n/a	n/a	-999	8	[0, 0, 0]	n/a	FR1	1	R1108J
995.534	0.0	1003864	COUNTDOWN_START	n/a	n/a	n/a	-999	9	[0, 0, 0]	n/a	FR1	1	R1108J
995.534	10.428	1003864	TRIAL	n/a	n/a	n/a	-999	9	[0, 0, 0]	n/a	FR1	1	R1108J
1005.962	0.006	1014291	COUNTDOWN_END	n/a	n/a	n/a	-999	9	[0, 0, 0]	n/a	FR1	1	R1108J
1005.968	3.668	1014297	ORIENT	n/a	n/a	n/a	-999	9	[0, 0, 0]	n/a	FR1	1	R1108J
1009.636	2.482	1017965	WORD	n/a	wordpools/wordpool_EN.txt	SWORD	1	9	[0, 0, 0]	n/a	FR1	1	R1108J
1012.118	2.535	1020447	WORD	n/a	wordpools/wordpool_EN.txt	STORE	2	9	[0, 0, 0]	n/a	FR1	1	R1108J
1014.653	2.534	1022982	WORD	n/a	wordpools/wordpool_EN.txt	TENT	3	9	[0, 0, 0]	n/a	FR1	1	R1108J
1017.187	2.533	1025516	WORD	n/a	wordpools/wordpool_EN.txt	INK	4	9	[0, 0, 0]	n/a	FR1	1	R1108J
1019.72	2.449	1028049	WORD	n/a	wordpools/wordpool_EN.txt	FLEA	5	9	[0, 0, 0]	n/a	FR1	1	R1108J
1022.169	2.385	1030498	WORD	n/a	wordpools/wordpool_EN.txt	STOOL	6	9	[0, 0, 0]	n/a	FR1	1	R1108J
1024.554	2.533	1032883	WORD	n/a	wordpools/wordpool_EN.txt	DITCH	7	9	[0, 0, 0]	n/a	FR1	1	R1108J
1027.087	2.535	1035416	WORD	n/a	wordpools/wordpool_EN.txt	FLUTE	8	9	[0, 0, 0]	n/a	FR1	1	R1108J
1029.622	2.383	1037951	WORD	n/a	wordpools/wordpool_EN.txt	CANE	9	9	[0, 0, 0]	n/a	FR1	1	R1108J
1032.005	2.567	1040334	WORD	n/a	wordpools/wordpool_EN.txt	CHAIR	10	9	[0, 0, 0]	n/a	FR1	1	R1108J
1034.572	2.533	1042901	WORD	n/a	wordpools/wordpool_EN.txt	STONE	11	9	[0, 0, 0]	n/a	FR1	1	R1108J
1037.105	1.618	1045434	WORD	n/a	wordpools/wordpool_EN.txt	WALL	12	9	[0, 0, 0]	n/a	FR1	1	R1108J
1038.723	0.0	1047052	DISTRACT_START	n/a	n/a	n/a	-999	9	[0, 0, 0]	n/a	FR1	1	R1108J
1038.723	0.016	1047052	START	n/a	n/a	n/a	-999	9	[-999, -999, -999]	n/a	FR1	1	R1108J
1038.739	4.151	1047068	PROB	4.151	n/a	n/a	-999	9	[5, 6, 3]	14	FR1	1	R1108J
1042.89	7.817	1051219	PROB	7.817	n/a	n/a	-999	9	[8, 6, 4]	18	FR1	1	R1108J
1050.707	7.585	1059036	PROB	7.585	n/a	n/a	-999	9	[7, 8, 6]	21	FR1	1	R1108J
1058.292	9.528	1066621	PROB	9.528	n/a	n/a	-999	9	[9, 4, 7]	20	FR1	1	R1108J
1067.82	0.006	1076149	STOP	n/a	n/a	n/a	-999	9	[-999, -999, -999]	n/a	FR1	1	R1108J
1067.826	1.202	1076155	DISTRACT_END	n/a	n/a	n/a	-999	9	[0, 0, 0]	n/a	FR1	1	R1108J
1069.028	1.008	1077357	REC_START	n/a	n/a	n/a	-999	9	[0, 0, 0]	n/a	FR1	1	R1108J
1070.036	2.355	1078365	REC_WORD	2.355	n/a	STONE	-999	9	[0, 0, 0]	n/a	FR1	1	R1108J
1072.391	1.0	1080719	REC_WORD_VV	1.0	n/a	<>	-999	9	[0, 0, 0]	n/a	FR1	1	R1108J
1073.391	3.72	1081719	REC_WORD_VV	3.72	n/a	<>	-999	9	[0, 0, 0]	n/a	FR1	1	R1108J
1077.111	1.385	1085439	REC_WORD	1.385	n/a	WALL	-999	9	[0, 0, 0]	n/a	FR1	1	R1108J
1078.496	16.877	1086824	REC_WORD_VV	16.877	n/a	<>	-999	9	[0, 0, 0]	n/a	FR1	1	R1108J
1095.373	1.571	1103701	REC_WORD	1.571	n/a	SWORD	-999	9	[0, 0, 0]	n/a	FR1	1	R1108J
1096.944	1.062	1105272	REC_WORD	1.062	n/a	CANE	-999	9	[0, 0, 0]	n/a	FR1	1	R1108J
1098.006	1.031	1106334	REC_WORD	1.031	n/a	CHAIR	-999	9	[0, 0, 0]	n/a	FR1	1	R1108J
1099.037	5.711	1107365	REC_END	n/a	n/a	n/a	-999	9	[0, 0, 0]	n/a	FR1	1	R1108J
1104.748	0.0	1113076	TRIAL	n/a	n/a	n/a	-999	10	[0, 0, 0]	n/a	FR1	1	R1108J
1104.748	10.428	1113076	COUNTDOWN_START	n/a	n/a	n/a	-999	10	[0, 0, 0]	n/a	FR1	1	R1108J
1115.176	0.006	1123504	COUNTDOWN_END	n/a	n/a	n/a	-999	10	[0, 0, 0]	n/a	FR1	1	R1108J
1115.182	3.601	1123510	ORIENT	n/a	n/a	n/a	-999	10	[0, 0, 0]	n/a	FR1	1	R1108J
1118.783	2.584	1127111	WORD	n/a	wordpools/wordpool_EN.txt	FLAME	1	10	[0, 0, 0]	n/a	FR1	1	R1108J
1121.367	2.584	1129695	WORD	n/a	wordpools/wordpool_EN.txt	SPOON	2	10	[0, 0, 0]	n/a	FR1	1	R1108J
1123.951	2.433	1132279	WORD	n/a	wordpools/wordpool_EN.txt	CAGE	3	10	[0, 0, 0]	n/a	FR1	1	R1108J
1126.384	2.551	1134712	WORD	n/a	wordpools/wordpool_EN.txt	SHOE	4	10	[0, 0, 0]	n/a	FR1	1	R1108J
1128.935	2.4	1137263	WORD	n/a	wordpools/wordpool_EN.txt	TREE	5	10	[0, 0, 0]	n/a	FR1	1	R1108J
1131.335	2.383	1139663	WORD	n/a	wordpools/wordpool_EN.txt	MOTH	6	10	[0, 0, 0]	n/a	FR1	1	R1108J
1133.718	2.383	1142046	WORD	n/a	wordpools/wordpool_EN.txt	BENCH	7	10	[0, 0, 0]	n/a	FR1	1	R1108J
1136.101	2.502	1144429	WORD	n/a	wordpools/wordpool_EN.txt	STAIR	8	10	[0, 0, 0]	n/a	FR1	1	R1108J
1138.603	2.583	1146931	WORD	n/a	wordpools/wordpool_EN.txt	OAR	9	10	[0, 0, 0]	n/a	FR1	1	R1108J
1141.186	2.517	1149514	WORD	n/a	wordpools/wordpool_EN.txt	ROOM	10	10	[0, 0, 0]	n/a	FR1	1	R1108J
1143.703	2.5	1152031	WORD	n/a	wordpools/wordpool_EN.txt	LIP	11	10	[0, 0, 0]	n/a	FR1	1	R1108J
1146.203	1.617	1154531	WORD	n/a	wordpools/wordpool_EN.txt	TRAY	12	10	[0, 0, 0]	n/a	FR1	1	R1108J
1147.82	0.001	1156148	DISTRACT_START	n/a	n/a	n/a	-999	10	[0, 0, 0]	n/a	FR1	1	R1108J
1147.821	0.016	1156149	START	n/a	n/a	n/a	-999	10	[-999, -999, -999]	n/a	FR1	1	R1108J
1147.837	11.768	1156165	PROB	11.768	n/a	n/a	-999	10	[4, 6, 7]	17	FR1	1	R1108J
1159.605	10.724	1167932	PROB	10.724	n/a	n/a	-999	10	[7, 6, 4]	17	FR1	1	R1108J
1170.329	0.011	1178656	STOP	n/a	n/a	n/a	-999	10	[-999, -999, -999]	n/a	FR1	1	R1108J
1170.34	1.05	1178667	DISTRACT_END	n/a	n/a	n/a	-999	10	[0, 0, 0]	n/a	FR1	1	R1108J
1171.39	6.337	1179717	REC_START	n/a	n/a	n/a	-999	10	[0, 0, 0]	n/a	FR1	1	R1108J
1177.727	1.78	1186054	REC_WORD	1.78	n/a	SHOE	-999	10	[0, 0, 0]	n/a	FR1	1	R1108J
1179.507	6.96	1187834	REC_WORD_VV	6.96	n/a	<>	-999	10	[0, 0, 0]	n/a	FR1	1	R1108J
1186.467	14.629	1194794	REC_WORD	14.629	n/a	MOTH	-999	10	[0, 0, 0]	n/a	FR1	1	R1108J
1201.096	0.309	1209423	REC_WORD_VV	0.309	n/a	<>	-999	10	[0, 0, 0]	n/a	FR1	1	R1108J
1201.405	404.975	1209732	REC_END	n/a	n/a	n/a	-999	10	[0, 0, 0]	n/a	FR1	1	R1108J
1606.38	0.0	1614701	COUNTDOWN_START	n/a	n/a	n/a	-999	11	[0, 0, 0]	n/a	FR1	1	R1108J
1606.38	10.428	1614701	TRIAL	n/a	n/a	n/a	-999	11	[0, 0, 0]	n/a	FR1	1	R1108J
1616.808	0.007	1625129	COUNTDOWN_END	n/a	n/a	n/a	-999	11	[0, 0, 0]	n/a	FR1	1	R1108J
1616.815	3.951	1625136	ORIENT	n/a	n/a	n/a	-999	11	[0, 0, 0]	n/a	FR1	1	R1108J
1620.766	2.533	1629087	WORD	n/a	wordpools/wordpool_EN.txt	SPEAR	1	11	[0, 0, 0]	n/a	FR1	1	R1108J
1623.299	2.451	1631620	WORD	n/a	wordpools/wordpool_EN.txt	MAT	2	11	[0, 0, 0]	n/a	FR1	1	R1108J
1625.75	2.6	1634071	WORD	n/a	wordpools/wordpool_EN.txt	CART	3	11	[0, 0, 0]	n/a	FR1	1	R1108J
1628.35	2.5	1636671	WORD	n/a	wordpools/wordpool_EN.txt	YARD	4	11	[0, 0, 0]	n/a	FR1	1	R1108J
1630.85	2.551	1639171	WORD	n/a	wordpools/wordpool_EN.txt	PET	5	11	[0, 0, 0]	n/a	FR1	1	R1108J
1633.401	2.617	1641722	WORD	n/a	wordpools/wordpool_EN.txt	SAIL	6	11	[0, 0, 0]	n/a	FR1	1	R1108J
1636.018	2.467	1644339	WORD	n/a	wordpools/wordpool_EN.txt	CLAY	7	11	[0, 0, 0]	n/a	FR1	1	R1108J
1638.485	2.616	1646806	WORD	n/a	wordpools/wordpool_EN.txt	BEAR	8	11	[0, 0, 0]	n/a	FR1	1	R1108J
1641.101	2.601	1649422	WORD	n/a	wordpools/wordpool_EN.txt	SALT	9	11	[0, 0, 0]	n/a	FR1	1	R1108J
1643.702	2.601	1652023	WORD	n/a	wordpools/wordpool_EN.txt	RIB	10	11	[0, 0, 0]	n/a	FR1	1	R1108J
1646.303	2.417	1654624	WORD	n/a	wordpools/wordpool_EN.txt	PEACH	11	11	[0, 0, 0]	n/a	FR1	1	R1108J
1648.72	1.617	1657041	WORD	n/a	wordpools/wordpool_EN.txt	DUCK	12	11	[0, 0, 0]	n/a	FR1	1	R1108J
1650.337	0.0	1658658	DISTRACT_START	n/a	n/a	n/a	-999	11	[0, 0, 0]	n/a	FR1	1	R1108J
1650.337	0.017	1658658	START	n/a	n/a	n/a	-999	11	[-999, -999, -999]	n/a	FR1	1	R1108J
1650.354	11.334	1658675	PROB	11.334	n/a	n/a	-999	11	[9, 6, 8]	24	FR1	1	R1108J
1661.688	10.629	1670009	PROB	10.629	n/a	n/a	-999	11	[7, 2, 5]	14	FR1	1	R1108J
1672.317	0.006	1680638	STOP	n/a	n/a	n/a	-999	11	[-999, -999, -999]	n/a	FR1	1	R1108J
1672.323	1.167	1680644	DISTRACT_END	n/a	n/a	n/a	-999	11	[0, 0, 0]	n/a	FR1	1	R1108J
1673.49	1.781	1681811	REC_START	n/a	n/a	n/a	-999	11	[0, 0, 0]	n/a	FR1	1	R1108J
1675.271	1.597	1683592	REC_WORD	1.597	n/a	PET	-999	11	[0, 0, 0]	n/a	FR1	1	R1108J
1676.868	17.993	1685189	REC_WORD_VV	17.993	n/a	<>	-999	11	[0, 0, 0]	n/a	FR1	1	R1108J
1694.861	0.996	1703181	REC_WORD	0.996	n/a	DUCK	-999	11	[0, 0, 0]	n/a	FR1	1	R1108J
1695.857	1.0	1704177	REC_WORD_VV	1.0	n/a	<>	-999	11	[0, 0, 0]	n/a	FR1	1	R1108J
1696.857	6.642	1705177	REC_WORD_VV	6.642	n/a	<>	-999	11	[0, 0, 0]	n/a	FR1	1	R1108J
1703.499	2.362	1711819	REC_END	n/a	n/a	n/a	-999	11	[0, 0, 0]	n/a	FR1	1	R1108J
1705.861	0.0	1714181	TRIAL	n/a	n/a	n/a	-999	12	[0, 0, 0]	n/a	FR1	1	R1108J
1705.861	10.428	1714181	COUNTDOWN_START	n/a	n/a	n/a	-999	12	[0, 0, 0]	n/a	FR1	1	R1108J
1716.289	0.007	1724609	COUNTDOWN_END	n/a	n/a	n/a	-999	12	[0, 0, 0]	n/a	FR1	1	R1108J
1716.296	3.633	1724616	ORIENT	n/a	n/a	n/a	-999	12	[0, 0, 0]	n/a	FR1	1	R1108J
1719.929	2.383	1728249	WORD	n/a	wordpools/wordpool_EN.txt	PEARL	1	12	[0, 0, 0]	n/a	FR1	1	R1108J
1722.312	2.485	1730632	WORD	n/a	wordpools/wordpool_EN.txt	TEETH	2	12	[0, 0, 0]	n/a	FR1	1	R1108J
1724.797	2.5	1733117	WORD	n/a	wordpools/wordpool_EN.txt	MOLE	3	12	[0, 0, 0]	n/a	FR1	1	R1108J
1727.297	2.417	1735617	WORD	n/a	wordpools/wordpool_EN.txt	TRASH	4	12	[0, 0, 0]	n/a	FR1	1	R1108J
1729.714	2.517	1738034	WORD	n/a	wordpools/wordpool_EN.txt	GOLD	5	12	[0, 0, 0]	n/a	FR1	1	R1108J
1732.231	2.467	1740551	WORD	n/a	wordpools/wordpool_EN.txt	ZOO	6	12	[0, 0, 0]	n/a	FR1	1	R1108J
1734.698	2.432	1743018	WORD	n/a	wordpools/wordpool_EN.txt	DART	7	12	[0, 0, 0]	n/a	FR1	1	R1108J
1737.13	2.602	1745450	WORD	n/a	wordpools/wordpool_EN.txt	TOAST	8	12	[0, 0, 0]	n/a	FR1	1	R1108J
1739.732	2.55	1748052	WORD	n/a	wordpools/wordpool_EN.txt	CHEEK	9	12	[0, 0, 0]	n/a	FR1	1	R1108J
1742.282	2.584	1750602	WORD	n/a	wordpools/wordpool_EN.txt	KEY	10	12	[0, 0, 0]	n/a	FR1	1	R1108J
1744.866	2.6	1753186	WORD	n/a	wordpools/wordpool_EN.txt	SHEEP	11	12	[0, 0, 0]	n/a	FR1	1	R1108J
1747.466	1.617	1755786	WORD	n/a	wordpools/wordpool_EN.txt	LEAF	12	12	[0, 0, 0]	n/a	FR1	1	R1108J
1749.083	0.001	1757403	DISTRACT_START	n/a	n/a	n/a	-999	12	[0, 0, 0]	n/a	FR1	1	R1108J
1749.084	0.015	1757404	START	n/a	n/a	n/a	-999	12	[-999, -999, -999]	n/a	FR1	1	R1108J
1749.099	7.552	1757419	PROB	7.552	n/a	n/a	-999	12	[4, 9, 7]	20	FR1	1	R1108J
1756.651	5.151	1764970	PROB	5.151	n/a	n/a	-999	12	[2, 4, 6]	12	FR1	1	R1108J
1761.802	6.316	1770121	PROB	6.316	n/a	n/a	-999	12	[7, 3, 5]	15	FR1	1	R1108J
1768.118	5.444	1776437	PROB	5.444	n/a	n/a	-999	12	[8, 2, 8]	18	FR1	1	R1108J
1773.562	0.008	1781881	STOP	n/a	n/a	n/a	-999	12	[-999, -999, -999]	n/a	FR1	1	R1108J
1773.57	1.034	1781889	DISTRACT_END	n/a	n/a	n/a	-999	12	[0, 0, 0]	n/a	FR1	1	R1108J
1774.604	3.926	1782923	REC_START	n/a	n/a	n/a	-999	12	[0, 0, 0]	n/a	FR1	1	R1108J
1778.53	0.95	1786849	REC_WORD	0.95	n/a	PEARL	-999	12	[0, 0, 0]	n/a	FR1	1	R1108J
1779.48	0.812	1787799	REC_WORD	0.812	n/a	GOLD	-999	12	[0, 0, 0]	n/a	FR1	1	R1108J
1780.292	1.41	1788611	REC_WORD	1.41	n/a	TEETH	-999	12	[0, 0, 0]	n/a	FR1	1	R1108J
1781.702	12.817	1790021	REC_WORD_VV	12.817	n/a	<>	-999	12	[0, 0, 0]	n/a	FR1	1	R1108J
1794.519	5.568	1802838	REC_WORD	5.568	n/a	DART	-999	12	[0, 0, 0]	n/a	FR1	1	R1108J
1800.087	4.527	1808406	REC_WORD	4.527	n/a	MOLE	-999	12	[0, 0, 0]	n/a	FR1	1	R1108J
1804.614	2.744	1812933	REC_END	n/a	n/a	n/a	-999	12	[0, 0, 0]	n/a	FR1	1	R1108J
1807.358	0.0	1815677	TRIAL	n/a	n/a	n/a	-999	13	[0, 0, 0]	n/a	FR1	1	R1108J
1807.358	10.428	1815677	COUNTDOWN_START	n/a	n/a	n/a	-999	13	[0, 0, 0]	n/a	FR1	1	R1108J
1817.786	0.006	1826105	COUNTDOWN_END	n/a	n/a	n/a	-999	13	[0, 0, 0]	n/a	FR1	1	R1108J
1817.792	3.668	1826111	ORIENT	n/a	n/a	n/a	-999	13	[0, 0, 0]	n/a	FR1	1	R1108J
1821.46	2.483	1829779	WORD	n/a	wordpools/wordpool_EN.txt	SHEET	1	13	[0, 0, 0]	n/a	FR1	1	R1108J
1823.943	2.601	1832262	WORD	n/a	wordpools/wordpool_EN.txt	SHIRT	2	13	[0, 0, 0]	n/a	FR1	1	R1108J
1826.544	2.417	1834863	WORD	n/a	wordpools/wordpool_EN.txt	BAND	3	13	[0, 0, 0]	n/a	FR1	1	R1108J
1828.961	2.467	1837280	WORD	n/a	wordpools/wordpool_EN.txt	BOAT	4	13	[0, 0, 0]	n/a	FR1	1	R1108J
1831.428	2.567	1839746	WORD	n/a	wordpools/wordpool_EN.txt	LAKE	5	13	[0, 0, 0]	n/a	FR1	1	R1108J
1833.995	2.617	1842313	WORD	n/a	wordpools/wordpool_EN.txt	JUICE	6	13	[0, 0, 0]	n/a	FR1	1	R1108J
1836.612	2.549	1844930	WORD	n/a	wordpools/wordpool_EN.txt	SLUSH	7	13	[0, 0, 0]	n/a	FR1	1	R1108J
1839.161	2.434	1847479	WORD	n/a	wordpools/wordpool_EN.txt	CLOCK	8	13	[0, 0, 0]	n/a	FR1	1	R1108J
1841.595	2.517	1849913	WORD	n/a	wordpools/wordpool_EN.txt	BOARD	9	13	[0, 0, 0]	n/a	FR1	1	R1108J
1844.112	2.568	1852430	WORD	n/a	wordpools/wordpool_EN.txt	STEAK	10	13	[0, 0, 0]	n/a	FR1	1	R1108J
1846.68	2.483	1854998	WORD	n/a	wordpools/wordpool_EN.txt	PASTE	11	13	[0, 0, 0]	n/a	FR1	1	R1108J
1849.163	1.617	1857481	WORD	n/a	wordpools/wordpool_EN.txt	BOY	12	13	[0, 0, 0]	n/a	FR1	1	R1108J
1850.78	0.001	1859098	DISTRACT_START	n/a	n/a	n/a	-999	13	[0, 0, 0]	n/a	FR1	1	R1108J
1850.781	0.016	1859099	START	n/a	n/a	n/a	-999	13	[-999, -999, -999]	n/a	FR1	1	R1108J
1850.797	8.501	1859115	PROB	8.501	n/a	n/a	-999	13	[4, 5, 3]	12	FR1	1	R1108J
1859.298	3.05	1867616	PROB	3.05	n/a	n/a	-999	13	[1, 8, 1]	10	FR1	1	R1108J
1862.348	5.084	1870666	PROB	5.084	n/a	n/a	-999	13	[7, 7, 6]	20	FR1	1	R1108J
1867.432	16.174	1875750	PROB	16.174	n/a	n/a	-999	13	[8, 5, 1]	15	FR1	1	R1108J
1883.606	0.012	1891924	STOP	n/a	n/a	n/a	-999	13	[-999, -999, -999]	n/a	FR1	1	R1108J
1883.618	1.034	1891936	DISTRACT_END	n/a	n/a	n/a	-999	13	[0, 0, 0]	n/a	FR1	1	R1108J
1884.652	1.203	1892970	REC_START	n/a	n/a	n/a	-999	13	[0, 0, 0]	n/a	FR1	1	R1108J
1885.855	1.252	1894173	REC_WORD	1.252	n/a	BOY	-999	13	[0, 0, 0]	n/a	FR1	1	R1108J
1887.107	19.052	1895425	REC_WORD_VV	19.052	n/a	<>	-999	13	[0, 0, 0]	n/a	FR1	1	R1108J
1906.159	1.461	1914476	REC_WORD	1.461	n/a	SHIRT	-999	13	[0, 0, 0]	n/a	FR1	1	R1108J
1907.62	0.753	1915937	REC_WORD_VV	0.753	n/a	<>	-999	13	[0, 0, 0]	n/a	FR1	1	R1108J
1908.373	6.293	1916690	REC_WORD	6.293	n/a	SHEET	-999	13	[0, 0, 0]	n/a	FR1	1	R1108J
1914.666	3.073	1922983	REC_END	n/a	n/a	n/a	-999	13	[0, 0, 0]	n/a	FR1	1	R1108J
1917.739	0.0	1926056	COUNTDOWN_START	n/a	n/a	n/a	-999	14	[0, 0, 0]	n/a	FR1	1	R1108J
1917.739	10.428	1926056	TRIAL	n/a	n/a	n/a	-999	14	[0, 0, 0]	n/a	FR1	1	R1108J
1928.167	0.006	1936484	COUNTDOWN_END	n/a	n/a	n/a	-999	14	[0, 0, 0]	n/a	FR1	1	R1108J
1928.173	3.768	1936490	ORIENT	n/a	n/a	n/a	-999	14	[0, 0, 0]	n/a	FR1	1	R1108J
1931.941	2.6	1940258	WORD	n/a	wordpools/wordpool_EN.txt	OAK	1	14	[0, 0, 0]	n/a	FR1	1	R1108J
1934.541	2.501	1942858	WORD	n/a	wordpools/wordpool_EN.txt	PANTS	2	14	[0, 0, 0]	n/a	FR1	1	R1108J
1937.042	2.634	1945359	WORD	n/a	wordpools/wordpool_EN.txt	SMOKE	3	14	[0, 0, 0]	n/a	FR1	1	R1108J
1939.676	2.416	1947993	WORD	n/a	wordpools/wordpool_EN.txt	DOOR	4	14	[0, 0, 0]	n/a	FR1	1	R1108J
1942.092	2.417	1950409	WORD	n/a	wordpools/wordpool_EN.txt	PALM	5	14	[0, 0, 0]	n/a	FR1	1	R1108J
1944.509	2.568	1952826	WORD	n/a	wordpools/wordpool_EN.txt	SOCK	6	14	[0, 0, 0]	n/a	FR1	1	R1108J
1947.077	2.4	1955394	WORD	n/a	wordpools/wordpool_EN.txt	FARM	7	14	[0, 0, 0]	n/a	FR1	1	R1108J
1949.477	2.55	1957794	WORD	n/a	wordpools/wordpool_EN.txt	GLOVE	8	14	[0, 0, 0]	n/a	FR1	1	R1108J
1952.027	2.551	1960344	WORD	n/a	wordpools/wordpool_EN.txt	SOAP	9	14	[0, 0, 0]	n/a	FR1	1	R1108J
1954.578	2.532	1962895	WORD	n/a	wordpools/wordpool_EN.txt	WHALE	10	14	[0, 0, 0]	n/a	FR1	1	R1108J
1957.11	2.502	1965427	WORD	n/a	wordpools/wordpool_EN.txt	RICE	11	14	[0, 0, 0]	n/a	FR1	1	R1108J
1959.612	1.616	1967929	WORD	n/a	wordpools/wordpool_EN.txt	ROOF	12	14	[0, 0, 0]	n/a	FR1	1	R1108J
1961.228	0.001	1969545	DISTRACT_START	n/a	n/a	n/a	-999	14	[0, 0, 0]	n/a	FR1	1	R1108J
1961.229	0.016	1969546	START	n/a	n/a	n/a	-999	14	[-999, -999, -999]	n/a	FR1	1	R1108J
1961.245	5.134	1969562	PROB	5.134	n/a	n/a	-999	14	[5, 3, 2]	10	FR1	1	R1108J
1966.379	3.934	1974696	PROB	3.934	n/a	n/a	-999	14	[1, 6, 9]	16	FR1	1	R1108J
1970.313	15.162	1978630	PROB	15.162	n/a	n/a	-999	14	[1, 5, 7]	13	FR1	1	R1108J
1985.475	0.007	1993791	STOP	n/a	n/a	n/a	-999	14	[-999, -999, -999]	n/a	FR1	1	R1108J
1985.482	1.167	1993798	DISTRACT_END	n/a	n/a	n/a	-999	14	[0, 0, 0]	n/a	FR1	1	R1108J
1986.649	0.666	1994965	REC_START	n/a	n/a	n/a	-999	14	[0, 0, 0]	n/a	FR1	1	R1108J
1987.315	3.022	1995631	REC_WORD_VV	3.022	n/a	<>	-999	14	[0, 0, 0]	n/a	FR1	1	R1108J
1990.337	0.731	1998653	REC_WORD	0.731	n/a	OAK	-999	14	[0, 0, 0]	n/a	FR1	1	R1108J
1991.068	1.327	1999384	REC_WORD	1.327	n/a	PANTS	-999	14	[0, 0, 0]	n/a	FR1	1	R1108J
1992.395	4.675	2000711	REC_WORD_VV	4.675	n/a	<>	-999	14	[0, 0, 0]	n/a	FR1	1	R1108J
1997.07	2.669	2005386	REC_WORD	2.669	n/a	WHALE	-999	14	[0, 0, 0]	n/a	FR1	1	R1108J
1999.739	4.765	2008055	REC_WORD_VV	4.765	n/a	<>	-999	14	[0, 0, 0]	n/a	FR1	1	R1108J
2004.504	9.383	2012820	REC_WORD	9.383	n/a	RICE	-999	14	[0, 0, 0]	n/a	FR1	1	R1108J
2013.887	2.772	2022203	REC_WORD	2.772	n/a	WOOD	-999	14	[0, 0, 0]	n/a	FR1	1	R1108J
2016.659	3.411	2024975	REC_END	n/a	n/a	n/a	-999	14	[0, 0, 0]	n/a	FR1	1	R1108J
2020.07	0.0	2028386	TRIAL	n/a	n/a	n/a	-999	15	[0, 0, 0]	n/a	FR1	1	R1108J
2020.07	10.428	2028386	COUNTDOWN_START	n/a	n/a	n/a	-999	15	[0, 0, 0]	n/a	FR1	1	R1108J
2030.498	0.007	2038814	COUNTDOWN_END	n/a	n/a	n/a	-999	15	[0, 0, 0]	n/a	FR1	1	R1108J
2030.505	3.85	2038821	ORIENT	n/a	n/a	n/a	-999	15	[0, 0, 0]	n/a	FR1	1	R1108J
2034.355	2.384	2042671	WORD	n/a	wordpools/wordpool_EN.txt	HAND	1	15	[0, 0, 0]	n/a	FR1	1	R1108J
2036.739	2.534	2045055	WORD	n/a	wordpools/wordpool_EN.txt	VASE	2	15	[0, 0, 0]	n/a	FR1	1	R1108J
2039.273	2.416	2047589	WORD	n/a	wordpools/wordpool_EN.txt	GUARD	3	15	[0, 0, 0]	n/a	FR1	1	R1108J
2041.689	2.449	2050005	WORD	n/a	wordpools/wordpool_EN.txt	CROW	4	15	[0, 0, 0]	n/a	FR1	1	R1108J
2044.138	2.585	2052454	WORD	n/a	wordpools/wordpool_EN.txt	TRUCK	5	15	[0, 0, 0]	n/a	FR1	1	R1108J
2046.723	2.467	2055039	WORD	n/a	wordpools/wordpool_EN.txt	ROSE	6	15	[0, 0, 0]	n/a	FR1	1	R1108J
2049.19	2.434	2057506	WORD	n/a	wordpools/wordpool_EN.txt	WAND	7	15	[0, 0, 0]	n/a	FR1	1	R1108J
2051.624	2.583	2059940	WORD	n/a	wordpools/wordpool_EN.txt	ROAD	8	15	[0, 0, 0]	n/a	FR1	1	R1108J
2054.207	2.618	2062523	WORD	n/a	wordpools/wordpool_EN.txt	SINK	9	15	[0, 0, 0]	n/a	FR1	1	R1108J
2056.825	2.5	2065140	WORD	n/a	wordpools/wordpool_EN.txt	STOVE	10	15	[0, 0, 0]	n/a	FR1	1	R1108J
2059.325	2.384	2067640	WORD	n/a	wordpools/wordpool_EN.txt	THREAD	11	15	[0, 0, 0]	n/a	FR1	1	R1108J
2061.709	1.617	2070024	WORD	n/a	wordpools/wordpool_EN.txt	SPONGE	12	15	[0, 0, 0]	n/a	FR1	1	R1108J
2063.326	0.0	2071641	DISTRACT_START	n/a	n/a	n/a	-999	15	[0, 0, 0]	n/a	FR1	1	R1108J
2063.326	0.016	2071641	START	n/a	n/a	n/a	-999	15	[-999, -999, -999]	n/a	FR1	1	R1108J
2063.342	6.685	2071657	PROB	6.685	n/a	n/a	-999	15	[2, 4, 7]	13	FR1	1	R1108J
2070.027	3.5	2078342	PROB	3.5	n/a	n/a	-999	15	[2, 6, 2]	10	FR1	1	R1108J
2073.527	3.267	2081842	PROB	3.267	n/a	n/a	-999	15	[1, 1, 9]	11	FR1	1	R1108J
2076.794	9.15	2085109	PROB	9.15	n/a	n/a	-999	15	[6, 5, 8]	19	FR1	1	R1108J
2085.944	0.018	2094259	STOP	n/a	n/a	n/a	-999	15	[-999, -999, -999]	n/a	FR1	1	R1108J
2085.962	1.101	2094277	DISTRACT_END	n/a	n/a	n/a	-999	15	[0, 0, 0]	n/a	FR1	1	R1108J
2087.063	0.757	2095378	REC_START	n/a	n/a	n/a	-999	15	[0, 0, 0]	n/a	FR1	1	R1108J
2087.82	1.122	2096135	REC_WORD_VV	1.122	n/a	<>	-999	15	[0, 0, 0]	n/a	FR1	1	R1108J
2088.942	1.24	2097257	REC_WORD	1.24	n/a	SINK	-999	15	[0, 0, 0]	n/a	FR1	1	R1108J
2090.182	1.465	2098497	REC_WORD	1.465	n/a	SPONGE	-999	15	[0, 0, 0]	n/a	FR1	1	R1108J
2091.647	1.746	2099962	REC_WORD	1.746	n/a	SOAP	-999	15	[0, 0, 0]	n/a	FR1	1	R1108J
2093.393	11.791	2101708	REC_WORD_VV	11.791	n/a	<>	-999	15	[0, 0, 0]	n/a	FR1	1	R1108J
2105.184	11.889	2113499	REC_WORD	11.889	n/a	GLOVE	-999	15	[0, 0, 0]	n/a	FR1	1	R1108J
2117.073	2.977	2125388	REC_END	n/a	n/a	n/a	-999	15	[0, 0, 0]	n/a	FR1	1	R1108J
2120.05	0.0	2128365	TRIAL	n/a	n/a	n/a	-999	16	[0, 0, 0]	n/a	FR1	1	R1108J
2120.05	10.428	2128365	COUNTDOWN_START	n/a	n/a	n/a	-999	16	[0, 0, 0]	n/a	FR1	1	R1108J
2130.478	0.007	2138793	COUNTDOWN_END	n/a	n/a	n/a	-999	16	[0, 0, 0]	n/a	FR1	1	R1108J
2130.485	3.967	2138800	ORIENT	n/a	n/a	n/a	-999	16	[0, 0, 0]	n/a	FR1	1	R1108J
2134.452	2.534	2142766	WORD	n/a	wordpools/wordpool_EN.txt	HOOK	1	16	[0, 0, 0]	n/a	FR1	1	R1108J
2136.986	2.5	2145300	WORD	n/a	wordpools/wordpool_EN.txt	ROPE	2	16	[0, 0, 0]	n/a	FR1	1	R1108J
2139.486	2.45	2147800	WORD	n/a	wordpools/wordpool_EN.txt	FOAM	3	16	[0, 0, 0]	n/a	FR1	1	R1108J
2141.936	2.534	2150250	WORD	n/a	wordpools/wordpool_EN.txt	STEAM	4	16	[0, 0, 0]	n/a	FR1	1	R1108J
2144.47	2.484	2152784	WORD	n/a	wordpools/wordpool_EN.txt	COIN	5	16	[0, 0, 0]	n/a	FR1	1	R1108J
2146.954	2.6	2155268	WORD	n/a	wordpools/wordpool_EN.txt	SHELL	6	16	[0, 0, 0]	n/a	FR1	1	R1108J
2149.554	2.417	2157868	WORD	n/a	wordpools/wordpool_EN.txt	GEESE	7	16	[0, 0, 0]	n/a	FR1	1	R1108J
2151.971	2.567	2160285	WORD	n/a	wordpools/wordpool_EN.txt	PLANT	8	16	[0, 0, 0]	n/a	FR1	1	R1108J
2154.538	2.383	2162852	WORD	n/a	wordpools/wordpool_EN.txt	HOUSE	9	16	[0, 0, 0]	n/a	FR1	1	R1108J
2156.921	2.618	2165235	WORD	n/a	wordpools/wordpool_EN.txt	CLOWN	10	16	[0, 0, 0]	n/a	FR1	1	R1108J
2159.539	2.5	2167853	WORD	n/a	wordpools/wordpool_EN.txt	SHIP	11	16	[0, 0, 0]	n/a	FR1	1	R1108J
2162.039	1.616	2170353	WORD	n/a	wordpools/wordpool_EN.txt	TOY	12	16	[0, 0, 0]	n/a	FR1	1	R1108J
2163.655	0.001	2171969	DISTRACT_START	n/a	n/a	n/a	-999	16	[0, 0, 0]	n/a	FR1	1	R1108J
2163.656	0.016	2171970	START	n/a	n/a	n/a	-999	16	[-999, -999, -999]	n/a	FR1	1	R1108J
2163.672	6.818	2171986	PROB	6.818	n/a	n/a	-999	16	[4, 3, 3]	10	FR1	1	R1108J
2170.49	6.784	2178804	PROB	6.784	n/a	n/a	-999	16	[6, 2, 6]	14	FR1	1	R1108J
2177.274	4.401	2185588	PROB	4.401	n/a	n/a	-999	16	[2, 1, 4]	7	FR1	1	R1108J
2181.675	4.273	2189989	PROB	4.273	n/a	n/a	-999	16	[2, 8, 1]	11	FR1	1	R1108J
2185.948	0.011	2194262	STOP	n/a	n/a	n/a	-999	16	[-999, -999, -999]	n/a	FR1	1	R1108J
2185.959	1.101	2194273	DISTRACT_END	n/a	n/a	n/a	-999	16	[0, 0, 0]	n/a	FR1	1	R1108J
2187.06	1.287	2195374	REC_START	n/a	n/a	n/a	-999	16	[0, 0, 0]	n/a	FR1	1	R1108J
2188.347	3.318	2196661	REC_WORD_VV	3.318	n/a	<>	-999	16	[0, 0, 0]	n/a	FR1	1	R1108J
2191.665	0.61	2199979	REC_WORD	0.61	n/a	ROPE	-999	16	[0, 0, 0]	n/a	FR1	1	R1108J
2192.275	1.057	2200589	REC_WORD	1.057	n/a	HOOK	-999	16	[0, 0, 0]	n/a	FR1	1	R1108J
2193.332	1.725	2201646	REC_WORD	1.725	n/a	GEESE	-999	16	[0, 0, 0]	n/a	FR1	1	R1108J
2195.057	1.243	2203371	REC_WORD	1.243	n/a	TOY	-999	16	[0, 0, 0]	n/a	FR1	1	R1108J
2196.3	1.48	2204614	REC_WORD	1.48	n/a	SHIP	-999	16	[0, 0, 0]	n/a	FR1	1	R1108J
2197.78	19.288	2206094	REC_WORD_VV	19.288	n/a	<>	-999	16	[0, 0, 0]	n/a	FR1	1	R1108J
2217.068	2.395	2225381	REC_END	n/a	n/a	n/a	-999	16	[0, 0, 0]	n/a	FR1	1	R1108J
2219.463	0.0	2227776	TRIAL	n/a	n/a	n/a	-999	17	[0, 0, 0]	n/a	FR1	1	R1108J
2219.463	10.428	2227776	COUNTDOWN_START	n/a	n/a	n/a	-999	17	[0, 0, 0]	n/a	FR1	1	R1108J
2229.891	0.007	2238204	COUNTDOWN_END	n/a	n/a	n/a	-999	17	[0, 0, 0]	n/a	FR1	1	R1108J
2229.898	3.6	2238211	ORIENT	n/a	n/a	n/a	-999	17	[0, 0, 0]	n/a	FR1	1	R1108J
2233.498	2.551	2241811	WORD	n/a	wordpools/wordpool_EN.txt	SUN	1	17	[0, 0, 0]	n/a	FR1	1	R1108J
2236.049	2.483	2244362	WORD	n/a	wordpools/wordpool_EN.txt	PLANE	2	17	[0, 0, 0]	n/a	FR1	1	R1108J
2238.532	2.617	2246845	WORD	n/a	wordpools/wordpool_EN.txt	TANK	3	17	[0, 0, 0]	n/a	FR1	1	R1108J
2241.149	2.584	2249462	WORD	n/a	wordpools/wordpool_EN.txt	SHARK	4	17	[0, 0, 0]	n/a	FR1	1	R1108J
2243.733	2.484	2252046	WORD	n/a	wordpools/wordpool_EN.txt	GRASS	5	17	[0, 0, 0]	n/a	FR1	1	R1108J
2246.217	2.584	2254530	WORD	n/a	wordpools/wordpool_EN.txt	WAVE	6	17	[0, 0, 0]	n/a	FR1	1	R1108J
2248.801	2.566	2257114	WORD	n/a	wordpools/wordpool_EN.txt	MAP	7	17	[0, 0, 0]	n/a	FR1	1	R1108J
2251.367	2.534	2259680	WORD	n/a	wordpools/wordpool_EN.txt	MAIL	8	17	[0, 0, 0]	n/a	FR1	1	R1108J
2253.901	2.417	2262214	WORD	n/a	wordpools/wordpool_EN.txt	FLAG	9	17	[0, 0, 0]	n/a	FR1	1	R1108J
2256.318	2.384	2264631	WORD	n/a	wordpools/wordpool_EN.txt	STREET	10	17	[0, 0, 0]	n/a	FR1	1	R1108J
2258.702	2.399	2267015	WORD	n/a	wordpools/wordpool_EN.txt	RAIN	11	17	[0, 0, 0]	n/a	FR1	1	R1108J
2261.101	1.601	2269414	WORD	n/a	wordpools/wordpool_EN.txt	WEB	12	17	[0, 0, 0]	n/a	FR1	1	R1108J
2262.702	0.001	2271015	DISTRACT_START	n/a	n/a	n/a	-999	17	[0, 0, 0]	n/a	FR1	1	R1108J
2262.703	0.016	2271016	START	n/a	n/a	n/a	-999	17	[-999, -999, -999]	n/a	FR1	1	R1108J
2262.719	8.134	2271032	PROB	8.134	n/a	n/a	-999	17	[5, 8, 2]	15	FR1	1	R1108J
2270.853	3.968	2279166	PROB	3.968	n/a	n/a	-999	17	[1, 4, 1]	6	FR1	1	R1108J
2274.821	5.067	2283134	PROB	5.067	n/a	n/a	-999	17	[5, 2, 3]	10	FR1	1	R1108J
2279.888	4.176	2288201	PROB	4.176	n/a	n/a	-999	17	[2, 2, 1]	5	FR1	1	R1108J
2284.064	0.008	2292376	STOP	n/a	n/a	n/a	-999	17	[-999, -999, -999]	n/a	FR1	1	R1108J
2284.072	1.201	2292384	DISTRACT_END	n/a	n/a	n/a	-999	17	[0, 0, 0]	n/a	FR1	1	R1108J
2285.273	1.212	2293585	REC_START	n/a	n/a	n/a	-999	17	[0, 0, 0]	n/a	FR1	1	R1108J
2286.485	1.829	2294797	REC_WORD	1.829	n/a	WEB	-999	17	[0, 0, 0]	n/a	FR1	1	R1108J
2288.314	5.175	2296626	REC_WORD_VV	5.175	n/a	<>	-999	17	[0, 0, 0]	n/a	FR1	1	R1108J
2293.489	1.0	2301801	REC_WORD	1.0	n/a	SUN	-999	17	[0, 0, 0]	n/a	FR1	1	R1108J
2294.489	14.331	2302801	REC_WORD_VV	14.331	n/a	<>	-999	17	[0, 0, 0]	n/a	FR1	1	R1108J
2308.82	6.463	2317132	REC_WORD	6.463	n/a	RAIN	-999	17	[0, 0, 0]	n/a	FR1	1	R1108J
2315.283	2.46	2323595	REC_END	n/a	n/a	n/a	-999	17	[0, 0, 0]	n/a	FR1	1	R1108J
2317.743	0.0	2326055	COUNTDOWN_START	n/a	n/a	n/a	-999	18	[0, 0, 0]	n/a	FR1	1	R1108J
2317.743	10.428	2326055	TRIAL	n/a	n/a	n/a	-999	18	[0, 0, 0]	n/a	FR1	1	R1108J
2328.171	0.006	2336483	COUNTDOWN_END	n/a	n/a	n/a	-999	18	[0, 0, 0]	n/a	FR1	1	R1108J
2328.177	3.451	2336489	ORIENT	n/a	n/a	n/a	-999	18	[0, 0, 0]	n/a	FR1	1	R1108J
2331.628	2.401	2339940	WORD	n/a	wordpools/wordpool_EN.txt	VAN	1	18	[0, 0, 0]	n/a	FR1	1	R1108J
2334.029	2.383	2342341	WORD	n/a	wordpools/wordpool_EN.txt	SEAT	2	18	[0, 0, 0]	n/a	FR1	1	R1108J
2336.412	2.501	2344724	WORD	n/a	wordpools/wordpool_EN.txt	BLOOM	3	18	[0, 0, 0]	n/a	FR1	1	R1108J
2338.913	2.45	2347225	WORD	n/a	wordpools/wordpool_EN.txt	BOOT	4	18	[0, 0, 0]	n/a	FR1	1	R1108J
2341.363	2.55	2349675	WORD	n/a	wordpools/wordpool_EN.txt	TOE	5	18	[0, 0, 0]	n/a	FR1	1	R1108J
2343.913	2.534	2352225	WORD	n/a	wordpools/wordpool_EN.txt	BOWL	6	18	[0, 0, 0]	n/a	FR1	1	R1108J
2346.447	2.434	2354759	WORD	n/a	wordpools/wordpool_EN.txt	LAMP	7	18	[0, 0, 0]	n/a	FR1	1	R1108J
2348.881	2.45	2357193	WORD	n/a	wordpools/wordpool_EN.txt	TIE	8	18	[0, 0, 0]	n/a	FR1	1	R1108J
2351.331	2.55	2359643	WORD	n/a	wordpools/wordpool_EN.txt	FLOOR	9	18	[0, 0, 0]	n/a	FR1	1	R1108J
2353.881	2.434	2362193	WORD	n/a	wordpools/wordpool_EN.txt	FACE	10	18	[0, 0, 0]	n/a	FR1	1	R1108J
2356.315	2.45	2364627	WORD	n/a	wordpools/wordpool_EN.txt	SLIME	11	18	[0, 0, 0]	n/a	FR1	1	R1108J
2358.765	1.617	2367077	WORD	n/a	wordpools/wordpool_EN.txt	AXE	12	18	[0, 0, 0]	n/a	FR1	1	R1108J
2360.382	0.001	2368693	DISTRACT_START	n/a	n/a	n/a	-999	18	[0, 0, 0]	n/a	FR1	1	R1108J
2360.383	0.016	2368694	START	n/a	n/a	n/a	-999	18	[-999, -999, -999]	n/a	FR1	1	R1108J
2360.399	3.334	2368710	PROB	3.334	n/a	n/a	-999	18	[4, 4, 1]	9	FR1	1	R1108J
2363.733	14.085	2372044	PROB	14.085	n/a	n/a	-999	18	[1, 5, 8]	15	FR1	1	R1108J
2377.818	15.954	2386129	PROB	15.954	n/a	n/a	-999	18	[8, 5, 3]	16	FR1	1	R1108J
2393.772	0.015	2402083	STOP	n/a	n/a	n/a	-999	18	[-999, -999, -999]	n/a	FR1	1	R1108J
2393.787	1.217	2402098	DISTRACT_END	n/a	n/a	n/a	-999	18	[0, 0, 0]	n/a	FR1	1	R1108J
2395.004	0.744	2403315	REC_START	n/a	n/a	n/a	-999	18	[0, 0, 0]	n/a	FR1	1	R1108J
2395.748	6.18	2404059	REC_WORD_VV	6.18	n/a	<>	-999	18	[0, 0, 0]	n/a	FR1	1	R1108J
2401.928	0.73	2410239	REC_WORD	0.73	n/a	BOOT	-999	18	[0, 0, 0]	n/a	FR1	1	R1108J
2402.658	1.497	2410969	REC_WORD	1.497	n/a	TOE	-999	18	[0, 0, 0]	n/a	FR1	1	R1108J
2404.155	3.245	2412466	REC_WORD_VV	3.245	n/a	<>	-999	18	[0, 0, 0]	n/a	FR1	1	R1108J
2407.4	1.0	2415711	REC_WORD	1.0	n/a	SLIME	-999	18	[0, 0, 0]	n/a	FR1	1	R1108J
2408.4	0.475	2416711	REC_WORD_VV	0.475	n/a	<>	-999	18	[0, 0, 0]	n/a	FR1	1	R1108J
2408.875	1.715	2417186	REC_WORD	1.715	n/a	BLOOM	-999	18	[0, 0, 0]	n/a	FR1	1	R1108J
2410.59	14.428	2418901	REC_WORD_VV	14.428	n/a	<>	-999	18	[0, 0, 0]	n/a	FR1	1	R1108J
2425.018	6.54	2433329	REC_END	n/a	n/a	n/a	-999	18	[0, 0, 0]	n/a	FR1	1	R1108J
2431.558	0.0	2439869	TRIAL	n/a	n/a	n/a	-999	19	[0, 0, 0]	n/a	FR1	1	R1108J
2431.558	10.428	2439869	COUNTDOWN_START	n/a	n/a	n/a	-999	19	[0, 0, 0]	n/a	FR1	1	R1108J
2441.986	0.007	2450296	COUNTDOWN_END	n/a	n/a	n/a	-999	19	[0, 0, 0]	n/a	FR1	1	R1108J
2441.993	3.934	2450303	ORIENT	n/a	n/a	n/a	-999	19	[0, 0, 0]	n/a	FR1	1	R1108J
2445.927	2.567	2454237	WORD	n/a	wordpools/wordpool_EN.txt	MUD	1	19	[0, 0, 0]	n/a	FR1	1	R1108J
2448.494	2.467	2456804	WORD	n/a	wordpools/wordpool_EN.txt	BRANCH	2	19	[0, 0, 0]	n/a	FR1	1	R1108J
2450.961	2.55	2459271	WORD	n/a	wordpools/wordpool_EN.txt	SKY	3	19	[0, 0, 0]	n/a	FR1	1	R1108J
2453.511	2.384	2461821	WORD	n/a	wordpools/wordpool_EN.txt	MOUSE	4	19	[0, 0, 0]	n/a	FR1	1	R1108J
2455.895	2.584	2464205	WORD	n/a	wordpools/wordpool_EN.txt	SKUNK	5	19	[0, 0, 0]	n/a	FR1	1	R1108J
2458.479	2.533	2466789	WORD	n/a	wordpools/wordpool_EN.txt	ARK	6	19	[0, 0, 0]	n/a	FR1	1	R1108J
2461.012	2.384	2469322	WORD	n/a	wordpools/wordpool_EN.txt	DOG	7	19	[0, 0, 0]	n/a	FR1	1	R1108J
2463.396	2.417	2471706	WORD	n/a	wordpools/wordpool_EN.txt	FORK	8	19	[0, 0, 0]	n/a	FR1	1	R1108J
2465.813	2.417	2474123	WORD	n/a	wordpools/wordpool_EN.txt	BANK	9	19	[0, 0, 0]	n/a	FR1	1	R1108J
2468.23	2.4	2476540	WORD	n/a	wordpools/wordpool_EN.txt	CHIEF	10	19	[0, 0, 0]	n/a	FR1	1	R1108J
2470.63	2.533	2478940	WORD	n/a	wordpools/wordpool_EN.txt	POND	11	19	[0, 0, 0]	n/a	FR1	1	R1108J
2473.163	1.618	2481473	WORD	n/a	wordpools/wordpool_EN.txt	SNAKE	12	19	[0, 0, 0]	n/a	FR1	1	R1108J
2474.781	0.001	2483091	DISTRACT_START	n/a	n/a	n/a	-999	19	[0, 0, 0]	n/a	FR1	1	R1108J
2474.782	0.016	2483092	START	n/a	n/a	n/a	-999	19	[-999, -999, -999]	n/a	FR1	1	R1108J
2474.798	5.967	2483108	PROB	5.967	n/a	n/a	-999	19	[8, 2, 3]	13	FR1	1	R1108J
2480.765	3.868	2489075	PROB	3.868	n/a	n/a	-999	19	[8, 2, 8]	18	FR1	1	R1108J
2484.633	7.667	2492943	PROB	7.667	n/a	n/a	-999	19	[9, 1, 8]	18	FR1	1	R1108J
2492.3	4.141	2500610	PROB	4.141	n/a	n/a	-999	19	[6, 1, 5]	12	FR1	1	R1108J
2496.441	0.01	2504751	STOP	n/a	n/a	n/a	-999	19	[-999, -999, -999]	n/a	FR1	1	R1108J
2496.451	1.134	2504761	DISTRACT_END	n/a	n/a	n/a	-999	19	[0, 0, 0]	n/a	FR1	1	R1108J
2497.585	0.969	2505895	REC_START	n/a	n/a	n/a	-999	19	[0, 0, 0]	n/a	FR1	1	R1108J
2498.554	0.782	2506864	REC_WORD	0.782	n/a	DOG	-999	19	[0, 0, 0]	n/a	FR1	1	R1108J
2499.336	1.19	2507646	REC_WORD	1.19	n/a	SKUNK	-999	19	[0, 0, 0]	n/a	FR1	1	R1108J
2500.526	1.672	2508836	REC_WORD	1.672	n/a	MOUSE	-999	19	[0, 0, 0]	n/a	FR1	1	R1108J
2502.198	1.543	2510508	REC_WORD_VV	1.543	n/a	<>	-999	19	[0, 0, 0]	n/a	FR1	1	R1108J
2503.741	1.0	2512051	REC_WORD	1.0	n/a	ARK	-999	19	[0, 0, 0]	n/a	FR1	1	R1108J
2504.741	1.59	2513051	REC_WORD_VV	1.59	n/a	<>	-999	19	[0, 0, 0]	n/a	FR1	1	R1108J
2506.331	0.718	2514641	REC_WORD_VV	0.718	n/a	<>	-999	19	[0, 0, 0]	n/a	FR1	1	R1108J
2507.049	1.455	2515359	REC_WORD	1.455	n/a	BRANCH	-999	19	[0, 0, 0]	n/a	FR1	1	R1108J
2508.504	1.976	2516814	REC_WORD	1.976	n/a	MUD	-999	19	[0, 0, 0]	n/a	FR1	1	R1108J
2510.48	4.947	2518790	REC_WORD_VV	4.947	n/a	<>	-999	19	[0, 0, 0]	n/a	FR1	1	R1108J
2515.427	12.168	2523736	REC_WORD	12.168	n/a	CHIEF	-999	19	[0, 0, 0]	n/a	FR1	1	R1108J
2527.595	867.292	2535904	REC_END	n/a	n/a	n/a	-999	19	[0, 0, 0]	n/a	FR1	1	R1108J
3394.887	0.0	3403185	TRIAL	n/a	n/a	n/a	-999	20	[0, 0, 0]	n/a	FR1	1	R1108J
3394.887	10.428	3403185	COUNTDOWN_START	n/a	n/a	n/a	-999	20	[0, 0, 0]	n/a	FR1	1	R1108J
3405.315	0.007	3413613	COUNTDOWN_END	n/a	n/a	n/a	-999	20	[0, 0, 0]	n/a	FR1	1	R1108J
3405.322	3.684	3413620	ORIENT	n/a	n/a	n/a	-999	20	[0, 0, 0]	n/a	FR1	1	R1108J
3409.006	2.416	3417304	WORD	n/a	wordpools/wordpool_EN.txt	PIN	1	20	[0, 0, 0]	n/a	FR1	1	R1108J
3411.422	2.534	3419720	WORD	n/a	wordpools/wordpool_EN.txt	JUDGE	2	20	[0, 0, 0]	n/a	FR1	1	R1108J
3413.956	2.567	3422254	WORD	n/a	wordpools/wordpool_EN.txt	NAIL	3	20	[0, 0, 0]	n/a	FR1	1	R1108J
3416.523	2.583	3424821	WORD	n/a	wordpools/wordpool_EN.txt	PLATE	4	20	[0, 0, 0]	n/a	FR1	1	R1108J
3419.106	2.534	3427404	WORD	n/a	wordpools/wordpool_EN.txt	BLUSH	5	20	[0, 0, 0]	n/a	FR1	1	R1108J
3421.64	2.601	3429937	WORD	n/a	wordpools/wordpool_EN.txt	HOSE	6	20	[0, 0, 0]	n/a	FR1	1	R1108J
3424.241	2.567	3432538	WORD	n/a	wordpools/wordpool_EN.txt	SHIELD	7	20	[0, 0, 0]	n/a	FR1	1	R1108J
3426.808	2.45	3435105	WORD	n/a	wordpools/wordpool_EN.txt	BATH	8	20	[0, 0, 0]	n/a	FR1	1	R1108J
3429.258	2.384	3437555	WORD	n/a	wordpools/wordpool_EN.txt	PIPE	9	20	[0, 0, 0]	n/a	FR1	1	R1108J
3431.642	2.417	3439939	WORD	n/a	wordpools/wordpool_EN.txt	BED	10	20	[0, 0, 0]	n/a	FR1	1	R1108J
3434.059	2.534	3442356	WORD	n/a	wordpools/wordpool_EN.txt	SQUARE	11	20	[0, 0, 0]	n/a	FR1	1	R1108J
3436.593	1.617	3444890	WORD	n/a	wordpools/wordpool_EN.txt	CUP	12	20	[0, 0, 0]	n/a	FR1	1	R1108J
3438.21	0.0	3446507	DISTRACT_START	n/a	n/a	n/a	-999	20	[0, 0, 0]	n/a	FR1	1	R1108J
3438.21	0.016	3446507	START	n/a	n/a	n/a	-999	20	[-999, -999, -999]	n/a	FR1	1	R1108J
3438.226	4.851	3446523	PROB	4.851	n/a	n/a	-999	20	[5, 3, 2]	10	FR1	1	R1108J
3443.077	5.968	3451374	PROB	5.968	n/a	n/a	-999	20	[7, 2, 4]	13	FR1	1	R1108J
3449.045	7.417	3457342	PROB	7.417	n/a	n/a	-999	20	[2, 9, 5]	16	FR1	1	R1108J
3456.462	8.177	3464759	PROB	8.177	n/a	n/a	-999	20	[6, 5, 7]	18	FR1	1	R1108J
3464.639	0.007	3472936	STOP	n/a	n/a	n/a	-999	20	[-999, -999, -999]	n/a	FR1	1	R1108J
3464.646	1.085	3472943	DISTRACT_END	n/a	n/a	n/a	-999	20	[0, 0, 0]	n/a	FR1	1	R1108J
3465.731	1.488	3474028	REC_START	n/a	n/a	n/a	-999	20	[0, 0, 0]	n/a	FR1	1	R1108J
3467.219	1.498	3475516	REC_WORD	1.498	n/a	PIN	-999	20	[0, 0, 0]	n/a	FR1	1	R1108J
3468.717	3.765	3477014	REC_WORD_VV	3.765	n/a	<>	-999	20	[0, 0, 0]	n/a	FR1	1	R1108J
3472.482	1.789	3480779	REC_WORD	1.789	n/a	BLUSH	-999	20	[0, 0, 0]	n/a	FR1	1	R1108J
3474.271	1.0	3482568	REC_WORD_VV	1.0	n/a	<>	-999	20	[0, 0, 0]	n/a	FR1	1	R1108J
3475.271	1.428	3483568	REC_WORD_VV	1.428	n/a	<>	-999	20	[0, 0, 0]	n/a	FR1	1	R1108J
3476.699	1.623	3484996	REC_WORD	1.623	n/a	HOSE	-999	20	[0, 0, 0]	n/a	FR1	1	R1108J
3478.322	1.0	3486619	REC_WORD_VV	1.0	n/a	<>	-999	20	[0, 0, 0]	n/a	FR1	1	R1108J
3479.322	16.418	3487619	REC_WORD_VV	16.418	n/a	<>	-999	20	[0, 0, 0]	n/a	FR1	1	R1108J
3495.74	5.695	3504036	REC_END	n/a	n/a	n/a	-999	20	[0, 0, 0]	n/a	FR1	1	R1108J
3501.435	0.0	3509731	TRIAL	n/a	n/a	n/a	-999	21	[0, 0, 0]	n/a	FR1	1	R1108J
3501.435	10.428	3509731	COUNTDOWN_START	n/a	n/a	n/a	-999	21	[0, 0, 0]	n/a	FR1	1	R1108J
3511.863	0.006	3520159	COUNTDOWN_END	n/a	n/a	n/a	-999	21	[0, 0, 0]	n/a	FR1	1	R1108J
3511.869	3.968	3520165	ORIENT	n/a	n/a	n/a	-999	21	[0, 0, 0]	n/a	FR1	1	R1108J
3515.837	2.45	3524133	WORD	n/a	wordpools/wordpool_EN.txt	BEACH	1	21	[0, 0, 0]	n/a	FR1	1	R1108J
3518.287	2.533	3526583	WORD	n/a	wordpools/wordpool_EN.txt	SMILE	2	21	[0, 0, 0]	n/a	FR1	1	R1108J
3520.82	2.451	3529116	WORD	n/a	wordpools/wordpool_EN.txt	WORM	3	21	[0, 0, 0]	n/a	FR1	1	R1108J
3523.271	2.584	3531567	WORD	n/a	wordpools/wordpool_EN.txt	BOMB	4	21	[0, 0, 0]	n/a	FR1	1	R1108J
3525.855	2.484	3534151	WORD	n/a	wordpools/wordpool_EN.txt	WHEEL	5	21	[0, 0, 0]	n/a	FR1	1	R1108J
3528.339	2.466	3536635	WORD	n/a	wordpools/wordpool_EN.txt	PURSE	6	21	[0, 0, 0]	n/a	FR1	1	R1108J
3530.805	2.501	3539101	WORD	n/a	wordpools/wordpool_EN.txt	SCHOOL	7	21	[0, 0, 0]	n/a	FR1	1	R1108J
3533.306	2.517	3541602	WORD	n/a	wordpools/wordpool_EN.txt	MILK	8	21	[0, 0, 0]	n/a	FR1	1	R1108J
3535.823	2.55	3544119	WORD	n/a	wordpools/wordpool_EN.txt	FISH	9	21	[0, 0, 0]	n/a	FR1	1	R1108J
3538.373	2.517	3546669	WORD	n/a	wordpools/wordpool_EN.txt	BRIDGE	10	21	[0, 0, 0]	n/a	FR1	1	R1108J
3540.89	2.5	3549186	WORD	n/a	wordpools/wordpool_EN.txt	CONE	11	21	[0, 0, 0]	n/a	FR1	1	R1108J
3543.39	1.617	3551686	WORD	n/a	wordpools/wordpool_EN.txt	FROG	12	21	[0, 0, 0]	n/a	FR1	1	R1108J
3545.007	0.001	3553303	DISTRACT_START	n/a	n/a	n/a	-999	21	[0, 0, 0]	n/a	FR1	1	R1108J
3545.008	0.016	3553304	START	n/a	n/a	n/a	-999	21	[-999, -999, -999]	n/a	FR1	1	R1108J
3545.024	9.968	3553320	PROB	9.968	n/a	n/a	-999	21	[5, 3, 9]	17	FR1	1	R1108J
3554.992	7.018	3563288	PROB	7.018	n/a	n/a	-999	21	[7, 4, 2]	13	FR1	1	R1108J
3562.01	3.874	3570306	PROB	3.874	n/a	n/a	-999	21	[2, 9, 2]	13	FR1	1	R1108J
3565.884	0.01	3574180	STOP	n/a	n/a	n/a	-999	21	[-999, -999, -999]	n/a	FR1	1	R1108J
3565.894	1.184	3574190	DISTRACT_END	n/a	n/a	n/a	-999	21	[0, 0, 0]	n/a	FR1	1	R1108J
3567.078	0.663	3575374	REC_START	n/a	n/a	n/a	-999	21	[0, 0, 0]	n/a	FR1	1	R1108J
3567.741	0.844	3576037	REC_WORD_VV	0.844	n/a	<>	-999	21	[0, 0, 0]	n/a	FR1	1	R1108J
3568.585	1.574	3576881	REC_WORD	1.574	n/a	FISH	-999	21	[0, 0, 0]	n/a	FR1	1	R1108J
3570.159	6.922	3578455	REC_WORD_VV	6.922	n/a	<>	-999	21	[0, 0, 0]	n/a	FR1	1	R1108J
3577.081	20.005	3585376	REC_WORD	20.005	n/a	WORM	-999	21	[0, 0, 0]	n/a	FR1	1	R1108J
3597.086	3.462	3605381	REC_END	n/a	n/a	n/a	-999	21	[0, 0, 0]	n/a	FR1	1	R1108J
3600.548	0.0	3608843	TRIAL	n/a	n/a	n/a	-999	22	[0, 0, 0]	n/a	FR1	1	R1108J
3600.548	10.428	3608843	COUNTDOWN_START	n/a	n/a	n/a	-999	22	[0, 0, 0]	n/a	FR1	1	R1108J
3610.976	0.007	3619271	COUNTDOWN_END	n/a	n/a	n/a	-999	22	[0, 0, 0]	n/a	FR1	1	R1108J
3610.983	3.984	3619278	ORIENT	n/a	n/a	n/a	-999	22	[0, 0, 0]	n/a	FR1	1	R1108J
3614.967	2.5	3623262	WORD	n/a	wordpools/wordpool_EN.txt	CROWN	1	22	[0, 0, 0]	n/a	FR1	1	R1108J
3617.467	2.4	3625762	WORD	n/a	wordpools/wordpool_EN.txt	WEED	2	22	[0, 0, 0]	n/a	FR1	1	R1108J
3619.867	2.468	3628162	WORD	n/a	wordpools/wordpool_EN.txt	HEN	3	22	[0, 0, 0]	n/a	FR1	1	R1108J
3622.335	2.5	3630630	WORD	n/a	wordpools/wordpool_EN.txt	BEAN	4	22	[0, 0, 0]	n/a	FR1	1	R1108J
3624.835	2.417	3633130	WORD	n/a	wordpools/wordpool_EN.txt	CAT	5	22	[0, 0, 0]	n/a	FR1	1	R1108J
3627.252	2.434	3635547	WORD	n/a	wordpools/wordpool_EN.txt	WOLF	6	22	[0, 0, 0]	n/a	FR1	1	R1108J
3629.686	2.566	3637981	WORD	n/a	wordpools/wordpool_EN.txt	CLIFF	7	22	[0, 0, 0]	n/a	FR1	1	R1108J
3632.252	2.618	3640547	WORD	n/a	wordpools/wordpool_EN.txt	CRANE	8	22	[0, 0, 0]	n/a	FR1	1	R1108J
3634.87	2.45	3643165	WORD	n/a	wordpools/wordpool_EN.txt	CLOUD	9	22	[0, 0, 0]	n/a	FR1	1	R1108J
3637.32	2.4	3645615	WORD	n/a	wordpools/wordpool_EN.txt	PIG	10	22	[0, 0, 0]	n/a	FR1	1	R1108J
3639.72	2.55	3648015	WORD	n/a	wordpools/wordpool_EN.txt	CALF	11	22	[0, 0, 0]	n/a	FR1	1	R1108J
3642.27	1.617	3650565	WORD	n/a	wordpools/wordpool_EN.txt	CAPE	12	22	[0, 0, 0]	n/a	FR1	1	R1108J
3643.887	0.001	3652182	DISTRACT_START	n/a	n/a	n/a	-999	22	[0, 0, 0]	n/a	FR1	1	R1108J
3643.888	0.016	3652183	START	n/a	n/a	n/a	-999	22	[-999, -999, -999]	n/a	FR1	1	R1108J
3643.904	5.634	3652199	PROB	5.634	n/a	n/a	-999	22	[5, 8, 2]	15	FR1	1	R1108J
3649.538	5.401	3657832	PROB	5.401	n/a	n/a	-999	22	[6, 8, 8]	22	FR1	1	R1108J
3654.939	6.484	3663233	PROB	6.484	n/a	n/a	-999	22	[5, 3, 5]	13	FR1	1	R1108J
3661.423	4.345	3669717	PROB	4.345	n/a	n/a	-999	22	[1, 2, 6]	9	FR1	1	R1108J
3665.768	0.006	3674062	STOP	n/a	n/a	n/a	-999	22	[-999, -999, -999]	n/a	FR1	1	R1108J
3665.774	1.134	3674068	DISTRACT_END	n/a	n/a	n/a	-999	22	[0, 0, 0]	n/a	FR1	1	R1108J
3666.908	1.132	3675202	REC_START	n/a	n/a	n/a	-999	22	[0, 0, 0]	n/a	FR1	1	R1108J
3668.04	1.885	3676334	REC_WORD	1.885	n/a	CALF	-999	22	[0, 0, 0]	n/a	FR1	1	R1108J
3669.925	1.0	3678219	REC_WORD_VV	1.0	n/a	<>	-999	22	[0, 0, 0]	n/a	FR1	1	R1108J
3670.925	8.531	3679219	REC_WORD_VV	8.531	n/a	<>	-999	22	[0, 0, 0]	n/a	FR1	1	R1108J
3679.456	14.852	3687750	REC_WORD	14.852	n/a	CRANE	-999	22	[0, 0, 0]	n/a	FR1	1	R1108J
3694.308	2.609	3702602	REC_WORD	2.609	n/a	PIG	-999	22	[0, 0, 0]	n/a	FR1	1	R1108J
3696.917	6.828	3705211	REC_END	n/a	n/a	n/a	-999	22	[0, 0, 0]	n/a	FR1	1	R1108J
3703.745	0.0	3712039	TRIAL	n/a	n/a	n/a	-999	23	[0, 0, 0]	n/a	FR1	1	R1108J
3703.745	10.428	3712039	COUNTDOWN_START	n/a	n/a	n/a	-999	23	[0, 0, 0]	n/a	FR1	1	R1108J
3714.173	0.006	3722467	COUNTDOWN_END	n/a	n/a	n/a	-999	23	[0, 0, 0]	n/a	FR1	1	R1108J
3714.179	3.668	3722473	ORIENT	n/a	n/a	n/a	-999	23	[0, 0, 0]	n/a	FR1	1	R1108J
3717.847	2.534	3726141	WORD	n/a	wordpools/wordpool_EN.txt	TEA	1	23	[0, 0, 0]	n/a	FR1	1	R1108J
3720.381	2.417	3728675	WORD	n/a	wordpools/wordpool_EN.txt	FUR	2	23	[0, 0, 0]	n/a	FR1	1	R1108J
3722.798	2.517	3731091	WORD	n/a	wordpools/wordpool_EN.txt	STEM	3	23	[0, 0, 0]	n/a	FR1	1	R1108J
3725.315	2.584	3733608	WORD	n/a	wordpools/wordpool_EN.txt	DRUM	4	23	[0, 0, 0]	n/a	FR1	1	R1108J
3727.899	2.517	3736192	WORD	n/a	wordpools/wordpool_EN.txt	EEL	5	23	[0, 0, 0]	n/a	FR1	1	R1108J
3730.416	2.4	3738709	WORD	n/a	wordpools/wordpool_EN.txt	PIE	6	23	[0, 0, 0]	n/a	FR1	1	R1108J
3732.816	2.617	3741109	WORD	n/a	wordpools/wordpool_EN.txt	HAT	7	23	[0, 0, 0]	n/a	FR1	1	R1108J
3735.433	2.434	3743726	WORD	n/a	wordpools/wordpool_EN.txt	HAWK	8	23	[0, 0, 0]	n/a	FR1	1	R1108J
3737.867	2.5	3746160	WORD	n/a	wordpools/wordpool_EN.txt	VINE	9	23	[0, 0, 0]	n/a	FR1	1	R1108J
3740.367	2.517	3748660	WORD	n/a	wordpools/wordpool_EN.txt	SNOW	10	23	[0, 0, 0]	n/a	FR1	1	R1108J
3742.884	2.517	3751177	WORD	n/a	wordpools/wordpool_EN.txt	COUCH	11	23	[0, 0, 0]	n/a	FR1	1	R1108J
3745.401	1.617	3753694	WORD	n/a	wordpools/wordpool_EN.txt	FAN	12	23	[0, 0, 0]	n/a	FR1	1	R1108J
3747.018	0.001	3755311	DISTRACT_START	n/a	n/a	n/a	-999	23	[0, 0, 0]	n/a	FR1	1	R1108J
3747.019	0.016	3755312	START	n/a	n/a	n/a	-999	23	[-999, -999, -999]	n/a	FR1	1	R1108J
3747.035	4.65	3755328	PROB	4.65	n/a	n/a	-999	23	[8, 8, 1]	17	FR1	1	R1108J
3751.685	6.018	3759978	PROB	6.018	n/a	n/a	-999	23	[1, 3, 1]	5	FR1	1	R1108J
3757.703	6.416	3765996	PROB	6.416	n/a	n/a	-999	23	[5, 2, 9]	16	FR1	1	R1108J
3764.119	5.158	3772412	PROB	5.158	n/a	n/a	-999	23	[5, 4, 3]	12	FR1	1	R1108J
3769.277	0.011	3777570	STOP	n/a	n/a	n/a	-999	23	[-999, -999, -999]	n/a	FR1	1	R1108J
3769.288	1.168	3777581	DISTRACT_END	n/a	n/a	n/a	-999	23	[0, 0, 0]	n/a	FR1	1	R1108J
3770.456	1.81	3778749	REC_START	n/a	n/a	n/a	-999	23	[0, 0, 0]	n/a	FR1	1	R1108J
3772.266	1.532	3780559	REC_WORD_VV	1.532	n/a	<>	-999	23	[0, 0, 0]	n/a	FR1	1	R1108J
3773.798	2.594	3782091	REC_WORD_VV	2.594	n/a	<>	-999	23	[0, 0, 0]	n/a	FR1	1	R1108J
3776.392	2.001	3784685	REC_WORD	2.001	n/a	COUCH	-999	23	[0, 0, 0]	n/a	FR1	1	R1108J
3778.393	3.243	3786686	REC_WORD_VV	3.243	n/a	<>	-999	23	[0, 0, 0]	n/a	FR1	1	R1108J
3781.636	1.927	3789929	REC_WORD	1.927	n/a	LEAF	-999	23	[0, 0, 0]	n/a	FR1	1	R1108J
3783.563	12.761	3791856	REC_WORD_VV	12.761	n/a	<>	-999	23	[0, 0, 0]	n/a	FR1	1	R1108J
3796.324	4.142	3804617	REC_WORD	4.142	n/a	STEM	-999	23	[0, 0, 0]	n/a	FR1	1	R1108J
3800.466	3.193	3808758	REC_END	n/a	n/a	n/a	-999	23	[0, 0, 0]	n/a	FR1	1	R1108J
3803.659	0.0	3811951	TRIAL	n/a	n/a	n/a	-999	24	[0, 0, 0]	n/a	FR1	1	R1108J
3803.659	10.428	3811951	COUNTDOWN_START	n/a	n/a	n/a	-999	24	[0, 0, 0]	n/a	FR1	1	R1108J
3814.087	0.006	3822379	COUNTDOWN_END	n/a	n/a	n/a	-999	24	[0, 0, 0]	n/a	FR1	1	R1108J
3814.093	3.635	3822385	ORIENT	n/a	n/a	n/a	-999	24	[0, 0, 0]	n/a	FR1	1	R1108J
3817.728	2.399	3826020	WORD	n/a	wordpools/wordpool_EN.txt	PEA	1	24	[0, 0, 0]	n/a	FR1	1	R1108J
3820.127	2.501	3828419	WORD	n/a	wordpools/wordpool_EN.txt	CASH	2	24	[0, 0, 0]	n/a	FR1	1	R1108J
3822.628	2.533	3830920	WORD	n/a	wordpools/wordpool_EN.txt	NOSE	3	24	[0, 0, 0]	n/a	FR1	1	R1108J
3825.161	2.385	3833453	WORD	n/a	wordpools/wordpool_EN.txt	STRAW	4	24	[0, 0, 0]	n/a	FR1	1	R1108J
3827.546	2.45	3835838	WORD	n/a	wordpools/wordpool_EN.txt	POOL	5	24	[0, 0, 0]	n/a	FR1	1	R1108J
3829.996	2.416	3838288	WORD	n/a	wordpools/wordpool_EN.txt	NET	6	24	[0, 0, 0]	n/a	FR1	1	R1108J
3832.412	2.418	3840704	WORD	n/a	wordpools/wordpool_EN.txt	SOUP	7	24	[0, 0, 0]	n/a	FR1	1	R1108J
3834.83	2.467	3843122	WORD	n/a	wordpools/wordpool_EN.txt	BAT	8	24	[0, 0, 0]	n/a	FR1	1	R1108J
3837.297	2.6	3845589	WORD	n/a	wordpools/wordpool_EN.txt	SKI	9	24	[0, 0, 0]	n/a	FR1	1	R1108J
3839.897	2.417	3848189	WORD	n/a	wordpools/wordpool_EN.txt	PIT	10	24	[0, 0, 0]	n/a	FR1	1	R1108J
3842.314	2.4	3850606	WORD	n/a	wordpools/wordpool_EN.txt	FOG	11	24	[0, 0, 0]	n/a	FR1	1	R1108J
3844.714	1.617	3853006	WORD	n/a	wordpools/wordpool_EN.txt	CORD	12	24	[0, 0, 0]	n/a	FR1	1	R1108J
3846.331	0.001	3854623	DISTRACT_START	n/a	n/a	n/a	-999	24	[0, 0, 0]	n/a	FR1	1	R1108J
3846.332	0.016	3854624	START	n/a	n/a	n/a	-999	24	[-999, -999, -999]	n/a	FR1	1	R1108J
3846.348	6.101	3854640	PROB	6.101	n/a	n/a	-999	24	[4, 6, 4]	14	FR1	1	R1108J
3852.449	7.534	3860741	PROB	7.534	n/a	n/a	-999	24	[7, 4, 1]	12	FR1	1	R1108J
3859.983	9.706	3868275	PROB	9.706	n/a	n/a	-999	24	[7, 8, 5]	20	FR1	1	R1108J
3869.689	0.013	3877981	STOP	n/a	n/a	n/a	-999	24	[-999, -999, -999]	n/a	FR1	1	R1108J
3869.702	1.217	3877994	DISTRACT_END	n/a	n/a	n/a	-999	24	[0, 0, 0]	n/a	FR1	1	R1108J
3870.919	0.811	3879211	REC_START	n/a	n/a	n/a	-999	24	[0, 0, 0]	n/a	FR1	1	R1108J
3871.73	3.058	3880022	REC_WORD_VV	3.058	n/a	<>	-999	24	[0, 0, 0]	n/a	FR1	1	R1108J
3874.788	1.469	3883079	REC_WORD	1.469	n/a	PEA	-999	24	[0, 0, 0]	n/a	FR1	1	R1108J
3876.257	24.672	3884548	REC_WORD_VV	24.672	n/a	<>	-999	24	[0, 0, 0]	n/a	FR1	1	R1108J
3900.929	5.544	3909220	REC_END	n/a	n/a	n/a	-999	24	[0, 0, 0]	n/a	FR1	1	R1108J
3906.473	0.0	3914764	TRIAL	n/a	n/a	n/a	-999	25	[0, 0, 0]	n/a	FR1	1	R1108J
3906.473	10.428	3914764	COUNTDOWN_START	n/a	n/a	n/a	-999	25	[0, 0, 0]	n/a	FR1	1	R1108J
3916.901	0.006	3925192	COUNTDOWN_END	n/a	n/a	n/a	-999	25	[0, 0, 0]	n/a	FR1	1	R1108J
3916.907	3.918	3925198	ORIENT	n/a	n/a	n/a	-999	25	[0, 0, 0]	n/a	FR1	1	R1108J
3920.825	2.433	3929116	WORD	n/a	wordpools/wordpool_EN.txt	HORN	1	25	[0, 0, 0]	n/a	FR1	1	R1108J
3923.258	2.401	3931549	WORD	n/a	wordpools/wordpool_EN.txt	LAND	2	25	[0, 0, 0]	n/a	FR1	1	R1108J
3925.659	2.617	3933950	WORD	n/a	wordpools/wordpool_EN.txt	HOLE	3	25	[0, 0, 0]	n/a	FR1	1	R1108J
3928.276	2.483	3936567	WORD	n/a	wordpools/wordpool_EN.txt	MOOSE	4	25	[0, 0, 0]	n/a	FR1	1	R1108J
3930.759	2.416	3939050	WORD	n/a	wordpools/wordpool_EN.txt	FRUIT	5	25	[0, 0, 0]	n/a	FR1	1	R1108J
3933.175	2.452	3941466	WORD	n/a	wordpools/wordpool_EN.txt	DEER	6	25	[0, 0, 0]	n/a	FR1	1	R1108J
3935.627	2.499	3943918	WORD	n/a	wordpools/wordpool_EN.txt	GOAT	7	25	[0, 0, 0]	n/a	FR1	1	R1108J
3938.126	2.385	3946417	WORD	n/a	wordpools/wordpool_EN.txt	MULE	8	25	[0, 0, 0]	n/a	FR1	1	R1108J
3940.511	2.533	3948802	WORD	n/a	wordpools/wordpool_EN.txt	THUMB	9	25	[0, 0, 0]	n/a	FR1	1	R1108J
3943.044	2.417	3951335	WORD	n/a	wordpools/wordpool_EN.txt	TOAD	10	25	[0, 0, 0]	n/a	FR1	1	R1108J
3945.461	2.601	3953752	WORD	n/a	wordpools/wordpool_EN.txt	MUG	11	25	[0, 0, 0]	n/a	FR1	1	R1108J
3948.062	1.617	3956353	WORD	n/a	wordpools/wordpool_EN.txt	DOLL	12	25	[0, 0, 0]	n/a	FR1	1	R1108J
3949.679	0.0	3957970	DISTRACT_START	n/a	n/a	n/a	-999	25	[0, 0, 0]	n/a	FR1	1	R1108J
3949.679	0.016	3957970	START	n/a	n/a	n/a	-999	25	[-999, -999, -999]	n/a	FR1	1	R1108J
3949.695	6.701	3957986	PROB	6.701	n/a	n/a	-999	25	[5, 8, 8]	21	FR1	1	R1108J
3956.396	4.334	3964686	PROB	4.334	n/a	n/a	-999	25	[1, 3, 6]	10	FR1	1	R1108J
3960.73	7.668	3969020	PROB	7.668	n/a	n/a	-999	25	[8, 1, 5]	14	FR1	1	R1108J
3968.398	5.447	3976688	PROB	5.447	n/a	n/a	-999	25	[4, 9, 3]	16	FR1	1	R1108J
3973.845	0.02	3982135	STOP	n/a	n/a	n/a	-999	25	[-999, -999, -999]	n/a	FR1	1	R1108J
3973.865	1.201	3982155	DISTRACT_END	n/a	n/a	n/a	-999	25	[0, 0, 0]	n/a	FR1	1	R1108J
3975.066	0.899	3983356	REC_START	n/a	n/a	n/a	-999	25	[0, 0, 0]	n/a	FR1	1	R1108J
3975.965	0.783	3984255	REC_WORD	0.783	n/a	TOAD	-999	25	[0, 0, 0]	n/a	FR1	1	R1108J
3976.748	0.891	3985038	REC_WORD	0.891	n/a	MULE	-999	25	[0, 0, 0]	n/a	FR1	1	R1108J
3977.639	1.049	3985929	REC_WORD	1.049	n/a	GOAT	-999	25	[0, 0, 0]	n/a	FR1	1	R1108J
3978.688	8.268	3986978	REC_WORD_VV	8.268	n/a	<>	-999	25	[0, 0, 0]	n/a	FR1	1	R1108J
3986.956	14.438	3995246	REC_WORD	14.438	n/a	DEER	-999	25	[0, 0, 0]	n/a	FR1	1	R1108J
4001.394	3.681	4009684	REC_WORD	3.681	n/a	THUMB	-999	25	[0, 0, 0]	n/a	FR1	1	R1108J
4005.075	12.579	4013365	REC_END	n/a	n/a	n/a	-999	25	[0, 0, 0]	n/a	FR1	1	R1108J
4017.654	0.0	4025944	SESS_END	n/a	n/a	n/a	-999	25	[0, 0, 0]	n/a	FR1	1	R1108J
