onset	duration	sample	trial_type	response_time	stim_file	item_name	serialpos	list	test	answer	experiment	session	subject
0.0	161.799	272120	INSTRUCT_START	n/a	n/a	n/a	-999	-999	[0, 0, 0]	n/a	FR1	1	R1390M
161.799	54.183	433907	INSTRUCT_END	n/a	n/a	n/a	-999	-999	[0, 0, 0]	n/a	FR1	1	R1390M
215.982	10.35	488100	COUNTDOWN_START	n/a	n/a	n/a	-999	-999	[0, 0, 0]	n/a	FR1	1	R1390M
226.332	0.001	498442	COUNTDOWN_END	n/a	n/a	n/a	-999	-999	[0, 0, 0]	n/a	FR1	1	R1390M
226.333	1.916	498442	ENCODING_START	n/a	n/a	n/a	-999	-1	[0, 0, 0]	n/a	FR1	1	R1390M
228.249	1.616	500353	WORD	n/a	n/a	CHEST	1	-1	[0, 0, 0]	n/a	FR1	1	R1390M
229.865	0.866	501969	WORD_OFF	n/a	n/a	CHEST	1	-1	[0, 0, 0]	n/a	FR1	1	R1390M
230.731	1.601	502833	WORD	n/a	n/a	BABY	2	-1	[0, 0, 0]	n/a	FR1	1	R1390M
232.332	0.95	504431	WORD_OFF	n/a	n/a	BABY	2	-1	[0, 0, 0]	n/a	FR1	1	R1390M
233.282	1.617	505386	WORD	n/a	n/a	COTTON	3	-1	[0, 0, 0]	n/a	FR1	1	R1390M
234.899	0.933	507003	WORD_OFF	n/a	n/a	COTTON	3	-1	[0, 0, 0]	n/a	FR1	1	R1390M
235.832	1.617	507940	WORD	n/a	n/a	FLOOD	4	-1	[0, 0, 0]	n/a	FR1	1	R1390M
237.449	0.916	509556	WORD_OFF	n/a	n/a	FLOOD	4	-1	[0, 0, 0]	n/a	FR1	1	R1390M
238.365	1.601	510475	WORD	n/a	n/a	RHINO	5	-1	[0, 0, 0]	n/a	FR1	1	R1390M
239.966	0.949	512073	WORD_OFF	n/a	n/a	RHINO	5	-1	[0, 0, 0]	n/a	FR1	1	R1390M
240.915	1.601	513028	WORD	n/a	n/a	WAGON	6	-1	[0, 0, 0]	n/a	FR1	1	R1390M
242.516	0.816	514626	WORD_OFF	n/a	n/a	WAGON	6	-1	[0, 0, 0]	n/a	FR1	1	R1390M
243.332	1.6	515435	WORD	n/a	n/a	TONGUE	7	-1	[0, 0, 0]	n/a	FR1	1	R1390M
244.932	0.984	517033	WORD_OFF	n/a	n/a	TONGUE	7	-1	[0, 0, 0]	n/a	FR1	1	R1390M
245.916	1.616	518025	WORD	n/a	n/a	RING	8	-1	[0, 0, 0]	n/a	FR1	1	R1390M
247.532	1.0	519642	WORD_OFF	n/a	n/a	RING	8	-1	[0, 0, 0]	n/a	FR1	1	R1390M
248.532	1.6	520634	WORD	n/a	n/a	CAMEL	9	-1	[0, 0, 0]	n/a	FR1	1	R1390M
250.132	0.767	522232	WORD_OFF	n/a	n/a	CAMEL	9	-1	[0, 0, 0]	n/a	FR1	1	R1390M
250.899	1.6	523003	WORD	n/a	n/a	WATCH	10	-1	[0, 0, 0]	n/a	FR1	1	R1390M
252.499	0.967	524602	WORD_OFF	n/a	n/a	WATCH	10	-1	[0, 0, 0]	n/a	FR1	1	R1390M
253.466	1.6	525575	WORD	n/a	n/a	BEAM	11	-1	[0, 0, 0]	n/a	FR1	1	R1390M
255.066	0.865	527173	WORD_OFF	n/a	n/a	BEAM	11	-1	[0, 0, 0]	n/a	FR1	1	R1390M
255.931	1.601	528037	WORD	n/a	n/a	IMAGE	12	-1	[0, 0, 0]	n/a	FR1	1	R1390M
257.532	0.001	529635	WORD_OFF	n/a	n/a	IMAGE	12	-1	[0, 0, 0]	n/a	FR1	1	R1390M
257.533	0.001	529635	ENCODING_END	n/a	n/a	n/a	-999	-1	[0, 0, 0]	n/a	FR1	1	R1390M
257.534	0.0	529635	DISTRACT_START	n/a	n/a	n/a	-999	-1	[0, 0, 0]	n/a	FR1	1	R1390M
257.533	0.001	529637	PROB	0.001	n/a	n/a	-999	-1	[3, 8, 6]	17	FR1	1	R1390M
257.534	10.466	529638	START	n/a	n/a	n/a	-999	-1	[-999, -999, -999]	n/a	FR1	1	R1390M
268.0	8.949	540103	PROB	8.949	n/a	n/a	-999	-1	[6, 8, 6]	20	FR1	1	R1390M
276.949	6.35	549052	PROB	6.35	n/a	n/a	-999	-1	[6, 1, 8]	15	FR1	1	R1390M
283.299	0.0	555402	STOP	n/a	n/a	n/a	-999	-1	[-999, -999, -999]	n/a	FR1	1	R1390M
283.299	1.101	555409	DISTRACT_END	n/a	n/a	n/a	-999	-1	[0, 0, 0]	n/a	FR1	1	R1390M
284.4	3.288	556511	REC_START	n/a	n/a	n/a	-999	-1	[0, 0, 0]	n/a	FR1	1	R1390M
287.688	0.923	559790	REC_WORD	0.923	n/a	RING	8	-1	[0, 0, 0]	n/a	FR1	1	R1390M
288.611	4.713	560713	REC_WORD_VV	4.713	n/a	<>	-999	-1	[0, 0, 0]	n/a	FR1	1	R1390M
293.324	0.608	565426	REC_WORD	0.608	n/a	CHEST	1	-1	[0, 0, 0]	n/a	FR1	1	R1390M
293.932	0.505	566034	REC_WORD	0.505	n/a	BABY	2	-1	[0, 0, 0]	n/a	FR1	1	R1390M
294.437	13.588	566539	REC_WORD	13.588	n/a	COTTON	3	-1	[0, 0, 0]	n/a	FR1	1	R1390M
308.025	6.662	580126	REC_WORD	6.662	n/a	BEAM	11	-1	[0, 0, 0]	n/a	FR1	1	R1390M
314.687	32.328	586785	REC_END	n/a	n/a	n/a	-999	-1	[0, 0, 0]	n/a	FR1	1	R1390M
347.015	10.351	619117	COUNTDOWN_START	n/a	n/a	n/a	-999	1	[0, 0, 0]	n/a	FR1	1	R1390M
357.366	0.0	629460	COUNTDOWN_END	n/a	n/a	n/a	-999	1	[0, 0, 0]	n/a	FR1	1	R1390M
357.366	1.916	629478	ENCODING_START	n/a	n/a	n/a	-999	1	[0, 0, 0]	n/a	FR1	1	R1390M
359.282	1.6	631388	WORD	n/a	n/a	TROUT	1	1	[0, 0, 0]	n/a	FR1	1	R1390M
360.882	0.817	632987	WORD_OFF	n/a	n/a	TROUT	1	1	[0, 0, 0]	n/a	FR1	1	R1390M
361.699	1.601	633795	WORD	n/a	n/a	RICE	2	1	[0, 0, 0]	n/a	FR1	1	R1390M
363.3	1.0	635393	WORD_OFF	n/a	n/a	RICE	2	1	[0, 0, 0]	n/a	FR1	1	R1390M
364.3	1.599	636404	WORD	n/a	n/a	LIP	3	1	[0, 0, 0]	n/a	FR1	1	R1390M
365.899	0.783	638002	WORD_OFF	n/a	n/a	LIP	3	1	[0, 0, 0]	n/a	FR1	1	R1390M
366.682	1.618	638773	WORD	n/a	n/a	CHEEK	4	1	[0, 0, 0]	n/a	FR1	1	R1390M
368.3	0.916	640408	WORD_OFF	n/a	n/a	CHEEK	4	1	[0, 0, 0]	n/a	FR1	1	R1390M
369.216	1.599	641308	WORD	n/a	n/a	SEAL	5	1	[0, 0, 0]	n/a	FR1	1	R1390M
370.815	1.0	642907	WORD_OFF	n/a	n/a	SEAL	5	1	[0, 0, 0]	n/a	FR1	1	R1390M
371.815	1.617	643917	WORD	n/a	n/a	SALT	6	1	[0, 0, 0]	n/a	FR1	1	R1390M
373.432	0.817	645534	WORD_OFF	n/a	n/a	SALT	6	1	[0, 0, 0]	n/a	FR1	1	R1390M
374.249	1.6	646342	WORD	n/a	n/a	FLAME	7	1	[0, 0, 0]	n/a	FR1	1	R1390M
375.849	0.983	647940	WORD_OFF	n/a	n/a	FLAME	7	1	[0, 0, 0]	n/a	FR1	1	R1390M
376.832	1.617	648932	WORD	n/a	n/a	BREAST	8	1	[0, 0, 0]	n/a	FR1	1	R1390M
378.449	0.916	650549	WORD_OFF	n/a	n/a	BREAST	8	1	[0, 0, 0]	n/a	FR1	1	R1390M
379.365	1.601	651467	WORD	n/a	n/a	MAP	9	1	[0, 0, 0]	n/a	FR1	1	R1390M
380.966	0.8	653065	WORD_OFF	n/a	n/a	MAP	9	1	[0, 0, 0]	n/a	FR1	1	R1390M
381.766	1.615	653855	WORD	n/a	n/a	PAN	10	1	[0, 0, 0]	n/a	FR1	1	R1390M
383.381	0.784	655472	WORD_OFF	n/a	n/a	PAN	10	1	[0, 0, 0]	n/a	FR1	1	R1390M
384.165	1.6	656262	WORD	n/a	n/a	MOLE	11	1	[0, 0, 0]	n/a	FR1	1	R1390M
385.765	0.784	657860	WORD_OFF	n/a	n/a	MOLE	11	1	[0, 0, 0]	n/a	FR1	1	R1390M
386.549	1.601	658650	WORD	n/a	n/a	CORK	12	1	[0, 0, 0]	n/a	FR1	1	R1390M
388.15	0.0	660247	START	n/a	n/a	n/a	-999	1	[-999, -999, -999]	n/a	FR1	1	R1390M
388.15	0.0	660247	PROB	0.0	n/a	n/a	-999	1	[7, 4, 5]	16	FR1	1	R1390M
388.149	0.001	660248	WORD_OFF	n/a	n/a	CORK	12	1	[0, 0, 0]	n/a	FR1	1	R1390M
388.15	0.0	660248	ENCODING_END	n/a	n/a	n/a	-999	1	[0, 0, 0]	n/a	FR1	1	R1390M
388.15	6.615	660248	DISTRACT_START	n/a	n/a	n/a	-999	1	[0, 0, 0]	n/a	FR1	1	R1390M
394.765	4.718	666862	PROB	4.718	n/a	n/a	-999	1	[2, 6, 4]	12	FR1	1	R1390M
399.483	7.866	671580	PROB	7.866	n/a	n/a	-999	1	[7, 8, 8]	23	FR1	1	R1390M
407.349	6.649	679445	PROB	6.649	n/a	n/a	-999	1	[2, 4, 8]	14	FR1	1	R1390M
413.998	0.0	686094	STOP	n/a	n/a	n/a	-999	1	[-999, -999, -999]	n/a	FR1	1	R1390M
413.998	1.1	686095	DISTRACT_END	n/a	n/a	n/a	-999	1	[0, 0, 0]	n/a	FR1	1	R1390M
415.098	2.12	687198	REC_START	n/a	n/a	n/a	-999	1	[0, 0, 0]	n/a	FR1	1	R1390M
417.218	4.967	689314	REC_WORD_VV	4.967	n/a	<>	-999	1	[0, 0, 0]	n/a	FR1	1	R1390M
422.185	6.895	694281	REC_WORD	6.895	n/a	MOLE	11	1	[0, 0, 0]	n/a	FR1	1	R1390M
429.08	0.841	701175	REC_WORD_VV	0.841	n/a	<>	-999	1	[0, 0, 0]	n/a	FR1	1	R1390M
429.921	15.433	702016	REC_WORD_VV	15.433	n/a	<>	-999	1	[0, 0, 0]	n/a	FR1	1	R1390M
445.354	22.661	717454	REC_END	n/a	n/a	n/a	-999	1	[0, 0, 0]	n/a	FR1	1	R1390M
468.015	10.351	740104	COUNTDOWN_START	n/a	n/a	n/a	-999	2	[0, 0, 0]	n/a	FR1	1	R1390M
478.366	0.0	750465	COUNTDOWN_END	n/a	n/a	n/a	-999	2	[0, 0, 0]	n/a	FR1	1	R1390M
478.366	2.2	750465	ENCODING_START	n/a	n/a	n/a	-999	2	[0, 0, 0]	n/a	FR1	1	R1390M
480.566	1.616	752651	WORD	n/a	n/a	HEART	1	2	[0, 0, 0]	n/a	FR1	1	R1390M
482.182	0.934	754268	WORD_OFF	n/a	n/a	HEART	1	2	[0, 0, 0]	n/a	FR1	1	R1390M
483.116	1.615	755205	WORD	n/a	n/a	CAT	2	2	[0, 0, 0]	n/a	FR1	1	R1390M
484.731	0.851	756821	WORD_OFF	n/a	n/a	CAT	2	2	[0, 0, 0]	n/a	FR1	1	R1390M
485.582	1.616	757685	WORD	n/a	n/a	CLOWN	3	2	[0, 0, 0]	n/a	FR1	1	R1390M
487.198	0.784	759301	WORD_OFF	n/a	n/a	CLOWN	3	2	[0, 0, 0]	n/a	FR1	1	R1390M
487.982	1.616	760073	WORD	n/a	n/a	NEST	4	2	[0, 0, 0]	n/a	FR1	1	R1390M
489.598	0.767	761689	WORD_OFF	n/a	n/a	NEST	4	2	[0, 0, 0]	n/a	FR1	1	R1390M
490.365	1.6	762461	WORD	n/a	n/a	AISLE	5	2	[0, 0, 0]	n/a	FR1	1	R1390M
491.965	0.85	764059	WORD_OFF	n/a	n/a	AISLE	5	2	[0, 0, 0]	n/a	FR1	1	R1390M
492.815	1.617	764904	WORD	n/a	n/a	KITE	6	2	[0, 0, 0]	n/a	FR1	1	R1390M
494.432	0.917	766521	WORD_OFF	n/a	n/a	KITE	6	2	[0, 0, 0]	n/a	FR1	1	R1390M
495.349	1.616	767439	WORD	n/a	n/a	PARK	7	2	[0, 0, 0]	n/a	FR1	1	R1390M
496.965	0.934	769056	WORD_OFF	n/a	n/a	PARK	7	2	[0, 0, 0]	n/a	FR1	1	R1390M
497.899	1.616	769993	WORD	n/a	n/a	LEAF	8	2	[0, 0, 0]	n/a	FR1	1	R1390M
499.515	0.917	771609	WORD_OFF	n/a	n/a	LEAF	8	2	[0, 0, 0]	n/a	FR1	1	R1390M
500.432	1.616	772528	WORD	n/a	n/a	BLOOM	9	2	[0, 0, 0]	n/a	FR1	1	R1390M
502.048	0.967	774144	WORD_OFF	n/a	n/a	BLOOM	9	2	[0, 0, 0]	n/a	FR1	1	R1390M
503.015	1.6	775100	WORD	n/a	n/a	CLOCK	10	2	[0, 0, 0]	n/a	FR1	1	R1390M
504.615	1.0	776716	WORD_OFF	n/a	n/a	CLOCK	10	2	[0, 0, 0]	n/a	FR1	1	R1390M
505.615	1.6	777708	WORD	n/a	n/a	CAGE	11	2	[0, 0, 0]	n/a	FR1	1	R1390M
507.215	0.783	779306	WORD_OFF	n/a	n/a	CAGE	11	2	[0, 0, 0]	n/a	FR1	1	R1390M
507.998	1.618	780096	WORD	n/a	n/a	BONE	12	2	[0, 0, 0]	n/a	FR1	1	R1390M
509.616	0.001	781707	PROB	0.001	n/a	n/a	-999	2	[7, 3, 3]	13	FR1	1	R1390M
509.617	0.0	781708	START	n/a	n/a	n/a	-999	2	[-999, -999, -999]	n/a	FR1	1	R1390M
509.615	0.001	781713	WORD_OFF	n/a	n/a	BONE	12	2	[0, 0, 0]	n/a	FR1	1	R1390M
509.616	0.001	781713	ENCODING_END	n/a	n/a	n/a	-999	2	[0, 0, 0]	n/a	FR1	1	R1390M
509.617	7.382	781713	DISTRACT_START	n/a	n/a	n/a	-999	2	[0, 0, 0]	n/a	FR1	1	R1390M
516.999	5.066	789090	PROB	5.066	n/a	n/a	-999	2	[7, 7, 6]	20	FR1	1	R1390M
522.065	6.333	794156	PROB	6.333	n/a	n/a	-999	2	[2, 8, 3]	13	FR1	1	R1390M
528.398	4.517	800488	PROB	4.517	n/a	n/a	-999	2	[1, 8, 2]	11	FR1	1	R1390M
532.915	0.0	805005	STOP	n/a	n/a	n/a	-999	2	[-999, -999, -999]	n/a	FR1	1	R1390M
532.915	1.033	805007	DISTRACT_END	n/a	n/a	n/a	-999	2	[0, 0, 0]	n/a	FR1	1	R1390M
533.948	1.83	806035	REC_START	n/a	n/a	n/a	-999	2	[0, 0, 0]	n/a	FR1	1	R1390M
535.778	0.825	807868	REC_WORD_VV	0.825	n/a	<>	-999	2	[0, 0, 0]	n/a	FR1	1	R1390M
536.603	1.217	808693	REC_WORD	1.217	n/a	BLOOM	9	2	[0, 0, 0]	n/a	FR1	1	R1390M
537.82	3.144	809910	REC_WORD_VV	3.144	n/a	<>	-999	2	[0, 0, 0]	n/a	FR1	1	R1390M
540.964	0.723	813054	REC_WORD	0.723	n/a	KITE	6	2	[0, 0, 0]	n/a	FR1	1	R1390M
541.687	1.867	813777	REC_WORD	1.867	n/a	PARK	7	2	[0, 0, 0]	n/a	FR1	1	R1390M
543.554	15.684	815644	REC_WORD	15.684	n/a	CAT	2	2	[0, 0, 0]	n/a	FR1	1	R1390M
559.238	0.535	831327	REC_WORD_VV	0.535	n/a	<>	-999	2	[0, 0, 0]	n/a	FR1	1	R1390M
559.773	0.416	831862	REC_WORD	0.416	n/a	CAGE	11	2	[0, 0, 0]	n/a	FR1	1	R1390M
560.189	4.033	832278	REC_WORD_VV	4.033	n/a	<>	-999	2	[0, 0, 0]	n/a	FR1	1	R1390M
564.222	13.577	836310	REC_END	n/a	n/a	n/a	-999	2	[0, 0, 0]	n/a	FR1	1	R1390M
577.799	10.35	849885	COUNTDOWN_START	n/a	n/a	n/a	-999	3	[0, 0, 0]	n/a	FR1	1	R1390M
588.149	0.001	860246	COUNTDOWN_END	n/a	n/a	n/a	-999	3	[0, 0, 0]	n/a	FR1	1	R1390M
588.15	2.266	860246	ENCODING_START	n/a	n/a	n/a	-999	3	[0, 0, 0]	n/a	FR1	1	R1390M
590.416	1.616	862506	WORD	n/a	n/a	STOOL	1	3	[0, 0, 0]	n/a	FR1	1	R1390M
592.032	0.934	864122	WORD_OFF	n/a	n/a	STOOL	1	3	[0, 0, 0]	n/a	FR1	1	R1390M
592.966	1.615	865059	WORD	n/a	n/a	PASTE	2	3	[0, 0, 0]	n/a	FR1	1	R1390M
594.581	1.001	866676	WORD_OFF	n/a	n/a	PASTE	2	3	[0, 0, 0]	n/a	FR1	1	R1390M
595.582	1.617	867668	WORD	n/a	n/a	RUG	3	3	[0, 0, 0]	n/a	FR1	1	R1390M
597.199	1.0	869284	WORD_OFF	n/a	n/a	RUG	3	3	[0, 0, 0]	n/a	FR1	1	R1390M
598.199	1.616	870295	WORD	n/a	n/a	BEAN	4	3	[0, 0, 0]	n/a	FR1	1	R1390M
599.815	0.867	871911	WORD_OFF	n/a	n/a	BEAN	4	3	[0, 0, 0]	n/a	FR1	1	R1390M
600.682	1.617	872775	WORD	n/a	n/a	NAIL	5	3	[0, 0, 0]	n/a	FR1	1	R1390M
602.299	0.966	874391	WORD_OFF	n/a	n/a	NAIL	5	3	[0, 0, 0]	n/a	FR1	1	R1390M
603.265	1.6	875347	WORD	n/a	n/a	RAMP	6	3	[0, 0, 0]	n/a	FR1	1	R1390M
604.865	0.95	876945	WORD_OFF	n/a	n/a	RAMP	6	3	[0, 0, 0]	n/a	FR1	1	R1390M
605.815	1.6	877900	WORD	n/a	n/a	BANK	7	3	[0, 0, 0]	n/a	FR1	1	R1390M
607.415	0.935	879498	WORD_OFF	n/a	n/a	BANK	7	3	[0, 0, 0]	n/a	FR1	1	R1390M
608.35	1.615	880435	WORD	n/a	n/a	DEW	8	3	[0, 0, 0]	n/a	FR1	1	R1390M
609.965	0.8	882052	WORD_OFF	n/a	n/a	DEW	8	3	[0, 0, 0]	n/a	FR1	1	R1390M
610.765	1.617	882860	WORD	n/a	n/a	CRANE	9	3	[0, 0, 0]	n/a	FR1	1	R1390M
612.382	0.933	884477	WORD_OFF	n/a	n/a	CRANE	9	3	[0, 0, 0]	n/a	FR1	1	R1390M
613.315	1.6	885395	WORD	n/a	n/a	HARP	10	3	[0, 0, 0]	n/a	FR1	1	R1390M
614.915	0.917	886993	WORD_OFF	n/a	n/a	HARP	10	3	[0, 0, 0]	n/a	FR1	1	R1390M
615.832	1.6	887912	WORD	n/a	n/a	PRINCE	11	3	[0, 0, 0]	n/a	FR1	1	R1390M
617.432	0.8	889510	WORD_OFF	n/a	n/a	PRINCE	11	3	[0, 0, 0]	n/a	FR1	1	R1390M
618.232	1.6	890318	WORD	n/a	n/a	BEAK	12	3	[0, 0, 0]	n/a	FR1	1	R1390M
619.832	0.001	891917	WORD_OFF	n/a	n/a	BEAK	12	3	[0, 0, 0]	n/a	FR1	1	R1390M
619.833	0.0	891917	ENCODING_END	n/a	n/a	n/a	-999	3	[0, 0, 0]	n/a	FR1	1	R1390M
619.833	0.0	891917	DISTRACT_START	n/a	n/a	n/a	-999	3	[0, 0, 0]	n/a	FR1	1	R1390M
619.833	0.0	891919	PROB	0.0	n/a	n/a	-999	3	[4, 8, 2]	14	FR1	1	R1390M
619.833	5.465	891919	START	n/a	n/a	n/a	-999	3	[-999, -999, -999]	n/a	FR1	1	R1390M
625.298	6.201	897384	PROB	6.201	n/a	n/a	-999	3	[5, 5, 5]	15	FR1	1	R1390M
631.499	11.2	903584	PROB	11.2	n/a	n/a	-999	3	[8, 4, 1]	13	FR1	1	R1390M
642.699	0.0	914784	STOP	n/a	n/a	n/a	-999	3	[-999, -999, -999]	n/a	FR1	1	R1390M
642.699	1.234	914788	DISTRACT_END	n/a	n/a	n/a	-999	3	[0, 0, 0]	n/a	FR1	1	R1390M
643.933	2.15	916019	REC_START	n/a	n/a	n/a	-999	3	[0, 0, 0]	n/a	FR1	1	R1390M
646.083	11.689	918167	REC_WORD_VV	11.689	n/a	<>	-999	3	[0, 0, 0]	n/a	FR1	1	R1390M
657.772	4.873	929856	REC_WORD_VV	4.873	n/a	<>	-999	3	[0, 0, 0]	n/a	FR1	1	R1390M
662.645	1.933	934729	REC_WORD_VV	1.933	n/a	<>	-999	3	[0, 0, 0]	n/a	FR1	1	R1390M
664.578	1.023	936662	REC_WORD	1.023	n/a	STOOL	1	3	[0, 0, 0]	n/a	FR1	1	R1390M
665.601	2.822	937685	REC_WORD	2.822	n/a	BEAN	4	3	[0, 0, 0]	n/a	FR1	1	R1390M
668.423	5.797	940506	REC_WORD	5.797	n/a	NAIL	5	3	[0, 0, 0]	n/a	FR1	1	R1390M
674.22	20.511	946311	REC_END	n/a	n/a	n/a	-999	3	[0, 0, 0]	n/a	FR1	1	R1390M
694.731	10.352	966813	COUNTDOWN_START	n/a	n/a	n/a	-999	4	[0, 0, 0]	n/a	FR1	1	R1390M
705.083	0.0	977173	COUNTDOWN_END	n/a	n/a	n/a	-999	4	[0, 0, 0]	n/a	FR1	1	R1390M
705.083	2.082	977173	ENCODING_START	n/a	n/a	n/a	-999	4	[0, 0, 0]	n/a	FR1	1	R1390M
707.165	1.6	979249	WORD	n/a	n/a	BADGE	1	4	[0, 0, 0]	n/a	FR1	1	R1390M
708.765	0.767	980848	WORD_OFF	n/a	n/a	BADGE	1	4	[0, 0, 0]	n/a	FR1	1	R1390M
709.532	1.6	981619	WORD	n/a	n/a	LANE	2	4	[0, 0, 0]	n/a	FR1	1	R1390M
711.132	0.933	983217	WORD_OFF	n/a	n/a	LANE	2	4	[0, 0, 0]	n/a	FR1	1	R1390M
712.065	1.6	984154	WORD	n/a	n/a	ELF	3	4	[0, 0, 0]	n/a	FR1	1	R1390M
713.665	0.9	985752	WORD_OFF	n/a	n/a	ELF	3	4	[0, 0, 0]	n/a	FR1	1	R1390M
714.565	1.6	986653	WORD	n/a	n/a	COKE	4	4	[0, 0, 0]	n/a	FR1	1	R1390M
716.165	0.967	988251	WORD_OFF	n/a	n/a	COKE	4	4	[0, 0, 0]	n/a	FR1	1	R1390M
717.132	1.6	989206	WORD	n/a	n/a	SMOKE	5	4	[0, 0, 0]	n/a	FR1	1	R1390M
718.732	0.933	990804	WORD_OFF	n/a	n/a	SMOKE	5	4	[0, 0, 0]	n/a	FR1	1	R1390M
719.665	1.617	991741	WORD	n/a	n/a	HOUSE	6	4	[0, 0, 0]	n/a	FR1	1	R1390M
721.282	0.9	993358	WORD_OFF	n/a	n/a	HOUSE	6	4	[0, 0, 0]	n/a	FR1	1	R1390M
722.182	1.6	994258	WORD	n/a	n/a	RIB	7	4	[0, 0, 0]	n/a	FR1	1	R1390M
723.782	0.833	995856	WORD_OFF	n/a	n/a	RIB	7	4	[0, 0, 0]	n/a	FR1	1	R1390M
724.615	1.616	996701	WORD	n/a	n/a	SPARK	8	4	[0, 0, 0]	n/a	FR1	1	R1390M
726.231	0.767	998318	WORD_OFF	n/a	n/a	SPARK	8	4	[0, 0, 0]	n/a	FR1	1	R1390M
726.998	1.6	999071	WORD	n/a	n/a	SOUP	9	4	[0, 0, 0]	n/a	FR1	1	R1390M
728.598	0.883	1000688	WORD_OFF	n/a	n/a	SOUP	9	4	[0, 0, 0]	n/a	FR1	1	R1390M
729.481	1.6	1001569	WORD	n/a	n/a	CUBE	10	4	[0, 0, 0]	n/a	FR1	1	R1390M
731.081	0.783	1003168	WORD_OFF	n/a	n/a	CUBE	10	4	[0, 0, 0]	n/a	FR1	1	R1390M
731.864	1.601	1003939	WORD	n/a	n/a	CURB	11	4	[0, 0, 0]	n/a	FR1	1	R1390M
733.465	0.8	1005537	WORD_OFF	n/a	n/a	CURB	11	4	[0, 0, 0]	n/a	FR1	1	R1390M
734.265	1.6	1006346	WORD	n/a	n/a	CHALK	12	4	[0, 0, 0]	n/a	FR1	1	R1390M
735.865	0.001	1007944	WORD_OFF	n/a	n/a	CHALK	12	4	[0, 0, 0]	n/a	FR1	1	R1390M
735.866	0.0	1007944	ENCODING_END	n/a	n/a	n/a	-999	4	[0, 0, 0]	n/a	FR1	1	R1390M
735.866	0.0	1007944	DISTRACT_START	n/a	n/a	n/a	-999	4	[0, 0, 0]	n/a	FR1	1	R1390M
735.865	0.001	1007945	PROB	0.001	n/a	n/a	-999	4	[6, 6, 4]	16	FR1	1	R1390M
735.866	6.133	1007946	START	n/a	n/a	n/a	-999	4	[-999, -999, -999]	n/a	FR1	1	R1390M
741.999	4.868	1014079	PROB	4.868	n/a	n/a	-999	4	[3, 4, 1]	8	FR1	1	R1390M
746.867	4.583	1018946	PROB	4.583	n/a	n/a	-999	4	[3, 1, 1]	5	FR1	1	R1390M
751.45	9.482	1023529	PROB	9.482	n/a	n/a	-999	4	[2, 1, 2]	5	FR1	1	R1390M
760.932	0.0	1033011	STOP	n/a	n/a	n/a	-999	4	[-999, -999, -999]	n/a	FR1	1	R1390M
760.932	1.167	1033019	DISTRACT_END	n/a	n/a	n/a	-999	4	[0, 0, 0]	n/a	FR1	1	R1390M
762.099	2.55	1034177	REC_START	n/a	n/a	n/a	-999	4	[0, 0, 0]	n/a	FR1	1	R1390M
764.649	0.679	1036728	REC_WORD	0.679	n/a	COKE	4	4	[0, 0, 0]	n/a	FR1	1	R1390M
765.328	1.697	1037407	REC_WORD	1.697	n/a	SMOKE	5	4	[0, 0, 0]	n/a	FR1	1	R1390M
767.025	4.597	1039103	REC_WORD	4.597	n/a	DEW	-999	4	[0, 0, 0]	n/a	FR1	1	R1390M
771.622	18.198	1043700	REC_WORD	18.198	n/a	CHALK	12	4	[0, 0, 0]	n/a	FR1	1	R1390M
789.82	2.557	1061897	REC_WORD	2.557	n/a	CUBE	10	4	[0, 0, 0]	n/a	FR1	1	R1390M
792.377	17.455	1064451	REC_END	n/a	n/a	n/a	-999	4	[0, 0, 0]	n/a	FR1	1	R1390M
809.832	10.35	1081903	COUNTDOWN_START	n/a	n/a	n/a	-999	5	[0, 0, 0]	n/a	FR1	1	R1390M
820.182	0.0	1092264	COUNTDOWN_END	n/a	n/a	n/a	-999	5	[0, 0, 0]	n/a	FR1	1	R1390M
820.182	1.966	1092264	ENCODING_START	n/a	n/a	n/a	-999	5	[0, 0, 0]	n/a	FR1	1	R1390M
822.148	1.617	1094229	WORD	n/a	n/a	STEAM	1	5	[0, 0, 0]	n/a	FR1	1	R1390M
823.765	0.767	1095846	WORD_OFF	n/a	n/a	STEAM	1	5	[0, 0, 0]	n/a	FR1	1	R1390M
824.532	1.6	1096617	WORD	n/a	n/a	CORD	2	5	[0, 0, 0]	n/a	FR1	1	R1390M
826.132	0.983	1098216	WORD_OFF	n/a	n/a	CORD	2	5	[0, 0, 0]	n/a	FR1	1	R1390M
827.115	1.6	1099189	WORD	n/a	n/a	PIT	3	5	[0, 0, 0]	n/a	FR1	1	R1390M
828.715	0.983	1100788	WORD_OFF	n/a	n/a	PIT	3	5	[0, 0, 0]	n/a	FR1	1	R1390M
829.698	1.616	1101780	WORD	n/a	n/a	HOG	4	5	[0, 0, 0]	n/a	FR1	1	R1390M
831.314	0.867	1103396	WORD_OFF	n/a	n/a	HOG	4	5	[0, 0, 0]	n/a	FR1	1	R1390M
832.181	1.617	1104260	WORD	n/a	n/a	BUSH	5	5	[0, 0, 0]	n/a	FR1	1	R1390M
833.798	1.0	1105876	WORD_OFF	n/a	n/a	BUSH	5	5	[0, 0, 0]	n/a	FR1	1	R1390M
834.798	1.616	1106868	WORD	n/a	n/a	JET	6	5	[0, 0, 0]	n/a	FR1	1	R1390M
836.414	1.0	1108485	WORD_OFF	n/a	n/a	JET	6	5	[0, 0, 0]	n/a	FR1	1	R1390M
837.414	1.601	1109495	WORD	n/a	n/a	DITCH	7	5	[0, 0, 0]	n/a	FR1	1	R1390M
839.015	0.916	1111093	WORD_OFF	n/a	n/a	DITCH	7	5	[0, 0, 0]	n/a	FR1	1	R1390M
839.931	1.601	1112012	WORD	n/a	n/a	ASH	8	5	[0, 0, 0]	n/a	FR1	1	R1390M
841.532	0.983	1113610	WORD_OFF	n/a	n/a	ASH	8	5	[0, 0, 0]	n/a	FR1	1	R1390M
842.515	1.6	1114584	WORD	n/a	n/a	GOWN	9	5	[0, 0, 0]	n/a	FR1	1	R1390M
844.115	0.967	1116182	WORD_OFF	n/a	n/a	GOWN	9	5	[0, 0, 0]	n/a	FR1	1	R1390M
845.082	1.6	1117156	WORD	n/a	n/a	RAT	10	5	[0, 0, 0]	n/a	FR1	1	R1390M
846.682	0.767	1118754	WORD_OFF	n/a	n/a	RAT	10	5	[0, 0, 0]	n/a	FR1	1	R1390M
847.449	1.6	1119525	WORD	n/a	n/a	FLAG	11	5	[0, 0, 0]	n/a	FR1	1	R1390M
849.049	0.967	1121124	WORD_OFF	n/a	n/a	FLAG	11	5	[0, 0, 0]	n/a	FR1	1	R1390M
850.016	1.601	1122097	WORD	n/a	n/a	MOOSE	12	5	[0, 0, 0]	n/a	FR1	1	R1390M
851.617	0.001	1123691	PROB	0.001	n/a	n/a	-999	5	[3, 1, 5]	9	FR1	1	R1390M
851.618	0.0	1123692	START	n/a	n/a	n/a	-999	5	[-999, -999, -999]	n/a	FR1	1	R1390M
851.616	0.002	1123695	WORD_OFF	n/a	n/a	MOOSE	12	5	[0, 0, 0]	n/a	FR1	1	R1390M
851.618	0.0	1123695	ENCODING_END	n/a	n/a	n/a	-999	5	[0, 0, 0]	n/a	FR1	1	R1390M
851.618	5.381	1123695	DISTRACT_START	n/a	n/a	n/a	-999	5	[0, 0, 0]	n/a	FR1	1	R1390M
856.999	6.466	1129073	PROB	6.466	n/a	n/a	-999	5	[2, 4, 3]	9	FR1	1	R1390M
863.465	9.717	1135539	PROB	9.717	n/a	n/a	-999	5	[5, 7, 1]	13	FR1	1	R1390M
873.182	0.0	1145255	STOP	n/a	n/a	n/a	-999	5	[-999, -999, -999]	n/a	FR1	1	R1390M
873.182	1.233	1145262	DISTRACT_END	n/a	n/a	n/a	-999	5	[0, 0, 0]	n/a	FR1	1	R1390M
874.415	2.589	1146493	REC_START	n/a	n/a	n/a	-999	5	[0, 0, 0]	n/a	FR1	1	R1390M
877.004	27.7	1149077	REC_WORD	27.7	n/a	STEAM	1	5	[0, 0, 0]	n/a	FR1	1	R1390M
904.704	9.727	1176786	REC_END	n/a	n/a	n/a	-999	5	[0, 0, 0]	n/a	FR1	1	R1390M
914.431	10.352	1186504	COUNTDOWN_START	n/a	n/a	n/a	-999	6	[0, 0, 0]	n/a	FR1	1	R1390M
924.783	0.0	1196846	COUNTDOWN_END	n/a	n/a	n/a	-999	6	[0, 0, 0]	n/a	FR1	1	R1390M
924.783	2.149	1196864	ENCODING_START	n/a	n/a	n/a	-999	6	[0, 0, 0]	n/a	FR1	1	R1390M
926.932	1.6	1198995	WORD	n/a	n/a	ZOO	1	6	[0, 0, 0]	n/a	FR1	1	R1390M
928.532	1.0	1200612	WORD_OFF	n/a	n/a	ZOO	1	6	[0, 0, 0]	n/a	FR1	1	R1390M
929.532	1.617	1201604	WORD	n/a	n/a	LAND	2	6	[0, 0, 0]	n/a	FR1	1	R1390M
931.149	0.8	1203221	WORD_OFF	n/a	n/a	LAND	2	6	[0, 0, 0]	n/a	FR1	1	R1390M
931.949	1.6	1204010	WORD	n/a	n/a	OIL	3	6	[0, 0, 0]	n/a	FR1	1	R1390M
933.549	0.966	1205627	WORD_OFF	n/a	n/a	OIL	3	6	[0, 0, 0]	n/a	FR1	1	R1390M
934.515	1.6	1206582	WORD	n/a	n/a	SQUARE	4	6	[0, 0, 0]	n/a	FR1	1	R1390M
936.115	0.917	1208181	WORD_OFF	n/a	n/a	SQUARE	4	6	[0, 0, 0]	n/a	FR1	1	R1390M
937.032	1.6	1209099	WORD	n/a	n/a	SKI	5	6	[0, 0, 0]	n/a	FR1	1	R1390M
938.632	0.933	1210697	WORD_OFF	n/a	n/a	SKI	5	6	[0, 0, 0]	n/a	FR1	1	R1390M
939.565	1.617	1211634	WORD	n/a	n/a	TOY	6	6	[0, 0, 0]	n/a	FR1	1	R1390M
941.182	0.883	1213251	WORD_OFF	n/a	n/a	TOY	6	6	[0, 0, 0]	n/a	FR1	1	R1390M
942.065	1.601	1214133	WORD	n/a	n/a	BROOM	7	6	[0, 0, 0]	n/a	FR1	1	R1390M
943.666	0.783	1215731	WORD_OFF	n/a	n/a	BROOM	7	6	[0, 0, 0]	n/a	FR1	1	R1390M
944.449	1.616	1216521	WORD	n/a	n/a	JAIL	8	6	[0, 0, 0]	n/a	FR1	1	R1390M
946.065	0.949	1218137	WORD_OFF	n/a	n/a	JAIL	8	6	[0, 0, 0]	n/a	FR1	1	R1390M
947.014	1.601	1219093	WORD	n/a	n/a	MEAL	9	6	[0, 0, 0]	n/a	FR1	1	R1390M
948.615	0.833	1220691	WORD_OFF	n/a	n/a	MEAL	9	6	[0, 0, 0]	n/a	FR1	1	R1390M
949.448	1.601	1221517	WORD	n/a	n/a	HILL	10	6	[0, 0, 0]	n/a	FR1	1	R1390M
951.049	0.8	1223116	WORD_OFF	n/a	n/a	HILL	10	6	[0, 0, 0]	n/a	FR1	1	R1390M
951.849	1.617	1223924	WORD	n/a	n/a	EGG	11	6	[0, 0, 0]	n/a	FR1	1	R1390M
953.466	0.965	1225541	WORD_OFF	n/a	n/a	EGG	11	6	[0, 0, 0]	n/a	FR1	1	R1390M
954.431	1.601	1226496	WORD	n/a	n/a	NET	12	6	[0, 0, 0]	n/a	FR1	1	R1390M
956.032	0.001	1228094	WORD_OFF	n/a	n/a	NET	12	6	[0, 0, 0]	n/a	FR1	1	R1390M
956.033	0.001	1228102	PROB	0.001	n/a	n/a	-999	6	[5, 4, 5]	14	FR1	1	R1390M
956.034	0.0	1228103	START	n/a	n/a	n/a	-999	6	[-999, -999, -999]	n/a	FR1	1	R1390M
956.034	0.0	1228112	ENCODING_END	n/a	n/a	n/a	-999	6	[0, 0, 0]	n/a	FR1	1	R1390M
956.034	7.332	1228112	DISTRACT_START	n/a	n/a	n/a	-999	6	[0, 0, 0]	n/a	FR1	1	R1390M
963.366	4.167	1235435	PROB	4.167	n/a	n/a	-999	6	[3, 8, 2]	13	FR1	1	R1390M
967.533	7.1	1239601	PROB	7.1	n/a	n/a	-999	6	[1, 4, 5]	10	FR1	1	R1390M
974.633	4.549	1246701	PROB	4.549	n/a	n/a	-999	6	[7, 3, 3]	13	FR1	1	R1390M
979.182	0.0	1251250	STOP	n/a	n/a	n/a	-999	6	[-999, -999, -999]	n/a	FR1	1	R1390M
979.182	1.283	1251259	DISTRACT_END	n/a	n/a	n/a	-999	6	[0, 0, 0]	n/a	FR1	1	R1390M
980.465	2.519	1252527	REC_START	n/a	n/a	n/a	-999	6	[0, 0, 0]	n/a	FR1	1	R1390M
982.984	3.565	1255052	REC_WORD	3.565	n/a	SKI	5	6	[0, 0, 0]	n/a	FR1	1	R1390M
986.549	9.099	1258616	REC_WORD	9.099	n/a	OIL	3	6	[0, 0, 0]	n/a	FR1	1	R1390M
995.648	15.089	1267715	REC_WORD	15.089	n/a	BROOM	7	6	[0, 0, 0]	n/a	FR1	1	R1390M
1010.737	9.495	1282801	REC_END	n/a	n/a	n/a	-999	6	[0, 0, 0]	n/a	FR1	1	R1390M
1020.232	10.351	1292298	COUNTDOWN_START	n/a	n/a	n/a	-999	7	[0, 0, 0]	n/a	FR1	1	R1390M
1030.583	0.0	1302641	COUNTDOWN_END	n/a	n/a	n/a	-999	7	[0, 0, 0]	n/a	FR1	1	R1390M
1030.583	1.815	1302659	ENCODING_START	n/a	n/a	n/a	-999	7	[0, 0, 0]	n/a	FR1	1	R1390M
1032.398	1.601	1304460	WORD	n/a	n/a	HAT	1	7	[0, 0, 0]	n/a	FR1	1	R1390M
1033.999	0.9	1306058	WORD_OFF	n/a	n/a	HAT	1	7	[0, 0, 0]	n/a	FR1	1	R1390M
1034.899	1.616	1306958	WORD	n/a	n/a	BLUSH	2	7	[0, 0, 0]	n/a	FR1	1	R1390M
1036.515	0.983	1308575	WORD_OFF	n/a	n/a	BLUSH	2	7	[0, 0, 0]	n/a	FR1	1	R1390M
1037.498	1.601	1309567	WORD	n/a	n/a	SEED	3	7	[0, 0, 0]	n/a	FR1	1	R1390M
1039.099	0.8	1311165	WORD_OFF	n/a	n/a	SEED	3	7	[0, 0, 0]	n/a	FR1	1	R1390M
1039.899	1.6	1311973	WORD	n/a	n/a	ROPE	4	7	[0, 0, 0]	n/a	FR1	1	R1390M
1041.499	0.816	1313571	WORD_OFF	n/a	n/a	ROPE	4	7	[0, 0, 0]	n/a	FR1	1	R1390M
1042.315	1.617	1314380	WORD	n/a	n/a	MOUSE	5	7	[0, 0, 0]	n/a	FR1	1	R1390M
1043.932	0.799	1315996	WORD_OFF	n/a	n/a	MOUSE	5	7	[0, 0, 0]	n/a	FR1	1	R1390M
1044.731	1.601	1316804	WORD	n/a	n/a	CONE	6	7	[0, 0, 0]	n/a	FR1	1	R1390M
1046.332	0.766	1318403	WORD_OFF	n/a	n/a	CONE	6	7	[0, 0, 0]	n/a	FR1	1	R1390M
1047.098	1.6	1319156	WORD	n/a	n/a	SOCK	7	7	[0, 0, 0]	n/a	FR1	1	R1390M
1048.698	0.767	1320772	WORD_OFF	n/a	n/a	SOCK	7	7	[0, 0, 0]	n/a	FR1	1	R1390M
1049.465	1.616	1321526	WORD	n/a	n/a	TRAY	8	7	[0, 0, 0]	n/a	FR1	1	R1390M
1051.081	0.951	1323142	WORD_OFF	n/a	n/a	TRAY	8	7	[0, 0, 0]	n/a	FR1	1	R1390M
1052.032	1.616	1324097	WORD	n/a	n/a	BAY	9	7	[0, 0, 0]	n/a	FR1	1	R1390M
1053.648	0.984	1325714	WORD_OFF	n/a	n/a	BAY	9	7	[0, 0, 0]	n/a	FR1	1	R1390M
1054.632	1.6	1326688	WORD	n/a	n/a	BOY	10	7	[0, 0, 0]	n/a	FR1	1	R1390M
1056.232	0.983	1328304	WORD_OFF	n/a	n/a	BOY	10	7	[0, 0, 0]	n/a	FR1	1	R1390M
1057.215	1.601	1329278	WORD	n/a	n/a	CLAY	11	7	[0, 0, 0]	n/a	FR1	1	R1390M
1058.816	0.816	1330876	WORD_OFF	n/a	n/a	CLAY	11	7	[0, 0, 0]	n/a	FR1	1	R1390M
1059.632	1.617	1331703	WORD	n/a	n/a	SOAP	12	7	[0, 0, 0]	n/a	FR1	1	R1390M
1061.249	0.001	1333313	PROB	0.001	n/a	n/a	-999	7	[4, 2, 7]	13	FR1	1	R1390M
1061.25	0.0	1333314	START	n/a	n/a	n/a	-999	7	[-999, -999, -999]	n/a	FR1	1	R1390M
1061.249	0.001	1333319	WORD_OFF	n/a	n/a	SOAP	12	7	[0, 0, 0]	n/a	FR1	1	R1390M
1061.25	0.0	1333319	ENCODING_END	n/a	n/a	n/a	-999	7	[0, 0, 0]	n/a	FR1	1	R1390M
1061.25	6.0	1333319	DISTRACT_START	n/a	n/a	n/a	-999	7	[0, 0, 0]	n/a	FR1	1	R1390M
1067.25	5.632	1339313	PROB	5.632	n/a	n/a	-999	7	[4, 8, 4]	16	FR1	1	R1390M
1072.882	12.334	1344945	PROB	12.334	n/a	n/a	-999	7	[7, 8, 8]	23	FR1	1	R1390M
1085.216	0.0	1357274	DISTRACT_END	n/a	n/a	n/a	-999	7	[0, 0, 0]	n/a	FR1	1	R1390M
1085.216	1.199	1357278	STOP	n/a	n/a	n/a	-999	7	[-999, -999, -999]	n/a	FR1	1	R1390M
1086.415	1.82	1358487	REC_START	n/a	n/a	n/a	-999	7	[0, 0, 0]	n/a	FR1	1	R1390M
1088.235	3.806	1360297	REC_WORD_VV	3.806	n/a	<>	-999	7	[0, 0, 0]	n/a	FR1	1	R1390M
1092.041	12.257	1364103	REC_WORD	12.257	n/a	MOUSE	5	7	[0, 0, 0]	n/a	FR1	1	R1390M
1104.298	4.181	1376359	REC_WORD	4.181	n/a	BLUSH	2	7	[0, 0, 0]	n/a	FR1	1	R1390M
1108.479	1.791	1380540	REC_WORD	1.791	n/a	TRAY	8	7	[0, 0, 0]	n/a	FR1	1	R1390M
1110.27	4.67	1382331	REC_WORD	4.67	n/a	TOY	-999	7	[0, 0, 0]	n/a	FR1	1	R1390M
1114.94	1.742	1387001	REC_WORD	1.742	n/a	CLAY	11	7	[0, 0, 0]	n/a	FR1	1	R1390M
1116.682	13.017	1388743	REC_END	n/a	n/a	n/a	-999	7	[0, 0, 0]	n/a	FR1	1	R1390M
1129.699	10.35	1401767	COUNTDOWN_START	n/a	n/a	n/a	-999	8	[0, 0, 0]	n/a	FR1	1	R1390M
1140.049	0.001	1412110	COUNTDOWN_END	n/a	n/a	n/a	-999	8	[0, 0, 0]	n/a	FR1	1	R1390M
1140.05	2.015	1412110	ENCODING_START	n/a	n/a	n/a	-999	8	[0, 0, 0]	n/a	FR1	1	R1390M
1142.065	1.6	1414131	WORD	n/a	n/a	TOOTH	1	8	[0, 0, 0]	n/a	FR1	1	R1390M
1143.665	0.884	1415729	WORD_OFF	n/a	n/a	TOOTH	1	8	[0, 0, 0]	n/a	FR1	1	R1390M
1144.549	1.616	1416611	WORD	n/a	n/a	WEB	2	8	[0, 0, 0]	n/a	FR1	1	R1390M
1146.165	0.916	1418227	WORD_OFF	n/a	n/a	WEB	2	8	[0, 0, 0]	n/a	FR1	1	R1390M
1147.081	1.6	1419146	WORD	n/a	n/a	VEST	3	8	[0, 0, 0]	n/a	FR1	1	R1390M
1148.681	1.0	1420744	WORD_OFF	n/a	n/a	VEST	3	8	[0, 0, 0]	n/a	FR1	1	R1390M
1149.681	1.617	1421736	WORD	n/a	n/a	SKY	4	8	[0, 0, 0]	n/a	FR1	1	R1390M
1151.298	0.851	1423352	WORD_OFF	n/a	n/a	SKY	4	8	[0, 0, 0]	n/a	FR1	1	R1390M
1152.149	1.616	1424216	WORD	n/a	n/a	SHED	5	8	[0, 0, 0]	n/a	FR1	1	R1390M
1153.765	1.0	1425832	WORD_OFF	n/a	n/a	SHED	5	8	[0, 0, 0]	n/a	FR1	1	R1390M
1154.765	1.617	1426824	WORD	n/a	n/a	CHILD	6	8	[0, 0, 0]	n/a	FR1	1	R1390M
1156.382	0.85	1428441	WORD_OFF	n/a	n/a	CHILD	6	8	[0, 0, 0]	n/a	FR1	1	R1390M
1157.232	1.6	1429286	WORD	n/a	n/a	MEAT	7	8	[0, 0, 0]	n/a	FR1	1	R1390M
1158.832	0.917	1430884	WORD_OFF	n/a	n/a	MEAT	7	8	[0, 0, 0]	n/a	FR1	1	R1390M
1159.749	1.6	1431803	WORD	n/a	n/a	SMILE	8	8	[0, 0, 0]	n/a	FR1	1	R1390M
1161.349	0.783	1433401	WORD_OFF	n/a	n/a	SMILE	8	8	[0, 0, 0]	n/a	FR1	1	R1390M
1162.132	1.6	1434191	WORD	n/a	n/a	COIN	9	8	[0, 0, 0]	n/a	FR1	1	R1390M
1163.732	0.899	1435789	WORD_OFF	n/a	n/a	COIN	9	8	[0, 0, 0]	n/a	FR1	1	R1390M
1164.631	1.601	1436689	WORD	n/a	n/a	STAIR	10	8	[0, 0, 0]	n/a	FR1	1	R1390M
1166.232	0.933	1438288	WORD_OFF	n/a	n/a	STAIR	10	8	[0, 0, 0]	n/a	FR1	1	R1390M
1167.165	1.617	1439224	WORD	n/a	n/a	BAT	11	8	[0, 0, 0]	n/a	FR1	1	R1390M
1168.782	0.867	1440841	WORD_OFF	n/a	n/a	BAT	11	8	[0, 0, 0]	n/a	FR1	1	R1390M
1169.649	1.617	1441704	WORD	n/a	n/a	SLUSH	12	8	[0, 0, 0]	n/a	FR1	1	R1390M
1171.266	0.001	1443321	WORD_OFF	n/a	n/a	SLUSH	12	8	[0, 0, 0]	n/a	FR1	1	R1390M
1171.267	0.0	1443321	ENCODING_END	n/a	n/a	n/a	-999	8	[0, 0, 0]	n/a	FR1	1	R1390M
1171.267	0.0	1443321	DISTRACT_START	n/a	n/a	n/a	-999	8	[0, 0, 0]	n/a	FR1	1	R1390M
1171.266	0.001	1443324	PROB	0.001	n/a	n/a	-999	8	[8, 3, 7]	18	FR1	1	R1390M
1171.267	6.499	1443325	START	n/a	n/a	n/a	-999	8	[-999, -999, -999]	n/a	FR1	1	R1390M
1177.766	5.9	1449824	PROB	5.9	n/a	n/a	-999	8	[1, 5, 7]	13	FR1	1	R1390M
1183.666	7.2	1455724	PROB	7.2	n/a	n/a	-999	8	[1, 2, 4]	7	FR1	1	R1390M
1190.866	6.35	1462923	PROB	6.35	n/a	n/a	-999	8	[4, 2, 5]	11	FR1	1	R1390M
1197.216	0.0	1469273	STOP	n/a	n/a	n/a	-999	8	[-999, -999, -999]	n/a	FR1	1	R1390M
1197.216	1.232	1469278	DISTRACT_END	n/a	n/a	n/a	-999	8	[0, 0, 0]	n/a	FR1	1	R1390M
1198.448	2.109	1470509	REC_START	n/a	n/a	n/a	-999	8	[0, 0, 0]	n/a	FR1	1	R1390M
1200.557	0.89	1472614	REC_WORD	0.89	n/a	COIN	9	8	[0, 0, 0]	n/a	FR1	1	R1390M
1201.447	23.204	1473504	REC_WORD	23.204	n/a	CHILD	6	8	[0, 0, 0]	n/a	FR1	1	R1390M
1224.651	4.067	1496706	REC_WORD	4.067	n/a	COIN	9	8	[0, 0, 0]	n/a	FR1	1	R1390M
1228.718	7.881	1500784	REC_END	n/a	n/a	n/a	-999	8	[0, 0, 0]	n/a	FR1	1	R1390M
1236.599	10.35	1508664	COUNTDOWN_START	n/a	n/a	n/a	-999	9	[0, 0, 0]	n/a	FR1	1	R1390M
1246.949	0.001	1519007	COUNTDOWN_END	n/a	n/a	n/a	-999	9	[0, 0, 0]	n/a	FR1	1	R1390M
1246.95	1.932	1519007	ENCODING_START	n/a	n/a	n/a	-999	9	[0, 0, 0]	n/a	FR1	1	R1390M
1248.882	1.616	1520936	WORD	n/a	n/a	PLATE	1	9	[0, 0, 0]	n/a	FR1	1	R1390M
1250.498	0.934	1522552	WORD_OFF	n/a	n/a	PLATE	1	9	[0, 0, 0]	n/a	FR1	1	R1390M
1251.432	1.616	1523489	WORD	n/a	n/a	CLIFF	2	9	[0, 0, 0]	n/a	FR1	1	R1390M
1253.048	0.85	1525106	WORD_OFF	n/a	n/a	CLIFF	2	9	[0, 0, 0]	n/a	FR1	1	R1390M
1253.898	1.617	1525951	WORD	n/a	n/a	SKIN	3	9	[0, 0, 0]	n/a	FR1	1	R1390M
1255.515	0.8	1527567	WORD_OFF	n/a	n/a	SKIN	3	9	[0, 0, 0]	n/a	FR1	1	R1390M
1256.315	1.617	1528376	WORD	n/a	n/a	WORM	4	9	[0, 0, 0]	n/a	FR1	1	R1390M
1257.932	0.799	1529992	WORD_OFF	n/a	n/a	WORM	4	9	[0, 0, 0]	n/a	FR1	1	R1390M
1258.731	1.601	1530782	WORD	n/a	n/a	PRIZE	5	9	[0, 0, 0]	n/a	FR1	1	R1390M
1260.332	0.867	1532380	WORD_OFF	n/a	n/a	PRIZE	5	9	[0, 0, 0]	n/a	FR1	1	R1390M
1261.199	1.6	1533262	WORD	n/a	n/a	GOLD	6	9	[0, 0, 0]	n/a	FR1	1	R1390M
1262.799	0.983	1534860	WORD_OFF	n/a	n/a	GOLD	6	9	[0, 0, 0]	n/a	FR1	1	R1390M
1263.782	1.6	1535834	WORD	n/a	n/a	FOOD	7	9	[0, 0, 0]	n/a	FR1	1	R1390M
1265.382	0.833	1537432	WORD_OFF	n/a	n/a	FOOD	7	9	[0, 0, 0]	n/a	FR1	1	R1390M
1266.215	1.6	1538277	WORD	n/a	n/a	FRUIT	8	9	[0, 0, 0]	n/a	FR1	1	R1390M
1267.815	0.784	1539876	WORD_OFF	n/a	n/a	FRUIT	8	9	[0, 0, 0]	n/a	FR1	1	R1390M
1268.599	1.6	1540647	WORD	n/a	n/a	VASE	9	9	[0, 0, 0]	n/a	FR1	1	R1390M
1270.199	0.95	1542245	WORD_OFF	n/a	n/a	VASE	9	9	[0, 0, 0]	n/a	FR1	1	R1390M
1271.149	1.6	1543201	WORD	n/a	n/a	BATH	10	9	[0, 0, 0]	n/a	FR1	1	R1390M
1272.749	0.966	1544799	WORD_OFF	n/a	n/a	BATH	10	9	[0, 0, 0]	n/a	FR1	1	R1390M
1273.715	1.6	1545772	WORD	n/a	n/a	PHONE	11	9	[0, 0, 0]	n/a	FR1	1	R1390M
1275.315	0.767	1547371	WORD_OFF	n/a	n/a	PHONE	11	9	[0, 0, 0]	n/a	FR1	1	R1390M
1276.082	1.6	1548142	WORD	n/a	n/a	BRANCH	12	9	[0, 0, 0]	n/a	FR1	1	R1390M
1277.682	0.002	1549735	PROB	0.002	n/a	n/a	-999	9	[6, 3, 4]	13	FR1	1	R1390M
1277.684	0.0	1549737	START	n/a	n/a	n/a	-999	9	[-999, -999, -999]	n/a	FR1	1	R1390M
1277.682	0.002	1549740	WORD_OFF	n/a	n/a	BRANCH	12	9	[0, 0, 0]	n/a	FR1	1	R1390M
1277.684	0.0	1549740	ENCODING_END	n/a	n/a	n/a	-999	9	[0, 0, 0]	n/a	FR1	1	R1390M
1277.684	7.332	1549740	DISTRACT_START	n/a	n/a	n/a	-999	9	[0, 0, 0]	n/a	FR1	1	R1390M
1285.016	5.7	1557068	PROB	5.7	n/a	n/a	-999	9	[7, 5, 3]	15	FR1	1	R1390M
1290.716	5.85	1562768	PROB	5.85	n/a	n/a	-999	9	[6, 7, 7]	20	FR1	1	R1390M
1296.566	6.033	1568618	PROB	6.033	n/a	n/a	-999	9	[6, 4, 5]	15	FR1	1	R1390M
1302.599	0.0	1574651	DISTRACT_END	n/a	n/a	n/a	-999	9	[0, 0, 0]	n/a	FR1	1	R1390M
1302.599	1.25	1574651	STOP	n/a	n/a	n/a	-999	9	[-999, -999, -999]	n/a	FR1	1	R1390M
1303.849	27.425	1575900	REC_START	n/a	n/a	n/a	-999	9	[0, 0, 0]	n/a	FR1	1	R1390M
1331.274	2.872	1603324	REC_WORD	2.872	n/a	VASE	9	9	[0, 0, 0]	n/a	FR1	1	R1390M
1334.146	9.152	1606193	REC_END	n/a	n/a	n/a	-999	9	[0, 0, 0]	n/a	FR1	1	R1390M
1343.298	10.35	1615359	COUNTDOWN_START	n/a	n/a	n/a	-999	10	[0, 0, 0]	n/a	FR1	1	R1390M
1353.648	0.001	1625702	COUNTDOWN_END	n/a	n/a	n/a	-999	10	[0, 0, 0]	n/a	FR1	1	R1390M
1353.649	2.066	1625702	ENCODING_START	n/a	n/a	n/a	-999	10	[0, 0, 0]	n/a	FR1	1	R1390M
1355.715	1.6	1627759	WORD	n/a	n/a	PORK	1	10	[0, 0, 0]	n/a	FR1	1	R1390M
1357.315	0.8	1629358	WORD_OFF	n/a	n/a	PORK	1	10	[0, 0, 0]	n/a	FR1	1	R1390M
1358.115	1.601	1630166	WORD	n/a	n/a	FORT	2	10	[0, 0, 0]	n/a	FR1	1	R1390M
1359.716	0.966	1631764	WORD_OFF	n/a	n/a	FORT	2	10	[0, 0, 0]	n/a	FR1	1	R1390M
1360.682	1.601	1632738	WORD	n/a	n/a	TRASH	3	10	[0, 0, 0]	n/a	FR1	1	R1390M
1362.283	0.817	1634336	WORD_OFF	n/a	n/a	TRASH	3	10	[0, 0, 0]	n/a	FR1	1	R1390M
1363.1	1.6	1635144	WORD	n/a	n/a	SLIME	4	10	[0, 0, 0]	n/a	FR1	1	R1390M
1364.7	0.933	1636742	WORD_OFF	n/a	n/a	SLIME	4	10	[0, 0, 0]	n/a	FR1	1	R1390M
1365.633	1.615	1637679	WORD	n/a	n/a	PALM	5	10	[0, 0, 0]	n/a	FR1	1	R1390M
1367.248	0.851	1639296	WORD_OFF	n/a	n/a	PALM	5	10	[0, 0, 0]	n/a	FR1	1	R1390M
1368.099	1.6	1640141	WORD	n/a	n/a	GUN	6	10	[0, 0, 0]	n/a	FR1	1	R1390M
1369.699	0.9	1641758	WORD_OFF	n/a	n/a	GUN	6	10	[0, 0, 0]	n/a	FR1	1	R1390M
1370.599	1.615	1642639	WORD	n/a	n/a	CROWN	7	10	[0, 0, 0]	n/a	FR1	1	R1390M
1372.214	0.985	1644256	WORD_OFF	n/a	n/a	CROWN	7	10	[0, 0, 0]	n/a	FR1	1	R1390M
1373.199	1.6	1645248	WORD	n/a	n/a	SNAIL	8	10	[0, 0, 0]	n/a	FR1	1	R1390M
1374.799	0.983	1646846	WORD_OFF	n/a	n/a	SNAIL	8	10	[0, 0, 0]	n/a	FR1	1	R1390M
1375.782	1.6	1647838	WORD	n/a	n/a	ROCK	9	10	[0, 0, 0]	n/a	FR1	1	R1390M
1377.382	0.767	1649436	WORD_OFF	n/a	n/a	ROCK	9	10	[0, 0, 0]	n/a	FR1	1	R1390M
1378.149	1.6	1650190	WORD	n/a	n/a	GLOBE	10	10	[0, 0, 0]	n/a	FR1	1	R1390M
1379.749	0.8	1651806	WORD_OFF	n/a	n/a	GLOBE	10	10	[0, 0, 0]	n/a	FR1	1	R1390M
1380.549	1.617	1652596	WORD	n/a	n/a	MOUTH	11	10	[0, 0, 0]	n/a	FR1	1	R1390M
1382.166	0.833	1654213	WORD_OFF	n/a	n/a	MOUTH	11	10	[0, 0, 0]	n/a	FR1	1	R1390M
1382.999	1.6	1655039	WORD	n/a	n/a	THROAT	12	10	[0, 0, 0]	n/a	FR1	1	R1390M
1384.599	0.002	1656646	PROB	0.002	n/a	n/a	-999	10	[7, 1, 3]	11	FR1	1	R1390M
1384.601	0.0	1656648	START	n/a	n/a	n/a	-999	10	[-999, -999, -999]	n/a	FR1	1	R1390M
1384.599	0.001	1656656	WORD_OFF	n/a	n/a	THROAT	12	10	[0, 0, 0]	n/a	FR1	1	R1390M
1384.6	0.001	1656656	ENCODING_END	n/a	n/a	n/a	-999	10	[0, 0, 0]	n/a	FR1	1	R1390M
1384.601	4.949	1656656	DISTRACT_START	n/a	n/a	n/a	-999	10	[0, 0, 0]	n/a	FR1	1	R1390M
1389.55	3.983	1661597	PROB	3.983	n/a	n/a	-999	10	[6, 2, 4]	12	FR1	1	R1390M
1393.533	6.999	1665580	PROB	6.999	n/a	n/a	-999	10	[8, 6, 7]	21	FR1	1	R1390M
1400.532	7.65	1672579	PROB	7.65	n/a	n/a	-999	10	[4, 8, 3]	15	FR1	1	R1390M
1408.182	0.0	1680225	DISTRACT_END	n/a	n/a	n/a	-999	10	[0, 0, 0]	n/a	FR1	1	R1390M
1408.182	1.033	1680228	STOP	n/a	n/a	n/a	-999	10	[-999, -999, -999]	n/a	FR1	1	R1390M
1409.215	2.074	1681254	REC_START	n/a	n/a	n/a	-999	10	[0, 0, 0]	n/a	FR1	1	R1390M
1411.289	1.967	1683335	REC_WORD	1.967	n/a	THROAT	12	10	[0, 0, 0]	n/a	FR1	1	R1390M
1413.256	1.35	1685302	REC_WORD	1.35	n/a	MOUTH	11	10	[0, 0, 0]	n/a	FR1	1	R1390M
1414.606	24.884	1686652	REC_WORD	24.884	n/a	GLOBE	10	10	[0, 0, 0]	n/a	FR1	1	R1390M
1439.49	27.158	1711528	REC_END	n/a	n/a	n/a	-999	10	[0, 0, 0]	n/a	FR1	1	R1390M
1466.648	10.352	1738698	COUNTDOWN_START	n/a	n/a	n/a	-999	11	[0, 0, 0]	n/a	FR1	1	R1390M
1477.0	0.0	1749040	COUNTDOWN_END	n/a	n/a	n/a	-999	11	[0, 0, 0]	n/a	FR1	1	R1390M
1477.0	2.032	1749040	ENCODING_START	n/a	n/a	n/a	-999	11	[0, 0, 0]	n/a	FR1	1	R1390M
1479.032	1.617	1751079	WORD	n/a	n/a	STEAK	1	11	[0, 0, 0]	n/a	FR1	1	R1390M
1480.649	0.899	1752696	WORD_OFF	n/a	n/a	STEAK	1	11	[0, 0, 0]	n/a	FR1	1	R1390M
1481.548	1.601	1753596	WORD	n/a	n/a	JAR	2	11	[0, 0, 0]	n/a	FR1	1	R1390M
1483.149	0.783	1755194	WORD_OFF	n/a	n/a	JAR	2	11	[0, 0, 0]	n/a	FR1	1	R1390M
1483.932	1.6	1755984	WORD	n/a	n/a	SHELL	3	11	[0, 0, 0]	n/a	FR1	1	R1390M
1485.532	0.8	1757583	WORD_OFF	n/a	n/a	SHELL	3	11	[0, 0, 0]	n/a	FR1	1	R1390M
1486.332	1.6	1758372	WORD	n/a	n/a	DOG	4	11	[0, 0, 0]	n/a	FR1	1	R1390M
1487.932	0.934	1759971	WORD_OFF	n/a	n/a	DOG	4	11	[0, 0, 0]	n/a	FR1	1	R1390M
1488.866	1.616	1760908	WORD	n/a	n/a	EEL	5	11	[0, 0, 0]	n/a	FR1	1	R1390M
1490.482	0.884	1762524	WORD_OFF	n/a	n/a	EEL	5	11	[0, 0, 0]	n/a	FR1	1	R1390M
1491.366	1.616	1763406	WORD	n/a	n/a	SHIELD	6	11	[0, 0, 0]	n/a	FR1	1	R1390M
1492.982	0.834	1765023	WORD_OFF	n/a	n/a	SHIELD	6	11	[0, 0, 0]	n/a	FR1	1	R1390M
1493.816	1.616	1765849	WORD	n/a	n/a	YARD	7	11	[0, 0, 0]	n/a	FR1	1	R1390M
1495.432	0.784	1767466	WORD_OFF	n/a	n/a	YARD	7	11	[0, 0, 0]	n/a	FR1	1	R1390M
1496.216	1.599	1768256	WORD	n/a	n/a	THUMB	8	11	[0, 0, 0]	n/a	FR1	1	R1390M
1497.815	0.817	1769854	WORD_OFF	n/a	n/a	THUMB	8	11	[0, 0, 0]	n/a	FR1	1	R1390M
1498.632	1.6	1770681	WORD	n/a	n/a	SWORD	9	11	[0, 0, 0]	n/a	FR1	1	R1390M
1500.232	0.817	1772279	WORD_OFF	n/a	n/a	SWORD	9	11	[0, 0, 0]	n/a	FR1	1	R1390M
1501.049	1.617	1773087	WORD	n/a	n/a	HAIR	10	11	[0, 0, 0]	n/a	FR1	1	R1390M
1502.666	0.999	1774704	WORD_OFF	n/a	n/a	HAIR	10	11	[0, 0, 0]	n/a	FR1	1	R1390M
1503.665	1.601	1775714	WORD	n/a	n/a	DEER	11	11	[0, 0, 0]	n/a	FR1	1	R1390M
1505.266	0.8	1777312	WORD_OFF	n/a	n/a	DEER	11	11	[0, 0, 0]	n/a	FR1	1	R1390M
1506.066	1.6	1778102	WORD	n/a	n/a	DRAIN	12	11	[0, 0, 0]	n/a	FR1	1	R1390M
1507.666	0.001	1779700	WORD_OFF	n/a	n/a	DRAIN	12	11	[0, 0, 0]	n/a	FR1	1	R1390M
1507.667	0.0	1779708	PROB	0.0	n/a	n/a	-999	11	[4, 1, 6]	11	FR1	1	R1390M
1507.667	0.0	1779708	START	n/a	n/a	n/a	-999	11	[-999, -999, -999]	n/a	FR1	1	R1390M
1507.667	0.0	1779719	ENCODING_END	n/a	n/a	n/a	-999	11	[0, 0, 0]	n/a	FR1	1	R1390M
1507.667	12.698	1779719	DISTRACT_START	n/a	n/a	n/a	-999	11	[0, 0, 0]	n/a	FR1	1	R1390M
1520.365	8.867	1792406	PROB	8.867	n/a	n/a	-999	11	[7, 7, 5]	19	FR1	1	R1390M
1529.232	0.0	1801267	DISTRACT_END	n/a	n/a	n/a	-999	11	[0, 0, 0]	n/a	FR1	1	R1390M
1529.232	1.35	1801272	STOP	n/a	n/a	n/a	-999	11	[-999, -999, -999]	n/a	FR1	1	R1390M
1530.582	2.769	1802627	REC_START	n/a	n/a	n/a	-999	11	[0, 0, 0]	n/a	FR1	1	R1390M
1533.351	5.8	1805391	REC_WORD_VV	5.8	n/a	<>	-999	11	[0, 0, 0]	n/a	FR1	1	R1390M
1539.151	2.802	1811191	REC_WORD	2.802	n/a	DOG	4	11	[0, 0, 0]	n/a	FR1	1	R1390M
1541.953	18.897	1813993	REC_WORD	18.897	n/a	YARD	7	11	[0, 0, 0]	n/a	FR1	1	R1390M
1560.85	7.365	1832883	REC_END	n/a	n/a	n/a	-999	11	[0, 0, 0]	n/a	FR1	1	R1390M
1568.215	10.35	1840249	COUNTDOWN_START	n/a	n/a	n/a	-999	12	[0, 0, 0]	n/a	FR1	1	R1390M
1578.565	0.0	1850610	COUNTDOWN_END	n/a	n/a	n/a	-999	12	[0, 0, 0]	n/a	FR1	1	R1390M
1578.565	2.251	1850610	ENCODING_START	n/a	n/a	n/a	-999	12	[0, 0, 0]	n/a	FR1	1	R1390M
1580.816	1.616	1852851	WORD	n/a	n/a	KNOB	1	12	[0, 0, 0]	n/a	FR1	1	R1390M
1582.432	0.867	1854468	WORD_OFF	n/a	n/a	KNOB	1	12	[0, 0, 0]	n/a	FR1	1	R1390M
1583.299	1.6	1855331	WORD	n/a	n/a	BOOT	2	12	[0, 0, 0]	n/a	FR1	1	R1390M
1584.899	0.767	1856929	WORD_OFF	n/a	n/a	BOOT	2	12	[0, 0, 0]	n/a	FR1	1	R1390M
1585.666	1.615	1857701	WORD	n/a	n/a	FROG	3	12	[0, 0, 0]	n/a	FR1	1	R1390M
1587.281	0.768	1859318	WORD_OFF	n/a	n/a	FROG	3	12	[0, 0, 0]	n/a	FR1	1	R1390M
1588.049	1.617	1860089	WORD	n/a	n/a	POND	4	12	[0, 0, 0]	n/a	FR1	1	R1390M
1589.666	0.8	1861706	WORD_OFF	n/a	n/a	POND	4	12	[0, 0, 0]	n/a	FR1	1	R1390M
1590.466	1.599	1862496	WORD	n/a	n/a	GRASS	5	12	[0, 0, 0]	n/a	FR1	1	R1390M
1592.065	0.801	1864112	WORD_OFF	n/a	n/a	GRASS	5	12	[0, 0, 0]	n/a	FR1	1	R1390M
1592.866	1.616	1864902	WORD	n/a	n/a	CHIEF	6	12	[0, 0, 0]	n/a	FR1	1	R1390M
1594.482	0.783	1866519	WORD_OFF	n/a	n/a	CHIEF	6	12	[0, 0, 0]	n/a	FR1	1	R1390M
1595.265	1.617	1867309	WORD	n/a	n/a	SUN	7	12	[0, 0, 0]	n/a	FR1	1	R1390M
1596.882	0.833	1868925	WORD_OFF	n/a	n/a	SUN	7	12	[0, 0, 0]	n/a	FR1	1	R1390M
1597.715	1.601	1869752	WORD	n/a	n/a	STORM	8	12	[0, 0, 0]	n/a	FR1	1	R1390M
1599.316	0.883	1871350	WORD_OFF	n/a	n/a	STORM	8	12	[0, 0, 0]	n/a	FR1	1	R1390M
1600.199	1.6	1872232	WORD	n/a	n/a	SUIT	9	12	[0, 0, 0]	n/a	FR1	1	R1390M
1601.799	0.767	1873830	WORD_OFF	n/a	n/a	SUIT	9	12	[0, 0, 0]	n/a	FR1	1	R1390M
1602.566	1.616	1874602	WORD	n/a	n/a	INK	10	12	[0, 0, 0]	n/a	FR1	1	R1390M
1604.182	1.0	1876218	WORD_OFF	n/a	n/a	INK	10	12	[0, 0, 0]	n/a	FR1	1	R1390M
1605.182	1.617	1877210	WORD	n/a	n/a	MOON	11	12	[0, 0, 0]	n/a	FR1	1	R1390M
1606.799	0.8	1878845	WORD_OFF	n/a	n/a	MOON	11	12	[0, 0, 0]	n/a	FR1	1	R1390M
1607.599	1.6	1879635	WORD	n/a	n/a	BEEF	12	12	[0, 0, 0]	n/a	FR1	1	R1390M
1609.199	0.001	1881233	WORD_OFF	n/a	n/a	BEEF	12	12	[0, 0, 0]	n/a	FR1	1	R1390M
1609.2	0.0	1881233	ENCODING_END	n/a	n/a	n/a	-999	12	[0, 0, 0]	n/a	FR1	1	R1390M
1609.2	0.0	1881233	DISTRACT_START	n/a	n/a	n/a	-999	12	[0, 0, 0]	n/a	FR1	1	R1390M
1609.199	0.001	1881235	PROB	0.001	n/a	n/a	-999	12	[2, 2, 5]	9	FR1	1	R1390M
1609.2	6.266	1881236	START	n/a	n/a	n/a	-999	12	[-999, -999, -999]	n/a	FR1	1	R1390M
1615.466	7.416	1887502	PROB	7.416	n/a	n/a	-999	12	[8, 4, 7]	19	FR1	1	R1390M
1622.882	5.95	1894917	PROB	5.95	n/a	n/a	-999	12	[5, 8, 5]	18	FR1	1	R1390M
1628.832	3.8	1900867	PROB	3.8	n/a	n/a	-999	12	[2, 5, 2]	9	FR1	1	R1390M
1632.632	0.0	1904667	STOP	n/a	n/a	n/a	-999	12	[-999, -999, -999]	n/a	FR1	1	R1390M
1632.632	1.3	1904674	DISTRACT_END	n/a	n/a	n/a	-999	12	[0, 0, 0]	n/a	FR1	1	R1390M
1633.932	12.637	1905960	REC_START	n/a	n/a	n/a	-999	12	[0, 0, 0]	n/a	FR1	1	R1390M
1646.569	17.651	1918603	REC_WORD	17.651	n/a	INK	10	12	[0, 0, 0]	n/a	FR1	1	R1390M
1664.22	0.0	1936253	REC_END	n/a	n/a	n/a	-999	12	[0, 0, 0]	n/a	FR1	1	R1390M
