onset	duration	sample	trial_type	response_time	stim_file	item_name	serialpos	list	test	answer	experiment	session	subject
0.0	1011.235	-1	INSTRUCT_START	n/a	n/a	n/a	-999	-999	[0, 0, 0]	n/a	FR1	3	R1275D
1011.235	341.962	-1	INSTRUCT_START	n/a	n/a	n/a	-999	-999	[0, 0, 0]	n/a	FR1	3	R1275D
1353.197	40.853	1419	INSTRUCT_START	n/a	n/a	n/a	-999	-999	[0, 0, 0]	n/a	FR1	3	R1275D
1394.05	1.5	42270	INSTRUCT_END	n/a	n/a	n/a	-999	-999	[0, 0, 0]	n/a	FR1	3	R1275D
1395.55	8.3	43770	MIC TEST_START	n/a	n/a	n/a	-999	-999	[0, 0, 0]	n/a	FR1	3	R1275D
1403.85	0.01	52070	MIC TEST_END	n/a	n/a	n/a	-999	-999	[0, 0, 0]	n/a	FR1	3	R1275D
1403.86	0.001	52080	TRIAL_START	n/a	n/a	n/a	-999	-1	[0, 0, 0]	n/a	FR1	3	R1275D
1403.861	0.0	52081	WAITING_START	n/a	n/a	n/a	-999	-1	[0, 0, 0]	n/a	FR1	3	R1275D
1403.861	1.224	52081	TRIAL	n/a	n/a	n/a	-999	-1	[0, 0, 0]	n/a	FR1	3	R1275D
1405.085	0.0	53305	WAITING_END	n/a	n/a	n/a	-999	-1	[0, 0, 0]	n/a	FR1	3	R1275D
1405.085	10.43	53305	COUNTDOWN_START	n/a	n/a	n/a	-999	-1	[0, 0, 0]	n/a	FR1	3	R1275D
1415.515	0.0	63734	COUNTDOWN_END	n/a	n/a	n/a	-999	-1	[0, 0, 0]	n/a	FR1	3	R1275D
1415.515	1.105	63734	ORIENT_START	n/a	n/a	n/a	-999	-1	[0, 0, 0]	n/a	FR1	3	R1275D
1416.62	0.001	64839	ORIENT_END	n/a	n/a	n/a	-999	-1	[0, 0, 0]	n/a	FR1	3	R1275D
1416.621	0.873	64840	ENCODING_START	n/a	n/a	n/a	-999	-1	[0, 0, 0]	n/a	FR1	3	R1275D
1417.494	1.627	65713	WORD	n/a	n/a	WAGON	1	-1	[0, 0, 0]	n/a	FR1	3	R1275D
1419.121	0.868	67340	WORD_OFF	n/a	n/a	WAGON	1	-1	[0, 0, 0]	n/a	FR1	3	R1275D
1419.989	1.632	68208	WORD	n/a	n/a	RING	2	-1	[0, 0, 0]	n/a	FR1	3	R1275D
1421.621	1.14	69840	WORD_OFF	n/a	n/a	RING	2	-1	[0, 0, 0]	n/a	FR1	3	R1275D
1422.761	1.627	70980	WORD	n/a	n/a	WATCH	3	-1	[0, 0, 0]	n/a	FR1	3	R1275D
1424.388	0.989	72607	WORD_OFF	n/a	n/a	WATCH	3	-1	[0, 0, 0]	n/a	FR1	3	R1275D
1425.377	1.629	73596	WORD	n/a	n/a	CAMEL	4	-1	[0, 0, 0]	n/a	FR1	3	R1275D
1427.006	0.759	75224	WORD_OFF	n/a	n/a	CAMEL	4	-1	[0, 0, 0]	n/a	FR1	3	R1275D
1427.765	1.624	75983	WORD	n/a	n/a	COTTON	5	-1	[0, 0, 0]	n/a	FR1	3	R1275D
1429.389	0.898	77607	WORD_OFF	n/a	n/a	COTTON	5	-1	[0, 0, 0]	n/a	FR1	3	R1275D
1430.287	1.637	78505	WORD	n/a	n/a	BEAM	6	-1	[0, 0, 0]	n/a	FR1	3	R1275D
1431.924	0.814	80142	WORD_OFF	n/a	n/a	BEAM	6	-1	[0, 0, 0]	n/a	FR1	3	R1275D
1432.738	1.635	80956	WORD	n/a	n/a	RHINO	7	-1	[0, 0, 0]	n/a	FR1	3	R1275D
1434.373	0.851	82591	WORD_OFF	n/a	n/a	RHINO	7	-1	[0, 0, 0]	n/a	FR1	3	R1275D
1435.224	1.634	83442	WORD	n/a	n/a	CHEST	8	-1	[0, 0, 0]	n/a	FR1	3	R1275D
1436.858	1.0	85076	WORD_OFF	n/a	n/a	CHEST	8	-1	[0, 0, 0]	n/a	FR1	3	R1275D
1437.858	1.633	86076	WORD	n/a	n/a	TONGUE	9	-1	[0, 0, 0]	n/a	FR1	3	R1275D
1439.491	1.126	87709	WORD_OFF	n/a	n/a	TONGUE	9	-1	[0, 0, 0]	n/a	FR1	3	R1275D
1440.617	1.625	88835	WORD	n/a	n/a	BABY	10	-1	[0, 0, 0]	n/a	FR1	3	R1275D
1442.242	0.928	90460	WORD_OFF	n/a	n/a	BABY	10	-1	[0, 0, 0]	n/a	FR1	3	R1275D
1443.17	1.623	91388	WORD	n/a	n/a	IMAGE	11	-1	[0, 0, 0]	n/a	FR1	3	R1275D
1444.793	0.89	93011	WORD_OFF	n/a	n/a	IMAGE	11	-1	[0, 0, 0]	n/a	FR1	3	R1275D
1445.683	1.626	93901	WORD	n/a	n/a	FLOOD	12	-1	[0, 0, 0]	n/a	FR1	3	R1275D
1447.309	0.001	95526	WORD_OFF	n/a	n/a	FLOOD	12	-1	[0, 0, 0]	n/a	FR1	3	R1275D
1447.31	0.0	95527	ENCODING_END	n/a	n/a	n/a	-999	-1	[0, 0, 0]	n/a	FR1	3	R1275D
1447.31	0.0	95527	DISTRACT_START	n/a	n/a	n/a	-999	-1	[0, 0, 0]	n/a	FR1	3	R1275D
1447.31	0.016	95527	START	n/a	n/a	n/a	-999	-1	[-999, -999, -999]	n/a	FR1	3	R1275D
1447.326	3.384	95543	PROB	3.384	n/a	n/a	-999	-1	[1, 3, 5]	9	FR1	3	R1275D
1450.71	5.517	98927	PROB	5.517	n/a	n/a	-999	-1	[3, 9, 8]	20	FR1	3	R1275D
1456.227	5.351	104444	PROB	5.351	n/a	n/a	-999	-1	[5, 2, 8]	15	FR1	3	R1275D
1461.578	4.985	109795	PROB	4.985	n/a	n/a	-999	-1	[2, 7, 6]	15	FR1	3	R1275D
1466.563	3.478	114780	PROB	3.478	n/a	n/a	-999	-1	[2, 3, 6]	11	FR1	3	R1275D
1470.041	0.022	118257	STOP	n/a	n/a	n/a	-999	-1	[-999, -999, -999]	n/a	FR1	3	R1275D
1470.063	0.51	118279	DISTRACT_END	n/a	n/a	n/a	-999	-1	[0, 0, 0]	n/a	FR1	3	R1275D
1470.573	1.624	118789	RETRIEVAL_ORIENT_START	n/a	n/a	n/a	-999	-1	[0, 0, 0]	n/a	FR1	3	R1275D
1472.197	0.0	120413	REC_START	n/a	n/a	n/a	-999	-1	[0, 0, 0]	n/a	FR1	3	R1275D
1472.197	0.575	120413	RETRIEVAL_ORIENT_END	n/a	n/a	n/a	-999	-1	[0, 0, 0]	n/a	FR1	3	R1275D
1472.772	1.061	120988	REC_WORD	1.061	n/a	COTTON	5	-1	[0, 0, 0]	n/a	FR1	3	R1275D
1473.833	0.991	122049	REC_WORD	0.991	n/a	BEAM	6	-1	[0, 0, 0]	n/a	FR1	3	R1275D
1474.824	0.888	123040	REC_WORD	0.888	n/a	RHINO	7	-1	[0, 0, 0]	n/a	FR1	3	R1275D
1475.712	26.496	123928	REC_WORD	26.496	n/a	CAMEL	4	-1	[0, 0, 0]	n/a	FR1	3	R1275D
1502.208	0.0	150423	REC_END	n/a	n/a	n/a	-999	-1	[0, 0, 0]	n/a	FR1	3	R1275D
1502.208	8.78	150423	PRACTICE_POST_INSTRUCT_START	n/a	n/a	n/a	-999	-1	[0, 0, 0]	n/a	FR1	3	R1275D
1510.988	0.0	159202	PRACTICE_POST_INSTRUCT_END	n/a	n/a	n/a	-999	-1	[0, 0, 0]	n/a	FR1	3	R1275D
1510.988	0.017	159202	TRIAL_END	n/a	n/a	n/a	-999	-1	[0, 0, 0]	n/a	FR1	3	R1275D
1511.005	0.001	159219	TRIAL_START	n/a	n/a	n/a	-999	1	[0, 0, 0]	n/a	FR1	3	R1275D
1511.006	0.0	159220	TRIAL	n/a	n/a	n/a	-999	1	[0, 0, 0]	n/a	FR1	3	R1275D
1511.006	1.965	159220	WAITING_START	n/a	n/a	n/a	-999	1	[0, 0, 0]	n/a	FR1	3	R1275D
1512.971	0.001	161185	WAITING_END	n/a	n/a	n/a	-999	1	[0, 0, 0]	n/a	FR1	3	R1275D
1512.972	10.43	161186	COUNTDOWN_START	n/a	n/a	n/a	-999	1	[0, 0, 0]	n/a	FR1	3	R1275D
1523.402	0.0	171616	COUNTDOWN_END	n/a	n/a	n/a	-999	1	[0, 0, 0]	n/a	FR1	3	R1275D
1523.402	1.055	171616	ORIENT_START	n/a	n/a	n/a	-999	1	[0, 0, 0]	n/a	FR1	3	R1275D
1524.457	0.0	172671	ORIENT_END	n/a	n/a	n/a	-999	1	[0, 0, 0]	n/a	FR1	3	R1275D
1524.457	1.127	172671	ENCODING_START	n/a	n/a	n/a	-999	1	[0, 0, 0]	n/a	FR1	3	R1275D
1525.584	1.623	173798	WORD	n/a	wordpools/wordpool_EN.txt	STEM	1	1	[0, 0, 0]	n/a	FR1	3	R1275D
1527.207	1.13	175421	WORD_OFF	n/a	n/a	STEM	1	1	[0, 0, 0]	n/a	FR1	3	R1275D
1528.337	1.637	176551	WORD	n/a	wordpools/wordpool_EN.txt	BOAT	2	1	[0, 0, 0]	n/a	FR1	3	R1275D
1529.974	0.875	178188	WORD_OFF	n/a	n/a	BOAT	2	1	[0, 0, 0]	n/a	FR1	3	R1275D
1530.849	1.626	179062	WORD	n/a	wordpools/wordpool_EN.txt	TANK	3	1	[0, 0, 0]	n/a	FR1	3	R1275D
1532.475	0.905	180688	WORD_OFF	n/a	n/a	TANK	3	1	[0, 0, 0]	n/a	FR1	3	R1275D
1533.38	1.628	181593	WORD	n/a	wordpools/wordpool_EN.txt	STRAW	4	1	[0, 0, 0]	n/a	FR1	3	R1275D
1535.008	0.911	183221	WORD_OFF	n/a	n/a	STRAW	4	1	[0, 0, 0]	n/a	FR1	3	R1275D
1535.919	1.623	184132	WORD	n/a	wordpools/wordpool_EN.txt	SHRIMP	5	1	[0, 0, 0]	n/a	FR1	3	R1275D
1537.542	0.786	185755	WORD_OFF	n/a	n/a	SHRIMP	5	1	[0, 0, 0]	n/a	FR1	3	R1275D
1538.328	1.631	186541	WORD	n/a	wordpools/wordpool_EN.txt	APE	6	1	[0, 0, 0]	n/a	FR1	3	R1275D
1539.959	1.128	188172	WORD_OFF	n/a	n/a	APE	6	1	[0, 0, 0]	n/a	FR1	3	R1275D
1541.087	1.623	189300	WORD	n/a	wordpools/wordpool_EN.txt	BANK	7	1	[0, 0, 0]	n/a	FR1	3	R1275D
1542.71	0.944	190923	WORD_OFF	n/a	n/a	BANK	7	1	[0, 0, 0]	n/a	FR1	3	R1275D
1543.654	1.623	191867	WORD	n/a	wordpools/wordpool_EN.txt	FLEA	8	1	[0, 0, 0]	n/a	FR1	3	R1275D
1545.277	1.072	193490	WORD_OFF	n/a	n/a	FLEA	8	1	[0, 0, 0]	n/a	FR1	3	R1275D
1546.349	1.628	194562	WORD	n/a	wordpools/wordpool_EN.txt	LOCK	9	1	[0, 0, 0]	n/a	FR1	3	R1275D
1547.977	0.979	196190	WORD_OFF	n/a	n/a	LOCK	9	1	[0, 0, 0]	n/a	FR1	3	R1275D
1548.956	1.639	197169	WORD	n/a	wordpools/wordpool_EN.txt	SWORD	10	1	[0, 0, 0]	n/a	FR1	3	R1275D
1550.595	1.062	198808	WORD_OFF	n/a	n/a	SWORD	10	1	[0, 0, 0]	n/a	FR1	3	R1275D
1551.657	1.621	199869	WORD	n/a	wordpools/wordpool_EN.txt	SEAT	11	1	[0, 0, 0]	n/a	FR1	3	R1275D
1553.278	0.79	201490	WORD_OFF	n/a	n/a	SEAT	11	1	[0, 0, 0]	n/a	FR1	3	R1275D
1554.068	1.628	202280	WORD	n/a	wordpools/wordpool_EN.txt	HOUSE	12	1	[0, 0, 0]	n/a	FR1	3	R1275D
1555.696	0.0	203908	WORD_OFF	n/a	n/a	HOUSE	12	1	[0, 0, 0]	n/a	FR1	3	R1275D
1555.696	0.0	203908	ENCODING_END	n/a	n/a	n/a	-999	1	[0, 0, 0]	n/a	FR1	3	R1275D
1555.696	0.001	203908	DISTRACT_START	n/a	n/a	n/a	-999	1	[0, 0, 0]	n/a	FR1	3	R1275D
1555.697	0.015	203909	START	n/a	n/a	n/a	-999	1	[-999, -999, -999]	n/a	FR1	3	R1275D
1555.712	4.818	203924	PROB	4.818	n/a	n/a	-999	1	[8, 7, 8]	23	FR1	3	R1275D
1560.53	4.517	208742	PROB	4.517	n/a	n/a	-999	1	[2, 1, 2]	5	FR1	3	R1275D
1565.047	4.118	213259	PROB	4.118	n/a	n/a	-999	1	[4, 9, 8]	21	FR1	3	R1275D
1569.165	2.768	217377	PROB	2.768	n/a	n/a	-999	1	[1, 1, 3]	5	FR1	3	R1275D
1571.933	4.798	220145	PROB	4.798	n/a	n/a	-999	1	[5, 1, 8]	14	FR1	3	R1275D
1576.731	0.018	224942	STOP	n/a	n/a	n/a	-999	1	[-999, -999, -999]	n/a	FR1	3	R1275D
1576.749	0.643	224960	DISTRACT_END	n/a	n/a	n/a	-999	1	[0, 0, 0]	n/a	FR1	3	R1275D
1577.392	1.724	225603	RETRIEVAL_ORIENT_START	n/a	n/a	n/a	-999	1	[0, 0, 0]	n/a	FR1	3	R1275D
1579.116	0.001	227327	RETRIEVAL_ORIENT_END	n/a	n/a	n/a	-999	1	[0, 0, 0]	n/a	FR1	3	R1275D
1579.117	0.336	227328	REC_START	n/a	n/a	n/a	-999	1	[0, 0, 0]	n/a	FR1	3	R1275D
1579.453	0.893	227664	REC_WORD	0.893	n/a	LOCK	9	1	[0, 0, 0]	n/a	FR1	3	R1275D
1580.346	6.634	228557	REC_WORD	6.634	n/a	STRAW	4	1	[0, 0, 0]	n/a	FR1	3	R1275D
1586.98	1.0	235191	REC_WORD_VV	1.0	n/a	<>	-999	1	[0, 0, 0]	n/a	FR1	3	R1275D
1587.98	0.083	236191	REC_WORD_VV	0.083	n/a	<>	-999	1	[0, 0, 0]	n/a	FR1	3	R1275D
1588.063	8.039	236274	REC_WORD	8.039	n/a	STRAW	4	1	[0, 0, 0]	n/a	FR1	3	R1275D
1596.102	1.0	244312	REC_WORD_VV	1.0	n/a	<>	-999	1	[0, 0, 0]	n/a	FR1	3	R1275D
1597.102	1.0	245312	REC_WORD_VV	1.0	n/a	<>	-999	1	[0, 0, 0]	n/a	FR1	3	R1275D
1598.102	11.029	246312	REC_WORD_VV	11.029	n/a	<>	-999	1	[0, 0, 0]	n/a	FR1	3	R1275D
1609.131	0.001	257341	REC_END	n/a	n/a	n/a	-999	1	[0, 0, 0]	n/a	FR1	3	R1275D
1609.132	0.014	257342	TRIAL_END	n/a	n/a	n/a	-999	1	[0, 0, 0]	n/a	FR1	3	R1275D
1609.146	0.001	257356	TRIAL_START	n/a	n/a	n/a	-999	2	[0, 0, 0]	n/a	FR1	3	R1275D
1609.147	0.0	257357	TRIAL	n/a	n/a	n/a	-999	2	[0, 0, 0]	n/a	FR1	3	R1275D
1609.147	1.492	257357	WAITING_START	n/a	n/a	n/a	-999	2	[0, 0, 0]	n/a	FR1	3	R1275D
1610.639	0.0	258849	WAITING_END	n/a	n/a	n/a	-999	2	[0, 0, 0]	n/a	FR1	3	R1275D
1610.639	10.429	258849	COUNTDOWN_START	n/a	n/a	n/a	-999	2	[0, 0, 0]	n/a	FR1	3	R1275D
1621.068	0.001	269277	COUNTDOWN_END	n/a	n/a	n/a	-999	2	[0, 0, 0]	n/a	FR1	3	R1275D
1621.069	1.055	269278	ORIENT_START	n/a	n/a	n/a	-999	2	[0, 0, 0]	n/a	FR1	3	R1275D
1622.124	0.001	270333	ORIENT_END	n/a	n/a	n/a	-999	2	[0, 0, 0]	n/a	FR1	3	R1275D
1622.125	0.91	270334	ENCODING_START	n/a	n/a	n/a	-999	2	[0, 0, 0]	n/a	FR1	3	R1275D
1623.035	1.623	271244	WORD	n/a	wordpools/wordpool_EN.txt	HAT	1	2	[0, 0, 0]	n/a	FR1	3	R1275D
1624.658	1.119	272867	WORD_OFF	n/a	n/a	HAT	1	2	[0, 0, 0]	n/a	FR1	3	R1275D
1625.777	1.632	273986	WORD	n/a	wordpools/wordpool_EN.txt	PANTS	2	2	[0, 0, 0]	n/a	FR1	3	R1275D
1627.409	1.062	275618	WORD_OFF	n/a	n/a	PANTS	2	2	[0, 0, 0]	n/a	FR1	3	R1275D
1628.471	1.638	276680	WORD	n/a	wordpools/wordpool_EN.txt	FOOD	3	2	[0, 0, 0]	n/a	FR1	3	R1275D
1630.109	0.802	278318	WORD_OFF	n/a	n/a	FOOD	3	2	[0, 0, 0]	n/a	FR1	3	R1275D
1630.911	1.632	279120	WORD	n/a	wordpools/wordpool_EN.txt	POOL	4	2	[0, 0, 0]	n/a	FR1	3	R1275D
1632.543	0.935	280752	WORD_OFF	n/a	n/a	POOL	4	2	[0, 0, 0]	n/a	FR1	3	R1275D
1633.478	1.632	281687	WORD	n/a	wordpools/wordpool_EN.txt	SOAP	5	2	[0, 0, 0]	n/a	FR1	3	R1275D
1635.11	1.133	283319	WORD_OFF	n/a	n/a	SOAP	5	2	[0, 0, 0]	n/a	FR1	3	R1275D
1636.243	1.618	284451	WORD	n/a	wordpools/wordpool_EN.txt	DUCK	6	2	[0, 0, 0]	n/a	FR1	3	R1275D
1637.861	0.935	286069	WORD_OFF	n/a	n/a	DUCK	6	2	[0, 0, 0]	n/a	FR1	3	R1275D
1638.796	1.632	287004	WORD	n/a	wordpools/wordpool_EN.txt	MOLE	7	2	[0, 0, 0]	n/a	FR1	3	R1275D
1640.428	1.036	288636	WORD_OFF	n/a	n/a	MOLE	7	2	[0, 0, 0]	n/a	FR1	3	R1275D
1641.464	1.631	289672	WORD	n/a	wordpools/wordpool_EN.txt	SHIRT	8	2	[0, 0, 0]	n/a	FR1	3	R1275D
1643.095	0.774	291303	WORD_OFF	n/a	n/a	SHIRT	8	2	[0, 0, 0]	n/a	FR1	3	R1275D
1643.869	1.626	292077	WORD	n/a	wordpools/wordpool_EN.txt	DRUM	9	2	[0, 0, 0]	n/a	FR1	3	R1275D
1645.495	1.032	293703	WORD_OFF	n/a	n/a	DRUM	9	2	[0, 0, 0]	n/a	FR1	3	R1275D
1646.527	1.635	294735	WORD	n/a	wordpools/wordpool_EN.txt	LAMB	10	2	[0, 0, 0]	n/a	FR1	3	R1275D
1648.162	0.816	296370	WORD_OFF	n/a	n/a	LAMB	10	2	[0, 0, 0]	n/a	FR1	3	R1275D
1648.978	1.635	297186	WORD	n/a	wordpools/wordpool_EN.txt	HEART	11	2	[0, 0, 0]	n/a	FR1	3	R1275D
1650.613	0.884	298821	WORD_OFF	n/a	n/a	HEART	11	2	[0, 0, 0]	n/a	FR1	3	R1275D
1651.497	1.633	299705	WORD	n/a	wordpools/wordpool_EN.txt	GLOVE	12	2	[0, 0, 0]	n/a	FR1	3	R1275D
1653.13	0.0	301338	WORD_OFF	n/a	n/a	GLOVE	12	2	[0, 0, 0]	n/a	FR1	3	R1275D
1653.13	0.001	301338	ENCODING_END	n/a	n/a	n/a	-999	2	[0, 0, 0]	n/a	FR1	3	R1275D
1653.131	0.0	301339	DISTRACT_START	n/a	n/a	n/a	-999	2	[0, 0, 0]	n/a	FR1	3	R1275D
1653.131	0.015	301339	START	n/a	n/a	n/a	-999	2	[-999, -999, -999]	n/a	FR1	3	R1275D
1653.146	3.867	301354	PROB	3.867	n/a	n/a	-999	2	[1, 6, 7]	14	FR1	3	R1275D
1657.013	3.502	305220	PROB	3.502	n/a	n/a	-999	2	[1, 7, 7]	15	FR1	3	R1275D
1660.515	6.217	308722	PROB	6.217	n/a	n/a	-999	2	[3, 2, 5]	10	FR1	3	R1275D
1666.732	3.268	314939	PROB	3.268	n/a	n/a	-999	2	[8, 3, 1]	12	FR1	3	R1275D
1670.0	4.112	318207	PROB	4.112	n/a	n/a	-999	2	[5, 7, 8]	20	FR1	3	R1275D
1674.112	0.022	322319	STOP	n/a	n/a	n/a	-999	2	[-999, -999, -999]	n/a	FR1	3	R1275D
1674.134	0.64	322341	DISTRACT_END	n/a	n/a	n/a	-999	2	[0, 0, 0]	n/a	FR1	3	R1275D
1674.774	1.577	322981	RETRIEVAL_ORIENT_START	n/a	n/a	n/a	-999	2	[0, 0, 0]	n/a	FR1	3	R1275D
1676.351	0.0	324558	RETRIEVAL_ORIENT_END	n/a	n/a	n/a	-999	2	[0, 0, 0]	n/a	FR1	3	R1275D
1676.351	0.554	324558	REC_START	n/a	n/a	n/a	-999	2	[0, 0, 0]	n/a	FR1	3	R1275D
1676.905	0.66	325112	REC_WORD	0.66	n/a	GLOVE	12	2	[0, 0, 0]	n/a	FR1	3	R1275D
1677.565	1.674	325771	REC_WORD	1.674	n/a	SHIRT	8	2	[0, 0, 0]	n/a	FR1	3	R1275D
1679.239	9.465	327445	REC_WORD	9.465	n/a	DRUM	9	2	[0, 0, 0]	n/a	FR1	3	R1275D
1688.704	17.661	336910	REC_WORD	17.661	n/a	HORSE	-999	2	[0, 0, 0]	n/a	FR1	3	R1275D
1706.365	0.0	354570	TRIAL_END	n/a	n/a	n/a	-999	2	[0, 0, 0]	n/a	FR1	3	R1275D
1706.365	0.017	354570	REC_END	n/a	n/a	n/a	-999	2	[0, 0, 0]	n/a	FR1	3	R1275D
1706.382	0.0	354587	TRIAL_START	n/a	n/a	n/a	-999	3	[0, 0, 0]	n/a	FR1	3	R1275D
1706.382	0.0	354587	TRIAL	n/a	n/a	n/a	-999	3	[0, 0, 0]	n/a	FR1	3	R1275D
1706.382	2.141	354587	WAITING_START	n/a	n/a	n/a	-999	3	[0, 0, 0]	n/a	FR1	3	R1275D
1708.523	0.001	356728	WAITING_END	n/a	n/a	n/a	-999	3	[0, 0, 0]	n/a	FR1	3	R1275D
1708.524	10.429	356729	COUNTDOWN_START	n/a	n/a	n/a	-999	3	[0, 0, 0]	n/a	FR1	3	R1275D
1718.953	0.0	367157	COUNTDOWN_END	n/a	n/a	n/a	-999	3	[0, 0, 0]	n/a	FR1	3	R1275D
1718.953	1.239	367157	ORIENT_START	n/a	n/a	n/a	-999	3	[0, 0, 0]	n/a	FR1	3	R1275D
1720.192	0.001	368396	ORIENT_END	n/a	n/a	n/a	-999	3	[0, 0, 0]	n/a	FR1	3	R1275D
1720.193	0.866	368397	ENCODING_START	n/a	n/a	n/a	-999	3	[0, 0, 0]	n/a	FR1	3	R1275D
1721.059	1.634	369263	WORD	n/a	wordpools/wordpool_EN.txt	BEACH	1	3	[0, 0, 0]	n/a	FR1	3	R1275D
1722.693	1.089	370897	WORD_OFF	n/a	n/a	BEACH	1	3	[0, 0, 0]	n/a	FR1	3	R1275D
1723.782	1.628	371986	WORD	n/a	wordpools/wordpool_EN.txt	BAG	2	3	[0, 0, 0]	n/a	FR1	3	R1275D
1725.41	0.851	373614	WORD_OFF	n/a	n/a	BAG	2	3	[0, 0, 0]	n/a	FR1	3	R1275D
1726.261	1.634	374465	WORD	n/a	wordpools/wordpool_EN.txt	CALF	3	3	[0, 0, 0]	n/a	FR1	3	R1275D
1727.895	1.038	376099	WORD_OFF	n/a	n/a	CALF	3	3	[0, 0, 0]	n/a	FR1	3	R1275D
1728.933	1.628	377137	WORD	n/a	wordpools/wordpool_EN.txt	HAND	4	3	[0, 0, 0]	n/a	FR1	3	R1275D
1730.561	0.993	378765	WORD_OFF	n/a	n/a	HAND	4	3	[0, 0, 0]	n/a	FR1	3	R1275D
1731.554	1.624	379758	WORD	n/a	wordpools/wordpool_EN.txt	STOOL	5	3	[0, 0, 0]	n/a	FR1	3	R1275D
1733.178	0.975	381382	WORD_OFF	n/a	n/a	STOOL	5	3	[0, 0, 0]	n/a	FR1	3	R1275D
1734.153	1.625	382357	WORD	n/a	wordpools/wordpool_EN.txt	BALL	6	3	[0, 0, 0]	n/a	FR1	3	R1275D
1735.778	0.86	383982	WORD_OFF	n/a	n/a	BALL	6	3	[0, 0, 0]	n/a	FR1	3	R1275D
1736.638	1.624	384842	WORD	n/a	wordpools/wordpool_EN.txt	WAVE	7	3	[0, 0, 0]	n/a	FR1	3	R1275D
1738.262	0.916	386466	WORD_OFF	n/a	n/a	WAVE	7	3	[0, 0, 0]	n/a	FR1	3	R1275D
1739.178	1.619	387382	WORD	n/a	wordpools/wordpool_EN.txt	TRAIN	8	3	[0, 0, 0]	n/a	FR1	3	R1275D
1740.797	0.791	389000	WORD_OFF	n/a	n/a	TRAIN	8	3	[0, 0, 0]	n/a	FR1	3	R1275D
1741.588	1.625	389791	WORD	n/a	wordpools/wordpool_EN.txt	SHIP	9	3	[0, 0, 0]	n/a	FR1	3	R1275D
1743.213	1.027	391416	WORD_OFF	n/a	n/a	SHIP	9	3	[0, 0, 0]	n/a	FR1	3	R1275D
1744.24	1.624	392443	WORD	n/a	wordpools/wordpool_EN.txt	JEEP	10	3	[0, 0, 0]	n/a	FR1	3	R1275D
1745.864	0.79	394067	WORD_OFF	n/a	n/a	JEEP	10	3	[0, 0, 0]	n/a	FR1	3	R1275D
1746.654	1.627	394857	WORD	n/a	wordpools/wordpool_EN.txt	STORE	11	3	[0, 0, 0]	n/a	FR1	3	R1275D
1748.281	1.013	396484	WORD_OFF	n/a	n/a	STORE	11	3	[0, 0, 0]	n/a	FR1	3	R1275D
1749.294	1.621	397497	WORD	n/a	wordpools/wordpool_EN.txt	FOAM	12	3	[0, 0, 0]	n/a	FR1	3	R1275D
1750.915	0.001	399118	WORD_OFF	n/a	n/a	FOAM	12	3	[0, 0, 0]	n/a	FR1	3	R1275D
1750.916	0.0	399119	ENCODING_END	n/a	n/a	n/a	-999	3	[0, 0, 0]	n/a	FR1	3	R1275D
1750.916	0.0	399119	DISTRACT_START	n/a	n/a	n/a	-999	3	[0, 0, 0]	n/a	FR1	3	R1275D
1750.916	0.016	399119	START	n/a	n/a	n/a	-999	3	[-999, -999, -999]	n/a	FR1	3	R1275D
1750.932	3.4	399135	PROB	3.4	n/a	n/a	-999	3	[2, 4, 5]	11	FR1	3	R1275D
1754.332	5.452	402535	PROB	5.452	n/a	n/a	-999	3	[4, 9, 2]	15	FR1	3	R1275D
1759.784	3.983	407987	PROB	3.983	n/a	n/a	-999	3	[4, 3, 2]	9	FR1	3	R1275D
1763.767	5.801	411969	PROB	5.801	n/a	n/a	-999	3	[7, 9, 3]	21	FR1	3	R1275D
1769.568	4.494	417770	PROB	4.494	n/a	n/a	-999	3	[8, 1, 8]	17	FR1	3	R1275D
1774.062	0.006	422264	STOP	n/a	n/a	n/a	-999	3	[-999, -999, -999]	n/a	FR1	3	R1275D
1774.068	0.536	422270	DISTRACT_END	n/a	n/a	n/a	-999	3	[0, 0, 0]	n/a	FR1	3	R1275D
1774.604	1.548	422806	RETRIEVAL_ORIENT_START	n/a	n/a	n/a	-999	3	[0, 0, 0]	n/a	FR1	3	R1275D
1776.152	0.001	424354	RETRIEVAL_ORIENT_END	n/a	n/a	n/a	-999	3	[0, 0, 0]	n/a	FR1	3	R1275D
1776.153	0.514	424355	REC_START	n/a	n/a	n/a	-999	3	[0, 0, 0]	n/a	FR1	3	R1275D
1776.667	2.87	424869	REC_WORD	2.87	n/a	STOOL	5	3	[0, 0, 0]	n/a	FR1	3	R1275D
1779.537	9.148	427739	REC_WORD	9.148	n/a	POOL	-999	3	[0, 0, 0]	n/a	FR1	3	R1275D
1788.685	6.58	436886	REC_WORD_VV	6.58	n/a	<>	-999	3	[0, 0, 0]	n/a	FR1	3	R1275D
1795.265	10.899	443466	REC_WORD_VV	10.899	n/a	<>	-999	3	[0, 0, 0]	n/a	FR1	3	R1275D
1806.164	0.0	454364	TRIAL_END	n/a	n/a	n/a	-999	3	[0, 0, 0]	n/a	FR1	3	R1275D
1806.164	0.017	454364	REC_END	n/a	n/a	n/a	-999	3	[0, 0, 0]	n/a	FR1	3	R1275D
1806.181	0.0	454381	TRIAL_START	n/a	n/a	n/a	-999	4	[0, 0, 0]	n/a	FR1	3	R1275D
1806.181	0.0	454381	TRIAL	n/a	n/a	n/a	-999	4	[0, 0, 0]	n/a	FR1	3	R1275D
1806.181	1.394	454381	WAITING_START	n/a	n/a	n/a	-999	4	[0, 0, 0]	n/a	FR1	3	R1275D
1807.575	0.0	455775	WAITING_END	n/a	n/a	n/a	-999	4	[0, 0, 0]	n/a	FR1	3	R1275D
1807.575	10.43	455775	COUNTDOWN_START	n/a	n/a	n/a	-999	4	[0, 0, 0]	n/a	FR1	3	R1275D
1818.005	0.0	466205	ORIENT_START	n/a	n/a	n/a	-999	4	[0, 0, 0]	n/a	FR1	3	R1275D
1818.005	1.105	466205	COUNTDOWN_END	n/a	n/a	n/a	-999	4	[0, 0, 0]	n/a	FR1	3	R1275D
1819.11	0.001	467310	ORIENT_END	n/a	n/a	n/a	-999	4	[0, 0, 0]	n/a	FR1	3	R1275D
1819.111	1.031	467311	ENCODING_START	n/a	n/a	n/a	-999	4	[0, 0, 0]	n/a	FR1	3	R1275D
1820.142	1.635	468342	WORD	n/a	wordpools/wordpool_EN.txt	DOCK	1	4	[0, 0, 0]	n/a	FR1	3	R1275D
1821.777	0.985	469977	WORD_OFF	n/a	n/a	DOCK	1	4	[0, 0, 0]	n/a	FR1	3	R1275D
1822.762	1.632	470962	WORD	n/a	wordpools/wordpool_EN.txt	JET	2	4	[0, 0, 0]	n/a	FR1	3	R1275D
1824.394	1.023	472593	WORD_OFF	n/a	n/a	JET	2	4	[0, 0, 0]	n/a	FR1	3	R1275D
1825.417	1.628	473616	WORD	n/a	wordpools/wordpool_EN.txt	BOWL	3	4	[0, 0, 0]	n/a	FR1	3	R1275D
1827.045	0.771	475244	WORD_OFF	n/a	n/a	BOWL	3	4	[0, 0, 0]	n/a	FR1	3	R1275D
1827.816	1.629	476015	WORD	n/a	wordpools/wordpool_EN.txt	FAN	4	4	[0, 0, 0]	n/a	FR1	3	R1275D
1829.445	0.767	477644	WORD_OFF	n/a	n/a	FAN	4	4	[0, 0, 0]	n/a	FR1	3	R1275D
1830.212	1.618	478411	WORD	n/a	wordpools/wordpool_EN.txt	WALL	5	4	[0, 0, 0]	n/a	FR1	3	R1275D
1831.83	1.001	480029	WORD_OFF	n/a	n/a	WALL	5	4	[0, 0, 0]	n/a	FR1	3	R1275D
1832.831	1.632	481030	WORD	n/a	wordpools/wordpool_EN.txt	FUR	6	4	[0, 0, 0]	n/a	FR1	3	R1275D
1834.463	0.8	482662	WORD_OFF	n/a	n/a	FUR	6	4	[0, 0, 0]	n/a	FR1	3	R1275D
1835.263	1.618	483462	WORD	n/a	wordpools/wordpool_EN.txt	BOMB	7	4	[0, 0, 0]	n/a	FR1	3	R1275D
1836.881	0.971	485080	WORD_OFF	n/a	n/a	BOMB	7	4	[0, 0, 0]	n/a	FR1	3	R1275D
1837.852	1.629	486051	WORD	n/a	wordpools/wordpool_EN.txt	JAIL	8	4	[0, 0, 0]	n/a	FR1	3	R1275D
1839.481	1.048	487680	WORD_OFF	n/a	n/a	JAIL	8	4	[0, 0, 0]	n/a	FR1	3	R1275D
1840.529	1.635	488728	WORD	n/a	wordpools/wordpool_EN.txt	ANT	9	4	[0, 0, 0]	n/a	FR1	3	R1275D
1842.164	1.141	490363	WORD_OFF	n/a	n/a	ANT	9	4	[0, 0, 0]	n/a	FR1	3	R1275D
1843.305	1.611	491504	WORD	n/a	wordpools/wordpool_EN.txt	NET	10	4	[0, 0, 0]	n/a	FR1	3	R1275D
1844.916	0.855	493114	WORD_OFF	n/a	n/a	NET	10	4	[0, 0, 0]	n/a	FR1	3	R1275D
1845.771	1.628	493969	WORD	n/a	wordpools/wordpool_EN.txt	FACE	11	4	[0, 0, 0]	n/a	FR1	3	R1275D
1847.399	0.892	495597	WORD_OFF	n/a	n/a	FACE	11	4	[0, 0, 0]	n/a	FR1	3	R1275D
1848.291	1.626	496489	WORD	n/a	wordpools/wordpool_EN.txt	STRING	12	4	[0, 0, 0]	n/a	FR1	3	R1275D
1849.917	0.0	498115	WORD_OFF	n/a	n/a	STRING	12	4	[0, 0, 0]	n/a	FR1	3	R1275D
1849.917	0.0	498115	ENCODING_END	n/a	n/a	n/a	-999	4	[0, 0, 0]	n/a	FR1	3	R1275D
1849.917	0.001	498115	DISTRACT_START	n/a	n/a	n/a	-999	4	[0, 0, 0]	n/a	FR1	3	R1275D
1849.918	0.015	498116	START	n/a	n/a	n/a	-999	4	[-999, -999, -999]	n/a	FR1	3	R1275D
1849.933	5.985	498131	PROB	5.985	n/a	n/a	-999	4	[5, 9, 3]	17	FR1	3	R1275D
1855.918	3.416	504116	PROB	3.416	n/a	n/a	-999	4	[2, 2, 6]	10	FR1	3	R1275D
1859.334	2.684	507532	PROB	2.684	n/a	n/a	-999	4	[1, 3, 7]	11	FR1	3	R1275D
1862.018	5.384	510216	PROB	5.384	n/a	n/a	-999	4	[6, 6, 7]	19	FR1	3	R1275D
1867.402	5.268	515599	PROB	5.268	n/a	n/a	-999	4	[7, 6, 7]	20	FR1	3	R1275D
1872.67	0.017	520867	STOP	n/a	n/a	n/a	-999	4	[-999, -999, -999]	n/a	FR1	3	R1275D
1872.687	0.651	520884	DISTRACT_END	n/a	n/a	n/a	-999	4	[0, 0, 0]	n/a	FR1	3	R1275D
1873.338	1.583	521535	RETRIEVAL_ORIENT_START	n/a	n/a	n/a	-999	4	[0, 0, 0]	n/a	FR1	3	R1275D
1874.921	0.001	523118	RETRIEVAL_ORIENT_END	n/a	n/a	n/a	-999	4	[0, 0, 0]	n/a	FR1	3	R1275D
1874.922	0.699	523119	REC_START	n/a	n/a	n/a	-999	4	[0, 0, 0]	n/a	FR1	3	R1275D
1875.621	1.057	523818	REC_WORD	1.057	n/a	BOMB	7	4	[0, 0, 0]	n/a	FR1	3	R1275D
1876.678	5.116	524875	REC_WORD	5.116	n/a	FACE	11	4	[0, 0, 0]	n/a	FR1	3	R1275D
1881.794	13.217	529991	REC_WORD_VV	13.217	n/a	<>	-999	4	[0, 0, 0]	n/a	FR1	3	R1275D
1895.011	9.924	543207	REC_WORD	9.924	n/a	POOL	-999	4	[0, 0, 0]	n/a	FR1	3	R1275D
1904.935	0.001	553131	REC_END	n/a	n/a	n/a	-999	4	[0, 0, 0]	n/a	FR1	3	R1275D
1904.936	0.013	553132	TRIAL_END	n/a	n/a	n/a	-999	4	[0, 0, 0]	n/a	FR1	3	R1275D
1904.949	0.0	553145	TRIAL_START	n/a	n/a	n/a	-999	5	[0, 0, 0]	n/a	FR1	3	R1275D
1904.949	0.0	553145	TRIAL	n/a	n/a	n/a	-999	5	[0, 0, 0]	n/a	FR1	3	R1275D
1904.949	1.377	553145	WAITING_START	n/a	n/a	n/a	-999	5	[0, 0, 0]	n/a	FR1	3	R1275D
1906.326	0.0	554522	WAITING_END	n/a	n/a	n/a	-999	5	[0, 0, 0]	n/a	FR1	3	R1275D
1906.326	10.429	554522	COUNTDOWN_START	n/a	n/a	n/a	-999	5	[0, 0, 0]	n/a	FR1	3	R1275D
1916.755	0.001	564950	COUNTDOWN_END	n/a	n/a	n/a	-999	5	[0, 0, 0]	n/a	FR1	3	R1275D
1916.756	1.073	564951	ORIENT_START	n/a	n/a	n/a	-999	5	[0, 0, 0]	n/a	FR1	3	R1275D
1917.829	0.001	566024	ORIENT_END	n/a	n/a	n/a	-999	5	[0, 0, 0]	n/a	FR1	3	R1275D
1917.83	1.115	566025	ENCODING_START	n/a	n/a	n/a	-999	5	[0, 0, 0]	n/a	FR1	3	R1275D
1918.945	1.634	567140	WORD	n/a	wordpools/wordpool_EN.txt	TOE	1	5	[0, 0, 0]	n/a	FR1	3	R1275D
1920.579	0.909	568774	WORD_OFF	n/a	n/a	TOE	1	5	[0, 0, 0]	n/a	FR1	3	R1275D
1921.488	1.625	569683	WORD	n/a	wordpools/wordpool_EN.txt	INK	2	5	[0, 0, 0]	n/a	FR1	3	R1275D
1923.113	1.037	571308	WORD_OFF	n/a	n/a	INK	2	5	[0, 0, 0]	n/a	FR1	3	R1275D
1924.15	1.63	572345	WORD	n/a	wordpools/wordpool_EN.txt	OWL	3	5	[0, 0, 0]	n/a	FR1	3	R1275D
1925.78	1.096	573975	WORD_OFF	n/a	n/a	OWL	3	5	[0, 0, 0]	n/a	FR1	3	R1275D
1926.876	1.621	575071	WORD	n/a	wordpools/wordpool_EN.txt	RICE	4	5	[0, 0, 0]	n/a	FR1	3	R1275D
1928.497	0.768	576691	WORD_OFF	n/a	n/a	RICE	4	5	[0, 0, 0]	n/a	FR1	3	R1275D
1929.265	1.633	577459	WORD	n/a	wordpools/wordpool_EN.txt	CASH	5	5	[0, 0, 0]	n/a	FR1	3	R1275D
1930.898	0.932	579092	WORD_OFF	n/a	n/a	CASH	5	5	[0, 0, 0]	n/a	FR1	3	R1275D
1931.83	1.634	580024	WORD	n/a	wordpools/wordpool_EN.txt	CAPE	6	5	[0, 0, 0]	n/a	FR1	3	R1275D
1933.464	0.979	581658	WORD_OFF	n/a	n/a	CAPE	6	5	[0, 0, 0]	n/a	FR1	3	R1275D
1934.443	1.622	582637	WORD	n/a	wordpools/wordpool_EN.txt	SQUARE	7	5	[0, 0, 0]	n/a	FR1	3	R1275D
1936.065	1.02	584259	WORD_OFF	n/a	n/a	SQUARE	7	5	[0, 0, 0]	n/a	FR1	3	R1275D
1937.085	1.63	585279	WORD	n/a	wordpools/wordpool_EN.txt	CORN	8	5	[0, 0, 0]	n/a	FR1	3	R1275D
1938.715	0.766	586909	WORD_OFF	n/a	n/a	CORN	8	5	[0, 0, 0]	n/a	FR1	3	R1275D
1939.481	1.635	587675	WORD	n/a	wordpools/wordpool_EN.txt	BADGE	9	5	[0, 0, 0]	n/a	FR1	3	R1275D
1941.116	0.866	589310	WORD_OFF	n/a	n/a	BADGE	9	5	[0, 0, 0]	n/a	FR1	3	R1275D
1941.982	1.634	590176	WORD	n/a	wordpools/wordpool_EN.txt	PLANE	10	5	[0, 0, 0]	n/a	FR1	3	R1275D
1943.616	0.807	591810	WORD_OFF	n/a	n/a	PLANE	10	5	[0, 0, 0]	n/a	FR1	3	R1275D
1944.423	1.627	592617	WORD	n/a	wordpools/wordpool_EN.txt	SPOON	11	5	[0, 0, 0]	n/a	FR1	3	R1275D
1946.05	1.12	594244	WORD_OFF	n/a	n/a	SPOON	11	5	[0, 0, 0]	n/a	FR1	3	R1275D
1947.17	1.631	595364	WORD	n/a	wordpools/wordpool_EN.txt	CHIEF	12	5	[0, 0, 0]	n/a	FR1	3	R1275D
1948.801	0.001	596994	WORD_OFF	n/a	n/a	CHIEF	12	5	[0, 0, 0]	n/a	FR1	3	R1275D
1948.802	0.0	596995	ENCODING_END	n/a	n/a	n/a	-999	5	[0, 0, 0]	n/a	FR1	3	R1275D
1948.802	0.0	596995	DISTRACT_START	n/a	n/a	n/a	-999	5	[0, 0, 0]	n/a	FR1	3	R1275D
1948.802	0.016	596995	START	n/a	n/a	n/a	-999	5	[-999, -999, -999]	n/a	FR1	3	R1275D
1948.818	7.167	597011	PROB	7.167	n/a	n/a	-999	5	[4, 8, 7]	19	FR1	3	R1275D
1955.985	3.2	604178	PROB	3.2	n/a	n/a	-999	5	[1, 3, 2]	6	FR1	3	R1275D
1959.185	3.685	607378	PROB	3.685	n/a	n/a	-999	5	[4, 2, 2]	8	FR1	3	R1275D
1962.87	7.395	611063	PROB	7.395	n/a	n/a	-999	5	[7, 2, 8]	17	FR1	3	R1275D
1970.265	0.006	618457	STOP	n/a	n/a	n/a	-999	5	[-999, -999, -999]	n/a	FR1	3	R1275D
1970.271	0.665	618463	DISTRACT_END	n/a	n/a	n/a	-999	5	[0, 0, 0]	n/a	FR1	3	R1275D
1970.936	1.635	619128	RETRIEVAL_ORIENT_START	n/a	n/a	n/a	-999	5	[0, 0, 0]	n/a	FR1	3	R1275D
1972.571	0.001	620763	RETRIEVAL_ORIENT_END	n/a	n/a	n/a	-999	5	[0, 0, 0]	n/a	FR1	3	R1275D
1972.572	0.0	620764	REC_START	n/a	n/a	n/a	-999	5	[0, 0, 0]	n/a	FR1	3	R1275D
1972.572	1.005	620764	REC_WORD	1.005	n/a	SPOON	11	5	[0, 0, 0]	n/a	FR1	3	R1275D
1973.577	1.142	621769	REC_WORD	1.142	n/a	RICE	4	5	[0, 0, 0]	n/a	FR1	3	R1275D
1974.719	3.887	622911	REC_WORD	3.887	n/a	BOWL	-999	5	[0, 0, 0]	n/a	FR1	3	R1275D
1978.606	23.978	626798	REC_WORD_VV	23.978	n/a	<>	-999	5	[0, 0, 0]	n/a	FR1	3	R1275D
2002.584	0.0	650775	TRIAL_END	n/a	n/a	n/a	-999	5	[0, 0, 0]	n/a	FR1	3	R1275D
2002.584	0.017	650775	REC_END	n/a	n/a	n/a	-999	5	[0, 0, 0]	n/a	FR1	3	R1275D
2002.601	0.0	650792	TRIAL_START	n/a	n/a	n/a	-999	6	[0, 0, 0]	n/a	FR1	3	R1275D
2002.601	0.0	650792	TRIAL	n/a	n/a	n/a	-999	6	[0, 0, 0]	n/a	FR1	3	R1275D
2002.601	1.343	650792	WAITING_START	n/a	n/a	n/a	-999	6	[0, 0, 0]	n/a	FR1	3	R1275D
2003.944	0.0	652135	WAITING_END	n/a	n/a	n/a	-999	6	[0, 0, 0]	n/a	FR1	3	R1275D
2003.944	10.429	652135	COUNTDOWN_START	n/a	n/a	n/a	-999	6	[0, 0, 0]	n/a	FR1	3	R1275D
2014.373	0.0	662563	COUNTDOWN_END	n/a	n/a	n/a	-999	6	[0, 0, 0]	n/a	FR1	3	R1275D
2014.373	1.073	662563	ORIENT_START	n/a	n/a	n/a	-999	6	[0, 0, 0]	n/a	FR1	3	R1275D
2015.446	0.0	663636	ORIENT_END	n/a	n/a	n/a	-999	6	[0, 0, 0]	n/a	FR1	3	R1275D
2015.446	0.95	663636	ENCODING_START	n/a	n/a	n/a	-999	6	[0, 0, 0]	n/a	FR1	3	R1275D
2016.396	1.634	664586	WORD	n/a	wordpools/wordpool_EN.txt	FLOOR	1	6	[0, 0, 0]	n/a	FR1	3	R1275D
2018.03	1.02	666220	WORD_OFF	n/a	n/a	FLOOR	1	6	[0, 0, 0]	n/a	FR1	3	R1275D
2019.05	1.63	667240	WORD	n/a	wordpools/wordpool_EN.txt	SOUP	2	6	[0, 0, 0]	n/a	FR1	3	R1275D
2020.68	0.879	668870	WORD_OFF	n/a	n/a	SOUP	2	6	[0, 0, 0]	n/a	FR1	3	R1275D
2021.559	1.622	669749	WORD	n/a	wordpools/wordpool_EN.txt	GRASS	3	6	[0, 0, 0]	n/a	FR1	3	R1275D
2023.181	0.874	671371	WORD_OFF	n/a	n/a	GRASS	3	6	[0, 0, 0]	n/a	FR1	3	R1275D
2024.055	1.626	672245	WORD	n/a	wordpools/wordpool_EN.txt	GUARD	4	6	[0, 0, 0]	n/a	FR1	3	R1275D
2025.681	1.086	673871	WORD_OFF	n/a	n/a	GUARD	4	6	[0, 0, 0]	n/a	FR1	3	R1275D
2026.767	1.631	674957	WORD	n/a	wordpools/wordpool_EN.txt	FLAG	5	6	[0, 0, 0]	n/a	FR1	3	R1275D
2028.398	0.971	676588	WORD_OFF	n/a	n/a	FLAG	5	6	[0, 0, 0]	n/a	FR1	3	R1275D
2029.369	1.63	677559	WORD	n/a	wordpools/wordpool_EN.txt	TOOTH	6	6	[0, 0, 0]	n/a	FR1	3	R1275D
2030.999	1.011	679189	WORD_OFF	n/a	n/a	TOOTH	6	6	[0, 0, 0]	n/a	FR1	3	R1275D
2032.01	1.623	680200	WORD	n/a	wordpools/wordpool_EN.txt	BOOK	7	6	[0, 0, 0]	n/a	FR1	3	R1275D
2033.633	1.078	681822	WORD_OFF	n/a	n/a	BOOK	7	6	[0, 0, 0]	n/a	FR1	3	R1275D
2034.711	1.622	682900	WORD	n/a	wordpools/wordpool_EN.txt	SMILE	8	6	[0, 0, 0]	n/a	FR1	3	R1275D
2036.333	1.027	684522	WORD_OFF	n/a	n/a	SMILE	8	6	[0, 0, 0]	n/a	FR1	3	R1275D
2037.36	1.624	685549	WORD	n/a	wordpools/wordpool_EN.txt	SHELL	9	6	[0, 0, 0]	n/a	FR1	3	R1275D
2038.984	1.085	687173	WORD_OFF	n/a	n/a	SHELL	9	6	[0, 0, 0]	n/a	FR1	3	R1275D
2040.069	1.631	688258	WORD	n/a	wordpools/wordpool_EN.txt	FOG	10	6	[0, 0, 0]	n/a	FR1	3	R1275D
2041.7	0.992	689889	WORD_OFF	n/a	n/a	FOG	10	6	[0, 0, 0]	n/a	FR1	3	R1275D
2042.692	1.626	690881	WORD	n/a	wordpools/wordpool_EN.txt	HOLE	11	6	[0, 0, 0]	n/a	FR1	3	R1275D
2044.318	1.145	692507	WORD_OFF	n/a	n/a	HOLE	11	6	[0, 0, 0]	n/a	FR1	3	R1275D
2045.463	1.622	693652	WORD	n/a	wordpools/wordpool_EN.txt	BENCH	12	6	[0, 0, 0]	n/a	FR1	3	R1275D
2047.085	0.0	695274	WORD_OFF	n/a	n/a	BENCH	12	6	[0, 0, 0]	n/a	FR1	3	R1275D
2047.085	0.001	695274	ENCODING_END	n/a	n/a	n/a	-999	6	[0, 0, 0]	n/a	FR1	3	R1275D
2047.086	0.0	695275	DISTRACT_START	n/a	n/a	n/a	-999	6	[0, 0, 0]	n/a	FR1	3	R1275D
2047.086	0.015	695275	START	n/a	n/a	n/a	-999	6	[-999, -999, -999]	n/a	FR1	3	R1275D
2047.101	5.035	695290	PROB	5.035	n/a	n/a	-999	6	[5, 6, 4]	15	FR1	3	R1275D
2052.136	4.567	700325	PROB	4.567	n/a	n/a	-999	6	[6, 4, 7]	17	FR1	3	R1275D
2056.703	4.068	704891	PROB	4.068	n/a	n/a	-999	6	[4, 6, 7]	17	FR1	3	R1275D
2060.771	5.451	708959	PROB	5.451	n/a	n/a	-999	6	[1, 2, 1]	4	FR1	3	R1275D
2066.222	4.76	714410	PROB	4.76	n/a	n/a	-999	6	[6, 6, 3]	15	FR1	3	R1275D
2070.982	0.007	719170	STOP	n/a	n/a	n/a	-999	6	[-999, -999, -999]	n/a	FR1	3	R1275D
2070.989	0.528	719177	DISTRACT_END	n/a	n/a	n/a	-999	6	[0, 0, 0]	n/a	FR1	3	R1275D
2071.517	1.573	719705	RETRIEVAL_ORIENT_START	n/a	n/a	n/a	-999	6	[0, 0, 0]	n/a	FR1	3	R1275D
2073.09	0.0	721278	RETRIEVAL_ORIENT_END	n/a	n/a	n/a	-999	6	[0, 0, 0]	n/a	FR1	3	R1275D
2073.09	0.196	721278	REC_START	n/a	n/a	n/a	-999	6	[0, 0, 0]	n/a	FR1	3	R1275D
2073.286	1.193	721474	REC_WORD	1.193	n/a	FOG	10	6	[0, 0, 0]	n/a	FR1	3	R1275D
2074.479	28.623	722666	REC_WORD	28.623	n/a	SPOON	-999	6	[0, 0, 0]	n/a	FR1	3	R1275D
2103.102	0.0	751288	REC_END	n/a	n/a	n/a	-999	6	[0, 0, 0]	n/a	FR1	3	R1275D
2103.102	0.015	751288	TRIAL_END	n/a	n/a	n/a	-999	6	[0, 0, 0]	n/a	FR1	3	R1275D
2103.117	0.0	751303	TRIAL	n/a	n/a	n/a	-999	7	[0, 0, 0]	n/a	FR1	3	R1275D
2103.117	0.0	751303	WAITING_START	n/a	n/a	n/a	-999	7	[0, 0, 0]	n/a	FR1	3	R1275D
2103.117	2.262	751303	TRIAL_START	n/a	n/a	n/a	-999	7	[0, 0, 0]	n/a	FR1	3	R1275D
2105.379	0.0	753565	WAITING_END	n/a	n/a	n/a	-999	7	[0, 0, 0]	n/a	FR1	3	R1275D
2105.379	10.429	753565	COUNTDOWN_START	n/a	n/a	n/a	-999	7	[0, 0, 0]	n/a	FR1	3	R1275D
2115.808	0.0	763993	COUNTDOWN_END	n/a	n/a	n/a	-999	7	[0, 0, 0]	n/a	FR1	3	R1275D
2115.808	1.107	763993	ORIENT_START	n/a	n/a	n/a	-999	7	[0, 0, 0]	n/a	FR1	3	R1275D
2116.915	0.001	765100	ORIENT_END	n/a	n/a	n/a	-999	7	[0, 0, 0]	n/a	FR1	3	R1275D
2116.916	0.87	765101	ENCODING_START	n/a	n/a	n/a	-999	7	[0, 0, 0]	n/a	FR1	3	R1275D
2117.786	1.629	765971	WORD	n/a	wordpools/wordpool_EN.txt	SINK	1	7	[0, 0, 0]	n/a	FR1	3	R1275D
2119.415	1.028	767600	WORD_OFF	n/a	n/a	SINK	1	7	[0, 0, 0]	n/a	FR1	3	R1275D
2120.443	1.622	768628	WORD	n/a	wordpools/wordpool_EN.txt	JAR	2	7	[0, 0, 0]	n/a	FR1	3	R1275D
2122.065	0.93	770250	WORD_OFF	n/a	n/a	JAR	2	7	[0, 0, 0]	n/a	FR1	3	R1275D
2122.995	1.638	771180	WORD	n/a	wordpools/wordpool_EN.txt	BED	3	7	[0, 0, 0]	n/a	FR1	3	R1275D
2124.633	1.079	772818	WORD_OFF	n/a	n/a	BED	3	7	[0, 0, 0]	n/a	FR1	3	R1275D
2125.712	1.621	773897	WORD	n/a	wordpools/wordpool_EN.txt	AXE	4	7	[0, 0, 0]	n/a	FR1	3	R1275D
2127.333	0.817	775518	WORD_OFF	n/a	n/a	AXE	4	7	[0, 0, 0]	n/a	FR1	3	R1275D
2128.15	1.634	776335	WORD	n/a	wordpools/wordpool_EN.txt	TEA	5	7	[0, 0, 0]	n/a	FR1	3	R1275D
2129.784	1.039	777969	WORD_OFF	n/a	n/a	TEA	5	7	[0, 0, 0]	n/a	FR1	3	R1275D
2130.823	1.628	779008	WORD	n/a	wordpools/wordpool_EN.txt	TOAST	6	7	[0, 0, 0]	n/a	FR1	3	R1275D
2132.451	0.905	780636	WORD_OFF	n/a	n/a	TOAST	6	7	[0, 0, 0]	n/a	FR1	3	R1275D
2133.356	1.628	781541	WORD	n/a	wordpools/wordpool_EN.txt	CAVE	7	7	[0, 0, 0]	n/a	FR1	3	R1275D
2134.984	1.004	783169	WORD_OFF	n/a	n/a	CAVE	7	7	[0, 0, 0]	n/a	FR1	3	R1275D
2135.988	1.63	784173	WORD	n/a	wordpools/wordpool_EN.txt	CHALK	8	7	[0, 0, 0]	n/a	FR1	3	R1275D
2137.618	0.84	785802	WORD_OFF	n/a	n/a	CHALK	8	7	[0, 0, 0]	n/a	FR1	3	R1275D
2138.458	1.627	786642	WORD	n/a	wordpools/wordpool_EN.txt	WHEEL	9	7	[0, 0, 0]	n/a	FR1	3	R1275D
2140.085	0.983	788269	WORD_OFF	n/a	n/a	WHEEL	9	7	[0, 0, 0]	n/a	FR1	3	R1275D
2141.068	1.634	789252	WORD	n/a	wordpools/wordpool_EN.txt	RIB	10	7	[0, 0, 0]	n/a	FR1	3	R1275D
2142.702	0.834	790886	WORD_OFF	n/a	n/a	RIB	10	7	[0, 0, 0]	n/a	FR1	3	R1275D
2143.536	1.634	791720	WORD	n/a	wordpools/wordpool_EN.txt	MUG	11	7	[0, 0, 0]	n/a	FR1	3	R1275D
2145.17	0.898	793354	WORD_OFF	n/a	n/a	MUG	11	7	[0, 0, 0]	n/a	FR1	3	R1275D
2146.068	1.636	794252	WORD	n/a	wordpools/wordpool_EN.txt	HEN	12	7	[0, 0, 0]	n/a	FR1	3	R1275D
2147.704	0.0	795888	WORD_OFF	n/a	n/a	HEN	12	7	[0, 0, 0]	n/a	FR1	3	R1275D
2147.704	0.0	795888	ENCODING_END	n/a	n/a	n/a	-999	7	[0, 0, 0]	n/a	FR1	3	R1275D
2147.704	0.001	795888	DISTRACT_START	n/a	n/a	n/a	-999	7	[0, 0, 0]	n/a	FR1	3	R1275D
2147.705	0.015	795889	START	n/a	n/a	n/a	-999	7	[-999, -999, -999]	n/a	FR1	3	R1275D
2147.72	6.368	795904	PROB	6.368	n/a	n/a	-999	7	[8, 6, 6]	20	FR1	3	R1275D
2154.088	3.284	802272	PROB	3.284	n/a	n/a	-999	7	[9, 1, 1]	11	FR1	3	R1275D
2157.372	7.134	805556	PROB	7.134	n/a	n/a	-999	7	[5, 7, 9]	21	FR1	3	R1275D
2164.506	8.21	812689	PROB	8.21	n/a	n/a	-999	7	[2, 1, 2]	5	FR1	3	R1275D
2172.716	0.009	820899	STOP	n/a	n/a	n/a	-999	7	[-999, -999, -999]	n/a	FR1	3	R1275D
2172.725	0.643	820908	DISTRACT_END	n/a	n/a	n/a	-999	7	[0, 0, 0]	n/a	FR1	3	R1275D
2173.368	1.674	821551	RETRIEVAL_ORIENT_START	n/a	n/a	n/a	-999	7	[0, 0, 0]	n/a	FR1	3	R1275D
2175.042	0.0	823225	RETRIEVAL_ORIENT_END	n/a	n/a	n/a	-999	7	[0, 0, 0]	n/a	FR1	3	R1275D
2175.042	0.442	823225	REC_START	n/a	n/a	n/a	-999	7	[0, 0, 0]	n/a	FR1	3	R1275D
2175.484	5.673	823667	REC_WORD	5.673	n/a	HEN	12	7	[0, 0, 0]	n/a	FR1	3	R1275D
2181.157	1.0	829339	REC_WORD	1.0	n/a	FOX	-999	7	[0, 0, 0]	n/a	FR1	3	R1275D
2182.157	5.442	830339	REC_WORD_VV	5.442	n/a	<>	-999	7	[0, 0, 0]	n/a	FR1	3	R1275D
2187.599	17.455	835781	REC_WORD	17.455	n/a	MUD	-999	7	[0, 0, 0]	n/a	FR1	3	R1275D
2205.054	0.001	853235	REC_END	n/a	n/a	n/a	-999	7	[0, 0, 0]	n/a	FR1	3	R1275D
2205.055	0.016	853236	TRIAL_END	n/a	n/a	n/a	-999	7	[0, 0, 0]	n/a	FR1	3	R1275D
2205.071	0.0	853252	TRIAL_START	n/a	n/a	n/a	-999	8	[0, 0, 0]	n/a	FR1	3	R1275D
2205.071	0.001	853252	TRIAL	n/a	n/a	n/a	-999	8	[0, 0, 0]	n/a	FR1	3	R1275D
2205.072	1.359	853253	WAITING_START	n/a	n/a	n/a	-999	8	[0, 0, 0]	n/a	FR1	3	R1275D
2206.431	0.0	854612	COUNTDOWN_START	n/a	n/a	n/a	-999	8	[0, 0, 0]	n/a	FR1	3	R1275D
2206.431	10.428	854612	WAITING_END	n/a	n/a	n/a	-999	8	[0, 0, 0]	n/a	FR1	3	R1275D
2216.859	0.001	865040	COUNTDOWN_END	n/a	n/a	n/a	-999	8	[0, 0, 0]	n/a	FR1	3	R1275D
2216.86	1.123	865041	ORIENT_START	n/a	n/a	n/a	-999	8	[0, 0, 0]	n/a	FR1	3	R1275D
2217.983	0.0	866164	ORIENT_END	n/a	n/a	n/a	-999	8	[0, 0, 0]	n/a	FR1	3	R1275D
2217.983	0.901	866164	ENCODING_START	n/a	n/a	n/a	-999	8	[0, 0, 0]	n/a	FR1	3	R1275D
2218.884	1.633	867065	WORD	n/a	wordpools/wordpool_EN.txt	MOON	1	8	[0, 0, 0]	n/a	FR1	3	R1275D
2220.517	1.023	868697	WORD_OFF	n/a	n/a	MOON	1	8	[0, 0, 0]	n/a	FR1	3	R1275D
2221.54	1.627	869720	WORD	n/a	wordpools/wordpool_EN.txt	CART	2	8	[0, 0, 0]	n/a	FR1	3	R1275D
2223.167	0.963	871347	WORD_OFF	n/a	n/a	CART	2	8	[0, 0, 0]	n/a	FR1	3	R1275D
2224.13	1.621	872310	WORD	n/a	wordpools/wordpool_EN.txt	SAIL	3	8	[0, 0, 0]	n/a	FR1	3	R1275D
2225.751	0.995	873931	WORD_OFF	n/a	n/a	SAIL	3	8	[0, 0, 0]	n/a	FR1	3	R1275D
2226.746	1.622	874926	WORD	n/a	wordpools/wordpool_EN.txt	LAWN	4	8	[0, 0, 0]	n/a	FR1	3	R1275D
2228.368	0.81	876548	WORD_OFF	n/a	n/a	LAWN	4	8	[0, 0, 0]	n/a	FR1	3	R1275D
2229.178	1.625	877358	WORD	n/a	wordpools/wordpool_EN.txt	WOLF	5	8	[0, 0, 0]	n/a	FR1	3	R1275D
2230.803	0.964	878983	WORD_OFF	n/a	n/a	WOLF	5	8	[0, 0, 0]	n/a	FR1	3	R1275D
2231.767	1.635	879947	WORD	n/a	wordpools/wordpool_EN.txt	THUMB	6	8	[0, 0, 0]	n/a	FR1	3	R1275D
2233.402	0.91	881582	WORD_OFF	n/a	n/a	THUMB	6	8	[0, 0, 0]	n/a	FR1	3	R1275D
2234.312	1.608	882492	WORD	n/a	wordpools/wordpool_EN.txt	BROOM	7	8	[0, 0, 0]	n/a	FR1	3	R1275D
2235.92	0.876	884100	WORD_OFF	n/a	n/a	BROOM	7	8	[0, 0, 0]	n/a	FR1	3	R1275D
2236.796	1.624	884976	WORD	n/a	wordpools/wordpool_EN.txt	DOG	8	8	[0, 0, 0]	n/a	FR1	3	R1275D
2238.42	0.937	886600	WORD_OFF	n/a	n/a	DOG	8	8	[0, 0, 0]	n/a	FR1	3	R1275D
2239.357	1.63	887537	WORD	n/a	wordpools/wordpool_EN.txt	FLAME	9	8	[0, 0, 0]	n/a	FR1	3	R1275D
2240.987	0.841	889167	WORD_OFF	n/a	n/a	FLAME	9	8	[0, 0, 0]	n/a	FR1	3	R1275D
2241.828	1.626	890007	WORD	n/a	wordpools/wordpool_EN.txt	WEED	10	8	[0, 0, 0]	n/a	FR1	3	R1275D
2243.454	0.87	891633	WORD_OFF	n/a	n/a	WEED	10	8	[0, 0, 0]	n/a	FR1	3	R1275D
2244.324	1.63	892503	WORD	n/a	wordpools/wordpool_EN.txt	PRINCE	11	8	[0, 0, 0]	n/a	FR1	3	R1275D
2245.954	1.116	894133	WORD_OFF	n/a	n/a	PRINCE	11	8	[0, 0, 0]	n/a	FR1	3	R1275D
2247.07	1.635	895249	WORD	n/a	wordpools/wordpool_EN.txt	COW	12	8	[0, 0, 0]	n/a	FR1	3	R1275D
2248.705	0.0	896884	WORD_OFF	n/a	n/a	COW	12	8	[0, 0, 0]	n/a	FR1	3	R1275D
2248.705	0.001	896884	ENCODING_END	n/a	n/a	n/a	-999	8	[0, 0, 0]	n/a	FR1	3	R1275D
2248.706	0.0	896885	DISTRACT_START	n/a	n/a	n/a	-999	8	[0, 0, 0]	n/a	FR1	3	R1275D
2248.706	0.015	896885	START	n/a	n/a	n/a	-999	8	[-999, -999, -999]	n/a	FR1	3	R1275D
2248.721	5.852	896900	PROB	5.852	n/a	n/a	-999	8	[5, 8, 4]	19	FR1	3	R1275D
2254.573	4.717	902752	PROB	4.717	n/a	n/a	-999	8	[5, 7, 3]	15	FR1	3	R1275D
2259.29	3.984	907469	PROB	3.984	n/a	n/a	-999	8	[5, 2, 1]	8	FR1	3	R1275D
2263.274	3.552	911452	PROB	3.552	n/a	n/a	-999	8	[6, 5, 1]	12	FR1	3	R1275D
2266.826	3.176	915004	PROB	3.176	n/a	n/a	-999	8	[1, 4, 3]	8	FR1	3	R1275D
2270.002	0.007	918180	STOP	n/a	n/a	n/a	-999	8	[-999, -999, -999]	n/a	FR1	3	R1275D
2270.009	0.523	918187	DISTRACT_END	n/a	n/a	n/a	-999	8	[0, 0, 0]	n/a	FR1	3	R1275D
2270.532	1.544	918710	RETRIEVAL_ORIENT_START	n/a	n/a	n/a	-999	8	[0, 0, 0]	n/a	FR1	3	R1275D
2272.076	0.0	920254	RETRIEVAL_ORIENT_END	n/a	n/a	n/a	-999	8	[0, 0, 0]	n/a	FR1	3	R1275D
2272.076	1.379	920254	REC_START	n/a	n/a	n/a	-999	8	[0, 0, 0]	n/a	FR1	3	R1275D
2273.455	28.634	921633	REC_WORD	28.634	n/a	DOG	8	8	[0, 0, 0]	n/a	FR1	3	R1275D
2302.089	0.0	950266	REC_END	n/a	n/a	n/a	-999	8	[0, 0, 0]	n/a	FR1	3	R1275D
2302.089	0.018	950266	TRIAL_END	n/a	n/a	n/a	-999	8	[0, 0, 0]	n/a	FR1	3	R1275D
2302.107	0.0	950284	TRIAL_START	n/a	n/a	n/a	-999	9	[0, 0, 0]	n/a	FR1	3	R1275D
2302.107	0.0	950284	TRIAL	n/a	n/a	n/a	-999	9	[0, 0, 0]	n/a	FR1	3	R1275D
2302.107	1.308	950284	WAITING_START	n/a	n/a	n/a	-999	9	[0, 0, 0]	n/a	FR1	3	R1275D
2303.415	0.0	951592	WAITING_END	n/a	n/a	n/a	-999	9	[0, 0, 0]	n/a	FR1	3	R1275D
2303.415	10.429	951592	COUNTDOWN_START	n/a	n/a	n/a	-999	9	[0, 0, 0]	n/a	FR1	3	R1275D
2313.844	0.0	962020	ORIENT_START	n/a	n/a	n/a	-999	9	[0, 0, 0]	n/a	FR1	3	R1275D
2313.844	1.091	962020	COUNTDOWN_END	n/a	n/a	n/a	-999	9	[0, 0, 0]	n/a	FR1	3	R1275D
2314.935	0.0	963111	ORIENT_END	n/a	n/a	n/a	-999	9	[0, 0, 0]	n/a	FR1	3	R1275D
2314.935	1.048	963111	ENCODING_START	n/a	n/a	n/a	-999	9	[0, 0, 0]	n/a	FR1	3	R1275D
2315.983	1.635	964159	WORD	n/a	wordpools/wordpool_EN.txt	LEAF	1	9	[0, 0, 0]	n/a	FR1	3	R1275D
2317.618	1.142	965794	WORD_OFF	n/a	n/a	LEAF	1	9	[0, 0, 0]	n/a	FR1	3	R1275D
2318.76	1.625	966936	WORD	n/a	wordpools/wordpool_EN.txt	CONE	2	9	[0, 0, 0]	n/a	FR1	3	R1275D
2320.385	1.078	968561	WORD_OFF	n/a	n/a	CONE	2	9	[0, 0, 0]	n/a	FR1	3	R1275D
2321.463	1.622	969639	WORD	n/a	wordpools/wordpool_EN.txt	NOSE	3	9	[0, 0, 0]	n/a	FR1	3	R1275D
2323.085	1.012	971261	WORD_OFF	n/a	n/a	NOSE	3	9	[0, 0, 0]	n/a	FR1	3	R1275D
2324.097	1.622	972273	WORD	n/a	wordpools/wordpool_EN.txt	HORSE	4	9	[0, 0, 0]	n/a	FR1	3	R1275D
2325.719	0.756	973894	WORD_OFF	n/a	n/a	HORSE	4	9	[0, 0, 0]	n/a	FR1	3	R1275D
2326.475	1.628	974650	WORD	n/a	wordpools/wordpool_EN.txt	WHALE	5	9	[0, 0, 0]	n/a	FR1	3	R1275D
2328.103	1.047	976278	WORD_OFF	n/a	n/a	WHALE	5	9	[0, 0, 0]	n/a	FR1	3	R1275D
2329.15	1.637	977325	WORD	n/a	wordpools/wordpool_EN.txt	OAR	6	9	[0, 0, 0]	n/a	FR1	3	R1275D
2330.787	1.13	978962	WORD_OFF	n/a	n/a	OAR	6	9	[0, 0, 0]	n/a	FR1	3	R1275D
2331.917	1.62	980092	WORD	n/a	wordpools/wordpool_EN.txt	TIE	7	9	[0, 0, 0]	n/a	FR1	3	R1275D
2333.537	0.945	981712	WORD_OFF	n/a	n/a	TIE	7	9	[0, 0, 0]	n/a	FR1	3	R1275D
2334.482	1.622	982657	WORD	n/a	wordpools/wordpool_EN.txt	PARK	8	9	[0, 0, 0]	n/a	FR1	3	R1275D
2336.104	0.783	984279	WORD_OFF	n/a	n/a	PARK	8	9	[0, 0, 0]	n/a	FR1	3	R1275D
2336.887	1.634	985062	WORD	n/a	wordpools/wordpool_EN.txt	LAMP	9	9	[0, 0, 0]	n/a	FR1	3	R1275D
2338.521	1.109	986696	WORD_OFF	n/a	n/a	LAMP	9	9	[0, 0, 0]	n/a	FR1	3	R1275D
2339.63	1.625	987805	WORD	n/a	wordpools/wordpool_EN.txt	LEG	10	9	[0, 0, 0]	n/a	FR1	3	R1275D
2341.255	0.966	989430	WORD_OFF	n/a	n/a	LEG	10	9	[0, 0, 0]	n/a	FR1	3	R1275D
2342.221	1.619	990396	WORD	n/a	wordpools/wordpool_EN.txt	CAR	11	9	[0, 0, 0]	n/a	FR1	3	R1275D
2343.84	0.796	992015	WORD_OFF	n/a	n/a	CAR	11	9	[0, 0, 0]	n/a	FR1	3	R1275D
2344.636	1.637	992811	WORD	n/a	wordpools/wordpool_EN.txt	EGG	12	9	[0, 0, 0]	n/a	FR1	3	R1275D
2346.273	0.0	994447	ENCODING_END	n/a	n/a	n/a	-999	9	[0, 0, 0]	n/a	FR1	3	R1275D
2346.273	0.0	994447	DISTRACT_START	n/a	n/a	n/a	-999	9	[0, 0, 0]	n/a	FR1	3	R1275D
2346.273	0.001	994447	WORD_OFF	n/a	n/a	EGG	12	9	[0, 0, 0]	n/a	FR1	3	R1275D
2346.274	0.015	994448	START	n/a	n/a	n/a	-999	9	[-999, -999, -999]	n/a	FR1	3	R1275D
2346.289	3.901	994463	PROB	3.901	n/a	n/a	-999	9	[5, 6, 1]	12	FR1	3	R1275D
2350.19	5.234	998364	PROB	5.234	n/a	n/a	-999	9	[3, 5, 9]	17	FR1	3	R1275D
2355.424	5.801	1003598	PROB	5.801	n/a	n/a	-999	9	[7, 7, 6]	20	FR1	3	R1275D
2361.225	4.251	1009399	PROB	4.251	n/a	n/a	-999	9	[7, 7, 3]	17	FR1	3	R1275D
2365.476	4.016	1013650	PROB	4.016	n/a	n/a	-999	9	[6, 7, 1]	14	FR1	3	R1275D
2369.492	0.018	1017665	STOP	n/a	n/a	n/a	-999	9	[-999, -999, -999]	n/a	FR1	3	R1275D
2369.51	0.592	1017683	DISTRACT_END	n/a	n/a	n/a	-999	9	[0, 0, 0]	n/a	FR1	3	R1275D
2370.102	1.693	1018275	RETRIEVAL_ORIENT_START	n/a	n/a	n/a	-999	9	[0, 0, 0]	n/a	FR1	3	R1275D
2371.795	0.0	1019968	RETRIEVAL_ORIENT_END	n/a	n/a	n/a	-999	9	[0, 0, 0]	n/a	FR1	3	R1275D
2371.795	0.452	1019968	REC_START	n/a	n/a	n/a	-999	9	[0, 0, 0]	n/a	FR1	3	R1275D
2372.247	1.135	1020420	REC_WORD	1.135	n/a	LEAF	1	9	[0, 0, 0]	n/a	FR1	3	R1275D
2373.382	4.488	1021555	REC_WORD	4.488	n/a	CAR	11	9	[0, 0, 0]	n/a	FR1	3	R1275D
2377.87	5.737	1026043	REC_WORD	5.737	n/a	MOON	-999	9	[0, 0, 0]	n/a	FR1	3	R1275D
2383.607	18.202	1031780	REC_WORD	18.202	n/a	OAR	6	9	[0, 0, 0]	n/a	FR1	3	R1275D
2401.809	0.0	1049981	TRIAL_END	n/a	n/a	n/a	-999	9	[0, 0, 0]	n/a	FR1	3	R1275D
2401.809	0.016	1049981	REC_END	n/a	n/a	n/a	-999	9	[0, 0, 0]	n/a	FR1	3	R1275D
2401.825	0.0	1049997	TRIAL_START	n/a	n/a	n/a	-999	10	[0, 0, 0]	n/a	FR1	3	R1275D
2401.825	0.001	1049997	TRIAL	n/a	n/a	n/a	-999	10	[0, 0, 0]	n/a	FR1	3	R1275D
2401.826	2.374	1049998	WAITING_START	n/a	n/a	n/a	-999	10	[0, 0, 0]	n/a	FR1	3	R1275D
2404.2	0.001	1052372	WAITING_END	n/a	n/a	n/a	-999	10	[0, 0, 0]	n/a	FR1	3	R1275D
2404.201	10.428	1052373	COUNTDOWN_START	n/a	n/a	n/a	-999	10	[0, 0, 0]	n/a	FR1	3	R1275D
2414.629	0.0	1062800	COUNTDOWN_END	n/a	n/a	n/a	-999	10	[0, 0, 0]	n/a	FR1	3	R1275D
2414.629	1.106	1062800	ORIENT_START	n/a	n/a	n/a	-999	10	[0, 0, 0]	n/a	FR1	3	R1275D
2415.735	0.001	1063906	ORIENT_END	n/a	n/a	n/a	-999	10	[0, 0, 0]	n/a	FR1	3	R1275D
2415.736	0.971	1063907	ENCODING_START	n/a	n/a	n/a	-999	10	[0, 0, 0]	n/a	FR1	3	R1275D
2416.707	1.629	1064878	WORD	n/a	wordpools/wordpool_EN.txt	ROOM	1	10	[0, 0, 0]	n/a	FR1	3	R1275D
2418.336	1.034	1066507	WORD_OFF	n/a	n/a	ROOM	1	10	[0, 0, 0]	n/a	FR1	3	R1275D
2419.37	1.633	1067541	WORD	n/a	wordpools/wordpool_EN.txt	PIN	2	10	[0, 0, 0]	n/a	FR1	3	R1275D
2421.003	0.856	1069174	WORD_OFF	n/a	n/a	PIN	2	10	[0, 0, 0]	n/a	FR1	3	R1275D
2421.859	1.628	1070030	WORD	n/a	wordpools/wordpool_EN.txt	TREE	3	10	[0, 0, 0]	n/a	FR1	3	R1275D
2423.487	0.969	1071658	WORD_OFF	n/a	n/a	TREE	3	10	[0, 0, 0]	n/a	FR1	3	R1275D
2424.456	1.631	1072627	WORD	n/a	wordpools/wordpool_EN.txt	PASTE	4	10	[0, 0, 0]	n/a	FR1	3	R1275D
2426.087	1.035	1074258	WORD_OFF	n/a	n/a	PASTE	4	10	[0, 0, 0]	n/a	FR1	3	R1275D
2427.122	1.633	1075293	WORD	n/a	wordpools/wordpool_EN.txt	BRANCH	5	10	[0, 0, 0]	n/a	FR1	3	R1275D
2428.755	0.794	1076926	WORD_OFF	n/a	n/a	BRANCH	5	10	[0, 0, 0]	n/a	FR1	3	R1275D
2429.549	1.623	1077719	WORD	n/a	wordpools/wordpool_EN.txt	PIE	6	10	[0, 0, 0]	n/a	FR1	3	R1275D
2431.172	1.102	1079342	WORD_OFF	n/a	n/a	PIE	6	10	[0, 0, 0]	n/a	FR1	3	R1275D
2432.274	1.633	1080444	WORD	n/a	wordpools/wordpool_EN.txt	ICE	7	10	[0, 0, 0]	n/a	FR1	3	R1275D
2433.907	0.963	1082077	WORD_OFF	n/a	n/a	ICE	7	10	[0, 0, 0]	n/a	FR1	3	R1275D
2434.87	1.636	1083040	WORD	n/a	wordpools/wordpool_EN.txt	PIG	8	10	[0, 0, 0]	n/a	FR1	3	R1275D
2436.506	0.826	1084676	WORD_OFF	n/a	n/a	PIG	8	10	[0, 0, 0]	n/a	FR1	3	R1275D
2437.332	1.624	1085502	WORD	n/a	wordpools/wordpool_EN.txt	SEED	9	10	[0, 0, 0]	n/a	FR1	3	R1275D
2438.956	0.768	1087126	WORD_OFF	n/a	n/a	SEED	9	10	[0, 0, 0]	n/a	FR1	3	R1275D
2439.724	1.633	1087894	WORD	n/a	wordpools/wordpool_EN.txt	STAR	10	10	[0, 0, 0]	n/a	FR1	3	R1275D
2441.357	0.8	1089527	WORD_OFF	n/a	n/a	STAR	10	10	[0, 0, 0]	n/a	FR1	3	R1275D
2442.157	1.635	1090327	WORD	n/a	wordpools/wordpool_EN.txt	MULE	11	10	[0, 0, 0]	n/a	FR1	3	R1275D
2443.792	1.112	1091962	WORD_OFF	n/a	n/a	MULE	11	10	[0, 0, 0]	n/a	FR1	3	R1275D
2444.904	1.62	1093074	WORD	n/a	wordpools/wordpool_EN.txt	SHEET	12	10	[0, 0, 0]	n/a	FR1	3	R1275D
2446.524	0.001	1094694	WORD_OFF	n/a	n/a	SHEET	12	10	[0, 0, 0]	n/a	FR1	3	R1275D
2446.525	0.0	1094695	DISTRACT_START	n/a	n/a	n/a	-999	10	[0, 0, 0]	n/a	FR1	3	R1275D
2446.525	0.001	1094695	ENCODING_END	n/a	n/a	n/a	-999	10	[0, 0, 0]	n/a	FR1	3	R1275D
2446.526	0.015	1094696	START	n/a	n/a	n/a	-999	10	[-999, -999, -999]	n/a	FR1	3	R1275D
2446.541	6.319	1094711	PROB	6.319	n/a	n/a	-999	10	[8, 3, 5]	19	FR1	3	R1275D
2452.86	6.55	1101029	PROB	6.55	n/a	n/a	-999	10	[9, 9, 6]	24	FR1	3	R1275D
2459.41	4.151	1107579	PROB	4.151	n/a	n/a	-999	10	[5, 2, 8]	15	FR1	3	R1275D
2463.561	4.105	1111730	PROB	4.105	n/a	n/a	-999	10	[4, 8, 4]	16	FR1	3	R1275D
2467.666	0.012	1115835	STOP	n/a	n/a	n/a	-999	10	[-999, -999, -999]	n/a	FR1	3	R1275D
2467.678	0.626	1115847	DISTRACT_END	n/a	n/a	n/a	-999	10	[0, 0, 0]	n/a	FR1	3	R1275D
2468.304	1.559	1116473	RETRIEVAL_ORIENT_START	n/a	n/a	n/a	-999	10	[0, 0, 0]	n/a	FR1	3	R1275D
2469.863	0.0	1118032	RETRIEVAL_ORIENT_END	n/a	n/a	n/a	-999	10	[0, 0, 0]	n/a	FR1	3	R1275D
2469.863	0.433	1118032	REC_START	n/a	n/a	n/a	-999	10	[0, 0, 0]	n/a	FR1	3	R1275D
2470.296	1.573	1118465	REC_WORD	1.573	n/a	MULE	11	10	[0, 0, 0]	n/a	FR1	3	R1275D
2471.869	28.008	1120037	REC_WORD	28.008	n/a	GUARD	-999	10	[0, 0, 0]	n/a	FR1	3	R1275D
2499.877	0.0	1148044	REC_END	n/a	n/a	n/a	-999	10	[0, 0, 0]	n/a	FR1	3	R1275D
2499.877	0.016	1148044	TRIAL_END	n/a	n/a	n/a	-999	10	[0, 0, 0]	n/a	FR1	3	R1275D
2499.893	0.0	1148060	TRIAL_START	n/a	n/a	n/a	-999	11	[0, 0, 0]	n/a	FR1	3	R1275D
2499.893	0.0	1148060	TRIAL	n/a	n/a	n/a	-999	11	[0, 0, 0]	n/a	FR1	3	R1275D
2499.893	1.575	1148060	WAITING_START	n/a	n/a	n/a	-999	11	[0, 0, 0]	n/a	FR1	3	R1275D
2501.468	0.0	1149635	WAITING_END	n/a	n/a	n/a	-999	11	[0, 0, 0]	n/a	FR1	3	R1275D
2501.468	10.43	1149635	COUNTDOWN_START	n/a	n/a	n/a	-999	11	[0, 0, 0]	n/a	FR1	3	R1275D
2511.898	0.0	1160065	COUNTDOWN_END	n/a	n/a	n/a	-999	11	[0, 0, 0]	n/a	FR1	3	R1275D
2511.898	1.189	1160065	ORIENT_START	n/a	n/a	n/a	-999	11	[0, 0, 0]	n/a	FR1	3	R1275D
2513.087	0.0	1161253	ENCODING_START	n/a	n/a	n/a	-999	11	[0, 0, 0]	n/a	FR1	3	R1275D
2513.087	0.788	1161253	ORIENT_END	n/a	n/a	n/a	-999	11	[0, 0, 0]	n/a	FR1	3	R1275D
2513.875	1.629	1162041	WORD	n/a	wordpools/wordpool_EN.txt	SMOKE	1	11	[0, 0, 0]	n/a	FR1	3	R1275D
2515.504	0.881	1163670	WORD_OFF	n/a	n/a	SMOKE	1	11	[0, 0, 0]	n/a	FR1	3	R1275D
2516.385	1.636	1164551	WORD	n/a	wordpools/wordpool_EN.txt	DEER	2	11	[0, 0, 0]	n/a	FR1	3	R1275D
2518.021	0.912	1166187	WORD_OFF	n/a	n/a	DEER	2	11	[0, 0, 0]	n/a	FR1	3	R1275D
2518.933	1.622	1167099	WORD	n/a	wordpools/wordpool_EN.txt	CHAIR	3	11	[0, 0, 0]	n/a	FR1	3	R1275D
2520.555	0.872	1168721	WORD_OFF	n/a	n/a	CHAIR	3	11	[0, 0, 0]	n/a	FR1	3	R1275D
2521.427	1.628	1169593	WORD	n/a	wordpools/wordpool_EN.txt	STAIR	4	11	[0, 0, 0]	n/a	FR1	3	R1275D
2523.055	1.124	1171221	WORD_OFF	n/a	n/a	STAIR	4	11	[0, 0, 0]	n/a	FR1	3	R1275D
2524.179	1.628	1172345	WORD	n/a	wordpools/wordpool_EN.txt	STOVE	5	11	[0, 0, 0]	n/a	FR1	3	R1275D
2525.807	0.756	1173973	WORD_OFF	n/a	n/a	STOVE	5	11	[0, 0, 0]	n/a	FR1	3	R1275D
2526.563	1.626	1174729	WORD	n/a	wordpools/wordpool_EN.txt	DITCH	6	11	[0, 0, 0]	n/a	FR1	3	R1275D
2528.189	1.018	1176355	WORD_OFF	n/a	n/a	DITCH	6	11	[0, 0, 0]	n/a	FR1	3	R1275D
2529.207	1.634	1177373	WORD	n/a	wordpools/wordpool_EN.txt	COIN	7	11	[0, 0, 0]	n/a	FR1	3	R1275D
2530.841	0.984	1179007	WORD_OFF	n/a	n/a	COIN	7	11	[0, 0, 0]	n/a	FR1	3	R1275D
2531.825	1.632	1179991	WORD	n/a	wordpools/wordpool_EN.txt	VAN	8	11	[0, 0, 0]	n/a	FR1	3	R1275D
2533.457	0.773	1181623	WORD_OFF	n/a	n/a	VAN	8	11	[0, 0, 0]	n/a	FR1	3	R1275D
2534.23	1.612	1182395	WORD	n/a	wordpools/wordpool_EN.txt	SPRING	9	11	[0, 0, 0]	n/a	FR1	3	R1275D
2535.842	1.003	1184007	WORD_OFF	n/a	n/a	SPRING	9	11	[0, 0, 0]	n/a	FR1	3	R1275D
2536.845	1.629	1185010	WORD	n/a	wordpools/wordpool_EN.txt	ROSE	10	11	[0, 0, 0]	n/a	FR1	3	R1275D
2538.474	0.949	1186639	WORD_OFF	n/a	n/a	ROSE	10	11	[0, 0, 0]	n/a	FR1	3	R1275D
2539.423	1.635	1187588	WORD	n/a	wordpools/wordpool_EN.txt	VINE	11	11	[0, 0, 0]	n/a	FR1	3	R1275D
2541.058	0.831	1189223	WORD_OFF	n/a	n/a	VINE	11	11	[0, 0, 0]	n/a	FR1	3	R1275D
2541.889	1.62	1190054	WORD	n/a	wordpools/wordpool_EN.txt	TENT	12	11	[0, 0, 0]	n/a	FR1	3	R1275D
2543.509	0.0	1191674	WORD_OFF	n/a	n/a	TENT	12	11	[0, 0, 0]	n/a	FR1	3	R1275D
2543.509	0.001	1191674	ENCODING_END	n/a	n/a	n/a	-999	11	[0, 0, 0]	n/a	FR1	3	R1275D
2543.51	0.0	1191675	DISTRACT_START	n/a	n/a	n/a	-999	11	[0, 0, 0]	n/a	FR1	3	R1275D
2543.51	0.015	1191675	START	n/a	n/a	n/a	-999	11	[-999, -999, -999]	n/a	FR1	3	R1275D
2543.525	4.868	1191690	PROB	4.868	n/a	n/a	-999	11	[5, 8, 7]	20	FR1	3	R1275D
2548.393	3.667	1196558	PROB	3.667	n/a	n/a	-999	11	[6, 1, 4]	11	FR1	3	R1275D
2552.06	5.201	1200225	PROB	5.201	n/a	n/a	-999	11	[3, 3, 9]	15	FR1	3	R1275D
2557.261	5.368	1205425	PROB	5.368	n/a	n/a	-999	11	[5, 6, 7]	18	FR1	3	R1275D
2562.629	7.71	1210793	PROB	7.71	n/a	n/a	-999	11	[2, 3, 3]	8	FR1	3	R1275D
2570.339	0.008	1218503	STOP	n/a	n/a	n/a	-999	11	[-999, -999, -999]	n/a	FR1	3	R1275D
2570.347	0.588	1218511	DISTRACT_END	n/a	n/a	n/a	-999	11	[0, 0, 0]	n/a	FR1	3	R1275D
2570.935	1.696	1219099	RETRIEVAL_ORIENT_START	n/a	n/a	n/a	-999	11	[0, 0, 0]	n/a	FR1	3	R1275D
2572.631	0.0	1220795	REC_START	n/a	n/a	n/a	-999	11	[0, 0, 0]	n/a	FR1	3	R1275D
2572.631	0.51	1220795	RETRIEVAL_ORIENT_END	n/a	n/a	n/a	-999	11	[0, 0, 0]	n/a	FR1	3	R1275D
2573.141	0.907	1221305	REC_WORD	0.907	n/a	CAR	-999	11	[0, 0, 0]	n/a	FR1	3	R1275D
2574.048	12.901	1222212	REC_WORD	12.901	n/a	VAN	8	11	[0, 0, 0]	n/a	FR1	3	R1275D
2586.949	1.0	1235112	REC_WORD_VV	1.0	n/a	<>	-999	11	[0, 0, 0]	n/a	FR1	3	R1275D
2587.949	0.305	1236112	REC_WORD_VV	0.305	n/a	<>	-999	11	[0, 0, 0]	n/a	FR1	3	R1275D
2588.254	0.403	1236417	REC_WORD	0.403	n/a	CAR	-999	11	[0, 0, 0]	n/a	FR1	3	R1275D
2588.657	8.625	1236820	REC_WORD	8.625	n/a	VAN	8	11	[0, 0, 0]	n/a	FR1	3	R1275D
2597.282	5.361	1245444	REC_WORD	5.361	n/a	DOG	-999	11	[0, 0, 0]	n/a	FR1	3	R1275D
2602.643	0.001	1250805	REC_END	n/a	n/a	n/a	-999	11	[0, 0, 0]	n/a	FR1	3	R1275D
2602.644	0.016	1250806	TRIAL_END	n/a	n/a	n/a	-999	11	[0, 0, 0]	n/a	FR1	3	R1275D
2602.66	0.0	1250822	TRIAL_START	n/a	n/a	n/a	-999	12	[0, 0, 0]	n/a	FR1	3	R1275D
2602.66	0.001	1250822	TRIAL	n/a	n/a	n/a	-999	12	[0, 0, 0]	n/a	FR1	3	R1275D
2602.661	1.575	1250823	WAITING_START	n/a	n/a	n/a	-999	12	[0, 0, 0]	n/a	FR1	3	R1275D
2604.236	0.001	1252398	WAITING_END	n/a	n/a	n/a	-999	12	[0, 0, 0]	n/a	FR1	3	R1275D
2604.237	10.429	1252399	COUNTDOWN_START	n/a	n/a	n/a	-999	12	[0, 0, 0]	n/a	FR1	3	R1275D
2614.666	0.0	1262828	COUNTDOWN_END	n/a	n/a	n/a	-999	12	[0, 0, 0]	n/a	FR1	3	R1275D
2614.666	1.257	1262828	ORIENT_START	n/a	n/a	n/a	-999	12	[0, 0, 0]	n/a	FR1	3	R1275D
2615.923	0.0	1264085	ENCODING_START	n/a	n/a	n/a	-999	12	[0, 0, 0]	n/a	FR1	3	R1275D
2615.923	0.841	1264085	ORIENT_END	n/a	n/a	n/a	-999	12	[0, 0, 0]	n/a	FR1	3	R1275D
2616.764	1.625	1264926	WORD	n/a	wordpools/wordpool_EN.txt	WING	1	12	[0, 0, 0]	n/a	FR1	3	R1275D
2618.389	0.903	1266550	WORD_OFF	n/a	n/a	WING	1	12	[0, 0, 0]	n/a	FR1	3	R1275D
2619.292	1.632	1267453	WORD	n/a	wordpools/wordpool_EN.txt	SEA	2	12	[0, 0, 0]	n/a	FR1	3	R1275D
2620.924	0.955	1269085	WORD_OFF	n/a	n/a	SEA	2	12	[0, 0, 0]	n/a	FR1	3	R1275D
2621.879	1.628	1270040	WORD	n/a	wordpools/wordpool_EN.txt	CAKE	3	12	[0, 0, 0]	n/a	FR1	3	R1275D
2623.507	1.124	1271668	WORD_OFF	n/a	n/a	CAKE	3	12	[0, 0, 0]	n/a	FR1	3	R1275D
2624.631	1.626	1272792	WORD	n/a	wordpools/wordpool_EN.txt	THREAD	4	12	[0, 0, 0]	n/a	FR1	3	R1275D
2626.257	1.037	1274418	WORD_OFF	n/a	n/a	THREAD	4	12	[0, 0, 0]	n/a	FR1	3	R1275D
2627.294	1.615	1275455	WORD	n/a	wordpools/wordpool_EN.txt	FLUTE	5	12	[0, 0, 0]	n/a	FR1	3	R1275D
2628.909	0.999	1277070	WORD_OFF	n/a	n/a	FLUTE	5	12	[0, 0, 0]	n/a	FR1	3	R1275D
2629.908	1.634	1278069	WORD	n/a	wordpools/wordpool_EN.txt	POND	6	12	[0, 0, 0]	n/a	FR1	3	R1275D
2631.542	0.823	1279703	WORD_OFF	n/a	n/a	POND	6	12	[0, 0, 0]	n/a	FR1	3	R1275D
2632.365	1.627	1280526	WORD	n/a	wordpools/wordpool_EN.txt	HOOF	7	12	[0, 0, 0]	n/a	FR1	3	R1275D
2633.992	1.015	1282153	WORD_OFF	n/a	n/a	HOOF	7	12	[0, 0, 0]	n/a	FR1	3	R1275D
2635.007	1.635	1283168	WORD	n/a	wordpools/wordpool_EN.txt	SKUNK	8	12	[0, 0, 0]	n/a	FR1	3	R1275D
2636.642	0.8	1284803	WORD_OFF	n/a	n/a	SKUNK	8	12	[0, 0, 0]	n/a	FR1	3	R1275D
2637.442	1.634	1285603	WORD	n/a	wordpools/wordpool_EN.txt	ROCK	9	12	[0, 0, 0]	n/a	FR1	3	R1275D
2639.076	0.884	1287236	WORD_OFF	n/a	n/a	ROCK	9	12	[0, 0, 0]	n/a	FR1	3	R1275D
2639.96	1.633	1288120	WORD	n/a	wordpools/wordpool_EN.txt	JUDGE	10	12	[0, 0, 0]	n/a	FR1	3	R1275D
2641.593	0.867	1289753	WORD_OFF	n/a	n/a	JUDGE	10	12	[0, 0, 0]	n/a	FR1	3	R1275D
2642.46	1.634	1290620	WORD	n/a	wordpools/wordpool_EN.txt	HORN	11	12	[0, 0, 0]	n/a	FR1	3	R1275D
2644.094	1.114	1292254	WORD_OFF	n/a	n/a	HORN	11	12	[0, 0, 0]	n/a	FR1	3	R1275D
2645.208	1.637	1293368	WORD	n/a	wordpools/wordpool_EN.txt	BOARD	12	12	[0, 0, 0]	n/a	FR1	3	R1275D
2646.845	0.001	1295005	WORD_OFF	n/a	n/a	BOARD	12	12	[0, 0, 0]	n/a	FR1	3	R1275D
2646.846	0.0	1295006	ENCODING_END	n/a	n/a	n/a	-999	12	[0, 0, 0]	n/a	FR1	3	R1275D
2646.846	0.0	1295006	DISTRACT_START	n/a	n/a	n/a	-999	12	[0, 0, 0]	n/a	FR1	3	R1275D
2646.846	0.016	1295006	START	n/a	n/a	n/a	-999	12	[-999, -999, -999]	n/a	FR1	3	R1275D
2646.862	4.55	1295022	PROB	4.55	n/a	n/a	-999	12	[1, 3, 6]	10	FR1	3	R1275D
2651.412	6.034	1299572	PROB	6.034	n/a	n/a	-999	12	[4, 7, 2]	13	FR1	3	R1275D
2657.446	5.901	1305606	PROB	5.901	n/a	n/a	-999	12	[1, 7, 9]	17	FR1	3	R1275D
2663.347	4.426	1311506	PROB	4.426	n/a	n/a	-999	12	[6, 7, 3]	16	FR1	3	R1275D
2667.773	0.009	1315932	STOP	n/a	n/a	n/a	-999	12	[-999, -999, -999]	n/a	FR1	3	R1275D
2667.782	0.615	1315941	DISTRACT_END	n/a	n/a	n/a	-999	12	[0, 0, 0]	n/a	FR1	3	R1275D
2668.397	1.585	1316556	RETRIEVAL_ORIENT_START	n/a	n/a	n/a	-999	12	[0, 0, 0]	n/a	FR1	3	R1275D
2669.982	0.0	1318141	RETRIEVAL_ORIENT_END	n/a	n/a	n/a	-999	12	[0, 0, 0]	n/a	FR1	3	R1275D
2669.982	0.397	1318141	REC_START	n/a	n/a	n/a	-999	12	[0, 0, 0]	n/a	FR1	3	R1275D
2670.379	1.316	1318538	REC_WORD	1.316	n/a	SKUNK	8	12	[0, 0, 0]	n/a	FR1	3	R1275D
2671.695	4.351	1319854	REC_WORD	4.351	n/a	BOOF	-999	12	[0, 0, 0]	n/a	FR1	3	R1275D
2676.046	7.171	1324205	REC_WORD	7.171	n/a	POND	6	12	[0, 0, 0]	n/a	FR1	3	R1275D
2683.217	16.779	1331375	REC_WORD	16.779	n/a	HEEL	-999	12	[0, 0, 0]	n/a	FR1	3	R1275D
2699.996	0.001	1348154	REC_END	n/a	n/a	n/a	-999	12	[0, 0, 0]	n/a	FR1	3	R1275D
2699.997	0.014	1348155	TRIAL_END	n/a	n/a	n/a	-999	12	[0, 0, 0]	n/a	FR1	3	R1275D
2700.011	0.0	1348169	WAITING_START	n/a	n/a	n/a	-999	13	[0, 0, 0]	n/a	FR1	3	R1275D
2700.011	0.0	1348169	TRIAL_START	n/a	n/a	n/a	-999	13	[0, 0, 0]	n/a	FR1	3	R1275D
2700.011	1.293	1348169	TRIAL	n/a	n/a	n/a	-999	13	[0, 0, 0]	n/a	FR1	3	R1275D
2701.304	0.001	1349461	WAITING_END	n/a	n/a	n/a	-999	13	[0, 0, 0]	n/a	FR1	3	R1275D
2701.305	10.429	1349462	COUNTDOWN_START	n/a	n/a	n/a	-999	13	[0, 0, 0]	n/a	FR1	3	R1275D
2711.734	0.001	1359891	COUNTDOWN_END	n/a	n/a	n/a	-999	13	[0, 0, 0]	n/a	FR1	3	R1275D
2711.735	1.106	1359892	ORIENT_START	n/a	n/a	n/a	-999	13	[0, 0, 0]	n/a	FR1	3	R1275D
2712.841	0.0	1360998	ORIENT_END	n/a	n/a	n/a	-999	13	[0, 0, 0]	n/a	FR1	3	R1275D
2712.841	1.06	1360998	ENCODING_START	n/a	n/a	n/a	-999	13	[0, 0, 0]	n/a	FR1	3	R1275D
2713.901	1.622	1362058	WORD	n/a	wordpools/wordpool_EN.txt	SHARK	1	13	[0, 0, 0]	n/a	FR1	3	R1275D
2715.523	0.782	1363680	WORD_OFF	n/a	n/a	SHARK	1	13	[0, 0, 0]	n/a	FR1	3	R1275D
2716.305	1.62	1364462	WORD	n/a	wordpools/wordpool_EN.txt	DOLL	2	13	[0, 0, 0]	n/a	FR1	3	R1275D
2717.925	1.028	1366082	WORD_OFF	n/a	n/a	DOLL	2	13	[0, 0, 0]	n/a	FR1	3	R1275D
2718.953	1.638	1367110	WORD	n/a	wordpools/wordpool_EN.txt	SHEEP	3	13	[0, 0, 0]	n/a	FR1	3	R1275D
2720.591	0.953	1368748	WORD_OFF	n/a	n/a	SHEEP	3	13	[0, 0, 0]	n/a	FR1	3	R1275D
2721.544	1.631	1369701	WORD	n/a	wordpools/wordpool_EN.txt	DESK	4	13	[0, 0, 0]	n/a	FR1	3	R1275D
2723.175	0.769	1371331	WORD_OFF	n/a	n/a	DESK	4	13	[0, 0, 0]	n/a	FR1	3	R1275D
2723.944	1.631	1372100	WORD	n/a	wordpools/wordpool_EN.txt	BARN	5	13	[0, 0, 0]	n/a	FR1	3	R1275D
2725.575	0.784	1373731	WORD_OFF	n/a	n/a	BARN	5	13	[0, 0, 0]	n/a	FR1	3	R1275D
2726.359	1.633	1374515	WORD	n/a	wordpools/wordpool_EN.txt	DART	6	13	[0, 0, 0]	n/a	FR1	3	R1275D
2727.992	1.11	1376148	WORD_OFF	n/a	n/a	DART	6	13	[0, 0, 0]	n/a	FR1	3	R1275D
2729.102	1.624	1377258	WORD	n/a	wordpools/wordpool_EN.txt	TOAD	7	13	[0, 0, 0]	n/a	FR1	3	R1275D
2730.726	1.029	1378882	WORD_OFF	n/a	n/a	TOAD	7	13	[0, 0, 0]	n/a	FR1	3	R1275D
2731.755	1.622	1379911	WORD	n/a	wordpools/wordpool_EN.txt	BRICK	8	13	[0, 0, 0]	n/a	FR1	3	R1275D
2733.377	0.886	1381533	WORD_OFF	n/a	n/a	BRICK	8	13	[0, 0, 0]	n/a	FR1	3	R1275D
2734.263	1.632	1382419	WORD	n/a	wordpools/wordpool_EN.txt	LIP	9	13	[0, 0, 0]	n/a	FR1	3	R1275D
2735.895	1.077	1384051	WORD_OFF	n/a	n/a	LIP	9	13	[0, 0, 0]	n/a	FR1	3	R1275D
2736.972	1.622	1385128	WORD	n/a	wordpools/wordpool_EN.txt	SNAIL	10	13	[0, 0, 0]	n/a	FR1	3	R1275D
2738.594	0.788	1386750	WORD_OFF	n/a	n/a	SNAIL	10	13	[0, 0, 0]	n/a	FR1	3	R1275D
2739.382	1.629	1387538	WORD	n/a	wordpools/wordpool_EN.txt	NEST	11	13	[0, 0, 0]	n/a	FR1	3	R1275D
2741.011	0.781	1389167	WORD_OFF	n/a	n/a	NEST	11	13	[0, 0, 0]	n/a	FR1	3	R1275D
2741.792	1.637	1389948	WORD	n/a	wordpools/wordpool_EN.txt	SPEAR	12	13	[0, 0, 0]	n/a	FR1	3	R1275D
2743.429	0.0	1391584	WORD_OFF	n/a	n/a	SPEAR	12	13	[0, 0, 0]	n/a	FR1	3	R1275D
2743.429	0.0	1391584	ENCODING_END	n/a	n/a	n/a	-999	13	[0, 0, 0]	n/a	FR1	3	R1275D
2743.429	0.0	1391584	DISTRACT_START	n/a	n/a	n/a	-999	13	[0, 0, 0]	n/a	FR1	3	R1275D
2743.429	0.016	1391584	START	n/a	n/a	n/a	-999	13	[-999, -999, -999]	n/a	FR1	3	R1275D
2743.445	5.501	1391600	PROB	5.501	n/a	n/a	-999	13	[1, 9, 8]	18	FR1	3	R1275D
2748.946	3.801	1397101	PROB	3.801	n/a	n/a	-999	13	[4, 5, 2]	11	FR1	3	R1275D
2752.747	3.817	1400902	PROB	3.817	n/a	n/a	-999	13	[3, 1, 6]	10	FR1	3	R1275D
2756.564	4.434	1404719	PROB	4.434	n/a	n/a	-999	13	[2, 9, 1]	12	FR1	3	R1275D
2760.998	5.761	1409153	PROB	5.761	n/a	n/a	-999	13	[2, 5, 9]	16	FR1	3	R1275D
2766.759	0.007	1414913	STOP	n/a	n/a	n/a	-999	13	[-999, -999, -999]	n/a	FR1	3	R1275D
2766.766	0.581	1414920	DISTRACT_END	n/a	n/a	n/a	-999	13	[0, 0, 0]	n/a	FR1	3	R1275D
2767.347	1.57	1415501	RETRIEVAL_ORIENT_START	n/a	n/a	n/a	-999	13	[0, 0, 0]	n/a	FR1	3	R1275D
2768.917	0.001	1417071	RETRIEVAL_ORIENT_END	n/a	n/a	n/a	-999	13	[0, 0, 0]	n/a	FR1	3	R1275D
2768.918	0.0	1417072	REC_START	n/a	n/a	n/a	-999	13	[0, 0, 0]	n/a	FR1	3	R1275D
2768.918	10.505	1417072	REC_WORD	10.505	n/a	SPEAR	12	13	[0, 0, 0]	n/a	FR1	3	R1275D
2779.423	19.508	1427577	REC_WORD	19.508	n/a	NUT	-999	13	[0, 0, 0]	n/a	FR1	3	R1275D
2798.931	0.0	1447084	REC_END	n/a	n/a	n/a	-999	13	[0, 0, 0]	n/a	FR1	3	R1275D
2798.931	0.014	1447084	TRIAL_END	n/a	n/a	n/a	-999	13	[0, 0, 0]	n/a	FR1	3	R1275D
2798.945	0.0	1447098	TRIAL	n/a	n/a	n/a	-999	14	[0, 0, 0]	n/a	FR1	3	R1275D
2798.945	0.0	1447098	WAITING_START	n/a	n/a	n/a	-999	14	[0, 0, 0]	n/a	FR1	3	R1275D
2798.945	1.311	1447098	TRIAL_START	n/a	n/a	n/a	-999	14	[0, 0, 0]	n/a	FR1	3	R1275D
2800.256	0.0	1448409	WAITING_END	n/a	n/a	n/a	-999	14	[0, 0, 0]	n/a	FR1	3	R1275D
2800.256	10.429	1448409	COUNTDOWN_START	n/a	n/a	n/a	-999	14	[0, 0, 0]	n/a	FR1	3	R1275D
2810.685	0.0	1458837	COUNTDOWN_END	n/a	n/a	n/a	-999	14	[0, 0, 0]	n/a	FR1	3	R1275D
2810.685	1.073	1458837	ORIENT_START	n/a	n/a	n/a	-999	14	[0, 0, 0]	n/a	FR1	3	R1275D
2811.758	0.0	1459910	ORIENT_END	n/a	n/a	n/a	-999	14	[0, 0, 0]	n/a	FR1	3	R1275D
2811.758	0.88	1459910	ENCODING_START	n/a	n/a	n/a	-999	14	[0, 0, 0]	n/a	FR1	3	R1275D
2812.638	1.637	1460790	WORD	n/a	wordpools/wordpool_EN.txt	BEAR	1	14	[0, 0, 0]	n/a	FR1	3	R1275D
2814.275	0.901	1462427	WORD_OFF	n/a	n/a	BEAR	1	14	[0, 0, 0]	n/a	FR1	3	R1275D
2815.176	1.617	1463328	WORD	n/a	wordpools/wordpool_EN.txt	MAZE	2	14	[0, 0, 0]	n/a	FR1	3	R1275D
2816.793	0.88	1464945	WORD_OFF	n/a	n/a	MAZE	2	14	[0, 0, 0]	n/a	FR1	3	R1275D
2817.673	1.636	1465825	WORD	n/a	wordpools/wordpool_EN.txt	CUP	3	14	[0, 0, 0]	n/a	FR1	3	R1275D
2819.309	1.105	1467461	WORD_OFF	n/a	n/a	CUP	3	14	[0, 0, 0]	n/a	FR1	3	R1275D
2820.414	1.629	1468566	WORD	n/a	wordpools/wordpool_EN.txt	ZOO	4	14	[0, 0, 0]	n/a	FR1	3	R1275D
2822.043	0.789	1470195	WORD_OFF	n/a	n/a	ZOO	4	14	[0, 0, 0]	n/a	FR1	3	R1275D
2822.832	1.628	1470984	WORD	n/a	wordpools/wordpool_EN.txt	CLOTH	5	14	[0, 0, 0]	n/a	FR1	3	R1275D
2824.46	1.053	1472612	WORD_OFF	n/a	n/a	CLOTH	5	14	[0, 0, 0]	n/a	FR1	3	R1275D
2825.513	1.631	1473665	WORD	n/a	wordpools/wordpool_EN.txt	MOOSE	6	14	[0, 0, 0]	n/a	FR1	3	R1275D
2827.144	0.962	1475295	WORD_OFF	n/a	n/a	MOOSE	6	14	[0, 0, 0]	n/a	FR1	3	R1275D
2828.106	1.622	1476257	WORD	n/a	wordpools/wordpool_EN.txt	FENCE	7	14	[0, 0, 0]	n/a	FR1	3	R1275D
2829.728	0.928	1477879	WORD_OFF	n/a	n/a	FENCE	7	14	[0, 0, 0]	n/a	FR1	3	R1275D
2830.656	1.622	1478807	WORD	n/a	wordpools/wordpool_EN.txt	SUIT	8	14	[0, 0, 0]	n/a	FR1	3	R1275D
2832.278	0.863	1480429	WORD_OFF	n/a	n/a	SUIT	8	14	[0, 0, 0]	n/a	FR1	3	R1275D
2833.141	1.638	1481292	WORD	n/a	wordpools/wordpool_EN.txt	SPARK	9	14	[0, 0, 0]	n/a	FR1	3	R1275D
2834.779	1.128	1482930	WORD_OFF	n/a	n/a	SPARK	9	14	[0, 0, 0]	n/a	FR1	3	R1275D
2835.907	1.622	1484058	WORD	n/a	wordpools/wordpool_EN.txt	SLUSH	10	14	[0, 0, 0]	n/a	FR1	3	R1275D
2837.529	0.88	1485680	WORD_OFF	n/a	n/a	SLUSH	10	14	[0, 0, 0]	n/a	FR1	3	R1275D
2838.409	1.637	1486560	WORD	n/a	wordpools/wordpool_EN.txt	STORM	11	14	[0, 0, 0]	n/a	FR1	3	R1275D
2840.046	1.017	1488197	WORD_OFF	n/a	n/a	STORM	11	14	[0, 0, 0]	n/a	FR1	3	R1275D
2841.063	1.634	1489214	WORD	n/a	wordpools/wordpool_EN.txt	TOY	12	14	[0, 0, 0]	n/a	FR1	3	R1275D
2842.697	0.0	1490848	WORD_OFF	n/a	n/a	TOY	12	14	[0, 0, 0]	n/a	FR1	3	R1275D
2842.697	0.0	1490848	ENCODING_END	n/a	n/a	n/a	-999	14	[0, 0, 0]	n/a	FR1	3	R1275D
2842.697	0.001	1490848	DISTRACT_START	n/a	n/a	n/a	-999	14	[0, 0, 0]	n/a	FR1	3	R1275D
2842.698	0.015	1490849	START	n/a	n/a	n/a	-999	14	[-999, -999, -999]	n/a	FR1	3	R1275D
2842.713	5.501	1490864	PROB	5.501	n/a	n/a	-999	14	[6, 3, 4]	13	FR1	3	R1275D
2848.214	4.619	1496364	PROB	4.619	n/a	n/a	-999	14	[7, 7, 2]	16	FR1	3	R1275D
2852.833	6.183	1500983	PROB	6.183	n/a	n/a	-999	14	[7, 8, 9]	22	FR1	3	R1275D
2859.016	3.759	1507166	PROB	3.759	n/a	n/a	-999	14	[6, 4, 6]	16	FR1	3	R1275D
2862.775	0.01	1510925	STOP	n/a	n/a	n/a	-999	14	[-999, -999, -999]	n/a	FR1	3	R1275D
2862.785	0.579	1510935	DISTRACT_END	n/a	n/a	n/a	-999	14	[0, 0, 0]	n/a	FR1	3	R1275D
2863.364	1.703	1511514	RETRIEVAL_ORIENT_START	n/a	n/a	n/a	-999	14	[0, 0, 0]	n/a	FR1	3	R1275D
2865.067	0.001	1513217	RETRIEVAL_ORIENT_END	n/a	n/a	n/a	-999	14	[0, 0, 0]	n/a	FR1	3	R1275D
2865.068	0.978	1513218	REC_START	n/a	n/a	n/a	-999	14	[0, 0, 0]	n/a	FR1	3	R1275D
2866.046	29.033	1514196	REC_WORD	29.033	n/a	SLUSH	10	14	[0, 0, 0]	n/a	FR1	3	R1275D
2895.079	0.001	1543227	REC_END	n/a	n/a	n/a	-999	14	[0, 0, 0]	n/a	FR1	3	R1275D
2895.08	0.015	1543228	TRIAL_END	n/a	n/a	n/a	-999	14	[0, 0, 0]	n/a	FR1	3	R1275D
2895.095	0.001	1543243	TRIAL_START	n/a	n/a	n/a	-999	15	[0, 0, 0]	n/a	FR1	3	R1275D
2895.096	0.0	1543244	TRIAL	n/a	n/a	n/a	-999	15	[0, 0, 0]	n/a	FR1	3	R1275D
2895.096	1.494	1543244	WAITING_START	n/a	n/a	n/a	-999	15	[0, 0, 0]	n/a	FR1	3	R1275D
2896.59	0.0	1544738	WAITING_END	n/a	n/a	n/a	-999	15	[0, 0, 0]	n/a	FR1	3	R1275D
2896.59	10.429	1544738	COUNTDOWN_START	n/a	n/a	n/a	-999	15	[0, 0, 0]	n/a	FR1	3	R1275D
2907.019	0.001	1555167	COUNTDOWN_END	n/a	n/a	n/a	-999	15	[0, 0, 0]	n/a	FR1	3	R1275D
2907.02	1.239	1555168	ORIENT_START	n/a	n/a	n/a	-999	15	[0, 0, 0]	n/a	FR1	3	R1275D
2908.259	0.0	1556407	ORIENT_END	n/a	n/a	n/a	-999	15	[0, 0, 0]	n/a	FR1	3	R1275D
2908.259	1.112	1556407	ENCODING_START	n/a	n/a	n/a	-999	15	[0, 0, 0]	n/a	FR1	3	R1275D
2909.371	1.638	1557519	WORD	n/a	wordpools/wordpool_EN.txt	MUD	1	15	[0, 0, 0]	n/a	FR1	3	R1275D
2911.009	1.09	1559156	WORD_OFF	n/a	n/a	MUD	1	15	[0, 0, 0]	n/a	FR1	3	R1275D
2912.099	1.627	1560246	WORD	n/a	wordpools/wordpool_EN.txt	CHIN	2	15	[0, 0, 0]	n/a	FR1	3	R1275D
2913.726	0.753	1561873	WORD_OFF	n/a	n/a	CHIN	2	15	[0, 0, 0]	n/a	FR1	3	R1275D
2914.479	1.631	1562626	WORD	n/a	wordpools/wordpool_EN.txt	DIME	3	15	[0, 0, 0]	n/a	FR1	3	R1275D
2916.11	0.892	1564257	WORD_OFF	n/a	n/a	DIME	3	15	[0, 0, 0]	n/a	FR1	3	R1275D
2917.002	1.625	1565149	WORD	n/a	wordpools/wordpool_EN.txt	PIT	4	15	[0, 0, 0]	n/a	FR1	3	R1275D
2918.627	0.785	1566774	WORD_OFF	n/a	n/a	PIT	4	15	[0, 0, 0]	n/a	FR1	3	R1275D
2919.412	1.632	1567559	WORD	n/a	wordpools/wordpool_EN.txt	POLE	5	15	[0, 0, 0]	n/a	FR1	3	R1275D
2921.044	1.144	1569191	WORD_OFF	n/a	n/a	POLE	5	15	[0, 0, 0]	n/a	FR1	3	R1275D
2922.188	1.624	1570335	WORD	n/a	wordpools/wordpool_EN.txt	RAKE	6	15	[0, 0, 0]	n/a	FR1	3	R1275D
2923.812	1.126	1571959	WORD_OFF	n/a	n/a	RAKE	6	15	[0, 0, 0]	n/a	FR1	3	R1275D
2924.938	1.624	1573085	WORD	n/a	wordpools/wordpool_EN.txt	HILL	7	15	[0, 0, 0]	n/a	FR1	3	R1275D
2926.562	0.969	1574709	WORD_OFF	n/a	n/a	HILL	7	15	[0, 0, 0]	n/a	FR1	3	R1275D
2927.531	1.631	1575678	WORD	n/a	wordpools/wordpool_EN.txt	SKY	8	15	[0, 0, 0]	n/a	FR1	3	R1275D
2929.162	0.841	1577309	WORD_OFF	n/a	n/a	SKY	8	15	[0, 0, 0]	n/a	FR1	3	R1275D
2930.003	1.626	1578150	WORD	n/a	wordpools/wordpool_EN.txt	GATE	9	15	[0, 0, 0]	n/a	FR1	3	R1275D
2931.629	1.112	1579775	WORD_OFF	n/a	n/a	GATE	9	15	[0, 0, 0]	n/a	FR1	3	R1275D
2932.741	1.622	1580887	WORD	n/a	wordpools/wordpool_EN.txt	STONE	10	15	[0, 0, 0]	n/a	FR1	3	R1275D
2934.363	1.081	1582509	WORD_OFF	n/a	n/a	STONE	10	15	[0, 0, 0]	n/a	FR1	3	R1275D
2935.444	1.636	1583590	WORD	n/a	wordpools/wordpool_EN.txt	SNAKE	11	15	[0, 0, 0]	n/a	FR1	3	R1275D
2937.08	1.022	1585226	WORD_OFF	n/a	n/a	SNAKE	11	15	[0, 0, 0]	n/a	FR1	3	R1275D
2938.102	1.629	1586248	WORD	n/a	wordpools/wordpool_EN.txt	STREET	12	15	[0, 0, 0]	n/a	FR1	3	R1275D
2939.731	0.0	1587877	ENCODING_END	n/a	n/a	n/a	-999	15	[0, 0, 0]	n/a	FR1	3	R1275D
2939.731	0.001	1587877	WORD_OFF	n/a	n/a	STREET	12	15	[0, 0, 0]	n/a	FR1	3	R1275D
2939.732	0.0	1587878	DISTRACT_START	n/a	n/a	n/a	-999	15	[0, 0, 0]	n/a	FR1	3	R1275D
2939.732	0.015	1587878	START	n/a	n/a	n/a	-999	15	[-999, -999, -999]	n/a	FR1	3	R1275D
2939.747	4.651	1587893	PROB	4.651	n/a	n/a	-999	15	[4, 7, 8]	19	FR1	3	R1275D
2944.398	2.817	1592544	PROB	2.817	n/a	n/a	-999	15	[2, 2, 2]	6	FR1	3	R1275D
2947.215	5.485	1595361	PROB	5.485	n/a	n/a	-999	15	[6, 4, 2]	12	FR1	3	R1275D
2952.7	4.484	1600845	PROB	4.484	n/a	n/a	-999	15	[5, 7, 8]	20	FR1	3	R1275D
2957.184	3.986	1605329	PROB	3.986	n/a	n/a	-999	15	[8, 1, 1]	10	FR1	3	R1275D
2961.17	0.015	1609315	STOP	n/a	n/a	n/a	-999	15	[-999, -999, -999]	n/a	FR1	3	R1275D
2961.185	0.688	1609330	DISTRACT_END	n/a	n/a	n/a	-999	15	[0, 0, 0]	n/a	FR1	3	R1275D
2961.873	1.662	1610018	RETRIEVAL_ORIENT_START	n/a	n/a	n/a	-999	15	[0, 0, 0]	n/a	FR1	3	R1275D
2963.535	0.001	1611680	RETRIEVAL_ORIENT_END	n/a	n/a	n/a	-999	15	[0, 0, 0]	n/a	FR1	3	R1275D
2963.536	0.0	1611681	REC_START	n/a	n/a	n/a	-999	15	[0, 0, 0]	n/a	FR1	3	R1275D
2963.536	8.345	1611681	REC_WORD	8.345	n/a	STREET	12	15	[0, 0, 0]	n/a	FR1	3	R1275D
2971.881	21.667	1620026	REC_WORD	21.667	n/a	STONE	10	15	[0, 0, 0]	n/a	FR1	3	R1275D
2993.548	0.0	1641691	TRIAL_END	n/a	n/a	n/a	-999	15	[0, 0, 0]	n/a	FR1	3	R1275D
2993.548	0.015	1641691	REC_END	n/a	n/a	n/a	-999	15	[0, 0, 0]	n/a	FR1	3	R1275D
2993.563	0.0	1641706	TRIAL_START	n/a	n/a	n/a	-999	16	[0, 0, 0]	n/a	FR1	3	R1275D
2993.563	0.0	1641706	TRIAL	n/a	n/a	n/a	-999	16	[0, 0, 0]	n/a	FR1	3	R1275D
2993.563	1.279	1641706	WAITING_START	n/a	n/a	n/a	-999	16	[0, 0, 0]	n/a	FR1	3	R1275D
2994.842	0.0	1642985	WAITING_END	n/a	n/a	n/a	-999	16	[0, 0, 0]	n/a	FR1	3	R1275D
2994.842	10.43	1642985	COUNTDOWN_START	n/a	n/a	n/a	-999	16	[0, 0, 0]	n/a	FR1	3	R1275D
3005.272	0.0	1653415	COUNTDOWN_END	n/a	n/a	n/a	-999	16	[0, 0, 0]	n/a	FR1	3	R1275D
3005.272	1.104	1653415	ORIENT_START	n/a	n/a	n/a	-999	16	[0, 0, 0]	n/a	FR1	3	R1275D
3006.376	0.001	1654519	ORIENT_END	n/a	n/a	n/a	-999	16	[0, 0, 0]	n/a	FR1	3	R1275D
3006.377	1.052	1654520	ENCODING_START	n/a	n/a	n/a	-999	16	[0, 0, 0]	n/a	FR1	3	R1275D
3007.429	1.631	1655572	WORD	n/a	wordpools/wordpool_EN.txt	RAIN	1	16	[0, 0, 0]	n/a	FR1	3	R1275D
3009.06	0.969	1657203	WORD_OFF	n/a	n/a	RAIN	1	16	[0, 0, 0]	n/a	FR1	3	R1275D
3010.029	1.632	1658172	WORD	n/a	wordpools/wordpool_EN.txt	MOUSE	2	16	[0, 0, 0]	n/a	FR1	3	R1275D
3011.661	0.847	1659804	WORD_OFF	n/a	n/a	MOUSE	2	16	[0, 0, 0]	n/a	FR1	3	R1275D
3012.508	1.637	1660651	WORD	n/a	wordpools/wordpool_EN.txt	PLANT	3	16	[0, 0, 0]	n/a	FR1	3	R1275D
3014.145	1.007	1662288	WORD_OFF	n/a	n/a	PLANT	3	16	[0, 0, 0]	n/a	FR1	3	R1275D
3015.152	1.626	1663294	WORD	n/a	wordpools/wordpool_EN.txt	FUDGE	4	16	[0, 0, 0]	n/a	FR1	3	R1275D
3016.778	1.131	1664920	WORD_OFF	n/a	n/a	FUDGE	4	16	[0, 0, 0]	n/a	FR1	3	R1275D
3017.909	1.637	1666051	WORD	n/a	wordpools/wordpool_EN.txt	PLATE	5	16	[0, 0, 0]	n/a	FR1	3	R1275D
3019.546	0.853	1667688	WORD_OFF	n/a	n/a	PLATE	5	16	[0, 0, 0]	n/a	FR1	3	R1275D
3020.399	1.63	1668541	WORD	n/a	wordpools/wordpool_EN.txt	WAND	6	16	[0, 0, 0]	n/a	FR1	3	R1275D
3022.029	0.87	1670171	WORD_OFF	n/a	n/a	WAND	6	16	[0, 0, 0]	n/a	FR1	3	R1275D
3022.899	1.631	1671041	WORD	n/a	wordpools/wordpool_EN.txt	FRUIT	7	16	[0, 0, 0]	n/a	FR1	3	R1275D
3024.53	0.785	1672672	WORD_OFF	n/a	n/a	FRUIT	7	16	[0, 0, 0]	n/a	FR1	3	R1275D
3025.315	1.632	1673457	WORD	n/a	wordpools/wordpool_EN.txt	FOOT	8	16	[0, 0, 0]	n/a	FR1	3	R1275D
3026.947	0.76	1675089	WORD_OFF	n/a	n/a	FOOT	8	16	[0, 0, 0]	n/a	FR1	3	R1275D
3027.707	1.624	1675849	WORD	n/a	wordpools/wordpool_EN.txt	GLASS	9	16	[0, 0, 0]	n/a	FR1	3	R1275D
3029.331	1.008	1677473	WORD_OFF	n/a	n/a	GLASS	9	16	[0, 0, 0]	n/a	FR1	3	R1275D
3030.339	1.625	1678481	WORD	n/a	wordpools/wordpool_EN.txt	GEESE	10	16	[0, 0, 0]	n/a	FR1	3	R1275D
3031.964	1.049	1680106	WORD_OFF	n/a	n/a	GEESE	10	16	[0, 0, 0]	n/a	FR1	3	R1275D
3033.013	1.635	1681155	WORD	n/a	wordpools/wordpool_EN.txt	PET	11	16	[0, 0, 0]	n/a	FR1	3	R1275D
3034.648	1.079	1682790	WORD_OFF	n/a	n/a	PET	11	16	[0, 0, 0]	n/a	FR1	3	R1275D
3035.727	1.622	1683868	WORD	n/a	wordpools/wordpool_EN.txt	BRUSH	12	16	[0, 0, 0]	n/a	FR1	3	R1275D
3037.349	0.0	1685490	WORD_OFF	n/a	n/a	BRUSH	12	16	[0, 0, 0]	n/a	FR1	3	R1275D
3037.349	0.0	1685490	ENCODING_END	n/a	n/a	n/a	-999	16	[0, 0, 0]	n/a	FR1	3	R1275D
3037.349	0.001	1685490	DISTRACT_START	n/a	n/a	n/a	-999	16	[0, 0, 0]	n/a	FR1	3	R1275D
3037.35	0.015	1685491	START	n/a	n/a	n/a	-999	16	[-999, -999, -999]	n/a	FR1	3	R1275D
3037.365	4.951	1685506	PROB	4.951	n/a	n/a	-999	16	[4, 8, 3]	15	FR1	3	R1275D
3042.316	4.585	1690457	PROB	4.585	n/a	n/a	-999	16	[2, 1, 7]	10	FR1	3	R1275D
3046.901	3.467	1695042	PROB	3.467	n/a	n/a	-999	16	[5, 6, 4]	15	FR1	3	R1275D
3050.368	2.65	1698509	PROB	2.65	n/a	n/a	-999	16	[1, 3, 7]	11	FR1	3	R1275D
3053.018	2.852	1701159	PROB	2.852	n/a	n/a	-999	16	[4, 4, 4]	12	FR1	3	R1275D
3055.87	4.997	1704011	PROB	4.997	n/a	n/a	-999	16	[4, 5, 6]	15	FR1	3	R1275D
3060.867	0.02	1709007	STOP	n/a	n/a	n/a	-999	16	[-999, -999, -999]	n/a	FR1	3	R1275D
3060.887	0.643	1709027	DISTRACT_END	n/a	n/a	n/a	-999	16	[0, 0, 0]	n/a	FR1	3	R1275D
3061.53	1.657	1709670	RETRIEVAL_ORIENT_START	n/a	n/a	n/a	-999	16	[0, 0, 0]	n/a	FR1	3	R1275D
3063.187	0.0	1711327	RETRIEVAL_ORIENT_END	n/a	n/a	n/a	-999	16	[0, 0, 0]	n/a	FR1	3	R1275D
3063.187	0.469	1711327	REC_START	n/a	n/a	n/a	-999	16	[0, 0, 0]	n/a	FR1	3	R1275D
3063.656	29.544	1711796	REC_WORD	29.544	n/a	GEESE	10	16	[0, 0, 0]	n/a	FR1	3	R1275D
3093.2	0.001	1741339	REC_END	n/a	n/a	n/a	-999	16	[0, 0, 0]	n/a	FR1	3	R1275D
3093.201	0.014	1741340	TRIAL_END	n/a	n/a	n/a	-999	16	[0, 0, 0]	n/a	FR1	3	R1275D
3093.215	0.0	1741354	TRIAL_START	n/a	n/a	n/a	-999	17	[0, 0, 0]	n/a	FR1	3	R1275D
3093.215	0.0	1741354	TRIAL	n/a	n/a	n/a	-999	17	[0, 0, 0]	n/a	FR1	3	R1275D
3093.215	1.595	1741354	WAITING_START	n/a	n/a	n/a	-999	17	[0, 0, 0]	n/a	FR1	3	R1275D
3094.81	0.001	1742949	WAITING_END	n/a	n/a	n/a	-999	17	[0, 0, 0]	n/a	FR1	3	R1275D
3094.811	10.428	1742950	COUNTDOWN_START	n/a	n/a	n/a	-999	17	[0, 0, 0]	n/a	FR1	3	R1275D
3105.239	0.0	1753377	COUNTDOWN_END	n/a	n/a	n/a	-999	17	[0, 0, 0]	n/a	FR1	3	R1275D
3105.239	1.072	1753377	ORIENT_START	n/a	n/a	n/a	-999	17	[0, 0, 0]	n/a	FR1	3	R1275D
3106.311	0.001	1754449	ORIENT_END	n/a	n/a	n/a	-999	17	[0, 0, 0]	n/a	FR1	3	R1275D
3106.312	0.927	1754450	ENCODING_START	n/a	n/a	n/a	-999	17	[0, 0, 0]	n/a	FR1	3	R1275D
3107.239	1.624	1755377	WORD	n/a	wordpools/wordpool_EN.txt	FORK	1	17	[0, 0, 0]	n/a	FR1	3	R1275D
3108.863	0.778	1757001	WORD_OFF	n/a	n/a	FORK	1	17	[0, 0, 0]	n/a	FR1	3	R1275D
3109.641	1.638	1757779	WORD	n/a	wordpools/wordpool_EN.txt	MOTH	2	17	[0, 0, 0]	n/a	FR1	3	R1275D
3111.279	1.046	1759417	WORD_OFF	n/a	n/a	MOTH	2	17	[0, 0, 0]	n/a	FR1	3	R1275D
3112.325	1.605	1760463	WORD	n/a	wordpools/wordpool_EN.txt	FARM	3	17	[0, 0, 0]	n/a	FR1	3	R1275D
3113.93	0.982	1762068	WORD_OFF	n/a	n/a	FARM	3	17	[0, 0, 0]	n/a	FR1	3	R1275D
3114.912	1.635	1763050	WORD	n/a	wordpools/wordpool_EN.txt	LAKE	4	17	[0, 0, 0]	n/a	FR1	3	R1275D
3116.547	0.956	1764685	WORD_OFF	n/a	n/a	LAKE	4	17	[0, 0, 0]	n/a	FR1	3	R1275D
3117.503	1.627	1765641	WORD	n/a	wordpools/wordpool_EN.txt	SKI	5	17	[0, 0, 0]	n/a	FR1	3	R1275D
3119.13	1.107	1767267	WORD_OFF	n/a	n/a	SKI	5	17	[0, 0, 0]	n/a	FR1	3	R1275D
3120.237	1.611	1768374	WORD	n/a	wordpools/wordpool_EN.txt	GOLD	6	17	[0, 0, 0]	n/a	FR1	3	R1275D
3121.848	1.023	1769985	WORD_OFF	n/a	n/a	GOLD	6	17	[0, 0, 0]	n/a	FR1	3	R1275D
3122.871	1.627	1771008	WORD	n/a	wordpools/wordpool_EN.txt	VEST	7	17	[0, 0, 0]	n/a	FR1	3	R1275D
3124.498	0.842	1772635	WORD_OFF	n/a	n/a	VEST	7	17	[0, 0, 0]	n/a	FR1	3	R1275D
3125.34	1.625	1773477	WORD	n/a	wordpools/wordpool_EN.txt	SUN	8	17	[0, 0, 0]	n/a	FR1	3	R1275D
3126.965	0.962	1775102	WORD_OFF	n/a	n/a	SUN	8	17	[0, 0, 0]	n/a	FR1	3	R1275D
3127.927	1.622	1776064	WORD	n/a	wordpools/wordpool_EN.txt	TRUCK	9	17	[0, 0, 0]	n/a	FR1	3	R1275D
3129.549	0.981	1777686	WORD_OFF	n/a	n/a	TRUCK	9	17	[0, 0, 0]	n/a	FR1	3	R1275D
3130.53	1.636	1778667	WORD	n/a	wordpools/wordpool_EN.txt	GOAT	10	17	[0, 0, 0]	n/a	FR1	3	R1275D
3132.166	0.868	1780303	WORD_OFF	n/a	n/a	GOAT	10	17	[0, 0, 0]	n/a	FR1	3	R1275D
3133.034	1.632	1781171	WORD	n/a	wordpools/wordpool_EN.txt	PEA	11	17	[0, 0, 0]	n/a	FR1	3	R1275D
3134.666	1.113	1782803	WORD_OFF	n/a	n/a	PEA	11	17	[0, 0, 0]	n/a	FR1	3	R1275D
3135.779	1.621	1783916	WORD	n/a	wordpools/wordpool_EN.txt	ELF	12	17	[0, 0, 0]	n/a	FR1	3	R1275D
3137.4	0.001	1785537	WORD_OFF	n/a	n/a	ELF	12	17	[0, 0, 0]	n/a	FR1	3	R1275D
3137.401	0.0	1785538	ENCODING_END	n/a	n/a	n/a	-999	17	[0, 0, 0]	n/a	FR1	3	R1275D
3137.401	0.0	1785538	DISTRACT_START	n/a	n/a	n/a	-999	17	[0, 0, 0]	n/a	FR1	3	R1275D
3137.401	0.016	1785538	START	n/a	n/a	n/a	-999	17	[-999, -999, -999]	n/a	FR1	3	R1275D
3137.417	5.051	1785554	PROB	5.051	n/a	n/a	-999	17	[7, 4, 5]	16	FR1	3	R1275D
3142.468	5.051	1790604	PROB	5.051	n/a	n/a	-999	17	[9, 1, 3]	13	FR1	3	R1275D
3147.519	3.133	1795655	PROB	3.133	n/a	n/a	-999	17	[4, 6, 1]	11	FR1	3	R1275D
3150.652	3.718	1798788	PROB	3.718	n/a	n/a	-999	17	[1, 4, 8]	13	FR1	3	R1275D
3154.37	4.295	1802506	PROB	4.295	n/a	n/a	-999	17	[1, 3, 9]	13	FR1	3	R1275D
3158.665	0.006	1806801	STOP	n/a	n/a	n/a	-999	17	[-999, -999, -999]	n/a	FR1	3	R1275D
3158.671	0.652	1806807	DISTRACT_END	n/a	n/a	n/a	-999	17	[0, 0, 0]	n/a	FR1	3	R1275D
3159.323	1.583	1807459	RETRIEVAL_ORIENT_START	n/a	n/a	n/a	-999	17	[0, 0, 0]	n/a	FR1	3	R1275D
3160.906	0.0	1809041	RETRIEVAL_ORIENT_END	n/a	n/a	n/a	-999	17	[0, 0, 0]	n/a	FR1	3	R1275D
3160.906	1.148	1809041	REC_START	n/a	n/a	n/a	-999	17	[0, 0, 0]	n/a	FR1	3	R1275D
3162.054	6.555	1810189	REC_WORD	6.555	n/a	SKI	5	17	[0, 0, 0]	n/a	FR1	3	R1275D
3168.609	14.65	1816744	REC_WORD	14.65	n/a	GOAT	10	17	[0, 0, 0]	n/a	FR1	3	R1275D
3183.259	7.659	1831393	REC_WORD_VV	7.659	n/a	<>	-999	17	[0, 0, 0]	n/a	FR1	3	R1275D
3190.918	0.0	1839052	REC_END	n/a	n/a	n/a	-999	17	[0, 0, 0]	n/a	FR1	3	R1275D
3190.918	0.016	1839052	TRIAL_END	n/a	n/a	n/a	-999	17	[0, 0, 0]	n/a	FR1	3	R1275D
3190.934	0.001	1839068	TRIAL_START	n/a	n/a	n/a	-999	18	[0, 0, 0]	n/a	FR1	3	R1275D
3190.935	0.0	1839069	TRIAL	n/a	n/a	n/a	-999	18	[0, 0, 0]	n/a	FR1	3	R1275D
3190.935	1.642	1839069	WAITING_START	n/a	n/a	n/a	-999	18	[0, 0, 0]	n/a	FR1	3	R1275D
3192.577	0.0	1840711	WAITING_END	n/a	n/a	n/a	-999	18	[0, 0, 0]	n/a	FR1	3	R1275D
3192.577	10.429	1840711	COUNTDOWN_START	n/a	n/a	n/a	-999	18	[0, 0, 0]	n/a	FR1	3	R1275D
3203.006	0.001	1851139	COUNTDOWN_END	n/a	n/a	n/a	-999	18	[0, 0, 0]	n/a	FR1	3	R1275D
3203.007	1.206	1851140	ORIENT_START	n/a	n/a	n/a	-999	18	[0, 0, 0]	n/a	FR1	3	R1275D
3204.213	0.0	1852346	ORIENT_END	n/a	n/a	n/a	-999	18	[0, 0, 0]	n/a	FR1	3	R1275D
3204.213	1.149	1852346	ENCODING_START	n/a	n/a	n/a	-999	18	[0, 0, 0]	n/a	FR1	3	R1275D
3205.362	1.634	1853495	WORD	n/a	wordpools/wordpool_EN.txt	CORD	1	18	[0, 0, 0]	n/a	FR1	3	R1275D
3206.996	0.855	1855129	WORD_OFF	n/a	n/a	CORD	1	18	[0, 0, 0]	n/a	FR1	3	R1275D
3207.851	1.629	1855984	WORD	n/a	wordpools/wordpool_EN.txt	SLEEVE	2	18	[0, 0, 0]	n/a	FR1	3	R1275D
3209.48	1.095	1857613	WORD_OFF	n/a	n/a	SLEEVE	2	18	[0, 0, 0]	n/a	FR1	3	R1275D
3210.575	1.622	1858708	WORD	n/a	wordpools/wordpool_EN.txt	MOUTH	3	18	[0, 0, 0]	n/a	FR1	3	R1275D
3212.197	0.822	1860330	WORD_OFF	n/a	n/a	MOUTH	3	18	[0, 0, 0]	n/a	FR1	3	R1275D
3213.019	1.629	1861152	WORD	n/a	wordpools/wordpool_EN.txt	ROAD	4	18	[0, 0, 0]	n/a	FR1	3	R1275D
3214.648	1.001	1862781	WORD_OFF	n/a	n/a	ROAD	4	18	[0, 0, 0]	n/a	FR1	3	R1275D
3215.649	1.632	1863782	WORD	n/a	wordpools/wordpool_EN.txt	SNOW	5	18	[0, 0, 0]	n/a	FR1	3	R1275D
3217.281	1.033	1865414	WORD_OFF	n/a	n/a	SNOW	5	18	[0, 0, 0]	n/a	FR1	3	R1275D
3218.314	1.635	1866447	WORD	n/a	wordpools/wordpool_EN.txt	EEL	6	18	[0, 0, 0]	n/a	FR1	3	R1275D
3219.949	0.961	1868082	WORD_OFF	n/a	n/a	EEL	6	18	[0, 0, 0]	n/a	FR1	3	R1275D
3220.91	1.622	1869043	WORD	n/a	wordpools/wordpool_EN.txt	STEAM	7	18	[0, 0, 0]	n/a	FR1	3	R1275D
3222.532	1.103	1870665	WORD_OFF	n/a	n/a	STEAM	7	18	[0, 0, 0]	n/a	FR1	3	R1275D
3223.635	1.631	1871767	WORD	n/a	wordpools/wordpool_EN.txt	PALM	8	18	[0, 0, 0]	n/a	FR1	3	R1275D
3225.266	0.978	1873398	WORD_OFF	n/a	n/a	PALM	8	18	[0, 0, 0]	n/a	FR1	3	R1275D
3226.244	1.624	1874376	WORD	n/a	wordpools/wordpool_EN.txt	OAK	9	18	[0, 0, 0]	n/a	FR1	3	R1275D
3227.868	0.894	1876000	WORD_OFF	n/a	n/a	OAK	9	18	[0, 0, 0]	n/a	FR1	3	R1275D
3228.762	1.622	1876894	WORD	n/a	wordpools/wordpool_EN.txt	ARM	10	18	[0, 0, 0]	n/a	FR1	3	R1275D
3230.384	1.016	1878516	WORD_OFF	n/a	n/a	ARM	10	18	[0, 0, 0]	n/a	FR1	3	R1275D
3231.4	1.634	1879532	WORD	n/a	wordpools/wordpool_EN.txt	PEARL	11	18	[0, 0, 0]	n/a	FR1	3	R1275D
3233.034	1.122	1881166	WORD_OFF	n/a	n/a	PEARL	11	18	[0, 0, 0]	n/a	FR1	3	R1275D
3234.156	1.63	1882288	WORD	n/a	wordpools/wordpool_EN.txt	SWAMP	12	18	[0, 0, 0]	n/a	FR1	3	R1275D
3235.786	0.0	1883918	ENCODING_END	n/a	n/a	n/a	-999	18	[0, 0, 0]	n/a	FR1	3	R1275D
3235.786	0.001	1883918	WORD_OFF	n/a	n/a	SWAMP	12	18	[0, 0, 0]	n/a	FR1	3	R1275D
3235.787	0.0	1883919	DISTRACT_START	n/a	n/a	n/a	-999	18	[0, 0, 0]	n/a	FR1	3	R1275D
3235.787	0.015	1883919	START	n/a	n/a	n/a	-999	18	[-999, -999, -999]	n/a	FR1	3	R1275D
3235.802	4.784	1883934	PROB	4.784	n/a	n/a	-999	18	[9, 1, 1]	11	FR1	3	R1275D
3240.586	3.7	1888718	PROB	3.7	n/a	n/a	-999	18	[7, 6, 1]	14	FR1	3	R1275D
3244.286	3.784	1892417	PROB	3.784	n/a	n/a	-999	18	[1, 9, 4]	14	FR1	3	R1275D
3248.07	2.651	1896201	PROB	2.651	n/a	n/a	-999	18	[1, 5, 6]	12	FR1	3	R1275D
3250.721	3.517	1898852	PROB	3.517	n/a	n/a	-999	18	[4, 1, 1]	6	FR1	3	R1275D
3254.238	6.323	1902369	PROB	6.323	n/a	n/a	-999	18	[9, 9, 5]	23	FR1	3	R1275D
3260.561	0.012	1908692	STOP	n/a	n/a	n/a	-999	18	[-999, -999, -999]	n/a	FR1	3	R1275D
3260.573	0.602	1908704	DISTRACT_END	n/a	n/a	n/a	-999	18	[0, 0, 0]	n/a	FR1	3	R1275D
3261.175	1.649	1909306	RETRIEVAL_ORIENT_START	n/a	n/a	n/a	-999	18	[0, 0, 0]	n/a	FR1	3	R1275D
3262.824	0.001	1910955	RETRIEVAL_ORIENT_END	n/a	n/a	n/a	-999	18	[0, 0, 0]	n/a	FR1	3	R1275D
3262.825	0.772	1910956	REC_START	n/a	n/a	n/a	-999	18	[0, 0, 0]	n/a	FR1	3	R1275D
3263.597	1.106	1911728	REC_WORD	1.106	n/a	ARM	10	18	[0, 0, 0]	n/a	FR1	3	R1275D
3264.703	8.098	1912834	REC_WORD	8.098	n/a	PEARL	11	18	[0, 0, 0]	n/a	FR1	3	R1275D
3272.801	14.492	1920931	REC_WORD	14.492	n/a	FLOCK	-999	18	[0, 0, 0]	n/a	FR1	3	R1275D
3287.293	5.544	1935422	REC_WORD_VV	5.544	n/a	<>	-999	18	[0, 0, 0]	n/a	FR1	3	R1275D
3292.837	0.001	1940966	REC_END	n/a	n/a	n/a	-999	18	[0, 0, 0]	n/a	FR1	3	R1275D
3292.838	0.016	1940967	TRIAL_END	n/a	n/a	n/a	-999	18	[0, 0, 0]	n/a	FR1	3	R1275D
3292.854	0.0	1940983	TRIAL_START	n/a	n/a	n/a	-999	19	[0, 0, 0]	n/a	FR1	3	R1275D
3292.854	0.0	1940983	TRIAL	n/a	n/a	n/a	-999	19	[0, 0, 0]	n/a	FR1	3	R1275D
3292.854	1.125	1940983	WAITING_START	n/a	n/a	n/a	-999	19	[0, 0, 0]	n/a	FR1	3	R1275D
3293.979	0.0	1942108	WAITING_END	n/a	n/a	n/a	-999	19	[0, 0, 0]	n/a	FR1	3	R1275D
3293.979	10.428	1942108	COUNTDOWN_START	n/a	n/a	n/a	-999	19	[0, 0, 0]	n/a	FR1	3	R1275D
3304.407	0.001	1952536	COUNTDOWN_END	n/a	n/a	n/a	-999	19	[0, 0, 0]	n/a	FR1	3	R1275D
3304.408	1.089	1952537	ORIENT_START	n/a	n/a	n/a	-999	19	[0, 0, 0]	n/a	FR1	3	R1275D
3305.497	0.001	1953626	ORIENT_END	n/a	n/a	n/a	-999	19	[0, 0, 0]	n/a	FR1	3	R1275D
3305.498	1.039	1953627	ENCODING_START	n/a	n/a	n/a	-999	19	[0, 0, 0]	n/a	FR1	3	R1275D
3306.537	1.628	1954666	WORD	n/a	wordpools/wordpool_EN.txt	FORT	1	19	[0, 0, 0]	n/a	FR1	3	R1275D
3308.165	1.123	1956293	WORD_OFF	n/a	n/a	FORT	1	19	[0, 0, 0]	n/a	FR1	3	R1275D
3309.288	1.628	1957416	WORD	n/a	wordpools/wordpool_EN.txt	ROOF	2	19	[0, 0, 0]	n/a	FR1	3	R1275D
3310.916	1.042	1959044	WORD_OFF	n/a	n/a	ROOF	2	19	[0, 0, 0]	n/a	FR1	3	R1275D
3311.958	1.624	1960086	WORD	n/a	wordpools/wordpool_EN.txt	HOSE	3	19	[0, 0, 0]	n/a	FR1	3	R1275D
3313.582	1.13	1961710	WORD_OFF	n/a	n/a	HOSE	3	19	[0, 0, 0]	n/a	FR1	3	R1275D
3314.712	1.621	1962840	WORD	n/a	wordpools/wordpool_EN.txt	BLUSH	4	19	[0, 0, 0]	n/a	FR1	3	R1275D
3316.333	1.135	1964461	WORD_OFF	n/a	n/a	BLUSH	4	19	[0, 0, 0]	n/a	FR1	3	R1275D
3317.468	1.632	1965596	WORD	n/a	wordpools/wordpool_EN.txt	TRAY	5	19	[0, 0, 0]	n/a	FR1	3	R1275D
3319.1	0.799	1967228	WORD_OFF	n/a	n/a	TRAY	5	19	[0, 0, 0]	n/a	FR1	3	R1275D
3319.899	1.635	1968027	WORD	n/a	wordpools/wordpool_EN.txt	BLOOM	6	19	[0, 0, 0]	n/a	FR1	3	R1275D
3321.534	1.117	1969662	WORD_OFF	n/a	n/a	BLOOM	6	19	[0, 0, 0]	n/a	FR1	3	R1275D
3322.651	1.633	1970779	WORD	n/a	wordpools/wordpool_EN.txt	JUICE	7	19	[0, 0, 0]	n/a	FR1	3	R1275D
3324.284	0.898	1972412	WORD_OFF	n/a	n/a	JUICE	7	19	[0, 0, 0]	n/a	FR1	3	R1275D
3325.182	1.637	1973310	WORD	n/a	wordpools/wordpool_EN.txt	ARK	8	19	[0, 0, 0]	n/a	FR1	3	R1275D
3326.819	0.976	1974947	WORD_OFF	n/a	n/a	ARK	8	19	[0, 0, 0]	n/a	FR1	3	R1275D
3327.795	1.624	1975922	WORD	n/a	wordpools/wordpool_EN.txt	SOCK	9	19	[0, 0, 0]	n/a	FR1	3	R1275D
3329.419	0.785	1977546	WORD_OFF	n/a	n/a	SOCK	9	19	[0, 0, 0]	n/a	FR1	3	R1275D
3330.204	1.633	1978331	WORD	n/a	wordpools/wordpool_EN.txt	CAGE	10	19	[0, 0, 0]	n/a	FR1	3	R1275D
3331.837	0.847	1979964	WORD_OFF	n/a	n/a	CAGE	10	19	[0, 0, 0]	n/a	FR1	3	R1275D
3332.684	1.636	1980811	WORD	n/a	wordpools/wordpool_EN.txt	TAIL	11	19	[0, 0, 0]	n/a	FR1	3	R1275D
3334.32	1.083	1982447	WORD_OFF	n/a	n/a	TAIL	11	19	[0, 0, 0]	n/a	FR1	3	R1275D
3335.403	1.634	1983530	WORD	n/a	wordpools/wordpool_EN.txt	CAT	12	19	[0, 0, 0]	n/a	FR1	3	R1275D
3337.037	0.0	1985164	ENCODING_END	n/a	n/a	n/a	-999	19	[0, 0, 0]	n/a	FR1	3	R1275D
3337.037	0.001	1985164	WORD_OFF	n/a	n/a	CAT	12	19	[0, 0, 0]	n/a	FR1	3	R1275D
3337.038	0.0	1985165	DISTRACT_START	n/a	n/a	n/a	-999	19	[0, 0, 0]	n/a	FR1	3	R1275D
3337.038	0.015	1985165	START	n/a	n/a	n/a	-999	19	[-999, -999, -999]	n/a	FR1	3	R1275D
3337.053	7.585	1985180	PROB	7.585	n/a	n/a	-999	19	[6, 9, 5]	20	FR1	3	R1275D
3344.638	7.135	1992765	PROB	7.135	n/a	n/a	-999	19	[3, 9, 2]	14	FR1	3	R1275D
3351.773	6.509	1999899	PROB	6.509	n/a	n/a	-999	19	[2, 9, 7]	17	FR1	3	R1275D
3358.282	0.009	2006408	STOP	n/a	n/a	n/a	-999	19	[-999, -999, -999]	n/a	FR1	3	R1275D
3358.291	0.589	2006417	DISTRACT_END	n/a	n/a	n/a	-999	19	[0, 0, 0]	n/a	FR1	3	R1275D
3358.88	1.628	2007006	RETRIEVAL_ORIENT_START	n/a	n/a	n/a	-999	19	[0, 0, 0]	n/a	FR1	3	R1275D
3360.508	0.0	2008634	RETRIEVAL_ORIENT_END	n/a	n/a	n/a	-999	19	[0, 0, 0]	n/a	FR1	3	R1275D
3360.508	0.858	2008634	REC_START	n/a	n/a	n/a	-999	19	[0, 0, 0]	n/a	FR1	3	R1275D
3361.366	3.741	2009492	REC_WORD	3.741	n/a	SOCK	9	19	[0, 0, 0]	n/a	FR1	3	R1275D
3365.107	20.235	2013233	REC_WORD	20.235	n/a	CAT	12	19	[0, 0, 0]	n/a	FR1	3	R1275D
3385.342	0.504	2033467	REC_WORD	0.504	n/a	SOCK	9	19	[0, 0, 0]	n/a	FR1	3	R1275D
3385.846	4.673	2033971	REC_WORD	4.673	n/a	CAT	12	19	[0, 0, 0]	n/a	FR1	3	R1275D
3390.519	0.0	2038643	REC_END	n/a	n/a	n/a	-999	19	[0, 0, 0]	n/a	FR1	3	R1275D
3390.519	0.015	2038643	TRIAL_END	n/a	n/a	n/a	-999	19	[0, 0, 0]	n/a	FR1	3	R1275D
3390.534	0.0	2038658	TRIAL_START	n/a	n/a	n/a	-999	20	[0, 0, 0]	n/a	FR1	3	R1275D
3390.534	0.0	2038658	TRIAL	n/a	n/a	n/a	-999	20	[0, 0, 0]	n/a	FR1	3	R1275D
3390.534	1.479	2038658	WAITING_START	n/a	n/a	n/a	-999	20	[0, 0, 0]	n/a	FR1	3	R1275D
3392.013	0.001	2040137	WAITING_END	n/a	n/a	n/a	-999	20	[0, 0, 0]	n/a	FR1	3	R1275D
3392.014	10.429	2040138	COUNTDOWN_START	n/a	n/a	n/a	-999	20	[0, 0, 0]	n/a	FR1	3	R1275D
3402.443	0.0	2050567	ORIENT_START	n/a	n/a	n/a	-999	20	[0, 0, 0]	n/a	FR1	3	R1275D
3402.443	1.106	2050567	COUNTDOWN_END	n/a	n/a	n/a	-999	20	[0, 0, 0]	n/a	FR1	3	R1275D
3403.549	0.0	2051673	ORIENT_END	n/a	n/a	n/a	-999	20	[0, 0, 0]	n/a	FR1	3	R1275D
3403.549	0.975	2051673	ENCODING_START	n/a	n/a	n/a	-999	20	[0, 0, 0]	n/a	FR1	3	R1275D
3404.524	1.625	2052648	WORD	n/a	wordpools/wordpool_EN.txt	MAIL	1	20	[0, 0, 0]	n/a	FR1	3	R1275D
3406.149	1.141	2054273	WORD_OFF	n/a	n/a	MAIL	1	20	[0, 0, 0]	n/a	FR1	3	R1275D
3407.29	1.611	2055414	WORD	n/a	wordpools/wordpool_EN.txt	WORM	2	20	[0, 0, 0]	n/a	FR1	3	R1275D
3408.901	0.859	2057025	WORD_OFF	n/a	n/a	WORM	2	20	[0, 0, 0]	n/a	FR1	3	R1275D
3409.76	1.607	2057884	WORD	n/a	wordpools/wordpool_EN.txt	CLOCK	3	20	[0, 0, 0]	n/a	FR1	3	R1275D
3411.367	1.024	2059490	WORD_OFF	n/a	n/a	CLOCK	3	20	[0, 0, 0]	n/a	FR1	3	R1275D
3412.391	1.626	2060514	WORD	n/a	wordpools/wordpool_EN.txt	CLOWN	4	20	[0, 0, 0]	n/a	FR1	3	R1275D
3414.017	0.828	2062140	WORD_OFF	n/a	n/a	CLOWN	4	20	[0, 0, 0]	n/a	FR1	3	R1275D
3414.845	1.623	2062968	WORD	n/a	wordpools/wordpool_EN.txt	BIRD	5	20	[0, 0, 0]	n/a	FR1	3	R1275D
3416.468	1.125	2064591	WORD_OFF	n/a	n/a	BIRD	5	20	[0, 0, 0]	n/a	FR1	3	R1275D
3417.593	1.625	2065716	WORD	n/a	wordpools/wordpool_EN.txt	HAWK	6	20	[0, 0, 0]	n/a	FR1	3	R1275D
3419.218	1.093	2067341	WORD_OFF	n/a	n/a	HAWK	6	20	[0, 0, 0]	n/a	FR1	3	R1275D
3420.311	1.609	2068434	WORD	n/a	wordpools/wordpool_EN.txt	BEAK	7	20	[0, 0, 0]	n/a	FR1	3	R1275D
3421.92	0.972	2070043	WORD_OFF	n/a	n/a	BEAK	7	20	[0, 0, 0]	n/a	FR1	3	R1275D
3422.892	1.627	2071015	WORD	n/a	wordpools/wordpool_EN.txt	SHIELD	8	20	[0, 0, 0]	n/a	FR1	3	R1275D
3424.519	1.064	2072642	WORD_OFF	n/a	n/a	SHIELD	8	20	[0, 0, 0]	n/a	FR1	3	R1275D
3425.583	1.637	2073706	WORD	n/a	wordpools/wordpool_EN.txt	TRASH	9	20	[0, 0, 0]	n/a	FR1	3	R1275D
3427.22	1.003	2075343	WORD_OFF	n/a	n/a	TRASH	9	20	[0, 0, 0]	n/a	FR1	3	R1275D
3428.223	1.632	2076346	WORD	n/a	wordpools/wordpool_EN.txt	MAP	10	20	[0, 0, 0]	n/a	FR1	3	R1275D
3429.855	0.944	2077978	WORD_OFF	n/a	n/a	MAP	10	20	[0, 0, 0]	n/a	FR1	3	R1275D
3430.799	1.622	2078922	WORD	n/a	wordpools/wordpool_EN.txt	SCHOOL	11	20	[0, 0, 0]	n/a	FR1	3	R1275D
3432.421	1.026	2080543	WORD_OFF	n/a	n/a	SCHOOL	11	20	[0, 0, 0]	n/a	FR1	3	R1275D
3433.447	1.624	2081569	WORD	n/a	wordpools/wordpool_EN.txt	BATH	12	20	[0, 0, 0]	n/a	FR1	3	R1275D
3435.071	0.001	2083193	WORD_OFF	n/a	n/a	BATH	12	20	[0, 0, 0]	n/a	FR1	3	R1275D
3435.072	0.0	2083194	DISTRACT_START	n/a	n/a	n/a	-999	20	[0, 0, 0]	n/a	FR1	3	R1275D
3435.072	0.0	2083194	ENCODING_END	n/a	n/a	n/a	-999	20	[0, 0, 0]	n/a	FR1	3	R1275D
3435.072	0.016	2083194	START	n/a	n/a	n/a	-999	20	[-999, -999, -999]	n/a	FR1	3	R1275D
3435.088	4.284	2083210	PROB	4.284	n/a	n/a	-999	20	[4, 4, 9]	17	FR1	3	R1275D
3439.372	5.051	2087494	PROB	5.051	n/a	n/a	-999	20	[6, 8, 4]	18	FR1	3	R1275D
3444.423	4.951	2092545	PROB	4.951	n/a	n/a	-999	20	[5, 8, 9]	22	FR1	3	R1275D
3449.374	3.784	2097496	PROB	3.784	n/a	n/a	-999	20	[8, 2, 9]	19	FR1	3	R1275D
3453.158	3.04	2101280	PROB	3.04	n/a	n/a	-999	20	[1, 7, 7]	15	FR1	3	R1275D
3456.198	0.01	2104319	STOP	n/a	n/a	n/a	-999	20	[-999, -999, -999]	n/a	FR1	3	R1275D
3456.208	0.672	2104329	DISTRACT_END	n/a	n/a	n/a	-999	20	[0, 0, 0]	n/a	FR1	3	R1275D
3456.88	1.629	2105001	RETRIEVAL_ORIENT_START	n/a	n/a	n/a	-999	20	[0, 0, 0]	n/a	FR1	3	R1275D
3458.509	0.0	2106630	RETRIEVAL_ORIENT_END	n/a	n/a	n/a	-999	20	[0, 0, 0]	n/a	FR1	3	R1275D
3458.509	0.194	2106630	REC_START	n/a	n/a	n/a	-999	20	[0, 0, 0]	n/a	FR1	3	R1275D
3458.703	1.861	2106824	REC_WORD	1.861	n/a	BEAK	7	20	[0, 0, 0]	n/a	FR1	3	R1275D
3460.564	0.913	2108685	REC_WORD	0.913	n/a	BIRD	5	20	[0, 0, 0]	n/a	FR1	3	R1275D
3461.477	4.523	2109598	REC_WORD	4.523	n/a	WORM	2	20	[0, 0, 0]	n/a	FR1	3	R1275D
3466.0	1.0	2114121	REC_WORD_VV	1.0	n/a	<>	-999	20	[0, 0, 0]	n/a	FR1	3	R1275D
3467.0	4.262	2115121	REC_WORD_VV	4.262	n/a	<>	-999	20	[0, 0, 0]	n/a	FR1	3	R1275D
3471.262	17.259	2119383	REC_WORD	17.259	n/a	CAT	-999	20	[0, 0, 0]	n/a	FR1	3	R1275D
3488.521	0.001	2136641	REC_END	n/a	n/a	n/a	-999	20	[0, 0, 0]	n/a	FR1	3	R1275D
3488.522	0.014	2136642	TRIAL_END	n/a	n/a	n/a	-999	20	[0, 0, 0]	n/a	FR1	3	R1275D
3488.536	0.001	2136656	TRIAL_START	n/a	n/a	n/a	-999	21	[0, 0, 0]	n/a	FR1	3	R1275D
3488.537	0.0	2136657	TRIAL	n/a	n/a	n/a	-999	21	[0, 0, 0]	n/a	FR1	3	R1275D
3488.537	1.395	2136657	WAITING_START	n/a	n/a	n/a	-999	21	[0, 0, 0]	n/a	FR1	3	R1275D
3489.932	0.001	2138052	WAITING_END	n/a	n/a	n/a	-999	21	[0, 0, 0]	n/a	FR1	3	R1275D
3489.933	10.428	2138053	COUNTDOWN_START	n/a	n/a	n/a	-999	21	[0, 0, 0]	n/a	FR1	3	R1275D
3500.361	0.0	2148480	ORIENT_START	n/a	n/a	n/a	-999	21	[0, 0, 0]	n/a	FR1	3	R1275D
3500.361	1.089	2148480	COUNTDOWN_END	n/a	n/a	n/a	-999	21	[0, 0, 0]	n/a	FR1	3	R1275D
3501.45	0.001	2149569	ORIENT_END	n/a	n/a	n/a	-999	21	[0, 0, 0]	n/a	FR1	3	R1275D
3501.451	1.108	2149570	ENCODING_START	n/a	n/a	n/a	-999	21	[0, 0, 0]	n/a	FR1	3	R1275D
3502.559	1.625	2150678	WORD	n/a	wordpools/wordpool_EN.txt	VASE	1	21	[0, 0, 0]	n/a	FR1	3	R1275D
3504.184	0.921	2152303	WORD_OFF	n/a	n/a	VASE	1	21	[0, 0, 0]	n/a	FR1	3	R1275D
3505.105	1.629	2153224	WORD	n/a	wordpools/wordpool_EN.txt	BRIDGE	2	21	[0, 0, 0]	n/a	FR1	3	R1275D
3506.734	1.079	2154853	WORD_OFF	n/a	n/a	BRIDGE	2	21	[0, 0, 0]	n/a	FR1	3	R1275D
3507.813	1.622	2155932	WORD	n/a	wordpools/wordpool_EN.txt	BREAD	3	21	[0, 0, 0]	n/a	FR1	3	R1275D
3509.435	1.091	2157554	WORD_OFF	n/a	n/a	BREAD	3	21	[0, 0, 0]	n/a	FR1	3	R1275D
3510.526	1.626	2158645	WORD	n/a	wordpools/wordpool_EN.txt	SLIME	4	21	[0, 0, 0]	n/a	FR1	3	R1275D
3512.152	0.922	2160271	WORD_OFF	n/a	n/a	SLIME	4	21	[0, 0, 0]	n/a	FR1	3	R1275D
3513.074	1.628	2161193	WORD	n/a	wordpools/wordpool_EN.txt	FROG	5	21	[0, 0, 0]	n/a	FR1	3	R1275D
3514.702	0.925	2162821	WORD_OFF	n/a	n/a	FROG	5	21	[0, 0, 0]	n/a	FR1	3	R1275D
3515.627	1.626	2163746	WORD	n/a	wordpools/wordpool_EN.txt	ROOT	6	21	[0, 0, 0]	n/a	FR1	3	R1275D
3517.253	0.838	2165371	WORD_OFF	n/a	n/a	ROOT	6	21	[0, 0, 0]	n/a	FR1	3	R1275D
3518.091	1.629	2166209	WORD	n/a	wordpools/wordpool_EN.txt	NAIL	7	21	[0, 0, 0]	n/a	FR1	3	R1275D
3519.72	0.797	2167838	WORD_OFF	n/a	n/a	NAIL	7	21	[0, 0, 0]	n/a	FR1	3	R1275D
3520.517	1.636	2168635	WORD	n/a	wordpools/wordpool_EN.txt	BOX	8	21	[0, 0, 0]	n/a	FR1	3	R1275D
3522.153	0.861	2170271	WORD_OFF	n/a	n/a	BOX	8	21	[0, 0, 0]	n/a	FR1	3	R1275D
3523.014	1.624	2171132	WORD	n/a	wordpools/wordpool_EN.txt	SPONGE	9	21	[0, 0, 0]	n/a	FR1	3	R1275D
3524.638	1.091	2172756	WORD_OFF	n/a	n/a	SPONGE	9	21	[0, 0, 0]	n/a	FR1	3	R1275D
3525.729	1.626	2173847	WORD	n/a	wordpools/wordpool_EN.txt	CUBE	10	21	[0, 0, 0]	n/a	FR1	3	R1275D
3527.355	0.938	2175473	WORD_OFF	n/a	n/a	CUBE	10	21	[0, 0, 0]	n/a	FR1	3	R1275D
3528.293	1.63	2176411	WORD	n/a	wordpools/wordpool_EN.txt	PEAR	11	21	[0, 0, 0]	n/a	FR1	3	R1275D
3529.923	1.144	2178041	WORD_OFF	n/a	n/a	PEAR	11	21	[0, 0, 0]	n/a	FR1	3	R1275D
3531.067	1.639	2179185	WORD	n/a	wordpools/wordpool_EN.txt	TEETH	12	21	[0, 0, 0]	n/a	FR1	3	R1275D
3532.706	0.0	2180824	ENCODING_END	n/a	n/a	n/a	-999	21	[0, 0, 0]	n/a	FR1	3	R1275D
3532.706	0.001	2180824	WORD_OFF	n/a	n/a	TEETH	12	21	[0, 0, 0]	n/a	FR1	3	R1275D
3532.707	0.0	2180825	DISTRACT_START	n/a	n/a	n/a	-999	21	[0, 0, 0]	n/a	FR1	3	R1275D
3532.707	0.015	2180825	START	n/a	n/a	n/a	-999	21	[-999, -999, -999]	n/a	FR1	3	R1275D
3532.722	4.034	2180840	PROB	4.034	n/a	n/a	-999	21	[2, 1, 8]	11	FR1	3	R1275D
3536.756	3.401	2184873	PROB	3.401	n/a	n/a	-999	21	[3, 3, 1]	7	FR1	3	R1275D
3540.157	4.685	2188274	PROB	4.685	n/a	n/a	-999	21	[4, 8, 8]	20	FR1	3	R1275D
3544.842	5.984	2192959	PROB	5.984	n/a	n/a	-999	21	[3, 6, 6]	15	FR1	3	R1275D
3550.826	3.305	2198943	PROB	3.305	n/a	n/a	-999	21	[5, 3, 3]	11	FR1	3	R1275D
3554.131	0.012	2202248	STOP	n/a	n/a	n/a	-999	21	[-999, -999, -999]	n/a	FR1	3	R1275D
3554.143	0.654	2202260	DISTRACT_END	n/a	n/a	n/a	-999	21	[0, 0, 0]	n/a	FR1	3	R1275D
3554.797	1.53	2202914	RETRIEVAL_ORIENT_START	n/a	n/a	n/a	-999	21	[0, 0, 0]	n/a	FR1	3	R1275D
3556.327	0.0	2204444	RETRIEVAL_ORIENT_END	n/a	n/a	n/a	-999	21	[0, 0, 0]	n/a	FR1	3	R1275D
3556.327	0.0	2204444	REC_START	n/a	n/a	n/a	-999	21	[0, 0, 0]	n/a	FR1	3	R1275D
3556.327	0.921	2204444	REC_WORD	0.921	n/a	SPONGE	9	21	[0, 0, 0]	n/a	FR1	3	R1275D
3557.248	1.303	2205365	REC_WORD	1.303	n/a	TEETH	12	21	[0, 0, 0]	n/a	FR1	3	R1275D
3558.551	19.922	2206667	REC_WORD	19.922	n/a	FROG	5	21	[0, 0, 0]	n/a	FR1	3	R1275D
3578.473	7.867	2226589	REC_WORD	7.867	n/a	SUN	-999	21	[0, 0, 0]	n/a	FR1	3	R1275D
3586.34	0.001	2234455	REC_END	n/a	n/a	n/a	-999	21	[0, 0, 0]	n/a	FR1	3	R1275D
3586.341	0.014	2234456	TRIAL_END	n/a	n/a	n/a	-999	21	[0, 0, 0]	n/a	FR1	3	R1275D
3586.355	0.0	2234470	TRIAL_START	n/a	n/a	n/a	-999	22	[0, 0, 0]	n/a	FR1	3	R1275D
3586.355	0.001	2234470	TRIAL	n/a	n/a	n/a	-999	22	[0, 0, 0]	n/a	FR1	3	R1275D
3586.356	1.461	2234471	WAITING_START	n/a	n/a	n/a	-999	22	[0, 0, 0]	n/a	FR1	3	R1275D
3587.817	0.0	2235932	WAITING_END	n/a	n/a	n/a	-999	22	[0, 0, 0]	n/a	FR1	3	R1275D
3587.817	10.43	2235932	COUNTDOWN_START	n/a	n/a	n/a	-999	22	[0, 0, 0]	n/a	FR1	3	R1275D
3598.247	0.0	2246362	ORIENT_START	n/a	n/a	n/a	-999	22	[0, 0, 0]	n/a	FR1	3	R1275D
3598.247	1.121	2246362	COUNTDOWN_END	n/a	n/a	n/a	-999	22	[0, 0, 0]	n/a	FR1	3	R1275D
3599.368	0.0	2247483	ORIENT_END	n/a	n/a	n/a	-999	22	[0, 0, 0]	n/a	FR1	3	R1275D
3599.368	1.131	2247483	ENCODING_START	n/a	n/a	n/a	-999	22	[0, 0, 0]	n/a	FR1	3	R1275D
3600.499	1.636	2248613	WORD	n/a	wordpools/wordpool_EN.txt	RUG	1	22	[0, 0, 0]	n/a	FR1	3	R1275D
3602.135	0.787	2250249	WORD_OFF	n/a	n/a	RUG	1	22	[0, 0, 0]	n/a	FR1	3	R1275D
3602.922	1.63	2251036	WORD	n/a	wordpools/wordpool_EN.txt	CANE	2	22	[0, 0, 0]	n/a	FR1	3	R1275D
3604.552	1.117	2252666	WORD_OFF	n/a	n/a	CANE	2	22	[0, 0, 0]	n/a	FR1	3	R1275D
3605.669	1.634	2253783	WORD	n/a	wordpools/wordpool_EN.txt	MILK	3	22	[0, 0, 0]	n/a	FR1	3	R1275D
3607.303	1.096	2255417	WORD_OFF	n/a	n/a	MILK	3	22	[0, 0, 0]	n/a	FR1	3	R1275D
3608.399	1.621	2256513	WORD	n/a	wordpools/wordpool_EN.txt	BAT	4	22	[0, 0, 0]	n/a	FR1	3	R1275D
3610.02	1.14	2258134	WORD_OFF	n/a	n/a	BAT	4	22	[0, 0, 0]	n/a	FR1	3	R1275D
3611.16	1.628	2259274	WORD	n/a	wordpools/wordpool_EN.txt	HOOK	5	22	[0, 0, 0]	n/a	FR1	3	R1275D
3612.788	1.07	2260902	WORD_OFF	n/a	n/a	HOOK	5	22	[0, 0, 0]	n/a	FR1	3	R1275D
3613.858	1.63	2261972	WORD	n/a	wordpools/wordpool_EN.txt	BEAN	6	22	[0, 0, 0]	n/a	FR1	3	R1275D
3615.488	1.1	2263602	WORD_OFF	n/a	n/a	BEAN	6	22	[0, 0, 0]	n/a	FR1	3	R1275D
3616.588	1.633	2264702	WORD	n/a	wordpools/wordpool_EN.txt	KITE	7	22	[0, 0, 0]	n/a	FR1	3	R1275D
3618.221	0.979	2266335	WORD_OFF	n/a	n/a	KITE	7	22	[0, 0, 0]	n/a	FR1	3	R1275D
3619.2	1.639	2267314	WORD	n/a	wordpools/wordpool_EN.txt	STEAK	8	22	[0, 0, 0]	n/a	FR1	3	R1275D
3620.839	0.931	2268952	WORD_OFF	n/a	n/a	STEAK	8	22	[0, 0, 0]	n/a	FR1	3	R1275D
3621.77	1.636	2269883	WORD	n/a	wordpools/wordpool_EN.txt	FILM	9	22	[0, 0, 0]	n/a	FR1	3	R1275D
3623.406	0.995	2271519	WORD_OFF	n/a	n/a	FILM	9	22	[0, 0, 0]	n/a	FR1	3	R1275D
3624.401	1.622	2272514	WORD	n/a	wordpools/wordpool_EN.txt	SEAL	10	22	[0, 0, 0]	n/a	FR1	3	R1275D
3626.023	1.012	2274136	WORD_OFF	n/a	n/a	SEAL	10	22	[0, 0, 0]	n/a	FR1	3	R1275D
3627.035	1.621	2275148	WORD	n/a	wordpools/wordpool_EN.txt	RAT	11	22	[0, 0, 0]	n/a	FR1	3	R1275D
3628.656	0.926	2276769	WORD_OFF	n/a	n/a	RAT	11	22	[0, 0, 0]	n/a	FR1	3	R1275D
3629.582	1.625	2277695	WORD	n/a	wordpools/wordpool_EN.txt	FOX	12	22	[0, 0, 0]	n/a	FR1	3	R1275D
3631.207	0.001	2279320	WORD_OFF	n/a	n/a	FOX	12	22	[0, 0, 0]	n/a	FR1	3	R1275D
3631.208	0.0	2279321	DISTRACT_START	n/a	n/a	n/a	-999	22	[0, 0, 0]	n/a	FR1	3	R1275D
3631.208	0.0	2279321	ENCODING_END	n/a	n/a	n/a	-999	22	[0, 0, 0]	n/a	FR1	3	R1275D
3631.208	0.015	2279321	START	n/a	n/a	n/a	-999	22	[-999, -999, -999]	n/a	FR1	3	R1275D
3631.223	5.251	2279336	PROB	5.251	n/a	n/a	-999	22	[4, 3, 2]	9	FR1	3	R1275D
3636.474	8.485	2284587	PROB	8.485	n/a	n/a	-999	22	[9, 9, 8]	27	FR1	3	R1275D
3644.959	12.878	2293071	PROB	12.878	n/a	n/a	-999	22	[8, 9, 4]	21	FR1	3	R1275D
3657.837	0.009	2305949	STOP	n/a	n/a	n/a	-999	22	[-999, -999, -999]	n/a	FR1	3	R1275D
3657.846	0.668	2305958	DISTRACT_END	n/a	n/a	n/a	-999	22	[0, 0, 0]	n/a	FR1	3	R1275D
3658.514	1.698	2306626	RETRIEVAL_ORIENT_START	n/a	n/a	n/a	-999	22	[0, 0, 0]	n/a	FR1	3	R1275D
3660.212	0.001	2308324	RETRIEVAL_ORIENT_END	n/a	n/a	n/a	-999	22	[0, 0, 0]	n/a	FR1	3	R1275D
3660.213	15.344	2308325	REC_START	n/a	n/a	n/a	-999	22	[0, 0, 0]	n/a	FR1	3	R1275D
3675.557	1.0	2323668	REC_WORD	1.0	n/a	FOX	12	22	[0, 0, 0]	n/a	FR1	3	R1275D
3676.557	1.0	2324668	REC_WORD_VV	1.0	n/a	<>	-999	22	[0, 0, 0]	n/a	FR1	3	R1275D
3677.557	11.769	2325668	REC_WORD_VV	11.769	n/a	<>	-999	22	[0, 0, 0]	n/a	FR1	3	R1275D
3689.326	0.898	2337436	REC_WORD_VV	0.898	n/a	<>	-999	22	[0, 0, 0]	n/a	FR1	3	R1275D
3690.224	0.001	2338334	REC_END	n/a	n/a	n/a	-999	22	[0, 0, 0]	n/a	FR1	3	R1275D
3690.225	0.014	2338335	TRIAL_END	n/a	n/a	n/a	-999	22	[0, 0, 0]	n/a	FR1	3	R1275D
3690.239	0.0	2338349	TRIAL_START	n/a	n/a	n/a	-999	23	[0, 0, 0]	n/a	FR1	3	R1275D
3690.239	0.0	2338349	TRIAL	n/a	n/a	n/a	-999	23	[0, 0, 0]	n/a	FR1	3	R1275D
3690.239	1.479	2338349	WAITING_START	n/a	n/a	n/a	-999	23	[0, 0, 0]	n/a	FR1	3	R1275D
3691.718	0.001	2339828	WAITING_END	n/a	n/a	n/a	-999	23	[0, 0, 0]	n/a	FR1	3	R1275D
3691.719	10.429	2339829	COUNTDOWN_START	n/a	n/a	n/a	-999	23	[0, 0, 0]	n/a	FR1	3	R1275D
3702.148	0.0	2350258	COUNTDOWN_END	n/a	n/a	n/a	-999	23	[0, 0, 0]	n/a	FR1	3	R1275D
3702.148	1.255	2350258	ORIENT_START	n/a	n/a	n/a	-999	23	[0, 0, 0]	n/a	FR1	3	R1275D
3703.403	0.001	2351513	ORIENT_END	n/a	n/a	n/a	-999	23	[0, 0, 0]	n/a	FR1	3	R1275D
3703.404	0.812	2351514	ENCODING_START	n/a	n/a	n/a	-999	23	[0, 0, 0]	n/a	FR1	3	R1275D
3704.216	1.622	2352325	WORD	n/a	wordpools/wordpool_EN.txt	BOOT	1	23	[0, 0, 0]	n/a	FR1	3	R1275D
3705.838	0.872	2353947	WORD_OFF	n/a	n/a	BOOT	1	23	[0, 0, 0]	n/a	FR1	3	R1275D
3706.71	1.628	2354819	WORD	n/a	wordpools/wordpool_EN.txt	SALT	2	23	[0, 0, 0]	n/a	FR1	3	R1275D
3708.338	1.131	2356447	WORD_OFF	n/a	n/a	SALT	2	23	[0, 0, 0]	n/a	FR1	3	R1275D
3709.469	1.636	2357578	WORD	n/a	wordpools/wordpool_EN.txt	BOY	3	23	[0, 0, 0]	n/a	FR1	3	R1275D
3711.105	0.759	2359214	WORD_OFF	n/a	n/a	BOY	3	23	[0, 0, 0]	n/a	FR1	3	R1275D
3711.864	1.625	2359973	WORD	n/a	wordpools/wordpool_EN.txt	BAND	4	23	[0, 0, 0]	n/a	FR1	3	R1275D
3713.489	0.931	2361598	WORD_OFF	n/a	n/a	BAND	4	23	[0, 0, 0]	n/a	FR1	3	R1275D
3714.42	1.636	2362529	WORD	n/a	wordpools/wordpool_EN.txt	SIGN	5	23	[0, 0, 0]	n/a	FR1	3	R1275D
3716.056	0.861	2364165	WORD_OFF	n/a	n/a	SIGN	5	23	[0, 0, 0]	n/a	FR1	3	R1275D
3716.917	1.622	2365026	WORD	n/a	wordpools/wordpool_EN.txt	PEACH	6	23	[0, 0, 0]	n/a	FR1	3	R1275D
3718.539	1.069	2366648	WORD_OFF	n/a	n/a	PEACH	6	23	[0, 0, 0]	n/a	FR1	3	R1275D
3719.608	1.632	2367717	WORD	n/a	wordpools/wordpool_EN.txt	DRESS	7	23	[0, 0, 0]	n/a	FR1	3	R1275D
