onset	duration	sample	trial_type	response_time	stim_file	item_name	serialpos	list	test	answer	experiment	session	subject
0.0	141.566	1510	INSTRUCT_START	n/a	n/a	n/a	-999	-999	[0, 0, 0]	n/a	FR1	1	R1341T
141.566	4.801	143071	INSTRUCT_END	n/a	n/a	n/a	-999	-999	[0, 0, 0]	n/a	FR1	1	R1341T
146.367	19.793	147871	MIC TEST_START	n/a	n/a	n/a	-999	-999	[0, 0, 0]	n/a	FR1	1	R1341T
166.16	0.017	167664	MIC TEST_END	n/a	n/a	n/a	-999	-999	[0, 0, 0]	n/a	FR1	1	R1341T
166.177	0.001	167681	TRIAL_START	n/a	n/a	n/a	-999	-1	[0, 0, 0]	n/a	FR1	1	R1341T
166.178	0.0	167682	TRIAL	n/a	n/a	n/a	-999	-1	[0, 0, 0]	n/a	FR1	1	R1341T
166.178	8.911	167682	WAITING_START	n/a	n/a	n/a	-999	-1	[0, 0, 0]	n/a	FR1	1	R1341T
175.089	0.0	176592	COUNTDOWN_START	n/a	n/a	n/a	-999	-1	[0, 0, 0]	n/a	FR1	1	R1341T
175.089	10.431	176592	WAITING_END	n/a	n/a	n/a	-999	-1	[0, 0, 0]	n/a	FR1	1	R1341T
185.52	0.0	187023	COUNTDOWN_END	n/a	n/a	n/a	-999	-1	[0, 0, 0]	n/a	FR1	1	R1341T
185.52	1.221	187023	ORIENT_START	n/a	n/a	n/a	-999	-1	[0, 0, 0]	n/a	FR1	1	R1341T
186.741	0.0	188244	ORIENT_END	n/a	n/a	n/a	-999	-1	[0, 0, 0]	n/a	FR1	1	R1341T
186.741	0.808	188244	ENCODING_START	n/a	n/a	n/a	-999	-1	[0, 0, 0]	n/a	FR1	1	R1341T
187.549	1.626	189052	WORD	n/a	n/a	BABY	1	-1	[0, 0, 0]	n/a	FR1	1	R1341T
189.175	1.056	190678	WORD_OFF	n/a	n/a	BABY	1	-1	[0, 0, 0]	n/a	FR1	1	R1341T
190.231	1.627	191734	WORD	n/a	n/a	IMAGE	2	-1	[0, 0, 0]	n/a	FR1	1	R1341T
191.858	0.767	193360	WORD_OFF	n/a	n/a	IMAGE	2	-1	[0, 0, 0]	n/a	FR1	1	R1341T
192.625	1.634	194127	WORD	n/a	n/a	FLOOD	3	-1	[0, 0, 0]	n/a	FR1	1	R1341T
194.259	0.871	195761	WORD_OFF	n/a	n/a	FLOOD	3	-1	[0, 0, 0]	n/a	FR1	1	R1341T
195.13	1.629	196632	WORD	n/a	n/a	COTTON	4	-1	[0, 0, 0]	n/a	FR1	1	R1341T
196.759	1.09	198261	WORD_OFF	n/a	n/a	COTTON	4	-1	[0, 0, 0]	n/a	FR1	1	R1341T
197.849	1.627	199351	WORD	n/a	n/a	WAGON	5	-1	[0, 0, 0]	n/a	FR1	1	R1341T
199.476	1.09	200978	WORD_OFF	n/a	n/a	WAGON	5	-1	[0, 0, 0]	n/a	FR1	1	R1341T
200.566	1.627	202068	WORD	n/a	n/a	RHINO	6	-1	[0, 0, 0]	n/a	FR1	1	R1341T
202.193	0.952	203695	WORD_OFF	n/a	n/a	RHINO	6	-1	[0, 0, 0]	n/a	FR1	1	R1341T
203.145	1.632	204647	WORD	n/a	n/a	WATCH	7	-1	[0, 0, 0]	n/a	FR1	1	R1341T
204.777	1.094	206279	WORD_OFF	n/a	n/a	WATCH	7	-1	[0, 0, 0]	n/a	FR1	1	R1341T
205.871	1.624	207373	WORD	n/a	n/a	CAMEL	8	-1	[0, 0, 0]	n/a	FR1	1	R1341T
207.495	1.007	208997	WORD_OFF	n/a	n/a	CAMEL	8	-1	[0, 0, 0]	n/a	FR1	1	R1341T
208.502	1.626	210004	WORD	n/a	n/a	RING	9	-1	[0, 0, 0]	n/a	FR1	1	R1341T
210.128	0.755	211630	WORD_OFF	n/a	n/a	RING	9	-1	[0, 0, 0]	n/a	FR1	1	R1341T
210.883	1.629	212385	WORD	n/a	n/a	TONGUE	10	-1	[0, 0, 0]	n/a	FR1	1	R1341T
212.512	1.138	214014	WORD_OFF	n/a	n/a	TONGUE	10	-1	[0, 0, 0]	n/a	FR1	1	R1341T
213.65	1.629	215152	WORD	n/a	n/a	CHEST	11	-1	[0, 0, 0]	n/a	FR1	1	R1341T
215.279	0.977	216781	WORD_OFF	n/a	n/a	CHEST	11	-1	[0, 0, 0]	n/a	FR1	1	R1341T
216.256	1.624	217758	WORD	n/a	n/a	BEAM	12	-1	[0, 0, 0]	n/a	FR1	1	R1341T
217.88	0.0	219381	ENCODING_END	n/a	n/a	n/a	-999	-1	[0, 0, 0]	n/a	FR1	1	R1341T
217.88	0.001	219381	WORD_OFF	n/a	n/a	BEAM	12	-1	[0, 0, 0]	n/a	FR1	1	R1341T
217.881	0.0	219382	DISTRACT_START	n/a	n/a	n/a	-999	-1	[0, 0, 0]	n/a	FR1	1	R1341T
217.881	0.015	219382	START	n/a	n/a	n/a	-999	-1	[-999, -999, -999]	n/a	FR1	1	R1341T
217.896	8.452	219397	PROB	8.452	n/a	n/a	-999	-1	[8, 5, 7]	20	FR1	1	R1341T
226.348	3.4	227849	PROB	3.4	n/a	n/a	-999	-1	[6, 2, 3]	11	FR1	1	R1341T
229.748	4.218	231249	PROB	4.218	n/a	n/a	-999	-1	[5, 4, 2]	11	FR1	1	R1341T
233.966	3.684	235467	PROB	3.684	n/a	n/a	-999	-1	[8, 6, 6]	20	FR1	1	R1341T
237.65	8.741	239151	PROB	8.741	n/a	n/a	-999	-1	[6, 3, 1]	10	FR1	1	R1341T
246.391	0.01	247891	STOP	n/a	n/a	n/a	-999	-1	[-999, -999, -999]	n/a	FR1	1	R1341T
246.401	0.637	247901	DISTRACT_END	n/a	n/a	n/a	-999	-1	[0, 0, 0]	n/a	FR1	1	R1341T
247.038	1.564	248538	RETRIEVAL_ORIENT_START	n/a	n/a	n/a	-999	-1	[0, 0, 0]	n/a	FR1	1	R1341T
248.602	0.0	250102	RETRIEVAL_ORIENT_END	n/a	n/a	n/a	-999	-1	[0, 0, 0]	n/a	FR1	1	R1341T
248.602	30.01	250102	REC_START	n/a	n/a	n/a	-999	-1	[0, 0, 0]	n/a	FR1	1	R1341T
278.612	0.0	280111	REC_END	n/a	n/a	n/a	-999	-1	[0, 0, 0]	n/a	FR1	1	R1341T
278.612	6.547	280111	PRACTICE_POST_INSTRUCT_START	n/a	n/a	n/a	-999	-1	[0, 0, 0]	n/a	FR1	1	R1341T
285.159	0.001	286658	PRACTICE_POST_INSTRUCT_END	n/a	n/a	n/a	-999	-1	[0, 0, 0]	n/a	FR1	1	R1341T
285.16	0.017	286659	TRIAL_END	n/a	n/a	n/a	-999	-1	[0, 0, 0]	n/a	FR1	1	R1341T
285.177	0.0	286676	TRIAL_START	n/a	n/a	n/a	-999	1	[0, 0, 0]	n/a	FR1	1	R1341T
285.177	0.0	286676	TRIAL	n/a	n/a	n/a	-999	1	[0, 0, 0]	n/a	FR1	1	R1341T
285.177	2.615	286676	WAITING_START	n/a	n/a	n/a	-999	1	[0, 0, 0]	n/a	FR1	1	R1341T
287.792	0.001	289291	WAITING_END	n/a	n/a	n/a	-999	1	[0, 0, 0]	n/a	FR1	1	R1341T
287.793	10.429	289292	COUNTDOWN_START	n/a	n/a	n/a	-999	1	[0, 0, 0]	n/a	FR1	1	R1341T
298.222	0.0	299720	COUNTDOWN_END	n/a	n/a	n/a	-999	1	[0, 0, 0]	n/a	FR1	1	R1341T
298.222	1.123	299720	ORIENT_START	n/a	n/a	n/a	-999	1	[0, 0, 0]	n/a	FR1	1	R1341T
299.345	0.0	300843	ENCODING_START	n/a	n/a	n/a	-999	1	[0, 0, 0]	n/a	FR1	1	R1341T
299.345	1.142	300843	ORIENT_END	n/a	n/a	n/a	-999	1	[0, 0, 0]	n/a	FR1	1	R1341T
300.487	1.625	301985	WORD	n/a	wordpools/wordpool_EN.txt	FUR	1	1	[0, 0, 0]	n/a	FR1	1	R1341T
302.112	0.817	303610	WORD_OFF	n/a	n/a	FUR	1	1	[0, 0, 0]	n/a	FR1	1	R1341T
302.929	1.633	304427	WORD	n/a	wordpools/wordpool_EN.txt	ROCK	2	1	[0, 0, 0]	n/a	FR1	1	R1341T
304.562	0.988	306060	WORD_OFF	n/a	n/a	ROCK	2	1	[0, 0, 0]	n/a	FR1	1	R1341T
305.55	1.629	307048	WORD	n/a	wordpools/wordpool_EN.txt	VINE	3	1	[0, 0, 0]	n/a	FR1	1	R1341T
307.179	0.788	308677	WORD_OFF	n/a	n/a	VINE	3	1	[0, 0, 0]	n/a	FR1	1	R1341T
307.967	1.629	309465	WORD	n/a	wordpools/wordpool_EN.txt	SNAIL	4	1	[0, 0, 0]	n/a	FR1	1	R1341T
309.596	0.92	311094	WORD_OFF	n/a	n/a	SNAIL	4	1	[0, 0, 0]	n/a	FR1	1	R1341T
310.516	1.631	312014	WORD	n/a	wordpools/wordpool_EN.txt	LAWN	5	1	[0, 0, 0]	n/a	FR1	1	R1341T
312.147	0.947	313645	WORD_OFF	n/a	n/a	LAWN	5	1	[0, 0, 0]	n/a	FR1	1	R1341T
313.094	1.637	314592	WORD	n/a	wordpools/wordpool_EN.txt	DITCH	6	1	[0, 0, 0]	n/a	FR1	1	R1341T
314.731	0.796	316229	WORD_OFF	n/a	n/a	DITCH	6	1	[0, 0, 0]	n/a	FR1	1	R1341T
315.527	1.637	317025	WORD	n/a	wordpools/wordpool_EN.txt	HAWK	7	1	[0, 0, 0]	n/a	FR1	1	R1341T
317.164	0.798	318661	WORD_OFF	n/a	n/a	HAWK	7	1	[0, 0, 0]	n/a	FR1	1	R1341T
317.962	1.636	319459	WORD	n/a	wordpools/wordpool_EN.txt	STAR	8	1	[0, 0, 0]	n/a	FR1	1	R1341T
319.598	0.809	321095	WORD_OFF	n/a	n/a	STAR	8	1	[0, 0, 0]	n/a	FR1	1	R1341T
320.407	1.625	321904	WORD	n/a	wordpools/wordpool_EN.txt	SPOON	9	1	[0, 0, 0]	n/a	FR1	1	R1341T
322.032	0.845	323529	WORD_OFF	n/a	n/a	SPOON	9	1	[0, 0, 0]	n/a	FR1	1	R1341T
322.877	1.622	324374	WORD	n/a	wordpools/wordpool_EN.txt	SKUNK	10	1	[0, 0, 0]	n/a	FR1	1	R1341T
324.499	0.921	325996	WORD_OFF	n/a	n/a	SKUNK	10	1	[0, 0, 0]	n/a	FR1	1	R1341T
325.42	1.63	326917	WORD	n/a	wordpools/wordpool_EN.txt	HILL	11	1	[0, 0, 0]	n/a	FR1	1	R1341T
327.05	0.777	328547	WORD_OFF	n/a	n/a	HILL	11	1	[0, 0, 0]	n/a	FR1	1	R1341T
327.827	1.623	329324	WORD	n/a	wordpools/wordpool_EN.txt	FACE	12	1	[0, 0, 0]	n/a	FR1	1	R1341T
329.45	0.001	330947	WORD_OFF	n/a	n/a	FACE	12	1	[0, 0, 0]	n/a	FR1	1	R1341T
329.451	0.0	330948	ENCODING_END	n/a	n/a	n/a	-999	1	[0, 0, 0]	n/a	FR1	1	R1341T
329.451	0.0	330948	DISTRACT_START	n/a	n/a	n/a	-999	1	[0, 0, 0]	n/a	FR1	1	R1341T
329.451	0.015	330948	START	n/a	n/a	n/a	-999	1	[-999, -999, -999]	n/a	FR1	1	R1341T
329.466	8.885	330963	PROB	8.885	n/a	n/a	-999	1	[7, 6, 1]	14	FR1	1	R1341T
338.351	3.001	339848	PROB	3.001	n/a	n/a	-999	1	[5, 5, 7]	17	FR1	1	R1341T
341.352	7.401	342848	PROB	7.401	n/a	n/a	-999	1	[9, 4, 8]	21	FR1	1	R1341T
348.753	4.515	350249	PROB	4.515	n/a	n/a	-999	1	[9, 8, 2]	19	FR1	1	R1341T
353.268	0.02	354764	STOP	n/a	n/a	n/a	-999	1	[-999, -999, -999]	n/a	FR1	1	R1341T
353.288	0.591	354784	DISTRACT_END	n/a	n/a	n/a	-999	1	[0, 0, 0]	n/a	FR1	1	R1341T
353.879	1.676	355375	RETRIEVAL_ORIENT_START	n/a	n/a	n/a	-999	1	[0, 0, 0]	n/a	FR1	1	R1341T
355.555	0.0	357051	REC_START	n/a	n/a	n/a	-999	1	[0, 0, 0]	n/a	FR1	1	R1341T
355.555	2.246	357051	RETRIEVAL_ORIENT_END	n/a	n/a	n/a	-999	1	[0, 0, 0]	n/a	FR1	1	R1341T
357.801	0.776	359297	REC_WORD	0.776	n/a	FUR	1	1	[0, 0, 0]	n/a	FR1	1	R1341T
358.577	0.829	360073	REC_WORD	0.829	n/a	SNAKE	-999	1	[0, 0, 0]	n/a	FR1	1	R1341T
359.406	26.16	360902	REC_WORD	26.16	n/a	VINE	3	1	[0, 0, 0]	n/a	FR1	1	R1341T
385.566	0.0	387061	REC_END	n/a	n/a	n/a	-999	1	[0, 0, 0]	n/a	FR1	1	R1341T
385.566	0.014	387061	TRIAL_END	n/a	n/a	n/a	-999	1	[0, 0, 0]	n/a	FR1	1	R1341T
385.58	0.001	387075	TRIAL_START	n/a	n/a	n/a	-999	2	[0, 0, 0]	n/a	FR1	1	R1341T
385.581	0.0	387076	WAITING_START	n/a	n/a	n/a	-999	2	[0, 0, 0]	n/a	FR1	1	R1341T
385.581	31.018	387076	TRIAL	n/a	n/a	n/a	-999	2	[0, 0, 0]	n/a	FR1	1	R1341T
416.599	0.0	418092	COUNTDOWN_START	n/a	n/a	n/a	-999	2	[0, 0, 0]	n/a	FR1	1	R1341T
416.599	10.428	418092	WAITING_END	n/a	n/a	n/a	-999	2	[0, 0, 0]	n/a	FR1	1	R1341T
427.027	0.0	428520	COUNTDOWN_END	n/a	n/a	n/a	-999	2	[0, 0, 0]	n/a	FR1	1	R1341T
427.027	1.124	428520	ORIENT_START	n/a	n/a	n/a	-999	2	[0, 0, 0]	n/a	FR1	1	R1341T
428.151	0.001	429644	ORIENT_END	n/a	n/a	n/a	-999	2	[0, 0, 0]	n/a	FR1	1	R1341T
428.152	0.837	429645	ENCODING_START	n/a	n/a	n/a	-999	2	[0, 0, 0]	n/a	FR1	1	R1341T
428.989	1.629	430482	WORD	n/a	wordpools/wordpool_EN.txt	ROOF	1	2	[0, 0, 0]	n/a	FR1	1	R1341T
430.618	1.108	432111	WORD_OFF	n/a	n/a	ROOF	1	2	[0, 0, 0]	n/a	FR1	1	R1341T
431.726	1.626	433219	WORD	n/a	wordpools/wordpool_EN.txt	SPONGE	2	2	[0, 0, 0]	n/a	FR1	1	R1341T
433.352	0.842	434845	WORD_OFF	n/a	n/a	SPONGE	2	2	[0, 0, 0]	n/a	FR1	1	R1341T
434.194	1.625	435687	WORD	n/a	wordpools/wordpool_EN.txt	CHIN	3	2	[0, 0, 0]	n/a	FR1	1	R1341T
435.819	0.943	437312	WORD_OFF	n/a	n/a	CHIN	3	2	[0, 0, 0]	n/a	FR1	1	R1341T
436.762	1.624	438255	WORD	n/a	wordpools/wordpool_EN.txt	GLOVE	4	2	[0, 0, 0]	n/a	FR1	1	R1341T
438.386	0.762	439879	WORD_OFF	n/a	n/a	GLOVE	4	2	[0, 0, 0]	n/a	FR1	1	R1341T
439.148	1.622	440641	WORD	n/a	wordpools/wordpool_EN.txt	PEA	5	2	[0, 0, 0]	n/a	FR1	1	R1341T
440.77	0.828	442263	WORD_OFF	n/a	n/a	PEA	5	2	[0, 0, 0]	n/a	FR1	1	R1341T
441.598	1.624	443090	WORD	n/a	wordpools/wordpool_EN.txt	CAVE	6	2	[0, 0, 0]	n/a	FR1	1	R1341T
443.222	0.938	444714	WORD_OFF	n/a	n/a	CAVE	6	2	[0, 0, 0]	n/a	FR1	1	R1341T
444.16	1.628	445652	WORD	n/a	wordpools/wordpool_EN.txt	CRANE	7	2	[0, 0, 0]	n/a	FR1	1	R1341T
445.788	0.751	447280	WORD_OFF	n/a	n/a	CRANE	7	2	[0, 0, 0]	n/a	FR1	1	R1341T
446.539	1.633	448031	WORD	n/a	wordpools/wordpool_EN.txt	JET	8	2	[0, 0, 0]	n/a	FR1	1	R1341T
448.172	1.115	449664	WORD_OFF	n/a	n/a	JET	8	2	[0, 0, 0]	n/a	FR1	1	R1341T
449.287	1.635	450779	WORD	n/a	wordpools/wordpool_EN.txt	CLOUD	9	2	[0, 0, 0]	n/a	FR1	1	R1341T
450.922	0.907	452414	WORD_OFF	n/a	n/a	CLOUD	9	2	[0, 0, 0]	n/a	FR1	1	R1341T
451.829	1.627	453321	WORD	n/a	wordpools/wordpool_EN.txt	PIT	10	2	[0, 0, 0]	n/a	FR1	1	R1341T
453.456	0.779	454948	WORD_OFF	n/a	n/a	PIT	10	2	[0, 0, 0]	n/a	FR1	1	R1341T
454.235	1.621	455727	WORD	n/a	wordpools/wordpool_EN.txt	PIN	11	2	[0, 0, 0]	n/a	FR1	1	R1341T
455.856	0.882	457348	WORD_OFF	n/a	n/a	PIN	11	2	[0, 0, 0]	n/a	FR1	1	R1341T
456.738	1.635	458230	WORD	n/a	wordpools/wordpool_EN.txt	LIP	12	2	[0, 0, 0]	n/a	FR1	1	R1341T
458.373	0.001	459865	WORD_OFF	n/a	n/a	LIP	12	2	[0, 0, 0]	n/a	FR1	1	R1341T
458.374	0.0	459866	ENCODING_END	n/a	n/a	n/a	-999	2	[0, 0, 0]	n/a	FR1	1	R1341T
458.374	0.0	459866	DISTRACT_START	n/a	n/a	n/a	-999	2	[0, 0, 0]	n/a	FR1	1	R1341T
458.374	0.016	459866	START	n/a	n/a	n/a	-999	2	[-999, -999, -999]	n/a	FR1	1	R1341T
458.39	4.367	459882	PROB	4.367	n/a	n/a	-999	2	[1, 8, 9]	18	FR1	1	R1341T
462.757	3.618	464249	PROB	3.618	n/a	n/a	-999	2	[2, 5, 3]	10	FR1	1	R1341T
466.375	7.568	467866	PROB	7.568	n/a	n/a	-999	2	[5, 9, 3]	17	FR1	1	R1341T
473.943	3.384	475434	PROB	3.384	n/a	n/a	-999	2	[6, 8, 2]	16	FR1	1	R1341T
477.327	3.561	478818	PROB	3.561	n/a	n/a	-999	2	[1, 5, 3]	9	FR1	1	R1341T
480.888	0.023	482379	STOP	n/a	n/a	n/a	-999	2	[-999, -999, -999]	n/a	FR1	1	R1341T
480.911	0.597	482402	DISTRACT_END	n/a	n/a	n/a	-999	2	[0, 0, 0]	n/a	FR1	1	R1341T
481.508	1.603	482999	RETRIEVAL_ORIENT_START	n/a	n/a	n/a	-999	2	[0, 0, 0]	n/a	FR1	1	R1341T
483.111	0.001	484602	RETRIEVAL_ORIENT_END	n/a	n/a	n/a	-999	2	[0, 0, 0]	n/a	FR1	1	R1341T
483.112	2.678	484603	REC_START	n/a	n/a	n/a	-999	2	[0, 0, 0]	n/a	FR1	1	R1341T
485.79	0.409	487281	REC_WORD	0.409	n/a	ROOF	1	2	[0, 0, 0]	n/a	FR1	1	R1341T
486.199	1.719	487690	REC_WORD	1.719	n/a	SPONGE	2	2	[0, 0, 0]	n/a	FR1	1	R1341T
487.918	2.331	489409	REC_WORD	2.331	n/a	CHIN	3	2	[0, 0, 0]	n/a	FR1	1	R1341T
490.249	2.743	491740	REC_WORD	2.743	n/a	PLANE	-999	2	[0, 0, 0]	n/a	FR1	1	R1341T
492.992	0.443	494482	REC_WORD	0.443	n/a	CHIT	-999	2	[0, 0, 0]	n/a	FR1	1	R1341T
493.435	0.725	494925	REC_WORD	0.725	n/a	SKY	-999	2	[0, 0, 0]	n/a	FR1	1	R1341T
494.16	18.964	495650	REC_WORD	18.964	n/a	CLOUD	9	2	[0, 0, 0]	n/a	FR1	1	R1341T
513.124	0.0	514614	REC_END	n/a	n/a	n/a	-999	2	[0, 0, 0]	n/a	FR1	1	R1341T
513.124	0.016	514614	TRIAL_END	n/a	n/a	n/a	-999	2	[0, 0, 0]	n/a	FR1	1	R1341T
513.14	0.0	514630	TRIAL_START	n/a	n/a	n/a	-999	3	[0, 0, 0]	n/a	FR1	1	R1341T
513.14	0.0	514630	TRIAL	n/a	n/a	n/a	-999	3	[0, 0, 0]	n/a	FR1	1	R1341T
513.14	2.494	514630	WAITING_START	n/a	n/a	n/a	-999	3	[0, 0, 0]	n/a	FR1	1	R1341T
515.634	0.0	517124	COUNTDOWN_START	n/a	n/a	n/a	-999	3	[0, 0, 0]	n/a	FR1	1	R1341T
515.634	10.429	517124	WAITING_END	n/a	n/a	n/a	-999	3	[0, 0, 0]	n/a	FR1	1	R1341T
526.063	0.0	527552	COUNTDOWN_END	n/a	n/a	n/a	-999	3	[0, 0, 0]	n/a	FR1	1	R1341T
526.063	1.223	527552	ORIENT_START	n/a	n/a	n/a	-999	3	[0, 0, 0]	n/a	FR1	1	R1341T
527.286	0.0	528775	ORIENT_END	n/a	n/a	n/a	-999	3	[0, 0, 0]	n/a	FR1	1	R1341T
527.286	1.122	528775	ENCODING_START	n/a	n/a	n/a	-999	3	[0, 0, 0]	n/a	FR1	1	R1341T
528.408	1.628	529897	WORD	n/a	wordpools/wordpool_EN.txt	STEAM	1	3	[0, 0, 0]	n/a	FR1	1	R1341T
530.036	1.132	531525	WORD_OFF	n/a	n/a	STEAM	1	3	[0, 0, 0]	n/a	FR1	1	R1341T
531.168	1.636	532657	WORD	n/a	wordpools/wordpool_EN.txt	MUG	2	3	[0, 0, 0]	n/a	FR1	1	R1341T
532.804	1.071	534293	WORD_OFF	n/a	n/a	MUG	2	3	[0, 0, 0]	n/a	FR1	1	R1341T
533.875	1.629	535364	WORD	n/a	wordpools/wordpool_EN.txt	DART	3	3	[0, 0, 0]	n/a	FR1	1	R1341T
535.504	1.0	536993	WORD_OFF	n/a	n/a	DART	3	3	[0, 0, 0]	n/a	FR1	1	R1341T
536.504	1.634	537993	WORD	n/a	wordpools/wordpool_EN.txt	WOOD	4	3	[0, 0, 0]	n/a	FR1	1	R1341T
538.138	0.765	539627	WORD_OFF	n/a	n/a	WOOD	4	3	[0, 0, 0]	n/a	FR1	1	R1341T
538.903	1.635	540392	WORD	n/a	wordpools/wordpool_EN.txt	FRUIT	5	3	[0, 0, 0]	n/a	FR1	1	R1341T
540.538	0.862	542027	WORD_OFF	n/a	n/a	FRUIT	5	3	[0, 0, 0]	n/a	FR1	1	R1341T
541.4	1.622	542888	WORD	n/a	wordpools/wordpool_EN.txt	CLIFF	6	3	[0, 0, 0]	n/a	FR1	1	R1341T
543.022	1.023	544510	WORD_OFF	n/a	n/a	CLIFF	6	3	[0, 0, 0]	n/a	FR1	1	R1341T
544.045	1.628	545533	WORD	n/a	wordpools/wordpool_EN.txt	MOUSE	7	3	[0, 0, 0]	n/a	FR1	1	R1341T
545.673	0.937	547161	WORD_OFF	n/a	n/a	MOUSE	7	3	[0, 0, 0]	n/a	FR1	1	R1341T
546.61	1.63	548098	WORD	n/a	wordpools/wordpool_EN.txt	ZOO	8	3	[0, 0, 0]	n/a	FR1	1	R1341T
548.24	0.818	549728	WORD_OFF	n/a	n/a	ZOO	8	3	[0, 0, 0]	n/a	FR1	1	R1341T
549.058	1.632	550546	WORD	n/a	wordpools/wordpool_EN.txt	PEARL	9	3	[0, 0, 0]	n/a	FR1	1	R1341T
550.69	0.845	552178	WORD_OFF	n/a	n/a	PEARL	9	3	[0, 0, 0]	n/a	FR1	1	R1341T
551.535	1.622	553023	WORD	n/a	wordpools/wordpool_EN.txt	ROOM	10	3	[0, 0, 0]	n/a	FR1	1	R1341T
553.157	0.885	554645	WORD_OFF	n/a	n/a	ROOM	10	3	[0, 0, 0]	n/a	FR1	1	R1341T
554.042	1.632	555530	WORD	n/a	wordpools/wordpool_EN.txt	BARN	11	3	[0, 0, 0]	n/a	FR1	1	R1341T
555.674	0.982	557162	WORD_OFF	n/a	n/a	BARN	11	3	[0, 0, 0]	n/a	FR1	1	R1341T
556.656	1.636	558144	WORD	n/a	wordpools/wordpool_EN.txt	CANE	12	3	[0, 0, 0]	n/a	FR1	1	R1341T
558.292	0.0	559780	DISTRACT_START	n/a	n/a	n/a	-999	3	[0, 0, 0]	n/a	FR1	1	R1341T
558.292	0.0	559780	WORD_OFF	n/a	n/a	CANE	12	3	[0, 0, 0]	n/a	FR1	1	R1341T
558.292	0.0	559780	ENCODING_END	n/a	n/a	n/a	-999	3	[0, 0, 0]	n/a	FR1	1	R1341T
558.292	0.016	559780	START	n/a	n/a	n/a	-999	3	[-999, -999, -999]	n/a	FR1	1	R1341T
558.308	4.601	559796	PROB	4.601	n/a	n/a	-999	3	[5, 2, 8]	15	FR1	1	R1341T
562.909	3.917	564397	PROB	3.917	n/a	n/a	-999	3	[8, 1, 2]	11	FR1	1	R1341T
566.826	5.451	568313	PROB	5.451	n/a	n/a	-999	3	[8, 2, 1]	11	FR1	1	R1341T
572.277	3.734	573764	PROB	3.734	n/a	n/a	-999	3	[5, 2, 4]	11	FR1	1	R1341T
576.011	4.36	577498	PROB	4.36	n/a	n/a	-999	3	[2, 9, 7]	18	FR1	1	R1341T
580.371	0.008	581858	STOP	n/a	n/a	n/a	-999	3	[-999, -999, -999]	n/a	FR1	1	R1341T
580.379	0.673	581866	DISTRACT_END	n/a	n/a	n/a	-999	3	[0, 0, 0]	n/a	FR1	1	R1341T
581.052	1.677	582539	RETRIEVAL_ORIENT_START	n/a	n/a	n/a	-999	3	[0, 0, 0]	n/a	FR1	1	R1341T
582.729	0.001	584216	RETRIEVAL_ORIENT_END	n/a	n/a	n/a	-999	3	[0, 0, 0]	n/a	FR1	1	R1341T
582.73	2.224	584217	REC_START	n/a	n/a	n/a	-999	3	[0, 0, 0]	n/a	FR1	1	R1341T
584.954	0.688	586441	REC_WORD	0.688	n/a	STEAM	1	3	[0, 0, 0]	n/a	FR1	1	R1341T
585.642	0.705	587129	REC_WORD	0.705	n/a	WOOD	4	3	[0, 0, 0]	n/a	FR1	1	R1341T
586.347	1.657	587834	REC_WORD	1.657	n/a	DART	3	3	[0, 0, 0]	n/a	FR1	1	R1341T
588.004	1.445	589491	REC_WORD	1.445	n/a	PEARL	9	3	[0, 0, 0]	n/a	FR1	1	R1341T
589.449	0.741	590936	REC_WORD	0.741	n/a	ROOM	10	3	[0, 0, 0]	n/a	FR1	1	R1341T
590.19	22.552	591677	REC_WORD	22.552	n/a	CLIFF	6	3	[0, 0, 0]	n/a	FR1	1	R1341T
612.742	0.001	614228	REC_END	n/a	n/a	n/a	-999	3	[0, 0, 0]	n/a	FR1	1	R1341T
612.743	0.014	614229	TRIAL_END	n/a	n/a	n/a	-999	3	[0, 0, 0]	n/a	FR1	1	R1341T
612.757	0.0	614243	TRIAL	n/a	n/a	n/a	-999	4	[0, 0, 0]	n/a	FR1	1	R1341T
612.757	0.0	614243	WAITING_START	n/a	n/a	n/a	-999	4	[0, 0, 0]	n/a	FR1	1	R1341T
612.757	1.978	614243	TRIAL_START	n/a	n/a	n/a	-999	4	[0, 0, 0]	n/a	FR1	1	R1341T
614.735	0.001	616221	WAITING_END	n/a	n/a	n/a	-999	4	[0, 0, 0]	n/a	FR1	1	R1341T
614.736	10.428	616222	COUNTDOWN_START	n/a	n/a	n/a	-999	4	[0, 0, 0]	n/a	FR1	1	R1341T
625.164	0.0	626649	COUNTDOWN_END	n/a	n/a	n/a	-999	4	[0, 0, 0]	n/a	FR1	1	R1341T
625.164	1.14	626649	ORIENT_START	n/a	n/a	n/a	-999	4	[0, 0, 0]	n/a	FR1	1	R1341T
626.304	0.001	627789	ORIENT_END	n/a	n/a	n/a	-999	4	[0, 0, 0]	n/a	FR1	1	R1341T
626.305	1.006	627790	ENCODING_START	n/a	n/a	n/a	-999	4	[0, 0, 0]	n/a	FR1	1	R1341T
627.311	1.627	628796	WORD	n/a	wordpools/wordpool_EN.txt	TOY	1	4	[0, 0, 0]	n/a	FR1	1	R1341T
628.938	1.034	630423	WORD_OFF	n/a	n/a	TOY	1	4	[0, 0, 0]	n/a	FR1	1	R1341T
629.972	1.633	631457	WORD	n/a	wordpools/wordpool_EN.txt	SHARK	2	4	[0, 0, 0]	n/a	FR1	1	R1341T
631.605	0.752	633090	WORD_OFF	n/a	n/a	SHARK	2	4	[0, 0, 0]	n/a	FR1	1	R1341T
632.357	1.632	633842	WORD	n/a	wordpools/wordpool_EN.txt	SWORD	3	4	[0, 0, 0]	n/a	FR1	1	R1341T
633.989	1.123	635474	WORD_OFF	n/a	n/a	SWORD	3	4	[0, 0, 0]	n/a	FR1	1	R1341T
635.112	1.627	636597	WORD	n/a	wordpools/wordpool_EN.txt	TAIL	4	4	[0, 0, 0]	n/a	FR1	1	R1341T
636.739	0.835	638224	WORD_OFF	n/a	n/a	TAIL	4	4	[0, 0, 0]	n/a	FR1	1	R1341T
637.574	1.632	639059	WORD	n/a	wordpools/wordpool_EN.txt	DOLL	5	4	[0, 0, 0]	n/a	FR1	1	R1341T
639.206	0.837	640691	WORD_OFF	n/a	n/a	DOLL	5	4	[0, 0, 0]	n/a	FR1	1	R1341T
640.043	1.63	641528	WORD	n/a	wordpools/wordpool_EN.txt	SKY	6	4	[0, 0, 0]	n/a	FR1	1	R1341T
641.673	0.913	643157	WORD_OFF	n/a	n/a	SKY	6	4	[0, 0, 0]	n/a	FR1	1	R1341T
642.586	1.638	644070	WORD	n/a	wordpools/wordpool_EN.txt	FROG	7	4	[0, 0, 0]	n/a	FR1	1	R1341T
644.224	0.831	645708	WORD_OFF	n/a	n/a	FROG	7	4	[0, 0, 0]	n/a	FR1	1	R1341T
645.055	1.636	646539	WORD	n/a	wordpools/wordpool_EN.txt	CART	8	4	[0, 0, 0]	n/a	FR1	1	R1341T
646.691	0.863	648175	WORD_OFF	n/a	n/a	CART	8	4	[0, 0, 0]	n/a	FR1	1	R1341T
647.554	1.637	649038	WORD	n/a	wordpools/wordpool_EN.txt	CUBE	9	4	[0, 0, 0]	n/a	FR1	1	R1341T
649.191	1.143	650675	WORD_OFF	n/a	n/a	CUBE	9	4	[0, 0, 0]	n/a	FR1	1	R1341T
650.334	1.625	651818	WORD	n/a	wordpools/wordpool_EN.txt	WEB	10	4	[0, 0, 0]	n/a	FR1	1	R1341T
651.959	0.994	653443	WORD_OFF	n/a	n/a	WEB	10	4	[0, 0, 0]	n/a	FR1	1	R1341T
652.953	1.623	654437	WORD	n/a	wordpools/wordpool_EN.txt	WOLF	11	4	[0, 0, 0]	n/a	FR1	1	R1341T
654.576	0.759	656060	WORD_OFF	n/a	n/a	WOLF	11	4	[0, 0, 0]	n/a	FR1	1	R1341T
655.335	1.625	656819	WORD	n/a	wordpools/wordpool_EN.txt	BOOT	12	4	[0, 0, 0]	n/a	FR1	1	R1341T
656.96	0.0	658444	DISTRACT_START	n/a	n/a	n/a	-999	4	[0, 0, 0]	n/a	FR1	1	R1341T
656.96	0.0	658444	WORD_OFF	n/a	n/a	BOOT	12	4	[0, 0, 0]	n/a	FR1	1	R1341T
656.96	0.001	658444	ENCODING_END	n/a	n/a	n/a	-999	4	[0, 0, 0]	n/a	FR1	1	R1341T
656.961	0.015	658445	START	n/a	n/a	n/a	-999	4	[-999, -999, -999]	n/a	FR1	1	R1341T
656.976	7.151	658460	PROB	7.151	n/a	n/a	-999	4	[4, 4, 5]	15	FR1	1	R1341T
664.127	7.568	665611	PROB	7.568	n/a	n/a	-999	4	[9, 4, 8]	21	FR1	1	R1341T
671.695	9.574	673178	PROB	9.574	n/a	n/a	-999	4	[6, 7, 9]	22	FR1	1	R1341T
681.269	0.012	682752	STOP	n/a	n/a	n/a	-999	4	[-999, -999, -999]	n/a	FR1	1	R1341T
681.281	0.641	682764	DISTRACT_END	n/a	n/a	n/a	-999	4	[0, 0, 0]	n/a	FR1	1	R1341T
681.922	1.726	683405	RETRIEVAL_ORIENT_START	n/a	n/a	n/a	-999	4	[0, 0, 0]	n/a	FR1	1	R1341T
683.648	0.0	685131	RETRIEVAL_ORIENT_END	n/a	n/a	n/a	-999	4	[0, 0, 0]	n/a	FR1	1	R1341T
683.648	9.524	685131	REC_START	n/a	n/a	n/a	-999	4	[0, 0, 0]	n/a	FR1	1	R1341T
693.172	0.71	694654	REC_WORD	0.71	n/a	FROG	7	4	[0, 0, 0]	n/a	FR1	1	R1341T
693.882	1.098	695364	REC_WORD	1.098	n/a	SWORD	3	4	[0, 0, 0]	n/a	FR1	1	R1341T
694.98	1.163	696462	REC_WORD	1.163	n/a	TOY	1	4	[0, 0, 0]	n/a	FR1	1	R1341T
696.143	17.516	697625	REC_WORD	17.516	n/a	DOLL	5	4	[0, 0, 0]	n/a	FR1	1	R1341T
713.659	0.0	715141	REC_END	n/a	n/a	n/a	-999	4	[0, 0, 0]	n/a	FR1	1	R1341T
713.659	0.015	715141	TRIAL_END	n/a	n/a	n/a	-999	4	[0, 0, 0]	n/a	FR1	1	R1341T
713.674	0.0	715156	TRIAL_START	n/a	n/a	n/a	-999	5	[0, 0, 0]	n/a	FR1	1	R1341T
713.674	0.001	715156	TRIAL	n/a	n/a	n/a	-999	5	[0, 0, 0]	n/a	FR1	1	R1341T
713.675	2.929	715157	WAITING_START	n/a	n/a	n/a	-999	5	[0, 0, 0]	n/a	FR1	1	R1341T
716.604	0.0	718085	WAITING_END	n/a	n/a	n/a	-999	5	[0, 0, 0]	n/a	FR1	1	R1341T
716.604	10.429	718085	COUNTDOWN_START	n/a	n/a	n/a	-999	5	[0, 0, 0]	n/a	FR1	1	R1341T
727.033	0.0	728514	ORIENT_START	n/a	n/a	n/a	-999	5	[0, 0, 0]	n/a	FR1	1	R1341T
727.033	1.173	728514	COUNTDOWN_END	n/a	n/a	n/a	-999	5	[0, 0, 0]	n/a	FR1	1	R1341T
728.206	0.0	729687	ORIENT_END	n/a	n/a	n/a	-999	5	[0, 0, 0]	n/a	FR1	1	R1341T
728.206	0.969	729687	ENCODING_START	n/a	n/a	n/a	-999	5	[0, 0, 0]	n/a	FR1	1	R1341T
729.175	1.631	730656	WORD	n/a	wordpools/wordpool_EN.txt	CASH	1	5	[0, 0, 0]	n/a	FR1	1	R1341T
730.806	1.014	732287	WORD_OFF	n/a	n/a	CASH	1	5	[0, 0, 0]	n/a	FR1	1	R1341T
731.82	1.637	733301	WORD	n/a	wordpools/wordpool_EN.txt	FUDGE	2	5	[0, 0, 0]	n/a	FR1	1	R1341T
733.457	0.77	734938	WORD_OFF	n/a	n/a	FUDGE	2	5	[0, 0, 0]	n/a	FR1	1	R1341T
734.227	1.63	735708	WORD	n/a	wordpools/wordpool_EN.txt	CLAY	3	5	[0, 0, 0]	n/a	FR1	1	R1341T
735.857	0.977	737338	WORD_OFF	n/a	n/a	CLAY	3	5	[0, 0, 0]	n/a	FR1	1	R1341T
736.834	1.607	738315	WORD	n/a	wordpools/wordpool_EN.txt	CORD	4	5	[0, 0, 0]	n/a	FR1	1	R1341T
738.441	0.936	739922	WORD_OFF	n/a	n/a	CORD	4	5	[0, 0, 0]	n/a	FR1	1	R1341T
739.377	1.631	740858	WORD	n/a	wordpools/wordpool_EN.txt	BREAD	5	5	[0, 0, 0]	n/a	FR1	1	R1341T
741.008	0.828	742488	WORD_OFF	n/a	n/a	BREAD	5	5	[0, 0, 0]	n/a	FR1	1	R1341T
741.836	1.622	743316	WORD	n/a	wordpools/wordpool_EN.txt	TOOL	6	5	[0, 0, 0]	n/a	FR1	1	R1341T
743.458	1.05	744938	WORD_OFF	n/a	n/a	TOOL	6	5	[0, 0, 0]	n/a	FR1	1	R1341T
744.508	1.634	745988	WORD	n/a	wordpools/wordpool_EN.txt	FOG	7	5	[0, 0, 0]	n/a	FR1	1	R1341T
746.142	0.787	747622	WORD_OFF	n/a	n/a	FOG	7	5	[0, 0, 0]	n/a	FR1	1	R1341T
746.929	1.63	748409	WORD	n/a	wordpools/wordpool_EN.txt	GEESE	8	5	[0, 0, 0]	n/a	FR1	1	R1341T
748.559	0.857	750039	WORD_OFF	n/a	n/a	GEESE	8	5	[0, 0, 0]	n/a	FR1	1	R1341T
749.416	1.627	750896	WORD	n/a	wordpools/wordpool_EN.txt	BRIDGE	9	5	[0, 0, 0]	n/a	FR1	1	R1341T
751.043	1.12	752523	WORD_OFF	n/a	n/a	BRIDGE	9	5	[0, 0, 0]	n/a	FR1	1	R1341T
752.163	1.631	753643	WORD	n/a	wordpools/wordpool_EN.txt	PLANE	10	5	[0, 0, 0]	n/a	FR1	1	R1341T
753.794	1.028	755274	WORD_OFF	n/a	n/a	PLANE	10	5	[0, 0, 0]	n/a	FR1	1	R1341T
754.822	1.622	756302	WORD	n/a	wordpools/wordpool_EN.txt	RIB	11	5	[0, 0, 0]	n/a	FR1	1	R1341T
756.444	1.044	757924	WORD_OFF	n/a	n/a	RIB	11	5	[0, 0, 0]	n/a	FR1	1	R1341T
757.488	1.624	758968	WORD	n/a	wordpools/wordpool_EN.txt	SPARK	12	5	[0, 0, 0]	n/a	FR1	1	R1341T
759.112	0.0	760592	WORD_OFF	n/a	n/a	SPARK	12	5	[0, 0, 0]	n/a	FR1	1	R1341T
759.112	0.0	760592	ENCODING_END	n/a	n/a	n/a	-999	5	[0, 0, 0]	n/a	FR1	1	R1341T
759.112	0.001	760592	DISTRACT_START	n/a	n/a	n/a	-999	5	[0, 0, 0]	n/a	FR1	1	R1341T
759.113	0.015	760593	START	n/a	n/a	n/a	-999	5	[-999, -999, -999]	n/a	FR1	1	R1341T
759.128	7.251	760608	PROB	7.251	n/a	n/a	-999	5	[3, 6, 3]	12	FR1	1	R1341T
766.379	2.817	767858	PROB	2.817	n/a	n/a	-999	5	[3, 4, 1]	8	FR1	1	R1341T
769.196	11.126	770675	PROB	11.126	n/a	n/a	-999	5	[9, 5, 8]	22	FR1	1	R1341T
780.322	0.01	781801	STOP	n/a	n/a	n/a	-999	5	[-999, -999, -999]	n/a	FR1	1	R1341T
780.332	0.665	781811	DISTRACT_END	n/a	n/a	n/a	-999	5	[0, 0, 0]	n/a	FR1	1	R1341T
780.997	1.585	782476	RETRIEVAL_ORIENT_START	n/a	n/a	n/a	-999	5	[0, 0, 0]	n/a	FR1	1	R1341T
782.582	0.001	784061	RETRIEVAL_ORIENT_END	n/a	n/a	n/a	-999	5	[0, 0, 0]	n/a	FR1	1	R1341T
782.583	4.001	784062	REC_START	n/a	n/a	n/a	-999	5	[0, 0, 0]	n/a	FR1	1	R1341T
786.584	4.591	788063	REC_WORD	4.591	n/a	PLANE	10	5	[0, 0, 0]	n/a	FR1	1	R1341T
791.175	4.096	792653	REC_WORD	4.096	n/a	RIB	11	5	[0, 0, 0]	n/a	FR1	1	R1341T
795.271	1.139	796749	REC_WORD	1.139	n/a	FUDGE	2	5	[0, 0, 0]	n/a	FR1	1	R1341T
796.41	16.186	797888	REC_WORD	16.186	n/a	CLAY	3	5	[0, 0, 0]	n/a	FR1	1	R1341T
812.596	0.0	814074	TRIAL_END	n/a	n/a	n/a	-999	5	[0, 0, 0]	n/a	FR1	1	R1341T
812.596	0.014	814074	REC_END	n/a	n/a	n/a	-999	5	[0, 0, 0]	n/a	FR1	1	R1341T
812.61	0.0	814088	TRIAL_START	n/a	n/a	n/a	-999	6	[0, 0, 0]	n/a	FR1	1	R1341T
812.61	0.0	814088	TRIAL	n/a	n/a	n/a	-999	6	[0, 0, 0]	n/a	FR1	1	R1341T
812.61	5.412	814088	WAITING_START	n/a	n/a	n/a	-999	6	[0, 0, 0]	n/a	FR1	1	R1341T
818.022	0.001	819499	WAITING_END	n/a	n/a	n/a	-999	6	[0, 0, 0]	n/a	FR1	1	R1341T
818.023	10.429	819500	COUNTDOWN_START	n/a	n/a	n/a	-999	6	[0, 0, 0]	n/a	FR1	1	R1341T
828.452	0.001	829929	COUNTDOWN_END	n/a	n/a	n/a	-999	6	[0, 0, 0]	n/a	FR1	1	R1341T
828.453	1.188	829930	ORIENT_START	n/a	n/a	n/a	-999	6	[0, 0, 0]	n/a	FR1	1	R1341T
829.641	0.0	831118	ORIENT_END	n/a	n/a	n/a	-999	6	[0, 0, 0]	n/a	FR1	1	R1341T
829.641	0.94	831118	ENCODING_START	n/a	n/a	n/a	-999	6	[0, 0, 0]	n/a	FR1	1	R1341T
830.581	1.627	832058	WORD	n/a	wordpools/wordpool_EN.txt	BOY	1	6	[0, 0, 0]	n/a	FR1	1	R1341T
832.208	1.028	833685	WORD_OFF	n/a	n/a	BOY	1	6	[0, 0, 0]	n/a	FR1	1	R1341T
833.236	1.623	834713	WORD	n/a	wordpools/wordpool_EN.txt	LEG	2	6	[0, 0, 0]	n/a	FR1	1	R1341T
834.859	0.94	836336	WORD_OFF	n/a	n/a	LEG	2	6	[0, 0, 0]	n/a	FR1	1	R1341T
835.799	1.627	837276	WORD	n/a	wordpools/wordpool_EN.txt	STOVE	3	6	[0, 0, 0]	n/a	FR1	1	R1341T
837.426	1.139	838903	WORD_OFF	n/a	n/a	STOVE	3	6	[0, 0, 0]	n/a	FR1	1	R1341T
838.565	1.628	840042	WORD	n/a	wordpools/wordpool_EN.txt	BRANCH	4	6	[0, 0, 0]	n/a	FR1	1	R1341T
840.193	0.884	841669	WORD_OFF	n/a	n/a	BRANCH	4	6	[0, 0, 0]	n/a	FR1	1	R1341T
841.077	1.633	842553	WORD	n/a	wordpools/wordpool_EN.txt	HOSE	5	6	[0, 0, 0]	n/a	FR1	1	R1341T
842.71	0.917	844186	WORD_OFF	n/a	n/a	HOSE	5	6	[0, 0, 0]	n/a	FR1	1	R1341T
843.627	1.633	845103	WORD	n/a	wordpools/wordpool_EN.txt	BOARD	6	6	[0, 0, 0]	n/a	FR1	1	R1341T
845.26	1.128	846736	WORD_OFF	n/a	n/a	BOARD	6	6	[0, 0, 0]	n/a	FR1	1	R1341T
846.388	1.623	847864	WORD	n/a	wordpools/wordpool_EN.txt	BRICK	7	6	[0, 0, 0]	n/a	FR1	1	R1341T
848.011	0.92	849487	WORD_OFF	n/a	n/a	BRICK	7	6	[0, 0, 0]	n/a	FR1	1	R1341T
848.931	1.63	850407	WORD	n/a	wordpools/wordpool_EN.txt	GOLD	8	6	[0, 0, 0]	n/a	FR1	1	R1341T
850.561	1.094	852037	WORD_OFF	n/a	n/a	GOLD	8	6	[0, 0, 0]	n/a	FR1	1	R1341T
851.655	1.624	853131	WORD	n/a	wordpools/wordpool_EN.txt	ROPE	9	6	[0, 0, 0]	n/a	FR1	1	R1341T
853.279	0.807	854755	WORD_OFF	n/a	n/a	ROPE	9	6	[0, 0, 0]	n/a	FR1	1	R1341T
854.086	1.626	855562	WORD	n/a	wordpools/wordpool_EN.txt	LAKE	10	6	[0, 0, 0]	n/a	FR1	1	R1341T
855.712	1.018	857188	WORD_OFF	n/a	n/a	LAKE	10	6	[0, 0, 0]	n/a	FR1	1	R1341T
856.73	1.616	858206	WORD	n/a	wordpools/wordpool_EN.txt	PLANT	11	6	[0, 0, 0]	n/a	FR1	1	R1341T
858.346	1.102	859822	WORD_OFF	n/a	n/a	PLANT	11	6	[0, 0, 0]	n/a	FR1	1	R1341T
859.448	1.632	860924	WORD	n/a	wordpools/wordpool_EN.txt	MOUTH	12	6	[0, 0, 0]	n/a	FR1	1	R1341T
861.08	0.0	862556	WORD_OFF	n/a	n/a	MOUTH	12	6	[0, 0, 0]	n/a	FR1	1	R1341T
861.08	0.001	862556	ENCODING_END	n/a	n/a	n/a	-999	6	[0, 0, 0]	n/a	FR1	1	R1341T
861.081	0.0	862557	DISTRACT_START	n/a	n/a	n/a	-999	6	[0, 0, 0]	n/a	FR1	1	R1341T
861.081	0.015	862557	START	n/a	n/a	n/a	-999	6	[-999, -999, -999]	n/a	FR1	1	R1341T
861.096	3.268	862572	PROB	3.268	n/a	n/a	-999	6	[5, 2, 5]	12	FR1	1	R1341T
864.364	3.25	865840	PROB	3.25	n/a	n/a	-999	6	[8, 2, 2]	12	FR1	1	R1341T
867.614	2.801	869089	PROB	2.801	n/a	n/a	-999	6	[5, 1, 1]	7	FR1	1	R1341T
870.415	7.801	871890	PROB	7.801	n/a	n/a	-999	6	[9, 5, 7]	21	FR1	1	R1341T
878.216	2.617	879691	PROB	2.617	n/a	n/a	-999	6	[1, 1, 5]	7	FR1	1	R1341T
880.833	1.921	882308	PROB	1.921	n/a	n/a	-999	6	[5, 1, 1]	7	FR1	1	R1341T
882.754	0.013	884229	STOP	n/a	n/a	n/a	-999	6	[-999, -999, -999]	n/a	FR1	1	R1341T
882.767	0.533	884242	DISTRACT_END	n/a	n/a	n/a	-999	6	[0, 0, 0]	n/a	FR1	1	R1341T
883.3	1.668	884775	RETRIEVAL_ORIENT_START	n/a	n/a	n/a	-999	6	[0, 0, 0]	n/a	FR1	1	R1341T
884.968	0.0	886443	RETRIEVAL_ORIENT_END	n/a	n/a	n/a	-999	6	[0, 0, 0]	n/a	FR1	1	R1341T
884.968	4.909	886443	REC_START	n/a	n/a	n/a	-999	6	[0, 0, 0]	n/a	FR1	1	R1341T
889.877	0.396	891351	REC_WORD	0.396	n/a	BOY	1	6	[0, 0, 0]	n/a	FR1	1	R1341T
890.273	0.589	891747	REC_WORD	0.589	n/a	LEG	2	6	[0, 0, 0]	n/a	FR1	1	R1341T
890.862	0.77	892336	REC_WORD	0.77	n/a	STOVE	3	6	[0, 0, 0]	n/a	FR1	1	R1341T
891.632	1.018	893106	REC_WORD	1.018	n/a	BRICK	7	6	[0, 0, 0]	n/a	FR1	1	R1341T
892.65	12.765	894124	REC_WORD	12.765	n/a	MOUSE	-999	6	[0, 0, 0]	n/a	FR1	1	R1341T
905.415	9.565	906889	REC_WORD	9.565	n/a	ROPE	9	6	[0, 0, 0]	n/a	FR1	1	R1341T
914.98	0.0	916453	REC_END	n/a	n/a	n/a	-999	6	[0, 0, 0]	n/a	FR1	1	R1341T
914.98	0.014	916453	TRIAL_END	n/a	n/a	n/a	-999	6	[0, 0, 0]	n/a	FR1	1	R1341T
914.994	0.001	916467	TRIAL_START	n/a	n/a	n/a	-999	7	[0, 0, 0]	n/a	FR1	1	R1341T
914.995	0.0	916468	WAITING_START	n/a	n/a	n/a	-999	7	[0, 0, 0]	n/a	FR1	1	R1341T
914.995	3.129	916468	TRIAL	n/a	n/a	n/a	-999	7	[0, 0, 0]	n/a	FR1	1	R1341T
918.124	0.0	919597	WAITING_END	n/a	n/a	n/a	-999	7	[0, 0, 0]	n/a	FR1	1	R1341T
918.124	10.428	919597	COUNTDOWN_START	n/a	n/a	n/a	-999	7	[0, 0, 0]	n/a	FR1	1	R1341T
928.552	0.0	930025	COUNTDOWN_END	n/a	n/a	n/a	-999	7	[0, 0, 0]	n/a	FR1	1	R1341T
928.552	1.024	930025	ORIENT_START	n/a	n/a	n/a	-999	7	[0, 0, 0]	n/a	FR1	1	R1341T
929.576	0.0	931049	ORIENT_END	n/a	n/a	n/a	-999	7	[0, 0, 0]	n/a	FR1	1	R1341T
929.576	1.11	931049	ENCODING_START	n/a	n/a	n/a	-999	7	[0, 0, 0]	n/a	FR1	1	R1341T
930.686	1.624	932159	WORD	n/a	wordpools/wordpool_EN.txt	APE	1	7	[0, 0, 0]	n/a	FR1	1	R1341T
932.31	0.965	933783	WORD_OFF	n/a	n/a	APE	1	7	[0, 0, 0]	n/a	FR1	1	R1341T
933.275	1.635	934748	WORD	n/a	wordpools/wordpool_EN.txt	HORN	2	7	[0, 0, 0]	n/a	FR1	1	R1341T
934.91	0.971	936383	WORD_OFF	n/a	n/a	HORN	2	7	[0, 0, 0]	n/a	FR1	1	R1341T
935.881	1.63	937354	WORD	n/a	wordpools/wordpool_EN.txt	CHAIR	3	7	[0, 0, 0]	n/a	FR1	1	R1341T
937.511	1.053	938984	WORD_OFF	n/a	n/a	CHAIR	3	7	[0, 0, 0]	n/a	FR1	1	R1341T
938.564	1.63	940037	WORD	n/a	wordpools/wordpool_EN.txt	PIPE	4	7	[0, 0, 0]	n/a	FR1	1	R1341T
940.194	0.821	941666	WORD_OFF	n/a	n/a	PIPE	4	7	[0, 0, 0]	n/a	FR1	1	R1341T
941.015	1.63	942487	WORD	n/a	wordpools/wordpool_EN.txt	FILM	5	7	[0, 0, 0]	n/a	FR1	1	R1341T
942.645	0.938	944117	WORD_OFF	n/a	n/a	FILM	5	7	[0, 0, 0]	n/a	FR1	1	R1341T
943.583	1.629	945055	WORD	n/a	wordpools/wordpool_EN.txt	BEAK	6	7	[0, 0, 0]	n/a	FR1	1	R1341T
945.212	0.864	946684	WORD_OFF	n/a	n/a	BEAK	6	7	[0, 0, 0]	n/a	FR1	1	R1341T
946.076	1.636	947548	WORD	n/a	wordpools/wordpool_EN.txt	MAT	7	7	[0, 0, 0]	n/a	FR1	1	R1341T
947.712	1.022	949184	WORD_OFF	n/a	n/a	MAT	7	7	[0, 0, 0]	n/a	FR1	1	R1341T
948.734	1.629	950206	WORD	n/a	wordpools/wordpool_EN.txt	ARM	8	7	[0, 0, 0]	n/a	FR1	1	R1341T
950.363	1.053	951835	WORD_OFF	n/a	n/a	ARM	8	7	[0, 0, 0]	n/a	FR1	1	R1341T
951.416	1.631	952888	WORD	n/a	wordpools/wordpool_EN.txt	SOCK	9	7	[0, 0, 0]	n/a	FR1	1	R1341T
953.047	1.081	954519	WORD_OFF	n/a	n/a	SOCK	9	7	[0, 0, 0]	n/a	FR1	1	R1341T
954.128	1.636	955600	WORD	n/a	wordpools/wordpool_EN.txt	CHEEK	10	7	[0, 0, 0]	n/a	FR1	1	R1341T
955.764	0.852	957236	WORD_OFF	n/a	n/a	CHEEK	10	7	[0, 0, 0]	n/a	FR1	1	R1341T
956.616	1.632	958088	WORD	n/a	wordpools/wordpool_EN.txt	SMOKE	11	7	[0, 0, 0]	n/a	FR1	1	R1341T
958.248	1.122	959720	WORD_OFF	n/a	n/a	SMOKE	11	7	[0, 0, 0]	n/a	FR1	1	R1341T
959.37	1.628	960842	WORD	n/a	wordpools/wordpool_EN.txt	ICE	12	7	[0, 0, 0]	n/a	FR1	1	R1341T
960.998	0.001	962470	WORD_OFF	n/a	n/a	ICE	12	7	[0, 0, 0]	n/a	FR1	1	R1341T
960.999	0.0	962471	ENCODING_END	n/a	n/a	n/a	-999	7	[0, 0, 0]	n/a	FR1	1	R1341T
960.999	0.0	962471	DISTRACT_START	n/a	n/a	n/a	-999	7	[0, 0, 0]	n/a	FR1	1	R1341T
960.999	0.016	962471	START	n/a	n/a	n/a	-999	7	[-999, -999, -999]	n/a	FR1	1	R1341T
961.015	5.2	962487	PROB	5.2	n/a	n/a	-999	7	[6, 6, 6]	18	FR1	1	R1341T
966.215	2.451	967686	PROB	2.451	n/a	n/a	-999	7	[2, 6, 3]	11	FR1	1	R1341T
968.666	9.702	970137	PROB	9.702	n/a	n/a	-999	7	[8, 3, 3]	14	FR1	1	R1341T
978.368	3.21	979839	PROB	3.21	n/a	n/a	-999	7	[4, 3, 4]	11	FR1	1	R1341T
981.578	0.007	983049	STOP	n/a	n/a	n/a	-999	7	[-999, -999, -999]	n/a	FR1	1	R1341T
981.585	0.547	983056	DISTRACT_END	n/a	n/a	n/a	-999	7	[0, 0, 0]	n/a	FR1	1	R1341T
982.132	1.653	983603	RETRIEVAL_ORIENT_START	n/a	n/a	n/a	-999	7	[0, 0, 0]	n/a	FR1	1	R1341T
983.785	0.001	985256	RETRIEVAL_ORIENT_END	n/a	n/a	n/a	-999	7	[0, 0, 0]	n/a	FR1	1	R1341T
983.786	30.011	985257	REC_START	n/a	n/a	n/a	-999	7	[0, 0, 0]	n/a	FR1	1	R1341T
1013.797	0.0	1015267	TRIAL_END	n/a	n/a	n/a	-999	7	[0, 0, 0]	n/a	FR1	1	R1341T
1013.797	0.017	1015267	REC_END	n/a	n/a	n/a	-999	7	[0, 0, 0]	n/a	FR1	1	R1341T
1013.814	0.0	1015284	TRIAL_START	n/a	n/a	n/a	-999	8	[0, 0, 0]	n/a	FR1	1	R1341T
1013.814	0.0	1015284	TRIAL	n/a	n/a	n/a	-999	8	[0, 0, 0]	n/a	FR1	1	R1341T
1013.814	63.372	1015284	WAITING_START	n/a	n/a	n/a	-999	8	[0, 0, 0]	n/a	FR1	1	R1341T
1077.186	0.0	1078653	WAITING_END	n/a	n/a	n/a	-999	8	[0, 0, 0]	n/a	FR1	1	R1341T
1077.186	10.429	1078653	COUNTDOWN_START	n/a	n/a	n/a	-999	8	[0, 0, 0]	n/a	FR1	1	R1341T
1087.615	0.0	1089082	COUNTDOWN_END	n/a	n/a	n/a	-999	8	[0, 0, 0]	n/a	FR1	1	R1341T
1087.615	1.19	1089082	ORIENT_START	n/a	n/a	n/a	-999	8	[0, 0, 0]	n/a	FR1	1	R1341T
1088.805	0.0	1090272	ENCODING_START	n/a	n/a	n/a	-999	8	[0, 0, 0]	n/a	FR1	1	R1341T
1088.805	0.907	1090272	ORIENT_END	n/a	n/a	n/a	-999	8	[0, 0, 0]	n/a	FR1	1	R1341T
1089.712	1.626	1091178	WORD	n/a	wordpools/wordpool_EN.txt	SKI	1	8	[0, 0, 0]	n/a	FR1	1	R1341T
1091.338	0.954	1092804	WORD_OFF	n/a	n/a	SKI	1	8	[0, 0, 0]	n/a	FR1	1	R1341T
1092.292	1.63	1093758	WORD	n/a	wordpools/wordpool_EN.txt	SAIL	2	8	[0, 0, 0]	n/a	FR1	1	R1341T
1093.922	0.898	1095388	WORD_OFF	n/a	n/a	SAIL	2	8	[0, 0, 0]	n/a	FR1	1	R1341T
1094.82	1.636	1096286	WORD	n/a	wordpools/wordpool_EN.txt	HOOK	3	8	[0, 0, 0]	n/a	FR1	1	R1341T
1096.456	1.061	1097922	WORD_OFF	n/a	n/a	HOOK	3	8	[0, 0, 0]	n/a	FR1	1	R1341T
1097.517	1.623	1098983	WORD	n/a	wordpools/wordpool_EN.txt	ARK	4	8	[0, 0, 0]	n/a	FR1	1	R1341T
1099.14	1.013	1100606	WORD_OFF	n/a	n/a	ARK	4	8	[0, 0, 0]	n/a	FR1	1	R1341T
1100.153	1.621	1101619	WORD	n/a	wordpools/wordpool_EN.txt	WING	5	8	[0, 0, 0]	n/a	FR1	1	R1341T
1101.774	0.99	1103240	WORD_OFF	n/a	n/a	WING	5	8	[0, 0, 0]	n/a	FR1	1	R1341T
1102.764	1.627	1104230	WORD	n/a	wordpools/wordpool_EN.txt	SCHOOL	6	8	[0, 0, 0]	n/a	FR1	1	R1341T
1104.391	1.104	1105857	WORD_OFF	n/a	n/a	SCHOOL	6	8	[0, 0, 0]	n/a	FR1	1	R1341T
1105.495	1.63	1106961	WORD	n/a	wordpools/wordpool_EN.txt	MAIL	7	8	[0, 0, 0]	n/a	FR1	1	R1341T
1107.125	0.871	1108591	WORD_OFF	n/a	n/a	MAIL	7	8	[0, 0, 0]	n/a	FR1	1	R1341T
1107.996	1.629	1109462	WORD	n/a	wordpools/wordpool_EN.txt	TEETH	8	8	[0, 0, 0]	n/a	FR1	1	R1341T
1109.625	0.814	1111091	WORD_OFF	n/a	n/a	TEETH	8	8	[0, 0, 0]	n/a	FR1	1	R1341T
1110.439	1.637	1111905	WORD	n/a	wordpools/wordpool_EN.txt	STORM	9	8	[0, 0, 0]	n/a	FR1	1	R1341T
1112.076	0.767	1113542	WORD_OFF	n/a	n/a	STORM	9	8	[0, 0, 0]	n/a	FR1	1	R1341T
1112.843	1.633	1114309	WORD	n/a	wordpools/wordpool_EN.txt	WAVE	10	8	[0, 0, 0]	n/a	FR1	1	R1341T
1114.476	0.852	1115941	WORD_OFF	n/a	n/a	WAVE	10	8	[0, 0, 0]	n/a	FR1	1	R1341T
1115.328	1.632	1116793	WORD	n/a	wordpools/wordpool_EN.txt	FLAME	11	8	[0, 0, 0]	n/a	FR1	1	R1341T
1116.96	1.14	1118425	WORD_OFF	n/a	n/a	FLAME	11	8	[0, 0, 0]	n/a	FR1	1	R1341T
1118.1	1.627	1119565	WORD	n/a	wordpools/wordpool_EN.txt	OAR	12	8	[0, 0, 0]	n/a	FR1	1	R1341T
1119.727	0.001	1121192	WORD_OFF	n/a	n/a	OAR	12	8	[0, 0, 0]	n/a	FR1	1	R1341T
1119.728	0.0	-1	ENCODING_END	n/a	n/a	n/a	-999	8	[0, 0, 0]	n/a	FR1	1	R1341T
1119.728	0.0	-1	DISTRACT_START	n/a	n/a	n/a	-999	8	[0, 0, 0]	n/a	FR1	1	R1341T
1119.728	1197.856	-1	START	n/a	n/a	n/a	-999	8	[-999, -999, -999]	n/a	FR1	1	R1341T
2317.584	13.377	489	INSTRUCT_START	n/a	n/a	n/a	-999	8	[0, 0, 0]	n/a	FR1	1	R1341T
2330.961	3.469	13866	INSTRUCT_END	n/a	n/a	n/a	-999	8	[0, 0, 0]	n/a	FR1	1	R1341T
2334.43	7.583	17335	MIC TEST_START	n/a	n/a	n/a	-999	8	[0, 0, 0]	n/a	FR1	1	R1341T
2342.013	0.011	24917	MIC TEST_END	n/a	n/a	n/a	-999	8	[0, 0, 0]	n/a	FR1	1	R1341T
2342.024	0.0	24928	TRIAL_START	n/a	n/a	n/a	-999	8	[0, 0, 0]	n/a	FR1	1	R1341T
2342.024	0.0	24928	TRIAL	n/a	n/a	n/a	-999	8	[0, 0, 0]	n/a	FR1	1	R1341T
2342.024	34.513	24928	WAITING_START	n/a	n/a	n/a	-999	8	[0, 0, 0]	n/a	FR1	1	R1341T
2376.537	0.0	59440	WAITING_END	n/a	n/a	n/a	-999	8	[0, 0, 0]	n/a	FR1	1	R1341T
2376.537	10.43	59440	COUNTDOWN_START	n/a	n/a	n/a	-999	8	[0, 0, 0]	n/a	FR1	1	R1341T
2386.967	0.0	69869	COUNTDOWN_END	n/a	n/a	n/a	-999	8	[0, 0, 0]	n/a	FR1	1	R1341T
2386.967	1.021	69869	ORIENT_START	n/a	n/a	n/a	-999	8	[0, 0, 0]	n/a	FR1	1	R1341T
2387.988	0.001	70890	ORIENT_END	n/a	n/a	n/a	-999	8	[0, 0, 0]	n/a	FR1	1	R1341T
2387.989	1.04	70891	ENCODING_START	n/a	n/a	n/a	-999	8	[0, 0, 0]	n/a	FR1	1	R1341T
2389.029	1.627	71931	WORD	n/a	wordpools/wordpool_EN.txt	SKI	1	8	[0, 0, 0]	n/a	FR1	1	R1341T
2390.656	1.012	73558	WORD_OFF	n/a	n/a	SKI	1	8	[0, 0, 0]	n/a	FR1	1	R1341T
2391.668	1.622	74570	WORD	n/a	wordpools/wordpool_EN.txt	SAIL	2	8	[0, 0, 0]	n/a	FR1	1	R1341T
2393.29	0.933	76192	WORD_OFF	n/a	n/a	SAIL	2	8	[0, 0, 0]	n/a	FR1	1	R1341T
2394.223	1.634	77125	WORD	n/a	wordpools/wordpool_EN.txt	HOOK	3	8	[0, 0, 0]	n/a	FR1	1	R1341T
2395.857	0.922	78759	WORD_OFF	n/a	n/a	HOOK	3	8	[0, 0, 0]	n/a	FR1	1	R1341T
2396.779	1.629	79681	WORD	n/a	wordpools/wordpool_EN.txt	ARK	4	8	[0, 0, 0]	n/a	FR1	1	R1341T
2398.408	0.913	81310	WORD_OFF	n/a	n/a	ARK	4	8	[0, 0, 0]	n/a	FR1	1	R1341T
2399.321	1.636	82223	WORD	n/a	wordpools/wordpool_EN.txt	WING	5	8	[0, 0, 0]	n/a	FR1	1	R1341T
2400.957	0.79	83859	WORD_OFF	n/a	n/a	WING	5	8	[0, 0, 0]	n/a	FR1	1	R1341T
2401.747	1.628	84649	WORD	n/a	wordpools/wordpool_EN.txt	SCHOOL	6	8	[0, 0, 0]	n/a	FR1	1	R1341T
2403.375	0.956	86277	WORD_OFF	n/a	n/a	SCHOOL	6	8	[0, 0, 0]	n/a	FR1	1	R1341T
2404.331	1.627	87233	WORD	n/a	wordpools/wordpool_EN.txt	MAIL	7	8	[0, 0, 0]	n/a	FR1	1	R1341T
2405.958	0.998	88860	WORD_OFF	n/a	n/a	MAIL	7	8	[0, 0, 0]	n/a	FR1	1	R1341T
2406.956	1.637	89858	WORD	n/a	wordpools/wordpool_EN.txt	TEETH	8	8	[0, 0, 0]	n/a	FR1	1	R1341T
2408.593	0.805	91495	WORD_OFF	n/a	n/a	TEETH	8	8	[0, 0, 0]	n/a	FR1	1	R1341T
2409.398	1.628	92299	WORD	n/a	wordpools/wordpool_EN.txt	STORM	9	8	[0, 0, 0]	n/a	FR1	1	R1341T
2411.026	0.959	93927	WORD_OFF	n/a	n/a	STORM	9	8	[0, 0, 0]	n/a	FR1	1	R1341T
2411.985	1.609	94886	WORD	n/a	wordpools/wordpool_EN.txt	WAVE	10	8	[0, 0, 0]	n/a	FR1	1	R1341T
2413.594	0.963	96495	WORD_OFF	n/a	n/a	WAVE	10	8	[0, 0, 0]	n/a	FR1	1	R1341T
2414.557	1.637	97458	WORD	n/a	wordpools/wordpool_EN.txt	FLAME	11	8	[0, 0, 0]	n/a	FR1	1	R1341T
2416.194	0.808	99095	WORD_OFF	n/a	n/a	FLAME	11	8	[0, 0, 0]	n/a	FR1	1	R1341T
2417.002	1.626	99903	WORD	n/a	wordpools/wordpool_EN.txt	OAR	12	8	[0, 0, 0]	n/a	FR1	1	R1341T
2418.628	0.0	101529	WORD_OFF	n/a	n/a	OAR	12	8	[0, 0, 0]	n/a	FR1	1	R1341T
2418.628	0.001	101529	ENCODING_END	n/a	n/a	n/a	-999	8	[0, 0, 0]	n/a	FR1	1	R1341T
2418.629	0.0	101530	DISTRACT_START	n/a	n/a	n/a	-999	8	[0, 0, 0]	n/a	FR1	1	R1341T
2418.629	0.016	101530	START	n/a	n/a	n/a	-999	9	[-999, -999, -999]	n/a	FR1	1	R1341T
2418.645	7.317	101546	PROB	7.317	n/a	n/a	-999	9	[7, 8, 3]	18	FR1	1	R1341T
2425.962	8.034	108863	PROB	8.034	n/a	n/a	-999	9	[6, 9, 7]	21	FR1	1	R1341T
2433.996	7.542	116896	PROB	7.542	n/a	n/a	-999	9	[7, 9, 7]	23	FR1	1	R1341T
2441.538	0.011	124438	STOP	n/a	n/a	n/a	-999	9	[-999, -999, -999]	n/a	FR1	1	R1341T
2441.549	0.694	124449	DISTRACT_END	n/a	n/a	n/a	-999	8	[0, 0, 0]	n/a	FR1	1	R1341T
2442.243	1.689	125143	RETRIEVAL_ORIENT_START	n/a	n/a	n/a	-999	8	[0, 0, 0]	n/a	FR1	1	R1341T
2443.932	0.0	126832	RETRIEVAL_ORIENT_END	n/a	n/a	n/a	-999	8	[0, 0, 0]	n/a	FR1	1	R1341T
2443.932	1.606	126832	REC_START	n/a	n/a	n/a	-999	8	[0, 0, 0]	n/a	FR1	1	R1341T
2445.538	0.926	128438	REC_WORD	0.926	n/a	SKI	1	8	[0, 0, 0]	n/a	FR1	1	R1341T
2446.464	0.781	129364	REC_WORD	0.781	n/a	SAIL	2	8	[0, 0, 0]	n/a	FR1	1	R1341T
2447.245	1.205	130145	REC_WORD	1.205	n/a	MAIL	7	8	[0, 0, 0]	n/a	FR1	1	R1341T
2448.45	0.924	131350	REC_WORD	0.924	n/a	HOOK	3	8	[0, 0, 0]	n/a	FR1	1	R1341T
2449.374	1.641	132274	REC_WORD	1.641	n/a	ARK	4	8	[0, 0, 0]	n/a	FR1	1	R1341T
2451.015	13.892	133915	REC_WORD	13.892	n/a	TEETH	8	8	[0, 0, 0]	n/a	FR1	1	R1341T
2464.907	9.036	147806	REC_WORD	9.036	n/a	OAR	12	8	[0, 0, 0]	n/a	FR1	1	R1341T
2473.943	0.0	156842	TRIAL_END	n/a	n/a	n/a	-999	8	[0, 0, 0]	n/a	FR1	1	R1341T
2473.943	0.017	156842	REC_END	n/a	n/a	n/a	-999	8	[0, 0, 0]	n/a	FR1	1	R1341T
2473.96	0.001	156859	TRIAL_START	n/a	n/a	n/a	-999	9	[0, 0, 0]	n/a	FR1	1	R1341T
2473.961	0.0	156860	TRIAL	n/a	n/a	n/a	-999	9	[0, 0, 0]	n/a	FR1	1	R1341T
2473.961	2.711	156860	WAITING_START	n/a	n/a	n/a	-999	9	[0, 0, 0]	n/a	FR1	1	R1341T
2476.672	0.0	159571	WAITING_END	n/a	n/a	n/a	-999	9	[0, 0, 0]	n/a	FR1	1	R1341T
2476.672	10.428	159571	COUNTDOWN_START	n/a	n/a	n/a	-999	9	[0, 0, 0]	n/a	FR1	1	R1341T
2487.1	0.001	169998	COUNTDOWN_END	n/a	n/a	n/a	-999	9	[0, 0, 0]	n/a	FR1	1	R1341T
2487.101	1.19	169999	ORIENT_START	n/a	n/a	n/a	-999	9	[0, 0, 0]	n/a	FR1	1	R1341T
2488.291	0.0	171189	ENCODING_START	n/a	n/a	n/a	-999	9	[0, 0, 0]	n/a	FR1	1	R1341T
2488.291	0.751	171189	ORIENT_END	n/a	n/a	n/a	-999	9	[0, 0, 0]	n/a	FR1	1	R1341T
2489.042	1.616	171940	WORD	n/a	wordpools/wordpool_EN.txt	BLOOM	1	9	[0, 0, 0]	n/a	FR1	1	R1341T
2490.658	0.898	173556	WORD_OFF	n/a	n/a	BLOOM	1	9	[0, 0, 0]	n/a	FR1	1	R1341T
2491.556	1.636	174454	WORD	n/a	wordpools/wordpool_EN.txt	DUCK	2	9	[0, 0, 0]	n/a	FR1	1	R1341T
2493.192	1.063	176090	WORD_OFF	n/a	n/a	DUCK	2	9	[0, 0, 0]	n/a	FR1	1	R1341T
2494.255	1.62	177153	WORD	n/a	wordpools/wordpool_EN.txt	COIN	3	9	[0, 0, 0]	n/a	FR1	1	R1341T
2495.875	1.007	178773	WORD_OFF	n/a	n/a	COIN	3	9	[0, 0, 0]	n/a	FR1	1	R1341T
2496.882	1.627	179780	WORD	n/a	wordpools/wordpool_EN.txt	PLATE	4	9	[0, 0, 0]	n/a	FR1	1	R1341T
2498.509	0.979	181407	WORD_OFF	n/a	n/a	PLATE	4	9	[0, 0, 0]	n/a	FR1	1	R1341T
2499.488	1.621	182386	WORD	n/a	wordpools/wordpool_EN.txt	HOLE	5	9	[0, 0, 0]	n/a	FR1	1	R1341T
2501.109	0.968	184007	WORD_OFF	n/a	n/a	HOLE	5	9	[0, 0, 0]	n/a	FR1	1	R1341T
2502.077	1.633	184974	WORD	n/a	wordpools/wordpool_EN.txt	THUMB	6	9	[0, 0, 0]	n/a	FR1	1	R1341T
2503.71	0.765	186607	WORD_OFF	n/a	n/a	THUMB	6	9	[0, 0, 0]	n/a	FR1	1	R1341T
2504.475	1.635	187372	WORD	n/a	wordpools/wordpool_EN.txt	NOSE	7	9	[0, 0, 0]	n/a	FR1	1	R1341T
2506.11	1.107	189007	WORD_OFF	n/a	n/a	NOSE	7	9	[0, 0, 0]	n/a	FR1	1	R1341T
2507.217	1.627	190114	WORD	n/a	wordpools/wordpool_EN.txt	JAR	8	9	[0, 0, 0]	n/a	FR1	1	R1341T
2508.844	0.794	191741	WORD_OFF	n/a	n/a	JAR	8	9	[0, 0, 0]	n/a	FR1	1	R1341T
2509.638	1.607	192535	WORD	n/a	wordpools/wordpool_EN.txt	CLOCK	9	9	[0, 0, 0]	n/a	FR1	1	R1341T
2511.245	1.092	194142	WORD_OFF	n/a	n/a	CLOCK	9	9	[0, 0, 0]	n/a	FR1	1	R1341T
2512.337	1.624	195234	WORD	n/a	wordpools/wordpool_EN.txt	FORK	10	9	[0, 0, 0]	n/a	FR1	1	R1341T
2513.961	1.059	196858	WORD_OFF	n/a	n/a	FORK	10	9	[0, 0, 0]	n/a	FR1	1	R1341T
2515.02	1.626	197917	WORD	n/a	wordpools/wordpool_EN.txt	SLEEVE	11	9	[0, 0, 0]	n/a	FR1	1	R1341T
2516.646	0.95	199543	WORD_OFF	n/a	n/a	SLEEVE	11	9	[0, 0, 0]	n/a	FR1	1	R1341T
2517.596	1.634	200493	WORD	n/a	wordpools/wordpool_EN.txt	SLUSH	12	9	[0, 0, 0]	n/a	FR1	1	R1341T
2519.23	0.0	202127	WORD_OFF	n/a	n/a	SLUSH	12	9	[0, 0, 0]	n/a	FR1	1	R1341T
2519.23	0.0	202127	ENCODING_END	n/a	n/a	n/a	-999	9	[0, 0, 0]	n/a	FR1	1	R1341T
2519.23	0.0	202127	DISTRACT_START	n/a	n/a	n/a	-999	9	[0, 0, 0]	n/a	FR1	1	R1341T
2519.23	0.016	202127	START	n/a	n/a	n/a	-999	10	[-999, -999, -999]	n/a	FR1	1	R1341T
2519.246	5.9	202143	PROB	5.9	n/a	n/a	-999	10	[3, 2, 2]	7	FR1	1	R1341T
2525.146	3.518	208042	PROB	3.518	n/a	n/a	-999	10	[3, 1, 2]	6	FR1	1	R1341T
2528.664	2.701	211560	PROB	2.701	n/a	n/a	-999	10	[4, 3, 4]	11	FR1	1	R1341T
2531.365	3.583	214261	PROB	3.583	n/a	n/a	-999	10	[5, 7, 7]	19	FR1	1	R1341T
2534.948	2.167	217844	PROB	2.167	n/a	n/a	-999	10	[1, 4, 6]	11	FR1	1	R1341T
2537.115	5.506	220011	PROB	5.506	n/a	n/a	-999	10	[7, 4, 5]	16	FR1	1	R1341T
2542.621	0.013	225517	STOP	n/a	n/a	n/a	-999	10	[-999, -999, -999]	n/a	FR1	1	R1341T
2542.634	0.597	225530	DISTRACT_END	n/a	n/a	n/a	-999	9	[0, 0, 0]	n/a	FR1	1	R1341T
2543.231	1.553	226127	RETRIEVAL_ORIENT_START	n/a	n/a	n/a	-999	9	[0, 0, 0]	n/a	FR1	1	R1341T
2544.784	0.001	227680	RETRIEVAL_ORIENT_END	n/a	n/a	n/a	-999	9	[0, 0, 0]	n/a	FR1	1	R1341T
2544.785	6.285	227681	REC_START	n/a	n/a	n/a	-999	9	[0, 0, 0]	n/a	FR1	1	R1341T
2551.07	0.977	233965	REC_WORD	0.977	n/a	NOSE	7	9	[0, 0, 0]	n/a	FR1	1	R1341T
2552.047	3.625	234942	REC_WORD	3.625	n/a	TEETH	-999	9	[0, 0, 0]	n/a	FR1	1	R1341T
2555.672	1.554	238567	REC_WORD	1.554	n/a	JAR	8	9	[0, 0, 0]	n/a	FR1	1	R1341T
2557.226	17.569	240121	REC_WORD	17.569	n/a	SLEEVE	11	9	[0, 0, 0]	n/a	FR1	1	R1341T
2574.795	0.0	257689	REC_END	n/a	n/a	n/a	-999	9	[0, 0, 0]	n/a	FR1	1	R1341T
2574.795	0.014	257689	TRIAL_END	n/a	n/a	n/a	-999	9	[0, 0, 0]	n/a	FR1	1	R1341T
2574.809	0.0	257703	WAITING_START	n/a	n/a	n/a	-999	10	[0, 0, 0]	n/a	FR1	1	R1341T
2574.809	0.0	257703	TRIAL	n/a	n/a	n/a	-999	10	[0, 0, 0]	n/a	FR1	1	R1341T
2574.809	3.931	257703	TRIAL_START	n/a	n/a	n/a	-999	10	[0, 0, 0]	n/a	FR1	1	R1341T
2578.74	0.001	261634	WAITING_END	n/a	n/a	n/a	-999	10	[0, 0, 0]	n/a	FR1	1	R1341T
2578.741	10.429	261635	COUNTDOWN_START	n/a	n/a	n/a	-999	10	[0, 0, 0]	n/a	FR1	1	R1341T
2589.17	0.001	272064	COUNTDOWN_END	n/a	n/a	n/a	-999	10	[0, 0, 0]	n/a	FR1	1	R1341T
2589.171	1.055	272065	ORIENT_START	n/a	n/a	n/a	-999	10	[0, 0, 0]	n/a	FR1	1	R1341T
2590.226	0.0	273120	ORIENT_END	n/a	n/a	n/a	-999	10	[0, 0, 0]	n/a	FR1	1	R1341T
2590.226	0.894	273120	ENCODING_START	n/a	n/a	n/a	-999	10	[0, 0, 0]	n/a	FR1	1	R1341T
2591.12	1.623	274014	WORD	n/a	wordpools/wordpool_EN.txt	CAPE	1	10	[0, 0, 0]	n/a	FR1	1	R1341T
2592.743	0.867	275637	WORD_OFF	n/a	n/a	CAPE	1	10	[0, 0, 0]	n/a	FR1	1	R1341T
2593.61	1.633	276503	WORD	n/a	wordpools/wordpool_EN.txt	CLOTH	2	10	[0, 0, 0]	n/a	FR1	1	R1341T
2595.243	0.945	278136	WORD_OFF	n/a	n/a	CLOTH	2	10	[0, 0, 0]	n/a	FR1	1	R1341T
2596.188	1.623	279081	WORD	n/a	wordpools/wordpool_EN.txt	BOAT	3	10	[0, 0, 0]	n/a	FR1	1	R1341T
2597.811	1.01	280704	WORD_OFF	n/a	n/a	BOAT	3	10	[0, 0, 0]	n/a	FR1	1	R1341T
2598.821	1.623	281714	WORD	n/a	wordpools/wordpool_EN.txt	STEAK	4	10	[0, 0, 0]	n/a	FR1	1	R1341T
2600.444	0.806	283337	WORD_OFF	n/a	n/a	STEAK	4	10	[0, 0, 0]	n/a	FR1	1	R1341T
2601.25	1.628	284143	WORD	n/a	wordpools/wordpool_EN.txt	GATE	5	10	[0, 0, 0]	n/a	FR1	1	R1341T
2602.878	0.949	285771	WORD_OFF	n/a	n/a	GATE	5	10	[0, 0, 0]	n/a	FR1	1	R1341T
2603.827	1.635	286720	WORD	n/a	wordpools/wordpool_EN.txt	SNAKE	6	10	[0, 0, 0]	n/a	FR1	1	R1341T
2605.462	0.782	288355	WORD_OFF	n/a	n/a	SNAKE	6	10	[0, 0, 0]	n/a	FR1	1	R1341T
2606.244	1.635	289137	WORD	n/a	wordpools/wordpool_EN.txt	RAT	7	10	[0, 0, 0]	n/a	FR1	1	R1341T
2607.879	0.76	290772	WORD_OFF	n/a	n/a	RAT	7	10	[0, 0, 0]	n/a	FR1	1	R1341T
2608.639	1.624	291532	WORD	n/a	wordpools/wordpool_EN.txt	EGG	8	10	[0, 0, 0]	n/a	FR1	1	R1341T
2610.263	0.929	293156	WORD_OFF	n/a	n/a	EGG	8	10	[0, 0, 0]	n/a	FR1	1	R1341T
2611.192	1.621	294085	WORD	n/a	wordpools/wordpool_EN.txt	RAKE	9	10	[0, 0, 0]	n/a	FR1	1	R1341T
2612.813	0.953	295706	WORD_OFF	n/a	n/a	RAKE	9	10	[0, 0, 0]	n/a	FR1	1	R1341T
2613.766	1.631	296659	WORD	n/a	wordpools/wordpool_EN.txt	MOLE	10	10	[0, 0, 0]	n/a	FR1	1	R1341T
2615.397	0.858	298290	WORD_OFF	n/a	n/a	MOLE	10	10	[0, 0, 0]	n/a	FR1	1	R1341T
2616.255	1.625	299147	WORD	n/a	wordpools/wordpool_EN.txt	BIRD	11	10	[0, 0, 0]	n/a	FR1	1	R1341T
2617.88	0.907	300772	WORD_OFF	n/a	n/a	BIRD	11	10	[0, 0, 0]	n/a	FR1	1	R1341T
2618.787	1.628	301679	WORD	n/a	wordpools/wordpool_EN.txt	PEACH	12	10	[0, 0, 0]	n/a	FR1	1	R1341T
2620.415	0.0	303307	WORD_OFF	n/a	n/a	PEACH	12	10	[0, 0, 0]	n/a	FR1	1	R1341T
2620.415	0.001	303307	ENCODING_END	n/a	n/a	n/a	-999	10	[0, 0, 0]	n/a	FR1	1	R1341T
2620.416	0.0	303308	DISTRACT_START	n/a	n/a	n/a	-999	10	[0, 0, 0]	n/a	FR1	1	R1341T
2620.416	0.015	303308	START	n/a	n/a	n/a	-999	11	[-999, -999, -999]	n/a	FR1	1	R1341T
2620.431	6.118	303323	PROB	6.118	n/a	n/a	-999	11	[9, 6, 4]	19	FR1	1	R1341T
2626.549	2.017	309441	PROB	2.017	n/a	n/a	-999	11	[8, 2, 2]	12	FR1	1	R1341T
2628.566	2.449	311458	PROB	2.449	n/a	n/a	-999	11	[5, 4, 1]	10	FR1	1	R1341T
2631.015	3.385	313907	PROB	3.385	n/a	n/a	-999	11	[5, 6, 1]	12	FR1	1	R1341T
2634.4	2.301	317292	PROB	2.301	n/a	n/a	-999	11	[2, 2, 1]	5	FR1	1	R1341T
2636.701	2.534	319593	PROB	2.534	n/a	n/a	-999	11	[3, 4, 4]	11	FR1	1	R1341T
2639.235	3.428	322126	PROB	3.428	n/a	n/a	-999	11	[3, 2, 1]	6	FR1	1	R1341T
2642.663	0.005	325554	STOP	n/a	n/a	n/a	-999	11	[-999, -999, -999]	n/a	FR1	1	R1341T
2642.668	0.654	325559	DISTRACT_END	n/a	n/a	n/a	-999	10	[0, 0, 0]	n/a	FR1	1	R1341T
2643.322	1.713	326213	RETRIEVAL_ORIENT_START	n/a	n/a	n/a	-999	10	[0, 0, 0]	n/a	FR1	1	R1341T
2645.035	0.0	327926	RETRIEVAL_ORIENT_END	n/a	n/a	n/a	-999	10	[0, 0, 0]	n/a	FR1	1	R1341T
2645.035	9.789	327926	REC_START	n/a	n/a	n/a	-999	10	[0, 0, 0]	n/a	FR1	1	R1341T
2654.824	20.222	337715	REC_WORD	20.222	n/a	GATE	5	10	[0, 0, 0]	n/a	FR1	1	R1341T
2675.046	0.0	357936	REC_END	n/a	n/a	n/a	-999	10	[0, 0, 0]	n/a	FR1	1	R1341T
2675.046	0.014	357936	TRIAL_END	n/a	n/a	n/a	-999	10	[0, 0, 0]	n/a	FR1	1	R1341T
2675.06	0.0	357950	TRIAL_START	n/a	n/a	n/a	-999	11	[0, 0, 0]	n/a	FR1	1	R1341T
2675.06	0.0	357950	TRIAL	n/a	n/a	n/a	-999	11	[0, 0, 0]	n/a	FR1	1	R1341T
2675.06	3.165	357950	WAITING_START	n/a	n/a	n/a	-999	11	[0, 0, 0]	n/a	FR1	1	R1341T
2678.225	0.001	361115	WAITING_END	n/a	n/a	n/a	-999	11	[0, 0, 0]	n/a	FR1	1	R1341T
2678.226	10.429	361116	COUNTDOWN_START	n/a	n/a	n/a	-999	11	[0, 0, 0]	n/a	FR1	1	R1341T
2688.655	0.0	371544	ORIENT_START	n/a	n/a	n/a	-999	11	[0, 0, 0]	n/a	FR1	1	R1341T
2688.655	1.089	371544	COUNTDOWN_END	n/a	n/a	n/a	-999	11	[0, 0, 0]	n/a	FR1	1	R1341T
2689.744	0.0	372633	ORIENT_END	n/a	n/a	n/a	-999	11	[0, 0, 0]	n/a	FR1	1	R1341T
2689.744	0.954	372633	ENCODING_START	n/a	n/a	n/a	-999	11	[0, 0, 0]	n/a	FR1	1	R1341T
2690.698	1.63	373587	WORD	n/a	wordpools/wordpool_EN.txt	TRUCK	1	11	[0, 0, 0]	n/a	FR1	1	R1341T
2692.328	0.927	375217	WORD_OFF	n/a	n/a	TRUCK	1	11	[0, 0, 0]	n/a	FR1	1	R1341T
2693.255	1.623	376144	WORD	n/a	wordpools/wordpool_EN.txt	SPEAR	2	11	[0, 0, 0]	n/a	FR1	1	R1341T
2694.878	0.865	377767	WORD_OFF	n/a	n/a	SPEAR	2	11	[0, 0, 0]	n/a	FR1	1	R1341T
2695.743	1.636	378632	WORD	n/a	wordpools/wordpool_EN.txt	MUD	3	11	[0, 0, 0]	n/a	FR1	1	R1341T
2697.379	0.761	380268	WORD_OFF	n/a	n/a	MUD	3	11	[0, 0, 0]	n/a	FR1	1	R1341T
2698.14	1.606	381029	WORD	n/a	wordpools/wordpool_EN.txt	TRASH	4	11	[0, 0, 0]	n/a	FR1	1	R1341T
2699.746	1.075	382635	WORD_OFF	n/a	n/a	TRASH	4	11	[0, 0, 0]	n/a	FR1	1	R1341T
2700.821	1.625	383710	WORD	n/a	wordpools/wordpool_EN.txt	BROOM	5	11	[0, 0, 0]	n/a	FR1	1	R1341T
2702.446	1.038	385335	WORD_OFF	n/a	n/a	BROOM	5	11	[0, 0, 0]	n/a	FR1	1	R1341T
2703.484	1.629	386373	WORD	n/a	wordpools/wordpool_EN.txt	HEN	6	11	[0, 0, 0]	n/a	FR1	1	R1341T
2705.113	0.896	388002	WORD_OFF	n/a	n/a	HEN	6	11	[0, 0, 0]	n/a	FR1	1	R1341T
2706.009	1.621	388898	WORD	n/a	wordpools/wordpool_EN.txt	SLIME	7	11	[0, 0, 0]	n/a	FR1	1	R1341T
2707.63	0.996	390519	WORD_OFF	n/a	n/a	SLIME	7	11	[0, 0, 0]	n/a	FR1	1	R1341T
2708.626	1.622	391514	WORD	n/a	wordpools/wordpool_EN.txt	BEACH	8	11	[0, 0, 0]	n/a	FR1	1	R1341T
2710.248	1.127	393136	WORD_OFF	n/a	n/a	BEACH	8	11	[0, 0, 0]	n/a	FR1	1	R1341T
2711.375	1.622	394263	WORD	n/a	wordpools/wordpool_EN.txt	SEA	9	11	[0, 0, 0]	n/a	FR1	1	R1341T
2712.997	1.045	395885	WORD_OFF	n/a	n/a	SEA	9	11	[0, 0, 0]	n/a	FR1	1	R1341T
2714.042	1.623	396930	WORD	n/a	wordpools/wordpool_EN.txt	POOL	10	11	[0, 0, 0]	n/a	FR1	1	R1341T
2715.665	1.124	398553	WORD_OFF	n/a	n/a	POOL	10	11	[0, 0, 0]	n/a	FR1	1	R1341T
2716.789	1.627	399677	WORD	n/a	wordpools/wordpool_EN.txt	DEER	11	11	[0, 0, 0]	n/a	FR1	1	R1341T
2718.416	0.879	401304	WORD_OFF	n/a	n/a	DEER	11	11	[0, 0, 0]	n/a	FR1	1	R1341T
2719.295	1.62	402183	WORD	n/a	wordpools/wordpool_EN.txt	BEE	12	11	[0, 0, 0]	n/a	FR1	1	R1341T
2720.915	0.001	403803	WORD_OFF	n/a	n/a	BEE	12	11	[0, 0, 0]	n/a	FR1	1	R1341T
2720.916	0.0	403804	ENCODING_END	n/a	n/a	n/a	-999	11	[0, 0, 0]	n/a	FR1	1	R1341T
2720.916	0.0	403804	DISTRACT_START	n/a	n/a	n/a	-999	11	[0, 0, 0]	n/a	FR1	1	R1341T
2720.916	0.016	403804	START	n/a	n/a	n/a	-999	12	[-999, -999, -999]	n/a	FR1	1	R1341T
2720.932	16.554	403820	PROB	16.554	n/a	n/a	-999	12	[7, 7, 9]	23	FR1	1	R1341T
2737.486	7.22	420373	PROB	7.22	n/a	n/a	-999	12	[4, 1, 5]	10	FR1	1	R1341T
2744.706	0.015	427593	STOP	n/a	n/a	n/a	-999	12	[-999, -999, -999]	n/a	FR1	1	R1341T
2744.721	0.543	427608	DISTRACT_END	n/a	n/a	n/a	-999	11	[0, 0, 0]	n/a	FR1	1	R1341T
2745.264	1.524	428151	RETRIEVAL_ORIENT_START	n/a	n/a	n/a	-999	11	[0, 0, 0]	n/a	FR1	1	R1341T
2746.788	0.0	429675	RETRIEVAL_ORIENT_END	n/a	n/a	n/a	-999	11	[0, 0, 0]	n/a	FR1	1	R1341T
2746.788	5.144	429675	REC_START	n/a	n/a	n/a	-999	11	[0, 0, 0]	n/a	FR1	1	R1341T
2751.932	0.401	434819	REC_WORD	0.401	n/a	TRUCK	1	11	[0, 0, 0]	n/a	FR1	1	R1341T
2752.333	0.559	435220	REC_WORD	0.559	n/a	SPEAR	2	11	[0, 0, 0]	n/a	FR1	1	R1341T
2752.892	0.812	435779	REC_WORD	0.812	n/a	MUD	3	11	[0, 0, 0]	n/a	FR1	1	R1341T
2753.704	1.096	436591	REC_WORD	1.096	n/a	TRASH	4	11	[0, 0, 0]	n/a	FR1	1	R1341T
2754.8	21.999	437686	REC_WORD	21.999	n/a	BROOM	5	11	[0, 0, 0]	n/a	FR1	1	R1341T
2776.799	0.0	459685	TRIAL_END	n/a	n/a	n/a	-999	11	[0, 0, 0]	n/a	FR1	1	R1341T
2776.799	0.016	459685	REC_END	n/a	n/a	n/a	-999	11	[0, 0, 0]	n/a	FR1	1	R1341T
2776.815	0.0	459701	TRIAL_START	n/a	n/a	n/a	-999	12	[0, 0, 0]	n/a	FR1	1	R1341T
2776.815	0.001	459701	TRIAL	n/a	n/a	n/a	-999	12	[0, 0, 0]	n/a	FR1	1	R1341T
2776.816	2.293	459702	WAITING_START	n/a	n/a	n/a	-999	12	[0, 0, 0]	n/a	FR1	1	R1341T
2779.109	0.001	461994	WAITING_END	n/a	n/a	n/a	-999	12	[0, 0, 0]	n/a	FR1	1	R1341T
2779.11	10.428	461995	COUNTDOWN_START	n/a	n/a	n/a	-999	12	[0, 0, 0]	n/a	FR1	1	R1341T
2789.538	0.001	472423	COUNTDOWN_END	n/a	n/a	n/a	-999	12	[0, 0, 0]	n/a	FR1	1	R1341T
2789.539	1.057	472424	ORIENT_START	n/a	n/a	n/a	-999	12	[0, 0, 0]	n/a	FR1	1	R1341T
2790.596	0.0	473481	ENCODING_START	n/a	n/a	n/a	-999	12	[0, 0, 0]	n/a	FR1	1	R1341T
2790.596	0.972	473481	ORIENT_END	n/a	n/a	n/a	-999	12	[0, 0, 0]	n/a	FR1	1	R1341T
2791.568	1.628	474453	WORD	n/a	wordpools/wordpool_EN.txt	CROWN	1	12	[0, 0, 0]	n/a	FR1	1	R1341T
2793.196	0.895	476081	WORD_OFF	n/a	n/a	CROWN	1	12	[0, 0, 0]	n/a	FR1	1	R1341T
2794.091	1.605	476976	WORD	n/a	wordpools/wordpool_EN.txt	KITE	2	12	[0, 0, 0]	n/a	FR1	1	R1341T
2795.696	1.125	478581	WORD_OFF	n/a	n/a	KITE	2	12	[0, 0, 0]	n/a	FR1	1	R1341T
2796.821	1.626	479706	WORD	n/a	wordpools/wordpool_EN.txt	WALL	3	12	[0, 0, 0]	n/a	FR1	1	R1341T
2798.447	1.119	481332	WORD_OFF	n/a	n/a	WALL	3	12	[0, 0, 0]	n/a	FR1	1	R1341T
2799.566	1.632	482451	WORD	n/a	wordpools/wordpool_EN.txt	WORM	4	12	[0, 0, 0]	n/a	FR1	1	R1341T
2801.198	0.979	484082	WORD_OFF	n/a	n/a	WORM	4	12	[0, 0, 0]	n/a	FR1	1	R1341T
2802.177	1.638	485061	WORD	n/a	wordpools/wordpool_EN.txt	GRASS	5	12	[0, 0, 0]	n/a	FR1	1	R1341T
2803.815	0.892	486699	WORD_OFF	n/a	n/a	GRASS	5	12	[0, 0, 0]	n/a	FR1	1	R1341T
2804.707	1.625	487591	WORD	n/a	wordpools/wordpool_EN.txt	CAGE	6	12	[0, 0, 0]	n/a	FR1	1	R1341T
2806.332	0.892	489216	WORD_OFF	n/a	n/a	CAGE	6	12	[0, 0, 0]	n/a	FR1	1	R1341T
2807.224	1.625	490108	WORD	n/a	wordpools/wordpool_EN.txt	LAMP	7	12	[0, 0, 0]	n/a	FR1	1	R1341T
2808.849	1.074	491733	WORD_OFF	n/a	n/a	LAMP	7	12	[0, 0, 0]	n/a	FR1	1	R1341T
2809.923	1.61	492807	WORD	n/a	wordpools/wordpool_EN.txt	LEAF	8	12	[0, 0, 0]	n/a	FR1	1	R1341T
2811.533	1.013	494417	WORD_OFF	n/a	n/a	LEAF	8	12	[0, 0, 0]	n/a	FR1	1	R1341T
2812.546	1.637	495430	WORD	n/a	wordpools/wordpool_EN.txt	PIE	9	12	[0, 0, 0]	n/a	FR1	1	R1341T
2814.183	1.114	497067	WORD_OFF	n/a	n/a	PIE	9	12	[0, 0, 0]	n/a	FR1	1	R1341T
2815.297	1.636	498181	WORD	n/a	wordpools/wordpool_EN.txt	SHELL	10	12	[0, 0, 0]	n/a	FR1	1	R1341T
2816.933	0.77	499817	WORD_OFF	n/a	n/a	SHELL	10	12	[0, 0, 0]	n/a	FR1	1	R1341T
2817.703	1.631	500587	WORD	n/a	wordpools/wordpool_EN.txt	STEM	11	12	[0, 0, 0]	n/a	FR1	1	R1341T
2819.334	0.754	502218	WORD_OFF	n/a	n/a	STEM	11	12	[0, 0, 0]	n/a	FR1	1	R1341T
2820.088	1.63	502972	WORD	n/a	wordpools/wordpool_EN.txt	MULE	12	12	[0, 0, 0]	n/a	FR1	1	R1341T
2821.718	0.0	504602	WORD_OFF	n/a	n/a	MULE	12	12	[0, 0, 0]	n/a	FR1	1	R1341T
2821.718	0.001	504602	ENCODING_END	n/a	n/a	n/a	-999	12	[0, 0, 0]	n/a	FR1	1	R1341T
2821.719	0.0	504603	DISTRACT_START	n/a	n/a	n/a	-999	12	[0, 0, 0]	n/a	FR1	1	R1341T
2821.719	0.015	504603	START	n/a	n/a	n/a	-999	13	[-999, -999, -999]	n/a	FR1	1	R1341T
2821.734	8.435	504618	PROB	8.435	n/a	n/a	-999	13	[5, 9, 6]	20	FR1	1	R1341T
2830.169	5.701	513052	PROB	5.701	n/a	n/a	-999	13	[1, 9, 5]	15	FR1	1	R1341T
2835.87	3.083	518753	PROB	3.083	n/a	n/a	-999	13	[1, 3, 3]	7	FR1	1	R1341T
2838.953	3.344	521836	PROB	3.344	n/a	n/a	-999	13	[3, 1, 9]	13	FR1	1	R1341T
2842.297	0.008	525180	STOP	n/a	n/a	n/a	-999	13	[-999, -999, -999]	n/a	FR1	1	R1341T
2842.305	0.533	525188	DISTRACT_END	n/a	n/a	n/a	-999	12	[0, 0, 0]	n/a	FR1	1	R1341T
2842.838	1.634	525721	RETRIEVAL_ORIENT_START	n/a	n/a	n/a	-999	12	[0, 0, 0]	n/a	FR1	1	R1341T
2844.472	0.0	527355	REC_START	n/a	n/a	n/a	-999	12	[0, 0, 0]	n/a	FR1	1	R1341T
2844.472	26.189	527355	RETRIEVAL_ORIENT_END	n/a	n/a	n/a	-999	12	[0, 0, 0]	n/a	FR1	1	R1341T
2870.661	0.497	553542	REC_WORD	0.497	n/a	CROWN	1	12	[0, 0, 0]	n/a	FR1	1	R1341T
2871.158	0.334	554039	REC_WORD	0.334	n/a	WOOL	-999	12	[0, 0, 0]	n/a	FR1	1	R1341T
2871.492	2.991	554373	REC_WORD	2.991	n/a	MULE	12	12	[0, 0, 0]	n/a	FR1	1	R1341T
2874.483	0.001	557364	REC_END	n/a	n/a	n/a	-999	12	[0, 0, 0]	n/a	FR1	1	R1341T
2874.484	0.015	557365	TRIAL_END	n/a	n/a	n/a	-999	12	[0, 0, 0]	n/a	FR1	1	R1341T
2874.499	0.0	557380	WAITING_START	n/a	n/a	n/a	-999	13	[0, 0, 0]	n/a	FR1	1	R1341T
2874.499	0.0	557380	TRIAL_START	n/a	n/a	n/a	-999	13	[0, 0, 0]	n/a	FR1	1	R1341T
2874.499	3.229	557380	TRIAL	n/a	n/a	n/a	-999	13	[0, 0, 0]	n/a	FR1	1	R1341T
2877.728	0.0	560609	COUNTDOWN_START	n/a	n/a	n/a	-999	13	[0, 0, 0]	n/a	FR1	1	R1341T
2877.728	10.428	560609	WAITING_END	n/a	n/a	n/a	-999	13	[0, 0, 0]	n/a	FR1	1	R1341T
2888.156	0.0	571037	COUNTDOWN_END	n/a	n/a	n/a	-999	13	[0, 0, 0]	n/a	FR1	1	R1341T
2888.156	1.024	571037	ORIENT_START	n/a	n/a	n/a	-999	13	[0, 0, 0]	n/a	FR1	1	R1341T
2889.18	0.001	572061	ORIENT_END	n/a	n/a	n/a	-999	13	[0, 0, 0]	n/a	FR1	1	R1341T
2889.181	0.805	572062	ENCODING_START	n/a	n/a	n/a	-999	13	[0, 0, 0]	n/a	FR1	1	R1341T
2889.986	1.628	572867	WORD	n/a	wordpools/wordpool_EN.txt	TOAD	1	13	[0, 0, 0]	n/a	FR1	1	R1341T
2891.614	1.127	574495	WORD_OFF	n/a	n/a	TOAD	1	13	[0, 0, 0]	n/a	FR1	1	R1341T
2892.741	1.623	575621	WORD	n/a	wordpools/wordpool_EN.txt	SUIT	2	13	[0, 0, 0]	n/a	FR1	1	R1341T
2894.364	1.097	577244	WORD_OFF	n/a	n/a	SUIT	2	13	[0, 0, 0]	n/a	FR1	1	R1341T
2895.461	1.62	578341	WORD	n/a	wordpools/wordpool_EN.txt	FISH	3	13	[0, 0, 0]	n/a	FR1	1	R1341T
2897.081	0.987	579961	WORD_OFF	n/a	n/a	FISH	3	13	[0, 0, 0]	n/a	FR1	1	R1341T
2898.068	1.631	580948	WORD	n/a	wordpools/wordpool_EN.txt	PURSE	4	13	[0, 0, 0]	n/a	FR1	1	R1341T
2899.699	0.793	582579	WORD_OFF	n/a	n/a	PURSE	4	13	[0, 0, 0]	n/a	FR1	1	R1341T
2900.492	1.623	583372	WORD	n/a	wordpools/wordpool_EN.txt	HOUSE	5	13	[0, 0, 0]	n/a	FR1	1	R1341T
2902.115	1.012	584995	WORD_OFF	n/a	n/a	HOUSE	5	13	[0, 0, 0]	n/a	FR1	1	R1341T
2903.127	1.623	586007	WORD	n/a	wordpools/wordpool_EN.txt	CAT	6	13	[0, 0, 0]	n/a	FR1	1	R1341T
2904.75	1.047	587630	WORD_OFF	n/a	n/a	CAT	6	13	[0, 0, 0]	n/a	FR1	1	R1341T
2905.797	1.637	588677	WORD	n/a	wordpools/wordpool_EN.txt	TENT	7	13	[0, 0, 0]	n/a	FR1	1	R1341T
2907.434	0.994	590314	WORD_OFF	n/a	n/a	TENT	7	13	[0, 0, 0]	n/a	FR1	1	R1341T
2908.428	1.622	591308	WORD	n/a	wordpools/wordpool_EN.txt	BALL	8	13	[0, 0, 0]	n/a	FR1	1	R1341T
2910.05	0.755	592930	WORD_OFF	n/a	n/a	BALL	8	13	[0, 0, 0]	n/a	FR1	1	R1341T
2910.805	1.629	593685	WORD	n/a	wordpools/wordpool_EN.txt	CONE	9	13	[0, 0, 0]	n/a	FR1	1	R1341T
2912.434	1.113	595314	WORD_OFF	n/a	n/a	CONE	9	13	[0, 0, 0]	n/a	FR1	1	R1341T
2913.547	1.621	596427	WORD	n/a	wordpools/wordpool_EN.txt	CAKE	10	13	[0, 0, 0]	n/a	FR1	1	R1341T
2915.168	0.808	598047	WORD_OFF	n/a	n/a	CAKE	10	13	[0, 0, 0]	n/a	FR1	1	R1341T
2915.976	1.626	598855	WORD	n/a	wordpools/wordpool_EN.txt	SHIELD	11	13	[0, 0, 0]	n/a	FR1	1	R1341T
2917.602	1.057	600481	WORD_OFF	n/a	n/a	SHIELD	11	13	[0, 0, 0]	n/a	FR1	1	R1341T
2918.659	1.627	601538	WORD	n/a	wordpools/wordpool_EN.txt	CLOWN	12	13	[0, 0, 0]	n/a	FR1	1	R1341T
2920.286	0.0	603165	WORD_OFF	n/a	n/a	CLOWN	12	13	[0, 0, 0]	n/a	FR1	1	R1341T
2920.286	0.001	603165	ENCODING_END	n/a	n/a	n/a	-999	13	[0, 0, 0]	n/a	FR1	1	R1341T
2920.287	0.0	603166	DISTRACT_START	n/a	n/a	n/a	-999	13	[0, 0, 0]	n/a	FR1	1	R1341T
2920.287	0.015	603166	START	n/a	n/a	n/a	-999	14	[-999, -999, -999]	n/a	FR1	1	R1341T
2920.302	11.002	603181	PROB	11.002	n/a	n/a	-999	14	[1, 9, 7]	17	FR1	1	R1341T
2931.304	3.201	614183	PROB	3.201	n/a	n/a	-999	14	[1, 3, 8]	12	FR1	1	R1341T
2934.505	5.783	617384	PROB	5.783	n/a	n/a	-999	14	[2, 7, 7]	16	FR1	1	R1341T
2940.288	0.018	623166	STOP	n/a	n/a	n/a	-999	14	[-999, -999, -999]	n/a	FR1	1	R1341T
2940.306	0.564	623184	DISTRACT_END	n/a	n/a	n/a	-999	13	[0, 0, 0]	n/a	FR1	1	R1341T
2940.87	1.62	623748	RETRIEVAL_ORIENT_START	n/a	n/a	n/a	-999	13	[0, 0, 0]	n/a	FR1	1	R1341T
2942.49	0.0	625368	RETRIEVAL_ORIENT_END	n/a	n/a	n/a	-999	13	[0, 0, 0]	n/a	FR1	1	R1341T
2942.49	5.592	625368	REC_START	n/a	n/a	n/a	-999	13	[0, 0, 0]	n/a	FR1	1	R1341T
2948.082	0.554	630960	REC_WORD	0.554	n/a	PURSE	4	13	[0, 0, 0]	n/a	FR1	1	R1341T
2948.636	0.559	631514	REC_WORD	0.559	n/a	CAT	6	13	[0, 0, 0]	n/a	FR1	1	R1341T
2949.195	0.569	632073	REC_WORD	0.569	n/a	CONE	9	13	[0, 0, 0]	n/a	FR1	1	R1341T
2949.764	22.737	632642	REC_WORD	22.737	n/a	TENT	7	13	[0, 0, 0]	n/a	FR1	1	R1341T
2972.501	0.0	655378	REC_END	n/a	n/a	n/a	-999	13	[0, 0, 0]	n/a	FR1	1	R1341T
2972.501	0.016	655378	TRIAL_END	n/a	n/a	n/a	-999	13	[0, 0, 0]	n/a	FR1	1	R1341T
2972.517	0.0	655394	TRIAL_START	n/a	n/a	n/a	-999	14	[0, 0, 0]	n/a	FR1	1	R1341T
2972.517	0.0	655394	TRIAL	n/a	n/a	n/a	-999	14	[0, 0, 0]	n/a	FR1	1	R1341T
2972.517	2.062	655394	WAITING_START	n/a	n/a	n/a	-999	14	[0, 0, 0]	n/a	FR1	1	R1341T
2974.579	0.001	657456	WAITING_END	n/a	n/a	n/a	-999	14	[0, 0, 0]	n/a	FR1	1	R1341T
2974.58	10.429	657457	COUNTDOWN_START	n/a	n/a	n/a	-999	14	[0, 0, 0]	n/a	FR1	1	R1341T
2985.009	0.001	667885	COUNTDOWN_END	n/a	n/a	n/a	-999	14	[0, 0, 0]	n/a	FR1	1	R1341T
2985.01	1.238	667886	ORIENT_START	n/a	n/a	n/a	-999	14	[0, 0, 0]	n/a	FR1	1	R1341T
2986.248	0.0	669124	ORIENT_END	n/a	n/a	n/a	-999	14	[0, 0, 0]	n/a	FR1	1	R1341T
2986.248	0.871	669124	ENCODING_START	n/a	n/a	n/a	-999	14	[0, 0, 0]	n/a	FR1	1	R1341T
2987.119	1.612	669995	WORD	n/a	wordpools/wordpool_EN.txt	FOX	1	14	[0, 0, 0]	n/a	FR1	1	R1341T
2988.731	0.789	671607	WORD_OFF	n/a	n/a	FOX	1	14	[0, 0, 0]	n/a	FR1	1	R1341T
2989.52	1.628	672396	WORD	n/a	wordpools/wordpool_EN.txt	SEAL	2	14	[0, 0, 0]	n/a	FR1	1	R1341T
2991.148	1.057	674024	WORD_OFF	n/a	n/a	SEAL	2	14	[0, 0, 0]	n/a	FR1	1	R1341T
2992.205	1.628	675081	WORD	n/a	wordpools/wordpool_EN.txt	FORT	3	14	[0, 0, 0]	n/a	FR1	1	R1341T
2993.833	0.975	676709	WORD_OFF	n/a	n/a	FORT	3	14	[0, 0, 0]	n/a	FR1	1	R1341T
2994.808	1.625	677684	WORD	n/a	wordpools/wordpool_EN.txt	MOON	4	14	[0, 0, 0]	n/a	FR1	1	R1341T
2996.433	0.845	679309	WORD_OFF	n/a	n/a	MOON	4	14	[0, 0, 0]	n/a	FR1	1	R1341T
2997.278	1.621	680154	WORD	n/a	wordpools/wordpool_EN.txt	BANK	5	14	[0, 0, 0]	n/a	FR1	1	R1341T
2998.899	0.765	681775	WORD_OFF	n/a	n/a	BANK	5	14	[0, 0, 0]	n/a	FR1	1	R1341T
2999.664	1.637	682540	WORD	n/a	wordpools/wordpool_EN.txt	TEA	6	14	[0, 0, 0]	n/a	FR1	1	R1341T
3001.301	1.112	684177	WORD_OFF	n/a	n/a	TEA	6	14	[0, 0, 0]	n/a	FR1	1	R1341T
3002.413	1.637	685289	WORD	n/a	wordpools/wordpool_EN.txt	SPRING	7	14	[0, 0, 0]	n/a	FR1	1	R1341T
3004.05	1.067	686926	WORD_OFF	n/a	n/a	SPRING	7	14	[0, 0, 0]	n/a	FR1	1	R1341T
3005.117	1.618	687993	WORD	n/a	wordpools/wordpool_EN.txt	PET	8	14	[0, 0, 0]	n/a	FR1	1	R1341T
3006.735	0.824	689611	WORD_OFF	n/a	n/a	PET	8	14	[0, 0, 0]	n/a	FR1	1	R1341T
3007.559	1.626	690434	WORD	n/a	wordpools/wordpool_EN.txt	BED	9	14	[0, 0, 0]	n/a	FR1	1	R1341T
3009.185	1.137	692060	WORD_OFF	n/a	n/a	BED	9	14	[0, 0, 0]	n/a	FR1	1	R1341T
3010.322	1.63	693197	WORD	n/a	wordpools/wordpool_EN.txt	COUCH	10	14	[0, 0, 0]	n/a	FR1	1	R1341T
3011.952	0.781	694827	WORD_OFF	n/a	n/a	COUCH	10	14	[0, 0, 0]	n/a	FR1	1	R1341T
3012.733	1.637	695608	WORD	n/a	wordpools/wordpool_EN.txt	SNOW	11	14	[0, 0, 0]	n/a	FR1	1	R1341T
3014.37	0.835	697245	WORD_OFF	n/a	n/a	SNOW	11	14	[0, 0, 0]	n/a	FR1	1	R1341T
3015.205	1.632	698080	WORD	n/a	wordpools/wordpool_EN.txt	BENCH	12	14	[0, 0, 0]	n/a	FR1	1	R1341T
3016.837	0.0	699712	ENCODING_END	n/a	n/a	n/a	-999	14	[0, 0, 0]	n/a	FR1	1	R1341T
3016.837	0.001	699712	WORD_OFF	n/a	n/a	BENCH	12	14	[0, 0, 0]	n/a	FR1	1	R1341T
3016.838	0.0	699713	DISTRACT_START	n/a	n/a	n/a	-999	14	[0, 0, 0]	n/a	FR1	1	R1341T
3016.838	0.015	699713	START	n/a	n/a	n/a	-999	15	[-999, -999, -999]	n/a	FR1	1	R1341T
3016.853	10.886	699728	PROB	10.886	n/a	n/a	-999	15	[9, 6, 1]	17	FR1	1	R1341T
3027.739	4.534	710614	PROB	4.534	n/a	n/a	-999	15	[8, 5, 5]	18	FR1	1	R1341T
3032.273	17.043	715147	PROB	17.043	n/a	n/a	-999	15	[8, 9, 5]	22	FR1	1	R1341T
3049.316	0.01	732190	STOP	n/a	n/a	n/a	-999	15	[-999, -999, -999]	n/a	FR1	1	R1341T
3049.326	0.565	732200	DISTRACT_END	n/a	n/a	n/a	-999	14	[0, 0, 0]	n/a	FR1	1	R1341T
3049.891	1.619	732765	RETRIEVAL_ORIENT_START	n/a	n/a	n/a	-999	14	[0, 0, 0]	n/a	FR1	1	R1341T
3051.51	0.0	734384	RETRIEVAL_ORIENT_END	n/a	n/a	n/a	-999	14	[0, 0, 0]	n/a	FR1	1	R1341T
3051.51	1.203	734384	REC_START	n/a	n/a	n/a	-999	14	[0, 0, 0]	n/a	FR1	1	R1341T
3052.713	0.892	735587	REC_WORD	0.892	n/a	FOX	1	14	[0, 0, 0]	n/a	FR1	1	R1341T
3053.605	0.482	736478	REC_WORD	0.482	n/a	SEAL	2	14	[0, 0, 0]	n/a	FR1	1	R1341T
3054.087	0.763	736960	REC_WORD	0.763	n/a	FORT	3	14	[0, 0, 0]	n/a	FR1	1	R1341T
3054.85	1.059	737723	REC_WORD	1.059	n/a	SPRING	7	14	[0, 0, 0]	n/a	FR1	1	R1341T
3055.909	0.686	738782	REC_WORD	0.686	n/a	PET	8	14	[0, 0, 0]	n/a	FR1	1	R1341T
3056.595	24.924	739468	REC_WORD	24.924	n/a	SNOW	11	14	[0, 0, 0]	n/a	FR1	1	R1341T
3081.519	0.001	764391	REC_END	n/a	n/a	n/a	-999	14	[0, 0, 0]	n/a	FR1	1	R1341T
3081.52	0.015	764392	TRIAL_END	n/a	n/a	n/a	-999	14	[0, 0, 0]	n/a	FR1	1	R1341T
3081.535	0.0	764407	TRIAL_START	n/a	n/a	n/a	-999	15	[0, 0, 0]	n/a	FR1	1	R1341T
3081.535	0.001	764407	TRIAL	n/a	n/a	n/a	-999	15	[0, 0, 0]	n/a	FR1	1	R1341T
3081.536	2.579	764408	WAITING_START	n/a	n/a	n/a	-999	15	[0, 0, 0]	n/a	FR1	1	R1341T
3084.115	0.0	766987	WAITING_END	n/a	n/a	n/a	-999	15	[0, 0, 0]	n/a	FR1	1	R1341T
3084.115	10.428	766987	COUNTDOWN_START	n/a	n/a	n/a	-999	15	[0, 0, 0]	n/a	FR1	1	R1341T
3094.543	0.0	777415	ORIENT_START	n/a	n/a	n/a	-999	15	[0, 0, 0]	n/a	FR1	1	R1341T
3094.543	1.175	777415	COUNTDOWN_END	n/a	n/a	n/a	-999	15	[0, 0, 0]	n/a	FR1	1	R1341T
3095.718	0.0	778590	ORIENT_END	n/a	n/a	n/a	-999	15	[0, 0, 0]	n/a	FR1	1	R1341T
3095.718	0.772	778590	ENCODING_START	n/a	n/a	n/a	-999	15	[0, 0, 0]	n/a	FR1	1	R1341T
3096.49	1.627	779362	WORD	n/a	wordpools/wordpool_EN.txt	MAP	1	15	[0, 0, 0]	n/a	FR1	1	R1341T
3098.117	1.012	780989	WORD_OFF	n/a	n/a	MAP	1	15	[0, 0, 0]	n/a	FR1	1	R1341T
3099.129	1.623	782000	WORD	n/a	wordpools/wordpool_EN.txt	CALF	2	15	[0, 0, 0]	n/a	FR1	1	R1341T
3100.752	0.84	783623	WORD_OFF	n/a	n/a	CALF	2	15	[0, 0, 0]	n/a	FR1	1	R1341T
3101.592	1.627	784463	WORD	n/a	wordpools/wordpool_EN.txt	FLEA	3	15	[0, 0, 0]	n/a	FR1	1	R1341T
3103.219	1.062	786090	WORD_OFF	n/a	n/a	FLEA	3	15	[0, 0, 0]	n/a	FR1	1	R1341T
3104.281	1.621	787152	WORD	n/a	wordpools/wordpool_EN.txt	PARK	4	15	[0, 0, 0]	n/a	FR1	1	R1341T
3105.902	0.896	788773	WORD_OFF	n/a	n/a	PARK	4	15	[0, 0, 0]	n/a	FR1	1	R1341T
3106.798	1.622	789669	WORD	n/a	wordpools/wordpool_EN.txt	TRAY	5	15	[0, 0, 0]	n/a	FR1	1	R1341T
3108.42	1.054	791291	WORD_OFF	n/a	n/a	TRAY	5	15	[0, 0, 0]	n/a	FR1	1	R1341T
3109.474	1.629	792345	WORD	n/a	wordpools/wordpool_EN.txt	WAND	6	15	[0, 0, 0]	n/a	FR1	1	R1341T
3111.103	0.958	793974	WORD_OFF	n/a	n/a	WAND	6	15	[0, 0, 0]	n/a	FR1	1	R1341T
3112.061	1.61	794932	WORD	n/a	wordpools/wordpool_EN.txt	CHIEF	7	15	[0, 0, 0]	n/a	FR1	1	R1341T
3113.671	0.783	796542	WORD_OFF	n/a	n/a	CHIEF	7	15	[0, 0, 0]	n/a	FR1	1	R1341T
3114.454	1.633	797325	WORD	n/a	wordpools/wordpool_EN.txt	SINK	8	15	[0, 0, 0]	n/a	FR1	1	R1341T
3116.087	1.104	798958	WORD_OFF	n/a	n/a	SINK	8	15	[0, 0, 0]	n/a	FR1	1	R1341T
3117.191	1.631	800062	WORD	n/a	wordpools/wordpool_EN.txt	SHIP	9	15	[0, 0, 0]	n/a	FR1	1	R1341T
3118.822	1.127	801693	WORD_OFF	n/a	n/a	SHIP	9	15	[0, 0, 0]	n/a	FR1	1	R1341T
3119.949	1.623	802820	WORD	n/a	wordpools/wordpool_EN.txt	SHEET	10	15	[0, 0, 0]	n/a	FR1	1	R1341T
3121.572	1.058	804443	WORD_OFF	n/a	n/a	SHEET	10	15	[0, 0, 0]	n/a	FR1	1	R1341T
3122.63	1.626	805500	WORD	n/a	wordpools/wordpool_EN.txt	JUICE	11	15	[0, 0, 0]	n/a	FR1	1	R1341T
3124.256	0.929	807126	WORD_OFF	n/a	n/a	JUICE	11	15	[0, 0, 0]	n/a	FR1	1	R1341T
3125.185	1.622	808055	WORD	n/a	wordpools/wordpool_EN.txt	NEST	12	15	[0, 0, 0]	n/a	FR1	1	R1341T
3126.807	0.0	809677	DISTRACT_START	n/a	n/a	n/a	-999	15	[0, 0, 0]	n/a	FR1	1	R1341T
3126.807	0.0	809677	ENCODING_END	n/a	n/a	n/a	-999	15	[0, 0, 0]	n/a	FR1	1	R1341T
3126.807	0.0	809677	WORD_OFF	n/a	n/a	NEST	12	15	[0, 0, 0]	n/a	FR1	1	R1341T
3126.807	0.016	809677	START	n/a	n/a	n/a	-999	16	[-999, -999, -999]	n/a	FR1	1	R1341T
3126.823	12.386	809693	PROB	12.386	n/a	n/a	-999	16	[5, 2, 6]	13	FR1	1	R1341T
3139.209	8.102	822079	PROB	8.102	n/a	n/a	-999	16	[3, 4, 5]	12	FR1	1	R1341T
3147.311	0.016	830180	STOP	n/a	n/a	n/a	-999	16	[-999, -999, -999]	n/a	FR1	1	R1341T
3147.327	0.621	830196	DISTRACT_END	n/a	n/a	n/a	-999	15	[0, 0, 0]	n/a	FR1	1	R1341T
3147.948	1.629	830817	RETRIEVAL_ORIENT_START	n/a	n/a	n/a	-999	15	[0, 0, 0]	n/a	FR1	1	R1341T
3149.577	0.001	832446	RETRIEVAL_ORIENT_END	n/a	n/a	n/a	-999	15	[0, 0, 0]	n/a	FR1	1	R1341T
3149.578	4.098	832447	REC_START	n/a	n/a	n/a	-999	15	[0, 0, 0]	n/a	FR1	1	R1341T
3153.676	2.422	836545	REC_WORD	2.422	n/a	MAP	1	15	[0, 0, 0]	n/a	FR1	1	R1341T
3156.098	0.778	838967	REC_WORD	0.778	n/a	CALF	2	15	[0, 0, 0]	n/a	FR1	1	R1341T
3156.876	2.765	839745	REC_WORD	2.765	n/a	FLEA	3	15	[0, 0, 0]	n/a	FR1	1	R1341T
3159.641	6.357	842510	REC_WORD	6.357	n/a	TRAY	5	15	[0, 0, 0]	n/a	FR1	1	R1341T
3165.998	13.59	848867	REC_WORD	13.59	n/a	SHIP	9	15	[0, 0, 0]	n/a	FR1	1	R1341T
3179.588	0.0	862456	TRIAL_END	n/a	n/a	n/a	-999	15	[0, 0, 0]	n/a	FR1	1	R1341T
3179.588	0.016	862456	REC_END	n/a	n/a	n/a	-999	15	[0, 0, 0]	n/a	FR1	1	R1341T
3179.604	0.0	862472	TRIAL_START	n/a	n/a	n/a	-999	16	[0, 0, 0]	n/a	FR1	1	R1341T
3179.604	0.0	862472	TRIAL	n/a	n/a	n/a	-999	16	[0, 0, 0]	n/a	FR1	1	R1341T
3179.604	2.312	862472	WAITING_START	n/a	n/a	n/a	-999	16	[0, 0, 0]	n/a	FR1	1	R1341T
3181.916	0.0	864784	WAITING_END	n/a	n/a	n/a	-999	16	[0, 0, 0]	n/a	FR1	1	R1341T
3181.916	10.429	864784	COUNTDOWN_START	n/a	n/a	n/a	-999	16	[0, 0, 0]	n/a	FR1	1	R1341T
3192.345	0.0	875212	COUNTDOWN_END	n/a	n/a	n/a	-999	16	[0, 0, 0]	n/a	FR1	1	R1341T
3192.345	1.057	875212	ORIENT_START	n/a	n/a	n/a	-999	16	[0, 0, 0]	n/a	FR1	1	R1341T
3193.402	0.001	876269	ORIENT_END	n/a	n/a	n/a	-999	16	[0, 0, 0]	n/a	FR1	1	R1341T
3193.403	0.895	876270	ENCODING_START	n/a	n/a	n/a	-999	16	[0, 0, 0]	n/a	FR1	1	R1341T
3194.298	1.637	877165	WORD	n/a	wordpools/wordpool_EN.txt	TRAIN	1	16	[0, 0, 0]	n/a	FR1	1	R1341T
3195.935	1.033	878802	WORD_OFF	n/a	n/a	TRAIN	1	16	[0, 0, 0]	n/a	FR1	1	R1341T
3196.968	1.635	879835	WORD	n/a	wordpools/wordpool_EN.txt	TOAST	2	16	[0, 0, 0]	n/a	FR1	1	R1341T
3198.603	0.752	881470	WORD_OFF	n/a	n/a	TOAST	2	16	[0, 0, 0]	n/a	FR1	1	R1341T
3199.355	1.631	882222	WORD	n/a	wordpools/wordpool_EN.txt	NAIL	3	16	[0, 0, 0]	n/a	FR1	1	R1341T
3200.986	1.121	883853	WORD_OFF	n/a	n/a	NAIL	3	16	[0, 0, 0]	n/a	FR1	1	R1341T
3202.107	1.63	884974	WORD	n/a	wordpools/wordpool_EN.txt	HAT	4	16	[0, 0, 0]	n/a	FR1	1	R1341T
3203.737	1.044	886604	WORD_OFF	n/a	n/a	HAT	4	16	[0, 0, 0]	n/a	FR1	1	R1341T
3204.781	1.624	887648	WORD	n/a	wordpools/wordpool_EN.txt	BAND	5	16	[0, 0, 0]	n/a	FR1	1	R1341T
3206.405	1.058	889272	WORD_OFF	n/a	n/a	BAND	5	16	[0, 0, 0]	n/a	FR1	1	R1341T
3207.463	1.624	890330	WORD	n/a	wordpools/wordpool_EN.txt	SMILE	6	16	[0, 0, 0]	n/a	FR1	1	R1341T
3209.087	0.985	891954	WORD_OFF	n/a	n/a	SMILE	6	16	[0, 0, 0]	n/a	FR1	1	R1341T
3210.072	1.617	892939	WORD	n/a	wordpools/wordpool_EN.txt	FENCE	7	16	[0, 0, 0]	n/a	FR1	1	R1341T
3211.689	1.049	894556	WORD_OFF	n/a	n/a	FENCE	7	16	[0, 0, 0]	n/a	FR1	1	R1341T
3212.738	1.635	895605	WORD	n/a	wordpools/wordpool_EN.txt	HORSE	8	16	[0, 0, 0]	n/a	FR1	1	R1341T
3214.373	1.117	897239	WORD_OFF	n/a	n/a	HORSE	8	16	[0, 0, 0]	n/a	FR1	1	R1341T
3215.49	1.632	898356	WORD	n/a	wordpools/wordpool_EN.txt	ANT	9	16	[0, 0, 0]	n/a	FR1	1	R1341T
3217.122	1.132	899988	WORD_OFF	n/a	n/a	ANT	9	16	[0, 0, 0]	n/a	FR1	1	R1341T
3218.254	1.635	901120	WORD	n/a	wordpools/wordpool_EN.txt	SHEEP	10	16	[0, 0, 0]	n/a	FR1	1	R1341T
3219.889	1.095	902755	WORD_OFF	n/a	n/a	SHEEP	10	16	[0, 0, 0]	n/a	FR1	1	R1341T
3220.984	1.607	903850	WORD	n/a	wordpools/wordpool_EN.txt	POND	11	16	[0, 0, 0]	n/a	FR1	1	R1341T
3222.591	0.918	905457	WORD_OFF	n/a	n/a	POND	11	16	[0, 0, 0]	n/a	FR1	1	R1341T
3223.509	1.631	906375	WORD	n/a	wordpools/wordpool_EN.txt	TREE	12	16	[0, 0, 0]	n/a	FR1	1	R1341T
3225.14	0.001	908006	WORD_OFF	n/a	n/a	TREE	12	16	[0, 0, 0]	n/a	FR1	1	R1341T
3225.141	0.0	908007	ENCODING_END	n/a	n/a	n/a	-999	16	[0, 0, 0]	n/a	FR1	1	R1341T
3225.141	0.0	908007	DISTRACT_START	n/a	n/a	n/a	-999	16	[0, 0, 0]	n/a	FR1	1	R1341T
3225.141	0.016	908007	START	n/a	n/a	n/a	-999	17	[-999, -999, -999]	n/a	FR1	1	R1341T
3225.157	7.818	908023	PROB	7.818	n/a	n/a	-999	17	[1, 9, 3]	13	FR1	1	R1341T
3232.975	7.219	915841	PROB	7.219	n/a	n/a	-999	17	[9, 6, 7]	22	FR1	1	R1341T
3240.194	6.442	923059	PROB	6.442	n/a	n/a	-999	17	[6, 1, 2]	9	FR1	1	R1341T
3246.636	0.009	929501	STOP	n/a	n/a	n/a	-999	17	[-999, -999, -999]	n/a	FR1	1	R1341T
3246.645	0.533	929510	DISTRACT_END	n/a	n/a	n/a	-999	16	[0, 0, 0]	n/a	FR1	1	R1341T
3247.178	1.551	930043	RETRIEVAL_ORIENT_START	n/a	n/a	n/a	-999	16	[0, 0, 0]	n/a	FR1	1	R1341T
3248.729	0.0	931594	RETRIEVAL_ORIENT_END	n/a	n/a	n/a	-999	16	[0, 0, 0]	n/a	FR1	1	R1341T
3248.729	6.963	931594	REC_START	n/a	n/a	n/a	-999	16	[0, 0, 0]	n/a	FR1	1	R1341T
3255.692	0.714	938557	REC_WORD	0.714	n/a	TREE	12	16	[0, 0, 0]	n/a	FR1	1	R1341T
3256.406	2.051	939271	REC_WORD	2.051	n/a	POND	11	16	[0, 0, 0]	n/a	FR1	1	R1341T
3258.457	14.306	941322	REC_WORD	14.306	n/a	HORSE	8	16	[0, 0, 0]	n/a	FR1	1	R1341T
3272.763	5.978	955627	REC_WORD	5.978	n/a	SHIP	-999	16	[0, 0, 0]	n/a	FR1	1	R1341T
3278.741	0.0	961605	REC_END	n/a	n/a	n/a	-999	16	[0, 0, 0]	n/a	FR1	1	R1341T
3278.741	0.017	961605	TRIAL_END	n/a	n/a	n/a	-999	16	[0, 0, 0]	n/a	FR1	1	R1341T
3278.758	0.0	961622	WAITING_START	n/a	n/a	n/a	-999	17	[0, 0, 0]	n/a	FR1	1	R1341T
3278.758	0.0	961622	TRIAL_START	n/a	n/a	n/a	-999	17	[0, 0, 0]	n/a	FR1	1	R1341T
3278.758	2.41	961622	TRIAL	n/a	n/a	n/a	-999	17	[0, 0, 0]	n/a	FR1	1	R1341T
3281.168	0.001	964032	WAITING_END	n/a	n/a	n/a	-999	17	[0, 0, 0]	n/a	FR1	1	R1341T
3281.169	10.428	964033	COUNTDOWN_START	n/a	n/a	n/a	-999	17	[0, 0, 0]	n/a	FR1	1	R1341T
3291.597	0.0	974460	COUNTDOWN_END	n/a	n/a	n/a	-999	17	[0, 0, 0]	n/a	FR1	1	R1341T
3291.597	1.073	974460	ORIENT_START	n/a	n/a	n/a	-999	17	[0, 0, 0]	n/a	FR1	1	R1341T
3292.67	0.001	975533	ORIENT_END	n/a	n/a	n/a	-999	17	[0, 0, 0]	n/a	FR1	1	R1341T
3292.671	0.803	975534	ENCODING_START	n/a	n/a	n/a	-999	17	[0, 0, 0]	n/a	FR1	1	R1341T
3293.474	1.629	976337	WORD	n/a	wordpools/wordpool_EN.txt	COW	1	17	[0, 0, 0]	n/a	FR1	1	R1341T
3295.103	0.89	977966	WORD_OFF	n/a	n/a	COW	1	17	[0, 0, 0]	n/a	FR1	1	R1341T
3295.993	1.611	978856	WORD	n/a	wordpools/wordpool_EN.txt	SHIRT	2	17	[0, 0, 0]	n/a	FR1	1	R1341T
3297.604	0.767	980467	WORD_OFF	n/a	n/a	SHIRT	2	17	[0, 0, 0]	n/a	FR1	1	R1341T
3298.371	1.633	981234	WORD	n/a	wordpools/wordpool_EN.txt	FLOOR	3	17	[0, 0, 0]	n/a	FR1	1	R1341T
3300.004	0.755	982867	WORD_OFF	n/a	n/a	FLOOR	3	17	[0, 0, 0]	n/a	FR1	1	R1341T
3300.759	1.63	983622	WORD	n/a	wordpools/wordpool_EN.txt	PANTS	4	17	[0, 0, 0]	n/a	FR1	1	R1341T
3302.389	0.834	985252	WORD_OFF	n/a	n/a	PANTS	4	17	[0, 0, 0]	n/a	FR1	1	R1341T
3303.223	1.633	986086	WORD	n/a	wordpools/wordpool_EN.txt	BAG	5	17	[0, 0, 0]	n/a	FR1	1	R1341T
3304.856	1.084	987719	WORD_OFF	n/a	n/a	BAG	5	17	[0, 0, 0]	n/a	FR1	1	R1341T
3305.94	1.633	988803	WORD	n/a	wordpools/wordpool_EN.txt	CORN	6	17	[0, 0, 0]	n/a	FR1	1	R1341T
3307.573	0.95	990435	WORD_OFF	n/a	n/a	CORN	6	17	[0, 0, 0]	n/a	FR1	1	R1341T
3308.523	1.633	991385	WORD	n/a	wordpools/wordpool_EN.txt	PHONE	7	17	[0, 0, 0]	n/a	FR1	1	R1341T
3310.156	0.873	993018	WORD_OFF	n/a	n/a	PHONE	7	17	[0, 0, 0]	n/a	FR1	1	R1341T
3311.029	1.611	993891	WORD	n/a	wordpools/wordpool_EN.txt	TOOTH	8	17	[0, 0, 0]	n/a	FR1	1	R1341T
3312.64	0.796	995502	WORD_OFF	n/a	n/a	TOOTH	8	17	[0, 0, 0]	n/a	FR1	1	R1341T
3313.436	1.637	996298	WORD	n/a	wordpools/wordpool_EN.txt	DRESS	9	17	[0, 0, 0]	n/a	FR1	1	R1341T
3315.073	0.771	997935	WORD_OFF	n/a	n/a	DRESS	9	17	[0, 0, 0]	n/a	FR1	1	R1341T
3315.844	1.631	998706	WORD	n/a	wordpools/wordpool_EN.txt	CROW	10	17	[0, 0, 0]	n/a	FR1	1	R1341T
3317.475	1.011	1000337	WORD_OFF	n/a	n/a	CROW	10	17	[0, 0, 0]	n/a	FR1	1	R1341T
3318.486	1.622	1001348	WORD	n/a	wordpools/wordpool_EN.txt	DOCK	11	17	[0, 0, 0]	n/a	FR1	1	R1341T
3320.108	1.118	1002970	WORD_OFF	n/a	n/a	DOCK	11	17	[0, 0, 0]	n/a	FR1	1	R1341T
3321.226	1.633	1004088	WORD	n/a	wordpools/wordpool_EN.txt	SEED	12	17	[0, 0, 0]	n/a	FR1	1	R1341T
3322.859	0.001	1005721	WORD_OFF	n/a	n/a	SEED	12	17	[0, 0, 0]	n/a	FR1	1	R1341T
3322.86	0.0	1005722	ENCODING_END	n/a	n/a	n/a	-999	17	[0, 0, 0]	n/a	FR1	1	R1341T
3322.86	0.0	1005722	DISTRACT_START	n/a	n/a	n/a	-999	17	[0, 0, 0]	n/a	FR1	1	R1341T
3322.86	0.015	1005722	START	n/a	n/a	n/a	-999	18	[-999, -999, -999]	n/a	FR1	1	R1341T
3322.875	5.352	1005737	PROB	5.352	n/a	n/a	-999	18	[5, 5, 1]	11	FR1	1	R1341T
3328.227	4.95	1011089	PROB	4.95	n/a	n/a	-999	18	[8, 7, 7]	22	FR1	1	R1341T
3333.177	3.251	1016038	PROB	3.251	n/a	n/a	-999	18	[2, 5, 3]	10	FR1	1	R1341T
3336.428	2.384	1019289	PROB	2.384	n/a	n/a	-999	18	[5, 1, 1]	7	FR1	1	R1341T
3338.812	3.166	1021673	PROB	3.166	n/a	n/a	-999	18	[8, 2, 6]	16	FR1	1	R1341T
3341.978	3.052	1024839	PROB	3.052	n/a	n/a	-999	18	[3, 6, 2]	11	FR1	1	R1341T
3345.03	0.015	1027891	STOP	n/a	n/a	n/a	-999	18	[-999, -999, -999]	n/a	FR1	1	R1341T
3345.045	0.583	1027906	DISTRACT_END	n/a	n/a	n/a	-999	17	[0, 0, 0]	n/a	FR1	1	R1341T
3345.628	1.635	1028489	RETRIEVAL_ORIENT_START	n/a	n/a	n/a	-999	17	[0, 0, 0]	n/a	FR1	1	R1341T
3347.263	0.001	1030124	RETRIEVAL_ORIENT_END	n/a	n/a	n/a	-999	17	[0, 0, 0]	n/a	FR1	1	R1341T
3347.264	8.082	1030125	REC_START	n/a	n/a	n/a	-999	17	[0, 0, 0]	n/a	FR1	1	R1341T
3355.346	0.31	1038206	REC_WORD	0.31	n/a	CAT	-999	17	[0, 0, 0]	n/a	FR1	1	R1341T
3355.656	0.521	1038516	REC_WORD	0.521	n/a	SHIRT	2	17	[0, 0, 0]	n/a	FR1	1	R1341T
3356.177	0.813	1039037	REC_WORD	0.813	n/a	FLOOR	3	17	[0, 0, 0]	n/a	FR1	1	R1341T
3356.99	1.187	1039850	REC_WORD	1.187	n/a	TREE	-999	17	[0, 0, 0]	n/a	FR1	1	R1341T
3358.177	0.734	1041037	REC_WORD	0.734	n/a	PANTS	4	17	[0, 0, 0]	n/a	FR1	1	R1341T
3358.911	18.365	1041771	REC_WORD	18.365	n/a	TEETH	-999	17	[0, 0, 0]	n/a	FR1	1	R1341T
3377.276	0.0	1060135	REC_END	n/a	n/a	n/a	-999	17	[0, 0, 0]	n/a	FR1	1	R1341T
3377.276	0.014	1060135	TRIAL_END	n/a	n/a	n/a	-999	17	[0, 0, 0]	n/a	FR1	1	R1341T
3377.29	0.0	1060149	WAITING_START	n/a	n/a	n/a	-999	18	[0, 0, 0]	n/a	FR1	1	R1341T
3377.29	0.0	1060149	TRIAL	n/a	n/a	n/a	-999	18	[0, 0, 0]	n/a	FR1	1	R1341T
3377.29	2.163	1060149	TRIAL_START	n/a	n/a	n/a	-999	18	[0, 0, 0]	n/a	FR1	1	R1341T
3379.453	0.0	1062312	WAITING_END	n/a	n/a	n/a	-999	18	[0, 0, 0]	n/a	FR1	1	R1341T
3379.453	10.429	1062312	COUNTDOWN_START	n/a	n/a	n/a	-999	18	[0, 0, 0]	n/a	FR1	1	R1341T
3389.882	0.001	1072741	COUNTDOWN_END	n/a	n/a	n/a	-999	18	[0, 0, 0]	n/a	FR1	1	R1341T
3389.883	1.154	1072742	ORIENT_START	n/a	n/a	n/a	-999	18	[0, 0, 0]	n/a	FR1	1	R1341T
3391.037	0.001	1073896	ORIENT_END	n/a	n/a	n/a	-999	18	[0, 0, 0]	n/a	FR1	1	R1341T
3391.038	0.834	1073897	ENCODING_START	n/a	n/a	n/a	-999	18	[0, 0, 0]	n/a	FR1	1	R1341T
3391.872	1.616	1074731	WORD	n/a	wordpools/wordpool_EN.txt	TOE	1	18	[0, 0, 0]	n/a	FR1	1	R1341T
3393.488	0.893	1076347	WORD_OFF	n/a	n/a	TOE	1	18	[0, 0, 0]	n/a	FR1	1	R1341T
3394.381	1.624	1077240	WORD	n/a	wordpools/wordpool_EN.txt	FOOD	2	18	[0, 0, 0]	n/a	FR1	1	R1341T
3396.005	0.934	1078864	WORD_OFF	n/a	n/a	FOOD	2	18	[0, 0, 0]	n/a	FR1	1	R1341T
3396.939	1.634	1079798	WORD	n/a	wordpools/wordpool_EN.txt	SWAMP	3	18	[0, 0, 0]	n/a	FR1	1	R1341T
3398.573	0.876	1081431	WORD_OFF	n/a	n/a	SWAMP	3	18	[0, 0, 0]	n/a	FR1	1	R1341T
3399.449	1.623	1082307	WORD	n/a	wordpools/wordpool_EN.txt	GUARD	4	18	[0, 0, 0]	n/a	FR1	1	R1341T
3401.072	1.073	1083930	WORD_OFF	n/a	n/a	GUARD	4	18	[0, 0, 0]	n/a	FR1	1	R1341T
3402.145	1.629	1085003	WORD	n/a	wordpools/wordpool_EN.txt	STRING	5	18	[0, 0, 0]	n/a	FR1	1	R1341T
3403.774	0.996	1086632	WORD_OFF	n/a	n/a	STRING	5	18	[0, 0, 0]	n/a	FR1	1	R1341T
3404.77	1.621	1087628	WORD	n/a	wordpools/wordpool_EN.txt	BOX	6	18	[0, 0, 0]	n/a	FR1	1	R1341T
3406.391	1.137	1089249	WORD_OFF	n/a	n/a	BOX	6	18	[0, 0, 0]	n/a	FR1	1	R1341T
3407.528	1.629	1090386	WORD	n/a	wordpools/wordpool_EN.txt	GLASS	7	18	[0, 0, 0]	n/a	FR1	1	R1341T
3409.157	0.809	1092015	WORD_OFF	n/a	n/a	GLASS	7	18	[0, 0, 0]	n/a	FR1	1	R1341T
3409.966	1.626	1092824	WORD	n/a	wordpools/wordpool_EN.txt	PALM	8	18	[0, 0, 0]	n/a	FR1	1	R1341T
3411.592	0.963	1094450	WORD_OFF	n/a	n/a	PALM	8	18	[0, 0, 0]	n/a	FR1	1	R1341T
3412.555	1.637	1095413	WORD	n/a	wordpools/wordpool_EN.txt	BUSH	9	18	[0, 0, 0]	n/a	FR1	1	R1341T
3414.192	0.754	1097050	WORD_OFF	n/a	n/a	BUSH	9	18	[0, 0, 0]	n/a	FR1	1	R1341T
3414.946	1.63	1097804	WORD	n/a	wordpools/wordpool_EN.txt	MAZE	10	18	[0, 0, 0]	n/a	FR1	1	R1341T
3416.576	0.867	1099434	WORD_OFF	n/a	n/a	MAZE	10	18	[0, 0, 0]	n/a	FR1	1	R1341T
3417.443	1.633	1100301	WORD	n/a	wordpools/wordpool_EN.txt	SIGN	11	18	[0, 0, 0]	n/a	FR1	1	R1341T
3419.076	0.964	1101934	WORD_OFF	n/a	n/a	SIGN	11	18	[0, 0, 0]	n/a	FR1	1	R1341T
3420.04	1.637	1102898	WORD	n/a	wordpools/wordpool_EN.txt	THREAD	12	18	[0, 0, 0]	n/a	FR1	1	R1341T
3421.677	0.001	1104534	WORD_OFF	n/a	n/a	THREAD	12	18	[0, 0, 0]	n/a	FR1	1	R1341T
3421.678	0.0	1104535	ENCODING_END	n/a	n/a	n/a	-999	18	[0, 0, 0]	n/a	FR1	1	R1341T
3421.678	0.0	1104535	DISTRACT_START	n/a	n/a	n/a	-999	18	[0, 0, 0]	n/a	FR1	1	R1341T
3421.678	0.015	1104535	START	n/a	n/a	n/a	-999	19	[-999, -999, -999]	n/a	FR1	1	R1341T
3421.693	10.736	1104550	PROB	10.736	n/a	n/a	-999	19	[1, 3, 3]	7	FR1	1	R1341T
3432.429	4.967	1115286	PROB	4.967	n/a	n/a	-999	19	[4, 1, 5]	10	FR1	1	R1341T
3437.396	3.251	1120253	PROB	3.251	n/a	n/a	-999	19	[5, 7, 7]	19	FR1	1	R1341T
3440.647	3.71	1123504	PROB	3.71	n/a	n/a	-999	19	[4, 8, 7]	19	FR1	1	R1341T
3444.357	0.007	1127213	STOP	n/a	n/a	n/a	-999	19	[-999, -999, -999]	n/a	FR1	1	R1341T
3444.364	0.538	1127220	DISTRACT_END	n/a	n/a	n/a	-999	18	[0, 0, 0]	n/a	FR1	1	R1341T
3444.902	1.68	1127758	RETRIEVAL_ORIENT_START	n/a	n/a	n/a	-999	18	[0, 0, 0]	n/a	FR1	1	R1341T
3446.582	0.0	1129438	RETRIEVAL_ORIENT_END	n/a	n/a	n/a	-999	18	[0, 0, 0]	n/a	FR1	1	R1341T
3446.582	3.58	1129438	REC_START	n/a	n/a	n/a	-999	18	[0, 0, 0]	n/a	FR1	1	R1341T
3450.162	0.464	1133018	REC_WORD	0.464	n/a	TOE	1	18	[0, 0, 0]	n/a	FR1	1	R1341T
3450.626	0.732	1133482	REC_WORD	0.732	n/a	FOOD	2	18	[0, 0, 0]	n/a	FR1	1	R1341T
3451.358	2.032	1134214	REC_WORD	2.032	n/a	STRAW	-999	18	[0, 0, 0]	n/a	FR1	1	R1341T
3453.39	0.722	1136246	REC_WORD	0.722	n/a	GUARD	4	18	[0, 0, 0]	n/a	FR1	1	R1341T
3454.112	22.481	1136968	REC_WORD	22.481	n/a	SWEEP	-999	18	[0, 0, 0]	n/a	FR1	1	R1341T
3476.593	0.001	1159448	REC_END	n/a	n/a	n/a	-999	18	[0, 0, 0]	n/a	FR1	1	R1341T
3476.594	0.014	1159449	TRIAL_END	n/a	n/a	n/a	-999	18	[0, 0, 0]	n/a	FR1	1	R1341T
3476.608	0.0	1159463	TRIAL	n/a	n/a	n/a	-999	19	[0, 0, 0]	n/a	FR1	1	R1341T
3476.608	0.0	1159463	WAITING_START	n/a	n/a	n/a	-999	19	[0, 0, 0]	n/a	FR1	1	R1341T
3476.608	2.328	1159463	TRIAL_START	n/a	n/a	n/a	-999	19	[0, 0, 0]	n/a	FR1	1	R1341T
3478.936	0.001	1161791	WAITING_END	n/a	n/a	n/a	-999	19	[0, 0, 0]	n/a	FR1	1	R1341T
3478.937	10.428	1161792	COUNTDOWN_START	n/a	n/a	n/a	-999	19	[0, 0, 0]	n/a	FR1	1	R1341T
3489.365	0.001	1172220	COUNTDOWN_END	n/a	n/a	n/a	-999	19	[0, 0, 0]	n/a	FR1	1	R1341T
3489.366	1.19	1172221	ORIENT_START	n/a	n/a	n/a	-999	19	[0, 0, 0]	n/a	FR1	1	R1341T
3490.556	0.001	1173410	ORIENT_END	n/a	n/a	n/a	-999	19	[0, 0, 0]	n/a	FR1	1	R1341T
3490.557	1.101	1173411	ENCODING_START	n/a	n/a	n/a	-999	19	[0, 0, 0]	n/a	FR1	1	R1341T
3491.658	1.632	1174512	WORD	n/a	wordpools/wordpool_EN.txt	JAIL	1	19	[0, 0, 0]	n/a	FR1	1	R1341T
3493.29	0.784	1176144	WORD_OFF	n/a	n/a	JAIL	1	19	[0, 0, 0]	n/a	FR1	1	R1341T
3494.074	1.633	1176928	WORD	n/a	wordpools/wordpool_EN.txt	PEAR	2	19	[0, 0, 0]	n/a	FR1	1	R1341T
3495.707	1.094	1178561	WORD_OFF	n/a	n/a	PEAR	2	19	[0, 0, 0]	n/a	FR1	1	R1341T
3496.801	1.623	1179655	WORD	n/a	wordpools/wordpool_EN.txt	HEART	3	19	[0, 0, 0]	n/a	FR1	1	R1341T
3498.424	0.942	1181278	WORD_OFF	n/a	n/a	HEART	3	19	[0, 0, 0]	n/a	FR1	1	R1341T
3499.366	1.624	1182220	WORD	n/a	wordpools/wordpool_EN.txt	STRAW	4	19	[0, 0, 0]	n/a	FR1	1	R1341T
3500.99	0.925	1183844	WORD_OFF	n/a	n/a	STRAW	4	19	[0, 0, 0]	n/a	FR1	1	R1341T
3501.915	1.627	1184769	WORD	n/a	wordpools/wordpool_EN.txt	ROSE	5	19	[0, 0, 0]	n/a	FR1	1	R1341T
3503.542	1.058	1186396	WORD_OFF	n/a	n/a	ROSE	5	19	[0, 0, 0]	n/a	FR1	1	R1341T
3504.6	1.626	1187454	WORD	n/a	wordpools/wordpool_EN.txt	EAR	6	19	[0, 0, 0]	n/a	FR1	1	R1341T
3506.226	0.826	1189080	WORD_OFF	n/a	n/a	EAR	6	19	[0, 0, 0]	n/a	FR1	1	R1341T
3507.052	1.624	1189906	WORD	n/a	wordpools/wordpool_EN.txt	STREET	7	19	[0, 0, 0]	n/a	FR1	1	R1341T
3508.676	0.858	1191530	WORD_OFF	n/a	n/a	STREET	7	19	[0, 0, 0]	n/a	FR1	1	R1341T
3509.534	1.625	1192388	WORD	n/a	wordpools/wordpool_EN.txt	INK	8	19	[0, 0, 0]	n/a	FR1	1	R1341T
3511.159	1.146	1194013	WORD_OFF	n/a	n/a	INK	8	19	[0, 0, 0]	n/a	FR1	1	R1341T
3512.305	1.621	1195159	WORD	n/a	wordpools/wordpool_EN.txt	DRUM	9	19	[0, 0, 0]	n/a	FR1	1	R1341T
3513.926	0.966	1196779	WORD_OFF	n/a	n/a	DRUM	9	19	[0, 0, 0]	n/a	FR1	1	R1341T
3514.892	1.636	1197745	WORD	n/a	wordpools/wordpool_EN.txt	HOOF	10	19	[0, 0, 0]	n/a	FR1	1	R1341T
3516.528	1.064	1199381	WORD_OFF	n/a	n/a	HOOF	10	19	[0, 0, 0]	n/a	FR1	1	R1341T
3517.592	1.636	1200445	WORD	n/a	wordpools/wordpool_EN.txt	RICE	11	19	[0, 0, 0]	n/a	FR1	1	R1341T
3519.228	0.911	1202081	WORD_OFF	n/a	n/a	RICE	11	19	[0, 0, 0]	n/a	FR1	1	R1341T
3520.139	1.623	1202992	WORD	n/a	wordpools/wordpool_EN.txt	HAND	12	19	[0, 0, 0]	n/a	FR1	1	R1341T
3521.762	0.0	1204615	DISTRACT_START	n/a	n/a	n/a	-999	19	[0, 0, 0]	n/a	FR1	1	R1341T
3521.762	0.0	1204615	ENCODING_END	n/a	n/a	n/a	-999	19	[0, 0, 0]	n/a	FR1	1	R1341T
3521.762	0.001	1204615	WORD_OFF	n/a	n/a	HAND	12	19	[0, 0, 0]	n/a	FR1	1	R1341T
3521.763	0.015	1204616	START	n/a	n/a	n/a	-999	20	[-999, -999, -999]	n/a	FR1	1	R1341T
3521.778	14.636	1204631	PROB	14.636	n/a	n/a	-999	20	[4, 4, 6]	14	FR1	1	R1341T
3536.414	5.347	1219266	PROB	5.347	n/a	n/a	-999	20	[4, 9, 9]	22	FR1	1	R1341T
3541.761	0.021	1224613	STOP	n/a	n/a	n/a	-999	20	[-999, -999, -999]	n/a	FR1	1	R1341T
3541.782	0.645	1224634	DISTRACT_END	n/a	n/a	n/a	-999	19	[0, 0, 0]	n/a	FR1	1	R1341T
3542.427	1.555	1225279	RETRIEVAL_ORIENT_START	n/a	n/a	n/a	-999	19	[0, 0, 0]	n/a	FR1	1	R1341T
3543.982	0.0	1226834	RETRIEVAL_ORIENT_END	n/a	n/a	n/a	-999	19	[0, 0, 0]	n/a	FR1	1	R1341T
3543.982	2.543	1226834	REC_START	n/a	n/a	n/a	-999	19	[0, 0, 0]	n/a	FR1	1	R1341T
3546.525	0.508	1229377	REC_WORD	0.508	n/a	JAIL	1	19	[0, 0, 0]	n/a	FR1	1	R1341T
3547.033	0.936	1229885	REC_WORD	0.936	n/a	INK	8	19	[0, 0, 0]	n/a	FR1	1	R1341T
3547.969	1.467	1230821	REC_WORD	1.467	n/a	EAR	6	19	[0, 0, 0]	n/a	FR1	1	R1341T
3549.436	0.759	1232288	REC_WORD	0.759	n/a	DRUM	9	19	[0, 0, 0]	n/a	FR1	1	R1341T
3550.195	0.683	1233047	REC_WORD	0.683	n/a	RICE	11	19	[0, 0, 0]	n/a	FR1	1	R1341T
3550.878	22.01	1233730	REC_WORD	22.01	n/a	HAND	12	19	[0, 0, 0]	n/a	FR1	1	R1341T
3572.888	1.104	1255739	REC_WORD	1.104	n/a	STRAW	4	19	[0, 0, 0]	n/a	FR1	1	R1341T
3573.992	0.0	1256843	REC_END	n/a	n/a	n/a	-999	19	[0, 0, 0]	n/a	FR1	1	R1341T
3573.992	0.017	1256843	TRIAL_END	n/a	n/a	n/a	-999	19	[0, 0, 0]	n/a	FR1	1	R1341T
3574.009	0.0	1256860	TRIAL_START	n/a	n/a	n/a	-999	20	[0, 0, 0]	n/a	FR1	1	R1341T
3574.009	0.0	1256860	TRIAL	n/a	n/a	n/a	-999	20	[0, 0, 0]	n/a	FR1	1	R1341T
3574.009	2.646	1256860	WAITING_START	n/a	n/a	n/a	-999	20	[0, 0, 0]	n/a	FR1	1	R1341T
3576.655	0.001	1259506	WAITING_END	n/a	n/a	n/a	-999	20	[0, 0, 0]	n/a	FR1	1	R1341T
3576.656	10.429	1259507	COUNTDOWN_START	n/a	n/a	n/a	-999	20	[0, 0, 0]	n/a	FR1	1	R1341T
3587.085	0.001	1269935	COUNTDOWN_END	n/a	n/a	n/a	-999	20	[0, 0, 0]	n/a	FR1	1	R1341T
3587.086	1.138	1269936	ORIENT_START	n/a	n/a	n/a	-999	20	[0, 0, 0]	n/a	FR1	1	R1341T
3588.224	0.0	1271074	ORIENT_END	n/a	n/a	n/a	-999	20	[0, 0, 0]	n/a	FR1	1	R1341T
3588.224	1.091	1271074	ENCODING_START	n/a	n/a	n/a	-999	20	[0, 0, 0]	n/a	FR1	1	R1341T
3589.315	1.625	1272165	WORD	n/a	wordpools/wordpool_EN.txt	BATH	1	20	[0, 0, 0]	n/a	FR1	1	R1341T
3590.94	0.823	1273790	WORD_OFF	n/a	n/a	BATH	1	20	[0, 0, 0]	n/a	FR1	1	R1341T
3591.763	1.629	1274613	WORD	n/a	wordpools/wordpool_EN.txt	WORLD	2	20	[0, 0, 0]	n/a	FR1	1	R1341T
3593.392	1.033	1276242	WORD_OFF	n/a	n/a	WORLD	2	20	[0, 0, 0]	n/a	FR1	1	R1341T
3594.425	1.633	1277275	WORD	n/a	wordpools/wordpool_EN.txt	STONE	3	20	[0, 0, 0]	n/a	FR1	1	R1341T
3596.058	1.084	1278908	WORD_OFF	n/a	n/a	STONE	3	20	[0, 0, 0]	n/a	FR1	1	R1341T
3597.142	1.634	1279992	WORD	n/a	wordpools/wordpool_EN.txt	KEY	4	20	[0, 0, 0]	n/a	FR1	1	R1341T
3598.776	1.073	1281626	WORD_OFF	n/a	n/a	KEY	4	20	[0, 0, 0]	n/a	FR1	1	R1341T
3599.849	1.627	1282699	WORD	n/a	wordpools/wordpool_EN.txt	MOOSE	5	20	[0, 0, 0]	n/a	FR1	1	R1341T
3601.476	0.856	1284326	WORD_OFF	n/a	n/a	MOOSE	5	20	[0, 0, 0]	n/a	FR1	1	R1341T
3602.332	1.627	1285182	WORD	n/a	wordpools/wordpool_EN.txt	PEN	6	20	[0, 0, 0]	n/a	FR1	1	R1341T
3603.959	1.103	1286809	WORD_OFF	n/a	n/a	PEN	6	20	[0, 0, 0]	n/a	FR1	1	R1341T
3605.062	1.632	1287911	WORD	n/a	wordpools/wordpool_EN.txt	EEL	7	20	[0, 0, 0]	n/a	FR1	1	R1341T
3606.694	0.857	1289543	WORD_OFF	n/a	n/a	EEL	7	20	[0, 0, 0]	n/a	FR1	1	R1341T
3607.551	1.627	1290400	WORD	n/a	wordpools/wordpool_EN.txt	VEST	8	20	[0, 0, 0]	n/a	FR1	1	R1341T
3609.178	1.034	1292027	WORD_OFF	n/a	n/a	VEST	8	20	[0, 0, 0]	n/a	FR1	1	R1341T
3610.212	1.633	1293061	WORD	n/a	wordpools/wordpool_EN.txt	FOOT	9	20	[0, 0, 0]	n/a	FR1	1	R1341T
3611.845	0.869	1294694	WORD_OFF	n/a	n/a	FOOT	9	20	[0, 0, 0]	n/a	FR1	1	R1341T
3612.714	1.631	1295563	WORD	n/a	wordpools/wordpool_EN.txt	MOTH	10	20	[0, 0, 0]	n/a	FR1	1	R1341T
3614.345	1.147	1297194	WORD_OFF	n/a	n/a	MOTH	10	20	[0, 0, 0]	n/a	FR1	1	R1341T
3615.492	1.619	1298341	WORD	n/a	wordpools/wordpool_EN.txt	FOAM	11	20	[0, 0, 0]	n/a	FR1	1	R1341T
3617.111	0.808	1299960	WORD_OFF	n/a	n/a	FOAM	11	20	[0, 0, 0]	n/a	FR1	1	R1341T
3617.919	1.61	1300768	WORD	n/a	wordpools/wordpool_EN.txt	BEAN	12	20	[0, 0, 0]	n/a	FR1	1	R1341T
3619.529	0.001	1302378	WORD_OFF	n/a	n/a	BEAN	12	20	[0, 0, 0]	n/a	FR1	1	R1341T
3619.53	0.0	1302379	DISTRACT_START	n/a	n/a	n/a	-999	20	[0, 0, 0]	n/a	FR1	1	R1341T
3619.53	0.0	1302379	ENCODING_END	n/a	n/a	n/a	-999	20	[0, 0, 0]	n/a	FR1	1	R1341T
3619.53	0.016	1302379	START	n/a	n/a	n/a	-999	21	[-999, -999, -999]	n/a	FR1	1	R1341T
3619.546	6.135	1302395	PROB	6.135	n/a	n/a	-999	21	[4, 3, 6]	13	FR1	1	R1341T
3625.681	2.667	1308530	PROB	2.667	n/a	n/a	-999	21	[1, 9, 8]	18	FR1	1	R1341T
3628.348	1.833	1311196	PROB	1.833	n/a	n/a	-999	21	[5, 1, 5]	11	FR1	1	R1341T
3630.181	7.851	1313029	PROB	7.851	n/a	n/a	-999	21	[9, 8, 4]	21	FR1	1	R1341T
3638.032	5.22	1320880	PROB	5.22	n/a	n/a	-999	21	[3, 6, 5]	14	FR1	1	R1341T
3643.252	0.015	1326100	STOP	n/a	n/a	n/a	-999	21	[-999, -999, -999]	n/a	FR1	1	R1341T
3643.267	0.6	1326115	DISTRACT_END	n/a	n/a	n/a	-999	20	[0, 0, 0]	n/a	FR1	1	R1341T
3643.867	1.684	1326715	RETRIEVAL_ORIENT_START	n/a	n/a	n/a	-999	20	[0, 0, 0]	n/a	FR1	1	R1341T
3645.551	0.0	1328399	RETRIEVAL_ORIENT_END	n/a	n/a	n/a	-999	20	[0, 0, 0]	n/a	FR1	1	R1341T
3645.551	2.291	1328399	REC_START	n/a	n/a	n/a	-999	20	[0, 0, 0]	n/a	FR1	1	R1341T
3647.842	0.798	1330690	REC_WORD	0.798	n/a	BATH	1	20	[0, 0, 0]	n/a	FR1	1	R1341T
3648.64	4.184	1331488	REC_WORD	4.184	n/a	EEL	7	20	[0, 0, 0]	n/a	FR1	1	R1341T
3652.824	22.738	1335671	REC_WORD	22.738	n/a	PEN	6	20	[0, 0, 0]	n/a	FR1	1	R1341T
3675.562	0.0	1358408	TRIAL_END	n/a	n/a	n/a	-999	20	[0, 0, 0]	n/a	FR1	1	R1341T
3675.562	0.017	1358408	REC_END	n/a	n/a	n/a	-999	20	[0, 0, 0]	n/a	FR1	1	R1341T
3675.579	0.0	1358425	TRIAL_START	n/a	n/a	n/a	-999	21	[0, 0, 0]	n/a	FR1	1	R1341T
3675.579	0.0	1358425	TRIAL	n/a	n/a	n/a	-999	21	[0, 0, 0]	n/a	FR1	1	R1341T
3675.579	2.211	1358425	WAITING_START	n/a	n/a	n/a	-999	21	[0, 0, 0]	n/a	FR1	1	R1341T
3677.79	0.001	1360636	WAITING_END	n/a	n/a	n/a	-999	21	[0, 0, 0]	n/a	FR1	1	R1341T
3677.791	10.428	1360637	COUNTDOWN_START	n/a	n/a	n/a	-999	21	[0, 0, 0]	n/a	FR1	1	R1341T
3688.219	0.001	1371065	COUNTDOWN_END	n/a	n/a	n/a	-999	21	[0, 0, 0]	n/a	FR1	1	R1341T
3688.22	1.055	1371066	ORIENT_START	n/a	n/a	n/a	-999	21	[0, 0, 0]	n/a	FR1	1	R1341T
3689.275	0.001	1372121	ORIENT_END	n/a	n/a	n/a	-999	21	[0, 0, 0]	n/a	FR1	1	R1341T
3689.276	0.872	1372122	ENCODING_START	n/a	n/a	n/a	-999	21	[0, 0, 0]	n/a	FR1	1	R1341T
3690.148	1.628	1372994	WORD	n/a	wordpools/wordpool_EN.txt	PRINCE	1	21	[0, 0, 0]	n/a	FR1	1	R1341T
3691.776	0.829	1374622	WORD_OFF	n/a	n/a	PRINCE	1	21	[0, 0, 0]	n/a	FR1	1	R1341T
3692.605	1.622	1375451	WORD	n/a	wordpools/wordpool_EN.txt	DESK	2	21	[0, 0, 0]	n/a	FR1	1	R1341T
3694.227	0.798	1377073	WORD_OFF	n/a	n/a	DESK	2	21	[0, 0, 0]	n/a	FR1	1	R1341T
3695.025	1.618	1377871	WORD	n/a	wordpools/wordpool_EN.txt	FAN	3	21	[0, 0, 0]	n/a	FR1	1	R1341T
3696.643	0.954	1379489	WORD_OFF	n/a	n/a	FAN	3	21	[0, 0, 0]	n/a	FR1	1	R1341T
3697.597	1.63	1380442	WORD	n/a	wordpools/wordpool_EN.txt	STOOL	4	21	[0, 0, 0]	n/a	FR1	1	R1341T
3699.227	1.043	1382072	WORD_OFF	n/a	n/a	STOOL	4	21	[0, 0, 0]	n/a	FR1	1	R1341T
3700.27	1.624	1383115	WORD	n/a	wordpools/wordpool_EN.txt	STAIR	5	21	[0, 0, 0]	n/a	FR1	1	R1341T
3701.894	1.033	1384739	WORD_OFF	n/a	n/a	STAIR	5	21	[0, 0, 0]	n/a	FR1	1	R1341T
3702.927	1.635	1385772	WORD	n/a	wordpools/wordpool_EN.txt	BADGE	6	21	[0, 0, 0]	n/a	FR1	1	R1341T
3704.562	0.767	1387407	WORD_OFF	n/a	n/a	BADGE	6	21	[0, 0, 0]	n/a	FR1	1	R1341T
3705.329	1.632	1388174	WORD	n/a	wordpools/wordpool_EN.txt	RUG	7	21	[0, 0, 0]	n/a	FR1	1	R1341T
3706.961	1.008	1389806	WORD_OFF	n/a	n/a	RUG	7	21	[0, 0, 0]	n/a	FR1	1	R1341T
3707.969	1.61	1390814	WORD	n/a	wordpools/wordpool_EN.txt	SHRIMP	8	21	[0, 0, 0]	n/a	FR1	1	R1341T
3709.579	1.047	1392424	WORD_OFF	n/a	n/a	SHRIMP	8	21	[0, 0, 0]	n/a	FR1	1	R1341T
3710.626	1.637	1393471	WORD	n/a	wordpools/wordpool_EN.txt	FLUTE	9	21	[0, 0, 0]	n/a	FR1	1	R1341T
3712.263	0.973	1395108	WORD_OFF	n/a	n/a	FLUTE	9	21	[0, 0, 0]	n/a	FR1	1	R1341T
3713.236	1.628	1396081	WORD	n/a	wordpools/wordpool_EN.txt	BOWL	10	21	[0, 0, 0]	n/a	FR1	1	R1341T
3714.864	1.047	1397709	WORD_OFF	n/a	n/a	BOWL	10	21	[0, 0, 0]	n/a	FR1	1	R1341T
3715.911	1.62	1398756	WORD	n/a	wordpools/wordpool_EN.txt	CHALK	11	21	[0, 0, 0]	n/a	FR1	1	R1341T
3717.531	1.145	1400376	WORD_OFF	n/a	n/a	CHALK	11	21	[0, 0, 0]	n/a	FR1	1	R1341T
3718.676	1.622	1401521	WORD	n/a	wordpools/wordpool_EN.txt	LAMB	12	21	[0, 0, 0]	n/a	FR1	1	R1341T
3720.298	0.001	1403142	WORD_OFF	n/a	n/a	LAMB	12	21	[0, 0, 0]	n/a	FR1	1	R1341T
3720.299	0.0	1403143	ENCODING_END	n/a	n/a	n/a	-999	21	[0, 0, 0]	n/a	FR1	1	R1341T
3720.299	0.0	1403143	DISTRACT_START	n/a	n/a	n/a	-999	21	[0, 0, 0]	n/a	FR1	1	R1341T
3720.299	0.015	1403143	START	n/a	n/a	n/a	-999	22	[-999, -999, -999]	n/a	FR1	1	R1341T
3720.314	6.368	1403158	PROB	6.368	n/a	n/a	-999	22	[7, 1, 6]	14	FR1	1	R1341T
3726.682	8.552	1409526	PROB	8.552	n/a	n/a	-999	22	[1, 5, 5]	11	FR1	1	R1341T
3735.234	4.367	1418078	PROB	4.367	n/a	n/a	-999	22	[4, 9, 5]	18	FR1	1	R1341T
3739.601	2.466	1422445	PROB	2.466	n/a	n/a	-999	22	[3, 3, 1]	7	FR1	1	R1341T
3742.067	0.017	1424911	STOP	n/a	n/a	n/a	-999	22	[-999, -999, -999]	n/a	FR1	1	R1341T
3742.084	0.534	1424928	DISTRACT_END	n/a	n/a	n/a	-999	21	[0, 0, 0]	n/a	FR1	1	R1341T
3742.618	1.584	1425462	RETRIEVAL_ORIENT_START	n/a	n/a	n/a	-999	21	[0, 0, 0]	n/a	FR1	1	R1341T
3744.202	0.001	1427045	RETRIEVAL_ORIENT_END	n/a	n/a	n/a	-999	21	[0, 0, 0]	n/a	FR1	1	R1341T
3744.203	5.271	1427046	REC_START	n/a	n/a	n/a	-999	21	[0, 0, 0]	n/a	FR1	1	R1341T
3749.474	0.604	1432317	REC_WORD	0.604	n/a	BADGE	6	21	[0, 0, 0]	n/a	FR1	1	R1341T
3750.078	0.737	1432921	REC_WORD	0.737	n/a	PRINCE	1	21	[0, 0, 0]	n/a	FR1	1	R1341T
3750.815	23.397	1433658	REC_WORD	23.397	n/a	DESK	2	21	[0, 0, 0]	n/a	FR1	1	R1341T
3774.212	0.0	1457054	REC_END	n/a	n/a	n/a	-999	21	[0, 0, 0]	n/a	FR1	1	R1341T
3774.212	0.018	1457054	TRIAL_END	n/a	n/a	n/a	-999	21	[0, 0, 0]	n/a	FR1	1	R1341T
3774.23	0.0	1457072	TRIAL	n/a	n/a	n/a	-999	22	[0, 0, 0]	n/a	FR1	1	R1341T
3774.23	0.0	1457072	WAITING_START	n/a	n/a	n/a	-999	22	[0, 0, 0]	n/a	FR1	1	R1341T
3774.23	3.012	1457072	TRIAL_START	n/a	n/a	n/a	-999	22	[0, 0, 0]	n/a	FR1	1	R1341T
3777.242	0.0	1460084	WAITING_END	n/a	n/a	n/a	-999	22	[0, 0, 0]	n/a	FR1	1	R1341T
3777.242	10.428	1460084	COUNTDOWN_START	n/a	n/a	n/a	-999	22	[0, 0, 0]	n/a	FR1	1	R1341T
3787.67	0.0	1470512	COUNTDOWN_END	n/a	n/a	n/a	-999	22	[0, 0, 0]	n/a	FR1	1	R1341T
3787.67	1.19	1470512	ORIENT_START	n/a	n/a	n/a	-999	22	[0, 0, 0]	n/a	FR1	1	R1341T
3788.86	0.001	1471702	ORIENT_END	n/a	n/a	n/a	-999	22	[0, 0, 0]	n/a	FR1	1	R1341T
3788.861	0.99	1471703	ENCODING_START	n/a	n/a	n/a	-999	22	[0, 0, 0]	n/a	FR1	1	R1341T
3789.851	1.627	1472692	WORD	n/a	wordpools/wordpool_EN.txt	TIE	1	22	[0, 0, 0]	n/a	FR1	1	R1341T
3791.478	1.058	1474319	WORD_OFF	n/a	n/a	TIE	1	22	[0, 0, 0]	n/a	FR1	1	R1341T
3792.536	1.624	1475377	WORD	n/a	wordpools/wordpool_EN.txt	CAR	2	22	[0, 0, 0]	n/a	FR1	1	R1341T
3794.16	0.972	1477001	WORD_OFF	n/a	n/a	CAR	2	22	[0, 0, 0]	n/a	FR1	1	R1341T
3795.132	1.63	1477973	WORD	n/a	wordpools/wordpool_EN.txt	POLE	3	22	[0, 0, 0]	n/a	FR1	1	R1341T
3796.762	1.011	1479603	WORD_OFF	n/a	n/a	POLE	3	22	[0, 0, 0]	n/a	FR1	1	R1341T
3797.773	1.623	1480614	WORD	n/a	wordpools/wordpool_EN.txt	WHALE	4	22	[0, 0, 0]	n/a	FR1	1	R1341T
3799.396	0.843	1482237	WORD_OFF	n/a	n/a	WHALE	4	22	[0, 0, 0]	n/a	FR1	1	R1341T
3800.239	1.624	1483080	WORD	n/a	wordpools/wordpool_EN.txt	LAND	5	22	[0, 0, 0]	n/a	FR1	1	R1341T
3801.863	1.041	1484704	WORD_OFF	n/a	n/a	LAND	5	22	[0, 0, 0]	n/a	FR1	1	R1341T
3802.904	1.626	1485745	WORD	n/a	wordpools/wordpool_EN.txt	JUDGE	6	22	[0, 0, 0]	n/a	FR1	1	R1341T
3804.53	1.02	1487371	WORD_OFF	n/a	n/a	JUDGE	6	22	[0, 0, 0]	n/a	FR1	1	R1341T
3805.55	1.63	1488391	WORD	n/a	wordpools/wordpool_EN.txt	SHOE	7	22	[0, 0, 0]	n/a	FR1	1	R1341T
3807.18	0.924	1490021	WORD_OFF	n/a	n/a	SHOE	7	22	[0, 0, 0]	n/a	FR1	1	R1341T
3808.104	1.627	1490945	WORD	n/a	wordpools/wordpool_EN.txt	SALT	8	22	[0, 0, 0]	n/a	FR1	1	R1341T
3809.731	0.931	1492572	WORD_OFF	n/a	n/a	SALT	8	22	[0, 0, 0]	n/a	FR1	1	R1341T
3810.662	1.636	1493503	WORD	n/a	wordpools/wordpool_EN.txt	SUN	9	22	[0, 0, 0]	n/a	FR1	1	R1341T
3812.298	1.071	1495138	WORD_OFF	n/a	n/a	SUN	9	22	[0, 0, 0]	n/a	FR1	1	R1341T
3813.369	1.628	1496209	WORD	n/a	wordpools/wordpool_EN.txt	BAT	10	22	[0, 0, 0]	n/a	FR1	1	R1341T
3814.997	0.958	1497837	WORD_OFF	n/a	n/a	BAT	10	22	[0, 0, 0]	n/a	FR1	1	R1341T
3815.955	1.611	1498795	WORD	n/a	wordpools/wordpool_EN.txt	TANK	11	22	[0, 0, 0]	n/a	FR1	1	R1341T
3817.566	0.954	1500406	WORD_OFF	n/a	n/a	TANK	11	22	[0, 0, 0]	n/a	FR1	1	R1341T
3818.52	1.628	1501360	WORD	n/a	wordpools/wordpool_EN.txt	SEAT	12	22	[0, 0, 0]	n/a	FR1	1	R1341T
3820.148	0.001	1502988	WORD_OFF	n/a	n/a	SEAT	12	22	[0, 0, 0]	n/a	FR1	1	R1341T
3820.149	0.0	1502989	ENCODING_END	n/a	n/a	n/a	-999	22	[0, 0, 0]	n/a	FR1	1	R1341T
3820.149	0.0	1502989	DISTRACT_START	n/a	n/a	n/a	-999	22	[0, 0, 0]	n/a	FR1	1	R1341T
3820.149	0.016	1502989	START	n/a	n/a	n/a	-999	23	[-999, -999, -999]	n/a	FR1	1	R1341T
3820.165	35.872	1503005	PROB	35.872	n/a	n/a	-999	23	[6, 9, 4]	19	FR1	1	R1341T
3856.037	0.018	1538876	STOP	n/a	n/a	n/a	-999	23	[-999, -999, -999]	n/a	FR1	1	R1341T
3856.055	0.674	1538894	DISTRACT_END	n/a	n/a	n/a	-999	22	[0, 0, 0]	n/a	FR1	1	R1341T
3856.729	1.577	1539568	RETRIEVAL_ORIENT_START	n/a	n/a	n/a	-999	22	[0, 0, 0]	n/a	FR1	1	R1341T
3858.306	0.001	1541144	RETRIEVAL_ORIENT_END	n/a	n/a	n/a	-999	22	[0, 0, 0]	n/a	FR1	1	R1341T
3858.307	1.348	1541145	REC_START	n/a	n/a	n/a	-999	22	[0, 0, 0]	n/a	FR1	1	R1341T
3859.655	0.849	1542493	REC_WORD	0.849	n/a	CAR	2	22	[0, 0, 0]	n/a	FR1	1	R1341T
3860.504	0.92	1543342	REC_WORD	0.92	n/a	POLE	3	22	[0, 0, 0]	n/a	FR1	1	R1341T
3861.424	0.766	1544262	REC_WORD	0.766	n/a	WHALE	4	22	[0, 0, 0]	n/a	FR1	1	R1341T
