onset	duration	sample	trial_type	response_time	stim_file	item_name	serialpos	list	test	answer	experiment	session	subject
0.0	36.489	86603	SESS_START	n/a	n/a	n/a	-999	-999	[0, 0, 0]	n/a	FR1	0	R1198M
36.489	10.428	104846	COUNTDOWN_START	n/a	n/a	n/a	-999	-999	[0, 0, 0]	n/a	FR1	0	R1198M
46.917	3.824	110060	COUNTDOWN_END	n/a	n/a	n/a	-999	-999	[0, 0, 0]	n/a	FR1	0	R1198M
50.741	2.618	111972	PRACTICE_WORD	n/a	n/a	ATTIC	1	-1	[0, 0, 0]	n/a	FR1	0	R1198M
53.359	2.517	113280	PRACTICE_WORD	n/a	n/a	RING	2	-1	[0, 0, 0]	n/a	FR1	0	R1198M
55.876	2.584	114539	PRACTICE_WORD	n/a	n/a	WAGON	3	-1	[0, 0, 0]	n/a	FR1	0	R1198M
58.46	2.517	115831	PRACTICE_WORD	n/a	n/a	IRON	4	-1	[0, 0, 0]	n/a	FR1	0	R1198M
60.977	2.45	117089	PRACTICE_WORD	n/a	n/a	TONGUE	5	-1	[0, 0, 0]	n/a	FR1	0	R1198M
63.427	2.5	118314	PRACTICE_WORD	n/a	n/a	CAMEL	6	-1	[0, 0, 0]	n/a	FR1	0	R1198M
65.927	2.551	119564	PRACTICE_WORD	n/a	n/a	COTTON	7	-1	[0, 0, 0]	n/a	FR1	0	R1198M
68.478	2.484	120839	PRACTICE_WORD	n/a	n/a	RHINO	8	-1	[0, 0, 0]	n/a	FR1	0	R1198M
70.962	2.434	122081	PRACTICE_WORD	n/a	n/a	CHEST	9	-1	[0, 0, 0]	n/a	FR1	0	R1198M
73.396	2.417	123298	PRACTICE_WORD	n/a	n/a	BEAM	10	-1	[0, 0, 0]	n/a	FR1	0	R1198M
75.813	2.4	124507	PRACTICE_WORD	n/a	n/a	FLOOD	11	-1	[0, 0, 0]	n/a	FR1	0	R1198M
78.213	1.617	125707	PRACTICE_WORD	n/a	n/a	WATCH	12	-1	[0, 0, 0]	n/a	FR1	0	R1198M
79.83	0.001	126515	PRACTICE_DISTRACT_START	n/a	n/a	n/a	-999	-1	[0, 0, 0]	n/a	FR1	0	R1198M
79.831	0.016	126516	START	n/a	n/a	n/a	-999	-1	[-999, -999, -999]	n/a	FR1	0	R1198M
79.847	16.02	126524	PROB	16.02	n/a	n/a	-999	-1	[3, 6, 9]	18	FR1	0	R1198M
95.867	16.507	134533	PROB	16.507	n/a	n/a	-999	-1	[2, 7, 5]	14	FR1	0	R1198M
112.374	0.013	142786	STOP	n/a	n/a	n/a	-999	-1	[-999, -999, -999]	n/a	FR1	0	R1198M
112.387	0.552	142792	PRACTICE_DISTRACT_END	n/a	n/a	n/a	-999	-1	[0, 0, 0]	n/a	FR1	0	R1198M
112.939	30.515	143068	PRACTICE_REC_START	n/a	n/a	n/a	-999	-1	[0, 0, 0]	n/a	FR1	0	R1198M
143.454	60.384	158325	PRACTICE_REC_END	n/a	n/a	n/a	-999	-1	[0, 0, 0]	n/a	FR1	0	R1198M
203.838	0.0	188515	TRIAL	n/a	n/a	n/a	-999	1	[0, 0, 0]	n/a	FR1	0	R1198M
203.838	10.428	188515	COUNTDOWN_START	n/a	n/a	n/a	-999	1	[0, 0, 0]	n/a	FR1	0	R1198M
214.266	0.007	193728	COUNTDOWN_END	n/a	n/a	n/a	-999	1	[0, 0, 0]	n/a	FR1	0	R1198M
214.273	2.484	193732	ORIENT	n/a	n/a	n/a	-999	1	[0, 0, 0]	n/a	FR1	0	R1198M
216.757	2.433	194974	WORD	n/a	wordpools/wordpool_EN.txt	STORM	1	1	[0, 0, 0]	n/a	FR1	0	R1198M
219.19	2.434	196190	WORD	n/a	wordpools/wordpool_EN.txt	FOAM	2	1	[0, 0, 0]	n/a	FR1	0	R1198M
221.624	2.618	197407	WORD	n/a	wordpools/wordpool_EN.txt	STRAW	3	1	[0, 0, 0]	n/a	FR1	0	R1198M
224.242	2.6	198716	WORD	n/a	wordpools/wordpool_EN.txt	TRASH	4	1	[0, 0, 0]	n/a	FR1	0	R1198M
226.842	2.417	200016	WORD	n/a	wordpools/wordpool_EN.txt	CLIFF	5	1	[0, 0, 0]	n/a	FR1	0	R1198M
229.259	2.534	201224	WORD	n/a	wordpools/wordpool_EN.txt	STAIR	6	1	[0, 0, 0]	n/a	FR1	0	R1198M
231.793	2.551	202491	WORD	n/a	wordpools/wordpool_EN.txt	GLASS	7	1	[0, 0, 0]	n/a	FR1	0	R1198M
234.344	2.45	203767	WORD	n/a	wordpools/wordpool_EN.txt	WHALE	8	1	[0, 0, 0]	n/a	FR1	0	R1198M
236.794	2.6	204992	WORD	n/a	wordpools/wordpool_EN.txt	BRICK	9	1	[0, 0, 0]	n/a	FR1	0	R1198M
239.394	2.618	206292	WORD	n/a	wordpools/wordpool_EN.txt	SMOKE	10	1	[0, 0, 0]	n/a	FR1	0	R1198M
242.012	2.517	207601	WORD	n/a	wordpools/wordpool_EN.txt	ROPE	11	1	[0, 0, 0]	n/a	FR1	0	R1198M
244.529	1.617	208859	WORD	n/a	wordpools/wordpool_EN.txt	ROCK	12	1	[0, 0, 0]	n/a	FR1	0	R1198M
246.146	0.001	209667	DISTRACT_START	n/a	n/a	n/a	-999	1	[0, 0, 0]	n/a	FR1	0	R1198M
246.147	0.016	209668	START	n/a	n/a	n/a	-999	1	[-999, -999, -999]	n/a	FR1	0	R1198M
246.163	24.003	209676	PROB	24.003	n/a	n/a	-999	1	[4, 5, 2]	10	FR1	0	R1198M
270.166	0.018	221677	STOP	n/a	n/a	n/a	-999	1	[-999, -999, -999]	n/a	FR1	0	R1198M
270.184	1.054	221686	DISTRACT_END	n/a	n/a	n/a	-999	1	[0, 0, 0]	n/a	FR1	0	R1198M
271.238	8.194	222213	REC_START	n/a	n/a	n/a	-999	1	[0, 0, 0]	n/a	FR1	0	R1198M
279.432	21.813	226309	REC_WORD	21.813	n/a	STORM	1	1	[0, 0, 0]	n/a	FR1	0	R1198M
301.245	6.729	237215	REC_END	n/a	n/a	n/a	-999	1	[0, 0, 0]	n/a	FR1	0	R1198M
307.974	0.001	240579	COUNTDOWN_START	n/a	n/a	n/a	-999	2	[0, 0, 0]	n/a	FR1	0	R1198M
307.975	10.427	240580	TRIAL	n/a	n/a	n/a	-999	2	[0, 0, 0]	n/a	FR1	0	R1198M
318.402	0.008	245793	COUNTDOWN_END	n/a	n/a	n/a	-999	2	[0, 0, 0]	n/a	FR1	0	R1198M
318.41	2.6	245797	ORIENT	n/a	n/a	n/a	-999	2	[0, 0, 0]	n/a	FR1	0	R1198M
321.01	2.5	247097	WORD	n/a	wordpools/wordpool_EN.txt	TENT	1	2	[0, 0, 0]	n/a	FR1	0	R1198M
323.51	2.451	248347	WORD	n/a	wordpools/wordpool_EN.txt	STOOL	2	2	[0, 0, 0]	n/a	FR1	0	R1198M
325.961	2.584	249572	WORD	n/a	wordpools/wordpool_EN.txt	HORN	3	2	[0, 0, 0]	n/a	FR1	0	R1198M
328.545	2.551	250864	WORD	n/a	wordpools/wordpool_EN.txt	SHIRT	4	2	[0, 0, 0]	n/a	FR1	0	R1198M
331.096	2.533	252140	WORD	n/a	wordpools/wordpool_EN.txt	YARD	5	2	[0, 0, 0]	n/a	FR1	0	R1198M
333.629	2.468	253406	WORD	n/a	wordpools/wordpool_EN.txt	BOWL	6	2	[0, 0, 0]	n/a	FR1	0	R1198M
336.097	2.583	254640	WORD	n/a	wordpools/wordpool_EN.txt	SEAT	7	2	[0, 0, 0]	n/a	FR1	0	R1198M
338.68	2.484	255931	WORD	n/a	wordpools/wordpool_EN.txt	SLUSH	8	2	[0, 0, 0]	n/a	FR1	0	R1198M
341.164	2.501	257173	WORD	n/a	wordpools/wordpool_EN.txt	CHALK	9	2	[0, 0, 0]	n/a	FR1	0	R1198M
343.665	2.566	258424	WORD	n/a	wordpools/wordpool_EN.txt	PLATE	10	2	[0, 0, 0]	n/a	FR1	0	R1198M
346.231	2.484	259706	WORD	n/a	wordpools/wordpool_EN.txt	PANTS	11	2	[0, 0, 0]	n/a	FR1	0	R1198M
348.715	1.618	260948	WORD	n/a	wordpools/wordpool_EN.txt	BAND	12	2	[0, 0, 0]	n/a	FR1	0	R1198M
350.333	0.0	261757	DISTRACT_START	n/a	n/a	n/a	-999	2	[0, 0, 0]	n/a	FR1	0	R1198M
350.333	0.016	261757	START	n/a	n/a	n/a	-999	2	[-999, -999, -999]	n/a	FR1	0	R1198M
350.349	16.92	261765	PROB	16.92	n/a	n/a	-999	2	[9, 1, 1]	11	FR1	0	R1198M
367.269	13.896	270225	PROB	13.896	n/a	n/a	-999	2	[8, 4, 5]	17	FR1	0	R1198M
381.165	0.007	277172	STOP	n/a	n/a	n/a	-999	2	[-999, -999, -999]	n/a	FR1	0	R1198M
381.172	1.117	277176	DISTRACT_END	n/a	n/a	n/a	-999	2	[0, 0, 0]	n/a	FR1	0	R1198M
382.289	7.897	277734	REC_START	n/a	n/a	n/a	-999	2	[0, 0, 0]	n/a	FR1	0	R1198M
390.186	1.091	281682	REC_WORD	1.091	n/a	TENT	1	2	[0, 0, 0]	n/a	FR1	0	R1198M
391.277	0.949	282228	REC_WORD	0.949	n/a	YARD	5	2	[0, 0, 0]	n/a	FR1	0	R1198M
392.226	1.474	282702	REC_WORD	1.474	n/a	STOOL	2	2	[0, 0, 0]	n/a	FR1	0	R1198M
393.7	1.189	283439	REC_WORD	1.189	n/a	BOY	-999	2	[0, 0, 0]	n/a	FR1	0	R1198M
394.889	1.822	284034	REC_WORD	1.822	n/a	SHIRT	4	2	[0, 0, 0]	n/a	FR1	0	R1198M
396.711	15.005	284945	REC_WORD	15.005	n/a	PLATE	10	2	[0, 0, 0]	n/a	FR1	0	R1198M
411.716	0.588	292447	REC_WORD	0.588	n/a	PANTS	11	2	[0, 0, 0]	n/a	FR1	0	R1198M
412.304	17.06	292741	REC_END	n/a	n/a	n/a	-999	2	[0, 0, 0]	n/a	FR1	0	R1198M
429.364	0.001	301270	COUNTDOWN_START	n/a	n/a	n/a	-999	3	[0, 0, 0]	n/a	FR1	0	R1198M
429.365	10.427	301271	TRIAL	n/a	n/a	n/a	-999	3	[0, 0, 0]	n/a	FR1	0	R1198M
439.792	0.008	306484	COUNTDOWN_END	n/a	n/a	n/a	-999	3	[0, 0, 0]	n/a	FR1	0	R1198M
439.8	2.6	306488	ORIENT	n/a	n/a	n/a	-999	3	[0, 0, 0]	n/a	FR1	0	R1198M
442.4	2.551	307788	WORD	n/a	wordpools/wordpool_EN.txt	JUDGE	1	3	[0, 0, 0]	n/a	FR1	0	R1198M
444.951	2.434	309063	WORD	n/a	wordpools/wordpool_EN.txt	KEY	2	3	[0, 0, 0]	n/a	FR1	0	R1198M
447.385	2.567	310280	WORD	n/a	wordpools/wordpool_EN.txt	BOY	3	3	[0, 0, 0]	n/a	FR1	0	R1198M
449.952	2.483	311563	WORD	n/a	wordpools/wordpool_EN.txt	DESK	4	3	[0, 0, 0]	n/a	FR1	0	R1198M
452.435	2.518	312805	WORD	n/a	wordpools/wordpool_EN.txt	CASH	5	3	[0, 0, 0]	n/a	FR1	0	R1198M
454.953	2.517	314064	WORD	n/a	wordpools/wordpool_EN.txt	FLAG	6	3	[0, 0, 0]	n/a	FR1	0	R1198M
457.47	2.517	315322	WORD	n/a	wordpools/wordpool_EN.txt	BADGE	7	3	[0, 0, 0]	n/a	FR1	0	R1198M
459.987	2.5	316581	WORD	n/a	wordpools/wordpool_EN.txt	ROOM	8	3	[0, 0, 0]	n/a	FR1	0	R1198M
462.487	2.517	317831	WORD	n/a	wordpools/wordpool_EN.txt	CAR	9	3	[0, 0, 0]	n/a	FR1	0	R1198M
465.004	2.568	319089	WORD	n/a	wordpools/wordpool_EN.txt	SIGN	10	3	[0, 0, 0]	n/a	FR1	0	R1198M
467.572	2.484	320373	WORD	n/a	wordpools/wordpool_EN.txt	ARK	11	3	[0, 0, 0]	n/a	FR1	0	R1198M
470.056	1.616	321615	WORD	n/a	wordpools/wordpool_EN.txt	PIE	12	3	[0, 0, 0]	n/a	FR1	0	R1198M
471.672	0.001	322423	DISTRACT_START	n/a	n/a	n/a	-999	3	[0, 0, 0]	n/a	FR1	0	R1198M
471.673	0.016	322423	START	n/a	n/a	n/a	-999	3	[-999, -999, -999]	n/a	FR1	0	R1198M
471.689	14.053	322431	PROB	14.053	n/a	n/a	-999	3	[5, 7, 6]	18	FR1	0	R1198M
485.742	13.863	329457	PROB	13.863	n/a	n/a	-999	3	[3, 5, 8]	16	FR1	0	R1198M
499.605	0.006	336388	STOP	n/a	n/a	n/a	-999	3	[-999, -999, -999]	n/a	FR1	0	R1198M
499.611	1.102	336391	DISTRACT_END	n/a	n/a	n/a	-999	3	[0, 0, 0]	n/a	FR1	0	R1198M
500.713	2.023	336942	REC_START	n/a	n/a	n/a	-999	3	[0, 0, 0]	n/a	FR1	0	R1198M
502.736	1.207	337954	REC_WORD	1.207	n/a	JUDGE	1	3	[0, 0, 0]	n/a	FR1	0	R1198M
503.943	1.996	338557	REC_WORD	1.996	n/a	KEY	2	3	[0, 0, 0]	n/a	FR1	0	R1198M
505.939	3.438	339555	REC_WORD	3.438	n/a	BOY	3	3	[0, 0, 0]	n/a	FR1	0	R1198M
509.377	4.525	341274	REC_WORD	4.525	n/a	DESK	4	3	[0, 0, 0]	n/a	FR1	0	R1198M
513.902	2.431	343536	REC_WORD	2.431	n/a	FLAG	6	3	[0, 0, 0]	n/a	FR1	0	R1198M
516.333	3.667	344752	REC_WORD	3.667	n/a	BADGE	7	3	[0, 0, 0]	n/a	FR1	0	R1198M
520.0	10.722	346585	REC_WORD	10.722	n/a	CAR	9	3	[0, 0, 0]	n/a	FR1	0	R1198M
530.722	24.733	351946	REC_END	n/a	n/a	n/a	-999	3	[0, 0, 0]	n/a	FR1	0	R1198M
555.455	0.0	364311	TRIAL	n/a	n/a	n/a	-999	4	[0, 0, 0]	n/a	FR1	0	R1198M
555.455	10.428	364311	COUNTDOWN_START	n/a	n/a	n/a	-999	4	[0, 0, 0]	n/a	FR1	0	R1198M
565.883	0.008	369525	COUNTDOWN_END	n/a	n/a	n/a	-999	4	[0, 0, 0]	n/a	FR1	0	R1198M
565.891	2.533	369529	ORIENT	n/a	n/a	n/a	-999	4	[0, 0, 0]	n/a	FR1	0	R1198M
568.424	2.384	370795	WORD	n/a	wordpools/wordpool_EN.txt	HOLE	1	4	[0, 0, 0]	n/a	FR1	0	R1198M
570.808	2.567	371987	WORD	n/a	wordpools/wordpool_EN.txt	BED	2	4	[0, 0, 0]	n/a	FR1	0	R1198M
573.375	2.434	373271	WORD	n/a	wordpools/wordpool_EN.txt	TRAIN	3	4	[0, 0, 0]	n/a	FR1	0	R1198M
575.809	2.467	374488	WORD	n/a	wordpools/wordpool_EN.txt	CART	4	4	[0, 0, 0]	n/a	FR1	0	R1198M
578.276	2.567	375721	WORD	n/a	wordpools/wordpool_EN.txt	MAT	5	4	[0, 0, 0]	n/a	FR1	0	R1198M
580.843	2.618	377004	WORD	n/a	wordpools/wordpool_EN.txt	MAZE	6	4	[0, 0, 0]	n/a	FR1	0	R1198M
583.461	2.383	378313	WORD	n/a	wordpools/wordpool_EN.txt	HAT	7	4	[0, 0, 0]	n/a	FR1	0	R1198M
585.844	2.618	379505	WORD	n/a	wordpools/wordpool_EN.txt	PARK	8	4	[0, 0, 0]	n/a	FR1	0	R1198M
588.462	2.417	380814	WORD	n/a	wordpools/wordpool_EN.txt	TRUCK	9	4	[0, 0, 0]	n/a	FR1	0	R1198M
590.879	2.383	382022	WORD	n/a	wordpools/wordpool_EN.txt	SQUARE	10	4	[0, 0, 0]	n/a	FR1	0	R1198M
593.262	2.518	383214	WORD	n/a	wordpools/wordpool_EN.txt	PRINCE	11	4	[0, 0, 0]	n/a	FR1	0	R1198M
595.78	1.617	384472	WORD	n/a	wordpools/wordpool_EN.txt	HOOF	12	4	[0, 0, 0]	n/a	FR1	0	R1198M
597.397	0.001	385281	DISTRACT_START	n/a	n/a	n/a	-999	4	[0, 0, 0]	n/a	FR1	0	R1198M
597.398	0.015	385281	START	n/a	n/a	n/a	-999	4	[-999, -999, -999]	n/a	FR1	0	R1198M
597.413	9.769	385289	PROB	9.769	n/a	n/a	-999	4	[7, 2, 1]	10	FR1	0	R1198M
607.182	8.251	390173	PROB	8.251	n/a	n/a	-999	4	[1, 6, 9]	16	FR1	0	R1198M
615.433	10.373	394298	PROB	10.373	n/a	n/a	-999	4	[5, 4, 1]	10	FR1	0	R1198M
625.806	0.013	399484	STOP	n/a	n/a	n/a	-999	4	[-999, -999, -999]	n/a	FR1	0	R1198M
625.819	1.051	399491	DISTRACT_END	n/a	n/a	n/a	-999	4	[0, 0, 0]	n/a	FR1	0	R1198M
626.87	12.017	400016	REC_START	n/a	n/a	n/a	-999	4	[0, 0, 0]	n/a	FR1	0	R1198M
638.887	1.685	406024	REC_WORD	1.685	n/a	BOY	-999	4	[0, 0, 0]	n/a	FR1	0	R1198M
640.572	6.052	406867	REC_WORD	6.052	n/a	CART	4	4	[0, 0, 0]	n/a	FR1	0	R1198M
646.624	10.256	409893	REC_WORD	10.256	n/a	PRINCE	11	4	[0, 0, 0]	n/a	FR1	0	R1198M
656.88	11.047	415020	REC_END	n/a	n/a	n/a	-999	4	[0, 0, 0]	n/a	FR1	0	R1198M
667.927	0.0	420543	COUNTDOWN_START	n/a	n/a	n/a	-999	5	[0, 0, 0]	n/a	FR1	0	R1198M
667.927	10.428	420543	TRIAL	n/a	n/a	n/a	-999	5	[0, 0, 0]	n/a	FR1	0	R1198M
678.355	0.007	425757	COUNTDOWN_END	n/a	n/a	n/a	-999	5	[0, 0, 0]	n/a	FR1	0	R1198M
678.362	2.467	425761	ORIENT	n/a	n/a	n/a	-999	5	[0, 0, 0]	n/a	FR1	0	R1198M
680.829	2.534	426994	WORD	n/a	wordpools/wordpool_EN.txt	DRESS	1	5	[0, 0, 0]	n/a	FR1	0	R1198M
683.363	2.567	428261	WORD	n/a	wordpools/wordpool_EN.txt	LAWN	2	5	[0, 0, 0]	n/a	FR1	0	R1198M
685.93	2.518	429544	WORD	n/a	wordpools/wordpool_EN.txt	BARN	3	5	[0, 0, 0]	n/a	FR1	0	R1198M
688.448	2.4	430803	WORD	n/a	wordpools/wordpool_EN.txt	SCHOOL	4	5	[0, 0, 0]	n/a	FR1	0	R1198M
690.848	2.4	432003	WORD	n/a	wordpools/wordpool_EN.txt	VEST	5	5	[0, 0, 0]	n/a	FR1	0	R1198M
693.248	2.434	433203	WORD	n/a	wordpools/wordpool_EN.txt	MUD	6	5	[0, 0, 0]	n/a	FR1	0	R1198M
695.682	2.417	434420	WORD	n/a	wordpools/wordpool_EN.txt	ROOF	7	5	[0, 0, 0]	n/a	FR1	0	R1198M
698.099	2.568	435628	WORD	n/a	wordpools/wordpool_EN.txt	NOSE	8	5	[0, 0, 0]	n/a	FR1	0	R1198M
700.667	2.45	436912	WORD	n/a	wordpools/wordpool_EN.txt	FACE	9	5	[0, 0, 0]	n/a	FR1	0	R1198M
703.117	2.634	438137	WORD	n/a	wordpools/wordpool_EN.txt	STREET	10	5	[0, 0, 0]	n/a	FR1	0	R1198M
705.751	2.5	439454	WORD	n/a	wordpools/wordpool_EN.txt	SHARK	11	5	[0, 0, 0]	n/a	FR1	0	R1198M
708.251	1.617	440704	WORD	n/a	wordpools/wordpool_EN.txt	CHEEK	12	5	[0, 0, 0]	n/a	FR1	0	R1198M
709.868	0.001	441513	DISTRACT_START	n/a	n/a	n/a	-999	5	[0, 0, 0]	n/a	FR1	0	R1198M
709.869	0.016	441513	START	n/a	n/a	n/a	-999	5	[-999, -999, -999]	n/a	FR1	0	R1198M
709.885	14.869	441521	PROB	14.869	n/a	n/a	-999	5	[2, 7, 3]	12	FR1	0	R1198M
724.754	25.98	448955	PROB	25.98	n/a	n/a	-999	5	[6, 6, 5]	17	FR1	0	R1198M
750.734	0.009	461944	STOP	n/a	n/a	n/a	-999	5	[-999, -999, -999]	n/a	FR1	0	R1198M
750.743	1.134	461949	DISTRACT_END	n/a	n/a	n/a	-999	5	[0, 0, 0]	n/a	FR1	0	R1198M
751.877	8.243	462516	REC_START	n/a	n/a	n/a	-999	5	[0, 0, 0]	n/a	FR1	0	R1198M
760.12	19.114	466637	REC_WORD	19.114	n/a	BOY	-999	5	[0, 0, 0]	n/a	FR1	0	R1198M
779.234	2.654	476193	REC_WORD	2.654	n/a	DRESS	1	5	[0, 0, 0]	n/a	FR1	0	R1198M
781.888	29.483	477520	REC_END	n/a	n/a	n/a	-999	5	[0, 0, 0]	n/a	FR1	0	R1198M
811.371	0.0	492261	TRIAL	n/a	n/a	n/a	-999	6	[0, 0, 0]	n/a	FR1	0	R1198M
811.371	10.428	492261	COUNTDOWN_START	n/a	n/a	n/a	-999	6	[0, 0, 0]	n/a	FR1	0	R1198M
821.799	0.007	497474	COUNTDOWN_END	n/a	n/a	n/a	-999	6	[0, 0, 0]	n/a	FR1	0	R1198M
821.806	2.401	497478	ORIENT	n/a	n/a	n/a	-999	6	[0, 0, 0]	n/a	FR1	0	R1198M
824.207	2.617	498678	WORD	n/a	wordpools/wordpool_EN.txt	MOUTH	1	6	[0, 0, 0]	n/a	FR1	0	R1198M
826.824	2.501	499987	WORD	n/a	wordpools/wordpool_EN.txt	DOLL	2	6	[0, 0, 0]	n/a	FR1	0	R1198M
829.325	2.417	501237	WORD	n/a	wordpools/wordpool_EN.txt	SEAL	3	6	[0, 0, 0]	n/a	FR1	0	R1198M
831.742	2.617	502445	WORD	n/a	wordpools/wordpool_EN.txt	WEED	4	6	[0, 0, 0]	n/a	FR1	0	R1198M
834.359	2.55	503754	WORD	n/a	wordpools/wordpool_EN.txt	CLOWN	5	6	[0, 0, 0]	n/a	FR1	0	R1198M
836.909	2.434	505029	WORD	n/a	wordpools/wordpool_EN.txt	TIE	6	6	[0, 0, 0]	n/a	FR1	0	R1198M
839.343	2.567	506246	WORD	n/a	wordpools/wordpool_EN.txt	PET	7	6	[0, 0, 0]	n/a	FR1	0	R1198M
841.91	2.534	507529	WORD	n/a	wordpools/wordpool_EN.txt	CLOTH	8	6	[0, 0, 0]	n/a	FR1	0	R1198M
844.444	2.551	508796	WORD	n/a	wordpools/wordpool_EN.txt	FAN	9	6	[0, 0, 0]	n/a	FR1	0	R1198M
846.995	2.567	510071	WORD	n/a	wordpools/wordpool_EN.txt	WOLF	10	6	[0, 0, 0]	n/a	FR1	0	R1198M
849.562	2.534	511355	WORD	n/a	wordpools/wordpool_EN.txt	RAT	11	6	[0, 0, 0]	n/a	FR1	0	R1198M
852.096	1.617	512622	WORD	n/a	wordpools/wordpool_EN.txt	SOCK	12	6	[0, 0, 0]	n/a	FR1	0	R1198M
853.713	0.0	513430	DISTRACT_START	n/a	n/a	n/a	-999	6	[0, 0, 0]	n/a	FR1	0	R1198M
853.713	0.016	513430	START	n/a	n/a	n/a	-999	6	[-999, -999, -999]	n/a	FR1	0	R1198M
853.729	18.404	513438	PROB	18.404	n/a	n/a	-999	6	[4, 6, 9]	19	FR1	0	R1198M
872.133	16.912	522640	PROB	16.912	n/a	n/a	-999	6	[6, 3, 5]	14	FR1	0	R1198M
889.045	0.008	531095	STOP	n/a	n/a	n/a	-999	6	[-999, -999, -999]	n/a	FR1	0	R1198M
889.053	1.184	531099	DISTRACT_END	n/a	n/a	n/a	-999	6	[0, 0, 0]	n/a	FR1	0	R1198M
890.237	22.955	531691	REC_START	n/a	n/a	n/a	-999	6	[0, 0, 0]	n/a	FR1	0	R1198M
913.192	0.536	543168	REC_WORD	0.536	n/a	BOY	-999	6	[0, 0, 0]	n/a	FR1	0	R1198M
913.728	0.651	543436	REC_WORD	0.651	n/a	DRESS	-999	6	[0, 0, 0]	n/a	FR1	0	R1198M
914.379	4.791	543761	REC_WORD	4.791	n/a	SHOE	-999	6	[0, 0, 0]	n/a	FR1	0	R1198M
919.17	1.078	546156	REC_WORD	1.078	n/a	ICE CREAM	-999	6	[0, 0, 0]	n/a	FR1	0	R1198M
920.248	23.365	546695	REC_END	n/a	n/a	n/a	-999	6	[0, 0, 0]	n/a	FR1	0	R1198M
943.613	0.0	558377	TRIAL	n/a	n/a	n/a	-999	7	[0, 0, 0]	n/a	FR1	0	R1198M
943.613	10.428	558377	COUNTDOWN_START	n/a	n/a	n/a	-999	7	[0, 0, 0]	n/a	FR1	0	R1198M
954.041	0.007	563591	COUNTDOWN_END	n/a	n/a	n/a	-999	7	[0, 0, 0]	n/a	FR1	0	R1198M
954.048	2.534	563594	ORIENT	n/a	n/a	n/a	-999	7	[0, 0, 0]	n/a	FR1	0	R1198M
956.582	2.601	564861	WORD	n/a	wordpools/wordpool_EN.txt	LAND	1	7	[0, 0, 0]	n/a	FR1	0	R1198M
959.183	2.617	566162	WORD	n/a	wordpools/wordpool_EN.txt	LAKE	2	7	[0, 0, 0]	n/a	FR1	0	R1198M
961.8	2.434	567470	WORD	n/a	wordpools/wordpool_EN.txt	FARM	3	7	[0, 0, 0]	n/a	FR1	0	R1198M
964.234	2.434	568687	WORD	n/a	wordpools/wordpool_EN.txt	TOY	4	7	[0, 0, 0]	n/a	FR1	0	R1198M
966.668	2.4	569904	WORD	n/a	wordpools/wordpool_EN.txt	ZOO	5	7	[0, 0, 0]	n/a	FR1	0	R1198M
969.068	2.384	571104	WORD	n/a	wordpools/wordpool_EN.txt	TEA	6	7	[0, 0, 0]	n/a	FR1	0	R1198M
971.452	2.517	572296	WORD	n/a	wordpools/wordpool_EN.txt	HEART	7	7	[0, 0, 0]	n/a	FR1	0	R1198M
973.969	2.4	573554	WORD	n/a	wordpools/wordpool_EN.txt	CAT	8	7	[0, 0, 0]	n/a	FR1	0	R1198M
976.369	2.534	574754	WORD	n/a	wordpools/wordpool_EN.txt	BRIDGE	9	7	[0, 0, 0]	n/a	FR1	0	R1198M
978.903	2.584	576021	WORD	n/a	wordpools/wordpool_EN.txt	SHRIMP	10	7	[0, 0, 0]	n/a	FR1	0	R1198M
981.487	2.601	577313	WORD	n/a	wordpools/wordpool_EN.txt	FORT	11	7	[0, 0, 0]	n/a	FR1	0	R1198M
984.088	1.617	578613	WORD	n/a	wordpools/wordpool_EN.txt	GOLD	12	7	[0, 0, 0]	n/a	FR1	0	R1198M
985.705	0.001	579422	DISTRACT_START	n/a	n/a	n/a	-999	7	[0, 0, 0]	n/a	FR1	0	R1198M
985.706	0.015	579422	START	n/a	n/a	n/a	-999	7	[-999, -999, -999]	n/a	FR1	0	R1198M
985.721	8.602	579430	PROB	8.602	n/a	n/a	-999	7	[1, 1, 1]	3	FR1	0	R1198M
994.323	13.963	583730	PROB	13.963	n/a	n/a	-999	7	[3, 5, 2]	11	FR1	0	R1198M
1008.286	0.006	590711	STOP	n/a	n/a	n/a	-999	7	[-999, -999, -999]	n/a	FR1	0	R1198M
1008.292	1.102	590714	DISTRACT_END	n/a	n/a	n/a	-999	7	[0, 0, 0]	n/a	FR1	0	R1198M
1009.394	6.0	591265	REC_START	n/a	n/a	n/a	-999	7	[0, 0, 0]	n/a	FR1	0	R1198M
1015.394	3.901	594265	REC_WORD	3.901	n/a	BEACH	-999	7	[0, 0, 0]	n/a	FR1	0	R1198M
1019.295	6.075	596216	REC_WORD	6.075	n/a	FARM	3	7	[0, 0, 0]	n/a	FR1	0	R1198M
1025.37	1.091	599253	REC_WORD	1.091	n/a	HORSE	-999	7	[0, 0, 0]	n/a	FR1	0	R1198M
1026.461	12.943	599798	REC_WORD	12.943	n/a	STOOL	-999	7	[0, 0, 0]	n/a	FR1	0	R1198M
1039.404	16.797	606269	REC_END	n/a	n/a	n/a	-999	7	[0, 0, 0]	n/a	FR1	0	R1198M
1056.201	0.0	614667	TRIAL	n/a	n/a	n/a	-999	8	[0, 0, 0]	n/a	FR1	0	R1198M
1056.201	10.428	614667	COUNTDOWN_START	n/a	n/a	n/a	-999	8	[0, 0, 0]	n/a	FR1	0	R1198M
1066.629	0.008	619881	COUNTDOWN_END	n/a	n/a	n/a	-999	8	[0, 0, 0]	n/a	FR1	0	R1198M
1066.637	2.4	619885	ORIENT	n/a	n/a	n/a	-999	8	[0, 0, 0]	n/a	FR1	0	R1198M
1069.037	2.384	621085	WORD	n/a	wordpools/wordpool_EN.txt	RAKE	1	8	[0, 0, 0]	n/a	FR1	0	R1198M
1071.421	2.501	622277	WORD	n/a	wordpools/wordpool_EN.txt	SPRING	2	8	[0, 0, 0]	n/a	FR1	0	R1198M
1073.922	2.617	623527	WORD	n/a	wordpools/wordpool_EN.txt	WORM	3	8	[0, 0, 0]	n/a	FR1	0	R1198M
1076.539	2.567	624836	WORD	n/a	wordpools/wordpool_EN.txt	BLUSH	4	8	[0, 0, 0]	n/a	FR1	0	R1198M
1079.106	2.45	626119	WORD	n/a	wordpools/wordpool_EN.txt	MOLE	5	8	[0, 0, 0]	n/a	FR1	0	R1198M
1081.556	2.467	627344	WORD	n/a	wordpools/wordpool_EN.txt	ROAD	6	8	[0, 0, 0]	n/a	FR1	0	R1198M
1084.023	2.501	628577	WORD	n/a	wordpools/wordpool_EN.txt	LEAF	7	8	[0, 0, 0]	n/a	FR1	0	R1198M
1086.524	2.534	629828	WORD	n/a	wordpools/wordpool_EN.txt	WEB	8	8	[0, 0, 0]	n/a	FR1	0	R1198M
1089.058	2.484	631095	WORD	n/a	wordpools/wordpool_EN.txt	TAIL	9	8	[0, 0, 0]	n/a	FR1	0	R1198M
1091.542	2.417	632337	WORD	n/a	wordpools/wordpool_EN.txt	BUSH	10	8	[0, 0, 0]	n/a	FR1	0	R1198M
1093.959	2.483	633545	WORD	n/a	wordpools/wordpool_EN.txt	FLEA	11	8	[0, 0, 0]	n/a	FR1	0	R1198M
1096.442	1.617	634786	WORD	n/a	wordpools/wordpool_EN.txt	CAGE	12	8	[0, 0, 0]	n/a	FR1	0	R1198M
1098.059	0.001	635595	DISTRACT_START	n/a	n/a	n/a	-999	8	[0, 0, 0]	n/a	FR1	0	R1198M
1098.06	0.016	635595	START	n/a	n/a	n/a	-999	8	[-999, -999, -999]	n/a	FR1	0	R1198M
1098.076	16.453	635603	PROB	16.453	n/a	n/a	-999	8	[5, 4, 9]	18	FR1	0	R1198M
1114.529	13.973	643829	PROB	13.973	n/a	n/a	-999	8	[5, 8, 7]	20	FR1	0	R1198M
1128.502	0.013	650815	STOP	n/a	n/a	n/a	-999	8	[-999, -999, -999]	n/a	FR1	0	R1198M
1128.515	1.052	650822	DISTRACT_END	n/a	n/a	n/a	-999	8	[0, 0, 0]	n/a	FR1	0	R1198M
1129.567	28.797	651348	REC_START	n/a	n/a	n/a	-999	8	[0, 0, 0]	n/a	FR1	0	R1198M
1158.364	1.214	665745	REC_WORD_VV	1.214	n/a	<>	-999	8	[0, 0, 0]	n/a	FR1	0	R1198M
1159.578	32.8	666352	REC_END	n/a	n/a	n/a	-999	8	[0, 0, 0]	n/a	FR1	0	R1198M
1192.378	0.0	682751	TRIAL	n/a	n/a	n/a	-999	9	[0, 0, 0]	n/a	FR1	0	R1198M
1192.378	10.428	682751	COUNTDOWN_START	n/a	n/a	n/a	-999	9	[0, 0, 0]	n/a	FR1	0	R1198M
1202.806	0.007	687965	COUNTDOWN_END	n/a	n/a	n/a	-999	9	[0, 0, 0]	n/a	FR1	0	R1198M
1202.813	2.484	687968	ORIENT	n/a	n/a	n/a	-999	9	[0, 0, 0]	n/a	FR1	0	R1198M
1205.297	2.584	689210	WORD	n/a	wordpools/wordpool_EN.txt	COIN	1	9	[0, 0, 0]	n/a	FR1	0	R1198M
1207.881	2.433	690502	WORD	n/a	wordpools/wordpool_EN.txt	WALL	2	9	[0, 0, 0]	n/a	FR1	0	R1198M
1210.314	2.434	691718	WORD	n/a	wordpools/wordpool_EN.txt	GLOVE	3	9	[0, 0, 0]	n/a	FR1	0	R1198M
1212.748	2.434	692935	WORD	n/a	wordpools/wordpool_EN.txt	SHIELD	4	9	[0, 0, 0]	n/a	FR1	0	R1198M
1215.182	2.467	694152	WORD	n/a	wordpools/wordpool_EN.txt	SPARK	5	9	[0, 0, 0]	n/a	FR1	0	R1198M
1217.649	2.451	695386	WORD	n/a	wordpools/wordpool_EN.txt	RAIN	6	9	[0, 0, 0]	n/a	FR1	0	R1198M
1220.1	2.5	696611	WORD	n/a	wordpools/wordpool_EN.txt	SPONGE	7	9	[0, 0, 0]	n/a	FR1	0	R1198M
1222.6	2.584	697861	WORD	n/a	wordpools/wordpool_EN.txt	BOX	8	9	[0, 0, 0]	n/a	FR1	0	R1198M
1225.184	2.484	699153	WORD	n/a	wordpools/wordpool_EN.txt	HOOK	9	9	[0, 0, 0]	n/a	FR1	0	R1198M
1227.668	2.45	700395	WORD	n/a	wordpools/wordpool_EN.txt	BALL	10	9	[0, 0, 0]	n/a	FR1	0	R1198M
1230.118	2.501	701620	WORD	n/a	wordpools/wordpool_EN.txt	ELF	11	9	[0, 0, 0]	n/a	FR1	0	R1198M
1232.619	1.617	702870	WORD	n/a	wordpools/wordpool_EN.txt	HOSE	12	9	[0, 0, 0]	n/a	FR1	0	R1198M
1234.236	0.001	703679	DISTRACT_START	n/a	n/a	n/a	-999	9	[0, 0, 0]	n/a	FR1	0	R1198M
1234.237	0.015	703679	START	n/a	n/a	n/a	-999	9	[-999, -999, -999]	n/a	FR1	0	R1198M
1234.252	17.654	703687	PROB	17.654	n/a	n/a	-999	9	[5, 7, 6]	18	FR1	0	R1198M
1251.906	23.14	712513	PROB	23.14	n/a	n/a	-999	9	[6, 8, 3]	17	FR1	0	R1198M
1275.046	0.014	724082	STOP	n/a	n/a	n/a	-999	9	[-999, -999, -999]	n/a	FR1	0	R1198M
1275.06	1.201	724089	DISTRACT_END	n/a	n/a	n/a	-999	9	[0, 0, 0]	n/a	FR1	0	R1198M
1276.261	1.893	724690	REC_START	n/a	n/a	n/a	-999	9	[0, 0, 0]	n/a	FR1	0	R1198M
1278.154	1.328	725636	REC_WORD	1.328	n/a	COIN	1	9	[0, 0, 0]	n/a	FR1	0	R1198M
1279.482	2.558	726300	REC_WORD	2.558	n/a	GLOVE	3	9	[0, 0, 0]	n/a	FR1	0	R1198M
1282.04	3.71	727579	REC_WORD	3.71	n/a	HOSE	12	9	[0, 0, 0]	n/a	FR1	0	R1198M
1285.75	12.453	729434	REC_WORD	12.453	n/a	WALL	2	9	[0, 0, 0]	n/a	FR1	0	R1198M
1298.203	8.07	735660	REC_WORD	8.07	n/a	SHOVEL	-999	9	[0, 0, 0]	n/a	FR1	0	R1198M
1306.273	50.053	739695	REC_END	n/a	n/a	n/a	-999	9	[0, 0, 0]	n/a	FR1	0	R1198M
1356.326	0.0	764719	TRIAL	n/a	n/a	n/a	-999	10	[0, 0, 0]	n/a	FR1	0	R1198M
1356.326	10.428	764719	COUNTDOWN_START	n/a	n/a	n/a	-999	10	[0, 0, 0]	n/a	FR1	0	R1198M
1366.754	0.007	769933	COUNTDOWN_END	n/a	n/a	n/a	-999	10	[0, 0, 0]	n/a	FR1	0	R1198M
1366.761	2.517	769937	ORIENT	n/a	n/a	n/a	-999	10	[0, 0, 0]	n/a	FR1	0	R1198M
1369.278	2.434	771195	WORD	n/a	wordpools/wordpool_EN.txt	CHIN	1	10	[0, 0, 0]	n/a	FR1	0	R1198M
1371.712	2.467	772412	WORD	n/a	wordpools/wordpool_EN.txt	SEED	2	10	[0, 0, 0]	n/a	FR1	0	R1198M
1374.179	2.534	773645	WORD	n/a	wordpools/wordpool_EN.txt	SOUP	3	10	[0, 0, 0]	n/a	FR1	0	R1198M
1376.713	2.484	774912	WORD	n/a	wordpools/wordpool_EN.txt	VINE	4	10	[0, 0, 0]	n/a	FR1	0	R1198M
1379.197	2.4	776154	WORD	n/a	wordpools/wordpool_EN.txt	CHAIR	5	10	[0, 0, 0]	n/a	FR1	0	R1198M
1381.597	2.601	777354	WORD	n/a	wordpools/wordpool_EN.txt	BRANCH	6	10	[0, 0, 0]	n/a	FR1	0	R1198M
1384.198	2.484	778655	WORD	n/a	wordpools/wordpool_EN.txt	FUDGE	7	10	[0, 0, 0]	n/a	FR1	0	R1198M
1386.682	2.517	779896	WORD	n/a	wordpools/wordpool_EN.txt	FRUIT	8	10	[0, 0, 0]	n/a	FR1	0	R1198M
1389.199	2.617	781155	WORD	n/a	wordpools/wordpool_EN.txt	JUICE	9	10	[0, 0, 0]	n/a	FR1	0	R1198M
1391.816	2.4	782463	WORD	n/a	wordpools/wordpool_EN.txt	TOE	10	10	[0, 0, 0]	n/a	FR1	0	R1198M
1394.216	2.401	783663	WORD	n/a	wordpools/wordpool_EN.txt	PIT	11	10	[0, 0, 0]	n/a	FR1	0	R1198M
1396.617	1.617	784864	WORD	n/a	wordpools/wordpool_EN.txt	STEAK	12	10	[0, 0, 0]	n/a	FR1	0	R1198M
1398.234	0.001	785672	DISTRACT_START	n/a	n/a	n/a	-999	10	[0, 0, 0]	n/a	FR1	0	R1198M
1398.235	0.016	785673	START	n/a	n/a	n/a	-999	10	[-999, -999, -999]	n/a	FR1	0	R1198M
1398.251	3.25	785681	PROB	3.25	n/a	n/a	-999	10	[9, 1, 4]	7	FR1	0	R1198M
1401.501	2.284	787305	PROB	2.284	n/a	n/a	-999	10	[1, 6, 1]	8	FR1	0	R1198M
1403.785	6.585	788447	PROB	6.585	n/a	n/a	-999	10	[2, 7, 1]	8	FR1	0	R1198M
1410.37	12.875	791740	PROB	12.875	n/a	n/a	-999	10	[1, 2, 9]	12	FR1	0	R1198M
1423.245	0.01	798177	STOP	n/a	n/a	n/a	-999	10	[-999, -999, -999]	n/a	FR1	0	R1198M
1423.255	1.084	798182	DISTRACT_END	n/a	n/a	n/a	-999	10	[0, 0, 0]	n/a	FR1	0	R1198M
1424.339	3.996	798724	REC_START	n/a	n/a	n/a	-999	10	[0, 0, 0]	n/a	FR1	0	R1198M
1428.335	0.672	800722	REC_WORD	0.672	n/a	CHIN	1	10	[0, 0, 0]	n/a	FR1	0	R1198M
1429.007	9.858	801058	REC_WORD	9.858	n/a	SOUP	3	10	[0, 0, 0]	n/a	FR1	0	R1198M
1438.865	0.789	805986	REC_WORD	0.789	n/a	HAT	-999	10	[0, 0, 0]	n/a	FR1	0	R1198M
1439.654	7.833	806381	REC_WORD	7.833	n/a	HAIR	-999	10	[0, 0, 0]	n/a	FR1	0	R1198M
1447.487	6.869	810297	REC_WORD	6.869	n/a	BOTTLE	-999	10	[0, 0, 0]	n/a	FR1	0	R1198M
1454.356	45.097	813731	REC_END	n/a	n/a	n/a	-999	10	[0, 0, 0]	n/a	FR1	0	R1198M
1499.453	0.0	836278	TRIAL	n/a	n/a	n/a	-999	11	[0, 0, 0]	n/a	FR1	0	R1198M
1499.453	10.428	836278	COUNTDOWN_START	n/a	n/a	n/a	-999	11	[0, 0, 0]	n/a	FR1	0	R1198M
1509.881	0.008	841492	COUNTDOWN_END	n/a	n/a	n/a	-999	11	[0, 0, 0]	n/a	FR1	0	R1198M
1509.889	2.4	841496	ORIENT	n/a	n/a	n/a	-999	11	[0, 0, 0]	n/a	FR1	0	R1198M
1512.289	2.417	842696	WORD	n/a	wordpools/wordpool_EN.txt	THUMB	1	11	[0, 0, 0]	n/a	FR1	0	R1198M
1514.706	2.384	843904	WORD	n/a	wordpools/wordpool_EN.txt	SLEEVE	2	11	[0, 0, 0]	n/a	FR1	0	R1198M
1517.09	2.384	845096	WORD	n/a	wordpools/wordpool_EN.txt	FROG	3	11	[0, 0, 0]	n/a	FR1	0	R1198M
1519.474	2.617	846288	WORD	n/a	wordpools/wordpool_EN.txt	SUIT	4	11	[0, 0, 0]	n/a	FR1	0	R1198M
1522.091	2.401	847596	WORD	n/a	wordpools/wordpool_EN.txt	BOARD	5	11	[0, 0, 0]	n/a	FR1	0	R1198M
1524.492	2.6	848797	WORD	n/a	wordpools/wordpool_EN.txt	BRUSH	6	11	[0, 0, 0]	n/a	FR1	0	R1198M
1527.092	2.467	850097	WORD	n/a	wordpools/wordpool_EN.txt	PIPE	7	11	[0, 0, 0]	n/a	FR1	0	R1198M
1529.559	2.434	851330	WORD	n/a	wordpools/wordpool_EN.txt	NAIL	8	11	[0, 0, 0]	n/a	FR1	0	R1198M
1531.993	2.6	852547	WORD	n/a	wordpools/wordpool_EN.txt	PURSE	9	11	[0, 0, 0]	n/a	FR1	0	R1198M
1534.593	2.618	853847	WORD	n/a	wordpools/wordpool_EN.txt	FORK	10	11	[0, 0, 0]	n/a	FR1	0	R1198M
1537.211	2.4	855156	WORD	n/a	wordpools/wordpool_EN.txt	BENCH	11	11	[0, 0, 0]	n/a	FR1	0	R1198M
1539.611	1.617	856356	WORD	n/a	wordpools/wordpool_EN.txt	SINK	12	11	[0, 0, 0]	n/a	FR1	0	R1198M
1541.228	0.001	857164	DISTRACT_START	n/a	n/a	n/a	-999	11	[0, 0, 0]	n/a	FR1	0	R1198M
1541.229	0.016	857165	START	n/a	n/a	n/a	-999	11	[-999, -999, -999]	n/a	FR1	0	R1198M
1541.245	3.3	857173	PROB	3.3	n/a	n/a	-999	11	[7, 7, 8]	7	FR1	0	R1198M
1544.545	3.068	858823	PROB	3.068	n/a	n/a	-999	11	[2, 8, 6]	7	FR1	0	R1198M
1547.613	9.118	860356	PROB	9.118	n/a	n/a	-999	11	[6, 8, 6]	7	FR1	0	R1198M
1556.731	7.227	864915	PROB	7.227	n/a	n/a	-999	11	[7, 5, 5]	6	FR1	0	R1198M
1563.958	0.008	868528	STOP	n/a	n/a	n/a	-999	11	[-999, -999, -999]	n/a	FR1	0	R1198M
1563.966	1.151	868532	DISTRACT_END	n/a	n/a	n/a	-999	11	[0, 0, 0]	n/a	FR1	0	R1198M
1565.117	4.534	869108	REC_START	n/a	n/a	n/a	-999	11	[0, 0, 0]	n/a	FR1	0	R1198M
1569.651	2.716	871375	REC_WORD	2.716	n/a	NAIL	8	11	[0, 0, 0]	n/a	FR1	0	R1198M
1572.367	6.463	872733	REC_WORD	6.463	n/a	SUIT	4	11	[0, 0, 0]	n/a	FR1	0	R1198M
1578.83	1.171	875964	REC_WORD	1.171	n/a	COMB	-999	11	[0, 0, 0]	n/a	FR1	0	R1198M
1580.001	2.703	876549	REC_WORD	2.703	n/a	BRUSH	6	11	[0, 0, 0]	n/a	FR1	0	R1198M
1582.704	7.944	877901	REC_WORD	7.944	n/a	COMB	-999	11	[0, 0, 0]	n/a	FR1	0	R1198M
1590.648	4.481	881872	REC_WORD	4.481	n/a	HAIR	-999	11	[0, 0, 0]	n/a	FR1	0	R1198M
1595.129	31.048	884113	REC_END	n/a	n/a	n/a	-999	11	[0, 0, 0]	n/a	FR1	0	R1198M
1626.177	0.001	899636	COUNTDOWN_START	n/a	n/a	n/a	-999	12	[0, 0, 0]	n/a	FR1	0	R1198M
1626.178	10.427	899636	TRIAL	n/a	n/a	n/a	-999	12	[0, 0, 0]	n/a	FR1	0	R1198M
1636.605	0.008	904849	COUNTDOWN_END	n/a	n/a	n/a	-999	12	[0, 0, 0]	n/a	FR1	0	R1198M
1636.613	2.634	904853	ORIENT	n/a	n/a	n/a	-999	12	[0, 0, 0]	n/a	FR1	0	R1198M
1639.247	2.501	906170	WORD	n/a	wordpools/wordpool_EN.txt	MOTH	1	12	[0, 0, 0]	n/a	FR1	0	R1198M
1641.748	2.433	907421	WORD	n/a	wordpools/wordpool_EN.txt	WING	2	12	[0, 0, 0]	n/a	FR1	0	R1198M
1644.181	2.451	908637	WORD	n/a	wordpools/wordpool_EN.txt	RIB	3	12	[0, 0, 0]	n/a	FR1	0	R1198M
1646.632	2.483	909863	WORD	n/a	wordpools/wordpool_EN.txt	THREAD	4	12	[0, 0, 0]	n/a	FR1	0	R1198M
1649.115	2.534	911104	WORD	n/a	wordpools/wordpool_EN.txt	NET	5	12	[0, 0, 0]	n/a	FR1	0	R1198M
1651.649	2.401	912371	WORD	n/a	wordpools/wordpool_EN.txt	POND	6	12	[0, 0, 0]	n/a	FR1	0	R1198M
1654.05	2.433	913571	WORD	n/a	wordpools/wordpool_EN.txt	SNAIL	7	12	[0, 0, 0]	n/a	FR1	0	R1198M
1656.483	2.518	914788	WORD	n/a	wordpools/wordpool_EN.txt	FISH	8	12	[0, 0, 0]	n/a	FR1	0	R1198M
1659.001	2.483	916047	WORD	n/a	wordpools/wordpool_EN.txt	STRING	9	12	[0, 0, 0]	n/a	FR1	0	R1198M
1661.484	2.534	917288	WORD	n/a	wordpools/wordpool_EN.txt	HAND	10	12	[0, 0, 0]	n/a	FR1	0	R1198M
1664.018	2.567	918555	WORD	n/a	wordpools/wordpool_EN.txt	OWL	11	12	[0, 0, 0]	n/a	FR1	0	R1198M
1666.585	1.618	919838	WORD	n/a	wordpools/wordpool_EN.txt	SKUNK	12	12	[0, 0, 0]	n/a	FR1	0	R1198M
1668.203	0.001	920647	DISTRACT_START	n/a	n/a	n/a	-999	12	[0, 0, 0]	n/a	FR1	0	R1198M
1668.204	0.015	920648	START	n/a	n/a	n/a	-999	12	[-999, -999, -999]	n/a	FR1	0	R1198M
1668.219	20.003	920655	PROB	20.003	n/a	n/a	-999	12	[1, 8, 9]	18	FR1	0	R1198M
1688.222	0.018	930656	STOP	n/a	n/a	n/a	-999	12	[-999, -999, -999]	n/a	FR1	0	R1198M
1688.24	1.067	930665	DISTRACT_END	n/a	n/a	n/a	-999	12	[0, 0, 0]	n/a	FR1	0	R1198M
1689.307	2.844	931199	REC_START	n/a	n/a	n/a	-999	12	[0, 0, 0]	n/a	FR1	0	R1198M
1692.151	0.614	932621	REC_WORD	0.614	n/a	MOTH	1	12	[0, 0, 0]	n/a	FR1	0	R1198M
1692.765	0.367	932928	REC_WORD	0.367	n/a	WING	2	12	[0, 0, 0]	n/a	FR1	0	R1198M
1693.132	3.028	933111	REC_WORD	3.028	n/a	RIB	3	12	[0, 0, 0]	n/a	FR1	0	R1198M
1696.16	4.04	934625	REC_WORD	4.04	n/a	HEAD	-999	12	[0, 0, 0]	n/a	FR1	0	R1198M
1700.2	9.953	936645	REC_WORD	9.953	n/a	HAND	10	12	[0, 0, 0]	n/a	FR1	0	R1198M
1710.153	9.166	941621	REC_WORD	9.166	n/a	POND	6	12	[0, 0, 0]	n/a	FR1	0	R1198M
1719.319	251.091	946204	REC_END	n/a	n/a	n/a	-999	12	[0, 0, 0]	n/a	FR1	0	R1198M
1970.41	0.001	1071741	COUNTDOWN_START	n/a	n/a	n/a	-999	13	[0, 0, 0]	n/a	FR1	0	R1198M
1970.411	10.427	1071741	TRIAL	n/a	n/a	n/a	-999	13	[0, 0, 0]	n/a	FR1	0	R1198M
1980.838	0.008	1076954	COUNTDOWN_END	n/a	n/a	n/a	-999	13	[0, 0, 0]	n/a	FR1	0	R1198M
1980.846	2.4	1076958	ORIENT	n/a	n/a	n/a	-999	13	[0, 0, 0]	n/a	FR1	0	R1198M
1983.246	2.484	1078158	WORD	n/a	wordpools/wordpool_EN.txt	GATE	1	13	[0, 0, 0]	n/a	FR1	0	R1198M
1985.73	2.601	1079400	WORD	n/a	wordpools/wordpool_EN.txt	HILL	2	13	[0, 0, 0]	n/a	FR1	0	R1198M
1988.331	2.517	1080700	WORD	n/a	wordpools/wordpool_EN.txt	MULE	3	13	[0, 0, 0]	n/a	FR1	0	R1198M
1990.848	2.5	1081959	WORD	n/a	wordpools/wordpool_EN.txt	NEST	4	13	[0, 0, 0]	n/a	FR1	0	R1198M
1993.348	2.417	1083209	WORD	n/a	wordpools/wordpool_EN.txt	DOG	5	13	[0, 0, 0]	n/a	FR1	0	R1198M
1995.765	2.601	1084417	WORD	n/a	wordpools/wordpool_EN.txt	GEESE	6	13	[0, 0, 0]	n/a	FR1	0	R1198M
1998.366	2.6	1085718	WORD	n/a	wordpools/wordpool_EN.txt	CHIEF	7	13	[0, 0, 0]	n/a	FR1	0	R1198M
2000.966	2.534	1087017	WORD	n/a	wordpools/wordpool_EN.txt	EEL	8	13	[0, 0, 0]	n/a	FR1	0	R1198M
2003.5	2.567	1088284	WORD	n/a	wordpools/wordpool_EN.txt	GOAT	9	13	[0, 0, 0]	n/a	FR1	0	R1198M
2006.067	2.401	1089568	WORD	n/a	wordpools/wordpool_EN.txt	SKY	10	13	[0, 0, 0]	n/a	FR1	0	R1198M
2008.468	2.484	1090768	WORD	n/a	wordpools/wordpool_EN.txt	DUCK	11	13	[0, 0, 0]	n/a	FR1	0	R1198M
2010.952	1.617	1092010	WORD	n/a	wordpools/wordpool_EN.txt	SWORD	12	13	[0, 0, 0]	n/a	FR1	0	R1198M
2012.569	0.0	1092819	DISTRACT_START	n/a	n/a	n/a	-999	13	[0, 0, 0]	n/a	FR1	0	R1198M
2012.569	0.016	1092819	START	n/a	n/a	n/a	-999	13	[-999, -999, -999]	n/a	FR1	0	R1198M
2012.585	16.553	1092827	PROB	16.553	n/a	n/a	-999	13	[8, 3, 5]	9	FR1	0	R1198M
2029.138	10.595	1101103	PROB	10.595	n/a	n/a	-999	13	[7, 5, 2]	8	FR1	0	R1198M
2039.733	0.007	1106400	STOP	n/a	n/a	n/a	-999	13	[-999, -999, -999]	n/a	FR1	0	R1198M
2039.74	1.201	1106403	DISTRACT_END	n/a	n/a	n/a	-999	13	[0, 0, 0]	n/a	FR1	0	R1198M
2040.941	2.335	1107004	REC_START	n/a	n/a	n/a	-999	13	[0, 0, 0]	n/a	FR1	0	R1198M
2043.276	1.276	1108171	REC_WORD	1.276	n/a	GATE	1	13	[0, 0, 0]	n/a	FR1	0	R1198M
2044.552	0.805	1108809	REC_WORD	0.805	n/a	HILL	2	13	[0, 0, 0]	n/a	FR1	0	R1198M
2045.357	0.687	1109211	REC_WORD	0.687	n/a	GOAT	9	13	[0, 0, 0]	n/a	FR1	0	R1198M
2046.044	0.978	1109555	REC_WORD	0.978	n/a	SHEEP	-999	13	[0, 0, 0]	n/a	FR1	0	R1198M
2047.022	0.917	1110044	REC_WORD	0.917	n/a	DUCK	11	13	[0, 0, 0]	n/a	FR1	0	R1198M
2047.939	23.019	1110502	REC_WORD	23.019	n/a	DOG	5	13	[0, 0, 0]	n/a	FR1	0	R1198M
2070.958	32.061	1122011	REC_END	n/a	n/a	n/a	-999	13	[0, 0, 0]	n/a	FR1	0	R1198M
2103.019	0.0	1138040	TRIAL	n/a	n/a	n/a	-999	14	[0, 0, 0]	n/a	FR1	0	R1198M
2103.019	10.428	1138040	COUNTDOWN_START	n/a	n/a	n/a	-999	14	[0, 0, 0]	n/a	FR1	0	R1198M
2113.447	0.008	1143254	COUNTDOWN_END	n/a	n/a	n/a	-999	14	[0, 0, 0]	n/a	FR1	0	R1198M
2113.455	2.584	1143258	ORIENT	n/a	n/a	n/a	-999	14	[0, 0, 0]	n/a	FR1	0	R1198M
2116.039	2.483	1144550	WORD	n/a	wordpools/wordpool_EN.txt	FLAME	1	14	[0, 0, 0]	n/a	FR1	0	R1198M
2118.522	2.584	1145791	WORD	n/a	wordpools/wordpool_EN.txt	SKI	2	14	[0, 0, 0]	n/a	FR1	0	R1198M
2121.106	2.617	1147083	WORD	n/a	wordpools/wordpool_EN.txt	PIN	3	14	[0, 0, 0]	n/a	FR1	0	R1198M
2123.723	2.55	1148392	WORD	n/a	wordpools/wordpool_EN.txt	APE	4	14	[0, 0, 0]	n/a	FR1	0	R1198M
2126.273	2.401	1149667	WORD	n/a	wordpools/wordpool_EN.txt	WAVE	5	14	[0, 0, 0]	n/a	FR1	0	R1198M
2128.674	2.617	1150867	WORD	n/a	wordpools/wordpool_EN.txt	BROOM	6	14	[0, 0, 0]	n/a	FR1	0	R1198M
2131.291	2.451	1152176	WORD	n/a	wordpools/wordpool_EN.txt	FUR	7	14	[0, 0, 0]	n/a	FR1	0	R1198M
2133.742	2.45	1153401	WORD	n/a	wordpools/wordpool_EN.txt	SNOW	8	14	[0, 0, 0]	n/a	FR1	0	R1198M
2136.192	2.567	1154626	WORD	n/a	wordpools/wordpool_EN.txt	FOG	9	14	[0, 0, 0]	n/a	FR1	0	R1198M
2138.759	2.518	1155909	WORD	n/a	wordpools/wordpool_EN.txt	BEACH	10	14	[0, 0, 0]	n/a	FR1	0	R1198M
2141.277	2.4	1157168	WORD	n/a	wordpools/wordpool_EN.txt	DRUM	11	14	[0, 0, 0]	n/a	FR1	0	R1198M
2143.677	1.617	1158368	WORD	n/a	wordpools/wordpool_EN.txt	LIP	12	14	[0, 0, 0]	n/a	FR1	0	R1198M
2145.294	0.001	1159177	DISTRACT_START	n/a	n/a	n/a	-999	14	[0, 0, 0]	n/a	FR1	0	R1198M
2145.295	0.016	1159177	START	n/a	n/a	n/a	-999	14	[-999, -999, -999]	n/a	FR1	0	R1198M
2145.311	11.435	1159185	PROB	11.435	n/a	n/a	-999	14	[1, 3, 9]	8	FR1	0	R1198M
2156.746	6.568	1164902	PROB	6.568	n/a	n/a	-999	14	[9, 9, 9]	8	FR1	0	R1198M
2163.314	7.164	1168186	PROB	7.164	n/a	n/a	-999	14	[3, 2, 1]	8	FR1	0	R1198M
2170.478	0.004	1171768	STOP	n/a	n/a	n/a	-999	14	[-999, -999, -999]	n/a	FR1	0	R1198M
2170.482	1.101	1171770	DISTRACT_END	n/a	n/a	n/a	-999	14	[0, 0, 0]	n/a	FR1	0	R1198M
2171.583	1.559	1172320	REC_START	n/a	n/a	n/a	-999	14	[0, 0, 0]	n/a	FR1	0	R1198M
2173.142	1.746	1173100	REC_WORD	1.746	n/a	FOG	9	14	[0, 0, 0]	n/a	FR1	0	R1198M
2174.888	1.019	1173973	REC_WORD	1.019	n/a	FOG	9	14	[0, 0, 0]	n/a	FR1	0	R1198M
2175.907	25.691	1174482	REC_WORD	25.691	n/a	DEEP	-999	14	[0, 0, 0]	n/a	FR1	0	R1198M
2201.598	10.225	1187327	REC_END	n/a	n/a	n/a	-999	14	[0, 0, 0]	n/a	FR1	0	R1198M
2211.823	0.001	1192439	COUNTDOWN_START	n/a	n/a	n/a	-999	15	[0, 0, 0]	n/a	FR1	0	R1198M
2211.824	10.427	1192439	TRIAL	n/a	n/a	n/a	-999	15	[0, 0, 0]	n/a	FR1	0	R1198M
2222.251	0.008	1197652	COUNTDOWN_END	n/a	n/a	n/a	-999	15	[0, 0, 0]	n/a	FR1	0	R1198M
2222.259	2.567	1197656	ORIENT	n/a	n/a	n/a	-999	15	[0, 0, 0]	n/a	FR1	0	R1198M
2224.826	2.601	1198940	WORD	n/a	wordpools/wordpool_EN.txt	HAWK	1	15	[0, 0, 0]	n/a	FR1	0	R1198M
2227.427	2.567	1200240	WORD	n/a	wordpools/wordpool_EN.txt	MAIL	2	15	[0, 0, 0]	n/a	FR1	0	R1198M
2229.994	2.5	1201524	WORD	n/a	wordpools/wordpool_EN.txt	BOOK	3	15	[0, 0, 0]	n/a	FR1	0	R1198M
2232.494	2.551	1202774	WORD	n/a	wordpools/wordpool_EN.txt	STORE	4	15	[0, 0, 0]	n/a	FR1	0	R1198M
2235.045	2.583	1204049	WORD	n/a	wordpools/wordpool_EN.txt	HORSE	5	15	[0, 0, 0]	n/a	FR1	0	R1198M
2237.628	2.551	1205340	WORD	n/a	wordpools/wordpool_EN.txt	CORD	6	15	[0, 0, 0]	n/a	FR1	0	R1198M
2240.179	2.5	1206616	WORD	n/a	wordpools/wordpool_EN.txt	BAT	7	15	[0, 0, 0]	n/a	FR1	0	R1198M
2242.679	2.551	1207866	WORD	n/a	wordpools/wordpool_EN.txt	PEA	8	15	[0, 0, 0]	n/a	FR1	0	R1198M
2245.23	2.433	1209141	WORD	n/a	wordpools/wordpool_EN.txt	JET	9	15	[0, 0, 0]	n/a	FR1	0	R1198M
2247.663	2.585	1210358	WORD	n/a	wordpools/wordpool_EN.txt	JAIL	10	15	[0, 0, 0]	n/a	FR1	0	R1198M
2250.248	2.483	1211650	WORD	n/a	wordpools/wordpool_EN.txt	TOOL	11	15	[0, 0, 0]	n/a	FR1	0	R1198M
2252.731	1.617	1212891	WORD	n/a	wordpools/wordpool_EN.txt	SHEET	12	15	[0, 0, 0]	n/a	FR1	0	R1198M
2254.348	0.001	1213700	DISTRACT_START	n/a	n/a	n/a	-999	15	[0, 0, 0]	n/a	FR1	0	R1198M
2254.349	0.016	1213700	START	n/a	n/a	n/a	-999	15	[-999, -999, -999]	n/a	FR1	0	R1198M
2254.365	6.501	1213708	PROB	6.501	n/a	n/a	-999	15	[3, 1, 1]	5	FR1	0	R1198M
2260.866	11.353	1216959	PROB	11.353	n/a	n/a	-999	15	[2, 4, 1]	6	FR1	0	R1198M
2272.219	18.346	1222635	PROB	18.346	n/a	n/a	-999	15	[2, 7, 1]	7	FR1	0	R1198M
2290.565	0.007	1231807	STOP	n/a	n/a	n/a	-999	15	[-999, -999, -999]	n/a	FR1	0	R1198M
2290.572	1.184	1231811	DISTRACT_END	n/a	n/a	n/a	-999	15	[0, 0, 0]	n/a	FR1	0	R1198M
2291.756	0.0	1232403	REC_START	n/a	n/a	n/a	-999	15	[0, 0, 0]	n/a	FR1	0	R1198M
2291.756	30.016	1232403	REC_WORD_VV	30.016	n/a	<>	-999	15	[0, 0, 0]	n/a	FR1	0	R1198M
2321.772	92.04	1247410	REC_END	n/a	n/a	n/a	-999	15	[0, 0, 0]	n/a	FR1	0	R1198M
2413.812	0.001	1293426	COUNTDOWN_START	n/a	n/a	n/a	-999	16	[0, 0, 0]	n/a	FR1	0	R1198M
2413.813	10.427	1293427	TRIAL	n/a	n/a	n/a	-999	16	[0, 0, 0]	n/a	FR1	0	R1198M
2424.24	0.008	1298640	COUNTDOWN_END	n/a	n/a	n/a	-999	16	[0, 0, 0]	n/a	FR1	0	R1198M
2424.248	2.5	1298644	ORIENT	n/a	n/a	n/a	-999	16	[0, 0, 0]	n/a	FR1	0	R1198M
2426.748	2.417	1299894	WORD	n/a	wordpools/wordpool_EN.txt	SOAP	1	16	[0, 0, 0]	n/a	FR1	0	R1198M
2429.165	2.567	1301102	WORD	n/a	wordpools/wordpool_EN.txt	PALM	2	16	[0, 0, 0]	n/a	FR1	0	R1198M
2431.732	2.567	1302386	WORD	n/a	wordpools/wordpool_EN.txt	CANE	3	16	[0, 0, 0]	n/a	FR1	0	R1198M
2434.299	2.568	1303669	WORD	n/a	wordpools/wordpool_EN.txt	JAR	4	16	[0, 0, 0]	n/a	FR1	0	R1198M
2436.867	2.5	1304953	WORD	n/a	wordpools/wordpool_EN.txt	POOL	5	16	[0, 0, 0]	n/a	FR1	0	R1198M
2439.367	2.501	1306203	WORD	n/a	wordpools/wordpool_EN.txt	TOAST	6	16	[0, 0, 0]	n/a	FR1	0	R1198M
2441.868	2.417	1307453	WORD	n/a	wordpools/wordpool_EN.txt	VASE	7	16	[0, 0, 0]	n/a	FR1	0	R1198M
2444.285	2.417	1308662	WORD	n/a	wordpools/wordpool_EN.txt	TRAY	8	16	[0, 0, 0]	n/a	FR1	0	R1198M
2446.702	2.401	1309870	WORD	n/a	wordpools/wordpool_EN.txt	COUCH	9	16	[0, 0, 0]	n/a	FR1	0	R1198M
2449.103	2.483	1311071	WORD	n/a	wordpools/wordpool_EN.txt	HOUSE	10	16	[0, 0, 0]	n/a	FR1	0	R1198M
2451.586	2.501	1312312	WORD	n/a	wordpools/wordpool_EN.txt	CUBE	11	16	[0, 0, 0]	n/a	FR1	0	R1198M
2454.087	1.617	1313563	WORD	n/a	wordpools/wordpool_EN.txt	VAN	12	16	[0, 0, 0]	n/a	FR1	0	R1198M
2455.704	0.001	1314371	DISTRACT_START	n/a	n/a	n/a	-999	16	[0, 0, 0]	n/a	FR1	0	R1198M
2455.705	0.016	1314371	START	n/a	n/a	n/a	-999	16	[-999, -999, -999]	n/a	FR1	0	R1198M
2455.721	199.669	1314379	PROB	199.669	n/a	n/a	-999	16	[7, 2, 2]	56	FR1	0	R1198M
2655.39	0.019	1414207	STOP	n/a	n/a	n/a	-999	16	[-999, -999, -999]	n/a	FR1	0	R1198M
2655.409	1.051	1414217	DISTRACT_END	n/a	n/a	n/a	-999	16	[0, 0, 0]	n/a	FR1	0	R1198M
2656.46	8.245	1414742	REC_START	n/a	n/a	n/a	-999	16	[0, 0, 0]	n/a	FR1	0	R1198M
2664.705	21.768	1418864	REC_WORD	21.768	n/a	HOSE	-999	16	[0, 0, 0]	n/a	FR1	0	R1198M
2686.473	15.912	1429748	REC_END	n/a	n/a	n/a	-999	16	[0, 0, 0]	n/a	FR1	0	R1198M
2702.385	0.0	1437703	TRIAL	n/a	n/a	n/a	-999	17	[0, 0, 0]	n/a	FR1	0	R1198M
2702.385	10.428	1437703	COUNTDOWN_START	n/a	n/a	n/a	-999	17	[0, 0, 0]	n/a	FR1	0	R1198M
2712.813	0.007	1442917	COUNTDOWN_END	n/a	n/a	n/a	-999	17	[0, 0, 0]	n/a	FR1	0	R1198M
2712.82	2.55	1442920	ORIENT	n/a	n/a	n/a	-999	17	[0, 0, 0]	n/a	FR1	0	R1198M
2715.37	2.617	1444195	WORD	n/a	wordpools/wordpool_EN.txt	SUN	1	17	[0, 0, 0]	n/a	FR1	0	R1198M
2717.987	2.567	1445503	WORD	n/a	wordpools/wordpool_EN.txt	CAPE	2	17	[0, 0, 0]	n/a	FR1	0	R1198M
2720.554	2.401	1446787	WORD	n/a	wordpools/wordpool_EN.txt	BATH	3	17	[0, 0, 0]	n/a	FR1	0	R1198M
2722.955	2.584	1447987	WORD	n/a	wordpools/wordpool_EN.txt	SAIL	4	17	[0, 0, 0]	n/a	FR1	0	R1198M
2725.539	2.4	1449279	WORD	n/a	wordpools/wordpool_EN.txt	LEG	5	17	[0, 0, 0]	n/a	FR1	0	R1198M
2727.939	2.384	1450479	WORD	n/a	wordpools/wordpool_EN.txt	ROSE	6	17	[0, 0, 0]	n/a	FR1	0	R1198M
2730.323	2.551	1451671	WORD	n/a	wordpools/wordpool_EN.txt	RUG	7	17	[0, 0, 0]	n/a	FR1	0	R1198M
2732.874	2.4	1452946	WORD	n/a	wordpools/wordpool_EN.txt	MOOSE	8	17	[0, 0, 0]	n/a	FR1	0	R1198M
2735.274	2.617	1454146	WORD	n/a	wordpools/wordpool_EN.txt	BOAT	9	17	[0, 0, 0]	n/a	FR1	0	R1198M
2737.891	2.401	1455455	WORD	n/a	wordpools/wordpool_EN.txt	ICE	10	17	[0, 0, 0]	n/a	FR1	0	R1198M
2740.292	2.4	1456655	WORD	n/a	wordpools/wordpool_EN.txt	CAKE	11	17	[0, 0, 0]	n/a	FR1	0	R1198M
2742.692	1.617	1457855	WORD	n/a	wordpools/wordpool_EN.txt	FENCE	12	17	[0, 0, 0]	n/a	FR1	0	R1198M
2744.309	0.001	1458664	DISTRACT_START	n/a	n/a	n/a	-999	17	[0, 0, 0]	n/a	FR1	0	R1198M
2744.31	0.016	1458664	START	n/a	n/a	n/a	-999	17	[-999, -999, -999]	n/a	FR1	0	R1198M
2744.326	13.586	1458672	PROB	13.586	n/a	n/a	-999	17	[6, 4, 9]	8	FR1	0	R1198M
2757.912	13.278	1465465	PROB	13.278	n/a	n/a	-999	17	[1, 6, 5]	8	FR1	0	R1198M
2771.19	0.008	1472103	STOP	n/a	n/a	n/a	-999	17	[-999, -999, -999]	n/a	FR1	0	R1198M
2771.198	1.067	1472107	DISTRACT_END	n/a	n/a	n/a	-999	17	[0, 0, 0]	n/a	FR1	0	R1198M
2772.265	30.013	1472641	REC_START	n/a	n/a	n/a	-999	17	[0, 0, 0]	n/a	FR1	0	R1198M
2802.278	30.298	1487646	REC_END	n/a	n/a	n/a	-999	17	[0, 0, 0]	n/a	FR1	0	R1198M
2832.576	0.0	1502794	TRIAL	n/a	n/a	n/a	-999	18	[0, 0, 0]	n/a	FR1	0	R1198M
2832.576	0.0	1502794	COUNTDOWN_START	n/a	n/a	n/a	-999	18	[0, 0, 0]	n/a	FR1	0	R1198M
