onset	duration	sample	trial_type	response_time	stim_file	item_name	serialpos	list	test	answer	experiment	session	subject
0.0	0.0	8432	INSTRUCT_START	n/a	n/a	n/a	-999	-999	[0, 0, 0]	n/a	FR1	1	R1154D
0.0	11.079	8432	INSTRUCT_END	n/a	n/a	n/a	-999	-999	[0, 0, 0]	n/a	FR1	1	R1154D
11.079	0.0	19510	SESS_START	n/a	n/a	n/a	-999	-999	[0, 0, 0]	n/a	FR1	1	R1154D
11.079	13.002	19510	MIC_TEST	n/a	n/a	n/a	-999	-999	[0, 0, 0]	n/a	FR1	1	R1154D
24.081	1.825	32512	PRACTICE_TRIAL	n/a	n/a	n/a	-999	-1	[0, 0, 0]	n/a	FR1	1	R1154D
25.906	10.428	34337	COUNTDOWN_START	n/a	n/a	n/a	-999	-1	[0, 0, 0]	n/a	FR1	1	R1154D
36.334	0.007	44764	COUNTDOWN_END	n/a	n/a	n/a	-999	-1	[0, 0, 0]	n/a	FR1	1	R1154D
36.341	1.616	44771	PRACTICE_ORIENT	n/a	n/a	n/a	-999	-1	[0, 0, 0]	n/a	FR1	1	R1154D
37.957	1.95	46387	PRACTICE_ORIENT_OFF	n/a	n/a	n/a	-999	-1	[0, 0, 0]	n/a	FR1	1	R1154D
39.907	1.601	48337	PRACTICE_WORD	n/a	n/a	WATCH	1	-1	[0, 0, 0]	n/a	FR1	1	R1154D
41.508	0.851	49938	PRACTICE_WORD_OFF	n/a	n/a	WATCH	-999	-1	[0, 0, 0]	n/a	FR1	1	R1154D
42.359	1.616	50789	PRACTICE_WORD	n/a	n/a	RING	2	-1	[0, 0, 0]	n/a	FR1	1	R1154D
43.975	0.999	52405	PRACTICE_WORD_OFF	n/a	n/a	RING	-999	-1	[0, 0, 0]	n/a	FR1	1	R1154D
44.974	1.602	53404	PRACTICE_WORD	n/a	n/a	WAGON	3	-1	[0, 0, 0]	n/a	FR1	1	R1154D
46.576	0.817	55005	PRACTICE_WORD_OFF	n/a	n/a	WAGON	-999	-1	[0, 0, 0]	n/a	FR1	1	R1154D
47.393	1.616	55822	PRACTICE_WORD	n/a	n/a	ATTIC	4	-1	[0, 0, 0]	n/a	FR1	1	R1154D
49.009	0.95	57438	PRACTICE_WORD_OFF	n/a	n/a	ATTIC	-999	-1	[0, 0, 0]	n/a	FR1	1	R1154D
49.959	1.618	58388	PRACTICE_WORD	n/a	n/a	RHINO	5	-1	[0, 0, 0]	n/a	FR1	1	R1154D
51.577	0.783	60006	PRACTICE_WORD_OFF	n/a	n/a	RHINO	-999	-1	[0, 0, 0]	n/a	FR1	1	R1154D
52.36	1.616	60789	PRACTICE_WORD	n/a	n/a	CAMEL	6	-1	[0, 0, 0]	n/a	FR1	1	R1154D
53.976	0.884	62405	PRACTICE_WORD_OFF	n/a	n/a	CAMEL	-999	-1	[0, 0, 0]	n/a	FR1	1	R1154D
54.86	1.618	63289	PRACTICE_WORD	n/a	n/a	IRON	7	-1	[0, 0, 0]	n/a	FR1	1	R1154D
56.478	0.9	64907	PRACTICE_WORD_OFF	n/a	n/a	IRON	-999	-1	[0, 0, 0]	n/a	FR1	1	R1154D
57.378	1.616	65807	PRACTICE_WORD	n/a	n/a	BEAM	8	-1	[0, 0, 0]	n/a	FR1	1	R1154D
58.994	0.801	67423	PRACTICE_WORD_OFF	n/a	n/a	BEAM	-999	-1	[0, 0, 0]	n/a	FR1	1	R1154D
59.795	1.617	68224	PRACTICE_WORD	n/a	n/a	COTTON	9	-1	[0, 0, 0]	n/a	FR1	1	R1154D
61.412	0.783	69841	PRACTICE_WORD_OFF	n/a	n/a	COTTON	-999	-1	[0, 0, 0]	n/a	FR1	1	R1154D
62.195	1.617	70624	PRACTICE_WORD	n/a	n/a	CHEST	10	-1	[0, 0, 0]	n/a	FR1	1	R1154D
63.812	0.934	72241	PRACTICE_WORD_OFF	n/a	n/a	CHEST	-999	-1	[0, 0, 0]	n/a	FR1	1	R1154D
64.746	1.617	73174	PRACTICE_WORD	n/a	n/a	TONGUE	11	-1	[0, 0, 0]	n/a	FR1	1	R1154D
66.363	0.984	74791	PRACTICE_WORD_OFF	n/a	n/a	TONGUE	-999	-1	[0, 0, 0]	n/a	FR1	1	R1154D
67.347	1.616	75775	PRACTICE_WORD	n/a	n/a	FLOOD	12	-1	[0, 0, 0]	n/a	FR1	1	R1154D
68.963	0.0	77391	DISTRACT_START	n/a	n/a	n/a	-999	-1	[0, 0, 0]	n/a	FR1	1	R1154D
68.963	0.0	77391	PRACTICE_WORD_OFF	n/a	n/a	FLOOD	-999	-1	[0, 0, 0]	n/a	FR1	1	R1154D
68.963	0.016	77391	START	n/a	n/a	n/a	-999	-1	[-999, -999, -999]	n/a	FR1	1	R1154D
68.979	3.017	77407	PROB	3.017	n/a	n/a	-999	-1	[1, 2, 6]	9	FR1	1	R1154D
71.996	3.635	80424	PROB	3.635	n/a	n/a	-999	-1	[5, 9, 4]	18	FR1	1	R1154D
75.631	4.968	84059	PROB	4.968	n/a	n/a	-999	-1	[5, 8, 5]	8	FR1	1	R1154D
80.599	3.151	89027	PROB	3.151	n/a	n/a	-999	-1	[9, 6, 6]	21	FR1	1	R1154D
83.75	4.466	92177	PROB	4.466	n/a	n/a	-999	-1	[5, 6, 2]	13	FR1	1	R1154D
88.216	1.689	96643	PROB	1.689	n/a	n/a	-999	-1	[1, 8, 2]	11	FR1	1	R1154D
89.905	0.011	98332	STOP	n/a	n/a	n/a	-999	-1	[-999, -999, -999]	n/a	FR1	1	R1154D
89.916	0.651	98343	DISTRACT_END	n/a	n/a	n/a	-999	-1	[0, 0, 0]	n/a	FR1	1	R1154D
90.567	0.517	98994	RETRIEVAL_ORIENT	n/a	n/a	n/a	-999	-1	[0, 0, 0]	n/a	FR1	1	R1154D
91.084	30.011	99511	PRACTICE_REC_START	n/a	n/a	n/a	-999	-1	[0, 0, 0]	n/a	FR1	1	R1154D
121.095	12.514	129520	PRACTICE_REC_END	n/a	n/a	n/a	-999	-1	[0, 0, 0]	n/a	FR1	1	R1154D
133.609	0.5	142034	TRIAL	n/a	n/a	n/a	-999	1	[0, 0, 0]	n/a	FR1	1	R1154D
134.109	10.428	142534	COUNTDOWN_START	n/a	n/a	n/a	-999	1	[0, 0, 0]	n/a	FR1	1	R1154D
144.537	0.007	152961	COUNTDOWN_END	n/a	n/a	n/a	-999	1	[0, 0, 0]	n/a	FR1	1	R1154D
144.544	1.616	152968	ORIENT	n/a	n/a	n/a	-999	1	[0, 0, 0]	n/a	FR1	1	R1154D
146.16	2.017	154584	ORIENT_OFF	n/a	n/a	n/a	-999	1	[0, 0, 0]	n/a	FR1	1	R1154D
148.177	1.618	156601	WORD	n/a	wordpools/wordpool_EN.txt	CAT	1	1	[0, 0, 0]	n/a	FR1	1	R1154D
149.795	0.817	158219	WORD_OFF	n/a	n/a	CAT	1	1	[0, 0, 0]	n/a	FR1	1	R1154D
150.612	1.616	159036	WORD	n/a	wordpools/wordpool_EN.txt	FOX	2	1	[0, 0, 0]	n/a	FR1	1	R1154D
152.228	0.817	160652	WORD_OFF	n/a	n/a	FOX	2	1	[0, 0, 0]	n/a	FR1	1	R1154D
153.045	1.617	161469	WORD	n/a	wordpools/wordpool_EN.txt	ANT	3	1	[0, 0, 0]	n/a	FR1	1	R1154D
154.662	0.934	163086	WORD_OFF	n/a	n/a	ANT	3	1	[0, 0, 0]	n/a	FR1	1	R1154D
155.596	1.616	164020	WORD	n/a	wordpools/wordpool_EN.txt	ZOO	4	1	[0, 0, 0]	n/a	FR1	1	R1154D
157.212	0.967	165635	WORD_OFF	n/a	n/a	ZOO	4	1	[0, 0, 0]	n/a	FR1	1	R1154D
158.179	1.618	166602	WORD	n/a	wordpools/wordpool_EN.txt	PET	5	1	[0, 0, 0]	n/a	FR1	1	R1154D
159.797	0.783	168220	WORD_OFF	n/a	n/a	PET	5	1	[0, 0, 0]	n/a	FR1	1	R1154D
160.58	1.616	169003	WORD	n/a	wordpools/wordpool_EN.txt	FARM	6	1	[0, 0, 0]	n/a	FR1	1	R1154D
162.196	0.984	170619	WORD_OFF	n/a	n/a	FARM	6	1	[0, 0, 0]	n/a	FR1	1	R1154D
163.18	1.618	171603	WORD	n/a	wordpools/wordpool_EN.txt	DOG	7	1	[0, 0, 0]	n/a	FR1	1	R1154D
164.798	0.8	173221	WORD_OFF	n/a	n/a	DOG	7	1	[0, 0, 0]	n/a	FR1	1	R1154D
165.598	1.616	174021	WORD	n/a	wordpools/wordpool_EN.txt	CUP	8	1	[0, 0, 0]	n/a	FR1	1	R1154D
167.214	0.867	175637	WORD_OFF	n/a	n/a	CUP	8	1	[0, 0, 0]	n/a	FR1	1	R1154D
168.081	1.618	176504	WORD	n/a	wordpools/wordpool_EN.txt	CORN	9	1	[0, 0, 0]	n/a	FR1	1	R1154D
169.699	0.783	178122	WORD_OFF	n/a	n/a	CORN	9	1	[0, 0, 0]	n/a	FR1	1	R1154D
170.482	1.616	178905	WORD	n/a	wordpools/wordpool_EN.txt	KITE	10	1	[0, 0, 0]	n/a	FR1	1	R1154D
172.098	0.867	180521	WORD_OFF	n/a	n/a	KITE	10	1	[0, 0, 0]	n/a	FR1	1	R1154D
172.965	1.618	181388	WORD	n/a	wordpools/wordpool_EN.txt	HORSE	11	1	[0, 0, 0]	n/a	FR1	1	R1154D
174.583	0.9	183005	WORD_OFF	n/a	n/a	HORSE	11	1	[0, 0, 0]	n/a	FR1	1	R1154D
175.483	1.616	183905	WORD	n/a	wordpools/wordpool_EN.txt	BIRD	12	1	[0, 0, 0]	n/a	FR1	1	R1154D
177.099	0.0	185521	WORD_OFF	n/a	n/a	BIRD	12	1	[0, 0, 0]	n/a	FR1	1	R1154D
177.099	0.0	185521	DISTRACT_START	n/a	n/a	n/a	-999	1	[0, 0, 0]	n/a	FR1	1	R1154D
177.099	0.017	185521	START	n/a	n/a	n/a	-999	1	[-999, -999, -999]	n/a	FR1	1	R1154D
177.116	4.251	185538	PROB	4.251	n/a	n/a	-999	1	[6, 7, 4]	17	FR1	1	R1154D
181.367	2.251	189789	PROB	2.251	n/a	n/a	-999	1	[5, 4, 6]	15	FR1	1	R1154D
183.618	2.0	192040	PROB	2.0	n/a	n/a	-999	1	[3, 3, 9]	15	FR1	1	R1154D
185.618	2.051	194040	PROB	2.051	n/a	n/a	-999	1	[1, 6, 3]	10	FR1	1	R1154D
187.669	2.199	196091	PROB	2.199	n/a	n/a	-999	1	[4, 4, 4]	12	FR1	1	R1154D
189.868	2.668	198290	PROB	2.668	n/a	n/a	-999	1	[5, 4, 7]	16	FR1	1	R1154D
192.536	2.0	200958	PROB	2.0	n/a	n/a	-999	1	[1, 3, 7]	11	FR1	1	R1154D
194.536	2.433	202957	PROB	2.433	n/a	n/a	-999	1	[2, 9, 4]	13	FR1	1	R1154D
196.969	1.903	205390	PROB	1.903	n/a	n/a	-999	1	[7, 4, 1]	12	FR1	1	R1154D
198.872	0.014	207293	STOP	n/a	n/a	n/a	-999	1	[-999, -999, -999]	n/a	FR1	1	R1154D
198.886	0.518	207307	DISTRACT_END	n/a	n/a	n/a	-999	1	[0, 0, 0]	n/a	FR1	1	R1154D
199.404	0.517	207825	RETRIEVAL_ORIENT	n/a	n/a	n/a	-999	1	[0, 0, 0]	n/a	FR1	1	R1154D
199.921	0.787	208342	REC_START	n/a	n/a	n/a	-999	1	[0, 0, 0]	n/a	FR1	1	R1154D
200.708	0.74	209129	REC_WORD	0.74	n/a	CAT	-999	1	[0, 0, 0]	n/a	FR1	1	R1154D
201.448	0.342	209869	REC_WORD	0.342	n/a	DOG	-999	1	[0, 0, 0]	n/a	FR1	1	R1154D
201.79	0.552	210211	REC_WORD	0.552	n/a	ZOO	-999	1	[0, 0, 0]	n/a	FR1	1	R1154D
202.342	0.764	210763	REC_WORD	0.764	n/a	HORSE	-999	1	[0, 0, 0]	n/a	FR1	1	R1154D
203.106	2.057	211527	REC_WORD	2.057	n/a	ANT	-999	1	[0, 0, 0]	n/a	FR1	1	R1154D
205.163	0.92	213584	REC_WORD	0.92	n/a	FARM	-999	1	[0, 0, 0]	n/a	FR1	1	R1154D
206.083	0.535	214504	REC_WORD	0.535	n/a	CUP	-999	1	[0, 0, 0]	n/a	FR1	1	R1154D
206.618	6.974	215039	REC_WORD	6.974	n/a	CORN	-999	1	[0, 0, 0]	n/a	FR1	1	R1154D
213.592	16.339	222012	REC_WORD_VV	16.339	n/a	<>	-999	1	[0, 0, 0]	n/a	FR1	1	R1154D
229.931	4.912	238350	REC_END	n/a	n/a	n/a	-999	1	[0, 0, 0]	n/a	FR1	1	R1154D
234.843	0.5	243262	TRIAL	n/a	n/a	n/a	-999	2	[0, 0, 0]	n/a	FR1	1	R1154D
235.343	10.428	243762	COUNTDOWN_START	n/a	n/a	n/a	-999	2	[0, 0, 0]	n/a	FR1	1	R1154D
245.771	0.008	254190	COUNTDOWN_END	n/a	n/a	n/a	-999	2	[0, 0, 0]	n/a	FR1	1	R1154D
245.779	1.617	254198	ORIENT	n/a	n/a	n/a	-999	2	[0, 0, 0]	n/a	FR1	1	R1154D
247.396	1.884	255815	ORIENT_OFF	n/a	n/a	n/a	-999	2	[0, 0, 0]	n/a	FR1	1	R1154D
249.28	1.616	257698	WORD	n/a	wordpools/wordpool_EN.txt	APE	1	2	[0, 0, 0]	n/a	FR1	1	R1154D
250.896	0.917	259314	WORD_OFF	n/a	n/a	APE	1	2	[0, 0, 0]	n/a	FR1	1	R1154D
251.813	1.618	260231	WORD	n/a	wordpools/wordpool_EN.txt	STOVE	2	2	[0, 0, 0]	n/a	FR1	1	R1154D
253.431	0.816	261849	WORD_OFF	n/a	n/a	STOVE	2	2	[0, 0, 0]	n/a	FR1	1	R1154D
254.247	1.616	262665	WORD	n/a	wordpools/wordpool_EN.txt	CLOTH	3	2	[0, 0, 0]	n/a	FR1	1	R1154D
255.863	0.818	264281	WORD_OFF	n/a	n/a	CLOTH	3	2	[0, 0, 0]	n/a	FR1	1	R1154D
256.681	1.617	265099	WORD	n/a	wordpools/wordpool_EN.txt	PIN	4	2	[0, 0, 0]	n/a	FR1	1	R1154D
258.298	0.833	266716	WORD_OFF	n/a	n/a	PIN	4	2	[0, 0, 0]	n/a	FR1	1	R1154D
259.131	1.618	267549	WORD	n/a	wordpools/wordpool_EN.txt	HAT	5	2	[0, 0, 0]	n/a	FR1	1	R1154D
260.749	0.816	269167	WORD_OFF	n/a	n/a	HAT	5	2	[0, 0, 0]	n/a	FR1	1	R1154D
261.565	1.616	269983	WORD	n/a	wordpools/wordpool_EN.txt	DESK	6	2	[0, 0, 0]	n/a	FR1	1	R1154D
263.181	0.9	271599	WORD_OFF	n/a	n/a	DESK	6	2	[0, 0, 0]	n/a	FR1	1	R1154D
264.081	1.618	272499	WORD	n/a	wordpools/wordpool_EN.txt	SOUP	7	2	[0, 0, 0]	n/a	FR1	1	R1154D
265.699	0.984	274117	WORD_OFF	n/a	n/a	SOUP	7	2	[0, 0, 0]	n/a	FR1	1	R1154D
266.683	1.617	275100	WORD	n/a	wordpools/wordpool_EN.txt	DOLL	8	2	[0, 0, 0]	n/a	FR1	1	R1154D
268.3	0.967	276717	WORD_OFF	n/a	n/a	DOLL	8	2	[0, 0, 0]	n/a	FR1	1	R1154D
269.267	1.616	277684	WORD	n/a	wordpools/wordpool_EN.txt	ROSE	9	2	[0, 0, 0]	n/a	FR1	1	R1154D
270.883	1.017	279300	WORD_OFF	n/a	n/a	ROSE	9	2	[0, 0, 0]	n/a	FR1	1	R1154D
271.9	1.618	280317	WORD	n/a	wordpools/wordpool_EN.txt	LAMP	10	2	[0, 0, 0]	n/a	FR1	1	R1154D
273.518	1.0	281935	WORD_OFF	n/a	n/a	LAMP	10	2	[0, 0, 0]	n/a	FR1	1	R1154D
274.518	1.616	282935	WORD	n/a	wordpools/wordpool_EN.txt	GLASS	11	2	[0, 0, 0]	n/a	FR1	1	R1154D
276.134	0.916	284551	WORD_OFF	n/a	n/a	GLASS	11	2	[0, 0, 0]	n/a	FR1	1	R1154D
277.05	1.602	285467	WORD	n/a	wordpools/wordpool_EN.txt	BOOT	12	2	[0, 0, 0]	n/a	FR1	1	R1154D
278.652	0.0	287069	WORD_OFF	n/a	n/a	BOOT	12	2	[0, 0, 0]	n/a	FR1	1	R1154D
278.652	0.0	287069	DISTRACT_START	n/a	n/a	n/a	-999	2	[0, 0, 0]	n/a	FR1	1	R1154D
278.652	0.017	287069	START	n/a	n/a	n/a	-999	2	[-999, -999, -999]	n/a	FR1	1	R1154D
278.669	3.633	287086	PROB	3.633	n/a	n/a	-999	2	[6, 2, 9]	17	FR1	1	R1154D
282.302	1.616	290719	PROB	1.616	n/a	n/a	-999	2	[1, 9, 5]	15	FR1	1	R1154D
283.918	2.151	292335	PROB	2.151	n/a	n/a	-999	2	[9, 1, 5]	15	FR1	1	R1154D
286.069	2.185	294485	PROB	2.185	n/a	n/a	-999	2	[9, 2, 7]	18	FR1	1	R1154D
288.254	5.234	296670	PROB	5.234	n/a	n/a	-999	2	[8, 5, 9]	22	FR1	1	R1154D
293.488	2.034	301904	PROB	2.034	n/a	n/a	-999	2	[2, 6, 2]	10	FR1	1	R1154D
295.522	2.2	303938	PROB	2.2	n/a	n/a	-999	2	[1, 5, 4]	10	FR1	1	R1154D
297.722	3.213	306138	PROB	3.213	n/a	n/a	-999	2	[8, 6, 4]	18	FR1	1	R1154D
300.935	0.02	309351	STOP	n/a	n/a	n/a	-999	2	[-999, -999, -999]	n/a	FR1	1	R1154D
300.955	0.634	309371	DISTRACT_END	n/a	n/a	n/a	-999	2	[0, 0, 0]	n/a	FR1	1	R1154D
301.589	0.517	310005	RETRIEVAL_ORIENT	n/a	n/a	n/a	-999	2	[0, 0, 0]	n/a	FR1	1	R1154D
302.106	1.403	310522	REC_START	n/a	n/a	n/a	-999	2	[0, 0, 0]	n/a	FR1	1	R1154D
303.509	1.18	311924	REC_WORD	1.18	n/a	APE	-999	2	[0, 0, 0]	n/a	FR1	1	R1154D
304.689	1.788	313104	REC_WORD	1.788	n/a	SOUP	-999	2	[0, 0, 0]	n/a	FR1	1	R1154D
306.477	7.847	314892	REC_WORD	7.847	n/a	ROSE	-999	2	[0, 0, 0]	n/a	FR1	1	R1154D
314.324	6.79	322739	REC_WORD	6.79	n/a	DOLL	-999	2	[0, 0, 0]	n/a	FR1	1	R1154D
321.114	1.0	329529	REC_WORD_VV	1.0	n/a	<>	-999	2	[0, 0, 0]	n/a	FR1	1	R1154D
322.114	1.994	330528	REC_WORD_VV	1.994	n/a	<>	-999	2	[0, 0, 0]	n/a	FR1	1	R1154D
324.108	8.008	332522	REC_WORD_VV	8.008	n/a	<>	-999	2	[0, 0, 0]	n/a	FR1	1	R1154D
332.116	5.263	340530	REC_END	n/a	n/a	n/a	-999	2	[0, 0, 0]	n/a	FR1	1	R1154D
337.379	0.5	345793	TRIAL	n/a	n/a	n/a	-999	3	[0, 0, 0]	n/a	FR1	1	R1154D
337.879	10.428	346293	COUNTDOWN_START	n/a	n/a	n/a	-999	3	[0, 0, 0]	n/a	FR1	1	R1154D
348.307	0.008	356720	COUNTDOWN_END	n/a	n/a	n/a	-999	3	[0, 0, 0]	n/a	FR1	1	R1154D
348.315	1.616	356728	ORIENT	n/a	n/a	n/a	-999	3	[0, 0, 0]	n/a	FR1	1	R1154D
349.931	2.0	358344	ORIENT_OFF	n/a	n/a	n/a	-999	3	[0, 0, 0]	n/a	FR1	1	R1154D
351.931	1.618	360344	WORD	n/a	wordpools/wordpool_EN.txt	DRUM	1	3	[0, 0, 0]	n/a	FR1	1	R1154D
353.549	0.983	361962	WORD_OFF	n/a	n/a	DRUM	1	3	[0, 0, 0]	n/a	FR1	1	R1154D
354.532	1.616	362945	WORD	n/a	wordpools/wordpool_EN.txt	SQUARE	2	3	[0, 0, 0]	n/a	FR1	1	R1154D
356.148	0.884	364561	WORD_OFF	n/a	n/a	SQUARE	2	3	[0, 0, 0]	n/a	FR1	1	R1154D
357.032	1.618	365445	WORD	n/a	wordpools/wordpool_EN.txt	ARK	3	3	[0, 0, 0]	n/a	FR1	1	R1154D
358.65	0.783	367062	WORD_OFF	n/a	n/a	ARK	3	3	[0, 0, 0]	n/a	FR1	1	R1154D
359.433	1.616	367845	WORD	n/a	wordpools/wordpool_EN.txt	CHEEK	4	3	[0, 0, 0]	n/a	FR1	1	R1154D
361.049	0.817	369461	WORD_OFF	n/a	n/a	CHEEK	4	3	[0, 0, 0]	n/a	FR1	1	R1154D
361.866	1.618	370278	WORD	n/a	wordpools/wordpool_EN.txt	BAND	5	3	[0, 0, 0]	n/a	FR1	1	R1154D
363.484	0.783	371896	WORD_OFF	n/a	n/a	BAND	5	3	[0, 0, 0]	n/a	FR1	1	R1154D
364.267	1.616	372679	WORD	n/a	wordpools/wordpool_EN.txt	VAN	6	3	[0, 0, 0]	n/a	FR1	1	R1154D
365.883	0.902	374295	WORD_OFF	n/a	n/a	VAN	6	3	[0, 0, 0]	n/a	FR1	1	R1154D
366.785	1.617	375197	WORD	n/a	wordpools/wordpool_EN.txt	ROAD	7	3	[0, 0, 0]	n/a	FR1	1	R1154D
368.402	0.95	376814	WORD_OFF	n/a	n/a	ROAD	7	3	[0, 0, 0]	n/a	FR1	1	R1154D
369.352	1.616	377764	WORD	n/a	wordpools/wordpool_EN.txt	HORN	8	3	[0, 0, 0]	n/a	FR1	1	R1154D
370.968	0.867	379380	WORD_OFF	n/a	n/a	HORN	8	3	[0, 0, 0]	n/a	FR1	1	R1154D
371.835	1.617	380247	WORD	n/a	wordpools/wordpool_EN.txt	THUMB	9	3	[0, 0, 0]	n/a	FR1	1	R1154D
373.452	1.001	381864	WORD_OFF	n/a	n/a	THUMB	9	3	[0, 0, 0]	n/a	FR1	1	R1154D
374.453	1.616	382865	WORD	n/a	wordpools/wordpool_EN.txt	CANE	10	3	[0, 0, 0]	n/a	FR1	1	R1154D
376.069	0.9	384481	WORD_OFF	n/a	n/a	CANE	10	3	[0, 0, 0]	n/a	FR1	1	R1154D
376.969	1.618	385380	WORD	n/a	wordpools/wordpool_EN.txt	ARM	11	3	[0, 0, 0]	n/a	FR1	1	R1154D
378.587	0.933	386998	WORD_OFF	n/a	n/a	ARM	11	3	[0, 0, 0]	n/a	FR1	1	R1154D
379.52	1.616	387931	WORD	n/a	wordpools/wordpool_EN.txt	SKI	12	3	[0, 0, 0]	n/a	FR1	1	R1154D
381.136	0.0	389547	WORD_OFF	n/a	n/a	SKI	12	3	[0, 0, 0]	n/a	FR1	1	R1154D
381.136	0.001	389547	DISTRACT_START	n/a	n/a	n/a	-999	3	[0, 0, 0]	n/a	FR1	1	R1154D
381.137	0.016	389548	START	n/a	n/a	n/a	-999	3	[-999, -999, -999]	n/a	FR1	1	R1154D
381.153	3.0	389564	PROB	3.0	n/a	n/a	-999	3	[7, 1, 9]	17	FR1	1	R1154D
384.153	2.168	392564	PROB	2.168	n/a	n/a	-999	3	[2, 3, 8]	13	FR1	1	R1154D
386.321	2.468	394732	PROB	2.468	n/a	n/a	-999	3	[1, 5, 2]	8	FR1	1	R1154D
388.789	2.567	397200	PROB	2.567	n/a	n/a	-999	3	[7, 2, 8]	17	FR1	1	R1154D
391.356	2.384	399767	PROB	2.384	n/a	n/a	-999	3	[3, 3, 8]	14	FR1	1	R1154D
393.74	3.75	402151	PROB	3.75	n/a	n/a	-999	3	[8, 4, 8]	20	FR1	1	R1154D
397.49	2.867	405900	PROB	2.867	n/a	n/a	-999	3	[4, 9, 4]	17	FR1	1	R1154D
400.357	3.421	408767	PROB	3.421	n/a	n/a	-999	3	[4, 4, 9]	17	FR1	1	R1154D
403.778	0.013	412188	STOP	n/a	n/a	n/a	-999	3	[-999, -999, -999]	n/a	FR1	1	R1154D
403.791	0.55	412201	DISTRACT_END	n/a	n/a	n/a	-999	3	[0, 0, 0]	n/a	FR1	1	R1154D
404.341	0.517	412751	RETRIEVAL_ORIENT	n/a	n/a	n/a	-999	3	[0, 0, 0]	n/a	FR1	1	R1154D
404.858	1.325	413268	REC_START	n/a	n/a	n/a	-999	3	[0, 0, 0]	n/a	FR1	1	R1154D
406.183	1.821	414593	REC_WORD_VV	1.821	n/a	<>	-999	3	[0, 0, 0]	n/a	FR1	1	R1154D
408.004	0.856	416414	REC_WORD	0.856	n/a	VAN	-999	3	[0, 0, 0]	n/a	FR1	1	R1154D
408.86	1.114	417270	REC_WORD	1.114	n/a	HORN	-999	3	[0, 0, 0]	n/a	FR1	1	R1154D
409.974	1.224	418384	REC_WORD	1.224	n/a	BAND	-999	3	[0, 0, 0]	n/a	FR1	1	R1154D
411.198	9.519	419608	REC_WORD	9.519	n/a	DRUM	-999	3	[0, 0, 0]	n/a	FR1	1	R1154D
420.717	14.151	429126	REC_WORD	14.151	n/a	APE	-999	3	[0, 0, 0]	n/a	FR1	1	R1154D
434.868	4.279	443276	REC_END	n/a	n/a	n/a	-999	3	[0, 0, 0]	n/a	FR1	1	R1154D
439.147	0.5	447555	TRIAL	n/a	n/a	n/a	-999	4	[0, 0, 0]	n/a	FR1	1	R1154D
439.647	10.428	448055	COUNTDOWN_START	n/a	n/a	n/a	-999	4	[0, 0, 0]	n/a	FR1	1	R1154D
450.075	0.007	458482	COUNTDOWN_END	n/a	n/a	n/a	-999	4	[0, 0, 0]	n/a	FR1	1	R1154D
450.082	1.601	458489	ORIENT	n/a	n/a	n/a	-999	4	[0, 0, 0]	n/a	FR1	1	R1154D
451.683	2.051	460090	ORIENT_OFF	n/a	n/a	n/a	-999	4	[0, 0, 0]	n/a	FR1	1	R1154D
453.734	1.617	462141	WORD	n/a	wordpools/wordpool_EN.txt	GEESE	1	4	[0, 0, 0]	n/a	FR1	1	R1154D
455.351	0.917	463758	WORD_OFF	n/a	n/a	GEESE	1	4	[0, 0, 0]	n/a	FR1	1	R1154D
456.268	1.615	464675	WORD	n/a	wordpools/wordpool_EN.txt	HAWK	2	4	[0, 0, 0]	n/a	FR1	1	R1154D
457.883	0.934	466290	WORD_OFF	n/a	n/a	HAWK	2	4	[0, 0, 0]	n/a	FR1	1	R1154D
458.817	1.618	467224	WORD	n/a	wordpools/wordpool_EN.txt	BUSH	3	4	[0, 0, 0]	n/a	FR1	1	R1154D
460.435	0.984	468842	WORD_OFF	n/a	n/a	BUSH	3	4	[0, 0, 0]	n/a	FR1	1	R1154D
461.419	1.616	469826	WORD	n/a	wordpools/wordpool_EN.txt	TOE	4	4	[0, 0, 0]	n/a	FR1	1	R1154D
463.035	0.983	471442	WORD_OFF	n/a	n/a	TOE	4	4	[0, 0, 0]	n/a	FR1	1	R1154D
464.018	1.618	472425	WORD	n/a	wordpools/wordpool_EN.txt	NEST	5	4	[0, 0, 0]	n/a	FR1	1	R1154D
465.636	0.767	474043	WORD_OFF	n/a	n/a	NEST	5	4	[0, 0, 0]	n/a	FR1	1	R1154D
466.403	1.616	474810	WORD	n/a	wordpools/wordpool_EN.txt	CAGE	6	4	[0, 0, 0]	n/a	FR1	1	R1154D
468.019	0.833	476426	WORD_OFF	n/a	n/a	CAGE	6	4	[0, 0, 0]	n/a	FR1	1	R1154D
468.852	1.618	477258	WORD	n/a	wordpools/wordpool_EN.txt	POND	7	4	[0, 0, 0]	n/a	FR1	1	R1154D
470.47	0.95	478876	WORD_OFF	n/a	n/a	POND	7	4	[0, 0, 0]	n/a	FR1	1	R1154D
471.42	1.616	479826	WORD	n/a	wordpools/wordpool_EN.txt	STRAW	8	4	[0, 0, 0]	n/a	FR1	1	R1154D
473.036	0.917	481442	WORD_OFF	n/a	n/a	STRAW	8	4	[0, 0, 0]	n/a	FR1	1	R1154D
473.953	1.601	482359	WORD	n/a	wordpools/wordpool_EN.txt	TREE	9	4	[0, 0, 0]	n/a	FR1	1	R1154D
475.554	0.867	483960	WORD_OFF	n/a	n/a	TREE	9	4	[0, 0, 0]	n/a	FR1	1	R1154D
476.421	1.616	484827	WORD	n/a	wordpools/wordpool_EN.txt	TAIL	10	4	[0, 0, 0]	n/a	FR1	1	R1154D
478.037	0.834	486443	WORD_OFF	n/a	n/a	TAIL	10	4	[0, 0, 0]	n/a	FR1	1	R1154D
478.871	1.618	487277	WORD	n/a	wordpools/wordpool_EN.txt	WING	11	4	[0, 0, 0]	n/a	FR1	1	R1154D
480.489	0.8	488895	WORD_OFF	n/a	n/a	WING	11	4	[0, 0, 0]	n/a	FR1	1	R1154D
481.289	1.616	489695	WORD	n/a	wordpools/wordpool_EN.txt	SLUSH	12	4	[0, 0, 0]	n/a	FR1	1	R1154D
482.905	0.0	491311	WORD_OFF	n/a	n/a	SLUSH	12	4	[0, 0, 0]	n/a	FR1	1	R1154D
482.905	0.0	491311	DISTRACT_START	n/a	n/a	n/a	-999	4	[0, 0, 0]	n/a	FR1	1	R1154D
482.905	0.016	491311	START	n/a	n/a	n/a	-999	4	[-999, -999, -999]	n/a	FR1	1	R1154D
482.921	2.669	491327	PROB	2.669	n/a	n/a	-999	4	[2, 8, 5]	15	FR1	1	R1154D
485.59	1.9	493996	PROB	1.9	n/a	n/a	-999	4	[9, 2, 7]	18	FR1	1	R1154D
487.49	2.234	495895	PROB	2.234	n/a	n/a	-999	4	[7, 6, 3]	16	FR1	1	R1154D
489.724	2.516	498129	PROB	2.516	n/a	n/a	-999	4	[3, 6, 7]	16	FR1	1	R1154D
492.24	2.235	500645	PROB	2.235	n/a	n/a	-999	4	[5, 2, 7]	14	FR1	1	R1154D
494.475	3.217	502880	PROB	3.217	n/a	n/a	-999	4	[4, 7, 7]	18	FR1	1	R1154D
497.692	3.266	506097	PROB	3.266	n/a	n/a	-999	4	[5, 6, 5]	16	FR1	1	R1154D
500.958	2.162	509363	PROB	2.162	n/a	n/a	-999	4	[7, 6, 3]	16	FR1	1	R1154D
503.12	0.022	511525	STOP	n/a	n/a	n/a	-999	4	[-999, -999, -999]	n/a	FR1	1	R1154D
503.142	0.601	511547	DISTRACT_END	n/a	n/a	n/a	-999	4	[0, 0, 0]	n/a	FR1	1	R1154D
503.743	0.517	512148	RETRIEVAL_ORIENT	n/a	n/a	n/a	-999	4	[0, 0, 0]	n/a	FR1	1	R1154D
504.26	1.125	512665	REC_START	n/a	n/a	n/a	-999	4	[0, 0, 0]	n/a	FR1	1	R1154D
505.385	0.943	513789	REC_WORD	0.943	n/a	HAWK	-999	4	[0, 0, 0]	n/a	FR1	1	R1154D
506.328	4.594	514732	REC_WORD	4.594	n/a	NEST	-999	4	[0, 0, 0]	n/a	FR1	1	R1154D
510.922	1.791	519326	REC_WORD	1.791	n/a	TOE	-999	4	[0, 0, 0]	n/a	FR1	1	R1154D
512.713	4.266	521117	REC_WORD	4.266	n/a	CAGE	-999	4	[0, 0, 0]	n/a	FR1	1	R1154D
516.979	0.401	525383	REC_WORD_VV	0.401	n/a	<>	-999	4	[0, 0, 0]	n/a	FR1	1	R1154D
517.38	0.646	525784	REC_WORD	0.646	n/a	BUSH	-999	4	[0, 0, 0]	n/a	FR1	1	R1154D
518.026	9.882	526430	REC_WORD	9.882	n/a	TREE	-999	4	[0, 0, 0]	n/a	FR1	1	R1154D
527.908	4.249	536311	REC_WORD_VV	4.249	n/a	<>	-999	4	[0, 0, 0]	n/a	FR1	1	R1154D
532.157	0.188	540560	REC_WORD_VV	0.188	n/a	<>	-999	4	[0, 0, 0]	n/a	FR1	1	R1154D
532.345	1.926	540748	REC_WORD	1.926	n/a	SLUSH	-999	4	[0, 0, 0]	n/a	FR1	1	R1154D
534.271	5.678	542674	REC_END	n/a	n/a	n/a	-999	4	[0, 0, 0]	n/a	FR1	1	R1154D
539.949	0.5	548352	TRIAL	n/a	n/a	n/a	-999	5	[0, 0, 0]	n/a	FR1	1	R1154D
540.449	10.428	548852	COUNTDOWN_START	n/a	n/a	n/a	-999	5	[0, 0, 0]	n/a	FR1	1	R1154D
550.877	0.007	559279	COUNTDOWN_END	n/a	n/a	n/a	-999	5	[0, 0, 0]	n/a	FR1	1	R1154D
550.884	1.618	559286	ORIENT	n/a	n/a	n/a	-999	5	[0, 0, 0]	n/a	FR1	1	R1154D
552.502	2.084	560904	ORIENT_OFF	n/a	n/a	n/a	-999	5	[0, 0, 0]	n/a	FR1	1	R1154D
554.586	1.616	562988	WORD	n/a	wordpools/wordpool_EN.txt	BAT	1	5	[0, 0, 0]	n/a	FR1	1	R1154D
556.202	1.0	564604	WORD_OFF	n/a	n/a	BAT	1	5	[0, 0, 0]	n/a	FR1	1	R1154D
557.202	1.617	565604	WORD	n/a	wordpools/wordpool_EN.txt	GLOVE	2	5	[0, 0, 0]	n/a	FR1	1	R1154D
558.819	0.951	567221	WORD_OFF	n/a	n/a	GLOVE	2	5	[0, 0, 0]	n/a	FR1	1	R1154D
559.77	1.617	568172	WORD	n/a	wordpools/wordpool_EN.txt	HAND	3	5	[0, 0, 0]	n/a	FR1	1	R1154D
561.387	0.95	569788	WORD_OFF	n/a	n/a	HAND	3	5	[0, 0, 0]	n/a	FR1	1	R1154D
562.337	1.616	570738	WORD	n/a	wordpools/wordpool_EN.txt	PEN	4	5	[0, 0, 0]	n/a	FR1	1	R1154D
563.953	0.784	572354	WORD_OFF	n/a	n/a	PEN	4	5	[0, 0, 0]	n/a	FR1	1	R1154D
564.737	1.617	573138	WORD	n/a	wordpools/wordpool_EN.txt	BOY	5	5	[0, 0, 0]	n/a	FR1	1	R1154D
566.354	0.833	574755	WORD_OFF	n/a	n/a	BOY	5	5	[0, 0, 0]	n/a	FR1	1	R1154D
567.187	1.618	575588	WORD	n/a	wordpools/wordpool_EN.txt	STOOL	6	5	[0, 0, 0]	n/a	FR1	1	R1154D
568.805	0.817	577206	WORD_OFF	n/a	n/a	STOOL	6	5	[0, 0, 0]	n/a	FR1	1	R1154D
569.622	1.616	578023	WORD	n/a	wordpools/wordpool_EN.txt	PURSE	7	5	[0, 0, 0]	n/a	FR1	1	R1154D
571.238	0.9	579639	WORD_OFF	n/a	n/a	PURSE	7	5	[0, 0, 0]	n/a	FR1	1	R1154D
572.138	1.618	580539	WORD	n/a	wordpools/wordpool_EN.txt	HOOK	8	5	[0, 0, 0]	n/a	FR1	1	R1154D
573.756	0.833	582157	WORD_OFF	n/a	n/a	HOOK	8	5	[0, 0, 0]	n/a	FR1	1	R1154D
574.589	1.616	582990	WORD	n/a	wordpools/wordpool_EN.txt	BREAD	9	5	[0, 0, 0]	n/a	FR1	1	R1154D
576.205	0.834	584606	WORD_OFF	n/a	n/a	BREAD	9	5	[0, 0, 0]	n/a	FR1	1	R1154D
577.039	1.601	585440	WORD	n/a	wordpools/wordpool_EN.txt	NAIL	10	5	[0, 0, 0]	n/a	FR1	1	R1154D
578.64	0.817	587041	WORD_OFF	n/a	n/a	NAIL	10	5	[0, 0, 0]	n/a	FR1	1	R1154D
579.457	1.616	587857	WORD	n/a	wordpools/wordpool_EN.txt	PIE	11	5	[0, 0, 0]	n/a	FR1	1	R1154D
581.073	0.867	589473	WORD_OFF	n/a	n/a	PIE	11	5	[0, 0, 0]	n/a	FR1	1	R1154D
581.94	1.618	590340	WORD	n/a	wordpools/wordpool_EN.txt	ELF	12	5	[0, 0, 0]	n/a	FR1	1	R1154D
583.558	0.0	591958	WORD_OFF	n/a	n/a	ELF	12	5	[0, 0, 0]	n/a	FR1	1	R1154D
583.558	0.0	591958	DISTRACT_START	n/a	n/a	n/a	-999	5	[0, 0, 0]	n/a	FR1	1	R1154D
583.558	0.016	591958	START	n/a	n/a	n/a	-999	5	[-999, -999, -999]	n/a	FR1	1	R1154D
583.574	4.084	591974	PROB	4.084	n/a	n/a	-999	5	[8, 8, 6]	20	FR1	1	R1154D
587.658	2.017	596058	PROB	2.017	n/a	n/a	-999	5	[3, 4, 4]	11	FR1	1	R1154D
589.675	1.4	598075	PROB	1.4	n/a	n/a	-999	5	[2, 1, 9]	12	FR1	1	R1154D
591.075	2.301	599475	PROB	2.301	n/a	n/a	-999	5	[3, 8, 8]	19	FR1	1	R1154D
593.376	2.134	601776	PROB	2.134	n/a	n/a	-999	5	[2, 6, 2]	10	FR1	1	R1154D
595.51	2.884	603910	PROB	2.884	n/a	n/a	-999	5	[8, 3, 6]	17	FR1	1	R1154D
598.394	2.616	606793	PROB	2.616	n/a	n/a	-999	5	[7, 4, 4]	15	FR1	1	R1154D
601.01	4.342	609409	PROB	4.342	n/a	n/a	-999	5	[5, 4, 7]	16	FR1	1	R1154D
605.352	0.01	613751	STOP	n/a	n/a	n/a	-999	5	[-999, -999, -999]	n/a	FR1	1	R1154D
605.362	0.532	613761	DISTRACT_END	n/a	n/a	n/a	-999	5	[0, 0, 0]	n/a	FR1	1	R1154D
605.894	0.519	614293	RETRIEVAL_ORIENT	n/a	n/a	n/a	-999	5	[0, 0, 0]	n/a	FR1	1	R1154D
606.413	4.215	614812	REC_START	n/a	n/a	n/a	-999	5	[0, 0, 0]	n/a	FR1	1	R1154D
610.628	0.829	619027	REC_WORD	0.829	n/a	BAT	-999	5	[0, 0, 0]	n/a	FR1	1	R1154D
611.457	0.445	619856	REC_WORD	0.445	n/a	GLOVE	-999	5	[0, 0, 0]	n/a	FR1	1	R1154D
611.902	1.587	620301	REC_WORD	1.587	n/a	HAND	-999	5	[0, 0, 0]	n/a	FR1	1	R1154D
613.489	1.902	621888	REC_WORD	1.902	n/a	BOY	-999	5	[0, 0, 0]	n/a	FR1	1	R1154D
615.391	21.032	623790	REC_WORD	21.032	n/a	STOOL	-999	5	[0, 0, 0]	n/a	FR1	1	R1154D
636.423	4.561	644820	REC_END	n/a	n/a	n/a	-999	5	[0, 0, 0]	n/a	FR1	1	R1154D
640.984	0.5	649381	TRIAL	n/a	n/a	n/a	-999	6	[0, 0, 0]	n/a	FR1	1	R1154D
641.484	10.428	649881	COUNTDOWN_START	n/a	n/a	n/a	-999	6	[0, 0, 0]	n/a	FR1	1	R1154D
651.912	0.007	660309	COUNTDOWN_END	n/a	n/a	n/a	-999	6	[0, 0, 0]	n/a	FR1	1	R1154D
651.919	1.601	660316	ORIENT	n/a	n/a	n/a	-999	6	[0, 0, 0]	n/a	FR1	1	R1154D
653.52	2.217	661916	ORIENT_OFF	n/a	n/a	n/a	-999	6	[0, 0, 0]	n/a	FR1	1	R1154D
655.737	1.617	664133	WORD	n/a	wordpools/wordpool_EN.txt	SEAT	1	6	[0, 0, 0]	n/a	FR1	1	R1154D
657.354	0.783	665750	WORD_OFF	n/a	n/a	SEAT	1	6	[0, 0, 0]	n/a	FR1	1	R1154D
658.137	1.618	666533	WORD	n/a	wordpools/wordpool_EN.txt	PARK	2	6	[0, 0, 0]	n/a	FR1	1	R1154D
659.755	0.9	668151	WORD_OFF	n/a	n/a	PARK	2	6	[0, 0, 0]	n/a	FR1	1	R1154D
660.655	1.617	669051	WORD	n/a	wordpools/wordpool_EN.txt	ROOM	3	6	[0, 0, 0]	n/a	FR1	1	R1154D
662.272	0.966	670668	WORD_OFF	n/a	n/a	ROOM	3	6	[0, 0, 0]	n/a	FR1	1	R1154D
663.238	1.617	671634	WORD	n/a	wordpools/wordpool_EN.txt	HOUSE	4	6	[0, 0, 0]	n/a	FR1	1	R1154D
664.855	0.901	673251	WORD_OFF	n/a	n/a	HOUSE	4	6	[0, 0, 0]	n/a	FR1	1	R1154D
665.756	1.617	674152	WORD	n/a	wordpools/wordpool_EN.txt	SMILE	5	6	[0, 0, 0]	n/a	FR1	1	R1154D
667.373	0.916	675769	WORD_OFF	n/a	n/a	SMILE	5	6	[0, 0, 0]	n/a	FR1	1	R1154D
668.289	1.617	676685	WORD	n/a	wordpools/wordpool_EN.txt	MULE	6	6	[0, 0, 0]	n/a	FR1	1	R1154D
669.906	1.0	678302	WORD_OFF	n/a	n/a	MULE	6	6	[0, 0, 0]	n/a	FR1	1	R1154D
670.906	1.618	679301	WORD	n/a	wordpools/wordpool_EN.txt	OAR	7	6	[0, 0, 0]	n/a	FR1	1	R1154D
672.524	1.0	680919	WORD_OFF	n/a	n/a	OAR	7	6	[0, 0, 0]	n/a	FR1	1	R1154D
673.524	1.616	681919	WORD	n/a	wordpools/wordpool_EN.txt	JEEP	8	6	[0, 0, 0]	n/a	FR1	1	R1154D
675.14	0.85	683535	WORD_OFF	n/a	n/a	JEEP	8	6	[0, 0, 0]	n/a	FR1	1	R1154D
675.99	1.601	684385	WORD	n/a	wordpools/wordpool_EN.txt	TRUCK	9	6	[0, 0, 0]	n/a	FR1	1	R1154D
677.591	0.934	685986	WORD_OFF	n/a	n/a	TRUCK	9	6	[0, 0, 0]	n/a	FR1	1	R1154D
678.525	1.616	686920	WORD	n/a	wordpools/wordpool_EN.txt	LAWN	10	6	[0, 0, 0]	n/a	FR1	1	R1154D
680.141	0.767	688536	WORD_OFF	n/a	n/a	LAWN	10	6	[0, 0, 0]	n/a	FR1	1	R1154D
680.908	1.618	689303	WORD	n/a	wordpools/wordpool_EN.txt	SHIRT	11	6	[0, 0, 0]	n/a	FR1	1	R1154D
682.526	0.8	690921	WORD_OFF	n/a	n/a	SHIRT	11	6	[0, 0, 0]	n/a	FR1	1	R1154D
683.326	1.616	691721	WORD	n/a	wordpools/wordpool_EN.txt	DRESS	12	6	[0, 0, 0]	n/a	FR1	1	R1154D
684.942	0.0	693337	WORD_OFF	n/a	n/a	DRESS	12	6	[0, 0, 0]	n/a	FR1	1	R1154D
684.942	0.0	693337	DISTRACT_START	n/a	n/a	n/a	-999	6	[0, 0, 0]	n/a	FR1	1	R1154D
684.942	0.016	693337	START	n/a	n/a	n/a	-999	6	[-999, -999, -999]	n/a	FR1	1	R1154D
684.958	2.518	693353	PROB	2.518	n/a	n/a	-999	6	[3, 8, 3]	14	FR1	1	R1154D
687.476	3.068	695871	PROB	3.068	n/a	n/a	-999	6	[3, 3, 5]	11	FR1	1	R1154D
690.544	1.983	698938	PROB	1.983	n/a	n/a	-999	6	[6, 4, 5]	15	FR1	1	R1154D
692.527	2.134	700921	PROB	2.134	n/a	n/a	-999	6	[6, 5, 8]	19	FR1	1	R1154D
694.661	2.817	703055	PROB	2.817	n/a	n/a	-999	6	[7, 9, 2]	18	FR1	1	R1154D
697.478	2.583	705872	PROB	2.583	n/a	n/a	-999	6	[1, 3, 4]	8	FR1	1	R1154D
700.061	2.502	708455	PROB	2.502	n/a	n/a	-999	6	[9, 7, 1]	17	FR1	1	R1154D
702.563	1.867	710957	PROB	1.867	n/a	n/a	-999	6	[1, 1, 6]	8	FR1	1	R1154D
704.43	1.988	712824	PROB	1.988	n/a	n/a	-999	6	[5, 1, 2]	8	FR1	1	R1154D
706.418	0.012	714812	STOP	n/a	n/a	n/a	-999	6	[-999, -999, -999]	n/a	FR1	1	R1154D
706.43	0.632	714824	DISTRACT_END	n/a	n/a	n/a	-999	6	[0, 0, 0]	n/a	FR1	1	R1154D
707.062	0.519	715456	RETRIEVAL_ORIENT	n/a	n/a	n/a	-999	6	[0, 0, 0]	n/a	FR1	1	R1154D
707.581	0.919	715974	REC_START	n/a	n/a	n/a	-999	6	[0, 0, 0]	n/a	FR1	1	R1154D
708.5	0.6	716893	REC_WORD	0.6	n/a	RUM	-999	6	[0, 0, 0]	n/a	FR1	1	R1154D
709.1	0.688	717493	REC_WORD	0.688	n/a	HOUSE	-999	6	[0, 0, 0]	n/a	FR1	1	R1154D
709.788	0.73	718181	REC_WORD	0.73	n/a	SEAT	-999	6	[0, 0, 0]	n/a	FR1	1	R1154D
710.518	2.121	718911	REC_WORD	2.121	n/a	PARK	-999	6	[0, 0, 0]	n/a	FR1	1	R1154D
712.639	1.0	721032	REC_WORD_VV	1.0	n/a	<>	-999	6	[0, 0, 0]	n/a	FR1	1	R1154D
713.639	14.232	722032	REC_WORD_VV	14.232	n/a	<>	-999	6	[0, 0, 0]	n/a	FR1	1	R1154D
727.871	9.72	736263	REC_WORD	9.72	n/a	OAR	-999	6	[0, 0, 0]	n/a	FR1	1	R1154D
737.591	4.394	745983	REC_END	n/a	n/a	n/a	-999	6	[0, 0, 0]	n/a	FR1	1	R1154D
741.985	0.5	750377	TRIAL	n/a	n/a	n/a	-999	7	[0, 0, 0]	n/a	FR1	1	R1154D
742.485	10.428	750877	COUNTDOWN_START	n/a	n/a	n/a	-999	7	[0, 0, 0]	n/a	FR1	1	R1154D
752.913	0.008	761304	COUNTDOWN_END	n/a	n/a	n/a	-999	7	[0, 0, 0]	n/a	FR1	1	R1154D
752.921	1.618	761312	ORIENT	n/a	n/a	n/a	-999	7	[0, 0, 0]	n/a	FR1	1	R1154D
754.539	1.933	762930	ORIENT_OFF	n/a	n/a	n/a	-999	7	[0, 0, 0]	n/a	FR1	1	R1154D
756.472	1.616	764863	WORD	n/a	wordpools/wordpool_EN.txt	MUG	1	7	[0, 0, 0]	n/a	FR1	1	R1154D
758.088	1.001	766479	WORD_OFF	n/a	n/a	MUG	1	7	[0, 0, 0]	n/a	FR1	1	R1154D
759.089	1.618	767480	WORD	n/a	wordpools/wordpool_EN.txt	PIT	2	7	[0, 0, 0]	n/a	FR1	1	R1154D
760.707	0.766	769098	WORD_OFF	n/a	n/a	PIT	2	7	[0, 0, 0]	n/a	FR1	1	R1154D
761.473	1.616	769864	WORD	n/a	wordpools/wordpool_EN.txt	RAT	3	7	[0, 0, 0]	n/a	FR1	1	R1154D
763.089	0.767	771479	WORD_OFF	n/a	n/a	RAT	3	7	[0, 0, 0]	n/a	FR1	1	R1154D
763.856	1.618	772246	WORD	n/a	wordpools/wordpool_EN.txt	BROOM	4	7	[0, 0, 0]	n/a	FR1	1	R1154D
765.474	0.9	773864	WORD_OFF	n/a	n/a	BROOM	4	7	[0, 0, 0]	n/a	FR1	1	R1154D
766.374	1.616	774764	WORD	n/a	wordpools/wordpool_EN.txt	COUCH	5	7	[0, 0, 0]	n/a	FR1	1	R1154D
767.99	1.0	776380	WORD_OFF	n/a	n/a	COUCH	5	7	[0, 0, 0]	n/a	FR1	1	R1154D
768.99	1.618	777380	WORD	n/a	wordpools/wordpool_EN.txt	BRUSH	6	7	[0, 0, 0]	n/a	FR1	1	R1154D
770.608	1.001	778998	WORD_OFF	n/a	n/a	BRUSH	6	7	[0, 0, 0]	n/a	FR1	1	R1154D
771.609	1.615	779999	WORD	n/a	wordpools/wordpool_EN.txt	SLEEVE	7	7	[0, 0, 0]	n/a	FR1	1	R1154D
773.224	0.901	781614	WORD_OFF	n/a	n/a	SLEEVE	7	7	[0, 0, 0]	n/a	FR1	1	R1154D
774.125	1.618	782515	WORD	n/a	wordpools/wordpool_EN.txt	FAN	8	7	[0, 0, 0]	n/a	FR1	1	R1154D
775.743	0.967	784133	WORD_OFF	n/a	n/a	FAN	8	7	[0, 0, 0]	n/a	FR1	1	R1154D
776.71	1.616	785100	WORD	n/a	wordpools/wordpool_EN.txt	PIG	9	7	[0, 0, 0]	n/a	FR1	1	R1154D
778.326	0.934	786716	WORD_OFF	n/a	n/a	PIG	9	7	[0, 0, 0]	n/a	FR1	1	R1154D
779.26	1.616	787650	WORD	n/a	wordpools/wordpool_EN.txt	FUDGE	10	7	[0, 0, 0]	n/a	FR1	1	R1154D
780.876	0.933	789265	WORD_OFF	n/a	n/a	FUDGE	10	7	[0, 0, 0]	n/a	FR1	1	R1154D
781.809	1.618	790198	WORD	n/a	wordpools/wordpool_EN.txt	HOSE	11	7	[0, 0, 0]	n/a	FR1	1	R1154D
783.427	0.867	791816	WORD_OFF	n/a	n/a	HOSE	11	7	[0, 0, 0]	n/a	FR1	1	R1154D
784.294	1.616	792683	WORD	n/a	wordpools/wordpool_EN.txt	BOX	12	7	[0, 0, 0]	n/a	FR1	1	R1154D
785.91	0.0	794299	WORD_OFF	n/a	n/a	BOX	12	7	[0, 0, 0]	n/a	FR1	1	R1154D
785.91	0.001	794299	DISTRACT_START	n/a	n/a	n/a	-999	7	[0, 0, 0]	n/a	FR1	1	R1154D
785.911	0.016	794300	START	n/a	n/a	n/a	-999	7	[-999, -999, -999]	n/a	FR1	1	R1154D
785.927	2.435	794316	PROB	2.435	n/a	n/a	-999	7	[6, 7, 3]	16	FR1	1	R1154D
788.362	8.401	796751	PROB	8.401	n/a	n/a	-999	7	[8, 7, 8]	23	FR1	1	R1154D
796.763	4.584	805152	PROB	4.584	n/a	n/a	-999	7	[9, 6, 7]	22	FR1	1	R1154D
801.347	2.101	809735	PROB	2.101	n/a	n/a	-999	7	[6, 3, 7]	16	FR1	1	R1154D
803.448	2.2	811836	PROB	2.2	n/a	n/a	-999	7	[4, 1, 1]	6	FR1	1	R1154D
805.648	3.343	814036	PROB	3.343	n/a	n/a	-999	7	[8, 9, 4]	21	FR1	1	R1154D
808.991	0.006	817379	STOP	n/a	n/a	n/a	-999	7	[-999, -999, -999]	n/a	FR1	1	R1154D
808.997	0.552	817385	DISTRACT_END	n/a	n/a	n/a	-999	7	[0, 0, 0]	n/a	FR1	1	R1154D
809.549	0.516	817937	RETRIEVAL_ORIENT	n/a	n/a	n/a	-999	7	[0, 0, 0]	n/a	FR1	1	R1154D
810.065	0.972	818453	REC_START	n/a	n/a	n/a	-999	7	[0, 0, 0]	n/a	FR1	1	R1154D
811.037	1.287	819425	REC_WORD_VV	1.287	n/a	<>	-999	7	[0, 0, 0]	n/a	FR1	1	R1154D
812.324	0.473	820712	REC_WORD_VV	0.473	n/a	<>	-999	7	[0, 0, 0]	n/a	FR1	1	R1154D
812.797	0.937	821185	REC_WORD	0.937	n/a	PIG	-999	7	[0, 0, 0]	n/a	FR1	1	R1154D
813.734	1.988	822122	REC_WORD	1.988	n/a	SLEEVE	-999	7	[0, 0, 0]	n/a	FR1	1	R1154D
815.722	20.571	824110	REC_WORD	20.571	n/a	COUCH	-999	7	[0, 0, 0]	n/a	FR1	1	R1154D
836.293	3.782	844679	REC_WORD	3.782	n/a	MUG	-999	7	[0, 0, 0]	n/a	FR1	1	R1154D
840.075	11.047	848461	REC_END	n/a	n/a	n/a	-999	7	[0, 0, 0]	n/a	FR1	1	R1154D
851.122	0.5	859508	TRIAL	n/a	n/a	n/a	-999	8	[0, 0, 0]	n/a	FR1	1	R1154D
851.622	10.428	860008	COUNTDOWN_START	n/a	n/a	n/a	-999	8	[0, 0, 0]	n/a	FR1	1	R1154D
862.05	0.007	870435	COUNTDOWN_END	n/a	n/a	n/a	-999	8	[0, 0, 0]	n/a	FR1	1	R1154D
862.057	1.602	870442	ORIENT	n/a	n/a	n/a	-999	8	[0, 0, 0]	n/a	FR1	1	R1154D
863.659	2.199	872044	ORIENT_OFF	n/a	n/a	n/a	-999	8	[0, 0, 0]	n/a	FR1	1	R1154D
865.858	1.618	874243	WORD	n/a	wordpools/wordpool_EN.txt	CRANE	1	8	[0, 0, 0]	n/a	FR1	1	R1154D
867.476	0.784	875861	WORD_OFF	n/a	n/a	CRANE	1	8	[0, 0, 0]	n/a	FR1	1	R1154D
868.26	1.616	876645	WORD	n/a	wordpools/wordpool_EN.txt	MOLE	2	8	[0, 0, 0]	n/a	FR1	1	R1154D
869.876	0.851	878261	WORD_OFF	n/a	n/a	MOLE	2	8	[0, 0, 0]	n/a	FR1	1	R1154D
870.727	1.617	879112	WORD	n/a	wordpools/wordpool_EN.txt	EAR	3	8	[0, 0, 0]	n/a	FR1	1	R1154D
872.344	0.765	880729	WORD_OFF	n/a	n/a	EAR	3	8	[0, 0, 0]	n/a	FR1	1	R1154D
873.109	1.602	881493	WORD	n/a	wordpools/wordpool_EN.txt	CAKE	4	8	[0, 0, 0]	n/a	FR1	1	R1154D
874.711	0.867	883095	WORD_OFF	n/a	n/a	CAKE	4	8	[0, 0, 0]	n/a	FR1	1	R1154D
875.578	1.616	883962	WORD	n/a	wordpools/wordpool_EN.txt	MOTH	5	8	[0, 0, 0]	n/a	FR1	1	R1154D
877.194	0.766	885578	WORD_OFF	n/a	n/a	MOTH	5	8	[0, 0, 0]	n/a	FR1	1	R1154D
877.96	1.601	886344	WORD	n/a	wordpools/wordpool_EN.txt	SNAIL	6	8	[0, 0, 0]	n/a	FR1	1	R1154D
879.561	0.901	887945	WORD_OFF	n/a	n/a	SNAIL	6	8	[0, 0, 0]	n/a	FR1	1	R1154D
880.462	1.616	888846	WORD	n/a	wordpools/wordpool_EN.txt	FLAME	7	8	[0, 0, 0]	n/a	FR1	1	R1154D
882.078	0.983	890462	WORD_OFF	n/a	n/a	FLAME	7	8	[0, 0, 0]	n/a	FR1	1	R1154D
883.061	1.601	891445	WORD	n/a	wordpools/wordpool_EN.txt	SHELL	8	8	[0, 0, 0]	n/a	FR1	1	R1154D
884.662	1.001	893046	WORD_OFF	n/a	n/a	SHELL	8	8	[0, 0, 0]	n/a	FR1	1	R1154D
885.663	1.617	894047	WORD	n/a	wordpools/wordpool_EN.txt	OWL	9	8	[0, 0, 0]	n/a	FR1	1	R1154D
887.28	0.799	895664	WORD_OFF	n/a	n/a	OWL	9	8	[0, 0, 0]	n/a	FR1	1	R1154D
888.079	1.618	896463	WORD	n/a	wordpools/wordpool_EN.txt	SLIME	10	8	[0, 0, 0]	n/a	FR1	1	R1154D
889.697	0.85	898081	WORD_OFF	n/a	n/a	SLIME	10	8	[0, 0, 0]	n/a	FR1	1	R1154D
890.547	1.616	898931	WORD	n/a	wordpools/wordpool_EN.txt	HEN	11	8	[0, 0, 0]	n/a	FR1	1	R1154D
892.163	0.95	900546	WORD_OFF	n/a	n/a	HEN	11	8	[0, 0, 0]	n/a	FR1	1	R1154D
893.113	1.601	901496	WORD	n/a	wordpools/wordpool_EN.txt	PEAR	12	8	[0, 0, 0]	n/a	FR1	1	R1154D
894.714	0.0	903097	WORD_OFF	n/a	n/a	PEAR	12	8	[0, 0, 0]	n/a	FR1	1	R1154D
894.714	0.001	903097	DISTRACT_START	n/a	n/a	n/a	-999	8	[0, 0, 0]	n/a	FR1	1	R1154D
894.715	0.016	903098	START	n/a	n/a	n/a	-999	8	[-999, -999, -999]	n/a	FR1	1	R1154D
894.731	2.35	903114	PROB	2.35	n/a	n/a	-999	8	[1, 5, 5]	11	FR1	1	R1154D
897.081	2.634	905464	PROB	2.634	n/a	n/a	-999	8	[5, 2, 3]	10	FR1	1	R1154D
899.715	2.5	908098	PROB	2.5	n/a	n/a	-999	8	[4, 9, 3]	16	FR1	1	R1154D
902.215	3.834	910598	PROB	3.834	n/a	n/a	-999	8	[7, 8, 1]	16	FR1	1	R1154D
906.049	3.285	914432	PROB	3.285	n/a	n/a	-999	8	[8, 6, 7]	21	FR1	1	R1154D
909.334	3.984	917717	PROB	3.984	n/a	n/a	-999	8	[4, 9, 8]	21	FR1	1	R1154D
913.318	2.619	921700	PROB	2.619	n/a	n/a	-999	8	[7, 7, 4]	18	FR1	1	R1154D
915.937	0.014	924319	STOP	n/a	n/a	n/a	-999	8	[-999, -999, -999]	n/a	FR1	1	R1154D
915.951	0.584	924333	DISTRACT_END	n/a	n/a	n/a	-999	8	[0, 0, 0]	n/a	FR1	1	R1154D
916.535	0.516	924917	RETRIEVAL_ORIENT	n/a	n/a	n/a	-999	8	[0, 0, 0]	n/a	FR1	1	R1154D
917.051	3.348	925433	REC_START	n/a	n/a	n/a	-999	8	[0, 0, 0]	n/a	FR1	1	R1154D
920.399	3.083	928781	REC_WORD	3.083	n/a	OWL	-999	8	[0, 0, 0]	n/a	FR1	1	R1154D
923.482	3.659	931864	REC_WORD	3.659	n/a	CRANE	-999	8	[0, 0, 0]	n/a	FR1	1	R1154D
927.141	15.053	935523	REC_WORD	15.053	n/a	SLIME	-999	8	[0, 0, 0]	n/a	FR1	1	R1154D
942.194	4.866	950575	REC_WORD	4.866	n/a	PEAR	-999	8	[0, 0, 0]	n/a	FR1	1	R1154D
947.06	4.947	955440	REC_END	n/a	n/a	n/a	-999	8	[0, 0, 0]	n/a	FR1	1	R1154D
952.007	0.5	960387	TRIAL	n/a	n/a	n/a	-999	9	[0, 0, 0]	n/a	FR1	1	R1154D
952.507	10.428	960887	COUNTDOWN_START	n/a	n/a	n/a	-999	9	[0, 0, 0]	n/a	FR1	1	R1154D
962.935	0.008	971315	COUNTDOWN_END	n/a	n/a	n/a	-999	9	[0, 0, 0]	n/a	FR1	1	R1154D
962.943	1.617	971323	ORIENT	n/a	n/a	n/a	-999	9	[0, 0, 0]	n/a	FR1	1	R1154D
964.56	2.001	972940	ORIENT_OFF	n/a	n/a	n/a	-999	9	[0, 0, 0]	n/a	FR1	1	R1154D
966.561	1.616	974940	WORD	n/a	wordpools/wordpool_EN.txt	SHEET	1	9	[0, 0, 0]	n/a	FR1	1	R1154D
968.177	0.967	976556	WORD_OFF	n/a	n/a	SHEET	1	9	[0, 0, 0]	n/a	FR1	1	R1154D
969.144	1.618	977523	WORD	n/a	wordpools/wordpool_EN.txt	TOOL	2	9	[0, 0, 0]	n/a	FR1	1	R1154D
970.762	0.767	979141	WORD_OFF	n/a	n/a	TOOL	2	9	[0, 0, 0]	n/a	FR1	1	R1154D
971.529	1.615	979908	WORD	n/a	wordpools/wordpool_EN.txt	CAPE	3	9	[0, 0, 0]	n/a	FR1	1	R1154D
973.144	0.851	981523	WORD_OFF	n/a	n/a	CAPE	3	9	[0, 0, 0]	n/a	FR1	1	R1154D
973.995	1.618	982374	WORD	n/a	wordpools/wordpool_EN.txt	WORLD	4	9	[0, 0, 0]	n/a	FR1	1	R1154D
975.613	0.916	983992	WORD_OFF	n/a	n/a	WORLD	4	9	[0, 0, 0]	n/a	FR1	1	R1154D
976.529	1.616	984908	WORD	n/a	wordpools/wordpool_EN.txt	WHEEL	5	9	[0, 0, 0]	n/a	FR1	1	R1154D
978.145	0.817	986524	WORD_OFF	n/a	n/a	WHEEL	5	9	[0, 0, 0]	n/a	FR1	1	R1154D
978.962	1.618	987341	WORD	n/a	wordpools/wordpool_EN.txt	PHONE	6	9	[0, 0, 0]	n/a	FR1	1	R1154D
980.58	0.917	988959	WORD_OFF	n/a	n/a	PHONE	6	9	[0, 0, 0]	n/a	FR1	1	R1154D
981.497	1.616	989876	WORD	n/a	wordpools/wordpool_EN.txt	BOMB	7	9	[0, 0, 0]	n/a	FR1	1	R1154D
983.113	0.933	991491	WORD_OFF	n/a	n/a	BOMB	7	9	[0, 0, 0]	n/a	FR1	1	R1154D
984.046	1.618	992424	WORD	n/a	wordpools/wordpool_EN.txt	CORD	8	9	[0, 0, 0]	n/a	FR1	1	R1154D
985.664	1.001	994042	WORD_OFF	n/a	n/a	CORD	8	9	[0, 0, 0]	n/a	FR1	1	R1154D
986.665	1.617	995043	WORD	n/a	wordpools/wordpool_EN.txt	BOARD	9	9	[0, 0, 0]	n/a	FR1	1	R1154D
988.282	0.949	996660	WORD_OFF	n/a	n/a	BOARD	9	9	[0, 0, 0]	n/a	FR1	1	R1154D
989.231	1.617	997609	WORD	n/a	wordpools/wordpool_EN.txt	CASH	10	9	[0, 0, 0]	n/a	FR1	1	R1154D
990.848	0.934	999226	WORD_OFF	n/a	n/a	CASH	10	9	[0, 0, 0]	n/a	FR1	1	R1154D
991.782	1.617	1000160	WORD	n/a	wordpools/wordpool_EN.txt	TEETH	11	9	[0, 0, 0]	n/a	FR1	1	R1154D
993.399	0.816	1001777	WORD_OFF	n/a	n/a	TEETH	11	9	[0, 0, 0]	n/a	FR1	1	R1154D
994.215	1.617	1002593	WORD	n/a	wordpools/wordpool_EN.txt	PLANE	12	9	[0, 0, 0]	n/a	FR1	1	R1154D
995.832	0.0	1004210	WORD_OFF	n/a	n/a	PLANE	12	9	[0, 0, 0]	n/a	FR1	1	R1154D
995.832	0.0	1004210	DISTRACT_START	n/a	n/a	n/a	-999	9	[0, 0, 0]	n/a	FR1	1	R1154D
995.832	0.017	1004210	START	n/a	n/a	n/a	-999	9	[-999, -999, -999]	n/a	FR1	1	R1154D
995.849	2.668	1004227	PROB	2.668	n/a	n/a	-999	9	[2, 9, 3]	14	FR1	1	R1154D
998.517	1.566	1006895	PROB	1.566	n/a	n/a	-999	9	[5, 9, 1]	15	FR1	1	R1154D
1000.083	3.084	1008461	PROB	3.084	n/a	n/a	-999	9	[8, 5, 7]	2	FR1	1	R1154D
1003.167	2.933	1011544	PROB	2.933	n/a	n/a	-999	9	[6, 2, 9]	17	FR1	1	R1154D
1006.1	2.801	1014477	PROB	2.801	n/a	n/a	-999	9	[4, 1, 8]	13	FR1	1	R1154D
1008.901	2.501	1017278	PROB	2.501	n/a	n/a	-999	9	[5, 6, 6]	17	FR1	1	R1154D
1011.402	2.817	1019779	PROB	2.817	n/a	n/a	-999	9	[7, 3, 2]	17	FR1	1	R1154D
1014.219	3.302	1022596	PROB	3.302	n/a	n/a	-999	9	[5, 3, 5]	13	FR1	1	R1154D
1017.521	0.016	1025898	STOP	n/a	n/a	n/a	-999	9	[-999, -999, -999]	n/a	FR1	1	R1154D
1017.537	0.699	1025914	DISTRACT_END	n/a	n/a	n/a	-999	9	[0, 0, 0]	n/a	FR1	1	R1154D
1018.236	0.518	1026613	RETRIEVAL_ORIENT	n/a	n/a	n/a	-999	9	[0, 0, 0]	n/a	FR1	1	R1154D
1018.754	1.257	1027131	REC_START	n/a	n/a	n/a	-999	9	[0, 0, 0]	n/a	FR1	1	R1154D
1020.011	0.173	1028387	REC_WORD_VV	0.173	n/a	<>	-999	9	[0, 0, 0]	n/a	FR1	1	R1154D
1020.184	10.551	1028560	REC_WORD	10.551	n/a	PLANE	-999	9	[0, 0, 0]	n/a	FR1	1	R1154D
1030.735	1.435	1039111	REC_WORD_VV	1.435	n/a	<>	-999	9	[0, 0, 0]	n/a	FR1	1	R1154D
1032.17	1.0	1040546	REC_WORD_VV	1.0	n/a	<>	-999	9	[0, 0, 0]	n/a	FR1	1	R1154D
1033.17	10.258	1041546	REC_WORD_VV	10.258	n/a	<>	-999	9	[0, 0, 0]	n/a	FR1	1	R1154D
1043.428	2.3	1051803	REC_WORD	2.3	n/a	SHEET	-999	9	[0, 0, 0]	n/a	FR1	1	R1154D
1045.728	3.036	1054103	REC_WORD	3.036	n/a	BOMB	-999	9	[0, 0, 0]	n/a	FR1	1	R1154D
1048.764	5.062	1057139	REC_END	n/a	n/a	n/a	-999	9	[0, 0, 0]	n/a	FR1	1	R1154D
1053.826	0.5	1062201	TRIAL	n/a	n/a	n/a	-999	10	[0, 0, 0]	n/a	FR1	1	R1154D
1054.326	10.428	1062701	COUNTDOWN_START	n/a	n/a	n/a	-999	10	[0, 0, 0]	n/a	FR1	1	R1154D
1064.754	0.008	1073128	COUNTDOWN_END	n/a	n/a	n/a	-999	10	[0, 0, 0]	n/a	FR1	1	R1154D
1064.762	1.617	1073136	ORIENT	n/a	n/a	n/a	-999	10	[0, 0, 0]	n/a	FR1	1	R1154D
1066.379	1.867	1074753	ORIENT_OFF	n/a	n/a	n/a	-999	10	[0, 0, 0]	n/a	FR1	1	R1154D
1068.246	1.616	1076620	WORD	n/a	wordpools/wordpool_EN.txt	MOOSE	1	10	[0, 0, 0]	n/a	FR1	1	R1154D
1069.862	0.768	1078236	WORD_OFF	n/a	n/a	MOOSE	1	10	[0, 0, 0]	n/a	FR1	1	R1154D
1070.63	1.617	1079004	WORD	n/a	wordpools/wordpool_EN.txt	SPONGE	2	10	[0, 0, 0]	n/a	FR1	1	R1154D
1072.247	1.0	1080621	WORD_OFF	n/a	n/a	SPONGE	2	10	[0, 0, 0]	n/a	FR1	1	R1154D
1073.247	1.616	1081621	WORD	n/a	wordpools/wordpool_EN.txt	LAMB	3	10	[0, 0, 0]	n/a	FR1	1	R1154D
1074.863	0.935	1083237	WORD_OFF	n/a	n/a	LAMB	3	10	[0, 0, 0]	n/a	FR1	1	R1154D
1075.798	1.616	1084171	WORD	n/a	wordpools/wordpool_EN.txt	PEARL	4	10	[0, 0, 0]	n/a	FR1	1	R1154D
1077.414	0.816	1085787	WORD_OFF	n/a	n/a	PEARL	4	10	[0, 0, 0]	n/a	FR1	1	R1154D
1078.23	1.617	1086603	WORD	n/a	wordpools/wordpool_EN.txt	THREAD	5	10	[0, 0, 0]	n/a	FR1	1	R1154D
1079.847	0.918	1088220	WORD_OFF	n/a	n/a	THREAD	5	10	[0, 0, 0]	n/a	FR1	1	R1154D
1080.765	1.617	1089138	WORD	n/a	wordpools/wordpool_EN.txt	FOOD	6	10	[0, 0, 0]	n/a	FR1	1	R1154D
1082.382	0.95	1090755	WORD_OFF	n/a	n/a	FOOD	6	10	[0, 0, 0]	n/a	FR1	1	R1154D
1083.332	1.616	1091705	WORD	n/a	wordpools/wordpool_EN.txt	PLANT	7	10	[0, 0, 0]	n/a	FR1	1	R1154D
1084.948	0.818	1093321	WORD_OFF	n/a	n/a	PLANT	7	10	[0, 0, 0]	n/a	FR1	1	R1154D
1085.766	1.617	1094139	WORD	n/a	wordpools/wordpool_EN.txt	SEA	8	10	[0, 0, 0]	n/a	FR1	1	R1154D
1087.383	0.799	1095756	WORD_OFF	n/a	n/a	SEA	8	10	[0, 0, 0]	n/a	FR1	1	R1154D
1088.182	1.602	1096555	WORD	n/a	wordpools/wordpool_EN.txt	SEED	9	10	[0, 0, 0]	n/a	FR1	1	R1154D
1089.784	0.816	1098157	WORD_OFF	n/a	n/a	SEED	9	10	[0, 0, 0]	n/a	FR1	1	R1154D
1090.6	1.616	1098973	WORD	n/a	wordpools/wordpool_EN.txt	SHRIMP	10	10	[0, 0, 0]	n/a	FR1	1	R1154D
1092.216	0.967	1100589	WORD_OFF	n/a	n/a	SHRIMP	10	10	[0, 0, 0]	n/a	FR1	1	R1154D
1093.183	1.618	1101556	WORD	n/a	wordpools/wordpool_EN.txt	STEM	11	10	[0, 0, 0]	n/a	FR1	1	R1154D
1094.801	0.767	1103173	WORD_OFF	n/a	n/a	STEM	11	10	[0, 0, 0]	n/a	FR1	1	R1154D
1095.568	1.616	1103940	WORD	n/a	wordpools/wordpool_EN.txt	RICE	12	10	[0, 0, 0]	n/a	FR1	1	R1154D
1097.184	0.0	1105556	WORD_OFF	n/a	n/a	RICE	12	10	[0, 0, 0]	n/a	FR1	1	R1154D
1097.184	0.001	1105556	DISTRACT_START	n/a	n/a	n/a	-999	10	[0, 0, 0]	n/a	FR1	1	R1154D
1097.185	0.015	1105557	START	n/a	n/a	n/a	-999	10	[-999, -999, -999]	n/a	FR1	1	R1154D
1097.2	2.535	1105572	PROB	2.535	n/a	n/a	-999	10	[9, 3, 9]	21	FR1	1	R1154D
1099.735	3.383	1108107	PROB	3.383	n/a	n/a	-999	10	[4, 9, 7]	20	FR1	1	R1154D
1103.118	2.734	1111490	PROB	2.734	n/a	n/a	-999	10	[4, 8, 7]	19	FR1	1	R1154D
1105.852	2.234	1114224	PROB	2.234	n/a	n/a	-999	10	[5, 1, 1]	8	FR1	1	R1154D
1108.086	2.551	1116458	PROB	2.551	n/a	n/a	-999	10	[6, 5, 1]	12	FR1	1	R1154D
1110.637	2.017	1119009	PROB	2.017	n/a	n/a	-999	10	[5, 8, 2]	15	FR1	1	R1154D
1112.654	2.651	1121025	PROB	2.651	n/a	n/a	-999	10	[3, 9, 5]	17	FR1	1	R1154D
1115.305	2.59	1123676	PROB	2.59	n/a	n/a	-999	10	[5, 9, 6]	19	FR1	1	R1154D
1117.895	0.009	1126266	STOP	n/a	n/a	n/a	-999	10	[-999, -999, -999]	n/a	FR1	1	R1154D
1117.904	0.518	1126275	DISTRACT_END	n/a	n/a	n/a	-999	10	[0, 0, 0]	n/a	FR1	1	R1154D
1118.422	0.516	1126793	RETRIEVAL_ORIENT	n/a	n/a	n/a	-999	10	[0, 0, 0]	n/a	FR1	1	R1154D
1118.938	0.514	1127309	REC_START	n/a	n/a	n/a	-999	10	[0, 0, 0]	n/a	FR1	1	R1154D
1119.452	0.74	1127823	REC_WORD	0.74	n/a	STEM	-999	10	[0, 0, 0]	n/a	FR1	1	R1154D
1120.192	0.776	1128563	REC_WORD	0.776	n/a	SEA	-999	10	[0, 0, 0]	n/a	FR1	1	R1154D
1120.968	15.631	1129339	REC_WORD	15.631	n/a	PEARL	-999	10	[0, 0, 0]	n/a	FR1	1	R1154D
1136.599	2.146	1144969	REC_WORD_VV	2.146	n/a	<>	-999	10	[0, 0, 0]	n/a	FR1	1	R1154D
1138.745	0.786	1147115	REC_WORD_VV	0.786	n/a	<>	-999	10	[0, 0, 0]	n/a	FR1	1	R1154D
1139.531	1.0	1147901	REC_WORD_VV	1.0	n/a	<>	-999	10	[0, 0, 0]	n/a	FR1	1	R1154D
1140.531	0.64	1148901	REC_WORD_VV	0.64	n/a	<>	-999	10	[0, 0, 0]	n/a	FR1	1	R1154D
1141.171	1.584	1149541	REC_WORD	1.584	n/a	SHRIMP	-999	10	[0, 0, 0]	n/a	FR1	1	R1154D
1142.755	4.25	1151125	REC_WORD	4.25	n/a	SHRIMP	-999	10	[0, 0, 0]	n/a	FR1	1	R1154D
1147.005	1.944	1155375	REC_WORD_VV	1.944	n/a	<>	-999	10	[0, 0, 0]	n/a	FR1	1	R1154D
1148.949	4.295	1157318	REC_END	n/a	n/a	n/a	-999	10	[0, 0, 0]	n/a	FR1	1	R1154D
1153.244	0.5	1161613	TRIAL	n/a	n/a	n/a	-999	11	[0, 0, 0]	n/a	FR1	1	R1154D
1153.744	10.428	1162113	COUNTDOWN_START	n/a	n/a	n/a	-999	11	[0, 0, 0]	n/a	FR1	1	R1154D
1164.172	0.007	1172541	COUNTDOWN_END	n/a	n/a	n/a	-999	11	[0, 0, 0]	n/a	FR1	1	R1154D
1164.179	1.602	1172548	ORIENT	n/a	n/a	n/a	-999	11	[0, 0, 0]	n/a	FR1	1	R1154D
1165.781	1.95	1174150	ORIENT_OFF	n/a	n/a	n/a	-999	11	[0, 0, 0]	n/a	FR1	1	R1154D
1167.731	1.617	1176099	WORD	n/a	wordpools/wordpool_EN.txt	CLOUD	1	11	[0, 0, 0]	n/a	FR1	1	R1154D
1169.348	0.9	1177716	WORD_OFF	n/a	n/a	CLOUD	1	11	[0, 0, 0]	n/a	FR1	1	R1154D
1170.248	1.616	1178616	WORD	n/a	wordpools/wordpool_EN.txt	TOAD	2	11	[0, 0, 0]	n/a	FR1	1	R1154D
1171.864	0.885	1180232	WORD_OFF	n/a	n/a	TOAD	2	11	[0, 0, 0]	n/a	FR1	1	R1154D
1172.749	1.616	1181117	WORD	n/a	wordpools/wordpool_EN.txt	SCHOOL	3	11	[0, 0, 0]	n/a	FR1	1	R1154D
1174.365	1.001	1182733	WORD_OFF	n/a	n/a	SCHOOL	3	11	[0, 0, 0]	n/a	FR1	1	R1154D
1175.366	1.616	1183734	WORD	n/a	wordpools/wordpool_EN.txt	FISH	4	11	[0, 0, 0]	n/a	FR1	1	R1154D
1176.982	0.917	1185350	WORD_OFF	n/a	n/a	FISH	4	11	[0, 0, 0]	n/a	FR1	1	R1154D
1177.899	1.618	1186267	WORD	n/a	wordpools/wordpool_EN.txt	WEB	5	11	[0, 0, 0]	n/a	FR1	1	R1154D
1179.517	0.966	1187885	WORD_OFF	n/a	n/a	WEB	5	11	[0, 0, 0]	n/a	FR1	1	R1154D
1180.483	1.616	1188851	WORD	n/a	wordpools/wordpool_EN.txt	BLOOM	6	11	[0, 0, 0]	n/a	FR1	1	R1154D
1182.099	0.767	1190467	WORD_OFF	n/a	n/a	BLOOM	6	11	[0, 0, 0]	n/a	FR1	1	R1154D
1182.866	1.618	1191234	WORD	n/a	wordpools/wordpool_EN.txt	RAIN	7	11	[0, 0, 0]	n/a	FR1	1	R1154D
1184.484	0.767	1192852	WORD_OFF	n/a	n/a	RAIN	7	11	[0, 0, 0]	n/a	FR1	1	R1154D
1185.251	1.616	1193618	WORD	n/a	wordpools/wordpool_EN.txt	JET	8	11	[0, 0, 0]	n/a	FR1	1	R1154D
1186.867	0.95	1195234	WORD_OFF	n/a	n/a	JET	8	11	[0, 0, 0]	n/a	FR1	1	R1154D
1187.817	1.601	1196184	WORD	n/a	wordpools/wordpool_EN.txt	SPARK	9	11	[0, 0, 0]	n/a	FR1	1	R1154D
1189.418	0.783	1197785	WORD_OFF	n/a	n/a	SPARK	9	11	[0, 0, 0]	n/a	FR1	1	R1154D
1190.201	1.617	1198568	WORD	n/a	wordpools/wordpool_EN.txt	CROW	10	11	[0, 0, 0]	n/a	FR1	1	R1154D
1191.818	0.834	1200185	WORD_OFF	n/a	n/a	CROW	10	11	[0, 0, 0]	n/a	FR1	1	R1154D
1192.652	1.617	1201019	WORD	n/a	wordpools/wordpool_EN.txt	PEA	11	11	[0, 0, 0]	n/a	FR1	1	R1154D
1194.269	0.883	1202636	WORD_OFF	n/a	n/a	PEA	11	11	[0, 0, 0]	n/a	FR1	1	R1154D
1195.152	1.618	1203519	WORD	n/a	wordpools/wordpool_EN.txt	BEE	12	11	[0, 0, 0]	n/a	FR1	1	R1154D
1196.77	0.0	1205137	WORD_OFF	n/a	n/a	BEE	12	11	[0, 0, 0]	n/a	FR1	1	R1154D
1196.77	0.0	1205137	DISTRACT_START	n/a	n/a	n/a	-999	11	[0, 0, 0]	n/a	FR1	1	R1154D
1196.77	0.016	1205137	START	n/a	n/a	n/a	-999	11	[-999, -999, -999]	n/a	FR1	1	R1154D
1196.786	2.416	1205153	PROB	2.416	n/a	n/a	-999	11	[5, 9, 1]	15	FR1	1	R1154D
1199.202	3.419	1207569	PROB	3.419	n/a	n/a	-999	11	[3, 9, 6]	18	FR1	1	R1154D
1202.621	5.3	1210988	PROB	5.3	n/a	n/a	-999	11	[2, 9, 4]	15	FR1	1	R1154D
1207.921	3.685	1216287	PROB	3.685	n/a	n/a	-999	11	[5, 6, 5]	16	FR1	1	R1154D
1211.606	2.332	1219972	PROB	2.332	n/a	n/a	-999	11	[3, 3, 8]	14	FR1	1	R1154D
1213.938	3.222	1222304	PROB	3.222	n/a	n/a	-999	11	[6, 2, 5]	13	FR1	1	R1154D
1217.16	0.012	1225526	STOP	n/a	n/a	n/a	-999	11	[-999, -999, -999]	n/a	FR1	1	R1154D
1217.172	0.684	1225538	DISTRACT_END	n/a	n/a	n/a	-999	11	[0, 0, 0]	n/a	FR1	1	R1154D
1217.856	0.518	1226222	RETRIEVAL_ORIENT	n/a	n/a	n/a	-999	11	[0, 0, 0]	n/a	FR1	1	R1154D
1218.374	4.934	1226740	REC_START	n/a	n/a	n/a	-999	11	[0, 0, 0]	n/a	FR1	1	R1154D
1223.308	0.699	1231673	REC_WORD	0.699	n/a	CLOUD	-999	11	[0, 0, 0]	n/a	FR1	1	R1154D
1224.007	0.698	1232372	REC_WORD	0.698	n/a	RAIN	-999	11	[0, 0, 0]	n/a	FR1	1	R1154D
1224.705	5.117	1233070	REC_WORD	5.117	n/a	JET	-999	11	[0, 0, 0]	n/a	FR1	1	R1154D
1229.822	12.655	1238187	REC_WORD	12.655	n/a	JET	-999	11	[0, 0, 0]	n/a	FR1	1	R1154D
1242.477	1.297	1250841	REC_WORD	1.297	n/a	FISH	-999	11	[0, 0, 0]	n/a	FR1	1	R1154D
1243.774	1.501	1252138	REC_WORD_VV	1.501	n/a	<>	-999	11	[0, 0, 0]	n/a	FR1	1	R1154D
1245.275	3.111	1253639	REC_WORD_VV	3.111	n/a	<>	-999	11	[0, 0, 0]	n/a	FR1	1	R1154D
1248.386	4.826	1256750	REC_END	n/a	n/a	n/a	-999	11	[0, 0, 0]	n/a	FR1	1	R1154D
1253.212	0.5	1261576	TRIAL	n/a	n/a	n/a	-999	12	[0, 0, 0]	n/a	FR1	1	R1154D
1253.712	10.428	1262076	COUNTDOWN_START	n/a	n/a	n/a	-999	12	[0, 0, 0]	n/a	FR1	1	R1154D
1264.14	0.008	1272503	COUNTDOWN_END	n/a	n/a	n/a	-999	12	[0, 0, 0]	n/a	FR1	1	R1154D
1264.148	1.618	1272511	ORIENT	n/a	n/a	n/a	-999	12	[0, 0, 0]	n/a	FR1	1	R1154D
1265.766	2.249	1274129	ORIENT_OFF	n/a	n/a	n/a	-999	12	[0, 0, 0]	n/a	FR1	1	R1154D
1268.015	1.618	1276378	WORD	n/a	wordpools/wordpool_EN.txt	STAR	1	12	[0, 0, 0]	n/a	FR1	1	R1154D
1269.633	0.983	1277996	WORD_OFF	n/a	n/a	STAR	1	12	[0, 0, 0]	n/a	FR1	1	R1154D
1270.616	1.616	1278979	WORD	n/a	wordpools/wordpool_EN.txt	FORT	2	12	[0, 0, 0]	n/a	FR1	1	R1154D
1272.232	0.817	1280595	WORD_OFF	n/a	n/a	FORT	2	12	[0, 0, 0]	n/a	FR1	1	R1154D
1273.049	1.618	1281412	WORD	n/a	wordpools/wordpool_EN.txt	TRAIN	3	12	[0, 0, 0]	n/a	FR1	1	R1154D
1274.667	0.834	1283030	WORD_OFF	n/a	n/a	TRAIN	3	12	[0, 0, 0]	n/a	FR1	1	R1154D
1275.501	1.616	1283864	WORD	n/a	wordpools/wordpool_EN.txt	SAIL	4	12	[0, 0, 0]	n/a	FR1	1	R1154D
1277.117	0.95	1285479	WORD_OFF	n/a	n/a	SAIL	4	12	[0, 0, 0]	n/a	FR1	1	R1154D
1278.067	1.601	1286429	WORD	n/a	wordpools/wordpool_EN.txt	SHIP	5	12	[0, 0, 0]	n/a	FR1	1	R1154D
1279.668	0.884	1288030	WORD_OFF	n/a	n/a	SHIP	5	12	[0, 0, 0]	n/a	FR1	1	R1154D
1280.552	1.616	1288914	WORD	n/a	wordpools/wordpool_EN.txt	CHIEF	6	12	[0, 0, 0]	n/a	FR1	1	R1154D
1282.168	0.949	1290530	WORD_OFF	n/a	n/a	CHIEF	6	12	[0, 0, 0]	n/a	FR1	1	R1154D
1283.117	1.619	1291479	WORD	n/a	wordpools/wordpool_EN.txt	STEAM	7	12	[0, 0, 0]	n/a	FR1	1	R1154D
1284.736	0.883	1293098	WORD_OFF	n/a	n/a	STEAM	7	12	[0, 0, 0]	n/a	FR1	1	R1154D
1285.619	1.616	1293981	WORD	n/a	wordpools/wordpool_EN.txt	FOG	8	12	[0, 0, 0]	n/a	FR1	1	R1154D
1287.235	0.85	1295597	WORD_OFF	n/a	n/a	FOG	8	12	[0, 0, 0]	n/a	FR1	1	R1154D
1288.085	1.618	1296447	WORD	n/a	wordpools/wordpool_EN.txt	SWORD	9	12	[0, 0, 0]	n/a	FR1	1	R1154D
1289.703	0.85	1298065	WORD_OFF	n/a	n/a	SWORD	9	12	[0, 0, 0]	n/a	FR1	1	R1154D
1290.553	1.616	1298915	WORD	n/a	wordpools/wordpool_EN.txt	WEED	10	12	[0, 0, 0]	n/a	FR1	1	R1154D
1292.169	0.784	1300531	WORD_OFF	n/a	n/a	WEED	10	12	[0, 0, 0]	n/a	FR1	1	R1154D
1292.953	1.618	1301315	WORD	n/a	wordpools/wordpool_EN.txt	SHIELD	11	12	[0, 0, 0]	n/a	FR1	1	R1154D
1294.571	0.933	1302933	WORD_OFF	n/a	n/a	SHIELD	11	12	[0, 0, 0]	n/a	FR1	1	R1154D
1295.504	1.616	1303865	WORD	n/a	wordpools/wordpool_EN.txt	SMOKE	12	12	[0, 0, 0]	n/a	FR1	1	R1154D
1297.12	0.0	1305481	WORD_OFF	n/a	n/a	SMOKE	12	12	[0, 0, 0]	n/a	FR1	1	R1154D
1297.12	0.001	1305481	DISTRACT_START	n/a	n/a	n/a	-999	12	[0, 0, 0]	n/a	FR1	1	R1154D
1297.121	0.016	1305482	START	n/a	n/a	n/a	-999	12	[-999, -999, -999]	n/a	FR1	1	R1154D
1297.137	4.302	1305498	PROB	4.302	n/a	n/a	-999	12	[8, 7, 8]	23	FR1	1	R1154D
1301.439	4.466	1309800	PROB	4.466	n/a	n/a	-999	12	[8, 4, 5]	17	FR1	1	R1154D
1305.905	2.818	1314266	PROB	2.818	n/a	n/a	-999	12	[9, 4, 1]	14	FR1	1	R1154D
1308.723	2.317	1317084	PROB	2.317	n/a	n/a	-999	12	[2, 4, 1]	7	FR1	1	R1154D
1311.04	2.867	1319401	PROB	2.867	n/a	n/a	-999	12	[6, 6, 9]	21	FR1	1	R1154D
1313.907	2.468	1322267	PROB	2.468	n/a	n/a	-999	12	[7, 5, 2]	14	FR1	1	R1154D
1316.375	2.403	1324735	PROB	2.403	n/a	n/a	-999	12	[2, 4, 5]	11	FR1	1	R1154D
1318.778	0.014	1327138	STOP	n/a	n/a	n/a	-999	12	[-999, -999, -999]	n/a	FR1	1	R1154D
1318.792	0.7	1327152	DISTRACT_END	n/a	n/a	n/a	-999	12	[0, 0, 0]	n/a	FR1	1	R1154D
1319.492	0.516	1327852	RETRIEVAL_ORIENT	n/a	n/a	n/a	-999	12	[0, 0, 0]	n/a	FR1	1	R1154D
1320.008	0.74	1328368	REC_START	n/a	n/a	n/a	-999	12	[0, 0, 0]	n/a	FR1	1	R1154D
1320.748	1.33	1329108	REC_WORD	1.33	n/a	STEAM	-999	12	[0, 0, 0]	n/a	FR1	1	R1154D
1322.078	0.757	1330438	REC_WORD	0.757	n/a	BOAT	-999	12	[0, 0, 0]	n/a	FR1	1	R1154D
1322.835	5.762	1331195	REC_WORD	5.762	n/a	SHIP	-999	12	[0, 0, 0]	n/a	FR1	1	R1154D
1328.597	7.172	1336957	REC_WORD	7.172	n/a	TRAIN	-999	12	[0, 0, 0]	n/a	FR1	1	R1154D
1335.769	0.666	1344128	REC_WORD	0.666	n/a	SHIP	-999	12	[0, 0, 0]	n/a	FR1	1	R1154D
1336.435	3.275	1344794	REC_WORD	3.275	n/a	TRAIN	-999	12	[0, 0, 0]	n/a	FR1	1	R1154D
1339.71	8.837	1348069	REC_WORD	8.837	n/a	WEED	-999	12	[0, 0, 0]	n/a	FR1	1	R1154D
1348.547	1.473	1356906	REC_WORD	1.473	n/a	TRACKS	-999	12	[0, 0, 0]	n/a	FR1	1	R1154D
1350.02	7.794	1358379	REC_END	n/a	n/a	n/a	-999	12	[0, 0, 0]	n/a	FR1	1	R1154D
1357.814	0.5	1366172	TRIAL	n/a	n/a	n/a	-999	13	[0, 0, 0]	n/a	FR1	1	R1154D
1358.314	10.428	1366672	COUNTDOWN_START	n/a	n/a	n/a	-999	13	[0, 0, 0]	n/a	FR1	1	R1154D
1368.742	0.009	1377100	COUNTDOWN_END	n/a	n/a	n/a	-999	13	[0, 0, 0]	n/a	FR1	1	R1154D
1368.751	1.617	1377109	ORIENT	n/a	n/a	n/a	-999	13	[0, 0, 0]	n/a	FR1	1	R1154D
1370.368	1.917	1378725	ORIENT_OFF	n/a	n/a	n/a	-999	13	[0, 0, 0]	n/a	FR1	1	R1154D
1372.285	1.616	1380642	WORD	n/a	wordpools/wordpool_EN.txt	BANK	1	13	[0, 0, 0]	n/a	FR1	1	R1154D
1373.901	1.0	1382258	WORD_OFF	n/a	n/a	BANK	1	13	[0, 0, 0]	n/a	FR1	1	R1154D
1374.901	1.618	1383258	WORD	n/a	wordpools/wordpool_EN.txt	BLUSH	2	13	[0, 0, 0]	n/a	FR1	1	R1154D
1376.519	0.884	1384876	WORD_OFF	n/a	n/a	BLUSH	2	13	[0, 0, 0]	n/a	FR1	1	R1154D
1377.403	1.616	1385760	WORD	n/a	wordpools/wordpool_EN.txt	BRICK	3	13	[0, 0, 0]	n/a	FR1	1	R1154D
1379.019	0.883	1387376	WORD_OFF	n/a	n/a	BRICK	3	13	[0, 0, 0]	n/a	FR1	1	R1154D
1379.902	1.618	1388259	WORD	n/a	wordpools/wordpool_EN.txt	BRIDGE	4	13	[0, 0, 0]	n/a	FR1	1	R1154D
1381.52	0.934	1389877	WORD_OFF	n/a	n/a	BRIDGE	4	13	[0, 0, 0]	n/a	FR1	1	R1154D
1382.454	1.616	1390811	WORD	n/a	wordpools/wordpool_EN.txt	CROWN	5	13	[0, 0, 0]	n/a	FR1	1	R1154D
1384.07	0.85	1392427	WORD_OFF	n/a	n/a	CROWN	5	13	[0, 0, 0]	n/a	FR1	1	R1154D
1384.92	1.601	1393277	WORD	n/a	wordpools/wordpool_EN.txt	MAZE	6	13	[0, 0, 0]	n/a	FR1	1	R1154D
1386.521	0.783	1394878	WORD_OFF	n/a	n/a	MAZE	6	13	[0, 0, 0]	n/a	FR1	1	R1154D
1387.304	1.616	1395661	WORD	n/a	wordpools/wordpool_EN.txt	LOCK	7	13	[0, 0, 0]	n/a	FR1	1	R1154D
1388.92	0.768	1397276	WORD_OFF	n/a	n/a	LOCK	7	13	[0, 0, 0]	n/a	FR1	1	R1154D
1389.688	1.617	1398044	WORD	n/a	wordpools/wordpool_EN.txt	LAKE	8	13	[0, 0, 0]	n/a	FR1	1	R1154D
1391.305	0.816	1399661	WORD_OFF	n/a	n/a	LAKE	8	13	[0, 0, 0]	n/a	FR1	1	R1154D
1392.121	1.618	1400477	WORD	n/a	wordpools/wordpool_EN.txt	ICE	9	13	[0, 0, 0]	n/a	FR1	1	R1154D
1393.739	0.867	1402095	WORD_OFF	n/a	n/a	ICE	9	13	[0, 0, 0]	n/a	FR1	1	R1154D
1394.606	1.616	1402962	WORD	n/a	wordpools/wordpool_EN.txt	HILL	10	13	[0, 0, 0]	n/a	FR1	1	R1154D
1396.222	0.933	1404578	WORD_OFF	n/a	n/a	HILL	10	13	[0, 0, 0]	n/a	FR1	1	R1154D
1397.155	1.618	1405511	WORD	n/a	wordpools/wordpool_EN.txt	JAIL	11	13	[0, 0, 0]	n/a	FR1	1	R1154D
1398.773	0.767	1407129	WORD_OFF	n/a	n/a	JAIL	11	13	[0, 0, 0]	n/a	FR1	1	R1154D
1399.54	1.616	1407896	WORD	n/a	wordpools/wordpool_EN.txt	POLE	12	13	[0, 0, 0]	n/a	FR1	1	R1154D
1401.156	0.0	1409512	WORD_OFF	n/a	n/a	POLE	12	13	[0, 0, 0]	n/a	FR1	1	R1154D
1401.156	0.001	1409512	DISTRACT_START	n/a	n/a	n/a	-999	13	[0, 0, 0]	n/a	FR1	1	R1154D
1401.157	0.016	1409513	START	n/a	n/a	n/a	-999	13	[-999, -999, -999]	n/a	FR1	1	R1154D
1401.173	2.601	1409529	PROB	2.601	n/a	n/a	-999	13	[1, 8, 1]	10	FR1	1	R1154D
1403.774	2.617	1412130	PROB	2.617	n/a	n/a	-999	13	[5, 1, 2]	8	FR1	1	R1154D
1406.391	2.733	1414746	PROB	2.733	n/a	n/a	-999	13	[4, 5, 6]	15	FR1	1	R1154D
1409.124	2.568	1417479	PROB	2.568	n/a	n/a	-999	13	[6, 6, 4]	16	FR1	1	R1154D
1411.692	3.267	1420047	PROB	3.267	n/a	n/a	-999	13	[6, 7, 5]	18	FR1	1	R1154D
1414.959	1.734	1423314	PROB	1.734	n/a	n/a	-999	13	[2, 3, 6]	11	FR1	1	R1154D
1416.693	2.266	1425048	PROB	2.266	n/a	n/a	-999	13	[6, 8, 1]	15	FR1	1	R1154D
1418.959	2.649	1427314	PROB	2.649	n/a	n/a	-999	13	[1, 5, 2]	8	FR1	1	R1154D
1421.608	0.019	1429963	STOP	n/a	n/a	n/a	-999	13	[-999, -999, -999]	n/a	FR1	1	R1154D
1421.627	0.583	1429982	DISTRACT_END	n/a	n/a	n/a	-999	13	[0, 0, 0]	n/a	FR1	1	R1154D
1422.21	0.518	1430565	RETRIEVAL_ORIENT	n/a	n/a	n/a	-999	13	[0, 0, 0]	n/a	FR1	1	R1154D
1422.728	1.134	1431083	REC_START	n/a	n/a	n/a	-999	13	[0, 0, 0]	n/a	FR1	1	R1154D
1423.862	0.604	1432217	REC_WORD	0.604	n/a	BRIDGE	-999	13	[0, 0, 0]	n/a	FR1	1	R1154D
1424.466	1.117	1432820	REC_WORD	1.117	n/a	HILL	-999	13	[0, 0, 0]	n/a	FR1	1	R1154D
1425.583	0.836	1433937	REC_WORD	0.836	n/a	CROWN	-999	13	[0, 0, 0]	n/a	FR1	1	R1154D
1426.419	2.977	1434773	REC_WORD	2.977	n/a	BLUSH	-999	13	[0, 0, 0]	n/a	FR1	1	R1154D
1429.396	1.0	1437750	REC_WORD_VV	1.0	n/a	<>	-999	13	[0, 0, 0]	n/a	FR1	1	R1154D
1430.396	12.043	1438750	REC_WORD_VV	12.043	n/a	<>	-999	13	[0, 0, 0]	n/a	FR1	1	R1154D
1442.439	10.3	1450793	REC_WORD_VV	10.3	n/a	<>	-999	13	[0, 0, 0]	n/a	FR1	1	R1154D
1452.739	5.277	1461092	REC_END	n/a	n/a	n/a	-999	13	[0, 0, 0]	n/a	FR1	1	R1154D
1458.016	0.5	1466369	TRIAL	n/a	n/a	n/a	-999	14	[0, 0, 0]	n/a	FR1	1	R1154D
1458.516	10.428	1466869	COUNTDOWN_START	n/a	n/a	n/a	-999	14	[0, 0, 0]	n/a	FR1	1	R1154D
1468.944	0.008	1477296	COUNTDOWN_END	n/a	n/a	n/a	-999	14	[0, 0, 0]	n/a	FR1	1	R1154D
1468.952	1.618	1477304	ORIENT	n/a	n/a	n/a	-999	14	[0, 0, 0]	n/a	FR1	1	R1154D
1470.57	2.283	1478922	ORIENT_OFF	n/a	n/a	n/a	-999	14	[0, 0, 0]	n/a	FR1	1	R1154D
1472.853	1.618	1481205	WORD	n/a	wordpools/wordpool_EN.txt	STAIR	1	14	[0, 0, 0]	n/a	FR1	1	R1154D
1474.471	0.933	1482823	WORD_OFF	n/a	n/a	STAIR	1	14	[0, 0, 0]	n/a	FR1	1	R1154D
1475.404	1.616	1483756	WORD	n/a	wordpools/wordpool_EN.txt	JAR	2	14	[0, 0, 0]	n/a	FR1	1	R1154D
1477.02	0.867	1485372	WORD_OFF	n/a	n/a	JAR	2	14	[0, 0, 0]	n/a	FR1	1	R1154D
1477.887	1.601	1486239	WORD	n/a	wordpools/wordpool_EN.txt	WHALE	3	14	[0, 0, 0]	n/a	FR1	1	R1154D
1479.488	0.767	1487839	WORD_OFF	n/a	n/a	WHALE	3	14	[0, 0, 0]	n/a	FR1	1	R1154D
1480.255	1.616	1488606	WORD	n/a	wordpools/wordpool_EN.txt	AXE	4	14	[0, 0, 0]	n/a	FR1	1	R1154D
1481.871	0.801	1490222	WORD_OFF	n/a	n/a	AXE	4	14	[0, 0, 0]	n/a	FR1	1	R1154D
1482.672	1.617	1491023	WORD	n/a	wordpools/wordpool_EN.txt	TIE	5	14	[0, 0, 0]	n/a	FR1	1	R1154D
1484.289	0.882	1492640	WORD_OFF	n/a	n/a	TIE	5	14	[0, 0, 0]	n/a	FR1	1	R1154D
1485.171	1.602	1493522	WORD	n/a	wordpools/wordpool_EN.txt	PEACH	6	14	[0, 0, 0]	n/a	FR1	1	R1154D
1486.773	0.9	1495124	WORD_OFF	n/a	n/a	PEACH	6	14	[0, 0, 0]	n/a	FR1	1	R1154D
1487.673	1.617	1496024	WORD	n/a	wordpools/wordpool_EN.txt	BOWL	7	14	[0, 0, 0]	n/a	FR1	1	R1154D
1489.29	0.949	1497641	WORD_OFF	n/a	n/a	BOWL	7	14	[0, 0, 0]	n/a	FR1	1	R1154D
1490.239	1.617	1498590	WORD	n/a	wordpools/wordpool_EN.txt	DITCH	8	14	[0, 0, 0]	n/a	FR1	1	R1154D
1491.856	0.868	1500207	WORD_OFF	n/a	n/a	DITCH	8	14	[0, 0, 0]	n/a	FR1	1	R1154D
1492.724	1.617	1501075	WORD	n/a	wordpools/wordpool_EN.txt	PIPE	9	14	[0, 0, 0]	n/a	FR1	1	R1154D
1494.341	0.799	1502692	WORD_OFF	n/a	n/a	PIPE	9	14	[0, 0, 0]	n/a	FR1	1	R1154D
1495.14	1.618	1503491	WORD	n/a	wordpools/wordpool_EN.txt	HOLE	10	14	[0, 0, 0]	n/a	FR1	1	R1154D
1496.758	0.917	1505109	WORD_OFF	n/a	n/a	HOLE	10	14	[0, 0, 0]	n/a	FR1	1	R1154D
1497.675	1.617	1506025	WORD	n/a	wordpools/wordpool_EN.txt	ROOF	11	14	[0, 0, 0]	n/a	FR1	1	R1154D
1499.292	0.983	1507642	WORD_OFF	n/a	n/a	ROOF	11	14	[0, 0, 0]	n/a	FR1	1	R1154D
1500.275	1.616	1508625	WORD	n/a	wordpools/wordpool_EN.txt	STORM	12	14	[0, 0, 0]	n/a	FR1	1	R1154D
1501.891	0.0	1510241	WORD_OFF	n/a	n/a	STORM	12	14	[0, 0, 0]	n/a	FR1	1	R1154D
1501.891	0.001	1510241	DISTRACT_START	n/a	n/a	n/a	-999	14	[0, 0, 0]	n/a	FR1	1	R1154D
1501.892	0.016	1510242	START	n/a	n/a	n/a	-999	14	[-999, -999, -999]	n/a	FR1	1	R1154D
1501.908	5.685	1510258	PROB	5.685	n/a	n/a	-999	14	[8, 8, 9]	25	FR1	1	R1154D
1507.593	2.751	1515943	PROB	2.751	n/a	n/a	-999	14	[9, 5, 7]	21	FR1	1	R1154D
1510.344	1.732	1518694	PROB	1.732	n/a	n/a	-999	14	[4, 2, 1]	7	FR1	1	R1154D
1512.076	3.834	1520426	PROB	3.834	n/a	n/a	-999	14	[5, 8, 9]	22	FR1	1	R1154D
1515.91	2.635	1524260	PROB	2.635	n/a	n/a	-999	14	[5, 8, 8]	21	FR1	1	R1154D
1518.545	2.167	1526894	PROB	2.167	n/a	n/a	-999	14	[3, 2, 2]	7	FR1	1	R1154D
1520.712	2.84	1529061	PROB	2.84	n/a	n/a	-999	14	[8, 5, 6]	19	FR1	1	R1154D
1523.552	0.011	1531901	STOP	n/a	n/a	n/a	-999	14	[-999, -999, -999]	n/a	FR1	1	R1154D
1523.563	0.515	1531912	DISTRACT_END	n/a	n/a	n/a	-999	14	[0, 0, 0]	n/a	FR1	1	R1154D
1524.078	0.519	1532427	RETRIEVAL_ORIENT	n/a	n/a	n/a	-999	14	[0, 0, 0]	n/a	FR1	1	R1154D
1524.597	0.629	1532946	REC_START	n/a	n/a	n/a	-999	14	[0, 0, 0]	n/a	FR1	1	R1154D
1525.226	0.441	1533575	REC_WORD_VV	0.441	n/a	<>	-999	14	[0, 0, 0]	n/a	FR1	1	R1154D
1525.667	0.482	1534016	REC_WORD	0.482	n/a	ROOF	-999	14	[0, 0, 0]	n/a	FR1	1	R1154D
1526.149	3.017	1534498	REC_WORD	3.017	n/a	STAIR	-999	14	[0, 0, 0]	n/a	FR1	1	R1154D
1529.166	0.606	1537515	REC_WORD	0.606	n/a	WHALE	-999	14	[0, 0, 0]	n/a	FR1	1	R1154D
1529.772	9.107	1538121	REC_WORD	9.107	n/a	HOLE	-999	14	[0, 0, 0]	n/a	FR1	1	R1154D
1538.879	0.761	1547227	REC_WORD_VV	0.761	n/a	<>	-999	14	[0, 0, 0]	n/a	FR1	1	R1154D
1539.64	3.271	1547988	REC_WORD_VV	3.271	n/a	<>	-999	14	[0, 0, 0]	n/a	FR1	1	R1154D
1542.911	8.559	1551259	REC_WORD	8.559	n/a	JAR	-999	14	[0, 0, 0]	n/a	FR1	1	R1154D
1551.47	3.139	1559818	REC_WORD	3.139	n/a	CROWN	-999	14	[0, 0, 0]	n/a	FR1	1	R1154D
1554.609	4.476	1562956	REC_END	n/a	n/a	n/a	-999	14	[0, 0, 0]	n/a	FR1	1	R1154D
1559.085	0.5	1567432	TRIAL	n/a	n/a	n/a	-999	15	[0, 0, 0]	n/a	FR1	1	R1154D
1559.585	10.428	1567932	COUNTDOWN_START	n/a	n/a	n/a	-999	15	[0, 0, 0]	n/a	FR1	1	R1154D
1570.013	0.007	1578360	COUNTDOWN_END	n/a	n/a	n/a	-999	15	[0, 0, 0]	n/a	FR1	1	R1154D
1570.02	1.618	1578367	ORIENT	n/a	n/a	n/a	-999	15	[0, 0, 0]	n/a	FR1	1	R1154D
1571.638	2.051	1579984	ORIENT_OFF	n/a	n/a	n/a	-999	15	[0, 0, 0]	n/a	FR1	1	R1154D
1573.689	1.617	1582035	WORD	n/a	wordpools/wordpool_EN.txt	HOOF	1	15	[0, 0, 0]	n/a	FR1	1	R1154D
1575.306	0.95	1583652	WORD_OFF	n/a	n/a	HOOF	1	15	[0, 0, 0]	n/a	FR1	1	R1154D
1576.256	1.616	1584602	WORD	n/a	wordpools/wordpool_EN.txt	WOOD	2	15	[0, 0, 0]	n/a	FR1	1	R1154D
1577.872	0.95	1586218	WORD_OFF	n/a	n/a	WOOD	2	15	[0, 0, 0]	n/a	FR1	1	R1154D
1578.822	1.618	1587168	WORD	n/a	wordpools/wordpool_EN.txt	RAKE	3	15	[0, 0, 0]	n/a	FR1	1	R1154D
1580.44	0.817	1588786	WORD_OFF	n/a	n/a	RAKE	3	15	[0, 0, 0]	n/a	FR1	1	R1154D
1581.257	1.616	1589603	WORD	n/a	wordpools/wordpool_EN.txt	SOAP	4	15	[0, 0, 0]	n/a	FR1	1	R1154D
1582.873	0.983	1591219	WORD_OFF	n/a	n/a	SOAP	4	15	[0, 0, 0]	n/a	FR1	1	R1154D
1583.856	1.618	1592202	WORD	n/a	wordpools/wordpool_EN.txt	FLEA	5	15	[0, 0, 0]	n/a	FR1	1	R1154D
1585.474	0.85	1593820	WORD_OFF	n/a	n/a	FLEA	5	15	[0, 0, 0]	n/a	FR1	1	R1154D
1586.324	1.616	1594670	WORD	n/a	wordpools/wordpool_EN.txt	SPEAR	6	15	[0, 0, 0]	n/a	FR1	1	R1154D
1587.94	0.851	1596286	WORD_OFF	n/a	n/a	SPEAR	6	15	[0, 0, 0]	n/a	FR1	1	R1154D
1588.791	1.617	1597137	WORD	n/a	wordpools/wordpool_EN.txt	PANTS	7	15	[0, 0, 0]	n/a	FR1	1	R1154D
1590.408	0.917	1598753	WORD_OFF	n/a	n/a	PANTS	7	15	[0, 0, 0]	n/a	FR1	1	R1154D
1591.325	1.616	1599670	WORD	n/a	wordpools/wordpool_EN.txt	SNAKE	8	15	[0, 0, 0]	n/a	FR1	1	R1154D
1592.941	0.867	1601286	WORD_OFF	n/a	n/a	SNAKE	8	15	[0, 0, 0]	n/a	FR1	1	R1154D
1593.808	1.618	1602153	WORD	n/a	wordpools/wordpool_EN.txt	BEACH	9	15	[0, 0, 0]	n/a	FR1	1	R1154D
1595.426	0.799	1603771	WORD_OFF	n/a	n/a	BEACH	9	15	[0, 0, 0]	n/a	FR1	1	R1154D
1596.225	1.617	1604570	WORD	n/a	wordpools/wordpool_EN.txt	FOAM	10	15	[0, 0, 0]	n/a	FR1	1	R1154D
1597.842	0.768	1606187	WORD_OFF	n/a	n/a	FOAM	10	15	[0, 0, 0]	n/a	FR1	1	R1154D
1598.61	1.616	1606955	WORD	n/a	wordpools/wordpool_EN.txt	SKUNK	11	15	[0, 0, 0]	n/a	FR1	1	R1154D
1600.226	0.917	1608571	WORD_OFF	n/a	n/a	SKUNK	11	15	[0, 0, 0]	n/a	FR1	1	R1154D
1601.143	1.618	1609488	WORD	n/a	wordpools/wordpool_EN.txt	STRING	12	15	[0, 0, 0]	n/a	FR1	1	R1154D
1602.761	0.0	1611106	WORD_OFF	n/a	n/a	STRING	12	15	[0, 0, 0]	n/a	FR1	1	R1154D
1602.761	0.0	1611106	DISTRACT_START	n/a	n/a	n/a	-999	15	[0, 0, 0]	n/a	FR1	1	R1154D
1602.761	0.016	1611106	START	n/a	n/a	n/a	-999	15	[-999, -999, -999]	n/a	FR1	1	R1154D
1602.777	3.534	1611122	PROB	3.534	n/a	n/a	-999	15	[3, 9, 9]	21	FR1	1	R1154D
1606.311	2.034	1614656	PROB	2.034	n/a	n/a	-999	15	[5, 5, 6]	16	FR1	1	R1154D
1608.345	3.101	1616689	PROB	3.101	n/a	n/a	-999	15	[2, 3, 9]	14	FR1	1	R1154D
1611.446	3.649	1619790	PROB	3.649	n/a	n/a	-999	15	[6, 5, 6]	17	FR1	1	R1154D
1615.095	1.834	1623439	PROB	1.834	n/a	n/a	-999	15	[4, 7, 3]	14	FR1	1	R1154D
1616.929	5.318	1625273	PROB	5.318	n/a	n/a	-999	15	[4, 7, 6]	17	FR1	1	R1154D
1622.247	2.584	1630591	PROB	2.584	n/a	n/a	-999	15	[2, 1, 3]	6	FR1	1	R1154D
1624.831	0.016	1633175	STOP	n/a	n/a	n/a	-999	15	[-999, -999, -999]	n/a	FR1	1	R1154D
1624.847	0.584	1633191	DISTRACT_END	n/a	n/a	n/a	-999	15	[0, 0, 0]	n/a	FR1	1	R1154D
1625.431	0.517	1633775	RETRIEVAL_ORIENT	n/a	n/a	n/a	-999	15	[0, 0, 0]	n/a	FR1	1	R1154D
1625.948	0.702	1634292	REC_START	n/a	n/a	n/a	-999	15	[0, 0, 0]	n/a	FR1	1	R1154D
1626.65	0.929	1634993	REC_WORD	0.929	n/a	STAIR	-999	15	[0, 0, 0]	n/a	FR1	1	R1154D
1627.579	1.0	1635922	REC_WORD_VV	1.0	n/a	<>	-999	15	[0, 0, 0]	n/a	FR1	1	R1154D
1628.579	1.063	1636922	REC_WORD_VV	1.063	n/a	<>	-999	15	[0, 0, 0]	n/a	FR1	1	R1154D
1629.642	2.275	1637985	REC_WORD	2.275	n/a	PANTS	-999	15	[0, 0, 0]	n/a	FR1	1	R1154D
1631.917	0.903	1640260	REC_WORD_VV	0.903	n/a	<>	-999	15	[0, 0, 0]	n/a	FR1	1	R1154D
1632.82	1.53	1641163	REC_WORD	1.53	n/a	WOOD	-999	15	[0, 0, 0]	n/a	FR1	1	R1154D
1634.35	4.027	1642693	REC_WORD	4.027	n/a	HOOF	-999	15	[0, 0, 0]	n/a	FR1	1	R1154D
1638.377	0.283	1646720	REC_WORD_VV	0.283	n/a	<>	-999	15	[0, 0, 0]	n/a	FR1	1	R1154D
1638.66	17.299	1647003	REC_WORD	17.299	n/a	HOOF	-999	15	[0, 0, 0]	n/a	FR1	1	R1154D
1655.959	5.195	1664301	REC_END	n/a	n/a	n/a	-999	15	[0, 0, 0]	n/a	FR1	1	R1154D
1661.154	0.5	1669496	TRIAL	n/a	n/a	n/a	-999	16	[0, 0, 0]	n/a	FR1	1	R1154D
1661.654	10.428	1669996	COUNTDOWN_START	n/a	n/a	n/a	-999	16	[0, 0, 0]	n/a	FR1	1	R1154D
1672.082	0.007	1680423	COUNTDOWN_END	n/a	n/a	n/a	-999	16	[0, 0, 0]	n/a	FR1	1	R1154D
1672.089	1.618	1680430	ORIENT	n/a	n/a	n/a	-999	16	[0, 0, 0]	n/a	FR1	1	R1154D
1673.707	2.166	1682048	ORIENT_OFF	n/a	n/a	n/a	-999	16	[0, 0, 0]	n/a	FR1	1	R1154D
1675.873	1.618	1684214	WORD	n/a	wordpools/wordpool_EN.txt	CONE	1	16	[0, 0, 0]	n/a	FR1	1	R1154D
1677.491	0.9	1685832	WORD_OFF	n/a	n/a	CONE	1	16	[0, 0, 0]	n/a	FR1	1	R1154D
1678.391	1.616	1686732	WORD	n/a	wordpools/wordpool_EN.txt	VINE	2	16	[0, 0, 0]	n/a	FR1	1	R1154D
1680.007	0.967	1688348	WORD_OFF	n/a	n/a	VINE	2	16	[0, 0, 0]	n/a	FR1	1	R1154D
1680.974	1.601	1689315	WORD	n/a	wordpools/wordpool_EN.txt	CHIN	3	16	[0, 0, 0]	n/a	FR1	1	R1154D
1682.575	0.817	1690915	WORD_OFF	n/a	n/a	CHIN	3	16	[0, 0, 0]	n/a	FR1	1	R1154D
1683.392	1.616	1691732	WORD	n/a	wordpools/wordpool_EN.txt	FLOOR	4	16	[0, 0, 0]	n/a	FR1	1	R1154D
1685.008	0.867	1693348	WORD_OFF	n/a	n/a	FLOOR	4	16	[0, 0, 0]	n/a	FR1	1	R1154D
1685.875	1.618	1694215	WORD	n/a	wordpools/wordpool_EN.txt	CLIFF	5	16	[0, 0, 0]	n/a	FR1	1	R1154D
1687.493	0.95	1695833	WORD_OFF	n/a	n/a	CLIFF	5	16	[0, 0, 0]	n/a	FR1	1	R1154D
1688.443	1.616	1696783	WORD	n/a	wordpools/wordpool_EN.txt	VEST	6	16	[0, 0, 0]	n/a	FR1	1	R1154D
1690.059	0.85	1698399	WORD_OFF	n/a	n/a	VEST	6	16	[0, 0, 0]	n/a	FR1	1	R1154D
1690.909	1.601	1699249	WORD	n/a	wordpools/wordpool_EN.txt	SOCK	7	16	[0, 0, 0]	n/a	FR1	1	R1154D
1692.51	0.934	1700850	WORD_OFF	n/a	n/a	SOCK	7	16	[0, 0, 0]	n/a	FR1	1	R1154D
1693.444	1.616	1701784	WORD	n/a	wordpools/wordpool_EN.txt	FUR	8	16	[0, 0, 0]	n/a	FR1	1	R1154D
1695.06	0.933	1703400	WORD_OFF	n/a	n/a	FUR	8	16	[0, 0, 0]	n/a	FR1	1	R1154D
1695.993	1.618	1704333	WORD	n/a	wordpools/wordpool_EN.txt	LAND	9	16	[0, 0, 0]	n/a	FR1	1	R1154D
1697.611	1.001	1705951	WORD_OFF	n/a	n/a	LAND	9	16	[0, 0, 0]	n/a	FR1	1	R1154D
1698.612	1.615	1706952	WORD	n/a	wordpools/wordpool_EN.txt	RIB	10	16	[0, 0, 0]	n/a	FR1	1	R1154D
1700.227	0.984	1708566	WORD_OFF	n/a	n/a	RIB	10	16	[0, 0, 0]	n/a	FR1	1	R1154D
1701.211	1.617	1709550	WORD	n/a	wordpools/wordpool_EN.txt	RUG	11	16	[0, 0, 0]	n/a	FR1	1	R1154D
1702.828	0.968	1711167	WORD_OFF	n/a	n/a	RUG	11	16	[0, 0, 0]	n/a	FR1	1	R1154D
1703.796	1.617	1712135	WORD	n/a	wordpools/wordpool_EN.txt	WALL	12	16	[0, 0, 0]	n/a	FR1	1	R1154D
1705.413	0.0	1713752	WORD_OFF	n/a	n/a	WALL	12	16	[0, 0, 0]	n/a	FR1	1	R1154D
1705.413	0.0	1713752	DISTRACT_START	n/a	n/a	n/a	-999	16	[0, 0, 0]	n/a	FR1	1	R1154D
1705.413	0.016	1713752	START	n/a	n/a	n/a	-999	16	[-999, -999, -999]	n/a	FR1	1	R1154D
1705.429	5.6	1713768	PROB	5.6	n/a	n/a	-999	16	[9, 4, 2]	15	FR1	1	R1154D
1711.029	4.101	1719368	PROB	4.101	n/a	n/a	-999	16	[8, 6, 7]	21	FR1	1	R1154D
1715.13	4.352	1723469	PROB	4.352	n/a	n/a	-999	16	[3, 5, 8]	16	FR1	1	R1154D
1719.482	1.884	1727820	PROB	1.884	n/a	n/a	-999	16	[7, 4, 6]	1	FR1	1	R1154D
1721.366	3.0	1729704	PROB	3.0	n/a	n/a	-999	16	[2, 5, 9]	16	FR1	1	R1154D
1724.366	2.106	1732704	PROB	2.106	n/a	n/a	-999	16	[9, 7, 3]	19	FR1	1	R1154D
1726.472	0.011	1734810	STOP	n/a	n/a	n/a	-999	16	[-999, -999, -999]	n/a	FR1	1	R1154D
1726.483	0.716	1734821	DISTRACT_END	n/a	n/a	n/a	-999	16	[0, 0, 0]	n/a	FR1	1	R1154D
1727.199	0.519	1735537	RETRIEVAL_ORIENT	n/a	n/a	n/a	-999	16	[0, 0, 0]	n/a	FR1	1	R1154D
1727.718	11.405	1736056	REC_START	n/a	n/a	n/a	-999	16	[0, 0, 0]	n/a	FR1	1	R1154D
1739.123	0.394	1747460	REC_WORD_VV	0.394	n/a	<>	-999	16	[0, 0, 0]	n/a	FR1	1	R1154D
1739.517	6.934	1747854	REC_WORD	6.934	n/a	FLOOR	-999	16	[0, 0, 0]	n/a	FR1	1	R1154D
1746.451	4.798	1754788	REC_WORD	4.798	n/a	SOCK	-999	16	[0, 0, 0]	n/a	FR1	1	R1154D
1751.249	1.0	1759586	REC_WORD_VV	1.0	n/a	<>	-999	16	[0, 0, 0]	n/a	FR1	1	R1154D
1752.249	5.481	1760586	REC_WORD_VV	5.481	n/a	<>	-999	16	[0, 0, 0]	n/a	FR1	1	R1154D
1757.73	4.843	1766066	REC_END	n/a	n/a	n/a	-999	16	[0, 0, 0]	n/a	FR1	1	R1154D
1762.573	0.5	1770909	TRIAL	n/a	n/a	n/a	-999	17	[0, 0, 0]	n/a	FR1	1	R1154D
1763.073	10.428	1771409	COUNTDOWN_START	n/a	n/a	n/a	-999	17	[0, 0, 0]	n/a	FR1	1	R1154D
1773.501	0.008	1781836	COUNTDOWN_END	n/a	n/a	n/a	-999	17	[0, 0, 0]	n/a	FR1	1	R1154D
1773.509	1.616	1781844	ORIENT	n/a	n/a	n/a	-999	17	[0, 0, 0]	n/a	FR1	1	R1154D
1775.125	1.95	1783460	ORIENT_OFF	n/a	n/a	n/a	-999	17	[0, 0, 0]	n/a	FR1	1	R1154D
1777.075	1.618	1785410	WORD	n/a	wordpools/wordpool_EN.txt	MOUTH	1	17	[0, 0, 0]	n/a	FR1	1	R1154D
1778.693	0.967	1787028	WORD_OFF	n/a	n/a	MOUTH	1	17	[0, 0, 0]	n/a	FR1	1	R1154D
1779.66	1.617	1787995	WORD	n/a	wordpools/wordpool_EN.txt	COW	2	17	[0, 0, 0]	n/a	FR1	1	R1154D
1781.277	1.0	1789612	WORD_OFF	n/a	n/a	COW	2	17	[0, 0, 0]	n/a	FR1	1	R1154D
1782.277	1.616	1790612	WORD	n/a	wordpools/wordpool_EN.txt	PRINCE	3	17	[0, 0, 0]	n/a	FR1	1	R1154D
1783.893	0.768	1792228	WORD_OFF	n/a	n/a	PRINCE	3	17	[0, 0, 0]	n/a	FR1	1	R1154D
1784.661	1.617	1792996	WORD	n/a	wordpools/wordpool_EN.txt	BARN	4	17	[0, 0, 0]	n/a	FR1	1	R1154D
1786.278	0.799	1794613	WORD_OFF	n/a	n/a	BARN	4	17	[0, 0, 0]	n/a	FR1	1	R1154D
1787.077	1.618	1795412	WORD	n/a	wordpools/wordpool_EN.txt	WOLF	5	17	[0, 0, 0]	n/a	FR1	1	R1154D
1788.695	0.833	1797030	WORD_OFF	n/a	n/a	WOLF	5	17	[0, 0, 0]	n/a	FR1	1	R1154D
1789.528	1.616	1797863	WORD	n/a	wordpools/wordpool_EN.txt	STEAK	6	17	[0, 0, 0]	n/a	FR1	1	R1154D
1791.144	0.95	1799479	WORD_OFF	n/a	n/a	STEAK	6	17	[0, 0, 0]	n/a	FR1	1	R1154D
1792.094	1.601	1800428	WORD	n/a	wordpools/wordpool_EN.txt	GOAT	7	17	[0, 0, 0]	n/a	FR1	1	R1154D
1793.695	0.784	1802029	WORD_OFF	n/a	n/a	GOAT	7	17	[0, 0, 0]	n/a	FR1	1	R1154D
1794.479	1.616	1802813	WORD	n/a	wordpools/wordpool_EN.txt	BEAK	8	17	[0, 0, 0]	n/a	FR1	1	R1154D
1796.095	1.0	1804429	WORD_OFF	n/a	n/a	BEAK	8	17	[0, 0, 0]	n/a	FR1	1	R1154D
1797.095	1.601	1805429	WORD	n/a	wordpools/wordpool_EN.txt	GUARD	9	17	[0, 0, 0]	n/a	FR1	1	R1154D
1798.696	0.817	1807030	WORD_OFF	n/a	n/a	GUARD	9	17	[0, 0, 0]	n/a	FR1	1	R1154D
1799.513	1.616	1807847	WORD	n/a	wordpools/wordpool_EN.txt	BAG	10	17	[0, 0, 0]	n/a	FR1	1	R1154D
1801.129	0.967	1809463	WORD_OFF	n/a	n/a	BAG	10	17	[0, 0, 0]	n/a	FR1	1	R1154D
1802.096	1.618	1810430	WORD	n/a	wordpools/wordpool_EN.txt	GATE	11	17	[0, 0, 0]	n/a	FR1	1	R1154D
1803.714	0.8	1812048	WORD_OFF	n/a	n/a	GATE	11	17	[0, 0, 0]	n/a	FR1	1	R1154D
1804.514	1.616	1812848	WORD	n/a	wordpools/wordpool_EN.txt	CALF	12	17	[0, 0, 0]	n/a	FR1	1	R1154D
1806.13	0.0	1814464	WORD_OFF	n/a	n/a	CALF	12	17	[0, 0, 0]	n/a	FR1	1	R1154D
1806.13	0.001	1814464	DISTRACT_START	n/a	n/a	n/a	-999	17	[0, 0, 0]	n/a	FR1	1	R1154D
1806.131	0.016	1814465	START	n/a	n/a	n/a	-999	17	[-999, -999, -999]	n/a	FR1	1	R1154D
1806.147	5.868	1814481	PROB	5.868	n/a	n/a	-999	17	[8, 8, 7]	23	FR1	1	R1154D
1812.015	1.917	1820348	PROB	1.917	n/a	n/a	-999	17	[1, 9, 7]	17	FR1	1	R1154D
1813.932	2.95	1822265	PROB	2.95	n/a	n/a	-999	17	[8, 5, 3]	16	FR1	1	R1154D
1816.882	1.851	1825215	PROB	1.851	n/a	n/a	-999	17	[3, 8, 2]	13	FR1	1	R1154D
1818.733	2.283	1827066	PROB	2.283	n/a	n/a	-999	17	[2, 9, 6]	17	FR1	1	R1154D
1821.016	2.051	1829349	PROB	2.051	n/a	n/a	-999	17	[4, 1, 5]	10	FR1	1	R1154D
1823.067	1.917	1831400	PROB	1.917	n/a	n/a	-999	17	[2, 5, 1]	8	FR1	1	R1154D
1824.984	2.409	1833317	PROB	2.409	n/a	n/a	-999	17	[9, 3, 4]	16	FR1	1	R1154D
1827.393	0.009	1835726	STOP	n/a	n/a	n/a	-999	17	[-999, -999, -999]	n/a	FR1	1	R1154D
1827.402	0.549	1835735	DISTRACT_END	n/a	n/a	n/a	-999	17	[0, 0, 0]	n/a	FR1	1	R1154D
1827.951	0.518	1836284	RETRIEVAL_ORIENT	n/a	n/a	n/a	-999	17	[0, 0, 0]	n/a	FR1	1	R1154D
1828.469	1.196	1836801	REC_START	n/a	n/a	n/a	-999	17	[0, 0, 0]	n/a	FR1	1	R1154D
1829.665	0.42	1837997	REC_WORD	0.42	n/a	BARN	-999	17	[0, 0, 0]	n/a	FR1	1	R1154D
1830.085	0.51	1838417	REC_WORD	0.51	n/a	CALF	-999	17	[0, 0, 0]	n/a	FR1	1	R1154D
1830.595	3.058	1838927	REC_WORD	3.058	n/a	COW	-999	17	[0, 0, 0]	n/a	FR1	1	R1154D
1833.653	6.574	1841985	REC_WORD	6.574	n/a	BEAK	-999	17	[0, 0, 0]	n/a	FR1	1	R1154D
1840.227	4.928	1848559	REC_WORD	4.928	n/a	GUARD	-999	17	[0, 0, 0]	n/a	FR1	1	R1154D
1845.155	13.327	1853487	REC_WORD	13.327	n/a	WOLF	-999	17	[0, 0, 0]	n/a	FR1	1	R1154D
1858.482	5.143	1866813	REC_END	n/a	n/a	n/a	-999	17	[0, 0, 0]	n/a	FR1	1	R1154D
1863.625	0.5	1871956	TRIAL	n/a	n/a	n/a	-999	18	[0, 0, 0]	n/a	FR1	1	R1154D
1864.125	10.428	1872456	COUNTDOWN_START	n/a	n/a	n/a	-999	18	[0, 0, 0]	n/a	FR1	1	R1154D
1874.553	0.007	1882883	COUNTDOWN_END	n/a	n/a	n/a	-999	18	[0, 0, 0]	n/a	FR1	1	R1154D
1874.56	1.616	1882890	ORIENT	n/a	n/a	n/a	-999	18	[0, 0, 0]	n/a	FR1	1	R1154D
1876.176	2.185	1884506	ORIENT_OFF	n/a	n/a	n/a	-999	18	[0, 0, 0]	n/a	FR1	1	R1154D
1878.361	1.616	1886691	WORD	n/a	wordpools/wordpool_EN.txt	CHALK	1	18	[0, 0, 0]	n/a	FR1	1	R1154D
1879.977	0.984	1888307	WORD_OFF	n/a	n/a	CHALK	1	18	[0, 0, 0]	n/a	FR1	1	R1154D
1880.961	1.618	1889291	WORD	n/a	wordpools/wordpool_EN.txt	PLATE	2	18	[0, 0, 0]	n/a	FR1	1	R1154D
1882.579	0.95	1890909	WORD_OFF	n/a	n/a	PLATE	2	18	[0, 0, 0]	n/a	FR1	1	R1154D
1883.529	1.616	1891859	WORD	n/a	wordpools/wordpool_EN.txt	CART	3	18	[0, 0, 0]	n/a	FR1	1	R1154D
1885.145	0.783	1893474	WORD_OFF	n/a	n/a	CART	3	18	[0, 0, 0]	n/a	FR1	1	R1154D
1885.928	1.618	1894257	WORD	n/a	wordpools/wordpool_EN.txt	TRAY	4	18	[0, 0, 0]	n/a	FR1	1	R1154D
1887.546	0.884	1895875	WORD_OFF	n/a	n/a	TRAY	4	18	[0, 0, 0]	n/a	FR1	1	R1154D
1888.43	1.616	1896759	WORD	n/a	wordpools/wordpool_EN.txt	FENCE	5	18	[0, 0, 0]	n/a	FR1	1	R1154D
1890.046	1.016	1898375	WORD_OFF	n/a	n/a	FENCE	5	18	[0, 0, 0]	n/a	FR1	1	R1154D
1891.062	1.601	1899391	WORD	n/a	wordpools/wordpool_EN.txt	STONE	6	18	[0, 0, 0]	n/a	FR1	1	R1154D
1892.663	1.018	1900992	WORD_OFF	n/a	n/a	STONE	6	18	[0, 0, 0]	n/a	FR1	1	R1154D
1893.681	1.617	1902010	WORD	n/a	wordpools/wordpool_EN.txt	PASTE	7	18	[0, 0, 0]	n/a	FR1	1	R1154D
1895.298	0.882	1903627	WORD_OFF	n/a	n/a	PASTE	7	18	[0, 0, 0]	n/a	FR1	1	R1154D
1896.18	1.618	1904509	WORD	n/a	wordpools/wordpool_EN.txt	FRUIT	8	18	[0, 0, 0]	n/a	FR1	1	R1154D
1897.798	0.85	1906127	WORD_OFF	n/a	n/a	FRUIT	8	18	[0, 0, 0]	n/a	FR1	1	R1154D
1898.648	1.617	1906977	WORD	n/a	wordpools/wordpool_EN.txt	INK	9	18	[0, 0, 0]	n/a	FR1	1	R1154D
1900.265	0.799	1908594	WORD_OFF	n/a	n/a	INK	9	18	[0, 0, 0]	n/a	FR1	1	R1154D
1901.064	1.601	1909393	WORD	n/a	wordpools/wordpool_EN.txt	SHARK	10	18	[0, 0, 0]	n/a	FR1	1	R1154D
1902.665	1.001	1910993	WORD_OFF	n/a	n/a	SHARK	10	18	[0, 0, 0]	n/a	FR1	1	R1154D
1903.666	1.617	1911994	WORD	n/a	wordpools/wordpool_EN.txt	SALT	11	18	[0, 0, 0]	n/a	FR1	1	R1154D
1905.283	0.932	1913611	WORD_OFF	n/a	n/a	SALT	11	18	[0, 0, 0]	n/a	FR1	1	R1154D
1906.215	1.617	1914543	WORD	n/a	wordpools/wordpool_EN.txt	BEAN	12	18	[0, 0, 0]	n/a	FR1	1	R1154D
1907.832	0.0	1916160	WORD_OFF	n/a	n/a	BEAN	12	18	[0, 0, 0]	n/a	FR1	1	R1154D
1907.832	0.001	1916160	DISTRACT_START	n/a	n/a	n/a	-999	18	[0, 0, 0]	n/a	FR1	1	R1154D
1907.833	0.016	1916161	START	n/a	n/a	n/a	-999	18	[-999, -999, -999]	n/a	FR1	1	R1154D
1907.849	3.167	1916177	PROB	3.167	n/a	n/a	-999	18	[1, 5, 8]	14	FR1	1	R1154D
1911.016	3.084	1919344	PROB	3.084	n/a	n/a	-999	18	[4, 9, 7]	20	FR1	1	R1154D
1914.1	3.884	1922428	PROB	3.884	n/a	n/a	-999	18	[4, 1, 4]	9	FR1	1	R1154D
1917.984	2.651	1926312	PROB	2.651	n/a	n/a	-999	18	[3, 3, 4]	10	FR1	1	R1154D
1920.635	2.101	1928962	PROB	2.101	n/a	n/a	-999	18	[7, 8, 3]	18	FR1	1	R1154D
1922.736	3.717	1931063	PROB	3.717	n/a	n/a	-999	18	[9, 7, 7]	23	FR1	1	R1154D
1926.453	2.276	1934780	PROB	2.276	n/a	n/a	-999	18	[9, 9, 9]	27	FR1	1	R1154D
1928.729	0.008	1937056	STOP	n/a	n/a	n/a	-999	18	[-999, -999, -999]	n/a	FR1	1	R1154D
1928.737	0.55	1937064	DISTRACT_END	n/a	n/a	n/a	-999	18	[0, 0, 0]	n/a	FR1	1	R1154D
1929.287	0.517	1937614	RETRIEVAL_ORIENT	n/a	n/a	n/a	-999	18	[0, 0, 0]	n/a	FR1	1	R1154D
1929.804	5.063	1938131	REC_START	n/a	n/a	n/a	-999	18	[0, 0, 0]	n/a	FR1	1	R1154D
1934.867	4.226	1943194	REC_WORD_VV	4.226	n/a	<>	-999	18	[0, 0, 0]	n/a	FR1	1	R1154D
1939.093	0.33	1947419	REC_WORD_VV	0.33	n/a	<>	-999	18	[0, 0, 0]	n/a	FR1	1	R1154D
1939.423	3.687	1947749	REC_WORD	3.687	n/a	SALT	-999	18	[0, 0, 0]	n/a	FR1	1	R1154D
1943.11	0.556	1951436	REC_WORD	0.556	n/a	PLATE	-999	18	[0, 0, 0]	n/a	FR1	1	R1154D
1943.666	0.628	1951992	REC_WORD	0.628	n/a	TRAY	-999	18	[0, 0, 0]	n/a	FR1	1	R1154D
1944.294	2.264	1952620	REC_WORD	2.264	n/a	CART	-999	18	[0, 0, 0]	n/a	FR1	1	R1154D
1946.558	7.422	1954884	REC_WORD	7.422	n/a	MOUTH	-999	18	[0, 0, 0]	n/a	FR1	1	R1154D
1953.98	5.836	1962306	REC_WORD_VV	5.836	n/a	<>	-999	18	[0, 0, 0]	n/a	FR1	1	R1154D
1959.816	4.177	1968141	REC_END	n/a	n/a	n/a	-999	18	[0, 0, 0]	n/a	FR1	1	R1154D
1963.993	0.5	1972318	TRIAL	n/a	n/a	n/a	-999	19	[0, 0, 0]	n/a	FR1	1	R1154D
1964.493	10.428	1972818	COUNTDOWN_START	n/a	n/a	n/a	-999	19	[0, 0, 0]	n/a	FR1	1	R1154D
1974.921	0.007	1983246	COUNTDOWN_END	n/a	n/a	n/a	-999	19	[0, 0, 0]	n/a	FR1	1	R1154D
1974.928	1.601	1983253	ORIENT	n/a	n/a	n/a	-999	19	[0, 0, 0]	n/a	FR1	1	R1154D
1976.529	2.017	1984853	ORIENT_OFF	n/a	n/a	n/a	-999	19	[0, 0, 0]	n/a	FR1	1	R1154D
1978.546	1.616	1986870	WORD	n/a	wordpools/wordpool_EN.txt	STREET	1	19	[0, 0, 0]	n/a	FR1	1	R1154D
1980.162	0.884	1988486	WORD_OFF	n/a	n/a	STREET	1	19	[0, 0, 0]	n/a	FR1	1	R1154D
1981.046	1.618	1989370	WORD	n/a	wordpools/wordpool_EN.txt	FROG	2	19	[0, 0, 0]	n/a	FR1	1	R1154D
1982.664	0.983	1990988	WORD_OFF	n/a	n/a	FROG	2	19	[0, 0, 0]	n/a	FR1	1	R1154D
1983.647	1.617	1991971	WORD	n/a	wordpools/wordpool_EN.txt	STORE	3	19	[0, 0, 0]	n/a	FR1	1	R1154D
1985.264	0.866	1993588	WORD_OFF	n/a	n/a	STORE	3	19	[0, 0, 0]	n/a	FR1	1	R1154D
1986.13	1.618	1994454	WORD	n/a	wordpools/wordpool_EN.txt	BADGE	4	19	[0, 0, 0]	n/a	FR1	1	R1154D
1987.748	0.9	1996072	WORD_OFF	n/a	n/a	BADGE	4	19	[0, 0, 0]	n/a	FR1	1	R1154D
1988.648	1.617	1996972	WORD	n/a	wordpools/wordpool_EN.txt	CAR	5	19	[0, 0, 0]	n/a	FR1	1	R1154D
1990.265	0.983	1998589	WORD_OFF	n/a	n/a	CAR	5	19	[0, 0, 0]	n/a	FR1	1	R1154D
1991.248	1.616	1999572	WORD	n/a	wordpools/wordpool_EN.txt	JUDGE	6	19	[0, 0, 0]	n/a	FR1	1	R1154D
1992.864	0.984	2001188	WORD_OFF	n/a	n/a	JUDGE	6	19	[0, 0, 0]	n/a	FR1	1	R1154D
1993.848	1.601	2002171	WORD	n/a	wordpools/wordpool_EN.txt	KEY	7	19	[0, 0, 0]	n/a	FR1	1	R1154D
1995.449	0.95	2003772	WORD_OFF	n/a	n/a	KEY	7	19	[0, 0, 0]	n/a	FR1	1	R1154D
1996.399	1.616	2004722	WORD	n/a	wordpools/wordpool_EN.txt	COIN	8	19	[0, 0, 0]	n/a	FR1	1	R1154D
1998.015	0.917	2006338	WORD_OFF	n/a	n/a	COIN	8	19	[0, 0, 0]	n/a	FR1	1	R1154D
1998.932	1.618	2007255	WORD	n/a	wordpools/wordpool_EN.txt	CLOCK	9	19	[0, 0, 0]	n/a	FR1	1	R1154D
2000.55	0.767	2008873	WORD_OFF	n/a	n/a	CLOCK	9	19	[0, 0, 0]	n/a	FR1	1	R1154D
2001.317	1.616	2009640	WORD	n/a	wordpools/wordpool_EN.txt	TANK	10	19	[0, 0, 0]	n/a	FR1	1	R1154D
2002.933	0.95	2011256	WORD_OFF	n/a	n/a	TANK	10	19	[0, 0, 0]	n/a	FR1	1	R1154D
2003.883	1.618	2012206	WORD	n/a	wordpools/wordpool_EN.txt	MAIL	11	19	[0, 0, 0]	n/a	FR1	1	R1154D
2005.501	0.934	2013824	WORD_OFF	n/a	n/a	MAIL	11	19	[0, 0, 0]	n/a	FR1	1	R1154D
2006.435	1.616	2014758	WORD	n/a	wordpools/wordpool_EN.txt	BOOK	12	19	[0, 0, 0]	n/a	FR1	1	R1154D
2008.051	0.0	2016374	WORD_OFF	n/a	n/a	BOOK	12	19	[0, 0, 0]	n/a	FR1	1	R1154D
2008.051	0.0	2016374	DISTRACT_START	n/a	n/a	n/a	-999	19	[0, 0, 0]	n/a	FR1	1	R1154D
2008.051	0.016	2016374	START	n/a	n/a	n/a	-999	19	[-999, -999, -999]	n/a	FR1	1	R1154D
2008.067	2.468	2016390	PROB	2.468	n/a	n/a	-999	19	[5, 2, 2]	9	FR1	1	R1154D
2010.535	2.251	2018858	PROB	2.251	n/a	n/a	-999	19	[6, 8, 1]	15	FR1	1	R1154D
2012.786	2.5	2021108	PROB	2.5	n/a	n/a	-999	19	[5, 8, 9]	22	FR1	1	R1154D
2015.286	3.484	2023608	PROB	3.484	n/a	n/a	-999	19	[6, 8, 5]	19	FR1	1	R1154D
2018.77	2.0	2027092	PROB	2.0	n/a	n/a	-999	19	[5, 5, 4]	14	FR1	1	R1154D
2020.77	2.884	2029092	PROB	2.884	n/a	n/a	-999	19	[7, 9, 9]	26	FR1	1	R1154D
2023.654	2.45	2031976	PROB	2.45	n/a	n/a	-999	19	[6, 2, 8]	16	FR1	1	R1154D
2026.104	2.016	2034426	PROB	2.016	n/a	n/a	-999	19	[7, 2, 1]	10	FR1	1	R1154D
2028.12	0.018	2036442	STOP	n/a	n/a	n/a	-999	19	[-999, -999, -999]	n/a	FR1	1	R1154D
2028.138	0.551	2036460	DISTRACT_END	n/a	n/a	n/a	-999	19	[0, 0, 0]	n/a	FR1	1	R1154D
2028.689	0.516	2037011	RETRIEVAL_ORIENT	n/a	n/a	n/a	-999	19	[0, 0, 0]	n/a	FR1	1	R1154D
2029.205	0.771	2037527	REC_START	n/a	n/a	n/a	-999	19	[0, 0, 0]	n/a	FR1	1	R1154D
2029.976	8.703	2038298	REC_WORD	8.703	n/a	JUDGE	-999	19	[0, 0, 0]	n/a	FR1	1	R1154D
2038.679	9.617	2047000	REC_WORD_VV	9.617	n/a	<>	-999	19	[0, 0, 0]	n/a	FR1	1	R1154D
2048.296	0.122	2056617	REC_WORD_VV	0.122	n/a	<>	-999	19	[0, 0, 0]	n/a	FR1	1	R1154D
2048.418	4.178	2056739	REC_WORD	4.178	n/a	CAR	-999	19	[0, 0, 0]	n/a	FR1	1	R1154D
2052.596	6.621	2060916	REC_WORD	6.621	n/a	STREET	-999	19	[0, 0, 0]	n/a	FR1	1	R1154D
2059.217	4.744	2067537	REC_END	n/a	n/a	n/a	-999	19	[0, 0, 0]	n/a	FR1	1	R1154D
2063.961	0.5	2072281	TRIAL	n/a	n/a	n/a	-999	20	[0, 0, 0]	n/a	FR1	1	R1154D
2064.461	10.428	2072781	COUNTDOWN_START	n/a	n/a	n/a	-999	20	[0, 0, 0]	n/a	FR1	1	R1154D
2074.889	0.007	2083208	COUNTDOWN_END	n/a	n/a	n/a	-999	20	[0, 0, 0]	n/a	FR1	1	R1154D
2074.896	1.601	2083215	ORIENT	n/a	n/a	n/a	-999	20	[0, 0, 0]	n/a	FR1	1	R1154D
2076.497	2.234	2084816	ORIENT_OFF	n/a	n/a	n/a	-999	20	[0, 0, 0]	n/a	FR1	1	R1154D
2078.731	1.617	2087050	WORD	n/a	wordpools/wordpool_EN.txt	CUBE	1	20	[0, 0, 0]	n/a	FR1	1	R1154D
2080.348	0.799	2088667	WORD_OFF	n/a	n/a	CUBE	1	20	[0, 0, 0]	n/a	FR1	1	R1154D
2081.147	1.618	2089466	WORD	n/a	wordpools/wordpool_EN.txt	WORM	2	20	[0, 0, 0]	n/a	FR1	1	R1154D
2082.765	0.8	2091084	WORD_OFF	n/a	n/a	WORM	2	20	[0, 0, 0]	n/a	FR1	1	R1154D
2083.565	1.616	2091884	WORD	n/a	wordpools/wordpool_EN.txt	SHEEP	3	20	[0, 0, 0]	n/a	FR1	1	R1154D
2085.181	0.801	2093500	WORD_OFF	n/a	n/a	SHEEP	3	20	[0, 0, 0]	n/a	FR1	1	R1154D
2085.982	1.617	2094300	WORD	n/a	wordpools/wordpool_EN.txt	ROOT	4	20	[0, 0, 0]	n/a	FR1	1	R1154D
2087.599	0.817	2095917	WORD_OFF	n/a	n/a	ROOT	4	20	[0, 0, 0]	n/a	FR1	1	R1154D
2088.416	1.616	2096734	WORD	n/a	wordpools/wordpool_EN.txt	MOUSE	5	20	[0, 0, 0]	n/a	FR1	1	R1154D
2090.032	0.867	2098350	WORD_OFF	n/a	n/a	MOUSE	5	20	[0, 0, 0]	n/a	FR1	1	R1154D
2090.899	1.618	2099217	WORD	n/a	wordpools/wordpool_EN.txt	NOSE	6	20	[0, 0, 0]	n/a	FR1	1	R1154D
2092.517	0.867	2100835	WORD_OFF	n/a	n/a	NOSE	6	20	[0, 0, 0]	n/a	FR1	1	R1154D
2093.384	1.616	2101702	WORD	n/a	wordpools/wordpool_EN.txt	ROCK	7	20	[0, 0, 0]	n/a	FR1	1	R1154D
2095.0	0.967	2103318	WORD_OFF	n/a	n/a	ROCK	7	20	[0, 0, 0]	n/a	FR1	1	R1154D
2095.967	1.618	2104285	WORD	n/a	wordpools/wordpool_EN.txt	JUICE	8	20	[0, 0, 0]	n/a	FR1	1	R1154D
2097.585	0.833	2105903	WORD_OFF	n/a	n/a	JUICE	8	20	[0, 0, 0]	n/a	FR1	1	R1154D
2098.418	1.616	2106736	WORD	n/a	wordpools/wordpool_EN.txt	MILK	9	20	[0, 0, 0]	n/a	FR1	1	R1154D
2100.034	0.9	2108352	WORD_OFF	n/a	n/a	MILK	9	20	[0, 0, 0]	n/a	FR1	1	R1154D
2100.934	1.618	2109252	WORD	n/a	wordpools/wordpool_EN.txt	CAVE	10	20	[0, 0, 0]	n/a	FR1	1	R1154D
2102.552	0.984	2110870	WORD_OFF	n/a	n/a	CAVE	10	20	[0, 0, 0]	n/a	FR1	1	R1154D
2103.536	1.616	2111854	WORD	n/a	wordpools/wordpool_EN.txt	LEAF	11	20	[0, 0, 0]	n/a	FR1	1	R1154D
2105.152	0.916	2113469	WORD_OFF	n/a	n/a	LEAF	11	20	[0, 0, 0]	n/a	FR1	1	R1154D
2106.068	1.601	2114385	WORD	n/a	wordpools/wordpool_EN.txt	BRANCH	12	20	[0, 0, 0]	n/a	FR1	1	R1154D
2107.669	0.0	2115986	WORD_OFF	n/a	n/a	BRANCH	12	20	[0, 0, 0]	n/a	FR1	1	R1154D
2107.669	0.001	2115986	DISTRACT_START	n/a	n/a	n/a	-999	20	[0, 0, 0]	n/a	FR1	1	R1154D
2107.67	0.016	2115987	START	n/a	n/a	n/a	-999	20	[-999, -999, -999]	n/a	FR1	1	R1154D
2107.686	2.668	2116003	PROB	2.668	n/a	n/a	-999	20	[5, 3, 3]	11	FR1	1	R1154D
2110.354	2.0	2118671	PROB	2.0	n/a	n/a	-999	20	[8, 3, 6]	17	FR1	1	R1154D
2112.354	2.934	2120671	PROB	2.934	n/a	n/a	-999	20	[5, 3, 8]	16	FR1	1	R1154D
2115.288	2.034	2123605	PROB	2.034	n/a	n/a	-999	20	[3, 8, 3]	14	FR1	1	R1154D
2117.322	1.816	2125639	PROB	1.816	n/a	n/a	-999	20	[4, 2, 9]	13	FR1	1	R1154D
2119.138	3.251	2127455	PROB	3.251	n/a	n/a	-999	20	[8, 6, 7]	21	FR1	1	R1154D
2122.389	2.017	2130706	PROB	2.017	n/a	n/a	-999	20	[6, 2, 3]	11	FR1	1	R1154D
2124.406	4.339	2132722	PROB	4.339	n/a	n/a	-999	20	[4, 6, 2]	14	FR1	1	R1154D
2128.745	0.012	2137061	STOP	n/a	n/a	n/a	-999	20	[-999, -999, -999]	n/a	FR1	1	R1154D
2128.757	0.65	2137073	DISTRACT_END	n/a	n/a	n/a	-999	20	[0, 0, 0]	n/a	FR1	1	R1154D
2129.407	0.516	2137723	RETRIEVAL_ORIENT	n/a	n/a	n/a	-999	20	[0, 0, 0]	n/a	FR1	1	R1154D
2129.923	2.368	2138239	REC_START	n/a	n/a	n/a	-999	20	[0, 0, 0]	n/a	FR1	1	R1154D
2132.291	6.652	2140607	REC_WORD_VV	6.652	n/a	<>	-999	20	[0, 0, 0]	n/a	FR1	1	R1154D
2138.943	8.974	2147259	REC_WORD_VV	8.974	n/a	<>	-999	20	[0, 0, 0]	n/a	FR1	1	R1154D
2147.917	12.018	2156232	REC_WORD	12.018	n/a	ROCK	-999	20	[0, 0, 0]	n/a	FR1	1	R1154D
2159.935	4.662	2168249	REC_END	n/a	n/a	n/a	-999	20	[0, 0, 0]	n/a	FR1	1	R1154D
2164.597	0.5	2172911	TRIAL	n/a	n/a	n/a	-999	21	[0, 0, 0]	n/a	FR1	1	R1154D
2165.097	10.428	2173411	COUNTDOWN_START	n/a	n/a	n/a	-999	21	[0, 0, 0]	n/a	FR1	1	R1154D
2175.525	0.007	2183839	COUNTDOWN_END	n/a	n/a	n/a	-999	21	[0, 0, 0]	n/a	FR1	1	R1154D
2175.532	1.616	2183846	ORIENT	n/a	n/a	n/a	-999	21	[0, 0, 0]	n/a	FR1	1	R1154D
2177.148	2.235	2185462	ORIENT_OFF	n/a	n/a	n/a	-999	21	[0, 0, 0]	n/a	FR1	1	R1154D
2179.383	1.616	2187696	WORD	n/a	wordpools/wordpool_EN.txt	VASE	1	21	[0, 0, 0]	n/a	FR1	1	R1154D
2180.999	0.833	2189312	WORD_OFF	n/a	n/a	VASE	1	21	[0, 0, 0]	n/a	FR1	1	R1154D
2181.832	1.601	2190145	WORD	n/a	wordpools/wordpool_EN.txt	SPRING	2	21	[0, 0, 0]	n/a	FR1	1	R1154D
2183.433	0.834	2191746	WORD_OFF	n/a	n/a	SPRING	2	21	[0, 0, 0]	n/a	FR1	1	R1154D
2184.267	1.616	2192580	WORD	n/a	wordpools/wordpool_EN.txt	CHAIR	3	21	[0, 0, 0]	n/a	FR1	1	R1154D
2185.883	0.785	2194196	WORD_OFF	n/a	n/a	CHAIR	3	21	[0, 0, 0]	n/a	FR1	1	R1154D
2186.668	1.617	2194981	WORD	n/a	wordpools/wordpool_EN.txt	EEL	4	21	[0, 0, 0]	n/a	FR1	1	R1154D
2188.285	0.932	2196598	WORD_OFF	n/a	n/a	EEL	4	21	[0, 0, 0]	n/a	FR1	1	R1154D
2189.217	1.617	2197530	WORD	n/a	wordpools/wordpool_EN.txt	TEA	5	21	[0, 0, 0]	n/a	FR1	1	R1154D
2190.834	0.801	2199147	WORD_OFF	n/a	n/a	TEA	5	21	[0, 0, 0]	n/a	FR1	1	R1154D
2191.635	1.617	2199948	WORD	n/a	wordpools/wordpool_EN.txt	CLAY	6	21	[0, 0, 0]	n/a	FR1	1	R1154D
2193.252	0.933	2201565	WORD_OFF	n/a	n/a	CLAY	6	21	[0, 0, 0]	n/a	FR1	1	R1154D
2194.185	1.618	2202498	WORD	n/a	wordpools/wordpool_EN.txt	DUCK	7	21	[0, 0, 0]	n/a	FR1	1	R1154D
2195.803	0.95	2204116	WORD_OFF	n/a	n/a	DUCK	7	21	[0, 0, 0]	n/a	FR1	1	R1154D
2196.753	1.617	2205065	WORD	n/a	wordpools/wordpool_EN.txt	BOAT	8	21	[0, 0, 0]	n/a	FR1	1	R1154D
2198.37	1.017	2206682	WORD_OFF	n/a	n/a	BOAT	8	21	[0, 0, 0]	n/a	FR1	1	R1154D
2199.387	1.616	2207699	WORD	n/a	wordpools/wordpool_EN.txt	SEAL	9	21	[0, 0, 0]	n/a	FR1	1	R1154D
2201.003	0.767	2209315	WORD_OFF	n/a	n/a	SEAL	9	21	[0, 0, 0]	n/a	FR1	1	R1154D
2201.77	1.617	2210082	WORD	n/a	wordpools/wordpool_EN.txt	NET	10	21	[0, 0, 0]	n/a	FR1	1	R1154D
2203.387	0.95	2211699	WORD_OFF	n/a	n/a	NET	10	21	[0, 0, 0]	n/a	FR1	1	R1154D
2204.337	1.616	2212649	WORD	n/a	wordpools/wordpool_EN.txt	CLOWN	11	21	[0, 0, 0]	n/a	FR1	1	R1154D
2205.953	1.001	2214265	WORD_OFF	n/a	n/a	CLOWN	11	21	[0, 0, 0]	n/a	FR1	1	R1154D
2206.954	1.618	2215266	WORD	n/a	wordpools/wordpool_EN.txt	POOL	12	21	[0, 0, 0]	n/a	FR1	1	R1154D
2208.572	0.0	2216884	WORD_OFF	n/a	n/a	POOL	12	21	[0, 0, 0]	n/a	FR1	1	R1154D
2208.572	0.0	2216884	DISTRACT_START	n/a	n/a	n/a	-999	21	[0, 0, 0]	n/a	FR1	1	R1154D
2208.572	0.016	2216884	START	n/a	n/a	n/a	-999	21	[-999, -999, -999]	n/a	FR1	1	R1154D
2208.588	2.951	2216900	PROB	2.951	n/a	n/a	-999	21	[9, 2, 2]	13	FR1	1	R1154D
2211.539	3.217	2219851	PROB	3.217	n/a	n/a	-999	21	[8, 6, 6]	20	FR1	1	R1154D
2214.756	2.701	2223067	PROB	2.701	n/a	n/a	-999	21	[3, 6, 8]	17	FR1	1	R1154D
2217.457	1.983	2225768	PROB	1.983	n/a	n/a	-999	21	[1, 3, 2]	6	FR1	1	R1154D
2219.44	2.117	2227751	PROB	2.117	n/a	n/a	-999	21	[9, 2, 6]	17	FR1	1	R1154D
2221.557	4.034	2229868	PROB	4.034	n/a	n/a	-999	21	[7, 6, 9]	22	FR1	1	R1154D
2225.591	1.5	2233902	PROB	1.5	n/a	n/a	-999	21	[2, 2, 7]	11	FR1	1	R1154D
2227.091	1.844	2235402	PROB	1.844	n/a	n/a	-999	21	[6, 4, 7]	17	FR1	1	R1154D
2228.935	0.006	2237246	STOP	n/a	n/a	n/a	-999	21	[-999, -999, -999]	n/a	FR1	1	R1154D
2228.941	0.668	2237252	DISTRACT_END	n/a	n/a	n/a	-999	21	[0, 0, 0]	n/a	FR1	1	R1154D
2229.609	0.516	2237920	RETRIEVAL_ORIENT	n/a	n/a	n/a	-999	21	[0, 0, 0]	n/a	FR1	1	R1154D
2230.125	0.437	2238436	REC_START	n/a	n/a	n/a	-999	21	[0, 0, 0]	n/a	FR1	1	R1154D
2230.562	0.819	2238873	REC_WORD	0.819	n/a	SPRING	-999	21	[0, 0, 0]	n/a	FR1	1	R1154D
2231.381	4.666	2239692	REC_WORD	4.666	n/a	VASE	-999	21	[0, 0, 0]	n/a	FR1	1	R1154D
2236.047	1.926	2244357	REC_WORD	1.926	n/a	BOAT	-999	21	[0, 0, 0]	n/a	FR1	1	R1154D
2237.973	22.164	2246283	REC_WORD	22.164	n/a	EEL	-999	21	[0, 0, 0]	n/a	FR1	1	R1154D
2260.137	4.195	2268446	REC_END	n/a	n/a	n/a	-999	21	[0, 0, 0]	n/a	FR1	1	R1154D
2264.332	0.5	2272641	TRIAL	n/a	n/a	n/a	-999	22	[0, 0, 0]	n/a	FR1	1	R1154D
2264.832	10.428	2273141	COUNTDOWN_START	n/a	n/a	n/a	-999	22	[0, 0, 0]	n/a	FR1	1	R1154D
2275.26	0.007	2283568	COUNTDOWN_END	n/a	n/a	n/a	-999	22	[0, 0, 0]	n/a	FR1	1	R1154D
2275.267	1.616	2283575	ORIENT	n/a	n/a	n/a	-999	22	[0, 0, 0]	n/a	FR1	1	R1154D
2276.883	2.267	2285191	ORIENT_OFF	n/a	n/a	n/a	-999	22	[0, 0, 0]	n/a	FR1	1	R1154D
2279.15	1.618	2287458	WORD	n/a	wordpools/wordpool_EN.txt	MUD	1	22	[0, 0, 0]	n/a	FR1	1	R1154D
2280.768	0.917	2289076	WORD_OFF	n/a	n/a	MUD	1	22	[0, 0, 0]	n/a	FR1	1	R1154D
2281.685	1.617	2289993	WORD	n/a	wordpools/wordpool_EN.txt	TOAST	2	22	[0, 0, 0]	n/a	FR1	1	R1154D
2283.302	0.782	2291610	WORD_OFF	n/a	n/a	TOAST	2	22	[0, 0, 0]	n/a	FR1	1	R1154D
2284.084	1.602	2292392	WORD	n/a	wordpools/wordpool_EN.txt	SINK	3	22	[0, 0, 0]	n/a	FR1	1	R1154D
2285.686	0.8	2293994	WORD_OFF	n/a	n/a	SINK	3	22	[0, 0, 0]	n/a	FR1	1	R1154D
2286.486	1.616	2294794	WORD	n/a	wordpools/wordpool_EN.txt	FLUTE	4	22	[0, 0, 0]	n/a	FR1	1	R1154D
2288.102	0.933	2296409	WORD_OFF	n/a	n/a	FLUTE	4	22	[0, 0, 0]	n/a	FR1	1	R1154D
2289.035	1.618	2297342	WORD	n/a	wordpools/wordpool_EN.txt	FORK	5	22	[0, 0, 0]	n/a	FR1	1	R1154D
2290.653	1.0	2298960	WORD_OFF	n/a	n/a	FORK	5	22	[0, 0, 0]	n/a	FR1	1	R1154D
2291.653	1.617	2299960	WORD	n/a	wordpools/wordpool_EN.txt	MAT	6	22	[0, 0, 0]	n/a	FR1	1	R1154D
2293.27	0.766	2301577	WORD_OFF	n/a	n/a	MAT	6	22	[0, 0, 0]	n/a	FR1	1	R1154D
2294.036	1.601	2302343	WORD	n/a	wordpools/wordpool_EN.txt	TENT	7	22	[0, 0, 0]	n/a	FR1	1	R1154D
2295.637	0.767	2303944	WORD_OFF	n/a	n/a	TENT	7	22	[0, 0, 0]	n/a	FR1	1	R1154D
2296.404	1.616	2304711	WORD	n/a	wordpools/wordpool_EN.txt	DOOR	8	22	[0, 0, 0]	n/a	FR1	1	R1154D
2298.02	0.884	2306327	WORD_OFF	n/a	n/a	DOOR	8	22	[0, 0, 0]	n/a	FR1	1	R1154D
2298.904	1.618	2307211	WORD	n/a	wordpools/wordpool_EN.txt	SWAMP	9	22	[0, 0, 0]	n/a	FR1	1	R1154D
2300.522	0.967	2308829	WORD_OFF	n/a	n/a	SWAMP	9	22	[0, 0, 0]	n/a	FR1	1	R1154D
2301.489	1.616	2309796	WORD	n/a	wordpools/wordpool_EN.txt	BATH	10	22	[0, 0, 0]	n/a	FR1	1	R1154D
2303.105	0.933	2311412	WORD_OFF	n/a	n/a	BATH	10	22	[0, 0, 0]	n/a	FR1	1	R1154D
2304.038	1.618	2312345	WORD	n/a	wordpools/wordpool_EN.txt	BED	11	22	[0, 0, 0]	n/a	FR1	1	R1154D
2305.656	0.8	2313963	WORD_OFF	n/a	n/a	BED	11	22	[0, 0, 0]	n/a	FR1	1	R1154D
2306.456	1.616	2314762	WORD	n/a	wordpools/wordpool_EN.txt	SPOON	12	22	[0, 0, 0]	n/a	FR1	1	R1154D
2308.072	0.0	2316378	WORD_OFF	n/a	n/a	SPOON	12	22	[0, 0, 0]	n/a	FR1	1	R1154D
2308.072	0.001	2316378	DISTRACT_START	n/a	n/a	n/a	-999	22	[0, 0, 0]	n/a	FR1	1	R1154D
2308.073	0.016	2316379	START	n/a	n/a	n/a	-999	22	[-999, -999, -999]	n/a	FR1	1	R1154D
2308.089	2.251	2316395	PROB	2.251	n/a	n/a	-999	22	[3, 7, 1]	11	FR1	1	R1154D
2310.34	2.9	2318646	PROB	2.9	n/a	n/a	-999	22	[8, 7, 4]	19	FR1	1	R1154D
2313.24	2.151	2321546	PROB	2.151	n/a	n/a	-999	22	[5, 8, 3]	16	FR1	1	R1154D
2315.391	1.951	2323697	PROB	1.951	n/a	n/a	-999	22	[7, 1, 8]	16	FR1	1	R1154D
2317.342	1.766	2325648	PROB	1.766	n/a	n/a	-999	22	[2, 6, 6]	14	FR1	1	R1154D
2319.108	2.933	2327414	PROB	2.933	n/a	n/a	-999	22	[5, 1, 4]	9	FR1	1	R1154D
2322.041	3.018	2330347	PROB	3.018	n/a	n/a	-999	22	[3, 2, 7]	12	FR1	1	R1154D
2325.059	3.366	2333364	PROB	3.366	n/a	n/a	-999	22	[2, 9, 8]	19	FR1	1	R1154D
2328.425	0.019	2336730	STOP	n/a	n/a	n/a	-999	22	[-999, -999, -999]	n/a	FR1	1	R1154D
2328.444	0.648	2336749	DISTRACT_END	n/a	n/a	n/a	-999	22	[0, 0, 0]	n/a	FR1	1	R1154D
2329.092	0.519	2337397	RETRIEVAL_ORIENT	n/a	n/a	n/a	-999	22	[0, 0, 0]	n/a	FR1	1	R1154D
2329.611	1.467	2337916	REC_START	n/a	n/a	n/a	-999	22	[0, 0, 0]	n/a	FR1	1	R1154D
2331.078	0.589	2339383	REC_WORD	0.589	n/a	BED	-999	22	[0, 0, 0]	n/a	FR1	1	R1154D
2331.667	0.812	2339972	REC_WORD	0.812	n/a	BATH	-999	22	[0, 0, 0]	n/a	FR1	1	R1154D
2332.479	1.366	2340784	REC_WORD	1.366	n/a	DOOR	-999	22	[0, 0, 0]	n/a	FR1	1	R1154D
2333.845	8.919	2342150	REC_WORD	8.919	n/a	SWAMP	-999	22	[0, 0, 0]	n/a	FR1	1	R1154D
2342.764	5.401	2351069	REC_WORD	5.401	n/a	TENT	-999	22	[0, 0, 0]	n/a	FR1	1	R1154D
2348.165	11.457	2356469	REC_WORD	11.457	n/a	MAT	-999	22	[0, 0, 0]	n/a	FR1	1	R1154D
2359.622	4.577	2367926	REC_END	n/a	n/a	n/a	-999	22	[0, 0, 0]	n/a	FR1	1	R1154D
2364.199	0.5	2372502	TRIAL	n/a	n/a	n/a	-999	23	[0, 0, 0]	n/a	FR1	1	R1154D
2364.699	10.428	2373002	COUNTDOWN_START	n/a	n/a	n/a	-999	23	[0, 0, 0]	n/a	FR1	1	R1154D
2375.127	0.007	2383430	COUNTDOWN_END	n/a	n/a	n/a	-999	23	[0, 0, 0]	n/a	FR1	1	R1154D
2375.134	1.602	2383437	ORIENT	n/a	n/a	n/a	-999	23	[0, 0, 0]	n/a	FR1	1	R1154D
2376.736	2.132	2385039	ORIENT_OFF	n/a	n/a	n/a	-999	23	[0, 0, 0]	n/a	FR1	1	R1154D
2378.868	1.618	2387171	WORD	n/a	wordpools/wordpool_EN.txt	SKY	1	23	[0, 0, 0]	n/a	FR1	1	R1154D
2380.486	1.017	2388788	WORD_OFF	n/a	n/a	SKY	1	23	[0, 0, 0]	n/a	FR1	1	R1154D
2381.503	1.616	2389805	WORD	n/a	wordpools/wordpool_EN.txt	ROPE	2	23	[0, 0, 0]	n/a	FR1	1	R1154D
2383.119	0.767	2391421	WORD_OFF	n/a	n/a	ROPE	2	23	[0, 0, 0]	n/a	FR1	1	R1154D
2383.886	1.601	2392188	WORD	n/a	wordpools/wordpool_EN.txt	SUIT	3	23	[0, 0, 0]	n/a	FR1	1	R1154D
2385.487	0.834	2393789	WORD_OFF	n/a	n/a	SUIT	3	23	[0, 0, 0]	n/a	FR1	1	R1154D
2386.321	1.616	2394623	WORD	n/a	wordpools/wordpool_EN.txt	FOOT	4	23	[0, 0, 0]	n/a	FR1	1	R1154D
2387.937	0.868	2396239	WORD_OFF	n/a	n/a	FOOT	4	23	[0, 0, 0]	n/a	FR1	1	R1154D
2388.805	1.617	2397107	WORD	n/a	wordpools/wordpool_EN.txt	SIGN	5	23	[0, 0, 0]	n/a	FR1	1	R1154D
2390.422	0.9	2398724	WORD_OFF	n/a	n/a	SIGN	5	23	[0, 0, 0]	n/a	FR1	1	R1154D
2391.322	1.616	2399624	WORD	n/a	wordpools/wordpool_EN.txt	WAND	6	23	[0, 0, 0]	n/a	FR1	1	R1154D
2392.938	0.983	2401240	WORD_OFF	n/a	n/a	WAND	6	23	[0, 0, 0]	n/a	FR1	1	R1154D
2393.921	1.618	2402223	WORD	n/a	wordpools/wordpool_EN.txt	HEART	7	23	[0, 0, 0]	n/a	FR1	1	R1154D
2395.539	0.884	2403841	WORD_OFF	n/a	n/a	HEART	7	23	[0, 0, 0]	n/a	FR1	1	R1154D
2396.423	1.616	2404725	WORD	n/a	wordpools/wordpool_EN.txt	YARD	8	23	[0, 0, 0]	n/a	FR1	1	R1154D
2398.039	0.866	2406341	WORD_OFF	n/a	n/a	YARD	8	23	[0, 0, 0]	n/a	FR1	1	R1154D
2398.905	1.601	2407206	WORD	n/a	wordpools/wordpool_EN.txt	DOCK	9	23	[0, 0, 0]	n/a	FR1	1	R1154D
2400.506	0.801	2408807	WORD_OFF	n/a	n/a	DOCK	9	23	[0, 0, 0]	n/a	FR1	1	R1154D
2401.307	1.616	2409608	WORD	n/a	wordpools/wordpool_EN.txt	SNOW	10	23	[0, 0, 0]	n/a	FR1	1	R1154D
2402.923	0.967	2411224	WORD_OFF	n/a	n/a	SNOW	10	23	[0, 0, 0]	n/a	FR1	1	R1154D
2403.89	1.618	2412191	WORD	n/a	wordpools/wordpool_EN.txt	OAK	11	23	[0, 0, 0]	n/a	FR1	1	R1154D
2405.508	0.95	2413809	WORD_OFF	n/a	n/a	OAK	11	23	[0, 0, 0]	n/a	FR1	1	R1154D
2406.458	1.616	2414759	WORD	n/a	wordpools/wordpool_EN.txt	FLAG	12	23	[0, 0, 0]	n/a	FR1	1	R1154D
2408.074	0.0	2416375	DISTRACT_START	n/a	n/a	n/a	-999	23	[0, 0, 0]	n/a	FR1	1	R1154D
2408.074	0.0	2416375	WORD_OFF	n/a	n/a	FLAG	12	23	[0, 0, 0]	n/a	FR1	1	R1154D
2408.074	0.016	2416375	START	n/a	n/a	n/a	-999	23	[-999, -999, -999]	n/a	FR1	1	R1154D
2408.09	2.834	2416391	PROB	2.834	n/a	n/a	-999	23	[9, 9, 1]	19	FR1	1	R1154D
2410.924	2.435	2419225	PROB	2.435	n/a	n/a	-999	23	[7, 7, 6]	20	FR1	1	R1154D
2413.359	2.201	2421660	PROB	2.201	n/a	n/a	-999	23	[4, 3, 5]	12	FR1	1	R1154D
2415.56	2.117	2423861	PROB	2.117	n/a	n/a	-999	23	[9, 3, 2]	14	FR1	1	R1154D
2417.677	2.182	2425977	PROB	2.182	n/a	n/a	-999	23	[5, 4, 8]	17	FR1	1	R1154D
2419.859	2.585	2428159	PROB	2.585	n/a	n/a	-999	23	[2, 9, 7]	18	FR1	1	R1154D
2422.444	1.9	2430744	PROB	1.9	n/a	n/a	-999	23	[9, 9, 4]	22	FR1	1	R1154D
2424.344	1.85	2432644	PROB	1.85	n/a	n/a	-999	23	[4, 5, 3]	12	FR1	1	R1154D
2426.194	1.65	2434494	PROB	1.65	n/a	n/a	-999	23	[2, 1, 8]	11	FR1	1	R1154D
2427.844	1.733	2436144	PROB	1.733	n/a	n/a	-999	23	[9, 5, 2]	16	FR1	1	R1154D
2429.577	0.018	2437877	STOP	n/a	n/a	n/a	-999	23	[-999, -999, -999]	n/a	FR1	1	R1154D
2429.595	0.684	2437895	DISTRACT_END	n/a	n/a	n/a	-999	23	[0, 0, 0]	n/a	FR1	1	R1154D
2430.279	0.518	2438579	RETRIEVAL_ORIENT	n/a	n/a	n/a	-999	23	[0, 0, 0]	n/a	FR1	1	R1154D
2430.797	0.576	2439097	REC_START	n/a	n/a	n/a	-999	23	[0, 0, 0]	n/a	FR1	1	R1154D
2431.373	0.88	2439673	REC_WORD	0.88	n/a	SKY	-999	23	[0, 0, 0]	n/a	FR1	1	R1154D
2432.253	0.542	2440553	REC_WORD	0.542	n/a	ROPE	-999	23	[0, 0, 0]	n/a	FR1	1	R1154D
2432.795	10.112	2441095	REC_WORD	10.112	n/a	SNOW	-999	23	[0, 0, 0]	n/a	FR1	1	R1154D
2442.907	2.355	2451206	REC_WORD_VV	2.355	n/a	<>	-999	23	[0, 0, 0]	n/a	FR1	1	R1154D
2445.262	1.0	2453561	REC_WORD_VV	1.0	n/a	<>	-999	23	[0, 0, 0]	n/a	FR1	1	R1154D
2446.262	1.0	2454561	REC_WORD_VV	1.0	n/a	<>	-999	23	[0, 0, 0]	n/a	FR1	1	R1154D
2447.262	1.0	2455561	REC_WORD_VV	1.0	n/a	<>	-999	23	[0, 0, 0]	n/a	FR1	1	R1154D
2448.262	12.544	2456561	REC_WORD_VV	12.544	n/a	<>	-999	23	[0, 0, 0]	n/a	FR1	1	R1154D
2460.806	5.646	2469104	REC_END	n/a	n/a	n/a	-999	23	[0, 0, 0]	n/a	FR1	1	R1154D
2466.452	0.5	2474750	TRIAL	n/a	n/a	n/a	-999	24	[0, 0, 0]	n/a	FR1	1	R1154D
2466.952	10.428	2475250	COUNTDOWN_START	n/a	n/a	n/a	-999	24	[0, 0, 0]	n/a	FR1	1	R1154D
2477.38	0.008	2485677	COUNTDOWN_END	n/a	n/a	n/a	-999	24	[0, 0, 0]	n/a	FR1	1	R1154D
2477.388	1.615	2485685	ORIENT	n/a	n/a	n/a	-999	24	[0, 0, 0]	n/a	FR1	1	R1154D
2479.003	2.269	2487300	ORIENT_OFF	n/a	n/a	n/a	-999	24	[0, 0, 0]	n/a	FR1	1	R1154D
2481.272	1.616	2489569	WORD	n/a	wordpools/wordpool_EN.txt	LEG	1	24	[0, 0, 0]	n/a	FR1	1	R1154D
2482.888	0.784	2491185	WORD_OFF	n/a	n/a	LEG	1	24	[0, 0, 0]	n/a	FR1	1	R1154D
2483.672	1.617	2491969	WORD	n/a	wordpools/wordpool_EN.txt	BALL	2	24	[0, 0, 0]	n/a	FR1	1	R1154D
2485.289	0.983	2493586	WORD_OFF	n/a	n/a	BALL	2	24	[0, 0, 0]	n/a	FR1	1	R1154D
2486.272	1.616	2494569	WORD	n/a	wordpools/wordpool_EN.txt	LIP	3	24	[0, 0, 0]	n/a	FR1	1	R1154D
2487.888	0.852	2496185	WORD_OFF	n/a	n/a	LIP	3	24	[0, 0, 0]	n/a	FR1	1	R1154D
2488.74	1.617	2497037	WORD	n/a	wordpools/wordpool_EN.txt	SUN	4	24	[0, 0, 0]	n/a	FR1	1	R1154D
2490.357	0.966	2498653	WORD_OFF	n/a	n/a	SUN	4	24	[0, 0, 0]	n/a	FR1	1	R1154D
2491.323	1.616	2499619	WORD	n/a	wordpools/wordpool_EN.txt	TOY	5	24	[0, 0, 0]	n/a	FR1	1	R1154D
2492.939	0.867	2501235	WORD_OFF	n/a	n/a	TOY	5	24	[0, 0, 0]	n/a	FR1	1	R1154D
