onset	duration	sample	trial_type	response_time	stim_file	item_name	serialpos	list	test	answer	experiment	session	subject
0.0	0.0	30449	INSTRUCT_START	n/a	n/a	n/a	-999	-999	[0, 0, 0]	n/a	FR1	1	R1236J
0.0	11.458	30449	INSTRUCT_END	n/a	n/a	n/a	-999	-999	[0, 0, 0]	n/a	FR1	1	R1236J
11.458	0.0	41907	SESS_START	n/a	n/a	n/a	-999	-999	[0, 0, 0]	n/a	FR1	1	R1236J
11.458	14.501	41907	MIC_TEST	n/a	n/a	n/a	-999	-999	[0, 0, 0]	n/a	FR1	1	R1236J
25.959	2.595	56408	PRACTICE_TRIAL	n/a	n/a	n/a	-999	-1	[0, 0, 0]	n/a	FR1	1	R1236J
28.554	10.428	59003	COUNTDOWN_START	n/a	n/a	n/a	-999	-1	[0, 0, 0]	n/a	FR1	1	R1236J
38.982	0.006	69431	COUNTDOWN_END	n/a	n/a	n/a	-999	-1	[0, 0, 0]	n/a	FR1	1	R1236J
38.988	1.617	69437	PRACTICE_ORIENT	n/a	n/a	n/a	-999	-1	[0, 0, 0]	n/a	FR1	1	R1236J
40.605	2.134	71054	PRACTICE_ORIENT_OFF	n/a	n/a	n/a	-999	-1	[0, 0, 0]	n/a	FR1	1	R1236J
42.739	1.617	73188	PRACTICE_WORD	n/a	n/a	FLOOD	1	-1	[0, 0, 0]	n/a	FR1	1	R1236J
44.356	0.933	74805	PRACTICE_WORD_OFF	n/a	n/a	FLOOD	-999	-1	[0, 0, 0]	n/a	FR1	1	R1236J
45.289	1.617	75738	PRACTICE_WORD	n/a	n/a	WAGON	2	-1	[0, 0, 0]	n/a	FR1	1	R1236J
46.906	0.984	77355	PRACTICE_WORD_OFF	n/a	n/a	WAGON	-999	-1	[0, 0, 0]	n/a	FR1	1	R1236J
47.89	1.616	78339	PRACTICE_WORD	n/a	n/a	BEAM	3	-1	[0, 0, 0]	n/a	FR1	1	R1236J
49.506	0.884	79955	PRACTICE_WORD_OFF	n/a	n/a	BEAM	-999	-1	[0, 0, 0]	n/a	FR1	1	R1236J
50.39	1.617	80839	PRACTICE_WORD	n/a	n/a	RING	4	-1	[0, 0, 0]	n/a	FR1	1	R1236J
52.007	0.9	82456	PRACTICE_WORD_OFF	n/a	n/a	RING	-999	-1	[0, 0, 0]	n/a	FR1	1	R1236J
52.907	1.617	83356	PRACTICE_WORD	n/a	n/a	IRON	5	-1	[0, 0, 0]	n/a	FR1	1	R1236J
54.524	0.95	84973	PRACTICE_WORD_OFF	n/a	n/a	IRON	-999	-1	[0, 0, 0]	n/a	FR1	1	R1236J
55.474	1.617	85923	PRACTICE_WORD	n/a	n/a	ATTIC	6	-1	[0, 0, 0]	n/a	FR1	1	R1236J
57.091	0.85	87540	PRACTICE_WORD_OFF	n/a	n/a	ATTIC	-999	-1	[0, 0, 0]	n/a	FR1	1	R1236J
57.941	1.617	88390	PRACTICE_WORD	n/a	n/a	WATCH	7	-1	[0, 0, 0]	n/a	FR1	1	R1236J
59.558	0.882	90007	PRACTICE_WORD_OFF	n/a	n/a	WATCH	-999	-1	[0, 0, 0]	n/a	FR1	1	R1236J
60.44	1.618	90889	PRACTICE_WORD	n/a	n/a	RHINO	8	-1	[0, 0, 0]	n/a	FR1	1	R1236J
62.058	0.784	92507	PRACTICE_WORD_OFF	n/a	n/a	RHINO	-999	-1	[0, 0, 0]	n/a	FR1	1	R1236J
62.842	1.617	93291	PRACTICE_WORD	n/a	n/a	COTTON	9	-1	[0, 0, 0]	n/a	FR1	1	R1236J
64.459	0.9	94908	PRACTICE_WORD_OFF	n/a	n/a	COTTON	-999	-1	[0, 0, 0]	n/a	FR1	1	R1236J
65.359	1.617	95808	PRACTICE_WORD	n/a	n/a	CAMEL	10	-1	[0, 0, 0]	n/a	FR1	1	R1236J
66.976	0.966	97425	PRACTICE_WORD_OFF	n/a	n/a	CAMEL	-999	-1	[0, 0, 0]	n/a	FR1	1	R1236J
67.942	1.617	98391	PRACTICE_WORD	n/a	n/a	CHEST	11	-1	[0, 0, 0]	n/a	FR1	1	R1236J
69.559	0.882	100008	PRACTICE_WORD_OFF	n/a	n/a	CHEST	-999	-1	[0, 0, 0]	n/a	FR1	1	R1236J
70.441	1.618	100890	PRACTICE_WORD	n/a	n/a	TONGUE	12	-1	[0, 0, 0]	n/a	FR1	1	R1236J
72.059	0.0	102508	PRACTICE_WORD_OFF	n/a	n/a	TONGUE	-999	-1	[0, 0, 0]	n/a	FR1	1	R1236J
72.059	0.001	102508	DISTRACT_START	n/a	n/a	n/a	-999	-1	[0, 0, 0]	n/a	FR1	1	R1236J
72.06	0.016	102509	START	n/a	n/a	n/a	-999	-1	[-999, -999, -999]	n/a	FR1	1	R1236J
72.076	8.234	102525	PROB	8.234	n/a	n/a	-999	-1	[8, 5, 6]	19	FR1	1	R1236J
80.31	3.551	110759	PROB	3.551	n/a	n/a	-999	-1	[8, 5, 2]	15	FR1	1	R1236J
83.861	3.717	114310	PROB	3.717	n/a	n/a	-999	-1	[1, 5, 7]	13	FR1	1	R1236J
87.578	3.717	118027	PROB	3.717	n/a	n/a	-999	-1	[6, 5, 3]	14	FR1	1	R1236J
91.295	2.973	121744	PROB	2.973	n/a	n/a	-999	-1	[7, 3, 6]	16	FR1	1	R1236J
94.268	0.011	124717	STOP	n/a	n/a	n/a	-999	-1	[-999, -999, -999]	n/a	FR1	1	R1236J
94.279	0.566	124728	DISTRACT_END	n/a	n/a	n/a	-999	-1	[0, 0, 0]	n/a	FR1	1	R1236J
94.845	0.518	125294	RETRIEVAL_ORIENT	n/a	n/a	n/a	-999	-1	[0, 0, 0]	n/a	FR1	1	R1236J
95.363	30.011	125812	PRACTICE_REC_START	n/a	n/a	n/a	-999	-1	[0, 0, 0]	n/a	FR1	1	R1236J
125.374	13.661	155823	PRACTICE_REC_END	n/a	n/a	n/a	-999	-1	[0, 0, 0]	n/a	FR1	1	R1236J
139.035	0.5	169484	TRIAL	n/a	n/a	n/a	-999	1	[0, 0, 0]	n/a	FR1	1	R1236J
139.535	10.428	169984	COUNTDOWN_START	n/a	n/a	n/a	-999	1	[0, 0, 0]	n/a	FR1	1	R1236J
149.963	0.006	180412	COUNTDOWN_END	n/a	n/a	n/a	-999	1	[0, 0, 0]	n/a	FR1	1	R1236J
149.969	1.617	180418	ORIENT	n/a	n/a	n/a	-999	1	[0, 0, 0]	n/a	FR1	1	R1236J
151.586	1.934	182035	ORIENT_OFF	n/a	n/a	n/a	-999	1	[0, 0, 0]	n/a	FR1	1	R1236J
153.52	1.617	183969	WORD	n/a	wordpools/wordpool_EN.txt	RIB	1	1	[0, 0, 0]	n/a	FR1	1	R1236J
155.137	0.866	185586	WORD_OFF	n/a	n/a	RIB	1	1	[0, 0, 0]	n/a	FR1	1	R1236J
156.003	1.618	186452	WORD	n/a	wordpools/wordpool_EN.txt	CHIN	2	1	[0, 0, 0]	n/a	FR1	1	R1236J
157.621	0.883	188070	WORD_OFF	n/a	n/a	CHIN	2	1	[0, 0, 0]	n/a	FR1	1	R1236J
158.504	1.616	188953	WORD	n/a	wordpools/wordpool_EN.txt	SHIRT	3	1	[0, 0, 0]	n/a	FR1	1	R1236J
160.12	0.801	190569	WORD_OFF	n/a	n/a	SHIRT	3	1	[0, 0, 0]	n/a	FR1	1	R1236J
160.921	1.617	191370	WORD	n/a	wordpools/wordpool_EN.txt	BARN	4	1	[0, 0, 0]	n/a	FR1	1	R1236J
162.538	0.966	192987	WORD_OFF	n/a	n/a	BARN	4	1	[0, 0, 0]	n/a	FR1	1	R1236J
163.504	1.617	193953	WORD	n/a	wordpools/wordpool_EN.txt	FOG	5	1	[0, 0, 0]	n/a	FR1	1	R1236J
165.121	0.867	195570	WORD_OFF	n/a	n/a	FOG	5	1	[0, 0, 0]	n/a	FR1	1	R1236J
165.988	1.617	196437	WORD	n/a	wordpools/wordpool_EN.txt	CART	6	1	[0, 0, 0]	n/a	FR1	1	R1236J
167.605	0.784	198054	WORD_OFF	n/a	n/a	CART	6	1	[0, 0, 0]	n/a	FR1	1	R1236J
168.389	1.616	198838	WORD	n/a	wordpools/wordpool_EN.txt	JEEP	7	1	[0, 0, 0]	n/a	FR1	1	R1236J
170.005	0.834	200454	WORD_OFF	n/a	n/a	JEEP	7	1	[0, 0, 0]	n/a	FR1	1	R1236J
170.839	1.616	201288	WORD	n/a	wordpools/wordpool_EN.txt	SKY	8	1	[0, 0, 0]	n/a	FR1	1	R1236J
172.455	0.784	202904	WORD_OFF	n/a	n/a	SKY	8	1	[0, 0, 0]	n/a	FR1	1	R1236J
173.239	1.617	203688	WORD	n/a	wordpools/wordpool_EN.txt	BOY	9	1	[0, 0, 0]	n/a	FR1	1	R1236J
174.856	0.9	205305	WORD_OFF	n/a	n/a	BOY	9	1	[0, 0, 0]	n/a	FR1	1	R1236J
175.756	1.617	206205	WORD	n/a	wordpools/wordpool_EN.txt	SNOW	10	1	[0, 0, 0]	n/a	FR1	1	R1236J
177.373	0.833	207822	WORD_OFF	n/a	n/a	SNOW	10	1	[0, 0, 0]	n/a	FR1	1	R1236J
178.206	1.617	208655	WORD	n/a	wordpools/wordpool_EN.txt	MULE	11	1	[0, 0, 0]	n/a	FR1	1	R1236J
179.823	0.817	210272	WORD_OFF	n/a	n/a	MULE	11	1	[0, 0, 0]	n/a	FR1	1	R1236J
180.64	1.617	211089	WORD	n/a	wordpools/wordpool_EN.txt	BOOT	12	1	[0, 0, 0]	n/a	FR1	1	R1236J
182.257	0.0	212706	WORD_OFF	n/a	n/a	BOOT	12	1	[0, 0, 0]	n/a	FR1	1	R1236J
182.257	0.0	212706	DISTRACT_START	n/a	n/a	n/a	-999	1	[0, 0, 0]	n/a	FR1	1	R1236J
182.257	0.016	212706	START	n/a	n/a	n/a	-999	1	[-999, -999, -999]	n/a	FR1	1	R1236J
182.273	8.951	212722	PROB	8.951	n/a	n/a	-999	1	[6, 8, 5]	19	FR1	1	R1236J
191.224	4.501	221673	PROB	4.501	n/a	n/a	-999	1	[7, 9, 6]	22	FR1	1	R1236J
195.725	6.434	226174	PROB	6.434	n/a	n/a	-999	1	[6, 4, 5]	15	FR1	1	R1236J
202.159	5.066	232608	PROB	5.066	n/a	n/a	-999	1	[2, 7, 7]	16	FR1	1	R1236J
207.225	0.018	237674	STOP	n/a	n/a	n/a	-999	1	[-999, -999, -999]	n/a	FR1	1	R1236J
207.243	0.551	237692	DISTRACT_END	n/a	n/a	n/a	-999	1	[0, 0, 0]	n/a	FR1	1	R1236J
207.794	0.517	238243	RETRIEVAL_ORIENT	n/a	n/a	n/a	-999	1	[0, 0, 0]	n/a	FR1	1	R1236J
208.311	3.327	238760	REC_START	n/a	n/a	n/a	-999	1	[0, 0, 0]	n/a	FR1	1	R1236J
211.638	4.655	242087	REC_WORD	4.655	n/a	BARN	4	1	[0, 0, 0]	n/a	FR1	1	R1236J
216.293	1.438	246742	REC_WORD	1.438	n/a	CHIN	2	1	[0, 0, 0]	n/a	FR1	1	R1236J
217.731	1.444	248180	REC_WORD	1.444	n/a	SHIRT	3	1	[0, 0, 0]	n/a	FR1	1	R1236J
219.175	6.885	249624	REC_WORD	6.885	n/a	RIB	1	1	[0, 0, 0]	n/a	FR1	1	R1236J
226.06	12.263	256509	REC_WORD	12.263	n/a	CART	6	1	[0, 0, 0]	n/a	FR1	1	R1236J
238.323	4.658	268772	REC_END	n/a	n/a	n/a	-999	1	[0, 0, 0]	n/a	FR1	1	R1236J
242.981	0.5	273430	TRIAL	n/a	n/a	n/a	-999	2	[0, 0, 0]	n/a	FR1	1	R1236J
243.481	10.428	273930	COUNTDOWN_START	n/a	n/a	n/a	-999	2	[0, 0, 0]	n/a	FR1	1	R1236J
253.909	0.007	284358	COUNTDOWN_END	n/a	n/a	n/a	-999	2	[0, 0, 0]	n/a	FR1	1	R1236J
253.916	1.617	284365	ORIENT	n/a	n/a	n/a	-999	2	[0, 0, 0]	n/a	FR1	1	R1236J
255.533	2.167	285982	ORIENT_OFF	n/a	n/a	n/a	-999	2	[0, 0, 0]	n/a	FR1	1	R1236J
257.7	1.616	288149	WORD	n/a	wordpools/wordpool_EN.txt	CLAY	1	2	[0, 0, 0]	n/a	FR1	1	R1236J
259.316	0.834	289765	WORD_OFF	n/a	n/a	CLAY	1	2	[0, 0, 0]	n/a	FR1	1	R1236J
260.15	1.617	290599	WORD	n/a	wordpools/wordpool_EN.txt	KEY	2	2	[0, 0, 0]	n/a	FR1	1	R1236J
261.767	0.783	292216	WORD_OFF	n/a	n/a	KEY	2	2	[0, 0, 0]	n/a	FR1	1	R1236J
262.55	1.617	292999	WORD	n/a	wordpools/wordpool_EN.txt	WHEEL	3	2	[0, 0, 0]	n/a	FR1	1	R1236J
264.167	0.917	294616	WORD_OFF	n/a	n/a	WHEEL	3	2	[0, 0, 0]	n/a	FR1	1	R1236J
265.084	1.617	295533	WORD	n/a	wordpools/wordpool_EN.txt	FUDGE	4	2	[0, 0, 0]	n/a	FR1	1	R1236J
266.701	0.984	297150	WORD_OFF	n/a	n/a	FUDGE	4	2	[0, 0, 0]	n/a	FR1	1	R1236J
267.685	1.616	298134	WORD	n/a	wordpools/wordpool_EN.txt	ROAD	5	2	[0, 0, 0]	n/a	FR1	1	R1236J
269.301	0.983	299750	WORD_OFF	n/a	n/a	ROAD	5	2	[0, 0, 0]	n/a	FR1	1	R1236J
270.284	1.617	300733	WORD	n/a	wordpools/wordpool_EN.txt	BOWL	6	2	[0, 0, 0]	n/a	FR1	1	R1236J
271.901	0.834	302350	WORD_OFF	n/a	n/a	BOWL	6	2	[0, 0, 0]	n/a	FR1	1	R1236J
272.735	1.617	303184	WORD	n/a	wordpools/wordpool_EN.txt	BREAD	7	2	[0, 0, 0]	n/a	FR1	1	R1236J
274.352	0.9	304801	WORD_OFF	n/a	n/a	BREAD	7	2	[0, 0, 0]	n/a	FR1	1	R1236J
275.252	1.617	305701	WORD	n/a	wordpools/wordpool_EN.txt	CAR	8	2	[0, 0, 0]	n/a	FR1	1	R1236J
276.869	0.833	307318	WORD_OFF	n/a	n/a	CAR	8	2	[0, 0, 0]	n/a	FR1	1	R1236J
277.702	1.617	308151	WORD	n/a	wordpools/wordpool_EN.txt	SQUARE	9	2	[0, 0, 0]	n/a	FR1	1	R1236J
279.319	0.9	309768	WORD_OFF	n/a	n/a	SQUARE	9	2	[0, 0, 0]	n/a	FR1	1	R1236J
280.219	1.617	310668	WORD	n/a	wordpools/wordpool_EN.txt	FLEA	10	2	[0, 0, 0]	n/a	FR1	1	R1236J
281.836	0.833	312285	WORD_OFF	n/a	n/a	FLEA	10	2	[0, 0, 0]	n/a	FR1	1	R1236J
282.669	1.618	313118	WORD	n/a	wordpools/wordpool_EN.txt	PHONE	11	2	[0, 0, 0]	n/a	FR1	1	R1236J
284.287	0.85	314736	WORD_OFF	n/a	n/a	PHONE	11	2	[0, 0, 0]	n/a	FR1	1	R1236J
285.137	1.617	315586	WORD	n/a	wordpools/wordpool_EN.txt	FOOD	12	2	[0, 0, 0]	n/a	FR1	1	R1236J
286.754	0.0	317203	WORD_OFF	n/a	n/a	FOOD	12	2	[0, 0, 0]	n/a	FR1	1	R1236J
286.754	0.0	317203	DISTRACT_START	n/a	n/a	n/a	-999	2	[0, 0, 0]	n/a	FR1	1	R1236J
286.754	0.016	317203	START	n/a	n/a	n/a	-999	2	[-999, -999, -999]	n/a	FR1	1	R1236J
286.77	5.901	317219	PROB	5.901	n/a	n/a	-999	2	[5, 8, 3]	16	FR1	1	R1236J
292.671	3.734	323120	PROB	3.734	n/a	n/a	-999	2	[8, 7, 7]	22	FR1	1	R1236J
296.405	4.634	326854	PROB	4.634	n/a	n/a	-999	2	[8, 9, 8]	25	FR1	1	R1236J
301.039	4.884	331488	PROB	4.884	n/a	n/a	-999	2	[7, 6, 2]	15	FR1	1	R1236J
305.923	3.434	336372	PROB	3.434	n/a	n/a	-999	2	[1, 8, 2]	11	FR1	1	R1236J
309.357	0.016	339806	STOP	n/a	n/a	n/a	-999	2	[-999, -999, -999]	n/a	FR1	1	R1236J
309.373	0.517	339822	DISTRACT_END	n/a	n/a	n/a	-999	2	[0, 0, 0]	n/a	FR1	1	R1236J
309.89	0.517	340339	RETRIEVAL_ORIENT	n/a	n/a	n/a	-999	2	[0, 0, 0]	n/a	FR1	1	R1236J
310.407	2.099	340856	REC_START	n/a	n/a	n/a	-999	2	[0, 0, 0]	n/a	FR1	1	R1236J
312.506	0.853	342955	REC_WORD	0.853	n/a	KEY	2	2	[0, 0, 0]	n/a	FR1	1	R1236J
313.359	7.811	343808	REC_WORD	7.811	n/a	CLAY	1	2	[0, 0, 0]	n/a	FR1	1	R1236J
321.17	4.853	351619	REC_WORD	4.853	n/a	WHEEL	3	2	[0, 0, 0]	n/a	FR1	1	R1236J
326.023	12.37	356472	REC_WORD	12.37	n/a	SQUARE	9	2	[0, 0, 0]	n/a	FR1	1	R1236J
338.393	2.026	368842	REC_WORD	2.026	n/a	FUDGE	4	2	[0, 0, 0]	n/a	FR1	1	R1236J
340.419	28.812	370868	REC_END	n/a	n/a	n/a	-999	2	[0, 0, 0]	n/a	FR1	1	R1236J
369.231	0.5	399680	TRIAL	n/a	n/a	n/a	-999	3	[0, 0, 0]	n/a	FR1	1	R1236J
369.731	10.428	400180	COUNTDOWN_START	n/a	n/a	n/a	-999	3	[0, 0, 0]	n/a	FR1	1	R1236J
380.159	0.006	410608	COUNTDOWN_END	n/a	n/a	n/a	-999	3	[0, 0, 0]	n/a	FR1	1	R1236J
380.165	1.617	410614	ORIENT	n/a	n/a	n/a	-999	3	[0, 0, 0]	n/a	FR1	1	R1236J
381.782	1.934	412231	ORIENT_OFF	n/a	n/a	n/a	-999	3	[0, 0, 0]	n/a	FR1	1	R1236J
383.716	1.617	414165	WORD	n/a	wordpools/wordpool_EN.txt	SPOON	1	3	[0, 0, 0]	n/a	FR1	1	R1236J
385.333	0.95	415782	WORD_OFF	n/a	n/a	SPOON	1	3	[0, 0, 0]	n/a	FR1	1	R1236J
386.283	1.617	416732	WORD	n/a	wordpools/wordpool_EN.txt	JAR	2	3	[0, 0, 0]	n/a	FR1	1	R1236J
387.9	0.833	418349	WORD_OFF	n/a	n/a	JAR	2	3	[0, 0, 0]	n/a	FR1	1	R1236J
388.733	1.617	419182	WORD	n/a	wordpools/wordpool_EN.txt	NAIL	3	3	[0, 0, 0]	n/a	FR1	1	R1236J
390.35	0.917	420799	WORD_OFF	n/a	n/a	NAIL	3	3	[0, 0, 0]	n/a	FR1	1	R1236J
391.267	1.617	421716	WORD	n/a	wordpools/wordpool_EN.txt	THUMB	4	3	[0, 0, 0]	n/a	FR1	1	R1236J
392.884	0.766	423333	WORD_OFF	n/a	n/a	THUMB	4	3	[0, 0, 0]	n/a	FR1	1	R1236J
393.65	1.617	424099	WORD	n/a	wordpools/wordpool_EN.txt	SOCK	5	3	[0, 0, 0]	n/a	FR1	1	R1236J
395.267	0.984	425716	WORD_OFF	n/a	n/a	SOCK	5	3	[0, 0, 0]	n/a	FR1	1	R1236J
396.251	1.617	426700	WORD	n/a	wordpools/wordpool_EN.txt	BEAK	6	3	[0, 0, 0]	n/a	FR1	1	R1236J
397.868	0.916	428317	WORD_OFF	n/a	n/a	BEAK	6	3	[0, 0, 0]	n/a	FR1	1	R1236J
398.784	1.617	429233	WORD	n/a	wordpools/wordpool_EN.txt	GRAPE	7	3	[0, 0, 0]	n/a	FR1	1	R1236J
400.401	0.817	430850	WORD_OFF	n/a	n/a	GRAPE	7	3	[0, 0, 0]	n/a	FR1	1	R1236J
401.218	1.617	431667	WORD	n/a	wordpools/wordpool_EN.txt	AXE	8	3	[0, 0, 0]	n/a	FR1	1	R1236J
402.835	0.917	433284	WORD_OFF	n/a	n/a	AXE	8	3	[0, 0, 0]	n/a	FR1	1	R1236J
403.752	1.617	434201	WORD	n/a	wordpools/wordpool_EN.txt	VASE	9	3	[0, 0, 0]	n/a	FR1	1	R1236J
405.369	0.85	435818	WORD_OFF	n/a	n/a	VASE	9	3	[0, 0, 0]	n/a	FR1	1	R1236J
406.219	1.617	436668	WORD	n/a	wordpools/wordpool_EN.txt	CLOWN	10	3	[0, 0, 0]	n/a	FR1	1	R1236J
407.836	0.783	438285	WORD_OFF	n/a	n/a	CLOWN	10	3	[0, 0, 0]	n/a	FR1	1	R1236J
408.619	1.617	439068	WORD	n/a	wordpools/wordpool_EN.txt	JUICE	11	3	[0, 0, 0]	n/a	FR1	1	R1236J
410.236	0.9	440685	WORD_OFF	n/a	n/a	JUICE	11	3	[0, 0, 0]	n/a	FR1	1	R1236J
411.136	1.617	441585	WORD	n/a	wordpools/wordpool_EN.txt	RUG	12	3	[0, 0, 0]	n/a	FR1	1	R1236J
412.753	0.0	443202	WORD_OFF	n/a	n/a	RUG	12	3	[0, 0, 0]	n/a	FR1	1	R1236J
412.753	0.001	443202	DISTRACT_START	n/a	n/a	n/a	-999	3	[0, 0, 0]	n/a	FR1	1	R1236J
412.754	0.015	443203	START	n/a	n/a	n/a	-999	3	[-999, -999, -999]	n/a	FR1	1	R1236J
412.769	4.068	443218	PROB	4.068	n/a	n/a	-999	3	[9, 9, 9]	27	FR1	1	R1236J
416.837	3.133	447286	PROB	3.133	n/a	n/a	-999	3	[2, 3, 7]	12	FR1	1	R1236J
419.97	4.118	450419	PROB	4.118	n/a	n/a	-999	3	[2, 4, 2]	8	FR1	1	R1236J
424.088	6.75	454537	PROB	6.75	n/a	n/a	-999	3	[9, 6, 4]	19	FR1	1	R1236J
430.838	4.952	461287	PROB	4.952	n/a	n/a	-999	3	[8, 3, 1]	12	FR1	1	R1236J
435.79	0.016	466239	STOP	n/a	n/a	n/a	-999	3	[-999, -999, -999]	n/a	FR1	1	R1236J
435.806	0.617	466255	DISTRACT_END	n/a	n/a	n/a	-999	3	[0, 0, 0]	n/a	FR1	1	R1236J
436.423	0.518	466872	RETRIEVAL_ORIENT	n/a	n/a	n/a	-999	3	[0, 0, 0]	n/a	FR1	1	R1236J
436.941	2.309	467390	REC_START	n/a	n/a	n/a	-999	3	[0, 0, 0]	n/a	FR1	1	R1236J
439.25	0.876	469699	REC_WORD	0.876	n/a	JAR	2	3	[0, 0, 0]	n/a	FR1	1	R1236J
440.126	1.736	470575	REC_WORD	1.736	n/a	SPOON	1	3	[0, 0, 0]	n/a	FR1	1	R1236J
441.862	2.368	472311	REC_WORD	2.368	n/a	NAIL	3	3	[0, 0, 0]	n/a	FR1	1	R1236J
444.23	22.72	474679	REC_WORD	22.72	n/a	CLOWN	10	3	[0, 0, 0]	n/a	FR1	1	R1236J
466.95	5.027	497400	REC_END	n/a	n/a	n/a	-999	3	[0, 0, 0]	n/a	FR1	1	R1236J
471.977	0.5	502427	TRIAL	n/a	n/a	n/a	-999	4	[0, 0, 0]	n/a	FR1	1	R1236J
472.477	10.428	502927	COUNTDOWN_START	n/a	n/a	n/a	-999	4	[0, 0, 0]	n/a	FR1	1	R1236J
482.905	0.007	513355	COUNTDOWN_END	n/a	n/a	n/a	-999	4	[0, 0, 0]	n/a	FR1	1	R1236J
482.912	1.617	513362	ORIENT	n/a	n/a	n/a	-999	4	[0, 0, 0]	n/a	FR1	1	R1236J
484.529	2.067	514979	ORIENT_OFF	n/a	n/a	n/a	-999	4	[0, 0, 0]	n/a	FR1	1	R1236J
486.596	1.617	517046	WORD	n/a	wordpools/wordpool_EN.txt	LIP	1	4	[0, 0, 0]	n/a	FR1	1	R1236J
488.213	0.899	518663	WORD_OFF	n/a	n/a	LIP	1	4	[0, 0, 0]	n/a	FR1	1	R1236J
489.112	1.617	519562	WORD	n/a	wordpools/wordpool_EN.txt	OAR	2	4	[0, 0, 0]	n/a	FR1	1	R1236J
490.729	0.767	521179	WORD_OFF	n/a	n/a	OAR	2	4	[0, 0, 0]	n/a	FR1	1	R1236J
491.496	1.617	521946	WORD	n/a	wordpools/wordpool_EN.txt	SUIT	3	4	[0, 0, 0]	n/a	FR1	1	R1236J
493.113	1.0	523563	WORD_OFF	n/a	n/a	SUIT	3	4	[0, 0, 0]	n/a	FR1	1	R1236J
494.113	1.617	524563	WORD	n/a	wordpools/wordpool_EN.txt	ARM	4	4	[0, 0, 0]	n/a	FR1	1	R1236J
495.73	0.984	526180	WORD_OFF	n/a	n/a	ARM	4	4	[0, 0, 0]	n/a	FR1	1	R1236J
496.714	1.617	527164	WORD	n/a	wordpools/wordpool_EN.txt	FOAM	5	4	[0, 0, 0]	n/a	FR1	1	R1236J
498.331	0.816	528781	WORD_OFF	n/a	n/a	FOAM	5	4	[0, 0, 0]	n/a	FR1	1	R1236J
499.147	1.617	529597	WORD	n/a	wordpools/wordpool_EN.txt	SLEEVE	6	4	[0, 0, 0]	n/a	FR1	1	R1236J
500.764	0.867	531214	WORD_OFF	n/a	n/a	SLEEVE	6	4	[0, 0, 0]	n/a	FR1	1	R1236J
501.631	1.617	532081	WORD	n/a	wordpools/wordpool_EN.txt	TOE	7	4	[0, 0, 0]	n/a	FR1	1	R1236J
503.248	0.866	533698	WORD_OFF	n/a	n/a	TOE	7	4	[0, 0, 0]	n/a	FR1	1	R1236J
504.114	1.617	534564	WORD	n/a	wordpools/wordpool_EN.txt	FENCE	8	4	[0, 0, 0]	n/a	FR1	1	R1236J
505.731	0.967	536181	WORD_OFF	n/a	n/a	FENCE	8	4	[0, 0, 0]	n/a	FR1	1	R1236J
506.698	1.617	537148	WORD	n/a	wordpools/wordpool_EN.txt	NOSE	9	4	[0, 0, 0]	n/a	FR1	1	R1236J
508.315	1.0	538765	WORD_OFF	n/a	n/a	NOSE	9	4	[0, 0, 0]	n/a	FR1	1	R1236J
509.315	1.617	539765	WORD	n/a	wordpools/wordpool_EN.txt	BAND	10	4	[0, 0, 0]	n/a	FR1	1	R1236J
510.932	0.783	541382	WORD_OFF	n/a	n/a	BAND	10	4	[0, 0, 0]	n/a	FR1	1	R1236J
511.715	1.617	542165	WORD	n/a	wordpools/wordpool_EN.txt	PURSE	11	4	[0, 0, 0]	n/a	FR1	1	R1236J
513.332	0.917	543782	WORD_OFF	n/a	n/a	PURSE	11	4	[0, 0, 0]	n/a	FR1	1	R1236J
514.249	1.617	544699	WORD	n/a	wordpools/wordpool_EN.txt	TIE	12	4	[0, 0, 0]	n/a	FR1	1	R1236J
515.866	0.0	546316	WORD_OFF	n/a	n/a	TIE	12	4	[0, 0, 0]	n/a	FR1	1	R1236J
515.866	0.001	546316	DISTRACT_START	n/a	n/a	n/a	-999	4	[0, 0, 0]	n/a	FR1	1	R1236J
515.867	0.016	546317	START	n/a	n/a	n/a	-999	4	[-999, -999, -999]	n/a	FR1	1	R1236J
515.883	3.633	546333	PROB	3.633	n/a	n/a	-999	4	[6, 8, 2]	16	FR1	1	R1236J
519.516	5.318	549966	PROB	5.318	n/a	n/a	-999	4	[4, 8, 9]	21	FR1	1	R1236J
524.834	3.4	555284	PROB	3.4	n/a	n/a	-999	4	[1, 4, 1]	6	FR1	1	R1236J
528.234	5.668	558684	PROB	5.668	n/a	n/a	-999	4	[9, 3, 4]	16	FR1	1	R1236J
533.902	6.188	564352	PROB	6.188	n/a	n/a	-999	4	[3, 6, 3]	12	FR1	1	R1236J
540.09	0.012	570540	STOP	n/a	n/a	n/a	-999	4	[-999, -999, -999]	n/a	FR1	1	R1236J
540.102	0.584	570552	DISTRACT_END	n/a	n/a	n/a	-999	4	[0, 0, 0]	n/a	FR1	1	R1236J
540.686	0.517	571136	RETRIEVAL_ORIENT	n/a	n/a	n/a	-999	4	[0, 0, 0]	n/a	FR1	1	R1236J
541.203	3.438	571653	REC_START	n/a	n/a	n/a	-999	4	[0, 0, 0]	n/a	FR1	1	R1236J
544.641	1.419	575091	REC_WORD	1.419	n/a	LIP	1	4	[0, 0, 0]	n/a	FR1	1	R1236J
546.06	1.338	576510	REC_WORD	1.338	n/a	SLEEVE	6	4	[0, 0, 0]	n/a	FR1	1	R1236J
547.398	2.21	577848	REC_WORD	2.21	n/a	ARM	4	4	[0, 0, 0]	n/a	FR1	1	R1236J
549.608	3.292	580058	REC_WORD	3.292	n/a	OAR	2	4	[0, 0, 0]	n/a	FR1	1	R1236J
552.9	18.314	583350	REC_WORD	18.314	n/a	SUIT	3	4	[0, 0, 0]	n/a	FR1	1	R1236J
571.214	7.46	601664	REC_END	n/a	n/a	n/a	-999	4	[0, 0, 0]	n/a	FR1	1	R1236J
578.674	0.5	609124	TRIAL	n/a	n/a	n/a	-999	5	[0, 0, 0]	n/a	FR1	1	R1236J
579.174	10.428	609624	COUNTDOWN_START	n/a	n/a	n/a	-999	5	[0, 0, 0]	n/a	FR1	1	R1236J
589.602	0.007	620052	COUNTDOWN_END	n/a	n/a	n/a	-999	5	[0, 0, 0]	n/a	FR1	1	R1236J
589.609	1.617	620059	ORIENT	n/a	n/a	n/a	-999	5	[0, 0, 0]	n/a	FR1	1	R1236J
591.226	2.3	621676	ORIENT_OFF	n/a	n/a	n/a	-999	5	[0, 0, 0]	n/a	FR1	1	R1236J
593.526	1.617	623976	WORD	n/a	wordpools/wordpool_EN.txt	SAIL	1	5	[0, 0, 0]	n/a	FR1	1	R1236J
595.143	0.767	625593	WORD_OFF	n/a	n/a	SAIL	1	5	[0, 0, 0]	n/a	FR1	1	R1236J
595.91	1.617	626360	WORD	n/a	wordpools/wordpool_EN.txt	SHIELD	2	5	[0, 0, 0]	n/a	FR1	1	R1236J
597.527	1.0	627977	WORD_OFF	n/a	n/a	SHIELD	2	5	[0, 0, 0]	n/a	FR1	1	R1236J
598.527	1.616	628977	WORD	n/a	wordpools/wordpool_EN.txt	LAND	3	5	[0, 0, 0]	n/a	FR1	1	R1236J
600.143	0.967	630593	WORD_OFF	n/a	n/a	LAND	3	5	[0, 0, 0]	n/a	FR1	1	R1236J
601.11	1.617	631560	WORD	n/a	wordpools/wordpool_EN.txt	POLE	4	5	[0, 0, 0]	n/a	FR1	1	R1236J
602.727	0.934	633177	WORD_OFF	n/a	n/a	POLE	4	5	[0, 0, 0]	n/a	FR1	1	R1236J
603.661	1.616	634111	WORD	n/a	wordpools/wordpool_EN.txt	OAK	5	5	[0, 0, 0]	n/a	FR1	1	R1236J
605.277	0.784	635727	WORD_OFF	n/a	n/a	OAK	5	5	[0, 0, 0]	n/a	FR1	1	R1236J
606.061	1.617	636511	WORD	n/a	wordpools/wordpool_EN.txt	CUBE	6	5	[0, 0, 0]	n/a	FR1	1	R1236J
607.678	0.833	638128	WORD_OFF	n/a	n/a	CUBE	6	5	[0, 0, 0]	n/a	FR1	1	R1236J
608.511	1.617	638961	WORD	n/a	wordpools/wordpool_EN.txt	CROWN	7	5	[0, 0, 0]	n/a	FR1	1	R1236J
610.128	0.933	640578	WORD_OFF	n/a	n/a	CROWN	7	5	[0, 0, 0]	n/a	FR1	1	R1236J
611.061	1.617	641511	WORD	n/a	wordpools/wordpool_EN.txt	RAIN	8	5	[0, 0, 0]	n/a	FR1	1	R1236J
612.678	0.834	643128	WORD_OFF	n/a	n/a	RAIN	8	5	[0, 0, 0]	n/a	FR1	1	R1236J
613.512	1.617	643962	WORD	n/a	wordpools/wordpool_EN.txt	CAPE	9	5	[0, 0, 0]	n/a	FR1	1	R1236J
615.129	0.833	645579	WORD_OFF	n/a	n/a	CAPE	9	5	[0, 0, 0]	n/a	FR1	1	R1236J
615.962	1.617	646412	WORD	n/a	wordpools/wordpool_EN.txt	STORM	10	5	[0, 0, 0]	n/a	FR1	1	R1236J
617.579	0.95	648029	WORD_OFF	n/a	n/a	STORM	10	5	[0, 0, 0]	n/a	FR1	1	R1236J
618.529	1.617	648979	WORD	n/a	wordpools/wordpool_EN.txt	FLAG	11	5	[0, 0, 0]	n/a	FR1	1	R1236J
620.146	0.917	650596	WORD_OFF	n/a	n/a	FLAG	11	5	[0, 0, 0]	n/a	FR1	1	R1236J
621.063	1.617	651513	WORD	n/a	wordpools/wordpool_EN.txt	MOON	12	5	[0, 0, 0]	n/a	FR1	1	R1236J
622.68	0.0	653130	WORD_OFF	n/a	n/a	MOON	12	5	[0, 0, 0]	n/a	FR1	1	R1236J
622.68	0.0	653130	DISTRACT_START	n/a	n/a	n/a	-999	5	[0, 0, 0]	n/a	FR1	1	R1236J
622.68	0.016	653130	START	n/a	n/a	n/a	-999	5	[-999, -999, -999]	n/a	FR1	1	R1236J
622.696	4.718	653146	PROB	4.718	n/a	n/a	-999	5	[6, 4, 1]	11	FR1	1	R1236J
627.414	3.266	657864	PROB	3.266	n/a	n/a	-999	5	[6, 1, 4]	11	FR1	1	R1236J
630.68	4.451	661130	PROB	4.451	n/a	n/a	-999	5	[9, 9, 1]	19	FR1	1	R1236J
635.131	3.384	665581	PROB	3.384	n/a	n/a	-999	5	[5, 1, 1]	7	FR1	1	R1236J
638.515	4.148	668965	PROB	4.148	n/a	n/a	-999	5	[1, 6, 3]	10	FR1	1	R1236J
642.663	0.019	673113	STOP	n/a	n/a	n/a	-999	5	[-999, -999, -999]	n/a	FR1	1	R1236J
642.682	0.55	673132	DISTRACT_END	n/a	n/a	n/a	-999	5	[0, 0, 0]	n/a	FR1	1	R1236J
643.232	0.518	673682	RETRIEVAL_ORIENT	n/a	n/a	n/a	-999	5	[0, 0, 0]	n/a	FR1	1	R1236J
643.75	2.367	674200	REC_START	n/a	n/a	n/a	-999	5	[0, 0, 0]	n/a	FR1	1	R1236J
646.117	7.164	676567	REC_WORD	7.164	n/a	OAR	-999	5	[0, 0, 0]	n/a	FR1	1	R1236J
653.281	7.482	683731	REC_WORD	7.482	n/a	SQUARE	-999	5	[0, 0, 0]	n/a	FR1	1	R1236J
660.763	5.983	691213	REC_WORD	5.983	n/a	FLOOD	-999	5	[0, 0, 0]	n/a	FR1	1	R1236J
666.746	7.015	697196	REC_WORD	7.015	n/a	MOON	12	5	[0, 0, 0]	n/a	FR1	1	R1236J
673.761	5.842	704211	REC_END	n/a	n/a	n/a	-999	5	[0, 0, 0]	n/a	FR1	1	R1236J
679.603	0.5	710053	TRIAL	n/a	n/a	n/a	-999	6	[0, 0, 0]	n/a	FR1	1	R1236J
680.103	10.428	710553	COUNTDOWN_START	n/a	n/a	n/a	-999	6	[0, 0, 0]	n/a	FR1	1	R1236J
690.531	0.007	720981	COUNTDOWN_END	n/a	n/a	n/a	-999	6	[0, 0, 0]	n/a	FR1	1	R1236J
690.538	1.617	720988	ORIENT	n/a	n/a	n/a	-999	6	[0, 0, 0]	n/a	FR1	1	R1236J
692.155	2.2	722605	ORIENT_OFF	n/a	n/a	n/a	-999	6	[0, 0, 0]	n/a	FR1	1	R1236J
694.355	1.617	724805	WORD	n/a	wordpools/wordpool_EN.txt	MOLE	1	6	[0, 0, 0]	n/a	FR1	1	R1236J
695.972	0.767	726422	WORD_OFF	n/a	n/a	MOLE	1	6	[0, 0, 0]	n/a	FR1	1	R1236J
696.739	1.617	727189	WORD	n/a	wordpools/wordpool_EN.txt	PIG	2	6	[0, 0, 0]	n/a	FR1	1	R1236J
698.356	0.833	728806	WORD_OFF	n/a	n/a	PIG	2	6	[0, 0, 0]	n/a	FR1	1	R1236J
699.189	1.617	729639	WORD	n/a	wordpools/wordpool_EN.txt	STRING	3	6	[0, 0, 0]	n/a	FR1	1	R1236J
700.806	0.95	731256	WORD_OFF	n/a	n/a	STRING	3	6	[0, 0, 0]	n/a	FR1	1	R1236J
701.756	1.617	732206	WORD	n/a	wordpools/wordpool_EN.txt	WAND	4	6	[0, 0, 0]	n/a	FR1	1	R1236J
703.373	0.784	733823	WORD_OFF	n/a	n/a	WAND	4	6	[0, 0, 0]	n/a	FR1	1	R1236J
704.157	1.617	734607	WORD	n/a	wordpools/wordpool_EN.txt	HAWK	5	6	[0, 0, 0]	n/a	FR1	1	R1236J
705.774	0.866	736224	WORD_OFF	n/a	n/a	HAWK	5	6	[0, 0, 0]	n/a	FR1	1	R1236J
706.64	1.617	737090	WORD	n/a	wordpools/wordpool_EN.txt	TOAD	6	6	[0, 0, 0]	n/a	FR1	1	R1236J
708.257	0.8	738707	WORD_OFF	n/a	n/a	TOAD	6	6	[0, 0, 0]	n/a	FR1	1	R1236J
709.057	1.617	739507	WORD	n/a	wordpools/wordpool_EN.txt	BUSH	7	6	[0, 0, 0]	n/a	FR1	1	R1236J
710.674	0.833	741124	WORD_OFF	n/a	n/a	BUSH	7	6	[0, 0, 0]	n/a	FR1	1	R1236J
711.507	1.617	741957	WORD	n/a	wordpools/wordpool_EN.txt	HOUSE	8	6	[0, 0, 0]	n/a	FR1	1	R1236J
713.124	0.901	743574	WORD_OFF	n/a	n/a	HOUSE	8	6	[0, 0, 0]	n/a	FR1	1	R1236J
714.025	1.617	744475	WORD	n/a	wordpools/wordpool_EN.txt	MUG	9	6	[0, 0, 0]	n/a	FR1	1	R1236J
715.642	0.85	746092	WORD_OFF	n/a	n/a	MUG	9	6	[0, 0, 0]	n/a	FR1	1	R1236J
716.492	1.617	746942	WORD	n/a	wordpools/wordpool_EN.txt	SMILE	10	6	[0, 0, 0]	n/a	FR1	1	R1236J
718.109	0.966	748559	WORD_OFF	n/a	n/a	SMILE	10	6	[0, 0, 0]	n/a	FR1	1	R1236J
719.075	1.617	749525	WORD	n/a	wordpools/wordpool_EN.txt	DRUM	11	6	[0, 0, 0]	n/a	FR1	1	R1236J
720.692	0.967	751142	WORD_OFF	n/a	n/a	DRUM	11	6	[0, 0, 0]	n/a	FR1	1	R1236J
721.659	1.617	752109	WORD	n/a	wordpools/wordpool_EN.txt	EAR	12	6	[0, 0, 0]	n/a	FR1	1	R1236J
723.276	0.0	753726	WORD_OFF	n/a	n/a	EAR	12	6	[0, 0, 0]	n/a	FR1	1	R1236J
723.276	0.001	753726	DISTRACT_START	n/a	n/a	n/a	-999	6	[0, 0, 0]	n/a	FR1	1	R1236J
723.277	0.015	753727	START	n/a	n/a	n/a	-999	6	[-999, -999, -999]	n/a	FR1	1	R1236J
723.292	4.768	753742	PROB	4.768	n/a	n/a	-999	6	[8, 2, 8]	16	FR1	1	R1236J
728.06	3.533	758510	PROB	3.533	n/a	n/a	-999	6	[3, 2, 8]	13	FR1	1	R1236J
731.593	3.468	762043	PROB	3.468	n/a	n/a	-999	6	[1, 8, 1]	10	FR1	1	R1236J
735.061	5.634	765511	PROB	5.634	n/a	n/a	-999	6	[6, 5, 9]	20	FR1	1	R1236J
740.695	4.53	771145	PROB	4.53	n/a	n/a	-999	6	[4, 8, 8]	20	FR1	1	R1236J
745.225	0.02	775675	STOP	n/a	n/a	n/a	-999	6	[-999, -999, -999]	n/a	FR1	1	R1236J
745.245	0.584	775695	DISTRACT_END	n/a	n/a	n/a	-999	6	[0, 0, 0]	n/a	FR1	1	R1236J
745.829	0.517	776279	RETRIEVAL_ORIENT	n/a	n/a	n/a	-999	6	[0, 0, 0]	n/a	FR1	1	R1236J
746.346	1.767	776796	REC_START	n/a	n/a	n/a	-999	6	[0, 0, 0]	n/a	FR1	1	R1236J
748.113	3.14	778563	REC_WORD	3.14	n/a	OAR	-999	6	[0, 0, 0]	n/a	FR1	1	R1236J
751.253	1.674	781703	REC_WORD	1.674	n/a	MUG	9	6	[0, 0, 0]	n/a	FR1	1	R1236J
752.927	1.863	783377	REC_WORD	1.863	n/a	BARN	-999	6	[0, 0, 0]	n/a	FR1	1	R1236J
754.79	10.332	785240	REC_WORD	10.332	n/a	BUSH	7	6	[0, 0, 0]	n/a	FR1	1	R1236J
765.122	2.557	795572	REC_WORD	2.557	n/a	MOLE	1	6	[0, 0, 0]	n/a	FR1	1	R1236J
767.679	8.679	798129	REC_WORD	8.679	n/a	CHIN	-999	6	[0, 0, 0]	n/a	FR1	1	R1236J
776.358	5.225	806808	REC_END	n/a	n/a	n/a	-999	6	[0, 0, 0]	n/a	FR1	1	R1236J
781.583	0.5	812033	TRIAL	n/a	n/a	n/a	-999	7	[0, 0, 0]	n/a	FR1	1	R1236J
782.083	10.428	812533	COUNTDOWN_START	n/a	n/a	n/a	-999	7	[0, 0, 0]	n/a	FR1	1	R1236J
792.511	0.007	822961	COUNTDOWN_END	n/a	n/a	n/a	-999	7	[0, 0, 0]	n/a	FR1	1	R1236J
792.518	1.617	822968	ORIENT	n/a	n/a	n/a	-999	7	[0, 0, 0]	n/a	FR1	1	R1236J
794.135	2.05	824585	ORIENT_OFF	n/a	n/a	n/a	-999	7	[0, 0, 0]	n/a	FR1	1	R1236J
796.185	1.617	826635	WORD	n/a	wordpools/wordpool_EN.txt	EGG	1	7	[0, 0, 0]	n/a	FR1	1	R1236J
797.802	0.8	828252	WORD_OFF	n/a	n/a	EGG	1	7	[0, 0, 0]	n/a	FR1	1	R1236J
798.602	1.617	829052	WORD	n/a	wordpools/wordpool_EN.txt	MOTH	2	7	[0, 0, 0]	n/a	FR1	1	R1236J
800.219	0.833	830669	WORD_OFF	n/a	n/a	MOTH	2	7	[0, 0, 0]	n/a	FR1	1	R1236J
801.052	1.617	831502	WORD	n/a	wordpools/wordpool_EN.txt	CAT	3	7	[0, 0, 0]	n/a	FR1	1	R1236J
802.669	0.9	833119	WORD_OFF	n/a	n/a	CAT	3	7	[0, 0, 0]	n/a	FR1	1	R1236J
803.569	1.617	834019	WORD	n/a	wordpools/wordpool_EN.txt	BEE	4	7	[0, 0, 0]	n/a	FR1	1	R1236J
805.186	0.85	835636	WORD_OFF	n/a	n/a	BEE	4	7	[0, 0, 0]	n/a	FR1	1	R1236J
806.036	1.617	836486	WORD	n/a	wordpools/wordpool_EN.txt	WEB	5	7	[0, 0, 0]	n/a	FR1	1	R1236J
807.653	0.884	838103	WORD_OFF	n/a	n/a	WEB	5	7	[0, 0, 0]	n/a	FR1	1	R1236J
808.537	1.616	838987	WORD	n/a	wordpools/wordpool_EN.txt	GLOVE	6	7	[0, 0, 0]	n/a	FR1	1	R1236J
810.153	0.867	840603	WORD_OFF	n/a	n/a	GLOVE	6	7	[0, 0, 0]	n/a	FR1	1	R1236J
811.02	1.617	841470	WORD	n/a	wordpools/wordpool_EN.txt	WORM	7	7	[0, 0, 0]	n/a	FR1	1	R1236J
812.637	0.85	843087	WORD_OFF	n/a	n/a	WORM	7	7	[0, 0, 0]	n/a	FR1	1	R1236J
813.487	1.617	843937	WORD	n/a	wordpools/wordpool_EN.txt	CORD	8	7	[0, 0, 0]	n/a	FR1	1	R1236J
815.104	0.8	845554	WORD_OFF	n/a	n/a	CORD	8	7	[0, 0, 0]	n/a	FR1	1	R1236J
815.904	1.617	846354	WORD	n/a	wordpools/wordpool_EN.txt	FLUTE	9	7	[0, 0, 0]	n/a	FR1	1	R1236J
817.521	0.884	847971	WORD_OFF	n/a	n/a	FLUTE	9	7	[0, 0, 0]	n/a	FR1	1	R1236J
818.405	1.616	848855	WORD	n/a	wordpools/wordpool_EN.txt	TOOL	10	7	[0, 0, 0]	n/a	FR1	1	R1236J
820.021	0.834	850471	WORD_OFF	n/a	n/a	TOOL	10	7	[0, 0, 0]	n/a	FR1	1	R1236J
820.855	1.617	851305	WORD	n/a	wordpools/wordpool_EN.txt	TRASH	11	7	[0, 0, 0]	n/a	FR1	1	R1236J
822.472	0.816	852922	WORD_OFF	n/a	n/a	TRASH	11	7	[0, 0, 0]	n/a	FR1	1	R1236J
823.288	1.617	853738	WORD	n/a	wordpools/wordpool_EN.txt	SEED	12	7	[0, 0, 0]	n/a	FR1	1	R1236J
824.905	0.0	855355	WORD_OFF	n/a	n/a	SEED	12	7	[0, 0, 0]	n/a	FR1	1	R1236J
824.905	0.001	855355	DISTRACT_START	n/a	n/a	n/a	-999	7	[0, 0, 0]	n/a	FR1	1	R1236J
824.906	0.016	855356	START	n/a	n/a	n/a	-999	7	[-999, -999, -999]	n/a	FR1	1	R1236J
824.922	4.4	855372	PROB	4.4	n/a	n/a	-999	7	[7, 9, 3]	19	FR1	1	R1236J
829.322	3.034	859772	PROB	3.034	n/a	n/a	-999	7	[2, 6, 3]	11	FR1	1	R1236J
832.356	4.018	862806	PROB	4.018	n/a	n/a	-999	7	[1, 3, 3]	7	FR1	1	R1236J
836.374	2.933	866824	PROB	2.933	n/a	n/a	-999	7	[1, 1, 4]	6	FR1	1	R1236J
839.307	6.05	869757	PROB	6.05	n/a	n/a	-999	7	[5, 5, 6]	16	FR1	1	R1236J
845.357	0.018	875807	STOP	n/a	n/a	n/a	-999	7	[-999, -999, -999]	n/a	FR1	1	R1236J
845.375	0.566	875825	DISTRACT_END	n/a	n/a	n/a	-999	7	[0, 0, 0]	n/a	FR1	1	R1236J
845.941	0.518	876391	RETRIEVAL_ORIENT	n/a	n/a	n/a	-999	7	[0, 0, 0]	n/a	FR1	1	R1236J
846.459	5.979	876909	REC_START	n/a	n/a	n/a	-999	7	[0, 0, 0]	n/a	FR1	1	R1236J
852.438	6.782	882888	REC_WORD	6.782	n/a	MUG	-999	7	[0, 0, 0]	n/a	FR1	1	R1236J
859.22	17.25	889670	REC_WORD	17.25	n/a	STRING	-999	7	[0, 0, 0]	n/a	FR1	1	R1236J
876.47	6.693	906920	REC_END	n/a	n/a	n/a	-999	7	[0, 0, 0]	n/a	FR1	1	R1236J
883.163	0.5	913613	TRIAL	n/a	n/a	n/a	-999	8	[0, 0, 0]	n/a	FR1	1	R1236J
883.663	10.428	914113	COUNTDOWN_START	n/a	n/a	n/a	-999	8	[0, 0, 0]	n/a	FR1	1	R1236J
894.091	0.007	924541	COUNTDOWN_END	n/a	n/a	n/a	-999	8	[0, 0, 0]	n/a	FR1	1	R1236J
894.098	1.617	924548	ORIENT	n/a	n/a	n/a	-999	8	[0, 0, 0]	n/a	FR1	1	R1236J
895.715	2.017	926165	ORIENT_OFF	n/a	n/a	n/a	-999	8	[0, 0, 0]	n/a	FR1	1	R1236J
897.732	1.616	928182	WORD	n/a	wordpools/wordpool_EN.txt	TRAIN	1	8	[0, 0, 0]	n/a	FR1	1	R1236J
899.348	0.934	929798	WORD_OFF	n/a	n/a	TRAIN	1	8	[0, 0, 0]	n/a	FR1	1	R1236J
900.282	1.616	930732	WORD	n/a	wordpools/wordpool_EN.txt	PLANT	2	8	[0, 0, 0]	n/a	FR1	1	R1236J
901.898	0.917	932348	WORD_OFF	n/a	n/a	PLANT	2	8	[0, 0, 0]	n/a	FR1	1	R1236J
902.815	1.617	933265	WORD	n/a	wordpools/wordpool_EN.txt	GUARD	3	8	[0, 0, 0]	n/a	FR1	1	R1236J
904.432	0.867	934882	WORD_OFF	n/a	n/a	GUARD	3	8	[0, 0, 0]	n/a	FR1	1	R1236J
905.299	1.617	935749	WORD	n/a	wordpools/wordpool_EN.txt	SHEEP	4	8	[0, 0, 0]	n/a	FR1	1	R1236J
906.916	0.783	937366	WORD_OFF	n/a	n/a	SHEEP	4	8	[0, 0, 0]	n/a	FR1	1	R1236J
907.699	1.617	938149	WORD	n/a	wordpools/wordpool_EN.txt	SPRING	5	8	[0, 0, 0]	n/a	FR1	1	R1236J
909.316	0.783	939766	WORD_OFF	n/a	n/a	SPRING	5	8	[0, 0, 0]	n/a	FR1	1	R1236J
910.099	1.617	940549	WORD	n/a	wordpools/wordpool_EN.txt	MOOSE	6	8	[0, 0, 0]	n/a	FR1	1	R1236J
911.716	0.934	942166	WORD_OFF	n/a	n/a	MOOSE	6	8	[0, 0, 0]	n/a	FR1	1	R1236J
912.65	1.617	943101	WORD	n/a	wordpools/wordpool_EN.txt	SPEAR	7	8	[0, 0, 0]	n/a	FR1	1	R1236J
914.267	0.983	944718	WORD_OFF	n/a	n/a	SPEAR	7	8	[0, 0, 0]	n/a	FR1	1	R1236J
915.25	1.617	945701	WORD	n/a	wordpools/wordpool_EN.txt	TENT	8	8	[0, 0, 0]	n/a	FR1	1	R1236J
916.867	0.9	947318	WORD_OFF	n/a	n/a	TENT	8	8	[0, 0, 0]	n/a	FR1	1	R1236J
917.767	1.617	948218	WORD	n/a	wordpools/wordpool_EN.txt	FACE	9	8	[0, 0, 0]	n/a	FR1	1	R1236J
919.384	0.867	949835	WORD_OFF	n/a	n/a	FACE	9	8	[0, 0, 0]	n/a	FR1	1	R1236J
920.251	1.617	950702	WORD	n/a	wordpools/wordpool_EN.txt	FOOT	10	8	[0, 0, 0]	n/a	FR1	1	R1236J
921.868	0.783	952319	WORD_OFF	n/a	n/a	FOOT	10	8	[0, 0, 0]	n/a	FR1	1	R1236J
922.651	1.617	953102	WORD	n/a	wordpools/wordpool_EN.txt	TRUCK	11	8	[0, 0, 0]	n/a	FR1	1	R1236J
924.268	0.834	954719	WORD_OFF	n/a	n/a	TRUCK	11	8	[0, 0, 0]	n/a	FR1	1	R1236J
925.102	1.617	955553	WORD	n/a	wordpools/wordpool_EN.txt	FARM	12	8	[0, 0, 0]	n/a	FR1	1	R1236J
926.719	0.0	957170	WORD_OFF	n/a	n/a	FARM	12	8	[0, 0, 0]	n/a	FR1	1	R1236J
926.719	0.0	957170	DISTRACT_START	n/a	n/a	n/a	-999	8	[0, 0, 0]	n/a	FR1	1	R1236J
926.719	0.016	957170	START	n/a	n/a	n/a	-999	8	[-999, -999, -999]	n/a	FR1	1	R1236J
926.735	10.418	957186	PROB	10.418	n/a	n/a	-999	8	[5, 6, 7]	18	FR1	1	R1236J
937.153	2.834	967604	PROB	2.834	n/a	n/a	-999	8	[2, 3, 7]	12	FR1	1	R1236J
939.987	2.767	970438	PROB	2.767	n/a	n/a	-999	8	[1, 6, 5]	12	FR1	1	R1236J
942.754	3.067	973205	PROB	3.067	n/a	n/a	-999	8	[9, 9, 9]	18	FR1	1	R1236J
945.821	5.852	976272	PROB	5.852	n/a	n/a	-999	8	[1, 7, 5]	13	FR1	1	R1236J
951.673	0.015	982124	STOP	n/a	n/a	n/a	-999	8	[-999, -999, -999]	n/a	FR1	1	R1236J
951.688	0.55	982139	DISTRACT_END	n/a	n/a	n/a	-999	8	[0, 0, 0]	n/a	FR1	1	R1236J
952.238	0.518	982689	RETRIEVAL_ORIENT	n/a	n/a	n/a	-999	8	[0, 0, 0]	n/a	FR1	1	R1236J
952.756	1.941	983207	REC_START	n/a	n/a	n/a	-999	8	[0, 0, 0]	n/a	FR1	1	R1236J
954.697	18.284	985148	REC_WORD	18.284	n/a	TRAIN	1	8	[0, 0, 0]	n/a	FR1	1	R1236J
972.981	9.784	1003432	REC_WORD	9.784	n/a	TRUCK	11	8	[0, 0, 0]	n/a	FR1	1	R1236J
982.765	4.295	1013216	REC_END	n/a	n/a	n/a	-999	8	[0, 0, 0]	n/a	FR1	1	R1236J
987.06	0.5	1017511	TRIAL	n/a	n/a	n/a	-999	9	[0, 0, 0]	n/a	FR1	1	R1236J
987.56	10.428	1018011	COUNTDOWN_START	n/a	n/a	n/a	-999	9	[0, 0, 0]	n/a	FR1	1	R1236J
997.988	0.006	1028439	COUNTDOWN_END	n/a	n/a	n/a	-999	9	[0, 0, 0]	n/a	FR1	1	R1236J
997.994	1.617	1028445	ORIENT	n/a	n/a	n/a	-999	9	[0, 0, 0]	n/a	FR1	1	R1236J
999.611	2.133	1030062	ORIENT_OFF	n/a	n/a	n/a	-999	9	[0, 0, 0]	n/a	FR1	1	R1236J
1001.744	1.617	1032195	WORD	n/a	wordpools/wordpool_EN.txt	HOOK	1	9	[0, 0, 0]	n/a	FR1	1	R1236J
1003.361	0.917	1033812	WORD_OFF	n/a	n/a	HOOK	1	9	[0, 0, 0]	n/a	FR1	1	R1236J
1004.278	1.617	1034729	WORD	n/a	wordpools/wordpool_EN.txt	SUN	2	9	[0, 0, 0]	n/a	FR1	1	R1236J
1005.895	0.984	1036346	WORD_OFF	n/a	n/a	SUN	2	9	[0, 0, 0]	n/a	FR1	1	R1236J
1006.879	1.617	1037330	WORD	n/a	wordpools/wordpool_EN.txt	PALM	3	9	[0, 0, 0]	n/a	FR1	1	R1236J
1008.496	0.933	1038947	WORD_OFF	n/a	n/a	PALM	3	9	[0, 0, 0]	n/a	FR1	1	R1236J
1009.429	1.617	1039880	WORD	n/a	wordpools/wordpool_EN.txt	BRUSH	4	9	[0, 0, 0]	n/a	FR1	1	R1236J
1011.046	0.8	1041497	WORD_OFF	n/a	n/a	BRUSH	4	9	[0, 0, 0]	n/a	FR1	1	R1236J
1011.846	1.617	1042297	WORD	n/a	wordpools/wordpool_EN.txt	HILL	5	9	[0, 0, 0]	n/a	FR1	1	R1236J
1013.463	0.8	1043914	WORD_OFF	n/a	n/a	HILL	5	9	[0, 0, 0]	n/a	FR1	1	R1236J
1014.263	1.617	1044714	WORD	n/a	wordpools/wordpool_EN.txt	HOLE	6	9	[0, 0, 0]	n/a	FR1	1	R1236J
1015.88	0.817	1046331	WORD_OFF	n/a	n/a	HOLE	6	9	[0, 0, 0]	n/a	FR1	1	R1236J
1016.697	1.617	1047148	WORD	n/a	wordpools/wordpool_EN.txt	PIN	7	9	[0, 0, 0]	n/a	FR1	1	R1236J
1018.314	0.949	1048765	WORD_OFF	n/a	n/a	PIN	7	9	[0, 0, 0]	n/a	FR1	1	R1236J
1019.263	1.617	1049714	WORD	n/a	wordpools/wordpool_EN.txt	CALF	8	9	[0, 0, 0]	n/a	FR1	1	R1236J
1020.88	0.917	1051331	WORD_OFF	n/a	n/a	CALF	8	9	[0, 0, 0]	n/a	FR1	1	R1236J
1021.797	1.617	1052248	WORD	n/a	wordpools/wordpool_EN.txt	PEA	9	9	[0, 0, 0]	n/a	FR1	1	R1236J
1023.414	0.8	1053865	WORD_OFF	n/a	n/a	PEA	9	9	[0, 0, 0]	n/a	FR1	1	R1236J
1024.214	1.617	1054665	WORD	n/a	wordpools/wordpool_EN.txt	VINE	10	9	[0, 0, 0]	n/a	FR1	1	R1236J
1025.831	0.8	1056282	WORD_OFF	n/a	n/a	VINE	10	9	[0, 0, 0]	n/a	FR1	1	R1236J
1026.631	1.617	1057082	WORD	n/a	wordpools/wordpool_EN.txt	DITCH	11	9	[0, 0, 0]	n/a	FR1	1	R1236J
1028.248	0.933	1058699	WORD_OFF	n/a	n/a	DITCH	11	9	[0, 0, 0]	n/a	FR1	1	R1236J
1029.181	1.617	1059632	WORD	n/a	wordpools/wordpool_EN.txt	FOX	12	9	[0, 0, 0]	n/a	FR1	1	R1236J
1030.798	0.0	1061249	WORD_OFF	n/a	n/a	FOX	12	9	[0, 0, 0]	n/a	FR1	1	R1236J
1030.798	0.001	1061249	DISTRACT_START	n/a	n/a	n/a	-999	9	[0, 0, 0]	n/a	FR1	1	R1236J
1030.799	0.016	1061250	START	n/a	n/a	n/a	-999	9	[-999, -999, -999]	n/a	FR1	1	R1236J
1030.815	5.418	1061266	PROB	5.418	n/a	n/a	-999	9	[7, 4, 6]	17	FR1	1	R1236J
1036.233	17.604	1066684	PROB	17.604	n/a	n/a	-999	9	[8, 6, 7]	21	FR1	1	R1236J
1053.837	0.014	1084288	STOP	n/a	n/a	n/a	-999	9	[-999, -999, -999]	n/a	FR1	1	R1236J
1053.851	0.567	1084302	DISTRACT_END	n/a	n/a	n/a	-999	9	[0, 0, 0]	n/a	FR1	1	R1236J
1054.418	0.518	1084869	RETRIEVAL_ORIENT	n/a	n/a	n/a	-999	9	[0, 0, 0]	n/a	FR1	1	R1236J
1054.936	1.566	1085387	REC_START	n/a	n/a	n/a	-999	9	[0, 0, 0]	n/a	FR1	1	R1236J
1056.502	1.069	1086953	REC_WORD_VV	1.069	n/a	<>	-999	9	[0, 0, 0]	n/a	FR1	1	R1236J
1057.571	4.416	1088022	REC_WORD	4.416	n/a	FOX	12	9	[0, 0, 0]	n/a	FR1	1	R1236J
1061.987	5.707	1092438	REC_WORD	5.707	n/a	STRING	-999	9	[0, 0, 0]	n/a	FR1	1	R1236J
1067.694	17.253	1098145	REC_WORD	17.253	n/a	PIN	7	9	[0, 0, 0]	n/a	FR1	1	R1236J
1084.947	5.642	1115398	REC_END	n/a	n/a	n/a	-999	9	[0, 0, 0]	n/a	FR1	1	R1236J
1090.589	0.5	1121040	TRIAL	n/a	n/a	n/a	-999	10	[0, 0, 0]	n/a	FR1	1	R1236J
1091.089	10.428	1121540	COUNTDOWN_START	n/a	n/a	n/a	-999	10	[0, 0, 0]	n/a	FR1	1	R1236J
1101.517	0.007	1131968	COUNTDOWN_END	n/a	n/a	n/a	-999	10	[0, 0, 0]	n/a	FR1	1	R1236J
1101.524	1.617	1131975	ORIENT	n/a	n/a	n/a	-999	10	[0, 0, 0]	n/a	FR1	1	R1236J
1103.141	1.817	1133592	ORIENT_OFF	n/a	n/a	n/a	-999	10	[0, 0, 0]	n/a	FR1	1	R1236J
1104.958	1.617	1135409	WORD	n/a	wordpools/wordpool_EN.txt	ICE	1	10	[0, 0, 0]	n/a	FR1	1	R1236J
1106.575	0.917	1137026	WORD_OFF	n/a	n/a	ICE	1	10	[0, 0, 0]	n/a	FR1	1	R1236J
1107.492	1.616	1137943	WORD	n/a	wordpools/wordpool_EN.txt	SHELL	2	10	[0, 0, 0]	n/a	FR1	1	R1236J
1109.108	0.834	1139559	WORD_OFF	n/a	n/a	SHELL	2	10	[0, 0, 0]	n/a	FR1	1	R1236J
1109.942	1.617	1140393	WORD	n/a	wordpools/wordpool_EN.txt	CONE	3	10	[0, 0, 0]	n/a	FR1	1	R1236J
1111.559	0.9	1142010	WORD_OFF	n/a	n/a	CONE	3	10	[0, 0, 0]	n/a	FR1	1	R1236J
1112.459	1.617	1142910	WORD	n/a	wordpools/wordpool_EN.txt	BRICK	4	10	[0, 0, 0]	n/a	FR1	1	R1236J
1114.076	0.883	1144527	WORD_OFF	n/a	n/a	BRICK	4	10	[0, 0, 0]	n/a	FR1	1	R1236J
1114.959	1.617	1145410	WORD	n/a	wordpools/wordpool_EN.txt	DIME	5	10	[0, 0, 0]	n/a	FR1	1	R1236J
1116.576	0.784	1147027	WORD_OFF	n/a	n/a	DIME	5	10	[0, 0, 0]	n/a	FR1	1	R1236J
1117.36	1.616	1147811	WORD	n/a	wordpools/wordpool_EN.txt	SALT	6	10	[0, 0, 0]	n/a	FR1	1	R1236J
1118.976	0.817	1149427	WORD_OFF	n/a	n/a	SALT	6	10	[0, 0, 0]	n/a	FR1	1	R1236J
1119.793	1.617	1150244	WORD	n/a	wordpools/wordpool_EN.txt	FROG	7	10	[0, 0, 0]	n/a	FR1	1	R1236J
1121.41	0.983	1151861	WORD_OFF	n/a	n/a	FROG	7	10	[0, 0, 0]	n/a	FR1	1	R1236J
1122.393	1.617	1152844	WORD	n/a	wordpools/wordpool_EN.txt	CHIEF	8	10	[0, 0, 0]	n/a	FR1	1	R1236J
1124.01	0.917	1154461	WORD_OFF	n/a	n/a	CHIEF	8	10	[0, 0, 0]	n/a	FR1	1	R1236J
1124.927	1.617	1155378	WORD	n/a	wordpools/wordpool_EN.txt	STEAM	9	10	[0, 0, 0]	n/a	FR1	1	R1236J
1126.544	0.817	1156995	WORD_OFF	n/a	n/a	STEAM	9	10	[0, 0, 0]	n/a	FR1	1	R1236J
1127.361	1.616	1157812	WORD	n/a	wordpools/wordpool_EN.txt	STONE	10	10	[0, 0, 0]	n/a	FR1	1	R1236J
1128.977	0.867	1159428	WORD_OFF	n/a	n/a	STONE	10	10	[0, 0, 0]	n/a	FR1	1	R1236J
1129.844	1.617	1160295	WORD	n/a	wordpools/wordpool_EN.txt	SPARK	11	10	[0, 0, 0]	n/a	FR1	1	R1236J
1131.461	0.817	1161912	WORD_OFF	n/a	n/a	SPARK	11	10	[0, 0, 0]	n/a	FR1	1	R1236J
1132.278	1.617	1162729	WORD	n/a	wordpools/wordpool_EN.txt	FORT	12	10	[0, 0, 0]	n/a	FR1	1	R1236J
1133.895	0.0	1164346	WORD_OFF	n/a	n/a	FORT	12	10	[0, 0, 0]	n/a	FR1	1	R1236J
1133.895	0.001	1164346	DISTRACT_START	n/a	n/a	n/a	-999	10	[0, 0, 0]	n/a	FR1	1	R1236J
1133.896	0.016	1164347	START	n/a	n/a	n/a	-999	10	[-999, -999, -999]	n/a	FR1	1	R1236J
1133.912	5.033	1164363	PROB	5.033	n/a	n/a	-999	10	[4, 1, 8]	13	FR1	1	R1236J
1138.945	5.085	1169396	PROB	5.085	n/a	n/a	-999	10	[6, 4, 5]	15	FR1	1	R1236J
1144.03	4.4	1174481	PROB	4.4	n/a	n/a	-999	10	[7, 8, 8]	23	FR1	1	R1236J
1148.43	4.934	1178881	PROB	4.934	n/a	n/a	-999	10	[9, 6, 5]	20	FR1	1	R1236J
1153.364	3.837	1183815	PROB	3.837	n/a	n/a	-999	10	[2, 2, 4]	8	FR1	1	R1236J
1157.201	0.014	1187652	STOP	n/a	n/a	n/a	-999	10	[-999, -999, -999]	n/a	FR1	1	R1236J
1157.215	0.516	1187666	DISTRACT_END	n/a	n/a	n/a	-999	10	[0, 0, 0]	n/a	FR1	1	R1236J
1157.731	0.518	1188182	RETRIEVAL_ORIENT	n/a	n/a	n/a	-999	10	[0, 0, 0]	n/a	FR1	1	R1236J
1158.249	3.534	1188700	REC_START	n/a	n/a	n/a	-999	10	[0, 0, 0]	n/a	FR1	1	R1236J
1161.783	1.485	1192234	REC_WORD	1.485	n/a	ICE	1	10	[0, 0, 0]	n/a	FR1	1	R1236J
1163.268	22.772	1193719	REC_WORD	22.772	n/a	CONE	3	10	[0, 0, 0]	n/a	FR1	1	R1236J
1186.04	2.221	1216491	REC_WORD	2.221	n/a	DITCH	-999	10	[0, 0, 0]	n/a	FR1	1	R1236J
1188.261	5.075	1218712	REC_END	n/a	n/a	n/a	-999	10	[0, 0, 0]	n/a	FR1	1	R1236J
1193.336	0.5	1223787	TRIAL	n/a	n/a	n/a	-999	11	[0, 0, 0]	n/a	FR1	1	R1236J
1193.836	10.428	1224287	COUNTDOWN_START	n/a	n/a	n/a	-999	11	[0, 0, 0]	n/a	FR1	1	R1236J
1204.264	0.007	1234715	COUNTDOWN_END	n/a	n/a	n/a	-999	11	[0, 0, 0]	n/a	FR1	1	R1236J
1204.271	1.617	1234722	ORIENT	n/a	n/a	n/a	-999	11	[0, 0, 0]	n/a	FR1	1	R1236J
1205.888	2.017	1236339	ORIENT_OFF	n/a	n/a	n/a	-999	11	[0, 0, 0]	n/a	FR1	1	R1236J
1207.905	1.616	1238356	WORD	n/a	wordpools/wordpool_EN.txt	SKUNK	1	11	[0, 0, 0]	n/a	FR1	1	R1236J
1209.521	0.817	1239972	WORD_OFF	n/a	n/a	SKUNK	1	11	[0, 0, 0]	n/a	FR1	1	R1236J
1210.338	1.617	1240789	WORD	n/a	wordpools/wordpool_EN.txt	WOOD	2	11	[0, 0, 0]	n/a	FR1	1	R1236J
1211.955	1.0	1242406	WORD_OFF	n/a	n/a	WOOD	2	11	[0, 0, 0]	n/a	FR1	1	R1236J
1212.955	1.617	1243406	WORD	n/a	wordpools/wordpool_EN.txt	PEN	3	11	[0, 0, 0]	n/a	FR1	1	R1236J
1214.572	0.8	1245023	WORD_OFF	n/a	n/a	PEN	3	11	[0, 0, 0]	n/a	FR1	1	R1236J
1215.372	1.617	1245823	WORD	n/a	wordpools/wordpool_EN.txt	PASTE	4	11	[0, 0, 0]	n/a	FR1	1	R1236J
1216.989	0.867	1247440	WORD_OFF	n/a	n/a	PASTE	4	11	[0, 0, 0]	n/a	FR1	1	R1236J
1217.856	1.616	1248307	WORD	n/a	wordpools/wordpool_EN.txt	PLATE	5	11	[0, 0, 0]	n/a	FR1	1	R1236J
1219.472	0.884	1249923	WORD_OFF	n/a	n/a	PLATE	5	11	[0, 0, 0]	n/a	FR1	1	R1236J
1220.356	1.617	1250807	WORD	n/a	wordpools/wordpool_EN.txt	HOOF	6	11	[0, 0, 0]	n/a	FR1	1	R1236J
1221.973	0.95	1252424	WORD_OFF	n/a	n/a	HOOF	6	11	[0, 0, 0]	n/a	FR1	1	R1236J
1222.923	1.617	1253374	WORD	n/a	wordpools/wordpool_EN.txt	MAT	7	11	[0, 0, 0]	n/a	FR1	1	R1236J
1224.54	0.783	1254991	WORD_OFF	n/a	n/a	MAT	7	11	[0, 0, 0]	n/a	FR1	1	R1236J
1225.323	1.617	1255774	WORD	n/a	wordpools/wordpool_EN.txt	VAN	8	11	[0, 0, 0]	n/a	FR1	1	R1236J
1226.94	0.95	1257391	WORD_OFF	n/a	n/a	VAN	8	11	[0, 0, 0]	n/a	FR1	1	R1236J
1227.89	1.617	1258341	WORD	n/a	wordpools/wordpool_EN.txt	BOX	9	11	[0, 0, 0]	n/a	FR1	1	R1236J
1229.507	1.017	1259958	WORD_OFF	n/a	n/a	BOX	9	11	[0, 0, 0]	n/a	FR1	1	R1236J
1230.524	1.617	1260975	WORD	n/a	wordpools/wordpool_EN.txt	STEAK	10	11	[0, 0, 0]	n/a	FR1	1	R1236J
1232.141	0.883	1262592	WORD_OFF	n/a	n/a	STEAK	10	11	[0, 0, 0]	n/a	FR1	1	R1236J
1233.024	1.617	1263475	WORD	n/a	wordpools/wordpool_EN.txt	PEAR	11	11	[0, 0, 0]	n/a	FR1	1	R1236J
1234.641	0.9	1265092	WORD_OFF	n/a	n/a	PEAR	11	11	[0, 0, 0]	n/a	FR1	1	R1236J
1235.541	1.617	1265992	WORD	n/a	wordpools/wordpool_EN.txt	PEACH	12	11	[0, 0, 0]	n/a	FR1	1	R1236J
1237.158	0.0	1267609	WORD_OFF	n/a	n/a	PEACH	12	11	[0, 0, 0]	n/a	FR1	1	R1236J
1237.158	0.001	1267609	DISTRACT_START	n/a	n/a	n/a	-999	11	[0, 0, 0]	n/a	FR1	1	R1236J
1237.159	0.016	1267610	START	n/a	n/a	n/a	-999	11	[-999, -999, -999]	n/a	FR1	1	R1236J
1237.175	4.784	1267626	PROB	4.784	n/a	n/a	-999	11	[6, 1, 5]	12	FR1	1	R1236J
1241.959	4.917	1272410	PROB	4.917	n/a	n/a	-999	11	[8, 3, 9]	20	FR1	1	R1236J
1246.876	4.484	1277327	PROB	4.484	n/a	n/a	-999	11	[8, 8, 3]	19	FR1	1	R1236J
1251.36	7.228	1281811	PROB	7.228	n/a	n/a	-999	11	[7, 5, 5]	17	FR1	1	R1236J
1258.588	0.006	1289039	STOP	n/a	n/a	n/a	-999	11	[-999, -999, -999]	n/a	FR1	1	R1236J
1258.594	0.7	1289045	DISTRACT_END	n/a	n/a	n/a	-999	11	[0, 0, 0]	n/a	FR1	1	R1236J
1259.294	0.518	1289745	RETRIEVAL_ORIENT	n/a	n/a	n/a	-999	11	[0, 0, 0]	n/a	FR1	1	R1236J
1259.812	1.297	1290263	REC_START	n/a	n/a	n/a	-999	11	[0, 0, 0]	n/a	FR1	1	R1236J
1261.109	2.713	1291560	REC_WORD	2.713	n/a	SKUNK	1	11	[0, 0, 0]	n/a	FR1	1	R1236J
1263.822	0.961	1294273	REC_WORD_VV	0.961	n/a	<>	-999	11	[0, 0, 0]	n/a	FR1	1	R1236J
1264.783	3.331	1295234	REC_WORD	3.331	n/a	PEN	3	11	[0, 0, 0]	n/a	FR1	1	R1236J
1268.114	1.993	1298565	REC_WORD	1.993	n/a	TRUCK	-999	11	[0, 0, 0]	n/a	FR1	1	R1236J
1270.107	1.68	1300558	REC_WORD	1.68	n/a	BOX	9	11	[0, 0, 0]	n/a	FR1	1	R1236J
1271.787	7.316	1302238	REC_WORD	7.316	n/a	VAN	8	11	[0, 0, 0]	n/a	FR1	1	R1236J
1279.103	10.72	1309554	REC_WORD	10.72	n/a	WOOD	2	11	[0, 0, 0]	n/a	FR1	1	R1236J
1289.823	4.942	1320274	REC_END	n/a	n/a	n/a	-999	11	[0, 0, 0]	n/a	FR1	1	R1236J
1294.765	0.5	1325216	TRIAL	n/a	n/a	n/a	-999	12	[0, 0, 0]	n/a	FR1	1	R1236J
1295.265	10.428	1325716	COUNTDOWN_START	n/a	n/a	n/a	-999	12	[0, 0, 0]	n/a	FR1	1	R1236J
1305.693	0.007	1336144	COUNTDOWN_END	n/a	n/a	n/a	-999	12	[0, 0, 0]	n/a	FR1	1	R1236J
1305.7	1.617	1336151	ORIENT	n/a	n/a	n/a	-999	12	[0, 0, 0]	n/a	FR1	1	R1236J
1307.317	2.0	1337768	ORIENT_OFF	n/a	n/a	n/a	-999	12	[0, 0, 0]	n/a	FR1	1	R1236J
1309.317	1.617	1339768	WORD	n/a	wordpools/wordpool_EN.txt	TOAST	1	12	[0, 0, 0]	n/a	FR1	1	R1236J
1310.934	0.9	1341385	WORD_OFF	n/a	n/a	TOAST	1	12	[0, 0, 0]	n/a	FR1	1	R1236J
1311.834	1.617	1342285	WORD	n/a	wordpools/wordpool_EN.txt	CRANE	2	12	[0, 0, 0]	n/a	FR1	1	R1236J
1313.451	0.917	1343902	WORD_OFF	n/a	n/a	CRANE	2	12	[0, 0, 0]	n/a	FR1	1	R1236J
1314.368	1.617	1344819	WORD	n/a	wordpools/wordpool_EN.txt	HEN	3	12	[0, 0, 0]	n/a	FR1	1	R1236J
1315.985	0.933	1346436	WORD_OFF	n/a	n/a	HEN	3	12	[0, 0, 0]	n/a	FR1	1	R1236J
1316.918	1.617	1347369	WORD	n/a	wordpools/wordpool_EN.txt	CROW	4	12	[0, 0, 0]	n/a	FR1	1	R1236J
1318.535	0.967	1348986	WORD_OFF	n/a	n/a	CROW	4	12	[0, 0, 0]	n/a	FR1	1	R1236J
1319.502	1.616	1349953	WORD	n/a	wordpools/wordpool_EN.txt	LAWN	5	12	[0, 0, 0]	n/a	FR1	1	R1236J
1321.118	0.767	1351569	WORD_OFF	n/a	n/a	LAWN	5	12	[0, 0, 0]	n/a	FR1	1	R1236J
1321.885	1.617	1352336	WORD	n/a	wordpools/wordpool_EN.txt	ANT	6	12	[0, 0, 0]	n/a	FR1	1	R1236J
1323.502	1.001	1353953	WORD_OFF	n/a	n/a	ANT	6	12	[0, 0, 0]	n/a	FR1	1	R1236J
1324.503	1.617	1354954	WORD	n/a	wordpools/wordpool_EN.txt	NEST	7	12	[0, 0, 0]	n/a	FR1	1	R1236J
1326.12	0.783	1356571	WORD_OFF	n/a	n/a	NEST	7	12	[0, 0, 0]	n/a	FR1	1	R1236J
1326.903	1.617	1357354	WORD	n/a	wordpools/wordpool_EN.txt	ROOM	8	12	[0, 0, 0]	n/a	FR1	1	R1236J
1328.52	0.883	1358971	WORD_OFF	n/a	n/a	ROOM	8	12	[0, 0, 0]	n/a	FR1	1	R1236J
1329.403	1.617	1359854	WORD	n/a	wordpools/wordpool_EN.txt	BATH	9	12	[0, 0, 0]	n/a	FR1	1	R1236J
1331.02	0.867	1361471	WORD_OFF	n/a	n/a	BATH	9	12	[0, 0, 0]	n/a	FR1	1	R1236J
1331.887	1.617	1362338	WORD	n/a	wordpools/wordpool_EN.txt	TEA	10	12	[0, 0, 0]	n/a	FR1	1	R1236J
1333.504	0.833	1363955	WORD_OFF	n/a	n/a	TEA	10	12	[0, 0, 0]	n/a	FR1	1	R1236J
1334.337	1.617	1364788	WORD	n/a	wordpools/wordpool_EN.txt	ROOF	11	12	[0, 0, 0]	n/a	FR1	1	R1236J
1335.954	0.95	1366405	WORD_OFF	n/a	n/a	ROOF	11	12	[0, 0, 0]	n/a	FR1	1	R1236J
1336.904	1.617	1367355	WORD	n/a	wordpools/wordpool_EN.txt	DART	12	12	[0, 0, 0]	n/a	FR1	1	R1236J
1338.521	0.0	1368972	WORD_OFF	n/a	n/a	DART	12	12	[0, 0, 0]	n/a	FR1	1	R1236J
1338.521	0.001	1368972	DISTRACT_START	n/a	n/a	n/a	-999	12	[0, 0, 0]	n/a	FR1	1	R1236J
1338.522	0.016	1368973	START	n/a	n/a	n/a	-999	12	[-999, -999, -999]	n/a	FR1	1	R1236J
1338.538	4.217	1368989	PROB	4.217	n/a	n/a	-999	12	[7, 1, 2]	10	FR1	1	R1236J
1342.755	3.1	1373206	PROB	3.1	n/a	n/a	-999	12	[4, 4, 3]	11	FR1	1	R1236J
1345.855	3.767	1376306	PROB	3.767	n/a	n/a	-999	12	[8, 2, 2]	12	FR1	1	R1236J
1349.622	3.634	1380073	PROB	3.634	n/a	n/a	-999	12	[6, 4, 1]	11	FR1	1	R1236J
1353.256	4.084	1383707	PROB	4.084	n/a	n/a	-999	12	[5, 7, 2]	14	FR1	1	R1236J
1357.34	7.276	1387791	PROB	7.276	n/a	n/a	-999	12	[5, 7, 9]	21	FR1	1	R1236J
1364.616	0.009	1395067	STOP	n/a	n/a	n/a	-999	12	[-999, -999, -999]	n/a	FR1	1	R1236J
1364.625	0.683	1395076	DISTRACT_END	n/a	n/a	n/a	-999	12	[0, 0, 0]	n/a	FR1	1	R1236J
1365.308	0.517	1395759	RETRIEVAL_ORIENT	n/a	n/a	n/a	-999	12	[0, 0, 0]	n/a	FR1	1	R1236J
1365.825	2.73	1396276	REC_START	n/a	n/a	n/a	-999	12	[0, 0, 0]	n/a	FR1	1	R1236J
1368.555	1.276	1399006	REC_WORD	1.276	n/a	CROW	4	12	[0, 0, 0]	n/a	FR1	1	R1236J
1369.831	4.757	1400282	REC_WORD	4.757	n/a	NEST	7	12	[0, 0, 0]	n/a	FR1	1	R1236J
1374.588	7.85	1405040	REC_WORD	7.85	n/a	ROOM	8	12	[0, 0, 0]	n/a	FR1	1	R1236J
1382.438	9.785	1412890	REC_WORD	9.785	n/a	CRANE	2	12	[0, 0, 0]	n/a	FR1	1	R1236J
1392.223	2.389	1422675	REC_WORD	2.389	n/a	NEST	7	12	[0, 0, 0]	n/a	FR1	1	R1236J
1394.612	1.226	1425064	REC_WORD	1.226	n/a	TEA	10	12	[0, 0, 0]	n/a	FR1	1	R1236J
1395.838	5.007	1426290	REC_END	n/a	n/a	n/a	-999	12	[0, 0, 0]	n/a	FR1	1	R1236J
1400.845	0.5	1431297	TRIAL	n/a	n/a	n/a	-999	13	[0, 0, 0]	n/a	FR1	1	R1236J
1401.345	10.428	1431797	COUNTDOWN_START	n/a	n/a	n/a	-999	13	[0, 0, 0]	n/a	FR1	1	R1236J
1411.773	0.007	1442225	COUNTDOWN_END	n/a	n/a	n/a	-999	13	[0, 0, 0]	n/a	FR1	1	R1236J
1411.78	1.617	1442232	ORIENT	n/a	n/a	n/a	-999	13	[0, 0, 0]	n/a	FR1	1	R1236J
1413.397	2.084	1443849	ORIENT_OFF	n/a	n/a	n/a	-999	13	[0, 0, 0]	n/a	FR1	1	R1236J
1415.481	1.617	1445933	WORD	n/a	wordpools/wordpool_EN.txt	BOOK	1	13	[0, 0, 0]	n/a	FR1	1	R1236J
1417.098	0.917	1447550	WORD_OFF	n/a	n/a	BOOK	1	13	[0, 0, 0]	n/a	FR1	1	R1236J
1418.015	1.616	1448467	WORD	n/a	wordpools/wordpool_EN.txt	JAIL	2	13	[0, 0, 0]	n/a	FR1	1	R1236J
1419.631	0.85	1450083	WORD_OFF	n/a	n/a	JAIL	2	13	[0, 0, 0]	n/a	FR1	1	R1236J
1420.481	1.617	1450933	WORD	n/a	wordpools/wordpool_EN.txt	STORE	3	13	[0, 0, 0]	n/a	FR1	1	R1236J
1422.098	0.834	1452550	WORD_OFF	n/a	n/a	STORE	3	13	[0, 0, 0]	n/a	FR1	1	R1236J
1422.932	1.617	1453384	WORD	n/a	wordpools/wordpool_EN.txt	BANK	4	13	[0, 0, 0]	n/a	FR1	1	R1236J
1424.549	0.817	1455001	WORD_OFF	n/a	n/a	BANK	4	13	[0, 0, 0]	n/a	FR1	1	R1236J
1425.366	1.616	1455818	WORD	n/a	wordpools/wordpool_EN.txt	RAKE	5	13	[0, 0, 0]	n/a	FR1	1	R1236J
1426.982	0.851	1457434	WORD_OFF	n/a	n/a	RAKE	5	13	[0, 0, 0]	n/a	FR1	1	R1236J
1427.833	1.616	1458285	WORD	n/a	wordpools/wordpool_EN.txt	MAIL	6	13	[0, 0, 0]	n/a	FR1	1	R1236J
1429.449	0.884	1459901	WORD_OFF	n/a	n/a	MAIL	6	13	[0, 0, 0]	n/a	FR1	1	R1236J
1430.333	1.616	1460785	WORD	n/a	wordpools/wordpool_EN.txt	HORSE	7	13	[0, 0, 0]	n/a	FR1	1	R1236J
1431.949	0.984	1462401	WORD_OFF	n/a	n/a	HORSE	7	13	[0, 0, 0]	n/a	FR1	1	R1236J
1432.933	1.617	1463385	WORD	n/a	wordpools/wordpool_EN.txt	ELF	8	13	[0, 0, 0]	n/a	FR1	1	R1236J
1434.55	0.767	1465002	WORD_OFF	n/a	n/a	ELF	8	13	[0, 0, 0]	n/a	FR1	1	R1236J
1435.317	1.617	1465769	WORD	n/a	wordpools/wordpool_EN.txt	INK	9	13	[0, 0, 0]	n/a	FR1	1	R1236J
1436.934	0.933	1467386	WORD_OFF	n/a	n/a	INK	9	13	[0, 0, 0]	n/a	FR1	1	R1236J
1437.867	1.617	1468319	WORD	n/a	wordpools/wordpool_EN.txt	JUDGE	10	13	[0, 0, 0]	n/a	FR1	1	R1236J
1439.484	1.0	1469936	WORD_OFF	n/a	n/a	JUDGE	10	13	[0, 0, 0]	n/a	FR1	1	R1236J
1440.484	1.617	1470936	WORD	n/a	wordpools/wordpool_EN.txt	SHEET	11	13	[0, 0, 0]	n/a	FR1	1	R1236J
1442.101	0.883	1472553	WORD_OFF	n/a	n/a	SHEET	11	13	[0, 0, 0]	n/a	FR1	1	R1236J
1442.984	1.617	1473436	WORD	n/a	wordpools/wordpool_EN.txt	COIN	12	13	[0, 0, 0]	n/a	FR1	1	R1236J
1444.601	0.0	1475053	WORD_OFF	n/a	n/a	COIN	12	13	[0, 0, 0]	n/a	FR1	1	R1236J
1444.601	0.001	1475053	DISTRACT_START	n/a	n/a	n/a	-999	13	[0, 0, 0]	n/a	FR1	1	R1236J
1444.602	0.016	1475054	START	n/a	n/a	n/a	-999	13	[-999, -999, -999]	n/a	FR1	1	R1236J
1444.618	4.184	1475070	PROB	4.184	n/a	n/a	-999	13	[9, 1, 8]	18	FR1	1	R1236J
1448.802	4.084	1479254	PROB	4.084	n/a	n/a	-999	13	[2, 6, 7]	15	FR1	1	R1236J
1452.886	7.05	1483338	PROB	7.05	n/a	n/a	-999	13	[7, 4, 2]	13	FR1	1	R1236J
1459.936	4.765	1490388	PROB	4.765	n/a	n/a	-999	13	[2, 9, 5]	16	FR1	1	R1236J
1464.701	0.02	1495153	STOP	n/a	n/a	n/a	-999	13	[-999, -999, -999]	n/a	FR1	1	R1236J
1464.721	0.583	1495173	DISTRACT_END	n/a	n/a	n/a	-999	13	[0, 0, 0]	n/a	FR1	1	R1236J
1465.304	0.518	1495756	RETRIEVAL_ORIENT	n/a	n/a	n/a	-999	13	[0, 0, 0]	n/a	FR1	1	R1236J
1465.822	1.845	1496274	REC_START	n/a	n/a	n/a	-999	13	[0, 0, 0]	n/a	FR1	1	R1236J
1467.667	10.277	1498119	REC_WORD	10.277	n/a	TEA	-999	13	[0, 0, 0]	n/a	FR1	1	R1236J
1477.944	5.526	1508396	REC_WORD	5.526	n/a	BOOK	1	13	[0, 0, 0]	n/a	FR1	1	R1236J
1483.47	12.363	1513922	REC_WORD	12.363	n/a	BARN	-999	13	[0, 0, 0]	n/a	FR1	1	R1236J
1495.833	61.083	1526285	REC_END	n/a	n/a	n/a	-999	13	[0, 0, 0]	n/a	FR1	1	R1236J
1556.916	0.5	1587368	TRIAL	n/a	n/a	n/a	-999	14	[0, 0, 0]	n/a	FR1	1	R1236J
1557.416	10.428	1587868	COUNTDOWN_START	n/a	n/a	n/a	-999	14	[0, 0, 0]	n/a	FR1	1	R1236J
1567.844	0.007	1598296	COUNTDOWN_END	n/a	n/a	n/a	-999	14	[0, 0, 0]	n/a	FR1	1	R1236J
1567.851	1.616	1598303	ORIENT	n/a	n/a	n/a	-999	14	[0, 0, 0]	n/a	FR1	1	R1236J
1569.467	2.2	1599919	ORIENT_OFF	n/a	n/a	n/a	-999	14	[0, 0, 0]	n/a	FR1	1	R1236J
1571.667	1.617	1602119	WORD	n/a	wordpools/wordpool_EN.txt	SWAMP	1	14	[0, 0, 0]	n/a	FR1	1	R1236J
1573.284	0.967	1603736	WORD_OFF	n/a	n/a	SWAMP	1	14	[0, 0, 0]	n/a	FR1	1	R1236J
1574.251	1.617	1604703	WORD	n/a	wordpools/wordpool_EN.txt	STAR	2	14	[0, 0, 0]	n/a	FR1	1	R1236J
1575.868	0.784	1606320	WORD_OFF	n/a	n/a	STAR	2	14	[0, 0, 0]	n/a	FR1	1	R1236J
1576.652	1.616	1607104	WORD	n/a	wordpools/wordpool_EN.txt	PEARL	3	14	[0, 0, 0]	n/a	FR1	1	R1236J
1578.268	0.933	1608720	WORD_OFF	n/a	n/a	PEARL	3	14	[0, 0, 0]	n/a	FR1	1	R1236J
1579.201	1.618	1609653	WORD	n/a	wordpools/wordpool_EN.txt	CLOUD	4	14	[0, 0, 0]	n/a	FR1	1	R1236J
1580.819	0.883	1611271	WORD_OFF	n/a	n/a	CLOUD	4	14	[0, 0, 0]	n/a	FR1	1	R1236J
1581.702	1.617	1612154	WORD	n/a	wordpools/wordpool_EN.txt	BOMB	5	14	[0, 0, 0]	n/a	FR1	1	R1236J
1583.319	0.833	1613771	WORD_OFF	n/a	n/a	BOMB	5	14	[0, 0, 0]	n/a	FR1	1	R1236J
1584.152	1.617	1614604	WORD	n/a	wordpools/wordpool_EN.txt	SOUP	6	14	[0, 0, 0]	n/a	FR1	1	R1236J
1585.769	1.017	1616221	WORD_OFF	n/a	n/a	SOUP	6	14	[0, 0, 0]	n/a	FR1	1	R1236J
1586.786	1.617	1617238	WORD	n/a	wordpools/wordpool_EN.txt	LAKE	7	14	[0, 0, 0]	n/a	FR1	1	R1236J
1588.403	0.866	1618855	WORD_OFF	n/a	n/a	LAKE	7	14	[0, 0, 0]	n/a	FR1	1	R1236J
1589.269	1.617	1619721	WORD	n/a	wordpools/wordpool_EN.txt	SPONGE	8	14	[0, 0, 0]	n/a	FR1	1	R1236J
1590.886	0.901	1621338	WORD_OFF	n/a	n/a	SPONGE	8	14	[0, 0, 0]	n/a	FR1	1	R1236J
1591.787	1.616	1622239	WORD	n/a	wordpools/wordpool_EN.txt	BOARD	9	14	[0, 0, 0]	n/a	FR1	1	R1236J
1593.403	0.851	1623855	WORD_OFF	n/a	n/a	BOARD	9	14	[0, 0, 0]	n/a	FR1	1	R1236J
1594.254	1.617	1624706	WORD	n/a	wordpools/wordpool_EN.txt	SHRIMP	10	14	[0, 0, 0]	n/a	FR1	1	R1236J
1595.871	0.916	1626323	WORD_OFF	n/a	n/a	SHRIMP	10	14	[0, 0, 0]	n/a	FR1	1	R1236J
1596.787	1.617	1627239	WORD	n/a	wordpools/wordpool_EN.txt	KITE	11	14	[0, 0, 0]	n/a	FR1	1	R1236J
1598.404	0.9	1628856	WORD_OFF	n/a	n/a	KITE	11	14	[0, 0, 0]	n/a	FR1	1	R1236J
1599.304	1.617	1629756	WORD	n/a	wordpools/wordpool_EN.txt	BOAT	12	14	[0, 0, 0]	n/a	FR1	1	R1236J
1600.921	0.0	1631373	WORD_OFF	n/a	n/a	BOAT	12	14	[0, 0, 0]	n/a	FR1	1	R1236J
1600.921	0.001	1631373	DISTRACT_START	n/a	n/a	n/a	-999	14	[0, 0, 0]	n/a	FR1	1	R1236J
1600.922	0.016	1631374	START	n/a	n/a	n/a	-999	14	[-999, -999, -999]	n/a	FR1	1	R1236J
1600.938	7.101	1631390	PROB	7.101	n/a	n/a	-999	14	[9, 6, 9]	24	FR1	1	R1236J
1608.039	7.267	1638491	PROB	7.267	n/a	n/a	-999	14	[5, 8, 6]	19	FR1	1	R1236J
1615.306	3.051	1645758	PROB	3.051	n/a	n/a	-999	14	[5, 1, 5]	11	FR1	1	R1236J
1618.357	3.298	1648809	PROB	3.298	n/a	n/a	-999	14	[2, 6, 5]	13	FR1	1	R1236J
1621.655	0.019	1652107	STOP	n/a	n/a	n/a	-999	14	[-999, -999, -999]	n/a	FR1	1	R1236J
1621.674	0.6	1652126	DISTRACT_END	n/a	n/a	n/a	-999	14	[0, 0, 0]	n/a	FR1	1	R1236J
1622.274	0.517	1652726	RETRIEVAL_ORIENT	n/a	n/a	n/a	-999	14	[0, 0, 0]	n/a	FR1	1	R1236J
1622.791	1.577	1653243	REC_START	n/a	n/a	n/a	-999	14	[0, 0, 0]	n/a	FR1	1	R1236J
1624.368	2.832	1654820	REC_WORD	2.832	n/a	SWAMP	1	14	[0, 0, 0]	n/a	FR1	1	R1236J
1627.2	11.291	1657652	REC_WORD	11.291	n/a	STAR	2	14	[0, 0, 0]	n/a	FR1	1	R1236J
1638.491	14.215	1668943	REC_WORD	14.215	n/a	LAKE	7	14	[0, 0, 0]	n/a	FR1	1	R1236J
1652.706	0.097	1683158	REC_WORD_VV	0.097	n/a	<>	-999	14	[0, 0, 0]	n/a	FR1	1	R1236J
1652.803	5.159	1683255	REC_END	n/a	n/a	n/a	-999	14	[0, 0, 0]	n/a	FR1	1	R1236J
1657.962	0.5	1688414	TRIAL	n/a	n/a	n/a	-999	15	[0, 0, 0]	n/a	FR1	1	R1236J
1658.462	10.428	1688914	COUNTDOWN_START	n/a	n/a	n/a	-999	15	[0, 0, 0]	n/a	FR1	1	R1236J
1668.89	0.006	1699342	COUNTDOWN_END	n/a	n/a	n/a	-999	15	[0, 0, 0]	n/a	FR1	1	R1236J
1668.896	1.617	1699348	ORIENT	n/a	n/a	n/a	-999	15	[0, 0, 0]	n/a	FR1	1	R1236J
1670.513	2.001	1700965	ORIENT_OFF	n/a	n/a	n/a	-999	15	[0, 0, 0]	n/a	FR1	1	R1236J
1672.514	1.617	1702966	WORD	n/a	wordpools/wordpool_EN.txt	WING	1	15	[0, 0, 0]	n/a	FR1	1	R1236J
1674.131	0.866	1704583	WORD_OFF	n/a	n/a	WING	1	15	[0, 0, 0]	n/a	FR1	1	R1236J
1674.997	1.617	1705449	WORD	n/a	wordpools/wordpool_EN.txt	TANK	2	15	[0, 0, 0]	n/a	FR1	1	R1236J
1676.614	0.9	1707066	WORD_OFF	n/a	n/a	TANK	2	15	[0, 0, 0]	n/a	FR1	1	R1236J
1677.514	1.617	1707966	WORD	n/a	wordpools/wordpool_EN.txt	BRANCH	3	15	[0, 0, 0]	n/a	FR1	1	R1236J
1679.131	0.967	1709583	WORD_OFF	n/a	n/a	BRANCH	3	15	[0, 0, 0]	n/a	FR1	1	R1236J
1680.098	1.617	1710550	WORD	n/a	wordpools/wordpool_EN.txt	STEM	4	15	[0, 0, 0]	n/a	FR1	1	R1236J
1681.715	0.817	1712167	WORD_OFF	n/a	n/a	STEM	4	15	[0, 0, 0]	n/a	FR1	1	R1236J
1682.532	1.616	1712984	WORD	n/a	wordpools/wordpool_EN.txt	APE	5	15	[0, 0, 0]	n/a	FR1	1	R1236J
1684.148	0.834	1714600	WORD_OFF	n/a	n/a	APE	5	15	[0, 0, 0]	n/a	FR1	1	R1236J
1684.982	1.617	1715434	WORD	n/a	wordpools/wordpool_EN.txt	TEETH	6	15	[0, 0, 0]	n/a	FR1	1	R1236J
1686.599	0.767	1717051	WORD_OFF	n/a	n/a	TEETH	6	15	[0, 0, 0]	n/a	FR1	1	R1236J
1687.366	1.616	1717818	WORD	n/a	wordpools/wordpool_EN.txt	SEA	7	15	[0, 0, 0]	n/a	FR1	1	R1236J
1688.982	0.867	1719434	WORD_OFF	n/a	n/a	SEA	7	15	[0, 0, 0]	n/a	FR1	1	R1236J
1689.849	1.617	1720301	WORD	n/a	wordpools/wordpool_EN.txt	MILK	8	15	[0, 0, 0]	n/a	FR1	1	R1236J
1691.466	0.9	1721918	WORD_OFF	n/a	n/a	MILK	8	15	[0, 0, 0]	n/a	FR1	1	R1236J
1692.366	1.617	1722818	WORD	n/a	wordpools/wordpool_EN.txt	MOUTH	9	15	[0, 0, 0]	n/a	FR1	1	R1236J
1693.983	0.817	1724435	WORD_OFF	n/a	n/a	MOUTH	9	15	[0, 0, 0]	n/a	FR1	1	R1236J
1694.8	1.617	1725252	WORD	n/a	wordpools/wordpool_EN.txt	BLOOM	10	15	[0, 0, 0]	n/a	FR1	1	R1236J
1696.417	0.85	1726869	WORD_OFF	n/a	n/a	BLOOM	10	15	[0, 0, 0]	n/a	FR1	1	R1236J
1697.267	1.616	1727719	WORD	n/a	wordpools/wordpool_EN.txt	ROOT	11	15	[0, 0, 0]	n/a	FR1	1	R1236J
1698.883	0.767	1729335	WORD_OFF	n/a	n/a	ROOT	11	15	[0, 0, 0]	n/a	FR1	1	R1236J
1699.65	1.617	1730102	WORD	n/a	wordpools/wordpool_EN.txt	TOOTH	12	15	[0, 0, 0]	n/a	FR1	1	R1236J
1701.267	0.0	1731719	WORD_OFF	n/a	n/a	TOOTH	12	15	[0, 0, 0]	n/a	FR1	1	R1236J
1701.267	0.001	1731719	DISTRACT_START	n/a	n/a	n/a	-999	15	[0, 0, 0]	n/a	FR1	1	R1236J
1701.268	0.016	1731720	START	n/a	n/a	n/a	-999	15	[-999, -999, -999]	n/a	FR1	1	R1236J
1701.284	6.501	1731736	PROB	6.501	n/a	n/a	-999	15	[5, 8, 6]	19	FR1	1	R1236J
1707.785	3.517	1738237	PROB	3.517	n/a	n/a	-999	15	[1, 5, 2]	8	FR1	1	R1236J
1711.302	3.184	1741754	PROB	3.184	n/a	n/a	-999	15	[5, 3, 5]	13	FR1	1	R1236J
1714.486	2.817	1744938	PROB	2.817	n/a	n/a	-999	15	[2, 7, 3]	12	FR1	1	R1236J
1717.303	4.066	1747755	PROB	4.066	n/a	n/a	-999	15	[1, 4, 2]	7	FR1	1	R1236J
1721.369	0.018	1751821	STOP	n/a	n/a	n/a	-999	15	[-999, -999, -999]	n/a	FR1	1	R1236J
1721.387	0.6	1751839	DISTRACT_END	n/a	n/a	n/a	-999	15	[0, 0, 0]	n/a	FR1	1	R1236J
1721.987	0.518	1752439	RETRIEVAL_ORIENT	n/a	n/a	n/a	-999	15	[0, 0, 0]	n/a	FR1	1	R1236J
1722.505	1.618	1752957	REC_START	n/a	n/a	n/a	-999	15	[0, 0, 0]	n/a	FR1	1	R1236J
1724.123	2.629	1754575	REC_WORD	2.629	n/a	BRIDGE	-999	15	[0, 0, 0]	n/a	FR1	1	R1236J
1726.752	2.19	1757204	REC_WORD	2.19	n/a	STEM	4	15	[0, 0, 0]	n/a	FR1	1	R1236J
1728.942	3.505	1759394	REC_WORD_VV	3.505	n/a	<>	-999	15	[0, 0, 0]	n/a	FR1	1	R1236J
1732.447	5.426	1762899	REC_WORD	5.426	n/a	BELIEF	-999	15	[0, 0, 0]	n/a	FR1	1	R1236J
1737.873	2.087	1768325	REC_WORD	2.087	n/a	MILK	8	15	[0, 0, 0]	n/a	FR1	1	R1236J
1739.96	12.554	1770412	REC_WORD	12.554	n/a	TOOTH	12	15	[0, 0, 0]	n/a	FR1	1	R1236J
1752.514	6.961	1782966	REC_END	n/a	n/a	n/a	-999	15	[0, 0, 0]	n/a	FR1	1	R1236J
1759.475	0.5	1789927	TRIAL	n/a	n/a	n/a	-999	16	[0, 0, 0]	n/a	FR1	1	R1236J
1759.975	10.428	1790427	COUNTDOWN_START	n/a	n/a	n/a	-999	16	[0, 0, 0]	n/a	FR1	1	R1236J
1770.403	0.006	1800855	COUNTDOWN_END	n/a	n/a	n/a	-999	16	[0, 0, 0]	n/a	FR1	1	R1236J
1770.409	1.617	1800861	ORIENT	n/a	n/a	n/a	-999	16	[0, 0, 0]	n/a	FR1	1	R1236J
1772.026	1.867	1802478	ORIENT_OFF	n/a	n/a	n/a	-999	16	[0, 0, 0]	n/a	FR1	1	R1236J
1773.893	1.617	1804345	WORD	n/a	wordpools/wordpool_EN.txt	TREE	1	16	[0, 0, 0]	n/a	FR1	1	R1236J
1775.51	0.917	1805962	WORD_OFF	n/a	n/a	TREE	1	16	[0, 0, 0]	n/a	FR1	1	R1236J
1776.427	1.617	1806879	WORD	n/a	wordpools/wordpool_EN.txt	CANE	2	16	[0, 0, 0]	n/a	FR1	1	R1236J
1778.044	1.0	1808496	WORD_OFF	n/a	n/a	CANE	2	16	[0, 0, 0]	n/a	FR1	1	R1236J
1779.044	1.617	1809496	WORD	n/a	wordpools/wordpool_EN.txt	PIT	3	16	[0, 0, 0]	n/a	FR1	1	R1236J
1780.661	0.95	1811113	WORD_OFF	n/a	n/a	PIT	3	16	[0, 0, 0]	n/a	FR1	1	R1236J
1781.611	1.617	1812063	WORD	n/a	wordpools/wordpool_EN.txt	LEAF	4	16	[0, 0, 0]	n/a	FR1	1	R1236J
1783.228	0.883	1813680	WORD_OFF	n/a	n/a	LEAF	4	16	[0, 0, 0]	n/a	FR1	1	R1236J
1784.111	1.617	1814563	WORD	n/a	wordpools/wordpool_EN.txt	FRUIT	5	16	[0, 0, 0]	n/a	FR1	1	R1236J
1785.728	0.867	1816180	WORD_OFF	n/a	n/a	FRUIT	5	16	[0, 0, 0]	n/a	FR1	1	R1236J
1786.595	1.617	1817047	WORD	n/a	wordpools/wordpool_EN.txt	BIRD	6	16	[0, 0, 0]	n/a	FR1	1	R1236J
1788.212	0.816	1818664	WORD_OFF	n/a	n/a	BIRD	6	16	[0, 0, 0]	n/a	FR1	1	R1236J
1789.028	1.617	1819480	WORD	n/a	wordpools/wordpool_EN.txt	GRASS	7	16	[0, 0, 0]	n/a	FR1	1	R1236J
1790.645	0.917	1821097	WORD_OFF	n/a	n/a	GRASS	7	16	[0, 0, 0]	n/a	FR1	1	R1236J
1791.562	1.617	1822014	WORD	n/a	wordpools/wordpool_EN.txt	BEAN	8	16	[0, 0, 0]	n/a	FR1	1	R1236J
1793.179	0.917	1823631	WORD_OFF	n/a	n/a	BEAN	8	16	[0, 0, 0]	n/a	FR1	1	R1236J
1794.096	1.617	1824548	WORD	n/a	wordpools/wordpool_EN.txt	SNAKE	9	16	[0, 0, 0]	n/a	FR1	1	R1236J
1795.713	0.817	1826165	WORD_OFF	n/a	n/a	SNAKE	9	16	[0, 0, 0]	n/a	FR1	1	R1236J
1796.53	1.617	1826982	WORD	n/a	wordpools/wordpool_EN.txt	FISH	10	16	[0, 0, 0]	n/a	FR1	1	R1236J
1798.147	0.866	1828599	WORD_OFF	n/a	n/a	FISH	10	16	[0, 0, 0]	n/a	FR1	1	R1236J
1799.013	1.617	1829465	WORD	n/a	wordpools/wordpool_EN.txt	WORLD	11	16	[0, 0, 0]	n/a	FR1	1	R1236J
1800.63	0.933	1831082	WORD_OFF	n/a	n/a	WORLD	11	16	[0, 0, 0]	n/a	FR1	1	R1236J
1801.563	1.617	1832015	WORD	n/a	wordpools/wordpool_EN.txt	RICE	12	16	[0, 0, 0]	n/a	FR1	1	R1236J
1803.18	0.0	1833632	WORD_OFF	n/a	n/a	RICE	12	16	[0, 0, 0]	n/a	FR1	1	R1236J
1803.18	0.001	1833632	DISTRACT_START	n/a	n/a	n/a	-999	16	[0, 0, 0]	n/a	FR1	1	R1236J
1803.181	0.016	1833633	START	n/a	n/a	n/a	-999	16	[-999, -999, -999]	n/a	FR1	1	R1236J
1803.197	6.667	1833649	PROB	6.667	n/a	n/a	-999	16	[9, 2, 7]	18	FR1	1	R1236J
1809.864	4.001	1840316	PROB	4.001	n/a	n/a	-999	16	[8, 3, 7]	18	FR1	1	R1236J
1813.865	4.251	1844317	PROB	4.251	n/a	n/a	-999	16	[9, 5, 3]	17	FR1	1	R1236J
1818.116	4.55	1848568	PROB	4.55	n/a	n/a	-999	16	[7, 3, 6]	16	FR1	1	R1236J
1822.666	3.539	1853118	PROB	3.539	n/a	n/a	-999	16	[2, 8, 6]	16	FR1	1	R1236J
1826.205	0.012	1856657	STOP	n/a	n/a	n/a	-999	16	[-999, -999, -999]	n/a	FR1	1	R1236J
1826.217	0.65	1856669	DISTRACT_END	n/a	n/a	n/a	-999	16	[0, 0, 0]	n/a	FR1	1	R1236J
1826.867	0.517	1857319	RETRIEVAL_ORIENT	n/a	n/a	n/a	-999	16	[0, 0, 0]	n/a	FR1	1	R1236J
1827.384	3.763	1857836	REC_START	n/a	n/a	n/a	-999	16	[0, 0, 0]	n/a	FR1	1	R1236J
1831.147	3.735	1861599	REC_WORD	3.735	n/a	LEAF	4	16	[0, 0, 0]	n/a	FR1	1	R1236J
1834.882	1.658	1865335	REC_WORD	1.658	n/a	PIT	3	16	[0, 0, 0]	n/a	FR1	1	R1236J
1836.54	1.507	1866993	REC_WORD	1.507	n/a	RICE	12	16	[0, 0, 0]	n/a	FR1	1	R1236J
1838.047	7.229	1868500	REC_WORD	7.229	n/a	BIRD	6	16	[0, 0, 0]	n/a	FR1	1	R1236J
1845.276	1.733	1875729	REC_WORD	1.733	n/a	STEM	-999	16	[0, 0, 0]	n/a	FR1	1	R1236J
1847.009	10.387	1877462	REC_WORD	10.387	n/a	BRANCH	-999	16	[0, 0, 0]	n/a	FR1	1	R1236J
1857.396	4.742	1887849	REC_END	n/a	n/a	n/a	-999	16	[0, 0, 0]	n/a	FR1	1	R1236J
1862.138	0.5	1892591	TRIAL	n/a	n/a	n/a	-999	17	[0, 0, 0]	n/a	FR1	1	R1236J
1862.638	10.428	1893091	COUNTDOWN_START	n/a	n/a	n/a	-999	17	[0, 0, 0]	n/a	FR1	1	R1236J
1873.066	0.007	1903519	COUNTDOWN_END	n/a	n/a	n/a	-999	17	[0, 0, 0]	n/a	FR1	1	R1236J
1873.073	1.617	1903526	ORIENT	n/a	n/a	n/a	-999	17	[0, 0, 0]	n/a	FR1	1	R1236J
1874.69	2.25	1905143	ORIENT_OFF	n/a	n/a	n/a	-999	17	[0, 0, 0]	n/a	FR1	1	R1236J
1876.94	1.617	1907393	WORD	n/a	wordpools/wordpool_EN.txt	SMOKE	1	17	[0, 0, 0]	n/a	FR1	1	R1236J
1878.557	0.9	1909010	WORD_OFF	n/a	n/a	SMOKE	1	17	[0, 0, 0]	n/a	FR1	1	R1236J
1879.457	1.617	1909910	WORD	n/a	wordpools/wordpool_EN.txt	BRIDGE	2	17	[0, 0, 0]	n/a	FR1	1	R1236J
1881.074	0.916	1911527	WORD_OFF	n/a	n/a	BRIDGE	2	17	[0, 0, 0]	n/a	FR1	1	R1236J
1881.99	1.617	1912443	WORD	n/a	wordpools/wordpool_EN.txt	FILM	3	17	[0, 0, 0]	n/a	FR1	1	R1236J
1883.607	0.817	1914060	WORD_OFF	n/a	n/a	FILM	3	17	[0, 0, 0]	n/a	FR1	1	R1236J
1884.424	1.617	1914877	WORD	n/a	wordpools/wordpool_EN.txt	PLANE	4	17	[0, 0, 0]	n/a	FR1	1	R1236J
1886.041	0.984	1916494	WORD_OFF	n/a	n/a	PLANE	4	17	[0, 0, 0]	n/a	FR1	1	R1236J
1887.025	1.616	1917478	WORD	n/a	wordpools/wordpool_EN.txt	BLUSH	5	17	[0, 0, 0]	n/a	FR1	1	R1236J
1888.641	0.984	1919094	WORD_OFF	n/a	n/a	BLUSH	5	17	[0, 0, 0]	n/a	FR1	1	R1236J
1889.625	1.616	1920078	WORD	n/a	wordpools/wordpool_EN.txt	BEAR	6	17	[0, 0, 0]	n/a	FR1	1	R1236J
1891.241	0.967	1921694	WORD_OFF	n/a	n/a	BEAR	6	17	[0, 0, 0]	n/a	FR1	1	R1236J
1892.208	1.617	1922661	WORD	n/a	wordpools/wordpool_EN.txt	SCHOOL	7	17	[0, 0, 0]	n/a	FR1	1	R1236J
1893.825	0.867	1924278	WORD_OFF	n/a	n/a	SCHOOL	7	17	[0, 0, 0]	n/a	FR1	1	R1236J
1894.692	1.617	1925145	WORD	n/a	wordpools/wordpool_EN.txt	MAP	8	17	[0, 0, 0]	n/a	FR1	1	R1236J
1896.309	0.9	1926762	WORD_OFF	n/a	n/a	MAP	8	17	[0, 0, 0]	n/a	FR1	1	R1236J
1897.209	1.617	1927662	WORD	n/a	wordpools/wordpool_EN.txt	PRINCE	9	17	[0, 0, 0]	n/a	FR1	1	R1236J
1898.826	1.017	1929279	WORD_OFF	n/a	n/a	PRINCE	9	17	[0, 0, 0]	n/a	FR1	1	R1236J
1899.843	1.617	1930296	WORD	n/a	wordpools/wordpool_EN.txt	HEART	10	17	[0, 0, 0]	n/a	FR1	1	R1236J
1901.46	0.783	1931913	WORD_OFF	n/a	n/a	HEART	10	17	[0, 0, 0]	n/a	FR1	1	R1236J
1902.243	1.617	1932696	WORD	n/a	wordpools/wordpool_EN.txt	CASH	11	17	[0, 0, 0]	n/a	FR1	1	R1236J
1903.86	0.983	1934313	WORD_OFF	n/a	n/a	CASH	11	17	[0, 0, 0]	n/a	FR1	1	R1236J
1904.843	1.617	1935296	WORD	n/a	wordpools/wordpool_EN.txt	JET	12	17	[0, 0, 0]	n/a	FR1	1	R1236J
1906.46	0.0	1936913	WORD_OFF	n/a	n/a	JET	12	17	[0, 0, 0]	n/a	FR1	1	R1236J
1906.46	0.001	1936913	DISTRACT_START	n/a	n/a	n/a	-999	17	[0, 0, 0]	n/a	FR1	1	R1236J
1906.461	0.016	1936914	START	n/a	n/a	n/a	-999	17	[-999, -999, -999]	n/a	FR1	1	R1236J
1906.477	4.084	1936930	PROB	4.084	n/a	n/a	-999	17	[2, 4, 8]	14	FR1	1	R1236J
1910.561	3.45	1941014	PROB	3.45	n/a	n/a	-999	17	[1, 1, 8]	10	FR1	1	R1236J
1914.011	6.901	1944464	PROB	6.901	n/a	n/a	-999	17	[4, 7, 6]	17	FR1	1	R1236J
1920.912	2.667	1951365	PROB	2.667	n/a	n/a	-999	17	[8, 2, 1]	11	FR1	1	R1236J
1923.579	3.83	1954032	PROB	3.83	n/a	n/a	-999	17	[5, 5, 9]	19	FR1	1	R1236J
1927.409	0.021	1957862	STOP	n/a	n/a	n/a	-999	17	[-999, -999, -999]	n/a	FR1	1	R1236J
1927.43	0.633	1957883	DISTRACT_END	n/a	n/a	n/a	-999	17	[0, 0, 0]	n/a	FR1	1	R1236J
1928.063	0.517	1958516	RETRIEVAL_ORIENT	n/a	n/a	n/a	-999	17	[0, 0, 0]	n/a	FR1	1	R1236J
1928.58	12.28	1959033	REC_START	n/a	n/a	n/a	-999	17	[0, 0, 0]	n/a	FR1	1	R1236J
1940.86	0.393	1971313	REC_WORD_VV	0.393	n/a	<>	-999	17	[0, 0, 0]	n/a	FR1	1	R1236J
1941.253	3.472	1971706	REC_WORD	3.472	n/a	PLANE	4	17	[0, 0, 0]	n/a	FR1	1	R1236J
1944.725	3.298	1975178	REC_WORD	3.298	n/a	SCHOOL	7	17	[0, 0, 0]	n/a	FR1	1	R1236J
1948.023	1.793	1978476	REC_WORD	1.793	n/a	CASH	11	17	[0, 0, 0]	n/a	FR1	1	R1236J
1949.816	8.776	1980269	REC_WORD	8.776	n/a	SMOKE	1	17	[0, 0, 0]	n/a	FR1	1	R1236J
1958.592	5.526	1989045	REC_END	n/a	n/a	n/a	-999	17	[0, 0, 0]	n/a	FR1	1	R1236J
1964.118	0.5	1994571	TRIAL	n/a	n/a	n/a	-999	18	[0, 0, 0]	n/a	FR1	1	R1236J
1964.618	10.428	1995071	COUNTDOWN_START	n/a	n/a	n/a	-999	18	[0, 0, 0]	n/a	FR1	1	R1236J
1975.046	0.006	2005499	COUNTDOWN_END	n/a	n/a	n/a	-999	18	[0, 0, 0]	n/a	FR1	1	R1236J
1975.052	1.617	2005505	ORIENT	n/a	n/a	n/a	-999	18	[0, 0, 0]	n/a	FR1	1	R1236J
1976.669	2.117	2007122	ORIENT_OFF	n/a	n/a	n/a	-999	18	[0, 0, 0]	n/a	FR1	1	R1236J
1978.786	1.617	2009239	WORD	n/a	wordpools/wordpool_EN.txt	STOOL	1	18	[0, 0, 0]	n/a	FR1	1	R1236J
1980.403	0.983	2010856	WORD_OFF	n/a	n/a	STOOL	1	18	[0, 0, 0]	n/a	FR1	1	R1236J
1981.386	1.617	2011839	WORD	n/a	wordpools/wordpool_EN.txt	THREAD	2	18	[0, 0, 0]	n/a	FR1	1	R1236J
1983.003	0.951	2013456	WORD_OFF	n/a	n/a	THREAD	2	18	[0, 0, 0]	n/a	FR1	1	R1236J
1983.954	1.616	2014407	WORD	n/a	wordpools/wordpool_EN.txt	STREET	3	18	[0, 0, 0]	n/a	FR1	1	R1236J
1985.57	0.784	2016023	WORD_OFF	n/a	n/a	STREET	3	18	[0, 0, 0]	n/a	FR1	1	R1236J
1986.354	1.617	2016807	WORD	n/a	wordpools/wordpool_EN.txt	SLIME	4	18	[0, 0, 0]	n/a	FR1	1	R1236J
1987.971	0.966	2018424	WORD_OFF	n/a	n/a	SLIME	4	18	[0, 0, 0]	n/a	FR1	1	R1236J
1988.937	1.617	2019390	WORD	n/a	wordpools/wordpool_EN.txt	DOLL	5	18	[0, 0, 0]	n/a	FR1	1	R1236J
1990.554	0.8	2021007	WORD_OFF	n/a	n/a	DOLL	5	18	[0, 0, 0]	n/a	FR1	1	R1236J
1991.354	1.617	2021807	WORD	n/a	wordpools/wordpool_EN.txt	GOLD	6	18	[0, 0, 0]	n/a	FR1	1	R1236J
1992.971	0.767	2023424	WORD_OFF	n/a	n/a	GOLD	6	18	[0, 0, 0]	n/a	FR1	1	R1236J
1993.738	1.617	2024191	WORD	n/a	wordpools/wordpool_EN.txt	SHOE	7	18	[0, 0, 0]	n/a	FR1	1	R1236J
1995.355	0.884	2025808	WORD_OFF	n/a	n/a	SHOE	7	18	[0, 0, 0]	n/a	FR1	1	R1236J
1996.239	1.616	2026692	WORD	n/a	wordpools/wordpool_EN.txt	GEESE	8	18	[0, 0, 0]	n/a	FR1	1	R1236J
1997.855	0.784	2028308	WORD_OFF	n/a	n/a	GEESE	8	18	[0, 0, 0]	n/a	FR1	1	R1236J
1998.639	1.616	2029092	WORD	n/a	wordpools/wordpool_EN.txt	DESK	9	18	[0, 0, 0]	n/a	FR1	1	R1236J
2000.255	0.834	2030708	WORD_OFF	n/a	n/a	DESK	9	18	[0, 0, 0]	n/a	FR1	1	R1236J
2001.089	1.617	2031542	WORD	n/a	wordpools/wordpool_EN.txt	SEAT	10	18	[0, 0, 0]	n/a	FR1	1	R1236J
2002.706	0.817	2033159	WORD_OFF	n/a	n/a	SEAT	10	18	[0, 0, 0]	n/a	FR1	1	R1236J
2003.523	1.617	2033976	WORD	n/a	wordpools/wordpool_EN.txt	BENCH	11	18	[0, 0, 0]	n/a	FR1	1	R1236J
2005.14	0.866	2035593	WORD_OFF	n/a	n/a	BENCH	11	18	[0, 0, 0]	n/a	FR1	1	R1236J
2006.006	1.617	2036459	WORD	n/a	wordpools/wordpool_EN.txt	HAT	12	18	[0, 0, 0]	n/a	FR1	1	R1236J
2007.623	0.0	2038076	WORD_OFF	n/a	n/a	HAT	12	18	[0, 0, 0]	n/a	FR1	1	R1236J
2007.623	0.001	2038076	DISTRACT_START	n/a	n/a	n/a	-999	18	[0, 0, 0]	n/a	FR1	1	R1236J
2007.624	0.016	2038077	START	n/a	n/a	n/a	-999	18	[-999, -999, -999]	n/a	FR1	1	R1236J
2007.64	4.65	2038093	PROB	4.65	n/a	n/a	-999	18	[7, 9, 6]	22	FR1	1	R1236J
2012.29	3.451	2042743	PROB	3.451	n/a	n/a	-999	18	[5, 1, 4]	10	FR1	1	R1236J
2015.741	8.334	2046194	PROB	8.334	n/a	n/a	-999	18	[6, 1, 5]	12	FR1	1	R1236J
2024.075	3.786	2054528	PROB	3.786	n/a	n/a	-999	18	[5, 7, 1]	13	FR1	1	R1236J
2027.861	0.015	2058314	STOP	n/a	n/a	n/a	-999	18	[-999, -999, -999]	n/a	FR1	1	R1236J
2027.876	0.633	2058329	DISTRACT_END	n/a	n/a	n/a	-999	18	[0, 0, 0]	n/a	FR1	1	R1236J
2028.509	0.518	2058962	RETRIEVAL_ORIENT	n/a	n/a	n/a	-999	18	[0, 0, 0]	n/a	FR1	1	R1236J
2029.027	2.769	2059480	REC_START	n/a	n/a	n/a	-999	18	[0, 0, 0]	n/a	FR1	1	R1236J
2031.796	1.0	2062249	REC_WORD	1.0	n/a	SLIME	4	18	[0, 0, 0]	n/a	FR1	1	R1236J
2032.796	6.686	2063249	REC_WORD_VV	6.686	n/a	<>	-999	18	[0, 0, 0]	n/a	FR1	1	R1236J
2039.482	1.082	2069935	REC_WORD	1.082	n/a	BENCH	11	18	[0, 0, 0]	n/a	FR1	1	R1236J
2040.564	3.781	2071017	REC_WORD	3.781	n/a	STOOL	1	18	[0, 0, 0]	n/a	FR1	1	R1236J
2044.345	1.487	2074798	REC_WORD	1.487	n/a	SEAT	10	18	[0, 0, 0]	n/a	FR1	1	R1236J
2045.832	7.122	2076285	REC_WORD	7.122	n/a	DESK	9	18	[0, 0, 0]	n/a	FR1	1	R1236J
2052.954	3.351	2083407	REC_WORD	3.351	n/a	THREAD	2	18	[0, 0, 0]	n/a	FR1	1	R1236J
2056.305	2.733	2086758	REC_WORD	2.733	n/a	MAP	-999	18	[0, 0, 0]	n/a	FR1	1	R1236J
2059.038	5.376	2089491	REC_END	n/a	n/a	n/a	-999	18	[0, 0, 0]	n/a	FR1	1	R1236J
2064.414	0.5	2094867	TRIAL	n/a	n/a	n/a	-999	19	[0, 0, 0]	n/a	FR1	1	R1236J
2064.914	10.428	2095367	COUNTDOWN_START	n/a	n/a	n/a	-999	19	[0, 0, 0]	n/a	FR1	1	R1236J
2075.342	0.007	2105795	COUNTDOWN_END	n/a	n/a	n/a	-999	19	[0, 0, 0]	n/a	FR1	1	R1236J
2075.349	1.617	2105802	ORIENT	n/a	n/a	n/a	-999	19	[0, 0, 0]	n/a	FR1	1	R1236J
2076.966	2.149	2107419	ORIENT_OFF	n/a	n/a	n/a	-999	19	[0, 0, 0]	n/a	FR1	1	R1236J
2079.115	1.617	2109568	WORD	n/a	wordpools/wordpool_EN.txt	PARK	1	19	[0, 0, 0]	n/a	FR1	1	R1236J
2080.732	0.984	2111185	WORD_OFF	n/a	n/a	PARK	1	19	[0, 0, 0]	n/a	FR1	1	R1236J
2081.716	1.617	2112169	WORD	n/a	wordpools/wordpool_EN.txt	BADGE	2	19	[0, 0, 0]	n/a	FR1	1	R1236J
2083.333	1.0	2113786	WORD_OFF	n/a	n/a	BADGE	2	19	[0, 0, 0]	n/a	FR1	1	R1236J
2084.333	1.617	2114786	WORD	n/a	wordpools/wordpool_EN.txt	HORN	3	19	[0, 0, 0]	n/a	FR1	1	R1236J
2085.95	0.816	2116403	WORD_OFF	n/a	n/a	HORN	3	19	[0, 0, 0]	n/a	FR1	1	R1236J
2086.766	1.601	2117219	WORD	n/a	wordpools/wordpool_EN.txt	POND	4	19	[0, 0, 0]	n/a	FR1	1	R1236J
2088.367	0.9	2118820	WORD_OFF	n/a	n/a	POND	4	19	[0, 0, 0]	n/a	FR1	1	R1236J
2089.267	1.617	2119720	WORD	n/a	wordpools/wordpool_EN.txt	DUCK	5	19	[0, 0, 0]	n/a	FR1	1	R1236J
2090.884	0.817	2121337	WORD_OFF	n/a	n/a	DUCK	5	19	[0, 0, 0]	n/a	FR1	1	R1236J
2091.701	1.616	2122154	WORD	n/a	wordpools/wordpool_EN.txt	OWL	6	19	[0, 0, 0]	n/a	FR1	1	R1236J
2093.317	0.767	2123770	WORD_OFF	n/a	n/a	OWL	6	19	[0, 0, 0]	n/a	FR1	1	R1236J
2094.084	1.617	2124537	WORD	n/a	wordpools/wordpool_EN.txt	ZOO	7	19	[0, 0, 0]	n/a	FR1	1	R1236J
2095.701	0.834	2126154	WORD_OFF	n/a	n/a	ZOO	7	19	[0, 0, 0]	n/a	FR1	1	R1236J
2096.535	1.617	2126988	WORD	n/a	wordpools/wordpool_EN.txt	DEER	8	19	[0, 0, 0]	n/a	FR1	1	R1236J
2098.152	0.949	2128605	WORD_OFF	n/a	n/a	DEER	8	19	[0, 0, 0]	n/a	FR1	1	R1236J
2099.101	1.617	2129554	WORD	n/a	wordpools/wordpool_EN.txt	SKI	9	19	[0, 0, 0]	n/a	FR1	1	R1236J
2100.718	0.95	2131171	WORD_OFF	n/a	n/a	SKI	9	19	[0, 0, 0]	n/a	FR1	1	R1236J
2101.668	1.617	2132121	WORD	n/a	wordpools/wordpool_EN.txt	WOLF	10	19	[0, 0, 0]	n/a	FR1	1	R1236J
2103.285	0.85	2133738	WORD_OFF	n/a	n/a	WOLF	10	19	[0, 0, 0]	n/a	FR1	1	R1236J
2104.135	1.617	2134588	WORD	n/a	wordpools/wordpool_EN.txt	WHALE	11	19	[0, 0, 0]	n/a	FR1	1	R1236J
2105.752	0.834	2136205	WORD_OFF	n/a	n/a	WHALE	11	19	[0, 0, 0]	n/a	FR1	1	R1236J
2106.586	1.617	2137039	WORD	n/a	wordpools/wordpool_EN.txt	CHALK	12	19	[0, 0, 0]	n/a	FR1	1	R1236J
2108.203	0.0	2138656	WORD_OFF	n/a	n/a	CHALK	12	19	[0, 0, 0]	n/a	FR1	1	R1236J
2108.203	0.001	2138656	DISTRACT_START	n/a	n/a	n/a	-999	19	[0, 0, 0]	n/a	FR1	1	R1236J
2108.204	0.016	2138657	START	n/a	n/a	n/a	-999	19	[-999, -999, -999]	n/a	FR1	1	R1236J
2108.22	9.051	2138673	PROB	9.051	n/a	n/a	-999	19	[7, 5, 8]	20	FR1	1	R1236J
2117.271	4.617	2147724	PROB	4.617	n/a	n/a	-999	19	[7, 4, 2]	13	FR1	1	R1236J
2121.888	5.317	2152341	PROB	5.317	n/a	n/a	-999	19	[4, 2, 4]	10	FR1	1	R1236J
2127.205	4.067	2157658	PROB	4.067	n/a	n/a	-999	19	[1, 3, 6]	10	FR1	1	R1236J
2131.272	0.017	2161725	STOP	n/a	n/a	n/a	-999	19	[-999, -999, -999]	n/a	FR1	1	R1236J
2131.289	0.633	2161742	DISTRACT_END	n/a	n/a	n/a	-999	19	[0, 0, 0]	n/a	FR1	1	R1236J
2131.922	0.517	2162375	RETRIEVAL_ORIENT	n/a	n/a	n/a	-999	19	[0, 0, 0]	n/a	FR1	1	R1236J
2132.439	1.769	2162892	REC_START	n/a	n/a	n/a	-999	19	[0, 0, 0]	n/a	FR1	1	R1236J
2134.208	1.294	2164661	REC_WORD	1.294	n/a	ZOO	7	19	[0, 0, 0]	n/a	FR1	1	R1236J
2135.502	26.947	2165955	REC_WORD	26.947	n/a	WHALE	11	19	[0, 0, 0]	n/a	FR1	1	R1236J
2162.449	18.362	2192902	REC_END	n/a	n/a	n/a	-999	19	[0, 0, 0]	n/a	FR1	1	R1236J
2180.811	0.5	2211264	TRIAL	n/a	n/a	n/a	-999	20	[0, 0, 0]	n/a	FR1	1	R1236J
2181.311	10.428	2211764	COUNTDOWN_START	n/a	n/a	n/a	-999	20	[0, 0, 0]	n/a	FR1	1	R1236J
2191.739	0.008	2222192	COUNTDOWN_END	n/a	n/a	n/a	-999	20	[0, 0, 0]	n/a	FR1	1	R1236J
2191.747	1.617	2222200	ORIENT	n/a	n/a	n/a	-999	20	[0, 0, 0]	n/a	FR1	1	R1236J
2193.364	2.017	2223817	ORIENT_OFF	n/a	n/a	n/a	-999	20	[0, 0, 0]	n/a	FR1	1	R1236J
2195.381	1.616	2225834	WORD	n/a	wordpools/wordpool_EN.txt	DRESS	1	20	[0, 0, 0]	n/a	FR1	1	R1236J
2196.997	0.801	2227450	WORD_OFF	n/a	n/a	DRESS	1	20	[0, 0, 0]	n/a	FR1	1	R1236J
2197.798	1.616	2228251	WORD	n/a	wordpools/wordpool_EN.txt	WAVE	2	20	[0, 0, 0]	n/a	FR1	1	R1236J
2199.414	0.917	2229867	WORD_OFF	n/a	n/a	WAVE	2	20	[0, 0, 0]	n/a	FR1	1	R1236J
2200.331	1.617	2230784	WORD	n/a	wordpools/wordpool_EN.txt	SHARK	3	20	[0, 0, 0]	n/a	FR1	1	R1236J
2201.948	0.833	2232401	WORD_OFF	n/a	n/a	SHARK	3	20	[0, 0, 0]	n/a	FR1	1	R1236J
2202.781	1.617	2233234	WORD	n/a	wordpools/wordpool_EN.txt	GLASS	4	20	[0, 0, 0]	n/a	FR1	1	R1236J
2204.398	0.817	2234851	WORD_OFF	n/a	n/a	GLASS	4	20	[0, 0, 0]	n/a	FR1	1	R1236J
2205.215	1.617	2235668	WORD	n/a	wordpools/wordpool_EN.txt	SNAIL	5	20	[0, 0, 0]	n/a	FR1	1	R1236J
2206.832	0.867	2237285	WORD_OFF	n/a	n/a	SNAIL	5	20	[0, 0, 0]	n/a	FR1	1	R1236J
2207.699	1.616	2238152	WORD	n/a	wordpools/wordpool_EN.txt	CLOCK	6	20	[0, 0, 0]	n/a	FR1	1	R1236J
2209.315	0.801	2239768	WORD_OFF	n/a	n/a	CLOCK	6	20	[0, 0, 0]	n/a	FR1	1	R1236J
2210.116	1.616	2240569	WORD	n/a	wordpools/wordpool_EN.txt	SIGN	7	20	[0, 0, 0]	n/a	FR1	1	R1236J
2211.732	0.984	2242185	WORD_OFF	n/a	n/a	SIGN	7	20	[0, 0, 0]	n/a	FR1	1	R1236J
2212.716	1.617	2243169	WORD	n/a	wordpools/wordpool_EN.txt	PANTS	8	20	[0, 0, 0]	n/a	FR1	1	R1236J
2214.333	0.983	2244786	WORD_OFF	n/a	n/a	PANTS	8	20	[0, 0, 0]	n/a	FR1	1	R1236J
2215.316	1.617	2245769	WORD	n/a	wordpools/wordpool_EN.txt	SEAL	9	20	[0, 0, 0]	n/a	FR1	1	R1236J
2216.933	0.867	2247386	WORD_OFF	n/a	n/a	SEAL	9	20	[0, 0, 0]	n/a	FR1	1	R1236J
2217.8	1.617	2248253	WORD	n/a	wordpools/wordpool_EN.txt	ROCK	10	20	[0, 0, 0]	n/a	FR1	1	R1236J
2219.417	0.883	2249870	WORD_OFF	n/a	n/a	ROCK	10	20	[0, 0, 0]	n/a	FR1	1	R1236J
2220.3	1.617	2250753	WORD	n/a	wordpools/wordpool_EN.txt	FORK	11	20	[0, 0, 0]	n/a	FR1	1	R1236J
2221.917	0.817	2252370	WORD_OFF	n/a	n/a	FORK	11	20	[0, 0, 0]	n/a	FR1	1	R1236J
2222.734	1.617	2253187	WORD	n/a	wordpools/wordpool_EN.txt	BEACH	12	20	[0, 0, 0]	n/a	FR1	1	R1236J
2224.351	0.0	2254804	WORD_OFF	n/a	n/a	BEACH	12	20	[0, 0, 0]	n/a	FR1	1	R1236J
2224.351	0.001	2254804	DISTRACT_START	n/a	n/a	n/a	-999	20	[0, 0, 0]	n/a	FR1	1	R1236J
2224.352	0.015	2254805	START	n/a	n/a	n/a	-999	20	[-999, -999, -999]	n/a	FR1	1	R1236J
2224.367	7.451	2254820	PROB	7.451	n/a	n/a	-999	20	[5, 8, 4]	17	FR1	1	R1236J
2231.818	3.234	2262271	PROB	3.234	n/a	n/a	-999	20	[9, 3, 9]	21	FR1	1	R1236J
2235.052	2.601	2265505	PROB	2.601	n/a	n/a	-999	20	[8, 1, 2]	11	FR1	1	R1236J
2237.653	4.083	2268106	PROB	4.083	n/a	n/a	-999	20	[5, 2, 2]	9	FR1	1	R1236J
2241.736	6.372	2272189	PROB	6.372	n/a	n/a	-999	20	[4, 5, 8]	17	FR1	1	R1236J
2248.108	0.013	2278561	STOP	n/a	n/a	n/a	-999	20	[-999, -999, -999]	n/a	FR1	1	R1236J
2248.121	0.649	2278574	DISTRACT_END	n/a	n/a	n/a	-999	20	[0, 0, 0]	n/a	FR1	1	R1236J
2248.77	0.519	2279223	RETRIEVAL_ORIENT	n/a	n/a	n/a	-999	20	[0, 0, 0]	n/a	FR1	1	R1236J
2249.289	1.591	2279742	REC_START	n/a	n/a	n/a	-999	20	[0, 0, 0]	n/a	FR1	1	R1236J
2250.88	0.988	2281333	REC_WORD	0.988	n/a	LEAF	-999	20	[0, 0, 0]	n/a	FR1	1	R1236J
2251.868	14.262	2282321	REC_WORD	14.262	n/a	SHARK	3	20	[0, 0, 0]	n/a	FR1	1	R1236J
2266.13	2.787	2296583	REC_WORD	2.787	n/a	SAND	-999	20	[0, 0, 0]	n/a	FR1	1	R1236J
2268.917	1.67	2299370	REC_WORD	1.67	n/a	DRESS	1	20	[0, 0, 0]	n/a	FR1	1	R1236J
2270.587	8.712	2301040	REC_WORD	8.712	n/a	PANTS	8	20	[0, 0, 0]	n/a	FR1	1	R1236J
2279.299	7.793	2309752	REC_END	n/a	n/a	n/a	-999	20	[0, 0, 0]	n/a	FR1	1	R1236J
2287.092	0.5	2317545	TRIAL	n/a	n/a	n/a	-999	21	[0, 0, 0]	n/a	FR1	1	R1236J
2287.592	10.428	2318045	COUNTDOWN_START	n/a	n/a	n/a	-999	21	[0, 0, 0]	n/a	FR1	1	R1236J
2298.02	0.007	2328474	COUNTDOWN_END	n/a	n/a	n/a	-999	21	[0, 0, 0]	n/a	FR1	1	R1236J
2298.027	1.617	2328481	ORIENT	n/a	n/a	n/a	-999	21	[0, 0, 0]	n/a	FR1	1	R1236J
2299.644	1.933	2330098	ORIENT_OFF	n/a	n/a	n/a	-999	21	[0, 0, 0]	n/a	FR1	1	R1236J
2301.577	1.617	2332031	WORD	n/a	wordpools/wordpool_EN.txt	DOG	1	21	[0, 0, 0]	n/a	FR1	1	R1236J
2303.194	0.967	2333648	WORD_OFF	n/a	n/a	DOG	1	21	[0, 0, 0]	n/a	FR1	1	R1236J
2304.161	1.617	2334615	WORD	n/a	wordpools/wordpool_EN.txt	CAVE	2	21	[0, 0, 0]	n/a	FR1	1	R1236J
2305.778	0.967	2336232	WORD_OFF	n/a	n/a	CAVE	2	21	[0, 0, 0]	n/a	FR1	1	R1236J
2306.745	1.617	2337199	WORD	n/a	wordpools/wordpool_EN.txt	STRAW	3	21	[0, 0, 0]	n/a	FR1	1	R1236J
2308.362	0.9	2338816	WORD_OFF	n/a	n/a	STRAW	3	21	[0, 0, 0]	n/a	FR1	1	R1236J
2309.262	1.616	2339716	WORD	n/a	wordpools/wordpool_EN.txt	TAIL	4	21	[0, 0, 0]	n/a	FR1	1	R1236J
2310.878	0.901	2341332	WORD_OFF	n/a	n/a	TAIL	4	21	[0, 0, 0]	n/a	FR1	1	R1236J
2311.779	1.617	2342233	WORD	n/a	wordpools/wordpool_EN.txt	CLIFF	5	21	[0, 0, 0]	n/a	FR1	1	R1236J
2313.396	0.966	2343850	WORD_OFF	n/a	n/a	CLIFF	5	21	[0, 0, 0]	n/a	FR1	1	R1236J
2314.362	1.617	2344816	WORD	n/a	wordpools/wordpool_EN.txt	MUD	6	21	[0, 0, 0]	n/a	FR1	1	R1236J
2315.979	0.784	2346433	WORD_OFF	n/a	n/a	MUD	6	21	[0, 0, 0]	n/a	FR1	1	R1236J
2316.763	1.617	2347217	WORD	n/a	wordpools/wordpool_EN.txt	COW	7	21	[0, 0, 0]	n/a	FR1	1	R1236J
2318.38	0.866	2348834	WORD_OFF	n/a	n/a	COW	7	21	[0, 0, 0]	n/a	FR1	1	R1236J
2319.246	1.617	2349700	WORD	n/a	wordpools/wordpool_EN.txt	CORN	8	21	[0, 0, 0]	n/a	FR1	1	R1236J
2320.863	0.783	2351317	WORD_OFF	n/a	n/a	CORN	8	21	[0, 0, 0]	n/a	FR1	1	R1236J
2321.646	1.617	2352100	WORD	n/a	wordpools/wordpool_EN.txt	LAMB	9	21	[0, 0, 0]	n/a	FR1	1	R1236J
2323.263	0.884	2353717	WORD_OFF	n/a	n/a	LAMB	9	21	[0, 0, 0]	n/a	FR1	1	R1236J
2324.147	1.617	2354601	WORD	n/a	wordpools/wordpool_EN.txt	WEED	10	21	[0, 0, 0]	n/a	FR1	1	R1236J
2325.764	0.9	2356218	WORD_OFF	n/a	n/a	WEED	10	21	[0, 0, 0]	n/a	FR1	1	R1236J
2326.664	1.617	2357118	WORD	n/a	wordpools/wordpool_EN.txt	GOAT	11	21	[0, 0, 0]	n/a	FR1	1	R1236J
2328.281	0.866	2358735	WORD_OFF	n/a	n/a	GOAT	11	21	[0, 0, 0]	n/a	FR1	1	R1236J
2329.147	1.617	2359601	WORD	n/a	wordpools/wordpool_EN.txt	FUR	12	21	[0, 0, 0]	n/a	FR1	1	R1236J
2330.764	0.0	2361218	WORD_OFF	n/a	n/a	FUR	12	21	[0, 0, 0]	n/a	FR1	1	R1236J
2330.764	0.001	2361218	DISTRACT_START	n/a	n/a	n/a	-999	21	[0, 0, 0]	n/a	FR1	1	R1236J
2330.765	0.016	2361219	START	n/a	n/a	n/a	-999	21	[-999, -999, -999]	n/a	FR1	1	R1236J
2330.781	3.751	2361235	PROB	3.751	n/a	n/a	-999	21	[5, 7, 3]	15	FR1	1	R1236J
2334.532	4.867	2364986	PROB	4.867	n/a	n/a	-999	21	[9, 2, 7]	18	FR1	1	R1236J
2339.399	4.651	2369853	PROB	4.651	n/a	n/a	-999	21	[4, 3, 8]	15	FR1	1	R1236J
2344.05	8.181	2374504	PROB	8.181	n/a	n/a	-999	21	[9, 7, 6]	22	FR1	1	R1236J
2352.231	0.019	2382685	STOP	n/a	n/a	n/a	-999	21	[-999, -999, -999]	n/a	FR1	1	R1236J
2352.25	0.667	2382704	DISTRACT_END	n/a	n/a	n/a	-999	21	[0, 0, 0]	n/a	FR1	1	R1236J
2352.917	0.518	2383371	RETRIEVAL_ORIENT	n/a	n/a	n/a	-999	21	[0, 0, 0]	n/a	FR1	1	R1236J
2353.435	2.244	2383889	REC_START	n/a	n/a	n/a	-999	21	[0, 0, 0]	n/a	FR1	1	R1236J
2355.679	1.474	2386133	REC_WORD	1.474	n/a	DOG	1	21	[0, 0, 0]	n/a	FR1	1	R1236J
2357.153	1.392	2387607	REC_WORD	1.392	n/a	CLIFF	5	21	[0, 0, 0]	n/a	FR1	1	R1236J
2358.545	2.901	2388999	REC_WORD	2.901	n/a	CAGE	-999	21	[0, 0, 0]	n/a	FR1	1	R1236J
2361.446	1.346	2391900	REC_WORD	1.346	n/a	MUD	6	21	[0, 0, 0]	n/a	FR1	1	R1236J
2362.792	10.645	2393246	REC_WORD	10.645	n/a	STRAW	3	21	[0, 0, 0]	n/a	FR1	1	R1236J
2373.437	10.009	2403891	REC_WORD	10.009	n/a	TAIL	4	21	[0, 0, 0]	n/a	FR1	1	R1236J
2383.446	4.176	2413900	REC_END	n/a	n/a	n/a	-999	21	[0, 0, 0]	n/a	FR1	1	R1236J
2387.622	0.5	2418076	TRIAL	n/a	n/a	n/a	-999	22	[0, 0, 0]	n/a	FR1	1	R1236J
2388.122	10.428	2418576	COUNTDOWN_START	n/a	n/a	n/a	-999	22	[0, 0, 0]	n/a	FR1	1	R1236J
2398.55	0.006	2429004	COUNTDOWN_END	n/a	n/a	n/a	-999	22	[0, 0, 0]	n/a	FR1	1	R1236J
2398.556	1.617	2429010	ORIENT	n/a	n/a	n/a	-999	22	[0, 0, 0]	n/a	FR1	1	R1236J
2400.173	2.034	2430627	ORIENT_OFF	n/a	n/a	n/a	-999	22	[0, 0, 0]	n/a	FR1	1	R1236J
2402.207	1.617	2432661	WORD	n/a	wordpools/wordpool_EN.txt	ROSE	1	22	[0, 0, 0]	n/a	FR1	1	R1236J
2403.824	0.9	2434278	WORD_OFF	n/a	n/a	ROSE	1	22	[0, 0, 0]	n/a	FR1	1	R1236J
2404.724	1.617	2435178	WORD	n/a	wordpools/wordpool_EN.txt	LEG	2	22	[0, 0, 0]	n/a	FR1	1	R1236J
2406.341	0.8	2436795	WORD_OFF	n/a	n/a	LEG	2	22	[0, 0, 0]	n/a	FR1	1	R1236J
2407.141	1.616	2437595	WORD	n/a	wordpools/wordpool_EN.txt	STICK	3	22	[0, 0, 0]	n/a	FR1	1	R1236J
2408.757	0.851	2439211	WORD_OFF	n/a	n/a	STICK	3	22	[0, 0, 0]	n/a	FR1	1	R1236J
2409.608	1.617	2440062	WORD	n/a	wordpools/wordpool_EN.txt	DOOR	4	22	[0, 0, 0]	n/a	FR1	1	R1236J
2411.225	0.9	2441679	WORD_OFF	n/a	n/a	DOOR	4	22	[0, 0, 0]	n/a	FR1	1	R1236J
2412.125	1.617	2442579	WORD	n/a	wordpools/wordpool_EN.txt	TOY	5	22	[0, 0, 0]	n/a	FR1	1	R1236J
2413.742	0.766	2444196	WORD_OFF	n/a	n/a	TOY	5	22	[0, 0, 0]	n/a	FR1	1	R1236J
2414.508	1.617	2444962	WORD	n/a	wordpools/wordpool_EN.txt	POOL	6	22	[0, 0, 0]	n/a	FR1	1	R1236J
2416.125	0.801	2446579	WORD_OFF	n/a	n/a	POOL	6	22	[0, 0, 0]	n/a	FR1	1	R1236J
2416.926	1.616	2447380	WORD	n/a	wordpools/wordpool_EN.txt	PIPE	7	22	[0, 0, 0]	n/a	FR1	1	R1236J
2418.542	0.934	2448996	WORD_OFF	n/a	n/a	PIPE	7	22	[0, 0, 0]	n/a	FR1	1	R1236J
2419.476	1.617	2449930	WORD	n/a	wordpools/wordpool_EN.txt	CHEEK	8	22	[0, 0, 0]	n/a	FR1	1	R1236J
2421.093	0.95	2451547	WORD_OFF	n/a	n/a	CHEEK	8	22	[0, 0, 0]	n/a	FR1	1	R1236J
2422.043	1.617	2452497	WORD	n/a	wordpools/wordpool_EN.txt	TRAY	9	22	[0, 0, 0]	n/a	FR1	1	R1236J
2423.66	0.8	2454114	WORD_OFF	n/a	n/a	TRAY	9	22	[0, 0, 0]	n/a	FR1	1	R1236J
2424.46	1.617	2454914	WORD	n/a	wordpools/wordpool_EN.txt	CUP	10	22	[0, 0, 0]	n/a	FR1	1	R1236J
2426.077	0.933	2456531	WORD_OFF	n/a	n/a	CUP	10	22	[0, 0, 0]	n/a	FR1	1	R1236J
2427.01	1.617	2457464	WORD	n/a	wordpools/wordpool_EN.txt	YARD	11	22	[0, 0, 0]	n/a	FR1	1	R1236J
2428.627	0.933	2459081	WORD_OFF	n/a	n/a	YARD	11	22	[0, 0, 0]	n/a	FR1	1	R1236J
2429.56	1.617	2460014	WORD	n/a	wordpools/wordpool_EN.txt	GATE	12	22	[0, 0, 0]	n/a	FR1	1	R1236J
2431.177	0.0	2461631	WORD_OFF	n/a	n/a	GATE	12	22	[0, 0, 0]	n/a	FR1	1	R1236J
2431.177	0.001	2461631	DISTRACT_START	n/a	n/a	n/a	-999	22	[0, 0, 0]	n/a	FR1	1	R1236J
2431.178	0.016	2461632	START	n/a	n/a	n/a	-999	22	[-999, -999, -999]	n/a	FR1	1	R1236J
2431.194	5.667	2461648	PROB	5.667	n/a	n/a	-999	22	[7, 9, 2]	18	FR1	1	R1236J
2436.861	3.884	2467315	PROB	3.884	n/a	n/a	-999	22	[5, 1, 1]	7	FR1	1	R1236J
2440.745	3.317	2471199	PROB	3.317	n/a	n/a	-999	22	[9, 1, 7]	17	FR1	1	R1236J
2444.062	2.667	2474516	PROB	2.667	n/a	n/a	-999	22	[2, 1, 9]	12	FR1	1	R1236J
2446.729	3.1	2477183	PROB	3.1	n/a	n/a	-999	22	[2, 7, 3]	12	FR1	1	R1236J
2449.829	3.095	2480283	PROB	3.095	n/a	n/a	-999	22	[6, 3, 2]	11	FR1	1	R1236J
2452.924	0.023	2483378	STOP	n/a	n/a	n/a	-999	22	[-999, -999, -999]	n/a	FR1	1	R1236J
2452.947	0.633	2483401	DISTRACT_END	n/a	n/a	n/a	-999	22	[0, 0, 0]	n/a	FR1	1	R1236J
2453.58	0.518	2484034	RETRIEVAL_ORIENT	n/a	n/a	n/a	-999	22	[0, 0, 0]	n/a	FR1	1	R1236J
2454.098	2.107	2484552	REC_START	n/a	n/a	n/a	-999	22	[0, 0, 0]	n/a	FR1	1	R1236J
2456.205	1.424	2486659	REC_WORD	1.424	n/a	TEA	-999	22	[0, 0, 0]	n/a	FR1	1	R1236J
2457.629	2.344	2488083	REC_WORD	2.344	n/a	ROSE	1	22	[0, 0, 0]	n/a	FR1	1	R1236J
2459.973	11.672	2490427	REC_WORD	11.672	n/a	STICK	3	22	[0, 0, 0]	n/a	FR1	1	R1236J
2471.645	2.326	2502099	REC_WORD	2.326	n/a	CUP	10	22	[0, 0, 0]	n/a	FR1	1	R1236J
2473.971	10.138	2504425	REC_WORD	10.138	n/a	TRAY	9	22	[0, 0, 0]	n/a	FR1	1	R1236J
2484.109	5.675	2514563	REC_END	n/a	n/a	n/a	-999	22	[0, 0, 0]	n/a	FR1	1	R1236J
2489.784	0.5	2520238	TRIAL	n/a	n/a	n/a	-999	23	[0, 0, 0]	n/a	FR1	1	R1236J
2490.284	10.428	2520738	COUNTDOWN_START	n/a	n/a	n/a	-999	23	[0, 0, 0]	n/a	FR1	1	R1236J
2500.712	0.007	2531166	COUNTDOWN_END	n/a	n/a	n/a	-999	23	[0, 0, 0]	n/a	FR1	1	R1236J
2500.719	1.617	2531173	ORIENT	n/a	n/a	n/a	-999	23	[0, 0, 0]	n/a	FR1	1	R1236J
2502.336	2.134	2532790	ORIENT_OFF	n/a	n/a	n/a	-999	23	[0, 0, 0]	n/a	FR1	1	R1236J
2504.47	1.617	2534924	WORD	n/a	wordpools/wordpool_EN.txt	PIE	1	23	[0, 0, 0]	n/a	FR1	1	R1236J
2506.087	0.983	2536541	WORD_OFF	n/a	n/a	PIE	1	23	[0, 0, 0]	n/a	FR1	1	R1236J
2507.07	1.617	2537524	WORD	n/a	wordpools/wordpool_EN.txt	BAG	2	23	[0, 0, 0]	n/a	FR1	1	R1236J
2508.687	0.867	2539141	WORD_OFF	n/a	n/a	BAG	2	23	[0, 0, 0]	n/a	FR1	1	R1236J
2509.554	1.617	2540008	WORD	n/a	wordpools/wordpool_EN.txt	CAKE	3	23	[0, 0, 0]	n/a	FR1	1	R1236J
2511.171	0.95	2541625	WORD_OFF	n/a	n/a	CAKE	3	23	[0, 0, 0]	n/a	FR1	1	R1236J
2512.121	1.617	2542575	WORD	n/a	wordpools/wordpool_EN.txt	FLOOR	4	23	[0, 0, 0]	n/a	FR1	1	R1236J
2513.738	0.767	2544192	WORD_OFF	n/a	n/a	FLOOR	4	23	[0, 0, 0]	n/a	FR1	1	R1236J
2514.505	1.616	2544959	WORD	n/a	wordpools/wordpool_EN.txt	CAGE	5	23	[0, 0, 0]	n/a	FR1	1	R1236J
2516.121	0.934	2546575	WORD_OFF	n/a	n/a	CAGE	5	23	[0, 0, 0]	n/a	FR1	1	R1236J
2517.055	1.616	2547509	WORD	n/a	wordpools/wordpool_EN.txt	ARK	6	23	[0, 0, 0]	n/a	FR1	1	R1236J
2518.671	0.767	2549125	WORD_OFF	n/a	n/a	ARK	6	23	[0, 0, 0]	n/a	FR1	1	R1236J
2519.438	1.617	2549892	WORD	n/a	wordpools/wordpool_EN.txt	HAND	7	23	[0, 0, 0]	n/a	FR1	1	R1236J
2521.055	1.0	2551509	WORD_OFF	n/a	n/a	HAND	7	23	[0, 0, 0]	n/a	FR1	1	R1236J
2522.055	1.601	2552509	WORD	n/a	wordpools/wordpool_EN.txt	COUCH	8	23	[0, 0, 0]	n/a	FR1	1	R1236J
2523.656	0.8	2554110	WORD_OFF	n/a	n/a	COUCH	8	23	[0, 0, 0]	n/a	FR1	1	R1236J
2524.456	1.617	2554910	WORD	n/a	wordpools/wordpool_EN.txt	BROOM	9	23	[0, 0, 0]	n/a	FR1	1	R1236J
2526.073	0.783	2556527	WORD_OFF	n/a	n/a	BROOM	9	23	[0, 0, 0]	n/a	FR1	1	R1236J
2526.856	1.617	2557310	WORD	n/a	wordpools/wordpool_EN.txt	LOCK	10	23	[0, 0, 0]	n/a	FR1	1	R1236J
2528.473	0.966	2558927	WORD_OFF	n/a	n/a	LOCK	10	23	[0, 0, 0]	n/a	FR1	1	R1236J
2529.439	1.617	2559893	WORD	n/a	wordpools/wordpool_EN.txt	BED	11	23	[0, 0, 0]	n/a	FR1	1	R1236J
2531.056	0.851	2561510	WORD_OFF	n/a	n/a	BED	11	23	[0, 0, 0]	n/a	FR1	1	R1236J
2531.907	1.617	2562361	WORD	n/a	wordpools/wordpool_EN.txt	FAN	12	23	[0, 0, 0]	n/a	FR1	1	R1236J
2533.524	0.0	2563978	WORD_OFF	n/a	n/a	FAN	12	23	[0, 0, 0]	n/a	FR1	1	R1236J
2533.524	0.0	2563978	DISTRACT_START	n/a	n/a	n/a	-999	23	[0, 0, 0]	n/a	FR1	1	R1236J
2533.524	0.016	2563978	START	n/a	n/a	n/a	-999	23	[-999, -999, -999]	n/a	FR1	1	R1236J
2533.54	4.384	2563994	PROB	4.384	n/a	n/a	-999	23	[2, 5, 3]	10	FR1	1	R1236J
2537.924	5.251	2568378	PROB	5.251	n/a	n/a	-999	23	[4, 3, 5]	12	FR1	1	R1236J
2543.175	2.667	2573629	PROB	2.667	n/a	n/a	-999	23	[6, 4, 1]	11	FR1	1	R1236J
2545.842	3.599	2576296	PROB	3.599	n/a	n/a	-999	23	[7, 7, 8]	22	FR1	1	R1236J
2549.441	4.767	2579895	PROB	4.767	n/a	n/a	-999	23	[2, 4, 6]	12	FR1	1	R1236J
2554.208	0.018	2584662	STOP	n/a	n/a	n/a	-999	23	[-999, -999, -999]	n/a	FR1	1	R1236J
2554.226	0.584	2584680	DISTRACT_END	n/a	n/a	n/a	-999	23	[0, 0, 0]	n/a	FR1	1	R1236J
2554.81	0.517	2585264	RETRIEVAL_ORIENT	n/a	n/a	n/a	-999	23	[0, 0, 0]	n/a	FR1	1	R1236J
2555.327	30.0	2585781	REC_START	n/a	n/a	n/a	-999	23	[0, 0, 0]	n/a	FR1	1	R1236J
2585.327	0.011	2615781	REC_WORD_VV	0.011	n/a	<>	-999	23	[0, 0, 0]	n/a	FR1	1	R1236J
2585.338	8.977	2615792	REC_END	n/a	n/a	n/a	-999	23	[0, 0, 0]	n/a	FR1	1	R1236J
2594.315	0.5	2624769	TRIAL	n/a	n/a	n/a	-999	24	[0, 0, 0]	n/a	FR1	1	R1236J
2594.815	10.428	2625269	COUNTDOWN_START	n/a	n/a	n/a	-999	24	[0, 0, 0]	n/a	FR1	1	R1236J
2605.243	0.006	2635697	COUNTDOWN_END	n/a	n/a	n/a	-999	24	[0, 0, 0]	n/a	FR1	1	R1236J
2605.249	1.617	2635703	ORIENT	n/a	n/a	n/a	-999	24	[0, 0, 0]	n/a	FR1	1	R1236J
2606.866	2.367	2637320	ORIENT_OFF	n/a	n/a	n/a	-999	24	[0, 0, 0]	n/a	FR1	1	R1236J
2609.233	1.617	2639687	WORD	n/a	wordpools/wordpool_EN.txt	HOSE	1	24	[0, 0, 0]	n/a	FR1	1	R1236J
2610.85	0.833	2641304	WORD_OFF	n/a	n/a	HOSE	1	24	[0, 0, 0]	n/a	FR1	1	R1236J
2611.683	1.617	2642137	WORD	n/a	wordpools/wordpool_EN.txt	CLOTH	2	24	[0, 0, 0]	n/a	FR1	1	R1236J
2613.3	0.984	2643754	WORD_OFF	n/a	n/a	CLOTH	2	24	[0, 0, 0]	n/a	FR1	1	R1236J
2614.284	1.617	2644738	WORD	n/a	wordpools/wordpool_EN.txt	ROPE	3	24	[0, 0, 0]	n/a	FR1	1	R1236J
2615.901	0.767	2646355	WORD_OFF	n/a	n/a	ROPE	3	24	[0, 0, 0]	n/a	FR1	1	R1236J
2616.668	1.617	2647122	WORD	n/a	wordpools/wordpool_EN.txt	SINK	4	24	[0, 0, 0]	n/a	FR1	1	R1236J
2618.285	0.949	2648739	WORD_OFF	n/a	n/a	SINK	4	24	[0, 0, 0]	n/a	FR1	1	R1236J
2619.234	1.617	2649688	WORD	n/a	wordpools/wordpool_EN.txt	VEST	5	24	[0, 0, 0]	n/a	FR1	1	R1236J
2620.851	0.934	2651305	WORD_OFF	n/a	n/a	VEST	5	24	[0, 0, 0]	n/a	FR1	1	R1236J
2621.785	1.617	2652239	WORD	n/a	wordpools/wordpool_EN.txt	SOAP	6	24	[0, 0, 0]	n/a	FR1	1	R1236J
2623.402	0.833	2653856	WORD_OFF	n/a	n/a	SOAP	6	24	[0, 0, 0]	n/a	FR1	1	R1236J
2624.235	1.617	2654689	WORD	n/a	wordpools/wordpool_EN.txt	STAIR	7	24	[0, 0, 0]	n/a	FR1	1	R1236J
2625.852	0.8	2656306	WORD_OFF	n/a	n/a	STAIR	7	24	[0, 0, 0]	n/a	FR1	1	R1236J
2626.652	1.617	2657106	WORD	n/a	wordpools/wordpool_EN.txt	LAMP	8	24	[0, 0, 0]	n/a	FR1	1	R1236J
2628.269	0.883	2658723	WORD_OFF	n/a	n/a	LAMP	8	24	[0, 0, 0]	n/a	FR1	1	R1236J
2629.152	1.617	2659606	WORD	n/a	wordpools/wordpool_EN.txt	STOVE	9	24	[0, 0, 0]	n/a	FR1	1	R1236J
2630.769	0.817	2661223	WORD_OFF	n/a	n/a	STOVE	9	24	[0, 0, 0]	n/a	FR1	1	R1236J
2631.586	1.617	2662040	WORD	n/a	wordpools/wordpool_EN.txt	CHAIR	10	24	[0, 0, 0]	n/a	FR1	1	R1236J
2633.203	0.95	2663657	WORD_OFF	n/a	n/a	CHAIR	10	24	[0, 0, 0]	n/a	FR1	1	R1236J
2634.153	1.617	2664607	WORD	n/a	wordpools/wordpool_EN.txt	SLUSH	11	24	[0, 0, 0]	n/a	FR1	1	R1236J
2635.77	0.883	2666224	WORD_OFF	n/a	n/a	SLUSH	11	24	[0, 0, 0]	n/a	FR1	1	R1236J
2636.653	1.617	2667107	WORD	n/a	wordpools/wordpool_EN.txt	FLAME	12	24	[0, 0, 0]	n/a	FR1	1	R1236J
2638.27	0.0	2668724	WORD_OFF	n/a	n/a	FLAME	12	24	[0, 0, 0]	n/a	FR1	1	R1236J
2638.27	0.001	2668724	DISTRACT_START	n/a	n/a	n/a	-999	24	[0, 0, 0]	n/a	FR1	1	R1236J
2638.271	0.016	2668725	START	n/a	n/a	n/a	-999	24	[-999, -999, -999]	n/a	FR1	1	R1236J
2638.287	7.334	2668741	PROB	7.334	n/a	n/a	-999	24	[4, 5, 7]	16	FR1	1	R1236J
2645.621	4.967	2676075	PROB	4.967	n/a	n/a	-999	24	[8, 4, 4]	16	FR1	1	R1236J
2650.588	3.184	2681042	PROB	3.184	n/a	n/a	-999	24	[9, 4, 1]	14	FR1	1	R1236J
2653.772	3.284	2684226	PROB	3.284	n/a	n/a	-999	24	[1, 8, 5]	14	FR1	1	R1236J
2657.056	4.067	2687510	PROB	4.067	n/a	n/a	-999	24	[2, 8, 8]	18	FR1	1	R1236J
2661.123	0.017	2691577	STOP	n/a	n/a	n/a	-999	24	[-999, -999, -999]	n/a	FR1	1	R1236J
2661.14	0.617	2691594	DISTRACT_END	n/a	n/a	n/a	-999	24	[0, 0, 0]	n/a	FR1	1	R1236J
2661.757	0.517	2692211	RETRIEVAL_ORIENT	n/a	n/a	n/a	-999	24	[0, 0, 0]	n/a	FR1	1	R1236J
2662.274	2.045	2692728	REC_START	n/a	n/a	n/a	-999	24	[0, 0, 0]	n/a	FR1	1	R1236J
2664.319	4.216	2694773	REC_WORD	4.216	n/a	SLUSH	11	24	[0, 0, 0]	n/a	FR1	1	R1236J
2668.535	5.117	2698989	REC_WORD_VV	5.117	n/a	<>	-999	24	[0, 0, 0]	n/a	FR1	1	R1236J
2673.652	1.485	2704106	REC_WORD	1.485	n/a	CHAIR	10	24	[0, 0, 0]	n/a	FR1	1	R1236J
2675.137	3.572	2705591	REC_WORD	3.572	n/a	SINK	4	24	[0, 0, 0]	n/a	FR1	1	R1236J
2678.709	9.787	2709163	REC_WORD_VV	9.787	n/a	<>	-999	24	[0, 0, 0]	n/a	FR1	1	R1236J
2688.496	3.79	2718950	REC_WORD	3.79	n/a	HOSE	1	24	[0, 0, 0]	n/a	FR1	1	R1236J
2692.286	6.992	2722740	REC_END	n/a	n/a	n/a	-999	24	[0, 0, 0]	n/a	FR1	1	R1236J
2699.278	0.5	2729732	TRIAL	n/a	n/a	n/a	-999	25	[0, 0, 0]	n/a	FR1	1	R1236J
2699.778	10.428	2730232	COUNTDOWN_START	n/a	n/a	n/a	-999	25	[0, 0, 0]	n/a	FR1	1	R1236J
2710.206	0.007	2740660	COUNTDOWN_END	n/a	n/a	n/a	-999	25	[0, 0, 0]	n/a	FR1	1	R1236J
2710.213	1.617	2740667	ORIENT	n/a	n/a	n/a	-999	25	[0, 0, 0]	n/a	FR1	1	R1236J
2711.83	2.0	2742284	ORIENT_OFF	n/a	n/a	n/a	-999	25	[0, 0, 0]	n/a	FR1	1	R1236J
2713.83	1.617	2744284	WORD	n/a	wordpools/wordpool_EN.txt	DOCK	1	25	[0, 0, 0]	n/a	FR1	1	R1236J
2715.447	0.85	2745901	WORD_OFF	n/a	n/a	DOCK	1	25	[0, 0, 0]	n/a	FR1	1	R1236J
2716.297	1.617	2746751	WORD	n/a	wordpools/wordpool_EN.txt	SWORD	2	25	[0, 0, 0]	n/a	FR1	1	R1236J
2717.914	0.883	2748368	WORD_OFF	n/a	n/a	SWORD	2	25	[0, 0, 0]	n/a	FR1	1	R1236J
2718.797	1.617	2749251	WORD	n/a	wordpools/wordpool_EN.txt	PET	3	25	[0, 0, 0]	n/a	FR1	1	R1236J
2720.414	0.9	2750868	WORD_OFF	n/a	n/a	PET	3	25	[0, 0, 0]	n/a	FR1	1	R1236J
2721.314	1.617	2751768	WORD	n/a	wordpools/wordpool_EN.txt	NET	4	25	[0, 0, 0]	n/a	FR1	1	R1236J
2722.931	1.017	2753385	WORD_OFF	n/a	n/a	NET	4	25	[0, 0, 0]	n/a	FR1	1	R1236J
2723.948	1.617	2754402	WORD	n/a	wordpools/wordpool_EN.txt	BAT	5	25	[0, 0, 0]	n/a	FR1	1	R1236J
2725.565	0.833	2756019	WORD_OFF	n/a	n/a	BAT	5	25	[0, 0, 0]	n/a	FR1	1	R1236J
2726.398	1.617	2756852	WORD	n/a	wordpools/wordpool_EN.txt	BALL	6	25	[0, 0, 0]	n/a	FR1	1	R1236J
2728.015	0.95	2758469	WORD_OFF	n/a	n/a	BALL	6	25	[0, 0, 0]	n/a	FR1	1	R1236J
2728.965	1.617	2759419	WORD	n/a	wordpools/wordpool_EN.txt	MAZE	7	25	[0, 0, 0]	n/a	FR1	1	R1236J
2730.582	0.85	2761036	WORD_OFF	n/a	n/a	MAZE	7	25	[0, 0, 0]	n/a	FR1	1	R1236J
2731.432	1.617	2761886	WORD	n/a	wordpools/wordpool_EN.txt	SHIP	8	25	[0, 0, 0]	n/a	FR1	1	R1236J
2733.049	0.883	2763503	WORD_OFF	n/a	n/a	SHIP	8	25	[0, 0, 0]	n/a	FR1	1	R1236J
2733.932	1.617	2764386	WORD	n/a	wordpools/wordpool_EN.txt	EEL	9	25	[0, 0, 0]	n/a	FR1	1	R1236J
2735.549	0.8	2766003	WORD_OFF	n/a	n/a	EEL	9	25	[0, 0, 0]	n/a	FR1	1	R1236J
2736.349	1.618	2766803	WORD	n/a	wordpools/wordpool_EN.txt	MOUSE	10	25	[0, 0, 0]	n/a	FR1	1	R1236J
2737.967	0.783	2768421	WORD_OFF	n/a	n/a	MOUSE	10	25	[0, 0, 0]	n/a	FR1	1	R1236J
2738.75	1.616	2769204	WORD	n/a	wordpools/wordpool_EN.txt	RAT	11	25	[0, 0, 0]	n/a	FR1	1	R1236J
2740.366	0.767	2770820	WORD_OFF	n/a	n/a	RAT	11	25	[0, 0, 0]	n/a	FR1	1	R1236J
2741.133	1.617	2771587	WORD	n/a	wordpools/wordpool_EN.txt	WALL	12	25	[0, 0, 0]	n/a	FR1	1	R1236J
2742.75	0.0	2773204	WORD_OFF	n/a	n/a	WALL	12	25	[0, 0, 0]	n/a	FR1	1	R1236J
2742.75	0.001	2773204	DISTRACT_START	n/a	n/a	n/a	-999	25	[0, 0, 0]	n/a	FR1	1	R1236J
2742.751	0.016	2773205	START	n/a	n/a	n/a	-999	25	[-999, -999, -999]	n/a	FR1	1	R1236J
2742.767	7.034	2773221	PROB	7.034	n/a	n/a	-999	25	[7, 4, 9]	20	FR1	1	R1236J
2749.801	5.884	2780255	PROB	5.884	n/a	n/a	-999	25	[7, 4, 9]	20	FR1	1	R1236J
2755.685	5.167	2786140	PROB	5.167	n/a	n/a	-999	25	[5, 2, 1]	8	FR1	1	R1236J
2760.852	4.435	2791307	PROB	4.435	n/a	n/a	-999	25	[6, 4, 3]	13	FR1	1	R1236J
2765.287	0.016	2795742	STOP	n/a	n/a	n/a	-999	25	[-999, -999, -999]	n/a	FR1	1	R1236J
2765.303	0.633	2795758	DISTRACT_END	n/a	n/a	n/a	-999	25	[0, 0, 0]	n/a	FR1	1	R1236J
2765.936	0.518	2796391	RETRIEVAL_ORIENT	n/a	n/a	n/a	-999	25	[0, 0, 0]	n/a	FR1	1	R1236J
2766.454	2.702	2796909	REC_START	n/a	n/a	n/a	-999	25	[0, 0, 0]	n/a	FR1	1	R1236J
2769.156	2.606	2799611	REC_WORD	2.606	n/a	PET	3	25	[0, 0, 0]	n/a	FR1	1	R1236J
2771.762	16.857	2802217	REC_WORD	16.857	n/a	MAT	-999	25	[0, 0, 0]	n/a	FR1	1	R1236J
2788.619	1.393	2819074	REC_WORD	1.393	n/a	BAT	5	25	[0, 0, 0]	n/a	FR1	1	R1236J
2790.012	6.454	2820467	REC_WORD	6.454	n/a	BALL	6	25	[0, 0, 0]	n/a	FR1	1	R1236J
2796.466	209.968	2826921	REC_END	n/a	n/a	n/a	-999	25	[0, 0, 0]	n/a	FR1	1	R1236J
3006.434	0.0	3036889	SESS_END	n/a	n/a	n/a	-999	25	[0, 0, 0]	n/a	FR1	1	R1236J
