onset	duration	sample	trial_type	response_time	stim_file	item_name	serialpos	list	test	answer	experiment	session	subject
0.0	24.171	7486	SESS_START	n/a	n/a	n/a	-999	-999	[0, 0, 0]	n/a	FR1	3	R1108J
24.171	10.428	31657	COUNTDOWN_START	n/a	n/a	n/a	-999	-999	[0, 0, 0]	n/a	FR1	3	R1108J
34.599	0.005	42085	COUNTDOWN_END	n/a	n/a	n/a	-999	-999	[0, 0, 0]	n/a	FR1	3	R1108J
34.604	3.535	42090	PRACTICE_ORIENT	n/a	n/a	n/a	-999	-999	[0, 0, 0]	n/a	FR1	3	R1108J
38.139	2.416	45625	PRACTICE_WORD	n/a	n/a	TONGUE	1	-1	[0, 0, 0]	n/a	FR1	3	R1108J
40.555	2.417	48041	PRACTICE_WORD	n/a	n/a	RING	2	-1	[0, 0, 0]	n/a	FR1	3	R1108J
42.972	2.385	50458	PRACTICE_WORD	n/a	n/a	WAGON	3	-1	[0, 0, 0]	n/a	FR1	3	R1108J
45.357	2.482	52843	PRACTICE_WORD	n/a	n/a	BEAM	4	-1	[0, 0, 0]	n/a	FR1	3	R1108J
47.839	2.635	55325	PRACTICE_WORD	n/a	n/a	WATCH	5	-1	[0, 0, 0]	n/a	FR1	3	R1108J
50.474	2.516	57960	PRACTICE_WORD	n/a	n/a	COTTON	6	-1	[0, 0, 0]	n/a	FR1	3	R1108J
52.99	2.567	60476	PRACTICE_WORD	n/a	n/a	RHINO	7	-1	[0, 0, 0]	n/a	FR1	3	R1108J
55.557	2.517	63043	PRACTICE_WORD	n/a	n/a	CAMEL	8	-1	[0, 0, 0]	n/a	FR1	3	R1108J
58.074	2.584	65560	PRACTICE_WORD	n/a	n/a	CHEST	9	-1	[0, 0, 0]	n/a	FR1	3	R1108J
60.658	2.501	68144	PRACTICE_WORD	n/a	n/a	ATTIC	10	-1	[0, 0, 0]	n/a	FR1	3	R1108J
63.159	2.516	70645	PRACTICE_WORD	n/a	n/a	IRON	11	-1	[0, 0, 0]	n/a	FR1	3	R1108J
65.675	1.618	73161	PRACTICE_WORD	n/a	n/a	FLOOD	12	-1	[0, 0, 0]	n/a	FR1	3	R1108J
67.293	0.0	74779	PRACTICE_DISTRACT_START	n/a	n/a	n/a	-999	-1	[0, 0, 0]	n/a	FR1	3	R1108J
67.293	0.016	74779	START	n/a	n/a	n/a	-999	-1	[-999, -999, -999]	n/a	FR1	3	R1108J
67.309	4.583	74795	PROB	4.583	n/a	n/a	-999	-1	[2, 8, 2]	12	FR1	3	R1108J
71.892	14.603	79378	PROB	14.603	n/a	n/a	-999	-1	[9, 8, 2]	19	FR1	3	R1108J
86.495	19.192	93981	PROB	19.192	n/a	n/a	-999	-1	[2, 3, 2]	7	FR1	3	R1108J
105.687	0.694	113173	STOP	n/a	n/a	n/a	-999	-1	[-999, -999, -999]	n/a	FR1	3	R1108J
106.381	30.516	113867	PRACTICE_REC_START	n/a	n/a	n/a	-999	-1	[0, 0, 0]	n/a	FR1	3	R1108J
136.897	14.573	144382	PRACTICE_REC_END	n/a	n/a	n/a	-999	-1	[0, 0, 0]	n/a	FR1	3	R1108J
151.47	0.0	158955	TRIAL	n/a	n/a	n/a	-999	1	[0, 0, 0]	n/a	FR1	3	R1108J
151.47	10.428	158955	COUNTDOWN_START	n/a	n/a	n/a	-999	1	[0, 0, 0]	n/a	FR1	3	R1108J
161.898	0.006	169383	COUNTDOWN_END	n/a	n/a	n/a	-999	1	[0, 0, 0]	n/a	FR1	3	R1108J
161.904	3.618	169389	ORIENT	n/a	n/a	n/a	-999	1	[0, 0, 0]	n/a	FR1	3	R1108J
165.522	2.482	173007	WORD	n/a	wordpools/wordpool_EN.txt	CAVE	1	1	[0, 0, 0]	n/a	FR1	3	R1108J
168.004	2.584	175489	WORD	n/a	wordpools/wordpool_EN.txt	TOOTH	2	1	[0, 0, 0]	n/a	FR1	3	R1108J
170.588	2.602	178073	WORD	n/a	wordpools/wordpool_EN.txt	HILL	3	1	[0, 0, 0]	n/a	FR1	3	R1108J
173.19	2.582	180675	WORD	n/a	wordpools/wordpool_EN.txt	TEA	4	1	[0, 0, 0]	n/a	FR1	3	R1108J
175.772	2.468	183257	WORD	n/a	wordpools/wordpool_EN.txt	SLIME	5	1	[0, 0, 0]	n/a	FR1	3	R1108J
178.24	2.616	185725	WORD	n/a	wordpools/wordpool_EN.txt	STOVE	6	1	[0, 0, 0]	n/a	FR1	3	R1108J
180.856	2.568	188341	WORD	n/a	wordpools/wordpool_EN.txt	AXE	7	1	[0, 0, 0]	n/a	FR1	3	R1108J
183.424	2.416	190909	WORD	n/a	wordpools/wordpool_EN.txt	BIRD	8	1	[0, 0, 0]	n/a	FR1	3	R1108J
185.84	2.418	193325	WORD	n/a	wordpools/wordpool_EN.txt	SOAP	9	1	[0, 0, 0]	n/a	FR1	3	R1108J
188.258	2.416	195743	WORD	n/a	wordpools/wordpool_EN.txt	ANT	10	1	[0, 0, 0]	n/a	FR1	3	R1108J
190.674	2.518	198159	WORD	n/a	wordpools/wordpool_EN.txt	BOMB	11	1	[0, 0, 0]	n/a	FR1	3	R1108J
193.192	1.616	200677	WORD	n/a	wordpools/wordpool_EN.txt	PLANT	12	1	[0, 0, 0]	n/a	FR1	3	R1108J
194.808	0.001	202293	DISTRACT_START	n/a	n/a	n/a	-999	1	[0, 0, 0]	n/a	FR1	3	R1108J
194.809	0.016	202294	START	n/a	n/a	n/a	-999	1	[-999, -999, -999]	n/a	FR1	3	R1108J
194.825	7.585	202310	PROB	7.585	n/a	n/a	-999	1	[3, 8, 8]	19	FR1	3	R1108J
202.41	3.35	209895	PROB	3.35	n/a	n/a	-999	1	[5, 5, 1]	11	FR1	3	R1108J
205.76	33.168	213245	PROB	33.168	n/a	n/a	-999	1	[5, 6, 9]	20	FR1	3	R1108J
238.928	0.019	246413	STOP	n/a	n/a	n/a	-999	1	[-999, -999, -999]	n/a	FR1	3	R1108J
238.947	1.157	246432	DISTRACT_END	n/a	n/a	n/a	-999	1	[0, 0, 0]	n/a	FR1	3	R1108J
240.104	3.071	247589	REC_START	n/a	n/a	n/a	-999	1	[0, 0, 0]	n/a	FR1	3	R1108J
243.175	1.042	250660	REC_WORD	1.042	n/a	BEAN	-999	1	[0, 0, 0]	n/a	FR1	3	R1108J
244.217	1.705	251702	REC_WORD	1.705	n/a	ANT	-999	1	[0, 0, 0]	n/a	FR1	3	R1108J
245.922	1.103	253407	REC_WORD_VV	1.103	n/a	<>	-999	1	[0, 0, 0]	n/a	FR1	3	R1108J
247.025	23.084	254510	REC_WORD	23.084	n/a	BOMB	-999	1	[0, 0, 0]	n/a	FR1	3	R1108J
270.109	2.692	277593	REC_END	n/a	n/a	n/a	-999	1	[0, 0, 0]	n/a	FR1	3	R1108J
272.801	0.0	280285	COUNTDOWN_START	n/a	n/a	n/a	-999	2	[0, 0, 0]	n/a	FR1	3	R1108J
272.801	10.428	280285	TRIAL	n/a	n/a	n/a	-999	2	[0, 0, 0]	n/a	FR1	3	R1108J
283.229	0.008	290713	COUNTDOWN_END	n/a	n/a	n/a	-999	2	[0, 0, 0]	n/a	FR1	3	R1108J
283.237	3.799	290721	ORIENT	n/a	n/a	n/a	-999	2	[0, 0, 0]	n/a	FR1	3	R1108J
287.036	2.617	294520	WORD	n/a	wordpools/wordpool_EN.txt	FLAME	1	2	[0, 0, 0]	n/a	FR1	3	R1108J
289.653	2.502	297137	WORD	n/a	wordpools/wordpool_EN.txt	VAN	2	2	[0, 0, 0]	n/a	FR1	3	R1108J
292.155	2.466	299639	WORD	n/a	wordpools/wordpool_EN.txt	BRUSH	3	2	[0, 0, 0]	n/a	FR1	3	R1108J
294.621	2.551	302105	WORD	n/a	wordpools/wordpool_EN.txt	PEA	4	2	[0, 0, 0]	n/a	FR1	3	R1108J
297.172	2.449	304656	WORD	n/a	wordpools/wordpool_EN.txt	HOSE	5	2	[0, 0, 0]	n/a	FR1	3	R1108J
299.621	2.451	307105	WORD	n/a	wordpools/wordpool_EN.txt	CORN	6	2	[0, 0, 0]	n/a	FR1	3	R1108J
302.072	2.517	309556	WORD	n/a	wordpools/wordpool_EN.txt	GATE	7	2	[0, 0, 0]	n/a	FR1	3	R1108J
304.589	2.417	312073	WORD	n/a	wordpools/wordpool_EN.txt	BATH	8	2	[0, 0, 0]	n/a	FR1	3	R1108J
307.006	2.583	314490	WORD	n/a	wordpools/wordpool_EN.txt	CUP	9	2	[0, 0, 0]	n/a	FR1	3	R1108J
309.589	2.484	317073	WORD	n/a	wordpools/wordpool_EN.txt	SUN	10	2	[0, 0, 0]	n/a	FR1	3	R1108J
312.073	2.385	319557	WORD	n/a	wordpools/wordpool_EN.txt	PEN	11	2	[0, 0, 0]	n/a	FR1	3	R1108J
314.458	1.615	321942	WORD	n/a	wordpools/wordpool_EN.txt	PLATE	12	2	[0, 0, 0]	n/a	FR1	3	R1108J
316.073	0.001	323557	DISTRACT_START	n/a	n/a	n/a	-999	2	[0, 0, 0]	n/a	FR1	3	R1108J
316.074	0.016	323558	START	n/a	n/a	n/a	-999	2	[-999, -999, -999]	n/a	FR1	3	R1108J
316.09	17.303	323574	PROB	17.303	n/a	n/a	-999	2	[7, 9, 3]	19	FR1	3	R1108J
333.393	30.059	340877	PROB	30.059	n/a	n/a	-999	2	[3, 6, 9]	18	FR1	3	R1108J
363.452	0.012	370936	STOP	n/a	n/a	n/a	-999	2	[-999, -999, -999]	n/a	FR1	3	R1108J
363.464	1.1	370948	DISTRACT_END	n/a	n/a	n/a	-999	2	[0, 0, 0]	n/a	FR1	3	R1108J
364.564	0.789	372048	REC_START	n/a	n/a	n/a	-999	2	[0, 0, 0]	n/a	FR1	3	R1108J
365.353	11.771	372837	REC_WORD_VV	11.771	n/a	<>	-999	2	[0, 0, 0]	n/a	FR1	3	R1108J
377.124	1.067	384608	REC_WORD	1.067	n/a	GATE	-999	2	[0, 0, 0]	n/a	FR1	3	R1108J
378.191	16.383	385675	REC_WORD_VV	16.383	n/a	<>	-999	2	[0, 0, 0]	n/a	FR1	3	R1108J
394.574	7.327	402058	REC_END	n/a	n/a	n/a	-999	2	[0, 0, 0]	n/a	FR1	3	R1108J
401.901	0.0	409384	TRIAL	n/a	n/a	n/a	-999	3	[0, 0, 0]	n/a	FR1	3	R1108J
401.901	10.428	409384	COUNTDOWN_START	n/a	n/a	n/a	-999	3	[0, 0, 0]	n/a	FR1	3	R1108J
412.329	0.008	419812	COUNTDOWN_END	n/a	n/a	n/a	-999	3	[0, 0, 0]	n/a	FR1	3	R1108J
412.337	3.582	419820	ORIENT	n/a	n/a	n/a	-999	3	[0, 0, 0]	n/a	FR1	3	R1108J
415.919	2.402	423402	WORD	n/a	wordpools/wordpool_EN.txt	DEER	1	3	[0, 0, 0]	n/a	FR1	3	R1108J
418.321	2.383	425804	WORD	n/a	wordpools/wordpool_EN.txt	BOAT	2	3	[0, 0, 0]	n/a	FR1	3	R1108J
420.704	2.468	428187	WORD	n/a	wordpools/wordpool_EN.txt	TANK	3	3	[0, 0, 0]	n/a	FR1	3	R1108J
423.172	2.566	430655	WORD	n/a	wordpools/wordpool_EN.txt	BANK	4	3	[0, 0, 0]	n/a	FR1	3	R1108J
425.738	2.517	433221	WORD	n/a	wordpools/wordpool_EN.txt	DUCK	5	3	[0, 0, 0]	n/a	FR1	3	R1108J
428.255	2.566	435738	WORD	n/a	wordpools/wordpool_EN.txt	APE	6	3	[0, 0, 0]	n/a	FR1	3	R1108J
430.821	2.469	438304	WORD	n/a	wordpools/wordpool_EN.txt	MUG	7	3	[0, 0, 0]	n/a	FR1	3	R1108J
433.29	2.482	440773	WORD	n/a	wordpools/wordpool_EN.txt	WEB	8	3	[0, 0, 0]	n/a	FR1	3	R1108J
435.772	2.518	443255	WORD	n/a	wordpools/wordpool_EN.txt	HAWK	9	3	[0, 0, 0]	n/a	FR1	3	R1108J
438.29	2.416	445773	WORD	n/a	wordpools/wordpool_EN.txt	CASH	10	3	[0, 0, 0]	n/a	FR1	3	R1108J
440.706	2.485	448189	WORD	n/a	wordpools/wordpool_EN.txt	SEAL	11	3	[0, 0, 0]	n/a	FR1	3	R1108J
443.191	1.616	450674	WORD	n/a	wordpools/wordpool_EN.txt	BRANCH	12	3	[0, 0, 0]	n/a	FR1	3	R1108J
444.807	0.0	452290	DISTRACT_START	n/a	n/a	n/a	-999	3	[0, 0, 0]	n/a	FR1	3	R1108J
444.807	0.016	452290	START	n/a	n/a	n/a	-999	3	[-999, -999, -999]	n/a	FR1	3	R1108J
444.823	6.885	452306	PROB	6.885	n/a	n/a	-999	3	[7, 7, 1]	15	FR1	3	R1108J
451.708	12.652	459191	PROB	12.652	n/a	n/a	-999	3	[8, 2, 8]	18	FR1	3	R1108J
464.36	21.654	471843	PROB	21.654	n/a	n/a	-999	3	[5, 8, 9]	23	FR1	3	R1108J
486.014	0.014	493497	STOP	n/a	n/a	n/a	-999	3	[-999, -999, -999]	n/a	FR1	3	R1108J
486.028	1.135	493511	DISTRACT_END	n/a	n/a	n/a	-999	3	[0, 0, 0]	n/a	FR1	3	R1108J
487.163	2.022	494646	REC_START	n/a	n/a	n/a	-999	3	[0, 0, 0]	n/a	FR1	3	R1108J
489.185	1.81	496668	REC_WORD	1.81	n/a	DEER	-999	3	[0, 0, 0]	n/a	FR1	3	R1108J
490.995	1.553	498478	REC_WORD	1.553	n/a	HAWK	-999	3	[0, 0, 0]	n/a	FR1	3	R1108J
492.548	14.797	500031	REC_WORD_VV	14.797	n/a	<>	-999	3	[0, 0, 0]	n/a	FR1	3	R1108J
507.345	9.831	514828	REC_WORD	9.831	n/a	FUEL	-999	3	[0, 0, 0]	n/a	FR1	3	R1108J
517.176	3.225	524659	REC_END	n/a	n/a	n/a	-999	3	[0, 0, 0]	n/a	FR1	3	R1108J
520.401	0.0	527884	COUNTDOWN_START	n/a	n/a	n/a	-999	4	[0, 0, 0]	n/a	FR1	3	R1108J
520.401	10.428	527884	TRIAL	n/a	n/a	n/a	-999	4	[0, 0, 0]	n/a	FR1	3	R1108J
530.829	0.005	538312	COUNTDOWN_END	n/a	n/a	n/a	-999	4	[0, 0, 0]	n/a	FR1	3	R1108J
530.834	3.568	538317	ORIENT	n/a	n/a	n/a	-999	4	[0, 0, 0]	n/a	FR1	3	R1108J
534.402	2.583	541885	WORD	n/a	wordpools/wordpool_EN.txt	STORE	1	4	[0, 0, 0]	n/a	FR1	3	R1108J
536.985	2.418	544467	WORD	n/a	wordpools/wordpool_EN.txt	STRING	2	4	[0, 0, 0]	n/a	FR1	3	R1108J
539.403	2.466	546885	WORD	n/a	wordpools/wordpool_EN.txt	PRINCE	3	4	[0, 0, 0]	n/a	FR1	3	R1108J
541.869	2.518	549351	WORD	n/a	wordpools/wordpool_EN.txt	MOUSE	4	4	[0, 0, 0]	n/a	FR1	3	R1108J
544.387	2.399	551869	WORD	n/a	wordpools/wordpool_EN.txt	ICE	5	4	[0, 0, 0]	n/a	FR1	3	R1108J
546.786	2.585	554268	WORD	n/a	wordpools/wordpool_EN.txt	MOLE	6	4	[0, 0, 0]	n/a	FR1	3	R1108J
549.371	2.399	556853	WORD	n/a	wordpools/wordpool_EN.txt	WHEEL	7	4	[0, 0, 0]	n/a	FR1	3	R1108J
551.77	2.435	559252	WORD	n/a	wordpools/wordpool_EN.txt	SMOKE	8	4	[0, 0, 0]	n/a	FR1	3	R1108J
554.205	2.482	561687	WORD	n/a	wordpools/wordpool_EN.txt	WORLD	9	4	[0, 0, 0]	n/a	FR1	3	R1108J
556.687	2.502	564169	WORD	n/a	wordpools/wordpool_EN.txt	TEETH	10	4	[0, 0, 0]	n/a	FR1	3	R1108J
559.189	2.516	566671	WORD	n/a	wordpools/wordpool_EN.txt	TREE	11	4	[0, 0, 0]	n/a	FR1	3	R1108J
561.705	1.601	569187	WORD	n/a	wordpools/wordpool_EN.txt	DOCK	12	4	[0, 0, 0]	n/a	FR1	3	R1108J
563.306	0.0	570788	DISTRACT_START	n/a	n/a	n/a	-999	4	[0, 0, 0]	n/a	FR1	3	R1108J
563.306	0.017	570788	START	n/a	n/a	n/a	-999	4	[-999, -999, -999]	n/a	FR1	3	R1108J
563.323	6.466	570805	PROB	6.466	n/a	n/a	-999	4	[1, 7, 7]	15	FR1	3	R1108J
569.789	7.652	577271	PROB	7.652	n/a	n/a	-999	4	[1, 3, 8]	12	FR1	3	R1108J
577.441	7.425	584923	PROB	7.425	n/a	n/a	-999	4	[5, 2, 4]	11	FR1	3	R1108J
584.866	0.009	592348	STOP	n/a	n/a	n/a	-999	4	[-999, -999, -999]	n/a	FR1	3	R1108J
584.875	1.167	592357	DISTRACT_END	n/a	n/a	n/a	-999	4	[0, 0, 0]	n/a	FR1	3	R1108J
586.042	30.0	593524	REC_START	n/a	n/a	n/a	-999	4	[0, 0, 0]	n/a	FR1	3	R1108J
616.042	0.01	623524	REC_WORD_VV	0.01	n/a	<>	-999	4	[0, 0, 0]	n/a	FR1	3	R1108J
616.052	4.178	623534	REC_END	n/a	n/a	n/a	-999	4	[0, 0, 0]	n/a	FR1	3	R1108J
620.23	0.0	627712	TRIAL	n/a	n/a	n/a	-999	5	[0, 0, 0]	n/a	FR1	3	R1108J
620.23	10.428	627712	COUNTDOWN_START	n/a	n/a	n/a	-999	5	[0, 0, 0]	n/a	FR1	3	R1108J
630.658	0.006	638140	COUNTDOWN_END	n/a	n/a	n/a	-999	5	[0, 0, 0]	n/a	FR1	3	R1108J
630.664	3.818	638146	ORIENT	n/a	n/a	n/a	-999	5	[0, 0, 0]	n/a	FR1	3	R1108J
634.482	2.516	641964	WORD	n/a	wordpools/wordpool_EN.txt	TENT	1	5	[0, 0, 0]	n/a	FR1	3	R1108J
636.998	2.418	644480	WORD	n/a	wordpools/wordpool_EN.txt	RICE	2	5	[0, 0, 0]	n/a	FR1	3	R1108J
639.416	2.616	646898	WORD	n/a	wordpools/wordpool_EN.txt	ROAD	3	5	[0, 0, 0]	n/a	FR1	3	R1108J
642.032	2.567	649514	WORD	n/a	wordpools/wordpool_EN.txt	SAIL	4	5	[0, 0, 0]	n/a	FR1	3	R1108J
644.599	2.416	652081	WORD	n/a	wordpools/wordpool_EN.txt	FRUIT	5	5	[0, 0, 0]	n/a	FR1	3	R1108J
647.015	2.486	654497	WORD	n/a	wordpools/wordpool_EN.txt	BOOK	6	5	[0, 0, 0]	n/a	FR1	3	R1108J
649.501	2.565	656983	WORD	n/a	wordpools/wordpool_EN.txt	SOUP	7	5	[0, 0, 0]	n/a	FR1	3	R1108J
652.066	2.501	659548	WORD	n/a	wordpools/wordpool_EN.txt	GRASS	8	5	[0, 0, 0]	n/a	FR1	3	R1108J
654.567	2.601	662049	WORD	n/a	wordpools/wordpool_EN.txt	FUDGE	9	5	[0, 0, 0]	n/a	FR1	3	R1108J
657.168	2.599	664650	WORD	n/a	wordpools/wordpool_EN.txt	LAKE	10	5	[0, 0, 0]	n/a	FR1	3	R1108J
659.767	2.419	667249	WORD	n/a	wordpools/wordpool_EN.txt	BEE	11	5	[0, 0, 0]	n/a	FR1	3	R1108J
662.186	1.615	669668	WORD	n/a	wordpools/wordpool_EN.txt	BAT	12	5	[0, 0, 0]	n/a	FR1	3	R1108J
663.801	0.001	671283	DISTRACT_START	n/a	n/a	n/a	-999	5	[0, 0, 0]	n/a	FR1	3	R1108J
663.802	0.016	671284	START	n/a	n/a	n/a	-999	5	[-999, -999, -999]	n/a	FR1	3	R1108J
663.818	6.917	671300	PROB	6.917	n/a	n/a	-999	5	[5, 6, 7]	17	FR1	3	R1108J
670.735	21.648	678217	PROB	21.648	n/a	n/a	-999	5	[3, 5, 6]	14	FR1	3	R1108J
692.383	0.006	699864	STOP	n/a	n/a	n/a	-999	5	[-999, -999, -999]	n/a	FR1	3	R1108J
692.389	1.084	699870	DISTRACT_END	n/a	n/a	n/a	-999	5	[0, 0, 0]	n/a	FR1	3	R1108J
693.473	2.346	700954	REC_START	n/a	n/a	n/a	-999	5	[0, 0, 0]	n/a	FR1	3	R1108J
695.819	1.273	703300	REC_WORD	1.273	n/a	BAT	-999	5	[0, 0, 0]	n/a	FR1	3	R1108J
697.092	3.118	704573	REC_WORD_VV	3.118	n/a	<>	-999	5	[0, 0, 0]	n/a	FR1	3	R1108J
700.21	23.276	707691	REC_WORD	23.276	n/a	SOUP	-999	5	[0, 0, 0]	n/a	FR1	3	R1108J
723.486	4.523	730967	REC_END	n/a	n/a	n/a	-999	5	[0, 0, 0]	n/a	FR1	3	R1108J
728.009	0.0	735490	COUNTDOWN_START	n/a	n/a	n/a	-999	6	[0, 0, 0]	n/a	FR1	3	R1108J
728.009	10.428	735490	TRIAL	n/a	n/a	n/a	-999	6	[0, 0, 0]	n/a	FR1	3	R1108J
738.437	0.008	745918	COUNTDOWN_END	n/a	n/a	n/a	-999	6	[0, 0, 0]	n/a	FR1	3	R1108J
738.445	3.934	745926	ORIENT	n/a	n/a	n/a	-999	6	[0, 0, 0]	n/a	FR1	3	R1108J
742.379	2.516	749860	WORD	n/a	wordpools/wordpool_EN.txt	SHEET	1	6	[0, 0, 0]	n/a	FR1	3	R1108J
744.895	2.618	752376	WORD	n/a	wordpools/wordpool_EN.txt	RAIN	2	6	[0, 0, 0]	n/a	FR1	3	R1108J
747.513	2.566	754994	WORD	n/a	wordpools/wordpool_EN.txt	BEAR	3	6	[0, 0, 0]	n/a	FR1	3	R1108J
750.079	2.451	757560	WORD	n/a	wordpools/wordpool_EN.txt	DRESS	4	6	[0, 0, 0]	n/a	FR1	3	R1108J
752.53	2.617	760011	WORD	n/a	wordpools/wordpool_EN.txt	BUSH	5	6	[0, 0, 0]	n/a	FR1	3	R1108J
755.147	2.549	762628	WORD	n/a	wordpools/wordpool_EN.txt	PIT	6	6	[0, 0, 0]	n/a	FR1	3	R1108J
757.696	2.569	765177	WORD	n/a	wordpools/wordpool_EN.txt	CUBE	7	6	[0, 0, 0]	n/a	FR1	3	R1108J
760.265	2.382	767746	WORD	n/a	wordpools/wordpool_EN.txt	SMILE	8	6	[0, 0, 0]	n/a	FR1	3	R1108J
762.647	2.552	770128	WORD	n/a	wordpools/wordpool_EN.txt	CROWN	9	6	[0, 0, 0]	n/a	FR1	3	R1108J
765.199	2.449	772680	WORD	n/a	wordpools/wordpool_EN.txt	GLASS	10	6	[0, 0, 0]	n/a	FR1	3	R1108J
767.648	2.518	775129	WORD	n/a	wordpools/wordpool_EN.txt	PARK	11	6	[0, 0, 0]	n/a	FR1	3	R1108J
770.166	1.616	777647	WORD	n/a	wordpools/wordpool_EN.txt	EGG	12	6	[0, 0, 0]	n/a	FR1	3	R1108J
771.782	0.0	779263	DISTRACT_START	n/a	n/a	n/a	-999	6	[0, 0, 0]	n/a	FR1	3	R1108J
771.782	0.016	779263	START	n/a	n/a	n/a	-999	6	[-999, -999, -999]	n/a	FR1	3	R1108J
771.798	10.768	779279	PROB	10.768	n/a	n/a	-999	6	[3, 1, 4]	8	FR1	3	R1108J
782.566	18.468	790047	PROB	18.468	n/a	n/a	-999	6	[3, 6, 9]	18	FR1	3	R1108J
801.034	0.018	808515	STOP	n/a	n/a	n/a	-999	6	[-999, -999, -999]	n/a	FR1	3	R1108J
801.052	1.185	808533	DISTRACT_END	n/a	n/a	n/a	-999	6	[0, 0, 0]	n/a	FR1	3	R1108J
802.237	5.106	809718	REC_START	n/a	n/a	n/a	-999	6	[0, 0, 0]	n/a	FR1	3	R1108J
807.343	2.001	814824	REC_WORD	2.001	n/a	GLASS	-999	6	[0, 0, 0]	n/a	FR1	3	R1108J
809.344	22.907	816825	REC_WORD_VV	22.907	n/a	<>	-999	6	[0, 0, 0]	n/a	FR1	3	R1108J
832.251	3.207	839731	REC_END	n/a	n/a	n/a	-999	6	[0, 0, 0]	n/a	FR1	3	R1108J
835.458	0.0	842938	TRIAL	n/a	n/a	n/a	-999	7	[0, 0, 0]	n/a	FR1	3	R1108J
835.458	10.428	842938	COUNTDOWN_START	n/a	n/a	n/a	-999	7	[0, 0, 0]	n/a	FR1	3	R1108J
845.886	0.005	853366	COUNTDOWN_END	n/a	n/a	n/a	-999	7	[0, 0, 0]	n/a	FR1	3	R1108J
845.891	3.618	853371	ORIENT	n/a	n/a	n/a	-999	7	[0, 0, 0]	n/a	FR1	3	R1108J
849.509	2.466	856989	WORD	n/a	wordpools/wordpool_EN.txt	ARM	1	7	[0, 0, 0]	n/a	FR1	3	R1108J
851.975	2.402	859455	WORD	n/a	wordpools/wordpool_EN.txt	FOX	2	7	[0, 0, 0]	n/a	FR1	3	R1108J
854.377	2.582	861857	WORD	n/a	wordpools/wordpool_EN.txt	VEST	3	7	[0, 0, 0]	n/a	FR1	3	R1108J
856.959	2.518	864439	WORD	n/a	wordpools/wordpool_EN.txt	SHIRT	4	7	[0, 0, 0]	n/a	FR1	3	R1108J
859.477	2.45	866957	WORD	n/a	wordpools/wordpool_EN.txt	LOCK	5	7	[0, 0, 0]	n/a	FR1	3	R1108J
861.927	2.534	869407	WORD	n/a	wordpools/wordpool_EN.txt	JEEP	6	7	[0, 0, 0]	n/a	FR1	3	R1108J
864.461	2.533	871941	WORD	n/a	wordpools/wordpool_EN.txt	LEG	7	7	[0, 0, 0]	n/a	FR1	3	R1108J
866.994	2.384	874474	WORD	n/a	wordpools/wordpool_EN.txt	SHOE	8	7	[0, 0, 0]	n/a	FR1	3	R1108J
869.378	2.383	876858	WORD	n/a	wordpools/wordpool_EN.txt	BRICK	9	7	[0, 0, 0]	n/a	FR1	3	R1108J
871.761	2.452	879241	WORD	n/a	wordpools/wordpool_EN.txt	MOOSE	10	7	[0, 0, 0]	n/a	FR1	3	R1108J
874.213	2.515	881693	WORD	n/a	wordpools/wordpool_EN.txt	STEAK	11	7	[0, 0, 0]	n/a	FR1	3	R1108J
876.728	1.601	884208	WORD	n/a	wordpools/wordpool_EN.txt	DOLL	12	7	[0, 0, 0]	n/a	FR1	3	R1108J
878.329	0.001	885809	DISTRACT_START	n/a	n/a	n/a	-999	7	[0, 0, 0]	n/a	FR1	3	R1108J
878.33	0.016	885810	START	n/a	n/a	n/a	-999	7	[-999, -999, -999]	n/a	FR1	3	R1108J
878.346	4.633	885826	PROB	4.633	n/a	n/a	-999	7	[1, 4, 4]	9	FR1	3	R1108J
882.979	5.718	890459	PROB	5.718	n/a	n/a	-999	7	[1, 5, 2]	8	FR1	3	R1108J
888.697	9.908	896177	PROB	9.908	n/a	n/a	-999	7	[2, 6, 5]	13	FR1	3	R1108J
898.605	0.009	906085	STOP	n/a	n/a	n/a	-999	7	[-999, -999, -999]	n/a	FR1	3	R1108J
898.614	1.068	906094	DISTRACT_END	n/a	n/a	n/a	-999	7	[0, 0, 0]	n/a	FR1	3	R1108J
899.682	2.901	907162	REC_START	n/a	n/a	n/a	-999	7	[0, 0, 0]	n/a	FR1	3	R1108J
902.583	2.446	910063	REC_WORD	2.446	n/a	MOOSE	-999	7	[0, 0, 0]	n/a	FR1	3	R1108J
905.029	3.763	912509	REC_WORD_VV	3.763	n/a	<>	-999	7	[0, 0, 0]	n/a	FR1	3	R1108J
908.792	2.311	916272	REC_WORD	2.311	n/a	DOLL	-999	7	[0, 0, 0]	n/a	FR1	3	R1108J
911.103	2.346	918583	REC_WORD	2.346	n/a	STEAK	-999	7	[0, 0, 0]	n/a	FR1	3	R1108J
913.449	16.242	920929	REC_WORD_VV	16.242	n/a	<>	-999	7	[0, 0, 0]	n/a	FR1	3	R1108J
929.691	5.062	937171	REC_END	n/a	n/a	n/a	-999	7	[0, 0, 0]	n/a	FR1	3	R1108J
934.753	0.0	942233	COUNTDOWN_START	n/a	n/a	n/a	-999	8	[0, 0, 0]	n/a	FR1	3	R1108J
934.753	10.428	942233	TRIAL	n/a	n/a	n/a	-999	8	[0, 0, 0]	n/a	FR1	3	R1108J
945.181	0.007	952661	COUNTDOWN_END	n/a	n/a	n/a	-999	8	[0, 0, 0]	n/a	FR1	3	R1108J
945.188	3.583	952668	ORIENT	n/a	n/a	n/a	-999	8	[0, 0, 0]	n/a	FR1	3	R1108J
948.771	2.501	956251	WORD	n/a	wordpools/wordpool_EN.txt	FOOD	1	8	[0, 0, 0]	n/a	FR1	3	R1108J
951.272	2.55	958752	WORD	n/a	wordpools/wordpool_EN.txt	SALT	2	8	[0, 0, 0]	n/a	FR1	3	R1108J
953.822	2.434	961302	WORD	n/a	wordpools/wordpool_EN.txt	MOTH	3	8	[0, 0, 0]	n/a	FR1	3	R1108J
956.256	2.533	963736	WORD	n/a	wordpools/wordpool_EN.txt	JET	4	8	[0, 0, 0]	n/a	FR1	3	R1108J
958.789	2.468	966268	WORD	n/a	wordpools/wordpool_EN.txt	FILM	5	8	[0, 0, 0]	n/a	FR1	3	R1108J
961.257	2.616	968736	WORD	n/a	wordpools/wordpool_EN.txt	SQUARE	6	8	[0, 0, 0]	n/a	FR1	3	R1108J
963.873	2.551	971352	WORD	n/a	wordpools/wordpool_EN.txt	BLUSH	7	8	[0, 0, 0]	n/a	FR1	3	R1108J
966.424	2.599	973903	WORD	n/a	wordpools/wordpool_EN.txt	LAND	8	8	[0, 0, 0]	n/a	FR1	3	R1108J
969.023	2.601	976502	WORD	n/a	wordpools/wordpool_EN.txt	PET	9	8	[0, 0, 0]	n/a	FR1	3	R1108J
971.624	2.568	979103	WORD	n/a	wordpools/wordpool_EN.txt	BRIDGE	10	8	[0, 0, 0]	n/a	FR1	3	R1108J
974.192	2.549	981671	WORD	n/a	wordpools/wordpool_EN.txt	WING	11	8	[0, 0, 0]	n/a	FR1	3	R1108J
976.741	1.618	984220	WORD	n/a	wordpools/wordpool_EN.txt	WOLF	12	8	[0, 0, 0]	n/a	FR1	3	R1108J
978.359	0.001	985838	DISTRACT_START	n/a	n/a	n/a	-999	8	[0, 0, 0]	n/a	FR1	3	R1108J
978.36	0.016	985839	START	n/a	n/a	n/a	-999	8	[-999, -999, -999]	n/a	FR1	3	R1108J
978.376	6.666	985855	PROB	6.666	n/a	n/a	-999	8	[7, 2, 5]	14	FR1	3	R1108J
985.042	68.118	992521	PROB	68.118	n/a	n/a	-999	8	[8, 7, 5]	20	FR1	3	R1108J
1053.16	0.009	1060639	STOP	n/a	n/a	n/a	-999	8	[-999, -999, -999]	n/a	FR1	3	R1108J
1053.169	1.167	1060648	DISTRACT_END	n/a	n/a	n/a	-999	8	[0, 0, 0]	n/a	FR1	3	R1108J
1054.336	5.466	1061815	REC_START	n/a	n/a	n/a	-999	8	[0, 0, 0]	n/a	FR1	3	R1108J
1059.802	1.392	1067281	REC_WORD	1.392	n/a	WOLF	-999	8	[0, 0, 0]	n/a	FR1	3	R1108J
1061.194	23.156	1068673	REC_WORD_VV	23.156	n/a	<>	-999	8	[0, 0, 0]	n/a	FR1	3	R1108J
1084.35	4.807	1091829	REC_END	n/a	n/a	n/a	-999	8	[0, 0, 0]	n/a	FR1	3	R1108J
1089.157	0.0	1096636	TRIAL	n/a	n/a	n/a	-999	9	[0, 0, 0]	n/a	FR1	3	R1108J
1089.157	10.428	1096636	COUNTDOWN_START	n/a	n/a	n/a	-999	9	[0, 0, 0]	n/a	FR1	3	R1108J
1099.585	0.005	1107063	COUNTDOWN_END	n/a	n/a	n/a	-999	9	[0, 0, 0]	n/a	FR1	3	R1108J
1099.59	3.501	1107068	ORIENT	n/a	n/a	n/a	-999	9	[0, 0, 0]	n/a	FR1	3	R1108J
1103.091	2.617	1110569	WORD	n/a	wordpools/wordpool_EN.txt	LAMB	1	9	[0, 0, 0]	n/a	FR1	3	R1108J
1105.708	2.383	1113186	WORD	n/a	wordpools/wordpool_EN.txt	GOAT	2	9	[0, 0, 0]	n/a	FR1	3	R1108J
1108.091	2.402	1115569	WORD	n/a	wordpools/wordpool_EN.txt	SPEAR	3	9	[0, 0, 0]	n/a	FR1	3	R1108J
1110.493	2.432	1117971	WORD	n/a	wordpools/wordpool_EN.txt	SEAT	4	9	[0, 0, 0]	n/a	FR1	3	R1108J
1112.925	2.402	1120403	WORD	n/a	wordpools/wordpool_EN.txt	STEAM	5	9	[0, 0, 0]	n/a	FR1	3	R1108J
1115.327	2.599	1122805	WORD	n/a	wordpools/wordpool_EN.txt	ARK	6	9	[0, 0, 0]	n/a	FR1	3	R1108J
1117.926	2.551	1125404	WORD	n/a	wordpools/wordpool_EN.txt	LIP	7	9	[0, 0, 0]	n/a	FR1	3	R1108J
1120.477	2.516	1127955	WORD	n/a	wordpools/wordpool_EN.txt	FACE	8	9	[0, 0, 0]	n/a	FR1	3	R1108J
1122.993	2.468	1130471	WORD	n/a	wordpools/wordpool_EN.txt	DESK	9	9	[0, 0, 0]	n/a	FR1	3	R1108J
1125.461	2.516	1132939	WORD	n/a	wordpools/wordpool_EN.txt	LAMP	10	9	[0, 0, 0]	n/a	FR1	3	R1108J
1127.977	2.601	1135455	WORD	n/a	wordpools/wordpool_EN.txt	SHIELD	11	9	[0, 0, 0]	n/a	FR1	3	R1108J
1130.578	1.617	1138056	WORD	n/a	wordpools/wordpool_EN.txt	SWORD	12	9	[0, 0, 0]	n/a	FR1	3	R1108J
1132.195	0.001	1139673	DISTRACT_START	n/a	n/a	n/a	-999	9	[0, 0, 0]	n/a	FR1	3	R1108J
1132.196	0.016	1139674	START	n/a	n/a	n/a	-999	9	[-999, -999, -999]	n/a	FR1	3	R1108J
1132.212	21.543	1139690	PROB	21.543	n/a	n/a	-999	9	[8, 1, 5]	14	FR1	3	R1108J
1153.755	0.009	1161233	STOP	n/a	n/a	n/a	-999	9	[-999, -999, -999]	n/a	FR1	3	R1108J
1153.764	1.051	1161242	DISTRACT_END	n/a	n/a	n/a	-999	9	[0, 0, 0]	n/a	FR1	3	R1108J
1154.815	30.0	1162293	REC_START	n/a	n/a	n/a	-999	9	[0, 0, 0]	n/a	FR1	3	R1108J
1184.815	0.009	1192293	REC_WORD_VV	0.009	n/a	<>	-999	9	[0, 0, 0]	n/a	FR1	3	R1108J
1184.824	5.579	1192302	REC_END	n/a	n/a	n/a	-999	9	[0, 0, 0]	n/a	FR1	3	R1108J
1190.403	0.0	1197881	TRIAL	n/a	n/a	n/a	-999	10	[0, 0, 0]	n/a	FR1	3	R1108J
1190.403	10.428	1197881	COUNTDOWN_START	n/a	n/a	n/a	-999	10	[0, 0, 0]	n/a	FR1	3	R1108J
1200.831	0.006	1208309	COUNTDOWN_END	n/a	n/a	n/a	-999	10	[0, 0, 0]	n/a	FR1	3	R1108J
1200.837	3.734	1208315	ORIENT	n/a	n/a	n/a	-999	10	[0, 0, 0]	n/a	FR1	3	R1108J
1204.571	2.45	1212049	WORD	n/a	wordpools/wordpool_EN.txt	ZOO	1	10	[0, 0, 0]	n/a	FR1	3	R1108J
1207.021	2.6	1214499	WORD	n/a	wordpools/wordpool_EN.txt	WHALE	2	10	[0, 0, 0]	n/a	FR1	3	R1108J
1209.621	2.635	1217099	WORD	n/a	wordpools/wordpool_EN.txt	JAIL	3	10	[0, 0, 0]	n/a	FR1	3	R1108J
1212.256	2.399	1219734	WORD	n/a	wordpools/wordpool_EN.txt	WALL	4	10	[0, 0, 0]	n/a	FR1	3	R1108J
1214.655	2.4	1222133	WORD	n/a	wordpools/wordpool_EN.txt	CAR	5	10	[0, 0, 0]	n/a	FR1	3	R1108J
1217.055	2.451	1224533	WORD	n/a	wordpools/wordpool_EN.txt	INK	6	10	[0, 0, 0]	n/a	FR1	3	R1108J
1219.506	2.4	1226984	WORD	n/a	wordpools/wordpool_EN.txt	GLOVE	7	10	[0, 0, 0]	n/a	FR1	3	R1108J
1221.906	2.385	1229384	WORD	n/a	wordpools/wordpool_EN.txt	OWL	8	10	[0, 0, 0]	n/a	FR1	3	R1108J
1224.291	2.432	1231769	WORD	n/a	wordpools/wordpool_EN.txt	CAPE	9	10	[0, 0, 0]	n/a	FR1	3	R1108J
1226.723	2.552	1234201	WORD	n/a	wordpools/wordpool_EN.txt	CHIEF	10	10	[0, 0, 0]	n/a	FR1	3	R1108J
1229.275	2.516	1236753	WORD	n/a	wordpools/wordpool_EN.txt	EAR	11	10	[0, 0, 0]	n/a	FR1	3	R1108J
1231.791	1.617	1239269	WORD	n/a	wordpools/wordpool_EN.txt	MAP	12	10	[0, 0, 0]	n/a	FR1	3	R1108J
1233.408	0.001	1240886	DISTRACT_START	n/a	n/a	n/a	-999	10	[0, 0, 0]	n/a	FR1	3	R1108J
1233.409	0.016	1240887	START	n/a	n/a	n/a	-999	10	[-999, -999, -999]	n/a	FR1	3	R1108J
1233.425	4.834	1240903	PROB	4.834	n/a	n/a	-999	10	[2, 7, 2]	11	FR1	3	R1108J
1238.259	29.236	1245737	PROB	29.236	n/a	n/a	-999	10	[8, 6, 8]	22	FR1	3	R1108J
1267.495	0.018	1274972	STOP	n/a	n/a	n/a	-999	10	[-999, -999, -999]	n/a	FR1	3	R1108J
1267.513	1.017	1274990	DISTRACT_END	n/a	n/a	n/a	-999	10	[0, 0, 0]	n/a	FR1	3	R1108J
1268.53	1.694	1276007	REC_START	n/a	n/a	n/a	-999	10	[0, 0, 0]	n/a	FR1	3	R1108J
1270.224	1.843	1277701	REC_WORD	1.843	n/a	OWL	-999	10	[0, 0, 0]	n/a	FR1	3	R1108J
1272.067	26.473	1279544	REC_WORD_VV	26.473	n/a	<>	-999	10	[0, 0, 0]	n/a	FR1	3	R1108J
1298.54	5.778	1306017	REC_END	n/a	n/a	n/a	-999	10	[0, 0, 0]	n/a	FR1	3	R1108J
1304.318	0.0	1311795	TRIAL	n/a	n/a	n/a	-999	11	[0, 0, 0]	n/a	FR1	3	R1108J
1304.318	10.428	1311795	COUNTDOWN_START	n/a	n/a	n/a	-999	11	[0, 0, 0]	n/a	FR1	3	R1108J
1314.746	0.005	1322223	COUNTDOWN_END	n/a	n/a	n/a	-999	11	[0, 0, 0]	n/a	FR1	3	R1108J
1314.751	3.718	1322228	ORIENT	n/a	n/a	n/a	-999	11	[0, 0, 0]	n/a	FR1	3	R1108J
1318.469	2.566	1325946	WORD	n/a	wordpools/wordpool_EN.txt	CLOUD	1	11	[0, 0, 0]	n/a	FR1	3	R1108J
1321.035	2.468	1328512	WORD	n/a	wordpools/wordpool_EN.txt	SEED	2	11	[0, 0, 0]	n/a	FR1	3	R1108J
1323.503	2.516	1330980	WORD	n/a	wordpools/wordpool_EN.txt	RAT	3	11	[0, 0, 0]	n/a	FR1	3	R1108J
1326.019	2.567	1333496	WORD	n/a	wordpools/wordpool_EN.txt	SWAMP	4	11	[0, 0, 0]	n/a	FR1	3	R1108J
1328.586	2.434	1336063	WORD	n/a	wordpools/wordpool_EN.txt	CHALK	5	11	[0, 0, 0]	n/a	FR1	3	R1108J
1331.02	2.584	1338497	WORD	n/a	wordpools/wordpool_EN.txt	SHARK	6	11	[0, 0, 0]	n/a	FR1	3	R1108J
1333.604	2.617	1341081	WORD	n/a	wordpools/wordpool_EN.txt	FLAG	7	11	[0, 0, 0]	n/a	FR1	3	R1108J
1336.221	2.566	1343698	WORD	n/a	wordpools/wordpool_EN.txt	SPARK	8	11	[0, 0, 0]	n/a	FR1	3	R1108J
1338.787	2.602	1346264	WORD	n/a	wordpools/wordpool_EN.txt	SHEEP	9	11	[0, 0, 0]	n/a	FR1	3	R1108J
1341.389	2.566	1348866	WORD	n/a	wordpools/wordpool_EN.txt	CANE	10	11	[0, 0, 0]	n/a	FR1	3	R1108J
1343.955	2.534	1351432	WORD	n/a	wordpools/wordpool_EN.txt	SNAIL	11	11	[0, 0, 0]	n/a	FR1	3	R1108J
1346.489	1.617	1353966	WORD	n/a	wordpools/wordpool_EN.txt	FARM	12	11	[0, 0, 0]	n/a	FR1	3	R1108J
1348.106	0.001	1355583	DISTRACT_START	n/a	n/a	n/a	-999	11	[0, 0, 0]	n/a	FR1	3	R1108J
1348.107	0.016	1355584	START	n/a	n/a	n/a	-999	11	[-999, -999, -999]	n/a	FR1	3	R1108J
1348.123	6.6	1355600	PROB	6.6	n/a	n/a	-999	11	[9, 5, 5]	19	FR1	3	R1108J
1354.723	15.392	1362200	PROB	15.392	n/a	n/a	-999	11	[5, 8, 7]	20	FR1	3	R1108J
1370.115	0.011	1377592	STOP	n/a	n/a	n/a	-999	11	[-999, -999, -999]	n/a	FR1	3	R1108J
1370.126	1.034	1377603	DISTRACT_END	n/a	n/a	n/a	-999	11	[0, 0, 0]	n/a	FR1	3	R1108J
1371.16	11.368	1378637	REC_START	n/a	n/a	n/a	-999	11	[0, 0, 0]	n/a	FR1	3	R1108J
1382.528	1.3	1390004	REC_WORD	1.3	n/a	SHEEP	-999	11	[0, 0, 0]	n/a	FR1	3	R1108J
1383.828	17.342	1391304	REC_WORD_VV	17.342	n/a	<>	-999	11	[0, 0, 0]	n/a	FR1	3	R1108J
1401.17	6.843	1408646	REC_END	n/a	n/a	n/a	-999	11	[0, 0, 0]	n/a	FR1	3	R1108J
1408.013	0.0	1415489	TRIAL	n/a	n/a	n/a	-999	12	[0, 0, 0]	n/a	FR1	3	R1108J
1408.013	10.428	1415489	COUNTDOWN_START	n/a	n/a	n/a	-999	12	[0, 0, 0]	n/a	FR1	3	R1108J
1418.441	0.008	1425917	COUNTDOWN_END	n/a	n/a	n/a	-999	12	[0, 0, 0]	n/a	FR1	3	R1108J
1418.449	3.449	1425925	ORIENT	n/a	n/a	n/a	-999	12	[0, 0, 0]	n/a	FR1	3	R1108J
1421.898	2.402	1429374	WORD	n/a	wordpools/wordpool_EN.txt	HOLE	1	12	[0, 0, 0]	n/a	FR1	3	R1108J
1424.3	2.565	1431776	WORD	n/a	wordpools/wordpool_EN.txt	HOOK	2	12	[0, 0, 0]	n/a	FR1	3	R1108J
1426.865	2.402	1434341	WORD	n/a	wordpools/wordpool_EN.txt	FISH	3	12	[0, 0, 0]	n/a	FR1	3	R1108J
1429.267	2.449	1436743	WORD	n/a	wordpools/wordpool_EN.txt	VINE	4	12	[0, 0, 0]	n/a	FR1	3	R1108J
1431.716	2.485	1439192	WORD	n/a	wordpools/wordpool_EN.txt	STREET	5	12	[0, 0, 0]	n/a	FR1	3	R1108J
1434.201	2.482	1441677	WORD	n/a	wordpools/wordpool_EN.txt	THREAD	6	12	[0, 0, 0]	n/a	FR1	3	R1108J
1436.683	2.552	1444159	WORD	n/a	wordpools/wordpool_EN.txt	COUCH	7	12	[0, 0, 0]	n/a	FR1	3	R1108J
1439.235	2.499	1446711	WORD	n/a	wordpools/wordpool_EN.txt	NOSE	8	12	[0, 0, 0]	n/a	FR1	3	R1108J
1441.734	2.485	1449210	WORD	n/a	wordpools/wordpool_EN.txt	DIME	9	12	[0, 0, 0]	n/a	FR1	3	R1108J
1444.219	2.515	1451695	WORD	n/a	wordpools/wordpool_EN.txt	FLUTE	10	12	[0, 0, 0]	n/a	FR1	3	R1108J
1446.734	2.369	1454210	WORD	n/a	wordpools/wordpool_EN.txt	CHIN	11	12	[0, 0, 0]	n/a	FR1	3	R1108J
1449.103	1.615	1456579	WORD	n/a	wordpools/wordpool_EN.txt	MAT	12	12	[0, 0, 0]	n/a	FR1	3	R1108J
1450.718	0.001	1458194	DISTRACT_START	n/a	n/a	n/a	-999	12	[0, 0, 0]	n/a	FR1	3	R1108J
1450.719	0.016	1458195	START	n/a	n/a	n/a	-999	12	[-999, -999, -999]	n/a	FR1	3	R1108J
1450.735	19.437	1458211	PROB	19.437	n/a	n/a	-999	12	[9, 6, 4]	18	FR1	3	R1108J
1470.172	18.777	1477648	PROB	18.777	n/a	n/a	-999	12	[7, 5, 2]	14	FR1	3	R1108J
1488.949	0.008	1496425	STOP	n/a	n/a	n/a	-999	12	[-999, -999, -999]	n/a	FR1	3	R1108J
1488.957	1.034	1496433	DISTRACT_END	n/a	n/a	n/a	-999	12	[0, 0, 0]	n/a	FR1	3	R1108J
1489.991	2.711	1497467	REC_START	n/a	n/a	n/a	-999	12	[0, 0, 0]	n/a	FR1	3	R1108J
1492.702	27.299	1500178	REC_WORD_VV	27.299	n/a	<>	-999	12	[0, 0, 0]	n/a	FR1	3	R1108J
1520.001	7.162	1527476	REC_END	n/a	n/a	n/a	-999	12	[0, 0, 0]	n/a	FR1	3	R1108J
1527.163	0.0	1534638	TRIAL	n/a	n/a	n/a	-999	13	[0, 0, 0]	n/a	FR1	3	R1108J
1527.163	10.428	1534638	COUNTDOWN_START	n/a	n/a	n/a	-999	13	[0, 0, 0]	n/a	FR1	3	R1108J
1537.591	0.005	1545066	COUNTDOWN_END	n/a	n/a	n/a	-999	13	[0, 0, 0]	n/a	FR1	3	R1108J
1537.596	3.752	1545071	ORIENT	n/a	n/a	n/a	-999	13	[0, 0, 0]	n/a	FR1	3	R1108J
1541.348	2.449	1548823	WORD	n/a	wordpools/wordpool_EN.txt	SPOON	1	13	[0, 0, 0]	n/a	FR1	3	R1108J
1543.797	2.468	1551272	WORD	n/a	wordpools/wordpool_EN.txt	BARN	2	13	[0, 0, 0]	n/a	FR1	3	R1108J
1546.265	2.566	1553740	WORD	n/a	wordpools/wordpool_EN.txt	RUG	3	13	[0, 0, 0]	n/a	FR1	3	R1108J
1548.831	2.518	1556306	WORD	n/a	wordpools/wordpool_EN.txt	BED	4	13	[0, 0, 0]	n/a	FR1	3	R1108J
1551.349	2.449	1558824	WORD	n/a	wordpools/wordpool_EN.txt	ROPE	5	13	[0, 0, 0]	n/a	FR1	3	R1108J
1553.798	2.552	1561273	WORD	n/a	wordpools/wordpool_EN.txt	TOY	6	13	[0, 0, 0]	n/a	FR1	3	R1108J
1556.35	2.582	1563825	WORD	n/a	wordpools/wordpool_EN.txt	LAWN	7	13	[0, 0, 0]	n/a	FR1	3	R1108J
1558.932	2.535	1566407	WORD	n/a	wordpools/wordpool_EN.txt	PIPE	8	13	[0, 0, 0]	n/a	FR1	3	R1108J
1561.467	2.549	1568942	WORD	n/a	wordpools/wordpool_EN.txt	CALF	9	13	[0, 0, 0]	n/a	FR1	3	R1108J
1564.016	2.435	1571491	WORD	n/a	wordpools/wordpool_EN.txt	BOY	10	13	[0, 0, 0]	n/a	FR1	3	R1108J
1566.451	2.516	1573926	WORD	n/a	wordpools/wordpool_EN.txt	CHEEK	11	13	[0, 0, 0]	n/a	FR1	3	R1108J
1568.967	1.617	1576442	WORD	n/a	wordpools/wordpool_EN.txt	DOG	12	13	[0, 0, 0]	n/a	FR1	3	R1108J
1570.584	0.0	1578059	DISTRACT_START	n/a	n/a	n/a	-999	13	[0, 0, 0]	n/a	FR1	3	R1108J
1570.584	0.016	1578059	START	n/a	n/a	n/a	-999	13	[-999, -999, -999]	n/a	FR1	3	R1108J
1570.6	4.952	1578075	PROB	4.952	n/a	n/a	-999	13	[2, 5, 2]	9	FR1	3	R1108J
1575.552	10.284	1583027	PROB	10.284	n/a	n/a	-999	13	[2, 9, 1]	12	FR1	3	R1108J
1585.836	8.566	1593311	PROB	8.566	n/a	n/a	-999	13	[1, 1, 8]	10	FR1	3	R1108J
1594.402	0.019	1601877	STOP	n/a	n/a	n/a	-999	13	[-999, -999, -999]	n/a	FR1	3	R1108J
1594.421	1.15	1601896	DISTRACT_END	n/a	n/a	n/a	-999	13	[0, 0, 0]	n/a	FR1	3	R1108J
1595.571	30.011	1603046	REC_START	n/a	n/a	n/a	-999	13	[0, 0, 0]	n/a	FR1	3	R1108J
1625.582	0.002	1633057	REC_WORD_VV	0.002	n/a	<>	-999	13	[0, 0, 0]	n/a	FR1	3	R1108J
1625.584	6.542	1633059	REC_END	n/a	n/a	n/a	-999	13	[0, 0, 0]	n/a	FR1	3	R1108J
1632.126	0.0	1639601	COUNTDOWN_START	n/a	n/a	n/a	-999	14	[0, 0, 0]	n/a	FR1	3	R1108J
1632.126	10.428	1639601	TRIAL	n/a	n/a	n/a	-999	14	[0, 0, 0]	n/a	FR1	3	R1108J
1642.554	0.006	1650029	COUNTDOWN_END	n/a	n/a	n/a	-999	14	[0, 0, 0]	n/a	FR1	3	R1108J
1642.56	3.601	1650035	ORIENT	n/a	n/a	n/a	-999	14	[0, 0, 0]	n/a	FR1	3	R1108J
1646.161	2.599	1653636	WORD	n/a	wordpools/wordpool_EN.txt	SPRING	1	14	[0, 0, 0]	n/a	FR1	3	R1108J
1648.76	2.569	1656235	WORD	n/a	wordpools/wordpool_EN.txt	MILK	2	14	[0, 0, 0]	n/a	FR1	3	R1108J
1651.329	2.599	1658804	WORD	n/a	wordpools/wordpool_EN.txt	FOOT	3	14	[0, 0, 0]	n/a	FR1	3	R1108J
1653.928	2.501	1661403	WORD	n/a	wordpools/wordpool_EN.txt	SEA	4	14	[0, 0, 0]	n/a	FR1	3	R1108J
1656.429	2.399	1663904	WORD	n/a	wordpools/wordpool_EN.txt	STEM	5	14	[0, 0, 0]	n/a	FR1	3	R1108J
1658.828	2.552	1666303	WORD	n/a	wordpools/wordpool_EN.txt	ROOT	6	14	[0, 0, 0]	n/a	FR1	3	R1108J
1661.38	2.616	1668854	WORD	n/a	wordpools/wordpool_EN.txt	CAT	7	14	[0, 0, 0]	n/a	FR1	3	R1108J
1663.996	2.501	1671470	WORD	n/a	wordpools/wordpool_EN.txt	MOUTH	8	14	[0, 0, 0]	n/a	FR1	3	R1108J
1666.497	2.516	1673971	WORD	n/a	wordpools/wordpool_EN.txt	MAIL	9	14	[0, 0, 0]	n/a	FR1	3	R1108J
1669.013	2.501	1676487	WORD	n/a	wordpools/wordpool_EN.txt	COIN	10	14	[0, 0, 0]	n/a	FR1	3	R1108J
1671.514	2.433	1678988	WORD	n/a	wordpools/wordpool_EN.txt	ELF	11	14	[0, 0, 0]	n/a	FR1	3	R1108J
1673.947	1.617	1681421	WORD	n/a	wordpools/wordpool_EN.txt	GUARD	12	14	[0, 0, 0]	n/a	FR1	3	R1108J
1675.564	0.001	1683038	DISTRACT_START	n/a	n/a	n/a	-999	14	[0, 0, 0]	n/a	FR1	3	R1108J
1675.565	0.016	1683039	START	n/a	n/a	n/a	-999	14	[-999, -999, -999]	n/a	FR1	3	R1108J
1675.581	39.56	1683055	PROB	39.56	n/a	n/a	-999	14	[9, 5, 8]	21	FR1	3	R1108J
1715.141	0.012	1722615	STOP	n/a	n/a	n/a	-999	14	[-999, -999, -999]	n/a	FR1	3	R1108J
1715.153	1.068	1722627	DISTRACT_END	n/a	n/a	n/a	-999	14	[0, 0, 0]	n/a	FR1	3	R1108J
1716.221	2.633	1723695	REC_START	n/a	n/a	n/a	-999	14	[0, 0, 0]	n/a	FR1	3	R1108J
1718.854	1.16	1726328	REC_WORD	1.16	n/a	CAT	-999	14	[0, 0, 0]	n/a	FR1	3	R1108J
1720.014	4.096	1727488	REC_WORD_VV	4.096	n/a	<>	-999	14	[0, 0, 0]	n/a	FR1	3	R1108J
1724.11	1.846	1731584	REC_WORD	1.846	n/a	COIN	-999	14	[0, 0, 0]	n/a	FR1	3	R1108J
1725.956	20.275	1733430	REC_WORD_VV	20.275	n/a	<>	-999	14	[0, 0, 0]	n/a	FR1	3	R1108J
1746.231	4.877	1753705	REC_END	n/a	n/a	n/a	-999	14	[0, 0, 0]	n/a	FR1	3	R1108J
1751.108	0.0	1758582	TRIAL	n/a	n/a	n/a	-999	15	[0, 0, 0]	n/a	FR1	3	R1108J
1751.108	10.428	1758582	COUNTDOWN_START	n/a	n/a	n/a	-999	15	[0, 0, 0]	n/a	FR1	3	R1108J
1761.536	0.007	1769010	COUNTDOWN_END	n/a	n/a	n/a	-999	15	[0, 0, 0]	n/a	FR1	3	R1108J
1761.543	3.767	1769017	ORIENT	n/a	n/a	n/a	-999	15	[0, 0, 0]	n/a	FR1	3	R1108J
1765.31	2.449	1772784	WORD	n/a	wordpools/wordpool_EN.txt	BEAK	1	15	[0, 0, 0]	n/a	FR1	3	R1108J
1767.759	2.401	1775233	WORD	n/a	wordpools/wordpool_EN.txt	KEY	2	15	[0, 0, 0]	n/a	FR1	3	R1108J
1770.16	2.384	1777634	WORD	n/a	wordpools/wordpool_EN.txt	SHELL	3	15	[0, 0, 0]	n/a	FR1	3	R1108J
1772.544	2.584	1780018	WORD	n/a	wordpools/wordpool_EN.txt	BOARD	4	15	[0, 0, 0]	n/a	FR1	3	R1108J
1775.128	2.432	1782602	WORD	n/a	wordpools/wordpool_EN.txt	BOOT	5	15	[0, 0, 0]	n/a	FR1	3	R1108J
1777.56	2.585	1785034	WORD	n/a	wordpools/wordpool_EN.txt	MULE	6	15	[0, 0, 0]	n/a	FR1	3	R1108J
1780.145	2.499	1787619	WORD	n/a	wordpools/wordpool_EN.txt	JUICE	7	15	[0, 0, 0]	n/a	FR1	3	R1108J
1782.644	2.367	1790118	WORD	n/a	wordpools/wordpool_EN.txt	TRAIN	8	15	[0, 0, 0]	n/a	FR1	3	R1108J
1785.011	2.6	1792485	WORD	n/a	wordpools/wordpool_EN.txt	CRANE	9	15	[0, 0, 0]	n/a	FR1	3	R1108J
1787.611	2.519	1795085	WORD	n/a	wordpools/wordpool_EN.txt	PIN	10	15	[0, 0, 0]	n/a	FR1	3	R1108J
1790.13	2.516	1797604	WORD	n/a	wordpools/wordpool_EN.txt	TRASH	11	15	[0, 0, 0]	n/a	FR1	3	R1108J
1792.646	1.618	1800120	WORD	n/a	wordpools/wordpool_EN.txt	SHRIMP	12	15	[0, 0, 0]	n/a	FR1	3	R1108J
1794.264	0.0	1801738	DISTRACT_START	n/a	n/a	n/a	-999	15	[0, 0, 0]	n/a	FR1	3	R1108J
1794.264	0.016	1801738	START	n/a	n/a	n/a	-999	15	[-999, -999, -999]	n/a	FR1	3	R1108J
1794.28	19.652	1801754	PROB	19.652	n/a	n/a	-999	15	[3, 6, 7]	16	FR1	3	R1108J
1813.932	33.954	1821405	PROB	33.954	n/a	n/a	-999	15	[5, 9, 6]	20	FR1	3	R1108J
1847.886	0.017	1855359	STOP	n/a	n/a	n/a	-999	15	[-999, -999, -999]	n/a	FR1	3	R1108J
1847.903	1.035	1855376	DISTRACT_END	n/a	n/a	n/a	-999	15	[0, 0, 0]	n/a	FR1	3	R1108J
1848.938	2.32	1856411	REC_START	n/a	n/a	n/a	-999	15	[0, 0, 0]	n/a	FR1	3	R1108J
1851.258	19.741	1858731	REC_WORD_VV	19.741	n/a	<>	-999	15	[0, 0, 0]	n/a	FR1	3	R1108J
1870.999	2.452	1878472	REC_WORD	2.452	n/a	TRAIN	-999	15	[0, 0, 0]	n/a	FR1	3	R1108J
1873.451	5.496	1880924	REC_WORD_VV	5.496	n/a	<>	-999	15	[0, 0, 0]	n/a	FR1	3	R1108J
1878.947	4.994	1886420	REC_END	n/a	n/a	n/a	-999	15	[0, 0, 0]	n/a	FR1	3	R1108J
1883.941	0.0	1891414	TRIAL	n/a	n/a	n/a	-999	16	[0, 0, 0]	n/a	FR1	3	R1108J
1883.941	10.428	1891414	COUNTDOWN_START	n/a	n/a	n/a	-999	16	[0, 0, 0]	n/a	FR1	3	R1108J
1894.369	0.007	1901842	COUNTDOWN_END	n/a	n/a	n/a	-999	16	[0, 0, 0]	n/a	FR1	3	R1108J
1894.376	3.767	1901849	ORIENT	n/a	n/a	n/a	-999	16	[0, 0, 0]	n/a	FR1	3	R1108J
1898.143	2.401	1905616	WORD	n/a	wordpools/wordpool_EN.txt	BEAN	1	16	[0, 0, 0]	n/a	FR1	3	R1108J
1900.544	2.617	1908017	WORD	n/a	wordpools/wordpool_EN.txt	JAR	2	16	[0, 0, 0]	n/a	FR1	3	R1108J
1903.161	2.549	1910634	WORD	n/a	wordpools/wordpool_EN.txt	CLAY	3	16	[0, 0, 0]	n/a	FR1	3	R1108J
1905.71	2.551	1913183	WORD	n/a	wordpools/wordpool_EN.txt	BOX	4	16	[0, 0, 0]	n/a	FR1	3	R1108J
1908.261	2.566	1915734	WORD	n/a	wordpools/wordpool_EN.txt	TIE	5	16	[0, 0, 0]	n/a	FR1	3	R1108J
1910.827	2.435	1918300	WORD	n/a	wordpools/wordpool_EN.txt	CROW	6	16	[0, 0, 0]	n/a	FR1	3	R1108J
1913.262	2.549	1920735	WORD	n/a	wordpools/wordpool_EN.txt	CLOTH	7	16	[0, 0, 0]	n/a	FR1	3	R1108J
1915.811	2.485	1923284	WORD	n/a	wordpools/wordpool_EN.txt	DART	8	16	[0, 0, 0]	n/a	FR1	3	R1108J
1918.296	2.483	1925769	WORD	n/a	wordpools/wordpool_EN.txt	FAN	9	16	[0, 0, 0]	n/a	FR1	3	R1108J
1920.779	2.417	1928252	WORD	n/a	wordpools/wordpool_EN.txt	WAVE	10	16	[0, 0, 0]	n/a	FR1	3	R1108J
1923.196	2.434	1930669	WORD	n/a	wordpools/wordpool_EN.txt	HAND	11	16	[0, 0, 0]	n/a	FR1	3	R1108J
1925.63	1.617	1933103	WORD	n/a	wordpools/wordpool_EN.txt	CLOWN	12	16	[0, 0, 0]	n/a	FR1	3	R1108J
1927.247	0.001	1934720	DISTRACT_START	n/a	n/a	n/a	-999	16	[0, 0, 0]	n/a	FR1	3	R1108J
1927.248	0.016	1934721	START	n/a	n/a	n/a	-999	16	[-999, -999, -999]	n/a	FR1	3	R1108J
1927.264	8.666	1934737	PROB	8.666	n/a	n/a	-999	16	[7, 5, 5]	17	FR1	3	R1108J
1935.93	7.603	1943403	PROB	7.603	n/a	n/a	-999	16	[2, 3, 3]	8	FR1	3	R1108J
1943.533	5.229	1951005	PROB	5.229	n/a	n/a	-999	16	[4, 2, 4]	10	FR1	3	R1108J
1948.762	0.003	1956234	STOP	n/a	n/a	n/a	-999	16	[-999, -999, -999]	n/a	FR1	3	R1108J
1948.765	1.051	1956237	DISTRACT_END	n/a	n/a	n/a	-999	16	[0, 0, 0]	n/a	FR1	3	R1108J
1949.816	8.448	1957288	REC_START	n/a	n/a	n/a	-999	16	[0, 0, 0]	n/a	FR1	3	R1108J
1958.264	2.46	1965736	REC_WORD	2.46	n/a	BEAK	-999	16	[0, 0, 0]	n/a	FR1	3	R1108J
1960.724	19.106	1968196	REC_WORD_VV	19.106	n/a	<>	-999	16	[0, 0, 0]	n/a	FR1	3	R1108J
1979.83	3.708	1987302	REC_END	n/a	n/a	n/a	-999	16	[0, 0, 0]	n/a	FR1	3	R1108J
1983.538	0.0	1991010	TRIAL	n/a	n/a	n/a	-999	17	[0, 0, 0]	n/a	FR1	3	R1108J
1983.538	10.428	1991010	COUNTDOWN_START	n/a	n/a	n/a	-999	17	[0, 0, 0]	n/a	FR1	3	R1108J
1993.966	0.006	2001438	COUNTDOWN_END	n/a	n/a	n/a	-999	17	[0, 0, 0]	n/a	FR1	3	R1108J
1993.972	3.666	2001444	ORIENT	n/a	n/a	n/a	-999	17	[0, 0, 0]	n/a	FR1	3	R1108J
1997.638	2.535	2005110	WORD	n/a	wordpools/wordpool_EN.txt	CORD	1	17	[0, 0, 0]	n/a	FR1	3	R1108J
2000.173	2.433	2007645	WORD	n/a	wordpools/wordpool_EN.txt	POND	2	17	[0, 0, 0]	n/a	FR1	3	R1108J
2002.606	2.601	2010078	WORD	n/a	wordpools/wordpool_EN.txt	LEAF	3	17	[0, 0, 0]	n/a	FR1	3	R1108J
2005.207	2.399	2012679	WORD	n/a	wordpools/wordpool_EN.txt	DRUM	4	17	[0, 0, 0]	n/a	FR1	3	R1108J
2007.606	2.367	2015078	WORD	n/a	wordpools/wordpool_EN.txt	TOAD	5	17	[0, 0, 0]	n/a	FR1	3	R1108J
2009.973	2.452	2017445	WORD	n/a	wordpools/wordpool_EN.txt	JUDGE	6	17	[0, 0, 0]	n/a	FR1	3	R1108J
2012.425	2.399	2019897	WORD	n/a	wordpools/wordpool_EN.txt	PLANE	7	17	[0, 0, 0]	n/a	FR1	3	R1108J
2014.824	2.385	2022296	WORD	n/a	wordpools/wordpool_EN.txt	SHIP	8	17	[0, 0, 0]	n/a	FR1	3	R1108J
2017.209	2.399	2024681	WORD	n/a	wordpools/wordpool_EN.txt	HORN	9	17	[0, 0, 0]	n/a	FR1	3	R1108J
2019.608	2.417	2027080	WORD	n/a	wordpools/wordpool_EN.txt	EEL	10	17	[0, 0, 0]	n/a	FR1	3	R1108J
2022.025	2.435	2029497	WORD	n/a	wordpools/wordpool_EN.txt	HOUSE	11	17	[0, 0, 0]	n/a	FR1	3	R1108J
2024.46	1.615	2031932	WORD	n/a	wordpools/wordpool_EN.txt	HORSE	12	17	[0, 0, 0]	n/a	FR1	3	R1108J
2026.075	0.001	2033547	DISTRACT_START	n/a	n/a	n/a	-999	17	[0, 0, 0]	n/a	FR1	3	R1108J
2026.076	0.016	2033548	START	n/a	n/a	n/a	-999	17	[-999, -999, -999]	n/a	FR1	3	R1108J
2026.092	7.568	2033564	PROB	7.568	n/a	n/a	-999	17	[1, 9, 6]	16	FR1	3	R1108J
2033.66	11.435	2041132	PROB	11.435	n/a	n/a	-999	17	[6, 4, 1]	11	FR1	3	R1108J
2045.095	18.128	2052567	PROB	18.128	n/a	n/a	-999	17	[2, 2, 1]	5	FR1	3	R1108J
2063.223	0.008	2070695	STOP	n/a	n/a	n/a	-999	17	[-999, -999, -999]	n/a	FR1	3	R1108J
2063.231	1.118	2070703	DISTRACT_END	n/a	n/a	n/a	-999	17	[0, 0, 0]	n/a	FR1	3	R1108J
2064.349	4.118	2071821	REC_START	n/a	n/a	n/a	-999	17	[0, 0, 0]	n/a	FR1	3	R1108J
2068.467	1.799	2075939	REC_WORD	1.799	n/a	HORSE	-999	17	[0, 0, 0]	n/a	FR1	3	R1108J
2070.266	0.856	2077738	REC_WORD_VV	0.856	n/a	<>	-999	17	[0, 0, 0]	n/a	FR1	3	R1108J
2071.122	5.226	2078594	REC_WORD	5.226	n/a	HOUSE	-999	17	[0, 0, 0]	n/a	FR1	3	R1108J
2076.348	0.189	2083820	REC_WORD_VV	0.189	n/a	<>	-999	17	[0, 0, 0]	n/a	FR1	3	R1108J
2076.537	2.227	2084009	REC_WORD	2.227	n/a	JAR	-999	17	[0, 0, 0]	n/a	FR1	3	R1108J
2078.764	15.596	2086236	REC_WORD_VV	15.596	n/a	<>	-999	17	[0, 0, 0]	n/a	FR1	3	R1108J
2094.36	4.675	2101831	REC_END	n/a	n/a	n/a	-999	17	[0, 0, 0]	n/a	FR1	3	R1108J
2099.035	0.0	2106506	TRIAL	n/a	n/a	n/a	-999	18	[0, 0, 0]	n/a	FR1	3	R1108J
2099.035	10.428	2106506	COUNTDOWN_START	n/a	n/a	n/a	-999	18	[0, 0, 0]	n/a	FR1	3	R1108J
2109.463	0.007	2116934	COUNTDOWN_END	n/a	n/a	n/a	-999	18	[0, 0, 0]	n/a	FR1	3	R1108J
2109.47	3.617	2116941	ORIENT	n/a	n/a	n/a	-999	18	[0, 0, 0]	n/a	FR1	3	R1108J
2113.087	2.483	2120558	WORD	n/a	wordpools/wordpool_EN.txt	RIB	1	18	[0, 0, 0]	n/a	FR1	3	R1108J
2115.57	2.417	2123041	WORD	n/a	wordpools/wordpool_EN.txt	PIG	2	18	[0, 0, 0]	n/a	FR1	3	R1108J
2117.987	2.468	2125458	WORD	n/a	wordpools/wordpool_EN.txt	ROSE	3	18	[0, 0, 0]	n/a	FR1	3	R1108J
2120.455	2.483	2127926	WORD	n/a	wordpools/wordpool_EN.txt	TRUCK	4	18	[0, 0, 0]	n/a	FR1	3	R1108J
2122.938	2.535	2130409	WORD	n/a	wordpools/wordpool_EN.txt	TAIL	5	18	[0, 0, 0]	n/a	FR1	3	R1108J
2125.473	2.499	2132944	WORD	n/a	wordpools/wordpool_EN.txt	BADGE	6	18	[0, 0, 0]	n/a	FR1	3	R1108J
2127.972	2.385	2135443	WORD	n/a	wordpools/wordpool_EN.txt	STORM	7	18	[0, 0, 0]	n/a	FR1	3	R1108J
2130.357	2.516	2137828	WORD	n/a	wordpools/wordpool_EN.txt	CLIFF	8	18	[0, 0, 0]	n/a	FR1	3	R1108J
2132.873	2.618	2140344	WORD	n/a	wordpools/wordpool_EN.txt	BAND	9	18	[0, 0, 0]	n/a	FR1	3	R1108J
2135.491	2.465	2142962	WORD	n/a	wordpools/wordpool_EN.txt	ROOF	10	18	[0, 0, 0]	n/a	FR1	3	R1108J
2137.956	2.617	2145427	WORD	n/a	wordpools/wordpool_EN.txt	FUR	11	18	[0, 0, 0]	n/a	FR1	3	R1108J
2140.573	1.602	2148044	WORD	n/a	wordpools/wordpool_EN.txt	GOLD	12	18	[0, 0, 0]	n/a	FR1	3	R1108J
2142.175	0.0	2149646	DISTRACT_START	n/a	n/a	n/a	-999	18	[0, 0, 0]	n/a	FR1	3	R1108J
2142.175	0.016	2149646	START	n/a	n/a	n/a	-999	18	[-999, -999, -999]	n/a	FR1	3	R1108J
2142.191	31.698	2149662	PROB	31.698	n/a	n/a	-999	18	[7, 5, 8]	20	FR1	3	R1108J
2173.889	0.006	2181360	STOP	n/a	n/a	n/a	-999	18	[-999, -999, -999]	n/a	FR1	3	R1108J
2173.895	1.033	2181366	DISTRACT_END	n/a	n/a	n/a	-999	18	[0, 0, 0]	n/a	FR1	3	R1108J
2174.928	1.897	2182399	REC_START	n/a	n/a	n/a	-999	18	[0, 0, 0]	n/a	FR1	3	R1108J
2176.825	1.451	2184296	REC_WORD	1.451	n/a	FUR	-999	18	[0, 0, 0]	n/a	FR1	3	R1108J
2178.276	2.267	2185747	REC_WORD	2.267	n/a	ROSE	-999	18	[0, 0, 0]	n/a	FR1	3	R1108J
2180.543	2.497	2188014	REC_WORD	2.497	n/a	GOLD	-999	18	[0, 0, 0]	n/a	FR1	3	R1108J
2183.04	21.902	2190511	REC_WORD_VV	21.902	n/a	<>	-999	18	[0, 0, 0]	n/a	FR1	3	R1108J
2204.942	2.773	2212413	REC_END	n/a	n/a	n/a	-999	18	[0, 0, 0]	n/a	FR1	3	R1108J
2207.715	0.0	2215186	COUNTDOWN_START	n/a	n/a	n/a	-999	19	[0, 0, 0]	n/a	FR1	3	R1108J
2207.715	10.428	2215186	TRIAL	n/a	n/a	n/a	-999	19	[0, 0, 0]	n/a	FR1	3	R1108J
2218.143	0.008	2225614	COUNTDOWN_END	n/a	n/a	n/a	-999	19	[0, 0, 0]	n/a	FR1	3	R1108J
2218.151	3.5	2225622	ORIENT	n/a	n/a	n/a	-999	19	[0, 0, 0]	n/a	FR1	3	R1108J
2221.651	2.383	2229122	WORD	n/a	wordpools/wordpool_EN.txt	MOON	1	19	[0, 0, 0]	n/a	FR1	3	R1108J
2224.034	2.452	2231504	WORD	n/a	wordpools/wordpool_EN.txt	MAZE	2	19	[0, 0, 0]	n/a	FR1	3	R1108J
2226.486	2.432	2233956	WORD	n/a	wordpools/wordpool_EN.txt	SPONGE	3	19	[0, 0, 0]	n/a	FR1	3	R1108J
2228.918	2.385	2236388	WORD	n/a	wordpools/wordpool_EN.txt	SIGN	4	19	[0, 0, 0]	n/a	FR1	3	R1108J
2231.303	2.466	2238773	WORD	n/a	wordpools/wordpool_EN.txt	BLOOM	5	19	[0, 0, 0]	n/a	FR1	3	R1108J
2233.769	2.551	2241239	WORD	n/a	wordpools/wordpool_EN.txt	BALL	6	19	[0, 0, 0]	n/a	FR1	3	R1108J
2236.32	2.399	2243790	WORD	n/a	wordpools/wordpool_EN.txt	STAR	7	19	[0, 0, 0]	n/a	FR1	3	R1108J
2238.719	2.535	2246189	WORD	n/a	wordpools/wordpool_EN.txt	BEACH	8	19	[0, 0, 0]	n/a	FR1	3	R1108J
2241.254	2.55	2248724	WORD	n/a	wordpools/wordpool_EN.txt	NET	9	19	[0, 0, 0]	n/a	FR1	3	R1108J
2243.804	2.5	2251274	WORD	n/a	wordpools/wordpool_EN.txt	SCHOOL	10	19	[0, 0, 0]	n/a	FR1	3	R1108J
2246.304	2.5	2253774	WORD	n/a	wordpools/wordpool_EN.txt	KITE	11	19	[0, 0, 0]	n/a	FR1	3	R1108J
2248.804	1.601	2256274	WORD	n/a	wordpools/wordpool_EN.txt	BOWL	12	19	[0, 0, 0]	n/a	FR1	3	R1108J
2250.405	0.001	2257875	DISTRACT_START	n/a	n/a	n/a	-999	19	[0, 0, 0]	n/a	FR1	3	R1108J
2250.406	0.016	2257876	START	n/a	n/a	n/a	-999	19	[-999, -999, -999]	n/a	FR1	3	R1108J
2250.422	9.65	2257892	PROB	9.65	n/a	n/a	-999	19	[4, 1, 5]	10	FR1	3	R1108J
2260.072	10.693	2267542	PROB	10.693	n/a	n/a	-999	19	[8, 6, 2]	16	FR1	3	R1108J
2270.765	0.008	2278235	STOP	n/a	n/a	n/a	-999	19	[-999, -999, -999]	n/a	FR1	3	R1108J
2270.773	1.151	2278243	DISTRACT_END	n/a	n/a	n/a	-999	19	[0, 0, 0]	n/a	FR1	3	R1108J
2271.924	30.014	2279394	REC_START	n/a	n/a	n/a	-999	19	[0, 0, 0]	n/a	FR1	3	R1108J
2301.938	0.003	2309408	REC_END	n/a	n/a	n/a	-999	19	[0, 0, 0]	n/a	FR1	3	R1108J
2301.941	9.838	2309411	REC_WORD_VV	9.838	n/a	<>	-999	19	[0, 0, 0]	n/a	FR1	3	R1108J
2311.779	0.0	2319249	TRIAL	n/a	n/a	n/a	-999	20	[0, 0, 0]	n/a	FR1	3	R1108J
2311.779	10.428	2319249	COUNTDOWN_START	n/a	n/a	n/a	-999	20	[0, 0, 0]	n/a	FR1	3	R1108J
2322.207	0.007	2329677	COUNTDOWN_END	n/a	n/a	n/a	-999	20	[0, 0, 0]	n/a	FR1	3	R1108J
2322.214	3.967	2329684	ORIENT	n/a	n/a	n/a	-999	20	[0, 0, 0]	n/a	FR1	3	R1108J
2326.181	2.383	2333651	WORD	n/a	wordpools/wordpool_EN.txt	WOOD	1	20	[0, 0, 0]	n/a	FR1	3	R1108J
2328.564	2.367	2336034	WORD	n/a	wordpools/wordpool_EN.txt	WORM	2	20	[0, 0, 0]	n/a	FR1	3	R1108J
2330.931	2.602	2338401	WORD	n/a	wordpools/wordpool_EN.txt	PEAR	3	20	[0, 0, 0]	n/a	FR1	3	R1108J
2333.533	2.415	2341003	WORD	n/a	wordpools/wordpool_EN.txt	NAIL	4	20	[0, 0, 0]	n/a	FR1	3	R1108J
2335.948	2.402	2343418	WORD	n/a	wordpools/wordpool_EN.txt	PANTS	5	20	[0, 0, 0]	n/a	FR1	3	R1108J
2338.35	2.432	2345820	WORD	n/a	wordpools/wordpool_EN.txt	ROOM	6	20	[0, 0, 0]	n/a	FR1	3	R1108J
2340.782	2.368	2348252	WORD	n/a	wordpools/wordpool_EN.txt	SLUSH	7	20	[0, 0, 0]	n/a	FR1	3	R1108J
2343.15	2.567	2350620	WORD	n/a	wordpools/wordpool_EN.txt	BROOM	8	20	[0, 0, 0]	n/a	FR1	3	R1108J
2345.717	2.417	2353187	WORD	n/a	wordpools/wordpool_EN.txt	PIE	9	20	[0, 0, 0]	n/a	FR1	3	R1108J
2348.134	2.55	2355604	WORD	n/a	wordpools/wordpool_EN.txt	STAIR	10	20	[0, 0, 0]	n/a	FR1	3	R1108J
2350.684	2.4	2358154	WORD	n/a	wordpools/wordpool_EN.txt	FOG	11	20	[0, 0, 0]	n/a	FR1	3	R1108J
2353.084	1.617	2360554	WORD	n/a	wordpools/wordpool_EN.txt	SUIT	12	20	[0, 0, 0]	n/a	FR1	3	R1108J
2354.701	0.0	2362171	DISTRACT_START	n/a	n/a	n/a	-999	20	[0, 0, 0]	n/a	FR1	3	R1108J
2354.701	0.017	2362171	START	n/a	n/a	n/a	-999	20	[-999, -999, -999]	n/a	FR1	3	R1108J
2354.718	10.984	2362188	PROB	10.984	n/a	n/a	-999	20	[6, 1, 6]	13	FR1	3	R1108J
2365.702	6.685	2373171	PROB	6.685	n/a	n/a	-999	20	[8, 5, 5]	18	FR1	3	R1108J
2372.387	14.03	2379856	PROB	14.03	n/a	n/a	-999	20	[4, 6, 1]	11	FR1	3	R1108J
2386.417	0.005	2393886	STOP	n/a	n/a	n/a	-999	20	[-999, -999, -999]	n/a	FR1	3	R1108J
2386.422	1.118	2393891	DISTRACT_END	n/a	n/a	n/a	-999	20	[0, 0, 0]	n/a	FR1	3	R1108J
2387.54	1.575	2395009	REC_START	n/a	n/a	n/a	-999	20	[0, 0, 0]	n/a	FR1	3	R1108J
2389.115	0.776	2396584	REC_WORD	0.776	n/a	WOOD	-999	20	[0, 0, 0]	n/a	FR1	3	R1108J
2389.891	1.857	2397360	REC_WORD	1.857	n/a	WORM	-999	20	[0, 0, 0]	n/a	FR1	3	R1108J
2391.748	25.802	2399217	REC_WORD_VV	25.802	n/a	<>	-999	20	[0, 0, 0]	n/a	FR1	3	R1108J
2417.55	2.96	2425019	REC_END	n/a	n/a	n/a	-999	20	[0, 0, 0]	n/a	FR1	3	R1108J
2420.51	0.0	2427979	TRIAL	n/a	n/a	n/a	-999	21	[0, 0, 0]	n/a	FR1	3	R1108J
2420.51	10.428	2427979	COUNTDOWN_START	n/a	n/a	n/a	-999	21	[0, 0, 0]	n/a	FR1	3	R1108J
2430.938	0.006	2438407	COUNTDOWN_END	n/a	n/a	n/a	-999	21	[0, 0, 0]	n/a	FR1	3	R1108J
2430.944	3.502	2438413	ORIENT	n/a	n/a	n/a	-999	21	[0, 0, 0]	n/a	FR1	3	R1108J
2434.446	2.432	2441915	WORD	n/a	wordpools/wordpool_EN.txt	OAK	1	21	[0, 0, 0]	n/a	FR1	3	R1108J
2436.878	2.435	2444347	WORD	n/a	wordpools/wordpool_EN.txt	FORK	2	21	[0, 0, 0]	n/a	FR1	3	R1108J
2439.313	2.482	2446782	WORD	n/a	wordpools/wordpool_EN.txt	SKI	3	21	[0, 0, 0]	n/a	FR1	3	R1108J
2441.795	2.452	2449264	WORD	n/a	wordpools/wordpool_EN.txt	ROCK	4	21	[0, 0, 0]	n/a	FR1	3	R1108J
2444.247	2.465	2451716	WORD	n/a	wordpools/wordpool_EN.txt	FLEA	5	21	[0, 0, 0]	n/a	FR1	3	R1108J
2446.712	2.385	2454181	WORD	n/a	wordpools/wordpool_EN.txt	FORT	6	21	[0, 0, 0]	n/a	FR1	3	R1108J
2449.097	2.5	2456566	WORD	n/a	wordpools/wordpool_EN.txt	CLOCK	7	21	[0, 0, 0]	n/a	FR1	3	R1108J
2451.597	2.483	2459066	WORD	n/a	wordpools/wordpool_EN.txt	PEARL	8	21	[0, 0, 0]	n/a	FR1	3	R1108J
2454.08	2.517	2461549	WORD	n/a	wordpools/wordpool_EN.txt	FROG	9	21	[0, 0, 0]	n/a	FR1	3	R1108J
2456.597	2.417	2464066	WORD	n/a	wordpools/wordpool_EN.txt	PHONE	10	21	[0, 0, 0]	n/a	FR1	3	R1108J
2459.014	2.601	2466483	WORD	n/a	wordpools/wordpool_EN.txt	STONE	11	21	[0, 0, 0]	n/a	FR1	3	R1108J
2461.615	1.617	2469084	WORD	n/a	wordpools/wordpool_EN.txt	HEART	12	21	[0, 0, 0]	n/a	FR1	3	R1108J
2463.232	0.001	2470701	DISTRACT_START	n/a	n/a	n/a	-999	21	[0, 0, 0]	n/a	FR1	3	R1108J
2463.233	0.016	2470702	START	n/a	n/a	n/a	-999	21	[-999, -999, -999]	n/a	FR1	3	R1108J
2463.249	6.483	2470718	PROB	6.483	n/a	n/a	-999	21	[1, 4, 6]	11	FR1	3	R1108J
2469.732	16.056	2477201	PROB	16.056	n/a	n/a	-999	21	[3, 6, 7]	16	FR1	3	R1108J
2485.788	0.013	2493257	STOP	n/a	n/a	n/a	-999	21	[-999, -999, -999]	n/a	FR1	3	R1108J
2485.801	1.217	2493270	DISTRACT_END	n/a	n/a	n/a	-999	21	[0, 0, 0]	n/a	FR1	3	R1108J
2487.018	2.023	2494487	REC_START	n/a	n/a	n/a	-999	21	[0, 0, 0]	n/a	FR1	3	R1108J
2489.041	1.129	2496510	REC_WORD	1.129	n/a	PHONE	-999	21	[0, 0, 0]	n/a	FR1	3	R1108J
2490.17	6.131	2497639	REC_WORD	6.131	n/a	STONE	-999	21	[0, 0, 0]	n/a	FR1	3	R1108J
2496.301	20.729	2503770	REC_WORD	20.729	n/a	HEART	-999	21	[0, 0, 0]	n/a	FR1	3	R1108J
2517.03	2.792	2524498	REC_END	n/a	n/a	n/a	-999	21	[0, 0, 0]	n/a	FR1	3	R1108J
2519.822	0.0	2527290	TRIAL	n/a	n/a	n/a	-999	22	[0, 0, 0]	n/a	FR1	3	R1108J
2519.822	10.428	2527290	COUNTDOWN_START	n/a	n/a	n/a	-999	22	[0, 0, 0]	n/a	FR1	3	R1108J
2530.25	0.008	2537718	COUNTDOWN_END	n/a	n/a	n/a	-999	22	[0, 0, 0]	n/a	FR1	3	R1108J
2530.258	3.482	2537726	ORIENT	n/a	n/a	n/a	-999	22	[0, 0, 0]	n/a	FR1	3	R1108J
2533.74	2.585	2541208	WORD	n/a	wordpools/wordpool_EN.txt	TRAY	1	22	[0, 0, 0]	n/a	FR1	3	R1108J
2536.325	2.549	2543793	WORD	n/a	wordpools/wordpool_EN.txt	TOAST	2	22	[0, 0, 0]	n/a	FR1	3	R1108J
2538.874	2.518	2546342	WORD	n/a	wordpools/wordpool_EN.txt	WEED	3	22	[0, 0, 0]	n/a	FR1	3	R1108J
2541.392	2.517	2548860	WORD	n/a	wordpools/wordpool_EN.txt	NEST	4	22	[0, 0, 0]	n/a	FR1	3	R1108J
2543.909	2.467	2551377	WORD	n/a	wordpools/wordpool_EN.txt	SINK	5	22	[0, 0, 0]	n/a	FR1	3	R1108J
2546.376	2.616	2553844	WORD	n/a	wordpools/wordpool_EN.txt	GEESE	6	22	[0, 0, 0]	n/a	FR1	3	R1108J
2548.992	2.601	2556460	WORD	n/a	wordpools/wordpool_EN.txt	FENCE	7	22	[0, 0, 0]	n/a	FR1	3	R1108J
2551.593	2.433	2559061	WORD	n/a	wordpools/wordpool_EN.txt	BAG	8	22	[0, 0, 0]	n/a	FR1	3	R1108J
2554.026	2.534	2561494	WORD	n/a	wordpools/wordpool_EN.txt	FOAM	9	22	[0, 0, 0]	n/a	FR1	3	R1108J
2556.56	2.534	2564028	WORD	n/a	wordpools/wordpool_EN.txt	PALM	10	22	[0, 0, 0]	n/a	FR1	3	R1108J
2559.094	2.451	2566562	WORD	n/a	wordpools/wordpool_EN.txt	COW	11	22	[0, 0, 0]	n/a	FR1	3	R1108J
2561.545	1.617	2569013	WORD	n/a	wordpools/wordpool_EN.txt	SNOW	12	22	[0, 0, 0]	n/a	FR1	3	R1108J
2563.162	0.0	2570630	DISTRACT_START	n/a	n/a	n/a	-999	22	[0, 0, 0]	n/a	FR1	3	R1108J
2563.162	0.017	2570630	START	n/a	n/a	n/a	-999	22	[-999, -999, -999]	n/a	FR1	3	R1108J
2563.179	13.984	2570647	PROB	13.984	n/a	n/a	-999	22	[3, 8, 5]	16	FR1	3	R1108J
2577.163	23.676	2584631	PROB	23.676	n/a	n/a	-999	22	[4, 8, 7]	18	FR1	3	R1108J
2600.839	0.01	2608307	STOP	n/a	n/a	n/a	-999	22	[-999, -999, -999]	n/a	FR1	3	R1108J
2600.849	1.084	2608317	DISTRACT_END	n/a	n/a	n/a	-999	22	[0, 0, 0]	n/a	FR1	3	R1108J
2601.933	2.404	2609401	REC_START	n/a	n/a	n/a	-999	22	[0, 0, 0]	n/a	FR1	3	R1108J
2604.337	2.042	2611805	REC_WORD	2.042	n/a	COW	-999	22	[0, 0, 0]	n/a	FR1	3	R1108J
2606.379	25.563	2613847	REC_WORD_VV	25.563	n/a	<>	-999	22	[0, 0, 0]	n/a	FR1	3	R1108J
2631.942	4.078	2639410	REC_END	n/a	n/a	n/a	-999	22	[0, 0, 0]	n/a	FR1	3	R1108J
2636.02	0.0	2643488	TRIAL	n/a	n/a	n/a	-999	23	[0, 0, 0]	n/a	FR1	3	R1108J
2636.02	10.428	2643488	COUNTDOWN_START	n/a	n/a	n/a	-999	23	[0, 0, 0]	n/a	FR1	3	R1108J
2646.448	0.008	2653915	COUNTDOWN_END	n/a	n/a	n/a	-999	23	[0, 0, 0]	n/a	FR1	3	R1108J
2646.456	3.717	2653923	ORIENT	n/a	n/a	n/a	-999	23	[0, 0, 0]	n/a	FR1	3	R1108J
2650.173	2.466	2657640	WORD	n/a	wordpools/wordpool_EN.txt	MUD	1	23	[0, 0, 0]	n/a	FR1	3	R1108J
2652.639	2.551	2660106	WORD	n/a	wordpools/wordpool_EN.txt	DOOR	2	23	[0, 0, 0]	n/a	FR1	3	R1108J
2655.19	2.4	2662657	WORD	n/a	wordpools/wordpool_EN.txt	SLEEVE	3	23	[0, 0, 0]	n/a	FR1	3	R1108J
2657.59	2.568	2665057	WORD	n/a	wordpools/wordpool_EN.txt	OAR	4	23	[0, 0, 0]	n/a	FR1	3	R1108J
2660.158	2.399	2667625	WORD	n/a	wordpools/wordpool_EN.txt	PURSE	5	23	[0, 0, 0]	n/a	FR1	3	R1108J
2662.557	2.585	2670024	WORD	n/a	wordpools/wordpool_EN.txt	BENCH	6	23	[0, 0, 0]	n/a	FR1	3	R1108J
2665.142	2.465	2672609	WORD	n/a	wordpools/wordpool_EN.txt	GRAPE	7	23	[0, 0, 0]	n/a	FR1	3	R1108J
2667.607	2.417	2675074	WORD	n/a	wordpools/wordpool_EN.txt	VASE	8	23	[0, 0, 0]	n/a	FR1	3	R1108J
2670.024	2.502	2677491	WORD	n/a	wordpools/wordpool_EN.txt	STRAW	9	23	[0, 0, 0]	n/a	FR1	3	R1108J
2672.526	2.617	2679993	WORD	n/a	wordpools/wordpool_EN.txt	STOOL	10	23	[0, 0, 0]	n/a	FR1	3	R1108J
2675.143	2.566	2682610	WORD	n/a	wordpools/wordpool_EN.txt	SKY	11	23	[0, 0, 0]	n/a	FR1	3	R1108J
2677.709	1.601	2685176	WORD	n/a	wordpools/wordpool_EN.txt	TOE	12	23	[0, 0, 0]	n/a	FR1	3	R1108J
2679.31	0.0	2686777	DISTRACT_START	n/a	n/a	n/a	-999	23	[0, 0, 0]	n/a	FR1	3	R1108J
2679.31	0.017	2686777	START	n/a	n/a	n/a	-999	23	[-999, -999, -999]	n/a	FR1	3	R1108J
2679.327	9.801	2686794	PROB	9.801	n/a	n/a	-999	23	[7, 3, 4]	14	FR1	3	R1108J
2689.128	6.75	2696595	PROB	6.75	n/a	n/a	-999	23	[3, 5, 3]	11	FR1	3	R1108J
2695.878	47.019	2703345	PROB	47.019	n/a	n/a	-999	23	[9, 4, 4]	17	FR1	3	R1108J
2742.897	0.003	2750364	STOP	n/a	n/a	n/a	-999	23	[-999, -999, -999]	n/a	FR1	3	R1108J
2742.9	1.185	2750367	DISTRACT_END	n/a	n/a	n/a	-999	23	[0, 0, 0]	n/a	FR1	3	R1108J
2744.085	1.458	2751552	REC_START	n/a	n/a	n/a	-999	23	[0, 0, 0]	n/a	FR1	3	R1108J
2745.543	9.573	2753010	REC_WORD_VV	9.573	n/a	<>	-999	23	[0, 0, 0]	n/a	FR1	3	R1108J
2755.116	0.848	2762583	REC_WORD	0.848	n/a	GRAPE	-999	23	[0, 0, 0]	n/a	FR1	3	R1108J
2755.964	18.128	2763431	REC_WORD_VV	18.128	n/a	<>	-999	23	[0, 0, 0]	n/a	FR1	3	R1108J
2774.092	3.113	2781559	REC_END	n/a	n/a	n/a	-999	23	[0, 0, 0]	n/a	FR1	3	R1108J
2777.205	0.0	2784672	TRIAL	n/a	n/a	n/a	-999	24	[0, 0, 0]	n/a	FR1	3	R1108J
2777.205	10.428	2784672	COUNTDOWN_START	n/a	n/a	n/a	-999	24	[0, 0, 0]	n/a	FR1	3	R1108J
2787.633	0.006	2795099	COUNTDOWN_END	n/a	n/a	n/a	-999	24	[0, 0, 0]	n/a	FR1	3	R1108J
2787.639	3.835	2795105	ORIENT	n/a	n/a	n/a	-999	24	[0, 0, 0]	n/a	FR1	3	R1108J
2791.474	2.616	2798940	WORD	n/a	wordpools/wordpool_EN.txt	CART	1	24	[0, 0, 0]	n/a	FR1	3	R1108J
2794.09	2.551	2801556	WORD	n/a	wordpools/wordpool_EN.txt	BREAD	2	24	[0, 0, 0]	n/a	FR1	3	R1108J
2796.641	2.417	2804107	WORD	n/a	wordpools/wordpool_EN.txt	TOOL	3	24	[0, 0, 0]	n/a	FR1	3	R1108J
2799.058	2.468	2806524	WORD	n/a	wordpools/wordpool_EN.txt	YARD	4	24	[0, 0, 0]	n/a	FR1	3	R1108J
2801.526	2.399	2808992	WORD	n/a	wordpools/wordpool_EN.txt	HEN	5	24	[0, 0, 0]	n/a	FR1	3	R1108J
2803.925	2.368	2811391	WORD	n/a	wordpools/wordpool_EN.txt	RAKE	6	24	[0, 0, 0]	n/a	FR1	3	R1108J
2806.293	2.566	2813759	WORD	n/a	wordpools/wordpool_EN.txt	POLE	7	24	[0, 0, 0]	n/a	FR1	3	R1108J
2808.859	2.585	2816325	WORD	n/a	wordpools/wordpool_EN.txt	THUMB	8	24	[0, 0, 0]	n/a	FR1	3	R1108J
2811.444	2.616	2818910	WORD	n/a	wordpools/wordpool_EN.txt	CONE	9	24	[0, 0, 0]	n/a	FR1	3	R1108J
2814.06	2.384	2821526	WORD	n/a	wordpools/wordpool_EN.txt	DITCH	10	24	[0, 0, 0]	n/a	FR1	3	R1108J
2816.444	2.599	2823910	WORD	n/a	wordpools/wordpool_EN.txt	WAND	11	24	[0, 0, 0]	n/a	FR1	3	R1108J
2819.043	1.617	2826509	WORD	n/a	wordpools/wordpool_EN.txt	HAT	12	24	[0, 0, 0]	n/a	FR1	3	R1108J
2820.66	0.001	2828126	DISTRACT_START	n/a	n/a	n/a	-999	24	[0, 0, 0]	n/a	FR1	3	R1108J
2820.661	0.016	2828127	START	n/a	n/a	n/a	-999	24	[-999, -999, -999]	n/a	FR1	3	R1108J
2820.677	8.885	2828143	PROB	8.885	n/a	n/a	-999	24	[8, 5, 1]	14	FR1	3	R1108J
2829.562	6.25	2837028	PROB	6.25	n/a	n/a	-999	24	[3, 4, 1]	8	FR1	3	R1108J
2835.812	8.785	2843278	PROB	8.785	n/a	n/a	-999	24	[8, 5, 6]	19	FR1	3	R1108J
2844.597	0.017	2852063	STOP	n/a	n/a	n/a	-999	24	[-999, -999, -999]	n/a	FR1	3	R1108J
2844.614	1.134	2852080	DISTRACT_END	n/a	n/a	n/a	-999	24	[0, 0, 0]	n/a	FR1	3	R1108J
2845.748	1.011	2853214	REC_START	n/a	n/a	n/a	-999	24	[0, 0, 0]	n/a	FR1	3	R1108J
2846.759	1.008	2854225	REC_WORD	1.008	n/a	DITCH	-999	24	[0, 0, 0]	n/a	FR1	3	R1108J
2847.767	27.991	2855233	REC_WORD_VV	27.991	n/a	<>	-999	24	[0, 0, 0]	n/a	FR1	3	R1108J
2875.758	3.01	2883224	REC_END	n/a	n/a	n/a	-999	24	[0, 0, 0]	n/a	FR1	3	R1108J
2878.768	0.0	2886234	TRIAL	n/a	n/a	n/a	-999	25	[0, 0, 0]	n/a	FR1	3	R1108J
2878.768	10.428	2886234	COUNTDOWN_START	n/a	n/a	n/a	-999	25	[0, 0, 0]	n/a	FR1	3	R1108J
2889.196	0.007	2896662	COUNTDOWN_END	n/a	n/a	n/a	-999	25	[0, 0, 0]	n/a	FR1	3	R1108J
2889.203	3.901	2896669	ORIENT	n/a	n/a	n/a	-999	25	[0, 0, 0]	n/a	FR1	3	R1108J
2893.104	2.466	2900570	WORD	n/a	wordpools/wordpool_EN.txt	CHAIR	1	25	[0, 0, 0]	n/a	FR1	3	R1108J
2895.57	2.517	2903036	WORD	n/a	wordpools/wordpool_EN.txt	CAKE	2	25	[0, 0, 0]	n/a	FR1	3	R1108J
2898.087	2.385	2905553	WORD	n/a	wordpools/wordpool_EN.txt	SNAKE	3	25	[0, 0, 0]	n/a	FR1	3	R1108J
2900.472	2.432	2907938	WORD	n/a	wordpools/wordpool_EN.txt	POOL	4	25	[0, 0, 0]	n/a	FR1	3	R1108J
2902.904	2.502	2910370	WORD	n/a	wordpools/wordpool_EN.txt	SKUNK	5	25	[0, 0, 0]	n/a	FR1	3	R1108J
2905.406	2.466	2912872	WORD	n/a	wordpools/wordpool_EN.txt	SOCK	6	25	[0, 0, 0]	n/a	FR1	3	R1108J
2907.872	2.418	2915338	WORD	n/a	wordpools/wordpool_EN.txt	STICK	7	25	[0, 0, 0]	n/a	FR1	3	R1108J
2910.29	2.499	2917756	WORD	n/a	wordpools/wordpool_EN.txt	PEACH	8	25	[0, 0, 0]	n/a	FR1	3	R1108J
2912.789	2.468	2920255	WORD	n/a	wordpools/wordpool_EN.txt	PASTE	9	25	[0, 0, 0]	n/a	FR1	3	R1108J
2915.257	2.582	2922723	WORD	n/a	wordpools/wordpool_EN.txt	CAGE	10	25	[0, 0, 0]	n/a	FR1	3	R1108J
2917.839	2.369	2925305	WORD	n/a	wordpools/wordpool_EN.txt	HOOF	11	25	[0, 0, 0]	n/a	FR1	3	R1108J
2920.208	1.615	2927674	WORD	n/a	wordpools/wordpool_EN.txt	FLOOR	12	25	[0, 0, 0]	n/a	FR1	3	R1108J
2921.823	0.001	2929289	DISTRACT_START	n/a	n/a	n/a	-999	25	[0, 0, 0]	n/a	FR1	3	R1108J
2921.824	0.016	2929290	START	n/a	n/a	n/a	-999	25	[-999, -999, -999]	n/a	FR1	3	R1108J
2921.84	16.085	2929306	PROB	16.085	n/a	n/a	-999	25	[5, 2, 8]	15	FR1	3	R1108J
2937.925	14.86	2945390	PROB	14.86	n/a	n/a	-999	25	[7, 5, 7]	19	FR1	3	R1108J
2952.785	0.009	2960250	STOP	n/a	n/a	n/a	-999	25	[-999, -999, -999]	n/a	FR1	3	R1108J
2952.794	1.101	2960259	DISTRACT_END	n/a	n/a	n/a	-999	25	[0, 0, 0]	n/a	FR1	3	R1108J
2953.895	1.263	2961360	REC_START	n/a	n/a	n/a	-999	25	[0, 0, 0]	n/a	FR1	3	R1108J
2955.158	1.671	2962623	REC_WORD	1.671	n/a	HOOF	-999	25	[0, 0, 0]	n/a	FR1	3	R1108J
2956.829	27.075	2964294	REC_WORD_VV	27.075	n/a	<>	-999	25	[0, 0, 0]	n/a	FR1	3	R1108J
2983.904	14.48	2991369	REC_END	n/a	n/a	n/a	-999	25	[0, 0, 0]	n/a	FR1	3	R1108J
2998.384	0.0	3005849	SESS_END	n/a	n/a	n/a	-999	25	[0, 0, 0]	n/a	FR1	3	R1108J
