onset	duration	sample	trial_type	response_time	stim_file	item_name	serialpos	list	test	answer	experiment	session	subject
0.0	0.0	30930	INSTRUCT_START	n/a	n/a	n/a	-999	-999	[0, 0, 0]	n/a	FR1	1	R1202M
0.0	10.766	30930	INSTRUCT_END	n/a	n/a	n/a	-999	-999	[0, 0, 0]	n/a	FR1	1	R1202M
10.766	0.0	41696	SESS_START	n/a	n/a	n/a	-999	-999	[0, 0, 0]	n/a	FR1	1	R1202M
10.766	15.0	41696	MIC_TEST	n/a	n/a	n/a	-999	-999	[0, 0, 0]	n/a	FR1	1	R1202M
25.766	14.341	56695	PRACTICE_TRIAL	n/a	n/a	n/a	-999	-1	[0, 0, 0]	n/a	FR1	1	R1202M
40.107	10.428	71035	COUNTDOWN_START	n/a	n/a	n/a	-999	-1	[0, 0, 0]	n/a	FR1	1	R1202M
50.535	0.007	81463	COUNTDOWN_END	n/a	n/a	n/a	-999	-1	[0, 0, 0]	n/a	FR1	1	R1202M
50.542	1.618	81470	PRACTICE_ORIENT	n/a	n/a	n/a	-999	-1	[0, 0, 0]	n/a	FR1	1	R1202M
52.16	2.266	83087	PRACTICE_ORIENT_OFF	n/a	n/a	n/a	-999	-1	[0, 0, 0]	n/a	FR1	1	R1202M
54.426	1.618	85353	PRACTICE_WORD	n/a	n/a	COTTON	1	-1	[0, 0, 0]	n/a	FR1	1	R1202M
56.044	0.766	86971	PRACTICE_WORD_OFF	n/a	n/a	COTTON	-999	-1	[0, 0, 0]	n/a	FR1	1	R1202M
56.81	1.617	87737	PRACTICE_WORD	n/a	n/a	IRON	2	-1	[0, 0, 0]	n/a	FR1	1	R1202M
58.427	0.968	89354	PRACTICE_WORD_OFF	n/a	n/a	IRON	-999	-1	[0, 0, 0]	n/a	FR1	1	R1202M
59.395	1.617	90322	PRACTICE_WORD	n/a	n/a	RING	3	-1	[0, 0, 0]	n/a	FR1	1	R1202M
61.012	0.949	91939	PRACTICE_WORD_OFF	n/a	n/a	RING	-999	-1	[0, 0, 0]	n/a	FR1	1	R1202M
61.961	1.617	92888	PRACTICE_WORD	n/a	n/a	FLOOD	4	-1	[0, 0, 0]	n/a	FR1	1	R1202M
63.578	1.0	94505	PRACTICE_WORD_OFF	n/a	n/a	FLOOD	-999	-1	[0, 0, 0]	n/a	FR1	1	R1202M
64.578	1.618	95505	PRACTICE_WORD	n/a	n/a	CHEST	5	-1	[0, 0, 0]	n/a	FR1	1	R1202M
66.196	0.833	97123	PRACTICE_WORD_OFF	n/a	n/a	CHEST	-999	-1	[0, 0, 0]	n/a	FR1	1	R1202M
67.029	1.616	97956	PRACTICE_WORD	n/a	n/a	ATTIC	6	-1	[0, 0, 0]	n/a	FR1	1	R1202M
68.645	0.967	99571	PRACTICE_WORD_OFF	n/a	n/a	ATTIC	-999	-1	[0, 0, 0]	n/a	FR1	1	R1202M
69.612	1.601	100538	PRACTICE_WORD	n/a	n/a	CAMEL	7	-1	[0, 0, 0]	n/a	FR1	1	R1202M
71.213	0.834	102139	PRACTICE_WORD_OFF	n/a	n/a	CAMEL	-999	-1	[0, 0, 0]	n/a	FR1	1	R1202M
72.047	1.616	102973	PRACTICE_WORD	n/a	n/a	BEAM	8	-1	[0, 0, 0]	n/a	FR1	1	R1202M
73.663	0.9	104589	PRACTICE_WORD_OFF	n/a	n/a	BEAM	-999	-1	[0, 0, 0]	n/a	FR1	1	R1202M
74.563	1.618	105489	PRACTICE_WORD	n/a	n/a	WAGON	9	-1	[0, 0, 0]	n/a	FR1	1	R1202M
76.181	0.817	107107	PRACTICE_WORD_OFF	n/a	n/a	WAGON	-999	-1	[0, 0, 0]	n/a	FR1	1	R1202M
76.998	1.616	107924	PRACTICE_WORD	n/a	n/a	WATCH	10	-1	[0, 0, 0]	n/a	FR1	1	R1202M
78.614	0.867	109540	PRACTICE_WORD_OFF	n/a	n/a	WATCH	-999	-1	[0, 0, 0]	n/a	FR1	1	R1202M
79.481	1.618	110407	PRACTICE_WORD	n/a	n/a	RHINO	11	-1	[0, 0, 0]	n/a	FR1	1	R1202M
81.099	0.782	112025	PRACTICE_WORD_OFF	n/a	n/a	RHINO	-999	-1	[0, 0, 0]	n/a	FR1	1	R1202M
81.881	1.617	112807	PRACTICE_WORD	n/a	n/a	TONGUE	12	-1	[0, 0, 0]	n/a	FR1	1	R1202M
83.498	0.0	114424	PRACTICE_WORD_OFF	n/a	n/a	TONGUE	-999	-1	[0, 0, 0]	n/a	FR1	1	R1202M
83.498	0.001	114424	DISTRACT_START	n/a	n/a	n/a	-999	-1	[0, 0, 0]	n/a	FR1	1	R1202M
83.499	0.016	114425	START	n/a	n/a	n/a	-999	-1	[-999, -999, -999]	n/a	FR1	1	R1202M
83.515	4.718	114441	PROB	4.718	n/a	n/a	-999	-1	[9, 9, 9]	27	FR1	1	R1202M
88.233	9.418	119158	PROB	9.418	n/a	n/a	-999	-1	[5, 7, 6]	18	FR1	1	R1202M
97.651	6.09	128576	PROB	6.09	n/a	n/a	-999	-1	[5, 9, 8]	22	FR1	1	R1202M
103.741	0.011	134666	STOP	n/a	n/a	n/a	-999	-1	[-999, -999, -999]	n/a	FR1	1	R1202M
103.752	0.551	134677	DISTRACT_END	n/a	n/a	n/a	-999	-1	[0, 0, 0]	n/a	FR1	1	R1202M
104.303	0.517	135227	RETRIEVAL_ORIENT	n/a	n/a	n/a	-999	-1	[0, 0, 0]	n/a	FR1	1	R1202M
104.82	30.012	135744	PRACTICE_REC_START	n/a	n/a	n/a	-999	-1	[0, 0, 0]	n/a	FR1	1	R1202M
134.832	152.523	165755	PRACTICE_REC_END	n/a	n/a	n/a	-999	-1	[0, 0, 0]	n/a	FR1	1	R1202M
287.355	0.5	318269	TRIAL	n/a	n/a	n/a	-999	1	[0, 0, 0]	n/a	FR1	1	R1202M
287.855	10.428	318769	COUNTDOWN_START	n/a	n/a	n/a	-999	1	[0, 0, 0]	n/a	FR1	1	R1202M
298.283	0.007	329197	COUNTDOWN_END	n/a	n/a	n/a	-999	1	[0, 0, 0]	n/a	FR1	1	R1202M
298.29	1.617	329204	ORIENT	n/a	n/a	n/a	-999	1	[0, 0, 0]	n/a	FR1	1	R1202M
299.907	2.334	330821	ORIENT_OFF	n/a	n/a	n/a	-999	1	[0, 0, 0]	n/a	FR1	1	R1202M
302.241	1.616	333154	WORD	n/a	wordpools/wordpool_EN.txt	ARK	1	1	[0, 0, 0]	n/a	FR1	1	R1202M
303.857	0.784	334770	WORD_OFF	n/a	n/a	ARK	1	1	[0, 0, 0]	n/a	FR1	1	R1202M
304.641	1.618	335554	WORD	n/a	wordpools/wordpool_EN.txt	FLEA	2	1	[0, 0, 0]	n/a	FR1	1	R1202M
306.259	0.817	337172	WORD_OFF	n/a	n/a	FLEA	2	1	[0, 0, 0]	n/a	FR1	1	R1202M
307.076	1.616	337989	WORD	n/a	wordpools/wordpool_EN.txt	FUR	3	1	[0, 0, 0]	n/a	FR1	1	R1202M
308.692	1.016	339605	WORD_OFF	n/a	n/a	FUR	3	1	[0, 0, 0]	n/a	FR1	1	R1202M
309.708	1.601	340621	WORD	n/a	wordpools/wordpool_EN.txt	HOOK	4	1	[0, 0, 0]	n/a	FR1	1	R1202M
311.309	0.951	342222	WORD_OFF	n/a	n/a	HOOK	4	1	[0, 0, 0]	n/a	FR1	1	R1202M
312.26	1.616	343173	WORD	n/a	wordpools/wordpool_EN.txt	HAT	5	1	[0, 0, 0]	n/a	FR1	1	R1202M
313.876	0.9	344789	WORD_OFF	n/a	n/a	HAT	5	1	[0, 0, 0]	n/a	FR1	1	R1202M
314.776	1.618	345689	WORD	n/a	wordpools/wordpool_EN.txt	POOL	6	1	[0, 0, 0]	n/a	FR1	1	R1202M
316.394	1.0	347307	WORD_OFF	n/a	n/a	POOL	6	1	[0, 0, 0]	n/a	FR1	1	R1202M
317.394	1.617	348307	WORD	n/a	wordpools/wordpool_EN.txt	MOTH	7	1	[0, 0, 0]	n/a	FR1	1	R1202M
319.011	0.799	349923	WORD_OFF	n/a	n/a	MOTH	7	1	[0, 0, 0]	n/a	FR1	1	R1202M
319.81	1.617	350722	WORD	n/a	wordpools/wordpool_EN.txt	BADGE	8	1	[0, 0, 0]	n/a	FR1	1	R1202M
321.427	0.951	352339	WORD_OFF	n/a	n/a	BADGE	8	1	[0, 0, 0]	n/a	FR1	1	R1202M
322.378	1.618	353290	WORD	n/a	wordpools/wordpool_EN.txt	CHALK	9	1	[0, 0, 0]	n/a	FR1	1	R1202M
323.996	1.016	354908	WORD_OFF	n/a	n/a	CHALK	9	1	[0, 0, 0]	n/a	FR1	1	R1202M
325.012	1.616	355924	WORD	n/a	wordpools/wordpool_EN.txt	DIME	10	1	[0, 0, 0]	n/a	FR1	1	R1202M
326.628	0.967	357540	WORD_OFF	n/a	n/a	DIME	10	1	[0, 0, 0]	n/a	FR1	1	R1202M
327.595	1.618	358507	WORD	n/a	wordpools/wordpool_EN.txt	DESK	11	1	[0, 0, 0]	n/a	FR1	1	R1202M
329.213	0.784	360125	WORD_OFF	n/a	n/a	DESK	11	1	[0, 0, 0]	n/a	FR1	1	R1202M
329.997	1.616	360909	WORD	n/a	wordpools/wordpool_EN.txt	SHRIMP	12	1	[0, 0, 0]	n/a	FR1	1	R1202M
331.613	0.0	362525	WORD_OFF	n/a	n/a	SHRIMP	12	1	[0, 0, 0]	n/a	FR1	1	R1202M
331.613	0.0	362525	DISTRACT_START	n/a	n/a	n/a	-999	1	[0, 0, 0]	n/a	FR1	1	R1202M
331.613	0.016	362525	START	n/a	n/a	n/a	-999	1	[-999, -999, -999]	n/a	FR1	1	R1202M
331.629	3.702	362541	PROB	3.702	n/a	n/a	-999	1	[6, 1, 1]	8	FR1	1	R1202M
335.331	2.784	366243	PROB	2.784	n/a	n/a	-999	1	[1, 9, 1]	11	FR1	1	R1202M
338.115	7.45	369026	PROB	7.45	n/a	n/a	-999	1	[7, 8, 5]	20	FR1	1	R1202M
345.565	5.851	376476	PROB	5.851	n/a	n/a	-999	1	[8, 7, 2]	17	FR1	1	R1202M
351.416	4.575	382327	PROB	4.575	n/a	n/a	-999	1	[8, 6, 3]	17	FR1	1	R1202M
355.991	0.011	386901	STOP	n/a	n/a	n/a	-999	1	[-999, -999, -999]	n/a	FR1	1	R1202M
356.002	0.515	386912	DISTRACT_END	n/a	n/a	n/a	-999	1	[0, 0, 0]	n/a	FR1	1	R1202M
356.517	0.519	387427	RETRIEVAL_ORIENT	n/a	n/a	n/a	-999	1	[0, 0, 0]	n/a	FR1	1	R1202M
357.036	2.308	387946	REC_START	n/a	n/a	n/a	-999	1	[0, 0, 0]	n/a	FR1	1	R1202M
359.344	2.251	390254	REC_WORD	2.251	n/a	ARK	-999	1	[0, 0, 0]	n/a	FR1	1	R1202M
361.595	2.418	392505	REC_WORD	2.418	n/a	MOTH	-999	1	[0, 0, 0]	n/a	FR1	1	R1202M
364.013	2.912	394923	REC_WORD	2.912	n/a	SHRIMP	-999	1	[0, 0, 0]	n/a	FR1	1	R1202M
366.925	20.122	397835	REC_WORD	20.122	n/a	BADGE	-999	1	[0, 0, 0]	n/a	FR1	1	R1202M
387.047	6.878	417956	REC_END	n/a	n/a	n/a	-999	1	[0, 0, 0]	n/a	FR1	1	R1202M
393.925	0.5	424833	TRIAL	n/a	n/a	n/a	-999	2	[0, 0, 0]	n/a	FR1	1	R1202M
394.425	10.428	425333	COUNTDOWN_START	n/a	n/a	n/a	-999	2	[0, 0, 0]	n/a	FR1	1	R1202M
404.853	0.007	435761	COUNTDOWN_END	n/a	n/a	n/a	-999	2	[0, 0, 0]	n/a	FR1	1	R1202M
404.86	1.617	435768	ORIENT	n/a	n/a	n/a	-999	2	[0, 0, 0]	n/a	FR1	1	R1202M
406.477	2.2	437385	ORIENT_OFF	n/a	n/a	n/a	-999	2	[0, 0, 0]	n/a	FR1	1	R1202M
408.677	1.618	439584	WORD	n/a	wordpools/wordpool_EN.txt	HAND	1	2	[0, 0, 0]	n/a	FR1	1	R1202M
410.295	0.801	441202	WORD_OFF	n/a	n/a	HAND	1	2	[0, 0, 0]	n/a	FR1	1	R1202M
411.096	1.616	442003	WORD	n/a	wordpools/wordpool_EN.txt	SNAIL	2	2	[0, 0, 0]	n/a	FR1	1	R1202M
412.712	0.85	443619	WORD_OFF	n/a	n/a	SNAIL	2	2	[0, 0, 0]	n/a	FR1	1	R1202M
413.562	1.618	444469	WORD	n/a	wordpools/wordpool_EN.txt	MOUTH	3	2	[0, 0, 0]	n/a	FR1	1	R1202M
415.18	0.766	446087	WORD_OFF	n/a	n/a	MOUTH	3	2	[0, 0, 0]	n/a	FR1	1	R1202M
415.946	1.617	446853	WORD	n/a	wordpools/wordpool_EN.txt	FROG	4	2	[0, 0, 0]	n/a	FR1	1	R1202M
417.563	0.95	448470	WORD_OFF	n/a	n/a	FROG	4	2	[0, 0, 0]	n/a	FR1	1	R1202M
418.513	1.618	449420	WORD	n/a	wordpools/wordpool_EN.txt	MAP	5	2	[0, 0, 0]	n/a	FR1	1	R1202M
420.131	0.933	451038	WORD_OFF	n/a	n/a	MAP	5	2	[0, 0, 0]	n/a	FR1	1	R1202M
421.064	1.616	451971	WORD	n/a	wordpools/wordpool_EN.txt	STAR	6	2	[0, 0, 0]	n/a	FR1	1	R1202M
422.68	0.767	453587	WORD_OFF	n/a	n/a	STAR	6	2	[0, 0, 0]	n/a	FR1	1	R1202M
423.447	1.618	454354	WORD	n/a	wordpools/wordpool_EN.txt	PIG	7	2	[0, 0, 0]	n/a	FR1	1	R1202M
425.065	0.799	455971	WORD_OFF	n/a	n/a	PIG	7	2	[0, 0, 0]	n/a	FR1	1	R1202M
425.864	1.617	456770	WORD	n/a	wordpools/wordpool_EN.txt	BREAD	8	2	[0, 0, 0]	n/a	FR1	1	R1202M
427.481	0.918	458387	WORD_OFF	n/a	n/a	BREAD	8	2	[0, 0, 0]	n/a	FR1	1	R1202M
428.399	1.617	459305	WORD	n/a	wordpools/wordpool_EN.txt	CAR	9	2	[0, 0, 0]	n/a	FR1	1	R1202M
430.016	0.983	460922	WORD_OFF	n/a	n/a	CAR	9	2	[0, 0, 0]	n/a	FR1	1	R1202M
430.999	1.616	461905	WORD	n/a	wordpools/wordpool_EN.txt	COIN	10	2	[0, 0, 0]	n/a	FR1	1	R1202M
432.615	0.901	463521	WORD_OFF	n/a	n/a	COIN	10	2	[0, 0, 0]	n/a	FR1	1	R1202M
433.516	1.618	464422	WORD	n/a	wordpools/wordpool_EN.txt	BEACH	11	2	[0, 0, 0]	n/a	FR1	1	R1202M
435.134	0.95	466040	WORD_OFF	n/a	n/a	BEACH	11	2	[0, 0, 0]	n/a	FR1	1	R1202M
436.084	1.616	466990	WORD	n/a	wordpools/wordpool_EN.txt	SHELL	12	2	[0, 0, 0]	n/a	FR1	1	R1202M
437.7	0.0	468606	WORD_OFF	n/a	n/a	SHELL	12	2	[0, 0, 0]	n/a	FR1	1	R1202M
437.7	0.0	468606	DISTRACT_START	n/a	n/a	n/a	-999	2	[0, 0, 0]	n/a	FR1	1	R1202M
437.7	0.016	468606	START	n/a	n/a	n/a	-999	2	[-999, -999, -999]	n/a	FR1	1	R1202M
437.716	6.353	468622	PROB	6.353	n/a	n/a	-999	2	[5, 1, 8]	13	FR1	1	R1202M
444.069	3.3	474974	PROB	3.3	n/a	n/a	-999	2	[3, 1, 7]	11	FR1	1	R1202M
447.369	3.868	478274	PROB	3.868	n/a	n/a	-999	2	[9, 1, 8]	18	FR1	1	R1202M
451.237	3.699	482142	PROB	3.699	n/a	n/a	-999	2	[5, 3, 4]	12	FR1	1	R1202M
454.936	6.988	485841	PROB	6.988	n/a	n/a	-999	2	[1, 8, 7]	16	FR1	1	R1202M
461.924	0.014	492828	STOP	n/a	n/a	n/a	-999	2	[-999, -999, -999]	n/a	FR1	1	R1202M
461.938	0.617	492842	DISTRACT_END	n/a	n/a	n/a	-999	2	[0, 0, 0]	n/a	FR1	1	R1202M
462.555	0.518	493459	RETRIEVAL_ORIENT	n/a	n/a	n/a	-999	2	[0, 0, 0]	n/a	FR1	1	R1202M
463.073	1.981	493977	REC_START	n/a	n/a	n/a	-999	2	[0, 0, 0]	n/a	FR1	1	R1202M
465.054	6.0	495958	REC_WORD	6.0	n/a	BEACH	-999	2	[0, 0, 0]	n/a	FR1	1	R1202M
471.054	3.339	501958	REC_WORD	3.339	n/a	HAND	-999	2	[0, 0, 0]	n/a	FR1	1	R1202M
474.393	18.69	505297	REC_WORD	18.69	n/a	SHELL	-999	2	[0, 0, 0]	n/a	FR1	1	R1202M
493.083	4.645	523986	REC_END	n/a	n/a	n/a	-999	2	[0, 0, 0]	n/a	FR1	1	R1202M
497.728	0.5	528630	TRIAL	n/a	n/a	n/a	-999	3	[0, 0, 0]	n/a	FR1	1	R1202M
498.228	10.428	529130	COUNTDOWN_START	n/a	n/a	n/a	-999	3	[0, 0, 0]	n/a	FR1	1	R1202M
508.656	0.007	539558	COUNTDOWN_END	n/a	n/a	n/a	-999	3	[0, 0, 0]	n/a	FR1	1	R1202M
508.663	1.618	539565	ORIENT	n/a	n/a	n/a	-999	3	[0, 0, 0]	n/a	FR1	1	R1202M
510.281	2.233	541183	ORIENT_OFF	n/a	n/a	n/a	-999	3	[0, 0, 0]	n/a	FR1	1	R1202M
512.514	1.618	543416	WORD	n/a	wordpools/wordpool_EN.txt	WOOD	1	3	[0, 0, 0]	n/a	FR1	1	R1202M
514.132	0.884	545033	WORD_OFF	n/a	n/a	WOOD	1	3	[0, 0, 0]	n/a	FR1	1	R1202M
515.016	1.616	545917	WORD	n/a	wordpools/wordpool_EN.txt	STEM	2	3	[0, 0, 0]	n/a	FR1	1	R1202M
516.632	0.917	547533	WORD_OFF	n/a	n/a	STEM	2	3	[0, 0, 0]	n/a	FR1	1	R1202M
517.549	1.618	548450	WORD	n/a	wordpools/wordpool_EN.txt	HOUSE	3	3	[0, 0, 0]	n/a	FR1	1	R1202M
519.167	0.85	550068	WORD_OFF	n/a	n/a	HOUSE	3	3	[0, 0, 0]	n/a	FR1	1	R1202M
520.017	1.616	550918	WORD	n/a	wordpools/wordpool_EN.txt	LAKE	4	3	[0, 0, 0]	n/a	FR1	1	R1202M
521.633	0.966	552534	WORD_OFF	n/a	n/a	LAKE	4	3	[0, 0, 0]	n/a	FR1	1	R1202M
522.599	1.601	553500	WORD	n/a	wordpools/wordpool_EN.txt	MAZE	5	3	[0, 0, 0]	n/a	FR1	1	R1202M
524.2	0.851	555101	WORD_OFF	n/a	n/a	MAZE	5	3	[0, 0, 0]	n/a	FR1	1	R1202M
525.051	1.616	555952	WORD	n/a	wordpools/wordpool_EN.txt	SNOW	6	3	[0, 0, 0]	n/a	FR1	1	R1202M
526.667	0.883	557568	WORD_OFF	n/a	n/a	SNOW	6	3	[0, 0, 0]	n/a	FR1	1	R1202M
527.55	1.602	558451	WORD	n/a	wordpools/wordpool_EN.txt	SEED	7	3	[0, 0, 0]	n/a	FR1	1	R1202M
529.152	0.933	560053	WORD_OFF	n/a	n/a	SEED	7	3	[0, 0, 0]	n/a	FR1	1	R1202M
530.085	1.616	560986	WORD	n/a	wordpools/wordpool_EN.txt	ROPE	8	3	[0, 0, 0]	n/a	FR1	1	R1202M
531.701	0.817	562601	WORD_OFF	n/a	n/a	ROPE	8	3	[0, 0, 0]	n/a	FR1	1	R1202M
532.518	1.618	563418	WORD	n/a	wordpools/wordpool_EN.txt	HEART	9	3	[0, 0, 0]	n/a	FR1	1	R1202M
534.136	0.933	565036	WORD_OFF	n/a	n/a	HEART	9	3	[0, 0, 0]	n/a	FR1	1	R1202M
535.069	1.616	565969	WORD	n/a	wordpools/wordpool_EN.txt	MOOSE	10	3	[0, 0, 0]	n/a	FR1	1	R1202M
536.685	0.851	567585	WORD_OFF	n/a	n/a	MOOSE	10	3	[0, 0, 0]	n/a	FR1	1	R1202M
537.536	1.618	568436	WORD	n/a	wordpools/wordpool_EN.txt	COW	11	3	[0, 0, 0]	n/a	FR1	1	R1202M
539.154	0.866	570054	WORD_OFF	n/a	n/a	COW	11	3	[0, 0, 0]	n/a	FR1	1	R1202M
540.02	1.616	570920	WORD	n/a	wordpools/wordpool_EN.txt	BEAR	12	3	[0, 0, 0]	n/a	FR1	1	R1202M
541.636	0.0	572536	DISTRACT_START	n/a	n/a	n/a	-999	3	[0, 0, 0]	n/a	FR1	1	R1202M
541.636	0.001	572536	WORD_OFF	n/a	n/a	BEAR	12	3	[0, 0, 0]	n/a	FR1	1	R1202M
541.637	0.016	572537	START	n/a	n/a	n/a	-999	3	[-999, -999, -999]	n/a	FR1	1	R1202M
541.653	5.234	572553	PROB	5.234	n/a	n/a	-999	3	[5, 3, 9]	17	FR1	1	R1202M
546.887	3.335	577787	PROB	3.335	n/a	n/a	-999	3	[1, 9, 6]	16	FR1	1	R1202M
550.222	8.684	581121	PROB	8.684	n/a	n/a	-999	3	[4, 9, 7]	20	FR1	1	R1202M
558.906	5.891	589805	PROB	5.891	n/a	n/a	-999	3	[7, 8, 4]	19	FR1	1	R1202M
564.797	0.011	595696	STOP	n/a	n/a	n/a	-999	3	[-999, -999, -999]	n/a	FR1	1	R1202M
564.808	0.7	595707	DISTRACT_END	n/a	n/a	n/a	-999	3	[0, 0, 0]	n/a	FR1	1	R1202M
565.508	0.518	596407	RETRIEVAL_ORIENT	n/a	n/a	n/a	-999	3	[0, 0, 0]	n/a	FR1	1	R1202M
566.026	4.305	596925	REC_START	n/a	n/a	n/a	-999	3	[0, 0, 0]	n/a	FR1	1	R1202M
570.331	2.677	601229	REC_WORD	2.677	n/a	WOOD	-999	3	[0, 0, 0]	n/a	FR1	1	R1202M
573.008	19.204	603906	REC_WORD	19.204	n/a	SNOW	-999	3	[0, 0, 0]	n/a	FR1	1	R1202M
592.212	3.824	623109	REC_WORD	3.824	n/a	CABIN	-999	3	[0, 0, 0]	n/a	FR1	1	R1202M
596.036	19.615	626933	REC_END	n/a	n/a	n/a	-999	3	[0, 0, 0]	n/a	FR1	1	R1202M
615.651	0.5	646547	TRIAL	n/a	n/a	n/a	-999	4	[0, 0, 0]	n/a	FR1	1	R1202M
616.151	10.428	647047	COUNTDOWN_START	n/a	n/a	n/a	-999	4	[0, 0, 0]	n/a	FR1	1	R1202M
626.579	0.007	657474	COUNTDOWN_END	n/a	n/a	n/a	-999	4	[0, 0, 0]	n/a	FR1	1	R1202M
626.586	1.618	657481	ORIENT	n/a	n/a	n/a	-999	4	[0, 0, 0]	n/a	FR1	1	R1202M
628.204	2.25	659099	ORIENT_OFF	n/a	n/a	n/a	-999	4	[0, 0, 0]	n/a	FR1	1	R1202M
630.454	1.618	661349	WORD	n/a	wordpools/wordpool_EN.txt	WORM	1	4	[0, 0, 0]	n/a	FR1	1	R1202M
632.072	0.95	662967	WORD_OFF	n/a	n/a	WORM	1	4	[0, 0, 0]	n/a	FR1	1	R1202M
633.022	1.616	663917	WORD	n/a	wordpools/wordpool_EN.txt	FACE	2	4	[0, 0, 0]	n/a	FR1	1	R1202M
634.638	0.917	665533	WORD_OFF	n/a	n/a	FACE	2	4	[0, 0, 0]	n/a	FR1	1	R1202M
635.555	1.617	666450	WORD	n/a	wordpools/wordpool_EN.txt	BOWL	3	4	[0, 0, 0]	n/a	FR1	1	R1202M
637.172	0.783	668067	WORD_OFF	n/a	n/a	BOWL	3	4	[0, 0, 0]	n/a	FR1	1	R1202M
637.955	1.617	668850	WORD	n/a	wordpools/wordpool_EN.txt	HILL	4	4	[0, 0, 0]	n/a	FR1	1	R1202M
639.572	0.818	670466	WORD_OFF	n/a	n/a	HILL	4	4	[0, 0, 0]	n/a	FR1	1	R1202M
640.39	1.617	671284	WORD	n/a	wordpools/wordpool_EN.txt	BED	5	4	[0, 0, 0]	n/a	FR1	1	R1202M
642.007	0.832	672901	WORD_OFF	n/a	n/a	BED	5	4	[0, 0, 0]	n/a	FR1	1	R1202M
642.839	1.617	673733	WORD	n/a	wordpools/wordpool_EN.txt	FOOD	6	4	[0, 0, 0]	n/a	FR1	1	R1202M
644.456	0.967	675350	WORD_OFF	n/a	n/a	FOOD	6	4	[0, 0, 0]	n/a	FR1	1	R1202M
645.423	1.601	676317	WORD	n/a	wordpools/wordpool_EN.txt	MUD	7	4	[0, 0, 0]	n/a	FR1	1	R1202M
647.024	0.951	677918	WORD_OFF	n/a	n/a	MUD	7	4	[0, 0, 0]	n/a	FR1	1	R1202M
647.975	1.616	678869	WORD	n/a	wordpools/wordpool_EN.txt	SHARK	8	4	[0, 0, 0]	n/a	FR1	1	R1202M
649.591	0.883	680485	WORD_OFF	n/a	n/a	SHARK	8	4	[0, 0, 0]	n/a	FR1	1	R1202M
650.474	1.618	681368	WORD	n/a	wordpools/wordpool_EN.txt	GLASS	9	4	[0, 0, 0]	n/a	FR1	1	R1202M
652.092	0.799	682986	WORD_OFF	n/a	n/a	GLASS	9	4	[0, 0, 0]	n/a	FR1	1	R1202M
652.891	1.617	683785	WORD	n/a	wordpools/wordpool_EN.txt	LEG	10	4	[0, 0, 0]	n/a	FR1	1	R1202M
654.508	0.917	685402	WORD_OFF	n/a	n/a	LEG	10	4	[0, 0, 0]	n/a	FR1	1	R1202M
655.425	1.618	686319	WORD	n/a	wordpools/wordpool_EN.txt	BENCH	11	4	[0, 0, 0]	n/a	FR1	1	R1202M
657.043	0.783	687936	WORD_OFF	n/a	n/a	BENCH	11	4	[0, 0, 0]	n/a	FR1	1	R1202M
657.826	1.616	688719	WORD	n/a	wordpools/wordpool_EN.txt	NOSE	12	4	[0, 0, 0]	n/a	FR1	1	R1202M
659.442	0.0	690335	WORD_OFF	n/a	n/a	NOSE	12	4	[0, 0, 0]	n/a	FR1	1	R1202M
659.442	0.001	690335	DISTRACT_START	n/a	n/a	n/a	-999	4	[0, 0, 0]	n/a	FR1	1	R1202M
659.443	0.016	690336	START	n/a	n/a	n/a	-999	4	[-999, -999, -999]	n/a	FR1	1	R1202M
659.459	4.468	690352	PROB	4.468	n/a	n/a	-999	4	[4, 4, 1]	9	FR1	1	R1202M
663.927	5.551	694820	PROB	5.551	n/a	n/a	-999	4	[8, 9, 2]	20	FR1	1	R1202M
669.478	12.271	700371	PROB	12.271	n/a	n/a	-999	4	[8, 9, 8]	24	FR1	1	R1202M
681.749	0.015	712641	STOP	n/a	n/a	n/a	-999	4	[-999, -999, -999]	n/a	FR1	1	R1202M
681.764	0.551	712656	DISTRACT_END	n/a	n/a	n/a	-999	4	[0, 0, 0]	n/a	FR1	1	R1202M
682.315	0.516	713207	RETRIEVAL_ORIENT	n/a	n/a	n/a	-999	4	[0, 0, 0]	n/a	FR1	1	R1202M
682.831	2.039	713723	REC_START	n/a	n/a	n/a	-999	4	[0, 0, 0]	n/a	FR1	1	R1202M
684.87	9.226	715762	REC_WORD	9.226	n/a	SHARK	-999	4	[0, 0, 0]	n/a	FR1	1	R1202M
694.096	9.642	724987	REC_WORD	9.642	n/a	NOSE	-999	4	[0, 0, 0]	n/a	FR1	1	R1202M
703.738	9.104	734629	REC_WORD	9.104	n/a	HAND	-999	4	[0, 0, 0]	n/a	FR1	1	R1202M
712.842	4.978	743732	REC_END	n/a	n/a	n/a	-999	4	[0, 0, 0]	n/a	FR1	1	R1202M
717.82	0.5	748710	TRIAL	n/a	n/a	n/a	-999	5	[0, 0, 0]	n/a	FR1	1	R1202M
718.32	10.428	749210	COUNTDOWN_START	n/a	n/a	n/a	-999	5	[0, 0, 0]	n/a	FR1	1	R1202M
728.748	0.008	759637	COUNTDOWN_END	n/a	n/a	n/a	-999	5	[0, 0, 0]	n/a	FR1	1	R1202M
728.756	1.618	759645	ORIENT	n/a	n/a	n/a	-999	5	[0, 0, 0]	n/a	FR1	1	R1202M
730.374	2.0	761263	ORIENT_OFF	n/a	n/a	n/a	-999	5	[0, 0, 0]	n/a	FR1	1	R1202M
732.374	1.617	763263	WORD	n/a	wordpools/wordpool_EN.txt	BAT	1	5	[0, 0, 0]	n/a	FR1	1	R1202M
733.991	0.883	764880	WORD_OFF	n/a	n/a	BAT	1	5	[0, 0, 0]	n/a	FR1	1	R1202M
734.874	1.617	765763	WORD	n/a	wordpools/wordpool_EN.txt	LAMB	2	5	[0, 0, 0]	n/a	FR1	1	R1202M
736.491	0.983	767380	WORD_OFF	n/a	n/a	LAMB	2	5	[0, 0, 0]	n/a	FR1	1	R1202M
737.474	1.601	768363	WORD	n/a	wordpools/wordpool_EN.txt	SPEAR	3	5	[0, 0, 0]	n/a	FR1	1	R1202M
739.075	0.85	769964	WORD_OFF	n/a	n/a	SPEAR	3	5	[0, 0, 0]	n/a	FR1	1	R1202M
739.925	1.617	770814	WORD	n/a	wordpools/wordpool_EN.txt	TOAD	4	5	[0, 0, 0]	n/a	FR1	1	R1202M
741.542	0.933	772431	WORD_OFF	n/a	n/a	TOAD	4	5	[0, 0, 0]	n/a	FR1	1	R1202M
742.475	1.618	773364	WORD	n/a	wordpools/wordpool_EN.txt	BOOT	5	5	[0, 0, 0]	n/a	FR1	1	R1202M
744.093	0.934	774982	WORD_OFF	n/a	n/a	BOOT	5	5	[0, 0, 0]	n/a	FR1	1	R1202M
745.027	1.616	775916	WORD	n/a	wordpools/wordpool_EN.txt	DOLL	6	5	[0, 0, 0]	n/a	FR1	1	R1202M
746.643	0.8	777531	WORD_OFF	n/a	n/a	DOLL	6	5	[0, 0, 0]	n/a	FR1	1	R1202M
747.443	1.618	778331	WORD	n/a	wordpools/wordpool_EN.txt	FAN	7	5	[0, 0, 0]	n/a	FR1	1	R1202M
749.061	0.967	779949	WORD_OFF	n/a	n/a	FAN	7	5	[0, 0, 0]	n/a	FR1	1	R1202M
750.028	1.616	780916	WORD	n/a	wordpools/wordpool_EN.txt	FLUTE	8	5	[0, 0, 0]	n/a	FR1	1	R1202M
751.644	0.783	782532	WORD_OFF	n/a	n/a	FLUTE	8	5	[0, 0, 0]	n/a	FR1	1	R1202M
752.427	1.601	783315	WORD	n/a	wordpools/wordpool_EN.txt	CROW	9	5	[0, 0, 0]	n/a	FR1	1	R1202M
754.028	0.883	784916	WORD_OFF	n/a	n/a	CROW	9	5	[0, 0, 0]	n/a	FR1	1	R1202M
754.911	1.617	785799	WORD	n/a	wordpools/wordpool_EN.txt	FORK	10	5	[0, 0, 0]	n/a	FR1	1	R1202M
756.528	0.917	787416	WORD_OFF	n/a	n/a	FORK	10	5	[0, 0, 0]	n/a	FR1	1	R1202M
757.445	1.618	788333	WORD	n/a	wordpools/wordpool_EN.txt	LIP	11	5	[0, 0, 0]	n/a	FR1	1	R1202M
759.063	0.933	789951	WORD_OFF	n/a	n/a	LIP	11	5	[0, 0, 0]	n/a	FR1	1	R1202M
759.996	1.616	790884	WORD	n/a	wordpools/wordpool_EN.txt	GOAT	12	5	[0, 0, 0]	n/a	FR1	1	R1202M
761.612	0.0	792500	WORD_OFF	n/a	n/a	GOAT	12	5	[0, 0, 0]	n/a	FR1	1	R1202M
761.612	0.001	792500	DISTRACT_START	n/a	n/a	n/a	-999	5	[0, 0, 0]	n/a	FR1	1	R1202M
761.613	0.016	792501	START	n/a	n/a	n/a	-999	5	[-999, -999, -999]	n/a	FR1	1	R1202M
761.629	3.967	792517	PROB	3.967	n/a	n/a	-999	5	[4, 3, 1]	8	FR1	1	R1202M
765.596	4.368	796483	PROB	4.368	n/a	n/a	-999	5	[6, 2, 9]	17	FR1	1	R1202M
769.964	3.318	800851	PROB	3.318	n/a	n/a	-999	5	[2, 6, 9]	17	FR1	1	R1202M
773.282	6.735	804169	PROB	6.735	n/a	n/a	-999	5	[8, 4, 8]	20	FR1	1	R1202M
780.017	3.142	810904	PROB	3.142	n/a	n/a	-999	5	[5, 1, 6]	12	FR1	1	R1202M
783.159	0.008	814045	STOP	n/a	n/a	n/a	-999	5	[-999, -999, -999]	n/a	FR1	1	R1202M
783.167	0.6	814053	DISTRACT_END	n/a	n/a	n/a	-999	5	[0, 0, 0]	n/a	FR1	1	R1202M
783.767	0.518	814653	RETRIEVAL_ORIENT	n/a	n/a	n/a	-999	5	[0, 0, 0]	n/a	FR1	1	R1202M
784.285	13.109	815171	REC_START	n/a	n/a	n/a	-999	5	[0, 0, 0]	n/a	FR1	1	R1202M
797.394	6.426	828280	REC_WORD	6.426	n/a	GOAT	-999	5	[0, 0, 0]	n/a	FR1	1	R1202M
803.82	9.409	834705	REC_WORD	9.409	n/a	LIP	-999	5	[0, 0, 0]	n/a	FR1	1	R1202M
813.229	1.067	844114	REC_WORD	1.067	n/a	TOAD	-999	5	[0, 0, 0]	n/a	FR1	1	R1202M
814.296	5.211	845181	REC_END	n/a	n/a	n/a	-999	5	[0, 0, 0]	n/a	FR1	1	R1202M
819.507	0.5	850391	TRIAL	n/a	n/a	n/a	-999	6	[0, 0, 0]	n/a	FR1	1	R1202M
820.007	10.428	850891	COUNTDOWN_START	n/a	n/a	n/a	-999	6	[0, 0, 0]	n/a	FR1	1	R1202M
830.435	0.007	861319	COUNTDOWN_END	n/a	n/a	n/a	-999	6	[0, 0, 0]	n/a	FR1	1	R1202M
830.442	1.618	861326	ORIENT	n/a	n/a	n/a	-999	6	[0, 0, 0]	n/a	FR1	1	R1202M
832.06	1.899	862944	ORIENT_OFF	n/a	n/a	n/a	-999	6	[0, 0, 0]	n/a	FR1	1	R1202M
833.959	1.618	864843	WORD	n/a	wordpools/wordpool_EN.txt	CHIN	1	6	[0, 0, 0]	n/a	FR1	1	R1202M
835.577	0.834	866460	WORD_OFF	n/a	n/a	CHIN	1	6	[0, 0, 0]	n/a	FR1	1	R1202M
836.411	1.617	867294	WORD	n/a	wordpools/wordpool_EN.txt	BUSH	2	6	[0, 0, 0]	n/a	FR1	1	R1202M
838.028	0.882	868911	WORD_OFF	n/a	n/a	BUSH	2	6	[0, 0, 0]	n/a	FR1	1	R1202M
838.91	1.617	869793	WORD	n/a	wordpools/wordpool_EN.txt	SALT	3	6	[0, 0, 0]	n/a	FR1	1	R1202M
840.527	1.001	871410	WORD_OFF	n/a	n/a	SALT	3	6	[0, 0, 0]	n/a	FR1	1	R1202M
841.528	1.618	872411	WORD	n/a	wordpools/wordpool_EN.txt	TOOL	4	6	[0, 0, 0]	n/a	FR1	1	R1202M
843.146	0.833	874029	WORD_OFF	n/a	n/a	TOOL	4	6	[0, 0, 0]	n/a	FR1	1	R1202M
843.979	1.616	874862	WORD	n/a	wordpools/wordpool_EN.txt	ROOM	5	6	[0, 0, 0]	n/a	FR1	1	R1202M
845.595	0.801	876478	WORD_OFF	n/a	n/a	ROOM	5	6	[0, 0, 0]	n/a	FR1	1	R1202M
846.396	1.617	877279	WORD	n/a	wordpools/wordpool_EN.txt	STRAW	6	6	[0, 0, 0]	n/a	FR1	1	R1202M
848.013	0.816	878896	WORD_OFF	n/a	n/a	STRAW	6	6	[0, 0, 0]	n/a	FR1	1	R1202M
848.829	1.617	879712	WORD	n/a	wordpools/wordpool_EN.txt	CUBE	7	6	[0, 0, 0]	n/a	FR1	1	R1202M
850.446	0.768	881329	WORD_OFF	n/a	n/a	CUBE	7	6	[0, 0, 0]	n/a	FR1	1	R1202M
851.214	1.616	882097	WORD	n/a	wordpools/wordpool_EN.txt	DEER	8	6	[0, 0, 0]	n/a	FR1	1	R1202M
852.83	0.85	883712	WORD_OFF	n/a	n/a	DEER	8	6	[0, 0, 0]	n/a	FR1	1	R1202M
853.68	1.618	884562	WORD	n/a	wordpools/wordpool_EN.txt	VEST	9	6	[0, 0, 0]	n/a	FR1	1	R1202M
855.298	0.817	886180	WORD_OFF	n/a	n/a	VEST	9	6	[0, 0, 0]	n/a	FR1	1	R1202M
856.115	1.616	886997	WORD	n/a	wordpools/wordpool_EN.txt	JAIL	10	6	[0, 0, 0]	n/a	FR1	1	R1202M
857.731	0.967	888613	WORD_OFF	n/a	n/a	JAIL	10	6	[0, 0, 0]	n/a	FR1	1	R1202M
858.698	1.618	889580	WORD	n/a	wordpools/wordpool_EN.txt	PIPE	11	6	[0, 0, 0]	n/a	FR1	1	R1202M
860.316	0.866	891198	WORD_OFF	n/a	n/a	PIPE	11	6	[0, 0, 0]	n/a	FR1	1	R1202M
861.182	1.616	892064	WORD	n/a	wordpools/wordpool_EN.txt	SEAL	12	6	[0, 0, 0]	n/a	FR1	1	R1202M
862.798	0.0	893680	WORD_OFF	n/a	n/a	SEAL	12	6	[0, 0, 0]	n/a	FR1	1	R1202M
862.798	0.001	893680	DISTRACT_START	n/a	n/a	n/a	-999	6	[0, 0, 0]	n/a	FR1	1	R1202M
862.799	0.016	893681	START	n/a	n/a	n/a	-999	6	[-999, -999, -999]	n/a	FR1	1	R1202M
862.815	6.402	893697	PROB	6.402	n/a	n/a	-999	6	[5, 3, 7]	15	FR1	1	R1202M
869.217	4.5	900099	PROB	4.5	n/a	n/a	-999	6	[3, 7, 6]	16	FR1	1	R1202M
873.717	4.018	904598	PROB	4.018	n/a	n/a	-999	6	[9, 2, 5]	16	FR1	1	R1202M
877.735	5.271	908616	PROB	5.271	n/a	n/a	-999	6	[2, 2, 7]	12	FR1	1	R1202M
883.006	0.014	913887	STOP	n/a	n/a	n/a	-999	6	[-999, -999, -999]	n/a	FR1	1	R1202M
883.02	0.599	913901	DISTRACT_END	n/a	n/a	n/a	-999	6	[0, 0, 0]	n/a	FR1	1	R1202M
883.619	0.519	914500	RETRIEVAL_ORIENT	n/a	n/a	n/a	-999	6	[0, 0, 0]	n/a	FR1	1	R1202M
884.138	8.292	915019	REC_START	n/a	n/a	n/a	-999	6	[0, 0, 0]	n/a	FR1	1	R1202M
892.43	20.513	923310	REC_WORD	20.513	n/a	VEST	-999	6	[0, 0, 0]	n/a	FR1	1	R1202M
912.943	1.207	943822	REC_WORD	1.207	n/a	BROOM	-999	6	[0, 0, 0]	n/a	FR1	1	R1202M
914.15	9.194	945029	REC_END	n/a	n/a	n/a	-999	6	[0, 0, 0]	n/a	FR1	1	R1202M
923.344	0.5	954222	TRIAL	n/a	n/a	n/a	-999	7	[0, 0, 0]	n/a	FR1	1	R1202M
923.844	10.428	954722	COUNTDOWN_START	n/a	n/a	n/a	-999	7	[0, 0, 0]	n/a	FR1	1	R1202M
934.272	0.008	965150	COUNTDOWN_END	n/a	n/a	n/a	-999	7	[0, 0, 0]	n/a	FR1	1	R1202M
934.28	1.616	965158	ORIENT	n/a	n/a	n/a	-999	7	[0, 0, 0]	n/a	FR1	1	R1202M
935.896	1.9	966774	ORIENT_OFF	n/a	n/a	n/a	-999	7	[0, 0, 0]	n/a	FR1	1	R1202M
937.796	1.618	968674	WORD	n/a	wordpools/wordpool_EN.txt	PLATE	1	7	[0, 0, 0]	n/a	FR1	1	R1202M
939.414	0.967	970292	WORD_OFF	n/a	n/a	PLATE	1	7	[0, 0, 0]	n/a	FR1	1	R1202M
940.381	1.617	971259	WORD	n/a	wordpools/wordpool_EN.txt	GLOVE	2	7	[0, 0, 0]	n/a	FR1	1	R1202M
941.998	0.783	972875	WORD_OFF	n/a	n/a	GLOVE	2	7	[0, 0, 0]	n/a	FR1	1	R1202M
942.781	1.618	973658	WORD	n/a	wordpools/wordpool_EN.txt	KITE	3	7	[0, 0, 0]	n/a	FR1	1	R1202M
944.399	0.95	975276	WORD_OFF	n/a	n/a	KITE	3	7	[0, 0, 0]	n/a	FR1	1	R1202M
945.349	1.616	976226	WORD	n/a	wordpools/wordpool_EN.txt	CAPE	4	7	[0, 0, 0]	n/a	FR1	1	R1202M
946.965	0.833	977842	WORD_OFF	n/a	n/a	CAPE	4	7	[0, 0, 0]	n/a	FR1	1	R1202M
947.798	1.617	978675	WORD	n/a	wordpools/wordpool_EN.txt	HORN	5	7	[0, 0, 0]	n/a	FR1	1	R1202M
949.415	0.985	980292	WORD_OFF	n/a	n/a	HORN	5	7	[0, 0, 0]	n/a	FR1	1	R1202M
950.4	1.617	981277	WORD	n/a	wordpools/wordpool_EN.txt	PEACH	6	7	[0, 0, 0]	n/a	FR1	1	R1202M
952.017	0.899	982894	WORD_OFF	n/a	n/a	PEACH	6	7	[0, 0, 0]	n/a	FR1	1	R1202M
952.916	1.617	983793	WORD	n/a	wordpools/wordpool_EN.txt	VINE	7	7	[0, 0, 0]	n/a	FR1	1	R1202M
954.533	0.883	985410	WORD_OFF	n/a	n/a	VINE	7	7	[0, 0, 0]	n/a	FR1	1	R1202M
955.416	1.618	986293	WORD	n/a	wordpools/wordpool_EN.txt	FOOT	8	7	[0, 0, 0]	n/a	FR1	1	R1202M
957.034	0.8	987911	WORD_OFF	n/a	n/a	FOOT	8	7	[0, 0, 0]	n/a	FR1	1	R1202M
957.834	1.616	988711	WORD	n/a	wordpools/wordpool_EN.txt	STOVE	9	7	[0, 0, 0]	n/a	FR1	1	R1202M
959.45	0.967	990326	WORD_OFF	n/a	n/a	STOVE	9	7	[0, 0, 0]	n/a	FR1	1	R1202M
960.417	1.601	991293	WORD	n/a	wordpools/wordpool_EN.txt	HOSE	10	7	[0, 0, 0]	n/a	FR1	1	R1202M
962.018	0.85	992894	WORD_OFF	n/a	n/a	HOSE	10	7	[0, 0, 0]	n/a	FR1	1	R1202M
962.868	1.617	993744	WORD	n/a	wordpools/wordpool_EN.txt	BROOM	11	7	[0, 0, 0]	n/a	FR1	1	R1202M
964.485	1.017	995361	WORD_OFF	n/a	n/a	BROOM	11	7	[0, 0, 0]	n/a	FR1	1	R1202M
965.502	1.618	996378	WORD	n/a	wordpools/wordpool_EN.txt	STOOL	12	7	[0, 0, 0]	n/a	FR1	1	R1202M
967.12	0.0	997996	WORD_OFF	n/a	n/a	STOOL	12	7	[0, 0, 0]	n/a	FR1	1	R1202M
967.12	0.0	997996	DISTRACT_START	n/a	n/a	n/a	-999	7	[0, 0, 0]	n/a	FR1	1	R1202M
967.12	0.016	997996	START	n/a	n/a	n/a	-999	7	[-999, -999, -999]	n/a	FR1	1	R1202M
967.136	6.118	998012	PROB	6.118	n/a	n/a	-999	7	[2, 6, 7]	15	FR1	1	R1202M
973.254	4.267	1004130	PROB	4.267	n/a	n/a	-999	7	[5, 3, 8]	16	FR1	1	R1202M
977.521	7.018	1008396	PROB	7.018	n/a	n/a	-999	7	[1, 2, 6]	9	FR1	1	R1202M
984.539	2.922	1015414	PROB	2.922	n/a	n/a	-999	7	[1, 6, 7]	14	FR1	1	R1202M
987.461	0.012	1018336	STOP	n/a	n/a	n/a	-999	7	[-999, -999, -999]	n/a	FR1	1	R1202M
987.473	0.651	1018348	DISTRACT_END	n/a	n/a	n/a	-999	7	[0, 0, 0]	n/a	FR1	1	R1202M
988.124	0.516	1018999	RETRIEVAL_ORIENT	n/a	n/a	n/a	-999	7	[0, 0, 0]	n/a	FR1	1	R1202M
988.64	7.483	1019515	REC_START	n/a	n/a	n/a	-999	7	[0, 0, 0]	n/a	FR1	1	R1202M
996.123	17.95	1026997	REC_WORD	17.95	n/a	BROOM	-999	7	[0, 0, 0]	n/a	FR1	1	R1202M
1014.073	4.578	1044946	REC_WORD	4.578	n/a	SALT	-999	7	[0, 0, 0]	n/a	FR1	1	R1202M
1018.651	7.979	1049524	REC_END	n/a	n/a	n/a	-999	7	[0, 0, 0]	n/a	FR1	1	R1202M
1026.63	0.5	1057503	TRIAL	n/a	n/a	n/a	-999	8	[0, 0, 0]	n/a	FR1	1	R1202M
1027.13	10.428	1058003	COUNTDOWN_START	n/a	n/a	n/a	-999	8	[0, 0, 0]	n/a	FR1	1	R1202M
1037.558	0.007	1068430	COUNTDOWN_END	n/a	n/a	n/a	-999	8	[0, 0, 0]	n/a	FR1	1	R1202M
1037.565	1.602	1068437	ORIENT	n/a	n/a	n/a	-999	8	[0, 0, 0]	n/a	FR1	1	R1202M
1039.167	2.05	1070039	ORIENT_OFF	n/a	n/a	n/a	-999	8	[0, 0, 0]	n/a	FR1	1	R1202M
1041.217	1.616	1072089	WORD	n/a	wordpools/wordpool_EN.txt	NAIL	1	8	[0, 0, 0]	n/a	FR1	1	R1202M
1042.833	0.95	1073705	WORD_OFF	n/a	n/a	NAIL	1	8	[0, 0, 0]	n/a	FR1	1	R1202M
1043.783	1.601	1074655	WORD	n/a	wordpools/wordpool_EN.txt	BEAN	2	8	[0, 0, 0]	n/a	FR1	1	R1202M
1045.384	0.801	1076256	WORD_OFF	n/a	n/a	BEAN	2	8	[0, 0, 0]	n/a	FR1	1	R1202M
1046.185	1.616	1077057	WORD	n/a	wordpools/wordpool_EN.txt	SPRING	3	8	[0, 0, 0]	n/a	FR1	1	R1202M
1047.801	0.833	1078672	WORD_OFF	n/a	n/a	SPRING	3	8	[0, 0, 0]	n/a	FR1	1	R1202M
1048.634	1.618	1079505	WORD	n/a	wordpools/wordpool_EN.txt	STICK	4	8	[0, 0, 0]	n/a	FR1	1	R1202M
1050.252	0.834	1081123	WORD_OFF	n/a	n/a	STICK	4	8	[0, 0, 0]	n/a	FR1	1	R1202M
1051.086	1.616	1081957	WORD	n/a	wordpools/wordpool_EN.txt	CAKE	5	8	[0, 0, 0]	n/a	FR1	1	R1202M
1052.702	0.983	1083573	WORD_OFF	n/a	n/a	CAKE	5	8	[0, 0, 0]	n/a	FR1	1	R1202M
1053.685	1.618	1084556	WORD	n/a	wordpools/wordpool_EN.txt	TIE	6	8	[0, 0, 0]	n/a	FR1	1	R1202M
1055.303	0.817	1086174	WORD_OFF	n/a	n/a	TIE	6	8	[0, 0, 0]	n/a	FR1	1	R1202M
1056.12	1.616	1086991	WORD	n/a	wordpools/wordpool_EN.txt	THREAD	7	8	[0, 0, 0]	n/a	FR1	1	R1202M
1057.736	1.0	1088607	WORD_OFF	n/a	n/a	THREAD	7	8	[0, 0, 0]	n/a	FR1	1	R1202M
1058.736	1.601	1089607	WORD	n/a	wordpools/wordpool_EN.txt	MAT	8	8	[0, 0, 0]	n/a	FR1	1	R1202M
1060.337	0.9	1091208	WORD_OFF	n/a	n/a	MAT	8	8	[0, 0, 0]	n/a	FR1	1	R1202M
1061.237	1.617	1092108	WORD	n/a	wordpools/wordpool_EN.txt	SPOON	9	8	[0, 0, 0]	n/a	FR1	1	R1202M
1062.854	0.95	1093725	WORD_OFF	n/a	n/a	SPOON	9	8	[0, 0, 0]	n/a	FR1	1	R1202M
1063.804	1.601	1094675	WORD	n/a	wordpools/wordpool_EN.txt	BARN	10	8	[0, 0, 0]	n/a	FR1	1	R1202M
1065.405	0.784	1096276	WORD_OFF	n/a	n/a	BARN	10	8	[0, 0, 0]	n/a	FR1	1	R1202M
1066.189	1.616	1097059	WORD	n/a	wordpools/wordpool_EN.txt	DART	11	8	[0, 0, 0]	n/a	FR1	1	R1202M
1067.805	0.766	1098675	WORD_OFF	n/a	n/a	DART	11	8	[0, 0, 0]	n/a	FR1	1	R1202M
1068.571	1.602	1099441	WORD	n/a	wordpools/wordpool_EN.txt	CANE	12	8	[0, 0, 0]	n/a	FR1	1	R1202M
1070.173	0.0	1101043	WORD_OFF	n/a	n/a	CANE	12	8	[0, 0, 0]	n/a	FR1	1	R1202M
1070.173	0.0	1101043	DISTRACT_START	n/a	n/a	n/a	-999	8	[0, 0, 0]	n/a	FR1	1	R1202M
1070.173	0.016	1101043	START	n/a	n/a	n/a	-999	8	[-999, -999, -999]	n/a	FR1	1	R1202M
1070.189	3.835	1101059	PROB	3.835	n/a	n/a	-999	8	[1, 1, 5]	7	FR1	1	R1202M
1074.024	3.167	1104894	PROB	3.167	n/a	n/a	-999	8	[5, 3, 3]	11	FR1	1	R1202M
1077.191	2.934	1108061	PROB	2.934	n/a	n/a	-999	8	[3, 6, 3]	12	FR1	1	R1202M
1080.125	7.467	1110995	PROB	7.467	n/a	n/a	-999	8	[8, 6, 6]	19	FR1	1	R1202M
1087.592	5.67	1118461	PROB	5.67	n/a	n/a	-999	8	[8, 8, 3]	19	FR1	1	R1202M
1093.262	0.015	1124131	STOP	n/a	n/a	n/a	-999	8	[-999, -999, -999]	n/a	FR1	1	R1202M
1093.277	0.649	1124146	DISTRACT_END	n/a	n/a	n/a	-999	8	[0, 0, 0]	n/a	FR1	1	R1202M
1093.926	0.518	1124795	RETRIEVAL_ORIENT	n/a	n/a	n/a	-999	8	[0, 0, 0]	n/a	FR1	1	R1202M
1094.444	2.133	1125313	REC_START	n/a	n/a	n/a	-999	8	[0, 0, 0]	n/a	FR1	1	R1202M
1096.577	5.96	1127446	REC_WORD	5.96	n/a	CAKE	-999	8	[0, 0, 0]	n/a	FR1	1	R1202M
1102.537	3.527	1133405	REC_WORD	3.527	n/a	SPOON	-999	8	[0, 0, 0]	n/a	FR1	1	R1202M
1106.064	8.509	1136932	REC_WORD	8.509	n/a	PEACH	-999	8	[0, 0, 0]	n/a	FR1	1	R1202M
1114.573	9.883	1145441	REC_WORD	9.883	n/a	CANE	-999	8	[0, 0, 0]	n/a	FR1	1	R1202M
1124.456	5.945	1155323	REC_END	n/a	n/a	n/a	-999	8	[0, 0, 0]	n/a	FR1	1	R1202M
1130.401	0.5	1161268	TRIAL	n/a	n/a	n/a	-999	9	[0, 0, 0]	n/a	FR1	1	R1202M
1130.901	10.428	1161768	COUNTDOWN_START	n/a	n/a	n/a	-999	9	[0, 0, 0]	n/a	FR1	1	R1202M
1141.329	0.007	1172195	COUNTDOWN_END	n/a	n/a	n/a	-999	9	[0, 0, 0]	n/a	FR1	1	R1202M
1141.336	1.617	1172202	ORIENT	n/a	n/a	n/a	-999	9	[0, 0, 0]	n/a	FR1	1	R1202M
1142.953	1.967	1173819	ORIENT_OFF	n/a	n/a	n/a	-999	9	[0, 0, 0]	n/a	FR1	1	R1202M
1144.92	1.617	1175786	WORD	n/a	wordpools/wordpool_EN.txt	BLOOM	1	9	[0, 0, 0]	n/a	FR1	1	R1202M
1146.537	0.966	1177403	WORD_OFF	n/a	n/a	BLOOM	1	9	[0, 0, 0]	n/a	FR1	1	R1202M
1147.503	1.602	1178369	WORD	n/a	wordpools/wordpool_EN.txt	FRUIT	2	9	[0, 0, 0]	n/a	FR1	1	R1202M
1149.105	0.832	1179971	WORD_OFF	n/a	n/a	FRUIT	2	9	[0, 0, 0]	n/a	FR1	1	R1202M
1149.937	1.617	1180803	WORD	n/a	wordpools/wordpool_EN.txt	SUN	3	9	[0, 0, 0]	n/a	FR1	1	R1202M
1151.554	0.867	1182420	WORD_OFF	n/a	n/a	SUN	3	9	[0, 0, 0]	n/a	FR1	1	R1202M
1152.421	1.618	1183287	WORD	n/a	wordpools/wordpool_EN.txt	GEESE	4	9	[0, 0, 0]	n/a	FR1	1	R1202M
1154.039	0.782	1184905	WORD_OFF	n/a	n/a	GEESE	4	9	[0, 0, 0]	n/a	FR1	1	R1202M
1154.821	1.618	1185686	WORD	n/a	wordpools/wordpool_EN.txt	PEAR	5	9	[0, 0, 0]	n/a	FR1	1	R1202M
1156.439	0.834	1187304	WORD_OFF	n/a	n/a	PEAR	5	9	[0, 0, 0]	n/a	FR1	1	R1202M
1157.273	1.616	1188138	WORD	n/a	wordpools/wordpool_EN.txt	LAWN	6	9	[0, 0, 0]	n/a	FR1	1	R1202M
1158.889	0.817	1189754	WORD_OFF	n/a	n/a	LAWN	6	9	[0, 0, 0]	n/a	FR1	1	R1202M
1159.706	1.618	1190571	WORD	n/a	wordpools/wordpool_EN.txt	NEST	7	9	[0, 0, 0]	n/a	FR1	1	R1202M
1161.324	0.95	1192189	WORD_OFF	n/a	n/a	NEST	7	9	[0, 0, 0]	n/a	FR1	1	R1202M
1162.274	1.616	1193139	WORD	n/a	wordpools/wordpool_EN.txt	SNAKE	8	9	[0, 0, 0]	n/a	FR1	1	R1202M
1163.89	0.917	1194755	WORD_OFF	n/a	n/a	SNAKE	8	9	[0, 0, 0]	n/a	FR1	1	R1202M
1164.807	1.617	1195672	WORD	n/a	wordpools/wordpool_EN.txt	SHEEP	9	9	[0, 0, 0]	n/a	FR1	1	R1202M
1166.424	1.0	1197289	WORD_OFF	n/a	n/a	SHEEP	9	9	[0, 0, 0]	n/a	FR1	1	R1202M
1167.424	1.618	1198289	WORD	n/a	wordpools/wordpool_EN.txt	BALL	10	9	[0, 0, 0]	n/a	FR1	1	R1202M
1169.042	0.967	1199907	WORD_OFF	n/a	n/a	BALL	10	9	[0, 0, 0]	n/a	FR1	1	R1202M
1170.009	1.616	1200874	WORD	n/a	wordpools/wordpool_EN.txt	WING	11	9	[0, 0, 0]	n/a	FR1	1	R1202M
1171.625	0.917	1202490	WORD_OFF	n/a	n/a	WING	11	9	[0, 0, 0]	n/a	FR1	1	R1202M
1172.542	1.618	1203406	WORD	n/a	wordpools/wordpool_EN.txt	WHALE	12	9	[0, 0, 0]	n/a	FR1	1	R1202M
1174.16	0.0	1205024	WORD_OFF	n/a	n/a	WHALE	12	9	[0, 0, 0]	n/a	FR1	1	R1202M
1174.16	0.0	1205024	DISTRACT_START	n/a	n/a	n/a	-999	9	[0, 0, 0]	n/a	FR1	1	R1202M
1174.16	0.016	1205024	START	n/a	n/a	n/a	-999	9	[-999, -999, -999]	n/a	FR1	1	R1202M
1174.176	3.45	1205040	PROB	3.45	n/a	n/a	-999	9	[3, 3, 6]	12	FR1	1	R1202M
1177.626	4.602	1208490	PROB	4.602	n/a	n/a	-999	9	[9, 3, 3]	15	FR1	1	R1202M
1182.228	4.533	1213092	PROB	4.533	n/a	n/a	-999	9	[2, 7, 1]	10	FR1	1	R1202M
1186.761	5.335	1217625	PROB	5.335	n/a	n/a	-999	9	[7, 5, 7]	18	FR1	1	R1202M
1192.096	4.983	1222959	PROB	4.983	n/a	n/a	-999	9	[4, 1, 7]	12	FR1	1	R1202M
1197.079	0.018	1227942	STOP	n/a	n/a	n/a	-999	9	[-999, -999, -999]	n/a	FR1	1	R1202M
1197.097	0.633	1227960	DISTRACT_END	n/a	n/a	n/a	-999	9	[0, 0, 0]	n/a	FR1	1	R1202M
1197.73	0.519	1228593	RETRIEVAL_ORIENT	n/a	n/a	n/a	-999	9	[0, 0, 0]	n/a	FR1	1	R1202M
1198.249	3.881	1229112	REC_START	n/a	n/a	n/a	-999	9	[0, 0, 0]	n/a	FR1	1	R1202M
1202.13	8.257	1232993	REC_WORD	8.257	n/a	WHALE	-999	9	[0, 0, 0]	n/a	FR1	1	R1202M
1210.387	4.643	1241249	REC_WORD	4.643	n/a	PEAR	-999	9	[0, 0, 0]	n/a	FR1	1	R1202M
1215.03	6.218	1245892	REC_WORD	6.218	n/a	BALL	-999	9	[0, 0, 0]	n/a	FR1	1	R1202M
1221.248	6.503	1252110	REC_WORD	6.503	n/a	NEST	-999	9	[0, 0, 0]	n/a	FR1	1	R1202M
1227.751	0.509	1258612	REC_WORD	0.509	n/a	BIRD	-999	9	[0, 0, 0]	n/a	FR1	1	R1202M
1228.26	11.996	1259121	REC_END	n/a	n/a	n/a	-999	9	[0, 0, 0]	n/a	FR1	1	R1202M
1240.256	0.5	1271117	TRIAL	n/a	n/a	n/a	-999	10	[0, 0, 0]	n/a	FR1	1	R1202M
1240.756	10.428	1271617	COUNTDOWN_START	n/a	n/a	n/a	-999	10	[0, 0, 0]	n/a	FR1	1	R1202M
1251.184	0.007	1282044	COUNTDOWN_END	n/a	n/a	n/a	-999	10	[0, 0, 0]	n/a	FR1	1	R1202M
1251.191	1.616	1282051	ORIENT	n/a	n/a	n/a	-999	10	[0, 0, 0]	n/a	FR1	1	R1202M
1252.807	2.151	1283667	ORIENT_OFF	n/a	n/a	n/a	-999	10	[0, 0, 0]	n/a	FR1	1	R1202M
1254.958	1.616	1285818	WORD	n/a	wordpools/wordpool_EN.txt	DRESS	1	10	[0, 0, 0]	n/a	FR1	1	R1202M
1256.574	0.818	1287434	WORD_OFF	n/a	n/a	DRESS	1	10	[0, 0, 0]	n/a	FR1	1	R1202M
1257.392	1.617	1288252	WORD	n/a	wordpools/wordpool_EN.txt	TEA	2	10	[0, 0, 0]	n/a	FR1	1	R1202M
1259.009	0.766	1289869	WORD_OFF	n/a	n/a	TEA	2	10	[0, 0, 0]	n/a	FR1	1	R1202M
1259.775	1.618	1290635	WORD	n/a	wordpools/wordpool_EN.txt	BOMB	3	10	[0, 0, 0]	n/a	FR1	1	R1202M
1261.393	0.95	1292252	WORD_OFF	n/a	n/a	BOMB	3	10	[0, 0, 0]	n/a	FR1	1	R1202M
1262.343	1.616	1293202	WORD	n/a	wordpools/wordpool_EN.txt	SMOKE	4	10	[0, 0, 0]	n/a	FR1	1	R1202M
1263.959	0.784	1294818	WORD_OFF	n/a	n/a	SMOKE	4	10	[0, 0, 0]	n/a	FR1	1	R1202M
1264.743	1.618	1295602	WORD	n/a	wordpools/wordpool_EN.txt	WAVE	5	10	[0, 0, 0]	n/a	FR1	1	R1202M
1266.361	0.833	1297220	WORD_OFF	n/a	n/a	WAVE	5	10	[0, 0, 0]	n/a	FR1	1	R1202M
1267.194	1.616	1298053	WORD	n/a	wordpools/wordpool_EN.txt	GRASS	6	10	[0, 0, 0]	n/a	FR1	1	R1202M
1268.81	0.85	1299669	WORD_OFF	n/a	n/a	GRASS	6	10	[0, 0, 0]	n/a	FR1	1	R1202M
1269.66	1.618	1300519	WORD	n/a	wordpools/wordpool_EN.txt	BEAK	7	10	[0, 0, 0]	n/a	FR1	1	R1202M
1271.278	0.784	1302137	WORD_OFF	n/a	n/a	BEAK	7	10	[0, 0, 0]	n/a	FR1	1	R1202M
1272.062	1.616	1302921	WORD	n/a	wordpools/wordpool_EN.txt	RICE	8	10	[0, 0, 0]	n/a	FR1	1	R1202M
1273.678	0.8	1304537	WORD_OFF	n/a	n/a	RICE	8	10	[0, 0, 0]	n/a	FR1	1	R1202M
1274.478	1.618	1305337	WORD	n/a	wordpools/wordpool_EN.txt	BATH	9	10	[0, 0, 0]	n/a	FR1	1	R1202M
1276.096	0.866	1306955	WORD_OFF	n/a	n/a	BATH	9	10	[0, 0, 0]	n/a	FR1	1	R1202M
1276.962	1.617	1307821	WORD	n/a	wordpools/wordpool_EN.txt	FOG	10	10	[0, 0, 0]	n/a	FR1	1	R1202M
1278.579	0.784	1309438	WORD_OFF	n/a	n/a	FOG	10	10	[0, 0, 0]	n/a	FR1	1	R1202M
1279.363	1.617	1310221	WORD	n/a	wordpools/wordpool_EN.txt	JET	11	10	[0, 0, 0]	n/a	FR1	1	R1202M
1280.98	0.916	1311838	WORD_OFF	n/a	n/a	JET	11	10	[0, 0, 0]	n/a	FR1	1	R1202M
1281.896	1.617	1312754	WORD	n/a	wordpools/wordpool_EN.txt	BOX	12	10	[0, 0, 0]	n/a	FR1	1	R1202M
1283.513	0.0	1314371	WORD_OFF	n/a	n/a	BOX	12	10	[0, 0, 0]	n/a	FR1	1	R1202M
1283.513	0.001	1314371	DISTRACT_START	n/a	n/a	n/a	-999	10	[0, 0, 0]	n/a	FR1	1	R1202M
1283.514	0.016	1314372	START	n/a	n/a	n/a	-999	10	[-999, -999, -999]	n/a	FR1	1	R1202M
1283.53	4.485	1314388	PROB	4.485	n/a	n/a	-999	10	[7, 4, 3]	14	FR1	1	R1202M
1288.015	3.416	1318873	PROB	3.416	n/a	n/a	-999	10	[1, 9, 5]	15	FR1	1	R1202M
1291.431	3.234	1322289	PROB	3.234	n/a	n/a	-999	10	[5, 7, 5]	17	FR1	1	R1202M
1294.665	3.184	1325523	PROB	3.184	n/a	n/a	-999	10	[1, 3, 4]	8	FR1	1	R1202M
1297.849	3.552	1328706	PROB	3.552	n/a	n/a	-999	10	[2, 1, 1]	4	FR1	1	R1202M
1301.401	10.453	1332258	PROB	10.453	n/a	n/a	-999	10	[8, 5, 7]	20	FR1	1	R1202M
1311.854	0.015	1342711	STOP	n/a	n/a	n/a	-999	10	[-999, -999, -999]	n/a	FR1	1	R1202M
1311.869	0.7	1342726	DISTRACT_END	n/a	n/a	n/a	-999	10	[0, 0, 0]	n/a	FR1	1	R1202M
1312.569	0.518	1343426	RETRIEVAL_ORIENT	n/a	n/a	n/a	-999	10	[0, 0, 0]	n/a	FR1	1	R1202M
1313.087	1.457	1343944	REC_START	n/a	n/a	n/a	-999	10	[0, 0, 0]	n/a	FR1	1	R1202M
1314.544	3.232	1345401	REC_WORD	3.232	n/a	JET	-999	10	[0, 0, 0]	n/a	FR1	1	R1202M
1317.776	9.21	1348632	REC_WORD	9.21	n/a	BOMB	-999	10	[0, 0, 0]	n/a	FR1	1	R1202M
1326.986	16.112	1357842	REC_WORD	16.112	n/a	FLY	-999	10	[0, 0, 0]	n/a	FR1	1	R1202M
1343.098	5.112	1373953	REC_END	n/a	n/a	n/a	-999	10	[0, 0, 0]	n/a	FR1	1	R1202M
1348.21	0.5	1379065	TRIAL	n/a	n/a	n/a	-999	11	[0, 0, 0]	n/a	FR1	1	R1202M
1348.71	10.428	1379565	COUNTDOWN_START	n/a	n/a	n/a	-999	11	[0, 0, 0]	n/a	FR1	1	R1202M
1359.138	0.007	1389992	COUNTDOWN_END	n/a	n/a	n/a	-999	11	[0, 0, 0]	n/a	FR1	1	R1202M
1359.145	1.616	1389999	ORIENT	n/a	n/a	n/a	-999	11	[0, 0, 0]	n/a	FR1	1	R1202M
1360.761	2.034	1391615	ORIENT_OFF	n/a	n/a	n/a	-999	11	[0, 0, 0]	n/a	FR1	1	R1202M
1362.795	1.601	1393649	WORD	n/a	wordpools/wordpool_EN.txt	FOX	1	11	[0, 0, 0]	n/a	FR1	1	R1202M
1364.396	0.984	1395250	WORD_OFF	n/a	n/a	FOX	1	11	[0, 0, 0]	n/a	FR1	1	R1202M
1365.38	1.617	1396234	WORD	n/a	wordpools/wordpool_EN.txt	JUDGE	2	11	[0, 0, 0]	n/a	FR1	1	R1202M
1366.997	0.966	1397851	WORD_OFF	n/a	n/a	JUDGE	2	11	[0, 0, 0]	n/a	FR1	1	R1202M
1367.963	1.617	1398817	WORD	n/a	wordpools/wordpool_EN.txt	FLAG	3	11	[0, 0, 0]	n/a	FR1	1	R1202M
1369.58	0.817	1400433	WORD_OFF	n/a	n/a	FLAG	3	11	[0, 0, 0]	n/a	FR1	1	R1202M
1370.397	1.617	1401250	WORD	n/a	wordpools/wordpool_EN.txt	ELF	4	11	[0, 0, 0]	n/a	FR1	1	R1202M
1372.014	1.001	1402867	WORD_OFF	n/a	n/a	ELF	4	11	[0, 0, 0]	n/a	FR1	1	R1202M
1373.015	1.616	1403868	WORD	n/a	wordpools/wordpool_EN.txt	TRUCK	5	11	[0, 0, 0]	n/a	FR1	1	R1202M
1374.631	0.983	1405484	WORD_OFF	n/a	n/a	TRUCK	5	11	[0, 0, 0]	n/a	FR1	1	R1202M
1375.614	1.618	1406467	WORD	n/a	wordpools/wordpool_EN.txt	PLANE	6	11	[0, 0, 0]	n/a	FR1	1	R1202M
1377.232	0.95	1408085	WORD_OFF	n/a	n/a	PLANE	6	11	[0, 0, 0]	n/a	FR1	1	R1202M
1378.182	1.616	1409035	WORD	n/a	wordpools/wordpool_EN.txt	SQUARE	7	11	[0, 0, 0]	n/a	FR1	1	R1202M
1379.798	0.95	1410651	WORD_OFF	n/a	n/a	SQUARE	7	11	[0, 0, 0]	n/a	FR1	1	R1202M
1380.748	1.602	1411601	WORD	n/a	wordpools/wordpool_EN.txt	CLAY	8	11	[0, 0, 0]	n/a	FR1	1	R1202M
1382.35	0.883	1413203	WORD_OFF	n/a	n/a	CLAY	8	11	[0, 0, 0]	n/a	FR1	1	R1202M
1383.233	1.616	1414086	WORD	n/a	wordpools/wordpool_EN.txt	FLOOR	9	11	[0, 0, 0]	n/a	FR1	1	R1202M
1384.849	0.8	1415702	WORD_OFF	n/a	n/a	FLOOR	9	11	[0, 0, 0]	n/a	FR1	1	R1202M
1385.649	1.601	1416502	WORD	n/a	wordpools/wordpool_EN.txt	TREE	10	11	[0, 0, 0]	n/a	FR1	1	R1202M
1387.25	0.968	1418102	WORD_OFF	n/a	n/a	TREE	10	11	[0, 0, 0]	n/a	FR1	1	R1202M
1388.218	1.616	1419070	WORD	n/a	wordpools/wordpool_EN.txt	TAIL	11	11	[0, 0, 0]	n/a	FR1	1	R1202M
1389.834	0.783	1420686	WORD_OFF	n/a	n/a	TAIL	11	11	[0, 0, 0]	n/a	FR1	1	R1202M
1390.617	1.618	1421469	WORD	n/a	wordpools/wordpool_EN.txt	DITCH	12	11	[0, 0, 0]	n/a	FR1	1	R1202M
1392.235	0.0	1423087	DISTRACT_START	n/a	n/a	n/a	-999	11	[0, 0, 0]	n/a	FR1	1	R1202M
1392.235	0.001	1423087	WORD_OFF	n/a	n/a	DITCH	12	11	[0, 0, 0]	n/a	FR1	1	R1202M
1392.236	0.016	1423088	START	n/a	n/a	n/a	-999	11	[-999, -999, -999]	n/a	FR1	1	R1202M
1392.252	8.55	1423104	PROB	8.55	n/a	n/a	-999	11	[1, 6, 7]	14	FR1	1	R1202M
1400.802	5.068	1431654	PROB	5.068	n/a	n/a	-999	11	[6, 2, 6]	14	FR1	1	R1202M
1405.87	8.145	1436721	PROB	8.145	n/a	n/a	-999	11	[9, 8, 7]	24	FR1	1	R1202M
1414.015	0.007	1444866	STOP	n/a	n/a	n/a	-999	11	[-999, -999, -999]	n/a	FR1	1	R1202M
1414.022	0.583	1444873	DISTRACT_END	n/a	n/a	n/a	-999	11	[0, 0, 0]	n/a	FR1	1	R1202M
1414.605	0.519	1445456	RETRIEVAL_ORIENT	n/a	n/a	n/a	-999	11	[0, 0, 0]	n/a	FR1	1	R1202M
1415.124	2.259	1445975	REC_START	n/a	n/a	n/a	-999	11	[0, 0, 0]	n/a	FR1	1	R1202M
1417.383	3.084	1448234	REC_WORD	3.084	n/a	DITCH	-999	11	[0, 0, 0]	n/a	FR1	1	R1202M
1420.467	9.35	1451318	REC_WORD	9.35	n/a	TRUCK	-999	11	[0, 0, 0]	n/a	FR1	1	R1202M
1429.817	15.318	1460667	REC_WORD	15.318	n/a	JET	-999	11	[0, 0, 0]	n/a	FR1	1	R1202M
1445.135	5.028	1475984	REC_END	n/a	n/a	n/a	-999	11	[0, 0, 0]	n/a	FR1	1	R1202M
1450.163	0.5	1481012	TRIAL	n/a	n/a	n/a	-999	12	[0, 0, 0]	n/a	FR1	1	R1202M
1450.663	10.428	1481512	COUNTDOWN_START	n/a	n/a	n/a	-999	12	[0, 0, 0]	n/a	FR1	1	R1202M
1461.091	0.007	1491939	COUNTDOWN_END	n/a	n/a	n/a	-999	12	[0, 0, 0]	n/a	FR1	1	R1202M
1461.098	1.616	1491946	ORIENT	n/a	n/a	n/a	-999	12	[0, 0, 0]	n/a	FR1	1	R1202M
1462.714	2.117	1493562	ORIENT_OFF	n/a	n/a	n/a	-999	12	[0, 0, 0]	n/a	FR1	1	R1202M
1464.831	1.617	1495679	WORD	n/a	wordpools/wordpool_EN.txt	MILK	1	12	[0, 0, 0]	n/a	FR1	1	R1202M
1466.448	0.984	1497296	WORD_OFF	n/a	n/a	MILK	1	12	[0, 0, 0]	n/a	FR1	1	R1202M
1467.432	1.618	1498280	WORD	n/a	wordpools/wordpool_EN.txt	VASE	2	12	[0, 0, 0]	n/a	FR1	1	R1202M
1469.05	0.882	1499898	WORD_OFF	n/a	n/a	VASE	2	12	[0, 0, 0]	n/a	FR1	1	R1202M
1469.932	1.617	1500780	WORD	n/a	wordpools/wordpool_EN.txt	BLUSH	3	12	[0, 0, 0]	n/a	FR1	1	R1202M
1471.549	1.001	1502397	WORD_OFF	n/a	n/a	BLUSH	3	12	[0, 0, 0]	n/a	FR1	1	R1202M
1472.55	1.618	1503398	WORD	n/a	wordpools/wordpool_EN.txt	FLAME	4	12	[0, 0, 0]	n/a	FR1	1	R1202M
1474.168	0.85	1505016	WORD_OFF	n/a	n/a	FLAME	4	12	[0, 0, 0]	n/a	FR1	1	R1202M
1475.018	1.616	1505865	WORD	n/a	wordpools/wordpool_EN.txt	SHOE	5	12	[0, 0, 0]	n/a	FR1	1	R1202M
1476.634	0.917	1507481	WORD_OFF	n/a	n/a	SHOE	5	12	[0, 0, 0]	n/a	FR1	1	R1202M
1477.551	1.617	1508398	WORD	n/a	wordpools/wordpool_EN.txt	MOUSE	6	12	[0, 0, 0]	n/a	FR1	1	R1202M
1479.168	0.851	1510015	WORD_OFF	n/a	n/a	MOUSE	6	12	[0, 0, 0]	n/a	FR1	1	R1202M
1480.019	1.616	1510866	WORD	n/a	wordpools/wordpool_EN.txt	FENCE	7	12	[0, 0, 0]	n/a	FR1	1	R1202M
1481.635	0.783	1512482	WORD_OFF	n/a	n/a	FENCE	7	12	[0, 0, 0]	n/a	FR1	1	R1202M
1482.418	1.601	1513265	WORD	n/a	wordpools/wordpool_EN.txt	CART	8	12	[0, 0, 0]	n/a	FR1	1	R1202M
1484.019	0.984	1514866	WORD_OFF	n/a	n/a	CART	8	12	[0, 0, 0]	n/a	FR1	1	R1202M
1485.003	1.616	1515850	WORD	n/a	wordpools/wordpool_EN.txt	AXE	9	12	[0, 0, 0]	n/a	FR1	1	R1202M
1486.619	0.867	1517466	WORD_OFF	n/a	n/a	AXE	9	12	[0, 0, 0]	n/a	FR1	1	R1202M
1487.486	1.618	1518333	WORD	n/a	wordpools/wordpool_EN.txt	SIGN	10	12	[0, 0, 0]	n/a	FR1	1	R1202M
1489.104	0.95	1519951	WORD_OFF	n/a	n/a	SIGN	10	12	[0, 0, 0]	n/a	FR1	1	R1202M
1490.054	1.616	1520901	WORD	n/a	wordpools/wordpool_EN.txt	PIT	11	12	[0, 0, 0]	n/a	FR1	1	R1202M
1491.67	0.867	1522517	WORD_OFF	n/a	n/a	PIT	11	12	[0, 0, 0]	n/a	FR1	1	R1202M
1492.537	1.618	1523384	WORD	n/a	wordpools/wordpool_EN.txt	ROOF	12	12	[0, 0, 0]	n/a	FR1	1	R1202M
1494.155	0.0	1525001	WORD_OFF	n/a	n/a	ROOF	12	12	[0, 0, 0]	n/a	FR1	1	R1202M
1494.155	0.0	1525001	DISTRACT_START	n/a	n/a	n/a	-999	12	[0, 0, 0]	n/a	FR1	1	R1202M
1494.155	0.016	1525001	START	n/a	n/a	n/a	-999	12	[-999, -999, -999]	n/a	FR1	1	R1202M
1494.171	4.433	1525017	PROB	4.433	n/a	n/a	-999	12	[7, 4, 6]	17	FR1	1	R1202M
1498.604	4.436	1529450	PROB	4.436	n/a	n/a	-999	12	[5, 2, 2]	9	FR1	1	R1202M
1503.04	5.367	1533886	PROB	5.367	n/a	n/a	-999	12	[8, 6, 3]	20	FR1	1	R1202M
1508.407	5.551	1539253	PROB	5.551	n/a	n/a	-999	12	[4, 2, 7]	13	FR1	1	R1202M
1513.958	3.808	1544803	PROB	3.808	n/a	n/a	-999	12	[5, 2, 3]	10	FR1	1	R1202M
1517.766	0.009	1548611	STOP	n/a	n/a	n/a	-999	12	[-999, -999, -999]	n/a	FR1	1	R1202M
1517.775	0.568	1548620	DISTRACT_END	n/a	n/a	n/a	-999	12	[0, 0, 0]	n/a	FR1	1	R1202M
1518.343	0.516	1549188	RETRIEVAL_ORIENT	n/a	n/a	n/a	-999	12	[0, 0, 0]	n/a	FR1	1	R1202M
1518.859	2.623	1549704	REC_START	n/a	n/a	n/a	-999	12	[0, 0, 0]	n/a	FR1	1	R1202M
1521.482	27.387	1552327	REC_WORD_VV	27.387	n/a	<>	-999	12	[0, 0, 0]	n/a	FR1	1	R1202M
1548.869	278.816	1579712	REC_END	n/a	n/a	n/a	-999	12	[0, 0, 0]	n/a	FR1	1	R1202M
1827.685	0.5	1858513	TRIAL	n/a	n/a	n/a	-999	13	[0, 0, 0]	n/a	FR1	1	R1202M
1828.185	10.428	1859013	COUNTDOWN_START	n/a	n/a	n/a	-999	13	[0, 0, 0]	n/a	FR1	1	R1202M
1838.613	0.007	1869440	COUNTDOWN_END	n/a	n/a	n/a	-999	13	[0, 0, 0]	n/a	FR1	1	R1202M
1838.62	1.601	1869447	ORIENT	n/a	n/a	n/a	-999	13	[0, 0, 0]	n/a	FR1	1	R1202M
1840.221	2.101	1871048	ORIENT_OFF	n/a	n/a	n/a	-999	13	[0, 0, 0]	n/a	FR1	1	R1202M
1842.322	1.616	1873149	WORD	n/a	wordpools/wordpool_EN.txt	CASH	1	13	[0, 0, 0]	n/a	FR1	1	R1202M
1843.938	1.0	1874765	WORD_OFF	n/a	n/a	CASH	1	13	[0, 0, 0]	n/a	FR1	1	R1202M
1844.938	1.617	1875765	WORD	n/a	wordpools/wordpool_EN.txt	FISH	2	13	[0, 0, 0]	n/a	FR1	1	R1202M
1846.555	0.835	1877382	WORD_OFF	n/a	n/a	FISH	2	13	[0, 0, 0]	n/a	FR1	1	R1202M
1847.39	1.617	1878217	WORD	n/a	wordpools/wordpool_EN.txt	TENT	3	13	[0, 0, 0]	n/a	FR1	1	R1202M
1849.007	0.899	1879833	WORD_OFF	n/a	n/a	TENT	3	13	[0, 0, 0]	n/a	FR1	1	R1202M
1849.906	1.617	1880732	WORD	n/a	wordpools/wordpool_EN.txt	CHIEF	4	13	[0, 0, 0]	n/a	FR1	1	R1202M
1851.523	0.917	1882349	WORD_OFF	n/a	n/a	CHIEF	4	13	[0, 0, 0]	n/a	FR1	1	R1202M
1852.44	1.601	1883266	WORD	n/a	wordpools/wordpool_EN.txt	RAIN	5	13	[0, 0, 0]	n/a	FR1	1	R1202M
1854.041	0.916	1884867	WORD_OFF	n/a	n/a	RAIN	5	13	[0, 0, 0]	n/a	FR1	1	R1202M
1854.957	1.617	1885783	WORD	n/a	wordpools/wordpool_EN.txt	CHEEK	6	13	[0, 0, 0]	n/a	FR1	1	R1202M
1856.574	0.801	1887400	WORD_OFF	n/a	n/a	CHEEK	6	13	[0, 0, 0]	n/a	FR1	1	R1202M
1857.375	1.617	1888201	WORD	n/a	wordpools/wordpool_EN.txt	KEY	7	13	[0, 0, 0]	n/a	FR1	1	R1202M
1858.992	0.899	1889818	WORD_OFF	n/a	n/a	KEY	7	13	[0, 0, 0]	n/a	FR1	1	R1202M
1859.891	1.617	1890717	WORD	n/a	wordpools/wordpool_EN.txt	MAIL	8	13	[0, 0, 0]	n/a	FR1	1	R1202M
1861.508	0.967	1892334	WORD_OFF	n/a	n/a	MAIL	8	13	[0, 0, 0]	n/a	FR1	1	R1202M
1862.475	1.618	1893301	WORD	n/a	wordpools/wordpool_EN.txt	SHIP	9	13	[0, 0, 0]	n/a	FR1	1	R1202M
1864.093	0.766	1894919	WORD_OFF	n/a	n/a	SHIP	9	13	[0, 0, 0]	n/a	FR1	1	R1202M
1864.859	1.617	1895685	WORD	n/a	wordpools/wordpool_EN.txt	PARK	10	13	[0, 0, 0]	n/a	FR1	1	R1202M
1866.476	0.834	1897302	WORD_OFF	n/a	n/a	PARK	10	13	[0, 0, 0]	n/a	FR1	1	R1202M
1867.31	1.616	1898135	WORD	n/a	wordpools/wordpool_EN.txt	SKUNK	11	13	[0, 0, 0]	n/a	FR1	1	R1202M
1868.926	0.984	1899751	WORD_OFF	n/a	n/a	SKUNK	11	13	[0, 0, 0]	n/a	FR1	1	R1202M
1869.91	1.617	1900735	WORD	n/a	wordpools/wordpool_EN.txt	WORLD	12	13	[0, 0, 0]	n/a	FR1	1	R1202M
1871.527	0.0	1902352	WORD_OFF	n/a	n/a	WORLD	12	13	[0, 0, 0]	n/a	FR1	1	R1202M
1871.527	0.0	1902352	DISTRACT_START	n/a	n/a	n/a	-999	13	[0, 0, 0]	n/a	FR1	1	R1202M
1871.527	0.016	1902352	START	n/a	n/a	n/a	-999	13	[-999, -999, -999]	n/a	FR1	1	R1202M
1871.543	4.752	1902368	PROB	4.752	n/a	n/a	-999	13	[4, 7, 1]	12	FR1	1	R1202M
1876.295	4.901	1907120	PROB	4.901	n/a	n/a	-999	13	[6, 3, 1]	10	FR1	1	R1202M
1881.196	3.567	1912021	PROB	3.567	n/a	n/a	-999	13	[4, 3, 1]	8	FR1	1	R1202M
1884.763	2.867	1915587	PROB	2.867	n/a	n/a	-999	13	[3, 8, 5]	16	FR1	1	R1202M
1887.63	2.751	1918454	PROB	2.751	n/a	n/a	-999	13	[1, 8, 8]	17	FR1	1	R1202M
1890.381	4.209	1921205	PROB	4.209	n/a	n/a	-999	13	[2, 1, 7]	10	FR1	1	R1202M
1894.59	0.008	1925414	STOP	n/a	n/a	n/a	-999	13	[-999, -999, -999]	n/a	FR1	1	R1202M
1894.598	0.517	1925422	DISTRACT_END	n/a	n/a	n/a	-999	13	[0, 0, 0]	n/a	FR1	1	R1202M
1895.115	0.517	1925939	RETRIEVAL_ORIENT	n/a	n/a	n/a	-999	13	[0, 0, 0]	n/a	FR1	1	R1202M
1895.632	1.755	1926456	REC_START	n/a	n/a	n/a	-999	13	[0, 0, 0]	n/a	FR1	1	R1202M
1897.387	28.258	1928211	REC_WORD	28.258	n/a	SKUNK	-999	13	[0, 0, 0]	n/a	FR1	1	R1202M
1925.645	4.561	1956467	REC_END	n/a	n/a	n/a	-999	13	[0, 0, 0]	n/a	FR1	1	R1202M
1930.206	0.5	1961028	TRIAL	n/a	n/a	n/a	-999	14	[0, 0, 0]	n/a	FR1	1	R1202M
1930.706	10.428	1961528	COUNTDOWN_START	n/a	n/a	n/a	-999	14	[0, 0, 0]	n/a	FR1	1	R1202M
1941.134	0.007	1971955	COUNTDOWN_END	n/a	n/a	n/a	-999	14	[0, 0, 0]	n/a	FR1	1	R1202M
1941.141	1.616	1971962	ORIENT	n/a	n/a	n/a	-999	14	[0, 0, 0]	n/a	FR1	1	R1202M
1942.757	2.117	1973578	ORIENT_OFF	n/a	n/a	n/a	-999	14	[0, 0, 0]	n/a	FR1	1	R1202M
1944.874	1.617	1975695	WORD	n/a	wordpools/wordpool_EN.txt	PASTE	1	14	[0, 0, 0]	n/a	FR1	1	R1202M
1946.491	0.967	1977312	WORD_OFF	n/a	n/a	PASTE	1	14	[0, 0, 0]	n/a	FR1	1	R1202M
1947.458	1.601	1978279	WORD	n/a	wordpools/wordpool_EN.txt	TANK	2	14	[0, 0, 0]	n/a	FR1	1	R1202M
1949.059	0.934	1979880	WORD_OFF	n/a	n/a	TANK	2	14	[0, 0, 0]	n/a	FR1	1	R1202M
1949.993	1.616	1980814	WORD	n/a	wordpools/wordpool_EN.txt	STEAK	3	14	[0, 0, 0]	n/a	FR1	1	R1202M
1951.609	0.9	1982430	WORD_OFF	n/a	n/a	STEAK	3	14	[0, 0, 0]	n/a	FR1	1	R1202M
1952.509	1.601	1983330	WORD	n/a	wordpools/wordpool_EN.txt	CROWN	4	14	[0, 0, 0]	n/a	FR1	1	R1202M
1954.11	0.95	1984931	WORD_OFF	n/a	n/a	CROWN	4	14	[0, 0, 0]	n/a	FR1	1	R1202M
1955.06	1.616	1985881	WORD	n/a	wordpools/wordpool_EN.txt	TRAIN	5	14	[0, 0, 0]	n/a	FR1	1	R1202M
1956.676	0.801	1987496	WORD_OFF	n/a	n/a	TRAIN	5	14	[0, 0, 0]	n/a	FR1	1	R1202M
1957.477	1.618	1988297	WORD	n/a	wordpools/wordpool_EN.txt	CAT	6	14	[0, 0, 0]	n/a	FR1	1	R1202M
1959.095	0.865	1989915	WORD_OFF	n/a	n/a	CAT	6	14	[0, 0, 0]	n/a	FR1	1	R1202M
1959.96	1.617	1990780	WORD	n/a	wordpools/wordpool_EN.txt	DOOR	7	14	[0, 0, 0]	n/a	FR1	1	R1202M
1961.577	1.017	1992397	WORD_OFF	n/a	n/a	DOOR	7	14	[0, 0, 0]	n/a	FR1	1	R1202M
1962.594	1.601	1993414	WORD	n/a	wordpools/wordpool_EN.txt	TOAST	8	14	[0, 0, 0]	n/a	FR1	1	R1202M
1964.195	0.834	1995015	WORD_OFF	n/a	n/a	TOAST	8	14	[0, 0, 0]	n/a	FR1	1	R1202M
1965.029	1.616	1995849	WORD	n/a	wordpools/wordpool_EN.txt	OAR	9	14	[0, 0, 0]	n/a	FR1	1	R1202M
1966.645	0.933	1997465	WORD_OFF	n/a	n/a	OAR	9	14	[0, 0, 0]	n/a	FR1	1	R1202M
1967.578	1.619	1998398	WORD	n/a	wordpools/wordpool_EN.txt	DOCK	10	14	[0, 0, 0]	n/a	FR1	1	R1202M
1969.197	0.783	2000017	WORD_OFF	n/a	n/a	DOCK	10	14	[0, 0, 0]	n/a	FR1	1	R1202M
1969.98	1.616	2000800	WORD	n/a	wordpools/wordpool_EN.txt	SEA	11	14	[0, 0, 0]	n/a	FR1	1	R1202M
1971.596	0.818	2002416	WORD_OFF	n/a	n/a	SEA	11	14	[0, 0, 0]	n/a	FR1	1	R1202M
1972.414	1.617	2003234	WORD	n/a	wordpools/wordpool_EN.txt	LEAF	12	14	[0, 0, 0]	n/a	FR1	1	R1202M
1974.031	0.0	2004850	WORD_OFF	n/a	n/a	LEAF	12	14	[0, 0, 0]	n/a	FR1	1	R1202M
1974.031	0.0	2004850	DISTRACT_START	n/a	n/a	n/a	-999	14	[0, 0, 0]	n/a	FR1	1	R1202M
1974.031	0.016	2004850	START	n/a	n/a	n/a	-999	14	[-999, -999, -999]	n/a	FR1	1	R1202M
1974.047	5.251	2004866	PROB	5.251	n/a	n/a	-999	14	[5, 6, 7]	18	FR1	1	R1202M
1979.298	3.068	2010117	PROB	3.068	n/a	n/a	-999	14	[8, 3, 4]	15	FR1	1	R1202M
1982.366	5.017	2013185	PROB	5.017	n/a	n/a	-999	14	[5, 7, 9]	21	FR1	1	R1202M
1987.383	7.67	2018202	PROB	7.67	n/a	n/a	-999	14	[6, 8, 9]	23	FR1	1	R1202M
1995.053	0.015	2025871	STOP	n/a	n/a	n/a	-999	14	[-999, -999, -999]	n/a	FR1	1	R1202M
1995.068	0.666	2025886	DISTRACT_END	n/a	n/a	n/a	-999	14	[0, 0, 0]	n/a	FR1	1	R1202M
1995.734	0.519	2026552	RETRIEVAL_ORIENT	n/a	n/a	n/a	-999	14	[0, 0, 0]	n/a	FR1	1	R1202M
1996.253	2.528	2027071	REC_START	n/a	n/a	n/a	-999	14	[0, 0, 0]	n/a	FR1	1	R1202M
1998.781	4.749	2029599	REC_WORD	4.749	n/a	OAR	-999	14	[0, 0, 0]	n/a	FR1	1	R1202M
2003.53	10.005	2034348	REC_WORD	10.005	n/a	TRAIN	-999	14	[0, 0, 0]	n/a	FR1	1	R1202M
2013.535	12.729	2044352	REC_WORD	12.729	n/a	CROWN	-999	14	[0, 0, 0]	n/a	FR1	1	R1202M
2026.264	4.477	2057081	REC_END	n/a	n/a	n/a	-999	14	[0, 0, 0]	n/a	FR1	1	R1202M
2030.741	0.5	2061557	TRIAL	n/a	n/a	n/a	-999	15	[0, 0, 0]	n/a	FR1	1	R1202M
2031.241	10.428	2062057	COUNTDOWN_START	n/a	n/a	n/a	-999	15	[0, 0, 0]	n/a	FR1	1	R1202M
2041.669	0.007	2072485	COUNTDOWN_END	n/a	n/a	n/a	-999	15	[0, 0, 0]	n/a	FR1	1	R1202M
2041.676	1.618	2072492	ORIENT	n/a	n/a	n/a	-999	15	[0, 0, 0]	n/a	FR1	1	R1202M
2043.294	1.917	2074110	ORIENT_OFF	n/a	n/a	n/a	-999	15	[0, 0, 0]	n/a	FR1	1	R1202M
2045.211	1.616	2076026	WORD	n/a	wordpools/wordpool_EN.txt	CLOCK	1	15	[0, 0, 0]	n/a	FR1	1	R1202M
2046.827	0.8	2077642	WORD_OFF	n/a	n/a	CLOCK	1	15	[0, 0, 0]	n/a	FR1	1	R1202M
2047.627	1.618	2078442	WORD	n/a	wordpools/wordpool_EN.txt	INK	2	15	[0, 0, 0]	n/a	FR1	1	R1202M
2049.245	0.967	2080060	WORD_OFF	n/a	n/a	INK	2	15	[0, 0, 0]	n/a	FR1	1	R1202M
2050.212	1.616	2081027	WORD	n/a	wordpools/wordpool_EN.txt	BIRD	3	15	[0, 0, 0]	n/a	FR1	1	R1202M
2051.828	0.9	2082643	WORD_OFF	n/a	n/a	BIRD	3	15	[0, 0, 0]	n/a	FR1	1	R1202M
2052.728	1.601	2083543	WORD	n/a	wordpools/wordpool_EN.txt	LAND	4	15	[0, 0, 0]	n/a	FR1	1	R1202M
2054.329	0.984	2085144	WORD_OFF	n/a	n/a	LAND	4	15	[0, 0, 0]	n/a	FR1	1	R1202M
2055.313	1.616	2086128	WORD	n/a	wordpools/wordpool_EN.txt	DOG	5	15	[0, 0, 0]	n/a	FR1	1	R1202M
2056.929	0.95	2087744	WORD_OFF	n/a	n/a	DOG	5	15	[0, 0, 0]	n/a	FR1	1	R1202M
2057.879	1.617	2088694	WORD	n/a	wordpools/wordpool_EN.txt	STORM	6	15	[0, 0, 0]	n/a	FR1	1	R1202M
2059.496	0.934	2090311	WORD_OFF	n/a	n/a	STORM	6	15	[0, 0, 0]	n/a	FR1	1	R1202M
2060.43	1.618	2091245	WORD	n/a	wordpools/wordpool_EN.txt	ICE	7	15	[0, 0, 0]	n/a	FR1	1	R1202M
2062.048	0.933	2092863	WORD_OFF	n/a	n/a	ICE	7	15	[0, 0, 0]	n/a	FR1	1	R1202M
2062.981	1.616	2093795	WORD	n/a	wordpools/wordpool_EN.txt	TOOTH	8	15	[0, 0, 0]	n/a	FR1	1	R1202M
2064.597	0.834	2095411	WORD_OFF	n/a	n/a	TOOTH	8	15	[0, 0, 0]	n/a	FR1	1	R1202M
2065.431	1.618	2096245	WORD	n/a	wordpools/wordpool_EN.txt	NET	9	15	[0, 0, 0]	n/a	FR1	1	R1202M
2067.049	0.832	2097863	WORD_OFF	n/a	n/a	NET	9	15	[0, 0, 0]	n/a	FR1	1	R1202M
2067.881	1.617	2098695	WORD	n/a	wordpools/wordpool_EN.txt	RUG	10	15	[0, 0, 0]	n/a	FR1	1	R1202M
2069.498	0.818	2100312	WORD_OFF	n/a	n/a	RUG	10	15	[0, 0, 0]	n/a	FR1	1	R1202M
2070.316	1.616	2101130	WORD	n/a	wordpools/wordpool_EN.txt	EEL	11	15	[0, 0, 0]	n/a	FR1	1	R1202M
2071.932	0.834	2102746	WORD_OFF	n/a	n/a	EEL	11	15	[0, 0, 0]	n/a	FR1	1	R1202M
2072.766	1.601	2103580	WORD	n/a	wordpools/wordpool_EN.txt	SKY	12	15	[0, 0, 0]	n/a	FR1	1	R1202M
2074.367	0.0	2105181	WORD_OFF	n/a	n/a	SKY	12	15	[0, 0, 0]	n/a	FR1	1	R1202M
2074.367	0.0	2105181	DISTRACT_START	n/a	n/a	n/a	-999	15	[0, 0, 0]	n/a	FR1	1	R1202M
2074.367	0.017	2105181	START	n/a	n/a	n/a	-999	15	[-999, -999, -999]	n/a	FR1	1	R1202M
2074.384	4.634	2105198	PROB	4.634	n/a	n/a	-999	15	[8, 2, 8]	18	FR1	1	R1202M
2079.018	8.75	2109832	PROB	8.75	n/a	n/a	-999	15	[6, 9, 8]	24	FR1	1	R1202M
2087.768	4.286	2118581	PROB	4.286	n/a	n/a	-999	15	[5, 9, 4]	18	FR1	1	R1202M
2092.054	5.535	2122867	PROB	5.535	n/a	n/a	-999	15	[4, 7, 2]	13	FR1	1	R1202M
2097.589	0.015	2128402	STOP	n/a	n/a	n/a	-999	15	[-999, -999, -999]	n/a	FR1	1	R1202M
2097.604	0.701	2128417	DISTRACT_END	n/a	n/a	n/a	-999	15	[0, 0, 0]	n/a	FR1	1	R1202M
2098.305	0.517	2129117	RETRIEVAL_ORIENT	n/a	n/a	n/a	-999	15	[0, 0, 0]	n/a	FR1	1	R1202M
2098.822	9.476	2129634	REC_START	n/a	n/a	n/a	-999	15	[0, 0, 0]	n/a	FR1	1	R1202M
2108.298	15.108	2139110	REC_WORD	15.108	n/a	SKY	-999	15	[0, 0, 0]	n/a	FR1	1	R1202M
2123.406	5.426	2154217	REC_WORD	5.426	n/a	CLOCK	-999	15	[0, 0, 0]	n/a	FR1	1	R1202M
2128.832	5.397	2159643	REC_END	n/a	n/a	n/a	-999	15	[0, 0, 0]	n/a	FR1	1	R1202M
2134.229	0.5	2165039	TRIAL	n/a	n/a	n/a	-999	16	[0, 0, 0]	n/a	FR1	1	R1202M
2134.729	10.428	2165539	COUNTDOWN_START	n/a	n/a	n/a	-999	16	[0, 0, 0]	n/a	FR1	1	R1202M
2145.157	0.007	2175967	COUNTDOWN_END	n/a	n/a	n/a	-999	16	[0, 0, 0]	n/a	FR1	1	R1202M
2145.164	1.616	2175974	ORIENT	n/a	n/a	n/a	-999	16	[0, 0, 0]	n/a	FR1	1	R1202M
2146.78	2.184	2177590	ORIENT_OFF	n/a	n/a	n/a	-999	16	[0, 0, 0]	n/a	FR1	1	R1202M
2148.964	1.617	2179774	WORD	n/a	wordpools/wordpool_EN.txt	PEA	1	16	[0, 0, 0]	n/a	FR1	1	R1202M
2150.581	0.866	2181391	WORD_OFF	n/a	n/a	PEA	1	16	[0, 0, 0]	n/a	FR1	1	R1202M
2151.447	1.618	2182257	WORD	n/a	wordpools/wordpool_EN.txt	ROOT	2	16	[0, 0, 0]	n/a	FR1	1	R1202M
2153.065	0.917	2183874	WORD_OFF	n/a	n/a	ROOT	2	16	[0, 0, 0]	n/a	FR1	1	R1202M
2153.982	1.616	2184791	WORD	n/a	wordpools/wordpool_EN.txt	FORT	3	16	[0, 0, 0]	n/a	FR1	1	R1202M
2155.598	0.95	2186407	WORD_OFF	n/a	n/a	FORT	3	16	[0, 0, 0]	n/a	FR1	1	R1202M
2156.548	1.618	2187357	WORD	n/a	wordpools/wordpool_EN.txt	HORSE	4	16	[0, 0, 0]	n/a	FR1	1	R1202M
2158.166	1.001	2188975	WORD_OFF	n/a	n/a	HORSE	4	16	[0, 0, 0]	n/a	FR1	1	R1202M
2159.167	1.616	2189976	WORD	n/a	wordpools/wordpool_EN.txt	MOLE	5	16	[0, 0, 0]	n/a	FR1	1	R1202M
2160.783	0.916	2191592	WORD_OFF	n/a	n/a	MOLE	5	16	[0, 0, 0]	n/a	FR1	1	R1202M
2161.699	1.602	2192508	WORD	n/a	wordpools/wordpool_EN.txt	THUMB	6	16	[0, 0, 0]	n/a	FR1	1	R1202M
2163.301	0.833	2194110	WORD_OFF	n/a	n/a	THUMB	6	16	[0, 0, 0]	n/a	FR1	1	R1202M
2164.134	1.616	2194943	WORD	n/a	wordpools/wordpool_EN.txt	CLOTH	7	16	[0, 0, 0]	n/a	FR1	1	R1202M
2165.75	0.967	2196559	WORD_OFF	n/a	n/a	CLOTH	7	16	[0, 0, 0]	n/a	FR1	1	R1202M
2166.717	1.601	2197526	WORD	n/a	wordpools/wordpool_EN.txt	WOLF	8	16	[0, 0, 0]	n/a	FR1	1	R1202M
2168.318	0.901	2199127	WORD_OFF	n/a	n/a	WOLF	8	16	[0, 0, 0]	n/a	FR1	1	R1202M
2169.219	1.616	2200028	WORD	n/a	wordpools/wordpool_EN.txt	STONE	9	16	[0, 0, 0]	n/a	FR1	1	R1202M
2170.835	0.933	2201643	WORD_OFF	n/a	n/a	STONE	9	16	[0, 0, 0]	n/a	FR1	1	R1202M
2171.768	1.618	2202576	WORD	n/a	wordpools/wordpool_EN.txt	SAIL	10	16	[0, 0, 0]	n/a	FR1	1	R1202M
2173.386	0.834	2204194	WORD_OFF	n/a	n/a	SAIL	10	16	[0, 0, 0]	n/a	FR1	1	R1202M
2174.22	1.616	2205028	WORD	n/a	wordpools/wordpool_EN.txt	CLOWN	11	16	[0, 0, 0]	n/a	FR1	1	R1202M
2175.836	0.916	2206644	WORD_OFF	n/a	n/a	CLOWN	11	16	[0, 0, 0]	n/a	FR1	1	R1202M
2176.752	1.601	2207560	WORD	n/a	wordpools/wordpool_EN.txt	WHEEL	12	16	[0, 0, 0]	n/a	FR1	1	R1202M
2178.353	0.0	2209161	WORD_OFF	n/a	n/a	WHEEL	12	16	[0, 0, 0]	n/a	FR1	1	R1202M
2178.353	0.001	2209161	DISTRACT_START	n/a	n/a	n/a	-999	16	[0, 0, 0]	n/a	FR1	1	R1202M
2178.354	0.016	2209162	START	n/a	n/a	n/a	-999	16	[-999, -999, -999]	n/a	FR1	1	R1202M
2178.37	5.785	2209178	PROB	5.785	n/a	n/a	-999	16	[5, 1, 8]	14	FR1	1	R1202M
2184.155	4.316	2214963	PROB	4.316	n/a	n/a	-999	16	[3, 6, 2]	11	FR1	1	R1202M
2188.471	3.468	2219278	PROB	3.468	n/a	n/a	-999	16	[5, 3, 2]	10	FR1	1	R1202M
2191.939	4.484	2222746	PROB	4.484	n/a	n/a	-999	16	[3, 6, 4]	13	FR1	1	R1202M
2196.423	3.295	2227230	PROB	3.295	n/a	n/a	-999	16	[7, 6, 4]	17	FR1	1	R1202M
2199.718	0.022	2230525	STOP	n/a	n/a	n/a	-999	16	[-999, -999, -999]	n/a	FR1	1	R1202M
2199.74	0.618	2230547	DISTRACT_END	n/a	n/a	n/a	-999	16	[0, 0, 0]	n/a	FR1	1	R1202M
2200.358	0.516	2231165	RETRIEVAL_ORIENT	n/a	n/a	n/a	-999	16	[0, 0, 0]	n/a	FR1	1	R1202M
2200.874	1.779	2231681	REC_START	n/a	n/a	n/a	-999	16	[0, 0, 0]	n/a	FR1	1	R1202M
2202.653	4.405	2233460	REC_WORD	4.405	n/a	CLOWN	-999	16	[0, 0, 0]	n/a	FR1	1	R1202M
2207.058	22.506	2237864	REC_WORD	22.506	n/a	WHALE	-999	16	[0, 0, 0]	n/a	FR1	1	R1202M
2229.564	1.322	2260369	REC_WORD	1.322	n/a	NET	-999	16	[0, 0, 0]	n/a	FR1	1	R1202M
2230.886	36.452	2261691	REC_END	n/a	n/a	n/a	-999	16	[0, 0, 0]	n/a	FR1	1	R1202M
2267.338	0.5	2298141	TRIAL	n/a	n/a	n/a	-999	17	[0, 0, 0]	n/a	FR1	1	R1202M
2267.838	10.428	2298641	COUNTDOWN_START	n/a	n/a	n/a	-999	17	[0, 0, 0]	n/a	FR1	1	R1202M
2278.266	0.007	2309068	COUNTDOWN_END	n/a	n/a	n/a	-999	17	[0, 0, 0]	n/a	FR1	1	R1202M
2278.273	1.616	2309075	ORIENT	n/a	n/a	n/a	-999	17	[0, 0, 0]	n/a	FR1	1	R1202M
2279.889	2.201	2310691	ORIENT_OFF	n/a	n/a	n/a	-999	17	[0, 0, 0]	n/a	FR1	1	R1202M
2282.09	1.616	2312892	WORD	n/a	wordpools/wordpool_EN.txt	BRANCH	1	17	[0, 0, 0]	n/a	FR1	1	R1202M
2283.706	1.001	2314508	WORD_OFF	n/a	n/a	BRANCH	1	17	[0, 0, 0]	n/a	FR1	1	R1202M
2284.707	1.618	2315509	WORD	n/a	wordpools/wordpool_EN.txt	SOAP	2	17	[0, 0, 0]	n/a	FR1	1	R1202M
2286.325	0.766	2317127	WORD_OFF	n/a	n/a	SOAP	2	17	[0, 0, 0]	n/a	FR1	1	R1202M
2287.091	1.616	2317893	WORD	n/a	wordpools/wordpool_EN.txt	SLIME	3	17	[0, 0, 0]	n/a	FR1	1	R1202M
2288.707	0.984	2319509	WORD_OFF	n/a	n/a	SLIME	3	17	[0, 0, 0]	n/a	FR1	1	R1202M
2289.691	1.618	2320493	WORD	n/a	wordpools/wordpool_EN.txt	SHIRT	4	17	[0, 0, 0]	n/a	FR1	1	R1202M
2291.309	0.983	2322111	WORD_OFF	n/a	n/a	SHIRT	4	17	[0, 0, 0]	n/a	FR1	1	R1202M
2292.292	1.616	2323094	WORD	n/a	wordpools/wordpool_EN.txt	OAK	5	17	[0, 0, 0]	n/a	FR1	1	R1202M
2293.908	0.801	2324710	WORD_OFF	n/a	n/a	OAK	5	17	[0, 0, 0]	n/a	FR1	1	R1202M
2294.709	1.617	2325510	WORD	n/a	wordpools/wordpool_EN.txt	SHEET	6	17	[0, 0, 0]	n/a	FR1	1	R1202M
2296.326	0.884	2327127	WORD_OFF	n/a	n/a	SHEET	6	17	[0, 0, 0]	n/a	FR1	1	R1202M
2297.21	1.616	2328011	WORD	n/a	wordpools/wordpool_EN.txt	GOLD	7	17	[0, 0, 0]	n/a	FR1	1	R1202M
2298.826	0.934	2329627	WORD_OFF	n/a	n/a	GOLD	7	17	[0, 0, 0]	n/a	FR1	1	R1202M
2299.76	1.617	2330561	WORD	n/a	wordpools/wordpool_EN.txt	DRUM	8	17	[0, 0, 0]	n/a	FR1	1	R1202M
2301.377	0.801	2332178	WORD_OFF	n/a	n/a	DRUM	8	17	[0, 0, 0]	n/a	FR1	1	R1202M
2302.178	1.616	2332979	WORD	n/a	wordpools/wordpool_EN.txt	RAKE	9	17	[0, 0, 0]	n/a	FR1	1	R1202M
2303.794	0.833	2334595	WORD_OFF	n/a	n/a	RAKE	9	17	[0, 0, 0]	n/a	FR1	1	R1202M
2304.627	1.618	2335428	WORD	n/a	wordpools/wordpool_EN.txt	JEEP	10	17	[0, 0, 0]	n/a	FR1	1	R1202M
2306.245	0.767	2337046	WORD_OFF	n/a	n/a	JEEP	10	17	[0, 0, 0]	n/a	FR1	1	R1202M
2307.012	1.616	2337813	WORD	n/a	wordpools/wordpool_EN.txt	BAG	11	17	[0, 0, 0]	n/a	FR1	1	R1202M
2308.628	0.8	2339429	WORD_OFF	n/a	n/a	BAG	11	17	[0, 0, 0]	n/a	FR1	1	R1202M
2309.428	1.618	2340229	WORD	n/a	wordpools/wordpool_EN.txt	STEAM	12	17	[0, 0, 0]	n/a	FR1	1	R1202M
2311.046	0.0	2341847	WORD_OFF	n/a	n/a	STEAM	12	17	[0, 0, 0]	n/a	FR1	1	R1202M
2311.046	0.001	2341847	DISTRACT_START	n/a	n/a	n/a	-999	17	[0, 0, 0]	n/a	FR1	1	R1202M
2311.047	0.016	2341848	START	n/a	n/a	n/a	-999	17	[-999, -999, -999]	n/a	FR1	1	R1202M
2311.063	4.7	2341864	PROB	4.7	n/a	n/a	-999	17	[7, 1, 7]	15	FR1	1	R1202M
2315.763	2.883	2346563	PROB	2.883	n/a	n/a	-999	17	[1, 6, 6]	13	FR1	1	R1202M
2318.646	3.318	2349446	PROB	3.318	n/a	n/a	-999	17	[3, 8, 3]	14	FR1	1	R1202M
2321.964	4.634	2352764	PROB	4.634	n/a	n/a	-999	17	[8, 8, 5]	21	FR1	1	R1202M
2326.598	5.015	2357398	PROB	5.015	n/a	n/a	-999	17	[9, 6, 1]	16	FR1	1	R1202M
2331.613	0.019	2362412	STOP	n/a	n/a	n/a	-999	17	[-999, -999, -999]	n/a	FR1	1	R1202M
2331.632	0.618	2362431	DISTRACT_END	n/a	n/a	n/a	-999	17	[0, 0, 0]	n/a	FR1	1	R1202M
2332.25	0.516	2363049	RETRIEVAL_ORIENT	n/a	n/a	n/a	-999	17	[0, 0, 0]	n/a	FR1	1	R1202M
2332.766	1.986	2363565	REC_START	n/a	n/a	n/a	-999	17	[0, 0, 0]	n/a	FR1	1	R1202M
2334.752	28.026	2365551	REC_WORD	28.026	n/a	JEEP	-999	17	[0, 0, 0]	n/a	FR1	1	R1202M
2362.778	5.279	2393576	REC_END	n/a	n/a	n/a	-999	17	[0, 0, 0]	n/a	FR1	1	R1202M
2368.057	0.5	2398854	TRIAL	n/a	n/a	n/a	-999	18	[0, 0, 0]	n/a	FR1	1	R1202M
2368.557	10.428	2399354	COUNTDOWN_START	n/a	n/a	n/a	-999	18	[0, 0, 0]	n/a	FR1	1	R1202M
2378.985	0.008	2409782	COUNTDOWN_END	n/a	n/a	n/a	-999	18	[0, 0, 0]	n/a	FR1	1	R1202M
2378.993	1.615	2409790	ORIENT	n/a	n/a	n/a	-999	18	[0, 0, 0]	n/a	FR1	1	R1202M
2380.608	2.051	2411405	ORIENT_OFF	n/a	n/a	n/a	-999	18	[0, 0, 0]	n/a	FR1	1	R1202M
2382.659	1.618	2413456	WORD	n/a	wordpools/wordpool_EN.txt	GUARD	1	18	[0, 0, 0]	n/a	FR1	1	R1202M
2384.277	0.983	2415073	WORD_OFF	n/a	n/a	GUARD	1	18	[0, 0, 0]	n/a	FR1	1	R1202M
2385.26	1.616	2416056	WORD	n/a	wordpools/wordpool_EN.txt	BEE	2	18	[0, 0, 0]	n/a	FR1	1	R1202M
2386.876	0.851	2417672	WORD_OFF	n/a	n/a	BEE	2	18	[0, 0, 0]	n/a	FR1	1	R1202M
2387.727	1.618	2418523	WORD	n/a	wordpools/wordpool_EN.txt	FOAM	3	18	[0, 0, 0]	n/a	FR1	1	R1202M
2389.345	0.8	2420141	WORD_OFF	n/a	n/a	FOAM	3	18	[0, 0, 0]	n/a	FR1	1	R1202M
2390.145	1.616	2420941	WORD	n/a	wordpools/wordpool_EN.txt	SWORD	4	18	[0, 0, 0]	n/a	FR1	1	R1202M
2391.761	0.8	2422557	WORD_OFF	n/a	n/a	SWORD	4	18	[0, 0, 0]	n/a	FR1	1	R1202M
2392.561	1.618	2423357	WORD	n/a	wordpools/wordpool_EN.txt	STRING	5	18	[0, 0, 0]	n/a	FR1	1	R1202M
2394.179	0.867	2424975	WORD_OFF	n/a	n/a	STRING	5	18	[0, 0, 0]	n/a	FR1	1	R1202M
2395.046	1.616	2425842	WORD	n/a	wordpools/wordpool_EN.txt	SLUSH	6	18	[0, 0, 0]	n/a	FR1	1	R1202M
2396.662	0.816	2427458	WORD_OFF	n/a	n/a	SLUSH	6	18	[0, 0, 0]	n/a	FR1	1	R1202M
2397.478	1.602	2428274	WORD	n/a	wordpools/wordpool_EN.txt	PIE	7	18	[0, 0, 0]	n/a	FR1	1	R1202M
2399.08	0.882	2429876	WORD_OFF	n/a	n/a	PIE	7	18	[0, 0, 0]	n/a	FR1	1	R1202M
2399.962	1.617	2430758	WORD	n/a	wordpools/wordpool_EN.txt	CALF	8	18	[0, 0, 0]	n/a	FR1	1	R1202M
2401.579	0.835	2432374	WORD_OFF	n/a	n/a	CALF	8	18	[0, 0, 0]	n/a	FR1	1	R1202M
2402.414	1.617	2433209	WORD	n/a	wordpools/wordpool_EN.txt	STREET	9	18	[0, 0, 0]	n/a	FR1	1	R1202M
2404.031	0.866	2434826	WORD_OFF	n/a	n/a	STREET	9	18	[0, 0, 0]	n/a	FR1	1	R1202M
2404.897	1.617	2435692	WORD	n/a	wordpools/wordpool_EN.txt	SOCK	10	18	[0, 0, 0]	n/a	FR1	1	R1202M
2406.514	0.851	2437309	WORD_OFF	n/a	n/a	SOCK	10	18	[0, 0, 0]	n/a	FR1	1	R1202M
2407.365	1.617	2438160	WORD	n/a	wordpools/wordpool_EN.txt	BOARD	11	18	[0, 0, 0]	n/a	FR1	1	R1202M
2408.982	0.866	2439777	WORD_OFF	n/a	n/a	BOARD	11	18	[0, 0, 0]	n/a	FR1	1	R1202M
2409.848	1.616	2440643	WORD	n/a	wordpools/wordpool_EN.txt	SCHOOL	12	18	[0, 0, 0]	n/a	FR1	1	R1202M
2411.464	0.0	2442259	DISTRACT_START	n/a	n/a	n/a	-999	18	[0, 0, 0]	n/a	FR1	1	R1202M
2411.464	0.001	2442259	WORD_OFF	n/a	n/a	SCHOOL	12	18	[0, 0, 0]	n/a	FR1	1	R1202M
2411.465	0.016	2442260	START	n/a	n/a	n/a	-999	18	[-999, -999, -999]	n/a	FR1	1	R1202M
2411.481	5.935	2442276	PROB	5.935	n/a	n/a	-999	18	[5, 6, 2]	13	FR1	1	R1202M
2417.416	5.117	2448211	PROB	5.117	n/a	n/a	-999	18	[5, 9, 3]	17	FR1	1	R1202M
2422.533	4.901	2453327	PROB	4.901	n/a	n/a	-999	18	[5, 9, 1]	15	FR1	1	R1202M
2427.434	7.275	2458228	PROB	7.275	n/a	n/a	-999	18	[6, 5, 9]	20	FR1	1	R1202M
2434.709	0.01	2465503	STOP	n/a	n/a	n/a	-999	18	[-999, -999, -999]	n/a	FR1	1	R1202M
2434.719	0.568	2465513	DISTRACT_END	n/a	n/a	n/a	-999	18	[0, 0, 0]	n/a	FR1	1	R1202M
2435.287	0.516	2466081	RETRIEVAL_ORIENT	n/a	n/a	n/a	-999	18	[0, 0, 0]	n/a	FR1	1	R1202M
2435.803	1.712	2466597	REC_START	n/a	n/a	n/a	-999	18	[0, 0, 0]	n/a	FR1	1	R1202M
2437.515	3.095	2468308	REC_WORD	3.095	n/a	SCHOOL	-999	18	[0, 0, 0]	n/a	FR1	1	R1202M
2440.61	4.456	2471403	REC_WORD	4.456	n/a	STRING	-999	18	[0, 0, 0]	n/a	FR1	1	R1202M
2445.066	4.669	2475859	REC_WORD	4.669	n/a	PIE	-999	18	[0, 0, 0]	n/a	FR1	1	R1202M
2449.735	15.086	2480528	REC_WORD	15.086	n/a	SLUSH	-999	18	[0, 0, 0]	n/a	FR1	1	R1202M
2464.821	0.993	2495613	REC_WORD	0.993	n/a	MUD	-999	18	[0, 0, 0]	n/a	FR1	1	R1202M
2465.814	34.984	2496606	REC_END	n/a	n/a	n/a	-999	18	[0, 0, 0]	n/a	FR1	1	R1202M
2500.798	0.0	2531588	TRIAL	n/a	n/a	n/a	-999	19	[0, 0, 0]	n/a	FR1	1	R1202M
