onset	duration	sample	trial_type	response_time	stim_file	item_name	serialpos	list	test	answer	experiment	session	subject
0.0	19.761	404998	SESS_START	n/a	n/a	n/a	-999	-999	[0, 0, 0]	n/a	FR1	1	R1051J
19.761	10.428	444519	COUNTDOWN_START	n/a	n/a	n/a	-999	-999	[0, 0, 0]	n/a	FR1	1	R1051J
30.189	3.742	465375	COUNTDOWN_END	n/a	n/a	n/a	-999	-999	[0, 0, 0]	n/a	FR1	1	R1051J
33.931	2.467	472859	PRACTICE_WORD	n/a	n/a	COTTON	1	-1	[0, 0, 0]	n/a	FR1	1	R1051J
36.398	2.399	477793	PRACTICE_WORD	n/a	n/a	WAGON	2	-1	[0, 0, 0]	n/a	FR1	1	R1051J
38.797	2.385	482591	PRACTICE_WORD	n/a	n/a	CHEST	3	-1	[0, 0, 0]	n/a	FR1	1	R1051J
41.182	2.383	487361	PRACTICE_WORD	n/a	n/a	RHINO	4	-1	[0, 0, 0]	n/a	FR1	1	R1051J
43.565	2.401	492126	PRACTICE_WORD	n/a	n/a	BEAM	5	-1	[0, 0, 0]	n/a	FR1	1	R1051J
45.966	2.484	496928	PRACTICE_WORD	n/a	n/a	ATTIC	6	-1	[0, 0, 0]	n/a	FR1	1	R1051J
48.45	2.583	501896	PRACTICE_WORD	n/a	n/a	CAMEL	7	-1	[0, 0, 0]	n/a	FR1	1	R1051J
51.033	2.534	507062	PRACTICE_WORD	n/a	n/a	TONGUE	8	-1	[0, 0, 0]	n/a	FR1	1	R1051J
53.567	2.583	512130	PRACTICE_WORD	n/a	n/a	WATCH	9	-1	[0, 0, 0]	n/a	FR1	1	R1051J
56.15	2.517	517296	PRACTICE_WORD	n/a	n/a	RING	10	-1	[0, 0, 0]	n/a	FR1	1	R1051J
58.667	2.384	522330	PRACTICE_WORD	n/a	n/a	IRON	11	-1	[0, 0, 0]	n/a	FR1	1	R1051J
61.051	1.616	527098	PRACTICE_WORD	n/a	n/a	FLOOD	12	-1	[0, 0, 0]	n/a	FR1	1	R1051J
62.667	0.0	530330	PRACTICE_DISTRACT_START	n/a	n/a	n/a	-999	-1	[0, 0, 0]	n/a	FR1	1	R1051J
62.667	0.017	530330	START	n/a	n/a	n/a	-999	-1	[-999, -999, -999]	n/a	FR1	1	R1051J
62.684	3.468	530364	PROB	3.468	n/a	n/a	-999	-1	[8, 2, 3]	13	FR1	1	R1051J
66.152	5.451	537300	PROB	5.451	n/a	n/a	-999	-1	[9, 7, 1]	17	FR1	1	R1051J
71.603	3.3	548202	PROB	3.3	n/a	n/a	-999	-1	[3, 2, 6]	11	FR1	1	R1051J
74.903	3.601	554801	PROB	3.601	n/a	n/a	-999	-1	[7, 8, 4]	19	FR1	1	R1051J
78.504	7.176	562003	PROB	7.176	n/a	n/a	-999	-1	[3, 5, 6]	14	FR1	1	R1051J
85.68	0.007	576355	STOP	n/a	n/a	n/a	-999	-1	[-999, -999, -999]	n/a	FR1	1	R1051J
85.687	0.57	576369	PRACTICE_DISTRACT_END	n/a	n/a	n/a	-999	-1	[0, 0, 0]	n/a	FR1	1	R1051J
86.257	30.514	577509	PRACTICE_REC_START	n/a	n/a	n/a	-999	-1	[0, 0, 0]	n/a	FR1	1	R1051J
116.771	13.773	638536	PRACTICE_REC_END	n/a	n/a	n/a	-999	-1	[0, 0, 0]	n/a	FR1	1	R1051J
130.544	0.001	666082	COUNTDOWN_START	n/a	n/a	n/a	-999	1	[0, 0, 0]	n/a	FR1	1	R1051J
130.545	10.427	666084	TRIAL	n/a	n/a	n/a	-999	1	[0, 0, 0]	n/a	FR1	1	R1051J
140.972	0.007	686937	COUNTDOWN_END	n/a	n/a	n/a	-999	1	[0, 0, 0]	n/a	FR1	1	R1051J
140.979	2.534	686951	ORIENT	n/a	n/a	n/a	-999	1	[0, 0, 0]	n/a	FR1	1	R1051J
143.513	2.434	692019	WORD	n/a	wordpools/wordpool_EN.txt	MOON	1	1	[0, 0, 0]	n/a	FR1	1	R1051J
145.947	2.517	696887	WORD	n/a	wordpools/wordpool_EN.txt	GRAPE	2	1	[0, 0, 0]	n/a	FR1	1	R1051J
148.464	2.517	701921	WORD	n/a	wordpools/wordpool_EN.txt	ICE	3	1	[0, 0, 0]	n/a	FR1	1	R1051J
150.981	2.583	706955	WORD	n/a	wordpools/wordpool_EN.txt	PLANE	4	1	[0, 0, 0]	n/a	FR1	1	R1051J
153.564	2.601	712121	WORD	n/a	wordpools/wordpool_EN.txt	JET	5	1	[0, 0, 0]	n/a	FR1	1	R1051J
156.165	2.383	717323	WORD	n/a	wordpools/wordpool_EN.txt	CAPE	6	1	[0, 0, 0]	n/a	FR1	1	R1051J
158.548	2.518	722089	WORD	n/a	wordpools/wordpool_EN.txt	SLUSH	7	1	[0, 0, 0]	n/a	FR1	1	R1051J
161.066	2.582	727125	WORD	n/a	wordpools/wordpool_EN.txt	ROCK	8	1	[0, 0, 0]	n/a	FR1	1	R1051J
163.648	2.502	732289	WORD	n/a	wordpools/wordpool_EN.txt	DOG	9	1	[0, 0, 0]	n/a	FR1	1	R1051J
166.15	2.549	737292	WORD	n/a	wordpools/wordpool_EN.txt	STAR	10	1	[0, 0, 0]	n/a	FR1	1	R1051J
168.699	2.468	742390	WORD	n/a	wordpools/wordpool_EN.txt	PRINCE	11	1	[0, 0, 0]	n/a	FR1	1	R1051J
171.167	1.616	747326	WORD	n/a	wordpools/wordpool_EN.txt	FISH	12	1	[0, 0, 0]	n/a	FR1	1	R1051J
172.783	0.001	750558	DISTRACT_START	n/a	n/a	n/a	-999	1	[0, 0, 0]	n/a	FR1	1	R1051J
172.784	0.016	750560	START	n/a	n/a	n/a	-999	1	[-999, -999, -999]	n/a	FR1	1	R1051J
172.8	4.118	750592	PROB	4.118	n/a	n/a	-999	1	[7, 9, 2]	18	FR1	1	R1051J
176.918	5.617	758828	PROB	5.617	n/a	n/a	-999	1	[6, 6, 9]	21	FR1	1	R1051J
182.535	3.817	770062	PROB	3.817	n/a	n/a	-999	1	[2, 3, 9]	14	FR1	1	R1051J
186.352	3.534	777696	PROB	3.534	n/a	n/a	-999	1	[6, 1, 1]	8	FR1	1	R1051J
189.886	4.839	784764	PROB	4.839	n/a	n/a	-999	1	[4, 8, 2]	14	FR1	1	R1051J
194.725	0.011	794442	STOP	n/a	n/a	n/a	-999	1	[-999, -999, -999]	n/a	FR1	1	R1051J
194.736	1.135	794464	DISTRACT_END	n/a	n/a	n/a	-999	1	[0, 0, 0]	n/a	FR1	1	R1051J
195.871	1.284	796733	REC_START	n/a	n/a	n/a	-999	1	[0, 0, 0]	n/a	FR1	1	R1051J
197.155	1.425	799301	REC_WORD	1.425	n/a	SLUSH	-999	1	[0, 0, 0]	n/a	FR1	1	R1051J
198.58	1.253	802151	REC_WORD	1.253	n/a	DOG	-999	1	[0, 0, 0]	n/a	FR1	1	R1051J
199.833	1.205	804657	REC_WORD	1.205	n/a	MOON	-999	1	[0, 0, 0]	n/a	FR1	1	R1051J
201.038	10.721	807067	REC_WORD	10.721	n/a	STAR	-999	1	[0, 0, 0]	n/a	FR1	1	R1051J
211.759	14.121	828509	REC_WORD	14.121	n/a	ROCK	-999	1	[0, 0, 0]	n/a	FR1	1	R1051J
225.88	2.462	856751	REC_END	n/a	n/a	n/a	-999	1	[0, 0, 0]	n/a	FR1	1	R1051J
228.342	0.0	861674	TRIAL	n/a	n/a	n/a	-999	2	[0, 0, 0]	n/a	FR1	1	R1051J
228.342	10.428	861674	COUNTDOWN_START	n/a	n/a	n/a	-999	2	[0, 0, 0]	n/a	FR1	1	R1051J
238.77	0.006	882530	COUNTDOWN_END	n/a	n/a	n/a	-999	2	[0, 0, 0]	n/a	FR1	1	R1051J
238.776	2.467	882542	ORIENT	n/a	n/a	n/a	-999	2	[0, 0, 0]	n/a	FR1	1	R1051J
241.243	2.5	887476	WORD	n/a	wordpools/wordpool_EN.txt	VINE	1	2	[0, 0, 0]	n/a	FR1	1	R1051J
243.743	2.551	892476	WORD	n/a	wordpools/wordpool_EN.txt	EAR	2	2	[0, 0, 0]	n/a	FR1	1	R1051J
246.294	2.617	897578	WORD	n/a	wordpools/wordpool_EN.txt	FOOD	3	2	[0, 0, 0]	n/a	FR1	1	R1051J
248.911	2.401	902812	WORD	n/a	wordpools/wordpool_EN.txt	HEART	4	2	[0, 0, 0]	n/a	FR1	1	R1051J
251.312	2.549	907614	WORD	n/a	wordpools/wordpool_EN.txt	BED	5	2	[0, 0, 0]	n/a	FR1	1	R1051J
253.861	2.435	912712	WORD	n/a	wordpools/wordpool_EN.txt	HOSE	6	2	[0, 0, 0]	n/a	FR1	1	R1051J
256.296	2.416	917582	WORD	n/a	wordpools/wordpool_EN.txt	TRAIN	7	2	[0, 0, 0]	n/a	FR1	1	R1051J
258.712	2.368	922413	WORD	n/a	wordpools/wordpool_EN.txt	MOUSE	8	2	[0, 0, 0]	n/a	FR1	1	R1051J
261.08	2.533	927149	WORD	n/a	wordpools/wordpool_EN.txt	SMOKE	9	2	[0, 0, 0]	n/a	FR1	1	R1051J
263.613	2.501	932215	WORD	n/a	wordpools/wordpool_EN.txt	ROOM	10	2	[0, 0, 0]	n/a	FR1	1	R1051J
266.114	2.417	937217	WORD	n/a	wordpools/wordpool_EN.txt	MOOSE	11	2	[0, 0, 0]	n/a	FR1	1	R1051J
268.531	1.617	942051	WORD	n/a	wordpools/wordpool_EN.txt	CAKE	12	2	[0, 0, 0]	n/a	FR1	1	R1051J
270.148	0.001	945285	DISTRACT_START	n/a	n/a	n/a	-999	2	[0, 0, 0]	n/a	FR1	1	R1051J
270.149	0.015	945287	START	n/a	n/a	n/a	-999	2	[-999, -999, -999]	n/a	FR1	1	R1051J
270.164	3.084	945317	PROB	3.084	n/a	n/a	-999	2	[5, 3, 3]	11	FR1	1	R1051J
273.248	3.934	951485	PROB	3.934	n/a	n/a	-999	2	[3, 3, 4]	10	FR1	1	R1051J
277.182	7.284	959353	PROB	7.284	n/a	n/a	-999	2	[9, 9, 7]	25	FR1	1	R1051J
284.466	5.714	973921	PROB	5.714	n/a	n/a	-999	2	[7, 5, 9]	31	FR1	1	R1051J
290.18	0.004	985348	STOP	n/a	n/a	n/a	-999	2	[-999, -999, -999]	n/a	FR1	1	R1051J
290.184	1.084	985356	DISTRACT_END	n/a	n/a	n/a	-999	2	[0, 0, 0]	n/a	FR1	1	R1051J
291.268	2.634	987524	REC_START	n/a	n/a	n/a	-999	2	[0, 0, 0]	n/a	FR1	1	R1051J
293.902	0.949	992792	REC_WORD	0.949	n/a	EAR	-999	2	[0, 0, 0]	n/a	FR1	1	R1051J
294.851	1.292	994690	REC_WORD	1.292	n/a	NOSE	-999	2	[0, 0, 0]	n/a	FR1	1	R1051J
296.143	1.041	997274	REC_WORD	1.041	n/a	TONGUE	-999	2	[0, 0, 0]	n/a	FR1	1	R1051J
297.184	1.002	999356	REC_WORD	1.002	n/a	HOUSE	-999	2	[0, 0, 0]	n/a	FR1	1	R1051J
298.186	5.82	1001360	REC_WORD	5.82	n/a	SMOKE	-999	2	[0, 0, 0]	n/a	FR1	1	R1051J
304.006	9.149	1013000	REC_WORD	9.149	n/a	VINE	-999	2	[0, 0, 0]	n/a	FR1	1	R1051J
313.155	8.123	1031298	REC_WORD	8.123	n/a	MOOSE	-999	2	[0, 0, 0]	n/a	FR1	1	R1051J
321.278	2.327	1047543	REC_END	n/a	n/a	n/a	-999	2	[0, 0, 0]	n/a	FR1	1	R1051J
323.605	0.0	1052197	TRIAL	n/a	n/a	n/a	-999	3	[0, 0, 0]	n/a	FR1	1	R1051J
323.605	10.428	1052197	COUNTDOWN_START	n/a	n/a	n/a	-999	3	[0, 0, 0]	n/a	FR1	1	R1051J
334.033	0.007	1073053	COUNTDOWN_END	n/a	n/a	n/a	-999	3	[0, 0, 0]	n/a	FR1	1	R1051J
334.04	2.434	1073067	ORIENT	n/a	n/a	n/a	-999	3	[0, 0, 0]	n/a	FR1	1	R1051J
336.474	2.399	1077935	WORD	n/a	wordpools/wordpool_EN.txt	CROW	1	3	[0, 0, 0]	n/a	FR1	1	R1051J
338.873	2.535	1082733	WORD	n/a	wordpools/wordpool_EN.txt	SOAP	2	3	[0, 0, 0]	n/a	FR1	1	R1051J
341.408	2.617	1087803	WORD	n/a	wordpools/wordpool_EN.txt	RUG	3	3	[0, 0, 0]	n/a	FR1	1	R1051J
344.025	2.567	1093037	WORD	n/a	wordpools/wordpool_EN.txt	SUIT	4	3	[0, 0, 0]	n/a	FR1	1	R1051J
346.592	2.484	1098171	WORD	n/a	wordpools/wordpool_EN.txt	FAN	5	3	[0, 0, 0]	n/a	FR1	1	R1051J
349.076	2.45	1103138	WORD	n/a	wordpools/wordpool_EN.txt	GOAT	6	3	[0, 0, 0]	n/a	FR1	1	R1051J
351.526	2.5	1108038	WORD	n/a	wordpools/wordpool_EN.txt	RIB	7	3	[0, 0, 0]	n/a	FR1	1	R1051J
354.026	2.384	1113038	WORD	n/a	wordpools/wordpool_EN.txt	BOOT	8	3	[0, 0, 0]	n/a	FR1	1	R1051J
356.41	2.567	1117806	WORD	n/a	wordpools/wordpool_EN.txt	SHIRT	9	3	[0, 0, 0]	n/a	FR1	1	R1051J
358.977	2.6	1122940	WORD	n/a	wordpools/wordpool_EN.txt	FENCE	10	3	[0, 0, 0]	n/a	FR1	1	R1051J
361.577	2.401	1128140	WORD	n/a	wordpools/wordpool_EN.txt	BROOM	11	3	[0, 0, 0]	n/a	FR1	1	R1051J
363.978	1.617	1132942	WORD	n/a	wordpools/wordpool_EN.txt	PANTS	12	3	[0, 0, 0]	n/a	FR1	1	R1051J
365.595	0.001	1136176	DISTRACT_START	n/a	n/a	n/a	-999	3	[0, 0, 0]	n/a	FR1	1	R1051J
365.596	0.015	1136178	START	n/a	n/a	n/a	-999	3	[-999, -999, -999]	n/a	FR1	1	R1051J
365.611	5.1	1136208	PROB	5.1	n/a	n/a	-999	3	[2, 4, 4]	8	FR1	1	R1051J
370.711	7.469	1146408	PROB	7.469	n/a	n/a	-999	3	[6, 3, 5]	14	FR1	1	R1051J
378.18	4.549	1161346	PROB	4.549	n/a	n/a	-999	3	[9, 3, 2]	14	FR1	1	R1051J
382.729	3.608	1170443	PROB	3.608	n/a	n/a	-999	3	[9, 9, 1]	19	FR1	1	R1051J
386.337	0.011	1177659	STOP	n/a	n/a	n/a	-999	3	[-999, -999, -999]	n/a	FR1	1	R1051J
386.348	1.1	1177681	DISTRACT_END	n/a	n/a	n/a	-999	3	[0, 0, 0]	n/a	FR1	1	R1051J
387.448	1.392	1179881	REC_START	n/a	n/a	n/a	-999	3	[0, 0, 0]	n/a	FR1	1	R1051J
388.84	0.999	1182665	REC_WORD	0.999	n/a	SHIRT	-999	3	[0, 0, 0]	n/a	FR1	1	R1051J
389.839	1.118	1184663	REC_WORD	1.118	n/a	VEST	-999	3	[0, 0, 0]	n/a	FR1	1	R1051J
390.957	26.502	1186899	REC_WORD	26.502	n/a	PANTS	-999	3	[0, 0, 0]	n/a	FR1	1	R1051J
417.459	3.242	1239902	REC_END	n/a	n/a	n/a	-999	3	[0, 0, 0]	n/a	FR1	1	R1051J
420.701	0.001	1246386	COUNTDOWN_START	n/a	n/a	n/a	-999	4	[0, 0, 0]	n/a	FR1	1	R1051J
420.702	10.427	1246388	TRIAL	n/a	n/a	n/a	-999	4	[0, 0, 0]	n/a	FR1	1	R1051J
431.129	0.008	1267242	COUNTDOWN_END	n/a	n/a	n/a	-999	4	[0, 0, 0]	n/a	FR1	1	R1051J
431.137	2.516	1267258	ORIENT	n/a	n/a	n/a	-999	4	[0, 0, 0]	n/a	FR1	1	R1051J
433.653	2.535	1272290	WORD	n/a	wordpools/wordpool_EN.txt	LAMP	1	4	[0, 0, 0]	n/a	FR1	1	R1051J
436.188	2.483	1277360	WORD	n/a	wordpools/wordpool_EN.txt	BOX	2	4	[0, 0, 0]	n/a	FR1	1	R1051J
438.671	2.451	1282326	WORD	n/a	wordpools/wordpool_EN.txt	CHAIR	3	4	[0, 0, 0]	n/a	FR1	1	R1051J
441.122	2.4	1287228	WORD	n/a	wordpools/wordpool_EN.txt	PHONE	4	4	[0, 0, 0]	n/a	FR1	1	R1051J
443.522	2.567	1292027	WORD	n/a	wordpools/wordpool_EN.txt	GATE	5	4	[0, 0, 0]	n/a	FR1	1	R1051J
446.089	2.451	1297161	WORD	n/a	wordpools/wordpool_EN.txt	OAK	6	4	[0, 0, 0]	n/a	FR1	1	R1051J
448.54	2.55	1302063	WORD	n/a	wordpools/wordpool_EN.txt	SHARK	7	4	[0, 0, 0]	n/a	FR1	1	R1051J
451.09	2.599	1307163	WORD	n/a	wordpools/wordpool_EN.txt	LOCK	8	4	[0, 0, 0]	n/a	FR1	1	R1051J
453.689	2.452	1312361	WORD	n/a	wordpools/wordpool_EN.txt	STREET	9	4	[0, 0, 0]	n/a	FR1	1	R1051J
456.141	2.549	1317265	WORD	n/a	wordpools/wordpool_EN.txt	MAZE	10	4	[0, 0, 0]	n/a	FR1	1	R1051J
458.69	2.418	1322363	WORD	n/a	wordpools/wordpool_EN.txt	CLOCK	11	4	[0, 0, 0]	n/a	FR1	1	R1051J
461.108	1.616	1327199	WORD	n/a	wordpools/wordpool_EN.txt	LAWN	12	4	[0, 0, 0]	n/a	FR1	1	R1051J
462.724	0.001	1330431	DISTRACT_START	n/a	n/a	n/a	-999	4	[0, 0, 0]	n/a	FR1	1	R1051J
462.725	0.016	1330433	START	n/a	n/a	n/a	-999	4	[-999, -999, -999]	n/a	FR1	1	R1051J
462.741	4.635	1330465	PROB	4.635	n/a	n/a	-999	4	[8, 4, 8]	20	FR1	1	R1051J
467.376	7.601	1339735	PROB	7.601	n/a	n/a	-999	4	[7, 6, 4]	17	FR1	1	R1051J
474.977	3.967	1354936	PROB	3.967	n/a	n/a	-999	4	[3, 6, 9]	18	FR1	1	R1051J
478.944	3.467	1362870	PROB	3.467	n/a	n/a	-999	4	[2, 1, 7]	10	FR1	1	R1051J
482.411	5.45	1369804	PROB	5.45	n/a	n/a	-999	4	[7, 1, 5]	13	FR1	1	R1051J
487.861	0.017	1380704	STOP	n/a	n/a	n/a	-999	4	[-999, -999, -999]	n/a	FR1	1	R1051J
487.878	1.135	1380738	DISTRACT_END	n/a	n/a	n/a	-999	4	[0, 0, 0]	n/a	FR1	1	R1051J
489.013	2.853	1383008	REC_START	n/a	n/a	n/a	-999	4	[0, 0, 0]	n/a	FR1	1	R1051J
491.866	1.401	1388714	REC_WORD	1.401	n/a	GATE	-999	4	[0, 0, 0]	n/a	FR1	1	R1051J
493.267	1.811	1391516	REC_WORD	1.811	n/a	LAWN	-999	4	[0, 0, 0]	n/a	FR1	1	R1051J
495.078	1.743	1395138	REC_WORD	1.743	n/a	TREE	-999	4	[0, 0, 0]	n/a	FR1	1	R1051J
496.821	1.692	1398624	REC_WORD	1.692	n/a	CLOCK	-999	4	[0, 0, 0]	n/a	FR1	1	R1051J
498.513	4.932	1402008	REC_WORD	4.932	n/a	LAMP	-999	4	[0, 0, 0]	n/a	FR1	1	R1051J
503.445	7.585	1411871	REC_WORD	7.585	n/a	CABINET	-999	4	[0, 0, 0]	n/a	FR1	1	R1051J
511.03	7.995	1427041	REC_WORD	7.995	n/a	MAZE	-999	4	[0, 0, 0]	n/a	FR1	1	R1051J
519.025	2.741	1443031	REC_END	n/a	n/a	n/a	-999	4	[0, 0, 0]	n/a	FR1	1	R1051J
521.766	0.0	1448513	COUNTDOWN_START	n/a	n/a	n/a	-999	5	[0, 0, 0]	n/a	FR1	1	R1051J
521.766	10.428	1448513	TRIAL	n/a	n/a	n/a	-999	5	[0, 0, 0]	n/a	FR1	1	R1051J
532.194	0.008	1469369	COUNTDOWN_END	n/a	n/a	n/a	-999	5	[0, 0, 0]	n/a	FR1	1	R1051J
532.202	2.599	1469385	ORIENT	n/a	n/a	n/a	-999	5	[0, 0, 0]	n/a	FR1	1	R1051J
534.801	2.401	1474582	WORD	n/a	wordpools/wordpool_EN.txt	MAP	1	5	[0, 0, 0]	n/a	FR1	1	R1051J
537.202	2.533	1479384	WORD	n/a	wordpools/wordpool_EN.txt	SEED	2	5	[0, 0, 0]	n/a	FR1	1	R1051J
539.735	2.468	1484450	WORD	n/a	wordpools/wordpool_EN.txt	SHELL	3	5	[0, 0, 0]	n/a	FR1	1	R1051J
542.203	2.532	1489386	WORD	n/a	wordpools/wordpool_EN.txt	GOLD	4	5	[0, 0, 0]	n/a	FR1	1	R1051J
544.735	2.385	1494450	WORD	n/a	wordpools/wordpool_EN.txt	SNAKE	5	5	[0, 0, 0]	n/a	FR1	1	R1051J
547.12	2.549	1499220	WORD	n/a	wordpools/wordpool_EN.txt	PLANT	6	5	[0, 0, 0]	n/a	FR1	1	R1051J
549.669	2.585	1504318	WORD	n/a	wordpools/wordpool_EN.txt	WORLD	7	5	[0, 0, 0]	n/a	FR1	1	R1051J
552.254	2.416	1509488	WORD	n/a	wordpools/wordpool_EN.txt	STEM	8	5	[0, 0, 0]	n/a	FR1	1	R1051J
554.67	2.402	1514320	WORD	n/a	wordpools/wordpool_EN.txt	ROSE	9	5	[0, 0, 0]	n/a	FR1	1	R1051J
557.072	2.599	1519124	WORD	n/a	wordpools/wordpool_EN.txt	MOTH	10	5	[0, 0, 0]	n/a	FR1	1	R1051J
559.671	2.535	1524322	WORD	n/a	wordpools/wordpool_EN.txt	CLOUD	11	5	[0, 0, 0]	n/a	FR1	1	R1051J
562.206	1.616	1529392	WORD	n/a	wordpools/wordpool_EN.txt	KEY	12	5	[0, 0, 0]	n/a	FR1	1	R1051J
563.822	0.0	1532624	DISTRACT_START	n/a	n/a	n/a	-999	5	[0, 0, 0]	n/a	FR1	1	R1051J
563.822	0.016	1532624	START	n/a	n/a	n/a	-999	5	[-999, -999, -999]	n/a	FR1	1	R1051J
563.838	3.752	1532656	PROB	3.752	n/a	n/a	-999	5	[1, 1, 4]	6	FR1	1	R1051J
567.59	3.55	1540159	PROB	3.55	n/a	n/a	-999	5	[1, 4, 7]	12	FR1	1	R1051J
571.14	3.117	1547259	PROB	3.117	n/a	n/a	-999	5	[1, 8, 1]	10	FR1	1	R1051J
574.257	11.098	1553493	PROB	11.098	n/a	n/a	-999	5	[3, 4, 3]	10	FR1	1	R1051J
585.355	0.004	1575689	STOP	n/a	n/a	n/a	-999	5	[-999, -999, -999]	n/a	FR1	1	R1051J
585.359	1.134	1575697	DISTRACT_END	n/a	n/a	n/a	-999	5	[0, 0, 0]	n/a	FR1	1	R1051J
586.493	4.422	1577965	REC_START	n/a	n/a	n/a	-999	5	[0, 0, 0]	n/a	FR1	1	R1051J
590.915	1.56	1586809	REC_WORD	1.56	n/a	SHELL	-999	5	[0, 0, 0]	n/a	FR1	1	R1051J
592.475	4.299	1589929	REC_WORD	4.299	n/a	LOCK	-999	5	[0, 0, 0]	n/a	FR1	1	R1051J
596.774	4.659	1598526	REC_WORD	4.659	n/a	GOLD	-999	5	[0, 0, 0]	n/a	FR1	1	R1051J
601.433	3.055	1607844	REC_WORD	3.055	n/a	KEY	-999	5	[0, 0, 0]	n/a	FR1	1	R1051J
604.488	1.789	1613954	REC_WORD	1.789	n/a	MAP	-999	5	[0, 0, 0]	n/a	FR1	1	R1051J
606.277	3.085	1617532	REC_WORD	3.085	n/a	EARTH	-999	5	[0, 0, 0]	n/a	FR1	1	R1051J
609.362	7.139	1623702	REC_WORD	7.139	n/a	CLOUD	-999	5	[0, 0, 0]	n/a	FR1	1	R1051J
616.501	2.58	1637980	REC_END	n/a	n/a	n/a	-999	5	[0, 0, 0]	n/a	FR1	1	R1051J
619.081	0.0	1643140	TRIAL	n/a	n/a	n/a	-999	6	[0, 0, 0]	n/a	FR1	1	R1051J
619.081	10.428	1643140	COUNTDOWN_START	n/a	n/a	n/a	-999	6	[0, 0, 0]	n/a	FR1	1	R1051J
629.509	0.006	1663995	COUNTDOWN_END	n/a	n/a	n/a	-999	6	[0, 0, 0]	n/a	FR1	1	R1051J
629.515	2.601	1664007	ORIENT	n/a	n/a	n/a	-999	6	[0, 0, 0]	n/a	FR1	1	R1051J
632.116	2.516	1669209	WORD	n/a	wordpools/wordpool_EN.txt	BRICK	1	6	[0, 0, 0]	n/a	FR1	1	R1051J
634.632	2.618	1674241	WORD	n/a	wordpools/wordpool_EN.txt	MAIL	2	6	[0, 0, 0]	n/a	FR1	1	R1051J
637.25	2.599	1679477	WORD	n/a	wordpools/wordpool_EN.txt	FILM	3	6	[0, 0, 0]	n/a	FR1	1	R1051J
639.849	2.552	1684675	WORD	n/a	wordpools/wordpool_EN.txt	JUDGE	4	6	[0, 0, 0]	n/a	FR1	1	R1051J
642.401	2.5	1689779	WORD	n/a	wordpools/wordpool_EN.txt	DOOR	5	6	[0, 0, 0]	n/a	FR1	1	R1051J
644.901	2.417	1694779	WORD	n/a	wordpools/wordpool_EN.txt	CAR	6	6	[0, 0, 0]	n/a	FR1	1	R1051J
647.318	2.483	1699613	WORD	n/a	wordpools/wordpool_EN.txt	BOOK	7	6	[0, 0, 0]	n/a	FR1	1	R1051J
649.801	2.568	1704579	WORD	n/a	wordpools/wordpool_EN.txt	KITE	8	6	[0, 0, 0]	n/a	FR1	1	R1051J
652.369	2.482	1709715	WORD	n/a	wordpools/wordpool_EN.txt	INK	9	6	[0, 0, 0]	n/a	FR1	1	R1051J
654.851	2.451	1714679	WORD	n/a	wordpools/wordpool_EN.txt	SKI	10	6	[0, 0, 0]	n/a	FR1	1	R1051J
657.302	2.45	1719580	WORD	n/a	wordpools/wordpool_EN.txt	BANK	11	6	[0, 0, 0]	n/a	FR1	1	R1051J
659.752	1.618	1724480	WORD	n/a	wordpools/wordpool_EN.txt	JAIL	12	6	[0, 0, 0]	n/a	FR1	1	R1051J
661.37	0.001	1727716	DISTRACT_START	n/a	n/a	n/a	-999	6	[0, 0, 0]	n/a	FR1	1	R1051J
661.371	0.016	1727718	START	n/a	n/a	n/a	-999	6	[-999, -999, -999]	n/a	FR1	1	R1051J
661.387	4.033	1727750	PROB	4.033	n/a	n/a	-999	6	[6, 4, 6]	16	FR1	1	R1051J
665.42	11.902	1735816	PROB	11.902	n/a	n/a	-999	6	[5, 8, 3]	16	FR1	1	R1051J
677.322	3.516	1759620	PROB	3.516	n/a	n/a	-999	6	[4, 5, 3]	12	FR1	1	R1051J
680.838	3.603	1766652	PROB	3.603	n/a	n/a	-999	6	[9, 9, 2]	20	FR1	1	R1051J
684.441	0.015	1773858	STOP	n/a	n/a	n/a	-999	6	[-999, -999, -999]	n/a	FR1	1	R1051J
684.456	1.151	1773888	DISTRACT_END	n/a	n/a	n/a	-999	6	[0, 0, 0]	n/a	FR1	1	R1051J
685.607	0.812	1776190	REC_START	n/a	n/a	n/a	-999	6	[0, 0, 0]	n/a	FR1	1	R1051J
686.419	1.231	1777814	REC_WORD	1.231	n/a	MAIL	-999	6	[0, 0, 0]	n/a	FR1	1	R1051J
687.65	2.537	1780275	REC_WORD	2.537	n/a	BANK	-999	6	[0, 0, 0]	n/a	FR1	1	R1051J
690.187	25.431	1785349	REC_WORD	25.431	n/a	SKI	-999	6	[0, 0, 0]	n/a	FR1	1	R1051J
715.618	3.593	1836211	REC_END	n/a	n/a	n/a	-999	6	[0, 0, 0]	n/a	FR1	1	R1051J
719.211	0.001	1843396	COUNTDOWN_START	n/a	n/a	n/a	-999	7	[0, 0, 0]	n/a	FR1	1	R1051J
719.212	10.427	1843398	TRIAL	n/a	n/a	n/a	-999	7	[0, 0, 0]	n/a	FR1	1	R1051J
729.639	0.006	1864252	COUNTDOWN_END	n/a	n/a	n/a	-999	7	[0, 0, 0]	n/a	FR1	1	R1051J
729.645	2.468	1864264	ORIENT	n/a	n/a	n/a	-999	7	[0, 0, 0]	n/a	FR1	1	R1051J
732.113	2.516	1869200	WORD	n/a	wordpools/wordpool_EN.txt	YARD	1	7	[0, 0, 0]	n/a	FR1	1	R1051J
734.629	2.602	1874232	WORD	n/a	wordpools/wordpool_EN.txt	HOLE	2	7	[0, 0, 0]	n/a	FR1	1	R1051J
737.231	2.582	1879436	WORD	n/a	wordpools/wordpool_EN.txt	BUSH	3	7	[0, 0, 0]	n/a	FR1	1	R1051J
739.813	2.435	1884600	WORD	n/a	wordpools/wordpool_EN.txt	OWL	4	7	[0, 0, 0]	n/a	FR1	1	R1051J
742.248	2.516	1889470	WORD	n/a	wordpools/wordpool_EN.txt	BRUSH	5	7	[0, 0, 0]	n/a	FR1	1	R1051J
744.764	2.468	1894502	WORD	n/a	wordpools/wordpool_EN.txt	PIPE	6	7	[0, 0, 0]	n/a	FR1	1	R1051J
747.232	2.616	1899438	WORD	n/a	wordpools/wordpool_EN.txt	CLIFF	7	7	[0, 0, 0]	n/a	FR1	1	R1051J
749.848	2.585	1904669	WORD	n/a	wordpools/wordpool_EN.txt	MULE	8	7	[0, 0, 0]	n/a	FR1	1	R1051J
752.433	2.617	1909839	WORD	n/a	wordpools/wordpool_EN.txt	SPEAR	9	7	[0, 0, 0]	n/a	FR1	1	R1051J
755.05	2.467	1915073	WORD	n/a	wordpools/wordpool_EN.txt	BAND	10	7	[0, 0, 0]	n/a	FR1	1	R1051J
757.517	2.534	1920007	WORD	n/a	wordpools/wordpool_EN.txt	FROG	11	7	[0, 0, 0]	n/a	FR1	1	R1051J
760.051	1.615	1925075	WORD	n/a	wordpools/wordpool_EN.txt	ROOF	12	7	[0, 0, 0]	n/a	FR1	1	R1051J
761.666	0.001	1928305	DISTRACT_START	n/a	n/a	n/a	-999	7	[0, 0, 0]	n/a	FR1	1	R1051J
761.667	0.016	1928307	START	n/a	n/a	n/a	-999	7	[-999, -999, -999]	n/a	FR1	1	R1051J
761.683	4.302	1928339	PROB	4.302	n/a	n/a	-999	7	[9, 1, 8]	18	FR1	1	R1051J
765.985	6.317	1936943	PROB	6.317	n/a	n/a	-999	7	[8, 7, 3]	18	FR1	1	R1051J
772.302	7.367	1949577	PROB	7.367	n/a	n/a	-999	7	[8, 9, 9]	26	FR1	1	R1051J
779.669	4.457	1964310	PROB	4.457	n/a	n/a	-999	7	[8, 5, 1]	14	FR1	1	R1051J
784.126	0.011	1973224	STOP	n/a	n/a	n/a	-999	7	[-999, -999, -999]	n/a	FR1	1	R1051J
784.137	1.034	1973246	DISTRACT_END	n/a	n/a	n/a	-999	7	[0, 0, 0]	n/a	FR1	1	R1051J
785.171	0.886	1975314	REC_START	n/a	n/a	n/a	-999	7	[0, 0, 0]	n/a	FR1	1	R1051J
786.057	1.356	1977086	REC_WORD	1.356	n/a	YARD	-999	7	[0, 0, 0]	n/a	FR1	1	R1051J
787.413	1.292	1979798	REC_WORD	1.292	n/a	BUSH	-999	7	[0, 0, 0]	n/a	FR1	1	R1051J
788.705	2.092	1982382	REC_WORD	2.092	n/a	HOLE	-999	7	[0, 0, 0]	n/a	FR1	1	R1051J
790.797	1.941	1986566	REC_WORD	1.941	n/a	FROG	-999	7	[0, 0, 0]	n/a	FR1	1	R1051J
792.738	22.446	1990448	REC_WORD	22.446	n/a	MULE	-999	7	[0, 0, 0]	n/a	FR1	1	R1051J
815.184	2.891	2035339	REC_END	n/a	n/a	n/a	-999	7	[0, 0, 0]	n/a	FR1	1	R1051J
818.075	0.001	2041121	COUNTDOWN_START	n/a	n/a	n/a	-999	8	[0, 0, 0]	n/a	FR1	1	R1051J
818.076	10.427	2041123	TRIAL	n/a	n/a	n/a	-999	8	[0, 0, 0]	n/a	FR1	1	R1051J
828.503	0.007	2061977	COUNTDOWN_END	n/a	n/a	n/a	-999	8	[0, 0, 0]	n/a	FR1	1	R1051J
828.51	2.517	2061991	ORIENT	n/a	n/a	n/a	-999	8	[0, 0, 0]	n/a	FR1	1	R1051J
831.027	2.534	2067025	WORD	n/a	wordpools/wordpool_EN.txt	LAMB	1	8	[0, 0, 0]	n/a	FR1	1	R1051J
833.561	2.55	2072093	WORD	n/a	wordpools/wordpool_EN.txt	DEER	2	8	[0, 0, 0]	n/a	FR1	1	R1051J
836.111	2.484	2077193	WORD	n/a	wordpools/wordpool_EN.txt	WAND	3	8	[0, 0, 0]	n/a	FR1	1	R1051J
838.595	2.5	2082161	WORD	n/a	wordpools/wordpool_EN.txt	WOLF	4	8	[0, 0, 0]	n/a	FR1	1	R1051J
841.095	2.418	2087160	WORD	n/a	wordpools/wordpool_EN.txt	RAKE	5	8	[0, 0, 0]	n/a	FR1	1	R1051J
843.513	2.45	2091996	WORD	n/a	wordpools/wordpool_EN.txt	SNOW	6	8	[0, 0, 0]	n/a	FR1	1	R1051J
845.963	2.483	2096896	WORD	n/a	wordpools/wordpool_EN.txt	ROAD	7	8	[0, 0, 0]	n/a	FR1	1	R1051J
848.446	2.451	2101862	WORD	n/a	wordpools/wordpool_EN.txt	STONE	8	8	[0, 0, 0]	n/a	FR1	1	R1051J
850.897	2.467	2106764	WORD	n/a	wordpools/wordpool_EN.txt	FORK	9	8	[0, 0, 0]	n/a	FR1	1	R1051J
853.364	2.583	2111698	WORD	n/a	wordpools/wordpool_EN.txt	CRANE	10	8	[0, 0, 0]	n/a	FR1	1	R1051J
855.947	2.484	2116864	WORD	n/a	wordpools/wordpool_EN.txt	BEAR	11	8	[0, 0, 0]	n/a	FR1	1	R1051J
858.431	1.617	2121832	WORD	n/a	wordpools/wordpool_EN.txt	MOLE	12	8	[0, 0, 0]	n/a	FR1	1	R1051J
860.048	0.001	2125066	DISTRACT_START	n/a	n/a	n/a	-999	8	[0, 0, 0]	n/a	FR1	1	R1051J
860.049	0.016	2125068	START	n/a	n/a	n/a	-999	8	[-999, -999, -999]	n/a	FR1	1	R1051J
860.065	6.451	2125100	PROB	6.451	n/a	n/a	-999	8	[4, 8, 4]	16	FR1	1	R1051J
866.516	3.9	2138002	PROB	3.9	n/a	n/a	-999	8	[4, 9, 5]	18	FR1	1	R1051J
870.416	4.117	2145802	PROB	4.117	n/a	n/a	-999	8	[9, 8, 2]	19	FR1	1	R1051J
874.533	6.687	2154035	PROB	6.687	n/a	n/a	-999	8	[7, 5, 9]	21	FR1	1	R1051J
881.22	0.014	2167409	STOP	n/a	n/a	n/a	-999	8	[-999, -999, -999]	n/a	FR1	1	R1051J
881.234	1.035	2167437	DISTRACT_END	n/a	n/a	n/a	-999	8	[0, 0, 0]	n/a	FR1	1	R1051J
882.269	2.441	2169507	REC_START	n/a	n/a	n/a	-999	8	[0, 0, 0]	n/a	FR1	1	R1051J
884.71	1.434	2174389	REC_WORD	1.434	n/a	LAMB	-999	8	[0, 0, 0]	n/a	FR1	1	R1051J
886.144	1.274	2177257	REC_WORD	1.274	n/a	DEER	-999	8	[0, 0, 0]	n/a	FR1	1	R1051J
887.418	1.947	2179805	REC_WORD	1.947	n/a	SNOW	-999	8	[0, 0, 0]	n/a	FR1	1	R1051J
889.365	22.913	2183699	REC_WORD	22.913	n/a	RAKE	-999	8	[0, 0, 0]	n/a	FR1	1	R1051J
912.278	6.594	2229524	REC_END	n/a	n/a	n/a	-999	8	[0, 0, 0]	n/a	FR1	1	R1051J
918.872	0.0	2242712	TRIAL	n/a	n/a	n/a	-999	9	[0, 0, 0]	n/a	FR1	1	R1051J
918.872	10.428	2242712	COUNTDOWN_START	n/a	n/a	n/a	-999	9	[0, 0, 0]	n/a	FR1	1	R1051J
929.3	0.008	2263568	COUNTDOWN_END	n/a	n/a	n/a	-999	9	[0, 0, 0]	n/a	FR1	1	R1051J
929.308	2.617	2263584	ORIENT	n/a	n/a	n/a	-999	9	[0, 0, 0]	n/a	FR1	1	R1051J
931.925	2.617	2268818	WORD	n/a	wordpools/wordpool_EN.txt	NAIL	1	9	[0, 0, 0]	n/a	FR1	1	R1051J
934.542	2.567	2274051	WORD	n/a	wordpools/wordpool_EN.txt	PIT	2	9	[0, 0, 0]	n/a	FR1	1	R1051J
937.109	2.549	2279185	WORD	n/a	wordpools/wordpool_EN.txt	FOOT	3	9	[0, 0, 0]	n/a	FR1	1	R1051J
939.658	2.435	2284283	WORD	n/a	wordpools/wordpool_EN.txt	FACE	4	9	[0, 0, 0]	n/a	FR1	1	R1051J
942.093	2.5	2289153	WORD	n/a	wordpools/wordpool_EN.txt	HILL	5	9	[0, 0, 0]	n/a	FR1	1	R1051J
944.593	2.434	2294153	WORD	n/a	wordpools/wordpool_EN.txt	STICK	6	9	[0, 0, 0]	n/a	FR1	1	R1051J
947.027	2.467	2299021	WORD	n/a	wordpools/wordpool_EN.txt	SOCK	7	9	[0, 0, 0]	n/a	FR1	1	R1051J
949.494	2.551	2303955	WORD	n/a	wordpools/wordpool_EN.txt	DRESS	8	9	[0, 0, 0]	n/a	FR1	1	R1051J
952.045	2.599	2309057	WORD	n/a	wordpools/wordpool_EN.txt	CONE	9	9	[0, 0, 0]	n/a	FR1	1	R1051J
954.644	2.401	2314255	WORD	n/a	wordpools/wordpool_EN.txt	FLAME	10	9	[0, 0, 0]	n/a	FR1	1	R1051J
957.045	2.517	2319057	WORD	n/a	wordpools/wordpool_EN.txt	BAG	11	9	[0, 0, 0]	n/a	FR1	1	R1051J
959.562	1.617	2324091	WORD	n/a	wordpools/wordpool_EN.txt	FUDGE	12	9	[0, 0, 0]	n/a	FR1	1	R1051J
961.179	0.001	2327325	DISTRACT_START	n/a	n/a	n/a	-999	9	[0, 0, 0]	n/a	FR1	1	R1051J
961.18	0.016	2327327	START	n/a	n/a	n/a	-999	9	[-999, -999, -999]	n/a	FR1	1	R1051J
961.196	3.767	2327359	PROB	3.767	n/a	n/a	-999	9	[3, 2, 4]	9	FR1	1	R1051J
964.963	4.451	2334892	PROB	4.451	n/a	n/a	-999	9	[7, 7, 3]	17	FR1	1	R1051J
969.414	4.884	2343794	PROB	4.884	n/a	n/a	-999	9	[9, 5, 2]	16	FR1	1	R1051J
974.298	9.446	2353562	PROB	9.446	n/a	n/a	-999	9	[7, 9, 6]	24	FR1	1	R1051J
983.744	0.004	2372454	STOP	n/a	n/a	n/a	-999	9	[-999, -999, -999]	n/a	FR1	1	R1051J
983.748	1.135	2372462	DISTRACT_END	n/a	n/a	n/a	-999	9	[0, 0, 0]	n/a	FR1	1	R1051J
984.883	2.083	2374732	REC_START	n/a	n/a	n/a	-999	9	[0, 0, 0]	n/a	FR1	1	R1051J
986.966	1.6	2378898	REC_WORD_VV	1.6	n/a	<>	-999	9	[0, 0, 0]	n/a	FR1	1	R1051J
988.566	1.638	2382098	REC_WORD	1.638	n/a	NAIL	-999	9	[0, 0, 0]	n/a	FR1	1	R1051J
990.204	1.48	2385374	REC_WORD	1.48	n/a	FOOT	-999	9	[0, 0, 0]	n/a	FR1	1	R1051J
991.684	1.597	2388334	REC_WORD	1.597	n/a	SOCK	-999	9	[0, 0, 0]	n/a	FR1	1	R1051J
993.281	1.343	2391528	REC_WORD	1.343	n/a	DRESS	-999	9	[0, 0, 0]	n/a	FR1	1	R1051J
994.624	1.816	2394213	REC_WORD	1.816	n/a	FACE	-999	9	[0, 0, 0]	n/a	FR1	1	R1051J
996.44	18.456	2397845	REC_WORD	18.456	n/a	BAG	-999	9	[0, 0, 0]	n/a	FR1	1	R1051J
1014.896	2.873	2434757	REC_END	n/a	n/a	n/a	-999	9	[0, 0, 0]	n/a	FR1	1	R1051J
1017.769	0.001	2440503	COUNTDOWN_START	n/a	n/a	n/a	-999	10	[0, 0, 0]	n/a	FR1	1	R1051J
1017.77	10.427	2440505	TRIAL	n/a	n/a	n/a	-999	10	[0, 0, 0]	n/a	FR1	1	R1051J
1028.197	0.008	2461358	COUNTDOWN_END	n/a	n/a	n/a	-999	10	[0, 0, 0]	n/a	FR1	1	R1051J
1028.205	2.583	2461374	ORIENT	n/a	n/a	n/a	-999	10	[0, 0, 0]	n/a	FR1	1	R1051J
1030.788	2.501	2466540	WORD	n/a	wordpools/wordpool_EN.txt	PEAR	1	10	[0, 0, 0]	n/a	FR1	1	R1051J
1033.289	2.45	2471542	WORD	n/a	wordpools/wordpool_EN.txt	CALF	2	10	[0, 0, 0]	n/a	FR1	1	R1051J
1035.739	2.534	2476442	WORD	n/a	wordpools/wordpool_EN.txt	FOX	3	10	[0, 0, 0]	n/a	FR1	1	R1051J
1038.273	2.583	2481510	WORD	n/a	wordpools/wordpool_EN.txt	EEL	4	10	[0, 0, 0]	n/a	FR1	1	R1051J
1040.856	2.502	2486676	WORD	n/a	wordpools/wordpool_EN.txt	MOUTH	5	10	[0, 0, 0]	n/a	FR1	1	R1051J
1043.358	2.566	2491680	WORD	n/a	wordpools/wordpool_EN.txt	ROOT	6	10	[0, 0, 0]	n/a	FR1	1	R1051J
1045.924	2.618	2496812	WORD	n/a	wordpools/wordpool_EN.txt	CHIEF	7	10	[0, 0, 0]	n/a	FR1	1	R1051J
1048.542	2.433	2502048	WORD	n/a	wordpools/wordpool_EN.txt	LEAF	8	10	[0, 0, 0]	n/a	FR1	1	R1051J
1050.975	2.517	2506914	WORD	n/a	wordpools/wordpool_EN.txt	TOOTH	9	10	[0, 0, 0]	n/a	FR1	1	R1051J
1053.492	2.484	2511948	WORD	n/a	wordpools/wordpool_EN.txt	WEB	10	10	[0, 0, 0]	n/a	FR1	1	R1051J
1055.976	2.517	2516916	WORD	n/a	wordpools/wordpool_EN.txt	CHALK	11	10	[0, 0, 0]	n/a	FR1	1	R1051J
1058.493	1.617	2521949	WORD	n/a	wordpools/wordpool_EN.txt	BRANCH	12	10	[0, 0, 0]	n/a	FR1	1	R1051J
1060.11	0.001	2525183	DISTRACT_START	n/a	n/a	n/a	-999	10	[0, 0, 0]	n/a	FR1	1	R1051J
1060.111	0.015	2525185	START	n/a	n/a	n/a	-999	10	[-999, -999, -999]	n/a	FR1	1	R1051J
1060.126	4.118	2525215	PROB	4.118	n/a	n/a	-999	10	[6, 2, 7]	15	FR1	1	R1051J
1064.244	3.717	2533451	PROB	3.717	n/a	n/a	-999	10	[3, 1, 3]	7	FR1	1	R1051J
1067.961	10.401	2540885	PROB	10.401	n/a	n/a	-999	10	[7, 1, 2]	10	FR1	1	R1051J
1078.362	4.692	2561687	PROB	4.692	n/a	n/a	-999	10	[4, 6, 4]	14	FR1	1	R1051J
1083.054	0.009	2571071	STOP	n/a	n/a	n/a	-999	10	[-999, -999, -999]	n/a	FR1	1	R1051J
1083.063	1.101	2571089	DISTRACT_END	n/a	n/a	n/a	-999	10	[0, 0, 0]	n/a	FR1	1	R1051J
1084.164	0.964	2573291	REC_START	n/a	n/a	n/a	-999	10	[0, 0, 0]	n/a	FR1	1	R1051J
1085.128	1.486	2575219	REC_WORD	1.486	n/a	TEETH	-999	10	[0, 0, 0]	n/a	FR1	1	R1051J
1086.614	1.367	2578191	REC_WORD	1.367	n/a	MOUTH	-999	10	[0, 0, 0]	n/a	FR1	1	R1051J
1087.981	1.413	2580924	REC_WORD	1.413	n/a	HAIR	-999	10	[0, 0, 0]	n/a	FR1	1	R1051J
1089.394	1.786	2583750	REC_WORD	1.786	n/a	FOX	-999	10	[0, 0, 0]	n/a	FR1	1	R1051J
1091.18	22.994	2587322	REC_WORD	22.994	n/a	EEL	-999	10	[0, 0, 0]	n/a	FR1	1	R1051J
1114.174	4.261	2633310	REC_END	n/a	n/a	n/a	-999	10	[0, 0, 0]	n/a	FR1	1	R1051J
1118.435	0.0	2641831	TRIAL	n/a	n/a	n/a	-999	11	[0, 0, 0]	n/a	FR1	1	R1051J
1118.435	10.428	2641831	COUNTDOWN_START	n/a	n/a	n/a	-999	11	[0, 0, 0]	n/a	FR1	1	R1051J
1128.863	0.006	2662687	COUNTDOWN_END	n/a	n/a	n/a	-999	11	[0, 0, 0]	n/a	FR1	1	R1051J
1128.869	2.568	2662699	ORIENT	n/a	n/a	n/a	-999	11	[0, 0, 0]	n/a	FR1	1	R1051J
1131.437	2.566	2667835	WORD	n/a	wordpools/wordpool_EN.txt	TENT	1	11	[0, 0, 0]	n/a	FR1	1	R1051J
1134.003	2.568	2672967	WORD	n/a	wordpools/wordpool_EN.txt	GUARD	2	11	[0, 0, 0]	n/a	FR1	1	R1051J
1136.571	2.466	2678103	WORD	n/a	wordpools/wordpool_EN.txt	JEEP	3	11	[0, 0, 0]	n/a	FR1	1	R1051J
1139.037	2.485	2683035	WORD	n/a	wordpools/wordpool_EN.txt	ARK	4	11	[0, 0, 0]	n/a	FR1	1	R1051J
1141.522	2.433	2688005	WORD	n/a	wordpools/wordpool_EN.txt	LIP	5	11	[0, 0, 0]	n/a	FR1	1	R1051J
1143.955	2.567	2692871	WORD	n/a	wordpools/wordpool_EN.txt	PEN	6	11	[0, 0, 0]	n/a	FR1	1	R1051J
1146.522	2.584	2698005	WORD	n/a	wordpools/wordpool_EN.txt	CHEEK	7	11	[0, 0, 0]	n/a	FR1	1	R1051J
1149.106	2.5	2703172	WORD	n/a	wordpools/wordpool_EN.txt	BADGE	8	11	[0, 0, 0]	n/a	FR1	1	R1051J
1151.606	2.451	2708172	WORD	n/a	wordpools/wordpool_EN.txt	HAT	9	11	[0, 0, 0]	n/a	FR1	1	R1051J
1154.057	2.433	2713074	WORD	n/a	wordpools/wordpool_EN.txt	MUD	10	11	[0, 0, 0]	n/a	FR1	1	R1051J
1156.49	2.401	2717940	WORD	n/a	wordpools/wordpool_EN.txt	GEESE	11	11	[0, 0, 0]	n/a	FR1	1	R1051J
1158.891	1.616	2722742	WORD	n/a	wordpools/wordpool_EN.txt	HAND	12	11	[0, 0, 0]	n/a	FR1	1	R1051J
1160.507	0.001	2725974	DISTRACT_START	n/a	n/a	n/a	-999	11	[0, 0, 0]	n/a	FR1	1	R1051J
1160.508	0.016	2725976	START	n/a	n/a	n/a	-999	11	[-999, -999, -999]	n/a	FR1	1	R1051J
1160.524	4.001	2726008	PROB	4.001	n/a	n/a	-999	11	[4, 2, 7]	13	FR1	1	R1051J
1164.525	3.567	2734010	PROB	3.567	n/a	n/a	-999	11	[9, 9, 3]	21	FR1	1	R1051J
1168.092	5.084	2741144	PROB	5.084	n/a	n/a	-999	11	[5, 2, 1]	8	FR1	1	R1051J
1173.176	4.767	2751312	PROB	4.767	n/a	n/a	-999	11	[5, 9, 1]	15	FR1	1	R1051J
1177.943	4.405	2760846	PROB	4.405	n/a	n/a	-999	11	[1, 7, 9]	16	FR1	1	R1051J
1182.348	0.013	2769655	STOP	n/a	n/a	n/a	-999	11	[-999, -999, -999]	n/a	FR1	1	R1051J
1182.361	1.15	2769681	DISTRACT_END	n/a	n/a	n/a	-999	11	[0, 0, 0]	n/a	FR1	1	R1051J
1183.511	3.32	2771981	REC_START	n/a	n/a	n/a	-999	11	[0, 0, 0]	n/a	FR1	1	R1051J
1186.831	1.177	2778621	REC_WORD	1.177	n/a	GUARD	-999	11	[0, 0, 0]	n/a	FR1	1	R1051J
1188.008	1.323	2780975	REC_WORD	1.323	n/a	BADGE	-999	11	[0, 0, 0]	n/a	FR1	1	R1051J
1189.331	1.43	2783621	REC_WORD	1.43	n/a	JEEP	-999	11	[0, 0, 0]	n/a	FR1	1	R1051J
1190.761	2.786	2786481	REC_WORD	2.786	n/a	MUD	-999	11	[0, 0, 0]	n/a	FR1	1	R1051J
1193.547	19.974	2792053	REC_WORD	19.974	n/a	LIP	-999	11	[0, 0, 0]	n/a	FR1	1	R1051J
1213.521	3.678	2832000	REC_END	n/a	n/a	n/a	-999	11	[0, 0, 0]	n/a	FR1	1	R1051J
1217.199	0.0	2839356	TRIAL	n/a	n/a	n/a	-999	12	[0, 0, 0]	n/a	FR1	1	R1051J
1217.199	10.428	2839356	COUNTDOWN_START	n/a	n/a	n/a	-999	12	[0, 0, 0]	n/a	FR1	1	R1051J
1227.627	0.006	2860212	COUNTDOWN_END	n/a	n/a	n/a	-999	12	[0, 0, 0]	n/a	FR1	1	R1051J
1227.633	2.534	2860224	ORIENT	n/a	n/a	n/a	-999	12	[0, 0, 0]	n/a	FR1	1	R1051J
1230.167	2.516	2865292	WORD	n/a	wordpools/wordpool_EN.txt	BOMB	1	12	[0, 0, 0]	n/a	FR1	1	R1051J
1232.683	2.368	2870324	WORD	n/a	wordpools/wordpool_EN.txt	FORT	2	12	[0, 0, 0]	n/a	FR1	1	R1051J
1235.051	2.501	2875060	WORD	n/a	wordpools/wordpool_EN.txt	STEAM	3	12	[0, 0, 0]	n/a	FR1	1	R1051J
1237.552	2.533	2880062	WORD	n/a	wordpools/wordpool_EN.txt	DRUM	4	12	[0, 0, 0]	n/a	FR1	1	R1051J
1240.085	2.484	2885128	WORD	n/a	wordpools/wordpool_EN.txt	BARN	5	12	[0, 0, 0]	n/a	FR1	1	R1051J
1242.569	2.384	2890095	WORD	n/a	wordpools/wordpool_EN.txt	TRASH	6	12	[0, 0, 0]	n/a	FR1	1	R1051J
1244.953	2.417	2894863	WORD	n/a	wordpools/wordpool_EN.txt	FLUTE	7	12	[0, 0, 0]	n/a	FR1	1	R1051J
1247.37	2.517	2899697	WORD	n/a	wordpools/wordpool_EN.txt	WHEEL	8	12	[0, 0, 0]	n/a	FR1	1	R1051J
1249.887	2.517	2904731	WORD	n/a	wordpools/wordpool_EN.txt	RAIN	9	12	[0, 0, 0]	n/a	FR1	1	R1051J
1252.404	2.533	2909765	WORD	n/a	wordpools/wordpool_EN.txt	BRIDGE	10	12	[0, 0, 0]	n/a	FR1	1	R1051J
1254.937	2.434	2914831	WORD	n/a	wordpools/wordpool_EN.txt	LAND	11	12	[0, 0, 0]	n/a	FR1	1	R1051J
1257.371	1.617	2919699	WORD	n/a	wordpools/wordpool_EN.txt	FOG	12	12	[0, 0, 0]	n/a	FR1	1	R1051J
1258.988	0.001	2922933	DISTRACT_START	n/a	n/a	n/a	-999	12	[0, 0, 0]	n/a	FR1	1	R1051J
1258.989	0.016	2922935	START	n/a	n/a	n/a	-999	12	[-999, -999, -999]	n/a	FR1	1	R1051J
1259.005	5.067	2922967	PROB	5.067	n/a	n/a	-999	12	[7, 8, 1]	16	FR1	1	R1051J
1264.072	4.384	2933101	PROB	4.384	n/a	n/a	-999	12	[7, 8, 6]	19	FR1	1	R1051J
1268.456	6.101	2941869	PROB	6.101	n/a	n/a	-999	12	[6, 7, 8]	21	FR1	1	R1051J
1274.557	3.884	2954070	PROB	3.884	n/a	n/a	-999	12	[6, 2, 7]	15	FR1	1	R1051J
1278.441	3.968	2961838	PROB	3.968	n/a	n/a	-999	12	[2, 5, 8]	15	FR1	1	R1051J
1282.409	0.016	2969774	STOP	n/a	n/a	n/a	-999	12	[-999, -999, -999]	n/a	FR1	1	R1051J
1282.425	1.168	2969806	DISTRACT_END	n/a	n/a	n/a	-999	12	[0, 0, 0]	n/a	FR1	1	R1051J
1283.593	1.115	2972142	REC_START	n/a	n/a	n/a	-999	12	[0, 0, 0]	n/a	FR1	1	R1051J
1284.708	2.064	2974372	REC_WORD	2.064	n/a	BOMB	-999	12	[0, 0, 0]	n/a	FR1	1	R1051J
1286.772	2.122	2978500	REC_WORD	2.122	n/a	FORT	-999	12	[0, 0, 0]	n/a	FR1	1	R1051J
1288.894	3.1	2982744	REC_WORD	3.1	n/a	STEAM	-999	12	[0, 0, 0]	n/a	FR1	1	R1051J
1291.994	2.413	2988944	REC_WORD	2.413	n/a	FARM	-999	12	[0, 0, 0]	n/a	FR1	1	R1051J
1294.407	10.934	2993770	REC_WORD	10.934	n/a	BRIDGE	-999	12	[0, 0, 0]	n/a	FR1	1	R1051J
1305.341	8.26	3015637	REC_WORD	8.26	n/a	FOG	-999	12	[0, 0, 0]	n/a	FR1	1	R1051J
1313.601	3.261	3032157	REC_END	n/a	n/a	n/a	-999	12	[0, 0, 0]	n/a	FR1	1	R1051J
1316.862	0.0	3038679	TRIAL	n/a	n/a	n/a	-999	13	[0, 0, 0]	n/a	FR1	1	R1051J
1316.862	10.428	3038679	COUNTDOWN_START	n/a	n/a	n/a	-999	13	[0, 0, 0]	n/a	FR1	1	R1051J
1327.29	0.008	3059535	COUNTDOWN_END	n/a	n/a	n/a	-999	13	[0, 0, 0]	n/a	FR1	1	R1051J
1327.298	2.617	3059551	ORIENT	n/a	n/a	n/a	-999	13	[0, 0, 0]	n/a	FR1	1	R1051J
1329.915	2.467	3064785	WORD	n/a	wordpools/wordpool_EN.txt	SQUARE	1	13	[0, 0, 0]	n/a	FR1	1	R1051J
1332.382	2.617	3069719	WORD	n/a	wordpools/wordpool_EN.txt	CART	2	13	[0, 0, 0]	n/a	FR1	1	R1051J
1334.999	2.483	3074952	WORD	n/a	wordpools/wordpool_EN.txt	BOWL	3	13	[0, 0, 0]	n/a	FR1	1	R1051J
1337.482	2.568	3079918	WORD	n/a	wordpools/wordpool_EN.txt	BOY	4	13	[0, 0, 0]	n/a	FR1	1	R1051J
1340.05	2.517	3085054	WORD	n/a	wordpools/wordpool_EN.txt	WOOD	5	13	[0, 0, 0]	n/a	FR1	1	R1051J
1342.567	2.6	3090088	WORD	n/a	wordpools/wordpool_EN.txt	BOAT	6	13	[0, 0, 0]	n/a	FR1	1	R1051J
1345.167	2.434	3095288	WORD	n/a	wordpools/wordpool_EN.txt	CROWN	7	13	[0, 0, 0]	n/a	FR1	1	R1051J
1347.601	2.533	3100156	WORD	n/a	wordpools/wordpool_EN.txt	CLAY	8	13	[0, 0, 0]	n/a	FR1	1	R1051J
1350.134	2.567	3105222	WORD	n/a	wordpools/wordpool_EN.txt	CANE	9	13	[0, 0, 0]	n/a	FR1	1	R1051J
1352.701	2.484	3110356	WORD	n/a	wordpools/wordpool_EN.txt	SLEEVE	10	13	[0, 0, 0]	n/a	FR1	1	R1051J
1355.185	2.4	3115324	WORD	n/a	wordpools/wordpool_EN.txt	SWORD	11	13	[0, 0, 0]	n/a	FR1	1	R1051J
1357.585	1.617	3120124	WORD	n/a	wordpools/wordpool_EN.txt	CUBE	12	13	[0, 0, 0]	n/a	FR1	1	R1051J
1359.202	0.001	3123358	DISTRACT_START	n/a	n/a	n/a	-999	13	[0, 0, 0]	n/a	FR1	1	R1051J
1359.203	0.016	3123360	START	n/a	n/a	n/a	-999	13	[-999, -999, -999]	n/a	FR1	1	R1051J
1359.219	5.951	3123392	PROB	5.951	n/a	n/a	-999	13	[4, 5, 3]	12	FR1	1	R1051J
1365.17	5.284	3135293	PROB	5.284	n/a	n/a	-999	13	[8, 4, 7]	19	FR1	1	R1051J
1370.454	3.283	3145861	PROB	3.283	n/a	n/a	-999	13	[2, 5, 2]	7	FR1	1	R1051J
1373.737	12.477	3152427	PROB	12.477	n/a	n/a	-999	13	[8, 7, 7]	23	FR1	1	R1051J
1386.214	0.009	3177381	STOP	n/a	n/a	n/a	-999	13	[-999, -999, -999]	n/a	FR1	1	R1051J
1386.223	1.051	3177399	DISTRACT_END	n/a	n/a	n/a	-999	13	[0, 0, 0]	n/a	FR1	1	R1051J
1387.274	2.238	3179501	REC_START	n/a	n/a	n/a	-999	13	[0, 0, 0]	n/a	FR1	1	R1051J
1389.512	1.665	3183977	REC_WORD	1.665	n/a	BOY	-999	13	[0, 0, 0]	n/a	FR1	1	R1051J
1391.177	4.358	3187307	REC_WORD	4.358	n/a	SQUARE	-999	13	[0, 0, 0]	n/a	FR1	1	R1051J
1395.535	1.824	3196022	REC_WORD	1.824	n/a	BOX	-999	13	[0, 0, 0]	n/a	FR1	1	R1051J
1397.359	1.755	3199670	REC_WORD	1.755	n/a	WOOD	-999	13	[0, 0, 0]	n/a	FR1	1	R1051J
1399.114	1.882	3203180	REC_WORD	1.882	n/a	BOWL	-999	13	[0, 0, 0]	n/a	FR1	1	R1051J
1400.996	5.43	3206944	REC_WORD	5.43	n/a	BOAT	-999	13	[0, 0, 0]	n/a	FR1	1	R1051J
1406.426	10.856	3217804	REC_WORD	10.856	n/a	CLAY	-999	13	[0, 0, 0]	n/a	FR1	1	R1051J
1417.282	3.395	3239516	REC_END	n/a	n/a	n/a	-999	13	[0, 0, 0]	n/a	FR1	1	R1051J
1420.677	0.0	3246306	TRIAL	n/a	n/a	n/a	-999	14	[0, 0, 0]	n/a	FR1	1	R1051J
1420.677	10.428	3246306	COUNTDOWN_START	n/a	n/a	n/a	-999	14	[0, 0, 0]	n/a	FR1	1	R1051J
1431.105	0.008	3267161	COUNTDOWN_END	n/a	n/a	n/a	-999	14	[0, 0, 0]	n/a	FR1	1	R1051J
1431.113	2.483	3267177	ORIENT	n/a	n/a	n/a	-999	14	[0, 0, 0]	n/a	FR1	1	R1051J
1433.596	2.417	3272143	WORD	n/a	wordpools/wordpool_EN.txt	SPARK	1	14	[0, 0, 0]	n/a	FR1	1	R1051J
1436.013	2.384	3276977	WORD	n/a	wordpools/wordpool_EN.txt	SEAL	2	14	[0, 0, 0]	n/a	FR1	1	R1051J
1438.397	2.601	3281745	WORD	n/a	wordpools/wordpool_EN.txt	THREAD	3	14	[0, 0, 0]	n/a	FR1	1	R1051J
1440.998	2.483	3286947	WORD	n/a	wordpools/wordpool_EN.txt	DITCH	4	14	[0, 0, 0]	n/a	FR1	1	R1051J
1443.481	2.534	3291913	WORD	n/a	wordpools/wordpool_EN.txt	FLAG	5	14	[0, 0, 0]	n/a	FR1	1	R1051J
1446.015	2.534	3296981	WORD	n/a	wordpools/wordpool_EN.txt	SAIL	6	14	[0, 0, 0]	n/a	FR1	1	R1051J
1448.549	2.383	3302049	WORD	n/a	wordpools/wordpool_EN.txt	TANK	7	14	[0, 0, 0]	n/a	FR1	1	R1051J
1450.932	2.601	3306815	WORD	n/a	wordpools/wordpool_EN.txt	TOY	8	14	[0, 0, 0]	n/a	FR1	1	R1051J
1453.533	2.55	3312017	WORD	n/a	wordpools/wordpool_EN.txt	GRASS	9	14	[0, 0, 0]	n/a	FR1	1	R1051J
1456.083	2.517	3317116	WORD	n/a	wordpools/wordpool_EN.txt	SEA	10	14	[0, 0, 0]	n/a	FR1	1	R1051J
1458.6	2.567	3322150	WORD	n/a	wordpools/wordpool_EN.txt	SHIP	11	14	[0, 0, 0]	n/a	FR1	1	R1051J
1461.167	1.616	3327284	WORD	n/a	wordpools/wordpool_EN.txt	PIN	12	14	[0, 0, 0]	n/a	FR1	1	R1051J
1462.783	0.001	3330516	DISTRACT_START	n/a	n/a	n/a	-999	14	[0, 0, 0]	n/a	FR1	1	R1051J
1462.784	0.016	3330518	START	n/a	n/a	n/a	-999	14	[-999, -999, -999]	n/a	FR1	1	R1051J
1462.8	4.067	3330550	PROB	4.067	n/a	n/a	-999	14	[3, 9, 1]	13	FR1	1	R1051J
1466.867	4.101	3338684	PROB	4.101	n/a	n/a	-999	14	[3, 4, 9]	16	FR1	1	R1051J
1470.968	4.783	3346886	PROB	4.783	n/a	n/a	-999	14	[3, 2, 4]	9	FR1	1	R1051J
1475.751	8.092	3356452	PROB	8.092	n/a	n/a	-999	14	[5, 7, 6]	18	FR1	1	R1051J
1483.843	0.009	3372636	STOP	n/a	n/a	n/a	-999	14	[-999, -999, -999]	n/a	FR1	1	R1051J
1483.852	1.102	3372654	DISTRACT_END	n/a	n/a	n/a	-999	14	[0, 0, 0]	n/a	FR1	1	R1051J
1484.954	1.959	3374858	REC_START	n/a	n/a	n/a	-999	14	[0, 0, 0]	n/a	FR1	1	R1051J
1486.913	1.6	3378775	REC_WORD	1.6	n/a	SHIP	-999	14	[0, 0, 0]	n/a	FR1	1	R1051J
1488.513	26.455	3381975	REC_WORD	26.455	n/a	SAIL	-999	14	[0, 0, 0]	n/a	FR1	1	R1051J
1514.968	3.491	3434885	REC_END	n/a	n/a	n/a	-999	14	[0, 0, 0]	n/a	FR1	1	R1051J
1518.459	0.0	3441866	TRIAL	n/a	n/a	n/a	-999	15	[0, 0, 0]	n/a	FR1	1	R1051J
1518.459	10.428	3441866	COUNTDOWN_START	n/a	n/a	n/a	-999	15	[0, 0, 0]	n/a	FR1	1	R1051J
1528.887	0.006	3462722	COUNTDOWN_END	n/a	n/a	n/a	-999	15	[0, 0, 0]	n/a	FR1	1	R1051J
1528.893	2.401	3462734	ORIENT	n/a	n/a	n/a	-999	15	[0, 0, 0]	n/a	FR1	1	R1051J
1531.294	2.382	3467536	WORD	n/a	wordpools/wordpool_EN.txt	SMILE	1	15	[0, 0, 0]	n/a	FR1	1	R1051J
1533.676	2.435	3472300	WORD	n/a	wordpools/wordpool_EN.txt	LAKE	2	15	[0, 0, 0]	n/a	FR1	1	R1051J
1536.111	2.583	3477170	WORD	n/a	wordpools/wordpool_EN.txt	TRAY	3	15	[0, 0, 0]	n/a	FR1	1	R1051J
1538.694	2.618	3482336	WORD	n/a	wordpools/wordpool_EN.txt	SUN	4	15	[0, 0, 0]	n/a	FR1	1	R1051J
1541.312	2.416	3487572	WORD	n/a	wordpools/wordpool_EN.txt	THUMB	5	15	[0, 0, 0]	n/a	FR1	1	R1051J
1543.728	2.601	3492404	WORD	n/a	wordpools/wordpool_EN.txt	SKY	6	15	[0, 0, 0]	n/a	FR1	1	R1051J
1546.329	2.433	3497606	WORD	n/a	wordpools/wordpool_EN.txt	BEACH	7	15	[0, 0, 0]	n/a	FR1	1	R1051J
1548.762	2.468	3502471	WORD	n/a	wordpools/wordpool_EN.txt	BEAK	8	15	[0, 0, 0]	n/a	FR1	1	R1051J
1551.23	2.516	3507407	WORD	n/a	wordpools/wordpool_EN.txt	WALL	9	15	[0, 0, 0]	n/a	FR1	1	R1051J
1553.746	2.401	3512439	WORD	n/a	wordpools/wordpool_EN.txt	STORM	10	15	[0, 0, 0]	n/a	FR1	1	R1051J
1556.147	2.5	3517241	WORD	n/a	wordpools/wordpool_EN.txt	BIRD	11	15	[0, 0, 0]	n/a	FR1	1	R1051J
1558.647	1.617	3522241	WORD	n/a	wordpools/wordpool_EN.txt	TIE	12	15	[0, 0, 0]	n/a	FR1	1	R1051J
1560.264	0.001	3525475	DISTRACT_START	n/a	n/a	n/a	-999	15	[0, 0, 0]	n/a	FR1	1	R1051J
1560.265	0.016	3525477	START	n/a	n/a	n/a	-999	15	[-999, -999, -999]	n/a	FR1	1	R1051J
1560.281	6.5	3525509	PROB	6.5	n/a	n/a	-999	15	[3, 9, 1]	13	FR1	1	R1051J
1566.781	10.402	3538509	PROB	10.402	n/a	n/a	-999	15	[6, 5, 4]	15	FR1	1	R1051J
1577.183	4.138	3559313	PROB	4.138	n/a	n/a	-999	15	[3, 7, 9]	19	FR1	1	R1051J
1581.321	0.013	3567588	STOP	n/a	n/a	n/a	-999	15	[-999, -999, -999]	n/a	FR1	1	R1051J
1581.334	1.184	3567614	DISTRACT_END	n/a	n/a	n/a	-999	15	[0, 0, 0]	n/a	FR1	1	R1051J
1582.518	1.213	3569982	REC_START	n/a	n/a	n/a	-999	15	[0, 0, 0]	n/a	FR1	1	R1051J
1583.731	1.877	3572408	REC_WORD	1.877	n/a	SMILE	-999	15	[0, 0, 0]	n/a	FR1	1	R1051J
1585.608	1.35	3576162	REC_WORD	1.35	n/a	BEACH	-999	15	[0, 0, 0]	n/a	FR1	1	R1051J
1586.958	2.727	3578862	REC_WORD	2.727	n/a	LAKE	-999	15	[0, 0, 0]	n/a	FR1	1	R1051J
1589.685	3.33	3584316	REC_WORD	3.33	n/a	SKY	-999	15	[0, 0, 0]	n/a	FR1	1	R1051J
1593.015	2.494	3590976	REC_WORD	2.494	n/a	STORM	-999	15	[0, 0, 0]	n/a	FR1	1	R1051J
1595.509	17.023	3595964	REC_WORD	17.023	n/a	CLOUD	-999	15	[0, 0, 0]	n/a	FR1	1	R1051J
1612.532	2.407	3630009	REC_END	n/a	n/a	n/a	-999	15	[0, 0, 0]	n/a	FR1	1	R1051J
1614.939	0.0	3634823	TRIAL	n/a	n/a	n/a	-999	16	[0, 0, 0]	n/a	FR1	1	R1051J
1614.939	10.428	3634823	COUNTDOWN_START	n/a	n/a	n/a	-999	16	[0, 0, 0]	n/a	FR1	1	R1051J
1625.367	0.007	3655679	COUNTDOWN_END	n/a	n/a	n/a	-999	16	[0, 0, 0]	n/a	FR1	1	R1051J
1625.374	2.399	3655693	ORIENT	n/a	n/a	n/a	-999	16	[0, 0, 0]	n/a	FR1	1	R1051J
1627.773	2.551	3660491	WORD	n/a	wordpools/wordpool_EN.txt	SCHOOL	1	16	[0, 0, 0]	n/a	FR1	1	R1051J
1630.324	2.45	3665593	WORD	n/a	wordpools/wordpool_EN.txt	RAT	2	16	[0, 0, 0]	n/a	FR1	1	R1051J
1632.774	2.485	3670493	WORD	n/a	wordpools/wordpool_EN.txt	VAN	3	16	[0, 0, 0]	n/a	FR1	1	R1051J
1635.259	2.615	3675463	WORD	n/a	wordpools/wordpool_EN.txt	PET	4	16	[0, 0, 0]	n/a	FR1	1	R1051J
1637.874	2.519	3680693	WORD	n/a	wordpools/wordpool_EN.txt	HAWK	5	16	[0, 0, 0]	n/a	FR1	1	R1051J
1640.393	2.432	3685730	WORD	n/a	wordpools/wordpool_EN.txt	SKUNK	6	16	[0, 0, 0]	n/a	FR1	1	R1051J
1642.825	2.485	3690594	WORD	n/a	wordpools/wordpool_EN.txt	POND	7	16	[0, 0, 0]	n/a	FR1	1	R1051J
1645.31	2.549	3695564	WORD	n/a	wordpools/wordpool_EN.txt	DUCK	8	16	[0, 0, 0]	n/a	FR1	1	R1051J
1647.859	2.535	3700662	WORD	n/a	wordpools/wordpool_EN.txt	BOARD	9	16	[0, 0, 0]	n/a	FR1	1	R1051J
1650.394	2.567	3705732	WORD	n/a	wordpools/wordpool_EN.txt	DOCK	10	16	[0, 0, 0]	n/a	FR1	1	R1051J
1652.961	2.567	3710866	WORD	n/a	wordpools/wordpool_EN.txt	STORE	11	16	[0, 0, 0]	n/a	FR1	1	R1051J
1655.528	1.617	3716000	WORD	n/a	wordpools/wordpool_EN.txt	APE	12	16	[0, 0, 0]	n/a	FR1	1	R1051J
1657.145	0.001	3719234	DISTRACT_START	n/a	n/a	n/a	-999	16	[0, 0, 0]	n/a	FR1	1	R1051J
1657.146	0.016	3719236	START	n/a	n/a	n/a	-999	16	[-999, -999, -999]	n/a	FR1	1	R1051J
1657.162	3.85	3719268	PROB	3.85	n/a	n/a	-999	16	[6, 3, 1]	10	FR1	1	R1051J
1661.012	3.783	3726968	PROB	3.783	n/a	n/a	-999	16	[2, 2, 3]	7	FR1	1	R1051J
1664.795	3.867	3734534	PROB	3.867	n/a	n/a	-999	16	[8, 1, 3]	12	FR1	1	R1051J
1668.662	3.502	3742268	PROB	3.502	n/a	n/a	-999	16	[1, 6, 6]	13	FR1	1	R1051J
1672.164	6.482	3749271	PROB	6.482	n/a	n/a	-999	16	[4, 7, 9]	20	FR1	1	R1051J
1678.646	0.018	3762235	STOP	n/a	n/a	n/a	-999	16	[-999, -999, -999]	n/a	FR1	1	R1051J
1678.664	1.184	3762271	DISTRACT_END	n/a	n/a	n/a	-999	16	[0, 0, 0]	n/a	FR1	1	R1051J
1679.848	3.378	3764639	REC_START	n/a	n/a	n/a	-999	16	[0, 0, 0]	n/a	FR1	1	R1051J
1683.226	6.608	3771395	REC_WORD	6.608	n/a	BOARD	-999	16	[0, 0, 0]	n/a	FR1	1	R1051J
1689.834	2.734	3784611	REC_WORD_VV	2.734	n/a	<>	-999	16	[0, 0, 0]	n/a	FR1	1	R1051J
1692.568	5.656	3790079	REC_WORD	5.656	n/a	POND	-999	16	[0, 0, 0]	n/a	FR1	1	R1051J
1698.224	3.579	3801391	REC_WORD	3.579	n/a	DUCK	-999	16	[0, 0, 0]	n/a	FR1	1	R1051J
1701.803	1.494	3808548	REC_WORD	1.494	n/a	RAT	-999	16	[0, 0, 0]	n/a	FR1	1	R1051J
1703.297	4.168	3811536	REC_WORD	4.168	n/a	PET	-999	16	[0, 0, 0]	n/a	FR1	1	R1051J
1707.465	1.58	3819872	REC_WORD	1.58	n/a	SCHOOL	-999	16	[0, 0, 0]	n/a	FR1	1	R1051J
1709.045	0.813	3823032	REC_WORD_VV	0.813	n/a	<>	-999	16	[0, 0, 0]	n/a	FR1	1	R1051J
1709.858	4.395	3824658	REC_END	n/a	n/a	n/a	-999	16	[0, 0, 0]	n/a	FR1	1	R1051J
1714.253	0.0	3833448	TRIAL	n/a	n/a	n/a	-999	17	[0, 0, 0]	n/a	FR1	1	R1051J
1714.253	10.428	3833448	COUNTDOWN_START	n/a	n/a	n/a	-999	17	[0, 0, 0]	n/a	FR1	1	R1051J
1724.681	0.006	3854304	COUNTDOWN_END	n/a	n/a	n/a	-999	17	[0, 0, 0]	n/a	FR1	1	R1051J
1724.687	2.585	3854316	ORIENT	n/a	n/a	n/a	-999	17	[0, 0, 0]	n/a	FR1	1	R1051J
1727.272	2.599	3859486	WORD	n/a	wordpools/wordpool_EN.txt	BENCH	1	17	[0, 0, 0]	n/a	FR1	1	R1051J
1729.871	2.551	3864684	WORD	n/a	wordpools/wordpool_EN.txt	COUCH	2	17	[0, 0, 0]	n/a	FR1	1	R1051J
1732.422	2.584	3869786	WORD	n/a	wordpools/wordpool_EN.txt	POOL	3	17	[0, 0, 0]	n/a	FR1	1	R1051J
1735.006	2.5	3874953	WORD	n/a	wordpools/wordpool_EN.txt	AXE	4	17	[0, 0, 0]	n/a	FR1	1	R1051J
1737.506	2.467	3879953	WORD	n/a	wordpools/wordpool_EN.txt	TEA	5	17	[0, 0, 0]	n/a	FR1	1	R1051J
1739.973	2.618	3884887	WORD	n/a	wordpools/wordpool_EN.txt	FLOOR	6	17	[0, 0, 0]	n/a	FR1	1	R1051J
1742.591	2.483	3890123	WORD	n/a	wordpools/wordpool_EN.txt	LEG	7	17	[0, 0, 0]	n/a	FR1	1	R1051J
1745.074	2.467	3895089	WORD	n/a	wordpools/wordpool_EN.txt	HOUSE	8	17	[0, 0, 0]	n/a	FR1	1	R1051J
1747.541	2.567	3900023	WORD	n/a	wordpools/wordpool_EN.txt	PURSE	9	17	[0, 0, 0]	n/a	FR1	1	R1051J
1750.108	2.616	3905157	WORD	n/a	wordpools/wordpool_EN.txt	PALM	10	17	[0, 0, 0]	n/a	FR1	1	R1051J
1752.724	2.518	3910389	WORD	n/a	wordpools/wordpool_EN.txt	DART	11	17	[0, 0, 0]	n/a	FR1	1	R1051J
1755.242	1.616	3915425	WORD	n/a	wordpools/wordpool_EN.txt	SHOE	12	17	[0, 0, 0]	n/a	FR1	1	R1051J
1756.858	0.001	3918657	DISTRACT_START	n/a	n/a	n/a	-999	17	[0, 0, 0]	n/a	FR1	1	R1051J
1756.859	0.016	3918659	START	n/a	n/a	n/a	-999	17	[-999, -999, -999]	n/a	FR1	1	R1051J
1756.875	3.95	3918691	PROB	3.95	n/a	n/a	-999	17	[6, 2, 6]	14	FR1	1	R1051J
1760.825	2.268	3926591	PROB	2.268	n/a	n/a	-999	17	[9, 1, 1]	11	FR1	1	R1051J
1763.093	3.017	3931127	PROB	3.017	n/a	n/a	-999	17	[3, 9, 1]	13	FR1	1	R1051J
1766.11	2.867	3937160	PROB	2.867	n/a	n/a	-999	17	[6, 5, 1]	12	FR1	1	R1051J
1768.977	8.099	3942894	PROB	8.099	n/a	n/a	-999	17	[1, 6, 4]	11	FR1	1	R1051J
1777.076	0.019	3959092	STOP	n/a	n/a	n/a	-999	17	[-999, -999, -999]	n/a	FR1	1	R1051J
1777.095	1.084	3959130	DISTRACT_END	n/a	n/a	n/a	-999	17	[0, 0, 0]	n/a	FR1	1	R1051J
1778.179	2.732	3961298	REC_START	n/a	n/a	n/a	-999	17	[0, 0, 0]	n/a	FR1	1	R1051J
1780.911	1.51	3966762	REC_WORD	1.51	n/a	POOL	-999	17	[0, 0, 0]	n/a	FR1	1	R1051J
1782.421	1.306	3969782	REC_WORD	1.306	n/a	LEG	-999	17	[0, 0, 0]	n/a	FR1	1	R1051J
1783.727	3.757	3972394	REC_WORD	3.757	n/a	SHOE	-999	17	[0, 0, 0]	n/a	FR1	1	R1051J
1787.484	2.058	3979908	REC_WORD	2.058	n/a	COUCH	-999	17	[0, 0, 0]	n/a	FR1	1	R1051J
1789.542	6.123	3984024	REC_WORD	6.123	n/a	BENCH	-999	17	[0, 0, 0]	n/a	FR1	1	R1051J
1795.665	6.633	3996269	REC_WORD	6.633	n/a	PURSE	-999	17	[0, 0, 0]	n/a	FR1	1	R1051J
1802.298	5.891	4009535	REC_WORD_VV	5.891	n/a	<>	-999	17	[0, 0, 0]	n/a	FR1	1	R1051J
1808.189	24.447	4021317	REC_END	n/a	n/a	n/a	-999	17	[0, 0, 0]	n/a	FR1	1	R1051J
1832.636	0.0	4070210	TRIAL	n/a	n/a	n/a	-999	18	[0, 0, 0]	n/a	FR1	1	R1051J
1832.636	10.428	4070210	COUNTDOWN_START	n/a	n/a	n/a	-999	18	[0, 0, 0]	n/a	FR1	1	R1051J
1843.064	0.008	4091066	COUNTDOWN_END	n/a	n/a	n/a	-999	18	[0, 0, 0]	n/a	FR1	1	R1051J
1843.072	2.467	4091082	ORIENT	n/a	n/a	n/a	-999	18	[0, 0, 0]	n/a	FR1	1	R1051J
1845.539	2.533	4096016	WORD	n/a	wordpools/wordpool_EN.txt	TOE	1	18	[0, 0, 0]	n/a	FR1	1	R1051J
1848.072	2.517	4101082	WORD	n/a	wordpools/wordpool_EN.txt	CHIN	2	18	[0, 0, 0]	n/a	FR1	1	R1051J
1850.589	2.467	4106116	WORD	n/a	wordpools/wordpool_EN.txt	WING	3	18	[0, 0, 0]	n/a	FR1	1	R1051J
1853.056	2.616	4111050	WORD	n/a	wordpools/wordpool_EN.txt	GLOVE	4	18	[0, 0, 0]	n/a	FR1	1	R1051J
1855.672	2.552	4116281	WORD	n/a	wordpools/wordpool_EN.txt	NOSE	5	18	[0, 0, 0]	n/a	FR1	1	R1051J
1858.224	2.399	4121385	WORD	n/a	wordpools/wordpool_EN.txt	CAT	6	18	[0, 0, 0]	n/a	FR1	1	R1051J
1860.623	2.585	4126183	WORD	n/a	wordpools/wordpool_EN.txt	FUR	7	18	[0, 0, 0]	n/a	FR1	1	R1051J
1863.208	2.582	4131353	WORD	n/a	wordpools/wordpool_EN.txt	OAR	8	18	[0, 0, 0]	n/a	FR1	1	R1051J
1865.79	2.485	4136517	WORD	n/a	wordpools/wordpool_EN.txt	TREE	9	18	[0, 0, 0]	n/a	FR1	1	R1051J
1868.275	2.383	4141487	WORD	n/a	wordpools/wordpool_EN.txt	SHIELD	10	18	[0, 0, 0]	n/a	FR1	1	R1051J
1870.658	2.434	4146253	WORD	n/a	wordpools/wordpool_EN.txt	ROPE	11	18	[0, 0, 0]	n/a	FR1	1	R1051J
1873.092	1.616	4151121	WORD	n/a	wordpools/wordpool_EN.txt	BLOOM	12	18	[0, 0, 0]	n/a	FR1	1	R1051J
1874.708	0.001	4154353	DISTRACT_START	n/a	n/a	n/a	-999	18	[0, 0, 0]	n/a	FR1	1	R1051J
1874.709	0.016	4154355	START	n/a	n/a	n/a	-999	18	[-999, -999, -999]	n/a	FR1	1	R1051J
1874.725	4.168	4154387	PROB	4.168	n/a	n/a	-999	18	[1, 3, 3]	7	FR1	1	R1051J
1878.893	4.217	4162723	PROB	4.217	n/a	n/a	-999	18	[6, 5, 9]	20	FR1	1	R1051J
1883.11	4.55	4171157	PROB	4.55	n/a	n/a	-999	18	[3, 9, 6]	18	FR1	1	R1051J
1887.66	4.268	4180256	PROB	4.268	n/a	n/a	-999	18	[5, 8, 7]	20	FR1	1	R1051J
1891.928	5.665	4188792	PROB	5.665	n/a	n/a	-999	18	[9, 7, 9]	25	FR1	1	R1051J
1897.593	0.019	4200122	STOP	n/a	n/a	n/a	-999	18	[-999, -999, -999]	n/a	FR1	1	R1051J
1897.612	1.083	4200160	DISTRACT_END	n/a	n/a	n/a	-999	18	[0, 0, 0]	n/a	FR1	1	R1051J
1898.695	2.213	4202326	REC_START	n/a	n/a	n/a	-999	18	[0, 0, 0]	n/a	FR1	1	R1051J
1900.908	2.115	4206752	REC_WORD	2.115	n/a	TOE	-999	18	[0, 0, 0]	n/a	FR1	1	R1051J
1903.023	4.15	4210982	REC_WORD	4.15	n/a	CHIN	-999	18	[0, 0, 0]	n/a	FR1	1	R1051J
1907.173	21.536	4219282	REC_WORD	21.536	n/a	THUMB	-999	18	[0, 0, 0]	n/a	FR1	1	R1051J
1928.709	13.693	4262353	REC_END	n/a	n/a	n/a	-999	18	[0, 0, 0]	n/a	FR1	1	R1051J
1942.402	0.0	4289739	TRIAL	n/a	n/a	n/a	-999	19	[0, 0, 0]	n/a	FR1	1	R1051J
1942.402	10.428	4289739	COUNTDOWN_START	n/a	n/a	n/a	-999	19	[0, 0, 0]	n/a	FR1	1	R1051J
1952.83	0.006	4310594	COUNTDOWN_END	n/a	n/a	n/a	-999	19	[0, 0, 0]	n/a	FR1	1	R1051J
1952.836	2.585	4310606	ORIENT	n/a	n/a	n/a	-999	19	[0, 0, 0]	n/a	FR1	1	R1051J
1955.421	2.5	4315776	WORD	n/a	wordpools/wordpool_EN.txt	MAT	1	19	[0, 0, 0]	n/a	FR1	1	R1051J
1957.921	2.417	4320776	WORD	n/a	wordpools/wordpool_EN.txt	COW	2	19	[0, 0, 0]	n/a	FR1	1	R1051J
1960.338	2.399	4325610	WORD	n/a	wordpools/wordpool_EN.txt	PIE	3	19	[0, 0, 0]	n/a	FR1	1	R1051J
1962.737	2.502	4330408	WORD	n/a	wordpools/wordpool_EN.txt	BREAD	4	19	[0, 0, 0]	n/a	FR1	1	R1051J
1965.239	2.582	4335412	WORD	n/a	wordpools/wordpool_EN.txt	DOLL	5	19	[0, 0, 0]	n/a	FR1	1	R1051J
1967.821	2.368	4340576	WORD	n/a	wordpools/wordpool_EN.txt	VASE	6	19	[0, 0, 0]	n/a	FR1	1	R1051J
1970.189	2.5	4345312	WORD	n/a	wordpools/wordpool_EN.txt	SPRING	7	19	[0, 0, 0]	n/a	FR1	1	R1051J
1972.689	2.535	4350312	WORD	n/a	wordpools/wordpool_EN.txt	SINK	8	19	[0, 0, 0]	n/a	FR1	1	R1051J
1975.224	2.565	4355382	WORD	n/a	wordpools/wordpool_EN.txt	SEAT	9	19	[0, 0, 0]	n/a	FR1	1	R1051J
1977.789	2.369	4360512	WORD	n/a	wordpools/wordpool_EN.txt	SHEEP	10	19	[0, 0, 0]	n/a	FR1	1	R1051J
1980.158	2.632	4365249	WORD	n/a	wordpools/wordpool_EN.txt	CLOTH	11	19	[0, 0, 0]	n/a	FR1	1	R1051J
1982.79	1.601	4370513	WORD	n/a	wordpools/wordpool_EN.txt	BLUSH	12	19	[0, 0, 0]	n/a	FR1	1	R1051J
1984.391	0.001	4373715	DISTRACT_START	n/a	n/a	n/a	-999	19	[0, 0, 0]	n/a	FR1	1	R1051J
1984.392	0.016	4373717	START	n/a	n/a	n/a	-999	19	[-999, -999, -999]	n/a	FR1	1	R1051J
1984.408	3.867	4373749	PROB	3.867	n/a	n/a	-999	19	[3, 5, 4]	12	FR1	1	R1051J
1988.275	3.801	4381483	PROB	3.801	n/a	n/a	-999	19	[4, 7, 7]	18	FR1	1	R1051J
1992.076	4.799	4389085	PROB	4.799	n/a	n/a	-999	19	[4, 3, 9]	16	FR1	1	R1051J
1996.875	3.602	4398683	PROB	3.602	n/a	n/a	-999	19	[7, 4, 9]	20	FR1	1	R1051J
2000.477	7.441	4405887	PROB	7.441	n/a	n/a	-999	19	[3, 1, 7]	11	FR1	1	R1051J
2007.918	0.01	4420769	STOP	n/a	n/a	n/a	-999	19	[-999, -999, -999]	n/a	FR1	1	R1051J
2007.928	1.201	4420789	DISTRACT_END	n/a	n/a	n/a	-999	19	[0, 0, 0]	n/a	FR1	1	R1051J
2009.129	1.342	4423191	REC_START	n/a	n/a	n/a	-999	19	[0, 0, 0]	n/a	FR1	1	R1051J
2010.471	1.181	4425874	REC_WORD	1.181	n/a	BLUSH	-999	19	[0, 0, 0]	n/a	FR1	1	R1051J
2011.652	1.466	4428236	REC_WORD	1.466	n/a	COW	-999	19	[0, 0, 0]	n/a	FR1	1	R1051J
2013.118	2.316	4431168	REC_WORD	2.316	n/a	SHEEP	-999	19	[0, 0, 0]	n/a	FR1	1	R1051J
2015.434	1.85	4435800	REC_WORD	1.85	n/a	SINK	-999	19	[0, 0, 0]	n/a	FR1	1	R1051J
2017.284	3.271	4439500	REC_WORD	3.271	n/a	MAT	-999	19	[0, 0, 0]	n/a	FR1	1	R1051J
2020.555	2.759	4446042	REC_WORD	2.759	n/a	RAG	-999	19	[0, 0, 0]	n/a	FR1	1	R1051J
2023.314	15.825	4451560	REC_WORD	15.825	n/a	TOWEL	-999	19	[0, 0, 0]	n/a	FR1	1	R1051J
2039.139	3.576	4483210	REC_END	n/a	n/a	n/a	-999	19	[0, 0, 0]	n/a	FR1	1	R1051J
2042.715	0.001	4490361	COUNTDOWN_START	n/a	n/a	n/a	-999	20	[0, 0, 0]	n/a	FR1	1	R1051J
2042.716	10.427	4490363	TRIAL	n/a	n/a	n/a	-999	20	[0, 0, 0]	n/a	FR1	1	R1051J
2053.143	0.008	4511217	COUNTDOWN_END	n/a	n/a	n/a	-999	20	[0, 0, 0]	n/a	FR1	1	R1051J
2053.151	2.533	4511233	ORIENT	n/a	n/a	n/a	-999	20	[0, 0, 0]	n/a	FR1	1	R1051J
2055.684	2.501	4516299	WORD	n/a	wordpools/wordpool_EN.txt	JUICE	1	20	[0, 0, 0]	n/a	FR1	1	R1051J
2058.185	2.566	4521301	WORD	n/a	wordpools/wordpool_EN.txt	CORN	2	20	[0, 0, 0]	n/a	FR1	1	R1051J
2060.751	2.535	4526433	WORD	n/a	wordpools/wordpool_EN.txt	CAGE	3	20	[0, 0, 0]	n/a	FR1	1	R1051J
2063.286	2.516	4531503	WORD	n/a	wordpools/wordpool_EN.txt	MUG	4	20	[0, 0, 0]	n/a	FR1	1	R1051J
2065.802	2.418	4536535	WORD	n/a	wordpools/wordpool_EN.txt	HORSE	5	20	[0, 0, 0]	n/a	FR1	1	R1051J
2068.22	2.432	4541371	WORD	n/a	wordpools/wordpool_EN.txt	ARM	6	20	[0, 0, 0]	n/a	FR1	1	R1051J
2070.652	2.569	4546235	WORD	n/a	wordpools/wordpool_EN.txt	STEAK	7	20	[0, 0, 0]	n/a	FR1	1	R1051J
2073.221	2.632	4551372	WORD	n/a	wordpools/wordpool_EN.txt	TOAST	8	20	[0, 0, 0]	n/a	FR1	1	R1051J
2075.853	2.502	4556636	WORD	n/a	wordpools/wordpool_EN.txt	CAVE	9	20	[0, 0, 0]	n/a	FR1	1	R1051J
2078.355	2.399	4561640	WORD	n/a	wordpools/wordpool_EN.txt	GLASS	10	20	[0, 0, 0]	n/a	FR1	1	R1051J
2080.754	2.518	4566438	WORD	n/a	wordpools/wordpool_EN.txt	HOOF	11	20	[0, 0, 0]	n/a	FR1	1	R1051J
2083.272	1.617	4571474	WORD	n/a	wordpools/wordpool_EN.txt	PLATE	12	20	[0, 0, 0]	n/a	FR1	1	R1051J
2084.889	0.001	4574708	DISTRACT_START	n/a	n/a	n/a	-999	20	[0, 0, 0]	n/a	FR1	1	R1051J
2084.89	0.016	4574710	START	n/a	n/a	n/a	-999	20	[-999, -999, -999]	n/a	FR1	1	R1051J
2084.906	9.434	4574742	PROB	9.434	n/a	n/a	-999	20	[5, 3, 9]	17	FR1	1	R1051J
2094.34	4.134	4593610	PROB	4.134	n/a	n/a	-999	20	[3, 2, 5]	10	FR1	1	R1051J
2098.474	5.034	4601878	PROB	5.034	n/a	n/a	-999	20	[9, 4, 6]	17	FR1	1	R1051J
2103.508	4.326	4611945	PROB	4.326	n/a	n/a	-999	20	[1, 6, 4]	11	FR1	1	R1051J
2107.834	0.007	4620597	STOP	n/a	n/a	n/a	-999	20	[-999, -999, -999]	n/a	FR1	1	R1051J
2107.841	1.152	4620611	DISTRACT_END	n/a	n/a	n/a	-999	20	[0, 0, 0]	n/a	FR1	1	R1051J
2108.993	1.128	4622915	REC_START	n/a	n/a	n/a	-999	20	[0, 0, 0]	n/a	FR1	1	R1051J
2110.121	1.726	4625171	REC_WORD	1.726	n/a	HORSE	-999	20	[0, 0, 0]	n/a	FR1	1	R1051J
2111.847	27.156	4628623	REC_WORD	27.156	n/a	HOOF	-999	20	[0, 0, 0]	n/a	FR1	1	R1051J
2139.003	74.221	4682934	REC_END	n/a	n/a	n/a	-999	20	[0, 0, 0]	n/a	FR1	1	R1051J
2213.224	0.0	4831374	TRIAL	n/a	n/a	n/a	-999	21	[0, 0, 0]	n/a	FR1	1	R1051J
2213.224	10.428	4831374	COUNTDOWN_START	n/a	n/a	n/a	-999	21	[0, 0, 0]	n/a	FR1	1	R1051J
2223.652	0.006	4852230	COUNTDOWN_END	n/a	n/a	n/a	-999	21	[0, 0, 0]	n/a	FR1	1	R1051J
2223.658	2.434	4852242	ORIENT	n/a	n/a	n/a	-999	21	[0, 0, 0]	n/a	FR1	1	R1051J
2226.092	2.451	4857109	WORD	n/a	wordpools/wordpool_EN.txt	BAT	1	21	[0, 0, 0]	n/a	FR1	1	R1051J
2228.543	2.583	4862011	WORD	n/a	wordpools/wordpool_EN.txt	FLEA	2	21	[0, 0, 0]	n/a	FR1	1	R1051J
2231.126	2.616	4867177	WORD	n/a	wordpools/wordpool_EN.txt	NEST	3	21	[0, 0, 0]	n/a	FR1	1	R1051J
2233.742	2.418	4872409	WORD	n/a	wordpools/wordpool_EN.txt	WHALE	4	21	[0, 0, 0]	n/a	FR1	1	R1051J
2236.16	2.533	4877245	WORD	n/a	wordpools/wordpool_EN.txt	HORN	5	21	[0, 0, 0]	n/a	FR1	1	R1051J
2238.693	2.435	4882311	WORD	n/a	wordpools/wordpool_EN.txt	PIG	6	21	[0, 0, 0]	n/a	FR1	1	R1051J
2241.128	2.582	4887181	WORD	n/a	wordpools/wordpool_EN.txt	ANT	7	21	[0, 0, 0]	n/a	FR1	1	R1051J
2243.71	2.502	4892345	WORD	n/a	wordpools/wordpool_EN.txt	SNAIL	8	21	[0, 0, 0]	n/a	FR1	1	R1051J
2246.212	2.383	4897349	WORD	n/a	wordpools/wordpool_EN.txt	TAIL	9	21	[0, 0, 0]	n/a	FR1	1	R1051J
2248.595	2.584	4902115	WORD	n/a	wordpools/wordpool_EN.txt	WORM	10	21	[0, 0, 0]	n/a	FR1	1	R1051J
2251.179	2.566	4907283	WORD	n/a	wordpools/wordpool_EN.txt	BALL	11	21	[0, 0, 0]	n/a	FR1	1	R1051J
2253.745	1.601	4912415	WORD	n/a	wordpools/wordpool_EN.txt	BEE	12	21	[0, 0, 0]	n/a	FR1	1	R1051J
2255.346	0.001	4915616	DISTRACT_START	n/a	n/a	n/a	-999	21	[0, 0, 0]	n/a	FR1	1	R1051J
2255.347	0.016	4915618	START	n/a	n/a	n/a	-999	21	[-999, -999, -999]	n/a	FR1	1	R1051J
2255.363	4.084	4915650	PROB	4.084	n/a	n/a	-999	21	[8, 1, 7]	16	FR1	1	R1051J
2259.447	3.183	4923818	PROB	3.183	n/a	n/a	-999	21	[9, 1, 6]	16	FR1	1	R1051J
2262.63	7.569	4930184	PROB	7.569	n/a	n/a	-999	21	[8, 3, 9]	20	FR1	1	R1051J
2270.199	11.304	4945322	PROB	11.304	n/a	n/a	-999	21	[7, 8, 8]	23	FR1	1	R1051J
2281.503	0.014	4967930	STOP	n/a	n/a	n/a	-999	21	[-999, -999, -999]	n/a	FR1	1	R1051J
2281.517	1.183	4967958	DISTRACT_END	n/a	n/a	n/a	-999	21	[0, 0, 0]	n/a	FR1	1	R1051J
2282.7	1.071	4970324	REC_START	n/a	n/a	n/a	-999	21	[0, 0, 0]	n/a	FR1	1	R1051J
2283.771	1.68	4972466	REC_WORD	1.68	n/a	BAT	-999	21	[0, 0, 0]	n/a	FR1	1	R1051J
2285.451	5.904	4975826	REC_WORD	5.904	n/a	FLEA	-999	21	[0, 0, 0]	n/a	FR1	1	R1051J
2291.355	6.549	4987633	REC_WORD	6.549	n/a	HORN	-999	21	[0, 0, 0]	n/a	FR1	1	R1051J
2297.904	3.406	5000731	REC_WORD	3.406	n/a	MOUSE	-999	21	[0, 0, 0]	n/a	FR1	1	R1051J
2301.31	2.574	5007543	REC_WORD	2.574	n/a	SNAIL	-999	21	[0, 0, 0]	n/a	FR1	1	R1051J
2303.884	8.825	5012691	REC_WORD	8.825	n/a	WORM	-999	21	[0, 0, 0]	n/a	FR1	1	R1051J
2312.709	3.213	5030341	REC_END	n/a	n/a	n/a	-999	21	[0, 0, 0]	n/a	FR1	1	R1051J
2315.922	0.0	5036767	COUNTDOWN_START	n/a	n/a	n/a	-999	22	[0, 0, 0]	n/a	FR1	1	R1051J
2315.922	10.428	5036767	TRIAL	n/a	n/a	n/a	-999	22	[0, 0, 0]	n/a	FR1	1	R1051J
2326.35	0.007	5057622	COUNTDOWN_END	n/a	n/a	n/a	-999	22	[0, 0, 0]	n/a	FR1	1	R1051J
2326.357	2.633	5057636	ORIENT	n/a	n/a	n/a	-999	22	[0, 0, 0]	n/a	FR1	1	R1051J
2328.99	2.451	5062902	WORD	n/a	wordpools/wordpool_EN.txt	FOAM	1	22	[0, 0, 0]	n/a	FR1	1	R1051J
2331.441	2.467	5067804	WORD	n/a	wordpools/wordpool_EN.txt	PEARL	2	22	[0, 0, 0]	n/a	FR1	1	R1051J
2333.908	2.583	5072738	WORD	n/a	wordpools/wordpool_EN.txt	PEACH	3	22	[0, 0, 0]	n/a	FR1	1	R1051J
2336.491	2.501	5077904	WORD	n/a	wordpools/wordpool_EN.txt	BEAN	4	22	[0, 0, 0]	n/a	FR1	1	R1051J
2338.992	2.383	5082906	WORD	n/a	wordpools/wordpool_EN.txt	JAR	5	22	[0, 0, 0]	n/a	FR1	1	R1051J
2341.375	2.433	5087672	WORD	n/a	wordpools/wordpool_EN.txt	DESK	6	22	[0, 0, 0]	n/a	FR1	1	R1051J
2343.808	2.585	5092538	WORD	n/a	wordpools/wordpool_EN.txt	SLIME	7	22	[0, 0, 0]	n/a	FR1	1	R1051J
2346.393	2.416	5097708	WORD	n/a	wordpools/wordpool_EN.txt	CUP	8	22	[0, 0, 0]	n/a	FR1	1	R1051J
2348.809	2.535	5102539	WORD	n/a	wordpools/wordpool_EN.txt	HOOK	9	22	[0, 0, 0]	n/a	FR1	1	R1051J
2351.344	2.499	5107609	WORD	n/a	wordpools/wordpool_EN.txt	SOUP	10	22	[0, 0, 0]	n/a	FR1	1	R1051J
2353.843	2.601	5112607	WORD	n/a	wordpools/wordpool_EN.txt	STOOL	11	22	[0, 0, 0]	n/a	FR1	1	R1051J
2356.444	1.617	5117809	WORD	n/a	wordpools/wordpool_EN.txt	FRUIT	12	22	[0, 0, 0]	n/a	FR1	1	R1051J
2358.061	0.001	5121043	DISTRACT_START	n/a	n/a	n/a	-999	22	[0, 0, 0]	n/a	FR1	1	R1051J
2358.062	0.016	5121045	START	n/a	n/a	n/a	-999	22	[-999, -999, -999]	n/a	FR1	1	R1051J
2358.078	5.534	5121077	PROB	5.534	n/a	n/a	-999	22	[3, 9, 9]	21	FR1	1	R1051J
2363.612	4.183	5132145	PROB	4.183	n/a	n/a	-999	22	[4, 8, 3]	15	FR1	1	R1051J
2367.795	4.702	5140511	PROB	4.702	n/a	n/a	-999	22	[3, 3, 6]	12	FR1	1	R1051J
2372.497	3.633	5149915	PROB	3.633	n/a	n/a	-999	22	[5, 2, 4]	11	FR1	1	R1051J
2376.13	4.362	5157181	PROB	4.362	n/a	n/a	-999	22	[7, 7, 2]	16	FR1	1	R1051J
2380.492	0.006	5165904	STOP	n/a	n/a	n/a	-999	22	[-999, -999, -999]	n/a	FR1	1	R1051J
2380.498	1.183	5165916	DISTRACT_END	n/a	n/a	n/a	-999	22	[0, 0, 0]	n/a	FR1	1	R1051J
2381.681	1.204	5168282	REC_START	n/a	n/a	n/a	-999	22	[0, 0, 0]	n/a	FR1	1	R1051J
2382.885	3.553	5170690	REC_WORD	3.553	n/a	FOAM	-999	22	[0, 0, 0]	n/a	FR1	1	R1051J
2386.438	6.332	5177796	REC_WORD	6.332	n/a	CORN	-999	22	[0, 0, 0]	n/a	FR1	1	R1051J
2392.77	1.473	5190460	REC_WORD	1.473	n/a	JAR	-999	22	[0, 0, 0]	n/a	FR1	1	R1051J
2394.243	1.677	5193406	REC_WORD	1.677	n/a	PEACH	-999	22	[0, 0, 0]	n/a	FR1	1	R1051J
2395.92	2.682	5196760	REC_WORD	2.682	n/a	CUP	-999	22	[0, 0, 0]	n/a	FR1	1	R1051J
2398.602	13.089	5202124	REC_WORD	13.089	n/a	FRUIT	-999	22	[0, 0, 0]	n/a	FR1	1	R1051J
2411.691	11.279	5228301	REC_END	n/a	n/a	n/a	-999	22	[0, 0, 0]	n/a	FR1	1	R1051J
2422.97	0.001	5250859	COUNTDOWN_START	n/a	n/a	n/a	-999	23	[0, 0, 0]	n/a	FR1	1	R1051J
2422.971	10.427	5250861	TRIAL	n/a	n/a	n/a	-999	23	[0, 0, 0]	n/a	FR1	1	R1051J
2433.398	0.007	5271715	COUNTDOWN_END	n/a	n/a	n/a	-999	23	[0, 0, 0]	n/a	FR1	1	R1051J
2433.405	2.567	5271729	ORIENT	n/a	n/a	n/a	-999	23	[0, 0, 0]	n/a	FR1	1	R1051J
2435.972	2.601	5276863	WORD	n/a	wordpools/wordpool_EN.txt	STOVE	1	23	[0, 0, 0]	n/a	FR1	1	R1051J
2438.573	2.517	5282065	WORD	n/a	wordpools/wordpool_EN.txt	TRUCK	2	23	[0, 0, 0]	n/a	FR1	1	R1051J
2441.09	2.383	5287098	WORD	n/a	wordpools/wordpool_EN.txt	PARK	3	23	[0, 0, 0]	n/a	FR1	1	R1051J
2443.473	2.551	5291864	WORD	n/a	wordpools/wordpool_EN.txt	SIGN	4	23	[0, 0, 0]	n/a	FR1	1	R1051J
2446.024	2.467	5296966	WORD	n/a	wordpools/wordpool_EN.txt	BATH	5	23	[0, 0, 0]	n/a	FR1	1	R1051J
2448.491	2.45	5301900	WORD	n/a	wordpools/wordpool_EN.txt	STAIR	6	23	[0, 0, 0]	n/a	FR1	1	R1051J
2450.941	2.534	5306800	WORD	n/a	wordpools/wordpool_EN.txt	STRAW	7	23	[0, 0, 0]	n/a	FR1	1	R1051J
2453.475	2.417	5311868	WORD	n/a	wordpools/wordpool_EN.txt	MILK	8	23	[0, 0, 0]	n/a	FR1	1	R1051J
2455.892	2.583	5316702	WORD	n/a	wordpools/wordpool_EN.txt	VEST	9	23	[0, 0, 0]	n/a	FR1	1	R1051J
2458.475	2.417	5321868	WORD	n/a	wordpools/wordpool_EN.txt	SWAMP	10	23	[0, 0, 0]	n/a	FR1	1	R1051J
2460.892	2.601	5326702	WORD	n/a	wordpools/wordpool_EN.txt	FARM	11	23	[0, 0, 0]	n/a	FR1	1	R1051J
2463.493	1.617	5331904	WORD	n/a	wordpools/wordpool_EN.txt	WEED	12	23	[0, 0, 0]	n/a	FR1	1	R1051J
2465.11	0.0	5335138	DISTRACT_START	n/a	n/a	n/a	-999	23	[0, 0, 0]	n/a	FR1	1	R1051J
2465.11	0.016	5335138	START	n/a	n/a	n/a	-999	23	[-999, -999, -999]	n/a	FR1	1	R1051J
2465.126	5.634	5335170	PROB	5.634	n/a	n/a	-999	23	[2, 6, 8]	16	FR1	1	R1051J
2470.76	4.718	5346437	PROB	4.718	n/a	n/a	-999	23	[2, 5, 3]	10	FR1	1	R1051J
2475.478	7.951	5355873	PROB	7.951	n/a	n/a	-999	23	[8, 6, 2]	16	FR1	1	R1051J
2483.429	4.219	5371775	PROB	4.219	n/a	n/a	-999	23	[6, 6, 1]	13	FR1	1	R1051J
2487.648	0.014	5380213	STOP	n/a	n/a	n/a	-999	23	[-999, -999, -999]	n/a	FR1	1	R1051J
2487.662	1.034	5380241	DISTRACT_END	n/a	n/a	n/a	-999	23	[0, 0, 0]	n/a	FR1	1	R1051J
2488.696	0.621	5382309	REC_START	n/a	n/a	n/a	-999	23	[0, 0, 0]	n/a	FR1	1	R1051J
2489.317	1.224	5383551	REC_WORD	1.224	n/a	FARM	-999	23	[0, 0, 0]	n/a	FR1	1	R1051J
2490.541	1.644	5385999	REC_WORD	1.644	n/a	TRUCK	-999	23	[0, 0, 0]	n/a	FR1	1	R1051J
2492.185	1.445	5389287	REC_WORD	1.445	n/a	WEED	-999	23	[0, 0, 0]	n/a	FR1	1	R1051J
2493.63	1.652	5392177	REC_WORD	1.652	n/a	SWAMP	-999	23	[0, 0, 0]	n/a	FR1	1	R1051J
2495.282	23.422	5395481	REC_WORD	23.422	n/a	VEST	-999	23	[0, 0, 0]	n/a	FR1	1	R1051J
2518.704	6.648	5442324	REC_END	n/a	n/a	n/a	-999	23	[0, 0, 0]	n/a	FR1	1	R1051J
2525.352	0.0	5455620	COUNTDOWN_START	n/a	n/a	n/a	-999	24	[0, 0, 0]	n/a	FR1	1	R1051J
2525.352	10.428	5455620	TRIAL	n/a	n/a	n/a	-999	24	[0, 0, 0]	n/a	FR1	1	R1051J
2535.78	0.005	5476475	COUNTDOWN_END	n/a	n/a	n/a	-999	24	[0, 0, 0]	n/a	FR1	1	R1051J
2535.785	2.518	5476485	ORIENT	n/a	n/a	n/a	-999	24	[0, 0, 0]	n/a	FR1	1	R1051J
2538.303	2.433	5481521	WORD	n/a	wordpools/wordpool_EN.txt	SHRIMP	1	24	[0, 0, 0]	n/a	FR1	1	R1051J
2540.736	2.485	5486387	WORD	n/a	wordpools/wordpool_EN.txt	SALT	2	24	[0, 0, 0]	n/a	FR1	1	R1051J
2543.221	2.432	5491357	WORD	n/a	wordpools/wordpool_EN.txt	STRING	3	24	[0, 0, 0]	n/a	FR1	1	R1051J
2545.653	2.518	5496221	WORD	n/a	wordpools/wordpool_EN.txt	DIME	4	24	[0, 0, 0]	n/a	FR1	1	R1051J
2548.171	2.417	5501257	WORD	n/a	wordpools/wordpool_EN.txt	SPOON	5	24	[0, 0, 0]	n/a	FR1	1	R1051J
2550.588	2.451	5506091	WORD	n/a	wordpools/wordpool_EN.txt	SPONGE	6	24	[0, 0, 0]	n/a	FR1	1	R1051J
2553.039	2.533	5510993	WORD	n/a	wordpools/wordpool_EN.txt	ZOO	7	24	[0, 0, 0]	n/a	FR1	1	R1051J
2555.572	2.384	5516059	WORD	n/a	wordpools/wordpool_EN.txt	CLOWN	8	24	[0, 0, 0]	n/a	FR1	1	R1051J
2557.956	2.467	5520827	WORD	n/a	wordpools/wordpool_EN.txt	PASTE	9	24	[0, 0, 0]	n/a	FR1	1	R1051J
2560.423	2.601	5525761	WORD	n/a	wordpools/wordpool_EN.txt	TOOL	10	24	[0, 0, 0]	n/a	FR1	1	R1051J
2563.024	2.466	5530962	WORD	n/a	wordpools/wordpool_EN.txt	TEETH	11	24	[0, 0, 0]	n/a	FR1	1	R1051J
2565.49	1.601	5535894	WORD	n/a	wordpools/wordpool_EN.txt	ELF	12	24	[0, 0, 0]	n/a	FR1	1	R1051J
2567.091	0.001	5539096	DISTRACT_START	n/a	n/a	n/a	-999	24	[0, 0, 0]	n/a	FR1	1	R1051J
2567.092	0.015	5539098	START	n/a	n/a	n/a	-999	24	[-999, -999, -999]	n/a	FR1	1	R1051J
2567.107	8.168	5539128	PROB	8.168	n/a	n/a	-999	24	[4, 2, 2]	8	FR1	1	R1051J
2575.275	4.517	5555464	PROB	4.517	n/a	n/a	-999	24	[4, 2, 5]	11	FR1	1	R1051J
2579.792	3.551	5564498	PROB	3.551	n/a	n/a	-999	24	[7, 4, 1]	12	FR1	1	R1051J
2583.343	3.751	5571600	PROB	3.751	n/a	n/a	-999	24	[6, 6, 1]	13	FR1	1	R1051J
2587.094	4.328	5579102	PROB	4.328	n/a	n/a	-999	24	[7, 3, 9]	19	FR1	1	R1051J
2591.422	0.006	5587758	STOP	n/a	n/a	n/a	-999	24	[-999, -999, -999]	n/a	FR1	1	R1051J
2591.428	1.034	5587770	DISTRACT_END	n/a	n/a	n/a	-999	24	[0, 0, 0]	n/a	FR1	1	R1051J
2592.462	1.784	5589838	REC_START	n/a	n/a	n/a	-999	24	[0, 0, 0]	n/a	FR1	1	R1051J
2594.246	1.796	5593405	REC_WORD	1.796	n/a	SHRIMP	-999	24	[0, 0, 0]	n/a	FR1	1	R1051J
2596.042	1.359	5596997	REC_WORD	1.359	n/a	SALT	-999	24	[0, 0, 0]	n/a	FR1	1	R1051J
2597.401	4.272	5599715	REC_WORD	4.272	n/a	SPOON	-999	24	[0, 0, 0]	n/a	FR1	1	R1051J
2601.673	10.16	5608259	REC_WORD	10.16	n/a	ELF	-999	24	[0, 0, 0]	n/a	FR1	1	R1051J
2611.833	10.639	5628579	REC_WORD	10.639	n/a	VEST	-999	24	[0, 0, 0]	n/a	FR1	1	R1051J
2622.472	12.745	5649857	REC_END	n/a	n/a	n/a	-999	24	[0, 0, 0]	n/a	FR1	1	R1051J
2635.217	0.0	5675346	TRIAL	n/a	n/a	n/a	-999	25	[0, 0, 0]	n/a	FR1	1	R1051J
2635.217	10.428	5675346	COUNTDOWN_START	n/a	n/a	n/a	-999	25	[0, 0, 0]	n/a	FR1	1	R1051J
2645.645	0.006	5696202	COUNTDOWN_END	n/a	n/a	n/a	-999	25	[0, 0, 0]	n/a	FR1	1	R1051J
2645.651	2.601	5696214	ORIENT	n/a	n/a	n/a	-999	25	[0, 0, 0]	n/a	FR1	1	R1051J
2648.252	2.433	5701416	WORD	n/a	wordpools/wordpool_EN.txt	RICE	1	25	[0, 0, 0]	n/a	FR1	1	R1051J
2650.685	2.368	5706282	WORD	n/a	wordpools/wordpool_EN.txt	EGG	2	25	[0, 0, 0]	n/a	FR1	1	R1051J
2653.053	2.517	5711018	WORD	n/a	wordpools/wordpool_EN.txt	CORD	3	25	[0, 0, 0]	n/a	FR1	1	R1051J
2655.57	2.55	5716051	WORD	n/a	wordpools/wordpool_EN.txt	NET	4	25	[0, 0, 0]	n/a	FR1	1	R1051J
2658.12	2.617	5721151	WORD	n/a	wordpools/wordpool_EN.txt	WAVE	5	25	[0, 0, 0]	n/a	FR1	1	R1051J
2660.737	2.418	5726385	WORD	n/a	wordpools/wordpool_EN.txt	POLE	6	25	[0, 0, 0]	n/a	FR1	1	R1051J
2663.155	2.45	5731221	WORD	n/a	wordpools/wordpool_EN.txt	PEA	7	25	[0, 0, 0]	n/a	FR1	1	R1051J
2665.605	2.483	5736121	WORD	n/a	wordpools/wordpool_EN.txt	TOAD	8	25	[0, 0, 0]	n/a	FR1	1	R1051J
2668.088	2.401	5741087	WORD	n/a	wordpools/wordpool_EN.txt	SHEET	9	25	[0, 0, 0]	n/a	FR1	1	R1051J
2670.489	2.617	5745889	WORD	n/a	wordpools/wordpool_EN.txt	CASH	10	25	[0, 0, 0]	n/a	FR1	1	R1051J
2673.106	2.4	5751123	WORD	n/a	wordpools/wordpool_EN.txt	HEN	11	25	[0, 0, 0]	n/a	FR1	1	R1051J
2675.506	1.617	5755923	WORD	n/a	wordpools/wordpool_EN.txt	COIN	12	25	[0, 0, 0]	n/a	FR1	1	R1051J
2677.123	0.001	5759157	DISTRACT_START	n/a	n/a	n/a	-999	25	[0, 0, 0]	n/a	FR1	1	R1051J
2677.124	0.016	5759159	START	n/a	n/a	n/a	-999	25	[-999, -999, -999]	n/a	FR1	1	R1051J
2677.14	9.918	5759191	PROB	9.918	n/a	n/a	-999	25	[7, 7, 8]	22	FR1	1	R1051J
2687.058	3.317	5779026	PROB	3.317	n/a	n/a	-999	25	[5, 5, 9]	19	FR1	1	R1051J
2690.375	3.667	5785660	PROB	3.667	n/a	n/a	-999	25	[1, 9, 3]	13	FR1	1	R1051J
2694.042	5.417	5792994	PROB	5.417	n/a	n/a	-999	25	[3, 5, 4]	12	FR1	1	R1051J
2699.459	0.017	5803828	STOP	n/a	n/a	n/a	-999	25	[-999, -999, -999]	n/a	FR1	1	R1051J
2699.476	1.15	5803862	DISTRACT_END	n/a	n/a	n/a	-999	25	[0, 0, 0]	n/a	FR1	1	R1051J
2700.626	5.646	5806162	REC_START	n/a	n/a	n/a	-999	25	[0, 0, 0]	n/a	FR1	1	R1051J
2706.272	2.849	5817454	REC_WORD	2.849	n/a	NET	-999	25	[0, 0, 0]	n/a	FR1	1	R1051J
2709.121	2.495	5823152	REC_WORD	2.495	n/a	POLE	-999	25	[0, 0, 0]	n/a	FR1	1	R1051J
2711.616	2.307	5828142	REC_WORD	2.307	n/a	RICE	-999	25	[0, 0, 0]	n/a	FR1	1	R1051J
2713.923	10.615	5832756	REC_WORD	10.615	n/a	EGG	-999	25	[0, 0, 0]	n/a	FR1	1	R1051J
2724.538	5.808	5853985	REC_WORD	5.808	n/a	SHEET	-999	25	[0, 0, 0]	n/a	FR1	1	R1051J
2730.346	0.29	5865601	REC_WORD	0.29	n/a	WATCH	-999	25	[0, 0, 0]	n/a	FR1	1	R1051J
2730.636	25.432	5866181	REC_END	n/a	n/a	n/a	-999	25	[0, 0, 0]	n/a	FR1	1	R1051J
2756.068	0.0	5917044	SESS_END	n/a	n/a	n/a	-999	25	[0, 0, 0]	n/a	FR1	1	R1051J
