onset	duration	sample	trial_type	response_time	stim_file	item_name	serialpos	list	test	answer	experiment	session	subject
0.0	63.299	86662	INSTRUCT_START	n/a	n/a	n/a	-999	-999	[0, 0, 0]	n/a	FR1	1	R1377M
63.299	25.933	149957	INSTRUCT_END	n/a	n/a	n/a	-999	-999	[0, 0, 0]	n/a	FR1	1	R1377M
89.232	10.351	175887	COUNTDOWN_START	n/a	n/a	n/a	-999	-999	[0, 0, 0]	n/a	FR1	1	R1377M
99.583	0.0	186234	COUNTDOWN_END	n/a	n/a	n/a	-999	-999	[0, 0, 0]	n/a	FR1	1	R1377M
99.583	2.099	186234	ENCODING_START	n/a	n/a	n/a	-999	-1	[0, 0, 0]	n/a	FR1	1	R1377M
101.682	1.617	188342	WORD	n/a	n/a	BABY	1	-1	[0, 0, 0]	n/a	FR1	1	R1377M
103.299	1.0	189954	WORD_OFF	n/a	n/a	BABY	1	-1	[0, 0, 0]	n/a	FR1	1	R1377M
104.299	1.6	190959	WORD	n/a	n/a	COTTON	2	-1	[0, 0, 0]	n/a	FR1	1	R1377M
105.899	0.898	192558	WORD_OFF	n/a	n/a	COTTON	2	-1	[0, 0, 0]	n/a	FR1	1	R1377M
106.797	1.601	193453	WORD	n/a	n/a	WATCH	3	-1	[0, 0, 0]	n/a	FR1	1	R1377M
108.398	0.834	195051	WORD_OFF	n/a	n/a	WATCH	3	-1	[0, 0, 0]	n/a	FR1	1	R1377M
109.232	1.617	195892	WORD	n/a	n/a	TONGUE	4	-1	[0, 0, 0]	n/a	FR1	1	R1377M
110.849	0.783	197504	WORD_OFF	n/a	n/a	TONGUE	4	-1	[0, 0, 0]	n/a	FR1	1	R1377M
111.632	1.617	198289	WORD	n/a	n/a	WAGON	5	-1	[0, 0, 0]	n/a	FR1	1	R1377M
113.249	1.0	199915	WORD_OFF	n/a	n/a	WAGON	5	-1	[0, 0, 0]	n/a	FR1	1	R1377M
114.249	1.6	200907	WORD	n/a	n/a	CAMEL	6	-1	[0, 0, 0]	n/a	FR1	1	R1377M
115.849	0.949	202505	WORD_OFF	n/a	n/a	CAMEL	6	-1	[0, 0, 0]	n/a	FR1	1	R1377M
116.798	1.6	203456	WORD	n/a	n/a	FLOOD	7	-1	[0, 0, 0]	n/a	FR1	1	R1377M
118.398	0.85	205054	WORD_OFF	n/a	n/a	FLOOD	7	-1	[0, 0, 0]	n/a	FR1	1	R1377M
119.248	1.601	205894	WORD	n/a	n/a	IMAGE	8	-1	[0, 0, 0]	n/a	FR1	1	R1377M
120.849	0.816	207506	WORD_OFF	n/a	n/a	IMAGE	8	-1	[0, 0, 0]	n/a	FR1	1	R1377M
121.665	1.617	208319	WORD	n/a	n/a	BEAM	9	-1	[0, 0, 0]	n/a	FR1	1	R1377M
123.282	0.833	209931	WORD_OFF	n/a	n/a	BEAM	9	-1	[0, 0, 0]	n/a	FR1	1	R1377M
124.115	1.617	210772	WORD	n/a	n/a	RHINO	10	-1	[0, 0, 0]	n/a	FR1	1	R1377M
125.732	0.95	212384	WORD_OFF	n/a	n/a	RHINO	10	-1	[0, 0, 0]	n/a	FR1	1	R1377M
126.682	1.616	213334	WORD	n/a	n/a	CHEST	11	-1	[0, 0, 0]	n/a	FR1	1	R1377M
128.298	0.8	214946	WORD_OFF	n/a	n/a	CHEST	11	-1	[0, 0, 0]	n/a	FR1	1	R1377M
129.098	1.618	215746	WORD	n/a	n/a	RING	12	-1	[0, 0, 0]	n/a	FR1	1	R1377M
130.716	0.003	217366	PROB	0.003	n/a	n/a	-999	-1	[1, 1, 6]	8	FR1	1	R1377M
130.719	0.0	217369	START	n/a	n/a	n/a	-999	-1	[-999, -999, -999]	n/a	FR1	1	R1377M
130.716	0.001	217371	WORD_OFF	n/a	n/a	RING	12	-1	[0, 0, 0]	n/a	FR1	1	R1377M
130.717	0.002	217371	ENCODING_END	n/a	n/a	n/a	-999	-1	[0, 0, 0]	n/a	FR1	1	R1377M
130.719	4.03	217371	DISTRACT_START	n/a	n/a	n/a	-999	-1	[0, 0, 0]	n/a	FR1	1	R1377M
134.749	2.783	221399	PROB	2.783	n/a	n/a	-999	-1	[1, 3, 3]	7	FR1	1	R1377M
137.532	7.55	224182	PROB	7.55	n/a	n/a	-999	-1	[6, 5, 5]	16	FR1	1	R1377M
145.082	5.267	231731	PROB	5.267	n/a	n/a	-999	-1	[7, 4, 8]	19	FR1	1	R1377M
150.349	3.765	236998	PROB	3.765	n/a	n/a	-999	-1	[3, 8, 2]	13	FR1	1	R1377M
154.114	0.0	240763	STOP	n/a	n/a	n/a	-999	-1	[-999, -999, -999]	n/a	FR1	1	R1377M
154.114	1.068	240766	DISTRACT_END	n/a	n/a	n/a	-999	-1	[0, 0, 0]	n/a	FR1	1	R1377M
155.182	2.988	241827	REC_START	n/a	n/a	n/a	-999	-1	[0, 0, 0]	n/a	FR1	1	R1377M
158.17	0.485	244819	REC_WORD	0.485	n/a	BABY	1	-1	[0, 0, 0]	n/a	FR1	1	R1377M
158.655	1.036	245304	REC_WORD	1.036	n/a	COTTON	2	-1	[0, 0, 0]	n/a	FR1	1	R1377M
159.691	1.067	246340	REC_WORD	1.067	n/a	WATCH	3	-1	[0, 0, 0]	n/a	FR1	1	R1377M
160.758	2.793	247407	REC_WORD	2.793	n/a	TONGUE	4	-1	[0, 0, 0]	n/a	FR1	1	R1377M
163.551	1.105	250199	REC_WORD	1.105	n/a	IMAGE	8	-1	[0, 0, 0]	n/a	FR1	1	R1377M
164.656	2.513	251304	REC_WORD	2.513	n/a	CAMEL	6	-1	[0, 0, 0]	n/a	FR1	1	R1377M
167.169	15.865	253817	REC_WORD_VV	15.865	n/a	<>	-999	-1	[0, 0, 0]	n/a	FR1	1	R1377M
183.034	2.419	269682	REC_WORD_VV	2.419	n/a	<>	-999	-1	[0, 0, 0]	n/a	FR1	1	R1377M
185.453	15.446	272097	REC_END	n/a	n/a	n/a	-999	-1	[0, 0, 0]	n/a	FR1	1	R1377M
200.899	10.35	287555	COUNTDOWN_START	n/a	n/a	n/a	-999	1	[0, 0, 0]	n/a	FR1	1	R1377M
211.249	0.0	297902	COUNTDOWN_END	n/a	n/a	n/a	-999	1	[0, 0, 0]	n/a	FR1	1	R1377M
211.249	2.149	297902	ENCODING_START	n/a	n/a	n/a	-999	1	[0, 0, 0]	n/a	FR1	1	R1377M
213.398	1.617	300052	WORD	n/a	wordpools/wordpool_short_EN.txt	SPRING	1	1	[0, 0, 0]	n/a	FR1	1	R1377M
215.015	0.867	301664	WORD_OFF	n/a	n/a	SPRING	1	1	[0, 0, 0]	n/a	FR1	1	R1377M
215.882	1.616	302532	WORD	n/a	wordpools/wordpool_short_EN.txt	JAR	2	1	[0, 0, 0]	n/a	FR1	1	R1377M
217.498	0.884	304144	WORD_OFF	n/a	n/a	JAR	2	1	[0, 0, 0]	n/a	FR1	1	R1377M
218.382	1.616	305025	WORD	n/a	wordpools/wordpool_short_EN.txt	ROAD	3	1	[0, 0, 0]	n/a	FR1	1	R1377M
219.998	1.0	306651	WORD_OFF	n/a	n/a	ROAD	3	1	[0, 0, 0]	n/a	FR1	1	R1377M
220.998	1.6	307643	WORD	n/a	wordpools/wordpool_short_EN.txt	BLOOM	4	1	[0, 0, 0]	n/a	FR1	1	R1377M
222.598	0.783	309241	WORD_OFF	n/a	n/a	BLOOM	4	1	[0, 0, 0]	n/a	FR1	1	R1377M
223.381	1.6	310027	WORD	n/a	wordpools/wordpool_short_EN.txt	BRIDGE	5	1	[0, 0, 0]	n/a	FR1	1	R1377M
224.981	0.984	311625	WORD_OFF	n/a	n/a	BRIDGE	5	1	[0, 0, 0]	n/a	FR1	1	R1377M
225.965	1.616	312617	WORD	n/a	wordpools/wordpool_short_EN.txt	BADGE	6	1	[0, 0, 0]	n/a	FR1	1	R1377M
227.581	0.817	314229	WORD_OFF	n/a	n/a	BADGE	6	1	[0, 0, 0]	n/a	FR1	1	R1377M
228.398	1.616	315042	WORD	n/a	wordpools/wordpool_short_EN.txt	STEEL	7	1	[0, 0, 0]	n/a	FR1	1	R1377M
230.014	0.884	316668	WORD_OFF	n/a	n/a	STEEL	7	1	[0, 0, 0]	n/a	FR1	1	R1377M
230.898	1.616	317549	WORD	n/a	wordpools/wordpool_short_EN.txt	COKE	8	1	[0, 0, 0]	n/a	FR1	1	R1377M
232.514	0.834	319161	WORD_OFF	n/a	n/a	COKE	8	1	[0, 0, 0]	n/a	FR1	1	R1377M
233.348	1.616	319988	WORD	n/a	wordpools/wordpool_short_EN.txt	CLOTH	9	1	[0, 0, 0]	n/a	FR1	1	R1377M
234.964	0.834	321614	WORD_OFF	n/a	n/a	CLOTH	9	1	[0, 0, 0]	n/a	FR1	1	R1377M
235.798	1.616	322441	WORD	n/a	wordpools/wordpool_short_EN.txt	HOG	10	1	[0, 0, 0]	n/a	FR1	1	R1377M
237.414	0.983	324066	WORD_OFF	n/a	n/a	HOG	10	1	[0, 0, 0]	n/a	FR1	1	R1377M
238.397	1.601	325045	WORD	n/a	wordpools/wordpool_short_EN.txt	PRINCE	11	1	[0, 0, 0]	n/a	FR1	1	R1377M
239.998	0.767	326643	WORD_OFF	n/a	n/a	PRINCE	11	1	[0, 0, 0]	n/a	FR1	1	R1377M
240.765	1.6	327414	WORD	n/a	wordpools/wordpool_short_EN.txt	SHORE	12	1	[0, 0, 0]	n/a	FR1	1	R1377M
242.365	0.001	329010	PROB	0.001	n/a	n/a	-999	1	[3, 2, 2]	7	FR1	1	R1377M
242.366	0.0	329011	START	n/a	n/a	n/a	-999	1	[-999, -999, -999]	n/a	FR1	1	R1377M
242.365	0.001	329013	WORD_OFF	n/a	n/a	SHORE	12	1	[0, 0, 0]	n/a	FR1	1	R1377M
242.366	0.0	329013	ENCODING_END	n/a	n/a	n/a	-999	1	[0, 0, 0]	n/a	FR1	1	R1377M
242.366	6.517	329013	DISTRACT_START	n/a	n/a	n/a	-999	1	[0, 0, 0]	n/a	FR1	1	R1377M
248.883	3.349	335528	PROB	3.349	n/a	n/a	-999	1	[1, 8, 2]	11	FR1	1	R1377M
252.232	4.7	338876	PROB	4.7	n/a	n/a	-999	1	[1, 2, 1]	4	FR1	1	R1377M
256.932	5.483	343576	PROB	5.483	n/a	n/a	-999	1	[7, 3, 8]	18	FR1	1	R1377M
262.415	0.0	349059	DISTRACT_END	n/a	n/a	n/a	-999	1	[0, 0, 0]	n/a	FR1	1	R1377M
262.415	1.384	349059	STOP	n/a	n/a	n/a	-999	1	[-999, -999, -999]	n/a	FR1	1	R1377M
263.799	2.663	350451	REC_START	n/a	n/a	n/a	-999	1	[0, 0, 0]	n/a	FR1	1	R1377M
266.462	0.875	353106	REC_WORD	0.875	n/a	SPRING	1	1	[0, 0, 0]	n/a	FR1	1	R1377M
267.337	1.126	353981	REC_WORD	1.126	n/a	JAR	2	1	[0, 0, 0]	n/a	FR1	1	R1377M
268.463	1.121	355107	REC_WORD	1.121	n/a	ROAD	3	1	[0, 0, 0]	n/a	FR1	1	R1377M
269.584	1.699	356228	REC_WORD	1.699	n/a	BLOOM	4	1	[0, 0, 0]	n/a	FR1	1	R1377M
271.283	0.965	357927	REC_WORD	0.965	n/a	BRIDGE	5	1	[0, 0, 0]	n/a	FR1	1	R1377M
272.248	1.827	358891	REC_WORD	1.827	n/a	BADGE	6	1	[0, 0, 0]	n/a	FR1	1	R1377M
274.075	4.52	360718	REC_WORD	4.52	n/a	COKE	8	1	[0, 0, 0]	n/a	FR1	1	R1377M
278.595	15.46	365238	REC_WORD	15.46	n/a	JAR	2	1	[0, 0, 0]	n/a	FR1	1	R1377M
294.055	10.277	380693	REC_END	n/a	n/a	n/a	-999	1	[0, 0, 0]	n/a	FR1	1	R1377M
304.332	10.35	390971	COUNTDOWN_START	n/a	n/a	n/a	-999	2	[0, 0, 0]	n/a	FR1	1	R1377M
314.682	0.0	401318	COUNTDOWN_END	n/a	n/a	n/a	-999	2	[0, 0, 0]	n/a	FR1	1	R1377M
314.682	1.899	401332	ENCODING_START	n/a	n/a	n/a	-999	2	[0, 0, 0]	n/a	FR1	1	R1377M
316.581	1.617	403220	WORD	n/a	wordpools/wordpool_short_EN.txt	JAIL	1	2	[0, 0, 0]	n/a	FR1	1	R1377M
318.198	0.766	404845	WORD_OFF	n/a	n/a	JAIL	1	2	[0, 0, 0]	n/a	FR1	1	R1377M
318.964	1.6	405603	WORD	n/a	wordpools/wordpool_short_EN.txt	THORN	2	2	[0, 0, 0]	n/a	FR1	1	R1377M
320.564	0.884	407201	WORD_OFF	n/a	n/a	THORN	2	2	[0, 0, 0]	n/a	FR1	1	R1377M
321.448	1.6	408097	WORD	n/a	wordpools/wordpool_short_EN.txt	MEAL	3	2	[0, 0, 0]	n/a	FR1	1	R1377M
323.048	0.983	409695	WORD_OFF	n/a	n/a	MEAL	3	2	[0, 0, 0]	n/a	FR1	1	R1377M
324.031	1.6	410673	WORD	n/a	wordpools/wordpool_short_EN.txt	CLOCK	4	2	[0, 0, 0]	n/a	FR1	1	R1377M
325.631	0.884	412272	WORD_OFF	n/a	n/a	CLOCK	4	2	[0, 0, 0]	n/a	FR1	1	R1377M
326.515	1.6	413153	WORD	n/a	wordpools/wordpool_short_EN.txt	FENCE	5	2	[0, 0, 0]	n/a	FR1	1	R1377M
328.115	0.834	414765	WORD_OFF	n/a	n/a	FENCE	5	2	[0, 0, 0]	n/a	FR1	1	R1377M
328.949	1.6	415592	WORD	n/a	wordpools/wordpool_short_EN.txt	MUD	6	2	[0, 0, 0]	n/a	FR1	1	R1377M
330.549	0.917	417190	WORD_OFF	n/a	n/a	MUD	6	2	[0, 0, 0]	n/a	FR1	1	R1377M
331.466	1.6	418113	WORD	n/a	wordpools/wordpool_short_EN.txt	EGG	7	2	[0, 0, 0]	n/a	FR1	1	R1377M
333.066	0.882	419712	WORD_OFF	n/a	n/a	EGG	7	2	[0, 0, 0]	n/a	FR1	1	R1377M
333.948	1.601	420593	WORD	n/a	wordpools/wordpool_short_EN.txt	HAIR	8	2	[0, 0, 0]	n/a	FR1	1	R1377M
335.549	0.983	422192	WORD_OFF	n/a	n/a	HAIR	8	2	[0, 0, 0]	n/a	FR1	1	R1377M
336.532	1.617	423170	WORD	n/a	wordpools/wordpool_short_EN.txt	PAN	9	2	[0, 0, 0]	n/a	FR1	1	R1377M
338.149	0.9	424796	WORD_OFF	n/a	n/a	PAN	9	2	[0, 0, 0]	n/a	FR1	1	R1377M
339.049	1.6	425691	WORD	n/a	wordpools/wordpool_short_EN.txt	WOLF	10	2	[0, 0, 0]	n/a	FR1	1	R1377M
340.649	0.95	427289	WORD_OFF	n/a	n/a	WOLF	10	2	[0, 0, 0]	n/a	FR1	1	R1377M
341.599	1.6	428240	WORD	n/a	wordpools/wordpool_short_EN.txt	SKY	11	2	[0, 0, 0]	n/a	FR1	1	R1377M
343.199	0.916	429838	WORD_OFF	n/a	n/a	SKY	11	2	[0, 0, 0]	n/a	FR1	1	R1377M
344.115	1.617	430761	WORD	n/a	wordpools/wordpool_short_EN.txt	RICE	12	2	[0, 0, 0]	n/a	FR1	1	R1377M
345.732	0.0	432372	PROB	0.0	n/a	n/a	-999	2	[6, 7, 5]	18	FR1	1	R1377M
345.731	0.002	432373	WORD_OFF	n/a	n/a	RICE	12	2	[0, 0, 0]	n/a	FR1	1	R1377M
345.733	0.0	432373	ENCODING_END	n/a	n/a	n/a	-999	2	[0, 0, 0]	n/a	FR1	1	R1377M
345.733	0.0	432373	DISTRACT_START	n/a	n/a	n/a	-999	2	[0, 0, 0]	n/a	FR1	1	R1377M
345.733	8.582	432373	START	n/a	n/a	n/a	-999	2	[-999, -999, -999]	n/a	FR1	1	R1377M
354.315	5.267	440955	PROB	5.267	n/a	n/a	-999	2	[6, 4, 5]	15	FR1	1	R1377M
359.582	4.434	446221	PROB	4.434	n/a	n/a	-999	2	[4, 1, 2]	7	FR1	1	R1377M
364.016	5.933	450655	PROB	5.933	n/a	n/a	-999	2	[3, 6, 4]	13	FR1	1	R1377M
369.949	0.0	456588	STOP	n/a	n/a	n/a	-999	2	[-999, -999, -999]	n/a	FR1	1	R1377M
369.949	1.283	456595	DISTRACT_END	n/a	n/a	n/a	-999	2	[0, 0, 0]	n/a	FR1	1	R1377M
371.232	4.119	457876	REC_START	n/a	n/a	n/a	-999	2	[0, 0, 0]	n/a	FR1	1	R1377M
375.351	0.657	461990	REC_WORD	0.657	n/a	JAIL	1	2	[0, 0, 0]	n/a	FR1	1	R1377M
376.008	1.461	462647	REC_WORD	1.461	n/a	THORN	2	2	[0, 0, 0]	n/a	FR1	1	R1377M
377.469	1.027	464108	REC_WORD	1.027	n/a	MEAL	3	2	[0, 0, 0]	n/a	FR1	1	R1377M
378.496	2.389	465135	REC_WORD	2.389	n/a	HAIR	8	2	[0, 0, 0]	n/a	FR1	1	R1377M
380.885	3.625	467523	REC_WORD	3.625	n/a	FENCE	5	2	[0, 0, 0]	n/a	FR1	1	R1377M
384.51	16.958	471148	REC_WORD	16.958	n/a	HEAD	-999	2	[0, 0, 0]	n/a	FR1	1	R1377M
401.468	21.131	488104	REC_END	n/a	n/a	n/a	-999	2	[0, 0, 0]	n/a	FR1	1	R1377M
422.599	10.35	509240	COUNTDOWN_START	n/a	n/a	n/a	-999	3	[0, 0, 0]	n/a	FR1	1	R1377M
432.949	0.0	519587	COUNTDOWN_END	n/a	n/a	n/a	-999	3	[0, 0, 0]	n/a	FR1	1	R1377M
432.949	2.066	519587	ENCODING_START	n/a	n/a	n/a	-999	3	[0, 0, 0]	n/a	FR1	1	R1377M
435.015	1.6	521653	WORD	n/a	wordpools/wordpool_short_EN.txt	DEW	1	3	[0, 0, 0]	n/a	FR1	1	R1377M
436.615	0.934	523252	WORD_OFF	n/a	n/a	DEW	1	3	[0, 0, 0]	n/a	FR1	1	R1377M
437.549	1.6	524188	WORD	n/a	wordpools/wordpool_short_EN.txt	MAP	2	3	[0, 0, 0]	n/a	FR1	1	R1377M
439.149	0.95	525787	WORD_OFF	n/a	n/a	MAP	2	3	[0, 0, 0]	n/a	FR1	1	R1377M
440.099	1.6	526737	WORD	n/a	wordpools/wordpool_short_EN.txt	STREET	3	3	[0, 0, 0]	n/a	FR1	1	R1377M
441.699	0.816	528336	WORD_OFF	n/a	n/a	STREET	3	3	[0, 0, 0]	n/a	FR1	1	R1377M
442.515	1.6	529148	WORD	n/a	wordpools/wordpool_short_EN.txt	THUMB	4	3	[0, 0, 0]	n/a	FR1	1	R1377M
444.115	0.984	530747	WORD_OFF	n/a	n/a	THUMB	4	3	[0, 0, 0]	n/a	FR1	1	R1377M
445.099	1.616	531739	WORD	n/a	wordpools/wordpool_short_EN.txt	CAVE	5	3	[0, 0, 0]	n/a	FR1	1	R1377M
446.715	0.934	533351	WORD_OFF	n/a	n/a	CAVE	5	3	[0, 0, 0]	n/a	FR1	1	R1377M
447.649	1.616	534288	WORD	n/a	wordpools/wordpool_short_EN.txt	COURT	6	3	[0, 0, 0]	n/a	FR1	1	R1377M
449.265	0.949	535900	WORD_OFF	n/a	n/a	COURT	6	3	[0, 0, 0]	n/a	FR1	1	R1377M
450.214	1.601	536850	WORD	n/a	wordpools/wordpool_short_EN.txt	SWORD	7	3	[0, 0, 0]	n/a	FR1	1	R1377M
451.815	0.8	538448	WORD_OFF	n/a	n/a	SWORD	7	3	[0, 0, 0]	n/a	FR1	1	R1377M
452.615	1.6	539248	WORD	n/a	wordpools/wordpool_short_EN.txt	LIP	8	3	[0, 0, 0]	n/a	FR1	1	R1377M
454.215	0.783	540860	WORD_OFF	n/a	n/a	LIP	8	3	[0, 0, 0]	n/a	FR1	1	R1377M
454.998	1.601	541631	WORD	n/a	wordpools/wordpool_short_EN.txt	POND	9	3	[0, 0, 0]	n/a	FR1	1	R1377M
456.599	0.9	543229	WORD_OFF	n/a	n/a	POND	9	3	[0, 0, 0]	n/a	FR1	1	R1377M
457.499	1.6	544139	WORD	n/a	wordpools/wordpool_short_EN.txt	MOSS	10	3	[0, 0, 0]	n/a	FR1	1	R1377M
459.099	0.95	545737	WORD_OFF	n/a	n/a	MOSS	10	3	[0, 0, 0]	n/a	FR1	1	R1377M
460.049	1.616	546687	WORD	n/a	wordpools/wordpool_short_EN.txt	BAT	11	3	[0, 0, 0]	n/a	FR1	1	R1377M
461.665	0.783	548299	WORD_OFF	n/a	n/a	BAT	11	3	[0, 0, 0]	n/a	FR1	1	R1377M
462.448	1.6	549085	WORD	n/a	wordpools/wordpool_short_EN.txt	FLAME	12	3	[0, 0, 0]	n/a	FR1	1	R1377M
464.048	0.002	550683	WORD_OFF	n/a	n/a	FLAME	12	3	[0, 0, 0]	n/a	FR1	1	R1377M
464.05	0.0	550683	ENCODING_END	n/a	n/a	n/a	-999	3	[0, 0, 0]	n/a	FR1	1	R1377M
464.05	0.0	550683	DISTRACT_START	n/a	n/a	n/a	-999	3	[0, 0, 0]	n/a	FR1	1	R1377M
464.049	0.001	550684	PROB	0.001	n/a	n/a	-999	3	[7, 4, 2]	13	FR1	1	R1377M
464.05	7.349	550685	START	n/a	n/a	n/a	-999	3	[-999, -999, -999]	n/a	FR1	1	R1377M
471.399	3.399	558033	PROB	3.399	n/a	n/a	-999	3	[1, 7, 7]	15	FR1	1	R1377M
474.798	2.5	561432	PROB	2.5	n/a	n/a	-999	3	[1, 3, 3]	7	FR1	1	R1377M
477.298	2.9	563932	PROB	2.9	n/a	n/a	-999	3	[5, 2, 5]	12	FR1	1	R1377M
480.198	4.3	566832	PROB	4.3	n/a	n/a	-999	3	[3, 7, 5]	15	FR1	1	R1377M
484.498	0.0	571129	DISTRACT_END	n/a	n/a	n/a	-999	3	[0, 0, 0]	n/a	FR1	1	R1377M
484.498	1.166	571132	STOP	n/a	n/a	n/a	-999	3	[-999, -999, -999]	n/a	FR1	1	R1377M
485.664	1.269	572300	REC_START	n/a	n/a	n/a	-999	3	[0, 0, 0]	n/a	FR1	1	R1377M
486.933	2.839	573567	REC_WORD_VV	2.839	n/a	<>	-999	3	[0, 0, 0]	n/a	FR1	1	R1377M
489.772	0.454	576405	REC_WORD	0.454	n/a	DEW	1	3	[0, 0, 0]	n/a	FR1	1	R1377M
490.226	0.505	576859	REC_WORD	0.505	n/a	MAP	2	3	[0, 0, 0]	n/a	FR1	1	R1377M
490.731	1.201	577364	REC_WORD	1.201	n/a	STREET	3	3	[0, 0, 0]	n/a	FR1	1	R1377M
491.932	1.729	578565	REC_WORD	1.729	n/a	THORN	-999	3	[0, 0, 0]	n/a	FR1	1	R1377M
493.661	0.884	580294	REC_WORD	0.884	n/a	POND	9	3	[0, 0, 0]	n/a	FR1	1	R1377M
494.545	3.292	581178	REC_WORD	3.292	n/a	MOSS	10	3	[0, 0, 0]	n/a	FR1	1	R1377M
497.837	14.566	584470	REC_WORD	14.566	n/a	CAVE	5	3	[0, 0, 0]	n/a	FR1	1	R1377M
512.403	2.023	599035	REC_WORD	2.023	n/a	BAT	11	3	[0, 0, 0]	n/a	FR1	1	R1377M
514.426	1.463	601058	REC_WORD_VV	1.463	n/a	<>	-999	3	[0, 0, 0]	n/a	FR1	1	R1377M
515.889	26.193	602529	REC_END	n/a	n/a	n/a	-999	3	[0, 0, 0]	n/a	FR1	1	R1377M
542.082	10.35	628720	COUNTDOWN_START	n/a	n/a	n/a	-999	4	[0, 0, 0]	n/a	FR1	1	R1377M
552.432	0.0	639067	COUNTDOWN_END	n/a	n/a	n/a	-999	4	[0, 0, 0]	n/a	FR1	1	R1377M
552.432	2.066	639067	ENCODING_START	n/a	n/a	n/a	-999	4	[0, 0, 0]	n/a	FR1	1	R1377M
554.498	1.616	641134	WORD	n/a	wordpools/wordpool_short_EN.txt	MOON	1	4	[0, 0, 0]	n/a	FR1	1	R1377M
556.114	0.818	642746	WORD_OFF	n/a	n/a	MOON	1	4	[0, 0, 0]	n/a	FR1	1	R1377M
556.932	1.616	643559	WORD	n/a	wordpools/wordpool_short_EN.txt	SLUSH	2	4	[0, 0, 0]	n/a	FR1	1	R1377M
558.548	0.767	645185	WORD_OFF	n/a	n/a	SLUSH	2	4	[0, 0, 0]	n/a	FR1	1	R1377M
559.315	1.616	645943	WORD	n/a	wordpools/wordpool_short_EN.txt	POOL	3	4	[0, 0, 0]	n/a	FR1	1	R1377M
560.931	0.767	647568	WORD_OFF	n/a	n/a	POOL	3	4	[0, 0, 0]	n/a	FR1	1	R1377M
561.698	1.617	648326	WORD	n/a	wordpools/wordpool_short_EN.txt	BEAN	4	4	[0, 0, 0]	n/a	FR1	1	R1377M
563.315	0.966	649952	WORD_OFF	n/a	n/a	BEAN	4	4	[0, 0, 0]	n/a	FR1	1	R1377M
564.281	1.6	650916	WORD	n/a	wordpools/wordpool_short_EN.txt	CLAY	5	4	[0, 0, 0]	n/a	FR1	1	R1377M
565.881	1.0	652515	WORD_OFF	n/a	n/a	CLAY	5	4	[0, 0, 0]	n/a	FR1	1	R1377M
566.881	1.6	653507	WORD	n/a	wordpools/wordpool_short_EN.txt	BOMB	6	4	[0, 0, 0]	n/a	FR1	1	R1377M
568.481	0.833	655119	WORD_OFF	n/a	n/a	BOMB	6	4	[0, 0, 0]	n/a	FR1	1	R1377M
569.314	1.6	655945	WORD	n/a	wordpools/wordpool_short_EN.txt	MEAT	7	4	[0, 0, 0]	n/a	FR1	1	R1377M
570.914	0.767	657543	WORD_OFF	n/a	n/a	MEAT	7	4	[0, 0, 0]	n/a	FR1	1	R1377M
571.681	1.617	658315	WORD	n/a	wordpools/wordpool_short_EN.txt	SHELL	8	4	[0, 0, 0]	n/a	FR1	1	R1377M
573.298	0.983	659927	WORD_OFF	n/a	n/a	SHELL	8	4	[0, 0, 0]	n/a	FR1	1	R1377M
574.281	1.6	660919	WORD	n/a	wordpools/wordpool_short_EN.txt	MOUSE	9	4	[0, 0, 0]	n/a	FR1	1	R1377M
575.881	0.8	662517	WORD_OFF	n/a	n/a	MOUSE	9	4	[0, 0, 0]	n/a	FR1	1	R1377M
576.681	1.6	663316	WORD	n/a	wordpools/wordpool_short_EN.txt	BREAST	10	4	[0, 0, 0]	n/a	FR1	1	R1377M
578.281	0.767	664914	WORD_OFF	n/a	n/a	BREAST	10	4	[0, 0, 0]	n/a	FR1	1	R1377M
579.048	1.601	665686	WORD	n/a	wordpools/wordpool_short_EN.txt	TROUT	11	4	[0, 0, 0]	n/a	FR1	1	R1377M
580.649	0.951	667284	WORD_OFF	n/a	n/a	TROUT	11	4	[0, 0, 0]	n/a	FR1	1	R1377M
581.6	1.6	668235	WORD	n/a	wordpools/wordpool_short_EN.txt	PLATE	12	4	[0, 0, 0]	n/a	FR1	1	R1377M
583.2	0.001	669829	PROB	0.001	n/a	n/a	-999	4	[7, 3, 3]	13	FR1	1	R1377M
583.201	0.0	669830	START	n/a	n/a	n/a	-999	4	[-999, -999, -999]	n/a	FR1	1	R1377M
583.199	0.001	669833	WORD_OFF	n/a	n/a	PLATE	12	4	[0, 0, 0]	n/a	FR1	1	R1377M
583.2	0.001	669833	ENCODING_END	n/a	n/a	n/a	-999	4	[0, 0, 0]	n/a	FR1	1	R1377M
583.201	10.164	669833	DISTRACT_START	n/a	n/a	n/a	-999	4	[0, 0, 0]	n/a	FR1	1	R1377M
593.365	5.567	679994	PROB	5.567	n/a	n/a	-999	4	[6, 6, 8]	20	FR1	1	R1377M
598.932	4.0	685560	PROB	4.0	n/a	n/a	-999	4	[5, 2, 8]	15	FR1	1	R1377M
602.932	2.633	689560	PROB	2.633	n/a	n/a	-999	4	[1, 3, 5]	9	FR1	1	R1377M
605.565	0.0	692193	STOP	n/a	n/a	n/a	-999	4	[-999, -999, -999]	n/a	FR1	1	R1377M
605.565	1.016	692194	DISTRACT_END	n/a	n/a	n/a	-999	4	[0, 0, 0]	n/a	FR1	1	R1377M
606.581	3.266	693214	REC_START	n/a	n/a	n/a	-999	4	[0, 0, 0]	n/a	FR1	1	R1377M
609.847	0.585	696475	REC_WORD	0.585	n/a	MOON	1	4	[0, 0, 0]	n/a	FR1	1	R1377M
610.432	1.173	697060	REC_WORD	1.173	n/a	SLUSH	2	4	[0, 0, 0]	n/a	FR1	1	R1377M
611.605	1.628	698233	REC_WORD	1.628	n/a	POOL	3	4	[0, 0, 0]	n/a	FR1	1	R1377M
613.233	4.258	699861	REC_WORD	4.258	n/a	BEAN	4	4	[0, 0, 0]	n/a	FR1	1	R1377M
617.491	3.507	704119	REC_WORD	3.507	n/a	CLAY	5	4	[0, 0, 0]	n/a	FR1	1	R1377M
620.998	1.886	707625	REC_WORD	1.886	n/a	TROUT	11	4	[0, 0, 0]	n/a	FR1	1	R1377M
622.884	5.469	709511	REC_WORD	5.469	n/a	PLATE	12	4	[0, 0, 0]	n/a	FR1	1	R1377M
628.353	8.471	714980	REC_WORD_VV	8.471	n/a	<>	-999	4	[0, 0, 0]	n/a	FR1	1	R1377M
636.824	15.324	723456	REC_END	n/a	n/a	n/a	-999	4	[0, 0, 0]	n/a	FR1	1	R1377M
652.148	10.351	738777	COUNTDOWN_START	n/a	n/a	n/a	-999	5	[0, 0, 0]	n/a	FR1	1	R1377M
662.499	0.0	749124	COUNTDOWN_END	n/a	n/a	n/a	-999	5	[0, 0, 0]	n/a	FR1	1	R1377M
662.499	1.866	749124	ENCODING_START	n/a	n/a	n/a	-999	5	[0, 0, 0]	n/a	FR1	1	R1377M
664.365	1.6	750998	WORD	n/a	wordpools/wordpool_short_EN.txt	LEAF	1	5	[0, 0, 0]	n/a	FR1	1	R1377M
665.965	0.8	752596	WORD_OFF	n/a	n/a	LEAF	1	5	[0, 0, 0]	n/a	FR1	1	R1377M
666.765	1.601	753395	WORD	n/a	wordpools/wordpool_short_EN.txt	HAY	2	5	[0, 0, 0]	n/a	FR1	1	R1377M
668.366	0.834	754994	WORD_OFF	n/a	n/a	HAY	2	5	[0, 0, 0]	n/a	FR1	1	R1377M
669.2	1.616	755834	WORD	n/a	wordpools/wordpool_short_EN.txt	GATE	3	5	[0, 0, 0]	n/a	FR1	1	R1377M
670.816	0.783	757446	WORD_OFF	n/a	n/a	GATE	3	5	[0, 0, 0]	n/a	FR1	1	R1377M
671.599	1.616	758231	WORD	n/a	wordpools/wordpool_short_EN.txt	HEART	4	5	[0, 0, 0]	n/a	FR1	1	R1377M
673.215	0.816	759843	WORD_OFF	n/a	n/a	HEART	4	5	[0, 0, 0]	n/a	FR1	1	R1377M
674.031	1.601	760656	WORD	n/a	wordpools/wordpool_short_EN.txt	SOCK	5	5	[0, 0, 0]	n/a	FR1	1	R1377M
675.632	0.883	762254	WORD_OFF	n/a	n/a	SOCK	5	5	[0, 0, 0]	n/a	FR1	1	R1377M
676.515	1.6	763136	WORD	n/a	wordpools/wordpool_short_EN.txt	FROG	6	5	[0, 0, 0]	n/a	FR1	1	R1377M
678.115	0.767	764748	WORD_OFF	n/a	n/a	FROG	6	5	[0, 0, 0]	n/a	FR1	1	R1377M
678.882	1.617	765506	WORD	n/a	wordpools/wordpool_short_EN.txt	CUP	7	5	[0, 0, 0]	n/a	FR1	1	R1377M
680.499	0.983	767132	WORD_OFF	n/a	n/a	CUP	7	5	[0, 0, 0]	n/a	FR1	1	R1377M
681.482	1.617	768110	WORD	n/a	wordpools/wordpool_short_EN.txt	GUN	8	5	[0, 0, 0]	n/a	FR1	1	R1377M
683.099	0.883	769722	WORD_OFF	n/a	n/a	GUN	8	5	[0, 0, 0]	n/a	FR1	1	R1377M
683.982	1.6	770604	WORD	n/a	wordpools/wordpool_short_EN.txt	HAT	9	5	[0, 0, 0]	n/a	FR1	1	R1377M
685.582	0.983	772202	WORD_OFF	n/a	n/a	HAT	9	5	[0, 0, 0]	n/a	FR1	1	R1377M
686.565	1.6	773194	WORD	n/a	wordpools/wordpool_short_EN.txt	LAWN	10	5	[0, 0, 0]	n/a	FR1	1	R1377M
688.165	0.85	774792	WORD_OFF	n/a	n/a	LAWN	10	5	[0, 0, 0]	n/a	FR1	1	R1377M
689.015	1.616	775646	WORD	n/a	wordpools/wordpool_short_EN.txt	WORLD	11	5	[0, 0, 0]	n/a	FR1	1	R1377M
690.631	0.784	777258	WORD_OFF	n/a	n/a	WORLD	11	5	[0, 0, 0]	n/a	FR1	1	R1377M
691.415	1.601	778044	WORD	n/a	wordpools/wordpool_short_EN.txt	HOOF	12	5	[0, 0, 0]	n/a	FR1	1	R1377M
693.016	0.001	779640	PROB	0.001	n/a	n/a	-999	5	[7, 6, 4]	17	FR1	1	R1377M
693.017	0.0	779641	START	n/a	n/a	n/a	-999	5	[-999, -999, -999]	n/a	FR1	1	R1377M
693.015	0.002	779642	WORD_OFF	n/a	n/a	HOOF	12	5	[0, 0, 0]	n/a	FR1	1	R1377M
693.017	0.0	779642	ENCODING_END	n/a	n/a	n/a	-999	5	[0, 0, 0]	n/a	FR1	1	R1377M
693.017	7.998	779642	DISTRACT_START	n/a	n/a	n/a	-999	5	[0, 0, 0]	n/a	FR1	1	R1377M
701.015	5.301	787639	PROB	5.301	n/a	n/a	-999	5	[7, 7, 8]	22	FR1	1	R1377M
706.316	5.566	792939	PROB	5.566	n/a	n/a	-999	5	[7, 7, 4]	18	FR1	1	R1377M
711.882	4.25	798505	PROB	4.25	n/a	n/a	-999	5	[4, 4, 1]	9	FR1	1	R1377M
716.132	0.0	802755	STOP	n/a	n/a	n/a	-999	5	[-999, -999, -999]	n/a	FR1	1	R1377M
716.132	1.316	802761	DISTRACT_END	n/a	n/a	n/a	-999	5	[0, 0, 0]	n/a	FR1	1	R1377M
717.448	3.733	804070	REC_START	n/a	n/a	n/a	-999	5	[0, 0, 0]	n/a	FR1	1	R1377M
721.181	0.502	807804	REC_WORD	0.502	n/a	LEAF	1	5	[0, 0, 0]	n/a	FR1	1	R1377M
721.683	0.51	808306	REC_WORD	0.51	n/a	GATE	3	5	[0, 0, 0]	n/a	FR1	1	R1377M
722.193	0.678	808816	REC_WORD	0.678	n/a	HEART	4	5	[0, 0, 0]	n/a	FR1	1	R1377M
722.871	0.732	809494	REC_WORD	0.732	n/a	SOCK	5	5	[0, 0, 0]	n/a	FR1	1	R1377M
723.603	8.818	810226	REC_WORD	8.818	n/a	FROG	6	5	[0, 0, 0]	n/a	FR1	1	R1377M
732.421	1.0	819043	REC_WORD_VV	1.0	n/a	<>	-999	5	[0, 0, 0]	n/a	FR1	1	R1377M
733.421	3.248	820043	REC_WORD_VV	3.248	n/a	<>	-999	5	[0, 0, 0]	n/a	FR1	1	R1377M
736.669	11.037	823291	REC_WORD_VV	11.037	n/a	<>	-999	5	[0, 0, 0]	n/a	FR1	1	R1377M
747.706	1.809	834326	REC_END	n/a	n/a	n/a	-999	5	[0, 0, 0]	n/a	FR1	1	R1377M
749.515	10.351	836145	COUNTDOWN_START	n/a	n/a	n/a	-999	6	[0, 0, 0]	n/a	FR1	1	R1377M
759.866	0.0	846492	COUNTDOWN_END	n/a	n/a	n/a	-999	6	[0, 0, 0]	n/a	FR1	1	R1377M
759.866	1.966	846492	ENCODING_START	n/a	n/a	n/a	-999	6	[0, 0, 0]	n/a	FR1	1	R1377M
761.832	1.617	848448	WORD	n/a	wordpools/wordpool_short_EN.txt	TOAD	1	6	[0, 0, 0]	n/a	FR1	1	R1377M
763.449	0.766	850074	WORD_OFF	n/a	n/a	TOAD	1	6	[0, 0, 0]	n/a	FR1	1	R1377M
764.215	1.6	850832	WORD	n/a	wordpools/wordpool_short_EN.txt	YARD	2	6	[0, 0, 0]	n/a	FR1	1	R1377M
765.815	0.784	852444	WORD_OFF	n/a	n/a	YARD	2	6	[0, 0, 0]	n/a	FR1	1	R1377M
766.599	1.6	853215	WORD	n/a	wordpools/wordpool_short_EN.txt	WHEEL	3	6	[0, 0, 0]	n/a	FR1	1	R1377M
768.199	0.916	854827	WORD_OFF	n/a	n/a	WHEEL	3	6	[0, 0, 0]	n/a	FR1	1	R1377M
769.115	1.6	855737	WORD	n/a	wordpools/wordpool_short_EN.txt	SACK	4	6	[0, 0, 0]	n/a	FR1	1	R1377M
770.715	0.983	857335	WORD_OFF	n/a	n/a	SACK	4	6	[0, 0, 0]	n/a	FR1	1	R1377M
771.698	1.6	858327	WORD	n/a	wordpools/wordpool_short_EN.txt	GOWN	5	6	[0, 0, 0]	n/a	FR1	1	R1377M
773.298	1.001	859925	WORD_OFF	n/a	n/a	GOWN	5	6	[0, 0, 0]	n/a	FR1	1	R1377M
774.299	1.616	860917	WORD	n/a	wordpools/wordpool_short_EN.txt	CREAM	6	6	[0, 0, 0]	n/a	FR1	1	R1377M
775.915	0.834	862543	WORD_OFF	n/a	n/a	CREAM	6	6	[0, 0, 0]	n/a	FR1	1	R1377M
776.749	1.616	863369	WORD	n/a	wordpools/wordpool_short_EN.txt	CLOWN	7	6	[0, 0, 0]	n/a	FR1	1	R1377M
778.365	0.984	864981	WORD_OFF	n/a	n/a	CLOWN	7	6	[0, 0, 0]	n/a	FR1	1	R1377M
779.349	1.6	865973	WORD	n/a	wordpools/wordpool_short_EN.txt	ROPE	8	6	[0, 0, 0]	n/a	FR1	1	R1377M
780.949	0.866	867572	WORD_OFF	n/a	n/a	ROPE	8	6	[0, 0, 0]	n/a	FR1	1	R1377M
781.815	1.617	868440	WORD	n/a	wordpools/wordpool_short_EN.txt	CURB	9	6	[0, 0, 0]	n/a	FR1	1	R1377M
783.432	0.983	870052	WORD_OFF	n/a	n/a	CURB	9	6	[0, 0, 0]	n/a	FR1	1	R1377M
784.415	1.617	871030	WORD	n/a	wordpools/wordpool_short_EN.txt	BRANCH	10	6	[0, 0, 0]	n/a	FR1	1	R1377M
786.032	0.85	872656	WORD_OFF	n/a	n/a	BRANCH	10	6	[0, 0, 0]	n/a	FR1	1	R1377M
786.882	1.6	873510	WORD	n/a	wordpools/wordpool_short_EN.txt	CHEEK	11	6	[0, 0, 0]	n/a	FR1	1	R1377M
788.482	0.966	875108	WORD_OFF	n/a	n/a	CHEEK	11	6	[0, 0, 0]	n/a	FR1	1	R1377M
789.448	1.601	876073	WORD	n/a	wordpools/wordpool_short_EN.txt	JUDGE	12	6	[0, 0, 0]	n/a	FR1	1	R1377M
791.049	0.0	877669	PROB	0.0	n/a	n/a	-999	6	[4, 7, 7]	18	FR1	1	R1377M
791.049	0.0	877669	START	n/a	n/a	n/a	-999	6	[-999, -999, -999]	n/a	FR1	1	R1377M
791.048	0.001	877671	WORD_OFF	n/a	n/a	JUDGE	12	6	[0, 0, 0]	n/a	FR1	1	R1377M
791.049	0.0	877671	ENCODING_END	n/a	n/a	n/a	-999	6	[0, 0, 0]	n/a	FR1	1	R1377M
791.049	6.333	877671	DISTRACT_START	n/a	n/a	n/a	-999	6	[0, 0, 0]	n/a	FR1	1	R1377M
797.382	4.417	884001	PROB	4.417	n/a	n/a	-999	6	[6, 7, 6]	19	FR1	1	R1377M
801.799	4.999	888418	PROB	4.999	n/a	n/a	-999	6	[5, 2, 2]	9	FR1	1	R1377M
806.798	7.0	893417	PROB	7.0	n/a	n/a	-999	6	[4, 7, 7]	18	FR1	1	R1377M
813.798	0.0	900417	STOP	n/a	n/a	n/a	-999	6	[-999, -999, -999]	n/a	FR1	1	R1377M
813.798	1.283	900418	DISTRACT_END	n/a	n/a	n/a	-999	6	[0, 0, 0]	n/a	FR1	1	R1377M
815.081	1.12	901699	REC_START	n/a	n/a	n/a	-999	6	[0, 0, 0]	n/a	FR1	1	R1377M
816.201	3.212	902819	REC_WORD_VV	3.212	n/a	<>	-999	6	[0, 0, 0]	n/a	FR1	1	R1377M
819.413	0.722	906031	REC_WORD	0.722	n/a	TOAD	1	6	[0, 0, 0]	n/a	FR1	1	R1377M
820.135	1.274	906753	REC_WORD	1.274	n/a	YARD	2	6	[0, 0, 0]	n/a	FR1	1	R1377M
821.409	1.419	908027	REC_WORD	1.419	n/a	WHEEL	3	6	[0, 0, 0]	n/a	FR1	1	R1377M
822.828	1.215	909446	REC_WORD	1.215	n/a	SACK	4	6	[0, 0, 0]	n/a	FR1	1	R1377M
824.043	2.129	910661	REC_WORD	2.129	n/a	GOWN	5	6	[0, 0, 0]	n/a	FR1	1	R1377M
826.172	2.007	912790	REC_WORD	2.007	n/a	CREAM	6	6	[0, 0, 0]	n/a	FR1	1	R1377M
828.179	7.342	914797	REC_WORD	7.342	n/a	CLOWN	7	6	[0, 0, 0]	n/a	FR1	1	R1377M
835.521	5.438	922139	REC_WORD_VV	5.438	n/a	<>	-999	6	[0, 0, 0]	n/a	FR1	1	R1377M
840.959	4.345	927576	REC_WORD_VV	4.345	n/a	<>	-999	6	[0, 0, 0]	n/a	FR1	1	R1377M
845.304	12.977	931928	REC_END	n/a	n/a	n/a	-999	6	[0, 0, 0]	n/a	FR1	1	R1377M
858.281	10.352	944906	COUNTDOWN_START	n/a	n/a	n/a	-999	7	[0, 0, 0]	n/a	FR1	1	R1377M
868.633	0.0	955253	COUNTDOWN_END	n/a	n/a	n/a	-999	7	[0, 0, 0]	n/a	FR1	1	R1377M
868.633	2.066	955253	ENCODING_START	n/a	n/a	n/a	-999	7	[0, 0, 0]	n/a	FR1	1	R1377M
870.699	1.616	957320	WORD	n/a	wordpools/wordpool_short_EN.txt	SHIP	1	7	[0, 0, 0]	n/a	FR1	1	R1377M
872.315	0.966	958932	WORD_OFF	n/a	n/a	SHIP	1	7	[0, 0, 0]	n/a	FR1	1	R1377M
873.281	1.601	959896	WORD	n/a	wordpools/wordpool_short_EN.txt	BRUSH	2	7	[0, 0, 0]	n/a	FR1	1	R1377M
874.882	0.948	961495	WORD_OFF	n/a	n/a	BRUSH	2	7	[0, 0, 0]	n/a	FR1	1	R1377M
875.83	1.602	962445	WORD	n/a	wordpools/wordpool_short_EN.txt	SUN	3	7	[0, 0, 0]	n/a	FR1	1	R1377M
877.432	0.883	964044	WORD_OFF	n/a	n/a	SUN	3	7	[0, 0, 0]	n/a	FR1	1	R1377M
878.315	1.617	964939	WORD	n/a	wordpools/wordpool_short_EN.txt	SOIL	4	7	[0, 0, 0]	n/a	FR1	1	R1377M
879.932	0.849	966551	WORD_OFF	n/a	n/a	SOIL	4	7	[0, 0, 0]	n/a	FR1	1	R1377M
880.781	1.601	967405	WORD	n/a	wordpools/wordpool_short_EN.txt	PEARL	5	7	[0, 0, 0]	n/a	FR1	1	R1377M
882.382	0.767	969004	WORD_OFF	n/a	n/a	PEARL	5	7	[0, 0, 0]	n/a	FR1	1	R1377M
883.149	1.616	969761	WORD	n/a	wordpools/wordpool_short_EN.txt	SNAIL	6	7	[0, 0, 0]	n/a	FR1	1	R1377M
884.765	0.917	971387	WORD_OFF	n/a	n/a	SNAIL	6	7	[0, 0, 0]	n/a	FR1	1	R1377M
885.682	1.6	972296	WORD	n/a	wordpools/wordpool_short_EN.txt	PEA	7	7	[0, 0, 0]	n/a	FR1	1	R1377M
887.282	0.766	973895	WORD_OFF	n/a	n/a	PEA	7	7	[0, 0, 0]	n/a	FR1	1	R1377M
888.048	1.6	974666	WORD	n/a	wordpools/wordpool_short_EN.txt	STEAK	8	7	[0, 0, 0]	n/a	FR1	1	R1377M
889.648	1.0	976264	WORD_OFF	n/a	n/a	STEAK	8	7	[0, 0, 0]	n/a	FR1	1	R1377M
890.648	1.6	977270	WORD	n/a	wordpools/wordpool_short_EN.txt	CUBE	9	7	[0, 0, 0]	n/a	FR1	1	R1377M
892.248	0.833	978868	WORD_OFF	n/a	n/a	CUBE	9	7	[0, 0, 0]	n/a	FR1	1	R1377M
893.081	1.6	979695	WORD	n/a	wordpools/wordpool_short_EN.txt	SAUCE	10	7	[0, 0, 0]	n/a	FR1	1	R1377M
894.681	0.95	981293	WORD_OFF	n/a	n/a	SAUCE	10	7	[0, 0, 0]	n/a	FR1	1	R1377M
895.631	1.6	982244	WORD	n/a	wordpools/wordpool_short_EN.txt	HILL	11	7	[0, 0, 0]	n/a	FR1	1	R1377M
897.231	0.834	983842	WORD_OFF	n/a	n/a	HILL	11	7	[0, 0, 0]	n/a	FR1	1	R1377M
898.065	1.6	984683	WORD	n/a	wordpools/wordpool_short_EN.txt	FORT	12	7	[0, 0, 0]	n/a	FR1	1	R1377M
899.665	0.0	986280	PROB	0.0	n/a	n/a	-999	7	[2, 3, 7]	12	FR1	1	R1377M
899.665	0.001	986281	WORD_OFF	n/a	n/a	FORT	12	7	[0, 0, 0]	n/a	FR1	1	R1377M
899.666	0.0	986281	ENCODING_END	n/a	n/a	n/a	-999	7	[0, 0, 0]	n/a	FR1	1	R1377M
899.666	0.0	986281	DISTRACT_START	n/a	n/a	n/a	-999	7	[0, 0, 0]	n/a	FR1	1	R1377M
899.666	6.699	986281	START	n/a	n/a	n/a	-999	7	[-999, -999, -999]	n/a	FR1	1	R1377M
906.365	3.917	992979	PROB	3.917	n/a	n/a	-999	7	[6, 4, 7]	17	FR1	1	R1377M
910.282	2.733	996896	PROB	2.733	n/a	n/a	-999	7	[1, 7, 1]	9	FR1	1	R1377M
913.015	9.516	999629	PROB	9.516	n/a	n/a	-999	7	[5, 7, 8]	20	FR1	1	R1377M
922.531	0.0	1009145	STOP	n/a	n/a	n/a	-999	7	[-999, -999, -999]	n/a	FR1	1	R1377M
922.531	1.218	1009152	DISTRACT_END	n/a	n/a	n/a	-999	7	[0, 0, 0]	n/a	FR1	1	R1377M
923.749	3.751	1010364	REC_START	n/a	n/a	n/a	-999	7	[0, 0, 0]	n/a	FR1	1	R1377M
927.5	0.676	1014113	REC_WORD	0.676	n/a	SHIP	1	7	[0, 0, 0]	n/a	FR1	1	R1377M
928.176	0.473	1014789	REC_WORD	0.473	n/a	BRUSH	2	7	[0, 0, 0]	n/a	FR1	1	R1377M
928.649	1.412	1015262	REC_WORD	1.412	n/a	SUN	3	7	[0, 0, 0]	n/a	FR1	1	R1377M
930.061	2.235	1016674	REC_WORD	2.235	n/a	SOIL	4	7	[0, 0, 0]	n/a	FR1	1	R1377M
932.296	2.367	1018909	REC_WORD	2.367	n/a	SNAIL	6	7	[0, 0, 0]	n/a	FR1	1	R1377M
934.663	1.03	1021276	REC_WORD	1.03	n/a	PEARL	5	7	[0, 0, 0]	n/a	FR1	1	R1377M
935.693	4.881	1022306	REC_WORD	4.881	n/a	PEA	7	7	[0, 0, 0]	n/a	FR1	1	R1377M
940.574	10.906	1027187	REC_WORD_VV	10.906	n/a	<>	-999	7	[0, 0, 0]	n/a	FR1	1	R1377M
951.48	2.503	1038092	REC_WORD_VV	2.503	n/a	<>	-999	7	[0, 0, 0]	n/a	FR1	1	R1377M
953.983	3.749	1040593	REC_END	n/a	n/a	n/a	-999	7	[0, 0, 0]	n/a	FR1	1	R1377M
957.732	10.35	1044354	COUNTDOWN_START	n/a	n/a	n/a	-999	8	[0, 0, 0]	n/a	FR1	1	R1377M
968.082	0.001	1054701	COUNTDOWN_END	n/a	n/a	n/a	-999	8	[0, 0, 0]	n/a	FR1	1	R1377M
968.083	2.015	1054701	ENCODING_START	n/a	n/a	n/a	-999	8	[0, 0, 0]	n/a	FR1	1	R1377M
970.098	1.6	1056713	WORD	n/a	wordpools/wordpool_short_EN.txt	SHED	1	8	[0, 0, 0]	n/a	FR1	1	R1377M
971.698	0.8	1058311	WORD_OFF	n/a	n/a	SHED	1	8	[0, 0, 0]	n/a	FR1	1	R1377M
972.498	1.6	1059110	WORD	n/a	wordpools/wordpool_short_EN.txt	LAND	2	8	[0, 0, 0]	n/a	FR1	1	R1377M
974.098	0.917	1060708	WORD_OFF	n/a	n/a	LAND	2	8	[0, 0, 0]	n/a	FR1	1	R1377M
975.015	1.6	1061631	WORD	n/a	wordpools/wordpool_short_EN.txt	SMILE	3	8	[0, 0, 0]	n/a	FR1	1	R1377M
976.615	0.816	1063230	WORD_OFF	n/a	n/a	SMILE	3	8	[0, 0, 0]	n/a	FR1	1	R1377M
977.431	1.6	1064043	WORD	n/a	wordpools/wordpool_short_EN.txt	STICK	4	8	[0, 0, 0]	n/a	FR1	1	R1377M
979.031	1.0	1065641	WORD_OFF	n/a	n/a	STICK	4	8	[0, 0, 0]	n/a	FR1	1	R1377M
980.031	1.6	1066647	WORD	n/a	wordpools/wordpool_short_EN.txt	DOCK	5	8	[0, 0, 0]	n/a	FR1	1	R1377M
981.631	0.817	1068245	WORD_OFF	n/a	n/a	DOCK	5	8	[0, 0, 0]	n/a	FR1	1	R1377M
982.448	1.6	1069058	WORD	n/a	wordpools/wordpool_short_EN.txt	JAW	6	8	[0, 0, 0]	n/a	FR1	1	R1377M
984.048	0.783	1070656	WORD_OFF	n/a	n/a	JAW	6	8	[0, 0, 0]	n/a	FR1	1	R1377M
984.831	1.617	1071441	WORD	n/a	wordpools/wordpool_short_EN.txt	COAL	7	8	[0, 0, 0]	n/a	FR1	1	R1377M
986.448	0.783	1073067	WORD_OFF	n/a	n/a	COAL	7	8	[0, 0, 0]	n/a	FR1	1	R1377M
987.231	1.617	1073839	WORD	n/a	wordpools/wordpool_short_EN.txt	SOAP	8	8	[0, 0, 0]	n/a	FR1	1	R1377M
988.848	0.9	1075464	WORD_OFF	n/a	n/a	SOAP	8	8	[0, 0, 0]	n/a	FR1	1	R1377M
989.748	1.616	1076360	WORD	n/a	wordpools/wordpool_short_EN.txt	LANE	9	8	[0, 0, 0]	n/a	FR1	1	R1377M
991.364	0.933	1077972	WORD_OFF	n/a	n/a	LANE	9	8	[0, 0, 0]	n/a	FR1	1	R1377M
992.297	1.601	1078909	WORD	n/a	wordpools/wordpool_short_EN.txt	NURSE	10	8	[0, 0, 0]	n/a	FR1	1	R1377M
993.898	0.783	1080507	WORD_OFF	n/a	n/a	NURSE	10	8	[0, 0, 0]	n/a	FR1	1	R1377M
994.681	1.6	1081292	WORD	n/a	wordpools/wordpool_short_EN.txt	STOOL	11	8	[0, 0, 0]	n/a	FR1	1	R1377M
996.281	0.917	1082891	WORD_OFF	n/a	n/a	STOOL	11	8	[0, 0, 0]	n/a	FR1	1	R1377M
997.198	1.6	1083814	WORD	n/a	wordpools/wordpool_short_EN.txt	FARM	12	8	[0, 0, 0]	n/a	FR1	1	R1377M
998.798	0.001	1085408	PROB	0.001	n/a	n/a	-999	8	[8, 2, 6]	16	FR1	1	R1377M
998.799	0.0	1085409	START	n/a	n/a	n/a	-999	8	[-999, -999, -999]	n/a	FR1	1	R1377M
998.798	0.001	1085412	WORD_OFF	n/a	n/a	FARM	12	8	[0, 0, 0]	n/a	FR1	1	R1377M
998.799	0.0	1085412	ENCODING_END	n/a	n/a	n/a	-999	8	[0, 0, 0]	n/a	FR1	1	R1377M
998.799	5.267	1085412	DISTRACT_START	n/a	n/a	n/a	-999	8	[0, 0, 0]	n/a	FR1	1	R1377M
1004.066	4.616	1090676	PROB	4.616	n/a	n/a	-999	8	[2, 6, 4]	12	FR1	1	R1377M
1008.682	2.651	1095292	PROB	2.651	n/a	n/a	-999	8	[6, 2, 1]	9	FR1	1	R1377M
1011.333	8.882	1097942	PROB	8.882	n/a	n/a	-999	8	[8, 7, 7]	22	FR1	1	R1377M
1020.215	0.0	1106823	DISTRACT_END	n/a	n/a	n/a	-999	8	[0, 0, 0]	n/a	FR1	1	R1377M
1020.215	1.134	1106824	STOP	n/a	n/a	n/a	-999	8	[-999, -999, -999]	n/a	FR1	1	R1377M
1021.349	3.892	1107966	REC_START	n/a	n/a	n/a	-999	8	[0, 0, 0]	n/a	FR1	1	R1377M
1025.241	0.826	1111850	REC_WORD	0.826	n/a	LAND	2	8	[0, 0, 0]	n/a	FR1	1	R1377M
1026.067	1.01	1112676	REC_WORD	1.01	n/a	SMILE	3	8	[0, 0, 0]	n/a	FR1	1	R1377M
1027.077	1.37	1113686	REC_WORD	1.37	n/a	STICK	4	8	[0, 0, 0]	n/a	FR1	1	R1377M
1028.447	1.207	1115056	REC_WORD	1.207	n/a	DOCK	5	8	[0, 0, 0]	n/a	FR1	1	R1377M
1029.654	2.283	1116263	REC_WORD	2.283	n/a	JAW	6	8	[0, 0, 0]	n/a	FR1	1	R1377M
1031.937	2.179	1118545	REC_WORD	2.179	n/a	LANE	9	8	[0, 0, 0]	n/a	FR1	1	R1377M
1034.116	6.282	1120724	REC_WORD	6.282	n/a	PEARL	-999	8	[0, 0, 0]	n/a	FR1	1	R1377M
1040.398	3.423	1127006	REC_WORD_VV	3.423	n/a	<>	-999	8	[0, 0, 0]	n/a	FR1	1	R1377M
1043.821	0.484	1130429	REC_WORD	0.484	n/a	STICK	4	8	[0, 0, 0]	n/a	FR1	1	R1377M
1044.305	7.279	1130913	REC_WORD_VV	7.279	n/a	<>	-999	8	[0, 0, 0]	n/a	FR1	1	R1377M
1051.584	11.598	1138195	REC_END	n/a	n/a	n/a	-999	8	[0, 0, 0]	n/a	FR1	1	R1377M
1063.182	10.35	1149795	COUNTDOWN_START	n/a	n/a	n/a	-999	9	[0, 0, 0]	n/a	FR1	1	R1377M
1073.532	0.001	1160142	COUNTDOWN_END	n/a	n/a	n/a	-999	9	[0, 0, 0]	n/a	FR1	1	R1377M
1073.533	2.082	1160142	ENCODING_START	n/a	n/a	n/a	-999	9	[0, 0, 0]	n/a	FR1	1	R1377M
1075.615	1.6	1162223	WORD	n/a	wordpools/wordpool_short_EN.txt	NAIL	1	9	[0, 0, 0]	n/a	FR1	1	R1377M
1077.215	0.817	1163821	WORD_OFF	n/a	n/a	NAIL	1	9	[0, 0, 0]	n/a	FR1	1	R1377M
1078.032	1.6	1164634	WORD	n/a	wordpools/wordpool_short_EN.txt	SAIL	2	9	[0, 0, 0]	n/a	FR1	1	R1377M
1079.632	0.833	1166246	WORD_OFF	n/a	n/a	SAIL	2	9	[0, 0, 0]	n/a	FR1	1	R1377M
1080.465	1.6	1167073	WORD	n/a	wordpools/wordpool_short_EN.txt	VINE	3	9	[0, 0, 0]	n/a	FR1	1	R1377M
1082.065	0.999	1168671	WORD_OFF	n/a	n/a	VINE	3	9	[0, 0, 0]	n/a	FR1	1	R1377M
1083.064	1.6	1169677	WORD	n/a	wordpools/wordpool_short_EN.txt	DIME	4	9	[0, 0, 0]	n/a	FR1	1	R1377M
1084.664	0.784	1171275	WORD_OFF	n/a	n/a	DIME	4	9	[0, 0, 0]	n/a	FR1	1	R1377M
1085.448	1.6	1172060	WORD	n/a	wordpools/wordpool_short_EN.txt	GLOBE	5	9	[0, 0, 0]	n/a	FR1	1	R1377M
1087.048	0.933	1173658	WORD_OFF	n/a	n/a	GLOBE	5	9	[0, 0, 0]	n/a	FR1	1	R1377M
1087.981	1.601	1174595	WORD	n/a	wordpools/wordpool_short_EN.txt	FRUIT	6	9	[0, 0, 0]	n/a	FR1	1	R1377M
1089.582	0.95	1176194	WORD_OFF	n/a	n/a	FRUIT	6	9	[0, 0, 0]	n/a	FR1	1	R1377M
1090.532	1.6	1177144	WORD	n/a	wordpools/wordpool_short_EN.txt	MEN	7	9	[0, 0, 0]	n/a	FR1	1	R1377M
1092.132	0.967	1178742	WORD_OFF	n/a	n/a	MEN	7	9	[0, 0, 0]	n/a	FR1	1	R1377M
1093.099	1.616	1179707	WORD	n/a	wordpools/wordpool_short_EN.txt	KNOB	8	9	[0, 0, 0]	n/a	FR1	1	R1377M
1094.715	0.766	1181319	WORD_OFF	n/a	n/a	KNOB	8	9	[0, 0, 0]	n/a	FR1	1	R1377M
1095.481	1.601	1182090	WORD	n/a	wordpools/wordpool_short_EN.txt	BEAK	9	9	[0, 0, 0]	n/a	FR1	1	R1377M
1097.082	1.0	1183689	WORD_OFF	n/a	n/a	BEAK	9	9	[0, 0, 0]	n/a	FR1	1	R1377M
1098.082	1.6	1184694	WORD	n/a	wordpools/wordpool_short_EN.txt	TOOL	10	9	[0, 0, 0]	n/a	FR1	1	R1377M
1099.682	0.766	1186293	WORD_OFF	n/a	n/a	TOOL	10	9	[0, 0, 0]	n/a	FR1	1	R1377M
1100.448	1.6	1187050	WORD	n/a	wordpools/wordpool_short_EN.txt	WAND	11	9	[0, 0, 0]	n/a	FR1	1	R1377M
1102.048	0.784	1188662	WORD_OFF	n/a	n/a	WAND	11	9	[0, 0, 0]	n/a	FR1	1	R1377M
1102.832	1.6	1189434	WORD	n/a	wordpools/wordpool_short_EN.txt	TIE	12	9	[0, 0, 0]	n/a	FR1	1	R1377M
1104.432	0.0	1191032	WORD_OFF	n/a	n/a	TIE	12	9	[0, 0, 0]	n/a	FR1	1	R1377M
1104.432	0.001	1191037	PROB	0.001	n/a	n/a	-999	9	[8, 3, 1]	12	FR1	1	R1377M
1104.433	0.0	1191038	START	n/a	n/a	n/a	-999	9	[-999, -999, -999]	n/a	FR1	1	R1377M
1104.433	0.0	1191046	ENCODING_END	n/a	n/a	n/a	-999	9	[0, 0, 0]	n/a	FR1	1	R1377M
1104.433	6.366	1191046	DISTRACT_START	n/a	n/a	n/a	-999	9	[0, 0, 0]	n/a	FR1	1	R1377M
1110.799	4.65	1197404	PROB	4.65	n/a	n/a	-999	9	[5, 5, 8]	18	FR1	1	R1377M
1115.449	4.617	1202054	PROB	4.617	n/a	n/a	-999	9	[4, 6, 5]	15	FR1	1	R1377M
1120.066	3.983	1206670	PROB	3.983	n/a	n/a	-999	9	[2, 2, 8]	12	FR1	1	R1377M
1124.049	8.701	1210653	PROB	8.701	n/a	n/a	-999	9	[4, 8, 1]	13	FR1	1	R1377M
1132.75	0.0	1219354	STOP	n/a	n/a	n/a	-999	9	[-999, -999, -999]	n/a	FR1	1	R1377M
1132.75	1.298	1219359	DISTRACT_END	n/a	n/a	n/a	-999	9	[0, 0, 0]	n/a	FR1	1	R1377M
1134.048	5.144	1220654	REC_START	n/a	n/a	n/a	-999	9	[0, 0, 0]	n/a	FR1	1	R1377M
1139.192	0.39	1225796	REC_WORD	0.39	n/a	NAIL	1	9	[0, 0, 0]	n/a	FR1	1	R1377M
1139.582	0.645	1226186	REC_WORD	0.645	n/a	FRUIT	6	9	[0, 0, 0]	n/a	FR1	1	R1377M
1140.227	0.741	1226830	REC_WORD	0.741	n/a	VINE	3	9	[0, 0, 0]	n/a	FR1	1	R1377M
1140.968	1.415	1227571	REC_WORD	1.415	n/a	DIME	4	9	[0, 0, 0]	n/a	FR1	1	R1377M
1142.383	2.394	1228986	REC_WORD	2.394	n/a	GLOBE	5	9	[0, 0, 0]	n/a	FR1	1	R1377M
1144.777	2.544	1231380	REC_WORD	2.544	n/a	MEN	7	9	[0, 0, 0]	n/a	FR1	1	R1377M
1147.321	7.223	1233924	REC_WORD_VV	7.223	n/a	<>	-999	9	[0, 0, 0]	n/a	FR1	1	R1377M
1154.544	0.545	1241147	REC_WORD_VV	0.545	n/a	<>	-999	9	[0, 0, 0]	n/a	FR1	1	R1377M
1155.089	0.32	1241692	REC_WORD	0.32	n/a	PEARL	-999	9	[0, 0, 0]	n/a	FR1	1	R1377M
1155.409	1.0	1242012	REC_WORD_VV	1.0	n/a	<>	-999	9	[0, 0, 0]	n/a	FR1	1	R1377M
1156.409	1.0	1243012	REC_WORD_VV	1.0	n/a	<>	-999	9	[0, 0, 0]	n/a	FR1	1	R1377M
1157.409	1.0	1244012	REC_WORD_VV	1.0	n/a	<>	-999	9	[0, 0, 0]	n/a	FR1	1	R1377M
1158.409	1.116	1245012	REC_WORD_VV	1.116	n/a	<>	-999	9	[0, 0, 0]	n/a	FR1	1	R1377M
1159.525	1.002	1246128	REC_WORD_VV	1.002	n/a	<>	-999	9	[0, 0, 0]	n/a	FR1	1	R1377M
1160.527	1.0	1247130	REC_WORD_VV	1.0	n/a	<>	-999	9	[0, 0, 0]	n/a	FR1	1	R1377M
1161.527	2.761	1248130	REC_WORD_VV	2.761	n/a	<>	-999	9	[0, 0, 0]	n/a	FR1	1	R1377M
1164.288	30.394	1250897	REC_END	n/a	n/a	n/a	-999	9	[0, 0, 0]	n/a	FR1	1	R1377M
1194.682	10.35	1281290	COUNTDOWN_START	n/a	n/a	n/a	-999	10	[0, 0, 0]	n/a	FR1	1	R1377M
1205.032	0.001	1291637	COUNTDOWN_END	n/a	n/a	n/a	-999	10	[0, 0, 0]	n/a	FR1	1	R1377M
1205.033	2.249	1291637	ENCODING_START	n/a	n/a	n/a	-999	10	[0, 0, 0]	n/a	FR1	1	R1377M
1207.282	1.6	1293883	WORD	n/a	wordpools/wordpool_short_EN.txt	STAR	1	10	[0, 0, 0]	n/a	FR1	1	R1377M
1208.882	0.983	1295481	WORD_OFF	n/a	n/a	STAR	1	10	[0, 0, 0]	n/a	FR1	1	R1377M
1209.865	1.6	1296473	WORD	n/a	wordpools/wordpool_short_EN.txt	BUSH	2	10	[0, 0, 0]	n/a	FR1	1	R1377M
1211.465	0.95	1298072	WORD_OFF	n/a	n/a	BUSH	2	10	[0, 0, 0]	n/a	FR1	1	R1377M
1212.415	1.616	1299022	WORD	n/a	wordpools/wordpool_short_EN.txt	OIL	3	10	[0, 0, 0]	n/a	FR1	1	R1377M
1214.031	0.884	1300634	WORD_OFF	n/a	n/a	OIL	3	10	[0, 0, 0]	n/a	FR1	1	R1377M
1214.915	1.617	1301516	WORD	n/a	wordpools/wordpool_short_EN.txt	CRANE	4	10	[0, 0, 0]	n/a	FR1	1	R1377M
1216.532	0.817	1303128	WORD_OFF	n/a	n/a	CRANE	4	10	[0, 0, 0]	n/a	FR1	1	R1377M
1217.349	1.6	1303955	WORD	n/a	wordpools/wordpool_short_EN.txt	SKI	5	10	[0, 0, 0]	n/a	FR1	1	R1377M
1218.949	0.966	1305553	WORD_OFF	n/a	n/a	SKI	5	10	[0, 0, 0]	n/a	FR1	1	R1377M
1219.915	1.617	1306517	WORD	n/a	wordpools/wordpool_short_EN.txt	CORD	6	10	[0, 0, 0]	n/a	FR1	1	R1377M
1221.532	0.966	1308129	WORD_OFF	n/a	n/a	CORD	6	10	[0, 0, 0]	n/a	FR1	1	R1377M
1222.498	1.617	1309094	WORD	n/a	wordpools/wordpool_short_EN.txt	SEA	7	10	[0, 0, 0]	n/a	FR1	1	R1377M
1224.115	0.833	1310720	WORD_OFF	n/a	n/a	SEA	7	10	[0, 0, 0]	n/a	FR1	1	R1377M
1224.948	1.6	1311546	WORD	n/a	wordpools/wordpool_short_EN.txt	BEEF	8	10	[0, 0, 0]	n/a	FR1	1	R1377M
1226.548	0.884	1313145	WORD_OFF	n/a	n/a	BEEF	8	10	[0, 0, 0]	n/a	FR1	1	R1377M
1227.432	1.6	1314026	WORD	n/a	wordpools/wordpool_short_EN.txt	ASH	9	10	[0, 0, 0]	n/a	FR1	1	R1377M
1229.032	0.766	1315638	WORD_OFF	n/a	n/a	ASH	9	10	[0, 0, 0]	n/a	FR1	1	R1377M
1229.798	1.6	1316396	WORD	n/a	wordpools/wordpool_short_EN.txt	PILL	10	10	[0, 0, 0]	n/a	FR1	1	R1377M
1231.398	0.983	1317994	WORD_OFF	n/a	n/a	PILL	10	10	[0, 0, 0]	n/a	FR1	1	R1377M
1232.381	1.617	1318986	WORD	n/a	wordpools/wordpool_short_EN.txt	MAZE	11	10	[0, 0, 0]	n/a	FR1	1	R1377M
1233.998	0.85	1320598	WORD_OFF	n/a	n/a	MAZE	11	10	[0, 0, 0]	n/a	FR1	1	R1377M
1234.848	1.601	1321453	WORD	n/a	wordpools/wordpool_short_EN.txt	RAT	12	10	[0, 0, 0]	n/a	FR1	1	R1377M
1236.449	0.0	1323048	START	n/a	n/a	n/a	-999	10	[-999, -999, -999]	n/a	FR1	1	R1377M
1236.449	0.0	1323048	PROB	0.0	n/a	n/a	-999	10	[4, 7, 7]	18	FR1	1	R1377M
1236.448	0.001	1323051	WORD_OFF	n/a	n/a	RAT	12	10	[0, 0, 0]	n/a	FR1	1	R1377M
1236.449	0.0	1323051	ENCODING_END	n/a	n/a	n/a	-999	10	[0, 0, 0]	n/a	FR1	1	R1377M
1236.449	8.583	1323051	DISTRACT_START	n/a	n/a	n/a	-999	10	[0, 0, 0]	n/a	FR1	1	R1377M
1245.032	7.35	1331631	PROB	7.35	n/a	n/a	-999	10	[1, 6, 8]	15	FR1	1	R1377M
1252.382	5.618	1338980	PROB	5.618	n/a	n/a	-999	10	[2, 4, 4]	10	FR1	1	R1377M
1258.0	0.0	1344598	STOP	n/a	n/a	n/a	-999	10	[-999, -999, -999]	n/a	FR1	1	R1377M
1258.0	1.182	1344599	DISTRACT_END	n/a	n/a	n/a	-999	10	[0, 0, 0]	n/a	FR1	1	R1377M
1259.182	2.27	1345784	REC_START	n/a	n/a	n/a	-999	10	[0, 0, 0]	n/a	FR1	1	R1377M
1261.452	0.805	1348050	REC_WORD	0.805	n/a	STAR	1	10	[0, 0, 0]	n/a	FR1	1	R1377M
1262.257	0.777	1348855	REC_WORD	0.777	n/a	BUSH	2	10	[0, 0, 0]	n/a	FR1	1	R1377M
1263.034	0.582	1349632	REC_WORD	0.582	n/a	OIL	3	10	[0, 0, 0]	n/a	FR1	1	R1377M
1263.616	1.235	1350214	REC_WORD	1.235	n/a	CRANE	4	10	[0, 0, 0]	n/a	FR1	1	R1377M
1264.851	1.141	1351449	REC_WORD	1.141	n/a	SKI	5	10	[0, 0, 0]	n/a	FR1	1	R1377M
1265.992	1.756	1352590	REC_WORD	1.756	n/a	SEA	7	10	[0, 0, 0]	n/a	FR1	1	R1377M
1267.748	16.143	1354346	REC_WORD	16.143	n/a	MAZE	11	10	[0, 0, 0]	n/a	FR1	1	R1377M
1283.891	5.53	1370488	REC_WORD_VV	5.53	n/a	<>	-999	10	[0, 0, 0]	n/a	FR1	1	R1377M
1289.421	3.211	1376026	REC_END	n/a	n/a	n/a	-999	10	[0, 0, 0]	n/a	FR1	1	R1377M
1292.632	10.35	1379237	COUNTDOWN_START	n/a	n/a	n/a	-999	11	[0, 0, 0]	n/a	FR1	1	R1377M
1302.982	0.0	1389584	COUNTDOWN_END	n/a	n/a	n/a	-999	11	[0, 0, 0]	n/a	FR1	1	R1377M
1302.982	2.15	1389584	ENCODING_START	n/a	n/a	n/a	-999	11	[0, 0, 0]	n/a	FR1	1	R1377M
1305.132	1.6	1391733	WORD	n/a	wordpools/wordpool_short_EN.txt	HOLE	1	11	[0, 0, 0]	n/a	FR1	1	R1377M
1306.732	0.9	1393331	WORD_OFF	n/a	n/a	HOLE	1	11	[0, 0, 0]	n/a	FR1	1	R1377M
1307.632	1.616	1394227	WORD	n/a	wordpools/wordpool_short_EN.txt	SLIME	2	11	[0, 0, 0]	n/a	FR1	1	R1377M
1309.248	0.917	1395852	WORD_OFF	n/a	n/a	SLIME	2	11	[0, 0, 0]	n/a	FR1	1	R1377M
1310.165	1.6	1396762	WORD	n/a	wordpools/wordpool_short_EN.txt	TRASH	3	11	[0, 0, 0]	n/a	FR1	1	R1377M
1311.765	0.9	1398360	WORD_OFF	n/a	n/a	TRASH	3	11	[0, 0, 0]	n/a	FR1	1	R1377M
1312.665	1.6	1399256	WORD	n/a	wordpools/wordpool_short_EN.txt	STAIR	4	11	[0, 0, 0]	n/a	FR1	1	R1377M
1314.265	0.783	1400868	WORD_OFF	n/a	n/a	STAIR	4	11	[0, 0, 0]	n/a	FR1	1	R1377M
1315.048	1.616	1401639	WORD	n/a	wordpools/wordpool_short_EN.txt	SKIN	5	11	[0, 0, 0]	n/a	FR1	1	R1377M
1316.664	0.884	1403265	WORD_OFF	n/a	n/a	SKIN	5	11	[0, 0, 0]	n/a	FR1	1	R1377M
1317.548	1.617	1404160	WORD	n/a	wordpools/wordpool_short_EN.txt	ELF	6	11	[0, 0, 0]	n/a	FR1	1	R1377M
1319.165	0.916	1405759	WORD_OFF	n/a	n/a	ELF	6	11	[0, 0, 0]	n/a	FR1	1	R1377M
1320.081	1.617	1406682	WORD	n/a	wordpools/wordpool_short_EN.txt	FUR	7	11	[0, 0, 0]	n/a	FR1	1	R1377M
1321.698	0.883	1408294	WORD_OFF	n/a	n/a	FUR	7	11	[0, 0, 0]	n/a	FR1	1	R1377M
1322.581	1.617	1409176	WORD	n/a	wordpools/wordpool_short_EN.txt	TRAIL	8	11	[0, 0, 0]	n/a	FR1	1	R1377M
1324.198	0.833	1410801	WORD_OFF	n/a	n/a	TRAIL	8	11	[0, 0, 0]	n/a	FR1	1	R1377M
1325.031	1.617	1411628	WORD	n/a	wordpools/wordpool_short_EN.txt	WAX	9	11	[0, 0, 0]	n/a	FR1	1	R1377M
1326.648	0.916	1413240	WORD_OFF	n/a	n/a	WAX	9	11	[0, 0, 0]	n/a	FR1	1	R1377M
1327.564	1.617	1414163	WORD	n/a	wordpools/wordpool_short_EN.txt	WING	10	11	[0, 0, 0]	n/a	FR1	1	R1377M
1329.181	0.95	1415775	WORD_OFF	n/a	n/a	WING	10	11	[0, 0, 0]	n/a	FR1	1	R1377M
1330.131	1.616	1416726	WORD	n/a	wordpools/wordpool_short_EN.txt	NEST	11	11	[0, 0, 0]	n/a	FR1	1	R1377M
1331.747	1.001	1418338	WORD_OFF	n/a	n/a	NEST	11	11	[0, 0, 0]	n/a	FR1	1	R1377M
1332.748	1.6	1419344	WORD	n/a	wordpools/wordpool_short_EN.txt	OAR	12	11	[0, 0, 0]	n/a	FR1	1	R1377M
1334.348	0.001	1420942	WORD_OFF	n/a	n/a	OAR	12	11	[0, 0, 0]	n/a	FR1	1	R1377M
1334.349	0.0	1420942	ENCODING_END	n/a	n/a	n/a	-999	11	[0, 0, 0]	n/a	FR1	1	R1377M
1334.349	0.0	1420942	DISTRACT_START	n/a	n/a	n/a	-999	11	[0, 0, 0]	n/a	FR1	1	R1377M
1334.348	0.001	1420943	PROB	0.001	n/a	n/a	-999	11	[1, 3, 1]	5	FR1	1	R1377M
1334.349	8.483	1420944	START	n/a	n/a	n/a	-999	11	[-999, -999, -999]	n/a	FR1	1	R1377M
1342.832	5.817	1429426	PROB	5.817	n/a	n/a	-999	11	[5, 7, 4]	16	FR1	1	R1377M
1348.649	8.333	1435243	PROB	8.333	n/a	n/a	-999	11	[2, 8, 7]	17	FR1	1	R1377M
1356.982	0.0	1443576	STOP	n/a	n/a	n/a	-999	11	[-999, -999, -999]	n/a	FR1	1	R1377M
1356.982	1.367	1443579	DISTRACT_END	n/a	n/a	n/a	-999	11	[0, 0, 0]	n/a	FR1	1	R1377M
1358.349	4.356	1444943	REC_START	n/a	n/a	n/a	-999	11	[0, 0, 0]	n/a	FR1	1	R1377M
1362.705	1.373	1449298	REC_WORD	1.373	n/a	HOLE	1	11	[0, 0, 0]	n/a	FR1	1	R1377M
1364.078	1.83	1450671	REC_WORD	1.83	n/a	SLIME	2	11	[0, 0, 0]	n/a	FR1	1	R1377M
1365.908	1.426	1452501	REC_WORD	1.426	n/a	TRASH	3	11	[0, 0, 0]	n/a	FR1	1	R1377M
1367.334	2.391	1453927	REC_WORD	2.391	n/a	STAIR	4	11	[0, 0, 0]	n/a	FR1	1	R1377M
1369.725	7.11	1456318	REC_WORD	7.11	n/a	NEST	11	11	[0, 0, 0]	n/a	FR1	1	R1377M
1376.835	11.778	1463428	REC_WORD_VV	11.778	n/a	<>	-999	11	[0, 0, 0]	n/a	FR1	1	R1377M
1388.613	5.919	1475212	REC_END	n/a	n/a	n/a	-999	11	[0, 0, 0]	n/a	FR1	1	R1377M
1394.532	10.351	1481123	COUNTDOWN_START	n/a	n/a	n/a	-999	12	[0, 0, 0]	n/a	FR1	1	R1377M
1404.883	0.0	1491470	COUNTDOWN_END	n/a	n/a	n/a	-999	12	[0, 0, 0]	n/a	FR1	1	R1377M
1404.883	2.049	1491484	ENCODING_START	n/a	n/a	n/a	-999	12	[0, 0, 0]	n/a	FR1	1	R1377M
1406.932	1.6	1493523	WORD	n/a	wordpools/wordpool_short_EN.txt	CAMP	1	12	[0, 0, 0]	n/a	FR1	1	R1377M
1408.532	0.866	1495121	WORD_OFF	n/a	n/a	CAMP	1	12	[0, 0, 0]	n/a	FR1	1	R1377M
1409.398	1.601	1495989	WORD	n/a	wordpools/wordpool_short_EN.txt	TENT	2	12	[0, 0, 0]	n/a	FR1	1	R1377M
1410.999	0.9	1497588	WORD_OFF	n/a	n/a	TENT	2	12	[0, 0, 0]	n/a	FR1	1	R1377M
1411.899	1.6	1498497	WORD	n/a	wordpools/wordpool_short_EN.txt	BIN	3	12	[0, 0, 0]	n/a	FR1	1	R1377M
1413.499	0.815	1500095	WORD_OFF	n/a	n/a	BIN	3	12	[0, 0, 0]	n/a	FR1	1	R1377M
1414.314	1.618	1500908	WORD	n/a	wordpools/wordpool_short_EN.txt	PAINT	4	12	[0, 0, 0]	n/a	FR1	1	R1377M
1415.932	0.949	1502520	WORD_OFF	n/a	n/a	PAINT	4	12	[0, 0, 0]	n/a	FR1	1	R1377M
1416.881	1.617	1503471	WORD	n/a	wordpools/wordpool_short_EN.txt	NECK	5	12	[0, 0, 0]	n/a	FR1	1	R1377M
1418.498	0.934	1505096	WORD_OFF	n/a	n/a	NECK	5	12	[0, 0, 0]	n/a	FR1	1	R1377M
1419.432	1.616	1506019	WORD	n/a	wordpools/wordpool_short_EN.txt	ZOO	6	12	[0, 0, 0]	n/a	FR1	1	R1377M
1421.048	0.916	1507645	WORD_OFF	n/a	n/a	ZOO	6	12	[0, 0, 0]	n/a	FR1	1	R1377M
1421.964	1.601	1508555	WORD	n/a	wordpools/wordpool_short_EN.txt	TIN	7	12	[0, 0, 0]	n/a	FR1	1	R1377M
1423.565	0.9	1510153	WORD_OFF	n/a	n/a	TIN	7	12	[0, 0, 0]	n/a	FR1	1	R1377M
1424.465	1.6	1511062	WORD	n/a	wordpools/wordpool_short_EN.txt	SPICE	8	12	[0, 0, 0]	n/a	FR1	1	R1377M
1426.065	0.8	1512660	WORD_OFF	n/a	n/a	SPICE	8	12	[0, 0, 0]	n/a	FR1	1	R1377M
1426.865	1.6	1513459	WORD	n/a	wordpools/wordpool_short_EN.txt	TOY	9	12	[0, 0, 0]	n/a	FR1	1	R1377M
1428.465	0.783	1515058	WORD_OFF	n/a	n/a	TOY	9	12	[0, 0, 0]	n/a	FR1	1	R1377M
1429.248	1.6	1515843	WORD	n/a	wordpools/wordpool_short_EN.txt	BOWL	10	12	[0, 0, 0]	n/a	FR1	1	R1377M
1430.848	0.951	1517441	WORD_OFF	n/a	n/a	BOWL	10	12	[0, 0, 0]	n/a	FR1	1	R1377M
1431.799	1.6	1518392	WORD	n/a	wordpools/wordpool_short_EN.txt	MULE	11	12	[0, 0, 0]	n/a	FR1	1	R1377M
1433.399	1.0	1519990	WORD_OFF	n/a	n/a	MULE	11	12	[0, 0, 0]	n/a	FR1	1	R1377M
1434.399	1.616	1520996	WORD	n/a	wordpools/wordpool_short_EN.txt	TANK	12	12	[0, 0, 0]	n/a	FR1	1	R1377M
1436.015	0.001	1522605	PROB	0.001	n/a	n/a	-999	12	[2, 6, 1]	9	FR1	1	R1377M
1436.016	0.0	1522606	START	n/a	n/a	n/a	-999	12	[-999, -999, -999]	n/a	FR1	1	R1377M
1436.015	0.001	1522608	WORD_OFF	n/a	n/a	TANK	12	12	[0, 0, 0]	n/a	FR1	1	R1377M
1436.016	0.0	1522608	ENCODING_END	n/a	n/a	n/a	-999	12	[0, 0, 0]	n/a	FR1	1	R1377M
1436.016	10.866	1522608	DISTRACT_START	n/a	n/a	n/a	-999	12	[0, 0, 0]	n/a	FR1	1	R1377M
1446.882	4.201	1533471	PROB	4.201	n/a	n/a	-999	12	[7, 2, 2]	11	FR1	1	R1377M
1451.083	6.582	1537672	PROB	6.582	n/a	n/a	-999	12	[4, 2, 8]	14	FR1	1	R1377M
1457.665	0.0	1544253	DISTRACT_END	n/a	n/a	n/a	-999	12	[0, 0, 0]	n/a	FR1	1	R1377M
1457.665	1.05	1544254	STOP	n/a	n/a	n/a	-999	12	[-999, -999, -999]	n/a	FR1	1	R1377M
1458.715	3.814	1545300	REC_START	n/a	n/a	n/a	-999	12	[0, 0, 0]	n/a	FR1	1	R1377M
1462.529	1.595	1549118	REC_WORD	1.595	n/a	CAMP	1	12	[0, 0, 0]	n/a	FR1	1	R1377M
1464.124	1.348	1550713	REC_WORD	1.348	n/a	TENT	2	12	[0, 0, 0]	n/a	FR1	1	R1377M
1465.472	1.552	1552061	REC_WORD	1.552	n/a	BIN	3	12	[0, 0, 0]	n/a	FR1	1	R1377M
1467.024	1.489	1553612	REC_WORD	1.489	n/a	PAINT	4	12	[0, 0, 0]	n/a	FR1	1	R1377M
1468.513	1.448	1555101	REC_WORD	1.448	n/a	SPICE	8	12	[0, 0, 0]	n/a	FR1	1	R1377M
1469.961	4.124	1556549	REC_WORD	4.124	n/a	BOWL	10	12	[0, 0, 0]	n/a	FR1	1	R1377M
1474.085	14.876	1560673	REC_WORD_VV	14.876	n/a	<>	-999	12	[0, 0, 0]	n/a	FR1	1	R1377M
1488.961	0.0	1575556	REC_END	n/a	n/a	n/a	-999	12	[0, 0, 0]	n/a	FR1	1	R1377M
