onset	duration	sample	trial_type	response_time	stim_file	item_name	serialpos	list	test	answer	experiment	session	subject
0.0	7.681	-1	INSTRUCT_START	n/a	n/a	n/a	-999	-999	[0, 0, 0]	n/a	FR1	2	R1281E
7.681	3172.796	-1	INSTRUCT_END	n/a	n/a	n/a	-999	-999	[0, 0, 0]	n/a	FR1	2	R1281E
3180.477	615.903	186	INSTRUCT_START	n/a	n/a	n/a	-999	-999	[0, 0, 0]	n/a	FR1	2	R1281E
3796.38	2.666	616067	INSTRUCT_END	n/a	n/a	n/a	-999	-999	[0, 0, 0]	n/a	FR1	2	R1281E
3799.046	49.437	618733	MIC TEST_START	n/a	n/a	n/a	-999	-999	[0, 0, 0]	n/a	FR1	2	R1281E
3848.483	0.005	668168	MIC TEST_END	n/a	n/a	n/a	-999	-999	[0, 0, 0]	n/a	FR1	2	R1281E
3848.488	0.0	668173	TRIAL	n/a	n/a	n/a	-999	-1	[0, 0, 0]	n/a	FR1	2	R1281E
3848.488	0.0	668173	WAITING_START	n/a	n/a	n/a	-999	-1	[0, 0, 0]	n/a	FR1	2	R1281E
3848.488	13.619	668173	TRIAL_START	n/a	n/a	n/a	-999	-1	[0, 0, 0]	n/a	FR1	2	R1281E
3862.107	0.0	681791	WAITING_END	n/a	n/a	n/a	-999	-1	[0, 0, 0]	n/a	FR1	2	R1281E
3862.107	10.429	681791	COUNTDOWN_START	n/a	n/a	n/a	-999	-1	[0, 0, 0]	n/a	FR1	2	R1281E
3872.536	0.001	692220	COUNTDOWN_END	n/a	n/a	n/a	-999	-1	[0, 0, 0]	n/a	FR1	2	R1281E
3872.537	1.023	692221	ORIENT_START	n/a	n/a	n/a	-999	-1	[0, 0, 0]	n/a	FR1	2	R1281E
3873.56	0.001	693244	ORIENT_END	n/a	n/a	n/a	-999	-1	[0, 0, 0]	n/a	FR1	2	R1281E
3873.561	0.975	693245	ENCODING_START	n/a	n/a	n/a	-999	-1	[0, 0, 0]	n/a	FR1	2	R1281E
3874.536	1.624	694220	WORD	n/a	n/a	ATTIC	1	-1	[0, 0, 0]	n/a	FR1	2	R1281E
3876.16	0.881	695844	WORD_OFF	n/a	n/a	ATTIC	1	-1	[0, 0, 0]	n/a	FR1	2	R1281E
3877.041	1.62	696725	WORD	n/a	n/a	BEAM	2	-1	[0, 0, 0]	n/a	FR1	2	R1281E
3878.661	0.809	698345	WORD_OFF	n/a	n/a	BEAM	2	-1	[0, 0, 0]	n/a	FR1	2	R1281E
3879.47	1.624	699154	WORD	n/a	n/a	CAMEL	3	-1	[0, 0, 0]	n/a	FR1	2	R1281E
3881.094	0.95	700778	WORD_OFF	n/a	n/a	CAMEL	3	-1	[0, 0, 0]	n/a	FR1	2	R1281E
3882.044	1.618	701728	WORD	n/a	n/a	CHEST	4	-1	[0, 0, 0]	n/a	FR1	2	R1281E
3883.662	0.8	703346	WORD_OFF	n/a	n/a	CHEST	4	-1	[0, 0, 0]	n/a	FR1	2	R1281E
3884.462	1.633	704146	WORD	n/a	n/a	COTTON	5	-1	[0, 0, 0]	n/a	FR1	2	R1281E
3886.095	0.759	705779	WORD_OFF	n/a	n/a	COTTON	5	-1	[0, 0, 0]	n/a	FR1	2	R1281E
3886.854	1.625	706537	WORD	n/a	n/a	FLOOD	6	-1	[0, 0, 0]	n/a	FR1	2	R1281E
3888.479	1.095	708162	WORD_OFF	n/a	n/a	FLOOD	6	-1	[0, 0, 0]	n/a	FR1	2	R1281E
3889.574	1.622	709257	WORD	n/a	n/a	IRON	7	-1	[0, 0, 0]	n/a	FR1	2	R1281E
3891.196	1.059	710879	WORD_OFF	n/a	n/a	IRON	7	-1	[0, 0, 0]	n/a	FR1	2	R1281E
3892.255	1.625	711938	WORD	n/a	n/a	RHINO	8	-1	[0, 0, 0]	n/a	FR1	2	R1281E
3893.88	1.021	713563	WORD_OFF	n/a	n/a	RHINO	8	-1	[0, 0, 0]	n/a	FR1	2	R1281E
3894.901	1.63	714584	WORD	n/a	n/a	RING	9	-1	[0, 0, 0]	n/a	FR1	2	R1281E
3896.531	1.14	716214	WORD_OFF	n/a	n/a	RING	9	-1	[0, 0, 0]	n/a	FR1	2	R1281E
3897.671	1.627	717354	WORD	n/a	n/a	TONGUE	10	-1	[0, 0, 0]	n/a	FR1	2	R1281E
3899.298	1.132	718981	WORD_OFF	n/a	n/a	TONGUE	10	-1	[0, 0, 0]	n/a	FR1	2	R1281E
3900.43	1.634	720113	WORD	n/a	n/a	WAGON	11	-1	[0, 0, 0]	n/a	FR1	2	R1281E
3902.064	0.777	721747	WORD_OFF	n/a	n/a	WAGON	11	-1	[0, 0, 0]	n/a	FR1	2	R1281E
3902.841	1.625	722524	WORD	n/a	n/a	WATCH	12	-1	[0, 0, 0]	n/a	FR1	2	R1281E
3904.466	0.0	724149	WORD_OFF	n/a	n/a	WATCH	12	-1	[0, 0, 0]	n/a	FR1	2	R1281E
3904.466	0.0	724149	ENCODING_END	n/a	n/a	n/a	-999	-1	[0, 0, 0]	n/a	FR1	2	R1281E
3904.466	0.0	724149	DISTRACT_START	n/a	n/a	n/a	-999	-1	[0, 0, 0]	n/a	FR1	2	R1281E
3904.466	0.016	724149	START	n/a	n/a	n/a	-999	-1	[-999, -999, -999]	n/a	FR1	2	R1281E
3904.482	3.367	724165	PROB	3.367	n/a	n/a	-999	-1	[1, 7, 4]	12	FR1	2	R1281E
3907.849	4.017	727532	PROB	4.017	n/a	n/a	-999	-1	[7, 8, 9]	24	FR1	2	R1281E
3911.866	3.267	731549	PROB	3.267	n/a	n/a	-999	-1	[8, 5, 5]	18	FR1	2	R1281E
3915.133	3.084	734815	PROB	3.084	n/a	n/a	-999	-1	[3, 9, 9]	22	FR1	2	R1281E
3918.217	6.966	737899	PROB	6.966	n/a	n/a	-999	-1	[7, 8, 6]	21	FR1	2	R1281E
3925.183	0.018	744865	STOP	n/a	n/a	n/a	-999	-1	[-999, -999, -999]	n/a	FR1	2	R1281E
3925.201	0.625	744883	DISTRACT_END	n/a	n/a	n/a	-999	-1	[0, 0, 0]	n/a	FR1	2	R1281E
3925.826	1.627	745508	RETRIEVAL_ORIENT_START	n/a	n/a	n/a	-999	-1	[0, 0, 0]	n/a	FR1	2	R1281E
3927.453	0.0	747135	RETRIEVAL_ORIENT_END	n/a	n/a	n/a	-999	-1	[0, 0, 0]	n/a	FR1	2	R1281E
3927.453	0.834	747135	REC_START	n/a	n/a	n/a	-999	-1	[0, 0, 0]	n/a	FR1	2	R1281E
3928.287	1.515	747969	REC_WORD	1.515	n/a	ATTIC	-999	-1	[0, 0, 0]	n/a	FR1	2	R1281E
3929.802	1.65	749484	REC_WORD	1.65	n/a	BEAN	-999	-1	[0, 0, 0]	n/a	FR1	2	R1281E
3931.452	2.163	751134	REC_WORD	2.163	n/a	WAGON	-999	-1	[0, 0, 0]	n/a	FR1	2	R1281E
3933.615	2.224	753297	REC_WORD	2.224	n/a	COTTON	-999	-1	[0, 0, 0]	n/a	FR1	2	R1281E
3935.839	21.627	755521	REC_WORD	21.627	n/a	CAMEL	-999	-1	[0, 0, 0]	n/a	FR1	2	R1281E
3957.466	0.0	777147	REC_END	n/a	n/a	n/a	-999	-1	[0, 0, 0]	n/a	FR1	2	R1281E
3957.466	20.712	777147	PRACTICE_POST_INSTRUCT_START	n/a	n/a	n/a	-999	-1	[0, 0, 0]	n/a	FR1	2	R1281E
3978.178	0.0	797858	TRIAL_END	n/a	n/a	n/a	-999	-1	[0, 0, 0]	n/a	FR1	2	R1281E
3978.178	0.012	797858	PRACTICE_POST_INSTRUCT_END	n/a	n/a	n/a	-999	-1	[0, 0, 0]	n/a	FR1	2	R1281E
3978.19	0.0	797870	TRIAL_START	n/a	n/a	n/a	-999	1	[0, 0, 0]	n/a	FR1	2	R1281E
3978.19	0.0	797870	TRIAL	n/a	n/a	n/a	-999	1	[0, 0, 0]	n/a	FR1	2	R1281E
3978.19	1.455	797870	WAITING_START	n/a	n/a	n/a	-999	1	[0, 0, 0]	n/a	FR1	2	R1281E
3979.645	0.001	799325	WAITING_END	n/a	n/a	n/a	-999	1	[0, 0, 0]	n/a	FR1	2	R1281E
3979.646	10.429	799326	COUNTDOWN_START	n/a	n/a	n/a	-999	1	[0, 0, 0]	n/a	FR1	2	R1281E
3990.075	0.0	809755	COUNTDOWN_END	n/a	n/a	n/a	-999	1	[0, 0, 0]	n/a	FR1	2	R1281E
3990.075	1.155	809755	ORIENT_START	n/a	n/a	n/a	-999	1	[0, 0, 0]	n/a	FR1	2	R1281E
3991.23	0.0	810910	ORIENT_END	n/a	n/a	n/a	-999	1	[0, 0, 0]	n/a	FR1	2	R1281E
3991.23	0.82	810910	ENCODING_START	n/a	n/a	n/a	-999	1	[0, 0, 0]	n/a	FR1	2	R1281E
3992.05	1.631	811730	WORD	n/a	n/a	MOON	1	1	[0, 0, 0]	n/a	FR1	2	R1281E
3993.681	1.04	813361	WORD_OFF	n/a	n/a	MOON	1	1	[0, 0, 0]	n/a	FR1	2	R1281E
3994.721	1.627	814401	WORD	n/a	n/a	PEACH	2	1	[0, 0, 0]	n/a	FR1	2	R1281E
3996.348	0.893	816028	WORD_OFF	n/a	n/a	PEACH	2	1	[0, 0, 0]	n/a	FR1	2	R1281E
3997.241	1.624	816921	WORD	n/a	n/a	SWAMP	3	1	[0, 0, 0]	n/a	FR1	2	R1281E
3998.865	1.14	818545	WORD_OFF	n/a	n/a	SWAMP	3	1	[0, 0, 0]	n/a	FR1	2	R1281E
4000.005	1.611	819684	WORD	n/a	n/a	THUMB	4	1	[0, 0, 0]	n/a	FR1	2	R1281E
4001.616	0.876	821295	WORD_OFF	n/a	n/a	THUMB	4	1	[0, 0, 0]	n/a	FR1	2	R1281E
4002.492	1.623	822171	WORD	n/a	n/a	HOUSE	5	1	[0, 0, 0]	n/a	FR1	2	R1281E
4004.115	0.774	823794	WORD_OFF	n/a	n/a	HOUSE	5	1	[0, 0, 0]	n/a	FR1	2	R1281E
4004.889	1.628	824568	WORD	n/a	n/a	OWL	6	1	[0, 0, 0]	n/a	FR1	2	R1281E
4006.517	0.886	826196	WORD_OFF	n/a	n/a	OWL	6	1	[0, 0, 0]	n/a	FR1	2	R1281E
4007.403	1.63	827082	WORD	n/a	n/a	LOCK	7	1	[0, 0, 0]	n/a	FR1	2	R1281E
4009.033	0.766	828712	WORD_OFF	n/a	n/a	LOCK	7	1	[0, 0, 0]	n/a	FR1	2	R1281E
4009.799	1.635	829478	WORD	n/a	n/a	DITCH	8	1	[0, 0, 0]	n/a	FR1	2	R1281E
4011.434	1.006	831113	WORD_OFF	n/a	n/a	DITCH	8	1	[0, 0, 0]	n/a	FR1	2	R1281E
4012.44	1.627	832119	WORD	n/a	n/a	RUG	9	1	[0, 0, 0]	n/a	FR1	2	R1281E
4014.067	0.938	833746	WORD_OFF	n/a	n/a	RUG	9	1	[0, 0, 0]	n/a	FR1	2	R1281E
4015.005	1.63	834684	WORD	n/a	n/a	DIME	10	1	[0, 0, 0]	n/a	FR1	2	R1281E
4016.635	1.021	836314	WORD_OFF	n/a	n/a	DIME	10	1	[0, 0, 0]	n/a	FR1	2	R1281E
4017.656	1.63	837335	WORD	n/a	n/a	CROWN	11	1	[0, 0, 0]	n/a	FR1	2	R1281E
4019.286	1.004	838965	WORD_OFF	n/a	n/a	CROWN	11	1	[0, 0, 0]	n/a	FR1	2	R1281E
4020.29	1.629	839969	WORD	n/a	n/a	STEAK	12	1	[0, 0, 0]	n/a	FR1	2	R1281E
4021.919	0.001	841598	WORD_OFF	n/a	n/a	STEAK	12	1	[0, 0, 0]	n/a	FR1	2	R1281E
4021.92	0.0	841599	ENCODING_END	n/a	n/a	n/a	-999	1	[0, 0, 0]	n/a	FR1	2	R1281E
4021.92	0.0	841599	DISTRACT_START	n/a	n/a	n/a	-999	1	[0, 0, 0]	n/a	FR1	2	R1281E
4021.92	0.015	841599	START	n/a	n/a	n/a	-999	1	[-999, -999, -999]	n/a	FR1	2	R1281E
4021.935	4.935	841614	PROB	4.935	n/a	n/a	-999	1	[6, 1, 5]	12	FR1	2	R1281E
4026.87	3.701	846549	PROB	3.701	n/a	n/a	-999	1	[5, 8, 4]	17	FR1	2	R1281E
4030.571	5.067	850249	PROB	5.067	n/a	n/a	-999	1	[9, 6, 8]	23	FR1	2	R1281E
4035.638	4.417	855316	PROB	4.417	n/a	n/a	-999	1	[1, 3, 6]	10	FR1	2	R1281E
4040.055	5.387	859733	PROB	5.387	n/a	n/a	-999	1	[4, 7, 6]	17	FR1	2	R1281E
4045.442	0.015	865120	STOP	n/a	n/a	n/a	-999	1	[-999, -999, -999]	n/a	FR1	2	R1281E
4045.457	0.618	865135	DISTRACT_END	n/a	n/a	n/a	-999	1	[0, 0, 0]	n/a	FR1	2	R1281E
4046.075	1.716	865753	RETRIEVAL_ORIENT_START	n/a	n/a	n/a	-999	1	[0, 0, 0]	n/a	FR1	2	R1281E
4047.791	0.0	867469	RETRIEVAL_ORIENT_END	n/a	n/a	n/a	-999	1	[0, 0, 0]	n/a	FR1	2	R1281E
4047.791	0.719	867469	REC_START	n/a	n/a	n/a	-999	1	[0, 0, 0]	n/a	FR1	2	R1281E
4048.51	2.44	868188	REC_WORD	2.44	n/a	STICK	-999	1	[0, 0, 0]	n/a	FR1	2	R1281E
4050.95	2.581	870628	REC_WORD	2.581	n/a	MOON	1	1	[0, 0, 0]	n/a	FR1	2	R1281E
4053.531	1.0	873209	REC_WORD	1.0	n/a	HOUSE	5	1	[0, 0, 0]	n/a	FR1	2	R1281E
4054.531	21.346	874209	REC_WORD_VV	21.346	n/a	<>	-999	1	[0, 0, 0]	n/a	FR1	2	R1281E
4075.877	1.926	895554	REC_WORD	1.926	n/a	COW	-999	1	[0, 0, 0]	n/a	FR1	2	R1281E
4077.803	0.0	897480	TRIAL_END	n/a	n/a	n/a	-999	1	[0, 0, 0]	n/a	FR1	2	R1281E
4077.803	0.01	897480	REC_END	n/a	n/a	n/a	-999	1	[0, 0, 0]	n/a	FR1	2	R1281E
4077.813	0.0	897490	TRIAL_START	n/a	n/a	n/a	-999	2	[0, 0, 0]	n/a	FR1	2	R1281E
4077.813	0.001	897490	TRIAL	n/a	n/a	n/a	-999	2	[0, 0, 0]	n/a	FR1	2	R1281E
4077.814	4.433	897491	WAITING_START	n/a	n/a	n/a	-999	2	[0, 0, 0]	n/a	FR1	2	R1281E
4082.247	0.0	901924	WAITING_END	n/a	n/a	n/a	-999	2	[0, 0, 0]	n/a	FR1	2	R1281E
4082.247	10.429	901924	COUNTDOWN_START	n/a	n/a	n/a	-999	2	[0, 0, 0]	n/a	FR1	2	R1281E
4092.676	0.0	912352	COUNTDOWN_END	n/a	n/a	n/a	-999	2	[0, 0, 0]	n/a	FR1	2	R1281E
4092.676	1.073	912352	ORIENT_START	n/a	n/a	n/a	-999	2	[0, 0, 0]	n/a	FR1	2	R1281E
4093.749	0.0	913425	ENCODING_START	n/a	n/a	n/a	-999	2	[0, 0, 0]	n/a	FR1	2	R1281E
4093.749	0.841	913425	ORIENT_END	n/a	n/a	n/a	-999	2	[0, 0, 0]	n/a	FR1	2	R1281E
4094.59	1.625	914266	WORD	n/a	n/a	CHAIR	1	2	[0, 0, 0]	n/a	FR1	2	R1281E
4096.215	1.084	915891	WORD_OFF	n/a	n/a	CHAIR	1	2	[0, 0, 0]	n/a	FR1	2	R1281E
4097.299	1.633	916975	WORD	n/a	n/a	GUARD	2	2	[0, 0, 0]	n/a	FR1	2	R1281E
4098.932	0.957	918608	WORD_OFF	n/a	n/a	GUARD	2	2	[0, 0, 0]	n/a	FR1	2	R1281E
4099.889	1.628	919565	WORD	n/a	n/a	SPRING	3	2	[0, 0, 0]	n/a	FR1	2	R1281E
4101.517	1.018	921193	WORD_OFF	n/a	n/a	SPRING	3	2	[0, 0, 0]	n/a	FR1	2	R1281E
4102.535	1.631	922211	WORD	n/a	n/a	TRUCK	4	2	[0, 0, 0]	n/a	FR1	2	R1281E
4104.166	0.862	923842	WORD_OFF	n/a	n/a	TRUCK	4	2	[0, 0, 0]	n/a	FR1	2	R1281E
4105.028	1.623	924704	WORD	n/a	n/a	HAT	5	2	[0, 0, 0]	n/a	FR1	2	R1281E
4106.651	0.883	926327	WORD_OFF	n/a	n/a	HAT	5	2	[0, 0, 0]	n/a	FR1	2	R1281E
4107.534	1.633	927210	WORD	n/a	n/a	BAND	6	2	[0, 0, 0]	n/a	FR1	2	R1281E
4109.167	1.099	928843	WORD_OFF	n/a	n/a	BAND	6	2	[0, 0, 0]	n/a	FR1	2	R1281E
4110.266	1.636	929942	WORD	n/a	n/a	DART	7	2	[0, 0, 0]	n/a	FR1	2	R1281E
4111.902	1.023	931577	WORD_OFF	n/a	n/a	DART	7	2	[0, 0, 0]	n/a	FR1	2	R1281E
4112.925	1.61	932600	WORD	n/a	n/a	SIGN	8	2	[0, 0, 0]	n/a	FR1	2	R1281E
4114.535	1.091	934210	WORD_OFF	n/a	n/a	SIGN	8	2	[0, 0, 0]	n/a	FR1	2	R1281E
4115.626	1.627	935301	WORD	n/a	n/a	JUDGE	9	2	[0, 0, 0]	n/a	FR1	2	R1281E
4117.253	1.07	936928	WORD_OFF	n/a	n/a	JUDGE	9	2	[0, 0, 0]	n/a	FR1	2	R1281E
4118.323	1.629	937998	WORD	n/a	n/a	FUDGE	10	2	[0, 0, 0]	n/a	FR1	2	R1281E
4119.952	1.017	939627	WORD_OFF	n/a	n/a	FUDGE	10	2	[0, 0, 0]	n/a	FR1	2	R1281E
4120.969	1.635	940644	WORD	n/a	n/a	SNAKE	11	2	[0, 0, 0]	n/a	FR1	2	R1281E
4122.604	1.053	942279	WORD_OFF	n/a	n/a	SNAKE	11	2	[0, 0, 0]	n/a	FR1	2	R1281E
4123.657	1.63	943332	WORD	n/a	n/a	BED	12	2	[0, 0, 0]	n/a	FR1	2	R1281E
4125.287	0.001	944962	WORD_OFF	n/a	n/a	BED	12	2	[0, 0, 0]	n/a	FR1	2	R1281E
4125.288	0.0	944963	ENCODING_END	n/a	n/a	n/a	-999	2	[0, 0, 0]	n/a	FR1	2	R1281E
4125.288	0.0	944963	DISTRACT_START	n/a	n/a	n/a	-999	2	[0, 0, 0]	n/a	FR1	2	R1281E
4125.288	0.016	944963	START	n/a	n/a	n/a	-999	2	[-999, -999, -999]	n/a	FR1	2	R1281E
4125.304	4.666	944979	PROB	4.666	n/a	n/a	-999	2	[3, 6, 8]	17	FR1	2	R1281E
4129.97	3.452	949645	PROB	3.452	n/a	n/a	-999	2	[2, 9, 5]	16	FR1	2	R1281E
4133.422	4.766	953097	PROB	4.766	n/a	n/a	-999	2	[4, 4, 3]	15	FR1	2	R1281E
4138.188	4.436	957863	PROB	4.436	n/a	n/a	-999	2	[2, 9, 1]	12	FR1	2	R1281E
4142.624	4.274	962298	PROB	4.274	n/a	n/a	-999	2	[4, 3, 9]	16	FR1	2	R1281E
4146.898	0.01	966572	STOP	n/a	n/a	n/a	-999	2	[-999, -999, -999]	n/a	FR1	2	R1281E
4146.908	0.641	966582	DISTRACT_END	n/a	n/a	n/a	-999	2	[0, 0, 0]	n/a	FR1	2	R1281E
4147.549	1.658	967223	RETRIEVAL_ORIENT_START	n/a	n/a	n/a	-999	2	[0, 0, 0]	n/a	FR1	2	R1281E
4149.207	0.001	968881	RETRIEVAL_ORIENT_END	n/a	n/a	n/a	-999	2	[0, 0, 0]	n/a	FR1	2	R1281E
4149.208	0.639	968882	REC_START	n/a	n/a	n/a	-999	2	[0, 0, 0]	n/a	FR1	2	R1281E
4149.847	1.465	969521	REC_WORD	1.465	n/a	JUDGE	9	2	[0, 0, 0]	n/a	FR1	2	R1281E
4151.312	11.321	970986	REC_WORD	11.321	n/a	FUDGE	10	2	[0, 0, 0]	n/a	FR1	2	R1281E
4162.633	8.688	982307	REC_WORD	8.688	n/a	HAT	5	2	[0, 0, 0]	n/a	FR1	2	R1281E
4171.321	7.898	990994	REC_WORD	7.898	n/a	SNAKE	11	2	[0, 0, 0]	n/a	FR1	2	R1281E
4179.219	0.001	998892	REC_END	n/a	n/a	n/a	-999	2	[0, 0, 0]	n/a	FR1	2	R1281E
4179.22	0.01	998893	TRIAL_END	n/a	n/a	n/a	-999	2	[0, 0, 0]	n/a	FR1	2	R1281E
4179.23	0.0	998903	TRIAL_START	n/a	n/a	n/a	-999	3	[0, 0, 0]	n/a	FR1	2	R1281E
4179.23	0.0	998903	TRIAL	n/a	n/a	n/a	-999	3	[0, 0, 0]	n/a	FR1	2	R1281E
4179.23	14.503	998903	WAITING_START	n/a	n/a	n/a	-999	3	[0, 0, 0]	n/a	FR1	2	R1281E
4193.733	0.0	1013406	WAITING_END	n/a	n/a	n/a	-999	3	[0, 0, 0]	n/a	FR1	2	R1281E
4193.733	10.429	1013406	COUNTDOWN_START	n/a	n/a	n/a	-999	3	[0, 0, 0]	n/a	FR1	2	R1281E
4204.162	0.001	1023834	COUNTDOWN_END	n/a	n/a	n/a	-999	3	[0, 0, 0]	n/a	FR1	2	R1281E
4204.163	1.155	1023835	ORIENT_START	n/a	n/a	n/a	-999	3	[0, 0, 0]	n/a	FR1	2	R1281E
4205.318	0.001	1024990	ORIENT_END	n/a	n/a	n/a	-999	3	[0, 0, 0]	n/a	FR1	2	R1281E
4205.319	1.07	1024991	ENCODING_START	n/a	n/a	n/a	-999	3	[0, 0, 0]	n/a	FR1	2	R1281E
4206.389	1.628	1026061	WORD	n/a	n/a	CAPE	1	3	[0, 0, 0]	n/a	FR1	2	R1281E
4208.017	1.14	1027689	WORD_OFF	n/a	n/a	CAPE	1	3	[0, 0, 0]	n/a	FR1	2	R1281E
4209.157	1.629	1028829	WORD	n/a	n/a	SEA	2	3	[0, 0, 0]	n/a	FR1	2	R1281E
4210.786	1.038	1030458	WORD_OFF	n/a	n/a	SEA	2	3	[0, 0, 0]	n/a	FR1	2	R1281E
4211.824	1.629	1031496	WORD	n/a	n/a	BADGE	3	3	[0, 0, 0]	n/a	FR1	2	R1281E
4213.453	1.075	1033125	WORD_OFF	n/a	n/a	BADGE	3	3	[0, 0, 0]	n/a	FR1	2	R1281E
4214.528	1.624	1034200	WORD	n/a	n/a	VINE	4	3	[0, 0, 0]	n/a	FR1	2	R1281E
4216.152	0.937	1035824	WORD_OFF	n/a	n/a	VINE	4	3	[0, 0, 0]	n/a	FR1	2	R1281E
4217.089	1.615	1036761	WORD	n/a	n/a	ZOO	5	3	[0, 0, 0]	n/a	FR1	2	R1281E
4218.704	0.999	1038376	WORD_OFF	n/a	n/a	ZOO	5	3	[0, 0, 0]	n/a	FR1	2	R1281E
4219.703	1.635	1039375	WORD	n/a	n/a	MOTH	6	3	[0, 0, 0]	n/a	FR1	2	R1281E
4221.338	0.942	1041010	WORD_OFF	n/a	n/a	MOTH	6	3	[0, 0, 0]	n/a	FR1	2	R1281E
4222.28	1.625	1041952	WORD	n/a	n/a	PALM	7	3	[0, 0, 0]	n/a	FR1	2	R1281E
4223.905	1.003	1043577	WORD_OFF	n/a	n/a	PALM	7	3	[0, 0, 0]	n/a	FR1	2	R1281E
4224.908	1.63	1044579	WORD	n/a	n/a	BOARD	8	3	[0, 0, 0]	n/a	FR1	2	R1281E
4226.538	1.093	1046209	WORD_OFF	n/a	n/a	BOARD	8	3	[0, 0, 0]	n/a	FR1	2	R1281E
4227.631	1.625	1047302	WORD	n/a	n/a	BOMB	9	3	[0, 0, 0]	n/a	FR1	2	R1281E
4229.256	1.11	1048927	WORD_OFF	n/a	n/a	BOMB	9	3	[0, 0, 0]	n/a	FR1	2	R1281E
4230.366	1.622	1050037	WORD	n/a	n/a	MAIL	10	3	[0, 0, 0]	n/a	FR1	2	R1281E
4231.988	0.936	1051659	WORD_OFF	n/a	n/a	MAIL	10	3	[0, 0, 0]	n/a	FR1	2	R1281E
4232.924	1.632	1052595	WORD	n/a	n/a	CLAY	11	3	[0, 0, 0]	n/a	FR1	2	R1281E
4234.556	1.011	1054227	WORD_OFF	n/a	n/a	CLAY	11	3	[0, 0, 0]	n/a	FR1	2	R1281E
4235.567	1.622	1055238	WORD	n/a	n/a	GOLD	12	3	[0, 0, 0]	n/a	FR1	2	R1281E
4237.189	0.001	1056860	WORD_OFF	n/a	n/a	GOLD	12	3	[0, 0, 0]	n/a	FR1	2	R1281E
4237.19	0.0	1056861	ENCODING_END	n/a	n/a	n/a	-999	3	[0, 0, 0]	n/a	FR1	2	R1281E
4237.19	0.0	1056861	DISTRACT_START	n/a	n/a	n/a	-999	3	[0, 0, 0]	n/a	FR1	2	R1281E
4237.19	0.016	1056861	START	n/a	n/a	n/a	-999	3	[-999, -999, -999]	n/a	FR1	2	R1281E
4237.206	4.185	1056877	PROB	4.185	n/a	n/a	-999	3	[8, 5, 3]	16	FR1	2	R1281E
4241.391	3.884	1061062	PROB	3.884	n/a	n/a	-999	3	[2, 7, 4]	13	FR1	2	R1281E
4245.275	3.783	1064946	PROB	3.783	n/a	n/a	-999	3	[8, 5, 8]	21	FR1	2	R1281E
4249.058	3.385	1068729	PROB	3.385	n/a	n/a	-999	3	[8, 4, 2]	14	FR1	2	R1281E
4252.443	4.483	1072114	PROB	4.483	n/a	n/a	-999	3	[3, 9, 4]	16	FR1	2	R1281E
4256.926	3.727	1076596	PROB	3.727	n/a	n/a	-999	3	[1, 3, 1]	5	FR1	2	R1281E
4260.653	0.008	1080323	STOP	n/a	n/a	n/a	-999	3	[-999, -999, -999]	n/a	FR1	2	R1281E
4260.661	0.512	1080331	DISTRACT_END	n/a	n/a	n/a	-999	3	[0, 0, 0]	n/a	FR1	2	R1281E
4261.173	1.538	1080843	RETRIEVAL_ORIENT_START	n/a	n/a	n/a	-999	3	[0, 0, 0]	n/a	FR1	2	R1281E
4262.711	0.001	1082381	RETRIEVAL_ORIENT_END	n/a	n/a	n/a	-999	3	[0, 0, 0]	n/a	FR1	2	R1281E
4262.712	1.365	1082382	REC_START	n/a	n/a	n/a	-999	3	[0, 0, 0]	n/a	FR1	2	R1281E
4264.077	1.698	1083747	REC_WORD	1.698	n/a	BOMB	9	3	[0, 0, 0]	n/a	FR1	2	R1281E
4265.775	7.873	1085445	REC_WORD	7.873	n/a	MAIL	10	3	[0, 0, 0]	n/a	FR1	2	R1281E
4273.648	3.305	1093318	REC_WORD	3.305	n/a	ZOO	5	3	[0, 0, 0]	n/a	FR1	2	R1281E
4276.953	15.774	1096623	REC_WORD	15.774	n/a	MOTH	6	3	[0, 0, 0]	n/a	FR1	2	R1281E
4292.727	0.0	1112396	REC_END	n/a	n/a	n/a	-999	3	[0, 0, 0]	n/a	FR1	2	R1281E
4292.727	0.011	1112396	TRIAL_END	n/a	n/a	n/a	-999	3	[0, 0, 0]	n/a	FR1	2	R1281E
4292.738	0.0	1112407	TRIAL_START	n/a	n/a	n/a	-999	4	[0, 0, 0]	n/a	FR1	2	R1281E
4292.738	0.0	1112407	TRIAL	n/a	n/a	n/a	-999	4	[0, 0, 0]	n/a	FR1	2	R1281E
4292.738	15.297	1112407	WAITING_START	n/a	n/a	n/a	-999	4	[0, 0, 0]	n/a	FR1	2	R1281E
4308.035	0.0	1127704	WAITING_END	n/a	n/a	n/a	-999	4	[0, 0, 0]	n/a	FR1	2	R1281E
4308.035	10.43	1127704	COUNTDOWN_START	n/a	n/a	n/a	-999	4	[0, 0, 0]	n/a	FR1	2	R1281E
4318.465	0.001	1138133	COUNTDOWN_END	n/a	n/a	n/a	-999	4	[0, 0, 0]	n/a	FR1	2	R1281E
4318.466	1.022	1138134	ORIENT_START	n/a	n/a	n/a	-999	4	[0, 0, 0]	n/a	FR1	2	R1281E
4319.488	0.0	1139156	ENCODING_START	n/a	n/a	n/a	-999	4	[0, 0, 0]	n/a	FR1	2	R1281E
4319.488	0.872	1139156	ORIENT_END	n/a	n/a	n/a	-999	4	[0, 0, 0]	n/a	FR1	2	R1281E
4320.36	1.627	1140028	WORD	n/a	n/a	MOLE	1	4	[0, 0, 0]	n/a	FR1	2	R1281E
4321.987	0.987	1141655	WORD_OFF	n/a	n/a	MOLE	1	4	[0, 0, 0]	n/a	FR1	2	R1281E
4322.974	1.615	1142642	WORD	n/a	n/a	SCHOOL	2	4	[0, 0, 0]	n/a	FR1	2	R1281E
4324.589	0.771	1144257	WORD_OFF	n/a	n/a	SCHOOL	2	4	[0, 0, 0]	n/a	FR1	2	R1281E
4325.36	1.629	1145028	WORD	n/a	n/a	EAR	3	4	[0, 0, 0]	n/a	FR1	2	R1281E
4326.989	1.08	1146657	WORD_OFF	n/a	n/a	EAR	3	4	[0, 0, 0]	n/a	FR1	2	R1281E
4328.069	1.637	1147737	WORD	n/a	n/a	FISH	4	4	[0, 0, 0]	n/a	FR1	2	R1281E
4329.706	0.923	1149374	WORD_OFF	n/a	n/a	FISH	4	4	[0, 0, 0]	n/a	FR1	2	R1281E
4330.629	1.628	1150297	WORD	n/a	n/a	BEAK	5	4	[0, 0, 0]	n/a	FR1	2	R1281E
4332.257	0.764	1151925	WORD_OFF	n/a	n/a	BEAK	5	4	[0, 0, 0]	n/a	FR1	2	R1281E
4333.021	1.619	1152689	WORD	n/a	n/a	STICK	6	4	[0, 0, 0]	n/a	FR1	2	R1281E
4334.64	0.787	1154308	WORD_OFF	n/a	n/a	STICK	6	4	[0, 0, 0]	n/a	FR1	2	R1281E
4335.427	1.63	1155095	WORD	n/a	n/a	FROG	7	4	[0, 0, 0]	n/a	FR1	2	R1281E
4337.057	0.784	1156725	WORD_OFF	n/a	n/a	FROG	7	4	[0, 0, 0]	n/a	FR1	2	R1281E
4337.841	1.634	1157508	WORD	n/a	n/a	STOOL	8	4	[0, 0, 0]	n/a	FR1	2	R1281E
4339.475	0.82	1159142	WORD_OFF	n/a	n/a	STOOL	8	4	[0, 0, 0]	n/a	FR1	2	R1281E
4340.295	1.629	1159962	WORD	n/a	n/a	AXE	9	4	[0, 0, 0]	n/a	FR1	2	R1281E
4341.924	0.962	1161591	WORD_OFF	n/a	n/a	AXE	9	4	[0, 0, 0]	n/a	FR1	2	R1281E
4342.886	1.623	1162553	WORD	n/a	n/a	SHEEP	10	4	[0, 0, 0]	n/a	FR1	2	R1281E
4344.509	1.08	1164176	WORD_OFF	n/a	n/a	SHEEP	10	4	[0, 0, 0]	n/a	FR1	2	R1281E
4345.589	1.62	1165256	WORD	n/a	n/a	LEG	11	4	[0, 0, 0]	n/a	FR1	2	R1281E
4347.209	0.983	1166876	WORD_OFF	n/a	n/a	LEG	11	4	[0, 0, 0]	n/a	FR1	2	R1281E
4348.192	1.618	1167859	WORD	n/a	n/a	WORLD	12	4	[0, 0, 0]	n/a	FR1	2	R1281E
4349.81	0.0	1169477	WORD_OFF	n/a	n/a	WORLD	12	4	[0, 0, 0]	n/a	FR1	2	R1281E
4349.81	0.0	1169477	ENCODING_END	n/a	n/a	n/a	-999	4	[0, 0, 0]	n/a	FR1	2	R1281E
4349.81	0.001	1169477	DISTRACT_START	n/a	n/a	n/a	-999	4	[0, 0, 0]	n/a	FR1	2	R1281E
4349.811	0.015	1169478	START	n/a	n/a	n/a	-999	4	[-999, -999, -999]	n/a	FR1	2	R1281E
4349.826	3.801	1169493	PROB	3.801	n/a	n/a	-999	4	[3, 6, 1]	10	FR1	2	R1281E
4353.627	3.834	1173294	PROB	3.834	n/a	n/a	-999	4	[2, 5, 7]	14	FR1	2	R1281E
4357.461	4.001	1177128	PROB	4.001	n/a	n/a	-999	4	[1, 6, 2]	9	FR1	2	R1281E
4361.462	4.117	1181129	PROB	4.117	n/a	n/a	-999	4	[3, 8, 9]	20	FR1	2	R1281E
4365.579	3.951	1185245	PROB	3.951	n/a	n/a	-999	4	[5, 1, 4]	10	FR1	2	R1281E
4369.53	3.735	1189196	PROB	3.735	n/a	n/a	-999	4	[8, 3, 2]	10	FR1	2	R1281E
4373.265	0.016	1192931	STOP	n/a	n/a	n/a	-999	4	[-999, -999, -999]	n/a	FR1	2	R1281E
4373.281	0.661	1192947	DISTRACT_END	n/a	n/a	n/a	-999	4	[0, 0, 0]	n/a	FR1	2	R1281E
4373.942	1.672	1193608	RETRIEVAL_ORIENT_START	n/a	n/a	n/a	-999	4	[0, 0, 0]	n/a	FR1	2	R1281E
4375.614	0.001	1195280	RETRIEVAL_ORIENT_END	n/a	n/a	n/a	-999	4	[0, 0, 0]	n/a	FR1	2	R1281E
4375.615	9.424	1195281	REC_START	n/a	n/a	n/a	-999	4	[0, 0, 0]	n/a	FR1	2	R1281E
4385.039	3.072	1204705	REC_WORD	3.072	n/a	SHEEP	10	4	[0, 0, 0]	n/a	FR1	2	R1281E
4388.111	14.275	1207777	REC_WORD	14.275	n/a	MOLE	1	4	[0, 0, 0]	n/a	FR1	2	R1281E
4402.386	3.242	1222051	REC_WORD	3.242	n/a	SCHOOL	2	4	[0, 0, 0]	n/a	FR1	2	R1281E
4405.628	0.0	1225293	REC_END	n/a	n/a	n/a	-999	4	[0, 0, 0]	n/a	FR1	2	R1281E
4405.628	0.01	1225293	TRIAL_END	n/a	n/a	n/a	-999	4	[0, 0, 0]	n/a	FR1	2	R1281E
4405.638	0.001	1225303	TRIAL_START	n/a	n/a	n/a	-999	5	[0, 0, 0]	n/a	FR1	2	R1281E
4405.639	0.0	1225304	TRIAL	n/a	n/a	n/a	-999	5	[0, 0, 0]	n/a	FR1	2	R1281E
4405.639	19.034	1225304	WAITING_START	n/a	n/a	n/a	-999	5	[0, 0, 0]	n/a	FR1	2	R1281E
4424.673	0.001	1244337	WAITING_END	n/a	n/a	n/a	-999	5	[0, 0, 0]	n/a	FR1	2	R1281E
4424.674	10.428	1244338	COUNTDOWN_START	n/a	n/a	n/a	-999	5	[0, 0, 0]	n/a	FR1	2	R1281E
4435.102	0.001	1254766	COUNTDOWN_END	n/a	n/a	n/a	-999	5	[0, 0, 0]	n/a	FR1	2	R1281E
4435.103	1.121	1254767	ORIENT_START	n/a	n/a	n/a	-999	5	[0, 0, 0]	n/a	FR1	2	R1281E
4436.224	0.001	1255888	ORIENT_END	n/a	n/a	n/a	-999	5	[0, 0, 0]	n/a	FR1	2	R1281E
4436.225	1.131	1255889	ENCODING_START	n/a	n/a	n/a	-999	5	[0, 0, 0]	n/a	FR1	2	R1281E
4437.356	1.635	1257020	WORD	n/a	n/a	FRUIT	1	5	[0, 0, 0]	n/a	FR1	2	R1281E
4438.991	0.915	1258655	WORD_OFF	n/a	n/a	FRUIT	1	5	[0, 0, 0]	n/a	FR1	2	R1281E
4439.906	1.637	1259570	WORD	n/a	n/a	TOOTH	2	5	[0, 0, 0]	n/a	FR1	2	R1281E
4441.543	0.769	1261207	WORD_OFF	n/a	n/a	TOOTH	2	5	[0, 0, 0]	n/a	FR1	2	R1281E
4442.312	1.63	1261976	WORD	n/a	n/a	GLASS	3	5	[0, 0, 0]	n/a	FR1	2	R1281E
4443.942	1.009	1263606	WORD_OFF	n/a	n/a	GLASS	3	5	[0, 0, 0]	n/a	FR1	2	R1281E
4444.951	1.626	1264615	WORD	n/a	n/a	CALF	4	5	[0, 0, 0]	n/a	FR1	2	R1281E
4446.577	0.92	1266241	WORD_OFF	n/a	n/a	CALF	4	5	[0, 0, 0]	n/a	FR1	2	R1281E
4447.497	1.629	1267161	WORD	n/a	n/a	SUIT	5	5	[0, 0, 0]	n/a	FR1	2	R1281E
4449.126	0.761	1268790	WORD_OFF	n/a	n/a	SUIT	5	5	[0, 0, 0]	n/a	FR1	2	R1281E
4449.887	1.624	1269550	WORD	n/a	n/a	DOCK	6	5	[0, 0, 0]	n/a	FR1	2	R1281E
4451.511	0.83	1271174	WORD_OFF	n/a	n/a	DOCK	6	5	[0, 0, 0]	n/a	FR1	2	R1281E
4452.341	1.636	1272004	WORD	n/a	n/a	SHOE	7	5	[0, 0, 0]	n/a	FR1	2	R1281E
4453.977	1.139	1273640	WORD_OFF	n/a	n/a	SHOE	7	5	[0, 0, 0]	n/a	FR1	2	R1281E
4455.116	1.612	1274779	WORD	n/a	n/a	ROCK	8	5	[0, 0, 0]	n/a	FR1	2	R1281E
4456.728	0.773	1276391	WORD_OFF	n/a	n/a	ROCK	8	5	[0, 0, 0]	n/a	FR1	2	R1281E
4457.501	1.627	1277164	WORD	n/a	n/a	SQUARE	9	5	[0, 0, 0]	n/a	FR1	2	R1281E
4459.128	1.049	1278791	WORD_OFF	n/a	n/a	SQUARE	9	5	[0, 0, 0]	n/a	FR1	2	R1281E
4460.177	1.636	1279840	WORD	n/a	n/a	LIP	10	5	[0, 0, 0]	n/a	FR1	2	R1281E
4461.813	0.931	1281476	WORD_OFF	n/a	n/a	LIP	10	5	[0, 0, 0]	n/a	FR1	2	R1281E
4462.744	1.636	1282407	WORD	n/a	n/a	MULE	11	5	[0, 0, 0]	n/a	FR1	2	R1281E
4464.38	1.05	1284043	WORD_OFF	n/a	n/a	MULE	11	5	[0, 0, 0]	n/a	FR1	2	R1281E
4465.43	1.633	1285093	WORD	n/a	n/a	LAND	12	5	[0, 0, 0]	n/a	FR1	2	R1281E
4467.063	0.0	1286726	WORD_OFF	n/a	n/a	LAND	12	5	[0, 0, 0]	n/a	FR1	2	R1281E
4467.063	0.001	1286726	ENCODING_END	n/a	n/a	n/a	-999	5	[0, 0, 0]	n/a	FR1	2	R1281E
4467.064	0.0	1286727	DISTRACT_START	n/a	n/a	n/a	-999	5	[0, 0, 0]	n/a	FR1	2	R1281E
4467.064	0.015	1286727	START	n/a	n/a	n/a	-999	5	[-999, -999, -999]	n/a	FR1	2	R1281E
4467.079	4.168	1286742	PROB	4.168	n/a	n/a	-999	5	[2, 7, 9]	18	FR1	2	R1281E
4471.247	3.734	1290910	PROB	3.734	n/a	n/a	-999	5	[9, 4, 3]	16	FR1	2	R1281E
4474.981	3.918	1294644	PROB	3.918	n/a	n/a	-999	5	[9, 2, 6]	17	FR1	2	R1281E
4478.899	2.767	1298561	PROB	2.767	n/a	n/a	-999	5	[1, 9, 8]	18	FR1	2	R1281E
4481.666	3.483	1301328	PROB	3.483	n/a	n/a	-999	5	[5, 3, 4]	12	FR1	2	R1281E
4485.149	4.235	1304811	PROB	4.235	n/a	n/a	-999	5	[5, 4, 7]	16	FR1	2	R1281E
4489.384	0.017	1309046	STOP	n/a	n/a	n/a	-999	5	[-999, -999, -999]	n/a	FR1	2	R1281E
4489.401	0.627	1309063	DISTRACT_END	n/a	n/a	n/a	-999	5	[0, 0, 0]	n/a	FR1	2	R1281E
4490.028	1.707	1309690	RETRIEVAL_ORIENT_START	n/a	n/a	n/a	-999	5	[0, 0, 0]	n/a	FR1	2	R1281E
4491.735	0.0	1311397	RETRIEVAL_ORIENT_END	n/a	n/a	n/a	-999	5	[0, 0, 0]	n/a	FR1	2	R1281E
4491.735	0.845	1311397	REC_START	n/a	n/a	n/a	-999	5	[0, 0, 0]	n/a	FR1	2	R1281E
4492.58	3.165	1312242	REC_WORD	3.165	n/a	MULE	11	5	[0, 0, 0]	n/a	FR1	2	R1281E
4495.745	3.661	1315407	REC_WORD	3.661	n/a	FRUIT	1	5	[0, 0, 0]	n/a	FR1	2	R1281E
4499.406	6.01	1319068	REC_WORD	6.01	n/a	LIP	10	5	[0, 0, 0]	n/a	FR1	2	R1281E
4505.416	14.963	1325078	REC_WORD	14.963	n/a	FROG	-999	5	[0, 0, 0]	n/a	FR1	2	R1281E
4520.379	1.368	1340040	REC_WORD	1.368	n/a	SMILE	-999	5	[0, 0, 0]	n/a	FR1	2	R1281E
4521.747	0.0	1341408	TRIAL_END	n/a	n/a	n/a	-999	5	[0, 0, 0]	n/a	FR1	2	R1281E
4521.747	0.011	1341408	REC_END	n/a	n/a	n/a	-999	5	[0, 0, 0]	n/a	FR1	2	R1281E
4521.758	0.0	1341419	TRIAL_START	n/a	n/a	n/a	-999	6	[0, 0, 0]	n/a	FR1	2	R1281E
4521.758	0.0	1341419	TRIAL	n/a	n/a	n/a	-999	6	[0, 0, 0]	n/a	FR1	2	R1281E
4521.758	6.166	1341419	WAITING_START	n/a	n/a	n/a	-999	6	[0, 0, 0]	n/a	FR1	2	R1281E
4527.924	0.0	1347585	WAITING_END	n/a	n/a	n/a	-999	6	[0, 0, 0]	n/a	FR1	2	R1281E
4527.924	10.428	1347585	COUNTDOWN_START	n/a	n/a	n/a	-999	6	[0, 0, 0]	n/a	FR1	2	R1281E
4538.352	0.001	1358012	COUNTDOWN_END	n/a	n/a	n/a	-999	6	[0, 0, 0]	n/a	FR1	2	R1281E
4538.353	1.14	1358013	ORIENT_START	n/a	n/a	n/a	-999	6	[0, 0, 0]	n/a	FR1	2	R1281E
4539.493	0.001	1359153	ORIENT_END	n/a	n/a	n/a	-999	6	[0, 0, 0]	n/a	FR1	2	R1281E
4539.494	1.096	1359154	ENCODING_START	n/a	n/a	n/a	-999	6	[0, 0, 0]	n/a	FR1	2	R1281E
4540.59	1.636	1360250	WORD	n/a	n/a	BROOM	1	6	[0, 0, 0]	n/a	FR1	2	R1281E
4542.226	0.791	1361886	WORD_OFF	n/a	n/a	BROOM	1	6	[0, 0, 0]	n/a	FR1	2	R1281E
4543.017	1.627	1362677	WORD	n/a	n/a	MOUTH	2	6	[0, 0, 0]	n/a	FR1	2	R1281E
4544.644	1.058	1364304	WORD_OFF	n/a	n/a	MOUTH	2	6	[0, 0, 0]	n/a	FR1	2	R1281E
4545.702	1.626	1365362	WORD	n/a	n/a	FLAME	3	6	[0, 0, 0]	n/a	FR1	2	R1281E
4547.328	1.102	1366988	WORD_OFF	n/a	n/a	FLAME	3	6	[0, 0, 0]	n/a	FR1	2	R1281E
4548.43	1.631	1368090	WORD	n/a	n/a	DESK	4	6	[0, 0, 0]	n/a	FR1	2	R1281E
4550.061	0.817	1369721	WORD_OFF	n/a	n/a	DESK	4	6	[0, 0, 0]	n/a	FR1	2	R1281E
4550.878	1.634	1370538	WORD	n/a	n/a	FORK	5	6	[0, 0, 0]	n/a	FR1	2	R1281E
4552.512	1.055	1372172	WORD_OFF	n/a	n/a	FORK	5	6	[0, 0, 0]	n/a	FR1	2	R1281E
4553.567	1.628	1373227	WORD	n/a	n/a	SINK	6	6	[0, 0, 0]	n/a	FR1	2	R1281E
4555.195	0.871	1374855	WORD_OFF	n/a	n/a	SINK	6	6	[0, 0, 0]	n/a	FR1	2	R1281E
4556.066	1.63	1375726	WORD	n/a	n/a	BAT	7	6	[0, 0, 0]	n/a	FR1	2	R1281E
4557.696	0.977	1377356	WORD_OFF	n/a	n/a	BAT	7	6	[0, 0, 0]	n/a	FR1	2	R1281E
4558.673	1.624	1378333	WORD	n/a	n/a	FOAM	8	6	[0, 0, 0]	n/a	FR1	2	R1281E
4560.297	1.041	1379957	WORD_OFF	n/a	n/a	FOAM	8	6	[0, 0, 0]	n/a	FR1	2	R1281E
4561.338	1.625	1380998	WORD	n/a	n/a	DRUM	9	6	[0, 0, 0]	n/a	FR1	2	R1281E
4562.963	0.798	1382622	WORD_OFF	n/a	n/a	DRUM	9	6	[0, 0, 0]	n/a	FR1	2	R1281E
4563.761	1.62	1383420	WORD	n/a	n/a	LEAF	10	6	[0, 0, 0]	n/a	FR1	2	R1281E
4565.381	1.075	1385040	WORD_OFF	n/a	n/a	LEAF	10	6	[0, 0, 0]	n/a	FR1	2	R1281E
4566.456	1.625	1386115	WORD	n/a	n/a	CLIFF	11	6	[0, 0, 0]	n/a	FR1	2	R1281E
4568.081	1.047	1387740	WORD_OFF	n/a	n/a	CLIFF	11	6	[0, 0, 0]	n/a	FR1	2	R1281E
4569.128	1.637	1388787	WORD	n/a	n/a	TOY	12	6	[0, 0, 0]	n/a	FR1	2	R1281E
4570.765	0.001	1390424	WORD_OFF	n/a	n/a	TOY	12	6	[0, 0, 0]	n/a	FR1	2	R1281E
4570.766	0.0	1390425	ENCODING_END	n/a	n/a	n/a	-999	6	[0, 0, 0]	n/a	FR1	2	R1281E
4570.766	0.0	1390425	DISTRACT_START	n/a	n/a	n/a	-999	6	[0, 0, 0]	n/a	FR1	2	R1281E
4570.766	0.016	1390425	START	n/a	n/a	n/a	-999	6	[-999, -999, -999]	n/a	FR1	2	R1281E
4570.782	3.884	1390441	PROB	3.884	n/a	n/a	-999	6	[3, 5, 5]	13	FR1	2	R1281E
4574.666	2.734	1394325	PROB	2.734	n/a	n/a	-999	6	[5, 8, 2]	15	FR1	2	R1281E
4577.4	2.799	1397059	PROB	2.799	n/a	n/a	-999	6	[1, 2, 6]	9	FR1	2	R1281E
4580.199	3.535	1399858	PROB	3.535	n/a	n/a	-999	6	[7, 7, 2]	16	FR1	2	R1281E
4583.734	3.466	1403393	PROB	3.466	n/a	n/a	-999	6	[4, 1, 3]	8	FR1	2	R1281E
4587.2	5.94	1406859	PROB	5.94	n/a	n/a	-999	6	[9, 8, 5]	22	FR1	2	R1281E
4593.14	0.012	1412798	STOP	n/a	n/a	n/a	-999	6	[-999, -999, -999]	n/a	FR1	2	R1281E
4593.152	0.553	1412810	DISTRACT_END	n/a	n/a	n/a	-999	6	[0, 0, 0]	n/a	FR1	2	R1281E
4593.705	1.598	1413363	RETRIEVAL_ORIENT_START	n/a	n/a	n/a	-999	6	[0, 0, 0]	n/a	FR1	2	R1281E
4595.303	0.0	1414961	RETRIEVAL_ORIENT_END	n/a	n/a	n/a	-999	6	[0, 0, 0]	n/a	FR1	2	R1281E
4595.303	3.484	1414961	REC_START	n/a	n/a	n/a	-999	6	[0, 0, 0]	n/a	FR1	2	R1281E
4598.787	26.528	1418445	REC_WORD	26.528	n/a	FLAME	3	6	[0, 0, 0]	n/a	FR1	2	R1281E
4625.315	0.001	1444972	REC_END	n/a	n/a	n/a	-999	6	[0, 0, 0]	n/a	FR1	2	R1281E
4625.316	0.01	1444973	TRIAL_END	n/a	n/a	n/a	-999	6	[0, 0, 0]	n/a	FR1	2	R1281E
4625.326	0.001	1444983	TRIAL_START	n/a	n/a	n/a	-999	7	[0, 0, 0]	n/a	FR1	2	R1281E
4625.327	0.0	1444984	TRIAL	n/a	n/a	n/a	-999	7	[0, 0, 0]	n/a	FR1	2	R1281E
4625.327	8.933	1444984	WAITING_START	n/a	n/a	n/a	-999	7	[0, 0, 0]	n/a	FR1	2	R1281E
4634.26	0.0	1453917	COUNTDOWN_START	n/a	n/a	n/a	-999	7	[0, 0, 0]	n/a	FR1	2	R1281E
4634.26	10.429	1453917	WAITING_END	n/a	n/a	n/a	-999	7	[0, 0, 0]	n/a	FR1	2	R1281E
4644.689	0.001	1464346	COUNTDOWN_END	n/a	n/a	n/a	-999	7	[0, 0, 0]	n/a	FR1	2	R1281E
4644.69	1.205	1464347	ORIENT_START	n/a	n/a	n/a	-999	7	[0, 0, 0]	n/a	FR1	2	R1281E
4645.895	0.001	1465552	ORIENT_END	n/a	n/a	n/a	-999	7	[0, 0, 0]	n/a	FR1	2	R1281E
4645.896	1.044	1465553	ENCODING_START	n/a	n/a	n/a	-999	7	[0, 0, 0]	n/a	FR1	2	R1281E
4646.94	1.622	1466597	WORD	n/a	n/a	FOX	1	7	[0, 0, 0]	n/a	FR1	2	R1281E
4648.562	1.094	1468218	WORD_OFF	n/a	n/a	FOX	1	7	[0, 0, 0]	n/a	FR1	2	R1281E
4649.656	1.623	1469312	WORD	n/a	n/a	BEAR	2	7	[0, 0, 0]	n/a	FR1	2	R1281E
4651.279	0.814	1470935	WORD_OFF	n/a	n/a	BEAR	2	7	[0, 0, 0]	n/a	FR1	2	R1281E
4652.093	1.637	1471749	WORD	n/a	n/a	CRANE	3	7	[0, 0, 0]	n/a	FR1	2	R1281E
4653.73	0.797	1473386	WORD_OFF	n/a	n/a	CRANE	3	7	[0, 0, 0]	n/a	FR1	2	R1281E
4654.527	1.636	1474183	WORD	n/a	n/a	WORM	4	7	[0, 0, 0]	n/a	FR1	2	R1281E
4656.163	0.822	1475819	WORD_OFF	n/a	n/a	WORM	4	7	[0, 0, 0]	n/a	FR1	2	R1281E
4656.985	1.629	1476641	WORD	n/a	n/a	GOAT	5	7	[0, 0, 0]	n/a	FR1	2	R1281E
4658.614	1.116	1478270	WORD_OFF	n/a	n/a	GOAT	5	7	[0, 0, 0]	n/a	FR1	2	R1281E
4659.73	1.635	1479386	WORD	n/a	n/a	BEACH	6	7	[0, 0, 0]	n/a	FR1	2	R1281E
4661.365	0.773	1481021	WORD_OFF	n/a	n/a	BEACH	6	7	[0, 0, 0]	n/a	FR1	2	R1281E
4662.138	1.627	1481794	WORD	n/a	n/a	WEB	7	7	[0, 0, 0]	n/a	FR1	2	R1281E
4663.765	0.99	1483421	WORD_OFF	n/a	n/a	WEB	7	7	[0, 0, 0]	n/a	FR1	2	R1281E
4664.755	1.627	1484411	WORD	n/a	n/a	CHALK	8	7	[0, 0, 0]	n/a	FR1	2	R1281E
4666.382	1.075	1486038	WORD_OFF	n/a	n/a	CHALK	8	7	[0, 0, 0]	n/a	FR1	2	R1281E
4667.457	1.625	1487113	WORD	n/a	n/a	CROW	9	7	[0, 0, 0]	n/a	FR1	2	R1281E
4669.082	0.992	1488738	WORD_OFF	n/a	n/a	CROW	9	7	[0, 0, 0]	n/a	FR1	2	R1281E
4670.074	1.626	1489730	WORD	n/a	n/a	EGG	10	7	[0, 0, 0]	n/a	FR1	2	R1281E
4671.7	0.763	1491356	WORD_OFF	n/a	n/a	EGG	10	7	[0, 0, 0]	n/a	FR1	2	R1281E
4672.463	1.636	1492119	WORD	n/a	n/a	TAIL	11	7	[0, 0, 0]	n/a	FR1	2	R1281E
4674.099	0.996	1493755	WORD_OFF	n/a	n/a	TAIL	11	7	[0, 0, 0]	n/a	FR1	2	R1281E
4675.095	1.605	1494751	WORD	n/a	n/a	PIE	12	7	[0, 0, 0]	n/a	FR1	2	R1281E
4676.7	0.001	1496355	WORD_OFF	n/a	n/a	PIE	12	7	[0, 0, 0]	n/a	FR1	2	R1281E
4676.701	0.0	1496356	ENCODING_END	n/a	n/a	n/a	-999	7	[0, 0, 0]	n/a	FR1	2	R1281E
4676.701	0.0	1496356	DISTRACT_START	n/a	n/a	n/a	-999	7	[0, 0, 0]	n/a	FR1	2	R1281E
4676.701	0.016	1496356	START	n/a	n/a	n/a	-999	7	[-999, -999, -999]	n/a	FR1	2	R1281E
4676.717	4.951	1496372	PROB	4.951	n/a	n/a	-999	7	[8, 5, 3]	16	FR1	2	R1281E
4681.668	3.017	1501323	PROB	3.017	n/a	n/a	-999	7	[2, 2, 2]	6	FR1	2	R1281E
4684.685	3.516	1504340	PROB	3.516	n/a	n/a	-999	7	[8, 1, 7]	16	FR1	2	R1281E
4688.201	3.135	1507856	PROB	3.135	n/a	n/a	-999	7	[2, 2, 6]	10	FR1	2	R1281E
4691.336	3.167	1510991	PROB	3.167	n/a	n/a	-999	7	[2, 7, 9]	18	FR1	2	R1281E
4694.503	3.323	1514158	PROB	3.323	n/a	n/a	-999	7	[1, 4, 4]	9	FR1	2	R1281E
4697.826	0.012	1517481	STOP	n/a	n/a	n/a	-999	7	[-999, -999, -999]	n/a	FR1	2	R1281E
4697.838	0.52	1517493	DISTRACT_END	n/a	n/a	n/a	-999	7	[0, 0, 0]	n/a	FR1	2	R1281E
4698.358	1.629	1518013	RETRIEVAL_ORIENT_START	n/a	n/a	n/a	-999	7	[0, 0, 0]	n/a	FR1	2	R1281E
4699.987	0.0	1519642	RETRIEVAL_ORIENT_END	n/a	n/a	n/a	-999	7	[0, 0, 0]	n/a	FR1	2	R1281E
4699.987	1.254	1519642	REC_START	n/a	n/a	n/a	-999	7	[0, 0, 0]	n/a	FR1	2	R1281E
4701.241	2.135	1520896	REC_WORD	2.135	n/a	BEACH	6	7	[0, 0, 0]	n/a	FR1	2	R1281E
4703.376	1.955	1523031	REC_WORD	1.955	n/a	WEB	7	7	[0, 0, 0]	n/a	FR1	2	R1281E
4705.331	2.413	1524985	REC_WORD	2.413	n/a	CREAM	-999	7	[0, 0, 0]	n/a	FR1	2	R1281E
4707.744	2.076	1527398	REC_WORD	2.076	n/a	BEAR	2	7	[0, 0, 0]	n/a	FR1	2	R1281E
4709.82	1.0	1529474	REC_WORD	1.0	n/a	FOX	1	7	[0, 0, 0]	n/a	FR1	2	R1281E
4710.82	1.343	1530474	REC_WORD_VV	1.343	n/a	<>	-999	7	[0, 0, 0]	n/a	FR1	2	R1281E
4712.163	13.526	1531817	REC_WORD	13.526	n/a	WORM	4	7	[0, 0, 0]	n/a	FR1	2	R1281E
4725.689	4.312	1545343	REC_WORD	4.312	n/a	CROW	9	7	[0, 0, 0]	n/a	FR1	2	R1281E
4730.001	0.0	1549655	REC_END	n/a	n/a	n/a	-999	7	[0, 0, 0]	n/a	FR1	2	R1281E
4730.001	0.011	1549655	TRIAL_END	n/a	n/a	n/a	-999	7	[0, 0, 0]	n/a	FR1	2	R1281E
4730.012	0.0	1549666	TRIAL_START	n/a	n/a	n/a	-999	8	[0, 0, 0]	n/a	FR1	2	R1281E
4730.012	0.0	1549666	TRIAL	n/a	n/a	n/a	-999	8	[0, 0, 0]	n/a	FR1	2	R1281E
4730.012	8.699	1549666	WAITING_START	n/a	n/a	n/a	-999	8	[0, 0, 0]	n/a	FR1	2	R1281E
4738.711	0.001	1558364	WAITING_END	n/a	n/a	n/a	-999	8	[0, 0, 0]	n/a	FR1	2	R1281E
4738.712	10.428	1558365	COUNTDOWN_START	n/a	n/a	n/a	-999	8	[0, 0, 0]	n/a	FR1	2	R1281E
4749.14	0.001	1568793	COUNTDOWN_END	n/a	n/a	n/a	-999	8	[0, 0, 0]	n/a	FR1	2	R1281E
4749.141	1.055	1568794	ORIENT_START	n/a	n/a	n/a	-999	8	[0, 0, 0]	n/a	FR1	2	R1281E
4750.196	0.0	1569849	ENCODING_START	n/a	n/a	n/a	-999	8	[0, 0, 0]	n/a	FR1	2	R1281E
4750.196	1.082	1569849	ORIENT_END	n/a	n/a	n/a	-999	8	[0, 0, 0]	n/a	FR1	2	R1281E
4751.278	1.636	1570931	WORD	n/a	n/a	BENCH	1	8	[0, 0, 0]	n/a	FR1	2	R1281E
4752.914	0.756	1572567	WORD_OFF	n/a	n/a	BENCH	1	8	[0, 0, 0]	n/a	FR1	2	R1281E
4753.67	1.628	1573323	WORD	n/a	n/a	STRAW	2	8	[0, 0, 0]	n/a	FR1	2	R1281E
4755.298	0.994	1574951	WORD_OFF	n/a	n/a	STRAW	2	8	[0, 0, 0]	n/a	FR1	2	R1281E
4756.292	1.623	1575945	WORD	n/a	n/a	WHALE	3	8	[0, 0, 0]	n/a	FR1	2	R1281E
4757.915	0.964	1577568	WORD_OFF	n/a	n/a	WHALE	3	8	[0, 0, 0]	n/a	FR1	2	R1281E
4758.879	1.636	1578532	WORD	n/a	n/a	CHEEK	4	8	[0, 0, 0]	n/a	FR1	2	R1281E
4760.515	1.125	1580167	WORD_OFF	n/a	n/a	CHEEK	4	8	[0, 0, 0]	n/a	FR1	2	R1281E
4761.64	1.626	1581292	WORD	n/a	n/a	STOVE	5	8	[0, 0, 0]	n/a	FR1	2	R1281E
4763.266	0.773	1582918	WORD_OFF	n/a	n/a	STOVE	5	8	[0, 0, 0]	n/a	FR1	2	R1281E
4764.039	1.61	1583691	WORD	n/a	n/a	CLOCK	6	8	[0, 0, 0]	n/a	FR1	2	R1281E
4765.649	1.119	1585301	WORD_OFF	n/a	n/a	CLOCK	6	8	[0, 0, 0]	n/a	FR1	2	R1281E
4766.768	1.632	1586420	WORD	n/a	n/a	PLANT	7	8	[0, 0, 0]	n/a	FR1	2	R1281E
4768.4	0.819	1588052	WORD_OFF	n/a	n/a	PLANT	7	8	[0, 0, 0]	n/a	FR1	2	R1281E
4769.219	1.631	1588871	WORD	n/a	n/a	NOSE	8	8	[0, 0, 0]	n/a	FR1	2	R1281E
4770.85	0.865	1590502	WORD_OFF	n/a	n/a	NOSE	8	8	[0, 0, 0]	n/a	FR1	2	R1281E
4771.715	1.636	1591367	WORD	n/a	n/a	VAN	9	8	[0, 0, 0]	n/a	FR1	2	R1281E
4773.351	0.771	1593003	WORD_OFF	n/a	n/a	VAN	9	8	[0, 0, 0]	n/a	FR1	2	R1281E
4774.122	1.629	1593774	WORD	n/a	n/a	GEESE	10	8	[0, 0, 0]	n/a	FR1	2	R1281E
4775.751	0.833	1595403	WORD_OFF	n/a	n/a	GEESE	10	8	[0, 0, 0]	n/a	FR1	2	R1281E
4776.584	1.633	1596236	WORD	n/a	n/a	SNOW	11	8	[0, 0, 0]	n/a	FR1	2	R1281E
4778.217	0.98	1597869	WORD_OFF	n/a	n/a	SNOW	11	8	[0, 0, 0]	n/a	FR1	2	R1281E
4779.197	1.605	1598849	WORD	n/a	n/a	RAT	12	8	[0, 0, 0]	n/a	FR1	2	R1281E
4780.802	0.0	1600454	WORD_OFF	n/a	n/a	RAT	12	8	[0, 0, 0]	n/a	FR1	2	R1281E
4780.802	0.001	1600454	ENCODING_END	n/a	n/a	n/a	-999	8	[0, 0, 0]	n/a	FR1	2	R1281E
4780.803	0.0	1600455	DISTRACT_START	n/a	n/a	n/a	-999	8	[0, 0, 0]	n/a	FR1	2	R1281E
4780.803	0.016	1600455	START	n/a	n/a	n/a	-999	8	[-999, -999, -999]	n/a	FR1	2	R1281E
4780.819	5.266	1600471	PROB	5.266	n/a	n/a	-999	8	[3, 5, 7]	15	FR1	2	R1281E
4786.085	3.418	1605737	PROB	3.418	n/a	n/a	-999	8	[7, 7, 7]	21	FR1	2	R1281E
4789.503	14.033	1609154	PROB	14.033	n/a	n/a	-999	8	[6, 6, 7]	19	FR1	2	R1281E
4803.536	0.02	1623187	STOP	n/a	n/a	n/a	-999	8	[-999, -999, -999]	n/a	FR1	2	R1281E
4803.556	0.688	1623207	DISTRACT_END	n/a	n/a	n/a	-999	8	[0, 0, 0]	n/a	FR1	2	R1281E
4804.244	1.562	1623895	RETRIEVAL_ORIENT_START	n/a	n/a	n/a	-999	8	[0, 0, 0]	n/a	FR1	2	R1281E
4805.806	0.001	1625457	RETRIEVAL_ORIENT_END	n/a	n/a	n/a	-999	8	[0, 0, 0]	n/a	FR1	2	R1281E
4805.807	3.889	1625458	REC_START	n/a	n/a	n/a	-999	8	[0, 0, 0]	n/a	FR1	2	R1281E
4809.696	8.936	1629347	REC_WORD_VV	8.936	n/a	<>	-999	8	[0, 0, 0]	n/a	FR1	2	R1281E
4818.632	17.187	1638282	REC_WORD	17.187	n/a	BENCH	1	8	[0, 0, 0]	n/a	FR1	2	R1281E
4835.819	0.0	1655469	REC_END	n/a	n/a	n/a	-999	8	[0, 0, 0]	n/a	FR1	2	R1281E
4835.819	0.011	1655469	TRIAL_END	n/a	n/a	n/a	-999	8	[0, 0, 0]	n/a	FR1	2	R1281E
4835.83	0.0	1655480	WAITING_START	n/a	n/a	n/a	-999	9	[0, 0, 0]	n/a	FR1	2	R1281E
4835.83	0.0	1655480	TRIAL	n/a	n/a	n/a	-999	9	[0, 0, 0]	n/a	FR1	2	R1281E
4835.83	19.234	1655480	TRIAL_START	n/a	n/a	n/a	-999	9	[0, 0, 0]	n/a	FR1	2	R1281E
4855.064	0.001	1674713	WAITING_END	n/a	n/a	n/a	-999	9	[0, 0, 0]	n/a	FR1	2	R1281E
4855.065	10.429	1674714	COUNTDOWN_START	n/a	n/a	n/a	-999	9	[0, 0, 0]	n/a	FR1	2	R1281E
4865.494	0.0	1685143	COUNTDOWN_END	n/a	n/a	n/a	-999	9	[0, 0, 0]	n/a	FR1	2	R1281E
4865.494	1.19	1685143	ORIENT_START	n/a	n/a	n/a	-999	9	[0, 0, 0]	n/a	FR1	2	R1281E
4866.684	0.0	1686333	ORIENT_END	n/a	n/a	n/a	-999	9	[0, 0, 0]	n/a	FR1	2	R1281E
4866.684	0.753	1686333	ENCODING_START	n/a	n/a	n/a	-999	9	[0, 0, 0]	n/a	FR1	2	R1281E
4867.437	1.63	1687086	WORD	n/a	n/a	STEM	1	9	[0, 0, 0]	n/a	FR1	2	R1281E
4869.067	0.763	1688716	WORD_OFF	n/a	n/a	STEM	1	9	[0, 0, 0]	n/a	FR1	2	R1281E
4869.83	1.621	1689479	WORD	n/a	n/a	SAIL	2	9	[0, 0, 0]	n/a	FR1	2	R1281E
4871.451	0.803	1691100	WORD_OFF	n/a	n/a	SAIL	2	9	[0, 0, 0]	n/a	FR1	2	R1281E
4872.254	1.631	1691903	WORD	n/a	n/a	STEAM	3	9	[0, 0, 0]	n/a	FR1	2	R1281E
4873.885	1.06	1693533	WORD_OFF	n/a	n/a	STEAM	3	9	[0, 0, 0]	n/a	FR1	2	R1281E
4874.945	1.624	1694593	WORD	n/a	n/a	TIE	4	9	[0, 0, 0]	n/a	FR1	2	R1281E
4876.569	0.999	1696217	WORD_OFF	n/a	n/a	TIE	4	9	[0, 0, 0]	n/a	FR1	2	R1281E
4877.568	1.634	1697216	WORD	n/a	n/a	ROOT	5	9	[0, 0, 0]	n/a	FR1	2	R1281E
4879.202	0.909	1698850	WORD_OFF	n/a	n/a	ROOT	5	9	[0, 0, 0]	n/a	FR1	2	R1281E
4880.111	1.609	1699759	WORD	n/a	n/a	BANK	6	9	[0, 0, 0]	n/a	FR1	2	R1281E
4881.72	1.084	1701368	WORD_OFF	n/a	n/a	BANK	6	9	[0, 0, 0]	n/a	FR1	2	R1281E
4882.804	1.633	1702452	WORD	n/a	n/a	HOOF	7	9	[0, 0, 0]	n/a	FR1	2	R1281E
4884.437	0.856	1704085	WORD_OFF	n/a	n/a	HOOF	7	9	[0, 0, 0]	n/a	FR1	2	R1281E
4885.293	1.628	1704941	WORD	n/a	n/a	MAZE	8	9	[0, 0, 0]	n/a	FR1	2	R1281E
4886.921	1.032	1706569	WORD_OFF	n/a	n/a	MAZE	8	9	[0, 0, 0]	n/a	FR1	2	R1281E
4887.953	1.635	1707601	WORD	n/a	n/a	CLOTH	9	9	[0, 0, 0]	n/a	FR1	2	R1281E
4889.588	0.937	1709236	WORD_OFF	n/a	n/a	CLOTH	9	9	[0, 0, 0]	n/a	FR1	2	R1281E
4890.525	1.629	1710173	WORD	n/a	n/a	ANT	10	9	[0, 0, 0]	n/a	FR1	2	R1281E
4892.154	1.048	1711802	WORD_OFF	n/a	n/a	ANT	10	9	[0, 0, 0]	n/a	FR1	2	R1281E
4893.202	1.637	1712850	WORD	n/a	n/a	NET	11	9	[0, 0, 0]	n/a	FR1	2	R1281E
4894.839	1.043	1714487	WORD_OFF	n/a	n/a	NET	11	9	[0, 0, 0]	n/a	FR1	2	R1281E
4895.882	1.624	1715530	WORD	n/a	n/a	PLANE	12	9	[0, 0, 0]	n/a	FR1	2	R1281E
4897.506	0.0	1717154	WORD_OFF	n/a	n/a	PLANE	12	9	[0, 0, 0]	n/a	FR1	2	R1281E
4897.506	0.001	1717154	ENCODING_END	n/a	n/a	n/a	-999	9	[0, 0, 0]	n/a	FR1	2	R1281E
4897.507	0.0	1717155	DISTRACT_START	n/a	n/a	n/a	-999	9	[0, 0, 0]	n/a	FR1	2	R1281E
4897.507	0.015	1717155	START	n/a	n/a	n/a	-999	9	[-999, -999, -999]	n/a	FR1	2	R1281E
4897.522	4.001	1717170	PROB	4.001	n/a	n/a	-999	9	[2, 6, 6]	14	FR1	2	R1281E
4901.523	3.117	1721170	PROB	3.117	n/a	n/a	-999	9	[7, 3, 8]	18	FR1	2	R1281E
4904.64	3.751	1724287	PROB	3.751	n/a	n/a	-999	9	[2, 1, 4]	7	FR1	2	R1281E
4908.391	3.067	1728038	PROB	3.067	n/a	n/a	-999	9	[5, 6, 6]	17	FR1	2	R1281E
4911.458	3.516	1731105	PROB	3.516	n/a	n/a	-999	9	[9, 2, 9]	20	FR1	2	R1281E
4914.974	2.901	1734621	PROB	2.901	n/a	n/a	-999	9	[1, 8, 5]	14	FR1	2	R1281E
4917.875	0.018	1737522	STOP	n/a	n/a	n/a	-999	9	[-999, -999, -999]	n/a	FR1	2	R1281E
4917.893	0.574	1737540	DISTRACT_END	n/a	n/a	n/a	-999	9	[0, 0, 0]	n/a	FR1	2	R1281E
4918.467	1.592	1738114	RETRIEVAL_ORIENT_START	n/a	n/a	n/a	-999	9	[0, 0, 0]	n/a	FR1	2	R1281E
4920.059	0.0	1739706	REC_START	n/a	n/a	n/a	-999	9	[0, 0, 0]	n/a	FR1	2	R1281E
4920.059	0.759	1739706	RETRIEVAL_ORIENT_END	n/a	n/a	n/a	-999	9	[0, 0, 0]	n/a	FR1	2	R1281E
4920.818	2.06	1740465	REC_WORD	2.06	n/a	SAIL	2	9	[0, 0, 0]	n/a	FR1	2	R1281E
4922.878	4.781	1742525	REC_WORD	4.781	n/a	NET	11	9	[0, 0, 0]	n/a	FR1	2	R1281E
4927.659	6.972	1747306	REC_WORD	6.972	n/a	STEM	1	9	[0, 0, 0]	n/a	FR1	2	R1281E
4934.631	4.593	1754277	REC_WORD	4.593	n/a	ANT	10	9	[0, 0, 0]	n/a	FR1	2	R1281E
4939.224	4.102	1758870	REC_WORD	4.102	n/a	MOTH	-999	9	[0, 0, 0]	n/a	FR1	2	R1281E
4943.326	1.0	1762972	REC_WORD	1.0	n/a	HOUSE	-999	9	[0, 0, 0]	n/a	FR1	2	R1281E
4944.326	4.478	1763972	REC_WORD_VV	4.478	n/a	<>	-999	9	[0, 0, 0]	n/a	FR1	2	R1281E
4948.804	1.267	1768450	REC_WORD	1.267	n/a	BOAT	-999	9	[0, 0, 0]	n/a	FR1	2	R1281E
4950.071	0.001	1769717	REC_END	n/a	n/a	n/a	-999	9	[0, 0, 0]	n/a	FR1	2	R1281E
4950.072	0.01	1769718	TRIAL_END	n/a	n/a	n/a	-999	9	[0, 0, 0]	n/a	FR1	2	R1281E
4950.082	0.0	1769728	TRIAL_START	n/a	n/a	n/a	-999	10	[0, 0, 0]	n/a	FR1	2	R1281E
4950.082	0.0	1769728	TRIAL	n/a	n/a	n/a	-999	10	[0, 0, 0]	n/a	FR1	2	R1281E
4950.082	5.667	1769728	WAITING_START	n/a	n/a	n/a	-999	10	[0, 0, 0]	n/a	FR1	2	R1281E
4955.749	0.001	1775395	WAITING_END	n/a	n/a	n/a	-999	10	[0, 0, 0]	n/a	FR1	2	R1281E
4955.75	10.429	1775396	COUNTDOWN_START	n/a	n/a	n/a	-999	10	[0, 0, 0]	n/a	FR1	2	R1281E
4966.179	0.001	1785824	COUNTDOWN_END	n/a	n/a	n/a	-999	10	[0, 0, 0]	n/a	FR1	2	R1281E
4966.18	1.02	1785825	ORIENT_START	n/a	n/a	n/a	-999	10	[0, 0, 0]	n/a	FR1	2	R1281E
4967.2	0.001	1786845	ORIENT_END	n/a	n/a	n/a	-999	10	[0, 0, 0]	n/a	FR1	2	R1281E
4967.201	0.953	1786846	ENCODING_START	n/a	n/a	n/a	-999	10	[0, 0, 0]	n/a	FR1	2	R1281E
4968.154	1.631	1787799	WORD	n/a	n/a	OAK	1	10	[0, 0, 0]	n/a	FR1	2	R1281E
4969.785	0.936	1789430	WORD_OFF	n/a	n/a	OAK	1	10	[0, 0, 0]	n/a	FR1	2	R1281E
4970.721	1.632	1790366	WORD	n/a	n/a	DRESS	2	10	[0, 0, 0]	n/a	FR1	2	R1281E
4972.353	0.881	1791998	WORD_OFF	n/a	n/a	DRESS	2	10	[0, 0, 0]	n/a	FR1	2	R1281E
4973.234	1.635	1792879	WORD	n/a	n/a	LAMP	3	10	[0, 0, 0]	n/a	FR1	2	R1281E
4974.869	0.939	1794514	WORD_OFF	n/a	n/a	LAMP	3	10	[0, 0, 0]	n/a	FR1	2	R1281E
4975.808	1.629	1795453	WORD	n/a	n/a	TOAD	4	10	[0, 0, 0]	n/a	FR1	2	R1281E
4977.437	1.127	1797082	WORD_OFF	n/a	n/a	TOAD	4	10	[0, 0, 0]	n/a	FR1	2	R1281E
4978.564	1.622	1798209	WORD	n/a	n/a	FOG	5	10	[0, 0, 0]	n/a	FR1	2	R1281E
4980.186	1.105	1799831	WORD_OFF	n/a	n/a	FOG	5	10	[0, 0, 0]	n/a	FR1	2	R1281E
4981.291	1.63	1800936	WORD	n/a	n/a	PIPE	6	10	[0, 0, 0]	n/a	FR1	2	R1281E
4982.921	1.027	1802566	WORD_OFF	n/a	n/a	PIPE	6	10	[0, 0, 0]	n/a	FR1	2	R1281E
4983.948	1.623	1803593	WORD	n/a	n/a	ARM	7	10	[0, 0, 0]	n/a	FR1	2	R1281E
4985.571	0.9	1805215	WORD_OFF	n/a	n/a	ARM	7	10	[0, 0, 0]	n/a	FR1	2	R1281E
4986.471	1.633	1806115	WORD	n/a	n/a	PEAR	8	10	[0, 0, 0]	n/a	FR1	2	R1281E
4988.104	0.935	1807748	WORD_OFF	n/a	n/a	PEAR	8	10	[0, 0, 0]	n/a	FR1	2	R1281E
4989.039	1.633	1808683	WORD	n/a	n/a	SWORD	9	10	[0, 0, 0]	n/a	FR1	2	R1281E
4990.672	0.913	1810316	WORD_OFF	n/a	n/a	SWORD	9	10	[0, 0, 0]	n/a	FR1	2	R1281E
4991.585	1.62	1811229	WORD	n/a	n/a	FAN	10	10	[0, 0, 0]	n/a	FR1	2	R1281E
4993.205	1.061	1812849	WORD_OFF	n/a	n/a	FAN	10	10	[0, 0, 0]	n/a	FR1	2	R1281E
4994.266	1.624	1813910	WORD	n/a	n/a	BLUSH	11	10	[0, 0, 0]	n/a	FR1	2	R1281E
4995.89	1.036	1815534	WORD_OFF	n/a	n/a	BLUSH	11	10	[0, 0, 0]	n/a	FR1	2	R1281E
4996.926	1.631	1816570	WORD	n/a	n/a	WAND	12	10	[0, 0, 0]	n/a	FR1	2	R1281E
4998.557	0.0	1818201	WORD_OFF	n/a	n/a	WAND	12	10	[0, 0, 0]	n/a	FR1	2	R1281E
4998.557	0.001	1818201	ENCODING_END	n/a	n/a	n/a	-999	10	[0, 0, 0]	n/a	FR1	2	R1281E
4998.558	0.0	1818202	DISTRACT_START	n/a	n/a	n/a	-999	10	[0, 0, 0]	n/a	FR1	2	R1281E
4998.558	0.015	1818202	START	n/a	n/a	n/a	-999	10	[-999, -999, -999]	n/a	FR1	2	R1281E
4998.573	5.801	1818217	PROB	5.801	n/a	n/a	-999	10	[7, 6, 7]	20	FR1	2	R1281E
5004.374	3.817	1824018	PROB	3.817	n/a	n/a	-999	10	[3, 3, 9]	15	FR1	2	R1281E
5008.191	3.218	1827835	PROB	3.218	n/a	n/a	-999	10	[7, 9, 2]	18	FR1	2	R1281E
5011.409	2.783	1831053	PROB	2.783	n/a	n/a	-999	10	[2, 6, 1]	9	FR1	2	R1281E
5014.192	4.815	1833835	PROB	4.815	n/a	n/a	-999	10	[9, 6, 8]	23	FR1	2	R1281E
5019.007	0.019	1838650	STOP	n/a	n/a	n/a	-999	10	[-999, -999, -999]	n/a	FR1	2	R1281E
5019.026	0.502	1838669	DISTRACT_END	n/a	n/a	n/a	-999	10	[0, 0, 0]	n/a	FR1	2	R1281E
5019.528	1.699	1839171	RETRIEVAL_ORIENT_START	n/a	n/a	n/a	-999	10	[0, 0, 0]	n/a	FR1	2	R1281E
5021.227	0.001	1840870	RETRIEVAL_ORIENT_END	n/a	n/a	n/a	-999	10	[0, 0, 0]	n/a	FR1	2	R1281E
5021.228	1.904	1840871	REC_START	n/a	n/a	n/a	-999	10	[0, 0, 0]	n/a	FR1	2	R1281E
5023.132	21.823	1842775	REC_WORD	21.823	n/a	OAK	1	10	[0, 0, 0]	n/a	FR1	2	R1281E
5044.955	1.0	1864597	REC_WORD	1.0	n/a	CLOTH	-999	10	[0, 0, 0]	n/a	FR1	2	R1281E
5045.955	5.284	1865597	REC_WORD_VV	5.284	n/a	<>	-999	10	[0, 0, 0]	n/a	FR1	2	R1281E
5051.239	0.001	1870881	REC_END	n/a	n/a	n/a	-999	10	[0, 0, 0]	n/a	FR1	2	R1281E
5051.24	0.01	1870882	TRIAL_END	n/a	n/a	n/a	-999	10	[0, 0, 0]	n/a	FR1	2	R1281E
5051.25	0.0	1870892	TRIAL_START	n/a	n/a	n/a	-999	11	[0, 0, 0]	n/a	FR1	2	R1281E
5051.25	0.001	1870892	TRIAL	n/a	n/a	n/a	-999	11	[0, 0, 0]	n/a	FR1	2	R1281E
5051.251	10.15	1870893	WAITING_START	n/a	n/a	n/a	-999	11	[0, 0, 0]	n/a	FR1	2	R1281E
5061.401	0.001	1881043	WAITING_END	n/a	n/a	n/a	-999	11	[0, 0, 0]	n/a	FR1	2	R1281E
5061.402	10.428	1881044	COUNTDOWN_START	n/a	n/a	n/a	-999	11	[0, 0, 0]	n/a	FR1	2	R1281E
5071.83	0.001	1891471	COUNTDOWN_END	n/a	n/a	n/a	-999	11	[0, 0, 0]	n/a	FR1	2	R1281E
5071.831	1.155	1891472	ORIENT_START	n/a	n/a	n/a	-999	11	[0, 0, 0]	n/a	FR1	2	R1281E
5072.986	0.0	1892627	ENCODING_START	n/a	n/a	n/a	-999	11	[0, 0, 0]	n/a	FR1	2	R1281E
5072.986	0.823	1892627	ORIENT_END	n/a	n/a	n/a	-999	11	[0, 0, 0]	n/a	FR1	2	R1281E
5073.809	1.628	1893450	WORD	n/a	n/a	PLATE	1	11	[0, 0, 0]	n/a	FR1	2	R1281E
5075.437	0.932	1895078	WORD_OFF	n/a	n/a	PLATE	1	11	[0, 0, 0]	n/a	FR1	2	R1281E
5076.369	1.634	1896010	WORD	n/a	n/a	HEN	2	11	[0, 0, 0]	n/a	FR1	2	R1281E
5078.003	0.805	1897644	WORD_OFF	n/a	n/a	HEN	2	11	[0, 0, 0]	n/a	FR1	2	R1281E
5078.808	1.63	1898449	WORD	n/a	n/a	TOAST	3	11	[0, 0, 0]	n/a	FR1	2	R1281E
5080.438	0.962	1900079	WORD_OFF	n/a	n/a	TOAST	3	11	[0, 0, 0]	n/a	FR1	2	R1281E
5081.4	1.621	1901041	WORD	n/a	n/a	DOLL	4	11	[0, 0, 0]	n/a	FR1	2	R1281E
5083.021	0.974	1902662	WORD_OFF	n/a	n/a	DOLL	4	11	[0, 0, 0]	n/a	FR1	2	R1281E
5083.995	1.611	1903636	WORD	n/a	n/a	LAKE	5	11	[0, 0, 0]	n/a	FR1	2	R1281E
5085.606	1.063	1905247	WORD_OFF	n/a	n/a	LAKE	5	11	[0, 0, 0]	n/a	FR1	2	R1281E
5086.669	1.62	1906310	WORD	n/a	n/a	GATE	6	11	[0, 0, 0]	n/a	FR1	2	R1281E
5088.289	0.846	1907930	WORD_OFF	n/a	n/a	GATE	6	11	[0, 0, 0]	n/a	FR1	2	R1281E
5089.135	1.621	1908776	WORD	n/a	n/a	PIN	7	11	[0, 0, 0]	n/a	FR1	2	R1281E
5090.756	0.873	1910397	WORD_OFF	n/a	n/a	PIN	7	11	[0, 0, 0]	n/a	FR1	2	R1281E
5091.629	1.628	1911270	WORD	n/a	n/a	SEAT	8	11	[0, 0, 0]	n/a	FR1	2	R1281E
5093.257	1.045	1912898	WORD_OFF	n/a	n/a	SEAT	8	11	[0, 0, 0]	n/a	FR1	2	R1281E
5094.302	1.621	1913943	WORD	n/a	n/a	KITE	9	11	[0, 0, 0]	n/a	FR1	2	R1281E
5095.923	0.964	1915564	WORD_OFF	n/a	n/a	KITE	9	11	[0, 0, 0]	n/a	FR1	2	R1281E
5096.887	1.621	1916528	WORD	n/a	n/a	FORT	10	11	[0, 0, 0]	n/a	FR1	2	R1281E
5098.508	0.923	1918148	WORD_OFF	n/a	n/a	FORT	10	11	[0, 0, 0]	n/a	FR1	2	R1281E
5099.431	1.626	1919071	WORD	n/a	n/a	BRUSH	11	11	[0, 0, 0]	n/a	FR1	2	R1281E
5101.057	0.974	1920697	WORD_OFF	n/a	n/a	BRUSH	11	11	[0, 0, 0]	n/a	FR1	2	R1281E
5102.031	1.628	1921671	WORD	n/a	n/a	SHELL	12	11	[0, 0, 0]	n/a	FR1	2	R1281E
5103.659	0.0	1923299	WORD_OFF	n/a	n/a	SHELL	12	11	[0, 0, 0]	n/a	FR1	2	R1281E
5103.659	0.0	1923299	ENCODING_END	n/a	n/a	n/a	-999	11	[0, 0, 0]	n/a	FR1	2	R1281E
5103.659	0.001	1923299	DISTRACT_START	n/a	n/a	n/a	-999	11	[0, 0, 0]	n/a	FR1	2	R1281E
5103.66	0.015	1923300	START	n/a	n/a	n/a	-999	11	[-999, -999, -999]	n/a	FR1	2	R1281E
5103.675	4.467	1923315	PROB	4.467	n/a	n/a	-999	11	[6, 7, 2]	15	FR1	2	R1281E
5108.142	3.468	1927782	PROB	3.468	n/a	n/a	-999	11	[3, 9, 5]	17	FR1	2	R1281E
5111.61	5.117	1931250	PROB	5.117	n/a	n/a	-999	11	[1, 4, 7]	12	FR1	2	R1281E
5116.727	3.984	1936367	PROB	3.984	n/a	n/a	-999	11	[4, 7, 6]	17	FR1	2	R1281E
5120.711	2.601	1940351	PROB	2.601	n/a	n/a	-999	11	[5, 5, 1]	11	FR1	2	R1281E
5123.312	3.191	1942952	PROB	3.191	n/a	n/a	-999	11	[3, 2, 4]	9	FR1	2	R1281E
5126.503	0.01	1946142	STOP	n/a	n/a	n/a	-999	11	[-999, -999, -999]	n/a	FR1	2	R1281E
5126.513	0.632	1946152	DISTRACT_END	n/a	n/a	n/a	-999	11	[0, 0, 0]	n/a	FR1	2	R1281E
5127.145	1.568	1946784	RETRIEVAL_ORIENT_START	n/a	n/a	n/a	-999	11	[0, 0, 0]	n/a	FR1	2	R1281E
5128.713	0.0	1948352	RETRIEVAL_ORIENT_END	n/a	n/a	n/a	-999	11	[0, 0, 0]	n/a	FR1	2	R1281E
5128.713	1.849	1948352	REC_START	n/a	n/a	n/a	-999	11	[0, 0, 0]	n/a	FR1	2	R1281E
5130.562	28.164	1950201	REC_WORD	28.164	n/a	PLATE	1	11	[0, 0, 0]	n/a	FR1	2	R1281E
5158.726	0.0	1978364	REC_END	n/a	n/a	n/a	-999	11	[0, 0, 0]	n/a	FR1	2	R1281E
5158.726	0.01	1978364	TRIAL_END	n/a	n/a	n/a	-999	11	[0, 0, 0]	n/a	FR1	2	R1281E
5158.736	0.001	1978374	TRIAL_START	n/a	n/a	n/a	-999	12	[0, 0, 0]	n/a	FR1	2	R1281E
5158.737	0.0	1978375	WAITING_START	n/a	n/a	n/a	-999	12	[0, 0, 0]	n/a	FR1	2	R1281E
5158.737	4.949	1978375	TRIAL	n/a	n/a	n/a	-999	12	[0, 0, 0]	n/a	FR1	2	R1281E
5163.686	0.0	1983324	WAITING_END	n/a	n/a	n/a	-999	12	[0, 0, 0]	n/a	FR1	2	R1281E
5163.686	10.429	1983324	COUNTDOWN_START	n/a	n/a	n/a	-999	12	[0, 0, 0]	n/a	FR1	2	R1281E
5174.115	0.0	1993753	COUNTDOWN_END	n/a	n/a	n/a	-999	12	[0, 0, 0]	n/a	FR1	2	R1281E
5174.115	1.206	1993753	ORIENT_START	n/a	n/a	n/a	-999	12	[0, 0, 0]	n/a	FR1	2	R1281E
5175.321	0.001	1994959	ORIENT_END	n/a	n/a	n/a	-999	12	[0, 0, 0]	n/a	FR1	2	R1281E
5175.322	0.91	1994960	ENCODING_START	n/a	n/a	n/a	-999	12	[0, 0, 0]	n/a	FR1	2	R1281E
5176.232	1.623	1995870	WORD	n/a	n/a	CORN	1	12	[0, 0, 0]	n/a	FR1	2	R1281E
5177.855	0.92	1997493	WORD_OFF	n/a	n/a	CORN	1	12	[0, 0, 0]	n/a	FR1	2	R1281E
5178.775	1.631	1998413	WORD	n/a	n/a	ROOM	2	12	[0, 0, 0]	n/a	FR1	2	R1281E
5180.406	0.89	2000044	WORD_OFF	n/a	n/a	ROOM	2	12	[0, 0, 0]	n/a	FR1	2	R1281E
5181.296	1.626	2000934	WORD	n/a	n/a	NEST	3	12	[0, 0, 0]	n/a	FR1	2	R1281E
5182.922	0.787	2002559	WORD_OFF	n/a	n/a	NEST	3	12	[0, 0, 0]	n/a	FR1	2	R1281E
5183.709	1.631	2003346	WORD	n/a	n/a	CAT	4	12	[0, 0, 0]	n/a	FR1	2	R1281E
5185.34	1.048	2004977	WORD_OFF	n/a	n/a	CAT	4	12	[0, 0, 0]	n/a	FR1	2	R1281E
5186.388	1.635	2006025	WORD	n/a	n/a	TEETH	5	12	[0, 0, 0]	n/a	FR1	2	R1281E
5188.023	1.062	2007660	WORD_OFF	n/a	n/a	TEETH	5	12	[0, 0, 0]	n/a	FR1	2	R1281E
5189.085	1.622	2008722	WORD	n/a	n/a	HEART	6	12	[0, 0, 0]	n/a	FR1	2	R1281E
5190.707	1.147	2010344	WORD_OFF	n/a	n/a	HEART	6	12	[0, 0, 0]	n/a	FR1	2	R1281E
5191.854	1.637	2011491	WORD	n/a	n/a	CONE	7	12	[0, 0, 0]	n/a	FR1	2	R1281E
5193.491	0.827	2013128	WORD_OFF	n/a	n/a	CONE	7	12	[0, 0, 0]	n/a	FR1	2	R1281E
5194.318	1.623	2013955	WORD	n/a	n/a	JUICE	8	12	[0, 0, 0]	n/a	FR1	2	R1281E
5195.941	1.021	2015578	WORD_OFF	n/a	n/a	JUICE	8	12	[0, 0, 0]	n/a	FR1	2	R1281E
5196.962	1.63	2016599	WORD	n/a	n/a	ROOF	9	12	[0, 0, 0]	n/a	FR1	2	R1281E
5198.592	0.787	2018229	WORD_OFF	n/a	n/a	ROOF	9	12	[0, 0, 0]	n/a	FR1	2	R1281E
5199.379	1.629	2019016	WORD	n/a	n/a	STREET	10	12	[0, 0, 0]	n/a	FR1	2	R1281E
5201.008	0.788	2020645	WORD_OFF	n/a	n/a	STREET	10	12	[0, 0, 0]	n/a	FR1	2	R1281E
5201.796	1.63	2021433	WORD	n/a	n/a	SNAIL	11	12	[0, 0, 0]	n/a	FR1	2	R1281E
5203.426	0.848	2023063	WORD_OFF	n/a	n/a	SNAIL	11	12	[0, 0, 0]	n/a	FR1	2	R1281E
5204.274	1.636	2023911	WORD	n/a	n/a	SHARK	12	12	[0, 0, 0]	n/a	FR1	2	R1281E
5205.91	0.0	2025547	WORD_OFF	n/a	n/a	SHARK	12	12	[0, 0, 0]	n/a	FR1	2	R1281E
5205.91	0.001	2025547	ENCODING_END	n/a	n/a	n/a	-999	12	[0, 0, 0]	n/a	FR1	2	R1281E
5205.911	0.0	2025548	DISTRACT_START	n/a	n/a	n/a	-999	12	[0, 0, 0]	n/a	FR1	2	R1281E
5205.911	0.014	2025548	START	n/a	n/a	n/a	-999	12	[-999, -999, -999]	n/a	FR1	2	R1281E
5205.925	3.985	2025562	PROB	3.985	n/a	n/a	-999	12	[5, 1, 9]	15	FR1	2	R1281E
5209.91	2.567	2029547	PROB	2.567	n/a	n/a	-999	12	[1, 8, 3]	12	FR1	2	R1281E
5212.477	5.684	2032113	PROB	5.684	n/a	n/a	-999	12	[7, 9, 5]	21	FR1	2	R1281E
5218.161	5.352	2037797	PROB	5.352	n/a	n/a	-999	12	[6, 8, 5]	19	FR1	2	R1281E
5223.513	5.431	2043149	PROB	5.431	n/a	n/a	-999	12	[7, 8, 4]	21	FR1	2	R1281E
5228.944	0.019	2048580	STOP	n/a	n/a	n/a	-999	12	[-999, -999, -999]	n/a	FR1	2	R1281E
5228.963	0.535	2048599	DISTRACT_END	n/a	n/a	n/a	-999	12	[0, 0, 0]	n/a	FR1	2	R1281E
5229.498	1.599	2049134	RETRIEVAL_ORIENT_START	n/a	n/a	n/a	-999	12	[0, 0, 0]	n/a	FR1	2	R1281E
5231.097	0.0	2050733	RETRIEVAL_ORIENT_END	n/a	n/a	n/a	-999	12	[0, 0, 0]	n/a	FR1	2	R1281E
5231.097	3.399	2050733	REC_START	n/a	n/a	n/a	-999	12	[0, 0, 0]	n/a	FR1	2	R1281E
5234.496	1.0	2054132	REC_WORD	1.0	n/a	SHARK	12	12	[0, 0, 0]	n/a	FR1	2	R1281E
5235.496	10.096	2055132	REC_WORD_VV	10.096	n/a	<>	-999	12	[0, 0, 0]	n/a	FR1	2	R1281E
5245.592	15.521	2065227	REC_WORD	15.521	n/a	SNAIL	11	12	[0, 0, 0]	n/a	FR1	2	R1281E
5261.113	0.0	2080748	REC_END	n/a	n/a	n/a	-999	12	[0, 0, 0]	n/a	FR1	2	R1281E
5261.113	0.011	2080748	TRIAL_END	n/a	n/a	n/a	-999	12	[0, 0, 0]	n/a	FR1	2	R1281E
5261.124	0.0	2080759	TRIAL_START	n/a	n/a	n/a	-999	13	[0, 0, 0]	n/a	FR1	2	R1281E
5261.124	0.0	2080759	TRIAL	n/a	n/a	n/a	-999	13	[0, 0, 0]	n/a	FR1	2	R1281E
5261.124	4.012	2080759	WAITING_START	n/a	n/a	n/a	-999	13	[0, 0, 0]	n/a	FR1	2	R1281E
5265.136	0.0	2084771	COUNTDOWN_START	n/a	n/a	n/a	-999	13	[0, 0, 0]	n/a	FR1	2	R1281E
5265.136	10.429	2084771	WAITING_END	n/a	n/a	n/a	-999	13	[0, 0, 0]	n/a	FR1	2	R1281E
5275.565	0.001	2095199	COUNTDOWN_END	n/a	n/a	n/a	-999	13	[0, 0, 0]	n/a	FR1	2	R1281E
5275.566	1.223	2095200	ORIENT_START	n/a	n/a	n/a	-999	13	[0, 0, 0]	n/a	FR1	2	R1281E
5276.789	0.0	2096423	ORIENT_END	n/a	n/a	n/a	-999	13	[0, 0, 0]	n/a	FR1	2	R1281E
5276.789	0.926	2096423	ENCODING_START	n/a	n/a	n/a	-999	13	[0, 0, 0]	n/a	FR1	2	R1281E
5277.715	1.625	2097349	WORD	n/a	n/a	SLIME	1	13	[0, 0, 0]	n/a	FR1	2	R1281E
5279.34	1.05	2098974	WORD_OFF	n/a	n/a	SLIME	1	13	[0, 0, 0]	n/a	FR1	2	R1281E
5280.39	1.632	2100024	WORD	n/a	n/a	CART	2	13	[0, 0, 0]	n/a	FR1	2	R1281E
5282.022	0.844	2101656	WORD_OFF	n/a	n/a	CART	2	13	[0, 0, 0]	n/a	FR1	2	R1281E
5282.866	1.624	2102500	WORD	n/a	n/a	PEARL	3	13	[0, 0, 0]	n/a	FR1	2	R1281E
5284.49	0.915	2104124	WORD_OFF	n/a	n/a	PEARL	3	13	[0, 0, 0]	n/a	FR1	2	R1281E
5285.405	1.635	2105039	WORD	n/a	n/a	CUP	4	13	[0, 0, 0]	n/a	FR1	2	R1281E
5287.04	1.052	2106674	WORD_OFF	n/a	n/a	CUP	4	13	[0, 0, 0]	n/a	FR1	2	R1281E
5288.092	1.616	2107726	WORD	n/a	n/a	BATH	5	13	[0, 0, 0]	n/a	FR1	2	R1281E
5289.708	1.151	2109342	WORD_OFF	n/a	n/a	BATH	5	13	[0, 0, 0]	n/a	FR1	2	R1281E
5290.859	1.633	2110493	WORD	n/a	n/a	CAKE	6	13	[0, 0, 0]	n/a	FR1	2	R1281E
5292.492	1.008	2112126	WORD_OFF	n/a	n/a	CAKE	6	13	[0, 0, 0]	n/a	FR1	2	R1281E
5293.5	1.625	2113134	WORD	n/a	n/a	CLOWN	7	13	[0, 0, 0]	n/a	FR1	2	R1281E
5295.125	1.079	2114759	WORD_OFF	n/a	n/a	CLOWN	7	13	[0, 0, 0]	n/a	FR1	2	R1281E
5296.204	1.606	2115837	WORD	n/a	n/a	VASE	8	13	[0, 0, 0]	n/a	FR1	2	R1281E
5297.81	1.042	2117443	WORD_OFF	n/a	n/a	VASE	8	13	[0, 0, 0]	n/a	FR1	2	R1281E
5298.852	1.625	2118485	WORD	n/a	n/a	STAIR	9	13	[0, 0, 0]	n/a	FR1	2	R1281E
5300.477	1.094	2120110	WORD_OFF	n/a	n/a	STAIR	9	13	[0, 0, 0]	n/a	FR1	2	R1281E
5301.571	1.622	2121204	WORD	n/a	n/a	RICE	10	13	[0, 0, 0]	n/a	FR1	2	R1281E
5303.193	1.015	2122826	WORD_OFF	n/a	n/a	RICE	10	13	[0, 0, 0]	n/a	FR1	2	R1281E
5304.208	1.636	2123841	WORD	n/a	n/a	TREE	11	13	[0, 0, 0]	n/a	FR1	2	R1281E
5305.844	0.946	2125477	WORD_OFF	n/a	n/a	TREE	11	13	[0, 0, 0]	n/a	FR1	2	R1281E
5306.79	1.621	2126423	WORD	n/a	n/a	BEE	12	13	[0, 0, 0]	n/a	FR1	2	R1281E
5308.411	0.001	2128044	WORD_OFF	n/a	n/a	BEE	12	13	[0, 0, 0]	n/a	FR1	2	R1281E
5308.412	0.0	2128045	ENCODING_END	n/a	n/a	n/a	-999	13	[0, 0, 0]	n/a	FR1	2	R1281E
5308.412	0.0	2128045	DISTRACT_START	n/a	n/a	n/a	-999	13	[0, 0, 0]	n/a	FR1	2	R1281E
5308.412	0.016	2128045	START	n/a	n/a	n/a	-999	13	[-999, -999, -999]	n/a	FR1	2	R1281E
5308.428	5.167	2128061	PROB	5.167	n/a	n/a	-999	13	[1, 6, 3]	10	FR1	2	R1281E
5313.595	8.085	2133228	PROB	8.085	n/a	n/a	-999	13	[6, 5, 6]	17	FR1	2	R1281E
5321.68	3.4	2141313	PROB	3.4	n/a	n/a	-999	13	[7, 4, 6]	17	FR1	2	R1281E
5325.08	3.394	2144712	PROB	3.394	n/a	n/a	-999	13	[3, 1, 7]	12	FR1	2	R1281E
5328.474	0.007	2148106	STOP	n/a	n/a	n/a	-999	13	[-999, -999, -999]	n/a	FR1	2	R1281E
5328.481	0.535	2148113	DISTRACT_END	n/a	n/a	n/a	-999	13	[0, 0, 0]	n/a	FR1	2	R1281E
5329.016	1.616	2148648	RETRIEVAL_ORIENT_START	n/a	n/a	n/a	-999	13	[0, 0, 0]	n/a	FR1	2	R1281E
5330.632	0.0	2150264	RETRIEVAL_ORIENT_END	n/a	n/a	n/a	-999	13	[0, 0, 0]	n/a	FR1	2	R1281E
5330.632	0.849	2150264	REC_START	n/a	n/a	n/a	-999	13	[0, 0, 0]	n/a	FR1	2	R1281E
5331.481	9.285	2151113	REC_WORD	9.285	n/a	STAIR	9	13	[0, 0, 0]	n/a	FR1	2	R1281E
5340.766	9.666	2160398	REC_WORD_VV	9.666	n/a	<>	-999	13	[0, 0, 0]	n/a	FR1	2	R1281E
5350.432	1.0	2170064	REC_WORD	1.0	n/a	FLIGHT	-999	13	[0, 0, 0]	n/a	FR1	2	R1281E
5351.432	7.529	2171064	REC_WORD_VV	7.529	n/a	<>	-999	13	[0, 0, 0]	n/a	FR1	2	R1281E
5358.961	1.683	2178592	REC_WORD	1.683	n/a	SLIME	1	13	[0, 0, 0]	n/a	FR1	2	R1281E
5360.644	0.0	2180275	REC_END	n/a	n/a	n/a	-999	13	[0, 0, 0]	n/a	FR1	2	R1281E
5360.644	0.011	2180275	TRIAL_END	n/a	n/a	n/a	-999	13	[0, 0, 0]	n/a	FR1	2	R1281E
5360.655	0.0	2180286	TRIAL_START	n/a	n/a	n/a	-999	14	[0, 0, 0]	n/a	FR1	2	R1281E
5360.655	0.0	2180286	TRIAL	n/a	n/a	n/a	-999	14	[0, 0, 0]	n/a	FR1	2	R1281E
5360.655	2.133	2180286	WAITING_START	n/a	n/a	n/a	-999	14	[0, 0, 0]	n/a	FR1	2	R1281E
5362.788	0.0	2182419	COUNTDOWN_START	n/a	n/a	n/a	-999	14	[0, 0, 0]	n/a	FR1	2	R1281E
5362.788	10.429	2182419	WAITING_END	n/a	n/a	n/a	-999	14	[0, 0, 0]	n/a	FR1	2	R1281E
5373.217	0.0	2192848	COUNTDOWN_END	n/a	n/a	n/a	-999	14	[0, 0, 0]	n/a	FR1	2	R1281E
5373.217	1.122	2192848	ORIENT_START	n/a	n/a	n/a	-999	14	[0, 0, 0]	n/a	FR1	2	R1281E
5374.339	0.001	2193970	ORIENT_END	n/a	n/a	n/a	-999	14	[0, 0, 0]	n/a	FR1	2	R1281E
5374.34	0.918	2193971	ENCODING_START	n/a	n/a	n/a	-999	14	[0, 0, 0]	n/a	FR1	2	R1281E
5375.258	1.632	2194889	WORD	n/a	n/a	JAR	1	14	[0, 0, 0]	n/a	FR1	2	R1281E
5376.89	0.768	2196521	WORD_OFF	n/a	n/a	JAR	1	14	[0, 0, 0]	n/a	FR1	2	R1281E
5377.658	1.632	2197289	WORD	n/a	n/a	PIT	2	14	[0, 0, 0]	n/a	FR1	2	R1281E
5379.29	1.055	2198921	WORD_OFF	n/a	n/a	PIT	2	14	[0, 0, 0]	n/a	FR1	2	R1281E
5380.345	1.628	2199975	WORD	n/a	n/a	TENT	3	14	[0, 0, 0]	n/a	FR1	2	R1281E
5381.973	1.081	2201603	WORD_OFF	n/a	n/a	TENT	3	14	[0, 0, 0]	n/a	FR1	2	R1281E
5383.054	1.637	2202684	WORD	n/a	n/a	JAIL	4	14	[0, 0, 0]	n/a	FR1	2	R1281E
5384.691	0.77	2204321	WORD_OFF	n/a	n/a	JAIL	4	14	[0, 0, 0]	n/a	FR1	2	R1281E
5385.461	1.63	2205091	WORD	n/a	n/a	LAMB	5	14	[0, 0, 0]	n/a	FR1	2	R1281E
5387.091	0.844	2206721	WORD_OFF	n/a	n/a	LAMB	5	14	[0, 0, 0]	n/a	FR1	2	R1281E
5387.935	1.624	2207565	WORD	n/a	n/a	HILL	6	14	[0, 0, 0]	n/a	FR1	2	R1281E
5389.559	0.798	2209189	WORD_OFF	n/a	n/a	HILL	6	14	[0, 0, 0]	n/a	FR1	2	R1281E
5390.357	1.635	2209987	WORD	n/a	n/a	WAVE	7	14	[0, 0, 0]	n/a	FR1	2	R1281E
5391.992	1.13	2211622	WORD_OFF	n/a	n/a	WAVE	7	14	[0, 0, 0]	n/a	FR1	2	R1281E
5393.122	1.638	2212752	WORD	n/a	n/a	MAP	8	14	[0, 0, 0]	n/a	FR1	2	R1281E
5394.76	1.11	2214390	WORD_OFF	n/a	n/a	MAP	8	14	[0, 0, 0]	n/a	FR1	2	R1281E
5395.87	1.624	2215500	WORD	n/a	n/a	SHRIMP	9	14	[0, 0, 0]	n/a	FR1	2	R1281E
5397.494	0.806	2217124	WORD_OFF	n/a	n/a	SHRIMP	9	14	[0, 0, 0]	n/a	FR1	2	R1281E
5398.3	1.626	2217930	WORD	n/a	n/a	BAG	10	14	[0, 0, 0]	n/a	FR1	2	R1281E
5399.926	0.876	2219556	WORD_OFF	n/a	n/a	BAG	10	14	[0, 0, 0]	n/a	FR1	2	R1281E
5400.802	1.626	2220432	WORD	n/a	n/a	BOAT	11	14	[0, 0, 0]	n/a	FR1	2	R1281E
5402.428	1.006	2222058	WORD_OFF	n/a	n/a	BOAT	11	14	[0, 0, 0]	n/a	FR1	2	R1281E
5403.434	1.627	2223064	WORD	n/a	n/a	SUN	12	14	[0, 0, 0]	n/a	FR1	2	R1281E
5405.061	0.0	2224691	WORD_OFF	n/a	n/a	SUN	12	14	[0, 0, 0]	n/a	FR1	2	R1281E
5405.061	0.0	2224691	ENCODING_END	n/a	n/a	n/a	-999	14	[0, 0, 0]	n/a	FR1	2	R1281E
5405.061	0.0	2224691	DISTRACT_START	n/a	n/a	n/a	-999	14	[0, 0, 0]	n/a	FR1	2	R1281E
5405.061	0.016	2224691	START	n/a	n/a	n/a	-999	14	[-999, -999, -999]	n/a	FR1	2	R1281E
5405.077	4.001	2224707	PROB	4.001	n/a	n/a	-999	14	[1, 8, 1]	10	FR1	2	R1281E
5409.078	4.084	2228707	PROB	4.084	n/a	n/a	-999	14	[4, 4, 2]	10	FR1	2	R1281E
5413.162	3.984	2232791	PROB	3.984	n/a	n/a	-999	14	[7, 2, 5]	14	FR1	2	R1281E
5417.146	3.834	2236775	PROB	3.834	n/a	n/a	-999	14	[2, 3, 4]	9	FR1	2	R1281E
5420.98	4.073	2240609	PROB	4.073	n/a	n/a	-999	14	[7, 2, 4]	13	FR1	2	R1281E
5425.053	0.011	2244682	STOP	n/a	n/a	n/a	-999	14	[-999, -999, -999]	n/a	FR1	2	R1281E
5425.064	0.623	2244693	DISTRACT_END	n/a	n/a	n/a	-999	14	[0, 0, 0]	n/a	FR1	2	R1281E
5425.687	1.578	2245316	RETRIEVAL_ORIENT_START	n/a	n/a	n/a	-999	14	[0, 0, 0]	n/a	FR1	2	R1281E
5427.265	0.001	2246894	RETRIEVAL_ORIENT_END	n/a	n/a	n/a	-999	14	[0, 0, 0]	n/a	FR1	2	R1281E
5427.266	1.25	2246895	REC_START	n/a	n/a	n/a	-999	14	[0, 0, 0]	n/a	FR1	2	R1281E
5428.516	1.951	2248145	REC_WORD	1.951	n/a	BOAT	11	14	[0, 0, 0]	n/a	FR1	2	R1281E
5430.467	26.81	2250096	REC_WORD	26.81	n/a	SUN	12	14	[0, 0, 0]	n/a	FR1	2	R1281E
5457.277	0.0	2276905	REC_END	n/a	n/a	n/a	-999	14	[0, 0, 0]	n/a	FR1	2	R1281E
5457.277	0.011	2276905	TRIAL_END	n/a	n/a	n/a	-999	14	[0, 0, 0]	n/a	FR1	2	R1281E
5457.288	0.0	2276916	TRIAL_START	n/a	n/a	n/a	-999	15	[0, 0, 0]	n/a	FR1	2	R1281E
5457.288	0.0	2276916	TRIAL	n/a	n/a	n/a	-999	15	[0, 0, 0]	n/a	FR1	2	R1281E
5457.288	9.634	2276916	WAITING_START	n/a	n/a	n/a	-999	15	[0, 0, 0]	n/a	FR1	2	R1281E
5466.922	0.0	2286549	WAITING_END	n/a	n/a	n/a	-999	15	[0, 0, 0]	n/a	FR1	2	R1281E
5466.922	10.428	2286549	COUNTDOWN_START	n/a	n/a	n/a	-999	15	[0, 0, 0]	n/a	FR1	2	R1281E
5477.35	0.001	2296977	COUNTDOWN_END	n/a	n/a	n/a	-999	15	[0, 0, 0]	n/a	FR1	2	R1281E
5477.351	1.223	2296978	ORIENT_START	n/a	n/a	n/a	-999	15	[0, 0, 0]	n/a	FR1	2	R1281E
5478.574	0.001	2298201	ORIENT_END	n/a	n/a	n/a	-999	15	[0, 0, 0]	n/a	FR1	2	R1281E
5478.575	0.959	2298202	ENCODING_START	n/a	n/a	n/a	-999	15	[0, 0, 0]	n/a	FR1	2	R1281E
5479.534	1.623	2299161	WORD	n/a	n/a	COW	1	15	[0, 0, 0]	n/a	FR1	2	R1281E
5481.157	1.053	2300784	WORD_OFF	n/a	n/a	COW	1	15	[0, 0, 0]	n/a	FR1	2	R1281E
5482.21	1.632	2301837	WORD	n/a	n/a	BLOOM	2	15	[0, 0, 0]	n/a	FR1	2	R1281E
5483.842	0.767	2303469	WORD_OFF	n/a	n/a	BLOOM	2	15	[0, 0, 0]	n/a	FR1	2	R1281E
5484.609	1.633	2304236	WORD	n/a	n/a	PEN	3	15	[0, 0, 0]	n/a	FR1	2	R1281E
5486.242	0.844	2305869	WORD_OFF	n/a	n/a	PEN	3	15	[0, 0, 0]	n/a	FR1	2	R1281E
5487.086	1.624	2306713	WORD	n/a	n/a	TRASH	4	15	[0, 0, 0]	n/a	FR1	2	R1281E
5488.71	0.899	2308337	WORD_OFF	n/a	n/a	TRASH	4	15	[0, 0, 0]	n/a	FR1	2	R1281E
5489.609	1.634	2309236	WORD	n/a	n/a	SHEET	5	15	[0, 0, 0]	n/a	FR1	2	R1281E
5491.243	0.902	2310870	WORD_OFF	n/a	n/a	SHEET	5	15	[0, 0, 0]	n/a	FR1	2	R1281E
5492.145	1.632	2311772	WORD	n/a	n/a	SHIELD	6	15	[0, 0, 0]	n/a	FR1	2	R1281E
5493.777	0.857	2313403	WORD_OFF	n/a	n/a	SHIELD	6	15	[0, 0, 0]	n/a	FR1	2	R1281E
5494.634	1.627	2314260	WORD	n/a	n/a	GLOVE	7	15	[0, 0, 0]	n/a	FR1	2	R1281E
5496.261	1.103	2315887	WORD_OFF	n/a	n/a	GLOVE	7	15	[0, 0, 0]	n/a	FR1	2	R1281E
5497.364	1.63	2316990	WORD	n/a	n/a	FARM	8	15	[0, 0, 0]	n/a	FR1	2	R1281E
5498.994	1.139	2318620	WORD_OFF	n/a	n/a	FARM	8	15	[0, 0, 0]	n/a	FR1	2	R1281E
5500.133	1.629	2319759	WORD	n/a	n/a	CANE	9	15	[0, 0, 0]	n/a	FR1	2	R1281E
5501.762	0.83	2321388	WORD_OFF	n/a	n/a	CANE	9	15	[0, 0, 0]	n/a	FR1	2	R1281E
5502.592	1.636	2322218	WORD	n/a	n/a	SHIRT	10	15	[0, 0, 0]	n/a	FR1	2	R1281E
5504.228	0.814	2323854	WORD_OFF	n/a	n/a	SHIRT	10	15	[0, 0, 0]	n/a	FR1	2	R1281E
5505.042	1.637	2324668	WORD	n/a	n/a	ICE	11	15	[0, 0, 0]	n/a	FR1	2	R1281E
5506.679	0.844	2326305	WORD_OFF	n/a	n/a	ICE	11	15	[0, 0, 0]	n/a	FR1	2	R1281E
5507.523	1.623	2327149	WORD	n/a	n/a	BALL	12	15	[0, 0, 0]	n/a	FR1	2	R1281E
5509.146	0.0	2328772	DISTRACT_START	n/a	n/a	n/a	-999	15	[0, 0, 0]	n/a	FR1	2	R1281E
5509.146	0.0	2328772	WORD_OFF	n/a	n/a	BALL	12	15	[0, 0, 0]	n/a	FR1	2	R1281E
5509.146	0.0	2328772	ENCODING_END	n/a	n/a	n/a	-999	15	[0, 0, 0]	n/a	FR1	2	R1281E
5509.146	0.016	2328772	START	n/a	n/a	n/a	-999	15	[-999, -999, -999]	n/a	FR1	2	R1281E
5509.162	5.834	2328788	PROB	5.834	n/a	n/a	-999	15	[9, 5, 7]	21	FR1	2	R1281E
5514.996	7.968	2334622	PROB	7.968	n/a	n/a	-999	15	[7, 6, 9]	22	FR1	2	R1281E
5522.964	5.386	2342589	PROB	5.386	n/a	n/a	-999	15	[1, 3, 2]	6	FR1	2	R1281E
5528.35	5.429	2347975	PROB	5.429	n/a	n/a	-999	15	[6, 6, 7]	20	FR1	2	R1281E
5533.779	0.022	2353404	STOP	n/a	n/a	n/a	-999	15	[-999, -999, -999]	n/a	FR1	2	R1281E
5533.801	0.531	2353426	DISTRACT_END	n/a	n/a	n/a	-999	15	[0, 0, 0]	n/a	FR1	2	R1281E
5534.332	1.635	2353957	RETRIEVAL_ORIENT_START	n/a	n/a	n/a	-999	15	[0, 0, 0]	n/a	FR1	2	R1281E
5535.967	0.0	2355592	RETRIEVAL_ORIENT_END	n/a	n/a	n/a	-999	15	[0, 0, 0]	n/a	FR1	2	R1281E
5535.967	2.069	2355592	REC_START	n/a	n/a	n/a	-999	15	[0, 0, 0]	n/a	FR1	2	R1281E
5538.036	27.944	2357661	REC_WORD	27.944	n/a	CHAIR	-999	15	[0, 0, 0]	n/a	FR1	2	R1281E
5565.98	0.0	2385604	REC_END	n/a	n/a	n/a	-999	15	[0, 0, 0]	n/a	FR1	2	R1281E
5565.98	0.01	2385604	TRIAL_END	n/a	n/a	n/a	-999	15	[0, 0, 0]	n/a	FR1	2	R1281E
5565.99	0.001	2385614	TRIAL_START	n/a	n/a	n/a	-999	16	[0, 0, 0]	n/a	FR1	2	R1281E
5565.991	0.0	2385615	TRIAL	n/a	n/a	n/a	-999	16	[0, 0, 0]	n/a	FR1	2	R1281E
5565.991	135.706	2385615	WAITING_START	n/a	n/a	n/a	-999	16	[0, 0, 0]	n/a	FR1	2	R1281E
5701.697	0.0	2521316	WAITING_END	n/a	n/a	n/a	-999	16	[0, 0, 0]	n/a	FR1	2	R1281E
5701.697	10.43	2521316	COUNTDOWN_START	n/a	n/a	n/a	-999	16	[0, 0, 0]	n/a	FR1	2	R1281E
5712.127	0.0	2531746	COUNTDOWN_END	n/a	n/a	n/a	-999	16	[0, 0, 0]	n/a	FR1	2	R1281E
5712.127	1.255	2531746	ORIENT_START	n/a	n/a	n/a	-999	16	[0, 0, 0]	n/a	FR1	2	R1281E
5713.382	0.001	2533001	ORIENT_END	n/a	n/a	n/a	-999	16	[0, 0, 0]	n/a	FR1	2	R1281E
5713.383	0.986	2533002	ENCODING_START	n/a	n/a	n/a	-999	16	[0, 0, 0]	n/a	FR1	2	R1281E
5714.369	1.629	2533988	WORD	n/a	n/a	WHEEL	1	16	[0, 0, 0]	n/a	FR1	2	R1281E
5715.998	1.019	2535617	WORD_OFF	n/a	n/a	WHEEL	1	16	[0, 0, 0]	n/a	FR1	2	R1281E
5717.017	1.633	2536636	WORD	n/a	n/a	SEED	2	16	[0, 0, 0]	n/a	FR1	2	R1281E
5718.65	1.032	2538268	WORD_OFF	n/a	n/a	SEED	2	16	[0, 0, 0]	n/a	FR1	2	R1281E
5719.682	1.635	2539300	WORD	n/a	n/a	FLUTE	3	16	[0, 0, 0]	n/a	FR1	2	R1281E
5721.317	0.985	2540935	WORD_OFF	n/a	n/a	FLUTE	3	16	[0, 0, 0]	n/a	FR1	2	R1281E
5722.302	1.631	2541920	WORD	n/a	n/a	CAVE	4	16	[0, 0, 0]	n/a	FR1	2	R1281E
5723.933	1.086	2543551	WORD_OFF	n/a	n/a	CAVE	4	16	[0, 0, 0]	n/a	FR1	2	R1281E
5725.019	1.632	2544637	WORD	n/a	n/a	INK	5	16	[0, 0, 0]	n/a	FR1	2	R1281E
5726.651	0.819	2546269	WORD_OFF	n/a	n/a	INK	5	16	[0, 0, 0]	n/a	FR1	2	R1281E
5727.47	1.631	2547088	WORD	n/a	n/a	POND	6	16	[0, 0, 0]	n/a	FR1	2	R1281E
5729.101	1.051	2548719	WORD_OFF	n/a	n/a	POND	6	16	[0, 0, 0]	n/a	FR1	2	R1281E
5730.152	1.634	2549770	WORD	n/a	n/a	SPONGE	7	16	[0, 0, 0]	n/a	FR1	2	R1281E
5731.786	0.932	2551404	WORD_OFF	n/a	n/a	SPONGE	7	16	[0, 0, 0]	n/a	FR1	2	R1281E
5732.718	1.635	2552336	WORD	n/a	n/a	WEED	8	16	[0, 0, 0]	n/a	FR1	2	R1281E
5734.353	0.805	2553971	WORD_OFF	n/a	n/a	WEED	8	16	[0, 0, 0]	n/a	FR1	2	R1281E
5735.158	1.611	2554776	WORD	n/a	n/a	PRINCE	9	16	[0, 0, 0]	n/a	FR1	2	R1281E
5736.769	0.942	2556387	WORD_OFF	n/a	n/a	PRINCE	9	16	[0, 0, 0]	n/a	FR1	2	R1281E
5737.711	1.626	2557329	WORD	n/a	n/a	HOLE	10	16	[0, 0, 0]	n/a	FR1	2	R1281E
5739.337	0.767	2558955	WORD_OFF	n/a	n/a	HOLE	10	16	[0, 0, 0]	n/a	FR1	2	R1281E
5740.104	1.616	2559722	WORD	n/a	n/a	BOY	11	16	[0, 0, 0]	n/a	FR1	2	R1281E
5741.72	0.911	2561338	WORD_OFF	n/a	n/a	BOY	11	16	[0, 0, 0]	n/a	FR1	2	R1281E
5742.631	1.623	2562249	WORD	n/a	n/a	STORE	12	16	[0, 0, 0]	n/a	FR1	2	R1281E
5744.254	0.001	2563872	WORD_OFF	n/a	n/a	STORE	12	16	[0, 0, 0]	n/a	FR1	2	R1281E
5744.255	0.0	2563873	ENCODING_END	n/a	n/a	n/a	-999	16	[0, 0, 0]	n/a	FR1	2	R1281E
5744.255	0.0	2563873	DISTRACT_START	n/a	n/a	n/a	-999	16	[0, 0, 0]	n/a	FR1	2	R1281E
5744.255	0.016	2563873	START	n/a	n/a	n/a	-999	16	[-999, -999, -999]	n/a	FR1	2	R1281E
5744.271	4.451	2563889	PROB	4.451	n/a	n/a	-999	16	[3, 9, 9]	21	FR1	2	R1281E
5748.722	2.332	2568339	PROB	2.332	n/a	n/a	-999	16	[1, 4, 6]	11	FR1	2	R1281E
5751.054	3.319	2570671	PROB	3.319	n/a	n/a	-999	16	[4, 5, 9]	18	FR1	2	R1281E
5754.373	3.317	2573990	PROB	3.317	n/a	n/a	-999	16	[1, 3, 9]	13	FR1	2	R1281E
5757.69	3.433	2577307	PROB	3.433	n/a	n/a	-999	16	[1, 6, 3]	10	FR1	2	R1281E
5761.123	3.437	2580740	PROB	3.437	n/a	n/a	-999	16	[1, 8, 7]	16	FR1	2	R1281E
5764.56	0.015	2584177	STOP	n/a	n/a	n/a	-999	16	[-999, -999, -999]	n/a	FR1	2	R1281E
5764.575	0.661	2584192	DISTRACT_END	n/a	n/a	n/a	-999	16	[0, 0, 0]	n/a	FR1	2	R1281E
5765.236	1.656	2584853	RETRIEVAL_ORIENT_START	n/a	n/a	n/a	-999	16	[0, 0, 0]	n/a	FR1	2	R1281E
5766.892	0.0	2586509	RETRIEVAL_ORIENT_END	n/a	n/a	n/a	-999	16	[0, 0, 0]	n/a	FR1	2	R1281E
5766.892	6.044	2586509	REC_START	n/a	n/a	n/a	-999	16	[0, 0, 0]	n/a	FR1	2	R1281E
5772.936	7.989	2592553	REC_WORD	7.989	n/a	JAIL	-999	16	[0, 0, 0]	n/a	FR1	2	R1281E
5780.925	7.398	2600541	REC_WORD	7.398	n/a	MOLE	-999	16	[0, 0, 0]	n/a	FR1	2	R1281E
5788.323	8.581	2607939	REC_WORD	8.581	n/a	SAND	-999	16	[0, 0, 0]	n/a	FR1	2	R1281E
5796.904	0.0	2616520	REC_END	n/a	n/a	n/a	-999	16	[0, 0, 0]	n/a	FR1	2	R1281E
5796.904	0.011	2616520	TRIAL_END	n/a	n/a	n/a	-999	16	[0, 0, 0]	n/a	FR1	2	R1281E
5796.915	0.0	2616531	WAITING_START	n/a	n/a	n/a	-999	17	[0, 0, 0]	n/a	FR1	2	R1281E
5796.915	0.0	2616531	TRIAL	n/a	n/a	n/a	-999	17	[0, 0, 0]	n/a	FR1	2	R1281E
5796.915	13.484	2616531	TRIAL_START	n/a	n/a	n/a	-999	17	[0, 0, 0]	n/a	FR1	2	R1281E
5810.399	0.001	2630014	WAITING_END	n/a	n/a	n/a	-999	17	[0, 0, 0]	n/a	FR1	2	R1281E
5810.4	10.429	2630015	COUNTDOWN_START	n/a	n/a	n/a	-999	17	[0, 0, 0]	n/a	FR1	2	R1281E
5820.829	0.0	2640444	COUNTDOWN_END	n/a	n/a	n/a	-999	17	[0, 0, 0]	n/a	FR1	2	R1281E
5820.829	1.221	2640444	ORIENT_START	n/a	n/a	n/a	-999	17	[0, 0, 0]	n/a	FR1	2	R1281E
5822.05	0.001	2641665	ORIENT_END	n/a	n/a	n/a	-999	17	[0, 0, 0]	n/a	FR1	2	R1281E
5822.051	1.13	2641666	ENCODING_START	n/a	n/a	n/a	-999	17	[0, 0, 0]	n/a	FR1	2	R1281E
5823.181	1.638	2642796	WORD	n/a	n/a	BREAD	1	17	[0, 0, 0]	n/a	FR1	2	R1281E
5824.819	0.842	2644434	WORD_OFF	n/a	n/a	BREAD	1	17	[0, 0, 0]	n/a	FR1	2	R1281E
5825.661	1.625	2645276	WORD	n/a	n/a	BOOK	2	17	[0, 0, 0]	n/a	FR1	2	R1281E
5827.286	0.841	2646901	WORD_OFF	n/a	n/a	BOOK	2	17	[0, 0, 0]	n/a	FR1	2	R1281E
5828.127	1.626	2647742	WORD	n/a	n/a	RIB	3	17	[0, 0, 0]	n/a	FR1	2	R1281E
5829.753	0.814	2649368	WORD_OFF	n/a	n/a	RIB	3	17	[0, 0, 0]	n/a	FR1	2	R1281E
5830.567	1.635	2650182	WORD	n/a	n/a	EEL	4	17	[0, 0, 0]	n/a	FR1	2	R1281E
5832.202	0.798	2651816	WORD_OFF	n/a	n/a	EEL	4	17	[0, 0, 0]	n/a	FR1	2	R1281E
5833.0	1.637	2652614	WORD	n/a	n/a	MUG	5	17	[0, 0, 0]	n/a	FR1	2	R1281E
5834.637	0.947	2654251	WORD_OFF	n/a	n/a	MUG	5	17	[0, 0, 0]	n/a	FR1	2	R1281E
5835.584	1.636	2655198	WORD	n/a	n/a	TOE	6	17	[0, 0, 0]	n/a	FR1	2	R1281E
5837.22	1.118	2656834	WORD_OFF	n/a	n/a	TOE	6	17	[0, 0, 0]	n/a	FR1	2	R1281E
5838.338	1.632	2657952	WORD	n/a	n/a	BOWL	7	17	[0, 0, 0]	n/a	FR1	2	R1281E
5839.97	1.063	2659584	WORD_OFF	n/a	n/a	BOWL	7	17	[0, 0, 0]	n/a	FR1	2	R1281E
5841.033	1.622	2660647	WORD	n/a	n/a	ELF	8	17	[0, 0, 0]	n/a	FR1	2	R1281E
5842.655	0.872	2662269	WORD_OFF	n/a	n/a	ELF	8	17	[0, 0, 0]	n/a	FR1	2	R1281E
5843.527	1.627	2663141	WORD	n/a	n/a	BARN	9	17	[0, 0, 0]	n/a	FR1	2	R1281E
5845.154	0.912	2664768	WORD_OFF	n/a	n/a	BARN	9	17	[0, 0, 0]	n/a	FR1	2	R1281E
5846.066	1.623	2665680	WORD	n/a	n/a	CUBE	10	17	[0, 0, 0]	n/a	FR1	2	R1281E
5847.689	0.874	2667303	WORD_OFF	n/a	n/a	CUBE	10	17	[0, 0, 0]	n/a	FR1	2	R1281E
5848.563	1.626	2668177	WORD	n/a	n/a	CAR	11	17	[0, 0, 0]	n/a	FR1	2	R1281E
5850.189	1.063	2669803	WORD_OFF	n/a	n/a	CAR	11	17	[0, 0, 0]	n/a	FR1	2	R1281E
5851.252	1.621	2670866	WORD	n/a	n/a	BRIDGE	12	17	[0, 0, 0]	n/a	FR1	2	R1281E
5852.873	0.001	2672487	WORD_OFF	n/a	n/a	BRIDGE	12	17	[0, 0, 0]	n/a	FR1	2	R1281E
5852.874	0.0	2672488	ENCODING_END	n/a	n/a	n/a	-999	17	[0, 0, 0]	n/a	FR1	2	R1281E
5852.874	0.0	2672488	DISTRACT_START	n/a	n/a	n/a	-999	17	[0, 0, 0]	n/a	FR1	2	R1281E
5852.874	0.016	2672488	START	n/a	n/a	n/a	-999	17	[-999, -999, -999]	n/a	FR1	2	R1281E
5852.89	3.751	2672504	PROB	3.751	n/a	n/a	-999	17	[7, 8, 2]	17	FR1	2	R1281E
5856.641	3.933	2676255	PROB	3.933	n/a	n/a	-999	17	[6, 6, 9]	21	FR1	2	R1281E
5860.574	4.201	2680187	PROB	4.201	n/a	n/a	-999	17	[7, 4, 7]	18	FR1	2	R1281E
5864.775	3.951	2684388	PROB	3.951	n/a	n/a	-999	17	[7, 4, 1]	12	FR1	2	R1281E
5868.726	3.266	2688339	PROB	3.266	n/a	n/a	-999	17	[9, 2, 4]	15	FR1	2	R1281E
5871.992	3.687	2691605	PROB	3.687	n/a	n/a	-999	17	[4, 3, 4]	13	FR1	2	R1281E
5875.679	0.015	2695292	STOP	n/a	n/a	n/a	-999	17	[-999, -999, -999]	n/a	FR1	2	R1281E
5875.694	0.54	2695307	DISTRACT_END	n/a	n/a	n/a	-999	17	[0, 0, 0]	n/a	FR1	2	R1281E
5876.234	1.693	2695847	RETRIEVAL_ORIENT_START	n/a	n/a	n/a	-999	17	[0, 0, 0]	n/a	FR1	2	R1281E
5877.927	0.0	2697540	REC_START	n/a	n/a	n/a	-999	17	[0, 0, 0]	n/a	FR1	2	R1281E
5877.927	5.764	2697540	RETRIEVAL_ORIENT_END	n/a	n/a	n/a	-999	17	[0, 0, 0]	n/a	FR1	2	R1281E
5883.691	18.381	2703304	REC_WORD_VV	18.381	n/a	<>	-999	17	[0, 0, 0]	n/a	FR1	2	R1281E
5902.072	5.867	2721684	REC_WORD	5.867	n/a	CUBE	10	17	[0, 0, 0]	n/a	FR1	2	R1281E
5907.939	0.0	2727551	REC_END	n/a	n/a	n/a	-999	17	[0, 0, 0]	n/a	FR1	2	R1281E
5907.939	0.011	2727551	TRIAL_END	n/a	n/a	n/a	-999	17	[0, 0, 0]	n/a	FR1	2	R1281E
5907.95	0.0	2727562	TRIAL_START	n/a	n/a	n/a	-999	18	[0, 0, 0]	n/a	FR1	2	R1281E
5907.95	0.0	2727562	TRIAL	n/a	n/a	n/a	-999	18	[0, 0, 0]	n/a	FR1	2	R1281E
5907.95	6.983	2727562	WAITING_START	n/a	n/a	n/a	-999	18	[0, 0, 0]	n/a	FR1	2	R1281E
5914.933	0.001	2734545	WAITING_END	n/a	n/a	n/a	-999	18	[0, 0, 0]	n/a	FR1	2	R1281E
5914.934	10.428	2734546	COUNTDOWN_START	n/a	n/a	n/a	-999	18	[0, 0, 0]	n/a	FR1	2	R1281E
5925.362	0.001	2744973	COUNTDOWN_END	n/a	n/a	n/a	-999	18	[0, 0, 0]	n/a	FR1	2	R1281E
5925.363	1.073	2744974	ORIENT_START	n/a	n/a	n/a	-999	18	[0, 0, 0]	n/a	FR1	2	R1281E
5926.436	0.001	2746047	ORIENT_END	n/a	n/a	n/a	-999	18	[0, 0, 0]	n/a	FR1	2	R1281E
5926.437	0.987	2746048	ENCODING_START	n/a	n/a	n/a	-999	18	[0, 0, 0]	n/a	FR1	2	R1281E
5927.424	1.629	2747035	WORD	n/a	n/a	HOOK	1	18	[0, 0, 0]	n/a	FR1	2	R1281E
5929.053	0.795	2748664	WORD_OFF	n/a	n/a	HOOK	1	18	[0, 0, 0]	n/a	FR1	2	R1281E
5929.848	1.623	2749459	WORD	n/a	n/a	CHIEF	2	18	[0, 0, 0]	n/a	FR1	2	R1281E
5931.471	0.807	2751082	WORD_OFF	n/a	n/a	CHIEF	2	18	[0, 0, 0]	n/a	FR1	2	R1281E
5932.278	1.626	2751889	WORD	n/a	n/a	MOUSE	3	18	[0, 0, 0]	n/a	FR1	2	R1281E
5933.904	1.063	2753515	WORD_OFF	n/a	n/a	MOUSE	3	18	[0, 0, 0]	n/a	FR1	2	R1281E
5934.967	1.638	2754578	WORD	n/a	n/a	GRASS	4	18	[0, 0, 0]	n/a	FR1	2	R1281E
5936.605	0.791	2756216	WORD_OFF	n/a	n/a	GRASS	4	18	[0, 0, 0]	n/a	FR1	2	R1281E
5937.396	1.625	2757007	WORD	n/a	n/a	MILK	5	18	[0, 0, 0]	n/a	FR1	2	R1281E
5939.021	0.978	2758632	WORD_OFF	n/a	n/a	MILK	5	18	[0, 0, 0]	n/a	FR1	2	R1281E
5939.999	1.623	2759610	WORD	n/a	n/a	BRANCH	6	18	[0, 0, 0]	n/a	FR1	2	R1281E
5941.622	0.987	2761233	WORD_OFF	n/a	n/a	BRANCH	6	18	[0, 0, 0]	n/a	FR1	2	R1281E
5942.609	1.63	2762220	WORD	n/a	n/a	SKI	7	18	[0, 0, 0]	n/a	FR1	2	R1281E
5944.239	1.121	2763849	WORD_OFF	n/a	n/a	SKI	7	18	[0, 0, 0]	n/a	FR1	2	R1281E
5945.36	1.629	2764970	WORD	n/a	n/a	PURSE	8	18	[0, 0, 0]	n/a	FR1	2	R1281E
5946.989	1.108	2766599	WORD_OFF	n/a	n/a	PURSE	8	18	[0, 0, 0]	n/a	FR1	2	R1281E
5948.097	1.627	2767707	WORD	n/a	n/a	DUCK	9	18	[0, 0, 0]	n/a	FR1	2	R1281E
5949.724	0.866	2769334	WORD_OFF	n/a	n/a	DUCK	9	18	[0, 0, 0]	n/a	FR1	2	R1281E
5950.59	1.633	2770200	WORD	n/a	n/a	FENCE	10	18	[0, 0, 0]	n/a	FR1	2	R1281E
5952.223	1.101	2771833	WORD_OFF	n/a	n/a	FENCE	10	18	[0, 0, 0]	n/a	FR1	2	R1281E
5953.324	1.633	2772934	WORD	n/a	n/a	SALT	11	18	[0, 0, 0]	n/a	FR1	2	R1281E
5954.957	0.808	2774567	WORD_OFF	n/a	n/a	SALT	11	18	[0, 0, 0]	n/a	FR1	2	R1281E
5955.765	1.627	2775375	WORD	n/a	n/a	CORD	12	18	[0, 0, 0]	n/a	FR1	2	R1281E
5957.392	0.0	2777002	WORD_OFF	n/a	n/a	CORD	12	18	[0, 0, 0]	n/a	FR1	2	R1281E
5957.392	0.0	2777002	ENCODING_END	n/a	n/a	n/a	-999	18	[0, 0, 0]	n/a	FR1	2	R1281E
5957.392	0.001	2777002	DISTRACT_START	n/a	n/a	n/a	-999	18	[0, 0, 0]	n/a	FR1	2	R1281E
5957.393	0.015	2777003	START	n/a	n/a	n/a	-999	18	[-999, -999, -999]	n/a	FR1	2	R1281E
5957.408	3.884	2777018	PROB	3.884	n/a	n/a	-999	18	[4, 8, 5]	17	FR1	2	R1281E
5961.292	3.417	2780902	PROB	3.417	n/a	n/a	-999	18	[8, 4, 2]	14	FR1	2	R1281E
5964.709	2.868	2784319	PROB	2.868	n/a	n/a	-999	18	[7, 1, 1]	9	FR1	2	R1281E
5967.577	3.583	2787187	PROB	3.583	n/a	n/a	-999	18	[8, 6, 6]	20	FR1	2	R1281E
5971.16	7.352	2790770	PROB	7.352	n/a	n/a	-999	18	[6, 5, 2]	13	FR1	2	R1281E
5978.512	0.017	2798121	STOP	n/a	n/a	n/a	-999	18	[-999, -999, -999]	n/a	FR1	2	R1281E
5978.529	0.511	2798138	DISTRACT_END	n/a	n/a	n/a	-999	18	[0, 0, 0]	n/a	FR1	2	R1281E
5979.04	1.639	2798649	RETRIEVAL_ORIENT_START	n/a	n/a	n/a	-999	18	[0, 0, 0]	n/a	FR1	2	R1281E
5980.679	0.0	2800288	RETRIEVAL_ORIENT_END	n/a	n/a	n/a	-999	18	[0, 0, 0]	n/a	FR1	2	R1281E
5980.679	2.16	2800288	REC_START	n/a	n/a	n/a	-999	18	[0, 0, 0]	n/a	FR1	2	R1281E
5982.839	18.078	2802448	REC_WORD	18.078	n/a	CORD	12	18	[0, 0, 0]	n/a	FR1	2	R1281E
6000.917	9.775	2820525	REC_WORD	9.775	n/a	BED	-999	18	[0, 0, 0]	n/a	FR1	2	R1281E
6010.692	0.0	2830300	REC_END	n/a	n/a	n/a	-999	18	[0, 0, 0]	n/a	FR1	2	R1281E
6010.692	0.011	2830300	TRIAL_END	n/a	n/a	n/a	-999	18	[0, 0, 0]	n/a	FR1	2	R1281E
6010.703	0.0	2830311	TRIAL_START	n/a	n/a	n/a	-999	19	[0, 0, 0]	n/a	FR1	2	R1281E
6010.703	0.0	2830311	TRIAL	n/a	n/a	n/a	-999	19	[0, 0, 0]	n/a	FR1	2	R1281E
6010.703	7.216	2830311	WAITING_START	n/a	n/a	n/a	-999	19	[0, 0, 0]	n/a	FR1	2	R1281E
6017.919	0.0	2837527	WAITING_END	n/a	n/a	n/a	-999	19	[0, 0, 0]	n/a	FR1	2	R1281E
6017.919	10.43	2837527	COUNTDOWN_START	n/a	n/a	n/a	-999	19	[0, 0, 0]	n/a	FR1	2	R1281E
6028.349	0.0	2847956	ORIENT_START	n/a	n/a	n/a	-999	19	[0, 0, 0]	n/a	FR1	2	R1281E
6028.349	1.105	2847956	COUNTDOWN_END	n/a	n/a	n/a	-999	19	[0, 0, 0]	n/a	FR1	2	R1281E
6029.454	0.001	2849061	ORIENT_END	n/a	n/a	n/a	-999	19	[0, 0, 0]	n/a	FR1	2	R1281E
6029.455	0.867	2849062	ENCODING_START	n/a	n/a	n/a	-999	19	[0, 0, 0]	n/a	FR1	2	R1281E
6030.322	1.632	2849929	WORD	n/a	n/a	TRAIN	1	19	[0, 0, 0]	n/a	FR1	2	R1281E
6031.954	0.87	2851561	WORD_OFF	n/a	n/a	TRAIN	1	19	[0, 0, 0]	n/a	FR1	2	R1281E
6032.824	1.631	2852431	WORD	n/a	n/a	APE	2	19	[0, 0, 0]	n/a	FR1	2	R1281E
6034.455	0.884	2854062	WORD_OFF	n/a	n/a	APE	2	19	[0, 0, 0]	n/a	FR1	2	R1281E
6035.339	1.632	2854946	WORD	n/a	n/a	DEER	3	19	[0, 0, 0]	n/a	FR1	2	R1281E
6036.971	0.992	2856578	WORD_OFF	n/a	n/a	DEER	3	19	[0, 0, 0]	n/a	FR1	2	R1281E
6037.963	1.61	2857570	WORD	n/a	n/a	CASH	4	19	[0, 0, 0]	n/a	FR1	2	R1281E
6039.573	1.013	2859180	WORD_OFF	n/a	n/a	CASH	4	19	[0, 0, 0]	n/a	FR1	2	R1281E
6040.586	1.636	2860193	WORD	n/a	n/a	STORM	5	19	[0, 0, 0]	n/a	FR1	2	R1281E
6042.222	0.859	2861829	WORD_OFF	n/a	n/a	STORM	5	19	[0, 0, 0]	n/a	FR1	2	R1281E
6043.081	1.626	2862688	WORD	n/a	n/a	JEEP	6	19	[0, 0, 0]	n/a	FR1	2	R1281E
6044.707	1.095	2864314	WORD_OFF	n/a	n/a	JEEP	6	19	[0, 0, 0]	n/a	FR1	2	R1281E
6045.802	1.622	2865409	WORD	n/a	n/a	SKUNK	7	19	[0, 0, 0]	n/a	FR1	2	R1281E
6047.424	0.948	2867031	WORD_OFF	n/a	n/a	SKUNK	7	19	[0, 0, 0]	n/a	FR1	2	R1281E
6048.372	1.635	2867979	WORD	n/a	n/a	OAR	8	19	[0, 0, 0]	n/a	FR1	2	R1281E
6050.007	1.129	2869614	WORD_OFF	n/a	n/a	OAR	8	19	[0, 0, 0]	n/a	FR1	2	R1281E
6051.136	1.606	2870743	WORD	n/a	n/a	SKY	9	19	[0, 0, 0]	n/a	FR1	2	R1281E
6052.742	0.861	2872349	WORD_OFF	n/a	n/a	SKY	9	19	[0, 0, 0]	n/a	FR1	2	R1281E
6053.603	1.621	2873210	WORD	n/a	n/a	GRAPE	10	19	[0, 0, 0]	n/a	FR1	2	R1281E
6055.224	0.78	2874831	WORD_OFF	n/a	n/a	GRAPE	10	19	[0, 0, 0]	n/a	FR1	2	R1281E
6056.004	1.639	2875611	WORD	n/a	n/a	HORN	11	19	[0, 0, 0]	n/a	FR1	2	R1281E
6057.643	0.951	2877249	WORD_OFF	n/a	n/a	HORN	11	19	[0, 0, 0]	n/a	FR1	2	R1281E
6058.594	1.631	2878200	WORD	n/a	n/a	LAWN	12	19	[0, 0, 0]	n/a	FR1	2	R1281E
6060.225	0.001	2879831	WORD_OFF	n/a	n/a	LAWN	12	19	[0, 0, 0]	n/a	FR1	2	R1281E
6060.226	0.0	2879832	DISTRACT_START	n/a	n/a	n/a	-999	19	[0, 0, 0]	n/a	FR1	2	R1281E
6060.226	0.0	2879832	ENCODING_END	n/a	n/a	n/a	-999	19	[0, 0, 0]	n/a	FR1	2	R1281E
6060.226	0.017	2879832	START	n/a	n/a	n/a	-999	19	[-999, -999, -999]	n/a	FR1	2	R1281E
6060.243	7.884	2879849	PROB	7.884	n/a	n/a	-999	19	[5, 2, 6]	13	FR1	2	R1281E
6068.127	5.235	2887733	PROB	5.235	n/a	n/a	-999	19	[4, 7, 2]	13	FR1	2	R1281E
6073.362	4.201	2892968	PROB	4.201	n/a	n/a	-999	19	[6, 6, 9]	21	FR1	2	R1281E
6077.563	10.996	2897169	PROB	10.996	n/a	n/a	-999	19	[8, 9, 3]	20	FR1	2	R1281E
6088.559	0.005	2908164	STOP	n/a	n/a	n/a	-999	19	[-999, -999, -999]	n/a	FR1	2	R1281E
6088.564	0.656	2908169	DISTRACT_END	n/a	n/a	n/a	-999	19	[0, 0, 0]	n/a	FR1	2	R1281E
6089.22	1.727	2908825	RETRIEVAL_ORIENT_START	n/a	n/a	n/a	-999	19	[0, 0, 0]	n/a	FR1	2	R1281E
6090.947	0.001	2910552	RETRIEVAL_ORIENT_END	n/a	n/a	n/a	-999	19	[0, 0, 0]	n/a	FR1	2	R1281E
6090.948	4.759	2910553	REC_START	n/a	n/a	n/a	-999	19	[0, 0, 0]	n/a	FR1	2	R1281E
6095.707	5.065	2915312	REC_WORD	5.065	n/a	SKY	9	19	[0, 0, 0]	n/a	FR1	2	R1281E
6100.772	6.9	2920377	REC_WORD	6.9	n/a	SNOW	-999	19	[0, 0, 0]	n/a	FR1	2	R1281E
6107.672	13.288	2927277	REC_WORD	13.288	n/a	CHALK	-999	19	[0, 0, 0]	n/a	FR1	2	R1281E
6120.96	0.0	2940564	TRIAL_END	n/a	n/a	n/a	-999	19	[0, 0, 0]	n/a	FR1	2	R1281E
6120.96	0.01	2940564	REC_END	n/a	n/a	n/a	-999	19	[0, 0, 0]	n/a	FR1	2	R1281E
6120.97	0.001	2940574	TRIAL_START	n/a	n/a	n/a	-999	20	[0, 0, 0]	n/a	FR1	2	R1281E
6120.971	0.0	2940575	TRIAL	n/a	n/a	n/a	-999	20	[0, 0, 0]	n/a	FR1	2	R1281E
6120.971	5.384	2940575	WAITING_START	n/a	n/a	n/a	-999	20	[0, 0, 0]	n/a	FR1	2	R1281E
6126.355	0.0	2945959	WAITING_END	n/a	n/a	n/a	-999	20	[0, 0, 0]	n/a	FR1	2	R1281E
6126.355	10.428	2945959	COUNTDOWN_START	n/a	n/a	n/a	-999	20	[0, 0, 0]	n/a	FR1	2	R1281E
6136.783	0.001	2956387	COUNTDOWN_END	n/a	n/a	n/a	-999	20	[0, 0, 0]	n/a	FR1	2	R1281E
6136.784	1.123	2956388	ORIENT_START	n/a	n/a	n/a	-999	20	[0, 0, 0]	n/a	FR1	2	R1281E
6137.907	0.0	2957511	ENCODING_START	n/a	n/a	n/a	-999	20	[0, 0, 0]	n/a	FR1	2	R1281E
6137.907	0.989	2957511	ORIENT_END	n/a	n/a	n/a	-999	20	[0, 0, 0]	n/a	FR1	2	R1281E
6138.896	1.628	2958500	WORD	n/a	n/a	TEA	1	20	[0, 0, 0]	n/a	FR1	2	R1281E
6140.524	0.856	2960128	WORD_OFF	n/a	n/a	TEA	1	20	[0, 0, 0]	n/a	FR1	2	R1281E
6141.38	1.627	2960983	WORD	n/a	n/a	ROPE	2	20	[0, 0, 0]	n/a	FR1	2	R1281E
6143.007	1.033	2962610	WORD_OFF	n/a	n/a	ROPE	2	20	[0, 0, 0]	n/a	FR1	2	R1281E
6144.04	1.635	2963643	WORD	n/a	n/a	SOAP	3	20	[0, 0, 0]	n/a	FR1	2	R1281E
6145.675	1.052	2965278	WORD_OFF	n/a	n/a	SOAP	3	20	[0, 0, 0]	n/a	FR1	2	R1281E
6146.727	1.631	2966330	WORD	n/a	n/a	ARK	4	20	[0, 0, 0]	n/a	FR1	2	R1281E
6148.358	0.869	2967961	WORD_OFF	n/a	n/a	ARK	4	20	[0, 0, 0]	n/a	FR1	2	R1281E
6149.227	1.632	2968830	WORD	n/a	n/a	WOOD	5	20	[0, 0, 0]	n/a	FR1	2	R1281E
6150.859	1.08	2970462	WORD_OFF	n/a	n/a	WOOD	5	20	[0, 0, 0]	n/a	FR1	2	R1281E
6151.939	1.637	2971542	WORD	n/a	n/a	WING	6	20	[0, 0, 0]	n/a	FR1	2	R1281E
6153.576	1.008	2973179	WORD_OFF	n/a	n/a	WING	6	20	[0, 0, 0]	n/a	FR1	2	R1281E
6154.584	1.625	2974187	WORD	n/a	n/a	HAND	7	20	[0, 0, 0]	n/a	FR1	2	R1281E
6156.209	0.856	2975812	WORD_OFF	n/a	n/a	HAND	7	20	[0, 0, 0]	n/a	FR1	2	R1281E
6157.065	1.629	2976668	WORD	n/a	n/a	FOOT	8	20	[0, 0, 0]	n/a	FR1	2	R1281E
6158.694	1.073	2978297	WORD_OFF	n/a	n/a	FOOT	8	20	[0, 0, 0]	n/a	FR1	2	R1281E
6159.767	1.627	2979370	WORD	n/a	n/a	WOLF	9	20	[0, 0, 0]	n/a	FR1	2	R1281E
6161.394	0.937	2980997	WORD_OFF	n/a	n/a	WOLF	9	20	[0, 0, 0]	n/a	FR1	2	R1281E
6162.331	1.629	2981934	WORD	n/a	n/a	SHIP	10	20	[0, 0, 0]	n/a	FR1	2	R1281E
6163.96	1.092	2983563	WORD_OFF	n/a	n/a	SHIP	10	20	[0, 0, 0]	n/a	FR1	2	R1281E
6165.052	1.61	2984655	WORD	n/a	n/a	PASTE	11	20	[0, 0, 0]	n/a	FR1	2	R1281E
6166.662	1.134	2986265	WORD_OFF	n/a	n/a	PASTE	11	20	[0, 0, 0]	n/a	FR1	2	R1281E
6167.796	1.633	2987399	WORD	n/a	n/a	BUSH	12	20	[0, 0, 0]	n/a	FR1	2	R1281E
6169.429	0.0	2989031	WORD_OFF	n/a	n/a	BUSH	12	20	[0, 0, 0]	n/a	FR1	2	R1281E
6169.429	0.001	2989031	ENCODING_END	n/a	n/a	n/a	-999	20	[0, 0, 0]	n/a	FR1	2	R1281E
6169.43	0.0	2989032	DISTRACT_START	n/a	n/a	n/a	-999	20	[0, 0, 0]	n/a	FR1	2	R1281E
6169.43	0.015	2989032	START	n/a	n/a	n/a	-999	20	[-999, -999, -999]	n/a	FR1	2	R1281E
6169.445	5.567	2989047	PROB	5.567	n/a	n/a	-999	20	[5, 7, 6]	18	FR1	2	R1281E
6175.012	3.718	2994614	PROB	3.718	n/a	n/a	-999	20	[9, 9, 9]	27	FR1	2	R1281E
6178.73	4.818	2998332	PROB	4.818	n/a	n/a	-999	20	[2, 5, 2]	9	FR1	2	R1281E
6183.548	3.466	3003150	PROB	3.466	n/a	n/a	-999	20	[2, 3, 4]	9	FR1	2	R1281E
6187.014	3.218	3006616	PROB	3.218	n/a	n/a	-999	20	[7, 5, 4]	16	FR1	2	R1281E
6190.232	0.017	3009834	STOP	n/a	n/a	n/a	-999	20	[-999, -999, -999]	n/a	FR1	2	R1281E
6190.249	0.66	3009851	DISTRACT_END	n/a	n/a	n/a	-999	20	[0, 0, 0]	n/a	FR1	2	R1281E
6190.909	1.524	3010511	RETRIEVAL_ORIENT_START	n/a	n/a	n/a	-999	20	[0, 0, 0]	n/a	FR1	2	R1281E
6192.433	0.0	3012035	RETRIEVAL_ORIENT_END	n/a	n/a	n/a	-999	20	[0, 0, 0]	n/a	FR1	2	R1281E
6192.433	12.698	3012035	REC_START	n/a	n/a	n/a	-999	20	[0, 0, 0]	n/a	FR1	2	R1281E
6205.131	3.133	3024732	REC_WORD	3.133	n/a	HAND	7	20	[0, 0, 0]	n/a	FR1	2	R1281E
6208.264	14.182	3027865	REC_WORD	14.182	n/a	FOOT	8	20	[0, 0, 0]	n/a	FR1	2	R1281E
6222.446	0.0	3042047	REC_END	n/a	n/a	n/a	-999	20	[0, 0, 0]	n/a	FR1	2	R1281E
6222.446	0.01	3042047	TRIAL_END	n/a	n/a	n/a	-999	20	[0, 0, 0]	n/a	FR1	2	R1281E
6222.456	0.001	3042057	TRIAL_START	n/a	n/a	n/a	-999	21	[0, 0, 0]	n/a	FR1	2	R1281E
6222.457	0.0	3042058	TRIAL	n/a	n/a	n/a	-999	21	[0, 0, 0]	n/a	FR1	2	R1281E
6222.457	5.265	3042058	WAITING_START	n/a	n/a	n/a	-999	21	[0, 0, 0]	n/a	FR1	2	R1281E
6227.722	0.001	3047322	WAITING_END	n/a	n/a	n/a	-999	21	[0, 0, 0]	n/a	FR1	2	R1281E
6227.723	10.428	3047323	COUNTDOWN_START	n/a	n/a	n/a	-999	21	[0, 0, 0]	n/a	FR1	2	R1281E
6238.151	0.0	3057751	COUNTDOWN_END	n/a	n/a	n/a	-999	21	[0, 0, 0]	n/a	FR1	2	R1281E
6238.151	1.207	3057751	ORIENT_START	n/a	n/a	n/a	-999	21	[0, 0, 0]	n/a	FR1	2	R1281E
6239.358	0.0	3058958	ORIENT_END	n/a	n/a	n/a	-999	21	[0, 0, 0]	n/a	FR1	2	R1281E
6239.358	0.774	3058958	ENCODING_START	n/a	n/a	n/a	-999	21	[0, 0, 0]	n/a	FR1	2	R1281E
6240.132	1.609	3059732	WORD	n/a	n/a	BOOT	1	21	[0, 0, 0]	n/a	FR1	2	R1281E
6241.741	1.047	3061341	WORD_OFF	n/a	n/a	BOOT	1	21	[0, 0, 0]	n/a	FR1	2	R1281E
6242.788	1.637	3062388	WORD	n/a	n/a	SMOKE	2	21	[0, 0, 0]	n/a	FR1	2	R1281E
6244.425	1.129	3064025	WORD_OFF	n/a	n/a	SMOKE	2	21	[0, 0, 0]	n/a	FR1	2	R1281E
6245.554	1.621	3065154	WORD	n/a	n/a	JET	3	21	[0, 0, 0]	n/a	FR1	2	R1281E
6247.175	0.938	3066775	WORD_OFF	n/a	n/a	JET	3	21	[0, 0, 0]	n/a	FR1	2	R1281E
6248.113	1.613	3067713	WORD	n/a	n/a	SPARK	4	21	[0, 0, 0]	n/a	FR1	2	R1281E
6249.726	1.062	3069326	WORD_OFF	n/a	n/a	SPARK	4	21	[0, 0, 0]	n/a	FR1	2	R1281E
6250.788	1.622	3070388	WORD	n/a	n/a	ROAD	5	21	[0, 0, 0]	n/a	FR1	2	R1281E
6252.41	1.097	3072010	WORD_OFF	n/a	n/a	ROAD	5	21	[0, 0, 0]	n/a	FR1	2	R1281E
6253.507	1.636	3073107	WORD	n/a	n/a	CHIN	6	21	[0, 0, 0]	n/a	FR1	2	R1281E
6255.143	0.82	3074742	WORD_OFF	n/a	n/a	CHIN	6	21	[0, 0, 0]	n/a	FR1	2	R1281E
6255.963	1.631	3075562	WORD	n/a	n/a	DOOR	7	21	[0, 0, 0]	n/a	FR1	2	R1281E
6257.594	1.099	3077193	WORD_OFF	n/a	n/a	DOOR	7	21	[0, 0, 0]	n/a	FR1	2	R1281E
6258.693	1.635	3078292	WORD	n/a	n/a	SMILE	8	21	[0, 0, 0]	n/a	FR1	2	R1281E
6260.328	0.817	3079927	WORD_OFF	n/a	n/a	SMILE	8	21	[0, 0, 0]	n/a	FR1	2	R1281E
6261.145	1.633	3080744	WORD	n/a	n/a	BIRD	9	21	[0, 0, 0]	n/a	FR1	2	R1281E
6262.778	0.943	3082377	WORD_OFF	n/a	n/a	BIRD	9	21	[0, 0, 0]	n/a	FR1	2	R1281E
6263.721	1.625	3083320	WORD	n/a	n/a	BRICK	10	21	[0, 0, 0]	n/a	FR1	2	R1281E
6265.346	0.954	3084945	WORD_OFF	n/a	n/a	BRICK	10	21	[0, 0, 0]	n/a	FR1	2	R1281E
6266.3	1.629	3085899	WORD	n/a	n/a	STONE	11	21	[0, 0, 0]	n/a	FR1	2	R1281E
6267.929	0.96	3087528	WORD_OFF	n/a	n/a	STONE	11	21	[0, 0, 0]	n/a	FR1	2	R1281E
6268.889	1.624	3088488	WORD	n/a	n/a	STRING	12	21	[0, 0, 0]	n/a	FR1	2	R1281E
6270.513	0.001	3090112	WORD_OFF	n/a	n/a	STRING	12	21	[0, 0, 0]	n/a	FR1	2	R1281E
6270.514	0.0	3090113	ENCODING_END	n/a	n/a	n/a	-999	21	[0, 0, 0]	n/a	FR1	2	R1281E
6270.514	0.0	3090113	DISTRACT_START	n/a	n/a	n/a	-999	21	[0, 0, 0]	n/a	FR1	2	R1281E
6270.514	0.016	3090113	START	n/a	n/a	n/a	-999	21	[-999, -999, -999]	n/a	FR1	2	R1281E
6270.53	4.051	3090129	PROB	4.051	n/a	n/a	-999	21	[8, 2, 5]	15	FR1	2	R1281E
6274.581	3.2	3094180	PROB	3.2	n/a	n/a	-999	21	[5, 9, 1]	15	FR1	2	R1281E
6277.781	3.667	3097380	PROB	3.667	n/a	n/a	-999	21	[5, 6, 5]	16	FR1	2	R1281E
6281.448	4.118	3101047	PROB	4.118	n/a	n/a	-999	21	[8, 2, 3]	13	FR1	2	R1281E
6285.566	4.017	3105164	PROB	4.017	n/a	n/a	-999	21	[5, 3, 9]	17	FR1	2	R1281E
6289.583	4.095	3109181	PROB	4.095	n/a	n/a	-999	21	[4, 7, 1]	12	FR1	2	R1281E
6293.678	0.006	3113276	STOP	n/a	n/a	n/a	-999	21	[-999, -999, -999]	n/a	FR1	2	R1281E
6293.684	0.542	3113282	DISTRACT_END	n/a	n/a	n/a	-999	21	[0, 0, 0]	n/a	FR1	2	R1281E
6294.226	1.575	3113824	RETRIEVAL_ORIENT_START	n/a	n/a	n/a	-999	21	[0, 0, 0]	n/a	FR1	2	R1281E
6295.801	0.0	3115399	RETRIEVAL_ORIENT_END	n/a	n/a	n/a	-999	21	[0, 0, 0]	n/a	FR1	2	R1281E
6295.801	3.074	3115399	REC_START	n/a	n/a	n/a	-999	21	[0, 0, 0]	n/a	FR1	2	R1281E
6298.875	26.941	3118473	REC_WORD	26.941	n/a	BOOK	-999	21	[0, 0, 0]	n/a	FR1	2	R1281E
6325.816	0.001	3145413	REC_END	n/a	n/a	n/a	-999	21	[0, 0, 0]	n/a	FR1	2	R1281E
6325.817	0.01	3145414	TRIAL_END	n/a	n/a	n/a	-999	21	[0, 0, 0]	n/a	FR1	2	R1281E
6325.827	0.001	3145424	TRIAL_START	n/a	n/a	n/a	-999	22	[0, 0, 0]	n/a	FR1	2	R1281E
6325.828	0.0	3145425	TRIAL	n/a	n/a	n/a	-999	22	[0, 0, 0]	n/a	FR1	2	R1281E
6325.828	24.816	3145425	WAITING_START	n/a	n/a	n/a	-999	22	[0, 0, 0]	n/a	FR1	2	R1281E
6350.644	0.0	3170240	COUNTDOWN_START	n/a	n/a	n/a	-999	22	[0, 0, 0]	n/a	FR1	2	R1281E
6350.644	10.43	3170240	WAITING_END	n/a	n/a	n/a	-999	22	[0, 0, 0]	n/a	FR1	2	R1281E
6361.074	0.001	3180670	COUNTDOWN_END	n/a	n/a	n/a	-999	22	[0, 0, 0]	n/a	FR1	2	R1281E
6361.075	1.103	3180671	ORIENT_START	n/a	n/a	n/a	-999	22	[0, 0, 0]	n/a	FR1	2	R1281E
6362.178	0.001	3181774	ORIENT_END	n/a	n/a	n/a	-999	22	[0, 0, 0]	n/a	FR1	2	R1281E
6362.179	0.992	3181775	ENCODING_START	n/a	n/a	n/a	-999	22	[0, 0, 0]	n/a	FR1	2	R1281E
6363.171	1.626	3182767	WORD	n/a	n/a	KEY	1	22	[0, 0, 0]	n/a	FR1	2	R1281E
6364.797	0.859	3184393	WORD_OFF	n/a	n/a	KEY	1	22	[0, 0, 0]	n/a	FR1	2	R1281E
6365.656	1.624	3185252	WORD	n/a	n/a	STAR	2	22	[0, 0, 0]	n/a	FR1	2	R1281E
6367.28	1.015	3186875	WORD_OFF	n/a	n/a	STAR	2	22	[0, 0, 0]	n/a	FR1	2	R1281E
6368.295	1.635	3187890	WORD	n/a	n/a	PIG	3	22	[0, 0, 0]	n/a	FR1	2	R1281E
6369.93	1.055	3189525	WORD_OFF	n/a	n/a	PIG	3	22	[0, 0, 0]	n/a	FR1	2	R1281E
6370.985	1.63	3190580	WORD	n/a	n/a	CAGE	4	22	[0, 0, 0]	n/a	FR1	2	R1281E
6372.615	0.788	3192210	WORD_OFF	n/a	n/a	CAGE	4	22	[0, 0, 0]	n/a	FR1	2	R1281E
6373.403	1.628	3192998	WORD	n/a	n/a	TOOL	5	22	[0, 0, 0]	n/a	FR1	2	R1281E
6375.031	1.062	3194626	WORD_OFF	n/a	n/a	TOOL	5	22	[0, 0, 0]	n/a	FR1	2	R1281E
6376.093	1.606	3195688	WORD	n/a	n/a	FLOOR	6	22	[0, 0, 0]	n/a	FR1	2	R1281E
6377.699	0.839	3197294	WORD_OFF	n/a	n/a	FLOOR	6	22	[0, 0, 0]	n/a	FR1	2	R1281E
6378.538	1.627	3198133	WORD	n/a	n/a	THREAD	7	22	[0, 0, 0]	n/a	FR1	2	R1281E
6380.165	1.143	3199760	WORD_OFF	n/a	n/a	THREAD	7	22	[0, 0, 0]	n/a	FR1	2	R1281E
6381.308	1.624	3200903	WORD	n/a	n/a	SPOON	8	22	[0, 0, 0]	n/a	FR1	2	R1281E
6382.932	0.837	3202527	WORD_OFF	n/a	n/a	SPOON	8	22	[0, 0, 0]	n/a	FR1	2	R1281E
6383.769	1.631	3203364	WORD	n/a	n/a	TANK	9	22	[0, 0, 0]	n/a	FR1	2	R1281E
6385.4	0.967	3204995	WORD_OFF	n/a	n/a	TANK	9	22	[0, 0, 0]	n/a	FR1	2	R1281E
6386.367	1.633	3205962	WORD	n/a	n/a	BEAN	10	22	[0, 0, 0]	n/a	FR1	2	R1281E
6388.0	1.095	3207595	WORD_OFF	n/a	n/a	BEAN	10	22	[0, 0, 0]	n/a	FR1	2	R1281E
6389.095	1.623	3208690	WORD	n/a	n/a	FILM	11	22	[0, 0, 0]	n/a	FR1	2	R1281E
6390.718	1.077	3210313	WORD_OFF	n/a	n/a	FILM	11	22	[0, 0, 0]	n/a	FR1	2	R1281E
6391.795	1.623	3211390	WORD	n/a	n/a	HORSE	12	22	[0, 0, 0]	n/a	FR1	2	R1281E
6393.418	0.001	3213013	WORD_OFF	n/a	n/a	HORSE	12	22	[0, 0, 0]	n/a	FR1	2	R1281E
6393.419	0.0	3213014	ENCODING_END	n/a	n/a	n/a	-999	22	[0, 0, 0]	n/a	FR1	2	R1281E
6393.419	0.0	3213014	DISTRACT_START	n/a	n/a	n/a	-999	22	[0, 0, 0]	n/a	FR1	2	R1281E
6393.419	0.016	3213014	START	n/a	n/a	n/a	-999	22	[-999, -999, -999]	n/a	FR1	2	R1281E
6393.435	5.334	3213030	PROB	5.334	n/a	n/a	-999	22	[3, 3, 2]	8	FR1	2	R1281E
6398.769	4.45	3218363	PROB	4.45	n/a	n/a	-999	22	[8, 5, 3]	16	FR1	2	R1281E
6403.219	3.185	3222813	PROB	3.185	n/a	n/a	-999	22	[5, 1, 2]	8	FR1	2	R1281E
6406.404	2.649	3225998	PROB	2.649	n/a	n/a	-999	22	[7, 3, 3]	13	FR1	2	R1281E
6409.053	5.222	3228647	PROB	5.222	n/a	n/a	-999	22	[4, 4, 9]	17	FR1	2	R1281E
6414.275	0.014	3233869	STOP	n/a	n/a	n/a	-999	22	[-999, -999, -999]	n/a	FR1	2	R1281E
6414.289	0.636	3233883	DISTRACT_END	n/a	n/a	n/a	-999	22	[0, 0, 0]	n/a	FR1	2	R1281E
6414.925	1.647	3234519	RETRIEVAL_ORIENT_START	n/a	n/a	n/a	-999	22	[0, 0, 0]	n/a	FR1	2	R1281E
6416.572	0.001	3236166	RETRIEVAL_ORIENT_END	n/a	n/a	n/a	-999	22	[0, 0, 0]	n/a	FR1	2	R1281E
6416.573	9.479	3236167	REC_START	n/a	n/a	n/a	-999	22	[0, 0, 0]	n/a	FR1	2	R1281E
6426.052	9.929	3245645	REC_WORD	9.929	n/a	BEAN	10	22	[0, 0, 0]	n/a	FR1	2	R1281E
6435.981	10.605	3255574	REC_WORD	10.605	n/a	STALK	-999	22	[0, 0, 0]	n/a	FR1	2	R1281E
6446.586	0.0	3266179	REC_END	n/a	n/a	n/a	-999	22	[0, 0, 0]	n/a	FR1	2	R1281E
6446.586	0.013	3266179	TRIAL_END	n/a	n/a	n/a	-999	22	[0, 0, 0]	n/a	FR1	2	R1281E
6446.599	0.0	3266192	TRIAL_START	n/a	n/a	n/a	-999	23	[0, 0, 0]	n/a	FR1	2	R1281E
6446.599	0.0	3266192	TRIAL	n/a	n/a	n/a	-999	23	[0, 0, 0]	n/a	FR1	2	R1281E
6446.599	9.697	3266192	WAITING_START	n/a	n/a	n/a	-999	23	[0, 0, 0]	n/a	FR1	2	R1281E
6456.296	0.0	3275888	WAITING_END	n/a	n/a	n/a	-999	23	[0, 0, 0]	n/a	FR1	2	R1281E
6456.296	10.429	3275888	COUNTDOWN_START	n/a	n/a	n/a	-999	23	[0, 0, 0]	n/a	FR1	2	R1281E
6466.725	0.001	3286317	COUNTDOWN_END	n/a	n/a	n/a	-999	23	[0, 0, 0]	n/a	FR1	2	R1281E
6466.726	1.039	3286318	ORIENT_START	n/a	n/a	n/a	-999	23	[0, 0, 0]	n/a	FR1	2	R1281E
6467.765	0.0	3287357	ORIENT_END	n/a	n/a	n/a	-999	23	[0, 0, 0]	n/a	FR1	2	R1281E
6467.765	0.782	3287357	ENCODING_START	n/a	n/a	n/a	-999	23	[0, 0, 0]	n/a	FR1	2	R1281E
6468.547	1.634	3288139	WORD	n/a	n/a	CLOUD	1	23	[0, 0, 0]	n/a	FR1	2	R1281E
6470.181	0.939	3289773	WORD_OFF	n/a	n/a	CLOUD	1	23	[0, 0, 0]	n/a	FR1	2	R1281E
6471.12	1.629	3290712	WORD	n/a	n/a	HOSE	2	23	[0, 0, 0]	n/a	FR1	2	R1281E
6472.749	0.958	3292341	WORD_OFF	n/a	n/a	HOSE	2	23	[0, 0, 0]	n/a	FR1	2	R1281E
6473.707	1.626	3293299	WORD	n/a	n/a	NAIL	3	23	[0, 0, 0]	n/a	FR1	2	R1281E
6475.333	1.02	3294925	WORD_OFF	n/a	n/a	NAIL	3	23	[0, 0, 0]	n/a	FR1	2	R1281E
6476.353	1.629	3295945	WORD	n/a	n/a	SPEAR	4	23	[0, 0, 0]	n/a	FR1	2	R1281E
6477.982	0.842	3297574	WORD_OFF	n/a	n/a	SPEAR	4	23	[0, 0, 0]	n/a	FR1	2	R1281E
6478.824	1.626	3298416	WORD	n/a	n/a	MOOSE	5	23	[0, 0, 0]	n/a	FR1	2	R1281E
6480.45	0.912	3300041	WORD_OFF	n/a	n/a	MOOSE	5	23	[0, 0, 0]	n/a	FR1	2	R1281E
6481.362	1.621	3300953	WORD	n/a	n/a	MAT	6	23	[0, 0, 0]	n/a	FR1	2	R1281E
6482.983	0.946	3302574	WORD_OFF	n/a	n/a	MAT	6	23	[0, 0, 0]	n/a	FR1	2	R1281E
6483.929	1.622	3303520	WORD	n/a	n/a	SOCK	7	23	[0, 0, 0]	n/a	FR1	2	R1281E
6485.551	0.971	3305142	WORD_OFF	n/a	n/a	SOCK	7	23	[0, 0, 0]	n/a	FR1	2	R1281E
6486.522	1.629	3306113	WORD	n/a	n/a	PET	8	23	[0, 0, 0]	n/a	FR1	2	R1281E
6488.151	0.767	3307742	WORD_OFF	n/a	n/a	PET	8	23	[0, 0, 0]	n/a	FR1	2	R1281E
6488.918	1.617	3308509	WORD	n/a	n/a	POLE	9	23	[0, 0, 0]	n/a	FR1	2	R1281E
6490.535	0.8	3310126	WORD_OFF	n/a	n/a	POLE	9	23	[0, 0, 0]	n/a	FR1	2	R1281E
6491.335	1.633	3310926	WORD	n/a	n/a	COUCH	10	23	[0, 0, 0]	n/a	FR1	2	R1281E
6492.968	1.111	3312559	WORD_OFF	n/a	n/a	COUCH	10	23	[0, 0, 0]	n/a	FR1	2	R1281E
6494.079	1.624	3313670	WORD	n/a	n/a	RAKE	11	23	[0, 0, 0]	n/a	FR1	2	R1281E
6495.703	0.845	3315294	WORD_OFF	n/a	n/a	RAKE	11	23	[0, 0, 0]	n/a	FR1	2	R1281E
6496.548	1.621	3316139	WORD	n/a	n/a	COIN	12	23	[0, 0, 0]	n/a	FR1	2	R1281E
6498.169	0.001	3317760	WORD_OFF	n/a	n/a	COIN	12	23	[0, 0, 0]	n/a	FR1	2	R1281E
6498.17	0.0	3317761	DISTRACT_START	n/a	n/a	n/a	-999	23	[0, 0, 0]	n/a	FR1	2	R1281E
6498.17	0.0	3317761	ENCODING_END	n/a	n/a	n/a	-999	23	[0, 0, 0]	n/a	FR1	2	R1281E
6498.17	0.015	3317761	START	n/a	n/a	n/a	-999	23	[-999, -999, -999]	n/a	FR1	2	R1281E
6498.185	4.502	3317776	PROB	4.502	n/a	n/a	-999	23	[1, 3, 2]	6	FR1	2	R1281E
6502.687	3.517	3322278	PROB	3.517	n/a	n/a	-999	23	[6, 1, 7]	14	FR1	2	R1281E
6506.204	3.284	3325795	PROB	3.284	n/a	n/a	-999	23	[2, 7, 9]	18	FR1	2	R1281E
6509.488	3.234	3329078	PROB	3.234	n/a	n/a	-999	23	[1, 6, 8]	15	FR1	2	R1281E
6512.722	3.684	3332312	PROB	3.684	n/a	n/a	-999	23	[7, 5, 4]	16	FR1	2	R1281E
6516.406	7.472	3335996	PROB	7.472	n/a	n/a	-999	23	[8, 8, 9]	25	FR1	2	R1281E
6523.878	0.013	3343468	STOP	n/a	n/a	n/a	-999	23	[-999, -999, -999]	n/a	FR1	2	R1281E
6523.891	0.632	3343481	DISTRACT_END	n/a	n/a	n/a	-999	23	[0, 0, 0]	n/a	FR1	2	R1281E
6524.523	1.684	3344113	RETRIEVAL_ORIENT_START	n/a	n/a	n/a	-999	23	[0, 0, 0]	n/a	FR1	2	R1281E
6526.207	0.0	3345797	RETRIEVAL_ORIENT_END	n/a	n/a	n/a	-999	23	[0, 0, 0]	n/a	FR1	2	R1281E
6526.207	3.834	3345797	REC_START	n/a	n/a	n/a	-999	23	[0, 0, 0]	n/a	FR1	2	R1281E
6530.041	9.803	3349631	REC_WORD_VV	9.803	n/a	<>	-999	23	[0, 0, 0]	n/a	FR1	2	R1281E
6539.844	16.375	3359433	REC_WORD	16.375	n/a	HOUSE	-999	23	[0, 0, 0]	n/a	FR1	2	R1281E
6556.219	0.001	3375808	REC_END	n/a	n/a	n/a	-999	23	[0, 0, 0]	n/a	FR1	2	R1281E
6556.22	0.01	3375809	TRIAL_END	n/a	n/a	n/a	-999	23	[0, 0, 0]	n/a	FR1	2	R1281E
6556.23	0.0	3375819	TRIAL_START	n/a	n/a	n/a	-999	24	[0, 0, 0]	n/a	FR1	2	R1281E
6556.23	0.0	3375819	TRIAL	n/a	n/a	n/a	-999	24	[0, 0, 0]	n/a	FR1	2	R1281E
6556.23	19.604	3375819	WAITING_START	n/a	n/a	n/a	-999	24	[0, 0, 0]	n/a	FR1	2	R1281E
6575.834	0.0	3395422	WAITING_END	n/a	n/a	n/a	-999	24	[0, 0, 0]	n/a	FR1	2	R1281E
6575.834	10.428	3395422	COUNTDOWN_START	n/a	n/a	n/a	-999	24	[0, 0, 0]	n/a	FR1	2	R1281E
6586.262	0.001	3405850	COUNTDOWN_END	n/a	n/a	n/a	-999	24	[0, 0, 0]	n/a	FR1	2	R1281E
6586.263	1.106	3405851	ORIENT_START	n/a	n/a	n/a	-999	24	[0, 0, 0]	n/a	FR1	2	R1281E
6587.369	0.001	3406957	ORIENT_END	n/a	n/a	n/a	-999	24	[0, 0, 0]	n/a	FR1	2	R1281E
6587.37	0.835	3406958	ENCODING_START	n/a	n/a	n/a	-999	24	[0, 0, 0]	n/a	FR1	2	R1281E
6588.205	1.631	3407793	WORD	n/a	n/a	FUR	1	24	[0, 0, 0]	n/a	FR1	2	R1281E
6589.836	1.038	3409424	WORD_OFF	n/a	n/a	FUR	1	24	[0, 0, 0]	n/a	FR1	2	R1281E
6590.874	1.629	3410462	WORD	n/a	n/a	MUD	2	24	[0, 0, 0]	n/a	FR1	2	R1281E
6592.503	0.82	3412090	WORD_OFF	n/a	n/a	MUD	2	24	[0, 0, 0]	n/a	FR1	2	R1281E
6593.323	1.63	3412910	WORD	n/a	n/a	BOX	3	24	[0, 0, 0]	n/a	FR1	2	R1281E
6594.953	0.929	3414540	WORD_OFF	n/a	n/a	BOX	3	24	[0, 0, 0]	n/a	FR1	2	R1281E
6595.882	1.622	3415469	WORD	n/a	n/a	FOOD	4	24	[0, 0, 0]	n/a	FR1	2	R1281E
6597.504	1.14	3417091	WORD_OFF	n/a	n/a	FOOD	4	24	[0, 0, 0]	n/a	FR1	2	R1281E
6598.644	1.627	3418231	WORD	n/a	n/a	TRAY	5	24	[0, 0, 0]	n/a	FR1	2	R1281E
6600.271	0.852	3419858	WORD_OFF	n/a	n/a	TRAY	5	24	[0, 0, 0]	n/a	FR1	2	R1281E
6601.123	1.632	3420710	WORD	n/a	n/a	FACE	6	24	[0, 0, 0]	n/a	FR1	2	R1281E
6602.755	0.826	3422342	WORD_OFF	n/a	n/a	FACE	6	24	[0, 0, 0]	n/a	FR1	2	R1281E
6603.581	1.623	3423168	WORD	n/a	n/a	SOUP	7	24	[0, 0, 0]	n/a	FR1	2	R1281E
6605.204	1.113	3424791	WORD_OFF	n/a	n/a	SOUP	7	24	[0, 0, 0]	n/a	FR1	2	R1281E
6606.317	1.621	3425904	WORD	n/a	n/a	DOG	8	24	[0, 0, 0]	n/a	FR1	2	R1281E
6607.938	0.922	3427525	WORD_OFF	n/a	n/a	DOG	8	24	[0, 0, 0]	n/a	FR1	2	R1281E
6608.86	1.629	3428447	WORD	n/a	n/a	ROSE	9	24	[0, 0, 0]	n/a	FR1	2	R1281E
6610.489	0.829	3430076	WORD_OFF	n/a	n/a	ROSE	9	24	[0, 0, 0]	n/a	FR1	2	R1281E
6611.318	1.621	3430905	WORD	n/a	n/a	RAIN	10	24	[0, 0, 0]	n/a	FR1	2	R1281E
6612.939	0.778	3432526	WORD_OFF	n/a	n/a	RAIN	10	24	[0, 0, 0]	n/a	FR1	2	R1281E
6613.717	1.624	3433304	WORD	n/a	n/a	HAWK	11	24	[0, 0, 0]	n/a	FR1	2	R1281E
6615.341	0.89	3434928	WORD_OFF	n/a	n/a	HAWK	11	24	[0, 0, 0]	n/a	FR1	2	R1281E
6616.231	1.627	3435818	WORD	n/a	n/a	FLAG	12	24	[0, 0, 0]	n/a	FR1	2	R1281E
6617.858	0.0	3437445	WORD_OFF	n/a	n/a	FLAG	12	24	[0, 0, 0]	n/a	FR1	2	R1281E
6617.858	0.0	3437445	ENCODING_END	n/a	n/a	n/a	-999	24	[0, 0, 0]	n/a	FR1	2	R1281E
6617.858	0.001	3437445	DISTRACT_START	n/a	n/a	n/a	-999	24	[0, 0, 0]	n/a	FR1	2	R1281E
6617.859	0.015	3437446	START	n/a	n/a	n/a	-999	24	[-999, -999, -999]	n/a	FR1	2	R1281E
6617.874	5.834	3437461	PROB	5.834	n/a	n/a	-999	24	[9, 3, 6]	18	FR1	2	R1281E
6623.708	2.734	3443294	PROB	2.734	n/a	n/a	-999	24	[7, 1, 8]	16	FR1	2	R1281E
6626.442	6.851	3446028	PROB	6.851	n/a	n/a	-999	24	[4, 8, 9]	21	FR1	2	R1281E
