onset	duration	sample	trial_type	response_time	stim_file	item_name	serialpos	list	test	answer	experiment	session	subject
0.0	16.285	392235	SESS_START	n/a	n/a	n/a	-999	-999	[0, 0, 0]	n/a	FR1	0	R1027J
16.285	10.428	408519	COUNTDOWN_START	n/a	n/a	n/a	-999	-999	[0, 0, 0]	n/a	FR1	0	R1027J
26.713	3.562	418947	COUNTDOWN_END	n/a	n/a	n/a	-999	-999	[0, 0, 0]	n/a	FR1	0	R1027J
30.275	2.621	422509	PRACTICE_WORD	n/a	n/a	RING	1	-1	[0, 0, 0]	n/a	FR1	0	R1027J
32.896	2.438	425130	PRACTICE_WORD	n/a	n/a	TONGUE	2	-1	[0, 0, 0]	n/a	FR1	0	R1027J
35.334	2.554	427568	PRACTICE_WORD	n/a	n/a	CAMEL	3	-1	[0, 0, 0]	n/a	FR1	0	R1027J
37.888	2.404	430122	PRACTICE_WORD	n/a	n/a	WATCH	4	-1	[0, 0, 0]	n/a	FR1	0	R1027J
40.292	2.437	432526	PRACTICE_WORD	n/a	n/a	CHEST	5	-1	[0, 0, 0]	n/a	FR1	0	R1027J
42.729	2.371	434963	PRACTICE_WORD	n/a	n/a	WAGON	6	-1	[0, 0, 0]	n/a	FR1	0	R1027J
45.1	2.555	437334	PRACTICE_WORD	n/a	n/a	ATTIC	7	-1	[0, 0, 0]	n/a	FR1	0	R1027J
47.655	2.62	439889	PRACTICE_WORD	n/a	n/a	BEAM	8	-1	[0, 0, 0]	n/a	FR1	0	R1027J
50.275	2.404	442509	PRACTICE_WORD	n/a	n/a	FLOOD	9	-1	[0, 0, 0]	n/a	FR1	0	R1027J
52.679	2.521	444913	PRACTICE_WORD	n/a	n/a	COTTON	10	-1	[0, 0, 0]	n/a	FR1	0	R1027J
55.2	2.422	447434	PRACTICE_WORD	n/a	n/a	IRON	11	-1	[0, 0, 0]	n/a	FR1	0	R1027J
57.622	1.618	449856	PRACTICE_WORD	n/a	n/a	RHINO	12	-1	[0, 0, 0]	n/a	FR1	0	R1027J
59.24	0.002	451474	PRACTICE_DISTRACT_START	n/a	n/a	n/a	-999	-1	[0, 0, 0]	n/a	FR1	0	R1027J
59.242	0.015	451476	START	n/a	n/a	n/a	-999	-1	[-999, -999, -999]	n/a	FR1	0	R1027J
59.257	34.257	451491	PROB	34.257	n/a	n/a	-999	-1	[2, 7, 9]	18	FR1	0	R1027J
93.514	0.018	485748	STOP	n/a	n/a	n/a	-999	-1	[-999, -999, -999]	n/a	FR1	0	R1027J
93.532	0.686	485766	PRACTICE_DISTRACT_END	n/a	n/a	n/a	-999	-1	[0, 0, 0]	n/a	FR1	0	R1027J
94.218	30.515	486452	PRACTICE_REC_START	n/a	n/a	n/a	-999	-1	[0, 0, 0]	n/a	FR1	0	R1027J
124.733	24.76	516966	PRACTICE_REC_END	n/a	n/a	n/a	-999	-1	[0, 0, 0]	n/a	FR1	0	R1027J
149.493	0.001	541726	COUNTDOWN_START	n/a	n/a	n/a	-999	1	[0, 0, 0]	n/a	FR1	0	R1027J
149.494	10.427	541727	TRIAL	n/a	n/a	n/a	-999	1	[0, 0, 0]	n/a	FR1	0	R1027J
159.921	0.005	552154	COUNTDOWN_END	n/a	n/a	n/a	-999	1	[0, 0, 0]	n/a	FR1	0	R1027J
159.926	2.439	552159	ORIENT	n/a	n/a	n/a	-999	1	[0, 0, 0]	n/a	FR1	0	R1027J
162.365	2.587	554598	WORD	n/a	wordpools/wordpool_EN.txt	TRASH	1	1	[0, 0, 0]	n/a	FR1	0	R1027J
164.952	2.588	557185	WORD	n/a	wordpools/wordpool_EN.txt	CAT	2	1	[0, 0, 0]	n/a	FR1	0	R1027J
167.54	2.403	559773	WORD	n/a	wordpools/wordpool_EN.txt	ZOO	3	1	[0, 0, 0]	n/a	FR1	0	R1027J
169.943	2.522	562176	WORD	n/a	wordpools/wordpool_EN.txt	FLUTE	4	1	[0, 0, 0]	n/a	FR1	0	R1027J
172.465	2.52	564698	WORD	n/a	wordpools/wordpool_EN.txt	STAR	5	1	[0, 0, 0]	n/a	FR1	0	R1027J
174.985	2.556	567218	WORD	n/a	wordpools/wordpool_EN.txt	MAZE	6	1	[0, 0, 0]	n/a	FR1	0	R1027J
177.541	2.419	569774	WORD	n/a	wordpools/wordpool_EN.txt	SUN	7	1	[0, 0, 0]	n/a	FR1	0	R1027J
179.96	2.522	572193	WORD	n/a	wordpools/wordpool_EN.txt	DESK	8	1	[0, 0, 0]	n/a	FR1	0	R1027J
182.482	2.503	574715	WORD	n/a	wordpools/wordpool_EN.txt	BAT	9	1	[0, 0, 0]	n/a	FR1	0	R1027J
184.985	2.372	577218	WORD	n/a	wordpools/wordpool_EN.txt	MOTH	10	1	[0, 0, 0]	n/a	FR1	0	R1027J
187.357	2.386	579590	WORD	n/a	wordpools/wordpool_EN.txt	BEE	11	1	[0, 0, 0]	n/a	FR1	0	R1027J
189.743	1.604	581976	WORD	n/a	wordpools/wordpool_EN.txt	BIRD	12	1	[0, 0, 0]	n/a	FR1	0	R1027J
191.347	0.001	583580	DISTRACT_START	n/a	n/a	n/a	-999	1	[0, 0, 0]	n/a	FR1	0	R1027J
191.348	0.016	583581	START	n/a	n/a	n/a	-999	1	[-999, -999, -999]	n/a	FR1	0	R1027J
191.364	37.509	583597	PROB	37.509	n/a	n/a	-999	1	[9, 5, 8]	22	FR1	0	R1027J
228.873	0.02	621105	STOP	n/a	n/a	n/a	-999	1	[-999, -999, -999]	n/a	FR1	0	R1027J
228.893	1.236	621125	DISTRACT_END	n/a	n/a	n/a	-999	1	[0, 0, 0]	n/a	FR1	0	R1027J
230.129	8.133	622361	REC_START	n/a	n/a	n/a	-999	1	[0, 0, 0]	n/a	FR1	0	R1027J
238.262	0.499	630494	REC_WORD	0.499	n/a	TRASH	1	1	[0, 0, 0]	n/a	FR1	0	R1027J
238.761	0.468	630993	REC_WORD	0.468	n/a	CAT	2	1	[0, 0, 0]	n/a	FR1	0	R1027J
239.229	0.436	631461	REC_WORD	0.436	n/a	ZOO	3	1	[0, 0, 0]	n/a	FR1	0	R1027J
239.665	2.693	631897	REC_WORD	2.693	n/a	FLUTE	4	1	[0, 0, 0]	n/a	FR1	0	R1027J
242.358	11.271	634590	REC_WORD	11.271	n/a	ENTER	-999	1	[0, 0, 0]	n/a	FR1	0	R1027J
253.629	1.298	645861	REC_WORD_VV	1.298	n/a	<>	-999	1	[0, 0, 0]	n/a	FR1	0	R1027J
254.927	1.23	647159	REC_WORD_VV	1.23	n/a	<>	-999	1	[0, 0, 0]	n/a	FR1	0	R1027J
256.157	1.667	648389	REC_WORD_VV	1.667	n/a	<>	-999	1	[0, 0, 0]	n/a	FR1	0	R1027J
257.824	2.319	650056	REC_WORD_VV	2.319	n/a	<>	-999	1	[0, 0, 0]	n/a	FR1	0	R1027J
260.143	3.108	652375	REC_END	n/a	n/a	n/a	-999	1	[0, 0, 0]	n/a	FR1	0	R1027J
263.251	0.001	655483	COUNTDOWN_START	n/a	n/a	n/a	-999	2	[0, 0, 0]	n/a	FR1	0	R1027J
263.252	10.427	655484	TRIAL	n/a	n/a	n/a	-999	2	[0, 0, 0]	n/a	FR1	0	R1027J
273.679	0.006	665911	COUNTDOWN_END	n/a	n/a	n/a	-999	2	[0, 0, 0]	n/a	FR1	0	R1027J
273.685	2.437	665917	ORIENT	n/a	n/a	n/a	-999	2	[0, 0, 0]	n/a	FR1	0	R1027J
276.122	2.472	668354	WORD	n/a	wordpools/wordpool_EN.txt	TREE	1	2	[0, 0, 0]	n/a	FR1	0	R1027J
278.594	2.403	670826	WORD	n/a	wordpools/wordpool_EN.txt	VINE	2	2	[0, 0, 0]	n/a	FR1	0	R1027J
280.997	2.438	673229	WORD	n/a	wordpools/wordpool_EN.txt	MILK	3	2	[0, 0, 0]	n/a	FR1	0	R1027J
283.435	2.453	675667	WORD	n/a	wordpools/wordpool_EN.txt	WHEEL	4	2	[0, 0, 0]	n/a	FR1	0	R1027J
285.888	2.388	678120	WORD	n/a	wordpools/wordpool_EN.txt	STEM	5	2	[0, 0, 0]	n/a	FR1	0	R1027J
288.276	2.454	680508	WORD	n/a	wordpools/wordpool_EN.txt	CONE	6	2	[0, 0, 0]	n/a	FR1	0	R1027J
290.73	2.471	682962	WORD	n/a	wordpools/wordpool_EN.txt	ELF	7	2	[0, 0, 0]	n/a	FR1	0	R1027J
293.201	2.422	685433	WORD	n/a	wordpools/wordpool_EN.txt	SEED	8	2	[0, 0, 0]	n/a	FR1	0	R1027J
295.623	2.503	687855	WORD	n/a	wordpools/wordpool_EN.txt	THUMB	9	2	[0, 0, 0]	n/a	FR1	0	R1027J
298.126	2.571	690358	WORD	n/a	wordpools/wordpool_EN.txt	BOOT	10	2	[0, 0, 0]	n/a	FR1	0	R1027J
300.697	2.471	692929	WORD	n/a	wordpools/wordpool_EN.txt	WORM	11	2	[0, 0, 0]	n/a	FR1	0	R1027J
303.168	1.619	695400	WORD	n/a	wordpools/wordpool_EN.txt	COW	12	2	[0, 0, 0]	n/a	FR1	0	R1027J
304.787	0.001	697019	DISTRACT_START	n/a	n/a	n/a	-999	2	[0, 0, 0]	n/a	FR1	0	R1027J
304.788	0.016	697020	START	n/a	n/a	n/a	-999	2	[-999, -999, -999]	n/a	FR1	0	R1027J
304.804	13.055	697036	PROB	13.055	n/a	n/a	-999	2	[3, 9, 1]	13	FR1	0	R1027J
317.859	13.174	710090	PROB	13.174	n/a	n/a	-999	2	[1, 1, 1]	3	FR1	0	R1027J
331.033	0.015	723264	STOP	n/a	n/a	n/a	-999	2	[-999, -999, -999]	n/a	FR1	0	R1027J
331.048	1.036	723279	DISTRACT_END	n/a	n/a	n/a	-999	2	[0, 0, 0]	n/a	FR1	0	R1027J
332.084	9.413	724315	REC_START	n/a	n/a	n/a	-999	2	[0, 0, 0]	n/a	FR1	0	R1027J
341.497	1.972	733728	REC_WORD_VV	1.972	n/a	<>	-999	2	[0, 0, 0]	n/a	FR1	0	R1027J
343.469	0.349	735700	REC_WORD	0.349	n/a	MILK	3	2	[0, 0, 0]	n/a	FR1	0	R1027J
343.818	0.676	736049	REC_WORD	0.676	n/a	VINE	2	2	[0, 0, 0]	n/a	FR1	0	R1027J
344.494	0.671	736725	REC_WORD	0.671	n/a	ZOO	-999	2	[0, 0, 0]	n/a	FR1	0	R1027J
345.165	2.128	737396	REC_WORD	2.128	n/a	WHEEL	4	2	[0, 0, 0]	n/a	FR1	0	R1027J
347.293	14.806	739524	REC_WORD	14.806	n/a	COW	12	2	[0, 0, 0]	n/a	FR1	0	R1027J
362.099	7.298	754330	REC_END	n/a	n/a	n/a	-999	2	[0, 0, 0]	n/a	FR1	0	R1027J
369.397	0.0	761628	TRIAL	n/a	n/a	n/a	-999	3	[0, 0, 0]	n/a	FR1	0	R1027J
369.397	10.428	761628	COUNTDOWN_START	n/a	n/a	n/a	-999	3	[0, 0, 0]	n/a	FR1	0	R1027J
379.825	0.022	772056	COUNTDOWN_END	n/a	n/a	n/a	-999	3	[0, 0, 0]	n/a	FR1	0	R1027J
379.847	2.471	772078	ORIENT	n/a	n/a	n/a	-999	3	[0, 0, 0]	n/a	FR1	0	R1027J
382.318	2.437	774549	WORD	n/a	wordpools/wordpool_EN.txt	TRUCK	1	3	[0, 0, 0]	n/a	FR1	0	R1027J
384.755	2.504	776986	WORD	n/a	wordpools/wordpool_EN.txt	TIE	2	3	[0, 0, 0]	n/a	FR1	0	R1027J
387.259	2.588	779490	WORD	n/a	wordpools/wordpool_EN.txt	WEED	3	3	[0, 0, 0]	n/a	FR1	0	R1027J
389.847	2.622	782078	WORD	n/a	wordpools/wordpool_EN.txt	HOUSE	4	3	[0, 0, 0]	n/a	FR1	0	R1027J
392.469	2.553	784700	WORD	n/a	wordpools/wordpool_EN.txt	CHEEK	5	3	[0, 0, 0]	n/a	FR1	0	R1027J
395.022	2.539	787253	WORD	n/a	wordpools/wordpool_EN.txt	CLOCK	6	3	[0, 0, 0]	n/a	FR1	0	R1027J
397.561	2.536	789792	WORD	n/a	wordpools/wordpool_EN.txt	DOCK	7	3	[0, 0, 0]	n/a	FR1	0	R1027J
400.097	2.472	792328	WORD	n/a	wordpools/wordpool_EN.txt	BENCH	8	3	[0, 0, 0]	n/a	FR1	0	R1027J
402.569	2.521	794800	WORD	n/a	wordpools/wordpool_EN.txt	LAWN	9	3	[0, 0, 0]	n/a	FR1	0	R1027J
405.09	2.488	797321	WORD	n/a	wordpools/wordpool_EN.txt	BOX	10	3	[0, 0, 0]	n/a	FR1	0	R1027J
407.578	2.603	799809	WORD	n/a	wordpools/wordpool_EN.txt	ROAD	11	3	[0, 0, 0]	n/a	FR1	0	R1027J
410.181	1.619	802412	WORD	n/a	wordpools/wordpool_EN.txt	PANTS	12	3	[0, 0, 0]	n/a	FR1	0	R1027J
411.8	0.001	804030	DISTRACT_START	n/a	n/a	n/a	-999	3	[0, 0, 0]	n/a	FR1	0	R1027J
411.801	0.016	804031	START	n/a	n/a	n/a	-999	3	[-999, -999, -999]	n/a	FR1	0	R1027J
411.817	61.984	804047	PROB	61.984	n/a	n/a	-999	3	[6, 4, 4]	14	FR1	0	R1027J
473.801	0.02	866031	STOP	n/a	n/a	n/a	-999	3	[-999, -999, -999]	n/a	FR1	0	R1027J
473.821	1.822	866051	DISTRACT_END	n/a	n/a	n/a	-999	3	[0, 0, 0]	n/a	FR1	0	R1027J
475.643	0.397	867873	REC_START	n/a	n/a	n/a	-999	3	[0, 0, 0]	n/a	FR1	0	R1027J
476.04	0.694	868270	REC_WORD	0.694	n/a	SICK	-999	3	[0, 0, 0]	n/a	FR1	0	R1027J
476.734	0.509	868964	REC_WORD	0.509	n/a	BLOCK	-999	3	[0, 0, 0]	n/a	FR1	0	R1027J
477.243	15.046	869473	REC_WORD	15.046	n/a	DOCK	7	3	[0, 0, 0]	n/a	FR1	0	R1027J
492.289	13.367	884519	REC_WORD	13.367	n/a	TRUCK	1	3	[0, 0, 0]	n/a	FR1	0	R1027J
505.656	3.575	897886	REC_END	n/a	n/a	n/a	-999	3	[0, 0, 0]	n/a	FR1	0	R1027J
509.231	0.001	901461	COUNTDOWN_START	n/a	n/a	n/a	-999	4	[0, 0, 0]	n/a	FR1	0	R1027J
509.232	10.427	901462	TRIAL	n/a	n/a	n/a	-999	4	[0, 0, 0]	n/a	FR1	0	R1027J
519.659	0.007	911888	COUNTDOWN_END	n/a	n/a	n/a	-999	4	[0, 0, 0]	n/a	FR1	0	R1027J
519.666	2.57	911895	ORIENT	n/a	n/a	n/a	-999	4	[0, 0, 0]	n/a	FR1	0	R1027J
522.236	2.472	914465	WORD	n/a	wordpools/wordpool_EN.txt	FORT	1	4	[0, 0, 0]	n/a	FR1	0	R1027J
524.708	2.604	916937	WORD	n/a	wordpools/wordpool_EN.txt	MOON	2	4	[0, 0, 0]	n/a	FR1	0	R1027J
527.312	2.52	919541	WORD	n/a	wordpools/wordpool_EN.txt	FILM	3	4	[0, 0, 0]	n/a	FR1	0	R1027J
529.832	2.522	922061	WORD	n/a	wordpools/wordpool_EN.txt	INK	4	4	[0, 0, 0]	n/a	FR1	0	R1027J
532.354	2.403	924583	WORD	n/a	wordpools/wordpool_EN.txt	POLE	5	4	[0, 0, 0]	n/a	FR1	0	R1027J
534.757	2.606	926986	WORD	n/a	wordpools/wordpool_EN.txt	JUDGE	6	4	[0, 0, 0]	n/a	FR1	0	R1027J
537.363	2.57	929592	WORD	n/a	wordpools/wordpool_EN.txt	CASH	7	4	[0, 0, 0]	n/a	FR1	0	R1027J
539.933	2.572	932162	WORD	n/a	wordpools/wordpool_EN.txt	SHEET	8	4	[0, 0, 0]	n/a	FR1	0	R1027J
542.505	2.453	934734	WORD	n/a	wordpools/wordpool_EN.txt	MAIL	9	4	[0, 0, 0]	n/a	FR1	0	R1027J
544.958	2.538	937187	WORD	n/a	wordpools/wordpool_EN.txt	NET	10	4	[0, 0, 0]	n/a	FR1	0	R1027J
547.496	2.487	939725	WORD	n/a	wordpools/wordpool_EN.txt	TOAD	11	4	[0, 0, 0]	n/a	FR1	0	R1027J
549.983	1.62	942212	WORD	n/a	wordpools/wordpool_EN.txt	PEA	12	4	[0, 0, 0]	n/a	FR1	0	R1027J
551.603	0.001	943832	DISTRACT_START	n/a	n/a	n/a	-999	4	[0, 0, 0]	n/a	FR1	0	R1027J
551.604	0.016	943833	START	n/a	n/a	n/a	-999	4	[-999, -999, -999]	n/a	FR1	0	R1027J
551.62	30.726	943849	PROB	30.726	n/a	n/a	-999	4	[6, 2, 2]	10	FR1	0	R1027J
582.346	0.009	974575	STOP	n/a	n/a	n/a	-999	4	[-999, -999, -999]	n/a	FR1	0	R1027J
582.355	1.219	974584	DISTRACT_END	n/a	n/a	n/a	-999	4	[0, 0, 0]	n/a	FR1	0	R1027J
583.574	4.086	975803	REC_START	n/a	n/a	n/a	-999	4	[0, 0, 0]	n/a	FR1	0	R1027J
587.66	0.337	979889	REC_WORD	0.337	n/a	CASH	7	4	[0, 0, 0]	n/a	FR1	0	R1027J
587.997	0.509	980226	REC_WORD	0.509	n/a	SHEET	8	4	[0, 0, 0]	n/a	FR1	0	R1027J
588.506	0.328	980735	REC_WORD	0.328	n/a	TOAD	11	4	[0, 0, 0]	n/a	FR1	0	R1027J
588.834	0.504	981063	REC_WORD	0.504	n/a	NET	10	4	[0, 0, 0]	n/a	FR1	0	R1027J
589.338	15.123	981567	REC_WORD	15.123	n/a	PEA	12	4	[0, 0, 0]	n/a	FR1	0	R1027J
604.461	1.138	996690	REC_WORD_VV	1.138	n/a	<>	-999	4	[0, 0, 0]	n/a	FR1	0	R1027J
605.599	1.068	997828	REC_WORD_VV	1.068	n/a	<>	-999	4	[0, 0, 0]	n/a	FR1	0	R1027J
606.667	1.068	998896	REC_WORD_VV	1.068	n/a	<>	-999	4	[0, 0, 0]	n/a	FR1	0	R1027J
607.735	1.176	999964	REC_WORD_VV	1.176	n/a	<>	-999	4	[0, 0, 0]	n/a	FR1	0	R1027J
608.911	1.277	1001140	REC_WORD_VV	1.277	n/a	<>	-999	4	[0, 0, 0]	n/a	FR1	0	R1027J
610.188	3.407	1002417	REC_WORD_VV	3.407	n/a	<>	-999	4	[0, 0, 0]	n/a	FR1	0	R1027J
613.595	3.384	1005824	REC_END	n/a	n/a	n/a	-999	4	[0, 0, 0]	n/a	FR1	0	R1027J
616.979	0.0	1009207	TRIAL	n/a	n/a	n/a	-999	5	[0, 0, 0]	n/a	FR1	0	R1027J
616.979	10.428	1009207	COUNTDOWN_START	n/a	n/a	n/a	-999	5	[0, 0, 0]	n/a	FR1	0	R1027J
627.407	0.007	1019635	COUNTDOWN_END	n/a	n/a	n/a	-999	5	[0, 0, 0]	n/a	FR1	0	R1027J
627.414	2.403	1019642	ORIENT	n/a	n/a	n/a	-999	5	[0, 0, 0]	n/a	FR1	0	R1027J
629.817	2.539	1022045	WORD	n/a	wordpools/wordpool_EN.txt	FLAME	1	5	[0, 0, 0]	n/a	FR1	0	R1027J
632.356	2.553	1024584	WORD	n/a	wordpools/wordpool_EN.txt	SPARK	2	5	[0, 0, 0]	n/a	FR1	0	R1027J
634.909	2.439	1027137	WORD	n/a	wordpools/wordpool_EN.txt	LEG	3	5	[0, 0, 0]	n/a	FR1	0	R1027J
637.348	2.519	1029576	WORD	n/a	wordpools/wordpool_EN.txt	BOWL	4	5	[0, 0, 0]	n/a	FR1	0	R1027J
639.867	2.606	1032095	WORD	n/a	wordpools/wordpool_EN.txt	PURSE	5	5	[0, 0, 0]	n/a	FR1	0	R1027J
642.473	2.403	1034701	WORD	n/a	wordpools/wordpool_EN.txt	NOSE	6	5	[0, 0, 0]	n/a	FR1	0	R1027J
644.876	2.505	1037104	WORD	n/a	wordpools/wordpool_EN.txt	FACE	7	5	[0, 0, 0]	n/a	FR1	0	R1027J
647.381	2.52	1039609	WORD	n/a	wordpools/wordpool_EN.txt	EEL	8	5	[0, 0, 0]	n/a	FR1	0	R1027J
649.901	2.404	1042129	WORD	n/a	wordpools/wordpool_EN.txt	HOSE	9	5	[0, 0, 0]	n/a	FR1	0	R1027J
652.305	2.404	1044533	WORD	n/a	wordpools/wordpool_EN.txt	CHAIR	10	5	[0, 0, 0]	n/a	FR1	0	R1027J
654.709	2.471	1046937	WORD	n/a	wordpools/wordpool_EN.txt	SEAT	11	5	[0, 0, 0]	n/a	FR1	0	R1027J
657.18	1.619	1049408	WORD	n/a	wordpools/wordpool_EN.txt	SUIT	12	5	[0, 0, 0]	n/a	FR1	0	R1027J
658.799	0.001	1051027	DISTRACT_START	n/a	n/a	n/a	-999	5	[0, 0, 0]	n/a	FR1	0	R1027J
658.8	0.016	1051028	START	n/a	n/a	n/a	-999	5	[-999, -999, -999]	n/a	FR1	0	R1027J
658.816	15.994	1051044	PROB	15.994	n/a	n/a	-999	5	[1, 9, 7]	17	FR1	0	R1027J
674.81	25.744	1067038	PROB	25.744	n/a	n/a	-999	5	[2, 5, 3]	10	FR1	0	R1027J
700.554	0.017	1092782	STOP	n/a	n/a	n/a	-999	5	[-999, -999, -999]	n/a	FR1	0	R1027J
700.571	1.218	1092799	DISTRACT_END	n/a	n/a	n/a	-999	5	[0, 0, 0]	n/a	FR1	0	R1027J
701.789	1.538	1094017	REC_START	n/a	n/a	n/a	-999	5	[0, 0, 0]	n/a	FR1	0	R1027J
703.327	0.445	1095555	REC_WORD	0.445	n/a	FACE	7	5	[0, 0, 0]	n/a	FR1	0	R1027J
703.772	0.566	1096000	REC_WORD	0.566	n/a	LEG	3	5	[0, 0, 0]	n/a	FR1	0	R1027J
704.338	0.665	1096566	REC_WORD	0.665	n/a	BOWL	4	5	[0, 0, 0]	n/a	FR1	0	R1027J
705.003	1.056	1097231	REC_WORD	1.056	n/a	PURSE	5	5	[0, 0, 0]	n/a	FR1	0	R1027J
706.059	25.743	1098287	REC_WORD	25.743	n/a	NOSE	6	5	[0, 0, 0]	n/a	FR1	0	R1027J
731.802	3.176	1124029	REC_END	n/a	n/a	n/a	-999	5	[0, 0, 0]	n/a	FR1	0	R1027J
734.978	0.0	1127205	TRIAL	n/a	n/a	n/a	-999	6	[0, 0, 0]	n/a	FR1	0	R1027J
734.978	10.428	1127205	COUNTDOWN_START	n/a	n/a	n/a	-999	6	[0, 0, 0]	n/a	FR1	0	R1027J
745.406	0.007	1137633	COUNTDOWN_END	n/a	n/a	n/a	-999	6	[0, 0, 0]	n/a	FR1	0	R1027J
745.413	2.536	1137640	ORIENT	n/a	n/a	n/a	-999	6	[0, 0, 0]	n/a	FR1	0	R1027J
747.949	2.539	1140176	WORD	n/a	wordpools/wordpool_EN.txt	WOOD	1	6	[0, 0, 0]	n/a	FR1	0	R1027J
750.488	2.486	1142715	WORD	n/a	wordpools/wordpool_EN.txt	PASTE	2	6	[0, 0, 0]	n/a	FR1	0	R1027J
752.974	2.472	1145201	WORD	n/a	wordpools/wordpool_EN.txt	FORK	3	6	[0, 0, 0]	n/a	FR1	0	R1027J
755.446	2.587	1147673	WORD	n/a	wordpools/wordpool_EN.txt	PLATE	4	6	[0, 0, 0]	n/a	FR1	0	R1027J
758.033	2.438	1150260	WORD	n/a	wordpools/wordpool_EN.txt	CHALK	5	6	[0, 0, 0]	n/a	FR1	0	R1027J
760.471	2.637	1152698	WORD	n/a	wordpools/wordpool_EN.txt	STONE	6	6	[0, 0, 0]	n/a	FR1	0	R1027J
763.108	2.389	1155335	WORD	n/a	wordpools/wordpool_EN.txt	CLOTH	7	6	[0, 0, 0]	n/a	FR1	0	R1027J
765.497	2.57	1157724	WORD	n/a	wordpools/wordpool_EN.txt	BLUSH	8	6	[0, 0, 0]	n/a	FR1	0	R1027J
768.067	2.505	1160294	WORD	n/a	wordpools/wordpool_EN.txt	GLOVE	9	6	[0, 0, 0]	n/a	FR1	0	R1027J
770.572	2.603	1162799	WORD	n/a	wordpools/wordpool_EN.txt	TOOL	10	6	[0, 0, 0]	n/a	FR1	0	R1027J
773.175	2.621	1165402	WORD	n/a	wordpools/wordpool_EN.txt	AXE	11	6	[0, 0, 0]	n/a	FR1	0	R1027J
775.796	1.604	1168023	WORD	n/a	wordpools/wordpool_EN.txt	VASE	12	6	[0, 0, 0]	n/a	FR1	0	R1027J
777.4	0.001	1169627	DISTRACT_START	n/a	n/a	n/a	-999	6	[0, 0, 0]	n/a	FR1	0	R1027J
777.401	0.016	1169628	START	n/a	n/a	n/a	-999	6	[-999, -999, -999]	n/a	FR1	0	R1027J
777.417	6.476	1169644	PROB	6.476	n/a	n/a	-999	6	[7, 8, 3]	10	FR1	0	R1027J
783.893	6.995	1176120	PROB	6.995	n/a	n/a	-999	6	[4, 6, 2]	12	FR1	0	R1027J
790.888	15.793	1183115	PROB	15.793	n/a	n/a	-999	6	[6, 5, 6]	15	FR1	0	R1027J
806.681	0.017	1198908	STOP	n/a	n/a	n/a	-999	6	[-999, -999, -999]	n/a	FR1	0	R1027J
806.698	1.103	1198925	DISTRACT_END	n/a	n/a	n/a	-999	6	[0, 0, 0]	n/a	FR1	0	R1027J
807.801	4.494	1200028	REC_START	n/a	n/a	n/a	-999	6	[0, 0, 0]	n/a	FR1	0	R1027J
812.295	0.525	1204522	REC_WORD	0.525	n/a	WOOD	1	6	[0, 0, 0]	n/a	FR1	0	R1027J
812.82	3.537	1205047	REC_WORD	3.537	n/a	PASTE	2	6	[0, 0, 0]	n/a	FR1	0	R1027J
816.357	21.456	1208584	REC_WORD	21.456	n/a	ASH	-999	6	[0, 0, 0]	n/a	FR1	0	R1027J
837.813	2.56	1230039	REC_END	n/a	n/a	n/a	-999	6	[0, 0, 0]	n/a	FR1	0	R1027J
840.373	0.0	1232599	TRIAL	n/a	n/a	n/a	-999	7	[0, 0, 0]	n/a	FR1	0	R1027J
840.373	10.428	1232599	COUNTDOWN_START	n/a	n/a	n/a	-999	7	[0, 0, 0]	n/a	FR1	0	R1027J
850.801	0.005	1243027	COUNTDOWN_END	n/a	n/a	n/a	-999	7	[0, 0, 0]	n/a	FR1	0	R1027J
850.806	2.588	1243032	ORIENT	n/a	n/a	n/a	-999	7	[0, 0, 0]	n/a	FR1	0	R1027J
853.394	2.504	1245620	WORD	n/a	wordpools/wordpool_EN.txt	FUR	1	7	[0, 0, 0]	n/a	FR1	0	R1027J
855.898	2.404	1248124	WORD	n/a	wordpools/wordpool_EN.txt	BANK	2	7	[0, 0, 0]	n/a	FR1	0	R1027J
858.302	2.504	1250528	WORD	n/a	wordpools/wordpool_EN.txt	COUCH	3	7	[0, 0, 0]	n/a	FR1	0	R1027J
860.806	2.471	1253032	WORD	n/a	wordpools/wordpool_EN.txt	CROW	4	7	[0, 0, 0]	n/a	FR1	0	R1027J
863.277	2.437	1255503	WORD	n/a	wordpools/wordpool_EN.txt	CART	5	7	[0, 0, 0]	n/a	FR1	0	R1027J
865.714	2.454	1257940	WORD	n/a	wordpools/wordpool_EN.txt	SNAKE	6	7	[0, 0, 0]	n/a	FR1	0	R1027J
868.168	2.588	1260394	WORD	n/a	wordpools/wordpool_EN.txt	SKUNK	7	7	[0, 0, 0]	n/a	FR1	0	R1027J
870.756	2.556	1262982	WORD	n/a	wordpools/wordpool_EN.txt	WAND	8	7	[0, 0, 0]	n/a	FR1	0	R1027J
873.312	2.386	1265538	WORD	n/a	wordpools/wordpool_EN.txt	SHIRT	9	7	[0, 0, 0]	n/a	FR1	0	R1027J
875.698	2.554	1267924	WORD	n/a	wordpools/wordpool_EN.txt	RAT	10	7	[0, 0, 0]	n/a	FR1	0	R1027J
878.252	2.538	1270478	WORD	n/a	wordpools/wordpool_EN.txt	DOLL	11	7	[0, 0, 0]	n/a	FR1	0	R1027J
880.79	1.62	1273016	WORD	n/a	wordpools/wordpool_EN.txt	BED	12	7	[0, 0, 0]	n/a	FR1	0	R1027J
882.41	0.001	1274636	DISTRACT_START	n/a	n/a	n/a	-999	7	[0, 0, 0]	n/a	FR1	0	R1027J
882.411	0.016	1274637	START	n/a	n/a	n/a	-999	7	[-999, -999, -999]	n/a	FR1	0	R1027J
882.427	9.933	1274653	PROB	9.933	n/a	n/a	-999	7	[7, 6, 7]	20	FR1	0	R1027J
892.36	8.897	1284586	PROB	8.897	n/a	n/a	-999	7	[8, 6, 8]	22	FR1	0	R1027J
901.257	6.169	1293483	PROB	6.169	n/a	n/a	-999	7	[8, 5, 5]	18	FR1	0	R1027J
907.426	0.009	1299652	STOP	n/a	n/a	n/a	-999	7	[-999, -999, -999]	n/a	FR1	0	R1027J
907.435	1.153	1299661	DISTRACT_END	n/a	n/a	n/a	-999	7	[0, 0, 0]	n/a	FR1	0	R1027J
908.588	3.768	1300814	REC_START	n/a	n/a	n/a	-999	7	[0, 0, 0]	n/a	FR1	0	R1027J
912.356	0.588	1304582	REC_WORD	0.588	n/a	FIST	-999	7	[0, 0, 0]	n/a	FR1	0	R1027J
912.944	0.629	1305170	REC_WORD	0.629	n/a	FUR	1	7	[0, 0, 0]	n/a	FR1	0	R1027J
913.573	1.06	1305799	REC_WORD	1.06	n/a	BAG	-999	7	[0, 0, 0]	n/a	FR1	0	R1027J
914.633	2.962	1306859	REC_WORD	2.962	n/a	BANK	2	7	[0, 0, 0]	n/a	FR1	0	R1027J
917.595	21.006	1309821	REC_WORD	21.006	n/a	CROW	4	7	[0, 0, 0]	n/a	FR1	0	R1027J
938.601	4.36	1330826	REC_END	n/a	n/a	n/a	-999	7	[0, 0, 0]	n/a	FR1	0	R1027J
942.961	0.0	1335186	TRIAL	n/a	n/a	n/a	-999	8	[0, 0, 0]	n/a	FR1	0	R1027J
942.961	10.428	1335186	COUNTDOWN_START	n/a	n/a	n/a	-999	8	[0, 0, 0]	n/a	FR1	0	R1027J
953.389	0.007	1345614	COUNTDOWN_END	n/a	n/a	n/a	-999	8	[0, 0, 0]	n/a	FR1	0	R1027J
953.396	2.553	1345621	ORIENT	n/a	n/a	n/a	-999	8	[0, 0, 0]	n/a	FR1	0	R1027J
955.949	2.372	1348174	WORD	n/a	wordpools/wordpool_EN.txt	BOARD	1	8	[0, 0, 0]	n/a	FR1	0	R1027J
958.321	2.57	1350546	WORD	n/a	wordpools/wordpool_EN.txt	ARM	2	8	[0, 0, 0]	n/a	FR1	0	R1027J
960.891	2.506	1353116	WORD	n/a	wordpools/wordpool_EN.txt	HOOK	3	8	[0, 0, 0]	n/a	FR1	0	R1027J
963.397	2.553	1355622	WORD	n/a	wordpools/wordpool_EN.txt	VEST	4	8	[0, 0, 0]	n/a	FR1	0	R1027J
965.95	2.505	1358175	WORD	n/a	wordpools/wordpool_EN.txt	SOCK	5	8	[0, 0, 0]	n/a	FR1	0	R1027J
968.455	2.536	1360680	WORD	n/a	wordpools/wordpool_EN.txt	TOAST	6	8	[0, 0, 0]	n/a	FR1	0	R1027J
970.991	2.456	1363216	WORD	n/a	wordpools/wordpool_EN.txt	MAT	7	8	[0, 0, 0]	n/a	FR1	0	R1027J
973.447	2.569	1365672	WORD	n/a	wordpools/wordpool_EN.txt	NAIL	8	8	[0, 0, 0]	n/a	FR1	0	R1027J
976.016	2.472	1368241	WORD	n/a	wordpools/wordpool_EN.txt	STOVE	9	8	[0, 0, 0]	n/a	FR1	0	R1027J
978.488	2.587	1370713	WORD	n/a	wordpools/wordpool_EN.txt	ROOM	10	8	[0, 0, 0]	n/a	FR1	0	R1027J
981.075	2.539	1373300	WORD	n/a	wordpools/wordpool_EN.txt	HOOF	11	8	[0, 0, 0]	n/a	FR1	0	R1027J
983.614	1.618	1375839	WORD	n/a	wordpools/wordpool_EN.txt	BRUSH	12	8	[0, 0, 0]	n/a	FR1	0	R1027J
985.232	0.001	1377457	DISTRACT_START	n/a	n/a	n/a	-999	8	[0, 0, 0]	n/a	FR1	0	R1027J
985.233	0.016	1377458	START	n/a	n/a	n/a	-999	8	[-999, -999, -999]	n/a	FR1	0	R1027J
985.249	5.926	1377474	PROB	5.926	n/a	n/a	-999	8	[2, 4, 3]	9	FR1	0	R1027J
991.175	6.111	1383400	PROB	6.111	n/a	n/a	-999	8	[5, 1, 6]	12	FR1	0	R1027J
997.286	5.509	1389511	PROB	5.509	n/a	n/a	-999	8	[4, 7, 3]	14	FR1	0	R1027J
1002.795	6.47	1395020	PROB	6.47	n/a	n/a	-999	8	[7, 4, 2]	13	FR1	0	R1027J
1009.265	0.007	1401490	STOP	n/a	n/a	n/a	-999	8	[-999, -999, -999]	n/a	FR1	0	R1027J
1009.272	1.104	1401497	DISTRACT_END	n/a	n/a	n/a	-999	8	[0, 0, 0]	n/a	FR1	0	R1027J
1010.376	6.605	1402601	REC_START	n/a	n/a	n/a	-999	8	[0, 0, 0]	n/a	FR1	0	R1027J
1016.981	5.916	1409206	REC_WORD	5.916	n/a	BOOK	-999	8	[0, 0, 0]	n/a	FR1	0	R1027J
1022.897	17.491	1415122	REC_WORD	17.491	n/a	FOX	-999	8	[0, 0, 0]	n/a	FR1	0	R1027J
1040.388	3.727	1432612	REC_END	n/a	n/a	n/a	-999	8	[0, 0, 0]	n/a	FR1	0	R1027J
1044.115	0.001	1436339	COUNTDOWN_START	n/a	n/a	n/a	-999	9	[0, 0, 0]	n/a	FR1	0	R1027J
1044.116	10.427	1436340	TRIAL	n/a	n/a	n/a	-999	9	[0, 0, 0]	n/a	FR1	0	R1027J
1054.543	0.007	1446767	COUNTDOWN_END	n/a	n/a	n/a	-999	9	[0, 0, 0]	n/a	FR1	0	R1027J
1054.55	2.519	1446774	ORIENT	n/a	n/a	n/a	-999	9	[0, 0, 0]	n/a	FR1	0	R1027J
1057.069	2.406	1449293	WORD	n/a	wordpools/wordpool_EN.txt	STEAK	1	9	[0, 0, 0]	n/a	FR1	0	R1027J
1059.475	2.553	1451699	WORD	n/a	wordpools/wordpool_EN.txt	GOLD	2	9	[0, 0, 0]	n/a	FR1	0	R1027J
1062.028	2.589	1454252	WORD	n/a	wordpools/wordpool_EN.txt	PRINCE	3	9	[0, 0, 0]	n/a	FR1	0	R1027J
1064.617	2.553	1456841	WORD	n/a	wordpools/wordpool_EN.txt	BOAT	4	9	[0, 0, 0]	n/a	FR1	0	R1027J
1067.17	2.472	1459394	WORD	n/a	wordpools/wordpool_EN.txt	TRAIN	5	9	[0, 0, 0]	n/a	FR1	0	R1027J
1069.642	2.469	1461866	WORD	n/a	wordpools/wordpool_EN.txt	JET	6	9	[0, 0, 0]	n/a	FR1	0	R1027J
1072.111	2.522	1464335	WORD	n/a	wordpools/wordpool_EN.txt	PEARL	7	9	[0, 0, 0]	n/a	FR1	0	R1027J
1074.633	2.437	1466857	WORD	n/a	wordpools/wordpool_EN.txt	TOOTH	8	9	[0, 0, 0]	n/a	FR1	0	R1027J
1077.07	2.506	1469294	WORD	n/a	wordpools/wordpool_EN.txt	SHRIMP	9	9	[0, 0, 0]	n/a	FR1	0	R1027J
1079.576	2.402	1471800	WORD	n/a	wordpools/wordpool_EN.txt	CROWN	10	9	[0, 0, 0]	n/a	FR1	0	R1027J
1081.978	2.422	1474202	WORD	n/a	wordpools/wordpool_EN.txt	FISH	11	9	[0, 0, 0]	n/a	FR1	0	R1027J
1084.4	1.618	1476624	WORD	n/a	wordpools/wordpool_EN.txt	SLIME	12	9	[0, 0, 0]	n/a	FR1	0	R1027J
1086.018	0.001	1478242	DISTRACT_START	n/a	n/a	n/a	-999	9	[0, 0, 0]	n/a	FR1	0	R1027J
1086.019	0.016	1478243	START	n/a	n/a	n/a	-999	9	[-999, -999, -999]	n/a	FR1	0	R1027J
1086.035	6.529	1478259	PROB	6.529	n/a	n/a	-999	9	[9, 2, 4]	15	FR1	0	R1027J
1092.564	10.835	1484788	PROB	10.835	n/a	n/a	-999	9	[5, 6, 8]	19	FR1	0	R1027J
1103.399	7.722	1495623	PROB	7.722	n/a	n/a	-999	9	[7, 4, 9]	20	FR1	0	R1027J
1111.121	0.006	1503345	STOP	n/a	n/a	n/a	-999	9	[-999, -999, -999]	n/a	FR1	0	R1027J
1111.127	1.053	1503351	DISTRACT_END	n/a	n/a	n/a	-999	9	[0, 0, 0]	n/a	FR1	0	R1027J
1112.18	3.354	1504404	REC_START	n/a	n/a	n/a	-999	9	[0, 0, 0]	n/a	FR1	0	R1027J
1115.534	0.462	1507758	REC_WORD	0.462	n/a	FISH	11	9	[0, 0, 0]	n/a	FR1	0	R1027J
1115.996	3.64	1508220	REC_WORD	3.64	n/a	GOLD	2	9	[0, 0, 0]	n/a	FR1	0	R1027J
1119.636	22.559	1511860	REC_WORD	22.559	n/a	PRINCE	3	9	[0, 0, 0]	n/a	FR1	0	R1027J
1142.195	2.44	1534418	REC_END	n/a	n/a	n/a	-999	9	[0, 0, 0]	n/a	FR1	0	R1027J
1144.635	0.0	1536858	TRIAL	n/a	n/a	n/a	-999	10	[0, 0, 0]	n/a	FR1	0	R1027J
1144.635	10.428	1536858	COUNTDOWN_START	n/a	n/a	n/a	-999	10	[0, 0, 0]	n/a	FR1	0	R1027J
1155.063	0.005	1547286	COUNTDOWN_END	n/a	n/a	n/a	-999	10	[0, 0, 0]	n/a	FR1	0	R1027J
1155.068	2.422	1547291	ORIENT	n/a	n/a	n/a	-999	10	[0, 0, 0]	n/a	FR1	0	R1027J
1157.49	2.603	1549713	WORD	n/a	wordpools/wordpool_EN.txt	BARN	1	10	[0, 0, 0]	n/a	FR1	0	R1027J
1160.093	2.522	1552316	WORD	n/a	wordpools/wordpool_EN.txt	LAKE	2	10	[0, 0, 0]	n/a	FR1	0	R1027J
1162.615	2.603	1554838	WORD	n/a	wordpools/wordpool_EN.txt	CRANE	3	10	[0, 0, 0]	n/a	FR1	0	R1027J
1165.218	2.488	1557441	WORD	n/a	wordpools/wordpool_EN.txt	CANE	4	10	[0, 0, 0]	n/a	FR1	0	R1027J
1167.706	2.47	1559929	WORD	n/a	wordpools/wordpool_EN.txt	HEN	5	10	[0, 0, 0]	n/a	FR1	0	R1027J
1170.176	2.555	1562399	WORD	n/a	wordpools/wordpool_EN.txt	GRASS	6	10	[0, 0, 0]	n/a	FR1	0	R1027J
1172.731	2.605	1564954	WORD	n/a	wordpools/wordpool_EN.txt	JEEP	7	10	[0, 0, 0]	n/a	FR1	0	R1027J
1175.336	2.62	1567559	WORD	n/a	wordpools/wordpool_EN.txt	CORN	8	10	[0, 0, 0]	n/a	FR1	0	R1027J
1177.956	2.589	1570179	WORD	n/a	wordpools/wordpool_EN.txt	HILL	9	10	[0, 0, 0]	n/a	FR1	0	R1027J
1180.545	2.438	1572768	WORD	n/a	wordpools/wordpool_EN.txt	SLEEVE	10	10	[0, 0, 0]	n/a	FR1	0	R1027J
1182.983	2.403	1575206	WORD	n/a	wordpools/wordpool_EN.txt	OAR	11	10	[0, 0, 0]	n/a	FR1	0	R1027J
1185.386	1.619	1577609	WORD	n/a	wordpools/wordpool_EN.txt	TENT	12	10	[0, 0, 0]	n/a	FR1	0	R1027J
1187.005	0.001	1579228	DISTRACT_START	n/a	n/a	n/a	-999	10	[0, 0, 0]	n/a	FR1	0	R1027J
1187.006	0.015	1579229	START	n/a	n/a	n/a	-999	10	[-999, -999, -999]	n/a	FR1	0	R1027J
1187.021	5.578	1579244	PROB	5.578	n/a	n/a	-999	10	[4, 1, 6]	11	FR1	0	R1027J
1192.599	5.893	1584822	PROB	5.893	n/a	n/a	-999	10	[5, 2, 7]	14	FR1	0	R1027J
1198.492	5.025	1590715	PROB	5.025	n/a	n/a	-999	10	[8, 7, 3]	18	FR1	0	R1027J
1203.517	5.965	1595740	PROB	5.965	n/a	n/a	-999	10	[3, 5, 2]	10	FR1	0	R1027J
1209.482	0.012	1601705	STOP	n/a	n/a	n/a	-999	10	[-999, -999, -999]	n/a	FR1	0	R1027J
1209.494	1.085	1601717	DISTRACT_END	n/a	n/a	n/a	-999	10	[0, 0, 0]	n/a	FR1	0	R1027J
1210.579	20.318	1602802	REC_START	n/a	n/a	n/a	-999	10	[0, 0, 0]	n/a	FR1	0	R1027J
1230.897	0.405	1623119	REC_WORD	0.405	n/a	FINE	-999	10	[0, 0, 0]	n/a	FR1	0	R1027J
1231.302	7.066	1623524	REC_WORD	7.066	n/a	FENCE	-999	10	[0, 0, 0]	n/a	FR1	0	R1027J
1238.368	1.104	1630590	REC_WORD_VV	1.104	n/a	<>	-999	10	[0, 0, 0]	n/a	FR1	0	R1027J
1239.472	1.016	1631694	REC_WORD_VV	1.016	n/a	<>	-999	10	[0, 0, 0]	n/a	FR1	0	R1027J
1240.488	0.106	1632710	REC_WORD_VV	0.106	n/a	<>	-999	10	[0, 0, 0]	n/a	FR1	0	R1027J
1240.594	4.325	1632816	REC_END	n/a	n/a	n/a	-999	10	[0, 0, 0]	n/a	FR1	0	R1027J
1244.919	0.0	1637141	TRIAL	n/a	n/a	n/a	-999	11	[0, 0, 0]	n/a	FR1	0	R1027J
1244.919	10.428	1637141	COUNTDOWN_START	n/a	n/a	n/a	-999	11	[0, 0, 0]	n/a	FR1	0	R1027J
1255.347	0.007	1647569	COUNTDOWN_END	n/a	n/a	n/a	-999	11	[0, 0, 0]	n/a	FR1	0	R1027J
1255.354	2.403	1647576	ORIENT	n/a	n/a	n/a	-999	11	[0, 0, 0]	n/a	FR1	0	R1027J
1257.757	2.521	1649979	WORD	n/a	wordpools/wordpool_EN.txt	BROOM	1	11	[0, 0, 0]	n/a	FR1	0	R1027J
1260.278	2.604	1652500	WORD	n/a	wordpools/wordpool_EN.txt	DRESS	2	11	[0, 0, 0]	n/a	FR1	0	R1027J
1262.882	2.591	1655104	WORD	n/a	wordpools/wordpool_EN.txt	OAK	3	11	[0, 0, 0]	n/a	FR1	0	R1027J
1265.473	2.518	1657695	WORD	n/a	wordpools/wordpool_EN.txt	ROOF	4	11	[0, 0, 0]	n/a	FR1	0	R1027J
1267.991	2.489	1660213	WORD	n/a	wordpools/wordpool_EN.txt	HORSE	5	11	[0, 0, 0]	n/a	FR1	0	R1027J
1270.48	2.386	1662702	WORD	n/a	wordpools/wordpool_EN.txt	RAKE	6	11	[0, 0, 0]	n/a	FR1	0	R1027J
1272.866	2.387	1665088	WORD	n/a	wordpools/wordpool_EN.txt	WHALE	7	11	[0, 0, 0]	n/a	FR1	0	R1027J
1275.253	2.405	1667475	WORD	n/a	wordpools/wordpool_EN.txt	DRUM	8	11	[0, 0, 0]	n/a	FR1	0	R1027J
1277.658	2.605	1669880	WORD	n/a	wordpools/wordpool_EN.txt	BAG	9	11	[0, 0, 0]	n/a	FR1	0	R1027J
1280.263	2.47	1672485	WORD	n/a	wordpools/wordpool_EN.txt	FLAG	10	11	[0, 0, 0]	n/a	FR1	0	R1027J
1282.733	2.454	1674955	WORD	n/a	wordpools/wordpool_EN.txt	CLOWN	11	11	[0, 0, 0]	n/a	FR1	0	R1027J
1285.187	1.619	1677409	WORD	n/a	wordpools/wordpool_EN.txt	PARK	12	11	[0, 0, 0]	n/a	FR1	0	R1027J
1286.806	0.001	1679028	DISTRACT_START	n/a	n/a	n/a	-999	11	[0, 0, 0]	n/a	FR1	0	R1027J
1286.807	0.016	1679029	START	n/a	n/a	n/a	-999	11	[-999, -999, -999]	n/a	FR1	0	R1027J
1286.823	9.517	1679045	PROB	9.517	n/a	n/a	-999	11	[8, 5, 8]	21	FR1	0	R1027J
1296.34	6.693	1688562	PROB	6.693	n/a	n/a	-999	11	[1, 7, 5]	13	FR1	0	R1027J
1303.033	5.224	1695255	PROB	5.224	n/a	n/a	-999	11	[4, 2, 7]	13	FR1	0	R1027J
1308.257	0.019	1700479	STOP	n/a	n/a	n/a	-999	11	[-999, -999, -999]	n/a	FR1	0	R1027J
1308.276	1.203	1700498	DISTRACT_END	n/a	n/a	n/a	-999	11	[0, 0, 0]	n/a	FR1	0	R1027J
1309.479	6.211	1701701	REC_START	n/a	n/a	n/a	-999	11	[0, 0, 0]	n/a	FR1	0	R1027J
1315.69	0.86	1707912	REC_WORD	0.86	n/a	BROOM	1	11	[0, 0, 0]	n/a	FR1	0	R1027J
1316.55	2.524	1708772	REC_WORD	2.524	n/a	OAK	3	11	[0, 0, 0]	n/a	FR1	0	R1027J
1319.074	1.677	1711296	REC_WORD	1.677	n/a	ROOM	-999	11	[0, 0, 0]	n/a	FR1	0	R1027J
1320.751	2.934	1712973	REC_WORD	2.934	n/a	DRESS	2	11	[0, 0, 0]	n/a	FR1	0	R1027J
1323.685	3.286	1715907	REC_WORD	3.286	n/a	RAG	-999	11	[0, 0, 0]	n/a	FR1	0	R1027J
1326.971	12.073	1719193	REC_WORD_VV	12.073	n/a	<>	-999	11	[0, 0, 0]	n/a	FR1	0	R1027J
1339.044	0.449	1731265	REC_WORD	0.449	n/a	OAK	3	11	[0, 0, 0]	n/a	FR1	0	R1027J
1339.493	3.257	1731714	REC_END	n/a	n/a	n/a	-999	11	[0, 0, 0]	n/a	FR1	0	R1027J
1342.75	0.001	1734971	COUNTDOWN_START	n/a	n/a	n/a	-999	12	[0, 0, 0]	n/a	FR1	0	R1027J
1342.751	10.427	1734972	TRIAL	n/a	n/a	n/a	-999	12	[0, 0, 0]	n/a	FR1	0	R1027J
1353.178	0.006	1745399	COUNTDOWN_END	n/a	n/a	n/a	-999	12	[0, 0, 0]	n/a	FR1	0	R1027J
1353.184	2.472	1745405	ORIENT	n/a	n/a	n/a	-999	12	[0, 0, 0]	n/a	FR1	0	R1027J
1355.656	2.453	1747877	WORD	n/a	wordpools/wordpool_EN.txt	GRAPE	1	12	[0, 0, 0]	n/a	FR1	0	R1027J
1358.109	2.389	1750330	WORD	n/a	wordpools/wordpool_EN.txt	STORE	2	12	[0, 0, 0]	n/a	FR1	0	R1027J
1360.498	2.47	1752719	WORD	n/a	wordpools/wordpool_EN.txt	PHONE	3	12	[0, 0, 0]	n/a	FR1	0	R1027J
1362.968	2.555	1755189	WORD	n/a	wordpools/wordpool_EN.txt	PEN	4	12	[0, 0, 0]	n/a	FR1	0	R1027J
1365.523	2.436	1757744	WORD	n/a	wordpools/wordpool_EN.txt	BADGE	5	12	[0, 0, 0]	n/a	FR1	0	R1027J
1367.959	2.389	1760180	WORD	n/a	wordpools/wordpool_EN.txt	MUG	6	12	[0, 0, 0]	n/a	FR1	0	R1027J
1370.348	2.603	1762569	WORD	n/a	wordpools/wordpool_EN.txt	FENCE	7	12	[0, 0, 0]	n/a	FR1	0	R1027J
1372.951	2.505	1765172	WORD	n/a	wordpools/wordpool_EN.txt	VAN	8	12	[0, 0, 0]	n/a	FR1	0	R1027J
1375.456	2.503	1767677	WORD	n/a	wordpools/wordpool_EN.txt	BOOK	9	12	[0, 0, 0]	n/a	FR1	0	R1027J
1377.959	2.457	1770180	WORD	n/a	wordpools/wordpool_EN.txt	DOG	10	12	[0, 0, 0]	n/a	FR1	0	R1027J
1380.416	2.585	1772637	WORD	n/a	wordpools/wordpool_EN.txt	JAIL	11	12	[0, 0, 0]	n/a	FR1	0	R1027J
1383.001	1.604	1775222	WORD	n/a	wordpools/wordpool_EN.txt	APE	12	12	[0, 0, 0]	n/a	FR1	0	R1027J
1384.605	0.001	1776826	DISTRACT_START	n/a	n/a	n/a	-999	12	[0, 0, 0]	n/a	FR1	0	R1027J
1384.606	0.016	1776827	START	n/a	n/a	n/a	-999	12	[-999, -999, -999]	n/a	FR1	0	R1027J
1384.622	6.343	1776843	PROB	6.343	n/a	n/a	-999	12	[1, 6, 5]	12	FR1	0	R1027J
1390.965	6.294	1783186	PROB	6.294	n/a	n/a	-999	12	[6, 6, 8]	20	FR1	0	R1027J
1397.259	5.41	1789480	PROB	5.41	n/a	n/a	-999	12	[1, 2, 4]	8	FR1	0	R1027J
1402.669	4.372	1794890	PROB	4.372	n/a	n/a	-999	12	[6, 1, 5]	12	FR1	0	R1027J
1407.041	0.017	1799262	STOP	n/a	n/a	n/a	-999	12	[-999, -999, -999]	n/a	FR1	0	R1027J
1407.058	1.136	1799279	DISTRACT_END	n/a	n/a	n/a	-999	12	[0, 0, 0]	n/a	FR1	0	R1027J
1408.194	17.721	1800415	REC_START	n/a	n/a	n/a	-999	12	[0, 0, 0]	n/a	FR1	0	R1027J
1425.915	0.449	1818136	REC_WORD	0.449	n/a	BAG	-999	12	[0, 0, 0]	n/a	FR1	0	R1027J
1426.364	11.88	1818585	REC_WORD	11.88	n/a	PEN	4	12	[0, 0, 0]	n/a	FR1	0	R1027J
1438.244	2.555	1830464	REC_END	n/a	n/a	n/a	-999	12	[0, 0, 0]	n/a	FR1	0	R1027J
1440.799	0.0	1833019	TRIAL	n/a	n/a	n/a	-999	13	[0, 0, 0]	n/a	FR1	0	R1027J
1440.799	10.428	1833019	COUNTDOWN_START	n/a	n/a	n/a	-999	13	[0, 0, 0]	n/a	FR1	0	R1027J
1451.227	0.006	1843447	COUNTDOWN_END	n/a	n/a	n/a	-999	13	[0, 0, 0]	n/a	FR1	0	R1027J
1451.233	2.554	1843453	ORIENT	n/a	n/a	n/a	-999	13	[0, 0, 0]	n/a	FR1	0	R1027J
1453.787	2.387	1846007	WORD	n/a	wordpools/wordpool_EN.txt	FOX	1	13	[0, 0, 0]	n/a	FR1	0	R1027J
1456.174	2.538	1848394	WORD	n/a	wordpools/wordpool_EN.txt	LAMB	2	13	[0, 0, 0]	n/a	FR1	0	R1027J
1458.712	2.488	1850932	WORD	n/a	wordpools/wordpool_EN.txt	TAIL	3	13	[0, 0, 0]	n/a	FR1	0	R1027J
1461.2	2.405	1853420	WORD	n/a	wordpools/wordpool_EN.txt	SPEAR	4	13	[0, 0, 0]	n/a	FR1	0	R1027J
1463.605	2.536	1855825	WORD	n/a	wordpools/wordpool_EN.txt	GATE	5	13	[0, 0, 0]	n/a	FR1	0	R1027J
1466.141	2.422	1858361	WORD	n/a	wordpools/wordpool_EN.txt	PEAR	6	13	[0, 0, 0]	n/a	FR1	0	R1027J
1468.563	2.553	1860783	WORD	n/a	wordpools/wordpool_EN.txt	PIT	7	13	[0, 0, 0]	n/a	FR1	0	R1027J
1471.116	2.556	1863336	WORD	n/a	wordpools/wordpool_EN.txt	CLIFF	8	13	[0, 0, 0]	n/a	FR1	0	R1027J
1473.672	2.62	1865892	WORD	n/a	wordpools/wordpool_EN.txt	CALF	9	13	[0, 0, 0]	n/a	FR1	0	R1027J
1476.292	2.537	1868512	WORD	n/a	wordpools/wordpool_EN.txt	ROCK	10	13	[0, 0, 0]	n/a	FR1	0	R1027J
1478.829	2.489	1871049	WORD	n/a	wordpools/wordpool_EN.txt	MOLE	11	13	[0, 0, 0]	n/a	FR1	0	R1027J
1481.318	1.618	1873538	WORD	n/a	wordpools/wordpool_EN.txt	FROG	12	13	[0, 0, 0]	n/a	FR1	0	R1027J
1482.936	0.001	1875156	DISTRACT_START	n/a	n/a	n/a	-999	13	[0, 0, 0]	n/a	FR1	0	R1027J
1482.937	0.033	1875157	START	n/a	n/a	n/a	-999	13	[-999, -999, -999]	n/a	FR1	0	R1027J
1482.97	7.128	1875190	PROB	7.128	n/a	n/a	-999	13	[9, 5, 8]	22	FR1	0	R1027J
1490.098	4.691	1882318	PROB	4.691	n/a	n/a	-999	13	[2, 8, 1]	11	FR1	0	R1027J
1494.789	5.076	1887009	PROB	5.076	n/a	n/a	-999	13	[4, 7, 7]	18	FR1	0	R1027J
1499.865	29.713	1892085	PROB	29.713	n/a	n/a	-999	13	[7, 9, 8]	24	FR1	0	R1027J
1529.578	0.021	1921798	STOP	n/a	n/a	n/a	-999	13	[-999, -999, -999]	n/a	FR1	0	R1027J
1529.599	1.185	1921819	DISTRACT_END	n/a	n/a	n/a	-999	13	[0, 0, 0]	n/a	FR1	0	R1027J
1530.784	3.382	1923004	REC_START	n/a	n/a	n/a	-999	13	[0, 0, 0]	n/a	FR1	0	R1027J
1534.166	0.38	1926386	REC_WORD	0.38	n/a	PAIL	-999	13	[0, 0, 0]	n/a	FR1	0	R1027J
1534.546	5.039	1926766	REC_WORD	5.039	n/a	APE	-999	13	[0, 0, 0]	n/a	FR1	0	R1027J
1539.585	2.642	1931804	REC_WORD	2.642	n/a	GATE	5	13	[0, 0, 0]	n/a	FR1	0	R1027J
1542.227	3.114	1934446	REC_WORD	3.114	n/a	PEN	-999	13	[0, 0, 0]	n/a	FR1	0	R1027J
1545.341	5.037	1937560	REC_WORD	5.037	n/a	PIN	-999	13	[0, 0, 0]	n/a	FR1	0	R1027J
1550.378	7.232	1942597	REC_WORD_VV	7.232	n/a	<>	-999	13	[0, 0, 0]	n/a	FR1	0	R1027J
1557.61	1.091	1949829	REC_WORD_VV	1.091	n/a	<>	-999	13	[0, 0, 0]	n/a	FR1	0	R1027J
1558.701	1.033	1950920	REC_WORD_VV	1.033	n/a	<>	-999	13	[0, 0, 0]	n/a	FR1	0	R1027J
1559.734	1.065	1951953	REC_WORD_VV	1.065	n/a	<>	-999	13	[0, 0, 0]	n/a	FR1	0	R1027J
1560.799	1270.874	1953018	REC_END	n/a	n/a	n/a	-999	13	[0, 0, 0]	n/a	FR1	0	R1027J
2831.673	0.001	3223880	COUNTDOWN_START	n/a	n/a	n/a	-999	14	[0, 0, 0]	n/a	FR1	0	R1027J
2831.674	10.427	3223881	TRIAL	n/a	n/a	n/a	-999	14	[0, 0, 0]	n/a	FR1	0	R1027J
2842.101	0.005	3234308	COUNTDOWN_END	n/a	n/a	n/a	-999	14	[0, 0, 0]	n/a	FR1	0	R1027J
2842.106	2.389	3234313	ORIENT	n/a	n/a	n/a	-999	14	[0, 0, 0]	n/a	FR1	0	R1027J
2844.495	2.503	3236702	WORD	n/a	wordpools/wordpool_EN.txt	SIGN	1	14	[0, 0, 0]	n/a	FR1	0	R1027J
2846.998	2.388	3239205	WORD	n/a	wordpools/wordpool_EN.txt	SKI	2	14	[0, 0, 0]	n/a	FR1	0	R1027J
2849.386	2.587	3241593	WORD	n/a	wordpools/wordpool_EN.txt	FLEA	3	14	[0, 0, 0]	n/a	FR1	0	R1027J
2851.973	2.438	3244180	WORD	n/a	wordpools/wordpool_EN.txt	PIN	4	14	[0, 0, 0]	n/a	FR1	0	R1027J
2854.411	2.454	3246618	WORD	n/a	wordpools/wordpool_EN.txt	ROPE	5	14	[0, 0, 0]	n/a	FR1	0	R1027J
2856.865	2.521	3249072	WORD	n/a	wordpools/wordpool_EN.txt	SHOE	6	14	[0, 0, 0]	n/a	FR1	0	R1027J
2859.386	2.621	3251593	WORD	n/a	wordpools/wordpool_EN.txt	RIB	7	14	[0, 0, 0]	n/a	FR1	0	R1027J
2862.007	2.538	3254214	WORD	n/a	wordpools/wordpool_EN.txt	MUD	8	14	[0, 0, 0]	n/a	FR1	0	R1027J
2864.545	2.587	3256752	WORD	n/a	wordpools/wordpool_EN.txt	BATH	9	14	[0, 0, 0]	n/a	FR1	0	R1027J
2867.132	2.488	3259339	WORD	n/a	wordpools/wordpool_EN.txt	FOOT	10	14	[0, 0, 0]	n/a	FR1	0	R1027J
2869.62	2.387	3261826	WORD	n/a	wordpools/wordpool_EN.txt	HAWK	11	14	[0, 0, 0]	n/a	FR1	0	R1027J
2872.007	1.62	3264213	WORD	n/a	wordpools/wordpool_EN.txt	CHIN	12	14	[0, 0, 0]	n/a	FR1	0	R1027J
2873.627	0.001	3265833	DISTRACT_START	n/a	n/a	n/a	-999	14	[0, 0, 0]	n/a	FR1	0	R1027J
2873.628	0.016	3265834	START	n/a	n/a	n/a	-999	14	[-999, -999, -999]	n/a	FR1	0	R1027J
2873.644	7.111	3265850	PROB	7.111	n/a	n/a	-999	14	[6, 4, 6]	16	FR1	0	R1027J
2880.755	6.294	3272961	PROB	6.294	n/a	n/a	-999	14	[5, 6, 4]	15	FR1	0	R1027J
2887.049	4.774	3279255	PROB	4.774	n/a	n/a	-999	14	[9, 5, 5]	19	FR1	0	R1027J
2891.823	6.579	3284029	PROB	6.579	n/a	n/a	-999	14	[8, 4, 7]	19	FR1	0	R1027J
2898.402	0.017	3290608	STOP	n/a	n/a	n/a	-999	14	[-999, -999, -999]	n/a	FR1	0	R1027J
2898.419	1.136	3290625	DISTRACT_END	n/a	n/a	n/a	-999	14	[0, 0, 0]	n/a	FR1	0	R1027J
2899.555	3.666	3291761	REC_START	n/a	n/a	n/a	-999	14	[0, 0, 0]	n/a	FR1	0	R1027J
2903.221	0.502	3295427	REC_WORD	0.502	n/a	PIN	4	14	[0, 0, 0]	n/a	FR1	0	R1027J
2903.723	1.156	3295929	REC_WORD	1.156	n/a	ROPE	5	14	[0, 0, 0]	n/a	FR1	0	R1027J
2904.879	2.826	3297085	REC_WORD	2.826	n/a	FLEA	3	14	[0, 0, 0]	n/a	FR1	0	R1027J
2907.705	21.863	3299911	REC_WORD	21.863	n/a	BEE	-999	14	[0, 0, 0]	n/a	FR1	0	R1027J
2929.568	2.707	3321774	REC_END	n/a	n/a	n/a	-999	14	[0, 0, 0]	n/a	FR1	0	R1027J
2932.275	0.0	3324481	TRIAL	n/a	n/a	n/a	-999	15	[0, 0, 0]	n/a	FR1	0	R1027J
2932.275	10.428	3324481	COUNTDOWN_START	n/a	n/a	n/a	-999	15	[0, 0, 0]	n/a	FR1	0	R1027J
2942.703	0.006	3334909	COUNTDOWN_END	n/a	n/a	n/a	-999	15	[0, 0, 0]	n/a	FR1	0	R1027J
2942.709	2.607	3334915	ORIENT	n/a	n/a	n/a	-999	15	[0, 0, 0]	n/a	FR1	0	R1027J
2945.316	2.386	3337522	WORD	n/a	wordpools/wordpool_EN.txt	POND	1	15	[0, 0, 0]	n/a	FR1	0	R1027J
2947.702	2.47	3339908	WORD	n/a	wordpools/wordpool_EN.txt	HAND	2	15	[0, 0, 0]	n/a	FR1	0	R1027J
2950.172	2.587	3342378	WORD	n/a	wordpools/wordpool_EN.txt	SPONGE	3	15	[0, 0, 0]	n/a	FR1	0	R1027J
2952.759	2.471	3344965	WORD	n/a	wordpools/wordpool_EN.txt	WAVE	4	15	[0, 0, 0]	n/a	FR1	0	R1027J
2955.23	2.489	3347436	WORD	n/a	wordpools/wordpool_EN.txt	SHELL	5	15	[0, 0, 0]	n/a	FR1	0	R1027J
2957.719	2.403	3349925	WORD	n/a	wordpools/wordpool_EN.txt	EAR	6	15	[0, 0, 0]	n/a	FR1	0	R1027J
2960.122	2.405	3352328	WORD	n/a	wordpools/wordpool_EN.txt	BEACH	7	15	[0, 0, 0]	n/a	FR1	0	R1027J
2962.527	2.503	3354733	WORD	n/a	wordpools/wordpool_EN.txt	CAGE	8	15	[0, 0, 0]	n/a	FR1	0	R1027J
2965.03	2.422	3357236	WORD	n/a	wordpools/wordpool_EN.txt	SNAIL	9	15	[0, 0, 0]	n/a	FR1	0	R1027J
2967.452	2.586	3359658	WORD	n/a	wordpools/wordpool_EN.txt	NEST	10	15	[0, 0, 0]	n/a	FR1	0	R1027J
2970.038	2.389	3362244	WORD	n/a	wordpools/wordpool_EN.txt	BEAK	11	15	[0, 0, 0]	n/a	FR1	0	R1027J
2972.427	1.618	3364632	WORD	n/a	wordpools/wordpool_EN.txt	THREAD	12	15	[0, 0, 0]	n/a	FR1	0	R1027J
2974.045	0.001	3366250	DISTRACT_START	n/a	n/a	n/a	-999	15	[0, 0, 0]	n/a	FR1	0	R1027J
2974.046	0.016	3366251	START	n/a	n/a	n/a	-999	15	[-999, -999, -999]	n/a	FR1	0	R1027J
2974.062	5.175	3366267	PROB	5.175	n/a	n/a	-999	15	[2, 6, 1]	9	FR1	0	R1027J
2979.237	3.623	3371442	PROB	3.623	n/a	n/a	-999	15	[3, 3, 3]	9	FR1	0	R1027J
2982.86	9.833	3375065	PROB	9.833	n/a	n/a	-999	15	[8, 7, 8]	23	FR1	0	R1027J
2992.693	6.733	3384898	PROB	6.733	n/a	n/a	-999	15	[3, 7, 9]	19	FR1	0	R1027J
2999.426	0.013	3391631	STOP	n/a	n/a	n/a	-999	15	[-999, -999, -999]	n/a	FR1	0	R1027J
2999.439	1.236	3391644	DISTRACT_END	n/a	n/a	n/a	-999	15	[0, 0, 0]	n/a	FR1	0	R1027J
3000.675	5.101	3392880	REC_START	n/a	n/a	n/a	-999	15	[0, 0, 0]	n/a	FR1	0	R1027J
3005.776	0.375	3397981	REC_WORD_VV	0.375	n/a	<>	-999	15	[0, 0, 0]	n/a	FR1	0	R1027J
3006.151	1.171	3398356	REC_WORD	1.171	n/a	BEACH	7	15	[0, 0, 0]	n/a	FR1	0	R1027J
3007.322	1.255	3399527	REC_WORD	1.255	n/a	SNAIL	9	15	[0, 0, 0]	n/a	FR1	0	R1027J
3008.577	22.11	3400782	REC_WORD	22.11	n/a	SHELL	5	15	[0, 0, 0]	n/a	FR1	0	R1027J
3030.687	8.669	3422892	REC_END	n/a	n/a	n/a	-999	15	[0, 0, 0]	n/a	FR1	0	R1027J
3039.356	0.0	3431561	TRIAL	n/a	n/a	n/a	-999	16	[0, 0, 0]	n/a	FR1	0	R1027J
3039.356	10.428	3431561	COUNTDOWN_START	n/a	n/a	n/a	-999	16	[0, 0, 0]	n/a	FR1	0	R1027J
3049.784	0.005	3441989	COUNTDOWN_END	n/a	n/a	n/a	-999	16	[0, 0, 0]	n/a	FR1	0	R1027J
3049.789	2.471	3441994	ORIENT	n/a	n/a	n/a	-999	16	[0, 0, 0]	n/a	FR1	0	R1027J
3052.26	2.521	3444465	WORD	n/a	wordpools/wordpool_EN.txt	SQUARE	1	16	[0, 0, 0]	n/a	FR1	0	R1027J
3054.781	2.421	3446986	WORD	n/a	wordpools/wordpool_EN.txt	BEAN	2	16	[0, 0, 0]	n/a	FR1	0	R1027J
3057.202	2.472	3449407	WORD	n/a	wordpools/wordpool_EN.txt	SOUP	3	16	[0, 0, 0]	n/a	FR1	0	R1027J
3059.674	2.519	3451879	WORD	n/a	wordpools/wordpool_EN.txt	GLASS	4	16	[0, 0, 0]	n/a	FR1	0	R1027J
3062.193	2.488	3454398	WORD	n/a	wordpools/wordpool_EN.txt	RUG	5	16	[0, 0, 0]	n/a	FR1	0	R1027J
3064.681	2.554	3456886	WORD	n/a	wordpools/wordpool_EN.txt	STREET	6	16	[0, 0, 0]	n/a	FR1	0	R1027J
3067.235	2.471	3459440	WORD	n/a	wordpools/wordpool_EN.txt	BOY	7	16	[0, 0, 0]	n/a	FR1	0	R1027J
3069.706	2.421	3461911	WORD	n/a	wordpools/wordpool_EN.txt	DITCH	8	16	[0, 0, 0]	n/a	FR1	0	R1027J
3072.127	2.388	3464332	WORD	n/a	wordpools/wordpool_EN.txt	STRING	9	16	[0, 0, 0]	n/a	FR1	0	R1027J
3074.515	2.503	3466719	WORD	n/a	wordpools/wordpool_EN.txt	TEA	10	16	[0, 0, 0]	n/a	FR1	0	R1027J
3077.018	2.422	3469222	WORD	n/a	wordpools/wordpool_EN.txt	DIME	11	16	[0, 0, 0]	n/a	FR1	0	R1027J
3079.44	1.618	3471644	WORD	n/a	wordpools/wordpool_EN.txt	KITE	12	16	[0, 0, 0]	n/a	FR1	0	R1027J
3081.058	0.001	3473262	DISTRACT_START	n/a	n/a	n/a	-999	16	[0, 0, 0]	n/a	FR1	0	R1027J
3081.059	0.016	3473263	START	n/a	n/a	n/a	-999	16	[-999, -999, -999]	n/a	FR1	0	R1027J
3081.075	5.776	3473279	PROB	5.776	n/a	n/a	-999	16	[2, 6, 2]	10	FR1	0	R1027J
3086.851	6.178	3479055	PROB	6.178	n/a	n/a	-999	16	[8, 5, 1]	14	FR1	0	R1027J
3093.029	4.958	3485233	PROB	4.958	n/a	n/a	-999	16	[1, 9, 3]	13	FR1	0	R1027J
3097.987	4.054	3490191	PROB	4.054	n/a	n/a	-999	16	[1, 3, 7]	11	FR1	0	R1027J
3102.041	0.019	3494245	STOP	n/a	n/a	n/a	-999	16	[-999, -999, -999]	n/a	FR1	0	R1027J
3102.06	1.17	3494264	DISTRACT_END	n/a	n/a	n/a	-999	16	[0, 0, 0]	n/a	FR1	0	R1027J
3103.23	3.53	3495434	REC_START	n/a	n/a	n/a	-999	16	[0, 0, 0]	n/a	FR1	0	R1027J
3106.76	0.589	3498964	REC_WORD	0.589	n/a	NAIL	-999	16	[0, 0, 0]	n/a	FR1	0	R1027J
3107.349	5.464	3499553	REC_WORD	5.464	n/a	RUG	5	16	[0, 0, 0]	n/a	FR1	0	R1027J
3112.813	0.485	3505017	REC_WORD	0.485	n/a	FIN	-999	16	[0, 0, 0]	n/a	FR1	0	R1027J
3113.298	19.946	3505502	REC_WORD	19.946	n/a	FUR	-999	16	[0, 0, 0]	n/a	FR1	0	R1027J
3133.244	12.791	3525448	REC_END	n/a	n/a	n/a	-999	16	[0, 0, 0]	n/a	FR1	0	R1027J
3146.035	0.001	3538239	COUNTDOWN_START	n/a	n/a	n/a	-999	17	[0, 0, 0]	n/a	FR1	0	R1027J
3146.036	0.0	3538240	TRIAL	n/a	n/a	n/a	-999	17	[0, 0, 0]	n/a	FR1	0	R1027J
