onset	duration	sample	trial_type	response_time	stim_file	item_name	serialpos	list	test	answer	experiment	session	subject
0.0	0.0	10246	INSTRUCT_START	n/a	n/a	n/a	-999	-999	[0, 0, 0]	n/a	FR1	1	R1169P
0.0	11.092	10246	INSTRUCT_END	n/a	n/a	n/a	-999	-999	[0, 0, 0]	n/a	FR1	1	R1169P
11.092	0.0	21337	SESS_START	n/a	n/a	n/a	-999	-999	[0, 0, 0]	n/a	FR1	1	R1169P
11.092	141.244	21337	MIC_TEST	n/a	n/a	n/a	-999	-999	[0, 0, 0]	n/a	FR1	1	R1169P
152.336	7.844	162574	PRACTICE_TRIAL	n/a	n/a	n/a	-999	-1	[0, 0, 0]	n/a	FR1	1	R1169P
160.18	10.428	170417	COUNTDOWN_START	n/a	n/a	n/a	-999	-1	[0, 0, 0]	n/a	FR1	1	R1169P
170.608	0.006	180845	COUNTDOWN_END	n/a	n/a	n/a	-999	-1	[0, 0, 0]	n/a	FR1	1	R1169P
170.614	1.618	180851	PRACTICE_ORIENT	n/a	n/a	n/a	-999	-1	[0, 0, 0]	n/a	FR1	1	R1169P
172.232	2.017	182469	PRACTICE_ORIENT_OFF	n/a	n/a	n/a	-999	-1	[0, 0, 0]	n/a	FR1	1	R1169P
174.249	1.617	184486	PRACTICE_WORD	n/a	n/a	WATCH	1	-1	[0, 0, 0]	n/a	FR1	1	R1169P
175.866	0.834	186103	PRACTICE_WORD_OFF	n/a	n/a	WATCH	-999	-1	[0, 0, 0]	n/a	FR1	1	R1169P
176.7	1.617	186937	PRACTICE_WORD	n/a	n/a	CHEST	2	-1	[0, 0, 0]	n/a	FR1	1	R1169P
178.317	0.966	188554	PRACTICE_WORD_OFF	n/a	n/a	CHEST	-999	-1	[0, 0, 0]	n/a	FR1	1	R1169P
179.283	1.617	189520	PRACTICE_WORD	n/a	n/a	RING	3	-1	[0, 0, 0]	n/a	FR1	1	R1169P
180.9	1.001	191136	PRACTICE_WORD_OFF	n/a	n/a	RING	-999	-1	[0, 0, 0]	n/a	FR1	1	R1169P
181.901	1.616	192137	PRACTICE_WORD	n/a	n/a	ATTIC	4	-1	[0, 0, 0]	n/a	FR1	1	R1169P
183.517	0.983	193753	PRACTICE_WORD_OFF	n/a	n/a	ATTIC	-999	-1	[0, 0, 0]	n/a	FR1	1	R1169P
184.5	1.618	194736	PRACTICE_WORD	n/a	n/a	IRON	5	-1	[0, 0, 0]	n/a	FR1	1	R1169P
186.118	0.817	196354	PRACTICE_WORD_OFF	n/a	n/a	IRON	-999	-1	[0, 0, 0]	n/a	FR1	1	R1169P
186.935	1.616	197171	PRACTICE_WORD	n/a	n/a	BEAM	6	-1	[0, 0, 0]	n/a	FR1	1	R1169P
188.551	0.801	198787	PRACTICE_WORD_OFF	n/a	n/a	BEAM	-999	-1	[0, 0, 0]	n/a	FR1	1	R1169P
189.352	1.617	199588	PRACTICE_WORD	n/a	n/a	TONGUE	7	-1	[0, 0, 0]	n/a	FR1	1	R1169P
190.969	0.967	201205	PRACTICE_WORD_OFF	n/a	n/a	TONGUE	-999	-1	[0, 0, 0]	n/a	FR1	1	R1169P
191.936	1.616	202172	PRACTICE_WORD	n/a	n/a	FLOOD	8	-1	[0, 0, 0]	n/a	FR1	1	R1169P
193.552	0.983	203788	PRACTICE_WORD_OFF	n/a	n/a	FLOOD	-999	-1	[0, 0, 0]	n/a	FR1	1	R1169P
194.535	1.601	204771	PRACTICE_WORD	n/a	n/a	CAMEL	9	-1	[0, 0, 0]	n/a	FR1	1	R1169P
196.136	0.951	206372	PRACTICE_WORD_OFF	n/a	n/a	CAMEL	-999	-1	[0, 0, 0]	n/a	FR1	1	R1169P
197.087	1.617	207323	PRACTICE_WORD	n/a	n/a	RHINO	10	-1	[0, 0, 0]	n/a	FR1	1	R1169P
198.704	0.933	208940	PRACTICE_WORD_OFF	n/a	n/a	RHINO	-999	-1	[0, 0, 0]	n/a	FR1	1	R1169P
199.637	1.617	209872	PRACTICE_WORD	n/a	n/a	WAGON	11	-1	[0, 0, 0]	n/a	FR1	1	R1169P
201.254	0.901	211489	PRACTICE_WORD_OFF	n/a	n/a	WAGON	-999	-1	[0, 0, 0]	n/a	FR1	1	R1169P
202.155	1.616	212390	PRACTICE_WORD	n/a	n/a	COTTON	12	-1	[0, 0, 0]	n/a	FR1	1	R1169P
203.771	0.0	214006	PRACTICE_WORD_OFF	n/a	n/a	COTTON	-999	-1	[0, 0, 0]	n/a	FR1	1	R1169P
203.771	0.001	214006	DISTRACT_START	n/a	n/a	n/a	-999	-1	[0, 0, 0]	n/a	FR1	1	R1169P
203.772	0.016	214007	START	n/a	n/a	n/a	-999	-1	[-999, -999, -999]	n/a	FR1	1	R1169P
203.788	17.702	214023	PROB	17.702	n/a	n/a	-999	-1	[8, 6, 7]	21	FR1	1	R1169P
221.49	11.544	231724	PROB	11.544	n/a	n/a	-999	-1	[5, 8, 6]	19	FR1	1	R1169P
233.034	0.009	243268	STOP	n/a	n/a	n/a	-999	-1	[-999, -999, -999]	n/a	FR1	1	R1169P
233.043	0.566	243277	DISTRACT_END	n/a	n/a	n/a	-999	-1	[0, 0, 0]	n/a	FR1	1	R1169P
233.609	0.519	243843	RETRIEVAL_ORIENT	n/a	n/a	n/a	-999	-1	[0, 0, 0]	n/a	FR1	1	R1169P
234.128	30.011	244362	PRACTICE_REC_START	n/a	n/a	n/a	-999	-1	[0, 0, 0]	n/a	FR1	1	R1169P
264.139	16.229	274371	PRACTICE_REC_END	n/a	n/a	n/a	-999	-1	[0, 0, 0]	n/a	FR1	1	R1169P
280.368	0.5	290599	TRIAL	n/a	n/a	n/a	-999	1	[0, 0, 0]	n/a	FR1	1	R1169P
280.868	10.428	291099	COUNTDOWN_START	n/a	n/a	n/a	-999	1	[0, 0, 0]	n/a	FR1	1	R1169P
291.296	0.008	301527	COUNTDOWN_END	n/a	n/a	n/a	-999	1	[0, 0, 0]	n/a	FR1	1	R1169P
291.304	1.617	301535	ORIENT	n/a	n/a	n/a	-999	1	[0, 0, 0]	n/a	FR1	1	R1169P
292.921	2.101	303152	ORIENT_OFF	n/a	n/a	n/a	-999	1	[0, 0, 0]	n/a	FR1	1	R1169P
295.022	1.617	305253	WORD	n/a	wordpools/wordpool_EN.txt	LAMP	1	1	[0, 0, 0]	n/a	FR1	1	R1169P
296.639	0.899	306870	WORD_OFF	n/a	n/a	LAMP	1	1	[0, 0, 0]	n/a	FR1	1	R1169P
297.538	1.618	307769	WORD	n/a	wordpools/wordpool_EN.txt	CAKE	2	1	[0, 0, 0]	n/a	FR1	1	R1169P
299.156	0.95	309386	WORD_OFF	n/a	n/a	CAKE	2	1	[0, 0, 0]	n/a	FR1	1	R1169P
300.106	1.617	310336	WORD	n/a	wordpools/wordpool_EN.txt	BAG	3	1	[0, 0, 0]	n/a	FR1	1	R1169P
301.723	0.816	311953	WORD_OFF	n/a	n/a	BAG	3	1	[0, 0, 0]	n/a	FR1	1	R1169P
302.539	1.618	312769	WORD	n/a	wordpools/wordpool_EN.txt	GLASS	4	1	[0, 0, 0]	n/a	FR1	1	R1169P
304.157	0.833	314387	WORD_OFF	n/a	n/a	GLASS	4	1	[0, 0, 0]	n/a	FR1	1	R1169P
304.99	1.616	315220	WORD	n/a	wordpools/wordpool_EN.txt	FOOD	5	1	[0, 0, 0]	n/a	FR1	1	R1169P
306.606	0.834	316836	WORD_OFF	n/a	n/a	FOOD	5	1	[0, 0, 0]	n/a	FR1	1	R1169P
307.44	1.618	317670	WORD	n/a	wordpools/wordpool_EN.txt	SLUSH	6	1	[0, 0, 0]	n/a	FR1	1	R1169P
309.058	0.967	319288	WORD_OFF	n/a	n/a	SLUSH	6	1	[0, 0, 0]	n/a	FR1	1	R1169P
310.025	1.617	320255	WORD	n/a	wordpools/wordpool_EN.txt	BREAD	7	1	[0, 0, 0]	n/a	FR1	1	R1169P
311.642	0.849	321872	WORD_OFF	n/a	n/a	BREAD	7	1	[0, 0, 0]	n/a	FR1	1	R1169P
312.491	1.618	322721	WORD	n/a	wordpools/wordpool_EN.txt	BOX	8	1	[0, 0, 0]	n/a	FR1	1	R1169P
314.109	0.8	324339	WORD_OFF	n/a	n/a	BOX	8	1	[0, 0, 0]	n/a	FR1	1	R1169P
314.909	1.616	325139	WORD	n/a	wordpools/wordpool_EN.txt	YARD	9	1	[0, 0, 0]	n/a	FR1	1	R1169P
316.525	0.801	326755	WORD_OFF	n/a	n/a	YARD	9	1	[0, 0, 0]	n/a	FR1	1	R1169P
317.326	1.617	327556	WORD	n/a	wordpools/wordpool_EN.txt	STRAW	10	1	[0, 0, 0]	n/a	FR1	1	R1169P
318.943	0.883	329172	WORD_OFF	n/a	n/a	STRAW	10	1	[0, 0, 0]	n/a	FR1	1	R1169P
319.826	1.616	330055	WORD	n/a	wordpools/wordpool_EN.txt	SINK	11	1	[0, 0, 0]	n/a	FR1	1	R1169P
321.442	0.818	331671	WORD_OFF	n/a	n/a	SINK	11	1	[0, 0, 0]	n/a	FR1	1	R1169P
322.26	1.617	332489	WORD	n/a	wordpools/wordpool_EN.txt	JUICE	12	1	[0, 0, 0]	n/a	FR1	1	R1169P
323.877	0.0	334106	WORD_OFF	n/a	n/a	JUICE	12	1	[0, 0, 0]	n/a	FR1	1	R1169P
323.877	0.001	334106	DISTRACT_START	n/a	n/a	n/a	-999	1	[0, 0, 0]	n/a	FR1	1	R1169P
323.878	0.016	334107	START	n/a	n/a	n/a	-999	1	[-999, -999, -999]	n/a	FR1	1	R1169P
323.894	11.969	334123	PROB	11.969	n/a	n/a	-999	1	[4, 7, 6]	17	FR1	1	R1169P
335.863	7.034	346092	PROB	7.034	n/a	n/a	-999	1	[9, 9, 2]	20	FR1	1	R1169P
342.897	8.29	353125	PROB	8.29	n/a	n/a	-999	1	[2, 8, 3]	13	FR1	1	R1169P
351.187	0.012	361415	STOP	n/a	n/a	n/a	-999	1	[-999, -999, -999]	n/a	FR1	1	R1169P
351.199	0.6	361427	DISTRACT_END	n/a	n/a	n/a	-999	1	[0, 0, 0]	n/a	FR1	1	R1169P
351.799	0.517	362027	RETRIEVAL_ORIENT	n/a	n/a	n/a	-999	1	[0, 0, 0]	n/a	FR1	1	R1169P
352.316	1.373	362544	REC_START	n/a	n/a	n/a	-999	1	[0, 0, 0]	n/a	FR1	1	R1169P
353.689	0.999	363917	REC_WORD_VV	0.999	n/a	<>	-999	1	[0, 0, 0]	n/a	FR1	1	R1169P
354.688	0.855	364916	REC_WORD_VV	0.855	n/a	<>	-999	1	[0, 0, 0]	n/a	FR1	1	R1169P
355.543	0.132	365771	REC_WORD_VV	0.132	n/a	<>	-999	1	[0, 0, 0]	n/a	FR1	1	R1169P
355.675	1.06	365903	REC_WORD	1.06	n/a	LAMP	1	1	[0, 0, 0]	n/a	FR1	1	R1169P
356.735	0.071	366963	REC_WORD_VV	0.071	n/a	<>	-999	1	[0, 0, 0]	n/a	FR1	1	R1169P
356.806	6.445	367034	REC_WORD	6.445	n/a	SINK	11	1	[0, 0, 0]	n/a	FR1	1	R1169P
363.251	0.489	373478	REC_WORD_VV	0.489	n/a	<>	-999	1	[0, 0, 0]	n/a	FR1	1	R1169P
363.74	0.436	373967	REC_WORD	0.436	n/a	BAG	3	1	[0, 0, 0]	n/a	FR1	1	R1169P
364.176	1.588	374403	REC_WORD_VV	1.588	n/a	<>	-999	1	[0, 0, 0]	n/a	FR1	1	R1169P
365.764	9.719	375991	REC_WORD	9.719	n/a	CAKE	2	1	[0, 0, 0]	n/a	FR1	1	R1169P
375.483	1.29	385710	REC_WORD_VV	1.29	n/a	<>	-999	1	[0, 0, 0]	n/a	FR1	1	R1169P
376.773	1.0	387000	REC_WORD_VV	1.0	n/a	<>	-999	1	[0, 0, 0]	n/a	FR1	1	R1169P
377.773	1.0	388000	REC_WORD_VV	1.0	n/a	<>	-999	1	[0, 0, 0]	n/a	FR1	1	R1169P
378.773	1.312	388999	REC_WORD_VV	1.312	n/a	<>	-999	1	[0, 0, 0]	n/a	FR1	1	R1169P
380.085	2.242	390311	REC_WORD_VV	2.242	n/a	<>	-999	1	[0, 0, 0]	n/a	FR1	1	R1169P
382.327	7.512	392553	REC_END	n/a	n/a	n/a	-999	1	[0, 0, 0]	n/a	FR1	1	R1169P
389.839	0.5	400065	TRIAL	n/a	n/a	n/a	-999	2	[0, 0, 0]	n/a	FR1	1	R1169P
390.339	10.428	400565	COUNTDOWN_START	n/a	n/a	n/a	-999	2	[0, 0, 0]	n/a	FR1	1	R1169P
400.767	0.008	410992	COUNTDOWN_END	n/a	n/a	n/a	-999	2	[0, 0, 0]	n/a	FR1	1	R1169P
400.775	1.616	411000	ORIENT	n/a	n/a	n/a	-999	2	[0, 0, 0]	n/a	FR1	1	R1169P
402.391	2.251	412616	ORIENT_OFF	n/a	n/a	n/a	-999	2	[0, 0, 0]	n/a	FR1	1	R1169P
404.642	1.617	414867	WORD	n/a	wordpools/wordpool_EN.txt	SWAMP	1	2	[0, 0, 0]	n/a	FR1	1	R1169P
406.259	0.817	416484	WORD_OFF	n/a	n/a	SWAMP	1	2	[0, 0, 0]	n/a	FR1	1	R1169P
407.076	1.617	417301	WORD	n/a	wordpools/wordpool_EN.txt	DUCK	2	2	[0, 0, 0]	n/a	FR1	1	R1169P
408.693	0.833	418918	WORD_OFF	n/a	n/a	DUCK	2	2	[0, 0, 0]	n/a	FR1	1	R1169P
409.526	1.618	419751	WORD	n/a	wordpools/wordpool_EN.txt	SPRING	3	2	[0, 0, 0]	n/a	FR1	1	R1169P
411.144	0.783	421369	WORD_OFF	n/a	n/a	SPRING	3	2	[0, 0, 0]	n/a	FR1	1	R1169P
411.927	1.616	422152	WORD	n/a	wordpools/wordpool_EN.txt	KITE	4	2	[0, 0, 0]	n/a	FR1	1	R1169P
413.543	0.833	423768	WORD_OFF	n/a	n/a	KITE	4	2	[0, 0, 0]	n/a	FR1	1	R1169P
414.376	1.618	424601	WORD	n/a	wordpools/wordpool_EN.txt	DEER	5	2	[0, 0, 0]	n/a	FR1	1	R1169P
415.994	0.967	426219	WORD_OFF	n/a	n/a	DEER	5	2	[0, 0, 0]	n/a	FR1	1	R1169P
416.961	1.616	427186	WORD	n/a	wordpools/wordpool_EN.txt	SPEAR	6	2	[0, 0, 0]	n/a	FR1	1	R1169P
418.577	0.867	428801	WORD_OFF	n/a	n/a	SPEAR	6	2	[0, 0, 0]	n/a	FR1	1	R1169P
419.444	1.618	429668	WORD	n/a	wordpools/wordpool_EN.txt	HILL	7	2	[0, 0, 0]	n/a	FR1	1	R1169P
421.062	0.9	431286	WORD_OFF	n/a	n/a	HILL	7	2	[0, 0, 0]	n/a	FR1	1	R1169P
421.962	1.616	432186	WORD	n/a	wordpools/wordpool_EN.txt	VINE	8	2	[0, 0, 0]	n/a	FR1	1	R1169P
423.578	0.834	433802	WORD_OFF	n/a	n/a	VINE	8	2	[0, 0, 0]	n/a	FR1	1	R1169P
424.412	1.618	434636	WORD	n/a	wordpools/wordpool_EN.txt	GRASS	9	2	[0, 0, 0]	n/a	FR1	1	R1169P
426.03	0.966	436254	WORD_OFF	n/a	n/a	GRASS	9	2	[0, 0, 0]	n/a	FR1	1	R1169P
426.996	1.616	437220	WORD	n/a	wordpools/wordpool_EN.txt	TAIL	10	2	[0, 0, 0]	n/a	FR1	1	R1169P
428.612	0.817	438836	WORD_OFF	n/a	n/a	TAIL	10	2	[0, 0, 0]	n/a	FR1	1	R1169P
429.429	1.618	439653	WORD	n/a	wordpools/wordpool_EN.txt	FOOT	11	2	[0, 0, 0]	n/a	FR1	1	R1169P
431.047	0.917	441271	WORD_OFF	n/a	n/a	FOOT	11	2	[0, 0, 0]	n/a	FR1	1	R1169P
431.964	1.616	442188	WORD	n/a	wordpools/wordpool_EN.txt	POND	12	2	[0, 0, 0]	n/a	FR1	1	R1169P
433.58	0.0	443804	WORD_OFF	n/a	n/a	POND	12	2	[0, 0, 0]	n/a	FR1	1	R1169P
433.58	0.001	443804	DISTRACT_START	n/a	n/a	n/a	-999	2	[0, 0, 0]	n/a	FR1	1	R1169P
433.581	0.016	443805	START	n/a	n/a	n/a	-999	2	[-999, -999, -999]	n/a	FR1	1	R1169P
433.597	8.386	443821	PROB	8.386	n/a	n/a	-999	2	[8, 1, 6]	13	FR1	1	R1169P
441.983	8.001	452206	PROB	8.001	n/a	n/a	-999	2	[9, 4, 9]	2	FR1	1	R1169P
449.984	8.698	460207	PROB	8.698	n/a	n/a	-999	2	[9, 4, 7]	20	FR1	1	R1169P
458.682	0.02	468904	STOP	n/a	n/a	n/a	-999	2	[-999, -999, -999]	n/a	FR1	1	R1169P
458.702	0.683	468924	DISTRACT_END	n/a	n/a	n/a	-999	2	[0, 0, 0]	n/a	FR1	1	R1169P
459.385	0.519	469607	RETRIEVAL_ORIENT	n/a	n/a	n/a	-999	2	[0, 0, 0]	n/a	FR1	1	R1169P
459.904	1.237	470126	REC_START	n/a	n/a	n/a	-999	2	[0, 0, 0]	n/a	FR1	1	R1169P
461.141	5.652	471363	REC_WORD	5.652	n/a	SWAMP	1	2	[0, 0, 0]	n/a	FR1	1	R1169P
466.793	4.169	477015	REC_WORD	4.169	n/a	TAIL	10	2	[0, 0, 0]	n/a	FR1	1	R1169P
470.962	0.988	481184	REC_WORD_VV	0.988	n/a	<>	-999	2	[0, 0, 0]	n/a	FR1	1	R1169P
471.95	0.45	482172	REC_WORD	0.45	n/a	WAGON	-999	2	[0, 0, 0]	n/a	FR1	1	R1169P
472.4	0.583	482622	REC_WORD	0.583	n/a	TAIL	10	2	[0, 0, 0]	n/a	FR1	1	R1169P
472.983	3.438	483205	REC_WORD_VV	3.438	n/a	<>	-999	2	[0, 0, 0]	n/a	FR1	1	R1169P
476.421	13.494	486643	REC_WORD	13.494	n/a	CRICK	-999	2	[0, 0, 0]	n/a	FR1	1	R1169P
489.915	28.115	500136	REC_END	n/a	n/a	n/a	-999	2	[0, 0, 0]	n/a	FR1	1	R1169P
518.03	0.5	528249	TRIAL	n/a	n/a	n/a	-999	3	[0, 0, 0]	n/a	FR1	1	R1169P
518.53	10.428	528749	COUNTDOWN_START	n/a	n/a	n/a	-999	3	[0, 0, 0]	n/a	FR1	1	R1169P
528.958	0.008	539177	COUNTDOWN_END	n/a	n/a	n/a	-999	3	[0, 0, 0]	n/a	FR1	1	R1169P
528.966	1.615	539185	ORIENT	n/a	n/a	n/a	-999	3	[0, 0, 0]	n/a	FR1	1	R1169P
530.581	1.967	540800	ORIENT_OFF	n/a	n/a	n/a	-999	3	[0, 0, 0]	n/a	FR1	1	R1169P
532.548	1.602	542767	WORD	n/a	wordpools/wordpool_EN.txt	WHALE	1	3	[0, 0, 0]	n/a	FR1	1	R1169P
534.15	0.867	544369	WORD_OFF	n/a	n/a	WHALE	1	3	[0, 0, 0]	n/a	FR1	1	R1169P
535.017	1.617	545236	WORD	n/a	wordpools/wordpool_EN.txt	SOAP	2	3	[0, 0, 0]	n/a	FR1	1	R1169P
536.634	0.882	546853	WORD_OFF	n/a	n/a	SOAP	2	3	[0, 0, 0]	n/a	FR1	1	R1169P
537.516	1.618	547734	WORD	n/a	wordpools/wordpool_EN.txt	RAKE	3	3	[0, 0, 0]	n/a	FR1	1	R1169P
539.134	0.867	549352	WORD_OFF	n/a	n/a	RAKE	3	3	[0, 0, 0]	n/a	FR1	1	R1169P
540.001	1.616	550219	WORD	n/a	wordpools/wordpool_EN.txt	BIRD	4	3	[0, 0, 0]	n/a	FR1	1	R1169P
541.617	1.018	551835	WORD_OFF	n/a	n/a	BIRD	4	3	[0, 0, 0]	n/a	FR1	1	R1169P
542.635	1.617	552853	WORD	n/a	wordpools/wordpool_EN.txt	MOTH	5	3	[0, 0, 0]	n/a	FR1	1	R1169P
544.252	0.783	554470	WORD_OFF	n/a	n/a	MOTH	5	3	[0, 0, 0]	n/a	FR1	1	R1169P
545.035	1.617	555253	WORD	n/a	wordpools/wordpool_EN.txt	STEM	6	3	[0, 0, 0]	n/a	FR1	1	R1169P
546.652	0.849	556870	WORD_OFF	n/a	n/a	STEM	6	3	[0, 0, 0]	n/a	FR1	1	R1169P
547.501	1.618	557719	WORD	n/a	wordpools/wordpool_EN.txt	SALT	7	3	[0, 0, 0]	n/a	FR1	1	R1169P
549.119	0.984	559337	WORD_OFF	n/a	n/a	SALT	7	3	[0, 0, 0]	n/a	FR1	1	R1169P
550.103	1.617	560321	WORD	n/a	wordpools/wordpool_EN.txt	FISH	8	3	[0, 0, 0]	n/a	FR1	1	R1169P
551.72	0.983	561938	WORD_OFF	n/a	n/a	FISH	8	3	[0, 0, 0]	n/a	FR1	1	R1169P
552.703	1.617	562921	WORD	n/a	wordpools/wordpool_EN.txt	TANK	9	3	[0, 0, 0]	n/a	FR1	1	R1169P
554.32	1.0	564538	WORD_OFF	n/a	n/a	TANK	9	3	[0, 0, 0]	n/a	FR1	1	R1169P
555.32	1.617	565538	WORD	n/a	wordpools/wordpool_EN.txt	EGG	10	3	[0, 0, 0]	n/a	FR1	1	R1169P
556.937	0.784	567154	WORD_OFF	n/a	n/a	EGG	10	3	[0, 0, 0]	n/a	FR1	1	R1169P
557.721	1.617	567938	WORD	n/a	wordpools/wordpool_EN.txt	PLANT	11	3	[0, 0, 0]	n/a	FR1	1	R1169P
559.338	0.783	569555	WORD_OFF	n/a	n/a	PLANT	11	3	[0, 0, 0]	n/a	FR1	1	R1169P
560.121	1.617	570338	WORD	n/a	wordpools/wordpool_EN.txt	HEN	12	3	[0, 0, 0]	n/a	FR1	1	R1169P
561.738	0.0	571955	WORD_OFF	n/a	n/a	HEN	12	3	[0, 0, 0]	n/a	FR1	1	R1169P
561.738	0.001	571955	DISTRACT_START	n/a	n/a	n/a	-999	3	[0, 0, 0]	n/a	FR1	1	R1169P
561.739	0.016	571956	START	n/a	n/a	n/a	-999	3	[-999, -999, -999]	n/a	FR1	1	R1169P
561.755	4.918	571972	PROB	4.918	n/a	n/a	-999	3	[5, 4, 1]	10	FR1	1	R1169P
566.673	11.168	576890	PROB	11.168	n/a	n/a	-999	3	[8, 5, 1]	14	FR1	1	R1169P
577.841	11.56	588057	PROB	11.56	n/a	n/a	-999	3	[6, 3, 1]	10	FR1	1	R1169P
589.401	0.008	599617	STOP	n/a	n/a	n/a	-999	3	[-999, -999, -999]	n/a	FR1	1	R1169P
589.409	0.601	599625	DISTRACT_END	n/a	n/a	n/a	-999	3	[0, 0, 0]	n/a	FR1	1	R1169P
590.01	0.517	600226	RETRIEVAL_ORIENT	n/a	n/a	n/a	-999	3	[0, 0, 0]	n/a	FR1	1	R1169P
590.527	4.636	600743	REC_START	n/a	n/a	n/a	-999	3	[0, 0, 0]	n/a	FR1	1	R1169P
595.163	5.211	605379	REC_WORD	5.211	n/a	TANK	9	3	[0, 0, 0]	n/a	FR1	1	R1169P
600.374	3.532	610589	REC_WORD	3.532	n/a	WHALE	1	3	[0, 0, 0]	n/a	FR1	1	R1169P
603.906	1.275	614121	REC_WORD	1.275	n/a	HEN	12	3	[0, 0, 0]	n/a	FR1	1	R1169P
605.181	1.0	615396	REC_WORD_VV	1.0	n/a	<>	-999	3	[0, 0, 0]	n/a	FR1	1	R1169P
606.181	0.708	616396	REC_WORD_VV	0.708	n/a	<>	-999	3	[0, 0, 0]	n/a	FR1	1	R1169P
606.889	0.822	617104	REC_WORD	0.822	n/a	HEN	12	3	[0, 0, 0]	n/a	FR1	1	R1169P
607.711	7.992	617926	REC_WORD_VV	7.992	n/a	<>	-999	3	[0, 0, 0]	n/a	FR1	1	R1169P
615.703	0.477	625918	REC_WORD_VV	0.477	n/a	<>	-999	3	[0, 0, 0]	n/a	FR1	1	R1169P
616.18	0.89	626395	REC_WORD	0.89	n/a	WHALE	1	3	[0, 0, 0]	n/a	FR1	1	R1169P
617.07	3.469	627284	REC_WORD	3.469	n/a	HEN	12	3	[0, 0, 0]	n/a	FR1	1	R1169P
620.539	8.129	630753	REC_END	n/a	n/a	n/a	-999	3	[0, 0, 0]	n/a	FR1	1	R1169P
628.668	0.5	638882	TRIAL	n/a	n/a	n/a	-999	4	[0, 0, 0]	n/a	FR1	1	R1169P
629.168	10.428	639382	COUNTDOWN_START	n/a	n/a	n/a	-999	4	[0, 0, 0]	n/a	FR1	1	R1169P
639.596	0.006	649809	COUNTDOWN_END	n/a	n/a	n/a	-999	4	[0, 0, 0]	n/a	FR1	1	R1169P
639.602	1.618	649815	ORIENT	n/a	n/a	n/a	-999	4	[0, 0, 0]	n/a	FR1	1	R1169P
641.22	2.0	651433	ORIENT_OFF	n/a	n/a	n/a	-999	4	[0, 0, 0]	n/a	FR1	1	R1169P
643.22	1.617	653433	WORD	n/a	wordpools/wordpool_EN.txt	INK	1	4	[0, 0, 0]	n/a	FR1	1	R1169P
644.837	1.0	655050	WORD_OFF	n/a	n/a	INK	1	4	[0, 0, 0]	n/a	FR1	1	R1169P
645.837	1.616	656050	WORD	n/a	wordpools/wordpool_EN.txt	CUBE	2	4	[0, 0, 0]	n/a	FR1	1	R1169P
647.453	0.768	657666	WORD_OFF	n/a	n/a	CUBE	2	4	[0, 0, 0]	n/a	FR1	1	R1169P
648.221	1.617	658434	WORD	n/a	wordpools/wordpool_EN.txt	NET	3	4	[0, 0, 0]	n/a	FR1	1	R1169P
649.838	0.95	660051	WORD_OFF	n/a	n/a	NET	3	4	[0, 0, 0]	n/a	FR1	1	R1169P
650.788	1.616	661001	WORD	n/a	wordpools/wordpool_EN.txt	CONE	4	4	[0, 0, 0]	n/a	FR1	1	R1169P
652.404	0.885	662617	WORD_OFF	n/a	n/a	CONE	4	4	[0, 0, 0]	n/a	FR1	1	R1169P
653.289	1.617	663502	WORD	n/a	wordpools/wordpool_EN.txt	SHEET	5	4	[0, 0, 0]	n/a	FR1	1	R1169P
654.906	0.817	665119	WORD_OFF	n/a	n/a	SHEET	5	4	[0, 0, 0]	n/a	FR1	1	R1169P
655.723	1.617	665936	WORD	n/a	wordpools/wordpool_EN.txt	ICE	6	4	[0, 0, 0]	n/a	FR1	1	R1169P
657.34	0.916	667552	WORD_OFF	n/a	n/a	ICE	6	4	[0, 0, 0]	n/a	FR1	1	R1169P
658.256	1.617	668468	WORD	n/a	wordpools/wordpool_EN.txt	STORE	7	4	[0, 0, 0]	n/a	FR1	1	R1169P
659.873	0.867	670085	WORD_OFF	n/a	n/a	STORE	7	4	[0, 0, 0]	n/a	FR1	1	R1169P
660.74	1.617	670952	WORD	n/a	wordpools/wordpool_EN.txt	BANK	8	4	[0, 0, 0]	n/a	FR1	1	R1169P
662.357	0.967	672569	WORD_OFF	n/a	n/a	BANK	8	4	[0, 0, 0]	n/a	FR1	1	R1169P
663.324	1.617	673536	WORD	n/a	wordpools/wordpool_EN.txt	PHONE	9	4	[0, 0, 0]	n/a	FR1	1	R1169P
664.941	0.884	675153	WORD_OFF	n/a	n/a	PHONE	9	4	[0, 0, 0]	n/a	FR1	1	R1169P
665.825	1.615	676037	WORD	n/a	wordpools/wordpool_EN.txt	CASH	10	4	[0, 0, 0]	n/a	FR1	1	R1169P
667.44	0.868	677652	WORD_OFF	n/a	n/a	CASH	10	4	[0, 0, 0]	n/a	FR1	1	R1169P
668.308	1.617	678520	WORD	n/a	wordpools/wordpool_EN.txt	COIN	11	4	[0, 0, 0]	n/a	FR1	1	R1169P
669.925	0.8	680137	WORD_OFF	n/a	n/a	COIN	11	4	[0, 0, 0]	n/a	FR1	1	R1169P
670.725	1.617	680937	WORD	n/a	wordpools/wordpool_EN.txt	MAIL	12	4	[0, 0, 0]	n/a	FR1	1	R1169P
672.342	0.0	682554	WORD_OFF	n/a	n/a	MAIL	12	4	[0, 0, 0]	n/a	FR1	1	R1169P
672.342	0.001	682554	DISTRACT_START	n/a	n/a	n/a	-999	4	[0, 0, 0]	n/a	FR1	1	R1169P
672.343	0.016	682555	START	n/a	n/a	n/a	-999	4	[-999, -999, -999]	n/a	FR1	1	R1169P
672.359	7.418	682571	PROB	7.418	n/a	n/a	-999	4	[1, 7, 2]	10	FR1	1	R1169P
679.777	15.161	689988	PROB	15.161	n/a	n/a	-999	4	[8, 7, 7]	22	FR1	1	R1169P
694.938	0.009	705149	STOP	n/a	n/a	n/a	-999	4	[-999, -999, -999]	n/a	FR1	1	R1169P
694.947	0.549	705158	DISTRACT_END	n/a	n/a	n/a	-999	4	[0, 0, 0]	n/a	FR1	1	R1169P
695.496	0.518	705707	RETRIEVAL_ORIENT	n/a	n/a	n/a	-999	4	[0, 0, 0]	n/a	FR1	1	R1169P
696.014	2.141	706224	REC_START	n/a	n/a	n/a	-999	4	[0, 0, 0]	n/a	FR1	1	R1169P
698.155	1.08	708365	REC_WORD	1.08	n/a	STORE	7	4	[0, 0, 0]	n/a	FR1	1	R1169P
699.235	0.805	709445	REC_WORD	0.805	n/a	BANK	8	4	[0, 0, 0]	n/a	FR1	1	R1169P
700.04	5.456	710250	REC_WORD	5.456	n/a	COIN	11	4	[0, 0, 0]	n/a	FR1	1	R1169P
705.496	1.0	715706	REC_WORD_VV	1.0	n/a	<>	-999	4	[0, 0, 0]	n/a	FR1	1	R1169P
706.496	1.0	716706	REC_WORD_VV	1.0	n/a	<>	-999	4	[0, 0, 0]	n/a	FR1	1	R1169P
707.496	2.332	717706	REC_WORD_VV	2.332	n/a	<>	-999	4	[0, 0, 0]	n/a	FR1	1	R1169P
709.828	0.608	720038	REC_WORD_VV	0.608	n/a	<>	-999	4	[0, 0, 0]	n/a	FR1	1	R1169P
710.436	0.481	720646	REC_WORD	0.481	n/a	BANK	8	4	[0, 0, 0]	n/a	FR1	1	R1169P
710.917	0.529	721127	REC_WORD_VV	0.529	n/a	<>	-999	4	[0, 0, 0]	n/a	FR1	1	R1169P
711.446	0.589	721656	REC_WORD	0.589	n/a	COIN	11	4	[0, 0, 0]	n/a	FR1	1	R1169P
712.035	0.332	722245	REC_WORD_VV	0.332	n/a	<>	-999	4	[0, 0, 0]	n/a	FR1	1	R1169P
712.367	1.127	722577	REC_WORD	1.127	n/a	STORE	7	4	[0, 0, 0]	n/a	FR1	1	R1169P
713.494	2.026	723704	REC_WORD	2.026	n/a	INK	1	4	[0, 0, 0]	n/a	FR1	1	R1169P
715.52	10.505	725730	REC_WORD_VV	10.505	n/a	<>	-999	4	[0, 0, 0]	n/a	FR1	1	R1169P
726.025	33.751	736234	REC_END	n/a	n/a	n/a	-999	4	[0, 0, 0]	n/a	FR1	1	R1169P
759.776	0.5	769983	TRIAL	n/a	n/a	n/a	-999	5	[0, 0, 0]	n/a	FR1	1	R1169P
760.276	10.428	770483	COUNTDOWN_START	n/a	n/a	n/a	-999	5	[0, 0, 0]	n/a	FR1	1	R1169P
770.704	0.007	780911	COUNTDOWN_END	n/a	n/a	n/a	-999	5	[0, 0, 0]	n/a	FR1	1	R1169P
770.711	1.617	780918	ORIENT	n/a	n/a	n/a	-999	5	[0, 0, 0]	n/a	FR1	1	R1169P
772.328	2.017	782535	ORIENT_OFF	n/a	n/a	n/a	-999	5	[0, 0, 0]	n/a	FR1	1	R1169P
774.345	1.617	784552	WORD	n/a	wordpools/wordpool_EN.txt	SHEEP	1	5	[0, 0, 0]	n/a	FR1	1	R1169P
775.962	0.833	786168	WORD_OFF	n/a	n/a	SHEEP	1	5	[0, 0, 0]	n/a	FR1	1	R1169P
776.795	1.616	787001	WORD	n/a	wordpools/wordpool_EN.txt	FLAG	2	5	[0, 0, 0]	n/a	FR1	1	R1169P
778.411	0.801	788617	WORD_OFF	n/a	n/a	FLAG	2	5	[0, 0, 0]	n/a	FR1	1	R1169P
779.212	1.617	789418	WORD	n/a	wordpools/wordpool_EN.txt	FUDGE	3	5	[0, 0, 0]	n/a	FR1	1	R1169P
780.829	0.851	791035	WORD_OFF	n/a	n/a	FUDGE	3	5	[0, 0, 0]	n/a	FR1	1	R1169P
781.68	1.617	791886	WORD	n/a	wordpools/wordpool_EN.txt	BLOOM	4	5	[0, 0, 0]	n/a	FR1	1	R1169P
783.297	0.783	793503	WORD_OFF	n/a	n/a	BLOOM	4	5	[0, 0, 0]	n/a	FR1	1	R1169P
784.08	1.617	794286	WORD	n/a	wordpools/wordpool_EN.txt	RAIN	5	5	[0, 0, 0]	n/a	FR1	1	R1169P
785.697	0.967	795903	WORD_OFF	n/a	n/a	RAIN	5	5	[0, 0, 0]	n/a	FR1	1	R1169P
786.664	1.617	796870	WORD	n/a	wordpools/wordpool_EN.txt	LAND	6	5	[0, 0, 0]	n/a	FR1	1	R1169P
788.281	0.867	798487	WORD_OFF	n/a	n/a	LAND	6	5	[0, 0, 0]	n/a	FR1	1	R1169P
789.148	1.617	799354	WORD	n/a	wordpools/wordpool_EN.txt	BEACH	7	5	[0, 0, 0]	n/a	FR1	1	R1169P
790.765	0.782	800971	WORD_OFF	n/a	n/a	BEACH	7	5	[0, 0, 0]	n/a	FR1	1	R1169P
791.547	1.601	801753	WORD	n/a	wordpools/wordpool_EN.txt	SHIELD	8	5	[0, 0, 0]	n/a	FR1	1	R1169P
793.148	0.984	803354	WORD_OFF	n/a	n/a	SHIELD	8	5	[0, 0, 0]	n/a	FR1	1	R1169P
794.132	1.617	804338	WORD	n/a	wordpools/wordpool_EN.txt	SEA	9	5	[0, 0, 0]	n/a	FR1	1	R1169P
795.749	0.967	805954	WORD_OFF	n/a	n/a	SEA	9	5	[0, 0, 0]	n/a	FR1	1	R1169P
796.716	1.617	806921	WORD	n/a	wordpools/wordpool_EN.txt	STORM	10	5	[0, 0, 0]	n/a	FR1	1	R1169P
798.333	0.8	808538	WORD_OFF	n/a	n/a	STORM	10	5	[0, 0, 0]	n/a	FR1	1	R1169P
799.133	1.617	809338	WORD	n/a	wordpools/wordpool_EN.txt	MAP	11	5	[0, 0, 0]	n/a	FR1	1	R1169P
800.75	0.95	810955	WORD_OFF	n/a	n/a	MAP	11	5	[0, 0, 0]	n/a	FR1	1	R1169P
801.7	1.617	811905	WORD	n/a	wordpools/wordpool_EN.txt	KEY	12	5	[0, 0, 0]	n/a	FR1	1	R1169P
803.317	0.0	813522	DISTRACT_START	n/a	n/a	n/a	-999	5	[0, 0, 0]	n/a	FR1	1	R1169P
803.317	0.001	813522	WORD_OFF	n/a	n/a	KEY	12	5	[0, 0, 0]	n/a	FR1	1	R1169P
803.318	0.016	813523	START	n/a	n/a	n/a	-999	5	[-999, -999, -999]	n/a	FR1	1	R1169P
803.334	8.751	813539	PROB	8.751	n/a	n/a	-999	5	[4, 1, 2]	7	FR1	1	R1169P
812.085	9.434	822290	PROB	9.434	n/a	n/a	-999	5	[6, 9, 9]	24	FR1	1	R1169P
821.519	20.828	831723	PROB	20.828	n/a	n/a	-999	5	[7, 3, 8]	18	FR1	1	R1169P
842.347	0.011	852550	STOP	n/a	n/a	n/a	-999	5	[-999, -999, -999]	n/a	FR1	1	R1169P
842.358	0.566	852561	DISTRACT_END	n/a	n/a	n/a	-999	5	[0, 0, 0]	n/a	FR1	1	R1169P
842.924	0.517	853127	RETRIEVAL_ORIENT	n/a	n/a	n/a	-999	5	[0, 0, 0]	n/a	FR1	1	R1169P
843.441	0.0	853644	REC_START	n/a	n/a	n/a	-999	5	[0, 0, 0]	n/a	FR1	1	R1169P
843.441	3.572	853644	REC_WORD_VV	3.572	n/a	<>	-999	5	[0, 0, 0]	n/a	FR1	1	R1169P
847.013	1.0	857216	REC_WORD_VV	1.0	n/a	<>	-999	5	[0, 0, 0]	n/a	FR1	1	R1169P
848.013	3.344	858216	REC_WORD_VV	3.344	n/a	<>	-999	5	[0, 0, 0]	n/a	FR1	1	R1169P
851.357	1.0	861560	REC_WORD_VV	1.0	n/a	<>	-999	5	[0, 0, 0]	n/a	FR1	1	R1169P
852.357	1.471	862560	REC_WORD_VV	1.471	n/a	<>	-999	5	[0, 0, 0]	n/a	FR1	1	R1169P
853.828	1.0	864031	REC_WORD_VV	1.0	n/a	<>	-999	5	[0, 0, 0]	n/a	FR1	1	R1169P
854.828	1.0	865031	REC_WORD_VV	1.0	n/a	<>	-999	5	[0, 0, 0]	n/a	FR1	1	R1169P
855.828	1.0	866030	REC_WORD_VV	1.0	n/a	<>	-999	5	[0, 0, 0]	n/a	FR1	1	R1169P
856.828	1.806	867030	REC_WORD_VV	1.806	n/a	<>	-999	5	[0, 0, 0]	n/a	FR1	1	R1169P
858.634	5.022	868836	REC_WORD	5.022	n/a	KEY	12	5	[0, 0, 0]	n/a	FR1	1	R1169P
863.656	1.045	873858	REC_WORD	1.045	n/a	STEM	-999	5	[0, 0, 0]	n/a	FR1	1	R1169P
864.701	1.0	874903	REC_WORD_VV	1.0	n/a	<>	-999	5	[0, 0, 0]	n/a	FR1	1	R1169P
865.701	4.716	875903	REC_WORD_VV	4.716	n/a	<>	-999	5	[0, 0, 0]	n/a	FR1	1	R1169P
870.417	1.0	880619	REC_WORD_VV	1.0	n/a	<>	-999	5	[0, 0, 0]	n/a	FR1	1	R1169P
871.417	0.761	881619	REC_WORD_VV	0.761	n/a	<>	-999	5	[0, 0, 0]	n/a	FR1	1	R1169P
872.178	1.274	882380	REC_WORD	1.274	n/a	STEM	-999	5	[0, 0, 0]	n/a	FR1	1	R1169P
873.452	13.897	883654	REC_END	n/a	n/a	n/a	-999	5	[0, 0, 0]	n/a	FR1	1	R1169P
887.349	0.5	897550	TRIAL	n/a	n/a	n/a	-999	6	[0, 0, 0]	n/a	FR1	1	R1169P
887.849	10.428	898050	COUNTDOWN_START	n/a	n/a	n/a	-999	6	[0, 0, 0]	n/a	FR1	1	R1169P
898.277	0.008	908477	COUNTDOWN_END	n/a	n/a	n/a	-999	6	[0, 0, 0]	n/a	FR1	1	R1169P
898.285	1.617	908485	ORIENT	n/a	n/a	n/a	-999	6	[0, 0, 0]	n/a	FR1	1	R1169P
899.902	2.1	910102	ORIENT_OFF	n/a	n/a	n/a	-999	6	[0, 0, 0]	n/a	FR1	1	R1169P
902.002	1.616	912202	WORD	n/a	wordpools/wordpool_EN.txt	CAR	1	6	[0, 0, 0]	n/a	FR1	1	R1169P
903.618	0.8	913818	WORD_OFF	n/a	n/a	CAR	1	6	[0, 0, 0]	n/a	FR1	1	R1169P
904.418	1.618	914618	WORD	n/a	wordpools/wordpool_EN.txt	GOAT	2	6	[0, 0, 0]	n/a	FR1	1	R1169P
906.036	0.867	916236	WORD_OFF	n/a	n/a	GOAT	2	6	[0, 0, 0]	n/a	FR1	1	R1169P
906.903	1.616	917103	WORD	n/a	wordpools/wordpool_EN.txt	DITCH	3	6	[0, 0, 0]	n/a	FR1	1	R1169P
908.519	0.917	918719	WORD_OFF	n/a	n/a	DITCH	3	6	[0, 0, 0]	n/a	FR1	1	R1169P
909.436	1.601	919636	WORD	n/a	wordpools/wordpool_EN.txt	STREET	4	6	[0, 0, 0]	n/a	FR1	1	R1169P
911.037	0.884	921237	WORD_OFF	n/a	n/a	STREET	4	6	[0, 0, 0]	n/a	FR1	1	R1169P
911.921	1.616	922121	WORD	n/a	wordpools/wordpool_EN.txt	SUIT	5	6	[0, 0, 0]	n/a	FR1	1	R1169P
913.537	0.95	923737	WORD_OFF	n/a	n/a	SUIT	5	6	[0, 0, 0]	n/a	FR1	1	R1169P
914.487	1.618	924686	WORD	n/a	wordpools/wordpool_EN.txt	MAT	6	6	[0, 0, 0]	n/a	FR1	1	R1169P
916.105	0.933	926304	WORD_OFF	n/a	n/a	MAT	6	6	[0, 0, 0]	n/a	FR1	1	R1169P
917.038	1.617	927237	WORD	n/a	wordpools/wordpool_EN.txt	VAN	7	6	[0, 0, 0]	n/a	FR1	1	R1169P
918.655	0.899	928854	WORD_OFF	n/a	n/a	VAN	7	6	[0, 0, 0]	n/a	FR1	1	R1169P
919.554	1.601	929753	WORD	n/a	wordpools/wordpool_EN.txt	DRESS	8	6	[0, 0, 0]	n/a	FR1	1	R1169P
921.155	0.918	931354	WORD_OFF	n/a	n/a	DRESS	8	6	[0, 0, 0]	n/a	FR1	1	R1169P
922.073	1.616	932272	WORD	n/a	wordpools/wordpool_EN.txt	DIME	9	6	[0, 0, 0]	n/a	FR1	1	R1169P
923.689	0.916	933888	WORD_OFF	n/a	n/a	DIME	9	6	[0, 0, 0]	n/a	FR1	1	R1169P
924.605	1.618	934804	WORD	n/a	wordpools/wordpool_EN.txt	PANTS	10	6	[0, 0, 0]	n/a	FR1	1	R1169P
926.223	0.901	936422	WORD_OFF	n/a	n/a	PANTS	10	6	[0, 0, 0]	n/a	FR1	1	R1169P
927.124	1.617	937323	WORD	n/a	wordpools/wordpool_EN.txt	SOCK	11	6	[0, 0, 0]	n/a	FR1	1	R1169P
928.741	0.933	938940	WORD_OFF	n/a	n/a	SOCK	11	6	[0, 0, 0]	n/a	FR1	1	R1169P
929.674	1.617	939873	WORD	n/a	wordpools/wordpool_EN.txt	WORLD	12	6	[0, 0, 0]	n/a	FR1	1	R1169P
931.291	0.0	941490	WORD_OFF	n/a	n/a	WORLD	12	6	[0, 0, 0]	n/a	FR1	1	R1169P
931.291	0.0	941490	DISTRACT_START	n/a	n/a	n/a	-999	6	[0, 0, 0]	n/a	FR1	1	R1169P
931.291	0.017	941490	START	n/a	n/a	n/a	-999	6	[-999, -999, -999]	n/a	FR1	1	R1169P
931.308	14.101	941507	PROB	14.101	n/a	n/a	-999	6	[6, 9, 1]	16	FR1	1	R1169P
945.409	4.836	955607	PROB	4.836	n/a	n/a	-999	6	[8, 2, 3]	13	FR1	1	R1169P
950.245	7.604	960443	PROB	7.604	n/a	n/a	-999	6	[8, 4, 9]	21	FR1	1	R1169P
957.849	0.014	968046	STOP	n/a	n/a	n/a	-999	6	[-999, -999, -999]	n/a	FR1	1	R1169P
957.863	0.615	968060	DISTRACT_END	n/a	n/a	n/a	-999	6	[0, 0, 0]	n/a	FR1	1	R1169P
958.478	0.519	968675	RETRIEVAL_ORIENT	n/a	n/a	n/a	-999	6	[0, 0, 0]	n/a	FR1	1	R1169P
958.997	2.492	969194	REC_START	n/a	n/a	n/a	-999	6	[0, 0, 0]	n/a	FR1	1	R1169P
961.489	1.0	971686	REC_WORD_VV	1.0	n/a	<>	-999	6	[0, 0, 0]	n/a	FR1	1	R1169P
962.489	1.0	972686	REC_WORD_VV	1.0	n/a	<>	-999	6	[0, 0, 0]	n/a	FR1	1	R1169P
963.489	1.0	973686	REC_WORD_VV	1.0	n/a	<>	-999	6	[0, 0, 0]	n/a	FR1	1	R1169P
964.489	0.826	974686	REC_WORD_VV	0.826	n/a	<>	-999	6	[0, 0, 0]	n/a	FR1	1	R1169P
965.315	2.437	975512	REC_WORD	2.437	n/a	GOAT	2	6	[0, 0, 0]	n/a	FR1	1	R1169P
967.752	1.923	977949	REC_WORD	1.923	n/a	DRIVE	-999	6	[0, 0, 0]	n/a	FR1	1	R1169P
969.675	1.759	979872	REC_WORD	1.759	n/a	DRESS	8	6	[0, 0, 0]	n/a	FR1	1	R1169P
971.434	2.891	981631	REC_WORD	2.891	n/a	SOCK	11	6	[0, 0, 0]	n/a	FR1	1	R1169P
974.325	7.676	984521	REC_WORD	7.676	n/a	BLOUSE	-999	6	[0, 0, 0]	n/a	FR1	1	R1169P
982.001	1.0	992197	REC_WORD_VV	1.0	n/a	<>	-999	6	[0, 0, 0]	n/a	FR1	1	R1169P
983.001	1.0	993197	REC_WORD_VV	1.0	n/a	<>	-999	6	[0, 0, 0]	n/a	FR1	1	R1169P
984.001	2.512	994197	REC_WORD_VV	2.512	n/a	<>	-999	6	[0, 0, 0]	n/a	FR1	1	R1169P
986.513	1.373	996709	REC_WORD_VV	1.373	n/a	<>	-999	6	[0, 0, 0]	n/a	FR1	1	R1169P
987.886	1.122	998082	REC_WORD_VV	1.122	n/a	<>	-999	6	[0, 0, 0]	n/a	FR1	1	R1169P
989.008	7.312	999204	REC_END	n/a	n/a	n/a	-999	6	[0, 0, 0]	n/a	FR1	1	R1169P
996.32	0.5	1006515	TRIAL	n/a	n/a	n/a	-999	7	[0, 0, 0]	n/a	FR1	1	R1169P
996.82	10.428	1007015	COUNTDOWN_START	n/a	n/a	n/a	-999	7	[0, 0, 0]	n/a	FR1	1	R1169P
1007.248	0.007	1017443	COUNTDOWN_END	n/a	n/a	n/a	-999	7	[0, 0, 0]	n/a	FR1	1	R1169P
1007.255	1.617	1017450	ORIENT	n/a	n/a	n/a	-999	7	[0, 0, 0]	n/a	FR1	1	R1169P
1008.872	2.184	1019067	ORIENT_OFF	n/a	n/a	n/a	-999	7	[0, 0, 0]	n/a	FR1	1	R1169P
1011.056	1.617	1021251	WORD	n/a	wordpools/wordpool_EN.txt	TOE	1	7	[0, 0, 0]	n/a	FR1	1	R1169P
1012.673	0.916	1022868	WORD_OFF	n/a	n/a	TOE	1	7	[0, 0, 0]	n/a	FR1	1	R1169P
1013.589	1.618	1023784	WORD	n/a	wordpools/wordpool_EN.txt	PASTE	2	7	[0, 0, 0]	n/a	FR1	1	R1169P
1015.207	0.85	1025401	WORD_OFF	n/a	n/a	PASTE	2	7	[0, 0, 0]	n/a	FR1	1	R1169P
1016.057	1.617	1026251	WORD	n/a	wordpools/wordpool_EN.txt	SPONGE	3	7	[0, 0, 0]	n/a	FR1	1	R1169P
1017.674	0.816	1027868	WORD_OFF	n/a	n/a	SPONGE	3	7	[0, 0, 0]	n/a	FR1	1	R1169P
1018.49	1.618	1028684	WORD	n/a	wordpools/wordpool_EN.txt	NAIL	4	7	[0, 0, 0]	n/a	FR1	1	R1169P
1020.108	1.016	1030302	WORD_OFF	n/a	n/a	NAIL	4	7	[0, 0, 0]	n/a	FR1	1	R1169P
1021.124	1.617	1031318	WORD	n/a	wordpools/wordpool_EN.txt	BOOT	5	7	[0, 0, 0]	n/a	FR1	1	R1169P
1022.741	0.934	1032935	WORD_OFF	n/a	n/a	BOOT	5	7	[0, 0, 0]	n/a	FR1	1	R1169P
1023.675	1.617	1033869	WORD	n/a	wordpools/wordpool_EN.txt	ARM	6	7	[0, 0, 0]	n/a	FR1	1	R1169P
1025.292	0.933	1035486	WORD_OFF	n/a	n/a	ARM	6	7	[0, 0, 0]	n/a	FR1	1	R1169P
1026.225	1.617	1036419	WORD	n/a	wordpools/wordpool_EN.txt	PLATE	7	7	[0, 0, 0]	n/a	FR1	1	R1169P
1027.842	0.801	1038036	WORD_OFF	n/a	n/a	PLATE	7	7	[0, 0, 0]	n/a	FR1	1	R1169P
1028.643	1.616	1038837	WORD	n/a	wordpools/wordpool_EN.txt	PIN	8	7	[0, 0, 0]	n/a	FR1	1	R1169P
1030.259	0.767	1040453	WORD_OFF	n/a	n/a	PIN	8	7	[0, 0, 0]	n/a	FR1	1	R1169P
1031.026	1.617	1041220	WORD	n/a	wordpools/wordpool_EN.txt	LIP	9	7	[0, 0, 0]	n/a	FR1	1	R1169P
1032.643	0.949	1042837	WORD_OFF	n/a	n/a	LIP	9	7	[0, 0, 0]	n/a	FR1	1	R1169P
1033.592	1.601	1043786	WORD	n/a	wordpools/wordpool_EN.txt	EEL	10	7	[0, 0, 0]	n/a	FR1	1	R1169P
1035.193	0.818	1045386	WORD_OFF	n/a	n/a	EEL	10	7	[0, 0, 0]	n/a	FR1	1	R1169P
1036.011	1.616	1046204	WORD	n/a	wordpools/wordpool_EN.txt	ROOT	11	7	[0, 0, 0]	n/a	FR1	1	R1169P
1037.627	1.0	1047820	WORD_OFF	n/a	n/a	ROOT	11	7	[0, 0, 0]	n/a	FR1	1	R1169P
1038.627	1.618	1048820	WORD	n/a	wordpools/wordpool_EN.txt	HOSE	12	7	[0, 0, 0]	n/a	FR1	1	R1169P
1040.245	0.0	1050438	WORD_OFF	n/a	n/a	HOSE	12	7	[0, 0, 0]	n/a	FR1	1	R1169P
1040.245	0.0	1050438	DISTRACT_START	n/a	n/a	n/a	-999	7	[0, 0, 0]	n/a	FR1	1	R1169P
1040.245	0.016	1050438	START	n/a	n/a	n/a	-999	7	[-999, -999, -999]	n/a	FR1	1	R1169P
1040.261	8.935	1050454	PROB	8.935	n/a	n/a	-999	7	[3, 2, 6]	11	FR1	1	R1169P
1049.196	8.835	1059389	PROB	8.835	n/a	n/a	-999	7	[8, 6, 4]	18	FR1	1	R1169P
1058.031	16.243	1068223	PROB	16.243	n/a	n/a	-999	7	[5, 8, 4]	17	FR1	1	R1169P
1074.274	0.01	1084465	STOP	n/a	n/a	n/a	-999	7	[-999, -999, -999]	n/a	FR1	1	R1169P
1074.284	0.551	1084475	DISTRACT_END	n/a	n/a	n/a	-999	7	[0, 0, 0]	n/a	FR1	1	R1169P
1074.835	0.517	1085026	RETRIEVAL_ORIENT	n/a	n/a	n/a	-999	7	[0, 0, 0]	n/a	FR1	1	R1169P
1075.352	1.204	1085543	REC_START	n/a	n/a	n/a	-999	7	[0, 0, 0]	n/a	FR1	1	R1169P
1076.556	1.0	1086747	REC_WORD_VV	1.0	n/a	<>	-999	7	[0, 0, 0]	n/a	FR1	1	R1169P
1077.556	1.0	1087747	REC_WORD_VV	1.0	n/a	<>	-999	7	[0, 0, 0]	n/a	FR1	1	R1169P
1078.556	3.423	1088747	REC_WORD_VV	3.423	n/a	<>	-999	7	[0, 0, 0]	n/a	FR1	1	R1169P
1081.979	0.342	1092170	REC_WORD_VV	0.342	n/a	<>	-999	7	[0, 0, 0]	n/a	FR1	1	R1169P
1082.321	0.514	1092512	REC_WORD	0.514	n/a	EEL	10	7	[0, 0, 0]	n/a	FR1	1	R1169P
1082.835	6.999	1093026	REC_WORD_VV	6.999	n/a	<>	-999	7	[0, 0, 0]	n/a	FR1	1	R1169P
1089.834	0.811	1100025	REC_WORD	0.811	n/a	LIP	9	7	[0, 0, 0]	n/a	FR1	1	R1169P
1090.645	4.055	1100836	REC_WORD	4.055	n/a	TOE	1	7	[0, 0, 0]	n/a	FR1	1	R1169P
1094.7	1.271	1104890	REC_WORD_VV	1.271	n/a	<>	-999	7	[0, 0, 0]	n/a	FR1	1	R1169P
1095.971	1.038	1106161	REC_WORD	1.038	n/a	TOE	1	7	[0, 0, 0]	n/a	FR1	1	R1169P
1097.009	5.587	1107199	REC_WORD_VV	5.587	n/a	<>	-999	7	[0, 0, 0]	n/a	FR1	1	R1169P
1102.596	0.763	1112786	REC_WORD_VV	0.763	n/a	<>	-999	7	[0, 0, 0]	n/a	FR1	1	R1169P
1103.359	2.002	1113549	REC_WORD	2.002	n/a	LIP	9	7	[0, 0, 0]	n/a	FR1	1	R1169P
1105.361	21.467	1115551	REC_END	n/a	n/a	n/a	-999	7	[0, 0, 0]	n/a	FR1	1	R1169P
1126.828	0.5	1137017	TRIAL	n/a	n/a	n/a	-999	8	[0, 0, 0]	n/a	FR1	1	R1169P
1127.328	10.428	1137517	COUNTDOWN_START	n/a	n/a	n/a	-999	8	[0, 0, 0]	n/a	FR1	1	R1169P
1137.756	0.007	1147944	COUNTDOWN_END	n/a	n/a	n/a	-999	8	[0, 0, 0]	n/a	FR1	1	R1169P
1137.763	1.616	1147951	ORIENT	n/a	n/a	n/a	-999	8	[0, 0, 0]	n/a	FR1	1	R1169P
1139.379	2.285	1149567	ORIENT_OFF	n/a	n/a	n/a	-999	8	[0, 0, 0]	n/a	FR1	1	R1169P
1141.664	1.617	1151852	WORD	n/a	wordpools/wordpool_EN.txt	MUD	1	8	[0, 0, 0]	n/a	FR1	1	R1169P
1143.281	0.883	1153469	WORD_OFF	n/a	n/a	MUD	1	8	[0, 0, 0]	n/a	FR1	1	R1169P
1144.164	1.617	1154352	WORD	n/a	wordpools/wordpool_EN.txt	SEED	2	8	[0, 0, 0]	n/a	FR1	1	R1169P
1145.781	0.799	1155969	WORD_OFF	n/a	n/a	SEED	2	8	[0, 0, 0]	n/a	FR1	1	R1169P
1146.58	1.601	1156768	WORD	n/a	wordpools/wordpool_EN.txt	SHARK	3	8	[0, 0, 0]	n/a	FR1	1	R1169P
1148.181	1.001	1158369	WORD_OFF	n/a	n/a	SHARK	3	8	[0, 0, 0]	n/a	FR1	1	R1169P
1149.182	1.617	1159370	WORD	n/a	wordpools/wordpool_EN.txt	SHELL	4	8	[0, 0, 0]	n/a	FR1	1	R1169P
1150.799	0.867	1160987	WORD_OFF	n/a	n/a	SHELL	4	8	[0, 0, 0]	n/a	FR1	1	R1169P
1151.666	1.617	1161854	WORD	n/a	wordpools/wordpool_EN.txt	TEA	5	8	[0, 0, 0]	n/a	FR1	1	R1169P
1153.283	0.966	1163470	WORD_OFF	n/a	n/a	TEA	5	8	[0, 0, 0]	n/a	FR1	1	R1169P
1154.249	1.617	1164436	WORD	n/a	wordpools/wordpool_EN.txt	FRUIT	6	8	[0, 0, 0]	n/a	FR1	1	R1169P
1155.866	0.934	1166053	WORD_OFF	n/a	n/a	FRUIT	6	8	[0, 0, 0]	n/a	FR1	1	R1169P
1156.8	1.616	1166987	WORD	n/a	wordpools/wordpool_EN.txt	JAR	7	8	[0, 0, 0]	n/a	FR1	1	R1169P
1158.416	0.801	1168603	WORD_OFF	n/a	n/a	JAR	7	8	[0, 0, 0]	n/a	FR1	1	R1169P
1159.217	1.617	1169404	WORD	n/a	wordpools/wordpool_EN.txt	GRAPE	8	8	[0, 0, 0]	n/a	FR1	1	R1169P
1160.834	0.833	1171021	WORD_OFF	n/a	n/a	GRAPE	8	8	[0, 0, 0]	n/a	FR1	1	R1169P
1161.667	1.617	1171854	WORD	n/a	wordpools/wordpool_EN.txt	SHRIMP	9	8	[0, 0, 0]	n/a	FR1	1	R1169P
1163.284	0.951	1173471	WORD_OFF	n/a	n/a	SHRIMP	9	8	[0, 0, 0]	n/a	FR1	1	R1169P
1164.235	1.617	1174422	WORD	n/a	wordpools/wordpool_EN.txt	TRAY	10	8	[0, 0, 0]	n/a	FR1	1	R1169P
1165.852	0.765	1176039	WORD_OFF	n/a	n/a	TRAY	10	8	[0, 0, 0]	n/a	FR1	1	R1169P
1166.617	1.618	1176804	WORD	n/a	wordpools/wordpool_EN.txt	HOOK	11	8	[0, 0, 0]	n/a	FR1	1	R1169P
1168.235	1.001	1178422	WORD_OFF	n/a	n/a	HOOK	11	8	[0, 0, 0]	n/a	FR1	1	R1169P
1169.236	1.617	1179423	WORD	n/a	wordpools/wordpool_EN.txt	BEE	12	8	[0, 0, 0]	n/a	FR1	1	R1169P
1170.853	0.0	1181040	WORD_OFF	n/a	n/a	BEE	12	8	[0, 0, 0]	n/a	FR1	1	R1169P
1170.853	0.0	1181040	DISTRACT_START	n/a	n/a	n/a	-999	8	[0, 0, 0]	n/a	FR1	1	R1169P
1170.853	0.016	1181040	START	n/a	n/a	n/a	-999	8	[-999, -999, -999]	n/a	FR1	1	R1169P
1170.869	12.219	1181056	PROB	12.219	n/a	n/a	-999	8	[5, 3, 9]	17	FR1	1	R1169P
1183.088	5.367	1193274	PROB	5.367	n/a	n/a	-999	8	[7, 2, 2]	11	FR1	1	R1169P
1188.455	17.628	1198641	PROB	17.628	n/a	n/a	-999	8	[7, 5, 3]	15	FR1	1	R1169P
1206.083	0.01	1216268	STOP	n/a	n/a	n/a	-999	8	[-999, -999, -999]	n/a	FR1	1	R1169P
1206.093	0.566	1216278	DISTRACT_END	n/a	n/a	n/a	-999	8	[0, 0, 0]	n/a	FR1	1	R1169P
1206.659	0.518	1216844	RETRIEVAL_ORIENT	n/a	n/a	n/a	-999	8	[0, 0, 0]	n/a	FR1	1	R1169P
1207.177	4.51	1217362	REC_START	n/a	n/a	n/a	-999	8	[0, 0, 0]	n/a	FR1	1	R1169P
1211.687	0.907	1221872	REC_WORD	0.907	n/a	SHRIMP	9	8	[0, 0, 0]	n/a	FR1	1	R1169P
1212.594	6.182	1222778	REC_WORD	6.182	n/a	TRAY	10	8	[0, 0, 0]	n/a	FR1	1	R1169P
1218.776	1.0	1228960	REC_WORD_VV	1.0	n/a	<>	-999	8	[0, 0, 0]	n/a	FR1	1	R1169P
1219.776	0.92	1229960	REC_WORD_VV	0.92	n/a	<>	-999	8	[0, 0, 0]	n/a	FR1	1	R1169P
1220.696	0.534	1230880	REC_WORD	0.534	n/a	SHRIMP	9	8	[0, 0, 0]	n/a	FR1	1	R1169P
1221.23	8.791	1231414	REC_WORD	8.791	n/a	TRAY	10	8	[0, 0, 0]	n/a	FR1	1	R1169P
1230.021	1.0	1240205	REC_WORD_VV	1.0	n/a	<>	-999	8	[0, 0, 0]	n/a	FR1	1	R1169P
1231.021	1.0	1241205	REC_WORD_VV	1.0	n/a	<>	-999	8	[0, 0, 0]	n/a	FR1	1	R1169P
1232.021	1.0	1242205	REC_WORD_VV	1.0	n/a	<>	-999	8	[0, 0, 0]	n/a	FR1	1	R1169P
1233.021	1.0	1243204	REC_WORD_VV	1.0	n/a	<>	-999	8	[0, 0, 0]	n/a	FR1	1	R1169P
1234.021	1.0	1244204	REC_WORD_VV	1.0	n/a	<>	-999	8	[0, 0, 0]	n/a	FR1	1	R1169P
1235.021	1.0	1245204	REC_WORD_VV	1.0	n/a	<>	-999	8	[0, 0, 0]	n/a	FR1	1	R1169P
1236.021	1.165	1246204	REC_WORD_VV	1.165	n/a	<>	-999	8	[0, 0, 0]	n/a	FR1	1	R1169P
1237.186	6.98	1247369	REC_END	n/a	n/a	n/a	-999	8	[0, 0, 0]	n/a	FR1	1	R1169P
1244.166	0.5	1254349	TRIAL	n/a	n/a	n/a	-999	9	[0, 0, 0]	n/a	FR1	1	R1169P
1244.666	10.428	1254849	COUNTDOWN_START	n/a	n/a	n/a	-999	9	[0, 0, 0]	n/a	FR1	1	R1169P
1255.094	0.008	1265276	COUNTDOWN_END	n/a	n/a	n/a	-999	9	[0, 0, 0]	n/a	FR1	1	R1169P
1255.102	1.617	1265284	ORIENT	n/a	n/a	n/a	-999	9	[0, 0, 0]	n/a	FR1	1	R1169P
1256.719	2.217	1266901	ORIENT_OFF	n/a	n/a	n/a	-999	9	[0, 0, 0]	n/a	FR1	1	R1169P
1258.936	1.616	1269118	WORD	n/a	wordpools/wordpool_EN.txt	LEG	1	9	[0, 0, 0]	n/a	FR1	1	R1169P
1260.552	0.833	1270734	WORD_OFF	n/a	n/a	LEG	1	9	[0, 0, 0]	n/a	FR1	1	R1169P
1261.385	1.618	1271567	WORD	n/a	wordpools/wordpool_EN.txt	CHIN	2	9	[0, 0, 0]	n/a	FR1	1	R1169P
1263.003	1.0	1273185	WORD_OFF	n/a	n/a	CHIN	2	9	[0, 0, 0]	n/a	FR1	1	R1169P
1264.003	1.616	1274185	WORD	n/a	wordpools/wordpool_EN.txt	CANE	3	9	[0, 0, 0]	n/a	FR1	1	R1169P
1265.619	0.934	1275801	WORD_OFF	n/a	n/a	CANE	3	9	[0, 0, 0]	n/a	FR1	1	R1169P
1266.553	1.601	1276735	WORD	n/a	wordpools/wordpool_EN.txt	FLUTE	4	9	[0, 0, 0]	n/a	FR1	1	R1169P
1268.154	0.85	1278336	WORD_OFF	n/a	n/a	FLUTE	4	9	[0, 0, 0]	n/a	FR1	1	R1169P
1269.004	1.616	1279186	WORD	n/a	wordpools/wordpool_EN.txt	BED	5	9	[0, 0, 0]	n/a	FR1	1	R1169P
1270.62	0.967	1280802	WORD_OFF	n/a	n/a	BED	5	9	[0, 0, 0]	n/a	FR1	1	R1169P
1271.587	1.618	1281769	WORD	n/a	wordpools/wordpool_EN.txt	BENCH	6	9	[0, 0, 0]	n/a	FR1	1	R1169P
1273.205	0.95	1283386	WORD_OFF	n/a	n/a	BENCH	6	9	[0, 0, 0]	n/a	FR1	1	R1169P
1274.155	1.617	1284336	WORD	n/a	wordpools/wordpool_EN.txt	VEST	7	9	[0, 0, 0]	n/a	FR1	1	R1169P
1275.772	0.984	1285953	WORD_OFF	n/a	n/a	VEST	7	9	[0, 0, 0]	n/a	FR1	1	R1169P
1276.756	1.616	1286937	WORD	n/a	wordpools/wordpool_EN.txt	THUMB	8	9	[0, 0, 0]	n/a	FR1	1	R1169P
1278.372	0.917	1288553	WORD_OFF	n/a	n/a	THUMB	8	9	[0, 0, 0]	n/a	FR1	1	R1169P
1279.289	1.618	1289470	WORD	n/a	wordpools/wordpool_EN.txt	SLEEVE	9	9	[0, 0, 0]	n/a	FR1	1	R1169P
1280.907	0.933	1291088	WORD_OFF	n/a	n/a	SLEEVE	9	9	[0, 0, 0]	n/a	FR1	1	R1169P
1281.84	1.616	1292021	WORD	n/a	wordpools/wordpool_EN.txt	SHIRT	10	9	[0, 0, 0]	n/a	FR1	1	R1169P
1283.456	0.868	1293637	WORD_OFF	n/a	n/a	SHIRT	10	9	[0, 0, 0]	n/a	FR1	1	R1169P
1284.324	1.617	1294505	WORD	n/a	wordpools/wordpool_EN.txt	STICK	11	9	[0, 0, 0]	n/a	FR1	1	R1169P
1285.941	0.833	1296122	WORD_OFF	n/a	n/a	STICK	11	9	[0, 0, 0]	n/a	FR1	1	R1169P
1286.774	1.616	1296955	WORD	n/a	wordpools/wordpool_EN.txt	ROSE	12	9	[0, 0, 0]	n/a	FR1	1	R1169P
1288.39	0.0	1298571	DISTRACT_START	n/a	n/a	n/a	-999	9	[0, 0, 0]	n/a	FR1	1	R1169P
1288.39	0.001	1298571	WORD_OFF	n/a	n/a	ROSE	12	9	[0, 0, 0]	n/a	FR1	1	R1169P
1288.391	0.016	1298572	START	n/a	n/a	n/a	-999	9	[-999, -999, -999]	n/a	FR1	1	R1169P
1288.407	19.221	1298588	PROB	19.221	n/a	n/a	-999	9	[7, 3, 8]	19	FR1	1	R1169P
1307.628	11.222	1317808	PROB	11.222	n/a	n/a	-999	9	[7, 3, 9]	19	FR1	1	R1169P
1318.85	0.014	1329029	STOP	n/a	n/a	n/a	-999	9	[-999, -999, -999]	n/a	FR1	1	R1169P
1318.864	0.515	1329043	DISTRACT_END	n/a	n/a	n/a	-999	9	[0, 0, 0]	n/a	FR1	1	R1169P
1319.379	0.519	1329558	RETRIEVAL_ORIENT	n/a	n/a	n/a	-999	9	[0, 0, 0]	n/a	FR1	1	R1169P
1319.898	0.177	1330077	REC_START	n/a	n/a	n/a	-999	9	[0, 0, 0]	n/a	FR1	1	R1169P
1320.075	1.0	1330254	REC_WORD_VV	1.0	n/a	<>	-999	9	[0, 0, 0]	n/a	FR1	1	R1169P
1321.075	1.0	1331254	REC_WORD_VV	1.0	n/a	<>	-999	9	[0, 0, 0]	n/a	FR1	1	R1169P
1322.075	1.0	1332254	REC_WORD_VV	1.0	n/a	<>	-999	9	[0, 0, 0]	n/a	FR1	1	R1169P
1323.075	1.0	1333254	REC_WORD_VV	1.0	n/a	<>	-999	9	[0, 0, 0]	n/a	FR1	1	R1169P
1324.075	1.0	1334254	REC_WORD_VV	1.0	n/a	<>	-999	9	[0, 0, 0]	n/a	FR1	1	R1169P
1325.075	1.0	1335254	REC_WORD_VV	1.0	n/a	<>	-999	9	[0, 0, 0]	n/a	FR1	1	R1169P
1326.075	5.0	1336254	REC_WORD_VV	5.0	n/a	<>	-999	9	[0, 0, 0]	n/a	FR1	1	R1169P
1331.075	1.0	1341254	REC_WORD_VV	1.0	n/a	<>	-999	9	[0, 0, 0]	n/a	FR1	1	R1169P
1332.075	1.0	1342253	REC_WORD_VV	1.0	n/a	<>	-999	9	[0, 0, 0]	n/a	FR1	1	R1169P
1333.075	1.0	1343253	REC_WORD_VV	1.0	n/a	<>	-999	9	[0, 0, 0]	n/a	FR1	1	R1169P
1334.075	1.0	1344253	REC_WORD_VV	1.0	n/a	<>	-999	9	[0, 0, 0]	n/a	FR1	1	R1169P
1335.075	1.0	1345253	REC_WORD_VV	1.0	n/a	<>	-999	9	[0, 0, 0]	n/a	FR1	1	R1169P
1336.075	1.0	1346253	REC_WORD_VV	1.0	n/a	<>	-999	9	[0, 0, 0]	n/a	FR1	1	R1169P
1337.075	1.0	1347253	REC_WORD_VV	1.0	n/a	<>	-999	9	[0, 0, 0]	n/a	FR1	1	R1169P
1338.075	1.0	1348253	REC_WORD_VV	1.0	n/a	<>	-999	9	[0, 0, 0]	n/a	FR1	1	R1169P
1339.075	1.0	1349253	REC_WORD_VV	1.0	n/a	<>	-999	9	[0, 0, 0]	n/a	FR1	1	R1169P
1340.075	1.0	1350253	REC_WORD_VV	1.0	n/a	<>	-999	9	[0, 0, 0]	n/a	FR1	1	R1169P
1341.075	1.0	1351253	REC_WORD_VV	1.0	n/a	<>	-999	9	[0, 0, 0]	n/a	FR1	1	R1169P
1342.075	1.0	1352253	REC_WORD_VV	1.0	n/a	<>	-999	9	[0, 0, 0]	n/a	FR1	1	R1169P
1343.075	1.0	1353253	REC_WORD_VV	1.0	n/a	<>	-999	9	[0, 0, 0]	n/a	FR1	1	R1169P
1344.075	1.0	1354253	REC_WORD_VV	1.0	n/a	<>	-999	9	[0, 0, 0]	n/a	FR1	1	R1169P
1345.075	1.0	1355253	REC_WORD_VV	1.0	n/a	<>	-999	9	[0, 0, 0]	n/a	FR1	1	R1169P
1346.075	1.0	1356253	REC_WORD_VV	1.0	n/a	<>	-999	9	[0, 0, 0]	n/a	FR1	1	R1169P
1347.075	1.0	1357253	REC_WORD_VV	1.0	n/a	<>	-999	9	[0, 0, 0]	n/a	FR1	1	R1169P
1348.075	1.0	1358253	REC_WORD_VV	1.0	n/a	<>	-999	9	[0, 0, 0]	n/a	FR1	1	R1169P
1349.075	0.823	1359253	REC_WORD_VV	0.823	n/a	<>	-999	9	[0, 0, 0]	n/a	FR1	1	R1169P
1349.898	0.012	1360076	REC_WORD_VV	0.012	n/a	<>	-999	9	[0, 0, 0]	n/a	FR1	1	R1169P
1349.91	2271.952	1360088	REC_END	n/a	n/a	n/a	-999	9	[0, 0, 0]	n/a	FR1	1	R1169P
3621.862	0.5	3631925	TRIAL	n/a	n/a	n/a	-999	10	[0, 0, 0]	n/a	FR1	1	R1169P
3622.362	10.428	3632425	COUNTDOWN_START	n/a	n/a	n/a	-999	10	[0, 0, 0]	n/a	FR1	1	R1169P
3632.79	0.008	3642853	COUNTDOWN_END	n/a	n/a	n/a	-999	10	[0, 0, 0]	n/a	FR1	1	R1169P
3632.798	1.616	3642861	ORIENT	n/a	n/a	n/a	-999	10	[0, 0, 0]	n/a	FR1	1	R1169P
3634.414	1.95	3644477	ORIENT_OFF	n/a	n/a	n/a	-999	10	[0, 0, 0]	n/a	FR1	1	R1169P
3636.364	1.601	3646426	WORD	n/a	wordpools/wordpool_EN.txt	NEST	1	10	[0, 0, 0]	n/a	FR1	1	R1169P
3637.965	0.934	3648027	WORD_OFF	n/a	n/a	NEST	1	10	[0, 0, 0]	n/a	FR1	1	R1169P
3638.899	1.616	3648961	WORD	n/a	wordpools/wordpool_EN.txt	MOOSE	2	10	[0, 0, 0]	n/a	FR1	1	R1169P
3640.515	0.883	3650577	WORD_OFF	n/a	n/a	MOOSE	2	10	[0, 0, 0]	n/a	FR1	1	R1169P
3641.398	1.618	3651460	WORD	n/a	wordpools/wordpool_EN.txt	WOOD	3	10	[0, 0, 0]	n/a	FR1	1	R1169P
3643.016	0.834	3653078	WORD_OFF	n/a	n/a	WOOD	3	10	[0, 0, 0]	n/a	FR1	1	R1169P
3643.85	1.616	3653912	WORD	n/a	wordpools/wordpool_EN.txt	HOUSE	4	10	[0, 0, 0]	n/a	FR1	1	R1169P
3645.466	0.817	3655528	WORD_OFF	n/a	n/a	HOUSE	4	10	[0, 0, 0]	n/a	FR1	1	R1169P
3646.283	1.617	3656345	WORD	n/a	wordpools/wordpool_EN.txt	ANT	5	10	[0, 0, 0]	n/a	FR1	1	R1169P
3647.9	0.801	3657962	WORD_OFF	n/a	n/a	ANT	5	10	[0, 0, 0]	n/a	FR1	1	R1169P
3648.701	1.617	3658763	WORD	n/a	wordpools/wordpool_EN.txt	LAKE	6	10	[0, 0, 0]	n/a	FR1	1	R1169P
3650.318	0.816	3660380	WORD_OFF	n/a	n/a	LAKE	6	10	[0, 0, 0]	n/a	FR1	1	R1169P
3651.134	1.617	3661196	WORD	n/a	wordpools/wordpool_EN.txt	TREE	7	10	[0, 0, 0]	n/a	FR1	1	R1169P
3652.751	0.783	3662813	WORD_OFF	n/a	n/a	TREE	7	10	[0, 0, 0]	n/a	FR1	1	R1169P
3653.534	1.618	3663596	WORD	n/a	wordpools/wordpool_EN.txt	TRASH	8	10	[0, 0, 0]	n/a	FR1	1	R1169P
3655.152	0.967	3665214	WORD_OFF	n/a	n/a	TRASH	8	10	[0, 0, 0]	n/a	FR1	1	R1169P
3656.119	1.617	3666180	WORD	n/a	wordpools/wordpool_EN.txt	TRUCK	9	10	[0, 0, 0]	n/a	FR1	1	R1169P
3657.736	0.799	3667797	WORD_OFF	n/a	n/a	TRUCK	9	10	[0, 0, 0]	n/a	FR1	1	R1169P
3658.535	1.618	3668596	WORD	n/a	wordpools/wordpool_EN.txt	WEB	10	10	[0, 0, 0]	n/a	FR1	1	R1169P
3660.153	0.983	3670214	WORD_OFF	n/a	n/a	WEB	10	10	[0, 0, 0]	n/a	FR1	1	R1169P
3661.136	1.617	3671197	WORD	n/a	wordpools/wordpool_EN.txt	BRANCH	11	10	[0, 0, 0]	n/a	FR1	1	R1169P
3662.753	0.766	3672814	WORD_OFF	n/a	n/a	BRANCH	11	10	[0, 0, 0]	n/a	FR1	1	R1169P
3663.519	1.601	3673580	WORD	n/a	wordpools/wordpool_EN.txt	CHALK	12	10	[0, 0, 0]	n/a	FR1	1	R1169P
3665.12	0.0	3675181	WORD_OFF	n/a	n/a	CHALK	12	10	[0, 0, 0]	n/a	FR1	1	R1169P
3665.12	0.001	3675181	DISTRACT_START	n/a	n/a	n/a	-999	10	[0, 0, 0]	n/a	FR1	1	R1169P
3665.121	0.016	3675182	START	n/a	n/a	n/a	-999	10	[-999, -999, -999]	n/a	FR1	1	R1169P
3665.137	6.901	3675198	PROB	6.901	n/a	n/a	-999	10	[7, 7, 2]	16	FR1	1	R1169P
3672.038	2.801	3682099	PROB	2.801	n/a	n/a	-999	10	[6, 4, 1]	11	FR1	1	R1169P
3674.839	6.318	3684900	PROB	6.318	n/a	n/a	-999	10	[6, 7, 3]	17	FR1	1	R1169P
3681.157	5.236	3691217	PROB	5.236	n/a	n/a	-999	10	[3, 3, 2]	8	FR1	1	R1169P
3686.393	0.014	3696453	STOP	n/a	n/a	n/a	-999	10	[-999, -999, -999]	n/a	FR1	1	R1169P
3686.407	0.551	3696467	DISTRACT_END	n/a	n/a	n/a	-999	10	[0, 0, 0]	n/a	FR1	1	R1169P
3686.958	0.516	3697018	RETRIEVAL_ORIENT	n/a	n/a	n/a	-999	10	[0, 0, 0]	n/a	FR1	1	R1169P
3687.474	2.811	3697534	REC_START	n/a	n/a	n/a	-999	10	[0, 0, 0]	n/a	FR1	1	R1169P
3690.285	0.86	3700345	REC_WORD_VV	0.86	n/a	<>	-999	10	[0, 0, 0]	n/a	FR1	1	R1169P
3691.145	6.691	3701205	REC_WORD	6.691	n/a	NEST	1	10	[0, 0, 0]	n/a	FR1	1	R1169P
3697.836	3.763	3707895	REC_WORD	3.763	n/a	CHALK	12	10	[0, 0, 0]	n/a	FR1	1	R1169P
3701.599	0.557	3711658	REC_WORD_VV	0.557	n/a	<>	-999	10	[0, 0, 0]	n/a	FR1	1	R1169P
3702.156	5.427	3712215	REC_WORD	5.427	n/a	BIRD	-999	10	[0, 0, 0]	n/a	FR1	1	R1169P
3707.583	0.464	3717642	REC_WORD_VV	0.464	n/a	<>	-999	10	[0, 0, 0]	n/a	FR1	1	R1169P
3708.047	2.667	3718106	REC_WORD	2.667	n/a	HOUSE	4	10	[0, 0, 0]	n/a	FR1	1	R1169P
3710.714	0.437	3720773	REC_WORD	0.437	n/a	NEST	1	10	[0, 0, 0]	n/a	FR1	1	R1169P
3711.151	2.467	3721210	REC_WORD	2.467	n/a	WOOD	3	10	[0, 0, 0]	n/a	FR1	1	R1169P
3713.618	0.675	3723677	REC_WORD_VV	0.675	n/a	<>	-999	10	[0, 0, 0]	n/a	FR1	1	R1169P
3714.293	3.194	3724352	REC_WORD	3.194	n/a	CHALK	12	10	[0, 0, 0]	n/a	FR1	1	R1169P
3717.487	6.043	3727545	REC_END	n/a	n/a	n/a	-999	10	[0, 0, 0]	n/a	FR1	1	R1169P
3723.53	0.5	3733588	TRIAL	n/a	n/a	n/a	-999	11	[0, 0, 0]	n/a	FR1	1	R1169P
3724.03	10.428	3734088	COUNTDOWN_START	n/a	n/a	n/a	-999	11	[0, 0, 0]	n/a	FR1	1	R1169P
3734.458	0.008	3744516	COUNTDOWN_END	n/a	n/a	n/a	-999	11	[0, 0, 0]	n/a	FR1	1	R1169P
3734.466	1.618	3744524	ORIENT	n/a	n/a	n/a	-999	11	[0, 0, 0]	n/a	FR1	1	R1169P
3736.084	2.15	3746141	ORIENT_OFF	n/a	n/a	n/a	-999	11	[0, 0, 0]	n/a	FR1	1	R1169P
3738.234	1.617	3748291	WORD	n/a	wordpools/wordpool_EN.txt	PIG	1	11	[0, 0, 0]	n/a	FR1	1	R1169P
3739.851	0.8	3749908	WORD_OFF	n/a	n/a	PIG	1	11	[0, 0, 0]	n/a	FR1	1	R1169P
3740.651	1.617	3750708	WORD	n/a	wordpools/wordpool_EN.txt	WEED	2	11	[0, 0, 0]	n/a	FR1	1	R1169P
3742.268	0.867	3752325	WORD_OFF	n/a	n/a	WEED	2	11	[0, 0, 0]	n/a	FR1	1	R1169P
3743.135	1.617	3753192	WORD	n/a	wordpools/wordpool_EN.txt	HORSE	3	11	[0, 0, 0]	n/a	FR1	1	R1169P
3744.752	0.866	3754809	WORD_OFF	n/a	n/a	HORSE	3	11	[0, 0, 0]	n/a	FR1	1	R1169P
3745.618	1.618	3755675	WORD	n/a	wordpools/wordpool_EN.txt	JAIL	4	11	[0, 0, 0]	n/a	FR1	1	R1169P
3747.236	0.817	3757293	WORD_OFF	n/a	n/a	JAIL	4	11	[0, 0, 0]	n/a	FR1	1	R1169P
3748.053	1.616	3758110	WORD	n/a	wordpools/wordpool_EN.txt	BOOK	5	11	[0, 0, 0]	n/a	FR1	1	R1169P
3749.669	0.916	3759726	WORD_OFF	n/a	n/a	BOOK	5	11	[0, 0, 0]	n/a	FR1	1	R1169P
3750.585	1.618	3760642	WORD	n/a	wordpools/wordpool_EN.txt	PURSE	6	11	[0, 0, 0]	n/a	FR1	1	R1169P
3752.203	0.834	3762260	WORD_OFF	n/a	n/a	PURSE	6	11	[0, 0, 0]	n/a	FR1	1	R1169P
3753.037	1.617	3763094	WORD	n/a	wordpools/wordpool_EN.txt	CLOWN	7	11	[0, 0, 0]	n/a	FR1	1	R1169P
3754.654	0.866	3764711	WORD_OFF	n/a	n/a	CLOWN	7	11	[0, 0, 0]	n/a	FR1	1	R1169P
3755.52	1.618	3765576	WORD	n/a	wordpools/wordpool_EN.txt	MUG	8	11	[0, 0, 0]	n/a	FR1	1	R1169P
3757.138	0.9	3767194	WORD_OFF	n/a	n/a	MUG	8	11	[0, 0, 0]	n/a	FR1	1	R1169P
3758.038	1.617	3768094	WORD	n/a	wordpools/wordpool_EN.txt	CHIEF	9	11	[0, 0, 0]	n/a	FR1	1	R1169P
3759.655	0.916	3769711	WORD_OFF	n/a	n/a	CHIEF	9	11	[0, 0, 0]	n/a	FR1	1	R1169P
3760.571	1.618	3770627	WORD	n/a	wordpools/wordpool_EN.txt	BADGE	10	11	[0, 0, 0]	n/a	FR1	1	R1169P
3762.189	0.766	3772245	WORD_OFF	n/a	n/a	BADGE	10	11	[0, 0, 0]	n/a	FR1	1	R1169P
3762.955	1.616	3773011	WORD	n/a	wordpools/wordpool_EN.txt	JUDGE	11	11	[0, 0, 0]	n/a	FR1	1	R1169P
3764.571	0.984	3774627	WORD_OFF	n/a	n/a	JUDGE	11	11	[0, 0, 0]	n/a	FR1	1	R1169P
3765.555	1.618	3775611	WORD	n/a	wordpools/wordpool_EN.txt	EAR	12	11	[0, 0, 0]	n/a	FR1	1	R1169P
3767.173	0.0	3777229	WORD_OFF	n/a	n/a	EAR	12	11	[0, 0, 0]	n/a	FR1	1	R1169P
3767.173	0.0	3777229	DISTRACT_START	n/a	n/a	n/a	-999	11	[0, 0, 0]	n/a	FR1	1	R1169P
3767.173	0.016	3777229	START	n/a	n/a	n/a	-999	11	[-999, -999, -999]	n/a	FR1	1	R1169P
3767.189	7.251	3777245	PROB	7.251	n/a	n/a	-999	11	[6, 4, 3]	13	FR1	1	R1169P
3774.44	6.836	3784496	PROB	6.836	n/a	n/a	-999	11	[7, 3, 3]	13	FR1	1	R1169P
3781.276	4.917	3791331	PROB	4.917	n/a	n/a	-999	11	[1, 1, 5]	7	FR1	1	R1169P
3786.193	9.937	3796248	PROB	9.937	n/a	n/a	-999	11	[4, 1, 7]	12	FR1	1	R1169P
3796.13	0.015	3806184	STOP	n/a	n/a	n/a	-999	11	[-999, -999, -999]	n/a	FR1	1	R1169P
3796.145	0.633	3806199	DISTRACT_END	n/a	n/a	n/a	-999	11	[0, 0, 0]	n/a	FR1	1	R1169P
3796.778	0.518	3806832	RETRIEVAL_ORIENT	n/a	n/a	n/a	-999	11	[0, 0, 0]	n/a	FR1	1	R1169P
3797.296	7.452	3807350	REC_START	n/a	n/a	n/a	-999	11	[0, 0, 0]	n/a	FR1	1	R1169P
3804.748	0.593	3814802	REC_WORD_VV	0.593	n/a	<>	-999	11	[0, 0, 0]	n/a	FR1	1	R1169P
3805.341	4.272	3815395	REC_WORD	4.272	n/a	BADGE	10	11	[0, 0, 0]	n/a	FR1	1	R1169P
3809.613	0.229	3819667	REC_WORD_VV	0.229	n/a	<>	-999	11	[0, 0, 0]	n/a	FR1	1	R1169P
3809.842	17.464	3819896	REC_WORD	17.464	n/a	JUDGE	11	11	[0, 0, 0]	n/a	FR1	1	R1169P
3827.306	10.413	3837359	REC_END	n/a	n/a	n/a	-999	11	[0, 0, 0]	n/a	FR1	1	R1169P
3837.719	0.5	3847771	TRIAL	n/a	n/a	n/a	-999	12	[0, 0, 0]	n/a	FR1	1	R1169P
3838.219	10.428	3848271	COUNTDOWN_START	n/a	n/a	n/a	-999	12	[0, 0, 0]	n/a	FR1	1	R1169P
3848.647	0.008	3858699	COUNTDOWN_END	n/a	n/a	n/a	-999	12	[0, 0, 0]	n/a	FR1	1	R1169P
3848.655	1.617	3858707	ORIENT	n/a	n/a	n/a	-999	12	[0, 0, 0]	n/a	FR1	1	R1169P
3850.272	2.232	3860324	ORIENT_OFF	n/a	n/a	n/a	-999	12	[0, 0, 0]	n/a	FR1	1	R1169P
3852.504	1.619	3862556	WORD	n/a	wordpools/wordpool_EN.txt	PALM	1	12	[0, 0, 0]	n/a	FR1	1	R1169P
3854.123	0.766	3864175	WORD_OFF	n/a	n/a	PALM	1	12	[0, 0, 0]	n/a	FR1	1	R1169P
3854.889	1.616	3864940	WORD	n/a	wordpools/wordpool_EN.txt	GEESE	2	12	[0, 0, 0]	n/a	FR1	1	R1169P
3856.505	1.017	3866556	WORD_OFF	n/a	n/a	GEESE	2	12	[0, 0, 0]	n/a	FR1	1	R1169P
3857.522	1.618	3867573	WORD	n/a	wordpools/wordpool_EN.txt	GATE	3	12	[0, 0, 0]	n/a	FR1	1	R1169P
3859.14	0.967	3869191	WORD_OFF	n/a	n/a	GATE	3	12	[0, 0, 0]	n/a	FR1	1	R1169P
3860.107	1.617	3870158	WORD	n/a	wordpools/wordpool_EN.txt	PEACH	4	12	[0, 0, 0]	n/a	FR1	1	R1169P
3861.724	0.917	3871775	WORD_OFF	n/a	n/a	PEACH	4	12	[0, 0, 0]	n/a	FR1	1	R1169P
3862.641	1.617	3872692	WORD	n/a	wordpools/wordpool_EN.txt	CUP	5	12	[0, 0, 0]	n/a	FR1	1	R1169P
3864.258	0.783	3874309	WORD_OFF	n/a	n/a	CUP	5	12	[0, 0, 0]	n/a	FR1	1	R1169P
3865.041	1.617	3875092	WORD	n/a	wordpools/wordpool_EN.txt	FLOOR	6	12	[0, 0, 0]	n/a	FR1	1	R1169P
3866.658	1.017	3876709	WORD_OFF	n/a	n/a	FLOOR	6	12	[0, 0, 0]	n/a	FR1	1	R1169P
3867.675	1.617	3877726	WORD	n/a	wordpools/wordpool_EN.txt	STOOL	7	12	[0, 0, 0]	n/a	FR1	1	R1169P
3869.292	0.95	3879343	WORD_OFF	n/a	n/a	STOOL	7	12	[0, 0, 0]	n/a	FR1	1	R1169P
3870.242	1.617	3880293	WORD	n/a	wordpools/wordpool_EN.txt	HAND	8	12	[0, 0, 0]	n/a	FR1	1	R1169P
3871.859	0.9	3881910	WORD_OFF	n/a	n/a	HAND	8	12	[0, 0, 0]	n/a	FR1	1	R1169P
3872.759	1.616	3882810	WORD	n/a	wordpools/wordpool_EN.txt	OAK	9	12	[0, 0, 0]	n/a	FR1	1	R1169P
3874.375	0.868	3884425	WORD_OFF	n/a	n/a	OAK	9	12	[0, 0, 0]	n/a	FR1	1	R1169P
3875.243	1.617	3885293	WORD	n/a	wordpools/wordpool_EN.txt	LAMB	10	12	[0, 0, 0]	n/a	FR1	1	R1169P
3876.86	0.95	3886910	WORD_OFF	n/a	n/a	LAMB	10	12	[0, 0, 0]	n/a	FR1	1	R1169P
3877.81	1.616	3887860	WORD	n/a	wordpools/wordpool_EN.txt	POOL	11	12	[0, 0, 0]	n/a	FR1	1	R1169P
3879.426	0.768	3889476	WORD_OFF	n/a	n/a	POOL	11	12	[0, 0, 0]	n/a	FR1	1	R1169P
3880.194	1.617	3890244	WORD	n/a	wordpools/wordpool_EN.txt	DART	12	12	[0, 0, 0]	n/a	FR1	1	R1169P
3881.811	0.0	3891861	WORD_OFF	n/a	n/a	DART	12	12	[0, 0, 0]	n/a	FR1	1	R1169P
3881.811	0.001	3891861	DISTRACT_START	n/a	n/a	n/a	-999	12	[0, 0, 0]	n/a	FR1	1	R1169P
3881.812	0.016	3891862	START	n/a	n/a	n/a	-999	12	[-999, -999, -999]	n/a	FR1	1	R1169P
3881.828	11.319	3891878	PROB	11.319	n/a	n/a	-999	12	[9, 5, 5]	19	FR1	1	R1169P
3893.147	16.886	3903197	PROB	16.886	n/a	n/a	-999	12	[3, 3, 8]	14	FR1	1	R1169P
3910.033	0.017	3920082	STOP	n/a	n/a	n/a	-999	12	[-999, -999, -999]	n/a	FR1	1	R1169P
3910.05	0.565	3920099	DISTRACT_END	n/a	n/a	n/a	-999	12	[0, 0, 0]	n/a	FR1	1	R1169P
3910.615	0.519	3920664	RETRIEVAL_ORIENT	n/a	n/a	n/a	-999	12	[0, 0, 0]	n/a	FR1	1	R1169P
3911.134	1.703	3921183	REC_START	n/a	n/a	n/a	-999	12	[0, 0, 0]	n/a	FR1	1	R1169P
3912.837	0.998	3922886	REC_WORD_VV	0.998	n/a	<>	-999	12	[0, 0, 0]	n/a	FR1	1	R1169P
3913.835	0.865	3923883	REC_WORD_VV	0.865	n/a	<>	-999	12	[0, 0, 0]	n/a	FR1	1	R1169P
3914.7	4.779	3924748	REC_WORD	4.779	n/a	PALM	1	12	[0, 0, 0]	n/a	FR1	1	R1169P
3919.479	2.555	3929527	REC_WORD	2.555	n/a	OAK	9	12	[0, 0, 0]	n/a	FR1	1	R1169P
3922.034	0.662	3932082	REC_WORD	0.662	n/a	PALM	1	12	[0, 0, 0]	n/a	FR1	1	R1169P
3922.696	1.966	3932744	REC_WORD	1.966	n/a	OAK	9	12	[0, 0, 0]	n/a	FR1	1	R1169P
3924.662	16.32	3934710	REC_WORD	16.32	n/a	WEED	-999	12	[0, 0, 0]	n/a	FR1	1	R1169P
3940.982	0.164	3951029	REC_WORD_VV	0.164	n/a	<>	-999	12	[0, 0, 0]	n/a	FR1	1	R1169P
3941.146	5.794	3951193	REC_END	n/a	n/a	n/a	-999	12	[0, 0, 0]	n/a	FR1	1	R1169P
3946.94	0.5	3956987	TRIAL	n/a	n/a	n/a	-999	13	[0, 0, 0]	n/a	FR1	1	R1169P
3947.44	10.428	3957487	COUNTDOWN_START	n/a	n/a	n/a	-999	13	[0, 0, 0]	n/a	FR1	1	R1169P
3957.868	0.007	3967914	COUNTDOWN_END	n/a	n/a	n/a	-999	13	[0, 0, 0]	n/a	FR1	1	R1169P
3957.875	1.616	3967921	ORIENT	n/a	n/a	n/a	-999	13	[0, 0, 0]	n/a	FR1	1	R1169P
3959.491	2.152	3969537	ORIENT_OFF	n/a	n/a	n/a	-999	13	[0, 0, 0]	n/a	FR1	1	R1169P
3961.643	1.617	3971689	WORD	n/a	wordpools/wordpool_EN.txt	SMILE	1	13	[0, 0, 0]	n/a	FR1	1	R1169P
3963.26	0.8	3973306	WORD_OFF	n/a	n/a	SMILE	1	13	[0, 0, 0]	n/a	FR1	1	R1169P
3964.06	1.617	3974106	WORD	n/a	wordpools/wordpool_EN.txt	STEAK	2	13	[0, 0, 0]	n/a	FR1	1	R1169P
3965.677	0.866	3975723	WORD_OFF	n/a	n/a	STEAK	2	13	[0, 0, 0]	n/a	FR1	1	R1169P
3966.543	1.618	3976589	WORD	n/a	wordpools/wordpool_EN.txt	HORN	3	13	[0, 0, 0]	n/a	FR1	1	R1169P
3968.161	0.95	3978207	WORD_OFF	n/a	n/a	HORN	3	13	[0, 0, 0]	n/a	FR1	1	R1169P
3969.111	1.617	3979157	WORD	n/a	wordpools/wordpool_EN.txt	LAWN	4	13	[0, 0, 0]	n/a	FR1	1	R1169P
3970.728	0.983	3980774	WORD_OFF	n/a	n/a	LAWN	4	13	[0, 0, 0]	n/a	FR1	1	R1169P
3971.711	1.617	3981757	WORD	n/a	wordpools/wordpool_EN.txt	SNAKE	5	13	[0, 0, 0]	n/a	FR1	1	R1169P
3973.328	0.8	3983374	WORD_OFF	n/a	n/a	SNAKE	5	13	[0, 0, 0]	n/a	FR1	1	R1169P
3974.128	1.617	3984173	WORD	n/a	wordpools/wordpool_EN.txt	BEAK	6	13	[0, 0, 0]	n/a	FR1	1	R1169P
3975.745	0.783	3985790	WORD_OFF	n/a	n/a	BEAK	6	13	[0, 0, 0]	n/a	FR1	1	R1169P
3976.528	1.601	3986573	WORD	n/a	wordpools/wordpool_EN.txt	SOUP	7	13	[0, 0, 0]	n/a	FR1	1	R1169P
3978.129	1.0	3988174	WORD_OFF	n/a	n/a	SOUP	7	13	[0, 0, 0]	n/a	FR1	1	R1169P
3979.129	1.617	3989174	WORD	n/a	wordpools/wordpool_EN.txt	OWL	8	13	[0, 0, 0]	n/a	FR1	1	R1169P
3980.746	0.783	3990791	WORD_OFF	n/a	n/a	OWL	8	13	[0, 0, 0]	n/a	FR1	1	R1169P
3981.529	1.618	3991574	WORD	n/a	wordpools/wordpool_EN.txt	MOUTH	9	13	[0, 0, 0]	n/a	FR1	1	R1169P
3983.147	0.8	3993192	WORD_OFF	n/a	n/a	MOUTH	9	13	[0, 0, 0]	n/a	FR1	1	R1169P
3983.947	1.616	3993992	WORD	n/a	wordpools/wordpool_EN.txt	SNAIL	10	13	[0, 0, 0]	n/a	FR1	1	R1169P
3985.563	0.784	3995608	WORD_OFF	n/a	n/a	SNAIL	10	13	[0, 0, 0]	n/a	FR1	1	R1169P
3986.347	1.617	3996392	WORD	n/a	wordpools/wordpool_EN.txt	SEAL	11	13	[0, 0, 0]	n/a	FR1	1	R1169P
3987.964	0.867	3998009	WORD_OFF	n/a	n/a	SEAL	11	13	[0, 0, 0]	n/a	FR1	1	R1169P
3988.831	1.616	3998876	WORD	n/a	wordpools/wordpool_EN.txt	COW	12	13	[0, 0, 0]	n/a	FR1	1	R1169P
3990.447	0.0	4000492	WORD_OFF	n/a	n/a	COW	12	13	[0, 0, 0]	n/a	FR1	1	R1169P
3990.447	0.001	4000492	DISTRACT_START	n/a	n/a	n/a	-999	13	[0, 0, 0]	n/a	FR1	1	R1169P
3990.448	0.016	4000493	START	n/a	n/a	n/a	-999	13	[-999, -999, -999]	n/a	FR1	1	R1169P
3990.464	8.135	4000509	PROB	8.135	n/a	n/a	-999	13	[4, 7, 6]	17	FR1	1	R1169P
3998.599	6.235	4008643	PROB	6.235	n/a	n/a	-999	13	[3, 8, 1]	12	FR1	1	R1169P
4004.834	17.567	4014878	PROB	17.567	n/a	n/a	-999	13	[7, 3, 8]	18	FR1	1	R1169P
4022.401	0.019	4032444	STOP	n/a	n/a	n/a	-999	13	[-999, -999, -999]	n/a	FR1	1	R1169P
4022.42	0.701	4032463	DISTRACT_END	n/a	n/a	n/a	-999	13	[0, 0, 0]	n/a	FR1	1	R1169P
4023.121	0.517	4033164	RETRIEVAL_ORIENT	n/a	n/a	n/a	-999	13	[0, 0, 0]	n/a	FR1	1	R1169P
4023.638	1.767	4033681	REC_START	n/a	n/a	n/a	-999	13	[0, 0, 0]	n/a	FR1	1	R1169P
4025.405	0.164	4035448	REC_WORD_VV	0.164	n/a	<>	-999	13	[0, 0, 0]	n/a	FR1	1	R1169P
4025.569	1.13	4035612	REC_WORD	1.13	n/a	SNAKE	5	13	[0, 0, 0]	n/a	FR1	1	R1169P
4026.699	1.366	4036742	REC_WORD	1.366	n/a	SNAIL	10	13	[0, 0, 0]	n/a	FR1	1	R1169P
4028.065	25.584	4038108	REC_WORD	25.584	n/a	OWL	8	13	[0, 0, 0]	n/a	FR1	1	R1169P
4053.649	6.978	4063690	REC_END	n/a	n/a	n/a	-999	13	[0, 0, 0]	n/a	FR1	1	R1169P
4060.627	0.5	4070668	TRIAL	n/a	n/a	n/a	-999	14	[0, 0, 0]	n/a	FR1	1	R1169P
4061.127	10.428	4071168	COUNTDOWN_START	n/a	n/a	n/a	-999	14	[0, 0, 0]	n/a	FR1	1	R1169P
4071.555	0.007	4081596	COUNTDOWN_END	n/a	n/a	n/a	-999	14	[0, 0, 0]	n/a	FR1	1	R1169P
4071.562	1.618	4081603	ORIENT	n/a	n/a	n/a	-999	14	[0, 0, 0]	n/a	FR1	1	R1169P
4073.18	1.967	4083220	ORIENT_OFF	n/a	n/a	n/a	-999	14	[0, 0, 0]	n/a	FR1	1	R1169P
4075.147	1.617	4085187	WORD	n/a	wordpools/wordpool_EN.txt	CAGE	1	14	[0, 0, 0]	n/a	FR1	1	R1169P
4076.764	0.833	4086804	WORD_OFF	n/a	n/a	CAGE	1	14	[0, 0, 0]	n/a	FR1	1	R1169P
4077.597	1.618	4087637	WORD	n/a	wordpools/wordpool_EN.txt	TOAST	2	14	[0, 0, 0]	n/a	FR1	1	R1169P
4079.215	1.0	4089255	WORD_OFF	n/a	n/a	TOAST	2	14	[0, 0, 0]	n/a	FR1	1	R1169P
4080.215	1.617	4090255	WORD	n/a	wordpools/wordpool_EN.txt	VASE	3	14	[0, 0, 0]	n/a	FR1	1	R1169P
4081.832	0.782	4091872	WORD_OFF	n/a	n/a	VASE	3	14	[0, 0, 0]	n/a	FR1	1	R1169P
4082.614	1.618	4092654	WORD	n/a	wordpools/wordpool_EN.txt	SPARK	4	14	[0, 0, 0]	n/a	FR1	1	R1169P
4084.232	1.001	4094272	WORD_OFF	n/a	n/a	SPARK	4	14	[0, 0, 0]	n/a	FR1	1	R1169P
4085.233	1.617	4095273	WORD	n/a	wordpools/wordpool_EN.txt	COUCH	5	14	[0, 0, 0]	n/a	FR1	1	R1169P
4086.85	0.983	4096890	WORD_OFF	n/a	n/a	COUCH	5	14	[0, 0, 0]	n/a	FR1	1	R1169P
4087.833	1.616	4097873	WORD	n/a	wordpools/wordpool_EN.txt	FAN	6	14	[0, 0, 0]	n/a	FR1	1	R1169P
4089.449	0.835	4099489	WORD_OFF	n/a	n/a	FAN	6	14	[0, 0, 0]	n/a	FR1	1	R1169P
4090.284	1.616	4100324	WORD	n/a	wordpools/wordpool_EN.txt	ROOM	7	14	[0, 0, 0]	n/a	FR1	1	R1169P
4091.9	0.817	4101940	WORD_OFF	n/a	n/a	ROOM	7	14	[0, 0, 0]	n/a	FR1	1	R1169P
4092.717	1.617	4102756	WORD	n/a	wordpools/wordpool_EN.txt	ELF	8	14	[0, 0, 0]	n/a	FR1	1	R1169P
4094.334	0.967	4104373	WORD_OFF	n/a	n/a	ELF	8	14	[0, 0, 0]	n/a	FR1	1	R1169P
4095.301	1.617	4105340	WORD	n/a	wordpools/wordpool_EN.txt	STOVE	9	14	[0, 0, 0]	n/a	FR1	1	R1169P
4096.918	0.9	4106957	WORD_OFF	n/a	n/a	STOVE	9	14	[0, 0, 0]	n/a	FR1	1	R1169P
4097.818	1.616	4107857	WORD	n/a	wordpools/wordpool_EN.txt	CLOCK	10	14	[0, 0, 0]	n/a	FR1	1	R1169P
4099.434	0.835	4109473	WORD_OFF	n/a	n/a	CLOCK	10	14	[0, 0, 0]	n/a	FR1	1	R1169P
4100.269	1.617	4110308	WORD	n/a	wordpools/wordpool_EN.txt	BATH	11	14	[0, 0, 0]	n/a	FR1	1	R1169P
4101.886	0.917	4111925	WORD_OFF	n/a	n/a	BATH	11	14	[0, 0, 0]	n/a	FR1	1	R1169P
4102.803	1.616	4112842	WORD	n/a	wordpools/wordpool_EN.txt	PARK	12	14	[0, 0, 0]	n/a	FR1	1	R1169P
4104.419	0.0	4114458	WORD_OFF	n/a	n/a	PARK	12	14	[0, 0, 0]	n/a	FR1	1	R1169P
4104.419	0.0	4114458	DISTRACT_START	n/a	n/a	n/a	-999	14	[0, 0, 0]	n/a	FR1	1	R1169P
4104.419	0.016	4114458	START	n/a	n/a	n/a	-999	14	[-999, -999, -999]	n/a	FR1	1	R1169P
4104.435	5.719	4114474	PROB	5.719	n/a	n/a	-999	14	[1, 6, 3]	10	FR1	1	R1169P
4110.154	3.917	4120193	PROB	3.917	n/a	n/a	-999	14	[1, 6, 4]	11	FR1	1	R1169P
4114.071	8.451	4124109	PROB	8.451	n/a	n/a	-999	14	[4, 2, 7]	13	FR1	1	R1169P
4122.522	5.144	4132560	PROB	5.144	n/a	n/a	-999	14	[1, 6, 9]	16	FR1	1	R1169P
4127.666	0.008	4137704	STOP	n/a	n/a	n/a	-999	14	[-999, -999, -999]	n/a	FR1	1	R1169P
4127.674	0.517	4137712	DISTRACT_END	n/a	n/a	n/a	-999	14	[0, 0, 0]	n/a	FR1	1	R1169P
4128.191	0.517	4138229	RETRIEVAL_ORIENT	n/a	n/a	n/a	-999	14	[0, 0, 0]	n/a	FR1	1	R1169P
4128.708	1.117	4138746	REC_START	n/a	n/a	n/a	-999	14	[0, 0, 0]	n/a	FR1	1	R1169P
4129.825	0.943	4139863	REC_WORD_VV	0.943	n/a	<>	-999	14	[0, 0, 0]	n/a	FR1	1	R1169P
4130.768	1.0	4140806	REC_WORD_VV	1.0	n/a	<>	-999	14	[0, 0, 0]	n/a	FR1	1	R1169P
4131.768	1.0	4141806	REC_WORD_VV	1.0	n/a	<>	-999	14	[0, 0, 0]	n/a	FR1	1	R1169P
4132.768	2.65	4142805	REC_WORD_VV	2.65	n/a	<>	-999	14	[0, 0, 0]	n/a	FR1	1	R1169P
4135.418	2.7	4145455	REC_WORD_VV	2.7	n/a	<>	-999	14	[0, 0, 0]	n/a	FR1	1	R1169P
4138.118	1.26	4148155	REC_WORD	1.26	n/a	STOVE	9	14	[0, 0, 0]	n/a	FR1	1	R1169P
4139.378	1.169	4149415	REC_WORD	1.169	n/a	OVEN	-999	14	[0, 0, 0]	n/a	FR1	1	R1169P
4140.547	3.896	4150584	REC_WORD	3.896	n/a	SINK	-999	14	[0, 0, 0]	n/a	FR1	1	R1169P
4144.443	1.0	4154480	REC_WORD_VV	1.0	n/a	<>	-999	14	[0, 0, 0]	n/a	FR1	1	R1169P
4145.443	1.0	4155480	REC_WORD_VV	1.0	n/a	<>	-999	14	[0, 0, 0]	n/a	FR1	1	R1169P
4146.443	12.275	4156480	REC_WORD_VV	12.275	n/a	<>	-999	14	[0, 0, 0]	n/a	FR1	1	R1169P
4158.718	8.729	4168754	REC_END	n/a	n/a	n/a	-999	14	[0, 0, 0]	n/a	FR1	1	R1169P
4167.447	0.5	4177483	TRIAL	n/a	n/a	n/a	-999	15	[0, 0, 0]	n/a	FR1	1	R1169P
4167.947	10.428	4177983	COUNTDOWN_START	n/a	n/a	n/a	-999	15	[0, 0, 0]	n/a	FR1	1	R1169P
4178.375	0.007	4188410	COUNTDOWN_END	n/a	n/a	n/a	-999	15	[0, 0, 0]	n/a	FR1	1	R1169P
4178.382	1.602	4188417	ORIENT	n/a	n/a	n/a	-999	15	[0, 0, 0]	n/a	FR1	1	R1169P
4179.984	2.0	4190019	ORIENT_OFF	n/a	n/a	n/a	-999	15	[0, 0, 0]	n/a	FR1	1	R1169P
4181.984	1.616	4192019	WORD	n/a	wordpools/wordpool_EN.txt	SKY	1	15	[0, 0, 0]	n/a	FR1	1	R1169P
4183.6	0.95	4193635	WORD_OFF	n/a	n/a	SKY	1	15	[0, 0, 0]	n/a	FR1	1	R1169P
4184.55	1.618	4194585	WORD	n/a	wordpools/wordpool_EN.txt	CHEEK	2	15	[0, 0, 0]	n/a	FR1	1	R1169P
4186.168	0.834	4196203	WORD_OFF	n/a	n/a	CHEEK	2	15	[0, 0, 0]	n/a	FR1	1	R1169P
4187.002	1.616	4197037	WORD	n/a	wordpools/wordpool_EN.txt	APE	3	15	[0, 0, 0]	n/a	FR1	1	R1169P
4188.618	0.95	4198653	WORD_OFF	n/a	n/a	APE	3	15	[0, 0, 0]	n/a	FR1	1	R1169P
4189.568	1.618	4199603	WORD	n/a	wordpools/wordpool_EN.txt	JEEP	4	15	[0, 0, 0]	n/a	FR1	1	R1169P
4191.186	0.85	4201221	WORD_OFF	n/a	n/a	JEEP	4	15	[0, 0, 0]	n/a	FR1	1	R1169P
4192.036	1.617	4202070	WORD	n/a	wordpools/wordpool_EN.txt	TENT	5	15	[0, 0, 0]	n/a	FR1	1	R1169P
4193.653	0.882	4203687	WORD_OFF	n/a	n/a	TENT	5	15	[0, 0, 0]	n/a	FR1	1	R1169P
4194.535	1.601	4204569	WORD	n/a	wordpools/wordpool_EN.txt	CLOUD	6	15	[0, 0, 0]	n/a	FR1	1	R1169P
4196.136	0.851	4206170	WORD_OFF	n/a	n/a	CLOUD	6	15	[0, 0, 0]	n/a	FR1	1	R1169P
4196.987	1.616	4207021	WORD	n/a	wordpools/wordpool_EN.txt	SNOW	7	15	[0, 0, 0]	n/a	FR1	1	R1169P
4198.603	0.833	4208637	WORD_OFF	n/a	n/a	SNOW	7	15	[0, 0, 0]	n/a	FR1	1	R1169P
4199.436	1.618	4209470	WORD	n/a	wordpools/wordpool_EN.txt	MOON	8	15	[0, 0, 0]	n/a	FR1	1	R1169P
4201.054	0.834	4211088	WORD_OFF	n/a	n/a	MOON	8	15	[0, 0, 0]	n/a	FR1	1	R1169P
4201.888	1.616	4211922	WORD	n/a	wordpools/wordpool_EN.txt	SIGN	9	15	[0, 0, 0]	n/a	FR1	1	R1169P
4203.504	1.0	4213538	WORD_OFF	n/a	n/a	SIGN	9	15	[0, 0, 0]	n/a	FR1	1	R1169P
4204.504	1.618	4214538	WORD	n/a	wordpools/wordpool_EN.txt	ROAD	10	15	[0, 0, 0]	n/a	FR1	1	R1169P
4206.122	0.783	4216156	WORD_OFF	n/a	n/a	ROAD	10	15	[0, 0, 0]	n/a	FR1	1	R1169P
4206.905	1.616	4216939	WORD	n/a	wordpools/wordpool_EN.txt	CLIFF	11	15	[0, 0, 0]	n/a	FR1	1	R1169P
4208.521	0.785	4218555	WORD_OFF	n/a	n/a	CLIFF	11	15	[0, 0, 0]	n/a	FR1	1	R1169P
4209.306	1.617	4219340	WORD	n/a	wordpools/wordpool_EN.txt	ROCK	12	15	[0, 0, 0]	n/a	FR1	1	R1169P
4210.923	0.0	4220957	WORD_OFF	n/a	n/a	ROCK	12	15	[0, 0, 0]	n/a	FR1	1	R1169P
4210.923	0.0	4220957	DISTRACT_START	n/a	n/a	n/a	-999	15	[0, 0, 0]	n/a	FR1	1	R1169P
4210.923	0.017	4220957	START	n/a	n/a	n/a	-999	15	[-999, -999, -999]	n/a	FR1	1	R1169P
4210.94	5.234	4220974	PROB	5.234	n/a	n/a	-999	15	[6, 1, 3]	10	FR1	1	R1169P
4216.174	14.719	4226207	PROB	14.719	n/a	n/a	-999	15	[7, 7, 3]	17	FR1	1	R1169P
4230.893	3.468	4240926	PROB	3.468	n/a	n/a	-999	15	[7, 3, 1]	11	FR1	1	R1169P
4234.361	0.015	4244393	STOP	n/a	n/a	n/a	-999	15	[-999, -999, -999]	n/a	FR1	1	R1169P
4234.376	0.701	4244408	DISTRACT_END	n/a	n/a	n/a	-999	15	[0, 0, 0]	n/a	FR1	1	R1169P
4235.077	0.517	4245109	RETRIEVAL_ORIENT	n/a	n/a	n/a	-999	15	[0, 0, 0]	n/a	FR1	1	R1169P
4235.594	3.411	4245626	REC_START	n/a	n/a	n/a	-999	15	[0, 0, 0]	n/a	FR1	1	R1169P
4239.005	3.555	4249037	REC_WORD	3.555	n/a	SKY	1	15	[0, 0, 0]	n/a	FR1	1	R1169P
4242.56	0.147	4252592	REC_WORD_VV	0.147	n/a	<>	-999	15	[0, 0, 0]	n/a	FR1	1	R1169P
4242.707	3.731	4252739	REC_WORD	3.731	n/a	JEEP	4	15	[0, 0, 0]	n/a	FR1	1	R1169P
4246.438	0.525	4256470	REC_WORD_VV	0.525	n/a	<>	-999	15	[0, 0, 0]	n/a	FR1	1	R1169P
4246.963	0.445	4256995	REC_WORD	0.445	n/a	SNOW	7	15	[0, 0, 0]	n/a	FR1	1	R1169P
4247.408	8.928	4257440	REC_WORD_VV	8.928	n/a	<>	-999	15	[0, 0, 0]	n/a	FR1	1	R1169P
4256.336	0.464	4266367	REC_WORD	0.464	n/a	SKI	-999	15	[0, 0, 0]	n/a	FR1	1	R1169P
4256.8	1.0	4266831	REC_WORD_VV	1.0	n/a	<>	-999	15	[0, 0, 0]	n/a	FR1	1	R1169P
4257.8	1.0	4267831	REC_WORD_VV	1.0	n/a	<>	-999	15	[0, 0, 0]	n/a	FR1	1	R1169P
4258.8	6.805	4268831	REC_WORD_VV	6.805	n/a	<>	-999	15	[0, 0, 0]	n/a	FR1	1	R1169P
4265.605	22.099	4275636	REC_END	n/a	n/a	n/a	-999	15	[0, 0, 0]	n/a	FR1	1	R1169P
4287.704	0.5	4297734	TRIAL	n/a	n/a	n/a	-999	16	[0, 0, 0]	n/a	FR1	1	R1169P
4288.204	10.428	4298234	COUNTDOWN_START	n/a	n/a	n/a	-999	16	[0, 0, 0]	n/a	FR1	1	R1169P
4298.632	0.007	4308661	COUNTDOWN_END	n/a	n/a	n/a	-999	16	[0, 0, 0]	n/a	FR1	1	R1169P
4298.639	1.617	4308668	ORIENT	n/a	n/a	n/a	-999	16	[0, 0, 0]	n/a	FR1	1	R1169P
4300.256	2.051	4310285	ORIENT_OFF	n/a	n/a	n/a	-999	16	[0, 0, 0]	n/a	FR1	1	R1169P
4302.307	1.617	4312336	WORD	n/a	wordpools/wordpool_EN.txt	SKUNK	1	16	[0, 0, 0]	n/a	FR1	1	R1169P
4303.924	0.867	4313953	WORD_OFF	n/a	n/a	SKUNK	1	16	[0, 0, 0]	n/a	FR1	1	R1169P
4304.791	1.615	4314820	WORD	n/a	wordpools/wordpool_EN.txt	TOY	2	16	[0, 0, 0]	n/a	FR1	1	R1169P
4306.406	0.984	4316435	WORD_OFF	n/a	n/a	TOY	2	16	[0, 0, 0]	n/a	FR1	1	R1169P
4307.39	1.618	4317419	WORD	n/a	wordpools/wordpool_EN.txt	PIE	3	16	[0, 0, 0]	n/a	FR1	1	R1169P
4309.008	0.933	4319037	WORD_OFF	n/a	n/a	PIE	3	16	[0, 0, 0]	n/a	FR1	1	R1169P
4309.941	1.616	4319970	WORD	n/a	wordpools/wordpool_EN.txt	HAWK	4	16	[0, 0, 0]	n/a	FR1	1	R1169P
4311.557	0.785	4321585	WORD_OFF	n/a	n/a	HAWK	4	16	[0, 0, 0]	n/a	FR1	1	R1169P
4312.342	1.617	4322370	WORD	n/a	wordpools/wordpool_EN.txt	CROW	5	16	[0, 0, 0]	n/a	FR1	1	R1169P
4313.959	0.85	4323987	WORD_OFF	n/a	n/a	CROW	5	16	[0, 0, 0]	n/a	FR1	1	R1169P
4314.809	1.616	4324837	WORD	n/a	wordpools/wordpool_EN.txt	CALF	6	16	[0, 0, 0]	n/a	FR1	1	R1169P
4316.425	0.801	4326453	WORD_OFF	n/a	n/a	CALF	6	16	[0, 0, 0]	n/a	FR1	1	R1169P
4317.226	1.617	4327254	WORD	n/a	wordpools/wordpool_EN.txt	BRUSH	7	16	[0, 0, 0]	n/a	FR1	1	R1169P
4318.843	0.917	4328871	WORD_OFF	n/a	n/a	BRUSH	7	16	[0, 0, 0]	n/a	FR1	1	R1169P
4319.76	1.616	4329788	WORD	n/a	wordpools/wordpool_EN.txt	CORN	8	16	[0, 0, 0]	n/a	FR1	1	R1169P
4321.376	0.984	4331404	WORD_OFF	n/a	n/a	CORN	8	16	[0, 0, 0]	n/a	FR1	1	R1169P
4322.36	1.617	4332388	WORD	n/a	wordpools/wordpool_EN.txt	FARM	9	16	[0, 0, 0]	n/a	FR1	1	R1169P
4323.977	0.984	4334005	WORD_OFF	n/a	n/a	FARM	9	16	[0, 0, 0]	n/a	FR1	1	R1169P
4324.961	1.616	4334989	WORD	n/a	wordpools/wordpool_EN.txt	RICE	10	16	[0, 0, 0]	n/a	FR1	1	R1169P
4326.577	0.883	4336605	WORD_OFF	n/a	n/a	RICE	10	16	[0, 0, 0]	n/a	FR1	1	R1169P
4327.46	1.618	4337488	WORD	n/a	wordpools/wordpool_EN.txt	FOX	11	16	[0, 0, 0]	n/a	FR1	1	R1169P
4329.078	0.984	4339106	WORD_OFF	n/a	n/a	FOX	11	16	[0, 0, 0]	n/a	FR1	1	R1169P
4330.062	1.617	4340090	WORD	n/a	wordpools/wordpool_EN.txt	ROPE	12	16	[0, 0, 0]	n/a	FR1	1	R1169P
4331.679	0.0	4341706	WORD_OFF	n/a	n/a	ROPE	12	16	[0, 0, 0]	n/a	FR1	1	R1169P
4331.679	0.0	4341706	DISTRACT_START	n/a	n/a	n/a	-999	16	[0, 0, 0]	n/a	FR1	1	R1169P
4331.679	0.017	4341706	START	n/a	n/a	n/a	-999	16	[-999, -999, -999]	n/a	FR1	1	R1169P
4331.696	7.184	4341723	PROB	7.184	n/a	n/a	-999	16	[4, 8, 3]	15	FR1	1	R1169P
4338.88	10.419	4348907	PROB	10.419	n/a	n/a	-999	16	[5, 3, 8]	16	FR1	1	R1169P
4349.299	13.511	4359326	PROB	13.511	n/a	n/a	-999	16	[9, 8, 4]	21	FR1	1	R1169P
4362.81	0.008	4372836	STOP	n/a	n/a	n/a	-999	16	[-999, -999, -999]	n/a	FR1	1	R1169P
4362.818	0.549	4372844	DISTRACT_END	n/a	n/a	n/a	-999	16	[0, 0, 0]	n/a	FR1	1	R1169P
4363.367	0.518	4373393	RETRIEVAL_ORIENT	n/a	n/a	n/a	-999	16	[0, 0, 0]	n/a	FR1	1	R1169P
4363.885	2.178	4373911	REC_START	n/a	n/a	n/a	-999	16	[0, 0, 0]	n/a	FR1	1	R1169P
4366.063	11.756	4376089	REC_WORD	11.756	n/a	RICE	10	16	[0, 0, 0]	n/a	FR1	1	R1169P
4377.819	1.005	4387844	REC_WORD_VV	1.005	n/a	<>	-999	16	[0, 0, 0]	n/a	FR1	1	R1169P
4378.824	8.148	4388849	REC_WORD	8.148	n/a	RICE	10	16	[0, 0, 0]	n/a	FR1	1	R1169P
4386.972	6.924	4396997	REC_WORD	6.924	n/a	SKUNK	1	16	[0, 0, 0]	n/a	FR1	1	R1169P
4393.896	5.879	4403920	REC_END	n/a	n/a	n/a	-999	16	[0, 0, 0]	n/a	FR1	1	R1169P
4399.775	0.5	4409799	TRIAL	n/a	n/a	n/a	-999	17	[0, 0, 0]	n/a	FR1	1	R1169P
4400.275	10.428	4410299	COUNTDOWN_START	n/a	n/a	n/a	-999	17	[0, 0, 0]	n/a	FR1	1	R1169P
4410.703	0.007	4420726	COUNTDOWN_END	n/a	n/a	n/a	-999	17	[0, 0, 0]	n/a	FR1	1	R1169P
4410.71	1.617	4420733	ORIENT	n/a	n/a	n/a	-999	17	[0, 0, 0]	n/a	FR1	1	R1169P
4412.327	2.001	4422350	ORIENT_OFF	n/a	n/a	n/a	-999	17	[0, 0, 0]	n/a	FR1	1	R1169P
4414.328	1.617	4424351	WORD	n/a	wordpools/wordpool_EN.txt	CAPE	1	17	[0, 0, 0]	n/a	FR1	1	R1169P
4415.945	0.766	4425968	WORD_OFF	n/a	n/a	CAPE	1	17	[0, 0, 0]	n/a	FR1	1	R1169P
4416.711	1.617	4426734	WORD	n/a	wordpools/wordpool_EN.txt	FROG	2	17	[0, 0, 0]	n/a	FR1	1	R1169P
4418.328	0.817	4428351	WORD_OFF	n/a	n/a	FROG	2	17	[0, 0, 0]	n/a	FR1	1	R1169P
4419.145	1.617	4429168	WORD	n/a	wordpools/wordpool_EN.txt	STAR	3	17	[0, 0, 0]	n/a	FR1	1	R1169P
4420.762	0.783	4430785	WORD_OFF	n/a	n/a	STAR	3	17	[0, 0, 0]	n/a	FR1	1	R1169P
4421.545	1.618	4431568	WORD	n/a	wordpools/wordpool_EN.txt	BAND	4	17	[0, 0, 0]	n/a	FR1	1	R1169P
4423.163	0.867	4433186	WORD_OFF	n/a	n/a	BAND	4	17	[0, 0, 0]	n/a	FR1	1	R1169P
4424.03	1.617	4434053	WORD	n/a	wordpools/wordpool_EN.txt	WAVE	5	17	[0, 0, 0]	n/a	FR1	1	R1169P
4425.647	0.932	4435670	WORD_OFF	n/a	n/a	WAVE	5	17	[0, 0, 0]	n/a	FR1	1	R1169P
4426.579	1.618	4436602	WORD	n/a	wordpools/wordpool_EN.txt	SUN	6	17	[0, 0, 0]	n/a	FR1	1	R1169P
4428.197	0.9	4438220	WORD_OFF	n/a	n/a	SUN	6	17	[0, 0, 0]	n/a	FR1	1	R1169P
4429.097	1.617	4439120	WORD	n/a	wordpools/wordpool_EN.txt	PLANE	7	17	[0, 0, 0]	n/a	FR1	1	R1169P
4430.714	0.816	4440736	WORD_OFF	n/a	n/a	PLANE	7	17	[0, 0, 0]	n/a	FR1	1	R1169P
4431.53	1.601	4441552	WORD	n/a	wordpools/wordpool_EN.txt	BOARD	8	17	[0, 0, 0]	n/a	FR1	1	R1169P
4433.131	0.917	4443153	WORD_OFF	n/a	n/a	BOARD	8	17	[0, 0, 0]	n/a	FR1	1	R1169P
4434.048	1.617	4444070	WORD	n/a	wordpools/wordpool_EN.txt	POLE	9	17	[0, 0, 0]	n/a	FR1	1	R1169P
4435.665	0.933	4445687	WORD_OFF	n/a	n/a	POLE	9	17	[0, 0, 0]	n/a	FR1	1	R1169P
4436.598	1.618	4446620	WORD	n/a	wordpools/wordpool_EN.txt	SHIP	10	17	[0, 0, 0]	n/a	FR1	1	R1169P
4438.216	0.916	4448238	WORD_OFF	n/a	n/a	SHIP	10	17	[0, 0, 0]	n/a	FR1	1	R1169P
4439.132	1.617	4449154	WORD	n/a	wordpools/wordpool_EN.txt	SAIL	11	17	[0, 0, 0]	n/a	FR1	1	R1169P
4440.749	0.951	4450771	WORD_OFF	n/a	n/a	SAIL	11	17	[0, 0, 0]	n/a	FR1	1	R1169P
4441.7	1.617	4451722	WORD	n/a	wordpools/wordpool_EN.txt	FORT	12	17	[0, 0, 0]	n/a	FR1	1	R1169P
4443.317	0.0	4453339	WORD_OFF	n/a	n/a	FORT	12	17	[0, 0, 0]	n/a	FR1	1	R1169P
4443.317	0.0	4453339	DISTRACT_START	n/a	n/a	n/a	-999	17	[0, 0, 0]	n/a	FR1	1	R1169P
4443.317	0.016	4453339	START	n/a	n/a	n/a	-999	17	[-999, -999, -999]	n/a	FR1	1	R1169P
4443.333	4.918	4453355	PROB	4.918	n/a	n/a	-999	17	[4, 6, 1]	11	FR1	1	R1169P
4448.251	5.901	4458273	PROB	5.901	n/a	n/a	-999	17	[6, 3, 4]	13	FR1	1	R1169P
4454.152	5.283	4464173	PROB	5.283	n/a	n/a	-999	17	[3, 1, 5]	9	FR1	1	R1169P
4459.435	8.022	4469456	PROB	8.022	n/a	n/a	-999	17	[6, 9, 7]	22	FR1	1	R1169P
4467.457	0.013	4477478	STOP	n/a	n/a	n/a	-999	17	[-999, -999, -999]	n/a	FR1	1	R1169P
4467.47	0.618	4477491	DISTRACT_END	n/a	n/a	n/a	-999	17	[0, 0, 0]	n/a	FR1	1	R1169P
4468.088	0.516	4478109	RETRIEVAL_ORIENT	n/a	n/a	n/a	-999	17	[0, 0, 0]	n/a	FR1	1	R1169P
4468.604	2.624	4478625	REC_START	n/a	n/a	n/a	-999	17	[0, 0, 0]	n/a	FR1	1	R1169P
4471.228	1.0	4481248	REC_WORD_VV	1.0	n/a	<>	-999	17	[0, 0, 0]	n/a	FR1	1	R1169P
4472.228	12.663	4482248	REC_WORD_VV	12.663	n/a	<>	-999	17	[0, 0, 0]	n/a	FR1	1	R1169P
4484.891	3.102	4494911	REC_WORD	3.102	n/a	CAPE	1	17	[0, 0, 0]	n/a	FR1	1	R1169P
4487.993	1.0	4498013	REC_WORD_VV	1.0	n/a	<>	-999	17	[0, 0, 0]	n/a	FR1	1	R1169P
4488.993	0.221	4499013	REC_WORD_VV	0.221	n/a	<>	-999	17	[0, 0, 0]	n/a	FR1	1	R1169P
4489.214	9.401	4499234	REC_WORD	9.401	n/a	CAPE	1	17	[0, 0, 0]	n/a	FR1	1	R1169P
4498.615	5.496	4508634	REC_END	n/a	n/a	n/a	-999	17	[0, 0, 0]	n/a	FR1	1	R1169P
4504.111	0.5	4514130	TRIAL	n/a	n/a	n/a	-999	18	[0, 0, 0]	n/a	FR1	1	R1169P
4504.611	10.428	4514630	COUNTDOWN_START	n/a	n/a	n/a	-999	18	[0, 0, 0]	n/a	FR1	1	R1169P
4515.039	0.008	4525057	COUNTDOWN_END	n/a	n/a	n/a	-999	18	[0, 0, 0]	n/a	FR1	1	R1169P
4515.047	1.617	4525065	ORIENT	n/a	n/a	n/a	-999	18	[0, 0, 0]	n/a	FR1	1	R1169P
4516.664	2.15	4526682	ORIENT_OFF	n/a	n/a	n/a	-999	18	[0, 0, 0]	n/a	FR1	1	R1169P
4518.814	1.616	4528832	WORD	n/a	wordpools/wordpool_EN.txt	CROWN	1	18	[0, 0, 0]	n/a	FR1	1	R1169P
4520.43	0.868	4530448	WORD_OFF	n/a	n/a	CROWN	1	18	[0, 0, 0]	n/a	FR1	1	R1169P
4521.298	1.617	4531316	WORD	n/a	wordpools/wordpool_EN.txt	STONE	2	18	[0, 0, 0]	n/a	FR1	1	R1169P
4522.915	0.983	4532933	WORD_OFF	n/a	n/a	STONE	2	18	[0, 0, 0]	n/a	FR1	1	R1169P
4523.898	1.616	4533916	WORD	n/a	wordpools/wordpool_EN.txt	PIPE	3	18	[0, 0, 0]	n/a	FR1	1	R1169P
4525.514	0.785	4535532	WORD_OFF	n/a	n/a	PIPE	3	18	[0, 0, 0]	n/a	FR1	1	R1169P
4526.299	1.617	4536317	WORD	n/a	wordpools/wordpool_EN.txt	WAND	4	18	[0, 0, 0]	n/a	FR1	1	R1169P
4527.916	0.767	4537934	WORD_OFF	n/a	n/a	WAND	4	18	[0, 0, 0]	n/a	FR1	1	R1169P
4528.683	1.616	4538701	WORD	n/a	wordpools/wordpool_EN.txt	PEARL	5	18	[0, 0, 0]	n/a	FR1	1	R1169P
4530.299	0.767	4540316	WORD_OFF	n/a	n/a	PEARL	5	18	[0, 0, 0]	n/a	FR1	1	R1169P
4531.066	1.617	4541083	WORD	n/a	wordpools/wordpool_EN.txt	DOOR	6	18	[0, 0, 0]	n/a	FR1	1	R1169P
4532.683	0.95	4542700	WORD_OFF	n/a	n/a	DOOR	6	18	[0, 0, 0]	n/a	FR1	1	R1169P
4533.633	1.617	4543650	WORD	n/a	wordpools/wordpool_EN.txt	SWORD	7	18	[0, 0, 0]	n/a	FR1	1	R1169P
4535.25	0.884	4545267	WORD_OFF	n/a	n/a	SWORD	7	18	[0, 0, 0]	n/a	FR1	1	R1169P
4536.134	1.617	4546151	WORD	n/a	wordpools/wordpool_EN.txt	STAIR	8	18	[0, 0, 0]	n/a	FR1	1	R1169P
4537.751	0.933	4547768	WORD_OFF	n/a	n/a	STAIR	8	18	[0, 0, 0]	n/a	FR1	1	R1169P
4538.684	1.617	4548701	WORD	n/a	wordpools/wordpool_EN.txt	GOLD	9	18	[0, 0, 0]	n/a	FR1	1	R1169P
4540.301	0.767	4550318	WORD_OFF	n/a	n/a	GOLD	9	18	[0, 0, 0]	n/a	FR1	1	R1169P
4541.068	1.617	4551085	WORD	n/a	wordpools/wordpool_EN.txt	BEAN	10	18	[0, 0, 0]	n/a	FR1	1	R1169P
4542.685	0.833	4552702	WORD_OFF	n/a	n/a	BEAN	10	18	[0, 0, 0]	n/a	FR1	1	R1169P
4543.518	1.618	4553535	WORD	n/a	wordpools/wordpool_EN.txt	TOOL	11	18	[0, 0, 0]	n/a	FR1	1	R1169P
4545.136	0.95	4555153	WORD_OFF	n/a	n/a	TOOL	11	18	[0, 0, 0]	n/a	FR1	1	R1169P
4546.086	1.617	4556103	WORD	n/a	wordpools/wordpool_EN.txt	PRINCE	12	18	[0, 0, 0]	n/a	FR1	1	R1169P
4547.703	0.0	4557720	WORD_OFF	n/a	n/a	PRINCE	12	18	[0, 0, 0]	n/a	FR1	1	R1169P
4547.703	0.0	4557720	DISTRACT_START	n/a	n/a	n/a	-999	18	[0, 0, 0]	n/a	FR1	1	R1169P
4547.703	0.016	4557720	START	n/a	n/a	n/a	-999	18	[-999, -999, -999]	n/a	FR1	1	R1169P
4547.719	7.734	4557736	PROB	7.734	n/a	n/a	-999	18	[2, 7, 8]	17	FR1	1	R1169P
4555.453	9.686	4565469	PROB	9.686	n/a	n/a	-999	18	[5, 2, 9]	16	FR1	1	R1169P
4565.139	11.552	4575155	PROB	11.552	n/a	n/a	-999	18	[8, 9, 5]	23	FR1	1	R1169P
4576.691	0.017	4586706	STOP	n/a	n/a	n/a	-999	18	[-999, -999, -999]	n/a	FR1	1	R1169P
4576.708	0.666	4586723	DISTRACT_END	n/a	n/a	n/a	-999	18	[0, 0, 0]	n/a	FR1	1	R1169P
4577.374	0.518	4587389	RETRIEVAL_ORIENT	n/a	n/a	n/a	-999	18	[0, 0, 0]	n/a	FR1	1	R1169P
4577.892	0.947	4587907	REC_START	n/a	n/a	n/a	-999	18	[0, 0, 0]	n/a	FR1	1	R1169P
4578.839	0.885	4588854	REC_WORD	0.885	n/a	PRINCE	12	18	[0, 0, 0]	n/a	FR1	1	R1169P
4579.724	2.703	4589739	REC_WORD	2.703	n/a	CROWN	1	18	[0, 0, 0]	n/a	FR1	1	R1169P
4582.427	3.179	4592442	REC_WORD	3.179	n/a	SWORD	7	18	[0, 0, 0]	n/a	FR1	1	R1169P
4585.606	0.259	4595621	REC_WORD_VV	0.259	n/a	<>	-999	18	[0, 0, 0]	n/a	FR1	1	R1169P
4585.865	0.648	4595880	REC_WORD	0.648	n/a	CROWN	1	18	[0, 0, 0]	n/a	FR1	1	R1169P
4586.513	1.0	4596528	REC_WORD_VV	1.0	n/a	<>	-999	18	[0, 0, 0]	n/a	FR1	1	R1169P
4587.513	0.487	4597528	REC_WORD_VV	0.487	n/a	<>	-999	18	[0, 0, 0]	n/a	FR1	1	R1169P
4588.0	4.592	4598015	REC_WORD	4.592	n/a	GOLD	9	18	[0, 0, 0]	n/a	FR1	1	R1169P
4592.592	0.728	4602606	REC_WORD_VV	0.728	n/a	<>	-999	18	[0, 0, 0]	n/a	FR1	1	R1169P
4593.32	3.244	4603334	REC_WORD	3.244	n/a	SWORD	7	18	[0, 0, 0]	n/a	FR1	1	R1169P
4596.564	1.0	4606578	REC_WORD_VV	1.0	n/a	<>	-999	18	[0, 0, 0]	n/a	FR1	1	R1169P
4597.564	1.855	4607578	REC_WORD_VV	1.855	n/a	<>	-999	18	[0, 0, 0]	n/a	FR1	1	R1169P
4599.419	1.547	4609433	REC_WORD_VV	1.547	n/a	<>	-999	18	[0, 0, 0]	n/a	FR1	1	R1169P
4600.966	0.658	4610980	REC_WORD_VV	0.658	n/a	<>	-999	18	[0, 0, 0]	n/a	FR1	1	R1169P
4601.624	0.427	4611638	REC_WORD	0.427	n/a	CROWN	1	18	[0, 0, 0]	n/a	FR1	1	R1169P
4602.051	2.543	4612065	REC_WORD	2.543	n/a	SWORD	7	18	[0, 0, 0]	n/a	FR1	1	R1169P
4604.594	0.962	4614608	REC_WORD_VV	0.962	n/a	<>	-999	18	[0, 0, 0]	n/a	FR1	1	R1169P
4605.556	2.349	4615570	REC_WORD	2.349	n/a	OYSTER	-999	18	[0, 0, 0]	n/a	FR1	1	R1169P
4607.905	5.526	4617919	REC_END	n/a	n/a	n/a	-999	18	[0, 0, 0]	n/a	FR1	1	R1169P
4613.431	0.5	4623444	TRIAL	n/a	n/a	n/a	-999	19	[0, 0, 0]	n/a	FR1	1	R1169P
4613.931	10.428	4623944	COUNTDOWN_START	n/a	n/a	n/a	-999	19	[0, 0, 0]	n/a	FR1	1	R1169P
4624.359	0.007	4634372	COUNTDOWN_END	n/a	n/a	n/a	-999	19	[0, 0, 0]	n/a	FR1	1	R1169P
4624.366	1.618	4634379	ORIENT	n/a	n/a	n/a	-999	19	[0, 0, 0]	n/a	FR1	1	R1169P
4625.984	1.817	4635997	ORIENT_OFF	n/a	n/a	n/a	-999	19	[0, 0, 0]	n/a	FR1	1	R1169P
4627.801	1.616	4637814	WORD	n/a	wordpools/wordpool_EN.txt	LOCK	1	19	[0, 0, 0]	n/a	FR1	1	R1169P
4629.417	0.918	4639429	WORD_OFF	n/a	n/a	LOCK	1	19	[0, 0, 0]	n/a	FR1	1	R1169P
4630.335	1.617	4640347	WORD	n/a	wordpools/wordpool_EN.txt	BOAT	2	19	[0, 0, 0]	n/a	FR1	1	R1169P
4631.952	0.917	4641964	WORD_OFF	n/a	n/a	BOAT	2	19	[0, 0, 0]	n/a	FR1	1	R1169P
4632.869	1.616	4642881	WORD	n/a	wordpools/wordpool_EN.txt	OAR	3	19	[0, 0, 0]	n/a	FR1	1	R1169P
4634.485	0.784	4644497	WORD_OFF	n/a	n/a	OAR	3	19	[0, 0, 0]	n/a	FR1	1	R1169P
4635.269	1.617	4645281	WORD	n/a	wordpools/wordpool_EN.txt	RUG	4	19	[0, 0, 0]	n/a	FR1	1	R1169P
4636.886	0.783	4646898	WORD_OFF	n/a	n/a	RUG	4	19	[0, 0, 0]	n/a	FR1	1	R1169P
4637.669	1.618	4647681	WORD	n/a	wordpools/wordpool_EN.txt	HAT	5	19	[0, 0, 0]	n/a	FR1	1	R1169P
4639.287	0.95	4649299	WORD_OFF	n/a	n/a	HAT	5	19	[0, 0, 0]	n/a	FR1	1	R1169P
4640.237	1.617	4650249	WORD	n/a	wordpools/wordpool_EN.txt	GLOVE	6	19	[0, 0, 0]	n/a	FR1	1	R1169P
4641.854	0.917	4651866	WORD_OFF	n/a	n/a	GLOVE	6	19	[0, 0, 0]	n/a	FR1	1	R1169P
4642.771	1.616	4652783	WORD	n/a	wordpools/wordpool_EN.txt	CLAY	7	19	[0, 0, 0]	n/a	FR1	1	R1169P
4644.387	0.917	4654399	WORD_OFF	n/a	n/a	CLAY	7	19	[0, 0, 0]	n/a	FR1	1	R1169P
4645.304	1.617	4655316	WORD	n/a	wordpools/wordpool_EN.txt	FOAM	8	19	[0, 0, 0]	n/a	FR1	1	R1169P
4646.921	0.834	4656933	WORD_OFF	n/a	n/a	FOAM	8	19	[0, 0, 0]	n/a	FR1	1	R1169P
4647.755	1.616	4657767	WORD	n/a	wordpools/wordpool_EN.txt	STRING	9	19	[0, 0, 0]	n/a	FR1	1	R1169P
4649.371	1.0	4659382	WORD_OFF	n/a	n/a	STRING	9	19	[0, 0, 0]	n/a	FR1	1	R1169P
4650.371	1.618	4660382	WORD	n/a	wordpools/wordpool_EN.txt	SHOE	10	19	[0, 0, 0]	n/a	FR1	1	R1169P
4651.989	0.783	4662000	WORD_OFF	n/a	n/a	SHOE	10	19	[0, 0, 0]	n/a	FR1	1	R1169P
4652.772	1.617	4662783	WORD	n/a	wordpools/wordpool_EN.txt	CLOTH	11	19	[0, 0, 0]	n/a	FR1	1	R1169P
4654.389	0.983	4664400	WORD_OFF	n/a	n/a	CLOTH	11	19	[0, 0, 0]	n/a	FR1	1	R1169P
4655.372	1.618	4665383	WORD	n/a	wordpools/wordpool_EN.txt	SQUARE	12	19	[0, 0, 0]	n/a	FR1	1	R1169P
4656.99	0.0	4667001	DISTRACT_START	n/a	n/a	n/a	-999	19	[0, 0, 0]	n/a	FR1	1	R1169P
4656.99	0.001	4667001	WORD_OFF	n/a	n/a	SQUARE	12	19	[0, 0, 0]	n/a	FR1	1	R1169P
4656.991	0.016	4667002	START	n/a	n/a	n/a	-999	19	[-999, -999, -999]	n/a	FR1	1	R1169P
4657.007	3.65	4667018	PROB	3.65	n/a	n/a	-999	19	[5, 5, 1]	11	FR1	1	R1169P
4660.657	8.669	4670668	PROB	8.669	n/a	n/a	-999	19	[5, 8, 8]	21	FR1	1	R1169P
4669.326	17.915	4679336	PROB	17.915	n/a	n/a	-999	19	[5, 7, 8]	20	FR1	1	R1169P
4687.241	0.021	4697251	STOP	n/a	n/a	n/a	-999	19	[-999, -999, -999]	n/a	FR1	1	R1169P
4687.262	0.617	4697272	DISTRACT_END	n/a	n/a	n/a	-999	19	[0, 0, 0]	n/a	FR1	1	R1169P
4687.879	0.517	4697889	RETRIEVAL_ORIENT	n/a	n/a	n/a	-999	19	[0, 0, 0]	n/a	FR1	1	R1169P
4688.396	1.563	4698406	REC_START	n/a	n/a	n/a	-999	19	[0, 0, 0]	n/a	FR1	1	R1169P
4689.959	1.0	4699968	REC_WORD	1.0	n/a	SQUARE	12	19	[0, 0, 0]	n/a	FR1	1	R1169P
4690.959	7.757	4700968	REC_WORD_VV	7.757	n/a	<>	-999	19	[0, 0, 0]	n/a	FR1	1	R1169P
4698.716	0.43	4708725	REC_WORD_VV	0.43	n/a	<>	-999	19	[0, 0, 0]	n/a	FR1	1	R1169P
4699.146	3.442	4709155	REC_WORD	3.442	n/a	RUG	4	19	[0, 0, 0]	n/a	FR1	1	R1169P
4702.588	1.0	4712597	REC_WORD_VV	1.0	n/a	<>	-999	19	[0, 0, 0]	n/a	FR1	1	R1169P
4703.588	0.952	4713597	REC_WORD_VV	0.952	n/a	<>	-999	19	[0, 0, 0]	n/a	FR1	1	R1169P
4704.54	1.714	4714549	REC_WORD	1.714	n/a	SQUARE	12	19	[0, 0, 0]	n/a	FR1	1	R1169P
4706.254	4.055	4716263	REC_WORD	4.055	n/a	RUG	4	19	[0, 0, 0]	n/a	FR1	1	R1169P
4710.309	1.0	4720317	REC_WORD_VV	1.0	n/a	<>	-999	19	[0, 0, 0]	n/a	FR1	1	R1169P
4711.309	2.784	4721317	REC_WORD_VV	2.784	n/a	<>	-999	19	[0, 0, 0]	n/a	FR1	1	R1169P
4714.093	1.0	4724101	REC_WORD_VV	1.0	n/a	<>	-999	19	[0, 0, 0]	n/a	FR1	1	R1169P
4715.093	3.313	4725101	REC_WORD_VV	3.313	n/a	<>	-999	19	[0, 0, 0]	n/a	FR1	1	R1169P
4718.406	7.847	4728414	REC_END	n/a	n/a	n/a	-999	19	[0, 0, 0]	n/a	FR1	1	R1169P
4726.253	0.5	4736261	TRIAL	n/a	n/a	n/a	-999	20	[0, 0, 0]	n/a	FR1	1	R1169P
4726.753	10.428	4736761	COUNTDOWN_START	n/a	n/a	n/a	-999	20	[0, 0, 0]	n/a	FR1	1	R1169P
4737.181	0.007	4747188	COUNTDOWN_END	n/a	n/a	n/a	-999	20	[0, 0, 0]	n/a	FR1	1	R1169P
4737.188	1.617	4747195	ORIENT	n/a	n/a	n/a	-999	20	[0, 0, 0]	n/a	FR1	1	R1169P
4738.805	2.317	4748812	ORIENT_OFF	n/a	n/a	n/a	-999	20	[0, 0, 0]	n/a	FR1	1	R1169P
4741.122	1.617	4751129	WORD	n/a	wordpools/wordpool_EN.txt	BEAR	1	20	[0, 0, 0]	n/a	FR1	1	R1169P
4742.739	0.866	4752746	WORD_OFF	n/a	n/a	BEAR	1	20	[0, 0, 0]	n/a	FR1	1	R1169P
4743.605	1.618	4753612	WORD	n/a	wordpools/wordpool_EN.txt	MILK	2	20	[0, 0, 0]	n/a	FR1	1	R1169P
4745.223	0.984	4755230	WORD_OFF	n/a	n/a	MILK	2	20	[0, 0, 0]	n/a	FR1	1	R1169P
4746.207	1.617	4756214	WORD	n/a	wordpools/wordpool_EN.txt	DOLL	3	20	[0, 0, 0]	n/a	FR1	1	R1169P
4747.824	0.782	4757831	WORD_OFF	n/a	n/a	DOLL	3	20	[0, 0, 0]	n/a	FR1	1	R1169P
4748.606	1.618	4758612	WORD	n/a	wordpools/wordpool_EN.txt	WORM	4	20	[0, 0, 0]	n/a	FR1	1	R1169P
4750.224	0.967	4760230	WORD_OFF	n/a	n/a	WORM	4	20	[0, 0, 0]	n/a	FR1	1	R1169P
4751.191	1.617	4761197	WORD	n/a	wordpools/wordpool_EN.txt	DRUM	5	20	[0, 0, 0]	n/a	FR1	1	R1169P
4752.808	0.799	4762814	WORD_OFF	n/a	n/a	DRUM	5	20	[0, 0, 0]	n/a	FR1	1	R1169P
4753.607	1.601	4763613	WORD	n/a	wordpools/wordpool_EN.txt	AXE	6	20	[0, 0, 0]	n/a	FR1	1	R1169P
4755.208	0.934	4765214	WORD_OFF	n/a	n/a	AXE	6	20	[0, 0, 0]	n/a	FR1	1	R1169P
4756.142	1.617	4766148	WORD	n/a	wordpools/wordpool_EN.txt	FENCE	7	20	[0, 0, 0]	n/a	FR1	1	R1169P
4757.759	0.9	4767765	WORD_OFF	n/a	n/a	FENCE	7	20	[0, 0, 0]	n/a	FR1	1	R1169P
4758.659	1.617	4768665	WORD	n/a	wordpools/wordpool_EN.txt	BLUSH	8	20	[0, 0, 0]	n/a	FR1	1	R1169P
4760.276	0.967	4770282	WORD_OFF	n/a	n/a	BLUSH	8	20	[0, 0, 0]	n/a	FR1	1	R1169P
4761.243	1.617	4771249	WORD	n/a	wordpools/wordpool_EN.txt	FORK	9	20	[0, 0, 0]	n/a	FR1	1	R1169P
4762.86	0.817	4772866	WORD_OFF	n/a	n/a	FORK	9	20	[0, 0, 0]	n/a	FR1	1	R1169P
4763.677	1.617	4773683	WORD	n/a	wordpools/wordpool_EN.txt	FLAME	10	20	[0, 0, 0]	n/a	FR1	1	R1169P
4765.294	0.8	4775300	WORD_OFF	n/a	n/a	FLAME	10	20	[0, 0, 0]	n/a	FR1	1	R1169P
4766.094	1.617	4776100	WORD	n/a	wordpools/wordpool_EN.txt	HOLE	11	20	[0, 0, 0]	n/a	FR1	1	R1169P
4767.711	0.849	4777717	WORD_OFF	n/a	n/a	HOLE	11	20	[0, 0, 0]	n/a	FR1	1	R1169P
4768.56	1.601	4778565	WORD	n/a	wordpools/wordpool_EN.txt	SPOON	12	20	[0, 0, 0]	n/a	FR1	1	R1169P
4770.161	0.0	4780166	WORD_OFF	n/a	n/a	SPOON	12	20	[0, 0, 0]	n/a	FR1	1	R1169P
4770.161	0.001	4780166	DISTRACT_START	n/a	n/a	n/a	-999	20	[0, 0, 0]	n/a	FR1	1	R1169P
4770.162	0.016	4780167	START	n/a	n/a	n/a	-999	20	[-999, -999, -999]	n/a	FR1	1	R1169P
4770.178	11.702	4780183	PROB	11.702	n/a	n/a	-999	20	[2, 9, 6]	17	FR1	1	R1169P
4781.88	13.634	4791885	PROB	13.634	n/a	n/a	-999	20	[5, 2, 6]	13	FR1	1	R1169P
4795.514	0.018	4805518	STOP	n/a	n/a	n/a	-999	20	[-999, -999, -999]	n/a	FR1	1	R1169P
4795.532	0.584	4805536	DISTRACT_END	n/a	n/a	n/a	-999	20	[0, 0, 0]	n/a	FR1	1	R1169P
4796.116	0.518	4806120	RETRIEVAL_ORIENT	n/a	n/a	n/a	-999	20	[0, 0, 0]	n/a	FR1	1	R1169P
4796.634	1.333	4806638	REC_START	n/a	n/a	n/a	-999	20	[0, 0, 0]	n/a	FR1	1	R1169P
4797.967	10.04	4807971	REC_WORD	10.04	n/a	DOLL	3	20	[0, 0, 0]	n/a	FR1	1	R1169P
4808.007	0.727	4818010	REC_WORD_VV	0.727	n/a	<>	-999	20	[0, 0, 0]	n/a	FR1	1	R1169P
4808.734	12.089	4818737	REC_WORD	12.089	n/a	DOLL	3	20	[0, 0, 0]	n/a	FR1	1	R1169P
4820.823	1.0	4830826	REC_WORD_VV	1.0	n/a	<>	-999	20	[0, 0, 0]	n/a	FR1	1	R1169P
4821.823	1.0	4831826	REC_WORD_VV	1.0	n/a	<>	-999	20	[0, 0, 0]	n/a	FR1	1	R1169P
4822.823	1.0	4832826	REC_WORD_VV	1.0	n/a	<>	-999	20	[0, 0, 0]	n/a	FR1	1	R1169P
4823.823	0.714	4833826	REC_WORD_VV	0.714	n/a	<>	-999	20	[0, 0, 0]	n/a	FR1	1	R1169P
4824.537	2.107	4834540	REC_WORD	2.107	n/a	DOLL	3	20	[0, 0, 0]	n/a	FR1	1	R1169P
4826.644	31.334	4836647	REC_END	n/a	n/a	n/a	-999	20	[0, 0, 0]	n/a	FR1	1	R1169P
4857.978	0.0	4867979	TRIAL	n/a	n/a	n/a	-999	21	[0, 0, 0]	n/a	FR1	1	R1169P
