onset	duration	sample	trial_type	response_time	stim_file	item_name	serialpos	list	test	answer	experiment	session	subject
0.0	0.95	15073	INSTRUCT_START	n/a	n/a	n/a	-999	-999	[0, 0, 0]	n/a	FR1	0	R1405E
0.95	33.581	16020	INSTRUCT_END	n/a	n/a	n/a	-999	-999	[0, 0, 0]	n/a	FR1	0	R1405E
34.531	10.4	49600	COUNTDOWN_START	n/a	n/a	n/a	-999	-999	[0, 0, 0]	n/a	FR1	0	R1405E
44.931	0.0	59998	COUNTDOWN_END	n/a	n/a	n/a	-999	-999	[0, 0, 0]	n/a	FR1	0	R1405E
44.931	1.95	60010	ENCODING_START	n/a	n/a	n/a	-999	-1	[0, 0, 0]	n/a	FR1	0	R1405E
46.881	1.615	61948	WORD	n/a	n/a	CLOTH	1	-1	[0, 0, 0]	n/a	FR1	0	R1405E
48.496	0.917	63567	WORD_OFF	n/a	n/a	CLOTH	1	-1	[0, 0, 0]	n/a	FR1	0	R1405E
49.413	1.616	64491	WORD	n/a	n/a	HOSE	2	-1	[0, 0, 0]	n/a	FR1	0	R1405E
51.029	0.851	66099	WORD_OFF	n/a	n/a	HOSE	2	-1	[0, 0, 0]	n/a	FR1	0	R1405E
51.88	1.617	66954	WORD	n/a	n/a	PIT	3	-1	[0, 0, 0]	n/a	FR1	0	R1405E
53.497	0.866	68573	WORD_OFF	n/a	n/a	PIT	3	-1	[0, 0, 0]	n/a	FR1	0	R1405E
54.363	1.6	69439	WORD	n/a	n/a	SWAMP	4	-1	[0, 0, 0]	n/a	FR1	0	R1405E
55.963	0.967	71036	WORD_OFF	n/a	n/a	SWAMP	4	-1	[0, 0, 0]	n/a	FR1	0	R1405E
56.93	1.616	72005	WORD	n/a	n/a	BAND	5	-1	[0, 0, 0]	n/a	FR1	0	R1405E
58.546	0.834	73624	WORD_OFF	n/a	n/a	BAND	5	-1	[0, 0, 0]	n/a	FR1	0	R1405E
59.38	1.616	74456	WORD	n/a	n/a	YACHT	6	-1	[0, 0, 0]	n/a	FR1	0	R1405E
60.996	0.917	76064	WORD_OFF	n/a	n/a	YACHT	6	-1	[0, 0, 0]	n/a	FR1	0	R1405E
61.913	1.6	76988	WORD	n/a	n/a	KEY	7	-1	[0, 0, 0]	n/a	FR1	0	R1405E
63.513	0.765	78584	WORD_OFF	n/a	n/a	KEY	7	-1	[0, 0, 0]	n/a	FR1	0	R1405E
64.278	1.601	79348	WORD	n/a	n/a	SCARF	8	-1	[0, 0, 0]	n/a	FR1	0	R1405E
65.879	0.983	80956	WORD_OFF	n/a	n/a	SCARF	8	-1	[0, 0, 0]	n/a	FR1	0	R1405E
66.862	1.601	81936	WORD	n/a	n/a	BOOK	9	-1	[0, 0, 0]	n/a	FR1	0	R1405E
68.463	0.766	83533	WORD_OFF	n/a	n/a	BOOK	9	-1	[0, 0, 0]	n/a	FR1	0	R1405E
69.229	1.6	84297	WORD	n/a	n/a	PLANT	10	-1	[0, 0, 0]	n/a	FR1	0	R1405E
70.829	0.866	85904	WORD_OFF	n/a	n/a	PLANT	10	-1	[0, 0, 0]	n/a	FR1	0	R1405E
71.695	1.618	86771	WORD	n/a	n/a	RAKE	11	-1	[0, 0, 0]	n/a	FR1	0	R1405E
73.313	0.935	88390	WORD_OFF	n/a	n/a	RAKE	11	-1	[0, 0, 0]	n/a	FR1	0	R1405E
74.248	1.614	89325	WORD	n/a	n/a	SUIT	12	-1	[0, 0, 0]	n/a	FR1	0	R1405E
75.862	0.002	90933	WORD_OFF	n/a	n/a	SUIT	12	-1	[0, 0, 0]	n/a	FR1	0	R1405E
75.864	0.0	90933	ENCODING_END	n/a	n/a	n/a	-999	-1	[0, 0, 0]	n/a	FR1	0	R1405E
75.864	0.002	90936	START	n/a	n/a	n/a	-999	-1	[-999, -999, -999]	n/a	FR1	0	R1405E
75.866	0.0	90938	PROB	0.0	n/a	n/a	-999	-1	[7, 6, 3]	16	FR1	0	R1405E
75.864	8.398	90944	DISTRACT_START	n/a	n/a	n/a	-999	-1	[0, 0, 0]	n/a	FR1	0	R1405E
84.262	4.017	99334	PROB	4.017	n/a	n/a	-999	-1	[6, 1, 4]	11	FR1	0	R1405E
88.279	3.6	103351	PROB	3.6	n/a	n/a	-999	-1	[8, 2, 6]	16	FR1	0	R1405E
91.879	5.416	106951	PROB	5.416	n/a	n/a	-999	-1	[7, 8, 4]	19	FR1	0	R1405E
97.295	0.0	112367	STOP	n/a	n/a	n/a	-999	-1	[-999, -999, -999]	n/a	FR1	0	R1405E
97.295	2.099	112369	DISTRACT_END	n/a	n/a	n/a	-999	-1	[0, 0, 0]	n/a	FR1	0	R1405E
99.394	1.247	114464	REC_START	n/a	n/a	n/a	-999	-1	[0, 0, 0]	n/a	FR1	0	R1405E
100.641	1.846	115713	REC_WORD	1.846	n/a	CLOTH	1	-1	[0, 0, 0]	n/a	FR1	0	R1405E
102.487	1.903	117559	REC_WORD	1.903	n/a	SAND	-999	-1	[0, 0, 0]	n/a	FR1	0	R1405E
104.39	1.023	119462	REC_WORD	1.023	n/a	RAKE	11	-1	[0, 0, 0]	n/a	FR1	0	R1405E
105.413	2.909	120485	REC_WORD	2.909	n/a	WORLD	-999	-1	[0, 0, 0]	n/a	FR1	0	R1405E
108.322	21.332	123394	REC_WORD	21.332	n/a	SWAMP	4	-1	[0, 0, 0]	n/a	FR1	0	R1405E
129.654	13.738	144729	REC_END	n/a	n/a	n/a	-999	-1	[0, 0, 0]	n/a	FR1	0	R1405E
143.392	10.351	158469	COUNTDOWN_START	n/a	n/a	n/a	-999	1	[0, 0, 0]	n/a	FR1	0	R1405E
153.743	0.0	168810	COUNTDOWN_END	n/a	n/a	n/a	-999	1	[0, 0, 0]	n/a	FR1	0	R1405E
153.743	2.049	168822	ENCODING_START	n/a	n/a	n/a	-999	1	[0, 0, 0]	n/a	FR1	0	R1405E
155.792	1.617	170863	WORD	n/a	wordpools/wordpool_long_EN.txt	ROD	1	1	[0, 0, 0]	n/a	FR1	0	R1405E
157.409	0.982	172482	WORD_OFF	n/a	n/a	ROD	1	1	[0, 0, 0]	n/a	FR1	0	R1405E
158.391	1.601	173463	WORD	n/a	wordpools/wordpool_long_EN.txt	SINK	2	1	[0, 0, 0]	n/a	FR1	0	R1405E
159.992	0.884	175070	WORD_OFF	n/a	n/a	SINK	2	1	[0, 0, 0]	n/a	FR1	0	R1405E
160.876	1.616	175948	WORD	n/a	wordpools/wordpool_long_EN.txt	SHOE	3	1	[0, 0, 0]	n/a	FR1	0	R1405E
162.492	0.866	177567	WORD_OFF	n/a	n/a	SHOE	3	1	[0, 0, 0]	n/a	FR1	0	R1405E
163.358	1.601	178434	WORD	n/a	wordpools/wordpool_long_EN.txt	HOOD	4	1	[0, 0, 0]	n/a	FR1	0	R1405E
164.959	0.932	180030	WORD_OFF	n/a	n/a	HOOD	4	1	[0, 0, 0]	n/a	FR1	0	R1405E
165.891	1.601	180965	WORD	n/a	wordpools/wordpool_long_EN.txt	QUAIL	5	1	[0, 0, 0]	n/a	FR1	0	R1405E
167.492	0.817	182562	WORD_OFF	n/a	n/a	QUAIL	5	1	[0, 0, 0]	n/a	FR1	0	R1405E
168.309	1.616	183383	WORD	n/a	wordpools/wordpool_long_EN.txt	TANK	6	1	[0, 0, 0]	n/a	FR1	0	R1405E
169.925	0.783	185002	WORD_OFF	n/a	n/a	TANK	6	1	[0, 0, 0]	n/a	FR1	0	R1405E
170.708	1.617	185777	WORD	n/a	wordpools/wordpool_long_EN.txt	FROG	7	1	[0, 0, 0]	n/a	FR1	0	R1405E
172.325	0.867	187396	WORD_OFF	n/a	n/a	FROG	7	1	[0, 0, 0]	n/a	FR1	0	R1405E
173.192	1.6	188263	WORD	n/a	wordpools/wordpool_long_EN.txt	INK	8	1	[0, 0, 0]	n/a	FR1	0	R1405E
174.792	0.916	189870	WORD_OFF	n/a	n/a	INK	8	1	[0, 0, 0]	n/a	FR1	0	R1405E
175.708	1.6	190783	WORD	n/a	wordpools/wordpool_long_EN.txt	TOOTH	9	1	[0, 0, 0]	n/a	FR1	0	R1405E
177.308	0.816	192379	WORD_OFF	n/a	n/a	TOOTH	9	1	[0, 0, 0]	n/a	FR1	0	R1405E
178.124	1.601	193200	WORD	n/a	wordpools/wordpool_long_EN.txt	GIFT	10	1	[0, 0, 0]	n/a	FR1	0	R1405E
179.725	1.0	194796	WORD_OFF	n/a	n/a	GIFT	10	1	[0, 0, 0]	n/a	FR1	0	R1405E
180.725	1.616	195800	WORD	n/a	wordpools/wordpool_long_EN.txt	GLOBE	11	1	[0, 0, 0]	n/a	FR1	0	R1405E
182.341	0.884	197419	WORD_OFF	n/a	n/a	GLOBE	11	1	[0, 0, 0]	n/a	FR1	0	R1405E
183.225	1.617	198297	WORD	n/a	wordpools/wordpool_long_EN.txt	SNACK	12	1	[0, 0, 0]	n/a	FR1	0	R1405E
184.842	0.0	199915	PROB	0.0	n/a	n/a	-999	1	[4, 5, 5]	14	FR1	0	R1405E
184.841	0.002	199916	WORD_OFF	n/a	n/a	SNACK	12	1	[0, 0, 0]	n/a	FR1	0	R1405E
184.843	0.0	199916	ENCODING_END	n/a	n/a	n/a	-999	1	[0, 0, 0]	n/a	FR1	0	R1405E
184.843	0.0	199916	DISTRACT_START	n/a	n/a	n/a	-999	1	[0, 0, 0]	n/a	FR1	0	R1405E
184.843	3.965	199916	START	n/a	n/a	n/a	-999	1	[-999, -999, -999]	n/a	FR1	0	R1405E
188.808	5.6	203881	PROB	5.6	n/a	n/a	-999	1	[7, 2, 6]	14	FR1	0	R1405E
194.408	2.683	209481	PROB	2.683	n/a	n/a	-999	1	[7, 2, 1]	9	FR1	0	R1405E
197.091	4.933	212164	PROB	4.933	n/a	n/a	-999	1	[7, 5, 5]	17	FR1	0	R1405E
202.024	6.216	217097	PROB	6.216	n/a	n/a	-999	1	[8, 6, 5]	19	FR1	0	R1405E
208.24	0.0	223313	DISTRACT_END	n/a	n/a	n/a	-999	1	[0, 0, 0]	n/a	FR1	0	R1405E
208.24	2.117	223313	STOP	n/a	n/a	n/a	-999	1	[-999, -999, -999]	n/a	FR1	0	R1405E
210.357	1.527	225431	REC_START	n/a	n/a	n/a	-999	1	[0, 0, 0]	n/a	FR1	0	R1405E
211.884	3.827	226957	REC_WORD	3.827	n/a	ROD	1	1	[0, 0, 0]	n/a	FR1	0	R1405E
215.711	8.067	230784	REC_WORD	8.067	n/a	GLOBE	11	1	[0, 0, 0]	n/a	FR1	0	R1405E
223.778	16.843	238851	REC_WORD	16.843	n/a	SHOE	3	1	[0, 0, 0]	n/a	FR1	0	R1405E
240.621	3.851	255696	REC_END	n/a	n/a	n/a	-999	1	[0, 0, 0]	n/a	FR1	0	R1405E
244.472	10.349	259550	COUNTDOWN_START	n/a	n/a	n/a	-999	2	[0, 0, 0]	n/a	FR1	0	R1405E
254.821	0.0	269892	COUNTDOWN_END	n/a	n/a	n/a	-999	2	[0, 0, 0]	n/a	FR1	0	R1405E
254.821	1.95	269892	ENCODING_START	n/a	n/a	n/a	-999	2	[0, 0, 0]	n/a	FR1	0	R1405E
256.771	1.6	271842	WORD	n/a	wordpools/wordpool_long_EN.txt	FRUIT	1	2	[0, 0, 0]	n/a	FR1	0	R1405E
258.371	0.767	273449	WORD_OFF	n/a	n/a	FRUIT	1	2	[0, 0, 0]	n/a	FR1	0	R1405E
259.138	1.617	274213	WORD	n/a	wordpools/wordpool_long_EN.txt	DEER	2	2	[0, 0, 0]	n/a	FR1	0	R1405E
260.755	0.866	275832	WORD_OFF	n/a	n/a	DEER	2	2	[0, 0, 0]	n/a	FR1	0	R1405E
261.621	1.616	276699	WORD	n/a	wordpools/wordpool_long_EN.txt	DOG	3	2	[0, 0, 0]	n/a	FR1	0	R1405E
263.237	0.934	278307	WORD_OFF	n/a	n/a	DOG	3	2	[0, 0, 0]	n/a	FR1	0	R1405E
264.171	1.616	279242	WORD	n/a	wordpools/wordpool_long_EN.txt	CAPE	4	2	[0, 0, 0]	n/a	FR1	0	R1405E
265.787	0.784	280861	WORD_OFF	n/a	n/a	CAPE	4	2	[0, 0, 0]	n/a	FR1	0	R1405E
266.571	1.617	281648	WORD	n/a	wordpools/wordpool_long_EN.txt	THREAD	5	2	[0, 0, 0]	n/a	FR1	0	R1405E
268.188	0.9	283267	WORD_OFF	n/a	n/a	THREAD	5	2	[0, 0, 0]	n/a	FR1	0	R1405E
269.088	1.616	284167	WORD	n/a	wordpools/wordpool_long_EN.txt	RICE	6	2	[0, 0, 0]	n/a	FR1	0	R1405E
270.704	0.8	285775	WORD_OFF	n/a	n/a	RICE	6	2	[0, 0, 0]	n/a	FR1	0	R1405E
271.504	1.617	286573	WORD	n/a	wordpools/wordpool_long_EN.txt	NAIL	7	2	[0, 0, 0]	n/a	FR1	0	R1405E
273.121	0.95	288192	WORD_OFF	n/a	n/a	NAIL	7	2	[0, 0, 0]	n/a	FR1	0	R1405E
274.071	1.616	289139	WORD	n/a	wordpools/wordpool_long_EN.txt	VINE	8	2	[0, 0, 0]	n/a	FR1	0	R1405E
275.687	0.934	290758	WORD_OFF	n/a	n/a	VINE	8	2	[0, 0, 0]	n/a	FR1	0	R1405E
276.621	1.616	291693	WORD	n/a	wordpools/wordpool_long_EN.txt	CART	9	2	[0, 0, 0]	n/a	FR1	0	R1405E
278.237	0.834	293312	WORD_OFF	n/a	n/a	CART	9	2	[0, 0, 0]	n/a	FR1	0	R1405E
279.071	1.616	294144	WORD	n/a	wordpools/wordpool_long_EN.txt	NEST	10	2	[0, 0, 0]	n/a	FR1	0	R1405E
280.687	0.766	295764	WORD_OFF	n/a	n/a	NEST	10	2	[0, 0, 0]	n/a	FR1	0	R1405E
281.453	1.601	296528	WORD	n/a	wordpools/wordpool_long_EN.txt	DITCH	11	2	[0, 0, 0]	n/a	FR1	0	R1405E
283.054	0.85	298124	WORD_OFF	n/a	n/a	DITCH	11	2	[0, 0, 0]	n/a	FR1	0	R1405E
283.904	1.616	298979	WORD	n/a	wordpools/wordpool_long_EN.txt	DUST	12	2	[0, 0, 0]	n/a	FR1	0	R1405E
285.52	0.001	300593	PROB	0.001	n/a	n/a	-999	2	[1, 8, 2]	11	FR1	0	R1405E
285.521	0.0	300594	START	n/a	n/a	n/a	-999	2	[-999, -999, -999]	n/a	FR1	0	R1405E
285.52	0.001	300598	WORD_OFF	n/a	n/a	DUST	12	2	[0, 0, 0]	n/a	FR1	0	R1405E
285.521	0.0	300598	ENCODING_END	n/a	n/a	n/a	-999	2	[0, 0, 0]	n/a	FR1	0	R1405E
285.521	3.182	300598	DISTRACT_START	n/a	n/a	n/a	-999	2	[0, 0, 0]	n/a	FR1	0	R1405E
288.703	16.184	303777	PROB	16.184	n/a	n/a	-999	2	[8, 1, 3]	12	FR1	0	R1405E
304.887	6.798	319961	PROB	6.798	n/a	n/a	-999	2	[8, 5, 2]	15	FR1	0	R1405E
311.685	0.0	326755	DISTRACT_END	n/a	n/a	n/a	-999	2	[0, 0, 0]	n/a	FR1	0	R1405E
311.685	2.1	326759	STOP	n/a	n/a	n/a	-999	2	[-999, -999, -999]	n/a	FR1	0	R1405E
313.785	1.134	328861	REC_START	n/a	n/a	n/a	-999	2	[0, 0, 0]	n/a	FR1	0	R1405E
314.919	19.312	329993	REC_WORD	19.312	n/a	NAIL	7	2	[0, 0, 0]	n/a	FR1	0	R1405E
334.231	6.215	349305	REC_WORD	6.215	n/a	SHOE	-999	2	[0, 0, 0]	n/a	FR1	0	R1405E
340.446	3.578	355520	REC_WORD	3.578	n/a	NEST	10	2	[0, 0, 0]	n/a	FR1	0	R1405E
344.024	3.393	359103	REC_END	n/a	n/a	n/a	-999	2	[0, 0, 0]	n/a	FR1	0	R1405E
347.417	10.351	362490	COUNTDOWN_START	n/a	n/a	n/a	-999	3	[0, 0, 0]	n/a	FR1	0	R1405E
357.768	0.0	372843	COUNTDOWN_END	n/a	n/a	n/a	-999	3	[0, 0, 0]	n/a	FR1	0	R1405E
357.768	2.182	372843	ENCODING_START	n/a	n/a	n/a	-999	3	[0, 0, 0]	n/a	FR1	0	R1405E
359.95	1.601	375021	WORD	n/a	wordpools/wordpool_long_EN.txt	RUG	1	3	[0, 0, 0]	n/a	FR1	0	R1405E
361.551	0.766	376629	WORD_OFF	n/a	n/a	RUG	1	3	[0, 0, 0]	n/a	FR1	0	R1405E
362.317	1.617	377393	WORD	n/a	wordpools/wordpool_long_EN.txt	CAGE	2	3	[0, 0, 0]	n/a	FR1	0	R1405E
363.934	0.883	379012	WORD_OFF	n/a	n/a	CAGE	2	3	[0, 0, 0]	n/a	FR1	0	R1405E
364.817	1.617	379890	WORD	n/a	wordpools/wordpool_long_EN.txt	TREE	3	3	[0, 0, 0]	n/a	FR1	0	R1405E
366.434	0.999	381509	WORD_OFF	n/a	n/a	TREE	3	3	[0, 0, 0]	n/a	FR1	0	R1405E
367.433	1.601	382512	WORD	n/a	wordpools/wordpool_long_EN.txt	RAFT	4	3	[0, 0, 0]	n/a	FR1	0	R1405E
369.034	0.949	384108	WORD_OFF	n/a	n/a	RAFT	4	3	[0, 0, 0]	n/a	FR1	0	R1405E
369.983	1.617	385055	WORD	n/a	wordpools/wordpool_long_EN.txt	CLOWN	5	3	[0, 0, 0]	n/a	FR1	0	R1405E
371.6	0.8	386674	WORD_OFF	n/a	n/a	CLOWN	5	3	[0, 0, 0]	n/a	FR1	0	R1405E
372.4	1.617	387472	WORD	n/a	wordpools/wordpool_long_EN.txt	ICE	6	3	[0, 0, 0]	n/a	FR1	0	R1405E
374.017	0.9	389091	WORD_OFF	n/a	n/a	ICE	6	3	[0, 0, 0]	n/a	FR1	0	R1405E
374.917	1.6	389992	WORD	n/a	wordpools/wordpool_long_EN.txt	ARK	7	3	[0, 0, 0]	n/a	FR1	0	R1405E
376.517	0.916	391588	WORD_OFF	n/a	n/a	ARK	7	3	[0, 0, 0]	n/a	FR1	0	R1405E
377.433	1.617	392512	WORD	n/a	wordpools/wordpool_long_EN.txt	TOWN	8	3	[0, 0, 0]	n/a	FR1	0	R1405E
379.05	0.866	394120	WORD_OFF	n/a	n/a	TOWN	8	3	[0, 0, 0]	n/a	FR1	0	R1405E
379.916	1.601	394986	WORD	n/a	wordpools/wordpool_long_EN.txt	SEAT	9	3	[0, 0, 0]	n/a	FR1	0	R1405E
381.517	0.966	396594	WORD_OFF	n/a	n/a	SEAT	9	3	[0, 0, 0]	n/a	FR1	0	R1405E
382.483	1.617	397563	WORD	n/a	wordpools/wordpool_long_EN.txt	SQUARE	10	3	[0, 0, 0]	n/a	FR1	0	R1405E
384.1	0.783	399171	WORD_OFF	n/a	n/a	SQUARE	10	3	[0, 0, 0]	n/a	FR1	0	R1405E
384.883	1.616	399958	WORD	n/a	wordpools/wordpool_long_EN.txt	GLOVE	11	3	[0, 0, 0]	n/a	FR1	0	R1405E
386.499	0.767	401577	WORD_OFF	n/a	n/a	GLOVE	11	3	[0, 0, 0]	n/a	FR1	0	R1405E
387.266	1.617	402341	WORD	n/a	wordpools/wordpool_long_EN.txt	TILE	12	3	[0, 0, 0]	n/a	FR1	0	R1405E
388.883	0.001	403957	PROB	0.001	n/a	n/a	-999	3	[6, 1, 7]	14	FR1	0	R1405E
388.884	0.0	403958	START	n/a	n/a	n/a	-999	3	[-999, -999, -999]	n/a	FR1	0	R1405E
388.883	0.001	403960	WORD_OFF	n/a	n/a	TILE	12	3	[0, 0, 0]	n/a	FR1	0	R1405E
388.884	0.0	403960	ENCODING_END	n/a	n/a	n/a	-999	3	[0, 0, 0]	n/a	FR1	0	R1405E
388.884	7.066	403960	DISTRACT_START	n/a	n/a	n/a	-999	3	[0, 0, 0]	n/a	FR1	0	R1405E
395.95	5.799	411024	PROB	5.799	n/a	n/a	-999	3	[7, 7, 1]	15	FR1	0	R1405E
401.749	2.95	416823	PROB	2.95	n/a	n/a	-999	3	[2, 8, 7]	17	FR1	0	R1405E
404.699	4.282	419773	PROB	4.282	n/a	n/a	-999	3	[5, 8, 7]	20	FR1	0	R1405E
408.981	0.0	424051	DISTRACT_END	n/a	n/a	n/a	-999	3	[0, 0, 0]	n/a	FR1	0	R1405E
408.981	2.067	424055	STOP	n/a	n/a	n/a	-999	3	[-999, -999, -999]	n/a	FR1	0	R1405E
411.048	8.735	426122	REC_START	n/a	n/a	n/a	-999	3	[0, 0, 0]	n/a	FR1	0	R1405E
419.783	2.694	434857	REC_WORD	2.694	n/a	CAVE	-999	3	[0, 0, 0]	n/a	FR1	0	R1405E
422.477	9.084	437551	REC_WORD	9.084	n/a	THREAD	-999	3	[0, 0, 0]	n/a	FR1	0	R1405E
431.561	6.498	446635	REC_WORD	6.498	n/a	NEST	-999	3	[0, 0, 0]	n/a	FR1	0	R1405E
438.059	3.258	453134	REC_WORD	3.258	n/a	NAIL	-999	3	[0, 0, 0]	n/a	FR1	0	R1405E
441.317	3.564	456388	REC_END	n/a	n/a	n/a	-999	3	[0, 0, 0]	n/a	FR1	0	R1405E
444.881	10.351	459957	COUNTDOWN_START	n/a	n/a	n/a	-999	4	[0, 0, 0]	n/a	FR1	0	R1405E
455.232	0.0	470310	COUNTDOWN_END	n/a	n/a	n/a	-999	4	[0, 0, 0]	n/a	FR1	0	R1405E
455.232	2.314	470310	ENCODING_START	n/a	n/a	n/a	-999	4	[0, 0, 0]	n/a	FR1	0	R1405E
457.546	1.601	472624	WORD	n/a	wordpools/wordpool_long_EN.txt	FARM	1	4	[0, 0, 0]	n/a	FR1	0	R1405E
459.147	0.866	474221	WORD_OFF	n/a	n/a	FARM	1	4	[0, 0, 0]	n/a	FR1	0	R1405E
460.013	1.6	475087	WORD	n/a	wordpools/wordpool_long_EN.txt	BREAD	2	4	[0, 0, 0]	n/a	FR1	0	R1405E
461.613	0.767	476684	WORD_OFF	n/a	n/a	BREAD	2	4	[0, 0, 0]	n/a	FR1	0	R1405E
462.38	1.616	477459	WORD	n/a	wordpools/wordpool_long_EN.txt	GLASS	3	4	[0, 0, 0]	n/a	FR1	0	R1405E
463.996	0.867	479067	WORD_OFF	n/a	n/a	GLASS	3	4	[0, 0, 0]	n/a	FR1	0	R1405E
464.863	1.616	479933	WORD	n/a	wordpools/wordpool_long_EN.txt	SPHINX	4	4	[0, 0, 0]	n/a	FR1	0	R1405E
466.479	0.95	481552	WORD_OFF	n/a	n/a	SPHINX	4	4	[0, 0, 0]	n/a	FR1	0	R1405E
467.429	1.6	482499	WORD	n/a	wordpools/wordpool_long_EN.txt	RIB	5	4	[0, 0, 0]	n/a	FR1	0	R1405E
469.029	0.833	484107	WORD_OFF	n/a	n/a	RIB	5	4	[0, 0, 0]	n/a	FR1	0	R1405E
469.862	1.601	484939	WORD	n/a	wordpools/wordpool_long_EN.txt	ZOO	6	4	[0, 0, 0]	n/a	FR1	0	R1405E
471.463	0.883	486535	WORD_OFF	n/a	n/a	ZOO	6	4	[0, 0, 0]	n/a	FR1	0	R1405E
472.346	1.6	487425	WORD	n/a	wordpools/wordpool_long_EN.txt	TART	7	4	[0, 0, 0]	n/a	FR1	0	R1405E
473.946	0.85	489021	WORD_OFF	n/a	n/a	TART	7	4	[0, 0, 0]	n/a	FR1	0	R1405E
474.796	1.6	489876	WORD	n/a	wordpools/wordpool_long_EN.txt	CUP	8	4	[0, 0, 0]	n/a	FR1	0	R1405E
476.396	0.866	491472	WORD_OFF	n/a	n/a	CUP	8	4	[0, 0, 0]	n/a	FR1	0	R1405E
477.262	1.617	492339	WORD	n/a	wordpools/wordpool_long_EN.txt	BLUSH	9	4	[0, 0, 0]	n/a	FR1	0	R1405E
478.879	0.85	493958	WORD_OFF	n/a	n/a	BLUSH	9	4	[0, 0, 0]	n/a	FR1	0	R1405E
479.729	1.616	494802	WORD	n/a	wordpools/wordpool_long_EN.txt	BOX	10	4	[0, 0, 0]	n/a	FR1	0	R1405E
481.345	1.0	496421	WORD_OFF	n/a	n/a	BOX	10	4	[0, 0, 0]	n/a	FR1	0	R1405E
482.345	1.617	497424	WORD	n/a	wordpools/wordpool_long_EN.txt	PRINCE	11	4	[0, 0, 0]	n/a	FR1	0	R1405E
483.962	0.883	499032	WORD_OFF	n/a	n/a	PRINCE	11	4	[0, 0, 0]	n/a	FR1	0	R1405E
484.845	1.6	499922	WORD	n/a	wordpools/wordpool_long_EN.txt	SLUG	12	4	[0, 0, 0]	n/a	FR1	0	R1405E
486.445	0.001	501518	WORD_OFF	n/a	n/a	SLUG	12	4	[0, 0, 0]	n/a	FR1	0	R1405E
486.446	0.0	501518	ENCODING_END	n/a	n/a	n/a	-999	4	[0, 0, 0]	n/a	FR1	0	R1405E
486.446	0.001	501521	PROB	0.001	n/a	n/a	-999	4	[1, 1, 4]	6	FR1	0	R1405E
486.447	0.0	501522	START	n/a	n/a	n/a	-999	4	[-999, -999, -999]	n/a	FR1	0	R1405E
486.447	2.865	501529	DISTRACT_START	n/a	n/a	n/a	-999	4	[0, 0, 0]	n/a	FR1	0	R1405E
489.312	5.383	504387	PROB	5.383	n/a	n/a	-999	4	[6, 8, 4]	18	FR1	0	R1405E
494.695	2.783	509770	PROB	2.783	n/a	n/a	-999	4	[5, 3, 2]	10	FR1	0	R1405E
497.478	3.733	512553	PROB	3.733	n/a	n/a	-999	4	[8, 1, 3]	12	FR1	0	R1405E
501.211	2.284	516286	PROB	2.284	n/a	n/a	-999	4	[6, 3, 3]	12	FR1	0	R1405E
503.495	3.649	518570	PROB	3.649	n/a	n/a	-999	4	[6, 2, 6]	14	FR1	0	R1405E
507.144	0.0	522219	STOP	n/a	n/a	n/a	-999	4	[-999, -999, -999]	n/a	FR1	0	R1405E
507.144	2.05	522224	DISTRACT_END	n/a	n/a	n/a	-999	4	[0, 0, 0]	n/a	FR1	0	R1405E
509.194	11.417	524273	REC_START	n/a	n/a	n/a	-999	4	[0, 0, 0]	n/a	FR1	0	R1405E
520.611	7.644	535686	REC_WORD	7.644	n/a	ZOO	6	4	[0, 0, 0]	n/a	FR1	0	R1405E
528.255	6.36	543330	REC_WORD	6.36	n/a	TABLE	-999	4	[0, 0, 0]	n/a	FR1	0	R1405E
534.615	4.828	549690	REC_WORD	4.828	n/a	PLANT	-999	4	[0, 0, 0]	n/a	FR1	0	R1405E
539.443	3.582	554516	REC_END	n/a	n/a	n/a	-999	4	[0, 0, 0]	n/a	FR1	0	R1405E
543.025	10.351	558107	COUNTDOWN_START	n/a	n/a	n/a	-999	5	[0, 0, 0]	n/a	FR1	0	R1405E
553.376	0.0	568449	COUNTDOWN_END	n/a	n/a	n/a	-999	5	[0, 0, 0]	n/a	FR1	0	R1405E
553.376	2.05	568449	ENCODING_START	n/a	n/a	n/a	-999	5	[0, 0, 0]	n/a	FR1	0	R1405E
555.426	1.616	570502	WORD	n/a	wordpools/wordpool_long_EN.txt	HOUSE	1	5	[0, 0, 0]	n/a	FR1	0	R1405E
557.042	0.8	572121	WORD_OFF	n/a	n/a	HOUSE	1	5	[0, 0, 0]	n/a	FR1	0	R1405E
557.842	1.617	572919	WORD	n/a	wordpools/wordpool_long_EN.txt	CONE	2	5	[0, 0, 0]	n/a	FR1	0	R1405E
559.459	0.817	574538	WORD_OFF	n/a	n/a	CONE	2	5	[0, 0, 0]	n/a	FR1	0	R1405E
560.276	1.6	575348	WORD	n/a	wordpools/wordpool_long_EN.txt	CLAY	3	5	[0, 0, 0]	n/a	FR1	0	R1405E
561.876	0.866	576955	WORD_OFF	n/a	n/a	CLAY	3	5	[0, 0, 0]	n/a	FR1	0	R1405E
562.742	1.616	577822	WORD	n/a	wordpools/wordpool_long_EN.txt	FRAME	4	5	[0, 0, 0]	n/a	FR1	0	R1405E
564.358	0.951	579430	WORD_OFF	n/a	n/a	FRAME	4	5	[0, 0, 0]	n/a	FR1	0	R1405E
565.309	1.6	580388	WORD	n/a	wordpools/wordpool_long_EN.txt	SCHOOL	5	5	[0, 0, 0]	n/a	FR1	0	R1405E
566.909	0.983	581984	WORD_OFF	n/a	n/a	SCHOOL	5	5	[0, 0, 0]	n/a	FR1	0	R1405E
567.892	1.616	582964	WORD	n/a	wordpools/wordpool_long_EN.txt	FENCE	6	5	[0, 0, 0]	n/a	FR1	0	R1405E
569.508	0.816	584584	WORD_OFF	n/a	n/a	FENCE	6	5	[0, 0, 0]	n/a	FR1	0	R1405E
570.324	1.601	585405	WORD	n/a	wordpools/wordpool_long_EN.txt	FRIEND	7	5	[0, 0, 0]	n/a	FR1	0	R1405E
571.925	0.983	587001	WORD_OFF	n/a	n/a	FRIEND	7	5	[0, 0, 0]	n/a	FR1	0	R1405E
572.908	1.6	587981	WORD	n/a	wordpools/wordpool_long_EN.txt	CHIEF	8	5	[0, 0, 0]	n/a	FR1	0	R1405E
574.508	0.817	589589	WORD_OFF	n/a	n/a	CHIEF	8	5	[0, 0, 0]	n/a	FR1	0	R1405E
575.325	1.6	590399	WORD	n/a	wordpools/wordpool_long_EN.txt	GIRL	9	5	[0, 0, 0]	n/a	FR1	0	R1405E
576.925	1.0	592006	WORD_OFF	n/a	n/a	GIRL	9	5	[0, 0, 0]	n/a	FR1	0	R1405E
577.925	1.616	592998	WORD	n/a	wordpools/wordpool_long_EN.txt	SKUNK	10	5	[0, 0, 0]	n/a	FR1	0	R1405E
579.541	0.949	594618	WORD_OFF	n/a	n/a	SKUNK	10	5	[0, 0, 0]	n/a	FR1	0	R1405E
580.49	1.603	595564	WORD	n/a	wordpools/wordpool_long_EN.txt	DIME	11	5	[0, 0, 0]	n/a	FR1	0	R1405E
582.093	0.931	597172	WORD_OFF	n/a	n/a	DIME	11	5	[0, 0, 0]	n/a	FR1	0	R1405E
583.024	1.6	598095	WORD	n/a	wordpools/wordpool_long_EN.txt	BOMB	12	5	[0, 0, 0]	n/a	FR1	0	R1405E
584.624	0.002	599699	PROB	0.002	n/a	n/a	-999	5	[7, 2, 5]	14	FR1	0	R1405E
584.626	0.0	599701	START	n/a	n/a	n/a	-999	5	[-999, -999, -999]	n/a	FR1	0	R1405E
584.624	0.002	599703	WORD_OFF	n/a	n/a	BOMB	12	5	[0, 0, 0]	n/a	FR1	0	R1405E
584.626	0.0	599703	ENCODING_END	n/a	n/a	n/a	-999	5	[0, 0, 0]	n/a	FR1	0	R1405E
584.626	11.765	599703	DISTRACT_START	n/a	n/a	n/a	-999	5	[0, 0, 0]	n/a	FR1	0	R1405E
596.391	8.15	611467	PROB	8.15	n/a	n/a	-999	5	[4, 5, 7]	16	FR1	0	R1405E
604.541	1.949	619617	PROB	1.949	n/a	n/a	-999	5	[6, 4, 1]	11	FR1	0	R1405E
606.49	0.0	621561	DISTRACT_END	n/a	n/a	n/a	-999	5	[0, 0, 0]	n/a	FR1	0	R1405E
606.49	2.2	621566	STOP	n/a	n/a	n/a	-999	5	[-999, -999, -999]	n/a	FR1	0	R1405E
608.69	0.197	623770	REC_START	n/a	n/a	n/a	-999	5	[0, 0, 0]	n/a	FR1	0	R1405E
608.887	1.013	623963	REC_WORD	1.013	n/a	FENCE	6	5	[0, 0, 0]	n/a	FR1	0	R1405E
609.9	1.09	624976	REC_WORD	1.09	n/a	HOUSE	1	5	[0, 0, 0]	n/a	FR1	0	R1405E
610.99	0.905	626066	REC_WORD	0.905	n/a	CHIEF	8	5	[0, 0, 0]	n/a	FR1	0	R1405E
611.895	0.944	626971	REC_WORD	0.944	n/a	GIRL	9	5	[0, 0, 0]	n/a	FR1	0	R1405E
612.839	3.863	627915	REC_WORD	3.863	n/a	PRINCE	-999	5	[0, 0, 0]	n/a	FR1	0	R1405E
616.702	22.249	631778	REC_WORD	22.249	n/a	SKUNK	10	5	[0, 0, 0]	n/a	FR1	0	R1405E
638.951	3.938	654024	REC_END	n/a	n/a	n/a	-999	5	[0, 0, 0]	n/a	FR1	0	R1405E
642.889	10.35	657969	COUNTDOWN_START	n/a	n/a	n/a	-999	6	[0, 0, 0]	n/a	FR1	0	R1405E
653.239	0.0	668311	COUNTDOWN_END	n/a	n/a	n/a	-999	6	[0, 0, 0]	n/a	FR1	0	R1405E
653.239	2.066	668322	ENCODING_START	n/a	n/a	n/a	-999	6	[0, 0, 0]	n/a	FR1	0	R1405E
655.305	1.617	670386	WORD	n/a	wordpools/wordpool_long_EN.txt	HAT	1	6	[0, 0, 0]	n/a	FR1	0	R1405E
656.922	1.0	671993	WORD_OFF	n/a	n/a	HAT	1	6	[0, 0, 0]	n/a	FR1	0	R1405E
657.922	1.616	672997	WORD	n/a	wordpools/wordpool_long_EN.txt	CLAM	2	6	[0, 0, 0]	n/a	FR1	0	R1405E
659.538	0.967	674616	WORD_OFF	n/a	n/a	CLAM	2	6	[0, 0, 0]	n/a	FR1	0	R1405E
660.505	1.616	675585	WORD	n/a	wordpools/wordpool_long_EN.txt	CROWN	3	6	[0, 0, 0]	n/a	FR1	0	R1405E
662.121	0.85	677193	WORD_OFF	n/a	n/a	CROWN	3	6	[0, 0, 0]	n/a	FR1	0	R1405E
662.971	1.6	678048	WORD	n/a	wordpools/wordpool_long_EN.txt	EGG	4	6	[0, 0, 0]	n/a	FR1	0	R1405E
664.571	0.999	679644	WORD_OFF	n/a	n/a	EGG	4	6	[0, 0, 0]	n/a	FR1	0	R1405E
665.57	1.601	680648	WORD	n/a	wordpools/wordpool_long_EN.txt	YARD	5	6	[0, 0, 0]	n/a	FR1	0	R1405E
667.171	0.917	682244	WORD_OFF	n/a	n/a	YARD	5	6	[0, 0, 0]	n/a	FR1	0	R1405E
668.088	1.6	683168	WORD	n/a	wordpools/wordpool_long_EN.txt	STEAM	6	6	[0, 0, 0]	n/a	FR1	0	R1405E
669.688	0.766	684764	WORD_OFF	n/a	n/a	STEAM	6	6	[0, 0, 0]	n/a	FR1	0	R1405E
670.454	1.616	685528	WORD	n/a	wordpools/wordpool_long_EN.txt	SLIME	7	6	[0, 0, 0]	n/a	FR1	0	R1405E
672.07	0.817	687147	WORD_OFF	n/a	n/a	SLIME	7	6	[0, 0, 0]	n/a	FR1	0	R1405E
672.887	1.6	687968	WORD	n/a	wordpools/wordpool_long_EN.txt	CRANE	8	6	[0, 0, 0]	n/a	FR1	0	R1405E
674.487	0.767	689564	WORD_OFF	n/a	n/a	CRANE	8	6	[0, 0, 0]	n/a	FR1	0	R1405E
675.254	1.616	690328	WORD	n/a	wordpools/wordpool_long_EN.txt	VASE	9	6	[0, 0, 0]	n/a	FR1	0	R1405E
676.87	0.784	691948	WORD_OFF	n/a	n/a	VASE	9	6	[0, 0, 0]	n/a	FR1	0	R1405E
677.654	1.616	692734	WORD	n/a	wordpools/wordpool_long_EN.txt	COIN	10	6	[0, 0, 0]	n/a	FR1	0	R1405E
679.27	0.983	694342	WORD_OFF	n/a	n/a	COIN	10	6	[0, 0, 0]	n/a	FR1	0	R1405E
680.253	1.6	695334	WORD	n/a	wordpools/wordpool_long_EN.txt	MEAT	11	6	[0, 0, 0]	n/a	FR1	0	R1405E
681.853	0.867	696930	WORD_OFF	n/a	n/a	MEAT	11	6	[0, 0, 0]	n/a	FR1	0	R1405E
682.72	1.617	697797	WORD	n/a	wordpools/wordpool_long_EN.txt	WING	12	6	[0, 0, 0]	n/a	FR1	0	R1405E
684.337	0.001	699413	PROB	0.001	n/a	n/a	-999	6	[5, 3, 2]	10	FR1	0	R1405E
684.338	0.0	699414	START	n/a	n/a	n/a	-999	6	[-999, -999, -999]	n/a	FR1	0	R1405E
684.337	0.001	699416	WORD_OFF	n/a	n/a	WING	12	6	[0, 0, 0]	n/a	FR1	0	R1405E
684.338	0.0	699416	ENCODING_END	n/a	n/a	n/a	-999	6	[0, 0, 0]	n/a	FR1	0	R1405E
684.338	3.515	699416	DISTRACT_START	n/a	n/a	n/a	-999	6	[0, 0, 0]	n/a	FR1	0	R1405E
687.853	3.234	702929	PROB	3.234	n/a	n/a	-999	6	[2, 6, 5]	13	FR1	0	R1405E
691.087	2.5	706163	PROB	2.5	n/a	n/a	-999	6	[5, 5, 8]	18	FR1	0	R1405E
693.587	3.583	708663	PROB	3.583	n/a	n/a	-999	6	[3, 7, 7]	15	FR1	0	R1405E
697.17	4.135	712246	PROB	4.135	n/a	n/a	-999	6	[1, 3, 7]	10	FR1	0	R1405E
701.305	8.247	716381	PROB	8.247	n/a	n/a	-999	6	[3, 5, 6]	14	FR1	0	R1405E
709.552	0.0	724626	DISTRACT_END	n/a	n/a	n/a	-999	6	[0, 0, 0]	n/a	FR1	0	R1405E
709.552	2.134	724628	STOP	n/a	n/a	n/a	-999	6	[-999, -999, -999]	n/a	FR1	0	R1405E
711.686	1.422	726767	REC_START	n/a	n/a	n/a	-999	6	[0, 0, 0]	n/a	FR1	0	R1405E
713.108	1.549	728184	REC_WORD	1.549	n/a	HAT	1	6	[0, 0, 0]	n/a	FR1	0	R1405E
714.657	10.689	729733	REC_WORD	10.689	n/a	CROWN	3	6	[0, 0, 0]	n/a	FR1	0	R1405E
725.346	16.605	740422	REC_WORD	16.605	n/a	TRUNK	-999	6	[0, 0, 0]	n/a	FR1	0	R1405E
741.951	3.032	757032	REC_END	n/a	n/a	n/a	-999	6	[0, 0, 0]	n/a	FR1	0	R1405E
744.983	10.352	760065	COUNTDOWN_START	n/a	n/a	n/a	-999	7	[0, 0, 0]	n/a	FR1	0	R1405E
755.335	0.0	770418	COUNTDOWN_END	n/a	n/a	n/a	-999	7	[0, 0, 0]	n/a	FR1	0	R1405E
755.335	2.216	770418	ENCODING_START	n/a	n/a	n/a	-999	7	[0, 0, 0]	n/a	FR1	0	R1405E
757.551	1.616	772630	WORD	n/a	wordpools/wordpool_long_EN.txt	HORN	1	7	[0, 0, 0]	n/a	FR1	0	R1405E
759.167	0.851	774249	WORD_OFF	n/a	n/a	HORN	1	7	[0, 0, 0]	n/a	FR1	0	R1405E
760.018	1.616	775093	WORD	n/a	wordpools/wordpool_long_EN.txt	FLEET	2	7	[0, 0, 0]	n/a	FR1	0	R1405E
761.634	0.767	776712	WORD_OFF	n/a	n/a	FLEET	2	7	[0, 0, 0]	n/a	FR1	0	R1405E
762.401	1.616	777476	WORD	n/a	wordpools/wordpool_long_EN.txt	SOCK	3	7	[0, 0, 0]	n/a	FR1	0	R1405E
764.017	0.817	779095	WORD_OFF	n/a	n/a	SOCK	3	7	[0, 0, 0]	n/a	FR1	0	R1405E
764.834	1.616	779916	WORD	n/a	wordpools/wordpool_long_EN.txt	MOON	4	7	[0, 0, 0]	n/a	FR1	0	R1405E
766.45	0.867	781524	WORD_OFF	n/a	n/a	MOON	4	7	[0, 0, 0]	n/a	FR1	0	R1405E
767.317	1.616	782390	WORD	n/a	wordpools/wordpool_long_EN.txt	TIE	5	7	[0, 0, 0]	n/a	FR1	0	R1405E
768.933	0.884	784010	WORD_OFF	n/a	n/a	TIE	5	7	[0, 0, 0]	n/a	FR1	0	R1405E
769.817	1.616	784899	WORD	n/a	wordpools/wordpool_long_EN.txt	HOOF	6	7	[0, 0, 0]	n/a	FR1	0	R1405E
771.433	0.783	786507	WORD_OFF	n/a	n/a	HOOF	6	7	[0, 0, 0]	n/a	FR1	0	R1405E
772.216	1.6	787293	WORD	n/a	wordpools/wordpool_long_EN.txt	LEAF	7	7	[0, 0, 0]	n/a	FR1	0	R1405E
773.816	0.784	788890	WORD_OFF	n/a	n/a	LEAF	7	7	[0, 0, 0]	n/a	FR1	0	R1405E
774.6	1.616	789677	WORD	n/a	wordpools/wordpool_long_EN.txt	APE	8	7	[0, 0, 0]	n/a	FR1	0	R1405E
776.216	0.834	791296	WORD_OFF	n/a	n/a	APE	8	7	[0, 0, 0]	n/a	FR1	0	R1405E
777.05	1.616	792128	WORD	n/a	wordpools/wordpool_long_EN.txt	TRENCH	9	7	[0, 0, 0]	n/a	FR1	0	R1405E
778.666	0.766	793747	WORD_OFF	n/a	n/a	TRENCH	9	7	[0, 0, 0]	n/a	FR1	0	R1405E
779.432	1.6	794511	WORD	n/a	wordpools/wordpool_long_EN.txt	SEA	10	7	[0, 0, 0]	n/a	FR1	0	R1405E
781.032	0.784	796107	WORD_OFF	n/a	n/a	SEA	10	7	[0, 0, 0]	n/a	FR1	0	R1405E
781.816	1.616	796894	WORD	n/a	wordpools/wordpool_long_EN.txt	BUSH	11	7	[0, 0, 0]	n/a	FR1	0	R1405E
783.432	0.967	798513	WORD_OFF	n/a	n/a	BUSH	11	7	[0, 0, 0]	n/a	FR1	0	R1405E
784.399	1.601	799482	WORD	n/a	wordpools/wordpool_long_EN.txt	TWIG	12	7	[0, 0, 0]	n/a	FR1	0	R1405E
786.0	0.001	801077	PROB	0.001	n/a	n/a	-999	7	[8, 7, 8]	23	FR1	0	R1405E
786.001	0.0	801078	START	n/a	n/a	n/a	-999	7	[-999, -999, -999]	n/a	FR1	0	R1405E
786.0	0.001	801079	WORD_OFF	n/a	n/a	TWIG	12	7	[0, 0, 0]	n/a	FR1	0	R1405E
786.001	0.0	801079	ENCODING_END	n/a	n/a	n/a	-999	7	[0, 0, 0]	n/a	FR1	0	R1405E
786.001	9.898	801079	DISTRACT_START	n/a	n/a	n/a	-999	7	[0, 0, 0]	n/a	FR1	0	R1405E
795.899	15.066	810976	PROB	15.066	n/a	n/a	-999	7	[5, 4, 8]	17	FR1	0	R1405E
810.965	0.0	826038	DISTRACT_END	n/a	n/a	n/a	-999	7	[0, 0, 0]	n/a	FR1	0	R1405E
810.965	2.035	826042	STOP	n/a	n/a	n/a	-999	7	[-999, -999, -999]	n/a	FR1	0	R1405E
813.0	1.623	828076	REC_START	n/a	n/a	n/a	-999	7	[0, 0, 0]	n/a	FR1	0	R1405E
814.623	1.796	829700	REC_WORD	1.796	n/a	WING	-999	7	[0, 0, 0]	n/a	FR1	0	R1405E
816.419	16.752	831496	REC_WORD	16.752	n/a	MEAT	-999	7	[0, 0, 0]	n/a	FR1	0	R1405E
833.171	7.973	848248	REC_WORD	7.973	n/a	FENCE	-999	7	[0, 0, 0]	n/a	FR1	0	R1405E
841.144	2.099	856221	REC_WORD	2.099	n/a	MOON	4	7	[0, 0, 0]	n/a	FR1	0	R1405E
843.243	6.054	858318	REC_END	n/a	n/a	n/a	-999	7	[0, 0, 0]	n/a	FR1	0	R1405E
849.297	10.349	864373	COUNTDOWN_START	n/a	n/a	n/a	-999	8	[0, 0, 0]	n/a	FR1	0	R1405E
859.646	0.0	874726	COUNTDOWN_END	n/a	n/a	n/a	-999	8	[0, 0, 0]	n/a	FR1	0	R1405E
859.646	2.25	874726	ENCODING_START	n/a	n/a	n/a	-999	8	[0, 0, 0]	n/a	FR1	0	R1405E
861.896	1.617	876972	WORD	n/a	wordpools/wordpool_long_EN.txt	BOWL	1	8	[0, 0, 0]	n/a	FR1	0	R1405E
863.513	1.0	878592	WORD_OFF	n/a	n/a	BOWL	1	8	[0, 0, 0]	n/a	FR1	0	R1405E
864.513	1.616	879595	WORD	n/a	wordpools/wordpool_long_EN.txt	LACE	2	8	[0, 0, 0]	n/a	FR1	0	R1405E
866.129	0.933	881203	WORD_OFF	n/a	n/a	LACE	2	8	[0, 0, 0]	n/a	FR1	0	R1405E
867.062	1.617	882138	WORD	n/a	wordpools/wordpool_long_EN.txt	BRICK	3	8	[0, 0, 0]	n/a	FR1	0	R1405E
868.679	0.783	883757	WORD_OFF	n/a	n/a	BRICK	3	8	[0, 0, 0]	n/a	FR1	0	R1405E
869.462	1.617	884544	WORD	n/a	wordpools/wordpool_long_EN.txt	SLEEVE	4	8	[0, 0, 0]	n/a	FR1	0	R1405E
871.079	0.8	886151	WORD_OFF	n/a	n/a	SLEEVE	4	8	[0, 0, 0]	n/a	FR1	0	R1405E
871.879	1.616	886961	WORD	n/a	wordpools/wordpool_long_EN.txt	JET	5	8	[0, 0, 0]	n/a	FR1	0	R1405E
873.495	0.9	888569	WORD_OFF	n/a	n/a	JET	5	8	[0, 0, 0]	n/a	FR1	0	R1405E
874.395	1.617	889469	WORD	n/a	wordpools/wordpool_long_EN.txt	STORE	6	8	[0, 0, 0]	n/a	FR1	0	R1405E
876.012	0.8	891089	WORD_OFF	n/a	n/a	STORE	6	8	[0, 0, 0]	n/a	FR1	0	R1405E
876.812	1.6	891887	WORD	n/a	wordpools/wordpool_long_EN.txt	MUD	7	8	[0, 0, 0]	n/a	FR1	0	R1405E
878.412	0.8	893494	WORD_OFF	n/a	n/a	MUD	7	8	[0, 0, 0]	n/a	FR1	0	R1405E
879.212	1.6	894293	WORD	n/a	wordpools/wordpool_long_EN.txt	SHARK	8	8	[0, 0, 0]	n/a	FR1	0	R1405E
880.812	0.9	895889	WORD_OFF	n/a	n/a	SHARK	8	8	[0, 0, 0]	n/a	FR1	0	R1405E
881.712	1.617	896790	WORD	n/a	wordpools/wordpool_long_EN.txt	BROOM	9	8	[0, 0, 0]	n/a	FR1	0	R1405E
883.329	0.935	898409	WORD_OFF	n/a	n/a	BROOM	9	8	[0, 0, 0]	n/a	FR1	0	R1405E
884.264	1.598	899344	WORD	n/a	wordpools/wordpool_long_EN.txt	MUG	10	8	[0, 0, 0]	n/a	FR1	0	R1405E
885.862	0.799	900940	WORD_OFF	n/a	n/a	MUG	10	8	[0, 0, 0]	n/a	FR1	0	R1405E
886.661	1.6	901738	WORD	n/a	wordpools/wordpool_long_EN.txt	PIPE	11	8	[0, 0, 0]	n/a	FR1	0	R1405E
888.261	0.917	903335	WORD_OFF	n/a	n/a	PIPE	11	8	[0, 0, 0]	n/a	FR1	0	R1405E
889.178	1.618	904258	WORD	n/a	wordpools/wordpool_long_EN.txt	SPEAR	12	8	[0, 0, 0]	n/a	FR1	0	R1405E
890.796	0.0	905874	START	n/a	n/a	n/a	-999	8	[-999, -999, -999]	n/a	FR1	0	R1405E
890.796	0.0	905874	PROB	0.0	n/a	n/a	-999	8	[3, 3, 7]	13	FR1	0	R1405E
890.795	0.001	905877	WORD_OFF	n/a	n/a	SPEAR	12	8	[0, 0, 0]	n/a	FR1	0	R1405E
890.796	0.0	905877	ENCODING_END	n/a	n/a	n/a	-999	8	[0, 0, 0]	n/a	FR1	0	R1405E
890.796	3.499	905877	DISTRACT_START	n/a	n/a	n/a	-999	8	[0, 0, 0]	n/a	FR1	0	R1405E
894.295	1.867	909373	PROB	1.867	n/a	n/a	-999	8	[6, 4, 1]	11	FR1	0	R1405E
896.162	3.167	911240	PROB	3.167	n/a	n/a	-999	8	[4, 7, 3]	14	FR1	0	R1405E
899.329	3.066	914407	PROB	3.066	n/a	n/a	-999	8	[5, 5, 5]	15	FR1	0	R1405E
902.395	3.101	917473	PROB	3.101	n/a	n/a	-999	8	[3, 1, 7]	12	FR1	0	R1405E
905.496	12.448	920574	PROB	12.448	n/a	n/a	-999	8	[4, 1, 7]	12	FR1	0	R1405E
917.944	0.0	933022	STOP	n/a	n/a	n/a	-999	8	[-999, -999, -999]	n/a	FR1	0	R1405E
917.944	2.233	933026	DISTRACT_END	n/a	n/a	n/a	-999	8	[0, 0, 0]	n/a	FR1	0	R1405E
920.177	1.248	935258	REC_START	n/a	n/a	n/a	-999	8	[0, 0, 0]	n/a	FR1	0	R1405E
921.425	6.226	936503	REC_WORD	6.226	n/a	SPEAR	12	8	[0, 0, 0]	n/a	FR1	0	R1405E
927.651	7.776	942729	REC_WORD	7.776	n/a	FEET	-999	8	[0, 0, 0]	n/a	FR1	0	R1405E
935.427	11.465	950505	REC_WORD	11.465	n/a	SEA	-999	8	[0, 0, 0]	n/a	FR1	0	R1405E
946.892	3.549	961970	REC_WORD	3.549	n/a	MUG	10	8	[0, 0, 0]	n/a	FR1	0	R1405E
950.441	3.834	965523	REC_END	n/a	n/a	n/a	-999	8	[0, 0, 0]	n/a	FR1	0	R1405E
954.275	10.351	969354	COUNTDOWN_START	n/a	n/a	n/a	-999	9	[0, 0, 0]	n/a	FR1	0	R1405E
964.626	0.0	979707	COUNTDOWN_END	n/a	n/a	n/a	-999	9	[0, 0, 0]	n/a	FR1	0	R1405E
964.626	2.199	979707	ENCODING_START	n/a	n/a	n/a	-999	9	[0, 0, 0]	n/a	FR1	0	R1405E
966.825	1.6	981908	WORD	n/a	wordpools/wordpool_long_EN.txt	YOLK	1	9	[0, 0, 0]	n/a	FR1	0	R1405E
968.425	0.766	983504	WORD_OFF	n/a	n/a	YOLK	1	9	[0, 0, 0]	n/a	FR1	0	R1405E
969.191	1.601	984268	WORD	n/a	wordpools/wordpool_long_EN.txt	GREASE	2	9	[0, 0, 0]	n/a	FR1	0	R1405E
970.792	0.916	985864	WORD_OFF	n/a	n/a	GREASE	2	9	[0, 0, 0]	n/a	FR1	0	R1405E
971.708	1.6	986788	WORD	n/a	wordpools/wordpool_long_EN.txt	TOAD	3	9	[0, 0, 0]	n/a	FR1	0	R1405E
973.308	0.817	988384	WORD_OFF	n/a	n/a	TOAD	3	9	[0, 0, 0]	n/a	FR1	0	R1405E
974.125	1.617	989205	WORD	n/a	wordpools/wordpool_long_EN.txt	POND	4	9	[0, 0, 0]	n/a	FR1	0	R1405E
975.742	0.916	990824	WORD_OFF	n/a	n/a	POND	4	9	[0, 0, 0]	n/a	FR1	0	R1405E
976.658	1.617	991737	WORD	n/a	wordpools/wordpool_long_EN.txt	SKATE	5	9	[0, 0, 0]	n/a	FR1	0	R1405E
978.275	0.999	993356	WORD_OFF	n/a	n/a	SKATE	5	9	[0, 0, 0]	n/a	FR1	0	R1405E
979.274	1.6	994348	WORD	n/a	wordpools/wordpool_long_EN.txt	BEAST	6	9	[0, 0, 0]	n/a	FR1	0	R1405E
980.874	0.783	995955	WORD_OFF	n/a	n/a	BEAST	6	9	[0, 0, 0]	n/a	FR1	0	R1405E
981.657	1.601	996731	WORD	n/a	wordpools/wordpool_long_EN.txt	MAZE	7	9	[0, 0, 0]	n/a	FR1	0	R1405E
983.258	0.816	998338	WORD_OFF	n/a	n/a	MAZE	7	9	[0, 0, 0]	n/a	FR1	0	R1405E
984.074	1.6	999148	WORD	n/a	wordpools/wordpool_long_EN.txt	CHEST	8	9	[0, 0, 0]	n/a	FR1	0	R1405E
985.674	0.883	1000756	WORD_OFF	n/a	n/a	CHEST	8	9	[0, 0, 0]	n/a	FR1	0	R1405E
986.557	1.601	1001634	WORD	n/a	wordpools/wordpool_long_EN.txt	SOUP	9	9	[0, 0, 0]	n/a	FR1	0	R1405E
988.158	0.899	1003241	WORD_OFF	n/a	n/a	SOUP	9	9	[0, 0, 0]	n/a	FR1	0	R1405E
989.057	1.601	1004131	WORD	n/a	wordpools/wordpool_long_EN.txt	BRANCH	10	9	[0, 0, 0]	n/a	FR1	0	R1405E
990.658	0.8	1005739	WORD_OFF	n/a	n/a	BRANCH	10	9	[0, 0, 0]	n/a	FR1	0	R1405E
991.458	1.616	1006537	WORD	n/a	wordpools/wordpool_long_EN.txt	ROOT	11	9	[0, 0, 0]	n/a	FR1	0	R1405E
993.074	0.884	1008156	WORD_OFF	n/a	n/a	ROOT	11	9	[0, 0, 0]	n/a	FR1	0	R1405E
993.958	1.616	1009034	WORD	n/a	wordpools/wordpool_long_EN.txt	THRONE	12	9	[0, 0, 0]	n/a	FR1	0	R1405E
995.574	0.002	1010653	WORD_OFF	n/a	n/a	THRONE	12	9	[0, 0, 0]	n/a	FR1	0	R1405E
995.576	0.0	1010653	ENCODING_END	n/a	n/a	n/a	-999	9	[0, 0, 0]	n/a	FR1	0	R1405E
995.576	0.0	1010653	DISTRACT_START	n/a	n/a	n/a	-999	9	[0, 0, 0]	n/a	FR1	0	R1405E
995.575	0.001	1010653	PROB	0.001	n/a	n/a	-999	9	[7, 4, 1]	13	FR1	0	R1405E
995.576	9.032	1010654	START	n/a	n/a	n/a	-999	9	[-999, -999, -999]	n/a	FR1	0	R1405E
1004.608	6.65	1019686	PROB	6.65	n/a	n/a	-999	9	[7, 4, 1]	12	FR1	0	R1405E
1011.258	4.065	1026336	PROB	4.065	n/a	n/a	-999	9	[5, 7, 8]	20	FR1	0	R1405E
1015.323	3.733	1030401	PROB	3.733	n/a	n/a	-999	9	[5, 1, 6]	12	FR1	0	R1405E
1019.056	0.0	1034130	DISTRACT_END	n/a	n/a	n/a	-999	9	[0, 0, 0]	n/a	FR1	0	R1405E
1019.056	2.251	1034134	STOP	n/a	n/a	n/a	-999	9	[-999, -999, -999]	n/a	FR1	0	R1405E
1021.307	7.277	1036384	REC_START	n/a	n/a	n/a	-999	9	[0, 0, 0]	n/a	FR1	0	R1405E
1028.584	0.388	1043662	REC_WORD_VV	0.388	n/a	<>	-999	9	[0, 0, 0]	n/a	FR1	0	R1405E
1028.972	22.583	1044050	REC_WORD	22.583	n/a	YOLK	1	9	[0, 0, 0]	n/a	FR1	0	R1405E
1051.555	3.85	1066638	REC_END	n/a	n/a	n/a	-999	9	[0, 0, 0]	n/a	FR1	0	R1405E
1055.405	10.35	1070481	COUNTDOWN_START	n/a	n/a	n/a	-999	10	[0, 0, 0]	n/a	FR1	0	R1405E
1065.755	0.0	1080834	COUNTDOWN_END	n/a	n/a	n/a	-999	10	[0, 0, 0]	n/a	FR1	0	R1405E
1065.755	2.132	1080834	ENCODING_START	n/a	n/a	n/a	-999	10	[0, 0, 0]	n/a	FR1	0	R1405E
1067.887	1.601	1082966	WORD	n/a	wordpools/wordpool_long_EN.txt	STONE	1	10	[0, 0, 0]	n/a	FR1	0	R1405E
1069.488	0.899	1084563	WORD_OFF	n/a	n/a	STONE	1	10	[0, 0, 0]	n/a	FR1	0	R1405E
1070.387	1.6	1085463	WORD	n/a	wordpools/wordpool_long_EN.txt	TROUT	2	10	[0, 0, 0]	n/a	FR1	0	R1405E
1071.987	0.833	1087071	WORD_OFF	n/a	n/a	TROUT	2	10	[0, 0, 0]	n/a	FR1	0	R1405E
1072.82	1.601	1087903	WORD	n/a	wordpools/wordpool_long_EN.txt	GEESE	3	10	[0, 0, 0]	n/a	FR1	0	R1405E
1074.421	0.766	1089500	WORD_OFF	n/a	n/a	GEESE	3	10	[0, 0, 0]	n/a	FR1	0	R1405E
1075.187	1.6	1090264	WORD	n/a	wordpools/wordpool_long_EN.txt	PIN	4	10	[0, 0, 0]	n/a	FR1	0	R1405E
1076.787	0.767	1091871	WORD_OFF	n/a	n/a	PIN	4	10	[0, 0, 0]	n/a	FR1	0	R1405E
1077.554	1.6	1092635	WORD	n/a	wordpools/wordpool_long_EN.txt	FOX	5	10	[0, 0, 0]	n/a	FR1	0	R1405E
1079.154	0.766	1094232	WORD_OFF	n/a	n/a	FOX	5	10	[0, 0, 0]	n/a	FR1	0	R1405E
1079.92	1.617	1094996	WORD	n/a	wordpools/wordpool_long_EN.txt	HUT	6	10	[0, 0, 0]	n/a	FR1	0	R1405E
1081.537	0.917	1096615	WORD_OFF	n/a	n/a	HUT	6	10	[0, 0, 0]	n/a	FR1	0	R1405E
1082.454	1.6	1097538	WORD	n/a	wordpools/wordpool_long_EN.txt	BLOOM	7	10	[0, 0, 0]	n/a	FR1	0	R1405E
1084.054	0.95	1099135	WORD_OFF	n/a	n/a	BLOOM	7	10	[0, 0, 0]	n/a	FR1	0	R1405E
1085.004	1.616	1100081	WORD	n/a	wordpools/wordpool_long_EN.txt	GOLD	8	10	[0, 0, 0]	n/a	FR1	0	R1405E
1086.62	0.984	1101700	WORD_OFF	n/a	n/a	GOLD	8	10	[0, 0, 0]	n/a	FR1	0	R1405E
1087.604	1.6	1102681	WORD	n/a	wordpools/wordpool_long_EN.txt	FORT	9	10	[0, 0, 0]	n/a	FR1	0	R1405E
1089.204	0.832	1104277	WORD_OFF	n/a	n/a	FORT	9	10	[0, 0, 0]	n/a	FR1	0	R1405E
1090.036	1.601	1105121	WORD	n/a	wordpools/wordpool_long_EN.txt	WORM	10	10	[0, 0, 0]	n/a	FR1	0	R1405E
1091.637	0.9	1106717	WORD_OFF	n/a	n/a	WORM	10	10	[0, 0, 0]	n/a	FR1	0	R1405E
1092.537	1.602	1107618	WORD	n/a	wordpools/wordpool_long_EN.txt	CAVE	11	10	[0, 0, 0]	n/a	FR1	0	R1405E
1094.139	0.865	1109214	WORD_OFF	n/a	n/a	CAVE	11	10	[0, 0, 0]	n/a	FR1	0	R1405E
1095.004	1.6	1110081	WORD	n/a	wordpools/wordpool_long_EN.txt	STEM	12	10	[0, 0, 0]	n/a	FR1	0	R1405E
1096.604	0.001	1111683	PROB	0.001	n/a	n/a	-999	10	[6, 6, 2]	14	FR1	0	R1405E
1096.605	0.0	1111684	START	n/a	n/a	n/a	-999	10	[-999, -999, -999]	n/a	FR1	0	R1405E
1096.604	0.001	1111689	WORD_OFF	n/a	n/a	STEM	12	10	[0, 0, 0]	n/a	FR1	0	R1405E
1096.605	0.0	1111689	ENCODING_END	n/a	n/a	n/a	-999	10	[0, 0, 0]	n/a	FR1	0	R1405E
1096.605	5.181	1111689	DISTRACT_START	n/a	n/a	n/a	-999	10	[0, 0, 0]	n/a	FR1	0	R1405E
1101.786	4.3	1116865	PROB	4.3	n/a	n/a	-999	10	[8, 3, 3]	14	FR1	0	R1405E
1106.086	2.917	1121165	PROB	2.917	n/a	n/a	-999	10	[3, 6, 2]	11	FR1	0	R1405E
1109.003	2.501	1124082	PROB	2.501	n/a	n/a	-999	10	[5, 5, 4]	14	FR1	0	R1405E
1111.504	4.866	1126583	PROB	4.866	n/a	n/a	-999	10	[7, 7, 5]	19	FR1	0	R1405E
1116.37	4.116	1131449	PROB	4.116	n/a	n/a	-999	10	[3, 4, 1]	8	FR1	0	R1405E
1120.486	0.0	1135565	DISTRACT_END	n/a	n/a	n/a	-999	10	[0, 0, 0]	n/a	FR1	0	R1405E
1120.486	2.3	1135565	STOP	n/a	n/a	n/a	-999	10	[-999, -999, -999]	n/a	FR1	0	R1405E
1122.786	4.986	1137865	REC_START	n/a	n/a	n/a	-999	10	[0, 0, 0]	n/a	FR1	0	R1405E
1127.772	6.009	1142851	REC_WORD	6.009	n/a	MUD	-999	10	[0, 0, 0]	n/a	FR1	0	R1405E
1133.781	6.025	1148860	REC_WORD	6.025	n/a	GEESE	3	10	[0, 0, 0]	n/a	FR1	0	R1405E
1139.806	1.689	1154885	REC_WORD	1.689	n/a	BEAST	-999	10	[0, 0, 0]	n/a	FR1	0	R1405E
1141.495	11.548	1156574	REC_WORD	11.548	n/a	CAVE	11	10	[0, 0, 0]	n/a	FR1	0	R1405E
1153.043	4.124	1168119	REC_END	n/a	n/a	n/a	-999	10	[0, 0, 0]	n/a	FR1	0	R1405E
1157.167	10.351	1172246	COUNTDOWN_START	n/a	n/a	n/a	-999	11	[0, 0, 0]	n/a	FR1	0	R1405E
1167.518	0.0	1182599	COUNTDOWN_END	n/a	n/a	n/a	-999	11	[0, 0, 0]	n/a	FR1	0	R1405E
1167.518	1.999	1182599	ENCODING_START	n/a	n/a	n/a	-999	11	[0, 0, 0]	n/a	FR1	0	R1405E
1169.517	1.617	1184595	WORD	n/a	wordpools/wordpool_long_EN.txt	LODGE	1	11	[0, 0, 0]	n/a	FR1	0	R1405E
1171.134	0.833	1186214	WORD_OFF	n/a	n/a	LODGE	1	11	[0, 0, 0]	n/a	FR1	0	R1405E
1171.967	1.617	1187046	WORD	n/a	wordpools/wordpool_long_EN.txt	BADGE	2	11	[0, 0, 0]	n/a	FR1	0	R1405E
1173.584	0.866	1188665	WORD_OFF	n/a	n/a	BADGE	2	11	[0, 0, 0]	n/a	FR1	0	R1405E
1174.45	1.617	1189532	WORD	n/a	wordpools/wordpool_long_EN.txt	SPOOL	3	11	[0, 0, 0]	n/a	FR1	0	R1405E
1176.067	0.849	1191151	WORD_OFF	n/a	n/a	SPOOL	3	11	[0, 0, 0]	n/a	FR1	0	R1405E
1176.916	1.601	1191995	WORD	n/a	wordpools/wordpool_long_EN.txt	LOFT	4	11	[0, 0, 0]	n/a	FR1	0	R1405E
1178.517	0.916	1193603	WORD_OFF	n/a	n/a	LOFT	4	11	[0, 0, 0]	n/a	FR1	0	R1405E
1179.433	1.6	1194515	WORD	n/a	wordpools/wordpool_long_EN.txt	SMOG	5	11	[0, 0, 0]	n/a	FR1	0	R1405E
1181.033	1.0	1196111	WORD_OFF	n/a	n/a	SMOG	5	11	[0, 0, 0]	n/a	FR1	0	R1405E
1182.033	1.616	1197115	WORD	n/a	wordpools/wordpool_long_EN.txt	ROAD	6	11	[0, 0, 0]	n/a	FR1	0	R1405E
1183.649	0.784	1198734	WORD_OFF	n/a	n/a	ROAD	6	11	[0, 0, 0]	n/a	FR1	0	R1405E
1184.433	1.6	1199509	WORD	n/a	wordpools/wordpool_long_EN.txt	PARK	7	11	[0, 0, 0]	n/a	FR1	0	R1405E
1186.033	0.934	1201117	WORD_OFF	n/a	n/a	PARK	7	11	[0, 0, 0]	n/a	FR1	0	R1405E
1186.967	1.616	1202052	WORD	n/a	wordpools/wordpool_long_EN.txt	SPRING	8	11	[0, 0, 0]	n/a	FR1	0	R1405E
1188.583	0.999	1203659	WORD_OFF	n/a	n/a	SPRING	8	11	[0, 0, 0]	n/a	FR1	0	R1405E
1189.582	1.618	1204663	WORD	n/a	wordpools/wordpool_long_EN.txt	SLUSH	9	11	[0, 0, 0]	n/a	FR1	0	R1405E
1191.2	0.966	1206282	WORD_OFF	n/a	n/a	SLUSH	9	11	[0, 0, 0]	n/a	FR1	0	R1405E
1192.166	1.617	1207251	WORD	n/a	wordpools/wordpool_long_EN.txt	OWL	10	11	[0, 0, 0]	n/a	FR1	0	R1405E
1193.783	0.767	1208859	WORD_OFF	n/a	n/a	OWL	10	11	[0, 0, 0]	n/a	FR1	0	R1405E
1194.55	1.615	1209634	WORD	n/a	wordpools/wordpool_long_EN.txt	HOOK	11	11	[0, 0, 0]	n/a	FR1	0	R1405E
1196.165	0.851	1211242	WORD_OFF	n/a	n/a	HOOK	11	11	[0, 0, 0]	n/a	FR1	0	R1405E
1197.016	1.6	1212097	WORD	n/a	wordpools/wordpool_long_EN.txt	LUNCH	12	11	[0, 0, 0]	n/a	FR1	0	R1405E
1198.616	0.001	1213693	WORD_OFF	n/a	n/a	LUNCH	12	11	[0, 0, 0]	n/a	FR1	0	R1405E
1198.617	0.0	1213693	ENCODING_END	n/a	n/a	n/a	-999	11	[0, 0, 0]	n/a	FR1	0	R1405E
1198.617	0.001	1213697	PROB	0.001	n/a	n/a	-999	11	[5, 8, 6]	19	FR1	0	R1405E
1198.618	0.0	1213698	START	n/a	n/a	n/a	-999	11	[-999, -999, -999]	n/a	FR1	0	R1405E
1198.618	5.631	1213705	DISTRACT_START	n/a	n/a	n/a	-999	11	[0, 0, 0]	n/a	FR1	0	R1405E
1204.249	6.567	1219329	PROB	6.567	n/a	n/a	-999	11	[2, 1, 3]	6	FR1	0	R1405E
1210.816	2.383	1225896	PROB	2.383	n/a	n/a	-999	11	[3, 7, 1]	11	FR1	0	R1405E
1213.199	3.434	1228279	PROB	3.434	n/a	n/a	-999	11	[8, 6, 2]	16	FR1	0	R1405E
1216.633	2.866	1231713	PROB	2.866	n/a	n/a	-999	11	[2, 4, 4]	10	FR1	0	R1405E
1219.499	0.0	1234579	STOP	n/a	n/a	n/a	-999	11	[-999, -999, -999]	n/a	FR1	0	R1405E
1219.499	2.149	1234582	DISTRACT_END	n/a	n/a	n/a	-999	11	[0, 0, 0]	n/a	FR1	0	R1405E
1221.648	6.924	1236734	REC_START	n/a	n/a	n/a	-999	11	[0, 0, 0]	n/a	FR1	0	R1405E
1228.572	2.187	1243652	REC_WORD	2.187	n/a	HOOK	11	11	[0, 0, 0]	n/a	FR1	0	R1405E
1230.759	2.022	1245839	REC_WORD	2.022	n/a	OWL	10	11	[0, 0, 0]	n/a	FR1	0	R1405E
1232.781	19.106	1247861	REC_WORD	19.106	n/a	SLUSH	9	11	[0, 0, 0]	n/a	FR1	0	R1405E
1251.887	4.01	1266965	REC_END	n/a	n/a	n/a	-999	11	[0, 0, 0]	n/a	FR1	0	R1405E
1255.897	10.35	1270979	COUNTDOWN_START	n/a	n/a	n/a	-999	12	[0, 0, 0]	n/a	FR1	0	R1405E
1266.247	0.001	1281332	COUNTDOWN_END	n/a	n/a	n/a	-999	12	[0, 0, 0]	n/a	FR1	0	R1405E
1266.248	2.332	1281332	ENCODING_START	n/a	n/a	n/a	-999	12	[0, 0, 0]	n/a	FR1	0	R1405E
1268.58	1.616	1283658	WORD	n/a	wordpools/wordpool_long_EN.txt	CANE	1	12	[0, 0, 0]	n/a	FR1	0	R1405E
1270.196	0.8	1285277	WORD_OFF	n/a	n/a	CANE	1	12	[0, 0, 0]	n/a	FR1	0	R1405E
1270.996	1.6	1286075	WORD	n/a	wordpools/wordpool_long_EN.txt	CASH	2	12	[0, 0, 0]	n/a	FR1	0	R1405E
1272.596	1.0	1287672	WORD_OFF	n/a	n/a	CASH	2	12	[0, 0, 0]	n/a	FR1	0	R1405E
1273.596	1.6	1288675	WORD	n/a	wordpools/wordpool_long_EN.txt	FACE	3	12	[0, 0, 0]	n/a	FR1	0	R1405E
1275.196	0.917	1290271	WORD_OFF	n/a	n/a	FACE	3	12	[0, 0, 0]	n/a	FR1	0	R1405E
1276.113	1.616	1291195	WORD	n/a	wordpools/wordpool_long_EN.txt	BOY	4	12	[0, 0, 0]	n/a	FR1	0	R1405E
1277.729	0.967	1292814	WORD_OFF	n/a	n/a	BOY	4	12	[0, 0, 0]	n/a	FR1	0	R1405E
1278.696	1.617	1293772	WORD	n/a	wordpools/wordpool_long_EN.txt	SMILE	5	12	[0, 0, 0]	n/a	FR1	0	R1405E
1280.313	0.983	1295391	WORD_OFF	n/a	n/a	SMILE	5	12	[0, 0, 0]	n/a	FR1	0	R1405E
1281.296	1.616	1296372	WORD	n/a	wordpools/wordpool_long_EN.txt	MULE	6	12	[0, 0, 0]	n/a	FR1	0	R1405E
1282.912	0.834	1297991	WORD_OFF	n/a	n/a	MULE	6	12	[0, 0, 0]	n/a	FR1	0	R1405E
1283.746	1.616	1298823	WORD	n/a	wordpools/wordpool_long_EN.txt	MOUTH	7	12	[0, 0, 0]	n/a	FR1	0	R1405E
1285.362	0.951	1300442	WORD_OFF	n/a	n/a	MOUTH	7	12	[0, 0, 0]	n/a	FR1	0	R1405E
1286.313	1.616	1301389	WORD	n/a	wordpools/wordpool_long_EN.txt	SCOTCH	8	12	[0, 0, 0]	n/a	FR1	0	R1405E
1287.929	0.95	1303008	WORD_OFF	n/a	n/a	SCOTCH	8	12	[0, 0, 0]	n/a	FR1	0	R1405E
1288.879	1.6	1303965	WORD	n/a	wordpools/wordpool_long_EN.txt	BAT	9	12	[0, 0, 0]	n/a	FR1	0	R1405E
1290.479	0.982	1305562	WORD_OFF	n/a	n/a	BAT	9	12	[0, 0, 0]	n/a	FR1	0	R1405E
1291.461	1.601	1306542	WORD	n/a	wordpools/wordpool_long_EN.txt	PALM	10	12	[0, 0, 0]	n/a	FR1	0	R1405E
1293.062	0.917	1308139	WORD_OFF	n/a	n/a	PALM	10	12	[0, 0, 0]	n/a	FR1	0	R1405E
1293.979	1.6	1309062	WORD	n/a	wordpools/wordpool_long_EN.txt	BLADE	11	12	[0, 0, 0]	n/a	FR1	0	R1405E
1295.579	0.799	1310659	WORD_OFF	n/a	n/a	BLADE	11	12	[0, 0, 0]	n/a	FR1	0	R1405E
1296.378	1.6	1311457	WORD	n/a	wordpools/wordpool_long_EN.txt	BUG	12	12	[0, 0, 0]	n/a	FR1	0	R1405E
1297.978	0.0	1313053	WORD_OFF	n/a	n/a	BUG	12	12	[0, 0, 0]	n/a	FR1	0	R1405E
1297.978	0.001	1313058	PROB	0.001	n/a	n/a	-999	12	[5, 5, 3]	13	FR1	0	R1405E
1297.979	0.0	1313059	START	n/a	n/a	n/a	-999	12	[-999, -999, -999]	n/a	FR1	0	R1405E
1297.979	0.0	1313064	ENCODING_END	n/a	n/a	n/a	-999	12	[0, 0, 0]	n/a	FR1	0	R1405E
1297.979	3.116	1313064	DISTRACT_START	n/a	n/a	n/a	-999	12	[0, 0, 0]	n/a	FR1	0	R1405E
1301.095	3.75	1316175	PROB	3.75	n/a	n/a	-999	12	[5, 3, 8]	16	FR1	0	R1405E
1304.845	2.501	1319925	PROB	2.501	n/a	n/a	-999	12	[3, 8, 2]	13	FR1	0	R1405E
1307.346	6.533	1322426	PROB	6.533	n/a	n/a	-999	12	[5, 1, 3]	9	FR1	0	R1405E
1313.879	3.766	1328959	PROB	3.766	n/a	n/a	-999	12	[2, 3, 4]	9	FR1	0	R1405E
1317.645	3.916	1332725	PROB	3.916	n/a	n/a	-999	12	[7, 8, 3]	18	FR1	0	R1405E
1321.561	0.0	1336641	STOP	n/a	n/a	n/a	-999	12	[-999, -999, -999]	n/a	FR1	0	R1405E
1321.561	2.166	1336644	DISTRACT_END	n/a	n/a	n/a	-999	12	[0, 0, 0]	n/a	FR1	0	R1405E
1323.727	3.334	1338807	REC_START	n/a	n/a	n/a	-999	12	[0, 0, 0]	n/a	FR1	0	R1405E
1327.061	2.1	1342141	REC_WORD	2.1	n/a	MUG	-999	12	[0, 0, 0]	n/a	FR1	0	R1405E
1329.161	5.414	1344241	REC_WORD	5.414	n/a	MUD	-999	12	[0, 0, 0]	n/a	FR1	0	R1405E
1334.575	14.305	1349656	REC_WORD	14.305	n/a	BAT	9	12	[0, 0, 0]	n/a	FR1	0	R1405E
1348.88	5.092	1363961	REC_WORD	5.092	n/a	CANE	1	12	[0, 0, 0]	n/a	FR1	0	R1405E
1353.972	0.0	1369050	REC_END	n/a	n/a	n/a	-999	12	[0, 0, 0]	n/a	FR1	0	R1405E
