onset	duration	sample	trial_type	response_time	stim_file	item_name	serialpos	list	test	answer	experiment	session	subject
0.0	15.3	799	INSTRUCT_START	n/a	n/a	n/a	-999	-999	[0, 0, 0]	n/a	FR1	2	R1323T
15.3	1.633	16098	INSTRUCT_END	n/a	n/a	n/a	-999	-999	[0, 0, 0]	n/a	FR1	2	R1323T
16.933	47.388	17731	MIC TEST_START	n/a	n/a	n/a	-999	-999	[0, 0, 0]	n/a	FR1	2	R1323T
64.321	0.009	65117	MIC TEST_END	n/a	n/a	n/a	-999	-999	[0, 0, 0]	n/a	FR1	2	R1323T
64.33	0.0	65126	TRIAL_START	n/a	n/a	n/a	-999	-1	[0, 0, 0]	n/a	FR1	2	R1323T
64.33	0.001	65126	TRIAL	n/a	n/a	n/a	-999	-1	[0, 0, 0]	n/a	FR1	2	R1323T
64.331	51.004	65127	WAITING_START	n/a	n/a	n/a	-999	-1	[0, 0, 0]	n/a	FR1	2	R1323T
115.335	0.0	116129	WAITING_END	n/a	n/a	n/a	-999	-1	[0, 0, 0]	n/a	FR1	2	R1323T
115.335	10.43	116129	COUNTDOWN_START	n/a	n/a	n/a	-999	-1	[0, 0, 0]	n/a	FR1	2	R1323T
125.765	0.0	126559	COUNTDOWN_END	n/a	n/a	n/a	-999	-1	[0, 0, 0]	n/a	FR1	2	R1323T
125.765	1.054	126559	ORIENT_START	n/a	n/a	n/a	-999	-1	[0, 0, 0]	n/a	FR1	2	R1323T
126.819	0.001	127613	ORIENT_END	n/a	n/a	n/a	-999	-1	[0, 0, 0]	n/a	FR1	2	R1323T
126.82	0.969	127614	ENCODING_START	n/a	n/a	n/a	-999	-1	[0, 0, 0]	n/a	FR1	2	R1323T
127.789	1.631	128583	WORD	n/a	n/a	WATCH	1	-1	[0, 0, 0]	n/a	FR1	2	R1323T
129.42	0.879	130214	WORD_OFF	n/a	n/a	WATCH	1	-1	[0, 0, 0]	n/a	FR1	2	R1323T
130.299	1.621	131093	WORD	n/a	n/a	CHEST	2	-1	[0, 0, 0]	n/a	FR1	2	R1323T
131.92	1.002	132714	WORD_OFF	n/a	n/a	CHEST	2	-1	[0, 0, 0]	n/a	FR1	2	R1323T
132.922	1.633	133715	WORD	n/a	n/a	COTTON	3	-1	[0, 0, 0]	n/a	FR1	2	R1323T
134.555	1.045	135348	WORD_OFF	n/a	n/a	COTTON	3	-1	[0, 0, 0]	n/a	FR1	2	R1323T
135.6	1.639	136393	WORD	n/a	n/a	TONGUE	4	-1	[0, 0, 0]	n/a	FR1	2	R1323T
137.239	1.037	138032	WORD_OFF	n/a	n/a	TONGUE	4	-1	[0, 0, 0]	n/a	FR1	2	R1323T
138.276	1.629	139069	WORD	n/a	n/a	IMAGE	5	-1	[0, 0, 0]	n/a	FR1	2	R1323T
139.905	1.144	140698	WORD_OFF	n/a	n/a	IMAGE	5	-1	[0, 0, 0]	n/a	FR1	2	R1323T
141.049	1.624	141842	WORD	n/a	n/a	RHINO	6	-1	[0, 0, 0]	n/a	FR1	2	R1323T
142.673	1.016	143466	WORD_OFF	n/a	n/a	RHINO	6	-1	[0, 0, 0]	n/a	FR1	2	R1323T
143.689	1.634	144482	WORD	n/a	n/a	BABY	7	-1	[0, 0, 0]	n/a	FR1	2	R1323T
145.323	0.854	146116	WORD_OFF	n/a	n/a	BABY	7	-1	[0, 0, 0]	n/a	FR1	2	R1323T
146.177	1.629	146970	WORD	n/a	n/a	BEAM	8	-1	[0, 0, 0]	n/a	FR1	2	R1323T
147.806	0.907	148599	WORD_OFF	n/a	n/a	BEAM	8	-1	[0, 0, 0]	n/a	FR1	2	R1323T
148.713	1.628	149506	WORD	n/a	n/a	WAGON	9	-1	[0, 0, 0]	n/a	FR1	2	R1323T
150.341	1.073	151134	WORD_OFF	n/a	n/a	WAGON	9	-1	[0, 0, 0]	n/a	FR1	2	R1323T
151.414	1.627	152207	WORD	n/a	n/a	RING	10	-1	[0, 0, 0]	n/a	FR1	2	R1323T
153.041	0.853	153834	WORD_OFF	n/a	n/a	RING	10	-1	[0, 0, 0]	n/a	FR1	2	R1323T
153.894	1.631	154687	WORD	n/a	n/a	FLOOD	11	-1	[0, 0, 0]	n/a	FR1	2	R1323T
155.525	1.092	156317	WORD_OFF	n/a	n/a	FLOOD	11	-1	[0, 0, 0]	n/a	FR1	2	R1323T
156.617	1.625	157409	WORD	n/a	n/a	CAMEL	12	-1	[0, 0, 0]	n/a	FR1	2	R1323T
158.242	0.001	159034	WORD_OFF	n/a	n/a	CAMEL	12	-1	[0, 0, 0]	n/a	FR1	2	R1323T
158.243	0.0	159035	ENCODING_END	n/a	n/a	n/a	-999	-1	[0, 0, 0]	n/a	FR1	2	R1323T
158.243	0.0	159035	DISTRACT_START	n/a	n/a	n/a	-999	-1	[0, 0, 0]	n/a	FR1	2	R1323T
158.243	0.016	159035	START	n/a	n/a	n/a	-999	-1	[-999, -999, -999]	n/a	FR1	2	R1323T
158.259	32.032	159051	PROB	32.032	n/a	n/a	-999	-1	[8, 4, 9]	22	FR1	2	R1323T
190.291	0.007	191082	STOP	n/a	n/a	n/a	-999	-1	[-999, -999, -999]	n/a	FR1	2	R1323T
190.298	0.603	191089	DISTRACT_END	n/a	n/a	n/a	-999	-1	[0, 0, 0]	n/a	FR1	2	R1323T
190.901	1.648	191692	RETRIEVAL_ORIENT_START	n/a	n/a	n/a	-999	-1	[0, 0, 0]	n/a	FR1	2	R1323T
192.549	0.0	193340	RETRIEVAL_ORIENT_END	n/a	n/a	n/a	-999	-1	[0, 0, 0]	n/a	FR1	2	R1323T
192.549	3.686	193340	REC_START	n/a	n/a	n/a	-999	-1	[0, 0, 0]	n/a	FR1	2	R1323T
196.235	0.935	197026	REC_WORD	0.935	n/a	WATCH	-999	-1	[0, 0, 0]	n/a	FR1	2	R1323T
197.17	1.66	197961	REC_WORD_VV	1.66	n/a	<>	-999	-1	[0, 0, 0]	n/a	FR1	2	R1323T
198.83	2.193	199621	REC_WORD	2.193	n/a	RHINO	-999	-1	[0, 0, 0]	n/a	FR1	2	R1323T
201.023	18.984	201814	REC_WORD	18.984	n/a	TONE	-999	-1	[0, 0, 0]	n/a	FR1	2	R1323T
220.007	2.554	220797	REC_WORD_VV	2.554	n/a	<>	-999	-1	[0, 0, 0]	n/a	FR1	2	R1323T
222.561	0.0	223351	REC_END	n/a	n/a	n/a	-999	-1	[0, 0, 0]	n/a	FR1	2	R1323T
222.561	14.113	223351	PRACTICE_POST_INSTRUCT_START	n/a	n/a	n/a	-999	-1	[0, 0, 0]	n/a	FR1	2	R1323T
236.674	0.0	237463	PRACTICE_POST_INSTRUCT_END	n/a	n/a	n/a	-999	-1	[0, 0, 0]	n/a	FR1	2	R1323T
236.674	0.017	237463	TRIAL_END	n/a	n/a	n/a	-999	-1	[0, 0, 0]	n/a	FR1	2	R1323T
236.691	0.0	237480	TRIAL_START	n/a	n/a	n/a	-999	1	[0, 0, 0]	n/a	FR1	2	R1323T
236.691	0.0	237480	TRIAL	n/a	n/a	n/a	-999	1	[0, 0, 0]	n/a	FR1	2	R1323T
236.691	34.039	237480	WAITING_START	n/a	n/a	n/a	-999	1	[0, 0, 0]	n/a	FR1	2	R1323T
270.73	0.0	271518	WAITING_END	n/a	n/a	n/a	-999	1	[0, 0, 0]	n/a	FR1	2	R1323T
270.73	10.43	271518	COUNTDOWN_START	n/a	n/a	n/a	-999	1	[0, 0, 0]	n/a	FR1	2	R1323T
281.16	0.0	281947	COUNTDOWN_END	n/a	n/a	n/a	-999	1	[0, 0, 0]	n/a	FR1	2	R1323T
281.16	1.255	281947	ORIENT_START	n/a	n/a	n/a	-999	1	[0, 0, 0]	n/a	FR1	2	R1323T
282.415	0.0	283202	ENCODING_START	n/a	n/a	n/a	-999	1	[0, 0, 0]	n/a	FR1	2	R1323T
282.415	1.123	283202	ORIENT_END	n/a	n/a	n/a	-999	1	[0, 0, 0]	n/a	FR1	2	R1323T
283.538	1.627	284325	WORD	n/a	n/a	PANTS	1	1	[0, 0, 0]	n/a	FR1	2	R1323T
285.165	1.042	285952	WORD_OFF	n/a	n/a	PANTS	1	1	[0, 0, 0]	n/a	FR1	2	R1323T
286.207	1.625	286994	WORD	n/a	n/a	OAR	2	1	[0, 0, 0]	n/a	FR1	2	R1323T
287.832	1.069	288619	WORD_OFF	n/a	n/a	OAR	2	1	[0, 0, 0]	n/a	FR1	2	R1323T
288.901	1.632	289688	WORD	n/a	n/a	TOAST	3	1	[0, 0, 0]	n/a	FR1	2	R1323T
290.533	0.979	291320	WORD_OFF	n/a	n/a	TOAST	3	1	[0, 0, 0]	n/a	FR1	2	R1323T
291.512	1.622	292299	WORD	n/a	n/a	CONE	4	1	[0, 0, 0]	n/a	FR1	2	R1323T
293.134	0.972	293921	WORD_OFF	n/a	n/a	CONE	4	1	[0, 0, 0]	n/a	FR1	2	R1323T
294.106	1.628	294893	WORD	n/a	n/a	STAR	5	1	[0, 0, 0]	n/a	FR1	2	R1323T
295.734	0.81	296521	WORD_OFF	n/a	n/a	STAR	5	1	[0, 0, 0]	n/a	FR1	2	R1323T
296.544	1.624	297331	WORD	n/a	n/a	JAIL	6	1	[0, 0, 0]	n/a	FR1	2	R1323T
298.168	1.143	298954	WORD_OFF	n/a	n/a	JAIL	6	1	[0, 0, 0]	n/a	FR1	2	R1323T
299.311	1.623	300097	WORD	n/a	n/a	SLUSH	7	1	[0, 0, 0]	n/a	FR1	2	R1323T
300.934	0.834	301720	WORD_OFF	n/a	n/a	SLUSH	7	1	[0, 0, 0]	n/a	FR1	2	R1323T
301.768	1.634	302554	WORD	n/a	n/a	JEEP	8	1	[0, 0, 0]	n/a	FR1	2	R1323T
303.402	1.056	304188	WORD_OFF	n/a	n/a	JEEP	8	1	[0, 0, 0]	n/a	FR1	2	R1323T
304.458	1.627	305244	WORD	n/a	n/a	WHALE	9	1	[0, 0, 0]	n/a	FR1	2	R1323T
306.085	1.103	306871	WORD_OFF	n/a	n/a	WHALE	9	1	[0, 0, 0]	n/a	FR1	2	R1323T
307.188	1.631	307974	WORD	n/a	n/a	FARM	10	1	[0, 0, 0]	n/a	FR1	2	R1323T
308.819	0.907	309605	WORD_OFF	n/a	n/a	FARM	10	1	[0, 0, 0]	n/a	FR1	2	R1323T
309.726	1.627	310512	WORD	n/a	n/a	MOON	11	1	[0, 0, 0]	n/a	FR1	2	R1323T
311.353	0.774	312139	WORD_OFF	n/a	n/a	MOON	11	1	[0, 0, 0]	n/a	FR1	2	R1323T
312.127	1.626	312913	WORD	n/a	n/a	STRING	12	1	[0, 0, 0]	n/a	FR1	2	R1323T
313.753	0.0	314539	WORD_OFF	n/a	n/a	STRING	12	1	[0, 0, 0]	n/a	FR1	2	R1323T
313.753	0.001	314539	ENCODING_END	n/a	n/a	n/a	-999	1	[0, 0, 0]	n/a	FR1	2	R1323T
313.754	0.0	314540	DISTRACT_START	n/a	n/a	n/a	-999	1	[0, 0, 0]	n/a	FR1	2	R1323T
313.754	0.015	314540	START	n/a	n/a	n/a	-999	1	[-999, -999, -999]	n/a	FR1	2	R1323T
313.769	11.086	314555	PROB	11.086	n/a	n/a	-999	1	[8, 7, 8]	23	FR1	2	R1323T
324.855	8.201	325640	PROB	8.201	n/a	n/a	-999	1	[3, 2, 9]	15	FR1	2	R1323T
333.056	5.355	333841	PROB	5.355	n/a	n/a	-999	1	[6, 2, 2]	10	FR1	2	R1323T
338.411	0.014	339196	STOP	n/a	n/a	n/a	-999	1	[-999, -999, -999]	n/a	FR1	2	R1323T
338.425	0.551	339210	DISTRACT_END	n/a	n/a	n/a	-999	1	[0, 0, 0]	n/a	FR1	2	R1323T
338.976	1.633	339761	RETRIEVAL_ORIENT_START	n/a	n/a	n/a	-999	1	[0, 0, 0]	n/a	FR1	2	R1323T
340.609	0.0	341394	REC_START	n/a	n/a	n/a	-999	1	[0, 0, 0]	n/a	FR1	2	R1323T
340.609	1.899	341394	RETRIEVAL_ORIENT_END	n/a	n/a	n/a	-999	1	[0, 0, 0]	n/a	FR1	2	R1323T
342.508	0.997	343293	REC_WORD	0.997	n/a	PANTS	1	1	[0, 0, 0]	n/a	FR1	2	R1323T
343.505	0.615	344290	REC_WORD	0.615	n/a	MOON	11	1	[0, 0, 0]	n/a	FR1	2	R1323T
344.12	1.165	344904	REC_WORD	1.165	n/a	STAR	5	1	[0, 0, 0]	n/a	FR1	2	R1323T
345.285	25.336	346069	REC_WORD	25.336	n/a	SLUSH	7	1	[0, 0, 0]	n/a	FR1	2	R1323T
370.621	0.0	371404	REC_END	n/a	n/a	n/a	-999	1	[0, 0, 0]	n/a	FR1	2	R1323T
370.621	0.016	371404	TRIAL_END	n/a	n/a	n/a	-999	1	[0, 0, 0]	n/a	FR1	2	R1323T
370.637	0.0	371420	TRIAL_START	n/a	n/a	n/a	-999	2	[0, 0, 0]	n/a	FR1	2	R1323T
370.637	0.001	371420	TRIAL	n/a	n/a	n/a	-999	2	[0, 0, 0]	n/a	FR1	2	R1323T
370.638	2.793	371421	WAITING_START	n/a	n/a	n/a	-999	2	[0, 0, 0]	n/a	FR1	2	R1323T
373.431	0.001	374214	WAITING_END	n/a	n/a	n/a	-999	2	[0, 0, 0]	n/a	FR1	2	R1323T
373.432	10.429	374215	COUNTDOWN_START	n/a	n/a	n/a	-999	2	[0, 0, 0]	n/a	FR1	2	R1323T
383.861	0.0	384644	COUNTDOWN_END	n/a	n/a	n/a	-999	2	[0, 0, 0]	n/a	FR1	2	R1323T
383.861	1.055	384644	ORIENT_START	n/a	n/a	n/a	-999	2	[0, 0, 0]	n/a	FR1	2	R1323T
384.916	0.0	385699	ENCODING_START	n/a	n/a	n/a	-999	2	[0, 0, 0]	n/a	FR1	2	R1323T
384.916	0.964	385699	ORIENT_END	n/a	n/a	n/a	-999	2	[0, 0, 0]	n/a	FR1	2	R1323T
385.88	1.637	386663	WORD	n/a	n/a	BEACH	1	2	[0, 0, 0]	n/a	FR1	2	R1323T
387.517	0.834	388300	WORD_OFF	n/a	n/a	BEACH	1	2	[0, 0, 0]	n/a	FR1	2	R1323T
388.351	1.632	389134	WORD	n/a	n/a	VAN	2	2	[0, 0, 0]	n/a	FR1	2	R1323T
389.983	0.774	390766	WORD_OFF	n/a	n/a	VAN	2	2	[0, 0, 0]	n/a	FR1	2	R1323T
390.757	1.628	391540	WORD	n/a	n/a	PHONE	3	2	[0, 0, 0]	n/a	FR1	2	R1323T
392.385	1.134	393167	WORD_OFF	n/a	n/a	PHONE	3	2	[0, 0, 0]	n/a	FR1	2	R1323T
393.519	1.633	394301	WORD	n/a	n/a	LAMB	4	2	[0, 0, 0]	n/a	FR1	2	R1323T
395.152	0.97	395934	WORD_OFF	n/a	n/a	LAMB	4	2	[0, 0, 0]	n/a	FR1	2	R1323T
396.122	1.629	396904	WORD	n/a	n/a	RAIN	5	2	[0, 0, 0]	n/a	FR1	2	R1323T
397.751	0.841	398533	WORD_OFF	n/a	n/a	RAIN	5	2	[0, 0, 0]	n/a	FR1	2	R1323T
398.592	1.628	399374	WORD	n/a	n/a	BEAK	6	2	[0, 0, 0]	n/a	FR1	2	R1323T
400.22	1.129	401002	WORD_OFF	n/a	n/a	BEAK	6	2	[0, 0, 0]	n/a	FR1	2	R1323T
401.349	1.62	402131	WORD	n/a	n/a	RIB	7	2	[0, 0, 0]	n/a	FR1	2	R1323T
402.969	0.976	403751	WORD_OFF	n/a	n/a	RIB	7	2	[0, 0, 0]	n/a	FR1	2	R1323T
403.945	1.626	404727	WORD	n/a	n/a	EEL	8	2	[0, 0, 0]	n/a	FR1	2	R1323T
405.571	1.039	406353	WORD_OFF	n/a	n/a	EEL	8	2	[0, 0, 0]	n/a	FR1	2	R1323T
406.61	1.628	407392	WORD	n/a	n/a	SAIL	9	2	[0, 0, 0]	n/a	FR1	2	R1323T
408.238	1.079	409020	WORD_OFF	n/a	n/a	SAIL	9	2	[0, 0, 0]	n/a	FR1	2	R1323T
409.317	1.62	410099	WORD	n/a	n/a	TEETH	10	2	[0, 0, 0]	n/a	FR1	2	R1323T
410.937	1.018	411719	WORD_OFF	n/a	n/a	TEETH	10	2	[0, 0, 0]	n/a	FR1	2	R1323T
411.955	1.617	412737	WORD	n/a	n/a	CROW	11	2	[0, 0, 0]	n/a	FR1	2	R1323T
413.572	0.829	414354	WORD_OFF	n/a	n/a	CROW	11	2	[0, 0, 0]	n/a	FR1	2	R1323T
414.401	1.62	415183	WORD	n/a	n/a	TREE	12	2	[0, 0, 0]	n/a	FR1	2	R1323T
416.021	0.001	416802	WORD_OFF	n/a	n/a	TREE	12	2	[0, 0, 0]	n/a	FR1	2	R1323T
416.022	0.0	416803	ENCODING_END	n/a	n/a	n/a	-999	2	[0, 0, 0]	n/a	FR1	2	R1323T
416.022	0.001	416803	DISTRACT_START	n/a	n/a	n/a	-999	2	[0, 0, 0]	n/a	FR1	2	R1323T
416.023	0.015	416804	START	n/a	n/a	n/a	-999	2	[-999, -999, -999]	n/a	FR1	2	R1323T
416.038	12.187	416819	PROB	12.187	n/a	n/a	-999	2	[5, 7, 7]	19	FR1	2	R1323T
428.225	4.333	429006	PROB	4.333	n/a	n/a	-999	2	[1, 1, 1]	3	FR1	2	R1323T
432.558	5.495	433339	PROB	5.495	n/a	n/a	-999	2	[7, 1, 6]	14	FR1	2	R1323T
438.053	0.022	438834	STOP	n/a	n/a	n/a	-999	2	[-999, -999, -999]	n/a	FR1	2	R1323T
438.075	0.564	438856	DISTRACT_END	n/a	n/a	n/a	-999	2	[0, 0, 0]	n/a	FR1	2	R1323T
438.639	1.538	439419	RETRIEVAL_ORIENT_START	n/a	n/a	n/a	-999	2	[0, 0, 0]	n/a	FR1	2	R1323T
440.177	0.0	440957	REC_START	n/a	n/a	n/a	-999	2	[0, 0, 0]	n/a	FR1	2	R1323T
440.177	1.096	440957	RETRIEVAL_ORIENT_END	n/a	n/a	n/a	-999	2	[0, 0, 0]	n/a	FR1	2	R1323T
441.273	9.849	442053	REC_WORD	9.849	n/a	TEETH	10	2	[0, 0, 0]	n/a	FR1	2	R1323T
451.122	10.402	451902	REC_WORD	10.402	n/a	TRAIL	-999	2	[0, 0, 0]	n/a	FR1	2	R1323T
461.524	8.665	462304	REC_WORD	8.665	n/a	CROW	11	2	[0, 0, 0]	n/a	FR1	2	R1323T
470.189	0.0	470968	REC_END	n/a	n/a	n/a	-999	2	[0, 0, 0]	n/a	FR1	2	R1323T
470.189	0.016	470968	TRIAL_END	n/a	n/a	n/a	-999	2	[0, 0, 0]	n/a	FR1	2	R1323T
470.205	0.001	470984	TRIAL_START	n/a	n/a	n/a	-999	3	[0, 0, 0]	n/a	FR1	2	R1323T
470.206	0.0	470985	TRIAL	n/a	n/a	n/a	-999	3	[0, 0, 0]	n/a	FR1	2	R1323T
470.206	2.592	470985	WAITING_START	n/a	n/a	n/a	-999	3	[0, 0, 0]	n/a	FR1	2	R1323T
472.798	0.001	473577	WAITING_END	n/a	n/a	n/a	-999	3	[0, 0, 0]	n/a	FR1	2	R1323T
472.799	10.429	473578	COUNTDOWN_START	n/a	n/a	n/a	-999	3	[0, 0, 0]	n/a	FR1	2	R1323T
483.228	0.0	484007	COUNTDOWN_END	n/a	n/a	n/a	-999	3	[0, 0, 0]	n/a	FR1	2	R1323T
483.228	1.024	484007	ORIENT_START	n/a	n/a	n/a	-999	3	[0, 0, 0]	n/a	FR1	2	R1323T
484.252	0.0	485031	ENCODING_START	n/a	n/a	n/a	-999	3	[0, 0, 0]	n/a	FR1	2	R1323T
484.252	1.03	485031	ORIENT_END	n/a	n/a	n/a	-999	3	[0, 0, 0]	n/a	FR1	2	R1323T
485.282	1.636	486060	WORD	n/a	n/a	PLATE	1	3	[0, 0, 0]	n/a	FR1	2	R1323T
486.918	1.034	487696	WORD_OFF	n/a	n/a	PLATE	1	3	[0, 0, 0]	n/a	FR1	2	R1323T
487.952	1.634	488730	WORD	n/a	n/a	CAGE	2	3	[0, 0, 0]	n/a	FR1	2	R1323T
489.586	0.798	490364	WORD_OFF	n/a	n/a	CAGE	2	3	[0, 0, 0]	n/a	FR1	2	R1323T
490.384	1.634	491162	WORD	n/a	n/a	HORN	3	3	[0, 0, 0]	n/a	FR1	2	R1323T
492.018	0.958	492796	WORD_OFF	n/a	n/a	HORN	3	3	[0, 0, 0]	n/a	FR1	2	R1323T
492.976	1.627	493754	WORD	n/a	n/a	CAT	4	3	[0, 0, 0]	n/a	FR1	2	R1323T
494.603	1.064	495381	WORD_OFF	n/a	n/a	CAT	4	3	[0, 0, 0]	n/a	FR1	2	R1323T
495.667	1.637	496445	WORD	n/a	n/a	POOL	5	3	[0, 0, 0]	n/a	FR1	2	R1323T
497.304	0.873	498082	WORD_OFF	n/a	n/a	POOL	5	3	[0, 0, 0]	n/a	FR1	2	R1323T
498.177	1.626	498955	WORD	n/a	n/a	WING	6	3	[0, 0, 0]	n/a	FR1	2	R1323T
499.803	0.948	500581	WORD_OFF	n/a	n/a	WING	6	3	[0, 0, 0]	n/a	FR1	2	R1323T
500.751	1.637	501529	WORD	n/a	n/a	FLOOR	7	3	[0, 0, 0]	n/a	FR1	2	R1323T
502.388	1.033	503166	WORD_OFF	n/a	n/a	FLOOR	7	3	[0, 0, 0]	n/a	FR1	2	R1323T
503.421	1.633	504199	WORD	n/a	n/a	COIN	8	3	[0, 0, 0]	n/a	FR1	2	R1323T
505.054	0.92	505832	WORD_OFF	n/a	n/a	COIN	8	3	[0, 0, 0]	n/a	FR1	2	R1323T
505.974	1.632	506752	WORD	n/a	n/a	MOUTH	9	3	[0, 0, 0]	n/a	FR1	2	R1323T
507.606	0.884	508384	WORD_OFF	n/a	n/a	MOUTH	9	3	[0, 0, 0]	n/a	FR1	2	R1323T
508.49	1.633	509268	WORD	n/a	n/a	OAK	10	3	[0, 0, 0]	n/a	FR1	2	R1323T
510.123	0.994	510900	WORD_OFF	n/a	n/a	OAK	10	3	[0, 0, 0]	n/a	FR1	2	R1323T
511.117	1.622	511894	WORD	n/a	n/a	CHIN	11	3	[0, 0, 0]	n/a	FR1	2	R1323T
512.739	1.069	513516	WORD_OFF	n/a	n/a	CHIN	11	3	[0, 0, 0]	n/a	FR1	2	R1323T
513.808	1.632	514585	WORD	n/a	n/a	WHEEL	12	3	[0, 0, 0]	n/a	FR1	2	R1323T
515.44	0.001	516217	WORD_OFF	n/a	n/a	WHEEL	12	3	[0, 0, 0]	n/a	FR1	2	R1323T
515.441	0.0	516218	ENCODING_END	n/a	n/a	n/a	-999	3	[0, 0, 0]	n/a	FR1	2	R1323T
515.441	0.001	516218	DISTRACT_START	n/a	n/a	n/a	-999	3	[0, 0, 0]	n/a	FR1	2	R1323T
515.442	0.015	516219	START	n/a	n/a	n/a	-999	3	[-999, -999, -999]	n/a	FR1	2	R1323T
515.457	5.333	516234	PROB	5.333	n/a	n/a	-999	3	[9, 9, 5]	23	FR1	2	R1323T
520.79	8.703	521567	PROB	8.703	n/a	n/a	-999	3	[6, 6, 8]	20	FR1	2	R1323T
529.493	11.309	530270	PROB	11.309	n/a	n/a	-999	3	[8, 7, 5]	20	FR1	2	R1323T
540.802	0.009	541578	STOP	n/a	n/a	n/a	-999	3	[-999, -999, -999]	n/a	FR1	2	R1323T
540.811	0.585	541587	DISTRACT_END	n/a	n/a	n/a	-999	3	[0, 0, 0]	n/a	FR1	2	R1323T
541.396	1.665	542172	RETRIEVAL_ORIENT_START	n/a	n/a	n/a	-999	3	[0, 0, 0]	n/a	FR1	2	R1323T
543.061	0.0	543837	REC_START	n/a	n/a	n/a	-999	3	[0, 0, 0]	n/a	FR1	2	R1323T
543.061	2.15	543837	RETRIEVAL_ORIENT_END	n/a	n/a	n/a	-999	3	[0, 0, 0]	n/a	FR1	2	R1323T
545.211	0.941	545987	REC_WORD	0.941	n/a	OAK	10	3	[0, 0, 0]	n/a	FR1	2	R1323T
546.152	16.025	546928	REC_WORD	16.025	n/a	MOUTH	9	3	[0, 0, 0]	n/a	FR1	2	R1323T
562.177	1.0	562952	REC_WORD_VV	1.0	n/a	<>	-999	3	[0, 0, 0]	n/a	FR1	2	R1323T
563.177	1.029	563952	REC_WORD_VV	1.029	n/a	<>	-999	3	[0, 0, 0]	n/a	FR1	2	R1323T
564.206	4.002	564981	REC_WORD	4.002	n/a	OAK	10	3	[0, 0, 0]	n/a	FR1	2	R1323T
568.208	4.864	568983	REC_WORD	4.864	n/a	TRAIL	-999	3	[0, 0, 0]	n/a	FR1	2	R1323T
573.072	0.001	573847	REC_END	n/a	n/a	n/a	-999	3	[0, 0, 0]	n/a	FR1	2	R1323T
573.073	0.015	573848	TRIAL_END	n/a	n/a	n/a	-999	3	[0, 0, 0]	n/a	FR1	2	R1323T
573.088	0.0	573863	TRIAL_START	n/a	n/a	n/a	-999	4	[0, 0, 0]	n/a	FR1	2	R1323T
573.088	0.0	573863	TRIAL	n/a	n/a	n/a	-999	4	[0, 0, 0]	n/a	FR1	2	R1323T
573.088	2.762	573863	WAITING_START	n/a	n/a	n/a	-999	4	[0, 0, 0]	n/a	FR1	2	R1323T
575.85	0.001	576625	WAITING_END	n/a	n/a	n/a	-999	4	[0, 0, 0]	n/a	FR1	2	R1323T
575.851	10.429	576626	COUNTDOWN_START	n/a	n/a	n/a	-999	4	[0, 0, 0]	n/a	FR1	2	R1323T
586.28	0.0	587054	ORIENT_START	n/a	n/a	n/a	-999	4	[0, 0, 0]	n/a	FR1	2	R1323T
586.28	1.14	587054	COUNTDOWN_END	n/a	n/a	n/a	-999	4	[0, 0, 0]	n/a	FR1	2	R1323T
587.42	0.0	588194	ORIENT_END	n/a	n/a	n/a	-999	4	[0, 0, 0]	n/a	FR1	2	R1323T
587.42	1.093	588194	ENCODING_START	n/a	n/a	n/a	-999	4	[0, 0, 0]	n/a	FR1	2	R1323T
588.513	1.624	589287	WORD	n/a	n/a	LAMP	1	4	[0, 0, 0]	n/a	FR1	2	R1323T
590.137	0.93	590911	WORD_OFF	n/a	n/a	LAMP	1	4	[0, 0, 0]	n/a	FR1	2	R1323T
591.067	1.637	591841	WORD	n/a	n/a	LOCK	2	4	[0, 0, 0]	n/a	FR1	2	R1323T
592.704	1.084	593478	WORD_OFF	n/a	n/a	LOCK	2	4	[0, 0, 0]	n/a	FR1	2	R1323T
593.788	1.617	594562	WORD	n/a	n/a	WAND	3	4	[0, 0, 0]	n/a	FR1	2	R1323T
595.405	0.957	596179	WORD_OFF	n/a	n/a	WAND	3	4	[0, 0, 0]	n/a	FR1	2	R1323T
596.362	1.626	597136	WORD	n/a	n/a	FOG	4	4	[0, 0, 0]	n/a	FR1	2	R1323T
597.988	0.81	598762	WORD_OFF	n/a	n/a	FOG	4	4	[0, 0, 0]	n/a	FR1	2	R1323T
598.798	1.608	599572	WORD	n/a	n/a	SPOON	5	4	[0, 0, 0]	n/a	FR1	2	R1323T
600.406	1.057	601180	WORD_OFF	n/a	n/a	SPOON	5	4	[0, 0, 0]	n/a	FR1	2	R1323T
601.463	1.626	602237	WORD	n/a	n/a	WAVE	6	4	[0, 0, 0]	n/a	FR1	2	R1323T
603.089	1.004	603862	WORD_OFF	n/a	n/a	WAVE	6	4	[0, 0, 0]	n/a	FR1	2	R1323T
604.093	1.63	604866	WORD	n/a	n/a	FORK	7	4	[0, 0, 0]	n/a	FR1	2	R1323T
605.723	0.916	606496	WORD_OFF	n/a	n/a	FORK	7	4	[0, 0, 0]	n/a	FR1	2	R1323T
606.639	1.635	607412	WORD	n/a	n/a	BRUSH	8	4	[0, 0, 0]	n/a	FR1	2	R1323T
608.274	1.018	609047	WORD_OFF	n/a	n/a	BRUSH	8	4	[0, 0, 0]	n/a	FR1	2	R1323T
609.292	1.631	610065	WORD	n/a	n/a	JUICE	9	4	[0, 0, 0]	n/a	FR1	2	R1323T
610.923	1.11	611696	WORD_OFF	n/a	n/a	JUICE	9	4	[0, 0, 0]	n/a	FR1	2	R1323T
612.033	1.625	612806	WORD	n/a	n/a	FORT	10	4	[0, 0, 0]	n/a	FR1	2	R1323T
613.658	1.126	614431	WORD_OFF	n/a	n/a	FORT	10	4	[0, 0, 0]	n/a	FR1	2	R1323T
614.784	1.608	615557	WORD	n/a	n/a	BRANCH	11	4	[0, 0, 0]	n/a	FR1	2	R1323T
616.392	1.069	617165	WORD_OFF	n/a	n/a	BRANCH	11	4	[0, 0, 0]	n/a	FR1	2	R1323T
617.461	1.631	618234	WORD	n/a	n/a	MAP	12	4	[0, 0, 0]	n/a	FR1	2	R1323T
619.092	0.0	619865	ENCODING_END	n/a	n/a	n/a	-999	4	[0, 0, 0]	n/a	FR1	2	R1323T
619.092	0.0	619865	DISTRACT_START	n/a	n/a	n/a	-999	4	[0, 0, 0]	n/a	FR1	2	R1323T
619.092	0.001	619865	WORD_OFF	n/a	n/a	MAP	12	4	[0, 0, 0]	n/a	FR1	2	R1323T
619.093	0.016	619866	START	n/a	n/a	n/a	-999	4	[-999, -999, -999]	n/a	FR1	2	R1323T
619.109	5.051	619882	PROB	5.051	n/a	n/a	-999	4	[1, 6, 4]	11	FR1	2	R1323T
624.16	4.134	624933	PROB	4.134	n/a	n/a	-999	4	[2, 1, 9]	12	FR1	2	R1323T
628.294	5.5	629066	PROB	5.5	n/a	n/a	-999	4	[4, 3, 1]	8	FR1	2	R1323T
633.794	6.359	634566	PROB	6.359	n/a	n/a	-999	4	[1, 8, 3]	12	FR1	2	R1323T
640.153	0.01	640925	STOP	n/a	n/a	n/a	-999	4	[-999, -999, -999]	n/a	FR1	2	R1323T
640.163	0.551	640935	DISTRACT_END	n/a	n/a	n/a	-999	4	[0, 0, 0]	n/a	FR1	2	R1323T
640.714	1.616	641486	RETRIEVAL_ORIENT_START	n/a	n/a	n/a	-999	4	[0, 0, 0]	n/a	FR1	2	R1323T
642.33	0.0	643102	RETRIEVAL_ORIENT_END	n/a	n/a	n/a	-999	4	[0, 0, 0]	n/a	FR1	2	R1323T
642.33	1.041	643102	REC_START	n/a	n/a	n/a	-999	4	[0, 0, 0]	n/a	FR1	2	R1323T
643.371	1.019	644143	REC_WORD	1.019	n/a	MAP	12	4	[0, 0, 0]	n/a	FR1	2	R1323T
644.39	0.939	645162	REC_WORD	0.939	n/a	FORK	7	4	[0, 0, 0]	n/a	FR1	2	R1323T
645.329	6.387	646101	REC_WORD	6.387	n/a	SPOON	5	4	[0, 0, 0]	n/a	FR1	2	R1323T
651.716	2.483	652487	REC_WORD	2.483	n/a	FOG	4	4	[0, 0, 0]	n/a	FR1	2	R1323T
654.199	18.145	654970	REC_WORD	18.145	n/a	LAMP	1	4	[0, 0, 0]	n/a	FR1	2	R1323T
672.344	0.0	673115	REC_END	n/a	n/a	n/a	-999	4	[0, 0, 0]	n/a	FR1	2	R1323T
672.344	0.015	673115	TRIAL_END	n/a	n/a	n/a	-999	4	[0, 0, 0]	n/a	FR1	2	R1323T
672.359	0.001	673130	TRIAL_START	n/a	n/a	n/a	-999	5	[0, 0, 0]	n/a	FR1	2	R1323T
672.36	0.0	673131	TRIAL	n/a	n/a	n/a	-999	5	[0, 0, 0]	n/a	FR1	2	R1323T
672.36	2.259	673131	WAITING_START	n/a	n/a	n/a	-999	5	[0, 0, 0]	n/a	FR1	2	R1323T
674.619	0.001	675389	WAITING_END	n/a	n/a	n/a	-999	5	[0, 0, 0]	n/a	FR1	2	R1323T
674.62	10.429	675390	COUNTDOWN_START	n/a	n/a	n/a	-999	5	[0, 0, 0]	n/a	FR1	2	R1323T
685.049	0.0	685819	ORIENT_START	n/a	n/a	n/a	-999	5	[0, 0, 0]	n/a	FR1	2	R1323T
685.049	1.256	685819	COUNTDOWN_END	n/a	n/a	n/a	-999	5	[0, 0, 0]	n/a	FR1	2	R1323T
686.305	0.0	687075	ORIENT_END	n/a	n/a	n/a	-999	5	[0, 0, 0]	n/a	FR1	2	R1323T
686.305	1.006	687075	ENCODING_START	n/a	n/a	n/a	-999	5	[0, 0, 0]	n/a	FR1	2	R1323T
687.311	1.627	688081	WORD	n/a	n/a	DESK	1	5	[0, 0, 0]	n/a	FR1	2	R1323T
688.938	0.764	689708	WORD_OFF	n/a	n/a	DESK	1	5	[0, 0, 0]	n/a	FR1	2	R1323T
689.702	1.637	690472	WORD	n/a	n/a	PEN	2	5	[0, 0, 0]	n/a	FR1	2	R1323T
691.339	1.119	692109	WORD_OFF	n/a	n/a	PEN	2	5	[0, 0, 0]	n/a	FR1	2	R1323T
692.458	1.63	693228	WORD	n/a	n/a	FROG	3	5	[0, 0, 0]	n/a	FR1	2	R1323T
694.088	1.118	694858	WORD_OFF	n/a	n/a	FROG	3	5	[0, 0, 0]	n/a	FR1	2	R1323T
695.206	1.633	695976	WORD	n/a	n/a	TOOL	4	5	[0, 0, 0]	n/a	FR1	2	R1323T
696.839	0.777	697609	WORD_OFF	n/a	n/a	TOOL	4	5	[0, 0, 0]	n/a	FR1	2	R1323T
697.616	1.624	698385	WORD	n/a	n/a	CORD	5	5	[0, 0, 0]	n/a	FR1	2	R1323T
699.24	0.802	700009	WORD_OFF	n/a	n/a	CORD	5	5	[0, 0, 0]	n/a	FR1	2	R1323T
700.042	1.632	700811	WORD	n/a	n/a	BOARD	6	5	[0, 0, 0]	n/a	FR1	2	R1323T
701.674	0.891	702443	WORD_OFF	n/a	n/a	BOARD	6	5	[0, 0, 0]	n/a	FR1	2	R1323T
702.565	1.626	703334	WORD	n/a	n/a	SIGN	7	5	[0, 0, 0]	n/a	FR1	2	R1323T
704.191	0.817	704960	WORD_OFF	n/a	n/a	SIGN	7	5	[0, 0, 0]	n/a	FR1	2	R1323T
705.008	1.633	705777	WORD	n/a	n/a	FLUTE	8	5	[0, 0, 0]	n/a	FR1	2	R1323T
706.641	1.115	707410	WORD_OFF	n/a	n/a	FLUTE	8	5	[0, 0, 0]	n/a	FR1	2	R1323T
707.756	1.619	708525	WORD	n/a	n/a	SKY	9	5	[0, 0, 0]	n/a	FR1	2	R1323T
709.375	0.855	710144	WORD_OFF	n/a	n/a	SKY	9	5	[0, 0, 0]	n/a	FR1	2	R1323T
710.23	1.628	710999	WORD	n/a	n/a	SEED	10	5	[0, 0, 0]	n/a	FR1	2	R1323T
711.858	1.138	712627	WORD_OFF	n/a	n/a	SEED	10	5	[0, 0, 0]	n/a	FR1	2	R1323T
712.996	1.614	713765	WORD	n/a	n/a	BANK	11	5	[0, 0, 0]	n/a	FR1	2	R1323T
714.61	0.828	715379	WORD_OFF	n/a	n/a	BANK	11	5	[0, 0, 0]	n/a	FR1	2	R1323T
715.438	1.621	716207	WORD	n/a	n/a	LEAF	12	5	[0, 0, 0]	n/a	FR1	2	R1323T
717.059	0.001	717828	WORD_OFF	n/a	n/a	LEAF	12	5	[0, 0, 0]	n/a	FR1	2	R1323T
717.06	0.0	717829	ENCODING_END	n/a	n/a	n/a	-999	5	[0, 0, 0]	n/a	FR1	2	R1323T
717.06	0.0	717829	DISTRACT_START	n/a	n/a	n/a	-999	5	[0, 0, 0]	n/a	FR1	2	R1323T
717.06	0.016	717829	START	n/a	n/a	n/a	-999	5	[-999, -999, -999]	n/a	FR1	2	R1323T
717.076	6.619	717845	PROB	6.619	n/a	n/a	-999	5	[4, 6, 5]	15	FR1	2	R1323T
723.695	4.5	724463	PROB	4.5	n/a	n/a	-999	5	[5, 6, 1]	12	FR1	2	R1323T
728.195	5.468	728963	PROB	5.468	n/a	n/a	-999	5	[3, 3, 1]	7	FR1	2	R1323T
733.663	14.856	734431	PROB	14.856	n/a	n/a	-999	5	[9, 5, 2]	16	FR1	2	R1323T
748.519	0.014	749286	STOP	n/a	n/a	n/a	-999	5	[-999, -999, -999]	n/a	FR1	2	R1323T
748.533	0.633	749300	DISTRACT_END	n/a	n/a	n/a	-999	5	[0, 0, 0]	n/a	FR1	2	R1323T
749.166	1.716	749933	RETRIEVAL_ORIENT_START	n/a	n/a	n/a	-999	5	[0, 0, 0]	n/a	FR1	2	R1323T
750.882	0.0	751649	RETRIEVAL_ORIENT_END	n/a	n/a	n/a	-999	5	[0, 0, 0]	n/a	FR1	2	R1323T
750.882	7.432	751649	REC_START	n/a	n/a	n/a	-999	5	[0, 0, 0]	n/a	FR1	2	R1323T
758.314	2.828	759081	REC_WORD	2.828	n/a	SKY	9	5	[0, 0, 0]	n/a	FR1	2	R1323T
761.142	1.365	761909	REC_WORD	1.365	n/a	FROG	3	5	[0, 0, 0]	n/a	FR1	2	R1323T
762.507	1.368	763274	REC_WORD	1.368	n/a	DESK	1	5	[0, 0, 0]	n/a	FR1	2	R1323T
763.875	17.019	764642	REC_WORD	17.019	n/a	PENCIL	-999	5	[0, 0, 0]	n/a	FR1	2	R1323T
780.894	0.0	781660	REC_END	n/a	n/a	n/a	-999	5	[0, 0, 0]	n/a	FR1	2	R1323T
780.894	0.017	781660	TRIAL_END	n/a	n/a	n/a	-999	5	[0, 0, 0]	n/a	FR1	2	R1323T
780.911	0.0	781677	TRIAL_START	n/a	n/a	n/a	-999	6	[0, 0, 0]	n/a	FR1	2	R1323T
780.911	0.0	781677	TRIAL	n/a	n/a	n/a	-999	6	[0, 0, 0]	n/a	FR1	2	R1323T
780.911	2.428	781677	WAITING_START	n/a	n/a	n/a	-999	6	[0, 0, 0]	n/a	FR1	2	R1323T
783.339	0.0	784105	WAITING_END	n/a	n/a	n/a	-999	6	[0, 0, 0]	n/a	FR1	2	R1323T
783.339	10.43	784105	COUNTDOWN_START	n/a	n/a	n/a	-999	6	[0, 0, 0]	n/a	FR1	2	R1323T
793.769	0.0	794534	ORIENT_START	n/a	n/a	n/a	-999	6	[0, 0, 0]	n/a	FR1	2	R1323T
793.769	1.021	794534	COUNTDOWN_END	n/a	n/a	n/a	-999	6	[0, 0, 0]	n/a	FR1	2	R1323T
794.79	0.0	795555	ORIENT_END	n/a	n/a	n/a	-999	6	[0, 0, 0]	n/a	FR1	2	R1323T
794.79	1.027	795555	ENCODING_START	n/a	n/a	n/a	-999	6	[0, 0, 0]	n/a	FR1	2	R1323T
795.817	1.625	796582	WORD	n/a	n/a	SLIME	1	6	[0, 0, 0]	n/a	FR1	2	R1323T
797.442	0.907	798207	WORD_OFF	n/a	n/a	SLIME	1	6	[0, 0, 0]	n/a	FR1	2	R1323T
798.349	1.625	799114	WORD	n/a	n/a	VEST	2	6	[0, 0, 0]	n/a	FR1	2	R1323T
799.974	0.816	800739	WORD_OFF	n/a	n/a	VEST	2	6	[0, 0, 0]	n/a	FR1	2	R1323T
800.79	1.637	801555	WORD	n/a	n/a	CORN	3	6	[0, 0, 0]	n/a	FR1	2	R1323T
802.427	1.132	803192	WORD_OFF	n/a	n/a	CORN	3	6	[0, 0, 0]	n/a	FR1	2	R1323T
803.559	1.634	804324	WORD	n/a	n/a	ROPE	4	6	[0, 0, 0]	n/a	FR1	2	R1323T
805.193	0.948	805958	WORD_OFF	n/a	n/a	ROPE	4	6	[0, 0, 0]	n/a	FR1	2	R1323T
806.141	1.635	806906	WORD	n/a	n/a	SALT	5	6	[0, 0, 0]	n/a	FR1	2	R1323T
807.776	0.843	808541	WORD_OFF	n/a	n/a	SALT	5	6	[0, 0, 0]	n/a	FR1	2	R1323T
808.619	1.625	809384	WORD	n/a	n/a	GEESE	6	6	[0, 0, 0]	n/a	FR1	2	R1323T
810.244	1.024	811009	WORD_OFF	n/a	n/a	GEESE	6	6	[0, 0, 0]	n/a	FR1	2	R1323T
811.268	1.625	812033	WORD	n/a	n/a	POLE	7	6	[0, 0, 0]	n/a	FR1	2	R1323T
812.893	0.78	813658	WORD_OFF	n/a	n/a	POLE	7	6	[0, 0, 0]	n/a	FR1	2	R1323T
813.673	1.622	814438	WORD	n/a	n/a	DIME	8	6	[0, 0, 0]	n/a	FR1	2	R1323T
815.295	1.126	816059	WORD_OFF	n/a	n/a	DIME	8	6	[0, 0, 0]	n/a	FR1	2	R1323T
816.421	1.623	817185	WORD	n/a	n/a	MOOSE	9	6	[0, 0, 0]	n/a	FR1	2	R1323T
818.044	0.923	818808	WORD_OFF	n/a	n/a	MOOSE	9	6	[0, 0, 0]	n/a	FR1	2	R1323T
818.967	1.629	819731	WORD	n/a	n/a	CAKE	10	6	[0, 0, 0]	n/a	FR1	2	R1323T
820.596	0.998	821360	WORD_OFF	n/a	n/a	CAKE	10	6	[0, 0, 0]	n/a	FR1	2	R1323T
821.594	1.636	822358	WORD	n/a	n/a	SWAMP	11	6	[0, 0, 0]	n/a	FR1	2	R1323T
823.23	0.784	823994	WORD_OFF	n/a	n/a	SWAMP	11	6	[0, 0, 0]	n/a	FR1	2	R1323T
824.014	1.616	824778	WORD	n/a	n/a	RAKE	12	6	[0, 0, 0]	n/a	FR1	2	R1323T
825.63	0.0	826394	WORD_OFF	n/a	n/a	RAKE	12	6	[0, 0, 0]	n/a	FR1	2	R1323T
825.63	0.001	826394	ENCODING_END	n/a	n/a	n/a	-999	6	[0, 0, 0]	n/a	FR1	2	R1323T
825.631	0.0	826395	DISTRACT_START	n/a	n/a	n/a	-999	6	[0, 0, 0]	n/a	FR1	2	R1323T
825.631	0.015	826395	START	n/a	n/a	n/a	-999	6	[-999, -999, -999]	n/a	FR1	2	R1323T
825.646	4.901	826410	PROB	4.901	n/a	n/a	-999	6	[1, 6, 5]	12	FR1	2	R1323T
830.547	16.153	831311	PROB	16.153	n/a	n/a	-999	6	[6, 7, 8]	21	FR1	2	R1323T
846.7	0.017	847463	STOP	n/a	n/a	n/a	-999	6	[-999, -999, -999]	n/a	FR1	2	R1323T
846.717	0.541	847480	DISTRACT_END	n/a	n/a	n/a	-999	6	[0, 0, 0]	n/a	FR1	2	R1323T
847.258	1.608	848021	RETRIEVAL_ORIENT_START	n/a	n/a	n/a	-999	6	[0, 0, 0]	n/a	FR1	2	R1323T
848.866	0.001	849629	RETRIEVAL_ORIENT_END	n/a	n/a	n/a	-999	6	[0, 0, 0]	n/a	FR1	2	R1323T
848.867	1.51	849630	REC_START	n/a	n/a	n/a	-999	6	[0, 0, 0]	n/a	FR1	2	R1323T
850.377	1.002	851140	REC_WORD	1.002	n/a	POLE	7	6	[0, 0, 0]	n/a	FR1	2	R1323T
851.379	1.248	852142	REC_WORD	1.248	n/a	ROPE	4	6	[0, 0, 0]	n/a	FR1	2	R1323T
852.627	1.78	853390	REC_WORD	1.78	n/a	GEESE	6	6	[0, 0, 0]	n/a	FR1	2	R1323T
854.407	4.243	855170	REC_WORD	4.243	n/a	MOOSE	9	6	[0, 0, 0]	n/a	FR1	2	R1323T
858.65	20.229	859413	REC_WORD	20.229	n/a	SWAMP	11	6	[0, 0, 0]	n/a	FR1	2	R1323T
878.879	0.0	879641	REC_END	n/a	n/a	n/a	-999	6	[0, 0, 0]	n/a	FR1	2	R1323T
878.879	0.016	879641	TRIAL_END	n/a	n/a	n/a	-999	6	[0, 0, 0]	n/a	FR1	2	R1323T
878.895	0.001	879657	TRIAL_START	n/a	n/a	n/a	-999	7	[0, 0, 0]	n/a	FR1	2	R1323T
878.896	0.0	879658	TRIAL	n/a	n/a	n/a	-999	7	[0, 0, 0]	n/a	FR1	2	R1323T
878.896	2.277	879658	WAITING_START	n/a	n/a	n/a	-999	7	[0, 0, 0]	n/a	FR1	2	R1323T
881.173	0.001	881935	WAITING_END	n/a	n/a	n/a	-999	7	[0, 0, 0]	n/a	FR1	2	R1323T
881.174	10.428	881936	COUNTDOWN_START	n/a	n/a	n/a	-999	7	[0, 0, 0]	n/a	FR1	2	R1323T
891.602	0.001	892363	COUNTDOWN_END	n/a	n/a	n/a	-999	7	[0, 0, 0]	n/a	FR1	2	R1323T
891.603	1.106	892364	ORIENT_START	n/a	n/a	n/a	-999	7	[0, 0, 0]	n/a	FR1	2	R1323T
892.709	0.0	893470	ORIENT_END	n/a	n/a	n/a	-999	7	[0, 0, 0]	n/a	FR1	2	R1323T
892.709	1.099	893470	ENCODING_START	n/a	n/a	n/a	-999	7	[0, 0, 0]	n/a	FR1	2	R1323T
893.808	1.618	894569	WORD	n/a	n/a	TOE	1	7	[0, 0, 0]	n/a	FR1	2	R1323T
895.426	1.129	896187	WORD_OFF	n/a	n/a	TOE	1	7	[0, 0, 0]	n/a	FR1	2	R1323T
896.555	1.621	897316	WORD	n/a	n/a	DOOR	2	7	[0, 0, 0]	n/a	FR1	2	R1323T
898.176	0.78	898937	WORD_OFF	n/a	n/a	DOOR	2	7	[0, 0, 0]	n/a	FR1	2	R1323T
898.956	1.638	899717	WORD	n/a	n/a	TEA	3	7	[0, 0, 0]	n/a	FR1	2	R1323T
900.594	0.886	901355	WORD_OFF	n/a	n/a	TEA	3	7	[0, 0, 0]	n/a	FR1	2	R1323T
901.48	1.631	902241	WORD	n/a	n/a	LAND	4	7	[0, 0, 0]	n/a	FR1	2	R1323T
903.111	0.847	903872	WORD_OFF	n/a	n/a	LAND	4	7	[0, 0, 0]	n/a	FR1	2	R1323T
903.958	1.62	904719	WORD	n/a	n/a	BOY	5	7	[0, 0, 0]	n/a	FR1	2	R1323T
905.578	1.111	906339	WORD_OFF	n/a	n/a	BOY	5	7	[0, 0, 0]	n/a	FR1	2	R1323T
906.689	1.623	907450	WORD	n/a	n/a	KEY	6	7	[0, 0, 0]	n/a	FR1	2	R1323T
908.312	0.936	909073	WORD_OFF	n/a	n/a	KEY	6	7	[0, 0, 0]	n/a	FR1	2	R1323T
909.248	1.63	910008	WORD	n/a	n/a	OWL	7	7	[0, 0, 0]	n/a	FR1	2	R1323T
910.878	0.808	911638	WORD_OFF	n/a	n/a	OWL	7	7	[0, 0, 0]	n/a	FR1	2	R1323T
911.686	1.626	912446	WORD	n/a	n/a	SHIRT	8	7	[0, 0, 0]	n/a	FR1	2	R1323T
913.312	1.12	914072	WORD_OFF	n/a	n/a	SHIRT	8	7	[0, 0, 0]	n/a	FR1	2	R1323T
914.432	1.63	915192	WORD	n/a	n/a	GOAT	9	7	[0, 0, 0]	n/a	FR1	2	R1323T
916.062	0.872	916822	WORD_OFF	n/a	n/a	GOAT	9	7	[0, 0, 0]	n/a	FR1	2	R1323T
916.934	1.613	917694	WORD	n/a	n/a	WALL	10	7	[0, 0, 0]	n/a	FR1	2	R1323T
918.547	1.004	919307	WORD_OFF	n/a	n/a	WALL	10	7	[0, 0, 0]	n/a	FR1	2	R1323T
919.551	1.63	920311	WORD	n/a	n/a	MILK	11	7	[0, 0, 0]	n/a	FR1	2	R1323T
921.181	1.1	921941	WORD_OFF	n/a	n/a	MILK	11	7	[0, 0, 0]	n/a	FR1	2	R1323T
922.281	1.632	923041	WORD	n/a	n/a	TRAY	12	7	[0, 0, 0]	n/a	FR1	2	R1323T
923.913	0.001	924673	WORD_OFF	n/a	n/a	TRAY	12	7	[0, 0, 0]	n/a	FR1	2	R1323T
923.914	0.0	924674	ENCODING_END	n/a	n/a	n/a	-999	7	[0, 0, 0]	n/a	FR1	2	R1323T
923.914	0.0	924674	DISTRACT_START	n/a	n/a	n/a	-999	7	[0, 0, 0]	n/a	FR1	2	R1323T
923.914	0.016	924674	START	n/a	n/a	n/a	-999	7	[-999, -999, -999]	n/a	FR1	2	R1323T
923.93	5.268	924690	PROB	5.268	n/a	n/a	-999	7	[8, 1, 1]	10	FR1	2	R1323T
929.198	23.12	929958	PROB	23.12	n/a	n/a	-999	7	[5, 7, 9]	16	FR1	2	R1323T
952.318	0.018	953077	STOP	n/a	n/a	n/a	-999	7	[-999, -999, -999]	n/a	FR1	2	R1323T
952.336	0.567	953095	DISTRACT_END	n/a	n/a	n/a	-999	7	[0, 0, 0]	n/a	FR1	2	R1323T
952.903	1.667	953662	RETRIEVAL_ORIENT_START	n/a	n/a	n/a	-999	7	[0, 0, 0]	n/a	FR1	2	R1323T
954.57	0.0	955329	RETRIEVAL_ORIENT_END	n/a	n/a	n/a	-999	7	[0, 0, 0]	n/a	FR1	2	R1323T
954.57	2.626	955329	REC_START	n/a	n/a	n/a	-999	7	[0, 0, 0]	n/a	FR1	2	R1323T
957.196	1.181	957954	REC_WORD	1.181	n/a	TOE	1	7	[0, 0, 0]	n/a	FR1	2	R1323T
958.377	1.095	959135	REC_WORD	1.095	n/a	DOOR	2	7	[0, 0, 0]	n/a	FR1	2	R1323T
959.472	1.173	960230	REC_WORD	1.173	n/a	WALL	10	7	[0, 0, 0]	n/a	FR1	2	R1323T
960.645	1.704	961403	REC_WORD	1.704	n/a	KEY	6	7	[0, 0, 0]	n/a	FR1	2	R1323T
962.349	8.618	963107	REC_WORD	8.618	n/a	LOCK	-999	7	[0, 0, 0]	n/a	FR1	2	R1323T
970.967	13.616	971725	REC_WORD	13.616	n/a	SLIME	-999	7	[0, 0, 0]	n/a	FR1	2	R1323T
984.583	0.0	985340	REC_END	n/a	n/a	n/a	-999	7	[0, 0, 0]	n/a	FR1	2	R1323T
984.583	0.015	985340	TRIAL_END	n/a	n/a	n/a	-999	7	[0, 0, 0]	n/a	FR1	2	R1323T
984.598	0.0	985355	TRIAL	n/a	n/a	n/a	-999	8	[0, 0, 0]	n/a	FR1	2	R1323T
984.598	0.0	985355	WAITING_START	n/a	n/a	n/a	-999	8	[0, 0, 0]	n/a	FR1	2	R1323T
984.598	2.46	985355	TRIAL_START	n/a	n/a	n/a	-999	8	[0, 0, 0]	n/a	FR1	2	R1323T
987.058	0.001	987815	WAITING_END	n/a	n/a	n/a	-999	8	[0, 0, 0]	n/a	FR1	2	R1323T
987.059	10.428	987816	COUNTDOWN_START	n/a	n/a	n/a	-999	8	[0, 0, 0]	n/a	FR1	2	R1323T
997.487	0.001	998244	COUNTDOWN_END	n/a	n/a	n/a	-999	8	[0, 0, 0]	n/a	FR1	2	R1323T
997.488	1.173	998245	ORIENT_START	n/a	n/a	n/a	-999	8	[0, 0, 0]	n/a	FR1	2	R1323T
998.661	0.001	999418	ORIENT_END	n/a	n/a	n/a	-999	8	[0, 0, 0]	n/a	FR1	2	R1323T
998.662	1.004	999419	ENCODING_START	n/a	n/a	n/a	-999	8	[0, 0, 0]	n/a	FR1	2	R1323T
999.666	1.629	1000423	WORD	n/a	n/a	STAIR	1	8	[0, 0, 0]	n/a	FR1	2	R1323T
1001.295	1.136	1002052	WORD_OFF	n/a	n/a	STAIR	1	8	[0, 0, 0]	n/a	FR1	2	R1323T
1002.431	1.63	1003188	WORD	n/a	n/a	FOAM	2	8	[0, 0, 0]	n/a	FR1	2	R1323T
1004.061	0.804	1004817	WORD_OFF	n/a	n/a	FOAM	2	8	[0, 0, 0]	n/a	FR1	2	R1323T
1004.865	1.631	1005621	WORD	n/a	n/a	VINE	3	8	[0, 0, 0]	n/a	FR1	2	R1323T
1006.496	0.811	1007252	WORD_OFF	n/a	n/a	VINE	3	8	[0, 0, 0]	n/a	FR1	2	R1323T
1007.307	1.622	1008063	WORD	n/a	n/a	CLOUD	4	8	[0, 0, 0]	n/a	FR1	2	R1323T
1008.929	0.784	1009685	WORD_OFF	n/a	n/a	CLOUD	4	8	[0, 0, 0]	n/a	FR1	2	R1323T
1009.713	1.634	1010469	WORD	n/a	n/a	JAR	5	8	[0, 0, 0]	n/a	FR1	2	R1323T
1011.347	0.861	1012103	WORD_OFF	n/a	n/a	JAR	5	8	[0, 0, 0]	n/a	FR1	2	R1323T
1012.208	1.622	1012964	WORD	n/a	n/a	SKI	6	8	[0, 0, 0]	n/a	FR1	2	R1323T
1013.83	1.138	1014586	WORD_OFF	n/a	n/a	SKI	6	8	[0, 0, 0]	n/a	FR1	2	R1323T
1014.968	1.63	1015724	WORD	n/a	n/a	ROAD	7	8	[0, 0, 0]	n/a	FR1	2	R1323T
1016.598	1.018	1017354	WORD_OFF	n/a	n/a	ROAD	7	8	[0, 0, 0]	n/a	FR1	2	R1323T
1017.616	1.632	1018372	WORD	n/a	n/a	GLOVE	8	8	[0, 0, 0]	n/a	FR1	2	R1323T
1019.248	0.878	1020004	WORD_OFF	n/a	n/a	GLOVE	8	8	[0, 0, 0]	n/a	FR1	2	R1323T
1020.126	1.622	1020882	WORD	n/a	n/a	BALL	9	8	[0, 0, 0]	n/a	FR1	2	R1323T
1021.748	0.961	1022504	WORD_OFF	n/a	n/a	BALL	9	8	[0, 0, 0]	n/a	FR1	2	R1323T
1022.709	1.623	1023465	WORD	n/a	n/a	GLASS	10	8	[0, 0, 0]	n/a	FR1	2	R1323T
1024.332	0.899	1025088	WORD_OFF	n/a	n/a	GLASS	10	8	[0, 0, 0]	n/a	FR1	2	R1323T
1025.231	1.634	1025987	WORD	n/a	n/a	FENCE	11	8	[0, 0, 0]	n/a	FR1	2	R1323T
1026.865	1.101	1027621	WORD_OFF	n/a	n/a	FENCE	11	8	[0, 0, 0]	n/a	FR1	2	R1323T
1027.966	1.634	1028721	WORD	n/a	n/a	BUSH	12	8	[0, 0, 0]	n/a	FR1	2	R1323T
1029.6	0.001	1030355	WORD_OFF	n/a	n/a	BUSH	12	8	[0, 0, 0]	n/a	FR1	2	R1323T
1029.601	0.0	1030356	ENCODING_END	n/a	n/a	n/a	-999	8	[0, 0, 0]	n/a	FR1	2	R1323T
1029.601	0.0	1030356	DISTRACT_START	n/a	n/a	n/a	-999	8	[0, 0, 0]	n/a	FR1	2	R1323T
1029.601	0.016	1030356	START	n/a	n/a	n/a	-999	8	[-999, -999, -999]	n/a	FR1	2	R1323T
1029.617	5.4	1030372	PROB	5.4	n/a	n/a	-999	8	[7, 5, 5]	17	FR1	2	R1323T
1035.017	12.253	1035772	PROB	12.253	n/a	n/a	-999	8	[8, 5, 7]	20	FR1	2	R1323T
1047.27	21.172	1048025	PROB	21.172	n/a	n/a	-999	8	[7, 8, 9]	24	FR1	2	R1323T
1068.442	0.015	1069196	STOP	n/a	n/a	n/a	-999	8	[-999, -999, -999]	n/a	FR1	2	R1323T
1068.457	0.639	1069211	DISTRACT_END	n/a	n/a	n/a	-999	8	[0, 0, 0]	n/a	FR1	2	R1323T
1069.096	1.677	1069850	RETRIEVAL_ORIENT_START	n/a	n/a	n/a	-999	8	[0, 0, 0]	n/a	FR1	2	R1323T
1070.773	0.001	1071527	RETRIEVAL_ORIENT_END	n/a	n/a	n/a	-999	8	[0, 0, 0]	n/a	FR1	2	R1323T
1070.774	3.787	1071528	REC_START	n/a	n/a	n/a	-999	8	[0, 0, 0]	n/a	FR1	2	R1323T
1074.561	1.342	1075314	REC_WORD	1.342	n/a	STAIR	1	8	[0, 0, 0]	n/a	FR1	2	R1323T
1075.903	1.0	1076656	REC_WORD_VV	1.0	n/a	<>	-999	8	[0, 0, 0]	n/a	FR1	2	R1323T
1076.903	0.16	1077656	REC_WORD_VV	0.16	n/a	<>	-999	8	[0, 0, 0]	n/a	FR1	2	R1323T
1077.063	2.217	1077816	REC_WORD	2.217	n/a	STAR	-999	8	[0, 0, 0]	n/a	FR1	2	R1323T
1079.28	11.154	1080033	REC_WORD_VV	11.154	n/a	<>	-999	8	[0, 0, 0]	n/a	FR1	2	R1323T
1090.434	3.085	1091187	REC_WORD	3.085	n/a	DIME	-999	8	[0, 0, 0]	n/a	FR1	2	R1323T
1093.519	7.267	1094272	REC_WORD	7.267	n/a	BUSH	12	8	[0, 0, 0]	n/a	FR1	2	R1323T
1100.786	0.0	1101538	TRIAL_END	n/a	n/a	n/a	-999	8	[0, 0, 0]	n/a	FR1	2	R1323T
1100.786	0.015	1101538	REC_END	n/a	n/a	n/a	-999	8	[0, 0, 0]	n/a	FR1	2	R1323T
1100.801	0.0	1101553	TRIAL_START	n/a	n/a	n/a	-999	9	[0, 0, 0]	n/a	FR1	2	R1323T
1100.801	0.0	1101553	TRIAL	n/a	n/a	n/a	-999	9	[0, 0, 0]	n/a	FR1	2	R1323T
1100.801	2.579	1101553	WAITING_START	n/a	n/a	n/a	-999	9	[0, 0, 0]	n/a	FR1	2	R1323T
1103.38	0.001	1104132	WAITING_END	n/a	n/a	n/a	-999	9	[0, 0, 0]	n/a	FR1	2	R1323T
1103.381	10.428	1104133	COUNTDOWN_START	n/a	n/a	n/a	-999	9	[0, 0, 0]	n/a	FR1	2	R1323T
1113.809	0.001	1114561	COUNTDOWN_END	n/a	n/a	n/a	-999	9	[0, 0, 0]	n/a	FR1	2	R1323T
1113.81	1.221	1114562	ORIENT_START	n/a	n/a	n/a	-999	9	[0, 0, 0]	n/a	FR1	2	R1323T
1115.031	0.001	1115783	ORIENT_END	n/a	n/a	n/a	-999	9	[0, 0, 0]	n/a	FR1	2	R1323T
1115.032	0.905	1115784	ENCODING_START	n/a	n/a	n/a	-999	9	[0, 0, 0]	n/a	FR1	2	R1323T
1115.937	1.629	1116689	WORD	n/a	n/a	HAT	1	9	[0, 0, 0]	n/a	FR1	2	R1323T
1117.566	1.11	1118318	WORD_OFF	n/a	n/a	HAT	1	9	[0, 0, 0]	n/a	FR1	2	R1323T
1118.676	1.624	1119428	WORD	n/a	n/a	FACE	2	9	[0, 0, 0]	n/a	FR1	2	R1323T
1120.3	0.964	1121052	WORD_OFF	n/a	n/a	FACE	2	9	[0, 0, 0]	n/a	FR1	2	R1323T
1121.264	1.636	1122015	WORD	n/a	n/a	HOSE	3	9	[0, 0, 0]	n/a	FR1	2	R1323T
1122.9	1.106	1123651	WORD_OFF	n/a	n/a	HOSE	3	9	[0, 0, 0]	n/a	FR1	2	R1323T
1124.006	1.611	1124757	WORD	n/a	n/a	FISH	4	9	[0, 0, 0]	n/a	FR1	2	R1323T
1125.617	1.047	1126368	WORD_OFF	n/a	n/a	FISH	4	9	[0, 0, 0]	n/a	FR1	2	R1323T
1126.664	1.637	1127415	WORD	n/a	n/a	DOLL	5	9	[0, 0, 0]	n/a	FR1	2	R1323T
1128.301	0.817	1129052	WORD_OFF	n/a	n/a	DOLL	5	9	[0, 0, 0]	n/a	FR1	2	R1323T
1129.118	1.633	1129869	WORD	n/a	n/a	BATH	6	9	[0, 0, 0]	n/a	FR1	2	R1323T
1130.751	1.139	1131502	WORD_OFF	n/a	n/a	BATH	6	9	[0, 0, 0]	n/a	FR1	2	R1323T
1131.89	1.629	1132641	WORD	n/a	n/a	LIP	7	9	[0, 0, 0]	n/a	FR1	2	R1323T
1133.519	0.89	1134270	WORD_OFF	n/a	n/a	LIP	7	9	[0, 0, 0]	n/a	FR1	2	R1323T
1134.409	1.626	1135160	WORD	n/a	n/a	SPEAR	8	9	[0, 0, 0]	n/a	FR1	2	R1323T
1136.035	1.12	1136786	WORD_OFF	n/a	n/a	SPEAR	8	9	[0, 0, 0]	n/a	FR1	2	R1323T
1137.155	1.631	1137906	WORD	n/a	n/a	VASE	9	9	[0, 0, 0]	n/a	FR1	2	R1323T
1138.786	1.096	1139537	WORD_OFF	n/a	n/a	VASE	9	9	[0, 0, 0]	n/a	FR1	2	R1323T
1139.882	1.622	1140633	WORD	n/a	n/a	PIN	10	9	[0, 0, 0]	n/a	FR1	2	R1323T
1141.504	0.899	1142255	WORD_OFF	n/a	n/a	PIN	10	9	[0, 0, 0]	n/a	FR1	2	R1323T
1142.403	1.634	1143154	WORD	n/a	n/a	STORE	11	9	[0, 0, 0]	n/a	FR1	2	R1323T
1144.037	1.131	1144788	WORD_OFF	n/a	n/a	STORE	11	9	[0, 0, 0]	n/a	FR1	2	R1323T
1145.168	1.636	1145918	WORD	n/a	n/a	HEART	12	9	[0, 0, 0]	n/a	FR1	2	R1323T
1146.804	0.0	1147554	WORD_OFF	n/a	n/a	HEART	12	9	[0, 0, 0]	n/a	FR1	2	R1323T
1146.804	0.0	1147554	ENCODING_END	n/a	n/a	n/a	-999	9	[0, 0, 0]	n/a	FR1	2	R1323T
1146.804	0.001	1147554	DISTRACT_START	n/a	n/a	n/a	-999	9	[0, 0, 0]	n/a	FR1	2	R1323T
1146.805	0.015	1147555	START	n/a	n/a	n/a	-999	9	[-999, -999, -999]	n/a	FR1	2	R1323T
1146.82	7.503	1147570	PROB	7.503	n/a	n/a	-999	9	[8, 4, 3]	15	FR1	2	R1323T
1154.323	4.449	1155073	PROB	4.449	n/a	n/a	-999	9	[2, 7, 8]	17	FR1	2	R1323T
1158.772	12.599	1159522	PROB	12.599	n/a	n/a	-999	9	[8, 7, 9]	24	FR1	2	R1323T
1171.371	0.022	1172120	STOP	n/a	n/a	n/a	-999	9	[-999, -999, -999]	n/a	FR1	2	R1323T
1171.393	0.581	1172142	DISTRACT_END	n/a	n/a	n/a	-999	9	[0, 0, 0]	n/a	FR1	2	R1323T
1171.974	1.719	1172723	RETRIEVAL_ORIENT_START	n/a	n/a	n/a	-999	9	[0, 0, 0]	n/a	FR1	2	R1323T
1173.693	0.0	1174442	RETRIEVAL_ORIENT_END	n/a	n/a	n/a	-999	9	[0, 0, 0]	n/a	FR1	2	R1323T
1173.693	0.735	1174442	REC_START	n/a	n/a	n/a	-999	9	[0, 0, 0]	n/a	FR1	2	R1323T
1174.428	1.908	1175177	REC_WORD	1.908	n/a	LIP	7	9	[0, 0, 0]	n/a	FR1	2	R1323T
1176.336	27.369	1177085	REC_WORD	27.369	n/a	VASE	9	9	[0, 0, 0]	n/a	FR1	2	R1323T
1203.705	0.0	1204453	TRIAL_END	n/a	n/a	n/a	-999	9	[0, 0, 0]	n/a	FR1	2	R1323T
1203.705	0.016	1204453	REC_END	n/a	n/a	n/a	-999	9	[0, 0, 0]	n/a	FR1	2	R1323T
1203.721	0.0	1204469	TRIAL_START	n/a	n/a	n/a	-999	10	[0, 0, 0]	n/a	FR1	2	R1323T
1203.721	0.0	1204469	TRIAL	n/a	n/a	n/a	-999	10	[0, 0, 0]	n/a	FR1	2	R1323T
1203.721	46.969	1204469	WAITING_START	n/a	n/a	n/a	-999	10	[0, 0, 0]	n/a	FR1	2	R1323T
1250.69	0.001	1251436	WAITING_END	n/a	n/a	n/a	-999	10	[0, 0, 0]	n/a	FR1	2	R1323T
1250.691	10.429	1251437	COUNTDOWN_START	n/a	n/a	n/a	-999	10	[0, 0, 0]	n/a	FR1	2	R1323T
1261.12	0.0	1261866	COUNTDOWN_END	n/a	n/a	n/a	-999	10	[0, 0, 0]	n/a	FR1	2	R1323T
1261.12	1.072	1261866	ORIENT_START	n/a	n/a	n/a	-999	10	[0, 0, 0]	n/a	FR1	2	R1323T
1262.192	0.001	1262938	ORIENT_END	n/a	n/a	n/a	-999	10	[0, 0, 0]	n/a	FR1	2	R1323T
1262.193	1.093	1262939	ENCODING_START	n/a	n/a	n/a	-999	10	[0, 0, 0]	n/a	FR1	2	R1323T
1263.286	1.623	1264031	WORD	n/a	n/a	DART	1	10	[0, 0, 0]	n/a	FR1	2	R1323T
1264.909	0.761	1265654	WORD_OFF	n/a	n/a	DART	1	10	[0, 0, 0]	n/a	FR1	2	R1323T
1265.67	1.623	1266415	WORD	n/a	n/a	TOY	2	10	[0, 0, 0]	n/a	FR1	2	R1323T
1267.293	0.817	1268038	WORD_OFF	n/a	n/a	TOY	2	10	[0, 0, 0]	n/a	FR1	2	R1323T
1268.11	1.633	1268855	WORD	n/a	n/a	TRASH	3	10	[0, 0, 0]	n/a	FR1	2	R1323T
1269.743	0.945	1270488	WORD_OFF	n/a	n/a	TRASH	3	10	[0, 0, 0]	n/a	FR1	2	R1323T
1270.688	1.623	1271433	WORD	n/a	n/a	CLOWN	4	10	[0, 0, 0]	n/a	FR1	2	R1323T
1272.311	0.953	1273056	WORD_OFF	n/a	n/a	CLOWN	4	10	[0, 0, 0]	n/a	FR1	2	R1323T
1273.264	1.63	1274009	WORD	n/a	n/a	STRAW	5	10	[0, 0, 0]	n/a	FR1	2	R1323T
1274.894	0.959	1275639	WORD_OFF	n/a	n/a	STRAW	5	10	[0, 0, 0]	n/a	FR1	2	R1323T
1275.853	1.626	1276598	WORD	n/a	n/a	DOCK	6	10	[0, 0, 0]	n/a	FR1	2	R1323T
1277.479	1.021	1278224	WORD_OFF	n/a	n/a	DOCK	6	10	[0, 0, 0]	n/a	FR1	2	R1323T
1278.5	1.629	1279245	WORD	n/a	n/a	RUG	7	10	[0, 0, 0]	n/a	FR1	2	R1323T
1280.129	0.933	1280874	WORD_OFF	n/a	n/a	RUG	7	10	[0, 0, 0]	n/a	FR1	2	R1323T
1281.062	1.634	1281807	WORD	n/a	n/a	LAWN	8	10	[0, 0, 0]	n/a	FR1	2	R1323T
1282.696	1.031	1283441	WORD_OFF	n/a	n/a	LAWN	8	10	[0, 0, 0]	n/a	FR1	2	R1323T
1283.727	1.636	1284472	WORD	n/a	n/a	EGG	9	10	[0, 0, 0]	n/a	FR1	2	R1323T
1285.363	0.933	1286108	WORD_OFF	n/a	n/a	EGG	9	10	[0, 0, 0]	n/a	FR1	2	R1323T
1286.296	1.633	1287040	WORD	n/a	n/a	BEAR	10	10	[0, 0, 0]	n/a	FR1	2	R1323T
1287.929	0.843	1288673	WORD_OFF	n/a	n/a	BEAR	10	10	[0, 0, 0]	n/a	FR1	2	R1323T
1288.772	1.609	1289516	WORD	n/a	n/a	BRICK	11	10	[0, 0, 0]	n/a	FR1	2	R1323T
1290.381	0.941	1291125	WORD_OFF	n/a	n/a	BRICK	11	10	[0, 0, 0]	n/a	FR1	2	R1323T
1291.322	1.625	1292066	WORD	n/a	n/a	CAVE	12	10	[0, 0, 0]	n/a	FR1	2	R1323T
1292.947	0.0	1293691	ENCODING_END	n/a	n/a	n/a	-999	10	[0, 0, 0]	n/a	FR1	2	R1323T
1292.947	0.001	1293691	WORD_OFF	n/a	n/a	CAVE	12	10	[0, 0, 0]	n/a	FR1	2	R1323T
1292.948	0.0	1293692	DISTRACT_START	n/a	n/a	n/a	-999	10	[0, 0, 0]	n/a	FR1	2	R1323T
1292.948	0.015	1293692	START	n/a	n/a	n/a	-999	10	[-999, -999, -999]	n/a	FR1	2	R1323T
1292.963	8.436	1293707	PROB	8.436	n/a	n/a	-999	10	[4, 1, 7]	12	FR1	2	R1323T
1301.399	5.301	1302143	PROB	5.301	n/a	n/a	-999	10	[2, 3, 2]	7	FR1	2	R1323T
1306.7	5.618	1307444	PROB	5.618	n/a	n/a	-999	10	[2, 7, 5]	14	FR1	2	R1323T
1312.318	4.128	1313061	PROB	4.128	n/a	n/a	-999	10	[3, 8, 2]	13	FR1	2	R1323T
1316.446	0.006	1317189	STOP	n/a	n/a	n/a	-999	10	[-999, -999, -999]	n/a	FR1	2	R1323T
1316.452	0.607	1317195	DISTRACT_END	n/a	n/a	n/a	-999	10	[0, 0, 0]	n/a	FR1	2	R1323T
1317.059	1.61	1317802	RETRIEVAL_ORIENT_START	n/a	n/a	n/a	-999	10	[0, 0, 0]	n/a	FR1	2	R1323T
1318.669	0.001	1319412	RETRIEVAL_ORIENT_END	n/a	n/a	n/a	-999	10	[0, 0, 0]	n/a	FR1	2	R1323T
1318.67	1.023	1319413	REC_START	n/a	n/a	n/a	-999	10	[0, 0, 0]	n/a	FR1	2	R1323T
1319.693	1.261	1320436	REC_WORD	1.261	n/a	CAVE	12	10	[0, 0, 0]	n/a	FR1	2	R1323T
1320.954	10.593	1321697	REC_WORD	10.593	n/a	BEAR	10	10	[0, 0, 0]	n/a	FR1	2	R1323T
1331.547	15.06	1332290	REC_WORD	15.06	n/a	LIP	-999	10	[0, 0, 0]	n/a	FR1	2	R1323T
1346.607	2.074	1347349	REC_WORD	2.074	n/a	DART	1	10	[0, 0, 0]	n/a	FR1	2	R1323T
1348.681	0.0	1349423	REC_END	n/a	n/a	n/a	-999	10	[0, 0, 0]	n/a	FR1	2	R1323T
1348.681	0.017	1349423	TRIAL_END	n/a	n/a	n/a	-999	10	[0, 0, 0]	n/a	FR1	2	R1323T
1348.698	0.0	1349440	TRIAL	n/a	n/a	n/a	-999	11	[0, 0, 0]	n/a	FR1	2	R1323T
1348.698	0.0	1349440	TRIAL_START	n/a	n/a	n/a	-999	11	[0, 0, 0]	n/a	FR1	2	R1323T
1348.698	4.444	1349440	WAITING_START	n/a	n/a	n/a	-999	11	[0, 0, 0]	n/a	FR1	2	R1323T
1353.142	0.001	1353884	WAITING_END	n/a	n/a	n/a	-999	11	[0, 0, 0]	n/a	FR1	2	R1323T
1353.143	10.429	1353885	COUNTDOWN_START	n/a	n/a	n/a	-999	11	[0, 0, 0]	n/a	FR1	2	R1323T
1363.572	0.0	1364313	COUNTDOWN_END	n/a	n/a	n/a	-999	11	[0, 0, 0]	n/a	FR1	2	R1323T
1363.572	1.056	1364313	ORIENT_START	n/a	n/a	n/a	-999	11	[0, 0, 0]	n/a	FR1	2	R1323T
1364.628	0.0	1365369	ORIENT_END	n/a	n/a	n/a	-999	11	[0, 0, 0]	n/a	FR1	2	R1323T
1364.628	0.8	1365369	ENCODING_START	n/a	n/a	n/a	-999	11	[0, 0, 0]	n/a	FR1	2	R1323T
1365.428	1.632	1366169	WORD	n/a	n/a	YARD	1	11	[0, 0, 0]	n/a	FR1	2	R1323T
1367.06	0.919	1367801	WORD_OFF	n/a	n/a	YARD	1	11	[0, 0, 0]	n/a	FR1	2	R1323T
1367.979	1.633	1368720	WORD	n/a	n/a	PIG	2	11	[0, 0, 0]	n/a	FR1	2	R1323T
1369.612	0.991	1370353	WORD_OFF	n/a	n/a	PIG	2	11	[0, 0, 0]	n/a	FR1	2	R1323T
1370.603	1.626	1371344	WORD	n/a	n/a	PURSE	3	11	[0, 0, 0]	n/a	FR1	2	R1323T
1372.229	1.111	1372970	WORD_OFF	n/a	n/a	PURSE	3	11	[0, 0, 0]	n/a	FR1	2	R1323T
1373.34	1.622	1374081	WORD	n/a	n/a	WORM	4	11	[0, 0, 0]	n/a	FR1	2	R1323T
1374.962	1.143	1375703	WORD_OFF	n/a	n/a	WORM	4	11	[0, 0, 0]	n/a	FR1	2	R1323T
1376.105	1.625	1376846	WORD	n/a	n/a	SEA	5	11	[0, 0, 0]	n/a	FR1	2	R1323T
1377.73	0.98	1378471	WORD_OFF	n/a	n/a	SEA	5	11	[0, 0, 0]	n/a	FR1	2	R1323T
1378.71	1.637	1379451	WORD	n/a	n/a	SNAIL	6	11	[0, 0, 0]	n/a	FR1	2	R1323T
1380.347	1.009	1381087	WORD_OFF	n/a	n/a	SNAIL	6	11	[0, 0, 0]	n/a	FR1	2	R1323T
1381.356	1.624	1382096	WORD	n/a	n/a	STREET	7	11	[0, 0, 0]	n/a	FR1	2	R1323T
1382.98	0.992	1383720	WORD_OFF	n/a	n/a	STREET	7	11	[0, 0, 0]	n/a	FR1	2	R1323T
1383.972	1.626	1384712	WORD	n/a	n/a	HEN	8	11	[0, 0, 0]	n/a	FR1	2	R1323T
1385.598	0.936	1386338	WORD_OFF	n/a	n/a	HEN	8	11	[0, 0, 0]	n/a	FR1	2	R1323T
1386.534	1.631	1387274	WORD	n/a	n/a	CART	9	11	[0, 0, 0]	n/a	FR1	2	R1323T
1388.165	0.832	1388905	WORD_OFF	n/a	n/a	CART	9	11	[0, 0, 0]	n/a	FR1	2	R1323T
1388.997	1.635	1389737	WORD	n/a	n/a	TOOTH	10	11	[0, 0, 0]	n/a	FR1	2	R1323T
1390.632	0.875	1391372	WORD_OFF	n/a	n/a	TOOTH	10	11	[0, 0, 0]	n/a	FR1	2	R1323T
1391.507	1.626	1392247	WORD	n/a	n/a	THREAD	11	11	[0, 0, 0]	n/a	FR1	2	R1323T
1393.133	0.778	1393873	WORD_OFF	n/a	n/a	THREAD	11	11	[0, 0, 0]	n/a	FR1	2	R1323T
1393.911	1.605	1394651	WORD	n/a	n/a	PIT	12	11	[0, 0, 0]	n/a	FR1	2	R1323T
1395.516	0.001	1396256	WORD_OFF	n/a	n/a	PIT	12	11	[0, 0, 0]	n/a	FR1	2	R1323T
1395.517	0.0	1396257	DISTRACT_START	n/a	n/a	n/a	-999	11	[0, 0, 0]	n/a	FR1	2	R1323T
1395.517	0.0	1396257	ENCODING_END	n/a	n/a	n/a	-999	11	[0, 0, 0]	n/a	FR1	2	R1323T
1395.517	0.016	1396257	START	n/a	n/a	n/a	-999	11	[-999, -999, -999]	n/a	FR1	2	R1323T
1395.533	13.485	1396273	PROB	13.485	n/a	n/a	-999	11	[4, 9, 4]	17	FR1	2	R1323T
1409.018	6.068	1409757	PROB	6.068	n/a	n/a	-999	11	[9, 2, 4]	15	FR1	2	R1323T
1415.086	5.292	1415825	PROB	5.292	n/a	n/a	-999	11	[8, 1, 8]	17	FR1	2	R1323T
1420.378	0.01	1421117	STOP	n/a	n/a	n/a	-999	11	[-999, -999, -999]	n/a	FR1	2	R1323T
1420.388	0.63	1421127	DISTRACT_END	n/a	n/a	n/a	-999	11	[0, 0, 0]	n/a	FR1	2	R1323T
1421.018	1.637	1421757	RETRIEVAL_ORIENT_START	n/a	n/a	n/a	-999	11	[0, 0, 0]	n/a	FR1	2	R1323T
1422.655	0.0	1423394	RETRIEVAL_ORIENT_END	n/a	n/a	n/a	-999	11	[0, 0, 0]	n/a	FR1	2	R1323T
1422.655	0.672	1423394	REC_START	n/a	n/a	n/a	-999	11	[0, 0, 0]	n/a	FR1	2	R1323T
1423.327	1.25	1424066	REC_WORD	1.25	n/a	PIT	12	11	[0, 0, 0]	n/a	FR1	2	R1323T
1424.577	4.395	1425316	REC_WORD	4.395	n/a	PIG	2	11	[0, 0, 0]	n/a	FR1	2	R1323T
1428.972	2.833	1429710	REC_WORD	2.833	n/a	TOOTH	10	11	[0, 0, 0]	n/a	FR1	2	R1323T
1431.805	5.537	1432543	REC_WORD	5.537	n/a	TREE	-999	11	[0, 0, 0]	n/a	FR1	2	R1323T
1437.342	2.365	1438080	REC_WORD	2.365	n/a	YARD	1	11	[0, 0, 0]	n/a	FR1	2	R1323T
1439.707	7.237	1440445	REC_WORD	7.237	n/a	PEN	-999	11	[0, 0, 0]	n/a	FR1	2	R1323T
1446.944	5.721	1447682	REC_WORD	5.721	n/a	HEN	8	11	[0, 0, 0]	n/a	FR1	2	R1323T
1452.665	0.0	1453402	REC_END	n/a	n/a	n/a	-999	11	[0, 0, 0]	n/a	FR1	2	R1323T
1452.665	0.045	1453402	TRIAL_END	n/a	n/a	n/a	-999	11	[0, 0, 0]	n/a	FR1	2	R1323T
1452.71	0.0	1453447	WAITING_START	n/a	n/a	n/a	-999	12	[0, 0, 0]	n/a	FR1	2	R1323T
1452.71	0.0	1453447	TRIAL	n/a	n/a	n/a	-999	12	[0, 0, 0]	n/a	FR1	2	R1323T
1452.71	3.367	1453447	TRIAL_START	n/a	n/a	n/a	-999	12	[0, 0, 0]	n/a	FR1	2	R1323T
1456.077	0.0	1456814	WAITING_END	n/a	n/a	n/a	-999	12	[0, 0, 0]	n/a	FR1	2	R1323T
1456.077	10.428	1456814	COUNTDOWN_START	n/a	n/a	n/a	-999	12	[0, 0, 0]	n/a	FR1	2	R1323T
1466.505	0.001	1467242	COUNTDOWN_END	n/a	n/a	n/a	-999	12	[0, 0, 0]	n/a	FR1	2	R1323T
1466.506	1.224	1467243	ORIENT_START	n/a	n/a	n/a	-999	12	[0, 0, 0]	n/a	FR1	2	R1323T
1467.73	0.0	1468467	ORIENT_END	n/a	n/a	n/a	-999	12	[0, 0, 0]	n/a	FR1	2	R1323T
1467.73	1.146	1468467	ENCODING_START	n/a	n/a	n/a	-999	12	[0, 0, 0]	n/a	FR1	2	R1323T
1468.876	1.637	1469613	WORD	n/a	n/a	ICE	1	12	[0, 0, 0]	n/a	FR1	2	R1323T
1470.513	0.961	1471250	WORD_OFF	n/a	n/a	ICE	1	12	[0, 0, 0]	n/a	FR1	2	R1323T
1471.474	1.622	1472211	WORD	n/a	n/a	SHEEP	2	12	[0, 0, 0]	n/a	FR1	2	R1323T
1473.096	0.791	1473833	WORD_OFF	n/a	n/a	SHEEP	2	12	[0, 0, 0]	n/a	FR1	2	R1323T
1473.887	1.628	1474624	WORD	n/a	n/a	TOAD	3	12	[0, 0, 0]	n/a	FR1	2	R1323T
1475.515	1.059	1476251	WORD_OFF	n/a	n/a	TOAD	3	12	[0, 0, 0]	n/a	FR1	2	R1323T
1476.574	1.624	1477310	WORD	n/a	n/a	ROOM	4	12	[0, 0, 0]	n/a	FR1	2	R1323T
1478.198	1.129	1478934	WORD_OFF	n/a	n/a	ROOM	4	12	[0, 0, 0]	n/a	FR1	2	R1323T
1479.327	1.621	1480063	WORD	n/a	n/a	EAR	5	12	[0, 0, 0]	n/a	FR1	2	R1323T
1480.948	0.822	1481684	WORD_OFF	n/a	n/a	EAR	5	12	[0, 0, 0]	n/a	FR1	2	R1323T
1481.77	1.612	1482506	WORD	n/a	n/a	FOOD	6	12	[0, 0, 0]	n/a	FR1	2	R1323T
1483.382	1.05	1484118	WORD_OFF	n/a	n/a	FOOD	6	12	[0, 0, 0]	n/a	FR1	2	R1323T
1484.432	1.633	1485168	WORD	n/a	n/a	MOTH	7	12	[0, 0, 0]	n/a	FR1	2	R1323T
1486.065	1.053	1486801	WORD_OFF	n/a	n/a	MOTH	7	12	[0, 0, 0]	n/a	FR1	2	R1323T
1487.118	1.631	1487854	WORD	n/a	n/a	BOOT	8	12	[0, 0, 0]	n/a	FR1	2	R1323T
1488.749	0.823	1489485	WORD_OFF	n/a	n/a	BOOT	8	12	[0, 0, 0]	n/a	FR1	2	R1323T
1489.572	1.629	1490308	WORD	n/a	n/a	INK	9	12	[0, 0, 0]	n/a	FR1	2	R1323T
1491.201	1.017	1491937	WORD_OFF	n/a	n/a	INK	9	12	[0, 0, 0]	n/a	FR1	2	R1323T
1492.218	1.632	1492954	WORD	n/a	n/a	ZOO	10	12	[0, 0, 0]	n/a	FR1	2	R1323T
1493.85	1.142	1494586	WORD_OFF	n/a	n/a	ZOO	10	12	[0, 0, 0]	n/a	FR1	2	R1323T
1494.992	1.626	1495728	WORD	n/a	n/a	DITCH	11	12	[0, 0, 0]	n/a	FR1	2	R1323T
1496.618	0.993	1497354	WORD_OFF	n/a	n/a	DITCH	11	12	[0, 0, 0]	n/a	FR1	2	R1323T
1497.611	1.624	1498347	WORD	n/a	n/a	FOX	12	12	[0, 0, 0]	n/a	FR1	2	R1323T
1499.235	0.001	1499970	WORD_OFF	n/a	n/a	FOX	12	12	[0, 0, 0]	n/a	FR1	2	R1323T
1499.236	0.0	1499971	ENCODING_END	n/a	n/a	n/a	-999	12	[0, 0, 0]	n/a	FR1	2	R1323T
1499.236	0.0	1499971	DISTRACT_START	n/a	n/a	n/a	-999	12	[0, 0, 0]	n/a	FR1	2	R1323T
1499.236	0.016	1499971	START	n/a	n/a	n/a	-999	12	[-999, -999, -999]	n/a	FR1	2	R1323T
1499.252	17.752	1499987	PROB	17.752	n/a	n/a	-999	12	[1, 8, 6]	15	FR1	2	R1323T
1517.004	4.655	1517739	PROB	4.655	n/a	n/a	-999	12	[1, 2, 2]	5	FR1	2	R1323T
1521.659	0.014	1522393	STOP	n/a	n/a	n/a	-999	12	[-999, -999, -999]	n/a	FR1	2	R1323T
1521.673	0.61	1522407	DISTRACT_END	n/a	n/a	n/a	-999	12	[0, 0, 0]	n/a	FR1	2	R1323T
1522.283	1.639	1523017	RETRIEVAL_ORIENT_START	n/a	n/a	n/a	-999	12	[0, 0, 0]	n/a	FR1	2	R1323T
1523.922	0.0	1524656	RETRIEVAL_ORIENT_END	n/a	n/a	n/a	-999	12	[0, 0, 0]	n/a	FR1	2	R1323T
1523.922	10.649	1524656	REC_START	n/a	n/a	n/a	-999	12	[0, 0, 0]	n/a	FR1	2	R1323T
1534.571	0.969	1535305	REC_WORD	0.969	n/a	ICE	1	12	[0, 0, 0]	n/a	FR1	2	R1323T
1535.54	3.601	1536274	REC_WORD	3.601	n/a	ROOM	4	12	[0, 0, 0]	n/a	FR1	2	R1323T
1539.141	2.55	1539875	REC_WORD	2.55	n/a	FOX	12	12	[0, 0, 0]	n/a	FR1	2	R1323T
1541.691	6.649	1542425	REC_WORD	6.649	n/a	ZOO	10	12	[0, 0, 0]	n/a	FR1	2	R1323T
1548.34	4.257	1549073	REC_WORD	4.257	n/a	HEN	-999	12	[0, 0, 0]	n/a	FR1	2	R1323T
1552.597	1.337	1553330	REC_WORD	1.337	n/a	WORM	-999	12	[0, 0, 0]	n/a	FR1	2	R1323T
1553.934	0.0	1554667	TRIAL_END	n/a	n/a	n/a	-999	12	[0, 0, 0]	n/a	FR1	2	R1323T
1553.934	0.016	1554667	REC_END	n/a	n/a	n/a	-999	12	[0, 0, 0]	n/a	FR1	2	R1323T
1553.95	0.001	1554683	TRIAL_START	n/a	n/a	n/a	-999	13	[0, 0, 0]	n/a	FR1	2	R1323T
1553.951	0.0	1554684	TRIAL	n/a	n/a	n/a	-999	13	[0, 0, 0]	n/a	FR1	2	R1323T
1553.951	2.794	1554684	WAITING_START	n/a	n/a	n/a	-999	13	[0, 0, 0]	n/a	FR1	2	R1323T
1556.745	0.0	1557478	WAITING_END	n/a	n/a	n/a	-999	13	[0, 0, 0]	n/a	FR1	2	R1323T
1556.745	10.428	1557478	COUNTDOWN_START	n/a	n/a	n/a	-999	13	[0, 0, 0]	n/a	FR1	2	R1323T
1567.173	0.001	1567906	COUNTDOWN_END	n/a	n/a	n/a	-999	13	[0, 0, 0]	n/a	FR1	2	R1323T
1567.174	1.107	1567907	ORIENT_START	n/a	n/a	n/a	-999	13	[0, 0, 0]	n/a	FR1	2	R1323T
1568.281	0.0	1569014	ORIENT_END	n/a	n/a	n/a	-999	13	[0, 0, 0]	n/a	FR1	2	R1323T
1568.281	0.99	1569014	ENCODING_START	n/a	n/a	n/a	-999	13	[0, 0, 0]	n/a	FR1	2	R1323T
1569.271	1.626	1570003	WORD	n/a	n/a	PEARL	1	13	[0, 0, 0]	n/a	FR1	2	R1323T
1570.897	1.058	1571629	WORD_OFF	n/a	n/a	PEARL	1	13	[0, 0, 0]	n/a	FR1	2	R1323T
1571.955	1.611	1572687	WORD	n/a	n/a	STEAK	2	13	[0, 0, 0]	n/a	FR1	2	R1323T
1573.566	0.766	1574298	WORD_OFF	n/a	n/a	STEAK	2	13	[0, 0, 0]	n/a	FR1	2	R1323T
1574.332	1.633	1575064	WORD	n/a	n/a	CUP	3	13	[0, 0, 0]	n/a	FR1	2	R1323T
1575.965	0.826	1576697	WORD_OFF	n/a	n/a	CUP	3	13	[0, 0, 0]	n/a	FR1	2	R1323T
1576.791	1.625	1577523	WORD	n/a	n/a	HORSE	4	13	[0, 0, 0]	n/a	FR1	2	R1323T
1578.416	0.788	1579148	WORD_OFF	n/a	n/a	HORSE	4	13	[0, 0, 0]	n/a	FR1	2	R1323T
1579.204	1.628	1579936	WORD	n/a	n/a	SOAP	5	13	[0, 0, 0]	n/a	FR1	2	R1323T
1580.832	1.081	1581564	WORD_OFF	n/a	n/a	SOAP	5	13	[0, 0, 0]	n/a	FR1	2	R1323T
1581.913	1.621	1582645	WORD	n/a	n/a	GUARD	6	13	[0, 0, 0]	n/a	FR1	2	R1323T
1583.534	0.861	1584266	WORD_OFF	n/a	n/a	GUARD	6	13	[0, 0, 0]	n/a	FR1	2	R1323T
1584.395	1.622	1585127	WORD	n/a	n/a	WOOD	7	13	[0, 0, 0]	n/a	FR1	2	R1323T
1586.017	0.998	1586749	WORD_OFF	n/a	n/a	WOOD	7	13	[0, 0, 0]	n/a	FR1	2	R1323T
1587.015	1.62	1587747	WORD	n/a	n/a	PASTE	8	13	[0, 0, 0]	n/a	FR1	2	R1323T
1588.635	1.06	1589367	WORD_OFF	n/a	n/a	PASTE	8	13	[0, 0, 0]	n/a	FR1	2	R1323T
1589.695	1.624	1590427	WORD	n/a	n/a	ANT	9	13	[0, 0, 0]	n/a	FR1	2	R1323T
1591.319	0.929	1592051	WORD_OFF	n/a	n/a	ANT	9	13	[0, 0, 0]	n/a	FR1	2	R1323T
1592.248	1.637	1592980	WORD	n/a	n/a	SMOKE	10	13	[0, 0, 0]	n/a	FR1	2	R1323T
1593.885	1.041	1594616	WORD_OFF	n/a	n/a	SMOKE	10	13	[0, 0, 0]	n/a	FR1	2	R1323T
1594.926	1.61	1595657	WORD	n/a	n/a	CRANE	11	13	[0, 0, 0]	n/a	FR1	2	R1323T
1596.536	0.768	1597267	WORD_OFF	n/a	n/a	CRANE	11	13	[0, 0, 0]	n/a	FR1	2	R1323T
1597.304	1.632	1598035	WORD	n/a	n/a	STEAM	12	13	[0, 0, 0]	n/a	FR1	2	R1323T
1598.936	0.0	1599667	WORD_OFF	n/a	n/a	STEAM	12	13	[0, 0, 0]	n/a	FR1	2	R1323T
1598.936	0.0	1599667	ENCODING_END	n/a	n/a	n/a	-999	13	[0, 0, 0]	n/a	FR1	2	R1323T
1598.936	0.001	1599667	DISTRACT_START	n/a	n/a	n/a	-999	13	[0, 0, 0]	n/a	FR1	2	R1323T
1598.937	0.015	1599668	START	n/a	n/a	n/a	-999	13	[-999, -999, -999]	n/a	FR1	2	R1323T
1598.952	5.186	1599683	PROB	5.186	n/a	n/a	-999	13	[5, 9, 5]	19	FR1	2	R1323T
1604.138	6.733	1604869	PROB	6.733	n/a	n/a	-999	13	[4, 7, 3]	14	FR1	2	R1323T
1610.871	6.118	1611602	PROB	6.118	n/a	n/a	-999	13	[9, 5, 3]	17	FR1	2	R1323T
1616.989	4.14	1617719	PROB	4.14	n/a	n/a	-999	13	[2, 8, 3]	13	FR1	2	R1323T
1621.129	0.012	1621859	STOP	n/a	n/a	n/a	-999	13	[-999, -999, -999]	n/a	FR1	2	R1323T
1621.141	0.501	1621871	DISTRACT_END	n/a	n/a	n/a	-999	13	[0, 0, 0]	n/a	FR1	2	R1323T
1621.642	1.733	1622372	RETRIEVAL_ORIENT_START	n/a	n/a	n/a	-999	13	[0, 0, 0]	n/a	FR1	2	R1323T
1623.375	0.0	1624105	RETRIEVAL_ORIENT_END	n/a	n/a	n/a	-999	13	[0, 0, 0]	n/a	FR1	2	R1323T
1623.375	1.554	1624105	REC_START	n/a	n/a	n/a	-999	13	[0, 0, 0]	n/a	FR1	2	R1323T
1624.929	0.791	1625659	REC_WORD_VV	0.791	n/a	<>	-999	13	[0, 0, 0]	n/a	FR1	2	R1323T
1625.72	26.937	1626450	REC_WORD	26.937	n/a	STEAM	12	13	[0, 0, 0]	n/a	FR1	2	R1323T
1652.657	0.73	1653386	REC_WORD	0.73	n/a	BEACH	-999	13	[0, 0, 0]	n/a	FR1	2	R1323T
1653.387	0.0	1654116	REC_END	n/a	n/a	n/a	-999	13	[0, 0, 0]	n/a	FR1	2	R1323T
1653.387	0.018	1654116	TRIAL_END	n/a	n/a	n/a	-999	13	[0, 0, 0]	n/a	FR1	2	R1323T
1653.405	0.0	1654134	WAITING_START	n/a	n/a	n/a	-999	14	[0, 0, 0]	n/a	FR1	2	R1323T
1653.405	0.0	1654134	TRIAL_START	n/a	n/a	n/a	-999	14	[0, 0, 0]	n/a	FR1	2	R1323T
1653.405	3.341	1654134	TRIAL	n/a	n/a	n/a	-999	14	[0, 0, 0]	n/a	FR1	2	R1323T
1656.746	0.0	1657475	WAITING_END	n/a	n/a	n/a	-999	14	[0, 0, 0]	n/a	FR1	2	R1323T
1656.746	10.429	1657475	COUNTDOWN_START	n/a	n/a	n/a	-999	14	[0, 0, 0]	n/a	FR1	2	R1323T
1667.175	0.001	1667903	COUNTDOWN_END	n/a	n/a	n/a	-999	14	[0, 0, 0]	n/a	FR1	2	R1323T
1667.176	1.073	1667904	ORIENT_START	n/a	n/a	n/a	-999	14	[0, 0, 0]	n/a	FR1	2	R1323T
1668.249	0.001	1668977	ORIENT_END	n/a	n/a	n/a	-999	14	[0, 0, 0]	n/a	FR1	2	R1323T
1668.25	0.925	1668978	ENCODING_START	n/a	n/a	n/a	-999	14	[0, 0, 0]	n/a	FR1	2	R1323T
1669.175	1.624	1669903	WORD	n/a	n/a	MOLE	1	14	[0, 0, 0]	n/a	FR1	2	R1323T
1670.799	0.921	1671527	WORD_OFF	n/a	n/a	MOLE	1	14	[0, 0, 0]	n/a	FR1	2	R1323T
1671.72	1.63	1672448	WORD	n/a	n/a	DOG	2	14	[0, 0, 0]	n/a	FR1	2	R1323T
1673.35	0.779	1674078	WORD_OFF	n/a	n/a	DOG	2	14	[0, 0, 0]	n/a	FR1	2	R1323T
1674.129	1.637	1674857	WORD	n/a	n/a	CHAIR	3	14	[0, 0, 0]	n/a	FR1	2	R1323T
1675.766	0.995	1676494	WORD_OFF	n/a	n/a	CHAIR	3	14	[0, 0, 0]	n/a	FR1	2	R1323T
1676.761	1.607	1677489	WORD	n/a	n/a	PIPE	4	14	[0, 0, 0]	n/a	FR1	2	R1323T
1678.368	0.994	1679096	WORD_OFF	n/a	n/a	PIPE	4	14	[0, 0, 0]	n/a	FR1	2	R1323T
1679.362	1.622	1680090	WORD	n/a	n/a	STONE	5	14	[0, 0, 0]	n/a	FR1	2	R1323T
1680.984	1.047	1681712	WORD_OFF	n/a	n/a	STONE	5	14	[0, 0, 0]	n/a	FR1	2	R1323T
1682.031	1.638	1682759	WORD	n/a	n/a	FLAME	6	14	[0, 0, 0]	n/a	FR1	2	R1323T
1683.669	1.034	1684397	WORD_OFF	n/a	n/a	FLAME	6	14	[0, 0, 0]	n/a	FR1	2	R1323T
1684.703	1.633	1685431	WORD	n/a	n/a	MUG	7	14	[0, 0, 0]	n/a	FR1	2	R1323T
1686.336	0.923	1687064	WORD_OFF	n/a	n/a	MUG	7	14	[0, 0, 0]	n/a	FR1	2	R1323T
1687.259	1.626	1687986	WORD	n/a	n/a	HILL	8	14	[0, 0, 0]	n/a	FR1	2	R1323T
1688.885	1.109	1689612	WORD_OFF	n/a	n/a	HILL	8	14	[0, 0, 0]	n/a	FR1	2	R1323T
1689.994	1.626	1690721	WORD	n/a	n/a	ELF	9	14	[0, 0, 0]	n/a	FR1	2	R1323T
1691.62	0.79	1692347	WORD_OFF	n/a	n/a	ELF	9	14	[0, 0, 0]	n/a	FR1	2	R1323T
1692.41	1.627	1693137	WORD	n/a	n/a	ROCK	10	14	[0, 0, 0]	n/a	FR1	2	R1323T
1694.037	0.919	1694764	WORD_OFF	n/a	n/a	ROCK	10	14	[0, 0, 0]	n/a	FR1	2	R1323T
1694.956	1.632	1695683	WORD	n/a	n/a	TIE	11	14	[0, 0, 0]	n/a	FR1	2	R1323T
1696.588	0.78	1697315	WORD_OFF	n/a	n/a	TIE	11	14	[0, 0, 0]	n/a	FR1	2	R1323T
1697.368	1.636	1698095	WORD	n/a	n/a	BEAN	12	14	[0, 0, 0]	n/a	FR1	2	R1323T
1699.004	0.0	1699731	WORD_OFF	n/a	n/a	BEAN	12	14	[0, 0, 0]	n/a	FR1	2	R1323T
1699.004	0.001	1699731	ENCODING_END	n/a	n/a	n/a	-999	14	[0, 0, 0]	n/a	FR1	2	R1323T
1699.005	0.0	1699732	DISTRACT_START	n/a	n/a	n/a	-999	14	[0, 0, 0]	n/a	FR1	2	R1323T
1699.005	0.015	1699732	START	n/a	n/a	n/a	-999	14	[-999, -999, -999]	n/a	FR1	2	R1323T
1699.02	7.935	1699747	PROB	7.935	n/a	n/a	-999	14	[8, 7, 8]	23	FR1	2	R1323T
1706.955	4.685	1707682	PROB	4.685	n/a	n/a	-999	14	[1, 2, 3]	6	FR1	2	R1323T
1711.64	4.684	1712366	PROB	4.684	n/a	n/a	-999	14	[7, 6, 4]	17	FR1	2	R1323T
1716.324	12.576	1717050	PROB	12.576	n/a	n/a	-999	14	[5, 7, 8]	21	FR1	2	R1323T
1728.9	0.009	1729626	STOP	n/a	n/a	n/a	-999	14	[-999, -999, -999]	n/a	FR1	2	R1323T
1728.909	0.52	1729635	DISTRACT_END	n/a	n/a	n/a	-999	14	[0, 0, 0]	n/a	FR1	2	R1323T
1729.429	1.682	1730155	RETRIEVAL_ORIENT_START	n/a	n/a	n/a	-999	14	[0, 0, 0]	n/a	FR1	2	R1323T
1731.111	0.0	1731837	RETRIEVAL_ORIENT_END	n/a	n/a	n/a	-999	14	[0, 0, 0]	n/a	FR1	2	R1323T
1731.111	1.622	1731837	REC_START	n/a	n/a	n/a	-999	14	[0, 0, 0]	n/a	FR1	2	R1323T
1732.733	1.083	1733459	REC_WORD	1.083	n/a	BEAN	12	14	[0, 0, 0]	n/a	FR1	2	R1323T
1733.816	2.906	1734541	REC_WORD	2.906	n/a	MOLE	1	14	[0, 0, 0]	n/a	FR1	2	R1323T
1736.722	3.283	1737447	REC_WORD	3.283	n/a	ROCK	10	14	[0, 0, 0]	n/a	FR1	2	R1323T
1740.005	7.475	1740730	REC_WORD	7.475	n/a	HOLE	-999	14	[0, 0, 0]	n/a	FR1	2	R1323T
1747.48	13.644	1748205	REC_WORD	13.644	n/a	TIE	11	14	[0, 0, 0]	n/a	FR1	2	R1323T
1761.124	0.0	1761848	TRIAL_END	n/a	n/a	n/a	-999	14	[0, 0, 0]	n/a	FR1	2	R1323T
1761.124	0.015	1761848	REC_END	n/a	n/a	n/a	-999	14	[0, 0, 0]	n/a	FR1	2	R1323T
1761.139	0.0	1761863	TRIAL_START	n/a	n/a	n/a	-999	15	[0, 0, 0]	n/a	FR1	2	R1323T
1761.139	0.0	1761863	TRIAL	n/a	n/a	n/a	-999	15	[0, 0, 0]	n/a	FR1	2	R1323T
1761.139	5.528	1761863	WAITING_START	n/a	n/a	n/a	-999	15	[0, 0, 0]	n/a	FR1	2	R1323T
1766.667	0.001	1767391	WAITING_END	n/a	n/a	n/a	-999	15	[0, 0, 0]	n/a	FR1	2	R1323T
1766.668	10.428	1767392	COUNTDOWN_START	n/a	n/a	n/a	-999	15	[0, 0, 0]	n/a	FR1	2	R1323T
1777.096	0.001	1777820	COUNTDOWN_END	n/a	n/a	n/a	-999	15	[0, 0, 0]	n/a	FR1	2	R1323T
1777.097	1.106	1777821	ORIENT_START	n/a	n/a	n/a	-999	15	[0, 0, 0]	n/a	FR1	2	R1323T
1778.203	0.0	1778927	ORIENT_END	n/a	n/a	n/a	-999	15	[0, 0, 0]	n/a	FR1	2	R1323T
1778.203	0.939	1778927	ENCODING_START	n/a	n/a	n/a	-999	15	[0, 0, 0]	n/a	FR1	2	R1323T
1779.142	1.627	1779866	WORD	n/a	n/a	PEA	1	15	[0, 0, 0]	n/a	FR1	2	R1323T
1780.769	1.094	1781492	WORD_OFF	n/a	n/a	PEA	1	15	[0, 0, 0]	n/a	FR1	2	R1323T
1781.863	1.624	1782586	WORD	n/a	n/a	CHEEK	2	15	[0, 0, 0]	n/a	FR1	2	R1323T
1783.487	1.038	1784210	WORD_OFF	n/a	n/a	CHEEK	2	15	[0, 0, 0]	n/a	FR1	2	R1323T
1784.525	1.629	1785248	WORD	n/a	n/a	WORLD	3	15	[0, 0, 0]	n/a	FR1	2	R1323T
1786.154	1.074	1786877	WORD_OFF	n/a	n/a	WORLD	3	15	[0, 0, 0]	n/a	FR1	2	R1323T
1787.228	1.626	1787951	WORD	n/a	n/a	TENT	4	15	[0, 0, 0]	n/a	FR1	2	R1323T
1788.854	1.032	1789577	WORD_OFF	n/a	n/a	TENT	4	15	[0, 0, 0]	n/a	FR1	2	R1323T
1789.886	1.636	1790609	WORD	n/a	n/a	SUN	5	15	[0, 0, 0]	n/a	FR1	2	R1323T
1791.522	0.997	1792245	WORD_OFF	n/a	n/a	SUN	5	15	[0, 0, 0]	n/a	FR1	2	R1323T
1792.519	1.637	1793242	WORD	n/a	n/a	SPRING	6	15	[0, 0, 0]	n/a	FR1	2	R1323T
1794.156	0.995	1794879	WORD_OFF	n/a	n/a	SPRING	6	15	[0, 0, 0]	n/a	FR1	2	R1323T
1795.151	1.621	1795874	WORD	n/a	n/a	CAR	7	15	[0, 0, 0]	n/a	FR1	2	R1323T
1796.772	0.756	1797495	WORD_OFF	n/a	n/a	CAR	7	15	[0, 0, 0]	n/a	FR1	2	R1323T
1797.528	1.628	1798251	WORD	n/a	n/a	CLOCK	8	15	[0, 0, 0]	n/a	FR1	2	R1323T
1799.156	1.06	1799879	WORD_OFF	n/a	n/a	CLOCK	8	15	[0, 0, 0]	n/a	FR1	2	R1323T
1800.216	1.623	1800939	WORD	n/a	n/a	BLOOM	9	15	[0, 0, 0]	n/a	FR1	2	R1323T
1801.839	0.919	1802562	WORD_OFF	n/a	n/a	BLOOM	9	15	[0, 0, 0]	n/a	FR1	2	R1323T
1802.758	1.633	1803481	WORD	n/a	n/a	GOLD	10	15	[0, 0, 0]	n/a	FR1	2	R1323T
1804.391	1.079	1805113	WORD_OFF	n/a	n/a	GOLD	10	15	[0, 0, 0]	n/a	FR1	2	R1323T
1805.47	1.62	1806192	WORD	n/a	n/a	SPARK	11	15	[0, 0, 0]	n/a	FR1	2	R1323T
1807.09	1.133	1807812	WORD_OFF	n/a	n/a	SPARK	11	15	[0, 0, 0]	n/a	FR1	2	R1323T
1808.223	1.634	1808945	WORD	n/a	n/a	WOLF	12	15	[0, 0, 0]	n/a	FR1	2	R1323T
1809.857	0.001	1810579	WORD_OFF	n/a	n/a	WOLF	12	15	[0, 0, 0]	n/a	FR1	2	R1323T
1809.858	0.0	1810580	ENCODING_END	n/a	n/a	n/a	-999	15	[0, 0, 0]	n/a	FR1	2	R1323T
1809.858	0.0	1810580	DISTRACT_START	n/a	n/a	n/a	-999	15	[0, 0, 0]	n/a	FR1	2	R1323T
1809.858	0.016	1810580	START	n/a	n/a	n/a	-999	15	[-999, -999, -999]	n/a	FR1	2	R1323T
1809.874	3.751	1810596	PROB	3.751	n/a	n/a	-999	15	[2, 1, 8]	11	FR1	2	R1323T
1813.625	3.851	1814347	PROB	3.851	n/a	n/a	-999	15	[2, 2, 2]	6	FR1	2	R1323T
1817.476	3.217	1818198	PROB	3.217	n/a	n/a	-999	15	[6, 1, 1]	8	FR1	2	R1323T
1820.693	3.851	1821415	PROB	3.851	n/a	n/a	-999	15	[3, 6, 4]	13	FR1	2	R1323T
1824.544	5.753	1825266	PROB	5.753	n/a	n/a	-999	15	[7, 8, 1]	16	FR1	2	R1323T
1830.297	0.015	1831018	STOP	n/a	n/a	n/a	-999	15	[-999, -999, -999]	n/a	FR1	2	R1323T
1830.312	0.593	1831033	DISTRACT_END	n/a	n/a	n/a	-999	15	[0, 0, 0]	n/a	FR1	2	R1323T
1830.905	1.707	1831626	RETRIEVAL_ORIENT_START	n/a	n/a	n/a	-999	15	[0, 0, 0]	n/a	FR1	2	R1323T
1832.612	0.001	1833333	RETRIEVAL_ORIENT_END	n/a	n/a	n/a	-999	15	[0, 0, 0]	n/a	FR1	2	R1323T
1832.613	7.855	1833334	REC_START	n/a	n/a	n/a	-999	15	[0, 0, 0]	n/a	FR1	2	R1323T
1840.468	1.0	1841189	REC_WORD	1.0	n/a	SPARK	11	15	[0, 0, 0]	n/a	FR1	2	R1323T
1841.468	9.135	1842189	REC_WORD_VV	9.135	n/a	<>	-999	15	[0, 0, 0]	n/a	FR1	2	R1323T
1850.603	1.0	1851324	REC_WORD	1.0	n/a	BEAN	-999	15	[0, 0, 0]	n/a	FR1	2	R1323T
1851.603	11.022	1852323	REC_WORD_VV	11.022	n/a	<>	-999	15	[0, 0, 0]	n/a	FR1	2	R1323T
1862.625	0.0	1863345	TRIAL_END	n/a	n/a	n/a	-999	15	[0, 0, 0]	n/a	FR1	2	R1323T
1862.625	0.014	1863345	REC_END	n/a	n/a	n/a	-999	15	[0, 0, 0]	n/a	FR1	2	R1323T
1862.639	0.001	1863359	TRIAL_START	n/a	n/a	n/a	-999	16	[0, 0, 0]	n/a	FR1	2	R1323T
1862.64	0.0	1863360	TRIAL	n/a	n/a	n/a	-999	16	[0, 0, 0]	n/a	FR1	2	R1323T
1862.64	18.031	1863360	WAITING_START	n/a	n/a	n/a	-999	16	[0, 0, 0]	n/a	FR1	2	R1323T
1880.671	0.001	1881390	WAITING_END	n/a	n/a	n/a	-999	16	[0, 0, 0]	n/a	FR1	2	R1323T
1880.672	10.428	1881391	COUNTDOWN_START	n/a	n/a	n/a	-999	16	[0, 0, 0]	n/a	FR1	2	R1323T
1891.1	0.001	1891819	COUNTDOWN_END	n/a	n/a	n/a	-999	16	[0, 0, 0]	n/a	FR1	2	R1323T
1891.101	1.189	1891820	ORIENT_START	n/a	n/a	n/a	-999	16	[0, 0, 0]	n/a	FR1	2	R1323T
1892.29	0.001	1893009	ORIENT_END	n/a	n/a	n/a	-999	16	[0, 0, 0]	n/a	FR1	2	R1323T
1892.291	1.086	1893010	ENCODING_START	n/a	n/a	n/a	-999	16	[0, 0, 0]	n/a	FR1	2	R1323T
1893.377	1.629	1894096	WORD	n/a	n/a	BIRD	1	16	[0, 0, 0]	n/a	FR1	2	R1323T
1895.006	1.104	1895725	WORD_OFF	n/a	n/a	BIRD	1	16	[0, 0, 0]	n/a	FR1	2	R1323T
1896.11	1.63	1896829	WORD	n/a	n/a	SHARK	2	16	[0, 0, 0]	n/a	FR1	2	R1323T
1897.74	1.089	1898459	WORD_OFF	n/a	n/a	SHARK	2	16	[0, 0, 0]	n/a	FR1	2	R1323T
1898.829	1.629	1899547	WORD	n/a	n/a	ARK	3	16	[0, 0, 0]	n/a	FR1	2	R1323T
1900.458	0.955	1901176	WORD_OFF	n/a	n/a	ARK	3	16	[0, 0, 0]	n/a	FR1	2	R1323T
1901.413	1.628	1902131	WORD	n/a	n/a	HAWK	4	16	[0, 0, 0]	n/a	FR1	2	R1323T
1903.041	0.81	1903759	WORD_OFF	n/a	n/a	HAWK	4	16	[0, 0, 0]	n/a	FR1	2	R1323T
1903.851	1.625	1904569	WORD	n/a	n/a	BAT	5	16	[0, 0, 0]	n/a	FR1	2	R1323T
1905.476	0.984	1906194	WORD_OFF	n/a	n/a	BAT	5	16	[0, 0, 0]	n/a	FR1	2	R1323T
1906.46	1.632	1907178	WORD	n/a	n/a	BLUSH	6	16	[0, 0, 0]	n/a	FR1	2	R1323T
1908.092	0.829	1908810	WORD_OFF	n/a	n/a	BLUSH	6	16	[0, 0, 0]	n/a	FR1	2	R1323T
1908.921	1.622	1909639	WORD	n/a	n/a	SEAT	7	16	[0, 0, 0]	n/a	FR1	2	R1323T
1910.543	0.957	1911261	WORD_OFF	n/a	n/a	SEAT	7	16	[0, 0, 0]	n/a	FR1	2	R1323T
1911.5	1.627	1912218	WORD	n/a	n/a	DRUM	8	16	[0, 0, 0]	n/a	FR1	2	R1323T
1913.127	0.909	1913845	WORD_OFF	n/a	n/a	DRUM	8	16	[0, 0, 0]	n/a	FR1	2	R1323T
1914.036	1.625	1914754	WORD	n/a	n/a	NOSE	9	16	[0, 0, 0]	n/a	FR1	2	R1323T
1915.661	0.868	1916379	WORD_OFF	n/a	n/a	NOSE	9	16	[0, 0, 0]	n/a	FR1	2	R1323T
1916.529	1.632	1917247	WORD	n/a	n/a	PALM	10	16	[0, 0, 0]	n/a	FR1	2	R1323T
1918.161	0.895	1918879	WORD_OFF	n/a	n/a	PALM	10	16	[0, 0, 0]	n/a	FR1	2	R1323T
1919.056	1.622	1919774	WORD	n/a	n/a	BAG	11	16	[0, 0, 0]	n/a	FR1	2	R1323T
1920.678	1.027	1921396	WORD_OFF	n/a	n/a	BAG	11	16	[0, 0, 0]	n/a	FR1	2	R1323T
1921.705	1.624	1922423	WORD	n/a	n/a	SHEET	12	16	[0, 0, 0]	n/a	FR1	2	R1323T
1923.329	0.0	1924046	WORD_OFF	n/a	n/a	SHEET	12	16	[0, 0, 0]	n/a	FR1	2	R1323T
1923.329	0.0	1924046	ENCODING_END	n/a	n/a	n/a	-999	16	[0, 0, 0]	n/a	FR1	2	R1323T
1923.329	0.001	1924046	DISTRACT_START	n/a	n/a	n/a	-999	16	[0, 0, 0]	n/a	FR1	2	R1323T
1923.33	0.015	1924047	START	n/a	n/a	n/a	-999	16	[-999, -999, -999]	n/a	FR1	2	R1323T
1923.345	5.617	1924062	PROB	5.617	n/a	n/a	-999	16	[9, 1, 4]	14	FR1	2	R1323T
1928.962	10.253	1929679	PROB	10.253	n/a	n/a	-999	16	[2, 5, 9]	16	FR1	2	R1323T
1939.215	5.927	1939932	PROB	5.927	n/a	n/a	-999	16	[2, 9, 2]	13	FR1	2	R1323T
1945.142	0.008	1945859	STOP	n/a	n/a	n/a	-999	16	[-999, -999, -999]	n/a	FR1	2	R1323T
1945.15	0.696	1945867	DISTRACT_END	n/a	n/a	n/a	-999	16	[0, 0, 0]	n/a	FR1	2	R1323T
1945.846	1.554	1946562	RETRIEVAL_ORIENT_START	n/a	n/a	n/a	-999	16	[0, 0, 0]	n/a	FR1	2	R1323T
1947.4	0.0	1948116	RETRIEVAL_ORIENT_END	n/a	n/a	n/a	-999	16	[0, 0, 0]	n/a	FR1	2	R1323T
1947.4	1.314	1948116	REC_START	n/a	n/a	n/a	-999	16	[0, 0, 0]	n/a	FR1	2	R1323T
1948.714	0.81	1949430	REC_WORD	0.81	n/a	BAT	5	16	[0, 0, 0]	n/a	FR1	2	R1323T
1949.524	7.347	1950240	REC_WORD	7.347	n/a	HAWK	4	16	[0, 0, 0]	n/a	FR1	2	R1323T
1956.871	9.82	1957587	REC_WORD	9.82	n/a	BAG	11	16	[0, 0, 0]	n/a	FR1	2	R1323T
1966.691	5.03	1967407	REC_WORD	5.03	n/a	SHARK	2	16	[0, 0, 0]	n/a	FR1	2	R1323T
1971.721	5.691	1972436	REC_WORD	5.691	n/a	CROW	-999	16	[0, 0, 0]	n/a	FR1	2	R1323T
1977.412	0.0	1978127	TRIAL_END	n/a	n/a	n/a	-999	16	[0, 0, 0]	n/a	FR1	2	R1323T
1977.412	0.014	1978127	REC_END	n/a	n/a	n/a	-999	16	[0, 0, 0]	n/a	FR1	2	R1323T
1977.426	0.001	1978141	TRIAL_START	n/a	n/a	n/a	-999	17	[0, 0, 0]	n/a	FR1	2	R1323T
1977.427	0.0	1978142	TRIAL	n/a	n/a	n/a	-999	17	[0, 0, 0]	n/a	FR1	2	R1323T
1977.427	2.796	1978142	WAITING_START	n/a	n/a	n/a	-999	17	[0, 0, 0]	n/a	FR1	2	R1323T
1980.223	0.0	1980938	WAITING_END	n/a	n/a	n/a	-999	17	[0, 0, 0]	n/a	FR1	2	R1323T
1980.223	10.428	1980938	COUNTDOWN_START	n/a	n/a	n/a	-999	17	[0, 0, 0]	n/a	FR1	2	R1323T
1990.651	0.0	1991366	COUNTDOWN_END	n/a	n/a	n/a	-999	17	[0, 0, 0]	n/a	FR1	2	R1323T
1990.651	1.024	1991366	ORIENT_START	n/a	n/a	n/a	-999	17	[0, 0, 0]	n/a	FR1	2	R1323T
1991.675	0.0	1992390	ORIENT_END	n/a	n/a	n/a	-999	17	[0, 0, 0]	n/a	FR1	2	R1323T
1991.675	0.964	1992390	ENCODING_START	n/a	n/a	n/a	-999	17	[0, 0, 0]	n/a	FR1	2	R1323T
1992.639	1.636	1993354	WORD	n/a	n/a	FRUIT	1	17	[0, 0, 0]	n/a	FR1	2	R1323T
1994.275	1.14	1994989	WORD_OFF	n/a	n/a	FRUIT	1	17	[0, 0, 0]	n/a	FR1	2	R1323T
1995.415	1.626	1996129	WORD	n/a	n/a	FUDGE	2	17	[0, 0, 0]	n/a	FR1	2	R1323T
1997.041	0.769	1997755	WORD_OFF	n/a	n/a	FUDGE	2	17	[0, 0, 0]	n/a	FR1	2	R1323T
1997.81	1.633	1998524	WORD	n/a	n/a	BEE	3	17	[0, 0, 0]	n/a	FR1	2	R1323T
1999.443	1.086	2000157	WORD_OFF	n/a	n/a	BEE	3	17	[0, 0, 0]	n/a	FR1	2	R1323T
2000.529	1.631	2001243	WORD	n/a	n/a	BOOK	4	17	[0, 0, 0]	n/a	FR1	2	R1323T
2002.16	0.785	2002874	WORD_OFF	n/a	n/a	BOOK	4	17	[0, 0, 0]	n/a	FR1	2	R1323T
2002.945	1.632	2003659	WORD	n/a	n/a	CLIFF	5	17	[0, 0, 0]	n/a	FR1	2	R1323T
2004.577	1.112	2005291	WORD_OFF	n/a	n/a	CLIFF	5	17	[0, 0, 0]	n/a	FR1	2	R1323T
2005.689	1.622	2006403	WORD	n/a	n/a	STORM	6	17	[0, 0, 0]	n/a	FR1	2	R1323T
2007.311	1.083	2008025	WORD_OFF	n/a	n/a	STORM	6	17	[0, 0, 0]	n/a	FR1	2	R1323T
2008.394	1.633	2009108	WORD	n/a	n/a	ARM	7	17	[0, 0, 0]	n/a	FR1	2	R1323T
2010.027	1.14	2010741	WORD_OFF	n/a	n/a	ARM	7	17	[0, 0, 0]	n/a	FR1	2	R1323T
2011.167	1.627	2011881	WORD	n/a	n/a	DEER	8	17	[0, 0, 0]	n/a	FR1	2	R1323T
2012.794	0.959	2013508	WORD_OFF	n/a	n/a	DEER	8	17	[0, 0, 0]	n/a	FR1	2	R1323T
2013.753	1.626	2014467	WORD	n/a	n/a	RICE	9	17	[0, 0, 0]	n/a	FR1	2	R1323T
2015.379	0.999	2016093	WORD_OFF	n/a	n/a	RICE	9	17	[0, 0, 0]	n/a	FR1	2	R1323T
2016.378	1.634	2017091	WORD	n/a	n/a	SOCK	10	17	[0, 0, 0]	n/a	FR1	2	R1323T
2018.012	0.821	2018725	WORD_OFF	n/a	n/a	SOCK	10	17	[0, 0, 0]	n/a	FR1	2	R1323T
2018.833	1.63	2019546	WORD	n/a	n/a	SLEEVE	11	17	[0, 0, 0]	n/a	FR1	2	R1323T
2020.463	0.974	2021176	WORD_OFF	n/a	n/a	SLEEVE	11	17	[0, 0, 0]	n/a	FR1	2	R1323T
2021.437	1.626	2022150	WORD	n/a	n/a	HOLE	12	17	[0, 0, 0]	n/a	FR1	2	R1323T
2023.063	0.0	2023776	WORD_OFF	n/a	n/a	HOLE	12	17	[0, 0, 0]	n/a	FR1	2	R1323T
2023.063	0.001	2023776	ENCODING_END	n/a	n/a	n/a	-999	17	[0, 0, 0]	n/a	FR1	2	R1323T
2023.064	0.0	2023777	DISTRACT_START	n/a	n/a	n/a	-999	17	[0, 0, 0]	n/a	FR1	2	R1323T
2023.064	0.015	2023777	START	n/a	n/a	n/a	-999	17	[-999, -999, -999]	n/a	FR1	2	R1323T
2023.079	10.902	2023792	PROB	10.902	n/a	n/a	-999	17	[2, 6, 7]	15	FR1	2	R1323T
2033.981	23.516	2034694	PROB	23.516	n/a	n/a	-999	17	[4, 8, 7]	19	FR1	2	R1323T
2057.497	0.006	2058209	STOP	n/a	n/a	n/a	-999	17	[-999, -999, -999]	n/a	FR1	2	R1323T
2057.503	0.672	2058215	DISTRACT_END	n/a	n/a	n/a	-999	17	[0, 0, 0]	n/a	FR1	2	R1323T
2058.175	1.728	2058887	RETRIEVAL_ORIENT_START	n/a	n/a	n/a	-999	17	[0, 0, 0]	n/a	FR1	2	R1323T
2059.903	0.0	2060615	RETRIEVAL_ORIENT_END	n/a	n/a	n/a	-999	17	[0, 0, 0]	n/a	FR1	2	R1323T
2059.903	4.674	2060615	REC_START	n/a	n/a	n/a	-999	17	[0, 0, 0]	n/a	FR1	2	R1323T
2064.577	1.114	2065288	REC_WORD	1.114	n/a	SOCK	10	17	[0, 0, 0]	n/a	FR1	2	R1323T
2065.691	9.797	2066402	REC_WORD	9.797	n/a	SLEEVE	11	17	[0, 0, 0]	n/a	FR1	2	R1323T
2075.488	7.739	2076199	REC_WORD	7.739	n/a	LIP	-999	17	[0, 0, 0]	n/a	FR1	2	R1323T
2083.227	6.686	2083938	REC_WORD	6.686	n/a	CLOCK	-999	17	[0, 0, 0]	n/a	FR1	2	R1323T
2089.913	0.001	2090623	REC_END	n/a	n/a	n/a	-999	17	[0, 0, 0]	n/a	FR1	2	R1323T
2089.914	0.016	2090624	TRIAL_END	n/a	n/a	n/a	-999	17	[0, 0, 0]	n/a	FR1	2	R1323T
2089.93	0.0	2090640	TRIAL_START	n/a	n/a	n/a	-999	18	[0, 0, 0]	n/a	FR1	2	R1323T
2089.93	0.0	2090640	TRIAL	n/a	n/a	n/a	-999	18	[0, 0, 0]	n/a	FR1	2	R1323T
2089.93	2.346	2090640	WAITING_START	n/a	n/a	n/a	-999	18	[0, 0, 0]	n/a	FR1	2	R1323T
2092.276	0.001	2092986	WAITING_END	n/a	n/a	n/a	-999	18	[0, 0, 0]	n/a	FR1	2	R1323T
2092.277	10.429	2092987	COUNTDOWN_START	n/a	n/a	n/a	-999	18	[0, 0, 0]	n/a	FR1	2	R1323T
2102.706	0.0	2103416	COUNTDOWN_END	n/a	n/a	n/a	-999	18	[0, 0, 0]	n/a	FR1	2	R1323T
2102.706	1.122	2103416	ORIENT_START	n/a	n/a	n/a	-999	18	[0, 0, 0]	n/a	FR1	2	R1323T
2103.828	0.0	2104538	ORIENT_END	n/a	n/a	n/a	-999	18	[0, 0, 0]	n/a	FR1	2	R1323T
2103.828	1.026	2104538	ENCODING_START	n/a	n/a	n/a	-999	18	[0, 0, 0]	n/a	FR1	2	R1323T
2104.854	1.625	2105564	WORD	n/a	n/a	BARN	1	18	[0, 0, 0]	n/a	FR1	2	R1323T
2106.479	0.881	2107189	WORD_OFF	n/a	n/a	BARN	1	18	[0, 0, 0]	n/a	FR1	2	R1323T
2107.36	1.635	2108070	WORD	n/a	n/a	FOOT	2	18	[0, 0, 0]	n/a	FR1	2	R1323T
2108.995	0.83	2109705	WORD_OFF	n/a	n/a	FOOT	2	18	[0, 0, 0]	n/a	FR1	2	R1323T
2109.825	1.605	2110535	WORD	n/a	n/a	FLAG	3	18	[0, 0, 0]	n/a	FR1	2	R1323T
2111.43	0.776	2112139	WORD_OFF	n/a	n/a	FLAG	3	18	[0, 0, 0]	n/a	FR1	2	R1323T
2112.206	1.623	2112915	WORD	n/a	n/a	STEM	4	18	[0, 0, 0]	n/a	FR1	2	R1323T
2113.829	0.856	2114538	WORD_OFF	n/a	n/a	STEM	4	18	[0, 0, 0]	n/a	FR1	2	R1323T
2114.685	1.629	2115394	WORD	n/a	n/a	JET	5	18	[0, 0, 0]	n/a	FR1	2	R1323T
2116.314	1.029	2117023	WORD_OFF	n/a	n/a	JET	5	18	[0, 0, 0]	n/a	FR1	2	R1323T
2117.343	1.62	2118052	WORD	n/a	n/a	SOUP	6	18	[0, 0, 0]	n/a	FR1	2	R1323T
2118.963	1.104	2119672	WORD_OFF	n/a	n/a	SOUP	6	18	[0, 0, 0]	n/a	FR1	2	R1323T
2120.067	1.615	2120776	WORD	n/a	n/a	LAKE	7	18	[0, 0, 0]	n/a	FR1	2	R1323T
2121.682	1.068	2122391	WORD_OFF	n/a	n/a	LAKE	7	18	[0, 0, 0]	n/a	FR1	2	R1323T
2122.75	1.632	2123459	WORD	n/a	n/a	NET	8	18	[0, 0, 0]	n/a	FR1	2	R1323T
2124.382	0.87	2125091	WORD_OFF	n/a	n/a	NET	8	18	[0, 0, 0]	n/a	FR1	2	R1323T
2125.252	1.629	2125961	WORD	n/a	n/a	KITE	9	18	[0, 0, 0]	n/a	FR1	2	R1323T
2126.881	1.063	2127590	WORD_OFF	n/a	n/a	KITE	9	18	[0, 0, 0]	n/a	FR1	2	R1323T
2127.944	1.622	2128653	WORD	n/a	n/a	AXE	10	18	[0, 0, 0]	n/a	FR1	2	R1323T
2129.566	0.878	2130275	WORD_OFF	n/a	n/a	AXE	10	18	[0, 0, 0]	n/a	FR1	2	R1323T
2130.444	1.622	2131153	WORD	n/a	n/a	FUR	11	18	[0, 0, 0]	n/a	FR1	2	R1323T
2132.066	0.785	2132775	WORD_OFF	n/a	n/a	FUR	11	18	[0, 0, 0]	n/a	FR1	2	R1323T
2132.851	1.616	2133560	WORD	n/a	n/a	THUMB	12	18	[0, 0, 0]	n/a	FR1	2	R1323T
2134.467	0.001	2135175	WORD_OFF	n/a	n/a	THUMB	12	18	[0, 0, 0]	n/a	FR1	2	R1323T
2134.468	0.0	2135176	ENCODING_END	n/a	n/a	n/a	-999	18	[0, 0, 0]	n/a	FR1	2	R1323T
2134.468	0.0	2135176	DISTRACT_START	n/a	n/a	n/a	-999	18	[0, 0, 0]	n/a	FR1	2	R1323T
2134.468	0.016	2135176	START	n/a	n/a	n/a	-999	18	[-999, -999, -999]	n/a	FR1	2	R1323T
2134.484	11.384	2135192	PROB	11.384	n/a	n/a	-999	18	[4, 8, 9]	21	FR1	2	R1323T
2145.868	9.864	2146576	PROB	9.864	n/a	n/a	-999	18	[4, 9, 8]	21	FR1	2	R1323T
2155.732	0.006	2156440	STOP	n/a	n/a	n/a	-999	18	[-999, -999, -999]	n/a	FR1	2	R1323T
2155.738	0.521	2156446	DISTRACT_END	n/a	n/a	n/a	-999	18	[0, 0, 0]	n/a	FR1	2	R1323T
2156.259	1.678	2156967	RETRIEVAL_ORIENT_START	n/a	n/a	n/a	-999	18	[0, 0, 0]	n/a	FR1	2	R1323T
2157.937	0.001	2158644	RETRIEVAL_ORIENT_END	n/a	n/a	n/a	-999	18	[0, 0, 0]	n/a	FR1	2	R1323T
2157.938	1.889	2158645	REC_START	n/a	n/a	n/a	-999	18	[0, 0, 0]	n/a	FR1	2	R1323T
2159.827	2.203	2160534	REC_WORD	2.203	n/a	AXE	10	18	[0, 0, 0]	n/a	FR1	2	R1323T
2162.03	6.88	2162737	REC_WORD	6.88	n/a	THUMB	12	18	[0, 0, 0]	n/a	FR1	2	R1323T
2168.91	19.038	2169617	REC_WORD	19.038	n/a	OX	-999	18	[0, 0, 0]	n/a	FR1	2	R1323T
2187.948	0.001	2188654	REC_END	n/a	n/a	n/a	-999	18	[0, 0, 0]	n/a	FR1	2	R1323T
2187.949	0.015	2188655	TRIAL_END	n/a	n/a	n/a	-999	18	[0, 0, 0]	n/a	FR1	2	R1323T
2187.964	0.001	2188670	TRIAL_START	n/a	n/a	n/a	-999	19	[0, 0, 0]	n/a	FR1	2	R1323T
2187.965	0.0	2188671	TRIAL	n/a	n/a	n/a	-999	19	[0, 0, 0]	n/a	FR1	2	R1323T
2187.965	3.746	2188671	WAITING_START	n/a	n/a	n/a	-999	19	[0, 0, 0]	n/a	FR1	2	R1323T
2191.711	0.0	2192417	WAITING_END	n/a	n/a	n/a	-999	19	[0, 0, 0]	n/a	FR1	2	R1323T
2191.711	10.43	2192417	COUNTDOWN_START	n/a	n/a	n/a	-999	19	[0, 0, 0]	n/a	FR1	2	R1323T
2202.141	0.0	2202847	COUNTDOWN_END	n/a	n/a	n/a	-999	19	[0, 0, 0]	n/a	FR1	2	R1323T
2202.141	1.256	2202847	ORIENT_START	n/a	n/a	n/a	-999	19	[0, 0, 0]	n/a	FR1	2	R1323T
2203.397	0.0	2204103	ORIENT_END	n/a	n/a	n/a	-999	19	[0, 0, 0]	n/a	FR1	2	R1323T
2203.397	1.081	2204103	ENCODING_START	n/a	n/a	n/a	-999	19	[0, 0, 0]	n/a	FR1	2	R1323T
2204.478	1.636	2205184	WORD	n/a	n/a	FILM	1	19	[0, 0, 0]	n/a	FR1	2	R1323T
2206.114	1.057	2206819	WORD_OFF	n/a	n/a	FILM	1	19	[0, 0, 0]	n/a	FR1	2	R1323T
2207.171	1.625	2207876	WORD	n/a	n/a	HOUSE	2	19	[0, 0, 0]	n/a	FR1	2	R1323T
2208.796	1.134	2209501	WORD_OFF	n/a	n/a	HOUSE	2	19	[0, 0, 0]	n/a	FR1	2	R1323T
2209.93	1.618	2210635	WORD	n/a	n/a	STOOL	3	19	[0, 0, 0]	n/a	FR1	2	R1323T
2211.548	0.763	2212253	WORD_OFF	n/a	n/a	STOOL	3	19	[0, 0, 0]	n/a	FR1	2	R1323T
2212.311	1.62	2213016	WORD	n/a	n/a	SINK	4	19	[0, 0, 0]	n/a	FR1	2	R1323T
2213.931	1.103	2214636	WORD_OFF	n/a	n/a	SINK	4	19	[0, 0, 0]	n/a	FR1	2	R1323T
2215.034	1.615	2215739	WORD	n/a	n/a	MAZE	5	19	[0, 0, 0]	n/a	FR1	2	R1323T
2216.649	0.907	2217354	WORD_OFF	n/a	n/a	MAZE	5	19	[0, 0, 0]	n/a	FR1	2	R1323T
2217.556	1.627	2218261	WORD	n/a	n/a	POND	6	19	[0, 0, 0]	n/a	FR1	2	R1323T
2219.183	0.869	2219888	WORD_OFF	n/a	n/a	POND	6	19	[0, 0, 0]	n/a	FR1	2	R1323T
2220.052	1.631	2220757	WORD	n/a	n/a	CALF	7	19	[0, 0, 0]	n/a	FR1	2	R1323T
2221.683	1.003	2222388	WORD_OFF	n/a	n/a	CALF	7	19	[0, 0, 0]	n/a	FR1	2	R1323T
2222.686	1.631	2223391	WORD	n/a	n/a	ROSE	8	19	[0, 0, 0]	n/a	FR1	2	R1323T
2224.317	1.069	2225022	WORD_OFF	n/a	n/a	ROSE	8	19	[0, 0, 0]	n/a	FR1	2	R1323T
2225.386	1.63	2226091	WORD	n/a	n/a	BAND	9	19	[0, 0, 0]	n/a	FR1	2	R1323T
2227.016	0.758	2227721	WORD_OFF	n/a	n/a	BAND	9	19	[0, 0, 0]	n/a	FR1	2	R1323T
2227.774	1.61	2228479	WORD	n/a	n/a	BADGE	10	19	[0, 0, 0]	n/a	FR1	2	R1323T
2229.384	1.141	2230088	WORD_OFF	n/a	n/a	BADGE	10	19	[0, 0, 0]	n/a	FR1	2	R1323T
2230.525	1.627	2231229	WORD	n/a	n/a	NEST	11	19	[0, 0, 0]	n/a	FR1	2	R1323T
2232.152	1.1	2232856	WORD_OFF	n/a	n/a	NEST	11	19	[0, 0, 0]	n/a	FR1	2	R1323T
2233.252	1.632	2233956	WORD	n/a	n/a	TRAIN	12	19	[0, 0, 0]	n/a	FR1	2	R1323T
2234.884	0.001	2235588	WORD_OFF	n/a	n/a	TRAIN	12	19	[0, 0, 0]	n/a	FR1	2	R1323T
2234.885	0.0	2235589	ENCODING_END	n/a	n/a	n/a	-999	19	[0, 0, 0]	n/a	FR1	2	R1323T
2234.885	0.001	2235589	DISTRACT_START	n/a	n/a	n/a	-999	19	[0, 0, 0]	n/a	FR1	2	R1323T
2234.886	0.015	2235590	START	n/a	n/a	n/a	-999	19	[-999, -999, -999]	n/a	FR1	2	R1323T
2234.901	13.837	2235605	PROB	13.837	n/a	n/a	-999	19	[8, 5, 9]	22	FR1	2	R1323T
2248.738	8.876	2249442	PROB	8.876	n/a	n/a	-999	19	[9, 3, 2]	14	FR1	2	R1323T
2257.614	0.009	2258317	STOP	n/a	n/a	n/a	-999	19	[-999, -999, -999]	n/a	FR1	2	R1323T
2257.623	0.605	2258326	DISTRACT_END	n/a	n/a	n/a	-999	19	[0, 0, 0]	n/a	FR1	2	R1323T
2258.228	1.644	2258931	RETRIEVAL_ORIENT_START	n/a	n/a	n/a	-999	19	[0, 0, 0]	n/a	FR1	2	R1323T
2259.872	0.001	2260575	RETRIEVAL_ORIENT_END	n/a	n/a	n/a	-999	19	[0, 0, 0]	n/a	FR1	2	R1323T
2259.873	4.582	2260576	REC_START	n/a	n/a	n/a	-999	19	[0, 0, 0]	n/a	FR1	2	R1323T
2264.455	11.754	2265158	REC_WORD	11.754	n/a	BAND	9	19	[0, 0, 0]	n/a	FR1	2	R1323T
2276.209	7.492	2276911	REC_WORD	7.492	n/a	STOOL	3	19	[0, 0, 0]	n/a	FR1	2	R1323T
2283.701	6.185	2284403	REC_WORD	6.185	n/a	STAND	-999	19	[0, 0, 0]	n/a	FR1	2	R1323T
2289.886	0.0	2290588	REC_END	n/a	n/a	n/a	-999	19	[0, 0, 0]	n/a	FR1	2	R1323T
2289.886	0.015	2290588	TRIAL_END	n/a	n/a	n/a	-999	19	[0, 0, 0]	n/a	FR1	2	R1323T
2289.901	0.001	2290603	TRIAL_START	n/a	n/a	n/a	-999	20	[0, 0, 0]	n/a	FR1	2	R1323T
2289.902	0.0	2290604	TRIAL	n/a	n/a	n/a	-999	20	[0, 0, 0]	n/a	FR1	2	R1323T
2289.902	12.095	2290604	WAITING_START	n/a	n/a	n/a	-999	20	[0, 0, 0]	n/a	FR1	2	R1323T
2301.997	0.0	2302698	WAITING_END	n/a	n/a	n/a	-999	20	[0, 0, 0]	n/a	FR1	2	R1323T
2301.997	10.428	2302698	COUNTDOWN_START	n/a	n/a	n/a	-999	20	[0, 0, 0]	n/a	FR1	2	R1323T
2312.425	0.0	2313126	COUNTDOWN_END	n/a	n/a	n/a	-999	20	[0, 0, 0]	n/a	FR1	2	R1323T
2312.425	1.125	2313126	ORIENT_START	n/a	n/a	n/a	-999	20	[0, 0, 0]	n/a	FR1	2	R1323T
2313.55	0.0	2314251	ORIENT_END	n/a	n/a	n/a	-999	20	[0, 0, 0]	n/a	FR1	2	R1323T
2313.55	0.956	2314251	ENCODING_START	n/a	n/a	n/a	-999	20	[0, 0, 0]	n/a	FR1	2	R1323T
2314.506	1.628	2315207	WORD	n/a	n/a	GRAPE	1	20	[0, 0, 0]	n/a	FR1	2	R1323T
2316.134	1.049	2316835	WORD_OFF	n/a	n/a	GRAPE	1	20	[0, 0, 0]	n/a	FR1	2	R1323T
2317.183	1.633	2317884	WORD	n/a	n/a	COW	2	20	[0, 0, 0]	n/a	FR1	2	R1323T
2318.816	0.963	2319517	WORD_OFF	n/a	n/a	COW	2	20	[0, 0, 0]	n/a	FR1	2	R1323T
2319.779	1.622	2320480	WORD	n/a	n/a	RAT	3	20	[0, 0, 0]	n/a	FR1	2	R1323T
2321.401	1.099	2322102	WORD_OFF	n/a	n/a	RAT	3	20	[0, 0, 0]	n/a	FR1	2	R1323T
2322.5	1.635	2323200	WORD	n/a	n/a	SHELL	4	20	[0, 0, 0]	n/a	FR1	2	R1323T
2324.135	1.012	2324835	WORD_OFF	n/a	n/a	SHELL	4	20	[0, 0, 0]	n/a	FR1	2	R1323T
2325.147	1.621	2325847	WORD	n/a	n/a	TANK	5	20	[0, 0, 0]	n/a	FR1	2	R1323T
2326.768	0.905	2327468	WORD_OFF	n/a	n/a	TANK	5	20	[0, 0, 0]	n/a	FR1	2	R1323T
2327.673	1.63	2328373	WORD	n/a	n/a	PARK	6	20	[0, 0, 0]	n/a	FR1	2	R1323T
2329.303	1.047	2330003	WORD_OFF	n/a	n/a	PARK	6	20	[0, 0, 0]	n/a	FR1	2	R1323T
2330.35	1.635	2331050	WORD	n/a	n/a	CANE	7	20	[0, 0, 0]	n/a	FR1	2	R1323T
2331.985	0.991	2332685	WORD_OFF	n/a	n/a	CANE	7	20	[0, 0, 0]	n/a	FR1	2	R1323T
2332.976	1.611	2333676	WORD	n/a	n/a	PET	8	20	[0, 0, 0]	n/a	FR1	2	R1323T
2334.587	0.813	2335287	WORD_OFF	n/a	n/a	PET	8	20	[0, 0, 0]	n/a	FR1	2	R1323T
2335.4	1.636	2336100	WORD	n/a	n/a	CLAY	9	20	[0, 0, 0]	n/a	FR1	2	R1323T
2337.036	0.762	2337736	WORD_OFF	n/a	n/a	CLAY	9	20	[0, 0, 0]	n/a	FR1	2	R1323T
2337.798	1.606	2338498	WORD	n/a	n/a	PRINCE	10	20	[0, 0, 0]	n/a	FR1	2	R1323T
2339.404	0.793	2340104	WORD_OFF	n/a	n/a	PRINCE	10	20	[0, 0, 0]	n/a	FR1	2	R1323T
2340.197	1.624	2340897	WORD	n/a	n/a	BOAT	11	20	[0, 0, 0]	n/a	FR1	2	R1323T
2341.821	0.836	2342521	WORD_OFF	n/a	n/a	BOAT	11	20	[0, 0, 0]	n/a	FR1	2	R1323T
2342.657	1.632	2343357	WORD	n/a	n/a	FLEA	12	20	[0, 0, 0]	n/a	FR1	2	R1323T
2344.289	0.0	2344989	WORD_OFF	n/a	n/a	FLEA	12	20	[0, 0, 0]	n/a	FR1	2	R1323T
2344.289	0.0	2344989	ENCODING_END	n/a	n/a	n/a	-999	20	[0, 0, 0]	n/a	FR1	2	R1323T
2344.289	0.001	2344989	DISTRACT_START	n/a	n/a	n/a	-999	20	[0, 0, 0]	n/a	FR1	2	R1323T
2344.29	0.015	2344990	START	n/a	n/a	n/a	-999	20	[-999, -999, -999]	n/a	FR1	2	R1323T
2344.305	8.202	2345005	PROB	8.202	n/a	n/a	-999	20	[2, 5, 9]	16	FR1	2	R1323T
2352.507	5.151	2353206	PROB	5.151	n/a	n/a	-999	20	[3, 4, 6]	13	FR1	2	R1323T
2357.658	6.15	2358357	PROB	6.15	n/a	n/a	-999	20	[3, 2, 2]	7	FR1	2	R1323T
2363.808	8.299	2364507	PROB	8.299	n/a	n/a	-999	20	[5, 4, 4]	13	FR1	2	R1323T
2372.107	0.02	2372805	STOP	n/a	n/a	n/a	-999	20	[-999, -999, -999]	n/a	FR1	2	R1323T
2372.127	0.619	2372825	DISTRACT_END	n/a	n/a	n/a	-999	20	[0, 0, 0]	n/a	FR1	2	R1323T
2372.746	1.531	2373444	RETRIEVAL_ORIENT_START	n/a	n/a	n/a	-999	20	[0, 0, 0]	n/a	FR1	2	R1323T
2374.277	0.001	2374975	RETRIEVAL_ORIENT_END	n/a	n/a	n/a	-999	20	[0, 0, 0]	n/a	FR1	2	R1323T
2374.278	0.493	2374976	REC_START	n/a	n/a	n/a	-999	20	[0, 0, 0]	n/a	FR1	2	R1323T
2374.771	1.522	2375469	REC_WORD	1.522	n/a	RAT	3	20	[0, 0, 0]	n/a	FR1	2	R1323T
2376.293	27.997	2376991	REC_WORD	27.997	n/a	FLEA	12	20	[0, 0, 0]	n/a	FR1	2	R1323T
2404.29	0.0	2404987	REC_END	n/a	n/a	n/a	-999	20	[0, 0, 0]	n/a	FR1	2	R1323T
2404.29	0.017	2404987	TRIAL_END	n/a	n/a	n/a	-999	20	[0, 0, 0]	n/a	FR1	2	R1323T
2404.307	0.0	2405004	TRIAL_START	n/a	n/a	n/a	-999	21	[0, 0, 0]	n/a	FR1	2	R1323T
2404.307	0.0	2405004	TRIAL	n/a	n/a	n/a	-999	21	[0, 0, 0]	n/a	FR1	2	R1323T
2404.307	0.0	2405004	WAITING_START	n/a	n/a	n/a	-999	21	[0, 0, 0]	n/a	FR1	2	R1323T
