onset	duration	sample	trial_type	response_time	stim_file	item_name	serialpos	list	test	answer	experiment	session	subject
0.0	161.8	72444	INSTRUCT_START	n/a	n/a	n/a	-999	-999	[0, 0, 0]	n/a	FR1	0	R1395M
161.8	23.399	234224	INSTRUCT_END	n/a	n/a	n/a	-999	-999	[0, 0, 0]	n/a	FR1	0	R1395M
185.199	10.35	257629	COUNTDOWN_START	n/a	n/a	n/a	-999	-999	[0, 0, 0]	n/a	FR1	0	R1395M
195.549	0.001	267970	COUNTDOWN_END	n/a	n/a	n/a	-999	-999	[0, 0, 0]	n/a	FR1	0	R1395M
195.55	2.083	267980	ENCODING_START	n/a	n/a	n/a	-999	-1	[0, 0, 0]	n/a	FR1	0	R1395M
197.633	1.615	270057	WORD	n/a	n/a	WAGON	1	-1	[0, 0, 0]	n/a	FR1	0	R1395M
199.248	0.967	271676	WORD_OFF	n/a	n/a	WAGON	1	-1	[0, 0, 0]	n/a	FR1	0	R1395M
200.215	1.6	272640	WORD	n/a	n/a	CHEST	2	-1	[0, 0, 0]	n/a	FR1	0	R1395M
201.815	0.767	274241	WORD_OFF	n/a	n/a	CHEST	2	-1	[0, 0, 0]	n/a	FR1	0	R1395M
202.582	1.6	275008	WORD	n/a	n/a	IMAGE	3	-1	[0, 0, 0]	n/a	FR1	0	R1395M
204.182	0.933	276608	WORD_OFF	n/a	n/a	IMAGE	3	-1	[0, 0, 0]	n/a	FR1	0	R1395M
205.115	1.616	277535	WORD	n/a	n/a	WATCH	4	-1	[0, 0, 0]	n/a	FR1	0	R1395M
206.731	0.934	279154	WORD_OFF	n/a	n/a	WATCH	4	-1	[0, 0, 0]	n/a	FR1	0	R1395M
207.665	1.6	280090	WORD	n/a	n/a	COTTON	5	-1	[0, 0, 0]	n/a	FR1	0	R1395M
209.265	0.95	281690	WORD_OFF	n/a	n/a	COTTON	5	-1	[0, 0, 0]	n/a	FR1	0	R1395M
210.215	1.6	282635	WORD	n/a	n/a	BEAM	6	-1	[0, 0, 0]	n/a	FR1	0	R1395M
211.815	0.933	284235	WORD_OFF	n/a	n/a	BEAM	6	-1	[0, 0, 0]	n/a	FR1	0	R1395M
212.748	1.601	285171	WORD	n/a	n/a	FLOOD	7	-1	[0, 0, 0]	n/a	FR1	0	R1395M
214.349	0.783	286772	WORD_OFF	n/a	n/a	FLOOD	7	-1	[0, 0, 0]	n/a	FR1	0	R1395M
215.132	1.6	287558	WORD	n/a	n/a	TONGUE	8	-1	[0, 0, 0]	n/a	FR1	0	R1395M
216.732	0.783	289158	WORD_OFF	n/a	n/a	TONGUE	8	-1	[0, 0, 0]	n/a	FR1	0	R1395M
217.515	1.6	289935	WORD	n/a	n/a	RHINO	9	-1	[0, 0, 0]	n/a	FR1	0	R1395M
219.115	0.849	291535	WORD_OFF	n/a	n/a	RHINO	9	-1	[0, 0, 0]	n/a	FR1	0	R1395M
219.964	1.601	292387	WORD	n/a	n/a	RING	10	-1	[0, 0, 0]	n/a	FR1	0	R1395M
221.565	0.85	293987	WORD_OFF	n/a	n/a	RING	10	-1	[0, 0, 0]	n/a	FR1	0	R1395M
222.415	1.6	294839	WORD	n/a	n/a	BABY	11	-1	[0, 0, 0]	n/a	FR1	0	R1395M
224.015	0.85	296439	WORD_OFF	n/a	n/a	BABY	11	-1	[0, 0, 0]	n/a	FR1	0	R1395M
224.865	1.602	297291	WORD	n/a	n/a	CAMEL	12	-1	[0, 0, 0]	n/a	FR1	0	R1395M
226.467	0.001	298884	PROB	0.001	n/a	n/a	-999	-1	[2, 5, 5]	12	FR1	0	R1395M
226.468	0.0	298885	START	n/a	n/a	n/a	-999	-1	[-999, -999, -999]	n/a	FR1	0	R1395M
226.465	0.002	298891	WORD_OFF	n/a	n/a	CAMEL	12	-1	[0, 0, 0]	n/a	FR1	0	R1395M
226.467	0.001	298891	ENCODING_END	n/a	n/a	n/a	-999	-1	[0, 0, 0]	n/a	FR1	0	R1395M
226.468	5.631	298891	DISTRACT_START	n/a	n/a	n/a	-999	-1	[0, 0, 0]	n/a	FR1	0	R1395M
232.099	4.217	304516	PROB	4.217	n/a	n/a	-999	-1	[8, 1, 2]	11	FR1	0	R1395M
236.316	3.899	308733	PROB	3.899	n/a	n/a	-999	-1	[8, 1, 6]	15	FR1	0	R1395M
240.215	3.416	312632	PROB	3.416	n/a	n/a	-999	-1	[5, 5, 4]	14	FR1	0	R1395M
243.631	2.719	316048	PROB	2.719	n/a	n/a	-999	-1	[1, 3, 3]	7	FR1	0	R1395M
246.35	3.615	318766	PROB	3.615	n/a	n/a	-999	-1	[6, 3, 7]	16	FR1	0	R1395M
249.965	0.0	322381	STOP	n/a	n/a	n/a	-999	-1	[-999, -999, -999]	n/a	FR1	0	R1395M
249.965	1.251	322390	DISTRACT_END	n/a	n/a	n/a	-999	-1	[0, 0, 0]	n/a	FR1	0	R1395M
251.216	3.508	323635	REC_START	n/a	n/a	n/a	-999	-1	[0, 0, 0]	n/a	FR1	0	R1395M
254.724	1.706	327140	REC_WORD_VV	1.706	n/a	<>	-999	-1	[0, 0, 0]	n/a	FR1	0	R1395M
256.43	1.357	328846	REC_WORD	1.357	n/a	WAGON	1	-1	[0, 0, 0]	n/a	FR1	0	R1395M
257.787	4.045	330203	REC_WORD	4.045	n/a	CHEST	2	-1	[0, 0, 0]	n/a	FR1	0	R1395M
261.832	4.841	334248	REC_WORD	4.841	n/a	RHINO	9	-1	[0, 0, 0]	n/a	FR1	0	R1395M
266.673	2.436	339088	REC_WORD	2.436	n/a	WHEEL	-999	-1	[0, 0, 0]	n/a	FR1	0	R1395M
269.109	7.22	341524	REC_WORD	7.22	n/a	RING	10	-1	[0, 0, 0]	n/a	FR1	0	R1395M
276.329	5.179	348744	REC_WORD	5.179	n/a	COAT	-999	-1	[0, 0, 0]	n/a	FR1	0	R1395M
281.508	16.007	353928	REC_END	n/a	n/a	n/a	-999	-1	[0, 0, 0]	n/a	FR1	0	R1395M
297.515	10.351	369940	COUNTDOWN_START	n/a	n/a	n/a	-999	1	[0, 0, 0]	n/a	FR1	0	R1395M
307.866	0.0	380282	COUNTDOWN_END	n/a	n/a	n/a	-999	1	[0, 0, 0]	n/a	FR1	0	R1395M
307.866	2.249	380291	ENCODING_START	n/a	n/a	n/a	-999	1	[0, 0, 0]	n/a	FR1	0	R1395M
310.115	1.6	382537	WORD	n/a	n/a	KEY	1	1	[0, 0, 0]	n/a	FR1	0	R1395M
311.715	1.0	384137	WORD_OFF	n/a	n/a	KEY	1	1	[0, 0, 0]	n/a	FR1	0	R1395M
312.715	1.6	385129	WORD	n/a	n/a	PAGE	2	1	[0, 0, 0]	n/a	FR1	0	R1395M
314.315	0.85	386730	WORD_OFF	n/a	n/a	PAGE	2	1	[0, 0, 0]	n/a	FR1	0	R1395M
315.165	1.6	387581	WORD	n/a	n/a	DIME	3	1	[0, 0, 0]	n/a	FR1	0	R1395M
316.765	0.984	389181	WORD_OFF	n/a	n/a	DIME	3	1	[0, 0, 0]	n/a	FR1	0	R1395M
317.749	1.616	390164	WORD	n/a	n/a	FUR	4	1	[0, 0, 0]	n/a	FR1	0	R1395M
319.365	0.917	391783	WORD_OFF	n/a	n/a	FUR	4	1	[0, 0, 0]	n/a	FR1	0	R1395M
320.282	1.616	392700	WORD	n/a	n/a	YARD	5	1	[0, 0, 0]	n/a	FR1	0	R1395M
321.898	0.767	394319	WORD_OFF	n/a	n/a	YARD	5	1	[0, 0, 0]	n/a	FR1	0	R1395M
322.665	1.6	395087	WORD	n/a	n/a	BEAN	6	1	[0, 0, 0]	n/a	FR1	0	R1395M
324.265	0.866	396687	WORD_OFF	n/a	n/a	BEAN	6	1	[0, 0, 0]	n/a	FR1	0	R1395M
325.131	1.618	397548	WORD	n/a	n/a	SUN	7	1	[0, 0, 0]	n/a	FR1	0	R1395M
326.749	0.966	399167	WORD_OFF	n/a	n/a	SUN	7	1	[0, 0, 0]	n/a	FR1	0	R1395M
327.715	1.617	400131	WORD	n/a	n/a	WHEAT	8	1	[0, 0, 0]	n/a	FR1	0	R1395M
329.332	0.967	401750	WORD_OFF	n/a	n/a	WHEAT	8	1	[0, 0, 0]	n/a	FR1	0	R1395M
330.299	1.616	402714	WORD	n/a	n/a	SHORE	9	1	[0, 0, 0]	n/a	FR1	0	R1395M
331.915	0.8	404333	WORD_OFF	n/a	n/a	SHORE	9	1	[0, 0, 0]	n/a	FR1	0	R1395M
332.715	1.6	405128	WORD	n/a	n/a	JAIL	10	1	[0, 0, 0]	n/a	FR1	0	R1395M
334.315	0.884	406729	WORD_OFF	n/a	n/a	JAIL	10	1	[0, 0, 0]	n/a	FR1	0	R1395M
335.199	1.616	407618	WORD	n/a	n/a	SOIL	11	1	[0, 0, 0]	n/a	FR1	0	R1395M
336.815	0.934	409237	WORD_OFF	n/a	n/a	SOIL	11	1	[0, 0, 0]	n/a	FR1	0	R1395M
337.749	1.6	410163	WORD	n/a	n/a	MEN	12	1	[0, 0, 0]	n/a	FR1	0	R1395M
339.349	0.001	411760	PROB	0.001	n/a	n/a	-999	1	[5, 3, 2]	10	FR1	0	R1395M
339.35	0.0	411761	START	n/a	n/a	n/a	-999	1	[-999, -999, -999]	n/a	FR1	0	R1395M
339.349	0.001	411764	WORD_OFF	n/a	n/a	MEN	12	1	[0, 0, 0]	n/a	FR1	0	R1395M
339.35	0.0	411764	ENCODING_END	n/a	n/a	n/a	-999	1	[0, 0, 0]	n/a	FR1	0	R1395M
339.35	6.249	411773	DISTRACT_START	n/a	n/a	n/a	-999	1	[0, 0, 0]	n/a	FR1	0	R1395M
345.599	4.802	418010	PROB	4.802	n/a	n/a	-999	1	[2, 3, 6]	11	FR1	0	R1395M
350.401	6.314	422812	PROB	6.314	n/a	n/a	-999	1	[6, 3, 7]	16	FR1	0	R1395M
356.715	3.933	429125	PROB	3.933	n/a	n/a	-999	1	[4, 5, 7]	16	FR1	0	R1395M
360.648	0.0	433058	STOP	n/a	n/a	n/a	-999	1	[-999, -999, -999]	n/a	FR1	0	R1395M
360.648	1.1	433063	DISTRACT_END	n/a	n/a	n/a	-999	1	[0, 0, 0]	n/a	FR1	0	R1395M
361.748	2.159	434168	REC_START	n/a	n/a	n/a	-999	1	[0, 0, 0]	n/a	FR1	0	R1395M
363.907	1.432	436317	REC_WORD	1.432	n/a	PAGE	2	1	[0, 0, 0]	n/a	FR1	0	R1395M
365.339	1.597	437749	REC_WORD	1.597	n/a	KEY	1	1	[0, 0, 0]	n/a	FR1	0	R1395M
366.936	1.619	439346	REC_WORD	1.619	n/a	DIME	3	1	[0, 0, 0]	n/a	FR1	0	R1395M
368.555	1.723	440965	REC_WORD	1.723	n/a	JAIL	10	1	[0, 0, 0]	n/a	FR1	0	R1395M
370.278	1.956	442688	REC_WORD	1.956	n/a	FUR	4	1	[0, 0, 0]	n/a	FR1	0	R1395M
372.234	6.465	444644	REC_WORD	6.465	n/a	MEN	12	1	[0, 0, 0]	n/a	FR1	0	R1395M
378.699	10.816	451108	REC_WORD_VV	10.816	n/a	<>	-999	1	[0, 0, 0]	n/a	FR1	0	R1395M
389.515	0.14	461924	REC_WORD_VV	0.14	n/a	<>	-999	1	[0, 0, 0]	n/a	FR1	0	R1395M
389.655	0.993	462064	REC_WORD	0.993	n/a	SUN	7	1	[0, 0, 0]	n/a	FR1	0	R1395M
390.648	0.246	463057	REC_WORD_VV	0.246	n/a	<>	-999	1	[0, 0, 0]	n/a	FR1	0	R1395M
390.894	1.133	463303	REC_WORD	1.133	n/a	WHEAT	8	1	[0, 0, 0]	n/a	FR1	0	R1395M
392.027	15.939	464442	REC_END	n/a	n/a	n/a	-999	1	[0, 0, 0]	n/a	FR1	0	R1395M
407.966	10.35	480380	COUNTDOWN_START	n/a	n/a	n/a	-999	2	[0, 0, 0]	n/a	FR1	0	R1395M
418.316	0.0	490730	COUNTDOWN_END	n/a	n/a	n/a	-999	2	[0, 0, 0]	n/a	FR1	0	R1395M
418.316	2.049	490730	ENCODING_START	n/a	n/a	n/a	-999	2	[0, 0, 0]	n/a	FR1	0	R1395M
420.365	1.616	492780	WORD	n/a	n/a	SALT	1	2	[0, 0, 0]	n/a	FR1	0	R1395M
421.981	0.834	494390	WORD_OFF	n/a	n/a	SALT	1	2	[0, 0, 0]	n/a	FR1	0	R1395M
422.815	1.6	495232	WORD	n/a	n/a	FORT	2	2	[0, 0, 0]	n/a	FR1	0	R1395M
424.415	0.917	496832	WORD_OFF	n/a	n/a	FORT	2	2	[0, 0, 0]	n/a	FR1	0	R1395M
425.332	1.618	497740	WORD	n/a	n/a	BONE	3	2	[0, 0, 0]	n/a	FR1	0	R1395M
426.95	0.881	499359	WORD_OFF	n/a	n/a	BONE	3	2	[0, 0, 0]	n/a	FR1	0	R1395M
427.831	1.601	500248	WORD	n/a	n/a	FENCE	4	2	[0, 0, 0]	n/a	FR1	0	R1395M
429.432	0.999	501848	WORD_OFF	n/a	n/a	FENCE	4	2	[0, 0, 0]	n/a	FR1	0	R1395M
430.431	1.601	502840	WORD	n/a	n/a	COURT	5	2	[0, 0, 0]	n/a	FR1	0	R1395M
432.032	0.8	504441	WORD_OFF	n/a	n/a	COURT	5	2	[0, 0, 0]	n/a	FR1	0	R1395M
432.832	1.617	505245	WORD	n/a	n/a	WAND	6	2	[0, 0, 0]	n/a	FR1	0	R1395M
434.449	0.983	506864	WORD_OFF	n/a	n/a	WAND	6	2	[0, 0, 0]	n/a	FR1	0	R1395M
435.432	1.6	507847	WORD	n/a	n/a	PIPE	7	2	[0, 0, 0]	n/a	FR1	0	R1395M
437.032	0.983	509447	WORD_OFF	n/a	n/a	PIPE	7	2	[0, 0, 0]	n/a	FR1	0	R1395M
438.015	1.6	510430	WORD	n/a	n/a	GATE	8	2	[0, 0, 0]	n/a	FR1	0	R1395M
439.615	0.917	512030	WORD_OFF	n/a	n/a	GATE	8	2	[0, 0, 0]	n/a	FR1	0	R1395M
440.532	1.616	512947	WORD	n/a	n/a	SCHOOL	9	2	[0, 0, 0]	n/a	FR1	0	R1395M
442.148	0.8	514557	WORD_OFF	n/a	n/a	SCHOOL	9	2	[0, 0, 0]	n/a	FR1	0	R1395M
442.948	1.617	515362	WORD	n/a	n/a	CURB	10	2	[0, 0, 0]	n/a	FR1	0	R1395M
444.565	0.966	516972	WORD_OFF	n/a	n/a	CURB	10	2	[0, 0, 0]	n/a	FR1	0	R1395M
445.531	1.6	517945	WORD	n/a	n/a	DOCK	11	2	[0, 0, 0]	n/a	FR1	0	R1395M
447.131	0.9	519545	WORD_OFF	n/a	n/a	DOCK	11	2	[0, 0, 0]	n/a	FR1	0	R1395M
448.031	1.601	520444	WORD	n/a	n/a	RICE	12	2	[0, 0, 0]	n/a	FR1	0	R1395M
449.632	0.001	522037	PROB	0.001	n/a	n/a	-999	2	[3, 4, 6]	13	FR1	0	R1395M
449.633	0.0	522038	START	n/a	n/a	n/a	-999	2	[-999, -999, -999]	n/a	FR1	0	R1395M
449.631	0.002	522044	WORD_OFF	n/a	n/a	RICE	12	2	[0, 0, 0]	n/a	FR1	0	R1395M
449.633	0.0	522044	ENCODING_END	n/a	n/a	n/a	-999	2	[0, 0, 0]	n/a	FR1	0	R1395M
449.633	4.998	522044	DISTRACT_START	n/a	n/a	n/a	-999	2	[0, 0, 0]	n/a	FR1	0	R1395M
454.631	3.251	527036	PROB	3.251	n/a	n/a	-999	2	[3, 8, 7]	18	FR1	0	R1395M
457.882	3.149	530287	PROB	3.149	n/a	n/a	-999	2	[8, 3, 7]	18	FR1	0	R1395M
461.031	3.034	533436	PROB	3.034	n/a	n/a	-999	2	[1, 7, 1]	9	FR1	0	R1395M
464.065	2.552	536470	PROB	2.552	n/a	n/a	-999	2	[2, 2, 2]	6	FR1	0	R1395M
466.617	3.682	539022	PROB	3.682	n/a	n/a	-999	2	[7, 2, 5]	14	FR1	0	R1395M
470.299	0.0	542703	STOP	n/a	n/a	n/a	-999	2	[-999, -999, -999]	n/a	FR1	0	R1395M
470.299	1.033	542707	DISTRACT_END	n/a	n/a	n/a	-999	2	[0, 0, 0]	n/a	FR1	0	R1395M
471.332	1.318	543746	REC_START	n/a	n/a	n/a	-999	2	[0, 0, 0]	n/a	FR1	0	R1395M
472.65	1.435	545054	REC_WORD_VV	1.435	n/a	<>	-999	2	[0, 0, 0]	n/a	FR1	0	R1395M
474.085	1.543	546489	REC_WORD	1.543	n/a	SALT	1	2	[0, 0, 0]	n/a	FR1	0	R1395M
475.628	2.604	548032	REC_WORD	2.604	n/a	FORT	2	2	[0, 0, 0]	n/a	FR1	0	R1395M
478.232	2.923	550636	REC_WORD	2.923	n/a	DOCK	11	2	[0, 0, 0]	n/a	FR1	0	R1395M
481.155	0.999	553559	REC_WORD_VV	0.999	n/a	<>	-999	2	[0, 0, 0]	n/a	FR1	0	R1395M
482.154	0.208	554558	REC_WORD_VV	0.208	n/a	<>	-999	2	[0, 0, 0]	n/a	FR1	0	R1395M
482.362	4.93	554766	REC_WORD	4.93	n/a	WOUND	-999	2	[0, 0, 0]	n/a	FR1	0	R1395M
487.292	4.931	559695	REC_WORD	4.931	n/a	RICE	12	2	[0, 0, 0]	n/a	FR1	0	R1395M
492.223	9.388	564626	REC_WORD_VV	9.388	n/a	<>	-999	2	[0, 0, 0]	n/a	FR1	0	R1395M
501.611	24.171	574021	REC_END	n/a	n/a	n/a	-999	2	[0, 0, 0]	n/a	FR1	0	R1395M
525.782	10.35	598194	COUNTDOWN_START	n/a	n/a	n/a	-999	3	[0, 0, 0]	n/a	FR1	0	R1395M
536.132	0.0	608535	COUNTDOWN_END	n/a	n/a	n/a	-999	3	[0, 0, 0]	n/a	FR1	0	R1395M
536.132	2.099	608544	ENCODING_START	n/a	n/a	n/a	-999	3	[0, 0, 0]	n/a	FR1	0	R1395M
538.231	1.617	610641	WORD	n/a	n/a	BOWL	1	3	[0, 0, 0]	n/a	FR1	0	R1395M
539.848	0.967	612250	WORD_OFF	n/a	n/a	BOWL	1	3	[0, 0, 0]	n/a	FR1	0	R1395M
540.815	1.6	613224	WORD	n/a	n/a	ASH	2	3	[0, 0, 0]	n/a	FR1	0	R1395M
542.415	0.8	614824	WORD_OFF	n/a	n/a	ASH	2	3	[0, 0, 0]	n/a	FR1	0	R1395M
543.215	1.6	615619	WORD	n/a	n/a	BREAST	3	3	[0, 0, 0]	n/a	FR1	0	R1395M
544.815	0.767	617220	WORD_OFF	n/a	n/a	BREAST	3	3	[0, 0, 0]	n/a	FR1	0	R1395M
545.582	1.6	617987	WORD	n/a	n/a	BLOOM	4	3	[0, 0, 0]	n/a	FR1	0	R1395M
547.182	0.784	619587	WORD_OFF	n/a	n/a	BLOOM	4	3	[0, 0, 0]	n/a	FR1	0	R1395M
547.966	1.617	620373	WORD	n/a	n/a	CORK	5	3	[0, 0, 0]	n/a	FR1	0	R1395M
549.583	0.916	621992	WORD_OFF	n/a	n/a	CORK	5	3	[0, 0, 0]	n/a	FR1	0	R1395M
550.499	1.6	622900	WORD	n/a	n/a	EARTH	6	3	[0, 0, 0]	n/a	FR1	0	R1395M
552.099	0.8	624501	WORD_OFF	n/a	n/a	EARTH	6	3	[0, 0, 0]	n/a	FR1	0	R1395M
552.899	1.615	625305	WORD	n/a	n/a	MUD	7	3	[0, 0, 0]	n/a	FR1	0	R1395M
554.514	0.818	626915	WORD_OFF	n/a	n/a	MUD	7	3	[0, 0, 0]	n/a	FR1	0	R1395M
555.332	1.6	627739	WORD	n/a	n/a	BENCH	8	3	[0, 0, 0]	n/a	FR1	0	R1395M
556.932	0.833	629339	WORD_OFF	n/a	n/a	BENCH	8	3	[0, 0, 0]	n/a	FR1	0	R1395M
557.765	1.617	630172	WORD	n/a	n/a	HILL	9	3	[0, 0, 0]	n/a	FR1	0	R1395M
559.382	0.834	631791	WORD_OFF	n/a	n/a	HILL	9	3	[0, 0, 0]	n/a	FR1	0	R1395M
560.216	1.616	632624	WORD	n/a	n/a	CASH	10	3	[0, 0, 0]	n/a	FR1	0	R1395M
561.832	0.95	634233	WORD_OFF	n/a	n/a	CASH	10	3	[0, 0, 0]	n/a	FR1	0	R1395M
562.782	1.6	635188	WORD	n/a	n/a	CLOCK	11	3	[0, 0, 0]	n/a	FR1	0	R1395M
564.382	0.934	636788	WORD_OFF	n/a	n/a	CLOCK	11	3	[0, 0, 0]	n/a	FR1	0	R1395M
565.316	1.6	637724	WORD	n/a	n/a	SAIL	12	3	[0, 0, 0]	n/a	FR1	0	R1395M
566.916	0.001	639315	PROB	0.001	n/a	n/a	-999	3	[6, 5, 7]	18	FR1	0	R1395M
566.917	0.0	639316	START	n/a	n/a	n/a	-999	3	[-999, -999, -999]	n/a	FR1	0	R1395M
566.915	0.002	639324	WORD_OFF	n/a	n/a	SAIL	12	3	[0, 0, 0]	n/a	FR1	0	R1395M
566.917	0.0	639324	ENCODING_END	n/a	n/a	n/a	-999	3	[0, 0, 0]	n/a	FR1	0	R1395M
566.917	5.532	639324	DISTRACT_START	n/a	n/a	n/a	-999	3	[0, 0, 0]	n/a	FR1	0	R1395M
572.449	2.367	644848	PROB	2.367	n/a	n/a	-999	3	[4, 4, 1]	9	FR1	0	R1395M
574.816	3.901	647215	PROB	3.901	n/a	n/a	-999	3	[6, 6, 8]	20	FR1	0	R1395M
578.717	3.015	651115	PROB	3.015	n/a	n/a	-999	3	[2, 3, 4]	9	FR1	0	R1395M
581.732	4.65	654130	PROB	4.65	n/a	n/a	-999	3	[5, 2, 7]	14	FR1	0	R1395M
586.382	3.9	658780	PROB	3.9	n/a	n/a	-999	3	[5, 3, 7]	15	FR1	0	R1395M
590.282	0.0	662680	STOP	n/a	n/a	n/a	-999	3	[-999, -999, -999]	n/a	FR1	0	R1395M
590.282	1.05	662683	DISTRACT_END	n/a	n/a	n/a	-999	3	[0, 0, 0]	n/a	FR1	0	R1395M
591.332	3.663	663731	REC_START	n/a	n/a	n/a	-999	3	[0, 0, 0]	n/a	FR1	0	R1395M
594.995	1.237	667393	REC_WORD	1.237	n/a	MUD	7	3	[0, 0, 0]	n/a	FR1	0	R1395M
596.232	1.182	668630	REC_WORD	1.182	n/a	HILL	9	3	[0, 0, 0]	n/a	FR1	0	R1395M
597.414	1.614	669811	REC_WORD	1.614	n/a	EARTH	6	3	[0, 0, 0]	n/a	FR1	0	R1395M
599.028	1.891	671425	REC_WORD	1.891	n/a	CASH	10	3	[0, 0, 0]	n/a	FR1	0	R1395M
600.919	5.15	673316	REC_WORD	5.15	n/a	BREATH	-999	3	[0, 0, 0]	n/a	FR1	0	R1395M
606.069	1.69	678466	REC_WORD	1.69	n/a	SAIL	12	3	[0, 0, 0]	n/a	FR1	0	R1395M
607.759	11.713	680156	REC_WORD	11.713	n/a	CLOCK	11	3	[0, 0, 0]	n/a	FR1	0	R1395M
619.472	2.16	691868	REC_WORD_VV	2.16	n/a	<>	-999	3	[0, 0, 0]	n/a	FR1	0	R1395M
621.632	17.199	694034	REC_END	n/a	n/a	n/a	-999	3	[0, 0, 0]	n/a	FR1	0	R1395M
638.831	10.351	711235	COUNTDOWN_START	n/a	n/a	n/a	-999	4	[0, 0, 0]	n/a	FR1	0	R1395M
649.182	0.0	721585	COUNTDOWN_END	n/a	n/a	n/a	-999	4	[0, 0, 0]	n/a	FR1	0	R1395M
649.182	1.9	721585	ENCODING_START	n/a	n/a	n/a	-999	4	[0, 0, 0]	n/a	FR1	0	R1395M
651.082	1.6	723485	WORD	n/a	n/a	PRINCE	1	4	[0, 0, 0]	n/a	FR1	0	R1395M
652.682	0.934	725086	WORD_OFF	n/a	n/a	PRINCE	1	4	[0, 0, 0]	n/a	FR1	0	R1395M
653.616	1.616	726012	WORD	n/a	n/a	SHELL	2	4	[0, 0, 0]	n/a	FR1	0	R1395M
655.232	0.9	727631	WORD_OFF	n/a	n/a	SHELL	2	4	[0, 0, 0]	n/a	FR1	0	R1395M
656.132	1.616	728529	WORD	n/a	n/a	CLOWN	3	4	[0, 0, 0]	n/a	FR1	0	R1395M
657.748	0.968	730148	WORD_OFF	n/a	n/a	CLOWN	3	4	[0, 0, 0]	n/a	FR1	0	R1395M
658.716	1.616	731112	WORD	n/a	n/a	SKUNK	4	4	[0, 0, 0]	n/a	FR1	0	R1395M
660.332	0.833	732731	WORD_OFF	n/a	n/a	SKUNK	4	4	[0, 0, 0]	n/a	FR1	0	R1395M
661.165	1.6	733564	WORD	n/a	n/a	POLE	5	4	[0, 0, 0]	n/a	FR1	0	R1395M
662.765	0.851	735165	WORD_OFF	n/a	n/a	POLE	5	4	[0, 0, 0]	n/a	FR1	0	R1395M
663.616	1.599	736016	WORD	n/a	n/a	STONE	6	4	[0, 0, 0]	n/a	FR1	0	R1395M
665.215	0.967	737617	WORD_OFF	n/a	n/a	STONE	6	4	[0, 0, 0]	n/a	FR1	0	R1395M
666.182	1.6	738580	WORD	n/a	n/a	BOX	7	4	[0, 0, 0]	n/a	FR1	0	R1395M
667.782	0.834	740181	WORD_OFF	n/a	n/a	BOX	7	4	[0, 0, 0]	n/a	FR1	0	R1395M
668.616	1.599	741014	WORD	n/a	n/a	CAMP	8	4	[0, 0, 0]	n/a	FR1	0	R1395M
670.215	0.817	742614	WORD_OFF	n/a	n/a	CAMP	8	4	[0, 0, 0]	n/a	FR1	0	R1395M
671.032	1.617	743428	WORD	n/a	n/a	VEST	9	4	[0, 0, 0]	n/a	FR1	0	R1395M
672.649	0.899	745047	WORD_OFF	n/a	n/a	VEST	9	4	[0, 0, 0]	n/a	FR1	0	R1395M
673.548	1.601	745946	WORD	n/a	n/a	THORN	10	4	[0, 0, 0]	n/a	FR1	0	R1395M
675.149	0.966	747546	WORD_OFF	n/a	n/a	THORN	10	4	[0, 0, 0]	n/a	FR1	0	R1395M
676.115	1.6	748510	WORD	n/a	n/a	STORE	11	4	[0, 0, 0]	n/a	FR1	0	R1395M
677.715	0.8	750110	WORD_OFF	n/a	n/a	STORE	11	4	[0, 0, 0]	n/a	FR1	0	R1395M
678.515	1.6	750915	WORD	n/a	n/a	PIT	12	4	[0, 0, 0]	n/a	FR1	0	R1395M
680.115	0.002	752508	PROB	0.002	n/a	n/a	-999	4	[4, 2, 8]	14	FR1	0	R1395M
680.117	0.0	752510	START	n/a	n/a	n/a	-999	4	[-999, -999, -999]	n/a	FR1	0	R1395M
680.115	0.002	752515	WORD_OFF	n/a	n/a	PIT	12	4	[0, 0, 0]	n/a	FR1	0	R1395M
680.117	0.0	752515	ENCODING_END	n/a	n/a	n/a	-999	4	[0, 0, 0]	n/a	FR1	0	R1395M
680.117	5.499	752515	DISTRACT_START	n/a	n/a	n/a	-999	4	[0, 0, 0]	n/a	FR1	0	R1395M
685.616	4.866	758009	PROB	4.866	n/a	n/a	-999	4	[5, 6, 8]	19	FR1	0	R1395M
690.482	4.783	762874	PROB	4.783	n/a	n/a	-999	4	[7, 7, 8]	22	FR1	0	R1395M
695.265	3.084	767657	PROB	3.084	n/a	n/a	-999	4	[6, 8, 6]	20	FR1	0	R1395M
698.349	3.382	770741	PROB	3.382	n/a	n/a	-999	4	[3, 8, 2]	13	FR1	0	R1395M
701.731	0.0	774123	STOP	n/a	n/a	n/a	-999	4	[-999, -999, -999]	n/a	FR1	0	R1395M
701.731	1.233	774133	DISTRACT_END	n/a	n/a	n/a	-999	4	[0, 0, 0]	n/a	FR1	0	R1395M
702.964	2.761	775359	REC_START	n/a	n/a	n/a	-999	4	[0, 0, 0]	n/a	FR1	0	R1395M
705.725	1.922	778117	REC_WORD	1.922	n/a	CLOWN	3	4	[0, 0, 0]	n/a	FR1	0	R1395M
707.647	1.757	780039	REC_WORD	1.757	n/a	SHELL	2	4	[0, 0, 0]	n/a	FR1	0	R1395M
709.404	7.968	781795	REC_WORD	7.968	n/a	PRINCE	1	4	[0, 0, 0]	n/a	FR1	0	R1395M
717.372	4.249	789763	REC_WORD_VV	4.249	n/a	<>	-999	4	[0, 0, 0]	n/a	FR1	0	R1395M
721.621	11.619	794012	REC_WORD	11.619	n/a	CLOCK	-999	4	[0, 0, 0]	n/a	FR1	0	R1395M
733.24	16.642	805634	REC_END	n/a	n/a	n/a	-999	4	[0, 0, 0]	n/a	FR1	0	R1395M
749.882	10.351	822283	COUNTDOWN_START	n/a	n/a	n/a	-999	5	[0, 0, 0]	n/a	FR1	0	R1395M
760.233	0.0	832624	COUNTDOWN_END	n/a	n/a	n/a	-999	5	[0, 0, 0]	n/a	FR1	0	R1395M
760.233	2.266	832624	ENCODING_START	n/a	n/a	n/a	-999	5	[0, 0, 0]	n/a	FR1	0	R1395M
762.499	1.6	834889	WORD	n/a	n/a	HAT	1	5	[0, 0, 0]	n/a	FR1	0	R1395M
764.099	0.9	836489	WORD_OFF	n/a	n/a	HAT	1	5	[0, 0, 0]	n/a	FR1	0	R1395M
764.999	1.616	837397	WORD	n/a	n/a	WEB	2	5	[0, 0, 0]	n/a	FR1	0	R1395M
766.615	0.917	839006	WORD_OFF	n/a	n/a	WEB	2	5	[0, 0, 0]	n/a	FR1	0	R1395M
767.532	1.6	839924	WORD	n/a	n/a	LANE	3	5	[0, 0, 0]	n/a	FR1	0	R1395M
769.132	0.966	841524	WORD_OFF	n/a	n/a	LANE	3	5	[0, 0, 0]	n/a	FR1	0	R1395M
770.098	1.617	842488	WORD	n/a	n/a	SPEAR	4	5	[0, 0, 0]	n/a	FR1	0	R1395M
771.715	0.9	844107	WORD_OFF	n/a	n/a	SPEAR	4	5	[0, 0, 0]	n/a	FR1	0	R1395M
772.615	1.6	845005	WORD	n/a	n/a	BROOM	5	5	[0, 0, 0]	n/a	FR1	0	R1395M
774.215	1.0	846605	WORD_OFF	n/a	n/a	BROOM	5	5	[0, 0, 0]	n/a	FR1	0	R1395M
775.215	1.617	847607	WORD	n/a	n/a	PORK	6	5	[0, 0, 0]	n/a	FR1	0	R1395M
776.832	0.966	849226	WORD_OFF	n/a	n/a	PORK	6	5	[0, 0, 0]	n/a	FR1	0	R1395M
777.798	1.6	850190	WORD	n/a	n/a	CAPE	7	5	[0, 0, 0]	n/a	FR1	0	R1395M
779.398	1.0	851790	WORD_OFF	n/a	n/a	CAPE	7	5	[0, 0, 0]	n/a	FR1	0	R1395M
780.398	1.6	852791	WORD	n/a	n/a	HOG	8	5	[0, 0, 0]	n/a	FR1	0	R1395M
781.998	0.917	854392	WORD_OFF	n/a	n/a	HOG	8	5	[0, 0, 0]	n/a	FR1	0	R1395M
782.915	1.6	855309	WORD	n/a	n/a	SMILE	9	5	[0, 0, 0]	n/a	FR1	0	R1395M
784.515	0.916	856909	WORD_OFF	n/a	n/a	SMILE	9	5	[0, 0, 0]	n/a	FR1	0	R1395M
785.431	1.6	857826	WORD	n/a	n/a	SPICE	10	5	[0, 0, 0]	n/a	FR1	0	R1395M
787.031	0.85	859427	WORD_OFF	n/a	n/a	SPICE	10	5	[0, 0, 0]	n/a	FR1	0	R1395M
787.881	1.6	860278	WORD	n/a	n/a	MOOSE	11	5	[0, 0, 0]	n/a	FR1	0	R1395M
789.481	0.767	861879	WORD_OFF	n/a	n/a	MOOSE	11	5	[0, 0, 0]	n/a	FR1	0	R1395M
790.248	1.6	862637	WORD	n/a	n/a	TOAD	12	5	[0, 0, 0]	n/a	FR1	0	R1395M
791.848	0.0	864235	PROB	0.0	n/a	n/a	-999	5	[6, 7, 7]	20	FR1	0	R1395M
791.848	0.002	864237	WORD_OFF	n/a	n/a	TOAD	12	5	[0, 0, 0]	n/a	FR1	0	R1395M
791.85	0.0	864237	START	n/a	n/a	n/a	-999	5	[-999, -999, -999]	n/a	FR1	0	R1395M
791.849	0.001	864246	ENCODING_END	n/a	n/a	n/a	-999	5	[0, 0, 0]	n/a	FR1	0	R1395M
791.85	4.866	864246	DISTRACT_START	n/a	n/a	n/a	-999	5	[0, 0, 0]	n/a	FR1	0	R1395M
796.716	2.967	869103	PROB	2.967	n/a	n/a	-999	5	[4, 3, 2]	9	FR1	0	R1395M
799.683	5.099	872070	PROB	5.099	n/a	n/a	-999	5	[1, 4, 6]	11	FR1	0	R1395M
804.782	3.316	877168	PROB	3.316	n/a	n/a	-999	5	[3, 4, 5]	12	FR1	0	R1395M
808.098	2.918	880484	PROB	2.918	n/a	n/a	-999	5	[7, 5, 1]	13	FR1	0	R1395M
811.016	4.218	883402	PROB	4.218	n/a	n/a	-999	5	[8, 6, 5]	19	FR1	0	R1395M
815.234	0.0	887620	STOP	n/a	n/a	n/a	-999	5	[-999, -999, -999]	n/a	FR1	0	R1395M
815.234	1.365	887624	DISTRACT_END	n/a	n/a	n/a	-999	5	[0, 0, 0]	n/a	FR1	0	R1395M
816.599	1.934	888990	REC_START	n/a	n/a	n/a	-999	5	[0, 0, 0]	n/a	FR1	0	R1395M
818.533	1.113	890919	REC_WORD	1.113	n/a	LANE	3	5	[0, 0, 0]	n/a	FR1	0	R1395M
819.646	1.329	892031	REC_WORD	1.329	n/a	HAT	1	5	[0, 0, 0]	n/a	FR1	0	R1395M
820.975	1.711	893360	REC_WORD	1.711	n/a	WEB	2	5	[0, 0, 0]	n/a	FR1	0	R1395M
822.686	1.481	895071	REC_WORD	1.481	n/a	MOOSE	11	5	[0, 0, 0]	n/a	FR1	0	R1395M
824.167	5.214	896552	REC_WORD	5.214	n/a	SPICE	10	5	[0, 0, 0]	n/a	FR1	0	R1395M
829.381	2.982	901766	REC_WORD	2.982	n/a	PORK	6	5	[0, 0, 0]	n/a	FR1	0	R1395M
832.363	8.438	904748	REC_WORD	8.438	n/a	SPEAR	4	5	[0, 0, 0]	n/a	FR1	0	R1395M
840.801	0.173	913185	REC_WORD_VV	0.173	n/a	<>	-999	5	[0, 0, 0]	n/a	FR1	0	R1395M
840.974	0.364	913358	REC_WORD	0.364	n/a	COMB	-999	5	[0, 0, 0]	n/a	FR1	0	R1395M
841.338	5.548	913722	REC_WORD_VV	5.548	n/a	<>	-999	5	[0, 0, 0]	n/a	FR1	0	R1395M
846.886	34.546	919274	REC_END	n/a	n/a	n/a	-999	5	[0, 0, 0]	n/a	FR1	0	R1395M
881.432	10.35	953826	COUNTDOWN_START	n/a	n/a	n/a	-999	6	[0, 0, 0]	n/a	FR1	0	R1395M
891.782	0.001	964167	COUNTDOWN_END	n/a	n/a	n/a	-999	6	[0, 0, 0]	n/a	FR1	0	R1395M
891.783	1.932	964167	ENCODING_START	n/a	n/a	n/a	-999	6	[0, 0, 0]	n/a	FR1	0	R1395M
893.715	1.617	966104	WORD	n/a	n/a	TRASH	1	6	[0, 0, 0]	n/a	FR1	0	R1395M
895.332	0.833	967723	WORD_OFF	n/a	n/a	TRASH	1	6	[0, 0, 0]	n/a	FR1	0	R1395M
896.165	1.6	968556	WORD	n/a	n/a	MUG	2	6	[0, 0, 0]	n/a	FR1	0	R1395M
897.765	0.9	970156	WORD_OFF	n/a	n/a	MUG	2	6	[0, 0, 0]	n/a	FR1	0	R1395M
898.665	1.617	971055	WORD	n/a	n/a	LENS	3	6	[0, 0, 0]	n/a	FR1	0	R1395M
900.282	0.8	972664	WORD_OFF	n/a	n/a	LENS	3	6	[0, 0, 0]	n/a	FR1	0	R1395M
901.082	1.6	973469	WORD	n/a	n/a	SHEET	4	6	[0, 0, 0]	n/a	FR1	0	R1395M
902.682	0.933	975069	WORD_OFF	n/a	n/a	SHEET	4	6	[0, 0, 0]	n/a	FR1	0	R1395M
903.615	1.6	976005	WORD	n/a	n/a	CAVE	5	6	[0, 0, 0]	n/a	FR1	0	R1395M
905.215	0.867	977606	WORD_OFF	n/a	n/a	CAVE	5	6	[0, 0, 0]	n/a	FR1	0	R1395M
906.082	1.6	978467	WORD	n/a	n/a	ROAD	6	6	[0, 0, 0]	n/a	FR1	0	R1395M
907.682	0.767	980067	WORD_OFF	n/a	n/a	ROAD	6	6	[0, 0, 0]	n/a	FR1	0	R1395M
908.449	1.6	980834	WORD	n/a	n/a	MOSS	7	6	[0, 0, 0]	n/a	FR1	0	R1395M
910.049	0.766	982435	WORD_OFF	n/a	n/a	MOSS	7	6	[0, 0, 0]	n/a	FR1	0	R1395M
910.815	1.6	983202	WORD	n/a	n/a	SEAT	8	6	[0, 0, 0]	n/a	FR1	0	R1395M
912.415	0.884	984802	WORD_OFF	n/a	n/a	SEAT	8	6	[0, 0, 0]	n/a	FR1	0	R1395M
913.299	1.6	985682	WORD	n/a	n/a	OAR	9	6	[0, 0, 0]	n/a	FR1	0	R1395M
914.899	0.883	987282	WORD_OFF	n/a	n/a	OAR	9	6	[0, 0, 0]	n/a	FR1	0	R1395M
915.782	1.617	988171	WORD	n/a	n/a	WORLD	10	6	[0, 0, 0]	n/a	FR1	0	R1395M
917.399	0.833	989781	WORD_OFF	n/a	n/a	WORLD	10	6	[0, 0, 0]	n/a	FR1	0	R1395M
918.232	1.616	990614	WORD	n/a	n/a	CRANE	11	6	[0, 0, 0]	n/a	FR1	0	R1395M
919.848	0.95	992233	WORD_OFF	n/a	n/a	CRANE	11	6	[0, 0, 0]	n/a	FR1	0	R1395M
920.798	1.601	993187	WORD	n/a	n/a	FOOD	12	6	[0, 0, 0]	n/a	FR1	0	R1395M
922.399	0.001	994779	PROB	0.001	n/a	n/a	-999	6	[6, 6, 2]	14	FR1	0	R1395M
922.4	0.0	994780	START	n/a	n/a	n/a	-999	6	[-999, -999, -999]	n/a	FR1	0	R1395M
922.399	0.001	994788	WORD_OFF	n/a	n/a	FOOD	12	6	[0, 0, 0]	n/a	FR1	0	R1395M
922.4	0.0	994788	ENCODING_END	n/a	n/a	n/a	-999	6	[0, 0, 0]	n/a	FR1	0	R1395M
922.4	4.398	994788	DISTRACT_START	n/a	n/a	n/a	-999	6	[0, 0, 0]	n/a	FR1	0	R1395M
926.798	4.934	999178	PROB	4.934	n/a	n/a	-999	6	[2, 3, 4]	9	FR1	0	R1395M
931.732	3.099	1004111	PROB	3.099	n/a	n/a	-999	6	[5, 2, 6]	13	FR1	0	R1395M
934.831	5.134	1007210	PROB	5.134	n/a	n/a	-999	6	[3, 7, 6]	16	FR1	0	R1395M
939.965	3.95	1012344	PROB	3.95	n/a	n/a	-999	6	[3, 4, 1]	8	FR1	0	R1395M
943.915	0.0	1016294	STOP	n/a	n/a	n/a	-999	6	[-999, -999, -999]	n/a	FR1	0	R1395M
943.915	1.05	1016303	DISTRACT_END	n/a	n/a	n/a	-999	6	[0, 0, 0]	n/a	FR1	0	R1395M
944.965	4.058	1017351	REC_START	n/a	n/a	n/a	-999	6	[0, 0, 0]	n/a	FR1	0	R1395M
949.023	1.683	1021402	REC_WORD	1.683	n/a	CRASH	-999	6	[0, 0, 0]	n/a	FR1	0	R1395M
950.706	3.139	1023084	REC_WORD	3.139	n/a	LENS	3	6	[0, 0, 0]	n/a	FR1	0	R1395M
953.845	1.23	1026223	REC_WORD_VV	1.23	n/a	<>	-999	6	[0, 0, 0]	n/a	FR1	0	R1395M
955.075	3.511	1027453	REC_WORD	3.511	n/a	WORLD	10	6	[0, 0, 0]	n/a	FR1	0	R1395M
958.586	2.746	1030964	REC_WORD	2.746	n/a	ROAD	6	6	[0, 0, 0]	n/a	FR1	0	R1395M
961.332	1.698	1033710	REC_WORD	1.698	n/a	CAVE	5	6	[0, 0, 0]	n/a	FR1	0	R1395M
963.03	3.529	1035408	REC_WORD	3.529	n/a	OAR	9	6	[0, 0, 0]	n/a	FR1	0	R1395M
966.559	8.657	1038937	REC_WORD	8.657	n/a	WEB	-999	6	[0, 0, 0]	n/a	FR1	0	R1395M
975.216	12.933	1047598	REC_END	n/a	n/a	n/a	-999	6	[0, 0, 0]	n/a	FR1	0	R1395M
988.149	10.35	1060531	COUNTDOWN_START	n/a	n/a	n/a	-999	7	[0, 0, 0]	n/a	FR1	0	R1395M
998.499	0.001	1070882	COUNTDOWN_END	n/a	n/a	n/a	-999	7	[0, 0, 0]	n/a	FR1	0	R1395M
998.5	1.998	1070882	ENCODING_START	n/a	n/a	n/a	-999	7	[0, 0, 0]	n/a	FR1	0	R1395M
1000.498	1.601	1072875	WORD	n/a	n/a	FACE	1	7	[0, 0, 0]	n/a	FR1	0	R1395M
1002.099	0.9	1074475	WORD_OFF	n/a	n/a	FACE	1	7	[0, 0, 0]	n/a	FR1	0	R1395M
1002.999	1.616	1075383	WORD	n/a	n/a	MIST	2	7	[0, 0, 0]	n/a	FR1	0	R1395M
1004.615	0.95	1076993	WORD_OFF	n/a	n/a	MIST	2	7	[0, 0, 0]	n/a	FR1	0	R1395M
1005.565	1.617	1077947	WORD	n/a	n/a	STOOL	3	7	[0, 0, 0]	n/a	FR1	0	R1395M
1007.182	0.799	1079566	WORD_OFF	n/a	n/a	STOOL	3	7	[0, 0, 0]	n/a	FR1	0	R1395M
1007.981	1.601	1080362	WORD	n/a	n/a	SINK	4	7	[0, 0, 0]	n/a	FR1	0	R1395M
1009.582	0.85	1081962	WORD_OFF	n/a	n/a	SINK	4	7	[0, 0, 0]	n/a	FR1	0	R1395M
1010.432	1.6	1082814	WORD	n/a	n/a	MAP	5	7	[0, 0, 0]	n/a	FR1	0	R1395M
1012.032	0.933	1084414	WORD_OFF	n/a	n/a	MAP	5	7	[0, 0, 0]	n/a	FR1	0	R1395M
1012.965	1.6	1085350	WORD	n/a	n/a	LOCK	6	7	[0, 0, 0]	n/a	FR1	0	R1395M
1014.565	1.0	1086950	WORD_OFF	n/a	n/a	LOCK	6	7	[0, 0, 0]	n/a	FR1	0	R1395M
1015.565	1.617	1087942	WORD	n/a	n/a	WOOD	7	7	[0, 0, 0]	n/a	FR1	0	R1395M
1017.182	0.85	1089561	WORD_OFF	n/a	n/a	WOOD	7	7	[0, 0, 0]	n/a	FR1	0	R1395M
1018.032	1.6	1090413	WORD	n/a	n/a	SLEEVE	8	7	[0, 0, 0]	n/a	FR1	0	R1395M
1019.632	0.833	1092013	WORD_OFF	n/a	n/a	SLEEVE	8	7	[0, 0, 0]	n/a	FR1	0	R1395M
1020.465	1.617	1092846	WORD	n/a	n/a	PRIZE	9	7	[0, 0, 0]	n/a	FR1	0	R1395M
1022.082	0.833	1094465	WORD_OFF	n/a	n/a	PRIZE	9	7	[0, 0, 0]	n/a	FR1	0	R1395M
1022.915	1.617	1095298	WORD	n/a	n/a	PASTE	10	7	[0, 0, 0]	n/a	FR1	0	R1395M
1024.532	0.816	1096908	WORD_OFF	n/a	n/a	PASTE	10	7	[0, 0, 0]	n/a	FR1	0	R1395M
1025.348	1.617	1097731	WORD	n/a	n/a	CLOTH	11	7	[0, 0, 0]	n/a	FR1	0	R1395M
1026.965	0.95	1099341	WORD_OFF	n/a	n/a	CLOTH	11	7	[0, 0, 0]	n/a	FR1	0	R1395M
1027.915	1.6	1100295	WORD	n/a	n/a	JET	12	7	[0, 0, 0]	n/a	FR1	0	R1395M
1029.515	0.001	1101889	PROB	0.001	n/a	n/a	-999	7	[5, 2, 6]	13	FR1	0	R1395M
1029.516	0.0	1101890	START	n/a	n/a	n/a	-999	7	[-999, -999, -999]	n/a	FR1	0	R1395M
1029.515	0.001	1101896	WORD_OFF	n/a	n/a	JET	12	7	[0, 0, 0]	n/a	FR1	0	R1395M
1029.516	0.0	1101896	ENCODING_END	n/a	n/a	n/a	-999	7	[0, 0, 0]	n/a	FR1	0	R1395M
1029.516	3.433	1101896	DISTRACT_START	n/a	n/a	n/a	-999	7	[0, 0, 0]	n/a	FR1	0	R1395M
1032.949	3.483	1105323	PROB	3.483	n/a	n/a	-999	7	[1, 5, 7]	13	FR1	0	R1395M
1036.432	4.867	1108806	PROB	4.867	n/a	n/a	-999	7	[2, 7, 4]	13	FR1	0	R1395M
1041.299	2.95	1113673	PROB	2.95	n/a	n/a	-999	7	[2, 5, 4]	11	FR1	0	R1395M
1044.249	3.166	1116622	PROB	3.166	n/a	n/a	-999	7	[4, 6, 6]	16	FR1	0	R1395M
1047.415	4.9	1119788	PROB	4.9	n/a	n/a	-999	7	[5, 2, 3]	10	FR1	0	R1395M
1052.315	0.0	1124688	STOP	n/a	n/a	n/a	-999	7	[-999, -999, -999]	n/a	FR1	0	R1395M
1052.315	1.35	1124693	DISTRACT_END	n/a	n/a	n/a	-999	7	[0, 0, 0]	n/a	FR1	0	R1395M
1053.665	3.185	1126040	REC_START	n/a	n/a	n/a	-999	7	[0, 0, 0]	n/a	FR1	0	R1395M
1056.85	1.43	1129223	REC_WORD	1.43	n/a	FACE	1	7	[0, 0, 0]	n/a	FR1	0	R1395M
1058.28	1.482	1130653	REC_WORD	1.482	n/a	SINK	4	7	[0, 0, 0]	n/a	FR1	0	R1395M
1059.762	2.956	1132135	REC_WORD	2.956	n/a	STOOL	3	7	[0, 0, 0]	n/a	FR1	0	R1395M
1062.718	5.622	1135090	REC_WORD	5.622	n/a	SLEEVE	8	7	[0, 0, 0]	n/a	FR1	0	R1395M
1068.34	15.596	1140712	REC_WORD	15.596	n/a	PRIZE	9	7	[0, 0, 0]	n/a	FR1	0	R1395M
1083.936	15.879	1156315	REC_END	n/a	n/a	n/a	-999	7	[0, 0, 0]	n/a	FR1	0	R1395M
1099.815	10.351	1172197	COUNTDOWN_START	n/a	n/a	n/a	-999	8	[0, 0, 0]	n/a	FR1	0	R1395M
1110.166	0.0	1182538	COUNTDOWN_END	n/a	n/a	n/a	-999	8	[0, 0, 0]	n/a	FR1	0	R1395M
1110.166	2.065	1182540	ENCODING_START	n/a	n/a	n/a	-999	8	[0, 0, 0]	n/a	FR1	0	R1395M
1112.231	1.6	1184606	WORD	n/a	n/a	RAKE	1	8	[0, 0, 0]	n/a	FR1	0	R1395M
1113.831	0.951	1186206	WORD_OFF	n/a	n/a	RAKE	1	8	[0, 0, 0]	n/a	FR1	0	R1395M
1114.782	1.599	1187161	WORD	n/a	n/a	SPARK	2	8	[0, 0, 0]	n/a	FR1	0	R1395M
1116.381	0.767	1188761	WORD_OFF	n/a	n/a	SPARK	2	8	[0, 0, 0]	n/a	FR1	0	R1395M
1117.148	1.6	1189519	WORD	n/a	n/a	ROCK	3	8	[0, 0, 0]	n/a	FR1	0	R1395M
1118.748	0.9	1191119	WORD_OFF	n/a	n/a	ROCK	3	8	[0, 0, 0]	n/a	FR1	0	R1395M
1119.648	1.6	1192027	WORD	n/a	n/a	DRAIN	4	8	[0, 0, 0]	n/a	FR1	0	R1395M
1121.248	0.9	1193627	WORD_OFF	n/a	n/a	DRAIN	4	8	[0, 0, 0]	n/a	FR1	0	R1395M
1122.148	1.616	1194526	WORD	n/a	n/a	JAR	5	8	[0, 0, 0]	n/a	FR1	0	R1395M
1123.764	0.901	1196136	WORD_OFF	n/a	n/a	JAR	5	8	[0, 0, 0]	n/a	FR1	0	R1395M
1124.665	1.6	1197043	WORD	n/a	n/a	WAVE	6	8	[0, 0, 0]	n/a	FR1	0	R1395M
1126.265	0.8	1198644	WORD_OFF	n/a	n/a	WAVE	6	8	[0, 0, 0]	n/a	FR1	0	R1395M
1127.065	1.6	1199439	WORD	n/a	n/a	SAUCE	7	8	[0, 0, 0]	n/a	FR1	0	R1395M
1128.665	0.784	1201039	WORD_OFF	n/a	n/a	SAUCE	7	8	[0, 0, 0]	n/a	FR1	0	R1395M
1129.449	1.617	1201825	WORD	n/a	n/a	DEW	8	8	[0, 0, 0]	n/a	FR1	0	R1395M
1131.066	0.833	1203444	WORD_OFF	n/a	n/a	DEW	8	8	[0, 0, 0]	n/a	FR1	0	R1395M
1131.899	1.601	1204277	WORD	n/a	n/a	OWL	9	8	[0, 0, 0]	n/a	FR1	0	R1395M
1133.5	0.95	1205878	WORD_OFF	n/a	n/a	OWL	9	8	[0, 0, 0]	n/a	FR1	0	R1395M
1134.45	1.615	1206823	WORD	n/a	n/a	TROUT	10	8	[0, 0, 0]	n/a	FR1	0	R1395M
1136.065	1.0	1208442	WORD_OFF	n/a	n/a	TROUT	10	8	[0, 0, 0]	n/a	FR1	0	R1395M
1137.065	1.6	1209443	WORD	n/a	n/a	TANK	11	8	[0, 0, 0]	n/a	FR1	0	R1395M
1138.665	0.867	1211044	WORD_OFF	n/a	n/a	TANK	11	8	[0, 0, 0]	n/a	FR1	0	R1395M
1139.532	1.601	1211905	WORD	n/a	n/a	LAND	12	8	[0, 0, 0]	n/a	FR1	0	R1395M
1141.133	0.001	1213501	PROB	0.001	n/a	n/a	-999	8	[3, 4, 8]	15	FR1	0	R1395M
1141.134	0.0	1213502	START	n/a	n/a	n/a	-999	8	[-999, -999, -999]	n/a	FR1	0	R1395M
1141.132	0.002	1213505	WORD_OFF	n/a	n/a	LAND	12	8	[0, 0, 0]	n/a	FR1	0	R1395M
1141.134	0.0	1213505	ENCODING_END	n/a	n/a	n/a	-999	8	[0, 0, 0]	n/a	FR1	0	R1395M
1141.134	4.632	1213514	DISTRACT_START	n/a	n/a	n/a	-999	8	[0, 0, 0]	n/a	FR1	0	R1395M
1145.766	3.55	1218134	PROB	3.55	n/a	n/a	-999	8	[8, 3, 1]	12	FR1	0	R1395M
1149.316	3.75	1221684	PROB	3.75	n/a	n/a	-999	8	[3, 8, 5]	16	FR1	0	R1395M
1153.066	6.166	1225434	PROB	6.166	n/a	n/a	-999	8	[6, 2, 4]	12	FR1	0	R1395M
1159.232	3.367	1231599	PROB	3.367	n/a	n/a	-999	8	[5, 2, 4]	11	FR1	0	R1395M
1162.599	0.0	1234966	STOP	n/a	n/a	n/a	-999	8	[-999, -999, -999]	n/a	FR1	0	R1395M
1162.599	1.116	1234973	DISTRACT_END	n/a	n/a	n/a	-999	8	[0, 0, 0]	n/a	FR1	0	R1395M
1163.715	2.103	1236087	REC_START	n/a	n/a	n/a	-999	8	[0, 0, 0]	n/a	FR1	0	R1395M
1165.818	1.375	1238185	REC_WORD	1.375	n/a	RAKE	1	8	[0, 0, 0]	n/a	FR1	0	R1395M
1167.193	18.571	1239560	REC_WORD	18.571	n/a	SPARK	2	8	[0, 0, 0]	n/a	FR1	0	R1395M
1185.764	8.243	1258130	REC_WORD_VV	8.243	n/a	<>	-999	8	[0, 0, 0]	n/a	FR1	0	R1395M
1194.007	14.375	1266380	REC_END	n/a	n/a	n/a	-999	8	[0, 0, 0]	n/a	FR1	0	R1395M
1208.382	10.352	1280755	COUNTDOWN_START	n/a	n/a	n/a	-999	9	[0, 0, 0]	n/a	FR1	0	R1395M
1218.734	0.0	1291105	COUNTDOWN_END	n/a	n/a	n/a	-999	9	[0, 0, 0]	n/a	FR1	0	R1395M
1218.734	2.082	1291105	ENCODING_START	n/a	n/a	n/a	-999	9	[0, 0, 0]	n/a	FR1	0	R1395M
1220.816	1.6	1293183	WORD	n/a	n/a	BRIDGE	1	9	[0, 0, 0]	n/a	FR1	0	R1395M
1222.416	0.866	1294783	WORD_OFF	n/a	n/a	BRIDGE	1	9	[0, 0, 0]	n/a	FR1	0	R1395M
1223.282	1.617	1295654	WORD	n/a	n/a	THREAD	2	9	[0, 0, 0]	n/a	FR1	0	R1395M
1224.899	0.933	1297273	WORD_OFF	n/a	n/a	THREAD	2	9	[0, 0, 0]	n/a	FR1	0	R1395M
1225.832	1.6	1298199	WORD	n/a	n/a	TOY	3	9	[0, 0, 0]	n/a	FR1	0	R1395M
1227.432	0.817	1299799	WORD_OFF	n/a	n/a	TOY	3	9	[0, 0, 0]	n/a	FR1	0	R1395M
1228.249	1.616	1300614	WORD	n/a	n/a	GUN	4	9	[0, 0, 0]	n/a	FR1	0	R1395M
1229.865	0.95	1302233	WORD_OFF	n/a	n/a	GUN	4	9	[0, 0, 0]	n/a	FR1	0	R1395M
1230.815	1.6	1303187	WORD	n/a	n/a	MOLE	5	9	[0, 0, 0]	n/a	FR1	0	R1395M
1232.415	0.784	1304788	WORD_OFF	n/a	n/a	MOLE	5	9	[0, 0, 0]	n/a	FR1	0	R1395M
1233.199	1.616	1305564	WORD	n/a	n/a	SKY	6	9	[0, 0, 0]	n/a	FR1	0	R1395M
1234.815	0.967	1307183	WORD_OFF	n/a	n/a	SKY	6	9	[0, 0, 0]	n/a	FR1	0	R1395M
1235.782	1.6	1308147	WORD	n/a	n/a	DITCH	7	9	[0, 0, 0]	n/a	FR1	0	R1395M
1237.382	0.8	1309748	WORD_OFF	n/a	n/a	DITCH	7	9	[0, 0, 0]	n/a	FR1	0	R1395M
1238.182	1.6	1310552	WORD	n/a	n/a	FLAG	8	9	[0, 0, 0]	n/a	FR1	0	R1395M
1239.782	0.817	1312153	WORD_OFF	n/a	n/a	FLAG	8	9	[0, 0, 0]	n/a	FR1	0	R1395M
1240.599	1.6	1312967	WORD	n/a	n/a	THROAT	9	9	[0, 0, 0]	n/a	FR1	0	R1395M
1242.199	0.833	1314567	WORD_OFF	n/a	n/a	THROAT	9	9	[0, 0, 0]	n/a	FR1	0	R1395M
1243.032	1.617	1315400	WORD	n/a	n/a	SWORD	10	9	[0, 0, 0]	n/a	FR1	0	R1395M
1244.649	0.832	1317019	WORD_OFF	n/a	n/a	SWORD	10	9	[0, 0, 0]	n/a	FR1	0	R1395M
1245.481	1.601	1317852	WORD	n/a	n/a	JUDGE	11	9	[0, 0, 0]	n/a	FR1	0	R1395M
1247.082	0.783	1319452	WORD_OFF	n/a	n/a	JUDGE	11	9	[0, 0, 0]	n/a	FR1	0	R1395M
1247.865	1.6	1320229	WORD	n/a	n/a	VINE	12	9	[0, 0, 0]	n/a	FR1	0	R1395M
1249.465	0.001	1321827	PROB	0.001	n/a	n/a	-999	9	[2, 2, 4]	8	FR1	0	R1395M
1249.466	0.0	1321828	START	n/a	n/a	n/a	-999	9	[-999, -999, -999]	n/a	FR1	0	R1395M
1249.465	0.001	1321829	WORD_OFF	n/a	n/a	VINE	12	9	[0, 0, 0]	n/a	FR1	0	R1395M
1249.466	0.0	1321839	ENCODING_END	n/a	n/a	n/a	-999	9	[0, 0, 0]	n/a	FR1	0	R1395M
1249.466	3.883	1321839	DISTRACT_START	n/a	n/a	n/a	-999	9	[0, 0, 0]	n/a	FR1	0	R1395M
1253.349	3.201	1325711	PROB	3.201	n/a	n/a	-999	9	[4, 8, 8]	20	FR1	0	R1395M
1256.55	5.666	1328912	PROB	5.666	n/a	n/a	-999	9	[1, 5, 6]	12	FR1	0	R1395M
1262.216	2.899	1334578	PROB	2.899	n/a	n/a	-999	9	[4, 2, 4]	10	FR1	0	R1395M
1265.115	2.75	1337476	PROB	2.75	n/a	n/a	-999	9	[1, 7, 1]	9	FR1	0	R1395M
1267.865	3.549	1340226	PROB	3.549	n/a	n/a	-999	9	[6, 8, 1]	15	FR1	0	R1395M
1271.414	0.0	1343775	STOP	n/a	n/a	n/a	-999	9	[-999, -999, -999]	n/a	FR1	0	R1395M
1271.414	1.284	1343784	DISTRACT_END	n/a	n/a	n/a	-999	9	[0, 0, 0]	n/a	FR1	0	R1395M
1272.698	2.273	1345066	REC_START	n/a	n/a	n/a	-999	9	[0, 0, 0]	n/a	FR1	0	R1395M
1274.971	1.091	1347332	REC_WORD	1.091	n/a	TOY	3	9	[0, 0, 0]	n/a	FR1	0	R1395M
1276.062	1.085	1348423	REC_WORD	1.085	n/a	GUN	4	9	[0, 0, 0]	n/a	FR1	0	R1395M
1277.147	1.836	1349508	REC_WORD	1.836	n/a	SKY	6	9	[0, 0, 0]	n/a	FR1	0	R1395M
1278.983	1.36	1351344	REC_WORD	1.36	n/a	DITCH	7	9	[0, 0, 0]	n/a	FR1	0	R1395M
1280.343	6.178	1352704	REC_WORD	6.178	n/a	MOLE	5	9	[0, 0, 0]	n/a	FR1	0	R1395M
1286.521	16.449	1358881	REC_WORD	16.449	n/a	FLAG	8	9	[0, 0, 0]	n/a	FR1	0	R1395M
1302.97	14.695	1375332	REC_END	n/a	n/a	n/a	-999	9	[0, 0, 0]	n/a	FR1	0	R1395M
1317.665	10.351	1390034	COUNTDOWN_START	n/a	n/a	n/a	-999	10	[0, 0, 0]	n/a	FR1	0	R1395M
1328.016	0.0	1400384	COUNTDOWN_END	n/a	n/a	n/a	-999	10	[0, 0, 0]	n/a	FR1	0	R1395M
1328.016	2.049	1400384	ENCODING_START	n/a	n/a	n/a	-999	10	[0, 0, 0]	n/a	FR1	0	R1395M
1330.065	1.6	1402434	WORD	n/a	n/a	STORM	1	10	[0, 0, 0]	n/a	FR1	0	R1395M
1331.665	0.9	1404025	WORD_OFF	n/a	n/a	STORM	1	10	[0, 0, 0]	n/a	FR1	0	R1395M
1332.565	1.617	1404933	WORD	n/a	n/a	BADGE	2	10	[0, 0, 0]	n/a	FR1	0	R1395M
1334.182	0.967	1406542	WORD_OFF	n/a	n/a	BADGE	2	10	[0, 0, 0]	n/a	FR1	0	R1395M
1335.149	1.616	1407516	WORD	n/a	n/a	BEEF	3	10	[0, 0, 0]	n/a	FR1	0	R1395M
1336.765	1.0	1409125	WORD_OFF	n/a	n/a	BEEF	3	10	[0, 0, 0]	n/a	FR1	0	R1395M
1337.765	1.601	1410127	WORD	n/a	n/a	STREET	4	10	[0, 0, 0]	n/a	FR1	0	R1395M
1339.366	0.799	1411727	WORD_OFF	n/a	n/a	STREET	4	10	[0, 0, 0]	n/a	FR1	0	R1395M
1340.165	1.6	1412532	WORD	n/a	n/a	CAT	5	10	[0, 0, 0]	n/a	FR1	0	R1395M
1341.765	1.0	1414132	WORD_OFF	n/a	n/a	CAT	5	10	[0, 0, 0]	n/a	FR1	0	R1395M
1342.765	1.617	1415133	WORD	n/a	n/a	WIG	6	10	[0, 0, 0]	n/a	FR1	0	R1395M
1344.382	0.916	1416743	WORD_OFF	n/a	n/a	WIG	6	10	[0, 0, 0]	n/a	FR1	0	R1395M
1345.298	1.6	1417660	WORD	n/a	n/a	ICE	7	10	[0, 0, 0]	n/a	FR1	0	R1395M
1346.898	0.884	1419261	WORD_OFF	n/a	n/a	ICE	7	10	[0, 0, 0]	n/a	FR1	0	R1395M
1347.782	1.6	1420140	WORD	n/a	n/a	LEAF	8	10	[0, 0, 0]	n/a	FR1	0	R1395M
1349.382	1.0	1421741	WORD_OFF	n/a	n/a	LEAF	8	10	[0, 0, 0]	n/a	FR1	0	R1395M
1350.382	1.616	1422742	WORD	n/a	n/a	BATH	9	10	[0, 0, 0]	n/a	FR1	0	R1395M
1351.998	0.967	1424361	WORD_OFF	n/a	n/a	BATH	9	10	[0, 0, 0]	n/a	FR1	0	R1395M
1352.965	1.616	1425325	WORD	n/a	n/a	GLOBE	10	10	[0, 0, 0]	n/a	FR1	0	R1395M
1354.581	0.951	1426944	WORD_OFF	n/a	n/a	GLOBE	10	10	[0, 0, 0]	n/a	FR1	0	R1395M
1355.532	1.6	1427898	WORD	n/a	n/a	ROOT	11	10	[0, 0, 0]	n/a	FR1	0	R1395M
1357.132	0.916	1429489	WORD_OFF	n/a	n/a	ROOT	11	10	[0, 0, 0]	n/a	FR1	0	R1395M
1358.048	1.6	1430406	WORD	n/a	n/a	ARK	12	10	[0, 0, 0]	n/a	FR1	0	R1395M
1359.648	0.002	1432004	PROB	0.002	n/a	n/a	-999	10	[7, 8, 5]	20	FR1	0	R1395M
1359.65	0.0	1432006	START	n/a	n/a	n/a	-999	10	[-999, -999, -999]	n/a	FR1	0	R1395M
1359.648	0.002	1432007	WORD_OFF	n/a	n/a	ARK	12	10	[0, 0, 0]	n/a	FR1	0	R1395M
1359.65	0.0	1432016	ENCODING_END	n/a	n/a	n/a	-999	10	[0, 0, 0]	n/a	FR1	0	R1395M
1359.65	6.449	1432016	DISTRACT_START	n/a	n/a	n/a	-999	10	[0, 0, 0]	n/a	FR1	0	R1395M
1366.099	5.218	1438455	PROB	5.218	n/a	n/a	-999	10	[5, 3, 4]	12	FR1	0	R1395M
1371.317	2.681	1443673	PROB	2.681	n/a	n/a	-999	10	[4, 2, 2]	8	FR1	0	R1395M
1373.998	3.317	1446354	PROB	3.317	n/a	n/a	-999	10	[2, 8, 3]	13	FR1	0	R1395M
1377.315	3.034	1449670	PROB	3.034	n/a	n/a	-999	10	[2, 7, 2]	11	FR1	0	R1395M
1380.349	0.0	1452704	STOP	n/a	n/a	n/a	-999	10	[-999, -999, -999]	n/a	FR1	0	R1395M
1380.349	1.1	1452708	DISTRACT_END	n/a	n/a	n/a	-999	10	[0, 0, 0]	n/a	FR1	0	R1395M
1381.449	3.293	1453812	REC_START	n/a	n/a	n/a	-999	10	[0, 0, 0]	n/a	FR1	0	R1395M
1384.742	1.447	1457097	REC_WORD	1.447	n/a	ICE	7	10	[0, 0, 0]	n/a	FR1	0	R1395M
1386.189	0.112	1458544	REC_WORD_VV	0.112	n/a	<>	-999	10	[0, 0, 0]	n/a	FR1	0	R1395M
1386.301	1.442	1458656	REC_WORD	1.442	n/a	BATH	9	10	[0, 0, 0]	n/a	FR1	0	R1395M
1387.743	1.813	1460098	REC_WORD	1.813	n/a	CAT	5	10	[0, 0, 0]	n/a	FR1	0	R1395M
1389.556	22.18	1461911	REC_WORD	22.18	n/a	STREET	4	10	[0, 0, 0]	n/a	FR1	0	R1395M
1411.736	4.997	1484096	REC_END	n/a	n/a	n/a	-999	10	[0, 0, 0]	n/a	FR1	0	R1395M
1416.733	10.349	1489094	COUNTDOWN_START	n/a	n/a	n/a	-999	11	[0, 0, 0]	n/a	FR1	0	R1395M
1427.082	0.001	1499444	COUNTDOWN_END	n/a	n/a	n/a	-999	11	[0, 0, 0]	n/a	FR1	0	R1395M
1427.083	2.149	1499444	ENCODING_START	n/a	n/a	n/a	-999	11	[0, 0, 0]	n/a	FR1	0	R1395M
1429.232	1.6	1501587	WORD	n/a	n/a	BAY	1	11	[0, 0, 0]	n/a	FR1	0	R1395M
1430.832	1.0	1503187	WORD_OFF	n/a	n/a	BAY	1	11	[0, 0, 0]	n/a	FR1	0	R1395M
1431.832	1.6	1504189	WORD	n/a	n/a	SKIN	2	11	[0, 0, 0]	n/a	FR1	0	R1395M
1433.432	0.883	1505789	WORD_OFF	n/a	n/a	SKIN	2	11	[0, 0, 0]	n/a	FR1	0	R1395M
1434.315	1.617	1506669	WORD	n/a	n/a	BIN	3	11	[0, 0, 0]	n/a	FR1	0	R1395M
1435.932	0.966	1508288	WORD_OFF	n/a	n/a	BIN	3	11	[0, 0, 0]	n/a	FR1	0	R1395M
1436.898	1.6	1509261	WORD	n/a	n/a	BANK	4	11	[0, 0, 0]	n/a	FR1	0	R1395M
1438.498	0.884	1510852	WORD_OFF	n/a	n/a	BANK	4	11	[0, 0, 0]	n/a	FR1	0	R1395M
1439.382	1.616	1511741	WORD	n/a	n/a	MAIL	5	11	[0, 0, 0]	n/a	FR1	0	R1395M
1440.998	0.934	1513360	WORD_OFF	n/a	n/a	MAIL	5	11	[0, 0, 0]	n/a	FR1	0	R1395M
1441.932	1.6	1514287	WORD	n/a	n/a	STEAK	6	11	[0, 0, 0]	n/a	FR1	0	R1395M
1443.532	0.849	1515887	WORD_OFF	n/a	n/a	STEAK	6	11	[0, 0, 0]	n/a	FR1	0	R1395M
1444.381	1.6	1516738	WORD	n/a	n/a	LIMB	7	11	[0, 0, 0]	n/a	FR1	0	R1395M
1445.981	0.8	1518339	WORD_OFF	n/a	n/a	LIMB	7	11	[0, 0, 0]	n/a	FR1	0	R1395M
1446.781	1.6	1519134	WORD	n/a	n/a	BARN	8	11	[0, 0, 0]	n/a	FR1	0	R1395M
1448.381	0.95	1520735	WORD_OFF	n/a	n/a	BARN	8	11	[0, 0, 0]	n/a	FR1	0	R1395M
1449.331	1.6	1521689	WORD	n/a	n/a	APE	9	11	[0, 0, 0]	n/a	FR1	0	R1395M
1450.931	0.934	1523289	WORD_OFF	n/a	n/a	APE	9	11	[0, 0, 0]	n/a	FR1	0	R1395M
1451.865	1.6	1524225	WORD	n/a	n/a	GLASS	10	11	[0, 0, 0]	n/a	FR1	0	R1395M
1453.465	0.783	1525826	WORD_OFF	n/a	n/a	GLASS	10	11	[0, 0, 0]	n/a	FR1	0	R1395M
1454.248	1.617	1526602	WORD	n/a	n/a	CHEEK	11	11	[0, 0, 0]	n/a	FR1	0	R1395M
1455.865	0.833	1528221	WORD_OFF	n/a	n/a	CHEEK	11	11	[0, 0, 0]	n/a	FR1	0	R1395M
1456.698	1.601	1529054	WORD	n/a	n/a	BRUSH	12	11	[0, 0, 0]	n/a	FR1	0	R1395M
1458.299	0.0	1530650	START	n/a	n/a	n/a	-999	11	[-999, -999, -999]	n/a	FR1	0	R1395M
1458.299	0.0	1530650	PROB	0.0	n/a	n/a	-999	11	[2, 8, 5]	15	FR1	0	R1395M
1458.298	0.001	1530655	WORD_OFF	n/a	n/a	BRUSH	12	11	[0, 0, 0]	n/a	FR1	0	R1395M
1458.299	0.0	1530655	ENCODING_END	n/a	n/a	n/a	-999	11	[0, 0, 0]	n/a	FR1	0	R1395M
1458.299	5.334	1530655	DISTRACT_START	n/a	n/a	n/a	-999	11	[0, 0, 0]	n/a	FR1	0	R1395M
1463.633	5.0	1535984	PROB	5.0	n/a	n/a	-999	11	[2, 8, 6]	16	FR1	0	R1395M
1468.633	3.099	1540983	PROB	3.099	n/a	n/a	-999	11	[5, 3, 8]	16	FR1	0	R1395M
1471.732	3.349	1544082	PROB	3.349	n/a	n/a	-999	11	[3, 8, 2]	13	FR1	0	R1395M
1475.081	3.151	1547431	PROB	3.151	n/a	n/a	-999	11	[5, 6, 1]	12	FR1	0	R1395M
1478.232	5.867	1550582	PROB	5.867	n/a	n/a	-999	11	[6, 7, 5]	18	FR1	0	R1395M
1484.099	0.0	1556449	STOP	n/a	n/a	n/a	-999	11	[-999, -999, -999]	n/a	FR1	0	R1395M
1484.099	1.016	1556456	DISTRACT_END	n/a	n/a	n/a	-999	11	[0, 0, 0]	n/a	FR1	0	R1395M
1485.115	3.274	1557467	REC_START	n/a	n/a	n/a	-999	11	[0, 0, 0]	n/a	FR1	0	R1395M
1488.389	0.951	1560738	REC_WORD	0.951	n/a	BAY	1	11	[0, 0, 0]	n/a	FR1	0	R1395M
1489.34	4.694	1561689	REC_WORD	4.694	n/a	SKIN	2	11	[0, 0, 0]	n/a	FR1	0	R1395M
1494.034	11.753	1566383	REC_WORD	11.753	n/a	BATH	-999	11	[0, 0, 0]	n/a	FR1	0	R1395M
1505.787	2.071	1578135	REC_WORD_VV	2.071	n/a	<>	-999	11	[0, 0, 0]	n/a	FR1	0	R1395M
1507.858	0.515	1580206	REC_WORD	0.515	n/a	BEACH	-999	11	[0, 0, 0]	n/a	FR1	0	R1395M
1508.373	0.215	1580721	REC_WORD_VV	0.215	n/a	<>	-999	11	[0, 0, 0]	n/a	FR1	0	R1395M
1508.588	6.812	1580936	REC_WORD	6.812	n/a	BEAK	-999	11	[0, 0, 0]	n/a	FR1	0	R1395M
1515.4	6.566	1587751	REC_END	n/a	n/a	n/a	-999	11	[0, 0, 0]	n/a	FR1	0	R1395M
1521.966	10.35	1594320	COUNTDOWN_START	n/a	n/a	n/a	-999	12	[0, 0, 0]	n/a	FR1	0	R1395M
1532.316	0.0	1604671	COUNTDOWN_END	n/a	n/a	n/a	-999	12	[0, 0, 0]	n/a	FR1	0	R1395M
1532.316	2.182	1604671	ENCODING_START	n/a	n/a	n/a	-999	12	[0, 0, 0]	n/a	FR1	0	R1395M
1534.498	1.6	1606851	WORD	n/a	n/a	SEED	1	12	[0, 0, 0]	n/a	FR1	0	R1395M
1536.098	0.917	1608452	WORD_OFF	n/a	n/a	SEED	1	12	[0, 0, 0]	n/a	FR1	0	R1395M
1537.015	1.617	1609369	WORD	n/a	n/a	DEER	2	12	[0, 0, 0]	n/a	FR1	0	R1395M
1538.632	0.783	1610988	WORD_OFF	n/a	n/a	DEER	2	12	[0, 0, 0]	n/a	FR1	0	R1395M
1539.415	1.6	1611765	WORD	n/a	n/a	CAGE	3	12	[0, 0, 0]	n/a	FR1	0	R1395M
1541.015	0.849	1613365	WORD_OFF	n/a	n/a	CAGE	3	12	[0, 0, 0]	n/a	FR1	0	R1395M
1541.864	1.601	1614216	WORD	n/a	n/a	HOLE	4	12	[0, 0, 0]	n/a	FR1	0	R1395M
1543.465	0.917	1615817	WORD_OFF	n/a	n/a	HOLE	4	12	[0, 0, 0]	n/a	FR1	0	R1395M
1544.382	1.6	1616734	WORD	n/a	n/a	WOLF	5	12	[0, 0, 0]	n/a	FR1	0	R1395M
1545.982	0.966	1618334	WORD_OFF	n/a	n/a	WOLF	5	12	[0, 0, 0]	n/a	FR1	0	R1395M
1546.948	1.6	1619298	WORD	n/a	n/a	AISLE	6	12	[0, 0, 0]	n/a	FR1	0	R1395M
1548.548	0.8	1620898	WORD_OFF	n/a	n/a	AISLE	6	12	[0, 0, 0]	n/a	FR1	0	R1395M
1549.348	1.601	1621703	WORD	n/a	n/a	HEEL	7	12	[0, 0, 0]	n/a	FR1	0	R1395M
1550.949	0.866	1623304	WORD_OFF	n/a	n/a	HEEL	7	12	[0, 0, 0]	n/a	FR1	0	R1395M
1551.815	1.617	1624165	WORD	n/a	n/a	SPRING	8	12	[0, 0, 0]	n/a	FR1	0	R1395M
1553.432	0.816	1625784	WORD_OFF	n/a	n/a	SPRING	8	12	[0, 0, 0]	n/a	FR1	0	R1395M
1554.248	1.6	1626598	WORD	n/a	n/a	HAIR	9	12	[0, 0, 0]	n/a	FR1	0	R1395M
1555.848	0.801	1628198	WORD_OFF	n/a	n/a	HAIR	9	12	[0, 0, 0]	n/a	FR1	0	R1395M
1556.649	1.616	1629003	WORD	n/a	n/a	BEAK	10	12	[0, 0, 0]	n/a	FR1	0	R1395M
1558.265	0.967	1630613	WORD_OFF	n/a	n/a	BEAK	10	12	[0, 0, 0]	n/a	FR1	0	R1395M
1559.232	1.617	1631586	WORD	n/a	n/a	PIN	11	12	[0, 0, 0]	n/a	FR1	0	R1395M
1560.849	1.0	1633195	WORD_OFF	n/a	n/a	PIN	11	12	[0, 0, 0]	n/a	FR1	0	R1395M
1561.849	1.617	1634197	WORD	n/a	n/a	TOOTH	12	12	[0, 0, 0]	n/a	FR1	0	R1395M
1563.466	0.0	1635811	START	n/a	n/a	n/a	-999	12	[-999, -999, -999]	n/a	FR1	0	R1395M
1563.466	0.0	1635811	PROB	0.0	n/a	n/a	-999	12	[3, 1, 2]	6	FR1	0	R1395M
1563.465	0.001	1635816	WORD_OFF	n/a	n/a	TOOTH	12	12	[0, 0, 0]	n/a	FR1	0	R1395M
1563.466	0.0	1635816	ENCODING_END	n/a	n/a	n/a	-999	12	[0, 0, 0]	n/a	FR1	0	R1395M
1563.466	5.017	1635816	DISTRACT_START	n/a	n/a	n/a	-999	12	[0, 0, 0]	n/a	FR1	0	R1395M
1568.483	2.849	1640828	PROB	2.849	n/a	n/a	-999	12	[4, 3, 2]	9	FR1	0	R1395M
1571.332	3.001	1643677	PROB	3.001	n/a	n/a	-999	12	[7, 2, 5]	14	FR1	0	R1395M
1574.333	3.049	1646678	PROB	3.049	n/a	n/a	-999	12	[7, 2, 3]	12	FR1	0	R1395M
1577.382	6.084	1649727	PROB	6.084	n/a	n/a	-999	12	[5, 2, 8]	15	FR1	0	R1395M
1583.466	3.849	1655810	PROB	3.849	n/a	n/a	-999	12	[6, 7, 2]	15	FR1	0	R1395M
1587.315	0.0	1659659	STOP	n/a	n/a	n/a	-999	12	[-999, -999, -999]	n/a	FR1	0	R1395M
1587.315	1.217	1659661	DISTRACT_END	n/a	n/a	n/a	-999	12	[0, 0, 0]	n/a	FR1	0	R1395M
1588.532	3.29	1660878	REC_START	n/a	n/a	n/a	-999	12	[0, 0, 0]	n/a	FR1	0	R1395M
1591.822	1.597	1664166	REC_WORD	1.597	n/a	WOLF	5	12	[0, 0, 0]	n/a	FR1	0	R1395M
1593.419	2.637	1665763	REC_WORD	2.637	n/a	AISLE	6	12	[0, 0, 0]	n/a	FR1	0	R1395M
1596.056	9.722	1668400	REC_WORD	9.722	n/a	BEAK	10	12	[0, 0, 0]	n/a	FR1	0	R1395M
1605.778	1.002	1678121	REC_WORD_VV	1.002	n/a	<>	-999	12	[0, 0, 0]	n/a	FR1	0	R1395M
1606.78	12.046	1679123	REC_WORD_VV	12.046	n/a	<>	-999	12	[0, 0, 0]	n/a	FR1	0	R1395M
1618.826	0.0	1691171	REC_END	n/a	n/a	n/a	-999	12	[0, 0, 0]	n/a	FR1	0	R1395M
