onset	duration	sample	trial_type	response_time	stim_file	item_name	serialpos	list	test	answer	experiment	session	subject
0.0	57.071	-1	SESS_START	n/a	n/a	n/a	-999	-999	[0, 0, 0]	n/a	FR1	2	R1094T
57.071	10.428	17220	COUNTDOWN_START	n/a	n/a	n/a	-999	-999	[0, 0, 0]	n/a	FR1	2	R1094T
67.499	3.725	27647	COUNTDOWN_END	n/a	n/a	n/a	-999	-999	[0, 0, 0]	n/a	FR1	2	R1094T
71.224	2.55	31372	PRACTICE_WORD	n/a	n/a	PECHO	1	-1	[0, 0, 0]	n/a	FR1	2	R1094T
73.774	2.601	33922	PRACTICE_WORD	n/a	n/a	RELOJ	2	-1	[0, 0, 0]	n/a	FR1	2	R1094T
76.375	2.433	36523	PRACTICE_WORD	n/a	n/a	HIERRO	3	-1	[0, 0, 0]	n/a	FR1	2	R1094T
78.808	2.601	38956	PRACTICE_WORD	n/a	n/a	ATICO	4	-1	[0, 0, 0]	n/a	FR1	2	R1094T
81.409	2.45	41557	PRACTICE_WORD	n/a	n/a	HAZ	5	-1	[0, 0, 0]	n/a	FR1	2	R1094T
83.859	2.401	44006	PRACTICE_WORD	n/a	n/a	INUNDACION	6	-1	[0, 0, 0]	n/a	FR1	2	R1094T
86.26	2.534	46407	PRACTICE_WORD	n/a	n/a	RINOCERONTE	7	-1	[0, 0, 0]	n/a	FR1	2	R1094T
88.794	2.483	48941	PRACTICE_WORD	n/a	n/a	ALGODON	8	-1	[0, 0, 0]	n/a	FR1	2	R1094T
91.277	2.584	51424	PRACTICE_WORD	n/a	n/a	ANILLO	9	-1	[0, 0, 0]	n/a	FR1	2	R1094T
93.861	2.401	54008	PRACTICE_WORD	n/a	n/a	LENGUA	10	-1	[0, 0, 0]	n/a	FR1	2	R1094T
96.262	2.517	56409	PRACTICE_WORD	n/a	n/a	CAMELLO	11	-1	[0, 0, 0]	n/a	FR1	2	R1094T
98.779	1.617	58926	PRACTICE_WORD	n/a	n/a	VAGON	12	-1	[0, 0, 0]	n/a	FR1	2	R1094T
100.396	0.001	60543	PRACTICE_DISTRACT_START	n/a	n/a	n/a	-999	-1	[0, 0, 0]	n/a	FR1	2	R1094T
100.397	0.015	60544	START	n/a	n/a	n/a	-999	-1	[-999, -999, -999]	n/a	FR1	2	R1094T
100.412	5.668	60559	PROB	5.668	n/a	n/a	-999	-1	[4, 4, 5]	13	FR1	2	R1094T
106.08	6.751	66226	PROB	6.751	n/a	n/a	-999	-1	[8, 3, 4]	15	FR1	2	R1094T
112.831	7.135	72977	PROB	7.135	n/a	n/a	-999	-1	[7, 9, 3]	19	FR1	2	R1094T
119.966	6.159	80112	PROB	6.159	n/a	n/a	-999	-1	[8, 8, 3]	19	FR1	2	R1094T
126.125	0.009	86270	STOP	n/a	n/a	n/a	-999	-1	[-999, -999, -999]	n/a	FR1	2	R1094T
126.134	0.702	86279	PRACTICE_DISTRACT_END	n/a	n/a	n/a	-999	-1	[0, 0, 0]	n/a	FR1	2	R1094T
126.836	30.515	86981	PRACTICE_REC_START	n/a	n/a	n/a	-999	-1	[0, 0, 0]	n/a	FR1	2	R1094T
157.351	12.141	117495	PRACTICE_REC_END	n/a	n/a	n/a	-999	-1	[0, 0, 0]	n/a	FR1	2	R1094T
169.492	0.0	129635	TRIAL	n/a	n/a	n/a	-999	1	[0, 0, 0]	n/a	FR1	2	R1094T
169.492	10.428	129635	COUNTDOWN_START	n/a	n/a	n/a	-999	1	[0, 0, 0]	n/a	FR1	2	R1094T
179.92	0.007	140063	COUNTDOWN_END	n/a	n/a	n/a	-999	1	[0, 0, 0]	n/a	FR1	2	R1094T
179.927	2.617	140070	ORIENT	n/a	n/a	n/a	-999	1	[0, 0, 0]	n/a	FR1	2	R1094T
182.544	2.534	142687	WORD	n/a	wordpools/wordpool_SP.txt	LUNAR	1	1	[0, 0, 0]	n/a	FR1	2	R1094T
185.078	2.45	145220	WORD	n/a	wordpools/wordpool_SP.txt	CARACOL	2	1	[0, 0, 0]	n/a	FR1	2	R1094T
187.528	2.417	147670	WORD	n/a	wordpools/wordpool_SP.txt	CUEVA	3	1	[0, 0, 0]	n/a	FR1	2	R1094T
189.945	2.467	150087	WORD	n/a	wordpools/wordpool_SP.txt	OSO	4	1	[0, 0, 0]	n/a	FR1	2	R1094T
192.412	2.451	152554	WORD	n/a	wordpools/wordpool_SP.txt	JEEP	5	1	[0, 0, 0]	n/a	FR1	2	R1094T
194.863	2.534	155005	WORD	n/a	wordpools/wordpool_SP.txt	SELLO	6	1	[0, 0, 0]	n/a	FR1	2	R1094T
197.397	2.633	157539	WORD	n/a	wordpools/wordpool_SP.txt	MALEZA	7	1	[0, 0, 0]	n/a	FR1	2	R1094T
200.03	2.384	160172	WORD	n/a	wordpools/wordpool_SP.txt	CANDADO	8	1	[0, 0, 0]	n/a	FR1	2	R1094T
202.414	2.567	162556	WORD	n/a	wordpools/wordpool_SP.txt	RUEDA	9	1	[0, 0, 0]	n/a	FR1	2	R1094T
204.981	2.568	165122	WORD	n/a	wordpools/wordpool_SP.txt	PULGA	10	1	[0, 0, 0]	n/a	FR1	2	R1094T
207.549	2.467	167690	WORD	n/a	wordpools/wordpool_SP.txt	VERJA	11	1	[0, 0, 0]	n/a	FR1	2	R1094T
210.016	1.615	170157	WORD	n/a	wordpools/wordpool_SP.txt	LLAVE	12	1	[0, 0, 0]	n/a	FR1	2	R1094T
211.631	0.001	171772	DISTRACT_START	n/a	n/a	n/a	-999	1	[0, 0, 0]	n/a	FR1	2	R1094T
211.632	0.017	171773	START	n/a	n/a	n/a	-999	1	[-999, -999, -999]	n/a	FR1	2	R1094T
211.649	7.018	171790	PROB	7.018	n/a	n/a	-999	1	[6, 1, 7]	14	FR1	2	R1094T
218.667	7.485	178808	PROB	7.485	n/a	n/a	-999	1	[6, 7, 1]	15	FR1	2	R1094T
226.152	6.989	186292	PROB	6.989	n/a	n/a	-999	1	[1, 2, 4]	8	FR1	2	R1094T
233.141	0.012	193281	STOP	n/a	n/a	n/a	-999	1	[-999, -999, -999]	n/a	FR1	2	R1094T
233.153	1.154	193293	DISTRACT_END	n/a	n/a	n/a	-999	1	[0, 0, 0]	n/a	FR1	2	R1094T
234.307	7.287	194447	REC_START	n/a	n/a	n/a	-999	1	[0, 0, 0]	n/a	FR1	2	R1094T
241.594	22.72	201734	REC_WORD	22.72	n/a	VERJA	-999	1	[0, 0, 0]	n/a	FR1	2	R1094T
264.314	2.212	224452	REC_END	n/a	n/a	n/a	-999	1	[0, 0, 0]	n/a	FR1	2	R1094T
266.526	0.0	226664	TRIAL	n/a	n/a	n/a	-999	2	[0, 0, 0]	n/a	FR1	2	R1094T
266.526	10.428	226664	COUNTDOWN_START	n/a	n/a	n/a	-999	2	[0, 0, 0]	n/a	FR1	2	R1094T
276.954	0.007	237092	COUNTDOWN_END	n/a	n/a	n/a	-999	2	[0, 0, 0]	n/a	FR1	2	R1094T
276.961	2.567	237099	ORIENT	n/a	n/a	n/a	-999	2	[0, 0, 0]	n/a	FR1	2	R1094T
279.528	2.434	239666	WORD	n/a	wordpools/wordpool_SP.txt	CATRE	1	2	[0, 0, 0]	n/a	FR1	2	R1094T
281.962	2.601	242100	WORD	n/a	wordpools/wordpool_SP.txt	CUERNO	2	2	[0, 0, 0]	n/a	FR1	2	R1094T
284.563	2.6	244700	WORD	n/a	wordpools/wordpool_SP.txt	JUEZ	3	2	[0, 0, 0]	n/a	FR1	2	R1094T
287.163	2.384	247300	WORD	n/a	wordpools/wordpool_SP.txt	ROBLE	4	2	[0, 0, 0]	n/a	FR1	2	R1094T
289.547	2.617	249684	WORD	n/a	wordpools/wordpool_SP.txt	LODO	5	2	[0, 0, 0]	n/a	FR1	2	R1094T
292.164	2.484	252301	WORD	n/a	wordpools/wordpool_SP.txt	SORBETE	6	2	[0, 0, 0]	n/a	FR1	2	R1094T
294.648	2.5	254785	WORD	n/a	wordpools/wordpool_SP.txt	MONO	7	2	[0, 0, 0]	n/a	FR1	2	R1094T
297.148	2.483	257285	WORD	n/a	wordpools/wordpool_SP.txt	BRAZO	8	2	[0, 0, 0]	n/a	FR1	2	R1094T
299.631	2.601	259768	WORD	n/a	wordpools/wordpool_SP.txt	BOCA	9	2	[0, 0, 0]	n/a	FR1	2	R1094T
302.232	2.434	262369	WORD	n/a	wordpools/wordpool_SP.txt	CARCEL	10	2	[0, 0, 0]	n/a	FR1	2	R1094T
304.666	2.617	264802	WORD	n/a	wordpools/wordpool_SP.txt	SERPIENTE	11	2	[0, 0, 0]	n/a	FR1	2	R1094T
307.283	1.617	267419	WORD	n/a	wordpools/wordpool_SP.txt	BANO	12	2	[0, 0, 0]	n/a	FR1	2	R1094T
308.9	0.001	269036	DISTRACT_START	n/a	n/a	n/a	-999	2	[0, 0, 0]	n/a	FR1	2	R1094T
308.901	0.016	269037	START	n/a	n/a	n/a	-999	2	[-999, -999, -999]	n/a	FR1	2	R1094T
308.917	5.984	269053	PROB	5.984	n/a	n/a	-999	2	[9, 1, 7]	17	FR1	2	R1094T
314.901	4.118	275037	PROB	4.118	n/a	n/a	-999	2	[2, 1, 9]	12	FR1	2	R1094T
319.019	6.251	279155	PROB	6.251	n/a	n/a	-999	2	[6, 6, 7]	19	FR1	2	R1094T
325.27	6.687	285405	PROB	6.687	n/a	n/a	-999	2	[1, 5, 9]	15	FR1	2	R1094T
331.957	0.014	292092	STOP	n/a	n/a	n/a	-999	2	[-999, -999, -999]	n/a	FR1	2	R1094T
331.971	1.084	292106	DISTRACT_END	n/a	n/a	n/a	-999	2	[0, 0, 0]	n/a	FR1	2	R1094T
333.055	2.168	293190	REC_START	n/a	n/a	n/a	-999	2	[0, 0, 0]	n/a	FR1	2	R1094T
335.223	27.846	295358	REC_WORD	27.846	n/a	SERPIENTE	-999	2	[0, 0, 0]	n/a	FR1	2	R1094T
363.069	2.275	323203	REC_END	n/a	n/a	n/a	-999	2	[0, 0, 0]	n/a	FR1	2	R1094T
365.344	0.0	325477	COUNTDOWN_START	n/a	n/a	n/a	-999	3	[0, 0, 0]	n/a	FR1	2	R1094T
365.344	10.428	325477	TRIAL	n/a	n/a	n/a	-999	3	[0, 0, 0]	n/a	FR1	2	R1094T
375.772	0.007	335905	COUNTDOWN_END	n/a	n/a	n/a	-999	3	[0, 0, 0]	n/a	FR1	2	R1094T
375.779	2.551	335912	ORIENT	n/a	n/a	n/a	-999	3	[0, 0, 0]	n/a	FR1	2	R1094T
378.33	2.55	338463	WORD	n/a	wordpools/wordpool_SP.txt	FREGADERO	1	3	[0, 0, 0]	n/a	FR1	2	R1094T
380.88	2.467	341013	WORD	n/a	wordpools/wordpool_SP.txt	LLUVIA	2	3	[0, 0, 0]	n/a	FR1	2	R1094T
383.347	2.434	343480	WORD	n/a	wordpools/wordpool_SP.txt	BOLSO	3	3	[0, 0, 0]	n/a	FR1	2	R1094T
385.781	2.417	345913	WORD	n/a	wordpools/wordpool_SP.txt	BOLSA	4	3	[0, 0, 0]	n/a	FR1	2	R1094T
388.198	2.384	348330	WORD	n/a	wordpools/wordpool_SP.txt	NARIZ	5	3	[0, 0, 0]	n/a	FR1	2	R1094T
390.582	2.534	350714	WORD	n/a	wordpools/wordpool_SP.txt	CERCA	6	3	[0, 0, 0]	n/a	FR1	2	R1094T
393.116	2.55	353248	WORD	n/a	wordpools/wordpool_SP.txt	PIPA	7	3	[0, 0, 0]	n/a	FR1	2	R1094T
395.666	2.584	355798	WORD	n/a	wordpools/wordpool_SP.txt	MANO	8	3	[0, 0, 0]	n/a	FR1	2	R1094T
398.25	2.483	358382	WORD	n/a	wordpools/wordpool_SP.txt	TRAJE	9	3	[0, 0, 0]	n/a	FR1	2	R1094T
400.733	2.468	360865	WORD	n/a	wordpools/wordpool_SP.txt	NINO	10	3	[0, 0, 0]	n/a	FR1	2	R1094T
403.201	2.517	363333	WORD	n/a	wordpools/wordpool_SP.txt	FLAUTA	11	3	[0, 0, 0]	n/a	FR1	2	R1094T
405.718	1.617	365849	WORD	n/a	wordpools/wordpool_SP.txt	CAMISA	12	3	[0, 0, 0]	n/a	FR1	2	R1094T
407.335	0.001	367466	DISTRACT_START	n/a	n/a	n/a	-999	3	[0, 0, 0]	n/a	FR1	2	R1094T
407.336	0.016	367467	START	n/a	n/a	n/a	-999	3	[-999, -999, -999]	n/a	FR1	2	R1094T
407.352	5.3	367483	PROB	5.3	n/a	n/a	-999	3	[2, 2, 6]	10	FR1	2	R1094T
412.652	5.752	372783	PROB	5.752	n/a	n/a	-999	3	[1, 9, 6]	16	FR1	2	R1094T
418.404	4.434	378535	PROB	4.434	n/a	n/a	-999	3	[1, 4, 6]	11	FR1	2	R1094T
422.838	5.311	382969	PROB	5.311	n/a	n/a	-999	3	[2, 3, 8]	13	FR1	2	R1094T
428.149	0.006	388279	STOP	n/a	n/a	n/a	-999	3	[-999, -999, -999]	n/a	FR1	2	R1094T
428.155	1.201	388285	DISTRACT_END	n/a	n/a	n/a	-999	3	[0, 0, 0]	n/a	FR1	2	R1094T
429.356	1.492	389486	REC_START	n/a	n/a	n/a	-999	3	[0, 0, 0]	n/a	FR1	2	R1094T
430.848	1.2	390978	REC_WORD	1.2	n/a	BOLSA	-999	3	[0, 0, 0]	n/a	FR1	2	R1094T
432.048	6.455	392178	REC_WORD	6.455	n/a	BOLSO	-999	3	[0, 0, 0]	n/a	FR1	2	R1094T
438.503	20.867	398633	REC_WORD	20.867	n/a	FREGADERO	-999	3	[0, 0, 0]	n/a	FR1	2	R1094T
459.37	2.025	419499	REC_END	n/a	n/a	n/a	-999	3	[0, 0, 0]	n/a	FR1	2	R1094T
461.395	0.0	421524	TRIAL	n/a	n/a	n/a	-999	4	[0, 0, 0]	n/a	FR1	2	R1094T
461.395	10.428	421524	COUNTDOWN_START	n/a	n/a	n/a	-999	4	[0, 0, 0]	n/a	FR1	2	R1094T
471.823	0.007	431951	COUNTDOWN_END	n/a	n/a	n/a	-999	4	[0, 0, 0]	n/a	FR1	2	R1094T
471.83	2.6	431958	ORIENT	n/a	n/a	n/a	-999	4	[0, 0, 0]	n/a	FR1	2	R1094T
474.43	2.568	434558	WORD	n/a	wordpools/wordpool_SP.txt	MURCIELAGO	1	4	[0, 0, 0]	n/a	FR1	2	R1094T
476.998	2.567	437126	WORD	n/a	wordpools/wordpool_SP.txt	POLILLA	2	4	[0, 0, 0]	n/a	FR1	2	R1094T
479.565	2.483	439693	WORD	n/a	wordpools/wordpool_SP.txt	TALLO	3	4	[0, 0, 0]	n/a	FR1	2	R1094T
482.048	2.534	442176	WORD	n/a	wordpools/wordpool_SP.txt	TIENDA	4	4	[0, 0, 0]	n/a	FR1	2	R1094T
484.582	2.601	444710	WORD	n/a	wordpools/wordpool_SP.txt	CAPA	5	4	[0, 0, 0]	n/a	FR1	2	R1094T
487.183	2.617	447310	WORD	n/a	wordpools/wordpool_SP.txt	NIEBLA	6	4	[0, 0, 0]	n/a	FR1	2	R1094T
489.8	2.434	449927	WORD	n/a	wordpools/wordpool_SP.txt	PLANTA	7	4	[0, 0, 0]	n/a	FR1	2	R1094T
492.234	2.399	452361	WORD	n/a	wordpools/wordpool_SP.txt	PEZUNA	8	4	[0, 0, 0]	n/a	FR1	2	R1094T
494.633	2.568	454760	WORD	n/a	wordpools/wordpool_SP.txt	LUNA	9	4	[0, 0, 0]	n/a	FR1	2	R1094T
497.201	2.501	457328	WORD	n/a	wordpools/wordpool_SP.txt	AVE	10	4	[0, 0, 0]	n/a	FR1	2	R1094T
499.702	2.533	459829	WORD	n/a	wordpools/wordpool_SP.txt	ALA	11	4	[0, 0, 0]	n/a	FR1	2	R1094T
502.235	1.617	462362	WORD	n/a	wordpools/wordpool_SP.txt	HORMIGA	12	4	[0, 0, 0]	n/a	FR1	2	R1094T
503.852	0.001	463979	DISTRACT_START	n/a	n/a	n/a	-999	4	[0, 0, 0]	n/a	FR1	2	R1094T
503.853	0.016	463980	START	n/a	n/a	n/a	-999	4	[-999, -999, -999]	n/a	FR1	2	R1094T
503.869	6.051	463996	PROB	6.051	n/a	n/a	-999	4	[4, 9, 2]	15	FR1	2	R1094T
509.92	4.801	470046	PROB	4.801	n/a	n/a	-999	4	[4, 7, 1]	12	FR1	2	R1094T
514.721	5.917	474847	PROB	5.917	n/a	n/a	-999	4	[5, 8, 4]	17	FR1	2	R1094T
520.638	7.255	480764	PROB	7.255	n/a	n/a	-999	4	[6, 9, 6]	21	FR1	2	R1094T
527.893	0.014	488018	STOP	n/a	n/a	n/a	-999	4	[-999, -999, -999]	n/a	FR1	2	R1094T
527.907	1.134	488032	DISTRACT_END	n/a	n/a	n/a	-999	4	[0, 0, 0]	n/a	FR1	2	R1094T
529.041	3.401	489166	REC_START	n/a	n/a	n/a	-999	4	[0, 0, 0]	n/a	FR1	2	R1094T
532.442	2.154	492567	REC_WORD	2.154	n/a	AVE	-999	4	[0, 0, 0]	n/a	FR1	2	R1094T
534.596	24.455	494721	REC_WORD	24.455	n/a	MURCIELAGO	-999	4	[0, 0, 0]	n/a	FR1	2	R1094T
559.051	2.162	519175	REC_END	n/a	n/a	n/a	-999	4	[0, 0, 0]	n/a	FR1	2	R1094T
561.213	0.0	521337	COUNTDOWN_START	n/a	n/a	n/a	-999	5	[0, 0, 0]	n/a	FR1	2	R1094T
561.213	10.428	521337	TRIAL	n/a	n/a	n/a	-999	5	[0, 0, 0]	n/a	FR1	2	R1094T
571.641	0.007	531764	COUNTDOWN_END	n/a	n/a	n/a	-999	5	[0, 0, 0]	n/a	FR1	2	R1094T
571.648	2.384	531771	ORIENT	n/a	n/a	n/a	-999	5	[0, 0, 0]	n/a	FR1	2	R1094T
574.032	2.599	534155	WORD	n/a	wordpools/wordpool_SP.txt	CONO	1	5	[0, 0, 0]	n/a	FR1	2	R1094T
576.631	2.568	536754	WORD	n/a	wordpools/wordpool_SP.txt	BANDEJA	2	5	[0, 0, 0]	n/a	FR1	2	R1094T
579.199	2.417	539322	WORD	n/a	wordpools/wordpool_SP.txt	PANTANO	3	5	[0, 0, 0]	n/a	FR1	2	R1094T
581.616	2.634	541739	WORD	n/a	wordpools/wordpool_SP.txt	TERRENO	4	5	[0, 0, 0]	n/a	FR1	2	R1094T
584.25	2.601	544373	WORD	n/a	wordpools/wordpool_SP.txt	HOJA	5	5	[0, 0, 0]	n/a	FR1	2	R1094T
586.851	2.417	546974	WORD	n/a	wordpools/wordpool_SP.txt	TENEDOR	6	5	[0, 0, 0]	n/a	FR1	2	R1094T
589.268	2.551	549390	WORD	n/a	wordpools/wordpool_SP.txt	VESTIDO	7	5	[0, 0, 0]	n/a	FR1	2	R1094T
591.819	2.45	551941	WORD	n/a	wordpools/wordpool_SP.txt	ARCA	8	5	[0, 0, 0]	n/a	FR1	2	R1094T
594.269	2.417	554391	WORD	n/a	wordpools/wordpool_SP.txt	RAIZ	9	5	[0, 0, 0]	n/a	FR1	2	R1094T
596.686	2.534	556808	WORD	n/a	wordpools/wordpool_SP.txt	SEMILLA	10	5	[0, 0, 0]	n/a	FR1	2	R1094T
599.22	2.484	559342	WORD	n/a	wordpools/wordpool_SP.txt	CESPED	11	5	[0, 0, 0]	n/a	FR1	2	R1094T
601.704	1.617	561826	WORD	n/a	wordpools/wordpool_SP.txt	TOSTADA	12	5	[0, 0, 0]	n/a	FR1	2	R1094T
603.321	0.0	563443	DISTRACT_START	n/a	n/a	n/a	-999	5	[0, 0, 0]	n/a	FR1	2	R1094T
603.321	0.016	563443	START	n/a	n/a	n/a	-999	5	[-999, -999, -999]	n/a	FR1	2	R1094T
603.337	4.518	563459	PROB	4.518	n/a	n/a	-999	5	[4, 4, 2]	10	FR1	2	R1094T
607.855	5.151	567977	PROB	5.151	n/a	n/a	-999	5	[4, 2, 4]	10	FR1	2	R1094T
613.006	5.167	573127	PROB	5.167	n/a	n/a	-999	5	[8, 1, 6]	15	FR1	2	R1094T
618.173	4.45	578294	PROB	4.45	n/a	n/a	-999	5	[3, 1, 5]	9	FR1	2	R1094T
622.623	4.565	582744	PROB	4.565	n/a	n/a	-999	5	[2, 5, 3]	10	FR1	2	R1094T
627.188	0.003	587309	STOP	n/a	n/a	n/a	-999	5	[-999, -999, -999]	n/a	FR1	2	R1094T
627.191	1.218	587312	DISTRACT_END	n/a	n/a	n/a	-999	5	[0, 0, 0]	n/a	FR1	2	R1094T
628.409	0.894	588530	REC_START	n/a	n/a	n/a	-999	5	[0, 0, 0]	n/a	FR1	2	R1094T
629.303	6.064	589423	REC_WORD	6.064	n/a	HOJA	-999	5	[0, 0, 0]	n/a	FR1	2	R1094T
635.367	11.955	595487	REC_WORD	11.955	n/a	TERRENO	-999	5	[0, 0, 0]	n/a	FR1	2	R1094T
647.322	11.095	607442	REC_WORD	11.095	n/a	POLILLA	-999	5	[0, 0, 0]	n/a	FR1	2	R1094T
658.417	1.847	618536	REC_END	n/a	n/a	n/a	-999	5	[0, 0, 0]	n/a	FR1	2	R1094T
660.264	0.0	620383	TRIAL	n/a	n/a	n/a	-999	6	[0, 0, 0]	n/a	FR1	2	R1094T
660.264	10.428	620383	COUNTDOWN_START	n/a	n/a	n/a	-999	6	[0, 0, 0]	n/a	FR1	2	R1094T
670.692	0.008	630810	COUNTDOWN_END	n/a	n/a	n/a	-999	6	[0, 0, 0]	n/a	FR1	2	R1094T
670.7	2.417	630818	ORIENT	n/a	n/a	n/a	-999	6	[0, 0, 0]	n/a	FR1	2	R1094T
673.117	2.6	633235	WORD	n/a	wordpools/wordpool_SP.txt	PERA	1	6	[0, 0, 0]	n/a	FR1	2	R1094T
675.717	2.484	635835	WORD	n/a	wordpools/wordpool_SP.txt	ESTANQUE	2	6	[0, 0, 0]	n/a	FR1	2	R1094T
678.201	2.567	638319	WORD	n/a	wordpools/wordpool_SP.txt	VASO	3	6	[0, 0, 0]	n/a	FR1	2	R1094T
680.768	2.517	640886	WORD	n/a	wordpools/wordpool_SP.txt	JABON	4	6	[0, 0, 0]	n/a	FR1	2	R1094T
683.285	2.617	643403	WORD	n/a	wordpools/wordpool_SP.txt	CUCHARA	5	6	[0, 0, 0]	n/a	FR1	2	R1094T
685.902	2.517	646020	WORD	n/a	wordpools/wordpool_SP.txt	ESPONJA	6	6	[0, 0, 0]	n/a	FR1	2	R1094T
688.419	2.618	648537	WORD	n/a	wordpools/wordpool_SP.txt	UVA	7	6	[0, 0, 0]	n/a	FR1	2	R1094T
691.037	2.599	651154	WORD	n/a	wordpools/wordpool_SP.txt	CAMARON	8	6	[0, 0, 0]	n/a	FR1	2	R1094T
693.636	2.385	653753	WORD	n/a	wordpools/wordpool_SP.txt	GUSANO	9	6	[0, 0, 0]	n/a	FR1	2	R1094T
696.021	2.534	656138	WORD	n/a	wordpools/wordpool_SP.txt	TARRO	10	6	[0, 0, 0]	n/a	FR1	2	R1094T
698.555	2.5	658672	WORD	n/a	wordpools/wordpool_SP.txt	MUNDO	11	6	[0, 0, 0]	n/a	FR1	2	R1094T
701.055	1.617	661172	WORD	n/a	wordpools/wordpool_SP.txt	DURAZNO	12	6	[0, 0, 0]	n/a	FR1	2	R1094T
702.672	0.001	662789	DISTRACT_START	n/a	n/a	n/a	-999	6	[0, 0, 0]	n/a	FR1	2	R1094T
702.673	0.016	662790	START	n/a	n/a	n/a	-999	6	[-999, -999, -999]	n/a	FR1	2	R1094T
702.689	4.917	662806	PROB	4.917	n/a	n/a	-999	6	[4, 1, 3]	8	FR1	2	R1094T
707.606	5.335	667723	PROB	5.335	n/a	n/a	-999	6	[2, 8, 5]	15	FR1	2	R1094T
712.941	5.384	673057	PROB	5.384	n/a	n/a	-999	6	[6, 3, 7]	16	FR1	2	R1094T
718.325	3.984	678441	PROB	3.984	n/a	n/a	-999	6	[2, 9, 1]	12	FR1	2	R1094T
722.309	5.503	682425	PROB	5.503	n/a	n/a	-999	6	[1, 3, 6]	10	FR1	2	R1094T
727.812	0.015	687928	STOP	n/a	n/a	n/a	-999	6	[-999, -999, -999]	n/a	FR1	2	R1094T
727.827	1.167	687943	DISTRACT_END	n/a	n/a	n/a	-999	6	[0, 0, 0]	n/a	FR1	2	R1094T
728.994	30.0	689110	REC_START	n/a	n/a	n/a	-999	6	[0, 0, 0]	n/a	FR1	2	R1094T
758.994	0.01	719108	REC_WORD_VV	0.01	n/a	<>	-999	6	[0, 0, 0]	n/a	FR1	2	R1094T
759.004	2.229	719118	REC_END	n/a	n/a	n/a	-999	6	[0, 0, 0]	n/a	FR1	2	R1094T
761.233	0.0	721347	TRIAL	n/a	n/a	n/a	-999	7	[0, 0, 0]	n/a	FR1	2	R1094T
761.233	10.428	721347	COUNTDOWN_START	n/a	n/a	n/a	-999	7	[0, 0, 0]	n/a	FR1	2	R1094T
771.661	0.007	731774	COUNTDOWN_END	n/a	n/a	n/a	-999	7	[0, 0, 0]	n/a	FR1	2	R1094T
771.668	2.467	731781	ORIENT	n/a	n/a	n/a	-999	7	[0, 0, 0]	n/a	FR1	2	R1094T
774.135	2.584	734248	WORD	n/a	wordpools/wordpool_SP.txt	COLA	1	7	[0, 0, 0]	n/a	FR1	2	R1094T
776.719	2.384	736832	WORD	n/a	wordpools/wordpool_SP.txt	LOBO	2	7	[0, 0, 0]	n/a	FR1	2	R1094T
779.103	2.583	739216	WORD	n/a	wordpools/wordpool_SP.txt	NIDO	3	7	[0, 0, 0]	n/a	FR1	2	R1094T
781.686	2.467	741799	WORD	n/a	wordpools/wordpool_SP.txt	PAPALOTE	4	7	[0, 0, 0]	n/a	FR1	2	R1094T
784.153	2.501	744266	WORD	n/a	wordpools/wordpool_SP.txt	PATO	5	7	[0, 0, 0]	n/a	FR1	2	R1094T
786.654	2.484	746767	WORD	n/a	wordpools/wordpool_SP.txt	RATA	6	7	[0, 0, 0]	n/a	FR1	2	R1094T
789.138	2.483	749251	WORD	n/a	wordpools/wordpool_SP.txt	HOYO	7	7	[0, 0, 0]	n/a	FR1	2	R1094T
791.621	2.501	751733	WORD	n/a	wordpools/wordpool_SP.txt	CERDO	8	7	[0, 0, 0]	n/a	FR1	2	R1094T
794.122	2.584	754234	WORD	n/a	wordpools/wordpool_SP.txt	PRINCIPE	9	7	[0, 0, 0]	n/a	FR1	2	R1094T
796.706	2.534	756818	WORD	n/a	wordpools/wordpool_SP.txt	RASTRILLO	10	7	[0, 0, 0]	n/a	FR1	2	R1094T
799.24	2.5	759352	WORD	n/a	wordpools/wordpool_SP.txt	GRANERO	11	7	[0, 0, 0]	n/a	FR1	2	R1094T
801.74	1.617	761852	WORD	n/a	wordpools/wordpool_SP.txt	BOLIGRAFO	12	7	[0, 0, 0]	n/a	FR1	2	R1094T
803.357	0.001	763469	DISTRACT_START	n/a	n/a	n/a	-999	7	[0, 0, 0]	n/a	FR1	2	R1094T
803.358	0.016	763470	START	n/a	n/a	n/a	-999	7	[-999, -999, -999]	n/a	FR1	2	R1094T
803.374	5.834	763486	PROB	5.834	n/a	n/a	-999	7	[7, 8, 2]	17	FR1	2	R1094T
809.208	6.151	769320	PROB	6.151	n/a	n/a	-999	7	[5, 3, 6]	14	FR1	2	R1094T
815.359	6.135	775470	PROB	6.135	n/a	n/a	-999	7	[7, 9, 1]	17	FR1	2	R1094T
821.494	5.055	781605	PROB	5.055	n/a	n/a	-999	7	[2, 8, 8]	18	FR1	2	R1094T
826.549	0.012	786660	STOP	n/a	n/a	n/a	-999	7	[-999, -999, -999]	n/a	FR1	2	R1094T
826.561	1.067	786672	DISTRACT_END	n/a	n/a	n/a	-999	7	[0, 0, 0]	n/a	FR1	2	R1094T
827.628	1.227	787739	REC_START	n/a	n/a	n/a	-999	7	[0, 0, 0]	n/a	FR1	2	R1094T
828.855	1.017	788966	REC_WORD	1.017	n/a	HOYO	-999	7	[0, 0, 0]	n/a	FR1	2	R1094T
829.872	1.105	789983	REC_WORD	1.105	n/a	POLILLA	-999	7	[0, 0, 0]	n/a	FR1	2	R1094T
830.977	9.541	791088	REC_WORD	9.541	n/a	BOLIGRAFO	-999	7	[0, 0, 0]	n/a	FR1	2	R1094T
840.518	10.147	800628	REC_WORD	10.147	n/a	JABON	-999	7	[0, 0, 0]	n/a	FR1	2	R1094T
850.665	6.973	810775	REC_WORD	6.973	n/a	MALEZA	-999	7	[0, 0, 0]	n/a	FR1	2	R1094T
857.638	2.379	817747	REC_END	n/a	n/a	n/a	-999	7	[0, 0, 0]	n/a	FR1	2	R1094T
860.017	0.001	820126	COUNTDOWN_START	n/a	n/a	n/a	-999	8	[0, 0, 0]	n/a	FR1	2	R1094T
860.018	10.427	820127	TRIAL	n/a	n/a	n/a	-999	8	[0, 0, 0]	n/a	FR1	2	R1094T
870.445	0.008	830554	COUNTDOWN_END	n/a	n/a	n/a	-999	8	[0, 0, 0]	n/a	FR1	2	R1094T
870.453	2.533	830562	ORIENT	n/a	n/a	n/a	-999	8	[0, 0, 0]	n/a	FR1	2	R1094T
872.986	2.484	833094	WORD	n/a	wordpools/wordpool_SP.txt	LECHE	1	8	[0, 0, 0]	n/a	FR1	2	R1094T
875.47	2.601	835578	WORD	n/a	wordpools/wordpool_SP.txt	FICHA	2	8	[0, 0, 0]	n/a	FR1	2	R1094T
878.071	2.383	838179	WORD	n/a	wordpools/wordpool_SP.txt	COMIDA	3	8	[0, 0, 0]	n/a	FR1	2	R1094T
880.454	2.551	840562	WORD	n/a	wordpools/wordpool_SP.txt	REMO	4	8	[0, 0, 0]	n/a	FR1	2	R1094T
883.005	2.534	843113	WORD	n/a	wordpools/wordpool_SP.txt	CORAZON	5	8	[0, 0, 0]	n/a	FR1	2	R1094T
885.539	2.433	845647	WORD	n/a	wordpools/wordpool_SP.txt	CORONA	6	8	[0, 0, 0]	n/a	FR1	2	R1094T
887.972	2.501	848080	WORD	n/a	wordpools/wordpool_SP.txt	FILETE	7	8	[0, 0, 0]	n/a	FR1	2	R1094T
890.473	2.5	850581	WORD	n/a	wordpools/wordpool_SP.txt	TREN	8	8	[0, 0, 0]	n/a	FR1	2	R1094T
892.973	2.601	853080	WORD	n/a	wordpools/wordpool_SP.txt	CORDERO	9	8	[0, 0, 0]	n/a	FR1	2	R1094T
895.574	2.434	855681	WORD	n/a	wordpools/wordpool_SP.txt	HUMO	10	8	[0, 0, 0]	n/a	FR1	2	R1094T
898.008	2.533	858115	WORD	n/a	wordpools/wordpool_SP.txt	HUEVO	11	8	[0, 0, 0]	n/a	FR1	2	R1094T
900.541	1.617	860648	WORD	n/a	wordpools/wordpool_SP.txt	PLATO	12	8	[0, 0, 0]	n/a	FR1	2	R1094T
902.158	0.001	862265	DISTRACT_START	n/a	n/a	n/a	-999	8	[0, 0, 0]	n/a	FR1	2	R1094T
902.159	0.016	862266	START	n/a	n/a	n/a	-999	8	[-999, -999, -999]	n/a	FR1	2	R1094T
902.175	5.634	862282	PROB	5.634	n/a	n/a	-999	8	[4, 2, 5]	11	FR1	2	R1094T
907.809	5.451	867916	PROB	5.451	n/a	n/a	-999	8	[9, 5, 9]	23	FR1	2	R1094T
913.26	6.501	873366	PROB	6.501	n/a	n/a	-999	8	[6, 5, 3]	14	FR1	2	R1094T
919.761	4.619	879867	PROB	4.619	n/a	n/a	-999	8	[2, 4, 2]	8	FR1	2	R1094T
924.38	0.016	884486	STOP	n/a	n/a	n/a	-999	8	[-999, -999, -999]	n/a	FR1	2	R1094T
924.396	1.068	884502	DISTRACT_END	n/a	n/a	n/a	-999	8	[0, 0, 0]	n/a	FR1	2	R1094T
925.464	2.97	885570	REC_START	n/a	n/a	n/a	-999	8	[0, 0, 0]	n/a	FR1	2	R1094T
928.434	5.426	888540	REC_WORD	5.426	n/a	GRANERO	-999	8	[0, 0, 0]	n/a	FR1	2	R1094T
933.86	19.407	893965	REC_WORD	19.407	n/a	CORAZON	-999	8	[0, 0, 0]	n/a	FR1	2	R1094T
953.267	2.207	913371	REC_WORD	2.207	n/a	CORDERO	-999	8	[0, 0, 0]	n/a	FR1	2	R1094T
955.474	1.811	915578	REC_END	n/a	n/a	n/a	-999	8	[0, 0, 0]	n/a	FR1	2	R1094T
957.285	0.0	917389	COUNTDOWN_START	n/a	n/a	n/a	-999	9	[0, 0, 0]	n/a	FR1	2	R1094T
957.285	10.428	917389	TRIAL	n/a	n/a	n/a	-999	9	[0, 0, 0]	n/a	FR1	2	R1094T
967.713	0.007	927817	COUNTDOWN_END	n/a	n/a	n/a	-999	9	[0, 0, 0]	n/a	FR1	2	R1094T
967.72	2.434	927824	ORIENT	n/a	n/a	n/a	-999	9	[0, 0, 0]	n/a	FR1	2	R1094T
970.154	2.466	930258	WORD	n/a	wordpools/wordpool_SP.txt	PARED	1	9	[0, 0, 0]	n/a	FR1	2	R1094T
972.62	2.518	932724	WORD	n/a	wordpools/wordpool_SP.txt	CHALECO	2	9	[0, 0, 0]	n/a	FR1	2	R1094T
975.138	2.417	935241	WORD	n/a	wordpools/wordpool_SP.txt	AGUANIEVE	3	9	[0, 0, 0]	n/a	FR1	2	R1094T
977.555	2.451	937658	WORD	n/a	wordpools/wordpool_SP.txt	CAJA	4	9	[0, 0, 0]	n/a	FR1	2	R1094T
980.006	2.633	940109	WORD	n/a	wordpools/wordpool_SP.txt	HILO	5	9	[0, 0, 0]	n/a	FR1	2	R1094T
982.639	2.434	942742	WORD	n/a	wordpools/wordpool_SP.txt	PASTA	6	9	[0, 0, 0]	n/a	FR1	2	R1094T
985.073	2.55	945176	WORD	n/a	wordpools/wordpool_SP.txt	MADERA	7	9	[0, 0, 0]	n/a	FR1	2	R1094T
987.623	2.418	947726	WORD	n/a	wordpools/wordpool_SP.txt	ALFILER	8	9	[0, 0, 0]	n/a	FR1	2	R1094T
990.041	2.417	950144	WORD	n/a	wordpools/wordpool_SP.txt	CUADRADO	9	9	[0, 0, 0]	n/a	FR1	2	R1094T
992.458	2.501	952561	WORD	n/a	wordpools/wordpool_SP.txt	MUELLE	10	9	[0, 0, 0]	n/a	FR1	2	R1094T
994.959	2.567	955061	WORD	n/a	wordpools/wordpool_SP.txt	TABLERO	11	9	[0, 0, 0]	n/a	FR1	2	R1094T
997.526	1.617	957628	WORD	n/a	wordpools/wordpool_SP.txt	PATIO	12	9	[0, 0, 0]	n/a	FR1	2	R1094T
999.143	0.001	959245	DISTRACT_START	n/a	n/a	n/a	-999	9	[0, 0, 0]	n/a	FR1	2	R1094T
999.144	0.015	959246	START	n/a	n/a	n/a	-999	9	[-999, -999, -999]	n/a	FR1	2	R1094T
999.159	7.935	959261	PROB	7.935	n/a	n/a	-999	9	[9, 8, 4]	21	FR1	2	R1094T
1007.094	7.502	967196	PROB	7.502	n/a	n/a	-999	9	[9, 9, 9]	27	FR1	2	R1094T
1014.596	4.284	974697	PROB	4.284	n/a	n/a	-999	9	[3, 4, 2]	9	FR1	2	R1094T
1018.88	6.284	978981	PROB	6.284	n/a	n/a	-999	9	[6, 2, 9]	17	FR1	2	R1094T
1025.164	0.017	985265	STOP	n/a	n/a	n/a	-999	9	[-999, -999, -999]	n/a	FR1	2	R1094T
1025.181	1.101	985282	DISTRACT_END	n/a	n/a	n/a	-999	9	[0, 0, 0]	n/a	FR1	2	R1094T
1026.282	26.627	986383	REC_START	n/a	n/a	n/a	-999	9	[0, 0, 0]	n/a	FR1	2	R1094T
1052.909	3.383	1013009	REC_WORD	3.383	n/a	CAMARON	-999	9	[0, 0, 0]	n/a	FR1	2	R1094T
1056.292	1.595	1016391	REC_END	n/a	n/a	n/a	-999	9	[0, 0, 0]	n/a	FR1	2	R1094T
1057.887	0.0	1017986	TRIAL	n/a	n/a	n/a	-999	10	[0, 0, 0]	n/a	FR1	2	R1094T
1057.887	10.428	1017986	COUNTDOWN_START	n/a	n/a	n/a	-999	10	[0, 0, 0]	n/a	FR1	2	R1094T
1068.315	0.007	1028414	COUNTDOWN_END	n/a	n/a	n/a	-999	10	[0, 0, 0]	n/a	FR1	2	R1094T
1068.322	2.4	1028421	ORIENT	n/a	n/a	n/a	-999	10	[0, 0, 0]	n/a	FR1	2	R1094T
1070.722	2.517	1030821	WORD	n/a	wordpools/wordpool_SP.txt	TE	1	10	[0, 0, 0]	n/a	FR1	2	R1094T
1073.239	2.518	1033338	WORD	n/a	wordpools/wordpool_SP.txt	GRANJA	2	10	[0, 0, 0]	n/a	FR1	2	R1094T
1075.757	2.467	1035855	WORD	n/a	wordpools/wordpool_SP.txt	ASIENTO	3	10	[0, 0, 0]	n/a	FR1	2	R1094T
1078.224	2.399	1038322	WORD	n/a	wordpools/wordpool_SP.txt	CEPILLO	4	10	[0, 0, 0]	n/a	FR1	2	R1094T
1080.623	2.502	1040721	WORD	n/a	wordpools/wordpool_SP.txt	HACHA	5	10	[0, 0, 0]	n/a	FR1	2	R1094T
1083.125	2.4	1043223	WORD	n/a	wordpools/wordpool_SP.txt	MANGA	6	10	[0, 0, 0]	n/a	FR1	2	R1094T
1085.525	2.384	1045623	WORD	n/a	wordpools/wordpool_SP.txt	MAIZ	7	10	[0, 0, 0]	n/a	FR1	2	R1094T
1087.909	2.517	1048007	WORD	n/a	wordpools/wordpool_SP.txt	MANGUERA	8	10	[0, 0, 0]	n/a	FR1	2	R1094T
1090.426	2.484	1050524	WORD	n/a	wordpools/wordpool_SP.txt	SONRISA	9	10	[0, 0, 0]	n/a	FR1	2	R1094T
1092.91	2.384	1053008	WORD	n/a	wordpools/wordpool_SP.txt	POLO	10	10	[0, 0, 0]	n/a	FR1	2	R1094T
1095.294	2.517	1055391	WORD	n/a	wordpools/wordpool_SP.txt	DARDO	11	10	[0, 0, 0]	n/a	FR1	2	R1094T
1097.811	1.617	1057908	WORD	n/a	wordpools/wordpool_SP.txt	SOMBRERO	12	10	[0, 0, 0]	n/a	FR1	2	R1094T
1099.428	0.001	1059525	DISTRACT_START	n/a	n/a	n/a	-999	10	[0, 0, 0]	n/a	FR1	2	R1094T
1099.429	0.015	1059526	START	n/a	n/a	n/a	-999	10	[-999, -999, -999]	n/a	FR1	2	R1094T
1099.444	6.085	1059541	PROB	6.085	n/a	n/a	-999	10	[3, 7, 9]	19	FR1	2	R1094T
1105.529	5.701	1065626	PROB	5.701	n/a	n/a	-999	10	[2, 4, 5]	11	FR1	2	R1094T
1111.23	5.4	1071327	PROB	5.4	n/a	n/a	-999	10	[2, 8, 7]	17	FR1	2	R1094T
1116.63	4.183	1076726	PROB	4.183	n/a	n/a	-999	10	[7, 1, 3]	11	FR1	2	R1094T
1120.813	0.019	1080909	STOP	n/a	n/a	n/a	-999	10	[-999, -999, -999]	n/a	FR1	2	R1094T
1120.832	1.067	1080928	DISTRACT_END	n/a	n/a	n/a	-999	10	[0, 0, 0]	n/a	FR1	2	R1094T
1121.899	2.021	1081995	REC_START	n/a	n/a	n/a	-999	10	[0, 0, 0]	n/a	FR1	2	R1094T
1123.92	7.089	1084016	REC_WORD	7.089	n/a	DARDO	-999	10	[0, 0, 0]	n/a	FR1	2	R1094T
1131.009	11.175	1091105	REC_WORD	11.175	n/a	PAPALOTE	-999	10	[0, 0, 0]	n/a	FR1	2	R1094T
1142.184	9.725	1102279	REC_WORD	9.725	n/a	CARCEL	-999	10	[0, 0, 0]	n/a	FR1	2	R1094T
1151.909	1.812	1112004	REC_END	n/a	n/a	n/a	-999	10	[0, 0, 0]	n/a	FR1	2	R1094T
1153.721	0.0	1113816	COUNTDOWN_START	n/a	n/a	n/a	-999	11	[0, 0, 0]	n/a	FR1	2	R1094T
1153.721	10.428	1113816	TRIAL	n/a	n/a	n/a	-999	11	[0, 0, 0]	n/a	FR1	2	R1094T
1164.149	0.007	1124243	COUNTDOWN_END	n/a	n/a	n/a	-999	11	[0, 0, 0]	n/a	FR1	2	R1094T
1164.156	2.466	1124250	ORIENT	n/a	n/a	n/a	-999	11	[0, 0, 0]	n/a	FR1	2	R1094T
1166.622	2.552	1126716	WORD	n/a	wordpools/wordpool_SP.txt	BOTA	1	11	[0, 0, 0]	n/a	FR1	2	R1094T
1169.174	2.433	1129268	WORD	n/a	wordpools/wordpool_SP.txt	CUERVO	2	11	[0, 0, 0]	n/a	FR1	2	R1094T
1171.607	2.418	1131701	WORD	n/a	wordpools/wordpool_SP.txt	BASTON	3	11	[0, 0, 0]	n/a	FR1	2	R1094T
1174.025	2.433	1134119	WORD	n/a	wordpools/wordpool_SP.txt	TAZON	4	11	[0, 0, 0]	n/a	FR1	2	R1094T
1176.458	2.384	1136551	WORD	n/a	wordpools/wordpool_SP.txt	PRIMAVERA	5	11	[0, 0, 0]	n/a	FR1	2	R1094T
1178.842	2.567	1138935	WORD	n/a	wordpools/wordpool_SP.txt	VACA	6	11	[0, 0, 0]	n/a	FR1	2	R1094T
1181.409	2.434	1141502	WORD	n/a	wordpools/wordpool_SP.txt	HIERBA	7	11	[0, 0, 0]	n/a	FR1	2	R1094T
1183.843	2.417	1143936	WORD	n/a	wordpools/wordpool_SP.txt	ESCOBA	8	11	[0, 0, 0]	n/a	FR1	2	R1094T
1186.26	2.417	1146353	WORD	n/a	wordpools/wordpool_SP.txt	ARBUSTO	9	11	[0, 0, 0]	n/a	FR1	2	R1094T
1188.677	2.634	1148770	WORD	n/a	wordpools/wordpool_SP.txt	ESTUFA	10	11	[0, 0, 0]	n/a	FR1	2	R1094T
1191.311	2.467	1151404	WORD	n/a	wordpools/wordpool_SP.txt	CUBO	11	11	[0, 0, 0]	n/a	FR1	2	R1094T
1193.778	1.617	1153871	WORD	n/a	wordpools/wordpool_SP.txt	GALLINA	12	11	[0, 0, 0]	n/a	FR1	2	R1094T
1195.395	0.001	1155488	DISTRACT_START	n/a	n/a	n/a	-999	11	[0, 0, 0]	n/a	FR1	2	R1094T
1195.396	0.016	1155489	START	n/a	n/a	n/a	-999	11	[-999, -999, -999]	n/a	FR1	2	R1094T
1195.412	4.867	1155505	PROB	4.867	n/a	n/a	-999	11	[6, 2, 2]	10	FR1	2	R1094T
1200.279	6.685	1160371	PROB	6.685	n/a	n/a	-999	11	[9, 8, 9]	26	FR1	2	R1094T
1206.964	5.167	1167056	PROB	5.167	n/a	n/a	-999	11	[9, 9, 6]	24	FR1	2	R1094T
1212.131	6.745	1172223	PROB	6.745	n/a	n/a	-999	11	[7, 4, 8]	19	FR1	2	R1094T
1218.876	0.007	1178967	STOP	n/a	n/a	n/a	-999	11	[-999, -999, -999]	n/a	FR1	2	R1094T
1218.883	1.117	1178974	DISTRACT_END	n/a	n/a	n/a	-999	11	[0, 0, 0]	n/a	FR1	2	R1094T
1220.0	8.096	1180091	REC_START	n/a	n/a	n/a	-999	11	[0, 0, 0]	n/a	FR1	2	R1094T
1228.096	2.768	1188187	REC_WORD	2.768	n/a	GALLINA	-999	11	[0, 0, 0]	n/a	FR1	2	R1094T
1230.864	19.151	1190955	REC_WORD	19.151	n/a	TAZON	-999	11	[0, 0, 0]	n/a	FR1	2	R1094T
1250.015	2.291	1210105	REC_END	n/a	n/a	n/a	-999	11	[0, 0, 0]	n/a	FR1	2	R1094T
1252.306	0.0	1212396	TRIAL	n/a	n/a	n/a	-999	12	[0, 0, 0]	n/a	FR1	2	R1094T
1252.306	10.428	1212396	COUNTDOWN_START	n/a	n/a	n/a	-999	12	[0, 0, 0]	n/a	FR1	2	R1094T
1262.734	0.007	1222823	COUNTDOWN_END	n/a	n/a	n/a	-999	12	[0, 0, 0]	n/a	FR1	2	R1094T
1262.741	2.4	1222830	ORIENT	n/a	n/a	n/a	-999	12	[0, 0, 0]	n/a	FR1	2	R1094T
1265.141	2.567	1225230	WORD	n/a	wordpools/wordpool_SP.txt	TELARANA	1	12	[0, 0, 0]	n/a	FR1	2	R1094T
1267.708	2.601	1227797	WORD	n/a	wordpools/wordpool_SP.txt	ZAPATO	2	12	[0, 0, 0]	n/a	FR1	2	R1094T
1270.309	2.533	1230398	WORD	n/a	wordpools/wordpool_SP.txt	BALLENA	3	12	[0, 0, 0]	n/a	FR1	2	R1094T
1272.842	2.601	1232931	WORD	n/a	wordpools/wordpool_SP.txt	CARPA	4	12	[0, 0, 0]	n/a	FR1	2	R1094T
1275.443	2.434	1235532	WORD	n/a	wordpools/wordpool_SP.txt	PELAJE	5	12	[0, 0, 0]	n/a	FR1	2	R1094T
1277.877	2.567	1237965	WORD	n/a	wordpools/wordpool_SP.txt	TABURETE	6	12	[0, 0, 0]	n/a	FR1	2	R1094T
1280.444	2.384	1240532	WORD	n/a	wordpools/wordpool_SP.txt	PANTALONES	7	12	[0, 0, 0]	n/a	FR1	2	R1094T
1282.828	2.534	1242916	WORD	n/a	wordpools/wordpool_SP.txt	DEDO	8	12	[0, 0, 0]	n/a	FR1	2	R1094T
1285.362	2.45	1245450	WORD	n/a	wordpools/wordpool_SP.txt	CABRA	9	12	[0, 0, 0]	n/a	FR1	2	R1094T
1287.812	2.384	1247900	WORD	n/a	wordpools/wordpool_SP.txt	TECHO	10	12	[0, 0, 0]	n/a	FR1	2	R1094T
1290.196	2.4	1250284	WORD	n/a	wordpools/wordpool_SP.txt	VENTILADOR	11	12	[0, 0, 0]	n/a	FR1	2	R1094T
1292.596	1.617	1252684	WORD	n/a	wordpools/wordpool_SP.txt	CARA	12	12	[0, 0, 0]	n/a	FR1	2	R1094T
1294.213	0.001	1254301	DISTRACT_START	n/a	n/a	n/a	-999	12	[0, 0, 0]	n/a	FR1	2	R1094T
1294.214	0.016	1254302	START	n/a	n/a	n/a	-999	12	[-999, -999, -999]	n/a	FR1	2	R1094T
1294.23	4.901	1254318	PROB	4.901	n/a	n/a	-999	12	[5, 8, 1]	14	FR1	2	R1094T
1299.131	5.301	1259218	PROB	5.301	n/a	n/a	-999	12	[6, 6, 7]	19	FR1	2	R1094T
1304.432	5.367	1264519	PROB	5.367	n/a	n/a	-999	12	[4, 7, 7]	18	FR1	2	R1094T
1309.799	6.31	1269886	PROB	6.31	n/a	n/a	-999	12	[6, 4, 8]	18	FR1	2	R1094T
1316.109	0.008	1276196	STOP	n/a	n/a	n/a	-999	12	[-999, -999, -999]	n/a	FR1	2	R1094T
1316.117	1.068	1276204	DISTRACT_END	n/a	n/a	n/a	-999	12	[0, 0, 0]	n/a	FR1	2	R1094T
1317.185	30.0	1277272	REC_START	n/a	n/a	n/a	-999	12	[0, 0, 0]	n/a	FR1	2	R1094T
1347.185	0.01	1307270	REC_WORD_VV	0.01	n/a	<>	-999	12	[0, 0, 0]	n/a	FR1	2	R1094T
1347.195	1.695	1307280	REC_END	n/a	n/a	n/a	-999	12	[0, 0, 0]	n/a	FR1	2	R1094T
1348.89	0.0	1308975	TRIAL	n/a	n/a	n/a	-999	13	[0, 0, 0]	n/a	FR1	2	R1094T
1348.89	10.428	1308975	COUNTDOWN_START	n/a	n/a	n/a	-999	13	[0, 0, 0]	n/a	FR1	2	R1094T
1359.318	0.007	1319402	COUNTDOWN_END	n/a	n/a	n/a	-999	13	[0, 0, 0]	n/a	FR1	2	R1094T
1359.325	2.484	1319409	ORIENT	n/a	n/a	n/a	-999	13	[0, 0, 0]	n/a	FR1	2	R1094T
1361.809	2.584	1321893	WORD	n/a	wordpools/wordpool_SP.txt	TRAPO	1	13	[0, 0, 0]	n/a	FR1	2	R1094T
1364.393	2.417	1324477	WORD	n/a	wordpools/wordpool_SP.txt	ZOOLOGICO	2	13	[0, 0, 0]	n/a	FR1	2	R1094T
1366.81	2.467	1326894	WORD	n/a	wordpools/wordpool_SP.txt	GUARDIA	3	13	[0, 0, 0]	n/a	FR1	2	R1094T
1369.277	2.5	1329361	WORD	n/a	wordpools/wordpool_SP.txt	VENADO	4	13	[0, 0, 0]	n/a	FR1	2	R1094T
1371.777	2.534	1331861	WORD	n/a	wordpools/wordpool_SP.txt	TINTA	5	13	[0, 0, 0]	n/a	FR1	2	R1094T
1374.311	2.567	1334395	WORD	n/a	wordpools/wordpool_SP.txt	CORREO	6	13	[0, 0, 0]	n/a	FR1	2	R1094T
1376.878	2.467	1336962	WORD	n/a	wordpools/wordpool_SP.txt	ESPUMA	7	13	[0, 0, 0]	n/a	FR1	2	R1094T
1379.345	2.567	1339428	WORD	n/a	wordpools/wordpool_SP.txt	POZO	8	13	[0, 0, 0]	n/a	FR1	2	R1094T
1381.912	2.568	1341995	WORD	n/a	wordpools/wordpool_SP.txt	CARNET	9	13	[0, 0, 0]	n/a	FR1	2	R1094T
1384.48	2.6	1344563	WORD	n/a	wordpools/wordpool_SP.txt	JAULA	10	13	[0, 0, 0]	n/a	FR1	2	R1094T
1387.08	2.401	1347163	WORD	n/a	wordpools/wordpool_SP.txt	PICO	11	13	[0, 0, 0]	n/a	FR1	2	R1094T
1389.481	1.616	1349564	WORD	n/a	wordpools/wordpool_SP.txt	PAGINA	12	13	[0, 0, 0]	n/a	FR1	2	R1094T
1391.097	0.001	1351180	DISTRACT_START	n/a	n/a	n/a	-999	13	[0, 0, 0]	n/a	FR1	2	R1094T
1391.098	0.016	1351181	START	n/a	n/a	n/a	-999	13	[-999, -999, -999]	n/a	FR1	2	R1094T
1391.114	3.601	1351197	PROB	3.601	n/a	n/a	-999	13	[7, 1, 1]	9	FR1	2	R1094T
1394.715	5.784	1354798	PROB	5.784	n/a	n/a	-999	13	[5, 4, 8]	17	FR1	2	R1094T
1400.499	6.018	1360581	PROB	6.018	n/a	n/a	-999	13	[4, 8, 5]	17	FR1	2	R1094T
1406.517	4.051	1366599	PROB	4.051	n/a	n/a	-999	13	[2, 2, 7]	11	FR1	2	R1094T
1410.568	6.285	1370650	PROB	6.285	n/a	n/a	-999	13	[8, 3, 5]	16	FR1	2	R1094T
1416.853	0.016	1376935	STOP	n/a	n/a	n/a	-999	13	[-999, -999, -999]	n/a	FR1	2	R1094T
1416.869	1.201	1376951	DISTRACT_END	n/a	n/a	n/a	-999	13	[0, 0, 0]	n/a	FR1	2	R1094T
1418.07	4.62	1378152	REC_START	n/a	n/a	n/a	-999	13	[0, 0, 0]	n/a	FR1	2	R1094T
1422.69	3.141	1382771	REC_WORD	3.141	n/a	CARNET	-999	13	[0, 0, 0]	n/a	FR1	2	R1094T
1425.831	22.249	1385912	REC_WORD	22.249	n/a	VACA	-999	13	[0, 0, 0]	n/a	FR1	2	R1094T
1448.08	1.762	1408160	REC_END	n/a	n/a	n/a	-999	13	[0, 0, 0]	n/a	FR1	2	R1094T
1449.842	0.0	1409922	COUNTDOWN_START	n/a	n/a	n/a	-999	14	[0, 0, 0]	n/a	FR1	2	R1094T
1449.842	10.428	1409922	TRIAL	n/a	n/a	n/a	-999	14	[0, 0, 0]	n/a	FR1	2	R1094T
1460.27	0.007	1420349	COUNTDOWN_END	n/a	n/a	n/a	-999	14	[0, 0, 0]	n/a	FR1	2	R1094T
1460.277	2.584	1420356	ORIENT	n/a	n/a	n/a	-999	14	[0, 0, 0]	n/a	FR1	2	R1094T
1462.861	2.483	1422940	WORD	n/a	wordpools/wordpool_SP.txt	LADRILLO	1	14	[0, 0, 0]	n/a	FR1	2	R1094T
1465.344	2.467	1425423	WORD	n/a	wordpools/wordpool_SP.txt	HABITACION	2	14	[0, 0, 0]	n/a	FR1	2	R1094T
1467.811	2.584	1427890	WORD	n/a	wordpools/wordpool_SP.txt	CORBATA	3	14	[0, 0, 0]	n/a	FR1	2	R1094T
1470.395	2.567	1430474	WORD	n/a	wordpools/wordpool_SP.txt	LIMO	4	14	[0, 0, 0]	n/a	FR1	2	R1094T
1472.962	2.401	1433041	WORD	n/a	wordpools/wordpool_SP.txt	ESCRITORIO	5	14	[0, 0, 0]	n/a	FR1	2	R1094T
1475.363	2.467	1435442	WORD	n/a	wordpools/wordpool_SP.txt	TIZA	6	14	[0, 0, 0]	n/a	FR1	2	R1094T
1477.83	2.45	1437909	WORD	n/a	wordpools/wordpool_SP.txt	LABERINTO	7	14	[0, 0, 0]	n/a	FR1	2	R1094T
1480.28	2.484	1440358	WORD	n/a	wordpools/wordpool_SP.txt	ESCUELA	8	14	[0, 0, 0]	n/a	FR1	2	R1094T
1482.764	2.467	1442842	WORD	n/a	wordpools/wordpool_SP.txt	BANDA	9	14	[0, 0, 0]	n/a	FR1	2	R1094T
1485.231	2.384	1445309	WORD	n/a	wordpools/wordpool_SP.txt	BANDERA	10	14	[0, 0, 0]	n/a	FR1	2	R1094T
1487.615	2.417	1447693	WORD	n/a	wordpools/wordpool_SP.txt	PISO	11	14	[0, 0, 0]	n/a	FR1	2	R1094T
1490.032	1.617	1450110	WORD	n/a	wordpools/wordpool_SP.txt	GUANTE	12	14	[0, 0, 0]	n/a	FR1	2	R1094T
1491.649	0.001	1451727	DISTRACT_START	n/a	n/a	n/a	-999	14	[0, 0, 0]	n/a	FR1	2	R1094T
1491.65	0.016	1451728	START	n/a	n/a	n/a	-999	14	[-999, -999, -999]	n/a	FR1	2	R1094T
1491.666	6.684	1451744	PROB	6.684	n/a	n/a	-999	14	[7, 5, 5]	17	FR1	2	R1094T
1498.35	3.951	1458428	PROB	3.951	n/a	n/a	-999	14	[7, 7, 2]	16	FR1	2	R1094T
1502.301	4.401	1462378	PROB	4.401	n/a	n/a	-999	14	[9, 4, 9]	22	FR1	2	R1094T
1506.702	5.783	1466779	PROB	5.783	n/a	n/a	-999	14	[7, 1, 8]	16	FR1	2	R1094T
1512.485	0.018	1472562	STOP	n/a	n/a	n/a	-999	14	[-999, -999, -999]	n/a	FR1	2	R1094T
1512.503	1.151	1472580	DISTRACT_END	n/a	n/a	n/a	-999	14	[0, 0, 0]	n/a	FR1	2	R1094T
1513.654	30.0	1473731	REC_START	n/a	n/a	n/a	-999	14	[0, 0, 0]	n/a	FR1	2	R1094T
1543.654	0.01	1503729	REC_WORD_VV	0.01	n/a	<>	-999	14	[0, 0, 0]	n/a	FR1	2	R1094T
1543.664	2.012	1503739	REC_END	n/a	n/a	n/a	-999	14	[0, 0, 0]	n/a	FR1	2	R1094T
1545.676	0.0	1505751	TRIAL	n/a	n/a	n/a	-999	15	[0, 0, 0]	n/a	FR1	2	R1094T
1545.676	10.428	1505751	COUNTDOWN_START	n/a	n/a	n/a	-999	15	[0, 0, 0]	n/a	FR1	2	R1094T
1556.104	0.007	1516179	COUNTDOWN_END	n/a	n/a	n/a	-999	15	[0, 0, 0]	n/a	FR1	2	R1094T
1556.111	2.434	1516186	ORIENT	n/a	n/a	n/a	-999	15	[0, 0, 0]	n/a	FR1	2	R1094T
1558.545	2.45	1518620	WORD	n/a	wordpools/wordpool_SP.txt	ANZUELO	1	15	[0, 0, 0]	n/a	FR1	2	R1094T
1560.995	2.6	1521069	WORD	n/a	wordpools/wordpool_SP.txt	PISCINA	2	15	[0, 0, 0]	n/a	FR1	2	R1094T
1563.595	2.401	1523669	WORD	n/a	wordpools/wordpool_SP.txt	RATON	3	15	[0, 0, 0]	n/a	FR1	2	R1094T
1565.996	2.467	1526070	WORD	n/a	wordpools/wordpool_SP.txt	ESTERA	4	15	[0, 0, 0]	n/a	FR1	2	R1094T
1568.463	2.551	1528537	WORD	n/a	wordpools/wordpool_SP.txt	MASCOTA	5	15	[0, 0, 0]	n/a	FR1	2	R1094T
1571.014	2.433	1531088	WORD	n/a	wordpools/wordpool_SP.txt	BOLA	6	15	[0, 0, 0]	n/a	FR1	2	R1094T
1573.447	2.434	1533521	WORD	n/a	wordpools/wordpool_SP.txt	JUGUETE	7	15	[0, 0, 0]	n/a	FR1	2	R1094T
1575.881	2.567	1535955	WORD	n/a	wordpools/wordpool_SP.txt	LLAMA	8	15	[0, 0, 0]	n/a	FR1	2	R1094T
1578.448	2.517	1538522	WORD	n/a	wordpools/wordpool_SP.txt	MUNECO	9	15	[0, 0, 0]	n/a	FR1	2	R1094T
1580.965	2.468	1541038	WORD	n/a	wordpools/wordpool_SP.txt	GATO	10	15	[0, 0, 0]	n/a	FR1	2	R1094T
1583.433	2.483	1543506	WORD	n/a	wordpools/wordpool_SP.txt	UNA	11	15	[0, 0, 0]	n/a	FR1	2	R1094T
1585.916	1.617	1545989	WORD	n/a	wordpools/wordpool_SP.txt	PEZ	12	15	[0, 0, 0]	n/a	FR1	2	R1094T
1587.533	0.001	1547606	DISTRACT_START	n/a	n/a	n/a	-999	15	[0, 0, 0]	n/a	FR1	2	R1094T
1587.534	0.016	1547607	START	n/a	n/a	n/a	-999	15	[-999, -999, -999]	n/a	FR1	2	R1094T
1587.55	4.884	1547623	PROB	4.884	n/a	n/a	-999	15	[3, 1, 4]	8	FR1	2	R1094T
1592.434	5.518	1552507	PROB	5.518	n/a	n/a	-999	15	[3, 8, 4]	15	FR1	2	R1094T
1597.952	6.268	1558025	PROB	6.268	n/a	n/a	-999	15	[6, 4, 9]	19	FR1	2	R1094T
1604.22	5.36	1564292	PROB	5.36	n/a	n/a	-999	15	[2, 3, 3]	8	FR1	2	R1094T
1609.58	0.007	1569652	STOP	n/a	n/a	n/a	-999	15	[-999, -999, -999]	n/a	FR1	2	R1094T
1609.587	1.168	1569659	DISTRACT_END	n/a	n/a	n/a	-999	15	[0, 0, 0]	n/a	FR1	2	R1094T
1610.755	6.033	1570827	REC_START	n/a	n/a	n/a	-999	15	[0, 0, 0]	n/a	FR1	2	R1094T
1616.788	2.961	1576860	REC_WORD	2.961	n/a	PISO	-999	15	[0, 0, 0]	n/a	FR1	2	R1094T
1619.749	14.128	1579821	REC_WORD	14.128	n/a	TABURETE	-999	15	[0, 0, 0]	n/a	FR1	2	R1094T
1633.877	6.888	1593948	REC_WORD	6.888	n/a	RATON	-999	15	[0, 0, 0]	n/a	FR1	2	R1094T
1640.765	1.428	1600836	REC_END	n/a	n/a	n/a	-999	15	[0, 0, 0]	n/a	FR1	2	R1094T
1642.193	0.0	1602263	COUNTDOWN_START	n/a	n/a	n/a	-999	16	[0, 0, 0]	n/a	FR1	2	R1094T
1642.193	10.428	1602263	TRIAL	n/a	n/a	n/a	-999	16	[0, 0, 0]	n/a	FR1	2	R1094T
1652.621	0.006	1612691	COUNTDOWN_END	n/a	n/a	n/a	-999	16	[0, 0, 0]	n/a	FR1	2	R1094T
1652.627	2.385	1612697	ORIENT	n/a	n/a	n/a	-999	16	[0, 0, 0]	n/a	FR1	2	R1094T
1655.012	2.417	1615082	WORD	n/a	wordpools/wordpool_SP.txt	JEFE	1	16	[0, 0, 0]	n/a	FR1	2	R1094T
1657.429	2.534	1617499	WORD	n/a	wordpools/wordpool_SP.txt	BANCA	2	16	[0, 0, 0]	n/a	FR1	2	R1094T
1659.963	2.467	1620033	WORD	n/a	wordpools/wordpool_SP.txt	PALMA	3	16	[0, 0, 0]	n/a	FR1	2	R1094T
1662.43	2.384	1622499	WORD	n/a	wordpools/wordpool_SP.txt	ESCUDO	4	16	[0, 0, 0]	n/a	FR1	2	R1094T
1664.814	2.401	1624883	WORD	n/a	wordpools/wordpool_SP.txt	PASTEL	5	16	[0, 0, 0]	n/a	FR1	2	R1094T
1667.215	2.383	1627284	WORD	n/a	wordpools/wordpool_SP.txt	MONEDA	6	16	[0, 0, 0]	n/a	FR1	2	R1094T
1669.598	2.468	1629667	WORD	n/a	wordpools/wordpool_SP.txt	ROSA	7	16	[0, 0, 0]	n/a	FR1	2	R1094T
1672.066	2.633	1632135	WORD	n/a	wordpools/wordpool_SP.txt	ARROZ	8	16	[0, 0, 0]	n/a	FR1	2	R1094T
1674.699	2.501	1634768	WORD	n/a	wordpools/wordpool_SP.txt	SILLA	9	16	[0, 0, 0]	n/a	FR1	2	R1094T
1677.2	2.567	1637269	WORD	n/a	wordpools/wordpool_SP.txt	COPA	10	16	[0, 0, 0]	n/a	FR1	2	R1094T
1679.767	2.617	1639836	WORD	n/a	wordpools/wordpool_SP.txt	TAMBOR	11	16	[0, 0, 0]	n/a	FR1	2	R1094T
1682.384	1.617	1642452	WORD	n/a	wordpools/wordpool_SP.txt	RANA	12	16	[0, 0, 0]	n/a	FR1	2	R1094T
1684.001	0.001	1644069	DISTRACT_START	n/a	n/a	n/a	-999	16	[0, 0, 0]	n/a	FR1	2	R1094T
1684.002	0.016	1644070	START	n/a	n/a	n/a	-999	16	[-999, -999, -999]	n/a	FR1	2	R1094T
1684.018	4.1	1644086	PROB	4.1	n/a	n/a	-999	16	[2, 4, 1]	7	FR1	2	R1094T
1688.118	3.768	1648186	PROB	3.768	n/a	n/a	-999	16	[1, 9, 9]	13	FR1	2	R1094T
1691.886	5.817	1651954	PROB	5.817	n/a	n/a	-999	16	[5, 7, 5]	17	FR1	2	R1094T
1697.703	5.151	1657771	PROB	5.151	n/a	n/a	-999	16	[4, 5, 5]	14	FR1	2	R1094T
1702.854	6.751	1662921	PROB	6.751	n/a	n/a	-999	16	[5, 6, 8]	19	FR1	2	R1094T
1709.605	0.016	1669672	STOP	n/a	n/a	n/a	-999	16	[-999, -999, -999]	n/a	FR1	2	R1094T
1709.621	1.036	1669688	DISTRACT_END	n/a	n/a	n/a	-999	16	[0, 0, 0]	n/a	FR1	2	R1094T
1710.657	5.881	1670724	REC_START	n/a	n/a	n/a	-999	16	[0, 0, 0]	n/a	FR1	2	R1094T
1716.538	12.048	1676605	REC_WORD	12.048	n/a	RANA	-999	16	[0, 0, 0]	n/a	FR1	2	R1094T
1728.586	12.081	1688652	REC_WORD	12.081	n/a	RASTRILLO	-999	16	[0, 0, 0]	n/a	FR1	2	R1094T
1740.667	1.861	1700733	REC_END	n/a	n/a	n/a	-999	16	[0, 0, 0]	n/a	FR1	2	R1094T
1742.528	0.001	1702594	COUNTDOWN_START	n/a	n/a	n/a	-999	17	[0, 0, 0]	n/a	FR1	2	R1094T
1742.529	10.427	1702595	TRIAL	n/a	n/a	n/a	-999	17	[0, 0, 0]	n/a	FR1	2	R1094T
1752.956	0.007	1713021	COUNTDOWN_END	n/a	n/a	n/a	-999	17	[0, 0, 0]	n/a	FR1	2	R1094T
1752.963	2.618	1713028	ORIENT	n/a	n/a	n/a	-999	17	[0, 0, 0]	n/a	FR1	2	R1094T
1755.581	2.567	1715646	WORD	n/a	wordpools/wordpool_SP.txt	CASA	1	17	[0, 0, 0]	n/a	FR1	2	R1094T
1758.148	2.6	1718213	WORD	n/a	wordpools/wordpool_SP.txt	HALCON	2	17	[0, 0, 0]	n/a	FR1	2	R1094T
1760.748	2.517	1720813	WORD	n/a	wordpools/wordpool_SP.txt	VARITA	3	17	[0, 0, 0]	n/a	FR1	2	R1094T
1763.265	2.551	1723330	WORD	n/a	wordpools/wordpool_SP.txt	GANSOS	4	17	[0, 0, 0]	n/a	FR1	2	R1094T
1765.816	2.567	1725880	WORD	n/a	wordpools/wordpool_SP.txt	ESTRELLA	5	17	[0, 0, 0]	n/a	FR1	2	R1094T
1768.383	2.517	1728447	WORD	n/a	wordpools/wordpool_SP.txt	NUBE	6	17	[0, 0, 0]	n/a	FR1	2	R1094T
1770.9	2.567	1730964	WORD	n/a	wordpools/wordpool_SP.txt	PERLA	7	17	[0, 0, 0]	n/a	FR1	2	R1094T
1773.467	2.584	1733531	WORD	n/a	wordpools/wordpool_SP.txt	ESPADA	8	17	[0, 0, 0]	n/a	FR1	2	R1094T
1776.051	2.617	1736115	WORD	n/a	wordpools/wordpool_SP.txt	ESCALERA	9	17	[0, 0, 0]	n/a	FR1	2	R1094T
1778.668	2.567	1738732	WORD	n/a	wordpools/wordpool_SP.txt	ORO	10	17	[0, 0, 0]	n/a	FR1	2	R1094T
1781.235	2.634	1741299	WORD	n/a	wordpools/wordpool_SP.txt	CARRETERA	11	17	[0, 0, 0]	n/a	FR1	2	R1094T
1783.869	1.617	1743932	WORD	n/a	wordpools/wordpool_SP.txt	PUENTE	12	17	[0, 0, 0]	n/a	FR1	2	R1094T
1785.486	0.001	1745549	DISTRACT_START	n/a	n/a	n/a	-999	17	[0, 0, 0]	n/a	FR1	2	R1094T
1785.487	0.016	1745550	START	n/a	n/a	n/a	-999	17	[-999, -999, -999]	n/a	FR1	2	R1094T
1785.503	4.434	1745566	PROB	4.434	n/a	n/a	-999	17	[1, 1, 2]	4	FR1	2	R1094T
1789.937	5.834	1750000	PROB	5.834	n/a	n/a	-999	17	[3, 3, 8]	14	FR1	2	R1094T
1795.771	3.768	1755834	PROB	3.768	n/a	n/a	-999	17	[1, 2, 6]	9	FR1	2	R1094T
1799.539	5.917	1759602	PROB	5.917	n/a	n/a	-999	17	[4, 7, 4]	21	FR1	2	R1094T
1805.456	5.764	1765518	PROB	5.764	n/a	n/a	-999	17	[7, 5, 1]	13	FR1	2	R1094T
1811.22	0.004	1771282	STOP	n/a	n/a	n/a	-999	17	[-999, -999, -999]	n/a	FR1	2	R1094T
1811.224	1.134	1771286	DISTRACT_END	n/a	n/a	n/a	-999	17	[0, 0, 0]	n/a	FR1	2	R1094T
1812.358	1.679	1772420	REC_START	n/a	n/a	n/a	-999	17	[0, 0, 0]	n/a	FR1	2	R1094T
1814.037	3.22	1774099	REC_WORD	3.22	n/a	ORO	-999	17	[0, 0, 0]	n/a	FR1	2	R1094T
1817.257	15.651	1777319	REC_WORD	15.651	n/a	CASA	-999	17	[0, 0, 0]	n/a	FR1	2	R1094T
1832.908	2.324	1792969	REC_WORD	2.324	n/a	ESCUELA	-999	17	[0, 0, 0]	n/a	FR1	2	R1094T
1835.232	7.14	1795293	REC_WORD	7.14	n/a	ESCALERA	-999	17	[0, 0, 0]	n/a	FR1	2	R1094T
1842.372	1.441	1802433	REC_END	n/a	n/a	n/a	-999	17	[0, 0, 0]	n/a	FR1	2	R1094T
1843.813	0.001	1803874	COUNTDOWN_START	n/a	n/a	n/a	-999	18	[0, 0, 0]	n/a	FR1	2	R1094T
1843.814	10.427	1803875	TRIAL	n/a	n/a	n/a	-999	18	[0, 0, 0]	n/a	FR1	2	R1094T
1854.241	0.008	1814301	COUNTDOWN_END	n/a	n/a	n/a	-999	18	[0, 0, 0]	n/a	FR1	2	R1094T
1854.249	2.467	1814309	ORIENT	n/a	n/a	n/a	-999	18	[0, 0, 0]	n/a	FR1	2	R1094T
1856.716	2.567	1816776	WORD	n/a	wordpools/wordpool_SP.txt	JET	1	18	[0, 0, 0]	n/a	FR1	2	R1094T
1859.283	2.5	1819343	WORD	n/a	wordpools/wordpool_SP.txt	VELA	2	18	[0, 0, 0]	n/a	FR1	2	R1094T
1861.783	2.534	1821843	WORD	n/a	wordpools/wordpool_SP.txt	RELOJ	3	18	[0, 0, 0]	n/a	FR1	2	R1094T
1864.317	2.451	1824377	WORD	n/a	wordpools/wordpool_SP.txt	CHISPA	4	18	[0, 0, 0]	n/a	FR1	2	R1094T
1866.768	2.417	1826827	WORD	n/a	wordpools/wordpool_SP.txt	OREJA	5	18	[0, 0, 0]	n/a	FR1	2	R1094T
1869.185	2.534	1829244	WORD	n/a	wordpools/wordpool_SP.txt	BARCO	6	18	[0, 0, 0]	n/a	FR1	2	R1094T
1871.719	2.45	1831778	WORD	n/a	wordpools/wordpool_SP.txt	RUBOR	7	18	[0, 0, 0]	n/a	FR1	2	R1094T
1874.169	2.417	1834228	WORD	n/a	wordpools/wordpool_SP.txt	AVION	8	18	[0, 0, 0]	n/a	FR1	2	R1094T
1876.586	2.4	1836645	WORD	n/a	wordpools/wordpool_SP.txt	LAMPARA	9	18	[0, 0, 0]	n/a	FR1	2	R1094T
1878.986	2.518	1839045	WORD	n/a	wordpools/wordpool_SP.txt	TELEFONO	10	18	[0, 0, 0]	n/a	FR1	2	R1094T
1881.504	2.467	1841563	WORD	n/a	wordpools/wordpool_SP.txt	AUTO	11	18	[0, 0, 0]	n/a	FR1	2	R1094T
1883.971	1.617	1844030	WORD	n/a	wordpools/wordpool_SP.txt	PERRO	12	18	[0, 0, 0]	n/a	FR1	2	R1094T
1885.588	0.001	1845646	DISTRACT_START	n/a	n/a	n/a	-999	18	[0, 0, 0]	n/a	FR1	2	R1094T
1885.589	0.016	1845647	START	n/a	n/a	n/a	-999	18	[-999, -999, -999]	n/a	FR1	2	R1094T
1885.605	3.917	1845663	PROB	3.917	n/a	n/a	-999	18	[5, 1, 2]	8	FR1	2	R1094T
1889.522	5.501	1849580	PROB	5.501	n/a	n/a	-999	18	[4, 6, 5]	15	FR1	2	R1094T
1895.023	5.767	1855081	PROB	5.767	n/a	n/a	-999	18	[7, 7, 5]	19	FR1	2	R1094T
1900.79	6.127	1860848	PROB	6.127	n/a	n/a	-999	18	[8, 3, 7]	18	FR1	2	R1094T
1906.917	0.008	1866974	STOP	n/a	n/a	n/a	-999	18	[-999, -999, -999]	n/a	FR1	2	R1094T
1906.925	1.134	1866982	DISTRACT_END	n/a	n/a	n/a	-999	18	[0, 0, 0]	n/a	FR1	2	R1094T
1908.059	6.27	1868116	REC_START	n/a	n/a	n/a	-999	18	[0, 0, 0]	n/a	FR1	2	R1094T
1914.329	9.589	1874386	REC_WORD	9.589	n/a	MONEDA	-999	18	[0, 0, 0]	n/a	FR1	2	R1094T
1923.918	14.152	1883975	REC_WORD	14.152	n/a	RELOJ	-999	18	[0, 0, 0]	n/a	FR1	2	R1094T
1938.07	1.444	1898126	REC_END	n/a	n/a	n/a	-999	18	[0, 0, 0]	n/a	FR1	2	R1094T
1939.514	0.0	1899570	TRIAL	n/a	n/a	n/a	-999	19	[0, 0, 0]	n/a	FR1	2	R1094T
1939.514	10.428	1899570	COUNTDOWN_START	n/a	n/a	n/a	-999	19	[0, 0, 0]	n/a	FR1	2	R1094T
1949.942	0.007	1909997	COUNTDOWN_END	n/a	n/a	n/a	-999	19	[0, 0, 0]	n/a	FR1	2	R1094T
1949.949	2.468	1910004	ORIENT	n/a	n/a	n/a	-999	19	[0, 0, 0]	n/a	FR1	2	R1094T
1952.417	2.55	1912472	WORD	n/a	wordpools/wordpool_SP.txt	SAL	1	19	[0, 0, 0]	n/a	FR1	2	R1094T
1954.967	2.417	1915022	WORD	n/a	wordpools/wordpool_SP.txt	BASURA	2	19	[0, 0, 0]	n/a	FR1	2	R1094T
1957.384	2.417	1917439	WORD	n/a	wordpools/wordpool_SP.txt	MAPA	3	19	[0, 0, 0]	n/a	FR1	2	R1094T
1959.801	2.534	1919856	WORD	n/a	wordpools/wordpool_SP.txt	HIELO	4	19	[0, 0, 0]	n/a	FR1	2	R1094T
1962.335	2.4	1922390	WORD	n/a	wordpools/wordpool_SP.txt	NIEVE	5	19	[0, 0, 0]	n/a	FR1	2	R1094T
1964.735	2.551	1924790	WORD	n/a	wordpools/wordpool_SP.txt	VAPOR	6	19	[0, 0, 0]	n/a	FR1	2	R1094T
1967.286	2.55	1927340	WORD	n/a	wordpools/wordpool_SP.txt	BOMBA	7	19	[0, 0, 0]	n/a	FR1	2	R1094T
1969.836	2.417	1929890	WORD	n/a	wordpools/wordpool_SP.txt	ROCA	8	19	[0, 0, 0]	n/a	FR1	2	R1094T
1972.253	2.534	1932307	WORD	n/a	wordpools/wordpool_SP.txt	TANQUE	9	19	[0, 0, 0]	n/a	FR1	2	R1094T
1974.787	2.517	1934841	WORD	n/a	wordpools/wordpool_SP.txt	LAGO	10	19	[0, 0, 0]	n/a	FR1	2	R1094T
1977.304	2.618	1937358	WORD	n/a	wordpools/wordpool_SP.txt	ALCES	11	19	[0, 0, 0]	n/a	FR1	2	R1094T
1979.922	1.617	1939976	WORD	n/a	wordpools/wordpool_SP.txt	PIEDRA	12	19	[0, 0, 0]	n/a	FR1	2	R1094T
1981.539	0.0	1941593	DISTRACT_START	n/a	n/a	n/a	-999	19	[0, 0, 0]	n/a	FR1	2	R1094T
1981.539	0.016	1941593	START	n/a	n/a	n/a	-999	19	[-999, -999, -999]	n/a	FR1	2	R1094T
1981.555	6.051	1941609	PROB	6.051	n/a	n/a	-999	19	[8, 2, 6]	16	FR1	2	R1094T
1987.606	5.701	1947659	PROB	5.701	n/a	n/a	-999	19	[6, 1, 5]	12	FR1	2	R1094T
1993.307	3.518	1953360	PROB	3.518	n/a	n/a	-999	19	[8, 1, 2]	11	FR1	2	R1094T
1996.825	6.596	1956878	PROB	6.596	n/a	n/a	-999	19	[9, 4, 7]	21	FR1	2	R1094T
2003.421	0.005	1963474	STOP	n/a	n/a	n/a	-999	19	[-999, -999, -999]	n/a	FR1	2	R1094T
2003.426	1.051	1963479	DISTRACT_END	n/a	n/a	n/a	-999	19	[0, 0, 0]	n/a	FR1	2	R1094T
2004.477	30.0	1964530	REC_START	n/a	n/a	n/a	-999	19	[0, 0, 0]	n/a	FR1	2	R1094T
2034.477	0.01	1994528	REC_WORD_VV	0.01	n/a	<>	-999	19	[0, 0, 0]	n/a	FR1	2	R1094T
2034.487	1.678	1994538	REC_END	n/a	n/a	n/a	-999	19	[0, 0, 0]	n/a	FR1	2	R1094T
2036.165	0.0	1996216	TRIAL	n/a	n/a	n/a	-999	20	[0, 0, 0]	n/a	FR1	2	R1094T
2036.165	10.428	1996216	COUNTDOWN_START	n/a	n/a	n/a	-999	20	[0, 0, 0]	n/a	FR1	2	R1094T
2046.593	0.007	2006644	COUNTDOWN_END	n/a	n/a	n/a	-999	20	[0, 0, 0]	n/a	FR1	2	R1094T
2046.6	2.517	2006651	ORIENT	n/a	n/a	n/a	-999	20	[0, 0, 0]	n/a	FR1	2	R1094T
2049.117	2.534	2009167	WORD	n/a	wordpools/wordpool_SP.txt	CORDEL	1	20	[0, 0, 0]	n/a	FR1	2	R1094T
2051.651	2.567	2011701	WORD	n/a	wordpools/wordpool_SP.txt	CAMIONETA	2	20	[0, 0, 0]	n/a	FR1	2	R1094T
2054.218	2.468	2014268	WORD	n/a	wordpools/wordpool_SP.txt	CARRO	3	20	[0, 0, 0]	n/a	FR1	2	R1094T
2056.686	2.517	2016736	WORD	n/a	wordpools/wordpool_SP.txt	PRECIPICIO	4	20	[0, 0, 0]	n/a	FR1	2	R1094T
2059.203	2.383	2019253	WORD	n/a	wordpools/wordpool_SP.txt	PIERNA	5	20	[0, 0, 0]	n/a	FR1	2	R1094T
2061.586	2.601	2021636	WORD	n/a	wordpools/wordpool_SP.txt	HERRAMIENTA	6	20	[0, 0, 0]	n/a	FR1	2	R1094T
2064.187	2.417	2024237	WORD	n/a	wordpools/wordpool_SP.txt	ESQUI	7	20	[0, 0, 0]	n/a	FR1	2	R1094T
2066.604	2.567	2026654	WORD	n/a	wordpools/wordpool_SP.txt	LANZA	8	20	[0, 0, 0]	n/a	FR1	2	R1094T
2069.171	2.484	2029220	WORD	n/a	wordpools/wordpool_SP.txt	GRUA	9	20	[0, 0, 0]	n/a	FR1	2	R1094T
2071.655	2.6	2031704	WORD	n/a	wordpools/wordpool_SP.txt	OLA	10	20	[0, 0, 0]	n/a	FR1	2	R1094T
2074.255	2.417	2034304	WORD	n/a	wordpools/wordpool_SP.txt	COSTILLA	11	20	[0, 0, 0]	n/a	FR1	2	R1094T
2076.672	1.617	2036721	WORD	n/a	wordpools/wordpool_SP.txt	CAMION	12	20	[0, 0, 0]	n/a	FR1	2	R1094T
2078.289	0.001	2038338	DISTRACT_START	n/a	n/a	n/a	-999	20	[0, 0, 0]	n/a	FR1	2	R1094T
2078.29	0.016	2038339	START	n/a	n/a	n/a	-999	20	[-999, -999, -999]	n/a	FR1	2	R1094T
2078.306	7.385	2038355	PROB	7.385	n/a	n/a	-999	20	[7, 5, 9]	21	FR1	2	R1094T
2085.691	5.617	2045740	PROB	5.617	n/a	n/a	-999	20	[9, 1, 5]	15	FR1	2	R1094T
2091.308	6.618	2051356	PROB	6.618	n/a	n/a	-999	20	[1, 7, 8]	16	FR1	2	R1094T
2097.926	7.366	2057974	PROB	7.366	n/a	n/a	-999	20	[6, 5, 3]	14	FR1	2	R1094T
2105.292	0.019	2065340	STOP	n/a	n/a	n/a	-999	20	[-999, -999, -999]	n/a	FR1	2	R1094T
2105.311	1.051	2065359	DISTRACT_END	n/a	n/a	n/a	-999	20	[0, 0, 0]	n/a	FR1	2	R1094T
2106.362	16.211	2066410	REC_START	n/a	n/a	n/a	-999	20	[0, 0, 0]	n/a	FR1	2	R1094T
2122.573	13.799	2082620	REC_WORD	13.799	n/a	JUGUETE	-999	20	[0, 0, 0]	n/a	FR1	2	R1094T
2136.372	1.612	2096418	REC_END	n/a	n/a	n/a	-999	20	[0, 0, 0]	n/a	FR1	2	R1094T
2137.984	0.0	2098030	COUNTDOWN_START	n/a	n/a	n/a	-999	21	[0, 0, 0]	n/a	FR1	2	R1094T
2137.984	10.428	2098030	TRIAL	n/a	n/a	n/a	-999	21	[0, 0, 0]	n/a	FR1	2	R1094T
2148.412	0.007	2108457	COUNTDOWN_END	n/a	n/a	n/a	-999	21	[0, 0, 0]	n/a	FR1	2	R1094T
2148.419	2.533	2108464	ORIENT	n/a	n/a	n/a	-999	21	[0, 0, 0]	n/a	FR1	2	R1094T
2150.952	2.468	2110997	WORD	n/a	wordpools/wordpool_SP.txt	CRIA	1	21	[0, 0, 0]	n/a	FR1	2	R1094T
2153.42	2.517	2113465	WORD	n/a	wordpools/wordpool_SP.txt	ZANJA	2	21	[0, 0, 0]	n/a	FR1	2	R1094T
2155.937	2.617	2115982	WORD	n/a	wordpools/wordpool_SP.txt	PLAYA	3	21	[0, 0, 0]	n/a	FR1	2	R1094T
2158.554	2.567	2118599	WORD	n/a	wordpools/wordpool_SP.txt	BUHO	4	21	[0, 0, 0]	n/a	FR1	2	R1094T
2161.121	2.417	2121166	WORD	n/a	wordpools/wordpool_SP.txt	MAR	5	21	[0, 0, 0]	n/a	FR1	2	R1094T
2163.538	2.501	2123583	WORD	n/a	wordpools/wordpool_SP.txt	CONCHA	6	21	[0, 0, 0]	n/a	FR1	2	R1094T
2166.039	2.567	2126084	WORD	n/a	wordpools/wordpool_SP.txt	GUISANTE	7	21	[0, 0, 0]	n/a	FR1	2	R1094T
2168.606	2.45	2128650	WORD	n/a	wordpools/wordpool_SP.txt	CABALLO	8	21	[0, 0, 0]	n/a	FR1	2	R1094T
2171.056	2.484	2131100	WORD	n/a	wordpools/wordpool_SP.txt	MEDIA	9	21	[0, 0, 0]	n/a	FR1	2	R1094T
2173.54	2.517	2133584	WORD	n/a	wordpools/wordpool_SP.txt	MULA	10	21	[0, 0, 0]	n/a	FR1	2	R1094T
2176.057	2.417	2136101	WORD	n/a	wordpools/wordpool_SP.txt	MOFETA	11	21	[0, 0, 0]	n/a	FR1	2	R1094T
2178.474	1.617	2138518	WORD	n/a	wordpools/wordpool_SP.txt	BARRO	12	21	[0, 0, 0]	n/a	FR1	2	R1094T
2180.091	0.001	2140135	DISTRACT_START	n/a	n/a	n/a	-999	21	[0, 0, 0]	n/a	FR1	2	R1094T
2180.092	0.016	2140136	START	n/a	n/a	n/a	-999	21	[-999, -999, -999]	n/a	FR1	2	R1094T
2180.108	5.068	2140152	PROB	5.068	n/a	n/a	-999	21	[4, 8, 4]	16	FR1	2	R1094T
2185.176	4.017	2145220	PROB	4.017	n/a	n/a	-999	21	[7, 2, 7]	16	FR1	2	R1094T
2189.193	4.918	2149236	PROB	4.918	n/a	n/a	-999	21	[5, 5, 9]	19	FR1	2	R1094T
2194.111	6.326	2154154	PROB	6.326	n/a	n/a	-999	21	[4, 3, 9]	16	FR1	2	R1094T
2200.437	0.008	2160480	STOP	n/a	n/a	n/a	-999	21	[-999, -999, -999]	n/a	FR1	2	R1094T
2200.445	1.218	2160488	DISTRACT_END	n/a	n/a	n/a	-999	21	[0, 0, 0]	n/a	FR1	2	R1094T
2201.663	30.0	2161706	REC_START	n/a	n/a	n/a	-999	21	[0, 0, 0]	n/a	FR1	2	R1094T
2231.663	0.01	2191704	REC_WORD_VV	0.01	n/a	<>	-999	21	[0, 0, 0]	n/a	FR1	2	R1094T
2231.673	3.262	2191714	REC_END	n/a	n/a	n/a	-999	21	[0, 0, 0]	n/a	FR1	2	R1094T
2234.935	0.0	2194976	TRIAL	n/a	n/a	n/a	-999	22	[0, 0, 0]	n/a	FR1	2	R1094T
2234.935	10.428	2194976	COUNTDOWN_START	n/a	n/a	n/a	-999	22	[0, 0, 0]	n/a	FR1	2	R1094T
2245.363	0.007	2205404	COUNTDOWN_END	n/a	n/a	n/a	-999	22	[0, 0, 0]	n/a	FR1	2	R1094T
2245.37	2.433	2205411	ORIENT	n/a	n/a	n/a	-999	22	[0, 0, 0]	n/a	FR1	2	R1094T
2247.803	2.468	2207844	WORD	n/a	wordpools/wordpool_SP.txt	CUERDA	1	22	[0, 0, 0]	n/a	FR1	2	R1094T
2250.271	2.483	2210311	WORD	n/a	wordpools/wordpool_SP.txt	OVEJA	2	22	[0, 0, 0]	n/a	FR1	2	R1094T
2252.754	2.551	2212794	WORD	n/a	wordpools/wordpool_SP.txt	PELICULA	3	22	[0, 0, 0]	n/a	FR1	2	R1094T
2255.305	2.417	2215345	WORD	n/a	wordpools/wordpool_SP.txt	DIENTE	4	22	[0, 0, 0]	n/a	FR1	2	R1094T
2257.722	2.434	2217762	WORD	n/a	wordpools/wordpool_SP.txt	FUERTE	5	22	[0, 0, 0]	n/a	FR1	2	R1094T
2260.156	2.45	2220196	WORD	n/a	wordpools/wordpool_SP.txt	EFECTIVO	6	22	[0, 0, 0]	n/a	FR1	2	R1094T
2262.606	2.401	2222646	WORD	n/a	wordpools/wordpool_SP.txt	FRIJOL	7	22	[0, 0, 0]	n/a	FR1	2	R1094T
2265.007	2.4	2225047	WORD	n/a	wordpools/wordpool_SP.txt	TIBURON	8	22	[0, 0, 0]	n/a	FR1	2	R1094T
2267.407	2.584	2227447	WORD	n/a	wordpools/wordpool_SP.txt	SAPO	9	22	[0, 0, 0]	n/a	FR1	2	R1094T
2269.991	2.601	2230030	WORD	n/a	wordpools/wordpool_SP.txt	BANCO	10	22	[0, 0, 0]	n/a	FR1	2	R1094T
2272.592	2.5	2232631	WORD	n/a	wordpools/wordpool_SP.txt	LIBRO	11	22	[0, 0, 0]	n/a	FR1	2	R1094T
2275.092	1.617	2235131	WORD	n/a	wordpools/wordpool_SP.txt	DIENTES	12	22	[0, 0, 0]	n/a	FR1	2	R1094T
2276.709	0.001	2236748	DISTRACT_START	n/a	n/a	n/a	-999	22	[0, 0, 0]	n/a	FR1	2	R1094T
2276.71	0.016	2236749	START	n/a	n/a	n/a	-999	22	[-999, -999, -999]	n/a	FR1	2	R1094T
2276.726	7.101	2236765	PROB	7.101	n/a	n/a	-999	22	[9, 7, 5]	21	FR1	2	R1094T
2283.827	7.368	2243866	PROB	7.368	n/a	n/a	-999	22	[6, 5, 7]	18	FR1	2	R1094T
2291.195	8.202	2251233	PROB	8.202	n/a	n/a	-999	22	[7, 5, 6]	18	FR1	2	R1094T
2299.397	0.016	2259435	STOP	n/a	n/a	n/a	-999	22	[-999, -999, -999]	n/a	FR1	2	R1094T
2299.413	1.071	2259451	DISTRACT_END	n/a	n/a	n/a	-999	22	[0, 0, 0]	n/a	FR1	2	R1094T
2300.484	1.37	2260522	REC_START	n/a	n/a	n/a	-999	22	[0, 0, 0]	n/a	FR1	2	R1094T
2301.854	2.594	2261892	REC_WORD	2.594	n/a	OVEJA	-999	22	[0, 0, 0]	n/a	FR1	2	R1094T
2304.448	4.992	2264486	REC_WORD	4.992	n/a	PUENTE	-999	22	[0, 0, 0]	n/a	FR1	2	R1094T
2309.44	6.508	2269478	REC_WORD	6.508	n/a	BALLENA	-999	22	[0, 0, 0]	n/a	FR1	2	R1094T
2315.948	7.359	2275985	REC_WORD	7.359	n/a	DIENTES	-999	22	[0, 0, 0]	n/a	FR1	2	R1094T
2323.307	7.184	2283344	REC_WORD	7.184	n/a	TIBURON	-999	22	[0, 0, 0]	n/a	FR1	2	R1094T
2330.491	1.978	2290528	REC_END	n/a	n/a	n/a	-999	22	[0, 0, 0]	n/a	FR1	2	R1094T
2332.469	0.0	2292505	TRIAL	n/a	n/a	n/a	-999	23	[0, 0, 0]	n/a	FR1	2	R1094T
2332.469	10.428	2292505	COUNTDOWN_START	n/a	n/a	n/a	-999	23	[0, 0, 0]	n/a	FR1	2	R1094T
2342.897	0.007	2302933	COUNTDOWN_END	n/a	n/a	n/a	-999	23	[0, 0, 0]	n/a	FR1	2	R1094T
2342.904	2.567	2302940	ORIENT	n/a	n/a	n/a	-999	23	[0, 0, 0]	n/a	FR1	2	R1094T
2345.471	2.534	2305507	WORD	n/a	wordpools/wordpool_SP.txt	PALO	1	23	[0, 0, 0]	n/a	FR1	2	R1094T
2348.005	2.534	2308041	WORD	n/a	wordpools/wordpool_SP.txt	TAZA	2	23	[0, 0, 0]	n/a	FR1	2	R1094T
2350.539	2.55	2310575	WORD	n/a	wordpools/wordpool_SP.txt	PIE	3	23	[0, 0, 0]	n/a	FR1	2	R1094T
2353.089	2.518	2313124	WORD	n/a	wordpools/wordpool_SP.txt	MEJILLA	4	23	[0, 0, 0]	n/a	FR1	2	R1094T
2355.607	2.5	2315642	WORD	n/a	wordpools/wordpool_SP.txt	TAPETE	5	23	[0, 0, 0]	n/a	FR1	2	R1094T
2358.107	2.451	2318142	WORD	n/a	wordpools/wordpool_SP.txt	PUERTA	6	23	[0, 0, 0]	n/a	FR1	2	R1094T
2360.558	2.617	2320593	WORD	n/a	wordpools/wordpool_SP.txt	PULGAR	7	23	[0, 0, 0]	n/a	FR1	2	R1094T
2363.175	2.517	2323210	WORD	n/a	wordpools/wordpool_SP.txt	ANGUILA	8	23	[0, 0, 0]	n/a	FR1	2	R1094T
2365.692	2.467	2325727	WORD	n/a	wordpools/wordpool_SP.txt	MENTON	9	23	[0, 0, 0]	n/a	FR1	2	R1094T
2368.159	2.534	2328194	WORD	n/a	wordpools/wordpool_SP.txt	LABIO	10	23	[0, 0, 0]	n/a	FR1	2	R1094T
2370.693	2.467	2330728	WORD	n/a	wordpools/wordpool_SP.txt	SIGNO	11	23	[0, 0, 0]	n/a	FR1	2	R1094T
2373.16	1.617	2333194	WORD	n/a	wordpools/wordpool_SP.txt	CAMA	12	23	[0, 0, 0]	n/a	FR1	2	R1094T
2374.777	0.001	2334811	DISTRACT_START	n/a	n/a	n/a	-999	23	[0, 0, 0]	n/a	FR1	2	R1094T
2374.778	0.015	2334812	START	n/a	n/a	n/a	-999	23	[-999, -999, -999]	n/a	FR1	2	R1094T
2374.793	4.685	2334827	PROB	4.685	n/a	n/a	-999	23	[7, 7, 3]	17	FR1	2	R1094T
2379.478	5.751	2339512	PROB	5.751	n/a	n/a	-999	23	[9, 1, 6]	15	FR1	2	R1094T
2385.229	6.518	2345263	PROB	6.518	n/a	n/a	-999	23	[5, 4, 6]	15	FR1	2	R1094T
2391.747	6.354	2351780	PROB	6.354	n/a	n/a	-999	23	[4, 6, 7]	17	FR1	2	R1094T
2398.101	0.013	2358134	STOP	n/a	n/a	n/a	-999	23	[-999, -999, -999]	n/a	FR1	2	R1094T
2398.114	1.202	2358147	DISTRACT_END	n/a	n/a	n/a	-999	23	[0, 0, 0]	n/a	FR1	2	R1094T
2399.316	3.041	2359349	REC_START	n/a	n/a	n/a	-999	23	[0, 0, 0]	n/a	FR1	2	R1094T
2402.357	4.267	2362390	REC_WORD	4.267	n/a	SAPO	-999	23	[0, 0, 0]	n/a	FR1	2	R1094T
2406.624	4.19	2366657	REC_WORD	4.19	n/a	MULA	-999	23	[0, 0, 0]	n/a	FR1	2	R1094T
2410.814	15.535	2370847	REC_WORD	15.535	n/a	PARED	-999	23	[0, 0, 0]	n/a	FR1	2	R1094T
2426.349	2.977	2386381	REC_WORD	2.977	n/a	TAZA	-999	23	[0, 0, 0]	n/a	FR1	2	R1094T
2429.326	1.578	2389358	REC_END	n/a	n/a	n/a	-999	23	[0, 0, 0]	n/a	FR1	2	R1094T
2430.904	0.0	2390936	TRIAL	n/a	n/a	n/a	-999	24	[0, 0, 0]	n/a	FR1	2	R1094T
2430.904	10.428	2390936	COUNTDOWN_START	n/a	n/a	n/a	-999	24	[0, 0, 0]	n/a	FR1	2	R1094T
2441.332	0.007	2401363	COUNTDOWN_END	n/a	n/a	n/a	-999	24	[0, 0, 0]	n/a	FR1	2	R1094T
2441.339	2.617	2401370	ORIENT	n/a	n/a	n/a	-999	24	[0, 0, 0]	n/a	FR1	2	R1094T
2443.956	2.534	2403987	WORD	n/a	wordpools/wordpool_SP.txt	CALLE	1	24	[0, 0, 0]	n/a	FR1	2	R1094T
2446.49	2.467	2406521	WORD	n/a	wordpools/wordpool_SP.txt	PARQUE	2	24	[0, 0, 0]	n/a	FR1	2	R1094T
2448.957	2.55	2408988	WORD	n/a	wordpools/wordpool_SP.txt	PAYASO	3	24	[0, 0, 0]	n/a	FR1	2	R1094T
2451.507	2.501	2411538	WORD	n/a	wordpools/wordpool_SP.txt	ARBOL	4	24	[0, 0, 0]	n/a	FR1	2	R1094T
2454.008	2.534	2414038	WORD	n/a	wordpools/wordpool_SP.txt	FLORECER	5	24	[0, 0, 0]	n/a	FR1	2	R1094T
2456.542	2.467	2416572	WORD	n/a	wordpools/wordpool_SP.txt	JARRON	6	24	[0, 0, 0]	n/a	FR1	2	R1094T
2459.009	2.4	2419039	WORD	n/a	wordpools/wordpool_SP.txt	COLINA	7	24	[0, 0, 0]	n/a	FR1	2	R1094T
2461.409	2.401	2421439	WORD	n/a	wordpools/wordpool_SP.txt	TARTA	8	24	[0, 0, 0]	n/a	FR1	2	R1094T
2463.81	2.4	2423840	WORD	n/a	wordpools/wordpool_SP.txt	ABEJA	9	24	[0, 0, 0]	n/a	FR1	2	R1094T
2466.21	2.384	2426240	WORD	n/a	wordpools/wordpool_SP.txt	JUGO	10	24	[0, 0, 0]	n/a	FR1	2	R1094T
2468.594	2.617	2428624	WORD	n/a	wordpools/wordpool_SP.txt	ELFO	11	24	[0, 0, 0]	n/a	FR1	2	R1094T
2471.211	1.617	2431241	WORD	n/a	wordpools/wordpool_SP.txt	PAN	12	24	[0, 0, 0]	n/a	FR1	2	R1094T
2472.828	0.001	2432857	DISTRACT_START	n/a	n/a	n/a	-999	24	[0, 0, 0]	n/a	FR1	2	R1094T
2472.829	0.016	2432858	START	n/a	n/a	n/a	-999	24	[-999, -999, -999]	n/a	FR1	2	R1094T
2472.845	7.251	2432874	PROB	7.251	n/a	n/a	-999	24	[4, 7, 8]	19	FR1	2	R1094T
2480.096	5.884	2440125	PROB	5.884	n/a	n/a	-999	24	[7, 6, 3]	15	FR1	2	R1094T
2485.98	4.684	2446009	PROB	4.684	n/a	n/a	-999	24	[1, 2, 1]	4	FR1	2	R1094T
2490.664	5.757	2450693	PROB	5.757	n/a	n/a	-999	24	[5, 4, 7]	16	FR1	2	R1094T
2496.421	0.011	2456449	STOP	n/a	n/a	n/a	-999	24	[-999, -999, -999]	n/a	FR1	2	R1094T
2496.432	1.2	2456460	DISTRACT_END	n/a	n/a	n/a	-999	24	[0, 0, 0]	n/a	FR1	2	R1094T
2497.632	1.045	2457660	REC_START	n/a	n/a	n/a	-999	24	[0, 0, 0]	n/a	FR1	2	R1094T
2498.677	7.655	2458705	REC_WORD	7.655	n/a	ABEJA	-999	24	[0, 0, 0]	n/a	FR1	2	R1094T
2506.332	3.131	2466360	REC_WORD	3.131	n/a	ANGUILA	-999	24	[0, 0, 0]	n/a	FR1	2	R1094T
2509.463	4.784	2469491	REC_WORD	4.784	n/a	BANCO	-999	24	[0, 0, 0]	n/a	FR1	2	R1094T
2514.247	9.097	2474274	REC_WORD	9.097	n/a	GUISANTE	-999	24	[0, 0, 0]	n/a	FR1	2	R1094T
2523.344	4.299	2483371	REC_WORD	4.299	n/a	PUERTA	-999	24	[0, 0, 0]	n/a	FR1	2	R1094T
2527.643	1.795	2487670	REC_END	n/a	n/a	n/a	-999	24	[0, 0, 0]	n/a	FR1	2	R1094T
2529.438	0.001	2489465	COUNTDOWN_START	n/a	n/a	n/a	-999	25	[0, 0, 0]	n/a	FR1	2	R1094T
2529.439	10.427	2489466	TRIAL	n/a	n/a	n/a	-999	25	[0, 0, 0]	n/a	FR1	2	R1094T
2539.866	0.007	2499892	COUNTDOWN_END	n/a	n/a	n/a	-999	25	[0, 0, 0]	n/a	FR1	2	R1094T
2539.873	2.434	2499899	ORIENT	n/a	n/a	n/a	-999	25	[0, 0, 0]	n/a	FR1	2	R1094T
2542.307	2.534	2502333	WORD	n/a	wordpools/wordpool_SP.txt	SOGA	1	25	[0, 0, 0]	n/a	FR1	2	R1094T
2544.841	2.617	2504867	WORD	n/a	wordpools/wordpool_SP.txt	RED	2	25	[0, 0, 0]	n/a	FR1	2	R1094T
2547.458	2.401	2507484	WORD	n/a	wordpools/wordpool_SP.txt	DULCE	3	25	[0, 0, 0]	n/a	FR1	2	R1094T
2549.859	2.417	2509885	WORD	n/a	wordpools/wordpool_SP.txt	ZORRO	4	25	[0, 0, 0]	n/a	FR1	2	R1094T
2552.276	2.5	2512302	WORD	n/a	wordpools/wordpool_SP.txt	SOL	5	25	[0, 0, 0]	n/a	FR1	2	R1094T
2554.776	2.467	2514801	WORD	n/a	wordpools/wordpool_SP.txt	SOPA	6	25	[0, 0, 0]	n/a	FR1	2	R1094T
2557.243	2.568	2517268	WORD	n/a	wordpools/wordpool_SP.txt	VID	7	25	[0, 0, 0]	n/a	FR1	2	R1094T
2559.811	2.467	2519836	WORD	n/a	wordpools/wordpool_SP.txt	CIELO	8	25	[0, 0, 0]	n/a	FR1	2	R1094T
2562.278	2.533	2522303	WORD	n/a	wordpools/wordpool_SP.txt	FRUTA	9	25	[0, 0, 0]	n/a	FR1	2	R1094T
2564.811	2.384	2524836	WORD	n/a	wordpools/wordpool_SP.txt	RAMA	10	25	[0, 0, 0]	n/a	FR1	2	R1094T
2567.195	2.384	2527220	WORD	n/a	wordpools/wordpool_SP.txt	TORMENTA	11	25	[0, 0, 0]	n/a	FR1	2	R1094T
2569.579	1.617	2529604	WORD	n/a	wordpools/wordpool_SP.txt	BOTE	12	25	[0, 0, 0]	n/a	FR1	2	R1094T
2571.196	0.001	2531221	DISTRACT_START	n/a	n/a	n/a	-999	25	[0, 0, 0]	n/a	FR1	2	R1094T
2571.197	0.015	2531222	START	n/a	n/a	n/a	-999	25	[-999, -999, -999]	n/a	FR1	2	R1094T
2571.212	6.018	2531237	PROB	6.018	n/a	n/a	-999	25	[4, 6, 4]	18	FR1	2	R1094T
2577.23	7.002	2537254	PROB	7.002	n/a	n/a	-999	25	[9, 5, 7]	21	FR1	2	R1094T
2584.232	7.836	2544256	PROB	7.836	n/a	n/a	-999	25	[4, 6, 4]	12	FR1	2	R1094T
2592.068	0.015	2552092	STOP	n/a	n/a	n/a	-999	25	[-999, -999, -999]	n/a	FR1	2	R1094T
2592.083	1.218	2552107	DISTRACT_END	n/a	n/a	n/a	-999	25	[0, 0, 0]	n/a	FR1	2	R1094T
2593.301	8.323	2553325	REC_START	n/a	n/a	n/a	-999	25	[0, 0, 0]	n/a	FR1	2	R1094T
2601.624	12.627	2561647	REC_WORD	12.627	n/a	JARRON	-999	25	[0, 0, 0]	n/a	FR1	2	R1094T
2614.251	9.06	2574274	REC_WORD	9.06	n/a	VENADO	-999	25	[0, 0, 0]	n/a	FR1	2	R1094T
2623.311	14.181	2583333	REC_END	n/a	n/a	n/a	-999	25	[0, 0, 0]	n/a	FR1	2	R1094T
2637.492	0.0	2597513	SESS_END	n/a	n/a	n/a	-999	25	[0, 0, 0]	n/a	FR1	2	R1094T
