onset	duration	sample	trial_type	response_time	stim_file	item_name	serialpos	list	test	answer	experiment	session	subject
0.0	459.556	183	INSTRUCT_START	n/a	n/a	n/a	-999	-999	[0, 0, 0]	n/a	FR1	0	R1324M
459.556	2.284	459719	INSTRUCT_END	n/a	n/a	n/a	-999	-999	[0, 0, 0]	n/a	FR1	0	R1324M
461.84	6.399	462003	MIC TEST_START	n/a	n/a	n/a	-999	-999	[0, 0, 0]	n/a	FR1	0	R1324M
468.239	0.011	468401	MIC TEST_END	n/a	n/a	n/a	-999	-999	[0, 0, 0]	n/a	FR1	0	R1324M
468.25	0.0	468412	TRIAL_START	n/a	n/a	n/a	-999	-1	[0, 0, 0]	n/a	FR1	0	R1324M
468.25	0.0	468412	TRIAL	n/a	n/a	n/a	-999	-1	[0, 0, 0]	n/a	FR1	0	R1324M
468.25	13.193	468412	WAITING_START	n/a	n/a	n/a	-999	-1	[0, 0, 0]	n/a	FR1	0	R1324M
481.443	0.0	481605	WAITING_END	n/a	n/a	n/a	-999	-1	[0, 0, 0]	n/a	FR1	0	R1324M
481.443	10.429	481605	COUNTDOWN_START	n/a	n/a	n/a	-999	-1	[0, 0, 0]	n/a	FR1	0	R1324M
491.872	0.001	492033	COUNTDOWN_END	n/a	n/a	n/a	-999	-1	[0, 0, 0]	n/a	FR1	0	R1324M
491.873	1.123	492034	ORIENT_START	n/a	n/a	n/a	-999	-1	[0, 0, 0]	n/a	FR1	0	R1324M
492.996	0.0	493157	ORIENT_END	n/a	n/a	n/a	-999	-1	[0, 0, 0]	n/a	FR1	0	R1324M
492.996	0.892	493157	ENCODING_START	n/a	n/a	n/a	-999	-1	[0, 0, 0]	n/a	FR1	0	R1324M
493.888	1.625	494049	WORD	n/a	n/a	CHEST	1	-1	[0, 0, 0]	n/a	FR1	0	R1324M
495.513	1.077	495674	WORD_OFF	n/a	n/a	CHEST	1	-1	[0, 0, 0]	n/a	FR1	0	R1324M
496.59	1.622	496751	WORD	n/a	n/a	BEAM	2	-1	[0, 0, 0]	n/a	FR1	0	R1324M
498.212	1.081	498373	WORD_OFF	n/a	n/a	BEAM	2	-1	[0, 0, 0]	n/a	FR1	0	R1324M
499.293	1.637	499454	WORD	n/a	n/a	WATCH	3	-1	[0, 0, 0]	n/a	FR1	0	R1324M
500.93	1.077	501091	WORD_OFF	n/a	n/a	WATCH	3	-1	[0, 0, 0]	n/a	FR1	0	R1324M
502.007	1.624	502168	WORD	n/a	n/a	CAMEL	4	-1	[0, 0, 0]	n/a	FR1	0	R1324M
503.631	0.882	503792	WORD_OFF	n/a	n/a	CAMEL	4	-1	[0, 0, 0]	n/a	FR1	0	R1324M
504.513	1.634	504674	WORD	n/a	n/a	WAGON	5	-1	[0, 0, 0]	n/a	FR1	0	R1324M
506.147	0.874	506308	WORD_OFF	n/a	n/a	WAGON	5	-1	[0, 0, 0]	n/a	FR1	0	R1324M
507.021	1.628	507182	WORD	n/a	n/a	IMAGE	6	-1	[0, 0, 0]	n/a	FR1	0	R1324M
508.649	0.996	508810	WORD_OFF	n/a	n/a	IMAGE	6	-1	[0, 0, 0]	n/a	FR1	0	R1324M
509.645	1.637	509806	WORD	n/a	n/a	FLOOD	7	-1	[0, 0, 0]	n/a	FR1	0	R1324M
511.282	1.062	511443	WORD_OFF	n/a	n/a	FLOOD	7	-1	[0, 0, 0]	n/a	FR1	0	R1324M
512.344	1.622	512505	WORD	n/a	n/a	COTTON	8	-1	[0, 0, 0]	n/a	FR1	0	R1324M
513.966	1.124	514126	WORD_OFF	n/a	n/a	COTTON	8	-1	[0, 0, 0]	n/a	FR1	0	R1324M
515.09	1.627	515250	WORD	n/a	n/a	RHINO	9	-1	[0, 0, 0]	n/a	FR1	0	R1324M
516.717	0.831	516877	WORD_OFF	n/a	n/a	RHINO	9	-1	[0, 0, 0]	n/a	FR1	0	R1324M
517.548	1.635	517708	WORD	n/a	n/a	TONGUE	10	-1	[0, 0, 0]	n/a	FR1	0	R1324M
519.183	0.794	519343	WORD_OFF	n/a	n/a	TONGUE	10	-1	[0, 0, 0]	n/a	FR1	0	R1324M
519.977	1.624	520137	WORD	n/a	n/a	RING	11	-1	[0, 0, 0]	n/a	FR1	0	R1324M
521.601	1.019	521761	WORD_OFF	n/a	n/a	RING	11	-1	[0, 0, 0]	n/a	FR1	0	R1324M
522.62	1.631	522780	WORD	n/a	n/a	BABY	12	-1	[0, 0, 0]	n/a	FR1	0	R1324M
524.251	0.0	524411	WORD_OFF	n/a	n/a	BABY	12	-1	[0, 0, 0]	n/a	FR1	0	R1324M
524.251	0.0	524411	ENCODING_END	n/a	n/a	n/a	-999	-1	[0, 0, 0]	n/a	FR1	0	R1324M
524.251	0.001	524411	DISTRACT_START	n/a	n/a	n/a	-999	-1	[0, 0, 0]	n/a	FR1	0	R1324M
524.252	0.015	524412	START	n/a	n/a	n/a	-999	-1	[-999, -999, -999]	n/a	FR1	0	R1324M
524.267	18.22	524427	PROB	18.22	n/a	n/a	-999	-1	[1, 1, 4]	6	FR1	0	R1324M
542.487	16.702	542646	PROB	16.702	n/a	n/a	-999	-1	[1, 2, 4]	7	FR1	0	R1324M
559.189	0.018	559348	STOP	n/a	n/a	n/a	-999	-1	[-999, -999, -999]	n/a	FR1	0	R1324M
559.207	0.613	559366	DISTRACT_END	n/a	n/a	n/a	-999	-1	[0, 0, 0]	n/a	FR1	0	R1324M
559.82	1.571	559979	RETRIEVAL_ORIENT_START	n/a	n/a	n/a	-999	-1	[0, 0, 0]	n/a	FR1	0	R1324M
561.391	0.0	561549	RETRIEVAL_ORIENT_END	n/a	n/a	n/a	-999	-1	[0, 0, 0]	n/a	FR1	0	R1324M
561.391	19.828	561549	REC_START	n/a	n/a	n/a	-999	-1	[0, 0, 0]	n/a	FR1	0	R1324M
581.219	1.638	581377	REC_WORD	1.638	n/a	RING	-999	-1	[0, 0, 0]	n/a	FR1	0	R1324M
582.857	8.547	583015	REC_WORD	8.547	n/a	BABY	-999	-1	[0, 0, 0]	n/a	FR1	0	R1324M
591.404	0.0	591561	REC_END	n/a	n/a	n/a	-999	-1	[0, 0, 0]	n/a	FR1	0	R1324M
591.404	66.274	591561	PRACTICE_POST_INSTRUCT_START	n/a	n/a	n/a	-999	-1	[0, 0, 0]	n/a	FR1	0	R1324M
657.678	0.0	657832	PRACTICE_POST_INSTRUCT_END	n/a	n/a	n/a	-999	-1	[0, 0, 0]	n/a	FR1	0	R1324M
657.678	0.016	657832	TRIAL_END	n/a	n/a	n/a	-999	-1	[0, 0, 0]	n/a	FR1	0	R1324M
657.694	0.0	657848	TRIAL_START	n/a	n/a	n/a	-999	1	[0, 0, 0]	n/a	FR1	0	R1324M
657.694	0.0	657848	TRIAL	n/a	n/a	n/a	-999	1	[0, 0, 0]	n/a	FR1	0	R1324M
657.694	3.268	657848	WAITING_START	n/a	n/a	n/a	-999	1	[0, 0, 0]	n/a	FR1	0	R1324M
660.962	0.0	661116	WAITING_END	n/a	n/a	n/a	-999	1	[0, 0, 0]	n/a	FR1	0	R1324M
660.962	10.429	661116	COUNTDOWN_START	n/a	n/a	n/a	-999	1	[0, 0, 0]	n/a	FR1	0	R1324M
671.391	0.0	671545	ORIENT_START	n/a	n/a	n/a	-999	1	[0, 0, 0]	n/a	FR1	0	R1324M
671.391	1.105	671545	COUNTDOWN_END	n/a	n/a	n/a	-999	1	[0, 0, 0]	n/a	FR1	0	R1324M
672.496	0.001	672650	ORIENT_END	n/a	n/a	n/a	-999	1	[0, 0, 0]	n/a	FR1	0	R1324M
672.497	0.759	672651	ENCODING_START	n/a	n/a	n/a	-999	1	[0, 0, 0]	n/a	FR1	0	R1324M
673.256	1.625	673410	WORD	n/a	n/a	HOOK	1	1	[0, 0, 0]	n/a	FR1	0	R1324M
674.881	0.995	675035	WORD_OFF	n/a	n/a	HOOK	1	1	[0, 0, 0]	n/a	FR1	0	R1324M
675.876	1.621	676029	WORD	n/a	n/a	KITE	2	1	[0, 0, 0]	n/a	FR1	0	R1324M
677.497	0.813	677650	WORD_OFF	n/a	n/a	KITE	2	1	[0, 0, 0]	n/a	FR1	0	R1324M
678.31	1.605	678463	WORD	n/a	n/a	DEER	3	1	[0, 0, 0]	n/a	FR1	0	R1324M
679.915	0.889	680068	WORD_OFF	n/a	n/a	DEER	3	1	[0, 0, 0]	n/a	FR1	0	R1324M
680.804	1.627	680957	WORD	n/a	n/a	STAIR	4	1	[0, 0, 0]	n/a	FR1	0	R1324M
682.431	0.809	682584	WORD_OFF	n/a	n/a	STAIR	4	1	[0, 0, 0]	n/a	FR1	0	R1324M
683.24	1.626	683393	WORD	n/a	n/a	EGG	5	1	[0, 0, 0]	n/a	FR1	0	R1324M
684.866	1.093	685019	WORD_OFF	n/a	n/a	EGG	5	1	[0, 0, 0]	n/a	FR1	0	R1324M
685.959	1.624	686112	WORD	n/a	n/a	FORK	6	1	[0, 0, 0]	n/a	FR1	0	R1324M
687.583	0.862	687736	WORD_OFF	n/a	n/a	FORK	6	1	[0, 0, 0]	n/a	FR1	0	R1324M
688.445	1.639	688598	WORD	n/a	n/a	PRINCE	7	1	[0, 0, 0]	n/a	FR1	0	R1324M
690.084	0.785	690237	WORD_OFF	n/a	n/a	PRINCE	7	1	[0, 0, 0]	n/a	FR1	0	R1324M
690.869	1.632	691022	WORD	n/a	n/a	SKUNK	8	1	[0, 0, 0]	n/a	FR1	0	R1324M
692.501	0.944	692654	WORD_OFF	n/a	n/a	SKUNK	8	1	[0, 0, 0]	n/a	FR1	0	R1324M
693.445	1.606	693598	WORD	n/a	n/a	CORN	9	1	[0, 0, 0]	n/a	FR1	0	R1324M
695.051	1.06	695204	WORD_OFF	n/a	n/a	CORN	9	1	[0, 0, 0]	n/a	FR1	0	R1324M
696.111	1.624	696264	WORD	n/a	n/a	HOUSE	10	1	[0, 0, 0]	n/a	FR1	0	R1324M
697.735	0.877	697888	WORD_OFF	n/a	n/a	HOUSE	10	1	[0, 0, 0]	n/a	FR1	0	R1324M
698.612	1.623	698764	WORD	n/a	n/a	RAKE	11	1	[0, 0, 0]	n/a	FR1	0	R1324M
700.235	0.999	700387	WORD_OFF	n/a	n/a	RAKE	11	1	[0, 0, 0]	n/a	FR1	0	R1324M
701.234	1.619	701386	WORD	n/a	n/a	JAIL	12	1	[0, 0, 0]	n/a	FR1	0	R1324M
702.853	0.0	703005	WORD_OFF	n/a	n/a	JAIL	12	1	[0, 0, 0]	n/a	FR1	0	R1324M
702.853	0.0	703005	ENCODING_END	n/a	n/a	n/a	-999	1	[0, 0, 0]	n/a	FR1	0	R1324M
702.853	0.0	703005	DISTRACT_START	n/a	n/a	n/a	-999	1	[0, 0, 0]	n/a	FR1	0	R1324M
702.853	0.016	703005	START	n/a	n/a	n/a	-999	1	[-999, -999, -999]	n/a	FR1	0	R1324M
702.869	14.485	703021	PROB	14.485	n/a	n/a	-999	1	[5, 9, 1]	20	FR1	0	R1324M
717.354	22.444	717506	PROB	22.444	n/a	n/a	-999	1	[6, 6, 4]	19	FR1	0	R1324M
739.798	0.012	739949	STOP	n/a	n/a	n/a	-999	1	[-999, -999, -999]	n/a	FR1	0	R1324M
739.81	0.686	739961	DISTRACT_END	n/a	n/a	n/a	-999	1	[0, 0, 0]	n/a	FR1	0	R1324M
740.496	1.598	740647	RETRIEVAL_ORIENT_START	n/a	n/a	n/a	-999	1	[0, 0, 0]	n/a	FR1	0	R1324M
742.094	0.0	742245	RETRIEVAL_ORIENT_END	n/a	n/a	n/a	-999	1	[0, 0, 0]	n/a	FR1	0	R1324M
742.094	22.175	742245	REC_START	n/a	n/a	n/a	-999	1	[0, 0, 0]	n/a	FR1	0	R1324M
764.269	7.837	764419	REC_WORD_VV	7.837	n/a	<>	-999	1	[0, 0, 0]	n/a	FR1	0	R1324M
772.106	0.0	772255	REC_END	n/a	n/a	n/a	-999	1	[0, 0, 0]	n/a	FR1	0	R1324M
772.106	0.016	772255	TRIAL_END	n/a	n/a	n/a	-999	1	[0, 0, 0]	n/a	FR1	0	R1324M
772.122	0.0	772271	TRIAL_START	n/a	n/a	n/a	-999	2	[0, 0, 0]	n/a	FR1	0	R1324M
772.122	0.001	772271	TRIAL	n/a	n/a	n/a	-999	2	[0, 0, 0]	n/a	FR1	0	R1324M
772.123	54.554	772272	WAITING_START	n/a	n/a	n/a	-999	2	[0, 0, 0]	n/a	FR1	0	R1324M
826.677	0.0	826824	WAITING_END	n/a	n/a	n/a	-999	2	[0, 0, 0]	n/a	FR1	0	R1324M
826.677	10.428	826824	COUNTDOWN_START	n/a	n/a	n/a	-999	2	[0, 0, 0]	n/a	FR1	0	R1324M
837.105	0.001	837251	COUNTDOWN_END	n/a	n/a	n/a	-999	2	[0, 0, 0]	n/a	FR1	0	R1324M
837.106	1.105	837252	ORIENT_START	n/a	n/a	n/a	-999	2	[0, 0, 0]	n/a	FR1	0	R1324M
838.211	0.001	838357	ORIENT_END	n/a	n/a	n/a	-999	2	[0, 0, 0]	n/a	FR1	0	R1324M
838.212	0.829	838358	ENCODING_START	n/a	n/a	n/a	-999	2	[0, 0, 0]	n/a	FR1	0	R1324M
839.041	1.638	839187	WORD	n/a	n/a	FORT	1	2	[0, 0, 0]	n/a	FR1	0	R1324M
840.679	1.028	840825	WORD_OFF	n/a	n/a	FORT	1	2	[0, 0, 0]	n/a	FR1	0	R1324M
841.707	1.622	841853	WORD	n/a	n/a	CLOUD	2	2	[0, 0, 0]	n/a	FR1	0	R1324M
843.329	0.998	843475	WORD_OFF	n/a	n/a	CLOUD	2	2	[0, 0, 0]	n/a	FR1	0	R1324M
844.327	1.637	844473	WORD	n/a	n/a	RAIN	3	2	[0, 0, 0]	n/a	FR1	0	R1324M
845.964	0.857	846110	WORD_OFF	n/a	n/a	RAIN	3	2	[0, 0, 0]	n/a	FR1	0	R1324M
846.821	1.626	846967	WORD	n/a	n/a	TOE	4	2	[0, 0, 0]	n/a	FR1	0	R1324M
848.447	1.144	848593	WORD_OFF	n/a	n/a	TOE	4	2	[0, 0, 0]	n/a	FR1	0	R1324M
849.591	1.623	849737	WORD	n/a	n/a	BAND	5	2	[0, 0, 0]	n/a	FR1	0	R1324M
851.214	1.121	851360	WORD_OFF	n/a	n/a	BAND	5	2	[0, 0, 0]	n/a	FR1	0	R1324M
852.335	1.63	852481	WORD	n/a	n/a	DART	6	2	[0, 0, 0]	n/a	FR1	0	R1324M
853.965	0.938	854111	WORD_OFF	n/a	n/a	DART	6	2	[0, 0, 0]	n/a	FR1	0	R1324M
854.903	1.63	855049	WORD	n/a	n/a	ZOO	7	2	[0, 0, 0]	n/a	FR1	0	R1324M
856.533	1.099	856679	WORD_OFF	n/a	n/a	ZOO	7	2	[0, 0, 0]	n/a	FR1	0	R1324M
857.632	1.633	857778	WORD	n/a	n/a	VASE	8	2	[0, 0, 0]	n/a	FR1	0	R1324M
859.265	1.011	859410	WORD_OFF	n/a	n/a	VASE	8	2	[0, 0, 0]	n/a	FR1	0	R1324M
860.276	1.607	860421	WORD	n/a	n/a	HOSE	9	2	[0, 0, 0]	n/a	FR1	0	R1324M
861.883	0.914	862028	WORD_OFF	n/a	n/a	HOSE	9	2	[0, 0, 0]	n/a	FR1	0	R1324M
862.797	1.636	862942	WORD	n/a	n/a	BATH	10	2	[0, 0, 0]	n/a	FR1	0	R1324M
864.433	0.98	864578	WORD_OFF	n/a	n/a	BATH	10	2	[0, 0, 0]	n/a	FR1	0	R1324M
865.413	1.638	865558	WORD	n/a	n/a	FLAG	11	2	[0, 0, 0]	n/a	FR1	0	R1324M
867.051	0.766	867196	WORD_OFF	n/a	n/a	FLAG	11	2	[0, 0, 0]	n/a	FR1	0	R1324M
867.817	1.634	867962	WORD	n/a	n/a	SPONGE	12	2	[0, 0, 0]	n/a	FR1	0	R1324M
869.451	0.0	869596	WORD_OFF	n/a	n/a	SPONGE	12	2	[0, 0, 0]	n/a	FR1	0	R1324M
869.451	0.0	869596	ENCODING_END	n/a	n/a	n/a	-999	2	[0, 0, 0]	n/a	FR1	0	R1324M
869.451	0.0	869596	DISTRACT_START	n/a	n/a	n/a	-999	2	[0, 0, 0]	n/a	FR1	0	R1324M
869.451	0.016	869596	START	n/a	n/a	n/a	-999	2	[-999, -999, -999]	n/a	FR1	0	R1324M
869.467	13.986	869612	PROB	13.986	n/a	n/a	-999	2	[2, 6, 1]	9	FR1	0	R1324M
883.453	39.972	883597	PROB	39.972	n/a	n/a	-999	2	[5, 4, 9]	18	FR1	0	R1324M
923.425	0.019	923568	STOP	n/a	n/a	n/a	-999	2	[-999, -999, -999]	n/a	FR1	0	R1324M
923.444	0.63	923587	DISTRACT_END	n/a	n/a	n/a	-999	2	[0, 0, 0]	n/a	FR1	0	R1324M
924.074	1.588	924217	RETRIEVAL_ORIENT_START	n/a	n/a	n/a	-999	2	[0, 0, 0]	n/a	FR1	0	R1324M
925.662	0.001	925805	RETRIEVAL_ORIENT_END	n/a	n/a	n/a	-999	2	[0, 0, 0]	n/a	FR1	0	R1324M
925.663	10.981	925806	REC_START	n/a	n/a	n/a	-999	2	[0, 0, 0]	n/a	FR1	0	R1324M
936.644	1.752	936786	REC_WORD	1.752	n/a	SPONGE	12	2	[0, 0, 0]	n/a	FR1	0	R1324M
938.396	3.297	938538	REC_WORD	3.297	n/a	FORK	-999	2	[0, 0, 0]	n/a	FR1	0	R1324M
941.693	13.982	941835	REC_WORD	13.982	n/a	FORT	1	2	[0, 0, 0]	n/a	FR1	0	R1324M
955.675	0.0	955816	TRIAL_END	n/a	n/a	n/a	-999	2	[0, 0, 0]	n/a	FR1	0	R1324M
955.675	0.016	955816	REC_END	n/a	n/a	n/a	-999	2	[0, 0, 0]	n/a	FR1	0	R1324M
955.691	0.0	955832	TRIAL_START	n/a	n/a	n/a	-999	3	[0, 0, 0]	n/a	FR1	0	R1324M
955.691	0.0	955832	TRIAL	n/a	n/a	n/a	-999	3	[0, 0, 0]	n/a	FR1	0	R1324M
955.691	50.703	955832	WAITING_START	n/a	n/a	n/a	-999	3	[0, 0, 0]	n/a	FR1	0	R1324M
1006.394	0.0	1006533	WAITING_END	n/a	n/a	n/a	-999	3	[0, 0, 0]	n/a	FR1	0	R1324M
1006.394	10.429	1006533	COUNTDOWN_START	n/a	n/a	n/a	-999	3	[0, 0, 0]	n/a	FR1	0	R1324M
1016.823	0.0	1016962	COUNTDOWN_END	n/a	n/a	n/a	-999	3	[0, 0, 0]	n/a	FR1	0	R1324M
1016.823	1.257	1016962	ORIENT_START	n/a	n/a	n/a	-999	3	[0, 0, 0]	n/a	FR1	0	R1324M
1018.08	0.001	1018219	ORIENT_END	n/a	n/a	n/a	-999	3	[0, 0, 0]	n/a	FR1	0	R1324M
1018.081	0.781	1018220	ENCODING_START	n/a	n/a	n/a	-999	3	[0, 0, 0]	n/a	FR1	0	R1324M
1018.862	1.634	1019001	WORD	n/a	n/a	FOOT	1	3	[0, 0, 0]	n/a	FR1	0	R1324M
1020.496	0.959	1020634	WORD_OFF	n/a	n/a	FOOT	1	3	[0, 0, 0]	n/a	FR1	0	R1324M
1021.455	1.626	1021593	WORD	n/a	n/a	AXE	2	3	[0, 0, 0]	n/a	FR1	0	R1324M
1023.081	1.079	1023219	WORD_OFF	n/a	n/a	AXE	2	3	[0, 0, 0]	n/a	FR1	0	R1324M
1024.16	1.638	1024298	WORD	n/a	n/a	ARM	3	3	[0, 0, 0]	n/a	FR1	0	R1324M
1025.798	0.909	1025936	WORD_OFF	n/a	n/a	ARM	3	3	[0, 0, 0]	n/a	FR1	0	R1324M
1026.707	1.624	1026845	WORD	n/a	n/a	FOX	4	3	[0, 0, 0]	n/a	FR1	0	R1324M
1028.331	1.004	1028469	WORD_OFF	n/a	n/a	FOX	4	3	[0, 0, 0]	n/a	FR1	0	R1324M
1029.335	1.614	1029473	WORD	n/a	n/a	CHAIR	5	3	[0, 0, 0]	n/a	FR1	0	R1324M
1030.949	0.964	1031087	WORD_OFF	n/a	n/a	CHAIR	5	3	[0, 0, 0]	n/a	FR1	0	R1324M
1031.913	1.637	1032051	WORD	n/a	n/a	SOAP	6	3	[0, 0, 0]	n/a	FR1	0	R1324M
1033.55	1.101	1033688	WORD_OFF	n/a	n/a	SOAP	6	3	[0, 0, 0]	n/a	FR1	0	R1324M
1034.651	1.632	1034789	WORD	n/a	n/a	MOTH	7	3	[0, 0, 0]	n/a	FR1	0	R1324M
1036.283	0.916	1036421	WORD_OFF	n/a	n/a	MOTH	7	3	[0, 0, 0]	n/a	FR1	0	R1324M
1037.199	1.619	1037337	WORD	n/a	n/a	DITCH	8	3	[0, 0, 0]	n/a	FR1	0	R1324M
1038.818	1.037	1038956	WORD_OFF	n/a	n/a	DITCH	8	3	[0, 0, 0]	n/a	FR1	0	R1324M
1039.855	1.629	1039993	WORD	n/a	n/a	OAR	9	3	[0, 0, 0]	n/a	FR1	0	R1324M
1041.484	0.786	1041622	WORD_OFF	n/a	n/a	OAR	9	3	[0, 0, 0]	n/a	FR1	0	R1324M
1042.27	1.632	1042408	WORD	n/a	n/a	BREAD	10	3	[0, 0, 0]	n/a	FR1	0	R1324M
1043.902	0.945	1044039	WORD_OFF	n/a	n/a	BREAD	10	3	[0, 0, 0]	n/a	FR1	0	R1324M
1044.847	1.621	1044984	WORD	n/a	n/a	STEAM	11	3	[0, 0, 0]	n/a	FR1	0	R1324M
1046.468	1.141	1046605	WORD_OFF	n/a	n/a	STEAM	11	3	[0, 0, 0]	n/a	FR1	0	R1324M
1047.609	1.626	1047746	WORD	n/a	n/a	CHIN	12	3	[0, 0, 0]	n/a	FR1	0	R1324M
1049.235	0.001	1049372	WORD_OFF	n/a	n/a	CHIN	12	3	[0, 0, 0]	n/a	FR1	0	R1324M
1049.236	0.0	1049373	ENCODING_END	n/a	n/a	n/a	-999	3	[0, 0, 0]	n/a	FR1	0	R1324M
1049.236	0.0	1049373	DISTRACT_START	n/a	n/a	n/a	-999	3	[0, 0, 0]	n/a	FR1	0	R1324M
1049.236	0.016	1049373	START	n/a	n/a	n/a	-999	3	[-999, -999, -999]	n/a	FR1	0	R1324M
1049.252	18.354	1049389	PROB	18.354	n/a	n/a	-999	3	[7, 6, 5]	18	FR1	0	R1324M
1067.606	19.204	1067742	PROB	19.204	n/a	n/a	-999	3	[9, 4, 5]	18	FR1	0	R1324M
1086.81	0.017	1086946	STOP	n/a	n/a	n/a	-999	3	[-999, -999, -999]	n/a	FR1	0	R1324M
1086.827	0.517	1086963	DISTRACT_END	n/a	n/a	n/a	-999	3	[0, 0, 0]	n/a	FR1	0	R1324M
1087.344	1.617	1087480	RETRIEVAL_ORIENT_START	n/a	n/a	n/a	-999	3	[0, 0, 0]	n/a	FR1	0	R1324M
1088.961	0.0	1089097	RETRIEVAL_ORIENT_END	n/a	n/a	n/a	-999	3	[0, 0, 0]	n/a	FR1	0	R1324M
1088.961	13.45	1089097	REC_START	n/a	n/a	n/a	-999	3	[0, 0, 0]	n/a	FR1	0	R1324M
1102.411	1.755	1102546	REC_WORD	1.755	n/a	AXE	2	3	[0, 0, 0]	n/a	FR1	0	R1324M
1104.166	1.382	1104301	REC_WORD	1.382	n/a	ARM	3	3	[0, 0, 0]	n/a	FR1	0	R1324M
1105.548	2.859	1105683	REC_WORD	2.859	n/a	FOOT	1	3	[0, 0, 0]	n/a	FR1	0	R1324M
1108.407	10.566	1108542	REC_WORD	10.566	n/a	CHIN	12	3	[0, 0, 0]	n/a	FR1	0	R1324M
1118.973	0.001	1119107	REC_END	n/a	n/a	n/a	-999	3	[0, 0, 0]	n/a	FR1	0	R1324M
1118.974	0.017	1119108	TRIAL_END	n/a	n/a	n/a	-999	3	[0, 0, 0]	n/a	FR1	0	R1324M
1118.991	0.0	1119125	TRIAL_START	n/a	n/a	n/a	-999	4	[0, 0, 0]	n/a	FR1	0	R1324M
1118.991	0.0	1119125	TRIAL	n/a	n/a	n/a	-999	4	[0, 0, 0]	n/a	FR1	0	R1324M
1118.991	26.146	1119125	WAITING_START	n/a	n/a	n/a	-999	4	[0, 0, 0]	n/a	FR1	0	R1324M
1145.137	0.001	1145270	WAITING_END	n/a	n/a	n/a	-999	4	[0, 0, 0]	n/a	FR1	0	R1324M
1145.138	10.429	1145271	COUNTDOWN_START	n/a	n/a	n/a	-999	4	[0, 0, 0]	n/a	FR1	0	R1324M
1155.567	0.0	1155700	COUNTDOWN_END	n/a	n/a	n/a	-999	4	[0, 0, 0]	n/a	FR1	0	R1324M
1155.567	1.19	1155700	ORIENT_START	n/a	n/a	n/a	-999	4	[0, 0, 0]	n/a	FR1	0	R1324M
1156.757	0.0	1156890	ORIENT_END	n/a	n/a	n/a	-999	4	[0, 0, 0]	n/a	FR1	0	R1324M
1156.757	1.071	1156890	ENCODING_START	n/a	n/a	n/a	-999	4	[0, 0, 0]	n/a	FR1	0	R1324M
1157.828	1.628	1157961	WORD	n/a	n/a	SAIL	1	4	[0, 0, 0]	n/a	FR1	0	R1324M
1159.456	0.816	1159588	WORD_OFF	n/a	n/a	SAIL	1	4	[0, 0, 0]	n/a	FR1	0	R1324M
1160.272	1.636	1160404	WORD	n/a	n/a	DRUM	2	4	[0, 0, 0]	n/a	FR1	0	R1324M
1161.908	0.752	1162040	WORD_OFF	n/a	n/a	DRUM	2	4	[0, 0, 0]	n/a	FR1	0	R1324M
1162.66	1.631	1162792	WORD	n/a	n/a	PIN	3	4	[0, 0, 0]	n/a	FR1	0	R1324M
1164.291	0.806	1164423	WORD_OFF	n/a	n/a	PIN	3	4	[0, 0, 0]	n/a	FR1	0	R1324M
1165.097	1.612	1165229	WORD	n/a	n/a	SPARK	4	4	[0, 0, 0]	n/a	FR1	0	R1324M
1166.709	1.149	1166841	WORD_OFF	n/a	n/a	SPARK	4	4	[0, 0, 0]	n/a	FR1	0	R1324M
1167.858	1.634	1167990	WORD	n/a	n/a	LIP	5	4	[0, 0, 0]	n/a	FR1	0	R1324M
1169.492	1.037	1169624	WORD_OFF	n/a	n/a	LIP	5	4	[0, 0, 0]	n/a	FR1	0	R1324M
1170.529	1.63	1170661	WORD	n/a	n/a	NET	6	4	[0, 0, 0]	n/a	FR1	0	R1324M
1172.159	0.943	1172291	WORD_OFF	n/a	n/a	NET	6	4	[0, 0, 0]	n/a	FR1	0	R1324M
1173.102	1.625	1173234	WORD	n/a	n/a	WHEEL	7	4	[0, 0, 0]	n/a	FR1	0	R1324M
1174.727	0.875	1174859	WORD_OFF	n/a	n/a	WHEEL	7	4	[0, 0, 0]	n/a	FR1	0	R1324M
1175.602	1.625	1175734	WORD	n/a	n/a	SHIRT	8	4	[0, 0, 0]	n/a	FR1	0	R1324M
1177.227	1.116	1177359	WORD_OFF	n/a	n/a	SHIRT	8	4	[0, 0, 0]	n/a	FR1	0	R1324M
1178.343	1.635	1178475	WORD	n/a	n/a	CHALK	9	4	[0, 0, 0]	n/a	FR1	0	R1324M
1179.978	0.819	1180110	WORD_OFF	n/a	n/a	CHALK	9	4	[0, 0, 0]	n/a	FR1	0	R1324M
1180.797	1.631	1180929	WORD	n/a	n/a	BEAN	10	4	[0, 0, 0]	n/a	FR1	0	R1324M
1182.428	0.75	1182559	WORD_OFF	n/a	n/a	BEAN	10	4	[0, 0, 0]	n/a	FR1	0	R1324M
1183.178	1.634	1183309	WORD	n/a	n/a	SWORD	11	4	[0, 0, 0]	n/a	FR1	0	R1324M
1184.812	1.106	1184943	WORD_OFF	n/a	n/a	SWORD	11	4	[0, 0, 0]	n/a	FR1	0	R1324M
1185.918	1.628	1186049	WORD	n/a	n/a	DOLL	12	4	[0, 0, 0]	n/a	FR1	0	R1324M
1187.546	0.001	1187677	WORD_OFF	n/a	n/a	DOLL	12	4	[0, 0, 0]	n/a	FR1	0	R1324M
1187.547	0.0	1187678	ENCODING_END	n/a	n/a	n/a	-999	4	[0, 0, 0]	n/a	FR1	0	R1324M
1187.547	0.0	1187678	DISTRACT_START	n/a	n/a	n/a	-999	4	[0, 0, 0]	n/a	FR1	0	R1324M
1187.547	0.016	1187678	START	n/a	n/a	n/a	-999	4	[-999, -999, -999]	n/a	FR1	0	R1324M
1187.563	30.777	1187694	PROB	30.777	n/a	n/a	-999	4	[2, 9, 6]	20	FR1	0	R1324M
1218.34	0.011	1218470	STOP	n/a	n/a	n/a	-999	4	[-999, -999, -999]	n/a	FR1	0	R1324M
1218.351	0.684	1218481	DISTRACT_END	n/a	n/a	n/a	-999	4	[0, 0, 0]	n/a	FR1	0	R1324M
1219.035	1.684	1219165	RETRIEVAL_ORIENT_START	n/a	n/a	n/a	-999	4	[0, 0, 0]	n/a	FR1	0	R1324M
1220.719	0.001	1220849	RETRIEVAL_ORIENT_END	n/a	n/a	n/a	-999	4	[0, 0, 0]	n/a	FR1	0	R1324M
1220.72	16.762	1220850	REC_START	n/a	n/a	n/a	-999	4	[0, 0, 0]	n/a	FR1	0	R1324M
1237.482	13.249	1237611	REC_WORD	13.249	n/a	SAIL	1	4	[0, 0, 0]	n/a	FR1	0	R1324M
1250.731	0.0	1250859	REC_END	n/a	n/a	n/a	-999	4	[0, 0, 0]	n/a	FR1	0	R1324M
1250.731	0.017	1250859	TRIAL_END	n/a	n/a	n/a	-999	4	[0, 0, 0]	n/a	FR1	0	R1324M
1250.748	0.0	1250876	TRIAL	n/a	n/a	n/a	-999	5	[0, 0, 0]	n/a	FR1	0	R1324M
1250.748	0.001	1250876	TRIAL_START	n/a	n/a	n/a	-999	5	[0, 0, 0]	n/a	FR1	0	R1324M
1250.749	30.282	1250877	WAITING_START	n/a	n/a	n/a	-999	5	[0, 0, 0]	n/a	FR1	0	R1324M
1281.031	0.0	1281158	WAITING_END	n/a	n/a	n/a	-999	5	[0, 0, 0]	n/a	FR1	0	R1324M
1281.031	10.429	1281158	COUNTDOWN_START	n/a	n/a	n/a	-999	5	[0, 0, 0]	n/a	FR1	0	R1324M
1291.46	0.0	1291587	COUNTDOWN_END	n/a	n/a	n/a	-999	5	[0, 0, 0]	n/a	FR1	0	R1324M
1291.46	1.206	1291587	ORIENT_START	n/a	n/a	n/a	-999	5	[0, 0, 0]	n/a	FR1	0	R1324M
1292.666	0.001	1292793	ORIENT_END	n/a	n/a	n/a	-999	5	[0, 0, 0]	n/a	FR1	0	R1324M
1292.667	0.953	1292794	ENCODING_START	n/a	n/a	n/a	-999	5	[0, 0, 0]	n/a	FR1	0	R1324M
1293.62	1.629	1293747	WORD	n/a	n/a	WOLF	1	5	[0, 0, 0]	n/a	FR1	0	R1324M
1295.249	0.931	1295376	WORD_OFF	n/a	n/a	WOLF	1	5	[0, 0, 0]	n/a	FR1	0	R1324M
1296.18	1.637	1296307	WORD	n/a	n/a	MOUTH	2	5	[0, 0, 0]	n/a	FR1	0	R1324M
1297.817	0.772	1297943	WORD_OFF	n/a	n/a	MOUTH	2	5	[0, 0, 0]	n/a	FR1	0	R1324M
1298.589	1.628	1298715	WORD	n/a	n/a	MAP	3	5	[0, 0, 0]	n/a	FR1	0	R1324M
1300.217	1.037	1300343	WORD_OFF	n/a	n/a	MAP	3	5	[0, 0, 0]	n/a	FR1	0	R1324M
1301.254	1.631	1301380	WORD	n/a	n/a	BEAR	4	5	[0, 0, 0]	n/a	FR1	0	R1324M
1302.885	1.033	1303011	WORD_OFF	n/a	n/a	BEAR	4	5	[0, 0, 0]	n/a	FR1	0	R1324M
1303.918	1.634	1304044	WORD	n/a	n/a	MOLE	5	5	[0, 0, 0]	n/a	FR1	0	R1324M
1305.552	0.774	1305678	WORD_OFF	n/a	n/a	MOLE	5	5	[0, 0, 0]	n/a	FR1	0	R1324M
1306.326	1.61	1306452	WORD	n/a	n/a	BRIDGE	6	5	[0, 0, 0]	n/a	FR1	0	R1324M
1307.936	1.05	1308062	WORD_OFF	n/a	n/a	BRIDGE	6	5	[0, 0, 0]	n/a	FR1	0	R1324M
1308.986	1.634	1309112	WORD	n/a	n/a	FUDGE	7	5	[0, 0, 0]	n/a	FR1	0	R1324M
1310.62	0.782	1310746	WORD_OFF	n/a	n/a	FUDGE	7	5	[0, 0, 0]	n/a	FR1	0	R1324M
1311.402	1.635	1311528	WORD	n/a	n/a	LAND	8	5	[0, 0, 0]	n/a	FR1	0	R1324M
1313.037	0.822	1313163	WORD_OFF	n/a	n/a	LAND	8	5	[0, 0, 0]	n/a	FR1	0	R1324M
1313.859	1.627	1313985	WORD	n/a	n/a	OWL	9	5	[0, 0, 0]	n/a	FR1	0	R1324M
1315.486	0.872	1315612	WORD_OFF	n/a	n/a	OWL	9	5	[0, 0, 0]	n/a	FR1	0	R1324M
1316.358	1.63	1316484	WORD	n/a	n/a	ROPE	10	5	[0, 0, 0]	n/a	FR1	0	R1324M
1317.988	0.84	1318114	WORD_OFF	n/a	n/a	ROPE	10	5	[0, 0, 0]	n/a	FR1	0	R1324M
1318.828	1.626	1318954	WORD	n/a	n/a	CAVE	11	5	[0, 0, 0]	n/a	FR1	0	R1324M
1320.454	1.079	1320579	WORD_OFF	n/a	n/a	CAVE	11	5	[0, 0, 0]	n/a	FR1	0	R1324M
1321.533	1.622	1321658	WORD	n/a	n/a	TENT	12	5	[0, 0, 0]	n/a	FR1	0	R1324M
1323.155	0.0	1323280	ENCODING_END	n/a	n/a	n/a	-999	5	[0, 0, 0]	n/a	FR1	0	R1324M
1323.155	0.0	1323280	DISTRACT_START	n/a	n/a	n/a	-999	5	[0, 0, 0]	n/a	FR1	0	R1324M
1323.155	0.001	1323280	WORD_OFF	n/a	n/a	TENT	12	5	[0, 0, 0]	n/a	FR1	0	R1324M
1323.156	0.015	1323281	START	n/a	n/a	n/a	-999	5	[-999, -999, -999]	n/a	FR1	0	R1324M
1323.171	6.619	1323296	PROB	6.619	n/a	n/a	-999	5	[5, 1, 5]	11	FR1	0	R1324M
1329.79	12.036	1329915	PROB	12.036	n/a	n/a	-999	5	[8, 9, 1]	18	FR1	0	R1324M
1341.826	8.73	1341951	PROB	8.73	n/a	n/a	-999	5	[5, 4, 2]	11	FR1	0	R1324M
1350.556	0.022	1350680	STOP	n/a	n/a	n/a	-999	5	[-999, -999, -999]	n/a	FR1	0	R1324M
1350.578	0.603	1350702	DISTRACT_END	n/a	n/a	n/a	-999	5	[0, 0, 0]	n/a	FR1	0	R1324M
1351.181	1.664	1351305	RETRIEVAL_ORIENT_START	n/a	n/a	n/a	-999	5	[0, 0, 0]	n/a	FR1	0	R1324M
1352.845	0.0	1352969	RETRIEVAL_ORIENT_END	n/a	n/a	n/a	-999	5	[0, 0, 0]	n/a	FR1	0	R1324M
1352.845	2.508	1352969	REC_START	n/a	n/a	n/a	-999	5	[0, 0, 0]	n/a	FR1	0	R1324M
1355.353	4.409	1355477	REC_WORD	4.409	n/a	BRIDGE	6	5	[0, 0, 0]	n/a	FR1	0	R1324M
1359.762	1.768	1359886	REC_WORD	1.768	n/a	WOLF	1	5	[0, 0, 0]	n/a	FR1	0	R1324M
1361.53	13.498	1361654	REC_WORD	13.498	n/a	BEAR	4	5	[0, 0, 0]	n/a	FR1	0	R1324M
1375.028	7.83	1375151	REC_WORD	7.83	n/a	TENT	12	5	[0, 0, 0]	n/a	FR1	0	R1324M
1382.858	0.0	1382981	REC_END	n/a	n/a	n/a	-999	5	[0, 0, 0]	n/a	FR1	0	R1324M
1382.858	0.015	1382981	TRIAL_END	n/a	n/a	n/a	-999	5	[0, 0, 0]	n/a	FR1	0	R1324M
1382.873	0.0	1382996	TRIAL	n/a	n/a	n/a	-999	6	[0, 0, 0]	n/a	FR1	0	R1324M
1382.873	0.001	1382996	TRIAL_START	n/a	n/a	n/a	-999	6	[0, 0, 0]	n/a	FR1	0	R1324M
1382.874	65.288	1382997	WAITING_START	n/a	n/a	n/a	-999	6	[0, 0, 0]	n/a	FR1	0	R1324M
1448.162	0.0	1448282	WAITING_END	n/a	n/a	n/a	-999	6	[0, 0, 0]	n/a	FR1	0	R1324M
1448.162	10.43	1448282	COUNTDOWN_START	n/a	n/a	n/a	-999	6	[0, 0, 0]	n/a	FR1	0	R1324M
1458.592	0.0	1458711	COUNTDOWN_END	n/a	n/a	n/a	-999	6	[0, 0, 0]	n/a	FR1	0	R1324M
1458.592	1.19	1458711	ORIENT_START	n/a	n/a	n/a	-999	6	[0, 0, 0]	n/a	FR1	0	R1324M
1459.782	0.0	1459901	ORIENT_END	n/a	n/a	n/a	-999	6	[0, 0, 0]	n/a	FR1	0	R1324M
1459.782	0.885	1459901	ENCODING_START	n/a	n/a	n/a	-999	6	[0, 0, 0]	n/a	FR1	0	R1324M
1460.667	1.631	1460786	WORD	n/a	n/a	MAIL	1	6	[0, 0, 0]	n/a	FR1	0	R1324M
1462.298	0.801	1462417	WORD_OFF	n/a	n/a	MAIL	1	6	[0, 0, 0]	n/a	FR1	0	R1324M
1463.099	1.617	1463218	WORD	n/a	n/a	TRAIN	2	6	[0, 0, 0]	n/a	FR1	0	R1324M
1464.716	0.785	1464835	WORD_OFF	n/a	n/a	TRAIN	2	6	[0, 0, 0]	n/a	FR1	0	R1324M
1465.501	1.631	1465620	WORD	n/a	n/a	TIE	3	6	[0, 0, 0]	n/a	FR1	0	R1324M
1467.132	1.015	1467251	WORD_OFF	n/a	n/a	TIE	3	6	[0, 0, 0]	n/a	FR1	0	R1324M
1468.147	1.637	1468266	WORD	n/a	n/a	JUDGE	4	6	[0, 0, 0]	n/a	FR1	0	R1324M
1469.784	1.067	1469903	WORD_OFF	n/a	n/a	JUDGE	4	6	[0, 0, 0]	n/a	FR1	0	R1324M
1470.851	1.632	1470970	WORD	n/a	n/a	LEAF	5	6	[0, 0, 0]	n/a	FR1	0	R1324M
1472.483	0.801	1472602	WORD_OFF	n/a	n/a	LEAF	5	6	[0, 0, 0]	n/a	FR1	0	R1324M
1473.284	1.617	1473403	WORD	n/a	n/a	TOOL	6	6	[0, 0, 0]	n/a	FR1	0	R1324M
1474.901	1.141	1475020	WORD_OFF	n/a	n/a	TOOL	6	6	[0, 0, 0]	n/a	FR1	0	R1324M
1476.042	1.627	1476161	WORD	n/a	n/a	CAT	7	6	[0, 0, 0]	n/a	FR1	0	R1324M
1477.669	1.096	1477788	WORD_OFF	n/a	n/a	CAT	7	6	[0, 0, 0]	n/a	FR1	0	R1324M
1478.765	1.637	1478884	WORD	n/a	n/a	HOLE	8	6	[0, 0, 0]	n/a	FR1	0	R1324M
1480.402	0.757	1480520	WORD_OFF	n/a	n/a	HOLE	8	6	[0, 0, 0]	n/a	FR1	0	R1324M
1481.159	1.627	1481277	WORD	n/a	n/a	POOL	9	6	[0, 0, 0]	n/a	FR1	0	R1324M
1482.786	0.9	1482904	WORD_OFF	n/a	n/a	POOL	9	6	[0, 0, 0]	n/a	FR1	0	R1324M
1483.686	1.633	1483804	WORD	n/a	n/a	SKI	10	6	[0, 0, 0]	n/a	FR1	0	R1324M
1485.319	0.878	1485437	WORD_OFF	n/a	n/a	SKI	10	6	[0, 0, 0]	n/a	FR1	0	R1324M
1486.197	1.624	1486315	WORD	n/a	n/a	PEN	11	6	[0, 0, 0]	n/a	FR1	0	R1324M
1487.821	0.896	1487939	WORD_OFF	n/a	n/a	PEN	11	6	[0, 0, 0]	n/a	FR1	0	R1324M
1488.717	1.636	1488835	WORD	n/a	n/a	MUD	12	6	[0, 0, 0]	n/a	FR1	0	R1324M
1490.353	0.001	1490471	WORD_OFF	n/a	n/a	MUD	12	6	[0, 0, 0]	n/a	FR1	0	R1324M
1490.354	0.0	1490472	DISTRACT_START	n/a	n/a	n/a	-999	6	[0, 0, 0]	n/a	FR1	0	R1324M
1490.354	0.0	1490472	ENCODING_END	n/a	n/a	n/a	-999	6	[0, 0, 0]	n/a	FR1	0	R1324M
1490.354	0.016	1490472	START	n/a	n/a	n/a	-999	6	[-999, -999, -999]	n/a	FR1	0	R1324M
1490.37	11.769	1490488	PROB	11.769	n/a	n/a	-999	6	[2, 3, 5]	10	FR1	0	R1324M
1502.139	37.685	1502257	PROB	37.685	n/a	n/a	-999	6	[5, 2, 9]	16	FR1	0	R1324M
1539.824	0.007	1539940	STOP	n/a	n/a	n/a	-999	6	[-999, -999, -999]	n/a	FR1	0	R1324M
1539.831	0.666	1539947	DISTRACT_END	n/a	n/a	n/a	-999	6	[0, 0, 0]	n/a	FR1	0	R1324M
1540.497	1.616	1540613	RETRIEVAL_ORIENT_START	n/a	n/a	n/a	-999	6	[0, 0, 0]	n/a	FR1	0	R1324M
1542.113	0.001	1542229	RETRIEVAL_ORIENT_END	n/a	n/a	n/a	-999	6	[0, 0, 0]	n/a	FR1	0	R1324M
1542.114	3.824	1542230	REC_START	n/a	n/a	n/a	-999	6	[0, 0, 0]	n/a	FR1	0	R1324M
1545.938	5.452	1546054	REC_WORD	5.452	n/a	PEN	11	6	[0, 0, 0]	n/a	FR1	0	R1324M
1551.39	20.343	1551505	REC_WORD	20.343	n/a	HOLE	8	6	[0, 0, 0]	n/a	FR1	0	R1324M
1571.733	0.393	1571848	REC_WORD	0.393	n/a	MOLE	-999	6	[0, 0, 0]	n/a	FR1	0	R1324M
1572.126	0.001	1572241	REC_END	n/a	n/a	n/a	-999	6	[0, 0, 0]	n/a	FR1	0	R1324M
1572.127	0.013	1572242	TRIAL_END	n/a	n/a	n/a	-999	6	[0, 0, 0]	n/a	FR1	0	R1324M
1572.14	0.001	1572255	TRIAL_START	n/a	n/a	n/a	-999	7	[0, 0, 0]	n/a	FR1	0	R1324M
1572.141	0.0	1572256	WAITING_START	n/a	n/a	n/a	-999	7	[0, 0, 0]	n/a	FR1	0	R1324M
1572.141	108.95	1572256	TRIAL	n/a	n/a	n/a	-999	7	[0, 0, 0]	n/a	FR1	0	R1324M
1681.091	0.0	1681201	WAITING_END	n/a	n/a	n/a	-999	7	[0, 0, 0]	n/a	FR1	0	R1324M
1681.091	10.429	1681201	COUNTDOWN_START	n/a	n/a	n/a	-999	7	[0, 0, 0]	n/a	FR1	0	R1324M
1691.52	0.0	1691629	COUNTDOWN_END	n/a	n/a	n/a	-999	7	[0, 0, 0]	n/a	FR1	0	R1324M
1691.52	1.173	1691629	ORIENT_START	n/a	n/a	n/a	-999	7	[0, 0, 0]	n/a	FR1	0	R1324M
1692.693	0.001	1692802	ORIENT_END	n/a	n/a	n/a	-999	7	[0, 0, 0]	n/a	FR1	0	R1324M
1692.694	0.827	1692803	ENCODING_START	n/a	n/a	n/a	-999	7	[0, 0, 0]	n/a	FR1	0	R1324M
1693.521	1.622	1693630	WORD	n/a	n/a	FLEA	1	7	[0, 0, 0]	n/a	FR1	0	R1324M
1695.143	0.94	1695252	WORD_OFF	n/a	n/a	FLEA	1	7	[0, 0, 0]	n/a	FR1	0	R1324M
1696.083	1.628	1696192	WORD	n/a	n/a	SLIME	2	7	[0, 0, 0]	n/a	FR1	0	R1324M
1697.711	0.857	1697820	WORD_OFF	n/a	n/a	SLIME	2	7	[0, 0, 0]	n/a	FR1	0	R1324M
1698.568	1.626	1698677	WORD	n/a	n/a	ELF	3	7	[0, 0, 0]	n/a	FR1	0	R1324M
1700.194	0.775	1700303	WORD_OFF	n/a	n/a	ELF	3	7	[0, 0, 0]	n/a	FR1	0	R1324M
1700.969	1.626	1701078	WORD	n/a	n/a	CORD	4	7	[0, 0, 0]	n/a	FR1	0	R1324M
1702.595	0.877	1702704	WORD_OFF	n/a	n/a	CORD	4	7	[0, 0, 0]	n/a	FR1	0	R1324M
1703.472	1.624	1703581	WORD	n/a	n/a	BEAK	5	7	[0, 0, 0]	n/a	FR1	0	R1324M
1705.096	0.9	1705205	WORD_OFF	n/a	n/a	BEAK	5	7	[0, 0, 0]	n/a	FR1	0	R1324M
1705.996	1.634	1706105	WORD	n/a	n/a	NAIL	6	7	[0, 0, 0]	n/a	FR1	0	R1324M
1707.63	1.086	1707739	WORD_OFF	n/a	n/a	NAIL	6	7	[0, 0, 0]	n/a	FR1	0	R1324M
1708.716	1.63	1708825	WORD	n/a	n/a	DOOR	7	7	[0, 0, 0]	n/a	FR1	0	R1324M
1710.346	0.943	1710455	WORD_OFF	n/a	n/a	DOOR	7	7	[0, 0, 0]	n/a	FR1	0	R1324M
1711.289	1.625	1711397	WORD	n/a	n/a	GEESE	8	7	[0, 0, 0]	n/a	FR1	0	R1324M
1712.914	0.885	1713022	WORD_OFF	n/a	n/a	GEESE	8	7	[0, 0, 0]	n/a	FR1	0	R1324M
1713.799	1.631	1713907	WORD	n/a	n/a	SLUSH	9	7	[0, 0, 0]	n/a	FR1	0	R1324M
1715.43	0.854	1715538	WORD_OFF	n/a	n/a	SLUSH	9	7	[0, 0, 0]	n/a	FR1	0	R1324M
1716.284	1.614	1716392	WORD	n/a	n/a	SEAT	10	7	[0, 0, 0]	n/a	FR1	0	R1324M
1717.898	0.901	1718006	WORD_OFF	n/a	n/a	SEAT	10	7	[0, 0, 0]	n/a	FR1	0	R1324M
1718.799	1.632	1718907	WORD	n/a	n/a	BOARD	11	7	[0, 0, 0]	n/a	FR1	0	R1324M
1720.431	0.947	1720539	WORD_OFF	n/a	n/a	BOARD	11	7	[0, 0, 0]	n/a	FR1	0	R1324M
1721.378	1.638	1721486	WORD	n/a	n/a	ARK	12	7	[0, 0, 0]	n/a	FR1	0	R1324M
1723.016	0.0	1723124	WORD_OFF	n/a	n/a	ARK	12	7	[0, 0, 0]	n/a	FR1	0	R1324M
1723.016	0.001	1723124	ENCODING_END	n/a	n/a	n/a	-999	7	[0, 0, 0]	n/a	FR1	0	R1324M
1723.017	0.0	1723125	DISTRACT_START	n/a	n/a	n/a	-999	7	[0, 0, 0]	n/a	FR1	0	R1324M
1723.017	0.015	1723125	START	n/a	n/a	n/a	-999	7	[-999, -999, -999]	n/a	FR1	0	R1324M
1723.032	22.521	1723140	PROB	22.521	n/a	n/a	-999	7	[7, 7, 9]	23	FR1	0	R1324M
1745.553	0.017	1745660	STOP	n/a	n/a	n/a	-999	7	[-999, -999, -999]	n/a	FR1	0	R1324M
1745.57	0.526	1745677	DISTRACT_END	n/a	n/a	n/a	-999	7	[0, 0, 0]	n/a	FR1	0	R1324M
1746.096	1.691	1746203	RETRIEVAL_ORIENT_START	n/a	n/a	n/a	-999	7	[0, 0, 0]	n/a	FR1	0	R1324M
1747.787	0.001	1747894	RETRIEVAL_ORIENT_END	n/a	n/a	n/a	-999	7	[0, 0, 0]	n/a	FR1	0	R1324M
1747.788	3.471	1747895	REC_START	n/a	n/a	n/a	-999	7	[0, 0, 0]	n/a	FR1	0	R1324M
1751.259	26.54	1751366	REC_WORD	26.54	n/a	PENCIL	-999	7	[0, 0, 0]	n/a	FR1	0	R1324M
1777.799	0.001	1777905	REC_END	n/a	n/a	n/a	-999	7	[0, 0, 0]	n/a	FR1	0	R1324M
1777.8	0.013	1777906	TRIAL_END	n/a	n/a	n/a	-999	7	[0, 0, 0]	n/a	FR1	0	R1324M
1777.813	0.0	1777919	TRIAL_START	n/a	n/a	n/a	-999	8	[0, 0, 0]	n/a	FR1	0	R1324M
1777.813	0.001	1777919	TRIAL	n/a	n/a	n/a	-999	8	[0, 0, 0]	n/a	FR1	0	R1324M
1777.814	56.622	1777920	WAITING_START	n/a	n/a	n/a	-999	8	[0, 0, 0]	n/a	FR1	0	R1324M
1834.436	0.001	1834539	WAITING_END	n/a	n/a	n/a	-999	8	[0, 0, 0]	n/a	FR1	0	R1324M
1834.437	0.0	1834540	COUNTDOWN_START	n/a	n/a	n/a	-999	8	[0, 0, 0]	n/a	FR1	0	R1324M
