onset	duration	sample	trial_type	response_time	stim_file	item_name	serialpos	list	test	answer	experiment	session	subject
0.0	1.216	5154	INSTRUCT_START	n/a	n/a	n/a	-999	-999	[0, 0, 0]	n/a	FR1	1	R1385E
1.216	30.568	6361	INSTRUCT_END	n/a	n/a	n/a	-999	-999	[0, 0, 0]	n/a	FR1	1	R1385E
31.784	10.348	36939	COUNTDOWN_START	n/a	n/a	n/a	-999	-999	[0, 0, 0]	n/a	FR1	1	R1385E
42.132	0.001	47278	COUNTDOWN_END	n/a	n/a	n/a	-999	-999	[0, 0, 0]	n/a	FR1	1	R1385E
42.133	2.132	47278	ENCODING_START	n/a	n/a	n/a	-999	-1	[0, 0, 0]	n/a	FR1	1	R1385E
44.265	1.616	49415	WORD	n/a	n/a	IMAGE	1	-1	[0, 0, 0]	n/a	FR1	1	R1385E
45.881	0.933	51031	WORD_OFF	n/a	n/a	IMAGE	1	-1	[0, 0, 0]	n/a	FR1	1	R1385E
46.814	1.617	51962	WORD	n/a	n/a	WATCH	2	-1	[0, 0, 0]	n/a	FR1	1	R1385E
48.431	0.783	53578	WORD_OFF	n/a	n/a	WATCH	2	-1	[0, 0, 0]	n/a	FR1	1	R1385E
49.214	1.6	54365	WORD	n/a	n/a	RHINO	3	-1	[0, 0, 0]	n/a	FR1	1	R1385E
50.814	0.833	55961	WORD_OFF	n/a	n/a	RHINO	3	-1	[0, 0, 0]	n/a	FR1	1	R1385E
51.647	1.601	56799	WORD	n/a	n/a	BEAM	4	-1	[0, 0, 0]	n/a	FR1	1	R1385E
53.248	0.882	58395	WORD_OFF	n/a	n/a	BEAM	4	-1	[0, 0, 0]	n/a	FR1	1	R1385E
54.13	1.601	59284	WORD	n/a	n/a	FLOOD	5	-1	[0, 0, 0]	n/a	FR1	1	R1385E
55.731	0.867	60880	WORD_OFF	n/a	n/a	FLOOD	5	-1	[0, 0, 0]	n/a	FR1	1	R1385E
56.598	1.616	61749	WORD	n/a	n/a	COTTON	6	-1	[0, 0, 0]	n/a	FR1	1	R1385E
58.214	0.85	63365	WORD_OFF	n/a	n/a	COTTON	6	-1	[0, 0, 0]	n/a	FR1	1	R1385E
59.064	1.6	64214	WORD	n/a	n/a	CAMEL	7	-1	[0, 0, 0]	n/a	FR1	1	R1385E
60.664	0.867	65809	WORD_OFF	n/a	n/a	CAMEL	7	-1	[0, 0, 0]	n/a	FR1	1	R1385E
61.531	1.616	66678	WORD	n/a	n/a	TONGUE	8	-1	[0, 0, 0]	n/a	FR1	1	R1385E
63.147	0.984	68294	WORD_OFF	n/a	n/a	TONGUE	8	-1	[0, 0, 0]	n/a	FR1	1	R1385E
64.131	1.616	69276	WORD	n/a	n/a	RING	9	-1	[0, 0, 0]	n/a	FR1	1	R1385E
65.747	0.967	70892	WORD_OFF	n/a	n/a	RING	9	-1	[0, 0, 0]	n/a	FR1	1	R1385E
66.714	1.617	71863	WORD	n/a	n/a	WAGON	10	-1	[0, 0, 0]	n/a	FR1	1	R1385E
68.331	0.916	73479	WORD_OFF	n/a	n/a	WAGON	10	-1	[0, 0, 0]	n/a	FR1	1	R1385E
69.247	1.617	74399	WORD	n/a	n/a	BABY	11	-1	[0, 0, 0]	n/a	FR1	1	R1385E
70.864	0.85	76015	WORD_OFF	n/a	n/a	BABY	11	-1	[0, 0, 0]	n/a	FR1	1	R1385E
71.714	1.6	76864	WORD	n/a	n/a	CHEST	12	-1	[0, 0, 0]	n/a	FR1	1	R1385E
73.314	0.001	78460	WORD_OFF	n/a	n/a	CHEST	12	-1	[0, 0, 0]	n/a	FR1	1	R1385E
73.315	0.001	78460	ENCODING_END	n/a	n/a	n/a	-999	-1	[0, 0, 0]	n/a	FR1	1	R1385E
73.316	0.0	78460	DISTRACT_START	n/a	n/a	n/a	-999	-1	[0, 0, 0]	n/a	FR1	1	R1385E
73.315	0.001	78461	PROB	0.001	n/a	n/a	-999	-1	[1, 6, 1]	8	FR1	1	R1385E
73.316	4.281	78462	START	n/a	n/a	n/a	-999	-1	[-999, -999, -999]	n/a	FR1	1	R1385E
77.597	5.467	82743	PROB	5.467	n/a	n/a	-999	-1	[3, 6, 6]	15	FR1	1	R1385E
83.064	12.251	88210	PROB	12.251	n/a	n/a	-999	-1	[3, 8, 7]	18	FR1	1	R1385E
95.315	0.0	100457	DISTRACT_END	n/a	n/a	n/a	-999	-1	[0, 0, 0]	n/a	FR1	1	R1385E
95.315	1.751	100460	STOP	n/a	n/a	n/a	-999	-1	[-999, -999, -999]	n/a	FR1	1	R1385E
97.066	2.523	102215	REC_START	n/a	n/a	n/a	-999	-1	[0, 0, 0]	n/a	FR1	1	R1385E
99.589	0.72	104734	REC_WORD	0.72	n/a	IMAGE	1	-1	[0, 0, 0]	n/a	FR1	1	R1385E
100.309	1.385	105454	REC_WORD	1.385	n/a	RHINO	3	-1	[0, 0, 0]	n/a	FR1	1	R1385E
101.694	1.015	106839	REC_WORD	1.015	n/a	TONGUE	8	-1	[0, 0, 0]	n/a	FR1	1	R1385E
102.709	1.036	107854	REC_WORD	1.036	n/a	WAGON	10	-1	[0, 0, 0]	n/a	FR1	1	R1385E
103.745	2.034	108890	REC_WORD	2.034	n/a	RING	9	-1	[0, 0, 0]	n/a	FR1	1	R1385E
105.779	3.88	110924	REC_WORD	3.88	n/a	CHEST	12	-1	[0, 0, 0]	n/a	FR1	1	R1385E
109.659	17.68	114804	REC_WORD	17.68	n/a	BABY	11	-1	[0, 0, 0]	n/a	FR1	1	R1385E
127.339	41.741	132487	REC_END	n/a	n/a	n/a	-999	-1	[0, 0, 0]	n/a	FR1	1	R1385E
169.08	10.353	174223	COUNTDOWN_START	n/a	n/a	n/a	-999	1	[0, 0, 0]	n/a	FR1	1	R1385E
179.433	0.0	184573	COUNTDOWN_END	n/a	n/a	n/a	-999	1	[0, 0, 0]	n/a	FR1	1	R1385E
179.433	2.148	184573	ENCODING_START	n/a	n/a	n/a	-999	1	[0, 0, 0]	n/a	FR1	1	R1385E
181.581	1.602	186720	WORD	n/a	n/a	JAR	1	1	[0, 0, 0]	n/a	FR1	1	R1385E
183.183	0.85	188326	WORD_OFF	n/a	n/a	JAR	1	1	[0, 0, 0]	n/a	FR1	1	R1385E
184.033	1.598	189175	WORD	n/a	n/a	ARK	2	1	[0, 0, 0]	n/a	FR1	1	R1385E
185.631	0.984	190770	WORD_OFF	n/a	n/a	ARK	2	1	[0, 0, 0]	n/a	FR1	1	R1385E
186.615	1.616	191762	WORD	n/a	n/a	CAGE	3	1	[0, 0, 0]	n/a	FR1	1	R1385E
188.231	0.9	193378	WORD_OFF	n/a	n/a	CAGE	3	1	[0, 0, 0]	n/a	FR1	1	R1385E
189.131	1.6	194278	WORD	n/a	n/a	TOY	4	1	[0, 0, 0]	n/a	FR1	1	R1385E
190.731	0.95	195873	WORD_OFF	n/a	n/a	TOY	4	1	[0, 0, 0]	n/a	FR1	1	R1385E
191.681	1.617	196824	WORD	n/a	n/a	RAMP	5	1	[0, 0, 0]	n/a	FR1	1	R1385E
193.298	0.983	198440	WORD_OFF	n/a	n/a	RAMP	5	1	[0, 0, 0]	n/a	FR1	1	R1385E
194.281	1.6	199422	WORD	n/a	n/a	SHIELD	6	1	[0, 0, 0]	n/a	FR1	1	R1385E
195.881	0.9	201028	WORD_OFF	n/a	n/a	SHIELD	6	1	[0, 0, 0]	n/a	FR1	1	R1385E
196.781	1.6	201928	WORD	n/a	n/a	PILL	7	1	[0, 0, 0]	n/a	FR1	1	R1385E
198.381	0.884	203523	WORD_OFF	n/a	n/a	PILL	7	1	[0, 0, 0]	n/a	FR1	1	R1385E
199.265	1.615	204403	WORD	n/a	n/a	SAUCE	8	1	[0, 0, 0]	n/a	FR1	1	R1385E
200.88	0.985	206018	WORD_OFF	n/a	n/a	SAUCE	8	1	[0, 0, 0]	n/a	FR1	1	R1385E
201.865	1.6	207010	WORD	n/a	n/a	BRICK	9	1	[0, 0, 0]	n/a	FR1	1	R1385E
203.465	0.9	208606	WORD_OFF	n/a	n/a	BRICK	9	1	[0, 0, 0]	n/a	FR1	1	R1385E
204.365	1.616	209506	WORD	n/a	n/a	ROCK	10	1	[0, 0, 0]	n/a	FR1	1	R1385E
205.981	0.817	211122	WORD_OFF	n/a	n/a	ROCK	10	1	[0, 0, 0]	n/a	FR1	1	R1385E
206.798	1.6	211940	WORD	n/a	n/a	TROUT	11	1	[0, 0, 0]	n/a	FR1	1	R1385E
208.398	0.9	213545	WORD_OFF	n/a	n/a	TROUT	11	1	[0, 0, 0]	n/a	FR1	1	R1385E
209.298	1.617	214445	WORD	n/a	n/a	PRIZE	12	1	[0, 0, 0]	n/a	FR1	1	R1385E
210.915	0.0	216056	START	n/a	n/a	n/a	-999	1	[-999, -999, -999]	n/a	FR1	1	R1385E
210.915	0.0	216056	PROB	0.0	n/a	n/a	-999	1	[3, 4, 6]	13	FR1	1	R1385E
210.914	0.001	216061	WORD_OFF	n/a	n/a	PRIZE	12	1	[0, 0, 0]	n/a	FR1	1	R1385E
210.915	0.0	216061	ENCODING_END	n/a	n/a	n/a	-999	1	[0, 0, 0]	n/a	FR1	1	R1385E
210.915	5.367	216061	DISTRACT_START	n/a	n/a	n/a	-999	1	[0, 0, 0]	n/a	FR1	1	R1385E
216.282	2.8	221423	PROB	2.8	n/a	n/a	-999	1	[1, 2, 8]	11	FR1	1	R1385E
219.082	7.683	224223	PROB	7.683	n/a	n/a	-999	1	[7, 8, 8]	23	FR1	1	R1385E
226.765	7.816	231905	PROB	7.816	n/a	n/a	-999	1	[8, 6, 7]	21	FR1	1	R1385E
234.581	0.0	239721	STOP	n/a	n/a	n/a	-999	1	[-999, -999, -999]	n/a	FR1	1	R1385E
234.581	1.617	239726	DISTRACT_END	n/a	n/a	n/a	-999	1	[0, 0, 0]	n/a	FR1	1	R1385E
236.198	3.417	241341	REC_START	n/a	n/a	n/a	-999	1	[0, 0, 0]	n/a	FR1	1	R1385E
239.615	1.722	244755	REC_WORD	1.722	n/a	TROUT	11	1	[0, 0, 0]	n/a	FR1	1	R1385E
241.337	1.613	246477	REC_WORD	1.613	n/a	ARK	2	1	[0, 0, 0]	n/a	FR1	1	R1385E
242.95	2.032	248090	REC_WORD	2.032	n/a	JAR	1	1	[0, 0, 0]	n/a	FR1	1	R1385E
244.982	10.203	250122	REC_WORD	10.203	n/a	PILL	7	1	[0, 0, 0]	n/a	FR1	1	R1385E
255.185	5.005	260325	REC_WORD	5.005	n/a	TOY	4	1	[0, 0, 0]	n/a	FR1	1	R1385E
260.19	6.272	265329	REC_WORD_VV	6.272	n/a	<>	-999	1	[0, 0, 0]	n/a	FR1	1	R1385E
266.462	3.652	271602	REC_END	n/a	n/a	n/a	-999	1	[0, 0, 0]	n/a	FR1	1	R1385E
270.114	10.35	275254	COUNTDOWN_START	n/a	n/a	n/a	-999	2	[0, 0, 0]	n/a	FR1	1	R1385E
280.464	0.0	285603	COUNTDOWN_END	n/a	n/a	n/a	-999	2	[0, 0, 0]	n/a	FR1	1	R1385E
280.464	2.084	285603	ENCODING_START	n/a	n/a	n/a	-999	2	[0, 0, 0]	n/a	FR1	1	R1385E
282.548	1.617	287690	WORD	n/a	n/a	SLEEVE	1	2	[0, 0, 0]	n/a	FR1	1	R1385E
284.165	0.833	289305	WORD_OFF	n/a	n/a	SLEEVE	1	2	[0, 0, 0]	n/a	FR1	1	R1385E
284.998	1.6	290134	WORD	n/a	n/a	STEAK	2	2	[0, 0, 0]	n/a	FR1	1	R1385E
286.598	0.833	291739	WORD_OFF	n/a	n/a	STEAK	2	2	[0, 0, 0]	n/a	FR1	1	R1385E
287.431	1.617	292568	WORD	n/a	n/a	HOLE	3	2	[0, 0, 0]	n/a	FR1	1	R1385E
289.048	0.883	294184	WORD_OFF	n/a	n/a	HOLE	3	2	[0, 0, 0]	n/a	FR1	1	R1385E
289.931	1.616	295073	WORD	n/a	n/a	LAMP	4	2	[0, 0, 0]	n/a	FR1	1	R1385E
291.547	0.901	296689	WORD_OFF	n/a	n/a	LAMP	4	2	[0, 0, 0]	n/a	FR1	1	R1385E
292.448	1.616	297589	WORD	n/a	n/a	SEAT	5	2	[0, 0, 0]	n/a	FR1	1	R1385E
294.064	0.967	299205	WORD_OFF	n/a	n/a	SEAT	5	2	[0, 0, 0]	n/a	FR1	1	R1385E
295.031	1.6	300166	WORD	n/a	n/a	OWL	6	2	[0, 0, 0]	n/a	FR1	1	R1385E
296.631	0.983	301772	WORD_OFF	n/a	n/a	OWL	6	2	[0, 0, 0]	n/a	FR1	1	R1385E
297.614	1.601	302754	WORD	n/a	n/a	SOCK	7	2	[0, 0, 0]	n/a	FR1	1	R1385E
299.215	0.965	304349	WORD_OFF	n/a	n/a	SOCK	7	2	[0, 0, 0]	n/a	FR1	1	R1385E
300.18	1.602	305321	WORD	n/a	n/a	POND	8	2	[0, 0, 0]	n/a	FR1	1	R1385E
301.782	0.799	306916	WORD_OFF	n/a	n/a	POND	8	2	[0, 0, 0]	n/a	FR1	1	R1385E
302.581	1.6	307724	WORD	n/a	n/a	GLOVE	9	2	[0, 0, 0]	n/a	FR1	1	R1385E
304.181	0.883	309319	WORD_OFF	n/a	n/a	GLOVE	9	2	[0, 0, 0]	n/a	FR1	1	R1385E
305.064	1.601	310199	WORD	n/a	n/a	PLANT	10	2	[0, 0, 0]	n/a	FR1	1	R1385E
306.665	0.816	311804	WORD_OFF	n/a	n/a	PLANT	10	2	[0, 0, 0]	n/a	FR1	1	R1385E
307.481	1.617	312622	WORD	n/a	n/a	ROAD	11	2	[0, 0, 0]	n/a	FR1	1	R1385E
309.098	0.85	314238	WORD_OFF	n/a	n/a	ROAD	11	2	[0, 0, 0]	n/a	FR1	1	R1385E
309.948	1.6	315087	WORD	n/a	n/a	OAR	12	2	[0, 0, 0]	n/a	FR1	1	R1385E
311.548	0.0	316683	WORD_OFF	n/a	n/a	OAR	12	2	[0, 0, 0]	n/a	FR1	1	R1385E
311.548	0.001	316686	PROB	0.001	n/a	n/a	-999	2	[8, 5, 3]	16	FR1	1	R1385E
311.549	0.0	316687	START	n/a	n/a	n/a	-999	2	[-999, -999, -999]	n/a	FR1	1	R1385E
311.549	0.0	316693	ENCODING_END	n/a	n/a	n/a	-999	2	[0, 0, 0]	n/a	FR1	1	R1385E
311.549	10.449	316693	DISTRACT_START	n/a	n/a	n/a	-999	2	[0, 0, 0]	n/a	FR1	1	R1385E
321.998	4.584	327135	PROB	4.584	n/a	n/a	-999	2	[8, 1, 4]	13	FR1	1	R1385E
326.582	3.533	331719	PROB	3.533	n/a	n/a	-999	2	[8, 8, 4]	20	FR1	1	R1385E
330.115	4.199	335252	PROB	4.199	n/a	n/a	-999	2	[4, 8, 7]	19	FR1	1	R1385E
334.314	0.0	339447	DISTRACT_END	n/a	n/a	n/a	-999	2	[0, 0, 0]	n/a	FR1	1	R1385E
334.314	1.867	339451	STOP	n/a	n/a	n/a	-999	2	[-999, -999, -999]	n/a	FR1	1	R1385E
336.181	4.585	341318	REC_START	n/a	n/a	n/a	-999	2	[0, 0, 0]	n/a	FR1	1	R1385E
340.766	1.0	345903	REC_WORD	1.0	n/a	SLEEVE	1	2	[0, 0, 0]	n/a	FR1	1	R1385E
341.766	1.738	346902	REC_WORD_VV	1.738	n/a	<>	-999	2	[0, 0, 0]	n/a	FR1	1	R1385E
343.504	15.924	348640	REC_WORD	15.924	n/a	OAR	12	2	[0, 0, 0]	n/a	FR1	1	R1385E
359.428	5.444	364564	REC_WORD	5.444	n/a	STEAK	2	2	[0, 0, 0]	n/a	FR1	1	R1385E
364.872	1.574	370008	REC_WORD	1.574	n/a	LAMP	4	2	[0, 0, 0]	n/a	FR1	1	R1385E
366.446	2.852	371579	REC_END	n/a	n/a	n/a	-999	2	[0, 0, 0]	n/a	FR1	1	R1385E
369.298	10.35	374433	COUNTDOWN_START	n/a	n/a	n/a	-999	3	[0, 0, 0]	n/a	FR1	1	R1385E
379.648	0.0	384783	COUNTDOWN_END	n/a	n/a	n/a	-999	3	[0, 0, 0]	n/a	FR1	1	R1385E
379.648	2.116	384783	ENCODING_START	n/a	n/a	n/a	-999	3	[0, 0, 0]	n/a	FR1	1	R1385E
381.764	1.601	386900	WORD	n/a	n/a	BAY	1	3	[0, 0, 0]	n/a	FR1	1	R1385E
383.365	0.816	388505	WORD_OFF	n/a	n/a	BAY	1	3	[0, 0, 0]	n/a	FR1	1	R1385E
384.181	1.617	389313	WORD	n/a	n/a	WEB	2	3	[0, 0, 0]	n/a	FR1	1	R1385E
385.798	0.9	390929	WORD_OFF	n/a	n/a	WEB	2	3	[0, 0, 0]	n/a	FR1	1	R1385E
386.698	1.617	391829	WORD	n/a	n/a	LEAF	3	3	[0, 0, 0]	n/a	FR1	1	R1385E
388.315	0.8	393455	WORD_OFF	n/a	n/a	LEAF	3	3	[0, 0, 0]	n/a	FR1	1	R1385E
389.115	1.616	394253	WORD	n/a	n/a	TRASH	4	3	[0, 0, 0]	n/a	FR1	1	R1385E
390.731	0.984	395869	WORD_OFF	n/a	n/a	TRASH	4	3	[0, 0, 0]	n/a	FR1	1	R1385E
391.715	1.616	396850	WORD	n/a	n/a	FACE	5	3	[0, 0, 0]	n/a	FR1	1	R1385E
393.331	0.934	398466	WORD_OFF	n/a	n/a	FACE	5	3	[0, 0, 0]	n/a	FR1	1	R1385E
394.265	1.6	399397	WORD	n/a	n/a	SLUSH	6	3	[0, 0, 0]	n/a	FR1	1	R1385E
395.865	0.8	401002	WORD_OFF	n/a	n/a	SLUSH	6	3	[0, 0, 0]	n/a	FR1	1	R1385E
396.665	1.6	401800	WORD	n/a	n/a	LAWN	7	3	[0, 0, 0]	n/a	FR1	1	R1385E
398.265	0.932	403396	WORD_OFF	n/a	n/a	LAWN	7	3	[0, 0, 0]	n/a	FR1	1	R1385E
399.197	1.601	404336	WORD	n/a	n/a	SALT	8	3	[0, 0, 0]	n/a	FR1	1	R1385E
400.798	0.9	405932	WORD_OFF	n/a	n/a	SALT	8	3	[0, 0, 0]	n/a	FR1	1	R1385E
401.698	1.617	406832	WORD	n/a	n/a	MOLE	9	3	[0, 0, 0]	n/a	FR1	1	R1385E
403.315	0.949	408448	WORD_OFF	n/a	n/a	MOLE	9	3	[0, 0, 0]	n/a	FR1	1	R1385E
404.264	1.601	409399	WORD	n/a	n/a	PIN	10	3	[0, 0, 0]	n/a	FR1	1	R1385E
405.865	0.933	411004	WORD_OFF	n/a	n/a	PIN	10	3	[0, 0, 0]	n/a	FR1	1	R1385E
406.798	1.617	411935	WORD	n/a	n/a	TENT	11	3	[0, 0, 0]	n/a	FR1	1	R1385E
408.415	0.783	413551	WORD_OFF	n/a	n/a	TENT	11	3	[0, 0, 0]	n/a	FR1	1	R1385E
409.198	1.6	414338	WORD	n/a	n/a	POOL	12	3	[0, 0, 0]	n/a	FR1	1	R1385E
410.798	0.001	415932	PROB	0.001	n/a	n/a	-999	3	[2, 6, 8]	16	FR1	1	R1385E
410.799	0.0	415933	START	n/a	n/a	n/a	-999	3	[-999, -999, -999]	n/a	FR1	1	R1385E
410.798	0.001	415934	WORD_OFF	n/a	n/a	POOL	12	3	[0, 0, 0]	n/a	FR1	1	R1385E
410.799	0.0	415934	ENCODING_END	n/a	n/a	n/a	-999	3	[0, 0, 0]	n/a	FR1	1	R1385E
410.799	4.099	415934	DISTRACT_START	n/a	n/a	n/a	-999	3	[0, 0, 0]	n/a	FR1	1	R1385E
414.898	4.834	420032	PROB	4.834	n/a	n/a	-999	3	[2, 8, 5]	15	FR1	1	R1385E
419.732	4.25	424866	PROB	4.25	n/a	n/a	-999	3	[8, 5, 3]	16	FR1	1	R1385E
423.982	2.932	429116	PROB	2.932	n/a	n/a	-999	3	[4, 6, 7]	17	FR1	1	R1385E
426.914	6.25	432047	PROB	6.25	n/a	n/a	-999	3	[7, 7, 8]	20	FR1	1	R1385E
433.164	0.0	438297	STOP	n/a	n/a	n/a	-999	3	[-999, -999, -999]	n/a	FR1	1	R1385E
433.164	1.55	438300	DISTRACT_END	n/a	n/a	n/a	-999	3	[0, 0, 0]	n/a	FR1	1	R1385E
434.714	2.084	439853	REC_START	n/a	n/a	n/a	-999	3	[0, 0, 0]	n/a	FR1	1	R1385E
436.798	1.0	441931	REC_WORD	1.0	n/a	SLUSH	6	3	[0, 0, 0]	n/a	FR1	1	R1385E
437.798	1.423	442931	REC_WORD_VV	1.423	n/a	<>	-999	3	[0, 0, 0]	n/a	FR1	1	R1385E
439.221	25.739	444354	REC_WORD	25.739	n/a	LAWN	7	3	[0, 0, 0]	n/a	FR1	1	R1385E
464.96	1.888	470094	REC_END	n/a	n/a	n/a	-999	3	[0, 0, 0]	n/a	FR1	1	R1385E
466.848	10.35	471987	COUNTDOWN_START	n/a	n/a	n/a	-999	4	[0, 0, 0]	n/a	FR1	1	R1385E
477.198	0.0	482336	COUNTDOWN_END	n/a	n/a	n/a	-999	4	[0, 0, 0]	n/a	FR1	1	R1385E
477.198	2.3	482336	ENCODING_START	n/a	n/a	n/a	-999	4	[0, 0, 0]	n/a	FR1	1	R1385E
479.498	1.617	484627	WORD	n/a	n/a	HOOF	1	4	[0, 0, 0]	n/a	FR1	1	R1385E
481.115	0.982	486243	WORD_OFF	n/a	n/a	HOOF	1	4	[0, 0, 0]	n/a	FR1	1	R1385E
482.097	1.6	487225	WORD	n/a	n/a	MAT	2	4	[0, 0, 0]	n/a	FR1	1	R1385E
483.697	0.818	488830	WORD_OFF	n/a	n/a	MAT	2	4	[0, 0, 0]	n/a	FR1	1	R1385E
484.515	1.616	489648	WORD	n/a	n/a	GLOBE	3	4	[0, 0, 0]	n/a	FR1	1	R1385E
486.131	0.767	491264	WORD_OFF	n/a	n/a	GLOBE	3	4	[0, 0, 0]	n/a	FR1	1	R1385E
486.898	1.6	492031	WORD	n/a	n/a	NECK	4	4	[0, 0, 0]	n/a	FR1	1	R1385E
488.498	0.933	493627	WORD_OFF	n/a	n/a	NECK	4	4	[0, 0, 0]	n/a	FR1	1	R1385E
489.431	1.617	494567	WORD	n/a	n/a	BOY	5	4	[0, 0, 0]	n/a	FR1	1	R1385E
491.048	0.967	496183	WORD_OFF	n/a	n/a	BOY	5	4	[0, 0, 0]	n/a	FR1	1	R1385E
492.015	1.616	497145	WORD	n/a	n/a	STEAM	6	4	[0, 0, 0]	n/a	FR1	1	R1385E
493.631	0.9	498760	WORD_OFF	n/a	n/a	STEAM	6	4	[0, 0, 0]	n/a	FR1	1	R1385E
494.531	1.617	499660	WORD	n/a	n/a	CUP	7	4	[0, 0, 0]	n/a	FR1	1	R1385E
496.148	0.867	501276	WORD_OFF	n/a	n/a	CUP	7	4	[0, 0, 0]	n/a	FR1	1	R1385E
497.015	1.616	502145	WORD	n/a	n/a	KEY	8	4	[0, 0, 0]	n/a	FR1	1	R1385E
498.631	0.784	503761	WORD_OFF	n/a	n/a	KEY	8	4	[0, 0, 0]	n/a	FR1	1	R1385E
499.415	1.6	504549	WORD	n/a	n/a	NET	9	4	[0, 0, 0]	n/a	FR1	1	R1385E
501.015	0.8	506144	WORD_OFF	n/a	n/a	NET	9	4	[0, 0, 0]	n/a	FR1	1	R1385E
501.815	1.616	506942	WORD	n/a	n/a	LANE	10	4	[0, 0, 0]	n/a	FR1	1	R1385E
503.431	0.917	508568	WORD_OFF	n/a	n/a	LANE	10	4	[0, 0, 0]	n/a	FR1	1	R1385E
504.348	1.6	509478	WORD	n/a	n/a	BOOK	11	4	[0, 0, 0]	n/a	FR1	1	R1385E
505.948	0.867	511084	WORD_OFF	n/a	n/a	BOOK	11	4	[0, 0, 0]	n/a	FR1	1	R1385E
506.815	1.616	511943	WORD	n/a	n/a	SUIT	12	4	[0, 0, 0]	n/a	FR1	1	R1385E
508.431	0.0	513559	WORD_OFF	n/a	n/a	SUIT	12	4	[0, 0, 0]	n/a	FR1	1	R1385E
508.431	0.001	513562	PROB	0.001	n/a	n/a	-999	4	[4, 7, 2]	12	FR1	1	R1385E
508.432	0.0	513563	START	n/a	n/a	n/a	-999	4	[-999, -999, -999]	n/a	FR1	1	R1385E
508.432	0.0	513569	ENCODING_END	n/a	n/a	n/a	-999	4	[0, 0, 0]	n/a	FR1	1	R1385E
508.432	5.966	513569	DISTRACT_START	n/a	n/a	n/a	-999	4	[0, 0, 0]	n/a	FR1	1	R1385E
514.398	4.767	519528	PROB	4.767	n/a	n/a	-999	4	[8, 7, 2]	17	FR1	1	R1385E
519.165	5.833	524295	PROB	5.833	n/a	n/a	-999	4	[8, 6, 1]	15	FR1	1	R1385E
524.998	3.05	530128	PROB	3.05	n/a	n/a	-999	4	[6, 6, 2]	14	FR1	1	R1385E
528.048	4.316	533178	PROB	4.316	n/a	n/a	-999	4	[5, 1, 8]	14	FR1	1	R1385E
532.364	0.0	537489	DISTRACT_END	n/a	n/a	n/a	-999	4	[0, 0, 0]	n/a	FR1	1	R1385E
532.364	1.633	537494	STOP	n/a	n/a	n/a	-999	4	[-999, -999, -999]	n/a	FR1	1	R1385E
533.997	2.643	539124	REC_START	n/a	n/a	n/a	-999	4	[0, 0, 0]	n/a	FR1	1	R1385E
536.64	0.609	541770	REC_WORD	0.609	n/a	BOY	5	4	[0, 0, 0]	n/a	FR1	1	R1385E
537.249	1.0	542379	REC_WORD	1.0	n/a	SUIT	12	4	[0, 0, 0]	n/a	FR1	1	R1385E
538.249	20.379	543379	REC_WORD_VV	20.379	n/a	<>	-999	4	[0, 0, 0]	n/a	FR1	1	R1385E
558.628	5.637	563757	REC_WORD	5.637	n/a	HOOF	1	4	[0, 0, 0]	n/a	FR1	1	R1385E
564.265	1.833	569396	REC_END	n/a	n/a	n/a	-999	4	[0, 0, 0]	n/a	FR1	1	R1385E
566.098	10.351	571228	COUNTDOWN_START	n/a	n/a	n/a	-999	5	[0, 0, 0]	n/a	FR1	1	R1385E
576.449	0.0	581577	COUNTDOWN_END	n/a	n/a	n/a	-999	5	[0, 0, 0]	n/a	FR1	1	R1385E
576.449	2.266	581577	ENCODING_START	n/a	n/a	n/a	-999	5	[0, 0, 0]	n/a	FR1	1	R1385E
578.715	1.616	583847	WORD	n/a	n/a	PORK	1	5	[0, 0, 0]	n/a	FR1	1	R1385E
580.331	0.767	585463	WORD_OFF	n/a	n/a	PORK	1	5	[0, 0, 0]	n/a	FR1	1	R1385E
581.098	1.617	586230	WORD	n/a	n/a	EARTH	2	5	[0, 0, 0]	n/a	FR1	1	R1385E
582.715	0.9	587846	WORD_OFF	n/a	n/a	EARTH	2	5	[0, 0, 0]	n/a	FR1	1	R1385E
583.615	1.6	588746	WORD	n/a	n/a	RUG	3	5	[0, 0, 0]	n/a	FR1	1	R1385E
585.215	0.833	590341	WORD_OFF	n/a	n/a	RUG	3	5	[0, 0, 0]	n/a	FR1	1	R1385E
586.048	1.6	591180	WORD	n/a	n/a	VINE	4	5	[0, 0, 0]	n/a	FR1	1	R1385E
587.648	0.982	592775	WORD_OFF	n/a	n/a	VINE	4	5	[0, 0, 0]	n/a	FR1	1	R1385E
588.63	1.601	593757	WORD	n/a	n/a	CROWN	5	5	[0, 0, 0]	n/a	FR1	1	R1385E
590.231	0.984	595363	WORD_OFF	n/a	n/a	CROWN	5	5	[0, 0, 0]	n/a	FR1	1	R1385E
591.215	1.6	596345	WORD	n/a	n/a	HAT	6	5	[0, 0, 0]	n/a	FR1	1	R1385E
592.815	0.916	597940	WORD_OFF	n/a	n/a	HAT	6	5	[0, 0, 0]	n/a	FR1	1	R1385E
593.731	1.6	598860	WORD	n/a	n/a	STAIR	7	5	[0, 0, 0]	n/a	FR1	1	R1385E
595.331	0.934	600456	WORD_OFF	n/a	n/a	STAIR	7	5	[0, 0, 0]	n/a	FR1	1	R1385E
596.265	1.6	601397	WORD	n/a	n/a	SPEAR	8	5	[0, 0, 0]	n/a	FR1	1	R1385E
597.865	0.916	602992	WORD_OFF	n/a	n/a	SPEAR	8	5	[0, 0, 0]	n/a	FR1	1	R1385E
598.781	1.617	603912	WORD	n/a	n/a	STICK	9	5	[0, 0, 0]	n/a	FR1	1	R1385E
600.398	0.9	605528	WORD_OFF	n/a	n/a	STICK	9	5	[0, 0, 0]	n/a	FR1	1	R1385E
601.298	1.6	606428	WORD	n/a	n/a	HILL	10	5	[0, 0, 0]	n/a	FR1	1	R1385E
602.898	0.916	608024	WORD_OFF	n/a	n/a	HILL	10	5	[0, 0, 0]	n/a	FR1	1	R1385E
603.814	1.617	608944	WORD	n/a	n/a	CUBE	11	5	[0, 0, 0]	n/a	FR1	1	R1385E
605.431	0.95	610560	WORD_OFF	n/a	n/a	CUBE	11	5	[0, 0, 0]	n/a	FR1	1	R1385E
606.381	1.6	611511	WORD	n/a	n/a	PRINCE	12	5	[0, 0, 0]	n/a	FR1	1	R1385E
607.981	0.001	613106	WORD_OFF	n/a	n/a	PRINCE	12	5	[0, 0, 0]	n/a	FR1	1	R1385E
607.982	0.0	613106	ENCODING_END	n/a	n/a	n/a	-999	5	[0, 0, 0]	n/a	FR1	1	R1385E
607.982	0.0	613109	PROB	0.0	n/a	n/a	-999	5	[8, 4, 2]	14	FR1	1	R1385E
607.982	0.0	613109	START	n/a	n/a	n/a	-999	5	[-999, -999, -999]	n/a	FR1	1	R1385E
607.982	5.469	613116	DISTRACT_START	n/a	n/a	n/a	-999	5	[0, 0, 0]	n/a	FR1	1	R1385E
613.451	3.08	618578	PROB	3.08	n/a	n/a	-999	5	[3, 3, 4]	10	FR1	1	R1385E
616.531	3.883	621658	PROB	3.883	n/a	n/a	-999	5	[6, 3, 1]	10	FR1	1	R1385E
620.414	3.15	625541	PROB	3.15	n/a	n/a	-999	5	[6, 6, 5]	17	FR1	1	R1385E
623.564	5.6	628691	PROB	5.6	n/a	n/a	-999	5	[1, 6, 3]	10	FR1	1	R1385E
629.164	0.0	634290	STOP	n/a	n/a	n/a	-999	5	[-999, -999, -999]	n/a	FR1	1	R1385E
629.164	1.516	634296	DISTRACT_END	n/a	n/a	n/a	-999	5	[0, 0, 0]	n/a	FR1	1	R1385E
630.68	1.286	635809	REC_START	n/a	n/a	n/a	-999	5	[0, 0, 0]	n/a	FR1	1	R1385E
631.966	1.0	637092	REC_WORD	1.0	n/a	SPEAR	8	5	[0, 0, 0]	n/a	FR1	1	R1385E
632.966	0.715	638092	REC_WORD_VV	0.715	n/a	<>	-999	5	[0, 0, 0]	n/a	FR1	1	R1385E
633.681	1.0	638807	REC_WORD	1.0	n/a	STICK	9	5	[0, 0, 0]	n/a	FR1	1	R1385E
634.681	0.888	639807	REC_WORD_VV	0.888	n/a	<>	-999	5	[0, 0, 0]	n/a	FR1	1	R1385E
635.569	1.637	640695	REC_WORD	1.637	n/a	PORK	1	5	[0, 0, 0]	n/a	FR1	1	R1385E
637.206	1.466	642332	REC_WORD	1.466	n/a	EARTH	2	5	[0, 0, 0]	n/a	FR1	1	R1385E
638.672	22.271	643798	REC_WORD	22.271	n/a	CUBE	11	5	[0, 0, 0]	n/a	FR1	1	R1385E
660.943	1.655	666070	REC_END	n/a	n/a	n/a	-999	5	[0, 0, 0]	n/a	FR1	1	R1385E
662.598	10.351	667728	COUNTDOWN_START	n/a	n/a	n/a	-999	6	[0, 0, 0]	n/a	FR1	1	R1385E
672.949	0.0	678077	COUNTDOWN_END	n/a	n/a	n/a	-999	6	[0, 0, 0]	n/a	FR1	1	R1385E
672.949	2.249	678077	ENCODING_START	n/a	n/a	n/a	-999	6	[0, 0, 0]	n/a	FR1	1	R1385E
675.198	1.6	680327	WORD	n/a	n/a	PIT	1	6	[0, 0, 0]	n/a	FR1	1	R1385E
676.798	0.817	681922	WORD_OFF	n/a	n/a	PIT	1	6	[0, 0, 0]	n/a	FR1	1	R1385E
677.615	1.616	682740	WORD	n/a	n/a	SPARK	2	6	[0, 0, 0]	n/a	FR1	1	R1385E
679.231	0.8	684356	WORD_OFF	n/a	n/a	SPARK	2	6	[0, 0, 0]	n/a	FR1	1	R1385E
680.031	1.617	685154	WORD	n/a	n/a	STOOL	3	6	[0, 0, 0]	n/a	FR1	1	R1385E
681.648	0.8	686770	WORD_OFF	n/a	n/a	STOOL	3	6	[0, 0, 0]	n/a	FR1	1	R1385E
682.448	1.6	687578	WORD	n/a	n/a	CHIN	4	6	[0, 0, 0]	n/a	FR1	1	R1385E
684.048	0.899	689173	WORD_OFF	n/a	n/a	CHIN	4	6	[0, 0, 0]	n/a	FR1	1	R1385E
684.947	1.601	690073	WORD	n/a	n/a	SKIN	5	6	[0, 0, 0]	n/a	FR1	1	R1385E
686.548	0.767	691668	WORD_OFF	n/a	n/a	SKIN	5	6	[0, 0, 0]	n/a	FR1	1	R1385E
687.315	1.6	692436	WORD	n/a	n/a	DIME	6	6	[0, 0, 0]	n/a	FR1	1	R1385E
688.915	0.783	694041	WORD_OFF	n/a	n/a	DIME	6	6	[0, 0, 0]	n/a	FR1	1	R1385E
689.698	1.6	694818	WORD	n/a	n/a	TANK	7	6	[0, 0, 0]	n/a	FR1	1	R1385E
691.298	0.833	696424	WORD_OFF	n/a	n/a	TANK	7	6	[0, 0, 0]	n/a	FR1	1	R1385E
692.131	1.616	697252	WORD	n/a	n/a	POLE	8	6	[0, 0, 0]	n/a	FR1	1	R1385E
693.747	0.984	698868	WORD_OFF	n/a	n/a	POLE	8	6	[0, 0, 0]	n/a	FR1	1	R1385E
694.731	1.616	699860	WORD	n/a	n/a	BUSH	9	6	[0, 0, 0]	n/a	FR1	1	R1385E
696.347	0.767	701476	WORD_OFF	n/a	n/a	BUSH	9	6	[0, 0, 0]	n/a	FR1	1	R1385E
697.114	1.6	702243	WORD	n/a	n/a	BONE	10	6	[0, 0, 0]	n/a	FR1	1	R1385E
698.714	0.984	703838	WORD_OFF	n/a	n/a	BONE	10	6	[0, 0, 0]	n/a	FR1	1	R1385E
699.698	1.616	704820	WORD	n/a	n/a	PAGE	11	6	[0, 0, 0]	n/a	FR1	1	R1385E
701.314	0.967	706436	WORD_OFF	n/a	n/a	PAGE	11	6	[0, 0, 0]	n/a	FR1	1	R1385E
702.281	1.6	707408	WORD	n/a	n/a	FOOD	12	6	[0, 0, 0]	n/a	FR1	1	R1385E
703.881	0.001	709003	WORD_OFF	n/a	n/a	FOOD	12	6	[0, 0, 0]	n/a	FR1	1	R1385E
703.882	0.0	709003	ENCODING_END	n/a	n/a	n/a	-999	6	[0, 0, 0]	n/a	FR1	1	R1385E
703.881	0.001	709005	PROB	0.001	n/a	n/a	-999	6	[8, 4, 5]	17	FR1	1	R1385E
703.882	0.0	709006	START	n/a	n/a	n/a	-999	6	[-999, -999, -999]	n/a	FR1	1	R1385E
703.882	3.366	709013	DISTRACT_START	n/a	n/a	n/a	-999	6	[0, 0, 0]	n/a	FR1	1	R1385E
707.248	4.116	712372	PROB	4.116	n/a	n/a	-999	6	[1, 7, 3]	11	FR1	1	R1385E
711.364	3.15	716487	PROB	3.15	n/a	n/a	-999	6	[4, 2, 4]	10	FR1	1	R1385E
714.514	3.201	719637	PROB	3.201	n/a	n/a	-999	6	[2, 8, 7]	17	FR1	1	R1385E
717.715	9.149	722838	PROB	9.149	n/a	n/a	-999	6	[4, 5, 4]	13	FR1	1	R1385E
726.864	0.0	731983	DISTRACT_END	n/a	n/a	n/a	-999	6	[0, 0, 0]	n/a	FR1	1	R1385E
726.864	1.583	731987	STOP	n/a	n/a	n/a	-999	6	[-999, -999, -999]	n/a	FR1	1	R1385E
728.447	2.818	733567	REC_START	n/a	n/a	n/a	-999	6	[0, 0, 0]	n/a	FR1	1	R1385E
731.265	4.119	736388	REC_WORD	4.119	n/a	POLE	8	6	[0, 0, 0]	n/a	FR1	1	R1385E
735.384	3.707	740507	REC_WORD	3.707	n/a	FOOD	12	6	[0, 0, 0]	n/a	FR1	1	R1385E
739.091	1.0	744214	REC_WORD_VV	1.0	n/a	<>	-999	6	[0, 0, 0]	n/a	FR1	1	R1385E
740.091	1.0	745213	REC_WORD_VV	1.0	n/a	<>	-999	6	[0, 0, 0]	n/a	FR1	1	R1385E
741.091	2.119	746213	REC_WORD	2.119	n/a	CHIN	4	6	[0, 0, 0]	n/a	FR1	1	R1385E
743.21	6.62	748332	REC_WORD	6.62	n/a	SKIN	5	6	[0, 0, 0]	n/a	FR1	1	R1385E
749.83	8.865	754952	REC_WORD_VV	8.865	n/a	<>	-999	6	[0, 0, 0]	n/a	FR1	1	R1385E
758.695	1.553	763817	REC_END	n/a	n/a	n/a	-999	6	[0, 0, 0]	n/a	FR1	1	R1385E
760.248	10.351	765373	COUNTDOWN_START	n/a	n/a	n/a	-999	7	[0, 0, 0]	n/a	FR1	1	R1385E
770.599	0.0	775723	COUNTDOWN_END	n/a	n/a	n/a	-999	7	[0, 0, 0]	n/a	FR1	1	R1385E
770.599	2.082	775723	ENCODING_START	n/a	n/a	n/a	-999	7	[0, 0, 0]	n/a	FR1	1	R1385E
772.681	1.616	777799	WORD	n/a	n/a	FROG	1	7	[0, 0, 0]	n/a	FR1	1	R1385E
774.297	0.984	779414	WORD_OFF	n/a	n/a	FROG	1	7	[0, 0, 0]	n/a	FR1	1	R1385E
775.281	1.617	780406	WORD	n/a	n/a	WING	2	7	[0, 0, 0]	n/a	FR1	1	R1385E
776.898	0.983	782022	WORD_OFF	n/a	n/a	WING	2	7	[0, 0, 0]	n/a	FR1	1	R1385E
777.881	1.6	783004	WORD	n/a	n/a	STEEL	3	7	[0, 0, 0]	n/a	FR1	1	R1385E
779.481	0.933	784599	WORD_OFF	n/a	n/a	STEEL	3	7	[0, 0, 0]	n/a	FR1	1	R1385E
780.414	1.601	785540	WORD	n/a	n/a	CHIEF	4	7	[0, 0, 0]	n/a	FR1	1	R1385E
782.015	1.0	787136	WORD_OFF	n/a	n/a	CHIEF	4	7	[0, 0, 0]	n/a	FR1	1	R1385E
783.015	1.6	788138	WORD	n/a	n/a	DITCH	5	7	[0, 0, 0]	n/a	FR1	1	R1385E
784.615	0.966	789733	WORD_OFF	n/a	n/a	DITCH	5	7	[0, 0, 0]	n/a	FR1	1	R1385E
785.581	1.617	790705	WORD	n/a	n/a	JAIL	6	7	[0, 0, 0]	n/a	FR1	1	R1385E
787.198	0.766	792321	WORD_OFF	n/a	n/a	JAIL	6	7	[0, 0, 0]	n/a	FR1	1	R1385E
787.964	1.6	793088	WORD	n/a	n/a	LENS	7	7	[0, 0, 0]	n/a	FR1	1	R1385E
789.564	0.8	794683	WORD_OFF	n/a	n/a	LENS	7	7	[0, 0, 0]	n/a	FR1	1	R1385E
790.364	1.6	795491	WORD	n/a	n/a	STREET	8	7	[0, 0, 0]	n/a	FR1	1	R1385E
791.964	0.816	797086	WORD_OFF	n/a	n/a	STREET	8	7	[0, 0, 0]	n/a	FR1	1	R1385E
792.78	1.601	797904	WORD	n/a	n/a	MINK	9	7	[0, 0, 0]	n/a	FR1	1	R1385E
794.381	0.883	799500	WORD_OFF	n/a	n/a	MINK	9	7	[0, 0, 0]	n/a	FR1	1	R1385E
795.264	1.6	800390	WORD	n/a	n/a	FLEA	10	7	[0, 0, 0]	n/a	FR1	1	R1385E
796.864	0.934	801985	WORD_OFF	n/a	n/a	FLEA	10	7	[0, 0, 0]	n/a	FR1	1	R1385E
797.798	1.616	802916	WORD	n/a	n/a	HEEL	11	7	[0, 0, 0]	n/a	FR1	1	R1385E
799.414	0.784	804531	WORD_OFF	n/a	n/a	HEEL	11	7	[0, 0, 0]	n/a	FR1	1	R1385E
800.198	1.616	805319	WORD	n/a	n/a	BOLT	12	7	[0, 0, 0]	n/a	FR1	1	R1385E
801.814	0.001	806935	WORD_OFF	n/a	n/a	BOLT	12	7	[0, 0, 0]	n/a	FR1	1	R1385E
801.815	0.0	806935	ENCODING_END	n/a	n/a	n/a	-999	7	[0, 0, 0]	n/a	FR1	1	R1385E
801.815	0.0	806935	DISTRACT_START	n/a	n/a	n/a	-999	7	[0, 0, 0]	n/a	FR1	1	R1385E
801.815	0.0	806935	START	n/a	n/a	n/a	-999	7	[-999, -999, -999]	n/a	FR1	1	R1385E
801.815	7.866	806935	PROB	7.866	n/a	n/a	-999	7	[8, 6, 5]	19	FR1	1	R1385E
809.681	3.066	814801	PROB	3.066	n/a	n/a	-999	7	[4, 6, 8]	18	FR1	1	R1385E
812.747	3.351	817867	PROB	3.351	n/a	n/a	-999	7	[1, 5, 1]	7	FR1	1	R1385E
816.098	3.016	821218	PROB	3.016	n/a	n/a	-999	7	[1, 2, 1]	4	FR1	1	R1385E
819.114	3.234	824234	PROB	3.234	n/a	n/a	-999	7	[5, 5, 6]	16	FR1	1	R1385E
822.348	0.0	827468	STOP	n/a	n/a	n/a	-999	7	[-999, -999, -999]	n/a	FR1	1	R1385E
822.348	1.816	827470	DISTRACT_END	n/a	n/a	n/a	-999	7	[0, 0, 0]	n/a	FR1	1	R1385E
824.164	1.767	829289	REC_START	n/a	n/a	n/a	-999	7	[0, 0, 0]	n/a	FR1	1	R1385E
825.931	1.683	831050	REC_WORD	1.683	n/a	WING	2	7	[0, 0, 0]	n/a	FR1	1	R1385E
827.614	1.545	832733	REC_WORD	1.545	n/a	STEEL	3	7	[0, 0, 0]	n/a	FR1	1	R1385E
829.159	3.222	834278	REC_WORD	3.222	n/a	HEEL	11	7	[0, 0, 0]	n/a	FR1	1	R1385E
832.381	5.933	837500	REC_WORD	5.933	n/a	FROG	1	7	[0, 0, 0]	n/a	FR1	1	R1385E
838.314	16.113	843433	REC_WORD	16.113	n/a	MINK	9	7	[0, 0, 0]	n/a	FR1	1	R1385E
854.427	1.421	859550	REC_END	n/a	n/a	n/a	-999	7	[0, 0, 0]	n/a	FR1	1	R1385E
855.848	10.351	860973	COUNTDOWN_START	n/a	n/a	n/a	-999	8	[0, 0, 0]	n/a	FR1	1	R1385E
866.199	0.0	871312	COUNTDOWN_END	n/a	n/a	n/a	-999	8	[0, 0, 0]	n/a	FR1	1	R1385E
866.199	2.149	871323	ENCODING_START	n/a	n/a	n/a	-999	8	[0, 0, 0]	n/a	FR1	1	R1385E
868.348	1.6	873470	WORD	n/a	n/a	FOX	1	8	[0, 0, 0]	n/a	FR1	1	R1385E
869.948	0.967	875066	WORD_OFF	n/a	n/a	FOX	1	8	[0, 0, 0]	n/a	FR1	1	R1385E
870.915	1.6	876037	WORD	n/a	n/a	CLOCK	2	8	[0, 0, 0]	n/a	FR1	1	R1385E
872.515	0.85	877633	WORD_OFF	n/a	n/a	CLOCK	2	8	[0, 0, 0]	n/a	FR1	1	R1385E
873.365	1.6	878481	WORD	n/a	n/a	SKUNK	3	8	[0, 0, 0]	n/a	FR1	1	R1385E
874.965	0.783	880087	WORD_OFF	n/a	n/a	SKUNK	3	8	[0, 0, 0]	n/a	FR1	1	R1385E
875.748	1.617	880864	WORD	n/a	n/a	SNAKE	4	8	[0, 0, 0]	n/a	FR1	1	R1385E
877.365	1.0	882480	WORD_OFF	n/a	n/a	SNAKE	4	8	[0, 0, 0]	n/a	FR1	1	R1385E
878.365	1.599	883482	WORD	n/a	n/a	SHED	5	8	[0, 0, 0]	n/a	FR1	1	R1385E
879.964	0.967	885088	WORD_OFF	n/a	n/a	SHED	5	8	[0, 0, 0]	n/a	FR1	1	R1385E
880.931	1.617	886049	WORD	n/a	n/a	MOSS	6	8	[0, 0, 0]	n/a	FR1	1	R1385E
882.548	0.95	887665	WORD_OFF	n/a	n/a	MOSS	6	8	[0, 0, 0]	n/a	FR1	1	R1385E
883.498	1.6	888616	WORD	n/a	n/a	SUN	7	8	[0, 0, 0]	n/a	FR1	1	R1385E
885.098	0.916	890212	WORD_OFF	n/a	n/a	SUN	7	8	[0, 0, 0]	n/a	FR1	1	R1385E
886.014	1.617	891132	WORD	n/a	n/a	BLUSH	8	8	[0, 0, 0]	n/a	FR1	1	R1385E
887.631	0.9	892748	WORD_OFF	n/a	n/a	BLUSH	8	8	[0, 0, 0]	n/a	FR1	1	R1385E
888.531	1.6	893648	WORD	n/a	n/a	SKI	9	8	[0, 0, 0]	n/a	FR1	1	R1385E
890.131	0.95	895253	WORD_OFF	n/a	n/a	SKI	9	8	[0, 0, 0]	n/a	FR1	1	R1385E
891.081	1.617	896204	WORD	n/a	n/a	CAPE	10	8	[0, 0, 0]	n/a	FR1	1	R1385E
892.698	0.983	897820	WORD_OFF	n/a	n/a	CAPE	10	8	[0, 0, 0]	n/a	FR1	1	R1385E
893.681	1.616	898802	WORD	n/a	n/a	BRIDGE	11	8	[0, 0, 0]	n/a	FR1	1	R1385E
895.297	0.967	900418	WORD_OFF	n/a	n/a	BRIDGE	11	8	[0, 0, 0]	n/a	FR1	1	R1385E
896.264	1.6	901379	WORD	n/a	n/a	THUMB	12	8	[0, 0, 0]	n/a	FR1	1	R1385E
897.864	0.001	902981	PROB	0.001	n/a	n/a	-999	8	[8, 7, 5]	20	FR1	1	R1385E
897.865	0.0	902982	START	n/a	n/a	n/a	-999	8	[-999, -999, -999]	n/a	FR1	1	R1385E
897.864	0.001	902985	WORD_OFF	n/a	n/a	THUMB	12	8	[0, 0, 0]	n/a	FR1	1	R1385E
897.865	0.0	902985	ENCODING_END	n/a	n/a	n/a	-999	8	[0, 0, 0]	n/a	FR1	1	R1385E
897.865	8.599	902985	DISTRACT_START	n/a	n/a	n/a	-999	8	[0, 0, 0]	n/a	FR1	1	R1385E
906.464	3.35	911581	PROB	3.35	n/a	n/a	-999	8	[8, 2, 2]	12	FR1	1	R1385E
909.814	3.167	914931	PROB	3.167	n/a	n/a	-999	8	[3, 1, 1]	5	FR1	1	R1385E
912.981	4.667	918097	PROB	4.667	n/a	n/a	-999	8	[5, 1, 6]	12	FR1	1	R1385E
917.648	2.55	922764	PROB	2.55	n/a	n/a	-999	8	[8, 2, 1]	11	FR1	1	R1385E
920.198	0.0	925314	STOP	n/a	n/a	n/a	-999	8	[-999, -999, -999]	n/a	FR1	1	R1385E
920.198	1.617	925320	DISTRACT_END	n/a	n/a	n/a	-999	8	[0, 0, 0]	n/a	FR1	1	R1385E
921.815	2.392	926935	REC_START	n/a	n/a	n/a	-999	8	[0, 0, 0]	n/a	FR1	1	R1385E
924.207	1.0	929323	REC_WORD	1.0	n/a	SUN	7	8	[0, 0, 0]	n/a	FR1	1	R1385E
925.207	0.784	930323	REC_WORD_VV	0.784	n/a	<>	-999	8	[0, 0, 0]	n/a	FR1	1	R1385E
925.991	1.0	931107	REC_WORD	1.0	n/a	SKI	9	8	[0, 0, 0]	n/a	FR1	1	R1385E
926.991	3.703	932107	REC_WORD_VV	3.703	n/a	<>	-999	8	[0, 0, 0]	n/a	FR1	1	R1385E
930.694	6.953	935810	REC_WORD	6.953	n/a	CAPE	10	8	[0, 0, 0]	n/a	FR1	1	R1385E
937.647	1.0	942763	REC_WORD	1.0	n/a	SNAKE	4	8	[0, 0, 0]	n/a	FR1	1	R1385E
938.647	0.925	943763	REC_WORD_VV	0.925	n/a	<>	-999	8	[0, 0, 0]	n/a	FR1	1	R1385E
939.572	3.274	944687	REC_WORD	3.274	n/a	SHED	5	8	[0, 0, 0]	n/a	FR1	1	R1385E
942.846	9.235	947961	REC_WORD	9.235	n/a	MOSS	6	8	[0, 0, 0]	n/a	FR1	1	R1385E
952.081	1.55	957196	REC_END	n/a	n/a	n/a	-999	8	[0, 0, 0]	n/a	FR1	1	R1385E
953.631	10.35	958752	COUNTDOWN_START	n/a	n/a	n/a	-999	9	[0, 0, 0]	n/a	FR1	1	R1385E
963.981	0.0	969101	COUNTDOWN_END	n/a	n/a	n/a	-999	9	[0, 0, 0]	n/a	FR1	1	R1385E
963.981	2.234	969101	ENCODING_START	n/a	n/a	n/a	-999	9	[0, 0, 0]	n/a	FR1	1	R1385E
966.215	1.616	971330	WORD	n/a	n/a	STRAW	1	9	[0, 0, 0]	n/a	FR1	1	R1385E
967.831	0.95	972946	WORD_OFF	n/a	n/a	STRAW	1	9	[0, 0, 0]	n/a	FR1	1	R1385E
968.781	1.6	973897	WORD	n/a	n/a	SPONGE	2	9	[0, 0, 0]	n/a	FR1	1	R1385E
970.381	0.834	975493	WORD_OFF	n/a	n/a	SPONGE	2	9	[0, 0, 0]	n/a	FR1	1	R1385E
971.215	1.6	976331	WORD	n/a	n/a	SLIME	3	9	[0, 0, 0]	n/a	FR1	1	R1385E
972.815	0.816	977927	WORD_OFF	n/a	n/a	SLIME	3	9	[0, 0, 0]	n/a	FR1	1	R1385E
973.631	1.617	978745	WORD	n/a	n/a	BOWL	4	9	[0, 0, 0]	n/a	FR1	1	R1385E
975.248	0.766	980361	WORD_OFF	n/a	n/a	BOWL	4	9	[0, 0, 0]	n/a	FR1	1	R1385E
976.014	1.617	981128	WORD	n/a	n/a	CAVE	5	9	[0, 0, 0]	n/a	FR1	1	R1385E
977.631	0.783	982744	WORD_OFF	n/a	n/a	CAVE	5	9	[0, 0, 0]	n/a	FR1	1	R1385E
978.414	1.617	983531	WORD	n/a	n/a	PEA	6	9	[0, 0, 0]	n/a	FR1	1	R1385E
980.031	0.967	985147	WORD_OFF	n/a	n/a	PEA	6	9	[0, 0, 0]	n/a	FR1	1	R1385E
980.998	1.6	986108	WORD	n/a	n/a	CRANE	7	9	[0, 0, 0]	n/a	FR1	1	R1385E
982.598	0.966	987714	WORD_OFF	n/a	n/a	CRANE	7	9	[0, 0, 0]	n/a	FR1	1	R1385E
983.564	1.6	988675	WORD	n/a	n/a	SMILE	8	9	[0, 0, 0]	n/a	FR1	1	R1385E
985.164	0.783	990281	WORD_OFF	n/a	n/a	SMILE	8	9	[0, 0, 0]	n/a	FR1	1	R1385E
985.947	1.6	991058	WORD	n/a	n/a	THREAD	9	9	[0, 0, 0]	n/a	FR1	1	R1385E
987.547	0.817	992664	WORD_OFF	n/a	n/a	THREAD	9	9	[0, 0, 0]	n/a	FR1	1	R1385E
988.364	1.602	993482	WORD	n/a	n/a	SEAL	10	9	[0, 0, 0]	n/a	FR1	1	R1385E
989.966	0.831	995077	WORD_OFF	n/a	n/a	SEAL	10	9	[0, 0, 0]	n/a	FR1	1	R1385E
990.797	1.6	995916	WORD	n/a	n/a	JET	11	9	[0, 0, 0]	n/a	FR1	1	R1385E
992.397	1.0	997511	WORD_OFF	n/a	n/a	JET	11	9	[0, 0, 0]	n/a	FR1	1	R1385E
993.397	1.6	998513	WORD	n/a	n/a	KNOB	12	9	[0, 0, 0]	n/a	FR1	1	R1385E
994.997	0.002	1000109	WORD_OFF	n/a	n/a	KNOB	12	9	[0, 0, 0]	n/a	FR1	1	R1385E
994.999	0.0	1000109	ENCODING_END	n/a	n/a	n/a	-999	9	[0, 0, 0]	n/a	FR1	1	R1385E
994.998	0.001	1000112	PROB	0.001	n/a	n/a	-999	9	[4, 8, 1]	13	FR1	1	R1385E
994.999	0.0	1000113	START	n/a	n/a	n/a	-999	9	[-999, -999, -999]	n/a	FR1	1	R1385E
994.999	4.348	1000119	DISTRACT_START	n/a	n/a	n/a	-999	9	[0, 0, 0]	n/a	FR1	1	R1385E
999.347	8.668	1004460	PROB	8.668	n/a	n/a	-999	9	[5, 1, 8]	14	FR1	1	R1385E
1008.015	4.7	1013128	PROB	4.7	n/a	n/a	-999	9	[6, 8, 3]	17	FR1	1	R1385E
1012.715	5.049	1017828	PROB	5.049	n/a	n/a	-999	9	[8, 7, 4]	19	FR1	1	R1385E
1017.764	0.0	1022874	DISTRACT_END	n/a	n/a	n/a	-999	9	[0, 0, 0]	n/a	FR1	1	R1385E
1017.764	1.667	1022877	STOP	n/a	n/a	n/a	-999	9	[-999, -999, -999]	n/a	FR1	1	R1385E
1019.431	1.457	1024550	REC_START	n/a	n/a	n/a	-999	9	[0, 0, 0]	n/a	FR1	1	R1385E
1020.888	1.0	1026001	REC_WORD	1.0	n/a	SPONGE	2	9	[0, 0, 0]	n/a	FR1	1	R1385E
1021.888	0.586	1027001	REC_WORD_VV	0.586	n/a	<>	-999	9	[0, 0, 0]	n/a	FR1	1	R1385E
1022.474	2.21	1027587	REC_WORD	2.21	n/a	SLIME	3	9	[0, 0, 0]	n/a	FR1	1	R1385E
1024.684	2.474	1029796	REC_WORD	2.474	n/a	JET	11	9	[0, 0, 0]	n/a	FR1	1	R1385E
1027.158	3.48	1032270	REC_WORD	3.48	n/a	CAVE	5	9	[0, 0, 0]	n/a	FR1	1	R1385E
1030.638	19.075	1035750	REC_WORD	19.075	n/a	STRAW	1	9	[0, 0, 0]	n/a	FR1	1	R1385E
1049.713	1.819	1054821	REC_END	n/a	n/a	n/a	-999	9	[0, 0, 0]	n/a	FR1	1	R1385E
1051.532	10.349	1056642	COUNTDOWN_START	n/a	n/a	n/a	-999	10	[0, 0, 0]	n/a	FR1	1	R1385E
1061.881	0.0	1066992	COUNTDOWN_END	n/a	n/a	n/a	-999	10	[0, 0, 0]	n/a	FR1	1	R1385E
1061.881	2.033	1066992	ENCODING_START	n/a	n/a	n/a	-999	10	[0, 0, 0]	n/a	FR1	1	R1385E
1063.914	1.6	1069027	WORD	n/a	n/a	SHEET	1	10	[0, 0, 0]	n/a	FR1	1	R1385E
1065.514	0.85	1070622	WORD_OFF	n/a	n/a	SHEET	1	10	[0, 0, 0]	n/a	FR1	1	R1385E
1066.364	1.6	1071471	WORD	n/a	n/a	MOUTH	2	10	[0, 0, 0]	n/a	FR1	1	R1385E
1067.964	0.934	1073077	WORD_OFF	n/a	n/a	MOUTH	2	10	[0, 0, 0]	n/a	FR1	1	R1385E
1068.898	1.6	1074008	WORD	n/a	n/a	DOG	3	10	[0, 0, 0]	n/a	FR1	1	R1385E
1070.498	0.799	1075613	WORD_OFF	n/a	n/a	DOG	3	10	[0, 0, 0]	n/a	FR1	1	R1385E
1071.297	1.601	1076411	WORD	n/a	n/a	HOOK	4	10	[0, 0, 0]	n/a	FR1	1	R1385E
1072.898	0.816	1078006	WORD_OFF	n/a	n/a	HOOK	4	10	[0, 0, 0]	n/a	FR1	1	R1385E
1073.714	1.617	1078824	WORD	n/a	n/a	MIST	5	10	[0, 0, 0]	n/a	FR1	1	R1385E
1075.331	0.885	1080440	WORD_OFF	n/a	n/a	MIST	5	10	[0, 0, 0]	n/a	FR1	1	R1385E
1076.216	1.598	1081330	WORD	n/a	n/a	VASE	6	10	[0, 0, 0]	n/a	FR1	1	R1385E
1077.814	0.834	1082925	WORD_OFF	n/a	n/a	VASE	6	10	[0, 0, 0]	n/a	FR1	1	R1385E
1078.648	1.616	1083764	WORD	n/a	n/a	MOUSE	7	10	[0, 0, 0]	n/a	FR1	1	R1385E
1080.264	0.85	1085380	WORD_OFF	n/a	n/a	MOUSE	7	10	[0, 0, 0]	n/a	FR1	1	R1385E
1081.114	1.6	1086229	WORD	n/a	n/a	HOG	8	10	[0, 0, 0]	n/a	FR1	1	R1385E
1082.714	0.983	1087824	WORD_OFF	n/a	n/a	HOG	8	10	[0, 0, 0]	n/a	FR1	1	R1385E
1083.697	1.6	1088806	WORD	n/a	n/a	WAX	9	10	[0, 0, 0]	n/a	FR1	1	R1385E
1085.297	0.834	1090411	WORD_OFF	n/a	n/a	WAX	9	10	[0, 0, 0]	n/a	FR1	1	R1385E
1086.131	1.616	1091240	WORD	n/a	n/a	DOCK	10	10	[0, 0, 0]	n/a	FR1	1	R1385E
1087.747	0.917	1092856	WORD_OFF	n/a	n/a	DOCK	10	10	[0, 0, 0]	n/a	FR1	1	R1385E
1088.664	1.6	1093776	WORD	n/a	n/a	MAIL	11	10	[0, 0, 0]	n/a	FR1	1	R1385E
1090.264	0.883	1095371	WORD_OFF	n/a	n/a	MAIL	11	10	[0, 0, 0]	n/a	FR1	1	R1385E
1091.147	1.617	1096261	WORD	n/a	n/a	TEETH	12	10	[0, 0, 0]	n/a	FR1	1	R1385E
1092.764	0.001	1097874	PROB	0.001	n/a	n/a	-999	10	[6, 7, 3]	16	FR1	1	R1385E
1092.765	0.0	1097875	START	n/a	n/a	n/a	-999	10	[-999, -999, -999]	n/a	FR1	1	R1385E
1092.764	0.001	1097877	WORD_OFF	n/a	n/a	TEETH	12	10	[0, 0, 0]	n/a	FR1	1	R1385E
1092.765	0.0	1097877	ENCODING_END	n/a	n/a	n/a	-999	10	[0, 0, 0]	n/a	FR1	1	R1385E
1092.765	6.316	1097877	DISTRACT_START	n/a	n/a	n/a	-999	10	[0, 0, 0]	n/a	FR1	1	R1385E
1099.081	11.634	1104191	PROB	11.634	n/a	n/a	-999	10	[8, 5, 8]	21	FR1	1	R1385E
1110.715	3.05	1115824	PROB	3.05	n/a	n/a	-999	10	[3, 5, 1]	9	FR1	1	R1385E
1113.765	0.0	1118872	DISTRACT_END	n/a	n/a	n/a	-999	10	[0, 0, 0]	n/a	FR1	1	R1385E
1113.765	1.583	1118874	STOP	n/a	n/a	n/a	-999	10	[-999, -999, -999]	n/a	FR1	1	R1385E
1115.348	1.816	1120457	REC_START	n/a	n/a	n/a	-999	10	[0, 0, 0]	n/a	FR1	1	R1385E
1117.164	2.683	1122273	REC_WORD	2.683	n/a	SHEET	1	10	[0, 0, 0]	n/a	FR1	1	R1385E
1119.847	1.833	1124956	REC_WORD	1.833	n/a	TEETH	12	10	[0, 0, 0]	n/a	FR1	1	R1385E
1121.68	1.0	1126789	REC_WORD	1.0	n/a	WAX	9	10	[0, 0, 0]	n/a	FR1	1	R1385E
1122.68	22.918	1127789	REC_WORD_VV	22.918	n/a	<>	-999	10	[0, 0, 0]	n/a	FR1	1	R1385E
1145.598	1.6	1150707	REC_END	n/a	n/a	n/a	-999	10	[0, 0, 0]	n/a	FR1	1	R1385E
1147.198	10.351	1152314	COUNTDOWN_START	n/a	n/a	n/a	-999	11	[0, 0, 0]	n/a	FR1	1	R1385E
1157.549	0.0	1162653	COUNTDOWN_END	n/a	n/a	n/a	-999	11	[0, 0, 0]	n/a	FR1	1	R1385E
1157.549	2.049	1162664	ENCODING_START	n/a	n/a	n/a	-999	11	[0, 0, 0]	n/a	FR1	1	R1385E
1159.598	1.6	1164709	WORD	n/a	n/a	CONE	1	11	[0, 0, 0]	n/a	FR1	1	R1385E
1161.198	0.849	1166304	WORD_OFF	n/a	n/a	CONE	1	11	[0, 0, 0]	n/a	FR1	1	R1385E
1162.047	1.601	1167153	WORD	n/a	n/a	EEL	2	11	[0, 0, 0]	n/a	FR1	1	R1385E
1163.648	1.0	1168759	WORD_OFF	n/a	n/a	EEL	2	11	[0, 0, 0]	n/a	FR1	1	R1385E
1164.648	1.6	1169761	WORD	n/a	n/a	MOON	3	11	[0, 0, 0]	n/a	FR1	1	R1385E
1166.248	0.917	1171356	WORD_OFF	n/a	n/a	MOON	3	11	[0, 0, 0]	n/a	FR1	1	R1385E
1167.165	1.6	1172277	WORD	n/a	n/a	WOOD	4	11	[0, 0, 0]	n/a	FR1	1	R1385E
1168.765	0.933	1173872	WORD_OFF	n/a	n/a	WOOD	4	11	[0, 0, 0]	n/a	FR1	1	R1385E
1169.698	1.6	1174803	WORD	n/a	n/a	RAKE	5	11	[0, 0, 0]	n/a	FR1	1	R1385E
1171.298	0.916	1176408	WORD_OFF	n/a	n/a	RAKE	5	11	[0, 0, 0]	n/a	FR1	1	R1385E
1172.214	1.617	1177319	WORD	n/a	n/a	SPICE	6	11	[0, 0, 0]	n/a	FR1	1	R1385E
1173.831	0.934	1178934	WORD_OFF	n/a	n/a	SPICE	6	11	[0, 0, 0]	n/a	FR1	1	R1385E
1174.765	1.616	1179875	WORD	n/a	n/a	PARK	7	11	[0, 0, 0]	n/a	FR1	1	R1385E
1176.381	0.817	1181491	WORD_OFF	n/a	n/a	PARK	7	11	[0, 0, 0]	n/a	FR1	1	R1385E
1177.198	1.6	1182309	WORD	n/a	n/a	SHELL	8	11	[0, 0, 0]	n/a	FR1	1	R1385E
1178.798	0.983	1183905	WORD_OFF	n/a	n/a	SHELL	8	11	[0, 0, 0]	n/a	FR1	1	R1385E
1179.781	1.617	1184886	WORD	n/a	n/a	CLAY	9	11	[0, 0, 0]	n/a	FR1	1	R1385E
1181.398	0.783	1186502	WORD_OFF	n/a	n/a	CLAY	9	11	[0, 0, 0]	n/a	FR1	1	R1385E
1182.181	1.616	1187290	WORD	n/a	n/a	SQUARE	10	11	[0, 0, 0]	n/a	FR1	1	R1385E
1183.797	0.8	1188906	WORD_OFF	n/a	n/a	SQUARE	10	11	[0, 0, 0]	n/a	FR1	1	R1385E
1184.597	1.601	1189703	WORD	n/a	n/a	SPRING	11	11	[0, 0, 0]	n/a	FR1	1	R1385E
1186.198	0.783	1191309	WORD_OFF	n/a	n/a	SPRING	11	11	[0, 0, 0]	n/a	FR1	1	R1385E
1186.981	1.617	1192086	WORD	n/a	n/a	SOIL	12	11	[0, 0, 0]	n/a	FR1	1	R1385E
1188.598	0.0	1193702	WORD_OFF	n/a	n/a	SOIL	12	11	[0, 0, 0]	n/a	FR1	1	R1385E
1188.598	0.001	1193705	PROB	0.001	n/a	n/a	-999	11	[5, 7, 8]	20	FR1	1	R1385E
1188.599	0.0	1193706	START	n/a	n/a	n/a	-999	11	[-999, -999, -999]	n/a	FR1	1	R1385E
1188.599	0.0	1193712	ENCODING_END	n/a	n/a	n/a	-999	11	[0, 0, 0]	n/a	FR1	1	R1385E
1188.599	3.466	1193712	DISTRACT_START	n/a	n/a	n/a	-999	11	[0, 0, 0]	n/a	FR1	1	R1385E
1192.065	4.533	1197172	PROB	4.533	n/a	n/a	-999	11	[8, 3, 5]	16	FR1	1	R1385E
1196.598	3.667	1201704	PROB	3.667	n/a	n/a	-999	11	[5, 1, 7]	13	FR1	1	R1385E
1200.265	4.317	1205371	PROB	4.317	n/a	n/a	-999	11	[7, 5, 1]	13	FR1	1	R1385E
1204.582	2.667	1209688	PROB	2.667	n/a	n/a	-999	11	[4, 6, 6]	16	FR1	1	R1385E
1207.249	4.382	1212355	PROB	4.382	n/a	n/a	-999	11	[4, 5, 6]	15	FR1	1	R1385E
1211.631	0.0	1216737	STOP	n/a	n/a	n/a	-999	11	[-999, -999, -999]	n/a	FR1	1	R1385E
1211.631	1.717	1216743	DISTRACT_END	n/a	n/a	n/a	-999	11	[0, 0, 0]	n/a	FR1	1	R1385E
1213.348	2.615	1218460	REC_START	n/a	n/a	n/a	-999	11	[0, 0, 0]	n/a	FR1	1	R1385E
1215.963	3.096	1221069	REC_WORD	3.096	n/a	MOON	3	11	[0, 0, 0]	n/a	FR1	1	R1385E
1219.059	24.569	1224165	REC_WORD	24.569	n/a	EEL	2	11	[0, 0, 0]	n/a	FR1	1	R1385E
1243.628	1.77	1248731	REC_END	n/a	n/a	n/a	-999	11	[0, 0, 0]	n/a	FR1	1	R1385E
1245.398	10.351	1250502	COUNTDOWN_START	n/a	n/a	n/a	-999	12	[0, 0, 0]	n/a	FR1	1	R1385E
1255.749	0.0	1260851	COUNTDOWN_END	n/a	n/a	n/a	-999	12	[0, 0, 0]	n/a	FR1	1	R1385E
1255.749	2.099	1260861	ENCODING_START	n/a	n/a	n/a	-999	12	[0, 0, 0]	n/a	FR1	1	R1385E
1257.848	1.616	1262958	WORD	n/a	n/a	BATH	1	12	[0, 0, 0]	n/a	FR1	1	R1385E
1259.464	0.984	1264574	WORD_OFF	n/a	n/a	BATH	1	12	[0, 0, 0]	n/a	FR1	1	R1385E
1260.448	1.6	1265555	WORD	n/a	n/a	CAT	2	12	[0, 0, 0]	n/a	FR1	1	R1385E
1262.048	0.949	1267151	WORD_OFF	n/a	n/a	CAT	2	12	[0, 0, 0]	n/a	FR1	1	R1385E
1262.997	1.617	1268102	WORD	n/a	n/a	DEW	3	12	[0, 0, 0]	n/a	FR1	1	R1385E
1264.614	0.933	1269718	WORD_OFF	n/a	n/a	DEW	3	12	[0, 0, 0]	n/a	FR1	1	R1385E
1265.547	1.617	1270648	WORD	n/a	n/a	POT	4	12	[0, 0, 0]	n/a	FR1	1	R1385E
1267.164	0.983	1272264	WORD_OFF	n/a	n/a	POT	4	12	[0, 0, 0]	n/a	FR1	1	R1385E
1268.147	1.6	1273256	WORD	n/a	n/a	PHONE	5	12	[0, 0, 0]	n/a	FR1	1	R1385E
1269.747	0.884	1274852	WORD_OFF	n/a	n/a	PHONE	5	12	[0, 0, 0]	n/a	FR1	1	R1385E
1270.631	1.6	1275731	WORD	n/a	n/a	BIRD	6	12	[0, 0, 0]	n/a	FR1	1	R1385E
1272.231	0.916	1277337	WORD_OFF	n/a	n/a	BIRD	6	12	[0, 0, 0]	n/a	FR1	1	R1385E
1273.147	1.6	1278257	WORD	n/a	n/a	GLASS	7	12	[0, 0, 0]	n/a	FR1	1	R1385E
1274.747	0.95	1279852	WORD_OFF	n/a	n/a	GLASS	7	12	[0, 0, 0]	n/a	FR1	1	R1385E
1275.697	1.6	1280804	WORD	n/a	n/a	BLADE	8	12	[0, 0, 0]	n/a	FR1	1	R1385E
1277.297	0.917	1282399	WORD_OFF	n/a	n/a	BLADE	8	12	[0, 0, 0]	n/a	FR1	1	R1385E
1278.214	1.616	1283319	WORD	n/a	n/a	BROOM	9	12	[0, 0, 0]	n/a	FR1	1	R1385E
1279.83	0.934	1284935	WORD_OFF	n/a	n/a	BROOM	9	12	[0, 0, 0]	n/a	FR1	1	R1385E
1280.764	1.616	1285866	WORD	n/a	n/a	TREE	10	12	[0, 0, 0]	n/a	FR1	1	R1385E
1282.38	1.0	1287482	WORD_OFF	n/a	n/a	TREE	10	12	[0, 0, 0]	n/a	FR1	1	R1385E
1283.38	1.601	1288484	WORD	n/a	n/a	CHAIN	11	12	[0, 0, 0]	n/a	FR1	1	R1385E
1284.981	0.966	1290090	WORD_OFF	n/a	n/a	CHAIN	11	12	[0, 0, 0]	n/a	FR1	1	R1385E
1285.947	1.601	1291051	WORD	n/a	n/a	BARN	12	12	[0, 0, 0]	n/a	FR1	1	R1385E
1287.548	0.001	1292651	PROB	0.001	n/a	n/a	-999	12	[5, 8, 4]	17	FR1	1	R1385E
1287.549	0.0	1292652	START	n/a	n/a	n/a	-999	12	[-999, -999, -999]	n/a	FR1	1	R1385E
1287.548	0.001	1292656	WORD_OFF	n/a	n/a	BARN	12	12	[0, 0, 0]	n/a	FR1	1	R1385E
1287.549	0.0	1292656	ENCODING_END	n/a	n/a	n/a	-999	12	[0, 0, 0]	n/a	FR1	1	R1385E
1287.549	4.433	1292656	DISTRACT_START	n/a	n/a	n/a	-999	12	[0, 0, 0]	n/a	FR1	1	R1385E
1291.982	4.35	1297085	PROB	4.35	n/a	n/a	-999	12	[7, 4, 6]	19	FR1	1	R1385E
1296.332	5.25	1301435	PROB	5.25	n/a	n/a	-999	12	[6, 1, 3]	11	FR1	1	R1385E
1301.582	5.748	1306685	PROB	5.748	n/a	n/a	-999	12	[4, 2, 2]	8	FR1	1	R1385E
1307.33	4.468	1312433	PROB	4.468	n/a	n/a	-999	12	[1, 6, 4]	11	FR1	1	R1385E
1311.798	0.0	1316900	STOP	n/a	n/a	n/a	-999	12	[-999, -999, -999]	n/a	FR1	1	R1385E
1311.798	1.902	1316904	DISTRACT_END	n/a	n/a	n/a	-999	12	[0, 0, 0]	n/a	FR1	1	R1385E
1313.7	3.543	1318805	REC_START	n/a	n/a	n/a	-999	12	[0, 0, 0]	n/a	FR1	1	R1385E
1317.243	1.676	1322345	REC_WORD	1.676	n/a	CAT	2	12	[0, 0, 0]	n/a	FR1	1	R1385E
1318.919	8.798	1324021	REC_WORD	8.798	n/a	BROOM	9	12	[0, 0, 0]	n/a	FR1	1	R1385E
1327.717	5.43	1332819	REC_WORD	5.43	n/a	BIRD	6	12	[0, 0, 0]	n/a	FR1	1	R1385E
1333.147	10.815	1338249	REC_WORD	10.815	n/a	BATH	1	12	[0, 0, 0]	n/a	FR1	1	R1385E
1343.962	0.0	1349066	REC_END	n/a	n/a	n/a	-999	12	[0, 0, 0]	n/a	FR1	1	R1385E
