onset	duration	sample	trial_type	response_time	stim_file	item_name	serialpos	list	test	answer	experiment	session	subject
0.0	0.0	8740	INSTRUCT_START	n/a	n/a	n/a	-999	-999	[0, 0, 0]	n/a	FR1	2	R1168T
0.0	11.082	8740	INSTRUCT_END	n/a	n/a	n/a	-999	-999	[0, 0, 0]	n/a	FR1	2	R1168T
11.082	0.0	19822	SESS_START	n/a	n/a	n/a	-999	-999	[0, 0, 0]	n/a	FR1	2	R1168T
11.082	32.501	19822	MIC_TEST	n/a	n/a	n/a	-999	-999	[0, 0, 0]	n/a	FR1	2	R1168T
43.583	3.309	52321	PRACTICE_TRIAL	n/a	n/a	n/a	-999	-1	[0, 0, 0]	n/a	FR1	2	R1168T
46.892	10.428	55630	COUNTDOWN_START	n/a	n/a	n/a	-999	-1	[0, 0, 0]	n/a	FR1	2	R1168T
57.32	0.007	66057	COUNTDOWN_END	n/a	n/a	n/a	-999	-1	[0, 0, 0]	n/a	FR1	2	R1168T
57.327	1.617	66064	PRACTICE_ORIENT	n/a	n/a	n/a	-999	-1	[0, 0, 0]	n/a	FR1	2	R1168T
58.944	1.984	67681	PRACTICE_ORIENT_OFF	n/a	n/a	n/a	-999	-1	[0, 0, 0]	n/a	FR1	2	R1168T
60.928	1.617	69665	PRACTICE_WORD	n/a	n/a	ATTIC	1	-1	[0, 0, 0]	n/a	FR1	2	R1168T
62.545	1.016	71282	PRACTICE_WORD_OFF	n/a	n/a	ATTIC	-999	-1	[0, 0, 0]	n/a	FR1	2	R1168T
63.561	1.617	72298	PRACTICE_WORD	n/a	n/a	WAGON	2	-1	[0, 0, 0]	n/a	FR1	2	R1168T
65.178	0.9	73915	PRACTICE_WORD_OFF	n/a	n/a	WAGON	-999	-1	[0, 0, 0]	n/a	FR1	2	R1168T
66.078	1.617	74815	PRACTICE_WORD	n/a	n/a	RHINO	3	-1	[0, 0, 0]	n/a	FR1	2	R1168T
67.695	0.767	76431	PRACTICE_WORD_OFF	n/a	n/a	RHINO	-999	-1	[0, 0, 0]	n/a	FR1	2	R1168T
68.462	1.617	77198	PRACTICE_WORD	n/a	n/a	TONGUE	4	-1	[0, 0, 0]	n/a	FR1	2	R1168T
70.079	0.884	78815	PRACTICE_WORD_OFF	n/a	n/a	TONGUE	-999	-1	[0, 0, 0]	n/a	FR1	2	R1168T
70.963	1.617	79699	PRACTICE_WORD	n/a	n/a	WATCH	5	-1	[0, 0, 0]	n/a	FR1	2	R1168T
72.58	0.85	81316	PRACTICE_WORD_OFF	n/a	n/a	WATCH	-999	-1	[0, 0, 0]	n/a	FR1	2	R1168T
73.43	1.617	82166	PRACTICE_WORD	n/a	n/a	COTTON	6	-1	[0, 0, 0]	n/a	FR1	2	R1168T
75.047	1.0	83783	PRACTICE_WORD_OFF	n/a	n/a	COTTON	-999	-1	[0, 0, 0]	n/a	FR1	2	R1168T
76.047	1.616	84783	PRACTICE_WORD	n/a	n/a	BEAM	7	-1	[0, 0, 0]	n/a	FR1	2	R1168T
77.663	0.834	86399	PRACTICE_WORD_OFF	n/a	n/a	BEAM	-999	-1	[0, 0, 0]	n/a	FR1	2	R1168T
78.497	1.617	87233	PRACTICE_WORD	n/a	n/a	IRON	8	-1	[0, 0, 0]	n/a	FR1	2	R1168T
80.114	1.001	88850	PRACTICE_WORD_OFF	n/a	n/a	IRON	-999	-1	[0, 0, 0]	n/a	FR1	2	R1168T
81.115	1.616	89851	PRACTICE_WORD	n/a	n/a	FLOOD	9	-1	[0, 0, 0]	n/a	FR1	2	R1168T
82.731	0.983	91467	PRACTICE_WORD_OFF	n/a	n/a	FLOOD	-999	-1	[0, 0, 0]	n/a	FR1	2	R1168T
83.714	1.618	92450	PRACTICE_WORD	n/a	n/a	CHEST	10	-1	[0, 0, 0]	n/a	FR1	2	R1168T
85.332	0.883	94067	PRACTICE_WORD_OFF	n/a	n/a	CHEST	-999	-1	[0, 0, 0]	n/a	FR1	2	R1168T
86.215	1.617	94950	PRACTICE_WORD	n/a	n/a	RING	11	-1	[0, 0, 0]	n/a	FR1	2	R1168T
87.832	0.833	96567	PRACTICE_WORD_OFF	n/a	n/a	RING	-999	-1	[0, 0, 0]	n/a	FR1	2	R1168T
88.665	1.618	97400	PRACTICE_WORD	n/a	n/a	CAMEL	12	-1	[0, 0, 0]	n/a	FR1	2	R1168T
90.283	0.0	99018	PRACTICE_WORD_OFF	n/a	n/a	CAMEL	-999	-1	[0, 0, 0]	n/a	FR1	2	R1168T
90.283	0.001	99018	DISTRACT_START	n/a	n/a	n/a	-999	-1	[0, 0, 0]	n/a	FR1	2	R1168T
90.284	0.016	99019	START	n/a	n/a	n/a	-999	-1	[-999, -999, -999]	n/a	FR1	2	R1168T
90.3	5.0	99035	PROB	5.0	n/a	n/a	-999	-1	[4, 8, 8]	20	FR1	2	R1168T
95.3	4.235	104035	PROB	4.235	n/a	n/a	-999	-1	[5, 9, 2]	16	FR1	2	R1168T
99.535	6.451	108270	PROB	6.451	n/a	n/a	-999	-1	[7, 4, 8]	19	FR1	2	R1168T
105.986	4.455	114720	PROB	4.455	n/a	n/a	-999	-1	[1, 5, 4]	10	FR1	2	R1168T
110.441	0.012	119175	STOP	n/a	n/a	n/a	-999	-1	[-999, -999, -999]	n/a	FR1	2	R1168T
110.453	0.534	119187	DISTRACT_END	n/a	n/a	n/a	-999	-1	[0, 0, 0]	n/a	FR1	2	R1168T
110.987	0.517	119721	RETRIEVAL_ORIENT	n/a	n/a	n/a	-999	-1	[0, 0, 0]	n/a	FR1	2	R1168T
111.504	30.011	120238	PRACTICE_REC_START	n/a	n/a	n/a	-999	-1	[0, 0, 0]	n/a	FR1	2	R1168T
141.515	11.195	150247	PRACTICE_REC_END	n/a	n/a	n/a	-999	-1	[0, 0, 0]	n/a	FR1	2	R1168T
152.71	0.5	161442	TRIAL	n/a	n/a	n/a	-999	1	[0, 0, 0]	n/a	FR1	2	R1168T
153.21	10.428	161942	COUNTDOWN_START	n/a	n/a	n/a	-999	1	[0, 0, 0]	n/a	FR1	2	R1168T
163.638	0.007	172369	COUNTDOWN_END	n/a	n/a	n/a	-999	1	[0, 0, 0]	n/a	FR1	2	R1168T
163.645	1.618	172376	ORIENT	n/a	n/a	n/a	-999	1	[0, 0, 0]	n/a	FR1	2	R1168T
165.263	2.034	173994	ORIENT_OFF	n/a	n/a	n/a	-999	1	[0, 0, 0]	n/a	FR1	2	R1168T
167.297	1.617	176028	WORD	n/a	wordpools/wordpool_EN.txt	RAIN	1	1	[0, 0, 0]	n/a	FR1	2	R1168T
168.914	0.882	177645	WORD_OFF	n/a	n/a	RAIN	1	1	[0, 0, 0]	n/a	FR1	2	R1168T
169.796	1.601	178527	WORD	n/a	wordpools/wordpool_EN.txt	SWORD	2	1	[0, 0, 0]	n/a	FR1	2	R1168T
171.397	0.901	180127	WORD_OFF	n/a	n/a	SWORD	2	1	[0, 0, 0]	n/a	FR1	2	R1168T
172.298	1.617	181028	WORD	n/a	wordpools/wordpool_EN.txt	SIGN	3	1	[0, 0, 0]	n/a	FR1	2	R1168T
173.915	0.899	182645	WORD_OFF	n/a	n/a	SIGN	3	1	[0, 0, 0]	n/a	FR1	2	R1168T
174.814	1.601	183544	WORD	n/a	wordpools/wordpool_EN.txt	PALM	4	1	[0, 0, 0]	n/a	FR1	2	R1168T
176.415	0.85	185145	WORD_OFF	n/a	n/a	PALM	4	1	[0, 0, 0]	n/a	FR1	2	R1168T
177.265	1.617	185995	WORD	n/a	wordpools/wordpool_EN.txt	MOOSE	5	1	[0, 0, 0]	n/a	FR1	2	R1168T
178.882	0.816	187612	WORD_OFF	n/a	n/a	MOOSE	5	1	[0, 0, 0]	n/a	FR1	2	R1168T
179.698	1.601	188428	WORD	n/a	wordpools/wordpool_EN.txt	SHIP	6	1	[0, 0, 0]	n/a	FR1	2	R1168T
181.299	0.967	190029	WORD_OFF	n/a	n/a	SHIP	6	1	[0, 0, 0]	n/a	FR1	2	R1168T
182.266	1.617	190996	WORD	n/a	wordpools/wordpool_EN.txt	FOAM	7	1	[0, 0, 0]	n/a	FR1	2	R1168T
183.883	0.866	192613	WORD_OFF	n/a	n/a	FOAM	7	1	[0, 0, 0]	n/a	FR1	2	R1168T
184.749	1.618	193479	WORD	n/a	wordpools/wordpool_EN.txt	SAIL	8	1	[0, 0, 0]	n/a	FR1	2	R1168T
186.367	0.833	195097	WORD_OFF	n/a	n/a	SAIL	8	1	[0, 0, 0]	n/a	FR1	2	R1168T
187.2	1.616	195930	WORD	n/a	wordpools/wordpool_EN.txt	STAR	9	1	[0, 0, 0]	n/a	FR1	2	R1168T
188.816	0.984	197545	WORD_OFF	n/a	n/a	STAR	9	1	[0, 0, 0]	n/a	FR1	2	R1168T
189.8	1.618	198529	WORD	n/a	wordpools/wordpool_EN.txt	SKY	10	1	[0, 0, 0]	n/a	FR1	2	R1168T
191.418	0.833	200147	WORD_OFF	n/a	n/a	SKY	10	1	[0, 0, 0]	n/a	FR1	2	R1168T
192.251	1.617	200980	WORD	n/a	wordpools/wordpool_EN.txt	ARM	11	1	[0, 0, 0]	n/a	FR1	2	R1168T
193.868	0.984	202597	WORD_OFF	n/a	n/a	ARM	11	1	[0, 0, 0]	n/a	FR1	2	R1168T
194.852	1.617	203581	WORD	n/a	wordpools/wordpool_EN.txt	DOCK	12	1	[0, 0, 0]	n/a	FR1	2	R1168T
196.469	0.0	205198	WORD_OFF	n/a	n/a	DOCK	12	1	[0, 0, 0]	n/a	FR1	2	R1168T
196.469	0.001	205198	DISTRACT_START	n/a	n/a	n/a	-999	1	[0, 0, 0]	n/a	FR1	2	R1168T
196.47	0.015	205199	START	n/a	n/a	n/a	-999	1	[-999, -999, -999]	n/a	FR1	2	R1168T
196.485	4.368	205214	PROB	4.368	n/a	n/a	-999	1	[9, 2, 1]	12	FR1	2	R1168T
200.853	5.451	209582	PROB	5.451	n/a	n/a	-999	1	[3, 2, 8]	13	FR1	2	R1168T
206.304	5.934	215032	PROB	5.934	n/a	n/a	-999	1	[8, 9, 5]	22	FR1	2	R1168T
212.238	4.001	220966	PROB	4.001	n/a	n/a	-999	1	[1, 6, 5]	12	FR1	2	R1168T
216.239	3.738	224967	PROB	3.738	n/a	n/a	-999	1	[9, 1, 4]	14	FR1	2	R1168T
219.977	0.013	228705	STOP	n/a	n/a	n/a	-999	1	[-999, -999, -999]	n/a	FR1	2	R1168T
219.99	0.633	228718	DISTRACT_END	n/a	n/a	n/a	-999	1	[0, 0, 0]	n/a	FR1	2	R1168T
220.623	0.518	229351	RETRIEVAL_ORIENT	n/a	n/a	n/a	-999	1	[0, 0, 0]	n/a	FR1	2	R1168T
221.141	1.221	229869	REC_START	n/a	n/a	n/a	-999	1	[0, 0, 0]	n/a	FR1	2	R1168T
222.362	1.016	231090	REC_WORD	1.016	n/a	RAIN	1	1	[0, 0, 0]	n/a	FR1	2	R1168T
223.378	1.54	232105	REC_WORD	1.54	n/a	SKY	10	1	[0, 0, 0]	n/a	FR1	2	R1168T
224.918	26.235	233645	REC_WORD	26.235	n/a	DOCK	12	1	[0, 0, 0]	n/a	FR1	2	R1168T
251.153	5.827	259879	REC_END	n/a	n/a	n/a	-999	1	[0, 0, 0]	n/a	FR1	2	R1168T
256.98	0.5	265706	TRIAL	n/a	n/a	n/a	-999	2	[0, 0, 0]	n/a	FR1	2	R1168T
257.48	10.428	266206	COUNTDOWN_START	n/a	n/a	n/a	-999	2	[0, 0, 0]	n/a	FR1	2	R1168T
267.908	0.007	276633	COUNTDOWN_END	n/a	n/a	n/a	-999	2	[0, 0, 0]	n/a	FR1	2	R1168T
267.915	1.617	276640	ORIENT	n/a	n/a	n/a	-999	2	[0, 0, 0]	n/a	FR1	2	R1168T
269.532	2.116	278257	ORIENT_OFF	n/a	n/a	n/a	-999	2	[0, 0, 0]	n/a	FR1	2	R1168T
271.648	1.618	280373	WORD	n/a	wordpools/wordpool_EN.txt	HOSE	1	2	[0, 0, 0]	n/a	FR1	2	R1168T
273.266	0.784	281991	WORD_OFF	n/a	n/a	HOSE	1	2	[0, 0, 0]	n/a	FR1	2	R1168T
274.05	1.616	282775	WORD	n/a	wordpools/wordpool_EN.txt	TANK	2	2	[0, 0, 0]	n/a	FR1	2	R1168T
275.666	1.0	284390	WORD_OFF	n/a	n/a	TANK	2	2	[0, 0, 0]	n/a	FR1	2	R1168T
276.666	1.618	285390	WORD	n/a	wordpools/wordpool_EN.txt	BRICK	3	2	[0, 0, 0]	n/a	FR1	2	R1168T
278.284	0.967	287008	WORD_OFF	n/a	n/a	BRICK	3	2	[0, 0, 0]	n/a	FR1	2	R1168T
279.251	1.616	287975	WORD	n/a	wordpools/wordpool_EN.txt	FRUIT	4	2	[0, 0, 0]	n/a	FR1	2	R1168T
280.867	1.001	289591	WORD_OFF	n/a	n/a	FRUIT	4	2	[0, 0, 0]	n/a	FR1	2	R1168T
281.868	1.617	290592	WORD	n/a	wordpools/wordpool_EN.txt	WOOD	5	2	[0, 0, 0]	n/a	FR1	2	R1168T
283.485	0.8	292209	WORD_OFF	n/a	n/a	WOOD	5	2	[0, 0, 0]	n/a	FR1	2	R1168T
284.285	1.617	293009	WORD	n/a	wordpools/wordpool_EN.txt	ROCK	6	2	[0, 0, 0]	n/a	FR1	2	R1168T
285.902	0.967	294626	WORD_OFF	n/a	n/a	ROCK	6	2	[0, 0, 0]	n/a	FR1	2	R1168T
286.869	1.617	295593	WORD	n/a	wordpools/wordpool_EN.txt	CLOTH	7	2	[0, 0, 0]	n/a	FR1	2	R1168T
288.486	0.8	297210	WORD_OFF	n/a	n/a	CLOTH	7	2	[0, 0, 0]	n/a	FR1	2	R1168T
289.286	1.617	298010	WORD	n/a	wordpools/wordpool_EN.txt	RICE	8	2	[0, 0, 0]	n/a	FR1	2	R1168T
290.903	0.849	299627	WORD_OFF	n/a	n/a	RICE	8	2	[0, 0, 0]	n/a	FR1	2	R1168T
291.752	1.601	300476	WORD	n/a	wordpools/wordpool_EN.txt	SOAP	9	2	[0, 0, 0]	n/a	FR1	2	R1168T
293.353	0.817	302076	WORD_OFF	n/a	n/a	SOAP	9	2	[0, 0, 0]	n/a	FR1	2	R1168T
294.17	1.616	302893	WORD	n/a	wordpools/wordpool_EN.txt	CLAY	10	2	[0, 0, 0]	n/a	FR1	2	R1168T
295.786	0.967	304509	WORD_OFF	n/a	n/a	CLAY	10	2	[0, 0, 0]	n/a	FR1	2	R1168T
296.753	1.618	305476	WORD	n/a	wordpools/wordpool_EN.txt	WORLD	11	2	[0, 0, 0]	n/a	FR1	2	R1168T
298.371	0.833	307094	WORD_OFF	n/a	n/a	WORLD	11	2	[0, 0, 0]	n/a	FR1	2	R1168T
299.204	1.616	307927	WORD	n/a	wordpools/wordpool_EN.txt	SEED	12	2	[0, 0, 0]	n/a	FR1	2	R1168T
300.82	0.0	309543	WORD_OFF	n/a	n/a	SEED	12	2	[0, 0, 0]	n/a	FR1	2	R1168T
300.82	0.001	309543	DISTRACT_START	n/a	n/a	n/a	-999	2	[0, 0, 0]	n/a	FR1	2	R1168T
300.821	0.017	309544	START	n/a	n/a	n/a	-999	2	[-999, -999, -999]	n/a	FR1	2	R1168T
300.838	5.151	309561	PROB	5.151	n/a	n/a	-999	2	[5, 7, 3]	15	FR1	2	R1168T
305.989	5.733	314712	PROB	5.733	n/a	n/a	-999	2	[4, 5, 2]	11	FR1	2	R1168T
311.722	2.735	320444	PROB	2.735	n/a	n/a	-999	2	[2, 1, 8]	11	FR1	2	R1168T
314.457	3.651	323179	PROB	3.651	n/a	n/a	-999	2	[1, 1, 4]	6	FR1	2	R1168T
318.108	5.892	326830	PROB	5.892	n/a	n/a	-999	2	[5, 9, 7]	21	FR1	2	R1168T
324.0	0.009	332722	STOP	n/a	n/a	n/a	-999	2	[-999, -999, -999]	n/a	FR1	2	R1168T
324.009	0.566	332731	DISTRACT_END	n/a	n/a	n/a	-999	2	[0, 0, 0]	n/a	FR1	2	R1168T
324.575	0.518	333297	RETRIEVAL_ORIENT	n/a	n/a	n/a	-999	2	[0, 0, 0]	n/a	FR1	2	R1168T
325.093	9.025	333815	REC_START	n/a	n/a	n/a	-999	2	[0, 0, 0]	n/a	FR1	2	R1168T
334.118	20.987	342839	REC_WORD	20.987	n/a	WORLD	11	2	[0, 0, 0]	n/a	FR1	2	R1168T
355.105	6.277	363825	REC_END	n/a	n/a	n/a	-999	2	[0, 0, 0]	n/a	FR1	2	R1168T
361.382	0.5	370102	TRIAL	n/a	n/a	n/a	-999	3	[0, 0, 0]	n/a	FR1	2	R1168T
361.882	10.428	370601	COUNTDOWN_START	n/a	n/a	n/a	-999	3	[0, 0, 0]	n/a	FR1	2	R1168T
372.31	0.007	381029	COUNTDOWN_END	n/a	n/a	n/a	-999	3	[0, 0, 0]	n/a	FR1	2	R1168T
372.317	1.617	381036	ORIENT	n/a	n/a	n/a	-999	3	[0, 0, 0]	n/a	FR1	2	R1168T
373.934	2.018	382653	ORIENT_OFF	n/a	n/a	n/a	-999	3	[0, 0, 0]	n/a	FR1	2	R1168T
375.952	1.617	384671	WORD	n/a	wordpools/wordpool_EN.txt	PEN	1	3	[0, 0, 0]	n/a	FR1	2	R1168T
377.569	0.85	386288	WORD_OFF	n/a	n/a	PEN	1	3	[0, 0, 0]	n/a	FR1	2	R1168T
378.419	1.617	387138	WORD	n/a	wordpools/wordpool_EN.txt	SMILE	2	3	[0, 0, 0]	n/a	FR1	2	R1168T
380.036	0.833	388754	WORD_OFF	n/a	n/a	SMILE	2	3	[0, 0, 0]	n/a	FR1	2	R1168T
380.869	1.617	389587	WORD	n/a	wordpools/wordpool_EN.txt	SKUNK	3	3	[0, 0, 0]	n/a	FR1	2	R1168T
382.486	0.917	391204	WORD_OFF	n/a	n/a	SKUNK	3	3	[0, 0, 0]	n/a	FR1	2	R1168T
383.403	1.617	392121	WORD	n/a	wordpools/wordpool_EN.txt	SINK	4	3	[0, 0, 0]	n/a	FR1	2	R1168T
385.02	0.983	393738	WORD_OFF	n/a	n/a	SINK	4	3	[0, 0, 0]	n/a	FR1	2	R1168T
386.003	1.617	394721	WORD	n/a	wordpools/wordpool_EN.txt	BENCH	5	3	[0, 0, 0]	n/a	FR1	2	R1168T
387.62	0.784	396338	WORD_OFF	n/a	n/a	BENCH	5	3	[0, 0, 0]	n/a	FR1	2	R1168T
388.404	1.617	397122	WORD	n/a	wordpools/wordpool_EN.txt	PEA	6	3	[0, 0, 0]	n/a	FR1	2	R1168T
390.021	0.917	398739	WORD_OFF	n/a	n/a	PEA	6	3	[0, 0, 0]	n/a	FR1	2	R1168T
390.938	1.617	399656	WORD	n/a	wordpools/wordpool_EN.txt	THUMB	7	3	[0, 0, 0]	n/a	FR1	2	R1168T
392.555	0.883	401273	WORD_OFF	n/a	n/a	THUMB	7	3	[0, 0, 0]	n/a	FR1	2	R1168T
393.438	1.617	402156	WORD	n/a	wordpools/wordpool_EN.txt	FOOT	8	3	[0, 0, 0]	n/a	FR1	2	R1168T
395.055	0.833	403773	WORD_OFF	n/a	n/a	FOOT	8	3	[0, 0, 0]	n/a	FR1	2	R1168T
395.888	1.617	404606	WORD	n/a	wordpools/wordpool_EN.txt	TAIL	9	3	[0, 0, 0]	n/a	FR1	2	R1168T
397.505	0.951	406222	WORD_OFF	n/a	n/a	TAIL	9	3	[0, 0, 0]	n/a	FR1	2	R1168T
398.456	1.617	407173	WORD	n/a	wordpools/wordpool_EN.txt	BARN	10	3	[0, 0, 0]	n/a	FR1	2	R1168T
400.073	0.8	408790	WORD_OFF	n/a	n/a	BARN	10	3	[0, 0, 0]	n/a	FR1	2	R1168T
400.873	1.617	409590	WORD	n/a	wordpools/wordpool_EN.txt	FOX	11	3	[0, 0, 0]	n/a	FR1	2	R1168T
402.49	0.9	411207	WORD_OFF	n/a	n/a	FOX	11	3	[0, 0, 0]	n/a	FR1	2	R1168T
403.39	1.617	412107	WORD	n/a	wordpools/wordpool_EN.txt	CALF	12	3	[0, 0, 0]	n/a	FR1	2	R1168T
405.007	0.0	413724	WORD_OFF	n/a	n/a	CALF	12	3	[0, 0, 0]	n/a	FR1	2	R1168T
405.007	0.0	413724	DISTRACT_START	n/a	n/a	n/a	-999	3	[0, 0, 0]	n/a	FR1	2	R1168T
405.007	0.016	413724	START	n/a	n/a	n/a	-999	3	[-999, -999, -999]	n/a	FR1	2	R1168T
405.023	7.268	413740	PROB	7.268	n/a	n/a	-999	3	[4, 8, 9]	21	FR1	2	R1168T
412.291	6.335	421008	PROB	6.335	n/a	n/a	-999	3	[6, 1, 6]	13	FR1	2	R1168T
418.626	4.317	427342	PROB	4.317	n/a	n/a	-999	3	[8, 9, 5]	22	FR1	2	R1168T
422.943	3.249	431659	PROB	3.249	n/a	n/a	-999	3	[3, 3, 5]	11	FR1	2	R1168T
426.192	0.018	434908	STOP	n/a	n/a	n/a	-999	3	[-999, -999, -999]	n/a	FR1	2	R1168T
426.21	0.634	434926	DISTRACT_END	n/a	n/a	n/a	-999	3	[0, 0, 0]	n/a	FR1	2	R1168T
426.844	0.517	435560	RETRIEVAL_ORIENT	n/a	n/a	n/a	-999	3	[0, 0, 0]	n/a	FR1	2	R1168T
427.361	1.397	436077	REC_START	n/a	n/a	n/a	-999	3	[0, 0, 0]	n/a	FR1	2	R1168T
428.758	1.053	437474	REC_WORD	1.053	n/a	CALF	12	3	[0, 0, 0]	n/a	FR1	2	R1168T
429.811	2.629	438527	REC_WORD	2.629	n/a	SKUNK	3	3	[0, 0, 0]	n/a	FR1	2	R1168T
432.44	24.936	441155	REC_WORD	24.936	n/a	PEN	1	3	[0, 0, 0]	n/a	FR1	2	R1168T
457.376	5.041	466090	REC_END	n/a	n/a	n/a	-999	3	[0, 0, 0]	n/a	FR1	2	R1168T
462.417	0.5	471131	TRIAL	n/a	n/a	n/a	-999	4	[0, 0, 0]	n/a	FR1	2	R1168T
462.917	10.428	471631	COUNTDOWN_START	n/a	n/a	n/a	-999	4	[0, 0, 0]	n/a	FR1	2	R1168T
473.345	0.008	482058	COUNTDOWN_END	n/a	n/a	n/a	-999	4	[0, 0, 0]	n/a	FR1	2	R1168T
473.353	1.616	482066	ORIENT	n/a	n/a	n/a	-999	4	[0, 0, 0]	n/a	FR1	2	R1168T
474.969	2.101	483682	ORIENT_OFF	n/a	n/a	n/a	-999	4	[0, 0, 0]	n/a	FR1	2	R1168T
477.07	1.616	485783	WORD	n/a	wordpools/wordpool_EN.txt	COW	1	4	[0, 0, 0]	n/a	FR1	2	R1168T
478.686	0.934	487399	WORD_OFF	n/a	n/a	COW	1	4	[0, 0, 0]	n/a	FR1	2	R1168T
479.62	1.617	488333	WORD	n/a	wordpools/wordpool_EN.txt	SPRING	2	4	[0, 0, 0]	n/a	FR1	2	R1168T
481.237	0.784	489950	WORD_OFF	n/a	n/a	SPRING	2	4	[0, 0, 0]	n/a	FR1	2	R1168T
482.021	1.616	490734	WORD	n/a	wordpools/wordpool_EN.txt	BUSH	3	4	[0, 0, 0]	n/a	FR1	2	R1168T
483.637	0.884	492349	WORD_OFF	n/a	n/a	BUSH	3	4	[0, 0, 0]	n/a	FR1	2	R1168T
484.521	1.617	493233	WORD	n/a	wordpools/wordpool_EN.txt	LAMB	4	4	[0, 0, 0]	n/a	FR1	2	R1168T
486.138	0.834	494850	WORD_OFF	n/a	n/a	LAMB	4	4	[0, 0, 0]	n/a	FR1	2	R1168T
486.972	1.617	495684	WORD	n/a	wordpools/wordpool_EN.txt	PLANT	5	4	[0, 0, 0]	n/a	FR1	2	R1168T
488.589	0.983	497301	WORD_OFF	n/a	n/a	PLANT	5	4	[0, 0, 0]	n/a	FR1	2	R1168T
489.572	1.617	498284	WORD	n/a	wordpools/wordpool_EN.txt	VINE	6	4	[0, 0, 0]	n/a	FR1	2	R1168T
491.189	0.767	499901	WORD_OFF	n/a	n/a	VINE	6	4	[0, 0, 0]	n/a	FR1	2	R1168T
491.956	1.617	500668	WORD	n/a	wordpools/wordpool_EN.txt	HOOF	7	4	[0, 0, 0]	n/a	FR1	2	R1168T
493.573	0.967	502285	WORD_OFF	n/a	n/a	HOOF	7	4	[0, 0, 0]	n/a	FR1	2	R1168T
494.54	1.617	503252	WORD	n/a	wordpools/wordpool_EN.txt	TEA	8	4	[0, 0, 0]	n/a	FR1	2	R1168T
496.157	0.9	504869	WORD_OFF	n/a	n/a	TEA	8	4	[0, 0, 0]	n/a	FR1	2	R1168T
497.057	1.616	505769	WORD	n/a	wordpools/wordpool_EN.txt	GRASS	9	4	[0, 0, 0]	n/a	FR1	2	R1168T
498.673	0.784	507385	WORD_OFF	n/a	n/a	GRASS	9	4	[0, 0, 0]	n/a	FR1	2	R1168T
499.457	1.617	508169	WORD	n/a	wordpools/wordpool_EN.txt	JEEP	10	4	[0, 0, 0]	n/a	FR1	2	R1168T
501.074	0.784	509785	WORD_OFF	n/a	n/a	JEEP	10	4	[0, 0, 0]	n/a	FR1	2	R1168T
501.858	1.617	510569	WORD	n/a	wordpools/wordpool_EN.txt	DITCH	11	4	[0, 0, 0]	n/a	FR1	2	R1168T
503.475	0.95	512186	WORD_OFF	n/a	n/a	DITCH	11	4	[0, 0, 0]	n/a	FR1	2	R1168T
504.425	1.617	513136	WORD	n/a	wordpools/wordpool_EN.txt	BEAN	12	4	[0, 0, 0]	n/a	FR1	2	R1168T
506.042	0.0	514753	WORD_OFF	n/a	n/a	BEAN	12	4	[0, 0, 0]	n/a	FR1	2	R1168T
506.042	0.0	514753	DISTRACT_START	n/a	n/a	n/a	-999	4	[0, 0, 0]	n/a	FR1	2	R1168T
506.042	0.017	514753	START	n/a	n/a	n/a	-999	4	[-999, -999, -999]	n/a	FR1	2	R1168T
506.059	6.067	514770	PROB	6.067	n/a	n/a	-999	4	[1, 6, 3]	10	FR1	2	R1168T
512.126	6.435	520837	PROB	6.435	n/a	n/a	-999	4	[6, 7, 5]	18	FR1	2	R1168T
518.561	4.651	527271	PROB	4.651	n/a	n/a	-999	4	[8, 3, 7]	18	FR1	2	R1168T
523.212	8.476	531922	PROB	8.476	n/a	n/a	-999	4	[7, 6, 5]	18	FR1	2	R1168T
531.688	0.008	540398	STOP	n/a	n/a	n/a	-999	4	[-999, -999, -999]	n/a	FR1	2	R1168T
531.696	0.551	540406	DISTRACT_END	n/a	n/a	n/a	-999	4	[0, 0, 0]	n/a	FR1	2	R1168T
532.247	0.516	540957	RETRIEVAL_ORIENT	n/a	n/a	n/a	-999	4	[0, 0, 0]	n/a	FR1	2	R1168T
532.763	30.0	541473	REC_START	n/a	n/a	n/a	-999	4	[0, 0, 0]	n/a	FR1	2	R1168T
562.763	0.011	571471	REC_WORD_VV	0.011	n/a	<>	-999	4	[0, 0, 0]	n/a	FR1	2	R1168T
562.774	6.463	571482	REC_END	n/a	n/a	n/a	-999	4	[0, 0, 0]	n/a	FR1	2	R1168T
569.237	0.5	577945	TRIAL	n/a	n/a	n/a	-999	5	[0, 0, 0]	n/a	FR1	2	R1168T
569.737	10.428	578445	COUNTDOWN_START	n/a	n/a	n/a	-999	5	[0, 0, 0]	n/a	FR1	2	R1168T
580.165	0.007	588872	COUNTDOWN_END	n/a	n/a	n/a	-999	5	[0, 0, 0]	n/a	FR1	2	R1168T
580.172	1.616	588879	ORIENT	n/a	n/a	n/a	-999	5	[0, 0, 0]	n/a	FR1	2	R1168T
581.788	2.0	590495	ORIENT_OFF	n/a	n/a	n/a	-999	5	[0, 0, 0]	n/a	FR1	2	R1168T
583.788	1.618	592495	WORD	n/a	wordpools/wordpool_EN.txt	APE	1	5	[0, 0, 0]	n/a	FR1	2	R1168T
585.406	0.867	594113	WORD_OFF	n/a	n/a	APE	1	5	[0, 0, 0]	n/a	FR1	2	R1168T
586.273	1.617	594980	WORD	n/a	wordpools/wordpool_EN.txt	BANK	2	5	[0, 0, 0]	n/a	FR1	2	R1168T
587.89	0.849	596596	WORD_OFF	n/a	n/a	BANK	2	5	[0, 0, 0]	n/a	FR1	2	R1168T
588.739	1.601	597445	WORD	n/a	wordpools/wordpool_EN.txt	FORT	3	5	[0, 0, 0]	n/a	FR1	2	R1168T
590.34	0.867	599046	WORD_OFF	n/a	n/a	FORT	3	5	[0, 0, 0]	n/a	FR1	2	R1168T
591.207	1.616	599913	WORD	n/a	wordpools/wordpool_EN.txt	MOUSE	4	5	[0, 0, 0]	n/a	FR1	2	R1168T
592.823	0.801	601529	WORD_OFF	n/a	n/a	MOUSE	4	5	[0, 0, 0]	n/a	FR1	2	R1168T
593.624	1.617	602330	WORD	n/a	wordpools/wordpool_EN.txt	MOON	5	5	[0, 0, 0]	n/a	FR1	2	R1168T
595.241	0.834	603947	WORD_OFF	n/a	n/a	MOON	5	5	[0, 0, 0]	n/a	FR1	2	R1168T
596.075	1.616	604781	WORD	n/a	wordpools/wordpool_EN.txt	WAVE	6	5	[0, 0, 0]	n/a	FR1	2	R1168T
597.691	0.934	606397	WORD_OFF	n/a	n/a	WAVE	6	5	[0, 0, 0]	n/a	FR1	2	R1168T
598.625	1.617	607331	WORD	n/a	wordpools/wordpool_EN.txt	BOOK	7	5	[0, 0, 0]	n/a	FR1	2	R1168T
600.242	0.851	608948	WORD_OFF	n/a	n/a	BOOK	7	5	[0, 0, 0]	n/a	FR1	2	R1168T
601.093	1.615	609799	WORD	n/a	wordpools/wordpool_EN.txt	TRASH	8	5	[0, 0, 0]	n/a	FR1	2	R1168T
602.708	0.902	611414	WORD_OFF	n/a	n/a	TRASH	8	5	[0, 0, 0]	n/a	FR1	2	R1168T
603.61	1.617	612316	WORD	n/a	wordpools/wordpool_EN.txt	BOMB	9	5	[0, 0, 0]	n/a	FR1	2	R1168T
605.227	0.883	613932	WORD_OFF	n/a	n/a	BOMB	9	5	[0, 0, 0]	n/a	FR1	2	R1168T
606.11	1.616	614815	WORD	n/a	wordpools/wordpool_EN.txt	SHEEP	10	5	[0, 0, 0]	n/a	FR1	2	R1168T
607.726	0.917	616431	WORD_OFF	n/a	n/a	SHEEP	10	5	[0, 0, 0]	n/a	FR1	2	R1168T
608.643	1.618	617348	WORD	n/a	wordpools/wordpool_EN.txt	TRAIN	11	5	[0, 0, 0]	n/a	FR1	2	R1168T
610.261	0.9	618966	WORD_OFF	n/a	n/a	TRAIN	11	5	[0, 0, 0]	n/a	FR1	2	R1168T
611.161	1.616	619866	WORD	n/a	wordpools/wordpool_EN.txt	GOLD	12	5	[0, 0, 0]	n/a	FR1	2	R1168T
612.777	0.0	621482	WORD_OFF	n/a	n/a	GOLD	12	5	[0, 0, 0]	n/a	FR1	2	R1168T
612.777	0.0	621482	DISTRACT_START	n/a	n/a	n/a	-999	5	[0, 0, 0]	n/a	FR1	2	R1168T
612.777	0.017	621482	START	n/a	n/a	n/a	-999	5	[-999, -999, -999]	n/a	FR1	2	R1168T
612.794	12.37	621499	PROB	12.37	n/a	n/a	-999	5	[7, 9, 7]	23	FR1	2	R1168T
625.164	4.834	633868	PROB	4.834	n/a	n/a	-999	5	[5, 4, 5]	14	FR1	2	R1168T
629.998	8.898	638702	PROB	8.898	n/a	n/a	-999	5	[6, 9, 4]	19	FR1	2	R1168T
638.896	0.02	647600	STOP	n/a	n/a	n/a	-999	5	[-999, -999, -999]	n/a	FR1	2	R1168T
638.916	0.533	647620	DISTRACT_END	n/a	n/a	n/a	-999	5	[0, 0, 0]	n/a	FR1	2	R1168T
639.449	0.518	648152	RETRIEVAL_ORIENT	n/a	n/a	n/a	-999	5	[0, 0, 0]	n/a	FR1	2	R1168T
639.967	1.012	648670	REC_START	n/a	n/a	n/a	-999	5	[0, 0, 0]	n/a	FR1	2	R1168T
640.979	1.021	649682	REC_WORD	1.021	n/a	APE	1	5	[0, 0, 0]	n/a	FR1	2	R1168T
642.0	1.019	650703	REC_WORD	1.019	n/a	BANK	2	5	[0, 0, 0]	n/a	FR1	2	R1168T
643.019	3.116	651722	REC_WORD	3.116	n/a	MOUSE	4	5	[0, 0, 0]	n/a	FR1	2	R1168T
646.135	6.753	654838	REC_WORD	6.753	n/a	BOMB	9	5	[0, 0, 0]	n/a	FR1	2	R1168T
652.888	17.09	661591	REC_WORD	17.09	n/a	FORT	3	5	[0, 0, 0]	n/a	FR1	2	R1168T
669.978	5.777	678680	REC_END	n/a	n/a	n/a	-999	5	[0, 0, 0]	n/a	FR1	2	R1168T
675.755	0.5	684456	TRIAL	n/a	n/a	n/a	-999	6	[0, 0, 0]	n/a	FR1	2	R1168T
676.255	10.428	684956	COUNTDOWN_START	n/a	n/a	n/a	-999	6	[0, 0, 0]	n/a	FR1	2	R1168T
686.683	0.007	695384	COUNTDOWN_END	n/a	n/a	n/a	-999	6	[0, 0, 0]	n/a	FR1	2	R1168T
686.69	1.618	695391	ORIENT	n/a	n/a	n/a	-999	6	[0, 0, 0]	n/a	FR1	2	R1168T
688.308	2.151	697009	ORIENT_OFF	n/a	n/a	n/a	-999	6	[0, 0, 0]	n/a	FR1	2	R1168T
690.459	1.617	699160	WORD	n/a	wordpools/wordpool_EN.txt	PLANE	1	6	[0, 0, 0]	n/a	FR1	2	R1168T
692.076	0.95	700776	WORD_OFF	n/a	n/a	PLANE	1	6	[0, 0, 0]	n/a	FR1	2	R1168T
693.026	1.616	701726	WORD	n/a	wordpools/wordpool_EN.txt	NET	2	6	[0, 0, 0]	n/a	FR1	2	R1168T
694.642	0.918	703342	WORD_OFF	n/a	n/a	NET	2	6	[0, 0, 0]	n/a	FR1	2	R1168T
695.56	1.617	704260	WORD	n/a	wordpools/wordpool_EN.txt	MOLE	3	6	[0, 0, 0]	n/a	FR1	2	R1168T
697.177	0.8	705877	WORD_OFF	n/a	n/a	MOLE	3	6	[0, 0, 0]	n/a	FR1	2	R1168T
697.977	1.617	706677	WORD	n/a	wordpools/wordpool_EN.txt	ZOO	4	6	[0, 0, 0]	n/a	FR1	2	R1168T
699.594	0.983	708294	WORD_OFF	n/a	n/a	ZOO	4	6	[0, 0, 0]	n/a	FR1	2	R1168T
700.577	1.617	709277	WORD	n/a	wordpools/wordpool_EN.txt	WHEEL	5	6	[0, 0, 0]	n/a	FR1	2	R1168T
702.194	0.767	710894	WORD_OFF	n/a	n/a	WHEEL	5	6	[0, 0, 0]	n/a	FR1	2	R1168T
702.961	1.617	711661	WORD	n/a	wordpools/wordpool_EN.txt	SPARK	6	6	[0, 0, 0]	n/a	FR1	2	R1168T
704.578	0.983	713278	WORD_OFF	n/a	n/a	SPARK	6	6	[0, 0, 0]	n/a	FR1	2	R1168T
705.561	1.618	714261	WORD	n/a	wordpools/wordpool_EN.txt	JET	7	6	[0, 0, 0]	n/a	FR1	2	R1168T
707.179	0.866	715879	WORD_OFF	n/a	n/a	JET	7	6	[0, 0, 0]	n/a	FR1	2	R1168T
708.045	1.616	716745	WORD	n/a	wordpools/wordpool_EN.txt	ICE	8	6	[0, 0, 0]	n/a	FR1	2	R1168T
709.661	0.935	718360	WORD_OFF	n/a	n/a	ICE	8	6	[0, 0, 0]	n/a	FR1	2	R1168T
710.596	1.617	719295	WORD	n/a	wordpools/wordpool_EN.txt	SKI	9	6	[0, 0, 0]	n/a	FR1	2	R1168T
712.213	0.767	720912	WORD_OFF	n/a	n/a	SKI	9	6	[0, 0, 0]	n/a	FR1	2	R1168T
712.98	1.617	721679	WORD	n/a	wordpools/wordpool_EN.txt	CLOUD	10	6	[0, 0, 0]	n/a	FR1	2	R1168T
714.597	0.983	723296	WORD_OFF	n/a	n/a	CLOUD	10	6	[0, 0, 0]	n/a	FR1	2	R1168T
715.58	1.617	724279	WORD	n/a	wordpools/wordpool_EN.txt	SLIME	11	6	[0, 0, 0]	n/a	FR1	2	R1168T
717.197	0.884	725896	WORD_OFF	n/a	n/a	SLIME	11	6	[0, 0, 0]	n/a	FR1	2	R1168T
718.081	1.615	726780	WORD	n/a	wordpools/wordpool_EN.txt	BEAR	12	6	[0, 0, 0]	n/a	FR1	2	R1168T
719.696	0.0	728395	WORD_OFF	n/a	n/a	BEAR	12	6	[0, 0, 0]	n/a	FR1	2	R1168T
719.696	0.001	728395	DISTRACT_START	n/a	n/a	n/a	-999	6	[0, 0, 0]	n/a	FR1	2	R1168T
719.697	0.016	728396	START	n/a	n/a	n/a	-999	6	[-999, -999, -999]	n/a	FR1	2	R1168T
719.713	5.902	728412	PROB	5.902	n/a	n/a	-999	6	[1, 7, 9]	17	FR1	2	R1168T
725.615	3.05	734314	PROB	3.05	n/a	n/a	-999	6	[5, 4, 1]	10	FR1	2	R1168T
728.665	5.034	737363	PROB	5.034	n/a	n/a	-999	6	[9, 4, 1]	14	FR1	2	R1168T
733.699	2.701	742397	PROB	2.701	n/a	n/a	-999	6	[1, 5, 5]	11	FR1	2	R1168T
736.4	4.343	745098	PROB	4.343	n/a	n/a	-999	6	[9, 7, 6]	22	FR1	2	R1168T
740.743	0.007	749441	STOP	n/a	n/a	n/a	-999	6	[-999, -999, -999]	n/a	FR1	2	R1168T
740.75	0.618	749448	DISTRACT_END	n/a	n/a	n/a	-999	6	[0, 0, 0]	n/a	FR1	2	R1168T
741.368	0.517	750066	RETRIEVAL_ORIENT	n/a	n/a	n/a	-999	6	[0, 0, 0]	n/a	FR1	2	R1168T
741.885	2.341	750583	REC_START	n/a	n/a	n/a	-999	6	[0, 0, 0]	n/a	FR1	2	R1168T
744.226	1.641	752923	REC_WORD	1.641	n/a	SLIME	11	6	[0, 0, 0]	n/a	FR1	2	R1168T
745.867	26.029	754564	REC_WORD	26.029	n/a	BEAR	12	6	[0, 0, 0]	n/a	FR1	2	R1168T
771.896	5.945	780592	REC_END	n/a	n/a	n/a	-999	6	[0, 0, 0]	n/a	FR1	2	R1168T
777.841	0.5	786537	TRIAL	n/a	n/a	n/a	-999	7	[0, 0, 0]	n/a	FR1	2	R1168T
778.341	10.428	787036	COUNTDOWN_START	n/a	n/a	n/a	-999	7	[0, 0, 0]	n/a	FR1	2	R1168T
788.769	0.007	797464	COUNTDOWN_END	n/a	n/a	n/a	-999	7	[0, 0, 0]	n/a	FR1	2	R1168T
788.776	1.618	797471	ORIENT	n/a	n/a	n/a	-999	7	[0, 0, 0]	n/a	FR1	2	R1168T
790.394	2.15	799089	ORIENT_OFF	n/a	n/a	n/a	-999	7	[0, 0, 0]	n/a	FR1	2	R1168T
792.544	1.617	801239	WORD	n/a	wordpools/wordpool_EN.txt	POLE	1	7	[0, 0, 0]	n/a	FR1	2	R1168T
794.161	0.866	802856	WORD_OFF	n/a	n/a	POLE	1	7	[0, 0, 0]	n/a	FR1	2	R1168T
795.027	1.617	803722	WORD	n/a	wordpools/wordpool_EN.txt	BLOOM	2	7	[0, 0, 0]	n/a	FR1	2	R1168T
796.644	0.868	805338	WORD_OFF	n/a	n/a	BLOOM	2	7	[0, 0, 0]	n/a	FR1	2	R1168T
797.512	1.616	806206	WORD	n/a	wordpools/wordpool_EN.txt	SALT	3	7	[0, 0, 0]	n/a	FR1	2	R1168T
799.128	0.951	807822	WORD_OFF	n/a	n/a	SALT	3	7	[0, 0, 0]	n/a	FR1	2	R1168T
800.079	1.616	808773	WORD	n/a	wordpools/wordpool_EN.txt	POND	4	7	[0, 0, 0]	n/a	FR1	2	R1168T
801.695	0.983	810389	WORD_OFF	n/a	n/a	POND	4	7	[0, 0, 0]	n/a	FR1	2	R1168T
802.678	1.618	811372	WORD	n/a	wordpools/wordpool_EN.txt	WAND	5	7	[0, 0, 0]	n/a	FR1	2	R1168T
804.296	0.884	812990	WORD_OFF	n/a	n/a	WAND	5	7	[0, 0, 0]	n/a	FR1	2	R1168T
805.18	1.616	813874	WORD	n/a	wordpools/wordpool_EN.txt	BEACH	6	7	[0, 0, 0]	n/a	FR1	2	R1168T
806.796	0.834	815490	WORD_OFF	n/a	n/a	BEACH	6	7	[0, 0, 0]	n/a	FR1	2	R1168T
807.63	1.617	816324	WORD	n/a	wordpools/wordpool_EN.txt	FISH	7	7	[0, 0, 0]	n/a	FR1	2	R1168T
809.247	0.85	817941	WORD_OFF	n/a	n/a	FISH	7	7	[0, 0, 0]	n/a	FR1	2	R1168T
810.097	1.616	818791	WORD	n/a	wordpools/wordpool_EN.txt	SNOW	8	7	[0, 0, 0]	n/a	FR1	2	R1168T
811.713	0.868	820407	WORD_OFF	n/a	n/a	SNOW	8	7	[0, 0, 0]	n/a	FR1	2	R1168T
812.581	1.617	821275	WORD	n/a	wordpools/wordpool_EN.txt	SHRIMP	9	7	[0, 0, 0]	n/a	FR1	2	R1168T
814.198	0.8	822891	WORD_OFF	n/a	n/a	SHRIMP	9	7	[0, 0, 0]	n/a	FR1	2	R1168T
814.998	1.617	823691	WORD	n/a	wordpools/wordpool_EN.txt	SNAIL	10	7	[0, 0, 0]	n/a	FR1	2	R1168T
816.615	0.867	825308	WORD_OFF	n/a	n/a	SNAIL	10	7	[0, 0, 0]	n/a	FR1	2	R1168T
817.482	1.617	826175	WORD	n/a	wordpools/wordpool_EN.txt	SHELL	11	7	[0, 0, 0]	n/a	FR1	2	R1168T
819.099	0.833	827792	WORD_OFF	n/a	n/a	SHELL	11	7	[0, 0, 0]	n/a	FR1	2	R1168T
819.932	1.617	828625	WORD	n/a	wordpools/wordpool_EN.txt	TREE	12	7	[0, 0, 0]	n/a	FR1	2	R1168T
821.549	0.0	830242	WORD_OFF	n/a	n/a	TREE	12	7	[0, 0, 0]	n/a	FR1	2	R1168T
821.549	0.001	830242	DISTRACT_START	n/a	n/a	n/a	-999	7	[0, 0, 0]	n/a	FR1	2	R1168T
821.55	0.016	830243	START	n/a	n/a	n/a	-999	7	[-999, -999, -999]	n/a	FR1	2	R1168T
821.566	9.035	830259	PROB	9.035	n/a	n/a	-999	7	[4, 4, 3]	11	FR1	2	R1168T
830.601	5.601	839293	PROB	5.601	n/a	n/a	-999	7	[5, 6, 2]	13	FR1	2	R1168T
836.202	4.234	844894	PROB	4.234	n/a	n/a	-999	7	[4, 5, 3]	12	FR1	2	R1168T
840.436	3.997	849128	PROB	3.997	n/a	n/a	-999	7	[2, 8, 7]	17	FR1	2	R1168T
844.433	0.02	853125	STOP	n/a	n/a	n/a	-999	7	[-999, -999, -999]	n/a	FR1	2	R1168T
844.453	0.551	853145	DISTRACT_END	n/a	n/a	n/a	-999	7	[0, 0, 0]	n/a	FR1	2	R1168T
845.004	0.517	853696	RETRIEVAL_ORIENT	n/a	n/a	n/a	-999	7	[0, 0, 0]	n/a	FR1	2	R1168T
845.521	0.741	854213	REC_START	n/a	n/a	n/a	-999	7	[0, 0, 0]	n/a	FR1	2	R1168T
846.262	1.12	854954	REC_WORD	1.12	n/a	SHRIMP	9	7	[0, 0, 0]	n/a	FR1	2	R1168T
847.382	1.298	856074	REC_WORD	1.298	n/a	SNAIL	10	7	[0, 0, 0]	n/a	FR1	2	R1168T
848.68	1.507	857371	REC_WORD	1.507	n/a	FISH	7	7	[0, 0, 0]	n/a	FR1	2	R1168T
850.187	25.347	858878	REC_WORD	25.347	n/a	POND	4	7	[0, 0, 0]	n/a	FR1	2	R1168T
875.534	5.076	884224	REC_END	n/a	n/a	n/a	-999	7	[0, 0, 0]	n/a	FR1	2	R1168T
880.61	0.5	889300	TRIAL	n/a	n/a	n/a	-999	8	[0, 0, 0]	n/a	FR1	2	R1168T
881.11	10.428	889800	COUNTDOWN_START	n/a	n/a	n/a	-999	8	[0, 0, 0]	n/a	FR1	2	R1168T
891.538	0.007	900227	COUNTDOWN_END	n/a	n/a	n/a	-999	8	[0, 0, 0]	n/a	FR1	2	R1168T
891.545	1.617	900234	ORIENT	n/a	n/a	n/a	-999	8	[0, 0, 0]	n/a	FR1	2	R1168T
893.162	2.117	901851	ORIENT_OFF	n/a	n/a	n/a	-999	8	[0, 0, 0]	n/a	FR1	2	R1168T
895.279	1.617	903968	WORD	n/a	wordpools/wordpool_EN.txt	LAMP	1	8	[0, 0, 0]	n/a	FR1	2	R1168T
896.896	0.866	905585	WORD_OFF	n/a	n/a	LAMP	1	8	[0, 0, 0]	n/a	FR1	2	R1168T
897.762	1.618	906451	WORD	n/a	wordpools/wordpool_EN.txt	SHIRT	2	8	[0, 0, 0]	n/a	FR1	2	R1168T
899.38	0.784	908069	WORD_OFF	n/a	n/a	SHIRT	2	8	[0, 0, 0]	n/a	FR1	2	R1168T
900.164	1.616	908852	WORD	n/a	wordpools/wordpool_EN.txt	SHIELD	3	8	[0, 0, 0]	n/a	FR1	2	R1168T
901.78	0.916	910468	WORD_OFF	n/a	n/a	SHIELD	3	8	[0, 0, 0]	n/a	FR1	2	R1168T
902.696	1.618	911384	WORD	n/a	wordpools/wordpool_EN.txt	BADGE	4	8	[0, 0, 0]	n/a	FR1	2	R1168T
904.314	0.95	913002	WORD_OFF	n/a	n/a	BADGE	4	8	[0, 0, 0]	n/a	FR1	2	R1168T
905.264	1.617	913952	WORD	n/a	wordpools/wordpool_EN.txt	BLUSH	5	8	[0, 0, 0]	n/a	FR1	2	R1168T
906.881	0.883	915569	WORD_OFF	n/a	n/a	BLUSH	5	8	[0, 0, 0]	n/a	FR1	2	R1168T
907.764	1.618	916452	WORD	n/a	wordpools/wordpool_EN.txt	CART	6	8	[0, 0, 0]	n/a	FR1	2	R1168T
909.382	0.933	918070	WORD_OFF	n/a	n/a	CART	6	8	[0, 0, 0]	n/a	FR1	2	R1168T
910.315	1.617	919003	WORD	n/a	wordpools/wordpool_EN.txt	BATH	7	8	[0, 0, 0]	n/a	FR1	2	R1168T
911.932	0.967	920620	WORD_OFF	n/a	n/a	BATH	7	8	[0, 0, 0]	n/a	FR1	2	R1168T
912.899	1.617	921587	WORD	n/a	wordpools/wordpool_EN.txt	VEST	8	8	[0, 0, 0]	n/a	FR1	2	R1168T
914.516	0.967	923204	WORD_OFF	n/a	n/a	VEST	8	8	[0, 0, 0]	n/a	FR1	2	R1168T
915.483	1.617	924171	WORD	n/a	wordpools/wordpool_EN.txt	CROWN	9	8	[0, 0, 0]	n/a	FR1	2	R1168T
917.1	0.867	925787	WORD_OFF	n/a	n/a	CROWN	9	8	[0, 0, 0]	n/a	FR1	2	R1168T
917.967	1.617	926654	WORD	n/a	wordpools/wordpool_EN.txt	PEARL	10	8	[0, 0, 0]	n/a	FR1	2	R1168T
919.584	1.0	928271	WORD_OFF	n/a	n/a	PEARL	10	8	[0, 0, 0]	n/a	FR1	2	R1168T
920.584	1.617	929271	WORD	n/a	wordpools/wordpool_EN.txt	HAND	11	8	[0, 0, 0]	n/a	FR1	2	R1168T
922.201	0.833	930888	WORD_OFF	n/a	n/a	HAND	11	8	[0, 0, 0]	n/a	FR1	2	R1168T
923.034	1.616	931721	WORD	n/a	wordpools/wordpool_EN.txt	CHEEK	12	8	[0, 0, 0]	n/a	FR1	2	R1168T
924.65	0.0	933337	WORD_OFF	n/a	n/a	CHEEK	12	8	[0, 0, 0]	n/a	FR1	2	R1168T
924.65	0.001	933337	DISTRACT_START	n/a	n/a	n/a	-999	8	[0, 0, 0]	n/a	FR1	2	R1168T
924.651	0.016	933338	START	n/a	n/a	n/a	-999	8	[-999, -999, -999]	n/a	FR1	2	R1168T
924.667	4.802	933354	PROB	4.802	n/a	n/a	-999	8	[2, 1, 3]	6	FR1	2	R1168T
929.469	5.183	938156	PROB	5.183	n/a	n/a	-999	8	[1, 5, 8]	14	FR1	2	R1168T
934.652	4.735	943338	PROB	4.735	n/a	n/a	-999	8	[9, 6, 5]	20	FR1	2	R1168T
939.387	4.618	948073	PROB	4.618	n/a	n/a	-999	8	[7, 1, 6]	14	FR1	2	R1168T
944.005	4.922	952691	PROB	4.922	n/a	n/a	-999	8	[4, 4, 5]	13	FR1	2	R1168T
948.927	0.012	957613	STOP	n/a	n/a	n/a	-999	8	[-999, -999, -999]	n/a	FR1	2	R1168T
948.939	0.684	957625	DISTRACT_END	n/a	n/a	n/a	-999	8	[0, 0, 0]	n/a	FR1	2	R1168T
949.623	0.517	958309	RETRIEVAL_ORIENT	n/a	n/a	n/a	-999	8	[0, 0, 0]	n/a	FR1	2	R1168T
950.14	0.828	958826	REC_START	n/a	n/a	n/a	-999	8	[0, 0, 0]	n/a	FR1	2	R1168T
950.968	0.952	959654	REC_WORD	0.952	n/a	LAMP	1	8	[0, 0, 0]	n/a	FR1	2	R1168T
951.92	1.563	960605	REC_WORD	1.563	n/a	SHIRT	2	8	[0, 0, 0]	n/a	FR1	2	R1168T
953.483	1.355	962168	REC_WORD	1.355	n/a	CROWN	9	8	[0, 0, 0]	n/a	FR1	2	R1168T
954.838	1.657	963523	REC_WORD	1.657	n/a	CHEEK	12	8	[0, 0, 0]	n/a	FR1	2	R1168T
956.495	7.866	965180	REC_WORD	7.866	n/a	SLUSH	-999	8	[0, 0, 0]	n/a	FR1	2	R1168T
964.361	15.79	973046	REC_WORD	15.79	n/a	PALM	-999	8	[0, 0, 0]	n/a	FR1	2	R1168T
980.151	6.111	988835	REC_END	n/a	n/a	n/a	-999	8	[0, 0, 0]	n/a	FR1	2	R1168T
986.262	0.5	994946	TRIAL	n/a	n/a	n/a	-999	9	[0, 0, 0]	n/a	FR1	2	R1168T
986.762	10.428	995445	COUNTDOWN_START	n/a	n/a	n/a	-999	9	[0, 0, 0]	n/a	FR1	2	R1168T
997.19	0.008	1005873	COUNTDOWN_END	n/a	n/a	n/a	-999	9	[0, 0, 0]	n/a	FR1	2	R1168T
997.198	1.616	1005881	ORIENT	n/a	n/a	n/a	-999	9	[0, 0, 0]	n/a	FR1	2	R1168T
998.814	2.118	1007497	ORIENT_OFF	n/a	n/a	n/a	-999	9	[0, 0, 0]	n/a	FR1	2	R1168T
1000.932	1.617	1009615	WORD	n/a	wordpools/wordpool_EN.txt	PET	1	9	[0, 0, 0]	n/a	FR1	2	R1168T
1002.549	0.833	1011232	WORD_OFF	n/a	n/a	PET	1	9	[0, 0, 0]	n/a	FR1	2	R1168T
1003.382	1.617	1012065	WORD	n/a	wordpools/wordpool_EN.txt	CAT	2	9	[0, 0, 0]	n/a	FR1	2	R1168T
1004.999	1.0	1013681	WORD_OFF	n/a	n/a	CAT	2	9	[0, 0, 0]	n/a	FR1	2	R1168T
1005.999	1.617	1014681	WORD	n/a	wordpools/wordpool_EN.txt	BIRD	3	9	[0, 0, 0]	n/a	FR1	2	R1168T
1007.616	0.784	1016298	WORD_OFF	n/a	n/a	BIRD	3	9	[0, 0, 0]	n/a	FR1	2	R1168T
1008.4	1.617	1017082	WORD	n/a	wordpools/wordpool_EN.txt	OAR	4	9	[0, 0, 0]	n/a	FR1	2	R1168T
1010.017	0.883	1018699	WORD_OFF	n/a	n/a	OAR	4	9	[0, 0, 0]	n/a	FR1	2	R1168T
1010.9	1.617	1019582	WORD	n/a	wordpools/wordpool_EN.txt	ROAD	5	9	[0, 0, 0]	n/a	FR1	2	R1168T
1012.517	0.9	1021199	WORD_OFF	n/a	n/a	ROAD	5	9	[0, 0, 0]	n/a	FR1	2	R1168T
1013.417	1.617	1022099	WORD	n/a	wordpools/wordpool_EN.txt	BAT	6	9	[0, 0, 0]	n/a	FR1	2	R1168T
1015.034	0.884	1023716	WORD_OFF	n/a	n/a	BAT	6	9	[0, 0, 0]	n/a	FR1	2	R1168T
1015.918	1.617	1024600	WORD	n/a	wordpools/wordpool_EN.txt	MULE	7	9	[0, 0, 0]	n/a	FR1	2	R1168T
1017.535	0.95	1026217	WORD_OFF	n/a	n/a	MULE	7	9	[0, 0, 0]	n/a	FR1	2	R1168T
1018.485	1.617	1027167	WORD	n/a	wordpools/wordpool_EN.txt	WEB	8	9	[0, 0, 0]	n/a	FR1	2	R1168T
1020.102	0.883	1028784	WORD_OFF	n/a	n/a	WEB	8	9	[0, 0, 0]	n/a	FR1	2	R1168T
1020.985	1.617	1029666	WORD	n/a	wordpools/wordpool_EN.txt	DOG	9	9	[0, 0, 0]	n/a	FR1	2	R1168T
1022.602	0.801	1031283	WORD_OFF	n/a	n/a	DOG	9	9	[0, 0, 0]	n/a	FR1	2	R1168T
1023.403	1.617	1032084	WORD	n/a	wordpools/wordpool_EN.txt	GLOVE	10	9	[0, 0, 0]	n/a	FR1	2	R1168T
1025.02	0.85	1033701	WORD_OFF	n/a	n/a	GLOVE	10	9	[0, 0, 0]	n/a	FR1	2	R1168T
1025.87	1.617	1034551	WORD	n/a	wordpools/wordpool_EN.txt	HEN	11	9	[0, 0, 0]	n/a	FR1	2	R1168T
1027.487	0.883	1036168	WORD_OFF	n/a	n/a	HEN	11	9	[0, 0, 0]	n/a	FR1	2	R1168T
1028.37	1.617	1037051	WORD	n/a	wordpools/wordpool_EN.txt	FACE	12	9	[0, 0, 0]	n/a	FR1	2	R1168T
1029.987	0.0	1038668	WORD_OFF	n/a	n/a	FACE	12	9	[0, 0, 0]	n/a	FR1	2	R1168T
1029.987	0.001	1038668	DISTRACT_START	n/a	n/a	n/a	-999	9	[0, 0, 0]	n/a	FR1	2	R1168T
1029.988	0.016	1038669	START	n/a	n/a	n/a	-999	9	[-999, -999, -999]	n/a	FR1	2	R1168T
1030.004	3.799	1038685	PROB	3.799	n/a	n/a	-999	9	[1, 7, 6]	14	FR1	2	R1168T
1033.803	5.219	1042484	PROB	5.219	n/a	n/a	-999	9	[4, 5, 9]	18	FR1	2	R1168T
1039.022	4.818	1047702	PROB	4.818	n/a	n/a	-999	9	[7, 4, 4]	15	FR1	2	R1168T
1043.84	3.1	1052520	PROB	3.1	n/a	n/a	-999	9	[1, 7, 7]	15	FR1	2	R1168T
1046.94	3.581	1055620	PROB	3.581	n/a	n/a	-999	9	[3, 4, 8]	15	FR1	2	R1168T
1050.521	0.02	1059201	STOP	n/a	n/a	n/a	-999	9	[-999, -999, -999]	n/a	FR1	2	R1168T
1050.541	0.7	1059221	DISTRACT_END	n/a	n/a	n/a	-999	9	[0, 0, 0]	n/a	FR1	2	R1168T
1051.241	0.516	1059921	RETRIEVAL_ORIENT	n/a	n/a	n/a	-999	9	[0, 0, 0]	n/a	FR1	2	R1168T
1051.757	1.117	1060437	REC_START	n/a	n/a	n/a	-999	9	[0, 0, 0]	n/a	FR1	2	R1168T
1052.874	1.057	1061554	REC_WORD	1.057	n/a	PET	1	9	[0, 0, 0]	n/a	FR1	2	R1168T
1053.931	1.137	1062611	REC_WORD	1.137	n/a	CAT	2	9	[0, 0, 0]	n/a	FR1	2	R1168T
1055.068	1.127	1063748	REC_WORD	1.127	n/a	BIRD	3	9	[0, 0, 0]	n/a	FR1	2	R1168T
1056.195	1.854	1064874	REC_WORD	1.854	n/a	MULE	7	9	[0, 0, 0]	n/a	FR1	2	R1168T
1058.049	7.199	1066728	REC_WORD	7.199	n/a	BAT	6	9	[0, 0, 0]	n/a	FR1	2	R1168T
1065.248	16.52	1073927	REC_WORD	16.52	n/a	WEB	8	9	[0, 0, 0]	n/a	FR1	2	R1168T
1081.768	6.912	1090446	REC_END	n/a	n/a	n/a	-999	9	[0, 0, 0]	n/a	FR1	2	R1168T
1088.68	0.5	1097358	TRIAL	n/a	n/a	n/a	-999	10	[0, 0, 0]	n/a	FR1	2	R1168T
1089.18	10.428	1097858	COUNTDOWN_START	n/a	n/a	n/a	-999	10	[0, 0, 0]	n/a	FR1	2	R1168T
1099.608	0.008	1108285	COUNTDOWN_END	n/a	n/a	n/a	-999	10	[0, 0, 0]	n/a	FR1	2	R1168T
1099.616	1.617	1108293	ORIENT	n/a	n/a	n/a	-999	10	[0, 0, 0]	n/a	FR1	2	R1168T
1101.233	1.984	1109910	ORIENT_OFF	n/a	n/a	n/a	-999	10	[0, 0, 0]	n/a	FR1	2	R1168T
1103.217	1.617	1111894	WORD	n/a	wordpools/wordpool_EN.txt	ROPE	1	10	[0, 0, 0]	n/a	FR1	2	R1168T
1104.834	1.017	1113511	WORD_OFF	n/a	n/a	ROPE	1	10	[0, 0, 0]	n/a	FR1	2	R1168T
1105.851	1.617	1114528	WORD	n/a	wordpools/wordpool_EN.txt	HORSE	2	10	[0, 0, 0]	n/a	FR1	2	R1168T
1107.468	0.9	1116145	WORD_OFF	n/a	n/a	HORSE	2	10	[0, 0, 0]	n/a	FR1	2	R1168T
1108.368	1.617	1117044	WORD	n/a	wordpools/wordpool_EN.txt	SWAMP	3	10	[0, 0, 0]	n/a	FR1	2	R1168T
1109.985	0.867	1118661	WORD_OFF	n/a	n/a	SWAMP	3	10	[0, 0, 0]	n/a	FR1	2	R1168T
1110.852	1.617	1119528	WORD	n/a	wordpools/wordpool_EN.txt	SPEAR	4	10	[0, 0, 0]	n/a	FR1	2	R1168T
1112.469	1.017	1121145	WORD_OFF	n/a	n/a	SPEAR	4	10	[0, 0, 0]	n/a	FR1	2	R1168T
1113.486	1.617	1122162	WORD	n/a	wordpools/wordpool_EN.txt	BRIDGE	5	10	[0, 0, 0]	n/a	FR1	2	R1168T
1115.103	0.916	1123779	WORD_OFF	n/a	n/a	BRIDGE	5	10	[0, 0, 0]	n/a	FR1	2	R1168T
1116.019	1.616	1124695	WORD	n/a	wordpools/wordpool_EN.txt	CONE	6	10	[0, 0, 0]	n/a	FR1	2	R1168T
1117.635	0.935	1126311	WORD_OFF	n/a	n/a	CONE	6	10	[0, 0, 0]	n/a	FR1	2	R1168T
1118.57	1.617	1127246	WORD	n/a	wordpools/wordpool_EN.txt	RAKE	7	10	[0, 0, 0]	n/a	FR1	2	R1168T
1120.187	0.883	1128863	WORD_OFF	n/a	n/a	RAKE	7	10	[0, 0, 0]	n/a	FR1	2	R1168T
1121.07	1.616	1129746	WORD	n/a	wordpools/wordpool_EN.txt	ROSE	8	10	[0, 0, 0]	n/a	FR1	2	R1168T
1122.686	0.768	1131362	WORD_OFF	n/a	n/a	ROSE	8	10	[0, 0, 0]	n/a	FR1	2	R1168T
1123.454	1.617	1132130	WORD	n/a	wordpools/wordpool_EN.txt	BEAK	9	10	[0, 0, 0]	n/a	FR1	2	R1168T
1125.071	0.95	1133746	WORD_OFF	n/a	n/a	BEAK	9	10	[0, 0, 0]	n/a	FR1	2	R1168T
1126.021	1.616	1134696	WORD	n/a	wordpools/wordpool_EN.txt	STEAM	10	10	[0, 0, 0]	n/a	FR1	2	R1168T
1127.637	0.768	1136312	WORD_OFF	n/a	n/a	STEAM	10	10	[0, 0, 0]	n/a	FR1	2	R1168T
1128.405	1.617	1137080	WORD	n/a	wordpools/wordpool_EN.txt	LAKE	11	10	[0, 0, 0]	n/a	FR1	2	R1168T
1130.022	0.95	1138697	WORD_OFF	n/a	n/a	LAKE	11	10	[0, 0, 0]	n/a	FR1	2	R1168T
1130.972	1.617	1139647	WORD	n/a	wordpools/wordpool_EN.txt	GOAT	12	10	[0, 0, 0]	n/a	FR1	2	R1168T
1132.589	0.0	1141264	WORD_OFF	n/a	n/a	GOAT	12	10	[0, 0, 0]	n/a	FR1	2	R1168T
1132.589	0.001	1141264	DISTRACT_START	n/a	n/a	n/a	-999	10	[0, 0, 0]	n/a	FR1	2	R1168T
1132.59	0.016	1141265	START	n/a	n/a	n/a	-999	10	[-999, -999, -999]	n/a	FR1	2	R1168T
1132.606	3.75	1141281	PROB	3.75	n/a	n/a	-999	10	[2, 1, 3]	6	FR1	2	R1168T
1136.356	4.3	1145031	PROB	4.3	n/a	n/a	-999	10	[2, 5, 1]	8	FR1	2	R1168T
1140.656	4.068	1149331	PROB	4.068	n/a	n/a	-999	10	[2, 1, 9]	12	FR1	2	R1168T
1144.724	5.652	1153398	PROB	5.652	n/a	n/a	-999	10	[5, 7, 7]	19	FR1	2	R1168T
1150.376	5.537	1159050	PROB	5.537	n/a	n/a	-999	10	[6, 3, 7]	16	FR1	2	R1168T
1155.913	0.014	1164587	STOP	n/a	n/a	n/a	-999	10	[-999, -999, -999]	n/a	FR1	2	R1168T
1155.927	0.566	1164601	DISTRACT_END	n/a	n/a	n/a	-999	10	[0, 0, 0]	n/a	FR1	2	R1168T
1156.493	0.518	1165167	RETRIEVAL_ORIENT	n/a	n/a	n/a	-999	10	[0, 0, 0]	n/a	FR1	2	R1168T
1157.011	1.835	1165685	REC_START	n/a	n/a	n/a	-999	10	[0, 0, 0]	n/a	FR1	2	R1168T
1158.846	1.088	1167520	REC_WORD	1.088	n/a	RAMP	-999	10	[0, 0, 0]	n/a	FR1	2	R1168T
1159.934	1.262	1168607	REC_WORD	1.262	n/a	ROSE	8	10	[0, 0, 0]	n/a	FR1	2	R1168T
1161.196	1.097	1169869	REC_WORD	1.097	n/a	BRIDGE	5	10	[0, 0, 0]	n/a	FR1	2	R1168T
1162.293	24.731	1170966	REC_WORD	24.731	n/a	BEAK	9	10	[0, 0, 0]	n/a	FR1	2	R1168T
1187.024	10.043	1195696	REC_END	n/a	n/a	n/a	-999	10	[0, 0, 0]	n/a	FR1	2	R1168T
1197.067	0.5	1205738	TRIAL	n/a	n/a	n/a	-999	11	[0, 0, 0]	n/a	FR1	2	R1168T
1197.567	10.428	1206238	COUNTDOWN_START	n/a	n/a	n/a	-999	11	[0, 0, 0]	n/a	FR1	2	R1168T
1207.995	0.008	1216666	COUNTDOWN_END	n/a	n/a	n/a	-999	11	[0, 0, 0]	n/a	FR1	2	R1168T
1208.003	1.617	1216674	ORIENT	n/a	n/a	n/a	-999	11	[0, 0, 0]	n/a	FR1	2	R1168T
1209.62	2.132	1218291	ORIENT_OFF	n/a	n/a	n/a	-999	11	[0, 0, 0]	n/a	FR1	2	R1168T
1211.752	1.618	1220423	WORD	n/a	wordpools/wordpool_EN.txt	CORD	1	11	[0, 0, 0]	n/a	FR1	2	R1168T
1213.37	1.0	1222040	WORD_OFF	n/a	n/a	CORD	1	11	[0, 0, 0]	n/a	FR1	2	R1168T
1214.37	1.617	1223040	WORD	n/a	wordpools/wordpool_EN.txt	FROG	2	11	[0, 0, 0]	n/a	FR1	2	R1168T
1215.987	0.901	1224657	WORD_OFF	n/a	n/a	FROG	2	11	[0, 0, 0]	n/a	FR1	2	R1168T
1216.888	1.617	1225558	WORD	n/a	wordpools/wordpool_EN.txt	EGG	3	11	[0, 0, 0]	n/a	FR1	2	R1168T
1218.505	0.783	1227175	WORD_OFF	n/a	n/a	EGG	3	11	[0, 0, 0]	n/a	FR1	2	R1168T
1219.288	1.617	1227958	WORD	n/a	wordpools/wordpool_EN.txt	MAIL	4	11	[0, 0, 0]	n/a	FR1	2	R1168T
1220.905	0.766	1229575	WORD_OFF	n/a	n/a	MAIL	4	11	[0, 0, 0]	n/a	FR1	2	R1168T
1221.671	1.618	1230341	WORD	n/a	wordpools/wordpool_EN.txt	JUICE	5	11	[0, 0, 0]	n/a	FR1	2	R1168T
1223.289	0.883	1231959	WORD_OFF	n/a	n/a	JUICE	5	11	[0, 0, 0]	n/a	FR1	2	R1168T
1224.172	1.616	1232842	WORD	n/a	wordpools/wordpool_EN.txt	BOARD	6	11	[0, 0, 0]	n/a	FR1	2	R1168T
1225.788	0.967	1234458	WORD_OFF	n/a	n/a	BOARD	6	11	[0, 0, 0]	n/a	FR1	2	R1168T
1226.755	1.618	1235425	WORD	n/a	wordpools/wordpool_EN.txt	INK	7	11	[0, 0, 0]	n/a	FR1	2	R1168T
1228.373	0.867	1237043	WORD_OFF	n/a	n/a	INK	7	11	[0, 0, 0]	n/a	FR1	2	R1168T
1229.24	1.617	1237909	WORD	n/a	wordpools/wordpool_EN.txt	FILM	8	11	[0, 0, 0]	n/a	FR1	2	R1168T
1230.857	1.0	1239526	WORD_OFF	n/a	n/a	FILM	8	11	[0, 0, 0]	n/a	FR1	2	R1168T
1231.857	1.617	1240526	WORD	n/a	wordpools/wordpool_EN.txt	SPONGE	9	11	[0, 0, 0]	n/a	FR1	2	R1168T
1233.474	0.8	1242143	WORD_OFF	n/a	n/a	SPONGE	9	11	[0, 0, 0]	n/a	FR1	2	R1168T
1234.274	1.617	1242943	WORD	n/a	wordpools/wordpool_EN.txt	STORE	10	11	[0, 0, 0]	n/a	FR1	2	R1168T
1235.891	1.0	1244560	WORD_OFF	n/a	n/a	STORE	10	11	[0, 0, 0]	n/a	FR1	2	R1168T
1236.891	1.617	1245560	WORD	n/a	wordpools/wordpool_EN.txt	PASTE	11	11	[0, 0, 0]	n/a	FR1	2	R1168T
1238.508	0.884	1247177	WORD_OFF	n/a	n/a	PASTE	11	11	[0, 0, 0]	n/a	FR1	2	R1168T
1239.392	1.617	1248061	WORD	n/a	wordpools/wordpool_EN.txt	SHEET	12	11	[0, 0, 0]	n/a	FR1	2	R1168T
1241.009	0.0	1249678	WORD_OFF	n/a	n/a	SHEET	12	11	[0, 0, 0]	n/a	FR1	2	R1168T
1241.009	0.0	1249678	DISTRACT_START	n/a	n/a	n/a	-999	11	[0, 0, 0]	n/a	FR1	2	R1168T
1241.009	0.017	1249678	START	n/a	n/a	n/a	-999	11	[-999, -999, -999]	n/a	FR1	2	R1168T
1241.026	4.834	1249695	PROB	4.834	n/a	n/a	-999	11	[1, 4, 9]	14	FR1	2	R1168T
1245.86	4.217	1254529	PROB	4.217	n/a	n/a	-999	11	[3, 5, 4]	12	FR1	2	R1168T
1250.077	5.301	1258745	PROB	5.301	n/a	n/a	-999	11	[9, 6, 2]	17	FR1	2	R1168T
1255.378	4.768	1264046	PROB	4.768	n/a	n/a	-999	11	[9, 9, 6]	24	FR1	2	R1168T
1260.146	3.556	1268814	PROB	3.556	n/a	n/a	-999	11	[6, 4, 7]	17	FR1	2	R1168T
1263.702	0.01	1272370	STOP	n/a	n/a	n/a	-999	11	[-999, -999, -999]	n/a	FR1	2	R1168T
1263.712	0.551	1272380	DISTRACT_END	n/a	n/a	n/a	-999	11	[0, 0, 0]	n/a	FR1	2	R1168T
1264.263	0.516	1272930	RETRIEVAL_ORIENT	n/a	n/a	n/a	-999	11	[0, 0, 0]	n/a	FR1	2	R1168T
1264.779	1.49	1273446	REC_START	n/a	n/a	n/a	-999	11	[0, 0, 0]	n/a	FR1	2	R1168T
1266.269	1.031	1274936	REC_WORD	1.031	n/a	CORD	1	11	[0, 0, 0]	n/a	FR1	2	R1168T
1267.3	1.654	1275967	REC_WORD	1.654	n/a	FROG	2	11	[0, 0, 0]	n/a	FR1	2	R1168T
1268.954	8.619	1277621	REC_WORD	8.619	n/a	EGG	3	11	[0, 0, 0]	n/a	FR1	2	R1168T
1277.573	17.219	1286240	REC_WORD	17.219	n/a	JUICE	5	11	[0, 0, 0]	n/a	FR1	2	R1168T
1294.792	5.311	1303458	REC_END	n/a	n/a	n/a	-999	11	[0, 0, 0]	n/a	FR1	2	R1168T
1300.103	0.5	1308768	TRIAL	n/a	n/a	n/a	-999	12	[0, 0, 0]	n/a	FR1	2	R1168T
1300.603	10.428	1309268	COUNTDOWN_START	n/a	n/a	n/a	-999	12	[0, 0, 0]	n/a	FR1	2	R1168T
1311.031	0.007	1319696	COUNTDOWN_END	n/a	n/a	n/a	-999	12	[0, 0, 0]	n/a	FR1	2	R1168T
1311.038	1.616	1319703	ORIENT	n/a	n/a	n/a	-999	12	[0, 0, 0]	n/a	FR1	2	R1168T
1312.654	2.185	1321319	ORIENT_OFF	n/a	n/a	n/a	-999	12	[0, 0, 0]	n/a	FR1	2	R1168T
1314.839	1.617	1323504	WORD	n/a	wordpools/wordpool_EN.txt	LAND	1	12	[0, 0, 0]	n/a	FR1	2	R1168T
1316.456	0.917	1325120	WORD_OFF	n/a	n/a	LAND	1	12	[0, 0, 0]	n/a	FR1	2	R1168T
1317.373	1.617	1326037	WORD	n/a	wordpools/wordpool_EN.txt	STORM	2	12	[0, 0, 0]	n/a	FR1	2	R1168T
1318.99	0.866	1327654	WORD_OFF	n/a	n/a	STORM	2	12	[0, 0, 0]	n/a	FR1	2	R1168T
1319.856	1.617	1328520	WORD	n/a	wordpools/wordpool_EN.txt	HOOK	3	12	[0, 0, 0]	n/a	FR1	2	R1168T
1321.473	0.817	1330137	WORD_OFF	n/a	n/a	HOOK	3	12	[0, 0, 0]	n/a	FR1	2	R1168T
1322.29	1.617	1330954	WORD	n/a	wordpools/wordpool_EN.txt	SEA	4	12	[0, 0, 0]	n/a	FR1	2	R1168T
1323.907	0.95	1332571	WORD_OFF	n/a	n/a	SEA	4	12	[0, 0, 0]	n/a	FR1	2	R1168T
1324.857	1.617	1333521	WORD	n/a	wordpools/wordpool_EN.txt	STRAW	5	12	[0, 0, 0]	n/a	FR1	2	R1168T
1326.474	1.0	1335138	WORD_OFF	n/a	n/a	STRAW	5	12	[0, 0, 0]	n/a	FR1	2	R1168T
1327.474	1.617	1336138	WORD	n/a	wordpools/wordpool_EN.txt	MUD	6	12	[0, 0, 0]	n/a	FR1	2	R1168T
1329.091	0.867	1337755	WORD_OFF	n/a	n/a	MUD	6	12	[0, 0, 0]	n/a	FR1	2	R1168T
1329.958	1.617	1338622	WORD	n/a	wordpools/wordpool_EN.txt	ELF	7	12	[0, 0, 0]	n/a	FR1	2	R1168T
1331.575	1.0	1340239	WORD_OFF	n/a	n/a	ELF	7	12	[0, 0, 0]	n/a	FR1	2	R1168T
1332.575	1.617	1341239	WORD	n/a	wordpools/wordpool_EN.txt	STICK	8	12	[0, 0, 0]	n/a	FR1	2	R1168T
1334.192	0.984	1342855	WORD_OFF	n/a	n/a	STICK	8	12	[0, 0, 0]	n/a	FR1	2	R1168T
1335.176	1.616	1343839	WORD	n/a	wordpools/wordpool_EN.txt	MAP	9	12	[0, 0, 0]	n/a	FR1	2	R1168T
1336.792	0.967	1345455	WORD_OFF	n/a	n/a	MAP	9	12	[0, 0, 0]	n/a	FR1	2	R1168T
1337.759	1.618	1346422	WORD	n/a	wordpools/wordpool_EN.txt	CAPE	10	12	[0, 0, 0]	n/a	FR1	2	R1168T
1339.377	0.867	1348040	WORD_OFF	n/a	n/a	CAPE	10	12	[0, 0, 0]	n/a	FR1	2	R1168T
1340.244	1.617	1348907	WORD	n/a	wordpools/wordpool_EN.txt	BOAT	11	12	[0, 0, 0]	n/a	FR1	2	R1168T
1341.861	0.848	1350524	WORD_OFF	n/a	n/a	BOAT	11	12	[0, 0, 0]	n/a	FR1	2	R1168T
1342.709	1.602	1351372	WORD	n/a	wordpools/wordpool_EN.txt	FARM	12	12	[0, 0, 0]	n/a	FR1	2	R1168T
1344.311	0.0	1352974	WORD_OFF	n/a	n/a	FARM	12	12	[0, 0, 0]	n/a	FR1	2	R1168T
1344.311	0.0	1352974	DISTRACT_START	n/a	n/a	n/a	-999	12	[0, 0, 0]	n/a	FR1	2	R1168T
1344.311	0.017	1352974	START	n/a	n/a	n/a	-999	12	[-999, -999, -999]	n/a	FR1	2	R1168T
1344.328	6.801	1352991	PROB	6.801	n/a	n/a	-999	12	[4, 9, 6]	19	FR1	2	R1168T
1351.129	3.867	1359791	PROB	3.867	n/a	n/a	-999	12	[1, 8, 3]	12	FR1	2	R1168T
1354.996	4.251	1363658	PROB	4.251	n/a	n/a	-999	12	[7, 7, 3]	17	FR1	2	R1168T
1359.247	3.5	1367909	PROB	3.5	n/a	n/a	-999	12	[6, 4, 9]	19	FR1	2	R1168T
1362.747	4.963	1371409	PROB	4.963	n/a	n/a	-999	12	[9, 8, 3]	20	FR1	2	R1168T
1367.71	0.021	1376372	STOP	n/a	n/a	n/a	-999	12	[-999, -999, -999]	n/a	FR1	2	R1168T
1367.731	0.601	1376393	DISTRACT_END	n/a	n/a	n/a	-999	12	[0, 0, 0]	n/a	FR1	2	R1168T
1368.332	0.517	1376993	RETRIEVAL_ORIENT	n/a	n/a	n/a	-999	12	[0, 0, 0]	n/a	FR1	2	R1168T
1368.849	1.092	1377510	REC_START	n/a	n/a	n/a	-999	12	[0, 0, 0]	n/a	FR1	2	R1168T
1369.941	0.972	1378602	REC_WORD	0.972	n/a	LAND	1	12	[0, 0, 0]	n/a	FR1	2	R1168T
1370.913	1.433	1379574	REC_WORD	1.433	n/a	STORM	2	12	[0, 0, 0]	n/a	FR1	2	R1168T
1372.346	1.004	1381007	REC_WORD	1.004	n/a	HOOK	3	12	[0, 0, 0]	n/a	FR1	2	R1168T
1373.35	2.447	1382011	REC_WORD	2.447	n/a	SEA	4	12	[0, 0, 0]	n/a	FR1	2	R1168T
1375.797	23.066	1384458	REC_WORD	23.066	n/a	ELF	7	12	[0, 0, 0]	n/a	FR1	2	R1168T
1398.863	5.375	1407523	REC_END	n/a	n/a	n/a	-999	12	[0, 0, 0]	n/a	FR1	2	R1168T
1404.238	0.5	1412897	TRIAL	n/a	n/a	n/a	-999	13	[0, 0, 0]	n/a	FR1	2	R1168T
1404.738	10.428	1413397	COUNTDOWN_START	n/a	n/a	n/a	-999	13	[0, 0, 0]	n/a	FR1	2	R1168T
1415.166	0.008	1423825	COUNTDOWN_END	n/a	n/a	n/a	-999	13	[0, 0, 0]	n/a	FR1	2	R1168T
1415.174	1.616	1423833	ORIENT	n/a	n/a	n/a	-999	13	[0, 0, 0]	n/a	FR1	2	R1168T
1416.79	2.033	1425449	ORIENT_OFF	n/a	n/a	n/a	-999	13	[0, 0, 0]	n/a	FR1	2	R1168T
1418.823	1.602	1427482	WORD	n/a	wordpools/wordpool_EN.txt	LIP	1	13	[0, 0, 0]	n/a	FR1	2	R1168T
1420.425	0.967	1429083	WORD_OFF	n/a	n/a	LIP	1	13	[0, 0, 0]	n/a	FR1	2	R1168T
1421.392	1.617	1430050	WORD	n/a	wordpools/wordpool_EN.txt	AXE	2	13	[0, 0, 0]	n/a	FR1	2	R1168T
1423.009	0.833	1431667	WORD_OFF	n/a	n/a	AXE	2	13	[0, 0, 0]	n/a	FR1	2	R1168T
1423.842	1.617	1432500	WORD	n/a	wordpools/wordpool_EN.txt	JUDGE	3	13	[0, 0, 0]	n/a	FR1	2	R1168T
1425.459	0.867	1434117	WORD_OFF	n/a	n/a	JUDGE	3	13	[0, 0, 0]	n/a	FR1	2	R1168T
1426.326	1.617	1434984	WORD	n/a	wordpools/wordpool_EN.txt	PARK	4	13	[0, 0, 0]	n/a	FR1	2	R1168T
1427.943	0.933	1436601	WORD_OFF	n/a	n/a	PARK	4	13	[0, 0, 0]	n/a	FR1	2	R1168T
1428.876	1.617	1437534	WORD	n/a	wordpools/wordpool_EN.txt	KEY	5	13	[0, 0, 0]	n/a	FR1	2	R1168T
1430.493	0.767	1439151	WORD_OFF	n/a	n/a	KEY	5	13	[0, 0, 0]	n/a	FR1	2	R1168T
1431.26	1.617	1439918	WORD	n/a	wordpools/wordpool_EN.txt	BRANCH	6	13	[0, 0, 0]	n/a	FR1	2	R1168T
1432.877	0.866	1441535	WORD_OFF	n/a	n/a	BRANCH	6	13	[0, 0, 0]	n/a	FR1	2	R1168T
1433.743	1.618	1442401	WORD	n/a	wordpools/wordpool_EN.txt	LAWN	7	13	[0, 0, 0]	n/a	FR1	2	R1168T
1435.361	0.95	1444019	WORD_OFF	n/a	n/a	LAWN	7	13	[0, 0, 0]	n/a	FR1	2	R1168T
1436.311	1.617	1444969	WORD	n/a	wordpools/wordpool_EN.txt	PEAR	8	13	[0, 0, 0]	n/a	FR1	2	R1168T
1437.928	0.9	1446585	WORD_OFF	n/a	n/a	PEAR	8	13	[0, 0, 0]	n/a	FR1	2	R1168T
1438.828	1.617	1447485	WORD	n/a	wordpools/wordpool_EN.txt	TOE	9	13	[0, 0, 0]	n/a	FR1	2	R1168T
1440.445	0.884	1449102	WORD_OFF	n/a	n/a	TOE	9	13	[0, 0, 0]	n/a	FR1	2	R1168T
1441.329	1.617	1449986	WORD	n/a	wordpools/wordpool_EN.txt	HORN	10	13	[0, 0, 0]	n/a	FR1	2	R1168T
1442.946	0.865	1451603	WORD_OFF	n/a	n/a	HORN	10	13	[0, 0, 0]	n/a	FR1	2	R1168T
1443.811	1.601	1452468	WORD	n/a	wordpools/wordpool_EN.txt	WHALE	11	13	[0, 0, 0]	n/a	FR1	2	R1168T
1445.412	0.934	1454069	WORD_OFF	n/a	n/a	WHALE	11	13	[0, 0, 0]	n/a	FR1	2	R1168T
1446.346	1.617	1455003	WORD	n/a	wordpools/wordpool_EN.txt	LOCK	12	13	[0, 0, 0]	n/a	FR1	2	R1168T
1447.963	0.0	1456620	WORD_OFF	n/a	n/a	LOCK	12	13	[0, 0, 0]	n/a	FR1	2	R1168T
1447.963	0.001	1456620	DISTRACT_START	n/a	n/a	n/a	-999	13	[0, 0, 0]	n/a	FR1	2	R1168T
1447.964	0.016	1456621	START	n/a	n/a	n/a	-999	13	[-999, -999, -999]	n/a	FR1	2	R1168T
1447.98	4.367	1456637	PROB	4.367	n/a	n/a	-999	13	[5, 4, 5]	14	FR1	2	R1168T
1452.347	3.234	1461004	PROB	3.234	n/a	n/a	-999	13	[6, 6, 6]	18	FR1	2	R1168T
1455.581	3.001	1464237	PROB	3.001	n/a	n/a	-999	13	[1, 6, 6]	13	FR1	2	R1168T
1458.582	3.484	1467238	PROB	3.484	n/a	n/a	-999	13	[3, 4, 7]	14	FR1	2	R1168T
1462.066	3.1	1470722	PROB	3.1	n/a	n/a	-999	13	[9, 1, 5]	15	FR1	2	R1168T
1465.166	3.497	1473822	PROB	3.497	n/a	n/a	-999	13	[2, 6, 6]	14	FR1	2	R1168T
1468.663	0.02	1477319	STOP	n/a	n/a	n/a	-999	13	[-999, -999, -999]	n/a	FR1	2	R1168T
1468.683	0.567	1477339	DISTRACT_END	n/a	n/a	n/a	-999	13	[0, 0, 0]	n/a	FR1	2	R1168T
1469.25	0.517	1477906	RETRIEVAL_ORIENT	n/a	n/a	n/a	-999	13	[0, 0, 0]	n/a	FR1	2	R1168T
1469.767	1.268	1478423	REC_START	n/a	n/a	n/a	-999	13	[0, 0, 0]	n/a	FR1	2	R1168T
1471.035	1.132	1479691	REC_WORD	1.132	n/a	LIP	1	13	[0, 0, 0]	n/a	FR1	2	R1168T
1472.167	1.254	1480822	REC_WORD	1.254	n/a	TOE	9	13	[0, 0, 0]	n/a	FR1	2	R1168T
1473.421	1.254	1482076	REC_WORD	1.254	n/a	WHALE	11	13	[0, 0, 0]	n/a	FR1	2	R1168T
1474.675	8.625	1483330	REC_WORD	8.625	n/a	LOCK	12	13	[0, 0, 0]	n/a	FR1	2	R1168T
1483.3	16.478	1491955	REC_WORD	16.478	n/a	JUDGE	3	13	[0, 0, 0]	n/a	FR1	2	R1168T
1499.778	5.429	1508432	REC_END	n/a	n/a	n/a	-999	13	[0, 0, 0]	n/a	FR1	2	R1168T
1505.207	0.5	1513861	TRIAL	n/a	n/a	n/a	-999	14	[0, 0, 0]	n/a	FR1	2	R1168T
1505.707	10.428	1514361	COUNTDOWN_START	n/a	n/a	n/a	-999	14	[0, 0, 0]	n/a	FR1	2	R1168T
1516.135	0.007	1524788	COUNTDOWN_END	n/a	n/a	n/a	-999	14	[0, 0, 0]	n/a	FR1	2	R1168T
1516.142	1.616	1524795	ORIENT	n/a	n/a	n/a	-999	14	[0, 0, 0]	n/a	FR1	2	R1168T
1517.758	2.302	1526411	ORIENT_OFF	n/a	n/a	n/a	-999	14	[0, 0, 0]	n/a	FR1	2	R1168T
1520.06	1.616	1528713	WORD	n/a	wordpools/wordpool_EN.txt	BOY	1	14	[0, 0, 0]	n/a	FR1	2	R1168T
1521.676	0.834	1530329	WORD_OFF	n/a	n/a	BOY	1	14	[0, 0, 0]	n/a	FR1	2	R1168T
1522.51	1.617	1531163	WORD	n/a	wordpools/wordpool_EN.txt	WEED	2	14	[0, 0, 0]	n/a	FR1	2	R1168T
1524.127	0.9	1532779	WORD_OFF	n/a	n/a	WEED	2	14	[0, 0, 0]	n/a	FR1	2	R1168T
1525.027	1.616	1533679	WORD	n/a	wordpools/wordpool_EN.txt	DRUM	3	14	[0, 0, 0]	n/a	FR1	2	R1168T
1526.643	0.785	1535295	WORD_OFF	n/a	n/a	DRUM	3	14	[0, 0, 0]	n/a	FR1	2	R1168T
1527.428	1.617	1536080	WORD	n/a	wordpools/wordpool_EN.txt	CASH	4	14	[0, 0, 0]	n/a	FR1	2	R1168T
1529.045	0.765	1537697	WORD_OFF	n/a	n/a	CASH	4	14	[0, 0, 0]	n/a	FR1	2	R1168T
1529.81	1.618	1538462	WORD	n/a	wordpools/wordpool_EN.txt	GLASS	5	14	[0, 0, 0]	n/a	FR1	2	R1168T
1531.428	0.917	1540080	WORD_OFF	n/a	n/a	GLASS	5	14	[0, 0, 0]	n/a	FR1	2	R1168T
1532.345	1.617	1540997	WORD	n/a	wordpools/wordpool_EN.txt	FLEA	6	14	[0, 0, 0]	n/a	FR1	2	R1168T
1533.962	0.9	1542614	WORD_OFF	n/a	n/a	FLEA	6	14	[0, 0, 0]	n/a	FR1	2	R1168T
1534.862	1.617	1543514	WORD	n/a	wordpools/wordpool_EN.txt	VAN	7	14	[0, 0, 0]	n/a	FR1	2	R1168T
1536.479	0.817	1545131	WORD_OFF	n/a	n/a	VAN	7	14	[0, 0, 0]	n/a	FR1	2	R1168T
1537.296	1.617	1545948	WORD	n/a	wordpools/wordpool_EN.txt	STREET	8	14	[0, 0, 0]	n/a	FR1	2	R1168T
1538.913	0.95	1547565	WORD_OFF	n/a	n/a	STREET	8	14	[0, 0, 0]	n/a	FR1	2	R1168T
1539.863	1.617	1548515	WORD	n/a	wordpools/wordpool_EN.txt	SCHOOL	9	14	[0, 0, 0]	n/a	FR1	2	R1168T
1541.48	0.867	1550131	WORD_OFF	n/a	n/a	SCHOOL	9	14	[0, 0, 0]	n/a	FR1	2	R1168T
1542.347	1.617	1550998	WORD	n/a	wordpools/wordpool_EN.txt	COIN	10	14	[0, 0, 0]	n/a	FR1	2	R1168T
1543.964	0.766	1552615	WORD_OFF	n/a	n/a	COIN	10	14	[0, 0, 0]	n/a	FR1	2	R1168T
1544.73	1.618	1553381	WORD	n/a	wordpools/wordpool_EN.txt	CHIEF	11	14	[0, 0, 0]	n/a	FR1	2	R1168T
1546.348	0.817	1554999	WORD_OFF	n/a	n/a	CHIEF	11	14	[0, 0, 0]	n/a	FR1	2	R1168T
1547.165	1.616	1555816	WORD	n/a	wordpools/wordpool_EN.txt	FOG	12	14	[0, 0, 0]	n/a	FR1	2	R1168T
1548.781	0.0	1557432	WORD_OFF	n/a	n/a	FOG	12	14	[0, 0, 0]	n/a	FR1	2	R1168T
1548.781	0.0	1557432	DISTRACT_START	n/a	n/a	n/a	-999	14	[0, 0, 0]	n/a	FR1	2	R1168T
1548.781	0.016	1557432	START	n/a	n/a	n/a	-999	14	[-999, -999, -999]	n/a	FR1	2	R1168T
1548.797	5.519	1557448	PROB	5.519	n/a	n/a	-999	14	[3, 7, 7]	17	FR1	2	R1168T
1554.316	3.601	1562967	PROB	3.601	n/a	n/a	-999	14	[5, 9, 1]	15	FR1	2	R1168T
1557.917	3.15	1566568	PROB	3.15	n/a	n/a	-999	14	[3, 1, 9]	13	FR1	2	R1168T
1561.067	3.583	1569717	PROB	3.583	n/a	n/a	-999	14	[2, 8, 3]	13	FR1	2	R1168T
1564.65	8.614	1573300	PROB	8.614	n/a	n/a	-999	14	[4, 8, 4]	16	FR1	2	R1168T
1573.264	0.022	1581914	STOP	n/a	n/a	n/a	-999	14	[-999, -999, -999]	n/a	FR1	2	R1168T
1573.286	0.567	1581936	DISTRACT_END	n/a	n/a	n/a	-999	14	[0, 0, 0]	n/a	FR1	2	R1168T
1573.853	0.517	1582503	RETRIEVAL_ORIENT	n/a	n/a	n/a	-999	14	[0, 0, 0]	n/a	FR1	2	R1168T
1574.37	3.516	1583020	REC_START	n/a	n/a	n/a	-999	14	[0, 0, 0]	n/a	FR1	2	R1168T
1577.886	26.497	1586535	REC_WORD	26.497	n/a	COIN	10	14	[0, 0, 0]	n/a	FR1	2	R1168T
1604.383	7.243	1613031	REC_END	n/a	n/a	n/a	-999	14	[0, 0, 0]	n/a	FR1	2	R1168T
1611.626	0.5	1620273	TRIAL	n/a	n/a	n/a	-999	15	[0, 0, 0]	n/a	FR1	2	R1168T
1612.126	10.428	1620773	COUNTDOWN_START	n/a	n/a	n/a	-999	15	[0, 0, 0]	n/a	FR1	2	R1168T
1622.554	0.008	1631201	COUNTDOWN_END	n/a	n/a	n/a	-999	15	[0, 0, 0]	n/a	FR1	2	R1168T
1622.562	1.616	1631209	ORIENT	n/a	n/a	n/a	-999	15	[0, 0, 0]	n/a	FR1	2	R1168T
1624.178	1.934	1632825	ORIENT_OFF	n/a	n/a	n/a	-999	15	[0, 0, 0]	n/a	FR1	2	R1168T
1626.112	1.616	1634759	WORD	n/a	wordpools/wordpool_EN.txt	POOL	1	15	[0, 0, 0]	n/a	FR1	2	R1168T
1627.728	0.851	1636375	WORD_OFF	n/a	n/a	POOL	1	15	[0, 0, 0]	n/a	FR1	2	R1168T
1628.579	1.617	1637225	WORD	n/a	wordpools/wordpool_EN.txt	SOCK	2	15	[0, 0, 0]	n/a	FR1	2	R1168T
1630.196	0.784	1638842	WORD_OFF	n/a	n/a	SOCK	2	15	[0, 0, 0]	n/a	FR1	2	R1168T
1630.98	1.617	1639626	WORD	n/a	wordpools/wordpool_EN.txt	MOUTH	3	15	[0, 0, 0]	n/a	FR1	2	R1168T
1632.597	0.9	1641243	WORD_OFF	n/a	n/a	MOUTH	3	15	[0, 0, 0]	n/a	FR1	2	R1168T
1633.497	1.617	1642143	WORD	n/a	wordpools/wordpool_EN.txt	HILL	4	15	[0, 0, 0]	n/a	FR1	2	R1168T
1635.114	1.0	1643760	WORD_OFF	n/a	n/a	HILL	4	15	[0, 0, 0]	n/a	FR1	2	R1168T
1636.114	1.616	1644760	WORD	n/a	wordpools/wordpool_EN.txt	VASE	5	15	[0, 0, 0]	n/a	FR1	2	R1168T
1637.73	0.934	1646376	WORD_OFF	n/a	n/a	VASE	5	15	[0, 0, 0]	n/a	FR1	2	R1168T
1638.664	1.617	1647310	WORD	n/a	wordpools/wordpool_EN.txt	BROOM	6	15	[0, 0, 0]	n/a	FR1	2	R1168T
1640.281	0.917	1648927	WORD_OFF	n/a	n/a	BROOM	6	15	[0, 0, 0]	n/a	FR1	2	R1168T
1641.198	1.616	1649844	WORD	n/a	wordpools/wordpool_EN.txt	TOAST	7	15	[0, 0, 0]	n/a	FR1	2	R1168T
1642.814	0.984	1651460	WORD_OFF	n/a	n/a	TOAST	7	15	[0, 0, 0]	n/a	FR1	2	R1168T
1643.798	1.618	1652444	WORD	n/a	wordpools/wordpool_EN.txt	GATE	8	15	[0, 0, 0]	n/a	FR1	2	R1168T
1645.416	0.783	1654062	WORD_OFF	n/a	n/a	GATE	8	15	[0, 0, 0]	n/a	FR1	2	R1168T
1646.199	1.616	1654844	WORD	n/a	wordpools/wordpool_EN.txt	ROOF	9	15	[0, 0, 0]	n/a	FR1	2	R1168T
1647.815	0.917	1656460	WORD_OFF	n/a	n/a	ROOF	9	15	[0, 0, 0]	n/a	FR1	2	R1168T
1648.732	1.618	1657377	WORD	n/a	wordpools/wordpool_EN.txt	FLUTE	10	15	[0, 0, 0]	n/a	FR1	2	R1168T
1650.35	0.767	1658995	WORD_OFF	n/a	n/a	FLUTE	10	15	[0, 0, 0]	n/a	FR1	2	R1168T
1651.117	1.616	1659762	WORD	n/a	wordpools/wordpool_EN.txt	DOOR	11	15	[0, 0, 0]	n/a	FR1	2	R1168T
1652.733	1.0	1661378	WORD_OFF	n/a	n/a	DOOR	11	15	[0, 0, 0]	n/a	FR1	2	R1168T
1653.733	1.618	1662378	WORD	n/a	wordpools/wordpool_EN.txt	BOOT	12	15	[0, 0, 0]	n/a	FR1	2	R1168T
1655.351	0.0	1663996	WORD_OFF	n/a	n/a	BOOT	12	15	[0, 0, 0]	n/a	FR1	2	R1168T
1655.351	0.001	1663996	DISTRACT_START	n/a	n/a	n/a	-999	15	[0, 0, 0]	n/a	FR1	2	R1168T
1655.352	0.016	1663997	START	n/a	n/a	n/a	-999	15	[-999, -999, -999]	n/a	FR1	2	R1168T
1655.368	6.868	1664013	PROB	6.868	n/a	n/a	-999	15	[9, 2, 3]	14	FR1	2	R1168T
1662.236	5.45	1670881	PROB	5.45	n/a	n/a	-999	15	[6, 3, 8]	17	FR1	2	R1168T
1667.686	2.384	1676330	PROB	2.384	n/a	n/a	-999	15	[9, 1, 2]	12	FR1	2	R1168T
1670.07	3.617	1678714	PROB	3.617	n/a	n/a	-999	15	[8, 8, 4]	20	FR1	2	R1168T
1673.687	3.896	1682331	PROB	3.896	n/a	n/a	-999	15	[2, 3, 7]	12	FR1	2	R1168T
1677.583	0.022	1686227	STOP	n/a	n/a	n/a	-999	15	[-999, -999, -999]	n/a	FR1	2	R1168T
1677.605	0.65	1686249	DISTRACT_END	n/a	n/a	n/a	-999	15	[0, 0, 0]	n/a	FR1	2	R1168T
1678.255	0.517	1686899	RETRIEVAL_ORIENT	n/a	n/a	n/a	-999	15	[0, 0, 0]	n/a	FR1	2	R1168T
1678.772	1.944	1687416	REC_START	n/a	n/a	n/a	-999	15	[0, 0, 0]	n/a	FR1	2	R1168T
1680.716	1.23	1689359	REC_WORD	1.23	n/a	BROOM	6	15	[0, 0, 0]	n/a	FR1	2	R1168T
1681.946	23.89	1690589	REC_WORD	23.89	n/a	BOOT	12	15	[0, 0, 0]	n/a	FR1	2	R1168T
1705.836	2.947	1714478	REC_WORD	2.947	n/a	SHOE	-999	15	[0, 0, 0]	n/a	FR1	2	R1168T
1708.783	7.046	1717425	REC_END	n/a	n/a	n/a	-999	15	[0, 0, 0]	n/a	FR1	2	R1168T
1715.829	0.5	1724470	TRIAL	n/a	n/a	n/a	-999	16	[0, 0, 0]	n/a	FR1	2	R1168T
1716.329	10.428	1724970	COUNTDOWN_START	n/a	n/a	n/a	-999	16	[0, 0, 0]	n/a	FR1	2	R1168T
1726.757	0.006	1735398	COUNTDOWN_END	n/a	n/a	n/a	-999	16	[0, 0, 0]	n/a	FR1	2	R1168T
1726.763	1.618	1735404	ORIENT	n/a	n/a	n/a	-999	16	[0, 0, 0]	n/a	FR1	2	R1168T
1728.381	1.834	1737022	ORIENT_OFF	n/a	n/a	n/a	-999	16	[0, 0, 0]	n/a	FR1	2	R1168T
1730.215	1.616	1738856	WORD	n/a	wordpools/wordpool_EN.txt	COUCH	1	16	[0, 0, 0]	n/a	FR1	2	R1168T
1731.831	0.816	1740472	WORD_OFF	n/a	n/a	COUCH	1	16	[0, 0, 0]	n/a	FR1	2	R1168T
1732.647	1.618	1741287	WORD	n/a	wordpools/wordpool_EN.txt	GUARD	2	16	[0, 0, 0]	n/a	FR1	2	R1168T
1734.265	0.884	1742905	WORD_OFF	n/a	n/a	GUARD	2	16	[0, 0, 0]	n/a	FR1	2	R1168T
1735.149	1.616	1743789	WORD	n/a	wordpools/wordpool_EN.txt	DESK	3	16	[0, 0, 0]	n/a	FR1	2	R1168T
1736.765	0.818	1745405	WORD_OFF	n/a	n/a	DESK	3	16	[0, 0, 0]	n/a	FR1	2	R1168T
1737.583	1.616	1746223	WORD	n/a	wordpools/wordpool_EN.txt	STOOL	4	16	[0, 0, 0]	n/a	FR1	2	R1168T
1739.199	0.784	1747839	WORD_OFF	n/a	n/a	STOOL	4	16	[0, 0, 0]	n/a	FR1	2	R1168T
1739.983	1.617	1748623	WORD	n/a	wordpools/wordpool_EN.txt	SLEEVE	5	16	[0, 0, 0]	n/a	FR1	2	R1168T
1741.6	0.833	1750240	WORD_OFF	n/a	n/a	SLEEVE	5	16	[0, 0, 0]	n/a	FR1	2	R1168T
1742.433	1.617	1751073	WORD	n/a	wordpools/wordpool_EN.txt	OWL	6	16	[0, 0, 0]	n/a	FR1	2	R1168T
1744.05	0.784	1752690	WORD_OFF	n/a	n/a	OWL	6	16	[0, 0, 0]	n/a	FR1	2	R1168T
1744.834	1.617	1753474	WORD	n/a	wordpools/wordpool_EN.txt	EAR	7	16	[0, 0, 0]	n/a	FR1	2	R1168T
1746.451	0.8	1755091	WORD_OFF	n/a	n/a	EAR	7	16	[0, 0, 0]	n/a	FR1	2	R1168T
1747.251	1.617	1755891	WORD	n/a	wordpools/wordpool_EN.txt	CHAIR	8	16	[0, 0, 0]	n/a	FR1	2	R1168T
1748.868	0.967	1757508	WORD_OFF	n/a	n/a	CHAIR	8	16	[0, 0, 0]	n/a	FR1	2	R1168T
1749.835	1.617	1758474	WORD	n/a	wordpools/wordpool_EN.txt	DART	9	16	[0, 0, 0]	n/a	FR1	2	R1168T
1751.452	0.833	1760091	WORD_OFF	n/a	n/a	DART	9	16	[0, 0, 0]	n/a	FR1	2	R1168T
1752.285	1.617	1760924	WORD	n/a	wordpools/wordpool_EN.txt	HOUSE	10	16	[0, 0, 0]	n/a	FR1	2	R1168T
1753.902	0.934	1762541	WORD_OFF	n/a	n/a	HOUSE	10	16	[0, 0, 0]	n/a	FR1	2	R1168T
1754.836	1.617	1763475	WORD	n/a	wordpools/wordpool_EN.txt	CLOCK	11	16	[0, 0, 0]	n/a	FR1	2	R1168T
1756.453	0.783	1765092	WORD_OFF	n/a	n/a	CLOCK	11	16	[0, 0, 0]	n/a	FR1	2	R1168T
1757.236	1.617	1765875	WORD	n/a	wordpools/wordpool_EN.txt	RAT	12	16	[0, 0, 0]	n/a	FR1	2	R1168T
1758.853	0.0	1767492	WORD_OFF	n/a	n/a	RAT	12	16	[0, 0, 0]	n/a	FR1	2	R1168T
1758.853	0.001	1767492	DISTRACT_START	n/a	n/a	n/a	-999	16	[0, 0, 0]	n/a	FR1	2	R1168T
1758.854	0.016	1767493	START	n/a	n/a	n/a	-999	16	[-999, -999, -999]	n/a	FR1	2	R1168T
1758.87	7.134	1767509	PROB	7.134	n/a	n/a	-999	16	[8, 7, 7]	22	FR1	2	R1168T
1766.004	5.268	1774643	PROB	5.268	n/a	n/a	-999	16	[7, 1, 9]	17	FR1	2	R1168T
1771.272	3.533	1779910	PROB	3.533	n/a	n/a	-999	16	[4, 9, 9]	22	FR1	2	R1168T
1774.805	3.335	1783443	PROB	3.335	n/a	n/a	-999	16	[2, 9, 2]	13	FR1	2	R1168T
1778.14	4.658	1786778	PROB	4.658	n/a	n/a	-999	16	[3, 2, 5]	10	FR1	2	R1168T
1782.798	0.009	1791436	STOP	n/a	n/a	n/a	-999	16	[-999, -999, -999]	n/a	FR1	2	R1168T
1782.807	0.551	1791445	DISTRACT_END	n/a	n/a	n/a	-999	16	[0, 0, 0]	n/a	FR1	2	R1168T
1783.358	0.518	1791996	RETRIEVAL_ORIENT	n/a	n/a	n/a	-999	16	[0, 0, 0]	n/a	FR1	2	R1168T
1783.876	1.79	1792514	REC_START	n/a	n/a	n/a	-999	16	[0, 0, 0]	n/a	FR1	2	R1168T
1785.666	0.952	1794303	REC_WORD	0.952	n/a	EAR	7	16	[0, 0, 0]	n/a	FR1	2	R1168T
1786.618	1.056	1795255	REC_WORD	1.056	n/a	OWL	6	16	[0, 0, 0]	n/a	FR1	2	R1168T
1787.674	1.031	1796311	REC_WORD	1.031	n/a	DESK	3	16	[0, 0, 0]	n/a	FR1	2	R1168T
1788.705	1.076	1797342	REC_WORD	1.076	n/a	CHAIR	8	16	[0, 0, 0]	n/a	FR1	2	R1168T
1789.781	24.106	1798418	REC_WORD	24.106	n/a	RAT	12	16	[0, 0, 0]	n/a	FR1	2	R1168T
1813.887	4.11	1822523	REC_END	n/a	n/a	n/a	-999	16	[0, 0, 0]	n/a	FR1	2	R1168T
1817.997	0.5	1826633	TRIAL	n/a	n/a	n/a	-999	17	[0, 0, 0]	n/a	FR1	2	R1168T
1818.497	10.428	1827133	COUNTDOWN_START	n/a	n/a	n/a	-999	17	[0, 0, 0]	n/a	FR1	2	R1168T
1828.925	0.007	1837560	COUNTDOWN_END	n/a	n/a	n/a	-999	17	[0, 0, 0]	n/a	FR1	2	R1168T
1828.932	1.617	1837567	ORIENT	n/a	n/a	n/a	-999	17	[0, 0, 0]	n/a	FR1	2	R1168T
1830.549	1.934	1839184	ORIENT_OFF	n/a	n/a	n/a	-999	17	[0, 0, 0]	n/a	FR1	2	R1168T
1832.483	1.617	1841118	WORD	n/a	wordpools/wordpool_EN.txt	DRESS	1	17	[0, 0, 0]	n/a	FR1	2	R1168T
1834.1	0.9	1842735	WORD_OFF	n/a	n/a	DRESS	1	17	[0, 0, 0]	n/a	FR1	2	R1168T
1835.0	1.617	1843635	WORD	n/a	wordpools/wordpool_EN.txt	CAKE	2	17	[0, 0, 0]	n/a	FR1	2	R1168T
1836.617	0.8	1845251	WORD_OFF	n/a	n/a	CAKE	2	17	[0, 0, 0]	n/a	FR1	2	R1168T
1837.417	1.617	1846051	WORD	n/a	wordpools/wordpool_EN.txt	DIME	3	17	[0, 0, 0]	n/a	FR1	2	R1168T
1839.034	0.984	1847668	WORD_OFF	n/a	n/a	DIME	3	17	[0, 0, 0]	n/a	FR1	2	R1168T
1840.018	1.616	1848652	WORD	n/a	wordpools/wordpool_EN.txt	CLOWN	4	17	[0, 0, 0]	n/a	FR1	2	R1168T
1841.634	0.768	1850268	WORD_OFF	n/a	n/a	CLOWN	4	17	[0, 0, 0]	n/a	FR1	2	R1168T
1842.402	1.617	1851036	WORD	n/a	wordpools/wordpool_EN.txt	BOX	5	17	[0, 0, 0]	n/a	FR1	2	R1168T
1844.019	0.933	1852653	WORD_OFF	n/a	n/a	BOX	5	17	[0, 0, 0]	n/a	FR1	2	R1168T
1844.952	1.617	1853586	WORD	n/a	wordpools/wordpool_EN.txt	FAN	6	17	[0, 0, 0]	n/a	FR1	2	R1168T
1846.569	0.95	1855203	WORD_OFF	n/a	n/a	FAN	6	17	[0, 0, 0]	n/a	FR1	2	R1168T
1847.519	1.617	1856153	WORD	n/a	wordpools/wordpool_EN.txt	PIN	7	17	[0, 0, 0]	n/a	FR1	2	R1168T
1849.136	0.834	1857770	WORD_OFF	n/a	n/a	PIN	7	17	[0, 0, 0]	n/a	FR1	2	R1168T
1849.97	1.617	1858604	WORD	n/a	wordpools/wordpool_EN.txt	RUG	8	17	[0, 0, 0]	n/a	FR1	2	R1168T
1851.587	0.767	1860221	WORD_OFF	n/a	n/a	RUG	8	17	[0, 0, 0]	n/a	FR1	2	R1168T
1852.354	1.616	1860988	WORD	n/a	wordpools/wordpool_EN.txt	SHOE	9	17	[0, 0, 0]	n/a	FR1	2	R1168T
1853.97	0.766	1862603	WORD_OFF	n/a	n/a	SHOE	9	17	[0, 0, 0]	n/a	FR1	2	R1168T
1854.736	1.618	1863369	WORD	n/a	wordpools/wordpool_EN.txt	BOWL	10	17	[0, 0, 0]	n/a	FR1	2	R1168T
1856.354	0.934	1864987	WORD_OFF	n/a	n/a	BOWL	10	17	[0, 0, 0]	n/a	FR1	2	R1168T
1857.288	1.617	1865921	WORD	n/a	wordpools/wordpool_EN.txt	PLATE	11	17	[0, 0, 0]	n/a	FR1	2	R1168T
1858.905	0.95	1867538	WORD_OFF	n/a	n/a	PLATE	11	17	[0, 0, 0]	n/a	FR1	2	R1168T
1859.855	1.617	1868488	WORD	n/a	wordpools/wordpool_EN.txt	KITE	12	17	[0, 0, 0]	n/a	FR1	2	R1168T
1861.472	0.0	1870105	WORD_OFF	n/a	n/a	KITE	12	17	[0, 0, 0]	n/a	FR1	2	R1168T
1861.472	0.001	1870105	DISTRACT_START	n/a	n/a	n/a	-999	17	[0, 0, 0]	n/a	FR1	2	R1168T
1861.473	0.015	1870106	START	n/a	n/a	n/a	-999	17	[-999, -999, -999]	n/a	FR1	2	R1168T
1861.488	6.618	1870121	PROB	6.618	n/a	n/a	-999	17	[6, 3, 4]	13	FR1	2	R1168T
1868.106	3.884	1876739	PROB	3.884	n/a	n/a	-999	17	[7, 3, 7]	17	FR1	2	R1168T
1871.99	4.385	1880622	PROB	4.385	n/a	n/a	-999	17	[9, 3, 9]	21	FR1	2	R1168T
1876.375	4.0	1885007	PROB	4.0	n/a	n/a	-999	17	[3, 7, 5]	15	FR1	2	R1168T
1880.375	9.553	1889007	PROB	9.553	n/a	n/a	-999	17	[9, 7, 4]	20	FR1	2	R1168T
1889.928	0.016	1898559	STOP	n/a	n/a	n/a	-999	17	[-999, -999, -999]	n/a	FR1	2	R1168T
1889.944	0.583	1898575	DISTRACT_END	n/a	n/a	n/a	-999	17	[0, 0, 0]	n/a	FR1	2	R1168T
1890.527	0.517	1899158	RETRIEVAL_ORIENT	n/a	n/a	n/a	-999	17	[0, 0, 0]	n/a	FR1	2	R1168T
1891.044	1.158	1899675	REC_START	n/a	n/a	n/a	-999	17	[0, 0, 0]	n/a	FR1	2	R1168T
1892.202	1.062	1900833	REC_WORD	1.062	n/a	DRESS	1	17	[0, 0, 0]	n/a	FR1	2	R1168T
1893.264	1.377	1901895	REC_WORD	1.377	n/a	CAKE	2	17	[0, 0, 0]	n/a	FR1	2	R1168T
1894.641	1.1	1903272	REC_WORD	1.1	n/a	DIME	3	17	[0, 0, 0]	n/a	FR1	2	R1168T
1895.741	1.116	1904372	REC_WORD	1.116	n/a	BOX	5	17	[0, 0, 0]	n/a	FR1	2	R1168T
1896.857	24.202	1905488	REC_WORD	24.202	n/a	CLOWN	4	17	[0, 0, 0]	n/a	FR1	2	R1168T
1921.059	11.542	1929689	REC_END	n/a	n/a	n/a	-999	17	[0, 0, 0]	n/a	FR1	2	R1168T
1932.601	0.5	1941230	TRIAL	n/a	n/a	n/a	-999	18	[0, 0, 0]	n/a	FR1	2	R1168T
1933.101	10.428	1941730	COUNTDOWN_START	n/a	n/a	n/a	-999	18	[0, 0, 0]	n/a	FR1	2	R1168T
1943.529	0.008	1952157	COUNTDOWN_END	n/a	n/a	n/a	-999	18	[0, 0, 0]	n/a	FR1	2	R1168T
1943.537	1.617	1952165	ORIENT	n/a	n/a	n/a	-999	18	[0, 0, 0]	n/a	FR1	2	R1168T
1945.154	2.1	1953782	ORIENT_OFF	n/a	n/a	n/a	-999	18	[0, 0, 0]	n/a	FR1	2	R1168T
1947.254	1.617	1955882	WORD	n/a	wordpools/wordpool_EN.txt	PANTS	1	18	[0, 0, 0]	n/a	FR1	2	R1168T
1948.871	0.899	1957499	WORD_OFF	n/a	n/a	PANTS	1	18	[0, 0, 0]	n/a	FR1	2	R1168T
1949.77	1.618	1958398	WORD	n/a	wordpools/wordpool_EN.txt	TEETH	2	18	[0, 0, 0]	n/a	FR1	2	R1168T
1951.388	0.85	1960016	WORD_OFF	n/a	n/a	TEETH	2	18	[0, 0, 0]	n/a	FR1	2	R1168T
1952.238	1.617	1960866	WORD	n/a	wordpools/wordpool_EN.txt	DUCK	3	18	[0, 0, 0]	n/a	FR1	2	R1168T
1953.855	0.899	1962483	WORD_OFF	n/a	n/a	DUCK	3	18	[0, 0, 0]	n/a	FR1	2	R1168T
1954.754	1.618	1963382	WORD	n/a	wordpools/wordpool_EN.txt	SNAKE	4	18	[0, 0, 0]	n/a	FR1	2	R1168T
1956.372	0.817	1965000	WORD_OFF	n/a	n/a	SNAKE	4	18	[0, 0, 0]	n/a	FR1	2	R1168T
1957.189	1.616	1965817	WORD	n/a	wordpools/wordpool_EN.txt	PIG	5	18	[0, 0, 0]	n/a	FR1	2	R1168T
1958.805	0.85	1967432	WORD_OFF	n/a	n/a	PIG	5	18	[0, 0, 0]	n/a	FR1	2	R1168T
1959.655	1.601	1968282	WORD	n/a	wordpools/wordpool_EN.txt	TOY	6	18	[0, 0, 0]	n/a	FR1	2	R1168T
1961.256	0.967	1969883	WORD_OFF	n/a	n/a	TOY	6	18	[0, 0, 0]	n/a	FR1	2	R1168T
1962.223	1.617	1970850	WORD	n/a	wordpools/wordpool_EN.txt	TOOTH	7	18	[0, 0, 0]	n/a	FR1	2	R1168T
1963.84	0.767	1972467	WORD_OFF	n/a	n/a	TOOTH	7	18	[0, 0, 0]	n/a	FR1	2	R1168T
1964.607	1.617	1973234	WORD	n/a	wordpools/wordpool_EN.txt	TRUCK	8	18	[0, 0, 0]	n/a	FR1	2	R1168T
1966.224	0.867	1974851	WORD_OFF	n/a	n/a	TRUCK	8	18	[0, 0, 0]	n/a	FR1	2	R1168T
1967.091	1.616	1975718	WORD	n/a	wordpools/wordpool_EN.txt	BRUSH	9	18	[0, 0, 0]	n/a	FR1	2	R1168T
1968.707	0.918	1977334	WORD_OFF	n/a	n/a	BRUSH	9	18	[0, 0, 0]	n/a	FR1	2	R1168T
1969.625	1.617	1978252	WORD	n/a	wordpools/wordpool_EN.txt	CAGE	10	18	[0, 0, 0]	n/a	FR1	2	R1168T
1971.242	0.85	1979869	WORD_OFF	n/a	n/a	CAGE	10	18	[0, 0, 0]	n/a	FR1	2	R1168T
1972.092	1.616	1980719	WORD	n/a	wordpools/wordpool_EN.txt	TOAD	11	18	[0, 0, 0]	n/a	FR1	2	R1168T
1973.708	0.784	1982335	WORD_OFF	n/a	n/a	TOAD	11	18	[0, 0, 0]	n/a	FR1	2	R1168T
1974.492	1.617	1983119	WORD	n/a	wordpools/wordpool_EN.txt	TENT	12	18	[0, 0, 0]	n/a	FR1	2	R1168T
1976.109	0.0	1984735	WORD_OFF	n/a	n/a	TENT	12	18	[0, 0, 0]	n/a	FR1	2	R1168T
1976.109	0.001	1984735	DISTRACT_START	n/a	n/a	n/a	-999	18	[0, 0, 0]	n/a	FR1	2	R1168T
1976.11	0.016	1984736	START	n/a	n/a	n/a	-999	18	[-999, -999, -999]	n/a	FR1	2	R1168T
1976.126	4.851	1984752	PROB	4.851	n/a	n/a	-999	18	[7, 9, 1]	17	FR1	2	R1168T
1980.977	5.101	1989603	PROB	5.101	n/a	n/a	-999	18	[5, 7, 7]	19	FR1	2	R1168T
1986.078	3.716	1994704	PROB	3.716	n/a	n/a	-999	18	[6, 1, 2]	9	FR1	2	R1168T
1989.794	7.022	1998420	PROB	7.022	n/a	n/a	-999	18	[5, 8, 1]	14	FR1	2	R1168T
1996.816	0.014	2005441	STOP	n/a	n/a	n/a	-999	18	[-999, -999, -999]	n/a	FR1	2	R1168T
1996.83	0.533	2005455	DISTRACT_END	n/a	n/a	n/a	-999	18	[0, 0, 0]	n/a	FR1	2	R1168T
1997.363	0.518	2005988	RETRIEVAL_ORIENT	n/a	n/a	n/a	-999	18	[0, 0, 0]	n/a	FR1	2	R1168T
1997.881	1.08	2006506	REC_START	n/a	n/a	n/a	-999	18	[0, 0, 0]	n/a	FR1	2	R1168T
1998.961	1.089	2007586	REC_WORD	1.089	n/a	PANTS	1	18	[0, 0, 0]	n/a	FR1	2	R1168T
2000.05	1.219	2008675	REC_WORD	1.219	n/a	TEETH	2	18	[0, 0, 0]	n/a	FR1	2	R1168T
2001.269	8.725	2009894	REC_WORD	8.725	n/a	TENT	12	18	[0, 0, 0]	n/a	FR1	2	R1168T
2009.994	17.898	2018618	REC_WORD	17.898	n/a	DUCK	3	18	[0, 0, 0]	n/a	FR1	2	R1168T
2027.892	4.961	2036515	REC_END	n/a	n/a	n/a	-999	18	[0, 0, 0]	n/a	FR1	2	R1168T
2032.853	0.5	2041476	TRIAL	n/a	n/a	n/a	-999	19	[0, 0, 0]	n/a	FR1	2	R1168T
2033.353	10.428	2041976	COUNTDOWN_START	n/a	n/a	n/a	-999	19	[0, 0, 0]	n/a	FR1	2	R1168T
2043.781	0.006	2052404	COUNTDOWN_END	n/a	n/a	n/a	-999	19	[0, 0, 0]	n/a	FR1	2	R1168T
2043.787	1.618	2052410	ORIENT	n/a	n/a	n/a	-999	19	[0, 0, 0]	n/a	FR1	2	R1168T
2045.405	1.901	2054027	ORIENT_OFF	n/a	n/a	n/a	-999	19	[0, 0, 0]	n/a	FR1	2	R1168T
2047.306	1.617	2055928	WORD	n/a	wordpools/wordpool_EN.txt	FUDGE	1	19	[0, 0, 0]	n/a	FR1	2	R1168T
2048.923	0.966	2057545	WORD_OFF	n/a	n/a	FUDGE	1	19	[0, 0, 0]	n/a	FR1	2	R1168T
2049.889	1.617	2058511	WORD	n/a	wordpools/wordpool_EN.txt	FLAG	2	19	[0, 0, 0]	n/a	FR1	2	R1168T
2051.506	0.967	2060128	WORD_OFF	n/a	n/a	FLAG	2	19	[0, 0, 0]	n/a	FR1	2	R1168T
2052.473	1.617	2061095	WORD	n/a	wordpools/wordpool_EN.txt	HEART	3	19	[0, 0, 0]	n/a	FR1	2	R1168T
2054.09	0.8	2062712	WORD_OFF	n/a	n/a	HEART	3	19	[0, 0, 0]	n/a	FR1	2	R1168T
2054.89	1.617	2063512	WORD	n/a	wordpools/wordpool_EN.txt	STAIR	4	19	[0, 0, 0]	n/a	FR1	2	R1168T
2056.507	0.851	2065129	WORD_OFF	n/a	n/a	STAIR	4	19	[0, 0, 0]	n/a	FR1	2	R1168T
2057.358	1.616	2065980	WORD	n/a	wordpools/wordpool_EN.txt	CAR	5	19	[0, 0, 0]	n/a	FR1	2	R1168T
2058.974	0.833	2067596	WORD_OFF	n/a	n/a	CAR	5	19	[0, 0, 0]	n/a	FR1	2	R1168T
2059.807	1.618	2068429	WORD	n/a	wordpools/wordpool_EN.txt	SUIT	6	19	[0, 0, 0]	n/a	FR1	2	R1168T
2061.425	0.917	2070047	WORD_OFF	n/a	n/a	SUIT	6	19	[0, 0, 0]	n/a	FR1	2	R1168T
2062.342	1.617	2070963	WORD	n/a	wordpools/wordpool_EN.txt	JAIL	7	19	[0, 0, 0]	n/a	FR1	2	R1168T
2063.959	0.815	2072580	WORD_OFF	n/a	n/a	JAIL	7	19	[0, 0, 0]	n/a	FR1	2	R1168T
2064.774	1.602	2073395	WORD	n/a	wordpools/wordpool_EN.txt	SMOKE	8	19	[0, 0, 0]	n/a	FR1	2	R1168T
2066.376	0.917	2074997	WORD_OFF	n/a	n/a	SMOKE	8	19	[0, 0, 0]	n/a	FR1	2	R1168T
2067.293	1.617	2075914	WORD	n/a	wordpools/wordpool_EN.txt	MAZE	9	19	[0, 0, 0]	n/a	FR1	2	R1168T
2068.91	0.865	2077531	WORD_OFF	n/a	n/a	MAZE	9	19	[0, 0, 0]	n/a	FR1	2	R1168T
2069.775	1.601	2078396	WORD	n/a	wordpools/wordpool_EN.txt	WALL	10	19	[0, 0, 0]	n/a	FR1	2	R1168T
2071.376	0.968	2079997	WORD_OFF	n/a	n/a	WALL	10	19	[0, 0, 0]	n/a	FR1	2	R1168T
2072.344	1.617	2080965	WORD	n/a	wordpools/wordpool_EN.txt	HAT	11	19	[0, 0, 0]	n/a	FR1	2	R1168T
2073.961	0.9	2082582	WORD_OFF	n/a	n/a	HAT	11	19	[0, 0, 0]	n/a	FR1	2	R1168T
2074.861	1.617	2083482	WORD	n/a	wordpools/wordpool_EN.txt	PHONE	12	19	[0, 0, 0]	n/a	FR1	2	R1168T
2076.478	0.0	2085099	WORD_OFF	n/a	n/a	PHONE	12	19	[0, 0, 0]	n/a	FR1	2	R1168T
2076.478	0.0	2085099	DISTRACT_START	n/a	n/a	n/a	-999	19	[0, 0, 0]	n/a	FR1	2	R1168T
2076.478	0.016	2085099	START	n/a	n/a	n/a	-999	19	[-999, -999, -999]	n/a	FR1	2	R1168T
2076.494	5.118	2085115	PROB	5.118	n/a	n/a	-999	19	[3, 8, 8]	19	FR1	2	R1168T
2081.612	4.05	2090232	PROB	4.05	n/a	n/a	-999	19	[5, 4, 5]	14	FR1	2	R1168T
2085.662	4.502	2094282	PROB	4.502	n/a	n/a	-999	19	[4, 3, 4]	11	FR1	2	R1168T
2090.164	5.067	2098784	PROB	5.067	n/a	n/a	-999	19	[3, 1, 5]	9	FR1	2	R1168T
2095.231	4.05	2103851	PROB	4.05	n/a	n/a	-999	19	[2, 5, 7]	14	FR1	2	R1168T
2099.281	0.017	2107900	STOP	n/a	n/a	n/a	-999	19	[-999, -999, -999]	n/a	FR1	2	R1168T
2099.298	0.584	2107917	DISTRACT_END	n/a	n/a	n/a	-999	19	[0, 0, 0]	n/a	FR1	2	R1168T
2099.882	0.517	2108501	RETRIEVAL_ORIENT	n/a	n/a	n/a	-999	19	[0, 0, 0]	n/a	FR1	2	R1168T
2100.399	30.0	2109018	REC_START	n/a	n/a	n/a	-999	19	[0, 0, 0]	n/a	FR1	2	R1168T
2130.399	0.012	2139017	REC_WORD_VV	0.012	n/a	<>	-999	19	[0, 0, 0]	n/a	FR1	2	R1168T
2130.411	6.111	2139029	REC_END	n/a	n/a	n/a	-999	19	[0, 0, 0]	n/a	FR1	2	R1168T
2136.522	0.5	2145139	TRIAL	n/a	n/a	n/a	-999	20	[0, 0, 0]	n/a	FR1	2	R1168T
2137.022	10.428	2145639	COUNTDOWN_START	n/a	n/a	n/a	-999	20	[0, 0, 0]	n/a	FR1	2	R1168T
2147.45	0.007	2156067	COUNTDOWN_END	n/a	n/a	n/a	-999	20	[0, 0, 0]	n/a	FR1	2	R1168T
2147.457	1.617	2156074	ORIENT	n/a	n/a	n/a	-999	20	[0, 0, 0]	n/a	FR1	2	R1168T
2149.074	2.167	2157690	ORIENT_OFF	n/a	n/a	n/a	-999	20	[0, 0, 0]	n/a	FR1	2	R1168T
2151.241	1.617	2159857	WORD	n/a	wordpools/wordpool_EN.txt	SUN	1	20	[0, 0, 0]	n/a	FR1	2	R1168T
2152.858	0.949	2161474	WORD_OFF	n/a	n/a	SUN	1	20	[0, 0, 0]	n/a	FR1	2	R1168T
2153.807	1.618	2162423	WORD	n/a	wordpools/wordpool_EN.txt	CUP	2	20	[0, 0, 0]	n/a	FR1	2	R1168T
2155.425	0.884	2164041	WORD_OFF	n/a	n/a	CUP	2	20	[0, 0, 0]	n/a	FR1	2	R1168T
2156.309	1.617	2164925	WORD	n/a	wordpools/wordpool_EN.txt	FENCE	3	20	[0, 0, 0]	n/a	FR1	2	R1168T
2157.926	0.983	2166542	WORD_OFF	n/a	n/a	FENCE	3	20	[0, 0, 0]	n/a	FR1	2	R1168T
2158.909	1.617	2167525	WORD	n/a	wordpools/wordpool_EN.txt	SOUP	4	20	[0, 0, 0]	n/a	FR1	2	R1168T
2160.526	1.001	2169142	WORD_OFF	n/a	n/a	SOUP	4	20	[0, 0, 0]	n/a	FR1	2	R1168T
2161.527	1.616	2170143	WORD	n/a	wordpools/wordpool_EN.txt	FORK	5	20	[0, 0, 0]	n/a	FR1	2	R1168T
2163.143	0.784	2171759	WORD_OFF	n/a	n/a	FORK	5	20	[0, 0, 0]	n/a	FR1	2	R1168T
2163.927	1.617	2172543	WORD	n/a	wordpools/wordpool_EN.txt	CORN	6	20	[0, 0, 0]	n/a	FR1	2	R1168T
2165.544	0.967	2174160	WORD_OFF	n/a	n/a	CORN	6	20	[0, 0, 0]	n/a	FR1	2	R1168T
2166.511	1.617	2175126	WORD	n/a	wordpools/wordpool_EN.txt	STONE	7	20	[0, 0, 0]	n/a	FR1	2	R1168T
2168.128	0.8	2176743	WORD_OFF	n/a	n/a	STONE	7	20	[0, 0, 0]	n/a	FR1	2	R1168T
2168.928	1.617	2177543	WORD	n/a	wordpools/wordpool_EN.txt	STRING	8	20	[0, 0, 0]	n/a	FR1	2	R1168T
2170.545	0.967	2179160	WORD_OFF	n/a	n/a	STRING	8	20	[0, 0, 0]	n/a	FR1	2	R1168T
2171.512	1.617	2180127	WORD	n/a	wordpools/wordpool_EN.txt	STEAK	9	20	[0, 0, 0]	n/a	FR1	2	R1168T
2173.129	0.766	2181744	WORD_OFF	n/a	n/a	STEAK	9	20	[0, 0, 0]	n/a	FR1	2	R1168T
2173.895	1.617	2182510	WORD	n/a	wordpools/wordpool_EN.txt	SHARK	10	20	[0, 0, 0]	n/a	FR1	2	R1168T
2175.512	0.917	2184127	WORD_OFF	n/a	n/a	SHARK	10	20	[0, 0, 0]	n/a	FR1	2	R1168T
2176.429	1.617	2185044	WORD	n/a	wordpools/wordpool_EN.txt	FLAME	11	20	[0, 0, 0]	n/a	FR1	2	R1168T
2178.046	0.917	2186661	WORD_OFF	n/a	n/a	FLAME	11	20	[0, 0, 0]	n/a	FR1	2	R1168T
2178.963	1.617	2187578	WORD	n/a	wordpools/wordpool_EN.txt	BALL	12	20	[0, 0, 0]	n/a	FR1	2	R1168T
2180.58	0.0	2189195	WORD_OFF	n/a	n/a	BALL	12	20	[0, 0, 0]	n/a	FR1	2	R1168T
2180.58	0.001	2189195	DISTRACT_START	n/a	n/a	n/a	-999	20	[0, 0, 0]	n/a	FR1	2	R1168T
2180.581	0.016	2189196	START	n/a	n/a	n/a	-999	20	[-999, -999, -999]	n/a	FR1	2	R1168T
2180.597	3.55	2189212	PROB	3.55	n/a	n/a	-999	20	[3, 8, 2]	13	FR1	2	R1168T
2184.147	4.268	2192761	PROB	4.268	n/a	n/a	-999	20	[8, 4, 9]	21	FR1	2	R1168T
2188.415	2.934	2197029	PROB	2.934	n/a	n/a	-999	20	[3, 5, 1]	9	FR1	2	R1168T
2191.349	5.601	2199963	PROB	5.601	n/a	n/a	-999	20	[9, 5, 7]	21	FR1	2	R1168T
2196.95	3.467	2205564	PROB	3.467	n/a	n/a	-999	20	[8, 8, 6]	22	FR1	2	R1168T
2200.417	5.823	2209031	PROB	5.823	n/a	n/a	-999	20	[5, 8, 8]	23	FR1	2	R1168T
2206.24	0.011	2214853	STOP	n/a	n/a	n/a	-999	20	[-999, -999, -999]	n/a	FR1	2	R1168T
2206.251	0.584	2214864	DISTRACT_END	n/a	n/a	n/a	-999	20	[0, 0, 0]	n/a	FR1	2	R1168T
2206.835	0.517	2215448	RETRIEVAL_ORIENT	n/a	n/a	n/a	-999	20	[0, 0, 0]	n/a	FR1	2	R1168T
2207.352	2.143	2215965	REC_START	n/a	n/a	n/a	-999	20	[0, 0, 0]	n/a	FR1	2	R1168T
2209.495	1.359	2218108	REC_WORD	1.359	n/a	FLAME	11	20	[0, 0, 0]	n/a	FR1	2	R1168T
2210.854	3.147	2219467	REC_WORD	3.147	n/a	BALL	12	20	[0, 0, 0]	n/a	FR1	2	R1168T
2214.001	23.363	2222614	REC_WORD	23.363	n/a	CORK	-999	20	[0, 0, 0]	n/a	FR1	2	R1168T
2237.364	6.144	2245975	REC_END	n/a	n/a	n/a	-999	20	[0, 0, 0]	n/a	FR1	2	R1168T
2243.508	0.5	2252119	TRIAL	n/a	n/a	n/a	-999	21	[0, 0, 0]	n/a	FR1	2	R1168T
2244.008	10.428	2252619	COUNTDOWN_START	n/a	n/a	n/a	-999	21	[0, 0, 0]	n/a	FR1	2	R1168T
2254.436	0.007	2263046	COUNTDOWN_END	n/a	n/a	n/a	-999	21	[0, 0, 0]	n/a	FR1	2	R1168T
2254.443	1.617	2263053	ORIENT	n/a	n/a	n/a	-999	21	[0, 0, 0]	n/a	FR1	2	R1168T
2256.06	2.168	2264670	ORIENT_OFF	n/a	n/a	n/a	-999	21	[0, 0, 0]	n/a	FR1	2	R1168T
2258.228	1.616	2266838	WORD	n/a	wordpools/wordpool_EN.txt	DEER	1	21	[0, 0, 0]	n/a	FR1	2	R1168T
2259.844	0.966	2268454	WORD_OFF	n/a	n/a	DEER	1	21	[0, 0, 0]	n/a	FR1	2	R1168T
2260.81	1.618	2269420	WORD	n/a	wordpools/wordpool_EN.txt	BREAD	2	21	[0, 0, 0]	n/a	FR1	2	R1168T
2262.428	0.9	2271038	WORD_OFF	n/a	n/a	BREAD	2	21	[0, 0, 0]	n/a	FR1	2	R1168T
2263.328	1.617	2271938	WORD	n/a	wordpools/wordpool_EN.txt	CROW	3	21	[0, 0, 0]	n/a	FR1	2	R1168T
2264.945	0.866	2273555	WORD_OFF	n/a	n/a	CROW	3	21	[0, 0, 0]	n/a	FR1	2	R1168T
2265.811	1.618	2274421	WORD	n/a	wordpools/wordpool_EN.txt	GEESE	4	21	[0, 0, 0]	n/a	FR1	2	R1168T
2267.429	0.967	2276039	WORD_OFF	n/a	n/a	GEESE	4	21	[0, 0, 0]	n/a	FR1	2	R1168T
2268.396	1.617	2277006	WORD	n/a	wordpools/wordpool_EN.txt	WOLF	5	21	[0, 0, 0]	n/a	FR1	2	R1168T
2270.013	0.799	2278623	WORD_OFF	n/a	n/a	WOLF	5	21	[0, 0, 0]	n/a	FR1	2	R1168T
2270.812	1.601	2279421	WORD	n/a	wordpools/wordpool_EN.txt	MILK	6	21	[0, 0, 0]	n/a	FR1	2	R1168T
2272.413	0.867	2281022	WORD_OFF	n/a	n/a	MILK	6	21	[0, 0, 0]	n/a	FR1	2	R1168T
2273.28	1.617	2281889	WORD	n/a	wordpools/wordpool_EN.txt	PRINCE	7	21	[0, 0, 0]	n/a	FR1	2	R1168T
2274.897	0.916	2283506	WORD_OFF	n/a	n/a	PRINCE	7	21	[0, 0, 0]	n/a	FR1	2	R1168T
2275.813	1.601	2284422	WORD	n/a	wordpools/wordpool_EN.txt	PEACH	8	21	[0, 0, 0]	n/a	FR1	2	R1168T
2277.414	0.95	2286023	WORD_OFF	n/a	n/a	PEACH	8	21	[0, 0, 0]	n/a	FR1	2	R1168T
2278.364	1.617	2286973	WORD	n/a	wordpools/wordpool_EN.txt	PIT	9	21	[0, 0, 0]	n/a	FR1	2	R1168T
2279.981	0.884	2288590	WORD_OFF	n/a	n/a	PIT	9	21	[0, 0, 0]	n/a	FR1	2	R1168T
2280.865	1.617	2289474	WORD	n/a	wordpools/wordpool_EN.txt	FOOD	10	21	[0, 0, 0]	n/a	FR1	2	R1168T
2282.482	1.0	2291091	WORD_OFF	n/a	n/a	FOOD	10	21	[0, 0, 0]	n/a	FR1	2	R1168T
2283.482	1.617	2292091	WORD	n/a	wordpools/wordpool_EN.txt	EEL	11	21	[0, 0, 0]	n/a	FR1	2	R1168T
2285.099	0.933	2293708	WORD_OFF	n/a	n/a	EEL	11	21	[0, 0, 0]	n/a	FR1	2	R1168T
2286.032	1.616	2294641	WORD	n/a	wordpools/wordpool_EN.txt	NEST	12	21	[0, 0, 0]	n/a	FR1	2	R1168T
2287.648	0.0	2296256	WORD_OFF	n/a	n/a	NEST	12	21	[0, 0, 0]	n/a	FR1	2	R1168T
2287.648	0.001	2296256	DISTRACT_START	n/a	n/a	n/a	-999	21	[0, 0, 0]	n/a	FR1	2	R1168T
2287.649	0.016	2296257	START	n/a	n/a	n/a	-999	21	[-999, -999, -999]	n/a	FR1	2	R1168T
2287.665	7.769	2296273	PROB	7.769	n/a	n/a	-999	21	[5, 2, 9]	16	FR1	2	R1168T
2295.434	4.968	2304042	PROB	4.968	n/a	n/a	-999	21	[8, 9, 7]	24	FR1	2	R1168T
2300.402	2.684	2309010	PROB	2.684	n/a	n/a	-999	21	[9, 1, 3]	13	FR1	2	R1168T
2303.086	2.317	2311694	PROB	2.317	n/a	n/a	-999	21	[3, 1, 1]	5	FR1	2	R1168T
2305.403	4.622	2314010	PROB	4.622	n/a	n/a	-999	21	[8, 3, 1]	12	FR1	2	R1168T
2310.025	0.012	2318632	STOP	n/a	n/a	n/a	-999	21	[-999, -999, -999]	n/a	FR1	2	R1168T
2310.037	0.55	2318644	DISTRACT_END	n/a	n/a	n/a	-999	21	[0, 0, 0]	n/a	FR1	2	R1168T
2310.587	0.517	2319194	RETRIEVAL_ORIENT	n/a	n/a	n/a	-999	21	[0, 0, 0]	n/a	FR1	2	R1168T
2311.104	0.811	2319711	REC_START	n/a	n/a	n/a	-999	21	[0, 0, 0]	n/a	FR1	2	R1168T
2311.915	0.98	2320522	REC_WORD	0.98	n/a	DEER	1	21	[0, 0, 0]	n/a	FR1	2	R1168T
2312.895	1.095	2321502	REC_WORD	1.095	n/a	WOLF	5	21	[0, 0, 0]	n/a	FR1	2	R1168T
2313.99	1.13	2322597	REC_WORD	1.13	n/a	GEESE	4	21	[0, 0, 0]	n/a	FR1	2	R1168T
2315.12	1.151	2323727	REC_WORD	1.151	n/a	NEST	12	21	[0, 0, 0]	n/a	FR1	2	R1168T
2316.271	1.24	2324878	REC_WORD	1.24	n/a	EEL	11	21	[0, 0, 0]	n/a	FR1	2	R1168T
2317.511	12.854	2326118	REC_WORD	12.854	n/a	BREAD	2	21	[0, 0, 0]	n/a	FR1	2	R1168T
2330.365	10.75	2338971	REC_WORD	10.75	n/a	FOOD	10	21	[0, 0, 0]	n/a	FR1	2	R1168T
2341.115	4.795	2349720	REC_END	n/a	n/a	n/a	-999	21	[0, 0, 0]	n/a	FR1	2	R1168T
2345.91	0.5	2354515	TRIAL	n/a	n/a	n/a	-999	22	[0, 0, 0]	n/a	FR1	2	R1168T
2346.41	10.428	2355015	COUNTDOWN_START	n/a	n/a	n/a	-999	22	[0, 0, 0]	n/a	FR1	2	R1168T
2356.838	0.007	2365442	COUNTDOWN_END	n/a	n/a	n/a	-999	22	[0, 0, 0]	n/a	FR1	2	R1168T
2356.845	1.617	2365449	ORIENT	n/a	n/a	n/a	-999	22	[0, 0, 0]	n/a	FR1	2	R1168T
2358.462	2.067	2367066	ORIENT_OFF	n/a	n/a	n/a	-999	22	[0, 0, 0]	n/a	FR1	2	R1168T
2360.529	1.617	2369133	WORD	n/a	wordpools/wordpool_EN.txt	SLUSH	1	22	[0, 0, 0]	n/a	FR1	2	R1168T
2362.146	0.984	2370750	WORD_OFF	n/a	n/a	SLUSH	1	22	[0, 0, 0]	n/a	FR1	2	R1168T
2363.13	1.616	2371734	WORD	n/a	wordpools/wordpool_EN.txt	WING	2	22	[0, 0, 0]	n/a	FR1	2	R1168T
2364.746	0.933	2373350	WORD_OFF	n/a	n/a	WING	2	22	[0, 0, 0]	n/a	FR1	2	R1168T
2365.679	1.618	2374283	WORD	n/a	wordpools/wordpool_EN.txt	FLOOR	3	22	[0, 0, 0]	n/a	FR1	2	R1168T
2367.297	0.851	2375901	WORD_OFF	n/a	n/a	FLOOR	3	22	[0, 0, 0]	n/a	FR1	2	R1168T
2368.148	1.615	2376752	WORD	n/a	wordpools/wordpool_EN.txt	STEM	4	22	[0, 0, 0]	n/a	FR1	2	R1168T
2369.763	0.835	2378367	WORD_OFF	n/a	n/a	STEM	4	22	[0, 0, 0]	n/a	FR1	2	R1168T
2370.598	1.617	2379202	WORD	n/a	wordpools/wordpool_EN.txt	CLIFF	5	22	[0, 0, 0]	n/a	FR1	2	R1168T
2372.215	0.95	2380819	WORD_OFF	n/a	n/a	CLIFF	5	22	[0, 0, 0]	n/a	FR1	2	R1168T
2373.165	1.616	2381769	WORD	n/a	wordpools/wordpool_EN.txt	LEAF	6	22	[0, 0, 0]	n/a	FR1	2	R1168T
2374.781	0.917	2383384	WORD_OFF	n/a	n/a	LEAF	6	22	[0, 0, 0]	n/a	FR1	2	R1168T
2375.698	1.601	2384301	WORD	n/a	wordpools/wordpool_EN.txt	HAWK	7	22	[0, 0, 0]	n/a	FR1	2	R1168T
2377.299	0.817	2385902	WORD_OFF	n/a	n/a	HAWK	7	22	[0, 0, 0]	n/a	FR1	2	R1168T
2378.116	1.616	2386719	WORD	n/a	wordpools/wordpool_EN.txt	ANT	8	22	[0, 0, 0]	n/a	FR1	2	R1168T
2379.732	0.9	2388335	WORD_OFF	n/a	n/a	ANT	8	22	[0, 0, 0]	n/a	FR1	2	R1168T
2380.632	1.618	2389235	WORD	n/a	wordpools/wordpool_EN.txt	OAK	9	22	[0, 0, 0]	n/a	FR1	2	R1168T
2382.25	0.834	2390853	WORD_OFF	n/a	n/a	OAK	9	22	[0, 0, 0]	n/a	FR1	2	R1168T
2383.084	1.616	2391687	WORD	n/a	wordpools/wordpool_EN.txt	ROOM	10	22	[0, 0, 0]	n/a	FR1	2	R1168T
2384.7	0.933	2393303	WORD_OFF	n/a	n/a	ROOM	10	22	[0, 0, 0]	n/a	FR1	2	R1168T
2385.633	1.601	2394236	WORD	n/a	wordpools/wordpool_EN.txt	ROOT	11	22	[0, 0, 0]	n/a	FR1	2	R1168T
2387.234	0.8	2395837	WORD_OFF	n/a	n/a	ROOT	11	22	[0, 0, 0]	n/a	FR1	2	R1168T
2388.034	1.616	2396637	WORD	n/a	wordpools/wordpool_EN.txt	BED	12	22	[0, 0, 0]	n/a	FR1	2	R1168T
2389.65	0.0	2398253	WORD_OFF	n/a	n/a	BED	12	22	[0, 0, 0]	n/a	FR1	2	R1168T
2389.65	0.001	2398253	DISTRACT_START	n/a	n/a	n/a	-999	22	[0, 0, 0]	n/a	FR1	2	R1168T
2389.651	0.016	2398254	START	n/a	n/a	n/a	-999	22	[-999, -999, -999]	n/a	FR1	2	R1168T
2389.667	7.402	2398270	PROB	7.402	n/a	n/a	-999	22	[9, 4, 3]	16	FR1	2	R1168T
2397.069	5.335	2405671	PROB	5.335	n/a	n/a	-999	22	[1, 7, 2]	10	FR1	2	R1168T
2402.404	5.134	2411006	PROB	5.134	n/a	n/a	-999	22	[8, 5, 6]	19	FR1	2	R1168T
2407.538	6.846	2416140	PROB	6.846	n/a	n/a	-999	22	[1, 4, 2]	7	FR1	2	R1168T
2414.384	0.022	2422985	STOP	n/a	n/a	n/a	-999	22	[-999, -999, -999]	n/a	FR1	2	R1168T
2414.406	0.567	2423007	DISTRACT_END	n/a	n/a	n/a	-999	22	[0, 0, 0]	n/a	FR1	2	R1168T
2414.973	0.517	2423574	RETRIEVAL_ORIENT	n/a	n/a	n/a	-999	22	[0, 0, 0]	n/a	FR1	2	R1168T
2415.49	1.435	2424091	REC_START	n/a	n/a	n/a	-999	22	[0, 0, 0]	n/a	FR1	2	R1168T
2416.925	1.172	2425526	REC_WORD	1.172	n/a	OAK	9	22	[0, 0, 0]	n/a	FR1	2	R1168T
2418.097	1.11	2426698	REC_WORD	1.11	n/a	CLIFF	5	22	[0, 0, 0]	n/a	FR1	2	R1168T
2419.207	1.523	2427808	REC_WORD	1.523	n/a	HAWK	7	22	[0, 0, 0]	n/a	FR1	2	R1168T
2420.73	1.623	2429331	REC_WORD	1.623	n/a	NEST	-999	22	[0, 0, 0]	n/a	FR1	2	R1168T
2422.353	1.588	2430954	REC_WORD	1.588	n/a	ANT	8	22	[0, 0, 0]	n/a	FR1	2	R1168T
2423.941	18.82	2432542	REC_WORD	18.82	n/a	ROOT	11	22	[0, 0, 0]	n/a	FR1	2	R1168T
2442.761	2.742	2451361	REC_WORD	2.742	n/a	TREE	-999	22	[0, 0, 0]	n/a	FR1	2	R1168T
2445.503	7.66	2454102	REC_END	n/a	n/a	n/a	-999	22	[0, 0, 0]	n/a	FR1	2	R1168T
2453.163	0.5	2461762	TRIAL	n/a	n/a	n/a	-999	23	[0, 0, 0]	n/a	FR1	2	R1168T
2453.663	10.428	2462262	COUNTDOWN_START	n/a	n/a	n/a	-999	23	[0, 0, 0]	n/a	FR1	2	R1168T
2464.091	0.007	2472689	COUNTDOWN_END	n/a	n/a	n/a	-999	23	[0, 0, 0]	n/a	FR1	2	R1168T
2464.098	1.616	2472696	ORIENT	n/a	n/a	n/a	-999	23	[0, 0, 0]	n/a	FR1	2	R1168T
2465.714	2.168	2474312	ORIENT_OFF	n/a	n/a	n/a	-999	23	[0, 0, 0]	n/a	FR1	2	R1168T
2467.882	1.617	2476480	WORD	n/a	wordpools/wordpool_EN.txt	BAG	1	23	[0, 0, 0]	n/a	FR1	2	R1168T
2469.499	0.934	2478097	WORD_OFF	n/a	n/a	BAG	1	23	[0, 0, 0]	n/a	FR1	2	R1168T
2470.433	1.617	2479031	WORD	n/a	wordpools/wordpool_EN.txt	STOVE	2	23	[0, 0, 0]	n/a	FR1	2	R1168T
2472.05	0.9	2480648	WORD_OFF	n/a	n/a	STOVE	2	23	[0, 0, 0]	n/a	FR1	2	R1168T
2472.95	1.617	2481548	WORD	n/a	wordpools/wordpool_EN.txt	LEG	3	23	[0, 0, 0]	n/a	FR1	2	R1168T
2474.567	0.8	2483165	WORD_OFF	n/a	n/a	LEG	3	23	[0, 0, 0]	n/a	FR1	2	R1168T
2475.367	1.617	2483965	WORD	n/a	wordpools/wordpool_EN.txt	CUBE	4	23	[0, 0, 0]	n/a	FR1	2	R1168T
2476.984	0.867	2485582	WORD_OFF	n/a	n/a	CUBE	4	23	[0, 0, 0]	n/a	FR1	2	R1168T
2477.851	1.617	2486449	WORD	n/a	wordpools/wordpool_EN.txt	PURSE	5	23	[0, 0, 0]	n/a	FR1	2	R1168T
2479.468	0.85	2488065	WORD_OFF	n/a	n/a	PURSE	5	23	[0, 0, 0]	n/a	FR1	2	R1168T
2480.318	1.617	2488915	WORD	n/a	wordpools/wordpool_EN.txt	TRAY	6	23	[0, 0, 0]	n/a	FR1	2	R1168T
2481.935	0.882	2490532	WORD_OFF	n/a	n/a	TRAY	6	23	[0, 0, 0]	n/a	FR1	2	R1168T
2482.817	1.618	2491414	WORD	n/a	wordpools/wordpool_EN.txt	CANE	7	23	[0, 0, 0]	n/a	FR1	2	R1168T
2484.435	0.801	2493032	WORD_OFF	n/a	n/a	CANE	7	23	[0, 0, 0]	n/a	FR1	2	R1168T
2485.236	1.616	2493833	WORD	n/a	wordpools/wordpool_EN.txt	NOSE	8	23	[0, 0, 0]	n/a	FR1	2	R1168T
2486.852	0.95	2495449	WORD_OFF	n/a	n/a	NOSE	8	23	[0, 0, 0]	n/a	FR1	2	R1168T
2487.802	1.618	2496399	WORD	n/a	wordpools/wordpool_EN.txt	DOLL	9	23	[0, 0, 0]	n/a	FR1	2	R1168T
2489.42	0.816	2498017	WORD_OFF	n/a	n/a	DOLL	9	23	[0, 0, 0]	n/a	FR1	2	R1168T
2490.236	1.617	2498833	WORD	n/a	wordpools/wordpool_EN.txt	SPOON	10	23	[0, 0, 0]	n/a	FR1	2	R1168T
2491.853	0.984	2500450	WORD_OFF	n/a	n/a	SPOON	10	23	[0, 0, 0]	n/a	FR1	2	R1168T
2492.837	1.617	2501434	WORD	n/a	wordpools/wordpool_EN.txt	MAT	11	23	[0, 0, 0]	n/a	FR1	2	R1168T
2494.454	0.767	2503051	WORD_OFF	n/a	n/a	MAT	11	23	[0, 0, 0]	n/a	FR1	2	R1168T
2495.221	1.617	2503818	WORD	n/a	wordpools/wordpool_EN.txt	SEAT	12	23	[0, 0, 0]	n/a	FR1	2	R1168T
2496.838	0.0	2505434	WORD_OFF	n/a	n/a	SEAT	12	23	[0, 0, 0]	n/a	FR1	2	R1168T
2496.838	0.0	2505434	DISTRACT_START	n/a	n/a	n/a	-999	23	[0, 0, 0]	n/a	FR1	2	R1168T
2496.838	0.016	2505434	START	n/a	n/a	n/a	-999	23	[-999, -999, -999]	n/a	FR1	2	R1168T
2496.854	4.568	2505450	PROB	4.568	n/a	n/a	-999	23	[3, 9, 4]	16	FR1	2	R1168T
2501.422	3.017	2510018	PROB	3.017	n/a	n/a	-999	23	[3, 1, 2]	7	FR1	2	R1168T
2504.439	5.684	2513035	PROB	5.684	n/a	n/a	-999	23	[8, 1, 3]	12	FR1	2	R1168T
2510.123	7.221	2518719	PROB	7.221	n/a	n/a	-999	23	[9, 8, 7]	24	FR1	2	R1168T
2517.344	0.014	2525939	STOP	n/a	n/a	n/a	-999	23	[-999, -999, -999]	n/a	FR1	2	R1168T
2517.358	0.6	2525953	DISTRACT_END	n/a	n/a	n/a	-999	23	[0, 0, 0]	n/a	FR1	2	R1168T
2517.958	0.518	2526553	RETRIEVAL_ORIENT	n/a	n/a	n/a	-999	23	[0, 0, 0]	n/a	FR1	2	R1168T
2518.476	1.209	2527071	REC_START	n/a	n/a	n/a	-999	23	[0, 0, 0]	n/a	FR1	2	R1168T
2519.685	1.044	2528280	REC_WORD	1.044	n/a	BAG	1	23	[0, 0, 0]	n/a	FR1	2	R1168T
2520.729	1.328	2529324	REC_WORD	1.328	n/a	CUBE	4	23	[0, 0, 0]	n/a	FR1	2	R1168T
2522.057	1.678	2530652	REC_WORD	1.678	n/a	TRAY	6	23	[0, 0, 0]	n/a	FR1	2	R1168T
2523.735	1.377	2532330	REC_WORD	1.377	n/a	MAT	11	23	[0, 0, 0]	n/a	FR1	2	R1168T
2525.112	16.046	2533707	REC_WORD	16.046	n/a	STOVE	2	23	[0, 0, 0]	n/a	FR1	2	R1168T
2541.158	7.329	2549752	REC_WORD	7.329	n/a	SEAT	12	23	[0, 0, 0]	n/a	FR1	2	R1168T
2548.487	5.011	2557080	REC_END	n/a	n/a	n/a	-999	23	[0, 0, 0]	n/a	FR1	2	R1168T
2553.498	0.5	2562091	TRIAL	n/a	n/a	n/a	-999	24	[0, 0, 0]	n/a	FR1	2	R1168T
2553.998	10.428	2562591	COUNTDOWN_START	n/a	n/a	n/a	-999	24	[0, 0, 0]	n/a	FR1	2	R1168T
2564.426	0.007	2573019	COUNTDOWN_END	n/a	n/a	n/a	-999	24	[0, 0, 0]	n/a	FR1	2	R1168T
2564.433	1.617	2573026	ORIENT	n/a	n/a	n/a	-999	24	[0, 0, 0]	n/a	FR1	2	R1168T
2566.05	2.201	2574642	ORIENT_OFF	n/a	n/a	n/a	-999	24	[0, 0, 0]	n/a	FR1	2	R1168T
2568.251	1.617	2576843	WORD	n/a	wordpools/wordpool_EN.txt	CRANE	1	24	[0, 0, 0]	n/a	FR1	2	R1168T
2569.868	0.815	2578460	WORD_OFF	n/a	n/a	CRANE	1	24	[0, 0, 0]	n/a	FR1	2	R1168T
2570.683	1.601	2579275	WORD	n/a	wordpools/wordpool_EN.txt	WORM	2	24	[0, 0, 0]	n/a	FR1	2	R1168T
2572.284	0.984	2580876	WORD_OFF	n/a	n/a	WORM	2	24	[0, 0, 0]	n/a	FR1	2	R1168T
2573.268	1.617	2581860	WORD	n/a	wordpools/wordpool_EN.txt	RIB	3	24	[0, 0, 0]	n/a	FR1	2	R1168T
2574.885	0.984	2583477	WORD_OFF	n/a	n/a	RIB	3	24	[0, 0, 0]	n/a	FR1	2	R1168T
2575.869	1.617	2584461	WORD	n/a	wordpools/wordpool_EN.txt	FUR	4	24	[0, 0, 0]	n/a	FR1	2	R1168T
2577.486	0.966	2586078	WORD_OFF	n/a	n/a	FUR	4	24	[0, 0, 0]	n/a	FR1	2	R1168T
2578.452	1.617	2587044	WORD	n/a	wordpools/wordpool_EN.txt	HOLE	5	24	[0, 0, 0]	n/a	FR1	2	R1168T
2580.069	0.984	2588661	WORD_OFF	n/a	n/a	HOLE	5	24	[0, 0, 0]	n/a	FR1	2	R1168T
2581.053	1.616	2589645	WORD	n/a	wordpools/wordpool_EN.txt	YARD	6	24	[0, 0, 0]	n/a	FR1	2	R1168T
2582.669	0.951	2591260	WORD_OFF	n/a	n/a	YARD	6	24	[0, 0, 0]	n/a	FR1	2	R1168T
2583.62	1.617	2592211	WORD	n/a	wordpools/wordpool_EN.txt	SQUARE	7	24	[0, 0, 0]	n/a	FR1	2	R1168T
2585.237	0.8	2593828	WORD_OFF	n/a	n/a	SQUARE	7	24	[0, 0, 0]	n/a	FR1	2	R1168T
2586.037	1.616	2594628	WORD	n/a	wordpools/wordpool_EN.txt	SEAL	8	24	[0, 0, 0]	n/a	FR1	2	R1168T
2587.653	0.785	2596244	WORD_OFF	n/a	n/a	SEAL	8	24	[0, 0, 0]	n/a	FR1	2	R1168T
2588.438	1.617	2597029	WORD	n/a	wordpools/wordpool_EN.txt	THREAD	9	24	[0, 0, 0]	n/a	FR1	2	R1168T
2590.055	0.833	2598646	WORD_OFF	n/a	n/a	THREAD	9	24	[0, 0, 0]	n/a	FR1	2	R1168T
2590.888	1.617	2599479	WORD	n/a	wordpools/wordpool_EN.txt	BAND	10	24	[0, 0, 0]	n/a	FR1	2	R1168T
2592.505	0.95	2601096	WORD_OFF	n/a	n/a	BAND	10	24	[0, 0, 0]	n/a	FR1	2	R1168T
2593.455	1.617	2602046	WORD	n/a	wordpools/wordpool_EN.txt	CHALK	11	24	[0, 0, 0]	n/a	FR1	2	R1168T
2595.072	0.833	2603663	WORD_OFF	n/a	n/a	CHALK	11	24	[0, 0, 0]	n/a	FR1	2	R1168T
2595.905	1.618	2604496	WORD	n/a	wordpools/wordpool_EN.txt	TOOL	12	24	[0, 0, 0]	n/a	FR1	2	R1168T
2597.523	0.0	2606114	DISTRACT_START	n/a	n/a	n/a	-999	24	[0, 0, 0]	n/a	FR1	2	R1168T
2597.523	0.0	2606114	WORD_OFF	n/a	n/a	TOOL	12	24	[0, 0, 0]	n/a	FR1	2	R1168T
2597.523	0.016	2606114	START	n/a	n/a	n/a	-999	24	[-999, -999, -999]	n/a	FR1	2	R1168T
2597.539	4.1	2606130	PROB	4.1	n/a	n/a	-999	24	[5, 1, 8]	14	FR1	2	R1168T
2601.639	3.385	2610229	PROB	3.385	n/a	n/a	-999	24	[9, 9, 4]	22	FR1	2	R1168T
2605.024	5.818	2613614	PROB	5.818	n/a	n/a	-999	24	[1, 9, 4]	14	FR1	2	R1168T
2610.842	4.451	2619432	PROB	4.451	n/a	n/a	-999	24	[9, 2, 7]	18	FR1	2	R1168T
2615.293	3.899	2623883	PROB	3.899	n/a	n/a	-999	24	[7, 7, 1]	15	FR1	2	R1168T
2619.192	0.018	2627781	STOP	n/a	n/a	n/a	-999	24	[-999, -999, -999]	n/a	FR1	2	R1168T
2619.21	0.515	2627799	DISTRACT_END	n/a	n/a	n/a	-999	24	[0, 0, 0]	n/a	FR1	2	R1168T
2619.725	0.519	2628314	RETRIEVAL_ORIENT	n/a	n/a	n/a	-999	24	[0, 0, 0]	n/a	FR1	2	R1168T
2620.244	1.627	2628833	REC_START	n/a	n/a	n/a	-999	24	[0, 0, 0]	n/a	FR1	2	R1168T
2621.871	0.983	2630460	REC_WORD	0.983	n/a	CRANE	1	24	[0, 0, 0]	n/a	FR1	2	R1168T
2622.854	1.197	2631443	REC_WORD	1.197	n/a	FUR	4	24	[0, 0, 0]	n/a	FR1	2	R1168T
2624.051	1.608	2632640	REC_WORD	1.608	n/a	RIB	3	24	[0, 0, 0]	n/a	FR1	2	R1168T
2625.659	24.597	2634248	REC_WORD	24.597	n/a	TOOL	12	24	[0, 0, 0]	n/a	FR1	2	R1168T
2650.256	5.294	2658844	REC_END	n/a	n/a	n/a	-999	24	[0, 0, 0]	n/a	FR1	2	R1168T
2655.55	0.5	2664137	TRIAL	n/a	n/a	n/a	-999	25	[0, 0, 0]	n/a	FR1	2	R1168T
2656.05	10.428	2664637	COUNTDOWN_START	n/a	n/a	n/a	-999	25	[0, 0, 0]	n/a	FR1	2	R1168T
2666.478	0.007	2675065	COUNTDOWN_END	n/a	n/a	n/a	-999	25	[0, 0, 0]	n/a	FR1	2	R1168T
2666.485	1.617	2675072	ORIENT	n/a	n/a	n/a	-999	25	[0, 0, 0]	n/a	FR1	2	R1168T
2668.102	2.001	2676689	ORIENT_OFF	n/a	n/a	n/a	-999	25	[0, 0, 0]	n/a	FR1	2	R1168T
2670.103	1.616	2678689	WORD	n/a	wordpools/wordpool_EN.txt	ARK	1	25	[0, 0, 0]	n/a	FR1	2	R1168T
2671.719	0.884	2680305	WORD_OFF	n/a	n/a	ARK	1	25	[0, 0, 0]	n/a	FR1	2	R1168T
2672.603	1.617	2681189	WORD	n/a	wordpools/wordpool_EN.txt	PIPE	2	25	[0, 0, 0]	n/a	FR1	2	R1168T
2674.22	0.933	2682806	WORD_OFF	n/a	n/a	PIPE	2	25	[0, 0, 0]	n/a	FR1	2	R1168T
2675.153	1.617	2683739	WORD	n/a	wordpools/wordpool_EN.txt	JAR	3	25	[0, 0, 0]	n/a	FR1	2	R1168T
2676.77	0.784	2685356	WORD_OFF	n/a	n/a	JAR	3	25	[0, 0, 0]	n/a	FR1	2	R1168T
2677.554	1.617	2686140	WORD	n/a	wordpools/wordpool_EN.txt	TIE	4	25	[0, 0, 0]	n/a	FR1	2	R1168T
2679.171	0.817	2687757	WORD_OFF	n/a	n/a	TIE	4	25	[0, 0, 0]	n/a	FR1	2	R1168T
2679.988	1.617	2688574	WORD	n/a	wordpools/wordpool_EN.txt	BEE	5	25	[0, 0, 0]	n/a	FR1	2	R1168T
2681.605	0.967	2690191	WORD_OFF	n/a	n/a	BEE	5	25	[0, 0, 0]	n/a	FR1	2	R1168T
2682.572	1.616	2691158	WORD	n/a	wordpools/wordpool_EN.txt	MOTH	6	25	[0, 0, 0]	n/a	FR1	2	R1168T
2684.188	0.967	2692774	WORD_OFF	n/a	n/a	MOTH	6	25	[0, 0, 0]	n/a	FR1	2	R1168T
2685.155	1.616	2693741	WORD	n/a	wordpools/wordpool_EN.txt	CHIN	7	25	[0, 0, 0]	n/a	FR1	2	R1168T
2686.771	0.917	2695356	WORD_OFF	n/a	n/a	CHIN	7	25	[0, 0, 0]	n/a	FR1	2	R1168T
2687.688	1.601	2696273	WORD	n/a	wordpools/wordpool_EN.txt	NAIL	8	25	[0, 0, 0]	n/a	FR1	2	R1168T
2689.289	0.817	2697874	WORD_OFF	n/a	n/a	NAIL	8	25	[0, 0, 0]	n/a	FR1	2	R1168T
2690.106	1.616	2698691	WORD	n/a	wordpools/wordpool_EN.txt	MUG	9	25	[0, 0, 0]	n/a	FR1	2	R1168T
2691.722	0.901	2700307	WORD_OFF	n/a	n/a	MUG	9	25	[0, 0, 0]	n/a	FR1	2	R1168T
2692.623	1.617	2701208	WORD	n/a	wordpools/wordpool_EN.txt	CAVE	10	25	[0, 0, 0]	n/a	FR1	2	R1168T
2694.24	0.8	2702825	WORD_OFF	n/a	n/a	CAVE	10	25	[0, 0, 0]	n/a	FR1	2	R1168T
2695.04	1.616	2703625	WORD	n/a	wordpools/wordpool_EN.txt	PIE	11	25	[0, 0, 0]	n/a	FR1	2	R1168T
2696.656	0.951	2705241	WORD_OFF	n/a	n/a	PIE	11	25	[0, 0, 0]	n/a	FR1	2	R1168T
2697.607	1.618	2706192	WORD	n/a	wordpools/wordpool_EN.txt	GRAPE	12	25	[0, 0, 0]	n/a	FR1	2	R1168T
2699.225	0.0	2707810	WORD_OFF	n/a	n/a	GRAPE	12	25	[0, 0, 0]	n/a	FR1	2	R1168T
2699.225	0.0	2707810	DISTRACT_START	n/a	n/a	n/a	-999	25	[0, 0, 0]	n/a	FR1	2	R1168T
2699.225	0.016	2707810	START	n/a	n/a	n/a	-999	25	[-999, -999, -999]	n/a	FR1	2	R1168T
2699.241	7.118	2707826	PROB	7.118	n/a	n/a	-999	25	[7, 6, 7]	20	FR1	2	R1168T
2706.359	2.433	2714943	PROB	2.433	n/a	n/a	-999	25	[3, 3, 1]	7	FR1	2	R1168T
2708.792	4.052	2717376	PROB	4.052	n/a	n/a	-999	25	[3, 6, 6]	15	FR1	2	R1168T
2712.844	3.15	2721428	PROB	3.15	n/a	n/a	-999	25	[9, 3, 9]	21	FR1	2	R1168T
2715.994	14.893	2724578	PROB	14.893	n/a	n/a	-999	25	[9, 9, 8]	26	FR1	2	R1168T
2730.887	0.01	2739470	STOP	n/a	n/a	n/a	-999	25	[-999, -999, -999]	n/a	FR1	2	R1168T
2730.897	0.633	2739480	DISTRACT_END	n/a	n/a	n/a	-999	25	[0, 0, 0]	n/a	FR1	2	R1168T
2731.53	0.518	2740113	RETRIEVAL_ORIENT	n/a	n/a	n/a	-999	25	[0, 0, 0]	n/a	FR1	2	R1168T
2732.048	1.967	2740631	REC_START	n/a	n/a	n/a	-999	25	[0, 0, 0]	n/a	FR1	2	R1168T
2734.015	1.336	2742598	REC_WORD	1.336	n/a	ARK	1	25	[0, 0, 0]	n/a	FR1	2	R1168T
2735.351	1.624	2743934	REC_WORD	1.624	n/a	NAIL	8	25	[0, 0, 0]	n/a	FR1	2	R1168T
2736.975	6.762	2745558	REC_WORD	6.762	n/a	CAVE	10	25	[0, 0, 0]	n/a	FR1	2	R1168T
2743.737	18.322	2752319	REC_WORD	18.322	n/a	MUG	9	25	[0, 0, 0]	n/a	FR1	2	R1168T
2762.059	0.0	2770640	REC_END	n/a	n/a	n/a	-999	25	[0, 0, 0]	n/a	FR1	2	R1168T
