onset	duration	sample	trial_type	response_time	stim_file	item_name	serialpos	list	test	answer	experiment	session	subject
0.0	4.716	161770	INSTRUCT_START	n/a	n/a	n/a	-999	-999	[0, 0, 0]	n/a	FR1	1	R1447M
4.716	82.458	166482	INSTRUCT_END	n/a	n/a	n/a	-999	-999	[0, 0, 0]	n/a	FR1	1	R1447M
87.174	10.401	248942	COUNTDOWN_START	n/a	n/a	n/a	-999	-999	[0, 0, 0]	n/a	FR1	1	R1447M
97.575	0.0	259353	COUNTDOWN_END	n/a	n/a	n/a	-999	-999	[0, 0, 0]	n/a	FR1	1	R1447M
97.575	2.101	259358	ENCODING_START	n/a	n/a	n/a	-999	-1	[0, 0, 0]	n/a	FR1	1	R1447M
99.676	1.599	261441	WORD	n/a	n/a	TOY	1	-1	[0, 0, 0]	n/a	FR1	1	R1447M
101.275	1.0	263048	WORD_OFF	n/a	n/a	TOY	1	-1	[0, 0, 0]	n/a	FR1	1	R1447M
102.275	1.617	264045	WORD	n/a	n/a	WASP	2	-1	[0, 0, 0]	n/a	FR1	1	R1447M
103.892	0.916	265657	WORD_OFF	n/a	n/a	WASP	2	-1	[0, 0, 0]	n/a	FR1	1	R1447M
104.808	1.6	266574	WORD	n/a	n/a	BARN	3	-1	[0, 0, 0]	n/a	FR1	1	R1447M
106.408	0.933	268186	WORD_OFF	n/a	n/a	BARN	3	-1	[0, 0, 0]	n/a	FR1	1	R1447M
107.341	1.601	269104	WORD	n/a	n/a	GRASS	4	-1	[0, 0, 0]	n/a	FR1	1	R1447M
108.942	0.949	270716	WORD_OFF	n/a	n/a	GRASS	4	-1	[0, 0, 0]	n/a	FR1	1	R1447M
109.891	1.601	271658	WORD	n/a	n/a	INK	5	-1	[0, 0, 0]	n/a	FR1	1	R1447M
111.492	0.816	273270	WORD_OFF	n/a	n/a	INK	5	-1	[0, 0, 0]	n/a	FR1	1	R1447M
112.308	1.6	274089	WORD	n/a	n/a	SPOUSE	6	-1	[0, 0, 0]	n/a	FR1	1	R1447M
113.908	0.934	275676	WORD_OFF	n/a	n/a	SPOUSE	6	-1	[0, 0, 0]	n/a	FR1	1	R1447M
114.842	1.6	276618	WORD	n/a	n/a	CONE	7	-1	[0, 0, 0]	n/a	FR1	1	R1447M
116.442	0.783	278206	WORD_OFF	n/a	n/a	CONE	7	-1	[0, 0, 0]	n/a	FR1	1	R1447M
117.225	1.617	278999	WORD	n/a	n/a	DART	8	-1	[0, 0, 0]	n/a	FR1	1	R1447M
118.842	0.866	280611	WORD_OFF	n/a	n/a	DART	8	-1	[0, 0, 0]	n/a	FR1	1	R1447M
119.708	1.616	281479	WORD	n/a	n/a	POND	9	-1	[0, 0, 0]	n/a	FR1	1	R1447M
121.324	0.917	283091	WORD_OFF	n/a	n/a	POND	9	-1	[0, 0, 0]	n/a	FR1	1	R1447M
122.241	1.601	284009	WORD	n/a	n/a	BAND	10	-1	[0, 0, 0]	n/a	FR1	1	R1447M
123.842	0.766	285621	WORD_OFF	n/a	n/a	BAND	10	-1	[0, 0, 0]	n/a	FR1	1	R1447M
124.608	1.616	286385	WORD	n/a	n/a	DEER	11	-1	[0, 0, 0]	n/a	FR1	1	R1447M
126.224	0.9	288002	WORD_OFF	n/a	n/a	DEER	11	-1	[0, 0, 0]	n/a	FR1	1	R1447M
127.124	1.619	288894	WORD	n/a	n/a	WAND	12	-1	[0, 0, 0]	n/a	FR1	1	R1447M
128.743	0.0	290502	START	n/a	n/a	n/a	-999	-1	[-999, -999, -999]	n/a	FR1	1	R1447M
128.743	0.0	290502	PROB	0.0	n/a	n/a	-999	-1	[4, 1, 3]	8	FR1	1	R1447M
128.742	0.001	290506	WORD_OFF	n/a	n/a	WAND	12	-1	[0, 0, 0]	n/a	FR1	1	R1447M
128.743	0.0	290506	ENCODING_END	n/a	n/a	n/a	-999	-1	[0, 0, 0]	n/a	FR1	1	R1447M
128.743	23.981	290506	DISTRACT_START	n/a	n/a	n/a	-999	-1	[0, 0, 0]	n/a	FR1	1	R1447M
152.724	0.0	314481	STOP	n/a	n/a	n/a	-999	-1	[-999, -999, -999]	n/a	FR1	1	R1447M
152.724	1.1	314488	DISTRACT_END	n/a	n/a	n/a	-999	-1	[0, 0, 0]	n/a	FR1	1	R1447M
153.824	3.055	315604	REC_START	n/a	n/a	n/a	-999	-1	[0, 0, 0]	n/a	FR1	1	R1447M
156.879	0.672	318636	REC_WORD	0.672	n/a	TOY	1	-1	[0, 0, 0]	n/a	FR1	1	R1447M
157.551	0.8	319308	REC_WORD	0.8	n/a	WASP	2	-1	[0, 0, 0]	n/a	FR1	1	R1447M
158.351	2.235	320108	REC_WORD	2.235	n/a	BARN	3	-1	[0, 0, 0]	n/a	FR1	1	R1447M
160.586	0.928	322343	REC_WORD_VV	0.928	n/a	<>	-999	-1	[0, 0, 0]	n/a	FR1	1	R1447M
161.514	0.369	323271	REC_WORD	0.369	n/a	GRASS	4	-1	[0, 0, 0]	n/a	FR1	1	R1447M
161.883	6.749	323640	REC_WORD	6.749	n/a	SPOUSE	6	-1	[0, 0, 0]	n/a	FR1	1	R1447M
168.632	16.416	330389	REC_WORD_VV	16.416	n/a	<>	-999	-1	[0, 0, 0]	n/a	FR1	1	R1447M
185.048	67.994	346822	REC_END	n/a	n/a	n/a	-999	-1	[0, 0, 0]	n/a	FR1	1	R1447M
253.042	10.351	414804	COUNTDOWN_START	n/a	n/a	n/a	-999	1	[0, 0, 0]	n/a	FR1	1	R1447M
263.393	0.0	425165	COUNTDOWN_END	n/a	n/a	n/a	-999	1	[0, 0, 0]	n/a	FR1	1	R1447M
263.393	2.032	425170	ENCODING_START	n/a	n/a	n/a	-999	1	[0, 0, 0]	n/a	FR1	1	R1447M
265.425	1.6	427179	WORD	n/a	wordpools/wordpool_long_EN.txt	FLAG	1	1	[0, 0, 0]	n/a	FR1	1	R1447M
267.025	0.85	428791	WORD_OFF	n/a	n/a	FLAG	1	1	[0, 0, 0]	n/a	FR1	1	R1447M
267.875	1.616	429634	WORD	n/a	wordpools/wordpool_long_EN.txt	SLIDE	2	1	[0, 0, 0]	n/a	FR1	1	R1447M
269.491	0.817	431246	WORD_OFF	n/a	n/a	SLIDE	2	1	[0, 0, 0]	n/a	FR1	1	R1447M
270.308	1.616	432064	WORD	n/a	wordpools/wordpool_long_EN.txt	SNAKE	3	1	[0, 0, 0]	n/a	FR1	1	R1447M
271.924	0.801	433676	WORD_OFF	n/a	n/a	SNAKE	3	1	[0, 0, 0]	n/a	FR1	1	R1447M
272.725	1.617	434490	WORD	n/a	wordpools/wordpool_long_EN.txt	MOUSE	4	1	[0, 0, 0]	n/a	FR1	1	R1447M
274.342	0.966	436107	WORD_OFF	n/a	n/a	MOUSE	4	1	[0, 0, 0]	n/a	FR1	1	R1447M
275.308	1.6	437074	WORD	n/a	wordpools/wordpool_long_EN.txt	FRIEND	5	1	[0, 0, 0]	n/a	FR1	1	R1447M
276.908	0.95	438661	WORD_OFF	n/a	n/a	FRIEND	5	1	[0, 0, 0]	n/a	FR1	1	R1447M
277.858	1.6	439628	WORD	n/a	wordpools/wordpool_long_EN.txt	DOG	6	1	[0, 0, 0]	n/a	FR1	1	R1447M
279.458	0.834	441216	WORD_OFF	n/a	n/a	DOG	6	1	[0, 0, 0]	n/a	FR1	1	R1447M
280.292	1.616	442059	WORD	n/a	wordpools/wordpool_long_EN.txt	GUARD	7	1	[0, 0, 0]	n/a	FR1	1	R1447M
281.908	0.834	443671	WORD_OFF	n/a	n/a	GUARD	7	1	[0, 0, 0]	n/a	FR1	1	R1447M
282.742	1.6	444509	WORD	n/a	wordpools/wordpool_long_EN.txt	CRIB	8	1	[0, 0, 0]	n/a	FR1	1	R1447M
284.342	0.782	446101	WORD_OFF	n/a	n/a	CRIB	8	1	[0, 0, 0]	n/a	FR1	1	R1447M
285.124	1.601	446890	WORD	n/a	wordpools/wordpool_long_EN.txt	BIRD	9	1	[0, 0, 0]	n/a	FR1	1	R1447M
286.725	0.967	448482	WORD_OFF	n/a	n/a	BIRD	9	1	[0, 0, 0]	n/a	FR1	1	R1447M
287.692	1.6	449449	WORD	n/a	wordpools/wordpool_long_EN.txt	BOARD	10	1	[0, 0, 0]	n/a	FR1	1	R1447M
289.292	0.882	451061	WORD_OFF	n/a	n/a	BOARD	10	1	[0, 0, 0]	n/a	FR1	1	R1447M
290.174	1.601	451929	WORD	n/a	wordpools/wordpool_long_EN.txt	TEETH	11	1	[0, 0, 0]	n/a	FR1	1	R1447M
291.775	0.95	453541	WORD_OFF	n/a	n/a	TEETH	11	1	[0, 0, 0]	n/a	FR1	1	R1447M
292.725	1.6	454484	WORD	n/a	wordpools/wordpool_long_EN.txt	SKATE	12	1	[0, 0, 0]	n/a	FR1	1	R1447M
294.325	0.001	456076	PROB	0.001	n/a	n/a	-999	1	[4, 7, 2]	13	FR1	1	R1447M
294.326	0.0	456077	START	n/a	n/a	n/a	-999	1	[-999, -999, -999]	n/a	FR1	1	R1447M
294.325	0.001	456091	WORD_OFF	n/a	n/a	SKATE	12	1	[0, 0, 0]	n/a	FR1	1	R1447M
294.326	0.0	456096	ENCODING_END	n/a	n/a	n/a	-999	1	[0, 0, 0]	n/a	FR1	1	R1447M
294.326	21.948	456096	DISTRACT_START	n/a	n/a	n/a	-999	1	[0, 0, 0]	n/a	FR1	1	R1447M
316.274	0.0	478024	STOP	n/a	n/a	n/a	-999	1	[-999, -999, -999]	n/a	FR1	1	R1447M
316.274	1.084	478044	DISTRACT_END	n/a	n/a	n/a	-999	1	[0, 0, 0]	n/a	FR1	1	R1447M
317.358	2.229	479110	REC_START	n/a	n/a	n/a	-999	1	[0, 0, 0]	n/a	FR1	1	R1447M
319.587	0.861	481337	REC_WORD	0.861	n/a	FLAG	1	1	[0, 0, 0]	n/a	FR1	1	R1447M
320.448	2.075	482198	REC_WORD	2.075	n/a	MOUSE	4	1	[0, 0, 0]	n/a	FR1	1	R1447M
322.523	1.598	484273	REC_WORD	1.598	n/a	SNAKE	3	1	[0, 0, 0]	n/a	FR1	1	R1447M
324.121	2.623	485871	REC_WORD	2.623	n/a	CRIB	8	1	[0, 0, 0]	n/a	FR1	1	R1447M
326.744	11.199	488493	REC_WORD_VV	11.199	n/a	<>	-999	1	[0, 0, 0]	n/a	FR1	1	R1447M
337.943	10.694	499692	REC_WORD	10.694	n/a	DOG	6	1	[0, 0, 0]	n/a	FR1	1	R1447M
348.637	3.721	510408	REC_END	n/a	n/a	n/a	-999	1	[0, 0, 0]	n/a	FR1	1	R1447M
352.358	10.351	514128	COUNTDOWN_START	n/a	n/a	n/a	-999	1	[0, 0, 0]	n/a	FR1	1	R1447M
362.709	0.0	524469	COUNTDOWN_END	n/a	n/a	n/a	-999	1	[0, 0, 0]	n/a	FR1	1	R1447M
362.709	1.883	524469	ENCODING_START	n/a	n/a	n/a	-999	2	[0, 0, 0]	n/a	FR1	1	R1447M
364.592	1.6	526354	WORD	n/a	wordpools/wordpool_long_EN.txt	SALT	1	2	[0, 0, 0]	n/a	FR1	1	R1447M
366.192	0.966	527941	WORD_OFF	n/a	n/a	SALT	1	2	[0, 0, 0]	n/a	FR1	1	R1447M
367.158	1.6	528908	WORD	n/a	wordpools/wordpool_long_EN.txt	CHALK	2	2	[0, 0, 0]	n/a	FR1	1	R1447M
368.758	0.784	530520	WORD_OFF	n/a	n/a	CHALK	2	2	[0, 0, 0]	n/a	FR1	1	R1447M
369.542	1.6	531289	WORD	n/a	wordpools/wordpool_long_EN.txt	POLE	3	2	[0, 0, 0]	n/a	FR1	1	R1447M
371.142	0.933	532901	WORD_OFF	n/a	n/a	POLE	3	2	[0, 0, 0]	n/a	FR1	1	R1447M
372.075	1.617	533839	WORD	n/a	wordpools/wordpool_long_EN.txt	STEAK	4	2	[0, 0, 0]	n/a	FR1	1	R1447M
373.692	0.932	535456	WORD_OFF	n/a	n/a	STEAK	4	2	[0, 0, 0]	n/a	FR1	1	R1447M
374.624	1.601	536373	WORD	n/a	wordpools/wordpool_long_EN.txt	TRIBE	5	2	[0, 0, 0]	n/a	FR1	1	R1447M
376.225	0.933	537985	WORD_OFF	n/a	n/a	TRIBE	5	2	[0, 0, 0]	n/a	FR1	1	R1447M
377.158	1.6	538928	WORD	n/a	wordpools/wordpool_long_EN.txt	KEY	6	2	[0, 0, 0]	n/a	FR1	1	R1447M
378.758	0.967	540515	WORD_OFF	n/a	n/a	KEY	6	2	[0, 0, 0]	n/a	FR1	1	R1447M
379.725	1.6	541482	WORD	n/a	wordpools/wordpool_long_EN.txt	CUP	7	2	[0, 0, 0]	n/a	FR1	1	R1447M
381.325	0.816	543089	WORD_OFF	n/a	n/a	CUP	7	2	[0, 0, 0]	n/a	FR1	1	R1447M
382.141	1.601	543887	WORD	n/a	wordpools/wordpool_long_EN.txt	BATH	8	2	[0, 0, 0]	n/a	FR1	1	R1447M
383.742	1.0	545499	WORD_OFF	n/a	n/a	BATH	8	2	[0, 0, 0]	n/a	FR1	1	R1447M
384.742	1.616	546491	WORD	n/a	wordpools/wordpool_long_EN.txt	STEM	9	2	[0, 0, 0]	n/a	FR1	1	R1447M
386.358	0.967	548123	WORD_OFF	n/a	n/a	STEM	9	2	[0, 0, 0]	n/a	FR1	1	R1447M
387.325	1.6	549091	WORD	n/a	wordpools/wordpool_long_EN.txt	PET	10	2	[0, 0, 0]	n/a	FR1	1	R1447M
388.925	0.866	550683	WORD_OFF	n/a	n/a	PET	10	2	[0, 0, 0]	n/a	FR1	1	R1447M
389.791	1.6	551551	WORD	n/a	wordpools/wordpool_long_EN.txt	THIEF	11	2	[0, 0, 0]	n/a	FR1	1	R1447M
391.391	0.784	553138	WORD_OFF	n/a	n/a	THIEF	11	2	[0, 0, 0]	n/a	FR1	1	R1447M
392.175	1.6	553931	WORD	n/a	wordpools/wordpool_long_EN.txt	SUIT	12	2	[0, 0, 0]	n/a	FR1	1	R1447M
393.775	0.001	555521	PROB	0.001	n/a	n/a	-999	2	[3, 4, 1]	8	FR1	1	R1447M
393.776	0.0	555522	START	n/a	n/a	n/a	-999	2	[-999, -999, -999]	n/a	FR1	1	R1447M
393.775	0.001	555539	WORD_OFF	n/a	n/a	SUIT	12	2	[0, 0, 0]	n/a	FR1	1	R1447M
393.776	0.0	555543	ENCODING_END	n/a	n/a	n/a	-999	2	[0, 0, 0]	n/a	FR1	1	R1447M
393.776	7.249	555543	DISTRACT_START	n/a	n/a	n/a	-999	2	[0, 0, 0]	n/a	FR1	1	R1447M
401.025	7.266	562771	PROB	7.266	n/a	n/a	-999	2	[7, 4, 8]	19	FR1	1	R1447M
408.291	6.133	570037	PROB	6.133	n/a	n/a	-999	2	[4, 4, 1]	9	FR1	1	R1447M
414.424	0.0	576169	STOP	n/a	n/a	n/a	-999	2	[-999, -999, -999]	n/a	FR1	1	R1447M
414.424	1.15	576177	DISTRACT_END	n/a	n/a	n/a	-999	2	[0, 0, 0]	n/a	FR1	1	R1447M
415.574	10.818	577338	REC_START	n/a	n/a	n/a	-999	2	[0, 0, 0]	n/a	FR1	1	R1447M
426.392	16.547	588137	REC_WORD	16.547	n/a	CUP	7	2	[0, 0, 0]	n/a	FR1	1	R1447M
442.939	1.358	604683	REC_WORD	1.358	n/a	DOG	-999	2	[0, 0, 0]	n/a	FR1	1	R1447M
444.297	2.51	606041	REC_WORD_VV	2.51	n/a	<>	-999	2	[0, 0, 0]	n/a	FR1	1	R1447M
446.807	2.351	608566	REC_END	n/a	n/a	n/a	-999	2	[0, 0, 0]	n/a	FR1	1	R1447M
449.158	10.351	610922	COUNTDOWN_START	n/a	n/a	n/a	-999	2	[0, 0, 0]	n/a	FR1	1	R1447M
459.509	0.0	621263	COUNTDOWN_END	n/a	n/a	n/a	-999	2	[0, 0, 0]	n/a	FR1	1	R1447M
459.509	1.983	621263	ENCODING_START	n/a	n/a	n/a	-999	3	[0, 0, 0]	n/a	FR1	1	R1447M
461.492	1.6	623247	WORD	n/a	wordpools/wordpool_long_EN.txt	CLOTH	1	3	[0, 0, 0]	n/a	FR1	1	R1447M
463.092	0.9	624855	WORD_OFF	n/a	n/a	CLOTH	1	3	[0, 0, 0]	n/a	FR1	1	R1447M
463.992	1.616	625752	WORD	n/a	wordpools/wordpool_long_EN.txt	STICK	2	3	[0, 0, 0]	n/a	FR1	1	R1447M
465.608	0.833	627364	WORD_OFF	n/a	n/a	STICK	2	3	[0, 0, 0]	n/a	FR1	1	R1447M
466.441	1.601	628203	WORD	n/a	wordpools/wordpool_long_EN.txt	THREAD	3	3	[0, 0, 0]	n/a	FR1	1	R1447M
468.042	0.95	629795	WORD_OFF	n/a	n/a	THREAD	3	3	[0, 0, 0]	n/a	FR1	1	R1447M
468.992	1.616	630737	WORD	n/a	wordpools/wordpool_long_EN.txt	TOOL	4	3	[0, 0, 0]	n/a	FR1	1	R1447M
470.608	0.767	632369	WORD_OFF	n/a	n/a	TOOL	4	3	[0, 0, 0]	n/a	FR1	1	R1447M
471.375	1.6	633118	WORD	n/a	wordpools/wordpool_long_EN.txt	CHILD	5	3	[0, 0, 0]	n/a	FR1	1	R1447M
472.975	0.95	634730	WORD_OFF	n/a	n/a	CHILD	5	3	[0, 0, 0]	n/a	FR1	1	R1447M
473.925	1.617	635672	WORD	n/a	wordpools/wordpool_long_EN.txt	TOOTH	6	3	[0, 0, 0]	n/a	FR1	1	R1447M
475.542	0.983	637284	WORD_OFF	n/a	n/a	TOOTH	6	3	[0, 0, 0]	n/a	FR1	1	R1447M
476.525	1.616	638276	WORD	n/a	wordpools/wordpool_long_EN.txt	SHARK	7	3	[0, 0, 0]	n/a	FR1	1	R1447M
478.141	0.883	639888	WORD_OFF	n/a	n/a	SHARK	7	3	[0, 0, 0]	n/a	FR1	1	R1447M
479.024	1.601	640781	WORD	n/a	wordpools/wordpool_long_EN.txt	JAIL	8	3	[0, 0, 0]	n/a	FR1	1	R1447M
480.625	0.999	642368	WORD_OFF	n/a	n/a	JAIL	8	3	[0, 0, 0]	n/a	FR1	1	R1447M
481.624	1.6	643385	WORD	n/a	wordpools/wordpool_long_EN.txt	SPONGE	9	3	[0, 0, 0]	n/a	FR1	1	R1447M
483.224	0.984	644972	WORD_OFF	n/a	n/a	SPONGE	9	3	[0, 0, 0]	n/a	FR1	1	R1447M
484.208	1.616	645964	WORD	n/a	wordpools/wordpool_long_EN.txt	MOP	10	3	[0, 0, 0]	n/a	FR1	1	R1447M
485.824	0.984	647576	WORD_OFF	n/a	n/a	MOP	10	3	[0, 0, 0]	n/a	FR1	1	R1447M
486.808	1.616	648563	WORD	n/a	wordpools/wordpool_long_EN.txt	PLANT	11	3	[0, 0, 0]	n/a	FR1	1	R1447M
488.424	0.817	650180	WORD_OFF	n/a	n/a	PLANT	11	3	[0, 0, 0]	n/a	FR1	1	R1447M
489.241	1.601	650999	WORD	n/a	wordpools/wordpool_long_EN.txt	LIP	12	3	[0, 0, 0]	n/a	FR1	1	R1447M
490.842	0.0	652584	START	n/a	n/a	n/a	-999	3	[-999, -999, -999]	n/a	FR1	1	R1447M
490.842	0.0	652584	PROB	0.0	n/a	n/a	-999	3	[5, 2, 3]	10	FR1	1	R1447M
490.841	0.001	652586	WORD_OFF	n/a	n/a	LIP	12	3	[0, 0, 0]	n/a	FR1	1	R1447M
490.842	0.0	652586	ENCODING_END	n/a	n/a	n/a	-999	3	[0, 0, 0]	n/a	FR1	1	R1447M
490.842	11.833	652606	DISTRACT_START	n/a	n/a	n/a	-999	3	[0, 0, 0]	n/a	FR1	1	R1447M
502.675	5.269	664416	PROB	5.269	n/a	n/a	-999	3	[1, 3, 1]	5	FR1	1	R1447M
507.944	6.014	669685	PROB	6.014	n/a	n/a	-999	3	[2, 1, 2]	5	FR1	1	R1447M
513.958	0.0	675699	DISTRACT_END	n/a	n/a	n/a	-999	3	[0, 0, 0]	n/a	FR1	1	R1447M
513.958	1.267	675699	STOP	n/a	n/a	n/a	-999	3	[-999, -999, -999]	n/a	FR1	1	R1447M
515.225	1.68	676984	REC_START	n/a	n/a	n/a	-999	3	[0, 0, 0]	n/a	FR1	1	R1447M
516.905	0.894	678646	REC_WORD	0.894	n/a	CLOTH	1	3	[0, 0, 0]	n/a	FR1	1	R1447M
517.799	4.311	679540	REC_WORD	4.311	n/a	THREAD	3	3	[0, 0, 0]	n/a	FR1	1	R1447M
522.11	1.709	683850	REC_WORD_VV	1.709	n/a	<>	-999	3	[0, 0, 0]	n/a	FR1	1	R1447M
523.819	4.745	685559	REC_WORD	4.745	n/a	GRASS	-999	3	[0, 0, 0]	n/a	FR1	1	R1447M
528.564	2.845	690304	REC_WORD	2.845	n/a	DOG	-999	3	[0, 0, 0]	n/a	FR1	1	R1447M
531.409	0.872	693149	REC_WORD	0.872	n/a	SPONGE	9	3	[0, 0, 0]	n/a	FR1	1	R1447M
532.281	14.187	694021	REC_WORD	14.187	n/a	SHARK	7	3	[0, 0, 0]	n/a	FR1	1	R1447M
546.468	3.14	708212	REC_END	n/a	n/a	n/a	-999	3	[0, 0, 0]	n/a	FR1	1	R1447M
549.608	10.35	711362	COUNTDOWN_START	n/a	n/a	n/a	-999	3	[0, 0, 0]	n/a	FR1	1	R1447M
559.958	0.001	721703	COUNTDOWN_END	n/a	n/a	n/a	-999	3	[0, 0, 0]	n/a	FR1	1	R1447M
559.959	2.049	721703	ENCODING_START	n/a	n/a	n/a	-999	4	[0, 0, 0]	n/a	FR1	1	R1447M
562.008	1.6	723762	WORD	n/a	wordpools/wordpool_long_EN.txt	BOWL	1	4	[0, 0, 0]	n/a	FR1	1	R1447M
563.608	0.866	725349	WORD_OFF	n/a	n/a	BOWL	1	4	[0, 0, 0]	n/a	FR1	1	R1447M
564.474	1.601	726217	WORD	n/a	wordpools/wordpool_long_EN.txt	PASTE	2	4	[0, 0, 0]	n/a	FR1	1	R1447M
566.075	0.833	727829	WORD_OFF	n/a	n/a	PASTE	2	4	[0, 0, 0]	n/a	FR1	1	R1447M
566.908	1.616	728647	WORD	n/a	wordpools/wordpool_long_EN.txt	STAIR	3	4	[0, 0, 0]	n/a	FR1	1	R1447M
568.524	0.917	730279	WORD_OFF	n/a	n/a	STAIR	3	4	[0, 0, 0]	n/a	FR1	1	R1447M
569.441	1.617	731202	WORD	n/a	wordpools/wordpool_long_EN.txt	RAKE	4	4	[0, 0, 0]	n/a	FR1	1	R1447M
571.058	0.916	732809	WORD_OFF	n/a	n/a	RAKE	4	4	[0, 0, 0]	n/a	FR1	1	R1447M
571.974	1.618	733731	WORD	n/a	wordpools/wordpool_long_EN.txt	RUST	5	4	[0, 0, 0]	n/a	FR1	1	R1447M
573.592	0.982	735343	WORD_OFF	n/a	n/a	RUST	5	4	[0, 0, 0]	n/a	FR1	1	R1447M
574.574	1.617	736330	WORD	n/a	wordpools/wordpool_long_EN.txt	LAMP	6	4	[0, 0, 0]	n/a	FR1	1	R1447M
576.191	0.8	737947	WORD_OFF	n/a	n/a	LAMP	6	4	[0, 0, 0]	n/a	FR1	1	R1447M
576.991	1.616	738741	WORD	n/a	wordpools/wordpool_long_EN.txt	COOK	7	4	[0, 0, 0]	n/a	FR1	1	R1447M
578.607	0.934	740353	WORD_OFF	n/a	n/a	COOK	7	4	[0, 0, 0]	n/a	FR1	1	R1447M
579.541	1.6	741295	WORD	n/a	wordpools/wordpool_long_EN.txt	WEED	8	4	[0, 0, 0]	n/a	FR1	1	R1447M
581.141	0.783	742882	WORD_OFF	n/a	n/a	WEED	8	4	[0, 0, 0]	n/a	FR1	1	R1447M
581.924	1.6	743676	WORD	n/a	wordpools/wordpool_long_EN.txt	SMILE	9	4	[0, 0, 0]	n/a	FR1	1	R1447M
583.524	0.834	745263	WORD_OFF	n/a	n/a	SMILE	9	4	[0, 0, 0]	n/a	FR1	1	R1447M
584.358	1.6	746106	WORD	n/a	wordpools/wordpool_long_EN.txt	STAR	10	4	[0, 0, 0]	n/a	FR1	1	R1447M
585.958	0.916	747714	WORD_OFF	n/a	n/a	STAR	10	4	[0, 0, 0]	n/a	FR1	1	R1447M
586.874	1.602	748631	WORD	n/a	wordpools/wordpool_long_EN.txt	PIT	11	4	[0, 0, 0]	n/a	FR1	1	R1447M
588.476	0.932	750223	WORD_OFF	n/a	n/a	PIT	11	4	[0, 0, 0]	n/a	FR1	1	R1447M
589.408	1.601	751161	WORD	n/a	wordpools/wordpool_long_EN.txt	TOWN	12	4	[0, 0, 0]	n/a	FR1	1	R1447M
591.009	0.001	752746	PROB	0.001	n/a	n/a	-999	4	[3, 1, 3]	7	FR1	1	R1447M
591.01	0.0	752747	START	n/a	n/a	n/a	-999	4	[-999, -999, -999]	n/a	FR1	1	R1447M
591.009	0.001	752753	WORD_OFF	n/a	n/a	TOWN	12	4	[0, 0, 0]	n/a	FR1	1	R1447M
591.01	0.0	752753	ENCODING_END	n/a	n/a	n/a	-999	4	[0, 0, 0]	n/a	FR1	1	R1447M
591.01	6.665	752753	DISTRACT_START	n/a	n/a	n/a	-999	4	[0, 0, 0]	n/a	FR1	1	R1447M
597.675	5.484	759412	PROB	5.484	n/a	n/a	-999	4	[5, 2, 4]	11	FR1	1	R1447M
603.159	6.7	764896	PROB	6.7	n/a	n/a	-999	4	[7, 6, 6]	19	FR1	1	R1447M
609.859	6.165	771595	PROB	6.165	n/a	n/a	-999	4	[2, 1, 4]	7	FR1	1	R1447M
616.024	0.0	777760	STOP	n/a	n/a	n/a	-999	4	[-999, -999, -999]	n/a	FR1	1	R1447M
616.024	1.384	777771	DISTRACT_END	n/a	n/a	n/a	-999	4	[0, 0, 0]	n/a	FR1	1	R1447M
617.408	3.74	779165	REC_START	n/a	n/a	n/a	-999	4	[0, 0, 0]	n/a	FR1	1	R1447M
621.148	1.345	782884	REC_WORD	1.345	n/a	BOWL	1	4	[0, 0, 0]	n/a	FR1	1	R1447M
622.493	2.932	784229	REC_WORD	2.932	n/a	RAKE	4	4	[0, 0, 0]	n/a	FR1	1	R1447M
625.425	2.65	787160	REC_WORD_VV	2.65	n/a	<>	-999	4	[0, 0, 0]	n/a	FR1	1	R1447M
628.075	3.002	789810	REC_WORD	3.002	n/a	LAMP	6	4	[0, 0, 0]	n/a	FR1	1	R1447M
631.077	6.863	792812	REC_WORD	6.863	n/a	STAIR	3	4	[0, 0, 0]	n/a	FR1	1	R1447M
637.94	10.726	799675	REC_WORD	10.726	n/a	RUG	-999	4	[0, 0, 0]	n/a	FR1	1	R1447M
648.666	3.426	810413	REC_END	n/a	n/a	n/a	-999	4	[0, 0, 0]	n/a	FR1	1	R1447M
652.092	10.35	813835	COUNTDOWN_START	n/a	n/a	n/a	-999	4	[0, 0, 0]	n/a	FR1	1	R1447M
662.442	0.0	824177	COUNTDOWN_END	n/a	n/a	n/a	-999	4	[0, 0, 0]	n/a	FR1	1	R1447M
662.442	2.132	824197	ENCODING_START	n/a	n/a	n/a	-999	5	[0, 0, 0]	n/a	FR1	1	R1447M
664.574	1.618	826309	WORD	n/a	wordpools/wordpool_long_EN.txt	VINE	1	5	[0, 0, 0]	n/a	FR1	1	R1447M
666.192	0.832	827946	WORD_OFF	n/a	n/a	VINE	1	5	[0, 0, 0]	n/a	FR1	1	R1447M
667.024	1.617	828765	WORD	n/a	wordpools/wordpool_long_EN.txt	LUNCH	2	5	[0, 0, 0]	n/a	FR1	1	R1447M
668.641	0.833	830377	WORD_OFF	n/a	n/a	LUNCH	2	5	[0, 0, 0]	n/a	FR1	1	R1447M
669.474	1.6	831220	WORD	n/a	wordpools/wordpool_long_EN.txt	GIFT	3	5	[0, 0, 0]	n/a	FR1	1	R1447M
671.074	0.834	832827	WORD_OFF	n/a	n/a	GIFT	3	5	[0, 0, 0]	n/a	FR1	1	R1447M
671.908	1.6	833650	WORD	n/a	wordpools/wordpool_long_EN.txt	NAIL	4	5	[0, 0, 0]	n/a	FR1	1	R1447M
673.508	0.883	835257	WORD_OFF	n/a	n/a	NAIL	4	5	[0, 0, 0]	n/a	FR1	1	R1447M
674.391	1.601	836130	WORD	n/a	wordpools/wordpool_long_EN.txt	ROOT	5	5	[0, 0, 0]	n/a	FR1	1	R1447M
675.992	0.8	837742	WORD_OFF	n/a	n/a	ROOT	5	5	[0, 0, 0]	n/a	FR1	1	R1447M
676.792	1.599	838536	WORD	n/a	wordpools/wordpool_long_EN.txt	MAIL	6	5	[0, 0, 0]	n/a	FR1	1	R1447M
678.391	0.817	840148	WORD_OFF	n/a	n/a	MAIL	6	5	[0, 0, 0]	n/a	FR1	1	R1447M
679.208	1.6	840941	WORD	n/a	wordpools/wordpool_long_EN.txt	HEART	7	5	[0, 0, 0]	n/a	FR1	1	R1447M
680.808	0.883	842553	WORD_OFF	n/a	n/a	HEART	7	5	[0, 0, 0]	n/a	FR1	1	R1447M
681.691	1.602	843441	WORD	n/a	wordpools/wordpool_long_EN.txt	WOLF	8	5	[0, 0, 0]	n/a	FR1	1	R1447M
683.293	0.782	845033	WORD_OFF	n/a	n/a	WOLF	8	5	[0, 0, 0]	n/a	FR1	1	R1447M
684.075	1.6	845827	WORD	n/a	wordpools/wordpool_long_EN.txt	MUD	9	5	[0, 0, 0]	n/a	FR1	1	R1447M
685.675	0.966	847414	WORD_OFF	n/a	n/a	MUD	9	5	[0, 0, 0]	n/a	FR1	1	R1447M
686.641	1.601	848381	WORD	n/a	wordpools/wordpool_long_EN.txt	SINK	10	5	[0, 0, 0]	n/a	FR1	1	R1447M
688.242	0.932	849989	WORD_OFF	n/a	n/a	SINK	10	5	[0, 0, 0]	n/a	FR1	1	R1447M
689.174	1.6	850911	WORD	n/a	wordpools/wordpool_long_EN.txt	DITCH	11	5	[0, 0, 0]	n/a	FR1	1	R1447M
690.774	0.918	852523	WORD_OFF	n/a	n/a	DITCH	11	5	[0, 0, 0]	n/a	FR1	1	R1447M
691.692	1.601	853436	WORD	n/a	wordpools/wordpool_long_EN.txt	SWORD	12	5	[0, 0, 0]	n/a	FR1	1	R1447M
693.293	0.0	855025	START	n/a	n/a	n/a	-999	5	[-999, -999, -999]	n/a	FR1	1	R1447M
693.293	0.0	855025	PROB	0.0	n/a	n/a	-999	5	[5, 4, 5]	14	FR1	1	R1447M
693.292	0.001	855028	WORD_OFF	n/a	n/a	SWORD	12	5	[0, 0, 0]	n/a	FR1	1	R1447M
693.293	0.0	855028	ENCODING_END	n/a	n/a	n/a	-999	5	[0, 0, 0]	n/a	FR1	1	R1447M
693.293	10.816	855048	DISTRACT_START	n/a	n/a	n/a	-999	5	[0, 0, 0]	n/a	FR1	1	R1447M
704.109	7.533	865841	PROB	7.533	n/a	n/a	-999	5	[5, 1, 4]	10	FR1	1	R1447M
711.642	4.983	873373	PROB	4.983	n/a	n/a	-999	5	[4, 2, 4]	10	FR1	1	R1447M
716.625	0.0	878356	STOP	n/a	n/a	n/a	-999	5	[-999, -999, -999]	n/a	FR1	1	R1447M
716.625	1.133	878365	DISTRACT_END	n/a	n/a	n/a	-999	5	[0, 0, 0]	n/a	FR1	1	R1447M
717.758	1.727	879505	REC_START	n/a	n/a	n/a	-999	5	[0, 0, 0]	n/a	FR1	1	R1447M
719.485	1.521	881216	REC_WORD	1.521	n/a	FIND	-999	5	[0, 0, 0]	n/a	FR1	1	R1447M
721.006	1.846	882737	REC_WORD	1.846	n/a	LUNCH	2	5	[0, 0, 0]	n/a	FR1	1	R1447M
722.852	1.904	884583	REC_WORD	1.904	n/a	GIFT	3	5	[0, 0, 0]	n/a	FR1	1	R1447M
724.756	1.893	886487	REC_WORD	1.893	n/a	NAIL	4	5	[0, 0, 0]	n/a	FR1	1	R1447M
726.649	22.329	888380	REC_WORD	22.329	n/a	MUD	9	5	[0, 0, 0]	n/a	FR1	1	R1447M
748.978	2.846	910724	REC_END	n/a	n/a	n/a	-999	5	[0, 0, 0]	n/a	FR1	1	R1447M
751.824	10.351	913576	COUNTDOWN_START	n/a	n/a	n/a	-999	5	[0, 0, 0]	n/a	FR1	1	R1447M
762.175	0.0	923922	COUNTDOWN_END	n/a	n/a	n/a	-999	5	[0, 0, 0]	n/a	FR1	1	R1447M
762.175	2.083	923922	ENCODING_START	n/a	n/a	n/a	-999	6	[0, 0, 0]	n/a	FR1	1	R1447M
764.258	1.6	926000	WORD	n/a	wordpools/wordpool_long_EN.txt	SHIP	1	6	[0, 0, 0]	n/a	FR1	1	R1447M
765.858	0.884	927592	WORD_OFF	n/a	n/a	SHIP	1	6	[0, 0, 0]	n/a	FR1	1	R1447M
766.742	1.6	928485	WORD	n/a	wordpools/wordpool_long_EN.txt	CROWN	2	6	[0, 0, 0]	n/a	FR1	1	R1447M
768.342	0.932	930072	WORD_OFF	n/a	n/a	CROWN	2	6	[0, 0, 0]	n/a	FR1	1	R1447M
769.274	1.601	931015	WORD	n/a	wordpools/wordpool_long_EN.txt	FLEA	3	6	[0, 0, 0]	n/a	FR1	1	R1447M
770.875	0.932	932622	WORD_OFF	n/a	n/a	FLEA	3	6	[0, 0, 0]	n/a	FR1	1	R1447M
771.807	1.601	933544	WORD	n/a	wordpools/wordpool_long_EN.txt	RAT	4	6	[0, 0, 0]	n/a	FR1	1	R1447M
773.408	0.834	935152	WORD_OFF	n/a	n/a	RAT	4	6	[0, 0, 0]	n/a	FR1	1	R1447M
774.242	1.6	935975	WORD	n/a	wordpools/wordpool_long_EN.txt	DRINK	5	6	[0, 0, 0]	n/a	FR1	1	R1447M
775.842	0.933	937582	WORD_OFF	n/a	n/a	DRINK	5	6	[0, 0, 0]	n/a	FR1	1	R1447M
776.775	1.599	938504	WORD	n/a	wordpools/wordpool_long_EN.txt	THRONE	6	6	[0, 0, 0]	n/a	FR1	1	R1447M
778.374	0.768	940116	WORD_OFF	n/a	n/a	THRONE	6	6	[0, 0, 0]	n/a	FR1	1	R1447M
779.142	1.6	940885	WORD	n/a	wordpools/wordpool_long_EN.txt	STORE	7	6	[0, 0, 0]	n/a	FR1	1	R1447M
780.742	0.982	942472	WORD_OFF	n/a	n/a	STORE	7	6	[0, 0, 0]	n/a	FR1	1	R1447M
781.724	1.618	943464	WORD	n/a	wordpools/wordpool_long_EN.txt	GATE	8	6	[0, 0, 0]	n/a	FR1	1	R1447M
783.342	1.0	945076	WORD_OFF	n/a	n/a	GATE	8	6	[0, 0, 0]	n/a	FR1	1	R1447M
784.342	1.6	946088	WORD	n/a	wordpools/wordpool_long_EN.txt	MAT	9	6	[0, 0, 0]	n/a	FR1	1	R1447M
785.942	0.85	947680	WORD_OFF	n/a	n/a	MAT	9	6	[0, 0, 0]	n/a	FR1	1	R1447M
786.792	1.616	948524	WORD	n/a	wordpools/wordpool_long_EN.txt	STRING	10	6	[0, 0, 0]	n/a	FR1	1	R1447M
788.408	0.883	950156	WORD_OFF	n/a	n/a	STRING	10	6	[0, 0, 0]	n/a	FR1	1	R1447M
789.291	1.601	951028	WORD	n/a	wordpools/wordpool_long_EN.txt	WIFE	11	6	[0, 0, 0]	n/a	FR1	1	R1447M
790.892	0.916	952636	WORD_OFF	n/a	n/a	WIFE	11	6	[0, 0, 0]	n/a	FR1	1	R1447M
791.808	1.6	953553	WORD	n/a	wordpools/wordpool_long_EN.txt	WRIST	12	6	[0, 0, 0]	n/a	FR1	1	R1447M
793.408	0.002	955136	PROB	0.002	n/a	n/a	-999	6	[6, 7, 6]	19	FR1	1	R1447M
793.41	0.0	955138	START	n/a	n/a	n/a	-999	6	[-999, -999, -999]	n/a	FR1	1	R1447M
793.408	0.002	955145	WORD_OFF	n/a	n/a	WRIST	12	6	[0, 0, 0]	n/a	FR1	1	R1447M
793.41	0.0	955145	ENCODING_END	n/a	n/a	n/a	-999	6	[0, 0, 0]	n/a	FR1	1	R1447M
793.41	9.915	955145	DISTRACT_START	n/a	n/a	n/a	-999	6	[0, 0, 0]	n/a	FR1	1	R1447M
803.325	5.15	965052	PROB	5.15	n/a	n/a	-999	6	[8, 8, 2]	18	FR1	1	R1447M
808.475	9.066	970202	PROB	9.066	n/a	n/a	-999	6	[7, 3, 7]	17	FR1	1	R1447M
817.541	0.0	979268	STOP	n/a	n/a	n/a	-999	6	[-999, -999, -999]	n/a	FR1	1	R1447M
817.541	1.2	979276	DISTRACT_END	n/a	n/a	n/a	-999	6	[0, 0, 0]	n/a	FR1	1	R1447M
818.741	3.566	980486	REC_START	n/a	n/a	n/a	-999	6	[0, 0, 0]	n/a	FR1	1	R1447M
822.307	0.98	984033	REC_WORD	0.98	n/a	SHIP	1	6	[0, 0, 0]	n/a	FR1	1	R1447M
823.287	3.986	985013	REC_WORD	3.986	n/a	CROWN	2	6	[0, 0, 0]	n/a	FR1	1	R1447M
827.273	22.681	988999	REC_WORD	22.681	n/a	FLEA	3	6	[0, 0, 0]	n/a	FR1	1	R1447M
849.954	2.954	1011689	REC_END	n/a	n/a	n/a	-999	6	[0, 0, 0]	n/a	FR1	1	R1447M
852.908	10.351	1014640	COUNTDOWN_START	n/a	n/a	n/a	-999	6	[0, 0, 0]	n/a	FR1	1	R1447M
863.259	0.0	1025002	COUNTDOWN_END	n/a	n/a	n/a	-999	6	[0, 0, 0]	n/a	FR1	1	R1447M
863.259	1.966	1025007	ENCODING_START	n/a	n/a	n/a	-999	7	[0, 0, 0]	n/a	FR1	1	R1447M
865.225	1.617	1026966	WORD	n/a	wordpools/wordpool_long_EN.txt	TREE	1	7	[0, 0, 0]	n/a	FR1	1	R1447M
866.842	0.882	1028578	WORD_OFF	n/a	n/a	TREE	1	7	[0, 0, 0]	n/a	FR1	1	R1447M
867.724	1.601	1029466	WORD	n/a	wordpools/wordpool_long_EN.txt	SLUG	2	7	[0, 0, 0]	n/a	FR1	1	R1447M
869.325	0.899	1031058	WORD_OFF	n/a	n/a	SLUG	2	7	[0, 0, 0]	n/a	FR1	1	R1447M
870.224	1.6	1031951	WORD	n/a	wordpools/wordpool_long_EN.txt	TRENCH	3	7	[0, 0, 0]	n/a	FR1	1	R1447M
871.824	1.0	1033563	WORD_OFF	n/a	n/a	TRENCH	3	7	[0, 0, 0]	n/a	FR1	1	R1447M
872.824	1.601	1034555	WORD	n/a	wordpools/wordpool_long_EN.txt	PALM	4	7	[0, 0, 0]	n/a	FR1	1	R1447M
874.425	0.783	1036167	WORD_OFF	n/a	n/a	PALM	4	7	[0, 0, 0]	n/a	FR1	1	R1447M
875.208	1.617	1036935	WORD	n/a	wordpools/wordpool_long_EN.txt	HOUND	5	7	[0, 0, 0]	n/a	FR1	1	R1447M
876.825	0.868	1038567	WORD_OFF	n/a	n/a	HOUND	5	7	[0, 0, 0]	n/a	FR1	1	R1447M
877.693	1.599	1039435	WORD	n/a	wordpools/wordpool_long_EN.txt	FLASK	6	7	[0, 0, 0]	n/a	FR1	1	R1447M
879.292	0.85	1041027	WORD_OFF	n/a	n/a	FLASK	6	7	[0, 0, 0]	n/a	FR1	1	R1447M
880.142	1.616	1041871	WORD	n/a	wordpools/wordpool_long_EN.txt	PIPE	7	7	[0, 0, 0]	n/a	FR1	1	R1447M
881.758	0.966	1043483	WORD_OFF	n/a	n/a	PIPE	7	7	[0, 0, 0]	n/a	FR1	1	R1447M
882.724	1.601	1044450	WORD	n/a	wordpools/wordpool_long_EN.txt	TANK	8	7	[0, 0, 0]	n/a	FR1	1	R1447M
884.325	0.95	1046062	WORD_OFF	n/a	n/a	TANK	8	7	[0, 0, 0]	n/a	FR1	1	R1447M
885.275	1.6	1047004	WORD	n/a	wordpools/wordpool_long_EN.txt	SHOE	9	7	[0, 0, 0]	n/a	FR1	1	R1447M
886.875	0.867	1048616	WORD_OFF	n/a	n/a	SHOE	9	7	[0, 0, 0]	n/a	FR1	1	R1447M
887.742	1.616	1049479	WORD	n/a	wordpools/wordpool_long_EN.txt	PEARL	10	7	[0, 0, 0]	n/a	FR1	1	R1447M
889.358	0.817	1051096	WORD_OFF	n/a	n/a	PEARL	10	7	[0, 0, 0]	n/a	FR1	1	R1447M
890.175	1.6	1051910	WORD	n/a	wordpools/wordpool_long_EN.txt	PURSE	11	7	[0, 0, 0]	n/a	FR1	1	R1447M
891.775	0.95	1053502	WORD_OFF	n/a	n/a	PURSE	11	7	[0, 0, 0]	n/a	FR1	1	R1447M
892.725	1.617	1054464	WORD	n/a	wordpools/wordpool_long_EN.txt	FARM	12	7	[0, 0, 0]	n/a	FR1	1	R1447M
894.342	0.008	1056065	PROB	0.008	n/a	n/a	-999	7	[5, 2, 5]	12	FR1	1	R1447M
894.35	0.0	1056073	START	n/a	n/a	n/a	-999	7	[-999, -999, -999]	n/a	FR1	1	R1447M
894.342	0.008	1056081	WORD_OFF	n/a	n/a	FARM	12	7	[0, 0, 0]	n/a	FR1	1	R1447M
894.35	0.0	1056081	ENCODING_END	n/a	n/a	n/a	-999	7	[0, 0, 0]	n/a	FR1	1	R1447M
894.35	5.508	1056081	DISTRACT_START	n/a	n/a	n/a	-999	7	[0, 0, 0]	n/a	FR1	1	R1447M
899.858	4.616	1061581	PROB	4.616	n/a	n/a	-999	7	[8, 2, 7]	17	FR1	1	R1447M
904.474	10.75	1066197	PROB	10.75	n/a	n/a	-999	7	[2, 3, 6]	11	FR1	1	R1447M
915.224	0.0	1076946	STOP	n/a	n/a	n/a	-999	7	[-999, -999, -999]	n/a	FR1	1	R1447M
915.224	1.334	1076963	DISTRACT_END	n/a	n/a	n/a	-999	7	[0, 0, 0]	n/a	FR1	1	R1447M
916.558	1.797	1078297	REC_START	n/a	n/a	n/a	-999	7	[0, 0, 0]	n/a	FR1	1	R1447M
918.355	0.736	1080077	REC_WORD	0.736	n/a	SLUG	2	7	[0, 0, 0]	n/a	FR1	1	R1447M
919.091	1.395	1080813	REC_WORD	1.395	n/a	TRENCH	3	7	[0, 0, 0]	n/a	FR1	1	R1447M
920.486	2.064	1082208	REC_WORD	2.064	n/a	PALM	4	7	[0, 0, 0]	n/a	FR1	1	R1447M
922.55	7.779	1084272	REC_WORD	7.779	n/a	HOUND	5	7	[0, 0, 0]	n/a	FR1	1	R1447M
930.329	0.569	1092050	REC_WORD_VV	0.569	n/a	<>	-999	7	[0, 0, 0]	n/a	FR1	1	R1447M
930.898	16.896	1092619	REC_WORD	16.896	n/a	FLASK	6	7	[0, 0, 0]	n/a	FR1	1	R1447M
947.794	0.0	1109525	REC_END	n/a	n/a	n/a	-999	7	[0, 0, 0]	n/a	FR1	1	R1447M
