onset	duration	sample	trial_type	response_time	stim_file	item_name	serialpos	list	test	answer	experiment	session	subject
0.0	0.0	77875	INSTRUCT_START	n/a	n/a	n/a	-999	-999	[0, 0, 0]	n/a	FR1	0	R1146E
0.0	11.056	77875	INSTRUCT_END	n/a	n/a	n/a	-999	-999	[0, 0, 0]	n/a	FR1	0	R1146E
11.056	0.0	88931	SESS_START	n/a	n/a	n/a	-999	-999	[0, 0, 0]	n/a	FR1	0	R1146E
11.056	258.016	88931	MIC_TEST	n/a	n/a	n/a	-999	-999	[0, 0, 0]	n/a	FR1	0	R1146E
269.072	7.06	346936	PRACTICE_TRIAL	n/a	n/a	n/a	-999	-1	[0, 0, 0]	n/a	FR1	0	R1146E
276.132	10.428	353996	COUNTDOWN_START	n/a	n/a	n/a	-999	-1	[0, 0, 0]	n/a	FR1	0	R1146E
286.56	0.007	364424	COUNTDOWN_END	n/a	n/a	n/a	-999	-1	[0, 0, 0]	n/a	FR1	0	R1146E
286.567	1.616	364431	PRACTICE_ORIENT	n/a	n/a	n/a	-999	-1	[0, 0, 0]	n/a	FR1	0	R1146E
288.183	1.984	366047	PRACTICE_ORIENT_OFF	n/a	n/a	n/a	-999	-1	[0, 0, 0]	n/a	FR1	0	R1146E
290.167	1.618	368031	PRACTICE_WORD	n/a	n/a	COTTON	1	-1	[0, 0, 0]	n/a	FR1	0	R1146E
291.785	0.766	369648	PRACTICE_WORD_OFF	n/a	n/a	COTTON	-999	-1	[0, 0, 0]	n/a	FR1	0	R1146E
292.551	1.616	370414	PRACTICE_WORD	n/a	n/a	FLOOD	2	-1	[0, 0, 0]	n/a	FR1	0	R1146E
294.167	0.984	372030	PRACTICE_WORD_OFF	n/a	n/a	FLOOD	-999	-1	[0, 0, 0]	n/a	FR1	0	R1146E
295.151	1.618	373014	PRACTICE_WORD	n/a	n/a	ATTIC	3	-1	[0, 0, 0]	n/a	FR1	0	R1146E
296.769	0.833	374632	PRACTICE_WORD_OFF	n/a	n/a	ATTIC	-999	-1	[0, 0, 0]	n/a	FR1	0	R1146E
297.602	1.616	375465	PRACTICE_WORD	n/a	n/a	CAMEL	4	-1	[0, 0, 0]	n/a	FR1	0	R1146E
299.218	0.867	377081	PRACTICE_WORD_OFF	n/a	n/a	CAMEL	-999	-1	[0, 0, 0]	n/a	FR1	0	R1146E
300.085	1.601	377948	PRACTICE_WORD	n/a	n/a	IRON	5	-1	[0, 0, 0]	n/a	FR1	0	R1146E
301.686	0.801	379549	PRACTICE_WORD_OFF	n/a	n/a	IRON	-999	-1	[0, 0, 0]	n/a	FR1	0	R1146E
302.487	1.615	380350	PRACTICE_WORD	n/a	n/a	CHEST	6	-1	[0, 0, 0]	n/a	FR1	0	R1146E
304.102	1.001	381965	PRACTICE_WORD_OFF	n/a	n/a	CHEST	-999	-1	[0, 0, 0]	n/a	FR1	0	R1146E
305.103	1.618	382966	PRACTICE_WORD	n/a	n/a	BEAM	7	-1	[0, 0, 0]	n/a	FR1	0	R1146E
306.721	1.016	384584	PRACTICE_WORD_OFF	n/a	n/a	BEAM	-999	-1	[0, 0, 0]	n/a	FR1	0	R1146E
307.737	1.617	385600	PRACTICE_WORD	n/a	n/a	WAGON	8	-1	[0, 0, 0]	n/a	FR1	0	R1146E
309.354	0.934	387217	PRACTICE_WORD_OFF	n/a	n/a	WAGON	-999	-1	[0, 0, 0]	n/a	FR1	0	R1146E
310.288	1.617	388151	PRACTICE_WORD	n/a	n/a	WATCH	9	-1	[0, 0, 0]	n/a	FR1	0	R1146E
311.905	0.883	389768	PRACTICE_WORD_OFF	n/a	n/a	WATCH	-999	-1	[0, 0, 0]	n/a	FR1	0	R1146E
312.788	1.617	390651	PRACTICE_WORD	n/a	n/a	RING	10	-1	[0, 0, 0]	n/a	FR1	0	R1146E
314.405	1.001	392268	PRACTICE_WORD_OFF	n/a	n/a	RING	-999	-1	[0, 0, 0]	n/a	FR1	0	R1146E
315.406	1.616	393269	PRACTICE_WORD	n/a	n/a	RHINO	11	-1	[0, 0, 0]	n/a	FR1	0	R1146E
317.022	0.834	394884	PRACTICE_WORD_OFF	n/a	n/a	RHINO	-999	-1	[0, 0, 0]	n/a	FR1	0	R1146E
317.856	1.617	395718	PRACTICE_WORD	n/a	n/a	TONGUE	12	-1	[0, 0, 0]	n/a	FR1	0	R1146E
319.473	0.0	397335	PRACTICE_WORD_OFF	n/a	n/a	TONGUE	-999	-1	[0, 0, 0]	n/a	FR1	0	R1146E
319.473	0.001	397335	DISTRACT_START	n/a	n/a	n/a	-999	-1	[0, 0, 0]	n/a	FR1	0	R1146E
319.474	0.016	397336	START	n/a	n/a	n/a	-999	-1	[-999, -999, -999]	n/a	FR1	0	R1146E
319.49	8.101	397352	PROB	8.101	n/a	n/a	-999	-1	[8, 1, 7]	16	FR1	0	R1146E
327.591	5.334	405453	PROB	5.334	n/a	n/a	-999	-1	[6, 5, 5]	16	FR1	0	R1146E
332.925	6.773	410787	PROB	6.773	n/a	n/a	-999	-1	[7, 2, 9]	18	FR1	0	R1146E
339.698	0.012	417560	STOP	n/a	n/a	n/a	-999	-1	[-999, -999, -999]	n/a	FR1	0	R1146E
339.71	0.583	417572	DISTRACT_END	n/a	n/a	n/a	-999	-1	[0, 0, 0]	n/a	FR1	0	R1146E
340.293	0.518	418155	RETRIEVAL_ORIENT	n/a	n/a	n/a	-999	-1	[0, 0, 0]	n/a	FR1	0	R1146E
340.811	30.012	418673	PRACTICE_REC_START	n/a	n/a	n/a	-999	-1	[0, 0, 0]	n/a	FR1	0	R1146E
370.823	50.951	448683	PRACTICE_REC_END	n/a	n/a	n/a	-999	-1	[0, 0, 0]	n/a	FR1	0	R1146E
421.774	0.5	499632	TRIAL	n/a	n/a	n/a	-999	1	[0, 0, 0]	n/a	FR1	0	R1146E
422.274	10.428	500132	COUNTDOWN_START	n/a	n/a	n/a	-999	1	[0, 0, 0]	n/a	FR1	0	R1146E
432.702	0.007	510560	COUNTDOWN_END	n/a	n/a	n/a	-999	1	[0, 0, 0]	n/a	FR1	0	R1146E
432.709	1.617	510567	ORIENT	n/a	n/a	n/a	-999	1	[0, 0, 0]	n/a	FR1	0	R1146E
434.326	2.117	512184	ORIENT_OFF	n/a	n/a	n/a	-999	1	[0, 0, 0]	n/a	FR1	0	R1146E
436.443	1.616	514301	WORD	n/a	wordpools/wordpool_EN.txt	JET	1	1	[0, 0, 0]	n/a	FR1	0	R1146E
438.059	1.001	515917	WORD_OFF	n/a	n/a	JET	1	1	[0, 0, 0]	n/a	FR1	0	R1146E
439.06	1.618	516918	WORD	n/a	wordpools/wordpool_EN.txt	SKI	2	1	[0, 0, 0]	n/a	FR1	0	R1146E
440.678	0.983	518535	WORD_OFF	n/a	n/a	SKI	2	1	[0, 0, 0]	n/a	FR1	0	R1146E
441.661	1.616	519518	WORD	n/a	wordpools/wordpool_EN.txt	POOL	3	1	[0, 0, 0]	n/a	FR1	0	R1146E
443.277	0.967	521134	WORD_OFF	n/a	n/a	POOL	3	1	[0, 0, 0]	n/a	FR1	0	R1146E
444.244	1.618	522101	WORD	n/a	wordpools/wordpool_EN.txt	LAKE	4	1	[0, 0, 0]	n/a	FR1	0	R1146E
445.862	0.85	523719	WORD_OFF	n/a	n/a	LAKE	4	1	[0, 0, 0]	n/a	FR1	0	R1146E
446.712	1.617	524569	WORD	n/a	wordpools/wordpool_EN.txt	SEAT	5	1	[0, 0, 0]	n/a	FR1	0	R1146E
448.329	0.816	526186	WORD_OFF	n/a	n/a	SEAT	5	1	[0, 0, 0]	n/a	FR1	0	R1146E
449.145	1.618	527002	WORD	n/a	wordpools/wordpool_EN.txt	BED	6	1	[0, 0, 0]	n/a	FR1	0	R1146E
450.763	0.833	528620	WORD_OFF	n/a	n/a	BED	6	1	[0, 0, 0]	n/a	FR1	0	R1146E
451.596	1.616	529453	WORD	n/a	wordpools/wordpool_EN.txt	WORLD	7	1	[0, 0, 0]	n/a	FR1	0	R1146E
453.212	0.818	531069	WORD_OFF	n/a	n/a	WORLD	7	1	[0, 0, 0]	n/a	FR1	0	R1146E
454.03	1.617	531887	WORD	n/a	wordpools/wordpool_EN.txt	FUR	8	1	[0, 0, 0]	n/a	FR1	0	R1146E
455.647	0.883	533504	WORD_OFF	n/a	n/a	FUR	8	1	[0, 0, 0]	n/a	FR1	0	R1146E
456.53	1.616	534387	WORD	n/a	wordpools/wordpool_EN.txt	FOG	9	1	[0, 0, 0]	n/a	FR1	0	R1146E
458.146	0.984	536003	WORD_OFF	n/a	n/a	FOG	9	1	[0, 0, 0]	n/a	FR1	0	R1146E
459.13	1.618	536987	WORD	n/a	wordpools/wordpool_EN.txt	SPOON	10	1	[0, 0, 0]	n/a	FR1	0	R1146E
460.748	1.0	538605	WORD_OFF	n/a	n/a	SPOON	10	1	[0, 0, 0]	n/a	FR1	0	R1146E
461.748	1.617	539605	WORD	n/a	wordpools/wordpool_EN.txt	SPARK	11	1	[0, 0, 0]	n/a	FR1	0	R1146E
463.365	0.95	541222	WORD_OFF	n/a	n/a	SPARK	11	1	[0, 0, 0]	n/a	FR1	0	R1146E
464.315	1.617	542172	WORD	n/a	wordpools/wordpool_EN.txt	SCHOOL	12	1	[0, 0, 0]	n/a	FR1	0	R1146E
465.932	0.0	543788	WORD_OFF	n/a	n/a	SCHOOL	12	1	[0, 0, 0]	n/a	FR1	0	R1146E
465.932	0.001	543788	DISTRACT_START	n/a	n/a	n/a	-999	1	[0, 0, 0]	n/a	FR1	0	R1146E
465.933	0.016	543789	START	n/a	n/a	n/a	-999	1	[-999, -999, -999]	n/a	FR1	0	R1146E
465.949	8.518	543805	PROB	8.518	n/a	n/a	-999	1	[3, 7, 1]	11	FR1	0	R1146E
474.467	4.451	552323	PROB	4.451	n/a	n/a	-999	1	[6, 1, 7]	14	FR1	0	R1146E
478.918	6.25	556774	PROB	6.25	n/a	n/a	-999	1	[4, 6, 4]	14	FR1	0	R1146E
485.168	4.78	563024	PROB	4.78	n/a	n/a	-999	1	[1, 9, 1]	11	FR1	0	R1146E
489.948	0.022	567803	STOP	n/a	n/a	n/a	-999	1	[-999, -999, -999]	n/a	FR1	0	R1146E
489.97	0.633	567825	DISTRACT_END	n/a	n/a	n/a	-999	1	[0, 0, 0]	n/a	FR1	0	R1146E
490.603	0.516	568458	RETRIEVAL_ORIENT	n/a	n/a	n/a	-999	1	[0, 0, 0]	n/a	FR1	0	R1146E
491.119	1.444	568974	REC_START	n/a	n/a	n/a	-999	1	[0, 0, 0]	n/a	FR1	0	R1146E
492.563	1.194	570418	REC_WORD	1.194	n/a	WORLD	-999	1	[0, 0, 0]	n/a	FR1	0	R1146E
493.757	0.502	571612	REC_WORD_VV	0.502	n/a	<>	-999	1	[0, 0, 0]	n/a	FR1	0	R1146E
494.259	1.557	572114	REC_WORD	1.557	n/a	SCHOOL	-999	1	[0, 0, 0]	n/a	FR1	0	R1146E
495.816	1.277	573671	REC_WORD	1.277	n/a	JET	-999	1	[0, 0, 0]	n/a	FR1	0	R1146E
497.093	5.25	574948	REC_WORD	5.25	n/a	SKI	-999	1	[0, 0, 0]	n/a	FR1	0	R1146E
502.343	18.57	580198	REC_WORD_VV	18.57	n/a	<>	-999	1	[0, 0, 0]	n/a	FR1	0	R1146E
520.913	0.217	598767	REC_WORD_VV	0.217	n/a	<>	-999	1	[0, 0, 0]	n/a	FR1	0	R1146E
521.13	9.847	598984	REC_END	n/a	n/a	n/a	-999	1	[0, 0, 0]	n/a	FR1	0	R1146E
530.977	0.5	608831	TRIAL	n/a	n/a	n/a	-999	2	[0, 0, 0]	n/a	FR1	0	R1146E
531.477	10.428	609331	COUNTDOWN_START	n/a	n/a	n/a	-999	2	[0, 0, 0]	n/a	FR1	0	R1146E
541.905	0.007	619758	COUNTDOWN_END	n/a	n/a	n/a	-999	2	[0, 0, 0]	n/a	FR1	0	R1146E
541.912	1.617	619765	ORIENT	n/a	n/a	n/a	-999	2	[0, 0, 0]	n/a	FR1	0	R1146E
543.529	1.784	621382	ORIENT_OFF	n/a	n/a	n/a	-999	2	[0, 0, 0]	n/a	FR1	0	R1146E
545.313	1.617	623166	WORD	n/a	wordpools/wordpool_EN.txt	TIE	1	2	[0, 0, 0]	n/a	FR1	0	R1146E
546.93	0.983	624783	WORD_OFF	n/a	n/a	TIE	1	2	[0, 0, 0]	n/a	FR1	0	R1146E
547.913	1.617	625766	WORD	n/a	wordpools/wordpool_EN.txt	HAND	2	2	[0, 0, 0]	n/a	FR1	0	R1146E
549.53	1.017	627383	WORD_OFF	n/a	n/a	HAND	2	2	[0, 0, 0]	n/a	FR1	0	R1146E
550.547	1.616	628400	WORD	n/a	wordpools/wordpool_EN.txt	LEG	3	2	[0, 0, 0]	n/a	FR1	0	R1146E
552.163	0.784	630016	WORD_OFF	n/a	n/a	LEG	3	2	[0, 0, 0]	n/a	FR1	0	R1146E
552.947	1.617	630800	WORD	n/a	wordpools/wordpool_EN.txt	SLEEVE	4	2	[0, 0, 0]	n/a	FR1	0	R1146E
554.564	1.0	632417	WORD_OFF	n/a	n/a	SLEEVE	4	2	[0, 0, 0]	n/a	FR1	0	R1146E
555.564	1.616	633417	WORD	n/a	wordpools/wordpool_EN.txt	TEA	5	2	[0, 0, 0]	n/a	FR1	0	R1146E
557.18	0.835	635033	WORD_OFF	n/a	n/a	TEA	5	2	[0, 0, 0]	n/a	FR1	0	R1146E
558.015	1.617	635868	WORD	n/a	wordpools/wordpool_EN.txt	BOX	6	2	[0, 0, 0]	n/a	FR1	0	R1146E
559.632	0.9	637485	WORD_OFF	n/a	n/a	BOX	6	2	[0, 0, 0]	n/a	FR1	0	R1146E
560.532	1.616	638385	WORD	n/a	wordpools/wordpool_EN.txt	BAG	7	2	[0, 0, 0]	n/a	FR1	0	R1146E
562.148	0.901	640001	WORD_OFF	n/a	n/a	BAG	7	2	[0, 0, 0]	n/a	FR1	0	R1146E
563.049	1.617	640902	WORD	n/a	wordpools/wordpool_EN.txt	MUG	8	2	[0, 0, 0]	n/a	FR1	0	R1146E
564.666	0.817	642518	WORD_OFF	n/a	n/a	MUG	8	2	[0, 0, 0]	n/a	FR1	0	R1146E
565.483	1.616	643335	WORD	n/a	wordpools/wordpool_EN.txt	CAGE	9	2	[0, 0, 0]	n/a	FR1	0	R1146E
567.099	0.934	644951	WORD_OFF	n/a	n/a	CAGE	9	2	[0, 0, 0]	n/a	FR1	0	R1146E
568.033	1.617	645885	WORD	n/a	wordpools/wordpool_EN.txt	CAKE	10	2	[0, 0, 0]	n/a	FR1	0	R1146E
569.65	0.85	647502	WORD_OFF	n/a	n/a	CAKE	10	2	[0, 0, 0]	n/a	FR1	0	R1146E
570.5	1.616	648352	WORD	n/a	wordpools/wordpool_EN.txt	BEAK	11	2	[0, 0, 0]	n/a	FR1	0	R1146E
572.116	1.0	649968	WORD_OFF	n/a	n/a	BEAK	11	2	[0, 0, 0]	n/a	FR1	0	R1146E
573.116	1.601	650968	WORD	n/a	wordpools/wordpool_EN.txt	SINK	12	2	[0, 0, 0]	n/a	FR1	0	R1146E
574.717	0.0	652569	WORD_OFF	n/a	n/a	SINK	12	2	[0, 0, 0]	n/a	FR1	0	R1146E
574.717	0.001	652569	DISTRACT_START	n/a	n/a	n/a	-999	2	[0, 0, 0]	n/a	FR1	0	R1146E
574.718	0.017	652570	START	n/a	n/a	n/a	-999	2	[-999, -999, -999]	n/a	FR1	0	R1146E
574.735	4.466	652587	PROB	4.466	n/a	n/a	-999	2	[3, 2, 1]	6	FR1	0	R1146E
579.201	4.685	657053	PROB	4.685	n/a	n/a	-999	2	[9, 2, 9]	20	FR1	0	R1146E
583.886	11.184	661738	PROB	11.184	n/a	n/a	-999	2	[6, 6, 7]	19	FR1	0	R1146E
595.07	0.017	672921	STOP	n/a	n/a	n/a	-999	2	[-999, -999, -999]	n/a	FR1	0	R1146E
595.087	0.518	672938	DISTRACT_END	n/a	n/a	n/a	-999	2	[0, 0, 0]	n/a	FR1	0	R1146E
595.605	0.516	673456	RETRIEVAL_ORIENT	n/a	n/a	n/a	-999	2	[0, 0, 0]	n/a	FR1	0	R1146E
596.121	1.267	673972	REC_START	n/a	n/a	n/a	-999	2	[0, 0, 0]	n/a	FR1	0	R1146E
597.388	1.291	675239	REC_WORD	1.291	n/a	HAND	-999	2	[0, 0, 0]	n/a	FR1	0	R1146E
598.679	4.012	676530	REC_WORD	4.012	n/a	SLEEVE	-999	2	[0, 0, 0]	n/a	FR1	0	R1146E
602.691	7.721	680542	REC_WORD	7.721	n/a	TIE	-999	2	[0, 0, 0]	n/a	FR1	0	R1146E
610.412	7.061	688263	REC_WORD_VV	7.061	n/a	<>	-999	2	[0, 0, 0]	n/a	FR1	0	R1146E
617.473	8.659	695323	REC_WORD	8.659	n/a	BEAK	-999	2	[0, 0, 0]	n/a	FR1	0	R1146E
626.132	15.214	703982	REC_END	n/a	n/a	n/a	-999	2	[0, 0, 0]	n/a	FR1	0	R1146E
641.346	0.5	719195	TRIAL	n/a	n/a	n/a	-999	3	[0, 0, 0]	n/a	FR1	0	R1146E
641.846	10.428	719695	COUNTDOWN_START	n/a	n/a	n/a	-999	3	[0, 0, 0]	n/a	FR1	0	R1146E
652.274	0.007	730123	COUNTDOWN_END	n/a	n/a	n/a	-999	3	[0, 0, 0]	n/a	FR1	0	R1146E
652.281	1.617	730130	ORIENT	n/a	n/a	n/a	-999	3	[0, 0, 0]	n/a	FR1	0	R1146E
653.898	1.984	731747	ORIENT_OFF	n/a	n/a	n/a	-999	3	[0, 0, 0]	n/a	FR1	0	R1146E
655.882	1.617	733731	WORD	n/a	wordpools/wordpool_EN.txt	POLE	1	3	[0, 0, 0]	n/a	FR1	0	R1146E
657.499	0.834	735348	WORD_OFF	n/a	n/a	POLE	1	3	[0, 0, 0]	n/a	FR1	0	R1146E
658.333	1.617	736182	WORD	n/a	wordpools/wordpool_EN.txt	FILM	2	3	[0, 0, 0]	n/a	FR1	0	R1146E
659.95	1.0	737799	WORD_OFF	n/a	n/a	FILM	2	3	[0, 0, 0]	n/a	FR1	0	R1146E
660.95	1.617	738799	WORD	n/a	wordpools/wordpool_EN.txt	WEED	3	3	[0, 0, 0]	n/a	FR1	0	R1146E
662.567	0.8	740415	WORD_OFF	n/a	n/a	WEED	3	3	[0, 0, 0]	n/a	FR1	0	R1146E
663.367	1.617	741215	WORD	n/a	wordpools/wordpool_EN.txt	BALL	4	3	[0, 0, 0]	n/a	FR1	0	R1146E
664.984	0.883	742832	WORD_OFF	n/a	n/a	BALL	4	3	[0, 0, 0]	n/a	FR1	0	R1146E
665.867	1.617	743715	WORD	n/a	wordpools/wordpool_EN.txt	WHEEL	5	3	[0, 0, 0]	n/a	FR1	0	R1146E
667.484	0.967	745332	WORD_OFF	n/a	n/a	WHEEL	5	3	[0, 0, 0]	n/a	FR1	0	R1146E
668.451	1.616	746299	WORD	n/a	wordpools/wordpool_EN.txt	EGG	6	3	[0, 0, 0]	n/a	FR1	0	R1146E
670.067	0.851	747915	WORD_OFF	n/a	n/a	EGG	6	3	[0, 0, 0]	n/a	FR1	0	R1146E
670.918	1.617	748766	WORD	n/a	wordpools/wordpool_EN.txt	HEART	7	3	[0, 0, 0]	n/a	FR1	0	R1146E
672.535	0.9	750383	WORD_OFF	n/a	n/a	HEART	7	3	[0, 0, 0]	n/a	FR1	0	R1146E
673.435	1.617	751283	WORD	n/a	wordpools/wordpool_EN.txt	CORD	8	3	[0, 0, 0]	n/a	FR1	0	R1146E
675.052	0.8	752900	WORD_OFF	n/a	n/a	CORD	8	3	[0, 0, 0]	n/a	FR1	0	R1146E
675.852	1.617	753700	WORD	n/a	wordpools/wordpool_EN.txt	WAVE	9	3	[0, 0, 0]	n/a	FR1	0	R1146E
677.469	0.834	755317	WORD_OFF	n/a	n/a	WAVE	9	3	[0, 0, 0]	n/a	FR1	0	R1146E
678.303	1.617	756151	WORD	n/a	wordpools/wordpool_EN.txt	BOMB	10	3	[0, 0, 0]	n/a	FR1	0	R1146E
679.92	0.767	757768	WORD_OFF	n/a	n/a	BOMB	10	3	[0, 0, 0]	n/a	FR1	0	R1146E
680.687	1.616	758535	WORD	n/a	wordpools/wordpool_EN.txt	FISH	11	3	[0, 0, 0]	n/a	FR1	0	R1146E
682.303	0.8	760151	WORD_OFF	n/a	n/a	FISH	11	3	[0, 0, 0]	n/a	FR1	0	R1146E
683.103	1.618	760951	WORD	n/a	wordpools/wordpool_EN.txt	TOOTH	12	3	[0, 0, 0]	n/a	FR1	0	R1146E
684.721	0.0	762569	WORD_OFF	n/a	n/a	TOOTH	12	3	[0, 0, 0]	n/a	FR1	0	R1146E
684.721	0.0	762569	DISTRACT_START	n/a	n/a	n/a	-999	3	[0, 0, 0]	n/a	FR1	0	R1146E
684.721	0.016	762569	START	n/a	n/a	n/a	-999	3	[-999, -999, -999]	n/a	FR1	0	R1146E
684.737	10.735	762585	PROB	10.735	n/a	n/a	-999	3	[8, 3, 7]	18	FR1	0	R1146E
695.472	3.583	773319	PROB	3.583	n/a	n/a	-999	3	[3, 2, 1]	6	FR1	0	R1146E
699.055	3.852	776902	PROB	3.852	n/a	n/a	-999	3	[1, 2, 2]	5	FR1	0	R1146E
702.907	6.397	780754	PROB	6.397	n/a	n/a	-999	3	[8, 1, 6]	15	FR1	0	R1146E
709.304	0.021	787151	STOP	n/a	n/a	n/a	-999	3	[-999, -999, -999]	n/a	FR1	0	R1146E
709.325	0.717	787172	DISTRACT_END	n/a	n/a	n/a	-999	3	[0, 0, 0]	n/a	FR1	0	R1146E
710.042	0.517	787889	RETRIEVAL_ORIENT	n/a	n/a	n/a	-999	3	[0, 0, 0]	n/a	FR1	0	R1146E
710.559	17.636	788406	REC_START	n/a	n/a	n/a	-999	3	[0, 0, 0]	n/a	FR1	0	R1146E
728.195	0.652	806041	REC_WORD_VV	0.652	n/a	<>	-999	3	[0, 0, 0]	n/a	FR1	0	R1146E
728.847	4.882	806693	REC_WORD	4.882	n/a	FISH	-999	3	[0, 0, 0]	n/a	FR1	0	R1146E
733.729	4.81	811575	REC_WORD_VV	4.81	n/a	<>	-999	3	[0, 0, 0]	n/a	FR1	0	R1146E
738.539	2.03	816384	REC_WORD	2.03	n/a	WAVE	-999	3	[0, 0, 0]	n/a	FR1	0	R1146E
740.569	10.03	818414	REC_END	n/a	n/a	n/a	-999	3	[0, 0, 0]	n/a	FR1	0	R1146E
750.599	0.5	828444	TRIAL	n/a	n/a	n/a	-999	4	[0, 0, 0]	n/a	FR1	0	R1146E
751.099	10.428	828944	COUNTDOWN_START	n/a	n/a	n/a	-999	4	[0, 0, 0]	n/a	FR1	0	R1146E
761.527	0.007	839371	COUNTDOWN_END	n/a	n/a	n/a	-999	4	[0, 0, 0]	n/a	FR1	0	R1146E
761.534	1.616	839378	ORIENT	n/a	n/a	n/a	-999	4	[0, 0, 0]	n/a	FR1	0	R1146E
763.15	2.151	840994	ORIENT_OFF	n/a	n/a	n/a	-999	4	[0, 0, 0]	n/a	FR1	0	R1146E
765.301	1.617	843145	WORD	n/a	wordpools/wordpool_EN.txt	STOOL	1	4	[0, 0, 0]	n/a	FR1	0	R1146E
766.918	0.867	844762	WORD_OFF	n/a	n/a	STOOL	1	4	[0, 0, 0]	n/a	FR1	0	R1146E
767.785	1.617	845629	WORD	n/a	wordpools/wordpool_EN.txt	GLASS	2	4	[0, 0, 0]	n/a	FR1	0	R1146E
769.402	1.017	847246	WORD_OFF	n/a	n/a	GLASS	2	4	[0, 0, 0]	n/a	FR1	0	R1146E
770.419	1.617	848263	WORD	n/a	wordpools/wordpool_EN.txt	CHIN	3	4	[0, 0, 0]	n/a	FR1	0	R1146E
772.036	0.967	849880	WORD_OFF	n/a	n/a	CHIN	3	4	[0, 0, 0]	n/a	FR1	0	R1146E
773.003	1.617	850847	WORD	n/a	wordpools/wordpool_EN.txt	ELF	4	4	[0, 0, 0]	n/a	FR1	0	R1146E
774.62	0.9	852464	WORD_OFF	n/a	n/a	ELF	4	4	[0, 0, 0]	n/a	FR1	0	R1146E
775.52	1.616	853364	WORD	n/a	wordpools/wordpool_EN.txt	TOAST	5	4	[0, 0, 0]	n/a	FR1	0	R1146E
777.136	0.834	854980	WORD_OFF	n/a	n/a	TOAST	5	4	[0, 0, 0]	n/a	FR1	0	R1146E
777.97	1.617	855814	WORD	n/a	wordpools/wordpool_EN.txt	LIP	6	4	[0, 0, 0]	n/a	FR1	0	R1146E
779.587	0.834	857431	WORD_OFF	n/a	n/a	LIP	6	4	[0, 0, 0]	n/a	FR1	0	R1146E
780.421	1.617	858265	WORD	n/a	wordpools/wordpool_EN.txt	CHAIR	7	4	[0, 0, 0]	n/a	FR1	0	R1146E
782.038	0.883	859882	WORD_OFF	n/a	n/a	CHAIR	7	4	[0, 0, 0]	n/a	FR1	0	R1146E
782.921	1.617	860765	WORD	n/a	wordpools/wordpool_EN.txt	CUP	8	4	[0, 0, 0]	n/a	FR1	0	R1146E
784.538	0.85	862382	WORD_OFF	n/a	n/a	CUP	8	4	[0, 0, 0]	n/a	FR1	0	R1146E
785.388	1.617	863232	WORD	n/a	wordpools/wordpool_EN.txt	FRUIT	9	4	[0, 0, 0]	n/a	FR1	0	R1146E
787.005	0.967	864848	WORD_OFF	n/a	n/a	FRUIT	9	4	[0, 0, 0]	n/a	FR1	0	R1146E
787.972	1.617	865815	WORD	n/a	wordpools/wordpool_EN.txt	FOOT	10	4	[0, 0, 0]	n/a	FR1	0	R1146E
789.589	0.783	867432	WORD_OFF	n/a	n/a	FOOT	10	4	[0, 0, 0]	n/a	FR1	0	R1146E
790.372	1.617	868215	WORD	n/a	wordpools/wordpool_EN.txt	PLATE	11	4	[0, 0, 0]	n/a	FR1	0	R1146E
791.989	0.967	869832	WORD_OFF	n/a	n/a	PLATE	11	4	[0, 0, 0]	n/a	FR1	0	R1146E
792.956	1.617	870799	WORD	n/a	wordpools/wordpool_EN.txt	PIN	12	4	[0, 0, 0]	n/a	FR1	0	R1146E
794.573	0.0	872416	WORD_OFF	n/a	n/a	PIN	12	4	[0, 0, 0]	n/a	FR1	0	R1146E
794.573	0.001	872416	DISTRACT_START	n/a	n/a	n/a	-999	4	[0, 0, 0]	n/a	FR1	0	R1146E
794.574	0.016	872417	START	n/a	n/a	n/a	-999	4	[-999, -999, -999]	n/a	FR1	0	R1146E
794.59	3.934	872433	PROB	3.934	n/a	n/a	-999	4	[1, 3, 3]	7	FR1	0	R1146E
798.524	7.667	876367	PROB	7.667	n/a	n/a	-999	4	[4, 9, 9]	22	FR1	0	R1146E
806.191	5.519	884034	PROB	5.519	n/a	n/a	-999	4	[5, 3, 1]	9	FR1	0	R1146E
811.71	4.811	889552	PROB	4.811	n/a	n/a	-999	4	[1, 4, 6]	11	FR1	0	R1146E
816.521	0.006	894363	STOP	n/a	n/a	n/a	-999	4	[-999, -999, -999]	n/a	FR1	0	R1146E
816.527	0.633	894369	DISTRACT_END	n/a	n/a	n/a	-999	4	[0, 0, 0]	n/a	FR1	0	R1146E
817.16	0.518	895002	RETRIEVAL_ORIENT	n/a	n/a	n/a	-999	4	[0, 0, 0]	n/a	FR1	0	R1146E
817.678	7.533	895520	REC_START	n/a	n/a	n/a	-999	4	[0, 0, 0]	n/a	FR1	0	R1146E
825.211	15.092	903053	REC_WORD_VV	15.092	n/a	<>	-999	4	[0, 0, 0]	n/a	FR1	0	R1146E
840.303	7.386	918144	REC_WORD	7.386	n/a	ELF	-999	4	[0, 0, 0]	n/a	FR1	0	R1146E
847.689	21.697	925530	REC_END	n/a	n/a	n/a	-999	4	[0, 0, 0]	n/a	FR1	0	R1146E
869.386	0.5	947226	TRIAL	n/a	n/a	n/a	-999	5	[0, 0, 0]	n/a	FR1	0	R1146E
869.886	10.428	947726	COUNTDOWN_START	n/a	n/a	n/a	-999	5	[0, 0, 0]	n/a	FR1	0	R1146E
880.314	0.008	958154	COUNTDOWN_END	n/a	n/a	n/a	-999	5	[0, 0, 0]	n/a	FR1	0	R1146E
880.322	1.617	958162	ORIENT	n/a	n/a	n/a	-999	5	[0, 0, 0]	n/a	FR1	0	R1146E
881.939	2.266	959779	ORIENT_OFF	n/a	n/a	n/a	-999	5	[0, 0, 0]	n/a	FR1	0	R1146E
884.205	1.618	962045	WORD	n/a	wordpools/wordpool_EN.txt	LAMB	1	5	[0, 0, 0]	n/a	FR1	0	R1146E
885.823	0.783	963662	WORD_OFF	n/a	n/a	LAMB	1	5	[0, 0, 0]	n/a	FR1	0	R1146E
886.606	1.616	964445	WORD	n/a	wordpools/wordpool_EN.txt	INK	2	5	[0, 0, 0]	n/a	FR1	0	R1146E
888.222	0.967	966061	WORD_OFF	n/a	n/a	INK	2	5	[0, 0, 0]	n/a	FR1	0	R1146E
889.189	1.618	967028	WORD	n/a	wordpools/wordpool_EN.txt	STOVE	3	5	[0, 0, 0]	n/a	FR1	0	R1146E
890.807	0.833	968646	WORD_OFF	n/a	n/a	STOVE	3	5	[0, 0, 0]	n/a	FR1	0	R1146E
891.64	1.616	969479	WORD	n/a	wordpools/wordpool_EN.txt	PHONE	4	5	[0, 0, 0]	n/a	FR1	0	R1146E
893.256	0.867	971095	WORD_OFF	n/a	n/a	PHONE	4	5	[0, 0, 0]	n/a	FR1	0	R1146E
894.123	1.618	971962	WORD	n/a	wordpools/wordpool_EN.txt	BRUSH	5	5	[0, 0, 0]	n/a	FR1	0	R1146E
895.741	0.9	973580	WORD_OFF	n/a	n/a	BRUSH	5	5	[0, 0, 0]	n/a	FR1	0	R1146E
896.641	1.616	974480	WORD	n/a	wordpools/wordpool_EN.txt	DESK	6	5	[0, 0, 0]	n/a	FR1	0	R1146E
898.257	0.85	976096	WORD_OFF	n/a	n/a	DESK	6	5	[0, 0, 0]	n/a	FR1	0	R1146E
899.107	1.601	976946	WORD	n/a	wordpools/wordpool_EN.txt	BOWL	7	5	[0, 0, 0]	n/a	FR1	0	R1146E
900.708	0.767	978547	WORD_OFF	n/a	n/a	BOWL	7	5	[0, 0, 0]	n/a	FR1	0	R1146E
901.475	1.616	979314	WORD	n/a	wordpools/wordpool_EN.txt	TOE	8	5	[0, 0, 0]	n/a	FR1	0	R1146E
903.091	0.952	980930	WORD_OFF	n/a	n/a	TOE	8	5	[0, 0, 0]	n/a	FR1	0	R1146E
904.043	1.617	981882	WORD	n/a	wordpools/wordpool_EN.txt	FOAM	9	5	[0, 0, 0]	n/a	FR1	0	R1146E
905.66	0.85	983499	WORD_OFF	n/a	n/a	FOAM	9	5	[0, 0, 0]	n/a	FR1	0	R1146E
906.51	1.616	984349	WORD	n/a	wordpools/wordpool_EN.txt	SMILE	10	5	[0, 0, 0]	n/a	FR1	0	R1146E
908.126	0.817	985965	WORD_OFF	n/a	n/a	SMILE	10	5	[0, 0, 0]	n/a	FR1	0	R1146E
908.943	1.617	986782	WORD	n/a	wordpools/wordpool_EN.txt	STICK	11	5	[0, 0, 0]	n/a	FR1	0	R1146E
910.56	0.851	988398	WORD_OFF	n/a	n/a	STICK	11	5	[0, 0, 0]	n/a	FR1	0	R1146E
911.411	1.617	989249	WORD	n/a	wordpools/wordpool_EN.txt	OAR	12	5	[0, 0, 0]	n/a	FR1	0	R1146E
913.028	0.0	990866	WORD_OFF	n/a	n/a	OAR	12	5	[0, 0, 0]	n/a	FR1	0	R1146E
913.028	0.0	990866	DISTRACT_START	n/a	n/a	n/a	-999	5	[0, 0, 0]	n/a	FR1	0	R1146E
913.028	0.016	990866	START	n/a	n/a	n/a	-999	5	[-999, -999, -999]	n/a	FR1	0	R1146E
913.044	4.801	990882	PROB	4.801	n/a	n/a	-999	5	[7, 7, 7]	21	FR1	0	R1146E
917.845	4.984	995683	PROB	4.984	n/a	n/a	-999	5	[1, 6, 5]	12	FR1	0	R1146E
922.829	5.585	1000667	PROB	5.585	n/a	n/a	-999	5	[5, 3, 2]	10	FR1	0	R1146E
928.414	13.341	1006252	PROB	13.341	n/a	n/a	-999	5	[8, 7, 8]	23	FR1	0	R1146E
941.755	0.011	1019592	STOP	n/a	n/a	n/a	-999	5	[-999, -999, -999]	n/a	FR1	0	R1146E
941.766	0.583	1019603	DISTRACT_END	n/a	n/a	n/a	-999	5	[0, 0, 0]	n/a	FR1	0	R1146E
942.349	0.518	1020186	RETRIEVAL_ORIENT	n/a	n/a	n/a	-999	5	[0, 0, 0]	n/a	FR1	0	R1146E
942.867	1.435	1020704	REC_START	n/a	n/a	n/a	-999	5	[0, 0, 0]	n/a	FR1	0	R1146E
944.302	10.312	1022139	REC_WORD	10.312	n/a	TOE	-999	5	[0, 0, 0]	n/a	FR1	0	R1146E
954.614	18.263	1032451	REC_WORD_VV	18.263	n/a	<>	-999	5	[0, 0, 0]	n/a	FR1	0	R1146E
972.877	10.946	1050713	REC_END	n/a	n/a	n/a	-999	5	[0, 0, 0]	n/a	FR1	0	R1146E
983.823	0.5	1061658	TRIAL	n/a	n/a	n/a	-999	6	[0, 0, 0]	n/a	FR1	0	R1146E
984.323	10.428	1062158	COUNTDOWN_START	n/a	n/a	n/a	-999	6	[0, 0, 0]	n/a	FR1	0	R1146E
994.751	0.008	1072586	COUNTDOWN_END	n/a	n/a	n/a	-999	6	[0, 0, 0]	n/a	FR1	0	R1146E
994.759	1.617	1072594	ORIENT	n/a	n/a	n/a	-999	6	[0, 0, 0]	n/a	FR1	0	R1146E
996.376	2.183	1074211	ORIENT_OFF	n/a	n/a	n/a	-999	6	[0, 0, 0]	n/a	FR1	0	R1146E
998.559	1.616	1076394	WORD	n/a	wordpools/wordpool_EN.txt	BREAD	1	6	[0, 0, 0]	n/a	FR1	0	R1146E
1000.175	0.934	1078010	WORD_OFF	n/a	n/a	BREAD	1	6	[0, 0, 0]	n/a	FR1	0	R1146E
1001.109	1.618	1078944	WORD	n/a	wordpools/wordpool_EN.txt	WORM	2	6	[0, 0, 0]	n/a	FR1	0	R1146E
1002.727	0.816	1080562	WORD_OFF	n/a	n/a	WORM	2	6	[0, 0, 0]	n/a	FR1	0	R1146E
1003.543	1.616	1081378	WORD	n/a	wordpools/wordpool_EN.txt	JUICE	3	6	[0, 0, 0]	n/a	FR1	0	R1146E
1005.159	0.868	1082994	WORD_OFF	n/a	n/a	JUICE	3	6	[0, 0, 0]	n/a	FR1	0	R1146E
1006.027	1.617	1083862	WORD	n/a	wordpools/wordpool_EN.txt	GOLD	4	6	[0, 0, 0]	n/a	FR1	0	R1146E
1007.644	0.934	1085479	WORD_OFF	n/a	n/a	GOLD	4	6	[0, 0, 0]	n/a	FR1	0	R1146E
1008.578	1.616	1086412	WORD	n/a	wordpools/wordpool_EN.txt	VASE	5	6	[0, 0, 0]	n/a	FR1	0	R1146E
1010.194	0.9	1088028	WORD_OFF	n/a	n/a	VASE	5	6	[0, 0, 0]	n/a	FR1	0	R1146E
1011.094	1.618	1088928	WORD	n/a	wordpools/wordpool_EN.txt	ROOM	6	6	[0, 0, 0]	n/a	FR1	0	R1146E
1012.712	0.883	1090546	WORD_OFF	n/a	n/a	ROOM	6	6	[0, 0, 0]	n/a	FR1	0	R1146E
1013.595	1.616	1091429	WORD	n/a	wordpools/wordpool_EN.txt	SLUSH	7	6	[0, 0, 0]	n/a	FR1	0	R1146E
1015.211	0.917	1093045	WORD_OFF	n/a	n/a	SLUSH	7	6	[0, 0, 0]	n/a	FR1	0	R1146E
1016.128	1.618	1093962	WORD	n/a	wordpools/wordpool_EN.txt	DOLL	8	6	[0, 0, 0]	n/a	FR1	0	R1146E
1017.746	0.95	1095580	WORD_OFF	n/a	n/a	DOLL	8	6	[0, 0, 0]	n/a	FR1	0	R1146E
1018.696	1.617	1096530	WORD	n/a	wordpools/wordpool_EN.txt	THREAD	9	6	[0, 0, 0]	n/a	FR1	0	R1146E
1020.313	0.766	1098147	WORD_OFF	n/a	n/a	THREAD	9	6	[0, 0, 0]	n/a	FR1	0	R1146E
1021.079	1.618	1098913	WORD	n/a	wordpools/wordpool_EN.txt	SALT	10	6	[0, 0, 0]	n/a	FR1	0	R1146E
1022.697	0.8	1100531	WORD_OFF	n/a	n/a	SALT	10	6	[0, 0, 0]	n/a	FR1	0	R1146E
1023.497	1.616	1101331	WORD	n/a	wordpools/wordpool_EN.txt	CROWN	11	6	[0, 0, 0]	n/a	FR1	0	R1146E
1025.113	0.983	1102947	WORD_OFF	n/a	n/a	CROWN	11	6	[0, 0, 0]	n/a	FR1	0	R1146E
1026.096	1.618	1103930	WORD	n/a	wordpools/wordpool_EN.txt	MOUTH	12	6	[0, 0, 0]	n/a	FR1	0	R1146E
1027.714	0.0	1105548	WORD_OFF	n/a	n/a	MOUTH	12	6	[0, 0, 0]	n/a	FR1	0	R1146E
1027.714	0.001	1105548	DISTRACT_START	n/a	n/a	n/a	-999	6	[0, 0, 0]	n/a	FR1	0	R1146E
1027.715	0.016	1105549	START	n/a	n/a	n/a	-999	6	[-999, -999, -999]	n/a	FR1	0	R1146E
1027.731	11.835	1105565	PROB	11.835	n/a	n/a	-999	6	[9, 1, 7]	17	FR1	0	R1146E
1039.566	3.434	1117399	PROB	3.434	n/a	n/a	-999	6	[5, 5, 2]	12	FR1	0	R1146E
1043.0	4.15	1120833	PROB	4.15	n/a	n/a	-999	6	[9, 1, 4]	14	FR1	0	R1146E
1047.15	5.179	1124983	PROB	5.179	n/a	n/a	-999	6	[3, 2, 3]	8	FR1	0	R1146E
1052.329	0.006	1130162	STOP	n/a	n/a	n/a	-999	6	[-999, -999, -999]	n/a	FR1	0	R1146E
1052.335	0.617	1130168	DISTRACT_END	n/a	n/a	n/a	-999	6	[0, 0, 0]	n/a	FR1	0	R1146E
1052.952	0.518	1130785	RETRIEVAL_ORIENT	n/a	n/a	n/a	-999	6	[0, 0, 0]	n/a	FR1	0	R1146E
1053.47	5.129	1131303	REC_START	n/a	n/a	n/a	-999	6	[0, 0, 0]	n/a	FR1	0	R1146E
1058.599	11.801	1136431	REC_WORD	11.801	n/a	BREAD	-999	6	[0, 0, 0]	n/a	FR1	0	R1146E
1070.4	13.081	1148232	REC_WORD	13.081	n/a	GOLD	-999	6	[0, 0, 0]	n/a	FR1	0	R1146E
1083.481	11.329	1161312	REC_END	n/a	n/a	n/a	-999	6	[0, 0, 0]	n/a	FR1	0	R1146E
1094.81	0.5	1172641	TRIAL	n/a	n/a	n/a	-999	7	[0, 0, 0]	n/a	FR1	0	R1146E
1095.31	10.428	1173141	COUNTDOWN_START	n/a	n/a	n/a	-999	7	[0, 0, 0]	n/a	FR1	0	R1146E
1105.738	0.007	1183569	COUNTDOWN_END	n/a	n/a	n/a	-999	7	[0, 0, 0]	n/a	FR1	0	R1146E
1105.745	1.617	1183576	ORIENT	n/a	n/a	n/a	-999	7	[0, 0, 0]	n/a	FR1	0	R1146E
1107.362	2.25	1185192	ORIENT_OFF	n/a	n/a	n/a	-999	7	[0, 0, 0]	n/a	FR1	0	R1146E
1109.612	1.616	1187442	WORD	n/a	wordpools/wordpool_EN.txt	MAIL	1	7	[0, 0, 0]	n/a	FR1	0	R1146E
1111.228	0.95	1189058	WORD_OFF	n/a	n/a	MAIL	1	7	[0, 0, 0]	n/a	FR1	0	R1146E
1112.178	1.618	1190008	WORD	n/a	wordpools/wordpool_EN.txt	PLANE	2	7	[0, 0, 0]	n/a	FR1	0	R1146E
1113.796	0.8	1191626	WORD_OFF	n/a	n/a	PLANE	2	7	[0, 0, 0]	n/a	FR1	0	R1146E
1114.596	1.616	1192426	WORD	n/a	wordpools/wordpool_EN.txt	CASH	3	7	[0, 0, 0]	n/a	FR1	0	R1146E
1116.212	0.768	1194042	WORD_OFF	n/a	n/a	CASH	3	7	[0, 0, 0]	n/a	FR1	0	R1146E
1116.98	1.617	1194810	WORD	n/a	wordpools/wordpool_EN.txt	WING	4	7	[0, 0, 0]	n/a	FR1	0	R1146E
1118.597	0.967	1196427	WORD_OFF	n/a	n/a	WING	4	7	[0, 0, 0]	n/a	FR1	0	R1146E
1119.564	1.616	1197394	WORD	n/a	wordpools/wordpool_EN.txt	CAR	5	7	[0, 0, 0]	n/a	FR1	0	R1146E
1121.18	0.818	1199010	WORD_OFF	n/a	n/a	CAR	5	7	[0, 0, 0]	n/a	FR1	0	R1146E
1121.998	1.617	1199828	WORD	n/a	wordpools/wordpool_EN.txt	RAIN	6	7	[0, 0, 0]	n/a	FR1	0	R1146E
1123.615	0.883	1201445	WORD_OFF	n/a	n/a	RAIN	6	7	[0, 0, 0]	n/a	FR1	0	R1146E
1124.498	1.616	1202328	WORD	n/a	wordpools/wordpool_EN.txt	BOOK	7	7	[0, 0, 0]	n/a	FR1	0	R1146E
1126.114	0.785	1203944	WORD_OFF	n/a	n/a	BOOK	7	7	[0, 0, 0]	n/a	FR1	0	R1146E
1126.899	1.616	1204729	WORD	n/a	wordpools/wordpool_EN.txt	KEY	8	7	[0, 0, 0]	n/a	FR1	0	R1146E
1128.515	0.934	1206345	WORD_OFF	n/a	n/a	KEY	8	7	[0, 0, 0]	n/a	FR1	0	R1146E
1129.449	1.616	1207279	WORD	n/a	wordpools/wordpool_EN.txt	BANK	9	7	[0, 0, 0]	n/a	FR1	0	R1146E
1131.065	0.951	1208895	WORD_OFF	n/a	n/a	BANK	9	7	[0, 0, 0]	n/a	FR1	0	R1146E
1132.016	1.617	1209846	WORD	n/a	wordpools/wordpool_EN.txt	SHEET	10	7	[0, 0, 0]	n/a	FR1	0	R1146E
1133.633	0.767	1211462	WORD_OFF	n/a	n/a	SHEET	10	7	[0, 0, 0]	n/a	FR1	0	R1146E
1134.4	1.617	1212229	WORD	n/a	wordpools/wordpool_EN.txt	EEL	11	7	[0, 0, 0]	n/a	FR1	0	R1146E
1136.017	0.9	1213846	WORD_OFF	n/a	n/a	EEL	11	7	[0, 0, 0]	n/a	FR1	0	R1146E
1136.917	1.617	1214746	WORD	n/a	wordpools/wordpool_EN.txt	COIN	12	7	[0, 0, 0]	n/a	FR1	0	R1146E
1138.534	0.0	1216363	WORD_OFF	n/a	n/a	COIN	12	7	[0, 0, 0]	n/a	FR1	0	R1146E
1138.534	0.001	1216363	DISTRACT_START	n/a	n/a	n/a	-999	7	[0, 0, 0]	n/a	FR1	0	R1146E
1138.535	0.016	1216364	START	n/a	n/a	n/a	-999	7	[-999, -999, -999]	n/a	FR1	0	R1146E
1138.551	9.617	1216380	PROB	9.617	n/a	n/a	-999	7	[9, 9, 4]	22	FR1	0	R1146E
1148.168	9.102	1225997	PROB	9.102	n/a	n/a	-999	7	[2, 6, 5]	13	FR1	0	R1146E
1157.27	8.563	1235098	PROB	8.563	n/a	n/a	-999	7	[6, 2, 7]	15	FR1	0	R1146E
1165.833	0.005	1243661	STOP	n/a	n/a	n/a	-999	7	[-999, -999, -999]	n/a	FR1	0	R1146E
1165.838	0.601	1243666	DISTRACT_END	n/a	n/a	n/a	-999	7	[0, 0, 0]	n/a	FR1	0	R1146E
1166.439	0.517	1244267	RETRIEVAL_ORIENT	n/a	n/a	n/a	-999	7	[0, 0, 0]	n/a	FR1	0	R1146E
1166.956	21.815	1244784	REC_START	n/a	n/a	n/a	-999	7	[0, 0, 0]	n/a	FR1	0	R1146E
1188.771	1.438	1266598	REC_WORD	1.438	n/a	BREAD	-999	7	[0, 0, 0]	n/a	FR1	0	R1146E
1190.209	1.0	1268036	REC_WORD_VV	1.0	n/a	<>	-999	7	[0, 0, 0]	n/a	FR1	0	R1146E
1191.209	2.339	1269036	REC_WORD_VV	2.339	n/a	<>	-999	7	[0, 0, 0]	n/a	FR1	0	R1146E
1193.548	3.42	1271375	REC_WORD_VV	3.42	n/a	<>	-999	7	[0, 0, 0]	n/a	FR1	0	R1146E
1196.968	16.029	1274795	REC_END	n/a	n/a	n/a	-999	7	[0, 0, 0]	n/a	FR1	0	R1146E
1212.997	0.5	1290823	TRIAL	n/a	n/a	n/a	-999	8	[0, 0, 0]	n/a	FR1	0	R1146E
1213.497	10.428	1291323	COUNTDOWN_START	n/a	n/a	n/a	-999	8	[0, 0, 0]	n/a	FR1	0	R1146E
1223.925	0.007	1301751	COUNTDOWN_END	n/a	n/a	n/a	-999	8	[0, 0, 0]	n/a	FR1	0	R1146E
1223.932	1.617	1301758	ORIENT	n/a	n/a	n/a	-999	8	[0, 0, 0]	n/a	FR1	0	R1146E
1225.549	2.167	1303375	ORIENT_OFF	n/a	n/a	n/a	-999	8	[0, 0, 0]	n/a	FR1	0	R1146E
1227.716	1.617	1305542	WORD	n/a	wordpools/wordpool_EN.txt	BEAR	1	8	[0, 0, 0]	n/a	FR1	0	R1146E
1229.333	0.866	1307159	WORD_OFF	n/a	n/a	BEAR	1	8	[0, 0, 0]	n/a	FR1	0	R1146E
1230.199	1.618	1308025	WORD	n/a	wordpools/wordpool_EN.txt	SNAKE	2	8	[0, 0, 0]	n/a	FR1	0	R1146E
1231.817	0.817	1309642	WORD_OFF	n/a	n/a	SNAKE	2	8	[0, 0, 0]	n/a	FR1	0	R1146E
1232.634	1.616	1310459	WORD	n/a	wordpools/wordpool_EN.txt	KITE	3	8	[0, 0, 0]	n/a	FR1	0	R1146E
1234.25	0.967	1312075	WORD_OFF	n/a	n/a	KITE	3	8	[0, 0, 0]	n/a	FR1	0	R1146E
1235.217	1.618	1313042	WORD	n/a	wordpools/wordpool_EN.txt	BIRD	4	8	[0, 0, 0]	n/a	FR1	0	R1146E
1236.835	0.933	1314660	WORD_OFF	n/a	n/a	BIRD	4	8	[0, 0, 0]	n/a	FR1	0	R1146E
1237.768	1.617	1315593	WORD	n/a	wordpools/wordpool_EN.txt	COW	5	8	[0, 0, 0]	n/a	FR1	0	R1146E
1239.385	0.984	1317210	WORD_OFF	n/a	n/a	COW	5	8	[0, 0, 0]	n/a	FR1	0	R1146E
1240.369	1.617	1318194	WORD	n/a	wordpools/wordpool_EN.txt	FOX	6	8	[0, 0, 0]	n/a	FR1	0	R1146E
1241.986	0.866	1319811	WORD_OFF	n/a	n/a	FOX	6	8	[0, 0, 0]	n/a	FR1	0	R1146E
1242.852	1.617	1320677	WORD	n/a	wordpools/wordpool_EN.txt	SOCK	7	8	[0, 0, 0]	n/a	FR1	0	R1146E
1244.469	0.95	1322294	WORD_OFF	n/a	n/a	SOCK	7	8	[0, 0, 0]	n/a	FR1	0	R1146E
1245.419	1.617	1323244	WORD	n/a	wordpools/wordpool_EN.txt	PEN	8	8	[0, 0, 0]	n/a	FR1	0	R1146E
1247.036	0.917	1324861	WORD_OFF	n/a	n/a	PEN	8	8	[0, 0, 0]	n/a	FR1	0	R1146E
1247.953	1.617	1325778	WORD	n/a	wordpools/wordpool_EN.txt	FLEA	9	8	[0, 0, 0]	n/a	FR1	0	R1146E
1249.57	0.8	1327395	WORD_OFF	n/a	n/a	FLEA	9	8	[0, 0, 0]	n/a	FR1	0	R1146E
1250.37	1.617	1328195	WORD	n/a	wordpools/wordpool_EN.txt	HAT	10	8	[0, 0, 0]	n/a	FR1	0	R1146E
1251.987	0.967	1329812	WORD_OFF	n/a	n/a	HAT	10	8	[0, 0, 0]	n/a	FR1	0	R1146E
1252.954	1.617	1330779	WORD	n/a	wordpools/wordpool_EN.txt	DEER	11	8	[0, 0, 0]	n/a	FR1	0	R1146E
1254.571	0.784	1332396	WORD_OFF	n/a	n/a	DEER	11	8	[0, 0, 0]	n/a	FR1	0	R1146E
1255.355	1.617	1333180	WORD	n/a	wordpools/wordpool_EN.txt	PIG	12	8	[0, 0, 0]	n/a	FR1	0	R1146E
1256.972	0.0	1334796	DISTRACT_START	n/a	n/a	n/a	-999	8	[0, 0, 0]	n/a	FR1	0	R1146E
1256.972	0.0	1334796	WORD_OFF	n/a	n/a	PIG	12	8	[0, 0, 0]	n/a	FR1	0	R1146E
1256.972	0.016	1334796	START	n/a	n/a	n/a	-999	8	[-999, -999, -999]	n/a	FR1	0	R1146E
1256.988	5.233	1334812	PROB	5.233	n/a	n/a	-999	8	[1, 7, 7]	15	FR1	0	R1146E
1262.221	7.153	1340045	PROB	7.153	n/a	n/a	-999	8	[6, 3, 4]	13	FR1	0	R1146E
1269.374	4.367	1347198	PROB	4.367	n/a	n/a	-999	8	[3, 1, 1]	5	FR1	0	R1146E
1273.741	5.592	1351565	PROB	5.592	n/a	n/a	-999	8	[3, 8, 3]	14	FR1	0	R1146E
1279.333	0.009	1357157	STOP	n/a	n/a	n/a	-999	8	[-999, -999, -999]	n/a	FR1	0	R1146E
1279.342	0.55	1357166	DISTRACT_END	n/a	n/a	n/a	-999	8	[0, 0, 0]	n/a	FR1	0	R1146E
1279.892	0.518	1357716	RETRIEVAL_ORIENT	n/a	n/a	n/a	-999	8	[0, 0, 0]	n/a	FR1	0	R1146E
1280.41	0.776	1358234	REC_START	n/a	n/a	n/a	-999	8	[0, 0, 0]	n/a	FR1	0	R1146E
1281.186	1.196	1359009	REC_WORD	1.196	n/a	COW	-999	8	[0, 0, 0]	n/a	FR1	0	R1146E
1282.382	1.234	1360205	REC_WORD	1.234	n/a	PIG	-999	8	[0, 0, 0]	n/a	FR1	0	R1146E
1283.616	3.557	1361439	REC_WORD	3.557	n/a	FLEA	-999	8	[0, 0, 0]	n/a	FR1	0	R1146E
1287.173	23.247	1364996	REC_WORD	23.247	n/a	SNAKE	-999	8	[0, 0, 0]	n/a	FR1	0	R1146E
1310.42	9.013	1388242	REC_END	n/a	n/a	n/a	-999	8	[0, 0, 0]	n/a	FR1	0	R1146E
1319.433	0.5	1397255	TRIAL	n/a	n/a	n/a	-999	9	[0, 0, 0]	n/a	FR1	0	R1146E
1319.933	10.428	1397755	COUNTDOWN_START	n/a	n/a	n/a	-999	9	[0, 0, 0]	n/a	FR1	0	R1146E
1330.361	0.007	1408182	COUNTDOWN_END	n/a	n/a	n/a	-999	9	[0, 0, 0]	n/a	FR1	0	R1146E
1330.368	1.616	1408189	ORIENT	n/a	n/a	n/a	-999	9	[0, 0, 0]	n/a	FR1	0	R1146E
1331.984	1.984	1409805	ORIENT_OFF	n/a	n/a	n/a	-999	9	[0, 0, 0]	n/a	FR1	0	R1146E
1333.968	1.617	1411789	WORD	n/a	wordpools/wordpool_EN.txt	FLUTE	1	9	[0, 0, 0]	n/a	FR1	0	R1146E
1335.585	0.884	1413406	WORD_OFF	n/a	n/a	FLUTE	1	9	[0, 0, 0]	n/a	FR1	0	R1146E
1336.469	1.616	1414290	WORD	n/a	wordpools/wordpool_EN.txt	RAKE	2	9	[0, 0, 0]	n/a	FR1	0	R1146E
1338.085	0.818	1415906	WORD_OFF	n/a	n/a	RAKE	2	9	[0, 0, 0]	n/a	FR1	0	R1146E
1338.903	1.617	1416724	WORD	n/a	wordpools/wordpool_EN.txt	BRANCH	3	9	[0, 0, 0]	n/a	FR1	0	R1146E
1340.52	0.983	1418341	WORD_OFF	n/a	n/a	BRANCH	3	9	[0, 0, 0]	n/a	FR1	0	R1146E
1341.503	1.616	1419324	WORD	n/a	wordpools/wordpool_EN.txt	ICE	4	9	[0, 0, 0]	n/a	FR1	0	R1146E
1343.119	0.851	1420940	WORD_OFF	n/a	n/a	ICE	4	9	[0, 0, 0]	n/a	FR1	0	R1146E
1343.97	1.617	1421791	WORD	n/a	wordpools/wordpool_EN.txt	DOG	5	9	[0, 0, 0]	n/a	FR1	0	R1146E
1345.587	0.917	1423408	WORD_OFF	n/a	n/a	DOG	5	9	[0, 0, 0]	n/a	FR1	0	R1146E
1346.504	1.616	1424325	WORD	n/a	wordpools/wordpool_EN.txt	TRASH	6	9	[0, 0, 0]	n/a	FR1	0	R1146E
1348.12	0.901	1425941	WORD_OFF	n/a	n/a	TRASH	6	9	[0, 0, 0]	n/a	FR1	0	R1146E
1349.021	1.617	1426842	WORD	n/a	wordpools/wordpool_EN.txt	GRAPE	7	9	[0, 0, 0]	n/a	FR1	0	R1146E
1350.638	0.867	1428459	WORD_OFF	n/a	n/a	GRAPE	7	9	[0, 0, 0]	n/a	FR1	0	R1146E
1351.505	1.616	1429326	WORD	n/a	wordpools/wordpool_EN.txt	STEM	8	9	[0, 0, 0]	n/a	FR1	0	R1146E
1353.121	0.884	1430942	WORD_OFF	n/a	n/a	STEM	8	9	[0, 0, 0]	n/a	FR1	0	R1146E
1354.005	1.617	1431826	WORD	n/a	wordpools/wordpool_EN.txt	PEAR	9	9	[0, 0, 0]	n/a	FR1	0	R1146E
1355.622	0.967	1433442	WORD_OFF	n/a	n/a	PEAR	9	9	[0, 0, 0]	n/a	FR1	0	R1146E
1356.589	1.616	1434409	WORD	n/a	wordpools/wordpool_EN.txt	TOAD	10	9	[0, 0, 0]	n/a	FR1	0	R1146E
1358.205	0.785	1436025	WORD_OFF	n/a	n/a	TOAD	10	9	[0, 0, 0]	n/a	FR1	0	R1146E
1358.99	1.616	1436810	WORD	n/a	wordpools/wordpool_EN.txt	CONE	11	9	[0, 0, 0]	n/a	FR1	0	R1146E
1360.606	0.951	1438426	WORD_OFF	n/a	n/a	CONE	11	9	[0, 0, 0]	n/a	FR1	0	R1146E
1361.557	1.616	1439377	WORD	n/a	wordpools/wordpool_EN.txt	MAZE	12	9	[0, 0, 0]	n/a	FR1	0	R1146E
1363.173	0.0	1440993	WORD_OFF	n/a	n/a	MAZE	12	9	[0, 0, 0]	n/a	FR1	0	R1146E
1363.173	0.0	1440993	DISTRACT_START	n/a	n/a	n/a	-999	9	[0, 0, 0]	n/a	FR1	0	R1146E
1363.173	0.016	1440993	START	n/a	n/a	n/a	-999	9	[-999, -999, -999]	n/a	FR1	0	R1146E
1363.189	4.169	1441009	PROB	4.169	n/a	n/a	-999	9	[5, 5, 4]	14	FR1	0	R1146E
1367.358	7.218	1445178	PROB	7.218	n/a	n/a	-999	9	[4, 6, 4]	14	FR1	0	R1146E
1374.576	7.301	1452396	PROB	7.301	n/a	n/a	-999	9	[1, 8, 9]	18	FR1	0	R1146E
1381.877	7.87	1459696	PROB	7.87	n/a	n/a	-999	9	[4, 9, 3]	16	FR1	0	R1146E
1389.747	0.015	1467566	STOP	n/a	n/a	n/a	-999	9	[-999, -999, -999]	n/a	FR1	0	R1146E
1389.762	0.566	1467581	DISTRACT_END	n/a	n/a	n/a	-999	9	[0, 0, 0]	n/a	FR1	0	R1146E
1390.328	0.518	1468147	RETRIEVAL_ORIENT	n/a	n/a	n/a	-999	9	[0, 0, 0]	n/a	FR1	0	R1146E
1390.846	2.092	1468665	REC_START	n/a	n/a	n/a	-999	9	[0, 0, 0]	n/a	FR1	0	R1146E
1392.938	8.68	1470757	REC_WORD	8.68	n/a	PEAR	-999	9	[0, 0, 0]	n/a	FR1	0	R1146E
1401.618	19.238	1479437	REC_WORD_VV	19.238	n/a	<>	-999	9	[0, 0, 0]	n/a	FR1	0	R1146E
1420.856	7.963	1498674	REC_END	n/a	n/a	n/a	-999	9	[0, 0, 0]	n/a	FR1	0	R1146E
1428.819	0.5	1506636	TRIAL	n/a	n/a	n/a	-999	10	[0, 0, 0]	n/a	FR1	0	R1146E
1429.319	10.428	1507136	COUNTDOWN_START	n/a	n/a	n/a	-999	10	[0, 0, 0]	n/a	FR1	0	R1146E
1439.747	0.007	1517564	COUNTDOWN_END	n/a	n/a	n/a	-999	10	[0, 0, 0]	n/a	FR1	0	R1146E
1439.754	1.617	1517571	ORIENT	n/a	n/a	n/a	-999	10	[0, 0, 0]	n/a	FR1	0	R1146E
1441.371	2.183	1519188	ORIENT_OFF	n/a	n/a	n/a	-999	10	[0, 0, 0]	n/a	FR1	0	R1146E
1443.554	1.616	1521371	WORD	n/a	wordpools/wordpool_EN.txt	CLOCK	1	10	[0, 0, 0]	n/a	FR1	0	R1146E
1445.17	0.852	1522987	WORD_OFF	n/a	n/a	CLOCK	1	10	[0, 0, 0]	n/a	FR1	0	R1146E
1446.022	1.617	1523839	WORD	n/a	wordpools/wordpool_EN.txt	CART	2	10	[0, 0, 0]	n/a	FR1	0	R1146E
1447.639	0.966	1525456	WORD_OFF	n/a	n/a	CART	2	10	[0, 0, 0]	n/a	FR1	0	R1146E
1448.605	1.616	1526422	WORD	n/a	wordpools/wordpool_EN.txt	COUCH	3	10	[0, 0, 0]	n/a	FR1	0	R1146E
1450.221	0.95	1528038	WORD_OFF	n/a	n/a	COUCH	3	10	[0, 0, 0]	n/a	FR1	0	R1146E
1451.171	1.601	1528988	WORD	n/a	wordpools/wordpool_EN.txt	BAND	4	10	[0, 0, 0]	n/a	FR1	0	R1146E
1452.772	0.918	1530589	WORD_OFF	n/a	n/a	BAND	4	10	[0, 0, 0]	n/a	FR1	0	R1146E
1453.69	1.616	1531506	WORD	n/a	wordpools/wordpool_EN.txt	LOCK	5	10	[0, 0, 0]	n/a	FR1	0	R1146E
1455.306	0.8	1533122	WORD_OFF	n/a	n/a	LOCK	5	10	[0, 0, 0]	n/a	FR1	0	R1146E
1456.106	1.618	1533922	WORD	n/a	wordpools/wordpool_EN.txt	TRUCK	6	10	[0, 0, 0]	n/a	FR1	0	R1146E
1457.724	0.8	1535540	WORD_OFF	n/a	n/a	TRUCK	6	10	[0, 0, 0]	n/a	FR1	0	R1146E
1458.524	1.616	1536340	WORD	n/a	wordpools/wordpool_EN.txt	DIME	7	10	[0, 0, 0]	n/a	FR1	0	R1146E
1460.14	0.967	1537956	WORD_OFF	n/a	n/a	DIME	7	10	[0, 0, 0]	n/a	FR1	0	R1146E
1461.107	1.617	1538923	WORD	n/a	wordpools/wordpool_EN.txt	FORK	8	10	[0, 0, 0]	n/a	FR1	0	R1146E
1462.724	0.817	1540540	WORD_OFF	n/a	n/a	FORK	8	10	[0, 0, 0]	n/a	FR1	0	R1146E
1463.541	1.616	1541357	WORD	n/a	wordpools/wordpool_EN.txt	ARK	9	10	[0, 0, 0]	n/a	FR1	0	R1146E
1465.157	0.801	1542973	WORD_OFF	n/a	n/a	ARK	9	10	[0, 0, 0]	n/a	FR1	0	R1146E
1465.958	1.617	1543774	WORD	n/a	wordpools/wordpool_EN.txt	SHIRT	10	10	[0, 0, 0]	n/a	FR1	0	R1146E
1467.575	0.984	1545391	WORD_OFF	n/a	n/a	SHIRT	10	10	[0, 0, 0]	n/a	FR1	0	R1146E
1468.559	1.616	1546375	WORD	n/a	wordpools/wordpool_EN.txt	CLOWN	11	10	[0, 0, 0]	n/a	FR1	0	R1146E
1470.175	0.917	1547991	WORD_OFF	n/a	n/a	CLOWN	11	10	[0, 0, 0]	n/a	FR1	0	R1146E
1471.092	1.618	1548908	WORD	n/a	wordpools/wordpool_EN.txt	STREET	12	10	[0, 0, 0]	n/a	FR1	0	R1146E
1472.71	0.0	1550526	WORD_OFF	n/a	n/a	STREET	12	10	[0, 0, 0]	n/a	FR1	0	R1146E
1472.71	0.0	1550526	DISTRACT_START	n/a	n/a	n/a	-999	10	[0, 0, 0]	n/a	FR1	0	R1146E
1472.71	0.016	1550526	START	n/a	n/a	n/a	-999	10	[-999, -999, -999]	n/a	FR1	0	R1146E
1472.726	6.284	1550542	PROB	6.284	n/a	n/a	-999	10	[3, 4, 5]	12	FR1	0	R1146E
1479.01	4.935	1556825	PROB	4.935	n/a	n/a	-999	10	[3, 2, 2]	7	FR1	0	R1146E
1483.945	4.467	1561760	PROB	4.467	n/a	n/a	-999	10	[1, 6, 5]	12	FR1	0	R1146E
1488.412	3.468	1566227	PROB	3.468	n/a	n/a	-999	10	[1, 9, 1]	11	FR1	0	R1146E
1491.88	6.371	1569695	PROB	6.371	n/a	n/a	-999	10	[3, 3, 6]	12	FR1	0	R1146E
1498.251	0.012	1576066	STOP	n/a	n/a	n/a	-999	10	[-999, -999, -999]	n/a	FR1	0	R1146E
1498.263	0.651	1576078	DISTRACT_END	n/a	n/a	n/a	-999	10	[0, 0, 0]	n/a	FR1	0	R1146E
1498.914	0.518	1576729	RETRIEVAL_ORIENT	n/a	n/a	n/a	-999	10	[0, 0, 0]	n/a	FR1	0	R1146E
1499.432	14.419	1577247	REC_START	n/a	n/a	n/a	-999	10	[0, 0, 0]	n/a	FR1	0	R1146E
1513.851	15.591	1591665	REC_WORD_VV	15.591	n/a	<>	-999	10	[0, 0, 0]	n/a	FR1	0	R1146E
1529.442	8.162	1607255	REC_END	n/a	n/a	n/a	-999	10	[0, 0, 0]	n/a	FR1	0	R1146E
1537.604	0.5	1615417	TRIAL	n/a	n/a	n/a	-999	11	[0, 0, 0]	n/a	FR1	0	R1146E
1538.104	10.428	1615917	COUNTDOWN_START	n/a	n/a	n/a	-999	11	[0, 0, 0]	n/a	FR1	0	R1146E
1548.532	0.008	1626345	COUNTDOWN_END	n/a	n/a	n/a	-999	11	[0, 0, 0]	n/a	FR1	0	R1146E
1548.54	1.616	1626353	ORIENT	n/a	n/a	n/a	-999	11	[0, 0, 0]	n/a	FR1	0	R1146E
1550.156	2.284	1627969	ORIENT_OFF	n/a	n/a	n/a	-999	11	[0, 0, 0]	n/a	FR1	0	R1146E
1552.44	1.616	1630252	WORD	n/a	wordpools/wordpool_EN.txt	FENCE	1	11	[0, 0, 0]	n/a	FR1	0	R1146E
1554.056	0.918	1631868	WORD_OFF	n/a	n/a	FENCE	1	11	[0, 0, 0]	n/a	FR1	0	R1146E
1554.974	1.617	1632786	WORD	n/a	wordpools/wordpool_EN.txt	CLOTH	2	11	[0, 0, 0]	n/a	FR1	0	R1146E
1556.591	0.934	1634403	WORD_OFF	n/a	n/a	CLOTH	2	11	[0, 0, 0]	n/a	FR1	0	R1146E
1557.525	1.616	1635337	WORD	n/a	wordpools/wordpool_EN.txt	MOOSE	3	11	[0, 0, 0]	n/a	FR1	0	R1146E
1559.141	0.884	1636953	WORD_OFF	n/a	n/a	MOOSE	3	11	[0, 0, 0]	n/a	FR1	0	R1146E
1560.025	1.617	1637837	WORD	n/a	wordpools/wordpool_EN.txt	PEACH	4	11	[0, 0, 0]	n/a	FR1	0	R1146E
1561.642	0.783	1639454	WORD_OFF	n/a	n/a	PEACH	4	11	[0, 0, 0]	n/a	FR1	0	R1146E
1562.425	1.617	1640237	WORD	n/a	wordpools/wordpool_EN.txt	STEAK	5	11	[0, 0, 0]	n/a	FR1	0	R1146E
1564.042	0.901	1641854	WORD_OFF	n/a	n/a	STEAK	5	11	[0, 0, 0]	n/a	FR1	0	R1146E
1564.943	1.617	1642755	WORD	n/a	wordpools/wordpool_EN.txt	HORN	6	11	[0, 0, 0]	n/a	FR1	0	R1146E
1566.56	0.866	1644372	WORD_OFF	n/a	n/a	HORN	6	11	[0, 0, 0]	n/a	FR1	0	R1146E
1567.426	1.617	1645238	WORD	n/a	wordpools/wordpool_EN.txt	BATH	7	11	[0, 0, 0]	n/a	FR1	0	R1146E
1569.043	0.767	1646855	WORD_OFF	n/a	n/a	BATH	7	11	[0, 0, 0]	n/a	FR1	0	R1146E
1569.81	1.617	1647622	WORD	n/a	wordpools/wordpool_EN.txt	SIGN	8	11	[0, 0, 0]	n/a	FR1	0	R1146E
1571.427	1.0	1649239	WORD_OFF	n/a	n/a	SIGN	8	11	[0, 0, 0]	n/a	FR1	0	R1146E
1572.427	1.617	1650239	WORD	n/a	wordpools/wordpool_EN.txt	WOOD	9	11	[0, 0, 0]	n/a	FR1	0	R1146E
1574.044	0.95	1651856	WORD_OFF	n/a	n/a	WOOD	9	11	[0, 0, 0]	n/a	FR1	0	R1146E
1574.994	1.617	1652806	WORD	n/a	wordpools/wordpool_EN.txt	GRASS	10	11	[0, 0, 0]	n/a	FR1	0	R1146E
1576.611	0.767	1654423	WORD_OFF	n/a	n/a	GRASS	10	11	[0, 0, 0]	n/a	FR1	0	R1146E
1577.378	1.617	1655189	WORD	n/a	wordpools/wordpool_EN.txt	OAK	11	11	[0, 0, 0]	n/a	FR1	0	R1146E
1578.995	0.967	1656806	WORD_OFF	n/a	n/a	OAK	11	11	[0, 0, 0]	n/a	FR1	0	R1146E
1579.962	1.617	1657773	WORD	n/a	wordpools/wordpool_EN.txt	PIE	12	11	[0, 0, 0]	n/a	FR1	0	R1146E
1581.579	0.0	1659390	WORD_OFF	n/a	n/a	PIE	12	11	[0, 0, 0]	n/a	FR1	0	R1146E
1581.579	0.0	1659390	DISTRACT_START	n/a	n/a	n/a	-999	11	[0, 0, 0]	n/a	FR1	0	R1146E
1581.579	0.016	1659390	START	n/a	n/a	n/a	-999	11	[-999, -999, -999]	n/a	FR1	0	R1146E
1581.595	9.069	1659406	PROB	9.069	n/a	n/a	-999	11	[9, 6, 7]	22	FR1	0	R1146E
1590.664	5.284	1668475	PROB	5.284	n/a	n/a	-999	11	[4, 8, 2]	14	FR1	0	R1146E
1595.948	3.001	1673759	PROB	3.001	n/a	n/a	-999	11	[5, 3, 5]	13	FR1	0	R1146E
1598.949	4.525	1676760	PROB	4.525	n/a	n/a	-999	11	[9, 1, 7]	17	FR1	0	R1146E
1603.474	0.009	1681284	STOP	n/a	n/a	n/a	-999	11	[-999, -999, -999]	n/a	FR1	0	R1146E
1603.483	0.649	1681293	DISTRACT_END	n/a	n/a	n/a	-999	11	[0, 0, 0]	n/a	FR1	0	R1146E
1604.132	0.518	1681942	RETRIEVAL_ORIENT	n/a	n/a	n/a	-999	11	[0, 0, 0]	n/a	FR1	0	R1146E
1604.65	0.969	1682460	REC_START	n/a	n/a	n/a	-999	11	[0, 0, 0]	n/a	FR1	0	R1146E
1605.619	1.271	1683429	REC_WORD	1.271	n/a	MOOSE	-999	11	[0, 0, 0]	n/a	FR1	0	R1146E
1606.89	5.457	1684700	REC_WORD	5.457	n/a	OAK	-999	11	[0, 0, 0]	n/a	FR1	0	R1146E
1612.347	6.473	1690157	REC_WORD	6.473	n/a	STREET	-999	11	[0, 0, 0]	n/a	FR1	0	R1146E
1618.82	15.843	1696630	REC_WORD	15.843	n/a	BARN	-999	11	[0, 0, 0]	n/a	FR1	0	R1146E
1634.663	32.898	1712472	REC_END	n/a	n/a	n/a	-999	11	[0, 0, 0]	n/a	FR1	0	R1146E
1667.561	0.5	1745369	TRIAL	n/a	n/a	n/a	-999	12	[0, 0, 0]	n/a	FR1	0	R1146E
1668.061	10.428	1745869	COUNTDOWN_START	n/a	n/a	n/a	-999	12	[0, 0, 0]	n/a	FR1	0	R1146E
1678.489	0.007	1756296	COUNTDOWN_END	n/a	n/a	n/a	-999	12	[0, 0, 0]	n/a	FR1	0	R1146E
1678.496	1.616	1756303	ORIENT	n/a	n/a	n/a	-999	12	[0, 0, 0]	n/a	FR1	0	R1146E
1680.112	2.268	1757919	ORIENT_OFF	n/a	n/a	n/a	-999	12	[0, 0, 0]	n/a	FR1	0	R1146E
1682.38	1.617	1760187	WORD	n/a	wordpools/wordpool_EN.txt	JUDGE	1	12	[0, 0, 0]	n/a	FR1	0	R1146E
1683.997	0.767	1761804	WORD_OFF	n/a	n/a	JUDGE	1	12	[0, 0, 0]	n/a	FR1	0	R1146E
1684.764	1.617	1762571	WORD	n/a	wordpools/wordpool_EN.txt	FUDGE	2	12	[0, 0, 0]	n/a	FR1	0	R1146E
1686.381	0.933	1764188	WORD_OFF	n/a	n/a	FUDGE	2	12	[0, 0, 0]	n/a	FR1	0	R1146E
1687.314	1.617	1765121	WORD	n/a	wordpools/wordpool_EN.txt	JAIL	3	12	[0, 0, 0]	n/a	FR1	0	R1146E
1688.931	0.884	1766738	WORD_OFF	n/a	n/a	JAIL	3	12	[0, 0, 0]	n/a	FR1	0	R1146E
1689.815	1.617	1767622	WORD	n/a	wordpools/wordpool_EN.txt	BRIDGE	4	12	[0, 0, 0]	n/a	FR1	0	R1146E
1691.432	0.815	1769239	WORD_OFF	n/a	n/a	BRIDGE	4	12	[0, 0, 0]	n/a	FR1	0	R1146E
1692.247	1.601	1770054	WORD	n/a	wordpools/wordpool_EN.txt	SMOKE	5	12	[0, 0, 0]	n/a	FR1	0	R1146E
1693.848	0.917	1771655	WORD_OFF	n/a	n/a	SMOKE	5	12	[0, 0, 0]	n/a	FR1	0	R1146E
1694.765	1.617	1772572	WORD	n/a	wordpools/wordpool_EN.txt	SAIL	6	12	[0, 0, 0]	n/a	FR1	0	R1146E
1696.382	0.85	1774189	WORD_OFF	n/a	n/a	SAIL	6	12	[0, 0, 0]	n/a	FR1	0	R1146E
1697.232	1.618	1775039	WORD	n/a	wordpools/wordpool_EN.txt	FORT	7	12	[0, 0, 0]	n/a	FR1	0	R1146E
1698.85	0.9	1776657	WORD_OFF	n/a	n/a	FORT	7	12	[0, 0, 0]	n/a	FR1	0	R1146E
1699.75	1.617	1777557	WORD	n/a	wordpools/wordpool_EN.txt	SWORD	8	12	[0, 0, 0]	n/a	FR1	0	R1146E
1701.367	0.916	1779173	WORD_OFF	n/a	n/a	SWORD	8	12	[0, 0, 0]	n/a	FR1	0	R1146E
1702.283	1.617	1780089	WORD	n/a	wordpools/wordpool_EN.txt	SPEAR	9	12	[0, 0, 0]	n/a	FR1	0	R1146E
1703.9	0.784	1781706	WORD_OFF	n/a	n/a	SPEAR	9	12	[0, 0, 0]	n/a	FR1	0	R1146E
1704.684	1.617	1782490	WORD	n/a	wordpools/wordpool_EN.txt	CLIFF	10	12	[0, 0, 0]	n/a	FR1	0	R1146E
1706.301	0.799	1784107	WORD_OFF	n/a	n/a	CLIFF	10	12	[0, 0, 0]	n/a	FR1	0	R1146E
1707.1	1.618	1784906	WORD	n/a	wordpools/wordpool_EN.txt	STEAM	11	12	[0, 0, 0]	n/a	FR1	0	R1146E
1708.718	0.8	1786524	WORD_OFF	n/a	n/a	STEAM	11	12	[0, 0, 0]	n/a	FR1	0	R1146E
1709.518	1.616	1787324	WORD	n/a	wordpools/wordpool_EN.txt	ROCK	12	12	[0, 0, 0]	n/a	FR1	0	R1146E
1711.134	0.0	1788940	WORD_OFF	n/a	n/a	ROCK	12	12	[0, 0, 0]	n/a	FR1	0	R1146E
1711.134	0.001	1788940	DISTRACT_START	n/a	n/a	n/a	-999	12	[0, 0, 0]	n/a	FR1	0	R1146E
1711.135	0.016	1788941	START	n/a	n/a	n/a	-999	12	[-999, -999, -999]	n/a	FR1	0	R1146E
1711.151	21.839	1788957	PROB	21.839	n/a	n/a	-999	12	[4, 9, 2]	15	FR1	0	R1146E
1732.99	0.016	1810795	STOP	n/a	n/a	n/a	-999	12	[-999, -999, -999]	n/a	FR1	0	R1146E
1733.006	0.65	1810811	DISTRACT_END	n/a	n/a	n/a	-999	12	[0, 0, 0]	n/a	FR1	0	R1146E
1733.656	0.516	1811461	RETRIEVAL_ORIENT	n/a	n/a	n/a	-999	12	[0, 0, 0]	n/a	FR1	0	R1146E
1734.172	1.512	1811977	REC_START	n/a	n/a	n/a	-999	12	[0, 0, 0]	n/a	FR1	0	R1146E
1735.684	11.275	1813489	REC_WORD	11.275	n/a	SWORD	-999	12	[0, 0, 0]	n/a	FR1	0	R1146E
1746.959	17.225	1824764	REC_WORD	17.225	n/a	JAIL	-999	12	[0, 0, 0]	n/a	FR1	0	R1146E
1764.184	6.645	1841988	REC_END	n/a	n/a	n/a	-999	12	[0, 0, 0]	n/a	FR1	0	R1146E
1770.829	0.5	1848633	TRIAL	n/a	n/a	n/a	-999	13	[0, 0, 0]	n/a	FR1	0	R1146E
1771.329	10.428	1849133	COUNTDOWN_START	n/a	n/a	n/a	-999	13	[0, 0, 0]	n/a	FR1	0	R1146E
1781.757	0.007	1859560	COUNTDOWN_END	n/a	n/a	n/a	-999	13	[0, 0, 0]	n/a	FR1	0	R1146E
1781.764	1.617	1859567	ORIENT	n/a	n/a	n/a	-999	13	[0, 0, 0]	n/a	FR1	0	R1146E
1783.381	2.134	1861184	ORIENT_OFF	n/a	n/a	n/a	-999	13	[0, 0, 0]	n/a	FR1	0	R1146E
1785.515	1.616	1863318	WORD	n/a	wordpools/wordpool_EN.txt	SEED	1	13	[0, 0, 0]	n/a	FR1	0	R1146E
1787.131	0.967	1864934	WORD_OFF	n/a	n/a	SEED	1	13	[0, 0, 0]	n/a	FR1	0	R1146E
1788.098	1.618	1865901	WORD	n/a	wordpools/wordpool_EN.txt	HOOF	2	13	[0, 0, 0]	n/a	FR1	0	R1146E
1789.716	0.866	1867519	WORD_OFF	n/a	n/a	HOOF	2	13	[0, 0, 0]	n/a	FR1	0	R1146E
1790.582	1.616	1868385	WORD	n/a	wordpools/wordpool_EN.txt	STAIR	3	13	[0, 0, 0]	n/a	FR1	0	R1146E
1792.198	0.835	1870001	WORD_OFF	n/a	n/a	STAIR	3	13	[0, 0, 0]	n/a	FR1	0	R1146E
1793.033	1.617	1870836	WORD	n/a	wordpools/wordpool_EN.txt	SHELL	4	13	[0, 0, 0]	n/a	FR1	0	R1146E
1794.65	0.917	1872453	WORD_OFF	n/a	n/a	SHELL	4	13	[0, 0, 0]	n/a	FR1	0	R1146E
1795.567	1.616	1873370	WORD	n/a	wordpools/wordpool_EN.txt	ROOT	5	13	[0, 0, 0]	n/a	FR1	0	R1146E
1797.183	0.851	1874986	WORD_OFF	n/a	n/a	ROOT	5	13	[0, 0, 0]	n/a	FR1	0	R1146E
1798.034	1.617	1875837	WORD	n/a	wordpools/wordpool_EN.txt	MAP	6	13	[0, 0, 0]	n/a	FR1	0	R1146E
1799.651	1.0	1877453	WORD_OFF	n/a	n/a	MAP	6	13	[0, 0, 0]	n/a	FR1	0	R1146E
1800.651	1.616	1878453	WORD	n/a	wordpools/wordpool_EN.txt	LEAF	7	13	[0, 0, 0]	n/a	FR1	0	R1146E
1802.267	0.933	1880069	WORD_OFF	n/a	n/a	LEAF	7	13	[0, 0, 0]	n/a	FR1	0	R1146E
1803.2	1.618	1881002	WORD	n/a	wordpools/wordpool_EN.txt	ANT	8	13	[0, 0, 0]	n/a	FR1	0	R1146E
1804.818	0.967	1882620	WORD_OFF	n/a	n/a	ANT	8	13	[0, 0, 0]	n/a	FR1	0	R1146E
1805.785	1.617	1883587	WORD	n/a	wordpools/wordpool_EN.txt	MILK	9	13	[0, 0, 0]	n/a	FR1	0	R1146E
1807.402	0.783	1885204	WORD_OFF	n/a	n/a	MILK	9	13	[0, 0, 0]	n/a	FR1	0	R1146E
1808.185	1.617	1885987	WORD	n/a	wordpools/wordpool_EN.txt	SNAIL	10	13	[0, 0, 0]	n/a	FR1	0	R1146E
1809.802	0.984	1887604	WORD_OFF	n/a	n/a	SNAIL	10	13	[0, 0, 0]	n/a	FR1	0	R1146E
1810.786	1.617	1888588	WORD	n/a	wordpools/wordpool_EN.txt	SHRIMP	11	13	[0, 0, 0]	n/a	FR1	0	R1146E
1812.403	0.884	1890205	WORD_OFF	n/a	n/a	SHRIMP	11	13	[0, 0, 0]	n/a	FR1	0	R1146E
1813.287	1.616	1891089	WORD	n/a	wordpools/wordpool_EN.txt	CORN	12	13	[0, 0, 0]	n/a	FR1	0	R1146E
1814.903	0.0	1892705	WORD_OFF	n/a	n/a	CORN	12	13	[0, 0, 0]	n/a	FR1	0	R1146E
1814.903	0.001	1892705	DISTRACT_START	n/a	n/a	n/a	-999	13	[0, 0, 0]	n/a	FR1	0	R1146E
1814.904	0.016	1892706	START	n/a	n/a	n/a	-999	13	[-999, -999, -999]	n/a	FR1	0	R1146E
1814.92	8.102	1892722	PROB	8.102	n/a	n/a	-999	13	[8, 5, 3]	16	FR1	0	R1146E
1823.022	6.301	1900824	PROB	6.301	n/a	n/a	-999	13	[4, 7, 2]	13	FR1	0	R1146E
1829.323	4.467	1907124	PROB	4.467	n/a	n/a	-999	13	[8, 7, 1]	16	FR1	0	R1146E
1833.79	5.56	1911591	PROB	5.56	n/a	n/a	-999	13	[8, 6, 1]	15	FR1	0	R1146E
1839.35	0.008	1917151	STOP	n/a	n/a	n/a	-999	13	[-999, -999, -999]	n/a	FR1	0	R1146E
1839.358	0.55	1917159	DISTRACT_END	n/a	n/a	n/a	-999	13	[0, 0, 0]	n/a	FR1	0	R1146E
1839.908	0.517	1917709	RETRIEVAL_ORIENT	n/a	n/a	n/a	-999	13	[0, 0, 0]	n/a	FR1	0	R1146E
1840.425	0.98	1918226	REC_START	n/a	n/a	n/a	-999	13	[0, 0, 0]	n/a	FR1	0	R1146E
1841.405	4.263	1919206	REC_WORD	4.263	n/a	SNAIL	-999	13	[0, 0, 0]	n/a	FR1	0	R1146E
1845.668	24.769	1923469	REC_WORD	24.769	n/a	ROOT	-999	13	[0, 0, 0]	n/a	FR1	0	R1146E
1870.437	8.727	1948237	REC_END	n/a	n/a	n/a	-999	13	[0, 0, 0]	n/a	FR1	0	R1146E
1879.164	0.5	1956963	TRIAL	n/a	n/a	n/a	-999	14	[0, 0, 0]	n/a	FR1	0	R1146E
1879.664	10.428	1957463	COUNTDOWN_START	n/a	n/a	n/a	-999	14	[0, 0, 0]	n/a	FR1	0	R1146E
1890.092	0.007	1967891	COUNTDOWN_END	n/a	n/a	n/a	-999	14	[0, 0, 0]	n/a	FR1	0	R1146E
1890.099	1.618	1967898	ORIENT	n/a	n/a	n/a	-999	14	[0, 0, 0]	n/a	FR1	0	R1146E
1891.717	1.967	1969516	ORIENT_OFF	n/a	n/a	n/a	-999	14	[0, 0, 0]	n/a	FR1	0	R1146E
1893.684	1.617	1971483	WORD	n/a	wordpools/wordpool_EN.txt	MOLE	1	14	[0, 0, 0]	n/a	FR1	0	R1146E
1895.301	0.983	1973100	WORD_OFF	n/a	n/a	MOLE	1	14	[0, 0, 0]	n/a	FR1	0	R1146E
1896.284	1.617	1974083	WORD	n/a	wordpools/wordpool_EN.txt	BEE	2	14	[0, 0, 0]	n/a	FR1	0	R1146E
1897.901	0.984	1975700	WORD_OFF	n/a	n/a	BEE	2	14	[0, 0, 0]	n/a	FR1	0	R1146E
1898.885	1.617	1976683	WORD	n/a	wordpools/wordpool_EN.txt	SHIELD	3	14	[0, 0, 0]	n/a	FR1	0	R1146E
1900.502	0.967	1978300	WORD_OFF	n/a	n/a	SHIELD	3	14	[0, 0, 0]	n/a	FR1	0	R1146E
1901.469	1.616	1979267	WORD	n/a	wordpools/wordpool_EN.txt	ROOF	4	14	[0, 0, 0]	n/a	FR1	0	R1146E
1903.085	0.917	1980883	WORD_OFF	n/a	n/a	ROOF	4	14	[0, 0, 0]	n/a	FR1	0	R1146E
1904.002	1.617	1981800	WORD	n/a	wordpools/wordpool_EN.txt	AXE	5	14	[0, 0, 0]	n/a	FR1	0	R1146E
1905.619	0.867	1983417	WORD_OFF	n/a	n/a	AXE	5	14	[0, 0, 0]	n/a	FR1	0	R1146E
1906.486	1.616	1984284	WORD	n/a	wordpools/wordpool_EN.txt	GATE	6	14	[0, 0, 0]	n/a	FR1	0	R1146E
1908.102	0.901	1985900	WORD_OFF	n/a	n/a	GATE	6	14	[0, 0, 0]	n/a	FR1	0	R1146E
1909.003	1.617	1986801	WORD	n/a	wordpools/wordpool_EN.txt	CANE	7	14	[0, 0, 0]	n/a	FR1	0	R1146E
1910.62	0.967	1988418	WORD_OFF	n/a	n/a	CANE	7	14	[0, 0, 0]	n/a	FR1	0	R1146E
1911.587	1.616	1989385	WORD	n/a	wordpools/wordpool_EN.txt	HOLE	8	14	[0, 0, 0]	n/a	FR1	0	R1146E
1913.203	0.95	1991001	WORD_OFF	n/a	n/a	HOLE	8	14	[0, 0, 0]	n/a	FR1	0	R1146E
1914.153	1.618	1991951	WORD	n/a	wordpools/wordpool_EN.txt	FLOOR	9	14	[0, 0, 0]	n/a	FR1	0	R1146E
1915.771	0.967	1993569	WORD_OFF	n/a	n/a	FLOOR	9	14	[0, 0, 0]	n/a	FR1	0	R1146E
1916.738	1.617	1994536	WORD	n/a	wordpools/wordpool_EN.txt	CAVE	10	14	[0, 0, 0]	n/a	FR1	0	R1146E
1918.355	1.0	1996153	WORD_OFF	n/a	n/a	CAVE	10	14	[0, 0, 0]	n/a	FR1	0	R1146E
1919.355	1.617	1997153	WORD	n/a	wordpools/wordpool_EN.txt	RIB	11	14	[0, 0, 0]	n/a	FR1	0	R1146E
1920.972	0.884	1998770	WORD_OFF	n/a	n/a	RIB	11	14	[0, 0, 0]	n/a	FR1	0	R1146E
1921.856	1.617	1999654	WORD	n/a	wordpools/wordpool_EN.txt	STORM	12	14	[0, 0, 0]	n/a	FR1	0	R1146E
1923.473	0.0	2001270	WORD_OFF	n/a	n/a	STORM	12	14	[0, 0, 0]	n/a	FR1	0	R1146E
1923.473	0.0	2001270	DISTRACT_START	n/a	n/a	n/a	-999	14	[0, 0, 0]	n/a	FR1	0	R1146E
1923.473	0.016	2001270	START	n/a	n/a	n/a	-999	14	[-999, -999, -999]	n/a	FR1	0	R1146E
1923.489	4.884	2001286	PROB	4.884	n/a	n/a	-999	14	[2, 8, 1]	11	FR1	0	R1146E
1928.373	12.619	2006170	PROB	12.619	n/a	n/a	-999	14	[5, 2, 6]	13	FR1	0	R1146E
1940.992	7.343	2018789	PROB	7.343	n/a	n/a	-999	14	[6, 9, 4]	19	FR1	0	R1146E
1948.335	0.009	2026131	STOP	n/a	n/a	n/a	-999	14	[-999, -999, -999]	n/a	FR1	0	R1146E
1948.344	0.633	2026140	DISTRACT_END	n/a	n/a	n/a	-999	14	[0, 0, 0]	n/a	FR1	0	R1146E
1948.977	0.517	2026773	RETRIEVAL_ORIENT	n/a	n/a	n/a	-999	14	[0, 0, 0]	n/a	FR1	0	R1146E
1949.494	8.223	2027290	REC_START	n/a	n/a	n/a	-999	14	[0, 0, 0]	n/a	FR1	0	R1146E
1957.717	21.789	2035513	REC_WORD_VV	21.789	n/a	<>	-999	14	[0, 0, 0]	n/a	FR1	0	R1146E
1979.506	27.131	2057301	REC_END	n/a	n/a	n/a	-999	14	[0, 0, 0]	n/a	FR1	0	R1146E
2006.637	0.5	2084431	TRIAL	n/a	n/a	n/a	-999	15	[0, 0, 0]	n/a	FR1	0	R1146E
2007.137	10.428	2084931	COUNTDOWN_START	n/a	n/a	n/a	-999	15	[0, 0, 0]	n/a	FR1	0	R1146E
2017.565	0.007	2095359	COUNTDOWN_END	n/a	n/a	n/a	-999	15	[0, 0, 0]	n/a	FR1	0	R1146E
2017.572	1.617	2095366	ORIENT	n/a	n/a	n/a	-999	15	[0, 0, 0]	n/a	FR1	0	R1146E
2019.189	2.05	2096983	ORIENT_OFF	n/a	n/a	n/a	-999	15	[0, 0, 0]	n/a	FR1	0	R1146E
2021.239	1.618	2099033	WORD	n/a	wordpools/wordpool_EN.txt	FLAME	1	15	[0, 0, 0]	n/a	FR1	0	R1146E
2022.857	0.95	2100650	WORD_OFF	n/a	n/a	FLAME	1	15	[0, 0, 0]	n/a	FR1	0	R1146E
2023.807	1.617	2101600	WORD	n/a	wordpools/wordpool_EN.txt	SOUP	2	15	[0, 0, 0]	n/a	FR1	0	R1146E
2025.424	0.883	2103217	WORD_OFF	n/a	n/a	SOUP	2	15	[0, 0, 0]	n/a	FR1	0	R1146E
2026.307	1.617	2104100	WORD	n/a	wordpools/wordpool_EN.txt	VINE	3	15	[0, 0, 0]	n/a	FR1	0	R1146E
2027.924	0.951	2105717	WORD_OFF	n/a	n/a	VINE	3	15	[0, 0, 0]	n/a	FR1	0	R1146E
2028.875	1.616	2106668	WORD	n/a	wordpools/wordpool_EN.txt	TENT	4	15	[0, 0, 0]	n/a	FR1	0	R1146E
2030.491	0.967	2108284	WORD_OFF	n/a	n/a	TENT	4	15	[0, 0, 0]	n/a	FR1	0	R1146E
2031.458	1.616	2109251	WORD	n/a	wordpools/wordpool_EN.txt	BEAN	5	15	[0, 0, 0]	n/a	FR1	0	R1146E
2033.074	0.918	2110867	WORD_OFF	n/a	n/a	BEAN	5	15	[0, 0, 0]	n/a	FR1	0	R1146E
2033.992	1.617	2111785	WORD	n/a	wordpools/wordpool_EN.txt	BROOM	6	15	[0, 0, 0]	n/a	FR1	0	R1146E
2035.609	0.95	2113402	WORD_OFF	n/a	n/a	BROOM	6	15	[0, 0, 0]	n/a	FR1	0	R1146E
2036.559	1.616	2114352	WORD	n/a	wordpools/wordpool_EN.txt	JAR	7	15	[0, 0, 0]	n/a	FR1	0	R1146E
2038.175	0.984	2115968	WORD_OFF	n/a	n/a	JAR	7	15	[0, 0, 0]	n/a	FR1	0	R1146E
2039.159	1.618	2116952	WORD	n/a	wordpools/wordpool_EN.txt	WALL	8	15	[0, 0, 0]	n/a	FR1	0	R1146E
2040.777	1.0	2118570	WORD_OFF	n/a	n/a	WALL	8	15	[0, 0, 0]	n/a	FR1	0	R1146E
2041.777	1.617	2119570	WORD	n/a	wordpools/wordpool_EN.txt	LAMP	9	15	[0, 0, 0]	n/a	FR1	0	R1146E
2043.394	0.917	2121187	WORD_OFF	n/a	n/a	LAMP	9	15	[0, 0, 0]	n/a	FR1	0	R1146E
2044.311	1.617	2122104	WORD	n/a	wordpools/wordpool_EN.txt	RUG	10	15	[0, 0, 0]	n/a	FR1	0	R1146E
2045.928	0.833	2123721	WORD_OFF	n/a	n/a	RUG	10	15	[0, 0, 0]	n/a	FR1	0	R1146E
2046.761	1.617	2124554	WORD	n/a	wordpools/wordpool_EN.txt	APE	11	15	[0, 0, 0]	n/a	FR1	0	R1146E
2048.378	0.832	2126170	WORD_OFF	n/a	n/a	APE	11	15	[0, 0, 0]	n/a	FR1	0	R1146E
2049.21	1.601	2127002	WORD	n/a	wordpools/wordpool_EN.txt	SOAP	12	15	[0, 0, 0]	n/a	FR1	0	R1146E
2050.811	0.0	2128603	WORD_OFF	n/a	n/a	SOAP	12	15	[0, 0, 0]	n/a	FR1	0	R1146E
2050.811	0.001	2128603	DISTRACT_START	n/a	n/a	n/a	-999	15	[0, 0, 0]	n/a	FR1	0	R1146E
2050.812	0.016	2128604	START	n/a	n/a	n/a	-999	15	[-999, -999, -999]	n/a	FR1	0	R1146E
2050.828	4.951	2128620	PROB	4.951	n/a	n/a	-999	15	[8, 5, 5]	18	FR1	0	R1146E
2055.779	7.918	2133571	PROB	7.918	n/a	n/a	-999	15	[3, 9, 5]	17	FR1	0	R1146E
2063.697	5.151	2141489	PROB	5.151	n/a	n/a	-999	15	[6, 1, 2]	9	FR1	0	R1146E
2068.848	3.874	2146640	PROB	3.874	n/a	n/a	-999	15	[1, 7, 7]	15	FR1	0	R1146E
2072.722	0.01	2150513	STOP	n/a	n/a	n/a	-999	15	[-999, -999, -999]	n/a	FR1	0	R1146E
2072.732	0.667	2150523	DISTRACT_END	n/a	n/a	n/a	-999	15	[0, 0, 0]	n/a	FR1	0	R1146E
2073.399	0.517	2151190	RETRIEVAL_ORIENT	n/a	n/a	n/a	-999	15	[0, 0, 0]	n/a	FR1	0	R1146E
2073.916	5.461	2151707	REC_START	n/a	n/a	n/a	-999	15	[0, 0, 0]	n/a	FR1	0	R1146E
2079.377	2.776	2157168	REC_WORD	2.776	n/a	ROOT	-999	15	[0, 0, 0]	n/a	FR1	0	R1146E
2082.153	2.192	2159944	REC_WORD_VV	2.192	n/a	<>	-999	15	[0, 0, 0]	n/a	FR1	0	R1146E
2084.345	7.301	2162136	REC_WORD_VV	7.301	n/a	<>	-999	15	[0, 0, 0]	n/a	FR1	0	R1146E
2091.646	12.281	2169437	REC_WORD	12.281	n/a	APE	-999	15	[0, 0, 0]	n/a	FR1	0	R1146E
2103.927	16.097	2181717	REC_END	n/a	n/a	n/a	-999	15	[0, 0, 0]	n/a	FR1	0	R1146E
2120.024	0.5	2197814	TRIAL	n/a	n/a	n/a	-999	16	[0, 0, 0]	n/a	FR1	0	R1146E
2120.524	10.428	2198314	COUNTDOWN_START	n/a	n/a	n/a	-999	16	[0, 0, 0]	n/a	FR1	0	R1146E
2130.952	0.007	2208741	COUNTDOWN_END	n/a	n/a	n/a	-999	16	[0, 0, 0]	n/a	FR1	0	R1146E
2130.959	1.617	2208748	ORIENT	n/a	n/a	n/a	-999	16	[0, 0, 0]	n/a	FR1	0	R1146E
2132.576	2.251	2210365	ORIENT_OFF	n/a	n/a	n/a	-999	16	[0, 0, 0]	n/a	FR1	0	R1146E
2134.827	1.617	2212616	WORD	n/a	wordpools/wordpool_EN.txt	WOLF	1	16	[0, 0, 0]	n/a	FR1	0	R1146E
2136.444	0.815	2214233	WORD_OFF	n/a	n/a	WOLF	1	16	[0, 0, 0]	n/a	FR1	0	R1146E
2137.259	1.618	2215048	WORD	n/a	wordpools/wordpool_EN.txt	ROSE	2	16	[0, 0, 0]	n/a	FR1	0	R1146E
2138.877	0.934	2216666	WORD_OFF	n/a	n/a	ROSE	2	16	[0, 0, 0]	n/a	FR1	0	R1146E
2139.811	1.617	2217600	WORD	n/a	wordpools/wordpool_EN.txt	MULE	3	16	[0, 0, 0]	n/a	FR1	0	R1146E
2141.428	0.9	2219217	WORD_OFF	n/a	n/a	MULE	3	16	[0, 0, 0]	n/a	FR1	0	R1146E
2142.328	1.617	2220117	WORD	n/a	wordpools/wordpool_EN.txt	DITCH	4	16	[0, 0, 0]	n/a	FR1	0	R1146E
2143.945	0.817	2221734	WORD_OFF	n/a	n/a	DITCH	4	16	[0, 0, 0]	n/a	FR1	0	R1146E
2144.762	1.617	2222551	WORD	n/a	wordpools/wordpool_EN.txt	BUSH	5	16	[0, 0, 0]	n/a	FR1	0	R1146E
2146.379	0.799	2224167	WORD_OFF	n/a	n/a	BUSH	5	16	[0, 0, 0]	n/a	FR1	0	R1146E
2147.178	1.618	2224966	WORD	n/a	wordpools/wordpool_EN.txt	SKUNK	6	16	[0, 0, 0]	n/a	FR1	0	R1146E
2148.796	0.783	2226584	WORD_OFF	n/a	n/a	SKUNK	6	16	[0, 0, 0]	n/a	FR1	0	R1146E
2149.579	1.616	2227367	WORD	n/a	wordpools/wordpool_EN.txt	SWAMP	7	16	[0, 0, 0]	n/a	FR1	0	R1146E
2151.195	0.801	2228983	WORD_OFF	n/a	n/a	SWAMP	7	16	[0, 0, 0]	n/a	FR1	0	R1146E
2151.996	1.617	2229784	WORD	n/a	wordpools/wordpool_EN.txt	CALF	8	16	[0, 0, 0]	n/a	FR1	0	R1146E
2153.613	0.784	2231401	WORD_OFF	n/a	n/a	CALF	8	16	[0, 0, 0]	n/a	FR1	0	R1146E
2154.397	1.617	2232185	WORD	n/a	wordpools/wordpool_EN.txt	WAND	9	16	[0, 0, 0]	n/a	FR1	0	R1146E
2156.014	0.916	2233802	WORD_OFF	n/a	n/a	WAND	9	16	[0, 0, 0]	n/a	FR1	0	R1146E
2156.93	1.617	2234718	WORD	n/a	wordpools/wordpool_EN.txt	TAIL	10	16	[0, 0, 0]	n/a	FR1	0	R1146E
2158.547	0.851	2236335	WORD_OFF	n/a	n/a	TAIL	10	16	[0, 0, 0]	n/a	FR1	0	R1146E
2159.398	1.617	2237186	WORD	n/a	wordpools/wordpool_EN.txt	ROPE	11	16	[0, 0, 0]	n/a	FR1	0	R1146E
2161.015	0.816	2238803	WORD_OFF	n/a	n/a	ROPE	11	16	[0, 0, 0]	n/a	FR1	0	R1146E
2161.831	1.617	2239619	WORD	n/a	wordpools/wordpool_EN.txt	SPRING	12	16	[0, 0, 0]	n/a	FR1	0	R1146E
2163.448	0.0	2241236	WORD_OFF	n/a	n/a	SPRING	12	16	[0, 0, 0]	n/a	FR1	0	R1146E
2163.448	0.001	2241236	DISTRACT_START	n/a	n/a	n/a	-999	16	[0, 0, 0]	n/a	FR1	0	R1146E
2163.449	0.016	2241237	START	n/a	n/a	n/a	-999	16	[-999, -999, -999]	n/a	FR1	0	R1146E
2163.465	9.918	2241253	PROB	9.918	n/a	n/a	-999	16	[7, 8, 2]	17	FR1	0	R1146E
2173.383	6.118	2251170	PROB	6.118	n/a	n/a	-999	16	[9, 9, 4]	22	FR1	0	R1146E
2179.501	5.998	2257288	PROB	5.998	n/a	n/a	-999	16	[3, 7, 1]	11	FR1	0	R1146E
2185.499	0.02	2263286	STOP	n/a	n/a	n/a	-999	16	[-999, -999, -999]	n/a	FR1	0	R1146E
2185.519	0.632	2263306	DISTRACT_END	n/a	n/a	n/a	-999	16	[0, 0, 0]	n/a	FR1	0	R1146E
2186.151	0.519	2263938	RETRIEVAL_ORIENT	n/a	n/a	n/a	-999	16	[0, 0, 0]	n/a	FR1	0	R1146E
2186.67	6.126	2264457	REC_START	n/a	n/a	n/a	-999	16	[0, 0, 0]	n/a	FR1	0	R1146E
2192.796	23.886	2270583	REC_WORD_VV	23.886	n/a	<>	-999	16	[0, 0, 0]	n/a	FR1	0	R1146E
2216.682	27.297	2294468	REC_END	n/a	n/a	n/a	-999	16	[0, 0, 0]	n/a	FR1	0	R1146E
2243.979	0.5	2321764	TRIAL	n/a	n/a	n/a	-999	17	[0, 0, 0]	n/a	FR1	0	R1146E
2244.479	10.428	2322264	COUNTDOWN_START	n/a	n/a	n/a	-999	17	[0, 0, 0]	n/a	FR1	0	R1146E
2254.907	0.008	2332691	COUNTDOWN_END	n/a	n/a	n/a	-999	17	[0, 0, 0]	n/a	FR1	0	R1146E
2254.915	1.616	2332699	ORIENT	n/a	n/a	n/a	-999	17	[0, 0, 0]	n/a	FR1	0	R1146E
2256.531	1.951	2334315	ORIENT_OFF	n/a	n/a	n/a	-999	17	[0, 0, 0]	n/a	FR1	0	R1146E
2258.482	1.616	2336266	WORD	n/a	wordpools/wordpool_EN.txt	THUMB	1	17	[0, 0, 0]	n/a	FR1	0	R1146E
2260.098	0.983	2337882	WORD_OFF	n/a	n/a	THUMB	1	17	[0, 0, 0]	n/a	FR1	0	R1146E
2261.081	1.618	2338865	WORD	n/a	wordpools/wordpool_EN.txt	YARD	2	17	[0, 0, 0]	n/a	FR1	0	R1146E
2262.699	0.9	2340483	WORD_OFF	n/a	n/a	YARD	2	17	[0, 0, 0]	n/a	FR1	0	R1146E
2263.599	1.616	2341383	WORD	n/a	wordpools/wordpool_EN.txt	MUD	3	17	[0, 0, 0]	n/a	FR1	0	R1146E
2265.215	0.85	2342999	WORD_OFF	n/a	n/a	MUD	3	17	[0, 0, 0]	n/a	FR1	0	R1146E
2266.065	1.618	2343849	WORD	n/a	wordpools/wordpool_EN.txt	NOSE	4	17	[0, 0, 0]	n/a	FR1	0	R1146E
2267.683	0.951	2345467	WORD_OFF	n/a	n/a	NOSE	4	17	[0, 0, 0]	n/a	FR1	0	R1146E
2268.634	1.616	2346418	WORD	n/a	wordpools/wordpool_EN.txt	TEETH	5	17	[0, 0, 0]	n/a	FR1	0	R1146E
2270.25	0.784	2348033	WORD_OFF	n/a	n/a	TEETH	5	17	[0, 0, 0]	n/a	FR1	0	R1146E
2271.034	1.617	2348817	WORD	n/a	wordpools/wordpool_EN.txt	PURSE	6	17	[0, 0, 0]	n/a	FR1	0	R1146E
2272.651	0.867	2350434	WORD_OFF	n/a	n/a	PURSE	6	17	[0, 0, 0]	n/a	FR1	0	R1146E
2273.518	1.616	2351301	WORD	n/a	wordpools/wordpool_EN.txt	SLIME	7	17	[0, 0, 0]	n/a	FR1	0	R1146E
2275.134	0.818	2352917	WORD_OFF	n/a	n/a	SLIME	7	17	[0, 0, 0]	n/a	FR1	0	R1146E
2275.952	1.617	2353735	WORD	n/a	wordpools/wordpool_EN.txt	STRAW	8	17	[0, 0, 0]	n/a	FR1	0	R1146E
2277.569	0.816	2355352	WORD_OFF	n/a	n/a	STRAW	8	17	[0, 0, 0]	n/a	FR1	0	R1146E
2278.385	1.617	2356168	WORD	n/a	wordpools/wordpool_EN.txt	FAN	9	17	[0, 0, 0]	n/a	FR1	0	R1146E
2280.002	1.0	2357785	WORD_OFF	n/a	n/a	FAN	9	17	[0, 0, 0]	n/a	FR1	0	R1146E
2281.002	1.617	2358785	WORD	n/a	wordpools/wordpool_EN.txt	STRING	10	17	[0, 0, 0]	n/a	FR1	0	R1146E
2282.619	0.951	2360402	WORD_OFF	n/a	n/a	STRING	10	17	[0, 0, 0]	n/a	FR1	0	R1146E
2283.57	1.616	2361353	WORD	n/a	wordpools/wordpool_EN.txt	BOOT	11	17	[0, 0, 0]	n/a	FR1	0	R1146E
2285.186	0.916	2362969	WORD_OFF	n/a	n/a	BOOT	11	17	[0, 0, 0]	n/a	FR1	0	R1146E
2286.102	1.601	2363885	WORD	n/a	wordpools/wordpool_EN.txt	PASTE	12	17	[0, 0, 0]	n/a	FR1	0	R1146E
2287.703	0.0	2365486	WORD_OFF	n/a	n/a	PASTE	12	17	[0, 0, 0]	n/a	FR1	0	R1146E
2287.703	0.001	2365486	DISTRACT_START	n/a	n/a	n/a	-999	17	[0, 0, 0]	n/a	FR1	0	R1146E
2287.704	0.016	2365487	START	n/a	n/a	n/a	-999	17	[-999, -999, -999]	n/a	FR1	0	R1146E
2287.72	4.417	2365503	PROB	4.417	n/a	n/a	-999	17	[3, 1, 4]	8	FR1	0	R1146E
2292.137	15.537	2369920	PROB	15.537	n/a	n/a	-999	17	[6, 7, 8]	21	FR1	0	R1146E
2307.674	8.747	2385456	PROB	8.747	n/a	n/a	-999	17	[2, 3, 7]	12	FR1	0	R1146E
2316.421	0.021	2394203	STOP	n/a	n/a	n/a	-999	17	[-999, -999, -999]	n/a	FR1	0	R1146E
2316.442	0.533	2394224	DISTRACT_END	n/a	n/a	n/a	-999	17	[0, 0, 0]	n/a	FR1	0	R1146E
2316.975	0.518	2394757	RETRIEVAL_ORIENT	n/a	n/a	n/a	-999	17	[0, 0, 0]	n/a	FR1	0	R1146E
2317.493	5.128	2395275	REC_START	n/a	n/a	n/a	-999	17	[0, 0, 0]	n/a	FR1	0	R1146E
2322.621	1.99	2400402	REC_WORD	1.99	n/a	THUMB	-999	17	[0, 0, 0]	n/a	FR1	0	R1146E
2324.611	4.571	2402392	REC_WORD_VV	4.571	n/a	<>	-999	17	[0, 0, 0]	n/a	FR1	0	R1146E
2329.182	18.322	2406963	REC_WORD_VV	18.322	n/a	<>	-999	17	[0, 0, 0]	n/a	FR1	0	R1146E
2347.504	48.684	2425284	REC_END	n/a	n/a	n/a	-999	17	[0, 0, 0]	n/a	FR1	0	R1146E
2396.188	0.5	2473966	TRIAL	n/a	n/a	n/a	-999	18	[0, 0, 0]	n/a	FR1	0	R1146E
2396.688	10.428	2474466	COUNTDOWN_START	n/a	n/a	n/a	-999	18	[0, 0, 0]	n/a	FR1	0	R1146E
2407.116	0.008	2484894	COUNTDOWN_END	n/a	n/a	n/a	-999	18	[0, 0, 0]	n/a	FR1	0	R1146E
2407.124	1.618	2484902	ORIENT	n/a	n/a	n/a	-999	18	[0, 0, 0]	n/a	FR1	0	R1146E
2408.742	2.332	2486520	ORIENT_OFF	n/a	n/a	n/a	-999	18	[0, 0, 0]	n/a	FR1	0	R1146E
2411.074	1.601	2488852	WORD	n/a	wordpools/wordpool_EN.txt	DOOR	1	18	[0, 0, 0]	n/a	FR1	0	R1146E
2412.675	0.918	2490453	WORD_OFF	n/a	n/a	DOOR	1	18	[0, 0, 0]	n/a	FR1	0	R1146E
2413.593	1.615	2491371	WORD	n/a	wordpools/wordpool_EN.txt	SUIT	2	18	[0, 0, 0]	n/a	FR1	0	R1146E
2415.208	0.884	2492986	WORD_OFF	n/a	n/a	SUIT	2	18	[0, 0, 0]	n/a	FR1	0	R1146E
2416.092	1.618	2493870	WORD	n/a	wordpools/wordpool_EN.txt	BENCH	3	18	[0, 0, 0]	n/a	FR1	0	R1146E
2417.71	0.883	2495487	WORD_OFF	n/a	n/a	BENCH	3	18	[0, 0, 0]	n/a	FR1	0	R1146E
2418.593	1.616	2496370	WORD	n/a	wordpools/wordpool_EN.txt	PANTS	4	18	[0, 0, 0]	n/a	FR1	0	R1146E
2420.209	0.884	2497986	WORD_OFF	n/a	n/a	PANTS	4	18	[0, 0, 0]	n/a	FR1	0	R1146E
2421.093	1.618	2498870	WORD	n/a	wordpools/wordpool_EN.txt	DRESS	5	18	[0, 0, 0]	n/a	FR1	0	R1146E
2422.711	0.783	2500488	WORD_OFF	n/a	n/a	DRESS	5	18	[0, 0, 0]	n/a	FR1	0	R1146E
2423.494	1.616	2501271	WORD	n/a	wordpools/wordpool_EN.txt	FACE	6	18	[0, 0, 0]	n/a	FR1	0	R1146E
2425.11	0.851	2502887	WORD_OFF	n/a	n/a	FACE	6	18	[0, 0, 0]	n/a	FR1	0	R1146E
2425.961	1.617	2503738	WORD	n/a	wordpools/wordpool_EN.txt	PEA	7	18	[0, 0, 0]	n/a	FR1	0	R1146E
2427.578	0.834	2505355	WORD_OFF	n/a	n/a	PEA	7	18	[0, 0, 0]	n/a	FR1	0	R1146E
2428.412	1.617	2506189	WORD	n/a	wordpools/wordpool_EN.txt	CHEEK	8	18	[0, 0, 0]	n/a	FR1	0	R1146E
2430.029	0.917	2507806	WORD_OFF	n/a	n/a	CHEEK	8	18	[0, 0, 0]	n/a	FR1	0	R1146E
2430.946	1.617	2508723	WORD	n/a	wordpools/wordpool_EN.txt	MAT	9	18	[0, 0, 0]	n/a	FR1	0	R1146E
2432.563	0.933	2510340	WORD_OFF	n/a	n/a	MAT	9	18	[0, 0, 0]	n/a	FR1	0	R1146E
2433.496	1.616	2511273	WORD	n/a	wordpools/wordpool_EN.txt	SHOE	10	18	[0, 0, 0]	n/a	FR1	0	R1146E
2435.112	0.884	2512889	WORD_OFF	n/a	n/a	SHOE	10	18	[0, 0, 0]	n/a	FR1	0	R1146E
2435.996	1.617	2513773	WORD	n/a	wordpools/wordpool_EN.txt	TRAY	11	18	[0, 0, 0]	n/a	FR1	0	R1146E
2437.613	0.901	2515390	WORD_OFF	n/a	n/a	TRAY	11	18	[0, 0, 0]	n/a	FR1	0	R1146E
2438.514	1.616	2516291	WORD	n/a	wordpools/wordpool_EN.txt	PALM	12	18	[0, 0, 0]	n/a	FR1	0	R1146E
2440.13	0.0	2517907	WORD_OFF	n/a	n/a	PALM	12	18	[0, 0, 0]	n/a	FR1	0	R1146E
2440.13	0.0	2517907	DISTRACT_START	n/a	n/a	n/a	-999	18	[0, 0, 0]	n/a	FR1	0	R1146E
2440.13	0.016	2517907	START	n/a	n/a	n/a	-999	18	[-999, -999, -999]	n/a	FR1	0	R1146E
2440.146	12.52	2517923	PROB	12.52	n/a	n/a	-999	18	[2, 8, 7]	17	FR1	0	R1146E
2452.666	4.168	2530442	PROB	4.168	n/a	n/a	-999	18	[9, 1, 7]	17	FR1	0	R1146E
2456.834	6.141	2534610	PROB	6.141	n/a	n/a	-999	18	[7, 1, 4]	12	FR1	0	R1146E
2462.975	0.01	2540751	STOP	n/a	n/a	n/a	-999	18	[-999, -999, -999]	n/a	FR1	0	R1146E
2462.985	0.533	2540761	DISTRACT_END	n/a	n/a	n/a	-999	18	[0, 0, 0]	n/a	FR1	0	R1146E
2463.518	0.517	2541294	RETRIEVAL_ORIENT	n/a	n/a	n/a	-999	18	[0, 0, 0]	n/a	FR1	0	R1146E
2464.035	5.459	2541811	REC_START	n/a	n/a	n/a	-999	18	[0, 0, 0]	n/a	FR1	0	R1146E
2469.494	4.235	2547269	REC_WORD	4.235	n/a	SHOE	-999	18	[0, 0, 0]	n/a	FR1	0	R1146E
2473.729	20.318	2551504	REC_WORD	20.318	n/a	FACE	-999	18	[0, 0, 0]	n/a	FR1	0	R1146E
2494.047	19.697	2571821	REC_END	n/a	n/a	n/a	-999	18	[0, 0, 0]	n/a	FR1	0	R1146E
2513.744	0.5	2591518	TRIAL	n/a	n/a	n/a	-999	19	[0, 0, 0]	n/a	FR1	0	R1146E
2514.244	10.428	2592018	COUNTDOWN_START	n/a	n/a	n/a	-999	19	[0, 0, 0]	n/a	FR1	0	R1146E
2524.672	0.007	2602445	COUNTDOWN_END	n/a	n/a	n/a	-999	19	[0, 0, 0]	n/a	FR1	0	R1146E
2524.679	1.617	2602452	ORIENT	n/a	n/a	n/a	-999	19	[0, 0, 0]	n/a	FR1	0	R1146E
2526.296	2.017	2604069	ORIENT_OFF	n/a	n/a	n/a	-999	19	[0, 0, 0]	n/a	FR1	0	R1146E
2528.313	1.617	2606086	WORD	n/a	wordpools/wordpool_EN.txt	BLUSH	1	19	[0, 0, 0]	n/a	FR1	0	R1146E
2529.93	0.783	2607703	WORD_OFF	n/a	n/a	BLUSH	1	19	[0, 0, 0]	n/a	FR1	0	R1146E
2530.713	1.617	2608486	WORD	n/a	wordpools/wordpool_EN.txt	GEESE	2	19	[0, 0, 0]	n/a	FR1	0	R1146E
2532.33	0.967	2610103	WORD_OFF	n/a	n/a	GEESE	2	19	[0, 0, 0]	n/a	FR1	0	R1146E
2533.297	1.617	2611070	WORD	n/a	wordpools/wordpool_EN.txt	ZOO	3	19	[0, 0, 0]	n/a	FR1	0	R1146E
2534.914	0.917	2612687	WORD_OFF	n/a	n/a	ZOO	3	19	[0, 0, 0]	n/a	FR1	0	R1146E
2535.831	1.617	2613604	WORD	n/a	wordpools/wordpool_EN.txt	DRUM	4	19	[0, 0, 0]	n/a	FR1	0	R1146E
2537.448	0.782	2615221	WORD_OFF	n/a	n/a	DRUM	4	19	[0, 0, 0]	n/a	FR1	0	R1146E
2538.23	1.601	2616003	WORD	n/a	wordpools/wordpool_EN.txt	VAN	5	19	[0, 0, 0]	n/a	FR1	0	R1146E
2539.831	0.984	2617604	WORD_OFF	n/a	n/a	VAN	5	19	[0, 0, 0]	n/a	FR1	0	R1146E
2540.815	1.617	2618588	WORD	n/a	wordpools/wordpool_EN.txt	EAR	6	19	[0, 0, 0]	n/a	FR1	0	R1146E
2542.432	0.934	2620204	WORD_OFF	n/a	n/a	EAR	6	19	[0, 0, 0]	n/a	FR1	0	R1146E
2543.366	1.616	2621138	WORD	n/a	wordpools/wordpool_EN.txt	BADGE	7	19	[0, 0, 0]	n/a	FR1	0	R1146E
2544.982	0.934	2622754	WORD_OFF	n/a	n/a	BADGE	7	19	[0, 0, 0]	n/a	FR1	0	R1146E
2545.916	1.617	2623688	WORD	n/a	wordpools/wordpool_EN.txt	CRANE	8	19	[0, 0, 0]	n/a	FR1	0	R1146E
2547.533	0.95	2625305	WORD_OFF	n/a	n/a	CRANE	8	19	[0, 0, 0]	n/a	FR1	0	R1146E
2548.483	1.616	2626255	WORD	n/a	wordpools/wordpool_EN.txt	SNOW	9	19	[0, 0, 0]	n/a	FR1	0	R1146E
2550.099	1.0	2627871	WORD_OFF	n/a	n/a	SNOW	9	19	[0, 0, 0]	n/a	FR1	0	R1146E
2551.099	1.618	2628871	WORD	n/a	wordpools/wordpool_EN.txt	DUCK	10	19	[0, 0, 0]	n/a	FR1	0	R1146E
2552.717	0.834	2630489	WORD_OFF	n/a	n/a	DUCK	10	19	[0, 0, 0]	n/a	FR1	0	R1146E
2553.551	1.616	2631323	WORD	n/a	wordpools/wordpool_EN.txt	PARK	11	19	[0, 0, 0]	n/a	FR1	0	R1146E
2555.167	0.834	2632939	WORD_OFF	n/a	n/a	PARK	11	19	[0, 0, 0]	n/a	FR1	0	R1146E
2556.001	1.617	2633773	WORD	n/a	wordpools/wordpool_EN.txt	FLAG	12	19	[0, 0, 0]	n/a	FR1	0	R1146E
2557.618	0.0	2635390	WORD_OFF	n/a	n/a	FLAG	12	19	[0, 0, 0]	n/a	FR1	0	R1146E
2557.618	0.001	2635390	DISTRACT_START	n/a	n/a	n/a	-999	19	[0, 0, 0]	n/a	FR1	0	R1146E
2557.619	0.016	2635391	START	n/a	n/a	n/a	-999	19	[-999, -999, -999]	n/a	FR1	0	R1146E
2557.635	7.234	2635407	PROB	7.234	n/a	n/a	-999	19	[7, 9, 5]	21	FR1	0	R1146E
2564.869	10.852	2642641	PROB	10.852	n/a	n/a	-999	19	[5, 2, 9]	16	FR1	0	R1146E
2575.721	5.677	2653492	PROB	5.677	n/a	n/a	-999	19	[4, 2, 6]	12	FR1	0	R1146E
2581.398	0.008	2659169	STOP	n/a	n/a	n/a	-999	19	[-999, -999, -999]	n/a	FR1	0	R1146E
2581.406	0.682	2659177	DISTRACT_END	n/a	n/a	n/a	-999	19	[0, 0, 0]	n/a	FR1	0	R1146E
2582.088	0.518	2659859	RETRIEVAL_ORIENT	n/a	n/a	n/a	-999	19	[0, 0, 0]	n/a	FR1	0	R1146E
2582.606	14.24	2660377	REC_START	n/a	n/a	n/a	-999	19	[0, 0, 0]	n/a	FR1	0	R1146E
2596.846	15.773	2674616	REC_WORD	15.773	n/a	DRUM	-999	19	[0, 0, 0]	n/a	FR1	0	R1146E
2612.619	22.662	2690389	REC_END	n/a	n/a	n/a	-999	19	[0, 0, 0]	n/a	FR1	0	R1146E
2635.281	0.5	2713050	TRIAL	n/a	n/a	n/a	-999	20	[0, 0, 0]	n/a	FR1	0	R1146E
2635.781	10.428	2713550	COUNTDOWN_START	n/a	n/a	n/a	-999	20	[0, 0, 0]	n/a	FR1	0	R1146E
2646.209	0.007	2723977	COUNTDOWN_END	n/a	n/a	n/a	-999	20	[0, 0, 0]	n/a	FR1	0	R1146E
2646.216	1.618	2723984	ORIENT	n/a	n/a	n/a	-999	20	[0, 0, 0]	n/a	FR1	0	R1146E
2647.834	2.134	2725602	ORIENT_OFF	n/a	n/a	n/a	-999	20	[0, 0, 0]	n/a	FR1	0	R1146E
2649.968	1.617	2727736	WORD	n/a	wordpools/wordpool_EN.txt	CLAY	1	20	[0, 0, 0]	n/a	FR1	0	R1146E
2651.585	0.833	2729353	WORD_OFF	n/a	n/a	CLAY	1	20	[0, 0, 0]	n/a	FR1	0	R1146E
2652.418	1.617	2730186	WORD	n/a	wordpools/wordpool_EN.txt	DOCK	2	20	[0, 0, 0]	n/a	FR1	0	R1146E
2654.035	0.95	2731803	WORD_OFF	n/a	n/a	DOCK	2	20	[0, 0, 0]	n/a	FR1	0	R1146E
2654.985	1.617	2732753	WORD	n/a	wordpools/wordpool_EN.txt	PIT	3	20	[0, 0, 0]	n/a	FR1	0	R1146E
2656.602	0.834	2734370	WORD_OFF	n/a	n/a	PIT	3	20	[0, 0, 0]	n/a	FR1	0	R1146E
2657.436	1.617	2735204	WORD	n/a	wordpools/wordpool_EN.txt	PIPE	4	20	[0, 0, 0]	n/a	FR1	0	R1146E
2659.053	0.95	2736821	WORD_OFF	n/a	n/a	PIPE	4	20	[0, 0, 0]	n/a	FR1	0	R1146E
2660.003	1.617	2737771	WORD	n/a	wordpools/wordpool_EN.txt	HOSE	5	20	[0, 0, 0]	n/a	FR1	0	R1146E
2661.62	0.85	2739388	WORD_OFF	n/a	n/a	HOSE	5	20	[0, 0, 0]	n/a	FR1	0	R1146E
2662.47	1.616	2740238	WORD	n/a	wordpools/wordpool_EN.txt	NAIL	6	20	[0, 0, 0]	n/a	FR1	0	R1146E
2664.086	0.884	2741854	WORD_OFF	n/a	n/a	NAIL	6	20	[0, 0, 0]	n/a	FR1	0	R1146E
2664.97	1.617	2742737	WORD	n/a	wordpools/wordpool_EN.txt	SQUARE	7	20	[0, 0, 0]	n/a	FR1	0	R1146E
2666.587	0.934	2744354	WORD_OFF	n/a	n/a	SQUARE	7	20	[0, 0, 0]	n/a	FR1	0	R1146E
2667.521	1.616	2745288	WORD	n/a	wordpools/wordpool_EN.txt	STONE	8	20	[0, 0, 0]	n/a	FR1	0	R1146E
2669.137	0.834	2746904	WORD_OFF	n/a	n/a	STONE	8	20	[0, 0, 0]	n/a	FR1	0	R1146E
2669.971	1.617	2747738	WORD	n/a	wordpools/wordpool_EN.txt	GUARD	9	20	[0, 0, 0]	n/a	FR1	0	R1146E
2671.588	0.834	2749355	WORD_OFF	n/a	n/a	GUARD	9	20	[0, 0, 0]	n/a	FR1	0	R1146E
2672.422	1.617	2750189	WORD	n/a	wordpools/wordpool_EN.txt	TOOL	10	20	[0, 0, 0]	n/a	FR1	0	R1146E
2674.039	0.816	2751806	WORD_OFF	n/a	n/a	TOOL	10	20	[0, 0, 0]	n/a	FR1	0	R1146E
2674.855	1.617	2752622	WORD	n/a	wordpools/wordpool_EN.txt	CUBE	11	20	[0, 0, 0]	n/a	FR1	0	R1146E
2676.472	0.967	2754239	WORD_OFF	n/a	n/a	CUBE	11	20	[0, 0, 0]	n/a	FR1	0	R1146E
2677.439	1.616	2755206	WORD	n/a	wordpools/wordpool_EN.txt	BRICK	12	20	[0, 0, 0]	n/a	FR1	0	R1146E
2679.055	0.0	2756822	WORD_OFF	n/a	n/a	BRICK	12	20	[0, 0, 0]	n/a	FR1	0	R1146E
2679.055	0.001	2756822	DISTRACT_START	n/a	n/a	n/a	-999	20	[0, 0, 0]	n/a	FR1	0	R1146E
2679.056	0.016	2756823	START	n/a	n/a	n/a	-999	20	[-999, -999, -999]	n/a	FR1	0	R1146E
2679.072	5.835	2756839	PROB	5.835	n/a	n/a	-999	20	[3, 3, 7]	13	FR1	0	R1146E
2684.907	5.118	2762674	PROB	5.118	n/a	n/a	-999	20	[9, 7, 1]	17	FR1	0	R1146E
2690.025	6.584	2767791	PROB	6.584	n/a	n/a	-999	20	[1, 2, 7]	10	FR1	0	R1146E
2696.609	6.21	2774375	PROB	6.21	n/a	n/a	-999	20	[7, 7, 5]	19	FR1	0	R1146E
2702.819	0.008	2780585	STOP	n/a	n/a	n/a	-999	20	[-999, -999, -999]	n/a	FR1	0	R1146E
2702.827	0.7	2780593	DISTRACT_END	n/a	n/a	n/a	-999	20	[0, 0, 0]	n/a	FR1	0	R1146E
2703.527	0.518	2781293	RETRIEVAL_ORIENT	n/a	n/a	n/a	-999	20	[0, 0, 0]	n/a	FR1	0	R1146E
2704.045	0.815	2781811	REC_START	n/a	n/a	n/a	-999	20	[0, 0, 0]	n/a	FR1	0	R1146E
2704.86	5.296	2782626	REC_WORD	5.296	n/a	DOCK	-999	20	[0, 0, 0]	n/a	FR1	0	R1146E
2710.156	23.898	2787922	REC_WORD	23.898	n/a	PIT	-999	20	[0, 0, 0]	n/a	FR1	0	R1146E
2734.054	20.048	2811819	REC_END	n/a	n/a	n/a	-999	20	[0, 0, 0]	n/a	FR1	0	R1146E
2754.102	0.5	2831866	TRIAL	n/a	n/a	n/a	-999	21	[0, 0, 0]	n/a	FR1	0	R1146E
2754.602	10.428	2832366	COUNTDOWN_START	n/a	n/a	n/a	-999	21	[0, 0, 0]	n/a	FR1	0	R1146E
2765.03	0.008	2842793	COUNTDOWN_END	n/a	n/a	n/a	-999	21	[0, 0, 0]	n/a	FR1	0	R1146E
2765.038	1.617	2842801	ORIENT	n/a	n/a	n/a	-999	21	[0, 0, 0]	n/a	FR1	0	R1146E
2766.655	1.984	2844418	ORIENT_OFF	n/a	n/a	n/a	-999	21	[0, 0, 0]	n/a	FR1	0	R1146E
2768.639	1.616	2846402	WORD	n/a	wordpools/wordpool_EN.txt	OWL	1	21	[0, 0, 0]	n/a	FR1	0	R1146E
2770.255	0.784	2848018	WORD_OFF	n/a	n/a	OWL	1	21	[0, 0, 0]	n/a	FR1	0	R1146E
2771.039	1.617	2848802	WORD	n/a	wordpools/wordpool_EN.txt	HILL	2	21	[0, 0, 0]	n/a	FR1	0	R1146E
2772.656	0.95	2850419	WORD_OFF	n/a	n/a	HILL	2	21	[0, 0, 0]	n/a	FR1	0	R1146E
2773.606	1.616	2851369	WORD	n/a	wordpools/wordpool_EN.txt	SKY	3	21	[0, 0, 0]	n/a	FR1	0	R1146E
2775.222	0.917	2852985	WORD_OFF	n/a	n/a	SKY	3	21	[0, 0, 0]	n/a	FR1	0	R1146E
2776.139	1.618	2853902	WORD	n/a	wordpools/wordpool_EN.txt	GOAT	4	21	[0, 0, 0]	n/a	FR1	0	R1146E
2777.757	0.784	2855520	WORD_OFF	n/a	n/a	GOAT	4	21	[0, 0, 0]	n/a	FR1	0	R1146E
2778.541	1.615	2856304	WORD	n/a	wordpools/wordpool_EN.txt	POND	5	21	[0, 0, 0]	n/a	FR1	0	R1146E
2780.156	0.835	2857919	WORD_OFF	n/a	n/a	POND	5	21	[0, 0, 0]	n/a	FR1	0	R1146E
2780.991	1.617	2858754	WORD	n/a	wordpools/wordpool_EN.txt	CLOUD	6	21	[0, 0, 0]	n/a	FR1	0	R1146E
2782.608	0.883	2860371	WORD_OFF	n/a	n/a	CLOUD	6	21	[0, 0, 0]	n/a	FR1	0	R1146E
2783.491	1.616	2861254	WORD	n/a	wordpools/wordpool_EN.txt	HAWK	7	21	[0, 0, 0]	n/a	FR1	0	R1146E
2785.107	0.818	2862870	WORD_OFF	n/a	n/a	HAWK	7	21	[0, 0, 0]	n/a	FR1	0	R1146E
2785.925	1.617	2863688	WORD	n/a	wordpools/wordpool_EN.txt	HOUSE	8	21	[0, 0, 0]	n/a	FR1	0	R1146E
2787.542	0.817	2865305	WORD_OFF	n/a	n/a	HOUSE	8	21	[0, 0, 0]	n/a	FR1	0	R1146E
2788.359	1.617	2866122	WORD	n/a	wordpools/wordpool_EN.txt	FROG	9	21	[0, 0, 0]	n/a	FR1	0	R1146E
2789.976	0.983	2867738	WORD_OFF	n/a	n/a	FROG	9	21	[0, 0, 0]	n/a	FR1	0	R1146E
2790.959	1.617	2868721	WORD	n/a	wordpools/wordpool_EN.txt	NEST	10	21	[0, 0, 0]	n/a	FR1	0	R1146E
2792.576	0.834	2870338	WORD_OFF	n/a	n/a	NEST	10	21	[0, 0, 0]	n/a	FR1	0	R1146E
2793.41	1.617	2871172	WORD	n/a	wordpools/wordpool_EN.txt	VEST	11	21	[0, 0, 0]	n/a	FR1	0	R1146E
2795.027	0.967	2872789	WORD_OFF	n/a	n/a	VEST	11	21	[0, 0, 0]	n/a	FR1	0	R1146E
2795.994	1.617	2873756	WORD	n/a	wordpools/wordpool_EN.txt	BARN	12	21	[0, 0, 0]	n/a	FR1	0	R1146E
2797.611	0.0	2875373	WORD_OFF	n/a	n/a	BARN	12	21	[0, 0, 0]	n/a	FR1	0	R1146E
2797.611	0.0	2875373	DISTRACT_START	n/a	n/a	n/a	-999	21	[0, 0, 0]	n/a	FR1	0	R1146E
2797.611	0.016	2875373	START	n/a	n/a	n/a	-999	21	[-999, -999, -999]	n/a	FR1	0	R1146E
2797.627	9.102	2875389	PROB	9.102	n/a	n/a	-999	21	[7, 3, 9]	19	FR1	0	R1146E
2806.729	4.634	2884491	PROB	4.634	n/a	n/a	-999	21	[1, 8, 1]	10	FR1	0	R1146E
2811.363	7.786	2889125	PROB	7.786	n/a	n/a	-999	21	[5, 2, 6]	13	FR1	0	R1146E
2819.149	0.014	2896910	STOP	n/a	n/a	n/a	-999	21	[-999, -999, -999]	n/a	FR1	0	R1146E
2819.163	0.551	2896924	DISTRACT_END	n/a	n/a	n/a	-999	21	[0, 0, 0]	n/a	FR1	0	R1146E
2819.714	0.517	2897475	RETRIEVAL_ORIENT	n/a	n/a	n/a	-999	21	[0, 0, 0]	n/a	FR1	0	R1146E
2820.231	1.609	2897992	REC_START	n/a	n/a	n/a	-999	21	[0, 0, 0]	n/a	FR1	0	R1146E
2821.84	0.927	2899601	REC_WORD	0.927	n/a	OWL	-999	21	[0, 0, 0]	n/a	FR1	0	R1146E
2822.767	1.58	2900528	REC_WORD	1.58	n/a	HAWK	-999	21	[0, 0, 0]	n/a	FR1	0	R1146E
2824.347	25.895	2902108	REC_WORD	25.895	n/a	NEST	-999	21	[0, 0, 0]	n/a	FR1	0	R1146E
2850.242	12.413	2928002	REC_END	n/a	n/a	n/a	-999	21	[0, 0, 0]	n/a	FR1	0	R1146E
2862.655	0.5	2940414	TRIAL	n/a	n/a	n/a	-999	22	[0, 0, 0]	n/a	FR1	0	R1146E
2863.155	10.428	2940914	COUNTDOWN_START	n/a	n/a	n/a	-999	22	[0, 0, 0]	n/a	FR1	0	R1146E
2873.583	0.008	2951342	COUNTDOWN_END	n/a	n/a	n/a	-999	22	[0, 0, 0]	n/a	FR1	0	R1146E
2873.591	1.616	2951350	ORIENT	n/a	n/a	n/a	-999	22	[0, 0, 0]	n/a	FR1	0	R1146E
2875.207	2.134	2952966	ORIENT_OFF	n/a	n/a	n/a	-999	22	[0, 0, 0]	n/a	FR1	0	R1146E
2877.341	1.617	2955100	WORD	n/a	wordpools/wordpool_EN.txt	BOAT	1	22	[0, 0, 0]	n/a	FR1	0	R1146E
2878.958	0.934	2956717	WORD_OFF	n/a	n/a	BOAT	1	22	[0, 0, 0]	n/a	FR1	0	R1146E
2879.892	1.617	2957651	WORD	n/a	wordpools/wordpool_EN.txt	ARM	2	22	[0, 0, 0]	n/a	FR1	0	R1146E
2881.509	0.916	2959268	WORD_OFF	n/a	n/a	ARM	2	22	[0, 0, 0]	n/a	FR1	0	R1146E
2882.425	1.617	2960184	WORD	n/a	wordpools/wordpool_EN.txt	TANK	3	22	[0, 0, 0]	n/a	FR1	0	R1146E
2884.042	0.934	2961801	WORD_OFF	n/a	n/a	TANK	3	22	[0, 0, 0]	n/a	FR1	0	R1146E
2884.976	1.617	2962735	WORD	n/a	wordpools/wordpool_EN.txt	NET	4	22	[0, 0, 0]	n/a	FR1	0	R1146E
2886.593	0.8	2964352	WORD_OFF	n/a	n/a	NET	4	22	[0, 0, 0]	n/a	FR1	0	R1146E
2887.393	1.617	2965151	WORD	n/a	wordpools/wordpool_EN.txt	SPONGE	5	22	[0, 0, 0]	n/a	FR1	0	R1146E
2889.01	0.784	2966768	WORD_OFF	n/a	n/a	SPONGE	5	22	[0, 0, 0]	n/a	FR1	0	R1146E
2889.794	1.616	2967552	WORD	n/a	wordpools/wordpool_EN.txt	BOY	6	22	[0, 0, 0]	n/a	FR1	0	R1146E
2891.41	0.816	2969168	WORD_OFF	n/a	n/a	BOY	6	22	[0, 0, 0]	n/a	FR1	0	R1146E
2892.226	1.618	2969984	WORD	n/a	wordpools/wordpool_EN.txt	SEA	7	22	[0, 0, 0]	n/a	FR1	0	R1146E
2893.844	0.8	2971602	WORD_OFF	n/a	n/a	SEA	7	22	[0, 0, 0]	n/a	FR1	0	R1146E
2894.644	1.616	2972402	WORD	n/a	wordpools/wordpool_EN.txt	PEARL	8	22	[0, 0, 0]	n/a	FR1	0	R1146E
2896.26	0.984	2974018	WORD_OFF	n/a	n/a	PEARL	8	22	[0, 0, 0]	n/a	FR1	0	R1146E
2897.244	1.601	2975002	WORD	n/a	wordpools/wordpool_EN.txt	BOARD	9	22	[0, 0, 0]	n/a	FR1	0	R1146E
2898.845	0.85	2976603	WORD_OFF	n/a	n/a	BOARD	9	22	[0, 0, 0]	n/a	FR1	0	R1146E
2899.695	1.617	2977453	WORD	n/a	wordpools/wordpool_EN.txt	SHIP	10	22	[0, 0, 0]	n/a	FR1	0	R1146E
2901.312	0.882	2979070	WORD_OFF	n/a	n/a	SHIP	10	22	[0, 0, 0]	n/a	FR1	0	R1146E
2902.194	1.602	2979952	WORD	n/a	wordpools/wordpool_EN.txt	TOY	11	22	[0, 0, 0]	n/a	FR1	0	R1146E
2903.796	0.967	2981554	WORD_OFF	n/a	n/a	TOY	11	22	[0, 0, 0]	n/a	FR1	0	R1146E
2904.763	1.617	2982521	WORD	n/a	wordpools/wordpool_EN.txt	GLOVE	12	22	[0, 0, 0]	n/a	FR1	0	R1146E
2906.38	0.0	2984138	WORD_OFF	n/a	n/a	GLOVE	12	22	[0, 0, 0]	n/a	FR1	0	R1146E
2906.38	0.0	2984138	DISTRACT_START	n/a	n/a	n/a	-999	22	[0, 0, 0]	n/a	FR1	0	R1146E
2906.38	0.016	2984138	START	n/a	n/a	n/a	-999	22	[-999, -999, -999]	n/a	FR1	0	R1146E
2906.396	5.201	2984154	PROB	5.201	n/a	n/a	-999	22	[3, 6, 1]	10	FR1	0	R1146E
2911.597	9.634	2989355	PROB	9.634	n/a	n/a	-999	22	[4, 8, 3]	15	FR1	0	R1146E
2921.231	5.86	2998988	PROB	5.86	n/a	n/a	-999	22	[2, 1, 8]	11	FR1	0	R1146E
2927.091	0.008	3004848	STOP	n/a	n/a	n/a	-999	22	[-999, -999, -999]	n/a	FR1	0	R1146E
2927.099	0.535	3004856	DISTRACT_END	n/a	n/a	n/a	-999	22	[0, 0, 0]	n/a	FR1	0	R1146E
2927.634	0.516	3005391	RETRIEVAL_ORIENT	n/a	n/a	n/a	-999	22	[0, 0, 0]	n/a	FR1	0	R1146E
2928.15	1.54	3005907	REC_START	n/a	n/a	n/a	-999	22	[0, 0, 0]	n/a	FR1	0	R1146E
2929.69	3.39	3007447	REC_WORD	3.39	n/a	BOY	-999	22	[0, 0, 0]	n/a	FR1	0	R1146E
2933.08	1.72	3010837	REC_WORD	1.72	n/a	TOY	-999	22	[0, 0, 0]	n/a	FR1	0	R1146E
2934.8	3.394	3012557	REC_WORD_VV	3.394	n/a	<>	-999	22	[0, 0, 0]	n/a	FR1	0	R1146E
2938.194	5.024	3015950	REC_WORD_VV	5.024	n/a	<>	-999	22	[0, 0, 0]	n/a	FR1	0	R1146E
2943.218	2.355	3020974	REC_WORD_VV	2.355	n/a	<>	-999	22	[0, 0, 0]	n/a	FR1	0	R1146E
2945.573	5.48	3023329	REC_WORD_VV	5.48	n/a	<>	-999	22	[0, 0, 0]	n/a	FR1	0	R1146E
2951.053	3.408	3028809	REC_WORD	3.408	n/a	SPONGE	-999	22	[0, 0, 0]	n/a	FR1	0	R1146E
2954.461	3.699	3032217	REC_WORD_VV	3.699	n/a	<>	-999	22	[0, 0, 0]	n/a	FR1	0	R1146E
2958.16	10.331	3035916	REC_END	n/a	n/a	n/a	-999	22	[0, 0, 0]	n/a	FR1	0	R1146E
2968.491	0.5	3046246	TRIAL	n/a	n/a	n/a	-999	23	[0, 0, 0]	n/a	FR1	0	R1146E
2968.991	10.428	3046746	COUNTDOWN_START	n/a	n/a	n/a	-999	23	[0, 0, 0]	n/a	FR1	0	R1146E
2979.419	0.007	3057174	COUNTDOWN_END	n/a	n/a	n/a	-999	23	[0, 0, 0]	n/a	FR1	0	R1146E
2979.426	1.617	3057181	ORIENT	n/a	n/a	n/a	-999	23	[0, 0, 0]	n/a	FR1	0	R1146E
2981.043	1.917	3058798	ORIENT_OFF	n/a	n/a	n/a	-999	23	[0, 0, 0]	n/a	FR1	0	R1146E
2982.96	1.617	3060715	WORD	n/a	wordpools/wordpool_EN.txt	JEEP	1	23	[0, 0, 0]	n/a	FR1	0	R1146E
2984.577	0.967	3062332	WORD_OFF	n/a	n/a	JEEP	1	23	[0, 0, 0]	n/a	FR1	0	R1146E
2985.544	1.616	3063299	WORD	n/a	wordpools/wordpool_EN.txt	PET	2	23	[0, 0, 0]	n/a	FR1	0	R1146E
2987.16	0.967	3064914	WORD_OFF	n/a	n/a	PET	2	23	[0, 0, 0]	n/a	FR1	0	R1146E
2988.127	1.618	3065881	WORD	n/a	wordpools/wordpool_EN.txt	DART	3	23	[0, 0, 0]	n/a	FR1	0	R1146E
2989.745	0.8	3067499	WORD_OFF	n/a	n/a	DART	3	23	[0, 0, 0]	n/a	FR1	0	R1146E
2990.545	1.616	3068299	WORD	n/a	wordpools/wordpool_EN.txt	TRAIN	4	23	[0, 0, 0]	n/a	FR1	0	R1146E
2992.161	1.0	3069915	WORD_OFF	n/a	n/a	TRAIN	4	23	[0, 0, 0]	n/a	FR1	0	R1146E
2993.161	1.618	3070915	WORD	n/a	wordpools/wordpool_EN.txt	ROAD	5	23	[0, 0, 0]	n/a	FR1	0	R1146E
2994.779	0.8	3072533	WORD_OFF	n/a	n/a	ROAD	5	23	[0, 0, 0]	n/a	FR1	0	R1146E
2995.579	1.616	3073333	WORD	n/a	wordpools/wordpool_EN.txt	HORSE	6	23	[0, 0, 0]	n/a	FR1	0	R1146E
2997.195	0.801	3074949	WORD_OFF	n/a	n/a	HORSE	6	23	[0, 0, 0]	n/a	FR1	0	R1146E
2997.996	1.617	3075750	WORD	n/a	wordpools/wordpool_EN.txt	LAWN	7	23	[0, 0, 0]	n/a	FR1	0	R1146E
2999.613	0.85	3077367	WORD_OFF	n/a	n/a	LAWN	7	23	[0, 0, 0]	n/a	FR1	0	R1146E
3000.463	1.616	3078217	WORD	n/a	wordpools/wordpool_EN.txt	FARM	8	23	[0, 0, 0]	n/a	FR1	0	R1146E
3002.079	0.901	3079833	WORD_OFF	n/a	n/a	FARM	8	23	[0, 0, 0]	n/a	FR1	0	R1146E
3002.98	1.617	3080734	WORD	n/a	wordpools/wordpool_EN.txt	HEN	9	23	[0, 0, 0]	n/a	FR1	0	R1146E
3004.597	0.783	3082351	WORD_OFF	n/a	n/a	HEN	9	23	[0, 0, 0]	n/a	FR1	0	R1146E
3005.38	1.618	3083134	WORD	n/a	wordpools/wordpool_EN.txt	CHALK	10	23	[0, 0, 0]	n/a	FR1	0	R1146E
3006.998	0.983	3084752	WORD_OFF	n/a	n/a	CHALK	10	23	[0, 0, 0]	n/a	FR1	0	R1146E
3007.981	1.617	3085735	WORD	n/a	wordpools/wordpool_EN.txt	STORE	11	23	[0, 0, 0]	n/a	FR1	0	R1146E
3009.598	0.9	3087352	WORD_OFF	n/a	n/a	STORE	11	23	[0, 0, 0]	n/a	FR1	0	R1146E
3010.498	1.616	3088252	WORD	n/a	wordpools/wordpool_EN.txt	RAT	12	23	[0, 0, 0]	n/a	FR1	0	R1146E
3012.114	0.0	3089867	WORD_OFF	n/a	n/a	RAT	12	23	[0, 0, 0]	n/a	FR1	0	R1146E
3012.114	0.001	3089867	DISTRACT_START	n/a	n/a	n/a	-999	23	[0, 0, 0]	n/a	FR1	0	R1146E
3012.115	0.016	3089868	START	n/a	n/a	n/a	-999	23	[-999, -999, -999]	n/a	FR1	0	R1146E
3012.131	4.418	3089884	PROB	4.418	n/a	n/a	-999	23	[6, 1, 9]	16	FR1	0	R1146E
3016.549	6.251	3094302	PROB	6.251	n/a	n/a	-999	23	[1, 8, 8]	17	FR1	0	R1146E
3022.8	7.002	3100553	PROB	7.002	n/a	n/a	-999	23	[9, 9, 5]	23	FR1	0	R1146E
3029.802	16.345	3107555	PROB	16.345	n/a	n/a	-999	23	[7, 2, 6]	15	FR1	0	R1146E
3046.147	0.006	3123899	STOP	n/a	n/a	n/a	-999	23	[-999, -999, -999]	n/a	FR1	0	R1146E
3046.153	0.702	3123905	DISTRACT_END	n/a	n/a	n/a	-999	23	[0, 0, 0]	n/a	FR1	0	R1146E
3046.855	0.517	3124607	RETRIEVAL_ORIENT	n/a	n/a	n/a	-999	23	[0, 0, 0]	n/a	FR1	0	R1146E
3047.372	5.275	3125124	REC_START	n/a	n/a	n/a	-999	23	[0, 0, 0]	n/a	FR1	0	R1146E
3052.647	24.735	3130399	REC_WORD	24.735	n/a	CHALK	-999	23	[0, 0, 0]	n/a	FR1	0	R1146E
3077.382	11.247	3155133	REC_END	n/a	n/a	n/a	-999	23	[0, 0, 0]	n/a	FR1	0	R1146E
3088.629	0.5	3166379	TRIAL	n/a	n/a	n/a	-999	24	[0, 0, 0]	n/a	FR1	0	R1146E
3089.129	10.428	3166879	COUNTDOWN_START	n/a	n/a	n/a	-999	24	[0, 0, 0]	n/a	FR1	0	R1146E
3099.557	0.007	3177307	COUNTDOWN_END	n/a	n/a	n/a	-999	24	[0, 0, 0]	n/a	FR1	0	R1146E
3099.564	1.616	3177314	ORIENT	n/a	n/a	n/a	-999	24	[0, 0, 0]	n/a	FR1	0	R1146E
3101.18	2.084	3178930	ORIENT_OFF	n/a	n/a	n/a	-999	24	[0, 0, 0]	n/a	FR1	0	R1146E
3103.264	1.618	3181014	WORD	n/a	wordpools/wordpool_EN.txt	MOUSE	1	24	[0, 0, 0]	n/a	FR1	0	R1146E
3104.882	1.0	3182632	WORD_OFF	n/a	n/a	MOUSE	1	24	[0, 0, 0]	n/a	FR1	0	R1146E
3105.882	1.617	3183632	WORD	n/a	wordpools/wordpool_EN.txt	TREE	2	24	[0, 0, 0]	n/a	FR1	0	R1146E
3107.499	0.883	3185249	WORD_OFF	n/a	n/a	TREE	2	24	[0, 0, 0]	n/a	FR1	0	R1146E
3108.382	1.617	3186132	WORD	n/a	wordpools/wordpool_EN.txt	SHARK	3	24	[0, 0, 0]	n/a	FR1	0	R1146E
3109.999	0.967	3187748	WORD_OFF	n/a	n/a	SHARK	3	24	[0, 0, 0]	n/a	FR1	0	R1146E
3110.966	1.617	3188715	WORD	n/a	wordpools/wordpool_EN.txt	WEB	4	24	[0, 0, 0]	n/a	FR1	0	R1146E
3112.583	0.817	3190332	WORD_OFF	n/a	n/a	WEB	4	24	[0, 0, 0]	n/a	FR1	0	R1146E
3113.4	1.617	3191149	WORD	n/a	wordpools/wordpool_EN.txt	CAT	5	24	[0, 0, 0]	n/a	FR1	0	R1146E
3115.017	0.983	3192766	WORD_OFF	n/a	n/a	CAT	5	24	[0, 0, 0]	n/a	FR1	0	R1146E
3116.0	1.617	3193749	WORD	n/a	wordpools/wordpool_EN.txt	CROW	6	24	[0, 0, 0]	n/a	FR1	0	R1146E
3117.617	0.984	3195366	WORD_OFF	n/a	n/a	CROW	6	24	[0, 0, 0]	n/a	FR1	0	R1146E
3118.601	1.616	3196350	WORD	n/a	wordpools/wordpool_EN.txt	HOOK	7	24	[0, 0, 0]	n/a	FR1	0	R1146E
3120.217	0.95	3197966	WORD_OFF	n/a	n/a	HOOK	7	24	[0, 0, 0]	n/a	FR1	0	R1146E
3121.167	1.618	3198916	WORD	n/a	wordpools/wordpool_EN.txt	SHEEP	8	24	[0, 0, 0]	n/a	FR1	0	R1146E
3122.785	0.95	3200534	WORD_OFF	n/a	n/a	SHEEP	8	24	[0, 0, 0]	n/a	FR1	0	R1146E
3123.735	1.617	3201484	WORD	n/a	wordpools/wordpool_EN.txt	CHIEF	9	24	[0, 0, 0]	n/a	FR1	0	R1146E
3125.352	0.882	3203101	WORD_OFF	n/a	n/a	CHIEF	9	24	[0, 0, 0]	n/a	FR1	0	R1146E
3126.234	1.618	3203983	WORD	n/a	wordpools/wordpool_EN.txt	BAT	10	24	[0, 0, 0]	n/a	FR1	0	R1146E
3127.852	0.8	3205601	WORD_OFF	n/a	n/a	BAT	10	24	[0, 0, 0]	n/a	FR1	0	R1146E
3128.652	1.616	3206401	WORD	n/a	wordpools/wordpool_EN.txt	MOTH	11	24	[0, 0, 0]	n/a	FR1	0	R1146E
3130.268	0.834	3208017	WORD_OFF	n/a	n/a	MOTH	11	24	[0, 0, 0]	n/a	FR1	0	R1146E
3131.102	1.618	3208851	WORD	n/a	wordpools/wordpool_EN.txt	PRINCE	12	24	[0, 0, 0]	n/a	FR1	0	R1146E
3132.72	0.0	3210469	WORD_OFF	n/a	n/a	PRINCE	12	24	[0, 0, 0]	n/a	FR1	0	R1146E
3132.72	0.0	3210469	DISTRACT_START	n/a	n/a	n/a	-999	24	[0, 0, 0]	n/a	FR1	0	R1146E
3132.72	0.017	3210469	START	n/a	n/a	n/a	-999	24	[-999, -999, -999]	n/a	FR1	0	R1146E
3132.737	8.034	3210486	PROB	8.034	n/a	n/a	-999	24	[9, 6, 4]	19	FR1	0	R1146E
3140.771	7.185	3218519	PROB	7.185	n/a	n/a	-999	24	[2, 7, 5]	14	FR1	0	R1146E
3147.956	4.989	3225704	PROB	4.989	n/a	n/a	-999	24	[4, 5, 1]	10	FR1	0	R1146E
3152.945	0.012	3230693	STOP	n/a	n/a	n/a	-999	24	[-999, -999, -999]	n/a	FR1	0	R1146E
3152.957	0.65	3230705	DISTRACT_END	n/a	n/a	n/a	-999	24	[0, 0, 0]	n/a	FR1	0	R1146E
3153.607	0.516	3231355	RETRIEVAL_ORIENT	n/a	n/a	n/a	-999	24	[0, 0, 0]	n/a	FR1	0	R1146E
3154.123	1.307	3231871	REC_START	n/a	n/a	n/a	-999	24	[0, 0, 0]	n/a	FR1	0	R1146E
3155.43	9.892	3233178	REC_WORD	9.892	n/a	MOUSE	-999	24	[0, 0, 0]	n/a	FR1	0	R1146E
3165.322	1.031	3243069	REC_WORD	1.031	n/a	TRAP	-999	24	[0, 0, 0]	n/a	FR1	0	R1146E
3166.353	3.385	3244100	REC_WORD_VV	3.385	n/a	<>	-999	24	[0, 0, 0]	n/a	FR1	0	R1146E
3169.738	14.397	3247485	REC_WORD_VV	14.397	n/a	<>	-999	24	[0, 0, 0]	n/a	FR1	0	R1146E
3184.135	11.796	3261881	REC_END	n/a	n/a	n/a	-999	24	[0, 0, 0]	n/a	FR1	0	R1146E
3195.931	0.5	3273677	TRIAL	n/a	n/a	n/a	-999	25	[0, 0, 0]	n/a	FR1	0	R1146E
3196.431	10.428	3274177	COUNTDOWN_START	n/a	n/a	n/a	-999	25	[0, 0, 0]	n/a	FR1	0	R1146E
3206.859	0.007	3284605	COUNTDOWN_END	n/a	n/a	n/a	-999	25	[0, 0, 0]	n/a	FR1	0	R1146E
3206.866	1.617	3284612	ORIENT	n/a	n/a	n/a	-999	25	[0, 0, 0]	n/a	FR1	0	R1146E
3208.483	2.1	3286229	ORIENT_OFF	n/a	n/a	n/a	-999	25	[0, 0, 0]	n/a	FR1	0	R1146E
3210.583	1.617	3288328	WORD	n/a	wordpools/wordpool_EN.txt	BLOOM	1	25	[0, 0, 0]	n/a	FR1	0	R1146E
3212.2	0.866	3289945	WORD_OFF	n/a	n/a	BLOOM	1	25	[0, 0, 0]	n/a	FR1	0	R1146E
3213.066	1.601	3290811	WORD	n/a	wordpools/wordpool_EN.txt	SUN	2	25	[0, 0, 0]	n/a	FR1	0	R1146E
3214.667	0.767	3292412	WORD_OFF	n/a	n/a	SUN	2	25	[0, 0, 0]	n/a	FR1	0	R1146E
3215.434	1.618	3293179	WORD	n/a	wordpools/wordpool_EN.txt	WHALE	3	25	[0, 0, 0]	n/a	FR1	0	R1146E
3217.052	0.816	3294797	WORD_OFF	n/a	n/a	WHALE	3	25	[0, 0, 0]	n/a	FR1	0	R1146E
3217.868	1.617	3295613	WORD	n/a	wordpools/wordpool_EN.txt	CAPE	4	25	[0, 0, 0]	n/a	FR1	0	R1146E
3219.485	0.867	3297230	WORD_OFF	n/a	n/a	CAPE	4	25	[0, 0, 0]	n/a	FR1	0	R1146E
3220.352	1.617	3298097	WORD	n/a	wordpools/wordpool_EN.txt	MOON	5	25	[0, 0, 0]	n/a	FR1	0	R1146E
3221.969	0.767	3299714	WORD_OFF	n/a	n/a	MOON	5	25	[0, 0, 0]	n/a	FR1	0	R1146E
3222.736	1.617	3300481	WORD	n/a	wordpools/wordpool_EN.txt	FOOD	6	25	[0, 0, 0]	n/a	FR1	0	R1146E
3224.353	0.832	3302098	WORD_OFF	n/a	n/a	FOOD	6	25	[0, 0, 0]	n/a	FR1	0	R1146E
3225.185	1.618	3302930	WORD	n/a	wordpools/wordpool_EN.txt	STAR	7	25	[0, 0, 0]	n/a	FR1	0	R1146E
3226.803	0.817	3304548	WORD_OFF	n/a	n/a	STAR	7	25	[0, 0, 0]	n/a	FR1	0	R1146E
3227.62	1.616	3305365	WORD	n/a	wordpools/wordpool_EN.txt	PLANT	8	25	[0, 0, 0]	n/a	FR1	0	R1146E
3229.236	0.9	3306981	WORD_OFF	n/a	n/a	PLANT	8	25	[0, 0, 0]	n/a	FR1	0	R1146E
3230.136	1.618	3307881	WORD	n/a	wordpools/wordpool_EN.txt	BEACH	9	25	[0, 0, 0]	n/a	FR1	0	R1146E
3231.754	0.934	3309499	WORD_OFF	n/a	n/a	BEACH	9	25	[0, 0, 0]	n/a	FR1	0	R1146E
3232.688	1.617	3310433	WORD	n/a	wordpools/wordpool_EN.txt	SEAL	10	25	[0, 0, 0]	n/a	FR1	0	R1146E
3234.305	0.765	3312049	WORD_OFF	n/a	n/a	SEAL	10	25	[0, 0, 0]	n/a	FR1	0	R1146E
3235.07	1.618	3312814	WORD	n/a	wordpools/wordpool_EN.txt	RICE	11	25	[0, 0, 0]	n/a	FR1	0	R1146E
3236.688	0.967	3314432	WORD_OFF	n/a	n/a	RICE	11	25	[0, 0, 0]	n/a	FR1	0	R1146E
3237.655	1.616	3315399	WORD	n/a	wordpools/wordpool_EN.txt	LAND	12	25	[0, 0, 0]	n/a	FR1	0	R1146E
3239.271	0.0	3317015	WORD_OFF	n/a	n/a	LAND	12	25	[0, 0, 0]	n/a	FR1	0	R1146E
3239.271	0.001	3317015	DISTRACT_START	n/a	n/a	n/a	-999	25	[0, 0, 0]	n/a	FR1	0	R1146E
3239.272	0.017	3317016	START	n/a	n/a	n/a	-999	25	[-999, -999, -999]	n/a	FR1	0	R1146E
3239.289	9.368	3317033	PROB	9.368	n/a	n/a	-999	25	[4, 7, 9]	20	FR1	0	R1146E
3248.657	5.801	3326401	PROB	5.801	n/a	n/a	-999	25	[3, 2, 4]	9	FR1	0	R1146E
3254.458	6.303	3332202	PROB	6.303	n/a	n/a	-999	25	[3, 5, 7]	15	FR1	0	R1146E
3260.761	0.015	3338504	STOP	n/a	n/a	n/a	-999	25	[-999, -999, -999]	n/a	FR1	0	R1146E
3260.776	0.683	3338519	DISTRACT_END	n/a	n/a	n/a	-999	25	[0, 0, 0]	n/a	FR1	0	R1146E
3261.459	0.522	3339202	RETRIEVAL_ORIENT	n/a	n/a	n/a	-999	25	[0, 0, 0]	n/a	FR1	0	R1146E
3261.981	5.306	3339724	REC_START	n/a	n/a	n/a	-999	25	[0, 0, 0]	n/a	FR1	0	R1146E
3267.287	6.411	3345030	REC_WORD_VV	6.411	n/a	<>	-999	25	[0, 0, 0]	n/a	FR1	0	R1146E
3273.698	11.565	3351441	REC_WORD_VV	11.565	n/a	<>	-999	25	[0, 0, 0]	n/a	FR1	0	R1146E
3285.263	1.388	3363005	REC_WORD	1.388	n/a	SUN	-999	25	[0, 0, 0]	n/a	FR1	0	R1146E
3286.651	2.802	3364393	REC_WORD	2.802	n/a	MOON	-999	25	[0, 0, 0]	n/a	FR1	0	R1146E
3289.453	2.535	3367195	REC_WORD	2.535	n/a	STAR	-999	25	[0, 0, 0]	n/a	FR1	0	R1146E
3291.988	23.464	3369730	REC_END	n/a	n/a	n/a	-999	25	[0, 0, 0]	n/a	FR1	0	R1146E
3315.452	0.0	3393193	SESS_END	n/a	n/a	n/a	-999	25	[0, 0, 0]	n/a	FR1	0	R1146E
