onset	duration	sample	trial_type	response_time	stim_file	item_name	serialpos	list	test	answer	experiment	session	subject
0.0	17.629	318812	SESS_START	n/a	n/a	n/a	-999	-999	[0, 0, 0]	n/a	FR1	0	R1065J
17.629	10.428	336441	COUNTDOWN_START	n/a	n/a	n/a	-999	-999	[0, 0, 0]	n/a	FR1	0	R1065J
28.057	3.84	346869	COUNTDOWN_END	n/a	n/a	n/a	-999	-999	[0, 0, 0]	n/a	FR1	0	R1065J
31.897	2.485	350709	PRACTICE_WORD	n/a	n/a	RING	1	-1	[0, 0, 0]	n/a	FR1	0	R1065J
34.382	2.416	353194	PRACTICE_WORD	n/a	n/a	ATTIC	2	-1	[0, 0, 0]	n/a	FR1	0	R1065J
36.798	2.501	355610	PRACTICE_WORD	n/a	n/a	COTTON	3	-1	[0, 0, 0]	n/a	FR1	0	R1065J
39.299	2.467	358111	PRACTICE_WORD	n/a	n/a	TONGUE	4	-1	[0, 0, 0]	n/a	FR1	0	R1065J
41.766	2.601	360578	PRACTICE_WORD	n/a	n/a	FLOOD	5	-1	[0, 0, 0]	n/a	FR1	0	R1065J
44.367	2.449	363179	PRACTICE_WORD	n/a	n/a	CAMEL	6	-1	[0, 0, 0]	n/a	FR1	0	R1065J
46.816	2.484	365628	PRACTICE_WORD	n/a	n/a	WATCH	7	-1	[0, 0, 0]	n/a	FR1	0	R1065J
49.3	2.6	368112	PRACTICE_WORD	n/a	n/a	WAGON	8	-1	[0, 0, 0]	n/a	FR1	0	R1065J
51.9	2.568	370712	PRACTICE_WORD	n/a	n/a	CHEST	9	-1	[0, 0, 0]	n/a	FR1	0	R1065J
54.468	2.5	373280	PRACTICE_WORD	n/a	n/a	BEAM	10	-1	[0, 0, 0]	n/a	FR1	0	R1065J
56.968	2.551	375780	PRACTICE_WORD	n/a	n/a	RHINO	11	-1	[0, 0, 0]	n/a	FR1	0	R1065J
59.519	1.616	378331	PRACTICE_WORD	n/a	n/a	IRON	12	-1	[0, 0, 0]	n/a	FR1	0	R1065J
61.135	0.0	379947	PRACTICE_DISTRACT_START	n/a	n/a	n/a	-999	-1	[0, 0, 0]	n/a	FR1	0	R1065J
61.135	0.017	379947	START	n/a	n/a	n/a	-999	-1	[-999, -999, -999]	n/a	FR1	0	R1065J
61.152	7.401	379964	PROB	7.401	n/a	n/a	-999	-1	[4, 9, 2]	15	FR1	0	R1065J
68.553	3.667	387365	PROB	3.667	n/a	n/a	-999	-1	[7, 7, 9]	23	FR1	0	R1065J
72.22	5.001	391032	PROB	5.001	n/a	n/a	-999	-1	[2, 5, 9]	16	FR1	0	R1065J
77.221	3.333	396033	PROB	3.333	n/a	n/a	-999	-1	[9, 2, 2]	13	FR1	0	R1065J
80.554	4.282	399366	PROB	4.282	n/a	n/a	-999	-1	[7, 6, 9]	22	FR1	0	R1065J
84.836	0.019	403648	STOP	n/a	n/a	n/a	-999	-1	[-999, -999, -999]	n/a	FR1	0	R1065J
84.855	0.62	403667	PRACTICE_DISTRACT_END	n/a	n/a	n/a	-999	-1	[0, 0, 0]	n/a	FR1	0	R1065J
85.475	30.514	404287	PRACTICE_REC_START	n/a	n/a	n/a	-999	-1	[0, 0, 0]	n/a	FR1	0	R1065J
115.989	16.139	434802	PRACTICE_REC_END	n/a	n/a	n/a	-999	-1	[0, 0, 0]	n/a	FR1	0	R1065J
132.128	0.001	450941	COUNTDOWN_START	n/a	n/a	n/a	-999	1	[0, 0, 0]	n/a	FR1	0	R1065J
132.129	10.427	450942	TRIAL	n/a	n/a	n/a	-999	1	[0, 0, 0]	n/a	FR1	0	R1065J
142.556	0.007	461369	COUNTDOWN_END	n/a	n/a	n/a	-999	1	[0, 0, 0]	n/a	FR1	0	R1065J
142.563	2.417	461376	ORIENT	n/a	n/a	n/a	-999	1	[0, 0, 0]	n/a	FR1	0	R1065J
144.98	2.518	463793	WORD	n/a	wordpools/wordpool_EN.txt	SEAT	1	1	[0, 0, 0]	n/a	FR1	0	R1065J
147.498	2.6	466311	WORD	n/a	wordpools/wordpool_EN.txt	MULE	2	1	[0, 0, 0]	n/a	FR1	0	R1065J
150.098	2.417	468911	WORD	n/a	wordpools/wordpool_EN.txt	TOOTH	3	1	[0, 0, 0]	n/a	FR1	0	R1065J
152.515	2.383	471328	WORD	n/a	wordpools/wordpool_EN.txt	PASTE	4	1	[0, 0, 0]	n/a	FR1	0	R1065J
154.898	2.485	473711	WORD	n/a	wordpools/wordpool_EN.txt	TRAY	5	1	[0, 0, 0]	n/a	FR1	0	R1065J
157.383	2.516	476196	WORD	n/a	wordpools/wordpool_EN.txt	TEETH	6	1	[0, 0, 0]	n/a	FR1	0	R1065J
159.899	2.4	478712	WORD	n/a	wordpools/wordpool_EN.txt	BEAK	7	1	[0, 0, 0]	n/a	FR1	0	R1065J
162.299	2.584	481112	WORD	n/a	wordpools/wordpool_EN.txt	BRIDGE	8	1	[0, 0, 0]	n/a	FR1	0	R1065J
164.883	2.585	483696	WORD	n/a	wordpools/wordpool_EN.txt	SALT	9	1	[0, 0, 0]	n/a	FR1	0	R1065J
167.468	2.532	486281	WORD	n/a	wordpools/wordpool_EN.txt	PIPE	10	1	[0, 0, 0]	n/a	FR1	0	R1065J
170.0	2.435	488813	WORD	n/a	wordpools/wordpool_EN.txt	SOAP	11	1	[0, 0, 0]	n/a	FR1	0	R1065J
172.435	1.616	491248	WORD	n/a	wordpools/wordpool_EN.txt	TOAST	12	1	[0, 0, 0]	n/a	FR1	0	R1065J
174.051	0.001	492864	DISTRACT_START	n/a	n/a	n/a	-999	1	[0, 0, 0]	n/a	FR1	0	R1065J
174.052	0.016	492865	START	n/a	n/a	n/a	-999	1	[-999, -999, -999]	n/a	FR1	0	R1065J
174.068	6.318	492881	PROB	6.318	n/a	n/a	-999	1	[5, 3, 4]	12	FR1	0	R1065J
180.386	3.883	499199	PROB	3.883	n/a	n/a	-999	1	[6, 9, 6]	21	FR1	0	R1065J
184.269	6.119	503082	PROB	6.119	n/a	n/a	-999	1	[5, 8, 5]	18	FR1	0	R1065J
190.388	3.05	509201	PROB	3.05	n/a	n/a	-999	1	[2, 2, 7]	11	FR1	0	R1065J
193.438	2.427	512251	PROB	2.427	n/a	n/a	-999	1	[3, 1, 7]	11	FR1	0	R1065J
195.865	0.006	514678	STOP	n/a	n/a	n/a	-999	1	[-999, -999, -999]	n/a	FR1	0	R1065J
195.871	1.071	514684	DISTRACT_END	n/a	n/a	n/a	-999	1	[0, 0, 0]	n/a	FR1	0	R1065J
196.942	1.596	515755	REC_START	n/a	n/a	n/a	-999	1	[0, 0, 0]	n/a	FR1	0	R1065J
198.538	0.969	517351	REC_WORD	0.969	n/a	TOOTH	-999	1	[0, 0, 0]	n/a	FR1	0	R1065J
199.507	1.469	518320	REC_WORD	1.469	n/a	PASTE	-999	1	[0, 0, 0]	n/a	FR1	0	R1065J
200.976	1.711	519790	REC_WORD	1.711	n/a	SALT	-999	1	[0, 0, 0]	n/a	FR1	0	R1065J
202.687	2.345	521501	REC_WORD	2.345	n/a	MULE	-999	1	[0, 0, 0]	n/a	FR1	0	R1065J
205.032	5.698	523846	REC_WORD	5.698	n/a	SEAT	-999	1	[0, 0, 0]	n/a	FR1	0	R1065J
210.73	14.706	529544	REC_WORD_VV	14.706	n/a	<>	-999	1	[0, 0, 0]	n/a	FR1	0	R1065J
225.436	1.514	544250	REC_WORD_VV	1.514	n/a	<>	-999	1	[0, 0, 0]	n/a	FR1	0	R1065J
226.95	4.726	545764	REC_END	n/a	n/a	n/a	-999	1	[0, 0, 0]	n/a	FR1	0	R1065J
231.676	0.0	550490	TRIAL	n/a	n/a	n/a	-999	2	[0, 0, 0]	n/a	FR1	0	R1065J
231.676	10.428	550490	COUNTDOWN_START	n/a	n/a	n/a	-999	2	[0, 0, 0]	n/a	FR1	0	R1065J
242.104	0.007	560918	COUNTDOWN_END	n/a	n/a	n/a	-999	2	[0, 0, 0]	n/a	FR1	0	R1065J
242.111	2.517	560925	ORIENT	n/a	n/a	n/a	-999	2	[0, 0, 0]	n/a	FR1	0	R1065J
244.628	2.434	563442	WORD	n/a	wordpools/wordpool_EN.txt	CAVE	1	2	[0, 0, 0]	n/a	FR1	0	R1065J
247.062	2.451	565876	WORD	n/a	wordpools/wordpool_EN.txt	STAIR	2	2	[0, 0, 0]	n/a	FR1	0	R1065J
249.513	2.382	568327	WORD	n/a	wordpools/wordpool_EN.txt	COUCH	3	2	[0, 0, 0]	n/a	FR1	0	R1065J
251.895	2.552	570709	WORD	n/a	wordpools/wordpool_EN.txt	DART	4	2	[0, 0, 0]	n/a	FR1	0	R1065J
254.447	2.533	573261	WORD	n/a	wordpools/wordpool_EN.txt	BED	5	2	[0, 0, 0]	n/a	FR1	0	R1065J
256.98	2.501	575794	WORD	n/a	wordpools/wordpool_EN.txt	MAZE	6	2	[0, 0, 0]	n/a	FR1	0	R1065J
259.481	2.616	578295	WORD	n/a	wordpools/wordpool_EN.txt	SNAKE	7	2	[0, 0, 0]	n/a	FR1	0	R1065J
262.097	2.467	580911	WORD	n/a	wordpools/wordpool_EN.txt	CLIFF	8	2	[0, 0, 0]	n/a	FR1	0	R1065J
264.564	2.584	583378	WORD	n/a	wordpools/wordpool_EN.txt	TOE	9	2	[0, 0, 0]	n/a	FR1	0	R1065J
267.148	2.467	585962	WORD	n/a	wordpools/wordpool_EN.txt	CHAIR	10	2	[0, 0, 0]	n/a	FR1	0	R1065J
269.615	2.567	588429	WORD	n/a	wordpools/wordpool_EN.txt	MUD	11	2	[0, 0, 0]	n/a	FR1	0	R1065J
272.182	1.617	590996	WORD	n/a	wordpools/wordpool_EN.txt	BROOM	12	2	[0, 0, 0]	n/a	FR1	0	R1065J
273.799	0.001	592613	DISTRACT_START	n/a	n/a	n/a	-999	2	[0, 0, 0]	n/a	FR1	0	R1065J
273.8	0.015	592614	START	n/a	n/a	n/a	-999	2	[-999, -999, -999]	n/a	FR1	0	R1065J
273.815	4.151	592629	PROB	4.151	n/a	n/a	-999	2	[1, 6, 5]	12	FR1	0	R1065J
277.966	3.134	596780	PROB	3.134	n/a	n/a	-999	2	[3, 6, 9]	18	FR1	0	R1065J
281.1	2.867	599914	PROB	2.867	n/a	n/a	-999	2	[8, 6, 2]	16	FR1	0	R1065J
283.967	3.034	602781	PROB	3.034	n/a	n/a	-999	2	[2, 7, 1]	11	FR1	0	R1065J
287.001	3.351	605815	PROB	3.351	n/a	n/a	-999	2	[1, 3, 9]	13	FR1	0	R1065J
290.352	3.167	609166	PROB	3.167	n/a	n/a	-999	2	[9, 6, 4]	29	FR1	0	R1065J
293.519	5.031	612333	PROB	5.031	n/a	n/a	-999	2	[3, 5, 8]	16	FR1	0	R1065J
298.55	0.019	617364	STOP	n/a	n/a	n/a	-999	2	[-999, -999, -999]	n/a	FR1	0	R1065J
298.569	1.151	617383	DISTRACT_END	n/a	n/a	n/a	-999	2	[0, 0, 0]	n/a	FR1	0	R1065J
299.72	1.577	618534	REC_START	n/a	n/a	n/a	-999	2	[0, 0, 0]	n/a	FR1	0	R1065J
301.297	0.416	620111	REC_WORD_VV	0.416	n/a	<>	-999	2	[0, 0, 0]	n/a	FR1	0	R1065J
301.713	1.398	620527	REC_WORD	1.398	n/a	STAIR	-999	2	[0, 0, 0]	n/a	FR1	0	R1065J
303.111	1.733	621925	REC_WORD	1.733	n/a	COUCH	-999	2	[0, 0, 0]	n/a	FR1	0	R1065J
304.844	1.61	623658	REC_WORD	1.61	n/a	TOE	-999	2	[0, 0, 0]	n/a	FR1	0	R1065J
306.454	23.276	625268	REC_WORD	23.276	n/a	SEAT	-999	2	[0, 0, 0]	n/a	FR1	0	R1065J
329.73	4.194	648545	REC_END	n/a	n/a	n/a	-999	2	[0, 0, 0]	n/a	FR1	0	R1065J
333.924	0.0	652739	TRIAL	n/a	n/a	n/a	-999	3	[0, 0, 0]	n/a	FR1	0	R1065J
333.924	10.428	652739	COUNTDOWN_START	n/a	n/a	n/a	-999	3	[0, 0, 0]	n/a	FR1	0	R1065J
344.352	0.008	663167	COUNTDOWN_END	n/a	n/a	n/a	-999	3	[0, 0, 0]	n/a	FR1	0	R1065J
344.36	2.399	663175	ORIENT	n/a	n/a	n/a	-999	3	[0, 0, 0]	n/a	FR1	0	R1065J
346.759	2.417	665574	WORD	n/a	wordpools/wordpool_EN.txt	PEARL	1	3	[0, 0, 0]	n/a	FR1	0	R1065J
349.176	2.534	667991	WORD	n/a	wordpools/wordpool_EN.txt	STEAM	2	3	[0, 0, 0]	n/a	FR1	0	R1065J
351.71	2.617	670525	WORD	n/a	wordpools/wordpool_EN.txt	JET	3	3	[0, 0, 0]	n/a	FR1	0	R1065J
354.327	2.584	673142	WORD	n/a	wordpools/wordpool_EN.txt	ICE	4	3	[0, 0, 0]	n/a	FR1	0	R1065J
356.911	2.434	675726	WORD	n/a	wordpools/wordpool_EN.txt	SEA	5	3	[0, 0, 0]	n/a	FR1	0	R1065J
359.345	2.616	678160	WORD	n/a	wordpools/wordpool_EN.txt	SPARK	6	3	[0, 0, 0]	n/a	FR1	0	R1065J
361.961	2.518	680776	WORD	n/a	wordpools/wordpool_EN.txt	SUN	7	3	[0, 0, 0]	n/a	FR1	0	R1065J
364.479	2.566	683294	WORD	n/a	wordpools/wordpool_EN.txt	SHARK	8	3	[0, 0, 0]	n/a	FR1	0	R1065J
367.045	2.418	685860	WORD	n/a	wordpools/wordpool_EN.txt	PIT	9	3	[0, 0, 0]	n/a	FR1	0	R1065J
369.463	2.483	688278	WORD	n/a	wordpools/wordpool_EN.txt	MAP	10	3	[0, 0, 0]	n/a	FR1	0	R1065J
371.946	2.518	690761	WORD	n/a	wordpools/wordpool_EN.txt	PLANE	11	3	[0, 0, 0]	n/a	FR1	0	R1065J
374.464	1.616	693279	WORD	n/a	wordpools/wordpool_EN.txt	SAIL	12	3	[0, 0, 0]	n/a	FR1	0	R1065J
376.08	0.001	694895	DISTRACT_START	n/a	n/a	n/a	-999	3	[0, 0, 0]	n/a	FR1	0	R1065J
376.081	0.016	694896	START	n/a	n/a	n/a	-999	3	[-999, -999, -999]	n/a	FR1	0	R1065J
376.097	5.117	694912	PROB	5.117	n/a	n/a	-999	3	[1, 2, 8]	11	FR1	0	R1065J
381.214	4.784	700029	PROB	4.784	n/a	n/a	-999	3	[7, 9, 7]	25	FR1	0	R1065J
385.998	2.9	704813	PROB	2.9	n/a	n/a	-999	3	[4, 4, 4]	12	FR1	0	R1065J
388.898	3.284	707713	PROB	3.284	n/a	n/a	-999	3	[4, 6, 5]	15	FR1	0	R1065J
392.182	3.667	710997	PROB	3.667	n/a	n/a	-999	3	[5, 2, 6]	13	FR1	0	R1065J
395.849	4.482	714664	PROB	4.482	n/a	n/a	-999	3	[7, 8, 3]	18	FR1	0	R1065J
400.331	0.02	719146	STOP	n/a	n/a	n/a	-999	3	[-999, -999, -999]	n/a	FR1	0	R1065J
400.351	1.167	719166	DISTRACT_END	n/a	n/a	n/a	-999	3	[0, 0, 0]	n/a	FR1	0	R1065J
401.518	2.089	720333	REC_START	n/a	n/a	n/a	-999	3	[0, 0, 0]	n/a	FR1	0	R1065J
403.607	2.957	722422	REC_WORD_VV	2.957	n/a	<>	-999	3	[0, 0, 0]	n/a	FR1	0	R1065J
406.564	1.03	725379	REC_WORD	1.03	n/a	JET	-999	3	[0, 0, 0]	n/a	FR1	0	R1065J
407.594	7.504	726409	REC_WORD	7.504	n/a	STREAM	-999	3	[0, 0, 0]	n/a	FR1	0	R1065J
415.098	12.421	733913	REC_WORD	12.421	n/a	PEARL	-999	3	[0, 0, 0]	n/a	FR1	0	R1065J
427.519	2.762	746334	REC_WORD	2.762	n/a	CAKE	-999	3	[0, 0, 0]	n/a	FR1	0	R1065J
430.281	1.251	749097	REC_WORD_VV	1.251	n/a	<>	-999	3	[0, 0, 0]	n/a	FR1	0	R1065J
431.532	6.991	750348	REC_END	n/a	n/a	n/a	-999	3	[0, 0, 0]	n/a	FR1	0	R1065J
438.523	0.0	757339	TRIAL	n/a	n/a	n/a	-999	4	[0, 0, 0]	n/a	FR1	0	R1065J
438.523	10.428	757339	COUNTDOWN_START	n/a	n/a	n/a	-999	4	[0, 0, 0]	n/a	FR1	0	R1065J
448.951	0.006	767767	COUNTDOWN_END	n/a	n/a	n/a	-999	4	[0, 0, 0]	n/a	FR1	0	R1065J
448.957	2.584	767773	ORIENT	n/a	n/a	n/a	-999	4	[0, 0, 0]	n/a	FR1	0	R1065J
451.541	2.583	770357	WORD	n/a	wordpools/wordpool_EN.txt	BOY	1	4	[0, 0, 0]	n/a	FR1	0	R1065J
454.124	2.601	772940	WORD	n/a	wordpools/wordpool_EN.txt	MOUSE	2	4	[0, 0, 0]	n/a	FR1	0	R1065J
456.725	2.417	775541	WORD	n/a	wordpools/wordpool_EN.txt	HOOK	3	4	[0, 0, 0]	n/a	FR1	0	R1065J
459.142	2.567	777958	WORD	n/a	wordpools/wordpool_EN.txt	WAND	4	4	[0, 0, 0]	n/a	FR1	0	R1065J
461.709	2.6	780525	WORD	n/a	wordpools/wordpool_EN.txt	RAIN	5	4	[0, 0, 0]	n/a	FR1	0	R1065J
464.309	2.45	783125	WORD	n/a	wordpools/wordpool_EN.txt	FAN	6	4	[0, 0, 0]	n/a	FR1	0	R1065J
466.759	2.551	785575	WORD	n/a	wordpools/wordpool_EN.txt	SKY	7	4	[0, 0, 0]	n/a	FR1	0	R1065J
469.31	2.417	788126	WORD	n/a	wordpools/wordpool_EN.txt	NAIL	8	4	[0, 0, 0]	n/a	FR1	0	R1065J
471.727	2.467	790543	WORD	n/a	wordpools/wordpool_EN.txt	BAT	9	4	[0, 0, 0]	n/a	FR1	0	R1065J
474.194	2.6	793010	WORD	n/a	wordpools/wordpool_EN.txt	GRASS	10	4	[0, 0, 0]	n/a	FR1	0	R1065J
476.794	2.552	795610	WORD	n/a	wordpools/wordpool_EN.txt	ANT	11	4	[0, 0, 0]	n/a	FR1	0	R1065J
479.346	1.615	798162	WORD	n/a	wordpools/wordpool_EN.txt	CHALK	12	4	[0, 0, 0]	n/a	FR1	0	R1065J
480.961	0.001	799777	DISTRACT_START	n/a	n/a	n/a	-999	4	[0, 0, 0]	n/a	FR1	0	R1065J
480.962	0.016	799778	START	n/a	n/a	n/a	-999	4	[-999, -999, -999]	n/a	FR1	0	R1065J
480.978	6.201	799794	PROB	6.201	n/a	n/a	-999	4	[7, 8, 7]	22	FR1	0	R1065J
487.179	2.817	805995	PROB	2.817	n/a	n/a	-999	4	[6, 2, 9]	17	FR1	0	R1065J
489.996	3.567	808812	PROB	3.567	n/a	n/a	-999	4	[3, 6, 7]	16	FR1	0	R1065J
493.563	4.434	812379	PROB	4.434	n/a	n/a	-999	4	[7, 6, 6]	19	FR1	0	R1065J
497.997	2.284	816813	PROB	2.284	n/a	n/a	-999	4	[1, 3, 1]	5	FR1	0	R1065J
500.281	5.888	819097	PROB	5.888	n/a	n/a	-999	4	[7, 9, 9]	26	FR1	0	R1065J
506.169	0.013	824985	STOP	n/a	n/a	n/a	-999	4	[-999, -999, -999]	n/a	FR1	0	R1065J
506.182	1.15	824998	DISTRACT_END	n/a	n/a	n/a	-999	4	[0, 0, 0]	n/a	FR1	0	R1065J
507.332	1.989	826148	REC_START	n/a	n/a	n/a	-999	4	[0, 0, 0]	n/a	FR1	0	R1065J
509.321	1.377	828137	REC_WORD	1.377	n/a	MOUSE	-999	4	[0, 0, 0]	n/a	FR1	0	R1065J
510.698	2.6	829514	REC_WORD	2.6	n/a	BOY	-999	4	[0, 0, 0]	n/a	FR1	0	R1065J
513.298	5.069	832114	REC_WORD	5.069	n/a	RAIN	-999	4	[0, 0, 0]	n/a	FR1	0	R1065J
518.367	18.98	837183	REC_WORD_VV	18.98	n/a	<>	-999	4	[0, 0, 0]	n/a	FR1	0	R1065J
537.347	4.623	856163	REC_END	n/a	n/a	n/a	-999	4	[0, 0, 0]	n/a	FR1	0	R1065J
541.97	0.0	860786	TRIAL	n/a	n/a	n/a	-999	5	[0, 0, 0]	n/a	FR1	0	R1065J
541.97	10.428	860786	COUNTDOWN_START	n/a	n/a	n/a	-999	5	[0, 0, 0]	n/a	FR1	0	R1065J
552.398	0.008	871215	COUNTDOWN_END	n/a	n/a	n/a	-999	5	[0, 0, 0]	n/a	FR1	0	R1065J
552.406	2.433	871223	ORIENT	n/a	n/a	n/a	-999	5	[0, 0, 0]	n/a	FR1	0	R1065J
554.839	2.601	873656	WORD	n/a	wordpools/wordpool_EN.txt	CRANE	1	5	[0, 0, 0]	n/a	FR1	0	R1065J
557.44	2.515	876257	WORD	n/a	wordpools/wordpool_EN.txt	SEAL	2	5	[0, 0, 0]	n/a	FR1	0	R1065J
559.955	2.486	878772	WORD	n/a	wordpools/wordpool_EN.txt	FUDGE	3	5	[0, 0, 0]	n/a	FR1	0	R1065J
562.441	2.416	881258	WORD	n/a	wordpools/wordpool_EN.txt	PEN	4	5	[0, 0, 0]	n/a	FR1	0	R1065J
564.857	2.501	883674	WORD	n/a	wordpools/wordpool_EN.txt	INK	5	5	[0, 0, 0]	n/a	FR1	0	R1065J
567.358	2.533	886175	WORD	n/a	wordpools/wordpool_EN.txt	BANK	6	5	[0, 0, 0]	n/a	FR1	0	R1065J
569.891	2.451	888708	WORD	n/a	wordpools/wordpool_EN.txt	SHEET	7	5	[0, 0, 0]	n/a	FR1	0	R1065J
572.342	2.45	891159	WORD	n/a	wordpools/wordpool_EN.txt	BOOK	8	5	[0, 0, 0]	n/a	FR1	0	R1065J
574.792	2.4	893609	WORD	n/a	wordpools/wordpool_EN.txt	DESK	9	5	[0, 0, 0]	n/a	FR1	0	R1065J
577.192	2.6	896009	WORD	n/a	wordpools/wordpool_EN.txt	WALL	10	5	[0, 0, 0]	n/a	FR1	0	R1065J
579.792	2.551	898609	WORD	n/a	wordpools/wordpool_EN.txt	DITCH	11	5	[0, 0, 0]	n/a	FR1	0	R1065J
582.343	1.616	901160	WORD	n/a	wordpools/wordpool_EN.txt	COIN	12	5	[0, 0, 0]	n/a	FR1	0	R1065J
583.959	0.001	902776	DISTRACT_START	n/a	n/a	n/a	-999	5	[0, 0, 0]	n/a	FR1	0	R1065J
583.96	0.016	902777	START	n/a	n/a	n/a	-999	5	[-999, -999, -999]	n/a	FR1	0	R1065J
583.976	3.917	902793	PROB	3.917	n/a	n/a	-999	5	[3, 8, 9]	20	FR1	0	R1065J
587.893	2.784	906710	PROB	2.784	n/a	n/a	-999	5	[2, 7, 7]	16	FR1	0	R1065J
590.677	3.284	909494	PROB	3.284	n/a	n/a	-999	5	[6, 2, 6]	14	FR1	0	R1065J
593.961	3.05	912778	PROB	3.05	n/a	n/a	-999	5	[1, 4, 8]	13	FR1	0	R1065J
597.011	5.118	915828	PROB	5.118	n/a	n/a	-999	5	[3, 9, 4]	16	FR1	0	R1065J
602.129	2.805	920946	PROB	2.805	n/a	n/a	-999	5	[7, 2, 6]	15	FR1	0	R1065J
604.934	0.012	923751	STOP	n/a	n/a	n/a	-999	5	[-999, -999, -999]	n/a	FR1	0	R1065J
604.946	1.051	923763	DISTRACT_END	n/a	n/a	n/a	-999	5	[0, 0, 0]	n/a	FR1	0	R1065J
605.997	1.845	924814	REC_START	n/a	n/a	n/a	-999	5	[0, 0, 0]	n/a	FR1	0	R1065J
607.842	1.71	926659	REC_WORD	1.71	n/a	BOOK	-999	5	[0, 0, 0]	n/a	FR1	0	R1065J
609.552	13.933	928369	REC_WORD	13.933	n/a	DESK	-999	5	[0, 0, 0]	n/a	FR1	0	R1065J
623.485	1.751	942302	REC_WORD	1.751	n/a	PAGE	-999	5	[0, 0, 0]	n/a	FR1	0	R1065J
625.236	10.771	944053	REC_WORD_VV	10.771	n/a	<>	-999	5	[0, 0, 0]	n/a	FR1	0	R1065J
636.007	16.612	954824	REC_END	n/a	n/a	n/a	-999	5	[0, 0, 0]	n/a	FR1	0	R1065J
652.619	0.0	971436	TRIAL	n/a	n/a	n/a	-999	6	[0, 0, 0]	n/a	FR1	0	R1065J
652.619	10.428	971436	COUNTDOWN_START	n/a	n/a	n/a	-999	6	[0, 0, 0]	n/a	FR1	0	R1065J
663.047	0.007	981865	COUNTDOWN_END	n/a	n/a	n/a	-999	6	[0, 0, 0]	n/a	FR1	0	R1065J
663.054	2.55	981872	ORIENT	n/a	n/a	n/a	-999	6	[0, 0, 0]	n/a	FR1	0	R1065J
665.604	2.401	984422	WORD	n/a	wordpools/wordpool_EN.txt	CUP	1	6	[0, 0, 0]	n/a	FR1	0	R1065J
668.005	2.434	986823	WORD	n/a	wordpools/wordpool_EN.txt	SOUP	2	6	[0, 0, 0]	n/a	FR1	0	R1065J
670.439	2.516	989257	WORD	n/a	wordpools/wordpool_EN.txt	SLUSH	3	6	[0, 0, 0]	n/a	FR1	0	R1065J
672.955	2.485	991773	WORD	n/a	wordpools/wordpool_EN.txt	BRUSH	4	6	[0, 0, 0]	n/a	FR1	0	R1065J
675.44	2.566	994258	WORD	n/a	wordpools/wordpool_EN.txt	FRUIT	5	6	[0, 0, 0]	n/a	FR1	0	R1065J
678.006	2.584	996824	WORD	n/a	wordpools/wordpool_EN.txt	THUMB	6	6	[0, 0, 0]	n/a	FR1	0	R1065J
680.59	2.433	999408	WORD	n/a	wordpools/wordpool_EN.txt	SUIT	7	6	[0, 0, 0]	n/a	FR1	0	R1065J
683.023	2.418	1001841	WORD	n/a	wordpools/wordpool_EN.txt	PLATE	8	6	[0, 0, 0]	n/a	FR1	0	R1065J
685.441	2.4	1004259	WORD	n/a	wordpools/wordpool_EN.txt	GRAPE	9	6	[0, 0, 0]	n/a	FR1	0	R1065J
687.841	2.467	1006659	WORD	n/a	wordpools/wordpool_EN.txt	CHEEK	10	6	[0, 0, 0]	n/a	FR1	0	R1065J
690.308	2.4	1009126	WORD	n/a	wordpools/wordpool_EN.txt	VASE	11	6	[0, 0, 0]	n/a	FR1	0	R1065J
692.708	1.617	1011526	WORD	n/a	wordpools/wordpool_EN.txt	NOSE	12	6	[0, 0, 0]	n/a	FR1	0	R1065J
694.325	0.001	1013143	DISTRACT_START	n/a	n/a	n/a	-999	6	[0, 0, 0]	n/a	FR1	0	R1065J
694.326	0.017	1013144	START	n/a	n/a	n/a	-999	6	[-999, -999, -999]	n/a	FR1	0	R1065J
694.343	4.466	1013161	PROB	4.466	n/a	n/a	-999	6	[3, 3, 9]	15	FR1	0	R1065J
698.809	3.601	1017627	PROB	3.601	n/a	n/a	-999	6	[9, 1, 8]	17	FR1	0	R1065J
702.41	2.951	1021228	PROB	2.951	n/a	n/a	-999	6	[8, 8, 8]	24	FR1	0	R1065J
705.361	2.249	1024179	PROB	2.249	n/a	n/a	-999	6	[8, 1, 1]	10	FR1	0	R1065J
707.61	3.334	1026428	PROB	3.334	n/a	n/a	-999	6	[4, 9, 2]	15	FR1	0	R1065J
710.944	3.635	1029762	PROB	3.635	n/a	n/a	-999	6	[3, 8, 4]	13	FR1	0	R1065J
714.579	0.016	1033397	STOP	n/a	n/a	n/a	-999	6	[-999, -999, -999]	n/a	FR1	0	R1065J
714.595	1.133	1033413	DISTRACT_END	n/a	n/a	n/a	-999	6	[0, 0, 0]	n/a	FR1	0	R1065J
715.728	1.993	1034546	REC_START	n/a	n/a	n/a	-999	6	[0, 0, 0]	n/a	FR1	0	R1065J
717.721	1.26	1036539	REC_WORD_VV	1.26	n/a	<>	-999	6	[0, 0, 0]	n/a	FR1	0	R1065J
718.981	1.587	1037799	REC_WORD	1.587	n/a	CHEEK	-999	6	[0, 0, 0]	n/a	FR1	0	R1065J
720.568	3.318	1039386	REC_WORD	3.318	n/a	FACE	-999	6	[0, 0, 0]	n/a	FR1	0	R1065J
723.886	7.506	1042704	REC_WORD	7.506	n/a	CUP	-999	6	[0, 0, 0]	n/a	FR1	0	R1065J
731.392	14.35	1050210	REC_WORD	14.35	n/a	PLATE	-999	6	[0, 0, 0]	n/a	FR1	0	R1065J
745.742	4.675	1064560	REC_END	n/a	n/a	n/a	-999	6	[0, 0, 0]	n/a	FR1	0	R1065J
750.417	0.0	1069235	COUNTDOWN_START	n/a	n/a	n/a	-999	7	[0, 0, 0]	n/a	FR1	0	R1065J
750.417	10.428	1069235	TRIAL	n/a	n/a	n/a	-999	7	[0, 0, 0]	n/a	FR1	0	R1065J
760.845	0.006	1079663	COUNTDOWN_END	n/a	n/a	n/a	-999	7	[0, 0, 0]	n/a	FR1	0	R1065J
760.851	2.518	1079669	ORIENT	n/a	n/a	n/a	-999	7	[0, 0, 0]	n/a	FR1	0	R1065J
763.369	2.383	1082187	WORD	n/a	wordpools/wordpool_EN.txt	JUDGE	1	7	[0, 0, 0]	n/a	FR1	0	R1065J
765.752	2.484	1084570	WORD	n/a	wordpools/wordpool_EN.txt	BOMB	2	7	[0, 0, 0]	n/a	FR1	0	R1065J
768.236	2.55	1087054	WORD	n/a	wordpools/wordpool_EN.txt	EAR	3	7	[0, 0, 0]	n/a	FR1	0	R1065J
770.786	2.484	1089604	WORD	n/a	wordpools/wordpool_EN.txt	TRASH	4	7	[0, 0, 0]	n/a	FR1	0	R1065J
773.27	2.567	1092089	WORD	n/a	wordpools/wordpool_EN.txt	MILK	5	7	[0, 0, 0]	n/a	FR1	0	R1065J
775.837	2.601	1094656	WORD	n/a	wordpools/wordpool_EN.txt	STAR	6	7	[0, 0, 0]	n/a	FR1	0	R1065J
778.438	2.549	1097257	WORD	n/a	wordpools/wordpool_EN.txt	DOG	7	7	[0, 0, 0]	n/a	FR1	0	R1065J
780.987	2.468	1099806	WORD	n/a	wordpools/wordpool_EN.txt	FILM	8	7	[0, 0, 0]	n/a	FR1	0	R1065J
783.455	2.466	1102274	WORD	n/a	wordpools/wordpool_EN.txt	WAVE	9	7	[0, 0, 0]	n/a	FR1	0	R1065J
785.921	2.585	1104740	WORD	n/a	wordpools/wordpool_EN.txt	ZOO	10	7	[0, 0, 0]	n/a	FR1	0	R1065J
788.506	2.399	1107325	WORD	n/a	wordpools/wordpool_EN.txt	POLE	11	7	[0, 0, 0]	n/a	FR1	0	R1065J
790.905	1.601	1109724	WORD	n/a	wordpools/wordpool_EN.txt	ARK	12	7	[0, 0, 0]	n/a	FR1	0	R1065J
792.506	0.001	1111325	DISTRACT_START	n/a	n/a	n/a	-999	7	[0, 0, 0]	n/a	FR1	0	R1065J
792.507	0.016	1111326	START	n/a	n/a	n/a	-999	7	[-999, -999, -999]	n/a	FR1	0	R1065J
792.523	4.75	1111342	PROB	4.75	n/a	n/a	-999	7	[9, 3, 8]	20	FR1	0	R1065J
797.273	3.185	1116092	PROB	3.185	n/a	n/a	-999	7	[8, 6, 5]	19	FR1	0	R1065J
800.458	3.05	1119277	PROB	3.05	n/a	n/a	-999	7	[3, 2, 4]	9	FR1	0	R1065J
803.508	2.917	1122327	PROB	2.917	n/a	n/a	-999	7	[4, 5, 3]	12	FR1	0	R1065J
806.425	3.766	1125244	PROB	3.766	n/a	n/a	-999	7	[4, 3, 9]	16	FR1	0	R1065J
810.191	3.122	1129010	PROB	3.122	n/a	n/a	-999	7	[8, 8, 5]	23	FR1	0	R1065J
813.313	0.012	1132132	STOP	n/a	n/a	n/a	-999	7	[-999, -999, -999]	n/a	FR1	0	R1065J
813.325	1.168	1132144	DISTRACT_END	n/a	n/a	n/a	-999	7	[0, 0, 0]	n/a	FR1	0	R1065J
814.493	2.215	1133312	REC_START	n/a	n/a	n/a	-999	7	[0, 0, 0]	n/a	FR1	0	R1065J
816.708	2.451	1135527	REC_WORD	2.451	n/a	EAR	-999	7	[0, 0, 0]	n/a	FR1	0	R1065J
819.159	2.088	1137978	REC_WORD_VV	2.088	n/a	<>	-999	7	[0, 0, 0]	n/a	FR1	0	R1065J
821.247	10.014	1140066	REC_WORD_VV	10.014	n/a	<>	-999	7	[0, 0, 0]	n/a	FR1	0	R1065J
831.261	12.463	1150080	REC_WORD	12.463	n/a	STAR	-999	7	[0, 0, 0]	n/a	FR1	0	R1065J
843.724	0.783	1162543	REC_WORD_VV	0.783	n/a	<>	-999	7	[0, 0, 0]	n/a	FR1	0	R1065J
844.507	11.025	1163326	REC_END	n/a	n/a	n/a	-999	7	[0, 0, 0]	n/a	FR1	0	R1065J
855.532	0.001	1174351	COUNTDOWN_START	n/a	n/a	n/a	-999	8	[0, 0, 0]	n/a	FR1	0	R1065J
855.533	10.427	1174352	TRIAL	n/a	n/a	n/a	-999	8	[0, 0, 0]	n/a	FR1	0	R1065J
865.96	0.006	1184779	COUNTDOWN_END	n/a	n/a	n/a	-999	8	[0, 0, 0]	n/a	FR1	0	R1065J
865.966	2.568	1184785	ORIENT	n/a	n/a	n/a	-999	8	[0, 0, 0]	n/a	FR1	0	R1065J
868.534	2.433	1187353	WORD	n/a	wordpools/wordpool_EN.txt	CLOCK	1	8	[0, 0, 0]	n/a	FR1	0	R1065J
870.967	2.401	1189786	WORD	n/a	wordpools/wordpool_EN.txt	FORT	2	8	[0, 0, 0]	n/a	FR1	0	R1065J
873.368	2.416	1192187	WORD	n/a	wordpools/wordpool_EN.txt	PIE	3	8	[0, 0, 0]	n/a	FR1	0	R1065J
875.784	2.5	1194603	WORD	n/a	wordpools/wordpool_EN.txt	VAN	4	8	[0, 0, 0]	n/a	FR1	0	R1065J
878.284	2.584	1197103	WORD	n/a	wordpools/wordpool_EN.txt	FLEA	5	8	[0, 0, 0]	n/a	FR1	0	R1065J
880.868	2.434	1199687	WORD	n/a	wordpools/wordpool_EN.txt	SHIELD	6	8	[0, 0, 0]	n/a	FR1	0	R1065J
883.302	2.4	1202121	WORD	n/a	wordpools/wordpool_EN.txt	WEED	7	8	[0, 0, 0]	n/a	FR1	0	R1065J
885.702	2.501	1204522	WORD	n/a	wordpools/wordpool_EN.txt	CAR	8	8	[0, 0, 0]	n/a	FR1	0	R1065J
888.203	2.416	1207023	WORD	n/a	wordpools/wordpool_EN.txt	CONE	9	8	[0, 0, 0]	n/a	FR1	0	R1065J
890.619	2.451	1209439	WORD	n/a	wordpools/wordpool_EN.txt	JAIL	10	8	[0, 0, 0]	n/a	FR1	0	R1065J
893.07	2.567	1211890	WORD	n/a	wordpools/wordpool_EN.txt	PHONE	11	8	[0, 0, 0]	n/a	FR1	0	R1065J
895.637	1.617	1214457	WORD	n/a	wordpools/wordpool_EN.txt	BAND	12	8	[0, 0, 0]	n/a	FR1	0	R1065J
897.254	0.0	1216074	DISTRACT_START	n/a	n/a	n/a	-999	8	[0, 0, 0]	n/a	FR1	0	R1065J
897.254	0.017	1216074	START	n/a	n/a	n/a	-999	8	[-999, -999, -999]	n/a	FR1	0	R1065J
897.271	2.983	1216091	PROB	2.983	n/a	n/a	-999	8	[5, 1, 3]	9	FR1	0	R1065J
900.254	3.501	1219074	PROB	3.501	n/a	n/a	-999	8	[3, 7, 2]	12	FR1	0	R1065J
903.755	2.585	1222575	PROB	2.585	n/a	n/a	-999	8	[1, 7, 5]	13	FR1	0	R1065J
906.34	2.382	1225160	PROB	2.382	n/a	n/a	-999	8	[2, 3, 1]	6	FR1	0	R1065J
908.722	2.735	1227542	PROB	2.735	n/a	n/a	-999	8	[6, 8, 1]	15	FR1	0	R1065J
911.457	5.1	1230277	PROB	5.1	n/a	n/a	-999	8	[9, 4, 1]	14	FR1	0	R1065J
916.557	4.192	1235377	PROB	4.192	n/a	n/a	-999	8	[9, 5, 4]	18	FR1	0	R1065J
920.749	0.008	1239569	STOP	n/a	n/a	n/a	-999	8	[-999, -999, -999]	n/a	FR1	0	R1065J
920.757	1.084	1239577	DISTRACT_END	n/a	n/a	n/a	-999	8	[0, 0, 0]	n/a	FR1	0	R1065J
921.841	0.809	1240661	REC_START	n/a	n/a	n/a	-999	8	[0, 0, 0]	n/a	FR1	0	R1065J
922.65	1.476	1241470	REC_WORD_VV	1.476	n/a	<>	-999	8	[0, 0, 0]	n/a	FR1	0	R1065J
924.126	2.13	1242946	REC_WORD	2.13	n/a	PIE	-999	8	[0, 0, 0]	n/a	FR1	0	R1065J
926.256	8.206	1245076	REC_WORD	8.206	n/a	CLOCK	-999	8	[0, 0, 0]	n/a	FR1	0	R1065J
934.462	4.217	1253282	REC_WORD	4.217	n/a	JAIL	-999	8	[0, 0, 0]	n/a	FR1	0	R1065J
938.679	10.214	1257499	REC_WORD	10.214	n/a	FORT	-999	8	[0, 0, 0]	n/a	FR1	0	R1065J
948.893	2.962	1267713	REC_WORD	2.962	n/a	CAR	-999	8	[0, 0, 0]	n/a	FR1	0	R1065J
951.855	4.407	1270675	REC_END	n/a	n/a	n/a	-999	8	[0, 0, 0]	n/a	FR1	0	R1065J
956.262	0.0	1275082	COUNTDOWN_START	n/a	n/a	n/a	-999	9	[0, 0, 0]	n/a	FR1	0	R1065J
956.262	10.428	1275082	TRIAL	n/a	n/a	n/a	-999	9	[0, 0, 0]	n/a	FR1	0	R1065J
966.69	0.007	1285510	COUNTDOWN_END	n/a	n/a	n/a	-999	9	[0, 0, 0]	n/a	FR1	0	R1065J
966.697	2.501	1285517	ORIENT	n/a	n/a	n/a	-999	9	[0, 0, 0]	n/a	FR1	0	R1065J
969.198	2.516	1288018	WORD	n/a	wordpools/wordpool_EN.txt	STONE	1	9	[0, 0, 0]	n/a	FR1	0	R1065J
971.714	2.434	1290534	WORD	n/a	wordpools/wordpool_EN.txt	HORN	2	9	[0, 0, 0]	n/a	FR1	0	R1065J
974.148	2.567	1292968	WORD	n/a	wordpools/wordpool_EN.txt	SPEAR	3	9	[0, 0, 0]	n/a	FR1	0	R1065J
976.715	2.567	1295535	WORD	n/a	wordpools/wordpool_EN.txt	BUSH	4	9	[0, 0, 0]	n/a	FR1	0	R1065J
979.282	2.467	1298102	WORD	n/a	wordpools/wordpool_EN.txt	DRUM	5	9	[0, 0, 0]	n/a	FR1	0	R1065J
981.749	2.367	1300569	WORD	n/a	wordpools/wordpool_EN.txt	PEAR	6	9	[0, 0, 0]	n/a	FR1	0	R1065J
984.116	2.467	1302936	WORD	n/a	wordpools/wordpool_EN.txt	SWAMP	7	9	[0, 0, 0]	n/a	FR1	0	R1065J
986.583	2.417	1305403	WORD	n/a	wordpools/wordpool_EN.txt	FOX	8	9	[0, 0, 0]	n/a	FR1	0	R1065J
989.0	2.468	1307820	WORD	n/a	wordpools/wordpool_EN.txt	LEAF	9	9	[0, 0, 0]	n/a	FR1	0	R1065J
991.468	2.416	1310288	WORD	n/a	wordpools/wordpool_EN.txt	CHIEF	10	9	[0, 0, 0]	n/a	FR1	0	R1065J
993.884	2.434	1312704	WORD	n/a	wordpools/wordpool_EN.txt	FLUTE	11	9	[0, 0, 0]	n/a	FR1	0	R1065J
996.318	1.617	1315138	WORD	n/a	wordpools/wordpool_EN.txt	PLANT	12	9	[0, 0, 0]	n/a	FR1	0	R1065J
997.935	0.001	1316755	DISTRACT_START	n/a	n/a	n/a	-999	9	[0, 0, 0]	n/a	FR1	0	R1065J
997.936	0.016	1316756	START	n/a	n/a	n/a	-999	9	[-999, -999, -999]	n/a	FR1	0	R1065J
997.952	2.716	1316772	PROB	2.716	n/a	n/a	-999	9	[4, 6, 1]	11	FR1	0	R1065J
1000.668	3.884	1319489	PROB	3.884	n/a	n/a	-999	9	[4, 5, 5]	14	FR1	0	R1065J
1004.552	2.367	1323373	PROB	2.367	n/a	n/a	-999	9	[2, 7, 5]	14	FR1	0	R1065J
1006.919	2.117	1325740	PROB	2.117	n/a	n/a	-999	9	[3, 3, 5]	11	FR1	0	R1065J
1009.036	2.517	1327857	PROB	2.517	n/a	n/a	-999	9	[5, 5, 8]	18	FR1	0	R1065J
1011.553	2.835	1330374	PROB	2.835	n/a	n/a	-999	9	[2, 1, 3]	6	FR1	0	R1065J
1014.388	3.591	1333209	PROB	3.591	n/a	n/a	-999	9	[6, 9, 4]	19	FR1	0	R1065J
1017.979	0.009	1336800	STOP	n/a	n/a	n/a	-999	9	[-999, -999, -999]	n/a	FR1	0	R1065J
1017.988	1.034	1336809	DISTRACT_END	n/a	n/a	n/a	-999	9	[0, 0, 0]	n/a	FR1	0	R1065J
1019.022	2.638	1337843	REC_START	n/a	n/a	n/a	-999	9	[0, 0, 0]	n/a	FR1	0	R1065J
1021.66	2.081	1340481	REC_WORD	2.081	n/a	BUSH	-999	9	[0, 0, 0]	n/a	FR1	0	R1065J
1023.741	4.516	1342562	REC_WORD	4.516	n/a	DRUM	-999	9	[0, 0, 0]	n/a	FR1	0	R1065J
1028.257	3.615	1347078	REC_WORD	3.615	n/a	FLUTE	-999	9	[0, 0, 0]	n/a	FR1	0	R1065J
1031.872	14.196	1350693	REC_WORD	14.196	n/a	PEAR	-999	9	[0, 0, 0]	n/a	FR1	0	R1065J
1046.068	2.964	1364889	REC_WORD	2.964	n/a	HORN	-999	9	[0, 0, 0]	n/a	FR1	0	R1065J
1049.032	4.462	1367853	REC_END	n/a	n/a	n/a	-999	9	[0, 0, 0]	n/a	FR1	0	R1065J
1053.494	0.0	1372315	TRIAL	n/a	n/a	n/a	-999	10	[0, 0, 0]	n/a	FR1	0	R1065J
1053.494	10.428	1372315	COUNTDOWN_START	n/a	n/a	n/a	-999	10	[0, 0, 0]	n/a	FR1	0	R1065J
1063.922	0.005	1382743	COUNTDOWN_END	n/a	n/a	n/a	-999	10	[0, 0, 0]	n/a	FR1	0	R1065J
1063.927	2.419	1382748	ORIENT	n/a	n/a	n/a	-999	10	[0, 0, 0]	n/a	FR1	0	R1065J
1066.346	2.532	1385167	WORD	n/a	wordpools/wordpool_EN.txt	FOOT	1	10	[0, 0, 0]	n/a	FR1	0	R1065J
1068.878	2.601	1387699	WORD	n/a	wordpools/wordpool_EN.txt	MOON	2	10	[0, 0, 0]	n/a	FR1	0	R1065J
1071.479	2.583	1390300	WORD	n/a	wordpools/wordpool_EN.txt	PALM	3	10	[0, 0, 0]	n/a	FR1	0	R1065J
1074.062	2.634	1392883	WORD	n/a	wordpools/wordpool_EN.txt	STORM	4	10	[0, 0, 0]	n/a	FR1	0	R1065J
1076.696	2.55	1395517	WORD	n/a	wordpools/wordpool_EN.txt	FORK	5	10	[0, 0, 0]	n/a	FR1	0	R1065J
1079.246	2.501	1398067	WORD	n/a	wordpools/wordpool_EN.txt	SNAIL	6	10	[0, 0, 0]	n/a	FR1	0	R1065J
1081.747	2.517	1400568	WORD	n/a	wordpools/wordpool_EN.txt	OAR	7	10	[0, 0, 0]	n/a	FR1	0	R1065J
1084.264	2.517	1403085	WORD	n/a	wordpools/wordpool_EN.txt	CLOUD	8	10	[0, 0, 0]	n/a	FR1	0	R1065J
1086.781	2.484	1405602	WORD	n/a	wordpools/wordpool_EN.txt	BOAT	9	10	[0, 0, 0]	n/a	FR1	0	R1065J
1089.265	2.4	1408086	WORD	n/a	wordpools/wordpool_EN.txt	OAK	10	10	[0, 0, 0]	n/a	FR1	0	R1065J
1091.665	2.45	1410486	WORD	n/a	wordpools/wordpool_EN.txt	STOOL	11	10	[0, 0, 0]	n/a	FR1	0	R1065J
1094.115	1.617	1412936	WORD	n/a	wordpools/wordpool_EN.txt	BEACH	12	10	[0, 0, 0]	n/a	FR1	0	R1065J
1095.732	0.001	1414553	DISTRACT_START	n/a	n/a	n/a	-999	10	[0, 0, 0]	n/a	FR1	0	R1065J
1095.733	0.016	1414554	START	n/a	n/a	n/a	-999	10	[-999, -999, -999]	n/a	FR1	0	R1065J
1095.749	3.768	1414570	PROB	3.768	n/a	n/a	-999	10	[7, 5, 7]	17	FR1	0	R1065J
1099.517	3.199	1418338	PROB	3.199	n/a	n/a	-999	10	[8, 6, 4]	18	FR1	0	R1065J
1102.716	2.884	1421537	PROB	2.884	n/a	n/a	-999	10	[7, 5, 5]	17	FR1	0	R1065J
1105.6	3.001	1424421	PROB	3.001	n/a	n/a	-999	10	[6, 7, 1]	14	FR1	0	R1065J
1108.601	3.067	1427422	PROB	3.067	n/a	n/a	-999	10	[9, 9, 4]	22	FR1	0	R1065J
1111.668	2.983	1430489	PROB	2.983	n/a	n/a	-999	10	[6, 9, 2]	17	FR1	0	R1065J
1114.651	2.557	1433473	PROB	2.557	n/a	n/a	-999	10	[4, 6, 8]	18	FR1	0	R1065J
1117.208	0.01	1436030	STOP	n/a	n/a	n/a	-999	10	[-999, -999, -999]	n/a	FR1	0	R1065J
1117.218	1.068	1436040	DISTRACT_END	n/a	n/a	n/a	-999	10	[0, 0, 0]	n/a	FR1	0	R1065J
1118.286	1.895	1437108	REC_START	n/a	n/a	n/a	-999	10	[0, 0, 0]	n/a	FR1	0	R1065J
1120.181	1.806	1439003	REC_WORD	1.806	n/a	FOOT	-999	10	[0, 0, 0]	n/a	FR1	0	R1065J
1121.987	1.773	1440809	REC_WORD	1.773	n/a	PALM	-999	10	[0, 0, 0]	n/a	FR1	0	R1065J
1123.76	2.885	1442582	REC_WORD	2.885	n/a	STORM	-999	10	[0, 0, 0]	n/a	FR1	0	R1065J
1126.645	21.651	1445467	REC_WORD	21.651	n/a	CLOUD	-999	10	[0, 0, 0]	n/a	FR1	0	R1065J
1148.296	5.994	1467118	REC_END	n/a	n/a	n/a	-999	10	[0, 0, 0]	n/a	FR1	0	R1065J
1154.29	0.001	1473112	COUNTDOWN_START	n/a	n/a	n/a	-999	11	[0, 0, 0]	n/a	FR1	0	R1065J
1154.291	10.427	1473113	TRIAL	n/a	n/a	n/a	-999	11	[0, 0, 0]	n/a	FR1	0	R1065J
1164.718	0.007	1483540	COUNTDOWN_END	n/a	n/a	n/a	-999	11	[0, 0, 0]	n/a	FR1	0	R1065J
1164.725	2.584	1483547	ORIENT	n/a	n/a	n/a	-999	11	[0, 0, 0]	n/a	FR1	0	R1065J
1167.309	2.483	1486131	WORD	n/a	wordpools/wordpool_EN.txt	STREET	1	11	[0, 0, 0]	n/a	FR1	0	R1065J
1169.792	2.501	1488614	WORD	n/a	wordpools/wordpool_EN.txt	CAGE	2	11	[0, 0, 0]	n/a	FR1	0	R1065J
1172.293	2.467	1491115	WORD	n/a	wordpools/wordpool_EN.txt	DIME	3	11	[0, 0, 0]	n/a	FR1	0	R1065J
1174.76	2.567	1493582	WORD	n/a	wordpools/wordpool_EN.txt	SLIME	4	11	[0, 0, 0]	n/a	FR1	0	R1065J
1177.327	2.534	1496149	WORD	n/a	wordpools/wordpool_EN.txt	PANTS	5	11	[0, 0, 0]	n/a	FR1	0	R1065J
1179.861	2.618	1498683	WORD	n/a	wordpools/wordpool_EN.txt	SINK	6	11	[0, 0, 0]	n/a	FR1	0	R1065J
1182.479	2.399	1501301	WORD	n/a	wordpools/wordpool_EN.txt	FUR	7	11	[0, 0, 0]	n/a	FR1	0	R1065J
1184.878	2.384	1503700	WORD	n/a	wordpools/wordpool_EN.txt	AXE	8	11	[0, 0, 0]	n/a	FR1	0	R1065J
1187.262	2.567	1506084	WORD	n/a	wordpools/wordpool_EN.txt	TRAIN	9	11	[0, 0, 0]	n/a	FR1	0	R1065J
1189.829	2.383	1508651	WORD	n/a	wordpools/wordpool_EN.txt	SLEEVE	10	11	[0, 0, 0]	n/a	FR1	0	R1065J
1192.212	2.501	1511034	WORD	n/a	wordpools/wordpool_EN.txt	TIE	11	11	[0, 0, 0]	n/a	FR1	0	R1065J
1194.713	1.617	1513535	WORD	n/a	wordpools/wordpool_EN.txt	HAND	12	11	[0, 0, 0]	n/a	FR1	0	R1065J
1196.33	0.0	1515152	DISTRACT_START	n/a	n/a	n/a	-999	11	[0, 0, 0]	n/a	FR1	0	R1065J
1196.33	0.017	1515152	START	n/a	n/a	n/a	-999	11	[-999, -999, -999]	n/a	FR1	0	R1065J
1196.347	3.001	1515169	PROB	3.001	n/a	n/a	-999	11	[4, 1, 6]	11	FR1	0	R1065J
1199.348	2.566	1518170	PROB	2.566	n/a	n/a	-999	11	[9, 1, 5]	15	FR1	0	R1065J
1201.914	2.551	1520736	PROB	2.551	n/a	n/a	-999	11	[6, 7, 1]	14	FR1	0	R1065J
1204.465	2.516	1523287	PROB	2.516	n/a	n/a	-999	11	[9, 2, 8]	19	FR1	0	R1065J
1206.981	2.267	1525803	PROB	2.267	n/a	n/a	-999	11	[1, 1, 4]	6	FR1	0	R1065J
1209.248	5.984	1528070	PROB	5.984	n/a	n/a	-999	11	[9, 9, 8]	24	FR1	0	R1065J
1215.232	2.223	1534054	PROB	2.223	n/a	n/a	-999	11	[1, 3, 7]	11	FR1	0	R1065J
1217.455	0.012	1536277	STOP	n/a	n/a	n/a	-999	11	[-999, -999, -999]	n/a	FR1	0	R1065J
1217.467	1.067	1536289	DISTRACT_END	n/a	n/a	n/a	-999	11	[0, 0, 0]	n/a	FR1	0	R1065J
1218.534	2.124	1537356	REC_START	n/a	n/a	n/a	-999	11	[0, 0, 0]	n/a	FR1	0	R1065J
1220.658	1.936	1539480	REC_WORD	1.936	n/a	PANTS	-999	11	[0, 0, 0]	n/a	FR1	0	R1065J
1222.594	2.744	1541416	REC_WORD	2.744	n/a	SLEEVE	-999	11	[0, 0, 0]	n/a	FR1	0	R1065J
1225.338	8.728	1544160	REC_WORD	8.728	n/a	TIE	-999	11	[0, 0, 0]	n/a	FR1	0	R1065J
1234.066	14.481	1552889	REC_WORD_VV	14.481	n/a	<>	-999	11	[0, 0, 0]	n/a	FR1	0	R1065J
1248.547	6.241	1567370	REC_END	n/a	n/a	n/a	-999	11	[0, 0, 0]	n/a	FR1	0	R1065J
1254.788	0.0	1573611	TRIAL	n/a	n/a	n/a	-999	12	[0, 0, 0]	n/a	FR1	0	R1065J
1254.788	10.428	1573611	COUNTDOWN_START	n/a	n/a	n/a	-999	12	[0, 0, 0]	n/a	FR1	0	R1065J
1265.216	0.007	1584039	COUNTDOWN_END	n/a	n/a	n/a	-999	12	[0, 0, 0]	n/a	FR1	0	R1065J
1265.223	2.4	1584046	ORIENT	n/a	n/a	n/a	-999	12	[0, 0, 0]	n/a	FR1	0	R1065J
1267.623	2.517	1586446	WORD	n/a	wordpools/wordpool_EN.txt	LAKE	1	12	[0, 0, 0]	n/a	FR1	0	R1065J
1270.14	2.517	1588963	WORD	n/a	wordpools/wordpool_EN.txt	MOUTH	2	12	[0, 0, 0]	n/a	FR1	0	R1065J
1272.657	2.534	1591480	WORD	n/a	wordpools/wordpool_EN.txt	PEACH	3	12	[0, 0, 0]	n/a	FR1	0	R1065J
1275.191	2.534	1594014	WORD	n/a	wordpools/wordpool_EN.txt	SQUARE	4	12	[0, 0, 0]	n/a	FR1	0	R1065J
1277.725	2.5	1596548	WORD	n/a	wordpools/wordpool_EN.txt	BLOOM	5	12	[0, 0, 0]	n/a	FR1	0	R1065J
1280.225	2.533	1599048	WORD	n/a	wordpools/wordpool_EN.txt	BIRD	6	12	[0, 0, 0]	n/a	FR1	0	R1065J
1282.758	2.401	1601581	WORD	n/a	wordpools/wordpool_EN.txt	TAIL	7	12	[0, 0, 0]	n/a	FR1	0	R1065J
1285.159	2.534	1603982	WORD	n/a	wordpools/wordpool_EN.txt	LAND	8	12	[0, 0, 0]	n/a	FR1	0	R1065J
1287.693	2.6	1606516	WORD	n/a	wordpools/wordpool_EN.txt	FACE	9	12	[0, 0, 0]	n/a	FR1	0	R1065J
1290.293	2.5	1609116	WORD	n/a	wordpools/wordpool_EN.txt	HAWK	10	12	[0, 0, 0]	n/a	FR1	0	R1065J
1292.793	2.484	1611616	WORD	n/a	wordpools/wordpool_EN.txt	EEL	11	12	[0, 0, 0]	n/a	FR1	0	R1065J
1295.277	1.617	1614100	WORD	n/a	wordpools/wordpool_EN.txt	SIGN	12	12	[0, 0, 0]	n/a	FR1	0	R1065J
1296.894	0.001	1615717	DISTRACT_START	n/a	n/a	n/a	-999	12	[0, 0, 0]	n/a	FR1	0	R1065J
1296.895	0.016	1615718	START	n/a	n/a	n/a	-999	12	[-999, -999, -999]	n/a	FR1	0	R1065J
1296.911	4.435	1615734	PROB	4.435	n/a	n/a	-999	12	[4, 6, 4]	24	FR1	0	R1065J
1301.346	2.832	1620169	PROB	2.832	n/a	n/a	-999	12	[1, 9, 8]	18	FR1	0	R1065J
1304.178	2.551	1623001	PROB	2.551	n/a	n/a	-999	12	[3, 5, 8]	16	FR1	0	R1065J
1306.729	2.417	1625552	PROB	2.417	n/a	n/a	-999	12	[3, 7, 4]	14	FR1	0	R1065J
1309.146	3.033	1627969	PROB	3.033	n/a	n/a	-999	12	[3, 4, 8]	15	FR1	0	R1065J
1312.179	3.134	1631002	PROB	3.134	n/a	n/a	-999	12	[7, 5, 6]	19	FR1	0	R1065J
1315.313	4.035	1634136	PROB	4.035	n/a	n/a	-999	12	[9, 2, 6]	17	FR1	0	R1065J
1319.348	0.017	1638171	STOP	n/a	n/a	n/a	-999	12	[-999, -999, -999]	n/a	FR1	0	R1065J
1319.365	1.1	1638188	DISTRACT_END	n/a	n/a	n/a	-999	12	[0, 0, 0]	n/a	FR1	0	R1065J
1320.465	1.978	1639288	REC_START	n/a	n/a	n/a	-999	12	[0, 0, 0]	n/a	FR1	0	R1065J
1322.443	1.977	1641266	REC_WORD	1.977	n/a	MOUTH	-999	12	[0, 0, 0]	n/a	FR1	0	R1065J
1324.42	2.403	1643243	REC_WORD	2.403	n/a	PEACH	-999	12	[0, 0, 0]	n/a	FR1	0	R1065J
1326.823	8.059	1645646	REC_WORD	8.059	n/a	SQUARE	-999	12	[0, 0, 0]	n/a	FR1	0	R1065J
1334.882	12.921	1653705	REC_WORD	12.921	n/a	FACE	-999	12	[0, 0, 0]	n/a	FR1	0	R1065J
1347.803	2.673	1666627	REC_WORD	2.673	n/a	HAWK	-999	12	[0, 0, 0]	n/a	FR1	0	R1065J
1350.476	5.526	1669300	REC_END	n/a	n/a	n/a	-999	12	[0, 0, 0]	n/a	FR1	0	R1065J
1356.002	0.001	1674826	COUNTDOWN_START	n/a	n/a	n/a	-999	13	[0, 0, 0]	n/a	FR1	0	R1065J
1356.003	10.427	1674827	TRIAL	n/a	n/a	n/a	-999	13	[0, 0, 0]	n/a	FR1	0	R1065J
1366.43	0.008	1685254	COUNTDOWN_END	n/a	n/a	n/a	-999	13	[0, 0, 0]	n/a	FR1	0	R1065J
1366.438	2.483	1685262	ORIENT	n/a	n/a	n/a	-999	13	[0, 0, 0]	n/a	FR1	0	R1065J
1368.921	2.551	1687745	WORD	n/a	wordpools/wordpool_EN.txt	SHEEP	1	13	[0, 0, 0]	n/a	FR1	0	R1065J
1371.472	2.4	1690296	WORD	n/a	wordpools/wordpool_EN.txt	GOAT	2	13	[0, 0, 0]	n/a	FR1	0	R1065J
1373.872	2.584	1692696	WORD	n/a	wordpools/wordpool_EN.txt	MOOSE	3	13	[0, 0, 0]	n/a	FR1	0	R1065J
1376.456	2.483	1695280	WORD	n/a	wordpools/wordpool_EN.txt	MAIL	4	13	[0, 0, 0]	n/a	FR1	0	R1065J
1378.939	2.551	1697763	WORD	n/a	wordpools/wordpool_EN.txt	SKI	5	13	[0, 0, 0]	n/a	FR1	0	R1065J
1381.49	2.45	1700314	WORD	n/a	wordpools/wordpool_EN.txt	BREAD	6	13	[0, 0, 0]	n/a	FR1	0	R1065J
1383.94	2.534	1702764	WORD	n/a	wordpools/wordpool_EN.txt	HAT	7	13	[0, 0, 0]	n/a	FR1	0	R1065J
1386.474	2.466	1705298	WORD	n/a	wordpools/wordpool_EN.txt	BADGE	8	13	[0, 0, 0]	n/a	FR1	0	R1065J
1388.94	2.367	1707764	WORD	n/a	wordpools/wordpool_EN.txt	RICE	9	13	[0, 0, 0]	n/a	FR1	0	R1065J
1391.307	2.517	1710131	WORD	n/a	wordpools/wordpool_EN.txt	SNOW	10	13	[0, 0, 0]	n/a	FR1	0	R1065J
1393.824	2.384	1712648	WORD	n/a	wordpools/wordpool_EN.txt	FOG	11	13	[0, 0, 0]	n/a	FR1	0	R1065J
1396.208	1.617	1715032	WORD	n/a	wordpools/wordpool_EN.txt	STORE	12	13	[0, 0, 0]	n/a	FR1	0	R1065J
1397.825	0.001	1716649	DISTRACT_START	n/a	n/a	n/a	-999	13	[0, 0, 0]	n/a	FR1	0	R1065J
1397.826	0.016	1716650	START	n/a	n/a	n/a	-999	13	[-999, -999, -999]	n/a	FR1	0	R1065J
1397.842	3.367	1716666	PROB	3.367	n/a	n/a	-999	13	[9, 5, 6]	20	FR1	0	R1065J
1401.209	2.7	1720033	PROB	2.7	n/a	n/a	-999	13	[1, 8, 7]	16	FR1	0	R1065J
1403.909	2.184	1722733	PROB	2.184	n/a	n/a	-999	13	[4, 4, 5]	13	FR1	0	R1065J
1406.093	2.368	1724917	PROB	2.368	n/a	n/a	-999	13	[7, 4, 7]	18	FR1	0	R1065J
1408.461	2.266	1727285	PROB	2.266	n/a	n/a	-999	13	[2, 8, 7]	17	FR1	0	R1065J
1410.727	4.4	1729551	PROB	4.4	n/a	n/a	-999	13	[9, 3, 4]	16	FR1	0	R1065J
1415.127	2.268	1733951	PROB	2.268	n/a	n/a	-999	13	[9, 6, 1]	16	FR1	0	R1065J
1417.395	2.781	1736219	PROB	2.781	n/a	n/a	-999	13	[8, 6, 6]	20	FR1	0	R1065J
1420.176	0.019	1739000	STOP	n/a	n/a	n/a	-999	13	[-999, -999, -999]	n/a	FR1	0	R1065J
1420.195	1.134	1739019	DISTRACT_END	n/a	n/a	n/a	-999	13	[0, 0, 0]	n/a	FR1	0	R1065J
1421.329	3.904	1740153	REC_START	n/a	n/a	n/a	-999	13	[0, 0, 0]	n/a	FR1	0	R1065J
1425.233	1.688	1744057	REC_WORD	1.688	n/a	TIE	-999	13	[0, 0, 0]	n/a	FR1	0	R1065J
1426.921	2.09	1745745	REC_WORD	2.09	n/a	HAT	-999	13	[0, 0, 0]	n/a	FR1	0	R1065J
1429.011	5.494	1747835	REC_WORD	5.494	n/a	BADGE	-999	13	[0, 0, 0]	n/a	FR1	0	R1065J
1434.505	2.035	1753329	REC_WORD	2.035	n/a	MOOSE	-999	13	[0, 0, 0]	n/a	FR1	0	R1065J
1436.54	9.734	1755364	REC_WORD	9.734	n/a	SHEEP	-999	13	[0, 0, 0]	n/a	FR1	0	R1065J
1446.274	5.066	1765098	REC_WORD	5.066	n/a	GOAT	-999	13	[0, 0, 0]	n/a	FR1	0	R1065J
1451.34	5.527	1770164	REC_END	n/a	n/a	n/a	-999	13	[0, 0, 0]	n/a	FR1	0	R1065J
1456.867	0.0	1775692	TRIAL	n/a	n/a	n/a	-999	14	[0, 0, 0]	n/a	FR1	0	R1065J
1456.867	10.428	1775692	COUNTDOWN_START	n/a	n/a	n/a	-999	14	[0, 0, 0]	n/a	FR1	0	R1065J
1467.295	0.006	1786120	COUNTDOWN_END	n/a	n/a	n/a	-999	14	[0, 0, 0]	n/a	FR1	0	R1065J
1467.301	2.501	1786126	ORIENT	n/a	n/a	n/a	-999	14	[0, 0, 0]	n/a	FR1	0	R1065J
1469.802	2.4	1788627	WORD	n/a	wordpools/wordpool_EN.txt	GLASS	1	14	[0, 0, 0]	n/a	FR1	0	R1065J
1472.202	2.467	1791027	WORD	n/a	wordpools/wordpool_EN.txt	MUG	2	14	[0, 0, 0]	n/a	FR1	0	R1065J
1474.669	2.617	1793494	WORD	n/a	wordpools/wordpool_EN.txt	SOCK	3	14	[0, 0, 0]	n/a	FR1	0	R1065J
1477.286	2.467	1796111	WORD	n/a	wordpools/wordpool_EN.txt	FLOOR	4	14	[0, 0, 0]	n/a	FR1	0	R1065J
1479.753	2.367	1798578	WORD	n/a	wordpools/wordpool_EN.txt	SHOE	5	14	[0, 0, 0]	n/a	FR1	0	R1065J
1482.12	2.467	1800945	WORD	n/a	wordpools/wordpool_EN.txt	JAR	6	14	[0, 0, 0]	n/a	FR1	0	R1065J
1484.587	2.567	1803412	WORD	n/a	wordpools/wordpool_EN.txt	ELF	7	14	[0, 0, 0]	n/a	FR1	0	R1065J
1487.154	2.417	1805979	WORD	n/a	wordpools/wordpool_EN.txt	TANK	8	14	[0, 0, 0]	n/a	FR1	0	R1065J
1489.571	2.517	1808396	WORD	n/a	wordpools/wordpool_EN.txt	POOL	9	14	[0, 0, 0]	n/a	FR1	0	R1065J
1492.088	2.435	1810913	WORD	n/a	wordpools/wordpool_EN.txt	ROOM	10	14	[0, 0, 0]	n/a	FR1	0	R1065J
1494.523	2.566	1813348	WORD	n/a	wordpools/wordpool_EN.txt	CANE	11	14	[0, 0, 0]	n/a	FR1	0	R1065J
1497.089	1.617	1815914	WORD	n/a	wordpools/wordpool_EN.txt	RUG	12	14	[0, 0, 0]	n/a	FR1	0	R1065J
1498.706	0.001	1817531	DISTRACT_START	n/a	n/a	n/a	-999	14	[0, 0, 0]	n/a	FR1	0	R1065J
1498.707	0.016	1817532	START	n/a	n/a	n/a	-999	14	[-999, -999, -999]	n/a	FR1	0	R1065J
1498.723	3.467	1817548	PROB	3.467	n/a	n/a	-999	14	[4, 4, 4]	12	FR1	0	R1065J
1502.19	2.067	1821015	PROB	2.067	n/a	n/a	-999	14	[1, 3, 8]	12	FR1	0	R1065J
1504.257	3.684	1823082	PROB	3.684	n/a	n/a	-999	14	[7, 1, 8]	16	FR1	0	R1065J
1507.941	7.084	1826766	PROB	7.084	n/a	n/a	-999	14	[4, 2, 9]	15	FR1	0	R1065J
1515.025	2.55	1833850	PROB	2.55	n/a	n/a	-999	14	[6, 6, 9]	21	FR1	0	R1065J
1517.575	2.742	1836400	PROB	2.742	n/a	n/a	-999	14	[6, 4, 6]	16	FR1	0	R1065J
1520.317	0.009	1839142	STOP	n/a	n/a	n/a	-999	14	[-999, -999, -999]	n/a	FR1	0	R1065J
1520.326	1.085	1839151	DISTRACT_END	n/a	n/a	n/a	-999	14	[0, 0, 0]	n/a	FR1	0	R1065J
1521.411	3.001	1840236	REC_START	n/a	n/a	n/a	-999	14	[0, 0, 0]	n/a	FR1	0	R1065J
1524.412	2.211	1843237	REC_WORD	2.211	n/a	ROOM	-999	14	[0, 0, 0]	n/a	FR1	0	R1065J
1526.623	3.834	1845448	REC_WORD	3.834	n/a	TANK	-999	14	[0, 0, 0]	n/a	FR1	0	R1065J
1530.457	4.939	1849282	REC_WORD	4.939	n/a	SOCK	-999	14	[0, 0, 0]	n/a	FR1	0	R1065J
1535.396	11.333	1854221	REC_WORD	11.333	n/a	SHOE	-999	14	[0, 0, 0]	n/a	FR1	0	R1065J
1546.729	4.691	1865554	REC_WORD	4.691	n/a	ELF	-999	14	[0, 0, 0]	n/a	FR1	0	R1065J
1551.42	5.012	1870245	REC_END	n/a	n/a	n/a	-999	14	[0, 0, 0]	n/a	FR1	0	R1065J
1556.432	0.0	1875257	TRIAL	n/a	n/a	n/a	-999	15	[0, 0, 0]	n/a	FR1	0	R1065J
1556.432	10.428	1875257	COUNTDOWN_START	n/a	n/a	n/a	-999	15	[0, 0, 0]	n/a	FR1	0	R1065J
1566.86	0.006	1885685	COUNTDOWN_END	n/a	n/a	n/a	-999	15	[0, 0, 0]	n/a	FR1	0	R1065J
1566.866	2.551	1885691	ORIENT	n/a	n/a	n/a	-999	15	[0, 0, 0]	n/a	FR1	0	R1065J
1569.417	2.432	1888242	WORD	n/a	wordpools/wordpool_EN.txt	CHIN	1	15	[0, 0, 0]	n/a	FR1	0	R1065J
1571.849	2.468	1890675	WORD	n/a	wordpools/wordpool_EN.txt	STRAW	2	15	[0, 0, 0]	n/a	FR1	0	R1065J
1574.317	2.616	1893143	WORD	n/a	wordpools/wordpool_EN.txt	APE	3	15	[0, 0, 0]	n/a	FR1	0	R1065J
1576.933	2.419	1895759	WORD	n/a	wordpools/wordpool_EN.txt	CART	4	15	[0, 0, 0]	n/a	FR1	0	R1065J
1579.352	2.582	1898178	WORD	n/a	wordpools/wordpool_EN.txt	STEAK	5	15	[0, 0, 0]	n/a	FR1	0	R1065J
1581.934	2.617	1900760	WORD	n/a	wordpools/wordpool_EN.txt	VEST	6	15	[0, 0, 0]	n/a	FR1	0	R1065J
1584.551	2.584	1903377	WORD	n/a	wordpools/wordpool_EN.txt	DRESS	7	15	[0, 0, 0]	n/a	FR1	0	R1065J
1587.135	2.6	1905961	WORD	n/a	wordpools/wordpool_EN.txt	BOWL	8	15	[0, 0, 0]	n/a	FR1	0	R1065J
1589.735	2.618	1908561	WORD	n/a	wordpools/wordpool_EN.txt	BENCH	9	15	[0, 0, 0]	n/a	FR1	0	R1065J
1592.353	2.517	1911179	WORD	n/a	wordpools/wordpool_EN.txt	SWORD	10	15	[0, 0, 0]	n/a	FR1	0	R1065J
1594.87	2.433	1913696	WORD	n/a	wordpools/wordpool_EN.txt	GLOVE	11	15	[0, 0, 0]	n/a	FR1	0	R1065J
1597.303	1.617	1916129	WORD	n/a	wordpools/wordpool_EN.txt	GUARD	12	15	[0, 0, 0]	n/a	FR1	0	R1065J
1598.92	0.001	1917746	DISTRACT_START	n/a	n/a	n/a	-999	15	[0, 0, 0]	n/a	FR1	0	R1065J
1598.921	0.016	1917747	START	n/a	n/a	n/a	-999	15	[-999, -999, -999]	n/a	FR1	0	R1065J
1598.937	3.817	1917763	PROB	3.817	n/a	n/a	-999	15	[3, 4, 5]	12	FR1	0	R1065J
1602.754	2.0	1921580	PROB	2.0	n/a	n/a	-999	15	[9, 2, 1]	12	FR1	0	R1065J
1604.754	2.618	1923580	PROB	2.618	n/a	n/a	-999	15	[9, 9, 9]	27	FR1	0	R1065J
1607.372	2.516	1926198	PROB	2.516	n/a	n/a	-999	15	[9, 9, 4]	22	FR1	0	R1065J
1609.888	3.051	1928714	PROB	3.051	n/a	n/a	-999	15	[4, 1, 7]	12	FR1	0	R1065J
1612.939	2.717	1931765	PROB	2.717	n/a	n/a	-999	15	[8, 7, 9]	25	FR1	0	R1065J
1615.656	2.184	1934482	PROB	2.184	n/a	n/a	-999	15	[1, 2, 6]	9	FR1	0	R1065J
1617.84	3.154	1936666	PROB	3.154	n/a	n/a	-999	15	[4, 9, 9]	22	FR1	0	R1065J
1620.994	0.012	1939820	STOP	n/a	n/a	n/a	-999	15	[-999, -999, -999]	n/a	FR1	0	R1065J
1621.006	1.151	1939832	DISTRACT_END	n/a	n/a	n/a	-999	15	[0, 0, 0]	n/a	FR1	0	R1065J
1622.157	2.155	1940983	REC_START	n/a	n/a	n/a	-999	15	[0, 0, 0]	n/a	FR1	0	R1065J
1624.312	2.446	1943138	REC_WORD	2.446	n/a	STRAW	-999	15	[0, 0, 0]	n/a	FR1	0	R1065J
1626.758	6.638	1945584	REC_WORD	6.638	n/a	BOWL	-999	15	[0, 0, 0]	n/a	FR1	0	R1065J
1633.396	18.775	1952222	REC_WORD	18.775	n/a	SWORD	-999	15	[0, 0, 0]	n/a	FR1	0	R1065J
1652.171	4.741	1970997	REC_END	n/a	n/a	n/a	-999	15	[0, 0, 0]	n/a	FR1	0	R1065J
1656.912	0.0	1975738	COUNTDOWN_START	n/a	n/a	n/a	-999	16	[0, 0, 0]	n/a	FR1	0	R1065J
1656.912	10.428	1975738	TRIAL	n/a	n/a	n/a	-999	16	[0, 0, 0]	n/a	FR1	0	R1065J
1667.34	0.008	1986166	COUNTDOWN_END	n/a	n/a	n/a	-999	16	[0, 0, 0]	n/a	FR1	0	R1065J
1667.348	2.582	1986174	ORIENT	n/a	n/a	n/a	-999	16	[0, 0, 0]	n/a	FR1	0	R1065J
1669.93	2.435	1988756	WORD	n/a	wordpools/wordpool_EN.txt	DUCK	1	16	[0, 0, 0]	n/a	FR1	0	R1065J
1672.365	2.499	1991191	WORD	n/a	wordpools/wordpool_EN.txt	CASH	2	16	[0, 0, 0]	n/a	FR1	0	R1065J
1674.864	2.552	1993690	WORD	n/a	wordpools/wordpool_EN.txt	BARN	3	16	[0, 0, 0]	n/a	FR1	0	R1065J
1677.416	2.465	1996242	WORD	n/a	wordpools/wordpool_EN.txt	FROG	4	16	[0, 0, 0]	n/a	FR1	0	R1065J
1679.881	2.602	1998707	WORD	n/a	wordpools/wordpool_EN.txt	POND	5	16	[0, 0, 0]	n/a	FR1	0	R1065J
1682.483	2.516	2001309	WORD	n/a	wordpools/wordpool_EN.txt	ARM	6	16	[0, 0, 0]	n/a	FR1	0	R1065J
1684.999	2.401	2003825	WORD	n/a	wordpools/wordpool_EN.txt	DEER	7	16	[0, 0, 0]	n/a	FR1	0	R1065J
1687.4	2.483	2006227	WORD	n/a	wordpools/wordpool_EN.txt	RAKE	8	16	[0, 0, 0]	n/a	FR1	0	R1065J
1689.883	2.551	2008710	WORD	n/a	wordpools/wordpool_EN.txt	JEEP	9	16	[0, 0, 0]	n/a	FR1	0	R1065J
1692.434	2.4	2011261	WORD	n/a	wordpools/wordpool_EN.txt	PARK	10	16	[0, 0, 0]	n/a	FR1	0	R1065J
1694.834	2.5	2013661	WORD	n/a	wordpools/wordpool_EN.txt	WOLF	11	16	[0, 0, 0]	n/a	FR1	0	R1065J
1697.334	1.617	2016161	WORD	n/a	wordpools/wordpool_EN.txt	ROPE	12	16	[0, 0, 0]	n/a	FR1	0	R1065J
1698.951	0.001	2017778	DISTRACT_START	n/a	n/a	n/a	-999	16	[0, 0, 0]	n/a	FR1	0	R1065J
1698.952	0.016	2017779	START	n/a	n/a	n/a	-999	16	[-999, -999, -999]	n/a	FR1	0	R1065J
1698.968	3.017	2017795	PROB	3.017	n/a	n/a	-999	16	[6, 1, 6]	13	FR1	0	R1065J
1701.985	2.0	2020812	PROB	2.0	n/a	n/a	-999	16	[7, 7, 1]	15	FR1	0	R1065J
1703.985	2.451	2022812	PROB	2.451	n/a	n/a	-999	16	[2, 1, 3]	6	FR1	0	R1065J
1706.436	3.316	2025263	PROB	3.316	n/a	n/a	-999	16	[2, 4, 7]	13	FR1	0	R1065J
1709.752	2.884	2028579	PROB	2.884	n/a	n/a	-999	16	[5, 2, 6]	13	FR1	0	R1065J
1712.636	2.651	2031463	PROB	2.651	n/a	n/a	-999	16	[4, 3, 6]	13	FR1	0	R1065J
1715.287	2.201	2034114	PROB	2.201	n/a	n/a	-999	16	[1, 9, 5]	15	FR1	0	R1065J
1717.488	2.4	2036315	PROB	2.4	n/a	n/a	-999	16	[7, 3, 5]	15	FR1	0	R1065J
1719.888	0.016	2038715	STOP	n/a	n/a	n/a	-999	16	[-999, -999, -999]	n/a	FR1	0	R1065J
1719.904	1.201	2038731	DISTRACT_END	n/a	n/a	n/a	-999	16	[0, 0, 0]	n/a	FR1	0	R1065J
1721.105	4.2	2039932	REC_START	n/a	n/a	n/a	-999	16	[0, 0, 0]	n/a	FR1	0	R1065J
1725.305	2.164	2044132	REC_WORD	2.164	n/a	WOLF	-999	16	[0, 0, 0]	n/a	FR1	0	R1065J
1727.469	2.315	2046296	REC_WORD	2.315	n/a	DUCK	-999	16	[0, 0, 0]	n/a	FR1	0	R1065J
1729.784	3.058	2048611	REC_WORD	3.058	n/a	FROG	-999	16	[0, 0, 0]	n/a	FR1	0	R1065J
1732.842	11.577	2051669	REC_WORD	11.577	n/a	POND	-999	16	[0, 0, 0]	n/a	FR1	0	R1065J
1744.419	6.696	2063246	REC_WORD	6.696	n/a	SOCK	-999	16	[0, 0, 0]	n/a	FR1	0	R1065J
1751.115	7.111	2069942	REC_END	n/a	n/a	n/a	-999	16	[0, 0, 0]	n/a	FR1	0	R1065J
1758.226	0.0	2077053	TRIAL	n/a	n/a	n/a	-999	17	[0, 0, 0]	n/a	FR1	0	R1065J
1758.226	10.428	2077053	COUNTDOWN_START	n/a	n/a	n/a	-999	17	[0, 0, 0]	n/a	FR1	0	R1065J
1768.654	0.007	2087481	COUNTDOWN_END	n/a	n/a	n/a	-999	17	[0, 0, 0]	n/a	FR1	0	R1065J
1768.661	2.4	2087488	ORIENT	n/a	n/a	n/a	-999	17	[0, 0, 0]	n/a	FR1	0	R1065J
1771.061	2.402	2089888	WORD	n/a	wordpools/wordpool_EN.txt	ROOF	1	17	[0, 0, 0]	n/a	FR1	0	R1065J
1773.463	2.549	2092290	WORD	n/a	wordpools/wordpool_EN.txt	GATE	2	17	[0, 0, 0]	n/a	FR1	0	R1065J
1776.012	2.55	2094839	WORD	n/a	wordpools/wordpool_EN.txt	ROCK	3	17	[0, 0, 0]	n/a	FR1	0	R1065J
1778.562	2.617	2097389	WORD	n/a	wordpools/wordpool_EN.txt	FLAME	4	17	[0, 0, 0]	n/a	FR1	0	R1065J
1781.179	2.567	2100006	WORD	n/a	wordpools/wordpool_EN.txt	CLAY	5	17	[0, 0, 0]	n/a	FR1	0	R1065J
1783.746	2.434	2102573	WORD	n/a	wordpools/wordpool_EN.txt	BOX	6	17	[0, 0, 0]	n/a	FR1	0	R1065J
1786.18	2.384	2105007	WORD	n/a	wordpools/wordpool_EN.txt	HOLE	7	17	[0, 0, 0]	n/a	FR1	0	R1065J
1788.564	2.567	2107391	WORD	n/a	wordpools/wordpool_EN.txt	WHALE	8	17	[0, 0, 0]	n/a	FR1	0	R1065J
1791.131	2.533	2109958	WORD	n/a	wordpools/wordpool_EN.txt	BEAN	9	17	[0, 0, 0]	n/a	FR1	0	R1065J
1793.664	2.384	2112491	WORD	n/a	wordpools/wordpool_EN.txt	THREAD	10	17	[0, 0, 0]	n/a	FR1	0	R1065J
1796.048	2.601	2114875	WORD	n/a	wordpools/wordpool_EN.txt	FOAM	11	17	[0, 0, 0]	n/a	FR1	0	R1065J
1798.649	1.616	2117476	WORD	n/a	wordpools/wordpool_EN.txt	SMOKE	12	17	[0, 0, 0]	n/a	FR1	0	R1065J
1800.265	0.001	2119093	DISTRACT_START	n/a	n/a	n/a	-999	17	[0, 0, 0]	n/a	FR1	0	R1065J
1800.266	0.016	2119094	START	n/a	n/a	n/a	-999	17	[-999, -999, -999]	n/a	FR1	0	R1065J
1800.282	3.235	2119110	PROB	3.235	n/a	n/a	-999	17	[7, 8, 9]	24	FR1	0	R1065J
1803.517	3.533	2122345	PROB	3.533	n/a	n/a	-999	17	[7, 2, 2]	11	FR1	0	R1065J
1807.05	3.368	2125878	PROB	3.368	n/a	n/a	-999	17	[3, 8, 9]	20	FR1	0	R1065J
1810.418	3.449	2129246	PROB	3.449	n/a	n/a	-999	17	[4, 8, 2]	14	FR1	0	R1065J
1813.867	2.201	2132695	PROB	2.201	n/a	n/a	-999	17	[2, 7, 4]	13	FR1	0	R1065J
1816.068	2.2	2134896	PROB	2.2	n/a	n/a	-999	17	[5, 9, 6]	20	FR1	0	R1065J
1818.268	2.849	2137096	PROB	2.849	n/a	n/a	-999	17	[4, 7, 5]	16	FR1	0	R1065J
1821.117	0.018	2139945	STOP	n/a	n/a	n/a	-999	17	[-999, -999, -999]	n/a	FR1	0	R1065J
1821.135	1.051	2139963	DISTRACT_END	n/a	n/a	n/a	-999	17	[0, 0, 0]	n/a	FR1	0	R1065J
1822.186	2.169	2141014	REC_START	n/a	n/a	n/a	-999	17	[0, 0, 0]	n/a	FR1	0	R1065J
1824.355	2.255	2143183	REC_WORD	2.255	n/a	POLE	-999	17	[0, 0, 0]	n/a	FR1	0	R1065J
1826.61	2.406	2145438	REC_WORD	2.406	n/a	FLAME	-999	17	[0, 0, 0]	n/a	FR1	0	R1065J
1829.016	3.506	2147844	REC_WORD	3.506	n/a	SMOKE	-999	17	[0, 0, 0]	n/a	FR1	0	R1065J
1832.522	3.274	2151350	REC_WORD	3.274	n/a	ROOF	-999	17	[0, 0, 0]	n/a	FR1	0	R1065J
1835.796	16.397	2154624	REC_WORD	16.397	n/a	WHALE	-999	17	[0, 0, 0]	n/a	FR1	0	R1065J
1852.193	4.265	2171021	REC_END	n/a	n/a	n/a	-999	17	[0, 0, 0]	n/a	FR1	0	R1065J
1856.458	0.0	2175286	COUNTDOWN_START	n/a	n/a	n/a	-999	18	[0, 0, 0]	n/a	FR1	0	R1065J
1856.458	10.428	2175286	TRIAL	n/a	n/a	n/a	-999	18	[0, 0, 0]	n/a	FR1	0	R1065J
1866.886	0.006	2185714	COUNTDOWN_END	n/a	n/a	n/a	-999	18	[0, 0, 0]	n/a	FR1	0	R1065J
1866.892	2.534	2185720	ORIENT	n/a	n/a	n/a	-999	18	[0, 0, 0]	n/a	FR1	0	R1065J
1869.426	2.516	2188254	WORD	n/a	wordpools/wordpool_EN.txt	CROW	1	18	[0, 0, 0]	n/a	FR1	0	R1065J
1871.942	2.468	2190770	WORD	n/a	wordpools/wordpool_EN.txt	CLOWN	2	18	[0, 0, 0]	n/a	FR1	0	R1065J
1874.41	2.383	2193238	WORD	n/a	wordpools/wordpool_EN.txt	SCHOOL	3	18	[0, 0, 0]	n/a	FR1	0	R1065J
1876.793	2.534	2195621	WORD	n/a	wordpools/wordpool_EN.txt	PRINCE	4	18	[0, 0, 0]	n/a	FR1	0	R1065J
1879.327	2.45	2198155	WORD	n/a	wordpools/wordpool_EN.txt	JUICE	5	18	[0, 0, 0]	n/a	FR1	0	R1065J
1881.777	2.5	2200605	WORD	n/a	wordpools/wordpool_EN.txt	BOARD	6	18	[0, 0, 0]	n/a	FR1	0	R1065J
1884.277	2.401	2203105	WORD	n/a	wordpools/wordpool_EN.txt	WING	7	18	[0, 0, 0]	n/a	FR1	0	R1065J
1886.678	2.583	2205506	WORD	n/a	wordpools/wordpool_EN.txt	DOLL	8	18	[0, 0, 0]	n/a	FR1	0	R1065J
1889.261	2.617	2208089	WORD	n/a	wordpools/wordpool_EN.txt	BRANCH	9	18	[0, 0, 0]	n/a	FR1	0	R1065J
1891.878	2.434	2210706	WORD	n/a	wordpools/wordpool_EN.txt	HORSE	10	18	[0, 0, 0]	n/a	FR1	0	R1065J
1894.312	2.534	2213140	WORD	n/a	wordpools/wordpool_EN.txt	BEAR	11	18	[0, 0, 0]	n/a	FR1	0	R1065J
1896.846	1.618	2215674	WORD	n/a	wordpools/wordpool_EN.txt	KITE	12	18	[0, 0, 0]	n/a	FR1	0	R1065J
1898.464	0.0	2217292	DISTRACT_START	n/a	n/a	n/a	-999	18	[0, 0, 0]	n/a	FR1	0	R1065J
1898.464	0.016	2217292	START	n/a	n/a	n/a	-999	18	[-999, -999, -999]	n/a	FR1	0	R1065J
1898.48	3.034	2217308	PROB	3.034	n/a	n/a	-999	18	[4, 4, 1]	10	FR1	0	R1065J
1901.514	3.65	2220342	PROB	3.65	n/a	n/a	-999	18	[4, 9, 3]	16	FR1	0	R1065J
1905.164	2.783	2223992	PROB	2.783	n/a	n/a	-999	18	[3, 6, 9]	21	FR1	0	R1065J
1907.947	2.518	2226775	PROB	2.518	n/a	n/a	-999	18	[2, 1, 2]	5	FR1	0	R1065J
1910.465	2.583	2229293	PROB	2.583	n/a	n/a	-999	18	[8, 4, 5]	17	FR1	0	R1065J
1913.048	2.6	2231876	PROB	2.6	n/a	n/a	-999	18	[4, 4, 8]	16	FR1	0	R1065J
1915.648	3.115	2234477	PROB	3.115	n/a	n/a	-999	18	[8, 4, 8]	20	FR1	0	R1065J
1918.763	0.019	2237592	STOP	n/a	n/a	n/a	-999	18	[-999, -999, -999]	n/a	FR1	0	R1065J
1918.782	1.067	2237611	DISTRACT_END	n/a	n/a	n/a	-999	18	[0, 0, 0]	n/a	FR1	0	R1065J
1919.849	3.533	2238678	REC_START	n/a	n/a	n/a	-999	18	[0, 0, 0]	n/a	FR1	0	R1065J
1923.382	1.777	2242211	REC_WORD	1.777	n/a	CLOWN	-999	18	[0, 0, 0]	n/a	FR1	0	R1065J
1925.159	3.572	2243988	REC_WORD	3.572	n/a	SCHOOL	-999	18	[0, 0, 0]	n/a	FR1	0	R1065J
1928.731	3.298	2247560	REC_WORD	3.298	n/a	HORSE	-999	18	[0, 0, 0]	n/a	FR1	0	R1065J
1932.029	17.834	2250858	REC_WORD	17.834	n/a	KITE	-999	18	[0, 0, 0]	n/a	FR1	0	R1065J
1949.863	4.174	2268692	REC_END	n/a	n/a	n/a	-999	18	[0, 0, 0]	n/a	FR1	0	R1065J
1954.037	0.0	2272866	TRIAL	n/a	n/a	n/a	-999	19	[0, 0, 0]	n/a	FR1	0	R1065J
1954.037	10.428	2272866	COUNTDOWN_START	n/a	n/a	n/a	-999	19	[0, 0, 0]	n/a	FR1	0	R1065J
1964.465	0.008	2283294	COUNTDOWN_END	n/a	n/a	n/a	-999	19	[0, 0, 0]	n/a	FR1	0	R1065J
1964.473	2.516	2283302	ORIENT	n/a	n/a	n/a	-999	19	[0, 0, 0]	n/a	FR1	0	R1065J
1966.989	2.567	2285818	WORD	n/a	wordpools/wordpool_EN.txt	LEG	1	19	[0, 0, 0]	n/a	FR1	0	R1065J
1969.556	2.5	2288385	WORD	n/a	wordpools/wordpool_EN.txt	PIG	2	19	[0, 0, 0]	n/a	FR1	0	R1065J
1972.056	2.584	2290885	WORD	n/a	wordpools/wordpool_EN.txt	RAT	3	19	[0, 0, 0]	n/a	FR1	0	R1065J
1974.64	2.434	2293469	WORD	n/a	wordpools/wordpool_EN.txt	CUBE	4	19	[0, 0, 0]	n/a	FR1	0	R1065J
1977.074	2.468	2295903	WORD	n/a	wordpools/wordpool_EN.txt	HILL	5	19	[0, 0, 0]	n/a	FR1	0	R1065J
1979.542	2.482	2298371	WORD	n/a	wordpools/wordpool_EN.txt	LAMB	6	19	[0, 0, 0]	n/a	FR1	0	R1065J
1982.024	2.402	2300853	WORD	n/a	wordpools/wordpool_EN.txt	ROAD	7	19	[0, 0, 0]	n/a	FR1	0	R1065J
1984.426	2.499	2303255	WORD	n/a	wordpools/wordpool_EN.txt	FENCE	8	19	[0, 0, 0]	n/a	FR1	0	R1065J
1986.925	2.535	2305754	WORD	n/a	wordpools/wordpool_EN.txt	COW	9	19	[0, 0, 0]	n/a	FR1	0	R1065J
1989.46	2.549	2308289	WORD	n/a	wordpools/wordpool_EN.txt	PET	10	19	[0, 0, 0]	n/a	FR1	0	R1065J
1992.009	2.385	2310838	WORD	n/a	wordpools/wordpool_EN.txt	CAT	11	19	[0, 0, 0]	n/a	FR1	0	R1065J
1994.394	1.616	2313223	WORD	n/a	wordpools/wordpool_EN.txt	CALF	12	19	[0, 0, 0]	n/a	FR1	0	R1065J
1996.01	0.001	2314839	DISTRACT_START	n/a	n/a	n/a	-999	19	[0, 0, 0]	n/a	FR1	0	R1065J
1996.011	0.015	2314840	START	n/a	n/a	n/a	-999	19	[-999, -999, -999]	n/a	FR1	0	R1065J
1996.026	3.268	2314855	PROB	3.268	n/a	n/a	-999	19	[6, 6, 6]	18	FR1	0	R1065J
1999.294	4.517	2318123	PROB	4.517	n/a	n/a	-999	19	[9, 8, 4]	21	FR1	0	R1065J
2003.811	2.15	2322640	PROB	2.15	n/a	n/a	-999	19	[5, 4, 8]	17	FR1	0	R1065J
2005.961	2.167	2324790	PROB	2.167	n/a	n/a	-999	19	[5, 5, 5]	15	FR1	0	R1065J
2008.128	2.235	2326957	PROB	2.235	n/a	n/a	-999	19	[1, 7, 7]	15	FR1	0	R1065J
2010.363	2.849	2329192	PROB	2.849	n/a	n/a	-999	19	[4, 6, 6]	16	FR1	0	R1065J
2013.212	2.501	2332041	PROB	2.501	n/a	n/a	-999	19	[2, 1, 2]	5	FR1	0	R1065J
2015.713	2.991	2334542	PROB	2.991	n/a	n/a	-999	19	[8, 9, 1]	18	FR1	0	R1065J
2018.704	0.009	2337533	STOP	n/a	n/a	n/a	-999	19	[-999, -999, -999]	n/a	FR1	0	R1065J
2018.713	1.167	2337542	DISTRACT_END	n/a	n/a	n/a	-999	19	[0, 0, 0]	n/a	FR1	0	R1065J
2019.88	2.311	2338709	REC_START	n/a	n/a	n/a	-999	19	[0, 0, 0]	n/a	FR1	0	R1065J
2022.191	2.017	2341020	REC_WORD	2.017	n/a	CALF	-999	19	[0, 0, 0]	n/a	FR1	0	R1065J
2024.208	2.563	2343037	REC_WORD	2.563	n/a	COW	-999	19	[0, 0, 0]	n/a	FR1	0	R1065J
2026.771	3.604	2345600	REC_WORD	3.604	n/a	PET	-999	19	[0, 0, 0]	n/a	FR1	0	R1065J
2030.375	2.979	2349205	REC_WORD	2.979	n/a	LAMB	-999	19	[0, 0, 0]	n/a	FR1	0	R1065J
2033.354	8.745	2352184	REC_WORD	8.745	n/a	CUBE	-999	19	[0, 0, 0]	n/a	FR1	0	R1065J
2042.099	5.927	2360929	REC_WORD	5.927	n/a	SHEEP	-999	19	[0, 0, 0]	n/a	FR1	0	R1065J
2048.026	1.865	2366856	REC_WORD	1.865	n/a	FOOT	-999	19	[0, 0, 0]	n/a	FR1	0	R1065J
2049.891	4.244	2368721	REC_END	n/a	n/a	n/a	-999	19	[0, 0, 0]	n/a	FR1	0	R1065J
2054.135	0.0	2372965	COUNTDOWN_START	n/a	n/a	n/a	-999	20	[0, 0, 0]	n/a	FR1	0	R1065J
2054.135	10.428	2372965	TRIAL	n/a	n/a	n/a	-999	20	[0, 0, 0]	n/a	FR1	0	R1065J
2064.563	0.007	2383393	COUNTDOWN_END	n/a	n/a	n/a	-999	20	[0, 0, 0]	n/a	FR1	0	R1065J
2064.57	2.5	2383400	ORIENT	n/a	n/a	n/a	-999	20	[0, 0, 0]	n/a	FR1	0	R1065J
2067.07	2.484	2385900	WORD	n/a	wordpools/wordpool_EN.txt	GOLD	1	20	[0, 0, 0]	n/a	FR1	0	R1065J
2069.554	2.55	2388384	WORD	n/a	wordpools/wordpool_EN.txt	LAMP	2	20	[0, 0, 0]	n/a	FR1	0	R1065J
2072.104	2.617	2390934	WORD	n/a	wordpools/wordpool_EN.txt	MOLE	3	20	[0, 0, 0]	n/a	FR1	0	R1065J
2074.721	2.567	2393551	WORD	n/a	wordpools/wordpool_EN.txt	CROWN	4	20	[0, 0, 0]	n/a	FR1	0	R1065J
2077.288	2.45	2396118	WORD	n/a	wordpools/wordpool_EN.txt	SHIP	5	20	[0, 0, 0]	n/a	FR1	0	R1065J
2079.738	2.584	2398568	WORD	n/a	wordpools/wordpool_EN.txt	MOTH	6	20	[0, 0, 0]	n/a	FR1	0	R1065J
2082.322	2.45	2401152	WORD	n/a	wordpools/wordpool_EN.txt	NEST	7	20	[0, 0, 0]	n/a	FR1	0	R1065J
2084.772	2.585	2403602	WORD	n/a	wordpools/wordpool_EN.txt	BEE	8	20	[0, 0, 0]	n/a	FR1	0	R1065J
2087.357	2.599	2406187	WORD	n/a	wordpools/wordpool_EN.txt	EGG	9	20	[0, 0, 0]	n/a	FR1	0	R1065J
2089.956	2.634	2408786	WORD	n/a	wordpools/wordpool_EN.txt	TOAD	10	20	[0, 0, 0]	n/a	FR1	0	R1065J
2092.59	2.567	2411420	WORD	n/a	wordpools/wordpool_EN.txt	SHELL	11	20	[0, 0, 0]	n/a	FR1	0	R1065J
2095.157	1.617	2413987	WORD	n/a	wordpools/wordpool_EN.txt	HOOF	12	20	[0, 0, 0]	n/a	FR1	0	R1065J
2096.774	0.001	2415604	DISTRACT_START	n/a	n/a	n/a	-999	20	[0, 0, 0]	n/a	FR1	0	R1065J
2096.775	0.016	2415605	START	n/a	n/a	n/a	-999	20	[-999, -999, -999]	n/a	FR1	0	R1065J
2096.791	2.8	2415621	PROB	2.8	n/a	n/a	-999	20	[5, 4, 2]	11	FR1	0	R1065J
2099.591	2.034	2418421	PROB	2.034	n/a	n/a	-999	20	[1, 4, 1]	6	FR1	0	R1065J
2101.625	3.0	2420455	PROB	3.0	n/a	n/a	-999	20	[3, 2, 8]	13	FR1	0	R1065J
2104.625	2.567	2423455	PROB	2.567	n/a	n/a	-999	20	[3, 2, 1]	6	FR1	0	R1065J
2107.192	2.335	2426022	PROB	2.335	n/a	n/a	-999	20	[9, 4, 7]	20	FR1	0	R1065J
2109.527	3.099	2428357	PROB	3.099	n/a	n/a	-999	20	[4, 7, 1]	12	FR1	0	R1065J
2112.626	2.968	2431456	PROB	2.968	n/a	n/a	-999	20	[7, 4, 2]	13	FR1	0	R1065J
2115.594	2.156	2434424	PROB	2.156	n/a	n/a	-999	20	[2, 8, 3]	13	FR1	0	R1065J
2117.75	0.01	2436580	STOP	n/a	n/a	n/a	-999	20	[-999, -999, -999]	n/a	FR1	0	R1065J
2117.76	1.118	2436590	DISTRACT_END	n/a	n/a	n/a	-999	20	[0, 0, 0]	n/a	FR1	0	R1065J
2118.878	2.449	2437708	REC_START	n/a	n/a	n/a	-999	20	[0, 0, 0]	n/a	FR1	0	R1065J
2121.327	2.017	2440157	REC_WORD	2.017	n/a	MOTH	-999	20	[0, 0, 0]	n/a	FR1	0	R1065J
2123.344	2.646	2442174	REC_WORD	2.646	n/a	BEE	-999	20	[0, 0, 0]	n/a	FR1	0	R1065J
2125.99	2.173	2444820	REC_WORD	2.173	n/a	NEST	-999	20	[0, 0, 0]	n/a	FR1	0	R1065J
2128.163	1.784	2446993	REC_WORD	1.784	n/a	GOLD	-999	20	[0, 0, 0]	n/a	FR1	0	R1065J
2129.947	3.112	2448777	REC_WORD	3.112	n/a	CROWN	-999	20	[0, 0, 0]	n/a	FR1	0	R1065J
2133.059	14.003	2451889	REC_WORD	14.003	n/a	TOAD	-999	20	[0, 0, 0]	n/a	FR1	0	R1065J
2147.062	1.826	2465893	REC_WORD	1.826	n/a	FROG	-999	20	[0, 0, 0]	n/a	FR1	0	R1065J
2148.888	4.144	2467719	REC_END	n/a	n/a	n/a	-999	20	[0, 0, 0]	n/a	FR1	0	R1065J
2153.032	0.0	2471863	TRIAL	n/a	n/a	n/a	-999	21	[0, 0, 0]	n/a	FR1	0	R1065J
2153.032	10.428	2471863	COUNTDOWN_START	n/a	n/a	n/a	-999	21	[0, 0, 0]	n/a	FR1	0	R1065J
2163.46	0.008	2482291	COUNTDOWN_END	n/a	n/a	n/a	-999	21	[0, 0, 0]	n/a	FR1	0	R1065J
2163.468	2.599	2482299	ORIENT	n/a	n/a	n/a	-999	21	[0, 0, 0]	n/a	FR1	0	R1065J
2166.067	2.435	2484898	WORD	n/a	wordpools/wordpool_EN.txt	GEESE	1	21	[0, 0, 0]	n/a	FR1	0	R1065J
2168.502	2.399	2487333	WORD	n/a	wordpools/wordpool_EN.txt	SKUNK	2	21	[0, 0, 0]	n/a	FR1	0	R1065J
2170.901	2.551	2489732	WORD	n/a	wordpools/wordpool_EN.txt	RIB	3	21	[0, 0, 0]	n/a	FR1	0	R1065J
2173.452	2.5	2492283	WORD	n/a	wordpools/wordpool_EN.txt	WORM	4	21	[0, 0, 0]	n/a	FR1	0	R1065J
2175.952	2.468	2494783	WORD	n/a	wordpools/wordpool_EN.txt	LOCK	5	21	[0, 0, 0]	n/a	FR1	0	R1065J
2178.42	2.383	2497251	WORD	n/a	wordpools/wordpool_EN.txt	SPONGE	6	21	[0, 0, 0]	n/a	FR1	0	R1065J
2180.803	2.617	2499634	WORD	n/a	wordpools/wordpool_EN.txt	OWL	7	21	[0, 0, 0]	n/a	FR1	0	R1065J
2183.42	2.567	2502251	WORD	n/a	wordpools/wordpool_EN.txt	HEN	8	21	[0, 0, 0]	n/a	FR1	0	R1065J
2185.987	2.468	2504818	WORD	n/a	wordpools/wordpool_EN.txt	PIN	9	21	[0, 0, 0]	n/a	FR1	0	R1065J
2188.455	2.566	2507286	WORD	n/a	wordpools/wordpool_EN.txt	FOOD	10	21	[0, 0, 0]	n/a	FR1	0	R1065J
2191.021	2.484	2509852	WORD	n/a	wordpools/wordpool_EN.txt	FISH	11	21	[0, 0, 0]	n/a	FR1	0	R1065J
2193.505	1.616	2512336	WORD	n/a	wordpools/wordpool_EN.txt	WEB	12	21	[0, 0, 0]	n/a	FR1	0	R1065J
2195.121	0.001	2513952	DISTRACT_START	n/a	n/a	n/a	-999	21	[0, 0, 0]	n/a	FR1	0	R1065J
2195.122	0.016	2513953	START	n/a	n/a	n/a	-999	21	[-999, -999, -999]	n/a	FR1	0	R1065J
2195.138	2.734	2513969	PROB	2.734	n/a	n/a	-999	21	[2, 3, 8]	13	FR1	0	R1065J
2197.872	4.284	2516703	PROB	4.284	n/a	n/a	-999	21	[9, 5, 7]	22	FR1	0	R1065J
2202.156	2.884	2520987	PROB	2.884	n/a	n/a	-999	21	[2, 5, 6]	13	FR1	0	R1065J
2205.04	2.983	2523871	PROB	2.983	n/a	n/a	-999	21	[7, 5, 2]	14	FR1	0	R1065J
2208.023	2.418	2526854	PROB	2.418	n/a	n/a	-999	21	[5, 9, 9]	23	FR1	0	R1065J
2210.441	4.267	2529272	PROB	4.267	n/a	n/a	-999	21	[4, 9, 3]	16	FR1	0	R1065J
2214.708	3.728	2533539	PROB	3.728	n/a	n/a	-999	21	[5, 3, 4]	12	FR1	0	R1065J
2218.436	0.007	2537267	STOP	n/a	n/a	n/a	-999	21	[-999, -999, -999]	n/a	FR1	0	R1065J
2218.443	1.116	2537274	DISTRACT_END	n/a	n/a	n/a	-999	21	[0, 0, 0]	n/a	FR1	0	R1065J
2219.559	2.608	2538390	REC_START	n/a	n/a	n/a	-999	21	[0, 0, 0]	n/a	FR1	0	R1065J
2222.167	2.342	2540998	REC_WORD	2.342	n/a	FOOD	-999	21	[0, 0, 0]	n/a	FR1	0	R1065J
2224.509	2.608	2543340	REC_WORD	2.608	n/a	GEESE	-999	21	[0, 0, 0]	n/a	FR1	0	R1065J
2227.117	6.999	2545948	REC_WORD	6.999	n/a	HEN	-999	21	[0, 0, 0]	n/a	FR1	0	R1065J
2234.116	14.948	2552947	REC_WORD	14.948	n/a	WORM	-999	21	[0, 0, 0]	n/a	FR1	0	R1065J
2249.064	0.506	2567895	REC_WORD_VV	0.506	n/a	<>	-999	21	[0, 0, 0]	n/a	FR1	0	R1065J
2249.57	8.177	2568401	REC_END	n/a	n/a	n/a	-999	21	[0, 0, 0]	n/a	FR1	0	R1065J
2257.747	0.0	2576579	TRIAL	n/a	n/a	n/a	-999	22	[0, 0, 0]	n/a	FR1	0	R1065J
2257.747	10.428	2576579	COUNTDOWN_START	n/a	n/a	n/a	-999	22	[0, 0, 0]	n/a	FR1	0	R1065J
2268.175	0.007	2587007	COUNTDOWN_END	n/a	n/a	n/a	-999	22	[0, 0, 0]	n/a	FR1	0	R1065J
2268.182	2.633	2587014	ORIENT	n/a	n/a	n/a	-999	22	[0, 0, 0]	n/a	FR1	0	R1065J
2270.815	2.535	2589647	WORD	n/a	wordpools/wordpool_EN.txt	CAPE	1	22	[0, 0, 0]	n/a	FR1	0	R1065J
2273.35	2.616	2592182	WORD	n/a	wordpools/wordpool_EN.txt	BAG	2	22	[0, 0, 0]	n/a	FR1	0	R1065J
2275.966	2.385	2594798	WORD	n/a	wordpools/wordpool_EN.txt	MAT	3	22	[0, 0, 0]	n/a	FR1	0	R1065J
2278.351	2.482	2597183	WORD	n/a	wordpools/wordpool_EN.txt	DOOR	4	22	[0, 0, 0]	n/a	FR1	0	R1065J
2280.833	2.619	2599665	WORD	n/a	wordpools/wordpool_EN.txt	STOVE	5	22	[0, 0, 0]	n/a	FR1	0	R1065J
2283.452	2.532	2602284	WORD	n/a	wordpools/wordpool_EN.txt	PURSE	6	22	[0, 0, 0]	n/a	FR1	0	R1065J
2285.984	2.452	2604816	WORD	n/a	wordpools/wordpool_EN.txt	SHIRT	7	22	[0, 0, 0]	n/a	FR1	0	R1065J
2288.436	2.616	2607268	WORD	n/a	wordpools/wordpool_EN.txt	BOOT	8	22	[0, 0, 0]	n/a	FR1	0	R1065J
2291.052	2.434	2609884	WORD	n/a	wordpools/wordpool_EN.txt	BATH	9	22	[0, 0, 0]	n/a	FR1	0	R1065J
2293.486	2.516	2612318	WORD	n/a	wordpools/wordpool_EN.txt	TEA	10	22	[0, 0, 0]	n/a	FR1	0	R1065J
2296.002	2.634	2614834	WORD	n/a	wordpools/wordpool_EN.txt	PEA	11	22	[0, 0, 0]	n/a	FR1	0	R1065J
2298.636	1.617	2617468	WORD	n/a	wordpools/wordpool_EN.txt	CLOTH	12	22	[0, 0, 0]	n/a	FR1	0	R1065J
2300.253	0.001	2619085	DISTRACT_START	n/a	n/a	n/a	-999	22	[0, 0, 0]	n/a	FR1	0	R1065J
2300.254	0.016	2619086	START	n/a	n/a	n/a	-999	22	[-999, -999, -999]	n/a	FR1	0	R1065J
2300.27	3.984	2619102	PROB	3.984	n/a	n/a	-999	22	[6, 2, 6]	14	FR1	0	R1065J
2304.254	2.3	2623086	PROB	2.3	n/a	n/a	-999	22	[9, 2, 9]	20	FR1	0	R1065J
2306.554	4.1	2625386	PROB	4.1	n/a	n/a	-999	22	[8, 4, 5]	16	FR1	0	R1065J
2310.654	3.568	2629486	PROB	3.568	n/a	n/a	-999	22	[6, 2, 8]	16	FR1	0	R1065J
2314.222	2.55	2633054	PROB	2.55	n/a	n/a	-999	22	[2, 3, 6]	11	FR1	0	R1065J
2316.772	3.05	2635604	PROB	3.05	n/a	n/a	-999	22	[7, 9, 3]	19	FR1	0	R1065J
2319.822	3.09	2638654	PROB	3.09	n/a	n/a	-999	22	[1, 2, 1]	4	FR1	0	R1065J
2322.912	0.011	2641744	STOP	n/a	n/a	n/a	-999	22	[-999, -999, -999]	n/a	FR1	0	R1065J
2322.923	1.051	2641755	DISTRACT_END	n/a	n/a	n/a	-999	22	[0, 0, 0]	n/a	FR1	0	R1065J
2323.974	2.258	2642806	REC_START	n/a	n/a	n/a	-999	22	[0, 0, 0]	n/a	FR1	0	R1065J
2326.232	2.122	2645064	REC_WORD	2.122	n/a	BAG	-999	22	[0, 0, 0]	n/a	FR1	0	R1065J
2328.354	2.553	2647186	REC_WORD	2.553	n/a	MAT	-999	22	[0, 0, 0]	n/a	FR1	0	R1065J
2330.907	3.081	2649739	REC_WORD	3.081	n/a	SHIRT	-999	22	[0, 0, 0]	n/a	FR1	0	R1065J
2333.988	9.871	2652820	REC_WORD	9.871	n/a	BATH	-999	22	[0, 0, 0]	n/a	FR1	0	R1065J
2343.859	5.491	2662691	REC_WORD	5.491	n/a	HAT	-999	22	[0, 0, 0]	n/a	FR1	0	R1065J
2349.35	1.078	2668182	REC_WORD	1.078	n/a	PEA	-999	22	[0, 0, 0]	n/a	FR1	0	R1065J
2350.428	3.556	2669260	REC_WORD	3.556	n/a	TEA	-999	22	[0, 0, 0]	n/a	FR1	0	R1065J
2353.984	6.478	2672816	REC_END	n/a	n/a	n/a	-999	22	[0, 0, 0]	n/a	FR1	0	R1065J
2360.462	0.001	2679294	COUNTDOWN_START	n/a	n/a	n/a	-999	23	[0, 0, 0]	n/a	FR1	0	R1065J
2360.463	10.427	2679295	TRIAL	n/a	n/a	n/a	-999	23	[0, 0, 0]	n/a	FR1	0	R1065J
2370.89	0.006	2689723	COUNTDOWN_END	n/a	n/a	n/a	-999	23	[0, 0, 0]	n/a	FR1	0	R1065J
2370.896	2.585	2689729	ORIENT	n/a	n/a	n/a	-999	23	[0, 0, 0]	n/a	FR1	0	R1065J
2373.481	2.616	2692314	WORD	n/a	wordpools/wordpool_EN.txt	ROSE	1	23	[0, 0, 0]	n/a	FR1	0	R1065J
2376.097	2.435	2694930	WORD	n/a	wordpools/wordpool_EN.txt	FLAG	2	23	[0, 0, 0]	n/a	FR1	0	R1065J
2378.532	2.382	2697365	WORD	n/a	wordpools/wordpool_EN.txt	WHEEL	3	23	[0, 0, 0]	n/a	FR1	0	R1065J
2380.914	2.468	2699747	WORD	n/a	wordpools/wordpool_EN.txt	WORLD	4	23	[0, 0, 0]	n/a	FR1	0	R1065J
2383.382	2.55	2702215	WORD	n/a	wordpools/wordpool_EN.txt	SPOON	5	23	[0, 0, 0]	n/a	FR1	0	R1065J
2385.932	2.383	2704765	WORD	n/a	wordpools/wordpool_EN.txt	CAKE	6	23	[0, 0, 0]	n/a	FR1	0	R1065J
2388.315	2.501	2707148	WORD	n/a	wordpools/wordpool_EN.txt	YARD	7	23	[0, 0, 0]	n/a	FR1	0	R1065J
2390.816	2.467	2709649	WORD	n/a	wordpools/wordpool_EN.txt	DOCK	8	23	[0, 0, 0]	n/a	FR1	0	R1065J
2393.283	2.567	2712116	WORD	n/a	wordpools/wordpool_EN.txt	KEY	9	23	[0, 0, 0]	n/a	FR1	0	R1065J
2395.85	2.417	2714683	WORD	n/a	wordpools/wordpool_EN.txt	TOOL	10	23	[0, 0, 0]	n/a	FR1	0	R1065J
2398.267	2.617	2717100	WORD	n/a	wordpools/wordpool_EN.txt	STRING	11	23	[0, 0, 0]	n/a	FR1	0	R1065J
2400.884	1.618	2719717	WORD	n/a	wordpools/wordpool_EN.txt	HOSE	12	23	[0, 0, 0]	n/a	FR1	0	R1065J
2402.502	0.0	2721335	DISTRACT_START	n/a	n/a	n/a	-999	23	[0, 0, 0]	n/a	FR1	0	R1065J
2402.502	0.016	2721335	START	n/a	n/a	n/a	-999	23	[-999, -999, -999]	n/a	FR1	0	R1065J
2402.518	4.133	2721351	PROB	4.133	n/a	n/a	-999	23	[7, 8, 4]	19	FR1	0	R1065J
2406.651	2.885	2725484	PROB	2.885	n/a	n/a	-999	23	[4, 1, 4]	9	FR1	0	R1065J
2409.536	3.133	2728369	PROB	3.133	n/a	n/a	-999	23	[7, 1, 8]	16	FR1	0	R1065J
2412.669	2.067	2731502	PROB	2.067	n/a	n/a	-999	23	[1, 6, 6]	13	FR1	0	R1065J
2414.736	4.601	2733569	PROB	4.601	n/a	n/a	-999	23	[9, 4, 1]	14	FR1	0	R1065J
2419.337	2.35	2738170	PROB	2.35	n/a	n/a	-999	23	[5, 6, 9]	20	FR1	0	R1065J
2421.687	2.59	2740520	PROB	2.59	n/a	n/a	-999	23	[9, 1, 6]	16	FR1	0	R1065J
2424.277	0.01	2743110	STOP	n/a	n/a	n/a	-999	23	[-999, -999, -999]	n/a	FR1	0	R1065J
2424.287	1.152	2743120	DISTRACT_END	n/a	n/a	n/a	-999	23	[0, 0, 0]	n/a	FR1	0	R1065J
2425.439	2.335	2744272	REC_START	n/a	n/a	n/a	-999	23	[0, 0, 0]	n/a	FR1	0	R1065J
2427.774	2.059	2746607	REC_WORD	2.059	n/a	ROSE	-999	23	[0, 0, 0]	n/a	FR1	0	R1065J
2429.833	11.926	2748666	REC_WORD	11.926	n/a	FLAG	-999	23	[0, 0, 0]	n/a	FR1	0	R1065J
2441.759	13.69	2760592	REC_WORD	13.69	n/a	WHEEL	-999	23	[0, 0, 0]	n/a	FR1	0	R1065J
2455.449	9.161	2774282	REC_END	n/a	n/a	n/a	-999	23	[0, 0, 0]	n/a	FR1	0	R1065J
2464.61	0.0	2783443	COUNTDOWN_START	n/a	n/a	n/a	-999	24	[0, 0, 0]	n/a	FR1	0	R1065J
2464.61	10.428	2783443	TRIAL	n/a	n/a	n/a	-999	24	[0, 0, 0]	n/a	FR1	0	R1065J
2475.038	0.007	2793871	COUNTDOWN_END	n/a	n/a	n/a	-999	24	[0, 0, 0]	n/a	FR1	0	R1065J
2475.045	2.468	2793878	ORIENT	n/a	n/a	n/a	-999	24	[0, 0, 0]	n/a	FR1	0	R1065J
2477.513	2.615	2796346	WORD	n/a	wordpools/wordpool_EN.txt	BRICK	1	24	[0, 0, 0]	n/a	FR1	0	R1065J
2480.128	2.434	2798961	WORD	n/a	wordpools/wordpool_EN.txt	SEED	2	24	[0, 0, 0]	n/a	FR1	0	R1065J
2482.562	2.534	2801395	WORD	n/a	wordpools/wordpool_EN.txt	CORN	3	24	[0, 0, 0]	n/a	FR1	0	R1065J
2485.096	2.517	2803930	WORD	n/a	wordpools/wordpool_EN.txt	NET	4	24	[0, 0, 0]	n/a	FR1	0	R1065J
2487.613	2.383	2806447	WORD	n/a	wordpools/wordpool_EN.txt	STEM	5	24	[0, 0, 0]	n/a	FR1	0	R1065J
2489.996	2.601	2808830	WORD	n/a	wordpools/wordpool_EN.txt	HEART	6	24	[0, 0, 0]	n/a	FR1	0	R1065J
2492.597	2.5	2811431	WORD	n/a	wordpools/wordpool_EN.txt	TOY	7	24	[0, 0, 0]	n/a	FR1	0	R1065J
2495.097	2.467	2813931	WORD	n/a	wordpools/wordpool_EN.txt	CORD	8	24	[0, 0, 0]	n/a	FR1	0	R1065J
2497.564	2.467	2816398	WORD	n/a	wordpools/wordpool_EN.txt	SHRIMP	9	24	[0, 0, 0]	n/a	FR1	0	R1065J
2500.031	2.418	2818865	WORD	n/a	wordpools/wordpool_EN.txt	WOOD	10	24	[0, 0, 0]	n/a	FR1	0	R1065J
2502.449	2.466	2821283	WORD	n/a	wordpools/wordpool_EN.txt	BALL	11	24	[0, 0, 0]	n/a	FR1	0	R1065J
2504.915	1.601	2823749	WORD	n/a	wordpools/wordpool_EN.txt	ROOT	12	24	[0, 0, 0]	n/a	FR1	0	R1065J
2506.516	0.001	2825350	DISTRACT_START	n/a	n/a	n/a	-999	24	[0, 0, 0]	n/a	FR1	0	R1065J
2506.517	0.016	2825351	START	n/a	n/a	n/a	-999	24	[-999, -999, -999]	n/a	FR1	0	R1065J
2506.533	3.951	2825367	PROB	3.951	n/a	n/a	-999	24	[7, 3, 6]	16	FR1	0	R1065J
2510.484	4.8	2829318	PROB	4.8	n/a	n/a	-999	24	[8, 3, 5]	16	FR1	0	R1065J
2515.284	2.833	2834118	PROB	2.833	n/a	n/a	-999	24	[2, 2, 1]	5	FR1	0	R1065J
2518.117	2.2	2836951	PROB	2.2	n/a	n/a	-999	24	[6, 9, 2]	17	FR1	0	R1065J
2520.317	2.834	2839151	PROB	2.834	n/a	n/a	-999	24	[5, 2, 3]	10	FR1	0	R1065J
2523.151	1.984	2841985	PROB	1.984	n/a	n/a	-999	24	[1, 3, 7]	11	FR1	0	R1065J
2525.135	2.059	2843969	PROB	2.059	n/a	n/a	-999	24	[1, 6, 1]	8	FR1	0	R1065J
2527.194	0.008	2846028	STOP	n/a	n/a	n/a	-999	24	[-999, -999, -999]	n/a	FR1	0	R1065J
2527.202	1.117	2846036	DISTRACT_END	n/a	n/a	n/a	-999	24	[0, 0, 0]	n/a	FR1	0	R1065J
2528.319	2.777	2847153	REC_START	n/a	n/a	n/a	-999	24	[0, 0, 0]	n/a	FR1	0	R1065J
2531.096	1.714	2849930	REC_WORD	1.714	n/a	STEM	-999	24	[0, 0, 0]	n/a	FR1	0	R1065J
2532.81	2.366	2851644	REC_WORD	2.366	n/a	ROOT	-999	24	[0, 0, 0]	n/a	FR1	0	R1065J
2535.176	2.412	2854010	REC_WORD	2.412	n/a	CORN	-999	24	[0, 0, 0]	n/a	FR1	0	R1065J
2537.588	4.794	2856422	REC_WORD	4.794	n/a	SEED	-999	24	[0, 0, 0]	n/a	FR1	0	R1065J
2542.382	2.482	2861216	REC_WORD	2.482	n/a	ROSE	-999	24	[0, 0, 0]	n/a	FR1	0	R1065J
2544.864	13.469	2863698	REC_WORD	13.469	n/a	FLAG	-999	24	[0, 0, 0]	n/a	FR1	0	R1065J
2558.333	5.158	2877167	REC_END	n/a	n/a	n/a	-999	24	[0, 0, 0]	n/a	FR1	0	R1065J
2563.491	0.001	2882325	COUNTDOWN_START	n/a	n/a	n/a	-999	25	[0, 0, 0]	n/a	FR1	0	R1065J
2563.492	10.427	2882326	TRIAL	n/a	n/a	n/a	-999	25	[0, 0, 0]	n/a	FR1	0	R1065J
2573.919	0.006	2892753	COUNTDOWN_END	n/a	n/a	n/a	-999	25	[0, 0, 0]	n/a	FR1	0	R1065J
2573.925	2.502	2892759	ORIENT	n/a	n/a	n/a	-999	25	[0, 0, 0]	n/a	FR1	0	R1065J
2576.427	2.449	2895261	WORD	n/a	wordpools/wordpool_EN.txt	HOUSE	1	25	[0, 0, 0]	n/a	FR1	0	R1065J
2578.876	2.534	2897710	WORD	n/a	wordpools/wordpool_EN.txt	TRUCK	2	25	[0, 0, 0]	n/a	FR1	0	R1065J
2581.41	2.517	2900244	WORD	n/a	wordpools/wordpool_EN.txt	FARM	3	25	[0, 0, 0]	n/a	FR1	0	R1065J
2583.927	2.601	2902761	WORD	n/a	wordpools/wordpool_EN.txt	BLUSH	4	25	[0, 0, 0]	n/a	FR1	0	R1065J
2586.528	2.599	2905362	WORD	n/a	wordpools/wordpool_EN.txt	SMILE	5	25	[0, 0, 0]	n/a	FR1	0	R1065J
2589.127	2.534	2907961	WORD	n/a	wordpools/wordpool_EN.txt	SPRING	6	25	[0, 0, 0]	n/a	FR1	0	R1065J
2591.661	2.45	2910495	WORD	n/a	wordpools/wordpool_EN.txt	VINE	7	25	[0, 0, 0]	n/a	FR1	0	R1065J
2594.111	2.402	2912945	WORD	n/a	wordpools/wordpool_EN.txt	LIP	8	25	[0, 0, 0]	n/a	FR1	0	R1065J
2596.513	2.599	2915347	WORD	n/a	wordpools/wordpool_EN.txt	LAWN	9	25	[0, 0, 0]	n/a	FR1	0	R1065J
2599.112	2.434	2917947	WORD	n/a	wordpools/wordpool_EN.txt	STICK	10	25	[0, 0, 0]	n/a	FR1	0	R1065J
2601.546	2.617	2920381	WORD	n/a	wordpools/wordpool_EN.txt	TREE	11	25	[0, 0, 0]	n/a	FR1	0	R1065J
2604.163	1.617	2922998	WORD	n/a	wordpools/wordpool_EN.txt	TENT	12	25	[0, 0, 0]	n/a	FR1	0	R1065J
2605.78	0.001	2924615	DISTRACT_START	n/a	n/a	n/a	-999	25	[0, 0, 0]	n/a	FR1	0	R1065J
2605.781	0.015	2924616	START	n/a	n/a	n/a	-999	25	[-999, -999, -999]	n/a	FR1	0	R1065J
2605.796	2.751	2924631	PROB	2.751	n/a	n/a	-999	25	[9, 9, 2]	20	FR1	0	R1065J
2608.547	4.15	2927382	PROB	4.15	n/a	n/a	-999	25	[3, 2, 7]	12	FR1	0	R1065J
2612.697	2.551	2931532	PROB	2.551	n/a	n/a	-999	25	[8, 3, 3]	14	FR1	0	R1065J
2615.248	2.633	2934083	PROB	2.633	n/a	n/a	-999	25	[2, 6, 7]	15	FR1	0	R1065J
2617.881	2.134	2936716	PROB	2.134	n/a	n/a	-999	25	[6, 2, 2]	10	FR1	0	R1065J
2620.015	4.167	2938850	PROB	4.167	n/a	n/a	-999	25	[5, 9, 3]	17	FR1	0	R1065J
2624.182	2.259	2943017	PROB	2.259	n/a	n/a	-999	25	[2, 8, 3]	13	FR1	0	R1065J
2626.441	0.009	2945276	STOP	n/a	n/a	n/a	-999	25	[-999, -999, -999]	n/a	FR1	0	R1065J
2626.45	1.117	2945285	DISTRACT_END	n/a	n/a	n/a	-999	25	[0, 0, 0]	n/a	FR1	0	R1065J
2627.567	2.82	2946402	REC_START	n/a	n/a	n/a	-999	25	[0, 0, 0]	n/a	FR1	0	R1065J
2630.387	2.981	2949222	REC_WORD	2.981	n/a	FARM	-999	25	[0, 0, 0]	n/a	FR1	0	R1065J
2633.368	11.687	2952203	REC_WORD	11.687	n/a	TREE	-999	25	[0, 0, 0]	n/a	FR1	0	R1065J
2645.055	0.165	2963890	REC_WORD_VV	0.165	n/a	<>	-999	25	[0, 0, 0]	n/a	FR1	0	R1065J
2645.22	1.007	2964055	REC_WORD	1.007	n/a	TRUCK	-999	25	[0, 0, 0]	n/a	FR1	0	R1065J
2646.227	11.35	2965062	REC_WORD	11.35	n/a	LAWN	-999	25	[0, 0, 0]	n/a	FR1	0	R1065J
2657.577	8.411	2976412	REC_END	n/a	n/a	n/a	-999	25	[0, 0, 0]	n/a	FR1	0	R1065J
2665.988	0.0	2984823	SESS_END	n/a	n/a	n/a	-999	25	[0, 0, 0]	n/a	FR1	0	R1065J
