onset	duration	sample	trial_type	response_time	stim_file	item_name	serialpos	list	test	answer	experiment	session	subject
0.0	0.0	5974	INSTRUCT_START	n/a	n/a	n/a	-999	-999	[0, 0, 0]	n/a	FR1	1	R1240T
0.0	11.29	5974	INSTRUCT_END	n/a	n/a	n/a	-999	-999	[0, 0, 0]	n/a	FR1	1	R1240T
11.29	0.0	17263	SESS_START	n/a	n/a	n/a	-999	-999	[0, 0, 0]	n/a	FR1	1	R1240T
11.29	13.501	17263	MIC_TEST	n/a	n/a	n/a	-999	-999	[0, 0, 0]	n/a	FR1	1	R1240T
24.791	2.897	30763	PRACTICE_TRIAL	n/a	n/a	n/a	-999	-1	[0, 0, 0]	n/a	FR1	1	R1240T
27.688	10.428	33660	COUNTDOWN_START	n/a	n/a	n/a	-999	-1	[0, 0, 0]	n/a	FR1	1	R1240T
38.116	0.007	44087	COUNTDOWN_END	n/a	n/a	n/a	-999	-1	[0, 0, 0]	n/a	FR1	1	R1240T
38.123	1.616	44094	PRACTICE_ORIENT	n/a	n/a	n/a	-999	-1	[0, 0, 0]	n/a	FR1	1	R1240T
39.739	1.951	45710	PRACTICE_ORIENT_OFF	n/a	n/a	n/a	-999	-1	[0, 0, 0]	n/a	FR1	1	R1240T
41.69	1.617	47661	PRACTICE_WORD	n/a	n/a	COTTON	1	-1	[0, 0, 0]	n/a	FR1	1	R1240T
43.307	0.884	49278	PRACTICE_WORD_OFF	n/a	n/a	COTTON	-999	-1	[0, 0, 0]	n/a	FR1	1	R1240T
44.191	1.616	50162	PRACTICE_WORD	n/a	n/a	WAGON	2	-1	[0, 0, 0]	n/a	FR1	1	R1240T
45.807	0.833	51778	PRACTICE_WORD_OFF	n/a	n/a	WAGON	-999	-1	[0, 0, 0]	n/a	FR1	1	R1240T
46.64	1.601	52611	PRACTICE_WORD	n/a	n/a	CHEST	3	-1	[0, 0, 0]	n/a	FR1	1	R1240T
48.241	0.868	54212	PRACTICE_WORD_OFF	n/a	n/a	CHEST	-999	-1	[0, 0, 0]	n/a	FR1	1	R1240T
49.109	1.615	55080	PRACTICE_WORD	n/a	n/a	WATCH	4	-1	[0, 0, 0]	n/a	FR1	1	R1240T
50.724	0.984	56695	PRACTICE_WORD_OFF	n/a	n/a	WATCH	-999	-1	[0, 0, 0]	n/a	FR1	1	R1240T
51.708	1.618	57678	PRACTICE_WORD	n/a	n/a	TONGUE	5	-1	[0, 0, 0]	n/a	FR1	1	R1240T
53.326	0.9	59296	PRACTICE_WORD_OFF	n/a	n/a	TONGUE	-999	-1	[0, 0, 0]	n/a	FR1	1	R1240T
54.226	1.616	60196	PRACTICE_WORD	n/a	n/a	ATTIC	6	-1	[0, 0, 0]	n/a	FR1	1	R1240T
55.842	0.884	61812	PRACTICE_WORD_OFF	n/a	n/a	ATTIC	-999	-1	[0, 0, 0]	n/a	FR1	1	R1240T
56.726	1.618	62696	PRACTICE_WORD	n/a	n/a	RHINO	7	-1	[0, 0, 0]	n/a	FR1	1	R1240T
58.344	0.85	64314	PRACTICE_WORD_OFF	n/a	n/a	RHINO	-999	-1	[0, 0, 0]	n/a	FR1	1	R1240T
59.194	1.616	65164	PRACTICE_WORD	n/a	n/a	RING	8	-1	[0, 0, 0]	n/a	FR1	1	R1240T
60.81	0.95	66780	PRACTICE_WORD_OFF	n/a	n/a	RING	-999	-1	[0, 0, 0]	n/a	FR1	1	R1240T
61.76	1.618	67730	PRACTICE_WORD	n/a	n/a	CAMEL	9	-1	[0, 0, 0]	n/a	FR1	1	R1240T
63.378	0.783	69348	PRACTICE_WORD_OFF	n/a	n/a	CAMEL	-999	-1	[0, 0, 0]	n/a	FR1	1	R1240T
64.161	1.616	70131	PRACTICE_WORD	n/a	n/a	BEAM	10	-1	[0, 0, 0]	n/a	FR1	1	R1240T
65.777	0.984	71747	PRACTICE_WORD_OFF	n/a	n/a	BEAM	-999	-1	[0, 0, 0]	n/a	FR1	1	R1240T
66.761	1.618	72731	PRACTICE_WORD	n/a	n/a	FLOOD	11	-1	[0, 0, 0]	n/a	FR1	1	R1240T
68.379	1.0	74348	PRACTICE_WORD_OFF	n/a	n/a	FLOOD	-999	-1	[0, 0, 0]	n/a	FR1	1	R1240T
69.379	1.617	75348	PRACTICE_WORD	n/a	n/a	IRON	12	-1	[0, 0, 0]	n/a	FR1	1	R1240T
70.996	0.0	76965	PRACTICE_WORD_OFF	n/a	n/a	IRON	-999	-1	[0, 0, 0]	n/a	FR1	1	R1240T
70.996	0.0	76965	DISTRACT_START	n/a	n/a	n/a	-999	-1	[0, 0, 0]	n/a	FR1	1	R1240T
70.996	0.016	76965	START	n/a	n/a	n/a	-999	-1	[-999, -999, -999]	n/a	FR1	1	R1240T
71.012	7.218	76981	PROB	7.218	n/a	n/a	-999	-1	[2, 8, 4]	14	FR1	1	R1240T
78.23	4.901	84199	PROB	4.901	n/a	n/a	-999	-1	[2, 2, 3]	7	FR1	1	R1240T
83.131	5.201	89100	PROB	5.201	n/a	n/a	-999	-1	[4, 7, 2]	13	FR1	1	R1240T
88.332	5.664	94300	PROB	5.664	n/a	n/a	-999	-1	[5, 1, 9]	15	FR1	1	R1240T
93.996	0.021	99964	STOP	n/a	n/a	n/a	-999	-1	[-999, -999, -999]	n/a	FR1	1	R1240T
94.017	0.532	99985	DISTRACT_END	n/a	n/a	n/a	-999	-1	[0, 0, 0]	n/a	FR1	1	R1240T
94.549	0.502	100517	RETRIEVAL_ORIENT	n/a	n/a	n/a	-999	-1	[0, 0, 0]	n/a	FR1	1	R1240T
95.051	30.011	101019	PRACTICE_REC_START	n/a	n/a	n/a	-999	-1	[0, 0, 0]	n/a	FR1	1	R1240T
125.062	29.431	131028	PRACTICE_REC_END	n/a	n/a	n/a	-999	-1	[0, 0, 0]	n/a	FR1	1	R1240T
154.493	0.5	160457	TRIAL	n/a	n/a	n/a	-999	1	[0, 0, 0]	n/a	FR1	1	R1240T
154.993	10.428	160957	COUNTDOWN_START	n/a	n/a	n/a	-999	1	[0, 0, 0]	n/a	FR1	1	R1240T
165.421	0.008	171385	COUNTDOWN_END	n/a	n/a	n/a	-999	1	[0, 0, 0]	n/a	FR1	1	R1240T
165.429	1.618	171393	ORIENT	n/a	n/a	n/a	-999	1	[0, 0, 0]	n/a	FR1	1	R1240T
167.047	2.016	173010	ORIENT_OFF	n/a	n/a	n/a	-999	1	[0, 0, 0]	n/a	FR1	1	R1240T
169.063	1.617	175026	WORD	n/a	wordpools/wordpool_EN.txt	POOL	1	1	[0, 0, 0]	n/a	FR1	1	R1240T
170.68	0.933	176643	WORD_OFF	n/a	n/a	POOL	1	1	[0, 0, 0]	n/a	FR1	1	R1240T
171.613	1.601	177576	WORD	n/a	wordpools/wordpool_EN.txt	SHARK	2	1	[0, 0, 0]	n/a	FR1	1	R1240T
173.214	0.884	179177	WORD_OFF	n/a	n/a	SHARK	2	1	[0, 0, 0]	n/a	FR1	1	R1240T
174.098	1.616	180061	WORD	n/a	wordpools/wordpool_EN.txt	SPEAR	3	1	[0, 0, 0]	n/a	FR1	1	R1240T
175.714	0.95	181677	WORD_OFF	n/a	n/a	SPEAR	3	1	[0, 0, 0]	n/a	FR1	1	R1240T
176.664	1.618	182627	WORD	n/a	wordpools/wordpool_EN.txt	CHIEF	4	1	[0, 0, 0]	n/a	FR1	1	R1240T
178.282	0.883	184245	WORD_OFF	n/a	n/a	CHIEF	4	1	[0, 0, 0]	n/a	FR1	1	R1240T
179.165	1.616	185128	WORD	n/a	wordpools/wordpool_EN.txt	CAR	5	1	[0, 0, 0]	n/a	FR1	1	R1240T
180.781	0.901	186744	WORD_OFF	n/a	n/a	CAR	5	1	[0, 0, 0]	n/a	FR1	1	R1240T
181.682	1.618	187645	WORD	n/a	wordpools/wordpool_EN.txt	SPONGE	6	1	[0, 0, 0]	n/a	FR1	1	R1240T
183.3	0.933	189262	WORD_OFF	n/a	n/a	SPONGE	6	1	[0, 0, 0]	n/a	FR1	1	R1240T
184.233	1.616	190195	WORD	n/a	wordpools/wordpool_EN.txt	FISH	7	1	[0, 0, 0]	n/a	FR1	1	R1240T
185.849	1.0	191811	WORD_OFF	n/a	n/a	FISH	7	1	[0, 0, 0]	n/a	FR1	1	R1240T
186.849	1.617	192811	WORD	n/a	wordpools/wordpool_EN.txt	COIN	8	1	[0, 0, 0]	n/a	FR1	1	R1240T
188.466	0.851	194428	WORD_OFF	n/a	n/a	COIN	8	1	[0, 0, 0]	n/a	FR1	1	R1240T
189.317	1.617	195279	WORD	n/a	wordpools/wordpool_EN.txt	TRAIN	9	1	[0, 0, 0]	n/a	FR1	1	R1240T
190.934	0.866	196896	WORD_OFF	n/a	n/a	TRAIN	9	1	[0, 0, 0]	n/a	FR1	1	R1240T
191.8	1.617	197762	WORD	n/a	wordpools/wordpool_EN.txt	SEAT	10	1	[0, 0, 0]	n/a	FR1	1	R1240T
193.417	1.0	199379	WORD_OFF	n/a	n/a	SEAT	10	1	[0, 0, 0]	n/a	FR1	1	R1240T
194.417	1.618	200379	WORD	n/a	wordpools/wordpool_EN.txt	LAKE	11	1	[0, 0, 0]	n/a	FR1	1	R1240T
196.035	0.816	201997	WORD_OFF	n/a	n/a	LAKE	11	1	[0, 0, 0]	n/a	FR1	1	R1240T
196.851	1.617	202813	WORD	n/a	wordpools/wordpool_EN.txt	JEEP	12	1	[0, 0, 0]	n/a	FR1	1	R1240T
198.468	0.0	204430	WORD_OFF	n/a	n/a	JEEP	12	1	[0, 0, 0]	n/a	FR1	1	R1240T
198.468	0.001	204430	DISTRACT_START	n/a	n/a	n/a	-999	1	[0, 0, 0]	n/a	FR1	1	R1240T
198.469	0.016	204431	START	n/a	n/a	n/a	-999	1	[-999, -999, -999]	n/a	FR1	1	R1240T
198.485	3.15	204447	PROB	3.15	n/a	n/a	-999	1	[3, 1, 2]	6	FR1	1	R1240T
201.635	4.635	207596	PROB	4.635	n/a	n/a	-999	1	[5, 7, 2]	14	FR1	1	R1240T
206.27	6.317	212231	PROB	6.317	n/a	n/a	-999	1	[5, 4, 9]	18	FR1	1	R1240T
212.587	7.041	218548	PROB	7.041	n/a	n/a	-999	1	[3, 9, 7]	19	FR1	1	R1240T
219.628	0.01	225588	STOP	n/a	n/a	n/a	-999	1	[-999, -999, -999]	n/a	FR1	1	R1240T
219.638	0.651	225598	DISTRACT_END	n/a	n/a	n/a	-999	1	[0, 0, 0]	n/a	FR1	1	R1240T
220.289	0.518	226249	RETRIEVAL_ORIENT	n/a	n/a	n/a	-999	1	[0, 0, 0]	n/a	FR1	1	R1240T
220.807	0.349	226767	REC_START	n/a	n/a	n/a	-999	1	[0, 0, 0]	n/a	FR1	1	R1240T
221.156	0.713	227116	REC_WORD_VV	0.713	n/a	<>	-999	1	[0, 0, 0]	n/a	FR1	1	R1240T
221.869	0.238	227829	REC_WORD	0.238	n/a	POOL	-999	1	[0, 0, 0]	n/a	FR1	1	R1240T
222.107	1.021	228067	REC_WORD	1.021	n/a	SHARK	-999	1	[0, 0, 0]	n/a	FR1	1	R1240T
223.128	2.763	229088	REC_WORD	2.763	n/a	SPEAR	-999	1	[0, 0, 0]	n/a	FR1	1	R1240T
225.891	5.096	231851	REC_WORD	5.096	n/a	CAR	-999	1	[0, 0, 0]	n/a	FR1	1	R1240T
230.987	5.398	236947	REC_WORD	5.398	n/a	LAKE	-999	1	[0, 0, 0]	n/a	FR1	1	R1240T
236.385	8.781	242344	REC_WORD_VV	8.781	n/a	<>	-999	1	[0, 0, 0]	n/a	FR1	1	R1240T
245.166	0.985	251125	REC_WORD	0.985	n/a	SHARK	-999	1	[0, 0, 0]	n/a	FR1	1	R1240T
246.151	4.666	252110	REC_WORD_VV	4.666	n/a	<>	-999	1	[0, 0, 0]	n/a	FR1	1	R1240T
250.817	37.667	256775	REC_END	n/a	n/a	n/a	-999	1	[0, 0, 0]	n/a	FR1	1	R1240T
288.484	0.5	294440	TRIAL	n/a	n/a	n/a	-999	2	[0, 0, 0]	n/a	FR1	1	R1240T
288.984	10.428	294940	COUNTDOWN_START	n/a	n/a	n/a	-999	2	[0, 0, 0]	n/a	FR1	1	R1240T
299.412	0.008	305367	COUNTDOWN_END	n/a	n/a	n/a	-999	2	[0, 0, 0]	n/a	FR1	1	R1240T
299.42	1.618	305375	ORIENT	n/a	n/a	n/a	-999	2	[0, 0, 0]	n/a	FR1	1	R1240T
301.038	1.883	306993	ORIENT_OFF	n/a	n/a	n/a	-999	2	[0, 0, 0]	n/a	FR1	1	R1240T
302.921	1.616	308876	WORD	n/a	wordpools/wordpool_EN.txt	PANTS	1	2	[0, 0, 0]	n/a	FR1	1	R1240T
304.537	0.967	310492	WORD_OFF	n/a	n/a	PANTS	1	2	[0, 0, 0]	n/a	FR1	1	R1240T
305.504	1.618	311459	WORD	n/a	wordpools/wordpool_EN.txt	SHIELD	2	2	[0, 0, 0]	n/a	FR1	1	R1240T
307.122	0.867	313077	WORD_OFF	n/a	n/a	SHIELD	2	2	[0, 0, 0]	n/a	FR1	1	R1240T
307.989	1.616	313944	WORD	n/a	wordpools/wordpool_EN.txt	BAND	3	2	[0, 0, 0]	n/a	FR1	1	R1240T
309.605	0.784	315560	WORD_OFF	n/a	n/a	BAND	3	2	[0, 0, 0]	n/a	FR1	1	R1240T
310.389	1.617	316344	WORD	n/a	wordpools/wordpool_EN.txt	DRESS	4	2	[0, 0, 0]	n/a	FR1	1	R1240T
312.006	0.984	317961	WORD_OFF	n/a	n/a	DRESS	4	2	[0, 0, 0]	n/a	FR1	1	R1240T
312.99	1.616	318945	WORD	n/a	wordpools/wordpool_EN.txt	CHIN	5	2	[0, 0, 0]	n/a	FR1	1	R1240T
314.606	0.784	320560	WORD_OFF	n/a	n/a	CHIN	5	2	[0, 0, 0]	n/a	FR1	1	R1240T
315.39	1.617	321344	WORD	n/a	wordpools/wordpool_EN.txt	OAK	6	2	[0, 0, 0]	n/a	FR1	1	R1240T
317.007	0.816	322961	WORD_OFF	n/a	n/a	OAK	6	2	[0, 0, 0]	n/a	FR1	1	R1240T
317.823	1.617	323777	WORD	n/a	wordpools/wordpool_EN.txt	DESK	7	2	[0, 0, 0]	n/a	FR1	1	R1240T
319.44	0.834	325394	WORD_OFF	n/a	n/a	DESK	7	2	[0, 0, 0]	n/a	FR1	1	R1240T
320.274	1.617	326228	WORD	n/a	wordpools/wordpool_EN.txt	YARD	8	2	[0, 0, 0]	n/a	FR1	1	R1240T
321.891	0.816	327845	WORD_OFF	n/a	n/a	YARD	8	2	[0, 0, 0]	n/a	FR1	1	R1240T
322.707	1.618	328661	WORD	n/a	wordpools/wordpool_EN.txt	STICK	9	2	[0, 0, 0]	n/a	FR1	1	R1240T
324.325	0.917	330279	WORD_OFF	n/a	n/a	STICK	9	2	[0, 0, 0]	n/a	FR1	1	R1240T
325.242	1.616	331196	WORD	n/a	wordpools/wordpool_EN.txt	ELF	10	2	[0, 0, 0]	n/a	FR1	1	R1240T
326.858	0.883	332812	WORD_OFF	n/a	n/a	ELF	10	2	[0, 0, 0]	n/a	FR1	1	R1240T
327.741	1.618	333695	WORD	n/a	wordpools/wordpool_EN.txt	LEG	11	2	[0, 0, 0]	n/a	FR1	1	R1240T
329.359	0.917	335313	WORD_OFF	n/a	n/a	LEG	11	2	[0, 0, 0]	n/a	FR1	1	R1240T
330.276	1.617	336230	WORD	n/a	wordpools/wordpool_EN.txt	STONE	12	2	[0, 0, 0]	n/a	FR1	1	R1240T
331.893	0.0	337846	DISTRACT_START	n/a	n/a	n/a	-999	2	[0, 0, 0]	n/a	FR1	1	R1240T
331.893	0.001	337846	WORD_OFF	n/a	n/a	STONE	12	2	[0, 0, 0]	n/a	FR1	1	R1240T
331.894	0.016	337847	START	n/a	n/a	n/a	-999	2	[-999, -999, -999]	n/a	FR1	1	R1240T
331.91	7.584	337863	PROB	7.584	n/a	n/a	-999	2	[6, 9, 6]	21	FR1	1	R1240T
339.494	3.217	345447	PROB	3.217	n/a	n/a	-999	2	[9, 2, 1]	12	FR1	1	R1240T
342.711	5.701	348664	PROB	5.701	n/a	n/a	-999	2	[1, 9, 7]	17	FR1	1	R1240T
348.412	7.689	354364	PROB	7.689	n/a	n/a	-999	2	[7, 9, 6]	22	FR1	1	R1240T
356.101	0.013	362053	STOP	n/a	n/a	n/a	-999	2	[-999, -999, -999]	n/a	FR1	1	R1240T
356.114	0.616	362066	DISTRACT_END	n/a	n/a	n/a	-999	2	[0, 0, 0]	n/a	FR1	1	R1240T
356.73	0.518	362682	RETRIEVAL_ORIENT	n/a	n/a	n/a	-999	2	[0, 0, 0]	n/a	FR1	1	R1240T
357.248	0.593	363200	REC_START	n/a	n/a	n/a	-999	2	[0, 0, 0]	n/a	FR1	1	R1240T
357.841	0.95	363793	REC_WORD_VV	0.95	n/a	<>	-999	2	[0, 0, 0]	n/a	FR1	1	R1240T
358.791	0.799	364743	REC_WORD_VV	0.799	n/a	<>	-999	2	[0, 0, 0]	n/a	FR1	1	R1240T
359.59	3.829	365542	REC_WORD_VV	3.829	n/a	<>	-999	2	[0, 0, 0]	n/a	FR1	1	R1240T
363.419	10.649	369371	REC_WORD_VV	10.649	n/a	<>	-999	2	[0, 0, 0]	n/a	FR1	1	R1240T
374.068	5.341	380019	REC_WORD_VV	5.341	n/a	<>	-999	2	[0, 0, 0]	n/a	FR1	1	R1240T
379.409	7.851	385360	REC_WORD	7.851	n/a	OAK	-999	2	[0, 0, 0]	n/a	FR1	1	R1240T
387.26	12.946	393210	REC_END	n/a	n/a	n/a	-999	2	[0, 0, 0]	n/a	FR1	1	R1240T
400.206	0.5	406155	TRIAL	n/a	n/a	n/a	-999	3	[0, 0, 0]	n/a	FR1	1	R1240T
400.706	10.428	406655	COUNTDOWN_START	n/a	n/a	n/a	-999	3	[0, 0, 0]	n/a	FR1	1	R1240T
411.134	0.007	417083	COUNTDOWN_END	n/a	n/a	n/a	-999	3	[0, 0, 0]	n/a	FR1	1	R1240T
411.141	1.616	417090	ORIENT	n/a	n/a	n/a	-999	3	[0, 0, 0]	n/a	FR1	1	R1240T
412.757	2.033	418706	ORIENT_OFF	n/a	n/a	n/a	-999	3	[0, 0, 0]	n/a	FR1	1	R1240T
414.79	1.602	420738	WORD	n/a	wordpools/wordpool_EN.txt	TRUCK	1	3	[0, 0, 0]	n/a	FR1	1	R1240T
416.392	1.0	422340	WORD_OFF	n/a	n/a	TRUCK	1	3	[0, 0, 0]	n/a	FR1	1	R1240T
417.392	1.617	423340	WORD	n/a	wordpools/wordpool_EN.txt	BEAR	2	3	[0, 0, 0]	n/a	FR1	1	R1240T
419.009	0.883	424957	WORD_OFF	n/a	n/a	BEAR	2	3	[0, 0, 0]	n/a	FR1	1	R1240T
419.892	1.616	425840	WORD	n/a	wordpools/wordpool_EN.txt	PRINCE	3	3	[0, 0, 0]	n/a	FR1	1	R1240T
421.508	0.835	427456	WORD_OFF	n/a	n/a	PRINCE	3	3	[0, 0, 0]	n/a	FR1	1	R1240T
422.343	1.617	428291	WORD	n/a	wordpools/wordpool_EN.txt	CAGE	4	3	[0, 0, 0]	n/a	FR1	1	R1240T
423.96	0.816	429908	WORD_OFF	n/a	n/a	CAGE	4	3	[0, 0, 0]	n/a	FR1	1	R1240T
424.776	1.618	430724	WORD	n/a	wordpools/wordpool_EN.txt	HOLE	5	3	[0, 0, 0]	n/a	FR1	1	R1240T
426.394	0.883	432342	WORD_OFF	n/a	n/a	HOLE	5	3	[0, 0, 0]	n/a	FR1	1	R1240T
427.277	1.617	433225	WORD	n/a	wordpools/wordpool_EN.txt	SUN	6	3	[0, 0, 0]	n/a	FR1	1	R1240T
428.894	0.883	434842	WORD_OFF	n/a	n/a	SUN	6	3	[0, 0, 0]	n/a	FR1	1	R1240T
429.777	1.617	435724	WORD	n/a	wordpools/wordpool_EN.txt	FORK	7	3	[0, 0, 0]	n/a	FR1	1	R1240T
431.394	0.901	437341	WORD_OFF	n/a	n/a	FORK	7	3	[0, 0, 0]	n/a	FR1	1	R1240T
432.295	1.617	438242	WORD	n/a	wordpools/wordpool_EN.txt	DOG	8	3	[0, 0, 0]	n/a	FR1	1	R1240T
433.912	0.967	439859	WORD_OFF	n/a	n/a	DOG	8	3	[0, 0, 0]	n/a	FR1	1	R1240T
434.879	1.615	440826	WORD	n/a	wordpools/wordpool_EN.txt	TEA	9	3	[0, 0, 0]	n/a	FR1	1	R1240T
436.494	0.901	442441	WORD_OFF	n/a	n/a	TEA	9	3	[0, 0, 0]	n/a	FR1	1	R1240T
437.395	1.618	443342	WORD	n/a	wordpools/wordpool_EN.txt	SOCK	10	3	[0, 0, 0]	n/a	FR1	1	R1240T
439.013	0.815	444960	WORD_OFF	n/a	n/a	SOCK	10	3	[0, 0, 0]	n/a	FR1	1	R1240T
439.828	1.617	445775	WORD	n/a	wordpools/wordpool_EN.txt	FOG	11	3	[0, 0, 0]	n/a	FR1	1	R1240T
441.445	0.918	447392	WORD_OFF	n/a	n/a	FOG	11	3	[0, 0, 0]	n/a	FR1	1	R1240T
442.363	1.617	448310	WORD	n/a	wordpools/wordpool_EN.txt	APE	12	3	[0, 0, 0]	n/a	FR1	1	R1240T
443.98	0.0	449927	WORD_OFF	n/a	n/a	APE	12	3	[0, 0, 0]	n/a	FR1	1	R1240T
443.98	0.001	449927	DISTRACT_START	n/a	n/a	n/a	-999	3	[0, 0, 0]	n/a	FR1	1	R1240T
443.981	0.016	449928	START	n/a	n/a	n/a	-999	3	[-999, -999, -999]	n/a	FR1	1	R1240T
443.997	8.951	449944	PROB	8.951	n/a	n/a	-999	3	[9, 7, 2]	18	FR1	1	R1240T
452.948	4.834	458894	PROB	4.834	n/a	n/a	-999	3	[1, 5, 8]	14	FR1	1	R1240T
457.782	3.135	463728	PROB	3.135	n/a	n/a	-999	3	[2, 3, 3]	8	FR1	1	R1240T
460.917	4.719	466863	PROB	4.719	n/a	n/a	-999	3	[9, 4, 2]	15	FR1	1	R1240T
465.636	0.014	471581	STOP	n/a	n/a	n/a	-999	3	[-999, -999, -999]	n/a	FR1	1	R1240T
465.65	0.568	471595	DISTRACT_END	n/a	n/a	n/a	-999	3	[0, 0, 0]	n/a	FR1	1	R1240T
466.218	0.516	472163	RETRIEVAL_ORIENT	n/a	n/a	n/a	-999	3	[0, 0, 0]	n/a	FR1	1	R1240T
466.734	5.008	472679	REC_START	n/a	n/a	n/a	-999	3	[0, 0, 0]	n/a	FR1	1	R1240T
471.742	0.845	477687	REC_WORD_VV	0.845	n/a	<>	-999	3	[0, 0, 0]	n/a	FR1	1	R1240T
472.587	5.593	478532	REC_WORD_VV	5.593	n/a	<>	-999	3	[0, 0, 0]	n/a	FR1	1	R1240T
478.18	5.602	484125	REC_WORD_VV	5.602	n/a	<>	-999	3	[0, 0, 0]	n/a	FR1	1	R1240T
483.782	7.885	489726	REC_WORD_VV	7.885	n/a	<>	-999	3	[0, 0, 0]	n/a	FR1	1	R1240T
491.667	0.501	497611	REC_WORD	0.501	n/a	SHARK	-999	3	[0, 0, 0]	n/a	FR1	1	R1240T
492.168	1.108	498112	REC_WORD	1.108	n/a	FOG	-999	3	[0, 0, 0]	n/a	FR1	1	R1240T
493.276	1.593	499220	REC_WORD	1.593	n/a	TANK	-999	3	[0, 0, 0]	n/a	FR1	1	R1240T
494.869	1.875	500813	REC_WORD	1.875	n/a	LAKE	-999	3	[0, 0, 0]	n/a	FR1	1	R1240T
496.744	7.029	502687	REC_END	n/a	n/a	n/a	-999	3	[0, 0, 0]	n/a	FR1	1	R1240T
503.773	0.5	509716	TRIAL	n/a	n/a	n/a	-999	4	[0, 0, 0]	n/a	FR1	1	R1240T
504.273	10.428	510216	COUNTDOWN_START	n/a	n/a	n/a	-999	4	[0, 0, 0]	n/a	FR1	1	R1240T
514.701	0.008	520643	COUNTDOWN_END	n/a	n/a	n/a	-999	4	[0, 0, 0]	n/a	FR1	1	R1240T
514.709	1.618	520651	ORIENT	n/a	n/a	n/a	-999	4	[0, 0, 0]	n/a	FR1	1	R1240T
516.327	1.883	522269	ORIENT_OFF	n/a	n/a	n/a	-999	4	[0, 0, 0]	n/a	FR1	1	R1240T
518.21	1.616	524152	WORD	n/a	wordpools/wordpool_EN.txt	BREAD	1	4	[0, 0, 0]	n/a	FR1	1	R1240T
519.826	0.867	525768	WORD_OFF	n/a	n/a	BREAD	1	4	[0, 0, 0]	n/a	FR1	1	R1240T
520.693	1.618	526635	WORD	n/a	wordpools/wordpool_EN.txt	NET	2	4	[0, 0, 0]	n/a	FR1	1	R1240T
522.311	0.95	528253	WORD_OFF	n/a	n/a	NET	2	4	[0, 0, 0]	n/a	FR1	1	R1240T
523.261	1.617	529203	WORD	n/a	wordpools/wordpool_EN.txt	JAIL	3	4	[0, 0, 0]	n/a	FR1	1	R1240T
524.878	0.932	530820	WORD_OFF	n/a	n/a	JAIL	3	4	[0, 0, 0]	n/a	FR1	1	R1240T
525.81	1.618	531752	WORD	n/a	wordpools/wordpool_EN.txt	FLUTE	4	4	[0, 0, 0]	n/a	FR1	1	R1240T
527.428	1.0	533370	WORD_OFF	n/a	n/a	FLUTE	4	4	[0, 0, 0]	n/a	FR1	1	R1240T
528.428	1.601	534369	WORD	n/a	wordpools/wordpool_EN.txt	LEAF	5	4	[0, 0, 0]	n/a	FR1	1	R1240T
530.029	0.783	535970	WORD_OFF	n/a	n/a	LEAF	5	4	[0, 0, 0]	n/a	FR1	1	R1240T
530.812	1.617	536753	WORD	n/a	wordpools/wordpool_EN.txt	SHEEP	6	4	[0, 0, 0]	n/a	FR1	1	R1240T
532.429	0.851	538370	WORD_OFF	n/a	n/a	SHEEP	6	4	[0, 0, 0]	n/a	FR1	1	R1240T
533.28	1.617	539221	WORD	n/a	wordpools/wordpool_EN.txt	THREAD	7	4	[0, 0, 0]	n/a	FR1	1	R1240T
534.897	0.965	540838	WORD_OFF	n/a	n/a	THREAD	7	4	[0, 0, 0]	n/a	FR1	1	R1240T
535.862	1.617	541803	WORD	n/a	wordpools/wordpool_EN.txt	GRAPE	8	4	[0, 0, 0]	n/a	FR1	1	R1240T
537.479	0.934	543420	WORD_OFF	n/a	n/a	GRAPE	8	4	[0, 0, 0]	n/a	FR1	1	R1240T
538.413	1.618	544354	WORD	n/a	wordpools/wordpool_EN.txt	BRANCH	9	4	[0, 0, 0]	n/a	FR1	1	R1240T
540.031	0.799	545972	WORD_OFF	n/a	n/a	BRANCH	9	4	[0, 0, 0]	n/a	FR1	1	R1240T
540.83	1.617	546771	WORD	n/a	wordpools/wordpool_EN.txt	ROOM	10	4	[0, 0, 0]	n/a	FR1	1	R1240T
542.447	0.967	548388	WORD_OFF	n/a	n/a	ROOM	10	4	[0, 0, 0]	n/a	FR1	1	R1240T
543.414	1.618	549355	WORD	n/a	wordpools/wordpool_EN.txt	GEESE	11	4	[0, 0, 0]	n/a	FR1	1	R1240T
545.032	0.9	550972	WORD_OFF	n/a	n/a	GEESE	11	4	[0, 0, 0]	n/a	FR1	1	R1240T
545.932	1.616	551872	WORD	n/a	wordpools/wordpool_EN.txt	BEACH	12	4	[0, 0, 0]	n/a	FR1	1	R1240T
547.548	0.0	553488	WORD_OFF	n/a	n/a	BEACH	12	4	[0, 0, 0]	n/a	FR1	1	R1240T
547.548	0.001	553488	DISTRACT_START	n/a	n/a	n/a	-999	4	[0, 0, 0]	n/a	FR1	1	R1240T
547.549	0.016	553489	START	n/a	n/a	n/a	-999	4	[-999, -999, -999]	n/a	FR1	1	R1240T
547.565	3.618	553505	PROB	3.618	n/a	n/a	-999	4	[6, 1, 1]	8	FR1	1	R1240T
551.183	3.416	557123	PROB	3.416	n/a	n/a	-999	4	[1, 3, 1]	5	FR1	1	R1240T
554.599	7.818	560539	PROB	7.818	n/a	n/a	-999	4	[6, 1, 9]	16	FR1	1	R1240T
562.417	10.13	568356	PROB	10.13	n/a	n/a	-999	4	[8, 6, 3]	17	FR1	1	R1240T
572.547	0.022	578486	STOP	n/a	n/a	n/a	-999	4	[-999, -999, -999]	n/a	FR1	1	R1240T
572.569	0.568	578508	DISTRACT_END	n/a	n/a	n/a	-999	4	[0, 0, 0]	n/a	FR1	1	R1240T
573.137	0.516	579076	RETRIEVAL_ORIENT	n/a	n/a	n/a	-999	4	[0, 0, 0]	n/a	FR1	1	R1240T
573.653	0.565	579592	REC_START	n/a	n/a	n/a	-999	4	[0, 0, 0]	n/a	FR1	1	R1240T
574.218	3.894	580157	REC_WORD	3.894	n/a	BEACH	-999	4	[0, 0, 0]	n/a	FR1	1	R1240T
578.112	4.505	584050	REC_WORD_VV	4.505	n/a	<>	-999	4	[0, 0, 0]	n/a	FR1	1	R1240T
582.617	4.193	588555	REC_WORD	4.193	n/a	FOG	-999	4	[0, 0, 0]	n/a	FR1	1	R1240T
586.81	1.719	592748	REC_WORD	1.719	n/a	SEA	-999	4	[0, 0, 0]	n/a	FR1	1	R1240T
588.529	15.136	594467	REC_WORD	15.136	n/a	CAGE	-999	4	[0, 0, 0]	n/a	FR1	1	R1240T
603.665	5.744	609602	REC_END	n/a	n/a	n/a	-999	4	[0, 0, 0]	n/a	FR1	1	R1240T
609.409	0.5	615346	TRIAL	n/a	n/a	n/a	-999	5	[0, 0, 0]	n/a	FR1	1	R1240T
609.909	10.428	615846	COUNTDOWN_START	n/a	n/a	n/a	-999	5	[0, 0, 0]	n/a	FR1	1	R1240T
620.337	0.009	626273	COUNTDOWN_END	n/a	n/a	n/a	-999	5	[0, 0, 0]	n/a	FR1	1	R1240T
620.346	1.617	626282	ORIENT	n/a	n/a	n/a	-999	5	[0, 0, 0]	n/a	FR1	1	R1240T
621.963	2.133	627899	ORIENT_OFF	n/a	n/a	n/a	-999	5	[0, 0, 0]	n/a	FR1	1	R1240T
624.096	1.616	630032	WORD	n/a	wordpools/wordpool_EN.txt	NAIL	1	5	[0, 0, 0]	n/a	FR1	1	R1240T
625.712	0.967	631648	WORD_OFF	n/a	n/a	NAIL	1	5	[0, 0, 0]	n/a	FR1	1	R1240T
626.679	1.601	632615	WORD	n/a	wordpools/wordpool_EN.txt	STOVE	2	5	[0, 0, 0]	n/a	FR1	1	R1240T
628.28	0.834	634215	WORD_OFF	n/a	n/a	STOVE	2	5	[0, 0, 0]	n/a	FR1	1	R1240T
629.114	1.616	635049	WORD	n/a	wordpools/wordpool_EN.txt	SCHOOL	3	5	[0, 0, 0]	n/a	FR1	1	R1240T
630.73	0.867	636665	WORD_OFF	n/a	n/a	SCHOOL	3	5	[0, 0, 0]	n/a	FR1	1	R1240T
631.597	1.618	637532	WORD	n/a	wordpools/wordpool_EN.txt	LOCK	4	5	[0, 0, 0]	n/a	FR1	1	R1240T
633.215	0.866	639150	WORD_OFF	n/a	n/a	LOCK	4	5	[0, 0, 0]	n/a	FR1	1	R1240T
634.081	1.616	640016	WORD	n/a	wordpools/wordpool_EN.txt	VINE	5	5	[0, 0, 0]	n/a	FR1	1	R1240T
635.697	0.85	641632	WORD_OFF	n/a	n/a	VINE	5	5	[0, 0, 0]	n/a	FR1	1	R1240T
636.547	1.602	642482	WORD	n/a	wordpools/wordpool_EN.txt	WHALE	6	5	[0, 0, 0]	n/a	FR1	1	R1240T
638.149	0.817	644084	WORD_OFF	n/a	n/a	WHALE	6	5	[0, 0, 0]	n/a	FR1	1	R1240T
638.966	1.616	644901	WORD	n/a	wordpools/wordpool_EN.txt	BENCH	7	5	[0, 0, 0]	n/a	FR1	1	R1240T
640.582	0.801	646517	WORD_OFF	n/a	n/a	BENCH	7	5	[0, 0, 0]	n/a	FR1	1	R1240T
641.383	1.617	647318	WORD	n/a	wordpools/wordpool_EN.txt	BOARD	8	5	[0, 0, 0]	n/a	FR1	1	R1240T
643.0	0.832	648935	WORD_OFF	n/a	n/a	BOARD	8	5	[0, 0, 0]	n/a	FR1	1	R1240T
643.832	1.617	649766	WORD	n/a	wordpools/wordpool_EN.txt	WALL	9	5	[0, 0, 0]	n/a	FR1	1	R1240T
645.449	0.967	651383	WORD_OFF	n/a	n/a	WALL	9	5	[0, 0, 0]	n/a	FR1	1	R1240T
646.416	1.618	652350	WORD	n/a	wordpools/wordpool_EN.txt	CLOTH	10	5	[0, 0, 0]	n/a	FR1	1	R1240T
648.034	0.766	653968	WORD_OFF	n/a	n/a	CLOTH	10	5	[0, 0, 0]	n/a	FR1	1	R1240T
648.8	1.617	654734	WORD	n/a	wordpools/wordpool_EN.txt	HORN	11	5	[0, 0, 0]	n/a	FR1	1	R1240T
650.417	0.951	656351	WORD_OFF	n/a	n/a	HORN	11	5	[0, 0, 0]	n/a	FR1	1	R1240T
651.368	1.617	657302	WORD	n/a	wordpools/wordpool_EN.txt	PEACH	12	5	[0, 0, 0]	n/a	FR1	1	R1240T
652.985	0.0	658919	WORD_OFF	n/a	n/a	PEACH	12	5	[0, 0, 0]	n/a	FR1	1	R1240T
652.985	0.0	658919	DISTRACT_START	n/a	n/a	n/a	-999	5	[0, 0, 0]	n/a	FR1	1	R1240T
652.985	0.017	658919	START	n/a	n/a	n/a	-999	5	[-999, -999, -999]	n/a	FR1	1	R1240T
653.002	5.334	658936	PROB	5.334	n/a	n/a	-999	5	[8, 4, 1]	13	FR1	1	R1240T
658.336	2.533	664270	PROB	2.533	n/a	n/a	-999	5	[1, 3, 3]	7	FR1	1	R1240T
660.869	9.419	666802	PROB	9.419	n/a	n/a	-999	5	[3, 4, 3]	10	FR1	1	R1240T
670.288	5.412	676221	PROB	5.412	n/a	n/a	-999	5	[6, 5, 1]	12	FR1	1	R1240T
675.7	0.021	681633	STOP	n/a	n/a	n/a	-999	5	[-999, -999, -999]	n/a	FR1	1	R1240T
675.721	0.601	681654	DISTRACT_END	n/a	n/a	n/a	-999	5	[0, 0, 0]	n/a	FR1	1	R1240T
676.322	0.517	682254	RETRIEVAL_ORIENT	n/a	n/a	n/a	-999	5	[0, 0, 0]	n/a	FR1	1	R1240T
676.839	0.677	682771	REC_START	n/a	n/a	n/a	-999	5	[0, 0, 0]	n/a	FR1	1	R1240T
677.516	0.75	683448	REC_WORD	0.75	n/a	PEACH	-999	5	[0, 0, 0]	n/a	FR1	1	R1240T
678.266	2.604	684198	REC_WORD	2.604	n/a	BEACH	-999	5	[0, 0, 0]	n/a	FR1	1	R1240T
680.87	8.064	686802	REC_WORD	8.064	n/a	FOG	-999	5	[0, 0, 0]	n/a	FR1	1	R1240T
688.934	17.915	694866	REC_WORD	17.915	n/a	WHALE	-999	5	[0, 0, 0]	n/a	FR1	1	R1240T
706.849	5.347	712780	REC_END	n/a	n/a	n/a	-999	5	[0, 0, 0]	n/a	FR1	1	R1240T
712.196	0.5	718126	TRIAL	n/a	n/a	n/a	-999	6	[0, 0, 0]	n/a	FR1	1	R1240T
712.696	10.428	718626	COUNTDOWN_START	n/a	n/a	n/a	-999	6	[0, 0, 0]	n/a	FR1	1	R1240T
723.124	0.007	729054	COUNTDOWN_END	n/a	n/a	n/a	-999	6	[0, 0, 0]	n/a	FR1	1	R1240T
723.131	1.616	729061	ORIENT	n/a	n/a	n/a	-999	6	[0, 0, 0]	n/a	FR1	1	R1240T
724.747	1.917	730677	ORIENT_OFF	n/a	n/a	n/a	-999	6	[0, 0, 0]	n/a	FR1	1	R1240T
726.664	1.618	732593	WORD	n/a	wordpools/wordpool_EN.txt	SKUNK	1	6	[0, 0, 0]	n/a	FR1	1	R1240T
728.282	0.95	734211	WORD_OFF	n/a	n/a	SKUNK	1	6	[0, 0, 0]	n/a	FR1	1	R1240T
729.232	1.616	735161	WORD	n/a	wordpools/wordpool_EN.txt	DOCK	2	6	[0, 0, 0]	n/a	FR1	1	R1240T
730.848	0.85	736777	WORD_OFF	n/a	n/a	DOCK	2	6	[0, 0, 0]	n/a	FR1	1	R1240T
731.698	1.618	737627	WORD	n/a	wordpools/wordpool_EN.txt	CLOWN	3	6	[0, 0, 0]	n/a	FR1	1	R1240T
733.316	0.8	739245	WORD_OFF	n/a	n/a	CLOWN	3	6	[0, 0, 0]	n/a	FR1	1	R1240T
734.116	1.616	740045	WORD	n/a	wordpools/wordpool_EN.txt	SINK	4	6	[0, 0, 0]	n/a	FR1	1	R1240T
735.732	0.967	741661	WORD_OFF	n/a	n/a	SINK	4	6	[0, 0, 0]	n/a	FR1	1	R1240T
736.699	1.618	742628	WORD	n/a	wordpools/wordpool_EN.txt	LAMB	5	6	[0, 0, 0]	n/a	FR1	1	R1240T
738.317	0.9	744246	WORD_OFF	n/a	n/a	LAMB	5	6	[0, 0, 0]	n/a	FR1	1	R1240T
739.217	1.616	745146	WORD	n/a	wordpools/wordpool_EN.txt	TOAST	6	6	[0, 0, 0]	n/a	FR1	1	R1240T
740.833	0.984	746762	WORD_OFF	n/a	n/a	TOAST	6	6	[0, 0, 0]	n/a	FR1	1	R1240T
741.817	1.617	747746	WORD	n/a	wordpools/wordpool_EN.txt	FUDGE	7	6	[0, 0, 0]	n/a	FR1	1	R1240T
743.434	0.801	749362	WORD_OFF	n/a	n/a	FUDGE	7	6	[0, 0, 0]	n/a	FR1	1	R1240T
744.235	1.616	750163	WORD	n/a	wordpools/wordpool_EN.txt	CAVE	8	6	[0, 0, 0]	n/a	FR1	1	R1240T
745.851	0.85	751779	WORD_OFF	n/a	n/a	CAVE	8	6	[0, 0, 0]	n/a	FR1	1	R1240T
746.701	1.618	752629	WORD	n/a	wordpools/wordpool_EN.txt	TAIL	9	6	[0, 0, 0]	n/a	FR1	1	R1240T
748.319	0.983	754247	WORD_OFF	n/a	n/a	TAIL	9	6	[0, 0, 0]	n/a	FR1	1	R1240T
749.302	1.617	755230	WORD	n/a	wordpools/wordpool_EN.txt	MOLE	10	6	[0, 0, 0]	n/a	FR1	1	R1240T
750.919	0.833	756847	WORD_OFF	n/a	n/a	MOLE	10	6	[0, 0, 0]	n/a	FR1	1	R1240T
751.752	1.618	757680	WORD	n/a	wordpools/wordpool_EN.txt	BIRD	11	6	[0, 0, 0]	n/a	FR1	1	R1240T
753.37	0.917	759298	WORD_OFF	n/a	n/a	BIRD	11	6	[0, 0, 0]	n/a	FR1	1	R1240T
754.287	1.617	760215	WORD	n/a	wordpools/wordpool_EN.txt	THUMB	12	6	[0, 0, 0]	n/a	FR1	1	R1240T
755.904	0.0	761832	WORD_OFF	n/a	n/a	THUMB	12	6	[0, 0, 0]	n/a	FR1	1	R1240T
755.904	0.0	761832	DISTRACT_START	n/a	n/a	n/a	-999	6	[0, 0, 0]	n/a	FR1	1	R1240T
755.904	0.016	761832	START	n/a	n/a	n/a	-999	6	[-999, -999, -999]	n/a	FR1	1	R1240T
755.92	7.385	761848	PROB	7.385	n/a	n/a	-999	6	[4, 3, 8]	15	FR1	1	R1240T
763.305	5.333	769232	PROB	5.333	n/a	n/a	-999	6	[1, 2, 4]	7	FR1	1	R1240T
768.638	6.035	774565	PROB	6.035	n/a	n/a	-999	6	[1, 5, 8]	14	FR1	1	R1240T
774.673	7.46	780600	PROB	7.46	n/a	n/a	-999	6	[4, 2, 7]	13	FR1	1	R1240T
782.133	0.009	788059	STOP	n/a	n/a	n/a	-999	6	[-999, -999, -999]	n/a	FR1	1	R1240T
782.142	0.582	788068	DISTRACT_END	n/a	n/a	n/a	-999	6	[0, 0, 0]	n/a	FR1	1	R1240T
782.724	0.518	788650	RETRIEVAL_ORIENT	n/a	n/a	n/a	-999	6	[0, 0, 0]	n/a	FR1	1	R1240T
783.242	8.905	789168	REC_START	n/a	n/a	n/a	-999	6	[0, 0, 0]	n/a	FR1	1	R1240T
792.147	3.329	798072	REC_WORD_VV	3.329	n/a	<>	-999	6	[0, 0, 0]	n/a	FR1	1	R1240T
795.476	0.571	801401	REC_WORD	0.571	n/a	BEACH	-999	6	[0, 0, 0]	n/a	FR1	1	R1240T
796.047	1.184	801972	REC_WORD	1.184	n/a	PEACH	-999	6	[0, 0, 0]	n/a	FR1	1	R1240T
797.231	16.024	803156	REC_WORD	16.024	n/a	WHALE	-999	6	[0, 0, 0]	n/a	FR1	1	R1240T
813.255	5.409	819179	REC_END	n/a	n/a	n/a	-999	6	[0, 0, 0]	n/a	FR1	1	R1240T
818.664	0.5	824588	TRIAL	n/a	n/a	n/a	-999	7	[0, 0, 0]	n/a	FR1	1	R1240T
819.164	10.428	825088	COUNTDOWN_START	n/a	n/a	n/a	-999	7	[0, 0, 0]	n/a	FR1	1	R1240T
829.592	0.007	835515	COUNTDOWN_END	n/a	n/a	n/a	-999	7	[0, 0, 0]	n/a	FR1	1	R1240T
829.599	1.618	835522	ORIENT	n/a	n/a	n/a	-999	7	[0, 0, 0]	n/a	FR1	1	R1240T
831.217	1.834	837140	ORIENT_OFF	n/a	n/a	n/a	-999	7	[0, 0, 0]	n/a	FR1	1	R1240T
833.051	1.616	838974	WORD	n/a	wordpools/wordpool_EN.txt	SOAP	1	7	[0, 0, 0]	n/a	FR1	1	R1240T
834.667	1.0	840590	WORD_OFF	n/a	n/a	SOAP	1	7	[0, 0, 0]	n/a	FR1	1	R1240T
835.667	1.618	841590	WORD	n/a	wordpools/wordpool_EN.txt	SQUARE	2	7	[0, 0, 0]	n/a	FR1	1	R1240T
837.285	0.9	843208	WORD_OFF	n/a	n/a	SQUARE	2	7	[0, 0, 0]	n/a	FR1	1	R1240T
838.185	1.616	844108	WORD	n/a	wordpools/wordpool_EN.txt	SIGN	3	7	[0, 0, 0]	n/a	FR1	1	R1240T
839.801	0.817	845724	WORD_OFF	n/a	n/a	SIGN	3	7	[0, 0, 0]	n/a	FR1	1	R1240T
840.618	1.601	846541	WORD	n/a	wordpools/wordpool_EN.txt	FOAM	4	7	[0, 0, 0]	n/a	FR1	1	R1240T
842.219	0.934	848141	WORD_OFF	n/a	n/a	FOAM	4	7	[0, 0, 0]	n/a	FR1	1	R1240T
843.153	1.616	849075	WORD	n/a	wordpools/wordpool_EN.txt	ARK	5	7	[0, 0, 0]	n/a	FR1	1	R1240T
844.769	0.833	850691	WORD_OFF	n/a	n/a	ARK	5	7	[0, 0, 0]	n/a	FR1	1	R1240T
845.602	1.602	851524	WORD	n/a	wordpools/wordpool_EN.txt	MOUSE	6	7	[0, 0, 0]	n/a	FR1	1	R1240T
847.204	0.816	853126	WORD_OFF	n/a	n/a	MOUSE	6	7	[0, 0, 0]	n/a	FR1	1	R1240T
848.02	1.616	853942	WORD	n/a	wordpools/wordpool_EN.txt	BAG	7	7	[0, 0, 0]	n/a	FR1	1	R1240T
849.636	0.984	855558	WORD_OFF	n/a	n/a	BAG	7	7	[0, 0, 0]	n/a	FR1	1	R1240T
850.62	1.618	856542	WORD	n/a	wordpools/wordpool_EN.txt	STORM	8	7	[0, 0, 0]	n/a	FR1	1	R1240T
852.238	0.8	858160	WORD_OFF	n/a	n/a	STORM	8	7	[0, 0, 0]	n/a	FR1	1	R1240T
853.038	1.616	858960	WORD	n/a	wordpools/wordpool_EN.txt	LIP	9	7	[0, 0, 0]	n/a	FR1	1	R1240T
854.654	0.767	860576	WORD_OFF	n/a	n/a	LIP	9	7	[0, 0, 0]	n/a	FR1	1	R1240T
855.421	1.618	861343	WORD	n/a	wordpools/wordpool_EN.txt	PIN	10	7	[0, 0, 0]	n/a	FR1	1	R1240T
857.039	0.833	862961	WORD_OFF	n/a	n/a	PIN	10	7	[0, 0, 0]	n/a	FR1	1	R1240T
857.872	1.616	863793	WORD	n/a	wordpools/wordpool_EN.txt	BOMB	11	7	[0, 0, 0]	n/a	FR1	1	R1240T
859.488	0.917	865409	WORD_OFF	n/a	n/a	BOMB	11	7	[0, 0, 0]	n/a	FR1	1	R1240T
860.405	1.618	866326	WORD	n/a	wordpools/wordpool_EN.txt	LAWN	12	7	[0, 0, 0]	n/a	FR1	1	R1240T
862.023	0.0	867944	WORD_OFF	n/a	n/a	LAWN	12	7	[0, 0, 0]	n/a	FR1	1	R1240T
862.023	0.0	867944	DISTRACT_START	n/a	n/a	n/a	-999	7	[0, 0, 0]	n/a	FR1	1	R1240T
862.023	0.017	867944	START	n/a	n/a	n/a	-999	7	[-999, -999, -999]	n/a	FR1	1	R1240T
862.04	8.7	867961	PROB	8.7	n/a	n/a	-999	7	[9, 7, 3]	19	FR1	1	R1240T
870.74	7.752	876661	PROB	7.752	n/a	n/a	-999	7	[3, 7, 4]	14	FR1	1	R1240T
878.492	3.784	884412	PROB	3.784	n/a	n/a	-999	7	[2, 6, 1]	9	FR1	1	R1240T
882.276	0.017	888196	STOP	n/a	n/a	n/a	-999	7	[-999, -999, -999]	n/a	FR1	1	R1240T
882.293	0.617	888213	DISTRACT_END	n/a	n/a	n/a	-999	7	[0, 0, 0]	n/a	FR1	1	R1240T
882.91	0.516	888830	RETRIEVAL_ORIENT	n/a	n/a	n/a	-999	7	[0, 0, 0]	n/a	FR1	1	R1240T
883.426	12.298	889346	REC_START	n/a	n/a	n/a	-999	7	[0, 0, 0]	n/a	FR1	1	R1240T
895.724	6.526	901643	REC_WORD_VV	6.526	n/a	<>	-999	7	[0, 0, 0]	n/a	FR1	1	R1240T
902.25	0.591	908169	REC_WORD	0.591	n/a	WHALE	-999	7	[0, 0, 0]	n/a	FR1	1	R1240T
902.841	6.431	908760	REC_WORD	6.431	n/a	LAMB	-999	7	[0, 0, 0]	n/a	FR1	1	R1240T
909.272	0.682	915190	REC_WORD	0.682	n/a	PEACH	-999	7	[0, 0, 0]	n/a	FR1	1	R1240T
909.954	3.483	915872	REC_WORD	3.483	n/a	BEACH	-999	7	[0, 0, 0]	n/a	FR1	1	R1240T
913.437	5.295	919355	REC_END	n/a	n/a	n/a	-999	7	[0, 0, 0]	n/a	FR1	1	R1240T
918.732	0.5	924650	TRIAL	n/a	n/a	n/a	-999	8	[0, 0, 0]	n/a	FR1	1	R1240T
919.232	10.428	925150	COUNTDOWN_START	n/a	n/a	n/a	-999	8	[0, 0, 0]	n/a	FR1	1	R1240T
929.66	0.007	935577	COUNTDOWN_END	n/a	n/a	n/a	-999	8	[0, 0, 0]	n/a	FR1	1	R1240T
929.667	1.602	935584	ORIENT	n/a	n/a	n/a	-999	8	[0, 0, 0]	n/a	FR1	1	R1240T
931.269	1.917	937186	ORIENT_OFF	n/a	n/a	n/a	-999	8	[0, 0, 0]	n/a	FR1	1	R1240T
933.186	1.616	939103	WORD	n/a	wordpools/wordpool_EN.txt	JUICE	1	8	[0, 0, 0]	n/a	FR1	1	R1240T
934.802	0.833	940719	WORD_OFF	n/a	n/a	JUICE	1	8	[0, 0, 0]	n/a	FR1	1	R1240T
935.635	1.601	941552	WORD	n/a	wordpools/wordpool_EN.txt	SLEEVE	2	8	[0, 0, 0]	n/a	FR1	1	R1240T
937.236	0.817	943153	WORD_OFF	n/a	n/a	SLEEVE	2	8	[0, 0, 0]	n/a	FR1	1	R1240T
938.053	1.616	943970	WORD	n/a	wordpools/wordpool_EN.txt	MAT	3	8	[0, 0, 0]	n/a	FR1	1	R1240T
939.669	0.884	945585	WORD_OFF	n/a	n/a	MAT	3	8	[0, 0, 0]	n/a	FR1	1	R1240T
940.553	1.618	946469	WORD	n/a	wordpools/wordpool_EN.txt	FAN	4	8	[0, 0, 0]	n/a	FR1	1	R1240T
942.171	0.816	948087	WORD_OFF	n/a	n/a	FAN	4	8	[0, 0, 0]	n/a	FR1	1	R1240T
942.987	1.617	948903	WORD	n/a	wordpools/wordpool_EN.txt	AXE	5	8	[0, 0, 0]	n/a	FR1	1	R1240T
944.604	0.833	950520	WORD_OFF	n/a	n/a	AXE	5	8	[0, 0, 0]	n/a	FR1	1	R1240T
945.437	1.618	951353	WORD	n/a	wordpools/wordpool_EN.txt	NOSE	6	8	[0, 0, 0]	n/a	FR1	1	R1240T
947.055	0.917	952971	WORD_OFF	n/a	n/a	NOSE	6	8	[0, 0, 0]	n/a	FR1	1	R1240T
947.972	1.616	953888	WORD	n/a	wordpools/wordpool_EN.txt	ROPE	7	8	[0, 0, 0]	n/a	FR1	1	R1240T
949.588	0.801	955504	WORD_OFF	n/a	n/a	ROPE	7	8	[0, 0, 0]	n/a	FR1	1	R1240T
950.389	1.617	956305	WORD	n/a	wordpools/wordpool_EN.txt	SPARK	8	8	[0, 0, 0]	n/a	FR1	1	R1240T
952.006	0.9	957922	WORD_OFF	n/a	n/a	SPARK	8	8	[0, 0, 0]	n/a	FR1	1	R1240T
952.906	1.616	958822	WORD	n/a	wordpools/wordpool_EN.txt	BEAK	9	8	[0, 0, 0]	n/a	FR1	1	R1240T
954.522	0.768	960438	WORD_OFF	n/a	n/a	BEAK	9	8	[0, 0, 0]	n/a	FR1	1	R1240T
955.29	1.617	961206	WORD	n/a	wordpools/wordpool_EN.txt	MULE	10	8	[0, 0, 0]	n/a	FR1	1	R1240T
956.907	0.983	962822	WORD_OFF	n/a	n/a	MULE	10	8	[0, 0, 0]	n/a	FR1	1	R1240T
957.89	1.616	963805	WORD	n/a	wordpools/wordpool_EN.txt	BEAN	11	8	[0, 0, 0]	n/a	FR1	1	R1240T
959.506	0.951	965421	WORD_OFF	n/a	n/a	BEAN	11	8	[0, 0, 0]	n/a	FR1	1	R1240T
960.457	1.617	966372	WORD	n/a	wordpools/wordpool_EN.txt	HOOK	12	8	[0, 0, 0]	n/a	FR1	1	R1240T
962.074	0.0	967989	DISTRACT_START	n/a	n/a	n/a	-999	8	[0, 0, 0]	n/a	FR1	1	R1240T
962.074	0.001	967989	WORD_OFF	n/a	n/a	HOOK	12	8	[0, 0, 0]	n/a	FR1	1	R1240T
962.075	0.016	967990	START	n/a	n/a	n/a	-999	8	[-999, -999, -999]	n/a	FR1	1	R1240T
962.091	6.684	968006	PROB	6.684	n/a	n/a	-999	8	[3, 7, 6]	16	FR1	1	R1240T
968.775	4.901	974690	PROB	4.901	n/a	n/a	-999	8	[6, 1, 3]	10	FR1	1	R1240T
973.676	4.8	979590	PROB	4.8	n/a	n/a	-999	8	[7, 6, 2]	15	FR1	1	R1240T
978.476	6.489	984390	PROB	6.489	n/a	n/a	-999	8	[3, 5, 9]	17	FR1	1	R1240T
984.965	0.014	990879	STOP	n/a	n/a	n/a	-999	8	[-999, -999, -999]	n/a	FR1	1	R1240T
984.979	0.699	990893	DISTRACT_END	n/a	n/a	n/a	-999	8	[0, 0, 0]	n/a	FR1	1	R1240T
985.678	0.518	991592	RETRIEVAL_ORIENT	n/a	n/a	n/a	-999	8	[0, 0, 0]	n/a	FR1	1	R1240T
986.196	4.376	992110	REC_START	n/a	n/a	n/a	-999	8	[0, 0, 0]	n/a	FR1	1	R1240T
990.572	0.83	996485	REC_WORD_VV	0.83	n/a	<>	-999	8	[0, 0, 0]	n/a	FR1	1	R1240T
991.402	0.711	997315	REC_WORD_VV	0.711	n/a	<>	-999	8	[0, 0, 0]	n/a	FR1	1	R1240T
992.113	4.954	998026	REC_WORD	4.954	n/a	ARK	-999	8	[0, 0, 0]	n/a	FR1	1	R1240T
997.067	8.95	1002980	REC_WORD_VV	8.95	n/a	<>	-999	8	[0, 0, 0]	n/a	FR1	1	R1240T
1006.017	0.608	1011929	REC_WORD	0.608	n/a	PEACH	-999	8	[0, 0, 0]	n/a	FR1	1	R1240T
1006.625	2.865	1012537	REC_WORD	2.865	n/a	BEACH	-999	8	[0, 0, 0]	n/a	FR1	1	R1240T
1009.49	3.873	1015402	REC_WORD_VV	3.873	n/a	<>	-999	8	[0, 0, 0]	n/a	FR1	1	R1240T
1013.363	2.843	1019275	REC_WORD_VV	2.843	n/a	<>	-999	8	[0, 0, 0]	n/a	FR1	1	R1240T
1016.206	5.428	1022118	REC_END	n/a	n/a	n/a	-999	8	[0, 0, 0]	n/a	FR1	1	R1240T
1021.634	0.5	1027545	TRIAL	n/a	n/a	n/a	-999	9	[0, 0, 0]	n/a	FR1	1	R1240T
1022.134	10.428	1028045	COUNTDOWN_START	n/a	n/a	n/a	-999	9	[0, 0, 0]	n/a	FR1	1	R1240T
1032.562	0.008	1038473	COUNTDOWN_END	n/a	n/a	n/a	-999	9	[0, 0, 0]	n/a	FR1	1	R1240T
1032.57	1.618	1038481	ORIENT	n/a	n/a	n/a	-999	9	[0, 0, 0]	n/a	FR1	1	R1240T
1034.188	2.083	1040099	ORIENT_OFF	n/a	n/a	n/a	-999	9	[0, 0, 0]	n/a	FR1	1	R1240T
1036.271	1.617	1042182	WORD	n/a	wordpools/wordpool_EN.txt	BAT	1	9	[0, 0, 0]	n/a	FR1	1	R1240T
1037.888	0.899	1043799	WORD_OFF	n/a	n/a	BAT	1	9	[0, 0, 0]	n/a	FR1	1	R1240T
1038.787	1.617	1044697	WORD	n/a	wordpools/wordpool_EN.txt	SHELL	2	9	[0, 0, 0]	n/a	FR1	1	R1240T
1040.404	0.902	1046314	WORD_OFF	n/a	n/a	SHELL	2	9	[0, 0, 0]	n/a	FR1	1	R1240T
1041.306	1.616	1047216	WORD	n/a	wordpools/wordpool_EN.txt	CONE	3	9	[0, 0, 0]	n/a	FR1	1	R1240T
1042.922	1.001	1048832	WORD_OFF	n/a	n/a	CONE	3	9	[0, 0, 0]	n/a	FR1	1	R1240T
1043.923	1.616	1049833	WORD	n/a	wordpools/wordpool_EN.txt	BOOK	4	9	[0, 0, 0]	n/a	FR1	1	R1240T
1045.539	0.834	1051449	WORD_OFF	n/a	n/a	BOOK	4	9	[0, 0, 0]	n/a	FR1	1	R1240T
1046.373	1.617	1052283	WORD	n/a	wordpools/wordpool_EN.txt	PIG	5	9	[0, 0, 0]	n/a	FR1	1	R1240T
1047.99	0.866	1053900	WORD_OFF	n/a	n/a	PIG	5	9	[0, 0, 0]	n/a	FR1	1	R1240T
1048.856	1.617	1054766	WORD	n/a	wordpools/wordpool_EN.txt	ROOT	6	9	[0, 0, 0]	n/a	FR1	1	R1240T
1050.473	0.918	1056383	WORD_OFF	n/a	n/a	ROOT	6	9	[0, 0, 0]	n/a	FR1	1	R1240T
1051.391	1.617	1057301	WORD	n/a	wordpools/wordpool_EN.txt	WAVE	7	9	[0, 0, 0]	n/a	FR1	1	R1240T
1053.008	0.765	1058918	WORD_OFF	n/a	n/a	WAVE	7	9	[0, 0, 0]	n/a	FR1	1	R1240T
1053.773	1.618	1059683	WORD	n/a	wordpools/wordpool_EN.txt	SWORD	8	9	[0, 0, 0]	n/a	FR1	1	R1240T
1055.391	0.884	1061300	WORD_OFF	n/a	n/a	SWORD	8	9	[0, 0, 0]	n/a	FR1	1	R1240T
1056.275	1.617	1062184	WORD	n/a	wordpools/wordpool_EN.txt	BADGE	9	9	[0, 0, 0]	n/a	FR1	1	R1240T
1057.892	0.916	1063801	WORD_OFF	n/a	n/a	BADGE	9	9	[0, 0, 0]	n/a	FR1	1	R1240T
1058.808	1.617	1064717	WORD	n/a	wordpools/wordpool_EN.txt	VEST	10	9	[0, 0, 0]	n/a	FR1	1	R1240T
1060.425	0.767	1066334	WORD_OFF	n/a	n/a	VEST	10	9	[0, 0, 0]	n/a	FR1	1	R1240T
1061.192	1.616	1067101	WORD	n/a	wordpools/wordpool_EN.txt	CAPE	11	9	[0, 0, 0]	n/a	FR1	1	R1240T
1062.808	0.851	1068717	WORD_OFF	n/a	n/a	CAPE	11	9	[0, 0, 0]	n/a	FR1	1	R1240T
1063.659	1.618	1069568	WORD	n/a	wordpools/wordpool_EN.txt	KITE	12	9	[0, 0, 0]	n/a	FR1	1	R1240T
1065.277	0.0	1071186	WORD_OFF	n/a	n/a	KITE	12	9	[0, 0, 0]	n/a	FR1	1	R1240T
1065.277	0.0	1071186	DISTRACT_START	n/a	n/a	n/a	-999	9	[0, 0, 0]	n/a	FR1	1	R1240T
1065.277	0.016	1071186	START	n/a	n/a	n/a	-999	9	[-999, -999, -999]	n/a	FR1	1	R1240T
1065.293	7.668	1071202	PROB	7.668	n/a	n/a	-999	9	[2, 4, 3]	12	FR1	1	R1240T
1072.961	4.784	1078869	PROB	4.784	n/a	n/a	-999	9	[1, 9, 1]	11	FR1	1	R1240T
1077.745	7.252	1083653	PROB	7.252	n/a	n/a	-999	9	[2, 5, 8]	15	FR1	1	R1240T
1084.997	7.383	1090905	PROB	7.383	n/a	n/a	-999	9	[8, 6, 3]	17	FR1	1	R1240T
1092.38	0.017	1098287	STOP	n/a	n/a	n/a	-999	9	[-999, -999, -999]	n/a	FR1	1	R1240T
1092.397	0.635	1098304	DISTRACT_END	n/a	n/a	n/a	-999	9	[0, 0, 0]	n/a	FR1	1	R1240T
1093.032	0.516	1098939	RETRIEVAL_ORIENT	n/a	n/a	n/a	-999	9	[0, 0, 0]	n/a	FR1	1	R1240T
1093.548	8.918	1099455	REC_START	n/a	n/a	n/a	-999	9	[0, 0, 0]	n/a	FR1	1	R1240T
1102.466	0.538	1108373	REC_WORD	0.538	n/a	BOOK	-999	9	[0, 0, 0]	n/a	FR1	1	R1240T
1103.004	0.476	1108911	REC_WORD	0.476	n/a	CAT	-999	9	[0, 0, 0]	n/a	FR1	1	R1240T
1103.48	2.087	1109387	REC_WORD	2.087	n/a	RAT	-999	9	[0, 0, 0]	n/a	FR1	1	R1240T
1105.567	17.991	1111473	REC_WORD_VV	17.991	n/a	<>	-999	9	[0, 0, 0]	n/a	FR1	1	R1240T
1123.558	7.831	1129463	REC_END	n/a	n/a	n/a	-999	9	[0, 0, 0]	n/a	FR1	1	R1240T
1131.389	0.5	1137294	TRIAL	n/a	n/a	n/a	-999	10	[0, 0, 0]	n/a	FR1	1	R1240T
1131.889	10.428	1137794	COUNTDOWN_START	n/a	n/a	n/a	-999	10	[0, 0, 0]	n/a	FR1	1	R1240T
1142.317	0.007	1148221	COUNTDOWN_END	n/a	n/a	n/a	-999	10	[0, 0, 0]	n/a	FR1	1	R1240T
1142.324	1.617	1148228	ORIENT	n/a	n/a	n/a	-999	10	[0, 0, 0]	n/a	FR1	1	R1240T
1143.941	2.034	1149845	ORIENT_OFF	n/a	n/a	n/a	-999	10	[0, 0, 0]	n/a	FR1	1	R1240T
1145.975	1.616	1151879	WORD	n/a	wordpools/wordpool_EN.txt	MOOSE	1	10	[0, 0, 0]	n/a	FR1	1	R1240T
1147.591	0.916	1153495	WORD_OFF	n/a	n/a	MOOSE	1	10	[0, 0, 0]	n/a	FR1	1	R1240T
1148.507	1.618	1154411	WORD	n/a	wordpools/wordpool_EN.txt	PURSE	2	10	[0, 0, 0]	n/a	FR1	1	R1240T
1150.125	0.917	1156029	WORD_OFF	n/a	n/a	PURSE	2	10	[0, 0, 0]	n/a	FR1	1	R1240T
1151.042	1.616	1156946	WORD	n/a	wordpools/wordpool_EN.txt	COUCH	3	10	[0, 0, 0]	n/a	FR1	1	R1240T
1152.658	0.95	1158562	WORD_OFF	n/a	n/a	COUCH	3	10	[0, 0, 0]	n/a	FR1	1	R1240T
1153.608	1.601	1159511	WORD	n/a	wordpools/wordpool_EN.txt	FRUIT	4	10	[0, 0, 0]	n/a	FR1	1	R1240T
1155.209	0.834	1161112	WORD_OFF	n/a	n/a	FRUIT	4	10	[0, 0, 0]	n/a	FR1	1	R1240T
1156.043	1.616	1161946	WORD	n/a	wordpools/wordpool_EN.txt	FACE	5	10	[0, 0, 0]	n/a	FR1	1	R1240T
1157.659	0.884	1163562	WORD_OFF	n/a	n/a	FACE	5	10	[0, 0, 0]	n/a	FR1	1	R1240T
1158.543	1.618	1164446	WORD	n/a	wordpools/wordpool_EN.txt	GUARD	6	10	[0, 0, 0]	n/a	FR1	1	R1240T
1160.161	0.833	1166064	WORD_OFF	n/a	n/a	GUARD	6	10	[0, 0, 0]	n/a	FR1	1	R1240T
1160.994	1.616	1166897	WORD	n/a	wordpools/wordpool_EN.txt	PHONE	7	10	[0, 0, 0]	n/a	FR1	1	R1240T
1162.61	0.833	1168513	WORD_OFF	n/a	n/a	PHONE	7	10	[0, 0, 0]	n/a	FR1	1	R1240T
1163.443	1.602	1169346	WORD	n/a	wordpools/wordpool_EN.txt	BUSH	8	10	[0, 0, 0]	n/a	FR1	1	R1240T
1165.045	0.95	1170948	WORD_OFF	n/a	n/a	BUSH	8	10	[0, 0, 0]	n/a	FR1	1	R1240T
1165.995	1.616	1171898	WORD	n/a	wordpools/wordpool_EN.txt	BOX	9	10	[0, 0, 0]	n/a	FR1	1	R1240T
1167.611	0.783	1173514	WORD_OFF	n/a	n/a	BOX	9	10	[0, 0, 0]	n/a	FR1	1	R1240T
1168.394	1.601	1174297	WORD	n/a	wordpools/wordpool_EN.txt	FLAME	10	10	[0, 0, 0]	n/a	FR1	1	R1240T
1169.995	0.918	1175897	WORD_OFF	n/a	n/a	FLAME	10	10	[0, 0, 0]	n/a	FR1	1	R1240T
1170.913	1.615	1176815	WORD	n/a	wordpools/wordpool_EN.txt	SPRING	11	10	[0, 0, 0]	n/a	FR1	1	R1240T
1172.528	0.934	1178430	WORD_OFF	n/a	n/a	SPRING	11	10	[0, 0, 0]	n/a	FR1	1	R1240T
1173.462	1.618	1179364	WORD	n/a	wordpools/wordpool_EN.txt	ROSE	12	10	[0, 0, 0]	n/a	FR1	1	R1240T
1175.08	0.0	1180982	WORD_OFF	n/a	n/a	ROSE	12	10	[0, 0, 0]	n/a	FR1	1	R1240T
1175.08	0.0	1180982	DISTRACT_START	n/a	n/a	n/a	-999	10	[0, 0, 0]	n/a	FR1	1	R1240T
1175.08	0.017	1180982	START	n/a	n/a	n/a	-999	10	[-999, -999, -999]	n/a	FR1	1	R1240T
1175.097	8.835	1180999	PROB	8.835	n/a	n/a	-999	10	[6, 8, 4]	18	FR1	1	R1240T
1183.932	18.8	1189834	PROB	18.8	n/a	n/a	-999	10	[9, 7, 8]	24	FR1	1	R1240T
1202.732	0.019	1208632	STOP	n/a	n/a	n/a	-999	10	[-999, -999, -999]	n/a	FR1	1	R1240T
1202.751	0.567	1208651	DISTRACT_END	n/a	n/a	n/a	-999	10	[0, 0, 0]	n/a	FR1	1	R1240T
1203.318	0.517	1209218	RETRIEVAL_ORIENT	n/a	n/a	n/a	-999	10	[0, 0, 0]	n/a	FR1	1	R1240T
1203.835	1.971	1209735	REC_START	n/a	n/a	n/a	-999	10	[0, 0, 0]	n/a	FR1	1	R1240T
1205.806	0.474	1211706	REC_WORD_VV	0.474	n/a	<>	-999	10	[0, 0, 0]	n/a	FR1	1	R1240T
1206.28	1.695	1212180	REC_WORD	1.695	n/a	BUSH	-999	10	[0, 0, 0]	n/a	FR1	1	R1240T
1207.975	8.643	1213875	REC_WORD	8.643	n/a	MOOSE	-999	10	[0, 0, 0]	n/a	FR1	1	R1240T
1216.618	12.0	1222518	REC_WORD	12.0	n/a	KITE	-999	10	[0, 0, 0]	n/a	FR1	1	R1240T
1228.618	0.65	1234517	REC_WORD	0.65	n/a	RAT	-999	10	[0, 0, 0]	n/a	FR1	1	R1240T
1229.268	4.577	1235167	REC_WORD	4.577	n/a	BAT	-999	10	[0, 0, 0]	n/a	FR1	1	R1240T
1233.845	5.862	1239744	REC_END	n/a	n/a	n/a	-999	10	[0, 0, 0]	n/a	FR1	1	R1240T
1239.707	0.5	1245605	TRIAL	n/a	n/a	n/a	-999	11	[0, 0, 0]	n/a	FR1	1	R1240T
1240.207	10.428	1246105	COUNTDOWN_START	n/a	n/a	n/a	-999	11	[0, 0, 0]	n/a	FR1	1	R1240T
1250.635	0.008	1256533	COUNTDOWN_END	n/a	n/a	n/a	-999	11	[0, 0, 0]	n/a	FR1	1	R1240T
1250.643	1.618	1256541	ORIENT	n/a	n/a	n/a	-999	11	[0, 0, 0]	n/a	FR1	1	R1240T
1252.261	2.232	1258158	ORIENT_OFF	n/a	n/a	n/a	-999	11	[0, 0, 0]	n/a	FR1	1	R1240T
1254.493	1.618	1260390	WORD	n/a	wordpools/wordpool_EN.txt	RAKE	1	11	[0, 0, 0]	n/a	FR1	1	R1240T
1256.111	0.934	1262008	WORD_OFF	n/a	n/a	RAKE	1	11	[0, 0, 0]	n/a	FR1	1	R1240T
1257.045	1.616	1262942	WORD	n/a	wordpools/wordpool_EN.txt	ICE	2	11	[0, 0, 0]	n/a	FR1	1	R1240T
1258.661	0.85	1264558	WORD_OFF	n/a	n/a	ICE	2	11	[0, 0, 0]	n/a	FR1	1	R1240T
1259.511	1.618	1265408	WORD	n/a	wordpools/wordpool_EN.txt	TOOTH	3	11	[0, 0, 0]	n/a	FR1	1	R1240T
1261.129	0.817	1267026	WORD_OFF	n/a	n/a	TOOTH	3	11	[0, 0, 0]	n/a	FR1	1	R1240T
1261.946	1.616	1267843	WORD	n/a	wordpools/wordpool_EN.txt	SNOW	4	11	[0, 0, 0]	n/a	FR1	1	R1240T
1263.562	0.933	1269459	WORD_OFF	n/a	n/a	SNOW	4	11	[0, 0, 0]	n/a	FR1	1	R1240T
1264.495	1.601	1270392	WORD	n/a	wordpools/wordpool_EN.txt	RAIN	5	11	[0, 0, 0]	n/a	FR1	1	R1240T
1266.096	0.95	1271993	WORD_OFF	n/a	n/a	RAIN	5	11	[0, 0, 0]	n/a	FR1	1	R1240T
1267.046	1.617	1272943	WORD	n/a	wordpools/wordpool_EN.txt	FLAG	6	11	[0, 0, 0]	n/a	FR1	1	R1240T
1268.663	0.766	1274559	WORD_OFF	n/a	n/a	FLAG	6	11	[0, 0, 0]	n/a	FR1	1	R1240T
1269.429	1.601	1275325	WORD	n/a	wordpools/wordpool_EN.txt	LAND	7	11	[0, 0, 0]	n/a	FR1	1	R1240T
1271.03	1.018	1276926	WORD_OFF	n/a	n/a	LAND	7	11	[0, 0, 0]	n/a	FR1	1	R1240T
1272.048	1.616	1277944	WORD	n/a	wordpools/wordpool_EN.txt	TOY	8	11	[0, 0, 0]	n/a	FR1	1	R1240T
1273.664	0.983	1279560	WORD_OFF	n/a	n/a	TOY	8	11	[0, 0, 0]	n/a	FR1	1	R1240T
1274.647	1.618	1280543	WORD	n/a	wordpools/wordpool_EN.txt	CAT	9	11	[0, 0, 0]	n/a	FR1	1	R1240T
1276.265	0.9	1282161	WORD_OFF	n/a	n/a	CAT	9	11	[0, 0, 0]	n/a	FR1	1	R1240T
1277.165	1.616	1283061	WORD	n/a	wordpools/wordpool_EN.txt	ARM	10	11	[0, 0, 0]	n/a	FR1	1	R1240T
1278.781	0.917	1284677	WORD_OFF	n/a	n/a	ARM	10	11	[0, 0, 0]	n/a	FR1	1	R1240T
1279.698	1.618	1285594	WORD	n/a	wordpools/wordpool_EN.txt	MAZE	11	11	[0, 0, 0]	n/a	FR1	1	R1240T
1281.316	0.883	1287212	WORD_OFF	n/a	n/a	MAZE	11	11	[0, 0, 0]	n/a	FR1	1	R1240T
1282.199	1.616	1288095	WORD	n/a	wordpools/wordpool_EN.txt	SAIL	12	11	[0, 0, 0]	n/a	FR1	1	R1240T
1283.815	0.0	1289711	WORD_OFF	n/a	n/a	SAIL	12	11	[0, 0, 0]	n/a	FR1	1	R1240T
1283.815	0.001	1289711	DISTRACT_START	n/a	n/a	n/a	-999	11	[0, 0, 0]	n/a	FR1	1	R1240T
1283.816	0.016	1289712	START	n/a	n/a	n/a	-999	11	[-999, -999, -999]	n/a	FR1	1	R1240T
1283.832	4.834	1289728	PROB	4.834	n/a	n/a	-999	11	[1, 8, 7]	16	FR1	1	R1240T
1288.666	9.935	1294561	PROB	9.935	n/a	n/a	-999	11	[4, 5, 9]	18	FR1	1	R1240T
1298.601	7.331	1304496	PROB	7.331	n/a	n/a	-999	11	[2, 8, 3]	13	FR1	1	R1240T
1305.932	0.022	1311826	STOP	n/a	n/a	n/a	-999	11	[-999, -999, -999]	n/a	FR1	1	R1240T
1305.954	0.699	1311848	DISTRACT_END	n/a	n/a	n/a	-999	11	[0, 0, 0]	n/a	FR1	1	R1240T
1306.653	0.519	1312547	RETRIEVAL_ORIENT	n/a	n/a	n/a	-999	11	[0, 0, 0]	n/a	FR1	1	R1240T
1307.172	0.648	1313066	REC_START	n/a	n/a	n/a	-999	11	[0, 0, 0]	n/a	FR1	1	R1240T
1307.82	0.674	1313714	REC_WORD	0.674	n/a	RAKE	-999	11	[0, 0, 0]	n/a	FR1	1	R1240T
1308.494	2.424	1314388	REC_WORD	2.424	n/a	ICE	-999	11	[0, 0, 0]	n/a	FR1	1	R1240T
1310.918	15.88	1316812	REC_WORD	15.88	n/a	SNOW	-999	11	[0, 0, 0]	n/a	FR1	1	R1240T
1326.798	10.386	1332691	REC_WORD	10.386	n/a	MOOSE	-999	11	[0, 0, 0]	n/a	FR1	1	R1240T
1337.184	5.275	1343076	REC_END	n/a	n/a	n/a	-999	11	[0, 0, 0]	n/a	FR1	1	R1240T
1342.459	0.5	1348351	TRIAL	n/a	n/a	n/a	-999	12	[0, 0, 0]	n/a	FR1	1	R1240T
1342.959	10.428	1348851	COUNTDOWN_START	n/a	n/a	n/a	-999	12	[0, 0, 0]	n/a	FR1	1	R1240T
1353.387	0.008	1359278	COUNTDOWN_END	n/a	n/a	n/a	-999	12	[0, 0, 0]	n/a	FR1	1	R1240T
1353.395	1.618	1359286	ORIENT	n/a	n/a	n/a	-999	12	[0, 0, 0]	n/a	FR1	1	R1240T
1355.013	2.083	1360904	ORIENT_OFF	n/a	n/a	n/a	-999	12	[0, 0, 0]	n/a	FR1	1	R1240T
1357.096	1.616	1362987	WORD	n/a	wordpools/wordpool_EN.txt	MAIL	1	12	[0, 0, 0]	n/a	FR1	1	R1240T
1358.712	0.8	1364603	WORD_OFF	n/a	n/a	MAIL	1	12	[0, 0, 0]	n/a	FR1	1	R1240T
1359.512	1.618	1365403	WORD	n/a	wordpools/wordpool_EN.txt	JET	2	12	[0, 0, 0]	n/a	FR1	1	R1240T
1361.13	0.867	1367021	WORD_OFF	n/a	n/a	JET	2	12	[0, 0, 0]	n/a	FR1	1	R1240T
1361.997	1.616	1367888	WORD	n/a	wordpools/wordpool_EN.txt	EEL	3	12	[0, 0, 0]	n/a	FR1	1	R1240T
1363.613	1.0	1369504	WORD_OFF	n/a	n/a	EEL	3	12	[0, 0, 0]	n/a	FR1	1	R1240T
1364.613	1.601	1370504	WORD	n/a	wordpools/wordpool_EN.txt	PEAR	4	12	[0, 0, 0]	n/a	FR1	1	R1240T
1366.214	0.918	1372105	WORD_OFF	n/a	n/a	PEAR	4	12	[0, 0, 0]	n/a	FR1	1	R1240T
1367.132	1.615	1373022	WORD	n/a	wordpools/wordpool_EN.txt	GOAT	5	12	[0, 0, 0]	n/a	FR1	1	R1240T
1368.747	0.85	1374637	WORD_OFF	n/a	n/a	GOAT	5	12	[0, 0, 0]	n/a	FR1	1	R1240T
1369.597	1.619	1375487	WORD	n/a	wordpools/wordpool_EN.txt	TREE	6	12	[0, 0, 0]	n/a	FR1	1	R1240T
1371.216	0.85	1377106	WORD_OFF	n/a	n/a	TREE	6	12	[0, 0, 0]	n/a	FR1	1	R1240T
1372.066	1.616	1377956	WORD	n/a	wordpools/wordpool_EN.txt	STAIR	7	12	[0, 0, 0]	n/a	FR1	1	R1240T
1373.682	0.9	1379572	WORD_OFF	n/a	n/a	STAIR	7	12	[0, 0, 0]	n/a	FR1	1	R1240T
1374.582	1.618	1380472	WORD	n/a	wordpools/wordpool_EN.txt	ZOO	8	12	[0, 0, 0]	n/a	FR1	1	R1240T
1376.2	0.783	1382090	WORD_OFF	n/a	n/a	ZOO	8	12	[0, 0, 0]	n/a	FR1	1	R1240T
1376.983	1.616	1382873	WORD	n/a	wordpools/wordpool_EN.txt	FORT	9	12	[0, 0, 0]	n/a	FR1	1	R1240T
1378.599	0.8	1384489	WORD_OFF	n/a	n/a	FORT	9	12	[0, 0, 0]	n/a	FR1	1	R1240T
1379.399	1.618	1385289	WORD	n/a	wordpools/wordpool_EN.txt	PET	10	12	[0, 0, 0]	n/a	FR1	1	R1240T
1381.017	0.951	1386907	WORD_OFF	n/a	n/a	PET	10	12	[0, 0, 0]	n/a	FR1	1	R1240T
1381.968	1.615	1387858	WORD	n/a	wordpools/wordpool_EN.txt	SHIP	11	12	[0, 0, 0]	n/a	FR1	1	R1240T
1383.583	0.785	1389472	WORD_OFF	n/a	n/a	SHIP	11	12	[0, 0, 0]	n/a	FR1	1	R1240T
1384.368	1.617	1390257	WORD	n/a	wordpools/wordpool_EN.txt	BOAT	12	12	[0, 0, 0]	n/a	FR1	1	R1240T
1385.985	0.0	1391874	DISTRACT_START	n/a	n/a	n/a	-999	12	[0, 0, 0]	n/a	FR1	1	R1240T
1385.985	0.0	1391874	WORD_OFF	n/a	n/a	BOAT	12	12	[0, 0, 0]	n/a	FR1	1	R1240T
1385.985	0.017	1391874	START	n/a	n/a	n/a	-999	12	[-999, -999, -999]	n/a	FR1	1	R1240T
1386.002	4.917	1391891	PROB	4.917	n/a	n/a	-999	12	[7, 7, 3]	17	FR1	1	R1240T
1390.919	7.401	1396808	PROB	7.401	n/a	n/a	-999	12	[8, 3, 4]	15	FR1	1	R1240T
1398.32	10.538	1404209	PROB	10.538	n/a	n/a	-999	12	[9, 4, 4]	18	FR1	1	R1240T
1408.858	0.014	1414746	STOP	n/a	n/a	n/a	-999	12	[-999, -999, -999]	n/a	FR1	1	R1240T
1408.872	0.517	1414760	DISTRACT_END	n/a	n/a	n/a	-999	12	[0, 0, 0]	n/a	FR1	1	R1240T
1409.389	0.518	1415277	RETRIEVAL_ORIENT	n/a	n/a	n/a	-999	12	[0, 0, 0]	n/a	FR1	1	R1240T
1409.907	1.838	1415795	REC_START	n/a	n/a	n/a	-999	12	[0, 0, 0]	n/a	FR1	1	R1240T
1411.745	0.834	1417633	REC_WORD_VV	0.834	n/a	<>	-999	12	[0, 0, 0]	n/a	FR1	1	R1240T
1412.579	3.525	1418467	REC_WORD_VV	3.525	n/a	<>	-999	12	[0, 0, 0]	n/a	FR1	1	R1240T
1416.104	0.542	1421992	REC_WORD	0.542	n/a	RAKE	-999	12	[0, 0, 0]	n/a	FR1	1	R1240T
1416.646	1.374	1422533	REC_WORD	1.374	n/a	ICE	-999	12	[0, 0, 0]	n/a	FR1	1	R1240T
1418.02	20.532	1423907	REC_WORD	20.532	n/a	SNOW	-999	12	[0, 0, 0]	n/a	FR1	1	R1240T
1438.552	1.366	1444438	REC_WORD	1.366	n/a	MOOSE	-999	12	[0, 0, 0]	n/a	FR1	1	R1240T
1439.918	5.261	1445804	REC_END	n/a	n/a	n/a	-999	12	[0, 0, 0]	n/a	FR1	1	R1240T
1445.179	0.5	1451065	TRIAL	n/a	n/a	n/a	-999	13	[0, 0, 0]	n/a	FR1	1	R1240T
1445.679	10.428	1451565	COUNTDOWN_START	n/a	n/a	n/a	-999	13	[0, 0, 0]	n/a	FR1	1	R1240T
1456.107	0.007	1461992	COUNTDOWN_END	n/a	n/a	n/a	-999	13	[0, 0, 0]	n/a	FR1	1	R1240T
1456.114	1.616	1461999	ORIENT	n/a	n/a	n/a	-999	13	[0, 0, 0]	n/a	FR1	1	R1240T
1457.73	2.368	1463615	ORIENT_OFF	n/a	n/a	n/a	-999	13	[0, 0, 0]	n/a	FR1	1	R1240T
1460.098	1.616	1465983	WORD	n/a	wordpools/wordpool_EN.txt	PIE	1	13	[0, 0, 0]	n/a	FR1	1	R1240T
1461.714	0.901	1467599	WORD_OFF	n/a	n/a	PIE	1	13	[0, 0, 0]	n/a	FR1	1	R1240T
1462.615	1.617	1468500	WORD	n/a	wordpools/wordpool_EN.txt	MUG	2	13	[0, 0, 0]	n/a	FR1	1	R1240T
1464.232	0.967	1470117	WORD_OFF	n/a	n/a	MUG	2	13	[0, 0, 0]	n/a	FR1	1	R1240T
1465.199	1.616	1471084	WORD	n/a	wordpools/wordpool_EN.txt	TENT	3	13	[0, 0, 0]	n/a	FR1	1	R1240T
1466.815	0.817	1472699	WORD_OFF	n/a	n/a	TENT	3	13	[0, 0, 0]	n/a	FR1	1	R1240T
1467.632	1.618	1473516	WORD	n/a	wordpools/wordpool_EN.txt	PLATE	4	13	[0, 0, 0]	n/a	FR1	1	R1240T
1469.25	1.0	1475134	WORD_OFF	n/a	n/a	PLATE	4	13	[0, 0, 0]	n/a	FR1	1	R1240T
1470.25	1.616	1476134	WORD	n/a	wordpools/wordpool_EN.txt	SUIT	5	13	[0, 0, 0]	n/a	FR1	1	R1240T
1471.866	1.0	1477750	WORD_OFF	n/a	n/a	SUIT	5	13	[0, 0, 0]	n/a	FR1	1	R1240T
1472.866	1.617	1478750	WORD	n/a	wordpools/wordpool_EN.txt	CHEEK	6	13	[0, 0, 0]	n/a	FR1	1	R1240T
1474.483	0.785	1480367	WORD_OFF	n/a	n/a	CHEEK	6	13	[0, 0, 0]	n/a	FR1	1	R1240T
1475.268	1.617	1481152	WORD	n/a	wordpools/wordpool_EN.txt	PASTE	7	13	[0, 0, 0]	n/a	FR1	1	R1240T
1476.885	0.766	1482769	WORD_OFF	n/a	n/a	PASTE	7	13	[0, 0, 0]	n/a	FR1	1	R1240T
1477.651	1.617	1483535	WORD	n/a	wordpools/wordpool_EN.txt	SMILE	8	13	[0, 0, 0]	n/a	FR1	1	R1240T
1479.268	0.851	1485152	WORD_OFF	n/a	n/a	SMILE	8	13	[0, 0, 0]	n/a	FR1	1	R1240T
1480.119	1.616	1486003	WORD	n/a	wordpools/wordpool_EN.txt	RIB	9	13	[0, 0, 0]	n/a	FR1	1	R1240T
1481.735	1.0	1487619	WORD_OFF	n/a	n/a	RIB	9	13	[0, 0, 0]	n/a	FR1	1	R1240T
1482.735	1.618	1488618	WORD	n/a	wordpools/wordpool_EN.txt	FENCE	10	13	[0, 0, 0]	n/a	FR1	1	R1240T
1484.353	0.9	1490236	WORD_OFF	n/a	n/a	FENCE	10	13	[0, 0, 0]	n/a	FR1	1	R1240T
1485.253	1.616	1491136	WORD	n/a	wordpools/wordpool_EN.txt	BRICK	11	13	[0, 0, 0]	n/a	FR1	1	R1240T
1486.869	0.783	1492752	WORD_OFF	n/a	n/a	BRICK	11	13	[0, 0, 0]	n/a	FR1	1	R1240T
1487.652	1.618	1493535	WORD	n/a	wordpools/wordpool_EN.txt	LAMP	12	13	[0, 0, 0]	n/a	FR1	1	R1240T
1489.27	0.0	1495153	WORD_OFF	n/a	n/a	LAMP	12	13	[0, 0, 0]	n/a	FR1	1	R1240T
1489.27	0.001	1495153	DISTRACT_START	n/a	n/a	n/a	-999	13	[0, 0, 0]	n/a	FR1	1	R1240T
1489.271	0.016	1495154	START	n/a	n/a	n/a	-999	13	[-999, -999, -999]	n/a	FR1	1	R1240T
1489.287	8.952	1495170	PROB	8.952	n/a	n/a	-999	13	[3, 5, 8]	16	FR1	1	R1240T
1498.239	6.283	1504122	PROB	6.283	n/a	n/a	-999	13	[4, 5, 2]	11	FR1	1	R1240T
1504.522	4.502	1510404	PROB	4.502	n/a	n/a	-999	13	[2, 9, 1]	12	FR1	1	R1240T
1509.024	4.332	1514906	PROB	4.332	n/a	n/a	-999	13	[4, 3, 4]	11	FR1	1	R1240T
1513.356	0.019	1519238	STOP	n/a	n/a	n/a	-999	13	[-999, -999, -999]	n/a	FR1	1	R1240T
1513.375	0.55	1519257	DISTRACT_END	n/a	n/a	n/a	-999	13	[0, 0, 0]	n/a	FR1	1	R1240T
1513.925	0.516	1519807	RETRIEVAL_ORIENT	n/a	n/a	n/a	-999	13	[0, 0, 0]	n/a	FR1	1	R1240T
1514.441	11.73	1520323	REC_START	n/a	n/a	n/a	-999	13	[0, 0, 0]	n/a	FR1	1	R1240T
1526.171	12.243	1532052	REC_WORD_VV	12.243	n/a	<>	-999	13	[0, 0, 0]	n/a	FR1	1	R1240T
1538.414	0.886	1544294	REC_WORD	0.886	n/a	RAKE	-999	13	[0, 0, 0]	n/a	FR1	1	R1240T
1539.3	0.962	1545180	REC_WORD	0.962	n/a	SNOW	-999	13	[0, 0, 0]	n/a	FR1	1	R1240T
1540.262	4.189	1546142	REC_WORD	4.189	n/a	ICE	-999	13	[0, 0, 0]	n/a	FR1	1	R1240T
1544.451	5.329	1550331	REC_END	n/a	n/a	n/a	-999	13	[0, 0, 0]	n/a	FR1	1	R1240T
1549.78	0.5	1555659	TRIAL	n/a	n/a	n/a	-999	14	[0, 0, 0]	n/a	FR1	1	R1240T
1550.28	10.428	1556159	COUNTDOWN_START	n/a	n/a	n/a	-999	14	[0, 0, 0]	n/a	FR1	1	R1240T
1560.708	0.008	1566587	COUNTDOWN_END	n/a	n/a	n/a	-999	14	[0, 0, 0]	n/a	FR1	1	R1240T
1560.716	1.618	1566595	ORIENT	n/a	n/a	n/a	-999	14	[0, 0, 0]	n/a	FR1	1	R1240T
1562.334	2.249	1568213	ORIENT_OFF	n/a	n/a	n/a	-999	14	[0, 0, 0]	n/a	FR1	1	R1240T
1564.583	1.601	1570461	WORD	n/a	wordpools/wordpool_EN.txt	MOUTH	1	14	[0, 0, 0]	n/a	FR1	1	R1240T
1566.184	0.884	1572062	WORD_OFF	n/a	n/a	MOUTH	1	14	[0, 0, 0]	n/a	FR1	1	R1240T
1567.068	1.616	1572946	WORD	n/a	wordpools/wordpool_EN.txt	GATE	2	14	[0, 0, 0]	n/a	FR1	1	R1240T
1568.684	1.0	1574562	WORD_OFF	n/a	n/a	GATE	2	14	[0, 0, 0]	n/a	FR1	1	R1240T
1569.684	1.618	1575562	WORD	n/a	wordpools/wordpool_EN.txt	MUD	3	14	[0, 0, 0]	n/a	FR1	1	R1240T
1571.302	0.883	1577180	WORD_OFF	n/a	n/a	MUD	3	14	[0, 0, 0]	n/a	FR1	1	R1240T
1572.185	1.616	1578063	WORD	n/a	wordpools/wordpool_EN.txt	WHEEL	4	14	[0, 0, 0]	n/a	FR1	1	R1240T
1573.801	0.901	1579679	WORD_OFF	n/a	n/a	WHEEL	4	14	[0, 0, 0]	n/a	FR1	1	R1240T
1574.702	1.617	1580580	WORD	n/a	wordpools/wordpool_EN.txt	TRAY	5	14	[0, 0, 0]	n/a	FR1	1	R1240T
1576.319	0.784	1582197	WORD_OFF	n/a	n/a	TRAY	5	14	[0, 0, 0]	n/a	FR1	1	R1240T
1577.103	1.616	1582981	WORD	n/a	wordpools/wordpool_EN.txt	SLIME	6	14	[0, 0, 0]	n/a	FR1	1	R1240T
1578.719	0.983	1584597	WORD_OFF	n/a	n/a	SLIME	6	14	[0, 0, 0]	n/a	FR1	1	R1240T
1579.702	1.618	1585580	WORD	n/a	wordpools/wordpool_EN.txt	FOOT	7	14	[0, 0, 0]	n/a	FR1	1	R1240T
1581.32	0.851	1587197	WORD_OFF	n/a	n/a	FOOT	7	14	[0, 0, 0]	n/a	FR1	1	R1240T
1582.171	1.615	1588048	WORD	n/a	wordpools/wordpool_EN.txt	FARM	8	14	[0, 0, 0]	n/a	FR1	1	R1240T
1583.786	0.984	1589663	WORD_OFF	n/a	n/a	FARM	8	14	[0, 0, 0]	n/a	FR1	1	R1240T
1584.77	1.618	1590647	WORD	n/a	wordpools/wordpool_EN.txt	BRUSH	9	14	[0, 0, 0]	n/a	FR1	1	R1240T
1586.388	0.85	1592265	WORD_OFF	n/a	n/a	BRUSH	9	14	[0, 0, 0]	n/a	FR1	1	R1240T
1587.238	1.616	1593115	WORD	n/a	wordpools/wordpool_EN.txt	HEN	10	14	[0, 0, 0]	n/a	FR1	1	R1240T
1588.854	0.95	1594731	WORD_OFF	n/a	n/a	HEN	10	14	[0, 0, 0]	n/a	FR1	1	R1240T
1589.804	1.617	1595681	WORD	n/a	wordpools/wordpool_EN.txt	ROAD	11	14	[0, 0, 0]	n/a	FR1	1	R1240T
1591.421	0.968	1597298	WORD_OFF	n/a	n/a	ROAD	11	14	[0, 0, 0]	n/a	FR1	1	R1240T
1592.389	1.617	1598266	WORD	n/a	wordpools/wordpool_EN.txt	RUG	12	14	[0, 0, 0]	n/a	FR1	1	R1240T
1594.006	0.0	1599883	DISTRACT_START	n/a	n/a	n/a	-999	14	[0, 0, 0]	n/a	FR1	1	R1240T
1594.006	0.001	1599883	WORD_OFF	n/a	n/a	RUG	12	14	[0, 0, 0]	n/a	FR1	1	R1240T
1594.007	0.016	1599884	START	n/a	n/a	n/a	-999	14	[-999, -999, -999]	n/a	FR1	1	R1240T
1594.023	5.666	1599900	PROB	5.666	n/a	n/a	-999	14	[8, 1, 3]	12	FR1	1	R1240T
1599.689	6.336	1605565	PROB	6.336	n/a	n/a	-999	14	[4, 2, 7]	13	FR1	1	R1240T
1606.025	8.076	1611901	PROB	8.076	n/a	n/a	-999	14	[6, 7, 5]	18	FR1	1	R1240T
1614.101	0.009	1619976	STOP	n/a	n/a	n/a	-999	14	[-999, -999, -999]	n/a	FR1	1	R1240T
1614.11	0.599	1619985	DISTRACT_END	n/a	n/a	n/a	-999	14	[0, 0, 0]	n/a	FR1	1	R1240T
1614.709	0.518	1620584	RETRIEVAL_ORIENT	n/a	n/a	n/a	-999	14	[0, 0, 0]	n/a	FR1	1	R1240T
1615.227	2.086	1621102	REC_START	n/a	n/a	n/a	-999	14	[0, 0, 0]	n/a	FR1	1	R1240T
1617.313	7.648	1623188	REC_WORD	7.648	n/a	RUG	-999	14	[0, 0, 0]	n/a	FR1	1	R1240T
1624.961	20.276	1630836	REC_WORD	20.276	n/a	ROOM	-999	14	[0, 0, 0]	n/a	FR1	1	R1240T
1645.237	5.412	1651111	REC_END	n/a	n/a	n/a	-999	14	[0, 0, 0]	n/a	FR1	1	R1240T
1650.649	0.5	1656522	TRIAL	n/a	n/a	n/a	-999	15	[0, 0, 0]	n/a	FR1	1	R1240T
1651.149	10.428	1657022	COUNTDOWN_START	n/a	n/a	n/a	-999	15	[0, 0, 0]	n/a	FR1	1	R1240T
1661.577	0.007	1667450	COUNTDOWN_END	n/a	n/a	n/a	-999	15	[0, 0, 0]	n/a	FR1	1	R1240T
1661.584	1.618	1667457	ORIENT	n/a	n/a	n/a	-999	15	[0, 0, 0]	n/a	FR1	1	R1240T
1663.202	2.117	1669074	ORIENT_OFF	n/a	n/a	n/a	-999	15	[0, 0, 0]	n/a	FR1	1	R1240T
1665.319	1.617	1671191	WORD	n/a	wordpools/wordpool_EN.txt	FILM	1	15	[0, 0, 0]	n/a	FR1	1	R1240T
1666.936	0.983	1672808	WORD_OFF	n/a	n/a	FILM	1	15	[0, 0, 0]	n/a	FR1	1	R1240T
1667.919	1.616	1673791	WORD	n/a	wordpools/wordpool_EN.txt	ROCK	2	15	[0, 0, 0]	n/a	FR1	1	R1240T
1669.535	0.818	1675407	WORD_OFF	n/a	n/a	ROCK	2	15	[0, 0, 0]	n/a	FR1	1	R1240T
1670.353	1.617	1676225	WORD	n/a	wordpools/wordpool_EN.txt	CORD	3	15	[0, 0, 0]	n/a	FR1	1	R1240T
1671.97	0.883	1677842	WORD_OFF	n/a	n/a	CORD	3	15	[0, 0, 0]	n/a	FR1	1	R1240T
1672.853	1.617	1678725	WORD	n/a	wordpools/wordpool_EN.txt	CHALK	4	15	[0, 0, 0]	n/a	FR1	1	R1240T
1674.47	0.834	1680342	WORD_OFF	n/a	n/a	CHALK	4	15	[0, 0, 0]	n/a	FR1	1	R1240T
1675.304	1.617	1681176	WORD	n/a	wordpools/wordpool_EN.txt	GOLD	5	15	[0, 0, 0]	n/a	FR1	1	R1240T
1676.921	0.883	1682793	WORD_OFF	n/a	n/a	GOLD	5	15	[0, 0, 0]	n/a	FR1	1	R1240T
1677.804	1.616	1683676	WORD	n/a	wordpools/wordpool_EN.txt	MOTH	6	15	[0, 0, 0]	n/a	FR1	1	R1240T
1679.42	0.968	1685292	WORD_OFF	n/a	n/a	MOTH	6	15	[0, 0, 0]	n/a	FR1	1	R1240T
1680.388	1.617	1686259	WORD	n/a	wordpools/wordpool_EN.txt	POND	7	15	[0, 0, 0]	n/a	FR1	1	R1240T
1682.005	0.917	1687876	WORD_OFF	n/a	n/a	POND	7	15	[0, 0, 0]	n/a	FR1	1	R1240T
1682.922	1.616	1688793	WORD	n/a	wordpools/wordpool_EN.txt	BED	8	15	[0, 0, 0]	n/a	FR1	1	R1240T
1684.538	0.967	1690409	WORD_OFF	n/a	n/a	BED	8	15	[0, 0, 0]	n/a	FR1	1	R1240T
1685.505	1.618	1691376	WORD	n/a	wordpools/wordpool_EN.txt	NEST	9	15	[0, 0, 0]	n/a	FR1	1	R1240T
1687.123	0.883	1692994	WORD_OFF	n/a	n/a	NEST	9	15	[0, 0, 0]	n/a	FR1	1	R1240T
1688.006	1.616	1693877	WORD	n/a	wordpools/wordpool_EN.txt	TRASH	10	15	[0, 0, 0]	n/a	FR1	1	R1240T
1689.622	0.817	1695493	WORD_OFF	n/a	n/a	TRASH	10	15	[0, 0, 0]	n/a	FR1	1	R1240T
1690.439	1.601	1696310	WORD	n/a	wordpools/wordpool_EN.txt	SLUSH	11	15	[0, 0, 0]	n/a	FR1	1	R1240T
1692.04	0.951	1697911	WORD_OFF	n/a	n/a	SLUSH	11	15	[0, 0, 0]	n/a	FR1	1	R1240T
1692.991	1.616	1698862	WORD	n/a	wordpools/wordpool_EN.txt	SHRIMP	12	15	[0, 0, 0]	n/a	FR1	1	R1240T
1694.607	0.0	1700478	WORD_OFF	n/a	n/a	SHRIMP	12	15	[0, 0, 0]	n/a	FR1	1	R1240T
1694.607	0.0	1700478	DISTRACT_START	n/a	n/a	n/a	-999	15	[0, 0, 0]	n/a	FR1	1	R1240T
1694.607	0.016	1700478	START	n/a	n/a	n/a	-999	15	[-999, -999, -999]	n/a	FR1	1	R1240T
1694.623	5.619	1700494	PROB	5.619	n/a	n/a	-999	15	[3, 8, 2]	13	FR1	1	R1240T
1700.242	5.768	1706112	PROB	5.768	n/a	n/a	-999	15	[2, 7, 4]	13	FR1	1	R1240T
1706.01	3.3	1711880	PROB	3.3	n/a	n/a	-999	15	[8, 1, 8]	17	FR1	1	R1240T
1709.31	4.668	1715180	PROB	4.668	n/a	n/a	-999	15	[5, 3, 1]	9	FR1	1	R1240T
1713.978	5.546	1719847	PROB	5.546	n/a	n/a	-999	15	[2, 6, 4]	12	FR1	1	R1240T
1719.524	0.02	1725393	STOP	n/a	n/a	n/a	-999	15	[-999, -999, -999]	n/a	FR1	1	R1240T
1719.544	0.685	1725413	DISTRACT_END	n/a	n/a	n/a	-999	15	[0, 0, 0]	n/a	FR1	1	R1240T
1720.229	0.516	1726098	RETRIEVAL_ORIENT	n/a	n/a	n/a	-999	15	[0, 0, 0]	n/a	FR1	1	R1240T
1720.745	1.215	1726614	REC_START	n/a	n/a	n/a	-999	15	[0, 0, 0]	n/a	FR1	1	R1240T
1721.96	1.549	1727829	REC_WORD_VV	1.549	n/a	<>	-999	15	[0, 0, 0]	n/a	FR1	1	R1240T
1723.509	1.602	1729378	REC_WORD_VV	1.602	n/a	<>	-999	15	[0, 0, 0]	n/a	FR1	1	R1240T
1725.111	25.647	1730980	REC_WORD	25.647	n/a	FOOT	-999	15	[0, 0, 0]	n/a	FR1	1	R1240T
1750.758	5.127	1756625	REC_END	n/a	n/a	n/a	-999	15	[0, 0, 0]	n/a	FR1	1	R1240T
1755.885	0.5	1761752	TRIAL	n/a	n/a	n/a	-999	16	[0, 0, 0]	n/a	FR1	1	R1240T
1756.385	10.428	1762252	COUNTDOWN_START	n/a	n/a	n/a	-999	16	[0, 0, 0]	n/a	FR1	1	R1240T
1766.813	0.007	1772679	COUNTDOWN_END	n/a	n/a	n/a	-999	16	[0, 0, 0]	n/a	FR1	1	R1240T
1766.82	1.617	1772686	ORIENT	n/a	n/a	n/a	-999	16	[0, 0, 0]	n/a	FR1	1	R1240T
1768.437	2.0	1774303	ORIENT_OFF	n/a	n/a	n/a	-999	16	[0, 0, 0]	n/a	FR1	1	R1240T
1770.437	1.618	1776303	WORD	n/a	wordpools/wordpool_EN.txt	DUCK	1	16	[0, 0, 0]	n/a	FR1	1	R1240T
1772.055	0.983	1777921	WORD_OFF	n/a	n/a	DUCK	1	16	[0, 0, 0]	n/a	FR1	1	R1240T
1773.038	1.616	1778904	WORD	n/a	wordpools/wordpool_EN.txt	CANE	2	16	[0, 0, 0]	n/a	FR1	1	R1240T
1774.654	0.951	1780520	WORD_OFF	n/a	n/a	CANE	2	16	[0, 0, 0]	n/a	FR1	1	R1240T
1775.605	1.618	1781471	WORD	n/a	wordpools/wordpool_EN.txt	PALM	3	16	[0, 0, 0]	n/a	FR1	1	R1240T
1777.223	0.967	1783089	WORD_OFF	n/a	n/a	PALM	3	16	[0, 0, 0]	n/a	FR1	1	R1240T
1778.19	1.615	1784055	WORD	n/a	wordpools/wordpool_EN.txt	SHIRT	4	16	[0, 0, 0]	n/a	FR1	1	R1240T
1779.805	0.967	1785670	WORD_OFF	n/a	n/a	SHIRT	4	16	[0, 0, 0]	n/a	FR1	1	R1240T
1780.772	1.601	1786637	WORD	n/a	wordpools/wordpool_EN.txt	CROW	5	16	[0, 0, 0]	n/a	FR1	1	R1240T
1782.373	0.851	1788238	WORD_OFF	n/a	n/a	CROW	5	16	[0, 0, 0]	n/a	FR1	1	R1240T
1783.224	1.616	1789089	WORD	n/a	wordpools/wordpool_EN.txt	BEE	6	16	[0, 0, 0]	n/a	FR1	1	R1240T
1784.84	0.8	1790705	WORD_OFF	n/a	n/a	BEE	6	16	[0, 0, 0]	n/a	FR1	1	R1240T
1785.64	1.618	1791505	WORD	n/a	wordpools/wordpool_EN.txt	SOUP	7	16	[0, 0, 0]	n/a	FR1	1	R1240T
1787.258	0.917	1793123	WORD_OFF	n/a	n/a	SOUP	7	16	[0, 0, 0]	n/a	FR1	1	R1240T
1788.175	1.616	1794040	WORD	n/a	wordpools/wordpool_EN.txt	FROG	8	16	[0, 0, 0]	n/a	FR1	1	R1240T
1789.791	0.833	1795656	WORD_OFF	n/a	n/a	FROG	8	16	[0, 0, 0]	n/a	FR1	1	R1240T
1790.624	1.618	1796489	WORD	n/a	wordpools/wordpool_EN.txt	CUP	9	16	[0, 0, 0]	n/a	FR1	1	R1240T
1792.242	0.967	1798107	WORD_OFF	n/a	n/a	CUP	9	16	[0, 0, 0]	n/a	FR1	1	R1240T
1793.209	1.616	1799074	WORD	n/a	wordpools/wordpool_EN.txt	BROOM	10	16	[0, 0, 0]	n/a	FR1	1	R1240T
1794.825	0.85	1800689	WORD_OFF	n/a	n/a	BROOM	10	16	[0, 0, 0]	n/a	FR1	1	R1240T
1795.675	1.618	1801539	WORD	n/a	wordpools/wordpool_EN.txt	PLANT	11	16	[0, 0, 0]	n/a	FR1	1	R1240T
1797.293	0.9	1803157	WORD_OFF	n/a	n/a	PLANT	11	16	[0, 0, 0]	n/a	FR1	1	R1240T
1798.193	1.616	1804057	WORD	n/a	wordpools/wordpool_EN.txt	ROOF	12	16	[0, 0, 0]	n/a	FR1	1	R1240T
1799.809	0.0	1805673	WORD_OFF	n/a	n/a	ROOF	12	16	[0, 0, 0]	n/a	FR1	1	R1240T
1799.809	0.001	1805673	DISTRACT_START	n/a	n/a	n/a	-999	16	[0, 0, 0]	n/a	FR1	1	R1240T
1799.81	0.016	1805674	START	n/a	n/a	n/a	-999	16	[-999, -999, -999]	n/a	FR1	1	R1240T
1799.826	5.251	1805690	PROB	5.251	n/a	n/a	-999	16	[5, 2, 3]	10	FR1	1	R1240T
1805.077	4.584	1810941	PROB	4.584	n/a	n/a	-999	16	[4, 2, 4]	10	FR1	1	R1240T
1809.661	13.319	1815525	PROB	13.319	n/a	n/a	-999	16	[9, 8, 5]	23	FR1	1	R1240T
1822.98	0.018	1828843	STOP	n/a	n/a	n/a	-999	16	[-999, -999, -999]	n/a	FR1	1	R1240T
1822.998	0.532	1828861	DISTRACT_END	n/a	n/a	n/a	-999	16	[0, 0, 0]	n/a	FR1	1	R1240T
1823.53	0.502	1829393	RETRIEVAL_ORIENT	n/a	n/a	n/a	-999	16	[0, 0, 0]	n/a	FR1	1	R1240T
1824.032	1.427	1829895	REC_START	n/a	n/a	n/a	-999	16	[0, 0, 0]	n/a	FR1	1	R1240T
1825.459	1.416	1831322	REC_WORD_VV	1.416	n/a	<>	-999	16	[0, 0, 0]	n/a	FR1	1	R1240T
1826.875	17.861	1832738	REC_WORD_VV	17.861	n/a	<>	-999	16	[0, 0, 0]	n/a	FR1	1	R1240T
1844.736	9.306	1850597	REC_WORD	9.306	n/a	DUCK	-999	16	[0, 0, 0]	n/a	FR1	1	R1240T
1854.042	5.761	1859903	REC_END	n/a	n/a	n/a	-999	16	[0, 0, 0]	n/a	FR1	1	R1240T
1859.803	0.5	1865664	TRIAL	n/a	n/a	n/a	-999	17	[0, 0, 0]	n/a	FR1	1	R1240T
1860.303	10.428	1866164	COUNTDOWN_START	n/a	n/a	n/a	-999	17	[0, 0, 0]	n/a	FR1	1	R1240T
1870.731	0.008	1876591	COUNTDOWN_END	n/a	n/a	n/a	-999	17	[0, 0, 0]	n/a	FR1	1	R1240T
1870.739	1.618	1876599	ORIENT	n/a	n/a	n/a	-999	17	[0, 0, 0]	n/a	FR1	1	R1240T
1872.357	1.983	1878217	ORIENT_OFF	n/a	n/a	n/a	-999	17	[0, 0, 0]	n/a	FR1	1	R1240T
1874.34	1.617	1880200	WORD	n/a	wordpools/wordpool_EN.txt	RICE	1	17	[0, 0, 0]	n/a	FR1	1	R1240T
1875.957	0.816	1881817	WORD_OFF	n/a	n/a	RICE	1	17	[0, 0, 0]	n/a	FR1	1	R1240T
1876.773	1.618	1882633	WORD	n/a	wordpools/wordpool_EN.txt	JUDGE	2	17	[0, 0, 0]	n/a	FR1	1	R1240T
1878.391	0.867	1884250	WORD_OFF	n/a	n/a	JUDGE	2	17	[0, 0, 0]	n/a	FR1	1	R1240T
1879.258	1.617	1885117	WORD	n/a	wordpools/wordpool_EN.txt	DOLL	3	17	[0, 0, 0]	n/a	FR1	1	R1240T
1880.875	1.0	1886734	WORD_OFF	n/a	n/a	DOLL	3	17	[0, 0, 0]	n/a	FR1	1	R1240T
1881.875	1.616	1887734	WORD	n/a	wordpools/wordpool_EN.txt	SKI	4	17	[0, 0, 0]	n/a	FR1	1	R1240T
1883.491	0.95	1889350	WORD_OFF	n/a	n/a	SKI	4	17	[0, 0, 0]	n/a	FR1	1	R1240T
1884.441	1.618	1890300	WORD	n/a	wordpools/wordpool_EN.txt	DRUM	5	17	[0, 0, 0]	n/a	FR1	1	R1240T
1886.059	0.834	1891918	WORD_OFF	n/a	n/a	DRUM	5	17	[0, 0, 0]	n/a	FR1	1	R1240T
1886.893	1.616	1892752	WORD	n/a	wordpools/wordpool_EN.txt	TOAD	6	17	[0, 0, 0]	n/a	FR1	1	R1240T
1888.509	0.851	1894368	WORD_OFF	n/a	n/a	TOAD	6	17	[0, 0, 0]	n/a	FR1	1	R1240T
1889.36	1.617	1895219	WORD	n/a	wordpools/wordpool_EN.txt	MILK	7	17	[0, 0, 0]	n/a	FR1	1	R1240T
1890.977	0.933	1896836	WORD_OFF	n/a	n/a	MILK	7	17	[0, 0, 0]	n/a	FR1	1	R1240T
1891.91	1.616	1897769	WORD	n/a	wordpools/wordpool_EN.txt	VASE	8	17	[0, 0, 0]	n/a	FR1	1	R1240T
1893.526	0.768	1899384	WORD_OFF	n/a	n/a	VASE	8	17	[0, 0, 0]	n/a	FR1	1	R1240T
1894.294	1.617	1900152	WORD	n/a	wordpools/wordpool_EN.txt	RAT	9	17	[0, 0, 0]	n/a	FR1	1	R1240T
1895.911	1.0	1901769	WORD_OFF	n/a	n/a	RAT	9	17	[0, 0, 0]	n/a	FR1	1	R1240T
1896.911	1.616	1902769	WORD	n/a	wordpools/wordpool_EN.txt	BOY	10	17	[0, 0, 0]	n/a	FR1	1	R1240T
1898.527	0.933	1904385	WORD_OFF	n/a	n/a	BOY	10	17	[0, 0, 0]	n/a	FR1	1	R1240T
1899.46	1.602	1905318	WORD	n/a	wordpools/wordpool_EN.txt	WEED	11	17	[0, 0, 0]	n/a	FR1	1	R1240T
1901.062	0.95	1906920	WORD_OFF	n/a	n/a	WEED	11	17	[0, 0, 0]	n/a	FR1	1	R1240T
1902.012	1.616	1907870	WORD	n/a	wordpools/wordpool_EN.txt	STEAM	12	17	[0, 0, 0]	n/a	FR1	1	R1240T
1903.628	0.0	1909486	DISTRACT_START	n/a	n/a	n/a	-999	17	[0, 0, 0]	n/a	FR1	1	R1240T
1903.628	0.0	1909486	WORD_OFF	n/a	n/a	STEAM	12	17	[0, 0, 0]	n/a	FR1	1	R1240T
1903.628	0.017	1909486	START	n/a	n/a	n/a	-999	17	[-999, -999, -999]	n/a	FR1	1	R1240T
1903.645	4.917	1909503	PROB	4.917	n/a	n/a	-999	17	[3, 7, 2]	12	FR1	1	R1240T
1908.562	7.001	1914420	PROB	7.001	n/a	n/a	-999	17	[8, 4, 2]	14	FR1	1	R1240T
1915.563	3.719	1921420	PROB	3.719	n/a	n/a	-999	17	[8, 9, 1]	18	FR1	1	R1240T
1919.282	3.249	1925139	PROB	3.249	n/a	n/a	-999	17	[9, 1, 2]	12	FR1	1	R1240T
1922.531	18.289	1928388	PROB	18.289	n/a	n/a	-999	17	[9, 7, 5]	21	FR1	1	R1240T
1940.82	0.015	1946676	STOP	n/a	n/a	n/a	-999	17	[-999, -999, -999]	n/a	FR1	1	R1240T
1940.835	0.633	1946691	DISTRACT_END	n/a	n/a	n/a	-999	17	[0, 0, 0]	n/a	FR1	1	R1240T
1941.468	0.519	1947324	RETRIEVAL_ORIENT	n/a	n/a	n/a	-999	17	[0, 0, 0]	n/a	FR1	1	R1240T
1941.987	24.939	1947843	REC_START	n/a	n/a	n/a	-999	17	[0, 0, 0]	n/a	FR1	1	R1240T
1966.926	5.072	1972780	REC_WORD	5.072	n/a	RUG	-999	17	[0, 0, 0]	n/a	FR1	1	R1240T
1971.998	33.632	1977852	REC_END	n/a	n/a	n/a	-999	17	[0, 0, 0]	n/a	FR1	1	R1240T
2005.63	0.5	2011482	TRIAL	n/a	n/a	n/a	-999	18	[0, 0, 0]	n/a	FR1	1	R1240T
2006.13	10.428	2011982	COUNTDOWN_START	n/a	n/a	n/a	-999	18	[0, 0, 0]	n/a	FR1	1	R1240T
2016.558	0.007	2022409	COUNTDOWN_END	n/a	n/a	n/a	-999	18	[0, 0, 0]	n/a	FR1	1	R1240T
2016.565	1.618	2022416	ORIENT	n/a	n/a	n/a	-999	18	[0, 0, 0]	n/a	FR1	1	R1240T
2018.183	2.167	2024034	ORIENT_OFF	n/a	n/a	n/a	-999	18	[0, 0, 0]	n/a	FR1	1	R1240T
2020.35	1.617	2026201	WORD	n/a	wordpools/wordpool_EN.txt	CLOUD	1	18	[0, 0, 0]	n/a	FR1	1	R1240T
2021.967	0.816	2027818	WORD_OFF	n/a	n/a	CLOUD	1	18	[0, 0, 0]	n/a	FR1	1	R1240T
2022.783	1.601	2028634	WORD	n/a	wordpools/wordpool_EN.txt	FLOOR	2	18	[0, 0, 0]	n/a	FR1	1	R1240T
2024.384	0.8	2030235	WORD_OFF	n/a	n/a	FLOOR	2	18	[0, 0, 0]	n/a	FR1	1	R1240T
2025.184	1.616	2031034	WORD	n/a	wordpools/wordpool_EN.txt	STRING	3	18	[0, 0, 0]	n/a	FR1	1	R1240T
2026.8	0.95	2032650	WORD_OFF	n/a	n/a	STRING	3	18	[0, 0, 0]	n/a	FR1	1	R1240T
2027.75	1.618	2033600	WORD	n/a	wordpools/wordpool_EN.txt	DITCH	4	18	[0, 0, 0]	n/a	FR1	1	R1240T
2029.368	0.8	2035218	WORD_OFF	n/a	n/a	DITCH	4	18	[0, 0, 0]	n/a	FR1	1	R1240T
2030.168	1.616	2036018	WORD	n/a	wordpools/wordpool_EN.txt	JAR	5	18	[0, 0, 0]	n/a	FR1	1	R1240T
2031.784	0.817	2037634	WORD_OFF	n/a	n/a	JAR	5	18	[0, 0, 0]	n/a	FR1	1	R1240T
2032.601	1.618	2038451	WORD	n/a	wordpools/wordpool_EN.txt	WAND	6	18	[0, 0, 0]	n/a	FR1	1	R1240T
2034.219	0.95	2040069	WORD_OFF	n/a	n/a	WAND	6	18	[0, 0, 0]	n/a	FR1	1	R1240T
2035.169	1.616	2041019	WORD	n/a	wordpools/wordpool_EN.txt	FLEA	7	18	[0, 0, 0]	n/a	FR1	1	R1240T
2036.785	0.967	2042635	WORD_OFF	n/a	n/a	FLEA	7	18	[0, 0, 0]	n/a	FR1	1	R1240T
2037.752	1.601	2043602	WORD	n/a	wordpools/wordpool_EN.txt	HOSE	8	18	[0, 0, 0]	n/a	FR1	1	R1240T
2039.353	0.801	2045203	WORD_OFF	n/a	n/a	HOSE	8	18	[0, 0, 0]	n/a	FR1	1	R1240T
2040.154	1.616	2046004	WORD	n/a	wordpools/wordpool_EN.txt	INK	9	18	[0, 0, 0]	n/a	FR1	1	R1240T
2041.77	1.0	2047619	WORD_OFF	n/a	n/a	INK	9	18	[0, 0, 0]	n/a	FR1	1	R1240T
2042.77	1.618	2048619	WORD	n/a	wordpools/wordpool_EN.txt	TEETH	10	18	[0, 0, 0]	n/a	FR1	1	R1240T
2044.388	0.816	2050237	WORD_OFF	n/a	n/a	TEETH	10	18	[0, 0, 0]	n/a	FR1	1	R1240T
2045.204	1.617	2051053	WORD	n/a	wordpools/wordpool_EN.txt	CLOCK	11	18	[0, 0, 0]	n/a	FR1	1	R1240T
2046.821	0.783	2052670	WORD_OFF	n/a	n/a	CLOCK	11	18	[0, 0, 0]	n/a	FR1	1	R1240T
2047.604	1.618	2053453	WORD	n/a	wordpools/wordpool_EN.txt	WOOD	12	18	[0, 0, 0]	n/a	FR1	1	R1240T
2049.222	0.0	2055071	WORD_OFF	n/a	n/a	WOOD	12	18	[0, 0, 0]	n/a	FR1	1	R1240T
2049.222	0.0	2055071	DISTRACT_START	n/a	n/a	n/a	-999	18	[0, 0, 0]	n/a	FR1	1	R1240T
2049.222	0.017	2055071	START	n/a	n/a	n/a	-999	18	[-999, -999, -999]	n/a	FR1	1	R1240T
2049.239	4.299	2055088	PROB	4.299	n/a	n/a	-999	18	[1, 1, 7]	9	FR1	1	R1240T
2053.538	4.985	2059387	PROB	4.985	n/a	n/a	-999	18	[2, 9, 2]	13	FR1	1	R1240T
2058.523	19.217	2064371	PROB	19.217	n/a	n/a	-999	18	[3, 1, 6]	10	FR1	1	R1240T
2077.74	0.02	2083587	STOP	n/a	n/a	n/a	-999	18	[-999, -999, -999]	n/a	FR1	1	R1240T
2077.76	0.534	2083607	DISTRACT_END	n/a	n/a	n/a	-999	18	[0, 0, 0]	n/a	FR1	1	R1240T
2078.294	0.517	2084141	RETRIEVAL_ORIENT	n/a	n/a	n/a	-999	18	[0, 0, 0]	n/a	FR1	1	R1240T
2078.811	1.433	2084658	REC_START	n/a	n/a	n/a	-999	18	[0, 0, 0]	n/a	FR1	1	R1240T
2080.244	1.06	2086091	REC_WORD_VV	1.06	n/a	<>	-999	18	[0, 0, 0]	n/a	FR1	1	R1240T
2081.304	0.436	2087151	REC_WORD_VV	0.436	n/a	<>	-999	18	[0, 0, 0]	n/a	FR1	1	R1240T
2081.74	1.035	2087587	REC_WORD	1.035	n/a	TEETH	-999	18	[0, 0, 0]	n/a	FR1	1	R1240T
2082.775	2.604	2088622	REC_WORD_VV	2.604	n/a	<>	-999	18	[0, 0, 0]	n/a	FR1	1	R1240T
2085.379	5.343	2091226	REC_WORD_VV	5.343	n/a	<>	-999	18	[0, 0, 0]	n/a	FR1	1	R1240T
2090.722	2.368	2096568	REC_WORD	2.368	n/a	RUG	-999	18	[0, 0, 0]	n/a	FR1	1	R1240T
2093.09	15.731	2098936	REC_WORD	15.731	n/a	TUG	-999	18	[0, 0, 0]	n/a	FR1	1	R1240T
2108.821	5.695	2114666	REC_END	n/a	n/a	n/a	-999	18	[0, 0, 0]	n/a	FR1	1	R1240T
2114.516	0.5	2120361	TRIAL	n/a	n/a	n/a	-999	19	[0, 0, 0]	n/a	FR1	1	R1240T
2115.016	10.428	2120861	COUNTDOWN_START	n/a	n/a	n/a	-999	19	[0, 0, 0]	n/a	FR1	1	R1240T
2125.444	0.007	2131288	COUNTDOWN_END	n/a	n/a	n/a	-999	19	[0, 0, 0]	n/a	FR1	1	R1240T
2125.451	1.618	2131295	ORIENT	n/a	n/a	n/a	-999	19	[0, 0, 0]	n/a	FR1	1	R1240T
2127.069	1.901	2132913	ORIENT_OFF	n/a	n/a	n/a	-999	19	[0, 0, 0]	n/a	FR1	1	R1240T
2128.97	1.616	2134814	WORD	n/a	wordpools/wordpool_EN.txt	KEY	1	19	[0, 0, 0]	n/a	FR1	1	R1240T
2130.586	0.917	2136430	WORD_OFF	n/a	n/a	KEY	1	19	[0, 0, 0]	n/a	FR1	1	R1240T
2131.503	1.618	2137347	WORD	n/a	wordpools/wordpool_EN.txt	HORSE	2	19	[0, 0, 0]	n/a	FR1	1	R1240T
2133.121	0.916	2138965	WORD_OFF	n/a	n/a	HORSE	2	19	[0, 0, 0]	n/a	FR1	1	R1240T
2134.037	1.616	2139881	WORD	n/a	wordpools/wordpool_EN.txt	MAP	3	19	[0, 0, 0]	n/a	FR1	1	R1240T
2135.653	0.85	2141497	WORD_OFF	n/a	n/a	MAP	3	19	[0, 0, 0]	n/a	FR1	1	R1240T
2136.503	1.602	2142347	WORD	n/a	wordpools/wordpool_EN.txt	BLOOM	4	19	[0, 0, 0]	n/a	FR1	1	R1240T
2138.105	0.917	2143949	WORD_OFF	n/a	n/a	BLOOM	4	19	[0, 0, 0]	n/a	FR1	1	R1240T
2139.022	1.616	2144866	WORD	n/a	wordpools/wordpool_EN.txt	VAN	5	19	[0, 0, 0]	n/a	FR1	1	R1240T
2140.638	0.783	2146481	WORD_OFF	n/a	n/a	VAN	5	19	[0, 0, 0]	n/a	FR1	1	R1240T
2141.421	1.618	2147264	WORD	n/a	wordpools/wordpool_EN.txt	SPOON	6	19	[0, 0, 0]	n/a	FR1	1	R1240T
2143.039	0.967	2148882	WORD_OFF	n/a	n/a	SPOON	6	19	[0, 0, 0]	n/a	FR1	1	R1240T
2144.006	1.616	2149849	WORD	n/a	wordpools/wordpool_EN.txt	DEER	7	19	[0, 0, 0]	n/a	FR1	1	R1240T
2145.622	1.0	2151465	WORD_OFF	n/a	n/a	DEER	7	19	[0, 0, 0]	n/a	FR1	1	R1240T
2146.622	1.618	2152465	WORD	n/a	wordpools/wordpool_EN.txt	SNAKE	8	19	[0, 0, 0]	n/a	FR1	1	R1240T
2148.24	0.967	2154083	WORD_OFF	n/a	n/a	SNAKE	8	19	[0, 0, 0]	n/a	FR1	1	R1240T
2149.207	1.616	2155050	WORD	n/a	wordpools/wordpool_EN.txt	WORLD	9	19	[0, 0, 0]	n/a	FR1	1	R1240T
2150.823	0.9	2156666	WORD_OFF	n/a	n/a	WORLD	9	19	[0, 0, 0]	n/a	FR1	1	R1240T
2151.723	1.618	2157566	WORD	n/a	wordpools/wordpool_EN.txt	HAWK	10	19	[0, 0, 0]	n/a	FR1	1	R1240T
2153.341	0.95	2159184	WORD_OFF	n/a	n/a	HAWK	10	19	[0, 0, 0]	n/a	FR1	1	R1240T
2154.291	1.617	2160134	WORD	n/a	wordpools/wordpool_EN.txt	COW	11	19	[0, 0, 0]	n/a	FR1	1	R1240T
2155.908	1.0	2161751	WORD_OFF	n/a	n/a	COW	11	19	[0, 0, 0]	n/a	FR1	1	R1240T
2156.908	1.616	2162750	WORD	n/a	wordpools/wordpool_EN.txt	PEN	12	19	[0, 0, 0]	n/a	FR1	1	R1240T
2158.524	0.0	2164366	WORD_OFF	n/a	n/a	PEN	12	19	[0, 0, 0]	n/a	FR1	1	R1240T
2158.524	0.001	2164366	DISTRACT_START	n/a	n/a	n/a	-999	19	[0, 0, 0]	n/a	FR1	1	R1240T
2158.525	0.016	2164367	START	n/a	n/a	n/a	-999	19	[-999, -999, -999]	n/a	FR1	1	R1240T
2158.541	5.535	2164383	PROB	5.535	n/a	n/a	-999	19	[3, 7, 1]	11	FR1	1	R1240T
2164.076	5.734	2169918	PROB	5.734	n/a	n/a	-999	19	[9, 6, 8]	23	FR1	1	R1240T
2169.81	6.535	2175652	PROB	6.535	n/a	n/a	-999	19	[5, 3, 9]	17	FR1	1	R1240T
2176.345	5.779	2182186	PROB	5.779	n/a	n/a	-999	19	[9, 4, 8]	22	FR1	1	R1240T
2182.124	0.022	2187965	STOP	n/a	n/a	n/a	-999	19	[-999, -999, -999]	n/a	FR1	1	R1240T
2182.146	0.699	2187987	DISTRACT_END	n/a	n/a	n/a	-999	19	[0, 0, 0]	n/a	FR1	1	R1240T
2182.845	0.519	2188686	RETRIEVAL_ORIENT	n/a	n/a	n/a	-999	19	[0, 0, 0]	n/a	FR1	1	R1240T
2183.364	1.027	2189205	REC_START	n/a	n/a	n/a	-999	19	[0, 0, 0]	n/a	FR1	1	R1240T
2184.391	1.131	2190232	REC_WORD	1.131	n/a	KEY	-999	19	[0, 0, 0]	n/a	FR1	1	R1240T
2185.522	7.099	2191363	REC_WORD_VV	7.099	n/a	<>	-999	19	[0, 0, 0]	n/a	FR1	1	R1240T
2192.621	4.588	2198461	REC_WORD	4.588	n/a	TUG	-999	19	[0, 0, 0]	n/a	FR1	1	R1240T
2197.209	10.425	2203049	REC_WORD_VV	10.425	n/a	<>	-999	19	[0, 0, 0]	n/a	FR1	1	R1240T
2207.634	1.549	2213473	REC_WORD	1.549	n/a	TEETH	-999	19	[0, 0, 0]	n/a	FR1	1	R1240T
2209.183	0.896	2215022	REC_WORD	0.896	n/a	BLOOM	-999	19	[0, 0, 0]	n/a	FR1	1	R1240T
2210.079	3.294	2215918	REC_WORD	3.294	n/a	GLOOM	-999	19	[0, 0, 0]	n/a	FR1	1	R1240T
2213.373	5.079	2219212	REC_END	n/a	n/a	n/a	-999	19	[0, 0, 0]	n/a	FR1	1	R1240T
2218.452	0.5	2224291	TRIAL	n/a	n/a	n/a	-999	20	[0, 0, 0]	n/a	FR1	1	R1240T
2218.952	10.428	2224791	COUNTDOWN_START	n/a	n/a	n/a	-999	20	[0, 0, 0]	n/a	FR1	1	R1240T
2229.38	0.008	2235218	COUNTDOWN_END	n/a	n/a	n/a	-999	20	[0, 0, 0]	n/a	FR1	1	R1240T
2229.388	1.617	2235226	ORIENT	n/a	n/a	n/a	-999	20	[0, 0, 0]	n/a	FR1	1	R1240T
2231.005	2.15	2236843	ORIENT_OFF	n/a	n/a	n/a	-999	20	[0, 0, 0]	n/a	FR1	1	R1240T
2233.155	1.616	2238993	WORD	n/a	wordpools/wordpool_EN.txt	SKY	1	20	[0, 0, 0]	n/a	FR1	1	R1240T
2234.771	0.984	2240609	WORD_OFF	n/a	n/a	SKY	1	20	[0, 0, 0]	n/a	FR1	1	R1240T
2235.755	1.601	2241593	WORD	n/a	wordpools/wordpool_EN.txt	TANK	2	20	[0, 0, 0]	n/a	FR1	1	R1240T
2237.356	0.9	2243194	WORD_OFF	n/a	n/a	TANK	2	20	[0, 0, 0]	n/a	FR1	1	R1240T
2238.256	1.617	2244094	WORD	n/a	wordpools/wordpool_EN.txt	STORE	3	20	[0, 0, 0]	n/a	FR1	1	R1240T
2239.873	1.0	2245710	WORD_OFF	n/a	n/a	STORE	3	20	[0, 0, 0]	n/a	FR1	1	R1240T
2240.873	1.616	2246710	WORD	n/a	wordpools/wordpool_EN.txt	HOOF	4	20	[0, 0, 0]	n/a	FR1	1	R1240T
2242.489	0.902	2248326	WORD_OFF	n/a	n/a	HOOF	4	20	[0, 0, 0]	n/a	FR1	1	R1240T
2243.391	1.617	2249228	WORD	n/a	wordpools/wordpool_EN.txt	STEM	5	20	[0, 0, 0]	n/a	FR1	1	R1240T
2245.008	0.815	2250845	WORD_OFF	n/a	n/a	STEM	5	20	[0, 0, 0]	n/a	FR1	1	R1240T
2245.823	1.617	2251660	WORD	n/a	wordpools/wordpool_EN.txt	MOON	6	20	[0, 0, 0]	n/a	FR1	1	R1240T
2247.44	0.818	2253277	WORD_OFF	n/a	n/a	MOON	6	20	[0, 0, 0]	n/a	FR1	1	R1240T
2248.258	1.617	2254095	WORD	n/a	wordpools/wordpool_EN.txt	FOOD	7	20	[0, 0, 0]	n/a	FR1	1	R1240T
2249.875	0.899	2255712	WORD_OFF	n/a	n/a	FOOD	7	20	[0, 0, 0]	n/a	FR1	1	R1240T
2250.774	1.601	2256611	WORD	n/a	wordpools/wordpool_EN.txt	OWL	8	20	[0, 0, 0]	n/a	FR1	1	R1240T
2252.375	1.017	2258212	WORD_OFF	n/a	n/a	OWL	8	20	[0, 0, 0]	n/a	FR1	1	R1240T
2253.392	1.617	2259229	WORD	n/a	wordpools/wordpool_EN.txt	HOUSE	9	20	[0, 0, 0]	n/a	FR1	1	R1240T
2255.009	1.001	2260846	WORD_OFF	n/a	n/a	HOUSE	9	20	[0, 0, 0]	n/a	FR1	1	R1240T
2256.01	1.616	2261846	WORD	n/a	wordpools/wordpool_EN.txt	BARN	10	20	[0, 0, 0]	n/a	FR1	1	R1240T
2257.626	0.866	2263462	WORD_OFF	n/a	n/a	BARN	10	20	[0, 0, 0]	n/a	FR1	1	R1240T
2258.492	1.601	2264328	WORD	n/a	wordpools/wordpool_EN.txt	PLANE	11	20	[0, 0, 0]	n/a	FR1	1	R1240T
2260.093	0.784	2265929	WORD_OFF	n/a	n/a	PLANE	11	20	[0, 0, 0]	n/a	FR1	1	R1240T
2260.877	1.616	2266713	WORD	n/a	wordpools/wordpool_EN.txt	SEED	12	20	[0, 0, 0]	n/a	FR1	1	R1240T
2262.493	0.0	2268329	WORD_OFF	n/a	n/a	SEED	12	20	[0, 0, 0]	n/a	FR1	1	R1240T
2262.493	0.001	2268329	DISTRACT_START	n/a	n/a	n/a	-999	20	[0, 0, 0]	n/a	FR1	1	R1240T
2262.494	0.016	2268330	START	n/a	n/a	n/a	-999	20	[-999, -999, -999]	n/a	FR1	1	R1240T
2262.51	14.302	2268346	PROB	14.302	n/a	n/a	-999	20	[9, 8, 7]	23	FR1	1	R1240T
2276.812	5.744	2282647	PROB	5.744	n/a	n/a	-999	20	[3, 5, 4]	12	FR1	1	R1240T
2282.556	0.007	2288391	STOP	n/a	n/a	n/a	-999	20	[-999, -999, -999]	n/a	FR1	1	R1240T
2282.563	0.635	2288398	DISTRACT_END	n/a	n/a	n/a	-999	20	[0, 0, 0]	n/a	FR1	1	R1240T
2283.198	0.516	2289033	RETRIEVAL_ORIENT	n/a	n/a	n/a	-999	20	[0, 0, 0]	n/a	FR1	1	R1240T
2283.714	6.561	2289549	REC_START	n/a	n/a	n/a	-999	20	[0, 0, 0]	n/a	FR1	1	R1240T
2290.275	0.954	2296109	REC_WORD_VV	0.954	n/a	<>	-999	20	[0, 0, 0]	n/a	FR1	1	R1240T
2291.229	8.621	2297063	REC_WORD_VV	8.621	n/a	<>	-999	20	[0, 0, 0]	n/a	FR1	1	R1240T
2299.85	13.875	2305684	REC_WORD_VV	13.875	n/a	<>	-999	20	[0, 0, 0]	n/a	FR1	1	R1240T
2313.725	5.663	2319558	REC_END	n/a	n/a	n/a	-999	20	[0, 0, 0]	n/a	FR1	1	R1240T
2319.388	0.5	2325221	TRIAL	n/a	n/a	n/a	-999	21	[0, 0, 0]	n/a	FR1	1	R1240T
2319.888	10.428	2325721	COUNTDOWN_START	n/a	n/a	n/a	-999	21	[0, 0, 0]	n/a	FR1	1	R1240T
2330.316	0.007	2336148	COUNTDOWN_END	n/a	n/a	n/a	-999	21	[0, 0, 0]	n/a	FR1	1	R1240T
2330.323	1.617	2336155	ORIENT	n/a	n/a	n/a	-999	21	[0, 0, 0]	n/a	FR1	1	R1240T
2331.94	2.3	2337772	ORIENT_OFF	n/a	n/a	n/a	-999	21	[0, 0, 0]	n/a	FR1	1	R1240T
2334.24	1.616	2340072	WORD	n/a	wordpools/wordpool_EN.txt	CHAIR	1	21	[0, 0, 0]	n/a	FR1	1	R1240T
2335.856	0.8	2341688	WORD_OFF	n/a	n/a	CHAIR	1	21	[0, 0, 0]	n/a	FR1	1	R1240T
2336.656	1.618	2342488	WORD	n/a	wordpools/wordpool_EN.txt	OAR	2	21	[0, 0, 0]	n/a	FR1	1	R1240T
2338.274	0.801	2344105	WORD_OFF	n/a	n/a	OAR	2	21	[0, 0, 0]	n/a	FR1	1	R1240T
2339.075	1.616	2344906	WORD	n/a	wordpools/wordpool_EN.txt	CLIFF	3	21	[0, 0, 0]	n/a	FR1	1	R1240T
2340.691	0.966	2346522	WORD_OFF	n/a	n/a	CLIFF	3	21	[0, 0, 0]	n/a	FR1	1	R1240T
2341.657	1.601	2347488	WORD	n/a	wordpools/wordpool_EN.txt	SHOE	4	21	[0, 0, 0]	n/a	FR1	1	R1240T
2343.258	0.901	2349089	WORD_OFF	n/a	n/a	SHOE	4	21	[0, 0, 0]	n/a	FR1	1	R1240T
2344.159	1.616	2349990	WORD	n/a	wordpools/wordpool_EN.txt	POLE	5	21	[0, 0, 0]	n/a	FR1	1	R1240T
2345.775	0.967	2351606	WORD_OFF	n/a	n/a	POLE	5	21	[0, 0, 0]	n/a	FR1	1	R1240T
2346.742	1.618	2352573	WORD	n/a	wordpools/wordpool_EN.txt	FUR	6	21	[0, 0, 0]	n/a	FR1	1	R1240T
2348.36	1.0	2354191	WORD_OFF	n/a	n/a	FUR	6	21	[0, 0, 0]	n/a	FR1	1	R1240T
2349.36	1.617	2355191	WORD	n/a	wordpools/wordpool_EN.txt	DOOR	7	21	[0, 0, 0]	n/a	FR1	1	R1240T
2350.977	0.866	2356808	WORD_OFF	n/a	n/a	DOOR	7	21	[0, 0, 0]	n/a	FR1	1	R1240T
2351.843	1.617	2357674	WORD	n/a	wordpools/wordpool_EN.txt	CAKE	8	21	[0, 0, 0]	n/a	FR1	1	R1240T
2353.46	0.801	2359291	WORD_OFF	n/a	n/a	CAKE	8	21	[0, 0, 0]	n/a	FR1	1	R1240T
2354.261	1.617	2360091	WORD	n/a	wordpools/wordpool_EN.txt	STREET	9	21	[0, 0, 0]	n/a	FR1	1	R1240T
2355.878	0.865	2361708	WORD_OFF	n/a	n/a	STREET	9	21	[0, 0, 0]	n/a	FR1	1	R1240T
2356.743	1.618	2362573	WORD	n/a	wordpools/wordpool_EN.txt	EGG	10	21	[0, 0, 0]	n/a	FR1	1	R1240T
2358.361	0.951	2364191	WORD_OFF	n/a	n/a	EGG	10	21	[0, 0, 0]	n/a	FR1	1	R1240T
2359.312	1.617	2365142	WORD	n/a	wordpools/wordpool_EN.txt	WOLF	11	21	[0, 0, 0]	n/a	FR1	1	R1240T
2360.929	0.966	2366759	WORD_OFF	n/a	n/a	WOLF	11	21	[0, 0, 0]	n/a	FR1	1	R1240T
2361.895	1.616	2367725	WORD	n/a	wordpools/wordpool_EN.txt	EAR	12	21	[0, 0, 0]	n/a	FR1	1	R1240T
2363.511	0.0	2369341	WORD_OFF	n/a	n/a	EAR	12	21	[0, 0, 0]	n/a	FR1	1	R1240T
2363.511	0.001	2369341	DISTRACT_START	n/a	n/a	n/a	-999	21	[0, 0, 0]	n/a	FR1	1	R1240T
2363.512	0.016	2369342	START	n/a	n/a	n/a	-999	21	[-999, -999, -999]	n/a	FR1	1	R1240T
2363.528	11.185	2369358	PROB	11.185	n/a	n/a	-999	21	[8, 9, 8]	25	FR1	1	R1240T
2374.713	5.001	2380542	PROB	5.001	n/a	n/a	-999	21	[4, 6, 1]	11	FR1	1	R1240T
2379.714	5.818	2385543	PROB	5.818	n/a	n/a	-999	21	[4, 7, 7]	18	FR1	1	R1240T
2385.532	0.017	2391361	STOP	n/a	n/a	n/a	-999	21	[-999, -999, -999]	n/a	FR1	1	R1240T
2385.549	0.634	2391378	DISTRACT_END	n/a	n/a	n/a	-999	21	[0, 0, 0]	n/a	FR1	1	R1240T
2386.183	0.517	2392012	RETRIEVAL_ORIENT	n/a	n/a	n/a	-999	21	[0, 0, 0]	n/a	FR1	1	R1240T
2386.7	11.602	2392529	REC_START	n/a	n/a	n/a	-999	21	[0, 0, 0]	n/a	FR1	1	R1240T
2398.302	1.026	2404130	REC_WORD	1.026	n/a	OAR	-999	21	[0, 0, 0]	n/a	FR1	1	R1240T
2399.328	7.573	2405156	REC_WORD_VV	7.573	n/a	<>	-999	21	[0, 0, 0]	n/a	FR1	1	R1240T
2406.901	6.759	2412728	REC_WORD	6.759	n/a	KEY	-999	21	[0, 0, 0]	n/a	FR1	1	R1240T
2413.66	1.113	2419487	REC_WORD	1.113	n/a	BLOOM	-999	21	[0, 0, 0]	n/a	FR1	1	R1240T
2414.773	1.362	2420600	REC_WORD_VV	1.362	n/a	<>	-999	21	[0, 0, 0]	n/a	FR1	1	R1240T
2416.135	0.575	2421962	REC_WORD	0.575	n/a	MOOSE	-999	21	[0, 0, 0]	n/a	FR1	1	R1240T
2416.71	5.029	2422537	REC_END	n/a	n/a	n/a	-999	21	[0, 0, 0]	n/a	FR1	1	R1240T
2421.739	0.5	2427565	TRIAL	n/a	n/a	n/a	-999	22	[0, 0, 0]	n/a	FR1	1	R1240T
2422.239	10.428	2428065	COUNTDOWN_START	n/a	n/a	n/a	-999	22	[0, 0, 0]	n/a	FR1	1	R1240T
2432.667	0.007	2438493	COUNTDOWN_END	n/a	n/a	n/a	-999	22	[0, 0, 0]	n/a	FR1	1	R1240T
2432.674	1.618	2438500	ORIENT	n/a	n/a	n/a	-999	22	[0, 0, 0]	n/a	FR1	1	R1240T
2434.292	2.266	2440118	ORIENT_OFF	n/a	n/a	n/a	-999	22	[0, 0, 0]	n/a	FR1	1	R1240T
2436.558	1.618	2442383	WORD	n/a	wordpools/wordpool_EN.txt	STOOL	1	22	[0, 0, 0]	n/a	FR1	1	R1240T
2438.176	0.817	2444001	WORD_OFF	n/a	n/a	STOOL	1	22	[0, 0, 0]	n/a	FR1	1	R1240T
2438.993	1.616	2444818	WORD	n/a	wordpools/wordpool_EN.txt	TIE	2	22	[0, 0, 0]	n/a	FR1	1	R1240T
2440.609	0.85	2446434	WORD_OFF	n/a	n/a	TIE	2	22	[0, 0, 0]	n/a	FR1	1	R1240T
2441.459	1.618	2447284	WORD	n/a	wordpools/wordpool_EN.txt	CART	3	22	[0, 0, 0]	n/a	FR1	1	R1240T
2443.077	0.8	2448902	WORD_OFF	n/a	n/a	CART	3	22	[0, 0, 0]	n/a	FR1	1	R1240T
2443.877	1.616	2449702	WORD	n/a	wordpools/wordpool_EN.txt	CALF	4	22	[0, 0, 0]	n/a	FR1	1	R1240T
2445.493	0.818	2451318	WORD_OFF	n/a	n/a	CALF	4	22	[0, 0, 0]	n/a	FR1	1	R1240T
2446.311	1.617	2452136	WORD	n/a	wordpools/wordpool_EN.txt	STEAK	5	22	[0, 0, 0]	n/a	FR1	1	R1240T
2447.928	0.782	2453753	WORD_OFF	n/a	n/a	STEAK	5	22	[0, 0, 0]	n/a	FR1	1	R1240T
2448.71	1.618	2454535	WORD	n/a	wordpools/wordpool_EN.txt	PEA	6	22	[0, 0, 0]	n/a	FR1	1	R1240T
2450.328	0.9	2456153	WORD_OFF	n/a	n/a	PEA	6	22	[0, 0, 0]	n/a	FR1	1	R1240T
2451.228	1.616	2457053	WORD	n/a	wordpools/wordpool_EN.txt	BOOT	7	22	[0, 0, 0]	n/a	FR1	1	R1240T
2452.844	0.884	2458668	WORD_OFF	n/a	n/a	BOOT	7	22	[0, 0, 0]	n/a	FR1	1	R1240T
2453.728	1.601	2459552	WORD	n/a	wordpools/wordpool_EN.txt	DIME	8	22	[0, 0, 0]	n/a	FR1	1	R1240T
2455.329	0.783	2461153	WORD_OFF	n/a	n/a	DIME	8	22	[0, 0, 0]	n/a	FR1	1	R1240T
2456.112	1.617	2461936	WORD	n/a	wordpools/wordpool_EN.txt	CROWN	9	22	[0, 0, 0]	n/a	FR1	1	R1240T
2457.729	1.0	2463553	WORD_OFF	n/a	n/a	CROWN	9	22	[0, 0, 0]	n/a	FR1	1	R1240T
2458.729	1.618	2464553	WORD	n/a	wordpools/wordpool_EN.txt	HAND	10	22	[0, 0, 0]	n/a	FR1	1	R1240T
2460.347	1.0	2466171	WORD_OFF	n/a	n/a	HAND	10	22	[0, 0, 0]	n/a	FR1	1	R1240T
2461.347	1.617	2467171	WORD	n/a	wordpools/wordpool_EN.txt	GRASS	11	22	[0, 0, 0]	n/a	FR1	1	R1240T
2462.964	0.983	2468788	WORD_OFF	n/a	n/a	GRASS	11	22	[0, 0, 0]	n/a	FR1	1	R1240T
2463.947	1.616	2469771	WORD	n/a	wordpools/wordpool_EN.txt	CLAY	12	22	[0, 0, 0]	n/a	FR1	1	R1240T
2465.563	0.0	2471387	WORD_OFF	n/a	n/a	CLAY	12	22	[0, 0, 0]	n/a	FR1	1	R1240T
2465.563	0.001	2471387	DISTRACT_START	n/a	n/a	n/a	-999	22	[0, 0, 0]	n/a	FR1	1	R1240T
2465.564	0.016	2471388	START	n/a	n/a	n/a	-999	22	[-999, -999, -999]	n/a	FR1	1	R1240T
2465.58	4.502	2471404	PROB	4.502	n/a	n/a	-999	22	[4, 8, 4]	16	FR1	1	R1240T
2470.082	6.517	2475905	PROB	6.517	n/a	n/a	-999	22	[7, 7, 7]	21	FR1	1	R1240T
2476.599	5.585	2482422	PROB	5.585	n/a	n/a	-999	22	[3, 9, 3]	15	FR1	1	R1240T
2482.184	4.037	2488007	PROB	4.037	n/a	n/a	-999	22	[8, 9, 2]	19	FR1	1	R1240T
2486.221	0.014	2492043	STOP	n/a	n/a	n/a	-999	22	[-999, -999, -999]	n/a	FR1	1	R1240T
2486.235	0.549	2492057	DISTRACT_END	n/a	n/a	n/a	-999	22	[0, 0, 0]	n/a	FR1	1	R1240T
2486.784	0.518	2492606	RETRIEVAL_ORIENT	n/a	n/a	n/a	-999	22	[0, 0, 0]	n/a	FR1	1	R1240T
2487.302	29.755	2493124	REC_START	n/a	n/a	n/a	-999	22	[0, 0, 0]	n/a	FR1	1	R1240T
2517.057	0.256	2522878	REC_WORD_VV	0.256	n/a	<>	-999	22	[0, 0, 0]	n/a	FR1	1	R1240T
2517.313	5.227	2523134	REC_END	n/a	n/a	n/a	-999	22	[0, 0, 0]	n/a	FR1	1	R1240T
2522.54	0.5	2528360	TRIAL	n/a	n/a	n/a	-999	23	[0, 0, 0]	n/a	FR1	1	R1240T
2523.04	10.428	2528860	COUNTDOWN_START	n/a	n/a	n/a	-999	23	[0, 0, 0]	n/a	FR1	1	R1240T
2533.468	0.008	2539288	COUNTDOWN_END	n/a	n/a	n/a	-999	23	[0, 0, 0]	n/a	FR1	1	R1240T
2533.476	1.618	2539296	ORIENT	n/a	n/a	n/a	-999	23	[0, 0, 0]	n/a	FR1	1	R1240T
2535.094	2.1	2540913	ORIENT_OFF	n/a	n/a	n/a	-999	23	[0, 0, 0]	n/a	FR1	1	R1240T
2537.194	1.616	2543013	WORD	n/a	wordpools/wordpool_EN.txt	TOE	1	23	[0, 0, 0]	n/a	FR1	1	R1240T
2538.81	1.0	2544629	WORD_OFF	n/a	n/a	TOE	1	23	[0, 0, 0]	n/a	FR1	1	R1240T
2539.81	1.617	2545629	WORD	n/a	wordpools/wordpool_EN.txt	BRIDGE	2	23	[0, 0, 0]	n/a	FR1	1	R1240T
2541.427	0.918	2547246	WORD_OFF	n/a	n/a	BRIDGE	2	23	[0, 0, 0]	n/a	FR1	1	R1240T
2542.345	1.617	2548164	WORD	n/a	wordpools/wordpool_EN.txt	GLASS	3	23	[0, 0, 0]	n/a	FR1	1	R1240T
2543.962	1.0	2549781	WORD_OFF	n/a	n/a	GLASS	3	23	[0, 0, 0]	n/a	FR1	1	R1240T
2544.962	1.616	2550781	WORD	n/a	wordpools/wordpool_EN.txt	SHEET	4	23	[0, 0, 0]	n/a	FR1	1	R1240T
2546.578	0.9	2552397	WORD_OFF	n/a	n/a	SHEET	4	23	[0, 0, 0]	n/a	FR1	1	R1240T
2547.478	1.601	2553297	WORD	n/a	wordpools/wordpool_EN.txt	PIPE	5	23	[0, 0, 0]	n/a	FR1	1	R1240T
2549.079	0.817	2554898	WORD_OFF	n/a	n/a	PIPE	5	23	[0, 0, 0]	n/a	FR1	1	R1240T
2549.896	1.616	2555715	WORD	n/a	wordpools/wordpool_EN.txt	CUBE	6	23	[0, 0, 0]	n/a	FR1	1	R1240T
2551.512	0.967	2557330	WORD_OFF	n/a	n/a	CUBE	6	23	[0, 0, 0]	n/a	FR1	1	R1240T
2552.479	1.618	2558297	WORD	n/a	wordpools/wordpool_EN.txt	TOOL	7	23	[0, 0, 0]	n/a	FR1	1	R1240T
2554.097	0.85	2559915	WORD_OFF	n/a	n/a	TOOL	7	23	[0, 0, 0]	n/a	FR1	1	R1240T
2554.947	1.616	2560765	WORD	n/a	wordpools/wordpool_EN.txt	BOWL	8	23	[0, 0, 0]	n/a	FR1	1	R1240T
2556.563	0.85	2562381	WORD_OFF	n/a	n/a	BOWL	8	23	[0, 0, 0]	n/a	FR1	1	R1240T
2557.413	1.618	2563231	WORD	n/a	wordpools/wordpool_EN.txt	STRAW	9	23	[0, 0, 0]	n/a	FR1	1	R1240T
2559.031	0.799	2564849	WORD_OFF	n/a	n/a	STRAW	9	23	[0, 0, 0]	n/a	FR1	1	R1240T
2559.83	1.617	2565648	WORD	n/a	wordpools/wordpool_EN.txt	BATH	10	23	[0, 0, 0]	n/a	FR1	1	R1240T
2561.447	0.935	2567265	WORD_OFF	n/a	n/a	BATH	10	23	[0, 0, 0]	n/a	FR1	1	R1240T
2562.382	1.617	2568200	WORD	n/a	wordpools/wordpool_EN.txt	PIT	11	23	[0, 0, 0]	n/a	FR1	1	R1240T
2563.999	0.865	2569817	WORD_OFF	n/a	n/a	PIT	11	23	[0, 0, 0]	n/a	FR1	1	R1240T
2564.864	1.618	2570682	WORD	n/a	wordpools/wordpool_EN.txt	SWAMP	12	23	[0, 0, 0]	n/a	FR1	1	R1240T
2566.482	0.0	2572300	WORD_OFF	n/a	n/a	SWAMP	12	23	[0, 0, 0]	n/a	FR1	1	R1240T
2566.482	0.0	2572300	DISTRACT_START	n/a	n/a	n/a	-999	23	[0, 0, 0]	n/a	FR1	1	R1240T
2566.482	0.016	2572300	START	n/a	n/a	n/a	-999	23	[-999, -999, -999]	n/a	FR1	1	R1240T
2566.498	8.352	2572316	PROB	8.352	n/a	n/a	-999	23	[5, 6, 7]	17	FR1	1	R1240T
2574.85	3.934	2580667	PROB	3.934	n/a	n/a	-999	23	[6, 1, 6]	13	FR1	1	R1240T
2578.784	5.851	2584601	PROB	5.851	n/a	n/a	-999	23	[2, 6, 2]	10	FR1	1	R1240T
2584.635	9.873	2590451	PROB	9.873	n/a	n/a	-999	23	[9, 8, 6]	23	FR1	1	R1240T
2594.508	0.012	2600324	STOP	n/a	n/a	n/a	-999	23	[-999, -999, -999]	n/a	FR1	1	R1240T
2594.52	0.668	2600336	DISTRACT_END	n/a	n/a	n/a	-999	23	[0, 0, 0]	n/a	FR1	1	R1240T
2595.188	0.516	2601004	RETRIEVAL_ORIENT	n/a	n/a	n/a	-999	23	[0, 0, 0]	n/a	FR1	1	R1240T
2595.704	17.093	2601520	REC_START	n/a	n/a	n/a	-999	23	[0, 0, 0]	n/a	FR1	1	R1240T
2612.797	9.524	2618612	REC_WORD_VV	9.524	n/a	<>	-999	23	[0, 0, 0]	n/a	FR1	1	R1240T
2622.321	0.981	2628135	REC_WORD	0.981	n/a	BLOOM	-999	23	[0, 0, 0]	n/a	FR1	1	R1240T
2623.302	1.571	2629116	REC_WORD_VV	1.571	n/a	<>	-999	23	[0, 0, 0]	n/a	FR1	1	R1240T
2624.873	0.842	2630687	REC_WORD_VV	0.842	n/a	<>	-999	23	[0, 0, 0]	n/a	FR1	1	R1240T
2625.715	8.896	2631529	REC_END	n/a	n/a	n/a	-999	23	[0, 0, 0]	n/a	FR1	1	R1240T
2634.611	0.5	2640424	TRIAL	n/a	n/a	n/a	-999	24	[0, 0, 0]	n/a	FR1	1	R1240T
2635.111	10.428	2640924	COUNTDOWN_START	n/a	n/a	n/a	-999	24	[0, 0, 0]	n/a	FR1	1	R1240T
2645.539	0.007	2651352	COUNTDOWN_END	n/a	n/a	n/a	-999	24	[0, 0, 0]	n/a	FR1	1	R1240T
2645.546	1.601	2651359	ORIENT	n/a	n/a	n/a	-999	24	[0, 0, 0]	n/a	FR1	1	R1240T
2647.147	2.151	2652960	ORIENT_OFF	n/a	n/a	n/a	-999	24	[0, 0, 0]	n/a	FR1	1	R1240T
2649.298	1.617	2655111	WORD	n/a	wordpools/wordpool_EN.txt	CRANE	1	24	[0, 0, 0]	n/a	FR1	1	R1240T
2650.915	0.966	2656727	WORD_OFF	n/a	n/a	CRANE	1	24	[0, 0, 0]	n/a	FR1	1	R1240T
2651.881	1.616	2657693	WORD	n/a	wordpools/wordpool_EN.txt	BANK	2	24	[0, 0, 0]	n/a	FR1	1	R1240T
2653.497	0.967	2659309	WORD_OFF	n/a	n/a	BANK	2	24	[0, 0, 0]	n/a	FR1	1	R1240T
2654.464	1.601	2660276	WORD	n/a	wordpools/wordpool_EN.txt	HILL	3	24	[0, 0, 0]	n/a	FR1	1	R1240T
2656.065	0.967	2661877	WORD_OFF	n/a	n/a	HILL	3	24	[0, 0, 0]	n/a	FR1	1	R1240T
2657.032	1.616	2662844	WORD	n/a	wordpools/wordpool_EN.txt	WEB	4	24	[0, 0, 0]	n/a	FR1	1	R1240T
2658.648	0.984	2664460	WORD_OFF	n/a	n/a	WEB	4	24	[0, 0, 0]	n/a	FR1	1	R1240T
2659.632	1.618	2665444	WORD	n/a	wordpools/wordpool_EN.txt	PARK	5	24	[0, 0, 0]	n/a	FR1	1	R1240T
2661.25	0.9	2667062	WORD_OFF	n/a	n/a	PARK	5	24	[0, 0, 0]	n/a	FR1	1	R1240T
2662.15	1.616	2667962	WORD	n/a	wordpools/wordpool_EN.txt	SNAIL	6	24	[0, 0, 0]	n/a	FR1	1	R1240T
2663.766	0.933	2669578	WORD_OFF	n/a	n/a	SNAIL	6	24	[0, 0, 0]	n/a	FR1	1	R1240T
2664.699	1.618	2670511	WORD	n/a	wordpools/wordpool_EN.txt	BALL	7	24	[0, 0, 0]	n/a	FR1	1	R1240T
2666.317	0.851	2672129	WORD_OFF	n/a	n/a	BALL	7	24	[0, 0, 0]	n/a	FR1	1	R1240T
2667.168	1.615	2672979	WORD	n/a	wordpools/wordpool_EN.txt	SEA	8	24	[0, 0, 0]	n/a	FR1	1	R1240T
2668.783	0.951	2674594	WORD_OFF	n/a	n/a	SEA	8	24	[0, 0, 0]	n/a	FR1	1	R1240T
2669.734	1.618	2675545	WORD	n/a	wordpools/wordpool_EN.txt	BLUSH	9	24	[0, 0, 0]	n/a	FR1	1	R1240T
2671.352	0.766	2677163	WORD_OFF	n/a	n/a	BLUSH	9	24	[0, 0, 0]	n/a	FR1	1	R1240T
2672.118	1.616	2677929	WORD	n/a	wordpools/wordpool_EN.txt	PEARL	10	24	[0, 0, 0]	n/a	FR1	1	R1240T
2673.734	0.967	2679545	WORD_OFF	n/a	n/a	PEARL	10	24	[0, 0, 0]	n/a	FR1	1	R1240T
2674.701	1.618	2680512	WORD	n/a	wordpools/wordpool_EN.txt	FOX	11	24	[0, 0, 0]	n/a	FR1	1	R1240T
2676.319	0.817	2682130	WORD_OFF	n/a	n/a	FOX	11	24	[0, 0, 0]	n/a	FR1	1	R1240T
2677.136	1.616	2682947	WORD	n/a	wordpools/wordpool_EN.txt	HEART	12	24	[0, 0, 0]	n/a	FR1	1	R1240T
2678.752	0.0	2684563	DISTRACT_START	n/a	n/a	n/a	-999	24	[0, 0, 0]	n/a	FR1	1	R1240T
2678.752	0.0	2684563	WORD_OFF	n/a	n/a	HEART	12	24	[0, 0, 0]	n/a	FR1	1	R1240T
2678.752	0.017	2684563	START	n/a	n/a	n/a	-999	24	[-999, -999, -999]	n/a	FR1	1	R1240T
2678.769	7.335	2684580	PROB	7.335	n/a	n/a	-999	24	[6, 9, 1]	16	FR1	1	R1240T
2686.104	6.952	2691914	PROB	6.952	n/a	n/a	-999	24	[2, 9, 6]	17	FR1	1	R1240T
2693.056	3.799	2698866	PROB	3.799	n/a	n/a	-999	24	[6, 6, 3]	15	FR1	1	R1240T
2696.855	3.429	2702665	PROB	3.429	n/a	n/a	-999	24	[3, 2, 2]	7	FR1	1	R1240T
2700.284	0.006	2706093	STOP	n/a	n/a	n/a	-999	24	[-999, -999, -999]	n/a	FR1	1	R1240T
2700.29	0.617	2706099	DISTRACT_END	n/a	n/a	n/a	-999	24	[0, 0, 0]	n/a	FR1	1	R1240T
2700.907	0.516	2706716	RETRIEVAL_ORIENT	n/a	n/a	n/a	-999	24	[0, 0, 0]	n/a	FR1	1	R1240T
2701.423	7.948	2707232	REC_START	n/a	n/a	n/a	-999	24	[0, 0, 0]	n/a	FR1	1	R1240T
2709.371	6.52	2715180	REC_WORD_VV	6.52	n/a	<>	-999	24	[0, 0, 0]	n/a	FR1	1	R1240T
2715.891	6.97	2721699	REC_WORD_VV	6.97	n/a	<>	-999	24	[0, 0, 0]	n/a	FR1	1	R1240T
2722.861	1.144	2728669	REC_WORD	1.144	n/a	PAIN	-999	24	[0, 0, 0]	n/a	FR1	1	R1240T
2724.005	7.429	2729813	REC_WORD_VV	7.429	n/a	<>	-999	24	[0, 0, 0]	n/a	FR1	1	R1240T
2731.434	6.379	2737242	REC_END	n/a	n/a	n/a	-999	24	[0, 0, 0]	n/a	FR1	1	R1240T
2737.813	0.5	2743620	TRIAL	n/a	n/a	n/a	-999	25	[0, 0, 0]	n/a	FR1	1	R1240T
2738.313	10.428	2744120	COUNTDOWN_START	n/a	n/a	n/a	-999	25	[0, 0, 0]	n/a	FR1	1	R1240T
2748.741	0.007	2754547	COUNTDOWN_END	n/a	n/a	n/a	-999	25	[0, 0, 0]	n/a	FR1	1	R1240T
2748.748	1.601	2754554	ORIENT	n/a	n/a	n/a	-999	25	[0, 0, 0]	n/a	FR1	1	R1240T
2750.349	2.116	2756155	ORIENT_OFF	n/a	n/a	n/a	-999	25	[0, 0, 0]	n/a	FR1	1	R1240T
2752.465	1.618	2758271	WORD	n/a	wordpools/wordpool_EN.txt	SMOKE	1	25	[0, 0, 0]	n/a	FR1	1	R1240T
2754.083	0.834	2759889	WORD_OFF	n/a	n/a	SMOKE	1	25	[0, 0, 0]	n/a	FR1	1	R1240T
2754.917	1.616	2760723	WORD	n/a	wordpools/wordpool_EN.txt	CASH	2	25	[0, 0, 0]	n/a	FR1	1	R1240T
2756.533	0.851	2762339	WORD_OFF	n/a	n/a	CASH	2	25	[0, 0, 0]	n/a	FR1	1	R1240T
2757.384	1.617	2763190	WORD	n/a	wordpools/wordpool_EN.txt	SALT	3	25	[0, 0, 0]	n/a	FR1	1	R1240T
2759.001	0.917	2764807	WORD_OFF	n/a	n/a	SALT	3	25	[0, 0, 0]	n/a	FR1	1	R1240T
2759.918	1.616	2765724	WORD	n/a	wordpools/wordpool_EN.txt	HAT	4	25	[0, 0, 0]	n/a	FR1	1	R1240T
2761.534	0.801	2767340	WORD_OFF	n/a	n/a	HAT	4	25	[0, 0, 0]	n/a	FR1	1	R1240T
2762.335	1.617	2768141	WORD	n/a	wordpools/wordpool_EN.txt	WORM	5	25	[0, 0, 0]	n/a	FR1	1	R1240T
2763.952	0.933	2769758	WORD_OFF	n/a	n/a	WORM	5	25	[0, 0, 0]	n/a	FR1	1	R1240T
2764.885	1.616	2770691	WORD	n/a	wordpools/wordpool_EN.txt	WING	6	25	[0, 0, 0]	n/a	FR1	1	R1240T
2766.501	0.801	2772306	WORD_OFF	n/a	n/a	WING	6	25	[0, 0, 0]	n/a	FR1	1	R1240T
2767.302	1.617	2773107	WORD	n/a	wordpools/wordpool_EN.txt	GLOVE	7	25	[0, 0, 0]	n/a	FR1	1	R1240T
2768.919	0.833	2774724	WORD_OFF	n/a	n/a	GLOVE	7	25	[0, 0, 0]	n/a	FR1	1	R1240T
2769.752	1.601	2775557	WORD	n/a	wordpools/wordpool_EN.txt	STAR	8	25	[0, 0, 0]	n/a	FR1	1	R1240T
2771.353	0.784	2777158	WORD_OFF	n/a	n/a	STAR	8	25	[0, 0, 0]	n/a	FR1	1	R1240T
2772.137	1.616	2777942	WORD	n/a	wordpools/wordpool_EN.txt	CORN	9	25	[0, 0, 0]	n/a	FR1	1	R1240T
2773.753	0.95	2779558	WORD_OFF	n/a	n/a	CORN	9	25	[0, 0, 0]	n/a	FR1	1	R1240T
2774.703	1.618	2780508	WORD	n/a	wordpools/wordpool_EN.txt	SEAL	10	25	[0, 0, 0]	n/a	FR1	1	R1240T
2776.321	0.983	2782126	WORD_OFF	n/a	n/a	SEAL	10	25	[0, 0, 0]	n/a	FR1	1	R1240T
2777.304	1.617	2783109	WORD	n/a	wordpools/wordpool_EN.txt	ANT	11	25	[0, 0, 0]	n/a	FR1	1	R1240T
2778.921	0.967	2784726	WORD_OFF	n/a	n/a	ANT	11	25	[0, 0, 0]	n/a	FR1	1	R1240T
2779.888	1.616	2785693	WORD	n/a	wordpools/wordpool_EN.txt	DART	12	25	[0, 0, 0]	n/a	FR1	1	R1240T
2781.504	0.0	2787308	WORD_OFF	n/a	n/a	DART	12	25	[0, 0, 0]	n/a	FR1	1	R1240T
2781.504	0.001	2787308	DISTRACT_START	n/a	n/a	n/a	-999	25	[0, 0, 0]	n/a	FR1	1	R1240T
2781.505	0.016	2787309	START	n/a	n/a	n/a	-999	25	[-999, -999, -999]	n/a	FR1	1	R1240T
2781.521	6.234	2787325	PROB	6.234	n/a	n/a	-999	25	[8, 4, 7]	19	FR1	1	R1240T
2787.755	13.019	2793559	PROB	13.019	n/a	n/a	-999	25	[8, 6, 4]	18	FR1	1	R1240T
2800.774	6.23	2806577	PROB	6.23	n/a	n/a	-999	25	[8, 2, 5]	15	FR1	1	R1240T
2807.004	0.022	2812807	STOP	n/a	n/a	n/a	-999	25	[-999, -999, -999]	n/a	FR1	1	R1240T
2807.026	0.566	2812829	DISTRACT_END	n/a	n/a	n/a	-999	25	[0, 0, 0]	n/a	FR1	1	R1240T
2807.592	0.518	2813395	RETRIEVAL_ORIENT	n/a	n/a	n/a	-999	25	[0, 0, 0]	n/a	FR1	1	R1240T
2808.11	12.689	2813913	REC_START	n/a	n/a	n/a	-999	25	[0, 0, 0]	n/a	FR1	1	R1240T
2820.799	2.46	2826601	REC_WORD_VV	2.46	n/a	<>	-999	25	[0, 0, 0]	n/a	FR1	1	R1240T
2823.259	3.54	2829061	REC_WORD	3.54	n/a	BANK	-999	25	[0, 0, 0]	n/a	FR1	1	R1240T
2826.799	4.242	2832601	REC_WORD	4.242	n/a	HEAT	-999	25	[0, 0, 0]	n/a	FR1	1	R1240T
2831.041	2.213	2836842	REC_WORD_VV	2.213	n/a	<>	-999	25	[0, 0, 0]	n/a	FR1	1	R1240T
2833.254	4.868	2839055	REC_WORD_VV	4.868	n/a	<>	-999	25	[0, 0, 0]	n/a	FR1	1	R1240T
2838.122	0.0	2843923	REC_END	n/a	n/a	n/a	-999	25	[0, 0, 0]	n/a	FR1	1	R1240T
