onset	duration	sample	trial_type	response_time	stim_file	item_name	serialpos	list	test	answer	experiment	session	subject
0.0	0.0	22778	INSTRUCT_START	n/a	n/a	n/a	-999	-999	[0, 0, 0]	n/a	FR1	0	R1204T
0.0	10.979	22778	INSTRUCT_END	n/a	n/a	n/a	-999	-999	[0, 0, 0]	n/a	FR1	0	R1204T
10.979	0.0	33757	SESS_START	n/a	n/a	n/a	-999	-999	[0, 0, 0]	n/a	FR1	0	R1204T
10.979	324.414	33757	MIC_TEST	n/a	n/a	n/a	-999	-999	[0, 0, 0]	n/a	FR1	0	R1204T
335.393	5.37	358152	PRACTICE_TRIAL	n/a	n/a	n/a	-999	-1	[0, 0, 0]	n/a	FR1	0	R1204T
340.763	10.428	363521	COUNTDOWN_START	n/a	n/a	n/a	-999	-1	[0, 0, 0]	n/a	FR1	0	R1204T
351.191	0.007	373949	COUNTDOWN_END	n/a	n/a	n/a	-999	-1	[0, 0, 0]	n/a	FR1	0	R1204T
351.198	1.616	373956	PRACTICE_ORIENT	n/a	n/a	n/a	-999	-1	[0, 0, 0]	n/a	FR1	0	R1204T
352.814	2.217	375572	PRACTICE_ORIENT_OFF	n/a	n/a	n/a	-999	-1	[0, 0, 0]	n/a	FR1	0	R1204T
355.031	1.617	377788	PRACTICE_WORD	n/a	n/a	WATCH	1	-1	[0, 0, 0]	n/a	FR1	0	R1204T
356.648	0.867	379405	PRACTICE_WORD_OFF	n/a	n/a	WATCH	-999	-1	[0, 0, 0]	n/a	FR1	0	R1204T
357.515	1.617	380272	PRACTICE_WORD	n/a	n/a	CHEST	2	-1	[0, 0, 0]	n/a	FR1	0	R1204T
359.132	0.9	381889	PRACTICE_WORD_OFF	n/a	n/a	CHEST	-999	-1	[0, 0, 0]	n/a	FR1	0	R1204T
360.032	1.617	382789	PRACTICE_WORD	n/a	n/a	RING	3	-1	[0, 0, 0]	n/a	FR1	0	R1204T
361.649	0.767	384406	PRACTICE_WORD_OFF	n/a	n/a	RING	-999	-1	[0, 0, 0]	n/a	FR1	0	R1204T
362.416	1.617	385173	PRACTICE_WORD	n/a	n/a	TONGUE	4	-1	[0, 0, 0]	n/a	FR1	0	R1204T
364.033	0.984	386790	PRACTICE_WORD_OFF	n/a	n/a	TONGUE	-999	-1	[0, 0, 0]	n/a	FR1	0	R1204T
365.017	1.617	387774	PRACTICE_WORD	n/a	n/a	CAMEL	5	-1	[0, 0, 0]	n/a	FR1	0	R1204T
366.634	0.85	389391	PRACTICE_WORD_OFF	n/a	n/a	CAMEL	-999	-1	[0, 0, 0]	n/a	FR1	0	R1204T
367.484	1.617	390241	PRACTICE_WORD	n/a	n/a	FLOOD	6	-1	[0, 0, 0]	n/a	FR1	0	R1204T
369.101	0.817	391858	PRACTICE_WORD_OFF	n/a	n/a	FLOOD	-999	-1	[0, 0, 0]	n/a	FR1	0	R1204T
369.918	1.617	392675	PRACTICE_WORD	n/a	n/a	ATTIC	7	-1	[0, 0, 0]	n/a	FR1	0	R1204T
371.535	0.817	394291	PRACTICE_WORD_OFF	n/a	n/a	ATTIC	-999	-1	[0, 0, 0]	n/a	FR1	0	R1204T
372.352	1.616	395108	PRACTICE_WORD	n/a	n/a	WAGON	8	-1	[0, 0, 0]	n/a	FR1	0	R1204T
373.968	0.767	396724	PRACTICE_WORD_OFF	n/a	n/a	WAGON	-999	-1	[0, 0, 0]	n/a	FR1	0	R1204T
374.735	1.618	397491	PRACTICE_WORD	n/a	n/a	IRON	9	-1	[0, 0, 0]	n/a	FR1	0	R1204T
376.353	0.934	399109	PRACTICE_WORD_OFF	n/a	n/a	IRON	-999	-1	[0, 0, 0]	n/a	FR1	0	R1204T
377.287	1.615	400043	PRACTICE_WORD	n/a	n/a	COTTON	10	-1	[0, 0, 0]	n/a	FR1	0	R1204T
378.902	0.867	401658	PRACTICE_WORD_OFF	n/a	n/a	COTTON	-999	-1	[0, 0, 0]	n/a	FR1	0	R1204T
379.769	1.601	402525	PRACTICE_WORD	n/a	n/a	RHINO	11	-1	[0, 0, 0]	n/a	FR1	0	R1204T
381.37	0.984	404126	PRACTICE_WORD_OFF	n/a	n/a	RHINO	-999	-1	[0, 0, 0]	n/a	FR1	0	R1204T
382.354	1.616	405110	PRACTICE_WORD	n/a	n/a	BEAM	12	-1	[0, 0, 0]	n/a	FR1	0	R1204T
383.97	0.0	406726	PRACTICE_WORD_OFF	n/a	n/a	BEAM	-999	-1	[0, 0, 0]	n/a	FR1	0	R1204T
383.97	0.001	406726	DISTRACT_START	n/a	n/a	n/a	-999	-1	[0, 0, 0]	n/a	FR1	0	R1204T
383.971	0.016	406727	START	n/a	n/a	n/a	-999	-1	[-999, -999, -999]	n/a	FR1	0	R1204T
383.987	12.952	406743	PROB	12.952	n/a	n/a	-999	-1	[1, 9, 3]	13	FR1	0	R1204T
396.939	7.537	419694	PROB	7.537	n/a	n/a	-999	-1	[3, 1, 7]	11	FR1	0	R1204T
404.476	0.014	427231	STOP	n/a	n/a	n/a	-999	-1	[-999, -999, -999]	n/a	FR1	0	R1204T
404.49	0.601	427245	DISTRACT_END	n/a	n/a	n/a	-999	-1	[0, 0, 0]	n/a	FR1	0	R1204T
405.091	0.52	427845	RETRIEVAL_ORIENT	n/a	n/a	n/a	-999	-1	[0, 0, 0]	n/a	FR1	0	R1204T
405.611	30.008	428365	PRACTICE_REC_START	n/a	n/a	n/a	-999	-1	[0, 0, 0]	n/a	FR1	0	R1204T
435.619	32.617	458372	PRACTICE_REC_END	n/a	n/a	n/a	-999	-1	[0, 0, 0]	n/a	FR1	0	R1204T
468.236	0.5	490987	TRIAL	n/a	n/a	n/a	-999	1	[0, 0, 0]	n/a	FR1	0	R1204T
468.736	10.428	491487	COUNTDOWN_START	n/a	n/a	n/a	-999	1	[0, 0, 0]	n/a	FR1	0	R1204T
479.164	0.007	501914	COUNTDOWN_END	n/a	n/a	n/a	-999	1	[0, 0, 0]	n/a	FR1	0	R1204T
479.171	1.617	501921	ORIENT	n/a	n/a	n/a	-999	1	[0, 0, 0]	n/a	FR1	0	R1204T
480.788	2.05	503538	ORIENT_OFF	n/a	n/a	n/a	-999	1	[0, 0, 0]	n/a	FR1	0	R1204T
482.838	1.617	505588	WORD	n/a	wordpools/wordpool_EN.txt	GOAT	1	1	[0, 0, 0]	n/a	FR1	0	R1204T
484.455	0.918	507205	WORD_OFF	n/a	n/a	GOAT	1	1	[0, 0, 0]	n/a	FR1	0	R1204T
485.373	1.616	508123	WORD	n/a	wordpools/wordpool_EN.txt	CAR	2	1	[0, 0, 0]	n/a	FR1	0	R1204T
486.989	0.783	509739	WORD_OFF	n/a	n/a	CAR	2	1	[0, 0, 0]	n/a	FR1	0	R1204T
487.772	1.617	510522	WORD	n/a	wordpools/wordpool_EN.txt	SEAT	3	1	[0, 0, 0]	n/a	FR1	0	R1204T
489.389	0.935	512138	WORD_OFF	n/a	n/a	SEAT	3	1	[0, 0, 0]	n/a	FR1	0	R1204T
490.324	1.616	513073	WORD	n/a	wordpools/wordpool_EN.txt	SWAMP	4	1	[0, 0, 0]	n/a	FR1	0	R1204T
491.94	1.0	514689	WORD_OFF	n/a	n/a	SWAMP	4	1	[0, 0, 0]	n/a	FR1	0	R1204T
492.94	1.617	515689	WORD	n/a	wordpools/wordpool_EN.txt	SALT	5	1	[0, 0, 0]	n/a	FR1	0	R1204T
494.557	0.967	517306	WORD_OFF	n/a	n/a	SALT	5	1	[0, 0, 0]	n/a	FR1	0	R1204T
495.524	1.617	518273	WORD	n/a	wordpools/wordpool_EN.txt	CAGE	6	1	[0, 0, 0]	n/a	FR1	0	R1204T
497.141	0.933	519890	WORD_OFF	n/a	n/a	CAGE	6	1	[0, 0, 0]	n/a	FR1	0	R1204T
498.074	1.617	520823	WORD	n/a	wordpools/wordpool_EN.txt	LAMP	7	1	[0, 0, 0]	n/a	FR1	0	R1204T
499.691	0.984	522440	WORD_OFF	n/a	n/a	LAMP	7	1	[0, 0, 0]	n/a	FR1	0	R1204T
500.675	1.618	523424	WORD	n/a	wordpools/wordpool_EN.txt	STOOL	8	1	[0, 0, 0]	n/a	FR1	0	R1204T
502.293	0.915	525042	WORD_OFF	n/a	n/a	STOOL	8	1	[0, 0, 0]	n/a	FR1	0	R1204T
503.208	1.617	525957	WORD	n/a	wordpools/wordpool_EN.txt	PEA	9	1	[0, 0, 0]	n/a	FR1	0	R1204T
504.825	0.917	527574	WORD_OFF	n/a	n/a	PEA	9	1	[0, 0, 0]	n/a	FR1	0	R1204T
505.742	1.601	528491	WORD	n/a	wordpools/wordpool_EN.txt	STOVE	10	1	[0, 0, 0]	n/a	FR1	0	R1204T
507.343	0.901	530091	WORD_OFF	n/a	n/a	STOVE	10	1	[0, 0, 0]	n/a	FR1	0	R1204T
508.244	1.616	530992	WORD	n/a	wordpools/wordpool_EN.txt	OAK	11	1	[0, 0, 0]	n/a	FR1	0	R1204T
509.86	0.9	532608	WORD_OFF	n/a	n/a	OAK	11	1	[0, 0, 0]	n/a	FR1	0	R1204T
510.76	1.618	533508	WORD	n/a	wordpools/wordpool_EN.txt	CAPE	12	1	[0, 0, 0]	n/a	FR1	0	R1204T
512.378	0.0	535126	WORD_OFF	n/a	n/a	CAPE	12	1	[0, 0, 0]	n/a	FR1	0	R1204T
512.378	0.0	535126	DISTRACT_START	n/a	n/a	n/a	-999	1	[0, 0, 0]	n/a	FR1	0	R1204T
512.378	0.015	535126	START	n/a	n/a	n/a	-999	1	[-999, -999, -999]	n/a	FR1	0	R1204T
512.393	7.452	535141	PROB	7.452	n/a	n/a	-999	1	[3, 3, 5]	11	FR1	0	R1204T
519.845	4.435	542593	PROB	4.435	n/a	n/a	-999	1	[7, 8, 1]	16	FR1	0	R1204T
524.28	4.45	547027	PROB	4.45	n/a	n/a	-999	1	[1, 8, 9]	18	FR1	0	R1204T
528.73	3.873	551477	PROB	3.873	n/a	n/a	-999	1	[1, 3, 7]	11	FR1	0	R1204T
532.603	0.011	555350	STOP	n/a	n/a	n/a	-999	1	[-999, -999, -999]	n/a	FR1	0	R1204T
532.614	0.618	555361	DISTRACT_END	n/a	n/a	n/a	-999	1	[0, 0, 0]	n/a	FR1	0	R1204T
533.232	0.516	555979	RETRIEVAL_ORIENT	n/a	n/a	n/a	-999	1	[0, 0, 0]	n/a	FR1	0	R1204T
533.748	1.348	556495	REC_START	n/a	n/a	n/a	-999	1	[0, 0, 0]	n/a	FR1	0	R1204T
535.096	0.562	557843	REC_WORD	0.562	n/a	LAMP	-999	1	[0, 0, 0]	n/a	FR1	0	R1204T
535.658	1.068	558405	REC_WORD	1.068	n/a	STOOL	-999	1	[0, 0, 0]	n/a	FR1	0	R1204T
536.726	1.71	559473	REC_WORD	1.71	n/a	PEA	-999	1	[0, 0, 0]	n/a	FR1	0	R1204T
538.436	0.783	561183	REC_WORD	0.783	n/a	GOAT	-999	1	[0, 0, 0]	n/a	FR1	0	R1204T
539.219	2.996	561966	REC_WORD	2.996	n/a	CAR	-999	1	[0, 0, 0]	n/a	FR1	0	R1204T
542.215	0.402	564961	REC_WORD_VV	0.402	n/a	<>	-999	1	[0, 0, 0]	n/a	FR1	0	R1204T
542.617	0.996	565363	REC_WORD	0.996	n/a	STOVE	-999	1	[0, 0, 0]	n/a	FR1	0	R1204T
543.613	5.371	566359	REC_WORD_VV	5.371	n/a	<>	-999	1	[0, 0, 0]	n/a	FR1	0	R1204T
548.984	14.775	571730	REC_WORD_VV	14.775	n/a	<>	-999	1	[0, 0, 0]	n/a	FR1	0	R1204T
563.759	6.778	586504	REC_END	n/a	n/a	n/a	-999	1	[0, 0, 0]	n/a	FR1	0	R1204T
570.537	0.5	593282	TRIAL	n/a	n/a	n/a	-999	2	[0, 0, 0]	n/a	FR1	0	R1204T
571.037	10.428	593782	COUNTDOWN_START	n/a	n/a	n/a	-999	2	[0, 0, 0]	n/a	FR1	0	R1204T
581.465	0.008	604209	COUNTDOWN_END	n/a	n/a	n/a	-999	2	[0, 0, 0]	n/a	FR1	0	R1204T
581.473	1.617	604217	ORIENT	n/a	n/a	n/a	-999	2	[0, 0, 0]	n/a	FR1	0	R1204T
583.09	2.217	605834	ORIENT_OFF	n/a	n/a	n/a	-999	2	[0, 0, 0]	n/a	FR1	0	R1204T
585.307	1.617	608051	WORD	n/a	wordpools/wordpool_EN.txt	VASE	1	2	[0, 0, 0]	n/a	FR1	0	R1204T
586.924	0.916	609668	WORD_OFF	n/a	n/a	VASE	1	2	[0, 0, 0]	n/a	FR1	0	R1204T
587.84	1.617	610584	WORD	n/a	wordpools/wordpool_EN.txt	FORT	2	2	[0, 0, 0]	n/a	FR1	0	R1204T
589.457	0.852	612201	WORD_OFF	n/a	n/a	FORT	2	2	[0, 0, 0]	n/a	FR1	0	R1204T
590.309	1.615	613053	WORD	n/a	wordpools/wordpool_EN.txt	SHARK	3	2	[0, 0, 0]	n/a	FR1	0	R1204T
591.924	0.784	614667	WORD_OFF	n/a	n/a	SHARK	3	2	[0, 0, 0]	n/a	FR1	0	R1204T
592.708	1.601	615451	WORD	n/a	wordpools/wordpool_EN.txt	TEETH	4	2	[0, 0, 0]	n/a	FR1	0	R1204T
594.309	0.967	617052	WORD_OFF	n/a	n/a	TEETH	4	2	[0, 0, 0]	n/a	FR1	0	R1204T
595.276	1.616	618019	WORD	n/a	wordpools/wordpool_EN.txt	PLATE	5	2	[0, 0, 0]	n/a	FR1	0	R1204T
596.892	0.917	619635	WORD_OFF	n/a	n/a	PLATE	5	2	[0, 0, 0]	n/a	FR1	0	R1204T
597.809	1.617	620552	WORD	n/a	wordpools/wordpool_EN.txt	POND	6	2	[0, 0, 0]	n/a	FR1	0	R1204T
599.426	0.951	622169	WORD_OFF	n/a	n/a	POND	6	2	[0, 0, 0]	n/a	FR1	0	R1204T
600.377	1.616	623120	WORD	n/a	wordpools/wordpool_EN.txt	LEG	7	2	[0, 0, 0]	n/a	FR1	0	R1204T
601.993	0.817	624736	WORD_OFF	n/a	n/a	LEG	7	2	[0, 0, 0]	n/a	FR1	0	R1204T
602.81	1.617	625553	WORD	n/a	wordpools/wordpool_EN.txt	GEESE	8	2	[0, 0, 0]	n/a	FR1	0	R1204T
604.427	1.0	627170	WORD_OFF	n/a	n/a	GEESE	8	2	[0, 0, 0]	n/a	FR1	0	R1204T
605.427	1.617	628170	WORD	n/a	wordpools/wordpool_EN.txt	PIE	9	2	[0, 0, 0]	n/a	FR1	0	R1204T
607.044	0.934	629787	WORD_OFF	n/a	n/a	PIE	9	2	[0, 0, 0]	n/a	FR1	0	R1204T
607.978	1.616	630720	WORD	n/a	wordpools/wordpool_EN.txt	RUG	10	2	[0, 0, 0]	n/a	FR1	0	R1204T
609.594	0.901	632336	WORD_OFF	n/a	n/a	RUG	10	2	[0, 0, 0]	n/a	FR1	0	R1204T
610.495	1.616	633237	WORD	n/a	wordpools/wordpool_EN.txt	DITCH	11	2	[0, 0, 0]	n/a	FR1	0	R1204T
612.111	0.984	634853	WORD_OFF	n/a	n/a	DITCH	11	2	[0, 0, 0]	n/a	FR1	0	R1204T
613.095	1.617	635837	WORD	n/a	wordpools/wordpool_EN.txt	PALM	12	2	[0, 0, 0]	n/a	FR1	0	R1204T
614.712	0.0	637454	WORD_OFF	n/a	n/a	PALM	12	2	[0, 0, 0]	n/a	FR1	0	R1204T
614.712	0.001	637454	DISTRACT_START	n/a	n/a	n/a	-999	2	[0, 0, 0]	n/a	FR1	0	R1204T
614.713	0.016	637455	START	n/a	n/a	n/a	-999	2	[-999, -999, -999]	n/a	FR1	0	R1204T
614.729	6.034	637471	PROB	6.034	n/a	n/a	-999	2	[3, 6, 4]	13	FR1	0	R1204T
620.763	4.234	643505	PROB	4.234	n/a	n/a	-999	2	[3, 6, 6]	15	FR1	0	R1204T
624.997	4.401	647738	PROB	4.401	n/a	n/a	-999	2	[2, 7, 9]	18	FR1	0	R1204T
629.398	5.589	652139	PROB	5.589	n/a	n/a	-999	2	[2, 1, 3]	6	FR1	0	R1204T
634.987	0.012	657728	STOP	n/a	n/a	n/a	-999	2	[-999, -999, -999]	n/a	FR1	0	R1204T
634.999	0.667	657740	DISTRACT_END	n/a	n/a	n/a	-999	2	[0, 0, 0]	n/a	FR1	0	R1204T
635.666	0.517	658407	RETRIEVAL_ORIENT	n/a	n/a	n/a	-999	2	[0, 0, 0]	n/a	FR1	0	R1204T
636.183	4.099	658924	REC_START	n/a	n/a	n/a	-999	2	[0, 0, 0]	n/a	FR1	0	R1204T
640.282	0.804	663023	REC_WORD	0.804	n/a	GEESE	-999	2	[0, 0, 0]	n/a	FR1	0	R1204T
641.086	0.439	663827	REC_WORD	0.439	n/a	POND	-999	2	[0, 0, 0]	n/a	FR1	0	R1204T
641.525	0.837	664265	REC_WORD	0.837	n/a	SHARK	-999	2	[0, 0, 0]	n/a	FR1	0	R1204T
642.362	5.799	665102	REC_WORD	5.799	n/a	TEETH	-999	2	[0, 0, 0]	n/a	FR1	0	R1204T
648.161	2.488	670901	REC_WORD_VV	2.488	n/a	<>	-999	2	[0, 0, 0]	n/a	FR1	0	R1204T
650.649	6.06	673389	REC_WORD_VV	6.06	n/a	<>	-999	2	[0, 0, 0]	n/a	FR1	0	R1204T
656.709	3.56	679449	REC_WORD	3.56	n/a	LEG	-999	2	[0, 0, 0]	n/a	FR1	0	R1204T
660.269	3.089	683008	REC_WORD_VV	3.089	n/a	<>	-999	2	[0, 0, 0]	n/a	FR1	0	R1204T
663.358	2.835	686097	REC_WORD_VV	2.835	n/a	<>	-999	2	[0, 0, 0]	n/a	FR1	0	R1204T
666.193	6.53	688932	REC_END	n/a	n/a	n/a	-999	2	[0, 0, 0]	n/a	FR1	0	R1204T
672.723	0.5	695462	TRIAL	n/a	n/a	n/a	-999	3	[0, 0, 0]	n/a	FR1	0	R1204T
673.223	10.428	695962	COUNTDOWN_START	n/a	n/a	n/a	-999	3	[0, 0, 0]	n/a	FR1	0	R1204T
683.651	0.007	706389	COUNTDOWN_END	n/a	n/a	n/a	-999	3	[0, 0, 0]	n/a	FR1	0	R1204T
683.658	1.618	706396	ORIENT	n/a	n/a	n/a	-999	3	[0, 0, 0]	n/a	FR1	0	R1204T
685.276	2.033	708014	ORIENT_OFF	n/a	n/a	n/a	-999	3	[0, 0, 0]	n/a	FR1	0	R1204T
687.309	1.616	710047	WORD	n/a	wordpools/wordpool_EN.txt	SCHOOL	1	3	[0, 0, 0]	n/a	FR1	0	R1204T
688.925	0.951	711663	WORD_OFF	n/a	n/a	SCHOOL	1	3	[0, 0, 0]	n/a	FR1	0	R1204T
689.876	1.617	712614	WORD	n/a	wordpools/wordpool_EN.txt	BREAD	2	3	[0, 0, 0]	n/a	FR1	0	R1204T
691.493	0.916	714231	WORD_OFF	n/a	n/a	BREAD	2	3	[0, 0, 0]	n/a	FR1	0	R1204T
692.409	1.617	715146	WORD	n/a	wordpools/wordpool_EN.txt	CANE	3	3	[0, 0, 0]	n/a	FR1	0	R1204T
694.026	0.834	716763	WORD_OFF	n/a	n/a	CANE	3	3	[0, 0, 0]	n/a	FR1	0	R1204T
694.86	1.617	717597	WORD	n/a	wordpools/wordpool_EN.txt	FORK	4	3	[0, 0, 0]	n/a	FR1	0	R1204T
696.477	1.0	719214	WORD_OFF	n/a	n/a	FORK	4	3	[0, 0, 0]	n/a	FR1	0	R1204T
697.477	1.617	720214	WORD	n/a	wordpools/wordpool_EN.txt	DUCK	5	3	[0, 0, 0]	n/a	FR1	0	R1204T
699.094	0.85	721831	WORD_OFF	n/a	n/a	DUCK	5	3	[0, 0, 0]	n/a	FR1	0	R1204T
699.944	1.617	722681	WORD	n/a	wordpools/wordpool_EN.txt	BOY	6	3	[0, 0, 0]	n/a	FR1	0	R1204T
701.561	0.934	724298	WORD_OFF	n/a	n/a	BOY	6	3	[0, 0, 0]	n/a	FR1	0	R1204T
702.495	1.617	725232	WORD	n/a	wordpools/wordpool_EN.txt	BATH	7	3	[0, 0, 0]	n/a	FR1	0	R1204T
704.112	1.0	726849	WORD_OFF	n/a	n/a	BATH	7	3	[0, 0, 0]	n/a	FR1	0	R1204T
705.112	1.616	727849	WORD	n/a	wordpools/wordpool_EN.txt	SLUSH	8	3	[0, 0, 0]	n/a	FR1	0	R1204T
706.728	0.934	729465	WORD_OFF	n/a	n/a	SLUSH	8	3	[0, 0, 0]	n/a	FR1	0	R1204T
707.662	1.618	730399	WORD	n/a	wordpools/wordpool_EN.txt	LOCK	9	3	[0, 0, 0]	n/a	FR1	0	R1204T
709.28	0.799	732016	WORD_OFF	n/a	n/a	LOCK	9	3	[0, 0, 0]	n/a	FR1	0	R1204T
710.079	1.617	732815	WORD	n/a	wordpools/wordpool_EN.txt	DRESS	10	3	[0, 0, 0]	n/a	FR1	0	R1204T
711.696	0.95	734432	WORD_OFF	n/a	n/a	DRESS	10	3	[0, 0, 0]	n/a	FR1	0	R1204T
712.646	1.618	735382	WORD	n/a	wordpools/wordpool_EN.txt	FOOT	11	3	[0, 0, 0]	n/a	FR1	0	R1204T
714.264	0.816	737000	WORD_OFF	n/a	n/a	FOOT	11	3	[0, 0, 0]	n/a	FR1	0	R1204T
715.08	1.617	737816	WORD	n/a	wordpools/wordpool_EN.txt	ROCK	12	3	[0, 0, 0]	n/a	FR1	0	R1204T
716.697	0.0	739433	WORD_OFF	n/a	n/a	ROCK	12	3	[0, 0, 0]	n/a	FR1	0	R1204T
716.697	0.001	739433	DISTRACT_START	n/a	n/a	n/a	-999	3	[0, 0, 0]	n/a	FR1	0	R1204T
716.698	0.016	739434	START	n/a	n/a	n/a	-999	3	[-999, -999, -999]	n/a	FR1	0	R1204T
716.714	5.585	739450	PROB	5.585	n/a	n/a	-999	3	[4, 3, 6]	13	FR1	0	R1204T
722.299	3.817	745035	PROB	3.817	n/a	n/a	-999	3	[4, 8, 3]	15	FR1	0	R1204T
726.116	3.201	748851	PROB	3.201	n/a	n/a	-999	3	[1, 6, 2]	9	FR1	0	R1204T
729.317	5.233	752052	PROB	5.233	n/a	n/a	-999	3	[3, 4, 5]	12	FR1	0	R1204T
734.55	4.134	757285	PROB	4.134	n/a	n/a	-999	3	[2, 9, 2]	13	FR1	0	R1204T
738.684	0.017	761419	STOP	n/a	n/a	n/a	-999	3	[-999, -999, -999]	n/a	FR1	0	R1204T
738.701	0.551	761436	DISTRACT_END	n/a	n/a	n/a	-999	3	[0, 0, 0]	n/a	FR1	0	R1204T
739.252	0.517	761987	RETRIEVAL_ORIENT	n/a	n/a	n/a	-999	3	[0, 0, 0]	n/a	FR1	0	R1204T
739.769	1.795	762504	REC_START	n/a	n/a	n/a	-999	3	[0, 0, 0]	n/a	FR1	0	R1204T
741.564	0.379	764299	REC_WORD_VV	0.379	n/a	<>	-999	3	[0, 0, 0]	n/a	FR1	0	R1204T
741.943	0.945	764678	REC_WORD	0.945	n/a	SCHOOL	-999	3	[0, 0, 0]	n/a	FR1	0	R1204T
742.888	0.673	765623	REC_WORD	0.673	n/a	BOY	-999	3	[0, 0, 0]	n/a	FR1	0	R1204T
743.561	2.612	766295	REC_WORD	2.612	n/a	BATH	-999	3	[0, 0, 0]	n/a	FR1	0	R1204T
746.173	2.264	768907	REC_WORD_VV	2.264	n/a	<>	-999	3	[0, 0, 0]	n/a	FR1	0	R1204T
748.437	9.787	771171	REC_WORD_VV	9.787	n/a	<>	-999	3	[0, 0, 0]	n/a	FR1	0	R1204T
758.224	11.556	780958	REC_WORD_VV	11.556	n/a	<>	-999	3	[0, 0, 0]	n/a	FR1	0	R1204T
769.78	6.546	792513	REC_END	n/a	n/a	n/a	-999	3	[0, 0, 0]	n/a	FR1	0	R1204T
776.326	0.5	799059	TRIAL	n/a	n/a	n/a	-999	4	[0, 0, 0]	n/a	FR1	0	R1204T
776.826	10.428	799559	COUNTDOWN_START	n/a	n/a	n/a	-999	4	[0, 0, 0]	n/a	FR1	0	R1204T
787.254	0.007	809986	COUNTDOWN_END	n/a	n/a	n/a	-999	4	[0, 0, 0]	n/a	FR1	0	R1204T
787.261	1.616	809993	ORIENT	n/a	n/a	n/a	-999	4	[0, 0, 0]	n/a	FR1	0	R1204T
788.877	2.1	811609	ORIENT_OFF	n/a	n/a	n/a	-999	4	[0, 0, 0]	n/a	FR1	0	R1204T
790.977	1.617	813709	WORD	n/a	wordpools/wordpool_EN.txt	YARD	1	4	[0, 0, 0]	n/a	FR1	0	R1204T
792.594	1.0	815326	WORD_OFF	n/a	n/a	YARD	1	4	[0, 0, 0]	n/a	FR1	0	R1204T
793.594	1.618	816326	WORD	n/a	wordpools/wordpool_EN.txt	BADGE	2	4	[0, 0, 0]	n/a	FR1	0	R1204T
795.212	0.8	817943	WORD_OFF	n/a	n/a	BADGE	2	4	[0, 0, 0]	n/a	FR1	0	R1204T
796.012	1.616	818743	WORD	n/a	wordpools/wordpool_EN.txt	ICE	3	4	[0, 0, 0]	n/a	FR1	0	R1204T
797.628	0.934	820359	WORD_OFF	n/a	n/a	ICE	3	4	[0, 0, 0]	n/a	FR1	0	R1204T
798.562	1.617	821293	WORD	n/a	wordpools/wordpool_EN.txt	FLUTE	4	4	[0, 0, 0]	n/a	FR1	0	R1204T
800.179	0.9	822910	WORD_OFF	n/a	n/a	FLUTE	4	4	[0, 0, 0]	n/a	FR1	0	R1204T
801.079	1.617	823810	WORD	n/a	wordpools/wordpool_EN.txt	SUIT	5	4	[0, 0, 0]	n/a	FR1	0	R1204T
802.696	0.834	825427	WORD_OFF	n/a	n/a	SUIT	5	4	[0, 0, 0]	n/a	FR1	0	R1204T
803.53	1.617	826261	WORD	n/a	wordpools/wordpool_EN.txt	SLEEVE	6	4	[0, 0, 0]	n/a	FR1	0	R1204T
805.147	0.95	827878	WORD_OFF	n/a	n/a	SLEEVE	6	4	[0, 0, 0]	n/a	FR1	0	R1204T
806.097	1.617	828828	WORD	n/a	wordpools/wordpool_EN.txt	SOCK	7	4	[0, 0, 0]	n/a	FR1	0	R1204T
807.714	0.85	830445	WORD_OFF	n/a	n/a	SOCK	7	4	[0, 0, 0]	n/a	FR1	0	R1204T
808.564	1.617	831295	WORD	n/a	wordpools/wordpool_EN.txt	PET	8	4	[0, 0, 0]	n/a	FR1	0	R1204T
810.181	0.917	832912	WORD_OFF	n/a	n/a	PET	8	4	[0, 0, 0]	n/a	FR1	0	R1204T
811.098	1.617	833828	WORD	n/a	wordpools/wordpool_EN.txt	SOAP	9	4	[0, 0, 0]	n/a	FR1	0	R1204T
812.715	0.816	835445	WORD_OFF	n/a	n/a	SOAP	9	4	[0, 0, 0]	n/a	FR1	0	R1204T
813.531	1.617	836261	WORD	n/a	wordpools/wordpool_EN.txt	BOOT	10	4	[0, 0, 0]	n/a	FR1	0	R1204T
815.148	1.017	837878	WORD_OFF	n/a	n/a	BOOT	10	4	[0, 0, 0]	n/a	FR1	0	R1204T
816.165	1.617	838895	WORD	n/a	wordpools/wordpool_EN.txt	DOG	11	4	[0, 0, 0]	n/a	FR1	0	R1204T
817.782	0.867	840512	WORD_OFF	n/a	n/a	DOG	11	4	[0, 0, 0]	n/a	FR1	0	R1204T
818.649	1.618	841379	WORD	n/a	wordpools/wordpool_EN.txt	GUARD	12	4	[0, 0, 0]	n/a	FR1	0	R1204T
820.267	0.0	842997	WORD_OFF	n/a	n/a	GUARD	12	4	[0, 0, 0]	n/a	FR1	0	R1204T
820.267	0.0	842997	DISTRACT_START	n/a	n/a	n/a	-999	4	[0, 0, 0]	n/a	FR1	0	R1204T
820.267	0.017	842997	START	n/a	n/a	n/a	-999	4	[-999, -999, -999]	n/a	FR1	0	R1204T
820.284	7.2	843014	PROB	7.2	n/a	n/a	-999	4	[6, 6, 7]	19	FR1	0	R1204T
827.484	3.684	850214	PROB	3.684	n/a	n/a	-999	4	[7, 3, 5]	15	FR1	0	R1204T
831.168	3.951	853897	PROB	3.951	n/a	n/a	-999	4	[2, 6, 8]	16	FR1	0	R1204T
835.119	2.667	857848	PROB	2.667	n/a	n/a	-999	4	[1, 1, 4]	6	FR1	0	R1204T
837.786	3.882	860515	PROB	3.882	n/a	n/a	-999	4	[2, 3, 1]	6	FR1	0	R1204T
841.668	0.018	864397	STOP	n/a	n/a	n/a	-999	4	[-999, -999, -999]	n/a	FR1	0	R1204T
841.686	0.685	864415	DISTRACT_END	n/a	n/a	n/a	-999	4	[0, 0, 0]	n/a	FR1	0	R1204T
842.371	0.517	865100	RETRIEVAL_ORIENT	n/a	n/a	n/a	-999	4	[0, 0, 0]	n/a	FR1	0	R1204T
842.888	1.586	865617	REC_START	n/a	n/a	n/a	-999	4	[0, 0, 0]	n/a	FR1	0	R1204T
844.474	0.83	867203	REC_WORD_VV	0.83	n/a	<>	-999	4	[0, 0, 0]	n/a	FR1	0	R1204T
845.304	0.568	868032	REC_WORD	0.568	n/a	BOOT	-999	4	[0, 0, 0]	n/a	FR1	0	R1204T
845.872	1.941	868600	REC_WORD	1.941	n/a	SOCK	-999	4	[0, 0, 0]	n/a	FR1	0	R1204T
847.813	3.41	870541	REC_WORD	3.41	n/a	SLEEVE	-999	4	[0, 0, 0]	n/a	FR1	0	R1204T
851.223	0.486	873951	REC_WORD_VV	0.486	n/a	<>	-999	4	[0, 0, 0]	n/a	FR1	0	R1204T
851.709	2.777	874437	REC_WORD	2.777	n/a	PET	-999	4	[0, 0, 0]	n/a	FR1	0	R1204T
854.486	4.788	877214	REC_WORD_VV	4.788	n/a	<>	-999	4	[0, 0, 0]	n/a	FR1	0	R1204T
859.274	2.49	882002	REC_WORD	2.49	n/a	DOG	-999	4	[0, 0, 0]	n/a	FR1	0	R1204T
861.764	11.135	884491	REC_WORD_VV	11.135	n/a	<>	-999	4	[0, 0, 0]	n/a	FR1	0	R1204T
872.899	134.452	895626	REC_END	n/a	n/a	n/a	-999	4	[0, 0, 0]	n/a	FR1	0	R1204T
1007.351	0.5	1030070	TRIAL	n/a	n/a	n/a	-999	5	[0, 0, 0]	n/a	FR1	0	R1204T
1007.851	10.428	1030570	COUNTDOWN_START	n/a	n/a	n/a	-999	5	[0, 0, 0]	n/a	FR1	0	R1204T
1018.279	0.007	1040997	COUNTDOWN_END	n/a	n/a	n/a	-999	5	[0, 0, 0]	n/a	FR1	0	R1204T
1018.286	1.616	1041004	ORIENT	n/a	n/a	n/a	-999	5	[0, 0, 0]	n/a	FR1	0	R1204T
1019.902	2.2	1042620	ORIENT_OFF	n/a	n/a	n/a	-999	5	[0, 0, 0]	n/a	FR1	0	R1204T
1022.102	1.618	1044820	WORD	n/a	wordpools/wordpool_EN.txt	WHEEL	1	5	[0, 0, 0]	n/a	FR1	0	R1204T
1023.72	0.8	1046438	WORD_OFF	n/a	n/a	WHEEL	1	5	[0, 0, 0]	n/a	FR1	0	R1204T
1024.52	1.617	1047238	WORD	n/a	wordpools/wordpool_EN.txt	RAKE	2	5	[0, 0, 0]	n/a	FR1	0	R1204T
1026.137	0.933	1048855	WORD_OFF	n/a	n/a	RAKE	2	5	[0, 0, 0]	n/a	FR1	0	R1204T
1027.07	1.617	1049788	WORD	n/a	wordpools/wordpool_EN.txt	STONE	3	5	[0, 0, 0]	n/a	FR1	0	R1204T
1028.687	0.767	1051405	WORD_OFF	n/a	n/a	STONE	3	5	[0, 0, 0]	n/a	FR1	0	R1204T
1029.454	1.617	1052172	WORD	n/a	wordpools/wordpool_EN.txt	SEAL	4	5	[0, 0, 0]	n/a	FR1	0	R1204T
1031.071	0.8	1053788	WORD_OFF	n/a	n/a	SEAL	4	5	[0, 0, 0]	n/a	FR1	0	R1204T
1031.871	1.617	1054588	WORD	n/a	wordpools/wordpool_EN.txt	BIRD	5	5	[0, 0, 0]	n/a	FR1	0	R1204T
1033.488	0.967	1056205	WORD_OFF	n/a	n/a	BIRD	5	5	[0, 0, 0]	n/a	FR1	0	R1204T
1034.455	1.617	1057172	WORD	n/a	wordpools/wordpool_EN.txt	CLOWN	6	5	[0, 0, 0]	n/a	FR1	0	R1204T
1036.072	0.8	1058789	WORD_OFF	n/a	n/a	CLOWN	6	5	[0, 0, 0]	n/a	FR1	0	R1204T
1036.872	1.617	1059589	WORD	n/a	wordpools/wordpool_EN.txt	HEART	7	5	[0, 0, 0]	n/a	FR1	0	R1204T
1038.489	0.933	1061206	WORD_OFF	n/a	n/a	HEART	7	5	[0, 0, 0]	n/a	FR1	0	R1204T
1039.422	1.617	1062139	WORD	n/a	wordpools/wordpool_EN.txt	SAIL	8	5	[0, 0, 0]	n/a	FR1	0	R1204T
1041.039	0.801	1063756	WORD_OFF	n/a	n/a	SAIL	8	5	[0, 0, 0]	n/a	FR1	0	R1204T
1041.84	1.616	1064557	WORD	n/a	wordpools/wordpool_EN.txt	HORN	9	5	[0, 0, 0]	n/a	FR1	0	R1204T
1043.456	0.785	1066173	WORD_OFF	n/a	n/a	HORN	9	5	[0, 0, 0]	n/a	FR1	0	R1204T
1044.241	1.616	1066958	WORD	n/a	wordpools/wordpool_EN.txt	SLIME	10	5	[0, 0, 0]	n/a	FR1	0	R1204T
1045.857	0.783	1068574	WORD_OFF	n/a	n/a	SLIME	10	5	[0, 0, 0]	n/a	FR1	0	R1204T
1046.64	1.618	1069357	WORD	n/a	wordpools/wordpool_EN.txt	STEM	11	5	[0, 0, 0]	n/a	FR1	0	R1204T
1048.258	0.866	1070974	WORD_OFF	n/a	n/a	STEM	11	5	[0, 0, 0]	n/a	FR1	0	R1204T
1049.124	1.617	1071840	WORD	n/a	wordpools/wordpool_EN.txt	CRANE	12	5	[0, 0, 0]	n/a	FR1	0	R1204T
1050.741	0.0	1073457	WORD_OFF	n/a	n/a	CRANE	12	5	[0, 0, 0]	n/a	FR1	0	R1204T
1050.741	0.001	1073457	DISTRACT_START	n/a	n/a	n/a	-999	5	[0, 0, 0]	n/a	FR1	0	R1204T
1050.742	0.016	1073458	START	n/a	n/a	n/a	-999	5	[-999, -999, -999]	n/a	FR1	0	R1204T
1050.758	4.451	1073474	PROB	4.451	n/a	n/a	-999	5	[4, 4, 3]	11	FR1	0	R1204T
1055.209	13.335	1077925	PROB	13.335	n/a	n/a	-999	5	[9, 5, 8]	22	FR1	0	R1204T
1068.544	5.1	1091259	PROB	5.1	n/a	n/a	-999	5	[4, 2, 5]	11	FR1	0	R1204T
1073.644	0.018	1096359	STOP	n/a	n/a	n/a	-999	5	[-999, -999, -999]	n/a	FR1	0	R1204T
1073.662	0.568	1096377	DISTRACT_END	n/a	n/a	n/a	-999	5	[0, 0, 0]	n/a	FR1	0	R1204T
1074.23	0.516	1096945	RETRIEVAL_ORIENT	n/a	n/a	n/a	-999	5	[0, 0, 0]	n/a	FR1	0	R1204T
1074.746	1.117	1097461	REC_START	n/a	n/a	n/a	-999	5	[0, 0, 0]	n/a	FR1	0	R1204T
1075.863	0.472	1098578	REC_WORD	0.472	n/a	WHEEL	-999	5	[0, 0, 0]	n/a	FR1	0	R1204T
1076.335	0.512	1099050	REC_WORD	0.512	n/a	RAKE	-999	5	[0, 0, 0]	n/a	FR1	0	R1204T
1076.847	0.725	1099562	REC_WORD	0.725	n/a	STONE	-999	5	[0, 0, 0]	n/a	FR1	0	R1204T
1077.572	0.969	1100287	REC_WORD	0.969	n/a	SEAL	-999	5	[0, 0, 0]	n/a	FR1	0	R1204T
1078.541	1.786	1101256	REC_WORD	1.786	n/a	BIRD	-999	5	[0, 0, 0]	n/a	FR1	0	R1204T
1080.327	24.431	1103042	REC_WORD	24.431	n/a	HEART	-999	5	[0, 0, 0]	n/a	FR1	0	R1204T
1104.758	9.211	1127471	REC_END	n/a	n/a	n/a	-999	5	[0, 0, 0]	n/a	FR1	0	R1204T
1113.969	0.5	1136682	TRIAL	n/a	n/a	n/a	-999	6	[0, 0, 0]	n/a	FR1	0	R1204T
1114.469	10.428	1137182	COUNTDOWN_START	n/a	n/a	n/a	-999	6	[0, 0, 0]	n/a	FR1	0	R1204T
1124.897	0.008	1147609	COUNTDOWN_END	n/a	n/a	n/a	-999	6	[0, 0, 0]	n/a	FR1	0	R1204T
1124.905	1.617	1147617	ORIENT	n/a	n/a	n/a	-999	6	[0, 0, 0]	n/a	FR1	0	R1204T
1126.522	2.017	1149234	ORIENT_OFF	n/a	n/a	n/a	-999	6	[0, 0, 0]	n/a	FR1	0	R1204T
1128.539	1.617	1151251	WORD	n/a	wordpools/wordpool_EN.txt	FOOD	1	6	[0, 0, 0]	n/a	FR1	0	R1204T
1130.156	0.916	1152868	WORD_OFF	n/a	n/a	FOOD	1	6	[0, 0, 0]	n/a	FR1	0	R1204T
1131.072	1.617	1153784	WORD	n/a	wordpools/wordpool_EN.txt	BROOM	2	6	[0, 0, 0]	n/a	FR1	0	R1204T
1132.689	0.85	1155400	WORD_OFF	n/a	n/a	BROOM	2	6	[0, 0, 0]	n/a	FR1	0	R1204T
1133.539	1.617	1156250	WORD	n/a	wordpools/wordpool_EN.txt	ARM	3	6	[0, 0, 0]	n/a	FR1	0	R1204T
1135.156	0.784	1157867	WORD_OFF	n/a	n/a	ARM	3	6	[0, 0, 0]	n/a	FR1	0	R1204T
1135.94	1.617	1158651	WORD	n/a	wordpools/wordpool_EN.txt	MAT	4	6	[0, 0, 0]	n/a	FR1	0	R1204T
1137.557	0.883	1160268	WORD_OFF	n/a	n/a	MAT	4	6	[0, 0, 0]	n/a	FR1	0	R1204T
1138.44	1.617	1161151	WORD	n/a	wordpools/wordpool_EN.txt	TOOL	5	6	[0, 0, 0]	n/a	FR1	0	R1204T
1140.057	0.784	1162768	WORD_OFF	n/a	n/a	TOOL	5	6	[0, 0, 0]	n/a	FR1	0	R1204T
1140.841	1.617	1163552	WORD	n/a	wordpools/wordpool_EN.txt	WAND	6	6	[0, 0, 0]	n/a	FR1	0	R1204T
1142.458	0.983	1165169	WORD_OFF	n/a	n/a	WAND	6	6	[0, 0, 0]	n/a	FR1	0	R1204T
1143.441	1.617	1166152	WORD	n/a	wordpools/wordpool_EN.txt	FACE	7	6	[0, 0, 0]	n/a	FR1	0	R1204T
1145.058	0.817	1167769	WORD_OFF	n/a	n/a	FACE	7	6	[0, 0, 0]	n/a	FR1	0	R1204T
1145.875	1.617	1168586	WORD	n/a	wordpools/wordpool_EN.txt	SKUNK	8	6	[0, 0, 0]	n/a	FR1	0	R1204T
1147.492	0.818	1170203	WORD_OFF	n/a	n/a	SKUNK	8	6	[0, 0, 0]	n/a	FR1	0	R1204T
1148.31	1.616	1171021	WORD	n/a	wordpools/wordpool_EN.txt	STREET	9	6	[0, 0, 0]	n/a	FR1	0	R1204T
1149.926	0.8	1172636	WORD_OFF	n/a	n/a	STREET	9	6	[0, 0, 0]	n/a	FR1	0	R1204T
1150.726	1.618	1173436	WORD	n/a	wordpools/wordpool_EN.txt	CAKE	10	6	[0, 0, 0]	n/a	FR1	0	R1204T
1152.344	0.933	1175054	WORD_OFF	n/a	n/a	CAKE	10	6	[0, 0, 0]	n/a	FR1	0	R1204T
1153.277	1.616	1175987	WORD	n/a	wordpools/wordpool_EN.txt	WING	11	6	[0, 0, 0]	n/a	FR1	0	R1204T
1154.893	0.984	1177603	WORD_OFF	n/a	n/a	WING	11	6	[0, 0, 0]	n/a	FR1	0	R1204T
1155.877	1.617	1178587	WORD	n/a	wordpools/wordpool_EN.txt	STORE	12	6	[0, 0, 0]	n/a	FR1	0	R1204T
1157.494	0.0	1180204	WORD_OFF	n/a	n/a	STORE	12	6	[0, 0, 0]	n/a	FR1	0	R1204T
1157.494	0.0	1180204	DISTRACT_START	n/a	n/a	n/a	-999	6	[0, 0, 0]	n/a	FR1	0	R1204T
1157.494	0.016	1180204	START	n/a	n/a	n/a	-999	6	[-999, -999, -999]	n/a	FR1	0	R1204T
1157.51	4.685	1180220	PROB	4.685	n/a	n/a	-999	6	[8, 4, 2]	14	FR1	0	R1204T
1162.195	4.734	1184905	PROB	4.734	n/a	n/a	-999	6	[6, 5, 2]	13	FR1	0	R1204T
1166.929	3.45	1189638	PROB	3.45	n/a	n/a	-999	6	[7, 3, 7]	17	FR1	0	R1204T
1170.379	2.885	1193088	PROB	2.885	n/a	n/a	-999	6	[7, 1, 7]	15	FR1	0	R1204T
1173.264	3.25	1195973	PROB	3.25	n/a	n/a	-999	6	[1, 4, 4]	9	FR1	0	R1204T
1176.514	4.673	1199223	PROB	4.673	n/a	n/a	-999	6	[6, 4, 5]	15	FR1	0	R1204T
1181.187	0.011	1203896	STOP	n/a	n/a	n/a	-999	6	[-999, -999, -999]	n/a	FR1	0	R1204T
1181.198	0.584	1203907	DISTRACT_END	n/a	n/a	n/a	-999	6	[0, 0, 0]	n/a	FR1	0	R1204T
1181.782	0.518	1204491	RETRIEVAL_ORIENT	n/a	n/a	n/a	-999	6	[0, 0, 0]	n/a	FR1	0	R1204T
1182.3	2.975	1205009	REC_START	n/a	n/a	n/a	-999	6	[0, 0, 0]	n/a	FR1	0	R1204T
1185.275	1.0	1207983	REC_WORD	1.0	n/a	FOOD	-999	6	[0, 0, 0]	n/a	FR1	0	R1204T
1186.275	0.274	1208983	REC_WORD_VV	0.274	n/a	<>	-999	6	[0, 0, 0]	n/a	FR1	0	R1204T
1186.549	1.581	1209257	REC_WORD	1.581	n/a	SKUNK	-999	6	[0, 0, 0]	n/a	FR1	0	R1204T
1188.13	1.089	1210838	REC_WORD	1.089	n/a	ARM	-999	6	[0, 0, 0]	n/a	FR1	0	R1204T
1189.219	2.674	1211927	REC_WORD	2.674	n/a	TOOL	-999	6	[0, 0, 0]	n/a	FR1	0	R1204T
1191.893	4.54	1214601	REC_WORD_VV	4.54	n/a	<>	-999	6	[0, 0, 0]	n/a	FR1	0	R1204T
1196.433	5.079	1219141	REC_WORD_VV	5.079	n/a	<>	-999	6	[0, 0, 0]	n/a	FR1	0	R1204T
1201.512	2.257	1224219	REC_WORD	2.257	n/a	MAT	-999	6	[0, 0, 0]	n/a	FR1	0	R1204T
1203.769	6.345	1226476	REC_WORD	6.345	n/a	BROOM	-999	6	[0, 0, 0]	n/a	FR1	0	R1204T
1210.114	2.197	1232821	REC_WORD_VV	2.197	n/a	<>	-999	6	[0, 0, 0]	n/a	FR1	0	R1204T
1212.311	7.028	1235018	REC_END	n/a	n/a	n/a	-999	6	[0, 0, 0]	n/a	FR1	0	R1204T
1219.339	0.5	1242045	TRIAL	n/a	n/a	n/a	-999	7	[0, 0, 0]	n/a	FR1	0	R1204T
1219.839	10.428	1242545	COUNTDOWN_START	n/a	n/a	n/a	-999	7	[0, 0, 0]	n/a	FR1	0	R1204T
1230.267	0.008	1252973	COUNTDOWN_END	n/a	n/a	n/a	-999	7	[0, 0, 0]	n/a	FR1	0	R1204T
1230.275	1.616	1252981	ORIENT	n/a	n/a	n/a	-999	7	[0, 0, 0]	n/a	FR1	0	R1204T
1231.891	2.0	1254597	ORIENT_OFF	n/a	n/a	n/a	-999	7	[0, 0, 0]	n/a	FR1	0	R1204T
1233.891	1.617	1256596	WORD	n/a	wordpools/wordpool_EN.txt	WORM	1	7	[0, 0, 0]	n/a	FR1	0	R1204T
1235.508	0.818	1258213	WORD_OFF	n/a	n/a	WORM	1	7	[0, 0, 0]	n/a	FR1	0	R1204T
1236.326	1.616	1259031	WORD	n/a	wordpools/wordpool_EN.txt	HOOK	2	7	[0, 0, 0]	n/a	FR1	0	R1204T
1237.942	0.783	1260647	WORD_OFF	n/a	n/a	HOOK	2	7	[0, 0, 0]	n/a	FR1	0	R1204T
1238.725	1.618	1261430	WORD	n/a	wordpools/wordpool_EN.txt	NOSE	3	7	[0, 0, 0]	n/a	FR1	0	R1204T
1240.343	0.783	1263048	WORD_OFF	n/a	n/a	NOSE	3	7	[0, 0, 0]	n/a	FR1	0	R1204T
1241.126	1.617	1263831	WORD	n/a	wordpools/wordpool_EN.txt	CUBE	4	7	[0, 0, 0]	n/a	FR1	0	R1204T
1242.743	0.966	1265448	WORD_OFF	n/a	n/a	CUBE	4	7	[0, 0, 0]	n/a	FR1	0	R1204T
1243.709	1.618	1266414	WORD	n/a	wordpools/wordpool_EN.txt	CART	5	7	[0, 0, 0]	n/a	FR1	0	R1204T
1245.327	0.951	1268032	WORD_OFF	n/a	n/a	CART	5	7	[0, 0, 0]	n/a	FR1	0	R1204T
1246.278	1.616	1268983	WORD	n/a	wordpools/wordpool_EN.txt	TOOTH	6	7	[0, 0, 0]	n/a	FR1	0	R1204T
1247.894	0.966	1270599	WORD_OFF	n/a	n/a	TOOTH	6	7	[0, 0, 0]	n/a	FR1	0	R1204T
1248.86	1.617	1271565	WORD	n/a	wordpools/wordpool_EN.txt	FLAG	7	7	[0, 0, 0]	n/a	FR1	0	R1204T
1250.477	0.785	1273182	WORD_OFF	n/a	n/a	FLAG	7	7	[0, 0, 0]	n/a	FR1	0	R1204T
1251.262	1.616	1273966	WORD	n/a	wordpools/wordpool_EN.txt	LAWN	8	7	[0, 0, 0]	n/a	FR1	0	R1204T
1252.878	1.0	1275582	WORD_OFF	n/a	n/a	LAWN	8	7	[0, 0, 0]	n/a	FR1	0	R1204T
1253.878	1.617	1276582	WORD	n/a	wordpools/wordpool_EN.txt	TANK	9	7	[0, 0, 0]	n/a	FR1	0	R1204T
1255.495	0.868	1278199	WORD_OFF	n/a	n/a	TANK	9	7	[0, 0, 0]	n/a	FR1	0	R1204T
1256.363	1.616	1279067	WORD	n/a	wordpools/wordpool_EN.txt	EGG	10	7	[0, 0, 0]	n/a	FR1	0	R1204T
1257.979	0.8	1280683	WORD_OFF	n/a	n/a	EGG	10	7	[0, 0, 0]	n/a	FR1	0	R1204T
1258.779	1.617	1281483	WORD	n/a	wordpools/wordpool_EN.txt	DOLL	11	7	[0, 0, 0]	n/a	FR1	0	R1204T
1260.396	0.918	1283100	WORD_OFF	n/a	n/a	DOLL	11	7	[0, 0, 0]	n/a	FR1	0	R1204T
1261.314	1.616	1284018	WORD	n/a	wordpools/wordpool_EN.txt	SWORD	12	7	[0, 0, 0]	n/a	FR1	0	R1204T
1262.93	0.0	1285634	WORD_OFF	n/a	n/a	SWORD	12	7	[0, 0, 0]	n/a	FR1	0	R1204T
1262.93	0.0	1285634	DISTRACT_START	n/a	n/a	n/a	-999	7	[0, 0, 0]	n/a	FR1	0	R1204T
1262.93	0.016	1285634	START	n/a	n/a	n/a	-999	7	[-999, -999, -999]	n/a	FR1	0	R1204T
1262.946	5.352	1285650	PROB	5.352	n/a	n/a	-999	7	[4, 5, 7]	16	FR1	0	R1204T
1268.298	7.767	1291001	PROB	7.767	n/a	n/a	-999	7	[5, 6, 4]	15	FR1	0	R1204T
1276.065	2.684	1298768	PROB	2.684	n/a	n/a	-999	7	[3, 4, 4]	11	FR1	0	R1204T
1278.749	7.862	1301452	PROB	7.862	n/a	n/a	-999	7	[8, 3, 7]	18	FR1	0	R1204T
1286.611	0.006	1309313	STOP	n/a	n/a	n/a	-999	7	[-999, -999, -999]	n/a	FR1	0	R1204T
1286.617	0.517	1309319	DISTRACT_END	n/a	n/a	n/a	-999	7	[0, 0, 0]	n/a	FR1	0	R1204T
1287.134	0.518	1309836	RETRIEVAL_ORIENT	n/a	n/a	n/a	-999	7	[0, 0, 0]	n/a	FR1	0	R1204T
1287.652	1.368	1310354	REC_START	n/a	n/a	n/a	-999	7	[0, 0, 0]	n/a	FR1	0	R1204T
1289.02	0.647	1311722	REC_WORD	0.647	n/a	WORM	-999	7	[0, 0, 0]	n/a	FR1	0	R1204T
1289.667	0.707	1312369	REC_WORD	0.707	n/a	NOSE	-999	7	[0, 0, 0]	n/a	FR1	0	R1204T
1290.374	0.561	1313076	REC_WORD	0.561	n/a	HOOK	-999	7	[0, 0, 0]	n/a	FR1	0	R1204T
1290.935	2.626	1313637	REC_WORD	2.626	n/a	CUBE	-999	7	[0, 0, 0]	n/a	FR1	0	R1204T
1293.561	0.868	1316263	REC_WORD_VV	0.868	n/a	<>	-999	7	[0, 0, 0]	n/a	FR1	0	R1204T
1294.429	1.002	1317131	REC_WORD	1.002	n/a	BOX	-999	7	[0, 0, 0]	n/a	FR1	0	R1204T
1295.431	0.319	1318133	REC_WORD_VV	0.319	n/a	<>	-999	7	[0, 0, 0]	n/a	FR1	0	R1204T
1295.75	10.959	1318452	REC_WORD_VV	10.959	n/a	<>	-999	7	[0, 0, 0]	n/a	FR1	0	R1204T
1306.709	10.956	1329410	REC_WORD_VV	10.956	n/a	<>	-999	7	[0, 0, 0]	n/a	FR1	0	R1204T
1317.665	111.713	1340366	REC_END	n/a	n/a	n/a	-999	7	[0, 0, 0]	n/a	FR1	0	R1204T
1429.378	0.5	1452072	TRIAL	n/a	n/a	n/a	-999	8	[0, 0, 0]	n/a	FR1	0	R1204T
1429.878	10.428	1452572	COUNTDOWN_START	n/a	n/a	n/a	-999	8	[0, 0, 0]	n/a	FR1	0	R1204T
1440.306	0.007	1462999	COUNTDOWN_END	n/a	n/a	n/a	-999	8	[0, 0, 0]	n/a	FR1	0	R1204T
1440.313	1.616	1463006	ORIENT	n/a	n/a	n/a	-999	8	[0, 0, 0]	n/a	FR1	0	R1204T
1441.929	2.167	1464622	ORIENT_OFF	n/a	n/a	n/a	-999	8	[0, 0, 0]	n/a	FR1	0	R1204T
1444.096	1.617	1466789	WORD	n/a	wordpools/wordpool_EN.txt	PIPE	1	8	[0, 0, 0]	n/a	FR1	0	R1204T
1445.713	1.0	1468406	WORD_OFF	n/a	n/a	PIPE	1	8	[0, 0, 0]	n/a	FR1	0	R1204T
1446.713	1.618	1469406	WORD	n/a	wordpools/wordpool_EN.txt	FOG	2	8	[0, 0, 0]	n/a	FR1	0	R1204T
1448.331	0.984	1471024	WORD_OFF	n/a	n/a	FOG	2	8	[0, 0, 0]	n/a	FR1	0	R1204T
1449.315	1.615	1472008	WORD	n/a	wordpools/wordpool_EN.txt	JAIL	3	8	[0, 0, 0]	n/a	FR1	0	R1204T
1450.93	0.851	1473623	WORD_OFF	n/a	n/a	JAIL	3	8	[0, 0, 0]	n/a	FR1	0	R1204T
1451.781	1.616	1474474	WORD	n/a	wordpools/wordpool_EN.txt	GRAPE	4	8	[0, 0, 0]	n/a	FR1	0	R1204T
1453.397	0.984	1476090	WORD_OFF	n/a	n/a	GRAPE	4	8	[0, 0, 0]	n/a	FR1	0	R1204T
1454.381	1.617	1477073	WORD	n/a	wordpools/wordpool_EN.txt	THREAD	5	8	[0, 0, 0]	n/a	FR1	0	R1204T
1455.998	0.8	1478690	WORD_OFF	n/a	n/a	THREAD	5	8	[0, 0, 0]	n/a	FR1	0	R1204T
1456.798	1.617	1479490	WORD	n/a	wordpools/wordpool_EN.txt	JUDGE	6	8	[0, 0, 0]	n/a	FR1	0	R1204T
1458.415	0.884	1481107	WORD_OFF	n/a	n/a	JUDGE	6	8	[0, 0, 0]	n/a	FR1	0	R1204T
1459.299	1.616	1481991	WORD	n/a	wordpools/wordpool_EN.txt	BOAT	7	8	[0, 0, 0]	n/a	FR1	0	R1204T
1460.915	0.817	1483607	WORD_OFF	n/a	n/a	BOAT	7	8	[0, 0, 0]	n/a	FR1	0	R1204T
1461.732	1.601	1484424	WORD	n/a	wordpools/wordpool_EN.txt	HAT	8	8	[0, 0, 0]	n/a	FR1	0	R1204T
1463.333	0.951	1486025	WORD_OFF	n/a	n/a	HAT	8	8	[0, 0, 0]	n/a	FR1	0	R1204T
1464.284	1.615	1486976	WORD	n/a	wordpools/wordpool_EN.txt	FISH	9	8	[0, 0, 0]	n/a	FR1	0	R1204T
1465.899	0.784	1488591	WORD_OFF	n/a	n/a	FISH	9	8	[0, 0, 0]	n/a	FR1	0	R1204T
1466.683	1.618	1489375	WORD	n/a	wordpools/wordpool_EN.txt	HOUSE	10	8	[0, 0, 0]	n/a	FR1	0	R1204T
1468.301	0.833	1490993	WORD_OFF	n/a	n/a	HOUSE	10	8	[0, 0, 0]	n/a	FR1	0	R1204T
1469.134	1.617	1491826	WORD	n/a	wordpools/wordpool_EN.txt	WHALE	11	8	[0, 0, 0]	n/a	FR1	0	R1204T
1470.751	0.866	1493442	WORD_OFF	n/a	n/a	WHALE	11	8	[0, 0, 0]	n/a	FR1	0	R1204T
1471.617	1.618	1494308	WORD	n/a	wordpools/wordpool_EN.txt	POLE	12	8	[0, 0, 0]	n/a	FR1	0	R1204T
1473.235	0.0	1495926	WORD_OFF	n/a	n/a	POLE	12	8	[0, 0, 0]	n/a	FR1	0	R1204T
1473.235	0.001	1495926	DISTRACT_START	n/a	n/a	n/a	-999	8	[0, 0, 0]	n/a	FR1	0	R1204T
1473.236	0.016	1495927	START	n/a	n/a	n/a	-999	8	[-999, -999, -999]	n/a	FR1	0	R1204T
1473.252	3.85	1495943	PROB	3.85	n/a	n/a	-999	8	[6, 5, 5]	16	FR1	0	R1204T
1477.102	4.934	1499793	PROB	4.934	n/a	n/a	-999	8	[1, 8, 7]	16	FR1	0	R1204T
1482.036	3.951	1504727	PROB	3.951	n/a	n/a	-999	8	[5, 1, 4]	10	FR1	0	R1204T
1485.987	4.617	1508678	PROB	4.617	n/a	n/a	-999	8	[7, 9, 5]	21	FR1	0	R1204T
1490.604	5.952	1513294	PROB	5.952	n/a	n/a	-999	8	[9, 5, 1]	15	FR1	0	R1204T
1496.556	0.016	1519246	STOP	n/a	n/a	n/a	-999	8	[-999, -999, -999]	n/a	FR1	0	R1204T
1496.572	0.567	1519262	DISTRACT_END	n/a	n/a	n/a	-999	8	[0, 0, 0]	n/a	FR1	0	R1204T
1497.139	0.517	1519829	RETRIEVAL_ORIENT	n/a	n/a	n/a	-999	8	[0, 0, 0]	n/a	FR1	0	R1204T
1497.656	2.389	1520346	REC_START	n/a	n/a	n/a	-999	8	[0, 0, 0]	n/a	FR1	0	R1204T
1500.045	0.691	1522735	REC_WORD	0.691	n/a	PIPE	-999	8	[0, 0, 0]	n/a	FR1	0	R1204T
1500.736	1.265	1523426	REC_WORD	1.265	n/a	FOG	-999	8	[0, 0, 0]	n/a	FR1	0	R1204T
1502.001	1.713	1524691	REC_WORD	1.713	n/a	JAIL	-999	8	[0, 0, 0]	n/a	FR1	0	R1204T
1503.714	1.346	1526404	REC_WORD	1.346	n/a	JUDGE	-999	8	[0, 0, 0]	n/a	FR1	0	R1204T
1505.06	2.455	1527749	REC_WORD	2.455	n/a	POLE	-999	8	[0, 0, 0]	n/a	FR1	0	R1204T
1507.515	0.587	1530204	REC_WORD_VV	0.587	n/a	<>	-999	8	[0, 0, 0]	n/a	FR1	0	R1204T
1508.102	1.911	1530791	REC_WORD	1.911	n/a	HOUSE	-999	8	[0, 0, 0]	n/a	FR1	0	R1204T
1510.013	1.052	1532702	REC_WORD_VV	1.052	n/a	<>	-999	8	[0, 0, 0]	n/a	FR1	0	R1204T
1511.065	6.063	1533754	REC_WORD	6.063	n/a	BOX	-999	8	[0, 0, 0]	n/a	FR1	0	R1204T
1517.128	10.541	1539817	REC_WORD	10.541	n/a	WHALE	-999	8	[0, 0, 0]	n/a	FR1	0	R1204T
1527.669	6.661	1550357	REC_END	n/a	n/a	n/a	-999	8	[0, 0, 0]	n/a	FR1	0	R1204T
1534.33	0.5	1557018	TRIAL	n/a	n/a	n/a	-999	9	[0, 0, 0]	n/a	FR1	0	R1204T
1534.83	10.428	1557518	COUNTDOWN_START	n/a	n/a	n/a	-999	9	[0, 0, 0]	n/a	FR1	0	R1204T
1545.258	0.007	1567945	COUNTDOWN_END	n/a	n/a	n/a	-999	9	[0, 0, 0]	n/a	FR1	0	R1204T
1545.265	1.616	1567952	ORIENT	n/a	n/a	n/a	-999	9	[0, 0, 0]	n/a	FR1	0	R1204T
1546.881	2.067	1569568	ORIENT_OFF	n/a	n/a	n/a	-999	9	[0, 0, 0]	n/a	FR1	0	R1204T
1548.948	1.617	1571635	WORD	n/a	wordpools/wordpool_EN.txt	SPONGE	1	9	[0, 0, 0]	n/a	FR1	0	R1204T
1550.565	0.9	1573252	WORD_OFF	n/a	n/a	SPONGE	1	9	[0, 0, 0]	n/a	FR1	0	R1204T
1551.465	1.617	1574152	WORD	n/a	wordpools/wordpool_EN.txt	BARN	2	9	[0, 0, 0]	n/a	FR1	0	R1204T
1553.082	0.967	1575769	WORD_OFF	n/a	n/a	BARN	2	9	[0, 0, 0]	n/a	FR1	0	R1204T
1554.049	1.617	1576736	WORD	n/a	wordpools/wordpool_EN.txt	CORN	3	9	[0, 0, 0]	n/a	FR1	0	R1204T
1555.666	0.767	1578352	WORD_OFF	n/a	n/a	CORN	3	9	[0, 0, 0]	n/a	FR1	0	R1204T
1556.433	1.617	1579119	WORD	n/a	wordpools/wordpool_EN.txt	CLOUD	4	9	[0, 0, 0]	n/a	FR1	0	R1204T
1558.05	1.017	1580736	WORD_OFF	n/a	n/a	CLOUD	4	9	[0, 0, 0]	n/a	FR1	0	R1204T
1559.067	1.617	1581753	WORD	n/a	wordpools/wordpool_EN.txt	VINE	5	9	[0, 0, 0]	n/a	FR1	0	R1204T
1560.684	0.95	1583370	WORD_OFF	n/a	n/a	VINE	5	9	[0, 0, 0]	n/a	FR1	0	R1204T
1561.634	1.618	1584320	WORD	n/a	wordpools/wordpool_EN.txt	DESK	6	9	[0, 0, 0]	n/a	FR1	0	R1204T
1563.252	0.816	1585938	WORD_OFF	n/a	n/a	DESK	6	9	[0, 0, 0]	n/a	FR1	0	R1204T
1564.068	1.617	1586754	WORD	n/a	wordpools/wordpool_EN.txt	TOY	7	9	[0, 0, 0]	n/a	FR1	0	R1204T
1565.685	0.783	1588371	WORD_OFF	n/a	n/a	TOY	7	9	[0, 0, 0]	n/a	FR1	0	R1204T
1566.468	1.617	1589154	WORD	n/a	wordpools/wordpool_EN.txt	SINK	8	9	[0, 0, 0]	n/a	FR1	0	R1204T
1568.085	0.767	1590771	WORD_OFF	n/a	n/a	SINK	8	9	[0, 0, 0]	n/a	FR1	0	R1204T
1568.852	1.617	1591538	WORD	n/a	wordpools/wordpool_EN.txt	JAR	9	9	[0, 0, 0]	n/a	FR1	0	R1204T
1570.469	0.818	1593155	WORD_OFF	n/a	n/a	JAR	9	9	[0, 0, 0]	n/a	FR1	0	R1204T
1571.287	1.615	1593973	WORD	n/a	wordpools/wordpool_EN.txt	TOE	10	9	[0, 0, 0]	n/a	FR1	0	R1204T
1572.902	0.784	1595587	WORD_OFF	n/a	n/a	TOE	10	9	[0, 0, 0]	n/a	FR1	0	R1204T
1573.686	1.618	1596371	WORD	n/a	wordpools/wordpool_EN.txt	COUCH	11	9	[0, 0, 0]	n/a	FR1	0	R1204T
1575.304	0.832	1597989	WORD_OFF	n/a	n/a	COUCH	11	9	[0, 0, 0]	n/a	FR1	0	R1204T
1576.136	1.601	1598821	WORD	n/a	wordpools/wordpool_EN.txt	LIP	12	9	[0, 0, 0]	n/a	FR1	0	R1204T
1577.737	0.0	1600422	WORD_OFF	n/a	n/a	LIP	12	9	[0, 0, 0]	n/a	FR1	0	R1204T
1577.737	0.0	1600422	DISTRACT_START	n/a	n/a	n/a	-999	9	[0, 0, 0]	n/a	FR1	0	R1204T
1577.737	0.016	1600422	START	n/a	n/a	n/a	-999	9	[-999, -999, -999]	n/a	FR1	0	R1204T
1577.753	5.602	1600438	PROB	5.602	n/a	n/a	-999	9	[7, 2, 4]	13	FR1	0	R1204T
1583.355	4.951	1606040	PROB	4.951	n/a	n/a	-999	9	[5, 6, 2]	13	FR1	0	R1204T
1588.306	5.783	1610991	PROB	5.783	n/a	n/a	-999	9	[8, 4, 8]	20	FR1	0	R1204T
1594.089	5.611	1616773	PROB	5.611	n/a	n/a	-999	9	[2, 5, 7]	14	FR1	0	R1204T
1599.7	0.007	1622384	STOP	n/a	n/a	n/a	-999	9	[-999, -999, -999]	n/a	FR1	0	R1204T
1599.707	0.684	1622391	DISTRACT_END	n/a	n/a	n/a	-999	9	[0, 0, 0]	n/a	FR1	0	R1204T
1600.391	0.517	1623075	RETRIEVAL_ORIENT	n/a	n/a	n/a	-999	9	[0, 0, 0]	n/a	FR1	0	R1204T
1600.908	0.264	1623592	REC_START	n/a	n/a	n/a	-999	9	[0, 0, 0]	n/a	FR1	0	R1204T
1601.172	1.334	1623856	REC_WORD_VV	1.334	n/a	<>	-999	9	[0, 0, 0]	n/a	FR1	0	R1204T
1602.506	1.054	1625190	REC_WORD	1.054	n/a	SPONGE	-999	9	[0, 0, 0]	n/a	FR1	0	R1204T
1603.56	0.881	1626244	REC_WORD	0.881	n/a	BARN	-999	9	[0, 0, 0]	n/a	FR1	0	R1204T
1604.441	1.488	1627125	REC_WORD	1.488	n/a	CORN	-999	9	[0, 0, 0]	n/a	FR1	0	R1204T
1605.929	2.143	1628613	REC_WORD	2.143	n/a	LIP	-999	9	[0, 0, 0]	n/a	FR1	0	R1204T
1608.072	2.375	1630755	REC_WORD_VV	2.375	n/a	<>	-999	9	[0, 0, 0]	n/a	FR1	0	R1204T
1610.447	4.799	1633130	REC_WORD_VV	4.799	n/a	<>	-999	9	[0, 0, 0]	n/a	FR1	0	R1204T
1615.246	6.6	1637929	REC_WORD_VV	6.6	n/a	<>	-999	9	[0, 0, 0]	n/a	FR1	0	R1204T
1621.846	7.685	1644529	REC_WORD_VV	7.685	n/a	<>	-999	9	[0, 0, 0]	n/a	FR1	0	R1204T
1629.531	1.39	1652213	REC_WORD_VV	1.39	n/a	<>	-999	9	[0, 0, 0]	n/a	FR1	0	R1204T
1630.921	6.243	1653603	REC_END	n/a	n/a	n/a	-999	9	[0, 0, 0]	n/a	FR1	0	R1204T
1637.164	0.5	1659846	TRIAL	n/a	n/a	n/a	-999	10	[0, 0, 0]	n/a	FR1	0	R1204T
1637.664	10.428	1660346	COUNTDOWN_START	n/a	n/a	n/a	-999	10	[0, 0, 0]	n/a	FR1	0	R1204T
1648.092	0.008	1670773	COUNTDOWN_END	n/a	n/a	n/a	-999	10	[0, 0, 0]	n/a	FR1	0	R1204T
1648.1	1.616	1670781	ORIENT	n/a	n/a	n/a	-999	10	[0, 0, 0]	n/a	FR1	0	R1204T
1649.716	1.901	1672397	ORIENT_OFF	n/a	n/a	n/a	-999	10	[0, 0, 0]	n/a	FR1	0	R1204T
1651.617	1.618	1674298	WORD	n/a	wordpools/wordpool_EN.txt	ROPE	1	10	[0, 0, 0]	n/a	FR1	0	R1204T
1653.235	0.916	1675916	WORD_OFF	n/a	n/a	ROPE	1	10	[0, 0, 0]	n/a	FR1	0	R1204T
1654.151	1.617	1676832	WORD	n/a	wordpools/wordpool_EN.txt	PANTS	2	10	[0, 0, 0]	n/a	FR1	0	R1204T
1655.768	0.85	1678449	WORD_OFF	n/a	n/a	PANTS	2	10	[0, 0, 0]	n/a	FR1	0	R1204T
1656.618	1.618	1679299	WORD	n/a	wordpools/wordpool_EN.txt	SEED	3	10	[0, 0, 0]	n/a	FR1	0	R1204T
1658.236	0.815	1680916	WORD_OFF	n/a	n/a	SEED	3	10	[0, 0, 0]	n/a	FR1	0	R1204T
1659.051	1.617	1681731	WORD	n/a	wordpools/wordpool_EN.txt	NAIL	4	10	[0, 0, 0]	n/a	FR1	0	R1204T
1660.668	0.917	1683348	WORD_OFF	n/a	n/a	NAIL	4	10	[0, 0, 0]	n/a	FR1	0	R1204T
1661.585	1.617	1684265	WORD	n/a	wordpools/wordpool_EN.txt	CALF	5	10	[0, 0, 0]	n/a	FR1	0	R1204T
1663.202	1.0	1685882	WORD_OFF	n/a	n/a	CALF	5	10	[0, 0, 0]	n/a	FR1	0	R1204T
1664.202	1.617	1686882	WORD	n/a	wordpools/wordpool_EN.txt	DART	6	10	[0, 0, 0]	n/a	FR1	0	R1204T
1665.819	0.951	1688499	WORD_OFF	n/a	n/a	DART	6	10	[0, 0, 0]	n/a	FR1	0	R1204T
1666.77	1.617	1689450	WORD	n/a	wordpools/wordpool_EN.txt	CHEEK	7	10	[0, 0, 0]	n/a	FR1	0	R1204T
1668.387	1.0	1691067	WORD_OFF	n/a	n/a	CHEEK	7	10	[0, 0, 0]	n/a	FR1	0	R1204T
1669.387	1.617	1692067	WORD	n/a	wordpools/wordpool_EN.txt	FOX	8	10	[0, 0, 0]	n/a	FR1	0	R1204T
1671.004	0.966	1693684	WORD_OFF	n/a	n/a	FOX	8	10	[0, 0, 0]	n/a	FR1	0	R1204T
1671.97	1.617	1694650	WORD	n/a	wordpools/wordpool_EN.txt	PEACH	9	10	[0, 0, 0]	n/a	FR1	0	R1204T
1673.587	0.884	1696267	WORD_OFF	n/a	n/a	PEACH	9	10	[0, 0, 0]	n/a	FR1	0	R1204T
1674.471	1.617	1697150	WORD	n/a	wordpools/wordpool_EN.txt	SPEAR	10	10	[0, 0, 0]	n/a	FR1	0	R1204T
1676.088	0.95	1698767	WORD_OFF	n/a	n/a	SPEAR	10	10	[0, 0, 0]	n/a	FR1	0	R1204T
1677.038	1.617	1699717	WORD	n/a	wordpools/wordpool_EN.txt	BOX	11	10	[0, 0, 0]	n/a	FR1	0	R1204T
1678.655	0.8	1701334	WORD_OFF	n/a	n/a	BOX	11	10	[0, 0, 0]	n/a	FR1	0	R1204T
1679.455	1.617	1702134	WORD	n/a	wordpools/wordpool_EN.txt	COIN	12	10	[0, 0, 0]	n/a	FR1	0	R1204T
1681.072	0.0	1703751	WORD_OFF	n/a	n/a	COIN	12	10	[0, 0, 0]	n/a	FR1	0	R1204T
1681.072	0.001	1703751	DISTRACT_START	n/a	n/a	n/a	-999	10	[0, 0, 0]	n/a	FR1	0	R1204T
1681.073	0.016	1703752	START	n/a	n/a	n/a	-999	10	[-999, -999, -999]	n/a	FR1	0	R1204T
1681.089	5.651	1703768	PROB	5.651	n/a	n/a	-999	10	[8, 6, 6]	20	FR1	0	R1204T
1686.74	8.519	1709419	PROB	8.519	n/a	n/a	-999	10	[5, 3, 9]	17	FR1	0	R1204T
1695.259	6.041	1717937	PROB	6.041	n/a	n/a	-999	10	[7, 1, 4]	12	FR1	0	R1204T
1701.3	0.01	1723978	STOP	n/a	n/a	n/a	-999	10	[-999, -999, -999]	n/a	FR1	0	R1204T
1701.31	0.633	1723988	DISTRACT_END	n/a	n/a	n/a	-999	10	[0, 0, 0]	n/a	FR1	0	R1204T
1701.943	0.517	1724621	RETRIEVAL_ORIENT	n/a	n/a	n/a	-999	10	[0, 0, 0]	n/a	FR1	0	R1204T
1702.46	2.146	1725138	REC_START	n/a	n/a	n/a	-999	10	[0, 0, 0]	n/a	FR1	0	R1204T
1704.606	0.619	1727284	REC_WORD_VV	0.619	n/a	<>	-999	10	[0, 0, 0]	n/a	FR1	0	R1204T
1705.225	1.325	1727903	REC_WORD	1.325	n/a	ROPE	-999	10	[0, 0, 0]	n/a	FR1	0	R1204T
1706.55	0.577	1729228	REC_WORD	0.577	n/a	PANTS	-999	10	[0, 0, 0]	n/a	FR1	0	R1204T
1707.127	1.005	1729805	REC_WORD	1.005	n/a	SEED	-999	10	[0, 0, 0]	n/a	FR1	0	R1204T
1708.132	1.536	1730809	REC_WORD	1.536	n/a	NAIL	-999	10	[0, 0, 0]	n/a	FR1	0	R1204T
1709.668	1.438	1732345	REC_WORD	1.438	n/a	CALF	-999	10	[0, 0, 0]	n/a	FR1	0	R1204T
1711.106	21.364	1733783	REC_WORD	21.364	n/a	PEACH	-999	10	[0, 0, 0]	n/a	FR1	0	R1204T
1732.47	6.096	1755146	REC_END	n/a	n/a	n/a	-999	10	[0, 0, 0]	n/a	FR1	0	R1204T
1738.566	0.5	1761242	TRIAL	n/a	n/a	n/a	-999	11	[0, 0, 0]	n/a	FR1	0	R1204T
1739.066	10.428	1761742	COUNTDOWN_START	n/a	n/a	n/a	-999	11	[0, 0, 0]	n/a	FR1	0	R1204T
1749.494	0.007	1772169	COUNTDOWN_END	n/a	n/a	n/a	-999	11	[0, 0, 0]	n/a	FR1	0	R1204T
1749.501	1.617	1772176	ORIENT	n/a	n/a	n/a	-999	11	[0, 0, 0]	n/a	FR1	0	R1204T
1751.118	2.001	1773793	ORIENT_OFF	n/a	n/a	n/a	-999	11	[0, 0, 0]	n/a	FR1	0	R1204T
1753.119	1.617	1775794	WORD	n/a	wordpools/wordpool_EN.txt	LAND	1	11	[0, 0, 0]	n/a	FR1	0	R1204T
1754.736	0.95	1777411	WORD_OFF	n/a	n/a	LAND	1	11	[0, 0, 0]	n/a	FR1	0	R1204T
1755.686	1.618	1778361	WORD	n/a	wordpools/wordpool_EN.txt	SHOE	2	11	[0, 0, 0]	n/a	FR1	0	R1204T
1757.304	0.782	1779979	WORD_OFF	n/a	n/a	SHOE	2	11	[0, 0, 0]	n/a	FR1	0	R1204T
1758.086	1.617	1780761	WORD	n/a	wordpools/wordpool_EN.txt	HEN	3	11	[0, 0, 0]	n/a	FR1	0	R1204T
1759.703	0.934	1782377	WORD_OFF	n/a	n/a	HEN	3	11	[0, 0, 0]	n/a	FR1	0	R1204T
1760.637	1.618	1783311	WORD	n/a	wordpools/wordpool_EN.txt	SNAIL	4	11	[0, 0, 0]	n/a	FR1	0	R1204T
1762.255	0.849	1784929	WORD_OFF	n/a	n/a	SNAIL	4	11	[0, 0, 0]	n/a	FR1	0	R1204T
1763.104	1.617	1785778	WORD	n/a	wordpools/wordpool_EN.txt	TIE	5	11	[0, 0, 0]	n/a	FR1	0	R1204T
1764.721	0.967	1787395	WORD_OFF	n/a	n/a	TIE	5	11	[0, 0, 0]	n/a	FR1	0	R1204T
1765.688	1.617	1788362	WORD	n/a	wordpools/wordpool_EN.txt	TRUCK	6	11	[0, 0, 0]	n/a	FR1	0	R1204T
1767.305	0.934	1789979	WORD_OFF	n/a	n/a	TRUCK	6	11	[0, 0, 0]	n/a	FR1	0	R1204T
1768.239	1.616	1790913	WORD	n/a	wordpools/wordpool_EN.txt	TRAY	7	11	[0, 0, 0]	n/a	FR1	0	R1204T
1769.855	0.817	1792529	WORD_OFF	n/a	n/a	TRAY	7	11	[0, 0, 0]	n/a	FR1	0	R1204T
1770.672	1.618	1793346	WORD	n/a	wordpools/wordpool_EN.txt	SHEET	8	11	[0, 0, 0]	n/a	FR1	0	R1204T
1772.29	0.816	1794964	WORD_OFF	n/a	n/a	SHEET	8	11	[0, 0, 0]	n/a	FR1	0	R1204T
1773.106	1.616	1795780	WORD	n/a	wordpools/wordpool_EN.txt	BLUSH	9	11	[0, 0, 0]	n/a	FR1	0	R1204T
1774.722	0.801	1797396	WORD_OFF	n/a	n/a	BLUSH	9	11	[0, 0, 0]	n/a	FR1	0	R1204T
1775.523	1.617	1798196	WORD	n/a	wordpools/wordpool_EN.txt	BRICK	10	11	[0, 0, 0]	n/a	FR1	0	R1204T
1777.14	0.783	1799813	WORD_OFF	n/a	n/a	BRICK	10	11	[0, 0, 0]	n/a	FR1	0	R1204T
1777.923	1.617	1800596	WORD	n/a	wordpools/wordpool_EN.txt	SNAKE	11	11	[0, 0, 0]	n/a	FR1	0	R1204T
1779.54	0.984	1802213	WORD_OFF	n/a	n/a	SNAKE	11	11	[0, 0, 0]	n/a	FR1	0	R1204T
1780.524	1.617	1803197	WORD	n/a	wordpools/wordpool_EN.txt	TOAD	12	11	[0, 0, 0]	n/a	FR1	0	R1204T
1782.141	0.0	1804814	WORD_OFF	n/a	n/a	TOAD	12	11	[0, 0, 0]	n/a	FR1	0	R1204T
1782.141	0.0	1804814	DISTRACT_START	n/a	n/a	n/a	-999	11	[0, 0, 0]	n/a	FR1	0	R1204T
1782.141	0.016	1804814	START	n/a	n/a	n/a	-999	11	[-999, -999, -999]	n/a	FR1	0	R1204T
1782.157	3.684	1804830	PROB	3.684	n/a	n/a	-999	11	[2, 2, 2]	6	FR1	0	R1204T
1785.841	7.852	1808514	PROB	7.852	n/a	n/a	-999	11	[4, 4, 7]	15	FR1	0	R1204T
1793.693	3.217	1816365	PROB	3.217	n/a	n/a	-999	11	[3, 1, 2]	6	FR1	0	R1204T
1796.91	5.068	1819582	PROB	5.068	n/a	n/a	-999	11	[2, 4, 4]	10	FR1	0	R1204T
1801.978	5.689	1824650	PROB	5.689	n/a	n/a	-999	11	[3, 8, 7]	18	FR1	0	R1204T
1807.667	0.011	1830339	STOP	n/a	n/a	n/a	-999	11	[-999, -999, -999]	n/a	FR1	0	R1204T
1807.678	0.585	1830350	DISTRACT_END	n/a	n/a	n/a	-999	11	[0, 0, 0]	n/a	FR1	0	R1204T
1808.263	0.516	1830935	RETRIEVAL_ORIENT	n/a	n/a	n/a	-999	11	[0, 0, 0]	n/a	FR1	0	R1204T
1808.779	1.097	1831451	REC_START	n/a	n/a	n/a	-999	11	[0, 0, 0]	n/a	FR1	0	R1204T
1809.876	0.917	1832547	REC_WORD_VV	0.917	n/a	<>	-999	11	[0, 0, 0]	n/a	FR1	0	R1204T
1810.793	0.757	1833464	REC_WORD	0.757	n/a	HEN	-999	11	[0, 0, 0]	n/a	FR1	0	R1204T
1811.55	1.189	1834221	REC_WORD	1.189	n/a	SNAIL	-999	11	[0, 0, 0]	n/a	FR1	0	R1204T
1812.739	0.816	1835410	REC_WORD	0.816	n/a	LAND	-999	11	[0, 0, 0]	n/a	FR1	0	R1204T
1813.555	25.237	1836226	REC_WORD	25.237	n/a	SHOE	-999	11	[0, 0, 0]	n/a	FR1	0	R1204T
1838.792	6.593	1861462	REC_END	n/a	n/a	n/a	-999	11	[0, 0, 0]	n/a	FR1	0	R1204T
1845.385	0.5	1868054	TRIAL	n/a	n/a	n/a	-999	12	[0, 0, 0]	n/a	FR1	0	R1204T
1845.885	10.428	1868554	COUNTDOWN_START	n/a	n/a	n/a	-999	12	[0, 0, 0]	n/a	FR1	0	R1204T
1856.313	0.009	1878982	COUNTDOWN_END	n/a	n/a	n/a	-999	12	[0, 0, 0]	n/a	FR1	0	R1204T
1856.322	1.616	1878991	ORIENT	n/a	n/a	n/a	-999	12	[0, 0, 0]	n/a	FR1	0	R1204T
1857.938	2.05	1880607	ORIENT_OFF	n/a	n/a	n/a	-999	12	[0, 0, 0]	n/a	FR1	0	R1204T
1859.988	1.617	1882656	WORD	n/a	wordpools/wordpool_EN.txt	TREE	1	12	[0, 0, 0]	n/a	FR1	0	R1204T
1861.605	0.768	1884273	WORD_OFF	n/a	n/a	TREE	1	12	[0, 0, 0]	n/a	FR1	0	R1204T
1862.373	1.615	1885041	WORD	n/a	wordpools/wordpool_EN.txt	DOCK	2	12	[0, 0, 0]	n/a	FR1	0	R1204T
1863.988	0.951	1886656	WORD_OFF	n/a	n/a	DOCK	2	12	[0, 0, 0]	n/a	FR1	0	R1204T
1864.939	1.617	1887607	WORD	n/a	wordpools/wordpool_EN.txt	BAND	3	12	[0, 0, 0]	n/a	FR1	0	R1204T
1866.556	0.784	1889224	WORD_OFF	n/a	n/a	BAND	3	12	[0, 0, 0]	n/a	FR1	0	R1204T
1867.34	1.616	1890008	WORD	n/a	wordpools/wordpool_EN.txt	CASH	4	12	[0, 0, 0]	n/a	FR1	0	R1204T
1868.956	1.001	1891624	WORD_OFF	n/a	n/a	CASH	4	12	[0, 0, 0]	n/a	FR1	0	R1204T
1869.957	1.616	1892625	WORD	n/a	wordpools/wordpool_EN.txt	OWL	5	12	[0, 0, 0]	n/a	FR1	0	R1204T
1871.573	0.834	1894241	WORD_OFF	n/a	n/a	OWL	5	12	[0, 0, 0]	n/a	FR1	0	R1204T
1872.407	1.617	1895075	WORD	n/a	wordpools/wordpool_EN.txt	BEAN	6	12	[0, 0, 0]	n/a	FR1	0	R1204T
1874.024	0.983	1896692	WORD_OFF	n/a	n/a	BEAN	6	12	[0, 0, 0]	n/a	FR1	0	R1204T
1875.007	1.617	1897675	WORD	n/a	wordpools/wordpool_EN.txt	MOOSE	7	12	[0, 0, 0]	n/a	FR1	0	R1204T
1876.624	0.784	1899292	WORD_OFF	n/a	n/a	MOOSE	7	12	[0, 0, 0]	n/a	FR1	0	R1204T
1877.408	1.617	1900075	WORD	n/a	wordpools/wordpool_EN.txt	TRASH	8	12	[0, 0, 0]	n/a	FR1	0	R1204T
1879.025	1.0	1901692	WORD_OFF	n/a	n/a	TRASH	8	12	[0, 0, 0]	n/a	FR1	0	R1204T
1880.025	1.617	1902692	WORD	n/a	wordpools/wordpool_EN.txt	FOAM	9	12	[0, 0, 0]	n/a	FR1	0	R1204T
1881.642	0.783	1904309	WORD_OFF	n/a	n/a	FOAM	9	12	[0, 0, 0]	n/a	FR1	0	R1204T
1882.425	1.617	1905092	WORD	n/a	wordpools/wordpool_EN.txt	EAR	10	12	[0, 0, 0]	n/a	FR1	0	R1204T
1884.042	0.967	1906709	WORD_OFF	n/a	n/a	EAR	10	12	[0, 0, 0]	n/a	FR1	0	R1204T
1885.009	1.617	1907676	WORD	n/a	wordpools/wordpool_EN.txt	SHIELD	11	12	[0, 0, 0]	n/a	FR1	0	R1204T
1886.626	0.867	1909293	WORD_OFF	n/a	n/a	SHIELD	11	12	[0, 0, 0]	n/a	FR1	0	R1204T
1887.493	1.617	1910160	WORD	n/a	wordpools/wordpool_EN.txt	CAT	12	12	[0, 0, 0]	n/a	FR1	0	R1204T
1889.11	0.0	1911777	WORD_OFF	n/a	n/a	CAT	12	12	[0, 0, 0]	n/a	FR1	0	R1204T
1889.11	0.001	1911777	DISTRACT_START	n/a	n/a	n/a	-999	12	[0, 0, 0]	n/a	FR1	0	R1204T
1889.111	0.016	1911778	START	n/a	n/a	n/a	-999	12	[-999, -999, -999]	n/a	FR1	0	R1204T
1889.127	6.618	1911794	PROB	6.618	n/a	n/a	-999	12	[2, 5, 8]	15	FR1	0	R1204T
1895.745	5.501	1918411	PROB	5.501	n/a	n/a	-999	12	[8, 9, 3]	20	FR1	0	R1204T
1901.246	5.517	1923912	PROB	5.517	n/a	n/a	-999	12	[3, 6, 9]	18	FR1	0	R1204T
1906.763	4.176	1929429	PROB	4.176	n/a	n/a	-999	12	[2, 3, 4]	9	FR1	0	R1204T
1910.939	0.008	1933604	STOP	n/a	n/a	n/a	-999	12	[-999, -999, -999]	n/a	FR1	0	R1204T
1910.947	0.567	1933612	DISTRACT_END	n/a	n/a	n/a	-999	12	[0, 0, 0]	n/a	FR1	0	R1204T
1911.514	0.517	1934179	RETRIEVAL_ORIENT	n/a	n/a	n/a	-999	12	[0, 0, 0]	n/a	FR1	0	R1204T
1912.031	2.193	1934696	REC_START	n/a	n/a	n/a	-999	12	[0, 0, 0]	n/a	FR1	0	R1204T
1914.224	0.949	1936889	REC_WORD	0.949	n/a	OWL	-999	12	[0, 0, 0]	n/a	FR1	0	R1204T
1915.173	0.964	1937838	REC_WORD	0.964	n/a	MOOSE	-999	12	[0, 0, 0]	n/a	FR1	0	R1204T
1916.137	0.903	1938802	REC_WORD	0.903	n/a	DOCK	-999	12	[0, 0, 0]	n/a	FR1	0	R1204T
1917.04	1.179	1939705	REC_WORD	1.179	n/a	WOOD	-999	12	[0, 0, 0]	n/a	FR1	0	R1204T
1918.219	1.084	1940884	REC_WORD	1.084	n/a	MONEY	-999	12	[0, 0, 0]	n/a	FR1	0	R1204T
1919.303	0.36	1941968	REC_WORD_VV	0.36	n/a	<>	-999	12	[0, 0, 0]	n/a	FR1	0	R1204T
1919.663	6.446	1942328	REC_WORD	6.446	n/a	CASH	-999	12	[0, 0, 0]	n/a	FR1	0	R1204T
1926.109	15.935	1948774	REC_WORD_VV	15.935	n/a	<>	-999	12	[0, 0, 0]	n/a	FR1	0	R1204T
1942.044	7.927	1964708	REC_END	n/a	n/a	n/a	-999	12	[0, 0, 0]	n/a	FR1	0	R1204T
1949.971	0.5	1972634	TRIAL	n/a	n/a	n/a	-999	13	[0, 0, 0]	n/a	FR1	0	R1204T
1950.471	10.428	1973134	COUNTDOWN_START	n/a	n/a	n/a	-999	13	[0, 0, 0]	n/a	FR1	0	R1204T
1960.899	0.007	1983562	COUNTDOWN_END	n/a	n/a	n/a	-999	13	[0, 0, 0]	n/a	FR1	0	R1204T
1960.906	1.617	1983569	ORIENT	n/a	n/a	n/a	-999	13	[0, 0, 0]	n/a	FR1	0	R1204T
1962.523	2.251	1985185	ORIENT_OFF	n/a	n/a	n/a	-999	13	[0, 0, 0]	n/a	FR1	0	R1204T
1964.774	1.617	1987436	WORD	n/a	wordpools/wordpool_EN.txt	ROOF	1	13	[0, 0, 0]	n/a	FR1	0	R1204T
1966.391	0.834	1989053	WORD_OFF	n/a	n/a	ROOF	1	13	[0, 0, 0]	n/a	FR1	0	R1204T
1967.225	1.616	1989887	WORD	n/a	wordpools/wordpool_EN.txt	EEL	2	13	[0, 0, 0]	n/a	FR1	0	R1204T
1968.841	0.917	1991503	WORD_OFF	n/a	n/a	EEL	2	13	[0, 0, 0]	n/a	FR1	0	R1204T
1969.758	1.618	1992420	WORD	n/a	wordpools/wordpool_EN.txt	WALL	3	13	[0, 0, 0]	n/a	FR1	0	R1204T
1971.376	0.765	1994038	WORD_OFF	n/a	n/a	WALL	3	13	[0, 0, 0]	n/a	FR1	0	R1204T
1972.141	1.618	1994803	WORD	n/a	wordpools/wordpool_EN.txt	HILL	4	13	[0, 0, 0]	n/a	FR1	0	R1204T
1973.759	0.783	1996421	WORD_OFF	n/a	n/a	HILL	4	13	[0, 0, 0]	n/a	FR1	0	R1204T
1974.542	1.617	1997204	WORD	n/a	wordpools/wordpool_EN.txt	CLOCK	5	13	[0, 0, 0]	n/a	FR1	0	R1204T
1976.159	0.917	1998821	WORD_OFF	n/a	n/a	CLOCK	5	13	[0, 0, 0]	n/a	FR1	0	R1204T
1977.076	1.617	1999738	WORD	n/a	wordpools/wordpool_EN.txt	BRIDGE	6	13	[0, 0, 0]	n/a	FR1	0	R1204T
1978.693	0.9	2001354	WORD_OFF	n/a	n/a	BRIDGE	6	13	[0, 0, 0]	n/a	FR1	0	R1204T
1979.593	1.618	2002254	WORD	n/a	wordpools/wordpool_EN.txt	GLASS	7	13	[0, 0, 0]	n/a	FR1	0	R1204T
1981.211	1.0	2003872	WORD_OFF	n/a	n/a	GLASS	7	13	[0, 0, 0]	n/a	FR1	0	R1204T
1982.211	1.616	2004872	WORD	n/a	wordpools/wordpool_EN.txt	BED	8	13	[0, 0, 0]	n/a	FR1	0	R1204T
1983.827	0.95	2006488	WORD_OFF	n/a	n/a	BED	8	13	[0, 0, 0]	n/a	FR1	0	R1204T
1984.777	1.617	2007438	WORD	n/a	wordpools/wordpool_EN.txt	MAZE	9	13	[0, 0, 0]	n/a	FR1	0	R1204T
1986.394	0.835	2009055	WORD_OFF	n/a	n/a	MAZE	9	13	[0, 0, 0]	n/a	FR1	0	R1204T
1987.229	1.616	2009890	WORD	n/a	wordpools/wordpool_EN.txt	FARM	10	13	[0, 0, 0]	n/a	FR1	0	R1204T
1988.845	0.883	2011506	WORD_OFF	n/a	n/a	FARM	10	13	[0, 0, 0]	n/a	FR1	0	R1204T
1989.728	1.618	2012389	WORD	n/a	wordpools/wordpool_EN.txt	STRAW	11	13	[0, 0, 0]	n/a	FR1	0	R1204T
1991.346	0.95	2014007	WORD_OFF	n/a	n/a	STRAW	11	13	[0, 0, 0]	n/a	FR1	0	R1204T
1992.296	1.616	2014957	WORD	n/a	wordpools/wordpool_EN.txt	BOWL	12	13	[0, 0, 0]	n/a	FR1	0	R1204T
1993.912	0.0	2016573	WORD_OFF	n/a	n/a	BOWL	12	13	[0, 0, 0]	n/a	FR1	0	R1204T
1993.912	0.001	2016573	DISTRACT_START	n/a	n/a	n/a	-999	13	[0, 0, 0]	n/a	FR1	0	R1204T
1993.913	0.016	2016574	START	n/a	n/a	n/a	-999	13	[-999, -999, -999]	n/a	FR1	0	R1204T
1993.929	4.651	2016590	PROB	4.651	n/a	n/a	-999	13	[1, 6, 9]	16	FR1	0	R1204T
1998.58	5.918	2021240	PROB	5.918	n/a	n/a	-999	13	[7, 9, 5]	21	FR1	0	R1204T
2004.498	3.334	2027158	PROB	3.334	n/a	n/a	-999	13	[1, 3, 1]	5	FR1	0	R1204T
2007.832	4.367	2030492	PROB	4.367	n/a	n/a	-999	13	[5, 1, 9]	15	FR1	0	R1204T
2012.199	7.525	2034859	PROB	7.525	n/a	n/a	-999	13	[9, 8, 7]	23	FR1	0	R1204T
2019.724	0.01	2042383	STOP	n/a	n/a	n/a	-999	13	[-999, -999, -999]	n/a	FR1	0	R1204T
2019.734	0.667	2042393	DISTRACT_END	n/a	n/a	n/a	-999	13	[0, 0, 0]	n/a	FR1	0	R1204T
2020.401	0.517	2043060	RETRIEVAL_ORIENT	n/a	n/a	n/a	-999	13	[0, 0, 0]	n/a	FR1	0	R1204T
2020.918	0.827	2043577	REC_START	n/a	n/a	n/a	-999	13	[0, 0, 0]	n/a	FR1	0	R1204T
2021.745	0.452	2044404	REC_WORD_VV	0.452	n/a	<>	-999	13	[0, 0, 0]	n/a	FR1	0	R1204T
2022.197	0.731	2044856	REC_WORD	0.731	n/a	ROOF	-999	13	[0, 0, 0]	n/a	FR1	0	R1204T
2022.928	0.878	2045587	REC_WORD	0.878	n/a	CLOCK	-999	13	[0, 0, 0]	n/a	FR1	0	R1204T
2023.806	1.368	2046465	REC_WORD	1.368	n/a	HILL	-999	13	[0, 0, 0]	n/a	FR1	0	R1204T
2025.174	0.99	2047833	REC_WORD	0.99	n/a	WALL	-999	13	[0, 0, 0]	n/a	FR1	0	R1204T
2026.164	7.105	2048823	REC_WORD	7.105	n/a	BRIDGE	-999	13	[0, 0, 0]	n/a	FR1	0	R1204T
2033.269	1.469	2055927	REC_WORD	1.469	n/a	EEL	-999	13	[0, 0, 0]	n/a	FR1	0	R1204T
2034.738	5.566	2057396	REC_WORD_VV	5.566	n/a	<>	-999	13	[0, 0, 0]	n/a	FR1	0	R1204T
2040.304	8.027	2062962	REC_WORD_VV	8.027	n/a	<>	-999	13	[0, 0, 0]	n/a	FR1	0	R1204T
2048.331	2.599	2070988	REC_WORD_VV	2.599	n/a	<>	-999	13	[0, 0, 0]	n/a	FR1	0	R1204T
2050.93	17.913	2073587	REC_END	n/a	n/a	n/a	-999	13	[0, 0, 0]	n/a	FR1	0	R1204T
2068.843	0.5	2091499	TRIAL	n/a	n/a	n/a	-999	14	[0, 0, 0]	n/a	FR1	0	R1204T
2069.343	10.428	2091999	COUNTDOWN_START	n/a	n/a	n/a	-999	14	[0, 0, 0]	n/a	FR1	0	R1204T
2079.771	0.007	2102427	COUNTDOWN_END	n/a	n/a	n/a	-999	14	[0, 0, 0]	n/a	FR1	0	R1204T
2079.778	1.601	2102434	ORIENT	n/a	n/a	n/a	-999	14	[0, 0, 0]	n/a	FR1	0	R1204T
2081.379	1.834	2104034	ORIENT_OFF	n/a	n/a	n/a	-999	14	[0, 0, 0]	n/a	FR1	0	R1204T
2083.213	1.616	2105868	WORD	n/a	wordpools/wordpool_EN.txt	CLAY	1	14	[0, 0, 0]	n/a	FR1	0	R1204T
2084.829	0.933	2107484	WORD_OFF	n/a	n/a	CLAY	1	14	[0, 0, 0]	n/a	FR1	0	R1204T
2085.762	1.617	2108417	WORD	n/a	wordpools/wordpool_EN.txt	MOUTH	2	14	[0, 0, 0]	n/a	FR1	0	R1204T
2087.379	0.902	2110034	WORD_OFF	n/a	n/a	MOUTH	2	14	[0, 0, 0]	n/a	FR1	0	R1204T
2088.281	1.615	2110936	WORD	n/a	wordpools/wordpool_EN.txt	INK	3	14	[0, 0, 0]	n/a	FR1	0	R1204T
2089.896	0.867	2112551	WORD_OFF	n/a	n/a	INK	3	14	[0, 0, 0]	n/a	FR1	0	R1204T
2090.763	1.602	2113418	WORD	n/a	wordpools/wordpool_EN.txt	PRINCE	4	14	[0, 0, 0]	n/a	FR1	0	R1204T
2092.365	0.866	2115020	WORD_OFF	n/a	n/a	PRINCE	4	14	[0, 0, 0]	n/a	FR1	0	R1204T
2093.231	1.616	2115886	WORD	n/a	wordpools/wordpool_EN.txt	FRUIT	5	14	[0, 0, 0]	n/a	FR1	0	R1204T
2094.847	0.917	2117502	WORD_OFF	n/a	n/a	FRUIT	5	14	[0, 0, 0]	n/a	FR1	0	R1204T
2095.764	1.617	2118419	WORD	n/a	wordpools/wordpool_EN.txt	CROWN	6	14	[0, 0, 0]	n/a	FR1	0	R1204T
2097.381	0.901	2120035	WORD_OFF	n/a	n/a	CROWN	6	14	[0, 0, 0]	n/a	FR1	0	R1204T
2098.282	1.616	2120936	WORD	n/a	wordpools/wordpool_EN.txt	PEAR	7	14	[0, 0, 0]	n/a	FR1	0	R1204T
2099.898	0.934	2122552	WORD_OFF	n/a	n/a	PEAR	7	14	[0, 0, 0]	n/a	FR1	0	R1204T
2100.832	1.617	2123486	WORD	n/a	wordpools/wordpool_EN.txt	NEST	8	14	[0, 0, 0]	n/a	FR1	0	R1204T
2102.449	0.851	2125103	WORD_OFF	n/a	n/a	NEST	8	14	[0, 0, 0]	n/a	FR1	0	R1204T
2103.3	1.616	2125954	WORD	n/a	wordpools/wordpool_EN.txt	HORSE	9	14	[0, 0, 0]	n/a	FR1	0	R1204T
2104.916	0.933	2127570	WORD_OFF	n/a	n/a	HORSE	9	14	[0, 0, 0]	n/a	FR1	0	R1204T
2105.849	1.617	2128503	WORD	n/a	wordpools/wordpool_EN.txt	BOARD	10	14	[0, 0, 0]	n/a	FR1	0	R1204T
2107.466	0.801	2130120	WORD_OFF	n/a	n/a	BOARD	10	14	[0, 0, 0]	n/a	FR1	0	R1204T
2108.267	1.616	2130921	WORD	n/a	wordpools/wordpool_EN.txt	RIB	11	14	[0, 0, 0]	n/a	FR1	0	R1204T
2109.883	1.001	2132537	WORD_OFF	n/a	n/a	RIB	11	14	[0, 0, 0]	n/a	FR1	0	R1204T
2110.884	1.617	2133538	WORD	n/a	wordpools/wordpool_EN.txt	KEY	12	14	[0, 0, 0]	n/a	FR1	0	R1204T
2112.501	0.0	2135155	WORD_OFF	n/a	n/a	KEY	12	14	[0, 0, 0]	n/a	FR1	0	R1204T
2112.501	0.0	2135155	DISTRACT_START	n/a	n/a	n/a	-999	14	[0, 0, 0]	n/a	FR1	0	R1204T
2112.501	0.016	2135155	START	n/a	n/a	n/a	-999	14	[-999, -999, -999]	n/a	FR1	0	R1204T
2112.517	4.534	2135171	PROB	4.534	n/a	n/a	-999	14	[4, 2, 6]	12	FR1	0	R1204T
2117.051	3.334	2139704	PROB	3.334	n/a	n/a	-999	14	[7, 7, 1]	15	FR1	0	R1204T
2120.385	2.784	2143038	PROB	2.784	n/a	n/a	-999	14	[1, 9, 2]	12	FR1	0	R1204T
2123.169	6.285	2145822	PROB	6.285	n/a	n/a	-999	14	[9, 4, 8]	21	FR1	0	R1204T
2129.454	16.838	2152107	PROB	16.838	n/a	n/a	-999	14	[8, 9, 5]	22	FR1	0	R1204T
2146.292	0.016	2168944	STOP	n/a	n/a	n/a	-999	14	[-999, -999, -999]	n/a	FR1	0	R1204T
2146.308	0.532	2168960	DISTRACT_END	n/a	n/a	n/a	-999	14	[0, 0, 0]	n/a	FR1	0	R1204T
2146.84	0.518	2169492	RETRIEVAL_ORIENT	n/a	n/a	n/a	-999	14	[0, 0, 0]	n/a	FR1	0	R1204T
2147.358	0.753	2170010	REC_START	n/a	n/a	n/a	-999	14	[0, 0, 0]	n/a	FR1	0	R1204T
2148.111	0.418	2170762	REC_WORD_VV	0.418	n/a	<>	-999	14	[0, 0, 0]	n/a	FR1	0	R1204T
2148.529	0.647	2171180	REC_WORD	0.647	n/a	CLAY	-999	14	[0, 0, 0]	n/a	FR1	0	R1204T
2149.176	0.782	2171827	REC_WORD	0.782	n/a	MOUTH	-999	14	[0, 0, 0]	n/a	FR1	0	R1204T
2149.958	1.17	2172609	REC_WORD	1.17	n/a	INK	-999	14	[0, 0, 0]	n/a	FR1	0	R1204T
2151.128	3.174	2173779	REC_WORD	3.174	n/a	RIBS	-999	14	[0, 0, 0]	n/a	FR1	0	R1204T
2154.302	1.781	2176953	REC_WORD_VV	1.781	n/a	<>	-999	14	[0, 0, 0]	n/a	FR1	0	R1204T
2156.083	6.624	2178734	REC_WORD_VV	6.624	n/a	<>	-999	14	[0, 0, 0]	n/a	FR1	0	R1204T
2162.707	11.766	2185358	REC_WORD_VV	11.766	n/a	<>	-999	14	[0, 0, 0]	n/a	FR1	0	R1204T
2174.473	2.897	2197123	REC_WORD_VV	2.897	n/a	<>	-999	14	[0, 0, 0]	n/a	FR1	0	R1204T
2177.37	6.327	2200020	REC_END	n/a	n/a	n/a	-999	14	[0, 0, 0]	n/a	FR1	0	R1204T
2183.697	0.5	2206346	TRIAL	n/a	n/a	n/a	-999	15	[0, 0, 0]	n/a	FR1	0	R1204T
2184.197	10.428	2206846	COUNTDOWN_START	n/a	n/a	n/a	-999	15	[0, 0, 0]	n/a	FR1	0	R1204T
2194.625	0.007	2217274	COUNTDOWN_END	n/a	n/a	n/a	-999	15	[0, 0, 0]	n/a	FR1	0	R1204T
2194.632	1.601	2217281	ORIENT	n/a	n/a	n/a	-999	15	[0, 0, 0]	n/a	FR1	0	R1204T
2196.233	1.984	2218882	ORIENT_OFF	n/a	n/a	n/a	-999	15	[0, 0, 0]	n/a	FR1	0	R1204T
2198.217	1.616	2220866	WORD	n/a	wordpools/wordpool_EN.txt	PEARL	1	15	[0, 0, 0]	n/a	FR1	0	R1204T
2199.833	0.817	2222481	WORD_OFF	n/a	n/a	PEARL	1	15	[0, 0, 0]	n/a	FR1	0	R1204T
2200.65	1.618	2223298	WORD	n/a	wordpools/wordpool_EN.txt	SUN	2	15	[0, 0, 0]	n/a	FR1	0	R1204T
2202.268	0.983	2224916	WORD_OFF	n/a	n/a	SUN	2	15	[0, 0, 0]	n/a	FR1	0	R1204T
2203.251	1.616	2225899	WORD	n/a	wordpools/wordpool_EN.txt	FROG	3	15	[0, 0, 0]	n/a	FR1	0	R1204T
2204.867	0.984	2227515	WORD_OFF	n/a	n/a	FROG	3	15	[0, 0, 0]	n/a	FR1	0	R1204T
2205.851	1.617	2228499	WORD	n/a	wordpools/wordpool_EN.txt	SMOKE	4	15	[0, 0, 0]	n/a	FR1	0	R1204T
2207.468	0.933	2230116	WORD_OFF	n/a	n/a	SMOKE	4	15	[0, 0, 0]	n/a	FR1	0	R1204T
2208.401	1.617	2231049	WORD	n/a	wordpools/wordpool_EN.txt	SPOON	5	15	[0, 0, 0]	n/a	FR1	0	R1204T
2210.018	0.967	2232666	WORD_OFF	n/a	n/a	SPOON	5	15	[0, 0, 0]	n/a	FR1	0	R1204T
2210.985	1.617	2233633	WORD	n/a	wordpools/wordpool_EN.txt	CORD	6	15	[0, 0, 0]	n/a	FR1	0	R1204T
2212.602	0.768	2235250	WORD_OFF	n/a	n/a	CORD	6	15	[0, 0, 0]	n/a	FR1	0	R1204T
2213.37	1.616	2236018	WORD	n/a	wordpools/wordpool_EN.txt	PIG	7	15	[0, 0, 0]	n/a	FR1	0	R1204T
2214.986	1.017	2237634	WORD_OFF	n/a	n/a	PIG	7	15	[0, 0, 0]	n/a	FR1	0	R1204T
2216.003	1.617	2238650	WORD	n/a	wordpools/wordpool_EN.txt	STEAM	8	15	[0, 0, 0]	n/a	FR1	0	R1204T
2217.62	0.9	2240267	WORD_OFF	n/a	n/a	STEAM	8	15	[0, 0, 0]	n/a	FR1	0	R1204T
2218.52	1.617	2241167	WORD	n/a	wordpools/wordpool_EN.txt	BRANCH	9	15	[0, 0, 0]	n/a	FR1	0	R1204T
2220.137	0.883	2242784	WORD_OFF	n/a	n/a	BRANCH	9	15	[0, 0, 0]	n/a	FR1	0	R1204T
2221.02	1.617	2243667	WORD	n/a	wordpools/wordpool_EN.txt	PLANT	10	15	[0, 0, 0]	n/a	FR1	0	R1204T
2222.637	0.767	2245284	WORD_OFF	n/a	n/a	PLANT	10	15	[0, 0, 0]	n/a	FR1	0	R1204T
2223.404	1.617	2246051	WORD	n/a	wordpools/wordpool_EN.txt	WEB	11	15	[0, 0, 0]	n/a	FR1	0	R1204T
2225.021	1.0	2247668	WORD_OFF	n/a	n/a	WEB	11	15	[0, 0, 0]	n/a	FR1	0	R1204T
2226.021	1.617	2248668	WORD	n/a	wordpools/wordpool_EN.txt	FILM	12	15	[0, 0, 0]	n/a	FR1	0	R1204T
2227.638	0.0	2250285	WORD_OFF	n/a	n/a	FILM	12	15	[0, 0, 0]	n/a	FR1	0	R1204T
2227.638	0.001	2250285	DISTRACT_START	n/a	n/a	n/a	-999	15	[0, 0, 0]	n/a	FR1	0	R1204T
2227.639	0.016	2250286	START	n/a	n/a	n/a	-999	15	[-999, -999, -999]	n/a	FR1	0	R1204T
2227.655	6.351	2250302	PROB	6.351	n/a	n/a	-999	15	[6, 8, 8]	22	FR1	0	R1204T
2234.006	7.118	2256652	PROB	7.118	n/a	n/a	-999	15	[6, 7, 1]	14	FR1	0	R1204T
2241.124	7.417	2263770	PROB	7.417	n/a	n/a	-999	15	[4, 8, 9]	21	FR1	0	R1204T
2248.541	0.018	2271187	STOP	n/a	n/a	n/a	-999	15	[-999, -999, -999]	n/a	FR1	0	R1204T
2248.559	0.6	2271205	DISTRACT_END	n/a	n/a	n/a	-999	15	[0, 0, 0]	n/a	FR1	0	R1204T
2249.159	0.517	2271805	RETRIEVAL_ORIENT	n/a	n/a	n/a	-999	15	[0, 0, 0]	n/a	FR1	0	R1204T
2249.676	0.966	2272321	REC_START	n/a	n/a	n/a	-999	15	[0, 0, 0]	n/a	FR1	0	R1204T
2250.642	0.432	2273287	REC_WORD_VV	0.432	n/a	<>	-999	15	[0, 0, 0]	n/a	FR1	0	R1204T
2251.074	0.875	2273719	REC_WORD	0.875	n/a	SUN	-999	15	[0, 0, 0]	n/a	FR1	0	R1204T
2251.949	2.434	2274594	REC_WORD	2.434	n/a	FROG	-999	15	[0, 0, 0]	n/a	FR1	0	R1204T
2254.383	1.779	2277028	REC_WORD	1.779	n/a	PIG	-999	15	[0, 0, 0]	n/a	FR1	0	R1204T
2256.162	4.088	2278807	REC_WORD	4.088	n/a	BRANCH	-999	15	[0, 0, 0]	n/a	FR1	0	R1204T
2260.25	3.833	2282895	REC_WORD_VV	3.833	n/a	<>	-999	15	[0, 0, 0]	n/a	FR1	0	R1204T
2264.083	7.525	2286728	REC_WORD_VV	7.525	n/a	<>	-999	15	[0, 0, 0]	n/a	FR1	0	R1204T
2271.608	8.082	2294252	REC_WORD_VV	8.082	n/a	<>	-999	15	[0, 0, 0]	n/a	FR1	0	R1204T
2279.69	31.43	2302334	REC_END	n/a	n/a	n/a	-999	15	[0, 0, 0]	n/a	FR1	0	R1204T
2311.12	0.5	2333762	TRIAL	n/a	n/a	n/a	-999	16	[0, 0, 0]	n/a	FR1	0	R1204T
2311.62	63330.227	2334262	COUNTDOWN_START	n/a	n/a	n/a	-999	16	[0, 0, 0]	n/a	FR1	0	R1204T
65641.847	0.0	65660747	SESSION_SKIPPED	n/a	n/a	n/a	-999	16	[0, 0, 0]	n/a	FR1	0	R1204T
