onset	duration	sample	trial_type	response_time	stim_file	item_name	serialpos	list	test	answer	experiment	session	subject
0.0	190.575	1865	INSTRUCT_START	n/a	n/a	n/a	-999	-999	[0, 0, 0]	n/a	FR1	0	R1329T
190.575	2.0	192430	INSTRUCT_END	n/a	n/a	n/a	-999	-999	[0, 0, 0]	n/a	FR1	0	R1329T
192.575	6.896	194430	MIC TEST_START	n/a	n/a	n/a	-999	-999	[0, 0, 0]	n/a	FR1	0	R1329T
199.471	0.009	201326	MIC TEST_END	n/a	n/a	n/a	-999	-999	[0, 0, 0]	n/a	FR1	0	R1329T
199.48	0.0	201335	TRIAL_START	n/a	n/a	n/a	-999	-1	[0, 0, 0]	n/a	FR1	0	R1329T
199.48	0.0	201335	TRIAL	n/a	n/a	n/a	-999	-1	[0, 0, 0]	n/a	FR1	0	R1329T
199.48	14.782	201335	WAITING_START	n/a	n/a	n/a	-999	-1	[0, 0, 0]	n/a	FR1	0	R1329T
214.262	0.001	216116	WAITING_END	n/a	n/a	n/a	-999	-1	[0, 0, 0]	n/a	FR1	0	R1329T
214.263	10.429	216117	COUNTDOWN_START	n/a	n/a	n/a	-999	-1	[0, 0, 0]	n/a	FR1	0	R1329T
224.692	0.001	226546	COUNTDOWN_END	n/a	n/a	n/a	-999	-1	[0, 0, 0]	n/a	FR1	0	R1329T
224.693	1.221	226547	ORIENT_START	n/a	n/a	n/a	-999	-1	[0, 0, 0]	n/a	FR1	0	R1329T
225.914	0.001	227768	ORIENT_END	n/a	n/a	n/a	-999	-1	[0, 0, 0]	n/a	FR1	0	R1329T
225.915	0.857	227769	ENCODING_START	n/a	n/a	n/a	-999	-1	[0, 0, 0]	n/a	FR1	0	R1329T
226.772	1.626	228626	WORD	n/a	n/a	COTTON	1	-1	[0, 0, 0]	n/a	FR1	0	R1329T
228.398	0.964	230252	WORD_OFF	n/a	n/a	COTTON	1	-1	[0, 0, 0]	n/a	FR1	0	R1329T
229.362	1.635	231215	WORD	n/a	n/a	BABY	2	-1	[0, 0, 0]	n/a	FR1	0	R1329T
230.997	1.063	232850	WORD_OFF	n/a	n/a	BABY	2	-1	[0, 0, 0]	n/a	FR1	0	R1329T
232.06	1.639	233913	WORD	n/a	n/a	RHINO	3	-1	[0, 0, 0]	n/a	FR1	0	R1329T
233.699	0.787	235552	WORD_OFF	n/a	n/a	RHINO	3	-1	[0, 0, 0]	n/a	FR1	0	R1329T
234.486	1.629	236339	WORD	n/a	n/a	CAMEL	4	-1	[0, 0, 0]	n/a	FR1	0	R1329T
236.115	1.074	237968	WORD_OFF	n/a	n/a	CAMEL	4	-1	[0, 0, 0]	n/a	FR1	0	R1329T
237.189	1.61	239042	WORD	n/a	n/a	TONGUE	5	-1	[0, 0, 0]	n/a	FR1	0	R1329T
238.799	0.913	240652	WORD_OFF	n/a	n/a	TONGUE	5	-1	[0, 0, 0]	n/a	FR1	0	R1329T
239.712	1.621	241565	WORD	n/a	n/a	RING	6	-1	[0, 0, 0]	n/a	FR1	0	R1329T
241.333	0.883	243186	WORD_OFF	n/a	n/a	RING	6	-1	[0, 0, 0]	n/a	FR1	0	R1329T
242.216	1.635	244069	WORD	n/a	n/a	WAGON	7	-1	[0, 0, 0]	n/a	FR1	0	R1329T
243.851	0.806	245704	WORD_OFF	n/a	n/a	WAGON	7	-1	[0, 0, 0]	n/a	FR1	0	R1329T
244.657	1.627	246510	WORD	n/a	n/a	FLOOD	8	-1	[0, 0, 0]	n/a	FR1	0	R1329T
246.284	0.932	248137	WORD_OFF	n/a	n/a	FLOOD	8	-1	[0, 0, 0]	n/a	FR1	0	R1329T
247.216	1.635	249069	WORD	n/a	n/a	BEAM	9	-1	[0, 0, 0]	n/a	FR1	0	R1329T
248.851	1.057	250704	WORD_OFF	n/a	n/a	BEAM	9	-1	[0, 0, 0]	n/a	FR1	0	R1329T
249.908	1.627	251760	WORD	n/a	n/a	WATCH	10	-1	[0, 0, 0]	n/a	FR1	0	R1329T
251.535	1.05	253387	WORD_OFF	n/a	n/a	WATCH	10	-1	[0, 0, 0]	n/a	FR1	0	R1329T
252.585	1.634	254437	WORD	n/a	n/a	IMAGE	11	-1	[0, 0, 0]	n/a	FR1	0	R1329T
254.219	1.054	256071	WORD_OFF	n/a	n/a	IMAGE	11	-1	[0, 0, 0]	n/a	FR1	0	R1329T
255.273	1.63	257125	WORD	n/a	n/a	CHEST	12	-1	[0, 0, 0]	n/a	FR1	0	R1329T
256.903	0.0	258755	WORD_OFF	n/a	n/a	CHEST	12	-1	[0, 0, 0]	n/a	FR1	0	R1329T
256.903	0.001	258755	ENCODING_END	n/a	n/a	n/a	-999	-1	[0, 0, 0]	n/a	FR1	0	R1329T
256.904	0.0	258756	DISTRACT_START	n/a	n/a	n/a	-999	-1	[0, 0, 0]	n/a	FR1	0	R1329T
256.904	0.015	258756	START	n/a	n/a	n/a	-999	-1	[-999, -999, -999]	n/a	FR1	0	R1329T
256.919	28.1	258771	PROB	28.1	n/a	n/a	-999	-1	[4, 2, 7]	13	FR1	0	R1329T
285.019	0.021	286870	STOP	n/a	n/a	n/a	-999	-1	[-999, -999, -999]	n/a	FR1	0	R1329T
285.04	0.685	286891	DISTRACT_END	n/a	n/a	n/a	-999	-1	[0, 0, 0]	n/a	FR1	0	R1329T
285.725	1.583	287576	RETRIEVAL_ORIENT_START	n/a	n/a	n/a	-999	-1	[0, 0, 0]	n/a	FR1	0	R1329T
287.308	0.001	289159	RETRIEVAL_ORIENT_END	n/a	n/a	n/a	-999	-1	[0, 0, 0]	n/a	FR1	0	R1329T
287.309	4.18	289160	REC_START	n/a	n/a	n/a	-999	-1	[0, 0, 0]	n/a	FR1	0	R1329T
291.489	0.068	293339	REC_WORD_VV	0.068	n/a	<>	-999	-1	[0, 0, 0]	n/a	FR1	0	R1329T
291.557	1.168	293407	REC_WORD	1.168	n/a	FOOD	-999	-1	[0, 0, 0]	n/a	FR1	0	R1329T
292.725	2.437	294575	REC_WORD	2.437	n/a	WAGON	7	-1	[0, 0, 0]	n/a	FR1	0	R1329T
295.162	1.192	297012	REC_WORD	1.192	n/a	COTTON	1	-1	[0, 0, 0]	n/a	FR1	0	R1329T
296.354	1.422	298204	REC_WORD	1.422	n/a	BABY	2	-1	[0, 0, 0]	n/a	FR1	0	R1329T
297.776	5.482	299626	REC_WORD_VV	5.482	n/a	<>	-999	-1	[0, 0, 0]	n/a	FR1	0	R1329T
303.258	0.919	305108	REC_WORD	0.919	n/a	CAMEL	4	-1	[0, 0, 0]	n/a	FR1	0	R1329T
304.177	0.711	306027	REC_WORD	0.711	n/a	RHINO	3	-1	[0, 0, 0]	n/a	FR1	0	R1329T
304.888	2.203	306738	REC_WORD_VV	2.203	n/a	<>	-999	-1	[0, 0, 0]	n/a	FR1	0	R1329T
307.091	1.0	308941	REC_WORD_VV	1.0	n/a	<>	-999	-1	[0, 0, 0]	n/a	FR1	0	R1329T
308.091	0.998	309941	REC_WORD_VV	0.998	n/a	<>	-999	-1	[0, 0, 0]	n/a	FR1	0	R1329T
309.089	1.0	310939	REC_WORD_VV	1.0	n/a	<>	-999	-1	[0, 0, 0]	n/a	FR1	0	R1329T
310.089	7.231	311939	REC_WORD_VV	7.231	n/a	<>	-999	-1	[0, 0, 0]	n/a	FR1	0	R1329T
317.32	0.0	319169	REC_END	n/a	n/a	n/a	-999	-1	[0, 0, 0]	n/a	FR1	0	R1329T
317.32	103.13	319169	PRACTICE_POST_INSTRUCT_START	n/a	n/a	n/a	-999	-1	[0, 0, 0]	n/a	FR1	0	R1329T
420.45	0.0	422294	PRACTICE_POST_INSTRUCT_END	n/a	n/a	n/a	-999	-1	[0, 0, 0]	n/a	FR1	0	R1329T
420.45	0.018	422294	TRIAL_END	n/a	n/a	n/a	-999	-1	[0, 0, 0]	n/a	FR1	0	R1329T
420.468	0.0	422312	TRIAL_START	n/a	n/a	n/a	-999	1	[0, 0, 0]	n/a	FR1	0	R1329T
420.468	0.0	422312	TRIAL	n/a	n/a	n/a	-999	1	[0, 0, 0]	n/a	FR1	0	R1329T
420.468	10.85	422312	WAITING_START	n/a	n/a	n/a	-999	1	[0, 0, 0]	n/a	FR1	0	R1329T
431.318	0.0	433162	COUNTDOWN_START	n/a	n/a	n/a	-999	1	[0, 0, 0]	n/a	FR1	0	R1329T
431.318	10.429	433162	WAITING_END	n/a	n/a	n/a	-999	1	[0, 0, 0]	n/a	FR1	0	R1329T
441.747	0.0	443590	COUNTDOWN_END	n/a	n/a	n/a	-999	1	[0, 0, 0]	n/a	FR1	0	R1329T
441.747	1.09	443590	ORIENT_START	n/a	n/a	n/a	-999	1	[0, 0, 0]	n/a	FR1	0	R1329T
442.837	0.0	444680	ORIENT_END	n/a	n/a	n/a	-999	1	[0, 0, 0]	n/a	FR1	0	R1329T
442.837	1.009	444680	ENCODING_START	n/a	n/a	n/a	-999	1	[0, 0, 0]	n/a	FR1	0	R1329T
443.846	1.625	445689	WORD	n/a	wordpools/wordpool_EN.txt	CLOCK	1	1	[0, 0, 0]	n/a	FR1	0	R1329T
445.471	0.971	447314	WORD_OFF	n/a	n/a	CLOCK	1	1	[0, 0, 0]	n/a	FR1	0	R1329T
446.442	1.628	448285	WORD	n/a	wordpools/wordpool_EN.txt	CROW	2	1	[0, 0, 0]	n/a	FR1	0	R1329T
448.07	0.818	449913	WORD_OFF	n/a	n/a	CROW	2	1	[0, 0, 0]	n/a	FR1	0	R1329T
448.888	1.633	450731	WORD	n/a	wordpools/wordpool_EN.txt	BOOT	3	1	[0, 0, 0]	n/a	FR1	0	R1329T
450.521	1.016	452364	WORD_OFF	n/a	n/a	BOOT	3	1	[0, 0, 0]	n/a	FR1	0	R1329T
451.537	1.634	453380	WORD	n/a	wordpools/wordpool_EN.txt	CLOTH	4	1	[0, 0, 0]	n/a	FR1	0	R1329T
453.171	0.843	455014	WORD_OFF	n/a	n/a	CLOTH	4	1	[0, 0, 0]	n/a	FR1	0	R1329T
454.014	1.608	455857	WORD	n/a	wordpools/wordpool_EN.txt	STAIR	5	1	[0, 0, 0]	n/a	FR1	0	R1329T
455.622	0.979	457464	WORD_OFF	n/a	n/a	STAIR	5	1	[0, 0, 0]	n/a	FR1	0	R1329T
456.601	1.622	458443	WORD	n/a	wordpools/wordpool_EN.txt	CHAIR	6	1	[0, 0, 0]	n/a	FR1	0	R1329T
458.223	0.966	460065	WORD_OFF	n/a	n/a	CHAIR	6	1	[0, 0, 0]	n/a	FR1	0	R1329T
459.189	1.617	461031	WORD	n/a	wordpools/wordpool_EN.txt	BALL	7	1	[0, 0, 0]	n/a	FR1	0	R1329T
460.806	0.848	462648	WORD_OFF	n/a	n/a	BALL	7	1	[0, 0, 0]	n/a	FR1	0	R1329T
461.654	1.637	463496	WORD	n/a	wordpools/wordpool_EN.txt	SWAMP	8	1	[0, 0, 0]	n/a	FR1	0	R1329T
463.291	1.061	465133	WORD_OFF	n/a	n/a	SWAMP	8	1	[0, 0, 0]	n/a	FR1	0	R1329T
464.352	1.621	466194	WORD	n/a	wordpools/wordpool_EN.txt	PLATE	9	1	[0, 0, 0]	n/a	FR1	0	R1329T
465.973	1.072	467815	WORD_OFF	n/a	n/a	PLATE	9	1	[0, 0, 0]	n/a	FR1	0	R1329T
467.045	1.63	468887	WORD	n/a	wordpools/wordpool_EN.txt	PET	10	1	[0, 0, 0]	n/a	FR1	0	R1329T
468.675	1.136	470517	WORD_OFF	n/a	n/a	PET	10	1	[0, 0, 0]	n/a	FR1	0	R1329T
469.811	1.631	471653	WORD	n/a	wordpools/wordpool_EN.txt	CLIFF	11	1	[0, 0, 0]	n/a	FR1	0	R1329T
471.442	0.871	473284	WORD_OFF	n/a	n/a	CLIFF	11	1	[0, 0, 0]	n/a	FR1	0	R1329T
472.313	1.628	474155	WORD	n/a	wordpools/wordpool_EN.txt	COW	12	1	[0, 0, 0]	n/a	FR1	0	R1329T
473.941	0.001	475783	WORD_OFF	n/a	n/a	COW	12	1	[0, 0, 0]	n/a	FR1	0	R1329T
473.942	0.0	475784	ENCODING_END	n/a	n/a	n/a	-999	1	[0, 0, 0]	n/a	FR1	0	R1329T
473.942	0.0	475784	DISTRACT_START	n/a	n/a	n/a	-999	1	[0, 0, 0]	n/a	FR1	0	R1329T
473.942	0.016	475784	START	n/a	n/a	n/a	-999	1	[-999, -999, -999]	n/a	FR1	0	R1329T
473.958	15.654	475800	PROB	15.654	n/a	n/a	-999	1	[3, 8, 9]	20	FR1	0	R1329T
489.612	10.178	491453	PROB	10.178	n/a	n/a	-999	1	[5, 3, 4]	12	FR1	0	R1329T
499.79	0.007	501630	STOP	n/a	n/a	n/a	-999	1	[-999, -999, -999]	n/a	FR1	0	R1329T
499.797	0.52	501637	DISTRACT_END	n/a	n/a	n/a	-999	1	[0, 0, 0]	n/a	FR1	0	R1329T
500.317	1.663	502157	RETRIEVAL_ORIENT_START	n/a	n/a	n/a	-999	1	[0, 0, 0]	n/a	FR1	0	R1329T
501.98	0.0	503820	RETRIEVAL_ORIENT_END	n/a	n/a	n/a	-999	1	[0, 0, 0]	n/a	FR1	0	R1329T
501.98	1.412	503820	REC_START	n/a	n/a	n/a	-999	1	[0, 0, 0]	n/a	FR1	0	R1329T
503.392	0.517	505232	REC_WORD	0.517	n/a	CLOCK	1	1	[0, 0, 0]	n/a	FR1	0	R1329T
503.909	2.116	505749	REC_WORD	2.116	n/a	CROW	2	1	[0, 0, 0]	n/a	FR1	0	R1329T
506.025	4.952	507865	REC_WORD	4.952	n/a	CHAIR	6	1	[0, 0, 0]	n/a	FR1	0	R1329T
510.977	5.584	512817	REC_WORD_VV	5.584	n/a	<>	-999	1	[0, 0, 0]	n/a	FR1	0	R1329T
516.561	0.672	518400	REC_WORD	0.672	n/a	CLOTH	4	1	[0, 0, 0]	n/a	FR1	0	R1329T
517.233	1.0	519072	REC_WORD_VV	1.0	n/a	<>	-999	1	[0, 0, 0]	n/a	FR1	0	R1329T
518.233	6.446	520072	REC_WORD_VV	6.446	n/a	<>	-999	1	[0, 0, 0]	n/a	FR1	0	R1329T
524.679	1.0	526518	REC_WORD_VV	1.0	n/a	<>	-999	1	[0, 0, 0]	n/a	FR1	0	R1329T
525.679	1.0	527518	REC_WORD_VV	1.0	n/a	<>	-999	1	[0, 0, 0]	n/a	FR1	0	R1329T
526.679	2.681	528518	REC_WORD_VV	2.681	n/a	<>	-999	1	[0, 0, 0]	n/a	FR1	0	R1329T
529.36	0.273	531199	REC_WORD	0.273	n/a	PLATE	9	1	[0, 0, 0]	n/a	FR1	0	R1329T
529.633	1.0	531472	REC_WORD_VV	1.0	n/a	<>	-999	1	[0, 0, 0]	n/a	FR1	0	R1329T
530.633	1.36	532472	REC_WORD_VV	1.36	n/a	<>	-999	1	[0, 0, 0]	n/a	FR1	0	R1329T
531.993	0.001	533832	REC_END	n/a	n/a	n/a	-999	1	[0, 0, 0]	n/a	FR1	0	R1329T
531.994	0.013	533833	TRIAL_END	n/a	n/a	n/a	-999	1	[0, 0, 0]	n/a	FR1	0	R1329T
532.007	0.001	533846	TRIAL_START	n/a	n/a	n/a	-999	2	[0, 0, 0]	n/a	FR1	0	R1329T
532.008	0.0	533847	TRIAL	n/a	n/a	n/a	-999	2	[0, 0, 0]	n/a	FR1	0	R1329T
532.008	39.652	533847	WAITING_START	n/a	n/a	n/a	-999	2	[0, 0, 0]	n/a	FR1	0	R1329T
571.66	0.001	573497	WAITING_END	n/a	n/a	n/a	-999	2	[0, 0, 0]	n/a	FR1	0	R1329T
571.661	10.428	573498	COUNTDOWN_START	n/a	n/a	n/a	-999	2	[0, 0, 0]	n/a	FR1	0	R1329T
582.089	0.001	583925	COUNTDOWN_END	n/a	n/a	n/a	-999	2	[0, 0, 0]	n/a	FR1	0	R1329T
582.09	1.021	583926	ORIENT_START	n/a	n/a	n/a	-999	2	[0, 0, 0]	n/a	FR1	0	R1329T
583.111	0.001	584947	ORIENT_END	n/a	n/a	n/a	-999	2	[0, 0, 0]	n/a	FR1	0	R1329T
583.112	1.059	584948	ENCODING_START	n/a	n/a	n/a	-999	2	[0, 0, 0]	n/a	FR1	0	R1329T
584.171	1.625	586007	WORD	n/a	wordpools/wordpool_EN.txt	ARK	1	2	[0, 0, 0]	n/a	FR1	0	R1329T
585.796	0.873	587632	WORD_OFF	n/a	n/a	ARK	1	2	[0, 0, 0]	n/a	FR1	0	R1329T
586.669	1.628	588505	WORD	n/a	wordpools/wordpool_EN.txt	TOOL	2	2	[0, 0, 0]	n/a	FR1	0	R1329T
588.297	1.049	590133	WORD_OFF	n/a	n/a	TOOL	2	2	[0, 0, 0]	n/a	FR1	0	R1329T
589.346	1.633	591182	WORD	n/a	wordpools/wordpool_EN.txt	FORK	3	2	[0, 0, 0]	n/a	FR1	0	R1329T
590.979	1.1	592815	WORD_OFF	n/a	n/a	FORK	3	2	[0, 0, 0]	n/a	FR1	0	R1329T
592.079	1.635	593915	WORD	n/a	wordpools/wordpool_EN.txt	SLUSH	4	2	[0, 0, 0]	n/a	FR1	0	R1329T
593.714	0.961	595550	WORD_OFF	n/a	n/a	SLUSH	4	2	[0, 0, 0]	n/a	FR1	0	R1329T
594.675	1.623	596511	WORD	n/a	wordpools/wordpool_EN.txt	VEST	5	2	[0, 0, 0]	n/a	FR1	0	R1329T
596.298	1.081	598134	WORD_OFF	n/a	n/a	VEST	5	2	[0, 0, 0]	n/a	FR1	0	R1329T
597.379	1.635	599215	WORD	n/a	wordpools/wordpool_EN.txt	PASTE	6	2	[0, 0, 0]	n/a	FR1	0	R1329T
599.014	0.938	600849	WORD_OFF	n/a	n/a	PASTE	6	2	[0, 0, 0]	n/a	FR1	0	R1329T
599.952	1.63	601787	WORD	n/a	wordpools/wordpool_EN.txt	CORD	7	2	[0, 0, 0]	n/a	FR1	0	R1329T
601.582	0.908	603417	WORD_OFF	n/a	n/a	CORD	7	2	[0, 0, 0]	n/a	FR1	0	R1329T
602.49	1.625	604325	WORD	n/a	wordpools/wordpool_EN.txt	SHRIMP	8	2	[0, 0, 0]	n/a	FR1	0	R1329T
604.115	1.045	605950	WORD_OFF	n/a	n/a	SHRIMP	8	2	[0, 0, 0]	n/a	FR1	0	R1329T
605.16	1.623	606995	WORD	n/a	wordpools/wordpool_EN.txt	WEED	9	2	[0, 0, 0]	n/a	FR1	0	R1329T
606.783	0.97	608618	WORD_OFF	n/a	n/a	WEED	9	2	[0, 0, 0]	n/a	FR1	0	R1329T
607.753	1.631	609588	WORD	n/a	wordpools/wordpool_EN.txt	TEA	10	2	[0, 0, 0]	n/a	FR1	0	R1329T
609.384	1.034	611219	WORD_OFF	n/a	n/a	TEA	10	2	[0, 0, 0]	n/a	FR1	0	R1329T
610.418	1.632	612253	WORD	n/a	wordpools/wordpool_EN.txt	TEETH	11	2	[0, 0, 0]	n/a	FR1	0	R1329T
612.05	1.061	613885	WORD_OFF	n/a	n/a	TEETH	11	2	[0, 0, 0]	n/a	FR1	0	R1329T
613.111	1.624	614946	WORD	n/a	wordpools/wordpool_EN.txt	WEB	12	2	[0, 0, 0]	n/a	FR1	0	R1329T
614.735	0.0	616570	WORD_OFF	n/a	n/a	WEB	12	2	[0, 0, 0]	n/a	FR1	0	R1329T
614.735	0.0	616570	ENCODING_END	n/a	n/a	n/a	-999	2	[0, 0, 0]	n/a	FR1	0	R1329T
614.735	0.0	616570	DISTRACT_START	n/a	n/a	n/a	-999	2	[0, 0, 0]	n/a	FR1	0	R1329T
614.735	0.016	616570	START	n/a	n/a	n/a	-999	2	[-999, -999, -999]	n/a	FR1	0	R1329T
614.751	19.386	616586	PROB	19.386	n/a	n/a	-999	2	[7, 4, 5]	16	FR1	0	R1329T
634.137	4.567	635971	PROB	4.567	n/a	n/a	-999	2	[6, 1, 1]	8	FR1	0	R1329T
638.704	0.018	640538	STOP	n/a	n/a	n/a	-999	2	[-999, -999, -999]	n/a	FR1	0	R1329T
638.722	0.525	640555	DISTRACT_END	n/a	n/a	n/a	-999	2	[0, 0, 0]	n/a	FR1	0	R1329T
639.247	1.609	641080	RETRIEVAL_ORIENT_START	n/a	n/a	n/a	-999	2	[0, 0, 0]	n/a	FR1	0	R1329T
640.856	0.0	642689	RETRIEVAL_ORIENT_END	n/a	n/a	n/a	-999	2	[0, 0, 0]	n/a	FR1	0	R1329T
640.856	0.78	642689	REC_START	n/a	n/a	n/a	-999	2	[0, 0, 0]	n/a	FR1	0	R1329T
641.636	0.892	643469	REC_WORD	0.892	n/a	ARK	1	2	[0, 0, 0]	n/a	FR1	0	R1329T
642.528	3.952	644361	REC_WORD	3.952	n/a	TOOL	2	2	[0, 0, 0]	n/a	FR1	0	R1329T
646.48	0.913	648313	REC_WORD	0.913	n/a	SLUSH	4	2	[0, 0, 0]	n/a	FR1	0	R1329T
647.393	0.528	649226	REC_WORD	0.528	n/a	FORK	3	2	[0, 0, 0]	n/a	FR1	0	R1329T
647.921	1.468	649754	REC_WORD	1.468	n/a	VEST	5	2	[0, 0, 0]	n/a	FR1	0	R1329T
649.389	1.0	651222	REC_WORD_VV	1.0	n/a	<>	-999	2	[0, 0, 0]	n/a	FR1	0	R1329T
650.389	0.298	652222	REC_WORD_VV	0.298	n/a	<>	-999	2	[0, 0, 0]	n/a	FR1	0	R1329T
650.687	0.498	652520	REC_WORD	0.498	n/a	PASTE	6	2	[0, 0, 0]	n/a	FR1	0	R1329T
651.185	1.0	653018	REC_WORD_VV	1.0	n/a	<>	-999	2	[0, 0, 0]	n/a	FR1	0	R1329T
652.185	5.122	654018	REC_WORD_VV	5.122	n/a	<>	-999	2	[0, 0, 0]	n/a	FR1	0	R1329T
657.307	13.561	659140	REC_WORD_VV	13.561	n/a	<>	-999	2	[0, 0, 0]	n/a	FR1	0	R1329T
670.868	0.001	672700	REC_END	n/a	n/a	n/a	-999	2	[0, 0, 0]	n/a	FR1	0	R1329T
670.869	0.015	672701	TRIAL_END	n/a	n/a	n/a	-999	2	[0, 0, 0]	n/a	FR1	0	R1329T
670.884	0.0	672716	TRIAL_START	n/a	n/a	n/a	-999	3	[0, 0, 0]	n/a	FR1	0	R1329T
670.884	0.0	672716	TRIAL	n/a	n/a	n/a	-999	3	[0, 0, 0]	n/a	FR1	0	R1329T
670.884	10.813	672716	WAITING_START	n/a	n/a	n/a	-999	3	[0, 0, 0]	n/a	FR1	0	R1329T
681.697	0.0	683528	WAITING_END	n/a	n/a	n/a	-999	3	[0, 0, 0]	n/a	FR1	0	R1329T
681.697	10.429	683528	COUNTDOWN_START	n/a	n/a	n/a	-999	3	[0, 0, 0]	n/a	FR1	0	R1329T
692.126	0.001	693957	COUNTDOWN_END	n/a	n/a	n/a	-999	3	[0, 0, 0]	n/a	FR1	0	R1329T
692.127	1.071	693958	ORIENT_START	n/a	n/a	n/a	-999	3	[0, 0, 0]	n/a	FR1	0	R1329T
693.198	0.0	695029	ORIENT_END	n/a	n/a	n/a	-999	3	[0, 0, 0]	n/a	FR1	0	R1329T
693.198	0.941	695029	ENCODING_START	n/a	n/a	n/a	-999	3	[0, 0, 0]	n/a	FR1	0	R1329T
694.139	1.627	695970	WORD	n/a	wordpools/wordpool_EN.txt	JUDGE	1	3	[0, 0, 0]	n/a	FR1	0	R1329T
695.766	1.119	697597	WORD_OFF	n/a	n/a	JUDGE	1	3	[0, 0, 0]	n/a	FR1	0	R1329T
696.885	1.632	698716	WORD	n/a	wordpools/wordpool_EN.txt	NEST	2	3	[0, 0, 0]	n/a	FR1	0	R1329T
698.517	1.104	700348	WORD_OFF	n/a	n/a	NEST	2	3	[0, 0, 0]	n/a	FR1	0	R1329T
699.621	1.629	701452	WORD	n/a	wordpools/wordpool_EN.txt	SOUP	3	3	[0, 0, 0]	n/a	FR1	0	R1329T
701.25	1.063	703080	WORD_OFF	n/a	n/a	SOUP	3	3	[0, 0, 0]	n/a	FR1	0	R1329T
702.313	1.62	704143	WORD	n/a	wordpools/wordpool_EN.txt	HAND	4	3	[0, 0, 0]	n/a	FR1	0	R1329T
703.933	1.098	705763	WORD_OFF	n/a	n/a	HAND	4	3	[0, 0, 0]	n/a	FR1	0	R1329T
705.031	1.637	706861	WORD	n/a	wordpools/wordpool_EN.txt	HEN	5	3	[0, 0, 0]	n/a	FR1	0	R1329T
706.668	0.973	708498	WORD_OFF	n/a	n/a	HEN	5	3	[0, 0, 0]	n/a	FR1	0	R1329T
707.641	1.628	709471	WORD	n/a	wordpools/wordpool_EN.txt	SQUARE	6	3	[0, 0, 0]	n/a	FR1	0	R1329T
709.269	0.89	711099	WORD_OFF	n/a	n/a	SQUARE	6	3	[0, 0, 0]	n/a	FR1	0	R1329T
710.159	1.627	711989	WORD	n/a	wordpools/wordpool_EN.txt	ICE	7	3	[0, 0, 0]	n/a	FR1	0	R1329T
711.786	1.127	713616	WORD_OFF	n/a	n/a	ICE	7	3	[0, 0, 0]	n/a	FR1	0	R1329T
712.913	1.623	714743	WORD	n/a	wordpools/wordpool_EN.txt	HORSE	8	3	[0, 0, 0]	n/a	FR1	0	R1329T
714.536	0.811	716366	WORD_OFF	n/a	n/a	HORSE	8	3	[0, 0, 0]	n/a	FR1	0	R1329T
715.347	1.622	717177	WORD	n/a	wordpools/wordpool_EN.txt	SPRING	9	3	[0, 0, 0]	n/a	FR1	0	R1329T
716.969	0.828	718799	WORD_OFF	n/a	n/a	SPRING	9	3	[0, 0, 0]	n/a	FR1	0	R1329T
717.797	1.623	719627	WORD	n/a	wordpools/wordpool_EN.txt	SKI	10	3	[0, 0, 0]	n/a	FR1	0	R1329T
719.42	0.87	721250	WORD_OFF	n/a	n/a	SKI	10	3	[0, 0, 0]	n/a	FR1	0	R1329T
720.29	1.631	722120	WORD	n/a	wordpools/wordpool_EN.txt	ROOF	11	3	[0, 0, 0]	n/a	FR1	0	R1329T
721.921	1.017	723750	WORD_OFF	n/a	n/a	ROOF	11	3	[0, 0, 0]	n/a	FR1	0	R1329T
722.938	1.617	724767	WORD	n/a	wordpools/wordpool_EN.txt	SEA	12	3	[0, 0, 0]	n/a	FR1	0	R1329T
724.555	0.0	726384	WORD_OFF	n/a	n/a	SEA	12	3	[0, 0, 0]	n/a	FR1	0	R1329T
724.555	0.0	726384	ENCODING_END	n/a	n/a	n/a	-999	3	[0, 0, 0]	n/a	FR1	0	R1329T
724.555	0.0	726384	DISTRACT_START	n/a	n/a	n/a	-999	3	[0, 0, 0]	n/a	FR1	0	R1329T
724.555	0.016	726384	START	n/a	n/a	n/a	-999	3	[-999, -999, -999]	n/a	FR1	0	R1329T
724.571	13.319	726400	PROB	13.319	n/a	n/a	-999	3	[1, 7, 6]	14	FR1	0	R1329T
737.89	7.164	739719	PROB	7.164	n/a	n/a	-999	3	[7, 5, 1]	13	FR1	0	R1329T
745.054	0.02	746882	STOP	n/a	n/a	n/a	-999	3	[-999, -999, -999]	n/a	FR1	0	R1329T
745.074	0.548	746902	DISTRACT_END	n/a	n/a	n/a	-999	3	[0, 0, 0]	n/a	FR1	0	R1329T
745.622	1.703	747450	RETRIEVAL_ORIENT_START	n/a	n/a	n/a	-999	3	[0, 0, 0]	n/a	FR1	0	R1329T
747.325	0.001	749153	RETRIEVAL_ORIENT_END	n/a	n/a	n/a	-999	3	[0, 0, 0]	n/a	FR1	0	R1329T
747.326	1.041	749154	REC_START	n/a	n/a	n/a	-999	3	[0, 0, 0]	n/a	FR1	0	R1329T
748.367	3.117	750195	REC_WORD_VV	3.117	n/a	<>	-999	3	[0, 0, 0]	n/a	FR1	0	R1329T
751.484	0.99	753312	REC_WORD	0.99	n/a	JUDGE	1	3	[0, 0, 0]	n/a	FR1	0	R1329T
752.474	0.607	754302	REC_WORD	0.607	n/a	NEST	2	3	[0, 0, 0]	n/a	FR1	0	R1329T
753.081	0.555	754909	REC_WORD	0.555	n/a	SOUP	3	3	[0, 0, 0]	n/a	FR1	0	R1329T
753.636	0.487	755464	REC_WORD	0.487	n/a	HAND	4	3	[0, 0, 0]	n/a	FR1	0	R1329T
754.123	1.181	755951	REC_WORD	1.181	n/a	HEN	5	3	[0, 0, 0]	n/a	FR1	0	R1329T
755.304	8.89	757132	REC_WORD_VV	8.89	n/a	<>	-999	3	[0, 0, 0]	n/a	FR1	0	R1329T
764.194	1.0	766021	REC_WORD_VV	1.0	n/a	<>	-999	3	[0, 0, 0]	n/a	FR1	0	R1329T
765.194	8.445	767021	REC_WORD_VV	8.445	n/a	<>	-999	3	[0, 0, 0]	n/a	FR1	0	R1329T
773.639	3.698	775466	REC_WORD_VV	3.698	n/a	<>	-999	3	[0, 0, 0]	n/a	FR1	0	R1329T
777.337	0.0	779164	REC_END	n/a	n/a	n/a	-999	3	[0, 0, 0]	n/a	FR1	0	R1329T
777.337	0.016	779164	TRIAL_END	n/a	n/a	n/a	-999	3	[0, 0, 0]	n/a	FR1	0	R1329T
777.353	0.0	779180	TRIAL_START	n/a	n/a	n/a	-999	4	[0, 0, 0]	n/a	FR1	0	R1329T
777.353	0.001	779180	TRIAL	n/a	n/a	n/a	-999	4	[0, 0, 0]	n/a	FR1	0	R1329T
777.354	63.688	779181	WAITING_START	n/a	n/a	n/a	-999	4	[0, 0, 0]	n/a	FR1	0	R1329T
841.042	0.0	842866	WAITING_END	n/a	n/a	n/a	-999	4	[0, 0, 0]	n/a	FR1	0	R1329T
841.042	10.429	842866	COUNTDOWN_START	n/a	n/a	n/a	-999	4	[0, 0, 0]	n/a	FR1	0	R1329T
851.471	0.0	853294	COUNTDOWN_END	n/a	n/a	n/a	-999	4	[0, 0, 0]	n/a	FR1	0	R1329T
851.471	1.174	853294	ORIENT_START	n/a	n/a	n/a	-999	4	[0, 0, 0]	n/a	FR1	0	R1329T
852.645	0.0	854468	ENCODING_START	n/a	n/a	n/a	-999	4	[0, 0, 0]	n/a	FR1	0	R1329T
852.645	0.838	854468	ORIENT_END	n/a	n/a	n/a	-999	4	[0, 0, 0]	n/a	FR1	0	R1329T
853.483	1.628	855306	WORD	n/a	wordpools/wordpool_EN.txt	LOCK	1	4	[0, 0, 0]	n/a	FR1	0	R1329T
855.111	0.852	856934	WORD_OFF	n/a	n/a	LOCK	1	4	[0, 0, 0]	n/a	FR1	0	R1329T
855.963	1.632	857786	WORD	n/a	wordpools/wordpool_EN.txt	STORE	2	4	[0, 0, 0]	n/a	FR1	0	R1329T
857.595	0.806	859418	WORD_OFF	n/a	n/a	STORE	2	4	[0, 0, 0]	n/a	FR1	0	R1329T
858.401	1.627	860224	WORD	n/a	wordpools/wordpool_EN.txt	GLASS	3	4	[0, 0, 0]	n/a	FR1	0	R1329T
860.028	0.925	861851	WORD_OFF	n/a	n/a	GLASS	3	4	[0, 0, 0]	n/a	FR1	0	R1329T
860.953	1.627	862776	WORD	n/a	wordpools/wordpool_EN.txt	SHELL	4	4	[0, 0, 0]	n/a	FR1	0	R1329T
862.58	0.908	864403	WORD_OFF	n/a	n/a	SHELL	4	4	[0, 0, 0]	n/a	FR1	0	R1329T
863.488	1.624	865311	WORD	n/a	wordpools/wordpool_EN.txt	FUR	5	4	[0, 0, 0]	n/a	FR1	0	R1329T
865.112	1.125	866934	WORD_OFF	n/a	n/a	FUR	5	4	[0, 0, 0]	n/a	FR1	0	R1329T
866.237	1.627	868059	WORD	n/a	wordpools/wordpool_EN.txt	TRAY	6	4	[0, 0, 0]	n/a	FR1	0	R1329T
867.864	1.025	869686	WORD_OFF	n/a	n/a	TRAY	6	4	[0, 0, 0]	n/a	FR1	0	R1329T
868.889	1.625	870711	WORD	n/a	wordpools/wordpool_EN.txt	FOG	7	4	[0, 0, 0]	n/a	FR1	0	R1329T
870.514	1.138	872336	WORD_OFF	n/a	n/a	FOG	7	4	[0, 0, 0]	n/a	FR1	0	R1329T
871.652	1.63	873474	WORD	n/a	wordpools/wordpool_EN.txt	DEER	8	4	[0, 0, 0]	n/a	FR1	0	R1329T
873.282	0.894	875104	WORD_OFF	n/a	n/a	DEER	8	4	[0, 0, 0]	n/a	FR1	0	R1329T
874.176	1.639	875998	WORD	n/a	wordpools/wordpool_EN.txt	BRIDGE	9	4	[0, 0, 0]	n/a	FR1	0	R1329T
875.815	0.991	877637	WORD_OFF	n/a	n/a	BRIDGE	9	4	[0, 0, 0]	n/a	FR1	0	R1329T
876.806	1.627	878628	WORD	n/a	wordpools/wordpool_EN.txt	GOLD	10	4	[0, 0, 0]	n/a	FR1	0	R1329T
878.433	1.074	-1	WORD_OFF	n/a	n/a	GOLD	10	4	[0, 0, 0]	n/a	FR1	0	R1329T
879.507	1.625	-1	WORD	n/a	wordpools/wordpool_EN.txt	COUCH	11	4	[0, 0, 0]	n/a	FR1	0	R1329T
881.132	0.924	-1	WORD_OFF	n/a	n/a	COUCH	11	4	[0, 0, 0]	n/a	FR1	0	R1329T
882.056	1.611	-1	WORD	n/a	wordpools/wordpool_EN.txt	TRAIN	12	4	[0, 0, 0]	n/a	FR1	0	R1329T
883.667	0.0	-1	WORD_OFF	n/a	n/a	TRAIN	12	4	[0, 0, 0]	n/a	FR1	0	R1329T
883.667	0.001	-1	ENCODING_END	n/a	n/a	n/a	-999	4	[0, 0, 0]	n/a	FR1	0	R1329T
883.668	0.0	-1	DISTRACT_START	n/a	n/a	n/a	-999	4	[0, 0, 0]	n/a	FR1	0	R1329T
883.668	255.248	-1	START	n/a	n/a	n/a	-999	4	[-999, -999, -999]	n/a	FR1	0	R1329T
1138.916	26.852	1318	INSTRUCT_START	n/a	n/a	n/a	-999	4	[0, 0, 0]	n/a	FR1	0	R1329T
1165.768	7.235	28168	INSTRUCT_END	n/a	n/a	n/a	-999	4	[0, 0, 0]	n/a	FR1	0	R1329T
1173.003	8.602	35403	MIC TEST_START	n/a	n/a	n/a	-999	4	[0, 0, 0]	n/a	FR1	0	R1329T
1181.605	0.01	44005	MIC TEST_END	n/a	n/a	n/a	-999	4	[0, 0, 0]	n/a	FR1	0	R1329T
1181.615	0.0	44015	WAITING_START	n/a	n/a	n/a	-999	4	[0, 0, 0]	n/a	FR1	0	R1329T
1181.615	0.0	44015	TRIAL	n/a	n/a	n/a	-999	4	[0, 0, 0]	n/a	FR1	0	R1329T
1181.615	100.742	44015	TRIAL_START	n/a	n/a	n/a	-999	4	[0, 0, 0]	n/a	FR1	0	R1329T
1282.357	0.001	144752	WAITING_END	n/a	n/a	n/a	-999	4	[0, 0, 0]	n/a	FR1	0	R1329T
1282.358	10.429	144753	COUNTDOWN_START	n/a	n/a	n/a	-999	4	[0, 0, 0]	n/a	FR1	0	R1329T
1292.787	0.001	155182	COUNTDOWN_END	n/a	n/a	n/a	-999	4	[0, 0, 0]	n/a	FR1	0	R1329T
1292.788	1.236	155183	ORIENT_START	n/a	n/a	n/a	-999	4	[0, 0, 0]	n/a	FR1	0	R1329T
1294.024	0.001	156419	ORIENT_END	n/a	n/a	n/a	-999	4	[0, 0, 0]	n/a	FR1	0	R1329T
1294.025	0.812	156420	ENCODING_START	n/a	n/a	n/a	-999	4	[0, 0, 0]	n/a	FR1	0	R1329T
1294.837	1.639	157232	WORD	n/a	wordpools/wordpool_EN.txt	LOCK	1	4	[0, 0, 0]	n/a	FR1	0	R1329T
1296.476	1.094	158871	WORD_OFF	n/a	n/a	LOCK	1	4	[0, 0, 0]	n/a	FR1	0	R1329T
1297.57	1.622	159964	WORD	n/a	wordpools/wordpool_EN.txt	STORE	2	4	[0, 0, 0]	n/a	FR1	0	R1329T
1299.192	1.029	161586	WORD_OFF	n/a	n/a	STORE	2	4	[0, 0, 0]	n/a	FR1	0	R1329T
1300.221	1.622	162615	WORD	n/a	wordpools/wordpool_EN.txt	GLASS	3	4	[0, 0, 0]	n/a	FR1	0	R1329T
1301.843	0.817	164237	WORD_OFF	n/a	n/a	GLASS	3	4	[0, 0, 0]	n/a	FR1	0	R1329T
1302.66	1.634	165054	WORD	n/a	wordpools/wordpool_EN.txt	SHELL	4	4	[0, 0, 0]	n/a	FR1	0	R1329T
1304.294	0.905	166688	WORD_OFF	n/a	n/a	SHELL	4	4	[0, 0, 0]	n/a	FR1	0	R1329T
1305.199	1.628	167593	WORD	n/a	wordpools/wordpool_EN.txt	FUR	5	4	[0, 0, 0]	n/a	FR1	0	R1329T
1306.827	0.854	169221	WORD_OFF	n/a	n/a	FUR	5	4	[0, 0, 0]	n/a	FR1	0	R1329T
1307.681	1.614	170075	WORD	n/a	wordpools/wordpool_EN.txt	TRAY	6	4	[0, 0, 0]	n/a	FR1	0	R1329T
1309.295	0.785	171689	WORD_OFF	n/a	n/a	TRAY	6	4	[0, 0, 0]	n/a	FR1	0	R1329T
1310.08	1.631	172474	WORD	n/a	wordpools/wordpool_EN.txt	FOG	7	4	[0, 0, 0]	n/a	FR1	0	R1329T
1311.711	0.756	174105	WORD_OFF	n/a	n/a	FOG	7	4	[0, 0, 0]	n/a	FR1	0	R1329T
1312.467	1.628	174861	WORD	n/a	wordpools/wordpool_EN.txt	DEER	8	4	[0, 0, 0]	n/a	FR1	0	R1329T
1314.095	1.136	176489	WORD_OFF	n/a	n/a	DEER	8	4	[0, 0, 0]	n/a	FR1	0	R1329T
1315.231	1.631	177625	WORD	n/a	wordpools/wordpool_EN.txt	BRIDGE	9	4	[0, 0, 0]	n/a	FR1	0	R1329T
1316.862	0.89	179256	WORD_OFF	n/a	n/a	BRIDGE	9	4	[0, 0, 0]	n/a	FR1	0	R1329T
1317.752	1.628	180146	WORD	n/a	wordpools/wordpool_EN.txt	GOLD	10	4	[0, 0, 0]	n/a	FR1	0	R1329T
1319.38	1.144	181774	WORD_OFF	n/a	n/a	GOLD	10	4	[0, 0, 0]	n/a	FR1	0	R1329T
1320.524	1.622	182917	WORD	n/a	wordpools/wordpool_EN.txt	COUCH	11	4	[0, 0, 0]	n/a	FR1	0	R1329T
1322.146	1.13	184539	WORD_OFF	n/a	n/a	COUCH	11	4	[0, 0, 0]	n/a	FR1	0	R1329T
1323.276	1.637	185669	WORD	n/a	wordpools/wordpool_EN.txt	TRAIN	12	4	[0, 0, 0]	n/a	FR1	0	R1329T
1324.913	0.001	187306	WORD_OFF	n/a	n/a	TRAIN	12	4	[0, 0, 0]	n/a	FR1	0	R1329T
1324.914	0.0	187307	DISTRACT_START	n/a	n/a	n/a	-999	4	[0, 0, 0]	n/a	FR1	0	R1329T
1324.914	0.0	187307	ENCODING_END	n/a	n/a	n/a	-999	4	[0, 0, 0]	n/a	FR1	0	R1329T
1324.914	0.016	187307	START	n/a	n/a	n/a	-999	5	[-999, -999, -999]	n/a	FR1	0	R1329T
1324.93	5.452	187323	PROB	5.452	n/a	n/a	-999	5	[1, 1, 9]	11	FR1	0	R1329T
1330.382	7.517	192775	PROB	7.517	n/a	n/a	-999	5	[3, 9, 5]	12	FR1	0	R1329T
1337.899	15.028	200292	PROB	15.028	n/a	n/a	-999	5	[9, 7, 1]	17	FR1	0	R1329T
1352.927	0.008	215319	STOP	n/a	n/a	n/a	-999	5	[-999, -999, -999]	n/a	FR1	0	R1329T
1352.935	0.52	215327	DISTRACT_END	n/a	n/a	n/a	-999	4	[0, 0, 0]	n/a	FR1	0	R1329T
1353.455	1.597	215847	RETRIEVAL_ORIENT_START	n/a	n/a	n/a	-999	4	[0, 0, 0]	n/a	FR1	0	R1329T
1355.052	0.001	217444	RETRIEVAL_ORIENT_END	n/a	n/a	n/a	-999	4	[0, 0, 0]	n/a	FR1	0	R1329T
1355.053	0.999	217445	REC_START	n/a	n/a	n/a	-999	4	[0, 0, 0]	n/a	FR1	0	R1329T
1356.052	0.676	218444	REC_WORD_VV	0.676	n/a	<>	-999	4	[0, 0, 0]	n/a	FR1	0	R1329T
1356.728	1.327	219120	REC_WORD	1.327	n/a	STORE	2	4	[0, 0, 0]	n/a	FR1	0	R1329T
1358.055	1.624	220447	REC_WORD	1.624	n/a	GLASS	3	4	[0, 0, 0]	n/a	FR1	0	R1329T
1359.679	1.79	222071	REC_WORD	1.79	n/a	SHELL	4	4	[0, 0, 0]	n/a	FR1	0	R1329T
1361.469	0.732	223861	REC_WORD	0.732	n/a	FUR	5	4	[0, 0, 0]	n/a	FR1	0	R1329T
1362.201	2.477	224593	REC_WORD_VV	2.477	n/a	<>	-999	4	[0, 0, 0]	n/a	FR1	0	R1329T
1364.678	0.398	227069	REC_WORD	0.398	n/a	TRAIN	12	4	[0, 0, 0]	n/a	FR1	0	R1329T
1365.076	18.796	227467	REC_WORD_VV	18.796	n/a	<>	-999	4	[0, 0, 0]	n/a	FR1	0	R1329T
1383.872	1.0	246263	REC_WORD_VV	1.0	n/a	<>	-999	4	[0, 0, 0]	n/a	FR1	0	R1329T
1384.872	0.192	247263	REC_WORD_VV	0.192	n/a	<>	-999	4	[0, 0, 0]	n/a	FR1	0	R1329T
1385.064	0.0	247455	TRIAL_END	n/a	n/a	n/a	-999	4	[0, 0, 0]	n/a	FR1	0	R1329T
1385.064	0.014	247455	REC_END	n/a	n/a	n/a	-999	4	[0, 0, 0]	n/a	FR1	0	R1329T
1385.078	0.001	247469	TRIAL_START	n/a	n/a	n/a	-999	5	[0, 0, 0]	n/a	FR1	0	R1329T
1385.079	0.0	247470	TRIAL	n/a	n/a	n/a	-999	5	[0, 0, 0]	n/a	FR1	0	R1329T
1385.079	16.199	247470	WAITING_START	n/a	n/a	n/a	-999	5	[0, 0, 0]	n/a	FR1	0	R1329T
1401.278	0.001	263668	WAITING_END	n/a	n/a	n/a	-999	5	[0, 0, 0]	n/a	FR1	0	R1329T
1401.279	10.429	263669	COUNTDOWN_START	n/a	n/a	n/a	-999	5	[0, 0, 0]	n/a	FR1	0	R1329T
1411.708	0.001	274097	COUNTDOWN_END	n/a	n/a	n/a	-999	5	[0, 0, 0]	n/a	FR1	0	R1329T
1411.709	1.154	274098	ORIENT_START	n/a	n/a	n/a	-999	5	[0, 0, 0]	n/a	FR1	0	R1329T
1412.863	0.001	275252	ORIENT_END	n/a	n/a	n/a	-999	5	[0, 0, 0]	n/a	FR1	0	R1329T
1412.864	1.126	275253	ENCODING_START	n/a	n/a	n/a	-999	5	[0, 0, 0]	n/a	FR1	0	R1329T
1413.99	1.623	276379	WORD	n/a	wordpools/wordpool_EN.txt	MAT	1	5	[0, 0, 0]	n/a	FR1	0	R1329T
1415.613	0.776	278002	WORD_OFF	n/a	n/a	MAT	1	5	[0, 0, 0]	n/a	FR1	0	R1329T
1416.389	1.625	278778	WORD	n/a	wordpools/wordpool_EN.txt	TOAST	2	5	[0, 0, 0]	n/a	FR1	0	R1329T
1418.014	1.083	280403	WORD_OFF	n/a	n/a	TOAST	2	5	[0, 0, 0]	n/a	FR1	0	R1329T
1419.097	1.634	281486	WORD	n/a	wordpools/wordpool_EN.txt	ANT	3	5	[0, 0, 0]	n/a	FR1	0	R1329T
1420.731	0.855	283120	WORD_OFF	n/a	n/a	ANT	3	5	[0, 0, 0]	n/a	FR1	0	R1329T
1421.586	1.63	283975	WORD	n/a	wordpools/wordpool_EN.txt	MAP	4	5	[0, 0, 0]	n/a	FR1	0	R1329T
1423.216	0.953	285605	WORD_OFF	n/a	n/a	MAP	4	5	[0, 0, 0]	n/a	FR1	0	R1329T
1424.169	1.629	286558	WORD	n/a	wordpools/wordpool_EN.txt	BAT	5	5	[0, 0, 0]	n/a	FR1	0	R1329T
1425.798	0.841	288187	WORD_OFF	n/a	n/a	BAT	5	5	[0, 0, 0]	n/a	FR1	0	R1329T
1426.639	1.611	289028	WORD	n/a	wordpools/wordpool_EN.txt	RAIN	6	5	[0, 0, 0]	n/a	FR1	0	R1329T
1428.25	0.935	290639	WORD_OFF	n/a	n/a	RAIN	6	5	[0, 0, 0]	n/a	FR1	0	R1329T
1429.185	1.631	291574	WORD	n/a	wordpools/wordpool_EN.txt	FRUIT	7	5	[0, 0, 0]	n/a	FR1	0	R1329T
1430.816	1.037	293204	WORD_OFF	n/a	n/a	FRUIT	7	5	[0, 0, 0]	n/a	FR1	0	R1329T
1431.853	1.631	294241	WORD	n/a	wordpools/wordpool_EN.txt	BARN	8	5	[0, 0, 0]	n/a	FR1	0	R1329T
1433.484	1.105	295872	WORD_OFF	n/a	n/a	BARN	8	5	[0, 0, 0]	n/a	FR1	0	R1329T
1434.589	1.629	296977	WORD	n/a	wordpools/wordpool_EN.txt	AXE	9	5	[0, 0, 0]	n/a	FR1	0	R1329T
1436.218	1.042	298606	WORD_OFF	n/a	n/a	AXE	9	5	[0, 0, 0]	n/a	FR1	0	R1329T
1437.26	1.624	299648	WORD	n/a	wordpools/wordpool_EN.txt	MOTH	10	5	[0, 0, 0]	n/a	FR1	0	R1329T
1438.884	0.758	301272	WORD_OFF	n/a	n/a	MOTH	10	5	[0, 0, 0]	n/a	FR1	0	R1329T
1439.642	1.61	302030	WORD	n/a	wordpools/wordpool_EN.txt	PURSE	11	5	[0, 0, 0]	n/a	FR1	0	R1329T
1441.252	0.826	303640	WORD_OFF	n/a	n/a	PURSE	11	5	[0, 0, 0]	n/a	FR1	0	R1329T
1442.078	1.624	304466	WORD	n/a	wordpools/wordpool_EN.txt	LEAF	12	5	[0, 0, 0]	n/a	FR1	0	R1329T
1443.702	0.0	306090	WORD_OFF	n/a	n/a	LEAF	12	5	[0, 0, 0]	n/a	FR1	0	R1329T
1443.702	0.001	306090	ENCODING_END	n/a	n/a	n/a	-999	5	[0, 0, 0]	n/a	FR1	0	R1329T
1443.703	0.0	306091	DISTRACT_START	n/a	n/a	n/a	-999	5	[0, 0, 0]	n/a	FR1	0	R1329T
1443.703	0.015	306091	START	n/a	n/a	n/a	-999	6	[-999, -999, -999]	n/a	FR1	0	R1329T
1443.718	17.053	306106	PROB	17.053	n/a	n/a	-999	6	[6, 8, 4]	18	FR1	0	R1329T
1460.771	9.154	323158	PROB	9.154	n/a	n/a	-999	6	[6, 3, 5]	14	FR1	0	R1329T
1469.925	0.015	332312	STOP	n/a	n/a	n/a	-999	6	[-999, -999, -999]	n/a	FR1	0	R1329T
1469.94	0.64	332327	DISTRACT_END	n/a	n/a	n/a	-999	5	[0, 0, 0]	n/a	FR1	0	R1329T
1470.58	1.594	332967	RETRIEVAL_ORIENT_START	n/a	n/a	n/a	-999	5	[0, 0, 0]	n/a	FR1	0	R1329T
1472.174	0.0	334561	RETRIEVAL_ORIENT_END	n/a	n/a	n/a	-999	5	[0, 0, 0]	n/a	FR1	0	R1329T
1472.174	5.765	334561	REC_START	n/a	n/a	n/a	-999	5	[0, 0, 0]	n/a	FR1	0	R1329T
1477.939	4.784	340325	REC_WORD_VV	4.784	n/a	<>	-999	5	[0, 0, 0]	n/a	FR1	0	R1329T
1482.723	1.365	345109	REC_WORD_VV	1.365	n/a	<>	-999	5	[0, 0, 0]	n/a	FR1	0	R1329T
1484.088	0.874	346474	REC_WORD	0.874	n/a	MAP	4	5	[0, 0, 0]	n/a	FR1	0	R1329T
1484.962	2.268	347348	REC_WORD	2.268	n/a	ANT	3	5	[0, 0, 0]	n/a	FR1	0	R1329T
1487.23	1.743	349616	REC_WORD	1.743	n/a	BAT	5	5	[0, 0, 0]	n/a	FR1	0	R1329T
1488.973	1.003	351359	REC_WORD_VV	1.003	n/a	<>	-999	5	[0, 0, 0]	n/a	FR1	0	R1329T
1489.976	0.546	352362	REC_WORD	0.546	n/a	BARN	8	5	[0, 0, 0]	n/a	FR1	0	R1329T
1490.522	1.475	352908	REC_WORD_VV	1.475	n/a	<>	-999	5	[0, 0, 0]	n/a	FR1	0	R1329T
1491.997	3.23	354383	REC_WORD	3.23	n/a	AXE	9	5	[0, 0, 0]	n/a	FR1	0	R1329T
1495.227	1.0	357613	REC_WORD_VV	1.0	n/a	<>	-999	5	[0, 0, 0]	n/a	FR1	0	R1329T
1496.227	1.0	358612	REC_WORD_VV	1.0	n/a	<>	-999	5	[0, 0, 0]	n/a	FR1	0	R1329T
1497.227	4.796	359612	REC_WORD_VV	4.796	n/a	<>	-999	5	[0, 0, 0]	n/a	FR1	0	R1329T
1502.023	0.164	364408	REC_WORD_VV	0.164	n/a	<>	-999	5	[0, 0, 0]	n/a	FR1	0	R1329T
1502.187	0.0	364572	REC_END	n/a	n/a	n/a	-999	5	[0, 0, 0]	n/a	FR1	0	R1329T
1502.187	0.014	364572	TRIAL_END	n/a	n/a	n/a	-999	5	[0, 0, 0]	n/a	FR1	0	R1329T
1502.201	0.001	364586	TRIAL_START	n/a	n/a	n/a	-999	6	[0, 0, 0]	n/a	FR1	0	R1329T
1502.202	0.0	364587	TRIAL	n/a	n/a	n/a	-999	6	[0, 0, 0]	n/a	FR1	0	R1329T
1502.202	12.33	364587	WAITING_START	n/a	n/a	n/a	-999	6	[0, 0, 0]	n/a	FR1	0	R1329T
1514.532	0.001	376917	WAITING_END	n/a	n/a	n/a	-999	6	[0, 0, 0]	n/a	FR1	0	R1329T
1514.533	10.428	376918	COUNTDOWN_START	n/a	n/a	n/a	-999	6	[0, 0, 0]	n/a	FR1	0	R1329T
1524.961	0.001	387345	COUNTDOWN_END	n/a	n/a	n/a	-999	6	[0, 0, 0]	n/a	FR1	0	R1329T
1524.962	1.155	387346	ORIENT_START	n/a	n/a	n/a	-999	6	[0, 0, 0]	n/a	FR1	0	R1329T
1526.117	0.0	388501	ENCODING_START	n/a	n/a	n/a	-999	6	[0, 0, 0]	n/a	FR1	0	R1329T
1526.117	0.911	388501	ORIENT_END	n/a	n/a	n/a	-999	6	[0, 0, 0]	n/a	FR1	0	R1329T
1527.028	1.622	389412	WORD	n/a	wordpools/wordpool_EN.txt	RICE	1	6	[0, 0, 0]	n/a	FR1	0	R1329T
1528.65	1.102	391034	WORD_OFF	n/a	n/a	RICE	1	6	[0, 0, 0]	n/a	FR1	0	R1329T
1529.752	1.616	392136	WORD	n/a	wordpools/wordpool_EN.txt	SHEEP	2	6	[0, 0, 0]	n/a	FR1	0	R1329T
1531.368	0.762	393752	WORD_OFF	n/a	n/a	SHEEP	2	6	[0, 0, 0]	n/a	FR1	0	R1329T
1532.13	1.622	394514	WORD	n/a	wordpools/wordpool_EN.txt	BEAN	3	6	[0, 0, 0]	n/a	FR1	0	R1329T
1533.752	0.893	396136	WORD_OFF	n/a	n/a	BEAN	3	6	[0, 0, 0]	n/a	FR1	0	R1329T
1534.645	1.608	397029	WORD	n/a	wordpools/wordpool_EN.txt	TRUCK	4	6	[0, 0, 0]	n/a	FR1	0	R1329T
1536.253	0.782	398637	WORD_OFF	n/a	n/a	TRUCK	4	6	[0, 0, 0]	n/a	FR1	0	R1329T
1537.035	1.634	399419	WORD	n/a	wordpools/wordpool_EN.txt	ROPE	5	6	[0, 0, 0]	n/a	FR1	0	R1329T
1538.669	0.807	401053	WORD_OFF	n/a	n/a	ROPE	5	6	[0, 0, 0]	n/a	FR1	0	R1329T
1539.476	1.627	401860	WORD	n/a	wordpools/wordpool_EN.txt	BRUSH	6	6	[0, 0, 0]	n/a	FR1	0	R1329T
1541.103	1.097	403486	WORD_OFF	n/a	n/a	BRUSH	6	6	[0, 0, 0]	n/a	FR1	0	R1329T
1542.2	1.62	404583	WORD	n/a	wordpools/wordpool_EN.txt	PIT	7	6	[0, 0, 0]	n/a	FR1	0	R1329T
1543.82	0.989	406203	WORD_OFF	n/a	n/a	PIT	7	6	[0, 0, 0]	n/a	FR1	0	R1329T
1544.809	1.629	407192	WORD	n/a	wordpools/wordpool_EN.txt	OWL	8	6	[0, 0, 0]	n/a	FR1	0	R1329T
1546.438	1.076	408821	WORD_OFF	n/a	n/a	OWL	8	6	[0, 0, 0]	n/a	FR1	0	R1329T
1547.514	1.624	409897	WORD	n/a	wordpools/wordpool_EN.txt	CORN	9	6	[0, 0, 0]	n/a	FR1	0	R1329T
1549.138	0.927	411521	WORD_OFF	n/a	n/a	CORN	9	6	[0, 0, 0]	n/a	FR1	0	R1329T
1550.065	1.623	412448	WORD	n/a	wordpools/wordpool_EN.txt	PEAR	10	6	[0, 0, 0]	n/a	FR1	0	R1329T
1551.688	0.801	414071	WORD_OFF	n/a	n/a	PEAR	10	6	[0, 0, 0]	n/a	FR1	0	R1329T
1552.489	1.633	414872	WORD	n/a	wordpools/wordpool_EN.txt	TRASH	11	6	[0, 0, 0]	n/a	FR1	0	R1329T
1554.122	1.06	416505	WORD_OFF	n/a	n/a	TRASH	11	6	[0, 0, 0]	n/a	FR1	0	R1329T
1555.182	1.624	417565	WORD	n/a	wordpools/wordpool_EN.txt	HOOK	12	6	[0, 0, 0]	n/a	FR1	0	R1329T
1556.806	0.0	419189	WORD_OFF	n/a	n/a	HOOK	12	6	[0, 0, 0]	n/a	FR1	0	R1329T
1556.806	0.0	419189	ENCODING_END	n/a	n/a	n/a	-999	6	[0, 0, 0]	n/a	FR1	0	R1329T
1556.806	0.001	419189	DISTRACT_START	n/a	n/a	n/a	-999	6	[0, 0, 0]	n/a	FR1	0	R1329T
1556.807	0.015	419190	START	n/a	n/a	n/a	-999	7	[-999, -999, -999]	n/a	FR1	0	R1329T
1556.822	8.185	419205	PROB	8.185	n/a	n/a	-999	7	[7, 4, 6]	17	FR1	0	R1329T
1565.007	5.868	427389	PROB	5.868	n/a	n/a	-999	7	[6, 7, 1]	14	FR1	0	R1329T
1570.875	5.717	433257	PROB	5.717	n/a	n/a	-999	7	[9, 1, 4]	14	FR1	0	R1329T
1576.592	8.302	438974	PROB	8.302	n/a	n/a	-999	7	[7, 7, 1]	15	FR1	0	R1329T
1584.894	0.017	447275	STOP	n/a	n/a	n/a	-999	7	[-999, -999, -999]	n/a	FR1	0	R1329T
1584.911	0.66	447292	DISTRACT_END	n/a	n/a	n/a	-999	6	[0, 0, 0]	n/a	FR1	0	R1329T
1585.571	1.708	447952	RETRIEVAL_ORIENT_START	n/a	n/a	n/a	-999	6	[0, 0, 0]	n/a	FR1	0	R1329T
1587.279	0.0	449660	RETRIEVAL_ORIENT_END	n/a	n/a	n/a	-999	6	[0, 0, 0]	n/a	FR1	0	R1329T
1587.279	0.115	449660	REC_START	n/a	n/a	n/a	-999	6	[0, 0, 0]	n/a	FR1	0	R1329T
1587.394	0.496	449775	REC_WORD	0.496	n/a	BRUSH	6	6	[0, 0, 0]	n/a	FR1	0	R1329T
1587.89	0.74	450271	REC_WORD	0.74	n/a	SHEEP	2	6	[0, 0, 0]	n/a	FR1	0	R1329T
1588.63	0.672	451011	REC_WORD	0.672	n/a	TRUCK	4	6	[0, 0, 0]	n/a	FR1	0	R1329T
1589.302	0.738	451683	REC_WORD	0.738	n/a	ROPE	5	6	[0, 0, 0]	n/a	FR1	0	R1329T
1590.04	2.893	452421	REC_WORD	2.893	n/a	BARN	-999	6	[0, 0, 0]	n/a	FR1	0	R1329T
1592.933	0.775	455314	REC_WORD_VV	0.775	n/a	<>	-999	6	[0, 0, 0]	n/a	FR1	0	R1329T
1593.708	0.377	456089	REC_WORD	0.377	n/a	PEAR	10	6	[0, 0, 0]	n/a	FR1	0	R1329T
1594.085	7.305	456466	REC_WORD_VV	7.305	n/a	<>	-999	6	[0, 0, 0]	n/a	FR1	0	R1329T
1601.39	15.9	463771	REC_WORD_VV	15.9	n/a	<>	-999	6	[0, 0, 0]	n/a	FR1	0	R1329T
1617.29	0.0	479670	REC_END	n/a	n/a	n/a	-999	6	[0, 0, 0]	n/a	FR1	0	R1329T
1617.29	0.014	479670	TRIAL_END	n/a	n/a	n/a	-999	6	[0, 0, 0]	n/a	FR1	0	R1329T
1617.304	0.0	479684	TRIAL_START	n/a	n/a	n/a	-999	7	[0, 0, 0]	n/a	FR1	0	R1329T
1617.304	0.001	479684	TRIAL	n/a	n/a	n/a	-999	7	[0, 0, 0]	n/a	FR1	0	R1329T
1617.305	35.568	479685	WAITING_START	n/a	n/a	n/a	-999	7	[0, 0, 0]	n/a	FR1	0	R1329T
1652.873	0.001	515251	WAITING_END	n/a	n/a	n/a	-999	7	[0, 0, 0]	n/a	FR1	0	R1329T
1652.874	10.429	515252	COUNTDOWN_START	n/a	n/a	n/a	-999	7	[0, 0, 0]	n/a	FR1	0	R1329T
1663.303	0.0	525681	COUNTDOWN_END	n/a	n/a	n/a	-999	7	[0, 0, 0]	n/a	FR1	0	R1329T
1663.303	1.157	525681	ORIENT_START	n/a	n/a	n/a	-999	7	[0, 0, 0]	n/a	FR1	0	R1329T
1664.46	0.0	526838	ENCODING_START	n/a	n/a	n/a	-999	7	[0, 0, 0]	n/a	FR1	0	R1329T
1664.46	1.098	526838	ORIENT_END	n/a	n/a	n/a	-999	7	[0, 0, 0]	n/a	FR1	0	R1329T
1665.558	1.634	527936	WORD	n/a	wordpools/wordpool_EN.txt	STEM	1	7	[0, 0, 0]	n/a	FR1	0	R1329T
1667.192	1.003	529570	WORD_OFF	n/a	n/a	STEM	1	7	[0, 0, 0]	n/a	FR1	0	R1329T
1668.195	1.631	530573	WORD	n/a	wordpools/wordpool_EN.txt	EGG	2	7	[0, 0, 0]	n/a	FR1	0	R1329T
1669.826	0.861	532204	WORD_OFF	n/a	n/a	EGG	2	7	[0, 0, 0]	n/a	FR1	0	R1329T
1670.687	1.624	533065	WORD	n/a	wordpools/wordpool_EN.txt	SMILE	3	7	[0, 0, 0]	n/a	FR1	0	R1329T
1672.311	0.807	534689	WORD_OFF	n/a	n/a	SMILE	3	7	[0, 0, 0]	n/a	FR1	0	R1329T
1673.118	1.626	535495	WORD	n/a	wordpools/wordpool_EN.txt	CONE	4	7	[0, 0, 0]	n/a	FR1	0	R1329T
1674.744	0.923	537121	WORD_OFF	n/a	n/a	CONE	4	7	[0, 0, 0]	n/a	FR1	0	R1329T
1675.667	1.628	538044	WORD	n/a	wordpools/wordpool_EN.txt	HOLE	5	7	[0, 0, 0]	n/a	FR1	0	R1329T
1677.295	0.914	539672	WORD_OFF	n/a	n/a	HOLE	5	7	[0, 0, 0]	n/a	FR1	0	R1329T
1678.209	1.636	540586	WORD	n/a	wordpools/wordpool_EN.txt	RIB	6	7	[0, 0, 0]	n/a	FR1	0	R1329T
1679.845	0.806	542222	WORD_OFF	n/a	n/a	RIB	6	7	[0, 0, 0]	n/a	FR1	0	R1329T
1680.651	1.612	543028	WORD	n/a	wordpools/wordpool_EN.txt	PIG	7	7	[0, 0, 0]	n/a	FR1	0	R1329T
1682.263	0.832	544640	WORD_OFF	n/a	n/a	PIG	7	7	[0, 0, 0]	n/a	FR1	0	R1329T
1683.095	1.634	545472	WORD	n/a	wordpools/wordpool_EN.txt	SKUNK	8	7	[0, 0, 0]	n/a	FR1	0	R1329T
1684.729	1.121	547106	WORD_OFF	n/a	n/a	SKUNK	8	7	[0, 0, 0]	n/a	FR1	0	R1329T
1685.85	1.613	548227	WORD	n/a	wordpools/wordpool_EN.txt	TIE	9	7	[0, 0, 0]	n/a	FR1	0	R1329T
1687.463	0.836	549840	WORD_OFF	n/a	n/a	TIE	9	7	[0, 0, 0]	n/a	FR1	0	R1329T
1688.299	1.631	550676	WORD	n/a	wordpools/wordpool_EN.txt	BEAK	10	7	[0, 0, 0]	n/a	FR1	0	R1329T
1689.93	1.019	552307	WORD_OFF	n/a	n/a	BEAK	10	7	[0, 0, 0]	n/a	FR1	0	R1329T
1690.949	1.631	553326	WORD	n/a	wordpools/wordpool_EN.txt	PEA	11	7	[0, 0, 0]	n/a	FR1	0	R1329T
1692.58	0.78	554957	WORD_OFF	n/a	n/a	PEA	11	7	[0, 0, 0]	n/a	FR1	0	R1329T
1693.36	1.621	555737	WORD	n/a	wordpools/wordpool_EN.txt	HAWK	12	7	[0, 0, 0]	n/a	FR1	0	R1329T
1694.981	0.0	557357	WORD_OFF	n/a	n/a	HAWK	12	7	[0, 0, 0]	n/a	FR1	0	R1329T
1694.981	0.001	557357	ENCODING_END	n/a	n/a	n/a	-999	7	[0, 0, 0]	n/a	FR1	0	R1329T
1694.982	0.0	557358	DISTRACT_START	n/a	n/a	n/a	-999	7	[0, 0, 0]	n/a	FR1	0	R1329T
1694.982	0.015	557358	START	n/a	n/a	n/a	-999	8	[-999, -999, -999]	n/a	FR1	0	R1329T
1694.997	8.935	557373	PROB	8.935	n/a	n/a	-999	8	[4, 5, 9]	18	FR1	0	R1329T
1703.932	7.185	566308	PROB	7.185	n/a	n/a	-999	8	[8, 5, 8]	21	FR1	0	R1329T
1711.117	8.015	573493	PROB	8.015	n/a	n/a	-999	8	[8, 5, 2]	15	FR1	0	R1329T
1719.132	0.02	581507	STOP	n/a	n/a	n/a	-999	8	[-999, -999, -999]	n/a	FR1	0	R1329T
1719.152	0.63	581527	DISTRACT_END	n/a	n/a	n/a	-999	7	[0, 0, 0]	n/a	FR1	0	R1329T
1719.782	1.671	582157	RETRIEVAL_ORIENT_START	n/a	n/a	n/a	-999	7	[0, 0, 0]	n/a	FR1	0	R1329T
1721.453	0.0	583828	RETRIEVAL_ORIENT_END	n/a	n/a	n/a	-999	7	[0, 0, 0]	n/a	FR1	0	R1329T
1721.453	0.208	583828	REC_START	n/a	n/a	n/a	-999	7	[0, 0, 0]	n/a	FR1	0	R1329T
1721.661	0.644	584036	REC_WORD	0.644	n/a	STEM	1	7	[0, 0, 0]	n/a	FR1	0	R1329T
1722.305	0.933	584680	REC_WORD	0.933	n/a	SMILE	3	7	[0, 0, 0]	n/a	FR1	0	R1329T
1723.238	0.46	585613	REC_WORD	0.46	n/a	EGG	2	7	[0, 0, 0]	n/a	FR1	0	R1329T
1723.698	0.911	586073	REC_WORD	0.911	n/a	HOLE	5	7	[0, 0, 0]	n/a	FR1	0	R1329T
1724.609	1.274	586984	REC_WORD_VV	1.274	n/a	<>	-999	7	[0, 0, 0]	n/a	FR1	0	R1329T
1725.883	0.339	588258	REC_WORD	0.339	n/a	COAL	-999	7	[0, 0, 0]	n/a	FR1	0	R1329T
1726.222	4.74	588597	REC_WORD_VV	4.74	n/a	<>	-999	7	[0, 0, 0]	n/a	FR1	0	R1329T
1730.962	4.957	593337	REC_WORD_VV	4.957	n/a	<>	-999	7	[0, 0, 0]	n/a	FR1	0	R1329T
1735.919	6.212	598294	REC_WORD_VV	6.212	n/a	<>	-999	7	[0, 0, 0]	n/a	FR1	0	R1329T
1742.131	9.334	604505	REC_WORD_VV	9.334	n/a	<>	-999	7	[0, 0, 0]	n/a	FR1	0	R1329T
1751.465	0.0	613839	REC_END	n/a	n/a	n/a	-999	7	[0, 0, 0]	n/a	FR1	0	R1329T
1751.465	0.016	613839	TRIAL_END	n/a	n/a	n/a	-999	7	[0, 0, 0]	n/a	FR1	0	R1329T
1751.481	0.0	613855	TRIAL_START	n/a	n/a	n/a	-999	8	[0, 0, 0]	n/a	FR1	0	R1329T
1751.481	0.0	613855	TRIAL	n/a	n/a	n/a	-999	8	[0, 0, 0]	n/a	FR1	0	R1329T
1751.481	5.812	613855	WAITING_START	n/a	n/a	n/a	-999	8	[0, 0, 0]	n/a	FR1	0	R1329T
1757.293	0.0	619667	COUNTDOWN_START	n/a	n/a	n/a	-999	8	[0, 0, 0]	n/a	FR1	0	R1329T
1757.293	10.429	619667	WAITING_END	n/a	n/a	n/a	-999	8	[0, 0, 0]	n/a	FR1	0	R1329T
1767.722	0.0	630095	COUNTDOWN_END	n/a	n/a	n/a	-999	8	[0, 0, 0]	n/a	FR1	0	R1329T
1767.722	1.106	630095	ORIENT_START	n/a	n/a	n/a	-999	8	[0, 0, 0]	n/a	FR1	0	R1329T
1768.828	0.0	631201	ORIENT_END	n/a	n/a	n/a	-999	8	[0, 0, 0]	n/a	FR1	0	R1329T
1768.828	1.086	631201	ENCODING_START	n/a	n/a	n/a	-999	8	[0, 0, 0]	n/a	FR1	0	R1329T
1769.914	1.615	632287	WORD	n/a	wordpools/wordpool_EN.txt	WORLD	1	8	[0, 0, 0]	n/a	FR1	0	R1329T
1771.529	1.12	633902	WORD_OFF	n/a	n/a	WORLD	1	8	[0, 0, 0]	n/a	FR1	0	R1329T
1772.649	1.63	635022	WORD	n/a	wordpools/wordpool_EN.txt	VAN	2	8	[0, 0, 0]	n/a	FR1	0	R1329T
1774.279	0.918	636652	WORD_OFF	n/a	n/a	VAN	2	8	[0, 0, 0]	n/a	FR1	0	R1329T
1775.197	1.632	637570	WORD	n/a	wordpools/wordpool_EN.txt	GRASS	3	8	[0, 0, 0]	n/a	FR1	0	R1329T
1776.829	1.034	639202	WORD_OFF	n/a	n/a	GRASS	3	8	[0, 0, 0]	n/a	FR1	0	R1329T
1777.863	1.617	640236	WORD	n/a	wordpools/wordpool_EN.txt	STAR	4	8	[0, 0, 0]	n/a	FR1	0	R1329T
1779.48	1.091	641853	WORD_OFF	n/a	n/a	STAR	4	8	[0, 0, 0]	n/a	FR1	0	R1329T
1780.571	1.626	642944	WORD	n/a	wordpools/wordpool_EN.txt	TOY	5	8	[0, 0, 0]	n/a	FR1	0	R1329T
1782.197	0.929	644570	WORD_OFF	n/a	n/a	TOY	5	8	[0, 0, 0]	n/a	FR1	0	R1329T
1783.126	1.621	645499	WORD	n/a	wordpools/wordpool_EN.txt	CASH	6	8	[0, 0, 0]	n/a	FR1	0	R1329T
1784.747	1.144	647119	WORD_OFF	n/a	n/a	CASH	6	8	[0, 0, 0]	n/a	FR1	0	R1329T
1785.891	1.607	648263	WORD	n/a	wordpools/wordpool_EN.txt	SWORD	7	8	[0, 0, 0]	n/a	FR1	0	R1329T
1787.498	1.029	649870	WORD_OFF	n/a	n/a	SWORD	7	8	[0, 0, 0]	n/a	FR1	0	R1329T
1788.527	1.621	650899	WORD	n/a	wordpools/wordpool_EN.txt	SUN	8	8	[0, 0, 0]	n/a	FR1	0	R1329T
1790.148	0.795	652520	WORD_OFF	n/a	n/a	SUN	8	8	[0, 0, 0]	n/a	FR1	0	R1329T
1790.943	1.622	653315	WORD	n/a	wordpools/wordpool_EN.txt	DRESS	9	8	[0, 0, 0]	n/a	FR1	0	R1329T
1792.565	0.778	654937	WORD_OFF	n/a	n/a	DRESS	9	8	[0, 0, 0]	n/a	FR1	0	R1329T
1793.343	1.623	655715	WORD	n/a	wordpools/wordpool_EN.txt	DUCK	10	8	[0, 0, 0]	n/a	FR1	0	R1329T
1794.966	1.013	657338	WORD_OFF	n/a	n/a	DUCK	10	8	[0, 0, 0]	n/a	FR1	0	R1329T
1795.979	1.637	658351	WORD	n/a	wordpools/wordpool_EN.txt	DOOR	11	8	[0, 0, 0]	n/a	FR1	0	R1329T
1797.616	0.917	659988	WORD_OFF	n/a	n/a	DOOR	11	8	[0, 0, 0]	n/a	FR1	0	R1329T
1798.533	1.634	660905	WORD	n/a	wordpools/wordpool_EN.txt	TREE	12	8	[0, 0, 0]	n/a	FR1	0	R1329T
1800.167	0.0	662539	WORD_OFF	n/a	n/a	TREE	12	8	[0, 0, 0]	n/a	FR1	0	R1329T
1800.167	0.0	662539	ENCODING_END	n/a	n/a	n/a	-999	8	[0, 0, 0]	n/a	FR1	0	R1329T
1800.167	0.001	662539	DISTRACT_START	n/a	n/a	n/a	-999	8	[0, 0, 0]	n/a	FR1	0	R1329T
1800.168	0.015	662540	START	n/a	n/a	n/a	-999	9	[-999, -999, -999]	n/a	FR1	0	R1329T
1800.183	7.768	662555	PROB	7.768	n/a	n/a	-999	9	[1, 7, 7]	15	FR1	0	R1329T
1807.951	8.603	670322	PROB	8.603	n/a	n/a	-999	9	[7, 9, 3]	15	FR1	0	R1329T
1816.554	4.677	678925	PROB	4.677	n/a	n/a	-999	9	[7, 1, 1]	9	FR1	0	R1329T
1821.231	0.007	683602	STOP	n/a	n/a	n/a	-999	9	[-999, -999, -999]	n/a	FR1	0	R1329T
1821.238	0.641	683609	DISTRACT_END	n/a	n/a	n/a	-999	8	[0, 0, 0]	n/a	FR1	0	R1329T
1821.879	1.676	684250	RETRIEVAL_ORIENT_START	n/a	n/a	n/a	-999	8	[0, 0, 0]	n/a	FR1	0	R1329T
1823.555	0.001	685926	RETRIEVAL_ORIENT_END	n/a	n/a	n/a	-999	8	[0, 0, 0]	n/a	FR1	0	R1329T
1823.556	1.323	685927	REC_START	n/a	n/a	n/a	-999	8	[0, 0, 0]	n/a	FR1	0	R1329T
1824.879	0.858	687250	REC_WORD	0.858	n/a	WORLD	1	8	[0, 0, 0]	n/a	FR1	0	R1329T
1825.737	2.063	688108	REC_WORD	2.063	n/a	VAN	2	8	[0, 0, 0]	n/a	FR1	0	R1329T
1827.8	6.978	690170	REC_WORD	6.978	n/a	SWORD	7	8	[0, 0, 0]	n/a	FR1	0	R1329T
1834.778	1.0	697148	REC_WORD_VV	1.0	n/a	<>	-999	8	[0, 0, 0]	n/a	FR1	0	R1329T
1835.778	1.0	698148	REC_WORD_VV	1.0	n/a	<>	-999	8	[0, 0, 0]	n/a	FR1	0	R1329T
1836.778	9.765	699148	REC_WORD_VV	9.765	n/a	<>	-999	8	[0, 0, 0]	n/a	FR1	0	R1329T
1846.543	7.024	708913	REC_WORD_VV	7.024	n/a	<>	-999	8	[0, 0, 0]	n/a	FR1	0	R1329T
1853.567	0.0	715936	REC_END	n/a	n/a	n/a	-999	8	[0, 0, 0]	n/a	FR1	0	R1329T
1853.567	0.014	715936	TRIAL_END	n/a	n/a	n/a	-999	8	[0, 0, 0]	n/a	FR1	0	R1329T
1853.581	0.0	715950	TRIAL_START	n/a	n/a	n/a	-999	9	[0, 0, 0]	n/a	FR1	0	R1329T
1853.581	0.001	715950	TRIAL	n/a	n/a	n/a	-999	9	[0, 0, 0]	n/a	FR1	0	R1329T
1853.582	61.039	715951	WAITING_START	n/a	n/a	n/a	-999	9	[0, 0, 0]	n/a	FR1	0	R1329T
1914.621	0.0	776988	WAITING_END	n/a	n/a	n/a	-999	9	[0, 0, 0]	n/a	FR1	0	R1329T
1914.621	0.0	776988	COUNTDOWN_START	n/a	n/a	n/a	-999	9	[0, 0, 0]	n/a	FR1	0	R1329T
