onset	duration	sample	trial_type	response_time	stim_file	item_name	serialpos	list	test	answer	experiment	session	subject
0.0	0.0	8738	INSTRUCT_START	n/a	n/a	n/a	-999	-999	[0, 0, 0]	n/a	FR1	0	R1222M
0.0	10.965	8738	INSTRUCT_END	n/a	n/a	n/a	-999	-999	[0, 0, 0]	n/a	FR1	0	R1222M
10.965	0.0	19703	SESS_START	n/a	n/a	n/a	-999	-999	[0, 0, 0]	n/a	FR1	0	R1222M
10.965	41.502	19703	MIC_TEST	n/a	n/a	n/a	-999	-999	[0, 0, 0]	n/a	FR1	0	R1222M
52.467	2.793	61202	PRACTICE_TRIAL	n/a	n/a	n/a	-999	-1	[0, 0, 0]	n/a	FR1	0	R1222M
55.26	10.428	63995	COUNTDOWN_START	n/a	n/a	n/a	-999	-1	[0, 0, 0]	n/a	FR1	0	R1222M
65.688	0.008	74423	COUNTDOWN_END	n/a	n/a	n/a	-999	-1	[0, 0, 0]	n/a	FR1	0	R1222M
65.696	1.616	74431	PRACTICE_ORIENT	n/a	n/a	n/a	-999	-1	[0, 0, 0]	n/a	FR1	0	R1222M
67.312	2.117	76047	PRACTICE_ORIENT_OFF	n/a	n/a	n/a	-999	-1	[0, 0, 0]	n/a	FR1	0	R1222M
69.429	1.618	78163	PRACTICE_WORD	n/a	n/a	TONGUE	1	-1	[0, 0, 0]	n/a	FR1	0	R1222M
71.047	0.833	79781	PRACTICE_WORD_OFF	n/a	n/a	TONGUE	-999	-1	[0, 0, 0]	n/a	FR1	0	R1222M
71.88	1.616	80614	PRACTICE_WORD	n/a	n/a	FLOOD	2	-1	[0, 0, 0]	n/a	FR1	0	R1222M
73.496	0.767	82230	PRACTICE_WORD_OFF	n/a	n/a	FLOOD	-999	-1	[0, 0, 0]	n/a	FR1	0	R1222M
74.263	1.601	82997	PRACTICE_WORD	n/a	n/a	WAGON	3	-1	[0, 0, 0]	n/a	FR1	0	R1222M
75.864	0.766	84598	PRACTICE_WORD_OFF	n/a	n/a	WAGON	-999	-1	[0, 0, 0]	n/a	FR1	0	R1222M
76.63	1.617	85364	PRACTICE_WORD	n/a	n/a	BEAM	4	-1	[0, 0, 0]	n/a	FR1	0	R1222M
78.247	0.851	86981	PRACTICE_WORD_OFF	n/a	n/a	BEAM	-999	-1	[0, 0, 0]	n/a	FR1	0	R1222M
79.098	1.617	87832	PRACTICE_WORD	n/a	n/a	RING	5	-1	[0, 0, 0]	n/a	FR1	0	R1222M
80.715	0.899	89449	PRACTICE_WORD_OFF	n/a	n/a	RING	-999	-1	[0, 0, 0]	n/a	FR1	0	R1222M
81.614	1.617	90348	PRACTICE_WORD	n/a	n/a	RHINO	6	-1	[0, 0, 0]	n/a	FR1	0	R1222M
83.231	0.868	91965	PRACTICE_WORD_OFF	n/a	n/a	RHINO	-999	-1	[0, 0, 0]	n/a	FR1	0	R1222M
84.099	1.617	92833	PRACTICE_WORD	n/a	n/a	CAMEL	7	-1	[0, 0, 0]	n/a	FR1	0	R1222M
85.716	0.899	94450	PRACTICE_WORD_OFF	n/a	n/a	CAMEL	-999	-1	[0, 0, 0]	n/a	FR1	0	R1222M
86.615	1.617	95348	PRACTICE_WORD	n/a	n/a	WATCH	8	-1	[0, 0, 0]	n/a	FR1	0	R1222M
88.232	0.901	96965	PRACTICE_WORD_OFF	n/a	n/a	WATCH	-999	-1	[0, 0, 0]	n/a	FR1	0	R1222M
89.133	1.617	97866	PRACTICE_WORD	n/a	n/a	IRON	9	-1	[0, 0, 0]	n/a	FR1	0	R1222M
90.75	0.883	99483	PRACTICE_WORD_OFF	n/a	n/a	IRON	-999	-1	[0, 0, 0]	n/a	FR1	0	R1222M
91.633	1.617	100366	PRACTICE_WORD	n/a	n/a	ATTIC	10	-1	[0, 0, 0]	n/a	FR1	0	R1222M
93.25	0.834	101983	PRACTICE_WORD_OFF	n/a	n/a	ATTIC	-999	-1	[0, 0, 0]	n/a	FR1	0	R1222M
94.084	1.617	102817	PRACTICE_WORD	n/a	n/a	COTTON	11	-1	[0, 0, 0]	n/a	FR1	0	R1222M
95.701	1.0	104434	PRACTICE_WORD_OFF	n/a	n/a	COTTON	-999	-1	[0, 0, 0]	n/a	FR1	0	R1222M
96.701	1.616	105434	PRACTICE_WORD	n/a	n/a	CHEST	12	-1	[0, 0, 0]	n/a	FR1	0	R1222M
98.317	0.0	107050	DISTRACT_START	n/a	n/a	n/a	-999	-1	[0, 0, 0]	n/a	FR1	0	R1222M
98.317	0.001	107050	PRACTICE_WORD_OFF	n/a	n/a	CHEST	-999	-1	[0, 0, 0]	n/a	FR1	0	R1222M
98.318	0.016	107051	START	n/a	n/a	n/a	-999	-1	[-999, -999, -999]	n/a	FR1	0	R1222M
98.334	8.57	107067	PROB	8.57	n/a	n/a	-999	-1	[4, 1, 9]	14	FR1	0	R1222M
106.904	18.305	115636	PROB	18.305	n/a	n/a	-999	-1	[8, 6, 8]	22	FR1	0	R1222M
125.209	0.014	133940	STOP	n/a	n/a	n/a	-999	-1	[-999, -999, -999]	n/a	FR1	0	R1222M
125.223	0.684	133954	DISTRACT_END	n/a	n/a	n/a	-999	-1	[0, 0, 0]	n/a	FR1	0	R1222M
125.907	0.52	134638	RETRIEVAL_ORIENT	n/a	n/a	n/a	-999	-1	[0, 0, 0]	n/a	FR1	0	R1222M
126.427	30.008	135158	PRACTICE_REC_START	n/a	n/a	n/a	-999	-1	[0, 0, 0]	n/a	FR1	0	R1222M
156.435	19.947	165165	PRACTICE_REC_END	n/a	n/a	n/a	-999	-1	[0, 0, 0]	n/a	FR1	0	R1222M
176.382	0.5	185110	TRIAL	n/a	n/a	n/a	-999	1	[0, 0, 0]	n/a	FR1	0	R1222M
176.882	10.428	185610	COUNTDOWN_START	n/a	n/a	n/a	-999	1	[0, 0, 0]	n/a	FR1	0	R1222M
187.31	0.008	196038	COUNTDOWN_END	n/a	n/a	n/a	-999	1	[0, 0, 0]	n/a	FR1	0	R1222M
187.318	1.601	196046	ORIENT	n/a	n/a	n/a	-999	1	[0, 0, 0]	n/a	FR1	0	R1222M
188.919	1.951	197647	ORIENT_OFF	n/a	n/a	n/a	-999	1	[0, 0, 0]	n/a	FR1	0	R1222M
190.87	1.616	199598	WORD	n/a	wordpools/wordpool_EN.txt	BRIDGE	1	1	[0, 0, 0]	n/a	FR1	0	R1222M
192.486	0.983	201213	WORD_OFF	n/a	n/a	BRIDGE	1	1	[0, 0, 0]	n/a	FR1	0	R1222M
193.469	1.618	202196	WORD	n/a	wordpools/wordpool_EN.txt	MAZE	2	1	[0, 0, 0]	n/a	FR1	0	R1222M
195.087	0.8	203814	WORD_OFF	n/a	n/a	MAZE	2	1	[0, 0, 0]	n/a	FR1	0	R1222M
195.887	1.616	204614	WORD	n/a	wordpools/wordpool_EN.txt	BED	3	1	[0, 0, 0]	n/a	FR1	0	R1222M
197.503	1.017	206230	WORD_OFF	n/a	n/a	BED	3	1	[0, 0, 0]	n/a	FR1	0	R1222M
198.52	1.618	207247	WORD	n/a	wordpools/wordpool_EN.txt	FARM	4	1	[0, 0, 0]	n/a	FR1	0	R1222M
200.138	0.884	208865	WORD_OFF	n/a	n/a	FARM	4	1	[0, 0, 0]	n/a	FR1	0	R1222M
201.022	1.616	209749	WORD	n/a	wordpools/wordpool_EN.txt	HILL	5	1	[0, 0, 0]	n/a	FR1	0	R1222M
202.638	0.95	211365	WORD_OFF	n/a	n/a	HILL	5	1	[0, 0, 0]	n/a	FR1	0	R1222M
203.588	1.618	212315	WORD	n/a	wordpools/wordpool_EN.txt	EEL	6	1	[0, 0, 0]	n/a	FR1	0	R1222M
205.206	0.917	213933	WORD_OFF	n/a	n/a	EEL	6	1	[0, 0, 0]	n/a	FR1	0	R1222M
206.123	1.617	214850	WORD	n/a	wordpools/wordpool_EN.txt	ROOF	7	1	[0, 0, 0]	n/a	FR1	0	R1222M
207.74	0.899	216467	WORD_OFF	n/a	n/a	ROOF	7	1	[0, 0, 0]	n/a	FR1	0	R1222M
208.639	1.617	217366	WORD	n/a	wordpools/wordpool_EN.txt	CLOCK	8	1	[0, 0, 0]	n/a	FR1	0	R1222M
210.256	0.901	218982	WORD_OFF	n/a	n/a	CLOCK	8	1	[0, 0, 0]	n/a	FR1	0	R1222M
211.157	1.617	219883	WORD	n/a	wordpools/wordpool_EN.txt	WALL	9	1	[0, 0, 0]	n/a	FR1	0	R1222M
212.774	0.983	221500	WORD_OFF	n/a	n/a	WALL	9	1	[0, 0, 0]	n/a	FR1	0	R1222M
213.757	1.616	222483	WORD	n/a	wordpools/wordpool_EN.txt	BOWL	10	1	[0, 0, 0]	n/a	FR1	0	R1222M
215.373	0.901	224099	WORD_OFF	n/a	n/a	BOWL	10	1	[0, 0, 0]	n/a	FR1	0	R1222M
216.274	1.618	225000	WORD	n/a	wordpools/wordpool_EN.txt	STRAW	11	1	[0, 0, 0]	n/a	FR1	0	R1222M
217.892	0.983	226618	WORD_OFF	n/a	n/a	STRAW	11	1	[0, 0, 0]	n/a	FR1	0	R1222M
218.875	1.616	227601	WORD	n/a	wordpools/wordpool_EN.txt	GLASS	12	1	[0, 0, 0]	n/a	FR1	0	R1222M
220.491	0.0	229217	WORD_OFF	n/a	n/a	GLASS	12	1	[0, 0, 0]	n/a	FR1	0	R1222M
220.491	0.001	229217	DISTRACT_START	n/a	n/a	n/a	-999	1	[0, 0, 0]	n/a	FR1	0	R1222M
220.492	0.016	229218	START	n/a	n/a	n/a	-999	1	[-999, -999, -999]	n/a	FR1	0	R1222M
220.508	7.034	229234	PROB	7.034	n/a	n/a	-999	1	[1, 9, 3]	13	FR1	0	R1222M
227.542	11.22	236267	PROB	11.22	n/a	n/a	-999	1	[6, 8, 9]	23	FR1	0	R1222M
238.762	8.23	247487	PROB	8.23	n/a	n/a	-999	1	[6, 5, 8]	19	FR1	0	R1222M
246.992	0.022	255716	STOP	n/a	n/a	n/a	-999	1	[-999, -999, -999]	n/a	FR1	0	R1222M
247.014	0.666	255738	DISTRACT_END	n/a	n/a	n/a	-999	1	[0, 0, 0]	n/a	FR1	0	R1222M
247.68	0.518	256404	RETRIEVAL_ORIENT	n/a	n/a	n/a	-999	1	[0, 0, 0]	n/a	FR1	0	R1222M
248.198	2.389	256922	REC_START	n/a	n/a	n/a	-999	1	[0, 0, 0]	n/a	FR1	0	R1222M
250.587	2.001	259311	REC_WORD	2.001	n/a	ROOF	-999	1	[0, 0, 0]	n/a	FR1	0	R1222M
252.588	1.904	261312	REC_WORD	1.904	n/a	BOWL	-999	1	[0, 0, 0]	n/a	FR1	0	R1222M
254.492	3.512	263216	REC_WORD	3.512	n/a	WALL	-999	1	[0, 0, 0]	n/a	FR1	0	R1222M
258.004	2.575	266728	REC_WORD	2.575	n/a	FARM	-999	1	[0, 0, 0]	n/a	FR1	0	R1222M
260.579	2.507	269303	REC_WORD	2.507	n/a	STRAW	-999	1	[0, 0, 0]	n/a	FR1	0	R1222M
263.086	7.237	271809	REC_WORD	7.237	n/a	GLASS	-999	1	[0, 0, 0]	n/a	FR1	0	R1222M
270.323	7.887	279046	REC_WORD	7.887	n/a	HILL	-999	1	[0, 0, 0]	n/a	FR1	0	R1222M
278.21	7.36	286933	REC_END	n/a	n/a	n/a	-999	1	[0, 0, 0]	n/a	FR1	0	R1222M
285.57	0.5	294292	TRIAL	n/a	n/a	n/a	-999	2	[0, 0, 0]	n/a	FR1	0	R1222M
286.07	10.428	294792	COUNTDOWN_START	n/a	n/a	n/a	-999	2	[0, 0, 0]	n/a	FR1	0	R1222M
296.498	0.008	305220	COUNTDOWN_END	n/a	n/a	n/a	-999	2	[0, 0, 0]	n/a	FR1	0	R1222M
296.506	1.618	305228	ORIENT	n/a	n/a	n/a	-999	2	[0, 0, 0]	n/a	FR1	0	R1222M
298.124	2.166	306845	ORIENT_OFF	n/a	n/a	n/a	-999	2	[0, 0, 0]	n/a	FR1	0	R1222M
300.29	1.618	309011	WORD	n/a	wordpools/wordpool_EN.txt	SKY	1	2	[0, 0, 0]	n/a	FR1	0	R1222M
301.908	0.966	310629	WORD_OFF	n/a	n/a	SKY	1	2	[0, 0, 0]	n/a	FR1	0	R1222M
302.874	1.616	311595	WORD	n/a	wordpools/wordpool_EN.txt	BANK	2	2	[0, 0, 0]	n/a	FR1	0	R1222M
304.49	0.967	313211	WORD_OFF	n/a	n/a	BANK	2	2	[0, 0, 0]	n/a	FR1	0	R1222M
305.457	1.618	314178	WORD	n/a	wordpools/wordpool_EN.txt	BOOK	3	2	[0, 0, 0]	n/a	FR1	0	R1222M
307.075	0.95	315796	WORD_OFF	n/a	n/a	BOOK	3	2	[0, 0, 0]	n/a	FR1	0	R1222M
308.025	1.616	316746	WORD	n/a	wordpools/wordpool_EN.txt	SHELL	4	2	[0, 0, 0]	n/a	FR1	0	R1222M
309.641	1.017	318362	WORD_OFF	n/a	n/a	SHELL	4	2	[0, 0, 0]	n/a	FR1	0	R1222M
310.658	1.617	319379	WORD	n/a	wordpools/wordpool_EN.txt	MOON	5	2	[0, 0, 0]	n/a	FR1	0	R1222M
312.275	0.785	320996	WORD_OFF	n/a	n/a	MOON	5	2	[0, 0, 0]	n/a	FR1	0	R1222M
313.06	1.617	321781	WORD	n/a	wordpools/wordpool_EN.txt	KITE	6	2	[0, 0, 0]	n/a	FR1	0	R1222M
314.677	0.782	323398	WORD_OFF	n/a	n/a	KITE	6	2	[0, 0, 0]	n/a	FR1	0	R1222M
315.459	1.618	324180	WORD	n/a	wordpools/wordpool_EN.txt	BEAR	7	2	[0, 0, 0]	n/a	FR1	0	R1222M
317.077	0.95	325797	WORD_OFF	n/a	n/a	BEAR	7	2	[0, 0, 0]	n/a	FR1	0	R1222M
318.027	1.616	326747	WORD	n/a	wordpools/wordpool_EN.txt	NET	8	2	[0, 0, 0]	n/a	FR1	0	R1222M
319.643	0.901	328363	WORD_OFF	n/a	n/a	NET	8	2	[0, 0, 0]	n/a	FR1	0	R1222M
320.544	1.618	329264	WORD	n/a	wordpools/wordpool_EN.txt	MULE	9	2	[0, 0, 0]	n/a	FR1	0	R1222M
322.162	0.933	330882	WORD_OFF	n/a	n/a	MULE	9	2	[0, 0, 0]	n/a	FR1	0	R1222M
323.095	1.617	331815	WORD	n/a	wordpools/wordpool_EN.txt	HAWK	10	2	[0, 0, 0]	n/a	FR1	0	R1222M
324.712	0.816	333432	WORD_OFF	n/a	n/a	HAWK	10	2	[0, 0, 0]	n/a	FR1	0	R1222M
325.528	1.618	334248	WORD	n/a	wordpools/wordpool_EN.txt	TRAIN	11	2	[0, 0, 0]	n/a	FR1	0	R1222M
327.146	0.95	335866	WORD_OFF	n/a	n/a	TRAIN	11	2	[0, 0, 0]	n/a	FR1	0	R1222M
328.096	1.617	336816	WORD	n/a	wordpools/wordpool_EN.txt	PARK	12	2	[0, 0, 0]	n/a	FR1	0	R1222M
329.713	0.0	338433	WORD_OFF	n/a	n/a	PARK	12	2	[0, 0, 0]	n/a	FR1	0	R1222M
329.713	0.001	338433	DISTRACT_START	n/a	n/a	n/a	-999	2	[0, 0, 0]	n/a	FR1	0	R1222M
329.714	0.016	338434	START	n/a	n/a	n/a	-999	2	[-999, -999, -999]	n/a	FR1	0	R1222M
329.73	7.168	338450	PROB	7.168	n/a	n/a	-999	2	[5, 1, 2]	8	FR1	0	R1222M
336.898	7.968	345617	PROB	7.968	n/a	n/a	-999	2	[8, 4, 1]	13	FR1	0	R1222M
344.866	6.405	353585	PROB	6.405	n/a	n/a	-999	2	[1, 3, 8]	12	FR1	0	R1222M
351.271	0.012	359989	STOP	n/a	n/a	n/a	-999	2	[-999, -999, -999]	n/a	FR1	0	R1222M
351.283	0.534	360001	DISTRACT_END	n/a	n/a	n/a	-999	2	[0, 0, 0]	n/a	FR1	0	R1222M
351.817	0.517	360535	RETRIEVAL_ORIENT	n/a	n/a	n/a	-999	2	[0, 0, 0]	n/a	FR1	0	R1222M
352.334	8.847	361052	REC_START	n/a	n/a	n/a	-999	2	[0, 0, 0]	n/a	FR1	0	R1222M
361.181	21.164	369899	REC_WORD	21.164	n/a	BOOK	-999	2	[0, 0, 0]	n/a	FR1	0	R1222M
382.345	6.112	391062	REC_END	n/a	n/a	n/a	-999	2	[0, 0, 0]	n/a	FR1	0	R1222M
388.457	0.5	397173	TRIAL	n/a	n/a	n/a	-999	3	[0, 0, 0]	n/a	FR1	0	R1222M
388.957	10.428	397673	COUNTDOWN_START	n/a	n/a	n/a	-999	3	[0, 0, 0]	n/a	FR1	0	R1222M
399.385	0.007	408101	COUNTDOWN_END	n/a	n/a	n/a	-999	3	[0, 0, 0]	n/a	FR1	0	R1222M
399.392	1.618	408108	ORIENT	n/a	n/a	n/a	-999	3	[0, 0, 0]	n/a	FR1	0	R1222M
401.01	2.233	409726	ORIENT_OFF	n/a	n/a	n/a	-999	3	[0, 0, 0]	n/a	FR1	0	R1222M
403.243	1.618	411959	WORD	n/a	wordpools/wordpool_EN.txt	STAR	1	3	[0, 0, 0]	n/a	FR1	0	R1222M
404.861	0.933	413576	WORD_OFF	n/a	n/a	STAR	1	3	[0, 0, 0]	n/a	FR1	0	R1222M
405.794	1.616	414509	WORD	n/a	wordpools/wordpool_EN.txt	SEA	2	3	[0, 0, 0]	n/a	FR1	0	R1222M
407.41	0.967	416125	WORD_OFF	n/a	n/a	SEA	2	3	[0, 0, 0]	n/a	FR1	0	R1222M
408.377	1.618	417092	WORD	n/a	wordpools/wordpool_EN.txt	SPRING	3	3	[0, 0, 0]	n/a	FR1	0	R1222M
409.995	0.9	418710	WORD_OFF	n/a	n/a	SPRING	3	3	[0, 0, 0]	n/a	FR1	0	R1222M
410.895	1.616	419610	WORD	n/a	wordpools/wordpool_EN.txt	BUSH	4	3	[0, 0, 0]	n/a	FR1	0	R1222M
412.511	0.917	421226	WORD_OFF	n/a	n/a	BUSH	4	3	[0, 0, 0]	n/a	FR1	0	R1222M
413.428	1.618	422143	WORD	n/a	wordpools/wordpool_EN.txt	PIT	5	3	[0, 0, 0]	n/a	FR1	0	R1222M
415.046	0.834	423761	WORD_OFF	n/a	n/a	PIT	5	3	[0, 0, 0]	n/a	FR1	0	R1222M
415.88	1.616	424595	WORD	n/a	wordpools/wordpool_EN.txt	FLOOR	6	3	[0, 0, 0]	n/a	FR1	0	R1222M
417.496	0.9	426211	WORD_OFF	n/a	n/a	FLOOR	6	3	[0, 0, 0]	n/a	FR1	0	R1222M
418.396	1.601	427111	WORD	n/a	wordpools/wordpool_EN.txt	TOAST	7	3	[0, 0, 0]	n/a	FR1	0	R1222M
419.997	0.85	428712	WORD_OFF	n/a	n/a	TOAST	7	3	[0, 0, 0]	n/a	FR1	0	R1222M
420.847	1.616	429562	WORD	n/a	wordpools/wordpool_EN.txt	SIGN	8	3	[0, 0, 0]	n/a	FR1	0	R1222M
422.463	0.85	431177	WORD_OFF	n/a	n/a	SIGN	8	3	[0, 0, 0]	n/a	FR1	0	R1222M
423.313	1.602	432027	WORD	n/a	wordpools/wordpool_EN.txt	BRUSH	9	3	[0, 0, 0]	n/a	FR1	0	R1222M
424.915	0.95	433629	WORD_OFF	n/a	n/a	BRUSH	9	3	[0, 0, 0]	n/a	FR1	0	R1222M
425.865	1.616	434579	WORD	n/a	wordpools/wordpool_EN.txt	OAR	10	3	[0, 0, 0]	n/a	FR1	0	R1222M
427.481	0.817	436195	WORD_OFF	n/a	n/a	OAR	10	3	[0, 0, 0]	n/a	FR1	0	R1222M
428.298	1.618	437012	WORD	n/a	wordpools/wordpool_EN.txt	ROOM	11	3	[0, 0, 0]	n/a	FR1	0	R1222M
429.916	0.833	438630	WORD_OFF	n/a	n/a	ROOM	11	3	[0, 0, 0]	n/a	FR1	0	R1222M
430.749	1.616	439463	WORD	n/a	wordpools/wordpool_EN.txt	ROOT	12	3	[0, 0, 0]	n/a	FR1	0	R1222M
432.365	0.0	441079	WORD_OFF	n/a	n/a	ROOT	12	3	[0, 0, 0]	n/a	FR1	0	R1222M
432.365	0.001	441079	DISTRACT_START	n/a	n/a	n/a	-999	3	[0, 0, 0]	n/a	FR1	0	R1222M
432.366	0.016	441080	START	n/a	n/a	n/a	-999	3	[-999, -999, -999]	n/a	FR1	0	R1222M
432.382	6.201	441096	PROB	6.201	n/a	n/a	-999	3	[2, 2, 3]	7	FR1	0	R1222M
438.583	6.068	447297	PROB	6.068	n/a	n/a	-999	3	[8, 4, 1]	13	FR1	0	R1222M
444.651	7.452	453364	PROB	7.452	n/a	n/a	-999	3	[8, 4, 9]	21	FR1	0	R1222M
452.103	6.368	460816	PROB	6.368	n/a	n/a	-999	3	[2, 6, 3]	11	FR1	0	R1222M
458.471	0.016	467183	STOP	n/a	n/a	n/a	-999	3	[-999, -999, -999]	n/a	FR1	0	R1222M
458.487	0.634	467199	DISTRACT_END	n/a	n/a	n/a	-999	3	[0, 0, 0]	n/a	FR1	0	R1222M
459.121	0.517	467833	RETRIEVAL_ORIENT	n/a	n/a	n/a	-999	3	[0, 0, 0]	n/a	FR1	0	R1222M
459.638	4.126	468350	REC_START	n/a	n/a	n/a	-999	3	[0, 0, 0]	n/a	FR1	0	R1222M
463.764	8.318	472476	REC_WORD	8.318	n/a	ROOM	-999	3	[0, 0, 0]	n/a	FR1	0	R1222M
472.082	14.118	480794	REC_WORD	14.118	n/a	SEA	-999	3	[0, 0, 0]	n/a	FR1	0	R1222M
486.2	3.448	494911	REC_WORD	3.448	n/a	STAR	-999	3	[0, 0, 0]	n/a	FR1	0	R1222M
489.648	6.796	498359	REC_END	n/a	n/a	n/a	-999	3	[0, 0, 0]	n/a	FR1	0	R1222M
496.444	0.5	505154	TRIAL	n/a	n/a	n/a	-999	4	[0, 0, 0]	n/a	FR1	0	R1222M
496.944	10.428	505654	COUNTDOWN_START	n/a	n/a	n/a	-999	4	[0, 0, 0]	n/a	FR1	0	R1222M
507.372	0.008	516082	COUNTDOWN_END	n/a	n/a	n/a	-999	4	[0, 0, 0]	n/a	FR1	0	R1222M
507.38	1.618	516090	ORIENT	n/a	n/a	n/a	-999	4	[0, 0, 0]	n/a	FR1	0	R1222M
508.998	2.183	517708	ORIENT_OFF	n/a	n/a	n/a	-999	4	[0, 0, 0]	n/a	FR1	0	R1222M
511.181	1.617	519890	WORD	n/a	wordpools/wordpool_EN.txt	STORE	1	4	[0, 0, 0]	n/a	FR1	0	R1222M
512.798	0.816	521507	WORD_OFF	n/a	n/a	STORE	1	4	[0, 0, 0]	n/a	FR1	0	R1222M
513.614	1.601	522323	WORD	n/a	wordpools/wordpool_EN.txt	ARM	2	4	[0, 0, 0]	n/a	FR1	0	R1222M
515.215	1.001	523924	WORD_OFF	n/a	n/a	ARM	2	4	[0, 0, 0]	n/a	FR1	0	R1222M
516.216	1.617	524925	WORD	n/a	wordpools/wordpool_EN.txt	FOOD	3	4	[0, 0, 0]	n/a	FR1	0	R1222M
517.833	0.967	526542	WORD_OFF	n/a	n/a	FOOD	3	4	[0, 0, 0]	n/a	FR1	0	R1222M
518.8	1.616	527509	WORD	n/a	wordpools/wordpool_EN.txt	BROOM	4	4	[0, 0, 0]	n/a	FR1	0	R1222M
520.416	0.9	529125	WORD_OFF	n/a	n/a	BROOM	4	4	[0, 0, 0]	n/a	FR1	0	R1222M
521.316	1.618	530025	WORD	n/a	wordpools/wordpool_EN.txt	WING	5	4	[0, 0, 0]	n/a	FR1	0	R1222M
522.934	0.933	531643	WORD_OFF	n/a	n/a	WING	5	4	[0, 0, 0]	n/a	FR1	0	R1222M
523.867	1.616	532576	WORD	n/a	wordpools/wordpool_EN.txt	SKUNK	6	4	[0, 0, 0]	n/a	FR1	0	R1222M
525.483	0.95	534192	WORD_OFF	n/a	n/a	SKUNK	6	4	[0, 0, 0]	n/a	FR1	0	R1222M
526.433	1.601	535142	WORD	n/a	wordpools/wordpool_EN.txt	MAT	7	4	[0, 0, 0]	n/a	FR1	0	R1222M
528.034	0.801	536742	WORD_OFF	n/a	n/a	MAT	7	4	[0, 0, 0]	n/a	FR1	0	R1222M
528.835	1.616	537543	WORD	n/a	wordpools/wordpool_EN.txt	STREET	8	4	[0, 0, 0]	n/a	FR1	0	R1222M
530.451	0.917	539159	WORD_OFF	n/a	n/a	STREET	8	4	[0, 0, 0]	n/a	FR1	0	R1222M
531.368	1.618	540076	WORD	n/a	wordpools/wordpool_EN.txt	CAKE	9	4	[0, 0, 0]	n/a	FR1	0	R1222M
532.986	0.916	541694	WORD_OFF	n/a	n/a	CAKE	9	4	[0, 0, 0]	n/a	FR1	0	R1222M
533.902	1.616	542610	WORD	n/a	wordpools/wordpool_EN.txt	WAND	10	4	[0, 0, 0]	n/a	FR1	0	R1222M
535.518	0.951	544226	WORD_OFF	n/a	n/a	WAND	10	4	[0, 0, 0]	n/a	FR1	0	R1222M
536.469	1.618	545177	WORD	n/a	wordpools/wordpool_EN.txt	TOOL	11	4	[0, 0, 0]	n/a	FR1	0	R1222M
538.087	0.933	546795	WORD_OFF	n/a	n/a	TOOL	11	4	[0, 0, 0]	n/a	FR1	0	R1222M
539.02	1.616	547728	WORD	n/a	wordpools/wordpool_EN.txt	FACE	12	4	[0, 0, 0]	n/a	FR1	0	R1222M
540.636	0.0	549344	WORD_OFF	n/a	n/a	FACE	12	4	[0, 0, 0]	n/a	FR1	0	R1222M
540.636	0.001	549344	DISTRACT_START	n/a	n/a	n/a	-999	4	[0, 0, 0]	n/a	FR1	0	R1222M
540.637	0.016	549345	START	n/a	n/a	n/a	-999	4	[-999, -999, -999]	n/a	FR1	0	R1222M
540.653	8.568	549361	PROB	8.568	n/a	n/a	-999	4	[4, 5, 7]	16	FR1	0	R1222M
549.221	7.335	557928	PROB	7.335	n/a	n/a	-999	4	[9, 1, 6]	16	FR1	0	R1222M
556.556	6.405	565263	PROB	6.405	n/a	n/a	-999	4	[2, 6, 5]	13	FR1	0	R1222M
562.961	0.014	571667	STOP	n/a	n/a	n/a	-999	4	[-999, -999, -999]	n/a	FR1	0	R1222M
562.975	0.566	571681	DISTRACT_END	n/a	n/a	n/a	-999	4	[0, 0, 0]	n/a	FR1	0	R1222M
563.541	0.518	572247	RETRIEVAL_ORIENT	n/a	n/a	n/a	-999	4	[0, 0, 0]	n/a	FR1	0	R1222M
564.059	1.293	572765	REC_START	n/a	n/a	n/a	-999	4	[0, 0, 0]	n/a	FR1	0	R1222M
565.352	3.558	574058	REC_WORD	3.558	n/a	FACE	-999	4	[0, 0, 0]	n/a	FR1	0	R1222M
568.91	2.837	577616	REC_WORD	2.837	n/a	TOOL	-999	4	[0, 0, 0]	n/a	FR1	0	R1222M
571.747	2.684	580453	REC_WORD	2.684	n/a	ARM	-999	4	[0, 0, 0]	n/a	FR1	0	R1222M
574.431	19.638	583137	REC_WORD	19.638	n/a	BROOM	-999	4	[0, 0, 0]	n/a	FR1	0	R1222M
594.069	7.262	602774	REC_END	n/a	n/a	n/a	-999	4	[0, 0, 0]	n/a	FR1	0	R1222M
601.331	0.5	610035	TRIAL	n/a	n/a	n/a	-999	5	[0, 0, 0]	n/a	FR1	0	R1222M
601.831	10.428	610535	COUNTDOWN_START	n/a	n/a	n/a	-999	5	[0, 0, 0]	n/a	FR1	0	R1222M
612.259	0.008	620963	COUNTDOWN_END	n/a	n/a	n/a	-999	5	[0, 0, 0]	n/a	FR1	0	R1222M
612.267	1.618	620971	ORIENT	n/a	n/a	n/a	-999	5	[0, 0, 0]	n/a	FR1	0	R1222M
613.885	2.15	622589	ORIENT_OFF	n/a	n/a	n/a	-999	5	[0, 0, 0]	n/a	FR1	0	R1222M
616.035	1.616	624738	WORD	n/a	wordpools/wordpool_EN.txt	WOLF	1	5	[0, 0, 0]	n/a	FR1	0	R1222M
617.651	0.817	626354	WORD_OFF	n/a	n/a	WOLF	1	5	[0, 0, 0]	n/a	FR1	0	R1222M
618.468	1.618	627171	WORD	n/a	wordpools/wordpool_EN.txt	CLIFF	2	5	[0, 0, 0]	n/a	FR1	0	R1222M
620.086	0.9	628789	WORD_OFF	n/a	n/a	CLIFF	2	5	[0, 0, 0]	n/a	FR1	0	R1222M
620.986	1.616	629689	WORD	n/a	wordpools/wordpool_EN.txt	FUR	3	5	[0, 0, 0]	n/a	FR1	0	R1222M
622.602	0.85	631305	WORD_OFF	n/a	n/a	FUR	3	5	[0, 0, 0]	n/a	FR1	0	R1222M
623.452	1.618	632155	WORD	n/a	wordpools/wordpool_EN.txt	WORLD	4	5	[0, 0, 0]	n/a	FR1	0	R1222M
625.07	1.0	633773	WORD_OFF	n/a	n/a	WORLD	4	5	[0, 0, 0]	n/a	FR1	0	R1222M
626.07	1.617	634773	WORD	n/a	wordpools/wordpool_EN.txt	STRING	5	5	[0, 0, 0]	n/a	FR1	0	R1222M
627.687	0.916	636390	WORD_OFF	n/a	n/a	STRING	5	5	[0, 0, 0]	n/a	FR1	0	R1222M
628.603	1.601	637306	WORD	n/a	wordpools/wordpool_EN.txt	FAN	6	5	[0, 0, 0]	n/a	FR1	0	R1222M
630.204	1.0	638907	WORD_OFF	n/a	n/a	FAN	6	5	[0, 0, 0]	n/a	FR1	0	R1222M
631.204	1.618	639907	WORD	n/a	wordpools/wordpool_EN.txt	ROSE	7	5	[0, 0, 0]	n/a	FR1	0	R1222M
632.822	0.832	641525	WORD_OFF	n/a	n/a	ROSE	7	5	[0, 0, 0]	n/a	FR1	0	R1222M
633.654	1.617	642356	WORD	n/a	wordpools/wordpool_EN.txt	STICK	8	5	[0, 0, 0]	n/a	FR1	0	R1222M
635.271	0.901	643973	WORD_OFF	n/a	n/a	STICK	8	5	[0, 0, 0]	n/a	FR1	0	R1222M
636.172	1.617	644874	WORD	n/a	wordpools/wordpool_EN.txt	PEN	9	5	[0, 0, 0]	n/a	FR1	0	R1222M
637.789	0.849	646491	WORD_OFF	n/a	n/a	PEN	9	5	[0, 0, 0]	n/a	FR1	0	R1222M
638.638	1.617	647340	WORD	n/a	wordpools/wordpool_EN.txt	JEEP	10	5	[0, 0, 0]	n/a	FR1	0	R1222M
640.255	0.868	648957	WORD_OFF	n/a	n/a	JEEP	10	5	[0, 0, 0]	n/a	FR1	0	R1222M
641.123	1.617	649825	WORD	n/a	wordpools/wordpool_EN.txt	VAN	11	5	[0, 0, 0]	n/a	FR1	0	R1222M
642.74	0.799	651442	WORD_OFF	n/a	n/a	VAN	11	5	[0, 0, 0]	n/a	FR1	0	R1222M
643.539	1.618	652241	WORD	n/a	wordpools/wordpool_EN.txt	POOL	12	5	[0, 0, 0]	n/a	FR1	0	R1222M
645.157	0.0	653859	DISTRACT_START	n/a	n/a	n/a	-999	5	[0, 0, 0]	n/a	FR1	0	R1222M
645.157	0.001	653859	WORD_OFF	n/a	n/a	POOL	12	5	[0, 0, 0]	n/a	FR1	0	R1222M
645.158	0.016	653860	START	n/a	n/a	n/a	-999	5	[-999, -999, -999]	n/a	FR1	0	R1222M
645.174	7.718	653876	PROB	7.718	n/a	n/a	-999	5	[1, 2, 8]	11	FR1	0	R1222M
652.892	10.135	661593	PROB	10.135	n/a	n/a	-999	5	[8, 8, 5]	21	FR1	0	R1222M
663.027	6.365	671728	PROB	6.365	n/a	n/a	-999	5	[7, 4, 2]	13	FR1	0	R1222M
669.392	0.019	678092	STOP	n/a	n/a	n/a	-999	5	[-999, -999, -999]	n/a	FR1	0	R1222M
669.411	0.534	678111	DISTRACT_END	n/a	n/a	n/a	-999	5	[0, 0, 0]	n/a	FR1	0	R1222M
669.945	0.517	678645	RETRIEVAL_ORIENT	n/a	n/a	n/a	-999	5	[0, 0, 0]	n/a	FR1	0	R1222M
670.462	0.629	679162	REC_START	n/a	n/a	n/a	-999	5	[0, 0, 0]	n/a	FR1	0	R1222M
671.091	1.388	679791	REC_WORD	1.388	n/a	JEEP	-999	5	[0, 0, 0]	n/a	FR1	0	R1222M
672.479	15.962	681179	REC_WORD	15.962	n/a	VAN	-999	5	[0, 0, 0]	n/a	FR1	0	R1222M
688.441	12.031	697140	REC_WORD	12.031	n/a	STRING	-999	5	[0, 0, 0]	n/a	FR1	0	R1222M
700.472	15.815	709171	REC_END	n/a	n/a	n/a	-999	5	[0, 0, 0]	n/a	FR1	0	R1222M
716.287	0.5	724985	TRIAL	n/a	n/a	n/a	-999	6	[0, 0, 0]	n/a	FR1	0	R1222M
716.787	10.428	725485	COUNTDOWN_START	n/a	n/a	n/a	-999	6	[0, 0, 0]	n/a	FR1	0	R1222M
727.215	0.007	735912	COUNTDOWN_END	n/a	n/a	n/a	-999	6	[0, 0, 0]	n/a	FR1	0	R1222M
727.222	1.618	735919	ORIENT	n/a	n/a	n/a	-999	6	[0, 0, 0]	n/a	FR1	0	R1222M
728.84	2.117	737537	ORIENT_OFF	n/a	n/a	n/a	-999	6	[0, 0, 0]	n/a	FR1	0	R1222M
730.957	1.616	739654	WORD	n/a	wordpools/wordpool_EN.txt	HAT	1	6	[0, 0, 0]	n/a	FR1	0	R1222M
732.573	1.0	741270	WORD_OFF	n/a	n/a	HAT	1	6	[0, 0, 0]	n/a	FR1	0	R1222M
733.573	1.618	742270	WORD	n/a	wordpools/wordpool_EN.txt	BOAT	2	6	[0, 0, 0]	n/a	FR1	0	R1222M
735.191	0.967	743888	WORD_OFF	n/a	n/a	BOAT	2	6	[0, 0, 0]	n/a	FR1	0	R1222M
736.158	1.617	744855	WORD	n/a	wordpools/wordpool_EN.txt	WHALE	3	6	[0, 0, 0]	n/a	FR1	0	R1222M
737.775	0.833	746472	WORD_OFF	n/a	n/a	WHALE	3	6	[0, 0, 0]	n/a	FR1	0	R1222M
738.608	1.617	747305	WORD	n/a	wordpools/wordpool_EN.txt	THREAD	4	6	[0, 0, 0]	n/a	FR1	0	R1222M
740.225	0.951	748921	WORD_OFF	n/a	n/a	THREAD	4	6	[0, 0, 0]	n/a	FR1	0	R1222M
741.176	1.617	749872	WORD	n/a	wordpools/wordpool_EN.txt	FISH	5	6	[0, 0, 0]	n/a	FR1	0	R1222M
742.793	0.983	751489	WORD_OFF	n/a	n/a	FISH	5	6	[0, 0, 0]	n/a	FR1	0	R1222M
743.776	1.616	752472	WORD	n/a	wordpools/wordpool_EN.txt	JAIL	6	6	[0, 0, 0]	n/a	FR1	0	R1222M
745.392	0.9	754088	WORD_OFF	n/a	n/a	JAIL	6	6	[0, 0, 0]	n/a	FR1	0	R1222M
746.292	1.602	754988	WORD	n/a	wordpools/wordpool_EN.txt	PIPE	7	6	[0, 0, 0]	n/a	FR1	0	R1222M
747.894	1.0	756590	WORD_OFF	n/a	n/a	PIPE	7	6	[0, 0, 0]	n/a	FR1	0	R1222M
748.894	1.616	757590	WORD	n/a	wordpools/wordpool_EN.txt	POLE	8	6	[0, 0, 0]	n/a	FR1	0	R1222M
750.51	0.9	759206	WORD_OFF	n/a	n/a	POLE	8	6	[0, 0, 0]	n/a	FR1	0	R1222M
751.41	1.618	760106	WORD	n/a	wordpools/wordpool_EN.txt	FOG	9	6	[0, 0, 0]	n/a	FR1	0	R1222M
753.028	0.85	761724	WORD_OFF	n/a	n/a	FOG	9	6	[0, 0, 0]	n/a	FR1	0	R1222M
753.878	1.616	762574	WORD	n/a	wordpools/wordpool_EN.txt	GRAPE	10	6	[0, 0, 0]	n/a	FR1	0	R1222M
755.494	0.8	764190	WORD_OFF	n/a	n/a	GRAPE	10	6	[0, 0, 0]	n/a	FR1	0	R1222M
756.294	1.618	764990	WORD	n/a	wordpools/wordpool_EN.txt	JUDGE	11	6	[0, 0, 0]	n/a	FR1	0	R1222M
757.912	0.834	766607	WORD_OFF	n/a	n/a	JUDGE	11	6	[0, 0, 0]	n/a	FR1	0	R1222M
758.746	1.616	767441	WORD	n/a	wordpools/wordpool_EN.txt	HOUSE	12	6	[0, 0, 0]	n/a	FR1	0	R1222M
760.362	0.0	769057	WORD_OFF	n/a	n/a	HOUSE	12	6	[0, 0, 0]	n/a	FR1	0	R1222M
760.362	0.001	769057	DISTRACT_START	n/a	n/a	n/a	-999	6	[0, 0, 0]	n/a	FR1	0	R1222M
760.363	0.015	769058	START	n/a	n/a	n/a	-999	6	[-999, -999, -999]	n/a	FR1	0	R1222M
760.378	7.303	769073	PROB	7.303	n/a	n/a	-999	6	[4, 1, 7]	12	FR1	0	R1222M
767.681	6.401	776376	PROB	6.401	n/a	n/a	-999	6	[7, 4, 6]	17	FR1	0	R1222M
774.082	8.031	782777	PROB	8.031	n/a	n/a	-999	6	[9, 5, 3]	17	FR1	0	R1222M
782.113	0.021	790807	STOP	n/a	n/a	n/a	-999	6	[-999, -999, -999]	n/a	FR1	0	R1222M
782.134	0.65	790828	DISTRACT_END	n/a	n/a	n/a	-999	6	[0, 0, 0]	n/a	FR1	0	R1222M
782.784	0.516	791478	RETRIEVAL_ORIENT	n/a	n/a	n/a	-999	6	[0, 0, 0]	n/a	FR1	0	R1222M
783.3	9.993	791994	REC_START	n/a	n/a	n/a	-999	6	[0, 0, 0]	n/a	FR1	0	R1222M
793.293	20.019	801986	REC_WORD	20.019	n/a	GRAPE	-999	6	[0, 0, 0]	n/a	FR1	0	R1222M
813.312	5.846	822004	REC_END	n/a	n/a	n/a	-999	6	[0, 0, 0]	n/a	FR1	0	R1222M
819.158	0.5	827850	TRIAL	n/a	n/a	n/a	-999	7	[0, 0, 0]	n/a	FR1	0	R1222M
819.658	10.428	828350	COUNTDOWN_START	n/a	n/a	n/a	-999	7	[0, 0, 0]	n/a	FR1	0	R1222M
830.086	0.007	838777	COUNTDOWN_END	n/a	n/a	n/a	-999	7	[0, 0, 0]	n/a	FR1	0	R1222M
830.093	1.617	838784	ORIENT	n/a	n/a	n/a	-999	7	[0, 0, 0]	n/a	FR1	0	R1222M
831.71	2.033	840401	ORIENT_OFF	n/a	n/a	n/a	-999	7	[0, 0, 0]	n/a	FR1	0	R1222M
833.743	1.617	842434	WORD	n/a	wordpools/wordpool_EN.txt	PLATE	1	7	[0, 0, 0]	n/a	FR1	0	R1222M
835.36	0.9	844051	WORD_OFF	n/a	n/a	PLATE	1	7	[0, 0, 0]	n/a	FR1	0	R1222M
836.26	1.618	844951	WORD	n/a	wordpools/wordpool_EN.txt	GEESE	2	7	[0, 0, 0]	n/a	FR1	0	R1222M
837.878	0.983	846569	WORD_OFF	n/a	n/a	GEESE	2	7	[0, 0, 0]	n/a	FR1	0	R1222M
838.861	1.616	847552	WORD	n/a	wordpools/wordpool_EN.txt	VASE	3	7	[0, 0, 0]	n/a	FR1	0	R1222M
840.477	1.0	849168	WORD_OFF	n/a	n/a	VASE	3	7	[0, 0, 0]	n/a	FR1	0	R1222M
841.477	1.602	850168	WORD	n/a	wordpools/wordpool_EN.txt	PALM	4	7	[0, 0, 0]	n/a	FR1	0	R1222M
843.079	0.883	851770	WORD_OFF	n/a	n/a	PALM	4	7	[0, 0, 0]	n/a	FR1	0	R1222M
843.962	1.616	852653	WORD	n/a	wordpools/wordpool_EN.txt	DITCH	5	7	[0, 0, 0]	n/a	FR1	0	R1222M
845.578	0.984	854268	WORD_OFF	n/a	n/a	DITCH	5	7	[0, 0, 0]	n/a	FR1	0	R1222M
846.562	1.618	855252	WORD	n/a	wordpools/wordpool_EN.txt	TEETH	6	7	[0, 0, 0]	n/a	FR1	0	R1222M
848.18	0.9	856870	WORD_OFF	n/a	n/a	TEETH	6	7	[0, 0, 0]	n/a	FR1	0	R1222M
849.08	1.617	857770	WORD	n/a	wordpools/wordpool_EN.txt	SHARK	7	7	[0, 0, 0]	n/a	FR1	0	R1222M
850.697	0.782	859387	WORD_OFF	n/a	n/a	SHARK	7	7	[0, 0, 0]	n/a	FR1	0	R1222M
851.479	1.601	860169	WORD	n/a	wordpools/wordpool_EN.txt	POND	8	7	[0, 0, 0]	n/a	FR1	0	R1222M
853.08	0.934	861770	WORD_OFF	n/a	n/a	POND	8	7	[0, 0, 0]	n/a	FR1	0	R1222M
854.014	1.616	862704	WORD	n/a	wordpools/wordpool_EN.txt	FORT	9	7	[0, 0, 0]	n/a	FR1	0	R1222M
855.63	0.834	864320	WORD_OFF	n/a	n/a	FORT	9	7	[0, 0, 0]	n/a	FR1	0	R1222M
856.464	1.618	865154	WORD	n/a	wordpools/wordpool_EN.txt	LEG	10	7	[0, 0, 0]	n/a	FR1	0	R1222M
858.082	1.0	866772	WORD_OFF	n/a	n/a	LEG	10	7	[0, 0, 0]	n/a	FR1	0	R1222M
859.082	1.617	867772	WORD	n/a	wordpools/wordpool_EN.txt	RUG	11	7	[0, 0, 0]	n/a	FR1	0	R1222M
860.699	0.899	869389	WORD_OFF	n/a	n/a	RUG	11	7	[0, 0, 0]	n/a	FR1	0	R1222M
861.598	1.618	870288	WORD	n/a	wordpools/wordpool_EN.txt	PIE	12	7	[0, 0, 0]	n/a	FR1	0	R1222M
863.216	0.0	871905	WORD_OFF	n/a	n/a	PIE	12	7	[0, 0, 0]	n/a	FR1	0	R1222M
863.216	0.001	871905	DISTRACT_START	n/a	n/a	n/a	-999	7	[0, 0, 0]	n/a	FR1	0	R1222M
863.217	0.015	871906	START	n/a	n/a	n/a	-999	7	[-999, -999, -999]	n/a	FR1	0	R1222M
863.232	7.485	871921	PROB	7.485	n/a	n/a	-999	7	[9, 7, 3]	19	FR1	0	R1222M
870.717	8.785	879406	PROB	8.785	n/a	n/a	-999	7	[1, 2, 4]	7	FR1	0	R1222M
879.502	8.563	888191	PROB	8.563	n/a	n/a	-999	7	[7, 3, 6]	16	FR1	0	R1222M
888.065	0.022	896753	STOP	n/a	n/a	n/a	-999	7	[-999, -999, -999]	n/a	FR1	0	R1222M
888.087	0.55	896775	DISTRACT_END	n/a	n/a	n/a	-999	7	[0, 0, 0]	n/a	FR1	0	R1222M
888.637	0.518	897325	RETRIEVAL_ORIENT	n/a	n/a	n/a	-999	7	[0, 0, 0]	n/a	FR1	0	R1222M
889.155	1.464	897843	REC_START	n/a	n/a	n/a	-999	7	[0, 0, 0]	n/a	FR1	0	R1222M
890.619	9.83	899307	REC_WORD	9.83	n/a	SHARK	-999	7	[0, 0, 0]	n/a	FR1	0	R1222M
900.449	10.564	909136	REC_WORD	10.564	n/a	LEG	-999	7	[0, 0, 0]	n/a	FR1	0	R1222M
911.013	8.153	919700	REC_WORD	8.153	n/a	DITCH	-999	7	[0, 0, 0]	n/a	FR1	0	R1222M
919.166	68.957	927852	REC_END	n/a	n/a	n/a	-999	7	[0, 0, 0]	n/a	FR1	0	R1222M
988.123	0.5	996805	TRIAL	n/a	n/a	n/a	-999	8	[0, 0, 0]	n/a	FR1	0	R1222M
988.623	10.428	997305	COUNTDOWN_START	n/a	n/a	n/a	-999	8	[0, 0, 0]	n/a	FR1	0	R1222M
999.051	0.008	1007733	COUNTDOWN_END	n/a	n/a	n/a	-999	8	[0, 0, 0]	n/a	FR1	0	R1222M
999.059	1.617	1007741	ORIENT	n/a	n/a	n/a	-999	8	[0, 0, 0]	n/a	FR1	0	R1222M
1000.676	1.916	1009358	ORIENT_OFF	n/a	n/a	n/a	-999	8	[0, 0, 0]	n/a	FR1	0	R1222M
1002.592	1.601	1011274	WORD	n/a	wordpools/wordpool_EN.txt	PEA	1	8	[0, 0, 0]	n/a	FR1	0	R1222M
1004.193	0.817	1012874	WORD_OFF	n/a	n/a	PEA	1	8	[0, 0, 0]	n/a	FR1	0	R1222M
1005.01	1.616	1013691	WORD	n/a	wordpools/wordpool_EN.txt	SWAMP	2	8	[0, 0, 0]	n/a	FR1	0	R1222M
1006.626	0.767	1015307	WORD_OFF	n/a	n/a	SWAMP	2	8	[0, 0, 0]	n/a	FR1	0	R1222M
1007.393	1.618	1016074	WORD	n/a	wordpools/wordpool_EN.txt	LAMP	3	8	[0, 0, 0]	n/a	FR1	0	R1222M
1009.011	0.867	1017692	WORD_OFF	n/a	n/a	LAMP	3	8	[0, 0, 0]	n/a	FR1	0	R1222M
1009.878	1.616	1018559	WORD	n/a	wordpools/wordpool_EN.txt	GOAT	4	8	[0, 0, 0]	n/a	FR1	0	R1222M
1011.494	0.9	1020175	WORD_OFF	n/a	n/a	GOAT	4	8	[0, 0, 0]	n/a	FR1	0	R1222M
1012.394	1.618	1021075	WORD	n/a	wordpools/wordpool_EN.txt	CAR	5	8	[0, 0, 0]	n/a	FR1	0	R1222M
1014.012	0.783	1022693	WORD_OFF	n/a	n/a	CAR	5	8	[0, 0, 0]	n/a	FR1	0	R1222M
1014.795	1.616	1023476	WORD	n/a	wordpools/wordpool_EN.txt	CAPE	6	8	[0, 0, 0]	n/a	FR1	0	R1222M
1016.411	0.768	1025092	WORD_OFF	n/a	n/a	CAPE	6	8	[0, 0, 0]	n/a	FR1	0	R1222M
1017.179	1.617	1025860	WORD	n/a	wordpools/wordpool_EN.txt	SALT	7	8	[0, 0, 0]	n/a	FR1	0	R1222M
1018.796	0.783	1027477	WORD_OFF	n/a	n/a	SALT	7	8	[0, 0, 0]	n/a	FR1	0	R1222M
1019.579	1.618	1028260	WORD	n/a	wordpools/wordpool_EN.txt	STOVE	8	8	[0, 0, 0]	n/a	FR1	0	R1222M
1021.197	1.0	1029878	WORD_OFF	n/a	n/a	STOVE	8	8	[0, 0, 0]	n/a	FR1	0	R1222M
1022.197	1.617	1030877	WORD	n/a	wordpools/wordpool_EN.txt	SEAT	9	8	[0, 0, 0]	n/a	FR1	0	R1222M
1023.814	0.95	1032494	WORD_OFF	n/a	n/a	SEAT	9	8	[0, 0, 0]	n/a	FR1	0	R1222M
1024.764	1.616	1033444	WORD	n/a	wordpools/wordpool_EN.txt	STOOL	10	8	[0, 0, 0]	n/a	FR1	0	R1222M
1026.38	0.9	1035060	WORD_OFF	n/a	n/a	STOOL	10	8	[0, 0, 0]	n/a	FR1	0	R1222M
1027.28	1.618	1035960	WORD	n/a	wordpools/wordpool_EN.txt	CAGE	11	8	[0, 0, 0]	n/a	FR1	0	R1222M
1028.898	0.767	1037578	WORD_OFF	n/a	n/a	CAGE	11	8	[0, 0, 0]	n/a	FR1	0	R1222M
1029.665	1.616	1038345	WORD	n/a	wordpools/wordpool_EN.txt	OAK	12	8	[0, 0, 0]	n/a	FR1	0	R1222M
1031.281	0.0	1039961	WORD_OFF	n/a	n/a	OAK	12	8	[0, 0, 0]	n/a	FR1	0	R1222M
1031.281	0.0	1039961	DISTRACT_START	n/a	n/a	n/a	-999	8	[0, 0, 0]	n/a	FR1	0	R1222M
1031.281	0.016	1039961	START	n/a	n/a	n/a	-999	8	[-999, -999, -999]	n/a	FR1	0	R1222M
1031.297	6.952	1039977	PROB	6.952	n/a	n/a	-999	8	[6, 2, 2]	10	FR1	0	R1222M
1038.249	5.852	1046929	PROB	5.852	n/a	n/a	-999	8	[2, 1, 4]	7	FR1	0	R1222M
1044.101	7.15	1052780	PROB	7.15	n/a	n/a	-999	8	[4, 3, 6]	13	FR1	0	R1222M
1051.251	6.029	1059930	PROB	6.029	n/a	n/a	-999	8	[1, 2, 7]	10	FR1	0	R1222M
1057.28	0.022	1065958	STOP	n/a	n/a	n/a	-999	8	[-999, -999, -999]	n/a	FR1	0	R1222M
1057.302	0.635	1065980	DISTRACT_END	n/a	n/a	n/a	-999	8	[0, 0, 0]	n/a	FR1	0	R1222M
1057.937	0.516	1066615	RETRIEVAL_ORIENT	n/a	n/a	n/a	-999	8	[0, 0, 0]	n/a	FR1	0	R1222M
1058.453	3.515	1067131	REC_START	n/a	n/a	n/a	-999	8	[0, 0, 0]	n/a	FR1	0	R1222M
1061.968	8.385	1070646	REC_WORD	8.385	n/a	PEA	-999	8	[0, 0, 0]	n/a	FR1	0	R1222M
1070.353	15.967	1079031	REC_WORD	15.967	n/a	GOAT	-999	8	[0, 0, 0]	n/a	FR1	0	R1222M
1086.32	2.146	1094997	REC_WORD	2.146	n/a	CAR	-999	8	[0, 0, 0]	n/a	FR1	0	R1222M
1088.466	7.595	1097143	REC_END	n/a	n/a	n/a	-999	8	[0, 0, 0]	n/a	FR1	0	R1222M
1096.061	0.5	1104737	TRIAL	n/a	n/a	n/a	-999	9	[0, 0, 0]	n/a	FR1	0	R1222M
1096.561	10.428	1105237	COUNTDOWN_START	n/a	n/a	n/a	-999	9	[0, 0, 0]	n/a	FR1	0	R1222M
1106.989	0.007	1115665	COUNTDOWN_END	n/a	n/a	n/a	-999	9	[0, 0, 0]	n/a	FR1	0	R1222M
1106.996	1.616	1115672	ORIENT	n/a	n/a	n/a	-999	9	[0, 0, 0]	n/a	FR1	0	R1222M
1108.612	2.168	1117288	ORIENT_OFF	n/a	n/a	n/a	-999	9	[0, 0, 0]	n/a	FR1	0	R1222M
1110.78	1.617	1119455	WORD	n/a	wordpools/wordpool_EN.txt	KEY	1	9	[0, 0, 0]	n/a	FR1	0	R1222M
1112.397	0.883	1121072	WORD_OFF	n/a	n/a	KEY	1	9	[0, 0, 0]	n/a	FR1	0	R1222M
1113.28	1.618	1121955	WORD	n/a	wordpools/wordpool_EN.txt	FRUIT	2	9	[0, 0, 0]	n/a	FR1	0	R1222M
1114.898	0.934	1123573	WORD_OFF	n/a	n/a	FRUIT	2	9	[0, 0, 0]	n/a	FR1	0	R1222M
1115.832	1.615	1124507	WORD	n/a	wordpools/wordpool_EN.txt	HORSE	3	9	[0, 0, 0]	n/a	FR1	0	R1222M
1117.447	1.001	1126122	WORD_OFF	n/a	n/a	HORSE	3	9	[0, 0, 0]	n/a	FR1	0	R1222M
1118.448	1.618	1127123	WORD	n/a	wordpools/wordpool_EN.txt	CLAY	4	9	[0, 0, 0]	n/a	FR1	0	R1222M
1120.066	0.85	1128741	WORD_OFF	n/a	n/a	CLAY	4	9	[0, 0, 0]	n/a	FR1	0	R1222M
1120.916	1.616	1129591	WORD	n/a	wordpools/wordpool_EN.txt	NEST	5	9	[0, 0, 0]	n/a	FR1	0	R1222M
1122.532	0.967	1131207	WORD_OFF	n/a	n/a	NEST	5	9	[0, 0, 0]	n/a	FR1	0	R1222M
1123.499	1.618	1132174	WORD	n/a	wordpools/wordpool_EN.txt	MOUTH	6	9	[0, 0, 0]	n/a	FR1	0	R1222M
1125.117	0.883	1133792	WORD_OFF	n/a	n/a	MOUTH	6	9	[0, 0, 0]	n/a	FR1	0	R1222M
1126.0	1.616	1134675	WORD	n/a	wordpools/wordpool_EN.txt	RIB	7	9	[0, 0, 0]	n/a	FR1	0	R1222M
1127.616	0.8	1136290	WORD_OFF	n/a	n/a	RIB	7	9	[0, 0, 0]	n/a	FR1	0	R1222M
1128.416	1.601	1137090	WORD	n/a	wordpools/wordpool_EN.txt	CROWN	8	9	[0, 0, 0]	n/a	FR1	0	R1222M
1130.017	0.917	1138691	WORD_OFF	n/a	n/a	CROWN	8	9	[0, 0, 0]	n/a	FR1	0	R1222M
1130.934	1.616	1139608	WORD	n/a	wordpools/wordpool_EN.txt	INK	9	9	[0, 0, 0]	n/a	FR1	0	R1222M
1132.55	0.867	1141224	WORD_OFF	n/a	n/a	INK	9	9	[0, 0, 0]	n/a	FR1	0	R1222M
1133.417	1.601	1142091	WORD	n/a	wordpools/wordpool_EN.txt	BOARD	10	9	[0, 0, 0]	n/a	FR1	0	R1222M
1135.018	0.967	1143692	WORD_OFF	n/a	n/a	BOARD	10	9	[0, 0, 0]	n/a	FR1	0	R1222M
1135.985	1.616	1144659	WORD	n/a	wordpools/wordpool_EN.txt	PEAR	11	9	[0, 0, 0]	n/a	FR1	0	R1222M
1137.601	0.817	1146275	WORD_OFF	n/a	n/a	PEAR	11	9	[0, 0, 0]	n/a	FR1	0	R1222M
1138.418	1.618	1147092	WORD	n/a	wordpools/wordpool_EN.txt	PRINCE	12	9	[0, 0, 0]	n/a	FR1	0	R1222M
1140.036	0.0	1148710	WORD_OFF	n/a	n/a	PRINCE	12	9	[0, 0, 0]	n/a	FR1	0	R1222M
1140.036	0.001	1148710	DISTRACT_START	n/a	n/a	n/a	-999	9	[0, 0, 0]	n/a	FR1	0	R1222M
1140.037	0.016	1148711	START	n/a	n/a	n/a	-999	9	[-999, -999, -999]	n/a	FR1	0	R1222M
1140.053	5.651	1148727	PROB	5.651	n/a	n/a	-999	9	[1, 1, 2]	4	FR1	0	R1222M
1145.704	7.584	1154377	PROB	7.584	n/a	n/a	-999	9	[5, 2, 3]	10	FR1	0	R1222M
1153.288	6.849	1161961	PROB	6.849	n/a	n/a	-999	9	[6, 4, 3]	13	FR1	0	R1222M
1160.137	0.02	1168810	STOP	n/a	n/a	n/a	-999	9	[-999, -999, -999]	n/a	FR1	0	R1222M
1160.157	0.6	1168830	DISTRACT_END	n/a	n/a	n/a	-999	9	[0, 0, 0]	n/a	FR1	0	R1222M
1160.757	0.516	1169430	RETRIEVAL_ORIENT	n/a	n/a	n/a	-999	9	[0, 0, 0]	n/a	FR1	0	R1222M
1161.273	1.344	1169946	REC_START	n/a	n/a	n/a	-999	9	[0, 0, 0]	n/a	FR1	0	R1222M
1162.617	1.968	1171290	REC_WORD	1.968	n/a	CROWN	-999	9	[0, 0, 0]	n/a	FR1	0	R1222M
1164.585	1.725	1173257	REC_WORD	1.725	n/a	HORSE	-999	9	[0, 0, 0]	n/a	FR1	0	R1222M
1166.31	3.126	1174982	REC_WORD	3.126	n/a	PRINCE	-999	9	[0, 0, 0]	n/a	FR1	0	R1222M
1169.436	2.451	1178108	REC_WORD	2.451	n/a	MOUTH	-999	9	[0, 0, 0]	n/a	FR1	0	R1222M
1171.887	19.399	1180559	REC_WORD	19.399	n/a	RIB	-999	9	[0, 0, 0]	n/a	FR1	0	R1222M
1191.286	8.778	1199957	REC_END	n/a	n/a	n/a	-999	9	[0, 0, 0]	n/a	FR1	0	R1222M
1200.064	0.5	1208734	TRIAL	n/a	n/a	n/a	-999	10	[0, 0, 0]	n/a	FR1	0	R1222M
1200.564	10.428	1209234	COUNTDOWN_START	n/a	n/a	n/a	-999	10	[0, 0, 0]	n/a	FR1	0	R1222M
1210.992	0.008	1219662	COUNTDOWN_END	n/a	n/a	n/a	-999	10	[0, 0, 0]	n/a	FR1	0	R1222M
1211.0	1.616	1219670	ORIENT	n/a	n/a	n/a	-999	10	[0, 0, 0]	n/a	FR1	0	R1222M
1212.616	2.0	1221286	ORIENT_OFF	n/a	n/a	n/a	-999	10	[0, 0, 0]	n/a	FR1	0	R1222M
1214.616	1.617	1223286	WORD	n/a	wordpools/wordpool_EN.txt	CASH	1	10	[0, 0, 0]	n/a	FR1	0	R1222M
1216.233	0.901	1224902	WORD_OFF	n/a	n/a	CASH	1	10	[0, 0, 0]	n/a	FR1	0	R1222M
1217.134	1.617	1225803	WORD	n/a	wordpools/wordpool_EN.txt	OWL	2	10	[0, 0, 0]	n/a	FR1	0	R1222M
1218.751	0.967	1227420	WORD_OFF	n/a	n/a	OWL	2	10	[0, 0, 0]	n/a	FR1	0	R1222M
1219.718	1.616	1228387	WORD	n/a	wordpools/wordpool_EN.txt	DOCK	3	10	[0, 0, 0]	n/a	FR1	0	R1222M
1221.334	0.868	1230003	WORD_OFF	n/a	n/a	DOCK	3	10	[0, 0, 0]	n/a	FR1	0	R1222M
1222.202	1.617	1230871	WORD	n/a	wordpools/wordpool_EN.txt	BAND	4	10	[0, 0, 0]	n/a	FR1	0	R1222M
1223.819	0.934	1232488	WORD_OFF	n/a	n/a	BAND	4	10	[0, 0, 0]	n/a	FR1	0	R1222M
1224.753	1.615	1233422	WORD	n/a	wordpools/wordpool_EN.txt	MOOSE	5	10	[0, 0, 0]	n/a	FR1	0	R1222M
1226.368	0.917	1235037	WORD_OFF	n/a	n/a	MOOSE	5	10	[0, 0, 0]	n/a	FR1	0	R1222M
1227.285	1.602	1235954	WORD	n/a	wordpools/wordpool_EN.txt	SHIELD	6	10	[0, 0, 0]	n/a	FR1	0	R1222M
1228.887	0.883	1237556	WORD_OFF	n/a	n/a	SHIELD	6	10	[0, 0, 0]	n/a	FR1	0	R1222M
1229.77	1.616	1238439	WORD	n/a	wordpools/wordpool_EN.txt	TREE	7	10	[0, 0, 0]	n/a	FR1	0	R1222M
1231.386	0.867	1240055	WORD_OFF	n/a	n/a	TREE	7	10	[0, 0, 0]	n/a	FR1	0	R1222M
1232.253	1.618	1240922	WORD	n/a	wordpools/wordpool_EN.txt	FOAM	8	10	[0, 0, 0]	n/a	FR1	0	R1222M
1233.871	0.967	1242539	WORD_OFF	n/a	n/a	FOAM	8	10	[0, 0, 0]	n/a	FR1	0	R1222M
1234.838	1.616	1243506	WORD	n/a	wordpools/wordpool_EN.txt	CAT	9	10	[0, 0, 0]	n/a	FR1	0	R1222M
1236.454	0.783	1245122	WORD_OFF	n/a	n/a	CAT	9	10	[0, 0, 0]	n/a	FR1	0	R1222M
1237.237	1.601	1245905	WORD	n/a	wordpools/wordpool_EN.txt	BEAN	10	10	[0, 0, 0]	n/a	FR1	0	R1222M
1238.838	0.783	1247506	WORD_OFF	n/a	n/a	BEAN	10	10	[0, 0, 0]	n/a	FR1	0	R1222M
1239.621	1.617	1248289	WORD	n/a	wordpools/wordpool_EN.txt	TRASH	11	10	[0, 0, 0]	n/a	FR1	0	R1222M
1241.238	0.784	1249906	WORD_OFF	n/a	n/a	TRASH	11	10	[0, 0, 0]	n/a	FR1	0	R1222M
1242.022	1.617	1250690	WORD	n/a	wordpools/wordpool_EN.txt	EAR	12	10	[0, 0, 0]	n/a	FR1	0	R1222M
1243.639	0.0	1252307	DISTRACT_START	n/a	n/a	n/a	-999	10	[0, 0, 0]	n/a	FR1	0	R1222M
1243.639	0.0	1252307	WORD_OFF	n/a	n/a	EAR	12	10	[0, 0, 0]	n/a	FR1	0	R1222M
1243.639	0.016	1252307	START	n/a	n/a	n/a	-999	10	[-999, -999, -999]	n/a	FR1	0	R1222M
1243.655	5.918	1252323	PROB	5.918	n/a	n/a	-999	10	[2, 3, 4]	9	FR1	0	R1222M
1249.573	6.785	1258241	PROB	6.785	n/a	n/a	-999	10	[4, 7, 1]	12	FR1	0	R1222M
1256.358	5.267	1265025	PROB	5.267	n/a	n/a	-999	10	[1, 4, 6]	11	FR1	0	R1222M
1261.625	8.87	1270292	PROB	8.87	n/a	n/a	-999	10	[7, 7, 6]	22	FR1	0	R1222M
1270.495	0.015	1279161	STOP	n/a	n/a	n/a	-999	10	[-999, -999, -999]	n/a	FR1	0	R1222M
1270.51	0.685	1279176	DISTRACT_END	n/a	n/a	n/a	-999	10	[0, 0, 0]	n/a	FR1	0	R1222M
1271.195	0.517	1279861	RETRIEVAL_ORIENT	n/a	n/a	n/a	-999	10	[0, 0, 0]	n/a	FR1	0	R1222M
1271.712	6.395	1280378	REC_START	n/a	n/a	n/a	-999	10	[0, 0, 0]	n/a	FR1	0	R1222M
1278.107	12.575	1286773	REC_WORD	12.575	n/a	EAR	-999	10	[0, 0, 0]	n/a	FR1	0	R1222M
1290.682	6.683	1299347	REC_WORD	6.683	n/a	CAT	-999	10	[0, 0, 0]	n/a	FR1	0	R1222M
1297.365	4.359	1306030	REC_WORD	4.359	n/a	OWL	-999	10	[0, 0, 0]	n/a	FR1	0	R1222M
1301.724	8.378	1310389	REC_END	n/a	n/a	n/a	-999	10	[0, 0, 0]	n/a	FR1	0	R1222M
1310.102	0.5	1318766	TRIAL	n/a	n/a	n/a	-999	11	[0, 0, 0]	n/a	FR1	0	R1222M
1310.602	10.428	1319266	COUNTDOWN_START	n/a	n/a	n/a	-999	11	[0, 0, 0]	n/a	FR1	0	R1222M
1321.03	0.008	1329694	COUNTDOWN_END	n/a	n/a	n/a	-999	11	[0, 0, 0]	n/a	FR1	0	R1222M
1321.038	1.616	1329702	ORIENT	n/a	n/a	n/a	-999	11	[0, 0, 0]	n/a	FR1	0	R1222M
1322.654	2.035	1331317	ORIENT_OFF	n/a	n/a	n/a	-999	11	[0, 0, 0]	n/a	FR1	0	R1222M
1324.689	1.616	1333352	WORD	n/a	wordpools/wordpool_EN.txt	DEER	1	11	[0, 0, 0]	n/a	FR1	0	R1222M
1326.305	0.983	1334968	WORD_OFF	n/a	n/a	DEER	1	11	[0, 0, 0]	n/a	FR1	0	R1222M
1327.288	1.618	1335951	WORD	n/a	wordpools/wordpool_EN.txt	GATE	2	11	[0, 0, 0]	n/a	FR1	0	R1222M
1328.906	0.767	1337569	WORD_OFF	n/a	n/a	GATE	2	11	[0, 0, 0]	n/a	FR1	0	R1222M
1329.673	1.616	1338336	WORD	n/a	wordpools/wordpool_EN.txt	SPARK	3	11	[0, 0, 0]	n/a	FR1	0	R1222M
1331.289	0.868	1339952	WORD_OFF	n/a	n/a	SPARK	3	11	[0, 0, 0]	n/a	FR1	0	R1222M
1332.157	1.617	1340820	WORD	n/a	wordpools/wordpool_EN.txt	HOOF	4	11	[0, 0, 0]	n/a	FR1	0	R1222M
1333.774	0.832	1342437	WORD_OFF	n/a	n/a	HOOF	4	11	[0, 0, 0]	n/a	FR1	0	R1222M
1334.606	1.617	1343269	WORD	n/a	wordpools/wordpool_EN.txt	THUMB	5	11	[0, 0, 0]	n/a	FR1	0	R1222M
1336.223	0.951	1344886	WORD_OFF	n/a	n/a	THUMB	5	11	[0, 0, 0]	n/a	FR1	0	R1222M
1337.174	1.617	1345837	WORD	n/a	wordpools/wordpool_EN.txt	MILK	6	11	[0, 0, 0]	n/a	FR1	0	R1222M
1338.791	0.917	1347454	WORD_OFF	n/a	n/a	MILK	6	11	[0, 0, 0]	n/a	FR1	0	R1222M
1339.708	1.616	1348370	WORD	n/a	wordpools/wordpool_EN.txt	HOSE	7	11	[0, 0, 0]	n/a	FR1	0	R1222M
1341.324	0.868	1349986	WORD_OFF	n/a	n/a	HOSE	7	11	[0, 0, 0]	n/a	FR1	0	R1222M
1342.192	1.617	1350854	WORD	n/a	wordpools/wordpool_EN.txt	CUP	8	11	[0, 0, 0]	n/a	FR1	0	R1222M
1343.809	0.766	1352471	WORD_OFF	n/a	n/a	CUP	8	11	[0, 0, 0]	n/a	FR1	0	R1222M
1344.575	1.618	1353237	WORD	n/a	wordpools/wordpool_EN.txt	VEST	9	11	[0, 0, 0]	n/a	FR1	0	R1222M
1346.193	0.967	1354855	WORD_OFF	n/a	n/a	VEST	9	11	[0, 0, 0]	n/a	FR1	0	R1222M
1347.16	1.616	1355822	WORD	n/a	wordpools/wordpool_EN.txt	TENT	10	11	[0, 0, 0]	n/a	FR1	0	R1222M
1348.776	1.001	1357438	WORD_OFF	n/a	n/a	TENT	10	11	[0, 0, 0]	n/a	FR1	0	R1222M
1349.777	1.616	1358439	WORD	n/a	wordpools/wordpool_EN.txt	JUICE	11	11	[0, 0, 0]	n/a	FR1	0	R1222M
1351.393	0.801	1360055	WORD_OFF	n/a	n/a	JUICE	11	11	[0, 0, 0]	n/a	FR1	0	R1222M
1352.194	1.617	1360856	WORD	n/a	wordpools/wordpool_EN.txt	PASTE	12	11	[0, 0, 0]	n/a	FR1	0	R1222M
1353.811	0.0	1362473	WORD_OFF	n/a	n/a	PASTE	12	11	[0, 0, 0]	n/a	FR1	0	R1222M
1353.811	0.001	1362473	DISTRACT_START	n/a	n/a	n/a	-999	11	[0, 0, 0]	n/a	FR1	0	R1222M
1353.812	0.016	1362474	START	n/a	n/a	n/a	-999	11	[-999, -999, -999]	n/a	FR1	0	R1222M
1353.828	10.467	1362490	PROB	10.467	n/a	n/a	-999	11	[8, 9, 4]	21	FR1	0	R1222M
1364.295	6.968	1372956	PROB	6.968	n/a	n/a	-999	11	[5, 5, 7]	17	FR1	0	R1222M
1371.263	4.913	1379924	PROB	4.913	n/a	n/a	-999	11	[1, 6, 4]	11	FR1	0	R1222M
1376.176	0.006	1384836	STOP	n/a	n/a	n/a	-999	11	[-999, -999, -999]	n/a	FR1	0	R1222M
1376.182	0.617	1384842	DISTRACT_END	n/a	n/a	n/a	-999	11	[0, 0, 0]	n/a	FR1	0	R1222M
1376.799	0.516	1385459	RETRIEVAL_ORIENT	n/a	n/a	n/a	-999	11	[0, 0, 0]	n/a	FR1	0	R1222M
1377.315	1.352	1385975	REC_START	n/a	n/a	n/a	-999	11	[0, 0, 0]	n/a	FR1	0	R1222M
1378.667	5.113	1387327	REC_WORD	5.113	n/a	HOOF	-999	11	[0, 0, 0]	n/a	FR1	0	R1222M
1383.78	18.118	1392440	REC_WORD	18.118	n/a	THUMB	-999	11	[0, 0, 0]	n/a	FR1	0	R1222M
1401.898	3.345	1410557	REC_WORD	3.345	n/a	DEER	-999	11	[0, 0, 0]	n/a	FR1	0	R1222M
1405.243	2.082	1413902	REC_WORD	2.082	n/a	GATE	-999	11	[0, 0, 0]	n/a	FR1	0	R1222M
1407.325	6.531	1415984	REC_END	n/a	n/a	n/a	-999	11	[0, 0, 0]	n/a	FR1	0	R1222M
1413.856	0.5	1422514	TRIAL	n/a	n/a	n/a	-999	12	[0, 0, 0]	n/a	FR1	0	R1222M
1414.356	10.428	1423014	COUNTDOWN_START	n/a	n/a	n/a	-999	12	[0, 0, 0]	n/a	FR1	0	R1222M
1424.784	0.007	1433442	COUNTDOWN_END	n/a	n/a	n/a	-999	12	[0, 0, 0]	n/a	FR1	0	R1222M
1424.791	1.616	1433449	ORIENT	n/a	n/a	n/a	-999	12	[0, 0, 0]	n/a	FR1	0	R1222M
1426.407	1.884	1435065	ORIENT_OFF	n/a	n/a	n/a	-999	12	[0, 0, 0]	n/a	FR1	0	R1222M
1428.291	1.618	1436948	WORD	n/a	wordpools/wordpool_EN.txt	CHAIR	1	12	[0, 0, 0]	n/a	FR1	0	R1222M
1429.909	0.783	1438566	WORD_OFF	n/a	n/a	CHAIR	1	12	[0, 0, 0]	n/a	FR1	0	R1222M
1430.692	1.616	1439349	WORD	n/a	wordpools/wordpool_EN.txt	CROW	2	12	[0, 0, 0]	n/a	FR1	0	R1222M
1432.308	0.984	1440965	WORD_OFF	n/a	n/a	CROW	2	12	[0, 0, 0]	n/a	FR1	0	R1222M
1433.292	1.618	1441949	WORD	n/a	wordpools/wordpool_EN.txt	PIN	3	12	[0, 0, 0]	n/a	FR1	0	R1222M
1434.91	1.0	1443567	WORD_OFF	n/a	n/a	PIN	3	12	[0, 0, 0]	n/a	FR1	0	R1222M
1435.91	1.616	1444567	WORD	n/a	wordpools/wordpool_EN.txt	DRUM	4	12	[0, 0, 0]	n/a	FR1	0	R1222M
1437.526	0.767	1446183	WORD_OFF	n/a	n/a	DRUM	4	12	[0, 0, 0]	n/a	FR1	0	R1222M
1438.293	1.618	1446950	WORD	n/a	wordpools/wordpool_EN.txt	MAP	5	12	[0, 0, 0]	n/a	FR1	0	R1222M
1439.911	0.767	1448568	WORD_OFF	n/a	n/a	MAP	5	12	[0, 0, 0]	n/a	FR1	0	R1222M
1440.678	1.616	1449335	WORD	n/a	wordpools/wordpool_EN.txt	GRASS	6	12	[0, 0, 0]	n/a	FR1	0	R1222M
1442.294	0.933	1450951	WORD_OFF	n/a	n/a	GRASS	6	12	[0, 0, 0]	n/a	FR1	0	R1222M
1443.227	1.618	1451884	WORD	n/a	wordpools/wordpool_EN.txt	SNOW	7	12	[0, 0, 0]	n/a	FR1	0	R1222M
1444.845	1.0	1453502	WORD_OFF	n/a	n/a	SNOW	7	12	[0, 0, 0]	n/a	FR1	0	R1222M
1445.845	1.616	1454501	WORD	n/a	wordpools/wordpool_EN.txt	LAMB	8	12	[0, 0, 0]	n/a	FR1	0	R1222M
1447.461	0.834	1456117	WORD_OFF	n/a	n/a	LAMB	8	12	[0, 0, 0]	n/a	FR1	0	R1222M
1448.295	1.618	1456951	WORD	n/a	wordpools/wordpool_EN.txt	RICE	9	12	[0, 0, 0]	n/a	FR1	0	R1222M
1449.913	0.783	1458569	WORD_OFF	n/a	n/a	RICE	9	12	[0, 0, 0]	n/a	FR1	0	R1222M
1450.696	1.616	1459352	WORD	n/a	wordpools/wordpool_EN.txt	CHIN	10	12	[0, 0, 0]	n/a	FR1	0	R1222M
1452.312	0.851	1460968	WORD_OFF	n/a	n/a	CHIN	10	12	[0, 0, 0]	n/a	FR1	0	R1222M
1453.163	1.617	1461819	WORD	n/a	wordpools/wordpool_EN.txt	APE	11	12	[0, 0, 0]	n/a	FR1	0	R1222M
1454.78	0.866	1463436	WORD_OFF	n/a	n/a	APE	11	12	[0, 0, 0]	n/a	FR1	0	R1222M
1455.646	1.617	1464302	WORD	n/a	wordpools/wordpool_EN.txt	LAKE	12	12	[0, 0, 0]	n/a	FR1	0	R1222M
1457.263	0.0	1465919	WORD_OFF	n/a	n/a	LAKE	12	12	[0, 0, 0]	n/a	FR1	0	R1222M
1457.263	0.001	1465919	DISTRACT_START	n/a	n/a	n/a	-999	12	[0, 0, 0]	n/a	FR1	0	R1222M
1457.264	0.016	1465920	START	n/a	n/a	n/a	-999	12	[-999, -999, -999]	n/a	FR1	0	R1222M
1457.28	10.42	1465936	PROB	10.42	n/a	n/a	-999	12	[1, 4, 3]	8	FR1	0	R1222M
1467.7	6.517	1476355	PROB	6.517	n/a	n/a	-999	12	[4, 9, 9]	22	FR1	0	R1222M
1474.217	5.912	1482872	PROB	5.912	n/a	n/a	-999	12	[1, 2, 7]	10	FR1	0	R1222M
1480.129	0.006	1488784	STOP	n/a	n/a	n/a	-999	12	[-999, -999, -999]	n/a	FR1	0	R1222M
1480.135	0.55	1488790	DISTRACT_END	n/a	n/a	n/a	-999	12	[0, 0, 0]	n/a	FR1	0	R1222M
1480.685	0.518	1489339	RETRIEVAL_ORIENT	n/a	n/a	n/a	-999	12	[0, 0, 0]	n/a	FR1	0	R1222M
1481.203	0.859	1489857	REC_START	n/a	n/a	n/a	-999	12	[0, 0, 0]	n/a	FR1	0	R1222M
1482.062	8.81	1490716	REC_WORD	8.81	n/a	CHIN	-999	12	[0, 0, 0]	n/a	FR1	0	R1222M
1490.872	8.294	1499526	REC_WORD	8.294	n/a	CHAIR	-999	12	[0, 0, 0]	n/a	FR1	0	R1222M
1499.166	2.205	1507819	REC_WORD	2.205	n/a	GRASS	-999	12	[0, 0, 0]	n/a	FR1	0	R1222M
1501.371	9.843	1510024	REC_WORD	9.843	n/a	SNOW	-999	12	[0, 0, 0]	n/a	FR1	0	R1222M
1511.214	7.011	1519867	REC_END	n/a	n/a	n/a	-999	12	[0, 0, 0]	n/a	FR1	0	R1222M
1518.225	0.5	1526877	TRIAL	n/a	n/a	n/a	-999	13	[0, 0, 0]	n/a	FR1	0	R1222M
1518.725	10.428	1527377	COUNTDOWN_START	n/a	n/a	n/a	-999	13	[0, 0, 0]	n/a	FR1	0	R1222M
1529.153	0.008	1537805	COUNTDOWN_END	n/a	n/a	n/a	-999	13	[0, 0, 0]	n/a	FR1	0	R1222M
1529.161	1.617	1537813	ORIENT	n/a	n/a	n/a	-999	13	[0, 0, 0]	n/a	FR1	0	R1222M
1530.778	1.833	1539430	ORIENT_OFF	n/a	n/a	n/a	-999	13	[0, 0, 0]	n/a	FR1	0	R1222M
1532.611	1.601	1541263	WORD	n/a	wordpools/wordpool_EN.txt	WORM	1	13	[0, 0, 0]	n/a	FR1	0	R1222M
1534.212	0.951	1542863	WORD_OFF	n/a	n/a	WORM	1	13	[0, 0, 0]	n/a	FR1	0	R1222M
1535.163	1.617	1543814	WORD	n/a	wordpools/wordpool_EN.txt	EGG	2	13	[0, 0, 0]	n/a	FR1	0	R1222M
1536.78	0.782	1545431	WORD_OFF	n/a	n/a	EGG	2	13	[0, 0, 0]	n/a	FR1	0	R1222M
1537.562	1.618	1546213	WORD	n/a	wordpools/wordpool_EN.txt	TOOTH	3	13	[0, 0, 0]	n/a	FR1	0	R1222M
1539.18	0.933	1547831	WORD_OFF	n/a	n/a	TOOTH	3	13	[0, 0, 0]	n/a	FR1	0	R1222M
1540.113	1.618	1548764	WORD	n/a	wordpools/wordpool_EN.txt	DOLL	4	13	[0, 0, 0]	n/a	FR1	0	R1222M
1541.731	0.765	1550382	WORD_OFF	n/a	n/a	DOLL	4	13	[0, 0, 0]	n/a	FR1	0	R1222M
1542.496	1.601	1551147	WORD	n/a	wordpools/wordpool_EN.txt	LAWN	5	13	[0, 0, 0]	n/a	FR1	0	R1222M
1544.097	0.967	1552748	WORD_OFF	n/a	n/a	LAWN	5	13	[0, 0, 0]	n/a	FR1	0	R1222M
1545.064	1.617	1553715	WORD	n/a	wordpools/wordpool_EN.txt	NOSE	6	13	[0, 0, 0]	n/a	FR1	0	R1222M
1546.681	0.8	1555332	WORD_OFF	n/a	n/a	NOSE	6	13	[0, 0, 0]	n/a	FR1	0	R1222M
1547.481	1.618	1556132	WORD	n/a	wordpools/wordpool_EN.txt	CUBE	7	13	[0, 0, 0]	n/a	FR1	0	R1222M
1549.099	0.883	1557750	WORD_OFF	n/a	n/a	CUBE	7	13	[0, 0, 0]	n/a	FR1	0	R1222M
1549.982	1.616	1558633	WORD	n/a	wordpools/wordpool_EN.txt	FLAG	8	13	[0, 0, 0]	n/a	FR1	0	R1222M
1551.598	0.984	1560248	WORD_OFF	n/a	n/a	FLAG	8	13	[0, 0, 0]	n/a	FR1	0	R1222M
1552.582	1.618	1561232	WORD	n/a	wordpools/wordpool_EN.txt	HOOK	9	13	[0, 0, 0]	n/a	FR1	0	R1222M
1554.2	0.916	1562850	WORD_OFF	n/a	n/a	HOOK	9	13	[0, 0, 0]	n/a	FR1	0	R1222M
1555.116	1.617	1563766	WORD	n/a	wordpools/wordpool_EN.txt	SWORD	10	13	[0, 0, 0]	n/a	FR1	0	R1222M
1556.733	0.766	1565383	WORD_OFF	n/a	n/a	SWORD	10	13	[0, 0, 0]	n/a	FR1	0	R1222M
1557.499	1.601	1566149	WORD	n/a	wordpools/wordpool_EN.txt	TANK	11	13	[0, 0, 0]	n/a	FR1	0	R1222M
1559.1	0.801	1567750	WORD_OFF	n/a	n/a	TANK	11	13	[0, 0, 0]	n/a	FR1	0	R1222M
1559.901	1.616	1568551	WORD	n/a	wordpools/wordpool_EN.txt	CART	12	13	[0, 0, 0]	n/a	FR1	0	R1222M
1561.517	0.0	1570167	WORD_OFF	n/a	n/a	CART	12	13	[0, 0, 0]	n/a	FR1	0	R1222M
1561.517	0.0	1570167	DISTRACT_START	n/a	n/a	n/a	-999	13	[0, 0, 0]	n/a	FR1	0	R1222M
1561.517	0.016	1570167	START	n/a	n/a	n/a	-999	13	[-999, -999, -999]	n/a	FR1	0	R1222M
1561.533	8.035	1570183	PROB	8.035	n/a	n/a	-999	13	[7, 5, 1]	13	FR1	0	R1222M
1569.568	7.469	1578217	PROB	7.469	n/a	n/a	-999	13	[9, 5, 1]	15	FR1	0	R1222M
1577.037	5.78	1585686	PROB	5.78	n/a	n/a	-999	13	[4, 7, 1]	12	FR1	0	R1222M
1582.817	0.022	1591466	STOP	n/a	n/a	n/a	-999	13	[-999, -999, -999]	n/a	FR1	0	R1222M
1582.839	0.565	1591488	DISTRACT_END	n/a	n/a	n/a	-999	13	[0, 0, 0]	n/a	FR1	0	R1222M
1583.404	0.519	1592053	RETRIEVAL_ORIENT	n/a	n/a	n/a	-999	13	[0, 0, 0]	n/a	FR1	0	R1222M
1583.923	14.464	1592572	REC_START	n/a	n/a	n/a	-999	13	[0, 0, 0]	n/a	FR1	0	R1222M
1598.387	15.547	1607035	REC_WORD	15.547	n/a	LAWN	-999	13	[0, 0, 0]	n/a	FR1	0	R1222M
1613.934	6.178	1622581	REC_END	n/a	n/a	n/a	-999	13	[0, 0, 0]	n/a	FR1	0	R1222M
1620.112	0.5	1628759	TRIAL	n/a	n/a	n/a	-999	14	[0, 0, 0]	n/a	FR1	0	R1222M
1620.612	10.428	1629259	COUNTDOWN_START	n/a	n/a	n/a	-999	14	[0, 0, 0]	n/a	FR1	0	R1222M
1631.04	0.008	1639686	COUNTDOWN_END	n/a	n/a	n/a	-999	14	[0, 0, 0]	n/a	FR1	0	R1222M
1631.048	1.617	1639694	ORIENT	n/a	n/a	n/a	-999	14	[0, 0, 0]	n/a	FR1	0	R1222M
1632.665	2.167	1641311	ORIENT_OFF	n/a	n/a	n/a	-999	14	[0, 0, 0]	n/a	FR1	0	R1222M
1634.832	1.616	1643478	WORD	n/a	wordpools/wordpool_EN.txt	SQUARE	1	14	[0, 0, 0]	n/a	FR1	0	R1222M
1636.448	0.95	1645094	WORD_OFF	n/a	n/a	SQUARE	1	14	[0, 0, 0]	n/a	FR1	0	R1222M
1637.398	1.618	1646044	WORD	n/a	wordpools/wordpool_EN.txt	GOLD	2	14	[0, 0, 0]	n/a	FR1	0	R1222M
1639.016	1.0	1647661	WORD_OFF	n/a	n/a	GOLD	2	14	[0, 0, 0]	n/a	FR1	0	R1222M
1640.016	1.616	1648661	WORD	n/a	wordpools/wordpool_EN.txt	AXE	3	14	[0, 0, 0]	n/a	FR1	0	R1222M
1641.632	0.784	1650277	WORD_OFF	n/a	n/a	AXE	3	14	[0, 0, 0]	n/a	FR1	0	R1222M
1642.416	1.618	1651061	WORD	n/a	wordpools/wordpool_EN.txt	BEACH	4	14	[0, 0, 0]	n/a	FR1	0	R1222M
1644.034	0.8	1652679	WORD_OFF	n/a	n/a	BEACH	4	14	[0, 0, 0]	n/a	FR1	0	R1222M
1644.834	1.616	1653479	WORD	n/a	wordpools/wordpool_EN.txt	SMILE	5	14	[0, 0, 0]	n/a	FR1	0	R1222M
1646.45	0.95	1655095	WORD_OFF	n/a	n/a	SMILE	5	14	[0, 0, 0]	n/a	FR1	0	R1222M
1647.4	1.618	1656045	WORD	n/a	wordpools/wordpool_EN.txt	PLANE	6	14	[0, 0, 0]	n/a	FR1	0	R1222M
1649.018	0.867	1657663	WORD_OFF	n/a	n/a	PLANE	6	14	[0, 0, 0]	n/a	FR1	0	R1222M
1649.885	1.616	1658530	WORD	n/a	wordpools/wordpool_EN.txt	COW	7	14	[0, 0, 0]	n/a	FR1	0	R1222M
1651.501	0.867	1660146	WORD_OFF	n/a	n/a	COW	7	14	[0, 0, 0]	n/a	FR1	0	R1222M
1652.368	1.618	1661013	WORD	n/a	wordpools/wordpool_EN.txt	SHRIMP	8	14	[0, 0, 0]	n/a	FR1	0	R1222M
1653.986	1.0	1662631	WORD_OFF	n/a	n/a	SHRIMP	8	14	[0, 0, 0]	n/a	FR1	0	R1222M
1654.986	1.616	1663631	WORD	n/a	wordpools/wordpool_EN.txt	SHEEP	9	14	[0, 0, 0]	n/a	FR1	0	R1222M
1656.602	0.8	1665247	WORD_OFF	n/a	n/a	SHEEP	9	14	[0, 0, 0]	n/a	FR1	0	R1222M
1657.402	1.618	1666046	WORD	n/a	wordpools/wordpool_EN.txt	MAIL	10	14	[0, 0, 0]	n/a	FR1	0	R1222M
1659.02	0.817	1667664	WORD_OFF	n/a	n/a	MAIL	10	14	[0, 0, 0]	n/a	FR1	0	R1222M
1659.837	1.616	1668481	WORD	n/a	wordpools/wordpool_EN.txt	FUDGE	11	14	[0, 0, 0]	n/a	FR1	0	R1222M
1661.453	0.8	1670097	WORD_OFF	n/a	n/a	FUDGE	11	14	[0, 0, 0]	n/a	FR1	0	R1222M
1662.253	1.618	1670897	WORD	n/a	wordpools/wordpool_EN.txt	CAVE	12	14	[0, 0, 0]	n/a	FR1	0	R1222M
1663.871	0.0	1672515	WORD_OFF	n/a	n/a	CAVE	12	14	[0, 0, 0]	n/a	FR1	0	R1222M
1663.871	0.0	1672515	DISTRACT_START	n/a	n/a	n/a	-999	14	[0, 0, 0]	n/a	FR1	0	R1222M
1663.871	0.017	1672515	START	n/a	n/a	n/a	-999	14	[-999, -999, -999]	n/a	FR1	0	R1222M
1663.888	120.872	1672532	PROB	120.872	n/a	n/a	-999	14	[4, 7, 9]	20	FR1	0	R1222M
1784.76	0.018	1793397	STOP	n/a	n/a	n/a	-999	14	[-999, -999, -999]	n/a	FR1	0	R1222M
1784.778	0.699	1793415	DISTRACT_END	n/a	n/a	n/a	-999	14	[0, 0, 0]	n/a	FR1	0	R1222M
1785.477	0.518	1794114	RETRIEVAL_ORIENT	n/a	n/a	n/a	-999	14	[0, 0, 0]	n/a	FR1	0	R1222M
1785.995	23.01	1794632	REC_START	n/a	n/a	n/a	-999	14	[0, 0, 0]	n/a	FR1	0	R1222M
1809.005	7.001	1817641	REC_WORD_VV	7.001	n/a	<>	-999	14	[0, 0, 0]	n/a	FR1	0	R1222M
1816.006	28.066	1824641	REC_END	n/a	n/a	n/a	-999	14	[0, 0, 0]	n/a	FR1	0	R1222M
1844.072	0.5	1852706	TRIAL	n/a	n/a	n/a	-999	15	[0, 0, 0]	n/a	FR1	0	R1222M
1844.572	10.428	1853206	COUNTDOWN_START	n/a	n/a	n/a	-999	15	[0, 0, 0]	n/a	FR1	0	R1222M
1855.0	0.008	1863633	COUNTDOWN_END	n/a	n/a	n/a	-999	15	[0, 0, 0]	n/a	FR1	0	R1222M
1855.008	1.616	1863641	ORIENT	n/a	n/a	n/a	-999	15	[0, 0, 0]	n/a	FR1	0	R1222M
1856.624	1.983	1865257	ORIENT_OFF	n/a	n/a	n/a	-999	15	[0, 0, 0]	n/a	FR1	0	R1222M
1858.607	1.617	1867240	WORD	n/a	wordpools/wordpool_EN.txt	SPOON	1	15	[0, 0, 0]	n/a	FR1	0	R1222M
1860.224	0.768	1868857	WORD_OFF	n/a	n/a	SPOON	1	15	[0, 0, 0]	n/a	FR1	0	R1222M
1860.992	1.616	1869625	WORD	n/a	wordpools/wordpool_EN.txt	FROG	2	15	[0, 0, 0]	n/a	FR1	0	R1222M
1862.608	0.984	1871241	WORD_OFF	n/a	n/a	FROG	2	15	[0, 0, 0]	n/a	FR1	0	R1222M
1863.592	1.618	1872225	WORD	n/a	wordpools/wordpool_EN.txt	FILM	3	15	[0, 0, 0]	n/a	FR1	0	R1222M
1865.21	0.883	1873843	WORD_OFF	n/a	n/a	FILM	3	15	[0, 0, 0]	n/a	FR1	0	R1222M
1866.093	1.617	1874726	WORD	n/a	wordpools/wordpool_EN.txt	PIG	4	15	[0, 0, 0]	n/a	FR1	0	R1222M
1867.71	0.833	1876343	WORD_OFF	n/a	n/a	PIG	4	15	[0, 0, 0]	n/a	FR1	0	R1222M
1868.543	1.601	1877175	WORD	n/a	wordpools/wordpool_EN.txt	PLANT	5	15	[0, 0, 0]	n/a	FR1	0	R1222M
1870.144	0.85	1878776	WORD_OFF	n/a	n/a	PLANT	5	15	[0, 0, 0]	n/a	FR1	0	R1222M
1870.994	1.616	1879626	WORD	n/a	wordpools/wordpool_EN.txt	CORD	6	15	[0, 0, 0]	n/a	FR1	0	R1222M
1872.61	0.784	1881242	WORD_OFF	n/a	n/a	CORD	6	15	[0, 0, 0]	n/a	FR1	0	R1222M
1873.394	1.618	1882026	WORD	n/a	wordpools/wordpool_EN.txt	PEARL	7	15	[0, 0, 0]	n/a	FR1	0	R1222M
1875.012	1.017	1883644	WORD_OFF	n/a	n/a	PEARL	7	15	[0, 0, 0]	n/a	FR1	0	R1222M
1876.029	1.615	1884661	WORD	n/a	wordpools/wordpool_EN.txt	SUN	8	15	[0, 0, 0]	n/a	FR1	0	R1222M
1877.644	1.018	1886276	WORD_OFF	n/a	n/a	SUN	8	15	[0, 0, 0]	n/a	FR1	0	R1222M
1878.662	1.616	1887294	WORD	n/a	wordpools/wordpool_EN.txt	STEAM	9	15	[0, 0, 0]	n/a	FR1	0	R1222M
1880.278	0.851	1888910	WORD_OFF	n/a	n/a	STEAM	9	15	[0, 0, 0]	n/a	FR1	0	R1222M
1881.129	1.618	1889761	WORD	n/a	wordpools/wordpool_EN.txt	WEB	10	15	[0, 0, 0]	n/a	FR1	0	R1222M
1882.747	0.966	1891379	WORD_OFF	n/a	n/a	WEB	10	15	[0, 0, 0]	n/a	FR1	0	R1222M
1883.713	1.616	1892345	WORD	n/a	wordpools/wordpool_EN.txt	BRANCH	11	15	[0, 0, 0]	n/a	FR1	0	R1222M
1885.329	0.852	1893961	WORD_OFF	n/a	n/a	BRANCH	11	15	[0, 0, 0]	n/a	FR1	0	R1222M
1886.181	1.617	1894812	WORD	n/a	wordpools/wordpool_EN.txt	SMOKE	12	15	[0, 0, 0]	n/a	FR1	0	R1222M
1887.798	0.0	1896429	WORD_OFF	n/a	n/a	SMOKE	12	15	[0, 0, 0]	n/a	FR1	0	R1222M
1887.798	0.0	1896429	DISTRACT_START	n/a	n/a	n/a	-999	15	[0, 0, 0]	n/a	FR1	0	R1222M
1887.798	0.016	1896429	START	n/a	n/a	n/a	-999	15	[-999, -999, -999]	n/a	FR1	0	R1222M
1887.814	9.002	1896445	PROB	9.002	n/a	n/a	-999	15	[7, 6, 8]	21	FR1	0	R1222M
1896.816	7.717	1905447	PROB	7.717	n/a	n/a	-999	15	[6, 1, 9]	16	FR1	0	R1222M
1904.533	7.276	1913163	PROB	7.276	n/a	n/a	-999	15	[2, 5, 3]	10	FR1	0	R1222M
1911.809	0.01	1920439	STOP	n/a	n/a	n/a	-999	15	[-999, -999, -999]	n/a	FR1	0	R1222M
1911.819	0.532	1920449	DISTRACT_END	n/a	n/a	n/a	-999	15	[0, 0, 0]	n/a	FR1	0	R1222M
1912.351	0.519	1920981	RETRIEVAL_ORIENT	n/a	n/a	n/a	-999	15	[0, 0, 0]	n/a	FR1	0	R1222M
1912.87	9.541	1921500	REC_START	n/a	n/a	n/a	-999	15	[0, 0, 0]	n/a	FR1	0	R1222M
1922.411	20.468	1931040	REC_WORD	20.468	n/a	PEARL	-999	15	[0, 0, 0]	n/a	FR1	0	R1222M
1942.879	6.629	1951507	REC_END	n/a	n/a	n/a	-999	15	[0, 0, 0]	n/a	FR1	0	R1222M
1949.508	0.5	1958136	TRIAL	n/a	n/a	n/a	-999	16	[0, 0, 0]	n/a	FR1	0	R1222M
1950.008	10.428	1958636	COUNTDOWN_START	n/a	n/a	n/a	-999	16	[0, 0, 0]	n/a	FR1	0	R1222M
1960.436	0.008	1969063	COUNTDOWN_END	n/a	n/a	n/a	-999	16	[0, 0, 0]	n/a	FR1	0	R1222M
1960.444	1.618	1969071	ORIENT	n/a	n/a	n/a	-999	16	[0, 0, 0]	n/a	FR1	0	R1222M
1962.062	1.867	1970689	ORIENT_OFF	n/a	n/a	n/a	-999	16	[0, 0, 0]	n/a	FR1	0	R1222M
1963.929	1.616	1972556	WORD	n/a	wordpools/wordpool_EN.txt	HAND	1	16	[0, 0, 0]	n/a	FR1	0	R1222M
1965.545	0.867	1974172	WORD_OFF	n/a	n/a	HAND	1	16	[0, 0, 0]	n/a	FR1	0	R1222M
1966.412	1.618	1975039	WORD	n/a	wordpools/wordpool_EN.txt	ELF	2	16	[0, 0, 0]	n/a	FR1	0	R1222M
1968.03	0.833	1976657	WORD_OFF	n/a	n/a	ELF	2	16	[0, 0, 0]	n/a	FR1	0	R1222M
1968.863	1.616	1977490	WORD	n/a	wordpools/wordpool_EN.txt	DIME	3	16	[0, 0, 0]	n/a	FR1	0	R1222M
1970.479	0.934	1979106	WORD_OFF	n/a	n/a	DIME	3	16	[0, 0, 0]	n/a	FR1	0	R1222M
1971.413	1.618	1980040	WORD	n/a	wordpools/wordpool_EN.txt	SHIRT	4	16	[0, 0, 0]	n/a	FR1	0	R1222M
1973.031	0.883	1981658	WORD_OFF	n/a	n/a	SHIRT	4	16	[0, 0, 0]	n/a	FR1	0	R1222M
1973.914	1.616	1982541	WORD	n/a	wordpools/wordpool_EN.txt	STAIR	5	16	[0, 0, 0]	n/a	FR1	0	R1222M
1975.53	0.95	1984156	WORD_OFF	n/a	n/a	STAIR	5	16	[0, 0, 0]	n/a	FR1	0	R1222M
1976.48	1.618	1985106	WORD	n/a	wordpools/wordpool_EN.txt	BENCH	6	16	[0, 0, 0]	n/a	FR1	0	R1222M
1978.098	0.917	1986724	WORD_OFF	n/a	n/a	BENCH	6	16	[0, 0, 0]	n/a	FR1	0	R1222M
1979.015	1.616	1987641	WORD	n/a	wordpools/wordpool_EN.txt	TAIL	7	16	[0, 0, 0]	n/a	FR1	0	R1222M
1980.631	0.817	1989257	WORD_OFF	n/a	n/a	TAIL	7	16	[0, 0, 0]	n/a	FR1	0	R1222M
1981.448	1.618	1990074	WORD	n/a	wordpools/wordpool_EN.txt	BAG	8	16	[0, 0, 0]	n/a	FR1	0	R1222M
1983.066	1.0	1991692	WORD_OFF	n/a	n/a	BAG	8	16	[0, 0, 0]	n/a	FR1	0	R1222M
1984.066	1.617	1992692	WORD	n/a	wordpools/wordpool_EN.txt	RAT	9	16	[0, 0, 0]	n/a	FR1	0	R1222M
1985.683	0.984	1994309	WORD_OFF	n/a	n/a	RAT	9	16	[0, 0, 0]	n/a	FR1	0	R1222M
1986.667	1.616	1995293	WORD	n/a	wordpools/wordpool_EN.txt	ROAD	10	16	[0, 0, 0]	n/a	FR1	0	R1222M
1988.283	0.967	1996909	WORD_OFF	n/a	n/a	ROAD	10	16	[0, 0, 0]	n/a	FR1	0	R1222M
1989.25	1.617	1997876	WORD	n/a	wordpools/wordpool_EN.txt	FLEA	11	16	[0, 0, 0]	n/a	FR1	0	R1222M
1990.867	0.967	1999493	WORD_OFF	n/a	n/a	FLEA	11	16	[0, 0, 0]	n/a	FR1	0	R1222M
1991.834	1.616	2000460	WORD	n/a	wordpools/wordpool_EN.txt	BAT	12	16	[0, 0, 0]	n/a	FR1	0	R1222M
1993.45	0.0	2002075	WORD_OFF	n/a	n/a	BAT	12	16	[0, 0, 0]	n/a	FR1	0	R1222M
1993.45	0.001	2002075	DISTRACT_START	n/a	n/a	n/a	-999	16	[0, 0, 0]	n/a	FR1	0	R1222M
1993.451	0.016	2002076	START	n/a	n/a	n/a	-999	16	[-999, -999, -999]	n/a	FR1	0	R1222M
1993.467	7.835	2002092	PROB	7.835	n/a	n/a	-999	16	[9, 3, 6]	18	FR1	0	R1222M
2001.302	7.736	2009927	PROB	7.736	n/a	n/a	-999	16	[8, 4, 3]	15	FR1	0	R1222M
2009.038	8.858	2017663	PROB	8.858	n/a	n/a	-999	16	[2, 5, 9]	16	FR1	0	R1222M
2017.896	0.01	2026520	STOP	n/a	n/a	n/a	-999	16	[-999, -999, -999]	n/a	FR1	0	R1222M
2017.906	0.632	2026530	DISTRACT_END	n/a	n/a	n/a	-999	16	[0, 0, 0]	n/a	FR1	0	R1222M
2018.538	0.519	2027162	RETRIEVAL_ORIENT	n/a	n/a	n/a	-999	16	[0, 0, 0]	n/a	FR1	0	R1222M
2019.057	7.823	2027681	REC_START	n/a	n/a	n/a	-999	16	[0, 0, 0]	n/a	FR1	0	R1222M
2026.88	13.284	2035504	REC_WORD	13.284	n/a	FLEA	-999	16	[0, 0, 0]	n/a	FR1	0	R1222M
2040.164	8.902	2048787	REC_WORD	8.902	n/a	BAT	-999	16	[0, 0, 0]	n/a	FR1	0	R1222M
2049.066	10.898	2057688	REC_END	n/a	n/a	n/a	-999	16	[0, 0, 0]	n/a	FR1	0	R1222M
2059.964	0.5	2068586	TRIAL	n/a	n/a	n/a	-999	17	[0, 0, 0]	n/a	FR1	0	R1222M
2060.464	10.428	2069086	COUNTDOWN_START	n/a	n/a	n/a	-999	17	[0, 0, 0]	n/a	FR1	0	R1222M
2070.892	0.008	2079513	COUNTDOWN_END	n/a	n/a	n/a	-999	17	[0, 0, 0]	n/a	FR1	0	R1222M
2070.9	1.616	2079521	ORIENT	n/a	n/a	n/a	-999	17	[0, 0, 0]	n/a	FR1	0	R1222M
2072.516	2.268	2081137	ORIENT_OFF	n/a	n/a	n/a	-999	17	[0, 0, 0]	n/a	FR1	0	R1222M
2074.784	1.616	2083405	WORD	n/a	wordpools/wordpool_EN.txt	BATH	1	17	[0, 0, 0]	n/a	FR1	0	R1222M
2076.4	0.95	2085021	WORD_OFF	n/a	n/a	BATH	1	17	[0, 0, 0]	n/a	FR1	0	R1222M
2077.35	1.618	2085971	WORD	n/a	wordpools/wordpool_EN.txt	BOY	2	17	[0, 0, 0]	n/a	FR1	0	R1222M
2078.968	0.817	2087589	WORD_OFF	n/a	n/a	BOY	2	17	[0, 0, 0]	n/a	FR1	0	R1222M
2079.785	1.616	2088406	WORD	n/a	wordpools/wordpool_EN.txt	FORK	3	17	[0, 0, 0]	n/a	FR1	0	R1222M
2081.401	0.9	2090021	WORD_OFF	n/a	n/a	FORK	3	17	[0, 0, 0]	n/a	FR1	0	R1222M
2082.301	1.618	2090921	WORD	n/a	wordpools/wordpool_EN.txt	DUCK	4	17	[0, 0, 0]	n/a	FR1	0	R1222M
2083.919	0.783	2092539	WORD_OFF	n/a	n/a	DUCK	4	17	[0, 0, 0]	n/a	FR1	0	R1222M
2084.702	1.616	2093322	WORD	n/a	wordpools/wordpool_EN.txt	ROCK	5	17	[0, 0, 0]	n/a	FR1	0	R1222M
2086.318	0.967	2094938	WORD_OFF	n/a	n/a	ROCK	5	17	[0, 0, 0]	n/a	FR1	0	R1222M
2087.285	1.601	2095905	WORD	n/a	wordpools/wordpool_EN.txt	CANE	6	17	[0, 0, 0]	n/a	FR1	0	R1222M
2088.886	0.834	2097506	WORD_OFF	n/a	n/a	CANE	6	17	[0, 0, 0]	n/a	FR1	0	R1222M
2089.72	1.616	2098340	WORD	n/a	wordpools/wordpool_EN.txt	DRESS	7	17	[0, 0, 0]	n/a	FR1	0	R1222M
2091.336	0.818	2099956	WORD_OFF	n/a	n/a	DRESS	7	17	[0, 0, 0]	n/a	FR1	0	R1222M
2092.154	1.617	2100774	WORD	n/a	wordpools/wordpool_EN.txt	SCHOOL	8	17	[0, 0, 0]	n/a	FR1	0	R1222M
2093.771	0.933	2102391	WORD_OFF	n/a	n/a	SCHOOL	8	17	[0, 0, 0]	n/a	FR1	0	R1222M
2094.704	1.616	2103324	WORD	n/a	wordpools/wordpool_EN.txt	SLUSH	9	17	[0, 0, 0]	n/a	FR1	0	R1222M
2096.32	0.851	2104940	WORD_OFF	n/a	n/a	SLUSH	9	17	[0, 0, 0]	n/a	FR1	0	R1222M
2097.171	1.617	2105791	WORD	n/a	wordpools/wordpool_EN.txt	FOOT	10	17	[0, 0, 0]	n/a	FR1	0	R1222M
2098.788	0.816	2107407	WORD_OFF	n/a	n/a	FOOT	10	17	[0, 0, 0]	n/a	FR1	0	R1222M
2099.604	1.617	2108223	WORD	n/a	wordpools/wordpool_EN.txt	BREAD	11	17	[0, 0, 0]	n/a	FR1	0	R1222M
2101.221	0.935	2109840	WORD_OFF	n/a	n/a	BREAD	11	17	[0, 0, 0]	n/a	FR1	0	R1222M
2102.156	1.617	2110775	WORD	n/a	wordpools/wordpool_EN.txt	LOCK	12	17	[0, 0, 0]	n/a	FR1	0	R1222M
2103.773	0.0	2112392	DISTRACT_START	n/a	n/a	n/a	-999	17	[0, 0, 0]	n/a	FR1	0	R1222M
2103.773	0.0	2112392	WORD_OFF	n/a	n/a	LOCK	12	17	[0, 0, 0]	n/a	FR1	0	R1222M
2103.773	0.016	2112392	START	n/a	n/a	n/a	-999	17	[-999, -999, -999]	n/a	FR1	0	R1222M
2103.789	7.335	2112408	PROB	7.335	n/a	n/a	-999	17	[5, 3, 7]	15	FR1	0	R1222M
2111.124	6.334	2119743	PROB	6.334	n/a	n/a	-999	17	[7, 1, 2]	10	FR1	0	R1222M
2117.458	6.51	2126076	PROB	6.51	n/a	n/a	-999	17	[3, 7, 9]	19	FR1	0	R1222M
2123.968	0.009	2132586	STOP	n/a	n/a	n/a	-999	17	[-999, -999, -999]	n/a	FR1	0	R1222M
2123.977	0.599	2132595	DISTRACT_END	n/a	n/a	n/a	-999	17	[0, 0, 0]	n/a	FR1	0	R1222M
2124.576	0.518	2133194	RETRIEVAL_ORIENT	n/a	n/a	n/a	-999	17	[0, 0, 0]	n/a	FR1	0	R1222M
2125.094	1.259	2133712	REC_START	n/a	n/a	n/a	-999	17	[0, 0, 0]	n/a	FR1	0	R1222M
2126.353	8.78	2134971	REC_WORD	8.78	n/a	BREAD	-999	17	[0, 0, 0]	n/a	FR1	0	R1222M
2135.133	12.974	2143750	REC_WORD	12.974	n/a	LOCK	-999	17	[0, 0, 0]	n/a	FR1	0	R1222M
2148.107	6.998	2156724	REC_WORD	6.998	n/a	SCHOOL	-999	17	[0, 0, 0]	n/a	FR1	0	R1222M
2155.105	7.478	2163721	REC_END	n/a	n/a	n/a	-999	17	[0, 0, 0]	n/a	FR1	0	R1222M
2162.583	0.5	2171199	TRIAL	n/a	n/a	n/a	-999	18	[0, 0, 0]	n/a	FR1	0	R1222M
2163.083	10.428	2171699	COUNTDOWN_START	n/a	n/a	n/a	-999	18	[0, 0, 0]	n/a	FR1	0	R1222M
2173.511	0.007	2182126	COUNTDOWN_END	n/a	n/a	n/a	-999	18	[0, 0, 0]	n/a	FR1	0	R1222M
2173.518	1.618	2182133	ORIENT	n/a	n/a	n/a	-999	18	[0, 0, 0]	n/a	FR1	0	R1222M
2175.136	2.217	2183751	ORIENT_OFF	n/a	n/a	n/a	-999	18	[0, 0, 0]	n/a	FR1	0	R1222M
2177.353	1.618	2185968	WORD	n/a	wordpools/wordpool_EN.txt	SKI	1	18	[0, 0, 0]	n/a	FR1	0	R1222M
2178.971	0.883	2187586	WORD_OFF	n/a	n/a	SKI	1	18	[0, 0, 0]	n/a	FR1	0	R1222M
2179.854	1.616	2188469	WORD	n/a	wordpools/wordpool_EN.txt	FLAME	2	18	[0, 0, 0]	n/a	FR1	0	R1222M
2181.47	0.884	2190085	WORD_OFF	n/a	n/a	FLAME	2	18	[0, 0, 0]	n/a	FR1	0	R1222M
2182.354	1.617	2190969	WORD	n/a	wordpools/wordpool_EN.txt	ARK	3	18	[0, 0, 0]	n/a	FR1	0	R1222M
2183.971	0.917	2192586	WORD_OFF	n/a	n/a	ARK	3	18	[0, 0, 0]	n/a	FR1	0	R1222M
2184.888	1.616	2193503	WORD	n/a	wordpools/wordpool_EN.txt	CONE	4	18	[0, 0, 0]	n/a	FR1	0	R1222M
2186.504	0.784	2195118	WORD_OFF	n/a	n/a	CONE	4	18	[0, 0, 0]	n/a	FR1	0	R1222M
2187.288	1.618	2195902	WORD	n/a	wordpools/wordpool_EN.txt	WOOD	5	18	[0, 0, 0]	n/a	FR1	0	R1222M
2188.906	0.817	2197520	WORD_OFF	n/a	n/a	WOOD	5	18	[0, 0, 0]	n/a	FR1	0	R1222M
2189.723	1.616	2198337	WORD	n/a	wordpools/wordpool_EN.txt	MOLE	6	18	[0, 0, 0]	n/a	FR1	0	R1222M
2191.339	0.9	2199953	WORD_OFF	n/a	n/a	MOLE	6	18	[0, 0, 0]	n/a	FR1	0	R1222M
2192.239	1.618	2200853	WORD	n/a	wordpools/wordpool_EN.txt	ANT	7	18	[0, 0, 0]	n/a	FR1	0	R1222M
2193.857	0.95	2202471	WORD_OFF	n/a	n/a	ANT	7	18	[0, 0, 0]	n/a	FR1	0	R1222M
2194.807	1.616	2203421	WORD	n/a	wordpools/wordpool_EN.txt	GLOVE	8	18	[0, 0, 0]	n/a	FR1	0	R1222M
2196.423	0.933	2205037	WORD_OFF	n/a	n/a	GLOVE	8	18	[0, 0, 0]	n/a	FR1	0	R1222M
2197.356	1.618	2205970	WORD	n/a	wordpools/wordpool_EN.txt	MUD	9	18	[0, 0, 0]	n/a	FR1	0	R1222M
2198.974	0.934	2207588	WORD_OFF	n/a	n/a	MUD	9	18	[0, 0, 0]	n/a	FR1	0	R1222M
2199.908	1.616	2208522	WORD	n/a	wordpools/wordpool_EN.txt	MUG	10	18	[0, 0, 0]	n/a	FR1	0	R1222M
2201.524	0.9	2210138	WORD_OFF	n/a	n/a	MUG	10	18	[0, 0, 0]	n/a	FR1	0	R1222M
2202.424	1.618	2211038	WORD	n/a	wordpools/wordpool_EN.txt	BEE	11	18	[0, 0, 0]	n/a	FR1	0	R1222M
2204.042	0.883	2212655	WORD_OFF	n/a	n/a	BEE	11	18	[0, 0, 0]	n/a	FR1	0	R1222M
2204.925	1.617	2213538	WORD	n/a	wordpools/wordpool_EN.txt	CHIEF	12	18	[0, 0, 0]	n/a	FR1	0	R1222M
2206.542	0.0	2215155	WORD_OFF	n/a	n/a	CHIEF	12	18	[0, 0, 0]	n/a	FR1	0	R1222M
2206.542	0.0	2215155	DISTRACT_START	n/a	n/a	n/a	-999	18	[0, 0, 0]	n/a	FR1	0	R1222M
2206.542	0.016	2215155	START	n/a	n/a	n/a	-999	18	[-999, -999, -999]	n/a	FR1	0	R1222M
2206.558	8.17	2215171	PROB	8.17	n/a	n/a	-999	18	[7, 4, 4]	15	FR1	0	R1222M
2214.728	11.118	2223341	PROB	11.118	n/a	n/a	-999	18	[9, 9, 7]	23	FR1	0	R1222M
2225.846	6.922	2234458	PROB	6.922	n/a	n/a	-999	18	[2, 7, 3]	12	FR1	0	R1222M
2232.768	0.013	2241380	STOP	n/a	n/a	n/a	-999	18	[-999, -999, -999]	n/a	FR1	0	R1222M
2232.781	0.565	2241393	DISTRACT_END	n/a	n/a	n/a	-999	18	[0, 0, 0]	n/a	FR1	0	R1222M
2233.346	0.519	2241958	RETRIEVAL_ORIENT	n/a	n/a	n/a	-999	18	[0, 0, 0]	n/a	FR1	0	R1222M
2233.865	1.044	2242477	REC_START	n/a	n/a	n/a	-999	18	[0, 0, 0]	n/a	FR1	0	R1222M
2234.909	28.967	2243521	REC_WORD_VV	28.967	n/a	<>	-999	18	[0, 0, 0]	n/a	FR1	0	R1222M
2263.876	6.745	2272486	REC_END	n/a	n/a	n/a	-999	18	[0, 0, 0]	n/a	FR1	0	R1222M
2270.621	0.5	2279231	TRIAL	n/a	n/a	n/a	-999	19	[0, 0, 0]	n/a	FR1	0	R1222M
2271.121	10.428	2279731	COUNTDOWN_START	n/a	n/a	n/a	-999	19	[0, 0, 0]	n/a	FR1	0	R1222M
2281.549	0.007	2290158	COUNTDOWN_END	n/a	n/a	n/a	-999	19	[0, 0, 0]	n/a	FR1	0	R1222M
2281.556	1.601	2290165	ORIENT	n/a	n/a	n/a	-999	19	[0, 0, 0]	n/a	FR1	0	R1222M
2283.157	1.884	2291766	ORIENT_OFF	n/a	n/a	n/a	-999	19	[0, 0, 0]	n/a	FR1	0	R1222M
2285.041	1.616	2293650	WORD	n/a	wordpools/wordpool_EN.txt	SHIP	1	19	[0, 0, 0]	n/a	FR1	0	R1222M
2286.657	0.95	2295266	WORD_OFF	n/a	n/a	SHIP	1	19	[0, 0, 0]	n/a	FR1	0	R1222M
2287.607	1.617	2296216	WORD	n/a	wordpools/wordpool_EN.txt	TEA	2	19	[0, 0, 0]	n/a	FR1	0	R1222M
2289.224	0.951	2297833	WORD_OFF	n/a	n/a	TEA	2	19	[0, 0, 0]	n/a	FR1	0	R1222M
2290.175	1.617	2298784	WORD	n/a	wordpools/wordpool_EN.txt	BOMB	3	19	[0, 0, 0]	n/a	FR1	0	R1222M
2291.792	0.901	2300401	WORD_OFF	n/a	n/a	BOMB	3	19	[0, 0, 0]	n/a	FR1	0	R1222M
2292.693	1.616	2301301	WORD	n/a	wordpools/wordpool_EN.txt	JET	4	19	[0, 0, 0]	n/a	FR1	0	R1222M
2294.309	0.801	2302917	WORD_OFF	n/a	n/a	JET	4	19	[0, 0, 0]	n/a	FR1	0	R1222M
2295.11	1.617	2303718	WORD	n/a	wordpools/wordpool_EN.txt	BLOOM	5	19	[0, 0, 0]	n/a	FR1	0	R1222M
2296.727	0.782	2305335	WORD_OFF	n/a	n/a	BLOOM	5	19	[0, 0, 0]	n/a	FR1	0	R1222M
2297.509	1.601	2306117	WORD	n/a	wordpools/wordpool_EN.txt	WEED	6	19	[0, 0, 0]	n/a	FR1	0	R1222M
2299.11	0.767	2307718	WORD_OFF	n/a	n/a	WEED	6	19	[0, 0, 0]	n/a	FR1	0	R1222M
2299.877	1.616	2308485	WORD	n/a	wordpools/wordpool_EN.txt	MOTH	7	19	[0, 0, 0]	n/a	FR1	0	R1222M
2301.493	0.9	2310101	WORD_OFF	n/a	n/a	MOTH	7	19	[0, 0, 0]	n/a	FR1	0	R1222M
2302.393	1.602	2311001	WORD	n/a	wordpools/wordpool_EN.txt	STEAK	8	19	[0, 0, 0]	n/a	FR1	0	R1222M
2303.995	0.983	2312603	WORD_OFF	n/a	n/a	STEAK	8	19	[0, 0, 0]	n/a	FR1	0	R1222M
2304.978	1.616	2313586	WORD	n/a	wordpools/wordpool_EN.txt	MOUSE	9	19	[0, 0, 0]	n/a	FR1	0	R1222M
2306.594	0.95	2315202	WORD_OFF	n/a	n/a	MOUSE	9	19	[0, 0, 0]	n/a	FR1	0	R1222M
2307.544	1.618	2316152	WORD	n/a	wordpools/wordpool_EN.txt	RAIN	10	19	[0, 0, 0]	n/a	FR1	0	R1222M
2309.162	1.001	2317770	WORD_OFF	n/a	n/a	RAIN	10	19	[0, 0, 0]	n/a	FR1	0	R1222M
2310.163	1.616	2318770	WORD	n/a	wordpools/wordpool_EN.txt	BALL	11	19	[0, 0, 0]	n/a	FR1	0	R1222M
2311.779	0.901	2320386	WORD_OFF	n/a	n/a	BALL	11	19	[0, 0, 0]	n/a	FR1	0	R1222M
2312.68	1.616	2321287	WORD	n/a	wordpools/wordpool_EN.txt	STORM	12	19	[0, 0, 0]	n/a	FR1	0	R1222M
2314.296	0.0	2322903	WORD_OFF	n/a	n/a	STORM	12	19	[0, 0, 0]	n/a	FR1	0	R1222M
2314.296	0.0	2322903	DISTRACT_START	n/a	n/a	n/a	-999	19	[0, 0, 0]	n/a	FR1	0	R1222M
2314.296	0.016	2322903	START	n/a	n/a	n/a	-999	19	[-999, -999, -999]	n/a	FR1	0	R1222M
2314.312	7.886	2322919	PROB	7.886	n/a	n/a	-999	19	[3, 2, 9]	14	FR1	0	R1222M
2322.198	7.952	2330805	PROB	7.952	n/a	n/a	-999	19	[9, 5, 3]	17	FR1	0	R1222M
2330.15	5.906	2338756	PROB	5.906	n/a	n/a	-999	19	[6, 3, 2]	11	FR1	0	R1222M
2336.056	0.012	2344662	STOP	n/a	n/a	n/a	-999	19	[-999, -999, -999]	n/a	FR1	0	R1222M
2336.068	0.582	2344674	DISTRACT_END	n/a	n/a	n/a	-999	19	[0, 0, 0]	n/a	FR1	0	R1222M
2336.65	0.519	2345256	RETRIEVAL_ORIENT	n/a	n/a	n/a	-999	19	[0, 0, 0]	n/a	FR1	0	R1222M
2337.169	0.768	2345775	REC_START	n/a	n/a	n/a	-999	19	[0, 0, 0]	n/a	FR1	0	R1222M
2337.937	1.728	2346543	REC_WORD	1.728	n/a	RAIN	-999	19	[0, 0, 0]	n/a	FR1	0	R1222M
2339.665	12.735	2348271	REC_WORD	12.735	n/a	STORM	-999	19	[0, 0, 0]	n/a	FR1	0	R1222M
2352.4	14.779	2361005	REC_WORD	14.779	n/a	BALL	-999	19	[0, 0, 0]	n/a	FR1	0	R1222M
2367.179	8.796	2375783	REC_END	n/a	n/a	n/a	-999	19	[0, 0, 0]	n/a	FR1	0	R1222M
2375.975	2623.554	2384579	TRIAL	n/a	n/a	n/a	-999	20	[0, 0, 0]	n/a	FR1	0	R1222M
4999.529	0.0	5007984	SESSION_SKIPPED	n/a	n/a	n/a	-999	20	[0, 0, 0]	n/a	FR1	0	R1222M
