onset	duration	sample	trial_type	response_time	stim_file	item_name	serialpos	list	test	answer	experiment	session	subject
0.0	41.341	2430585	SESS_START	n/a	n/a	n/a	-999	-999	[0, 0, 0]	n/a	FR1	1	R1068J
41.341	10.428	2471925	COUNTDOWN_START	n/a	n/a	n/a	-999	-999	[0, 0, 0]	n/a	FR1	1	R1068J
51.769	3.724	2482353	COUNTDOWN_END	n/a	n/a	n/a	-999	-999	[0, 0, 0]	n/a	FR1	1	R1068J
55.493	2.601	2486077	PRACTICE_WORD	n/a	n/a	ATTIC	1	-1	[0, 0, 0]	n/a	FR1	1	R1068J
58.094	2.582	2488678	PRACTICE_WORD	n/a	n/a	RING	2	-1	[0, 0, 0]	n/a	FR1	1	R1068J
60.676	2.585	2491260	PRACTICE_WORD	n/a	n/a	WATCH	3	-1	[0, 0, 0]	n/a	FR1	1	R1068J
63.261	2.433	2493845	PRACTICE_WORD	n/a	n/a	WAGON	4	-1	[0, 0, 0]	n/a	FR1	1	R1068J
65.694	2.418	2496278	PRACTICE_WORD	n/a	n/a	FLOOD	5	-1	[0, 0, 0]	n/a	FR1	1	R1068J
68.112	2.417	2498696	PRACTICE_WORD	n/a	n/a	CAMEL	6	-1	[0, 0, 0]	n/a	FR1	1	R1068J
70.529	2.4	2501113	PRACTICE_WORD	n/a	n/a	RHINO	7	-1	[0, 0, 0]	n/a	FR1	1	R1068J
72.929	2.417	2503513	PRACTICE_WORD	n/a	n/a	COTTON	8	-1	[0, 0, 0]	n/a	FR1	1	R1068J
75.346	2.383	2505930	PRACTICE_WORD	n/a	n/a	CHEST	9	-1	[0, 0, 0]	n/a	FR1	1	R1068J
77.729	2.501	2508313	PRACTICE_WORD	n/a	n/a	BEAM	10	-1	[0, 0, 0]	n/a	FR1	1	R1068J
80.23	2.466	2510813	PRACTICE_WORD	n/a	n/a	IRON	11	-1	[0, 0, 0]	n/a	FR1	1	R1068J
82.696	1.618	2513279	PRACTICE_WORD	n/a	n/a	TONGUE	12	-1	[0, 0, 0]	n/a	FR1	1	R1068J
84.314	0.0	2514897	PRACTICE_DISTRACT_START	n/a	n/a	n/a	-999	-1	[0, 0, 0]	n/a	FR1	1	R1068J
84.314	0.017	2514897	START	n/a	n/a	n/a	-999	-1	[-999, -999, -999]	n/a	FR1	1	R1068J
84.331	7.366	2514914	PROB	7.366	n/a	n/a	-999	-1	[5, 1, 9]	15	FR1	1	R1068J
91.697	2.868	2522280	PROB	2.868	n/a	n/a	-999	-1	[2, 2, 7]	11	FR1	1	R1068J
94.565	5.001	2525148	PROB	5.001	n/a	n/a	-999	-1	[7, 4, 7]	18	FR1	1	R1068J
99.566	3.601	2530149	PROB	3.601	n/a	n/a	-999	-1	[4, 3, 9]	16	FR1	1	R1068J
103.167	5.425	2533750	PROB	5.425	n/a	n/a	-999	-1	[1, 1, 5]	7	FR1	1	R1068J
108.592	0.009	2539175	STOP	n/a	n/a	n/a	-999	-1	[-999, -999, -999]	n/a	FR1	1	R1068J
108.601	0.536	2539184	PRACTICE_DISTRACT_END	n/a	n/a	n/a	-999	-1	[0, 0, 0]	n/a	FR1	1	R1068J
109.137	30.514	2539720	PRACTICE_REC_START	n/a	n/a	n/a	-999	-1	[0, 0, 0]	n/a	FR1	1	R1068J
139.651	11.59	2570233	PRACTICE_REC_END	n/a	n/a	n/a	-999	-1	[0, 0, 0]	n/a	FR1	1	R1068J
151.241	0.0	2581823	TRIAL	n/a	n/a	n/a	-999	1	[0, 0, 0]	n/a	FR1	1	R1068J
151.241	10.428	2581823	COUNTDOWN_START	n/a	n/a	n/a	-999	1	[0, 0, 0]	n/a	FR1	1	R1068J
161.669	0.005	2592251	COUNTDOWN_END	n/a	n/a	n/a	-999	1	[0, 0, 0]	n/a	FR1	1	R1068J
161.674	2.368	2592256	ORIENT	n/a	n/a	n/a	-999	1	[0, 0, 0]	n/a	FR1	1	R1068J
164.042	2.567	2594624	WORD	n/a	wordpools/wordpool_EN.txt	MAIL	1	1	[0, 0, 0]	n/a	FR1	1	R1068J
166.609	2.417	2597191	WORD	n/a	wordpools/wordpool_EN.txt	BANK	2	1	[0, 0, 0]	n/a	FR1	1	R1068J
169.026	2.551	2599608	WORD	n/a	wordpools/wordpool_EN.txt	STORE	3	1	[0, 0, 0]	n/a	FR1	1	R1068J
171.577	2.433	2602159	WORD	n/a	wordpools/wordpool_EN.txt	LAWN	4	1	[0, 0, 0]	n/a	FR1	1	R1068J
174.01	2.567	2604592	WORD	n/a	wordpools/wordpool_EN.txt	PHONE	5	1	[0, 0, 0]	n/a	FR1	1	R1068J
176.577	2.601	2607159	WORD	n/a	wordpools/wordpool_EN.txt	KEY	6	1	[0, 0, 0]	n/a	FR1	1	R1068J
179.178	2.384	2609759	WORD	n/a	wordpools/wordpool_EN.txt	FUDGE	7	1	[0, 0, 0]	n/a	FR1	1	R1068J
181.562	2.6	2612143	WORD	n/a	wordpools/wordpool_EN.txt	CASH	8	1	[0, 0, 0]	n/a	FR1	1	R1068J
184.162	2.533	2614743	WORD	n/a	wordpools/wordpool_EN.txt	WALL	9	1	[0, 0, 0]	n/a	FR1	1	R1068J
186.695	2.585	2617276	WORD	n/a	wordpools/wordpool_EN.txt	MILK	10	1	[0, 0, 0]	n/a	FR1	1	R1068J
189.28	2.383	2619861	WORD	n/a	wordpools/wordpool_EN.txt	FOG	11	1	[0, 0, 0]	n/a	FR1	1	R1068J
191.663	1.617	2622244	WORD	n/a	wordpools/wordpool_EN.txt	HEART	12	1	[0, 0, 0]	n/a	FR1	1	R1068J
193.28	0.001	2623861	DISTRACT_START	n/a	n/a	n/a	-999	1	[0, 0, 0]	n/a	FR1	1	R1068J
193.281	0.016	2623862	START	n/a	n/a	n/a	-999	1	[-999, -999, -999]	n/a	FR1	1	R1068J
193.297	6.067	2623878	PROB	6.067	n/a	n/a	-999	1	[3, 3, 6]	12	FR1	1	R1068J
199.364	3.383	2629945	PROB	3.383	n/a	n/a	-999	1	[5, 5, 1]	11	FR1	1	R1068J
202.747	3.385	2633328	PROB	3.385	n/a	n/a	-999	1	[2, 4, 4]	10	FR1	1	R1068J
206.132	6.918	2636713	PROB	6.918	n/a	n/a	-999	1	[9, 7, 4]	20	FR1	1	R1068J
213.05	5.619	2643631	PROB	5.619	n/a	n/a	-999	1	[7, 1, 7]	15	FR1	1	R1068J
218.669	0.014	2649250	STOP	n/a	n/a	n/a	-999	1	[-999, -999, -999]	n/a	FR1	1	R1068J
218.683	1.184	2649264	DISTRACT_END	n/a	n/a	n/a	-999	1	[0, 0, 0]	n/a	FR1	1	R1068J
219.867	1.256	2650448	REC_START	n/a	n/a	n/a	-999	1	[0, 0, 0]	n/a	FR1	1	R1068J
221.123	0.476	2651704	REC_WORD_VV	0.476	n/a	<>	-999	1	[0, 0, 0]	n/a	FR1	1	R1068J
221.599	1.486	2652180	REC_WORD	1.486	n/a	MAIL	1	1	[0, 0, 0]	n/a	FR1	1	R1068J
223.085	1.347	2653666	REC_WORD	1.347	n/a	BANK	2	1	[0, 0, 0]	n/a	FR1	1	R1068J
224.432	2.781	2655013	REC_WORD	2.781	n/a	STORE	3	1	[0, 0, 0]	n/a	FR1	1	R1068J
227.213	2.541	2657793	REC_WORD	2.541	n/a	LAWN	4	1	[0, 0, 0]	n/a	FR1	1	R1068J
229.754	6.451	2660334	REC_WORD	6.451	n/a	CASH	8	1	[0, 0, 0]	n/a	FR1	1	R1068J
236.205	0.26	2666785	REC_WORD_VV	0.26	n/a	<>	-999	1	[0, 0, 0]	n/a	FR1	1	R1068J
236.465	4.99	2667045	REC_WORD	4.99	n/a	LAWN	4	1	[0, 0, 0]	n/a	FR1	1	R1068J
241.455	2.729	2672035	REC_WORD_VV	2.729	n/a	<>	-999	1	[0, 0, 0]	n/a	FR1	1	R1068J
244.184	5.694	2674764	REC_WORD	5.694	n/a	FLOW	-999	1	[0, 0, 0]	n/a	FR1	1	R1068J
249.878	4.444	2680458	REC_END	n/a	n/a	n/a	-999	1	[0, 0, 0]	n/a	FR1	1	R1068J
254.322	0.0	2684902	TRIAL	n/a	n/a	n/a	-999	2	[0, 0, 0]	n/a	FR1	1	R1068J
254.322	10.428	2684902	COUNTDOWN_START	n/a	n/a	n/a	-999	2	[0, 0, 0]	n/a	FR1	1	R1068J
264.75	0.006	2695330	COUNTDOWN_END	n/a	n/a	n/a	-999	2	[0, 0, 0]	n/a	FR1	1	R1068J
264.756	2.418	2695336	ORIENT	n/a	n/a	n/a	-999	2	[0, 0, 0]	n/a	FR1	1	R1068J
267.174	2.633	2697754	WORD	n/a	wordpools/wordpool_EN.txt	STEAM	1	2	[0, 0, 0]	n/a	FR1	1	R1068J
269.807	2.451	2700387	WORD	n/a	wordpools/wordpool_EN.txt	SIGN	2	2	[0, 0, 0]	n/a	FR1	1	R1068J
272.258	2.516	2702838	WORD	n/a	wordpools/wordpool_EN.txt	WHALE	3	2	[0, 0, 0]	n/a	FR1	1	R1068J
274.774	2.568	2705353	WORD	n/a	wordpools/wordpool_EN.txt	SHIELD	4	2	[0, 0, 0]	n/a	FR1	1	R1068J
277.342	2.466	2707921	WORD	n/a	wordpools/wordpool_EN.txt	ICE	5	2	[0, 0, 0]	n/a	FR1	1	R1068J
279.808	2.401	2710387	WORD	n/a	wordpools/wordpool_EN.txt	CROW	6	2	[0, 0, 0]	n/a	FR1	1	R1068J
282.209	2.417	2712788	WORD	n/a	wordpools/wordpool_EN.txt	AXE	7	2	[0, 0, 0]	n/a	FR1	1	R1068J
284.626	2.484	2715205	WORD	n/a	wordpools/wordpool_EN.txt	JEEP	8	2	[0, 0, 0]	n/a	FR1	1	R1068J
287.11	2.417	2717689	WORD	n/a	wordpools/wordpool_EN.txt	SPRING	9	2	[0, 0, 0]	n/a	FR1	1	R1068J
289.527	2.384	2720106	WORD	n/a	wordpools/wordpool_EN.txt	SLEEVE	10	2	[0, 0, 0]	n/a	FR1	1	R1068J
291.911	2.6	2722490	WORD	n/a	wordpools/wordpool_EN.txt	GEESE	11	2	[0, 0, 0]	n/a	FR1	1	R1068J
294.511	1.617	2725090	WORD	n/a	wordpools/wordpool_EN.txt	GATE	12	2	[0, 0, 0]	n/a	FR1	1	R1068J
296.128	0.001	2726707	DISTRACT_START	n/a	n/a	n/a	-999	2	[0, 0, 0]	n/a	FR1	1	R1068J
296.129	0.016	2726708	START	n/a	n/a	n/a	-999	2	[-999, -999, -999]	n/a	FR1	1	R1068J
296.145	9.401	2726724	PROB	9.401	n/a	n/a	-999	2	[2, 3, 3]	8	FR1	1	R1068J
305.546	9.685	2736125	PROB	9.685	n/a	n/a	-999	2	[4, 7, 6]	17	FR1	1	R1068J
315.231	3.428	2745810	PROB	3.428	n/a	n/a	-999	2	[8, 7, 1]	16	FR1	1	R1068J
318.659	0.006	2749238	STOP	n/a	n/a	n/a	-999	2	[-999, -999, -999]	n/a	FR1	1	R1068J
318.665	1.084	2749244	DISTRACT_END	n/a	n/a	n/a	-999	2	[0, 0, 0]	n/a	FR1	1	R1068J
319.749	1.013	2750328	REC_START	n/a	n/a	n/a	-999	2	[0, 0, 0]	n/a	FR1	1	R1068J
320.762	1.469	2751341	REC_WORD_VV	1.469	n/a	<>	-999	2	[0, 0, 0]	n/a	FR1	1	R1068J
322.231	0.981	2752810	REC_WORD	0.981	n/a	STEAM	1	2	[0, 0, 0]	n/a	FR1	1	R1068J
323.212	2.043	2753790	REC_WORD	2.043	n/a	SPRING	9	2	[0, 0, 0]	n/a	FR1	1	R1068J
325.255	2.117	2755833	REC_WORD	2.117	n/a	SLEEVE	10	2	[0, 0, 0]	n/a	FR1	1	R1068J
327.372	1.918	2757950	REC_WORD	1.918	n/a	SHIELD	4	2	[0, 0, 0]	n/a	FR1	1	R1068J
329.29	1.878	2759868	REC_WORD	1.878	n/a	ICE	5	2	[0, 0, 0]	n/a	FR1	1	R1068J
331.168	3.073	2761746	REC_WORD	3.073	n/a	AXE	7	2	[0, 0, 0]	n/a	FR1	1	R1068J
334.241	4.97	2764819	REC_WORD	4.97	n/a	GEESE	11	2	[0, 0, 0]	n/a	FR1	1	R1068J
339.211	1.0	2769789	REC_WORD_VV	1.0	n/a	<>	-999	2	[0, 0, 0]	n/a	FR1	1	R1068J
340.211	5.736	2770789	REC_WORD_VV	5.736	n/a	<>	-999	2	[0, 0, 0]	n/a	FR1	1	R1068J
345.947	1.637	2776525	REC_WORD_VV	1.637	n/a	<>	-999	2	[0, 0, 0]	n/a	FR1	1	R1068J
347.584	2.173	2778162	REC_WORD_VV	2.173	n/a	<>	-999	2	[0, 0, 0]	n/a	FR1	1	R1068J
349.757	4.028	2780335	REC_END	n/a	n/a	n/a	-999	2	[0, 0, 0]	n/a	FR1	1	R1068J
353.785	0.001	2784363	COUNTDOWN_START	n/a	n/a	n/a	-999	3	[0, 0, 0]	n/a	FR1	1	R1068J
353.786	10.427	2784364	TRIAL	n/a	n/a	n/a	-999	3	[0, 0, 0]	n/a	FR1	1	R1068J
364.213	0.009	2794791	COUNTDOWN_END	n/a	n/a	n/a	-999	3	[0, 0, 0]	n/a	FR1	1	R1068J
364.222	2.417	2794800	ORIENT	n/a	n/a	n/a	-999	3	[0, 0, 0]	n/a	FR1	1	R1068J
366.639	2.567	2797217	WORD	n/a	wordpools/wordpool_EN.txt	EAR	1	3	[0, 0, 0]	n/a	FR1	1	R1068J
369.206	2.4	2799784	WORD	n/a	wordpools/wordpool_EN.txt	HOUSE	2	3	[0, 0, 0]	n/a	FR1	1	R1068J
371.606	2.4	2802184	WORD	n/a	wordpools/wordpool_EN.txt	DOOR	3	3	[0, 0, 0]	n/a	FR1	1	R1068J
374.006	2.467	2804583	WORD	n/a	wordpools/wordpool_EN.txt	STREET	4	3	[0, 0, 0]	n/a	FR1	1	R1068J
376.473	2.584	2807050	WORD	n/a	wordpools/wordpool_EN.txt	DIME	5	3	[0, 0, 0]	n/a	FR1	1	R1068J
379.057	2.534	2809634	WORD	n/a	wordpools/wordpool_EN.txt	BED	6	3	[0, 0, 0]	n/a	FR1	1	R1068J
381.591	2.417	2812168	WORD	n/a	wordpools/wordpool_EN.txt	CAKE	7	3	[0, 0, 0]	n/a	FR1	1	R1068J
384.008	2.617	2814585	WORD	n/a	wordpools/wordpool_EN.txt	CART	8	3	[0, 0, 0]	n/a	FR1	1	R1068J
386.625	2.55	2817202	WORD	n/a	wordpools/wordpool_EN.txt	FENCE	9	3	[0, 0, 0]	n/a	FR1	1	R1068J
389.175	2.55	2819752	WORD	n/a	wordpools/wordpool_EN.txt	CUP	10	3	[0, 0, 0]	n/a	FR1	1	R1068J
391.725	2.401	2822302	WORD	n/a	wordpools/wordpool_EN.txt	SLUSH	11	3	[0, 0, 0]	n/a	FR1	1	R1068J
394.126	1.616	2824703	WORD	n/a	wordpools/wordpool_EN.txt	STAIR	12	3	[0, 0, 0]	n/a	FR1	1	R1068J
395.742	0.001	2826319	DISTRACT_START	n/a	n/a	n/a	-999	3	[0, 0, 0]	n/a	FR1	1	R1068J
395.743	0.015	2826320	START	n/a	n/a	n/a	-999	3	[-999, -999, -999]	n/a	FR1	1	R1068J
395.758	6.269	2826335	PROB	6.269	n/a	n/a	-999	3	[1, 1, 5]	7	FR1	1	R1068J
402.027	6.618	2832604	PROB	6.618	n/a	n/a	-999	3	[3, 7, 3]	13	FR1	1	R1068J
408.645	4.483	2839222	PROB	4.483	n/a	n/a	-999	3	[2, 3, 6]	11	FR1	1	R1068J
413.128	6.128	2843705	PROB	6.128	n/a	n/a	-999	3	[5, 2, 9]	16	FR1	1	R1068J
419.256	0.007	2849833	STOP	n/a	n/a	n/a	-999	3	[-999, -999, -999]	n/a	FR1	1	R1068J
419.263	1.217	2849840	DISTRACT_END	n/a	n/a	n/a	-999	3	[0, 0, 0]	n/a	FR1	1	R1068J
420.48	1.825	2851057	REC_START	n/a	n/a	n/a	-999	3	[0, 0, 0]	n/a	FR1	1	R1068J
422.305	0.274	2852881	REC_WORD_VV	0.274	n/a	<>	-999	3	[0, 0, 0]	n/a	FR1	1	R1068J
422.579	1.861	2853155	REC_WORD	1.861	n/a	STREET	4	3	[0, 0, 0]	n/a	FR1	1	R1068J
424.44	2.081	2855016	REC_WORD	2.081	n/a	HOUSE	2	3	[0, 0, 0]	n/a	FR1	1	R1068J
426.521	1.936	2857097	REC_WORD	1.936	n/a	DOOR	3	3	[0, 0, 0]	n/a	FR1	1	R1068J
428.457	2.697	2859033	REC_WORD	2.697	n/a	STAIR	12	3	[0, 0, 0]	n/a	FR1	1	R1068J
431.154	2.838	2861730	REC_WORD	2.838	n/a	CUP	10	3	[0, 0, 0]	n/a	FR1	1	R1068J
433.992	2.54	2864568	REC_WORD	2.54	n/a	CAKE	7	3	[0, 0, 0]	n/a	FR1	1	R1068J
436.532	6.477	2867108	REC_WORD	6.477	n/a	SLUSH	11	3	[0, 0, 0]	n/a	FR1	1	R1068J
443.009	4.331	2873585	REC_WORD_VV	4.331	n/a	<>	-999	3	[0, 0, 0]	n/a	FR1	1	R1068J
447.34	3.151	2877916	REC_WORD	3.151	n/a	FENCE	9	3	[0, 0, 0]	n/a	FR1	1	R1068J
450.491	22.746	2881067	REC_END	n/a	n/a	n/a	-999	3	[0, 0, 0]	n/a	FR1	1	R1068J
473.237	0.0	2903812	COUNTDOWN_START	n/a	n/a	n/a	-999	4	[0, 0, 0]	n/a	FR1	1	R1068J
473.237	10.428	2903812	TRIAL	n/a	n/a	n/a	-999	4	[0, 0, 0]	n/a	FR1	1	R1068J
483.665	0.006	2914240	COUNTDOWN_END	n/a	n/a	n/a	-999	4	[0, 0, 0]	n/a	FR1	1	R1068J
483.671	2.568	2914246	ORIENT	n/a	n/a	n/a	-999	4	[0, 0, 0]	n/a	FR1	1	R1068J
486.239	2.45	2916814	WORD	n/a	wordpools/wordpool_EN.txt	FOOT	1	4	[0, 0, 0]	n/a	FR1	1	R1068J
488.689	2.451	2919264	WORD	n/a	wordpools/wordpool_EN.txt	HORSE	2	4	[0, 0, 0]	n/a	FR1	1	R1068J
491.14	2.566	2921715	WORD	n/a	wordpools/wordpool_EN.txt	CALF	3	4	[0, 0, 0]	n/a	FR1	1	R1068J
493.706	2.401	2924281	WORD	n/a	wordpools/wordpool_EN.txt	BAG	4	4	[0, 0, 0]	n/a	FR1	1	R1068J
496.107	2.517	2926682	WORD	n/a	wordpools/wordpool_EN.txt	NOSE	5	4	[0, 0, 0]	n/a	FR1	1	R1068J
498.624	2.518	2929199	WORD	n/a	wordpools/wordpool_EN.txt	DITCH	6	4	[0, 0, 0]	n/a	FR1	1	R1068J
501.142	2.4	2931717	WORD	n/a	wordpools/wordpool_EN.txt	WAND	7	4	[0, 0, 0]	n/a	FR1	1	R1068J
503.542	2.45	2934117	WORD	n/a	wordpools/wordpool_EN.txt	SHIRT	8	4	[0, 0, 0]	n/a	FR1	1	R1068J
505.992	2.451	2936567	WORD	n/a	wordpools/wordpool_EN.txt	MOUTH	9	4	[0, 0, 0]	n/a	FR1	1	R1068J
508.443	2.6	2939018	WORD	n/a	wordpools/wordpool_EN.txt	CHALK	10	4	[0, 0, 0]	n/a	FR1	1	R1068J
511.043	2.467	2941618	WORD	n/a	wordpools/wordpool_EN.txt	SINK	11	4	[0, 0, 0]	n/a	FR1	1	R1068J
513.51	1.617	2944085	WORD	n/a	wordpools/wordpool_EN.txt	MUD	12	4	[0, 0, 0]	n/a	FR1	1	R1068J
515.127	0.001	2945702	DISTRACT_START	n/a	n/a	n/a	-999	4	[0, 0, 0]	n/a	FR1	1	R1068J
515.128	0.015	2945703	START	n/a	n/a	n/a	-999	4	[-999, -999, -999]	n/a	FR1	1	R1068J
515.143	7.634	2945718	PROB	7.634	n/a	n/a	-999	4	[8, 8, 5]	21	FR1	1	R1068J
522.777	3.835	2953351	PROB	3.835	n/a	n/a	-999	4	[5, 6, 9]	20	FR1	1	R1068J
526.612	6.717	2957186	PROB	6.717	n/a	n/a	-999	4	[9, 8, 9]	26	FR1	1	R1068J
533.329	4.237	2963903	PROB	4.237	n/a	n/a	-999	4	[4, 9, 6]	19	FR1	1	R1068J
537.566	0.014	2968140	STOP	n/a	n/a	n/a	-999	4	[-999, -999, -999]	n/a	FR1	1	R1068J
537.58	1.217	2968154	DISTRACT_END	n/a	n/a	n/a	-999	4	[0, 0, 0]	n/a	FR1	1	R1068J
538.797	1.394	2969371	REC_START	n/a	n/a	n/a	-999	4	[0, 0, 0]	n/a	FR1	1	R1068J
540.191	0.391	2970765	REC_WORD_VV	0.391	n/a	<>	-999	4	[0, 0, 0]	n/a	FR1	1	R1068J
540.582	2.064	2971156	REC_WORD	2.064	n/a	HORSE	2	4	[0, 0, 0]	n/a	FR1	1	R1068J
542.646	2.123	2973220	REC_WORD	2.123	n/a	FOOT	1	4	[0, 0, 0]	n/a	FR1	1	R1068J
544.769	1.618	2975343	REC_WORD	1.618	n/a	CALF	3	4	[0, 0, 0]	n/a	FR1	1	R1068J
546.387	1.737	2976961	REC_WORD	1.737	n/a	DITCH	6	4	[0, 0, 0]	n/a	FR1	1	R1068J
548.124	2.094	2978698	REC_WORD	2.094	n/a	MUD	12	4	[0, 0, 0]	n/a	FR1	1	R1068J
550.218	3.955	2980792	REC_WORD	3.955	n/a	MOUTH	9	4	[0, 0, 0]	n/a	FR1	1	R1068J
554.173	14.634	2984747	REC_WORD_VV	14.634	n/a	<>	-999	4	[0, 0, 0]	n/a	FR1	1	R1068J
568.807	6.445	2999380	REC_END	n/a	n/a	n/a	-999	4	[0, 0, 0]	n/a	FR1	1	R1068J
575.252	0.001	3005825	COUNTDOWN_START	n/a	n/a	n/a	-999	5	[0, 0, 0]	n/a	FR1	1	R1068J
575.253	10.427	3005826	TRIAL	n/a	n/a	n/a	-999	5	[0, 0, 0]	n/a	FR1	1	R1068J
585.68	0.006	3016253	COUNTDOWN_END	n/a	n/a	n/a	-999	5	[0, 0, 0]	n/a	FR1	1	R1068J
585.686	2.468	3016259	ORIENT	n/a	n/a	n/a	-999	5	[0, 0, 0]	n/a	FR1	1	R1068J
588.154	2.45	3018727	WORD	n/a	wordpools/wordpool_EN.txt	SEAL	1	5	[0, 0, 0]	n/a	FR1	1	R1068J
590.604	2.451	3021177	WORD	n/a	wordpools/wordpool_EN.txt	GOLD	2	5	[0, 0, 0]	n/a	FR1	1	R1068J
593.055	2.45	3023628	WORD	n/a	wordpools/wordpool_EN.txt	GUARD	3	5	[0, 0, 0]	n/a	FR1	1	R1068J
595.505	2.6	3026078	WORD	n/a	wordpools/wordpool_EN.txt	NAIL	4	5	[0, 0, 0]	n/a	FR1	1	R1068J
598.105	2.401	3028678	WORD	n/a	wordpools/wordpool_EN.txt	SQUARE	5	5	[0, 0, 0]	n/a	FR1	1	R1068J
600.506	2.55	3031079	WORD	n/a	wordpools/wordpool_EN.txt	CAPE	6	5	[0, 0, 0]	n/a	FR1	1	R1068J
603.056	2.417	3033629	WORD	n/a	wordpools/wordpool_EN.txt	TOOL	7	5	[0, 0, 0]	n/a	FR1	1	R1068J
605.473	2.518	3036046	WORD	n/a	wordpools/wordpool_EN.txt	CROWN	8	5	[0, 0, 0]	n/a	FR1	1	R1068J
607.991	2.433	3038564	WORD	n/a	wordpools/wordpool_EN.txt	SWORD	9	5	[0, 0, 0]	n/a	FR1	1	R1068J
610.424	2.416	3040997	WORD	n/a	wordpools/wordpool_EN.txt	HAND	10	5	[0, 0, 0]	n/a	FR1	1	R1068J
612.84	2.585	3043413	WORD	n/a	wordpools/wordpool_EN.txt	BLUSH	11	5	[0, 0, 0]	n/a	FR1	1	R1068J
615.425	1.617	3045998	WORD	n/a	wordpools/wordpool_EN.txt	PIT	12	5	[0, 0, 0]	n/a	FR1	1	R1068J
617.042	0.001	3047614	DISTRACT_START	n/a	n/a	n/a	-999	5	[0, 0, 0]	n/a	FR1	1	R1068J
617.043	0.015	3047615	START	n/a	n/a	n/a	-999	5	[-999, -999, -999]	n/a	FR1	1	R1068J
617.058	6.951	3047630	PROB	6.951	n/a	n/a	-999	5	[6, 1, 9]	16	FR1	1	R1068J
624.009	4.334	3054581	PROB	4.334	n/a	n/a	-999	5	[5, 1, 5]	11	FR1	1	R1068J
628.343	6.568	3058915	PROB	6.568	n/a	n/a	-999	5	[5, 7, 8]	20	FR1	1	R1068J
634.911	5.413	3065483	PROB	5.413	n/a	n/a	-999	5	[4, 5, 2]	11	FR1	1	R1068J
640.324	0.004	3070896	STOP	n/a	n/a	n/a	-999	5	[-999, -999, -999]	n/a	FR1	1	R1068J
640.328	1.085	3070900	DISTRACT_END	n/a	n/a	n/a	-999	5	[0, 0, 0]	n/a	FR1	1	R1068J
641.413	0.885	3071985	REC_START	n/a	n/a	n/a	-999	5	[0, 0, 0]	n/a	FR1	1	R1068J
642.298	2.162	3072870	REC_WORD_VV	2.162	n/a	<>	-999	5	[0, 0, 0]	n/a	FR1	1	R1068J
644.46	1.191	3075032	REC_WORD	1.191	n/a	GUARD	3	5	[0, 0, 0]	n/a	FR1	1	R1068J
645.651	1.03	3076223	REC_WORD	1.03	n/a	GOLD	2	5	[0, 0, 0]	n/a	FR1	1	R1068J
646.681	1.396	3077253	REC_WORD	1.396	n/a	SEAL	1	5	[0, 0, 0]	n/a	FR1	1	R1068J
648.077	1.83	3078649	REC_WORD	1.83	n/a	CROWN	8	5	[0, 0, 0]	n/a	FR1	1	R1068J
649.907	3.09	3080479	REC_WORD	3.09	n/a	CAPE	6	5	[0, 0, 0]	n/a	FR1	1	R1068J
652.997	1.261	3083569	REC_WORD	1.261	n/a	NAIL	4	5	[0, 0, 0]	n/a	FR1	1	R1068J
654.258	5.737	3084830	REC_WORD	5.737	n/a	TOOL	7	5	[0, 0, 0]	n/a	FR1	1	R1068J
659.995	7.819	3090567	REC_WORD_VV	7.819	n/a	<>	-999	5	[0, 0, 0]	n/a	FR1	1	R1068J
667.814	1.0	3098385	REC_WORD_VV	1.0	n/a	<>	-999	5	[0, 0, 0]	n/a	FR1	1	R1068J
668.814	2.609	3099385	REC_WORD_VV	2.609	n/a	<>	-999	5	[0, 0, 0]	n/a	FR1	1	R1068J
671.423	13.327	3101994	REC_END	n/a	n/a	n/a	-999	5	[0, 0, 0]	n/a	FR1	1	R1068J
684.75	0.001	3115321	COUNTDOWN_START	n/a	n/a	n/a	-999	6	[0, 0, 0]	n/a	FR1	1	R1068J
684.751	10.427	3115322	TRIAL	n/a	n/a	n/a	-999	6	[0, 0, 0]	n/a	FR1	1	R1068J
695.178	0.008	3125749	COUNTDOWN_END	n/a	n/a	n/a	-999	6	[0, 0, 0]	n/a	FR1	1	R1068J
695.186	2.384	3125757	ORIENT	n/a	n/a	n/a	-999	6	[0, 0, 0]	n/a	FR1	1	R1068J
697.57	2.467	3128141	WORD	n/a	wordpools/wordpool_EN.txt	HILL	1	6	[0, 0, 0]	n/a	FR1	1	R1068J
700.037	2.567	3130608	WORD	n/a	wordpools/wordpool_EN.txt	CLOUD	2	6	[0, 0, 0]	n/a	FR1	1	R1068J
702.604	2.55	3133175	WORD	n/a	wordpools/wordpool_EN.txt	SHOE	3	6	[0, 0, 0]	n/a	FR1	1	R1068J
705.154	2.434	3135725	WORD	n/a	wordpools/wordpool_EN.txt	BOX	4	6	[0, 0, 0]	n/a	FR1	1	R1068J
707.588	2.384	3138159	WORD	n/a	wordpools/wordpool_EN.txt	RICE	5	6	[0, 0, 0]	n/a	FR1	1	R1068J
709.972	2.584	3140543	WORD	n/a	wordpools/wordpool_EN.txt	TOAST	6	6	[0, 0, 0]	n/a	FR1	1	R1068J
712.556	2.566	3143127	WORD	n/a	wordpools/wordpool_EN.txt	RAIN	7	6	[0, 0, 0]	n/a	FR1	1	R1068J
715.122	2.384	3145692	WORD	n/a	wordpools/wordpool_EN.txt	ELF	8	6	[0, 0, 0]	n/a	FR1	1	R1068J
717.506	2.567	3148076	WORD	n/a	wordpools/wordpool_EN.txt	FILM	9	6	[0, 0, 0]	n/a	FR1	1	R1068J
720.073	2.434	3150643	WORD	n/a	wordpools/wordpool_EN.txt	CHIN	10	6	[0, 0, 0]	n/a	FR1	1	R1068J
722.507	2.617	3153077	WORD	n/a	wordpools/wordpool_EN.txt	SWAMP	11	6	[0, 0, 0]	n/a	FR1	1	R1068J
725.124	1.616	3155694	WORD	n/a	wordpools/wordpool_EN.txt	SALT	12	6	[0, 0, 0]	n/a	FR1	1	R1068J
726.74	0.001	3157310	DISTRACT_START	n/a	n/a	n/a	-999	6	[0, 0, 0]	n/a	FR1	1	R1068J
726.741	0.016	3157311	START	n/a	n/a	n/a	-999	6	[-999, -999, -999]	n/a	FR1	1	R1068J
726.757	7.285	3157327	PROB	7.285	n/a	n/a	-999	6	[6, 5, 5]	16	FR1	1	R1068J
734.042	2.5	3164612	PROB	2.5	n/a	n/a	-999	6	[4, 1, 5]	10	FR1	1	R1068J
736.542	7.868	3167112	PROB	7.868	n/a	n/a	-999	6	[3, 8, 3]	14	FR1	1	R1068J
744.41	4.144	3174980	PROB	4.144	n/a	n/a	-999	6	[6, 5, 6]	17	FR1	1	R1068J
748.554	0.007	3179124	STOP	n/a	n/a	n/a	-999	6	[-999, -999, -999]	n/a	FR1	1	R1068J
748.561	1.133	3179131	DISTRACT_END	n/a	n/a	n/a	-999	6	[0, 0, 0]	n/a	FR1	1	R1068J
749.694	0.856	3180264	REC_START	n/a	n/a	n/a	-999	6	[0, 0, 0]	n/a	FR1	1	R1068J
750.55	1.532	3181120	REC_WORD_VV	1.532	n/a	<>	-999	6	[0, 0, 0]	n/a	FR1	1	R1068J
752.082	1.034	3182652	REC_WORD	1.034	n/a	RICE	5	6	[0, 0, 0]	n/a	FR1	1	R1068J
753.116	1.277	3183686	REC_WORD	1.277	n/a	TOAST	6	6	[0, 0, 0]	n/a	FR1	1	R1068J
754.393	1.47	3184963	REC_WORD	1.47	n/a	SHOE	3	6	[0, 0, 0]	n/a	FR1	1	R1068J
755.863	1.843	3186433	REC_WORD	1.843	n/a	BOX	4	6	[0, 0, 0]	n/a	FR1	1	R1068J
757.706	1.569	3188276	REC_WORD	1.569	n/a	CHIN	10	6	[0, 0, 0]	n/a	FR1	1	R1068J
759.275	10.843	3189845	REC_WORD	10.843	n/a	SWAMP	11	6	[0, 0, 0]	n/a	FR1	1	R1068J
770.118	0.469	3200687	REC_WORD_VV	0.469	n/a	<>	-999	6	[0, 0, 0]	n/a	FR1	1	R1068J
770.587	0.384	3201156	REC_WORD	0.384	n/a	CLOUD	2	6	[0, 0, 0]	n/a	FR1	1	R1068J
770.971	1.0	3201540	REC_WORD_VV	1.0	n/a	<>	-999	6	[0, 0, 0]	n/a	FR1	1	R1068J
771.971	3.532	3202540	REC_WORD_VV	3.532	n/a	<>	-999	6	[0, 0, 0]	n/a	FR1	1	R1068J
775.503	0.522	3206072	REC_WORD	0.522	n/a	SWAMP	11	6	[0, 0, 0]	n/a	FR1	1	R1068J
776.025	1.0	3206594	REC_WORD_VV	1.0	n/a	<>	-999	6	[0, 0, 0]	n/a	FR1	1	R1068J
777.025	2.679	3207594	REC_WORD_VV	2.679	n/a	<>	-999	6	[0, 0, 0]	n/a	FR1	1	R1068J
779.704	3.562	3210273	REC_END	n/a	n/a	n/a	-999	6	[0, 0, 0]	n/a	FR1	1	R1068J
783.266	0.0	3213835	TRIAL	n/a	n/a	n/a	-999	7	[0, 0, 0]	n/a	FR1	1	R1068J
783.266	10.428	3213835	COUNTDOWN_START	n/a	n/a	n/a	-999	7	[0, 0, 0]	n/a	FR1	1	R1068J
793.694	0.006	3224263	COUNTDOWN_END	n/a	n/a	n/a	-999	7	[0, 0, 0]	n/a	FR1	1	R1068J
793.7	2.551	3224269	ORIENT	n/a	n/a	n/a	-999	7	[0, 0, 0]	n/a	FR1	1	R1068J
796.251	2.55	3226820	WORD	n/a	wordpools/wordpool_EN.txt	CAT	1	7	[0, 0, 0]	n/a	FR1	1	R1068J
798.801	2.434	3229370	WORD	n/a	wordpools/wordpool_EN.txt	TANK	2	7	[0, 0, 0]	n/a	FR1	1	R1068J
801.235	2.566	3231804	WORD	n/a	wordpools/wordpool_EN.txt	BOAT	3	7	[0, 0, 0]	n/a	FR1	1	R1068J
803.801	2.402	3234370	WORD	n/a	wordpools/wordpool_EN.txt	SPARK	4	7	[0, 0, 0]	n/a	FR1	1	R1068J
806.203	2.482	3236772	WORD	n/a	wordpools/wordpool_EN.txt	WORM	5	7	[0, 0, 0]	n/a	FR1	1	R1068J
808.685	2.485	3239254	WORD	n/a	wordpools/wordpool_EN.txt	HOSE	6	7	[0, 0, 0]	n/a	FR1	1	R1068J
811.17	2.599	3241738	WORD	n/a	wordpools/wordpool_EN.txt	TRASH	7	7	[0, 0, 0]	n/a	FR1	1	R1068J
813.769	2.418	3244337	WORD	n/a	wordpools/wordpool_EN.txt	KITE	8	7	[0, 0, 0]	n/a	FR1	1	R1068J
816.187	2.417	3246755	WORD	n/a	wordpools/wordpool_EN.txt	FISH	9	7	[0, 0, 0]	n/a	FR1	1	R1068J
818.604	2.401	3249172	WORD	n/a	wordpools/wordpool_EN.txt	WHEEL	10	7	[0, 0, 0]	n/a	FR1	1	R1068J
821.005	2.483	3251573	WORD	n/a	wordpools/wordpool_EN.txt	DOG	11	7	[0, 0, 0]	n/a	FR1	1	R1068J
823.488	1.617	3254056	WORD	n/a	wordpools/wordpool_EN.txt	LAND	12	7	[0, 0, 0]	n/a	FR1	1	R1068J
825.105	0.001	3255673	DISTRACT_START	n/a	n/a	n/a	-999	7	[0, 0, 0]	n/a	FR1	1	R1068J
825.106	0.016	3255674	START	n/a	n/a	n/a	-999	7	[-999, -999, -999]	n/a	FR1	1	R1068J
825.122	10.151	3255690	PROB	10.151	n/a	n/a	-999	7	[8, 4, 4]	16	FR1	1	R1068J
835.273	4.601	3265841	PROB	4.601	n/a	n/a	-999	7	[2, 2, 7]	11	FR1	1	R1068J
839.874	4.067	3270442	PROB	4.067	n/a	n/a	-999	7	[3, 1, 3]	7	FR1	1	R1068J
843.941	7.618	3274509	PROB	7.618	n/a	n/a	-999	7	[4, 9, 4]	13	FR1	1	R1068J
851.559	0.017	3282127	STOP	n/a	n/a	n/a	-999	7	[-999, -999, -999]	n/a	FR1	1	R1068J
851.576	1.116	3282144	DISTRACT_END	n/a	n/a	n/a	-999	7	[0, 0, 0]	n/a	FR1	1	R1068J
852.692	0.864	3283260	REC_START	n/a	n/a	n/a	-999	7	[0, 0, 0]	n/a	FR1	1	R1068J
853.556	1.522	3284124	REC_WORD_VV	1.522	n/a	<>	-999	7	[0, 0, 0]	n/a	FR1	1	R1068J
855.078	1.589	3285646	REC_WORD	1.589	n/a	KITE	8	7	[0, 0, 0]	n/a	FR1	1	R1068J
856.667	1.537	3287235	REC_WORD	1.537	n/a	LAND	12	7	[0, 0, 0]	n/a	FR1	1	R1068J
858.204	7.28	3288772	REC_WORD	7.28	n/a	DOG	11	7	[0, 0, 0]	n/a	FR1	1	R1068J
865.484	1.0	3296051	REC_WORD	1.0	n/a	SPARK	4	7	[0, 0, 0]	n/a	FR1	1	R1068J
866.484	2.571	3297051	REC_WORD_VV	2.571	n/a	<>	-999	7	[0, 0, 0]	n/a	FR1	1	R1068J
869.055	1.0	3299622	REC_WORD_VV	1.0	n/a	<>	-999	7	[0, 0, 0]	n/a	FR1	1	R1068J
870.055	1.0	3300622	REC_WORD_VV	1.0	n/a	<>	-999	7	[0, 0, 0]	n/a	FR1	1	R1068J
871.055	2.882	3301622	REC_WORD_VV	2.882	n/a	<>	-999	7	[0, 0, 0]	n/a	FR1	1	R1068J
873.937	5.118	3304504	REC_WORD	5.118	n/a	HOUSE	-999	7	[0, 0, 0]	n/a	FR1	1	R1068J
879.055	3.648	3309622	REC_WORD_VV	3.648	n/a	<>	-999	7	[0, 0, 0]	n/a	FR1	1	R1068J
882.703	5.228	3313270	REC_END	n/a	n/a	n/a	-999	7	[0, 0, 0]	n/a	FR1	1	R1068J
887.931	0.0	3318498	TRIAL	n/a	n/a	n/a	-999	8	[0, 0, 0]	n/a	FR1	1	R1068J
887.931	10.428	3318498	COUNTDOWN_START	n/a	n/a	n/a	-999	8	[0, 0, 0]	n/a	FR1	1	R1068J
898.359	0.007	3328926	COUNTDOWN_END	n/a	n/a	n/a	-999	8	[0, 0, 0]	n/a	FR1	1	R1068J
898.366	2.55	3328933	ORIENT	n/a	n/a	n/a	-999	8	[0, 0, 0]	n/a	FR1	1	R1068J
900.916	2.601	3331483	WORD	n/a	wordpools/wordpool_EN.txt	BADGE	1	8	[0, 0, 0]	n/a	FR1	1	R1068J
903.517	2.634	3334084	WORD	n/a	wordpools/wordpool_EN.txt	JUDGE	2	8	[0, 0, 0]	n/a	FR1	1	R1068J
906.151	2.566	3336718	WORD	n/a	wordpools/wordpool_EN.txt	BOOK	3	8	[0, 0, 0]	n/a	FR1	1	R1068J
908.717	2.568	3339283	WORD	n/a	wordpools/wordpool_EN.txt	PIG	4	8	[0, 0, 0]	n/a	FR1	1	R1068J
911.285	2.532	3341851	WORD	n/a	wordpools/wordpool_EN.txt	PLANE	5	8	[0, 0, 0]	n/a	FR1	1	R1068J
913.817	2.402	3344383	WORD	n/a	wordpools/wordpool_EN.txt	SHEET	6	8	[0, 0, 0]	n/a	FR1	1	R1068J
916.219	2.549	3346785	WORD	n/a	wordpools/wordpool_EN.txt	CAR	7	8	[0, 0, 0]	n/a	FR1	1	R1068J
918.768	2.618	3349334	WORD	n/a	wordpools/wordpool_EN.txt	SMOKE	8	8	[0, 0, 0]	n/a	FR1	1	R1068J
921.386	2.6	3351952	WORD	n/a	wordpools/wordpool_EN.txt	SHEEP	9	8	[0, 0, 0]	n/a	FR1	1	R1068J
923.986	2.584	3354552	WORD	n/a	wordpools/wordpool_EN.txt	WAVE	10	8	[0, 0, 0]	n/a	FR1	1	R1068J
926.57	2.467	3357136	WORD	n/a	wordpools/wordpool_EN.txt	ARK	11	8	[0, 0, 0]	n/a	FR1	1	R1068J
929.037	1.617	3359603	WORD	n/a	wordpools/wordpool_EN.txt	JET	12	8	[0, 0, 0]	n/a	FR1	1	R1068J
930.654	0.001	3361220	DISTRACT_START	n/a	n/a	n/a	-999	8	[0, 0, 0]	n/a	FR1	1	R1068J
930.655	0.015	3361221	START	n/a	n/a	n/a	-999	8	[-999, -999, -999]	n/a	FR1	1	R1068J
930.67	7.585	3361236	PROB	7.585	n/a	n/a	-999	8	[2, 2, 3]	7	FR1	1	R1068J
938.255	2.834	3368821	PROB	2.834	n/a	n/a	-999	8	[5, 2, 1]	8	FR1	1	R1068J
941.089	3.867	3371655	PROB	3.867	n/a	n/a	-999	8	[3, 1, 2]	6	FR1	1	R1068J
944.956	4.401	3375522	PROB	4.401	n/a	n/a	-999	8	[4, 3, 8]	15	FR1	1	R1068J
949.357	2.168	3379923	PROB	2.168	n/a	n/a	-999	8	[4, 1, 1]	6	FR1	1	R1068J
951.525	0.015	3382091	STOP	n/a	n/a	n/a	-999	8	[-999, -999, -999]	n/a	FR1	1	R1068J
951.54	1.068	3382106	DISTRACT_END	n/a	n/a	n/a	-999	8	[0, 0, 0]	n/a	FR1	1	R1068J
952.608	1.16	3383174	REC_START	n/a	n/a	n/a	-999	8	[0, 0, 0]	n/a	FR1	1	R1068J
953.768	2.056	3384334	REC_WORD_VV	2.056	n/a	<>	-999	8	[0, 0, 0]	n/a	FR1	1	R1068J
955.824	1.715	3386390	REC_WORD	1.715	n/a	BADGE	1	8	[0, 0, 0]	n/a	FR1	1	R1068J
957.539	1.728	3388104	REC_WORD	1.728	n/a	JUDGE	2	8	[0, 0, 0]	n/a	FR1	1	R1068J
959.267	1.836	3389832	REC_WORD	1.836	n/a	BOOK	3	8	[0, 0, 0]	n/a	FR1	1	R1068J
961.103	1.797	3391668	REC_WORD	1.797	n/a	ARK	11	8	[0, 0, 0]	n/a	FR1	1	R1068J
962.9	3.756	3393465	REC_WORD	3.756	n/a	JET	12	8	[0, 0, 0]	n/a	FR1	1	R1068J
966.656	10.915	3397221	REC_WORD_VV	10.915	n/a	<>	-999	8	[0, 0, 0]	n/a	FR1	1	R1068J
977.571	5.046	3408136	REC_WORD_VV	5.046	n/a	<>	-999	8	[0, 0, 0]	n/a	FR1	1	R1068J
982.617	9.763	3413182	REC_END	n/a	n/a	n/a	-999	8	[0, 0, 0]	n/a	FR1	1	R1068J
992.38	0.0	3422945	TRIAL	n/a	n/a	n/a	-999	9	[0, 0, 0]	n/a	FR1	1	R1068J
992.38	10.428	3422945	COUNTDOWN_START	n/a	n/a	n/a	-999	9	[0, 0, 0]	n/a	FR1	1	R1068J
1002.808	0.006	3433373	COUNTDOWN_END	n/a	n/a	n/a	-999	9	[0, 0, 0]	n/a	FR1	1	R1068J
1002.814	2.551	3433379	ORIENT	n/a	n/a	n/a	-999	9	[0, 0, 0]	n/a	FR1	1	R1068J
1005.365	2.567	3435930	WORD	n/a	wordpools/wordpool_EN.txt	BALL	1	9	[0, 0, 0]	n/a	FR1	1	R1068J
1007.932	2.567	3438496	WORD	n/a	wordpools/wordpool_EN.txt	GLOVE	2	9	[0, 0, 0]	n/a	FR1	1	R1068J
1010.499	2.417	3441063	WORD	n/a	wordpools/wordpool_EN.txt	DRUM	3	9	[0, 0, 0]	n/a	FR1	1	R1068J
1012.916	2.417	3443480	WORD	n/a	wordpools/wordpool_EN.txt	PALM	4	9	[0, 0, 0]	n/a	FR1	1	R1068J
1015.333	2.449	3445897	WORD	n/a	wordpools/wordpool_EN.txt	PLATE	5	9	[0, 0, 0]	n/a	FR1	1	R1068J
1017.782	2.502	3448346	WORD	n/a	wordpools/wordpool_EN.txt	PRINCE	6	9	[0, 0, 0]	n/a	FR1	1	R1068J
1020.284	2.466	3450848	WORD	n/a	wordpools/wordpool_EN.txt	CHAIR	7	9	[0, 0, 0]	n/a	FR1	1	R1068J
1022.75	2.601	3453314	WORD	n/a	wordpools/wordpool_EN.txt	NET	8	9	[0, 0, 0]	n/a	FR1	1	R1068J
1025.351	2.551	3455915	WORD	n/a	wordpools/wordpool_EN.txt	TREE	9	9	[0, 0, 0]	n/a	FR1	1	R1068J
1027.902	2.5	3458466	WORD	n/a	wordpools/wordpool_EN.txt	VASE	10	9	[0, 0, 0]	n/a	FR1	1	R1068J
1030.402	2.517	3460966	WORD	n/a	wordpools/wordpool_EN.txt	SHARK	11	9	[0, 0, 0]	n/a	FR1	1	R1068J
1032.919	1.617	3463483	WORD	n/a	wordpools/wordpool_EN.txt	COIN	12	9	[0, 0, 0]	n/a	FR1	1	R1068J
1034.536	0.001	3465100	DISTRACT_START	n/a	n/a	n/a	-999	9	[0, 0, 0]	n/a	FR1	1	R1068J
1034.537	0.015	3465101	START	n/a	n/a	n/a	-999	9	[-999, -999, -999]	n/a	FR1	1	R1068J
1034.552	11.552	3465116	PROB	11.552	n/a	n/a	-999	9	[8, 1, 6]	15	FR1	1	R1068J
1046.104	9.218	3476668	PROB	9.218	n/a	n/a	-999	9	[8, 1, 1]	10	FR1	1	R1068J
1055.322	0.017	3485885	STOP	n/a	n/a	n/a	-999	9	[-999, -999, -999]	n/a	FR1	1	R1068J
1055.339	1.051	3485902	DISTRACT_END	n/a	n/a	n/a	-999	9	[0, 0, 0]	n/a	FR1	1	R1068J
1056.39	1.233	3486953	REC_START	n/a	n/a	n/a	-999	9	[0, 0, 0]	n/a	FR1	1	R1068J
1057.623	0.663	3488186	REC_WORD_VV	0.663	n/a	<>	-999	9	[0, 0, 0]	n/a	FR1	1	R1068J
1058.286	1.686	3488849	REC_WORD	1.686	n/a	DRUM	3	9	[0, 0, 0]	n/a	FR1	1	R1068J
1059.972	2.361	3490535	REC_WORD	2.361	n/a	PALM	4	9	[0, 0, 0]	n/a	FR1	1	R1068J
1062.333	1.594	3492896	REC_WORD	1.594	n/a	SHARK	11	9	[0, 0, 0]	n/a	FR1	1	R1068J
1063.927	2.023	3494490	REC_WORD	2.023	n/a	NET	8	9	[0, 0, 0]	n/a	FR1	1	R1068J
1065.95	6.538	3496513	REC_WORD	6.538	n/a	VASE	10	9	[0, 0, 0]	n/a	FR1	1	R1068J
1072.488	1.07	3503051	REC_WORD	1.07	n/a	COIN	12	9	[0, 0, 0]	n/a	FR1	1	R1068J
1073.558	2.178	3504121	REC_WORD_VV	2.178	n/a	<>	-999	9	[0, 0, 0]	n/a	FR1	1	R1068J
1075.736	1.178	3506299	REC_WORD	1.178	n/a	BALL	1	9	[0, 0, 0]	n/a	FR1	1	R1068J
1076.914	8.009	3507477	REC_WORD	8.009	n/a	GLOVE	2	9	[0, 0, 0]	n/a	FR1	1	R1068J
1084.923	1.477	3515486	REC_WORD_VV	1.477	n/a	<>	-999	9	[0, 0, 0]	n/a	FR1	1	R1068J
1086.4	6.678	3516963	REC_END	n/a	n/a	n/a	-999	9	[0, 0, 0]	n/a	FR1	1	R1068J
1093.078	0.0	3523641	TRIAL	n/a	n/a	n/a	-999	10	[0, 0, 0]	n/a	FR1	1	R1068J
1093.078	10.428	3523641	COUNTDOWN_START	n/a	n/a	n/a	-999	10	[0, 0, 0]	n/a	FR1	1	R1068J
1103.506	0.006	3534068	COUNTDOWN_END	n/a	n/a	n/a	-999	10	[0, 0, 0]	n/a	FR1	1	R1068J
1103.512	2.418	3534074	ORIENT	n/a	n/a	n/a	-999	10	[0, 0, 0]	n/a	FR1	1	R1068J
1105.93	2.567	3536492	WORD	n/a	wordpools/wordpool_EN.txt	TEA	1	10	[0, 0, 0]	n/a	FR1	1	R1068J
1108.497	2.533	3539059	WORD	n/a	wordpools/wordpool_EN.txt	SHRIMP	2	10	[0, 0, 0]	n/a	FR1	1	R1068J
1111.03	2.484	3541592	WORD	n/a	wordpools/wordpool_EN.txt	LAMP	3	10	[0, 0, 0]	n/a	FR1	1	R1068J
1113.514	2.584	3544076	WORD	n/a	wordpools/wordpool_EN.txt	SUIT	4	10	[0, 0, 0]	n/a	FR1	1	R1068J
1116.098	2.417	3546660	WORD	n/a	wordpools/wordpool_EN.txt	FOOD	5	10	[0, 0, 0]	n/a	FR1	1	R1068J
1118.515	2.617	3549077	WORD	n/a	wordpools/wordpool_EN.txt	TOE	6	10	[0, 0, 0]	n/a	FR1	1	R1068J
1121.132	2.467	3551694	WORD	n/a	wordpools/wordpool_EN.txt	HOOF	7	10	[0, 0, 0]	n/a	FR1	1	R1068J
1123.599	2.55	3554161	WORD	n/a	wordpools/wordpool_EN.txt	ROOT	8	10	[0, 0, 0]	n/a	FR1	1	R1068J
1126.149	2.55	3556711	WORD	n/a	wordpools/wordpool_EN.txt	BEAN	9	10	[0, 0, 0]	n/a	FR1	1	R1068J
1128.699	2.434	3559261	WORD	n/a	wordpools/wordpool_EN.txt	RAKE	10	10	[0, 0, 0]	n/a	FR1	1	R1068J
1131.133	2.467	3561695	WORD	n/a	wordpools/wordpool_EN.txt	SOCK	11	10	[0, 0, 0]	n/a	FR1	1	R1068J
1133.6	1.617	3564162	WORD	n/a	wordpools/wordpool_EN.txt	BATH	12	10	[0, 0, 0]	n/a	FR1	1	R1068J
1135.217	0.001	3565779	DISTRACT_START	n/a	n/a	n/a	-999	10	[0, 0, 0]	n/a	FR1	1	R1068J
1135.218	0.016	3565780	START	n/a	n/a	n/a	-999	10	[-999, -999, -999]	n/a	FR1	1	R1068J
1135.234	10.45	3565796	PROB	10.45	n/a	n/a	-999	10	[7, 4, 8]	19	FR1	1	R1068J
1145.684	5.552	3576246	PROB	5.552	n/a	n/a	-999	10	[6, 1, 2]	9	FR1	1	R1068J
1151.236	2.884	3581798	PROB	2.884	n/a	n/a	-999	10	[9, 1, 7]	17	FR1	1	R1068J
1154.12	6.216	3584681	PROB	6.216	n/a	n/a	-999	10	[7, 6, 7]	20	FR1	1	R1068J
1160.336	0.018	3590897	STOP	n/a	n/a	n/a	-999	10	[-999, -999, -999]	n/a	FR1	1	R1068J
1160.354	1.201	3590915	DISTRACT_END	n/a	n/a	n/a	-999	10	[0, 0, 0]	n/a	FR1	1	R1068J
1161.555	1.638	3592116	REC_START	n/a	n/a	n/a	-999	10	[0, 0, 0]	n/a	FR1	1	R1068J
1163.193	2.232	3593754	REC_WORD_VV	2.232	n/a	<>	-999	10	[0, 0, 0]	n/a	FR1	1	R1068J
1165.425	1.838	3595986	REC_WORD	1.838	n/a	LAMP	3	10	[0, 0, 0]	n/a	FR1	1	R1068J
1167.263	1.339	3597824	REC_WORD	1.339	n/a	FOOD	5	10	[0, 0, 0]	n/a	FR1	1	R1068J
1168.602	2.455	3599163	REC_WORD	2.455	n/a	SHRIMP	2	10	[0, 0, 0]	n/a	FR1	1	R1068J
1171.057	2.716	3601618	REC_WORD	2.716	n/a	TEA	1	10	[0, 0, 0]	n/a	FR1	1	R1068J
1173.773	1.0	3604334	REC_WORD	1.0	n/a	FRUIT	-999	10	[0, 0, 0]	n/a	FR1	1	R1068J
1174.773	1.0	3605334	REC_WORD_VV	1.0	n/a	<>	-999	10	[0, 0, 0]	n/a	FR1	1	R1068J
1175.773	1.883	3606334	REC_WORD_VV	1.883	n/a	<>	-999	10	[0, 0, 0]	n/a	FR1	1	R1068J
1177.656	0.875	3608217	REC_WORD	0.875	n/a	FOOT	-999	10	[0, 0, 0]	n/a	FR1	1	R1068J
1178.531	1.728	3609092	REC_WORD_VV	1.728	n/a	<>	-999	10	[0, 0, 0]	n/a	FR1	1	R1068J
1180.259	2.234	3610820	REC_WORD_VV	2.234	n/a	<>	-999	10	[0, 0, 0]	n/a	FR1	1	R1068J
1182.493	3.193	3613054	REC_WORD_VV	3.193	n/a	<>	-999	10	[0, 0, 0]	n/a	FR1	1	R1068J
1185.686	0.2	3616247	REC_WORD_VV	0.2	n/a	<>	-999	10	[0, 0, 0]	n/a	FR1	1	R1068J
1185.886	1.701	3616447	REC_WORD	1.701	n/a	RAKE	10	10	[0, 0, 0]	n/a	FR1	1	R1068J
1187.587	3.982	3618148	REC_WORD_VV	3.982	n/a	<>	-999	10	[0, 0, 0]	n/a	FR1	1	R1068J
1191.569	6.491	3622130	REC_END	n/a	n/a	n/a	-999	10	[0, 0, 0]	n/a	FR1	1	R1068J
1198.06	0.0	3628621	TRIAL	n/a	n/a	n/a	-999	11	[0, 0, 0]	n/a	FR1	1	R1068J
1198.06	10.428	3628621	COUNTDOWN_START	n/a	n/a	n/a	-999	11	[0, 0, 0]	n/a	FR1	1	R1068J
1208.488	0.007	3639048	COUNTDOWN_END	n/a	n/a	n/a	-999	11	[0, 0, 0]	n/a	FR1	1	R1068J
1208.495	2.567	3639055	ORIENT	n/a	n/a	n/a	-999	11	[0, 0, 0]	n/a	FR1	1	R1068J
1211.062	2.6	3641622	WORD	n/a	wordpools/wordpool_EN.txt	RUG	1	11	[0, 0, 0]	n/a	FR1	1	R1068J
1213.662	2.45	3644222	WORD	n/a	wordpools/wordpool_EN.txt	YARD	2	11	[0, 0, 0]	n/a	FR1	1	R1068J
1216.112	2.551	3646672	WORD	n/a	wordpools/wordpool_EN.txt	STOVE	3	11	[0, 0, 0]	n/a	FR1	1	R1068J
1218.663	2.517	3649223	WORD	n/a	wordpools/wordpool_EN.txt	LOCK	4	11	[0, 0, 0]	n/a	FR1	1	R1068J
1221.18	2.483	3651740	WORD	n/a	wordpools/wordpool_EN.txt	FACE	5	11	[0, 0, 0]	n/a	FR1	1	R1068J
1223.663	2.617	3654223	WORD	n/a	wordpools/wordpool_EN.txt	BOARD	6	11	[0, 0, 0]	n/a	FR1	1	R1068J
1226.28	2.55	3656840	WORD	n/a	wordpools/wordpool_EN.txt	CAGE	7	11	[0, 0, 0]	n/a	FR1	1	R1068J
1228.83	2.518	3659390	WORD	n/a	wordpools/wordpool_EN.txt	HORN	8	11	[0, 0, 0]	n/a	FR1	1	R1068J
1231.348	2.55	3661908	WORD	n/a	wordpools/wordpool_EN.txt	DRESS	9	11	[0, 0, 0]	n/a	FR1	1	R1068J
1233.898	2.401	3664458	WORD	n/a	wordpools/wordpool_EN.txt	DOCK	10	11	[0, 0, 0]	n/a	FR1	1	R1068J
1236.299	2.499	3666859	WORD	n/a	wordpools/wordpool_EN.txt	WOOD	11	11	[0, 0, 0]	n/a	FR1	1	R1068J
1238.798	1.601	3669358	WORD	n/a	wordpools/wordpool_EN.txt	TOY	12	11	[0, 0, 0]	n/a	FR1	1	R1068J
1240.399	0.001	3670959	DISTRACT_START	n/a	n/a	n/a	-999	11	[0, 0, 0]	n/a	FR1	1	R1068J
1240.4	0.016	3670960	START	n/a	n/a	n/a	-999	11	[-999, -999, -999]	n/a	FR1	1	R1068J
1240.416	9.968	3670976	PROB	9.968	n/a	n/a	-999	11	[1, 4, 4]	9	FR1	1	R1068J
1250.384	2.5	3680943	PROB	2.5	n/a	n/a	-999	11	[1, 2, 4]	7	FR1	1	R1068J
1252.884	5.867	3683443	PROB	5.867	n/a	n/a	-999	11	[3, 8, 8]	19	FR1	1	R1068J
1258.751	6.814	3689310	PROB	6.814	n/a	n/a	-999	11	[9, 5, 8]	22	FR1	1	R1068J
1265.565	0.004	3696124	STOP	n/a	n/a	n/a	-999	11	[-999, -999, -999]	n/a	FR1	1	R1068J
1265.569	1.2	3696128	DISTRACT_END	n/a	n/a	n/a	-999	11	[0, 0, 0]	n/a	FR1	1	R1068J
1266.769	1.388	3697328	REC_START	n/a	n/a	n/a	-999	11	[0, 0, 0]	n/a	FR1	1	R1068J
1268.157	0.831	3698716	REC_WORD_VV	0.831	n/a	<>	-999	11	[0, 0, 0]	n/a	FR1	1	R1068J
1268.988	1.991	3699547	REC_WORD	1.991	n/a	CAGE	7	11	[0, 0, 0]	n/a	FR1	1	R1068J
1270.979	2.266	3701538	REC_WORD	2.266	n/a	BOARD	6	11	[0, 0, 0]	n/a	FR1	1	R1068J
1273.245	2.201	3703804	REC_WORD	2.201	n/a	LOCK	4	11	[0, 0, 0]	n/a	FR1	1	R1068J
1275.446	3.09	3706005	REC_WORD	3.09	n/a	FACE	5	11	[0, 0, 0]	n/a	FR1	1	R1068J
1278.536	1.972	3709095	REC_WORD	1.972	n/a	RUG	1	11	[0, 0, 0]	n/a	FR1	1	R1068J
1280.508	3.534	3711067	REC_WORD	3.534	n/a	YARD	2	11	[0, 0, 0]	n/a	FR1	1	R1068J
1284.042	5.742	3714601	REC_WORD_VV	5.742	n/a	<>	-999	11	[0, 0, 0]	n/a	FR1	1	R1068J
1289.784	1.0	3720343	REC_WORD_VV	1.0	n/a	<>	-999	11	[0, 0, 0]	n/a	FR1	1	R1068J
1290.784	1.0	3721343	REC_WORD_VV	1.0	n/a	<>	-999	11	[0, 0, 0]	n/a	FR1	1	R1068J
1291.784	4.999	3722343	REC_WORD_VV	4.999	n/a	<>	-999	11	[0, 0, 0]	n/a	FR1	1	R1068J
1296.783	8.375	3727342	REC_END	n/a	n/a	n/a	-999	11	[0, 0, 0]	n/a	FR1	1	R1068J
1305.158	0.001	3735716	COUNTDOWN_START	n/a	n/a	n/a	-999	12	[0, 0, 0]	n/a	FR1	1	R1068J
1305.159	10.427	3735717	TRIAL	n/a	n/a	n/a	-999	12	[0, 0, 0]	n/a	FR1	1	R1068J
1315.586	0.007	3746144	COUNTDOWN_END	n/a	n/a	n/a	-999	12	[0, 0, 0]	n/a	FR1	1	R1068J
1315.593	2.501	3746151	ORIENT	n/a	n/a	n/a	-999	12	[0, 0, 0]	n/a	FR1	1	R1068J
1318.094	2.417	3748652	WORD	n/a	wordpools/wordpool_EN.txt	BRICK	1	12	[0, 0, 0]	n/a	FR1	1	R1068J
1320.511	2.5	3751069	WORD	n/a	wordpools/wordpool_EN.txt	POLE	2	12	[0, 0, 0]	n/a	FR1	1	R1068J
1323.011	2.617	3753569	WORD	n/a	wordpools/wordpool_EN.txt	JAIL	3	12	[0, 0, 0]	n/a	FR1	1	R1068J
1325.628	2.584	3756186	WORD	n/a	wordpools/wordpool_EN.txt	MAP	4	12	[0, 0, 0]	n/a	FR1	1	R1068J
1328.212	2.384	3758770	WORD	n/a	wordpools/wordpool_EN.txt	MOON	5	12	[0, 0, 0]	n/a	FR1	1	R1068J
1330.596	2.467	3761154	WORD	n/a	wordpools/wordpool_EN.txt	CORD	6	12	[0, 0, 0]	n/a	FR1	1	R1068J
1333.063	2.483	3763621	WORD	n/a	wordpools/wordpool_EN.txt	BOMB	7	12	[0, 0, 0]	n/a	FR1	1	R1068J
1335.546	2.617	3766104	WORD	n/a	wordpools/wordpool_EN.txt	OAR	8	12	[0, 0, 0]	n/a	FR1	1	R1068J
1338.163	2.55	3768721	WORD	n/a	wordpools/wordpool_EN.txt	STAR	9	12	[0, 0, 0]	n/a	FR1	1	R1068J
1340.713	2.468	3771271	WORD	n/a	wordpools/wordpool_EN.txt	STEM	10	12	[0, 0, 0]	n/a	FR1	1	R1068J
1343.181	2.532	3773739	WORD	n/a	wordpools/wordpool_EN.txt	BAT	11	12	[0, 0, 0]	n/a	FR1	1	R1068J
1345.713	1.601	3776271	WORD	n/a	wordpools/wordpool_EN.txt	TOOTH	12	12	[0, 0, 0]	n/a	FR1	1	R1068J
1347.314	0.001	3777871	DISTRACT_START	n/a	n/a	n/a	-999	12	[0, 0, 0]	n/a	FR1	1	R1068J
1347.315	0.016	3777872	START	n/a	n/a	n/a	-999	12	[-999, -999, -999]	n/a	FR1	1	R1068J
1347.331	8.635	3777888	PROB	8.635	n/a	n/a	-999	12	[6, 9, 4]	19	FR1	1	R1068J
1355.966	6.084	3786523	PROB	6.084	n/a	n/a	-999	12	[5, 1, 9]	15	FR1	1	R1068J
1362.05	7.425	3792607	PROB	7.425	n/a	n/a	-999	12	[6, 8, 6]	20	FR1	1	R1068J
1369.475	0.01	3800032	STOP	n/a	n/a	n/a	-999	12	[-999, -999, -999]	n/a	FR1	1	R1068J
1369.485	1.067	3800042	DISTRACT_END	n/a	n/a	n/a	-999	12	[0, 0, 0]	n/a	FR1	1	R1068J
1370.552	0.709	3801109	REC_START	n/a	n/a	n/a	-999	12	[0, 0, 0]	n/a	FR1	1	R1068J
1371.261	2.798	3801818	REC_WORD_VV	2.798	n/a	<>	-999	12	[0, 0, 0]	n/a	FR1	1	R1068J
1374.059	2.096	3804616	REC_WORD	2.096	n/a	OAR	8	12	[0, 0, 0]	n/a	FR1	1	R1068J
1376.155	1.8	3806712	REC_WORD	1.8	n/a	STAR	9	12	[0, 0, 0]	n/a	FR1	1	R1068J
1377.955	2.781	3808512	REC_WORD	2.781	n/a	STEM	10	12	[0, 0, 0]	n/a	FR1	1	R1068J
1380.736	2.04	3811293	REC_WORD	2.04	n/a	BRICK	1	12	[0, 0, 0]	n/a	FR1	1	R1068J
1382.776	1.83	3813333	REC_WORD	1.83	n/a	POLE	2	12	[0, 0, 0]	n/a	FR1	1	R1068J
1384.606	6.216	3815163	REC_WORD	6.216	n/a	JAIL	3	12	[0, 0, 0]	n/a	FR1	1	R1068J
1390.822	0.498	3821379	REC_WORD	0.498	n/a	CAT	-999	12	[0, 0, 0]	n/a	FR1	1	R1068J
1391.32	1.0	3821877	REC_WORD_VV	1.0	n/a	<>	-999	12	[0, 0, 0]	n/a	FR1	1	R1068J
1392.32	1.785	3822877	REC_WORD_VV	1.785	n/a	<>	-999	12	[0, 0, 0]	n/a	FR1	1	R1068J
1394.105	4.023	3824662	REC_WORD_VV	4.023	n/a	<>	-999	12	[0, 0, 0]	n/a	FR1	1	R1068J
1398.128	1.0	3828684	REC_WORD_VV	1.0	n/a	<>	-999	12	[0, 0, 0]	n/a	FR1	1	R1068J
1399.128	1.0	3829684	REC_WORD_VV	1.0	n/a	<>	-999	12	[0, 0, 0]	n/a	FR1	1	R1068J
1400.128	0.435	3830684	REC_WORD_VV	0.435	n/a	<>	-999	12	[0, 0, 0]	n/a	FR1	1	R1068J
1400.563	5.927	3831119	REC_END	n/a	n/a	n/a	-999	12	[0, 0, 0]	n/a	FR1	1	R1068J
1406.49	0.0	3837046	TRIAL	n/a	n/a	n/a	-999	13	[0, 0, 0]	n/a	FR1	1	R1068J
1406.49	10.428	3837046	COUNTDOWN_START	n/a	n/a	n/a	-999	13	[0, 0, 0]	n/a	FR1	1	R1068J
1416.918	0.007	3847474	COUNTDOWN_END	n/a	n/a	n/a	-999	13	[0, 0, 0]	n/a	FR1	1	R1068J
1416.925	2.5	3847481	ORIENT	n/a	n/a	n/a	-999	13	[0, 0, 0]	n/a	FR1	1	R1068J
1419.425	2.5	3849981	WORD	n/a	wordpools/wordpool_EN.txt	BRUSH	1	13	[0, 0, 0]	n/a	FR1	1	R1068J
1421.925	2.434	3852481	WORD	n/a	wordpools/wordpool_EN.txt	FLAME	2	13	[0, 0, 0]	n/a	FR1	1	R1068J
1424.359	2.399	3854915	WORD	n/a	wordpools/wordpool_EN.txt	STICK	3	13	[0, 0, 0]	n/a	FR1	1	R1068J
1426.758	2.552	3857314	WORD	n/a	wordpools/wordpool_EN.txt	ROSE	4	13	[0, 0, 0]	n/a	FR1	1	R1068J
1429.31	2.583	3859866	WORD	n/a	wordpools/wordpool_EN.txt	POND	5	13	[0, 0, 0]	n/a	FR1	1	R1068J
1431.893	2.484	3862449	WORD	n/a	wordpools/wordpool_EN.txt	PARK	6	13	[0, 0, 0]	n/a	FR1	1	R1068J
1434.377	2.517	3864933	WORD	n/a	wordpools/wordpool_EN.txt	SLIME	7	13	[0, 0, 0]	n/a	FR1	1	R1068J
1436.894	2.517	3867450	WORD	n/a	wordpools/wordpool_EN.txt	DEER	8	13	[0, 0, 0]	n/a	FR1	1	R1068J
1439.411	2.584	3869967	WORD	n/a	wordpools/wordpool_EN.txt	LIP	9	13	[0, 0, 0]	n/a	FR1	1	R1068J
1441.995	2.384	3872551	WORD	n/a	wordpools/wordpool_EN.txt	MAT	10	13	[0, 0, 0]	n/a	FR1	1	R1068J
1444.379	2.5	3874934	WORD	n/a	wordpools/wordpool_EN.txt	CLIFF	11	13	[0, 0, 0]	n/a	FR1	1	R1068J
1446.879	1.617	3877434	WORD	n/a	wordpools/wordpool_EN.txt	JAR	12	13	[0, 0, 0]	n/a	FR1	1	R1068J
1448.496	0.001	3879051	DISTRACT_START	n/a	n/a	n/a	-999	13	[0, 0, 0]	n/a	FR1	1	R1068J
1448.497	0.016	3879052	START	n/a	n/a	n/a	-999	13	[-999, -999, -999]	n/a	FR1	1	R1068J
1448.513	6.934	3879068	PROB	6.934	n/a	n/a	-999	13	[6, 1, 4]	11	FR1	1	R1068J
1455.447	5.051	3886002	PROB	5.051	n/a	n/a	-999	13	[9, 1, 9]	19	FR1	1	R1068J
1460.498	3.817	3891053	PROB	3.817	n/a	n/a	-999	13	[6, 5, 8]	19	FR1	1	R1068J
1464.315	4.034	3894870	PROB	4.034	n/a	n/a	-999	13	[3, 3, 1]	7	FR1	1	R1068J
1468.349	2.451	3898904	PROB	2.451	n/a	n/a	-999	13	[1, 3, 4]	8	FR1	1	R1068J
1470.8	0.015	3901355	STOP	n/a	n/a	n/a	-999	13	[-999, -999, -999]	n/a	FR1	1	R1068J
1470.815	1.135	3901370	DISTRACT_END	n/a	n/a	n/a	-999	13	[0, 0, 0]	n/a	FR1	1	R1068J
1471.95	1.21	3902505	REC_START	n/a	n/a	n/a	-999	13	[0, 0, 0]	n/a	FR1	1	R1068J
1473.16	1.988	3903715	REC_WORD_VV	1.988	n/a	<>	-999	13	[0, 0, 0]	n/a	FR1	1	R1068J
1475.148	2.621	3905703	REC_WORD	2.621	n/a	PARK	6	13	[0, 0, 0]	n/a	FR1	1	R1068J
1477.769	2.202	3908324	REC_WORD	2.202	n/a	POND	5	13	[0, 0, 0]	n/a	FR1	1	R1068J
1479.971	1.911	3910526	REC_WORD	1.911	n/a	DEER	8	13	[0, 0, 0]	n/a	FR1	1	R1068J
1481.882	2.251	3912437	REC_WORD	2.251	n/a	SLIME	7	13	[0, 0, 0]	n/a	FR1	1	R1068J
1484.133	3.189	3914688	REC_WORD	3.189	n/a	STICK	3	13	[0, 0, 0]	n/a	FR1	1	R1068J
1487.322	3.176	3917877	REC_WORD	3.176	n/a	BRUSH	1	13	[0, 0, 0]	n/a	FR1	1	R1068J
1490.498	3.821	3921053	REC_WORD	3.821	n/a	ROSE	4	13	[0, 0, 0]	n/a	FR1	1	R1068J
1494.319	0.717	3924873	REC_WORD	0.717	n/a	FIRE	-999	13	[0, 0, 0]	n/a	FR1	1	R1068J
1495.036	2.44	3925590	REC_WORD_VV	2.44	n/a	<>	-999	13	[0, 0, 0]	n/a	FR1	1	R1068J
1497.476	4.483	3928030	REC_WORD_VV	4.483	n/a	<>	-999	13	[0, 0, 0]	n/a	FR1	1	R1068J
1501.959	9.778	3932513	REC_END	n/a	n/a	n/a	-999	13	[0, 0, 0]	n/a	FR1	1	R1068J
1511.737	0.001	3942291	COUNTDOWN_START	n/a	n/a	n/a	-999	14	[0, 0, 0]	n/a	FR1	1	R1068J
1511.738	10.427	3942292	TRIAL	n/a	n/a	n/a	-999	14	[0, 0, 0]	n/a	FR1	1	R1068J
1522.165	0.008	3952719	COUNTDOWN_END	n/a	n/a	n/a	-999	14	[0, 0, 0]	n/a	FR1	1	R1068J
1522.173	2.417	3952727	ORIENT	n/a	n/a	n/a	-999	14	[0, 0, 0]	n/a	FR1	1	R1068J
1524.59	2.45	3955144	WORD	n/a	wordpools/wordpool_EN.txt	HAWK	1	14	[0, 0, 0]	n/a	FR1	1	R1068J
1527.04	2.384	3957594	WORD	n/a	wordpools/wordpool_EN.txt	BEE	2	14	[0, 0, 0]	n/a	FR1	1	R1068J
1529.424	2.451	3959978	WORD	n/a	wordpools/wordpool_EN.txt	SEAT	3	14	[0, 0, 0]	n/a	FR1	1	R1068J
1531.875	2.55	3962429	WORD	n/a	wordpools/wordpool_EN.txt	CORN	4	14	[0, 0, 0]	n/a	FR1	1	R1068J
1534.425	2.5	3964979	WORD	n/a	wordpools/wordpool_EN.txt	COW	5	14	[0, 0, 0]	n/a	FR1	1	R1068J
1536.925	2.534	3967479	WORD	n/a	wordpools/wordpool_EN.txt	BARN	6	14	[0, 0, 0]	n/a	FR1	1	R1068J
1539.459	2.434	3970013	WORD	n/a	wordpools/wordpool_EN.txt	OWL	7	14	[0, 0, 0]	n/a	FR1	1	R1068J
1541.893	2.533	3972446	WORD	n/a	wordpools/wordpool_EN.txt	PET	8	14	[0, 0, 0]	n/a	FR1	1	R1068J
1544.426	2.45	3974979	WORD	n/a	wordpools/wordpool_EN.txt	LAMB	9	14	[0, 0, 0]	n/a	FR1	1	R1068J
1546.876	2.551	3977429	WORD	n/a	wordpools/wordpool_EN.txt	SKY	10	14	[0, 0, 0]	n/a	FR1	1	R1068J
1549.427	2.383	3979980	WORD	n/a	wordpools/wordpool_EN.txt	FLEA	11	14	[0, 0, 0]	n/a	FR1	1	R1068J
1551.81	1.617	3982363	WORD	n/a	wordpools/wordpool_EN.txt	EEL	12	14	[0, 0, 0]	n/a	FR1	1	R1068J
1553.427	0.001	3983980	DISTRACT_START	n/a	n/a	n/a	-999	14	[0, 0, 0]	n/a	FR1	1	R1068J
1553.428	0.016	3983981	START	n/a	n/a	n/a	-999	14	[-999, -999, -999]	n/a	FR1	1	R1068J
1553.444	10.802	3983997	PROB	10.802	n/a	n/a	-999	14	[3, 1, 3]	7	FR1	1	R1068J
1564.246	3.05	3994799	PROB	3.05	n/a	n/a	-999	14	[2, 1, 6]	9	FR1	1	R1068J
1567.296	3.868	3997849	PROB	3.868	n/a	n/a	-999	14	[3, 7, 7]	17	FR1	1	R1068J
1571.164	3.114	4001717	PROB	3.114	n/a	n/a	-999	14	[7, 5, 9]	17	FR1	1	R1068J
1574.278	0.019	4004831	STOP	n/a	n/a	n/a	-999	14	[-999, -999, -999]	n/a	FR1	1	R1068J
1574.297	1.151	4004850	DISTRACT_END	n/a	n/a	n/a	-999	14	[0, 0, 0]	n/a	FR1	1	R1068J
1575.448	0.932	4006001	REC_START	n/a	n/a	n/a	-999	14	[0, 0, 0]	n/a	FR1	1	R1068J
1576.38	1.455	4006933	REC_WORD_VV	1.455	n/a	<>	-999	14	[0, 0, 0]	n/a	FR1	1	R1068J
1577.835	1.4	4008388	REC_WORD	1.4	n/a	EEL	12	14	[0, 0, 0]	n/a	FR1	1	R1068J
1579.235	1.861	4009788	REC_WORD	1.861	n/a	PET	8	14	[0, 0, 0]	n/a	FR1	1	R1068J
1581.096	2.805	4011649	REC_WORD	2.805	n/a	MAN	-999	14	[0, 0, 0]	n/a	FR1	1	R1068J
1583.901	2.052	4014454	REC_WORD	2.052	n/a	BARN	6	14	[0, 0, 0]	n/a	FR1	1	R1068J
1585.953	7.467	4016506	REC_WORD	7.467	n/a	OWL	7	14	[0, 0, 0]	n/a	FR1	1	R1068J
1593.42	1.972	4023972	REC_WORD_VV	1.972	n/a	<>	-999	14	[0, 0, 0]	n/a	FR1	1	R1068J
1595.392	3.174	4025944	REC_WORD_VV	3.174	n/a	<>	-999	14	[0, 0, 0]	n/a	FR1	1	R1068J
1598.566	1.0	4029118	REC_WORD_VV	1.0	n/a	<>	-999	14	[0, 0, 0]	n/a	FR1	1	R1068J
1599.566	1.0	4030118	REC_WORD_VV	1.0	n/a	<>	-999	14	[0, 0, 0]	n/a	FR1	1	R1068J
1600.566	1.0	4031118	REC_WORD_VV	1.0	n/a	<>	-999	14	[0, 0, 0]	n/a	FR1	1	R1068J
1601.566	1.0	4032118	REC_WORD_VV	1.0	n/a	<>	-999	14	[0, 0, 0]	n/a	FR1	1	R1068J
1602.566	1.681	4033118	REC_WORD_VV	1.681	n/a	<>	-999	14	[0, 0, 0]	n/a	FR1	1	R1068J
1604.247	1.211	4034799	REC_WORD_VV	1.211	n/a	<>	-999	14	[0, 0, 0]	n/a	FR1	1	R1068J
1605.458	8.244	4036010	REC_END	n/a	n/a	n/a	-999	14	[0, 0, 0]	n/a	FR1	1	R1068J
1613.702	0.0	4044254	TRIAL	n/a	n/a	n/a	-999	15	[0, 0, 0]	n/a	FR1	1	R1068J
1613.702	10.428	4044254	COUNTDOWN_START	n/a	n/a	n/a	-999	15	[0, 0, 0]	n/a	FR1	1	R1068J
1624.13	0.008	4054682	COUNTDOWN_END	n/a	n/a	n/a	-999	15	[0, 0, 0]	n/a	FR1	1	R1068J
1624.138	2.484	4054690	ORIENT	n/a	n/a	n/a	-999	15	[0, 0, 0]	n/a	FR1	1	R1068J
1626.622	2.583	4057174	WORD	n/a	wordpools/wordpool_EN.txt	PIPE	1	15	[0, 0, 0]	n/a	FR1	1	R1068J
1629.205	2.483	4059757	WORD	n/a	wordpools/wordpool_EN.txt	STRING	2	15	[0, 0, 0]	n/a	FR1	1	R1068J
1631.688	2.485	4062240	WORD	n/a	wordpools/wordpool_EN.txt	ROOM	3	15	[0, 0, 0]	n/a	FR1	1	R1068J
1634.173	2.632	4064725	WORD	n/a	wordpools/wordpool_EN.txt	DART	4	15	[0, 0, 0]	n/a	FR1	1	R1068J
1636.805	2.519	4067357	WORD	n/a	wordpools/wordpool_EN.txt	BAND	5	15	[0, 0, 0]	n/a	FR1	1	R1068J
1639.324	2.499	4069875	WORD	n/a	wordpools/wordpool_EN.txt	CHEEK	6	15	[0, 0, 0]	n/a	FR1	1	R1068J
1641.823	2.601	4072374	WORD	n/a	wordpools/wordpool_EN.txt	NEST	7	15	[0, 0, 0]	n/a	FR1	1	R1068J
1644.424	2.501	4074975	WORD	n/a	wordpools/wordpool_EN.txt	HAT	8	15	[0, 0, 0]	n/a	FR1	1	R1068J
1646.925	2.5	4077476	WORD	n/a	wordpools/wordpool_EN.txt	DOLL	9	15	[0, 0, 0]	n/a	FR1	1	R1068J
1649.425	2.567	4079976	WORD	n/a	wordpools/wordpool_EN.txt	BIRD	10	15	[0, 0, 0]	n/a	FR1	1	R1068J
1651.992	2.517	4082543	WORD	n/a	wordpools/wordpool_EN.txt	CRANE	11	15	[0, 0, 0]	n/a	FR1	1	R1068J
1654.509	1.617	4085060	WORD	n/a	wordpools/wordpool_EN.txt	TAIL	12	15	[0, 0, 0]	n/a	FR1	1	R1068J
1656.126	0.001	4086677	DISTRACT_START	n/a	n/a	n/a	-999	15	[0, 0, 0]	n/a	FR1	1	R1068J
1656.127	0.016	4086678	START	n/a	n/a	n/a	-999	15	[-999, -999, -999]	n/a	FR1	1	R1068J
1656.143	14.651	4086694	PROB	14.651	n/a	n/a	-999	15	[7, 6, 5]	18	FR1	1	R1068J
1670.794	2.983	4101345	PROB	2.983	n/a	n/a	-999	15	[2, 1, 9]	12	FR1	1	R1068J
1673.777	4.195	4104328	PROB	4.195	n/a	n/a	-999	15	[4, 1, 8]	13	FR1	1	R1068J
1677.972	0.007	4108523	STOP	n/a	n/a	n/a	-999	15	[-999, -999, -999]	n/a	FR1	1	R1068J
1677.979	1.217	4108530	DISTRACT_END	n/a	n/a	n/a	-999	15	[0, 0, 0]	n/a	FR1	1	R1068J
1679.196	0.933	4109747	REC_START	n/a	n/a	n/a	-999	15	[0, 0, 0]	n/a	FR1	1	R1068J
1680.129	0.647	4110680	REC_WORD_VV	0.647	n/a	<>	-999	15	[0, 0, 0]	n/a	FR1	1	R1068J
1680.776	1.675	4111327	REC_WORD	1.675	n/a	CRANE	11	15	[0, 0, 0]	n/a	FR1	1	R1068J
1682.451	1.344	4113002	REC_WORD	1.344	n/a	BIRD	10	15	[0, 0, 0]	n/a	FR1	1	R1068J
1683.795	2.21	4114346	REC_WORD	2.21	n/a	NEST	7	15	[0, 0, 0]	n/a	FR1	1	R1068J
1686.005	2.06	4116556	REC_WORD	2.06	n/a	TAIL	12	15	[0, 0, 0]	n/a	FR1	1	R1068J
1688.065	3.841	4118615	REC_WORD	3.841	n/a	CHEEK	6	15	[0, 0, 0]	n/a	FR1	1	R1068J
1691.906	6.631	4122456	REC_WORD_VV	6.631	n/a	<>	-999	15	[0, 0, 0]	n/a	FR1	1	R1068J
1698.537	1.0	4129087	REC_WORD_VV	1.0	n/a	<>	-999	15	[0, 0, 0]	n/a	FR1	1	R1068J
1699.537	2.75	4130087	REC_WORD_VV	2.75	n/a	<>	-999	15	[0, 0, 0]	n/a	FR1	1	R1068J
1702.287	0.686	4132837	REC_WORD	0.686	n/a	HAT	8	15	[0, 0, 0]	n/a	FR1	1	R1068J
1702.973	6.234	4133523	REC_WORD	6.234	n/a	DOLL	9	15	[0, 0, 0]	n/a	FR1	1	R1068J
1709.207	19.146	4139757	REC_END	n/a	n/a	n/a	-999	15	[0, 0, 0]	n/a	FR1	1	R1068J
1728.353	0.0	4158903	TRIAL	n/a	n/a	n/a	-999	16	[0, 0, 0]	n/a	FR1	1	R1068J
1728.353	10.428	4158903	COUNTDOWN_START	n/a	n/a	n/a	-999	16	[0, 0, 0]	n/a	FR1	1	R1068J
1738.781	0.006	4169330	COUNTDOWN_END	n/a	n/a	n/a	-999	16	[0, 0, 0]	n/a	FR1	1	R1068J
1738.787	2.501	4169336	ORIENT	n/a	n/a	n/a	-999	16	[0, 0, 0]	n/a	FR1	1	R1068J
1741.288	2.6	4171837	WORD	n/a	wordpools/wordpool_EN.txt	DUCK	1	16	[0, 0, 0]	n/a	FR1	1	R1068J
1743.888	2.634	4174437	WORD	n/a	wordpools/wordpool_EN.txt	ZOO	2	16	[0, 0, 0]	n/a	FR1	1	R1068J
1746.522	2.55	4177071	WORD	n/a	wordpools/wordpool_EN.txt	SOUP	3	16	[0, 0, 0]	n/a	FR1	1	R1068J
1749.072	2.6	4179621	WORD	n/a	wordpools/wordpool_EN.txt	CLAY	4	16	[0, 0, 0]	n/a	FR1	1	R1068J
1751.672	2.468	4182221	WORD	n/a	wordpools/wordpool_EN.txt	MOUSE	5	16	[0, 0, 0]	n/a	FR1	1	R1068J
1754.14	2.467	4184689	WORD	n/a	wordpools/wordpool_EN.txt	SKUNK	6	16	[0, 0, 0]	n/a	FR1	1	R1068J
1756.607	2.567	4187156	WORD	n/a	wordpools/wordpool_EN.txt	ANT	7	16	[0, 0, 0]	n/a	FR1	1	R1068J
1759.174	2.566	4189723	WORD	n/a	wordpools/wordpool_EN.txt	MOOSE	8	16	[0, 0, 0]	n/a	FR1	1	R1068J
1761.74	2.568	4192289	WORD	n/a	wordpools/wordpool_EN.txt	ROCK	9	16	[0, 0, 0]	n/a	FR1	1	R1068J
1764.308	2.383	4194857	WORD	n/a	wordpools/wordpool_EN.txt	SPONGE	10	16	[0, 0, 0]	n/a	FR1	1	R1068J
1766.691	2.384	4197240	WORD	n/a	wordpools/wordpool_EN.txt	TENT	11	16	[0, 0, 0]	n/a	FR1	1	R1068J
1769.075	1.616	4199624	WORD	n/a	wordpools/wordpool_EN.txt	SNAKE	12	16	[0, 0, 0]	n/a	FR1	1	R1068J
1770.691	0.001	4201240	DISTRACT_START	n/a	n/a	n/a	-999	16	[0, 0, 0]	n/a	FR1	1	R1068J
1770.692	0.016	4201241	START	n/a	n/a	n/a	-999	16	[-999, -999, -999]	n/a	FR1	1	R1068J
1770.708	11.686	4201257	PROB	11.686	n/a	n/a	-999	16	[5, 7, 2]	14	FR1	1	R1068J
1782.394	4.884	4212943	PROB	4.884	n/a	n/a	-999	16	[6, 2, 3]	11	FR1	1	R1068J
1787.278	5.363	4217826	PROB	5.363	n/a	n/a	-999	16	[4, 4, 5]	13	FR1	1	R1068J
1792.641	0.004	4223189	STOP	n/a	n/a	n/a	-999	16	[-999, -999, -999]	n/a	FR1	1	R1068J
1792.645	1.133	4223193	DISTRACT_END	n/a	n/a	n/a	-999	16	[0, 0, 0]	n/a	FR1	1	R1068J
1793.778	0.666	4224326	REC_START	n/a	n/a	n/a	-999	16	[0, 0, 0]	n/a	FR1	1	R1068J
1794.444	1.575	4224992	REC_WORD_VV	1.575	n/a	<>	-999	16	[0, 0, 0]	n/a	FR1	1	R1068J
1796.019	1.156	4226567	REC_WORD	1.156	n/a	DUCK	1	16	[0, 0, 0]	n/a	FR1	1	R1068J
1797.175	1.842	4227723	REC_WORD	1.842	n/a	SOUP	3	16	[0, 0, 0]	n/a	FR1	1	R1068J
1799.017	1.613	4229565	REC_WORD	1.613	n/a	CLAY	4	16	[0, 0, 0]	n/a	FR1	1	R1068J
1800.63	1.878	4231178	REC_WORD	1.878	n/a	MOUSE	5	16	[0, 0, 0]	n/a	FR1	1	R1068J
1802.508	1.966	4233056	REC_WORD	1.966	n/a	SKUNK	6	16	[0, 0, 0]	n/a	FR1	1	R1068J
1804.474	19.32	4235022	REC_WORD	19.32	n/a	ZOO	2	16	[0, 0, 0]	n/a	FR1	1	R1068J
1823.794	16.275	4254342	REC_END	n/a	n/a	n/a	-999	16	[0, 0, 0]	n/a	FR1	1	R1068J
1840.069	0.0	4270616	TRIAL	n/a	n/a	n/a	-999	17	[0, 0, 0]	n/a	FR1	1	R1068J
1840.069	0.0	4270616	COUNTDOWN_START	n/a	n/a	n/a	-999	17	[0, 0, 0]	n/a	FR1	1	R1068J
