onset	duration	sample	trial_type	response_time	stim_file	item_name	serialpos	list	test	answer	experiment	session	subject
0.0	121.212	1939	INSTRUCT_START	n/a	n/a	n/a	-999	-999	[0, 0, 0]	n/a	FR1	1	R1334T
121.212	374.568	123145	INSTRUCT_END	n/a	n/a	n/a	-999	-999	[0, 0, 0]	n/a	FR1	1	R1334T
495.78	57.189	497696	MIC TEST_START	n/a	n/a	n/a	-999	-999	[0, 0, 0]	n/a	FR1	1	R1334T
552.969	0.01	554883	MIC TEST_END	n/a	n/a	n/a	-999	-999	[0, 0, 0]	n/a	FR1	1	R1334T
552.979	0.001	554893	TRIAL_START	n/a	n/a	n/a	-999	-1	[0, 0, 0]	n/a	FR1	1	R1334T
552.98	0.0	554894	TRIAL	n/a	n/a	n/a	-999	-1	[0, 0, 0]	n/a	FR1	1	R1334T
552.98	39.917	554894	WAITING_START	n/a	n/a	n/a	-999	-1	[0, 0, 0]	n/a	FR1	1	R1334T
592.897	0.0	594809	COUNTDOWN_START	n/a	n/a	n/a	-999	-1	[0, 0, 0]	n/a	FR1	1	R1334T
592.897	10.43	594809	WAITING_END	n/a	n/a	n/a	-999	-1	[0, 0, 0]	n/a	FR1	1	R1334T
603.327	0.0	605238	COUNTDOWN_END	n/a	n/a	n/a	-999	-1	[0, 0, 0]	n/a	FR1	1	R1334T
603.327	1.19	605238	ORIENT_START	n/a	n/a	n/a	-999	-1	[0, 0, 0]	n/a	FR1	1	R1334T
604.517	0.0	606428	ORIENT_END	n/a	n/a	n/a	-999	-1	[0, 0, 0]	n/a	FR1	1	R1334T
604.517	0.998	606428	ENCODING_START	n/a	n/a	n/a	-999	-1	[0, 0, 0]	n/a	FR1	1	R1334T
605.515	1.635	607426	WORD	n/a	n/a	WATCH	1	-1	[0, 0, 0]	n/a	FR1	1	R1334T
607.15	0.795	609061	WORD_OFF	n/a	n/a	WATCH	1	-1	[0, 0, 0]	n/a	FR1	1	R1334T
607.945	1.606	609856	WORD	n/a	n/a	RING	2	-1	[0, 0, 0]	n/a	FR1	1	R1334T
609.551	0.883	611462	WORD_OFF	n/a	n/a	RING	2	-1	[0, 0, 0]	n/a	FR1	1	R1334T
610.434	1.633	612345	WORD	n/a	n/a	WAGON	3	-1	[0, 0, 0]	n/a	FR1	1	R1334T
612.067	0.798	613978	WORD_OFF	n/a	n/a	WAGON	3	-1	[0, 0, 0]	n/a	FR1	1	R1334T
612.865	1.637	614776	WORD	n/a	n/a	CAMEL	4	-1	[0, 0, 0]	n/a	FR1	1	R1334T
614.502	1.024	616413	WORD_OFF	n/a	n/a	CAMEL	4	-1	[0, 0, 0]	n/a	FR1	1	R1334T
615.526	1.625	617437	WORD	n/a	n/a	COTTON	5	-1	[0, 0, 0]	n/a	FR1	1	R1334T
617.151	0.826	619062	WORD_OFF	n/a	n/a	COTTON	5	-1	[0, 0, 0]	n/a	FR1	1	R1334T
617.977	1.626	619888	WORD	n/a	n/a	BEAM	6	-1	[0, 0, 0]	n/a	FR1	1	R1334T
619.603	1.056	621514	WORD_OFF	n/a	n/a	BEAM	6	-1	[0, 0, 0]	n/a	FR1	1	R1334T
620.659	1.628	622570	WORD	n/a	n/a	IMAGE	7	-1	[0, 0, 0]	n/a	FR1	1	R1334T
622.287	1.12	624197	WORD_OFF	n/a	n/a	IMAGE	7	-1	[0, 0, 0]	n/a	FR1	1	R1334T
623.407	1.629	625317	WORD	n/a	n/a	FLOOD	8	-1	[0, 0, 0]	n/a	FR1	1	R1334T
625.036	1.017	626946	WORD_OFF	n/a	n/a	FLOOD	8	-1	[0, 0, 0]	n/a	FR1	1	R1334T
626.053	1.618	627963	WORD	n/a	n/a	CHEST	9	-1	[0, 0, 0]	n/a	FR1	1	R1334T
627.671	1.014	629581	WORD_OFF	n/a	n/a	CHEST	9	-1	[0, 0, 0]	n/a	FR1	1	R1334T
628.685	1.636	630595	WORD	n/a	n/a	BABY	10	-1	[0, 0, 0]	n/a	FR1	1	R1334T
630.321	0.816	632231	WORD_OFF	n/a	n/a	BABY	10	-1	[0, 0, 0]	n/a	FR1	1	R1334T
631.137	1.634	633047	WORD	n/a	n/a	RHINO	11	-1	[0, 0, 0]	n/a	FR1	1	R1334T
632.771	0.931	634681	WORD_OFF	n/a	n/a	RHINO	11	-1	[0, 0, 0]	n/a	FR1	1	R1334T
633.702	1.637	635612	WORD	n/a	n/a	TONGUE	12	-1	[0, 0, 0]	n/a	FR1	1	R1334T
635.339	0.0	637249	ENCODING_END	n/a	n/a	n/a	-999	-1	[0, 0, 0]	n/a	FR1	1	R1334T
635.339	0.001	637249	WORD_OFF	n/a	n/a	TONGUE	12	-1	[0, 0, 0]	n/a	FR1	1	R1334T
635.34	0.0	637250	DISTRACT_START	n/a	n/a	n/a	-999	-1	[0, 0, 0]	n/a	FR1	1	R1334T
635.34	0.015	637250	START	n/a	n/a	n/a	-999	-1	[-999, -999, -999]	n/a	FR1	1	R1334T
635.355	4.417	637265	PROB	4.417	n/a	n/a	-999	-1	[1, 7, 7]	15	FR1	1	R1334T
639.772	5.519	641682	PROB	5.519	n/a	n/a	-999	-1	[5, 4, 3]	12	FR1	1	R1334T
645.291	3.3	647200	PROB	3.3	n/a	n/a	-999	-1	[1, 3, 8]	12	FR1	1	R1334T
648.591	4.4	650500	PROB	4.4	n/a	n/a	-999	-1	[6, 3, 9]	18	FR1	1	R1334T
652.991	3.57	654900	PROB	3.57	n/a	n/a	-999	-1	[4, 4, 6]	14	FR1	1	R1334T
656.561	0.015	658470	STOP	n/a	n/a	n/a	-999	-1	[-999, -999, -999]	n/a	FR1	1	R1334T
656.576	0.587	658485	DISTRACT_END	n/a	n/a	n/a	-999	-1	[0, 0, 0]	n/a	FR1	1	R1334T
657.163	1.663	659072	RETRIEVAL_ORIENT_START	n/a	n/a	n/a	-999	-1	[0, 0, 0]	n/a	FR1	1	R1334T
658.826	0.0	660735	RETRIEVAL_ORIENT_END	n/a	n/a	n/a	-999	-1	[0, 0, 0]	n/a	FR1	1	R1334T
658.826	0.598	660735	REC_START	n/a	n/a	n/a	-999	-1	[0, 0, 0]	n/a	FR1	1	R1334T
659.424	1.286	661333	REC_WORD	1.286	n/a	WATCH	-999	-1	[0, 0, 0]	n/a	FR1	1	R1334T
660.71	1.569	662619	REC_WORD	1.569	n/a	RING	-999	-1	[0, 0, 0]	n/a	FR1	1	R1334T
662.279	1.586	664188	REC_WORD	1.586	n/a	CAMEL	-999	-1	[0, 0, 0]	n/a	FR1	1	R1334T
663.865	1.781	665774	REC_WORD	1.781	n/a	COTTON	-999	-1	[0, 0, 0]	n/a	FR1	1	R1334T
665.646	1.849	667554	REC_WORD	1.849	n/a	BABY	-999	-1	[0, 0, 0]	n/a	FR1	1	R1334T
667.495	4.589	669403	REC_WORD	4.589	n/a	RHINO	-999	-1	[0, 0, 0]	n/a	FR1	1	R1334T
672.084	16.753	673992	REC_WORD	16.753	n/a	WAGON	-999	-1	[0, 0, 0]	n/a	FR1	1	R1334T
688.837	0.001	690744	REC_END	n/a	n/a	n/a	-999	-1	[0, 0, 0]	n/a	FR1	1	R1334T
688.838	18.247	690745	PRACTICE_POST_INSTRUCT_START	n/a	n/a	n/a	-999	-1	[0, 0, 0]	n/a	FR1	1	R1334T
707.085	0.001	708992	PRACTICE_POST_INSTRUCT_END	n/a	n/a	n/a	-999	-1	[0, 0, 0]	n/a	FR1	1	R1334T
707.086	0.017	708993	TRIAL_END	n/a	n/a	n/a	-999	-1	[0, 0, 0]	n/a	FR1	1	R1334T
707.103	0.001	709010	TRIAL_START	n/a	n/a	n/a	-999	1	[0, 0, 0]	n/a	FR1	1	R1334T
707.104	0.0	709011	WAITING_START	n/a	n/a	n/a	-999	1	[0, 0, 0]	n/a	FR1	1	R1334T
707.104	2.582	709011	TRIAL	n/a	n/a	n/a	-999	1	[0, 0, 0]	n/a	FR1	1	R1334T
709.686	0.0	711592	WAITING_END	n/a	n/a	n/a	-999	1	[0, 0, 0]	n/a	FR1	1	R1334T
709.686	10.429	711592	COUNTDOWN_START	n/a	n/a	n/a	-999	1	[0, 0, 0]	n/a	FR1	1	R1334T
720.115	0.0	722021	COUNTDOWN_END	n/a	n/a	n/a	-999	1	[0, 0, 0]	n/a	FR1	1	R1334T
720.115	1.122	722021	ORIENT_START	n/a	n/a	n/a	-999	1	[0, 0, 0]	n/a	FR1	1	R1334T
721.237	0.0	723143	ORIENT_END	n/a	n/a	n/a	-999	1	[0, 0, 0]	n/a	FR1	1	R1334T
721.237	0.882	723143	ENCODING_START	n/a	n/a	n/a	-999	1	[0, 0, 0]	n/a	FR1	1	R1334T
722.119	1.636	724025	WORD	n/a	wordpools/wordpool_EN.txt	MAIL	1	1	[0, 0, 0]	n/a	FR1	1	R1334T
723.755	0.858	725661	WORD_OFF	n/a	n/a	MAIL	1	1	[0, 0, 0]	n/a	FR1	1	R1334T
724.613	1.625	726519	WORD	n/a	wordpools/wordpool_EN.txt	BLOOM	2	1	[0, 0, 0]	n/a	FR1	1	R1334T
726.238	1.079	728144	WORD_OFF	n/a	n/a	BLOOM	2	1	[0, 0, 0]	n/a	FR1	1	R1334T
727.317	1.621	729223	WORD	n/a	wordpools/wordpool_EN.txt	CART	3	1	[0, 0, 0]	n/a	FR1	1	R1334T
728.938	1.133	730844	WORD_OFF	n/a	n/a	CART	3	1	[0, 0, 0]	n/a	FR1	1	R1334T
730.071	1.619	731977	WORD	n/a	wordpools/wordpool_EN.txt	TAIL	4	1	[0, 0, 0]	n/a	FR1	1	R1334T
731.69	1.14	733595	WORD_OFF	n/a	n/a	TAIL	4	1	[0, 0, 0]	n/a	FR1	1	R1334T
732.83	1.627	734735	WORD	n/a	wordpools/wordpool_EN.txt	CORD	5	1	[0, 0, 0]	n/a	FR1	1	R1334T
734.457	0.793	736362	WORD_OFF	n/a	n/a	CORD	5	1	[0, 0, 0]	n/a	FR1	1	R1334T
735.25	1.623	737155	WORD	n/a	wordpools/wordpool_EN.txt	PLANT	6	1	[0, 0, 0]	n/a	FR1	1	R1334T
736.873	1.109	738778	WORD_OFF	n/a	n/a	PLANT	6	1	[0, 0, 0]	n/a	FR1	1	R1334T
737.982	1.626	739887	WORD	n/a	wordpools/wordpool_EN.txt	CROW	7	1	[0, 0, 0]	n/a	FR1	1	R1334T
739.608	1.144	741513	WORD_OFF	n/a	n/a	CROW	7	1	[0, 0, 0]	n/a	FR1	1	R1334T
740.752	1.623	742657	WORD	n/a	wordpools/wordpool_EN.txt	FOOD	8	1	[0, 0, 0]	n/a	FR1	1	R1334T
742.375	0.923	744280	WORD_OFF	n/a	n/a	FOOD	8	1	[0, 0, 0]	n/a	FR1	1	R1334T
743.298	1.627	745203	WORD	n/a	wordpools/wordpool_EN.txt	CLOTH	9	1	[0, 0, 0]	n/a	FR1	1	R1334T
744.925	0.848	746830	WORD_OFF	n/a	n/a	CLOTH	9	1	[0, 0, 0]	n/a	FR1	1	R1334T
745.773	1.636	747678	WORD	n/a	wordpools/wordpool_EN.txt	HOLE	10	1	[0, 0, 0]	n/a	FR1	1	R1334T
747.409	0.793	749314	WORD_OFF	n/a	n/a	HOLE	10	1	[0, 0, 0]	n/a	FR1	1	R1334T
748.202	1.623	750107	WORD	n/a	wordpools/wordpool_EN.txt	JUDGE	11	1	[0, 0, 0]	n/a	FR1	1	R1334T
749.825	0.942	751730	WORD_OFF	n/a	n/a	JUDGE	11	1	[0, 0, 0]	n/a	FR1	1	R1334T
750.767	1.61	752672	WORD	n/a	wordpools/wordpool_EN.txt	BATH	12	1	[0, 0, 0]	n/a	FR1	1	R1334T
752.377	0.0	754282	WORD_OFF	n/a	n/a	BATH	12	1	[0, 0, 0]	n/a	FR1	1	R1334T
752.377	0.0	754282	ENCODING_END	n/a	n/a	n/a	-999	1	[0, 0, 0]	n/a	FR1	1	R1334T
752.377	0.001	754282	DISTRACT_START	n/a	n/a	n/a	-999	1	[0, 0, 0]	n/a	FR1	1	R1334T
752.378	0.015	754283	START	n/a	n/a	n/a	-999	1	[-999, -999, -999]	n/a	FR1	1	R1334T
752.393	4.817	754298	PROB	4.817	n/a	n/a	-999	1	[3, 2, 9]	14	FR1	1	R1334T
757.21	7.885	759114	PROB	7.885	n/a	n/a	-999	1	[9, 6, 8]	23	FR1	1	R1334T
765.095	3.85	766999	PROB	3.85	n/a	n/a	-999	1	[1, 8, 9]	18	FR1	1	R1334T
768.945	3.118	770849	PROB	3.118	n/a	n/a	-999	1	[4, 1, 1]	6	FR1	1	R1334T
772.063	5.839	773967	PROB	5.839	n/a	n/a	-999	1	[3, 5, 6]	14	FR1	1	R1334T
777.902	0.012	779805	STOP	n/a	n/a	n/a	-999	1	[-999, -999, -999]	n/a	FR1	1	R1334T
777.914	0.614	779817	DISTRACT_END	n/a	n/a	n/a	-999	1	[0, 0, 0]	n/a	FR1	1	R1334T
778.528	1.686	780431	RETRIEVAL_ORIENT_START	n/a	n/a	n/a	-999	1	[0, 0, 0]	n/a	FR1	1	R1334T
780.214	0.001	782117	RETRIEVAL_ORIENT_END	n/a	n/a	n/a	-999	1	[0, 0, 0]	n/a	FR1	1	R1334T
780.215	0.774	782118	REC_START	n/a	n/a	n/a	-999	1	[0, 0, 0]	n/a	FR1	1	R1334T
780.989	4.423	782892	REC_WORD	4.423	n/a	BLOOM	2	1	[0, 0, 0]	n/a	FR1	1	R1334T
785.412	1.161	787315	REC_WORD	1.161	n/a	CROW	7	1	[0, 0, 0]	n/a	FR1	1	R1334T
786.573	4.476	788476	REC_WORD	4.476	n/a	FOOD	8	1	[0, 0, 0]	n/a	FR1	1	R1334T
791.049	4.575	792952	REC_WORD	4.575	n/a	POLE	-999	1	[0, 0, 0]	n/a	FR1	1	R1334T
795.624	9.4	797527	REC_WORD	9.4	n/a	COTTON	-999	1	[0, 0, 0]	n/a	FR1	1	R1334T
805.024	5.203	806926	REC_WORD	5.203	n/a	PLANT	6	1	[0, 0, 0]	n/a	FR1	1	R1334T
810.227	0.0	812129	REC_END	n/a	n/a	n/a	-999	1	[0, 0, 0]	n/a	FR1	1	R1334T
810.227	0.016	812129	TRIAL_END	n/a	n/a	n/a	-999	1	[0, 0, 0]	n/a	FR1	1	R1334T
810.243	0.0	812145	WAITING_START	n/a	n/a	n/a	-999	2	[0, 0, 0]	n/a	FR1	1	R1334T
810.243	0.0	812145	TRIAL_START	n/a	n/a	n/a	-999	2	[0, 0, 0]	n/a	FR1	1	R1334T
810.243	2.777	812145	TRIAL	n/a	n/a	n/a	-999	2	[0, 0, 0]	n/a	FR1	1	R1334T
813.02	0.001	814922	WAITING_END	n/a	n/a	n/a	-999	2	[0, 0, 0]	n/a	FR1	1	R1334T
813.021	10.428	814923	COUNTDOWN_START	n/a	n/a	n/a	-999	2	[0, 0, 0]	n/a	FR1	1	R1334T
823.449	0.0	825350	COUNTDOWN_END	n/a	n/a	n/a	-999	2	[0, 0, 0]	n/a	FR1	1	R1334T
823.449	1.074	825350	ORIENT_START	n/a	n/a	n/a	-999	2	[0, 0, 0]	n/a	FR1	1	R1334T
824.523	0.001	826424	ORIENT_END	n/a	n/a	n/a	-999	2	[0, 0, 0]	n/a	FR1	1	R1334T
824.524	0.924	826425	ENCODING_START	n/a	n/a	n/a	-999	2	[0, 0, 0]	n/a	FR1	1	R1334T
825.448	1.625	827349	WORD	n/a	wordpools/wordpool_EN.txt	SHELL	1	2	[0, 0, 0]	n/a	FR1	1	R1334T
827.073	0.906	828974	WORD_OFF	n/a	n/a	SHELL	1	2	[0, 0, 0]	n/a	FR1	1	R1334T
827.979	1.612	829880	WORD	n/a	wordpools/wordpool_EN.txt	BEAN	2	2	[0, 0, 0]	n/a	FR1	1	R1334T
829.591	0.832	831492	WORD_OFF	n/a	n/a	BEAN	2	2	[0, 0, 0]	n/a	FR1	1	R1334T
830.423	1.634	832324	WORD	n/a	wordpools/wordpool_EN.txt	ROOM	3	2	[0, 0, 0]	n/a	FR1	1	R1334T
832.057	0.998	833958	WORD_OFF	n/a	n/a	ROOM	3	2	[0, 0, 0]	n/a	FR1	1	R1334T
833.055	1.637	834956	WORD	n/a	wordpools/wordpool_EN.txt	STOOL	4	2	[0, 0, 0]	n/a	FR1	1	R1334T
834.692	0.787	836593	WORD_OFF	n/a	n/a	STOOL	4	2	[0, 0, 0]	n/a	FR1	1	R1334T
835.479	1.629	837380	WORD	n/a	wordpools/wordpool_EN.txt	EEL	5	2	[0, 0, 0]	n/a	FR1	1	R1334T
837.108	1.062	839009	WORD_OFF	n/a	n/a	EEL	5	2	[0, 0, 0]	n/a	FR1	1	R1334T
838.17	1.622	840071	WORD	n/a	wordpools/wordpool_EN.txt	POND	6	2	[0, 0, 0]	n/a	FR1	1	R1334T
839.792	0.986	841693	WORD_OFF	n/a	n/a	POND	6	2	[0, 0, 0]	n/a	FR1	1	R1334T
840.778	1.615	842679	WORD	n/a	wordpools/wordpool_EN.txt	FOX	7	2	[0, 0, 0]	n/a	FR1	1	R1334T
842.393	1.146	844293	WORD_OFF	n/a	n/a	FOX	7	2	[0, 0, 0]	n/a	FR1	1	R1334T
843.539	1.62	845439	WORD	n/a	wordpools/wordpool_EN.txt	SHARK	8	2	[0, 0, 0]	n/a	FR1	1	R1334T
845.159	1.078	847059	WORD_OFF	n/a	n/a	SHARK	8	2	[0, 0, 0]	n/a	FR1	1	R1334T
846.237	1.623	848137	WORD	n/a	wordpools/wordpool_EN.txt	SHRIMP	9	2	[0, 0, 0]	n/a	FR1	1	R1334T
847.86	0.971	849760	WORD_OFF	n/a	n/a	SHRIMP	9	2	[0, 0, 0]	n/a	FR1	1	R1334T
848.831	1.613	850731	WORD	n/a	wordpools/wordpool_EN.txt	BEACH	10	2	[0, 0, 0]	n/a	FR1	1	R1334T
850.444	1.13	852344	WORD_OFF	n/a	n/a	BEACH	10	2	[0, 0, 0]	n/a	FR1	1	R1334T
851.574	1.637	853474	WORD	n/a	wordpools/wordpool_EN.txt	TOAD	11	2	[0, 0, 0]	n/a	FR1	1	R1334T
853.211	0.905	855111	WORD_OFF	n/a	n/a	TOAD	11	2	[0, 0, 0]	n/a	FR1	1	R1334T
854.116	1.63	856016	WORD	n/a	wordpools/wordpool_EN.txt	BLUSH	12	2	[0, 0, 0]	n/a	FR1	1	R1334T
855.746	0.0	857646	WORD_OFF	n/a	n/a	BLUSH	12	2	[0, 0, 0]	n/a	FR1	1	R1334T
855.746	0.0	857646	ENCODING_END	n/a	n/a	n/a	-999	2	[0, 0, 0]	n/a	FR1	1	R1334T
855.746	0.001	857646	DISTRACT_START	n/a	n/a	n/a	-999	2	[0, 0, 0]	n/a	FR1	1	R1334T
855.747	0.015	857647	START	n/a	n/a	n/a	-999	2	[-999, -999, -999]	n/a	FR1	1	R1334T
855.762	4.067	857662	PROB	4.067	n/a	n/a	-999	2	[9, 8, 1]	18	FR1	1	R1334T
859.829	4.184	861729	PROB	4.184	n/a	n/a	-999	2	[2, 2, 4]	8	FR1	1	R1334T
864.013	3.735	865912	PROB	3.735	n/a	n/a	-999	2	[6, 1, 6]	13	FR1	1	R1334T
867.748	4.634	869647	PROB	4.634	n/a	n/a	-999	2	[3, 9, 7]	19	FR1	1	R1334T
872.382	4.431	874281	PROB	4.431	n/a	n/a	-999	2	[5, 4, 1]	10	FR1	1	R1334T
876.813	0.019	878712	STOP	n/a	n/a	n/a	-999	2	[-999, -999, -999]	n/a	FR1	1	R1334T
876.832	0.541	878731	DISTRACT_END	n/a	n/a	n/a	-999	2	[0, 0, 0]	n/a	FR1	1	R1334T
877.373	1.643	879272	RETRIEVAL_ORIENT_START	n/a	n/a	n/a	-999	2	[0, 0, 0]	n/a	FR1	1	R1334T
879.016	0.0	880915	REC_START	n/a	n/a	n/a	-999	2	[0, 0, 0]	n/a	FR1	1	R1334T
879.016	1.005	880915	RETRIEVAL_ORIENT_END	n/a	n/a	n/a	-999	2	[0, 0, 0]	n/a	FR1	1	R1334T
880.021	1.19	881920	REC_WORD	1.19	n/a	SHARK	8	2	[0, 0, 0]	n/a	FR1	1	R1334T
881.211	1.684	883110	REC_WORD	1.684	n/a	EEL	5	2	[0, 0, 0]	n/a	FR1	1	R1334T
882.895	6.327	884794	REC_WORD_VV	6.327	n/a	<>	-999	2	[0, 0, 0]	n/a	FR1	1	R1334T
889.222	1.304	891120	REC_WORD_VV	1.304	n/a	<>	-999	2	[0, 0, 0]	n/a	FR1	1	R1334T
890.526	3.005	892424	REC_WORD_VV	3.005	n/a	<>	-999	2	[0, 0, 0]	n/a	FR1	1	R1334T
893.531	5.039	895429	REC_WORD_VV	5.039	n/a	<>	-999	2	[0, 0, 0]	n/a	FR1	1	R1334T
898.57	0.998	900468	REC_WORD_VV	0.998	n/a	<>	-999	2	[0, 0, 0]	n/a	FR1	1	R1334T
899.568	1.0	901466	REC_WORD_VV	1.0	n/a	<>	-999	2	[0, 0, 0]	n/a	FR1	1	R1334T
900.568	6.657	902466	REC_WORD_VV	6.657	n/a	<>	-999	2	[0, 0, 0]	n/a	FR1	1	R1334T
907.225	1.0	909123	REC_WORD_VV	1.0	n/a	<>	-999	2	[0, 0, 0]	n/a	FR1	1	R1334T
908.225	0.804	910122	REC_WORD_VV	0.804	n/a	<>	-999	2	[0, 0, 0]	n/a	FR1	1	R1334T
909.029	0.0	910926	REC_END	n/a	n/a	n/a	-999	2	[0, 0, 0]	n/a	FR1	1	R1334T
909.029	0.017	910926	TRIAL_END	n/a	n/a	n/a	-999	2	[0, 0, 0]	n/a	FR1	1	R1334T
909.046	0.0	910943	TRIAL_START	n/a	n/a	n/a	-999	3	[0, 0, 0]	n/a	FR1	1	R1334T
909.046	0.0	910943	TRIAL	n/a	n/a	n/a	-999	3	[0, 0, 0]	n/a	FR1	1	R1334T
909.046	196.478	910943	WAITING_START	n/a	n/a	n/a	-999	3	[0, 0, 0]	n/a	FR1	1	R1334T
1105.524	0.001	1107413	WAITING_END	n/a	n/a	n/a	-999	3	[0, 0, 0]	n/a	FR1	1	R1334T
1105.525	10.428	1107414	COUNTDOWN_START	n/a	n/a	n/a	-999	3	[0, 0, 0]	n/a	FR1	1	R1334T
1115.953	0.0	1117841	ORIENT_START	n/a	n/a	n/a	-999	3	[0, 0, 0]	n/a	FR1	1	R1334T
1115.953	1.239	1117841	COUNTDOWN_END	n/a	n/a	n/a	-999	3	[0, 0, 0]	n/a	FR1	1	R1334T
1117.192	0.001	1119080	ORIENT_END	n/a	n/a	n/a	-999	3	[0, 0, 0]	n/a	FR1	1	R1334T
1117.193	1.126	1119081	ENCODING_START	n/a	n/a	n/a	-999	3	[0, 0, 0]	n/a	FR1	1	R1334T
1118.319	1.624	1120207	WORD	n/a	wordpools/wordpool_EN.txt	CAT	1	3	[0, 0, 0]	n/a	FR1	1	R1334T
1119.943	0.821	1121831	WORD_OFF	n/a	n/a	CAT	1	3	[0, 0, 0]	n/a	FR1	1	R1334T
1120.764	1.613	1122652	WORD	n/a	wordpools/wordpool_EN.txt	THREAD	2	3	[0, 0, 0]	n/a	FR1	1	R1334T
1122.377	1.068	1124265	WORD_OFF	n/a	n/a	THREAD	2	3	[0, 0, 0]	n/a	FR1	1	R1334T
1123.445	1.632	1125333	WORD	n/a	wordpools/wordpool_EN.txt	CAPE	3	3	[0, 0, 0]	n/a	FR1	1	R1334T
1125.077	1.049	1126965	WORD_OFF	n/a	n/a	CAPE	3	3	[0, 0, 0]	n/a	FR1	1	R1334T
1126.126	1.636	1128014	WORD	n/a	wordpools/wordpool_EN.txt	PIE	4	3	[0, 0, 0]	n/a	FR1	1	R1334T
1127.762	0.901	1129650	WORD_OFF	n/a	n/a	PIE	4	3	[0, 0, 0]	n/a	FR1	1	R1334T
1128.663	1.633	1130550	WORD	n/a	wordpools/wordpool_EN.txt	TEA	5	3	[0, 0, 0]	n/a	FR1	1	R1334T
1130.296	1.114	1132183	WORD_OFF	n/a	n/a	TEA	5	3	[0, 0, 0]	n/a	FR1	1	R1334T
1131.41	1.635	1133297	WORD	n/a	wordpools/wordpool_EN.txt	DOLL	6	3	[0, 0, 0]	n/a	FR1	1	R1334T
1133.045	1.113	1134932	WORD_OFF	n/a	n/a	DOLL	6	3	[0, 0, 0]	n/a	FR1	1	R1334T
1134.158	1.621	1136045	WORD	n/a	wordpools/wordpool_EN.txt	SEED	7	3	[0, 0, 0]	n/a	FR1	1	R1334T
1135.779	0.763	1137666	WORD_OFF	n/a	n/a	SEED	7	3	[0, 0, 0]	n/a	FR1	1	R1334T
1136.542	1.621	1138429	WORD	n/a	wordpools/wordpool_EN.txt	VASE	8	3	[0, 0, 0]	n/a	FR1	1	R1334T
1138.163	1.07	1140050	WORD_OFF	n/a	n/a	VASE	8	3	[0, 0, 0]	n/a	FR1	1	R1334T
1139.233	1.63	1141120	WORD	n/a	wordpools/wordpool_EN.txt	SMOKE	9	3	[0, 0, 0]	n/a	FR1	1	R1334T
1140.863	0.94	1142750	WORD_OFF	n/a	n/a	SMOKE	9	3	[0, 0, 0]	n/a	FR1	1	R1334T
1141.803	1.628	1143690	WORD	n/a	wordpools/wordpool_EN.txt	PIN	10	3	[0, 0, 0]	n/a	FR1	1	R1334T
1143.431	1.1	1145318	WORD_OFF	n/a	n/a	PIN	10	3	[0, 0, 0]	n/a	FR1	1	R1334T
1144.531	1.633	1146418	WORD	n/a	wordpools/wordpool_EN.txt	MAP	11	3	[0, 0, 0]	n/a	FR1	1	R1334T
1146.164	1.137	1148051	WORD_OFF	n/a	n/a	MAP	11	3	[0, 0, 0]	n/a	FR1	1	R1334T
1147.301	1.63	1149188	WORD	n/a	wordpools/wordpool_EN.txt	SLIME	12	3	[0, 0, 0]	n/a	FR1	1	R1334T
1148.931	0.001	1150818	WORD_OFF	n/a	n/a	SLIME	12	3	[0, 0, 0]	n/a	FR1	1	R1334T
1148.932	0.0	1150819	DISTRACT_START	n/a	n/a	n/a	-999	3	[0, 0, 0]	n/a	FR1	1	R1334T
1148.932	0.0	1150819	ENCODING_END	n/a	n/a	n/a	-999	3	[0, 0, 0]	n/a	FR1	1	R1334T
1148.932	0.016	1150819	START	n/a	n/a	n/a	-999	3	[-999, -999, -999]	n/a	FR1	1	R1334T
1148.948	5.585	1150835	PROB	5.585	n/a	n/a	-999	3	[2, 2, 6]	10	FR1	1	R1334T
1154.533	3.117	1156419	PROB	3.117	n/a	n/a	-999	3	[3, 7, 3]	13	FR1	1	R1334T
1157.65	2.768	1159536	PROB	2.768	n/a	n/a	-999	3	[1, 3, 7]	11	FR1	1	R1334T
1160.418	4.383	1162304	PROB	4.383	n/a	n/a	-999	3	[9, 4, 9]	22	FR1	1	R1334T
1164.801	7.573	1166687	PROB	7.573	n/a	n/a	-999	3	[9, 5, 7]	21	FR1	1	R1334T
1172.374	0.012	1174260	STOP	n/a	n/a	n/a	-999	3	[-999, -999, -999]	n/a	FR1	1	R1334T
1172.386	0.614	1174272	DISTRACT_END	n/a	n/a	n/a	-999	3	[0, 0, 0]	n/a	FR1	1	R1334T
1173.0	1.554	1174885	RETRIEVAL_ORIENT_START	n/a	n/a	n/a	-999	3	[0, 0, 0]	n/a	FR1	1	R1334T
1174.554	0.0	1176439	RETRIEVAL_ORIENT_END	n/a	n/a	n/a	-999	3	[0, 0, 0]	n/a	FR1	1	R1334T
1174.554	0.568	1176439	REC_START	n/a	n/a	n/a	-999	3	[0, 0, 0]	n/a	FR1	1	R1334T
1175.122	1.744	1177007	REC_WORD	1.744	n/a	SLIME	12	3	[0, 0, 0]	n/a	FR1	1	R1334T
1176.866	8.016	1178751	REC_WORD	8.016	n/a	CAT	1	3	[0, 0, 0]	n/a	FR1	1	R1334T
1184.882	11.388	1186767	REC_WORD	11.388	n/a	EEL	-999	3	[0, 0, 0]	n/a	FR1	1	R1334T
1196.27	8.296	1198154	REC_WORD	8.296	n/a	SINK	-999	3	[0, 0, 0]	n/a	FR1	1	R1334T
1204.566	0.001	1206450	REC_END	n/a	n/a	n/a	-999	3	[0, 0, 0]	n/a	FR1	1	R1334T
1204.567	0.014	1206451	TRIAL_END	n/a	n/a	n/a	-999	3	[0, 0, 0]	n/a	FR1	1	R1334T
1204.581	0.0	1206465	TRIAL_START	n/a	n/a	n/a	-999	4	[0, 0, 0]	n/a	FR1	1	R1334T
1204.581	0.0	1206465	TRIAL	n/a	n/a	n/a	-999	4	[0, 0, 0]	n/a	FR1	1	R1334T
1204.581	8.679	1206465	WAITING_START	n/a	n/a	n/a	-999	4	[0, 0, 0]	n/a	FR1	1	R1334T
1213.26	0.0	1215144	WAITING_END	n/a	n/a	n/a	-999	4	[0, 0, 0]	n/a	FR1	1	R1334T
1213.26	10.428	1215144	COUNTDOWN_START	n/a	n/a	n/a	-999	4	[0, 0, 0]	n/a	FR1	1	R1334T
1223.688	0.001	1225571	COUNTDOWN_END	n/a	n/a	n/a	-999	4	[0, 0, 0]	n/a	FR1	1	R1334T
1223.689	1.239	1225572	ORIENT_START	n/a	n/a	n/a	-999	4	[0, 0, 0]	n/a	FR1	1	R1334T
1224.928	0.001	1226811	ORIENT_END	n/a	n/a	n/a	-999	4	[0, 0, 0]	n/a	FR1	1	R1334T
1224.929	0.834	1226812	ENCODING_START	n/a	n/a	n/a	-999	4	[0, 0, 0]	n/a	FR1	1	R1334T
1225.763	1.617	1227646	WORD	n/a	wordpools/wordpool_EN.txt	RIB	1	4	[0, 0, 0]	n/a	FR1	1	R1334T
1227.38	0.861	1229263	WORD_OFF	n/a	n/a	RIB	1	4	[0, 0, 0]	n/a	FR1	1	R1334T
1228.241	1.638	1230124	WORD	n/a	wordpools/wordpool_EN.txt	TRAY	2	4	[0, 0, 0]	n/a	FR1	1	R1334T
1229.879	1.044	1231762	WORD_OFF	n/a	n/a	TRAY	2	4	[0, 0, 0]	n/a	FR1	1	R1334T
1230.923	1.608	1232806	WORD	n/a	wordpools/wordpool_EN.txt	FORT	3	4	[0, 0, 0]	n/a	FR1	1	R1334T
1232.531	0.871	1234414	WORD_OFF	n/a	n/a	FORT	3	4	[0, 0, 0]	n/a	FR1	1	R1334T
1233.402	1.628	1235285	WORD	n/a	wordpools/wordpool_EN.txt	SPARK	4	4	[0, 0, 0]	n/a	FR1	1	R1334T
1235.03	0.86	1236913	WORD_OFF	n/a	n/a	SPARK	4	4	[0, 0, 0]	n/a	FR1	1	R1334T
1235.89	1.625	1237773	WORD	n/a	wordpools/wordpool_EN.txt	BOMB	5	4	[0, 0, 0]	n/a	FR1	1	R1334T
1237.515	0.97	1239398	WORD_OFF	n/a	n/a	BOMB	5	4	[0, 0, 0]	n/a	FR1	1	R1334T
1238.485	1.63	1240368	WORD	n/a	wordpools/wordpool_EN.txt	PEAR	6	4	[0, 0, 0]	n/a	FR1	1	R1334T
1240.115	0.774	1241997	WORD_OFF	n/a	n/a	PEAR	6	4	[0, 0, 0]	n/a	FR1	1	R1334T
1240.889	1.627	1242771	WORD	n/a	wordpools/wordpool_EN.txt	TANK	7	4	[0, 0, 0]	n/a	FR1	1	R1334T
1242.516	1.018	1244398	WORD_OFF	n/a	n/a	TANK	7	4	[0, 0, 0]	n/a	FR1	1	R1334T
1243.534	1.631	1245416	WORD	n/a	wordpools/wordpool_EN.txt	SALT	8	4	[0, 0, 0]	n/a	FR1	1	R1334T
1245.165	0.864	1247047	WORD_OFF	n/a	n/a	SALT	8	4	[0, 0, 0]	n/a	FR1	1	R1334T
1246.029	1.638	1247911	WORD	n/a	wordpools/wordpool_EN.txt	WAND	9	4	[0, 0, 0]	n/a	FR1	1	R1334T
1247.667	0.927	1249549	WORD_OFF	n/a	n/a	WAND	9	4	[0, 0, 0]	n/a	FR1	1	R1334T
1248.594	1.622	1250476	WORD	n/a	wordpools/wordpool_EN.txt	CLIFF	10	4	[0, 0, 0]	n/a	FR1	1	R1334T
1250.216	0.806	1252098	WORD_OFF	n/a	n/a	CLIFF	10	4	[0, 0, 0]	n/a	FR1	1	R1334T
1251.022	1.612	1252904	WORD	n/a	wordpools/wordpool_EN.txt	PURSE	11	4	[0, 0, 0]	n/a	FR1	1	R1334T
1252.634	0.837	1254516	WORD_OFF	n/a	n/a	PURSE	11	4	[0, 0, 0]	n/a	FR1	1	R1334T
1253.471	1.629	1255353	WORD	n/a	wordpools/wordpool_EN.txt	NEST	12	4	[0, 0, 0]	n/a	FR1	1	R1334T
1255.1	0.001	1256982	WORD_OFF	n/a	n/a	NEST	12	4	[0, 0, 0]	n/a	FR1	1	R1334T
1255.101	0.0	1256983	ENCODING_END	n/a	n/a	n/a	-999	4	[0, 0, 0]	n/a	FR1	1	R1334T
1255.101	0.0	1256983	DISTRACT_START	n/a	n/a	n/a	-999	4	[0, 0, 0]	n/a	FR1	1	R1334T
1255.101	0.016	1256983	START	n/a	n/a	n/a	-999	4	[-999, -999, -999]	n/a	FR1	1	R1334T
1255.117	4.084	1256999	PROB	4.084	n/a	n/a	-999	4	[6, 3, 9]	18	FR1	1	R1334T
1259.201	3.085	1261083	PROB	3.085	n/a	n/a	-999	4	[9, 1, 3]	13	FR1	1	R1334T
1262.286	3.566	1264167	PROB	3.566	n/a	n/a	-999	4	[8, 2, 8]	18	FR1	1	R1334T
1265.852	3.368	1267733	PROB	3.368	n/a	n/a	-999	4	[8, 3, 5]	16	FR1	1	R1334T
1269.22	2.75	1271101	PROB	2.75	n/a	n/a	-999	4	[2, 6, 4]	12	FR1	1	R1334T
1271.97	3.131	1273851	PROB	3.131	n/a	n/a	-999	4	[3, 7, 9]	19	FR1	1	R1334T
1275.101	0.02	1276982	STOP	n/a	n/a	n/a	-999	4	[-999, -999, -999]	n/a	FR1	1	R1334T
1275.121	0.676	1277002	DISTRACT_END	n/a	n/a	n/a	-999	4	[0, 0, 0]	n/a	FR1	1	R1334T
1275.797	1.659	1277678	RETRIEVAL_ORIENT_START	n/a	n/a	n/a	-999	4	[0, 0, 0]	n/a	FR1	1	R1334T
1277.456	0.0	1279337	RETRIEVAL_ORIENT_END	n/a	n/a	n/a	-999	4	[0, 0, 0]	n/a	FR1	1	R1334T
1277.456	0.174	1279337	REC_START	n/a	n/a	n/a	-999	4	[0, 0, 0]	n/a	FR1	1	R1334T
1277.63	1.158	1279511	REC_WORD	1.158	n/a	FORT	3	4	[0, 0, 0]	n/a	FR1	1	R1334T
1278.788	1.607	1280669	REC_WORD	1.607	n/a	SPARK	4	4	[0, 0, 0]	n/a	FR1	1	R1334T
1280.395	1.495	1282276	REC_WORD	1.495	n/a	BOMB	5	4	[0, 0, 0]	n/a	FR1	1	R1334T
1281.89	1.515	1283771	REC_WORD	1.515	n/a	NEST	12	4	[0, 0, 0]	n/a	FR1	1	R1334T
1283.405	1.637	1285285	REC_WORD	1.637	n/a	RIB	1	4	[0, 0, 0]	n/a	FR1	1	R1334T
1285.042	9.883	1286922	REC_WORD	9.883	n/a	TRAY	2	4	[0, 0, 0]	n/a	FR1	1	R1334T
1294.925	12.543	1296805	REC_WORD	12.543	n/a	SALT	8	4	[0, 0, 0]	n/a	FR1	1	R1334T
1307.468	0.0	1309347	REC_END	n/a	n/a	n/a	-999	4	[0, 0, 0]	n/a	FR1	1	R1334T
1307.468	0.014	1309347	TRIAL_END	n/a	n/a	n/a	-999	4	[0, 0, 0]	n/a	FR1	1	R1334T
1307.482	0.0	1309361	TRIAL_START	n/a	n/a	n/a	-999	5	[0, 0, 0]	n/a	FR1	1	R1334T
1307.482	0.001	1309361	TRIAL	n/a	n/a	n/a	-999	5	[0, 0, 0]	n/a	FR1	1	R1334T
1307.483	1.862	1309362	WAITING_START	n/a	n/a	n/a	-999	5	[0, 0, 0]	n/a	FR1	1	R1334T
1309.345	0.0	1311224	WAITING_END	n/a	n/a	n/a	-999	5	[0, 0, 0]	n/a	FR1	1	R1334T
1309.345	10.429	1311224	COUNTDOWN_START	n/a	n/a	n/a	-999	5	[0, 0, 0]	n/a	FR1	1	R1334T
1319.774	0.0	1321653	ORIENT_START	n/a	n/a	n/a	-999	5	[0, 0, 0]	n/a	FR1	1	R1334T
1319.774	1.222	1321653	COUNTDOWN_END	n/a	n/a	n/a	-999	5	[0, 0, 0]	n/a	FR1	1	R1334T
1320.996	0.0	1322875	ORIENT_END	n/a	n/a	n/a	-999	5	[0, 0, 0]	n/a	FR1	1	R1334T
1320.996	1.124	1322875	ENCODING_START	n/a	n/a	n/a	-999	5	[0, 0, 0]	n/a	FR1	1	R1334T
1322.12	1.61	1323999	WORD	n/a	wordpools/wordpool_EN.txt	ROPE	1	5	[0, 0, 0]	n/a	FR1	1	R1334T
1323.73	0.918	1325609	WORD_OFF	n/a	n/a	ROPE	1	5	[0, 0, 0]	n/a	FR1	1	R1334T
1324.648	1.632	1326527	WORD	n/a	wordpools/wordpool_EN.txt	KITE	2	5	[0, 0, 0]	n/a	FR1	1	R1334T
1326.28	1.04	1328159	WORD_OFF	n/a	n/a	KITE	2	5	[0, 0, 0]	n/a	FR1	1	R1334T
1327.32	1.627	1329198	WORD	n/a	wordpools/wordpool_EN.txt	FLOOR	3	5	[0, 0, 0]	n/a	FR1	1	R1334T
1328.947	1.091	1330825	WORD_OFF	n/a	n/a	FLOOR	3	5	[0, 0, 0]	n/a	FR1	1	R1334T
1330.038	1.627	1331916	WORD	n/a	wordpools/wordpool_EN.txt	LAWN	4	5	[0, 0, 0]	n/a	FR1	1	R1334T
1331.665	0.855	1333543	WORD_OFF	n/a	n/a	LAWN	4	5	[0, 0, 0]	n/a	FR1	1	R1334T
1332.52	1.628	1334398	WORD	n/a	wordpools/wordpool_EN.txt	SQUARE	5	5	[0, 0, 0]	n/a	FR1	1	R1334T
1334.148	0.971	1336026	WORD_OFF	n/a	n/a	SQUARE	5	5	[0, 0, 0]	n/a	FR1	1	R1334T
1335.119	1.631	1336997	WORD	n/a	wordpools/wordpool_EN.txt	TRUCK	6	5	[0, 0, 0]	n/a	FR1	1	R1334T
1336.75	0.999	1338628	WORD_OFF	n/a	n/a	TRUCK	6	5	[0, 0, 0]	n/a	FR1	1	R1334T
1337.749	1.635	1339627	WORD	n/a	wordpools/wordpool_EN.txt	SKY	7	5	[0, 0, 0]	n/a	FR1	1	R1334T
1339.384	0.766	1341262	WORD_OFF	n/a	n/a	SKY	7	5	[0, 0, 0]	n/a	FR1	1	R1334T
1340.15	1.633	1342028	WORD	n/a	wordpools/wordpool_EN.txt	CAR	8	5	[0, 0, 0]	n/a	FR1	1	R1334T
1341.783	0.917	1343661	WORD_OFF	n/a	n/a	CAR	8	5	[0, 0, 0]	n/a	FR1	1	R1334T
1342.7	1.634	1344578	WORD	n/a	wordpools/wordpool_EN.txt	SMILE	9	5	[0, 0, 0]	n/a	FR1	1	R1334T
1344.334	0.944	1346212	WORD_OFF	n/a	n/a	SMILE	9	5	[0, 0, 0]	n/a	FR1	1	R1334T
1345.278	1.623	1347156	WORD	n/a	wordpools/wordpool_EN.txt	BOWL	10	5	[0, 0, 0]	n/a	FR1	1	R1334T
1346.901	1.089	1348779	WORD_OFF	n/a	n/a	BOWL	10	5	[0, 0, 0]	n/a	FR1	1	R1334T
1347.99	1.612	1349868	WORD	n/a	wordpools/wordpool_EN.txt	GRAPE	11	5	[0, 0, 0]	n/a	FR1	1	R1334T
1349.602	0.987	1351479	WORD_OFF	n/a	n/a	GRAPE	11	5	[0, 0, 0]	n/a	FR1	1	R1334T
1350.589	1.629	1352466	WORD	n/a	wordpools/wordpool_EN.txt	CHIN	12	5	[0, 0, 0]	n/a	FR1	1	R1334T
1352.218	0.001	1354095	WORD_OFF	n/a	n/a	CHIN	12	5	[0, 0, 0]	n/a	FR1	1	R1334T
1352.219	0.0	1354096	ENCODING_END	n/a	n/a	n/a	-999	5	[0, 0, 0]	n/a	FR1	1	R1334T
1352.219	0.0	1354096	DISTRACT_START	n/a	n/a	n/a	-999	5	[0, 0, 0]	n/a	FR1	1	R1334T
1352.219	0.016	1354096	START	n/a	n/a	n/a	-999	5	[-999, -999, -999]	n/a	FR1	1	R1334T
1352.235	14.27	1354112	PROB	14.27	n/a	n/a	-999	5	[9, 8, 3]	21	FR1	1	R1334T
1366.505	4.266	1368382	PROB	4.266	n/a	n/a	-999	5	[2, 3, 3]	8	FR1	1	R1334T
1370.771	3.878	1372648	PROB	3.878	n/a	n/a	-999	5	[6, 7, 1]	14	FR1	1	R1334T
1374.649	0.008	1376525	STOP	n/a	n/a	n/a	-999	5	[-999, -999, -999]	n/a	FR1	1	R1334T
1374.657	0.597	1376533	DISTRACT_END	n/a	n/a	n/a	-999	5	[0, 0, 0]	n/a	FR1	1	R1334T
1375.254	1.719	1377130	RETRIEVAL_ORIENT_START	n/a	n/a	n/a	-999	5	[0, 0, 0]	n/a	FR1	1	R1334T
1376.973	0.0	1378849	RETRIEVAL_ORIENT_END	n/a	n/a	n/a	-999	5	[0, 0, 0]	n/a	FR1	1	R1334T
1376.973	0.706	1378849	REC_START	n/a	n/a	n/a	-999	5	[0, 0, 0]	n/a	FR1	1	R1334T
1377.679	1.025	1379555	REC_WORD	1.025	n/a	KITE	2	5	[0, 0, 0]	n/a	FR1	1	R1334T
1378.704	1.188	1380580	REC_WORD	1.188	n/a	ROPE	1	5	[0, 0, 0]	n/a	FR1	1	R1334T
1379.892	2.005	1381768	REC_WORD	2.005	n/a	SQUARE	5	5	[0, 0, 0]	n/a	FR1	1	R1334T
1381.897	2.143	1383773	REC_WORD	2.143	n/a	CHIN	12	5	[0, 0, 0]	n/a	FR1	1	R1334T
1384.04	16.309	1385916	REC_WORD	16.309	n/a	SKY	7	5	[0, 0, 0]	n/a	FR1	1	R1334T
1400.349	6.635	1402224	REC_WORD	6.635	n/a	CIRCLE	-999	5	[0, 0, 0]	n/a	FR1	1	R1334T
1406.984	0.0	1408859	REC_END	n/a	n/a	n/a	-999	5	[0, 0, 0]	n/a	FR1	1	R1334T
1406.984	0.014	1408859	TRIAL_END	n/a	n/a	n/a	-999	5	[0, 0, 0]	n/a	FR1	1	R1334T
1406.998	0.001	1408873	TRIAL_START	n/a	n/a	n/a	-999	6	[0, 0, 0]	n/a	FR1	1	R1334T
1406.999	0.0	1408874	TRIAL	n/a	n/a	n/a	-999	6	[0, 0, 0]	n/a	FR1	1	R1334T
1406.999	1.779	1408874	WAITING_START	n/a	n/a	n/a	-999	6	[0, 0, 0]	n/a	FR1	1	R1334T
1408.778	0.001	1410653	WAITING_END	n/a	n/a	n/a	-999	6	[0, 0, 0]	n/a	FR1	1	R1334T
1408.779	10.428	1410654	COUNTDOWN_START	n/a	n/a	n/a	-999	6	[0, 0, 0]	n/a	FR1	1	R1334T
1419.207	0.001	1421081	COUNTDOWN_END	n/a	n/a	n/a	-999	6	[0, 0, 0]	n/a	FR1	1	R1334T
1419.208	1.24	1421082	ORIENT_START	n/a	n/a	n/a	-999	6	[0, 0, 0]	n/a	FR1	1	R1334T
1420.448	0.001	1422322	ORIENT_END	n/a	n/a	n/a	-999	6	[0, 0, 0]	n/a	FR1	1	R1334T
1420.449	0.934	1422323	ENCODING_START	n/a	n/a	n/a	-999	6	[0, 0, 0]	n/a	FR1	1	R1334T
1421.383	1.631	1423257	WORD	n/a	wordpools/wordpool_EN.txt	DESK	1	6	[0, 0, 0]	n/a	FR1	1	R1334T
1423.014	0.845	1424888	WORD_OFF	n/a	n/a	DESK	1	6	[0, 0, 0]	n/a	FR1	1	R1334T
1423.859	1.623	1425733	WORD	n/a	wordpools/wordpool_EN.txt	ARK	2	6	[0, 0, 0]	n/a	FR1	1	R1334T
1425.482	0.877	1427356	WORD_OFF	n/a	n/a	ARK	2	6	[0, 0, 0]	n/a	FR1	1	R1334T
1426.359	1.623	1428233	WORD	n/a	wordpools/wordpool_EN.txt	NET	3	6	[0, 0, 0]	n/a	FR1	1	R1334T
1427.982	1.11	1429856	WORD_OFF	n/a	n/a	NET	3	6	[0, 0, 0]	n/a	FR1	1	R1334T
1429.092	1.625	1430966	WORD	n/a	wordpools/wordpool_EN.txt	PET	4	6	[0, 0, 0]	n/a	FR1	1	R1334T
1430.717	0.995	1432591	WORD_OFF	n/a	n/a	PET	4	6	[0, 0, 0]	n/a	FR1	1	R1334T
1431.712	1.639	1433586	WORD	n/a	wordpools/wordpool_EN.txt	WORLD	5	6	[0, 0, 0]	n/a	FR1	1	R1334T
1433.351	0.846	1435225	WORD_OFF	n/a	n/a	WORLD	5	6	[0, 0, 0]	n/a	FR1	1	R1334T
1434.197	1.636	1436071	WORD	n/a	wordpools/wordpool_EN.txt	JAIL	6	6	[0, 0, 0]	n/a	FR1	1	R1334T
1435.833	1.028	1437707	WORD_OFF	n/a	n/a	JAIL	6	6	[0, 0, 0]	n/a	FR1	1	R1334T
1436.861	1.624	1438735	WORD	n/a	wordpools/wordpool_EN.txt	SWAMP	7	6	[0, 0, 0]	n/a	FR1	1	R1334T
1438.485	0.775	1440358	WORD_OFF	n/a	n/a	SWAMP	7	6	[0, 0, 0]	n/a	FR1	1	R1334T
1439.26	1.624	1441133	WORD	n/a	wordpools/wordpool_EN.txt	CUP	8	6	[0, 0, 0]	n/a	FR1	1	R1334T
1440.884	0.912	1442757	WORD_OFF	n/a	n/a	CUP	8	6	[0, 0, 0]	n/a	FR1	1	R1334T
1441.796	1.623	1443669	WORD	n/a	wordpools/wordpool_EN.txt	GLOVE	9	6	[0, 0, 0]	n/a	FR1	1	R1334T
1443.419	1.009	1445292	WORD_OFF	n/a	n/a	GLOVE	9	6	[0, 0, 0]	n/a	FR1	1	R1334T
1444.428	1.624	1446301	WORD	n/a	wordpools/wordpool_EN.txt	DIME	10	6	[0, 0, 0]	n/a	FR1	1	R1334T
1446.052	0.991	1447925	WORD_OFF	n/a	n/a	DIME	10	6	[0, 0, 0]	n/a	FR1	1	R1334T
1447.043	1.627	1448916	WORD	n/a	wordpools/wordpool_EN.txt	SCHOOL	11	6	[0, 0, 0]	n/a	FR1	1	R1334T
1448.67	0.877	1450543	WORD_OFF	n/a	n/a	SCHOOL	11	6	[0, 0, 0]	n/a	FR1	1	R1334T
1449.547	1.622	1451420	WORD	n/a	wordpools/wordpool_EN.txt	BOARD	12	6	[0, 0, 0]	n/a	FR1	1	R1334T
1451.169	0.001	1453042	WORD_OFF	n/a	n/a	BOARD	12	6	[0, 0, 0]	n/a	FR1	1	R1334T
1451.17	0.0	1453043	ENCODING_END	n/a	n/a	n/a	-999	6	[0, 0, 0]	n/a	FR1	1	R1334T
1451.17	0.001	1453043	DISTRACT_START	n/a	n/a	n/a	-999	6	[0, 0, 0]	n/a	FR1	1	R1334T
1451.171	0.015	1453044	START	n/a	n/a	n/a	-999	6	[-999, -999, -999]	n/a	FR1	1	R1334T
1451.186	3.884	1453059	PROB	3.884	n/a	n/a	-999	6	[9, 3, 6]	18	FR1	1	R1334T
1455.07	2.8	1456943	PROB	2.8	n/a	n/a	-999	6	[8, 2, 2]	12	FR1	1	R1334T
1457.87	4.436	1459743	PROB	4.436	n/a	n/a	-999	6	[6, 7, 2]	15	FR1	1	R1334T
1462.306	5.984	1464178	PROB	5.984	n/a	n/a	-999	6	[9, 7, 7]	23	FR1	1	R1334T
1468.29	3.936	1470162	PROB	3.936	n/a	n/a	-999	6	[5, 3, 2]	10	FR1	1	R1334T
1472.226	0.014	1474098	STOP	n/a	n/a	n/a	-999	6	[-999, -999, -999]	n/a	FR1	1	R1334T
1472.24	0.681	1474112	DISTRACT_END	n/a	n/a	n/a	-999	6	[0, 0, 0]	n/a	FR1	1	R1334T
1472.921	1.654	1474793	RETRIEVAL_ORIENT_START	n/a	n/a	n/a	-999	6	[0, 0, 0]	n/a	FR1	1	R1334T
1474.575	0.0	1476447	RETRIEVAL_ORIENT_END	n/a	n/a	n/a	-999	6	[0, 0, 0]	n/a	FR1	1	R1334T
1474.575	0.977	1476447	REC_START	n/a	n/a	n/a	-999	6	[0, 0, 0]	n/a	FR1	1	R1334T
1475.552	1.58	1477424	REC_WORD	1.58	n/a	DESK	1	6	[0, 0, 0]	n/a	FR1	1	R1334T
1477.132	18.025	1479004	REC_WORD	18.025	n/a	SCHOOL	11	6	[0, 0, 0]	n/a	FR1	1	R1334T
1495.157	9.43	1497028	REC_WORD	9.43	n/a	PURSE	-999	6	[0, 0, 0]	n/a	FR1	1	R1334T
1504.587	0.001	1506457	REC_END	n/a	n/a	n/a	-999	6	[0, 0, 0]	n/a	FR1	1	R1334T
1504.588	0.014	1506458	TRIAL_END	n/a	n/a	n/a	-999	6	[0, 0, 0]	n/a	FR1	1	R1334T
1504.602	0.0	1506472	WAITING_START	n/a	n/a	n/a	-999	7	[0, 0, 0]	n/a	FR1	1	R1334T
1504.602	0.0	1506472	TRIAL_START	n/a	n/a	n/a	-999	7	[0, 0, 0]	n/a	FR1	1	R1334T
1504.602	1.728	1506472	TRIAL	n/a	n/a	n/a	-999	7	[0, 0, 0]	n/a	FR1	1	R1334T
1506.33	0.001	1508200	WAITING_END	n/a	n/a	n/a	-999	7	[0, 0, 0]	n/a	FR1	1	R1334T
1506.331	10.428	1508201	COUNTDOWN_START	n/a	n/a	n/a	-999	7	[0, 0, 0]	n/a	FR1	1	R1334T
1516.759	0.0	1518629	COUNTDOWN_END	n/a	n/a	n/a	-999	7	[0, 0, 0]	n/a	FR1	1	R1334T
1516.759	1.256	1518629	ORIENT_START	n/a	n/a	n/a	-999	7	[0, 0, 0]	n/a	FR1	1	R1334T
1518.015	0.0	1519885	ORIENT_END	n/a	n/a	n/a	-999	7	[0, 0, 0]	n/a	FR1	1	R1334T
1518.015	0.882	1519885	ENCODING_START	n/a	n/a	n/a	-999	7	[0, 0, 0]	n/a	FR1	1	R1334T
1518.897	1.619	1520767	WORD	n/a	wordpools/wordpool_EN.txt	HAND	1	7	[0, 0, 0]	n/a	FR1	1	R1334T
1520.516	0.877	1522386	WORD_OFF	n/a	n/a	HAND	1	7	[0, 0, 0]	n/a	FR1	1	R1334T
1521.393	1.623	1523263	WORD	n/a	wordpools/wordpool_EN.txt	MOOSE	2	7	[0, 0, 0]	n/a	FR1	1	R1334T
1523.016	0.784	1524886	WORD_OFF	n/a	n/a	MOOSE	2	7	[0, 0, 0]	n/a	FR1	1	R1334T
1523.8	1.634	1525670	WORD	n/a	wordpools/wordpool_EN.txt	AXE	3	7	[0, 0, 0]	n/a	FR1	1	R1334T
1525.434	1.088	1527304	WORD_OFF	n/a	n/a	AXE	3	7	[0, 0, 0]	n/a	FR1	1	R1334T
1526.522	1.628	1528391	WORD	n/a	wordpools/wordpool_EN.txt	SOUP	4	7	[0, 0, 0]	n/a	FR1	1	R1334T
1528.15	1.123	1530019	WORD_OFF	n/a	n/a	SOUP	4	7	[0, 0, 0]	n/a	FR1	1	R1334T
1529.273	1.627	1531142	WORD	n/a	wordpools/wordpool_EN.txt	DEER	5	7	[0, 0, 0]	n/a	FR1	1	R1334T
1530.9	1.052	1532769	WORD_OFF	n/a	n/a	DEER	5	7	[0, 0, 0]	n/a	FR1	1	R1334T
1531.952	1.633	1533821	WORD	n/a	wordpools/wordpool_EN.txt	MOLE	6	7	[0, 0, 0]	n/a	FR1	1	R1334T
1533.585	0.975	1535454	WORD_OFF	n/a	n/a	MOLE	6	7	[0, 0, 0]	n/a	FR1	1	R1334T
1534.56	1.625	1536429	WORD	n/a	wordpools/wordpool_EN.txt	STEAK	7	7	[0, 0, 0]	n/a	FR1	1	R1334T
1536.185	0.8	1538054	WORD_OFF	n/a	n/a	STEAK	7	7	[0, 0, 0]	n/a	FR1	1	R1334T
1536.985	1.618	1538854	WORD	n/a	wordpools/wordpool_EN.txt	SINK	8	7	[0, 0, 0]	n/a	FR1	1	R1334T
1538.603	1.053	1540472	WORD_OFF	n/a	n/a	SINK	8	7	[0, 0, 0]	n/a	FR1	1	R1334T
1539.656	1.631	1541525	WORD	n/a	wordpools/wordpool_EN.txt	ARM	9	7	[0, 0, 0]	n/a	FR1	1	R1334T
1541.287	1.099	1543156	WORD_OFF	n/a	n/a	ARM	9	7	[0, 0, 0]	n/a	FR1	1	R1334T
1542.386	1.634	1544255	WORD	n/a	wordpools/wordpool_EN.txt	FILM	10	7	[0, 0, 0]	n/a	FR1	1	R1334T
1544.02	0.987	1545889	WORD_OFF	n/a	n/a	FILM	10	7	[0, 0, 0]	n/a	FR1	1	R1334T
1545.007	1.631	1546876	WORD	n/a	wordpools/wordpool_EN.txt	RAKE	11	7	[0, 0, 0]	n/a	FR1	1	R1334T
1546.638	1.098	1548507	WORD_OFF	n/a	n/a	RAKE	11	7	[0, 0, 0]	n/a	FR1	1	R1334T
1547.736	1.636	1549605	WORD	n/a	wordpools/wordpool_EN.txt	STREET	12	7	[0, 0, 0]	n/a	FR1	1	R1334T
1549.372	0.0	1551240	WORD_OFF	n/a	n/a	STREET	12	7	[0, 0, 0]	n/a	FR1	1	R1334T
1549.372	0.0	1551240	ENCODING_END	n/a	n/a	n/a	-999	7	[0, 0, 0]	n/a	FR1	1	R1334T
1549.372	0.0	1551240	DISTRACT_START	n/a	n/a	n/a	-999	7	[0, 0, 0]	n/a	FR1	1	R1334T
1549.372	0.016	1551240	START	n/a	n/a	n/a	-999	7	[-999, -999, -999]	n/a	FR1	1	R1334T
1549.388	3.85	1551256	PROB	3.85	n/a	n/a	-999	7	[2, 4, 8]	14	FR1	1	R1334T
1553.238	5.017	1555106	PROB	5.017	n/a	n/a	-999	7	[9, 9, 9]	27	FR1	1	R1334T
1558.255	2.934	1560123	PROB	2.934	n/a	n/a	-999	7	[9, 1, 3]	13	FR1	1	R1334T
1561.189	3.084	1563057	PROB	3.084	n/a	n/a	-999	7	[6, 5, 1]	12	FR1	1	R1334T
1564.273	5.473	1566141	PROB	5.473	n/a	n/a	-999	7	[2, 6, 7]	15	FR1	1	R1334T
1569.746	0.013	1571614	STOP	n/a	n/a	n/a	-999	7	[-999, -999, -999]	n/a	FR1	1	R1334T
1569.759	0.605	1571627	DISTRACT_END	n/a	n/a	n/a	-999	7	[0, 0, 0]	n/a	FR1	1	R1334T
1570.364	1.577	1572231	RETRIEVAL_ORIENT_START	n/a	n/a	n/a	-999	7	[0, 0, 0]	n/a	FR1	1	R1334T
1571.941	0.001	1573808	RETRIEVAL_ORIENT_END	n/a	n/a	n/a	-999	7	[0, 0, 0]	n/a	FR1	1	R1334T
1571.942	0.576	1573809	REC_START	n/a	n/a	n/a	-999	7	[0, 0, 0]	n/a	FR1	1	R1334T
1572.518	2.219	1574385	REC_WORD	2.219	n/a	ARM	9	7	[0, 0, 0]	n/a	FR1	1	R1334T
1574.737	3.153	1576604	REC_WORD	3.153	n/a	ARK	-999	7	[0, 0, 0]	n/a	FR1	1	R1334T
1577.89	7.568	1579757	REC_WORD	7.568	n/a	MOOSE	2	7	[0, 0, 0]	n/a	FR1	1	R1334T
1585.458	6.039	1587325	REC_WORD	6.039	n/a	STEAK	7	7	[0, 0, 0]	n/a	FR1	1	R1334T
1591.497	10.458	1593364	REC_WORD	10.458	n/a	SQUIRREL	-999	7	[0, 0, 0]	n/a	FR1	1	R1334T
1601.955	0.0	1603821	REC_END	n/a	n/a	n/a	-999	7	[0, 0, 0]	n/a	FR1	1	R1334T
1601.955	0.014	1603821	TRIAL_END	n/a	n/a	n/a	-999	7	[0, 0, 0]	n/a	FR1	1	R1334T
1601.969	0.0	1603835	WAITING_START	n/a	n/a	n/a	-999	8	[0, 0, 0]	n/a	FR1	1	R1334T
1601.969	0.0	1603835	TRIAL	n/a	n/a	n/a	-999	8	[0, 0, 0]	n/a	FR1	1	R1334T
1601.969	1.995	1603835	TRIAL_START	n/a	n/a	n/a	-999	8	[0, 0, 0]	n/a	FR1	1	R1334T
1603.964	0.0	1605830	WAITING_END	n/a	n/a	n/a	-999	8	[0, 0, 0]	n/a	FR1	1	R1334T
1603.964	10.43	1605830	COUNTDOWN_START	n/a	n/a	n/a	-999	8	[0, 0, 0]	n/a	FR1	1	R1334T
1614.394	0.0	1616259	COUNTDOWN_END	n/a	n/a	n/a	-999	8	[0, 0, 0]	n/a	FR1	1	R1334T
1614.394	1.056	1616259	ORIENT_START	n/a	n/a	n/a	-999	8	[0, 0, 0]	n/a	FR1	1	R1334T
1615.45	0.001	1617315	ORIENT_END	n/a	n/a	n/a	-999	8	[0, 0, 0]	n/a	FR1	1	R1334T
1615.451	1.09	1617316	ENCODING_START	n/a	n/a	n/a	-999	8	[0, 0, 0]	n/a	FR1	1	R1334T
1616.541	1.625	1618406	WORD	n/a	wordpools/wordpool_EN.txt	DOG	1	8	[0, 0, 0]	n/a	FR1	1	R1334T
1618.166	0.884	1620031	WORD_OFF	n/a	n/a	DOG	1	8	[0, 0, 0]	n/a	FR1	1	R1334T
1619.05	1.618	1620915	WORD	n/a	wordpools/wordpool_EN.txt	BRICK	2	8	[0, 0, 0]	n/a	FR1	1	R1334T
1620.668	0.772	1622533	WORD_OFF	n/a	n/a	BRICK	2	8	[0, 0, 0]	n/a	FR1	1	R1334T
1621.44	1.627	1623305	WORD	n/a	wordpools/wordpool_EN.txt	SNOW	3	8	[0, 0, 0]	n/a	FR1	1	R1334T
1623.067	1.097	1624932	WORD_OFF	n/a	n/a	SNOW	3	8	[0, 0, 0]	n/a	FR1	1	R1334T
1624.164	1.637	1626029	WORD	n/a	wordpools/wordpool_EN.txt	SLEEVE	4	8	[0, 0, 0]	n/a	FR1	1	R1334T
1625.801	0.788	1627666	WORD_OFF	n/a	n/a	SLEEVE	4	8	[0, 0, 0]	n/a	FR1	1	R1334T
1626.589	1.629	1628454	WORD	n/a	wordpools/wordpool_EN.txt	PIT	5	8	[0, 0, 0]	n/a	FR1	1	R1334T
1628.218	0.987	1630083	WORD_OFF	n/a	n/a	PIT	5	8	[0, 0, 0]	n/a	FR1	1	R1334T
1629.205	1.63	1631070	WORD	n/a	wordpools/wordpool_EN.txt	CLAY	6	8	[0, 0, 0]	n/a	FR1	1	R1334T
1630.835	0.807	1632700	WORD_OFF	n/a	n/a	CLAY	6	8	[0, 0, 0]	n/a	FR1	1	R1334T
1631.642	1.627	1633507	WORD	n/a	wordpools/wordpool_EN.txt	LAND	7	8	[0, 0, 0]	n/a	FR1	1	R1334T
1633.269	0.981	1635134	WORD_OFF	n/a	n/a	LAND	7	8	[0, 0, 0]	n/a	FR1	1	R1334T
1634.25	1.636	1636115	WORD	n/a	wordpools/wordpool_EN.txt	SUN	8	8	[0, 0, 0]	n/a	FR1	1	R1334T
1635.886	0.889	1637751	WORD_OFF	n/a	n/a	SUN	8	8	[0, 0, 0]	n/a	FR1	1	R1334T
1636.775	1.612	1638639	WORD	n/a	wordpools/wordpool_EN.txt	HOOF	9	8	[0, 0, 0]	n/a	FR1	1	R1334T
1638.387	0.947	1640251	WORD_OFF	n/a	n/a	HOOF	9	8	[0, 0, 0]	n/a	FR1	1	R1334T
1639.334	1.62	1641198	WORD	n/a	wordpools/wordpool_EN.txt	SKI	10	8	[0, 0, 0]	n/a	FR1	1	R1334T
1640.954	0.754	1642818	WORD_OFF	n/a	n/a	SKI	10	8	[0, 0, 0]	n/a	FR1	1	R1334T
1641.708	1.631	1643572	WORD	n/a	wordpools/wordpool_EN.txt	CLOCK	11	8	[0, 0, 0]	n/a	FR1	1	R1334T
1643.339	1.135	1645203	WORD_OFF	n/a	n/a	CLOCK	11	8	[0, 0, 0]	n/a	FR1	1	R1334T
1644.474	1.631	1646338	WORD	n/a	wordpools/wordpool_EN.txt	CUBE	12	8	[0, 0, 0]	n/a	FR1	1	R1334T
1646.105	0.0	1647969	WORD_OFF	n/a	n/a	CUBE	12	8	[0, 0, 0]	n/a	FR1	1	R1334T
1646.105	0.0	1647969	ENCODING_END	n/a	n/a	n/a	-999	8	[0, 0, 0]	n/a	FR1	1	R1334T
1646.105	0.001	1647969	DISTRACT_START	n/a	n/a	n/a	-999	8	[0, 0, 0]	n/a	FR1	1	R1334T
1646.106	0.015	1647970	START	n/a	n/a	n/a	-999	8	[-999, -999, -999]	n/a	FR1	1	R1334T
1646.121	6.651	1647985	PROB	6.651	n/a	n/a	-999	8	[5, 1, 4]	10	FR1	1	R1334T
1652.772	5.569	1654636	PROB	5.569	n/a	n/a	-999	8	[6, 9, 9]	24	FR1	1	R1334T
1658.341	4.018	1660204	PROB	4.018	n/a	n/a	-999	8	[6, 3, 1]	10	FR1	1	R1334T
1662.359	5.017	1664222	PROB	5.017	n/a	n/a	-999	8	[8, 2, 7]	17	FR1	1	R1334T
1667.376	0.017	1669239	STOP	n/a	n/a	n/a	-999	8	[-999, -999, -999]	n/a	FR1	1	R1334T
1667.393	0.513	1669256	DISTRACT_END	n/a	n/a	n/a	-999	8	[0, 0, 0]	n/a	FR1	1	R1334T
1667.906	1.704	1669769	RETRIEVAL_ORIENT_START	n/a	n/a	n/a	-999	8	[0, 0, 0]	n/a	FR1	1	R1334T
1669.61	0.0	1671473	RETRIEVAL_ORIENT_END	n/a	n/a	n/a	-999	8	[0, 0, 0]	n/a	FR1	1	R1334T
1669.61	1.116	1671473	REC_START	n/a	n/a	n/a	-999	8	[0, 0, 0]	n/a	FR1	1	R1334T
1670.726	0.921	1672589	REC_WORD	0.921	n/a	CLUB	-999	8	[0, 0, 0]	n/a	FR1	1	R1334T
1671.647	2.714	1673510	REC_WORD	2.714	n/a	HOOF	9	8	[0, 0, 0]	n/a	FR1	1	R1334T
1674.361	6.351	1676224	REC_WORD	6.351	n/a	SKY	-999	8	[0, 0, 0]	n/a	FR1	1	R1334T
1680.712	18.91	1682574	REC_WORD	18.91	n/a	HAND	-999	8	[0, 0, 0]	n/a	FR1	1	R1334T
1699.622	0.0	1701484	REC_END	n/a	n/a	n/a	-999	8	[0, 0, 0]	n/a	FR1	1	R1334T
1699.622	0.016	1701484	TRIAL_END	n/a	n/a	n/a	-999	8	[0, 0, 0]	n/a	FR1	1	R1334T
1699.638	0.0	1701500	TRIAL_START	n/a	n/a	n/a	-999	9	[0, 0, 0]	n/a	FR1	1	R1334T
1699.638	0.0	1701500	TRIAL	n/a	n/a	n/a	-999	9	[0, 0, 0]	n/a	FR1	1	R1334T
1699.638	2.31	1701500	WAITING_START	n/a	n/a	n/a	-999	9	[0, 0, 0]	n/a	FR1	1	R1334T
1701.948	0.001	1703810	WAITING_END	n/a	n/a	n/a	-999	9	[0, 0, 0]	n/a	FR1	1	R1334T
1701.949	10.428	1703811	COUNTDOWN_START	n/a	n/a	n/a	-999	9	[0, 0, 0]	n/a	FR1	1	R1334T
1712.377	0.0	1714238	COUNTDOWN_END	n/a	n/a	n/a	-999	9	[0, 0, 0]	n/a	FR1	1	R1334T
1712.377	1.241	1714238	ORIENT_START	n/a	n/a	n/a	-999	9	[0, 0, 0]	n/a	FR1	1	R1334T
1713.618	0.001	1715479	ORIENT_END	n/a	n/a	n/a	-999	9	[0, 0, 0]	n/a	FR1	1	R1334T
1713.619	0.751	1715480	ENCODING_START	n/a	n/a	n/a	-999	9	[0, 0, 0]	n/a	FR1	1	R1334T
1714.37	1.631	1716231	WORD	n/a	wordpools/wordpool_EN.txt	BIRD	1	9	[0, 0, 0]	n/a	FR1	1	R1334T
1716.001	1.105	1717862	WORD_OFF	n/a	n/a	BIRD	1	9	[0, 0, 0]	n/a	FR1	1	R1334T
1717.106	1.63	1718967	WORD	n/a	wordpools/wordpool_EN.txt	RAT	2	9	[0, 0, 0]	n/a	FR1	1	R1334T
1718.736	0.923	1720597	WORD_OFF	n/a	n/a	RAT	2	9	[0, 0, 0]	n/a	FR1	1	R1334T
1719.659	1.627	1721520	WORD	n/a	wordpools/wordpool_EN.txt	MULE	3	9	[0, 0, 0]	n/a	FR1	1	R1334T
1721.286	0.817	1723147	WORD_OFF	n/a	n/a	MULE	3	9	[0, 0, 0]	n/a	FR1	1	R1334T
1722.103	1.617	1723964	WORD	n/a	wordpools/wordpool_EN.txt	MAZE	4	9	[0, 0, 0]	n/a	FR1	1	R1334T
1723.72	1.034	1725581	WORD_OFF	n/a	n/a	MAZE	4	9	[0, 0, 0]	n/a	FR1	1	R1334T
1724.754	1.633	1726614	WORD	n/a	wordpools/wordpool_EN.txt	DRESS	5	9	[0, 0, 0]	n/a	FR1	1	R1334T
1726.387	0.852	1728247	WORD_OFF	n/a	n/a	DRESS	5	9	[0, 0, 0]	n/a	FR1	1	R1334T
1727.239	1.631	1729099	WORD	n/a	wordpools/wordpool_EN.txt	BENCH	6	9	[0, 0, 0]	n/a	FR1	1	R1334T
1728.87	0.89	1730730	WORD_OFF	n/a	n/a	BENCH	6	9	[0, 0, 0]	n/a	FR1	1	R1334T
1729.76	1.628	1731620	WORD	n/a	wordpools/wordpool_EN.txt	SHIELD	7	9	[0, 0, 0]	n/a	FR1	1	R1334T
1731.388	0.757	1733248	WORD_OFF	n/a	n/a	SHIELD	7	9	[0, 0, 0]	n/a	FR1	1	R1334T
1732.145	1.626	1734005	WORD	n/a	wordpools/wordpool_EN.txt	BUSH	8	9	[0, 0, 0]	n/a	FR1	1	R1334T
1733.771	1.069	1735631	WORD_OFF	n/a	n/a	BUSH	8	9	[0, 0, 0]	n/a	FR1	1	R1334T
1734.84	1.632	1736700	WORD	n/a	wordpools/wordpool_EN.txt	FLEA	9	9	[0, 0, 0]	n/a	FR1	1	R1334T
1736.472	1.147	1738332	WORD_OFF	n/a	n/a	FLEA	9	9	[0, 0, 0]	n/a	FR1	1	R1334T
1737.619	1.636	1739479	WORD	n/a	wordpools/wordpool_EN.txt	PRINCE	10	9	[0, 0, 0]	n/a	FR1	1	R1334T
1739.255	1.017	1741115	WORD_OFF	n/a	n/a	PRINCE	10	9	[0, 0, 0]	n/a	FR1	1	R1334T
1740.272	1.633	1742132	WORD	n/a	wordpools/wordpool_EN.txt	POLE	11	9	[0, 0, 0]	n/a	FR1	1	R1334T
1741.905	0.754	1743765	WORD_OFF	n/a	n/a	POLE	11	9	[0, 0, 0]	n/a	FR1	1	R1334T
1742.659	1.631	1744519	WORD	n/a	wordpools/wordpool_EN.txt	SHIP	12	9	[0, 0, 0]	n/a	FR1	1	R1334T
1744.29	0.001	1746150	WORD_OFF	n/a	n/a	SHIP	12	9	[0, 0, 0]	n/a	FR1	1	R1334T
1744.291	0.0	1746151	ENCODING_END	n/a	n/a	n/a	-999	9	[0, 0, 0]	n/a	FR1	1	R1334T
1744.291	0.0	1746151	DISTRACT_START	n/a	n/a	n/a	-999	9	[0, 0, 0]	n/a	FR1	1	R1334T
1744.291	0.016	1746151	START	n/a	n/a	n/a	-999	9	[-999, -999, -999]	n/a	FR1	1	R1334T
1744.307	7.268	1746167	PROB	7.268	n/a	n/a	-999	9	[9, 8, 3]	20	FR1	1	R1334T
1751.575	5.333	1753434	PROB	5.333	n/a	n/a	-999	9	[3, 9, 8]	20	FR1	1	R1334T
1756.908	3.201	1758767	PROB	3.201	n/a	n/a	-999	9	[4, 5, 5]	14	FR1	1	R1334T
1760.109	5.026	1761968	PROB	5.026	n/a	n/a	-999	9	[5, 6, 2]	13	FR1	1	R1334T
1765.135	0.008	1766994	STOP	n/a	n/a	n/a	-999	9	[-999, -999, -999]	n/a	FR1	1	R1334T
1765.143	0.566	1767002	DISTRACT_END	n/a	n/a	n/a	-999	9	[0, 0, 0]	n/a	FR1	1	R1334T
1765.709	1.534	1767568	RETRIEVAL_ORIENT_START	n/a	n/a	n/a	-999	9	[0, 0, 0]	n/a	FR1	1	R1334T
1767.243	0.001	1769102	RETRIEVAL_ORIENT_END	n/a	n/a	n/a	-999	9	[0, 0, 0]	n/a	FR1	1	R1334T
1767.244	0.767	1769103	REC_START	n/a	n/a	n/a	-999	9	[0, 0, 0]	n/a	FR1	1	R1334T
1768.011	2.102	1769870	REC_WORD	2.102	n/a	BIRD	1	9	[0, 0, 0]	n/a	FR1	1	R1334T
1770.113	7.935	1771971	REC_WORD	7.935	n/a	BAT	-999	9	[0, 0, 0]	n/a	FR1	1	R1334T
1778.048	4.125	1779906	REC_WORD	4.125	n/a	MULE	3	9	[0, 0, 0]	n/a	FR1	1	R1334T
1782.173	6.292	1784031	REC_WORD	6.292	n/a	SHOVEL	-999	9	[0, 0, 0]	n/a	FR1	1	R1334T
1788.465	5.257	1790323	REC_WORD	5.257	n/a	CLAY	-999	9	[0, 0, 0]	n/a	FR1	1	R1334T
1793.722	3.534	1795579	REC_WORD	3.534	n/a	DRESS	5	9	[0, 0, 0]	n/a	FR1	1	R1334T
1797.256	0.001	1799113	REC_END	n/a	n/a	n/a	-999	9	[0, 0, 0]	n/a	FR1	1	R1334T
1797.257	0.016	1799114	TRIAL_END	n/a	n/a	n/a	-999	9	[0, 0, 0]	n/a	FR1	1	R1334T
1797.273	0.0	1799130	TRIAL_START	n/a	n/a	n/a	-999	10	[0, 0, 0]	n/a	FR1	1	R1334T
1797.273	0.001	1799130	TRIAL	n/a	n/a	n/a	-999	10	[0, 0, 0]	n/a	FR1	1	R1334T
1797.274	2.06	1799131	WAITING_START	n/a	n/a	n/a	-999	10	[0, 0, 0]	n/a	FR1	1	R1334T
1799.334	0.0	1801191	COUNTDOWN_START	n/a	n/a	n/a	-999	10	[0, 0, 0]	n/a	FR1	1	R1334T
1799.334	10.429	1801191	WAITING_END	n/a	n/a	n/a	-999	10	[0, 0, 0]	n/a	FR1	1	R1334T
1809.763	0.0	1811620	COUNTDOWN_END	n/a	n/a	n/a	-999	10	[0, 0, 0]	n/a	FR1	1	R1334T
1809.763	1.255	1811620	ORIENT_START	n/a	n/a	n/a	-999	10	[0, 0, 0]	n/a	FR1	1	R1334T
1811.018	0.0	1812875	ORIENT_END	n/a	n/a	n/a	-999	10	[0, 0, 0]	n/a	FR1	1	R1334T
1811.018	1.13	1812875	ENCODING_START	n/a	n/a	n/a	-999	10	[0, 0, 0]	n/a	FR1	1	R1334T
1812.148	1.62	1814005	WORD	n/a	wordpools/wordpool_EN.txt	VEST	1	10	[0, 0, 0]	n/a	FR1	1	R1334T
1813.768	0.957	1815624	WORD_OFF	n/a	n/a	VEST	1	10	[0, 0, 0]	n/a	FR1	1	R1334T
1814.725	1.628	1816581	WORD	n/a	wordpools/wordpool_EN.txt	GRASS	2	10	[0, 0, 0]	n/a	FR1	1	R1334T
1816.353	1.046	1818209	WORD_OFF	n/a	n/a	GRASS	2	10	[0, 0, 0]	n/a	FR1	1	R1334T
1817.399	1.62	1819255	WORD	n/a	wordpools/wordpool_EN.txt	DOCK	3	10	[0, 0, 0]	n/a	FR1	1	R1334T
1819.019	1.021	1820875	WORD_OFF	n/a	n/a	DOCK	3	10	[0, 0, 0]	n/a	FR1	1	R1334T
1820.04	1.631	1821896	WORD	n/a	wordpools/wordpool_EN.txt	HOUSE	4	10	[0, 0, 0]	n/a	FR1	1	R1334T
1821.671	0.828	1823527	WORD_OFF	n/a	n/a	HOUSE	4	10	[0, 0, 0]	n/a	FR1	1	R1334T
1822.499	1.621	1824355	WORD	n/a	wordpools/wordpool_EN.txt	TOAST	5	10	[0, 0, 0]	n/a	FR1	1	R1334T
1824.12	0.872	1825976	WORD_OFF	n/a	n/a	TOAST	5	10	[0, 0, 0]	n/a	FR1	1	R1334T
1824.992	1.613	1826848	WORD	n/a	wordpools/wordpool_EN.txt	APE	6	10	[0, 0, 0]	n/a	FR1	1	R1334T
1826.605	0.942	1828461	WORD_OFF	n/a	n/a	APE	6	10	[0, 0, 0]	n/a	FR1	1	R1334T
1827.547	1.624	1829403	WORD	n/a	wordpools/wordpool_EN.txt	LEAF	7	10	[0, 0, 0]	n/a	FR1	1	R1334T
1829.171	0.861	1831027	WORD_OFF	n/a	n/a	LEAF	7	10	[0, 0, 0]	n/a	FR1	1	R1334T
1830.032	1.624	1831888	WORD	n/a	wordpools/wordpool_EN.txt	SEAL	8	10	[0, 0, 0]	n/a	FR1	1	R1334T
1831.656	0.813	1833512	WORD_OFF	n/a	n/a	SEAL	8	10	[0, 0, 0]	n/a	FR1	1	R1334T
1832.469	1.636	1834325	WORD	n/a	wordpools/wordpool_EN.txt	LOCK	9	10	[0, 0, 0]	n/a	FR1	1	R1334T
1834.105	0.9	1835961	WORD_OFF	n/a	n/a	LOCK	9	10	[0, 0, 0]	n/a	FR1	1	R1334T
1835.005	1.635	1836860	WORD	n/a	wordpools/wordpool_EN.txt	HORSE	10	10	[0, 0, 0]	n/a	FR1	1	R1334T
1836.64	0.98	1838495	WORD_OFF	n/a	n/a	HORSE	10	10	[0, 0, 0]	n/a	FR1	1	R1334T
1837.62	1.62	1839475	WORD	n/a	wordpools/wordpool_EN.txt	ROSE	11	10	[0, 0, 0]	n/a	FR1	1	R1334T
1839.24	0.797	1841095	WORD_OFF	n/a	n/a	ROSE	11	10	[0, 0, 0]	n/a	FR1	1	R1334T
1840.037	1.621	1841892	WORD	n/a	wordpools/wordpool_EN.txt	LAKE	12	10	[0, 0, 0]	n/a	FR1	1	R1334T
1841.658	0.0	1843513	DISTRACT_START	n/a	n/a	n/a	-999	10	[0, 0, 0]	n/a	FR1	1	R1334T
1841.658	0.0	1843513	WORD_OFF	n/a	n/a	LAKE	12	10	[0, 0, 0]	n/a	FR1	1	R1334T
1841.658	0.0	1843513	ENCODING_END	n/a	n/a	n/a	-999	10	[0, 0, 0]	n/a	FR1	1	R1334T
1841.658	0.016	1843513	START	n/a	n/a	n/a	-999	10	[-999, -999, -999]	n/a	FR1	1	R1334T
1841.674	5.018	1843529	PROB	5.018	n/a	n/a	-999	10	[8, 7, 2]	17	FR1	1	R1334T
1846.692	3.901	1848547	PROB	3.901	n/a	n/a	-999	10	[9, 1, 2]	12	FR1	1	R1334T
1850.593	4.666	1852448	PROB	4.666	n/a	n/a	-999	10	[5, 1, 7]	13	FR1	1	R1334T
1855.259	7.51	1857114	PROB	7.51	n/a	n/a	-999	10	[3, 5, 6]	14	FR1	1	R1334T
1862.769	0.008	1864623	STOP	n/a	n/a	n/a	-999	10	[-999, -999, -999]	n/a	FR1	1	R1334T
1862.777	0.58	1864631	DISTRACT_END	n/a	n/a	n/a	-999	10	[0, 0, 0]	n/a	FR1	1	R1334T
1863.357	1.621	1865211	RETRIEVAL_ORIENT_START	n/a	n/a	n/a	-999	10	[0, 0, 0]	n/a	FR1	1	R1334T
1864.978	0.0	1866832	RETRIEVAL_ORIENT_END	n/a	n/a	n/a	-999	10	[0, 0, 0]	n/a	FR1	1	R1334T
1864.978	1.016	1866832	REC_START	n/a	n/a	n/a	-999	10	[0, 0, 0]	n/a	FR1	1	R1334T
1865.994	0.589	1867848	REC_WORD	0.589	n/a	HOUSE	4	10	[0, 0, 0]	n/a	FR1	1	R1334T
1866.583	1.058	1868437	REC_WORD	1.058	n/a	POND	-999	10	[0, 0, 0]	n/a	FR1	1	R1334T
1867.641	4.209	1869495	REC_WORD	4.209	n/a	LAKE	12	10	[0, 0, 0]	n/a	FR1	1	R1334T
1871.85	23.141	1873704	REC_WORD	23.141	n/a	ROSE	11	10	[0, 0, 0]	n/a	FR1	1	R1334T
1894.991	0.0	1896844	REC_END	n/a	n/a	n/a	-999	10	[0, 0, 0]	n/a	FR1	1	R1334T
1894.991	0.016	1896844	TRIAL_END	n/a	n/a	n/a	-999	10	[0, 0, 0]	n/a	FR1	1	R1334T
1895.007	0.0	1896860	TRIAL_START	n/a	n/a	n/a	-999	11	[0, 0, 0]	n/a	FR1	1	R1334T
1895.007	0.0	1896860	TRIAL	n/a	n/a	n/a	-999	11	[0, 0, 0]	n/a	FR1	1	R1334T
1895.007	1.86	1896860	WAITING_START	n/a	n/a	n/a	-999	11	[0, 0, 0]	n/a	FR1	1	R1334T
1896.867	0.0	1898720	COUNTDOWN_START	n/a	n/a	n/a	-999	11	[0, 0, 0]	n/a	FR1	1	R1334T
1896.867	10.429	1898720	WAITING_END	n/a	n/a	n/a	-999	11	[0, 0, 0]	n/a	FR1	1	R1334T
1907.296	0.001	1909148	COUNTDOWN_END	n/a	n/a	n/a	-999	11	[0, 0, 0]	n/a	FR1	1	R1334T
1907.297	1.023	1909149	ORIENT_START	n/a	n/a	n/a	-999	11	[0, 0, 0]	n/a	FR1	1	R1334T
1908.32	0.0	1910172	ORIENT_END	n/a	n/a	n/a	-999	11	[0, 0, 0]	n/a	FR1	1	R1334T
1908.32	0.768	1910172	ENCODING_START	n/a	n/a	n/a	-999	11	[0, 0, 0]	n/a	FR1	1	R1334T
1909.088	1.632	1910940	WORD	n/a	wordpools/wordpool_EN.txt	STORE	1	11	[0, 0, 0]	n/a	FR1	1	R1334T
1910.72	0.896	1912572	WORD_OFF	n/a	n/a	STORE	1	11	[0, 0, 0]	n/a	FR1	1	R1334T
1911.616	1.621	1913468	WORD	n/a	wordpools/wordpool_EN.txt	BEAK	2	11	[0, 0, 0]	n/a	FR1	1	R1334T
1913.237	1.022	1915089	WORD_OFF	n/a	n/a	BEAK	2	11	[0, 0, 0]	n/a	FR1	1	R1334T
1914.259	1.628	1916111	WORD	n/a	wordpools/wordpool_EN.txt	SHEET	3	11	[0, 0, 0]	n/a	FR1	1	R1334T
1915.887	1.031	1917739	WORD_OFF	n/a	n/a	SHEET	3	11	[0, 0, 0]	n/a	FR1	1	R1334T
1916.918	1.637	1918770	WORD	n/a	wordpools/wordpool_EN.txt	GLASS	4	11	[0, 0, 0]	n/a	FR1	1	R1334T
1918.555	1.067	1920407	WORD_OFF	n/a	n/a	GLASS	4	11	[0, 0, 0]	n/a	FR1	1	R1334T
1919.622	1.633	1921474	WORD	n/a	wordpools/wordpool_EN.txt	SEA	5	11	[0, 0, 0]	n/a	FR1	1	R1334T
1921.255	0.767	1923107	WORD_OFF	n/a	n/a	SEA	5	11	[0, 0, 0]	n/a	FR1	1	R1334T
1922.022	1.617	1923874	WORD	n/a	wordpools/wordpool_EN.txt	DRUM	6	11	[0, 0, 0]	n/a	FR1	1	R1334T
1923.639	0.99	1925490	WORD_OFF	n/a	n/a	DRUM	6	11	[0, 0, 0]	n/a	FR1	1	R1334T
1924.629	1.627	1926480	WORD	n/a	wordpools/wordpool_EN.txt	INK	7	11	[0, 0, 0]	n/a	FR1	1	R1334T
1926.256	1.085	1928107	WORD_OFF	n/a	n/a	INK	7	11	[0, 0, 0]	n/a	FR1	1	R1334T
1927.341	1.632	1929192	WORD	n/a	wordpools/wordpool_EN.txt	CONE	8	11	[0, 0, 0]	n/a	FR1	1	R1334T
1928.973	1.009	1930824	WORD_OFF	n/a	n/a	CONE	8	11	[0, 0, 0]	n/a	FR1	1	R1334T
1929.982	1.609	1931833	WORD	n/a	wordpools/wordpool_EN.txt	CRANE	9	11	[0, 0, 0]	n/a	FR1	1	R1334T
1931.591	0.778	1933442	WORD_OFF	n/a	n/a	CRANE	9	11	[0, 0, 0]	n/a	FR1	1	R1334T
1932.369	1.621	1934220	WORD	n/a	wordpools/wordpool_EN.txt	SWORD	10	11	[0, 0, 0]	n/a	FR1	1	R1334T
1933.99	0.799	1935841	WORD_OFF	n/a	n/a	SWORD	10	11	[0, 0, 0]	n/a	FR1	1	R1334T
1934.789	1.619	1936640	WORD	n/a	wordpools/wordpool_EN.txt	TIE	11	11	[0, 0, 0]	n/a	FR1	1	R1334T
1936.408	0.794	1938259	WORD_OFF	n/a	n/a	TIE	11	11	[0, 0, 0]	n/a	FR1	1	R1334T
1937.202	1.623	1939053	WORD	n/a	wordpools/wordpool_EN.txt	STICK	12	11	[0, 0, 0]	n/a	FR1	1	R1334T
1938.825	0.0	1940676	ENCODING_END	n/a	n/a	n/a	-999	11	[0, 0, 0]	n/a	FR1	1	R1334T
1938.825	0.0	1940676	DISTRACT_START	n/a	n/a	n/a	-999	11	[0, 0, 0]	n/a	FR1	1	R1334T
1938.825	0.001	1940676	WORD_OFF	n/a	n/a	STICK	12	11	[0, 0, 0]	n/a	FR1	1	R1334T
1938.826	0.015	1940677	START	n/a	n/a	n/a	-999	11	[-999, -999, -999]	n/a	FR1	1	R1334T
1938.841	3.951	1940692	PROB	3.951	n/a	n/a	-999	11	[5, 7, 3]	15	FR1	1	R1334T
1942.792	3.885	1944643	PROB	3.885	n/a	n/a	-999	11	[2, 8, 5]	15	FR1	1	R1334T
1946.677	7.934	1948527	PROB	7.934	n/a	n/a	-999	11	[8, 9, 6]	23	FR1	1	R1334T
1954.611	4.018	1956461	PROB	4.018	n/a	n/a	-999	11	[9, 4, 6]	19	FR1	1	R1334T
1958.629	4.876	1960479	PROB	4.876	n/a	n/a	-999	11	[9, 5, 3]	17	FR1	1	R1334T
1963.505	0.008	1965355	STOP	n/a	n/a	n/a	-999	11	[-999, -999, -999]	n/a	FR1	1	R1334T
1963.513	0.695	1965363	DISTRACT_END	n/a	n/a	n/a	-999	11	[0, 0, 0]	n/a	FR1	1	R1334T
1964.208	1.705	1966058	RETRIEVAL_ORIENT_START	n/a	n/a	n/a	-999	11	[0, 0, 0]	n/a	FR1	1	R1334T
1965.913	0.0	1967763	RETRIEVAL_ORIENT_END	n/a	n/a	n/a	-999	11	[0, 0, 0]	n/a	FR1	1	R1334T
1965.913	0.0	1967763	REC_START	n/a	n/a	n/a	-999	11	[0, 0, 0]	n/a	FR1	1	R1334T
1965.913	1.042	1967763	REC_WORD	1.042	n/a	STORE	1	11	[0, 0, 0]	n/a	FR1	1	R1334T
1966.955	5.636	1968805	REC_WORD	5.636	n/a	BEAK	2	11	[0, 0, 0]	n/a	FR1	1	R1334T
1972.591	1.303	1974440	REC_WORD	1.303	n/a	SAIL	-999	11	[0, 0, 0]	n/a	FR1	1	R1334T
1973.894	0.984	1975743	REC_WORD	0.984	n/a	SHEET	3	11	[0, 0, 0]	n/a	FR1	1	R1334T
1974.878	16.628	1976727	REC_WORD	16.628	n/a	TIE	11	11	[0, 0, 0]	n/a	FR1	1	R1334T
1991.506	4.42	1993354	REC_WORD	4.42	n/a	TAIL	-999	11	[0, 0, 0]	n/a	FR1	1	R1334T
1995.926	0.001	1997774	REC_END	n/a	n/a	n/a	-999	11	[0, 0, 0]	n/a	FR1	1	R1334T
1995.927	0.015	1997775	TRIAL_END	n/a	n/a	n/a	-999	11	[0, 0, 0]	n/a	FR1	1	R1334T
1995.942	0.0	1997790	TRIAL_START	n/a	n/a	n/a	-999	12	[0, 0, 0]	n/a	FR1	1	R1334T
1995.942	0.0	1997790	TRIAL	n/a	n/a	n/a	-999	12	[0, 0, 0]	n/a	FR1	1	R1334T
1995.942	3.345	1997790	WAITING_START	n/a	n/a	n/a	-999	12	[0, 0, 0]	n/a	FR1	1	R1334T
1999.287	0.0	2001135	WAITING_END	n/a	n/a	n/a	-999	12	[0, 0, 0]	n/a	FR1	1	R1334T
1999.287	10.429	2001135	COUNTDOWN_START	n/a	n/a	n/a	-999	12	[0, 0, 0]	n/a	FR1	1	R1334T
2009.716	0.0	2011564	ORIENT_START	n/a	n/a	n/a	-999	12	[0, 0, 0]	n/a	FR1	1	R1334T
2009.716	1.138	2011564	COUNTDOWN_END	n/a	n/a	n/a	-999	12	[0, 0, 0]	n/a	FR1	1	R1334T
2010.854	0.001	2012702	ORIENT_END	n/a	n/a	n/a	-999	12	[0, 0, 0]	n/a	FR1	1	R1334T
2010.855	0.813	2012703	ENCODING_START	n/a	n/a	n/a	-999	12	[0, 0, 0]	n/a	FR1	1	R1334T
2011.668	1.638	2013515	WORD	n/a	wordpools/wordpool_EN.txt	COUCH	1	12	[0, 0, 0]	n/a	FR1	1	R1334T
2013.306	0.807	2015153	WORD_OFF	n/a	n/a	COUCH	1	12	[0, 0, 0]	n/a	FR1	1	R1334T
2014.113	1.61	2015960	WORD	n/a	wordpools/wordpool_EN.txt	FUDGE	2	12	[0, 0, 0]	n/a	FR1	1	R1334T
2015.723	0.957	2017570	WORD_OFF	n/a	n/a	FUDGE	2	12	[0, 0, 0]	n/a	FR1	1	R1334T
2016.68	1.627	2018527	WORD	n/a	wordpools/wordpool_EN.txt	BAT	3	12	[0, 0, 0]	n/a	FR1	1	R1334T
2018.307	0.808	2020154	WORD_OFF	n/a	n/a	BAT	3	12	[0, 0, 0]	n/a	FR1	1	R1334T
2019.115	1.625	2020962	WORD	n/a	wordpools/wordpool_EN.txt	SHIRT	4	12	[0, 0, 0]	n/a	FR1	1	R1334T
2020.74	0.751	2022587	WORD_OFF	n/a	n/a	SHIRT	4	12	[0, 0, 0]	n/a	FR1	1	R1334T
2021.491	1.632	2023338	WORD	n/a	wordpools/wordpool_EN.txt	HOSE	5	12	[0, 0, 0]	n/a	FR1	1	R1334T
2023.123	0.799	2024970	WORD_OFF	n/a	n/a	HOSE	5	12	[0, 0, 0]	n/a	FR1	1	R1334T
2023.922	1.636	2025769	WORD	n/a	wordpools/wordpool_EN.txt	STONE	6	12	[0, 0, 0]	n/a	FR1	1	R1334T
2025.558	0.961	2027405	WORD_OFF	n/a	n/a	STONE	6	12	[0, 0, 0]	n/a	FR1	1	R1334T
2026.519	1.622	2028366	WORD	n/a	wordpools/wordpool_EN.txt	BRANCH	7	12	[0, 0, 0]	n/a	FR1	1	R1334T
2028.141	1.048	2029988	WORD_OFF	n/a	n/a	BRANCH	7	12	[0, 0, 0]	n/a	FR1	1	R1334T
2029.189	1.636	2031036	WORD	n/a	wordpools/wordpool_EN.txt	STEAM	8	12	[0, 0, 0]	n/a	FR1	1	R1334T
2030.825	0.795	2032672	WORD_OFF	n/a	n/a	STEAM	8	12	[0, 0, 0]	n/a	FR1	1	R1334T
2031.62	1.622	2033467	WORD	n/a	wordpools/wordpool_EN.txt	SPONGE	9	12	[0, 0, 0]	n/a	FR1	1	R1334T
2033.242	0.768	2035089	WORD_OFF	n/a	n/a	SPONGE	9	12	[0, 0, 0]	n/a	FR1	1	R1334T
2034.01	1.616	2035856	WORD	n/a	wordpools/wordpool_EN.txt	WHEEL	10	12	[0, 0, 0]	n/a	FR1	1	R1334T
2035.626	0.992	2037472	WORD_OFF	n/a	n/a	WHEEL	10	12	[0, 0, 0]	n/a	FR1	1	R1334T
2036.618	1.625	2038464	WORD	n/a	wordpools/wordpool_EN.txt	BROOM	11	12	[0, 0, 0]	n/a	FR1	1	R1334T
2038.243	0.798	2040089	WORD_OFF	n/a	n/a	BROOM	11	12	[0, 0, 0]	n/a	FR1	1	R1334T
2039.041	1.636	2040887	WORD	n/a	wordpools/wordpool_EN.txt	BRUSH	12	12	[0, 0, 0]	n/a	FR1	1	R1334T
2040.677	0.001	2042523	WORD_OFF	n/a	n/a	BRUSH	12	12	[0, 0, 0]	n/a	FR1	1	R1334T
2040.678	0.0	2042524	ENCODING_END	n/a	n/a	n/a	-999	12	[0, 0, 0]	n/a	FR1	1	R1334T
2040.678	0.0	2042524	DISTRACT_START	n/a	n/a	n/a	-999	12	[0, 0, 0]	n/a	FR1	1	R1334T
2040.678	0.016	2042524	START	n/a	n/a	n/a	-999	12	[-999, -999, -999]	n/a	FR1	1	R1334T
2040.694	4.416	2042540	PROB	4.416	n/a	n/a	-999	12	[1, 6, 5]	12	FR1	1	R1334T
2045.11	4.134	2046956	PROB	4.134	n/a	n/a	-999	12	[9, 1, 4]	14	FR1	1	R1334T
2049.244	4.169	2051090	PROB	4.169	n/a	n/a	-999	12	[4, 3, 1]	8	FR1	1	R1334T
2053.413	3.234	2055259	PROB	3.234	n/a	n/a	-999	12	[1, 5, 9]	15	FR1	1	R1334T
2056.647	4.92	2058492	PROB	4.92	n/a	n/a	-999	12	[2, 6, 9]	17	FR1	1	R1334T
2061.567	0.014	2063412	STOP	n/a	n/a	n/a	-999	12	[-999, -999, -999]	n/a	FR1	1	R1334T
2061.581	0.586	2063426	DISTRACT_END	n/a	n/a	n/a	-999	12	[0, 0, 0]	n/a	FR1	1	R1334T
2062.167	1.664	2064012	RETRIEVAL_ORIENT_START	n/a	n/a	n/a	-999	12	[0, 0, 0]	n/a	FR1	1	R1334T
2063.831	0.0	2065676	RETRIEVAL_ORIENT_END	n/a	n/a	n/a	-999	12	[0, 0, 0]	n/a	FR1	1	R1334T
2063.831	0.434	2065676	REC_START	n/a	n/a	n/a	-999	12	[0, 0, 0]	n/a	FR1	1	R1334T
2064.265	1.903	2066110	REC_WORD	1.903	n/a	SPONGE	9	12	[0, 0, 0]	n/a	FR1	1	R1334T
2066.168	1.501	2068013	REC_WORD	1.501	n/a	BRUSH	12	12	[0, 0, 0]	n/a	FR1	1	R1334T
2067.669	1.608	2069514	REC_WORD	1.608	n/a	COUCH	1	12	[0, 0, 0]	n/a	FR1	1	R1334T
2069.277	9.424	2071122	REC_WORD	9.424	n/a	FUDGE	2	12	[0, 0, 0]	n/a	FR1	1	R1334T
2078.701	15.141	2080545	REC_WORD	15.141	n/a	SHIRT	4	12	[0, 0, 0]	n/a	FR1	1	R1334T
2093.842	0.0	2095686	TRIAL_END	n/a	n/a	n/a	-999	12	[0, 0, 0]	n/a	FR1	1	R1334T
2093.842	0.016	2095686	REC_END	n/a	n/a	n/a	-999	12	[0, 0, 0]	n/a	FR1	1	R1334T
2093.858	0.0	2095702	TRIAL_START	n/a	n/a	n/a	-999	13	[0, 0, 0]	n/a	FR1	1	R1334T
2093.858	0.0	2095702	TRIAL	n/a	n/a	n/a	-999	13	[0, 0, 0]	n/a	FR1	1	R1334T
2093.858	2.245	2095702	WAITING_START	n/a	n/a	n/a	-999	13	[0, 0, 0]	n/a	FR1	1	R1334T
2096.103	0.001	2097947	WAITING_END	n/a	n/a	n/a	-999	13	[0, 0, 0]	n/a	FR1	1	R1334T
2096.104	10.429	2097948	COUNTDOWN_START	n/a	n/a	n/a	-999	13	[0, 0, 0]	n/a	FR1	1	R1334T
2106.533	0.0	2108376	COUNTDOWN_END	n/a	n/a	n/a	-999	13	[0, 0, 0]	n/a	FR1	1	R1334T
2106.533	1.19	2108376	ORIENT_START	n/a	n/a	n/a	-999	13	[0, 0, 0]	n/a	FR1	1	R1334T
2107.723	0.0	2109566	ENCODING_START	n/a	n/a	n/a	-999	13	[0, 0, 0]	n/a	FR1	1	R1334T
2107.723	1.022	2109566	ORIENT_END	n/a	n/a	n/a	-999	13	[0, 0, 0]	n/a	FR1	1	R1334T
2108.745	1.628	2110588	WORD	n/a	wordpools/wordpool_EN.txt	CHIEF	1	13	[0, 0, 0]	n/a	FR1	1	R1334T
2110.373	0.95	2112216	WORD_OFF	n/a	n/a	CHIEF	1	13	[0, 0, 0]	n/a	FR1	1	R1334T
2111.323	1.633	2113166	WORD	n/a	wordpools/wordpool_EN.txt	FISH	2	13	[0, 0, 0]	n/a	FR1	1	R1334T
2112.956	0.919	2114799	WORD_OFF	n/a	n/a	FISH	2	13	[0, 0, 0]	n/a	FR1	1	R1334T
2113.875	1.633	2115718	WORD	n/a	wordpools/wordpool_EN.txt	PLANE	3	13	[0, 0, 0]	n/a	FR1	1	R1334T
2115.508	1.101	2117351	WORD_OFF	n/a	n/a	PLANE	3	13	[0, 0, 0]	n/a	FR1	1	R1334T
2116.609	1.631	2118452	WORD	n/a	wordpools/wordpool_EN.txt	STOVE	4	13	[0, 0, 0]	n/a	FR1	1	R1334T
2118.24	1.129	2120083	WORD_OFF	n/a	n/a	STOVE	4	13	[0, 0, 0]	n/a	FR1	1	R1334T
2119.369	1.622	2121212	WORD	n/a	wordpools/wordpool_EN.txt	SLUSH	5	13	[0, 0, 0]	n/a	FR1	1	R1334T
2120.991	0.808	2122834	WORD_OFF	n/a	n/a	SLUSH	5	13	[0, 0, 0]	n/a	FR1	1	R1334T
2121.799	1.627	2123641	WORD	n/a	wordpools/wordpool_EN.txt	TREE	6	13	[0, 0, 0]	n/a	FR1	1	R1334T
2123.426	1.119	2125268	WORD_OFF	n/a	n/a	TREE	6	13	[0, 0, 0]	n/a	FR1	1	R1334T
2124.545	1.63	2126387	WORD	n/a	wordpools/wordpool_EN.txt	FRUIT	7	13	[0, 0, 0]	n/a	FR1	1	R1334T
2126.175	0.884	2128017	WORD_OFF	n/a	n/a	FRUIT	7	13	[0, 0, 0]	n/a	FR1	1	R1334T
2127.059	1.634	2128901	WORD	n/a	wordpools/wordpool_EN.txt	ELF	8	13	[0, 0, 0]	n/a	FR1	1	R1334T
2128.693	0.816	2130535	WORD_OFF	n/a	n/a	ELF	8	13	[0, 0, 0]	n/a	FR1	1	R1334T
2129.509	1.634	2131351	WORD	n/a	wordpools/wordpool_EN.txt	FLAME	9	13	[0, 0, 0]	n/a	FR1	1	R1334T
2131.143	1.072	2132985	WORD_OFF	n/a	n/a	FLAME	9	13	[0, 0, 0]	n/a	FR1	1	R1334T
2132.215	1.628	2134057	WORD	n/a	wordpools/wordpool_EN.txt	BADGE	10	13	[0, 0, 0]	n/a	FR1	1	R1334T
2133.843	1.06	2135685	WORD_OFF	n/a	n/a	BADGE	10	13	[0, 0, 0]	n/a	FR1	1	R1334T
2134.903	1.625	2136745	WORD	n/a	wordpools/wordpool_EN.txt	GEESE	11	13	[0, 0, 0]	n/a	FR1	1	R1334T
2136.528	0.82	2138370	WORD_OFF	n/a	n/a	GEESE	11	13	[0, 0, 0]	n/a	FR1	1	R1334T
2137.348	1.63	2139190	WORD	n/a	wordpools/wordpool_EN.txt	WHALE	12	13	[0, 0, 0]	n/a	FR1	1	R1334T
2138.978	0.0	2140820	WORD_OFF	n/a	n/a	WHALE	12	13	[0, 0, 0]	n/a	FR1	1	R1334T
2138.978	0.0	2140820	ENCODING_END	n/a	n/a	n/a	-999	13	[0, 0, 0]	n/a	FR1	1	R1334T
2138.978	0.0	2140820	DISTRACT_START	n/a	n/a	n/a	-999	13	[0, 0, 0]	n/a	FR1	1	R1334T
2138.978	0.016	2140820	START	n/a	n/a	n/a	-999	13	[-999, -999, -999]	n/a	FR1	1	R1334T
2138.994	9.185	2140836	PROB	9.185	n/a	n/a	-999	13	[4, 8, 9]	21	FR1	1	R1334T
2148.179	7.319	2150020	PROB	7.319	n/a	n/a	-999	13	[8, 6, 7]	21	FR1	1	R1334T
2155.498	7.47	2157339	PROB	7.47	n/a	n/a	-999	13	[3, 4, 8]	15	FR1	1	R1334T
2162.968	0.014	2164809	STOP	n/a	n/a	n/a	-999	13	[-999, -999, -999]	n/a	FR1	1	R1334T
2162.982	0.559	2164823	DISTRACT_END	n/a	n/a	n/a	-999	13	[0, 0, 0]	n/a	FR1	1	R1334T
2163.541	1.675	2165382	RETRIEVAL_ORIENT_START	n/a	n/a	n/a	-999	13	[0, 0, 0]	n/a	FR1	1	R1334T
2165.216	0.0	2167057	RETRIEVAL_ORIENT_END	n/a	n/a	n/a	-999	13	[0, 0, 0]	n/a	FR1	1	R1334T
2165.216	0.611	2167057	REC_START	n/a	n/a	n/a	-999	13	[0, 0, 0]	n/a	FR1	1	R1334T
2165.827	1.42	2167667	REC_WORD	1.42	n/a	CHIEF	1	13	[0, 0, 0]	n/a	FR1	1	R1334T
2167.247	12.662	2169087	REC_WORD	12.662	n/a	GEESE	11	13	[0, 0, 0]	n/a	FR1	1	R1334T
2179.909	8.057	2181749	REC_WORD	8.057	n/a	WHEEL	-999	13	[0, 0, 0]	n/a	FR1	1	R1334T
2187.966	7.263	2189805	REC_WORD	7.263	n/a	STONE	-999	13	[0, 0, 0]	n/a	FR1	1	R1334T
2195.229	0.0	2197068	REC_END	n/a	n/a	n/a	-999	13	[0, 0, 0]	n/a	FR1	1	R1334T
2195.229	0.016	2197068	TRIAL_END	n/a	n/a	n/a	-999	13	[0, 0, 0]	n/a	FR1	1	R1334T
2195.245	0.0	2197084	WAITING_START	n/a	n/a	n/a	-999	14	[0, 0, 0]	n/a	FR1	1	R1334T
2195.245	0.0	2197084	TRIAL_START	n/a	n/a	n/a	-999	14	[0, 0, 0]	n/a	FR1	1	R1334T
2195.245	1.877	2197084	TRIAL	n/a	n/a	n/a	-999	14	[0, 0, 0]	n/a	FR1	1	R1334T
2197.122	0.0	2198961	WAITING_END	n/a	n/a	n/a	-999	14	[0, 0, 0]	n/a	FR1	1	R1334T
2197.122	10.428	2198961	COUNTDOWN_START	n/a	n/a	n/a	-999	14	[0, 0, 0]	n/a	FR1	1	R1334T
2207.55	0.001	2209389	COUNTDOWN_END	n/a	n/a	n/a	-999	14	[0, 0, 0]	n/a	FR1	1	R1334T
2207.551	1.04	2209390	ORIENT_START	n/a	n/a	n/a	-999	14	[0, 0, 0]	n/a	FR1	1	R1334T
2208.591	0.001	2210430	ORIENT_END	n/a	n/a	n/a	-999	14	[0, 0, 0]	n/a	FR1	1	R1334T
2208.592	0.793	2210431	ENCODING_START	n/a	n/a	n/a	-999	14	[0, 0, 0]	n/a	FR1	1	R1334T
2209.385	1.622	2211224	WORD	n/a	wordpools/wordpool_EN.txt	FOG	1	14	[0, 0, 0]	n/a	FR1	1	R1334T
2211.007	0.843	2212845	WORD_OFF	n/a	n/a	FOG	1	14	[0, 0, 0]	n/a	FR1	1	R1334T
2211.85	1.609	2213688	WORD	n/a	wordpools/wordpool_EN.txt	MILK	2	14	[0, 0, 0]	n/a	FR1	1	R1334T
2213.459	0.954	2215297	WORD_OFF	n/a	n/a	MILK	2	14	[0, 0, 0]	n/a	FR1	1	R1334T
2214.413	1.629	2216251	WORD	n/a	wordpools/wordpool_EN.txt	SUIT	3	14	[0, 0, 0]	n/a	FR1	1	R1334T
2216.042	0.77	2217880	WORD_OFF	n/a	n/a	SUIT	3	14	[0, 0, 0]	n/a	FR1	1	R1334T
2216.812	1.631	2218650	WORD	n/a	wordpools/wordpool_EN.txt	HEN	4	14	[0, 0, 0]	n/a	FR1	1	R1334T
2218.443	1.128	2220281	WORD_OFF	n/a	n/a	HEN	4	14	[0, 0, 0]	n/a	FR1	1	R1334T
2219.571	1.621	2221409	WORD	n/a	wordpools/wordpool_EN.txt	GUARD	5	14	[0, 0, 0]	n/a	FR1	1	R1334T
2221.192	1.031	2223030	WORD_OFF	n/a	n/a	GUARD	5	14	[0, 0, 0]	n/a	FR1	1	R1334T
2222.223	1.62	2224061	WORD	n/a	wordpools/wordpool_EN.txt	CLOWN	6	14	[0, 0, 0]	n/a	FR1	1	R1334T
2223.843	1.09	2225681	WORD_OFF	n/a	n/a	CLOWN	6	14	[0, 0, 0]	n/a	FR1	1	R1334T
2224.933	1.628	2226771	WORD	n/a	wordpools/wordpool_EN.txt	ROOT	7	14	[0, 0, 0]	n/a	FR1	1	R1334T
2226.561	1.127	2228399	WORD_OFF	n/a	n/a	ROOT	7	14	[0, 0, 0]	n/a	FR1	1	R1334T
2227.688	1.624	2229526	WORD	n/a	wordpools/wordpool_EN.txt	RICE	8	14	[0, 0, 0]	n/a	FR1	1	R1334T
2229.312	0.826	2231150	WORD_OFF	n/a	n/a	RICE	8	14	[0, 0, 0]	n/a	FR1	1	R1334T
2230.138	1.607	2231976	WORD	n/a	wordpools/wordpool_EN.txt	HAWK	9	14	[0, 0, 0]	n/a	FR1	1	R1334T
2231.745	1.139	2233583	WORD_OFF	n/a	n/a	HAWK	9	14	[0, 0, 0]	n/a	FR1	1	R1334T
2232.884	1.612	2234721	WORD	n/a	wordpools/wordpool_EN.txt	CAVE	10	14	[0, 0, 0]	n/a	FR1	1	R1334T
2234.496	0.858	2236333	WORD_OFF	n/a	n/a	CAVE	10	14	[0, 0, 0]	n/a	FR1	1	R1334T
2235.354	1.625	2237191	WORD	n/a	wordpools/wordpool_EN.txt	FLAG	11	14	[0, 0, 0]	n/a	FR1	1	R1334T
2236.979	1.029	2238816	WORD_OFF	n/a	n/a	FLAG	11	14	[0, 0, 0]	n/a	FR1	1	R1334T
2238.008	1.605	2239845	WORD	n/a	wordpools/wordpool_EN.txt	LIP	12	14	[0, 0, 0]	n/a	FR1	1	R1334T
2239.613	0.001	2241450	WORD_OFF	n/a	n/a	LIP	12	14	[0, 0, 0]	n/a	FR1	1	R1334T
2239.614	0.0	2241451	ENCODING_END	n/a	n/a	n/a	-999	14	[0, 0, 0]	n/a	FR1	1	R1334T
2239.614	0.0	2241451	DISTRACT_START	n/a	n/a	n/a	-999	14	[0, 0, 0]	n/a	FR1	1	R1334T
2239.614	0.016	2241451	START	n/a	n/a	n/a	-999	14	[-999, -999, -999]	n/a	FR1	1	R1334T
2239.63	6.6	2241467	PROB	6.6	n/a	n/a	-999	14	[2, 9, 5]	16	FR1	1	R1334T
2246.23	13.566	2248067	PROB	13.566	n/a	n/a	-999	14	[9, 8, 6]	22	FR1	1	R1334T
2259.796	0.02	2261632	STOP	n/a	n/a	n/a	-999	14	[-999, -999, -999]	n/a	FR1	1	R1334T
2259.816	0.56	2261652	DISTRACT_END	n/a	n/a	n/a	-999	14	[0, 0, 0]	n/a	FR1	1	R1334T
2260.376	1.674	2262212	RETRIEVAL_ORIENT_START	n/a	n/a	n/a	-999	14	[0, 0, 0]	n/a	FR1	1	R1334T
2262.05	0.001	2263886	RETRIEVAL_ORIENT_END	n/a	n/a	n/a	-999	14	[0, 0, 0]	n/a	FR1	1	R1334T
2262.051	1.022	2263887	REC_START	n/a	n/a	n/a	-999	14	[0, 0, 0]	n/a	FR1	1	R1334T
2263.073	4.403	2264909	REC_WORD	4.403	n/a	FLAG	11	14	[0, 0, 0]	n/a	FR1	1	R1334T
2267.476	2.541	2269312	REC_WORD	2.541	n/a	FLY	-999	14	[0, 0, 0]	n/a	FR1	1	R1334T
2270.017	0.673	2271853	REC_WORD	0.673	n/a	FOG	1	14	[0, 0, 0]	n/a	FR1	1	R1334T
2270.69	12.953	2272526	REC_WORD	12.953	n/a	MILK	2	14	[0, 0, 0]	n/a	FR1	1	R1334T
2283.643	8.42	2285478	REC_WORD	8.42	n/a	ROOT	7	14	[0, 0, 0]	n/a	FR1	1	R1334T
2292.063	0.0	2293898	REC_END	n/a	n/a	n/a	-999	14	[0, 0, 0]	n/a	FR1	1	R1334T
2292.063	0.017	2293898	TRIAL_END	n/a	n/a	n/a	-999	14	[0, 0, 0]	n/a	FR1	1	R1334T
2292.08	0.0	2293915	WAITING_START	n/a	n/a	n/a	-999	15	[0, 0, 0]	n/a	FR1	1	R1334T
2292.08	0.0	2293915	TRIAL_START	n/a	n/a	n/a	-999	15	[0, 0, 0]	n/a	FR1	1	R1334T
2292.08	3.46	2293915	TRIAL	n/a	n/a	n/a	-999	15	[0, 0, 0]	n/a	FR1	1	R1334T
2295.54	0.001	2297375	WAITING_END	n/a	n/a	n/a	-999	15	[0, 0, 0]	n/a	FR1	1	R1334T
2295.541	10.428	2297376	COUNTDOWN_START	n/a	n/a	n/a	-999	15	[0, 0, 0]	n/a	FR1	1	R1334T
2305.969	0.001	2307803	COUNTDOWN_END	n/a	n/a	n/a	-999	15	[0, 0, 0]	n/a	FR1	1	R1334T
2305.97	1.055	2307804	ORIENT_START	n/a	n/a	n/a	-999	15	[0, 0, 0]	n/a	FR1	1	R1334T
2307.025	0.0	2308859	ENCODING_START	n/a	n/a	n/a	-999	15	[0, 0, 0]	n/a	FR1	1	R1334T
2307.025	0.812	2308859	ORIENT_END	n/a	n/a	n/a	-999	15	[0, 0, 0]	n/a	FR1	1	R1334T
2307.837	1.606	2309671	WORD	n/a	wordpools/wordpool_EN.txt	SOCK	1	15	[0, 0, 0]	n/a	FR1	1	R1334T
2309.443	1.088	2311277	WORD_OFF	n/a	n/a	SOCK	1	15	[0, 0, 0]	n/a	FR1	1	R1334T
2310.531	1.628	2312365	WORD	n/a	wordpools/wordpool_EN.txt	WOOD	2	15	[0, 0, 0]	n/a	FR1	1	R1334T
2312.159	0.795	2313993	WORD_OFF	n/a	n/a	WOOD	2	15	[0, 0, 0]	n/a	FR1	1	R1334T
2312.954	1.606	2314788	WORD	n/a	wordpools/wordpool_EN.txt	BEAR	3	15	[0, 0, 0]	n/a	FR1	1	R1334T
2314.56	1.036	2316394	WORD_OFF	n/a	n/a	BEAR	3	15	[0, 0, 0]	n/a	FR1	1	R1334T
2315.596	1.631	2317430	WORD	n/a	wordpools/wordpool_EN.txt	SHEEP	4	15	[0, 0, 0]	n/a	FR1	1	R1334T
2317.227	0.891	2319061	WORD_OFF	n/a	n/a	SHEEP	4	15	[0, 0, 0]	n/a	FR1	1	R1334T
2318.118	1.627	2319952	WORD	n/a	wordpools/wordpool_EN.txt	CAKE	5	15	[0, 0, 0]	n/a	FR1	1	R1334T
2319.745	0.759	2321579	WORD_OFF	n/a	n/a	CAKE	5	15	[0, 0, 0]	n/a	FR1	1	R1334T
2320.504	1.624	2322337	WORD	n/a	wordpools/wordpool_EN.txt	PIPE	6	15	[0, 0, 0]	n/a	FR1	1	R1334T
2322.128	0.989	2323961	WORD_OFF	n/a	n/a	PIPE	6	15	[0, 0, 0]	n/a	FR1	1	R1334T
2323.117	1.612	2324950	WORD	n/a	wordpools/wordpool_EN.txt	PLATE	7	15	[0, 0, 0]	n/a	FR1	1	R1334T
2324.729	0.813	2326562	WORD_OFF	n/a	n/a	PLATE	7	15	[0, 0, 0]	n/a	FR1	1	R1334T
2325.542	1.637	2327375	WORD	n/a	wordpools/wordpool_EN.txt	STORM	8	15	[0, 0, 0]	n/a	FR1	1	R1334T
2327.179	0.815	2329012	WORD_OFF	n/a	n/a	STORM	8	15	[0, 0, 0]	n/a	FR1	1	R1334T
2327.994	1.636	2329827	WORD	n/a	wordpools/wordpool_EN.txt	STRING	9	15	[0, 0, 0]	n/a	FR1	1	R1334T
2329.63	0.762	2331463	WORD_OFF	n/a	n/a	STRING	9	15	[0, 0, 0]	n/a	FR1	1	R1334T
2330.392	1.621	2332225	WORD	n/a	wordpools/wordpool_EN.txt	JEEP	10	15	[0, 0, 0]	n/a	FR1	1	R1334T
2332.013	0.854	2333846	WORD_OFF	n/a	n/a	JEEP	10	15	[0, 0, 0]	n/a	FR1	1	R1334T
2332.867	1.63	2334700	WORD	n/a	wordpools/wordpool_EN.txt	GOAT	11	15	[0, 0, 0]	n/a	FR1	1	R1334T
2334.497	0.917	2336330	WORD_OFF	n/a	n/a	GOAT	11	15	[0, 0, 0]	n/a	FR1	1	R1334T
2335.414	1.633	2337247	WORD	n/a	wordpools/wordpool_EN.txt	DART	12	15	[0, 0, 0]	n/a	FR1	1	R1334T
2337.047	0.0	2338880	WORD_OFF	n/a	n/a	DART	12	15	[0, 0, 0]	n/a	FR1	1	R1334T
2337.047	0.0	2338880	ENCODING_END	n/a	n/a	n/a	-999	15	[0, 0, 0]	n/a	FR1	1	R1334T
2337.047	0.001	2338880	DISTRACT_START	n/a	n/a	n/a	-999	15	[0, 0, 0]	n/a	FR1	1	R1334T
2337.048	0.015	2338881	START	n/a	n/a	n/a	-999	15	[-999, -999, -999]	n/a	FR1	1	R1334T
2337.063	7.852	2338896	PROB	7.852	n/a	n/a	-999	15	[9, 2, 7]	18	FR1	1	R1334T
2344.915	3.785	2346747	PROB	3.785	n/a	n/a	-999	15	[3, 3, 1]	7	FR1	1	R1334T
2348.7	3.951	2350532	PROB	3.951	n/a	n/a	-999	15	[6, 9, 4]	19	FR1	1	R1334T
2352.651	5.334	2354483	PROB	5.334	n/a	n/a	-999	15	[7, 4, 5]	16	FR1	1	R1334T
2357.985	0.016	2359817	STOP	n/a	n/a	n/a	-999	15	[-999, -999, -999]	n/a	FR1	1	R1334T
2358.001	0.682	2359833	DISTRACT_END	n/a	n/a	n/a	-999	15	[0, 0, 0]	n/a	FR1	1	R1334T
2358.683	1.719	2360515	RETRIEVAL_ORIENT_START	n/a	n/a	n/a	-999	15	[0, 0, 0]	n/a	FR1	1	R1334T
2360.402	0.0	2362234	REC_WORD	0.0	n/a	SHEEP	4	15	[0, 0, 0]	n/a	FR1	1	R1334T
2360.402	0.0	2362234	REC_START	n/a	n/a	n/a	-999	15	[0, 0, 0]	n/a	FR1	1	R1334T
2360.402	0.84	2362234	RETRIEVAL_ORIENT_END	n/a	n/a	n/a	-999	15	[0, 0, 0]	n/a	FR1	1	R1334T
2361.242	2.806	2363074	REC_WORD	2.806	n/a	SLEEVE	-999	15	[0, 0, 0]	n/a	FR1	1	R1334T
2364.048	9.016	2365880	REC_WORD	9.016	n/a	GROUP	-999	15	[0, 0, 0]	n/a	FR1	1	R1334T
2373.064	17.352	2374895	REC_WORD	17.352	n/a	SLEEVE	-999	15	[0, 0, 0]	n/a	FR1	1	R1334T
2390.416	0.0	2392246	REC_END	n/a	n/a	n/a	-999	15	[0, 0, 0]	n/a	FR1	1	R1334T
2390.416	0.015	2392246	TRIAL_END	n/a	n/a	n/a	-999	15	[0, 0, 0]	n/a	FR1	1	R1334T
2390.431	0.001	2392261	TRIAL_START	n/a	n/a	n/a	-999	16	[0, 0, 0]	n/a	FR1	1	R1334T
2390.432	0.0	2392262	TRIAL	n/a	n/a	n/a	-999	16	[0, 0, 0]	n/a	FR1	1	R1334T
2390.432	3.943	2392262	WAITING_START	n/a	n/a	n/a	-999	16	[0, 0, 0]	n/a	FR1	1	R1334T
2394.375	0.0	2396205	COUNTDOWN_START	n/a	n/a	n/a	-999	16	[0, 0, 0]	n/a	FR1	1	R1334T
2394.375	10.43	2396205	WAITING_END	n/a	n/a	n/a	-999	16	[0, 0, 0]	n/a	FR1	1	R1334T
2404.805	0.0	2406635	COUNTDOWN_END	n/a	n/a	n/a	-999	16	[0, 0, 0]	n/a	FR1	1	R1334T
2404.805	1.221	2406635	ORIENT_START	n/a	n/a	n/a	-999	16	[0, 0, 0]	n/a	FR1	1	R1334T
2406.026	0.0	2407856	ORIENT_END	n/a	n/a	n/a	-999	16	[0, 0, 0]	n/a	FR1	1	R1334T
2406.026	0.826	2407856	ENCODING_START	n/a	n/a	n/a	-999	16	[0, 0, 0]	n/a	FR1	1	R1334T
2406.852	1.626	2408682	WORD	n/a	wordpools/wordpool_EN.txt	RAIN	1	16	[0, 0, 0]	n/a	FR1	1	R1334T
2408.478	1.135	2410307	WORD_OFF	n/a	n/a	RAIN	1	16	[0, 0, 0]	n/a	FR1	1	R1334T
2409.613	1.631	2411442	WORD	n/a	wordpools/wordpool_EN.txt	DITCH	2	16	[0, 0, 0]	n/a	FR1	1	R1334T
2411.244	1.012	2413073	WORD_OFF	n/a	n/a	DITCH	2	16	[0, 0, 0]	n/a	FR1	1	R1334T
2412.256	1.638	2414085	WORD	n/a	wordpools/wordpool_EN.txt	CHAIR	3	16	[0, 0, 0]	n/a	FR1	1	R1334T
2413.894	0.972	2415723	WORD_OFF	n/a	n/a	CHAIR	3	16	[0, 0, 0]	n/a	FR1	1	R1334T
2414.866	1.613	2416695	WORD	n/a	wordpools/wordpool_EN.txt	FOOT	4	16	[0, 0, 0]	n/a	FR1	1	R1334T
2416.479	0.844	2418308	WORD_OFF	n/a	n/a	FOOT	4	16	[0, 0, 0]	n/a	FR1	1	R1334T
2417.323	1.622	2419152	WORD	n/a	wordpools/wordpool_EN.txt	ANT	5	16	[0, 0, 0]	n/a	FR1	1	R1334T
2418.945	1.142	2420774	WORD_OFF	n/a	n/a	ANT	5	16	[0, 0, 0]	n/a	FR1	1	R1334T
2420.087	1.609	2421916	WORD	n/a	wordpools/wordpool_EN.txt	VAN	6	16	[0, 0, 0]	n/a	FR1	1	R1334T
2421.696	0.904	2423525	WORD_OFF	n/a	n/a	VAN	6	16	[0, 0, 0]	n/a	FR1	1	R1334T
2422.6	1.629	2424429	WORD	n/a	wordpools/wordpool_EN.txt	CROWN	7	16	[0, 0, 0]	n/a	FR1	1	R1334T
2424.229	0.972	2426058	WORD_OFF	n/a	n/a	CROWN	7	16	[0, 0, 0]	n/a	FR1	1	R1334T
2425.201	1.629	2427030	WORD	n/a	wordpools/wordpool_EN.txt	MAT	8	16	[0, 0, 0]	n/a	FR1	1	R1334T
2426.83	0.894	2428659	WORD_OFF	n/a	n/a	MAT	8	16	[0, 0, 0]	n/a	FR1	1	R1334T
2427.724	1.624	2429553	WORD	n/a	wordpools/wordpool_EN.txt	HORN	9	16	[0, 0, 0]	n/a	FR1	1	R1334T
2429.348	0.874	2431177	WORD_OFF	n/a	n/a	HORN	9	16	[0, 0, 0]	n/a	FR1	1	R1334T
2430.222	1.625	2432051	WORD	n/a	wordpools/wordpool_EN.txt	CALF	10	16	[0, 0, 0]	n/a	FR1	1	R1334T
2431.847	1.066	2433675	WORD_OFF	n/a	n/a	CALF	10	16	[0, 0, 0]	n/a	FR1	1	R1334T
2432.913	1.619	2434741	WORD	n/a	wordpools/wordpool_EN.txt	PANTS	11	16	[0, 0, 0]	n/a	FR1	1	R1334T
2434.532	1.021	2436360	WORD_OFF	n/a	n/a	PANTS	11	16	[0, 0, 0]	n/a	FR1	1	R1334T
2435.553	1.629	2437381	WORD	n/a	wordpools/wordpool_EN.txt	BOX	12	16	[0, 0, 0]	n/a	FR1	1	R1334T
2437.182	0.0	2439010	WORD_OFF	n/a	n/a	BOX	12	16	[0, 0, 0]	n/a	FR1	1	R1334T
2437.182	0.0	2439010	ENCODING_END	n/a	n/a	n/a	-999	16	[0, 0, 0]	n/a	FR1	1	R1334T
2437.182	0.0	2439010	DISTRACT_START	n/a	n/a	n/a	-999	16	[0, 0, 0]	n/a	FR1	1	R1334T
2437.182	0.016	2439010	START	n/a	n/a	n/a	-999	16	[-999, -999, -999]	n/a	FR1	1	R1334T
2437.198	5.968	2439026	PROB	5.968	n/a	n/a	-999	16	[4, 2, 7]	13	FR1	1	R1334T
2443.166	3.535	2444994	PROB	3.535	n/a	n/a	-999	16	[1, 9, 1]	11	FR1	1	R1334T
2446.701	4.667	2448529	PROB	4.667	n/a	n/a	-999	16	[9, 3, 3]	15	FR1	1	R1334T
2451.368	3.5	2453196	PROB	3.5	n/a	n/a	-999	16	[1, 9, 5]	15	FR1	1	R1334T
2454.868	3.803	2456695	PROB	3.803	n/a	n/a	-999	16	[4, 6, 9]	19	FR1	1	R1334T
2458.671	0.016	2460498	STOP	n/a	n/a	n/a	-999	16	[-999, -999, -999]	n/a	FR1	1	R1334T
2458.687	0.679	2460514	DISTRACT_END	n/a	n/a	n/a	-999	16	[0, 0, 0]	n/a	FR1	1	R1334T
2459.366	1.637	2461193	RETRIEVAL_ORIENT_START	n/a	n/a	n/a	-999	16	[0, 0, 0]	n/a	FR1	1	R1334T
2461.003	0.0	2462830	RETRIEVAL_ORIENT_END	n/a	n/a	n/a	-999	16	[0, 0, 0]	n/a	FR1	1	R1334T
2461.003	0.0	2462830	REC_START	n/a	n/a	n/a	-999	16	[0, 0, 0]	n/a	FR1	1	R1334T
2461.003	0.909	2462830	REC_WORD	0.909	n/a	RAIN	1	16	[0, 0, 0]	n/a	FR1	1	R1334T
2461.912	6.139	2463739	REC_WORD	6.139	n/a	DITCH	2	16	[0, 0, 0]	n/a	FR1	1	R1334T
2468.051	5.347	2469878	REC_WORD	5.347	n/a	BLEACH	-999	16	[0, 0, 0]	n/a	FR1	1	R1334T
2473.398	11.109	2475225	REC_WORD	11.109	n/a	BENCH	-999	16	[0, 0, 0]	n/a	FR1	1	R1334T
2484.507	6.509	2486333	REC_WORD	6.509	n/a	PIPE	-999	16	[0, 0, 0]	n/a	FR1	1	R1334T
2491.016	0.001	2492842	REC_END	n/a	n/a	n/a	-999	16	[0, 0, 0]	n/a	FR1	1	R1334T
2491.017	0.017	2492843	TRIAL_END	n/a	n/a	n/a	-999	16	[0, 0, 0]	n/a	FR1	1	R1334T
2491.034	0.0	2492860	TRIAL_START	n/a	n/a	n/a	-999	17	[0, 0, 0]	n/a	FR1	1	R1334T
2491.034	0.0	2492860	TRIAL	n/a	n/a	n/a	-999	17	[0, 0, 0]	n/a	FR1	1	R1334T
2491.034	1.975	2492860	WAITING_START	n/a	n/a	n/a	-999	17	[0, 0, 0]	n/a	FR1	1	R1334T
2493.009	0.0	2494835	COUNTDOWN_START	n/a	n/a	n/a	-999	17	[0, 0, 0]	n/a	FR1	1	R1334T
2493.009	10.428	2494835	WAITING_END	n/a	n/a	n/a	-999	17	[0, 0, 0]	n/a	FR1	1	R1334T
2503.437	0.0	2505262	COUNTDOWN_END	n/a	n/a	n/a	-999	17	[0, 0, 0]	n/a	FR1	1	R1334T
2503.437	1.158	2505262	ORIENT_START	n/a	n/a	n/a	-999	17	[0, 0, 0]	n/a	FR1	1	R1334T
2504.595	0.0	2506420	ORIENT_END	n/a	n/a	n/a	-999	17	[0, 0, 0]	n/a	FR1	1	R1334T
2504.595	0.96	2506420	ENCODING_START	n/a	n/a	n/a	-999	17	[0, 0, 0]	n/a	FR1	1	R1334T
2505.555	1.623	2507380	WORD	n/a	wordpools/wordpool_EN.txt	WORM	1	17	[0, 0, 0]	n/a	FR1	1	R1334T
2507.178	0.901	2509003	WORD_OFF	n/a	n/a	WORM	1	17	[0, 0, 0]	n/a	FR1	1	R1334T
2508.079	1.617	2509904	WORD	n/a	wordpools/wordpool_EN.txt	OWL	2	17	[0, 0, 0]	n/a	FR1	1	R1334T
2509.696	0.911	2511521	WORD_OFF	n/a	n/a	OWL	2	17	[0, 0, 0]	n/a	FR1	1	R1334T
2510.607	1.621	2512432	WORD	n/a	wordpools/wordpool_EN.txt	TOOL	3	17	[0, 0, 0]	n/a	FR1	1	R1334T
2512.228	1.017	2514053	WORD_OFF	n/a	n/a	TOOL	3	17	[0, 0, 0]	n/a	FR1	1	R1334T
2513.245	1.634	2515070	WORD	n/a	wordpools/wordpool_EN.txt	TRAIN	4	17	[0, 0, 0]	n/a	FR1	1	R1334T
2514.879	1.036	2516704	WORD_OFF	n/a	n/a	TRAIN	4	17	[0, 0, 0]	n/a	FR1	1	R1334T
2515.915	1.616	2517740	WORD	n/a	wordpools/wordpool_EN.txt	BAG	5	17	[0, 0, 0]	n/a	FR1	1	R1334T
2517.531	0.863	2519356	WORD_OFF	n/a	n/a	BAG	5	17	[0, 0, 0]	n/a	FR1	1	R1334T
2518.394	1.636	2520219	WORD	n/a	wordpools/wordpool_EN.txt	CASH	6	17	[0, 0, 0]	n/a	FR1	1	R1334T
2520.03	1.063	2521854	WORD_OFF	n/a	n/a	CASH	6	17	[0, 0, 0]	n/a	FR1	1	R1334T
2521.093	1.639	2522917	WORD	n/a	wordpools/wordpool_EN.txt	VINE	7	17	[0, 0, 0]	n/a	FR1	1	R1334T
2522.732	0.795	2524556	WORD_OFF	n/a	n/a	VINE	7	17	[0, 0, 0]	n/a	FR1	1	R1334T
2523.527	1.621	2525351	WORD	n/a	wordpools/wordpool_EN.txt	PARK	8	17	[0, 0, 0]	n/a	FR1	1	R1334T
2525.148	0.75	2526972	WORD_OFF	n/a	n/a	PARK	8	17	[0, 0, 0]	n/a	FR1	1	R1334T
2525.898	1.618	2527722	WORD	n/a	wordpools/wordpool_EN.txt	THUMB	9	17	[0, 0, 0]	n/a	FR1	1	R1334T
2527.516	0.785	2529340	WORD_OFF	n/a	n/a	THUMB	9	17	[0, 0, 0]	n/a	FR1	1	R1334T
2528.301	1.631	2530125	WORD	n/a	wordpools/wordpool_EN.txt	FENCE	10	17	[0, 0, 0]	n/a	FR1	1	R1334T
2529.932	1.089	2531756	WORD_OFF	n/a	n/a	FENCE	10	17	[0, 0, 0]	n/a	FR1	1	R1334T
2531.021	1.629	2532845	WORD	n/a	wordpools/wordpool_EN.txt	ROAD	11	17	[0, 0, 0]	n/a	FR1	1	R1334T
2532.65	1.146	2534474	WORD_OFF	n/a	n/a	ROAD	11	17	[0, 0, 0]	n/a	FR1	1	R1334T
2533.796	1.638	2535620	WORD	n/a	wordpools/wordpool_EN.txt	OAR	12	17	[0, 0, 0]	n/a	FR1	1	R1334T
2535.434	0.0	2537258	DISTRACT_START	n/a	n/a	n/a	-999	17	[0, 0, 0]	n/a	FR1	1	R1334T
2535.434	0.0	2537258	ENCODING_END	n/a	n/a	n/a	-999	17	[0, 0, 0]	n/a	FR1	1	R1334T
2535.434	0.001	2537258	WORD_OFF	n/a	n/a	OAR	12	17	[0, 0, 0]	n/a	FR1	1	R1334T
2535.435	0.015	2537259	START	n/a	n/a	n/a	-999	17	[-999, -999, -999]	n/a	FR1	1	R1334T
2535.45	6.835	2537274	PROB	6.835	n/a	n/a	-999	17	[6, 5, 9]	20	FR1	1	R1334T
2542.285	4.9	2544108	PROB	4.9	n/a	n/a	-999	17	[4, 7, 2]	13	FR1	1	R1334T
2547.185	3.568	2549008	PROB	3.568	n/a	n/a	-999	17	[2, 2, 4]	8	FR1	1	R1334T
2550.753	3.818	2552576	PROB	3.818	n/a	n/a	-999	17	[7, 5, 4]	16	FR1	1	R1334T
2554.571	3.925	2556394	PROB	3.925	n/a	n/a	-999	17	[9, 3, 4]	16	FR1	1	R1334T
2558.496	0.009	2560319	STOP	n/a	n/a	n/a	-999	17	[-999, -999, -999]	n/a	FR1	1	R1334T
2558.505	0.563	2560328	DISTRACT_END	n/a	n/a	n/a	-999	17	[0, 0, 0]	n/a	FR1	1	R1334T
2559.068	1.571	2560891	RETRIEVAL_ORIENT_START	n/a	n/a	n/a	-999	17	[0, 0, 0]	n/a	FR1	1	R1334T
2560.639	0.0	2562462	RETRIEVAL_ORIENT_END	n/a	n/a	n/a	-999	17	[0, 0, 0]	n/a	FR1	1	R1334T
2560.639	0.105	2562462	REC_START	n/a	n/a	n/a	-999	17	[0, 0, 0]	n/a	FR1	1	R1334T
2560.744	0.908	2562567	REC_WORD	0.908	n/a	WORD	-999	17	[0, 0, 0]	n/a	FR1	1	R1334T
2561.652	1.278	2563475	REC_WORD	1.278	n/a	TRAIN	4	17	[0, 0, 0]	n/a	FR1	1	R1334T
2562.93	3.828	2564752	REC_WORD	3.828	n/a	ROAD	11	17	[0, 0, 0]	n/a	FR1	1	R1334T
2566.758	23.892	2568580	REC_WORD	23.892	n/a	OAR	12	17	[0, 0, 0]	n/a	FR1	1	R1334T
2590.65	0.001	2592471	REC_END	n/a	n/a	n/a	-999	17	[0, 0, 0]	n/a	FR1	1	R1334T
2590.651	0.014	2592472	TRIAL_END	n/a	n/a	n/a	-999	17	[0, 0, 0]	n/a	FR1	1	R1334T
2590.665	0.0	2592486	TRIAL_START	n/a	n/a	n/a	-999	18	[0, 0, 0]	n/a	FR1	1	R1334T
2590.665	0.0	2592486	TRIAL	n/a	n/a	n/a	-999	18	[0, 0, 0]	n/a	FR1	1	R1334T
2590.665	1.929	2592486	WAITING_START	n/a	n/a	n/a	-999	18	[0, 0, 0]	n/a	FR1	1	R1334T
2592.594	0.001	2594415	WAITING_END	n/a	n/a	n/a	-999	18	[0, 0, 0]	n/a	FR1	1	R1334T
2592.595	10.428	2594416	COUNTDOWN_START	n/a	n/a	n/a	-999	18	[0, 0, 0]	n/a	FR1	1	R1334T
2603.023	0.001	2604844	COUNTDOWN_END	n/a	n/a	n/a	-999	18	[0, 0, 0]	n/a	FR1	1	R1334T
2603.024	1.255	2604845	ORIENT_START	n/a	n/a	n/a	-999	18	[0, 0, 0]	n/a	FR1	1	R1334T
2604.279	0.0	2606100	ENCODING_START	n/a	n/a	n/a	-999	18	[0, 0, 0]	n/a	FR1	1	R1334T
2604.279	0.872	2606100	ORIENT_END	n/a	n/a	n/a	-999	18	[0, 0, 0]	n/a	FR1	1	R1334T
2605.151	1.628	2606972	WORD	n/a	wordpools/wordpool_EN.txt	FAN	1	18	[0, 0, 0]	n/a	FR1	1	R1334T
2606.779	0.875	2608600	WORD_OFF	n/a	n/a	FAN	1	18	[0, 0, 0]	n/a	FR1	1	R1334T
2607.654	1.626	2609474	WORD	n/a	wordpools/wordpool_EN.txt	WOLF	2	18	[0, 0, 0]	n/a	FR1	1	R1334T
2609.28	0.973	2611100	WORD_OFF	n/a	n/a	WOLF	2	18	[0, 0, 0]	n/a	FR1	1	R1334T
2610.253	1.627	2612073	WORD	n/a	wordpools/wordpool_EN.txt	PEA	3	18	[0, 0, 0]	n/a	FR1	1	R1334T
2611.88	0.76	2613700	WORD_OFF	n/a	n/a	PEA	3	18	[0, 0, 0]	n/a	FR1	1	R1334T
2612.64	1.624	2614460	WORD	n/a	wordpools/wordpool_EN.txt	ICE	4	18	[0, 0, 0]	n/a	FR1	1	R1334T
2614.264	0.903	2616084	WORD_OFF	n/a	n/a	ICE	4	18	[0, 0, 0]	n/a	FR1	1	R1334T
2615.167	1.631	2616987	WORD	n/a	wordpools/wordpool_EN.txt	WEB	5	18	[0, 0, 0]	n/a	FR1	1	R1334T
2616.798	1.05	2618618	WORD_OFF	n/a	n/a	WEB	5	18	[0, 0, 0]	n/a	FR1	1	R1334T
2617.848	1.618	2619668	WORD	n/a	wordpools/wordpool_EN.txt	BRIDGE	6	18	[0, 0, 0]	n/a	FR1	1	R1334T
2619.466	1.065	2621286	WORD_OFF	n/a	n/a	BRIDGE	6	18	[0, 0, 0]	n/a	FR1	1	R1334T
2620.531	1.634	2622351	WORD	n/a	wordpools/wordpool_EN.txt	ROCK	7	18	[0, 0, 0]	n/a	FR1	1	R1334T
2622.165	0.784	2623985	WORD_OFF	n/a	n/a	ROCK	7	18	[0, 0, 0]	n/a	FR1	1	R1334T
2622.949	1.634	2624769	WORD	n/a	wordpools/wordpool_EN.txt	DOOR	8	18	[0, 0, 0]	n/a	FR1	1	R1334T
2624.583	0.787	2626403	WORD_OFF	n/a	n/a	DOOR	8	18	[0, 0, 0]	n/a	FR1	1	R1334T
2625.37	1.63	2627190	WORD	n/a	wordpools/wordpool_EN.txt	BALL	9	18	[0, 0, 0]	n/a	FR1	1	R1334T
2627.0	0.973	2628820	WORD_OFF	n/a	n/a	BALL	9	18	[0, 0, 0]	n/a	FR1	1	R1334T
2627.973	1.628	2629793	WORD	n/a	wordpools/wordpool_EN.txt	BEE	10	18	[0, 0, 0]	n/a	FR1	1	R1334T
2629.601	0.798	2631420	WORD_OFF	n/a	n/a	BEE	10	18	[0, 0, 0]	n/a	FR1	1	R1334T
2630.399	1.635	2632218	WORD	n/a	wordpools/wordpool_EN.txt	WAVE	11	18	[0, 0, 0]	n/a	FR1	1	R1334T
2632.034	0.934	2633853	WORD_OFF	n/a	n/a	WAVE	11	18	[0, 0, 0]	n/a	FR1	1	R1334T
2632.968	1.617	2634787	WORD	n/a	wordpools/wordpool_EN.txt	RUG	12	18	[0, 0, 0]	n/a	FR1	1	R1334T
2634.585	0.0	2636404	WORD_OFF	n/a	n/a	RUG	12	18	[0, 0, 0]	n/a	FR1	1	R1334T
2634.585	0.001	2636404	ENCODING_END	n/a	n/a	n/a	-999	18	[0, 0, 0]	n/a	FR1	1	R1334T
2634.586	0.0	2636405	DISTRACT_START	n/a	n/a	n/a	-999	18	[0, 0, 0]	n/a	FR1	1	R1334T
2634.586	0.016	2636405	START	n/a	n/a	n/a	-999	18	[-999, -999, -999]	n/a	FR1	1	R1334T
2634.602	6.918	2636421	PROB	6.918	n/a	n/a	-999	18	[4, 2, 4]	10	FR1	1	R1334T
2641.52	3.649	2643339	PROB	3.649	n/a	n/a	-999	18	[2, 4, 9]	15	FR1	1	R1334T
2645.169	4.519	2646988	PROB	4.519	n/a	n/a	-999	18	[5, 3, 2]	10	FR1	1	R1334T
2649.688	2.634	2651507	PROB	2.634	n/a	n/a	-999	18	[4, 1, 6]	11	FR1	1	R1334T
2652.322	4.444	2654140	PROB	4.444	n/a	n/a	-999	18	[7, 7, 4]	18	FR1	1	R1334T
2656.766	0.006	2658584	STOP	n/a	n/a	n/a	-999	18	[-999, -999, -999]	n/a	FR1	1	R1334T
2656.772	0.615	2658590	DISTRACT_END	n/a	n/a	n/a	-999	18	[0, 0, 0]	n/a	FR1	1	R1334T
2657.387	1.618	2659205	RETRIEVAL_ORIENT_START	n/a	n/a	n/a	-999	18	[0, 0, 0]	n/a	FR1	1	R1334T
2659.005	0.001	2660823	RETRIEVAL_ORIENT_END	n/a	n/a	n/a	-999	18	[0, 0, 0]	n/a	FR1	1	R1334T
2659.006	0.029	2660824	REC_START	n/a	n/a	n/a	-999	18	[0, 0, 0]	n/a	FR1	1	R1334T
2659.035	0.915	2660853	REC_WORD	0.915	n/a	RUG	12	18	[0, 0, 0]	n/a	FR1	1	R1334T
2659.95	1.355	2661768	REC_WORD	1.355	n/a	WAVE	11	18	[0, 0, 0]	n/a	FR1	1	R1334T
2661.305	4.976	2663123	REC_WORD	4.976	n/a	AGE	-999	18	[0, 0, 0]	n/a	FR1	1	R1334T
2666.281	9.847	2668099	REC_WORD	9.847	n/a	ROCK	7	18	[0, 0, 0]	n/a	FR1	1	R1334T
2676.128	12.889	2677945	REC_WORD	12.889	n/a	FAN	1	18	[0, 0, 0]	n/a	FR1	1	R1334T
2689.017	0.0	2690834	REC_END	n/a	n/a	n/a	-999	18	[0, 0, 0]	n/a	FR1	1	R1334T
2689.017	0.014	2690834	TRIAL_END	n/a	n/a	n/a	-999	18	[0, 0, 0]	n/a	FR1	1	R1334T
2689.031	0.0	2690848	TRIAL_START	n/a	n/a	n/a	-999	19	[0, 0, 0]	n/a	FR1	1	R1334T
2689.031	0.001	2690848	TRIAL	n/a	n/a	n/a	-999	19	[0, 0, 0]	n/a	FR1	1	R1334T
2689.032	1.829	2690849	WAITING_START	n/a	n/a	n/a	-999	19	[0, 0, 0]	n/a	FR1	1	R1334T
2690.861	0.001	2692678	WAITING_END	n/a	n/a	n/a	-999	19	[0, 0, 0]	n/a	FR1	1	R1334T
2690.862	10.429	2692679	COUNTDOWN_START	n/a	n/a	n/a	-999	19	[0, 0, 0]	n/a	FR1	1	R1334T
2701.291	0.0	2703107	ORIENT_START	n/a	n/a	n/a	-999	19	[0, 0, 0]	n/a	FR1	1	R1334T
2701.291	1.123	2703107	COUNTDOWN_END	n/a	n/a	n/a	-999	19	[0, 0, 0]	n/a	FR1	1	R1334T
2702.414	0.001	2704230	ORIENT_END	n/a	n/a	n/a	-999	19	[0, 0, 0]	n/a	FR1	1	R1334T
2702.415	0.991	2704231	ENCODING_START	n/a	n/a	n/a	-999	19	[0, 0, 0]	n/a	FR1	1	R1334T
2703.406	1.624	2705222	WORD	n/a	wordpools/wordpool_EN.txt	BARN	1	19	[0, 0, 0]	n/a	FR1	1	R1334T
2705.03	0.91	2706846	WORD_OFF	n/a	n/a	BARN	1	19	[0, 0, 0]	n/a	FR1	1	R1334T
2705.94	1.608	2707756	WORD	n/a	wordpools/wordpool_EN.txt	LAMB	2	19	[0, 0, 0]	n/a	FR1	1	R1334T
2707.548	0.838	2709364	WORD_OFF	n/a	n/a	LAMB	2	19	[0, 0, 0]	n/a	FR1	1	R1334T
2708.386	1.629	2710202	WORD	n/a	wordpools/wordpool_EN.txt	MOUTH	3	19	[0, 0, 0]	n/a	FR1	1	R1334T
2710.015	1.143	2711831	WORD_OFF	n/a	n/a	MOUTH	3	19	[0, 0, 0]	n/a	FR1	1	R1334T
2711.158	1.624	2712974	WORD	n/a	wordpools/wordpool_EN.txt	TOY	4	19	[0, 0, 0]	n/a	FR1	1	R1334T
2712.782	1.143	2714598	WORD_OFF	n/a	n/a	TOY	4	19	[0, 0, 0]	n/a	FR1	1	R1334T
2713.925	1.625	2715741	WORD	n/a	wordpools/wordpool_EN.txt	JAR	5	19	[0, 0, 0]	n/a	FR1	1	R1334T
2715.55	0.85	2717366	WORD_OFF	n/a	n/a	JAR	5	19	[0, 0, 0]	n/a	FR1	1	R1334T
2716.4	1.633	2718216	WORD	n/a	wordpools/wordpool_EN.txt	SKUNK	6	19	[0, 0, 0]	n/a	FR1	1	R1334T
2718.033	1.131	2719848	WORD_OFF	n/a	n/a	SKUNK	6	19	[0, 0, 0]	n/a	FR1	1	R1334T
2719.164	1.636	2720979	WORD	n/a	wordpools/wordpool_EN.txt	STAIR	7	19	[0, 0, 0]	n/a	FR1	1	R1334T
2720.8	0.988	2722615	WORD_OFF	n/a	n/a	STAIR	7	19	[0, 0, 0]	n/a	FR1	1	R1334T
2721.788	1.63	2723603	WORD	n/a	wordpools/wordpool_EN.txt	TENT	8	19	[0, 0, 0]	n/a	FR1	1	R1334T
2723.418	0.851	2725233	WORD_OFF	n/a	n/a	TENT	8	19	[0, 0, 0]	n/a	FR1	1	R1334T
2724.269	1.632	2726084	WORD	n/a	wordpools/wordpool_EN.txt	LEG	9	19	[0, 0, 0]	n/a	FR1	1	R1334T
2725.901	0.867	2727716	WORD_OFF	n/a	n/a	LEG	9	19	[0, 0, 0]	n/a	FR1	1	R1334T
2726.768	1.634	2728583	WORD	n/a	wordpools/wordpool_EN.txt	SNAIL	10	19	[0, 0, 0]	n/a	FR1	1	R1334T
2728.402	1.027	2730217	WORD_OFF	n/a	n/a	SNAIL	10	19	[0, 0, 0]	n/a	FR1	1	R1334T
2729.429	1.623	2731244	WORD	n/a	wordpools/wordpool_EN.txt	PEARL	11	19	[0, 0, 0]	n/a	FR1	1	R1334T
2731.052	1.125	2732867	WORD_OFF	n/a	n/a	PEARL	11	19	[0, 0, 0]	n/a	FR1	1	R1334T
2732.177	1.625	2733992	WORD	n/a	wordpools/wordpool_EN.txt	WALL	12	19	[0, 0, 0]	n/a	FR1	1	R1334T
2733.802	0.001	2735617	WORD_OFF	n/a	n/a	WALL	12	19	[0, 0, 0]	n/a	FR1	1	R1334T
2733.803	0.0	2735618	ENCODING_END	n/a	n/a	n/a	-999	19	[0, 0, 0]	n/a	FR1	1	R1334T
2733.803	0.0	2735618	DISTRACT_START	n/a	n/a	n/a	-999	19	[0, 0, 0]	n/a	FR1	1	R1334T
2733.803	0.016	2735618	START	n/a	n/a	n/a	-999	19	[-999, -999, -999]	n/a	FR1	1	R1334T
2733.819	4.15	2735634	PROB	4.15	n/a	n/a	-999	19	[3, 8, 1]	12	FR1	1	R1334T
2737.969	2.818	2739784	PROB	2.818	n/a	n/a	-999	19	[4, 8, 2]	14	FR1	1	R1334T
2740.787	4.668	2742601	PROB	4.668	n/a	n/a	-999	19	[9, 5, 2]	16	FR1	1	R1334T
2745.455	4.35	2747269	PROB	4.35	n/a	n/a	-999	19	[8, 7, 2]	17	FR1	1	R1334T
2749.805	4.208	2751619	PROB	4.208	n/a	n/a	-999	19	[9, 9, 4]	22	FR1	1	R1334T
2754.013	0.01	2755827	STOP	n/a	n/a	n/a	-999	19	[-999, -999, -999]	n/a	FR1	1	R1334T
2754.023	0.596	2755837	DISTRACT_END	n/a	n/a	n/a	-999	19	[0, 0, 0]	n/a	FR1	1	R1334T
2754.619	1.537	2756433	RETRIEVAL_ORIENT_START	n/a	n/a	n/a	-999	19	[0, 0, 0]	n/a	FR1	1	R1334T
2756.156	0.001	2757970	RETRIEVAL_ORIENT_END	n/a	n/a	n/a	-999	19	[0, 0, 0]	n/a	FR1	1	R1334T
2756.157	0.329	2757971	REC_START	n/a	n/a	n/a	-999	19	[0, 0, 0]	n/a	FR1	1	R1334T
2756.486	4.041	2758300	REC_WORD	4.041	n/a	BARN	1	19	[0, 0, 0]	n/a	FR1	1	R1334T
2760.527	8.276	2762341	REC_WORD	8.276	n/a	TRAY	-999	19	[0, 0, 0]	n/a	FR1	1	R1334T
2768.803	17.367	2770616	REC_WORD	17.367	n/a	TENT	8	19	[0, 0, 0]	n/a	FR1	1	R1334T
2786.17	0.0	2787982	REC_END	n/a	n/a	n/a	-999	19	[0, 0, 0]	n/a	FR1	1	R1334T
2786.17	0.015	2787982	TRIAL_END	n/a	n/a	n/a	-999	19	[0, 0, 0]	n/a	FR1	1	R1334T
2786.185	0.0	2787997	TRIAL	n/a	n/a	n/a	-999	20	[0, 0, 0]	n/a	FR1	1	R1334T
2786.185	0.0	2787997	WAITING_START	n/a	n/a	n/a	-999	20	[0, 0, 0]	n/a	FR1	1	R1334T
2786.185	2.228	2787997	TRIAL_START	n/a	n/a	n/a	-999	20	[0, 0, 0]	n/a	FR1	1	R1334T
2788.413	0.001	2790225	WAITING_END	n/a	n/a	n/a	-999	20	[0, 0, 0]	n/a	FR1	1	R1334T
2788.414	10.428	2790226	COUNTDOWN_START	n/a	n/a	n/a	-999	20	[0, 0, 0]	n/a	FR1	1	R1334T
2798.842	0.001	2800654	COUNTDOWN_END	n/a	n/a	n/a	-999	20	[0, 0, 0]	n/a	FR1	1	R1334T
2798.843	1.188	2800655	ORIENT_START	n/a	n/a	n/a	-999	20	[0, 0, 0]	n/a	FR1	1	R1334T
2800.031	0.0	2801843	ORIENT_END	n/a	n/a	n/a	-999	20	[0, 0, 0]	n/a	FR1	1	R1334T
2800.031	0.979	2801843	ENCODING_START	n/a	n/a	n/a	-999	20	[0, 0, 0]	n/a	FR1	1	R1334T
2801.01	1.639	2802822	WORD	n/a	wordpools/wordpool_EN.txt	FUR	1	20	[0, 0, 0]	n/a	FR1	1	R1334T
2802.649	0.823	2804461	WORD_OFF	n/a	n/a	FUR	1	20	[0, 0, 0]	n/a	FR1	1	R1334T
2803.472	1.627	2805284	WORD	n/a	wordpools/wordpool_EN.txt	SHOE	2	20	[0, 0, 0]	n/a	FR1	1	R1334T
2805.099	0.791	2806911	WORD_OFF	n/a	n/a	SHOE	2	20	[0, 0, 0]	n/a	FR1	1	R1334T
2805.89	1.61	2807701	WORD	n/a	wordpools/wordpool_EN.txt	MOUSE	3	20	[0, 0, 0]	n/a	FR1	1	R1334T
2807.5	0.822	2809311	WORD_OFF	n/a	n/a	MOUSE	3	20	[0, 0, 0]	n/a	FR1	1	R1334T
2808.322	1.627	2810133	WORD	n/a	wordpools/wordpool_EN.txt	LAMP	4	20	[0, 0, 0]	n/a	FR1	1	R1334T
2809.949	1.132	2811760	WORD_OFF	n/a	n/a	LAMP	4	20	[0, 0, 0]	n/a	FR1	1	R1334T
2811.081	1.62	2812892	WORD	n/a	wordpools/wordpool_EN.txt	SPOON	5	20	[0, 0, 0]	n/a	FR1	1	R1334T
2812.701	1.06	2814512	WORD_OFF	n/a	n/a	SPOON	5	20	[0, 0, 0]	n/a	FR1	1	R1334T
2813.761	1.624	2815572	WORD	n/a	wordpools/wordpool_EN.txt	WING	6	20	[0, 0, 0]	n/a	FR1	1	R1334T
2815.385	1.021	2817196	WORD_OFF	n/a	n/a	WING	6	20	[0, 0, 0]	n/a	FR1	1	R1334T
2816.406	1.628	2818217	WORD	n/a	wordpools/wordpool_EN.txt	FLUTE	7	20	[0, 0, 0]	n/a	FR1	1	R1334T
2818.034	0.787	2819845	WORD_OFF	n/a	n/a	FLUTE	7	20	[0, 0, 0]	n/a	FR1	1	R1334T
2818.821	1.631	2820632	WORD	n/a	wordpools/wordpool_EN.txt	CANE	8	20	[0, 0, 0]	n/a	FR1	1	R1334T
2820.452	0.876	2822263	WORD_OFF	n/a	n/a	CANE	8	20	[0, 0, 0]	n/a	FR1	1	R1334T
2821.328	1.624	2823139	WORD	n/a	wordpools/wordpool_EN.txt	BREAD	9	20	[0, 0, 0]	n/a	FR1	1	R1334T
2822.952	1.035	2824763	WORD_OFF	n/a	n/a	BREAD	9	20	[0, 0, 0]	n/a	FR1	1	R1334T
2823.987	1.633	2825798	WORD	n/a	wordpools/wordpool_EN.txt	DUCK	10	20	[0, 0, 0]	n/a	FR1	1	R1334T
2825.62	0.998	2827431	WORD_OFF	n/a	n/a	DUCK	10	20	[0, 0, 0]	n/a	FR1	1	R1334T
2826.618	1.635	2828429	WORD	n/a	wordpools/wordpool_EN.txt	BOOT	11	20	[0, 0, 0]	n/a	FR1	1	R1334T
2828.253	1.103	2830063	WORD_OFF	n/a	n/a	BOOT	11	20	[0, 0, 0]	n/a	FR1	1	R1334T
2829.356	1.631	2831166	WORD	n/a	wordpools/wordpool_EN.txt	MUD	12	20	[0, 0, 0]	n/a	FR1	1	R1334T
2830.987	0.0	2832797	WORD_OFF	n/a	n/a	MUD	12	20	[0, 0, 0]	n/a	FR1	1	R1334T
2830.987	0.0	2832797	ENCODING_END	n/a	n/a	n/a	-999	20	[0, 0, 0]	n/a	FR1	1	R1334T
2830.987	0.0	2832797	DISTRACT_START	n/a	n/a	n/a	-999	20	[0, 0, 0]	n/a	FR1	1	R1334T
2830.987	0.016	2832797	START	n/a	n/a	n/a	-999	20	[-999, -999, -999]	n/a	FR1	1	R1334T
2831.003	6.018	2832813	PROB	6.018	n/a	n/a	-999	20	[5, 4, 2]	11	FR1	1	R1334T
2837.021	3.735	2838831	PROB	3.735	n/a	n/a	-999	20	[1, 7, 6]	14	FR1	1	R1334T
2840.756	3.817	2842566	PROB	3.817	n/a	n/a	-999	20	[4, 9, 5]	18	FR1	1	R1334T
2844.573	3.216	2846383	PROB	3.216	n/a	n/a	-999	20	[9, 9, 3]	21	FR1	1	R1334T
2847.789	2.802	2849599	PROB	2.802	n/a	n/a	-999	20	[1, 4, 5]	10	FR1	1	R1334T
2850.591	3.706	2852400	PROB	3.706	n/a	n/a	-999	20	[1, 8, 7]	16	FR1	1	R1334T
2854.297	0.012	2856106	STOP	n/a	n/a	n/a	-999	20	[-999, -999, -999]	n/a	FR1	1	R1334T
2854.309	0.646	2856118	DISTRACT_END	n/a	n/a	n/a	-999	20	[0, 0, 0]	n/a	FR1	1	R1334T
2854.955	1.687	2856764	RETRIEVAL_ORIENT_START	n/a	n/a	n/a	-999	20	[0, 0, 0]	n/a	FR1	1	R1334T
2856.642	0.001	2858451	RETRIEVAL_ORIENT_END	n/a	n/a	n/a	-999	20	[0, 0, 0]	n/a	FR1	1	R1334T
2856.643	3.539	2858452	REC_START	n/a	n/a	n/a	-999	20	[0, 0, 0]	n/a	FR1	1	R1334T
2860.182	0.704	2861991	REC_WORD	0.704	n/a	FUR	1	20	[0, 0, 0]	n/a	FR1	1	R1334T
2860.886	2.078	2862695	REC_WORD	2.078	n/a	SHOE	2	20	[0, 0, 0]	n/a	FR1	1	R1334T
2862.964	1.241	2864773	REC_WORD	1.241	n/a	BOOT	11	20	[0, 0, 0]	n/a	FR1	1	R1334T
2864.205	16.483	2866014	REC_WORD	16.483	n/a	MUG	-999	20	[0, 0, 0]	n/a	FR1	1	R1334T
2880.688	5.966	2882496	REC_WORD	5.966	n/a	CRANE	-999	20	[0, 0, 0]	n/a	FR1	1	R1334T
2886.654	0.0	2888462	REC_END	n/a	n/a	n/a	-999	20	[0, 0, 0]	n/a	FR1	1	R1334T
2886.654	0.016	2888462	TRIAL_END	n/a	n/a	n/a	-999	20	[0, 0, 0]	n/a	FR1	1	R1334T
2886.67	0.0	2888478	TRIAL_START	n/a	n/a	n/a	-999	21	[0, 0, 0]	n/a	FR1	1	R1334T
2886.67	0.0	2888478	TRIAL	n/a	n/a	n/a	-999	21	[0, 0, 0]	n/a	FR1	1	R1334T
2886.67	2.527	2888478	WAITING_START	n/a	n/a	n/a	-999	21	[0, 0, 0]	n/a	FR1	1	R1334T
2889.197	0.001	2891005	WAITING_END	n/a	n/a	n/a	-999	21	[0, 0, 0]	n/a	FR1	1	R1334T
2889.198	10.429	2891006	COUNTDOWN_START	n/a	n/a	n/a	-999	21	[0, 0, 0]	n/a	FR1	1	R1334T
2899.627	0.0	2901434	COUNTDOWN_END	n/a	n/a	n/a	-999	21	[0, 0, 0]	n/a	FR1	1	R1334T
2899.627	1.024	2901434	ORIENT_START	n/a	n/a	n/a	-999	21	[0, 0, 0]	n/a	FR1	1	R1334T
2900.651	0.0	2902458	ORIENT_END	n/a	n/a	n/a	-999	21	[0, 0, 0]	n/a	FR1	1	R1334T
2900.651	0.958	2902458	ENCODING_START	n/a	n/a	n/a	-999	21	[0, 0, 0]	n/a	FR1	1	R1334T
2901.609	1.624	2903416	WORD	n/a	wordpools/wordpool_EN.txt	OAK	1	21	[0, 0, 0]	n/a	FR1	1	R1334T
2903.233	0.883	2905040	WORD_OFF	n/a	n/a	OAK	1	21	[0, 0, 0]	n/a	FR1	1	R1334T
2904.116	1.635	2905923	WORD	n/a	wordpools/wordpool_EN.txt	MUG	2	21	[0, 0, 0]	n/a	FR1	1	R1334T
2905.751	0.969	2907558	WORD_OFF	n/a	n/a	MUG	2	21	[0, 0, 0]	n/a	FR1	1	R1334T
2906.72	1.632	2908527	WORD	n/a	wordpools/wordpool_EN.txt	COW	3	21	[0, 0, 0]	n/a	FR1	1	R1334T
2908.352	0.925	2910159	WORD_OFF	n/a	n/a	COW	3	21	[0, 0, 0]	n/a	FR1	1	R1334T
2909.277	1.624	2911084	WORD	n/a	wordpools/wordpool_EN.txt	FOAM	4	21	[0, 0, 0]	n/a	FR1	1	R1334T
2910.901	0.796	2912708	WORD_OFF	n/a	n/a	FOAM	4	21	[0, 0, 0]	n/a	FR1	1	R1334T
2911.697	1.622	2913504	WORD	n/a	wordpools/wordpool_EN.txt	SOAP	5	21	[0, 0, 0]	n/a	FR1	1	R1334T
2913.319	0.825	2915126	WORD_OFF	n/a	n/a	SOAP	5	21	[0, 0, 0]	n/a	FR1	1	R1334T
2914.144	1.625	2915951	WORD	n/a	wordpools/wordpool_EN.txt	SAIL	6	21	[0, 0, 0]	n/a	FR1	1	R1334T
2915.769	0.911	2917576	WORD_OFF	n/a	n/a	SAIL	6	21	[0, 0, 0]	n/a	FR1	1	R1334T
2916.68	1.624	2918486	WORD	n/a	wordpools/wordpool_EN.txt	WEED	7	21	[0, 0, 0]	n/a	FR1	1	R1334T
2918.304	1.126	2920110	WORD_OFF	n/a	n/a	WEED	7	21	[0, 0, 0]	n/a	FR1	1	R1334T
2919.43	1.623	2921236	WORD	n/a	wordpools/wordpool_EN.txt	NAIL	8	21	[0, 0, 0]	n/a	FR1	1	R1334T
2921.053	0.997	2922859	WORD_OFF	n/a	n/a	NAIL	8	21	[0, 0, 0]	n/a	FR1	1	R1334T
2922.05	1.638	2923856	WORD	n/a	wordpools/wordpool_EN.txt	ROOF	9	21	[0, 0, 0]	n/a	FR1	1	R1334T
2923.688	0.774	2925494	WORD_OFF	n/a	n/a	ROOF	9	21	[0, 0, 0]	n/a	FR1	1	R1334T
2924.462	1.625	2926268	WORD	n/a	wordpools/wordpool_EN.txt	CORN	10	21	[0, 0, 0]	n/a	FR1	1	R1334T
2926.087	0.757	2927893	WORD_OFF	n/a	n/a	CORN	10	21	[0, 0, 0]	n/a	FR1	1	R1334T
2926.844	1.628	2928650	WORD	n/a	wordpools/wordpool_EN.txt	TOOTH	11	21	[0, 0, 0]	n/a	FR1	1	R1334T
2928.472	0.883	2930278	WORD_OFF	n/a	n/a	TOOTH	11	21	[0, 0, 0]	n/a	FR1	1	R1334T
2929.355	1.633	2931161	WORD	n/a	wordpools/wordpool_EN.txt	COIN	12	21	[0, 0, 0]	n/a	FR1	1	R1334T
2930.988	0.001	2932794	WORD_OFF	n/a	n/a	COIN	12	21	[0, 0, 0]	n/a	FR1	1	R1334T
2930.989	0.0	2932795	ENCODING_END	n/a	n/a	n/a	-999	21	[0, 0, 0]	n/a	FR1	1	R1334T
2930.989	0.0	2932795	DISTRACT_START	n/a	n/a	n/a	-999	21	[0, 0, 0]	n/a	FR1	1	R1334T
2930.989	0.016	2932795	START	n/a	n/a	n/a	-999	21	[-999, -999, -999]	n/a	FR1	1	R1334T
2931.005	5.234	2932811	PROB	5.234	n/a	n/a	-999	21	[6, 1, 7]	14	FR1	1	R1334T
2936.239	4.901	2938045	PROB	4.901	n/a	n/a	-999	21	[4, 5, 9]	18	FR1	1	R1334T
2941.14	3.667	2942945	PROB	3.667	n/a	n/a	-999	21	[1, 6, 7]	14	FR1	1	R1334T
2944.807	7.022	2946612	PROB	7.022	n/a	n/a	-999	21	[3, 9, 8]	20	FR1	1	R1334T
2951.829	0.013	2953634	STOP	n/a	n/a	n/a	-999	21	[-999, -999, -999]	n/a	FR1	1	R1334T
2951.842	0.678	2953647	DISTRACT_END	n/a	n/a	n/a	-999	21	[0, 0, 0]	n/a	FR1	1	R1334T
2952.52	1.589	2954325	RETRIEVAL_ORIENT_START	n/a	n/a	n/a	-999	21	[0, 0, 0]	n/a	FR1	1	R1334T
2954.109	0.0	2955914	RETRIEVAL_ORIENT_END	n/a	n/a	n/a	-999	21	[0, 0, 0]	n/a	FR1	1	R1334T
2954.109	0.206	2955914	REC_START	n/a	n/a	n/a	-999	21	[0, 0, 0]	n/a	FR1	1	R1334T
2954.315	1.34	2956120	REC_WORD	1.34	n/a	PHONE	-999	21	[0, 0, 0]	n/a	FR1	1	R1334T
2955.655	1.086	2957460	REC_WORD	1.086	n/a	SOAP	5	21	[0, 0, 0]	n/a	FR1	1	R1334T
2956.741	9.436	2958546	REC_WORD	9.436	n/a	SNAIL	-999	21	[0, 0, 0]	n/a	FR1	1	R1334T
2966.177	1.44	2967981	REC_WORD	1.44	n/a	ROOF	9	21	[0, 0, 0]	n/a	FR1	1	R1334T
2967.617	16.505	2969421	REC_WORD	16.505	n/a	OAK	1	21	[0, 0, 0]	n/a	FR1	1	R1334T
2984.122	0.0	2985925	REC_END	n/a	n/a	n/a	-999	21	[0, 0, 0]	n/a	FR1	1	R1334T
2984.122	0.014	2985925	TRIAL_END	n/a	n/a	n/a	-999	21	[0, 0, 0]	n/a	FR1	1	R1334T
2984.136	0.0	2985939	TRIAL_START	n/a	n/a	n/a	-999	22	[0, 0, 0]	n/a	FR1	1	R1334T
2984.136	0.0	2985939	TRIAL	n/a	n/a	n/a	-999	22	[0, 0, 0]	n/a	FR1	1	R1334T
2984.136	1.695	2985939	WAITING_START	n/a	n/a	n/a	-999	22	[0, 0, 0]	n/a	FR1	1	R1334T
2985.831	0.001	2987634	WAITING_END	n/a	n/a	n/a	-999	22	[0, 0, 0]	n/a	FR1	1	R1334T
2985.832	10.429	2987635	COUNTDOWN_START	n/a	n/a	n/a	-999	22	[0, 0, 0]	n/a	FR1	1	R1334T
2996.261	0.0	2998064	ORIENT_START	n/a	n/a	n/a	-999	22	[0, 0, 0]	n/a	FR1	1	R1334T
2996.261	1.023	2998064	COUNTDOWN_END	n/a	n/a	n/a	-999	22	[0, 0, 0]	n/a	FR1	1	R1334T
2997.284	0.001	2999087	ORIENT_END	n/a	n/a	n/a	-999	22	[0, 0, 0]	n/a	FR1	1	R1334T
2997.285	1.107	2999088	ENCODING_START	n/a	n/a	n/a	-999	22	[0, 0, 0]	n/a	FR1	1	R1334T
2998.392	1.625	3000195	WORD	n/a	wordpools/wordpool_EN.txt	BOAT	1	22	[0, 0, 0]	n/a	FR1	1	R1334T
3000.017	0.831	3001820	WORD_OFF	n/a	n/a	BOAT	1	22	[0, 0, 0]	n/a	FR1	1	R1334T
3000.848	1.621	3002651	WORD	n/a	wordpools/wordpool_EN.txt	EAR	2	22	[0, 0, 0]	n/a	FR1	1	R1334T
3002.469	1.053	3004272	WORD_OFF	n/a	n/a	EAR	2	22	[0, 0, 0]	n/a	FR1	1	R1334T
3003.522	1.63	3005325	WORD	n/a	wordpools/wordpool_EN.txt	SPRING	3	22	[0, 0, 0]	n/a	FR1	1	R1334T
3005.152	0.838	3006954	WORD_OFF	n/a	n/a	SPRING	3	22	[0, 0, 0]	n/a	FR1	1	R1334T
3005.99	1.63	3007792	WORD	n/a	wordpools/wordpool_EN.txt	PHONE	4	22	[0, 0, 0]	n/a	FR1	1	R1334T
3007.62	0.956	3009422	WORD_OFF	n/a	n/a	PHONE	4	22	[0, 0, 0]	n/a	FR1	1	R1334T
3008.576	1.627	3010378	WORD	n/a	wordpools/wordpool_EN.txt	SEAT	5	22	[0, 0, 0]	n/a	FR1	1	R1334T
3010.203	1.117	3012005	WORD_OFF	n/a	n/a	SEAT	5	22	[0, 0, 0]	n/a	FR1	1	R1334T
3011.32	1.633	3013122	WORD	n/a	wordpools/wordpool_EN.txt	FROG	6	22	[0, 0, 0]	n/a	FR1	1	R1334T
3012.953	0.757	3014755	WORD_OFF	n/a	n/a	FROG	6	22	[0, 0, 0]	n/a	FR1	1	R1334T
3013.71	1.628	3015512	WORD	n/a	wordpools/wordpool_EN.txt	FORK	7	22	[0, 0, 0]	n/a	FR1	1	R1334T
3015.338	0.901	3017140	WORD_OFF	n/a	n/a	FORK	7	22	[0, 0, 0]	n/a	FR1	1	R1334T
3016.239	1.632	3018041	WORD	n/a	wordpools/wordpool_EN.txt	HILL	8	22	[0, 0, 0]	n/a	FR1	1	R1334T
3017.871	0.918	3019673	WORD_OFF	n/a	n/a	HILL	8	22	[0, 0, 0]	n/a	FR1	1	R1334T
3018.789	1.633	3020591	WORD	n/a	wordpools/wordpool_EN.txt	HOOK	9	22	[0, 0, 0]	n/a	FR1	1	R1334T
3020.422	1.085	3022224	WORD_OFF	n/a	n/a	HOOK	9	22	[0, 0, 0]	n/a	FR1	1	R1334T
3021.507	1.631	3023309	WORD	n/a	wordpools/wordpool_EN.txt	STRAW	10	22	[0, 0, 0]	n/a	FR1	1	R1334T
3023.138	0.915	3024940	WORD_OFF	n/a	n/a	STRAW	10	22	[0, 0, 0]	n/a	FR1	1	R1334T
3024.053	1.637	3025855	WORD	n/a	wordpools/wordpool_EN.txt	SIGN	11	22	[0, 0, 0]	n/a	FR1	1	R1334T
3025.69	0.918	3027492	WORD_OFF	n/a	n/a	SIGN	11	22	[0, 0, 0]	n/a	FR1	1	R1334T
3026.608	1.631	3028409	WORD	n/a	wordpools/wordpool_EN.txt	FARM	12	22	[0, 0, 0]	n/a	FR1	1	R1334T
3028.239	0.001	3030040	WORD_OFF	n/a	n/a	FARM	12	22	[0, 0, 0]	n/a	FR1	1	R1334T
3028.24	0.0	3030041	DISTRACT_START	n/a	n/a	n/a	-999	22	[0, 0, 0]	n/a	FR1	1	R1334T
3028.24	0.0	3030041	ENCODING_END	n/a	n/a	n/a	-999	22	[0, 0, 0]	n/a	FR1	1	R1334T
3028.24	0.016	3030041	START	n/a	n/a	n/a	-999	22	[-999, -999, -999]	n/a	FR1	1	R1334T
3028.256	3.301	3030057	PROB	3.301	n/a	n/a	-999	22	[2, 2, 8]	12	FR1	1	R1334T
3031.557	3.951	3033358	PROB	3.951	n/a	n/a	-999	22	[5, 3, 8]	16	FR1	1	R1334T
3035.508	3.616	3037309	PROB	3.616	n/a	n/a	-999	22	[3, 2, 7]	12	FR1	1	R1334T
3039.124	6.169	3040925	PROB	6.169	n/a	n/a	-999	22	[8, 5, 4]	17	FR1	1	R1334T
3045.293	4.942	3047094	PROB	4.942	n/a	n/a	-999	22	[2, 9, 3]	14	FR1	1	R1334T
3050.235	0.008	3052035	STOP	n/a	n/a	n/a	-999	22	[-999, -999, -999]	n/a	FR1	1	R1334T
3050.243	0.573	3052043	DISTRACT_END	n/a	n/a	n/a	-999	22	[0, 0, 0]	n/a	FR1	1	R1334T
